time,left pressure 0[N/cm²],left pressure 1[N/cm²],left pressure 2[N/cm²],left pressure 3[N/cm²],left pressure 4[N/cm²],left pressure 5[N/cm²],left pressure 6[N/cm²],left pressure 7[N/cm²],left pressure 8[N/cm²],left pressure 9[N/cm²],left pressure 10[N/cm²],left pressure 11[N/cm²],left pressure 12[N/cm²],left acceleration X[g],left acceleration Y[g],left acceleration Z[g],left total force[N],left center of pressure X[mm],left center of pressure Y[mm],right pressure 0[N/cm²],right pressure 1[N/cm²],right pressure 2[N/cm²],right pressure 3[N/cm²],right pressure 4[N/cm²],right pressure 5[N/cm²],right pressure 6[N/cm²],right pressure 7[N/cm²],right pressure 8[N/cm²],right pressure 9[N/cm²],right pressure 10[N/cm²],right pressure 11[N/cm²],right pressure 12[N/cm²],right acceleration X[g],right acceleration Y[g],right acceleration Z[g],right total force[N],right center of pressure X[mm],right center of pressure Y[mm]
0.02,0.0,0.0,1.0,2.0,0.0,0.0,0.5,4.75,2.0,4.25,3.25,3.0,2.75,-0.17,0.08,0.95,282.49,-0.7,-54.3,1.25,0.5,0.0,1.25,3.25,1.75,0.75,5.25,1.75,7.0,6.5,4.5,5.75,0.08,0.08,0.95,579.52,3.0,-48.3
0.04,0.0,0.25,0.0,2.0,0.0,0.0,0.5,4.5,2.0,4.25,3.25,3.0,2.25,-0.17,0.08,0.95,269.42,-1.9,-56.8,1.25,0.5,0.0,1.25,3.5,2.5,0.75,5.25,1.75,7.25,6.5,4.5,5.75,0.08,0.08,0.95,583.51,3.4,-46.3
0.06,0.0,0.0,0.0,2.0,0.0,0.0,0.5,4.5,2.0,4.25,3.0,2.75,2.25,-0.17,0.08,0.95,262.26,-2.4,-57.9,1.0,0.5,0.0,0.5,3.25,1.25,0.75,5.25,1.5,7.25,6.75,5.0,5.75,0.08,0.14,0.95,575.1,3.3,-53.6
0.08,0.0,0.0,0.0,2.25,0.0,0.0,0.25,4.5,2.0,4.25,3.0,2.5,2.0,-0.17,0.08,0.95,256.56,-2.3,-55.7,1.0,0.5,0.0,0.75,2.5,1.25,0.5,5.0,1.25,7.25,6.75,5.0,6.0,0.08,0.08,0.95,562.84,3.4,-56.1
0.1,0.0,0.25,0.0,1.75,0.0,0.0,0.5,4.75,2.0,4.25,3.0,2.75,2.0,-0.17,0.08,0.95,257.35,-2.4,-56.6,1.25,0.0,0.0,0.75,2.5,1.25,0.25,4.0,1.25,7.5,6.75,5.0,6.0,0.02,0.08,0.95,544.76,3.2,-58.2
0.12,0.0,0.25,0.0,2.0,0.0,0.0,0.5,4.5,2.0,4.5,2.5,3.0,2.0,-0.17,0.08,0.95,261.15,-2.4,-55.8,0.75,0.5,0.0,0.25,2.25,1.25,0.25,4.0,1.25,7.0,6.75,5.25,6.0,0.02,0.08,0.95,526.58,3.5,-60.7
0.14,0.0,0.0,0.25,2.0,0.0,0.25,0.5,4.75,2.25,4.5,3.0,3.0,2.25,-0.17,0.08,0.95,273.17,-2.1,-55.9,1.0,0.25,0.0,0.5,2.25,1.25,0.25,4.0,1.25,7.25,6.75,5.25,6.25,0.02,0.08,0.95,517.04,3.4,-60.4
0.16,0.0,0.0,0.0,1.75,0.0,0.25,0.5,5.0,2.5,5.0,3.25,3.0,2.75,-0.17,0.08,0.95,288.76,-3.2,-59.9,0.75,0.0,0.0,0.5,2.25,1.25,0.0,4.0,1.25,7.0,6.75,5.5,6.5,0.02,0.08,0.95,512.68,3.8,-63.5
0.18,0.0,0.0,0.0,1.25,0.0,0.0,0.5,5.25,2.5,5.5,4.25,3.25,3.0,-0.17,0.08,0.95,312.67,-3.3,-64.9,0.75,0.0,0.0,0.5,2.25,1.25,0.25,3.75,1.25,7.75,7.0,5.5,6.75,0.02,0.08,0.95,519.47,3.8,-64.0
0.2,0.0,0.0,0.0,0.75,0.0,0.0,0.5,5.25,2.5,5.5,4.75,4.0,3.75,-0.17,0.08,0.95,344.37,-3.4,-70.1,0.5,0.0,0.0,0.5,2.5,1.25,0.25,3.75,1.25,7.5,7.5,5.75,7.0,0.02,0.08,0.95,531.79,3.7,-64.8
0.22,0.0,0.0,0.0,0.5,0.0,0.0,0.5,5.25,2.5,6.0,5.25,4.0,4.25,-0.17,0.08,0.95,373.38,-3.7,-72.2,0.5,0.0,0.0,0.5,2.25,1.25,0.25,2.75,1.25,7.5,7.25,5.5,7.25,0.02,0.08,0.89,534.98,3.6,-66.4
0.24,0.0,0.0,0.5,0.5,0.0,0.0,0.25,5.25,2.5,6.5,5.25,4.5,4.5,-0.17,0.08,0.95,402.79,-3.2,-71.3,1.0,0.0,0.0,0.5,2.5,1.25,0.0,2.75,1.0,7.75,7.5,5.75,7.5,0.02,0.08,0.95,542.74,3.3,-64.6
0.26,0.0,0.0,0.0,0.5,0.0,0.0,0.25,5.25,2.5,6.5,5.75,5.0,5.5,-0.17,0.02,0.95,437.84,-3.8,-75.4,1.0,0.0,0.0,0.5,2.25,1.25,0.0,2.75,1.0,7.75,7.5,6.0,7.75,0.02,0.08,0.89,548.71,3.3,-66.1
0.28,0.0,0.0,0.5,0.5,0.0,0.0,0.25,5.25,2.5,6.5,5.75,5.0,5.5,-0.17,0.02,0.95,466.71,-3.1,-73.2,0.75,0.0,0.0,0.5,2.25,1.25,0.25,2.5,1.0,7.75,7.5,6.0,7.75,0.02,0.08,0.95,554.5,3.4,-67.0
0.3,0.0,0.0,1.0,0.5,0.0,0.0,0.25,5.25,2.5,6.5,5.75,5.0,5.0,-0.17,0.02,0.95,483.38,-2.3,-70.4,0.75,0.0,0.0,0.5,2.25,1.25,0.25,2.75,1.25,7.75,7.5,6.0,7.75,0.02,0.08,0.95,562.02,3.3,-66.6
0.32,0.0,0.0,1.0,0.5,0.0,0.0,0.25,5.25,2.5,6.5,5.75,5.0,5.75,-0.17,0.08,0.95,495.16,-2.6,-71.4,0.75,0.0,0.0,0.75,2.25,1.25,0.25,2.75,1.25,7.75,7.5,6.0,8.0,0.02,0.08,0.95,570.79,3.3,-66.1
0.34,0.25,0.0,1.0,0.5,0.0,0.0,0.25,5.25,2.25,6.5,6.0,5.25,6.0,-0.17,0.08,0.95,503.91,-2.3,-71.0,1.0,0.0,0.0,0.75,2.25,0.75,0.0,2.75,1.25,8.0,7.5,6.25,8.0,0.02,0.08,0.95,578.17,2.9,-66.9
0.36,0.25,0.0,1.0,0.5,0.0,0.0,0.25,5.0,2.25,6.5,5.75,5.5,6.25,-0.17,0.02,0.95,509.13,-2.3,-71.8,0.5,0.0,0.0,0.75,2.25,1.25,0.25,2.75,1.0,8.25,7.5,6.25,8.0,0.02,0.08,0.95,583.6,3.7,-67.6
0.38,0.25,0.0,1.0,0.5,0.0,0.0,0.25,4.75,2.25,6.5,6.0,5.5,6.0,-0.17,0.02,0.95,508.17,-2.0,-71.8,1.0,0.0,0.0,0.5,2.25,1.25,0.25,4.0,1.25,8.5,8.0,6.5,8.25,0.02,0.08,0.89,604.84,3.6,-66.2
0.4,0.0,0.0,1.25,0.5,0.0,0.0,0.25,4.75,2.25,6.5,6.0,5.25,6.0,-0.17,0.02,0.95,502.87,-2.0,-71.7,1.0,0.0,0.0,0.5,2.25,1.25,0.0,4.0,1.5,8.5,8.0,6.5,8.5,0.02,0.08,0.89,626.03,3.6,-66.6
0.42,0.0,0.0,1.0,0.5,0.0,0.0,0.25,5.0,2.25,6.5,5.75,5.25,6.0,-0.17,0.08,0.95,494.07,-2.6,-72.5,1.25,0.0,0.25,1.0,2.75,1.25,0.0,4.25,1.75,9.0,8.5,7.25,8.5,0.02,0.08,0.95,666.55,2.7,-62.7
0.44,0.0,0.0,1.5,0.5,0.0,0.0,0.25,4.75,2.25,6.5,6.25,5.0,5.75,-0.17,0.08,0.95,486.0,-1.6,-70.1,0.5,0.0,0.25,1.0,2.5,1.25,0.5,5.25,1.25,9.75,9.0,7.5,9.25,0.02,0.08,0.95,715.35,3.7,-66.3
0.46,0.25,0.0,1.25,0.5,0.0,0.0,0.25,4.75,2.25,6.5,5.75,5.0,5.75,-0.17,0.08,0.95,476.69,-1.9,-69.8,1.25,0.5,0.0,1.25,3.25,1.25,0.75,6.0,2.5,9.75,9.25,8.0,9.25,0.02,0.08,0.95,786.38,2.7,-59.8
0.48,0.25,0.0,1.25,0.5,0.0,0.0,0.25,4.5,2.0,6.0,5.5,5.0,5.25,-0.17,0.08,0.95,458.43,-1.5,-69.5,1.0,0.75,0.25,1.25,3.0,1.25,0.75,6.25,2.5,10.5,10.0,8.0,9.75,0.08,0.08,0.95,855.22,2.7,-60.5
0.5,0.0,0.0,1.75,0.75,0.0,0.0,0.25,4.5,2.0,5.5,5.0,4.25,5.5,-0.17,0.08,0.95,435.79,-1.3,-66.6,1.0,0.75,0.25,1.75,3.25,1.5,0.75,7.0,3.0,10.5,10.5,8.25,10.0,0.08,0.08,0.95,932.31,2.6,-58.6
0.52,0.0,0.0,1.75,0.5,0.0,0.0,0.25,4.25,1.5,4.5,3.5,3.5,4.25,-0.17,0.08,0.95,387.33,-1.4,-64.2,1.25,0.75,0.5,1.0,3.25,2.0,1.25,7.5,3.25,11.0,10.5,8.5,10.0,0.08,0.08,0.95,999.75,2.7,-58.1
0.54,0.0,0.0,1.5,0.5,0.0,0.0,0.25,3.25,1.25,3.0,2.5,2.5,2.75,-0.17,0.08,0.95,319.5,-0.2,-59.7,1.25,0.5,1.0,1.25,3.5,2.0,1.25,7.5,3.25,11.0,11.0,8.25,10.5,0.08,0.08,0.95,1056.08,2.3,-57.1
0.56,0.0,0.0,1.0,0.5,0.0,0.0,0.25,2.5,0.75,2.5,1.0,1.75,1.75,-0.17,0.08,1.02,246.74,-1.5,-57.0,1.25,0.0,0.75,1.25,3.5,3.25,1.0,7.75,3.25,10.5,10.5,8.5,10.5,0.08,0.08,0.95,1088.26,3.1,-57.1
0.58,0.0,0.0,2.0,0.5,0.0,0.0,0.25,2.0,0.5,1.75,0.25,0.0,1.0,-0.3,0.08,1.45,166.24,3.0,-24.4,1.25,0.25,0.75,1.25,3.5,2.5,1.25,7.75,3.5,10.5,10.5,8.25,10.0,0.08,0.08,0.95,1095.36,2.6,-56.6
0.6,0.0,0.0,1.75,0.5,0.0,0.0,0.0,2.25,0.5,1.75,0.0,1.0,0.5,-0.55,0.14,1.58,102.4,2.4,-31.7,1.25,0.25,2.0,1.25,3.5,3.0,1.25,8.0,3.5,10.5,10.0,7.75,9.5,0.08,0.08,0.95,1086.25,2.1,-52.4
0.62,0.0,0.0,1.0,0.0,0.0,0.0,0.75,5.0,2.0,0.0,0.0,0.0,0.0,-0.8,-0.42,1.58,63.06,-1.0,-23.6,1.25,0.0,2.0,2.0,3.75,3.0,1.25,8.0,3.5,9.5,9.75,7.5,9.25,0.08,0.08,0.95,1059.1,1.7,-50.1
0.64,0.0,0.0,0.0,0.0,0.0,0.0,3.5,4.5,1.25,0.0,0.0,0.0,0.0,-1.3,-1.23,1.27,42.95,-0.8,-23.7,1.25,0.75,2.5,2.75,3.5,3.25,1.25,8.25,3.5,9.75,9.5,7.0,9.25,0.14,0.08,0.95,1042.44,1.3,-45.6
0.66,0.0,0.0,0.0,0.0,0.0,0.0,3.5,3.5,2.0,0.0,0.0,0.0,0.0,-1.23,-1.42,1.02,33.78,2.7,-23.2,1.25,0.75,2.75,2.75,3.75,3.5,1.25,8.25,3.5,9.5,9.0,6.75,8.75,0.14,0.08,0.95,1016.55,1.2,-43.2
0.68,0.5,0.0,0.0,0.0,0.0,0.0,3.5,4.75,2.25,0.0,0.0,0.0,0.0,-0.61,-1.36,0.7,43.08,1.9,-19.5,1.25,0.75,2.75,3.0,4.25,3.75,1.25,8.25,3.5,9.0,8.75,6.5,8.5,0.14,0.08,0.95,993.69,1.1,-40.7
0.7,0.25,0.0,0.0,0.0,0.0,0.0,3.75,5.0,2.0,0.0,0.0,0.0,0.0,-0.42,-1.3,0.89,56.52,0.7,-21.9,1.25,1.0,2.75,3.5,4.25,3.5,1.75,8.25,3.5,9.0,8.5,6.0,8.0,0.14,0.08,0.95,964.49,0.7,-38.0
0.72,0.25,0.0,0.5,0.0,0.0,0.0,3.75,4.75,3.0,0.75,0.0,0.5,0.0,-0.17,-1.17,0.95,86.42,3.0,-26.6,1.25,0.75,2.75,4.0,4.75,4.0,1.75,8.25,3.5,8.5,8.0,5.75,8.0,0.14,0.08,0.95,941.37,0.8,-35.4
0.74,0.25,0.0,2.0,0.0,0.0,0.0,3.75,5.0,0.0,0.75,0.75,0.0,0.0,-0.17,-0.98,1.02,110.99,5.4,-10.1,2.25,1.25,5.25,5.5,6.0,4.5,2.0,8.0,3.25,8.25,7.75,5.25,7.25,0.14,0.08,0.95,954.44,-1.6,-22.2
0.76,2.25,0.0,1.25,0.5,0.0,0.0,4.0,5.0,2.75,1.5,0.0,0.5,0.0,-0.17,-0.73,1.02,158.49,7.9,-6.4,2.75,1.0,6.25,6.25,6.25,5.0,2.5,7.75,3.0,7.5,6.75,4.25,6.25,0.2,0.14,0.95,972.23,-2.7,-14.4
0.78,1.25,0.0,2.0,2.0,0.0,0.0,3.75,5.25,2.75,1.25,0.75,0.5,0.0,-0.17,-0.48,1.14,201.69,8.6,-5.7,3.75,1.75,7.75,8.0,7.0,5.75,2.75,7.5,2.5,6.5,5.25,3.0,5.5,0.14,0.14,0.95,1017.05,-4.3,-0.9
0.8,1.5,0.0,1.75,1.5,0.0,0.0,4.75,5.75,2.75,0.25,0.0,0.0,0.0,-0.23,-0.17,1.2,229.07,9.6,3.4,5.0,2.5,8.75,9.75,8.0,5.75,3.0,7.0,1.75,5.5,4.5,2.25,4.75,0.14,0.14,0.95,1073.01,-6.2,10.3
0.82,2.25,0.0,0.75,1.5,0.0,0.0,4.0,5.0,2.75,1.5,0.0,0.5,0.0,-0.23,0.08,1.2,242.18,7.6,-4.3,5.75,2.5,9.25,11.5,8.0,5.75,3.0,6.0,1.5,3.75,3.25,1.75,4.0,0.14,0.14,0.95,1111.02,-8.1,20.1
0.84,1.5,0.0,1.5,2.0,0.0,0.0,4.25,5.0,3.0,0.5,0.0,0.0,0.0,-0.23,0.27,1.27,243.7,9.9,4.0,6.25,3.0,10.5,12.5,8.5,5.5,3.0,5.25,1.0,3.5,2.5,1.5,3.5,0.14,0.14,1.08,1142.5,-9.5,26.8
0.86,1.5,0.0,2.0,0.75,0.0,0.0,4.0,5.25,2.75,0.25,0.0,0.0,0.0,-0.36,0.58,1.27,237.16,10.0,2.3,7.25,2.5,11.5,11.5,9.0,3.75,2.25,4.0,0.5,1.25,1.75,0.75,3.0,0.14,0.14,1.2,1111.67,-12.6,37.4
0.88,1.25,0.0,1.75,1.0,0.0,0.0,3.75,5.0,2.75,0.25,0.0,0.0,0.0,-0.17,0.95,1.14,227.18,9.5,1.2,7.25,2.75,11.0,10.5,8.0,2.75,1.25,2.5,0.25,0.75,1.0,0.5,2.25,0.14,0.2,1.27,1019.11,-14.6,45.0
0.9,2.0,0.0,1.25,0.5,0.0,0.0,3.75,5.0,0.25,1.0,0.0,0.25,0.0,0.02,1.58,0.89,210.93,7.3,2.8,7.5,2.75,11.5,11.0,8.0,1.75,1.0,1.25,0.5,0.5,1.0,0.25,2.0,0.08,0.27,1.2,921.03,-16.7,49.6
0.92,0.5,0.0,1.0,0.5,0.0,0.0,0.0,1.5,0.25,1.0,0.0,0.0,0.5,0.33,2.08,0.83,164.82,3.7,-11.5,7.75,2.5,11.5,9.75,7.5,1.25,1.25,1.25,0.25,0.25,1.0,0.25,1.75,0.08,0.27,1.27,826.36,-17.9,51.4
0.94,0.0,0.0,1.0,1.0,0.0,0.0,0.0,1.5,0.25,1.0,0.0,0.0,0.0,0.39,2.27,0.83,119.14,4.0,-4.0,7.75,2.5,11.5,9.5,6.25,1.25,0.0,1.25,0.0,0.5,0.25,0.0,1.75,0.14,0.33,1.33,741.89,-18.4,54.4
0.96,0.0,0.0,1.0,0.0,0.0,0.0,0.0,0.0,0.0,0.25,0.0,0.0,0.0,0.27,2.39,0.27,59.9,27.7,34.3,7.5,2.5,10.5,7.75,4.25,1.25,0.75,1.0,0.25,0.5,0.0,0.25,1.5,0.14,0.33,1.45,646.11,-19.7,54.5
0.98,0.0,0.0,0.75,0.5,0.0,0.0,0.0,1.5,0.25,1.5,0.0,0.0,0.75,-0.05,1.33,1.89,39.85,-3.3,-35.4,6.0,0.75,8.75,5.75,3.75,1.25,1.25,1.0,0.0,0.25,0.0,0.25,1.5,0.2,0.58,1.77,523.8,-19.3,50.9
1.0,0.0,0.0,1.0,0.5,0.0,0.0,0.25,1.5,0.5,2.75,0.0,1.75,2.0,-0.23,-0.3,0.95,58.75,-2.2,-59.3,2.75,0.0,7.0,2.25,0.0,0.5,1.25,0.75,0.0,0.25,0.0,0.25,1.5,0.14,1.2,2.45,352.4,-23.7,38.4
1.02,0.0,0.0,1.0,0.5,0.0,0.0,0.0,1.5,0.5,4.25,0.0,2.75,2.25,0.27,0.14,1.45,109.41,-3.4,-66.9,0.0,0.0,2.75,0.5,0.0,0.25,0.25,0.75,0.0,0.25,0.0,0.0,0.75,-0.17,0.2,2.52,198.03,-16.2,14.8
1.04,0.25,0.0,1.0,0.5,0.0,0.0,0.0,2.5,0.75,4.5,0.75,3.5,4.25,-0.42,0.45,1.95,178.64,-3.7,-69.9,0.0,0.0,0.0,0.0,0.0,0.0,0.25,0.5,0.0,0.25,1.0,0.0,0.5,0.45,-0.48,1.89,41.08,2.1,-69.9
1.06,0.0,0.0,1.0,0.5,0.0,0.0,0.0,3.25,0.0,6.0,0.0,4.0,4.25,-0.23,0.08,1.27,232.99,-6.5,-73.2,0.0,0.0,0.0,0.0,0.0,0.0,0.25,0.75,0.0,0.0,0.0,0.0,0.0,0.83,-0.61,2.52,0.0,10.0,-29.6
1.08,0.0,0.0,0.0,0.5,0.0,0.0,0.25,4.5,1.75,6.5,0.0,5.25,4.5,-0.17,0.14,1.08,286.55,-6.9,-76.6,0.0,0.0,0.0,1.25,0.0,0.25,0.25,0.75,0.0,0.0,0.0,0.0,1.5,0.39,-1.11,2.08,0.0,3.2,-28.1
1.1,0.0,0.0,2.0,1.0,0.0,0.0,0.25,5.0,2.75,7.25,6.0,6.25,6.25,-0.23,0.08,0.95,389.35,-0.9,-67.8,0.0,0.0,0.0,0.0,0.0,0.25,0.0,1.0,0.0,0.0,0.0,0.0,1.5,0.52,-0.86,0.89,0.0,15.5,-72.1
1.12,0.0,0.0,1.25,0.0,0.0,0.0,0.5,6.0,3.25,8.0,7.5,6.25,6.75,-0.11,0.02,0.95,518.92,-2.3,-73.3,0.0,0.0,0.0,0.0,0.0,0.0,0.25,0.75,0.0,0.25,0.0,0.0,1.0,0.39,-0.61,0.77,0.0,12.4,-73.4
1.14,0.0,0.0,0.75,1.5,0.0,0.25,0.5,6.25,4.0,8.0,7.5,6.25,6.75,-0.17,0.02,0.95,644.23,-2.0,-68.5,0.0,0.0,0.25,0.0,0.0,0.25,0.25,1.0,0.0,0.0,0.0,0.0,0.5,0.2,-0.48,0.89,0.0,7.2,-32.1
1.16,0.0,0.0,1.75,2.25,0.0,0.75,0.75,6.5,4.25,8.0,7.5,6.25,6.75,-0.17,0.02,0.95,739.98,-0.9,-61.6,0.0,0.0,0.0,0.0,0.0,0.0,0.0,0.0,0.0,0.0,0.0,0.0,0.75,0.2,-0.3,0.95,0.0,13.7,-109.9
1.18,0.0,0.0,1.75,2.25,0.0,0.75,0.75,6.75,4.5,7.25,7.5,6.0,6.75,-0.17,0.02,0.95,786.79,-0.7,-60.8,0.0,0.0,0.0,0.0,0.0,0.25,0.25,0.5,0.0,0.25,0.0,0.25,0.0,0.14,-0.11,1.08,0.0,8.5,-40.0
1.2,0.0,0.25,2.5,2.5,0.0,0.75,1.0,6.75,4.5,7.25,7.25,5.5,6.25,-0.17,0.02,0.95,795.31,0.2,-55.6,0.0,0.0,0.25,0.0,2.25,0.0,0.75,0.75,0.0,0.0,0.0,0.0,0.25,0.14,0.14,1.02,0.0,0.7,25.4
1.22,0.5,0.0,2.75,2.5,0.0,1.0,1.0,6.5,4.25,6.5,6.75,5.0,5.75,-0.17,0.02,0.95,764.96,0.8,-51.9,1.0,0.25,0.0,1.25,0.25,1.25,0.25,1.0,0.5,0.75,1.0,0.0,0.75,0.2,0.33,1.14,28.69,-1.4,-2.5
1.24,0.25,0.75,3.25,2.0,0.0,1.25,1.0,6.5,3.75,5.5,5.75,4.0,5.25,-0.17,0.02,0.95,706.2,1.0,-46.0,0.5,0.0,0.0,0.0,1.75,0.0,0.75,1.0,0.0,0.0,1.25,0.0,0.75,0.14,0.39,1.45,73.86,-1.1,-8.7
1.26,0.25,1.0,4.25,3.25,0.0,1.25,1.0,6.0,3.5,4.5,4.75,3.0,4.25,-0.17,0.02,0.95,627.49,3.3,-33.2,0.0,0.0,0.0,0.5,0.0,1.25,0.25,0.0,0.5,1.25,0.0,0.25,0.25,0.14,0.45,1.58,89.14,7.1,-23.3
1.28,0.75,1.0,4.25,4.5,0.0,1.25,1.0,5.5,3.0,4.25,3.25,2.25,3.0,-0.17,0.02,0.95,542.11,4.8,-21.0,1.0,0.25,0.25,1.75,2.25,1.25,0.25,1.0,0.25,0.5,1.0,0.5,0.5,0.27,0.83,1.77,121.04,-2.9,13.8
1.3,1.5,1.0,5.5,4.5,0.0,1.25,1.0,5.25,2.5,3.25,2.5,2.0,1.75,-0.17,0.02,0.95,470.92,8.1,-7.3,0.5,0.25,0.0,0.0,2.5,0.0,0.25,1.0,0.25,0.0,0.75,0.25,0.5,0.33,1.39,1.95,122.84,-0.4,6.5
1.32,1.25,0.75,6.0,4.5,0.0,1.25,1.0,5.0,2.0,2.5,1.5,2.0,1.75,-0.17,0.08,0.95,404.88,9.1,-3.1,0.0,0.0,0.0,0.0,0.0,0.0,0.25,0.0,0.0,0.0,0.0,0.25,0.5,0.02,2.02,2.27,97.19,1.0,-91.2
1.34,2.0,0.75,6.75,6.25,0.0,1.25,1.0,4.5,1.5,2.5,1.5,1.5,1.5,-0.17,0.08,0.95,375.49,11.4,8.1,0.0,0.0,0.0,0.0,0.0,0.0,0.25,0.0,0.0,0.0,0.0,0.0,0.5,-0.36,2.77,1.89,64.14,4.9,-83.9
1.36,2.5,1.5,7.25,7.5,0.0,1.5,1.0,4.5,1.25,2.5,0.75,1.0,1.0,-0.17,0.08,0.95,374.94,12.7,20.7,0.0,0.0,0.0,0.0,0.0,0.0,0.25,0.0,0.0,0.0,0.0,0.0,0.25,-0.67,3.39,0.7,33.38,-0.9,-66.3
1.38,3.5,2.0,8.0,8.5,0.0,1.75,1.0,4.25,1.0,2.0,0.75,1.0,1.0,-0.11,0.08,0.95,398.27,14.4,28.3,0.0,0.0,0.0,0.0,0.0,0.0,0.0,0.0,0.0,0.0,0.0,0.0,0.5,-1.11,4.14,0.27,11.04,13.7,-109.8
1.4,5.25,3.0,8.75,9.75,0.0,2.0,1.0,3.5,1.0,1.75,0.25,1.0,0.75,-0.11,0.08,1.02,449.45,16.6,39.2,0.0,0.0,0.0,0.0,0.0,0.0,0.0,0.0,0.0,0.0,0.0,0.0,0.75,-1.23,4.64,-0.05,2.68,13.7,-109.9
1.42,6.0,3.75,9.25,10.5,0.0,2.0,0.75,3.25,0.75,1.25,0.0,1.0,0.5,-0.17,0.14,1.02,509.5,18.0,46.3,0.0,0.0,0.0,0.0,0.0,1.25,0.0,0.0,0.5,0.25,1.0,0.5,1.25,-1.42,4.2,1.64,22.85,5.9,-57.0
1.44,7.0,4.0,9.25,11.5,0.0,2.5,0.75,3.25,0.5,1.0,0.0,1.0,0.5,-0.23,0.14,1.08,573.95,18.1,49.2,0.0,0.0,0.0,0.0,0.0,0.0,0.0,0.0,0.0,0.25,0.0,1.5,2.5,0.2,-1.11,0.58,40.13,6.0,-107.9
1.46,7.5,4.75,9.75,11.5,0.0,2.0,0.5,3.0,0.5,1.25,0.0,1.0,0.5,-0.17,0.14,1.14,631.97,18.9,50.8,0.0,0.0,0.0,0.0,0.0,0.0,0.0,0.0,0.25,3.75,2.25,4.75,6.0,-0.36,0.33,1.2,132.06,4.3,-96.9
1.48,8.0,5.0,10.5,12.0,0.0,1.75,0.25,2.5,0.5,1.0,0.0,1.0,0.5,-0.23,0.2,1.2,683.37,20.1,53.8,0.0,0.0,0.0,0.0,0.0,0.0,0.0,0.75,0.5,8.0,5.25,6.0,7.75,0.14,0.39,2.08,255.35,4.7,-90.8
1.5,8.25,5.5,11.0,12.5,0.0,0.0,0.25,2.25,0.25,1.0,0.0,1.0,0.5,-0.23,0.2,1.2,714.8,22.2,56.6,0.0,0.0,0.0,0.0,0.0,0.0,0.25,2.5,1.25,8.5,7.5,6.0,8.0,0.2,0.33,1.7,385.47,4.0,-85.5
1.52,8.0,5.75,11.0,10.5,0.0,0.0,0.0,1.75,0.25,0.75,0.0,0.0,0.25,-0.23,0.27,1.2,705.29,23.6,64.1,0.0,0.0,0.0,1.25,0.0,1.0,0.0,4.75,2.25,9.5,8.25,7.0,7.75,-0.05,0.14,1.08,553.92,3.8,-75.0
1.54,8.25,5.75,9.25,10.5,0.0,0.0,0.0,1.5,0.25,0.75,0.0,0.0,0.0,-0.3,0.33,1.27,670.33,23.5,66.4,1.0,0.75,0.0,1.5,3.0,2.25,0.0,6.5,1.75,10.5,9.5,7.5,8.5,0.2,0.2,1.08,757.07,3.7,-57.9
1.56,8.0,0.0,9.25,9.25,0.0,0.0,0.0,0.0,0.0,0.5,0.0,0.0,0.0,-0.36,0.33,1.39,567.21,28.8,67.5,1.25,0.75,0.5,2.5,3.5,3.25,0.75,7.5,3.25,11.0,11.0,7.5,9.25,0.08,0.08,0.95,967.29,2.6,-51.8
1.58,7.75,0.0,8.75,8.0,0.0,0.0,0.0,0.0,0.25,0.25,0.0,0.0,0.0,-0.42,0.39,1.83,466.23,29.5,68.2,1.25,0.75,1.5,1.75,3.5,3.0,1.25,7.75,3.75,10.5,11.0,7.5,9.25,0.14,0.08,0.95,1123.72,1.8,-51.0
1.6,5.0,0.0,0.0,4.5,0.0,0.0,0.25,0.0,0.25,0.25,0.0,0.0,0.0,-0.73,1.02,2.52,311.24,24.7,70.4,1.25,0.75,2.5,2.0,3.75,2.75,1.25,8.25,3.75,10.5,10.5,7.0,9.0,0.14,0.08,0.95,1225.45,1.3,-47.6
1.62,3.25,0.0,0.0,2.5,0.0,0.0,0.25,0.0,0.0,0.25,0.0,0.0,0.0,-0.98,1.77,3.14,198.81,25.1,71.9,1.25,0.75,2.75,2.75,3.75,3.75,1.25,8.25,3.75,9.75,10.0,6.5,8.5,0.2,0.08,0.95,1253.95,1.1,-43.0
1.64,0.25,0.0,0.25,1.25,0.0,0.0,0.0,0.0,0.0,0.5,0.0,0.0,0.0,-0.48,0.33,2.7,66.57,14.2,33.2,1.25,0.75,2.75,2.75,4.25,3.75,1.25,8.25,3.75,8.75,9.5,5.75,8.0,0.2,0.08,0.95,1219.13,1.0,-39.9
1.66,0.0,0.0,0.0,1.75,0.0,0.0,0.0,0.0,0.0,0.0,0.0,0.0,0.25,-0.48,-0.17,2.14,0.0,13.3,37.2,1.25,0.75,2.75,3.0,4.25,3.75,1.25,8.0,3.25,8.25,8.5,5.25,7.25,0.2,0.08,0.95,1134.42,0.9,-37.0
1.68,0.0,0.0,1.0,1.5,0.0,0.0,0.0,0.0,0.0,0.0,0.0,0.0,0.0,-0.67,-1.23,3.45,0.0,25.5,59.1,1.5,0.75,2.75,3.25,4.25,4.0,1.25,7.5,3.0,7.75,7.5,4.0,6.25,0.2,0.08,0.95,1019.16,0.8,-31.5
1.7,0.5,0.0,1.5,0.25,0.0,0.0,5.0,0.0,2.75,0.5,0.0,0.5,0.0,-0.3,-1.05,2.14,0.0,22.3,2.8,1.25,0.75,2.75,3.5,4.75,4.5,1.25,7.25,2.5,7.0,6.5,3.5,5.5,0.2,0.08,0.95,888.45,1.0,-26.5
1.72,0.0,0.0,2.25,1.75,0.0,0.0,4.25,0.0,3.0,1.75,0.0,0.75,0.0,-0.48,-0.73,0.89,0.0,17.3,-2.1,1.75,0.75,2.75,4.0,5.25,4.75,1.25,7.0,2.5,6.5,5.25,2.5,5.0,0.2,0.14,0.95,784.33,0.7,-18.9
1.74,0.0,0.0,0.0,0.0,0.0,0.0,5.0,0.0,3.5,0.0,0.0,0.0,0.0,-0.48,-0.67,0.52,13.74,20.4,-11.5,1.25,0.75,2.75,3.0,4.25,3.75,1.25,6.25,2.0,4.0,4.5,2.25,3.25,0.2,0.14,0.95,653.78,-0.3,-15.7
1.76,0.0,0.0,0.0,0.0,0.0,0.0,5.75,0.0,3.75,0.0,0.0,0.0,0.0,-0.3,-0.55,0.58,34.73,20.8,-10.4,2.5,0.75,4.5,4.75,6.25,5.0,1.25,6.0,1.75,3.0,2.5,1.75,3.25,0.2,0.14,0.95,590.61,-2.5,3.9
1.78,0.0,0.0,0.0,1.0,0.0,0.0,5.0,0.0,3.5,0.25,0.0,0.0,0.0,-0.36,-0.48,0.89,49.29,18.7,-3.6,2.75,1.5,5.0,6.0,5.5,5.5,0.75,5.25,1.25,2.0,2.0,1.0,3.25,0.2,0.14,0.95,544.89,-3.9,13.8
1.8,0.0,0.0,0.0,0.0,0.0,0.0,5.75,0.0,2.5,0.0,0.0,0.0,0.0,-0.36,-0.3,1.02,60.79,22.8,-3.7,4.75,2.5,6.75,7.5,7.25,5.75,1.25,5.25,1.25,2.75,2.25,1.25,3.0,0.2,0.14,0.95,602.38,-6.3,21.5
1.82,0.0,0.0,0.0,0.0,0.0,0.0,4.75,0.0,2.0,0.0,0.0,0.0,0.0,-0.36,-0.11,1.02,63.92,23.0,-3.2,5.75,2.5,8.0,9.25,7.75,5.75,1.25,4.5,1.0,3.0,2.0,0.75,2.5,0.2,0.14,0.95,688.94,-8.2,28.8
1.84,0.0,0.0,0.0,0.0,0.0,0.0,3.5,0.0,2.25,0.0,0.0,0.0,0.0,-0.36,0.08,1.08,71.91,20.8,-10.2,6.5,2.75,8.75,8.0,8.0,5.0,1.0,4.0,0.5,2.0,1.25,0.25,2.5,0.2,0.14,1.02,764.2,-9.7,36.1
1.86,0.25,0.0,0.0,0.0,0.0,0.0,4.5,0.0,2.25,0.0,0.0,0.0,0.0,-0.36,0.27,1.45,71.63,22.8,-0.8,6.75,2.5,8.75,10.5,8.25,4.0,0.75,2.75,0.5,2.5,0.5,0.5,2.25,0.14,0.2,1.08,810.96,-11.2,39.6
1.88,1.25,0.0,0.0,0.0,0.0,0.0,4.25,0.0,2.25,0.0,0.0,0.0,0.0,-0.36,0.27,1.7,74.53,24.6,15.5,7.5,1.75,9.25,9.75,7.75,3.75,0.0,2.0,0.25,0.0,0.0,0.0,0.75,0.14,0.2,1.14,789.35,-14.8,55.9
1.9,0.0,0.0,0.0,0.0,0.0,0.0,3.5,0.0,0.5,0.0,0.0,0.0,0.0,-0.42,0.39,1.95,59.71,27.8,12.3,8.0,3.0,10.5,9.75,8.0,2.5,0.25,1.25,0.25,0.25,0.0,0.75,0.5,0.14,0.2,1.2,779.31,-16.9,57.2
1.92,0.0,0.0,0.0,0.0,0.0,0.0,3.0,0.0,0.0,0.0,0.0,0.0,0.0,-0.55,0.58,2.45,40.52,32.4,27.3,8.25,3.25,10.5,9.75,7.75,0.0,0.0,1.0,0.0,0.25,0.0,0.0,0.5,0.08,0.27,1.2,742.81,-19.7,63.1
1.94,0.0,0.0,0.0,0.0,0.0,0.0,2.0,0.0,0.0,0.0,0.0,0.0,0.0,-0.67,1.08,2.77,16.76,32.4,27.3,8.25,4.0,10.5,10.5,6.75,2.25,0.0,1.0,0.0,0.0,0.0,0.0,0.75,0.02,0.27,1.2,744.65,-18.1,62.3
1.96,0.0,0.0,0.0,0.0,0.0,0.0,1.75,0.0,0.0,0.0,0.0,0.0,0.0,-0.48,2.14,2.77,4.53,32.4,27.4,8.25,3.75,10.5,8.25,6.25,1.25,0.25,0.75,0.0,0.5,0.5,0.0,0.5,0.08,0.33,1.27,715.47,-19.4,61.4
1.98,0.0,0.0,0.0,0.0,0.0,0.0,2.5,0.0,0.0,0.0,0.0,0.0,0.0,-0.3,3.08,1.89,3.73,32.4,27.3,8.25,3.0,10.5,8.0,4.75,1.25,0.0,0.0,0.0,0.0,0.0,0.25,1.0,0.2,0.39,1.39,672.46,-21.3,63.2
2.0,0.0,0.0,0.0,0.25,0.0,0.0,0.0,0.0,0.5,0.0,0.0,0.0,0.0,0.08,4.2,1.14,0.78,13.9,-5.1,7.0,1.5,8.75,6.0,4.25,1.25,0.25,0.0,0.0,0.75,0.0,0.25,1.0,0.33,0.52,2.14,570.02,-20.1,57.4
2.02,0.0,0.0,0.0,0.0,0.0,0.0,0.0,0.0,0.25,0.0,0.0,0.0,0.0,0.52,4.83,0.33,0.0,12.1,-38.5,3.75,0.0,7.0,3.25,1.0,1.0,0.5,0.0,0.0,0.0,0.0,0.25,0.75,0.33,1.52,2.89,404.1,-24.6,55.3
2.04,0.0,0.0,0.0,0.0,0.0,0.0,3.5,0.0,0.0,0.0,0.0,0.0,0.0,1.33,5.2,0.39,4.0,32.4,27.4,1.5,0.0,3.25,1.25,0.0,0.0,0.25,0.0,0.0,0.0,0.0,0.0,0.75,0.2,1.64,2.77,248.82,-27.7,48.2
2.06,0.0,0.0,0.0,0.0,0.0,0.0,0.0,0.0,0.0,0.0,0.0,0.0,0.0,0.2,-1.48,0.2,0.14,0.0,0.0,0.5,0.0,2.0,0.0,0.0,0.0,0.0,0.0,0.0,0.0,0.0,0.0,0.75,-0.05,0.14,2.33,105.84,-25.6,26.2
2.08,0.25,0.0,0.0,0.5,0.0,0.0,0.0,0.0,0.25,0.25,0.0,0.0,0.0,-0.55,-0.23,0.27,4.77,12.9,19.7,0.0,0.0,0.0,0.0,0.0,0.0,0.0,0.0,0.0,0.0,0.0,0.0,0.5,0.27,-1.23,2.27,0.0,13.7,-109.8
2.1,0.5,0.0,0.75,0.5,0.0,0.0,0.0,1.75,0.0,4.5,1.5,5.0,4.75,0.2,0.45,1.64,112.69,-2.7,-76.4,0.0,0.0,1.0,0.0,2.75,0.0,0.25,0.5,0.0,0.0,1.0,0.0,1.5,0.7,-0.73,3.2,0.0,-1.8,-3.4
2.12,0.0,0.0,1.0,0.0,0.0,0.0,0.0,3.0,0.0,7.25,0.0,4.75,6.25,-0.23,0.58,2.45,218.92,-7.6,-81.4,0.0,0.0,0.0,0.0,0.5,0.0,0.25,1.0,0.0,0.0,1.0,0.0,1.5,0.2,-0.8,1.33,0.0,6.0,-58.7
2.14,0.0,0.0,0.0,0.0,0.0,0.0,0.0,5.25,1.75,7.25,0.0,5.5,6.75,-0.3,0.39,1.64,321.31,-8.5,-81.9,1.0,0.0,0.0,1.5,0.0,1.25,0.25,1.0,0.5,0.75,0.0,0.5,0.5,0.45,-0.61,0.64,0.0,-1.6,0.0
2.16,0.0,0.0,0.0,0.0,0.0,0.25,0.0,6.25,3.5,7.75,7.25,6.0,6.75,-0.11,0.08,1.02,461.2,-4.1,-77.1,1.25,0.0,0.0,1.25,2.75,0.5,0.25,1.0,0.5,1.5,1.0,0.5,1.5,0.45,-0.48,0.45,0.0,-0.4,-7.2
2.18,0.0,0.0,0.75,1.25,0.0,0.75,0.5,6.5,4.5,8.0,7.75,6.0,6.75,-0.17,0.02,1.02,609.78,-2.3,-67.4,1.25,0.0,0.25,1.25,2.75,1.25,0.25,1.0,0.25,1.0,1.0,0.25,1.5,0.2,-0.42,0.64,50.09,-0.1,2.1
2.2,2.0,0.5,1.25,2.5,0.0,0.5,1.0,6.75,5.0,8.0,8.0,6.25,6.25,-0.11,-0.05,0.95,738.72,0.9,-53.6,1.25,0.0,0.0,1.25,2.25,0.75,0.25,1.0,0.25,1.0,1.0,0.25,1.5,0.14,-0.3,0.83,90.6,-0.4,-3.3
2.22,2.75,0.75,4.25,2.5,0.0,0.75,1.0,7.0,5.25,7.5,7.75,5.75,6.25,-0.11,-0.05,0.95,839.44,3.6,-42.3,1.0,0.0,0.0,1.25,2.75,1.25,0.25,1.0,0.25,1.5,1.0,0.25,1.5,0.2,-0.11,0.89,128.68,1.9,-4.1
2.24,3.5,1.0,5.0,3.25,0.0,1.25,1.25,7.0,5.25,7.25,7.5,5.25,5.75,-0.11,-0.05,1.02,907.41,4.7,-34.3,0.0,0.0,0.0,0.0,2.25,0.0,0.25,1.0,0.0,0.0,1.0,0.0,0.75,0.27,0.08,0.89,127.07,3.9,-9.8
2.26,3.5,1.0,5.75,3.5,0.0,1.0,1.25,6.5,5.0,6.25,7.25,4.75,5.25,-0.11,-0.05,0.95,911.94,6.1,-30.1,1.25,0.0,0.0,1.5,0.0,1.25,0.0,0.0,0.5,1.5,0.0,0.25,0.75,0.2,0.2,1.02,129.26,-2.1,0.1
2.28,4.25,1.0,6.5,3.5,0.0,1.25,1.25,6.25,4.25,5.75,6.0,4.0,4.25,-0.11,0.02,0.95,874.88,7.5,-21.6,1.0,0.25,0.0,1.25,2.25,1.25,0.0,1.0,0.5,0.75,1.0,0.25,1.5,0.14,0.27,1.27,142.31,0.7,-1.0
2.3,5.0,1.0,6.75,3.5,0.0,1.25,1.5,6.0,3.75,4.75,5.0,3.0,3.0,-0.11,0.02,0.95,805.76,9.3,-11.7,1.0,0.5,0.0,1.25,2.75,1.0,0.25,1.0,0.5,0.75,1.0,0.25,1.5,0.14,0.45,1.45,161.0,-0.2,3.2
2.32,5.0,1.0,6.75,4.5,0.5,1.25,1.25,5.5,3.5,4.25,3.5,2.25,1.75,-0.11,0.02,0.95,717.61,10.6,-0.5,0.0,0.0,0.0,0.0,2.5,0.0,0.25,1.0,0.0,0.0,1.0,0.25,1.5,0.27,0.83,1.52,149.19,4.5,-22.2
2.34,5.75,1.25,7.25,4.5,0.0,1.5,1.0,5.25,2.75,2.75,3.0,2.0,1.75,-0.17,0.02,0.95,627.68,12.5,7.6,0.0,0.0,0.0,0.0,0.0,0.0,0.25,0.0,0.0,0.0,0.0,0.0,0.5,0.2,1.08,2.14,102.39,4.9,-83.9
2.36,6.0,1.0,7.25,5.75,0.0,1.25,1.0,4.5,2.0,2.75,1.75,1.5,1.25,-0.11,0.02,0.95,560.71,14.2,17.3,0.0,0.0,0.0,0.0,0.0,0.25,0.25,0.0,0.0,0.0,0.0,0.0,0.75,0.14,1.33,2.58,56.61,10.7,-65.1
2.38,6.0,1.25,7.5,6.5,0.0,1.0,1.0,4.5,1.75,1.75,1.5,1.25,0.75,-0.11,0.08,0.95,505.65,16.1,25.7,1.0,0.25,0.0,1.25,0.25,0.5,0.25,1.0,0.5,0.25,1.0,0.5,1.5,-0.05,1.64,2.45,50.18,-3.6,-18.0
2.4,7.0,1.25,8.0,6.5,2.75,1.25,1.0,4.25,1.5,2.25,1.0,0.75,0.5,-0.11,0.08,0.95,490.22,15.2,33.8,1.0,0.25,0.0,1.0,2.75,1.25,0.25,1.0,0.5,0.25,0.75,0.0,1.5,-0.11,2.52,2.02,79.36,0.7,8.4
2.42,7.25,2.25,8.25,7.75,2.75,1.25,1.0,3.5,1.25,1.5,0.75,1.25,0.5,-0.17,0.08,0.95,505.22,16.6,39.7,1.0,0.25,0.0,1.25,2.75,1.25,0.25,1.0,0.5,0.25,1.0,0.25,1.5,0.08,3.33,0.89,123.4,-0.1,5.2
2.44,7.5,2.5,8.75,8.0,0.0,1.25,1.0,3.25,1.0,1.75,0.5,1.0,0.5,-0.11,0.08,0.95,512.98,18.9,41.7,0.0,0.0,0.0,0.0,0.0,0.0,0.25,0.0,0.0,0.0,0.0,0.0,0.75,-0.55,4.08,0.08,103.81,7.5,-91.4
2.46,8.0,2.5,8.75,8.5,0.0,1.25,1.0,3.25,0.75,1.5,0.0,0.75,0.5,-0.17,0.14,0.95,519.2,19.5,46.7,0.0,0.0,0.0,0.0,0.0,0.0,0.0,0.0,0.0,0.0,0.0,0.0,0.5,-2.05,4.64,0.2,68.94,13.7,-109.8
2.48,8.5,3.75,9.0,9.0,0.0,1.25,1.0,3.0,0.5,1.0,0.0,1.25,0.5,-0.17,0.14,0.95,536.02,20.2,49.9,0.0,0.0,0.0,0.0,2.75,0.0,0.25,1.0,0.0,0.75,0.0,1.0,1.25,-2.17,6.14,1.89,61.7,5.9,-23.5
2.5,9.0,3.75,9.25,10.0,0.0,1.25,0.75,2.5,0.75,1.0,0.0,1.0,0.5,-0.17,0.14,0.95,562.54,20.8,52.4,0.0,0.0,0.0,0.0,0.0,0.0,0.0,0.0,0.0,5.75,2.0,5.25,5.0,0.52,-0.36,0.7,136.07,5.1,-95.2
2.52,9.5,3.75,9.75,10.5,0.0,1.25,0.5,2.5,0.5,1.0,0.0,1.0,0.5,-0.17,0.14,1.02,596.68,21.2,53.8,0.0,0.0,0.0,0.0,0.0,0.0,0.0,0.0,0.5,8.0,5.5,6.0,8.0,0.33,0.45,1.89,253.77,4.3,-92.2
2.54,9.75,4.5,10.0,10.5,0.0,1.25,0.5,2.25,0.5,1.0,0.0,1.0,0.5,-0.17,0.14,1.08,634.14,21.4,55.4,0.75,0.0,0.0,0.75,2.5,0.5,0.0,2.5,1.0,8.5,8.0,5.5,8.0,-0.3,0.64,2.08,400.42,3.3,-67.4
2.56,9.25,5.0,10.5,11.0,0.0,0.75,0.25,1.75,0.5,1.0,0.0,0.75,0.5,-0.17,0.2,1.08,659.7,22.3,58.1,0.0,0.0,0.0,1.25,3.5,2.0,0.0,5.25,1.75,9.5,8.5,5.5,8.0,0.27,0.2,1.2,593.67,4.9,-60.4
2.58,10.5,5.0,11.0,11.0,0.0,0.75,0.25,1.75,0.5,1.0,0.0,1.0,0.5,-0.17,0.2,1.08,686.54,22.8,58.2,1.25,0.75,0.0,1.5,3.75,3.75,0.0,7.0,2.5,9.5,8.5,5.5,7.5,0.14,0.27,1.08,764.86,4.3,-48.6
2.6,10.5,5.0,9.75,10.5,0.0,0.0,0.0,1.5,0.25,1.0,0.0,1.0,0.5,-0.23,0.27,1.2,682.34,23.4,59.8,1.5,0.75,2.75,2.75,4.25,3.75,1.0,7.75,3.25,9.5,9.5,5.5,7.25,0.27,0.14,1.02,917.61,1.0,-38.8
2.62,10.5,5.0,10.0,9.5,0.0,0.0,0.0,1.5,0.25,1.0,0.0,0.75,0.5,-0.36,0.33,1.58,665.72,23.8,61.0,2.0,0.75,2.75,3.0,4.5,4.75,1.0,8.25,3.5,9.0,9.25,5.5,6.5,0.2,0.14,1.02,1023.33,0.8,-34.4
2.64,8.25,3.75,8.5,7.5,0.0,0.0,0.0,1.0,0.0,0.25,0.0,0.25,0.0,-0.61,0.39,1.77,578.45,25.9,68.7,2.5,1.25,2.75,4.0,5.5,5.75,1.0,8.25,3.5,8.5,8.5,3.75,6.0,0.27,0.08,0.95,1092.95,0.7,-24.3
2.66,7.5,0.0,7.25,4.5,0.0,0.0,0.0,0.0,0.0,0.25,0.0,0.0,0.0,-0.67,0.45,1.95,443.97,31.2,71.7,3.0,1.5,4.0,4.0,6.25,6.0,1.0,8.0,3.0,7.5,7.75,3.0,5.0,0.27,0.08,0.95,1121.21,-0.5,-15.5
2.68,6.0,0.0,6.5,2.75,0.0,0.0,0.0,0.0,0.25,0.0,0.0,0.0,0.0,-0.8,0.89,2.77,322.45,32.7,72.2,3.75,2.25,5.25,5.0,6.25,6.5,1.0,7.5,2.5,6.75,6.25,2.0,4.0,0.27,0.14,0.95,1126.35,-2.1,-3.5
2.7,2.5,0.0,3.75,1.25,0.0,0.0,0.0,0.0,0.25,1.0,0.0,0.0,0.0,-0.48,0.39,2.83,216.2,27.3,51.9,4.5,2.5,5.5,6.0,7.0,6.5,1.0,7.0,2.25,5.5,4.5,0.75,2.5,0.27,0.14,0.95,1080.72,-3.4,10.1
2.72,0.0,0.0,0.0,2.25,0.0,0.0,0.0,0.0,0.0,0.5,0.0,0.0,0.0,-0.3,0.14,2.45,98.32,11.4,34.5,5.0,2.5,6.75,6.0,7.75,6.5,0.75,6.25,1.75,3.5,3.25,1.0,2.5,0.27,0.14,0.95,1017.64,-5.1,18.4
2.74,0.0,0.0,2.0,0.5,0.0,0.0,0.0,0.0,0.0,0.0,0.0,0.0,0.0,-0.67,-2.73,1.45,1.87,34.0,60.3,5.0,2.75,6.75,6.25,7.75,6.5,0.75,6.0,1.25,3.25,2.25,0.0,2.5,0.27,0.14,0.95,940.69,-5.2,24.5
2.76,0.25,0.0,0.0,0.5,0.0,0.0,0.0,0.0,0.0,0.0,0.0,0.0,0.0,-0.48,-1.55,1.14,0.0,22.6,70.2,5.75,3.0,7.0,6.75,8.0,6.25,0.5,5.25,1.25,1.75,2.0,0.25,1.5,0.27,0.14,0.95,874.45,-7.3,33.0
2.78,0.0,0.0,0.0,0.0,0.0,0.0,0.0,0.0,0.0,0.0,0.0,0.25,0.0,-0.23,-0.8,0.33,0.0,8.8,-109.9,5.75,3.0,7.5,6.5,8.0,6.0,0.25,4.0,1.25,2.5,1.25,0.0,1.75,0.2,0.2,0.89,816.27,-7.7,35.0
2.8,0.0,0.0,0.0,0.0,0.0,0.0,0.0,0.0,0.0,0.0,0.0,0.0,0.0,-0.11,-0.67,0.64,0.0,0.0,0.0,6.25,3.0,7.75,6.25,8.0,6.0,0.25,4.0,1.25,2.0,1.0,0.0,1.5,0.2,0.2,0.89,775.65,-8.5,38.1
2.82,0.0,0.0,0.0,0.0,0.0,0.0,0.0,0.0,0.0,0.0,0.0,0.0,0.0,0.2,-0.67,0.89,0.0,0.0,0.0,6.5,2.75,8.0,6.25,8.0,5.5,0.25,4.0,0.75,1.75,1.0,0.0,1.5,0.2,0.2,0.89,743.26,-9.1,39.6
2.84,0.0,0.0,0.0,0.0,0.0,0.0,2.25,0.0,1.25,0.0,0.0,0.0,0.0,0.27,-0.36,0.89,0.0,21.6,-7.8,7.0,3.0,8.0,6.75,8.0,5.75,0.25,3.25,0.5,1.5,1.0,0.75,1.75,0.14,0.2,0.89,732.49,-9.7,39.7
2.86,0.0,0.0,0.0,0.0,0.0,0.0,4.25,0.0,2.75,0.0,0.0,0.0,0.0,0.2,0.08,0.7,0.0,20.8,-10.3,7.0,3.0,8.5,7.5,8.0,5.75,0.25,3.0,0.75,1.5,1.0,0.5,1.75,0.14,0.2,0.89,741.45,-10.3,41.0
2.88,0.0,0.0,0.0,0.0,0.0,0.0,5.0,0.0,3.75,0.0,0.0,0.0,0.0,0.45,0.33,0.77,3.01,20.1,-12.6,7.5,3.0,8.75,7.75,7.5,5.5,0.25,2.5,0.75,1.75,1.0,0.25,1.75,0.14,0.2,0.89,753.99,-11.2,42.6
2.9,0.0,0.0,0.0,0.0,0.0,0.0,4.0,0.0,3.0,0.0,0.0,0.0,0.0,0.58,0.33,1.02,42.43,20.1,-12.6,7.75,3.0,8.75,7.75,8.0,4.75,0.25,2.5,0.5,1.5,1.0,0.75,1.5,0.14,0.2,0.89,764.43,-11.8,43.4
2.92,1.5,0.0,0.0,1.25,0.0,0.0,4.75,0.0,3.25,0.0,0.0,0.0,0.0,0.39,0.52,1.27,84.57,22.5,18.4,7.0,1.75,9.25,6.0,7.25,4.0,0.25,2.5,0.5,1.25,1.0,0.0,1.25,0.14,0.2,0.95,728.57,-12.8,44.7
2.94,1.5,0.0,0.0,1.0,0.0,0.0,4.5,0.0,3.25,0.0,0.0,0.0,0.0,0.45,0.83,1.39,112.61,22.5,17.0,7.5,1.5,8.75,5.75,5.5,2.75,0.25,2.25,0.5,1.5,1.0,0.25,0.5,0.08,0.14,0.95,666.09,-15.1,46.3
2.96,0.0,0.0,0.0,0.0,0.0,0.0,4.75,0.0,3.0,0.0,0.0,0.0,0.0,0.58,1.39,1.52,117.96,20.9,-9.9,8.25,2.5,10.0,3.25,6.25,3.5,0.75,1.75,0.75,0.0,0.0,0.75,0.5,0.08,0.14,1.02,611.36,-16.7,54.5
2.98,0.0,0.0,0.0,0.5,0.0,0.0,4.75,0.0,3.0,0.0,0.0,0.0,0.0,0.45,1.58,1.52,114.32,20.6,-3.7,8.25,0.75,10.5,4.25,3.75,3.25,0.25,2.5,0.75,1.75,0.75,0.25,0.75,0.08,0.2,0.95,569.04,-16.5,43.7
3.0,1.25,0.0,0.0,0.25,0.0,0.0,4.75,0.0,3.0,0.0,0.0,0.0,0.0,0.39,1.64,1.33,114.65,23.2,11.6,7.75,0.75,9.0,5.75,3.5,1.75,0.75,2.0,0.5,1.75,0.0,0.25,0.5,0.02,0.2,0.83,524.51,-18.0,48.5
3.02,1.25,0.0,0.0,1.0,0.0,0.0,4.5,0.0,3.0,0.25,0.0,0.0,0.0,0.27,1.77,1.08,119.21,21.2,13.3,8.5,1.25,10.5,5.0,4.25,1.25,0.75,1.25,0.5,0.25,0.0,0.75,0.0,-0.05,0.2,0.95,498.36,-21.8,58.3
3.04,0.75,0.0,0.0,1.75,0.0,0.0,4.5,0.0,2.75,0.0,0.0,0.0,0.0,0.2,1.64,0.77,123.21,21.4,17.4,8.0,0.0,9.25,4.0,4.25,1.25,1.25,1.25,0.5,0.0,0.5,0.75,0.5,-0.05,0.14,0.95,459.36,-21.1,52.0
3.06,0.0,0.0,0.0,0.0,0.0,0.0,4.5,0.0,0.0,0.0,0.0,0.0,0.0,0.27,1.7,0.7,99.61,32.4,27.3,8.25,0.0,9.75,3.5,1.75,1.25,0.75,1.25,0.5,1.0,0.0,0.25,0.5,0.08,0.2,1.2,414.48,-23.1,53.0
3.08,0.0,0.0,0.0,0.0,0.0,0.0,0.75,0.0,0.0,0.0,0.0,0.0,0.0,-5.86,6.77,-1.3,61.53,32.4,27.3,8.25,0.0,9.75,4.0,1.5,0.5,0.25,1.25,0.5,0.0,0.0,0.0,0.5,0.14,0.27,1.27,373.69,-26.0,60.2
3.1,0.25,0.0,1.0,0.5,0.0,0.0,0.0,0.0,0.25,0.0,0.25,0.0,0.0,0.52,3.02,1.27,35.02,27.3,38.7,8.25,0.0,9.25,4.0,0.25,1.25,0.0,1.0,0.5,0.0,0.0,0.25,0.5,0.02,0.14,1.52,343.05,-26.3,59.3
3.12,0.0,0.0,0.0,0.5,0.0,0.0,0.0,0.0,0.25,0.0,0.0,0.25,0.0,-3.42,2.64,0.58,14.32,13.9,-6.3,8.25,0.0,9.25,3.0,2.5,0.0,0.0,1.25,0.0,0.0,0.0,0.0,0.5,-0.05,0.14,1.39,324.94,-26.0,62.6
3.14,0.0,0.0,0.75,0.25,0.0,0.0,0.0,0.0,0.0,0.0,0.0,0.0,0.25,-1.23,-0.3,-0.61,7.36,23.6,26.3,8.25,0.0,8.75,2.0,0.0,0.0,0.0,0.0,0.0,0.0,0.0,0.0,0.5,0.02,0.2,1.58,293.59,-33.3,70.8
3.16,0.0,0.0,0.0,0.5,0.0,0.0,0.0,0.0,0.0,0.0,0.0,0.0,0.0,-0.11,0.33,1.2,0.0,17.2,57.9,7.75,0.0,8.75,1.25,0.0,0.0,0.0,0.25,0.0,0.0,0.0,0.0,0.0,0.08,0.27,1.7,271.17,-34.6,74.3
3.18,0.0,0.0,0.0,0.5,0.0,0.0,0.0,0.0,0.0,0.0,0.0,0.75,0.25,-0.17,0.33,0.7,2.35,7.9,-52.3,6.0,0.0,8.75,1.5,0.0,0.0,0.25,0.0,0.5,0.75,0.0,0.25,0.0,-0.05,0.2,1.83,247.29,-31.9,61.2
3.2,0.0,0.0,0.0,0.0,0.0,0.0,0.0,0.0,0.0,1.0,0.0,0.5,0.5,-0.17,0.39,1.58,8.24,-9.1,-92.7,5.5,0.5,7.75,1.75,1.5,1.25,0.25,0.75,0.5,0.0,0.5,0.0,0.5,0.08,0.83,2.52,244.9,-23.4,55.0
3.22,0.75,0.0,0.0,0.5,0.0,0.0,0.0,0.0,0.25,0.75,0.0,0.5,0.25,-0.55,0.2,1.08,18.52,8.6,-16.8,3.75,0.0,3.5,1.5,2.5,1.25,0.0,0.75,0.5,0.25,0.25,0.0,0.5,-0.17,-0.98,2.02,225.59,-15.7,47.1
3.24,0.75,0.0,1.0,0.5,0.0,0.0,0.0,0.0,0.25,0.75,0.0,0.25,0.5,-0.61,0.2,1.2,34.32,14.7,2.8,1.25,0.0,2.75,0.0,0.0,0.0,0.0,0.0,0.0,0.0,0.25,0.0,0.0,6.33,-4.36,0.83,164.18,-35.8,63.3
3.26,0.75,0.0,0.0,0.5,0.0,0.0,0.0,0.0,0.25,0.75,0.0,0.75,0.5,-0.48,0.2,1.27,44.9,6.9,-30.3,1.0,0.0,2.75,0.5,2.5,0.0,0.0,0.0,0.0,0.0,0.0,0.0,1.0,1.58,-0.23,-0.55,116.91,-15.3,40.9
3.28,1.75,0.0,1.25,0.5,0.0,0.0,0.0,0.0,0.25,0.0,0.0,0.25,0.5,-0.11,0.27,1.02,61.38,25.5,39.3,0.75,0.0,0.25,1.0,0.0,1.25,0.0,0.0,0.0,0.75,0.0,0.0,0.25,-0.8,-1.67,1.39,59.46,-2.4,23.8
3.3,2.0,0.0,1.25,0.5,0.0,0.0,0.0,2.75,0.25,0.75,0.0,0.75,0.5,-0.23,0.33,0.89,94.23,7.8,-2.2,1.25,0.0,0.0,1.25,0.0,0.25,0.0,0.0,0.0,0.0,0.0,0.25,0.5,-2.23,0.89,0.58,25.21,-15.2,32.8
3.32,2.5,0.0,1.0,0.5,0.0,0.0,0.0,2.25,0.25,0.75,0.0,0.25,0.5,-0.48,0.39,0.7,116.19,9.9,10.6,3.75,1.0,1.75,2.0,0.0,1.25,0.0,0.0,0.0,1.25,0.0,0.5,0.0,-5.05,7.95,0.89,50.62,-17.4,49.9
3.34,3.5,0.0,0.75,0.5,0.0,0.0,0.0,1.5,0.25,0.0,0.0,0.25,0.5,-0.36,0.52,0.64,128.44,17.8,34.7,0.75,0.0,0.0,0.0,0.0,0.0,0.0,0.0,0.0,0.0,0.0,0.25,0.5,1.64,-2.48,-0.73,32.39,-13.4,-10.4
3.36,3.5,0.0,1.25,0.5,0.0,0.0,0.0,2.0,0.25,1.0,0.0,0.75,0.25,-0.42,0.52,0.64,143.81,13.8,16.7,7.5,0.75,1.5,2.0,0.0,1.0,0.0,0.0,0.25,0.0,0.0,0.75,0.0,-3.05,-1.67,0.33,87.92,-25.3,68.7
3.38,3.5,0.0,1.0,0.5,0.0,0.0,0.0,2.0,0.25,0.75,0.0,1.0,0.25,-0.48,0.64,0.77,151.36,13.8,14.5,5.75,0.75,3.25,2.75,2.25,1.25,0.25,0.25,0.5,1.5,0.75,0.25,1.5,-0.92,-2.17,0.45,163.9,-14.7,36.2
3.4,3.5,0.0,1.0,0.5,0.0,0.0,0.0,1.75,0.25,0.75,0.0,0.75,0.25,-0.73,0.77,0.77,153.76,14.9,19.6,7.75,1.0,6.75,1.5,1.75,0.0,0.25,0.0,0.0,0.0,1.0,0.0,1.5,0.14,2.7,0.64,240.94,-25.4,55.6
3.42,2.75,0.0,1.25,0.5,0.0,0.0,0.0,1.25,0.25,0.0,0.0,0.0,0.5,-0.73,0.83,0.64,142.72,19.2,38.4,8.5,1.75,7.75,4.0,0.0,1.25,0.25,0.0,0.25,0.0,0.75,0.25,0.5,-0.42,0.2,0.77,300.82,-26.4,63.3
3.44,2.5,0.0,1.0,0.5,0.0,0.0,0.0,1.5,0.25,0.0,0.0,0.0,0.25,-0.48,0.95,0.7,128.98,17.7,38.3,8.25,0.75,8.0,4.0,0.0,0.0,0.0,0.0,0.0,0.0,0.0,0.25,0.0,0.52,1.2,0.64,340.33,-31.6,73.2
3.46,0.0,0.0,0.0,0.5,0.0,0.0,0.0,0.0,0.0,0.0,0.0,0.0,0.25,-0.36,1.77,0.27,86.25,7.0,2.6,8.0,0.75,8.75,4.0,0.0,0.0,0.0,0.0,0.0,0.0,0.0,0.25,0.5,0.64,1.52,0.7,366.61,-30.7,68.2
3.48,0.0,0.0,0.0,0.0,0.0,0.0,0.0,0.0,0.0,0.0,0.0,0.0,0.0,-0.8,3.08,0.08,44.59,0.0,0.0,7.75,0.0,8.5,3.25,0.0,0.0,0.0,0.0,0.0,0.0,0.0,0.0,0.0,0.45,1.39,0.45,358.2,-33.3,74.2
3.5,0.0,0.0,0.0,0.5,0.0,0.0,0.0,0.0,0.75,0.0,0.0,0.0,0.0,0.02,0.83,1.08,15.44,14.2,1.4,7.0,0.0,8.0,2.75,0.0,0.0,0.0,0.0,0.0,0.0,0.0,0.25,0.5,-0.17,0.89,0.14,339.55,-31.9,66.5
3.52,0.0,0.0,0.0,0.0,0.0,0.0,0.0,0.0,0.0,0.0,0.0,0.0,0.0,0.89,-1.67,0.52,0.0,0.0,0.0,6.5,0.0,7.75,2.75,0.0,0.25,0.0,0.0,0.25,0.0,0.0,0.25,0.0,-0.55,0.52,-0.05,317.2,-32.1,69.0
3.54,0.0,0.0,0.0,0.0,0.0,0.0,0.0,0.0,0.0,0.0,0.0,0.0,0.0,0.52,-1.17,-0.3,0.0,0.0,0.0,6.75,0.75,8.5,3.25,1.25,1.25,0.25,0.0,0.5,1.0,1.0,0.25,0.5,-0.98,0.33,-0.42,332.4,-23.4,51.3
3.56,0.0,0.0,0.0,0.0,0.0,0.0,4.25,0.0,0.0,0.0,0.0,0.0,0.0,-1.23,0.39,-0.55,0.0,32.4,27.4,6.0,0.75,8.0,3.0,1.5,1.25,0.25,0.0,0.5,1.0,1.0,0.75,0.0,-1.86,-0.67,0.27,340.33,-23.0,49.8
3.58,0.0,0.0,0.0,0.0,0.0,0.0,0.0,0.0,0.0,0.0,0.0,0.0,0.0,-1.61,0.08,-0.05,0.0,0.0,0.0,5.75,0.75,7.75,2.75,1.25,1.25,0.25,0.0,0.5,1.5,1.0,0.25,0.5,-1.3,0.08,0.27,352.9,-21.8,46.3
3.6,1.5,0.0,0.0,1.25,0.0,0.0,0.5,0.0,2.75,0.25,0.0,0.0,0.0,-1.3,1.7,0.45,16.85,18.3,16.2,5.75,0.75,7.75,2.75,1.75,1.25,0.25,0.0,0.5,0.75,1.0,0.75,0.5,-0.8,0.52,0.27,343.97,-22.1,47.0
3.62,1.75,0.0,1.25,1.25,0.0,0.0,3.75,0.0,2.75,0.5,0.0,0.0,0.0,-0.55,1.02,0.52,65.8,22.9,23.9,5.0,0.5,7.75,2.25,1.5,0.75,0.25,0.0,0.25,1.0,1.0,0.25,0.5,-0.61,0.64,0.45,326.83,-23.3,47.9
3.64,0.0,0.0,0.0,0.0,0.0,0.0,0.0,0.0,0.0,0.0,0.0,0.0,0.0,0.08,0.89,0.64,62.44,0.0,0.0,3.75,0.5,7.0,2.75,1.5,0.5,0.25,0.0,0.25,0.5,1.0,0.25,0.5,-0.73,0.58,0.58,301.39,-23.4,48.0
3.66,0.0,0.0,0.0,0.0,0.0,0.0,0.0,0.0,0.0,0.0,0.0,0.0,0.0,0.08,0.95,0.45,47.96,0.0,0.0,1.5,0.0,5.25,1.25,0.0,0.0,0.0,0.0,0.0,0.0,0.0,0.0,0.25,-1.36,0.2,0.89,242.72,-32.8,61.4
3.68,0.0,0.0,0.0,0.0,0.0,0.0,0.0,0.0,0.0,0.0,0.0,0.0,0.0,-1.11,0.7,-0.23,23.28,0.0,0.0,1.0,0.0,3.0,0.25,0.0,0.0,0.0,0.0,0.0,0.0,0.0,0.0,0.0,-1.61,-0.3,0.89,170.22,-36.2,68.8
3.7,0.0,0.0,0.0,0.0,0.0,0.0,0.0,0.0,0.0,0.0,0.0,0.0,0.0,-1.42,0.83,-0.11,10.12,0.0,0.0,0.25,0.0,2.5,0.0,0.0,0.0,0.0,0.0,0.0,0.0,0.0,0.25,0.25,-1.98,-0.05,0.83,89.82,-31.8,37.5
3.72,0.0,0.0,0.0,0.0,0.0,0.0,0.0,0.0,0.0,0.0,0.0,0.0,0.0,-1.23,0.7,0.02,0.0,0.0,0.0,0.5,0.0,1.0,0.0,0.0,0.0,0.0,0.0,0.0,0.0,0.0,0.0,0.5,-1.42,0.2,1.02,28.44,-24.2,25.8
3.74,0.0,0.0,0.0,0.0,0.0,0.0,0.0,0.0,0.0,0.0,0.0,0.0,0.0,-0.98,-0.11,0.08,0.0,0.0,0.0,1.25,0.0,0.0,1.25,0.0,1.25,0.0,0.0,0.0,0.0,0.0,0.25,0.25,-0.67,0.7,0.89,1.85,-8.4,41.9
3.76,0.0,0.0,0.0,0.0,0.0,0.0,0.0,0.0,0.0,0.0,0.0,0.0,0.0,-0.23,-0.05,0.39,0.0,0.0,0.0,0.0,0.0,0.0,0.0,0.0,0.0,0.0,0.0,0.0,0.0,0.0,0.0,0.0,-0.42,0.7,1.02,0.0,0.0,0.0
3.78,0.0,0.0,0.0,0.0,0.0,0.0,0.0,0.0,0.0,0.0,0.0,0.0,0.0,-0.3,0.7,0.39,0.0,0.0,0.0,0.0,0.0,0.0,0.0,0.0,0.0,0.0,0.0,0.0,0.0,0.0,0.0,0.0,-0.23,0.64,0.89,0.0,0.0,0.0
3.8,0.0,0.0,0.0,0.0,0.0,0.0,0.0,0.0,0.0,0.0,0.0,0.0,0.0,-0.67,0.89,0.64,0.0,0.0,0.0,1.25,0.25,0.0,1.25,0.0,1.25,0.0,0.0,0.0,0.0,1.0,0.0,0.5,-0.23,0.45,0.89,0.0,-7.9,23.3
3.82,1.75,0.0,1.25,1.25,0.0,0.0,3.0,0.0,2.5,1.5,1.0,0.75,0.0,-0.92,0.52,0.64,52.04,17.5,-0.8,0.0,0.0,0.0,0.0,0.0,0.0,0.0,0.0,0.0,0.0,0.0,0.0,0.0,-0.3,0.2,0.83,0.0,0.0,0.0
3.84,1.75,0.0,2.0,1.0,0.0,0.0,2.5,0.0,2.25,1.5,0.75,0.0,0.25,-0.92,0.58,0.58,101.92,18.8,9.1,0.0,0.0,0.0,1.0,2.25,1.25,0.25,0.0,0.5,1.0,0.75,0.25,0.0,-0.55,0.08,0.83,7.38,1.7,9.0
3.86,0.0,0.0,1.5,0.0,0.0,0.0,1.75,0.0,0.0,0.0,0.0,0.0,0.0,-0.92,0.7,0.52,110.77,36.2,49.1,0.0,0.0,0.0,0.0,0.0,0.0,0.0,0.0,0.0,0.0,0.0,0.0,0.0,-0.67,-0.11,0.58,5.24,0.0,0.0
3.88,0.0,0.0,0.0,0.0,0.0,0.0,0.0,0.0,0.0,0.0,0.0,0.0,0.0,-0.8,0.33,0.52,89.65,0.0,0.0,1.25,0.25,0.0,0.75,0.0,1.5,0.0,0.0,0.5,2.25,0.0,0.25,0.0,-0.73,-0.36,0.52,47.46,0.2,2.5
3.9,0.0,0.0,0.0,0.0,0.0,0.0,0.0,0.0,0.0,0.0,0.0,0.0,0.0,-0.8,0.2,0.58,51.49,0.0,0.0,1.25,0.0,0.25,0.0,1.75,0.0,0.25,0.0,0.0,0.5,0.75,0.5,0.5,-0.86,-0.42,0.39,67.03,-7.7,6.5
3.92,0.0,0.0,0.0,0.0,0.0,0.0,0.0,0.0,0.0,0.0,0.0,0.0,0.0,-0.86,0.39,0.39,19.35,0.0,0.0,1.25,0.25,0.0,1.25,2.25,1.0,0.25,0.0,0.5,1.25,0.75,0.5,0.5,-1.05,-0.36,0.45,111.85,-3.2,11.2
3.94,0.25,0.0,1.5,0.0,0.0,0.0,0.0,0.0,0.25,0.75,0.0,0.0,0.0,-0.86,0.39,0.27,19.3,21.0,18.3,1.0,0.5,0.0,1.25,1.75,1.25,0.25,0.0,0.5,0.25,0.75,0.5,0.5,-1.05,-0.23,0.52,130.42,-4.5,19.4
3.96,0.25,0.0,1.0,0.0,0.0,0.0,0.0,0.0,0.25,0.75,0.0,0.0,0.0,-0.86,0.39,0.2,27.86,17.1,8.6,0.0,0.0,0.0,0.0,1.75,0.0,0.5,0.0,0.0,0.0,1.0,0.0,0.75,-1.05,-0.11,0.52,124.27,-0.2,-10.7
3.98,0.0,0.0,0.0,0.0,0.0,0.0,0.0,0.0,0.0,0.0,0.0,0.0,0.0,-0.8,0.58,0.14,22.21,0.0,0.0,1.0,0.25,0.0,1.25,0.0,0.0,0.0,0.0,0.0,0.0,0.0,0.0,0.0,-0.98,-0.05,0.52,99.23,-23.3,77.0
4.0,0.0,0.0,0.0,0.0,0.0,0.0,0.0,0.0,0.0,0.0,0.0,0.0,0.0,-0.73,0.52,0.08,9.11,0.0,0.0,0.0,0.0,0.0,0.0,0.0,0.0,0.0,0.0,0.0,0.0,0.0,0.0,0.0,-0.92,0.08,0.45,60.09,0.0,0.0
4.02,0.0,0.0,0.0,0.0,0.0,0.0,0.0,0.0,0.0,0.0,0.0,0.0,0.0,-0.73,0.39,0.08,0.0,0.0,0.0,0.0,0.0,0.0,0.0,0.0,0.0,0.0,0.0,0.0,0.0,0.0,0.0,0.0,-0.73,0.08,0.45,25.67,0.0,0.0
4.04,0.0,0.0,0.75,0.0,0.0,0.0,0.0,0.0,0.0,0.0,0.0,0.0,0.0,-0.8,0.39,0.08,0.0,38.2,60.9,0.25,0.25,0.0,1.25,2.25,1.0,0.25,0.0,0.5,0.0,0.75,0.0,0.5,-0.61,0.14,0.45,41.0,-2.0,23.4
4.06,0.0,0.0,1.0,0.0,0.0,0.0,0.0,0.0,0.25,0.5,0.0,0.0,0.0,-0.86,0.52,0.08,0.0,19.4,8.7,1.25,0.25,0.0,1.25,1.75,1.25,0.25,0.0,0.5,1.0,1.0,0.25,0.5,-0.61,0.2,0.45,82.1,-3.5,12.4
4.08,0.25,0.0,1.0,0.5,0.0,0.0,0.0,0.0,0.25,0.75,0.0,0.0,0.25,-0.98,0.64,0.2,18.45,14.5,7.0,0.0,0.0,0.0,0.0,1.75,0.0,0.25,0.0,0.0,0.0,0.75,0.0,0.0,-0.73,0.27,0.58,82.12,-1.7,19.8
4.1,0.0,0.0,1.0,0.5,0.0,0.0,0.0,0.0,0.25,1.0,0.0,0.0,0.5,-0.86,0.64,0.33,41.34,8.6,-14.6,1.25,0.25,0.0,1.25,0.0,1.0,0.0,0.0,0.0,0.0,0.0,0.0,0.0,-0.8,0.27,0.45,82.8,-12.2,67.3
4.12,0.0,0.0,1.0,0.5,0.0,0.0,0.0,0.0,0.25,0.75,0.0,0.0,0.25,-0.8,0.52,0.39,50.2,12.8,-0.4,0.0,0.0,0.0,0.0,0.0,0.0,0.0,0.0,0.0,0.25,0.0,0.25,0.0,-0.86,0.27,0.52,47.12,3.4,-92.6
4.14,0.0,0.0,0.75,0.5,0.0,0.0,0.0,0.0,0.25,0.75,0.0,0.0,0.25,-0.8,0.45,0.33,50.5,10.3,-6.6,1.0,0.5,0.0,1.25,2.25,0.5,0.25,0.0,0.0,0.0,1.0,0.0,0.5,-0.86,0.2,0.45,61.99,-6.6,33.2
4.16,0.5,0.0,1.0,0.5,0.0,0.0,0.25,0.0,0.25,1.0,0.0,0.0,0.0,-0.8,0.39,0.27,53.32,16.5,16.8,0.0,0.0,0.0,0.0,0.0,0.75,0.0,0.0,0.5,0.75,0.0,0.75,0.0,-0.92,0.27,0.52,51.24,5.6,-49.4
4.18,0.25,0.0,1.0,0.5,0.0,0.0,0.0,0.0,0.25,0.75,0.0,0.0,0.0,-0.8,0.45,0.33,51.89,17.1,17.8,1.0,0.25,0.0,1.25,2.25,1.25,0.25,0.0,0.5,1.75,0.75,0.25,0.5,-0.98,0.27,0.64,98.66,-0.8,8.4
4.2,0.0,0.0,1.0,0.5,0.0,0.0,0.0,0.0,0.25,0.75,0.0,0.0,0.0,-0.8,0.45,0.33,52.65,15.5,10.5,0.0,0.0,0.0,0.0,0.0,0.0,0.0,0.0,0.0,0.0,0.0,0.0,0.0,-1.05,0.27,0.58,75.99,0.0,0.0
4.22,0.0,0.0,1.0,0.5,0.0,0.0,0.0,0.0,0.25,0.75,0.0,0.0,0.0,-0.86,0.52,0.39,51.77,15.5,10.5,0.5,0.0,0.0,0.0,2.25,0.0,0.25,0.0,0.25,0.25,0.0,0.25,0.5,-0.98,0.27,0.58,79.67,-1.3,17.0
4.24,0.0,0.0,1.25,0.5,0.0,0.0,0.0,0.0,0.25,0.75,0.0,0.0,0.0,-0.92,0.52,0.27,50.37,17.6,15.1,0.25,0.0,0.0,0.0,0.0,0.0,0.25,0.0,0.0,0.0,0.0,0.25,0.5,-0.98,0.33,0.58,47.61,-6.4,-51.7
4.26,0.25,0.0,1.0,0.5,0.0,0.0,0.0,0.0,0.25,0.75,0.0,0.0,0.0,-0.92,0.58,0.27,48.5,17.1,17.8,1.25,0.5,0.0,0.75,0.0,0.25,0.25,0.0,0.5,0.75,0.0,0.0,0.75,-0.98,0.33,0.52,52.69,-8.8,12.7
4.28,0.0,0.0,1.0,0.0,0.0,0.0,0.0,0.0,0.25,0.75,0.0,0.0,0.0,-0.92,0.58,0.27,42.59,15.1,-1.6,0.0,0.0,0.0,0.0,0.0,0.0,0.25,0.0,0.0,0.0,0.0,0.0,0.5,-0.86,0.33,0.58,27.47,4.9,-83.9
4.3,0.0,0.0,1.0,0.5,0.0,0.0,0.0,0.0,0.25,0.75,0.0,0.0,0.0,-0.73,0.52,0.33,40.35,15.5,10.5,1.0,0.25,0.0,1.25,0.0,1.25,0.25,0.0,0.25,0.5,0.75,0.25,1.0,-0.8,0.27,0.52,54.85,-4.0,-0.9
4.32,0.25,0.0,0.75,0.5,0.0,0.0,0.25,0.0,0.25,0.75,0.0,0.0,0.0,-0.67,0.52,0.33,39.01,15.8,14.1,1.0,0.25,0.0,1.25,1.75,1.25,0.0,0.0,0.5,0.5,0.75,0.25,1.0,-0.86,0.27,0.52,86.55,-2.1,10.2
4.34,0.25,0.0,0.0,0.5,0.0,0.0,0.25,0.0,0.25,1.0,0.0,0.0,0.0,-0.8,0.52,0.27,36.93,3.9,-13.4,1.25,0.25,0.0,1.25,1.75,1.0,0.25,0.0,0.5,0.25,0.75,0.25,0.75,-0.86,0.27,0.58,113.68,-5.2,18.5
4.36,0.25,0.0,0.25,0.5,0.0,0.0,0.0,0.0,0.25,0.75,0.0,0.0,0.0,-0.86,0.58,0.33,34.67,9.0,1.3,0.75,0.25,0.0,1.25,2.25,0.75,0.25,0.0,0.25,0.0,0.5,0.25,1.0,-0.86,0.27,0.58,127.41,-3.3,19.4
4.38,0.25,0.0,0.75,0.5,0.0,0.0,0.0,0.0,0.25,0.75,0.0,0.0,0.0,-0.86,0.58,0.33,35.47,15.0,13.4,0.0,0.0,0.0,0.0,0.0,0.75,0.0,0.0,0.5,0.5,0.0,0.25,0.0,-0.8,0.27,0.58,100.52,8.1,-30.7
4.4,0.0,0.0,0.25,0.25,0.0,0.0,0.0,0.0,0.75,1.5,0.0,0.0,0.0,-0.86,0.58,0.33,37.22,0.0,-40.2,0.25,0.0,0.0,0.0,0.5,0.5,0.75,0.0,0.5,0.5,0.5,0.5,0.75,-0.86,0.2,0.64,87.16,-0.9,-34.8
4.42,3.0,0.0,1.0,2.25,0.0,0.0,4.0,0.0,1.0,1.0,0.0,0.0,0.0,-0.8,0.52,0.33,83.23,23.4,40.8,1.25,0.25,0.0,1.25,1.5,1.0,0.25,0.0,0.5,1.0,0.5,0.25,1.0,-0.86,0.2,0.64,92.6,-3.0,8.2
4.44,0.25,0.0,0.25,0.5,0.0,0.0,0.25,0.0,0.0,0.75,0.0,0.0,0.0,-0.67,0.52,0.39,78.16,10.1,8.2,1.25,0.0,0.0,1.0,2.25,1.0,0.0,0.0,0.25,0.0,0.5,0.5,1.0,-0.86,0.14,0.64,114.64,-3.3,16.5
4.46,0.0,0.0,0.75,0.5,0.0,0.0,0.25,0.0,0.0,0.75,0.0,0.0,0.0,-0.73,0.52,0.33,73.67,14.1,11.0,1.0,0.25,0.0,1.25,1.75,1.25,0.25,0.0,0.25,0.75,1.0,0.25,0.75,-0.86,0.08,0.64,129.87,-2.4,10.5
4.48,0.0,0.0,0.0,0.5,0.0,0.0,0.5,0.0,0.25,0.75,0.0,0.0,0.0,-0.8,0.58,0.33,50.54,4.5,-16.6,1.25,0.25,0.0,1.25,2.25,1.0,0.25,0.0,0.5,0.5,0.5,0.25,1.0,-0.86,0.08,0.64,144.05,-3.4,17.1
4.5,0.25,0.0,0.25,0.5,0.0,0.0,0.25,0.0,0.25,1.0,0.0,0.0,0.0,-0.73,0.58,0.33,42.13,7.6,-5.4,1.25,0.25,0.0,0.75,1.75,0.75,0.25,0.0,0.5,0.75,0.75,0.25,0.75,-0.86,0.08,0.7,142.22,-4.0,9.7
4.52,1.5,0.0,0.75,2.5,0.0,0.0,0.25,0.0,2.5,0.0,0.0,0.0,0.0,-0.73,0.58,0.33,63.33,21.3,33.0,0.0,0.0,0.0,0.0,1.75,0.0,0.25,0.0,0.0,0.0,1.0,0.25,0.5,-0.86,0.08,0.7,116.52,-0.7,-11.6
4.54,0.0,0.0,0.0,0.0,0.0,0.0,3.5,0.0,1.25,0.0,0.0,0.0,0.0,-0.8,0.58,0.33,65.97,23.8,-0.5,1.0,0.0,0.0,1.0,0.0,0.0,0.0,0.0,0.0,0.0,0.0,0.0,0.75,-0.8,0.08,0.64,82.97,-14.5,24.4
4.56,0.0,0.0,0.0,0.0,0.0,0.0,3.5,0.0,1.25,0.0,0.0,0.0,0.0,-0.8,0.58,0.33,67.62,23.8,-0.5,0.0,0.0,0.0,0.0,0.0,0.0,0.0,0.0,0.0,0.0,0.0,0.0,0.0,-0.8,0.14,0.64,41.3,0.0,0.0
4.58,0.0,0.0,0.0,0.0,0.0,0.0,4.0,0.0,1.75,0.0,0.0,0.0,0.0,-0.8,0.58,0.33,60.06,22.8,-3.8,0.0,0.0,0.0,0.0,0.0,0.0,0.0,0.0,0.0,0.0,0.0,0.0,0.0,-0.8,0.14,0.7,12.17,0.0,0.0
4.6,0.0,0.0,0.0,0.0,0.0,0.0,3.5,0.0,1.75,0.0,0.0,0.0,0.0,-0.8,0.58,0.39,55.85,22.1,-6.0,0.0,0.0,0.0,0.0,0.0,0.0,0.0,0.0,0.0,0.0,0.0,0.0,0.0,-0.8,0.14,0.7,0.0,0.0,0.0
4.62,0.0,0.0,0.0,0.0,0.0,0.0,3.5,0.0,2.0,0.0,0.0,0.0,0.0,-0.8,0.58,0.39,51.92,21.4,-8.2,0.0,0.0,0.0,0.0,0.0,0.0,0.0,0.0,0.0,0.0,0.0,0.0,0.0,-0.73,0.14,0.64,0.0,0.0,0.0
4.64,0.0,0.0,0.0,0.0,0.0,0.0,3.5,0.0,2.0,0.0,0.0,0.0,0.0,-0.8,0.58,0.39,52.71,21.4,-8.2,0.0,0.0,0.0,0.0,1.25,0.0,0.25,0.0,0.0,0.0,0.25,0.0,1.25,-0.8,0.08,0.64,0.0,5.1,-25.5
4.66,0.0,0.0,0.0,0.0,0.0,0.0,3.5,0.0,2.0,0.0,0.0,0.0,0.0,-0.8,0.58,0.39,53.26,21.4,-8.2,0.0,0.0,0.0,0.0,0.0,0.0,0.0,0.0,0.0,0.0,0.0,0.25,0.0,-0.73,0.08,0.64,0.0,-8.8,-109.9
4.68,0.0,0.0,0.0,0.0,0.0,0.0,3.5,0.0,2.0,0.0,0.0,0.0,0.0,-0.73,0.58,0.39,59.77,21.4,-8.2,0.0,0.0,0.0,0.0,0.0,0.0,0.0,0.0,0.0,0.0,0.0,0.0,0.25,-0.73,0.08,0.64,0.0,13.7,-109.8
4.7,0.0,0.0,0.0,0.0,0.0,0.0,4.25,0.0,2.25,0.0,0.0,0.0,0.0,-0.73,0.58,0.39,61.98,21.8,-7.0,1.0,0.25,0.0,1.25,1.75,1.0,0.25,0.0,0.5,0.25,0.5,0.5,0.75,-0.8,0.08,0.7,32.51,-4.3,15.1
4.72,0.0,0.0,0.0,0.0,0.0,0.0,4.25,0.0,2.0,0.0,0.0,0.0,0.0,-0.73,0.58,0.39,62.64,22.4,-5.0,1.0,0.25,0.0,1.25,1.5,1.0,0.25,0.0,0.5,0.5,0.5,0.25,1.0,-0.8,0.08,0.7,73.8,-3.2,10.8
4.74,0.0,0.0,0.0,0.0,0.0,0.0,4.25,0.0,1.75,0.0,0.0,0.0,0.0,-0.73,0.58,0.39,61.07,23.1,-2.8,1.0,0.0,0.0,1.25,1.75,1.0,0.25,0.0,0.5,0.0,0.75,0.25,1.25,-0.8,0.08,0.64,111.61,-3.6,8.4
4.76,0.0,0.0,0.0,0.0,0.0,0.0,4.0,0.0,2.0,0.0,0.0,0.0,0.0,-0.8,0.58,0.39,59.33,22.1,-6.0,1.0,0.25,0.0,1.25,1.5,1.25,0.25,0.0,0.5,0.5,0.5,0.5,0.5,-1.42,0.14,1.27,134.16,-3.7,15.5
4.78,0.0,0.0,0.0,0.0,0.0,0.0,4.25,0.0,2.25,0.0,0.0,0.0,0.0,-0.8,0.58,0.39,64.91,21.8,-7.0,1.0,0.25,0.0,1.25,1.75,1.0,0.25,0.0,0.5,0.25,0.75,0.5,0.5,-0.61,0.2,0.64,145.33,-5.1,16.4
4.8,0.0,0.0,0.0,0.0,0.0,0.0,4.0,0.0,2.0,0.0,0.0,0.0,0.0,-0.73,0.58,0.39,63.98,22.1,-6.0,1.0,0.0,0.0,1.25,1.75,1.25,0.25,0.0,0.25,0.75,0.5,0.25,0.5,-0.8,0.14,0.7,145.93,-2.1,16.9
4.82,0.0,0.0,0.0,0.0,0.0,0.0,3.5,0.0,2.0,0.0,0.0,0.0,0.0,-0.8,0.58,0.39,61.89,21.4,-8.2,1.0,0.5,0.0,0.75,1.75,0.5,0.25,0.0,0.5,0.5,1.0,0.5,0.5,-0.8,0.08,0.77,144.21,-5.7,9.5
4.84,0.0,0.0,0.0,0.0,0.0,0.0,3.5,0.0,2.5,1.5,0.0,0.25,0.0,-0.8,0.58,0.39,71.19,10.6,-32.2,1.25,0.25,0.0,1.25,1.75,1.0,0.25,0.0,0.5,0.0,0.75,0.25,0.75,-0.73,0.08,0.7,144.33,-5.9,21.5
4.86,0.25,0.0,1.0,0.5,0.0,0.0,0.0,0.0,0.25,0.75,0.0,0.0,0.5,-0.73,0.58,0.39,66.82,12.3,-2.0,1.25,0.0,0.0,1.25,2.25,1.25,0.25,0.0,0.25,0.5,0.5,0.25,0.5,-0.8,0.14,0.7,144.29,-3.2,24.5
4.88,0.25,0.0,1.0,0.5,0.0,0.0,0.0,0.0,0.25,0.75,0.0,0.0,0.25,-0.8,0.58,0.39,62.18,14.5,7.0,1.0,0.5,0.0,1.25,2.25,0.5,0.25,0.0,0.5,0.25,0.75,0.5,0.75,-0.73,0.14,0.7,144.3,-5.7,16.6
4.9,0.5,0.0,1.0,0.5,0.0,0.0,0.25,0.0,0.25,0.75,0.0,0.0,0.25,-0.8,0.58,0.45,56.51,16.6,14.0,1.0,0.0,0.0,1.25,1.75,1.0,0.25,0.0,0.25,0.75,0.5,0.25,0.5,-0.73,0.14,0.64,139.87,-2.9,16.4
4.92,0.25,0.0,1.0,0.5,0.0,0.0,0.0,0.0,0.25,1.0,0.0,0.0,0.25,-0.73,0.58,0.39,53.16,12.2,0.7,1.0,0.0,0.0,0.5,1.75,0.75,0.25,0.0,0.5,0.5,0.5,0.25,0.75,-0.73,0.08,0.7,126.99,-2.5,7.6
4.94,0.0,0.0,1.0,0.5,0.0,0.0,0.25,0.0,0.25,0.75,0.0,0.0,0.0,-0.73,0.58,0.39,47.31,16.3,11.3,1.0,0.25,0.0,1.25,1.75,1.0,0.0,0.0,0.5,1.0,0.75,0.0,0.5,-0.8,0.08,0.7,119.73,-2.5,15.5
4.96,0.0,0.0,0.75,0.25,0.0,0.0,0.25,0.0,0.25,0.75,0.0,0.0,0.0,-0.73,0.58,0.39,41.43,13.5,-0.2,1.0,0.25,0.0,1.25,1.5,1.0,0.25,0.0,0.5,0.75,0.75,0.25,0.75,-0.8,0.08,0.7,120.87,-3.4,9.4
4.98,0.0,0.0,0.75,0.0,0.0,0.0,0.0,0.0,0.0,0.0,0.0,0.0,0.0,-0.67,0.58,0.39,28.86,38.2,60.9,1.0,0.0,0.0,1.25,1.5,0.5,0.25,0.0,0.25,0.75,0.75,0.25,0.75,-0.8,0.08,0.7,119.23,-4.5,6.3
5.0,0.0,0.0,0.75,0.0,0.0,0.0,0.0,0.0,0.0,0.0,0.0,0.0,0.0,-0.73,0.58,0.39,17.1,38.2,60.9,1.0,0.25,0.0,1.25,1.5,0.5,0.25,0.0,0.5,0.0,0.75,0.5,0.5,-0.73,0.08,0.7,116.15,-8.0,17.0
5.02,0.0,0.0,0.75,0.0,0.0,0.0,0.0,0.0,0.0,0.0,0.0,0.0,0.0,-0.73,0.58,0.39,8.61,38.2,60.9,0.75,0.25,0.0,1.25,1.75,0.5,0.25,0.0,0.5,0.5,0.5,0.25,0.5,-0.73,0.08,0.7,113.02,-4.9,16.9
5.04,0.0,0.0,1.0,0.0,0.0,0.0,0.0,0.0,0.25,0.0,0.0,0.0,0.0,-0.73,0.58,0.39,8.1,33.2,41.7,1.25,0.25,0.0,1.25,2.25,0.5,0.25,0.0,0.25,0.5,1.0,0.25,0.75,-0.73,0.08,0.7,118.23,-5.5,16.3
5.06,0.0,0.0,1.0,0.0,0.0,0.0,0.75,0.0,0.0,0.0,0.0,0.0,0.0,-0.73,0.58,0.39,10.12,36.7,52.3,1.0,0.5,0.0,1.25,1.75,0.75,0.25,0.0,0.25,0.0,0.75,0.5,0.75,-0.73,0.08,0.7,120.24,-6.0,19.1
5.08,0.0,0.0,0.75,0.0,0.0,0.0,0.0,0.0,0.0,0.0,0.0,0.0,0.0,-0.73,0.58,0.39,9.56,38.2,60.9,1.0,0.25,0.0,1.25,2.25,0.75,0.25,0.0,0.25,0.5,0.75,0.5,0.75,-0.8,0.08,0.7,127.02,-3.9,13.6
5.1,0.5,0.0,0.75,0.5,0.0,0.0,0.0,0.0,0.25,0.75,0.0,0.0,0.0,-0.73,0.58,0.39,21.84,16.7,20.6,1.0,0.0,0.0,0.75,1.75,1.0,0.25,0.0,0.5,0.25,0.75,0.5,1.25,-0.73,0.08,0.7,126.65,-2.2,-0.9
5.12,0.25,0.0,1.0,0.5,0.0,0.0,0.0,0.0,0.25,0.75,0.0,0.0,0.0,-0.73,0.58,0.39,30.52,17.1,17.8,1.25,0.25,0.0,1.25,1.5,0.75,0.25,0.0,0.5,1.25,0.75,0.5,1.0,-0.73,0.08,0.77,132.66,-3.5,0.0
5.14,0.25,0.0,1.0,0.5,0.0,0.0,0.0,0.0,0.5,1.25,0.0,0.0,0.25,-0.73,0.58,0.39,44.26,10.4,-6.8,1.25,0.0,0.0,1.25,1.5,0.75,0.25,0.0,0.5,0.5,1.0,0.25,1.25,-0.73,0.14,0.7,133.05,-4.5,1.3
5.16,0.25,0.0,1.0,0.5,0.0,0.0,0.0,0.0,0.25,0.75,0.0,0.0,0.25,-0.73,0.58,0.39,50.57,14.5,7.0,1.25,0.25,0.0,1.25,1.5,0.75,0.25,0.0,0.25,0.0,0.75,0.25,1.25,-0.73,0.14,0.7,131.32,-5.6,13.1
5.18,0.0,0.0,0.75,0.0,0.0,0.0,0.0,0.0,0.0,0.0,0.0,0.0,0.0,-0.73,0.58,0.39,43.35,38.2,60.9,1.25,0.25,0.0,1.25,1.75,0.75,0.25,0.0,0.5,0.5,0.75,0.5,1.0,-0.73,0.14,0.7,131.44,-4.9,8.1
