time,left pressure 0[N/cm²],left pressure 1[N/cm²],left pressure 2[N/cm²],left pressure 3[N/cm²],left pressure 4[N/cm²],left pressure 5[N/cm²],left pressure 6[N/cm²],left pressure 7[N/cm²],left pressure 8[N/cm²],left pressure 9[N/cm²],left pressure 10[N/cm²],left pressure 11[N/cm²],left pressure 12[N/cm²],left acceleration X[g],left acceleration Y[g],left acceleration Z[g],left total force[N],left center of pressure X[mm],left center of pressure Y[mm],right pressure 0[N/cm²],right pressure 1[N/cm²],right pressure 2[N/cm²],right pressure 3[N/cm²],right pressure 4[N/cm²],right pressure 5[N/cm²],right pressure 6[N/cm²],right pressure 7[N/cm²],right pressure 8[N/cm²],right pressure 9[N/cm²],right pressure 10[N/cm²],right pressure 11[N/cm²],right pressure 12[N/cm²],right acceleration X[g],right acceleration Y[g],right acceleration Z[g],right total force[N],right center of pressure X[mm],right center of pressure Y[mm]
0.02,0.25,0.0,0.0,0.0,0.0,0.0,0.0,1.5,0.0,0.0,0.0,0.0,0.0,-0.67,0.14,1.27,44.49,-9.8,-20.3,8.0,4.75,13.5,14.0,8.5,3.5,1.75,2.5,0.75,1.5,2.25,1.0,1.25,0.08,0.2,1.2,1042.68,-15.3,45.5
0.04,0.0,0.0,0.0,0.0,0.0,0.0,0.0,1.75,1.25,0.0,0.0,0.0,1.75,-0.11,0.2,1.33,45.21,-8.1,-65.5,7.75,5.0,13.5,13.0,7.75,3.25,1.5,2.25,0.5,1.25,2.25,0.0,1.25,0.02,0.2,1.2,1058.26,-16.0,49.1
0.06,0.0,0.0,0.0,0.0,0.0,0.0,0.0,0.0,0.0,0.0,0.0,0.0,0.0,-0.11,0.2,1.08,23.92,0.0,0.0,7.75,3.0,12.0,11.0,5.75,1.0,0.75,1.0,0.0,0.0,1.0,0.0,0.25,0.08,0.27,1.27,942.46,-20.7,60.6
0.08,0.0,0.75,0.0,0.5,0.0,0.0,0.0,4.75,1.25,5.5,2.75,2.0,4.0,-0.17,0.14,1.02,127.0,-6.6,-65.5,7.5,2.75,12.0,9.0,2.5,1.0,0.75,0.75,0.0,0.0,1.0,0.0,0.25,0.14,0.33,1.39,779.34,-23.5,61.7
0.1,0.0,0.0,0.0,0.25,0.0,0.0,0.0,4.75,1.5,5.5,3.5,3.5,4.25,-0.17,0.08,0.95,218.91,-5.8,-75.7,7.25,2.0,11.5,7.0,1.0,1.0,1.0,0.5,0.0,0.0,1.0,0.0,0.25,0.27,0.45,1.52,600.91,-25.7,61.9
0.12,0.0,0.75,0.0,2.0,0.0,0.25,0.25,6.0,3.0,6.75,6.25,4.0,5.5,-0.17,0.02,0.95,348.38,-2.9,-62.4,6.0,1.0,10.5,5.25,0.0,0.75,1.5,0.5,0.0,0.0,0.5,0.0,0.0,0.27,0.52,1.7,439.15,-28.4,63.7
0.14,0.0,0.75,0.0,2.25,0.0,1.25,0.5,6.5,3.5,7.25,6.0,4.5,5.75,-0.17,0.02,1.02,474.61,-3.3,-59.3,3.25,0.25,8.75,3.25,0.0,1.0,1.5,0.5,0.0,0.0,0.75,0.0,0.0,0.02,0.89,2.08,312.69,-27.6,56.3
0.16,0.0,1.0,2.0,2.0,0.0,1.5,0.75,7.0,3.75,7.0,6.0,4.0,5.5,-0.17,0.02,0.95,595.86,-1.3,-50.7,1.75,0.0,6.75,1.75,0.0,0.5,0.75,0.5,0.0,0.0,0.25,0.0,0.0,-0.05,1.45,2.77,215.89,-29.1,56.5
0.18,0.0,1.0,2.0,2.25,0.0,2.0,0.75,7.0,3.75,6.5,6.25,3.75,5.5,-0.17,-0.05,0.95,659.81,-1.3,-48.4,0.5,0.0,5.25,0.5,0.0,0.75,0.25,1.25,0.0,0.0,0.0,0.0,0.0,0.14,0.39,2.33,116.69,-23.4,45.4
0.2,0.0,1.0,2.0,3.0,5.25,2.25,0.75,7.0,3.75,6.5,5.75,3.75,4.75,-0.17,0.02,0.95,719.48,-1.2,-31.5,0.5,0.0,2.75,0.5,0.0,0.25,0.25,0.5,0.0,0.0,0.25,0.0,0.0,0.83,-0.86,2.08,16.7,-25.7,45.2
0.22,0.0,1.0,2.0,3.25,5.25,2.75,0.5,7.0,3.75,6.5,5.25,2.75,4.5,-0.17,0.02,0.95,741.99,-1.7,-27.8,0.5,0.0,2.5,0.5,0.0,0.0,0.25,0.5,0.0,0.0,0.25,0.0,0.0,1.27,-0.8,2.33,0.0,-27.5,44.8
0.24,0.0,1.25,2.0,3.75,6.75,3.25,0.5,6.75,3.25,5.5,4.75,2.5,4.0,-0.17,0.02,0.95,755.94,-1.5,-19.1,0.5,0.0,1.75,0.5,0.0,0.5,0.25,0.5,0.0,0.0,0.0,0.0,0.0,0.77,-0.73,1.39,0.0,-20.3,47.8
0.26,0.0,1.25,2.0,4.0,6.0,3.25,0.5,6.75,3.0,5.5,3.25,1.75,3.25,-0.17,0.02,0.95,725.38,-1.8,-14.7,0.5,0.0,1.25,0.5,0.0,0.0,0.0,0.5,0.0,0.0,0.0,0.0,0.0,0.33,-0.61,0.95,0.0,-23.8,48.6
0.28,0.0,1.25,2.0,4.0,5.75,3.5,0.5,6.5,2.5,4.25,2.0,1.5,2.0,-0.17,0.02,0.95,659.95,-1.7,-6.4,0.5,0.0,0.5,0.5,0.0,0.0,0.0,0.5,0.0,0.0,0.0,0.0,0.0,0.27,-0.17,0.45,0.0,-18.2,43.9
0.3,0.0,1.0,2.0,4.25,7.75,3.5,0.25,6.5,2.0,4.25,2.0,1.5,1.75,-0.17,0.02,0.95,603.2,-1.9,-1.9,0.5,0.0,0.0,0.5,0.0,0.0,0.0,0.5,0.0,0.0,0.0,0.0,0.0,0.2,-0.11,0.58,0.0,-11.3,38.0
0.32,0.0,1.5,2.0,5.5,7.0,4.0,0.5,6.25,1.5,3.0,0.5,0.75,1.75,-0.17,0.02,0.95,535.0,-1.5,9.6,0.5,0.0,0.0,0.5,0.0,0.0,0.0,0.5,0.0,0.0,0.0,0.0,0.0,0.14,-0.05,0.77,0.0,-11.3,38.0
0.34,0.0,2.0,2.0,6.0,0.0,4.25,0.25,6.0,1.25,2.75,0.0,0.5,1.25,-0.17,0.02,0.95,449.81,-0.6,5.6,0.5,0.0,0.75,0.5,0.0,0.0,0.0,0.5,0.0,0.0,0.0,0.0,0.0,0.27,0.02,0.83,0.0,-20.5,45.8
0.36,0.0,1.5,2.25,6.0,8.0,4.5,0.25,5.75,1.0,2.5,0.0,0.5,1.0,-0.17,0.02,0.95,427.03,-1.1,19.8,0.5,0.0,0.25,0.5,0.0,0.0,0.0,0.5,0.0,0.5,0.0,0.0,0.0,0.27,0.08,0.89,0.0,-8.4,15.3
0.38,0.0,2.5,2.0,7.0,7.75,4.75,0.25,5.5,1.0,2.5,0.0,0.5,1.25,-0.23,0.08,0.95,433.04,-0.6,22.1,0.5,0.0,2.75,0.5,0.25,0.0,0.0,0.5,0.0,0.0,0.0,0.0,0.0,0.33,0.2,1.14,17.77,-26.9,53.0
0.4,0.0,2.5,2.25,7.5,0.0,4.75,0.25,5.25,0.75,2.5,0.0,0.5,1.0,-0.23,0.08,0.95,405.96,1.0,15.3,1.25,0.25,0.5,0.5,0.0,0.0,0.0,0.5,0.0,0.0,1.75,0.25,0.0,0.33,0.33,1.33,45.53,-17.3,5.4
0.42,0.5,3.25,2.75,7.75,0.0,5.0,0.25,5.0,0.75,2.5,0.0,0.5,0.75,-0.23,0.14,0.95,389.44,2.8,21.7,1.25,0.25,0.0,1.25,0.0,0.0,0.0,0.5,0.0,0.0,0.0,0.0,0.5,0.33,0.58,1.45,60.76,-13.6,37.2
0.44,0.25,3.75,3.5,8.75,0.0,5.5,0.25,4.5,0.5,2.25,0.0,0.5,0.75,-0.23,0.14,1.02,382.52,4.1,27.1,0.25,0.0,2.75,0.5,0.25,0.0,0.0,0.5,0.0,1.0,0.0,0.25,0.5,0.2,1.2,1.39,78.63,-15.5,10.1
0.46,0.75,4.0,3.75,8.75,0.0,5.5,0.0,4.5,0.5,1.75,0.0,0.5,0.75,-0.3,0.14,1.02,388.42,5.1,30.7,0.5,0.0,0.25,0.5,0.0,0.75,0.25,0.5,0.0,0.0,0.0,0.0,0.0,-0.11,1.89,1.83,71.99,-5.6,38.7
0.48,1.0,5.0,3.75,9.0,0.0,5.25,0.25,3.75,0.5,1.5,0.0,0.5,0.75,-0.23,0.14,1.08,400.13,6.7,36.1,0.75,0.0,1.5,0.75,0.5,1.0,1.0,0.75,0.25,1.25,1.25,0.0,0.5,-0.92,2.52,2.02,97.55,-7.3,0.3
0.5,0.0,5.0,3.0,9.25,0.0,4.75,0.0,3.5,0.25,1.25,0.0,0.5,0.75,-0.3,0.2,1.08,406.41,5.7,36.0,0.75,0.0,2.75,0.5,1.5,1.0,0.5,0.75,0.0,1.25,1.0,0.0,0.5,-1.23,2.95,1.33,125.59,-8.9,14.3
0.52,2.0,5.25,3.0,9.5,0.0,3.75,0.0,3.25,0.25,1.0,0.0,0.5,0.75,-0.3,0.2,1.14,410.81,9.0,42.3,0.75,0.0,2.5,0.75,1.5,0.75,0.5,0.75,0.0,1.25,1.0,0.5,0.75,-1.48,3.89,0.64,156.5,-8.6,5.3
0.54,3.0,6.0,3.0,9.25,0.0,0.0,0.0,3.0,0.25,1.0,0.0,0.5,1.0,-0.3,0.27,1.14,396.15,14.0,46.0,1.25,0.0,1.75,0.0,1.75,0.5,0.25,0.75,0.0,1.0,1.25,0.0,0.75,-2.67,4.77,-0.55,165.53,-7.5,7.6
0.56,3.5,6.0,0.0,9.0,0.0,0.0,0.0,2.75,0.25,1.0,0.0,0.5,0.5,-0.42,0.33,1.27,374.58,12.2,49.1,0.25,0.0,0.5,0.0,0.0,0.5,0.0,0.5,0.0,2.75,1.0,2.25,2.25,-0.86,-0.17,1.52,174.2,3.5,-73.0
0.58,3.25,5.25,3.75,8.75,0.0,0.0,0.0,2.5,0.0,1.0,0.0,0.5,0.75,-0.42,0.33,1.39,365.1,15.8,49.0,0.75,0.0,0.0,0.5,0.0,1.5,0.0,0.75,0.0,7.0,4.75,5.5,6.5,-0.67,0.08,1.27,253.51,4.2,-77.1
0.6,0.5,0.0,3.0,7.0,0.0,0.0,0.0,0.0,0.25,1.0,0.0,0.5,0.75,-0.67,0.39,2.02,291.06,18.0,32.3,0.5,0.0,0.0,0.0,0.0,0.75,0.5,4.5,0.75,8.0,7.25,6.0,7.5,0.39,0.83,3.2,364.03,4.5,-78.1
0.62,0.0,0.0,2.0,4.0,0.0,0.0,0.0,0.0,0.25,1.0,0.0,0.0,1.0,-0.98,1.33,2.83,222.63,14.5,19.9,1.0,0.0,0.25,1.75,0.0,3.5,0.25,5.75,1.5,9.25,7.75,6.5,8.25,-0.11,0.14,1.02,548.06,4.3,-63.0
0.64,0.0,0.0,0.0,2.0,0.0,0.0,0.0,0.0,0.0,0.75,0.0,0.0,0.0,-0.92,1.45,3.45,124.5,8.5,22.7,0.0,0.0,0.0,1.25,2.25,3.25,0.0,5.75,1.5,9.5,8.25,7.0,7.75,0.08,0.14,1.02,709.83,5.2,-62.6
0.66,0.0,0.0,0.25,0.25,0.0,0.0,0.0,0.0,0.25,0.75,0.0,0.0,0.0,-0.55,0.45,1.89,32.61,3.6,-23.2,1.5,0.0,0.0,2.0,1.75,3.5,0.75,7.5,2.75,10.5,10.0,7.5,8.5,0.08,0.08,0.95,883.02,3.4,-57.5
0.68,0.0,0.0,0.0,0.0,0.0,0.0,0.0,1.5,1.75,0.0,0.0,0.0,0.0,-0.86,-0.42,2.02,0.0,-1.2,-38.6,1.75,0.0,1.0,2.0,1.75,3.5,1.0,7.5,2.75,10.5,10.5,7.5,8.75,0.08,0.08,0.95,1000.56,2.4,-55.0
0.7,0.0,0.0,0.0,0.0,0.0,0.0,0.0,1.25,0.0,0.0,0.0,0.0,0.0,-0.92,-0.42,1.95,0.0,-16.7,-38.8,1.75,0.25,2.75,2.0,2.5,3.5,1.25,8.0,3.25,10.5,10.5,7.5,8.75,0.14,0.08,0.95,1110.35,1.1,-49.0
0.72,0.0,0.0,0.0,0.0,0.0,0.0,0.0,0.0,0.0,0.0,0.0,0.0,0.0,-0.36,-0.86,1.89,0.0,0.0,0.0,1.75,0.5,3.0,2.25,2.5,3.75,1.5,8.0,3.25,9.75,10.5,7.25,8.5,0.14,0.08,0.95,1162.14,0.6,-46.2
0.74,0.0,0.0,0.0,0.0,0.0,0.0,0.0,0.0,0.0,0.0,0.0,0.0,0.0,-0.42,-0.55,0.89,0.0,0.0,0.0,2.0,0.5,3.25,2.5,2.5,3.5,1.5,8.0,3.25,9.25,9.5,6.5,8.25,0.14,0.08,0.95,1170.1,0.2,-43.3
0.76,0.0,0.0,0.0,0.0,0.0,0.0,0.0,0.0,0.0,0.0,0.0,0.0,0.0,-0.55,-0.42,0.52,0.0,0.0,0.0,2.0,1.0,4.0,3.25,2.75,3.5,1.5,7.75,3.25,8.5,9.0,6.0,7.75,0.14,0.08,0.95,1136.14,-0.7,-37.1
0.78,0.0,0.0,0.0,0.0,0.0,0.0,0.0,0.0,0.0,0.0,0.0,0.0,0.0,-0.55,-0.3,0.39,0.0,0.0,0.0,2.0,1.0,4.25,3.25,2.5,3.75,1.75,7.5,2.75,8.0,8.0,5.25,6.5,0.14,0.08,0.95,1054.58,-1.0,-33.0
0.8,0.0,0.0,0.0,0.0,0.0,0.0,0.0,0.0,0.0,0.0,0.0,0.0,0.0,-0.55,-0.3,0.58,0.0,0.0,0.0,3.0,1.0,5.25,3.25,3.25,3.75,2.0,7.5,2.75,7.25,7.5,4.75,5.5,0.14,0.08,0.95,967.91,-2.6,-24.6
0.82,0.0,0.0,0.0,1.75,0.0,0.0,0.0,0.0,0.25,1.0,0.0,0.0,0.0,-0.48,-0.17,0.77,0.0,6.1,6.8,2.75,1.0,5.0,3.25,2.5,4.0,2.0,6.75,2.75,6.75,6.75,4.0,4.75,0.14,0.08,0.95,854.91,-2.8,-22.7
0.84,0.0,0.0,0.0,0.0,0.0,0.0,0.0,0.0,2.25,0.75,0.0,0.0,0.0,-0.55,-0.05,0.77,8.97,5.1,-47.9,3.0,1.0,5.75,4.0,4.25,4.5,2.0,6.5,2.0,6.25,6.25,3.0,4.25,0.14,0.08,0.95,794.5,-3.3,-12.4
0.86,0.5,0.0,0.0,0.0,0.0,0.0,0.5,2.75,0.0,0.0,0.0,0.0,0.0,-0.61,0.08,0.83,35.81,-6.3,-15.7,2.0,0.25,7.0,3.5,4.25,3.5,2.0,6.0,1.5,4.0,5.25,1.5,2.5,0.14,0.14,0.95,694.76,-5.4,-3.7
0.88,0.0,0.0,0.0,0.25,0.0,0.0,0.0,0.0,1.0,0.25,0.0,0.0,0.0,-0.61,0.2,1.02,40.74,8.4,-27.8,3.0,0.75,6.75,5.5,2.5,3.5,2.0,5.0,1.5,2.25,3.25,0.75,1.5,0.14,0.14,0.95,602.28,-8.9,13.0
0.9,0.0,0.0,0.0,0.0,0.0,0.0,0.0,0.0,0.0,0.75,0.0,0.0,0.0,-0.67,0.27,1.27,34.47,-15.6,-75.5,3.25,1.0,7.75,7.25,3.5,4.0,2.0,5.0,0.75,1.5,2.25,0.75,1.25,0.14,0.14,0.95,539.57,-10.0,24.4
0.92,0.0,0.0,0.0,0.25,0.0,0.0,0.0,0.75,0.0,0.5,0.0,0.0,0.0,-0.67,0.39,1.52,27.19,-10.5,-34.1,5.25,2.25,8.75,7.5,6.0,4.0,2.25,5.0,0.75,2.25,2.5,0.75,1.25,0.14,0.14,0.95,568.66,-10.5,29.9
0.94,0.0,0.0,0.0,0.0,0.0,0.0,0.0,0.25,0.0,0.0,0.0,0.0,0.0,-0.8,0.64,2.14,19.46,-16.7,-38.7,5.5,2.0,9.0,9.0,5.5,4.5,2.0,3.75,0.25,2.25,2.25,0.5,0.75,0.08,0.14,0.95,612.03,-11.8,36.0
0.96,0.0,0.0,0.0,1.0,0.0,0.0,0.0,0.0,0.25,1.0,0.0,0.0,0.0,-0.86,1.45,2.14,24.85,2.3,-10.6,6.5,2.25,9.25,9.5,5.75,4.0,2.0,3.75,0.25,1.0,2.25,0.5,1.25,0.08,0.14,1.02,675.75,-13.1,39.4
0.98,0.0,0.0,0.0,0.75,0.0,0.0,0.0,1.5,0.25,1.0,0.0,0.0,0.5,-0.73,2.2,2.2,38.74,-7.7,-38.1,7.5,0.0,11.5,11.0,7.5,5.0,2.0,2.5,0.0,0.25,2.0,0.25,1.25,0.14,0.2,1.08,741.5,-14.7,45.0
1.0,0.0,0.0,0.0,1.0,0.0,0.0,0.0,1.75,0.25,1.0,0.0,0.0,0.0,-0.55,3.45,1.83,52.8,-5.9,-22.8,6.75,2.5,11.0,11.0,6.5,3.5,1.0,2.25,0.0,0.0,0.25,0.0,0.5,0.08,0.2,1.08,759.87,-16.4,56.3
1.02,0.0,0.0,0.0,1.0,0.0,0.0,0.0,1.75,0.0,1.0,0.0,0.0,0.5,-0.23,4.39,1.14,63.05,-7.9,-32.3,7.5,3.5,11.0,12.5,6.75,3.5,1.25,1.75,0.0,0.0,0.0,0.0,0.5,0.08,0.2,1.14,789.73,-16.9,59.4
1.04,0.0,0.0,0.0,0.0,0.0,0.0,0.0,0.75,0.0,0.75,0.0,0.0,0.0,0.02,4.89,0.39,54.4,-16.2,-57.1,7.75,4.25,10.5,11.0,6.25,0.75,0.75,1.0,0.0,0.0,0.25,0.0,0.25,0.08,0.27,1.14,771.07,-19.9,64.0
1.06,0.0,0.0,0.0,0.5,0.0,0.0,0.0,1.5,0.0,0.0,0.0,0.0,0.0,1.33,5.14,0.39,44.68,-7.9,-13.7,8.5,4.5,11.5,11.0,5.5,1.0,0.5,0.5,0.0,1.25,1.5,0.0,1.25,0.02,0.27,1.14,787.33,-19.2,55.0
1.08,0.0,0.0,0.0,0.0,0.0,0.0,0.0,0.0,2.5,2.75,0.0,2.25,1.0,-0.17,-0.3,0.64,75.44,-0.8,-78.0,7.75,2.75,11.0,9.0,5.5,1.0,0.25,0.5,0.0,0.0,0.25,0.0,0.0,0.02,0.33,1.2,727.42,-21.5,65.7
1.1,0.0,0.0,0.0,0.0,0.0,0.0,0.0,0.0,0.0,0.0,1.25,0.0,3.75,0.2,0.52,1.64,90.89,-7.8,-101.6,7.5,2.75,11.0,8.25,2.5,1.0,0.0,0.5,0.0,0.0,0.25,0.0,0.25,0.08,0.39,1.39,658.95,-23.7,65.7
1.12,0.0,0.0,0.0,1.75,0.0,0.0,0.0,0.0,1.0,6.0,0.0,3.75,0.0,-0.67,0.83,1.64,142.44,-1.3,-63.3,6.75,2.75,10.0,7.5,1.75,1.0,1.0,0.5,0.0,0.0,0.0,0.0,0.25,0.33,0.52,1.64,559.04,-24.1,66.2
1.14,0.0,0.0,0.0,1.5,0.0,0.0,0.0,4.75,2.0,6.5,0.0,3.75,5.75,-0.23,0.14,1.14,230.99,-7.3,-70.3,4.5,1.75,8.25,5.0,0.25,2.5,1.0,0.5,0.0,0.0,0.0,0.0,0.25,0.27,1.08,2.39,434.16,-22.5,62.3
1.16,0.0,0.0,0.0,0.5,0.0,0.5,0.25,6.0,3.0,7.25,6.0,3.75,5.5,-0.17,0.02,0.89,339.06,-4.8,-71.1,2.75,0.0,6.75,3.0,0.0,0.75,0.75,0.5,0.0,0.0,0.0,0.0,0.25,0.2,1.7,2.77,304.17,-27.1,58.2
1.18,0.0,0.0,0.0,0.25,0.0,1.25,0.5,6.5,3.5,7.25,6.75,4.25,5.75,-0.23,0.02,0.95,462.95,-4.7,-69.7,0.5,0.0,5.75,1.0,1.25,1.25,0.75,0.75,0.0,0.0,1.0,0.25,1.0,-0.11,0.77,2.39,220.91,-16.9,26.2
1.2,0.25,1.0,0.0,0.5,0.0,1.5,0.75,6.75,3.75,7.25,7.25,4.75,5.75,-0.17,0.02,0.95,581.3,-3.4,-62.6,0.75,0.0,3.75,0.75,1.5,1.25,0.5,1.0,0.25,1.25,0.0,0.5,0.5,0.27,-0.17,1.83,145.99,-10.3,19.5
1.22,2.0,0.75,2.25,1.0,0.0,1.5,1.0,7.0,4.25,7.25,7.25,4.75,5.75,-0.17,-0.05,0.95,678.66,0.4,-49.0,1.75,0.25,3.0,1.0,1.25,1.5,1.0,1.25,0.0,0.0,1.25,0.0,0.5,0.7,-0.17,1.45,102.35,-12.9,30.5
1.24,3.0,1.0,3.0,3.25,0.0,2.0,1.0,7.0,4.5,6.5,7.0,4.5,5.5,-0.17,-0.05,0.95,749.81,2.7,-36.1,0.5,0.0,2.0,0.75,0.0,1.0,0.25,0.75,0.0,0.0,0.75,0.0,0.5,0.27,-0.86,1.83,54.42,-12.4,17.5
1.26,3.75,1.0,3.75,3.75,5.0,2.0,1.0,6.75,4.5,6.5,6.0,3.75,5.0,-0.17,0.02,0.95,826.32,3.1,-19.7,1.75,0.0,2.75,2.0,1.75,1.0,0.5,0.75,0.0,1.0,1.0,0.5,0.75,0.33,-0.61,1.02,64.57,-11.4,20.6
1.28,3.75,1.0,4.0,4.0,5.0,2.0,1.0,6.5,4.0,5.5,5.75,2.75,3.75,-0.17,0.02,0.95,857.05,4.1,-13.0,1.5,0.25,2.5,1.5,1.75,1.0,0.5,0.75,0.0,1.0,1.0,0.25,1.0,0.33,-0.42,0.52,78.93,-9.8,18.4
1.3,4.5,1.25,5.5,4.75,3.25,2.0,1.0,6.0,3.5,4.5,5.0,2.25,3.0,-0.17,0.02,0.95,846.86,7.0,-4.4,1.25,0.25,2.75,1.5,1.75,1.0,0.5,1.0,0.25,1.25,1.25,0.0,0.5,0.2,-0.36,0.45,106.85,-9.9,19.6
1.32,5.25,1.5,5.5,5.75,5.25,2.0,1.0,5.75,3.0,4.25,3.75,1.75,2.0,-0.17,0.02,0.95,820.35,7.7,8.0,1.5,0.25,2.25,1.5,1.75,1.0,0.75,0.75,0.25,1.25,1.0,0.25,0.75,0.14,-0.23,0.52,132.81,-9.4,17.3
1.34,5.25,2.0,6.25,6.0,5.5,1.75,1.0,5.25,2.5,3.25,3.0,1.5,1.75,-0.17,0.02,0.95,789.07,9.2,15.9,1.25,0.25,2.75,1.25,1.75,1.0,0.5,0.75,0.0,1.25,1.0,0.5,0.75,0.14,-0.17,0.58,154.35,-9.7,15.3
1.36,5.75,2.25,6.5,6.75,4.5,2.0,1.0,5.25,2.0,2.5,2.25,1.5,1.25,-0.17,0.08,0.95,742.44,10.6,22.6,1.5,0.25,2.75,0.75,1.75,1.0,0.25,0.5,0.0,1.5,1.25,0.25,0.75,0.02,-0.11,0.77,165.87,-9.7,14.9
1.38,6.25,2.25,7.25,7.5,5.0,1.75,1.0,4.75,2.0,2.5,1.75,0.75,1.0,-0.17,0.08,0.95,708.41,11.9,29.9,1.25,0.25,2.75,1.0,1.75,1.0,0.25,0.75,0.0,1.25,1.0,0.25,0.75,-0.05,-0.05,0.89,177.54,-9.3,16.8
1.4,7.0,2.5,7.25,7.75,5.75,2.0,1.0,4.5,1.5,2.5,1.5,0.5,1.0,-0.17,0.08,0.95,698.59,12.0,34.4,1.25,0.25,2.25,1.0,1.75,1.0,0.25,0.75,0.0,1.0,1.0,0.0,0.5,-0.11,0.02,1.08,180.55,-9.1,22.6
1.42,7.0,2.5,7.75,8.5,6.25,2.0,0.75,4.5,1.5,2.5,1.0,0.5,0.75,-0.17,0.08,0.95,704.74,12.3,37.3,1.25,0.0,2.5,0.75,2.25,1.0,0.25,0.75,0.0,1.25,1.0,0.25,0.5,-0.11,0.14,1.27,179.92,-8.3,17.7
1.44,8.0,3.75,8.5,9.5,0.0,2.0,0.5,3.5,1.0,1.75,0.0,0.5,0.75,-0.17,0.14,0.95,671.28,17.6,46.6,1.25,0.25,1.75,0.75,1.0,1.0,0.5,0.75,0.0,1.25,1.0,0.0,0.75,-0.11,0.27,1.52,170.05,-7.5,11.3
1.46,8.5,4.5,8.25,10.0,0.0,2.0,0.25,3.25,1.0,1.75,0.0,0.5,0.75,-0.17,0.14,1.02,648.26,17.7,48.8,1.25,0.0,2.0,0.75,1.75,1.25,0.25,0.75,0.0,1.25,1.0,0.25,1.0,-0.05,0.52,1.77,168.68,-6.0,8.6
1.48,8.5,5.0,8.25,10.5,0.0,2.0,0.25,3.25,1.0,1.25,0.0,0.5,0.75,-0.17,0.14,1.08,628.79,18.1,51.0,1.0,0.25,1.75,0.75,1.75,1.0,0.25,0.75,0.0,1.0,1.0,0.0,0.75,0.02,1.27,2.14,162.54,-6.3,14.8
1.5,8.5,5.5,8.5,11.0,0.0,1.5,0.25,3.0,0.5,1.25,0.0,0.5,0.75,-0.23,0.2,1.02,625.72,18.9,53.6,1.0,0.25,1.75,0.5,1.25,1.0,0.25,0.75,0.0,1.25,1.0,0.25,0.75,0.02,1.83,2.58,152.32,-6.1,6.1
1.52,8.5,5.25,7.75,11.0,0.0,1.25,0.0,2.75,0.5,1.5,0.0,0.5,0.75,-0.23,0.2,1.08,621.74,18.7,53.1,1.0,0.25,1.5,0.5,1.5,1.25,0.5,0.75,0.0,1.0,1.0,1.0,0.5,-0.11,2.7,2.08,150.04,-5.9,3.5
1.54,8.75,6.25,9.0,10.0,0.0,0.75,0.0,2.5,0.5,1.0,0.0,0.25,0.75,-0.23,0.2,1.14,622.17,20.6,58.1,1.25,0.25,2.0,0.5,1.75,1.0,0.25,0.75,0.0,2.0,1.0,0.5,0.75,0.08,3.83,1.08,156.83,-5.6,3.8
1.56,8.5,6.0,9.0,10.5,0.0,0.0,0.0,2.5,0.5,1.0,0.0,0.25,0.75,-0.23,0.27,1.14,612.17,21.3,58.0,1.25,0.25,2.0,0.75,1.75,1.0,0.25,0.75,0.0,1.25,1.0,0.5,0.75,0.14,4.7,-0.86,162.5,-7.2,10.2
1.58,8.0,6.5,0.0,10.0,0.0,0.0,0.0,1.75,0.25,1.0,0.0,0.5,0.5,-0.23,0.33,1.14,535.19,16.7,60.6,1.25,0.0,1.5,0.75,1.75,1.0,0.25,0.75,0.0,1.25,1.0,0.75,0.5,-1.36,4.83,-0.05,164.1,-6.1,5.8
1.6,7.5,0.0,0.0,9.5,0.0,0.0,0.0,1.75,0.5,0.75,0.0,0.5,0.75,-0.42,0.39,1.33,418.71,17.6,46.1,0.0,0.25,1.0,0.5,1.75,1.25,0.25,0.75,0.0,4.0,2.0,2.75,0.75,0.08,-0.23,0.7,182.77,1.2,-38.6
1.62,6.0,0.0,7.25,8.0,0.0,0.0,0.0,0.0,0.75,1.0,0.0,0.25,0.5,-0.61,0.39,1.64,346.42,25.6,54.3,1.25,0.25,2.75,0.5,1.25,1.0,0.25,2.25,0.0,6.25,4.25,3.5,5.0,-0.36,0.64,1.52,254.64,-0.2,-47.7
1.64,3.5,0.0,6.0,7.0,0.0,0.0,0.0,0.0,0.5,0.75,0.0,0.0,0.75,-0.73,0.58,1.95,282.31,24.5,51.1,0.0,0.25,0.5,0.5,1.75,1.25,0.25,4.75,0.75,7.25,7.0,4.0,6.0,0.14,0.89,2.83,350.21,4.6,-62.6
1.66,0.0,0.0,3.75,2.5,0.0,0.0,0.0,0.0,0.5,1.0,0.0,0.5,0.0,-0.73,1.33,2.7,204.0,22.1,28.0,2.0,0.25,0.0,2.0,2.25,3.5,0.5,5.5,1.0,8.25,7.0,5.25,5.75,0.14,0.2,1.08,494.4,3.3,-46.9
1.68,0.0,0.0,1.5,2.5,0.0,0.0,0.0,0.0,0.25,0.75,0.0,0.5,0.0,-0.67,1.02,2.89,120.03,17.6,22.1,2.0,0.75,3.0,2.25,2.5,3.75,0.75,6.75,1.75,8.75,8.5,5.5,6.0,0.14,0.14,0.95,665.75,0.4,-38.8
1.7,0.0,0.0,0.75,0.75,0.0,0.0,0.0,1.5,0.25,0.75,0.0,0.0,0.0,-0.3,0.02,1.95,33.72,2.2,-7.8,3.0,1.0,2.75,3.0,2.5,4.5,1.25,7.5,2.75,9.0,8.75,5.5,6.0,0.14,0.14,0.95,823.11,-0.1,-34.2
1.72,0.0,0.0,0.0,0.0,0.0,0.0,0.0,0.0,0.0,0.0,0.0,0.0,0.0,-0.36,-1.42,1.2,0.0,0.0,0.0,3.0,1.0,5.25,3.25,3.75,5.5,1.5,8.0,3.25,8.75,9.0,5.5,6.0,0.2,0.14,0.95,968.24,-1.4,-26.8
1.74,0.0,0.0,0.0,0.0,0.0,0.0,0.0,0.0,0.0,0.0,0.0,0.0,0.0,-0.42,-0.92,2.64,0.0,0.0,0.0,3.0,1.5,5.25,3.25,4.5,5.5,1.75,8.0,3.25,8.5,8.75,5.25,6.0,0.2,0.08,0.95,1073.56,-1.5,-23.9
1.76,0.0,0.0,0.0,0.0,0.0,0.0,0.0,0.0,0.0,0.0,0.0,0.0,0.0,-0.23,-0.48,1.14,0.0,0.0,0.0,3.0,1.75,6.0,4.75,5.25,5.75,1.75,8.0,3.25,8.25,8.5,4.75,5.5,0.2,0.08,0.95,1159.36,-2.3,-17.6
1.78,0.0,0.0,0.0,0.5,0.0,0.0,0.0,0.0,0.0,0.75,0.0,0.0,0.0,-0.48,-0.55,0.27,0.0,-2.1,-20.6,3.0,1.75,6.75,5.5,5.75,6.25,1.75,7.75,3.25,7.5,7.75,4.0,4.75,0.27,0.14,0.95,1201.65,-3.0,-11.3
1.8,0.0,0.0,0.0,0.0,0.0,0.0,0.0,0.0,0.0,0.5,0.0,0.0,0.0,-0.48,-0.48,0.27,0.0,-15.7,-75.5,3.5,1.75,6.75,5.5,6.0,6.5,1.75,7.5,2.75,6.75,7.0,3.0,3.5,0.27,0.14,0.95,1196.47,-3.5,-4.5
1.82,0.0,0.0,0.0,0.25,0.0,0.0,0.0,0.0,0.25,0.75,0.0,0.25,0.0,-0.36,-0.55,0.52,0.0,-1.3,-51.9,4.0,2.0,6.75,6.25,6.75,6.5,1.5,7.25,2.0,5.5,5.75,2.5,2.5,0.27,0.14,0.95,1149.48,-4.3,4.5
1.84,0.0,0.0,0.0,1.25,0.0,0.0,0.0,0.0,0.25,1.0,0.0,0.0,0.5,-0.42,-0.17,0.52,0.0,0.9,-21.4,3.75,2.0,6.75,7.25,7.25,6.5,1.25,6.75,2.0,4.25,4.25,1.75,2.25,0.2,0.14,0.95,1070.03,-4.7,11.8
1.86,0.0,0.0,0.0,0.25,0.0,0.0,0.0,0.0,0.0,0.0,0.0,0.0,0.0,-0.48,-0.05,0.58,0.0,17.2,57.9,4.25,2.5,6.75,7.25,7.5,6.5,1.0,6.25,1.5,2.75,4.25,1.25,1.75,0.2,0.14,0.95,982.18,-5.8,19.2
1.88,0.0,0.0,0.0,0.25,0.0,0.0,0.0,0.0,0.0,0.5,0.0,0.0,0.0,-0.48,0.02,0.83,0.0,-4.3,-29.6,4.5,2.75,6.75,7.5,7.5,6.5,1.0,5.75,1.5,2.75,2.75,1.25,1.25,0.2,0.14,0.89,909.0,-6.3,24.6
1.9,0.0,0.0,0.0,0.25,0.0,0.0,0.0,0.0,0.0,0.75,0.0,0.0,0.0,-0.55,0.08,0.95,4.1,-7.1,-40.9,4.5,2.5,7.25,9.0,8.0,6.75,0.75,5.5,1.0,2.75,2.0,1.25,1.0,0.2,0.14,0.89,864.98,-6.7,28.9
1.92,0.0,0.0,0.0,0.0,0.0,0.0,0.0,0.0,0.0,0.0,0.0,0.0,0.0,-0.73,0.27,1.14,4.24,0.0,0.0,4.5,3.0,7.5,9.0,8.5,7.0,0.75,5.0,0.75,2.25,2.0,1.0,1.25,0.2,0.14,0.95,841.49,-6.9,31.9
1.94,0.0,0.0,0.0,0.0,0.0,0.0,0.0,0.0,0.0,0.0,0.0,0.0,0.0,-0.73,0.89,1.27,2.75,0.0,0.0,5.25,3.25,7.75,10.0,8.5,7.0,0.75,5.0,0.75,1.75,2.25,1.0,1.25,0.2,0.14,0.95,850.1,-7.9,34.2
1.96,0.0,0.0,0.0,0.0,0.0,0.0,0.0,0.0,0.0,0.25,0.0,0.0,0.0,-0.67,1.58,1.33,4.13,-15.7,-75.5,5.25,3.5,7.75,10.5,8.75,6.5,0.75,5.0,0.75,2.0,2.0,1.0,1.25,0.2,0.2,0.95,867.39,-8.1,34.8
1.98,0.0,0.0,0.0,0.5,0.0,0.0,0.0,0.0,0.0,0.0,0.0,0.0,0.0,-0.73,2.27,1.33,4.37,17.2,57.9,5.25,4.0,7.5,11.0,9.5,7.25,0.75,4.75,0.5,1.5,1.25,0.75,1.0,0.14,0.2,0.95,892.56,-7.9,40.1
2.0,0.0,0.0,0.0,0.25,0.0,0.0,0.25,0.0,0.25,1.0,0.0,0.0,0.0,-0.48,3.27,1.14,10.48,-2.6,-40.8,5.5,4.0,8.0,11.0,9.75,7.0,0.5,3.75,0.25,1.0,2.0,0.75,1.0,0.14,0.2,0.95,908.49,-8.9,41.9
2.02,0.0,0.0,0.0,0.5,0.0,0.0,0.0,0.0,0.0,0.0,0.0,0.0,0.0,-0.23,3.77,0.52,11.08,17.2,57.9,5.5,4.0,8.0,10.5,10.0,7.25,0.25,3.75,0.25,1.25,1.5,0.75,1.0,0.14,0.2,0.95,920.7,-8.5,42.3
2.04,0.0,0.0,0.0,0.0,0.0,0.0,0.0,0.0,0.0,0.0,0.0,0.0,0.0,2.33,6.02,1.33,8.56,0.0,0.0,5.5,3.0,8.0,10.5,11.0,6.75,0.25,3.75,0.0,0.0,1.5,0.0,0.75,0.14,0.2,1.02,910.39,-9.1,47.6
2.06,0.0,0.0,0.0,0.0,0.0,0.0,0.0,0.0,0.0,1.25,1.0,0.5,0.0,0.45,5.2,0.58,19.62,-1.7,-81.7,4.5,3.25,7.5,11.0,9.75,7.25,0.25,2.75,0.0,0.0,0.25,0.0,0.0,0.14,0.2,1.08,866.0,-9.3,54.0
2.08,0.0,0.0,0.0,0.0,0.0,0.0,0.0,2.0,0.5,1.75,0.0,0.0,0.5,-0.05,-0.11,1.02,42.63,-13.0,-59.9,4.0,4.25,7.0,10.5,9.75,6.25,0.0,2.25,0.0,0.0,0.0,0.0,0.0,0.14,0.27,1.2,808.93,-9.6,56.6
2.1,0.0,0.5,0.0,1.75,0.0,0.0,0.0,2.5,0.75,1.75,0.0,0.5,0.5,-0.17,0.02,0.95,82.1,-2.9,-25.3,3.25,3.75,6.75,10.0,9.75,6.0,0.0,2.25,0.0,0.0,0.0,0.0,0.0,0.2,0.33,1.2,744.54,-9.1,55.5
2.12,0.0,0.0,0.0,0.0,0.0,0.0,0.0,0.0,0.0,2.25,0.0,0.25,0.0,-0.17,-0.05,0.89,84.13,-13.2,-78.9,3.0,3.25,5.5,9.0,9.75,4.5,0.0,1.25,0.0,0.0,0.0,0.25,0.0,0.33,0.33,1.33,661.47,-9.5,56.6
2.14,0.0,0.0,1.0,3.25,0.0,0.75,0.25,3.5,1.5,0.0,1.0,0.5,0.75,-0.23,0.2,0.95,128.35,3.9,-9.4,2.0,2.75,2.75,7.5,8.75,5.0,0.0,1.0,0.0,0.0,0.0,0.0,0.0,0.39,0.33,1.64,551.06,-5.9,56.1
2.16,2.75,2.5,4.0,4.0,0.0,1.25,0.25,4.0,1.5,2.25,0.75,0.5,0.75,-0.17,0.08,0.95,215.05,10.0,19.0,1.25,2.5,2.75,6.0,8.25,4.0,0.0,0.5,0.0,0.0,0.0,0.0,0.0,0.33,0.39,1.83,439.62,-6.1,57.1
2.18,3.75,2.5,5.5,6.25,0.0,1.25,0.25,4.25,1.25,2.25,0.5,0.5,0.75,-0.17,0.08,0.95,306.53,12.6,27.7,0.5,1.0,2.5,3.75,6.25,3.5,0.0,0.5,0.0,0.0,0.0,0.0,0.0,0.14,0.64,2.14,326.44,-4.5,53.1
2.2,5.25,3.75,6.5,8.0,5.25,1.5,0.25,4.0,1.25,1.0,0.25,0.5,0.75,-0.17,0.08,0.95,455.63,12.7,43.2,0.5,0.25,1.25,3.0,2.5,3.25,0.0,0.5,0.0,0.0,0.0,0.0,0.0,0.27,1.08,2.02,228.4,-2.9,49.2
2.22,6.25,3.75,7.25,7.75,6.5,1.5,0.25,3.25,1.0,0.75,0.0,0.5,0.75,-0.17,0.08,1.08,601.21,13.9,48.6,0.5,0.0,1.5,1.5,2.25,3.5,0.0,0.5,0.0,0.0,0.0,0.0,0.0,0.2,0.58,1.77,139.56,-0.9,46.3
2.24,7.25,5.0,7.75,8.75,0.0,1.0,0.25,3.25,1.0,1.0,0.0,0.5,0.75,-0.23,0.14,1.14,678.24,18.6,50.4,1.25,0.0,0.5,2.25,1.5,2.75,0.0,1.0,0.0,1.5,1.0,0.0,0.0,0.08,0.14,1.27,84.76,-0.5,20.1
2.26,2.0,0.0,7.5,0.0,0.0,0.0,0.0,2.5,0.0,0.0,0.0,0.5,0.75,-0.17,0.14,1.08,539.42,23.4,31.2,1.25,0.0,0.25,2.0,2.25,2.25,0.0,0.75,0.0,1.0,1.0,0.0,0.0,0.14,-0.3,1.33,58.41,-1.0,26.0
2.28,8.25,5.5,0.0,8.75,0.0,0.0,0.0,2.5,0.5,1.0,0.0,0.0,0.75,-0.17,0.2,1.08,487.64,15.9,57.4,1.25,0.0,1.75,2.0,2.25,2.25,0.0,1.0,0.0,1.25,1.0,0.0,0.0,0.14,-0.23,1.39,69.27,-4.8,26.9
2.3,8.75,6.0,0.0,8.75,0.0,0.0,0.0,1.5,0.5,1.0,0.0,0.5,0.25,-0.23,0.2,1.14,432.26,17.8,62.5,1.25,0.0,2.5,2.0,2.5,1.75,0.25,1.0,0.0,1.0,1.0,0.0,0.0,0.02,-0.48,1.14,92.39,-8.1,31.1
2.32,8.5,6.0,8.0,9.0,0.0,0.0,0.0,1.5,0.5,0.75,0.0,0.0,0.0,-0.23,0.27,1.14,480.17,23.2,66.7,1.25,0.0,1.75,2.0,2.5,1.25,0.25,1.0,0.0,1.0,1.0,0.0,0.25,0.02,-0.55,0.77,110.4,-7.0,26.2
2.34,0.0,5.0,8.5,7.75,0.0,0.0,0.0,1.5,0.0,0.0,0.0,0.0,0.0,-0.23,0.33,1.08,448.37,21.8,61.8,1.25,0.0,2.0,1.75,1.75,1.25,0.25,1.0,0.0,1.25,1.0,0.0,0.5,0.08,-0.23,0.52,123.76,-7.2,19.3
2.36,9.0,5.0,0.0,7.75,0.0,0.0,0.0,0.0,0.0,0.0,0.0,0.0,0.0,-0.23,0.39,1.02,418.64,23.0,83.1,1.25,0.0,0.75,1.25,1.75,1.25,0.5,1.0,0.0,1.5,1.0,0.25,0.5,0.08,0.02,0.33,131.75,-2.9,7.6
2.38,9.75,0.0,9.25,7.25,0.0,0.0,0.0,1.75,0.0,1.0,0.0,0.0,0.0,-0.17,0.39,0.89,387.11,26.5,61.0,1.25,0.0,1.75,1.5,1.75,1.25,0.25,0.75,0.0,1.25,1.0,0.25,0.5,0.08,0.58,0.33,143.73,-6.9,16.0
2.4,9.0,0.0,8.0,0.0,0.0,0.0,0.0,0.0,0.0,0.0,0.0,0.0,0.0,-0.11,0.52,0.89,317.56,36.6,79.6,1.0,0.0,1.25,1.25,1.75,1.25,0.25,0.75,0.0,1.0,1.0,0.0,0.5,0.02,0.89,-0.11,146.55,-4.9,16.1
2.42,10.0,0.0,9.0,7.25,0.0,0.0,0.0,0.0,0.0,0.75,0.0,0.0,0.5,-0.17,0.58,0.83,324.64,28.8,65.7,1.25,0.0,1.5,1.25,1.25,1.25,0.25,0.75,0.0,1.0,1.0,0.0,0.5,0.14,1.33,-0.3,152.34,-6.9,17.0
2.44,8.5,0.0,8.0,8.25,0.0,0.0,0.0,0.0,0.25,1.25,0.0,0.0,0.0,-0.17,0.64,0.89,327.23,27.5,63.6,1.25,0.0,1.5,1.0,2.25,1.25,0.5,1.25,0.0,1.0,1.0,0.0,0.5,0.14,1.45,-0.67,160.07,-4.9,17.5
2.46,9.0,0.0,6.75,7.25,0.0,0.0,0.0,0.0,0.25,0.25,0.0,0.0,0.25,-0.05,0.64,0.52,344.58,28.9,68.7,1.25,0.0,1.25,1.25,1.25,1.25,0.25,0.75,0.0,1.25,1.0,0.25,0.5,0.14,1.33,-0.55,157.52,-5.6,10.6
2.48,8.5,0.0,7.25,7.75,0.0,0.0,0.0,0.0,0.25,0.75,0.0,0.25,0.0,0.02,0.77,0.45,352.0,28.1,64.9,0.25,0.0,1.0,0.75,1.0,1.0,0.0,1.0,0.0,0.0,1.0,0.5,0.5,0.64,4.7,-7.48,138.58,-3.7,0.3
2.5,8.0,0.0,7.75,7.75,0.0,0.0,0.25,0.0,0.5,0.0,0.0,0.5,0.25,0.08,0.83,0.45,364.85,28.7,63.7,0.25,0.0,0.0,0.5,1.0,0.75,0.0,0.25,0.0,0.0,0.0,0.0,0.0,-0.42,1.83,-4.23,100.2,2.4,45.1
2.52,0.0,0.0,6.5,7.75,0.0,0.0,0.25,0.0,0.25,0.75,0.0,0.0,0.0,0.14,1.02,0.58,304.13,24.5,51.1,0.5,0.0,0.0,0.75,0.5,1.25,0.0,0.5,0.0,0.0,0.0,0.0,0.0,0.02,1.45,-0.61,67.11,2.1,40.7
2.54,0.0,0.0,7.25,7.5,0.0,0.0,0.5,0.0,0.5,0.75,0.0,0.0,0.0,0.08,0.89,0.45,272.01,25.1,50.0,0.5,0.0,1.0,0.75,2.25,1.0,0.25,0.5,0.25,0.0,0.0,0.25,0.0,-0.23,1.45,-0.98,63.27,-5.7,39.2
2.56,0.0,0.0,6.5,7.5,0.0,0.0,0.75,0.0,0.25,0.0,0.0,0.0,0.0,0.02,0.83,0.2,238.6,26.7,56.9,1.5,0.0,2.0,1.5,2.25,1.75,0.75,0.75,0.25,1.25,1.25,0.0,0.5,1.14,0.39,-1.05,107.96,-7.1,20.4
2.58,0.0,0.0,6.5,7.5,0.0,0.0,1.0,0.0,0.25,0.0,0.0,0.0,0.0,0.14,1.08,0.14,226.33,26.8,56.7,0.0,0.0,0.0,0.5,0.0,0.75,0.0,0.5,0.0,0.0,0.0,0.0,0.0,0.77,0.33,-0.61,91.71,9.0,20.2
2.6,3.75,0.0,6.0,7.0,0.0,0.0,1.0,0.0,0.25,0.0,0.0,0.0,0.0,0.14,1.02,0.08,224.73,28.4,64.7,0.25,0.0,0.0,0.5,0.0,0.75,0.0,0.5,0.0,0.0,0.0,0.0,0.0,0.27,0.27,-0.05,73.61,3.7,29.4
2.62,2.75,0.0,5.75,6.0,0.0,0.0,1.0,0.0,0.0,0.25,0.0,0.5,0.0,0.14,1.08,-0.17,223.82,27.5,57.2,0.25,0.0,0.25,0.5,2.5,1.0,0.25,0.5,0.0,0.0,1.0,0.0,0.5,-0.11,1.02,-0.3,65.56,0.7,15.8
2.64,2.0,0.0,5.5,6.0,0.0,0.0,0.75,0.0,0.25,0.0,0.0,0.25,0.0,0.08,0.83,-0.36,222.75,27.7,58.9,0.5,0.0,0.0,0.5,0.5,1.0,0.0,0.0,0.0,0.0,0.0,0.0,0.0,-0.3,0.95,0.02,50.16,-0.7,55.3
2.66,1.75,0.0,4.0,4.75,0.0,0.0,0.5,0.0,0.25,0.25,0.0,0.0,0.0,-0.17,0.89,-0.42,193.1,26.8,59.0,0.25,0.0,0.5,0.5,0.0,2.0,0.0,0.0,0.0,1.25,0.0,0.25,0.0,0.02,1.14,0.2,51.14,5.0,5.8
2.68,0.0,0.0,3.75,4.25,0.0,0.0,0.5,0.0,0.25,0.0,0.0,0.5,0.0,-0.3,0.95,-0.48,165.02,25.7,46.8,0.25,0.0,0.0,0.5,0.0,0.5,0.0,0.0,0.0,0.0,0.0,0.0,0.0,0.2,1.33,0.14,37.8,-5.1,56.3
2.7,0.0,0.0,2.75,3.75,0.0,0.0,0.25,0.0,0.25,1.0,0.0,0.25,0.0,-0.36,1.83,0.02,134.4,20.2,34.7,0.0,0.0,0.0,0.5,0.25,0.75,0.0,0.25,0.0,0.0,0.0,0.0,0.0,0.7,1.77,-0.36,33.42,6.9,34.0
2.72,0.0,0.0,1.25,2.25,0.0,0.0,0.0,0.0,0.25,0.0,0.0,0.0,0.5,-0.11,3.83,-0.05,93.12,19.4,33.8,0.25,0.0,0.0,0.25,0.0,0.5,0.0,0.25,0.0,0.0,0.0,0.0,0.0,1.08,3.64,-0.3,18.41,1.9,36.4
2.74,0.0,0.0,0.0,1.0,0.0,0.0,0.0,0.0,0.25,0.0,0.0,0.0,0.0,0.52,2.64,1.14,48.06,16.2,39.5,0.25,0.0,0.0,0.25,0.0,0.25,0.0,0.25,0.0,0.0,0.0,0.0,0.0,-0.3,3.52,1.02,12.54,-3.1,37.0
2.76,0.0,0.0,0.0,1.25,0.0,0.0,0.0,0.0,0.25,0.75,0.0,0.0,0.25,0.45,0.02,1.45,21.11,3.9,-7.2,0.25,0.0,0.25,0.5,0.0,0.5,0.0,0.25,0.0,0.0,0.0,0.0,0.0,-0.8,2.58,1.27,8.22,-6.9,43.3
2.78,0.0,0.0,0.0,0.25,0.0,0.0,0.0,0.0,0.0,0.0,0.0,0.0,0.0,0.33,-2.3,-0.98,0.0,17.2,57.9,0.25,0.0,0.25,0.5,0.0,0.0,0.0,0.0,0.0,0.0,0.0,0.0,0.0,-1.23,-1.8,-0.55,3.62,-26.6,67.8
2.8,0.0,0.0,0.0,0.0,0.0,0.0,0.0,0.0,0.25,0.75,0.0,0.0,0.0,-0.86,-1.8,-1.8,0.0,-8.7,-66.3,0.25,0.0,0.0,0.5,0.0,1.0,0.0,0.0,0.0,0.0,0.25,0.0,0.0,0.08,-1.36,-0.36,9.93,0.9,34.5
2.82,0.0,0.0,0.0,0.0,0.0,0.0,0.0,0.0,0.25,0.25,0.0,0.0,0.0,-0.05,-0.61,-0.61,0.0,-1.8,-57.1,0.25,0.0,0.25,0.5,0.0,0.75,0.0,0.5,0.0,0.0,0.0,0.0,0.0,1.39,-3.3,0.02,24.37,-1.0,33.1
2.84,0.0,0.0,0.0,0.0,0.0,0.0,0.0,0.0,0.25,0.75,0.0,0.0,0.0,0.52,0.95,0.14,0.0,-8.7,-66.3,0.25,0.0,0.25,0.5,0.0,1.0,0.0,0.25,0.0,0.0,0.0,0.0,0.0,0.52,-2.48,0.58,28.22,-0.5,41.3
2.86,0.0,0.0,0.0,1.75,0.0,0.0,0.0,0.0,0.5,1.0,0.0,0.0,0.5,0.83,2.52,-0.67,0.0,3.8,-11.7,0.25,0.0,0.0,0.0,0.0,0.0,0.0,0.25,0.0,0.0,0.0,0.5,0.0,0.33,-0.55,0.64,22.16,-8.5,-42.2
2.88,0.0,0.0,0.0,0.5,0.0,0.0,0.0,0.0,0.0,0.75,0.0,0.0,0.0,0.27,1.7,0.33,0.0,-2.1,-20.6,1.0,0.25,0.0,0.5,1.25,0.25,0.25,0.5,0.0,0.0,1.0,0.25,0.5,0.64,2.33,0.02,48.38,-6.2,10.3
2.9,0.0,0.0,0.0,0.0,0.0,0.0,0.0,0.0,0.25,0.75,0.0,0.0,0.0,0.64,1.02,-0.61,5.25,-8.7,-66.3,0.0,0.0,0.0,0.0,0.0,0.25,0.0,0.5,0.0,0.0,0.0,0.0,0.0,0.08,3.7,-0.73,39.8,18.7,-15.4
2.92,0.0,0.0,0.25,1.0,0.0,0.0,0.0,0.0,0.25,1.0,0.0,0.0,0.5,0.2,0.95,0.45,17.36,2.6,-21.2,0.25,0.0,0.0,0.0,0.0,0.25,0.0,0.25,0.0,0.0,0.0,0.0,0.0,-0.3,2.89,-0.86,36.52,1.9,29.4
2.94,0.0,0.0,0.25,2.0,0.0,0.0,0.0,0.0,0.25,1.0,0.0,0.0,0.0,0.27,0.95,1.08,34.26,9.2,14.4,0.25,0.0,0.0,0.0,0.0,0.0,0.0,0.0,0.0,0.0,0.0,0.0,0.0,-0.42,1.89,-0.48,19.54,-34.9,97.9
2.96,0.0,0.0,0.0,1.5,0.0,0.0,0.0,0.0,0.0,0.0,0.0,0.0,0.0,0.14,0.95,1.08,39.35,17.2,57.9,1.0,0.0,0.0,0.25,0.0,1.0,0.0,0.0,0.0,0.0,0.0,0.0,0.5,0.14,1.39,0.14,25.11,-3.2,30.9
2.98,0.0,0.0,0.0,0.25,0.0,0.0,0.25,0.0,2.5,0.5,0.0,0.0,0.0,-0.23,1.14,0.7,48.79,9.1,-34.2,0.25,0.0,0.25,0.0,0.0,0.25,0.25,0.5,0.0,0.0,0.0,0.0,0.0,0.14,1.45,0.45,21.55,-6.0,22.6
3.0,0.5,0.0,0.0,1.25,0.0,0.0,4.5,0.0,2.25,0.5,0.0,0.0,0.0,-0.17,1.2,0.27,70.15,19.2,8.5,0.0,0.0,0.0,0.0,0.0,0.25,0.0,0.0,0.0,0.0,0.0,0.0,0.0,-0.05,1.58,0.7,17.92,22.9,34.0
3.02,0.0,0.0,0.0,1.5,0.0,0.0,4.5,0.0,2.5,0.5,0.0,0.0,0.0,0.08,1.27,0.08,90.86,17.7,2.5,0.0,0.0,0.0,0.0,0.0,0.5,0.0,0.5,0.0,0.0,0.0,0.0,0.0,-0.23,1.2,0.27,14.95,19.7,-3.3
3.04,0.0,0.0,0.0,0.0,0.0,0.0,5.25,0.0,2.5,0.0,0.0,0.0,0.0,0.2,1.27,-0.17,97.08,22.3,-5.2,0.25,0.0,0.0,0.0,0.0,0.0,0.0,0.25,0.0,0.0,0.0,0.0,0.0,-0.11,1.08,0.02,8.18,-8.2,27.2
3.06,0.0,0.0,0.0,0.0,0.0,0.0,5.0,0.0,2.5,0.0,0.0,0.0,0.0,0.33,1.27,-0.17,96.84,22.1,-6.0,0.0,0.0,0.0,0.0,0.0,0.25,0.0,0.5,0.0,0.0,0.0,0.0,0.0,0.02,1.02,-0.55,5.86,18.7,-15.4
3.08,0.0,0.0,0.0,1.25,0.0,0.0,5.25,0.0,2.75,0.0,0.0,0.0,0.0,0.33,1.33,-0.17,99.88,20.9,6.1,0.25,0.0,0.0,0.0,0.0,1.0,0.0,0.25,0.0,0.75,0.0,0.25,0.0,-0.17,0.83,-0.42,14.81,11.2,-15.9
3.1,1.25,0.0,0.0,1.25,0.0,0.0,4.75,0.0,2.5,0.25,0.0,0.0,0.0,0.39,1.27,-0.17,107.91,21.8,18.5,0.0,0.0,0.75,0.0,1.25,0.0,0.25,0.5,0.0,0.0,0.0,0.0,0.0,-0.36,0.64,-0.36,28.62,-7.1,38.1
3.12,0.5,0.0,0.0,1.25,0.0,0.0,4.0,0.0,1.75,0.25,0.0,0.0,0.0,0.39,1.14,-0.17,110.54,20.8,15.6,0.0,0.0,0.0,0.0,1.25,0.0,0.25,0.5,0.0,1.0,1.0,0.75,0.5,-0.3,0.58,-0.48,50.87,2.8,-42.6
3.14,0.0,0.0,0.0,1.5,0.0,0.0,4.0,0.0,3.0,0.25,0.0,0.0,0.0,0.33,1.14,-0.3,113.46,18.1,1.5,0.75,0.25,0.0,0.5,1.25,1.0,0.25,0.5,0.0,1.25,1.0,0.5,0.5,-0.23,0.64,-0.55,85.49,0.7,-7.8
3.16,0.5,0.0,0.0,1.5,0.0,0.0,4.25,0.0,3.0,0.0,0.0,0.0,0.0,0.27,1.14,-0.36,113.39,20.6,11.1,0.25,0.0,0.25,0.5,1.5,1.0,0.25,0.5,0.0,1.25,1.0,0.75,0.5,-0.3,0.77,-0.61,109.24,1.8,-16.4
3.18,1.5,0.0,0.5,1.5,0.0,0.0,5.0,0.0,2.75,0.0,0.0,0.0,0.0,0.33,1.08,-0.48,123.74,24.0,25.6,0.5,0.25,0.0,0.5,0.0,1.0,0.0,0.5,0.0,1.0,0.25,0.75,0.0,-0.36,0.95,-0.55,109.32,1.6,-13.1
3.2,0.0,0.0,0.0,0.5,0.0,0.0,4.25,0.0,3.25,0.0,0.0,0.0,0.0,0.39,1.08,-0.48,116.85,19.7,-6.5,0.75,0.25,0.5,0.5,1.75,1.0,0.25,0.5,0.0,1.0,1.0,0.5,0.5,-0.23,1.02,-0.55,121.97,-1.8,2.3
3.22,0.0,0.0,1.0,0.0,0.0,0.0,5.25,0.0,2.75,0.0,0.0,0.0,0.0,0.39,1.08,-0.42,111.38,24.6,4.3,0.75,0.25,0.25,0.5,1.25,1.0,0.25,0.5,0.0,2.25,1.0,0.75,0.5,-0.23,0.95,-0.48,133.57,1.0,-16.0
3.24,0.0,0.0,0.0,0.75,0.0,0.0,4.25,0.0,2.75,0.0,0.0,0.0,0.0,0.33,1.02,-0.36,98.16,20.3,-0.6,0.75,0.25,0.5,0.5,1.25,1.0,0.25,0.5,0.0,1.25,1.0,0.5,0.5,-0.17,0.89,-0.3,141.97,-1.6,-3.5
3.26,0.0,0.0,0.0,1.25,0.0,0.0,4.0,0.0,3.5,0.0,0.0,0.0,0.0,0.2,0.89,-0.05,98.08,18.9,-0.7,0.5,0.25,0.5,0.5,1.5,1.0,0.25,0.5,0.0,1.0,1.0,0.5,0.5,-0.17,0.77,-0.23,143.1,-1.0,-2.2
3.28,0.0,0.0,0.0,0.0,0.0,0.0,4.25,0.0,3.0,0.0,0.0,0.0,0.0,0.08,0.83,0.02,89.48,20.4,-11.7,1.25,0.25,0.5,0.5,1.25,1.0,0.25,0.5,0.0,1.25,1.0,0.25,0.5,-0.23,0.7,-0.17,144.86,-3.2,5.1
3.3,1.25,0.0,0.0,1.5,0.0,0.0,4.25,0.0,3.25,0.0,0.0,0.0,0.0,0.02,0.83,0.08,100.66,21.6,17.2,0.75,0.25,0.0,0.5,1.75,1.0,0.25,0.5,0.0,1.25,1.0,0.25,0.5,-0.3,0.7,-0.17,139.68,1.2,-0.3
3.32,0.25,0.0,0.0,0.25,0.0,0.0,5.0,0.0,3.75,0.0,0.0,0.0,0.0,-0.05,0.77,0.08,99.87,20.5,-5.9,0.75,0.25,0.25,0.5,0.5,1.75,0.25,0.75,0.0,0.75,1.0,0.75,0.5,-0.23,0.7,-0.3,132.82,0.4,-8.5
3.34,1.5,0.0,0.25,1.75,0.0,0.0,5.25,0.0,3.75,0.0,0.0,0.0,0.0,0.02,0.7,0.08,120.28,22.3,19.0,0.75,0.25,0.5,0.5,1.5,1.0,0.25,0.5,0.0,1.0,1.0,0.5,0.5,-0.17,0.7,-0.36,130.42,-2.0,0.6
3.36,1.25,0.0,0.0,1.25,0.0,0.0,4.75,0.0,3.5,0.0,0.0,0.0,0.0,0.08,0.64,0.02,127.15,21.8,14.5,0.5,0.25,0.0,0.5,1.0,1.0,0.25,0.75,0.0,1.25,1.0,0.25,0.5,-0.17,0.7,-0.42,121.81,2.7,-11.3
3.38,2.0,0.0,1.0,2.5,0.0,0.0,5.0,0.0,3.25,0.25,0.0,0.75,0.0,0.14,0.64,-0.05,153.03,22.2,19.6,1.0,0.25,0.5,0.5,1.75,1.0,0.25,0.5,0.0,1.0,1.0,0.5,0.5,-0.17,0.7,-0.42,124.27,-2.7,4.9
3.4,1.5,0.0,2.0,1.5,0.0,0.0,4.5,0.0,3.25,0.0,0.0,0.0,0.0,0.2,0.64,-0.11,162.17,25.3,27.8,0.75,0.25,0.5,0.5,1.0,1.0,0.25,0.5,0.0,1.0,1.0,0.5,0.5,-0.17,0.77,-0.42,122.2,-2.4,-3.3
3.42,0.5,0.0,0.25,0.0,0.0,0.0,4.0,0.0,2.75,0.0,0.0,0.0,0.0,0.27,0.7,-0.17,146.45,22.6,1.7,0.75,0.25,0.0,0.5,1.0,1.0,0.25,0.5,0.0,1.25,1.0,0.75,0.5,-0.17,0.77,-0.42,121.47,0.3,-13.4
3.44,0.5,0.0,0.0,0.0,0.0,0.0,4.0,0.0,2.75,0.0,0.0,0.0,0.0,0.33,0.77,-0.3,123.21,21.8,-1.2,1.0,0.25,0.0,0.5,1.5,1.0,0.25,0.5,0.0,1.25,1.0,0.75,0.5,-0.17,0.77,-0.42,119.35,-0.4,-5.8
3.46,0.0,0.0,0.0,0.0,0.0,0.0,4.0,0.0,2.75,0.0,0.0,0.0,0.0,0.39,0.83,-0.42,95.67,20.5,-11.2,0.75,0.25,0.25,0.5,1.0,1.0,0.25,0.5,0.0,1.0,1.0,0.5,0.5,-0.23,0.83,-0.42,117.32,-1.1,-5.5
3.48,0.0,0.0,0.0,0.0,0.0,0.0,3.75,0.0,2.5,0.0,0.0,0.0,0.0,0.52,0.89,-0.55,75.9,20.7,-10.7,0.5,0.25,0.5,0.5,1.0,1.0,0.25,0.5,0.0,1.25,1.0,0.75,0.5,-0.3,0.89,-0.42,117.72,-1.1,-11.9
3.5,0.0,0.0,0.0,0.0,0.0,0.0,4.0,0.0,2.75,0.0,0.0,0.0,0.0,0.52,1.02,-0.61,64.74,20.5,-11.2,0.75,0.25,0.5,0.5,0.0,1.0,0.5,0.75,0.0,1.25,1.0,0.75,0.5,-0.3,0.95,-0.36,113.97,-2.7,-18.9
3.52,0.0,0.0,0.0,0.0,0.0,0.0,4.0,0.0,2.5,0.0,0.0,0.0,0.0,0.52,1.02,-0.73,61.11,21.0,-9.7,1.0,0.25,0.25,0.5,1.0,1.0,0.25,0.75,0.0,1.5,1.0,0.25,0.5,-0.3,1.02,-0.42,116.5,-0.3,-4.7
3.54,0.0,0.0,0.0,0.0,0.0,0.0,4.0,0.0,2.5,0.0,0.0,0.0,0.0,0.45,1.02,-0.67,55.76,21.0,-9.7,0.75,0.25,0.25,0.5,0.25,1.0,0.25,0.5,0.0,1.0,1.0,0.5,0.5,-0.23,1.08,-0.48,109.89,-1.7,-13.4
3.56,0.0,0.0,0.0,0.0,0.0,0.0,4.25,0.0,3.0,0.0,0.0,0.0,0.0,0.39,0.95,-0.55,56.73,20.4,-11.7,0.5,0.0,0.5,0.0,0.0,0.0,0.25,0.5,0.0,0.0,1.0,0.0,0.5,-0.23,1.08,-0.55,87.71,-11.3,-22.2
3.58,0.0,0.0,0.0,0.0,0.0,0.0,4.25,0.0,3.0,0.0,0.0,0.0,0.0,0.33,0.89,-0.42,57.48,20.4,-11.7,0.0,0.0,0.0,0.0,0.0,0.0,0.0,0.0,0.0,0.0,0.0,0.0,0.0,-0.3,1.02,-0.61,48.72,0.0,0.0
3.6,0.0,0.0,0.25,0.25,0.0,0.0,4.0,0.0,2.75,0.0,0.0,0.0,0.0,0.27,0.89,-0.3,62.99,21.2,-4.1,0.0,0.0,0.0,0.0,0.0,0.0,0.0,0.5,0.0,0.0,0.0,0.5,0.0,-0.3,1.02,-0.55,20.59,3.9,-74.2
3.62,0.25,0.0,0.0,0.0,0.0,0.0,4.0,0.0,3.0,0.0,0.0,0.0,0.0,0.27,0.89,-0.3,66.16,20.8,-7.6,0.5,0.25,0.25,0.5,0.5,1.0,0.25,0.5,0.0,1.25,1.0,0.5,0.5,-0.3,1.02,-0.55,32.19,0.2,-16.6
3.64,0.0,0.0,0.0,0.25,0.0,0.0,3.75,0.0,2.75,0.0,0.0,0.0,0.0,0.2,0.83,-0.23,71.82,20.0,-8.4,0.5,0.25,0.25,0.5,0.25,1.0,0.25,0.5,0.0,1.25,1.0,0.5,0.5,-0.3,0.95,-0.48,53.96,0.0,-19.7
3.66,1.25,0.0,0.25,0.0,0.0,0.0,4.0,0.0,3.0,0.0,0.0,0.0,0.0,0.2,0.83,-0.23,84.77,23.6,10.8,0.5,0.25,0.5,0.5,1.5,1.0,0.25,0.75,0.0,1.25,1.0,0.5,0.5,-0.3,0.89,-0.48,87.93,0.0,-5.4
3.68,0.0,0.0,0.0,0.25,0.0,0.0,0.0,0.0,2.75,0.0,0.0,0.0,0.0,0.2,0.89,-0.23,73.89,12.6,-30.1,0.5,0.25,0.5,0.5,1.5,1.0,0.25,0.5,0.0,1.0,1.0,0.5,0.5,-0.3,0.89,-0.42,107.27,-1.0,-2.2
3.7,0.75,0.0,0.0,0.0,0.0,0.0,4.25,0.0,3.0,0.0,0.0,0.0,0.0,0.2,0.89,-0.23,79.01,22.2,1.7,0.75,0.25,0.0,0.5,0.5,1.0,0.25,0.5,0.0,1.0,1.0,0.5,0.5,-0.23,0.89,-0.36,112.72,-0.1,-13.3
3.72,1.25,0.0,0.25,0.25,0.0,0.0,4.75,0.0,3.0,0.0,0.0,0.0,0.0,0.27,0.89,-0.23,87.45,23.8,13.4,0.5,0.25,0.0,0.5,0.5,1.0,0.5,0.5,0.0,1.25,1.0,1.0,0.5,-0.17,0.89,-0.36,111.36,0.4,-25.0
3.74,0.5,0.0,0.25,0.0,0.0,0.0,4.25,0.0,3.0,0.0,0.0,0.0,0.0,0.27,0.89,-0.3,93.21,22.4,0.5,0.5,0.25,0.25,0.5,1.0,1.0,0.25,0.5,0.0,1.25,1.0,0.25,0.5,-0.11,0.83,-0.36,112.24,0.7,-7.7
3.76,0.75,0.0,0.0,1.0,0.0,0.0,4.5,0.0,3.0,0.0,0.0,0.0,0.0,0.27,0.89,-0.3,101.33,21.6,10.7,0.5,0.25,0.5,0.5,0.5,1.0,0.25,0.5,0.0,1.0,1.0,0.25,0.5,-0.11,0.83,-0.36,111.82,-1.5,-7.9
3.78,0.25,0.0,0.75,0.0,0.0,0.0,4.25,0.0,3.0,0.0,0.0,0.0,0.0,0.33,0.95,-0.36,102.06,23.2,1.9,0.5,0.25,0.0,0.5,0.25,1.0,0.25,0.5,0.0,1.25,1.0,0.5,0.5,-0.11,0.83,-0.36,110.57,1.6,-22.9
3.8,1.0,0.0,0.0,0.0,0.0,0.0,4.25,0.0,2.75,0.0,0.0,0.0,0.0,0.33,0.95,-0.36,99.68,23.1,7.4,0.75,0.25,0.5,0.5,0.5,1.0,0.25,0.5,0.25,1.25,1.0,0.75,0.5,-0.11,0.83,-0.42,116.96,-2.7,-14.3
3.82,1.25,0.0,0.0,1.0,0.0,0.0,4.25,0.0,2.75,0.0,0.0,0.0,0.0,0.33,0.95,-0.42,102.23,22.6,18.0,0.5,0.25,0.0,0.5,1.5,1.0,0.25,0.5,0.0,0.75,1.0,0.25,0.5,-0.17,0.83,-0.42,116.19,1.3,-0.4
3.84,0.0,0.0,1.0,0.0,0.0,0.0,3.5,0.0,0.0,0.0,0.0,0.0,0.0,0.27,0.89,-0.42,85.49,34.6,40.1,0.5,0.25,0.5,0.5,1.0,1.0,0.25,0.5,0.0,1.0,1.0,0.5,0.5,-0.17,0.83,-0.42,114.65,-1.4,-6.5
3.86,0.0,0.0,0.0,0.0,0.0,0.0,0.0,0.0,0.0,0.0,0.0,0.0,0.0,0.27,0.89,-0.36,54.04,0.0,0.0,0.75,0.25,0.25,0.5,0.5,1.0,0.25,0.5,0.0,1.25,1.0,0.5,0.5,-0.17,0.83,-0.48,109.18,-0.9,-12.8
3.88,0.0,0.0,0.0,0.0,0.0,0.0,0.0,0.0,0.0,0.0,0.0,0.0,0.0,0.27,0.89,-0.36,21.67,0.0,0.0,0.75,0.0,0.5,0.5,1.0,1.0,0.25,0.5,0.0,1.25,1.0,0.5,0.5,-0.17,0.89,-0.48,111.69,-1.4,-9.1
3.9,0.0,0.0,0.0,0.0,0.0,0.0,0.0,0.0,0.0,0.0,0.0,0.0,0.0,0.27,0.89,-0.36,0.0,0.0,0.0,0.5,0.25,0.0,0.5,0.5,1.0,0.25,0.5,0.0,1.25,1.0,0.5,0.5,-0.17,0.83,-0.48,106.1,1.6,-19.6
3.92,0.0,0.0,0.0,0.0,0.0,0.0,0.0,0.0,0.0,0.0,0.0,0.0,0.0,0.27,0.83,-0.36,0.0,0.0,0.0,0.5,0.25,0.0,0.5,1.25,1.0,0.25,0.5,0.0,1.25,1.0,0.5,0.5,-0.17,0.83,-0.48,108.83,1.8,-11.1
3.94,0.0,0.0,0.0,0.0,0.0,0.0,0.0,0.0,0.0,0.0,0.0,0.0,0.0,0.27,0.83,-0.3,0.0,0.0,0.0,0.5,0.0,0.5,0.75,0.0,1.0,0.25,0.75,0.0,1.25,1.25,0.25,0.5,-0.17,0.83,-0.42,106.43,-1.1,-20.6
3.96,0.0,0.0,0.0,0.0,0.0,0.0,0.0,0.0,0.0,0.0,0.0,0.0,0.0,0.27,0.89,-0.3,0.0,0.0,0.0,0.5,0.25,0.5,0.5,1.0,1.0,0.25,0.5,0.0,1.25,1.0,1.0,0.5,-0.17,0.83,-0.42,111.75,-1.3,-14.8
3.98,0.0,0.0,0.0,0.0,0.0,0.0,0.0,0.0,0.0,0.0,0.0,0.0,0.0,0.27,0.89,-0.3,0.0,0.0,0.0,0.5,0.25,0.25,0.5,1.0,1.0,0.25,0.5,0.0,1.25,1.0,0.5,0.5,-0.23,0.83,-0.42,112.43,0.4,-11.1
4.0,0.0,0.0,0.0,0.0,0.0,0.0,0.0,0.0,0.0,0.0,0.0,0.0,0.0,0.27,0.95,-0.3,0.0,0.0,0.0,0.5,0.25,0.0,0.5,1.0,1.0,0.25,0.5,0.0,1.25,1.25,0.25,0.5,-0.23,0.89,-0.42,113.44,1.7,-12.5
4.02,0.0,0.0,0.0,0.0,0.0,0.0,0.0,0.0,0.25,0.0,0.0,0.0,0.0,0.27,0.95,-0.36,0.0,12.1,-38.5,0.5,0.25,0.25,0.5,1.25,1.0,0.25,0.5,0.0,0.75,1.0,0.5,0.5,-0.23,0.89,-0.42,111.81,-0.4,-4.1
4.04,0.0,0.0,0.0,0.0,0.0,0.0,0.0,0.0,0.25,0.0,0.0,0.0,0.0,0.27,1.02,-0.3,0.0,12.1,-38.5,0.5,0.25,0.75,0.5,1.25,1.0,0.25,0.5,0.0,1.25,1.0,0.5,0.5,-0.23,0.89,-0.42,115.31,-1.8,-4.4
4.06,0.0,0.0,0.5,0.25,0.0,0.0,0.25,0.0,0.25,0.0,0.0,0.5,0.0,0.2,1.02,-0.3,2.34,21.6,-8.7,0.5,0.25,0.5,0.5,1.5,1.0,0.25,0.5,0.0,1.25,1.0,0.5,0.5,-0.23,0.89,-0.36,120.02,-0.5,-4.4
4.08,0.25,0.0,0.75,0.25,0.0,0.0,0.0,0.0,0.25,0.0,0.0,0.5,0.5,0.14,1.02,-0.3,21.4,16.8,-14.0,0.75,0.25,1.0,0.5,1.25,1.0,0.25,0.5,0.0,1.25,1.0,0.5,0.5,-0.3,0.89,-0.36,126.86,-3.8,0.2
4.1,0.25,0.0,0.75,0.25,0.0,0.0,0.25,0.0,0.25,0.0,0.0,0.5,0.5,0.14,1.02,-0.36,36.02,17.5,-12.2,1.0,0.25,0.75,0.5,1.25,1.0,0.25,0.75,0.0,1.0,1.0,0.5,0.5,-0.3,0.89,-0.36,132.02,-3.6,2.1
4.12,0.25,0.0,0.5,0.25,0.0,0.0,0.25,0.0,0.25,0.0,0.0,0.5,0.5,0.2,1.02,-0.3,42.32,15.3,-20.0,0.5,0.25,0.5,0.5,0.5,1.0,0.25,0.5,0.0,1.0,1.0,1.0,0.5,-0.3,0.95,-0.36,127.25,-2.2,-18.2
4.14,0.25,0.0,0.5,0.25,0.0,0.0,0.0,0.0,0.25,0.0,0.0,0.5,0.5,0.27,0.95,-0.3,44.38,14.4,-22.6,0.5,0.25,0.25,0.5,0.5,1.0,0.25,0.5,0.0,1.25,1.0,0.5,0.5,-0.3,0.95,-0.42,119.14,0.2,-16.6
4.16,0.25,0.0,0.5,0.25,0.0,0.0,0.0,0.0,0.25,0.0,0.0,0.5,0.5,0.27,0.95,-0.3,43.71,14.4,-22.6,0.5,0.25,0.0,0.5,1.25,1.0,0.25,0.5,0.0,1.0,1.0,0.5,0.5,-0.3,0.95,-0.36,112.24,1.4,-8.9
4.18,0.25,0.0,0.5,0.25,0.0,0.0,0.0,0.0,0.25,0.0,0.0,0.5,0.5,0.33,0.89,-0.3,42.53,14.4,-22.6,0.5,0.25,0.25,0.5,1.25,1.0,0.25,0.5,0.0,1.0,1.0,0.75,0.5,-0.23,0.95,-0.42,111.41,-0.2,-9.8
4.2,0.25,0.0,0.25,0.25,0.0,0.0,0.0,0.0,0.25,0.25,0.0,0.5,0.5,0.39,0.89,-0.3,42.02,8.3,-37.9,0.5,0.25,1.5,0.5,0.5,1.0,0.25,0.5,0.0,1.0,1.0,0.25,0.5,-0.23,0.95,-0.42,112.23,-6.4,1.3
4.22,0.0,0.0,0.5,0.25,0.0,0.0,0.0,0.0,0.25,0.0,0.0,0.5,0.5,0.33,0.89,-0.3,40.25,12.0,-36.4,0.5,0.0,0.25,0.75,0.0,1.0,0.5,0.75,0.0,1.5,1.25,0.0,0.5,-0.23,0.95,-0.42,109.05,0.6,-21.6
4.24,0.0,0.0,0.75,0.25,0.0,0.0,0.0,0.0,0.25,0.0,0.0,0.5,0.5,0.39,0.89,-0.3,39.28,15.0,-25.4,0.5,0.0,0.25,0.75,0.5,1.0,0.5,0.75,0.0,1.25,1.25,0.5,0.5,-0.17,0.95,-0.42,108.5,-0.2,-19.9
