time,left pressure 0[N/cm²],left pressure 1[N/cm²],left pressure 2[N/cm²],left pressure 3[N/cm²],left pressure 4[N/cm²],left pressure 5[N/cm²],left pressure 6[N/cm²],left pressure 7[N/cm²],left pressure 8[N/cm²],left pressure 9[N/cm²],left pressure 10[N/cm²],left pressure 11[N/cm²],left pressure 12[N/cm²],left acceleration X[g],left acceleration Y[g],left acceleration Z[g],left total force[N],left center of pressure X[mm],left center of pressure Y[mm],right pressure 0[N/cm²],right pressure 1[N/cm²],right pressure 2[N/cm²],right pressure 3[N/cm²],right pressure 4[N/cm²],right pressure 5[N/cm²],right pressure 6[N/cm²],right pressure 7[N/cm²],right pressure 8[N/cm²],right pressure 9[N/cm²],right pressure 10[N/cm²],right pressure 11[N/cm²],right pressure 12[N/cm²],right acceleration X[g],right acceleration Y[g],right acceleration Z[g],right total force[N],right center of pressure X[mm],right center of pressure Y[mm]
0.02,0.0,0.5,0.75,2.25,0.0,2.25,0.25,6.5,2.0,5.25,4.0,2.75,4.0,-0.17,-0.05,0.95,497.51,-4.1,-48.1,0.5,0.0,0.75,1.5,2.25,1.25,0.25,0.75,0.75,1.0,0.25,0.0,0.5,-0.73,3.14,1.08,149.85,-1.7,15.9
0.04,0.25,0.75,0.75,2.5,0.0,2.5,0.25,6.5,2.0,5.25,3.25,2.5,4.0,-0.17,0.02,0.95,430.24,-4.1,-43.0,0.0,0.0,0.0,0.0,0.5,0.0,0.25,0.0,0.0,0.0,0.0,0.0,0.0,-0.73,3.83,0.45,106.96,-2.8,49.0
0.06,0.25,0.75,1.25,2.5,0.0,2.5,0.5,6.5,2.0,4.25,2.75,1.5,3.0,-0.17,0.02,0.95,371.07,-3.1,-34.0,0.0,0.0,0.0,0.0,0.0,0.0,0.25,0.0,0.0,0.0,0.0,0.0,0.0,-0.55,4.33,-0.3,61.74,-32.4,27.3
0.08,0.0,0.75,2.5,2.5,2.0,3.25,0.75,6.25,1.75,4.0,1.75,1.5,2.25,-0.17,0.02,0.95,344.11,-2.0,-18.2,0.0,0.0,0.0,0.0,0.0,0.0,0.0,0.0,0.0,1.0,0.0,0.25,0.0,-2.98,6.14,2.33,24.01,10.8,-82.3
0.1,1.25,0.75,2.5,4.25,2.75,3.5,0.5,6.25,1.75,3.5,1.25,1.25,1.25,-0.17,0.02,0.95,341.46,0.4,-1.5,0.0,0.0,0.0,0.0,0.0,0.0,0.0,0.0,0.0,3.75,1.25,2.25,2.5,-0.05,-0.42,1.52,51.49,6.2,-92.4
0.12,1.25,0.75,3.0,4.75,0.0,4.5,0.75,6.25,1.5,2.25,0.0,1.25,1.5,-0.17,0.02,0.95,336.21,1.3,1.6,0.0,0.0,0.0,0.0,0.0,0.0,0.25,0.75,0.75,6.75,3.25,4.25,5.5,0.2,0.52,1.77,155.71,5.2,-88.2
0.14,2.75,1.5,4.25,6.5,0.0,4.75,0.75,6.0,1.0,2.25,0.25,0.5,1.25,-0.17,0.08,0.95,355.8,5.3,18.2,0.0,0.0,0.25,0.0,1.75,0.0,0.25,3.75,1.25,7.25,6.25,4.25,6.5,0.08,0.52,1.7,282.18,4.5,-71.8
0.16,3.0,2.25,5.5,8.0,7.5,5.25,0.5,5.75,1.0,2.25,0.0,0.5,1.0,-0.17,0.08,1.02,443.89,5.1,31.5,0.0,0.0,0.0,0.0,0.25,1.0,0.0,4.0,1.25,7.75,6.75,4.25,5.5,0.08,0.14,1.08,387.81,5.4,-75.7
0.18,4.5,3.25,6.25,9.0,8.25,5.5,0.5,5.5,0.5,1.5,0.0,0.5,0.75,-0.17,0.08,1.02,569.87,7.1,40.0,1.25,0.5,0.0,2.0,4.5,2.5,0.5,5.75,2.0,8.5,7.75,5.25,6.5,0.08,0.08,0.95,555.85,3.1,-45.8
0.2,5.75,3.75,6.75,9.0,8.25,5.5,0.25,4.75,0.25,1.25,0.0,0.5,0.25,-0.23,0.14,1.08,691.91,8.9,46.3,1.25,0.75,2.5,2.0,3.75,3.25,1.25,6.25,2.75,8.75,8.0,5.25,6.5,0.14,0.14,0.95,710.54,0.9,-39.9
0.22,5.75,4.0,7.25,10.5,0.0,4.75,0.25,4.25,0.25,0.75,0.0,0.5,0.5,-0.23,0.14,1.27,716.03,13.7,47.4,1.5,0.75,1.25,2.5,4.5,3.75,1.25,6.75,3.25,8.75,8.5,5.25,6.5,0.14,0.14,0.95,849.15,1.7,-39.0
0.24,5.5,5.0,7.25,10.5,0.0,4.25,0.0,3.5,0.25,0.75,0.0,0.5,0.25,-0.3,0.2,1.2,701.49,14.7,51.4,2.5,1.0,4.0,3.25,3.75,3.75,1.5,7.5,3.25,8.75,8.5,5.25,6.5,0.2,0.08,0.95,961.47,-0.9,-31.3
0.26,6.25,5.0,6.5,10.0,0.0,0.0,0.0,2.25,0.25,0.75,0.0,0.0,0.5,-0.3,0.2,1.2,621.47,20.4,59.0,2.75,1.0,5.25,3.5,5.0,3.75,2.0,7.5,3.5,8.5,8.25,4.75,6.0,0.2,0.08,0.95,1053.24,-2.1,-24.7
0.28,6.5,5.0,7.0,9.0,0.0,0.0,0.0,2.5,0.25,0.75,0.0,0.5,0.25,-0.36,0.27,1.27,562.3,20.7,57.4,3.0,1.0,5.75,4.0,4.5,3.75,2.0,7.5,3.25,8.0,7.75,4.25,5.5,0.2,0.08,0.95,1092.96,-2.8,-21.1
0.3,5.75,5.0,6.25,8.75,0.0,0.0,0.0,2.5,0.25,0.75,0.0,0.25,0.25,-0.48,0.33,1.52,505.5,20.0,57.7,3.25,1.0,6.25,4.5,5.25,4.0,2.25,7.0,3.25,7.25,7.25,3.0,5.0,0.2,0.08,0.95,1087.09,-3.6,-13.9
0.32,4.5,0.0,0.0,6.5,0.0,0.0,0.0,0.0,0.25,0.75,0.0,0.0,0.25,-0.61,0.39,2.02,367.39,20.5,57.9,3.75,1.0,6.5,4.75,5.25,4.0,2.25,6.75,2.75,6.75,6.0,2.25,4.0,0.2,0.14,0.95,1040.2,-4.4,-6.9
0.34,2.25,0.0,2.75,4.25,0.0,0.0,0.0,0.0,0.25,0.75,0.0,0.0,0.25,-0.86,1.27,2.7,262.46,23.1,50.9,4.0,1.0,7.0,5.0,5.0,4.75,2.25,6.25,2.75,6.0,5.25,1.5,3.25,0.2,0.14,0.95,969.1,-5.2,-0.2
0.36,1.0,0.0,2.5,0.5,0.0,0.0,0.0,1.25,0.25,0.0,0.0,0.0,0.25,-0.8,1.33,2.77,147.49,20.5,33.2,4.0,1.25,7.0,5.0,5.75,5.0,2.0,6.0,2.0,5.25,4.5,1.25,2.5,0.2,0.14,0.95,892.62,-5.4,6.3
0.38,0.0,0.0,0.25,1.75,0.0,0.0,0.0,1.75,0.5,0.0,0.0,0.0,0.25,-0.61,0.08,2.2,46.67,3.1,1.4,4.5,1.75,7.5,6.5,6.0,5.25,2.0,6.0,2.0,4.25,3.25,1.0,2.25,0.2,0.14,0.95,850.2,-6.6,15.1
0.4,0.0,0.0,0.0,0.0,0.0,0.0,0.0,0.0,0.0,0.0,0.0,0.0,0.0,-0.3,-1.42,1.27,0.0,0.0,0.0,5.0,2.0,8.0,6.75,6.25,5.75,1.75,5.25,1.5,3.5,2.5,0.75,1.75,0.2,0.14,0.95,818.8,-7.6,23.2
0.42,0.0,0.0,0.0,0.0,0.0,0.0,0.0,0.0,0.0,0.0,0.0,0.0,0.0,-0.3,-1.05,2.77,0.0,0.0,0.0,5.25,2.0,8.0,7.5,6.5,5.75,2.0,5.0,1.5,2.75,2.5,0.75,1.5,0.2,0.14,0.95,795.23,-8.4,26.7
0.44,0.0,0.0,0.0,0.0,0.0,0.0,0.0,0.0,0.0,0.0,0.0,0.0,0.0,-0.36,-0.86,1.52,0.0,0.0,0.0,5.75,2.5,8.75,8.5,6.75,5.75,1.75,4.0,1.25,2.5,1.5,0.5,1.5,0.2,0.14,0.95,792.64,-9.8,34.1
0.46,0.0,0.0,0.0,0.0,0.0,0.0,0.0,0.0,0.0,0.0,0.0,0.0,0.0,-0.55,-0.67,0.7,0.0,0.0,0.0,6.0,2.5,8.75,9.75,8.0,5.75,1.25,3.75,0.75,2.25,1.25,0.25,1.25,0.14,0.14,0.95,805.2,-10.0,39.0
0.48,0.0,0.0,0.0,0.0,0.0,0.0,0.0,0.0,0.0,0.0,0.0,0.0,0.0,-0.42,-0.61,0.39,0.0,0.0,0.0,7.0,2.0,9.25,10.0,8.0,5.75,1.25,2.75,0.75,1.0,1.25,0.0,1.25,0.14,0.2,0.95,810.47,-11.9,44.9
0.5,0.0,0.0,0.0,0.0,0.0,0.0,0.0,0.0,0.0,0.0,0.0,0.0,0.0,-0.36,-0.61,0.7,0.0,0.0,0.0,7.0,3.0,8.75,9.0,7.5,4.0,0.75,1.75,0.75,1.0,0.0,0.75,0.25,0.14,0.2,1.02,781.52,-14.0,52.0
0.52,0.0,0.0,0.0,0.0,0.0,0.0,0.0,0.0,0.0,0.0,0.0,0.0,0.0,-0.42,-0.48,0.83,0.0,0.0,0.0,6.75,0.75,9.25,9.25,7.5,3.75,0.5,1.0,0.25,0.5,0.0,0.0,0.0,0.14,0.2,1.08,720.65,-15.7,57.8
0.54,0.0,0.0,0.0,0.0,0.0,0.0,0.0,0.0,0.0,0.0,0.0,0.0,0.0,-0.36,-0.3,0.83,0.0,0.0,0.0,7.25,2.75,9.25,10.0,8.0,3.75,0.25,0.75,0.0,0.5,0.0,0.0,0.0,0.08,0.27,1.08,689.44,-15.7,61.2
0.56,0.0,0.0,0.0,0.0,0.0,0.0,0.0,0.0,0.0,0.0,0.0,0.0,0.0,-0.3,-0.11,0.83,0.0,0.0,0.0,7.5,3.25,9.5,10.0,8.0,1.25,0.25,0.75,0.0,0.0,0.0,0.0,0.0,0.08,0.27,1.08,662.48,-18.5,65.1
0.58,0.0,0.0,0.0,0.0,0.0,0.0,0.0,0.0,0.0,0.0,0.0,0.0,0.0,-0.36,0.02,1.02,0.0,0.0,0.0,7.75,3.5,10.0,10.0,7.75,0.0,0.25,0.75,0.0,0.0,0.0,0.0,0.0,0.08,0.27,1.08,651.63,-20.1,66.4
0.6,0.0,0.0,0.0,0.0,0.0,0.0,0.0,0.0,0.0,0.0,0.0,0.0,0.0,-0.42,0.14,1.2,0.0,0.0,0.0,7.75,3.25,10.5,10.0,7.75,1.25,0.25,0.0,0.0,0.0,0.0,0.0,0.0,0.02,0.33,1.08,648.67,-19.8,67.1
0.62,0.0,0.0,0.0,0.0,0.0,0.0,0.0,0.0,0.0,0.0,0.0,0.0,0.0,-0.55,0.27,1.45,0.0,0.0,0.0,7.75,3.5,9.5,10.0,7.25,1.25,0.25,0.0,0.0,0.0,0.0,0.0,0.0,0.02,0.33,1.14,639.71,-19.6,67.6
0.64,0.0,0.0,0.0,0.0,0.0,0.0,0.0,0.0,0.0,0.0,0.0,0.0,0.0,-0.61,0.33,1.83,0.0,0.0,0.0,7.5,3.75,9.25,8.5,7.0,1.25,0.25,0.0,0.0,0.0,0.0,0.0,0.0,0.08,0.45,1.2,616.74,-19.6,68.2
0.66,0.0,0.0,0.0,0.0,0.0,0.0,0.0,0.0,0.0,0.0,0.0,0.0,0.0,-0.86,0.77,2.2,0.0,0.0,0.0,7.0,3.25,8.75,8.5,6.5,3.0,0.25,0.0,0.75,1.0,0.0,0.25,0.0,0.14,0.52,1.39,604.58,-16.8,59.7
0.68,0.0,0.0,0.0,0.0,0.0,0.0,0.0,0.0,0.0,0.0,0.0,0.0,0.0,-1.11,1.27,2.52,0.0,0.0,0.0,6.25,2.5,8.25,6.75,6.75,2.75,0.75,0.5,0.75,1.0,0.0,0.25,0.5,0.2,0.83,1.95,580.28,-15.6,54.6
0.7,0.0,0.0,0.0,0.0,0.0,0.0,0.0,0.0,0.0,0.0,0.0,0.0,0.0,-1.17,2.08,2.27,0.0,0.0,0.0,2.75,0.25,5.75,3.0,3.5,1.0,0.5,0.0,0.0,0.0,0.0,0.0,0.0,0.08,1.64,2.64,434.89,-20.2,62.8
0.72,0.0,0.0,0.0,0.0,0.0,0.0,0.0,0.0,0.0,0.0,0.0,0.0,0.0,-1.11,3.39,1.83,0.0,0.0,0.0,1.25,0.0,2.75,2.0,0.5,0.75,0.25,0.0,0.0,0.0,0.0,0.0,0.0,-0.11,1.02,2.83,284.06,-22.8,62.2
0.74,0.0,0.0,0.0,0.0,0.0,0.0,0.0,0.0,0.0,0.0,0.0,0.0,0.0,-0.61,4.14,0.52,0.0,0.0,0.0,0.25,0.0,0.5,0.5,0.5,0.25,0.0,0.0,0.0,0.0,0.0,0.0,0.0,-0.05,0.33,2.02,138.76,-14.1,59.2
0.76,0.0,0.0,0.0,0.0,0.0,0.0,0.0,0.0,0.0,0.0,0.0,0.0,0.0,0.7,4.95,0.08,0.0,0.0,0.0,0.0,0.0,0.25,0.0,1.0,0.0,0.0,0.0,0.0,0.0,0.0,0.0,0.0,0.45,-1.42,1.7,7.19,-4.2,54.8
0.78,0.0,0.0,0.0,0.0,0.0,0.0,0.0,0.0,0.0,0.0,0.0,0.0,0.0,2.33,5.77,0.14,0.0,0.0,0.0,1.0,0.75,0.25,2.0,1.75,1.25,0.5,0.75,0.5,1.0,0.75,0.25,0.0,0.08,-1.05,3.02,0.0,-4.6,23.7
0.8,0.0,0.0,0.0,0.0,0.0,0.0,0.0,0.0,0.0,0.0,0.0,0.0,0.0,-0.61,-0.23,2.14,0.0,0.0,0.0,0.0,0.0,0.75,0.0,2.75,0.0,0.25,0.75,0.0,0.0,1.0,0.0,0.0,0.14,-0.61,0.95,0.0,-3.5,20.4
0.82,0.0,0.0,0.0,0.0,0.0,0.0,3.75,0.0,1.75,0.0,1.5,0.25,1.75,0.33,0.08,-0.05,40.0,10.3,-50.1,1.25,0.0,0.5,2.0,1.0,1.25,0.0,0.0,0.5,1.25,0.0,0.25,0.5,0.33,-0.61,0.58,0.0,-5.4,19.9
0.84,0.0,0.0,0.0,0.5,0.0,0.0,0.0,3.25,1.0,5.25,2.25,0.0,4.5,0.45,0.33,1.89,130.9,-9.2,-71.5,1.25,0.0,0.5,2.0,3.0,1.25,0.25,0.75,0.5,1.0,0.5,0.25,0.5,0.33,-0.55,0.58,30.34,-3.3,20.9
0.86,0.0,0.0,0.0,0.25,0.0,0.0,0.25,4.75,2.0,6.25,0.0,3.5,5.0,-0.61,0.7,2.02,229.76,-8.4,-75.6,0.25,0.0,0.25,2.0,0.0,1.25,0.25,0.0,0.75,1.25,0.0,0.25,0.0,0.27,-0.42,0.77,37.94,-3.6,8.6
0.88,0.0,0.0,0.0,1.0,0.0,0.75,0.25,5.5,3.0,6.5,5.75,4.5,5.25,-0.11,0.08,0.95,344.84,-3.9,-69.2,1.0,0.5,0.5,2.0,2.75,1.25,0.25,0.75,0.5,1.0,0.75,0.25,0.5,0.2,-0.23,0.77,75.22,-3.4,20.0
0.9,3.0,0.0,1.5,1.5,0.0,0.75,0.5,6.0,3.5,6.75,6.75,4.5,5.25,-0.11,0.08,0.95,482.49,1.2,-49.7,1.0,0.25,0.5,2.0,2.25,1.25,0.75,0.5,0.5,1.0,0.25,0.25,0.5,0.2,-0.11,0.83,103.52,-4.3,22.2
0.92,3.25,0.75,4.25,2.5,0.0,1.25,1.0,6.25,4.25,7.0,7.0,4.5,5.25,-0.17,0.02,0.95,631.43,4.1,-36.1,1.0,0.25,0.75,2.0,2.75,1.25,0.5,0.75,0.5,1.0,0.75,0.25,0.5,0.08,0.08,0.89,149.02,-4.2,19.3
0.94,4.5,1.0,5.25,3.5,0.0,1.25,1.0,6.5,4.75,6.75,7.0,4.5,5.0,-0.11,0.02,0.95,749.58,6.0,-27.8,0.5,0.0,0.0,2.0,2.5,1.0,0.5,0.5,0.75,1.0,0.5,0.25,0.5,0.08,0.2,1.08,170.81,-1.4,11.5
0.96,5.75,0.75,6.25,4.25,0.0,1.5,1.25,6.5,5.0,6.5,7.0,4.5,4.75,-0.11,0.02,1.02,850.75,7.5,-21.7,0.75,0.25,0.5,1.75,2.5,1.25,0.25,0.5,0.75,1.0,0.5,0.25,0.5,-0.05,0.33,1.39,184.18,-2.8,16.9
0.98,6.0,0.75,6.75,4.5,0.0,1.25,1.25,6.25,4.5,6.25,6.5,3.5,4.0,-0.11,0.02,0.95,894.84,8.6,-16.1,0.5,0.25,0.5,2.0,0.0,1.25,0.25,0.0,0.75,1.0,0.25,0.25,0.75,-0.05,0.45,1.64,165.29,-5.2,4.3
1.0,6.5,0.75,7.25,4.5,0.0,1.25,1.5,6.0,4.25,5.25,5.75,3.0,3.0,-0.11,0.02,0.95,894.05,10.3,-8.7,0.5,0.25,0.25,2.0,2.75,1.25,0.25,0.5,0.5,1.0,0.75,0.0,0.5,-0.11,1.27,2.14,160.95,-1.3,18.2
1.02,6.75,0.75,7.25,5.25,0.0,1.25,1.5,6.0,3.75,4.25,4.75,2.5,2.75,-0.11,0.02,0.95,856.01,11.3,-2.1,0.5,0.0,0.5,2.0,2.5,1.25,0.25,0.5,0.5,1.0,0.5,0.0,0.5,-0.23,1.77,2.45,152.78,-1.8,18.4
1.04,7.25,0.75,7.75,6.25,0.0,1.25,1.5,5.25,3.5,4.0,3.25,1.5,1.75,-0.11,0.02,0.95,796.26,13.3,9.8,0.5,0.25,0.25,1.75,1.0,1.25,0.25,0.5,0.5,1.0,0.5,0.0,0.5,-0.23,2.52,2.27,148.85,-1.7,11.0
1.06,7.25,0.75,8.0,6.5,0.0,1.25,1.5,5.0,3.0,3.0,3.0,1.5,1.5,-0.11,0.02,0.95,725.6,14.5,14.6,0.5,0.0,0.5,1.75,2.5,1.25,0.25,0.5,0.5,1.0,0.5,0.0,0.75,0.08,3.45,0.95,146.66,-1.1,14.2
1.08,7.5,0.75,8.0,6.5,0.0,1.25,1.5,4.75,2.75,2.5,2.0,1.25,0.75,-0.11,0.02,0.95,653.71,16.0,22.6,0.25,0.25,0.75,1.75,2.75,1.25,0.25,0.25,0.5,1.0,0.25,0.0,0.5,-0.11,3.7,-0.3,147.28,-2.0,23.4
1.1,7.75,1.0,8.5,7.75,0.0,1.25,1.25,4.5,1.75,2.25,1.5,0.5,0.25,-0.11,0.08,0.95,599.24,17.5,33.7,0.5,0.25,0.5,2.0,2.25,1.25,0.25,0.5,0.5,1.0,0.5,0.0,0.75,-1.48,3.64,0.27,153.57,-1.9,16.3
1.12,8.25,1.5,9.0,8.0,0.0,1.25,1.5,4.25,1.5,1.75,0.75,0.5,0.75,-0.11,0.08,0.95,562.54,18.4,38.3,0.0,0.0,0.5,0.0,1.75,0.0,0.5,0.5,0.0,0.0,0.5,0.0,0.5,-1.67,3.27,0.02,121.47,-2.4,7.9
1.14,8.75,2.0,9.25,9.25,0.0,1.5,1.25,3.5,1.0,0.75,0.0,0.5,0.25,-0.11,0.08,0.95,544.5,20.6,50.6,0.0,0.0,0.0,0.0,0.0,0.0,0.0,0.0,0.0,1.0,0.0,0.25,0.0,0.27,0.45,0.52,81.96,10.8,-82.3
1.16,9.25,2.5,9.75,10.5,0.0,1.5,1.25,3.5,0.75,0.75,0.0,0.5,0.25,-0.11,0.08,0.95,554.4,20.8,52.7,0.0,0.0,0.25,0.0,2.75,0.0,0.0,0.0,0.0,3.0,1.25,1.5,2.5,1.2,-0.3,0.2,94.8,4.8,-49.3
1.18,9.25,3.5,10.0,10.5,0.0,1.5,1.0,3.5,1.0,0.75,0.0,0.5,0.25,-0.11,0.08,0.95,579.74,20.6,53.4,0.5,0.0,0.0,0.0,0.5,0.0,0.0,0.25,0.5,6.75,3.0,4.5,5.0,0.14,0.52,2.08,173.88,4.2,-82.5
1.2,10.0,3.75,10.0,11.0,0.0,1.75,1.0,3.0,0.75,1.0,0.0,0.5,0.25,-0.17,0.14,1.02,615.78,20.8,55.2,0.0,0.0,0.0,0.0,0.25,0.0,0.0,2.75,1.25,8.5,7.5,5.5,6.5,0.08,0.58,2.08,292.33,4.0,-82.7
1.22,10.0,3.75,10.0,11.5,0.0,0.0,0.75,2.75,0.5,1.0,0.0,0.5,0.25,-0.17,0.14,1.08,636.09,22.8,57.4,0.0,0.25,0.25,1.25,3.0,1.25,0.0,5.25,1.75,8.75,7.75,5.5,6.25,0.14,0.14,1.14,450.5,3.9,-59.1
1.24,10.0,4.25,9.5,11.5,0.0,1.5,0.5,2.5,0.5,0.75,0.0,0.25,0.25,-0.17,0.14,1.02,653.33,21.4,59.5,1.25,0.75,0.5,2.0,0.0,2.75,0.0,5.25,2.5,8.75,8.25,6.0,6.5,0.08,0.08,0.95,611.19,2.2,-56.9
1.26,10.0,4.5,9.5,11.5,0.0,0.5,0.25,2.25,0.25,0.75,0.0,0.25,0.25,-0.17,0.2,1.08,652.04,22.7,61.7,1.25,0.75,2.0,2.5,3.75,2.75,1.5,6.5,3.25,9.5,9.5,6.0,7.5,0.14,0.14,1.02,789.95,0.8,-44.0
1.28,9.25,4.5,10.0,11.5,0.0,0.0,0.25,2.0,0.25,0.75,0.0,0.5,0.25,-0.23,0.2,1.2,645.58,23.4,60.9,2.0,0.75,3.5,2.0,4.25,2.75,1.5,7.0,3.5,9.75,9.75,6.25,7.75,0.14,0.14,0.95,943.23,-0.2,-40.4
1.3,7.25,0.0,9.75,11.0,0.0,0.0,0.25,1.75,0.0,0.25,0.0,0.0,0.0,-0.3,0.27,1.33,575.13,25.9,61.0,2.5,0.75,5.0,2.5,4.25,2.75,1.75,6.75,4.0,9.5,9.75,6.25,7.5,0.14,0.08,0.95,1068.58,-1.9,-35.5
1.32,9.25,4.0,0.0,9.0,0.0,0.0,0.0,1.75,0.0,0.0,0.0,0.0,0.0,-0.36,0.27,1.45,475.05,20.3,72.3,2.75,0.75,6.25,2.75,4.25,3.25,2.0,6.75,4.0,9.0,9.5,6.0,7.25,0.14,0.08,0.95,1146.55,-2.8,-31.0
1.34,0.0,3.75,8.5,8.25,0.0,0.0,0.0,1.75,0.0,0.5,0.0,0.0,0.0,-0.48,0.33,1.64,383.65,21.0,55.7,3.0,0.75,7.0,3.25,4.25,3.25,2.0,6.75,3.5,8.75,9.0,5.5,6.5,0.14,0.08,0.95,1173.89,-3.6,-26.4
1.36,8.0,0.0,8.0,8.0,0.0,0.0,0.0,1.75,0.25,0.5,0.0,0.0,0.0,-0.55,0.33,1.77,345.28,25.8,60.3,3.75,1.0,8.0,3.5,3.75,2.75,2.5,6.25,3.25,8.25,8.5,5.25,6.0,0.14,0.08,0.95,1160.9,-5.4,-21.8
1.38,0.0,0.0,7.25,4.5,0.0,0.0,0.0,0.0,0.0,0.0,0.0,0.0,0.0,-0.55,0.7,2.39,266.82,30.1,59.7,3.75,1.0,8.0,3.5,4.25,3.25,2.5,6.0,3.25,7.75,7.75,4.75,5.5,0.14,0.08,0.95,1112.92,-5.4,-18.0
1.4,0.0,0.0,4.5,1.5,0.0,0.0,0.0,0.0,0.0,0.0,0.0,0.5,0.0,-0.61,1.27,2.7,182.38,31.1,47.6,4.25,1.0,8.75,3.5,4.25,3.5,2.5,5.5,3.25,7.0,7.5,4.0,5.0,0.14,0.14,0.95,1048.99,-6.5,-12.7
1.42,0.0,0.0,4.25,0.5,0.0,0.0,0.25,0.0,0.25,0.75,0.0,0.0,0.0,-0.17,0.08,1.77,90.57,28.5,38.9,4.5,1.0,8.75,3.75,4.25,2.75,2.5,5.25,2.75,6.75,6.75,3.25,4.25,0.14,0.14,0.95,970.75,-7.4,-8.4
1.44,0.25,0.0,0.0,0.0,0.0,0.0,0.0,0.0,0.0,0.0,0.0,0.0,0.25,-0.42,-2.11,1.95,0.0,9.4,-11.0,5.0,0.75,9.25,4.5,4.5,3.0,2.5,5.0,2.75,6.25,6.5,3.0,3.5,0.14,0.14,0.95,912.41,-8.4,-3.1
1.46,0.0,0.0,0.0,0.0,0.0,0.0,0.0,0.0,0.0,0.0,0.0,0.0,0.0,-0.42,-1.11,2.14,0.0,0.0,0.0,5.25,1.0,9.5,4.5,4.25,3.5,2.75,5.0,2.75,6.0,6.0,3.0,3.25,0.14,0.14,0.95,872.81,-8.7,-0.3
1.48,0.0,0.0,0.0,0.0,0.0,0.0,0.0,0.0,0.0,0.0,0.0,0.0,0.0,-0.17,-0.98,0.64,0.0,0.0,0.0,5.75,1.0,10.5,4.75,4.5,3.75,3.0,4.75,2.25,5.5,5.5,2.25,2.5,0.14,0.14,0.95,849.34,-10.0,7.2
1.5,0.0,0.0,0.0,0.0,0.0,0.0,0.0,0.0,0.0,0.0,0.0,0.0,0.0,-0.42,-0.67,0.33,0.0,0.0,0.0,6.0,1.0,9.75,5.0,4.5,3.75,3.0,4.0,2.75,5.25,5.0,1.5,2.5,0.14,0.14,0.95,818.1,-10.3,10.1
1.52,0.0,0.0,0.0,0.0,0.0,0.0,0.0,0.0,0.0,0.0,0.0,0.0,0.0,-0.48,-0.67,0.33,0.0,0.0,0.0,6.5,1.25,11.0,5.75,4.75,3.75,3.0,4.0,2.5,4.25,4.5,1.5,2.25,0.14,0.14,0.95,814.36,-11.8,16.5
1.54,0.0,0.0,0.0,0.0,0.0,0.0,0.0,0.0,0.0,0.0,0.0,0.0,0.0,-0.42,-0.61,0.64,0.0,0.0,0.0,7.0,1.5,11.5,6.75,4.25,3.75,3.5,4.0,2.0,4.0,4.5,1.25,1.75,0.14,0.14,0.95,820.48,-12.9,21.2
1.56,0.0,0.0,0.0,0.0,0.0,0.0,0.0,0.0,0.0,0.0,0.0,0.0,0.0,-0.42,-0.42,0.7,0.0,0.0,0.0,7.25,1.75,11.5,6.75,5.25,3.75,3.5,4.0,2.0,4.0,3.5,1.0,1.5,0.14,0.14,0.95,837.02,-12.9,25.5
1.58,0.0,0.0,0.0,0.0,0.0,0.0,0.0,0.0,0.0,0.0,0.0,0.0,0.0,-0.42,-0.23,0.83,0.0,0.0,0.0,7.5,1.75,12.5,8.25,5.25,3.75,3.5,3.75,2.0,2.75,3.0,0.75,1.5,0.14,0.14,0.95,861.31,-14.4,31.4
1.6,0.25,0.0,0.0,0.0,0.0,0.0,0.0,0.0,0.0,0.0,0.0,0.0,0.25,-0.42,0.02,0.95,0.0,9.4,-11.0,7.75,2.0,12.5,8.5,5.5,3.75,3.25,3.5,1.5,2.75,2.5,0.5,1.5,0.14,0.14,0.95,879.52,-14.6,34.8
1.62,0.0,0.0,0.0,0.0,0.0,0.0,0.5,0.0,0.0,0.0,0.0,0.0,0.0,-0.48,0.14,1.27,0.0,32.4,27.3,7.5,2.25,13.0,9.5,6.25,3.75,3.0,2.5,1.0,2.25,2.0,0.5,1.0,0.08,0.14,0.95,891.02,-15.6,41.3
1.64,0.0,0.0,0.0,0.75,0.0,0.0,0.0,0.0,0.0,0.0,0.0,0.0,0.0,-0.55,0.2,1.39,0.0,17.2,57.9,8.0,2.0,13.0,10.0,6.5,3.75,2.5,2.5,1.0,2.0,1.25,0.25,1.0,0.08,0.14,1.02,895.13,-15.9,44.6
1.66,0.0,0.0,0.0,0.25,0.0,0.0,0.0,0.0,0.0,0.0,0.0,0.0,0.0,-0.73,0.39,1.95,1.95,17.2,57.9,8.0,1.75,12.5,10.0,6.25,3.75,1.5,2.25,0.75,1.25,1.25,0.25,0.5,0.08,0.2,1.08,874.99,-16.5,48.5
1.68,0.0,0.0,0.0,0.0,0.0,0.0,0.0,0.0,0.0,0.0,0.0,0.0,0.0,-0.92,0.52,2.33,6.45,0.0,0.0,7.25,1.5,11.5,8.25,6.5,2.0,1.0,1.5,0.25,0.5,1.25,0.0,0.75,0.08,0.2,1.27,798.07,-18.1,52.1
1.7,0.0,0.0,0.0,0.5,0.0,0.0,0.0,0.0,0.0,0.5,0.0,0.0,0.0,-1.17,1.08,2.45,9.56,1.1,-7.2,7.25,2.5,9.25,6.75,6.5,1.25,0.75,1.0,0.25,0.5,0.0,0.0,0.0,0.14,0.2,1.33,690.08,-18.8,61.8
1.72,0.0,0.0,0.0,1.0,0.0,0.0,0.0,0.0,0.0,0.5,0.0,0.0,0.0,-1.42,1.52,2.2,16.06,6.5,14.7,6.75,2.5,8.75,6.75,6.5,1.25,1.0,1.0,0.5,1.0,1.0,0.25,0.75,0.14,0.27,1.45,611.19,-17.0,50.9
1.74,0.0,0.0,1.0,0.5,0.0,0.0,0.0,0.0,0.0,0.0,0.0,0.0,0.25,-1.48,2.27,1.77,24.38,24.8,35.8,4.5,0.0,7.25,4.5,4.5,1.25,0.0,0.0,0.0,0.0,0.75,0.0,0.75,0.14,0.27,1.52,469.91,-19.2,54.3
1.76,0.0,0.0,1.0,0.75,0.0,0.0,0.0,0.0,0.0,0.75,0.0,0.0,0.25,-1.42,2.7,0.58,35.93,13.3,8.2,2.0,1.25,5.25,4.25,3.75,1.5,0.25,0.0,0.75,1.5,0.0,0.25,0.25,0.02,0.27,1.7,360.0,-14.1,45.4
1.78,0.0,0.0,0.75,0.0,0.0,0.0,0.0,0.0,0.0,0.0,0.0,0.0,0.0,0.14,3.45,0.52,33.64,38.2,60.9,2.0,1.0,4.75,2.25,3.5,0.75,0.5,0.75,0.0,0.0,0.25,0.0,0.5,0.02,0.64,2.14,266.53,-16.0,51.8
1.8,0.0,0.0,0.75,0.0,0.0,0.0,0.0,0.25,0.0,0.0,0.0,0.0,0.0,1.27,4.27,0.77,30.16,24.8,36.5,0.5,0.0,1.75,0.5,4.25,0.0,0.25,0.75,0.0,0.0,0.75,0.0,0.0,0.14,0.39,1.95,174.37,-8.2,39.5
1.82,0.0,0.0,0.0,0.0,0.0,0.0,0.0,0.0,1.25,1.5,0.0,0.25,0.0,1.27,4.27,0.77,35.49,-2.1,-63.1,1.25,0.0,2.25,0.0,3.5,0.0,0.0,0.75,0.0,1.0,1.0,0.0,0.5,-0.05,-1.17,2.02,100.45,-8.4,22.1
1.84,2.5,0.0,2.5,1.0,0.0,0.0,3.0,0.0,0.25,0.75,1.5,0.5,1.25,0.2,-0.36,1.7,89.07,20.5,9.7,1.25,0.0,1.75,2.0,3.75,1.25,0.0,0.75,0.75,1.0,1.25,0.0,0.5,-0.92,-1.36,2.2,81.21,-6.1,22.7
1.86,1.25,0.0,1.0,0.5,0.0,0.0,0.0,1.25,0.25,3.0,1.25,2.5,2.75,1.33,0.58,1.27,147.49,1.4,-54.7,1.25,0.0,1.25,2.0,3.25,1.25,0.25,0.75,0.75,1.0,0.75,0.0,0.5,-0.3,-1.05,0.52,82.69,-5.4,23.5
1.88,0.25,0.0,0.0,1.0,0.0,0.0,0.0,2.0,1.0,4.0,0.0,0.0,4.0,-0.3,0.39,2.08,190.2,-9.2,-63.5,1.25,0.0,1.5,2.0,3.25,1.25,0.5,0.75,0.75,1.0,1.0,0.25,0.75,-0.67,-0.92,0.52,102.4,-6.0,17.9
1.9,0.0,0.0,1.0,0.0,0.0,0.0,0.25,4.25,1.25,5.25,0.0,3.5,4.0,-0.23,0.45,1.33,244.48,-6.2,-70.7,1.0,0.0,0.5,2.0,3.5,1.25,0.25,0.75,0.5,1.0,1.0,0.25,0.5,-0.98,-0.67,0.89,118.44,-2.7,17.3
1.92,0.0,0.0,0.0,0.0,0.0,0.0,0.25,4.75,2.25,5.25,0.0,3.5,4.0,-0.23,0.02,0.89,281.29,-7.8,-75.1,1.25,0.25,0.5,2.0,3.5,1.25,0.25,0.75,0.5,1.0,1.25,0.0,0.5,-0.73,-0.23,0.95,136.66,-3.5,21.0
1.94,0.0,0.0,1.5,0.0,0.0,0.5,0.25,0.0,2.25,5.25,4.75,3.5,4.0,-0.17,0.08,0.95,316.83,0.9,-71.1,0.75,0.0,0.5,2.0,2.75,1.25,0.25,0.75,0.5,1.0,0.75,0.0,0.5,-0.61,0.64,0.58,137.7,-2.2,17.7
1.96,0.0,0.0,1.0,1.25,0.0,0.75,0.5,5.5,3.0,6.0,5.5,3.5,4.0,-0.23,0.02,1.02,380.65,-2.1,-60.2,1.25,0.0,0.0,2.0,1.0,1.25,0.25,0.0,0.25,1.0,0.75,0.0,0.5,-0.23,1.7,0.2,128.21,-4.6,17.6
1.98,0.0,0.25,1.5,1.0,0.0,0.75,0.5,5.75,3.0,5.5,5.75,3.5,4.0,-0.17,-0.05,0.95,441.8,-1.2,-57.6,0.0,0.0,0.0,0.0,0.5,0.0,0.0,0.0,0.0,0.0,0.0,0.0,0.0,7.27,7.95,-0.61,85.86,3.3,53.4
2.0,2.25,0.0,2.25,1.25,0.0,0.75,0.5,6.0,3.0,5.5,5.5,3.5,4.0,-0.17,-0.05,0.95,498.51,1.6,-45.3,0.0,0.0,0.0,0.0,0.5,0.0,0.0,0.75,0.0,0.75,0.0,0.0,0.0,0.52,2.83,1.64,45.79,12.6,-26.3
2.02,0.0,0.75,1.75,2.5,0.0,1.75,0.5,6.0,3.0,4.75,4.75,2.5,2.75,-0.17,0.02,0.95,507.04,-0.4,-40.2,1.0,0.0,0.5,2.0,1.0,1.0,0.25,0.5,0.5,1.0,0.75,0.25,0.5,1.95,0.58,-2.17,55.39,-5.6,9.6
2.04,4.5,0.75,3.0,3.25,0.0,2.0,0.5,5.75,2.5,4.5,4.0,2.5,2.5,-0.17,-0.05,0.95,521.57,5.3,-15.9,0.75,0.25,0.0,2.0,1.75,1.25,0.25,0.5,0.5,1.25,0.75,0.25,0.5,-1.05,0.39,1.58,85.43,-1.4,9.4
2.06,5.5,0.75,4.0,3.5,0.0,2.0,0.5,5.5,3.0,3.75,3.5,2.25,1.5,-0.17,0.02,0.95,519.23,8.3,-4.7,0.75,0.0,0.5,2.0,3.5,1.25,0.25,0.5,0.5,1.25,0.5,0.0,0.5,-0.67,0.02,0.08,123.18,-1.6,21.4
2.08,5.25,0.75,4.25,3.5,0.0,2.0,0.75,5.5,3.0,4.0,3.25,2.0,1.5,-0.17,0.02,0.95,520.38,8.3,-4.1,1.0,0.25,0.5,2.0,2.75,1.25,0.25,0.5,0.5,1.25,0.5,0.25,0.5,-0.11,0.02,-0.05,149.38,-3.0,19.5
2.1,6.0,0.75,4.5,3.25,0.0,1.75,0.75,5.5,2.75,3.75,3.25,1.5,1.5,-0.17,-0.05,0.89,518.67,9.3,0.0,0.25,0.25,0.5,2.0,3.0,1.25,0.25,0.5,0.5,1.25,0.75,0.25,0.5,0.2,0.33,-0.36,166.4,-1.1,13.6
2.12,7.0,1.0,5.5,4.5,2.0,2.0,0.75,5.25,2.75,2.5,3.0,1.5,1.5,-0.17,-0.05,0.95,544.2,11.0,13.0,0.5,0.0,0.25,1.75,3.0,1.25,0.25,0.5,0.5,1.25,0.25,0.25,0.5,0.52,0.39,-0.05,166.39,0.1,15.3
2.14,7.5,1.5,6.25,6.5,2.0,2.0,0.75,5.0,2.0,2.25,2.0,1.0,0.5,-0.17,0.02,0.95,564.11,13.2,27.4,0.5,0.25,0.0,1.75,2.5,1.25,0.25,0.75,0.25,1.0,0.25,0.25,0.75,0.52,0.64,0.14,165.13,1.2,13.1
2.16,7.75,2.25,6.75,7.0,0.0,1.5,0.75,4.75,2.25,1.75,1.25,0.5,0.25,-0.11,0.02,0.95,572.48,16.1,34.9,0.5,0.0,0.0,1.75,2.5,1.25,0.5,0.5,0.5,1.0,0.75,0.25,0.5,0.33,0.83,0.14,163.26,-0.3,9.9
2.18,8.25,2.25,7.25,7.75,0.0,1.0,0.5,3.5,1.75,1.5,0.75,0.5,0.25,-0.11,0.02,1.02,562.65,18.8,42.7,0.25,0.0,0.25,2.0,3.0,1.25,0.25,0.75,0.25,1.0,0.5,0.0,0.5,0.33,1.08,0.02,165.92,0.7,17.5
2.2,8.75,2.25,8.0,8.0,0.0,0.75,0.5,3.25,1.0,0.75,0.0,0.5,0.25,-0.11,0.02,1.02,539.86,21.0,51.6,0.5,0.0,0.5,1.75,3.75,1.25,0.25,0.75,0.5,1.0,0.25,0.0,0.5,0.33,1.08,-0.3,174.86,-0.2,22.7
2.22,9.25,2.5,8.25,8.5,0.0,0.75,0.5,2.5,1.0,0.75,0.0,0.25,0.25,-0.17,0.08,1.2,529.19,22.2,55.9,0.5,0.0,0.0,2.0,2.75,1.25,0.25,0.75,0.5,1.0,0.25,0.25,0.5,0.27,0.89,-0.36,175.46,0.5,15.0
2.24,9.25,2.5,8.75,8.0,0.0,0.0,0.0,1.75,0.5,0.75,0.0,0.25,0.25,-0.17,0.08,1.14,509.72,24.5,60.3,0.5,0.0,0.25,1.75,3.5,1.25,0.25,0.75,0.25,1.0,0.5,0.25,0.5,0.45,1.39,0.02,172.54,0.3,17.3
2.26,0.0,2.25,8.5,8.0,0.0,0.0,0.0,1.75,0.0,0.75,0.0,0.25,0.25,-0.11,0.08,1.14,435.42,20.7,47.5,0.5,0.0,0.0,1.25,3.75,1.25,0.25,0.75,0.5,1.0,0.5,0.25,0.5,1.64,3.52,0.02,165.28,1.8,14.0
2.28,9.0,2.0,0.0,8.0,0.0,0.0,0.0,1.75,0.5,0.75,0.0,0.25,0.25,-0.23,0.2,1.45,371.05,19.1,58.7,0.5,0.0,0.0,1.25,2.5,1.25,0.25,0.75,0.5,1.0,0.75,0.25,0.5,1.33,1.52,1.27,158.28,1.3,5.9
2.3,0.0,0.5,0.0,7.0,0.0,0.0,0.0,1.75,0.0,0.75,0.0,0.25,0.25,-0.3,0.27,1.45,270.72,8.3,27.2,0.5,0.25,1.0,1.75,3.5,1.25,0.0,0.5,0.5,1.0,0.5,0.25,0.5,0.77,-0.05,1.64,163.38,-2.6,21.7
2.32,0.0,0.25,0.0,6.5,0.0,0.0,0.0,1.75,0.5,0.25,0.0,0.0,0.25,-0.3,0.27,1.2,194.93,9.1,29.1,0.5,0.0,0.25,2.0,3.0,1.0,0.25,0.75,0.5,1.0,0.75,0.25,0.5,0.33,-0.11,-1.73,165.52,-1.2,12.7
2.34,0.0,0.0,8.25,0.0,0.0,0.0,0.0,0.0,0.0,0.0,0.0,0.0,0.25,-0.05,0.27,0.95,121.52,36.7,55.9,0.5,0.0,0.0,1.25,3.25,1.25,0.25,0.75,0.75,1.0,0.5,0.25,0.5,-0.17,-0.42,-2.05,166.68,1.4,10.6
2.36,7.75,0.0,0.0,0.0,0.0,0.0,0.0,0.0,0.25,0.5,0.0,0.0,0.0,0.08,0.33,0.7,79.52,31.1,82.8,0.5,0.0,0.0,1.25,2.5,1.25,0.25,0.75,0.5,1.25,0.75,0.25,0.5,-0.67,-0.92,-0.42,160.91,1.7,3.8
2.38,0.0,0.0,8.75,4.5,0.0,0.0,0.0,0.0,0.25,0.0,0.0,0.0,0.0,0.2,0.39,0.64,90.77,30.7,58.1,0.5,0.0,0.75,1.25,1.5,1.25,0.5,0.5,0.5,1.25,0.75,0.0,0.5,-0.8,-1.11,-0.17,152.54,-2.4,6.9
2.4,0.0,0.0,8.5,4.5,0.0,0.0,0.0,0.0,0.25,0.0,0.0,0.0,0.0,0.14,0.45,0.64,117.22,30.5,58.1,0.5,0.0,0.25,1.25,2.75,1.25,0.25,0.75,0.5,1.0,0.75,0.25,0.5,-0.67,0.08,-0.36,148.59,0.4,8.6
2.42,0.0,0.0,8.5,4.5,0.0,0.0,0.0,0.0,0.25,0.75,0.0,0.0,0.25,0.14,0.64,0.45,149.08,27.4,48.3,0.5,0.25,0.5,0.75,2.5,1.25,0.25,0.75,0.5,1.0,0.5,0.25,0.5,-0.42,1.08,-0.55,145.25,0.1,10.5
2.44,0.0,0.0,7.5,0.0,0.0,0.0,0.0,0.0,0.25,0.5,0.0,0.0,0.25,0.33,0.7,0.7,138.68,32.9,45.3,0.25,0.0,0.25,1.25,1.75,1.25,0.25,0.5,0.5,1.0,0.25,0.25,0.5,0.33,1.83,-0.36,137.13,1.1,6.1
2.46,0.0,0.0,7.25,2.75,0.0,0.0,0.0,0.0,0.0,0.0,0.0,0.0,0.0,0.39,0.77,0.45,139.01,32.4,60.1,0.25,0.25,0.25,1.0,2.5,1.0,0.25,0.75,0.5,1.0,0.25,0.0,0.5,0.7,2.14,-0.36,133.07,1.6,13.3
2.48,0.0,0.0,6.0,0.25,0.0,0.0,0.0,0.0,0.0,0.0,0.0,0.0,0.0,1.14,0.52,0.64,116.58,37.4,60.8,0.25,0.0,0.25,1.0,1.75,1.0,0.25,0.25,0.5,1.0,0.5,0.0,0.5,0.7,1.64,-0.3,121.58,0.5,6.2
2.5,0.0,0.0,5.75,0.75,0.0,0.0,0.0,0.0,0.25,0.0,0.0,0.0,0.0,1.77,0.27,0.83,112.3,34.9,57.1,0.0,0.0,1.0,1.0,1.75,1.25,0.0,0.5,0.5,1.0,0.75,0.25,0.5,0.7,1.27,-0.23,120.78,-0.9,2.2
2.52,0.0,0.0,4.25,3.5,0.0,0.0,0.0,0.0,0.0,0.0,0.0,0.0,0.0,1.77,1.08,0.45,109.98,28.6,59.5,0.25,0.0,0.0,0.5,1.75,1.0,0.25,0.5,0.5,1.0,0.75,0.0,0.5,0.58,1.39,-0.11,112.05,3.4,-3.9
2.54,0.0,0.0,2.5,0.5,0.0,0.0,0.0,0.0,0.0,0.0,0.0,0.0,0.0,0.83,1.08,-0.36,94.44,34.7,60.4,0.25,0.0,0.25,0.5,2.25,1.0,0.25,0.25,0.5,1.25,0.75,0.25,0.5,0.45,1.39,0.08,112.11,1.7,-2.2
2.56,0.0,0.0,0.0,0.0,0.0,0.0,0.0,0.0,0.0,0.0,0.0,0.0,0.0,-0.61,0.2,0.14,51.0,0.0,0.0,0.5,0.25,0.25,1.0,1.5,1.25,0.25,0.25,0.5,1.0,0.5,0.25,0.5,0.27,1.14,0.2,112.87,-0.6,7.3
2.58,0.0,0.0,0.0,0.0,0.0,0.0,0.0,0.0,0.0,0.0,0.0,0.0,0.0,-0.55,-0.11,-0.17,8.28,0.0,0.0,0.5,0.0,0.0,0.75,1.25,1.0,0.0,0.25,0.5,1.25,0.5,0.5,0.5,0.02,0.89,0.39,110.76,1.6,-9.8
2.6,0.0,0.0,0.0,0.0,0.0,0.0,0.0,0.0,0.0,0.0,0.0,0.0,0.0,-0.86,0.52,-0.61,0.0,0.0,0.0,0.0,0.0,0.0,0.75,1.75,1.0,0.25,0.0,0.5,1.0,0.5,0.25,0.5,0.14,0.64,-0.05,105.03,3.0,-3.8
2.62,0.0,0.0,0.0,0.0,0.0,0.0,0.0,0.0,0.0,0.0,0.0,0.0,0.0,0.02,0.89,-0.11,0.0,0.0,0.0,0.5,0.25,0.25,0.75,2.25,1.25,0.25,0.25,0.5,1.0,0.25,0.0,0.5,0.2,0.45,-0.42,109.08,0.8,16.6
2.64,0.0,0.0,0.0,0.0,0.0,0.0,2.75,0.0,0.0,0.0,0.0,0.0,0.0,1.33,1.27,0.52,0.0,32.4,27.3,0.25,0.0,0.0,0.5,1.0,1.0,0.25,0.25,0.5,1.0,0.25,0.0,0.5,-0.05,0.39,-0.42,98.8,4.1,-5.2
2.66,0.0,0.0,0.0,0.0,0.0,0.0,2.0,0.0,2.75,0.75,0.0,0.0,0.0,1.58,1.33,0.7,0.0,11.8,-30.5,0.25,0.0,1.0,0.5,1.75,1.0,0.25,0.0,0.5,1.0,0.75,0.25,0.5,-0.11,0.52,-0.42,104.57,-3.2,3.3
2.68,1.25,0.0,1.25,0.5,0.0,0.0,0.0,0.0,0.25,0.75,0.0,0.0,0.25,1.2,0.95,0.77,24.73,20.5,30.3,0.5,0.0,0.25,0.75,1.75,0.75,0.25,0.0,0.5,1.0,0.75,0.25,0.5,-0.23,0.64,-0.48,105.75,-1.9,1.2
2.7,0.75,0.0,1.5,0.5,0.0,0.0,0.0,0.0,0.25,0.75,0.0,0.0,0.25,0.83,0.7,0.7,43.4,19.9,24.5,0.25,0.25,0.0,1.0,1.25,1.0,0.25,0.25,0.25,1.0,0.5,0.0,0.5,-0.36,0.89,-0.17,105.73,1.8,5.2
2.72,0.25,0.0,1.0,0.5,0.0,0.0,0.0,0.0,0.25,0.75,0.0,0.0,0.25,0.52,0.45,0.64,51.63,14.5,7.0,0.25,0.25,0.0,0.75,2.5,1.0,0.25,0.25,0.5,1.0,0.5,0.0,0.5,-0.11,1.08,-0.42,110.46,2.2,10.8
2.74,0.5,0.0,1.0,0.5,0.0,0.0,0.0,0.0,0.25,1.0,0.0,0.0,0.25,0.58,0.39,0.58,54.77,13.7,7.2,0.5,0.0,0.0,0.5,1.5,0.75,0.25,0.0,0.5,1.25,0.25,0.0,0.5,-0.05,1.08,-0.55,105.26,1.7,1.3
2.76,0.25,0.0,1.0,0.5,0.0,0.0,0.0,0.0,0.25,0.0,0.0,0.0,0.25,0.64,0.45,0.58,50.67,24.4,34.1,0.25,0.0,0.0,0.5,1.75,0.75,0.25,0.0,0.5,1.0,0.75,0.0,0.5,-0.17,1.02,-0.48,102.58,1.6,-2.6
2.78,0.0,0.0,1.25,0.5,0.0,0.0,0.0,0.0,0.25,0.5,0.0,0.0,0.25,0.58,0.45,0.52,54.4,17.7,11.8,0.5,0.0,0.5,0.5,1.5,0.5,0.25,0.0,0.25,1.0,0.25,0.0,0.5,-0.23,1.02,-0.42,94.72,-2.6,10.2
2.8,0.0,0.0,0.5,0.5,0.0,0.0,0.0,0.0,0.25,0.5,0.0,0.0,0.0,0.52,0.39,0.45,48.2,13.3,8.0,0.25,0.0,0.25,0.25,2.25,0.5,0.25,0.0,0.5,0.75,0.5,0.0,0.5,-0.05,1.02,-0.42,93.98,0.0,7.0
2.82,0.25,0.0,1.0,0.5,0.0,0.0,0.0,0.0,0.25,0.5,0.0,0.0,0.25,0.45,0.33,0.33,47.01,17.2,14.4,0.25,0.0,0.25,0.5,1.5,0.5,0.25,0.0,0.25,1.25,0.25,0.0,0.5,0.08,1.02,-0.36,89.59,1.1,0.4
2.84,0.0,0.0,1.0,0.5,0.0,0.0,0.0,0.0,0.25,0.5,0.0,0.0,0.25,0.64,0.45,-0.17,43.34,15.6,6.8,0.5,0.0,0.5,0.5,1.25,0.75,0.25,0.0,0.25,1.0,0.25,0.25,0.5,0.02,1.02,-0.23,89.59,-2.1,4.1
2.86,0.0,0.0,1.0,0.5,0.0,0.0,0.0,0.0,0.25,0.5,0.0,0.0,0.25,0.77,0.7,-0.3,42.04,15.6,6.8,0.25,0.0,0.0,0.5,1.25,0.75,0.25,0.0,0.25,0.5,0.25,0.25,0.5,0.02,0.95,-0.23,82.22,1.4,1.8
2.88,0.0,0.0,1.5,0.5,0.0,0.0,0.0,0.0,0.25,1.5,0.0,0.0,0.25,0.77,0.89,-0.36,46.66,10.8,-6.5,0.25,0.0,0.25,0.5,1.25,0.5,0.25,0.0,0.5,1.0,0.5,0.25,0.5,-0.05,0.95,-0.17,82.83,-1.0,-8.5
2.9,0.25,0.0,1.0,0.5,0.0,0.0,0.0,0.0,0.25,0.5,0.0,0.25,0.25,0.77,0.89,-0.42,46.96,16.5,4.3,0.25,0.0,0.0,0.5,2.5,0.5,0.25,0.0,0.25,1.0,0.25,0.25,0.5,0.02,0.89,-0.17,84.86,2.1,6.1
2.92,0.0,0.0,1.25,0.5,0.0,0.0,0.0,0.0,0.25,0.5,0.0,0.25,0.25,0.7,0.89,-0.3,49.39,17.0,1.9,0.25,0.0,1.0,0.5,2.25,0.5,0.0,0.25,0.25,1.0,0.25,0.0,0.5,0.08,0.89,-0.3,95.35,-2.2,14.3
2.94,0.0,0.0,1.0,0.0,0.0,0.0,0.0,0.0,0.0,0.0,0.0,0.0,0.25,0.58,0.83,-0.11,40.09,27.8,26.8,0.25,0.0,0.25,0.5,1.75,0.75,0.25,0.0,0.25,1.0,0.25,0.25,0.5,0.02,0.89,-0.3,98.05,1.1,2.8
2.96,0.0,0.0,0.75,0.0,0.0,0.0,0.0,0.0,0.0,0.0,0.0,0.0,0.0,0.52,0.77,0.02,29.51,38.2,60.9,0.25,0.0,0.0,0.25,1.0,1.0,0.25,0.0,0.5,1.0,0.5,0.25,0.5,-0.05,0.89,-0.36,94.59,3.3,-14.5
2.98,0.0,0.0,0.0,0.0,0.0,0.0,0.0,0.0,0.0,0.0,0.0,0.0,0.0,0.45,0.77,0.14,13.12,0.0,0.0,0.25,0.0,0.0,0.75,1.5,0.5,0.25,0.0,0.25,1.0,0.5,0.0,0.5,-0.05,0.95,-0.3,91.49,0.9,0.4
3.0,0.0,0.0,1.0,0.0,0.0,0.0,0.0,0.0,0.0,0.0,0.0,0.0,0.0,0.45,0.77,0.2,9.51,38.2,60.9,0.25,0.0,0.25,0.5,1.75,0.5,0.25,0.0,0.5,1.0,0.5,0.25,0.5,-0.05,0.95,-0.3,91.31,-0.6,-2.8
3.02,0.0,0.0,0.0,0.0,0.0,0.0,0.0,0.0,0.0,0.0,0.0,0.0,0.0,0.39,0.7,0.27,1.47,0.0,0.0,0.25,0.0,0.25,0.5,1.5,0.5,0.25,0.0,0.25,1.0,0.25,0.25,0.5,-0.11,0.95,-0.36,89.76,0.0,-1.0
3.04,0.0,0.0,0.25,0.0,0.0,0.0,0.0,0.0,0.0,0.0,0.0,0.0,0.0,0.45,0.7,0.2,0.0,38.2,60.9,0.5,0.0,0.0,0.5,1.25,0.5,0.25,0.0,0.5,1.0,0.25,0.25,0.5,-0.11,0.95,-0.36,88.84,-0.3,-4.3
3.06,0.0,0.0,0.75,0.5,0.0,0.0,0.0,0.0,0.25,0.5,0.0,0.5,0.0,0.39,0.77,0.02,8.95,15.0,-9.6,0.25,0.0,0.0,0.5,1.0,0.5,0.25,0.0,0.5,1.0,0.25,0.0,0.5,-0.11,0.95,-0.3,83.23,1.6,-7.3
3.08,0.0,0.0,1.0,0.5,0.0,0.0,0.0,0.0,0.25,0.5,0.0,0.5,0.25,0.33,0.83,-0.05,23.09,14.5,-12.1,0.25,0.0,0.25,0.5,1.25,0.25,0.25,0.0,0.25,1.0,0.25,0.25,0.5,-0.11,0.95,-0.3,79.19,-1.1,-5.8
3.1,0.0,0.0,0.0,0.5,0.0,0.0,0.0,0.0,0.25,0.5,0.0,0.25,0.0,0.39,0.83,-0.05,27.01,4.1,-29.1,0.0,0.0,0.5,0.5,1.0,1.0,0.25,0.0,0.25,1.0,0.25,0.25,0.5,-0.11,0.95,-0.3,78.44,1.4,-5.0
3.12,0.0,0.0,0.75,0.5,0.0,0.0,0.0,0.0,0.0,0.0,0.0,0.0,0.0,0.45,0.83,-0.05,27.23,29.7,59.7,0.25,0.0,0.25,1.0,0.5,0.5,0.25,0.0,0.25,1.0,0.25,0.25,0.5,-0.11,0.95,-0.3,76.07,-2.4,-7.5
3.14,0.0,0.0,0.5,0.0,0.0,0.0,0.0,0.0,0.0,0.0,0.0,0.0,0.0,0.52,0.83,0.02,21.3,38.2,60.9,0.5,0.0,0.5,0.25,0.5,1.0,0.0,0.0,0.25,1.0,0.5,0.25,0.5,-0.11,0.95,-0.36,76.27,-0.8,-9.5
3.16,0.0,0.0,0.0,0.0,0.0,0.0,0.0,0.0,0.0,0.0,0.0,0.0,0.0,0.58,0.89,0.02,12.12,0.0,0.0,0.25,0.0,0.0,0.5,1.0,0.75,0.25,0.75,0.25,1.0,0.25,0.0,0.25,-0.17,0.95,-0.3,76.95,4.8,-3.4
3.18,0.0,0.0,0.75,0.5,0.0,0.0,0.0,0.0,0.0,0.0,0.0,0.0,0.25,0.58,0.89,-0.05,14.72,22.5,31.6,0.25,0.0,0.0,0.25,1.5,0.75,0.25,0.25,0.25,1.0,0.5,0.25,0.5,-0.17,0.95,-0.3,81.55,3.7,-9.7
3.2,0.0,0.0,1.0,0.5,0.0,0.0,0.0,0.0,0.25,0.0,0.0,0.0,0.0,0.58,0.95,-0.11,20.99,28.5,46.4,0.0,0.25,0.0,0.5,1.25,0.25,0.25,0.0,0.25,1.0,0.25,0.25,0.5,-0.11,0.95,-0.3,79.64,1.8,-8.8
3.22,0.0,0.0,0.75,0.0,0.0,0.0,0.25,0.0,0.0,0.0,0.0,0.0,0.25,0.58,0.95,-0.11,23.59,26.0,19.2,0.5,0.25,0.0,0.25,1.5,0.5,0.25,0.0,0.25,1.0,0.25,0.25,0.25,-0.11,0.89,-0.36,80.8,0.0,7.4
3.24,0.0,0.0,0.0,0.0,0.0,0.0,0.0,0.0,0.0,0.0,0.0,0.0,0.0,0.58,0.95,-0.05,16.16,0.0,0.0,0.0,0.0,0.25,0.5,1.25,0.5,0.25,0.0,0.5,1.0,0.25,0.25,0.5,-0.05,0.89,-0.36,80.14,0.8,-10.1
3.26,0.0,0.0,0.0,0.0,0.0,0.0,0.0,0.0,0.0,0.0,0.0,0.0,0.0,0.52,0.89,0.02,8.71,0.0,0.0,0.25,0.0,0.0,0.5,1.0,0.5,0.25,0.25,0.25,1.0,0.0,0.25,0.5,-0.05,0.89,-0.42,78.76,3.2,-9.2
3.28,0.0,0.0,0.0,0.0,0.0,0.0,0.0,0.0,0.0,0.0,0.0,0.0,0.0,0.45,0.83,0.08,0.0,0.0,0.0,0.25,0.0,0.0,0.5,1.0,0.5,0.25,0.0,0.0,0.5,0.25,0.25,0.5,-0.05,0.89,-0.42,72.64,0.9,-1.3
3.3,0.0,0.0,0.0,0.0,0.0,0.0,0.0,0.0,0.0,0.0,0.0,0.0,0.0,0.45,0.83,0.02,0.0,0.0,0.0,0.0,0.0,0.25,0.5,1.5,0.5,0.25,0.25,0.25,1.5,0.0,0.0,0.5,-0.05,0.89,-0.42,75.83,4.5,-5.4
3.32,0.0,0.0,0.5,0.5,0.0,0.0,0.0,0.0,0.0,0.0,0.0,0.0,0.0,0.45,0.83,0.02,1.19,27.6,59.4,0.0,0.0,0.0,0.5,1.25,0.5,0.25,0.0,0.25,1.0,0.25,0.25,0.5,-0.05,0.89,-0.42,74.09,3.6,-12.4
3.34,0.0,0.0,0.75,0.25,0.0,0.0,0.0,0.0,0.25,0.0,0.0,0.0,0.0,0.45,0.83,-0.05,10.32,28.9,41.1,0.25,0.0,0.25,0.25,1.0,0.25,0.25,0.0,0.25,1.0,0.25,0.25,0.5,0.02,0.89,-0.36,72.95,-0.4,-13.3
3.36,0.5,0.0,1.0,0.5,0.0,0.0,0.0,0.0,0.0,0.0,0.0,0.0,0.25,0.45,0.77,-0.05,23.33,26.8,48.5,0.25,0.0,0.0,0.5,0.25,0.5,0.25,0.0,0.25,1.0,0.25,0.25,0.5,0.02,0.89,-0.36,67.09,1.4,-25.4
3.38,0.0,0.0,0.5,0.0,0.0,0.0,0.0,0.0,0.0,0.0,0.0,0.0,0.0,0.45,0.77,-0.05,22.56,38.2,60.9,0.25,0.0,0.75,0.5,0.5,0.0,0.25,0.25,0.25,0.5,0.25,0.25,0.5,0.02,0.89,-0.36,64.28,-8.8,-5.8
3.4,1.0,0.0,0.75,0.5,0.0,0.0,0.0,0.0,0.25,0.25,0.0,0.25,0.25,0.45,0.77,0.02,35.23,21.3,26.2,0.25,0.0,0.0,0.75,1.25,0.5,0.25,0.0,0.25,1.0,0.5,0.25,0.5,0.02,0.89,-0.36,68.57,0.4,-7.2
3.42,0.5,0.0,0.75,0.5,0.0,0.0,0.0,0.0,0.25,0.5,0.0,0.25,0.25,0.45,0.83,0.02,40.93,16.1,6.7,0.25,0.0,0.5,0.5,1.0,0.5,0.25,0.0,0.25,1.0,0.25,0.25,0.5,-0.05,0.89,-0.36,73.91,-2.1,-4.0
3.44,1.25,0.0,0.75,0.5,0.0,0.0,0.0,0.0,0.25,0.5,0.0,0.25,0.25,0.45,0.83,0.02,54.65,19.7,23.8,0.25,0.25,0.0,0.25,1.25,0.5,0.0,0.0,0.25,0.5,0.25,0.0,0.5,-0.05,0.95,-0.36,74.45,2.1,8.3
3.46,1.25,0.0,0.75,0.5,0.0,0.0,0.0,0.0,0.25,0.5,0.0,0.25,0.25,0.45,0.83,0.02,63.06,19.7,23.8,0.25,0.0,0.25,0.0,1.75,0.5,0.25,0.0,0.25,1.0,0.25,0.25,0.5,-0.05,0.95,-0.42,77.34,1.9,-3.8
3.48,1.25,0.0,1.25,0.5,0.0,0.0,0.0,0.0,0.25,0.5,0.0,0.25,0.25,0.45,0.89,-0.05,72.92,21.9,28.4,0.25,0.0,0.25,0.0,1.25,0.5,0.25,0.0,0.25,1.0,0.0,0.25,0.5,-0.11,0.95,-0.42,75.13,2.4,-7.3
3.5,1.25,0.0,1.0,0.5,0.0,0.0,0.0,0.0,0.25,0.5,0.0,0.25,0.25,0.45,0.89,-0.05,75.08,20.9,26.3,0.25,0.25,0.5,0.5,0.5,0.75,0.25,0.0,0.25,1.0,0.25,0.25,0.5,-0.11,0.95,-0.42,77.46,-2.1,-3.6
3.52,1.25,0.0,1.0,0.5,0.0,0.0,0.0,0.0,0.25,0.5,0.0,0.5,0.0,0.52,0.89,0.02,76.01,22.4,26.6,0.25,0.0,0.0,0.0,0.5,0.5,0.25,0.0,0.5,1.0,0.5,0.25,0.5,-0.11,0.95,-0.36,72.71,2.4,-34.2
3.54,1.25,0.0,1.0,0.5,0.0,0.0,0.0,0.0,0.25,0.5,0.0,0.5,0.25,0.58,0.89,0.02,76.16,20.2,18.2,0.25,0.0,0.0,0.25,1.5,0.5,0.25,0.0,0.25,1.0,0.25,0.25,0.5,-0.11,0.95,-0.36,74.33,2.9,-7.2
3.56,1.25,0.0,1.0,0.5,0.0,0.0,0.0,0.0,0.25,0.5,0.0,0.25,0.25,0.58,0.89,0.08,74.25,20.9,26.3,0.25,0.0,0.0,0.5,1.5,0.0,0.25,0.25,0.25,0.75,0.25,0.25,0.5,-0.17,0.95,-0.36,74.4,0.0,-5.8
3.58,1.25,0.0,1.0,0.5,0.0,0.0,0.0,0.0,0.25,0.5,0.0,0.5,0.25,0.58,0.89,0.02,73.88,20.2,18.2,0.25,0.0,0.0,0.25,1.25,0.75,0.25,0.0,0.25,1.0,0.5,0.5,0.5,-0.17,0.95,-0.36,78.93,2.6,-16.3
3.6,1.25,0.0,0.75,0.5,0.0,0.0,0.0,0.0,0.25,0.5,0.0,0.25,0.25,0.52,0.89,0.02,70.52,19.7,23.8,0.25,0.0,0.5,0.25,1.25,0.5,0.25,0.0,0.25,1.0,0.25,0.25,0.5,-0.17,0.89,-0.36,81.02,-1.0,-3.9
3.62,1.25,0.0,1.0,0.5,0.0,0.0,0.0,0.0,0.25,0.5,0.0,0.25,0.25,0.58,0.89,0.02,69.75,20.9,26.3,0.25,0.0,0.5,0.5,0.5,0.75,0.25,0.0,0.25,1.0,0.0,0.5,0.5,-0.11,0.89,-0.36,80.36,-1.4,-10.7
3.64,1.25,0.0,1.0,0.5,0.0,0.0,0.0,0.0,0.25,0.5,0.0,0.5,0.0,0.58,0.89,0.02,66.17,22.4,26.6,0.25,0.0,0.0,0.0,1.25,0.5,0.25,0.0,0.25,1.0,0.25,0.75,0.5,-0.11,0.89,-0.36,78.13,2.7,-24.3
3.66,1.25,0.0,1.0,0.5,0.0,0.0,0.0,0.0,0.25,0.5,0.0,0.5,0.25,0.58,0.83,0.02,67.17,20.2,18.2,0.25,0.0,0.0,0.25,0.5,0.5,0.25,0.0,0.25,1.0,0.25,0.25,0.5,-0.11,0.89,-0.36,71.42,2.8,-25.2
3.68,1.25,0.0,1.0,0.5,0.0,0.0,0.0,0.0,0.25,0.0,0.0,0.0,0.25,0.52,0.83,0.08,62.83,27.5,52.5,0.0,0.0,0.0,0.25,1.75,0.5,0.25,0.0,0.25,1.25,0.25,0.5,0.5,-0.11,0.89,-0.36,74.74,4.5,-16.0
3.7,0.0,0.0,0.25,0.0,0.0,0.0,0.0,0.0,0.0,0.0,0.0,0.0,0.0,0.52,0.83,0.02,42.21,38.2,60.9,0.25,0.25,0.25,0.5,0.5,0.25,0.5,0.0,0.25,1.0,0.25,0.25,0.5,-0.05,0.89,-0.36,72.13,-3.4,-10.3
3.72,1.25,0.0,0.5,0.5,0.0,0.0,0.0,0.0,0.25,0.25,0.0,0.25,0.0,0.52,0.83,0.02,37.71,24.0,40.7,0.25,0.0,0.0,0.5,1.5,0.0,0.25,0.0,0.25,1.0,0.25,0.25,0.5,-0.05,0.89,-0.36,74.83,0.0,-7.7
3.74,0.0,0.0,0.5,0.0,0.0,0.0,0.0,0.0,0.0,0.0,0.0,0.0,0.0,0.52,0.89,0.02,21.28,38.2,60.9,0.0,0.0,0.0,0.5,1.25,0.5,0.25,0.0,0.25,0.5,0.25,0.25,0.5,-0.05,0.89,-0.42,71.39,2.2,-5.1
3.76,0.0,0.0,0.75,0.0,0.0,0.0,0.0,0.0,0.0,0.0,0.0,0.0,0.0,0.45,0.89,0.02,14.47,38.2,60.9,0.0,0.0,0.25,0.0,1.0,0.5,0.25,0.0,0.25,1.0,0.25,0.25,0.5,-0.05,0.95,-0.42,69.21,3.7,-21.1
3.78,1.0,0.0,0.75,0.5,0.0,0.0,0.0,0.0,0.25,0.5,0.0,0.5,0.0,0.45,0.89,0.02,21.85,20.3,19.2,0.0,0.25,0.0,0.5,1.5,0.5,0.25,0.0,0.5,1.0,0.25,0.75,0.5,0.02,0.95,-0.42,74.49,1.2,-13.6
3.8,1.25,0.0,0.75,0.5,0.0,0.0,0.0,0.0,0.25,0.5,0.0,0.5,0.25,0.45,0.89,0.02,37.39,19.0,15.5,0.25,0.0,0.0,0.5,1.0,0.5,0.25,0.0,0.25,1.0,0.25,0.25,0.5,-0.05,0.95,-0.42,75.16,1.7,-11.0
3.82,1.25,0.0,1.0,0.5,0.0,0.0,0.0,0.0,0.25,0.5,0.0,0.5,0.25,0.45,0.95,0.02,51.71,20.2,18.2,0.0,0.0,0.0,0.5,1.0,0.75,0.25,0.25,0.25,1.25,0.25,0.25,0.5,-0.05,0.95,-0.36,78.65,5.7,-18.2
3.84,1.25,0.0,1.5,0.5,0.0,0.0,0.0,0.0,0.25,0.5,0.0,0.5,0.25,0.45,0.95,0.02,65.35,22.1,22.9,0.0,0.0,0.25,0.5,1.5,0.75,0.25,0.0,0.25,1.0,0.25,0.25,0.5,-0.05,0.95,-0.36,81.68,2.5,-3.7
3.86,1.25,0.0,1.25,0.5,0.0,0.0,0.0,0.0,0.25,0.5,0.0,0.25,0.25,0.45,0.95,0.02,72.0,21.9,28.4,0.25,0.0,0.0,0.0,1.25,0.75,0.25,0.0,0.25,1.0,0.25,0.0,0.5,-0.11,0.95,-0.36,79.81,5.7,-7.1
3.88,1.25,0.0,0.75,0.5,0.0,0.0,0.0,0.0,0.25,0.5,0.0,0.25,0.25,0.45,0.89,0.02,71.33,19.7,23.8,0.25,0.25,0.0,0.5,0.25,0.5,0.25,0.0,0.25,1.0,0.25,0.25,0.5,-0.17,0.95,-0.36,73.9,0.5,-17.7
3.9,1.25,0.0,1.0,0.5,0.0,0.0,0.0,0.0,0.25,0.5,0.0,0.5,0.25,0.45,0.89,0.02,72.39,20.2,18.2,0.25,0.0,0.0,0.25,1.25,0.5,0.25,0.0,0.25,1.0,0.25,0.25,0.5,-0.17,0.95,-0.36,72.15,2.9,-10.9
3.92,1.25,0.0,1.0,0.5,0.0,0.0,0.0,0.0,0.25,0.5,0.0,0.25,0.25,0.45,0.89,0.02,73.22,20.9,26.3,0.0,0.25,0.0,0.5,0.5,0.5,0.25,0.0,0.25,1.0,0.25,0.25,0.5,-0.23,0.89,-0.36,67.48,2.7,-19.2
3.94,1.25,0.0,1.5,0.5,0.0,0.0,0.0,0.0,0.25,0.5,0.0,0.5,0.25,0.45,0.89,-0.05,77.98,22.1,22.9,0.0,0.0,0.25,0.5,1.0,0.75,0.25,0.0,0.25,1.0,0.25,0.25,0.5,-0.23,0.89,-0.36,70.26,2.4,-10.3
3.96,1.25,0.0,1.0,0.5,0.0,0.0,0.0,0.0,0.25,0.5,0.0,0.5,0.0,0.52,0.89,0.02,75.02,22.4,26.6,0.25,0.0,0.25,0.25,1.0,0.75,0.25,0.0,0.25,1.0,0.25,0.25,0.5,-0.23,0.89,-0.36,72.36,1.7,-8.8
3.98,0.0,0.0,1.0,0.0,0.0,0.0,0.0,0.0,0.0,0.0,0.0,0.0,0.0,0.52,0.89,0.02,59.05,38.2,60.9,0.0,0.0,0.0,0.25,0.5,0.5,0.25,0.25,0.25,1.0,0.25,0.25,0.5,-0.23,0.89,-0.36,69.69,5.9,-33.3
4.0,1.25,0.0,1.0,0.5,0.0,0.0,0.0,0.0,0.25,0.5,0.0,0.5,0.0,0.52,0.89,0.08,55.21,22.4,26.6,0.25,0.0,0.0,0.5,1.0,0.5,0.25,0.25,0.25,0.75,0.25,0.0,0.5,-0.23,0.89,-0.36,68.18,2.4,-3.5
4.02,0.0,0.0,1.0,0.0,0.0,0.0,0.0,0.0,0.0,0.0,0.0,0.25,0.0,0.45,0.89,0.08,37.04,32.5,27.7,0.25,0.0,0.0,0.5,1.0,0.25,0.25,0.0,0.25,1.0,0.25,0.25,0.5,-0.17,0.89,-0.36,66.24,0.6,-13.4
4.04,1.25,0.0,1.0,0.5,0.0,0.0,0.0,0.0,0.25,0.5,0.0,0.25,0.0,0.45,0.89,0.02,42.54,23.3,35.7,0.0,0.0,0.25,0.0,1.25,0.25,0.25,0.0,0.25,1.0,0.25,0.25,0.5,-0.17,0.89,-0.36,66.34,2.6,-19.1
4.06,1.25,0.0,0.75,0.5,0.0,0.0,0.0,0.0,0.25,0.5,0.0,0.5,0.0,0.45,0.89,0.02,45.38,21.3,24.2,0.25,0.0,0.0,0.5,0.5,0.25,0.25,0.0,0.25,1.0,0.0,0.75,0.5,-0.11,0.89,-0.36,64.34,-0.1,-30.4
4.08,1.25,0.0,1.0,0.5,0.0,0.0,0.0,0.0,0.25,0.5,0.0,0.25,0.25,0.39,0.89,0.02,55.61,20.9,26.3,0.25,0.0,0.0,0.5,1.0,0.25,0.25,0.0,0.25,1.0,0.25,0.25,0.5,-0.11,0.95,-0.36,65.75,0.6,-13.4
4.1,1.25,0.0,1.0,0.5,0.0,0.0,0.0,0.0,0.25,0.5,0.0,0.25,0.0,0.39,0.95,-0.05,58.75,23.3,35.7,0.25,0.0,0.0,0.25,2.25,0.5,0.25,0.0,0.25,0.5,0.25,0.25,0.5,-0.11,0.95,-0.36,73.13,1.8,8.6
4.12,1.25,0.0,1.0,0.5,0.0,0.0,0.0,0.0,0.0,0.5,0.0,0.25,0.0,0.39,0.95,-0.05,60.75,24.1,41.0,0.25,0.0,0.25,0.0,1.0,0.5,0.25,0.0,0.25,1.0,0.25,0.0,0.5,-0.11,0.95,-0.36,72.43,2.3,-9.4
4.14,1.25,0.0,1.0,0.5,0.0,0.0,0.0,0.0,0.25,0.5,0.0,0.5,0.25,0.39,0.95,-0.05,63.16,20.2,18.2,0.25,0.0,0.0,0.5,1.5,0.5,0.25,0.0,0.25,1.0,0.25,0.25,0.5,-0.11,0.95,-0.36,77.1,1.9,-4.0
4.16,1.25,0.0,1.0,0.5,0.0,0.0,0.0,0.0,0.25,0.5,0.0,0.5,0.25,0.39,0.95,-0.05,65.67,20.2,18.2,0.25,0.0,0.0,0.25,1.0,0.25,0.25,0.0,0.25,1.0,0.25,1.0,0.5,-0.11,0.95,-0.36,77.23,0.1,-31.5
4.18,1.25,0.0,1.0,0.5,0.0,0.0,0.0,0.0,0.25,0.5,0.0,0.25,0.0,0.39,0.95,-0.05,66.84,23.3,35.7,0.25,0.0,0.0,0.0,1.25,0.25,0.25,0.25,0.25,1.0,0.25,0.5,0.5,-0.11,0.95,-0.36,76.61,3.1,-23.5
4.2,1.25,0.0,1.0,0.5,0.0,0.0,0.0,0.0,0.25,0.25,0.0,0.25,0.0,0.39,0.89,0.02,66.49,26.1,43.7,0.25,0.0,0.0,0.5,1.0,0.0,0.25,0.0,0.25,1.0,0.25,0.25,0.5,-0.11,0.95,-0.42,72.69,-0.5,-16.0
4.22,1.0,0.0,1.0,0.5,0.0,0.0,0.0,0.0,0.25,0.0,0.0,0.5,0.0,0.45,0.89,0.02,63.73,27.4,37.2,0.0,0.0,0.0,0.5,1.5,0.5,0.25,0.0,0.25,1.0,0.25,0.5,0.5,-0.11,0.95,-0.36,75.99,3.0,-13.4
4.24,1.25,0.0,1.0,0.5,0.0,0.0,0.0,0.0,0.25,0.5,0.0,0.5,0.0,0.39,0.89,0.02,61.91,22.4,26.6,0.25,0.0,0.0,0.0,0.5,0.5,0.25,0.0,0.25,1.0,0.25,0.25,0.5,-0.11,0.95,-0.36,68.77,4.2,-31.1
4.26,1.25,0.0,1.0,0.5,0.0,0.0,0.0,0.0,0.25,0.5,0.0,0.25,0.0,0.39,0.89,0.02,62.61,23.3,35.7,0.25,0.0,0.25,0.25,0.5,0.5,0.25,0.0,0.25,1.0,0.25,0.25,0.5,-0.11,0.95,-0.36,66.47,0.2,-19.9
4.28,1.25,0.0,1.0,0.5,0.0,0.0,0.0,0.0,0.25,0.5,0.0,0.25,0.0,0.45,0.89,0.02,61.62,23.3,35.7,0.0,0.0,0.25,0.0,1.25,0.0,0.25,0.0,0.25,1.25,0.25,0.25,0.5,-0.11,0.95,-0.36,63.72,2.2,-25.3
4.3,1.25,0.0,1.0,0.5,0.0,0.0,0.0,0.0,0.25,0.25,0.0,0.25,0.0,0.45,0.89,0.02,60.7,26.1,43.7,0.25,0.0,0.0,0.5,1.0,0.25,0.25,0.0,0.25,1.0,0.25,0.25,0.5,-0.11,0.95,-0.36,64.8,0.6,-13.4
4.32,1.0,0.0,1.0,0.5,0.0,0.0,0.0,0.0,0.25,0.0,0.0,0.5,0.25,0.45,0.89,0.02,59.29,24.3,26.4,0.25,0.0,0.25,0.5,0.5,0.5,0.25,0.0,0.25,1.0,0.25,0.25,0.5,-0.11,0.95,-0.36,64.62,-0.7,-15.3
4.34,1.25,0.0,1.0,0.5,0.0,0.0,0.0,0.0,0.25,0.0,0.0,0.25,0.0,0.45,0.89,0.02,57.02,29.3,53.0,0.25,0.0,0.0,0.25,1.25,0.25,0.25,0.0,0.25,0.75,0.25,0.25,0.5,-0.11,0.95,-0.36,65.35,1.0,-9.6
4.36,1.25,0.0,1.0,0.5,0.0,0.0,0.0,0.0,0.25,0.0,0.0,0.5,0.0,0.45,0.89,0.02,56.52,27.9,41.3,0.25,0.0,0.25,0.0,0.5,0.0,0.25,0.0,0.25,1.0,0.25,0.25,0.5,-0.11,0.95,-0.36,61.36,-1.4,-33.2
4.38,1.25,0.0,1.0,0.5,0.0,0.0,0.0,0.0,0.25,0.0,0.0,0.5,0.0,0.45,0.89,0.02,56.29,27.9,41.3,0.25,0.0,0.0,0.5,0.5,0.5,0.25,0.0,0.25,1.0,0.25,0.25,0.5,-0.11,0.89,-0.36,59.69,1.5,-20.0
4.4,1.25,0.0,1.0,0.5,0.0,0.0,0.0,0.0,0.25,0.0,0.0,0.25,0.0,0.45,0.89,0.02,56.09,29.3,53.0,0.25,0.0,0.0,0.25,0.5,0.0,0.25,0.0,0.25,1.0,0.25,0.25,0.5,-0.11,0.89,-0.36,55.96,0.0,-33.3
4.42,1.0,0.0,1.0,0.5,0.0,0.0,0.0,0.0,0.25,0.0,0.0,0.25,0.25,0.45,0.89,0.02,55.51,25.5,36.8,0.25,0.0,0.0,0.0,0.5,0.25,0.0,0.0,0.25,1.0,0.75,0.25,0.5,-0.11,0.89,-0.36,56.38,2.3,-42.7
4.44,1.25,0.0,1.0,0.5,0.0,0.0,0.0,0.0,0.25,0.0,0.0,0.25,0.25,0.45,0.89,0.02,56.05,26.1,40.9,0.0,0.0,0.25,0.25,1.25,0.5,0.25,0.0,0.25,1.0,0.5,0.25,0.5,-0.11,0.89,-0.36,62.4,1.9,-15.3
4.46,1.25,0.0,1.0,0.5,0.0,0.0,0.0,0.0,0.25,0.0,0.0,0.5,0.25,0.45,0.89,-0.05,57.65,25.0,30.8,0.25,0.0,0.5,0.5,1.0,0.5,0.25,0.0,0.25,1.0,0.25,0.25,0.5,-0.11,0.95,-0.36,70.76,-2.1,-4.0
4.48,1.25,0.0,0.75,0.5,0.0,0.0,0.0,0.0,0.25,0.0,0.0,0.5,0.0,0.45,0.89,-0.05,56.52,27.0,39.7,0.25,0.0,0.5,0.5,0.5,0.25,0.25,0.0,0.25,0.75,0.25,0.0,0.5,-0.11,0.95,-0.36,71.81,-5.1,-3.5
4.5,1.25,0.0,1.0,0.5,0.0,0.0,0.0,0.0,0.25,0.0,0.0,0.5,0.25,0.45,0.89,0.02,58.59,25.0,30.8,0.0,0.0,0.0,0.5,0.5,0.25,0.25,0.0,0.25,1.0,0.25,0.25,0.5,-0.11,0.95,-0.36,67.41,2.5,-30.8
4.52,1.25,0.0,1.0,0.5,0.0,0.0,0.0,0.0,0.25,0.0,0.0,0.5,0.25,0.39,0.89,-0.05,59.77,25.0,30.8,0.25,0.0,0.0,0.25,1.0,0.25,0.25,0.0,0.25,1.0,0.25,0.25,0.5,-0.11,0.95,-0.36,64.77,1.7,-17.8
4.54,1.25,0.0,1.0,0.5,0.0,0.0,0.0,0.0,0.25,0.0,0.0,0.5,0.0,0.39,0.89,-0.05,60.26,27.9,41.3,0.0,0.0,0.25,0.25,0.5,0.0,0.0,0.0,0.25,1.0,0.25,0.0,0.5,-0.11,0.95,-0.42,57.29,1.5,-31.6
4.56,1.25,0.0,1.0,0.5,0.0,0.0,0.0,0.0,0.25,0.0,0.0,0.25,0.25,0.45,0.89,-0.05,59.94,26.1,40.9,0.25,0.0,0.0,0.25,0.5,0.25,0.25,0.0,0.25,1.0,0.0,0.25,0.5,-0.11,0.95,-0.42,54.04,2.4,-25.7
4.58,1.25,0.0,1.0,0.5,0.0,0.0,0.0,0.0,0.25,0.0,0.0,0.5,0.0,0.39,0.89,0.02,59.63,27.9,41.3,0.25,0.0,0.25,0.5,1.25,0.0,0.25,0.0,0.5,1.0,0.25,0.25,0.5,-0.11,0.95,-0.42,60.83,-2.7,-9.2
4.6,1.0,0.0,1.0,0.5,0.0,0.0,0.0,0.0,0.25,0.0,0.0,0.5,0.25,0.39,0.89,-0.05,58.7,24.3,26.4,0.25,0.0,0.0,0.5,0.5,0.5,0.0,0.0,0.25,1.5,0.25,0.25,0.5,-0.11,0.95,-0.42,65.38,4.0,-27.3
4.62,1.25,0.0,1.0,0.5,0.0,0.0,0.0,0.0,0.25,0.0,0.0,0.5,0.25,0.39,0.89,-0.05,59.6,25.0,30.8,0.0,0.0,0.25,0.25,1.25,0.0,0.25,0.0,0.25,1.0,0.5,0.25,0.5,-0.11,0.89,-0.42,68.72,-0.2,-20.4
4.64,1.0,0.0,1.0,0.5,0.0,0.0,0.0,0.0,0.25,0.0,0.0,0.5,0.25,0.39,0.89,-0.05,59.34,24.3,26.4,0.25,0.0,0.0,0.5,1.0,0.5,0.25,0.0,0.25,1.0,0.25,0.0,0.5,-0.11,0.89,-0.36,70.42,2.3,-5.6
4.66,1.25,0.0,1.0,0.5,0.0,0.0,0.0,0.0,0.25,0.0,0.0,0.25,0.25,0.45,0.89,-0.05,59.25,26.1,40.9,0.25,0.0,0.0,0.5,1.0,0.25,0.25,0.0,0.0,1.0,0.25,0.25,0.5,-0.11,0.89,-0.36,69.21,1.4,-11.9
4.68,1.25,0.0,1.0,0.5,0.0,0.0,0.0,0.0,0.25,0.0,0.0,0.5,0.25,0.45,0.89,-0.05,59.65,25.0,30.8,0.25,0.0,0.0,0.0,0.5,0.5,0.25,0.0,0.25,1.0,0.25,0.25,0.5,-0.11,0.89,-0.36,63.46,4.2,-31.1
4.7,1.25,0.0,1.0,0.5,0.0,0.0,0.0,0.0,0.25,0.0,0.0,0.5,0.25,0.45,0.89,-0.05,60.61,25.0,30.8,0.25,0.0,0.0,0.5,0.5,0.0,0.25,0.0,0.25,0.75,0.25,0.25,0.5,-0.11,0.89,-0.36,59.01,-2.3,-23.3
4.72,1.0,0.0,0.75,0.5,0.0,0.0,0.0,0.0,0.25,0.0,0.0,0.25,0.0,0.45,0.89,-0.05,56.38,28.0,48.4,0.25,0.0,0.0,0.25,1.0,0.5,0.25,0.0,0.25,1.0,0.25,0.25,0.5,-0.11,0.89,-0.42,61.6,2.8,-15.0
4.74,1.0,0.0,1.0,0.5,0.0,0.0,0.0,0.0,0.25,0.0,0.0,0.25,0.25,0.45,0.89,-0.05,54.42,25.5,36.8,0.0,0.0,0.0,0.5,1.25,0.5,0.25,0.0,0.25,1.0,0.25,0.25,0.5,-0.11,0.89,-0.42,65.77,3.6,-12.4
4.76,0.5,0.0,1.0,0.25,0.0,0.0,0.0,0.0,0.0,0.0,0.0,0.25,0.0,0.45,0.89,-0.05,45.96,31.1,48.0,0.0,0.0,0.0,0.25,0.5,0.5,0.0,0.25,0.25,0.5,0.25,0.25,0.5,-0.11,0.89,-0.36,62.47,5.8,-29.2
4.78,1.75,0.0,1.0,0.25,0.0,0.0,0.0,0.0,0.0,0.0,0.0,0.5,0.25,0.45,0.89,-0.05,49.34,27.7,42.1,0.0,0.0,0.0,0.25,1.25,0.0,0.25,0.0,0.25,1.25,0.25,0.25,0.5,-0.05,0.89,-0.36,63.77,3.5,-25.4
4.8,1.0,0.0,1.0,0.5,0.0,0.0,0.0,0.0,0.25,0.0,0.0,0.5,0.0,0.45,0.89,-0.05,49.62,27.4,37.2,0.0,0.0,0.0,0.0,1.75,0.25,0.25,0.0,0.25,1.0,0.25,0.25,0.5,-0.05,0.89,-0.36,64.29,4.9,-14.5
4.82,1.0,0.0,1.0,0.25,0.0,0.0,0.0,0.0,0.25,0.0,0.0,0.5,0.25,0.45,0.89,-0.05,52.48,24.9,23.8,0.25,0.0,0.25,0.25,1.0,0.5,0.25,0.0,0.25,1.0,0.25,0.25,0.5,-0.11,0.95,-0.42,67.14,0.6,-10.9
4.84,1.25,0.0,1.0,0.5,0.0,0.0,0.0,0.0,0.25,0.0,0.0,0.5,0.25,0.45,0.83,-0.05,55.3,25.0,30.8,0.25,0.0,0.5,0.25,1.0,0.75,0.25,0.0,0.25,0.5,0.25,0.0,0.5,-0.11,0.95,-0.42,70.25,-1.5,8.1
4.86,1.5,0.0,1.0,0.5,0.0,0.0,0.0,0.0,0.25,0.0,0.0,0.5,0.0,0.45,0.89,-0.05,58.75,28.3,44.9,0.0,0.0,0.0,0.5,1.25,0.0,0.25,0.0,0.25,1.0,0.25,0.25,0.5,-0.05,0.95,-0.42,70.94,1.5,-17.5
4.88,1.25,0.0,1.0,0.75,0.0,0.0,0.0,0.0,0.25,0.0,0.0,0.25,0.25,0.45,0.89,-0.05,61.34,25.5,42.1,0.0,0.0,0.25,0.0,0.5,0.25,0.25,0.0,0.25,1.0,0.0,0.25,0.5,-0.11,0.95,-0.42,64.07,3.4,-34.6
4.9,1.0,0.0,0.75,0.5,0.0,0.0,0.0,0.0,0.25,0.0,0.0,0.25,0.25,0.45,0.89,-0.05,58.5,24.4,34.7,0.25,0.0,0.0,0.25,0.5,0.5,0.0,0.0,0.5,0.75,0.25,0.25,0.5,-0.11,0.95,-0.42,60.07,2.1,-24.4
4.92,1.25,0.0,1.0,0.5,0.0,0.0,0.0,0.0,0.25,0.0,0.0,0.25,0.0,0.45,0.89,-0.05,57.61,29.3,53.0,0.25,0.0,0.25,0.5,1.5,0.5,0.25,0.0,0.25,1.0,0.25,0.0,0.5,-0.11,0.95,-0.42,66.42,0.5,3.9
4.94,1.25,0.0,1.0,0.5,0.0,0.0,0.0,0.0,0.25,0.0,0.0,0.25,0.25,0.45,0.89,-0.05,57.19,26.1,40.9,0.25,0.0,0.0,0.0,1.5,0.0,0.25,0.0,0.25,1.0,0.25,0.25,0.5,-0.11,0.95,-0.42,67.95,1.9,-15.6
4.96,1.0,0.0,1.0,0.5,0.0,0.0,0.0,0.0,0.25,0.0,0.0,0.25,0.25,0.45,0.89,-0.05,57.09,25.5,36.8,0.25,0.0,0.0,0.25,1.25,0.25,0.25,0.0,0.25,1.0,0.25,0.25,0.5,-0.11,0.95,-0.42,70.45,1.8,-13.2
4.98,1.25,0.0,1.0,0.5,0.0,0.0,0.0,0.0,0.25,0.0,0.0,0.25,0.25,0.45,0.89,-0.05,57.68,26.1,40.9,0.25,0.0,0.25,0.5,0.5,0.0,0.25,0.0,0.25,1.0,0.25,0.0,0.5,-0.11,0.95,-0.42,66.53,-3.1,-15.2
5.0,1.0,0.0,1.0,0.5,0.0,0.0,0.0,0.0,0.25,0.0,0.0,0.25,0.0,0.45,0.89,-0.05,56.06,28.9,49.5,0.25,0.0,0.0,0.5,1.25,0.5,0.25,0.0,0.25,1.0,0.25,0.5,0.5,-0.11,0.89,-0.42,71.52,1.3,-12.1
5.02,1.25,0.0,1.0,0.5,0.0,0.0,0.0,0.0,0.25,0.0,0.0,0.5,0.25,0.45,0.89,-0.05,56.74,25.0,30.8,0.0,0.0,0.0,0.0,0.5,0.0,0.25,0.0,0.25,1.0,0.25,0.25,0.5,-0.11,0.89,-0.42,62.06,4.3,-51.8
5.04,1.0,0.0,1.0,0.5,0.0,0.0,0.0,0.0,0.25,0.0,0.0,0.25,0.0,0.45,0.89,-0.05,54.72,28.9,49.5,0.0,0.0,0.0,0.25,1.0,0.25,0.25,0.0,0.25,0.5,0.25,0.25,0.5,-0.11,0.89,-0.42,59.11,2.2,-17.2
5.06,1.25,0.0,1.0,0.5,0.0,0.0,0.0,0.0,0.25,0.0,0.0,0.25,0.25,0.45,0.89,-0.05,56.1,26.1,40.9,0.25,0.0,0.0,0.25,1.0,0.0,0.25,0.0,0.25,1.0,0.25,0.25,0.5,-0.11,0.89,-0.42,56.78,0.5,-20.8
5.08,1.0,0.0,1.0,0.5,0.0,0.0,0.0,0.0,0.25,0.0,0.0,0.25,0.25,0.45,0.89,-0.05,54.62,25.5,36.8,0.25,0.0,0.0,0.0,0.25,0.0,0.25,0.0,0.25,1.0,0.25,0.0,0.5,-0.11,0.89,-0.42,51.39,2.2,-44.6
5.1,1.5,0.0,1.0,0.5,0.0,0.0,0.0,0.0,0.25,0.0,0.0,0.25,0.25,0.45,0.89,-0.05,57.83,26.7,44.5,0.25,0.0,0.0,0.0,0.5,0.0,0.25,0.0,0.25,1.0,0.25,0.25,0.5,-0.11,0.89,-0.42,48.89,1.5,-40.8
5.12,1.0,0.0,1.0,0.5,0.0,0.0,0.0,0.0,0.25,0.0,0.0,0.5,0.0,0.45,0.89,-0.05,57.05,27.4,37.2,0.25,0.0,0.25,0.0,1.25,0.0,0.25,0.0,0.25,1.25,0.25,0.25,0.5,-0.05,0.89,-0.42,54.05,0.3,-19.0
5.14,1.25,0.0,1.0,0.5,0.0,0.0,0.0,0.0,0.25,0.0,0.0,0.5,0.25,0.45,0.89,-0.05,59.74,25.0,30.8,0.25,0.0,1.0,0.25,1.75,0.5,0.0,0.0,0.25,1.5,0.25,0.25,0.5,-0.05,0.89,-0.42,71.88,-1.7,0.0
5.16,1.0,0.0,1.0,0.5,0.0,0.0,0.0,0.0,0.25,0.0,0.0,0.25,0.0,0.45,0.89,-0.05,56.59,28.9,49.5,0.0,0.0,0.25,0.0,0.5,0.0,0.25,0.0,0.0,1.0,0.25,0.25,0.5,-0.05,0.95,-0.42,67.79,2.0,-43.1
5.18,0.25,0.0,0.75,0.0,0.0,0.0,0.0,0.0,0.0,0.0,0.0,0.0,0.25,0.45,0.83,-0.05,44.37,27.0,32.9,0.25,0.0,0.0,0.25,0.5,0.0,0.25,0.0,0.25,1.0,0.25,0.25,0.5,-0.05,0.95,-0.42,66.55,0.0,-33.3
