time,left pressure 0[N/cm²],left pressure 1[N/cm²],left pressure 2[N/cm²],left pressure 3[N/cm²],left pressure 4[N/cm²],left pressure 5[N/cm²],left pressure 6[N/cm²],left pressure 7[N/cm²],left pressure 8[N/cm²],left pressure 9[N/cm²],left pressure 10[N/cm²],left pressure 11[N/cm²],left pressure 12[N/cm²],left acceleration X[g],left acceleration Y[g],left acceleration Z[g],left total force[N],left center of pressure X[mm],left center of pressure Y[mm],right pressure 0[N/cm²],right pressure 1[N/cm²],right pressure 2[N/cm²],right pressure 3[N/cm²],right pressure 4[N/cm²],right pressure 5[N/cm²],right pressure 6[N/cm²],right pressure 7[N/cm²],right pressure 8[N/cm²],right pressure 9[N/cm²],right pressure 10[N/cm²],right pressure 11[N/cm²],right pressure 12[N/cm²],right acceleration X[g],right acceleration Y[g],right acceleration Z[g],right total force[N],right center of pressure X[mm],right center of pressure Y[mm]
0.02,0.0,0.0,0.0,1.25,0.0,0.75,0.25,6.0,3.0,7.25,3.75,5.25,6.25,-0.11,0.02,1.08,408.08,-5.0,-69.7,5.0,1.0,7.0,5.5,5.5,1.75,0.75,0.5,0.0,0.0,0.0,0.25,0.0,0.39,1.08,2.27,546.91,-17.9,60.8
0.04,0.0,2.75,0.0,0.0,0.0,1.0,0.5,6.5,3.75,7.25,7.25,5.25,6.25,-0.23,0.02,0.95,560.72,-3.0,-60.6,2.0,0.25,5.25,2.0,1.75,0.75,0.25,0.5,0.0,0.0,0.0,0.0,0.0,0.33,1.89,2.7,355.49,-21.8,59.7
0.06,0.0,2.75,0.5,2.0,0.0,1.75,0.75,7.0,4.5,7.5,7.5,5.25,6.25,-0.23,0.02,0.95,680.89,-1.7,-51.6,0.5,0.0,2.75,0.75,2.25,1.0,0.25,0.5,0.0,0.0,0.0,0.0,0.0,-0.05,0.45,2.52,215.41,-12.5,50.8
0.08,2.5,3.0,2.25,2.75,0.0,1.75,1.0,7.0,5.0,7.25,7.5,5.25,5.75,-0.17,-0.05,1.02,786.59,2.1,-37.1,0.0,0.0,2.75,0.5,2.25,0.5,0.25,0.5,0.0,0.0,0.0,0.0,0.0,0.33,-0.3,2.02,89.84,-13.2,48.5
0.1,3.0,3.25,3.5,3.5,0.25,2.25,1.0,7.0,5.5,7.25,7.5,4.75,5.75,-0.17,0.02,0.95,867.84,3.3,-29.8,1.25,0.25,2.75,2.0,1.0,2.25,0.5,1.0,0.0,0.0,1.0,0.0,0.5,0.64,-0.36,2.64,35.85,-10.5,32.8
0.12,3.75,3.5,3.75,3.75,0.75,2.25,1.0,7.0,5.5,6.5,7.25,4.5,5.25,-0.17,-0.05,1.02,924.66,4.3,-23.8,1.0,0.25,0.0,2.0,0.0,2.0,0.0,0.5,0.0,1.75,0.75,0.25,0.5,0.14,-0.86,2.14,8.24,0.4,1.3
0.14,3.75,3.75,4.0,4.0,2.0,2.25,1.0,6.75,5.0,6.0,6.25,3.25,4.0,-0.17,0.02,0.95,936.13,4.8,-14.3,0.5,0.0,2.5,0.5,2.25,0.5,0.0,0.5,0.0,0.0,0.0,0.0,0.0,0.2,-0.67,0.95,7.93,-13.4,51.6
0.16,3.75,3.75,4.25,4.0,2.75,2.25,1.0,6.25,4.25,5.5,5.25,2.5,2.75,-0.17,0.02,0.95,900.76,5.5,-6.1,0.5,0.0,0.25,0.5,0.0,1.0,0.0,0.5,0.0,0.0,0.0,0.0,0.0,0.39,-0.55,0.58,0.0,-1.9,38.8
0.18,4.0,4.0,4.75,4.75,3.0,2.25,1.0,6.0,3.5,4.25,3.75,1.5,2.25,-0.17,0.02,0.95,834.09,6.8,5.6,0.25,0.0,0.0,0.5,0.0,1.0,0.0,0.5,0.0,0.0,0.0,0.0,0.0,0.33,-0.42,0.52,0.0,5.8,29.9
0.2,4.25,4.25,5.5,5.5,2.75,2.25,1.0,5.75,3.0,3.25,2.5,1.5,1.25,-0.17,0.02,0.95,754.14,8.8,16.0,1.5,0.25,0.0,0.75,1.5,0.75,1.0,1.0,0.0,0.0,1.25,0.0,0.25,0.27,-0.3,0.58,0.0,-6.6,22.9
0.22,5.0,4.25,5.5,6.0,2.75,2.25,1.0,5.25,2.25,2.5,1.75,1.25,1.0,-0.17,0.08,0.95,680.34,10.1,24.5,0.25,0.0,0.0,0.5,0.0,1.0,0.0,0.5,0.0,0.0,0.0,0.0,0.0,0.2,-0.11,0.7,0.0,5.8,29.9
0.24,5.25,4.25,5.5,6.0,2.5,2.25,0.75,5.0,2.0,2.5,1.5,0.5,0.5,-0.17,0.08,0.95,615.55,10.8,30.6,0.25,0.0,0.0,0.5,0.0,1.0,0.0,0.5,0.0,0.0,0.0,0.0,0.0,0.2,-0.05,0.83,0.0,5.8,29.9
0.26,5.25,4.25,6.0,6.75,2.5,2.25,0.75,4.75,1.5,2.5,1.0,0.5,0.75,-0.17,0.08,0.95,582.4,11.3,33.2,0.25,0.0,0.0,0.5,0.0,1.0,0.0,0.5,0.0,0.0,0.0,0.0,0.0,0.14,0.08,0.95,4.07,5.8,29.9
0.28,5.75,4.5,6.5,7.25,5.25,2.25,0.5,4.5,1.25,2.25,0.25,0.5,0.75,-0.11,0.08,0.95,580.61,11.1,39.9,0.5,0.0,0.0,0.5,0.0,0.5,0.0,0.5,0.0,0.0,0.0,0.0,0.0,0.14,0.2,1.08,15.42,-3.1,37.0
0.3,6.25,5.0,6.5,7.5,0.0,2.25,0.5,4.5,1.0,2.25,0.25,0.5,1.25,-0.17,0.08,0.95,560.22,13.5,37.8,1.25,0.25,0.0,1.25,0.0,1.25,0.0,1.0,0.0,1.25,0.0,0.25,0.25,0.14,0.27,1.39,38.41,-0.2,10.0
0.32,6.25,5.5,6.5,7.75,0.0,2.25,0.25,4.25,1.0,1.75,0.0,0.5,0.75,-0.17,0.14,0.95,544.91,14.5,43.7,1.25,0.25,1.5,1.25,1.75,1.25,0.25,0.75,0.0,1.5,1.0,0.0,0.5,0.2,0.45,1.58,88.07,-5.5,16.7
0.34,7.25,6.0,7.25,8.75,0.0,2.25,0.25,3.5,1.0,1.75,0.0,0.5,0.75,-0.17,0.14,0.95,545.73,16.0,48.0,1.25,0.25,1.25,0.75,1.75,1.25,0.25,1.0,0.0,1.25,1.0,0.25,0.5,0.27,0.77,1.77,128.46,-4.2,11.6
0.36,7.5,6.25,7.75,9.0,0.0,2.25,0.25,3.75,0.75,1.5,0.0,0.5,0.75,-0.23,0.14,1.02,564.06,16.4,49.6,1.25,0.25,1.0,1.0,1.75,1.75,0.5,0.75,0.0,1.0,1.25,0.0,0.5,0.33,1.33,2.27,161.13,-3.9,16.7
0.38,7.75,6.5,7.25,10.0,0.0,2.25,0.0,3.25,0.75,1.0,0.0,0.5,0.5,-0.17,0.2,1.02,585.13,17.2,54.1,1.25,0.25,1.0,0.75,1.75,1.25,0.25,0.75,0.0,0.5,1.0,0.25,0.5,0.2,2.02,2.7,171.04,-5.4,18.4
0.4,7.75,7.0,7.5,10.0,0.0,2.25,0.0,3.25,0.5,1.0,0.0,0.5,0.75,-0.23,0.2,1.08,611.16,17.1,54.2,1.0,0.25,1.75,0.75,1.75,1.25,0.25,0.75,0.0,1.25,1.0,0.25,0.5,0.14,2.7,2.39,178.52,-5.7,13.2
0.42,8.0,7.25,7.75,10.0,0.0,2.25,0.0,3.0,0.5,1.0,0.0,0.0,0.75,-0.23,0.2,1.14,629.93,17.7,57.3,1.25,0.25,0.75,1.0,1.75,1.25,0.25,0.75,0.0,1.0,1.0,0.25,0.5,0.14,3.77,0.89,174.28,-3.8,13.7
0.44,8.0,7.5,0.0,9.75,0.0,0.5,0.0,2.5,0.5,1.0,0.25,0.0,0.75,-0.23,0.2,1.08,572.82,15.0,58.5,1.0,0.25,1.75,0.75,1.75,1.25,0.25,0.75,0.0,1.25,1.0,0.5,0.5,-0.36,4.39,-0.36,177.1,-5.7,10.5
0.46,7.75,7.75,7.75,10.0,0.0,0.0,0.0,2.5,0.5,1.0,0.0,0.25,0.5,-0.23,0.27,1.14,568.66,20.3,60.2,0.5,0.0,1.0,1.0,1.75,0.5,0.25,0.75,0.0,0.0,1.0,0.0,0.5,-1.67,4.89,0.02,166.07,-6.8,18.6
0.48,8.0,7.75,7.0,10.0,0.0,0.0,0.0,2.0,0.5,1.0,0.0,0.25,0.5,-0.36,0.33,1.2,556.7,20.5,61.8,0.5,0.0,0.25,0.0,2.25,1.0,0.0,0.75,0.0,1.0,0.0,0.0,0.0,-2.48,4.64,1.2,144.3,5.3,21.3
0.5,7.0,0.0,0.0,7.75,0.0,0.0,0.0,2.0,0.5,1.0,0.0,0.0,0.75,-0.42,0.39,1.45,442.72,16.6,45.0,0.25,0.0,0.0,0.0,0.0,0.5,0.0,0.5,0.0,2.5,1.25,2.75,1.25,0.08,-0.55,0.08,137.19,3.4,-78.6
0.52,4.75,0.0,6.0,7.5,0.0,0.0,0.0,0.0,0.5,1.0,0.0,0.25,0.75,-0.48,0.39,1.58,357.99,24.2,50.4,0.25,0.0,0.0,0.0,0.0,1.0,0.0,0.5,0.0,6.5,3.25,4.5,5.5,-0.61,0.58,1.64,199.74,5.9,-84.1
0.54,4.25,0.0,4.0,5.5,0.0,0.0,0.0,0.0,0.5,1.0,0.0,0.25,0.5,-0.86,0.7,2.02,277.03,23.6,49.3,0.5,0.0,0.0,0.5,0.25,0.0,0.0,3.75,0.75,7.75,6.5,5.25,6.5,0.14,1.08,3.83,294.28,4.0,-77.2
0.56,0.0,0.0,0.0,2.0,0.0,0.0,0.0,0.0,0.25,0.5,0.0,0.0,0.0,-0.92,1.52,3.08,165.46,10.9,26.0,0.0,0.0,0.0,0.5,1.25,2.5,0.0,5.5,1.5,8.5,7.5,5.5,6.25,0.2,0.27,1.02,432.35,5.6,-66.2
0.58,0.75,0.0,1.25,2.5,0.0,0.0,0.0,0.0,0.5,1.0,0.0,0.0,0.25,-0.55,0.77,2.45,74.38,16.6,27.6,1.75,0.5,0.0,2.0,2.25,4.5,0.0,6.75,1.5,8.75,8.75,5.5,5.75,0.14,0.08,0.95,606.88,3.7,-47.0
0.6,0.0,0.0,0.5,0.0,0.0,0.0,0.0,1.0,0.0,0.0,0.0,0.0,0.0,-0.73,-0.11,1.83,0.0,1.9,-4.8,2.0,0.75,0.5,2.75,2.75,4.5,1.0,7.5,2.75,9.25,9.0,6.0,6.75,0.2,0.08,0.95,779.65,2.4,-43.3
0.62,0.0,0.0,0.0,0.0,0.0,0.0,0.0,0.0,0.0,0.0,0.0,0.0,0.0,0.33,-0.55,2.14,0.0,0.0,0.0,2.25,1.0,2.75,3.25,4.25,5.5,1.25,8.0,3.0,9.25,9.5,6.0,7.0,0.27,0.08,0.95,945.7,0.8,-34.0
0.64,0.0,0.0,0.0,0.0,0.0,0.0,0.0,0.0,0.0,0.0,0.0,0.0,0.0,-0.05,-0.92,1.89,0.0,0.0,0.0,3.0,1.25,2.75,3.5,5.5,5.5,1.5,8.5,3.5,9.0,9.25,5.75,6.5,0.27,0.08,0.95,1075.06,0.2,-28.5
0.66,0.0,0.0,0.0,0.25,0.0,0.0,0.0,0.0,0.25,0.75,0.0,0.0,0.0,-0.17,-0.55,1.2,0.0,-3.3,-40.5,3.0,1.25,4.0,3.75,5.5,6.0,1.5,8.5,3.25,8.5,8.75,5.25,6.0,0.27,0.08,0.95,1161.04,-0.4,-23.9
0.68,0.0,0.0,0.0,0.0,0.0,0.0,0.0,0.0,0.0,0.75,0.0,0.0,0.0,-0.48,-0.42,0.27,0.0,-15.6,-75.5,3.0,1.75,5.25,5.0,6.0,6.0,1.5,8.0,3.25,8.0,8.0,4.0,5.25,0.27,0.08,0.95,1204.4,-1.7,-15.1
0.7,0.0,0.0,0.0,0.0,0.0,0.0,0.0,0.0,0.0,0.75,0.0,0.0,0.0,-0.48,-0.36,0.2,0.0,-15.6,-75.5,3.0,2.0,5.25,5.5,6.5,6.25,1.5,7.75,2.75,6.75,7.5,3.0,3.25,0.27,0.08,0.95,1190.93,-2.4,-6.4
0.72,0.0,0.0,0.0,0.0,0.0,0.0,0.0,0.0,0.0,0.75,0.0,0.0,0.0,-0.42,-0.42,0.52,0.0,-15.6,-75.5,3.5,2.0,5.25,5.5,7.0,6.5,1.25,7.5,2.0,5.5,5.75,2.25,2.75,0.27,0.14,0.95,1126.89,-2.6,1.5
0.74,0.0,0.0,0.0,0.0,0.0,0.0,0.0,0.0,0.0,0.5,0.0,0.0,0.0,-0.36,-0.42,0.7,0.0,-15.7,-75.5,3.75,2.25,5.25,5.75,7.25,6.5,1.0,6.75,1.75,4.5,4.5,1.5,2.0,0.27,0.14,0.95,1026.86,-3.3,10.0
0.76,0.0,0.0,0.0,0.0,0.0,0.0,0.0,0.0,0.0,0.5,0.0,0.0,0.0,-0.36,-0.17,0.52,0.0,-15.7,-75.5,4.5,2.75,6.75,6.5,7.5,6.25,0.75,6.0,1.25,3.0,3.5,1.25,1.75,0.27,0.14,0.95,936.6,-5.8,20.7
0.78,0.0,0.0,0.0,0.0,0.0,0.0,0.0,0.0,0.25,0.5,0.0,0.0,0.0,-0.42,-0.05,0.52,0.0,-6.4,-63.3,4.5,2.5,6.75,7.0,7.5,6.5,1.0,5.75,1.0,2.25,3.25,1.25,1.25,0.27,0.14,0.95,864.33,-6.3,24.6
0.8,0.0,0.0,0.0,0.0,0.0,0.0,0.0,0.0,0.0,0.5,0.0,0.0,0.0,-0.36,0.02,0.89,2.98,-15.7,-75.5,5.25,2.75,7.5,7.75,7.5,6.5,0.75,5.0,1.0,2.5,2.5,1.25,1.25,0.2,0.14,0.89,830.72,-7.5,28.8
0.82,0.0,0.0,0.0,0.0,0.0,0.0,3.0,0.0,0.0,0.0,0.0,0.0,0.0,-0.36,0.08,1.08,9.14,32.4,27.3,5.5,3.0,8.0,9.0,8.0,6.25,0.75,5.0,0.75,1.5,2.25,1.25,1.25,0.2,0.14,0.95,821.2,-8.6,33.4
0.84,0.0,0.0,0.0,0.0,0.0,0.0,0.0,0.0,0.0,0.0,0.0,0.0,0.0,-0.42,0.2,1.33,10.83,0.0,0.0,6.0,3.0,8.5,9.0,8.5,6.25,0.75,4.75,0.75,1.5,2.25,1.0,1.25,0.2,0.14,0.95,831.82,-9.1,35.4
0.86,0.0,0.0,0.0,0.0,0.0,0.0,0.0,0.0,0.0,0.0,0.0,0.0,0.0,-0.48,0.58,1.58,8.14,0.0,0.0,6.75,3.5,8.75,9.25,8.5,6.25,0.75,3.75,0.25,1.75,2.0,0.75,1.0,0.2,0.14,0.95,846.42,-10.1,40.5
0.88,0.0,0.0,0.0,0.0,0.0,0.0,0.0,0.0,0.0,0.75,0.0,0.0,0.0,-0.42,1.27,1.83,6.77,-15.6,-75.5,6.0,3.25,9.25,9.25,8.75,5.75,0.75,3.75,0.0,0.75,2.0,0.0,0.5,0.14,0.2,0.95,843.3,-11.0,46.1
0.9,0.0,0.0,0.0,0.25,0.0,0.0,0.0,0.0,0.0,0.0,0.0,0.0,0.0,-0.48,2.14,1.77,4.8,17.2,57.9,6.75,2.75,8.75,9.25,8.75,5.5,0.5,3.75,0.25,0.75,1.25,0.75,0.25,0.14,0.2,0.95,831.77,-11.2,46.0
0.92,0.0,0.0,0.0,0.0,0.0,0.0,0.0,0.0,0.0,1.0,0.0,0.0,0.0,-0.23,2.7,1.89,9.26,-15.7,-75.5,6.75,3.25,9.25,10.5,9.25,5.5,0.0,2.5,0.25,0.75,0.25,0.25,0.0,0.14,0.2,0.95,821.06,-12.3,54.0
0.94,0.0,0.0,0.0,0.0,0.0,0.0,0.0,0.0,0.0,0.0,0.0,0.0,0.0,-0.11,4.2,0.7,6.82,0.0,0.0,7.75,4.25,9.25,11.5,8.5,5.25,0.0,3.25,0.25,1.25,0.25,0.5,0.0,0.14,0.2,1.02,845.09,-12.5,52.6
0.96,0.0,0.0,0.0,0.0,0.0,0.0,1.0,0.0,0.0,0.0,0.0,0.0,0.0,0.95,4.83,-0.61,7.71,32.4,27.3,7.75,3.5,9.25,11.0,9.5,5.0,0.0,2.5,0.25,1.25,0.75,0.25,0.0,0.14,0.27,1.08,864.22,-12.7,52.8
0.98,0.0,0.0,0.25,0.0,0.0,0.0,0.0,0.0,0.25,2.5,0.0,0.5,0.75,1.33,1.77,0.89,29.53,-7.6,-75.3,8.0,4.25,11.0,12.5,8.75,5.25,0.0,2.25,0.0,1.0,0.75,0.0,0.25,0.08,0.27,1.14,907.45,-14.0,55.3
1.0,0.0,0.0,0.0,0.0,0.0,0.0,0.0,2.75,0.0,3.5,1.5,0.0,1.25,0.83,1.08,0.95,77.73,-11.4,-69.2,7.75,4.75,10.5,10.5,8.75,1.25,0.0,1.25,0.0,0.0,0.0,0.0,0.0,0.08,0.27,1.14,869.13,-17.9,65.0
1.02,0.0,1.25,0.0,0.0,0.0,0.0,0.0,3.25,1.25,3.0,0.75,0.5,2.0,-0.23,0.2,1.27,132.24,-7.1,-50.4,7.75,3.5,9.5,10.5,8.5,3.25,0.0,1.75,0.0,0.0,0.0,0.0,0.0,0.14,0.33,1.2,827.26,-15.7,61.8
1.04,0.0,1.5,0.75,0.25,0.0,0.0,0.0,3.25,1.5,2.5,1.75,0.5,1.0,-0.11,-0.05,0.83,174.81,-1.0,-34.7,7.25,4.5,10.5,9.0,8.5,3.0,0.0,0.5,0.0,0.0,0.0,0.0,0.0,0.14,0.33,1.45,766.57,-17.0,65.3
1.06,0.75,3.0,0.0,3.0,0.0,1.0,0.5,4.25,2.25,4.25,2.0,1.5,0.75,-0.17,0.14,0.89,240.54,0.7,-16.0,5.75,3.25,8.75,7.5,7.25,3.25,0.25,0.5,0.0,0.0,0.0,0.0,0.0,0.33,0.45,1.7,680.08,-16.1,63.6
1.08,1.75,3.25,3.75,3.75,0.0,1.0,0.75,5.0,3.0,4.25,3.25,1.5,1.75,-0.17,0.08,0.95,325.89,6.5,-7.0,5.25,1.75,6.75,5.5,5.75,2.25,0.0,0.5,0.0,0.0,0.0,0.25,0.0,0.27,0.58,2.14,552.54,-16.6,62.1
1.1,3.5,4.0,5.5,5.5,0.0,1.5,1.0,5.0,3.0,3.75,3.25,1.5,1.5,-0.17,0.02,1.02,449.07,9.9,7.9,1.5,0.5,5.25,2.75,3.0,1.0,0.0,0.75,0.0,0.0,0.0,0.0,0.0,0.14,1.27,2.45,377.04,-17.3,56.8
1.12,5.25,4.0,6.5,6.25,0.0,1.5,1.0,5.0,3.25,2.75,2.75,1.25,1.0,-0.11,0.02,0.95,573.69,12.8,18.9,0.5,0.25,2.75,1.75,1.75,1.0,0.0,0.5,0.0,0.0,0.0,0.25,0.0,0.02,0.83,2.02,240.97,-13.7,48.7
1.14,6.25,5.25,7.75,8.0,0.25,1.75,1.0,4.75,3.0,2.5,2.5,0.75,1.0,-0.17,0.02,0.95,695.4,14.2,29.2,0.5,0.25,2.5,1.5,2.5,1.0,0.0,0.5,0.0,1.25,0.0,0.75,0.0,0.02,0.14,1.58,135.82,-8.2,27.7
1.16,7.25,5.5,8.5,8.75,5.25,1.25,1.0,4.5,2.5,2.5,1.5,0.5,0.75,-0.11,0.02,1.02,816.6,13.8,38.9,1.75,0.75,2.75,2.25,2.25,2.25,0.25,0.75,0.0,1.25,1.0,0.25,0.0,0.02,-0.17,1.2,95.13,-9.1,34.2
1.18,8.0,6.5,9.0,8.75,0.0,1.5,1.0,3.75,1.75,1.25,1.0,0.5,0.75,-0.11,0.08,0.95,856.4,18.0,46.7,1.25,0.25,0.25,2.0,1.5,2.0,0.25,1.0,0.0,1.25,1.0,0.0,0.25,0.08,-0.3,1.58,66.98,-1.4,18.4
1.2,8.5,6.5,9.5,10.0,0.0,1.0,1.0,3.25,1.5,1.25,0.5,0.5,0.75,-0.11,0.08,1.08,869.67,19.3,50.7,1.75,0.5,2.5,1.5,2.5,2.0,0.25,1.0,0.0,1.25,1.0,0.0,0.5,-0.11,-0.61,1.2,86.47,-7.1,28.0
1.22,9.0,6.5,9.75,10.0,0.0,0.0,0.75,3.0,1.25,1.0,0.25,0.5,0.75,-0.17,0.14,1.2,839.6,21.0,54.2,1.25,0.25,2.25,2.0,2.25,1.75,0.25,0.75,0.0,1.25,1.0,0.0,0.5,-0.11,-0.55,0.89,96.61,-7.1,25.4
1.24,9.5,7.0,10.5,9.75,0.0,0.25,0.25,2.5,1.25,1.0,0.0,0.5,0.75,-0.17,0.14,1.33,816.33,21.6,57.1,1.5,0.25,1.75,1.5,1.75,1.5,0.25,1.0,0.0,1.5,1.0,0.0,0.5,-0.05,-0.3,0.7,111.57,-6.0,19.2
1.26,8.25,3.0,10.5,4.75,0.0,0.0,0.0,2.25,0.0,0.0,0.0,0.0,0.0,-0.17,0.14,1.2,685.5,26.7,66.6,1.25,0.25,1.75,1.5,1.75,1.5,0.25,1.0,0.25,1.25,1.0,0.5,0.5,0.02,0.08,0.58,118.52,-6.1,13.5
1.28,7.0,1.5,6.5,8.5,0.0,0.0,0.0,0.0,0.0,0.0,0.0,0.0,0.0,-0.17,0.2,1.08,543.69,27.7,72.4,1.5,0.25,1.75,1.75,1.75,1.0,0.25,1.0,0.0,1.5,1.0,0.25,0.25,0.02,0.33,0.45,134.08,-7.8,19.5
1.3,4.0,0.0,2.75,0.0,0.0,0.0,0.0,0.0,0.0,0.0,0.0,0.0,0.0,-0.17,0.27,1.02,323.64,36.4,81.9,0.5,0.0,0.0,0.5,0.0,0.25,0.0,0.5,0.0,0.0,0.0,0.0,0.0,0.02,0.58,0.02,99.39,-6.6,37.4
1.32,3.75,0.0,3.0,0.0,0.0,0.0,0.0,0.0,0.0,0.0,0.0,0.0,0.0,-0.17,0.33,1.08,192.67,36.5,80.6,0.5,0.0,0.25,0.5,0.25,1.0,0.25,0.75,0.0,0.0,0.0,0.0,0.0,0.2,0.89,-0.23,74.71,-1.1,33.9
1.34,3.75,0.0,2.0,0.0,0.0,0.0,0.0,0.0,0.0,0.0,0.0,0.0,0.0,-0.11,0.33,0.95,69.74,36.2,84.2,0.5,0.25,0.25,0.75,0.25,0.75,0.25,0.75,0.0,0.0,0.25,0.0,0.25,0.33,1.58,-0.55,54.05,-3.9,24.1
1.36,9.5,5.0,9.0,6.25,0.0,0.0,0.0,1.25,0.25,0.75,0.0,0.0,0.0,-0.05,0.39,0.83,157.27,25.3,68.8,0.5,0.0,0.25,0.5,0.5,1.25,0.25,0.75,0.0,0.5,0.25,0.0,0.25,0.2,1.83,-0.61,46.75,2.2,10.8
1.38,9.75,0.0,9.75,6.0,0.0,0.0,0.0,0.0,0.25,0.25,0.0,0.0,0.0,-0.05,0.45,0.77,220.51,31.2,70.9,1.5,0.25,0.25,1.0,1.5,0.75,0.75,1.0,0.0,0.0,1.25,0.0,0.25,0.2,1.58,-0.3,60.56,-7.6,25.1
1.4,9.25,0.0,9.0,6.0,0.0,0.0,0.0,0.0,0.0,0.0,0.0,0.0,0.0,-0.05,0.58,0.89,283.69,31.6,73.3,1.5,0.25,0.0,0.75,0.0,0.25,0.0,0.5,0.0,0.0,0.0,0.0,0.0,0.7,2.39,-1.11,56.07,-16.3,61.8
1.42,9.25,0.0,9.25,7.5,0.0,0.0,0.0,0.0,0.0,0.75,0.0,0.0,0.0,-0.05,0.58,0.89,322.01,29.5,68.1,0.5,0.0,0.0,0.5,0.0,1.0,0.0,0.5,0.0,0.0,0.0,0.0,0.0,1.33,3.89,-1.48,47.71,1.9,36.4
1.44,10.5,0.0,9.5,8.5,0.0,0.0,0.0,0.0,0.5,0.75,0.0,0.5,0.0,0.02,0.58,0.52,365.42,28.7,64.2,0.0,0.0,1.5,0.5,1.75,1.0,0.25,0.5,0.0,0.0,0.0,0.25,0.0,0.77,1.02,1.33,46.58,-6.3,37.5
1.46,11.5,0.0,9.75,8.75,0.0,0.0,0.0,0.0,0.5,1.0,0.0,0.5,0.5,0.08,0.7,0.52,408.64,27.9,61.2,0.5,0.0,0.0,0.0,0.0,0.75,0.0,0.5,0.0,0.0,0.0,0.0,0.0,0.89,0.45,-1.17,34.43,4.9,30.1
1.48,11.5,0.0,10.0,9.0,0.0,0.0,0.0,0.0,0.5,1.0,0.0,0.0,0.0,0.14,0.83,0.58,465.27,28.8,66.6,0.5,0.0,0.0,0.75,0.25,1.5,0.25,0.75,0.0,1.5,0.0,0.25,0.0,1.83,2.2,-2.42,47.38,6.0,-2.0
1.5,11.0,0.0,9.5,9.25,0.0,0.0,0.25,0.0,0.25,1.0,0.0,0.0,0.5,0.14,0.89,0.77,518.06,27.9,64.0,0.5,0.0,1.0,0.5,2.25,1.0,0.25,0.75,0.0,0.0,0.0,0.0,0.0,1.58,1.83,-0.55,66.04,-4.0,44.2
1.52,10.5,0.0,9.25,9.25,0.0,0.0,0.5,0.0,0.75,0.75,0.0,0.0,0.0,0.08,0.83,0.33,531.59,28.6,65.7,0.5,0.0,0.25,0.5,0.0,1.0,0.25,0.75,0.0,0.0,0.0,0.25,0.0,0.64,0.27,0.33,72.43,-2.1,21.3
1.54,9.25,0.0,9.0,9.0,0.0,0.0,1.0,0.0,0.5,0.5,0.0,0.0,0.0,0.27,0.89,0.27,521.3,28.9,66.4,0.5,0.0,0.25,1.25,0.0,1.25,0.25,0.75,0.0,1.25,0.0,0.25,0.0,0.7,-0.23,0.39,83.24,0.7,5.3
1.56,8.5,0.0,8.5,8.75,0.0,0.0,1.0,0.0,0.5,0.75,0.0,0.0,0.0,0.39,0.89,0.2,480.5,28.2,64.5,1.0,0.25,0.5,1.0,1.75,1.25,0.25,0.75,0.0,1.0,1.0,0.25,0.5,0.08,0.14,0.33,103.97,-2.2,10.3
1.58,7.75,0.0,0.0,8.5,0.0,0.0,1.25,0.0,0.5,0.0,0.0,0.0,0.0,0.45,1.08,0.08,382.31,25.0,70.8,1.25,0.25,0.5,0.5,1.75,2.0,0.25,0.75,0.0,1.25,1.0,0.25,0.25,-0.17,0.58,0.2,127.73,-0.3,12.5
1.6,7.0,0.0,8.0,7.75,0.0,0.0,1.25,0.0,0.75,0.0,0.0,0.0,0.0,0.58,1.02,0.08,338.95,29.3,66.0,0.75,0.25,0.5,0.5,1.75,1.25,0.25,0.75,0.0,1.5,1.0,0.25,0.25,-0.23,0.77,0.02,141.61,0.0,4.0
1.62,6.25,0.0,7.25,7.5,0.0,0.0,1.0,0.0,0.5,0.0,0.0,0.0,0.0,0.77,0.89,-0.17,314.77,29.2,66.6,1.25,0.25,0.5,0.5,1.75,1.25,0.25,0.75,0.0,1.25,1.0,0.25,0.25,-0.17,1.08,-0.11,151.56,-2.1,10.9
1.64,5.25,0.0,7.25,6.0,0.0,0.0,0.75,0.0,0.25,0.75,0.0,0.0,0.0,0.45,1.02,-0.23,297.63,28.4,62.1,0.5,0.5,0.5,0.25,1.75,1.25,0.25,0.75,0.0,1.25,1.0,0.25,0.25,-0.11,1.27,-0.17,153.45,0.6,5.0
1.66,3.75,0.0,5.0,4.0,0.0,0.0,0.5,0.0,0.5,0.0,0.0,0.0,0.0,0.45,1.52,-0.42,254.94,29.8,65.3,1.25,0.25,0.25,1.25,1.75,1.0,0.25,1.0,0.0,0.0,1.0,0.0,0.25,-0.11,1.45,-0.3,148.65,-5.0,28.2
1.68,0.0,0.0,3.75,1.75,0.0,0.0,0.0,0.0,0.5,0.75,0.0,0.0,0.5,0.14,2.64,-0.36,188.25,22.3,28.0,0.5,0.0,0.25,0.75,0.5,0.75,0.25,0.75,0.0,0.0,0.75,0.25,0.0,-0.17,1.64,-0.48,124.48,-4.9,11.6
1.7,0.0,0.0,0.0,0.5,0.0,0.0,0.0,0.0,0.0,0.0,0.0,0.0,0.0,-0.17,3.83,0.08,84.37,17.2,57.9,1.0,0.0,0.25,0.5,0.25,1.0,0.25,0.75,0.0,0.0,1.25,0.0,0.0,0.02,2.33,-0.42,108.41,-6.6,13.5
1.72,0.0,0.0,0.0,1.0,0.0,0.0,0.0,0.0,0.25,0.0,0.0,0.0,0.0,-0.3,3.58,2.02,1.78,16.2,39.5,1.0,0.25,0.25,1.25,2.25,1.0,0.25,1.0,0.0,1.0,1.0,0.25,0.25,1.33,4.58,0.58,113.22,-1.8,14.1
1.74,0.0,0.0,0.0,0.0,0.0,0.0,0.0,0.0,0.0,0.0,0.0,0.0,0.0,0.27,0.77,1.27,0.0,0.0,0.0,0.75,0.25,0.5,0.5,1.75,1.25,0.25,0.75,0.0,1.25,1.0,0.5,0.25,0.52,3.95,0.89,122.61,-0.6,3.1
1.76,0.0,0.0,0.0,0.0,0.0,0.0,0.0,0.0,0.0,0.0,0.0,0.0,0.0,-1.11,-2.17,-1.48,0.0,0.0,0.0,1.25,0.25,0.5,0.5,1.75,1.25,0.25,0.75,0.0,1.5,1.0,0.5,0.5,-0.17,1.83,-1.23,139.35,-1.4,2.6
1.78,0.0,0.0,0.0,0.5,0.0,0.0,0.0,0.0,0.0,0.0,0.0,0.0,0.0,-1.8,-2.48,-1.36,0.0,17.2,57.9,1.0,0.25,0.75,0.5,1.5,0.75,0.25,0.75,0.0,1.25,1.0,0.5,0.5,-0.67,-0.36,-1.11,140.67,-3.5,0.7
1.8,0.0,0.0,0.0,1.75,0.0,0.0,0.0,0.0,0.0,0.0,0.0,0.0,0.0,-0.55,-2.61,-0.8,0.0,17.2,57.9,1.0,0.5,0.5,1.0,1.75,1.25,0.25,0.75,0.0,1.25,1.0,0.5,0.5,0.2,-4.11,-0.55,146.8,-2.1,7.6
1.82,0.0,0.0,0.0,0.25,0.0,0.0,0.0,0.0,0.0,0.0,0.0,0.0,0.0,0.14,-1.8,-0.36,0.0,17.2,57.9,1.25,0.25,0.5,1.25,1.75,1.0,0.25,0.75,0.0,1.25,1.0,0.25,0.25,1.02,-3.05,0.45,148.32,-3.9,14.1
1.84,0.0,0.0,0.0,0.0,0.0,0.0,0.0,0.0,0.0,0.0,0.0,0.0,0.0,0.64,-0.42,0.02,0.0,0.0,0.0,1.25,0.25,0.5,0.5,1.75,1.5,0.25,0.75,0.0,0.75,1.0,0.5,0.25,0.77,-1.67,1.33,150.45,-2.6,12.9
1.86,0.0,0.0,0.0,0.0,0.0,0.0,0.0,0.0,0.0,0.0,0.0,0.0,0.0,2.39,-0.17,0.08,0.0,0.0,0.0,1.0,0.25,0.25,0.75,1.75,1.25,0.25,0.75,0.0,0.75,1.0,0.0,0.25,-0.17,-1.3,1.64,145.37,-1.4,17.2
1.88,0.0,0.0,0.0,0.0,0.0,0.0,0.0,0.0,0.0,0.0,0.0,0.0,0.0,1.77,6.33,1.77,0.0,0.0,0.0,0.5,0.25,0.0,0.5,1.75,1.25,0.25,0.75,0.0,0.25,1.0,0.25,0.5,-6.67,-0.73,0.45,135.23,1.6,6.6
1.9,0.0,0.0,0.0,0.25,0.0,0.0,0.0,0.0,0.0,0.0,0.0,0.0,0.0,0.95,3.27,0.45,0.0,17.2,57.9,1.0,0.25,0.0,0.5,1.5,1.25,0.25,0.75,0.0,1.5,1.0,0.5,0.5,-0.05,1.83,0.27,132.71,1.3,-4.7
1.92,0.0,0.0,0.0,1.25,0.0,0.0,4.75,0.0,3.0,0.0,0.0,0.0,0.0,0.7,1.77,-0.73,29.67,20.2,3.6,0.75,0.25,0.5,0.5,1.75,1.0,0.25,0.75,0.0,0.5,1.0,0.5,0.25,0.33,2.33,0.45,129.2,-2.8,9.5
1.94,0.0,0.0,0.0,0.0,0.0,0.0,4.25,0.0,0.0,0.0,0.0,0.0,0.0,0.39,1.2,0.52,45.5,32.4,27.4,1.0,0.25,0.25,0.5,1.5,1.25,0.25,0.75,0.0,1.0,1.0,0.25,0.25,-0.86,2.83,0.52,126.36,-0.8,8.0
1.96,0.0,0.0,0.0,1.25,0.0,0.0,4.0,0.0,3.5,0.0,0.0,0.0,0.0,0.02,0.7,0.45,76.71,18.9,-0.7,1.25,0.25,0.25,0.5,1.5,1.5,0.25,0.75,0.0,1.25,1.0,0.5,0.5,-0.67,2.77,-0.73,127.7,-0.4,2.3
1.98,0.0,0.0,0.0,0.0,0.0,0.0,4.25,0.0,3.0,0.0,0.0,0.0,0.0,-0.05,0.58,0.77,84.68,20.4,-11.7,0.75,0.25,0.5,0.75,1.5,1.0,0.25,0.75,0.0,1.0,1.25,0.5,0.25,0.83,3.58,-1.42,130.58,-2.6,2.3
2.0,0.0,0.0,0.0,0.0,0.0,0.0,4.5,0.0,3.0,0.0,0.0,0.0,0.0,0.14,0.58,0.7,93.6,20.7,-10.7,1.0,0.25,0.25,1.5,1.75,1.0,0.25,0.75,0.0,1.25,1.0,0.5,0.25,0.39,3.64,-0.98,136.96,-2.7,8.9
2.02,0.0,0.0,0.0,0.0,0.0,0.0,4.0,0.0,3.0,0.0,0.0,0.0,0.0,0.14,0.7,0.39,89.79,20.1,-12.6,1.0,0.25,0.0,0.5,1.75,1.0,0.25,0.75,0.25,1.25,1.0,0.25,0.25,0.27,2.89,-0.61,135.73,0.0,3.4
2.04,0.0,0.0,0.0,0.0,0.0,0.0,4.0,0.0,3.0,0.0,0.0,0.0,0.0,0.08,1.02,-0.23,90.42,20.1,-12.6,1.0,0.25,0.25,0.5,1.75,0.5,0.25,0.75,0.0,1.25,1.0,0.75,0.25,0.14,2.08,-0.05,134.02,-2.6,-1.8
2.06,0.0,0.0,0.0,0.0,0.0,0.0,4.25,0.0,3.0,0.0,0.0,0.0,0.0,0.08,1.08,-0.42,89.92,20.4,-11.7,1.0,0.25,0.0,0.75,1.5,1.0,0.25,0.75,0.0,1.75,1.0,0.75,0.5,-0.05,1.33,0.02,135.09,0.4,-8.6
2.08,0.0,0.0,0.0,0.0,0.0,0.0,4.25,0.0,3.0,0.0,0.0,0.0,0.0,0.2,1.08,-0.67,88.38,20.4,-11.7,0.5,0.25,0.0,0.5,1.0,1.5,0.25,0.75,0.0,0.75,1.0,0.75,0.25,-0.05,0.77,-0.11,128.4,1.9,-7.2
2.1,1.0,0.0,0.0,0.5,0.0,0.0,4.5,0.0,3.25,0.25,0.0,0.0,0.0,0.27,1.08,-0.73,98.45,20.7,5.3,0.75,0.25,0.5,0.5,1.5,1.25,0.25,0.75,0.0,1.0,1.0,0.25,0.5,0.02,0.33,-0.36,128.09,-0.5,3.6
2.12,1.5,0.0,1.0,1.0,0.0,0.0,4.0,0.0,3.25,0.25,0.0,0.0,0.0,0.33,1.14,-0.67,115.96,23.0,19.2,1.0,0.5,0.25,0.75,1.5,1.25,0.25,0.75,0.0,1.25,1.25,0.5,0.25,-0.11,0.14,-0.36,131.62,-1.6,4.4
2.14,2.0,0.0,0.0,1.25,0.0,0.0,4.5,0.0,3.25,0.25,0.0,0.0,0.0,0.39,1.27,-0.67,130.77,21.9,19.9,0.75,0.25,0.0,1.0,1.5,0.75,0.25,0.75,0.0,0.5,1.0,0.75,0.25,-0.36,0.02,-0.3,128.34,-2.6,3.2
2.16,1.5,0.0,1.25,1.25,0.0,0.0,3.75,0.0,3.0,0.25,0.0,0.0,0.0,0.39,1.33,-0.61,140.76,23.4,23.0,0.5,0.25,0.0,0.5,1.75,1.0,0.25,0.75,0.0,1.25,1.0,0.5,0.25,-0.42,0.08,-0.23,125.79,2.0,-4.2
2.18,1.5,0.0,1.5,1.25,0.0,0.0,3.75,0.0,3.0,0.5,0.0,0.0,0.0,0.27,1.33,-0.48,151.95,22.8,21.4,0.75,0.25,0.0,0.5,1.25,0.75,0.25,0.75,0.0,1.0,1.0,0.5,0.25,-0.48,0.33,-0.11,117.97,-0.3,-4.3
2.2,1.5,0.0,1.5,1.25,0.0,0.0,3.75,0.0,3.0,0.0,0.0,0.0,0.0,0.14,1.14,-0.42,152.63,24.9,26.8,0.5,0.25,0.0,0.5,1.5,0.75,0.25,0.75,0.0,1.5,1.0,0.75,0.5,-0.48,0.58,-0.11,116.17,1.8,-15.9
2.22,1.5,0.0,1.0,1.25,0.0,0.0,4.25,0.0,3.25,0.0,0.0,0.0,0.0,0.14,0.89,-0.36,154.27,24.0,23.1,1.0,0.25,0.0,0.5,1.5,0.75,0.25,0.75,0.0,0.75,1.0,0.5,0.25,-0.48,0.64,-0.11,113.01,-1.8,3.4
2.24,2.5,0.0,1.0,1.25,0.0,0.0,4.5,0.0,3.5,0.25,0.0,0.0,0.0,0.14,0.77,-0.23,161.17,23.8,26.0,1.25,0.25,0.25,0.5,1.75,1.0,0.25,0.75,0.0,1.25,1.0,0.0,0.25,-0.42,0.77,-0.23,118.75,-1.5,12.2
2.26,1.5,0.0,1.25,1.0,0.0,0.0,3.75,0.0,3.0,0.75,0.0,0.5,0.0,0.08,0.64,-0.17,162.13,20.8,10.2,0.5,0.25,0.0,0.5,1.5,1.0,0.25,0.75,0.0,0.0,1.0,0.25,0.25,-0.36,0.89,-0.42,112.66,-0.2,11.5
2.28,0.25,0.0,0.5,0.5,0.0,0.0,0.0,0.0,0.25,0.0,0.0,0.25,0.0,0.08,0.58,-0.17,123.57,23.8,27.0,1.5,0.25,0.0,0.25,1.0,0.75,0.25,0.75,0.0,1.25,1.0,0.5,0.25,-0.3,0.95,-0.48,112.6,-2.5,-1.6
2.3,0.0,0.0,0.5,0.25,0.0,0.0,0.0,0.0,0.25,0.0,0.0,0.0,0.0,0.14,0.58,-0.17,78.4,26.6,36.2,1.0,0.25,0.0,0.5,1.75,1.25,0.25,0.75,0.0,1.5,1.0,0.75,0.25,-0.23,1.02,-0.48,118.39,0.8,-2.8
2.32,0.5,0.0,0.75,0.0,0.0,0.0,0.25,0.0,0.25,0.0,0.0,0.25,0.0,0.14,0.58,-0.23,38.76,29.6,31.9,0.75,0.25,0.0,0.5,1.75,1.0,0.25,0.75,0.25,1.0,1.0,0.5,0.25,-0.17,1.02,-0.48,123.64,0.1,-0.2
2.34,3.0,0.0,1.5,1.0,0.0,0.0,4.0,0.0,2.75,0.0,0.0,0.5,0.0,0.2,0.52,-0.3,64.93,26.1,30.6,1.0,0.25,0.5,0.5,1.75,1.0,0.25,0.75,0.0,1.0,1.0,0.25,0.25,-0.17,0.95,-0.48,127.67,-2.4,10.4
2.36,1.5,0.0,1.5,1.25,0.0,0.0,3.75,0.0,3.25,0.5,0.0,0.5,0.0,0.2,0.52,-0.36,97.11,21.8,13.6,1.0,0.25,0.25,0.5,0.5,1.25,0.25,0.75,0.0,1.0,1.0,0.5,0.25,-0.11,0.89,-0.42,123.74,-1.7,-3.1
2.38,2.75,0.0,1.5,1.25,0.0,0.0,3.5,0.0,3.0,0.75,0.0,0.0,0.0,0.2,0.58,-0.48,137.94,23.1,27.4,0.75,0.25,0.0,0.5,1.25,1.0,0.25,0.75,0.0,1.5,1.0,0.5,0.25,-0.11,0.83,-0.42,123.18,1.3,-7.6
2.4,1.5,0.0,1.0,1.0,0.0,0.0,3.75,0.0,3.0,0.0,0.0,0.0,0.0,0.27,0.7,-0.55,144.91,24.3,23.7,1.25,0.25,0.0,0.5,1.75,1.0,0.25,0.5,0.0,1.25,1.0,0.5,0.5,-0.11,0.83,-0.36,124.18,-0.9,1.8
2.42,1.5,0.0,0.75,1.0,0.0,0.0,3.75,0.0,3.0,0.0,0.0,0.0,0.0,0.33,0.77,-0.73,142.44,23.9,22.5,0.75,0.25,0.0,0.5,1.25,1.0,0.25,0.75,0.0,1.5,1.0,0.25,0.25,-0.17,0.83,-0.42,123.29,1.6,-4.3
2.44,1.5,0.0,1.25,1.0,0.0,0.0,3.75,0.0,2.75,0.0,0.0,0.25,0.0,0.33,0.83,-0.73,135.74,24.7,22.7,1.0,0.5,0.5,1.25,1.5,1.0,0.25,0.75,0.0,1.0,1.0,0.5,0.25,-0.23,0.83,-0.55,131.53,-4.2,12.3
2.46,1.5,0.0,1.5,1.0,0.0,0.0,3.75,0.0,2.75,0.0,0.0,0.0,0.0,0.33,0.89,-0.8,135.61,25.5,27.8,0.5,0.0,0.25,0.5,1.5,1.0,0.25,0.75,0.25,1.25,1.0,0.5,0.5,-0.3,0.89,-0.61,130.8,1.1,-11.7
2.48,1.5,0.0,1.5,1.25,0.0,0.0,3.75,0.0,2.75,0.0,0.0,0.0,0.0,0.27,0.89,-0.73,140.03,25.3,28.7,0.75,0.25,0.0,0.5,1.75,1.25,0.25,0.75,0.0,1.0,1.0,0.5,0.25,-0.36,0.89,-0.67,131.21,1.2,1.9
2.5,1.5,0.0,1.0,1.25,0.0,0.0,3.75,0.0,2.75,0.0,0.0,0.0,0.0,0.14,0.95,-0.67,143.7,24.5,26.6,0.25,0.0,0.25,0.0,1.0,0.75,0.5,1.0,0.0,0.0,0.5,0.0,0.0,-0.36,0.89,-0.73,108.47,1.4,13.6
2.52,1.5,0.0,1.25,1.25,0.0,0.0,3.75,0.0,2.75,0.0,0.0,0.0,0.0,0.14,0.95,-0.61,147.48,24.9,27.7,0.0,0.0,0.0,0.0,0.0,0.0,0.0,0.5,0.0,0.0,0.0,0.0,0.0,-0.36,0.89,-0.67,67.81,16.7,-38.7
2.54,1.25,0.0,1.0,1.0,0.0,0.0,3.75,0.0,2.5,0.0,0.0,0.0,0.0,0.2,0.95,-0.55,137.05,24.8,25.5,0.5,0.0,0.0,0.75,0.0,1.25,0.0,0.5,0.0,1.25,0.0,0.5,0.0,-0.36,0.89,-0.61,50.7,4.4,-7.9
2.56,1.25,0.0,2.0,0.75,0.0,0.0,2.75,0.0,2.25,0.0,0.0,0.0,0.0,0.2,0.89,-0.48,126.79,26.8,31.2,0.5,0.25,0.0,0.5,1.0,1.0,0.25,0.75,0.0,1.25,1.0,0.75,0.5,-0.3,0.89,-0.55,61.23,1.9,-17.6
2.58,0.5,0.0,1.25,1.0,0.0,0.0,3.0,0.0,3.25,0.0,0.0,0.0,0.0,0.27,0.89,-0.48,114.66,22.7,13.4,0.75,0.25,0.25,0.5,1.0,1.0,0.25,0.75,0.0,1.0,1.0,0.5,0.25,-0.36,0.89,-0.48,80.71,-1.0,-3.1
2.6,2.25,0.0,1.5,1.25,0.0,0.0,4.0,0.0,3.5,0.0,0.0,0.25,0.0,0.27,0.89,-0.42,129.84,24.7,25.3,0.75,0.25,0.0,0.5,1.25,0.5,0.25,0.75,0.0,1.25,1.0,0.5,0.25,-0.36,0.83,-0.42,96.86,-0.5,-8.0
2.62,3.0,0.0,1.5,1.0,0.0,0.0,3.5,0.0,3.25,0.0,0.0,0.5,0.25,0.2,0.89,-0.42,146.13,24.4,24.3,0.5,0.25,0.0,0.5,1.75,0.5,0.25,0.75,0.0,1.0,1.0,0.5,0.25,-0.36,0.83,-0.42,105.78,0.2,-4.2
2.64,2.75,0.0,2.0,1.0,0.0,0.0,3.5,0.0,3.0,0.0,0.0,0.25,0.25,0.2,0.95,-0.42,162.59,25.5,29.0,1.0,0.25,0.0,0.5,1.0,1.0,0.25,0.5,0.0,1.0,1.0,0.25,0.0,-0.36,0.83,-0.36,104.96,-1.7,7.4
2.66,2.0,0.0,1.25,1.25,0.0,0.0,3.75,0.0,3.0,0.0,0.25,0.5,0.25,0.14,0.89,-0.42,166.22,23.0,16.7,0.5,0.25,0.0,0.5,1.0,1.0,0.25,0.75,0.0,1.25,1.0,0.0,0.25,-0.3,0.83,-0.36,103.47,2.7,-3.8
2.68,2.5,0.0,1.25,1.0,0.0,0.0,3.75,0.0,3.0,0.0,0.0,0.75,0.25,0.14,0.89,-0.42,167.01,23.6,18.4,0.75,0.25,0.0,0.5,1.0,1.0,0.25,0.75,0.0,1.5,1.0,0.5,0.25,-0.3,0.83,-0.36,107.37,1.2,-9.9
2.7,1.25,0.0,1.5,1.25,0.0,0.0,3.75,0.0,3.0,0.0,0.0,0.5,0.25,0.14,0.95,-0.48,160.6,22.8,14.3,0.75,0.25,0.0,0.5,1.25,1.0,0.25,0.5,0.0,1.25,1.0,0.5,0.25,-0.3,0.77,-0.36,113.48,0.3,-4.3
2.72,1.25,0.0,1.5,1.25,0.0,0.0,3.75,0.0,3.0,0.0,0.0,0.5,0.25,0.14,0.89,-0.48,155.9,22.8,14.3,0.5,0.25,0.0,0.5,1.5,1.0,0.25,0.75,0.0,1.25,1.0,0.5,0.25,-0.3,0.83,-0.42,119.56,2.0,-6.3
2.74,2.5,0.0,2.0,1.75,0.0,0.0,3.5,0.0,3.25,0.0,0.0,0.75,0.25,0.14,0.89,-0.55,165.5,23.8,22.4,0.75,0.25,0.25,0.5,0.5,1.0,0.25,0.75,0.0,1.0,1.0,0.25,0.25,-0.23,0.83,-0.42,119.07,-1.1,-4.0
2.76,0.0,0.0,0.5,0.25,0.0,0.0,0.0,0.0,0.0,0.0,0.0,0.0,0.5,0.14,0.89,-0.55,122.07,13.2,-7.7,0.5,0.25,0.0,0.5,1.25,1.0,0.25,0.75,0.0,1.25,1.0,0.25,0.25,-0.23,0.83,-0.48,117.43,2.3,-5.2
2.78,0.0,0.0,0.25,0.0,0.0,0.0,0.0,0.0,0.25,0.0,0.0,0.5,0.0,0.2,0.83,-0.55,78.16,17.2,-48.3,0.5,0.25,0.0,0.5,1.0,1.0,0.25,0.75,0.0,1.25,1.0,0.75,0.25,-0.23,0.89,-0.55,110.9,1.5,-14.4
2.8,0.0,0.0,0.75,0.0,0.0,0.0,0.0,0.0,0.25,0.0,0.0,0.5,0.5,0.14,0.83,-0.55,34.56,14.7,-36.2,0.5,0.25,0.0,0.5,0.5,1.0,0.5,0.75,0.0,1.0,1.75,0.5,0.25,-0.3,0.83,-0.55,108.21,-0.5,-19.9
2.82,0.0,0.0,0.5,0.25,0.0,0.0,0.0,0.0,0.25,0.0,0.0,0.5,0.5,0.14,0.83,-0.48,12.43,12.0,-36.4,0.75,0.0,0.25,0.75,1.5,1.0,0.25,1.0,0.0,0.75,1.75,0.0,0.25,-0.3,0.83,-0.55,114.17,-1.2,0.7
2.84,0.0,0.0,0.25,0.0,0.0,0.0,0.0,0.0,0.25,0.0,0.0,0.5,0.5,0.2,0.77,-0.48,0.0,6.7,-69.2,0.25,0.25,0.0,0.5,0.0,1.0,0.0,0.5,0.0,1.25,0.0,0.5,0.0,-0.3,0.83,-0.48,99.14,5.8,-13.6
2.86,0.0,0.0,0.75,0.25,0.0,0.0,0.0,0.0,0.5,0.0,0.0,0.5,0.5,0.14,0.77,-0.48,2.57,14.7,-26.7,1.0,0.25,0.25,0.5,1.0,1.0,0.25,0.75,0.0,1.25,1.0,0.0,0.5,-0.3,0.83,-0.48,102.79,-0.5,0.9
2.88,0.0,0.0,0.75,0.25,0.0,0.0,0.0,0.0,0.25,0.0,0.0,0.5,0.25,0.14,0.77,-0.48,4.83,18.6,-14.8,0.0,0.0,0.0,0.0,0.0,0.0,0.0,0.5,0.0,0.0,0.0,0.0,0.0,-0.23,0.83,-0.48,66.89,16.7,-38.7
2.9,0.0,0.0,0.75,0.0,0.0,0.0,0.0,0.0,0.25,0.0,0.0,0.5,0.5,0.2,0.83,-0.48,5.88,14.7,-36.2,0.0,0.0,0.0,0.0,0.0,0.0,0.0,0.5,0.0,0.0,0.0,0.0,0.0,-0.3,0.83,-0.48,39.02,16.7,-38.7
2.92,0.0,0.0,0.5,0.25,0.0,0.0,0.0,0.0,0.25,0.0,0.0,0.5,0.25,0.2,0.83,-0.48,6.49,15.8,-25.7,0.25,0.0,0.0,0.0,0.0,0.25,0.0,0.5,0.0,0.0,0.0,0.0,0.0,-0.3,0.89,-0.48,10.46,5.8,11.8
2.94,0.0,0.0,0.75,0.25,0.0,0.0,0.0,0.0,0.25,0.0,0.0,0.5,0.5,0.2,0.89,-0.48,12.4,15.0,-25.4,0.25,0.0,0.0,0.0,0.0,0.75,0.0,0.5,0.0,1.0,0.0,0.5,0.0,-0.3,0.89,-0.42,10.91,9.4,-34.9
2.96,0.0,0.0,0.75,0.0,0.0,0.0,0.0,0.0,0.0,0.0,0.0,0.5,0.5,0.2,0.89,-0.48,15.36,15.1,-35.9,0.5,0.5,0.0,0.5,1.5,1.0,0.25,0.75,0.25,1.25,1.0,0.5,0.25,-0.3,0.89,-0.48,44.38,1.1,-4.0
2.98,0.0,0.0,0.5,0.25,0.0,0.0,0.0,0.0,0.25,0.0,0.0,0.5,0.5,0.27,0.89,-0.48,22.14,12.0,-36.4,0.5,0.25,0.0,1.0,1.75,0.75,0.25,0.75,0.0,0.75,1.0,0.25,0.25,-0.36,0.89,-0.48,78.01,-0.4,7.0
3.0,0.0,0.0,0.75,0.0,0.0,0.0,0.25,0.0,0.0,0.0,0.0,0.0,0.0,0.27,0.89,-0.48,26.91,37.5,56.4,0.5,0.25,0.0,0.5,1.0,0.75,0.25,0.75,0.0,1.0,1.0,0.25,0.25,-0.36,0.89,-0.42,97.34,1.0,-6.5
3.02,0.0,0.0,0.0,0.0,0.0,0.0,0.0,0.0,0.0,0.0,0.0,0.0,0.0,0.27,0.89,-0.48,16.27,0.0,0.0,0.75,0.25,0.0,0.5,1.0,0.5,0.25,0.5,0.0,1.25,1.0,0.75,0.25,-0.36,0.89,-0.42,104.82,-1.6,-13.1
3.04,0.0,0.0,0.25,0.0,0.0,0.0,0.0,0.0,0.0,0.0,0.0,0.0,0.0,0.27,0.89,-0.48,6.92,38.2,60.9,0.5,0.25,0.25,0.5,1.25,2.0,0.25,0.75,0.0,1.25,1.0,0.5,0.25,-0.36,0.89,-0.42,117.24,3.0,-1.9
3.06,0.0,0.0,0.0,0.0,0.0,0.0,0.0,0.0,0.0,0.0,0.0,0.0,0.0,0.27,0.95,-0.48,0.0,0.0,0.0,0.75,0.0,0.0,0.0,1.25,0.0,0.25,0.75,0.0,0.0,1.0,0.0,0.25,-0.36,0.89,-0.42,105.26,-4.2,4.4
3.08,0.0,0.0,0.25,0.0,0.0,0.0,0.0,0.0,0.0,0.0,0.0,0.0,0.0,0.27,0.95,-0.48,0.0,38.2,60.9,0.25,0.0,0.0,0.0,0.0,0.0,0.0,0.5,0.0,0.0,0.0,0.0,0.0,-0.36,0.89,-0.42,79.0,0.3,4.7
3.1,0.0,0.0,0.25,0.0,0.0,0.0,0.0,0.0,0.0,0.0,0.0,0.0,0.0,0.27,0.89,-0.48,0.0,38.2,60.9,0.0,0.0,0.0,0.0,0.0,0.0,0.0,0.5,0.0,0.0,0.0,0.0,0.0,-0.36,0.83,-0.42,46.35,16.7,-38.7
3.12,0.0,0.0,0.25,0.0,0.0,0.0,0.0,0.0,0.25,0.0,0.0,0.0,0.0,0.27,0.89,-0.48,0.0,25.5,12.2,0.25,0.0,0.0,0.0,0.0,0.25,0.0,0.5,0.0,0.0,0.0,0.0,0.0,-0.36,0.83,-0.48,26.95,5.8,11.8
3.14,0.0,0.0,0.25,0.0,0.0,0.0,0.0,0.0,0.25,0.0,0.0,0.0,0.0,0.14,0.89,-0.48,1.47,25.5,12.2,0.0,0.0,0.0,0.0,0.0,0.0,0.0,0.5,0.0,0.0,0.0,0.0,0.0,-0.36,0.89,-0.48,7.79,16.7,-38.7
3.16,0.0,0.0,0.5,0.0,0.0,0.0,0.0,0.0,0.25,0.0,0.0,0.0,0.0,0.14,0.89,-0.48,4.94,29.8,28.7,0.25,0.0,0.0,0.0,0.0,0.25,0.0,0.5,0.0,0.0,0.0,0.0,0.0,-0.42,0.89,-0.48,0.68,5.8,11.8
3.18,0.0,0.0,0.5,0.0,0.0,0.0,0.0,0.0,0.25,0.0,0.0,0.0,0.0,0.14,0.89,-0.48,7.53,29.8,28.7,0.25,0.0,0.0,0.0,0.0,0.5,0.25,0.5,0.0,0.0,0.0,0.75,0.0,-0.42,0.89,-0.42,2.12,0.2,-28.5
3.2,0.0,0.0,0.25,0.0,0.0,0.0,0.0,0.0,0.25,0.0,0.0,0.0,0.0,0.14,0.89,-0.48,8.86,25.5,12.2,1.0,0.25,0.25,0.5,1.0,1.0,0.25,0.75,0.0,1.25,1.0,0.5,0.25,-0.42,0.89,-0.42,37.43,-1.5,-2.4
3.22,0.0,0.0,0.0,0.0,0.0,0.0,0.0,0.0,0.25,0.0,0.0,0.0,0.0,0.14,0.89,-0.42,7.69,12.1,-38.5,0.5,0.25,0.0,0.5,1.5,1.0,0.25,0.5,0.0,0.5,1.0,0.5,0.25,-0.36,0.89,-0.48,68.0,0.0,2.4
3.24,0.0,0.0,0.25,0.25,0.0,0.0,0.0,0.0,0.25,0.0,0.0,0.5,0.25,0.52,0.83,-0.48,14.02,12.0,-40.4,1.0,0.5,0.25,0.5,1.25,0.0,0.25,0.75,0.0,0.0,1.0,0.0,0.25,-0.36,0.89,0.33,90.49,-8.9,24.0
3.26,0.0,0.0,0.0,0.0,0.0,0.0,0.0,0.0,0.25,0.0,0.0,0.5,0.25,0.39,0.89,-0.48,17.3,3.9,-92.3,0.5,0.25,0.0,0.5,0.25,1.0,0.25,0.75,0.0,1.25,1.0,0.5,0.25,-0.17,1.08,-0.55,99.0,1.7,-20.0
3.28,0.0,0.0,0.75,0.0,0.0,0.0,0.0,0.0,0.25,0.0,0.0,0.5,0.5,0.39,0.95,-0.48,24.91,14.7,-36.2,0.5,0.25,0.0,1.0,1.0,0.5,0.25,0.5,0.0,0.0,1.0,0.0,0.25,-0.61,0.7,-0.3,100.08,-4.8,17.6
3.3,0.0,0.0,0.5,0.0,0.0,0.0,0.0,0.0,0.25,0.0,0.0,0.5,0.0,0.45,0.95,-0.42,25.8,21.5,-26.0,0.5,0.25,0.25,0.0,1.5,0.0,0.25,0.75,0.0,0.0,1.0,0.0,0.25,-0.61,0.83,-0.42,98.19,-4.5,10.9
3.32,0.0,0.0,0.75,0.0,0.0,0.0,0.0,0.0,0.25,0.0,0.0,0.5,0.25,0.33,0.89,-0.42,28.67,18.8,-25.5,0.25,0.0,0.0,0.0,0.0,0.0,0.0,0.5,0.0,0.0,0.0,0.25,0.0,-0.55,0.83,-0.42,74.65,-2.0,-24.2
3.34,0.0,0.0,0.5,0.25,0.0,0.0,0.0,0.0,0.25,0.0,0.0,0.5,0.0,0.27,0.89,-0.42,27.61,20.8,-11.5,0.5,0.25,0.0,0.5,0.0,1.0,0.25,0.75,0.0,1.25,1.0,0.25,0.25,-0.55,0.83,-0.42,75.68,2.1,-19.9
3.36,0.0,0.0,0.5,0.25,0.0,0.0,0.0,0.0,0.25,0.0,0.0,0.5,0.25,0.2,0.89,-0.42,28.9,15.8,-25.7,0.75,0.25,0.0,0.5,1.0,0.75,0.25,0.75,0.0,1.5,1.0,0.5,0.25,-0.48,0.89,-0.42,84.91,0.5,-11.3
3.38,0.0,0.0,0.5,0.0,0.0,0.0,0.0,0.0,0.25,0.0,0.0,0.5,0.0,0.2,0.95,-0.42,26.48,21.5,-26.0,0.75,0.25,0.0,0.5,1.25,0.75,0.25,0.75,0.0,0.0,1.25,0.5,0.25,-0.42,0.95,-0.42,97.43,-3.2,4.0
3.4,0.25,0.0,0.5,0.0,0.0,0.0,0.0,0.0,0.25,0.0,0.0,0.5,0.0,0.14,0.95,-0.42,26.15,23.6,-6.6,1.25,0.25,0.25,0.25,1.0,1.25,0.25,0.75,0.0,1.0,1.0,0.5,0.25,-0.36,0.89,-0.42,110.04,-1.8,1.9
3.42,0.25,0.0,0.75,0.25,0.0,0.0,0.0,0.0,0.25,0.0,0.0,0.5,0.0,0.2,1.02,-0.42,28.51,24.7,10.4,1.0,0.5,0.0,0.75,1.0,1.0,0.25,0.5,0.0,0.75,1.0,0.5,0.25,-0.36,0.89,-0.42,115.66,-3.0,7.1
3.44,0.25,0.0,0.75,0.0,0.0,0.0,0.0,0.0,0.25,0.0,0.0,0.5,0.0,0.27,1.02,-0.42,29.8,25.8,3.3,0.5,0.25,0.0,0.5,1.0,1.0,0.25,0.5,0.0,2.0,1.0,0.5,0.25,-0.3,0.89,-0.42,116.12,2.7,-16.5
3.46,0.25,0.0,0.5,0.0,0.0,0.0,0.0,0.0,0.25,0.0,0.0,0.5,0.0,0.27,0.95,-0.42,28.85,23.6,-6.6,0.75,0.25,0.0,0.5,1.0,0.75,0.25,0.5,0.0,1.0,1.0,0.5,0.25,-0.36,0.83,-0.42,114.08,-1.1,-5.5
3.48,0.25,0.0,0.75,0.0,0.0,0.0,0.0,0.0,0.25,0.0,0.0,0.5,0.0,0.33,0.95,-0.42,28.05,25.8,3.3,0.5,0.25,0.0,0.5,1.25,1.0,0.25,0.75,0.0,1.25,1.0,0.75,0.25,-0.42,0.89,-0.36,117.72,1.6,-11.9
3.5,0.25,0.0,0.5,0.0,0.0,0.0,0.0,0.0,0.25,0.0,0.0,0.5,0.0,0.33,0.89,-0.42,26.59,23.6,-6.6,0.5,0.25,0.0,0.5,1.25,1.0,0.25,0.75,0.0,1.25,1.0,0.5,0.25,-0.42,0.89,-0.42,118.03,1.9,-8.6
3.52,0.5,0.0,1.0,0.0,0.0,0.0,0.0,0.0,0.25,0.0,0.0,0.5,0.0,0.33,0.89,-0.42,29.64,28.2,19.8,0.75,0.25,0.0,0.5,1.0,0.5,0.25,0.5,0.0,1.5,1.0,0.75,0.25,-0.48,0.89,-0.42,118.27,-1.0,-15.3
3.54,0.25,0.0,0.5,0.25,0.0,0.0,0.0,0.0,0.25,0.0,0.0,0.5,0.0,0.33,0.89,-0.42,30.43,22.7,3.0,0.5,0.75,0.0,0.75,1.5,1.0,0.25,0.5,0.0,0.75,1.0,0.5,0.25,-0.48,0.89,-0.42,121.34,-0.9,8.2
3.56,0.25,0.0,0.25,0.0,0.0,0.0,0.0,0.0,0.25,0.0,0.0,0.5,0.0,0.33,0.89,-0.42,27.79,20.6,-20.7,0.5,0.75,0.0,0.0,1.25,0.75,0.25,0.75,0.0,1.25,1.0,0.5,0.25,-0.48,0.89,-0.42,119.8,1.6,-7.2
3.58,0.0,0.0,0.75,0.25,0.0,0.0,0.0,0.0,0.25,0.0,0.0,0.5,0.0,0.27,0.89,-0.42,27.16,23.3,-1.0,0.75,0.75,0.0,0.5,1.25,0.75,0.25,0.75,0.0,1.25,1.0,0.5,0.25,-0.42,0.83,-0.42,118.12,-0.6,0.1
3.6,0.0,0.0,0.75,0.25,0.0,0.0,0.0,0.0,0.25,0.0,0.0,0.5,0.0,0.27,0.89,-0.42,26.97,23.3,-1.0,0.5,0.25,0.0,0.75,0.5,1.0,0.25,0.75,0.0,1.0,1.0,0.5,0.25,-0.42,0.83,-0.42,111.36,0.5,-11.6
3.62,0.0,0.0,0.75,0.25,0.0,0.0,0.0,0.0,0.25,0.0,0.0,0.5,0.0,0.27,0.89,-0.42,27.86,23.3,-1.0,0.75,0.25,0.0,0.5,1.0,1.25,0.25,0.75,0.0,1.25,1.0,0.5,0.25,-0.42,0.83,-0.42,112.93,1.4,-6.4
3.64,0.0,0.0,0.5,0.0,0.0,0.0,0.0,0.0,0.25,0.0,0.0,0.5,0.0,0.27,0.95,-0.42,24.91,21.5,-26.0,1.0,0.5,0.0,0.5,1.5,0.5,0.25,0.75,0.0,1.25,1.0,0.5,0.25,-0.36,0.83,-0.42,113.99,-1.8,0.6
3.66,0.0,0.0,0.75,0.0,0.0,0.0,0.0,0.0,0.25,0.0,0.0,0.5,0.0,0.27,0.95,-0.42,24.06,24.4,-11.2,0.5,0.5,0.0,0.5,0.5,1.0,0.25,0.75,0.0,1.25,1.0,0.5,0.25,-0.36,0.83,-0.42,112.4,1.2,-12.5
3.68,0.0,0.0,1.0,0.0,0.0,0.0,0.0,0.0,0.25,0.0,0.0,0.5,0.0,0.27,0.95,-0.42,24.56,26.4,-0.7,0.75,0.25,0.0,0.5,1.0,0.5,0.25,0.5,0.0,1.0,1.0,0.75,0.25,-0.42,0.89,-0.42,108.55,-2.3,-10.8
3.7,0.0,0.0,0.5,0.0,0.0,0.0,0.0,0.0,0.25,0.0,0.0,0.5,0.0,0.27,0.95,-0.42,22.86,21.5,-26.0,0.75,0.25,0.0,0.5,1.0,0.5,0.25,0.5,0.0,0.25,1.0,0.75,0.25,-0.42,0.89,-0.42,101.14,-4.5,-2.6
3.72,0.0,0.0,0.5,0.0,0.0,0.0,0.0,0.0,0.25,0.0,0.0,0.5,0.0,0.27,0.95,-0.42,21.14,21.5,-26.0,1.25,1.0,0.0,0.75,1.0,0.75,0.25,0.75,0.0,1.25,1.0,0.75,0.25,-0.42,0.89,-0.36,110.02,-3.6,4.9
3.74,0.0,0.0,1.0,0.0,0.0,0.0,0.0,0.0,0.25,0.0,0.0,0.5,0.0,0.27,0.95,-0.42,22.65,26.4,-0.7,0.5,0.25,0.0,1.0,1.25,1.25,0.25,0.75,0.0,1.25,1.0,0.5,0.25,-0.48,0.89,-0.36,115.74,1.3,-3.2
3.76,0.0,0.0,0.75,0.0,0.0,0.0,0.0,0.0,0.25,0.0,0.0,0.5,0.25,0.27,0.95,-0.42,23.89,18.8,-25.5,0.5,0.25,0.0,0.5,1.0,0.75,0.25,0.5,0.0,1.5,1.0,0.75,0.25,-0.48,0.89,-0.36,117.78,0.8,-17.3
3.78,0.0,0.0,0.75,0.0,0.0,0.0,0.0,0.0,0.25,0.0,0.0,0.5,0.0,0.27,0.89,-0.42,24.98,24.4,-11.2,0.5,0.25,0.0,0.5,1.25,1.0,0.25,0.75,0.0,1.25,1.0,0.5,0.25,-0.48,0.89,-0.36,116.16,1.9,-8.6
3.8,0.0,0.0,0.75,0.0,0.0,0.0,0.0,0.0,0.25,0.0,0.0,0.5,0.0,0.27,0.89,-0.42,25.16,24.4,-11.2,1.25,0.5,0.0,0.75,1.0,0.75,0.25,0.75,0.0,1.25,1.0,0.5,0.25,-0.48,0.89,-0.36,118.78,-2.9,2.5
3.82,0.0,0.0,0.75,0.0,0.0,0.0,0.0,0.0,0.25,0.0,0.0,0.5,0.0,0.27,0.89,-0.42,24.28,24.4,-11.2,0.75,0.75,0.0,0.5,1.0,0.5,0.25,0.75,0.0,1.25,1.0,0.75,0.25,-0.48,0.89,-0.36,117.88,-1.7,-6.4
3.84,0.0,0.0,0.75,0.0,0.0,0.0,0.0,0.0,0.25,0.0,0.0,0.5,0.0,0.27,0.95,-0.42,23.83,24.4,-11.2,0.5,0.25,0.0,0.75,1.5,1.0,0.25,0.5,0.0,0.75,1.0,0.5,0.25,-0.42,0.89,-0.36,117.5,-0.1,1.7
3.86,0.0,0.0,0.75,0.0,0.0,0.0,0.0,0.0,0.25,0.0,0.0,0.5,0.0,0.27,0.89,-0.42,23.89,24.4,-11.2,0.5,0.25,0.0,0.5,1.25,1.0,0.25,0.75,0.0,1.25,1.0,0.5,0.25,-0.42,0.89,-0.36,115.81,1.9,-8.6
3.88,0.0,0.0,0.75,0.0,0.0,0.0,0.0,0.0,0.25,0.0,0.0,0.5,0.5,0.27,0.89,-0.42,27.09,14.7,-36.2,0.5,0.25,0.0,0.25,1.5,0.5,0.25,0.5,0.0,1.25,1.0,0.75,0.25,-0.42,0.89,-0.36,111.92,0.4,-13.9
3.9,0.0,0.0,0.5,0.0,0.0,0.0,0.0,0.0,0.25,0.0,0.0,0.5,0.0,0.27,0.89,-0.42,25.01,21.5,-26.0,0.75,0.25,0.0,0.5,1.25,0.25,0.25,0.5,0.0,1.0,1.0,0.5,0.25,-0.42,0.89,-0.36,106.93,-2.7,-5.7
3.92,0.0,0.0,1.0,0.0,0.0,0.0,0.0,0.0,0.25,0.0,0.0,0.5,0.0,0.27,0.89,-0.42,26.43,26.4,-0.7,0.5,0.25,0.0,0.5,1.25,0.5,0.25,0.75,0.0,0.75,1.0,0.25,0.25,-0.42,0.83,-0.36,101.01,-0.2,-2.5
3.94,0.0,0.0,0.75,0.0,0.0,0.0,0.0,0.0,0.25,0.0,0.0,0.5,0.0,0.27,0.89,-0.42,25.51,24.4,-11.2,0.5,0.0,0.0,0.5,1.0,0.5,0.25,0.5,0.0,1.0,1.0,0.5,0.25,-0.42,0.83,-0.36,94.18,-0.3,-15.6
3.96,0.0,0.0,0.75,0.0,0.0,0.0,0.0,0.0,0.25,0.0,0.0,0.5,0.0,0.27,0.89,-0.42,25.17,24.4,-11.2,1.25,0.25,0.0,0.5,0.5,0.75,0.25,0.5,0.0,1.25,1.0,0.5,0.25,-0.42,0.83,-0.36,92.78,-3.2,-6.0
3.98,0.0,0.0,0.75,0.0,0.0,0.0,0.0,0.0,0.25,0.0,0.0,0.5,0.0,0.27,0.89,-0.42,23.89,24.4,-11.2,0.5,0.25,0.0,0.5,1.0,0.5,0.25,0.75,0.0,1.25,1.0,0.75,0.25,-0.42,0.83,-0.36,95.7,0.1,-17.7
4.0,0.0,0.0,0.75,0.0,0.0,0.0,0.0,0.0,0.25,0.0,0.0,0.5,0.0,0.27,0.89,-0.42,24.13,24.4,-11.2,0.75,0.25,0.0,0.5,1.0,1.25,0.25,0.75,0.0,1.25,1.0,0.5,0.25,-0.42,0.83,-0.36,103.47,1.4,-6.4
4.02,0.0,0.0,0.5,0.0,0.0,0.0,0.0,0.0,0.25,0.0,0.0,0.5,0.25,0.27,0.89,-0.42,24.07,15.5,-40.2,1.25,0.25,0.0,0.25,1.25,0.75,0.25,0.75,0.0,1.0,1.0,0.5,0.25,-0.42,0.83,-0.36,107.68,-1.9,-0.1
4.04,0.0,0.0,0.5,0.0,0.0,0.0,0.0,0.0,0.25,0.0,0.0,0.5,0.25,0.27,0.89,-0.42,23.98,15.5,-40.2,0.5,0.5,0.0,0.5,1.0,1.25,0.25,0.75,0.0,1.0,1.0,0.5,0.25,-0.42,0.89,-0.36,111.31,1.6,-3.7
4.06,0.0,0.0,0.5,0.0,0.0,0.0,0.0,0.0,0.25,0.0,0.0,0.5,0.0,0.27,0.95,-0.42,22.4,21.5,-26.0,0.5,0.25,0.0,0.5,0.5,1.25,0.25,0.5,0.0,1.25,1.0,0.5,0.25,-0.42,0.89,-0.36,108.53,1.9,-14.2
4.08,0.0,0.0,0.5,0.0,0.0,0.0,0.0,0.0,0.25,0.0,0.0,0.5,0.0,0.27,0.95,-0.42,20.77,21.5,-26.0,0.75,0.0,0.0,0.75,1.25,1.25,0.25,0.75,0.0,1.25,1.0,0.75,0.25,-0.42,0.89,-0.36,113.48,1.0,-8.7
4.1,0.0,0.0,0.75,0.0,0.0,0.0,0.0,0.0,0.25,0.0,0.0,0.5,0.0,0.33,0.95,-0.42,20.86,24.4,-11.2,1.25,0.5,0.0,0.75,1.0,0.75,0.25,0.5,0.0,1.25,1.0,0.75,0.25,-0.42,0.89,-0.36,117.98,-3.6,0.3
4.12,0.0,0.0,0.75,0.0,0.0,0.0,0.0,0.0,0.25,0.0,0.0,0.5,0.0,0.33,0.95,-0.42,21.54,24.4,-11.2,0.5,0.5,0.0,0.5,0.5,0.5,0.25,0.5,0.0,1.25,1.0,0.75,0.25,-0.42,0.89,-0.36,114.28,-1.3,-18.7
4.14,0.0,0.0,0.5,0.0,0.0,0.0,0.0,0.0,0.25,0.0,0.0,0.5,0.0,0.33,0.95,-0.42,21.44,21.5,-26.0,0.5,0.25,0.25,0.5,1.5,1.25,0.25,0.75,0.0,1.5,1.0,0.5,0.25,-0.36,0.89,-0.42,119.51,1.7,-5.2
4.16,0.0,0.0,0.75,0.25,0.0,0.0,0.0,0.0,0.25,0.0,0.0,0.5,0.0,0.33,0.95,-0.42,23.51,23.3,-1.0,0.5,0.25,0.0,0.5,1.25,1.0,0.25,0.5,0.0,1.25,1.0,0.5,0.25,-0.42,0.89,-0.36,116.63,1.4,-7.6
4.18,0.0,0.0,0.75,0.0,0.0,0.0,0.0,0.0,0.0,0.0,0.0,0.0,0.0,0.33,0.95,-0.42,20.56,38.2,60.9,1.25,0.5,0.0,0.5,0.5,0.75,0.25,0.5,0.0,1.25,1.0,0.5,0.25,-0.42,0.89,-0.36,115.04,-3.5,-2.2
