time,left pressure 0[N/cm²],left pressure 1[N/cm²],left pressure 2[N/cm²],left pressure 3[N/cm²],left pressure 4[N/cm²],left pressure 5[N/cm²],left pressure 6[N/cm²],left pressure 7[N/cm²],left pressure 8[N/cm²],left pressure 9[N/cm²],left pressure 10[N/cm²],left pressure 11[N/cm²],left pressure 12[N/cm²],left acceleration X[g],left acceleration Y[g],left acceleration Z[g],left total force[N],left center of pressure X[mm],left center of pressure Y[mm],right pressure 0[N/cm²],right pressure 1[N/cm²],right pressure 2[N/cm²],right pressure 3[N/cm²],right pressure 4[N/cm²],right pressure 5[N/cm²],right pressure 6[N/cm²],right pressure 7[N/cm²],right pressure 8[N/cm²],right pressure 9[N/cm²],right pressure 10[N/cm²],right pressure 11[N/cm²],right pressure 12[N/cm²],right acceleration X[g],right acceleration Y[g],right acceleration Z[g],right total force[N],right center of pressure X[mm],right center of pressure Y[mm]
0.02,1.0,1.0,1.75,1.75,0.0,0.0,0.5,5.0,1.25,4.75,5.0,3.25,4.25,-0.11,0.14,1.08,421.24,1.0,-47.3,5.0,2.25,8.5,7.5,5.25,2.75,0.5,2.5,0.0,0.0,0.25,0.0,0.0,-0.17,0.2,1.39,362.36,-15.6,56.1
0.04,1.0,1.0,1.75,2.0,0.0,0.0,0.5,4.5,0.75,3.75,3.5,2.25,4.0,-0.11,0.33,1.95,349.8,1.3,-40.6,5.5,2.5,8.5,9.25,5.0,4.0,1.0,2.5,0.0,0.5,0.0,0.75,0.0,-0.17,0.02,1.33,512.52,-14.5,52.2
0.06,0.0,0.0,0.0,0.0,0.0,0.0,0.0,0.0,0.0,0.0,0.0,0.0,0.0,-0.11,0.39,1.58,206.82,0.0,0.0,6.5,2.75,10.0,10.5,7.0,5.0,2.75,3.75,0.75,2.0,1.5,0.75,1.0,0.14,0.08,2.33,726.66,-12.2,39.5
0.08,0.0,0.0,0.0,0.0,0.0,0.0,0.0,0.0,3.0,2.25,0.0,1.25,0.0,0.08,0.27,1.45,103.25,1.8,-65.1,6.75,2.25,10.0,9.0,7.0,5.0,4.5,5.5,2.0,3.5,3.25,2.25,1.5,0.14,0.08,1.27,939.36,-10.6,23.9
0.1,0.0,0.0,0.0,0.0,0.0,0.0,0.0,0.0,0.0,0.0,0.0,0.0,0.0,0.08,3.64,-0.17,0.0,0.0,0.0,7.0,2.5,10.0,10.5,6.75,5.0,4.75,6.5,2.0,5.0,5.0,2.25,2.25,0.14,0.08,1.14,1159.64,-9.7,18.0
0.12,0.0,0.0,0.0,0.0,0.0,0.0,0.0,0.0,0.0,0.0,0.0,0.0,0.0,1.08,3.27,1.2,0.0,0.0,0.0,7.0,2.5,10.0,10.0,6.75,5.0,4.75,6.5,2.0,4.75,5.0,2.25,2.25,0.08,0.14,1.02,1299.23,-9.7,18.1
0.14,0.0,0.0,0.0,0.0,0.0,0.0,0.0,0.0,0.0,0.0,0.0,0.0,0.0,0.95,2.45,0.95,0.0,0.0,0.0,6.5,2.5,10.0,9.25,6.75,5.0,4.5,6.25,2.0,4.75,4.0,2.0,1.25,0.14,0.14,0.95,1334.92,-9.9,21.2
0.16,0.0,0.0,0.0,0.0,0.0,0.0,0.0,0.0,0.0,0.0,0.0,0.0,0.0,0.14,2.14,0.95,0.0,0.0,0.0,6.25,2.25,10.0,9.0,6.25,4.5,4.25,6.0,2.0,4.75,4.0,2.25,1.25,0.14,0.14,0.89,1314.05,-10.2,19.7
0.18,1.0,1.0,0.0,1.75,0.0,0.0,0.0,0.0,0.75,1.75,0.0,0.5,0.0,0.2,1.64,1.39,0.0,9.3,12.4,6.25,2.0,10.0,7.5,5.75,4.0,4.0,6.0,2.0,4.75,5.0,2.25,1.25,0.14,0.14,0.95,1244.63,-10.3,16.4
0.2,1.0,0.75,1.75,1.75,0.0,0.0,0.25,3.0,0.75,2.0,1.0,0.5,0.5,0.14,1.02,1.33,0.0,6.2,-7.0,5.5,1.75,9.5,7.25,5.0,3.25,4.0,6.0,2.0,5.25,5.0,2.25,2.25,0.08,0.14,0.95,1147.49,-9.7,10.6
0.22,1.0,0.75,1.75,1.75,0.0,0.0,0.25,2.75,0.5,2.0,1.0,0.5,0.5,0.08,0.77,1.27,75.08,6.5,-5.8,5.0,1.25,9.25,5.5,5.0,2.75,3.5,5.75,2.0,5.0,5.0,2.25,2.5,0.08,0.14,0.95,1030.79,-9.4,6.9
0.24,1.0,1.0,1.75,1.75,0.0,0.0,0.25,3.0,0.5,1.75,1.0,0.5,0.5,0.14,0.45,1.27,134.81,6.6,-3.0,4.75,1.0,9.0,5.25,4.5,2.75,3.0,5.5,2.0,6.0,5.5,3.0,2.25,0.08,0.14,0.95,929.28,-8.9,1.8
0.26,1.0,1.0,1.25,1.75,0.0,0.0,0.25,2.75,0.5,1.75,1.0,0.25,0.5,0.08,0.27,1.14,167.43,5.7,-2.7,4.5,0.75,8.75,4.5,3.5,2.75,2.75,5.5,2.0,6.0,5.75,3.5,3.25,0.08,0.14,0.95,839.18,-8.2,-4.9
0.28,1.0,1.0,1.75,0.0,0.0,0.0,0.25,1.5,0.0,0.5,0.0,0.25,0.5,0.02,0.2,1.02,165.59,12.1,19.0,3.75,0.75,8.5,3.25,2.25,2.75,2.75,5.5,2.0,6.75,6.0,4.0,4.5,0.08,0.14,0.95,768.89,-6.9,-14.9
0.3,0.0,0.0,0.75,0.0,0.0,0.0,0.25,2.75,0.0,0.25,1.0,0.0,0.5,-0.11,0.08,0.89,151.54,-2.4,-38.1,3.5,0.75,8.5,3.25,2.25,2.75,2.75,5.75,2.0,7.25,7.25,4.75,5.25,0.08,0.14,0.95,733.39,-6.3,-20.0
0.32,1.0,1.0,0.25,1.75,0.0,0.0,0.25,2.5,0.5,1.5,1.0,0.0,0.5,-0.36,-0.11,0.83,144.35,3.4,-3.9,3.25,0.75,8.5,3.25,2.25,2.75,2.25,6.0,2.0,7.75,7.5,5.5,6.0,0.08,0.14,0.95,735.58,-5.6,-23.9
0.34,1.0,1.0,1.75,1.75,0.0,0.0,0.25,2.75,0.5,1.75,0.75,0.0,0.5,-0.42,-0.23,0.7,160.6,6.9,3.6,3.0,0.75,8.25,3.25,1.5,2.75,2.25,6.0,2.0,8.25,8.0,6.0,6.5,0.08,0.14,0.95,755.01,-5.2,-28.3
0.36,1.25,1.0,1.5,1.75,0.0,0.0,0.25,2.5,0.5,1.5,0.75,0.0,0.5,-0.42,-0.36,0.7,173.25,7.8,6.9,3.0,0.5,7.5,3.25,1.5,2.75,2.25,6.0,2.0,8.5,8.5,6.5,7.5,0.08,0.14,0.95,793.76,-4.4,-32.7
0.38,1.0,0.75,1.75,1.75,0.0,0.0,0.25,2.5,0.5,1.0,0.75,0.5,0.25,-0.42,-0.42,0.7,178.36,9.5,5.3,2.5,0.25,7.5,2.75,1.5,2.75,2.25,6.0,2.0,9.0,8.75,7.0,7.75,0.08,0.08,0.95,835.0,-3.8,-36.7
0.4,1.0,1.0,1.5,2.0,0.0,0.0,0.25,2.5,0.5,0.5,0.75,0.0,0.5,-0.36,-0.42,0.83,173.72,9.7,14.0,2.5,0.5,6.5,2.0,1.5,2.25,1.75,6.0,2.0,9.5,9.0,7.75,8.5,0.02,0.14,0.95,872.08,-2.8,-42.3
0.42,0.0,0.0,1.75,1.75,0.0,0.0,0.0,1.5,0.5,0.75,0.0,0.0,0.5,-0.48,-0.86,0.39,144.51,9.0,3.7,1.25,0.0,4.75,1.25,1.5,2.75,1.75,5.75,2.0,9.75,9.25,8.25,8.75,0.02,0.08,0.95,890.44,-0.5,-51.8
0.44,1.5,0.0,1.75,2.0,0.0,0.0,0.0,2.5,0.0,0.25,0.75,0.0,0.25,-0.42,-1.92,1.95,133.11,12.4,18.7,1.25,0.75,4.0,0.0,1.5,2.25,1.25,5.25,1.5,9.75,9.75,8.75,9.5,-0.05,0.14,0.95,898.49,0.0,-56.7
0.46,1.25,0.0,1.5,2.0,0.0,0.0,0.0,1.5,0.5,0.0,0.0,0.0,0.25,-0.61,-2.98,2.27,120.94,16.0,31.7,1.25,0.5,2.0,1.5,1.25,1.75,1.0,4.75,1.25,10.0,9.75,9.5,11.0,-0.05,0.14,1.02,905.82,1.1,-62.6
0.48,0.0,1.75,3.5,1.25,0.0,0.0,0.25,2.75,0.5,1.5,0.25,0.0,0.5,-0.42,-0.11,2.33,141.83,9.6,13.2,1.25,0.25,1.75,1.75,1.25,1.5,0.75,4.0,0.75,9.5,9.5,9.5,11.0,-0.05,0.08,1.14,890.83,1.1,-64.5
0.5,6.0,2.75,0.0,8.0,0.0,0.0,0.0,2.0,0.5,1.25,0.25,0.25,0.5,-0.8,-0.05,2.33,207.86,15.1,47.3,1.0,0.25,1.75,1.5,1.25,1.25,0.5,2.5,0.75,9.0,9.25,8.75,11.0,-0.05,0.14,1.27,851.19,0.9,-66.5
0.52,7.25,3.75,7.0,9.0,0.0,1.25,0.25,4.5,1.25,2.0,0.25,0.5,0.5,-0.55,0.08,2.08,333.81,16.2,41.8,1.0,0.25,2.0,1.75,1.25,1.25,0.75,1.0,0.5,8.25,8.25,8.25,11.0,0.02,0.2,1.45,786.27,0.2,-65.1
0.54,7.25,3.25,7.5,8.75,6.75,1.75,1.75,5.25,4.0,3.75,2.75,2.0,1.5,0.2,0.08,1.33,574.1,11.0,22.4,1.0,0.0,1.75,1.5,1.25,1.25,0.5,1.0,0.25,7.0,7.25,7.0,9.75,0.02,0.2,1.64,688.17,0.4,-64.8
0.56,7.25,3.0,7.75,8.75,6.75,1.75,2.5,6.25,4.25,4.25,5.0,1.75,1.75,-0.11,-0.11,1.2,836.44,10.4,16.6,0.75,0.75,1.75,1.5,1.75,0.5,0.5,1.25,0.25,6.0,7.0,5.75,8.5,0.14,0.2,1.58,588.49,-0.3,-58.7
0.58,7.0,3.5,7.75,8.75,6.75,1.75,2.0,6.0,3.5,4.0,3.75,1.5,1.75,-0.11,0.02,0.95,1028.89,10.5,20.8,2.0,0.25,1.75,1.25,1.25,0.0,0.0,0.75,0.25,1.5,3.75,3.25,7.0,0.14,0.27,1.64,434.03,-3.9,-47.3
0.6,6.5,3.0,7.75,8.75,6.0,1.75,1.5,6.0,3.5,3.5,3.5,1.5,1.5,-0.17,0.08,0.95,1103.88,10.7,20.8,0.75,0.25,1.75,1.5,1.25,0.25,0.25,1.0,0.0,0.0,2.25,2.25,4.25,0.02,0.52,1.14,298.08,-5.2,-34.2
0.62,6.25,2.5,7.25,7.5,6.0,1.75,1.5,6.0,3.5,3.75,3.5,1.25,1.5,-0.17,0.08,0.95,1090.4,10.0,18.5,0.75,0.25,0.0,1.25,0.0,0.0,0.5,1.0,0.0,1.5,1.75,2.25,4.25,-0.3,3.08,-0.42,203.56,0.3,-62.3
0.64,5.5,2.5,7.0,7.5,4.75,1.75,1.25,6.0,3.5,4.0,3.75,1.75,1.75,-0.11,0.02,0.95,1036.2,9.6,13.4,0.5,0.25,1.75,1.5,1.0,0.0,0.5,1.0,0.0,1.25,2.0,2.25,4.0,-0.61,1.77,0.83,143.66,-4.2,-39.7
0.66,3.5,1.75,6.25,5.75,3.75,1.5,1.25,6.0,3.5,4.25,4.75,2.25,2.0,-0.11,0.02,0.95,945.61,8.0,0.6,1.75,0.5,1.75,1.25,1.0,0.0,0.5,1.0,0.0,0.5,2.0,2.0,3.75,-0.55,1.2,0.95,114.3,-7.5,-25.0
0.68,3.5,1.0,5.25,4.0,0.0,1.25,1.0,6.0,3.5,5.0,5.0,2.5,2.75,-0.11,0.02,0.95,812.51,7.3,-16.0,0.75,0.0,1.75,1.25,1.0,0.0,0.5,0.75,0.0,1.0,2.0,1.5,3.0,-0.23,1.08,0.77,100.35,-6.1,-32.0
0.7,2.75,1.0,4.0,3.75,0.0,1.0,1.0,6.0,3.0,5.0,5.0,3.0,3.0,-0.17,0.02,0.95,679.37,5.6,-23.1,0.5,0.25,1.75,1.25,1.25,0.0,0.5,1.0,0.0,1.0,1.25,1.5,3.25,-0.05,0.7,0.89,96.08,-4.5,-29.1
0.72,1.25,1.0,2.5,2.75,0.0,1.0,1.0,6.25,3.0,5.25,5.25,3.25,4.0,-0.17,0.02,0.95,561.02,1.9,-37.7,0.25,0.25,1.75,1.0,1.0,0.25,0.5,1.0,0.0,0.75,1.75,1.5,2.75,-0.11,0.45,0.95,94.32,-4.8,-31.6
0.74,0.25,1.0,2.0,2.0,0.0,0.5,0.75,6.25,2.5,6.25,5.75,3.5,4.25,-0.17,0.02,0.95,475.41,-0.1,-48.9,0.0,0.25,1.25,1.25,1.25,0.25,0.5,1.0,0.0,0.5,1.75,1.5,3.25,-0.11,0.33,0.95,102.07,-2.6,-36.2
0.76,0.0,1.0,0.0,2.0,0.0,0.0,0.5,6.25,2.5,6.25,6.25,5.0,5.5,-0.17,0.08,0.95,431.43,-2.4,-62.9,0.5,0.0,1.0,1.0,1.25,0.25,0.5,1.0,0.0,0.75,1.75,1.5,3.25,-0.23,0.14,0.95,116.14,-2.2,-38.7
0.78,0.0,1.0,2.0,2.0,0.0,0.5,0.25,6.25,2.25,7.0,6.5,5.25,6.25,-0.17,0.02,0.89,437.93,-1.0,-57.2,0.75,0.0,1.25,0.5,1.0,0.25,0.5,1.0,0.0,0.5,1.5,1.25,3.5,-0.3,0.02,1.08,131.69,-2.8,-38.9
0.8,1.0,1.0,0.0,2.0,0.0,0.0,0.25,6.5,2.0,7.0,7.0,5.75,6.75,-0.23,0.02,0.89,469.22,-2.0,-62.4,0.5,0.0,1.0,1.0,1.25,0.25,0.5,1.0,0.0,1.0,1.5,1.25,3.0,-0.23,-0.05,1.08,146.51,-1.9,-35.8
0.82,1.0,0.75,1.25,1.75,0.0,0.0,0.25,6.5,1.75,7.5,7.0,6.0,7.25,-0.23,0.02,0.95,514.67,-1.3,-61.5,0.5,0.0,1.0,0.75,1.0,0.25,0.5,1.0,0.0,0.5,1.5,1.25,2.75,-0.17,-0.05,1.08,155.77,-2.8,-36.8
0.84,0.25,0.75,1.75,1.75,0.0,0.0,0.25,6.5,1.5,7.75,7.0,6.25,7.5,-0.23,0.02,0.95,554.59,-1.6,-63.5,0.0,0.25,1.0,0.75,1.0,0.25,0.5,1.0,0.0,0.75,1.5,1.0,2.75,-0.05,-0.11,1.08,156.12,-1.1,-38.6
0.86,0.0,0.75,1.5,1.75,0.0,0.0,0.25,6.5,0.75,7.75,7.25,6.25,8.0,-0.23,0.02,0.95,585.43,-2.4,-66.3,0.75,0.0,0.5,0.5,1.0,0.5,0.5,1.0,0.0,0.75,1.75,1.0,2.75,0.02,-0.17,1.08,152.01,-0.5,-39.4
0.88,0.0,0.0,1.75,1.75,0.0,0.0,0.25,6.5,1.25,7.75,7.25,6.75,8.25,-0.23,0.02,1.02,613.51,-2.2,-69.1,0.5,0.25,0.75,0.5,1.0,0.25,0.5,1.0,0.0,0.75,1.5,1.0,2.5,-0.11,-0.23,1.02,147.46,-1.6,-35.6
0.9,0.0,0.0,1.5,1.75,0.0,0.0,0.25,6.25,1.25,7.75,7.25,6.75,8.5,-0.23,0.02,0.95,637.45,-2.4,-70.3,0.75,0.0,0.75,0.75,1.0,0.5,0.5,0.75,0.0,0.75,1.5,1.0,2.75,-0.11,-0.3,1.27,148.31,-2.0,-33.9
0.92,0.0,0.0,2.0,2.25,0.0,0.0,0.25,5.75,1.25,7.75,6.75,7.0,8.0,-0.3,0.02,0.95,649.93,-1.4,-67.1,1.0,0.25,0.5,0.75,1.25,0.25,0.5,1.0,0.0,0.5,1.5,1.0,2.5,0.08,-0.48,1.27,149.41,-2.8,-26.7
0.94,0.0,0.0,1.75,1.0,0.0,0.0,0.0,5.25,1.75,7.5,7.25,6.75,8.75,-0.23,0.02,1.14,647.9,-2.1,-72.9,0.5,0.0,1.0,0.5,1.25,0.0,0.5,0.75,0.0,0.5,1.75,1.0,3.0,0.14,-0.3,0.89,150.71,-2.9,-39.1
0.96,0.0,0.0,1.5,1.75,0.0,0.0,0.25,4.75,0.75,7.0,7.0,6.75,8.5,-0.36,0.02,1.02,628.43,-1.9,-71.9,0.75,0.0,0.0,0.5,1.0,0.25,0.5,1.0,0.0,2.0,1.5,2.25,3.0,3.2,-7.98,2.58,163.17,1.8,-56.1
0.98,0.0,1.0,1.5,2.0,0.0,0.0,0.25,4.5,0.75,6.5,5.75,6.5,8.5,-0.23,0.02,1.2,597.8,-1.5,-66.0,0.5,0.0,0.0,0.5,1.0,0.75,0.5,1.0,0.0,2.25,1.75,2.25,4.25,1.08,-4.17,-1.42,185.06,4.1,-61.0
1.0,0.0,0.75,0.0,1.75,0.0,0.0,0.0,4.25,0.5,6.0,4.25,6.0,8.0,-0.42,0.08,1.33,537.03,-4.2,-73.4,0.75,0.0,0.0,0.5,1.25,1.25,0.0,1.0,0.25,4.75,2.5,4.25,5.5,0.77,-2.61,2.08,238.45,4.5,-65.8
1.02,0.0,0.75,0.0,1.75,0.0,0.0,0.0,3.25,0.0,5.0,4.25,4.75,7.5,-0.3,0.08,1.33,461.52,-4.0,-72.9,0.5,0.0,0.5,0.5,1.0,0.5,0.5,0.5,0.0,4.0,3.5,4.25,6.0,-0.42,1.39,2.02,279.12,2.0,-70.5
1.04,0.0,0.0,1.0,1.75,0.0,0.0,0.25,3.0,0.75,2.0,2.25,2.75,5.5,-0.36,0.02,1.27,359.71,-1.4,-62.7,0.5,0.0,0.75,0.5,1.25,0.5,0.25,1.0,0.0,6.0,4.0,5.5,6.75,0.39,-0.48,0.2,338.54,2.6,-71.1
1.06,0.0,1.0,0.0,1.75,0.0,0.0,0.25,3.0,0.0,0.75,1.75,0.5,3.0,-0.17,0.02,1.14,259.87,-2.7,-40.2,0.5,0.0,1.0,1.0,1.0,1.0,0.25,1.0,0.0,7.0,5.5,6.25,8.0,-0.17,0.27,1.27,410.1,2.2,-70.3
1.08,0.0,0.0,0.0,0.25,0.0,0.0,0.0,2.0,0.5,2.0,2.25,1.25,2.25,-0.8,2.58,0.58,178.42,-4.9,-75.1,0.5,0.0,1.25,0.5,1.0,1.25,0.25,1.25,0.0,8.0,7.0,7.75,9.25,0.39,0.08,0.95,514.73,2.3,-73.6
1.1,0.0,0.0,0.0,0.0,0.0,0.0,0.25,3.0,0.0,0.0,1.0,1.25,1.75,-0.48,1.7,1.08,99.95,-6.9,-73.0,0.5,0.0,0.5,1.0,1.25,1.25,0.25,2.5,0.0,8.5,7.5,8.75,11.0,0.02,0.02,0.95,629.79,3.4,-74.9
1.12,1.0,0.0,0.0,0.25,0.0,0.0,0.25,2.75,0.75,2.0,1.0,1.25,1.75,-0.17,1.45,1.08,68.91,-2.8,-53.9,0.5,0.25,0.0,1.0,1.0,1.0,0.0,2.5,0.0,8.5,7.25,8.0,12.5,0.14,-0.05,1.02,721.25,4.5,-77.9
1.14,0.0,0.0,0.0,0.0,0.0,0.0,0.0,2.5,0.5,2.0,0.75,0.75,1.0,0.02,1.27,0.64,43.69,-8.9,-68.9,0.5,0.0,0.0,0.5,1.0,1.25,0.0,2.5,0.0,8.25,6.75,7.75,11.5,0.14,-0.05,0.95,758.89,4.9,-79.2
1.16,0.0,0.0,0.0,0.0,0.0,0.0,0.0,1.75,2.25,1.5,0.0,0.75,0.5,0.33,0.89,0.77,33.87,-3.9,-60.2,0.5,0.0,0.0,0.5,1.25,0.25,0.0,2.5,0.0,8.0,5.75,7.75,11.0,-0.05,-0.05,0.7,744.54,4.7,-80.7
1.18,0.0,0.0,0.0,0.0,0.0,0.0,0.0,0.0,0.0,0.0,0.0,0.0,0.0,0.45,0.39,0.89,0.0,0.0,0.0,0.5,0.25,0.0,0.75,1.25,0.75,0.0,2.5,0.0,7.75,5.25,7.5,11.5,0.2,0.02,1.14,715.03,5.0,-77.5
1.2,0.0,0.0,0.0,0.0,0.0,0.0,0.0,0.0,0.0,0.0,0.0,0.0,0.0,0.33,0.14,0.95,0.0,0.0,0.0,0.0,0.0,0.0,0.75,2.25,0.5,0.0,1.5,0.0,8.0,5.75,7.75,11.0,0.08,-0.05,0.77,680.35,4.8,-78.3
1.22,0.0,0.0,0.0,0.0,0.0,0.0,0.0,0.0,0.0,0.0,0.0,0.0,0.0,0.14,-0.05,0.77,0.0,0.0,0.0,1.75,0.25,0.0,0.5,1.5,0.5,0.5,2.5,0.0,7.25,5.0,6.5,11.0,0.2,-0.05,1.08,644.36,3.7,-70.7
1.24,1.0,0.0,0.25,1.0,0.0,0.0,0.0,2.75,0.5,1.75,0.25,0.5,1.5,-0.17,-0.05,0.52,0.0,-2.2,-34.9,0.5,0.0,0.0,1.0,1.5,1.25,0.0,2.75,0.0,6.5,4.25,6.25,11.0,0.08,-0.11,0.77,601.67,5.7,-73.4
1.26,1.0,0.0,0.0,1.75,0.0,0.0,0.25,5.5,0.25,0.0,1.0,0.25,1.75,-0.36,-0.3,0.83,50.04,-2.8,-27.4,0.5,0.25,0.0,1.5,2.5,2.75,0.0,2.0,0.0,7.75,5.0,7.5,11.0,0.14,-0.17,0.77,601.6,5.2,-65.2
1.28,1.0,0.0,0.0,2.0,0.0,0.0,0.0,0.0,0.75,2.0,0.0,1.25,0.0,-0.48,-6.86,2.45,94.01,8.1,-14.7,0.75,0.0,0.0,1.5,1.25,1.5,0.0,1.75,0.0,7.75,5.0,7.0,10.0,0.2,-0.11,1.2,574.76,4.4,-71.5
1.3,0.0,0.0,0.0,0.0,0.0,0.0,0.25,2.25,1.75,3.0,0.5,2.0,1.5,-0.3,-5.67,-0.48,136.42,-5.2,-72.1,0.5,0.0,0.0,1.75,1.0,1.5,0.0,1.5,0.0,8.0,5.0,7.0,9.75,-0.17,-0.3,0.83,556.09,4.4,-72.7
1.32,2.25,0.0,0.0,0.0,0.0,0.0,1.0,3.0,2.25,0.0,1.5,0.25,0.0,-0.05,-0.92,2.14,144.74,8.8,-12.6,0.25,0.25,0.0,1.75,1.5,2.0,0.5,2.0,0.0,8.0,5.0,6.25,9.5,-0.23,-0.11,0.58,537.1,4.9,-67.1
1.34,0.0,0.0,0.0,1.75,0.0,0.0,0.0,0.0,1.75,0.0,0.0,0.25,2.5,0.14,1.14,1.83,137.66,3.0,-42.3,0.25,0.5,0.5,1.25,1.25,2.0,0.25,2.5,0.0,8.25,5.0,7.25,9.5,1.08,0.2,0.77,540.94,4.5,-68.0
1.36,0.0,0.0,0.0,2.0,0.0,0.0,0.0,1.5,1.75,0.0,0.0,0.0,0.0,-0.05,-0.23,3.7,117.08,5.9,-0.6,0.25,0.0,0.0,1.25,1.25,2.75,0.0,2.5,0.0,7.75,6.0,6.5,12.0,0.2,-0.17,0.77,564.92,6.0,-72.2
1.38,0.0,0.0,0.0,1.0,0.0,0.0,0.0,4.25,3.25,0.0,0.0,0.0,0.0,-1.11,-0.61,0.14,120.77,-1.6,-26.8,0.0,0.0,1.25,0.5,1.5,0.75,0.0,2.75,0.0,7.75,5.25,6.25,11.5,-0.11,-0.3,1.08,578.47,4.8,-74.7
1.4,0.0,0.0,0.0,0.0,0.0,0.0,0.0,1.25,0.0,1.75,0.5,2.75,2.75,-0.36,-0.17,0.27,133.65,-6.3,-91.5,0.0,0.0,0.0,0.5,1.25,1.0,0.0,2.75,0.0,7.75,4.75,6.25,9.5,0.14,-0.11,0.58,562.3,6.3,-78.1
1.42,3.0,0.0,0.0,1.0,0.0,0.0,2.0,1.75,0.0,2.0,3.25,3.5,5.0,0.7,0.02,1.14,198.45,3.9,-51.3,0.0,0.0,0.0,0.5,1.0,1.0,0.0,3.75,0.0,9.0,4.25,6.25,9.5,1.2,0.08,0.52,545.9,7.1,-78.0
1.44,1.0,0.0,0.0,1.75,0.0,0.0,0.0,2.0,0.0,3.75,5.0,6.0,5.25,-0.23,-0.17,1.02,269.05,0.1,-71.9,0.5,0.0,0.0,0.5,1.5,1.25,0.0,5.25,0.0,9.5,5.0,7.25,10.5,0.45,0.02,1.08,569.83,6.6,-73.6
1.46,0.0,0.0,0.0,1.75,0.0,0.0,0.0,1.75,0.75,3.75,5.25,5.75,6.5,-0.3,-0.17,1.14,333.4,-1.3,-79.0,0.5,0.25,0.25,1.25,1.5,2.75,0.0,6.25,0.0,9.75,5.75,7.5,12.5,0.52,-0.11,0.89,643.98,6.6,-67.7
1.48,0.75,0.0,0.0,1.75,0.0,0.0,0.25,1.5,0.0,4.0,4.0,5.75,6.75,-0.11,-0.11,1.08,372.14,-1.2,-75.5,0.25,0.25,0.0,1.25,1.5,2.75,0.0,7.0,0.0,10.0,6.0,7.75,13.5,0.58,-0.05,0.64,734.18,7.2,-69.9
1.5,0.0,0.0,1.25,1.75,0.0,0.0,0.5,2.0,1.25,0.0,4.5,0.75,6.0,0.02,-0.17,0.95,356.85,2.1,-57.2,0.5,0.25,0.0,1.25,1.5,2.75,0.0,7.25,0.0,10.0,6.25,7.75,13.5,0.45,-0.05,1.02,810.61,6.9,-69.0
1.52,0.0,0.0,0.0,1.25,0.0,0.0,3.25,3.25,0.5,3.75,0.0,7.5,5.75,0.08,-0.17,0.89,361.29,-2.0,-74.9,0.25,0.0,0.0,1.0,1.5,2.75,0.0,7.5,0.0,10.0,6.5,7.75,13.5,0.52,-0.11,0.77,861.99,7.3,-71.1
1.54,1.25,0.0,0.0,0.0,0.0,0.0,0.5,5.0,0.0,0.25,0.0,6.5,0.0,0.02,-0.17,1.02,302.32,1.3,-61.1,0.75,0.5,0.0,1.25,1.5,3.0,0.0,7.75,0.0,10.0,7.25,7.75,13.5,0.39,-0.05,0.95,896.4,6.5,-66.8
1.56,1.25,0.0,0.0,2.0,0.0,0.0,3.75,3.25,1.25,4.5,0.0,7.25,7.25,-0.05,-0.3,0.64,340.92,-0.4,-64.1,0.5,0.25,0.0,1.25,1.25,3.0,0.0,7.75,0.0,10.0,7.25,7.75,13.5,0.45,0.02,0.95,910.91,6.8,-69.0
1.58,2.25,0.0,0.0,3.25,0.0,0.0,4.25,5.0,3.25,4.75,0.0,7.0,7.0,-0.36,-0.17,1.52,391.27,1.2,-51.1,0.5,0.0,0.0,0.5,1.5,2.75,0.0,7.5,0.0,9.25,7.25,7.0,12.0,0.83,-0.11,0.95,888.1,7.0,-69.9
1.6,3.5,0.0,2.75,3.5,0.0,0.0,4.0,5.5,3.0,4.5,0.0,6.25,6.75,0.08,-0.36,1.08,474.88,4.7,-35.8,0.25,0.25,0.0,1.25,1.25,2.75,0.0,6.75,0.0,8.75,6.5,6.5,10.5,1.08,-0.42,0.64,832.31,6.7,-66.9
1.62,0.0,0.0,2.75,1.0,0.0,0.0,4.5,5.75,1.5,3.0,0.0,4.5,5.0,-0.36,-1.3,0.7,458.04,1.5,-49.1,0.0,0.75,0.0,0.5,1.5,2.75,0.0,6.0,0.0,8.0,5.75,6.25,9.5,1.45,-0.05,0.77,753.2,7.0,-66.1
1.64,0.0,0.0,2.5,1.75,0.0,0.0,0.25,1.25,0.0,0.0,0.0,0.0,1.5,-0.3,-1.55,1.89,336.14,12.5,6.5,0.25,0.25,0.0,0.75,1.25,2.75,0.0,5.25,0.0,6.75,4.5,5.25,8.25,1.08,-0.05,1.45,644.8,7.2,-64.6
1.66,3.0,0.0,0.0,1.5,0.0,0.0,0.0,0.0,0.0,0.0,0.0,0.0,0.0,-0.42,-1.36,1.39,217.33,28.6,83.5,0.75,0.25,0.0,0.75,1.25,2.75,0.0,4.0,0.0,5.5,3.25,3.75,7.25,0.89,-0.55,1.77,516.99,7.1,-58.4
1.68,0.0,0.0,0.0,0.0,0.0,0.0,0.0,0.0,0.0,0.0,0.0,0.0,1.5,-0.92,-1.48,1.52,93.55,-13.7,-109.9,0.0,0.5,0.0,1.0,1.25,0.25,0.0,2.5,0.0,2.25,2.75,2.25,6.25,0.33,-0.23,1.45,370.42,5.3,-63.2
1.7,0.0,0.0,0.0,0.0,0.0,0.0,0.0,0.0,0.0,0.0,0.0,0.0,0.0,-0.23,-0.42,2.14,5.71,0.0,0.0,0.0,0.0,0.0,0.75,0.0,1.5,0.0,1.25,0.0,2.25,1.5,2.25,5.25,-0.17,0.08,1.2,265.22,7.6,-72.5
1.72,0.0,0.0,0.0,0.0,0.0,0.0,0.0,0.0,0.0,1.75,0.0,0.5,0.0,0.39,-1.23,1.64,0.0,-10.2,-83.1,0.0,0.0,0.0,0.0,1.0,0.0,0.5,1.25,0.0,0.75,1.5,1.0,5.5,0.45,0.08,0.7,176.88,7.1,-76.2
1.74,0.5,0.0,0.75,0.25,0.0,0.0,0.0,1.75,0.25,1.25,0.25,0.25,1.5,1.89,0.2,1.27,0.0,-1.7,-41.1,0.0,0.0,0.0,0.0,1.0,0.25,0.0,1.0,0.0,0.5,1.5,0.75,4.5,-0.11,0.39,0.52,105.57,7.7,-72.7
1.76,0.0,0.0,0.0,0.0,0.0,0.0,0.0,2.0,0.25,1.5,0.75,0.75,0.5,0.39,-0.05,1.02,0.0,-8.1,-68.6,0.0,0.0,0.0,1.0,0.0,0.25,0.0,0.75,0.0,0.5,0.5,0.75,3.75,-0.42,-0.98,1.58,48.72,6.4,-70.9
1.78,0.0,0.0,0.0,0.25,0.0,0.0,0.0,1.5,0.0,0.75,0.0,0.5,0.25,1.02,-0.23,1.58,2.87,-9.6,-55.8,0.0,0.0,0.0,0.25,1.0,0.25,0.0,0.0,0.0,0.5,0.25,0.75,3.25,0.14,-0.23,0.52,11.05,7.5,-64.7
1.8,0.5,0.0,0.0,1.75,0.0,0.0,0.25,1.75,0.25,1.0,0.0,0.75,1.5,-0.48,-0.05,0.58,12.04,-0.6,-32.3,0.0,0.0,0.0,0.0,0.0,0.25,0.0,0.0,0.0,0.5,0.25,0.75,3.5,0.14,0.45,0.2,0.0,10.0,-98.7
1.82,0.25,0.0,1.5,1.75,0.0,0.0,0.25,1.75,0.5,0.75,0.0,0.75,1.5,-0.42,-0.11,0.39,41.15,5.8,-18.7,0.5,0.0,0.0,0.0,0.25,0.25,0.0,0.25,0.0,0.25,0.25,0.75,3.25,0.89,-0.67,0.33,0.0,5.9,-73.3
1.84,0.0,0.0,1.75,0.0,0.0,0.0,0.25,2.0,0.0,0.25,0.0,0.5,0.5,-0.11,-0.11,0.45,59.86,6.3,-18.2,0.0,0.0,0.0,0.0,0.0,0.0,0.0,0.0,0.0,0.25,0.0,0.75,3.25,0.64,-1.23,0.08,0.0,9.9,-107.9
1.86,0.0,0.0,0.0,1.0,0.0,0.0,0.25,1.75,0.25,1.5,0.0,1.25,0.25,-0.3,-0.11,0.27,87.12,-3.3,-47.2,0.0,0.0,0.0,0.5,0.0,1.0,0.5,1.0,0.0,1.0,0.75,1.5,3.0,0.58,-1.11,0.7,27.1,6.4,-66.9
1.88,0.0,0.0,1.0,1.75,0.0,0.0,0.25,2.5,0.25,1.0,0.25,0.75,1.5,-0.17,-0.11,0.33,117.47,0.8,-30.1,0.5,0.0,0.0,0.5,1.0,0.5,0.0,1.0,0.0,0.75,0.75,1.5,4.0,0.45,-0.73,0.83,72.3,4.9,-57.2
1.9,0.0,0.0,1.5,0.0,0.0,0.0,0.0,1.5,0.0,0.5,0.0,0.5,0.5,0.02,-0.17,0.39,108.9,5.1,-24.7,0.0,0.25,0.0,0.5,1.0,0.5,0.25,1.0,0.0,1.25,1.0,1.5,4.25,0.45,-0.17,0.58,120.17,6.1,-61.4
1.92,0.0,0.0,0.0,1.75,0.0,0.0,0.25,1.75,0.5,1.0,0.25,1.0,1.5,-0.05,-0.17,0.27,116.89,-1.6,-43.8,0.25,0.25,0.0,0.75,1.25,0.5,0.5,0.75,0.0,0.75,1.5,1.5,4.0,0.52,-0.11,0.7,154.57,2.8,-51.4
1.94,0.25,0.0,1.25,1.75,0.0,0.0,0.0,1.75,0.25,1.25,0.25,1.25,1.5,0.02,-0.42,0.33,125.92,3.6,-29.9,0.5,0.0,0.0,0.5,1.0,0.5,0.25,0.75,0.0,1.0,1.25,1.25,4.25,0.58,0.02,0.58,172.38,4.3,-57.9
1.96,0.5,0.0,1.0,0.25,0.0,0.0,0.25,2.0,0.0,0.25,0.0,0.5,1.5,0.08,-0.73,0.52,119.29,1.6,-31.4,0.5,0.0,0.0,0.5,1.0,0.75,0.0,1.0,0.0,1.5,1.0,1.25,4.0,0.64,0.02,0.52,181.43,5.9,-55.8
1.98,0.0,0.0,0.0,0.5,0.0,0.0,0.0,2.5,0.25,1.25,0.0,1.25,0.5,0.02,-0.92,0.52,111.44,-7.2,-57.9,0.0,0.25,0.0,0.5,1.0,0.25,0.0,1.0,0.0,1.0,1.25,1.5,4.0,0.77,-0.3,0.89,183.79,5.4,-63.3
2.0,0.25,0.0,1.5,1.75,0.0,0.0,0.0,0.75,0.25,1.25,0.0,1.0,1.0,-0.11,-0.98,0.52,112.87,8.1,-16.7,0.25,0.0,0.0,0.5,1.0,0.5,0.0,0.75,0.0,0.5,1.0,1.5,3.5,0.89,-0.55,1.02,178.65,4.4,-58.6
2.02,0.0,0.0,1.5,0.0,0.0,0.0,0.0,1.5,0.0,0.25,0.0,0.25,0.25,-0.23,-1.17,0.64,95.02,7.5,-10.1,0.5,0.0,0.0,0.5,1.0,0.25,0.0,0.75,0.0,0.75,1.0,1.25,3.25,0.95,-0.42,0.39,169.66,3.4,-54.7
2.04,0.0,0.0,0.0,0.0,0.0,0.0,0.0,1.5,0.0,0.5,0.0,0.25,0.25,-0.42,-1.17,0.52,69.22,-13.7,-60.4,0.5,0.0,0.0,0.5,1.0,0.5,0.0,0.75,0.0,0.5,1.0,1.25,3.25,0.95,-0.48,0.2,160.06,3.6,-51.9
2.06,0.0,0.0,0.0,1.75,0.0,0.0,0.0,1.5,0.25,1.0,0.0,0.5,0.5,-0.55,-1.11,0.33,64.66,-1.6,-26.5,0.5,0.0,0.0,0.5,1.0,0.25,0.0,0.75,0.0,0.5,0.75,1.25,3.0,0.7,-0.55,0.52,148.56,3.1,-51.9
2.08,0.0,0.0,1.25,0.0,0.0,0.0,0.25,1.75,0.0,0.25,0.0,0.25,0.5,-0.61,-1.05,0.39,60.14,3.6,-21.3,0.75,0.0,0.0,0.5,1.0,0.25,0.0,1.0,0.0,0.5,0.75,1.25,3.0,0.52,-0.67,0.7,141.1,2.5,-47.7
2.1,0.0,0.0,1.0,1.75,0.0,0.0,0.0,2.0,0.25,1.0,0.0,0.5,1.25,-0.55,-0.98,0.39,75.43,1.4,-24.0,0.5,0.25,0.0,0.5,1.0,0.5,0.25,0.25,0.0,0.5,1.5,1.25,3.25,0.45,-0.73,0.83,137.09,1.3,-48.8
2.12,0.0,0.0,1.5,0.0,0.0,0.0,0.0,1.75,0.0,0.25,0.0,0.25,1.0,-0.48,-0.92,0.39,75.32,2.8,-27.5,0.0,0.25,0.0,1.0,1.0,0.25,0.25,0.25,0.0,0.5,1.25,1.25,2.75,0.27,-0.73,0.77,133.4,1.2,-48.2
2.14,0.0,0.0,0.0,0.0,0.0,0.0,0.0,1.5,0.0,0.25,0.0,0.25,0.25,-0.42,-0.92,0.39,66.98,-13.4,-58.8,0.5,0.0,0.0,0.5,1.0,0.5,0.0,0.5,0.0,0.75,1.0,1.5,2.75,0.33,-0.8,0.7,133.01,2.6,-51.3
2.16,0.0,0.0,0.0,0.0,0.0,0.0,0.0,1.25,0.0,0.25,0.0,0.25,0.25,-0.42,-0.86,0.45,44.5,-13.0,-61.3,0.5,0.0,0.0,0.5,1.0,0.5,0.0,0.25,0.0,0.5,1.0,1.25,3.25,0.39,-0.92,0.89,132.25,2.8,-52.7
2.18,0.0,0.0,0.0,1.75,0.0,0.0,0.0,1.5,0.25,0.75,0.0,0.5,0.5,-0.36,-0.8,0.52,48.1,-0.9,-24.2,0.25,0.0,0.0,0.5,1.0,0.5,0.0,0.25,0.0,0.5,1.25,1.25,2.5,0.52,-0.98,0.89,128.95,2.5,-52.2
2.2,0.0,0.0,1.5,0.0,0.0,0.0,0.25,1.5,0.0,0.25,0.0,0.25,0.25,-0.3,-0.61,0.39,50.71,8.3,-8.9,0.25,0.0,0.0,0.5,1.0,0.25,0.0,0.0,0.0,0.75,1.25,1.25,3.25,0.45,-0.92,0.83,129.07,2.9,-60.8
2.22,0.25,0.0,1.5,1.25,0.0,0.0,0.25,2.0,0.0,0.25,0.0,0.25,1.0,-0.3,-0.48,0.39,70.78,6.5,-6.0,0.5,0.25,0.0,0.5,1.0,0.25,0.25,0.5,0.0,0.75,1.0,0.75,2.75,0.39,-0.8,0.77,128.27,2.1,-42.9
2.24,0.0,0.0,0.0,0.0,0.0,0.0,0.0,1.5,0.0,0.25,0.0,0.25,0.25,-0.3,-0.42,0.39,64.33,-13.4,-58.8,0.25,0.0,0.0,0.5,1.25,0.5,0.25,0.5,0.0,0.5,1.0,1.25,2.5,0.39,-0.73,0.7,129.26,2.8,-46.5
2.26,0.0,0.0,0.0,0.0,0.0,0.0,0.0,1.25,0.0,0.25,0.0,0.25,0.25,-0.36,-0.42,0.33,57.32,-13.0,-61.3,0.0,0.25,0.0,0.5,1.0,0.5,0.0,0.25,0.0,0.5,1.0,1.25,3.25,0.45,-0.61,0.7,130.37,4.4,-56.3
2.28,0.0,0.0,0.0,0.0,0.0,0.0,0.0,1.5,0.0,0.25,0.0,0.25,0.25,-0.36,-0.36,0.33,41.45,-13.4,-58.8,0.0,0.0,0.0,0.5,0.0,0.5,0.25,0.25,0.0,0.5,1.25,1.0,3.25,0.45,-0.48,0.64,127.91,4.5,-76.3
2.3,0.25,0.0,0.0,1.5,0.0,0.0,0.0,1.5,0.25,1.25,0.0,0.5,0.25,-0.42,-0.36,0.39,49.37,-1.0,-23.6,0.5,0.0,0.0,0.5,1.0,0.5,0.25,0.25,0.0,0.5,0.75,1.25,3.25,0.33,-0.36,0.58,129.53,2.7,-51.0
2.32,0.25,0.0,1.5,1.5,0.0,0.0,0.25,2.5,0.25,1.0,0.0,0.5,0.25,-0.36,-0.36,0.39,74.75,5.5,-6.7,0.25,0.0,0.0,0.5,1.0,0.25,0.25,0.25,0.0,0.75,0.25,1.25,3.0,0.27,-0.36,0.58,125.9,4.1,-55.3
2.34,0.0,0.0,1.5,1.5,0.0,0.0,0.25,2.0,0.25,1.0,0.0,0.5,1.0,-0.42,-0.36,0.33,99.46,4.2,-17.7,0.5,0.0,0.0,0.5,1.0,0.5,0.0,0.25,0.0,0.75,1.0,1.0,3.25,0.2,-0.36,0.58,129.32,3.5,-51.7
2.36,0.0,0.0,1.5,1.5,0.0,0.0,0.0,2.0,0.5,0.75,0.0,0.5,1.0,-0.48,-0.42,0.33,119.35,4.7,-17.2,0.5,0.25,0.0,0.5,1.0,0.25,0.25,0.0,0.0,0.5,1.0,1.0,3.25,0.14,-0.36,0.52,129.75,1.2,-48.1
2.38,0.0,0.0,1.5,1.75,0.0,0.0,0.0,2.0,0.25,0.75,0.0,0.5,1.0,-0.48,-0.42,0.39,127.28,4.8,-14.0,0.0,0.25,0.0,0.75,1.0,0.5,0.25,0.25,0.0,0.5,1.0,1.0,3.0,0.14,-0.36,0.45,131.35,3.3,-48.4
2.4,0.0,0.0,1.5,1.25,0.0,0.0,0.0,2.0,0.25,0.75,0.0,0.5,1.0,-0.48,-0.48,0.33,125.52,4.0,-19.1,0.5,0.0,0.0,0.5,1.0,0.5,0.0,0.0,0.0,0.5,1.0,1.25,2.5,0.08,-0.36,0.45,127.86,1.3,-47.5
2.42,0.0,0.0,1.5,1.25,0.0,0.0,0.0,1.75,0.25,1.0,0.0,0.5,1.0,-0.48,-0.48,0.27,121.37,4.0,-20.4,0.0,0.25,0.0,0.5,1.25,0.25,0.0,0.0,0.0,0.5,0.75,1.25,3.0,0.02,-0.36,0.39,126.37,3.6,-53.2
2.44,0.0,0.0,1.5,1.25,0.0,0.0,0.25,2.0,0.25,1.0,0.0,0.5,1.0,-0.48,-0.61,0.33,122.21,3.8,-20.2,0.5,0.5,0.0,0.75,1.0,0.5,0.25,0.5,0.0,0.5,0.25,1.0,3.25,-0.05,-0.42,0.39,127.19,2.7,-36.1
2.46,0.0,0.0,1.25,1.5,0.0,0.0,0.0,2.0,0.25,1.25,0.0,0.5,1.0,-0.55,-0.67,0.33,122.98,2.0,-22.8,0.0,0.25,0.0,0.75,1.0,0.5,0.25,0.5,0.0,0.5,1.5,1.0,2.75,-0.05,-0.42,0.39,131.43,2.6,-47.9
2.48,0.0,0.0,1.0,1.75,0.0,0.0,0.25,2.0,0.5,0.75,0.0,0.5,1.0,-0.55,-0.73,0.39,125.61,3.3,-19.1,0.25,0.0,0.0,0.5,1.0,0.25,0.0,0.25,0.0,0.5,0.5,1.0,3.5,0.02,-0.48,0.33,131.02,4.9,-58.3
2.5,0.0,0.0,0.0,0.0,0.0,0.0,0.0,1.5,0.0,0.25,0.0,0.25,0.5,-0.48,-0.8,0.39,99.5,-13.5,-64.0,0.25,0.0,0.0,0.5,1.0,0.5,0.0,0.25,0.0,0.5,0.75,0.75,3.0,0.08,-0.55,0.33,127.57,4.8,-50.9
2.52,0.0,0.0,0.0,0.0,0.0,0.0,0.0,1.5,0.0,0.25,0.0,0.25,0.25,-0.48,-0.8,0.39,71.05,-13.4,-58.8,0.0,0.0,0.0,0.5,1.0,0.25,0.0,0.0,0.0,0.5,1.0,1.0,2.75,0.08,-0.67,0.33,121.89,3.8,-59.7
2.54,0.0,0.0,0.0,0.0,0.0,0.0,0.0,1.75,0.0,0.5,0.0,0.25,0.25,-0.48,-0.8,0.39,45.4,-13.9,-58.5,0.5,0.0,0.0,0.5,1.0,0.5,0.0,0.5,0.0,0.5,1.0,0.75,2.25,0.02,-0.67,0.33,116.69,2.6,-40.8
2.56,0.0,0.0,0.0,1.75,0.0,0.0,0.0,1.75,0.25,1.0,0.0,0.5,0.25,-0.48,-0.8,0.39,46.74,-1.7,-23.2,0.0,0.0,0.0,0.5,1.0,0.5,0.25,0.0,0.0,0.5,1.25,1.0,3.0,0.02,-0.73,0.33,118.09,3.7,-57.7
2.58,0.0,0.0,0.75,0.5,0.0,0.0,0.25,2.0,0.0,1.0,0.0,0.5,1.25,-0.55,-0.8,0.39,60.19,-3.2,-43.2,0.0,0.25,0.0,0.5,1.0,0.5,0.0,0.25,0.0,0.5,0.75,0.75,3.0,0.02,-0.73,0.39,117.93,5.4,-50.4
2.6,0.0,0.0,0.75,1.25,0.0,0.0,0.0,2.25,0.25,1.25,0.0,0.5,0.75,-0.48,-0.8,0.45,79.95,-1.1,-29.2,0.5,0.25,0.0,0.5,1.0,0.5,0.25,0.0,0.0,0.5,1.0,1.0,3.0,0.08,-0.8,0.39,122.58,1.5,-44.0
2.62,0.5,0.0,0.5,1.25,0.0,0.0,0.25,2.0,0.25,0.75,0.0,0.5,0.75,-0.48,-0.8,0.45,91.09,2.0,-19.0,0.0,0.0,0.0,0.5,1.0,0.5,0.0,0.25,0.0,0.75,1.5,1.0,3.25,0.08,-0.8,0.39,129.24,4.7,-60.8
2.64,0.0,0.0,1.0,1.0,0.0,0.0,0.0,2.0,0.25,0.75,0.0,0.5,1.0,-0.55,-0.86,0.45,96.27,0.8,-28.4,0.25,0.0,0.0,0.5,1.0,0.5,0.25,0.0,0.0,0.5,1.25,1.0,3.25,0.14,-0.73,0.33,133.08,2.9,-55.1
2.66,0.25,0.0,0.75,1.25,0.0,0.0,0.25,2.0,0.25,0.75,0.0,0.5,1.0,-0.48,-0.86,0.52,99.32,1.7,-23.3,0.25,0.0,0.0,0.5,1.0,0.5,0.0,0.0,0.0,0.5,1.0,1.0,2.75,0.14,-0.8,0.33,129.88,3.2,-52.0
2.68,0.5,0.0,0.75,1.25,0.0,0.0,0.0,2.0,0.25,0.75,0.25,0.5,0.75,-0.48,-0.86,0.45,102.94,3.1,-18.8,0.25,0.0,0.0,0.75,1.0,0.5,0.25,0.0,0.0,0.5,0.75,1.0,2.75,0.14,-0.86,0.39,125.77,2.4,-46.4
2.7,0.5,0.0,0.75,1.75,0.0,0.0,0.0,2.0,0.25,1.0,0.0,0.5,0.5,-0.48,-0.86,0.45,109.12,3.8,-10.2,0.5,0.0,0.0,0.5,1.0,0.5,0.0,0.25,0.0,0.5,1.0,1.0,3.0,0.2,-0.86,0.45,125.55,2.8,-49.2
2.72,0.5,0.0,0.75,0.25,0.0,0.0,0.25,2.0,0.25,0.75,0.0,0.5,1.0,-0.48,-0.86,0.45,108.62,0.3,-32.5,0.5,0.0,0.0,0.5,1.0,0.25,0.0,0.0,0.0,0.5,0.75,0.75,3.0,0.2,-0.86,0.45,122.24,2.6,-49.4
2.74,0.5,0.0,0.75,1.25,0.0,0.0,0.25,2.25,0.25,0.75,0.0,0.25,1.0,-0.42,-0.86,0.45,113.05,1.9,-16.9,0.5,0.5,0.0,0.5,1.0,0.5,0.0,0.0,0.0,0.5,0.75,0.75,3.0,0.2,-0.8,0.45,122.41,2.2,-37.6
2.76,0.0,0.0,1.0,1.75,0.0,0.0,0.0,2.0,0.25,0.75,0.0,0.5,0.75,-0.42,-0.86,0.45,111.12,3.1,-16.0,0.5,0.0,0.0,0.5,1.0,0.5,0.5,0.0,0.0,0.5,0.5,1.0,2.75,0.2,-0.8,0.45,119.83,1.8,-43.5
2.78,0.0,0.0,0.75,1.0,0.0,0.0,0.0,2.25,0.25,0.75,0.0,0.5,0.75,-0.42,-0.8,0.45,105.88,-0.8,-29.2,0.5,0.0,0.0,0.5,1.0,0.5,0.0,0.25,0.0,0.5,0.75,1.0,3.25,0.2,-0.8,0.45,122.47,3.6,-50.3
2.8,0.5,0.0,1.0,1.25,0.0,0.0,0.25,1.75,0.25,1.0,0.0,0.5,0.5,-0.42,-0.8,0.45,103.26,5.4,-11.0,0.5,0.0,0.0,0.5,1.0,0.5,0.25,0.5,0.0,0.5,0.75,1.0,3.25,0.14,-0.8,0.52,125.84,3.4,-49.0
2.82,0.5,0.0,0.75,1.25,0.0,0.0,0.25,1.75,0.25,1.0,0.0,0.5,0.75,-0.42,-0.8,0.39,102.59,3.4,-17.3,0.0,0.0,0.0,0.5,1.0,0.25,0.25,0.0,0.0,0.5,1.75,0.75,2.5,0.14,-0.86,0.64,125.5,1.9,-56.5
2.84,0.0,0.0,0.75,1.0,0.0,0.0,0.25,1.75,1.75,1.75,0.0,0.75,0.75,-0.42,-0.73,0.39,112.08,1.3,-37.1,0.5,0.0,0.0,0.5,1.0,0.5,0.25,0.0,0.0,0.5,0.75,0.75,3.0,0.14,-0.86,0.7,123.08,2.7,-45.7
2.86,0.0,0.0,0.0,0.0,0.0,0.0,0.0,0.0,0.0,0.0,0.0,0.0,0.0,-0.42,-0.73,0.45,77.38,0.0,0.0,0.5,0.0,0.0,0.5,1.0,0.5,0.25,0.0,0.0,0.5,0.75,0.75,2.75,0.14,-0.8,0.64,118.73,2.3,-43.5
2.88,0.0,0.0,0.0,0.0,0.0,0.0,0.0,0.0,0.0,0.0,0.0,0.0,0.0,-0.42,-0.73,0.45,43.97,0.0,0.0,0.5,0.0,0.0,0.5,1.0,0.25,0.25,0.0,0.0,0.5,0.75,0.75,2.75,0.08,-0.73,0.58,115.64,1.6,-46.0
2.9,0.0,0.0,2.0,1.25,0.0,0.0,1.75,3.75,0.25,0.75,0.0,0.25,0.5,-0.42,-0.73,0.39,59.94,5.3,-7.3,0.25,0.5,0.0,0.5,1.0,0.25,0.0,0.0,0.0,0.75,0.75,0.75,3.0,0.14,-0.67,0.58,116.3,3.1,-44.9
2.92,0.0,0.0,0.75,1.0,0.0,0.0,0.25,2.0,0.25,0.5,0.0,0.5,0.25,-0.42,-0.67,0.39,66.87,2.5,-17.7,0.5,0.25,0.0,0.5,1.0,0.5,0.25,0.0,0.0,0.5,1.25,0.75,3.25,0.27,-0.92,0.64,121.92,1.8,-44.9
2.94,0.0,0.0,0.75,1.0,0.0,0.0,0.25,2.0,0.75,0.75,0.0,0.5,0.25,-0.42,-0.67,0.39,83.22,2.5,-21.7,0.0,0.0,0.0,0.5,1.0,0.5,0.0,0.0,0.0,0.5,1.25,0.75,2.5,0.27,-1.11,0.7,120.34,4.0,-53.6
2.96,0.0,0.0,2.0,0.0,0.0,0.0,3.5,5.25,0.0,0.0,0.0,0.0,0.0,-0.42,-0.67,0.45,104.29,5.0,-3.5,0.5,0.0,0.0,0.5,1.0,0.5,0.25,0.25,0.0,0.5,0.75,0.75,2.75,0.27,-0.92,0.7,120.58,2.7,-43.3
2.98,0.0,0.0,0.0,0.0,0.0,0.0,0.0,0.0,0.0,0.0,0.0,0.0,0.0,-0.48,-0.67,0.45,75.95,0.0,0.0,0.25,0.0,0.0,0.5,1.0,0.75,0.0,0.25,0.0,0.5,0.0,1.0,2.75,0.27,-0.73,0.7,115.52,6.2,-45.6
3.0,0.0,0.0,0.0,0.0,0.0,0.0,0.0,0.0,0.0,0.0,0.0,0.0,0.0,-0.48,-0.73,0.45,41.58,0.0,0.0,0.0,0.0,0.0,0.5,1.0,0.5,0.25,0.0,0.0,0.5,0.5,1.0,2.5,0.2,-0.67,0.64,111.17,4.5,-51.9
3.02,0.0,0.0,0.0,0.0,0.0,0.0,0.0,0.0,0.0,0.0,0.0,0.0,0.0,-0.48,-0.73,0.52,9.04,0.0,0.0,0.0,0.5,0.0,0.5,1.0,0.5,0.25,0.0,0.0,0.5,1.5,1.0,2.75,0.2,-0.61,0.64,114.96,2.0,-47.2
3.04,0.0,0.0,0.0,0.0,0.0,0.0,0.0,0.0,0.0,0.0,0.0,0.0,0.0,-0.48,-0.73,0.52,0.0,0.0,0.0,0.5,0.0,0.0,0.5,1.0,0.25,0.0,0.0,0.0,0.5,1.5,0.75,2.75,0.2,-0.61,0.7,118.5,1.0,-49.8
3.06,0.0,0.0,0.0,0.0,0.0,0.0,0.0,0.0,0.0,0.0,0.0,0.0,0.0,-0.48,-0.73,0.52,0.0,0.0,0.0,1.25,0.25,0.0,0.5,1.0,0.25,0.25,0.0,0.0,0.5,0.75,1.0,3.25,0.2,-0.61,0.7,126.56,-1.1,-36.1
3.08,0.0,0.0,0.0,0.0,0.0,0.0,0.0,0.0,0.0,0.0,0.0,0.0,0.0,-0.48,-0.73,0.45,0.0,0.0,0.0,0.5,0.0,0.0,0.5,1.0,0.25,0.25,0.0,0.0,0.5,0.0,1.0,3.0,0.2,-0.61,0.64,122.44,3.0,-47.5
3.1,0.0,0.0,0.0,2.0,0.0,0.0,0.0,0.0,0.75,0.5,0.0,0.25,0.0,-0.48,-0.73,0.52,9.9,11.0,7.7,0.5,0.0,0.0,0.5,1.0,0.5,0.25,0.0,0.0,0.5,1.0,1.0,2.5,0.2,-0.61,0.64,121.78,1.1,-44.4
3.12,0.0,0.0,0.5,1.75,0.0,0.0,0.25,2.0,0.25,0.25,0.0,0.25,0.5,-0.48,-0.73,0.52,33.8,2.7,-8.5,0.25,0.0,0.0,0.5,1.0,0.5,0.0,0.0,0.0,0.5,1.25,1.0,3.0,0.2,-0.67,0.64,121.46,3.1,-54.5
3.14,0.5,0.0,0.25,0.5,0.0,0.0,0.0,2.0,0.25,0.25,0.0,0.25,0.5,-0.48,-0.73,0.52,49.26,-0.9,-21.7,0.0,0.0,0.0,0.5,1.0,0.25,0.0,0.0,0.0,0.5,1.0,0.75,3.25,0.2,-0.67,0.64,121.12,4.9,-61.5
3.16,0.25,0.0,0.5,0.25,0.0,0.0,0.25,1.75,0.5,0.25,0.0,0.25,0.5,-0.48,-0.67,0.52,65.29,0.9,-26.6,0.0,0.0,0.0,0.5,1.0,0.5,0.0,0.0,0.0,0.5,0.75,0.75,2.5,0.2,-0.73,0.7,116.19,5.1,-52.0
3.18,0.25,0.0,0.5,0.25,0.0,0.0,0.25,2.0,0.0,0.5,0.0,0.25,0.5,-0.48,-0.67,0.45,69.98,-2.2,-28.8,0.5,0.0,0.0,0.5,1.0,0.25,0.0,0.0,0.0,0.5,1.25,0.75,2.75,0.14,-0.67,0.64,116.69,1.4,-49.0
3.2,0.0,0.0,0.5,0.5,0.0,0.0,0.0,1.75,0.25,0.25,0.0,0.5,0.5,-0.48,-0.67,0.45,72.61,-0.9,-33.9,0.5,0.0,0.0,0.5,0.5,0.5,0.25,0.0,0.0,0.25,0.5,0.75,2.5,0.14,-0.67,0.58,108.32,1.7,-47.2
3.22,0.75,0.0,0.75,0.75,0.0,0.0,0.25,1.5,0.25,0.25,0.0,0.25,0.5,-0.48,-0.67,0.45,83.68,7.8,-1.1,0.0,0.0,0.0,0.5,0.5,0.5,0.0,0.0,0.0,0.25,0.5,0.75,2.5,0.14,-0.73,0.7,100.32,5.5,-60.9
3.24,0.5,0.0,0.75,1.0,0.0,0.0,0.0,1.5,0.25,0.75,0.0,0.25,0.25,-0.48,-0.67,0.45,88.56,5.4,-5.0,0.0,0.25,0.0,0.5,0.5,0.25,0.25,0.0,0.0,0.25,0.75,0.75,2.5,0.14,-0.73,0.7,94.07,2.6,-56.6
3.26,0.5,0.0,0.5,0.25,0.0,0.0,0.25,1.75,0.25,0.25,0.0,0.25,0.5,-0.48,-0.67,0.52,86.96,2.1,-19.3,0.0,0.25,0.0,1.0,0.5,0.5,0.0,0.25,0.0,0.25,0.5,0.75,2.5,0.14,-0.73,0.64,93.05,3.4,-44.5
3.28,0.0,0.0,0.5,1.0,0.0,0.0,0.25,1.75,0.25,0.75,0.0,0.0,0.5,-0.48,-0.67,0.52,85.34,-0.7,-19.2,0.5,0.25,0.0,1.0,0.5,0.25,0.0,0.0,0.0,0.25,0.5,0.75,2.75,0.14,-0.73,0.64,95.42,0.0,-40.2
3.3,0.0,0.0,0.5,0.25,0.0,0.0,0.25,1.75,0.0,0.25,0.0,0.0,0.25,-0.48,-0.67,0.45,73.07,-2.7,-20.6,0.5,0.0,0.0,0.5,0.5,0.25,0.25,0.0,0.0,0.0,0.5,1.0,2.5,0.14,-0.73,0.64,94.82,-0.1,-51.9
3.32,0.5,0.0,0.0,1.25,0.0,0.0,0.0,1.5,0.25,0.25,0.0,0.5,0.5,-0.48,-0.73,0.52,70.08,2.1,-15.9,0.5,0.0,0.0,0.5,0.5,0.25,0.0,0.0,0.0,0.0,0.25,1.0,2.75,0.2,-0.73,0.64,94.33,1.5,-55.0
3.34,0.5,0.0,0.75,1.0,0.0,0.0,0.25,1.25,0.25,0.25,0.0,0.25,0.75,-0.48,-0.73,0.45,68.7,7.2,-6.2,0.25,0.0,0.0,0.5,0.5,0.5,0.0,0.0,0.0,0.25,0.5,0.75,2.5,0.2,-0.73,0.64,91.13,3.9,-54.5
3.36,0.75,0.0,0.5,1.25,0.0,0.0,0.0,1.0,0.0,0.0,0.0,0.25,0.5,-0.48,-0.73,0.45,70.26,10.5,12.3,0.5,0.0,0.0,0.5,0.5,0.5,0.0,0.0,0.0,0.25,0.5,0.75,2.25,0.14,-0.73,0.64,89.03,1.9,-46.0
3.38,0.5,0.0,0.0,1.25,0.0,0.0,0.0,0.0,0.25,0.25,0.0,0.5,0.25,-0.48,-0.73,0.45,64.35,12.8,3.3,0.25,0.0,0.5,0.5,0.5,0.5,0.25,0.25,0.0,0.25,0.75,0.75,2.75,0.14,-0.73,0.64,96.09,0.6,-47.1
3.4,0.5,0.0,0.5,0.5,0.0,0.0,0.0,1.5,0.5,0.25,0.0,0.5,0.5,-0.48,-0.73,0.45,65.19,4.0,-20.9,0.5,0.0,0.0,0.5,0.5,0.5,0.25,0.0,0.0,0.25,0.5,0.75,2.75,0.14,-0.73,0.58,99.48,2.2,-49.7
3.42,0.0,0.0,0.75,0.0,0.0,0.0,0.25,2.0,0.0,0.0,0.0,0.0,0.25,-0.48,-0.73,0.52,57.09,-1.1,-17.6,0.25,0.0,0.0,0.5,0.25,0.25,0.0,0.0,0.0,0.25,1.25,0.75,2.5,0.14,-0.73,0.58,101.37,1.4,-65.6
3.44,0.0,0.0,0.0,0.0,0.0,0.0,0.0,1.0,0.0,0.25,0.0,0.0,0.25,-0.48,-0.73,0.45,44.07,-16.0,-57.0,0.5,0.0,0.0,0.5,0.5,0.5,0.0,0.0,0.0,0.25,0.25,0.75,2.5,0.2,-0.73,0.58,98.98,2.9,-47.6
3.46,0.0,0.0,0.0,0.0,0.0,0.0,0.0,1.25,0.0,0.0,0.0,0.0,0.25,-0.48,-0.73,0.52,31.11,-16.2,-50.9,0.25,0.0,0.0,0.5,0.5,0.5,0.0,0.0,0.0,0.25,0.75,0.75,2.5,0.2,-0.73,0.64,97.79,3.3,-55.4
3.48,0.0,0.0,0.0,0.0,0.0,0.0,0.0,1.25,0.0,0.0,0.0,0.0,0.25,-0.48,-0.67,0.45,22.71,-16.2,-50.9,0.25,0.0,0.0,0.5,0.5,0.25,0.25,0.25,0.0,0.25,0.75,0.75,2.5,0.2,-0.67,0.64,96.67,2.4,-56.5
3.5,0.0,0.0,0.0,0.0,0.0,0.0,0.0,0.25,0.25,0.0,0.0,0.25,0.25,-0.48,-0.67,0.45,15.36,-2.4,-74.6,0.5,0.0,0.0,0.5,0.5,0.5,0.0,0.0,0.0,0.25,0.25,0.75,2.75,0.2,-0.67,0.58,96.54,3.4,-50.2
3.52,1.25,0.0,0.25,1.5,0.0,0.0,1.0,2.0,2.5,0.0,0.5,0.0,0.25,-0.48,-0.67,0.45,52.86,10.5,-0.4,0.75,0.0,0.0,0.5,0.5,0.5,0.25,0.0,0.0,0.25,0.25,0.75,3.0,0.2,-0.67,0.58,99.62,1.8,-46.0
3.54,0.0,0.0,0.0,0.0,0.0,0.0,4.5,5.0,0.0,0.0,0.0,0.0,0.0,-0.48,-0.67,0.45,79.7,-1.9,-18.8,0.5,0.0,0.0,0.5,0.5,0.5,0.0,0.0,0.0,0.25,0.75,0.75,2.5,0.2,-0.61,0.58,100.61,1.9,-49.7
3.56,0.0,0.0,0.0,0.0,0.0,0.0,0.0,0.0,2.75,0.0,0.0,0.25,0.0,-0.48,-0.67,0.45,82.29,11.9,-44.5,0.25,0.0,0.0,0.5,0.5,0.25,0.0,0.0,0.0,0.25,0.75,0.75,2.5,0.2,-0.67,0.58,99.2,2.5,-59.0
3.58,0.0,0.0,0.0,0.5,0.0,0.0,0.25,1.0,0.25,0.5,0.0,0.25,0.25,-0.48,-0.67,0.45,71.79,-3.4,-37.3,0.5,0.0,0.0,0.5,0.5,0.25,0.5,0.0,0.0,0.25,0.75,0.75,1.5,0.2,-0.67,0.58,92.33,-2.8,-38.3
3.6,0.0,0.0,0.0,0.25,0.0,0.0,0.25,1.75,0.25,0.5,0.0,0.25,0.25,-0.42,-0.67,0.45,62.68,-8.0,-45.0,0.5,0.0,0.0,0.5,0.5,0.25,0.0,0.0,0.0,0.25,0.75,0.75,2.5,0.2,-0.67,0.58,91.57,1.0,-53.0
3.62,0.75,0.0,0.0,0.75,0.0,0.0,0.25,1.75,0.25,0.25,0.25,0.5,0.5,-0.42,-0.67,0.45,63.61,2.2,-21.2,0.5,0.0,0.0,0.5,0.5,0.5,0.0,0.0,0.0,0.25,0.75,0.75,2.75,0.2,-0.73,0.58,93.48,2.3,-52.1
3.64,0.5,0.0,0.0,1.0,0.0,0.0,0.0,1.5,0.25,0.5,0.25,0.25,0.5,-0.42,-0.73,0.45,67.8,0.4,-21.2,0.25,0.0,0.0,0.5,0.5,0.25,0.0,0.0,0.0,0.25,0.25,0.75,2.5,0.14,-0.73,0.52,92.92,3.7,-57.5
3.66,0.5,0.0,0.0,1.0,0.0,0.0,0.0,1.5,0.25,0.5,0.25,0.5,0.5,-0.42,-0.73,0.45,77.92,0.8,-25.6,0.0,0.75,0.0,0.5,0.5,0.25,0.0,0.25,0.0,0.25,0.5,0.75,2.5,0.14,-0.73,0.58,95.41,3.1,-44.2
3.68,0.5,0.0,0.0,1.25,0.0,0.0,0.0,1.5,0.25,0.25,0.25,0.25,0.5,-0.42,-0.73,0.45,80.06,2.2,-14.0,0.5,0.0,0.0,0.5,0.5,0.5,0.0,0.0,0.0,0.25,0.75,0.75,2.5,0.14,-0.73,0.52,96.6,1.9,-49.7
3.7,0.75,0.0,0.0,0.75,0.0,0.0,0.0,1.5,0.25,0.5,0.25,0.0,0.75,-0.42,-0.73,0.45,78.31,0.0,-19.9,0.5,0.0,0.0,0.5,0.5,0.5,0.0,0.0,0.0,0.25,0.75,0.75,2.0,0.14,-0.73,0.52,94.78,0.8,-44.4
3.72,0.25,0.0,0.0,1.25,0.0,0.0,0.25,0.75,0.25,0.5,0.0,0.25,0.5,-0.42,-0.73,0.45,71.18,3.1,-14.8,0.5,0.0,0.0,0.5,0.5,0.25,0.0,0.0,0.0,0.25,0.75,0.75,2.5,0.14,-0.73,0.52,94.65,1.0,-53.0
3.74,0.25,0.0,0.0,0.25,0.0,0.0,0.0,0.0,0.25,0.25,0.25,0.25,0.5,-0.42,-0.73,0.45,54.88,4.7,-46.3,0.5,0.0,0.0,0.5,0.5,0.5,0.5,0.0,0.0,0.25,0.5,0.75,1.75,0.2,-0.73,0.52,91.26,-0.6,-36.9
3.76,0.25,0.0,0.0,1.25,0.0,0.0,0.0,0.0,0.25,0.25,0.25,0.25,0.5,-0.42,-0.73,0.45,43.84,9.0,-10.4,0.5,0.0,0.0,0.5,0.5,0.5,0.0,0.0,0.0,0.25,0.75,0.75,2.25,0.2,-0.73,0.52,91.53,1.4,-47.2
3.78,0.0,0.0,0.0,0.0,0.0,0.0,0.25,0.25,0.0,0.0,0.0,0.0,0.25,-0.42,-0.73,0.45,29.63,-6.1,-55.3,0.5,0.0,0.0,0.5,0.5,0.5,0.25,0.0,0.0,0.25,0.0,0.75,3.0,0.2,-0.73,0.52,93.08,3.6,-50.2
3.8,0.0,0.0,0.0,0.0,0.0,0.0,0.0,0.75,0.5,0.5,0.0,0.25,0.25,-0.42,-0.73,0.45,29.43,-7.0,-62.9,0.25,0.0,0.0,0.5,0.5,0.25,0.0,0.0,0.0,0.25,0.25,0.75,2.5,0.2,-0.73,0.58,92.34,3.7,-57.5
3.82,0.25,0.0,0.0,1.0,0.0,0.0,0.25,1.5,0.5,0.25,0.25,0.5,0.5,-0.42,-0.73,0.45,38.93,1.4,-28.3,0.25,0.25,0.0,0.5,0.5,0.25,0.0,0.0,0.0,0.25,0.75,0.75,2.75,0.2,-0.73,0.58,95.31,2.3,-54.6
3.84,0.25,0.0,0.0,1.0,0.0,0.0,0.0,0.75,0.25,0.0,0.0,0.25,0.5,-0.42,-0.73,0.45,43.5,3.8,-12.8,0.5,0.0,0.0,0.5,0.5,0.25,0.0,0.0,0.0,0.25,0.75,0.75,2.5,0.2,-0.73,0.58,95.27,1.0,-53.0
3.86,0.25,0.0,0.0,1.0,0.0,0.0,0.0,0.5,0.25,0.25,0.0,0.0,0.5,-0.42,-0.73,0.45,44.55,3.5,-7.4,0.0,0.0,0.0,0.5,0.5,0.5,0.0,0.0,0.0,0.25,0.5,1.0,2.5,0.2,-0.73,0.58,96.38,4.9,-62.9
3.88,0.25,0.0,0.0,0.75,0.0,0.0,0.25,0.0,0.25,0.25,0.0,0.5,0.75,-0.48,-0.73,0.45,43.72,6.3,-33.1,0.0,0.0,0.0,0.5,0.5,0.5,0.0,0.0,0.0,0.25,0.5,0.75,2.25,0.2,-0.73,0.58,93.46,5.1,-58.5
3.9,0.5,0.0,0.0,1.0,0.0,0.0,0.0,0.0,0.25,0.5,0.0,0.5,0.5,-0.42,-0.73,0.45,44.61,8.2,-15.9,0.5,0.0,0.0,0.5,0.5,0.25,0.0,0.0,0.0,0.25,0.75,0.75,2.25,0.2,-0.73,0.52,92.21,0.5,-50.4
3.92,0.5,0.0,0.0,0.75,0.0,0.0,0.25,0.0,0.25,0.25,0.0,0.5,0.75,-0.42,-0.73,0.45,44.52,8.4,-23.3,0.25,0.0,0.0,0.5,0.5,0.5,0.0,0.0,0.0,0.25,1.5,0.75,2.5,0.2,-0.73,0.58,96.95,1.8,-57.5
3.94,0.25,0.0,0.0,0.75,0.0,0.0,0.0,1.0,0.0,0.75,0.25,0.5,0.5,-0.42,-0.67,0.45,52.48,-1.7,-38.9,0.25,0.0,0.0,0.5,0.5,0.25,0.0,0.25,0.0,0.25,0.25,0.75,2.25,0.2,-0.73,0.58,94.92,3.8,-54.1
3.96,0.25,0.0,0.0,1.25,0.0,0.0,0.0,1.0,0.25,0.5,0.25,0.5,0.5,-0.42,-0.67,0.45,61.43,1.9,-25.7,0.5,0.0,0.0,0.5,0.5,0.5,0.0,0.0,0.0,0.25,0.25,0.75,2.25,0.2,-0.73,0.58,93.0,2.4,-44.7
3.98,0.25,0.0,0.0,1.25,0.0,0.0,0.0,1.0,0.25,1.0,0.25,0.25,0.5,-0.48,-0.67,0.45,69.75,-0.2,-26.5,0.75,0.25,0.0,0.5,0.5,0.5,0.0,0.0,0.0,0.25,0.75,0.75,2.5,0.2,-0.73,0.58,95.34,0.0,-39.0
4.0,0.0,0.0,0.0,0.75,0.0,0.0,0.25,0.75,0.25,0.25,0.25,0.25,0.5,-0.48,-0.73,0.45,65.96,0.5,-35.1,0.25,0.0,0.0,0.5,0.5,0.5,0.0,0.25,0.0,0.25,0.25,0.75,2.75,0.2,-0.73,0.58,96.11,5.4,-55.4
4.02,0.25,0.0,0.0,0.25,0.0,0.0,0.0,0.75,0.25,0.5,0.25,0.0,0.5,-0.42,-0.73,0.45,59.95,-3.3,-41.1,0.5,0.0,0.0,0.5,0.5,0.25,0.0,0.0,0.0,0.25,0.25,0.75,2.75,0.2,-0.73,0.52,96.02,2.6,-53.6
4.04,0.25,0.0,0.0,1.0,0.0,0.0,0.0,0.75,0.0,0.0,0.0,0.25,0.5,-0.42,-0.67,0.45,50.1,3.1,-10.5,0.5,0.0,0.0,0.5,0.5,0.5,0.5,0.0,0.0,0.25,1.25,0.75,2.5,0.2,-0.73,0.58,101.46,-0.1,-48.9
4.06,0.0,0.0,0.0,0.0,0.0,0.0,0.25,0.0,0.0,0.0,0.0,0.0,0.25,-0.42,-0.67,0.45,31.62,0.9,-66.3,0.5,0.0,0.0,0.5,0.5,0.5,0.0,0.0,0.0,0.25,0.75,0.75,2.5,0.2,-0.73,0.58,101.75,1.9,-49.7
4.08,0.0,0.0,0.0,0.0,0.0,0.0,0.0,0.0,0.0,0.0,0.0,0.25,0.25,-0.42,-0.73,0.45,19.7,-2.5,-109.9,0.25,0.0,0.0,0.5,0.5,0.5,0.0,0.0,0.0,0.25,0.25,0.75,2.5,0.2,-0.73,0.52,98.97,4.5,-53.6
4.1,0.0,0.0,0.0,0.0,0.0,0.0,0.0,0.5,0.0,0.0,0.0,0.25,0.25,-0.42,-0.73,0.45,11.51,-9.6,-74.5,0.25,0.0,0.0,0.5,0.5,0.5,0.25,0.0,0.0,0.25,0.25,0.75,2.75,0.2,-0.73,0.58,97.09,4.1,-54.4
4.12,0.25,0.0,0.0,1.0,0.0,0.0,0.0,1.0,0.25,0.5,0.25,0.5,0.75,-0.42,-0.73,0.45,27.32,0.2,-35.3,0.25,0.0,0.0,0.5,0.5,0.25,0.0,0.0,0.0,0.25,0.5,0.75,2.5,0.2,-0.73,0.58,94.33,3.1,-58.2
4.14,0.25,0.0,0.0,1.0,0.0,0.0,0.25,0.75,0.25,0.5,0.0,0.25,0.5,-0.42,-0.73,0.45,38.47,2.1,-20.0,0.5,0.0,0.0,0.5,0.5,0.5,0.0,0.0,0.0,0.25,0.75,0.75,2.75,0.2,-0.73,0.58,96.27,2.3,-52.1
4.16,0.25,0.0,0.0,0.0,0.0,0.0,0.0,0.5,0.0,0.0,0.25,0.25,0.75,-0.48,-0.73,0.52,42.67,-2.9,-63.6,0.0,0.0,0.0,0.5,0.5,0.5,0.5,0.0,0.0,0.25,0.25,0.75,3.0,0.2,-0.73,0.58,97.36,5.3,-60.9
4.18,0.0,0.0,0.0,0.25,0.0,0.0,0.0,0.75,0.25,0.25,0.25,0.5,0.5,-0.48,-0.73,0.52,43.44,-3.2,-62.1,0.0,0.0,0.0,0.5,0.0,0.5,0.0,0.75,0.0,0.25,0.75,0.75,2.75,0.2,-0.73,0.58,102.17,6.7,-71.3
4.2,0.5,0.0,0.0,1.25,0.0,0.0,0.0,0.75,0.25,0.0,0.0,0.25,0.5,-0.48,-0.73,0.52,46.58,6.9,-0.2,0.25,0.0,0.0,0.5,0.5,0.25,0.0,0.25,0.0,0.25,0.75,0.75,2.5,0.27,-0.73,0.58,101.06,3.1,-58.1
