time,left pressure 0[N/cm²],left pressure 1[N/cm²],left pressure 2[N/cm²],left pressure 3[N/cm²],left pressure 4[N/cm²],left pressure 5[N/cm²],left pressure 6[N/cm²],left pressure 7[N/cm²],left pressure 8[N/cm²],left pressure 9[N/cm²],left pressure 10[N/cm²],left pressure 11[N/cm²],left pressure 12[N/cm²],left acceleration X[g],left acceleration Y[g],left acceleration Z[g],left total force[N],left center of pressure X[mm],left center of pressure Y[mm],right pressure 0[N/cm²],right pressure 1[N/cm²],right pressure 2[N/cm²],right pressure 3[N/cm²],right pressure 4[N/cm²],right pressure 5[N/cm²],right pressure 6[N/cm²],right pressure 7[N/cm²],right pressure 8[N/cm²],right pressure 9[N/cm²],right pressure 10[N/cm²],right pressure 11[N/cm²],right pressure 12[N/cm²],right acceleration X[g],right acceleration Y[g],right acceleration Z[g],right total force[N],right center of pressure X[mm],right center of pressure Y[mm]
0.02,5.25,0.75,6.5,8.0,0.0,0.0,0.25,0.0,0.0,1.0,0.0,0.0,0.75,-0.55,1.02,2.2,459.71,24.7,57.0,0.75,0.25,0.0,0.5,0.0,2.0,0.0,6.5,0.0,9.75,8.0,6.5,8.25,0.2,0.27,1.27,627.78,5.7,-71.5
0.04,3.5,0.75,4.0,4.75,0.0,0.0,0.5,0.0,0.75,1.0,0.0,0.75,0.75,-0.86,1.7,2.89,334.33,21.9,40.3,0.0,0.25,0.0,1.5,1.25,3.5,0.0,7.5,1.75,10.5,9.5,6.5,8.25,0.08,0.14,1.02,796.39,5.5,-63.0
0.06,1.75,0.0,3.5,3.5,0.0,0.0,0.25,0.0,0.5,1.25,0.0,1.0,0.75,-0.73,1.2,2.77,239.33,19.6,22.9,2.0,1.0,2.25,2.0,2.25,4.0,1.0,8.25,3.0,10.5,10.0,6.5,8.25,0.2,0.14,1.02,952.52,1.6,-45.8
0.08,0.0,0.5,2.25,2.0,0.0,0.0,0.25,2.0,0.5,1.5,0.0,0.0,0.75,-0.61,0.02,2.2,151.12,7.4,2.2,2.0,1.0,2.75,2.5,2.75,4.5,2.0,8.5,3.5,10.5,10.5,6.5,8.25,0.14,0.14,0.95,1095.97,0.9,-42.2
0.1,0.0,0.5,0.0,1.75,0.0,0.0,0.25,1.75,0.5,1.25,0.0,0.5,1.0,-0.73,-0.86,2.02,73.66,-1.4,-25.1,3.0,1.25,3.5,3.25,2.75,5.0,2.25,8.75,4.0,9.75,10.5,6.5,8.0,0.2,0.08,0.95,1211.14,-0.4,-36.0
0.12,0.0,0.0,0.5,2.5,0.0,0.0,0.25,1.75,0.5,1.25,0.0,0.5,1.0,-0.42,-1.11,2.83,30.55,1.9,-19.6,3.0,1.25,3.75,3.25,3.75,5.0,2.5,8.75,3.75,9.0,9.25,6.0,7.25,0.2,0.08,0.95,1251.62,-0.6,-31.3
0.14,0.0,0.0,2.0,2.5,0.0,0.0,0.25,1.75,0.5,1.25,0.0,0.5,1.0,-0.48,-0.67,1.45,20.36,7.6,-6.9,3.25,1.25,4.75,3.25,5.0,5.5,2.5,8.5,3.25,8.25,8.5,5.0,6.25,0.2,0.08,0.95,1236.54,-1.2,-23.4
0.16,0.0,0.0,0.0,2.5,0.0,0.0,0.25,1.75,0.5,1.25,0.0,0.5,0.75,-0.61,-0.61,0.7,13.9,0.0,-22.1,3.25,1.5,5.25,3.5,5.25,5.5,2.5,8.0,2.75,7.5,7.5,3.5,5.5,0.2,0.08,0.95,1175.48,-1.7,-16.5
0.18,0.0,0.0,0.5,2.5,0.0,0.0,0.25,1.75,0.5,1.25,0.0,1.0,1.0,-0.42,-0.55,0.45,25.2,2.3,-24.7,3.25,1.75,5.25,4.75,5.25,5.5,2.25,7.5,2.25,6.5,6.25,2.75,4.25,0.2,0.14,0.95,1079.84,-2.5,-8.4
0.2,0.0,0.0,0.25,2.5,0.0,0.0,0.25,2.0,0.25,1.25,0.0,1.0,0.75,-0.3,-0.48,0.58,37.84,0.8,-24.8,3.5,2.0,5.5,5.5,5.25,5.5,2.25,6.5,2.0,5.5,4.5,2.0,2.75,0.2,0.14,0.95,956.39,-3.9,2.5
0.22,0.0,0.0,0.5,2.5,0.0,0.0,0.25,1.75,0.25,1.25,0.0,1.0,0.75,-0.23,-0.42,0.89,56.67,2.5,-21.7,4.0,2.0,6.75,5.5,5.5,5.5,2.25,6.0,1.5,4.0,3.75,1.5,2.5,0.2,0.14,0.95,862.11,-5.7,11.1
0.24,0.0,0.0,1.0,2.5,0.0,0.0,0.0,1.0,0.25,1.25,0.0,1.25,0.0,-0.23,-0.23,0.83,73.29,8.4,-8.7,4.5,2.0,6.75,6.25,5.5,5.5,2.25,6.0,1.0,3.25,2.75,1.25,1.75,0.2,0.14,0.95,785.85,-6.6,18.9
0.26,0.0,0.0,0.0,2.5,0.0,0.0,0.25,1.75,0.5,1.25,0.0,1.0,0.0,-0.3,-0.05,0.83,88.43,2.0,-18.7,5.0,2.25,7.5,7.25,5.75,5.5,1.75,5.25,0.75,3.0,2.5,1.25,1.75,0.14,0.14,0.89,747.41,-7.9,23.8
0.28,0.0,0.0,0.0,2.0,0.0,0.0,0.25,2.0,0.5,1.25,0.0,1.0,0.0,-0.3,0.02,0.95,94.34,0.2,-25.2,5.5,2.0,7.75,7.5,6.25,5.5,1.75,5.0,0.75,2.75,2.0,1.0,1.75,0.14,0.14,0.95,724.21,-8.4,27.3
0.3,0.0,0.0,0.0,1.75,0.0,0.0,0.25,1.75,0.5,1.25,0.0,1.0,0.75,-0.3,0.08,1.27,99.32,-1.2,-36.8,5.5,0.0,8.5,7.5,7.0,5.5,1.25,4.25,0.0,1.5,2.0,0.25,1.25,0.14,0.14,0.95,689.69,-9.6,34.0
0.32,0.0,0.0,0.0,1.5,0.0,0.0,0.0,1.5,0.5,1.0,0.0,1.0,0.75,-0.36,0.27,1.58,98.55,-1.5,-40.4,5.75,2.0,8.0,9.25,6.75,5.5,1.25,4.0,0.0,1.0,2.0,0.75,1.5,0.14,0.2,0.95,690.49,-10.2,36.8
0.34,0.0,0.0,0.75,2.0,0.0,0.0,0.25,1.75,0.5,1.0,0.0,1.0,0.75,-0.48,0.33,1.77,104.17,3.5,-23.1,6.25,0.0,8.75,9.75,7.25,5.25,1.0,3.75,0.25,1.5,1.25,0.75,0.5,0.08,0.2,1.02,687.96,-11.2,39.3
0.36,0.0,0.0,0.5,2.0,0.0,0.0,0.0,1.75,0.5,1.25,0.0,1.0,0.75,-0.55,0.52,2.2,106.2,1.4,-28.2,7.75,3.75,8.75,9.25,7.25,4.0,0.75,2.5,0.25,0.0,0.75,0.75,0.0,0.14,0.2,1.02,704.81,-14.7,54.7
0.38,0.0,0.0,0.5,1.5,0.0,0.0,0.0,2.0,0.5,1.25,0.0,1.0,0.75,-0.73,1.02,2.7,109.47,-0.2,-34.5,8.0,3.25,9.25,10.5,7.75,3.5,0.75,2.75,0.0,0.5,1.0,0.0,1.0,0.14,0.27,1.08,734.21,-14.3,51.8
0.4,0.0,0.0,0.75,1.5,0.0,0.0,0.25,1.75,0.5,1.0,0.0,1.0,0.75,-0.73,1.58,2.77,110.91,2.6,-28.7,8.25,4.25,9.5,10.5,7.25,3.25,1.5,2.75,0.0,0.25,1.25,0.0,0.75,0.08,0.27,1.02,774.81,-15.3,53.8
0.42,0.0,0.0,0.5,1.5,0.0,0.0,0.25,1.5,0.5,1.25,0.0,1.0,0.75,-0.61,2.77,2.52,109.32,1.3,-33.2,8.0,4.75,10.5,10.5,7.5,3.5,0.75,2.25,0.0,0.5,0.25,0.0,0.0,0.08,0.33,1.08,805.41,-15.9,59.6
0.44,0.0,0.0,0.0,1.75,0.0,0.0,0.25,1.75,0.25,1.0,0.0,0.75,0.75,-0.55,3.7,1.77,104.4,-1.6,-32.5,8.0,2.75,10.5,10.5,7.25,3.25,0.75,2.25,0.0,0.25,1.25,0.25,1.0,0.08,0.33,1.14,816.89,-15.8,51.7
0.46,0.0,0.0,0.0,1.75,0.0,0.0,0.0,1.75,0.5,1.25,0.0,1.0,0.5,0.33,5.33,0.02,102.3,-1.4,-35.2,8.0,3.5,11.5,9.75,7.25,2.0,1.0,1.75,0.0,1.5,0.25,0.0,0.0,0.02,0.33,1.14,809.92,-17.5,57.5
0.48,0.0,0.0,0.0,1.0,0.0,0.0,0.25,1.75,0.5,1.5,0.0,0.75,0.0,2.08,7.39,0.2,95.86,-3.2,-38.5,8.0,4.0,10.5,9.25,6.5,2.0,0.5,1.0,0.0,0.25,0.25,0.0,0.0,0.08,0.39,1.27,768.99,-18.8,63.7
0.5,0.0,0.0,0.75,2.25,0.0,0.0,0.0,2.0,0.0,2.75,0.0,2.25,2.25,-0.05,-0.42,-0.3,126.01,-1.4,-48.4,8.0,3.75,9.5,9.0,5.75,2.0,0.0,0.25,0.0,0.0,0.0,0.0,0.0,0.2,0.45,1.39,705.58,-19.7,67.7
0.52,0.0,0.0,0.25,0.5,0.0,0.0,0.0,0.75,0.5,4.5,0.0,4.0,4.5,-0.3,-0.05,2.39,172.43,-5.7,-85.1,6.0,2.0,8.75,5.5,5.5,1.25,1.0,0.75,0.0,0.0,0.0,0.0,0.0,0.27,0.64,2.33,596.53,-19.8,64.0
0.54,0.0,0.0,0.0,1.25,0.0,0.0,0.0,3.75,1.25,6.5,4.5,5.0,6.25,-0.67,0.58,3.14,270.75,-4.3,-76.7,3.25,0.5,6.75,3.25,1.5,1.0,1.0,0.75,0.0,0.0,0.0,0.0,0.0,0.14,1.64,2.77,426.52,-23.1,60.5
0.56,0.0,0.0,0.0,0.0,0.0,0.0,0.0,5.25,2.25,7.25,0.0,5.5,7.0,-0.42,0.64,2.58,348.41,-8.2,-81.3,1.75,0.25,4.75,1.5,0.0,1.0,0.75,1.25,0.0,0.0,0.0,0.0,0.0,0.02,1.39,2.64,277.53,-22.3,52.1
0.58,0.0,0.0,0.0,0.0,0.0,0.0,0.25,6.0,3.0,7.25,6.75,5.5,6.25,-0.11,0.08,1.08,461.91,-4.1,-77.4,0.75,0.25,2.75,0.5,0.0,1.0,0.5,0.75,0.0,0.0,0.0,0.0,0.0,0.08,0.39,1.89,151.27,-19.0,49.1
0.6,0.5,0.0,0.0,1.0,0.0,0.75,0.5,6.5,4.25,7.75,7.5,5.5,6.25,-0.23,0.08,1.02,570.28,-2.8,-67.8,0.75,0.0,0.0,0.5,0.0,1.0,0.5,0.75,0.0,0.0,0.0,0.0,0.0,-0.05,-1.55,2.39,29.77,-2.2,34.3
0.62,1.25,0.0,2.0,2.5,0.0,0.75,1.0,7.0,5.0,8.0,7.5,5.75,6.5,-0.17,0.02,0.95,691.02,0.3,-54.6,0.5,0.0,0.0,0.5,0.0,1.0,0.25,1.0,0.0,0.0,0.0,0.0,0.0,0.27,-0.73,2.95,0.0,3.0,23.8
0.64,2.75,0.0,4.0,3.75,2.5,1.25,1.0,7.0,5.5,7.5,7.75,5.5,6.25,-0.11,0.02,1.02,809.16,3.0,-36.3,0.5,0.0,0.0,0.0,0.0,0.5,0.5,0.75,0.0,0.0,0.0,0.0,0.0,0.14,-0.61,0.83,0.0,-0.3,20.3
0.66,3.25,0.75,4.25,3.5,2.75,1.5,1.0,7.0,5.75,7.25,7.5,5.5,5.75,-0.11,-0.05,1.02,902.1,3.6,-31.5,0.75,0.0,0.0,0.25,0.0,1.0,0.5,0.25,0.0,0.0,0.0,0.0,0.0,0.39,-0.55,0.58,0.0,-4.5,47.0
0.68,3.5,0.75,5.0,4.5,3.0,1.5,1.5,6.75,5.5,6.5,7.25,5.0,5.25,-0.11,0.02,0.95,953.31,5.0,-25.0,1.75,0.5,1.0,1.25,1.75,1.0,1.0,2.0,0.25,1.5,1.0,0.25,0.75,0.39,-0.48,0.52,0.0,-4.4,8.6
0.7,3.75,0.75,5.5,4.75,3.0,1.5,1.5,6.5,5.0,6.25,6.25,4.0,4.5,-0.11,0.02,0.95,948.28,5.7,-19.1,1.25,0.5,0.25,0.75,0.0,1.25,1.0,2.0,0.0,1.5,0.75,0.0,0.0,0.39,-0.42,0.7,2.78,-1.1,3.9
0.72,4.25,1.0,6.0,6.25,3.25,1.5,1.25,6.25,4.5,5.25,5.5,3.25,3.25,-0.11,0.02,0.95,919.07,7.4,-8.2,1.5,0.5,0.5,1.0,1.5,1.25,0.75,1.75,0.0,1.5,1.0,0.25,0.75,0.27,-0.3,0.77,70.39,-1.7,4.7
0.74,4.5,1.25,6.5,6.5,4.0,1.5,1.5,5.75,3.75,4.5,4.25,2.25,2.25,-0.11,0.02,0.95,860.29,8.7,2.9,1.25,0.5,1.0,0.75,1.5,1.25,0.75,2.25,0.0,1.5,2.0,0.0,1.0,0.2,-0.11,0.83,119.82,-1.8,-3.2
0.76,5.25,1.5,6.5,6.5,4.5,1.5,1.0,5.5,3.25,3.75,3.0,2.0,2.0,-0.11,0.08,0.95,802.79,9.4,10.5,1.0,0.5,1.0,0.5,1.0,1.25,0.75,2.0,0.0,1.5,1.0,0.25,0.75,0.14,0.08,0.83,154.97,-1.1,-2.5
0.78,5.25,1.75,6.5,7.0,4.5,1.5,1.0,5.0,2.75,3.0,1.5,2.0,1.5,-0.11,0.08,0.95,735.33,10.4,18.5,1.25,0.5,0.5,0.5,1.5,1.25,1.0,2.25,0.0,1.5,0.5,0.25,1.0,0.08,0.2,0.95,175.26,0.7,-0.3
0.8,5.25,2.0,6.75,7.25,3.0,1.5,1.0,4.75,2.0,2.75,1.25,1.5,1.25,-0.11,0.08,0.95,672.37,11.7,23.0,1.5,0.5,0.5,0.5,1.0,1.0,0.75,2.0,0.0,1.5,1.75,0.0,1.0,0.02,0.39,1.27,185.2,-1.5,-6.7
0.82,5.5,2.0,7.25,8.0,4.5,1.5,1.0,4.5,1.5,2.75,1.5,1.0,1.5,-0.11,0.08,0.95,633.9,11.7,27.0,1.25,0.25,0.75,0.5,1.5,1.0,1.0,2.25,0.0,1.5,0.0,0.0,1.0,-0.05,0.7,1.45,186.45,0.4,3.9
0.84,6.0,2.0,7.25,8.0,5.5,1.5,1.0,4.5,1.5,2.75,1.0,1.25,1.5,-0.11,0.08,0.95,622.68,11.6,28.8,1.25,0.5,0.5,0.75,0.25,1.25,0.75,2.0,0.0,1.5,1.0,0.0,0.75,0.02,1.08,1.27,178.41,-0.6,-4.0
0.86,6.0,3.25,7.25,8.0,6.25,1.5,0.75,4.25,1.25,2.5,0.75,1.0,1.0,-0.11,0.08,0.95,631.59,11.9,35.6,1.0,0.5,0.25,0.5,1.5,1.0,1.0,2.0,0.0,1.5,0.75,0.0,0.75,0.08,1.95,1.27,171.86,1.3,-0.3
0.88,6.75,3.5,7.5,9.0,6.0,1.5,0.5,4.0,1.25,2.25,0.75,1.0,1.0,-0.11,0.14,0.95,654.83,12.8,38.5,1.25,0.5,0.5,0.5,1.25,1.25,0.75,2.0,0.0,1.5,1.0,0.0,0.75,-0.3,2.45,1.58,167.41,0.1,0.5
0.9,7.0,3.5,8.0,9.25,6.75,1.5,0.25,3.25,1.0,2.0,0.0,1.0,1.0,-0.11,0.14,0.95,681.18,13.6,43.6,1.25,0.5,0.25,0.5,1.25,1.0,0.75,2.0,0.0,1.5,1.5,0.0,1.0,-0.42,3.02,1.08,162.82,0.3,-7.3
0.92,7.5,4.5,7.0,9.25,0.0,1.5,0.25,3.25,1.0,2.0,0.0,1.0,1.25,-0.17,0.14,1.02,650.56,16.4,42.2,1.25,0.5,0.5,0.5,1.75,1.25,0.75,2.25,0.0,1.5,1.0,0.0,0.75,-0.48,3.45,0.14,161.86,0.6,2.2
0.94,8.0,4.75,7.5,9.25,0.0,1.5,0.25,3.0,0.75,1.5,0.0,1.0,1.0,-0.17,0.14,1.14,619.54,17.8,47.1,1.0,0.5,0.25,0.5,0.25,1.0,0.75,2.0,0.0,1.5,1.5,0.25,1.25,-0.73,3.14,-0.23,160.31,0.9,-21.6
0.96,8.0,5.0,7.0,9.25,0.0,1.5,0.0,2.5,0.5,1.25,0.0,1.0,1.0,-0.23,0.2,1.2,580.52,18.1,49.9,0.5,0.5,0.0,0.75,0.0,2.0,0.25,2.25,0.0,3.0,0.0,1.0,0.0,-2.11,4.02,1.52,152.14,7.8,-21.2
0.98,8.25,5.5,7.25,9.25,0.0,1.5,0.0,3.0,0.5,1.5,0.0,1.0,1.0,-0.23,0.2,1.33,571.47,17.6,48.9,0.5,0.0,0.0,1.0,1.5,0.0,0.0,4.75,0.5,6.5,2.25,3.0,1.25,-0.73,0.58,1.83,201.26,5.3,-52.6
1.0,8.0,5.25,6.75,9.25,0.0,0.75,0.0,2.75,0.5,1.5,0.0,1.0,1.0,-0.3,0.2,1.45,556.4,18.3,49.0,2.0,0.0,0.0,1.75,1.5,3.25,1.25,5.25,1.5,6.5,6.0,3.0,1.75,0.02,-0.11,1.08,285.5,2.0,-36.8
1.02,7.5,4.75,7.0,8.0,0.0,0.0,0.0,2.5,0.5,1.25,0.0,1.0,1.0,-0.48,0.27,1.95,532.0,19.7,49.2,2.0,0.25,0.75,2.25,1.5,3.5,1.25,5.5,1.25,6.5,5.75,2.75,1.75,0.08,0.08,0.95,374.44,1.2,-30.8
1.04,6.0,3.5,0.0,5.0,0.0,0.0,0.0,2.0,0.5,1.25,0.0,0.75,1.0,-0.61,0.33,2.08,416.9,13.8,41.2,2.5,1.25,2.75,3.0,2.25,3.75,1.25,6.0,1.5,6.5,5.25,2.5,1.75,0.14,0.2,0.95,484.09,-1.4,-16.3
1.06,3.0,2.0,0.0,4.5,0.0,0.0,0.0,1.75,0.5,1.25,0.0,0.5,0.25,-0.61,0.89,2.7,298.8,11.7,35.2,3.25,1.25,3.0,3.25,2.75,4.5,1.5,6.5,2.25,7.0,5.75,3.0,2.75,0.2,0.14,0.95,599.16,-1.5,-16.9
1.08,1.75,0.75,1.5,2.75,0.0,0.0,0.0,1.75,0.5,1.25,0.0,1.0,1.0,-0.36,0.7,2.45,208.44,10.3,7.6,3.5,1.75,5.0,3.25,4.75,4.5,2.0,7.25,2.75,7.25,6.75,3.0,3.25,0.2,0.14,0.95,737.71,-2.8,-11.8
1.1,0.0,0.75,0.0,2.5,0.0,0.0,0.25,1.25,0.5,1.25,0.0,0.75,0.75,-0.17,-0.11,1.83,119.4,2.5,-12.1,3.25,1.75,5.75,4.0,5.5,5.5,2.0,7.5,2.75,7.0,6.75,3.0,3.25,0.2,0.14,0.95,868.28,-2.9,-8.5
1.12,0.0,0.0,0.0,0.75,0.0,0.0,0.25,1.75,0.25,1.0,0.0,0.0,0.0,-0.36,-0.8,1.45,37.22,-6.3,-26.6,3.0,1.25,5.5,5.5,5.25,5.75,2.0,7.5,2.25,6.5,6.25,2.5,2.5,0.2,0.08,0.95,957.69,-3.0,-4.7
1.14,0.0,0.0,0.0,0.75,0.0,0.0,0.0,1.5,0.0,1.0,0.0,0.0,0.0,-0.61,-0.61,1.89,0.0,-8.3,-26.8,4.25,2.0,5.25,5.75,6.25,6.0,2.0,7.0,2.0,5.5,4.5,1.5,1.75,0.2,0.14,0.95,993.33,-3.9,7.9
1.16,0.0,0.0,0.0,2.0,0.0,0.0,0.0,1.5,0.0,1.0,0.0,0.0,0.75,-0.05,-1.05,1.2,0.0,-2.8,-18.1,4.75,2.25,5.75,6.75,7.25,6.5,2.0,6.75,1.5,3.5,3.25,1.25,1.75,0.2,0.14,0.95,994.37,-5.0,18.1
1.18,0.0,0.0,0.0,1.75,0.0,0.0,0.0,1.75,0.25,1.25,0.0,1.0,0.75,0.08,-0.67,0.7,0.0,-2.3,-37.9,4.75,2.75,6.75,7.25,7.25,6.5,1.75,6.0,1.0,3.25,2.25,1.0,1.0,0.2,0.14,0.95,972.21,-6.3,26.2
1.2,0.0,0.0,0.0,1.75,0.0,0.0,0.0,1.75,0.25,1.25,0.0,1.0,0.5,-0.05,-0.42,0.45,0.0,-1.9,-35.1,5.25,2.75,6.75,7.25,7.25,6.5,1.5,5.25,0.75,2.25,2.25,0.75,1.25,0.2,0.14,0.95,930.81,-7.1,30.2
1.22,0.0,0.0,0.0,0.0,0.0,0.0,0.0,1.75,0.0,0.0,0.0,0.0,0.0,-0.17,-0.05,0.45,0.0,-16.7,-38.7,5.5,2.75,7.25,7.5,7.25,6.25,1.5,5.0,0.75,1.75,2.25,0.75,1.0,0.2,0.14,0.89,884.58,-8.2,33.1
1.24,0.0,0.0,0.0,0.0,0.0,0.0,0.0,2.0,0.0,0.0,0.0,0.0,0.0,-0.17,0.45,0.58,0.0,-16.7,-38.7,5.5,3.0,7.75,7.5,7.75,6.0,1.0,4.5,0.75,1.5,2.25,0.75,0.75,0.2,0.2,0.83,850.24,-8.9,36.0
1.26,0.0,0.0,0.0,3.0,0.0,0.0,0.0,0.0,0.25,1.25,0.0,0.75,0.25,-0.17,0.95,0.33,3.46,7.1,-5.6,5.5,2.0,8.0,7.25,7.75,5.5,1.25,3.75,0.0,1.5,0.75,0.75,0.0,0.14,0.14,1.02,794.06,-10.1,43.2
1.28,0.0,0.0,0.0,1.25,0.0,0.0,0.0,1.75,0.25,1.25,0.0,1.0,0.5,-0.23,1.2,0.2,39.15,-3.5,-43.1,5.5,2.0,8.75,5.5,7.5,4.75,1.25,4.0,0.0,0.0,1.75,0.5,0.0,0.14,0.2,1.02,724.16,-11.7,44.9
1.3,0.0,0.0,0.0,1.75,0.0,0.0,3.75,5.25,2.75,2.0,0.25,0.0,0.25,-0.42,1.52,0.08,104.65,0.1,-24.8,5.75,2.25,8.5,6.75,7.5,3.75,1.0,3.0,0.0,0.0,0.75,0.25,0.75,0.14,0.2,1.08,660.23,-12.9,49.1
1.32,0.0,0.0,0.0,0.0,0.0,0.0,0.0,0.0,0.0,0.0,0.0,1.0,0.0,-2.17,6.08,-1.55,94.61,8.8,-109.9,7.0,0.25,8.75,7.5,7.25,4.5,0.5,2.5,0.25,1.5,0.75,0.0,0.0,0.14,0.27,0.89,620.71,-13.0,48.0
1.34,0.0,0.0,1.25,2.5,0.0,0.0,0.0,1.25,0.25,1.25,0.0,1.0,1.0,0.14,2.02,-3.67,116.56,5.9,-16.6,7.0,2.0,8.75,6.0,5.75,3.5,0.5,2.25,0.0,0.0,0.0,0.0,0.0,0.14,0.27,0.95,574.26,-15.9,59.0
1.36,0.0,0.0,0.0,1.75,0.0,0.0,0.25,0.5,0.25,1.25,0.0,1.0,0.5,-0.11,-0.48,2.83,100.35,2.2,-32.9,7.5,2.0,8.75,6.25,5.5,3.5,0.25,2.25,0.0,0.0,0.25,0.75,0.0,0.08,0.27,0.89,554.23,-16.1,55.4
1.38,0.0,0.0,0.0,2.0,0.0,0.0,0.0,1.5,0.25,1.25,0.0,1.0,0.75,-0.73,1.33,-4.23,105.05,-1.0,-34.2,7.75,2.25,10.5,6.0,5.5,3.5,0.5,2.0,0.0,1.5,0.0,0.0,0.0,0.08,0.33,1.02,553.5,-16.4,55.6
1.4,0.0,0.0,0.75,2.25,0.0,0.0,0.0,1.75,0.25,1.25,0.0,1.0,0.75,-2.92,2.14,-1.61,105.42,2.7,-22.3,8.0,2.0,9.25,6.25,5.25,1.0,0.25,2.25,0.0,0.0,0.25,0.0,0.0,0.02,0.33,1.14,533.78,-19.6,61.0
1.42,0.0,0.0,0.0,2.0,0.0,0.0,0.0,1.75,0.25,1.25,0.0,0.5,0.75,-1.05,0.08,-0.11,110.76,-2.4,-28.7,8.5,1.25,9.25,5.75,5.25,2.25,0.25,2.5,0.0,0.0,1.0,0.0,0.75,0.02,0.33,1.14,531.19,-17.5,53.0
1.44,0.0,0.0,0.0,1.25,0.0,0.0,0.25,1.75,0.25,1.0,0.0,0.5,1.0,-0.23,-0.73,0.52,107.96,-4.2,-40.5,8.0,1.75,9.25,5.75,5.5,3.5,0.25,2.0,0.0,0.0,0.0,0.0,0.0,0.02,0.33,1.08,527.0,-17.1,60.5
1.46,0.0,0.0,0.0,2.0,0.0,0.0,0.25,1.5,0.25,1.25,0.0,1.0,0.75,0.08,-0.86,0.58,107.3,-0.5,-33.1,8.0,2.25,8.75,5.75,4.75,2.0,0.5,1.0,0.0,0.0,0.0,0.0,0.0,-0.11,0.45,0.7,510.95,-19.9,65.3
1.48,0.0,0.0,0.0,2.0,0.0,0.0,0.25,1.5,0.25,1.0,0.0,1.0,0.75,0.39,-0.48,0.27,103.39,0.0,-31.6,8.0,2.25,8.75,5.75,3.5,1.75,0.5,0.75,0.0,0.0,0.0,0.0,0.0,-0.17,0.45,0.7,484.09,-21.6,66.9
1.5,0.0,0.0,0.0,1.75,0.0,0.0,0.25,1.5,0.25,1.25,0.0,0.5,0.75,0.27,0.58,-0.17,96.22,-2.0,-30.8,8.0,2.25,8.5,5.5,3.25,1.5,0.75,0.75,0.0,0.0,0.0,0.0,0.0,-0.23,0.52,0.83,461.66,-22.1,67.2
1.52,0.0,0.0,0.0,2.25,0.0,0.0,0.0,1.75,0.25,1.25,0.0,1.0,0.75,-0.17,4.14,-3.05,98.86,-0.9,-31.1,7.5,2.0,7.75,4.75,2.25,1.25,0.75,0.5,0.0,0.0,0.0,0.0,0.0,-0.23,0.77,0.89,418.83,-23.6,68.7
1.54,0.0,0.0,0.0,2.5,0.0,0.0,0.0,1.75,0.25,1.25,0.0,1.0,0.75,-0.23,2.02,0.89,102.44,-0.3,-28.0,6.75,1.5,6.75,3.5,1.75,1.0,0.75,0.0,0.0,0.0,0.0,0.0,0.0,-0.42,0.83,0.83,363.46,-25.3,71.4
1.56,0.0,0.0,0.5,2.25,0.0,0.0,0.25,2.25,0.25,1.25,0.0,1.0,0.75,-0.42,1.08,0.02,117.22,0.9,-25.1,5.75,0.5,5.25,3.25,1.5,1.25,0.75,0.5,0.0,0.0,0.0,0.0,0.0,-0.48,0.64,0.39,304.7,-23.3,66.4
1.58,0.0,0.0,0.25,2.0,0.0,0.0,0.0,1.75,0.25,1.25,0.0,0.5,0.75,-0.36,1.45,0.27,111.14,-0.9,-25.3,5.0,0.5,4.0,2.75,0.5,1.0,1.0,0.5,0.0,0.0,0.0,0.0,0.0,-0.3,0.89,0.52,253.65,-24.5,66.9
1.6,0.0,0.0,1.75,1.25,0.0,0.0,0.25,1.75,0.25,1.25,0.0,1.0,0.75,-0.73,2.83,-0.42,117.7,5.7,-21.4,5.5,1.0,2.75,3.25,0.0,1.5,0.75,0.5,0.0,0.0,0.0,0.5,0.0,-0.05,1.27,0.77,212.66,-22.0,63.1
1.62,0.0,0.0,2.0,1.5,0.0,0.0,0.25,1.0,0.25,1.25,0.0,0.75,0.5,-0.42,3.77,0.27,115.42,10.1,-8.1,2.5,0.25,3.0,0.5,1.75,1.0,1.0,0.75,0.0,0.0,0.0,0.0,0.0,0.27,1.33,0.45,163.68,-17.9,57.4
1.64,0.0,0.0,1.75,2.0,0.0,0.0,0.25,1.5,0.5,1.25,0.0,1.0,0.75,-0.61,1.95,1.39,123.25,7.5,-14.5,3.0,0.0,0.0,0.5,0.0,1.0,0.25,0.0,0.0,0.0,0.0,0.0,0.0,0.52,3.45,-0.61,102.56,-20.3,77.4
1.66,0.0,0.0,2.0,2.0,0.0,0.0,0.25,1.5,0.25,1.25,0.0,1.0,0.75,-0.48,-0.8,-0.92,130.15,8.3,-11.7,0.0,0.5,0.0,1.5,0.0,1.25,0.25,0.5,0.0,1.5,0.0,0.0,0.25,-0.11,3.02,0.39,49.13,4.4,4.3
1.68,0.0,0.0,2.0,1.75,0.0,0.0,0.0,1.5,0.25,1.25,0.0,0.75,1.0,-0.05,-1.42,-1.36,134.35,7.0,-14.4,1.75,0.5,0.5,1.25,1.5,1.75,1.0,1.5,0.0,1.5,0.0,0.0,0.0,0.27,1.2,1.02,47.55,-2.6,28.5
1.7,0.0,0.0,2.0,1.75,0.0,0.0,0.0,1.5,0.25,1.25,0.0,1.0,0.5,0.39,-1.55,-0.3,133.27,8.3,-11.4,0.5,0.0,0.75,0.5,1.5,0.75,0.5,0.75,0.0,0.0,0.0,0.0,0.25,0.77,-0.3,-1.42,36.81,-4.5,34.7
1.72,0.0,0.0,1.75,1.75,0.0,0.0,0.25,1.5,0.5,1.25,0.0,1.0,0.75,0.58,-1.11,-0.11,133.19,7.2,-16.6,0.5,0.0,0.0,0.5,0.0,1.0,0.5,0.5,0.0,0.0,0.0,0.0,0.0,0.52,-1.11,-1.17,22.06,-1.1,35.6
1.74,0.0,0.0,2.0,1.0,0.0,0.0,0.25,1.5,0.25,1.0,0.0,1.0,0.75,0.58,0.02,-0.42,127.41,7.8,-19.0,0.5,0.0,0.0,0.5,0.0,1.0,0.5,0.75,0.0,0.0,0.0,0.0,0.0,-0.36,-0.8,-1.11,6.71,0.3,29.3
1.76,0.0,0.0,1.75,1.25,0.0,0.0,0.25,1.5,0.25,1.25,0.0,1.0,0.75,0.08,1.77,-0.42,122.86,6.4,-20.9,0.5,0.0,0.0,0.5,0.0,1.0,0.5,0.75,0.0,0.0,0.0,0.0,0.0,-0.8,-0.23,-0.48,0.0,0.3,29.3
1.78,0.0,0.0,2.0,1.25,0.0,0.0,0.25,1.5,0.25,1.25,0.0,1.0,1.0,-0.36,2.33,-0.48,122.05,6.8,-21.1,0.5,0.0,0.0,0.25,0.0,0.75,0.25,0.75,0.0,0.0,0.0,0.0,0.0,-1.05,0.14,0.14,0.0,1.7,25.6
1.8,0.0,0.0,1.5,1.0,0.0,0.0,0.0,1.5,0.25,1.25,0.0,1.0,0.75,-0.55,1.77,-0.36,116.98,4.5,-27.3,0.5,0.0,0.0,0.5,0.0,1.0,0.5,0.5,0.0,0.75,0.0,0.0,0.0,-0.73,0.7,0.39,7.12,2.5,11.3
1.82,0.0,0.0,1.75,0.25,0.0,0.0,0.0,1.5,2.75,1.25,0.0,1.0,0.75,-0.73,1.2,-0.42,123.19,6.4,-35.1,1.0,0.25,1.0,1.0,1.75,1.25,1.0,1.5,0.0,1.5,1.5,0.0,0.0,-0.36,1.27,0.39,64.18,-3.6,10.6
1.84,0.0,0.0,1.5,2.5,0.0,0.0,0.0,1.75,0.5,1.25,0.0,1.0,1.25,-0.67,1.14,-0.17,130.04,5.2,-18.7,1.0,0.5,0.25,0.5,0.5,1.25,1.0,1.25,0.0,1.5,1.0,0.0,1.0,-0.11,1.39,0.27,99.04,0.3,-8.1
1.86,0.0,0.0,2.5,2.0,0.0,0.0,3.75,5.0,2.75,2.0,0.0,0.75,0.0,-0.55,1.2,0.08,171.29,6.9,-12.0,1.25,0.0,0.0,0.5,0.0,1.25,0.75,0.75,0.0,1.5,0.0,0.0,0.0,-0.11,1.39,0.2,114.17,0.3,9.5
1.88,0.0,0.0,2.5,0.5,0.0,0.0,0.25,1.5,0.5,1.25,0.0,1.0,0.75,-0.23,1.39,0.2,165.39,8.6,-21.2,0.75,0.0,0.25,0.5,1.75,1.0,1.25,0.75,0.0,0.0,0.0,0.0,0.0,-0.36,1.39,0.27,113.75,-3.7,41.8
1.9,0.0,0.0,1.75,1.0,0.0,0.0,0.0,1.75,0.5,1.25,0.0,1.0,0.75,-0.23,1.52,0.08,158.68,5.2,-25.2,0.75,0.0,0.25,0.5,0.0,1.0,0.75,0.75,0.0,0.0,0.0,0.0,0.0,-0.48,1.27,0.33,92.09,-5.8,36.0
1.92,0.0,0.0,1.75,1.25,0.0,0.0,0.25,1.5,3.0,2.0,0.0,0.75,0.75,0.02,1.52,0.02,152.21,6.3,-26.8,0.5,0.0,0.0,0.5,0.0,1.0,0.75,0.5,0.0,0.0,0.0,0.0,0.0,-0.48,1.2,0.33,69.02,-2.5,35.3
1.94,0.0,0.0,2.0,2.0,0.0,0.0,3.75,5.25,2.75,2.0,0.0,1.25,0.0,0.14,1.33,-0.05,181.52,5.6,-17.4,0.5,0.0,0.0,0.5,0.0,1.0,0.75,0.75,0.0,0.0,0.0,0.0,0.0,-0.48,1.14,-0.05,60.0,-0.9,29.2
1.96,0.0,0.0,2.0,1.0,0.0,0.0,0.0,1.75,2.75,2.0,0.0,0.5,0.75,0.02,1.14,-0.23,181.25,5.8,-25.5,1.25,0.0,0.0,0.25,0.0,1.0,1.0,0.75,0.0,0.0,0.0,0.0,0.0,-0.67,1.27,-0.11,58.62,-7.4,40.4
1.98,0.0,0.0,1.5,0.75,0.0,0.0,3.75,5.25,0.25,1.25,0.0,1.0,0.25,-0.11,0.95,-0.48,189.62,2.5,-21.1,0.75,0.0,0.0,0.25,0.0,1.0,0.5,0.75,0.0,0.0,0.0,0.0,0.0,-0.92,1.2,-0.11,51.24,-0.8,32.2
2.0,0.0,0.0,1.5,0.75,0.0,0.0,0.0,1.75,0.25,1.25,0.0,1.0,0.75,-0.11,0.83,-0.42,163.56,3.3,-30.8,0.75,0.0,0.0,0.25,0.0,1.0,1.0,0.75,0.0,0.0,0.25,0.0,0.0,-0.92,1.08,-0.23,49.26,-3.8,24.1
2.02,0.0,0.0,1.5,0.5,0.0,0.0,0.25,1.75,0.25,1.25,0.0,1.0,0.75,-0.05,0.77,-0.36,138.8,3.3,-33.0,0.75,0.0,0.0,0.0,0.0,1.0,1.0,0.75,0.0,0.0,0.0,0.0,0.0,-0.73,1.08,-0.3,43.99,-2.0,29.5
2.04,0.0,0.0,1.5,1.0,0.0,0.0,0.0,1.5,0.5,1.25,0.0,1.0,0.75,-0.11,0.77,-0.42,115.37,4.8,-27.7,0.5,0.0,0.25,0.25,0.0,1.0,0.5,0.75,0.0,0.0,0.0,0.0,0.0,-0.61,1.02,-0.3,38.47,-1.4,29.5
2.06,0.0,0.0,1.5,0.75,0.0,0.0,0.0,1.5,0.25,1.25,0.0,1.0,0.75,-0.11,0.83,-0.55,103.24,4.1,-30.5,0.75,0.0,0.0,0.5,1.5,1.0,1.0,1.0,0.0,0.0,0.75,0.0,0.75,-0.48,1.02,-0.23,54.85,-0.3,8.5
2.08,0.0,0.0,1.5,1.0,0.0,0.0,0.25,1.75,0.25,1.25,0.0,1.0,0.75,0.02,0.83,-0.55,98.67,4.3,-26.8,0.75,0.0,0.0,0.5,0.0,1.0,0.75,0.75,0.0,0.0,1.5,0.0,0.0,-0.36,1.02,-0.23,67.84,-5.6,0.4
2.1,0.0,0.0,1.25,1.0,0.0,0.0,0.0,1.75,0.5,1.25,0.0,1.25,0.75,0.08,0.89,-0.48,98.42,3.1,-33.6,1.0,0.5,0.0,0.5,0.0,1.25,0.75,1.0,0.0,0.0,0.0,0.0,0.0,-0.23,0.95,-0.23,78.96,-3.5,40.7
2.12,0.25,0.0,1.5,2.0,0.0,0.0,3.75,5.25,2.75,2.0,0.0,0.75,0.25,-0.05,0.95,-0.36,148.11,4.7,-16.9,0.75,0.5,0.0,0.5,0.0,1.25,1.25,1.25,0.0,0.0,1.0,0.0,1.0,-0.23,0.83,-0.3,89.42,-1.1,-4.1
2.14,0.5,0.0,1.5,1.75,0.0,0.0,3.5,5.25,3.0,2.0,0.0,0.75,0.5,-0.11,0.95,-0.3,184.72,4.5,-18.5,1.0,0.0,0.25,0.5,0.0,1.0,1.0,0.75,0.0,0.5,1.25,0.0,0.5,-0.36,0.7,-0.23,97.37,-5.0,-5.2
2.16,0.25,0.0,1.75,1.75,0.0,0.0,3.75,5.25,2.75,2.0,0.0,0.75,0.25,-0.23,0.95,-0.3,215.16,5.0,-16.9,1.0,0.25,0.25,0.75,0.0,1.0,1.0,1.0,0.0,0.75,1.25,0.0,0.25,-0.42,0.58,-0.17,104.82,-4.9,1.2
2.18,0.0,0.0,1.75,1.75,0.0,0.0,3.75,5.25,3.0,2.0,0.0,1.0,0.25,-0.3,0.95,-0.23,231.63,4.7,-20.1,1.0,0.25,0.25,0.75,0.0,1.0,1.0,1.0,0.0,1.5,1.0,0.25,0.0,-0.42,0.52,-0.11,111.96,-3.4,-3.9
2.2,0.0,0.0,1.5,0.75,0.0,0.0,3.75,5.25,0.5,1.25,0.0,1.0,0.25,-0.42,0.89,-0.3,226.97,2.7,-21.4,1.0,0.25,0.5,0.75,1.25,1.25,1.0,1.0,0.0,1.5,1.25,0.0,0.75,-0.36,0.45,-0.11,131.54,-1.4,-0.3
2.22,0.0,0.0,1.25,0.5,0.0,0.0,0.25,1.5,0.5,1.25,0.0,1.0,0.75,-0.36,0.83,-0.3,189.96,3.1,-36.5,0.75,0.5,0.5,0.5,1.25,1.0,0.75,1.0,0.0,1.5,1.0,0.25,0.75,-0.36,0.39,-0.05,143.09,-0.7,-3.8
2.24,0.25,0.0,2.0,2.0,0.0,0.0,3.75,5.25,3.0,2.0,0.0,1.25,0.25,-0.23,0.83,-0.3,202.27,5.8,-17.5,0.75,0.5,0.0,0.5,1.5,1.0,0.75,0.75,0.0,1.25,1.25,0.0,0.75,-0.3,0.27,-0.17,148.83,0.6,-1.6
2.26,0.75,0.0,2.0,1.75,0.0,0.0,3.75,5.25,2.75,2.0,0.0,1.0,0.25,-0.05,0.83,-0.36,216.54,6.3,-14.0,1.0,0.5,0.0,0.5,1.25,1.0,1.0,1.0,0.0,1.5,1.0,0.0,1.0,-0.36,0.27,-0.17,150.85,0.7,-4.5
2.28,0.5,0.0,2.5,1.75,0.0,0.0,3.75,5.0,2.75,2.0,0.0,1.0,0.25,0.08,0.83,-0.36,238.12,7.2,-12.9,0.75,0.5,0.0,0.5,1.0,1.0,0.75,1.0,0.0,1.25,1.0,0.25,0.75,-0.36,0.33,-0.23,145.4,0.9,-7.6
2.3,0.75,0.0,1.5,2.0,0.0,0.0,3.75,5.25,2.5,2.0,0.25,1.25,0.25,0.14,0.89,-0.42,247.63,5.6,-17.0,0.75,0.5,0.0,0.5,1.5,1.0,0.75,1.0,0.0,1.5,1.0,0.0,0.75,-0.36,0.45,-0.3,142.12,1.7,-2.7
2.32,0.0,0.0,2.5,0.75,0.0,0.0,3.0,4.75,0.25,1.25,0.0,1.0,0.75,0.14,0.89,-0.48,232.83,4.7,-18.7,1.0,0.75,0.0,0.5,1.25,1.25,0.75,1.0,0.0,0.5,1.0,0.0,0.75,-0.36,0.58,-0.48,140.53,-0.7,10.7
2.34,0.0,0.0,1.25,0.75,0.0,0.0,0.25,1.5,0.25,1.5,0.0,1.5,0.75,0.27,0.83,-0.55,187.95,3.0,-39.2,1.25,0.75,0.25,0.25,0.0,1.0,1.25,1.0,0.0,1.5,1.25,0.0,0.25,-0.36,0.64,-0.61,135.6,-4.0,-0.1
2.36,0.0,0.0,1.75,1.0,0.0,0.0,3.25,5.0,0.25,1.25,0.0,1.0,1.25,0.27,0.83,-0.55,166.54,2.1,-25.4,0.75,0.25,0.0,1.0,1.0,1.25,0.75,0.75,0.0,0.5,0.75,0.0,0.75,-0.36,0.7,-0.8,126.98,-0.4,8.0
2.38,0.0,0.0,1.25,1.25,0.0,0.0,0.0,1.5,0.0,1.25,0.0,1.0,0.75,0.2,0.83,-0.55,135.05,3.5,-27.0,0.5,0.0,0.0,0.5,0.5,1.5,0.75,0.75,0.0,1.5,1.0,0.25,0.75,-0.36,0.83,-0.98,119.87,4.1,-21.4
2.4,0.0,0.0,1.25,0.75,0.0,0.0,0.25,1.5,0.25,1.25,0.0,1.0,0.75,0.08,0.77,-0.61,116.19,3.3,-32.9,1.0,0.25,0.0,0.5,0.5,1.25,0.75,1.0,0.0,1.25,1.0,0.25,0.75,-0.36,0.95,-1.11,116.18,0.8,-11.1
2.42,0.0,0.0,1.0,1.0,0.0,0.0,0.25,1.5,0.25,1.25,0.0,1.0,0.75,0.02,0.77,-0.61,97.99,2.5,-32.9,1.0,0.5,0.0,0.5,0.25,1.25,0.75,0.75,0.0,1.5,1.0,0.25,0.75,-0.42,1.02,-1.17,114.46,0.2,-11.1
2.44,0.0,0.0,1.5,2.75,0.0,0.0,0.0,1.5,2.25,2.0,0.0,1.5,0.75,0.02,0.77,-0.55,118.16,6.5,-22.7,0.75,0.5,0.0,0.5,0.5,1.0,0.75,1.0,0.0,1.25,1.0,0.0,0.75,-0.48,1.08,-1.05,112.55,1.1,-8.9
2.46,0.0,0.0,2.75,2.25,0.0,0.0,3.25,5.0,2.0,1.75,0.0,1.5,1.0,-0.11,0.83,-0.55,158.71,6.1,-18.1,0.75,0.5,0.0,0.5,0.5,1.0,0.75,0.75,0.0,1.25,1.0,0.0,0.75,-0.55,1.14,-0.8,111.44,0.5,-7.9
2.48,0.0,0.0,2.75,2.5,0.0,0.0,3.25,5.0,2.25,2.0,0.0,1.5,0.25,-0.17,0.83,-0.48,195.42,6.9,-14.2,0.75,0.5,0.0,0.0,0.5,1.0,0.75,1.0,0.0,0.0,1.0,0.0,0.5,-0.48,1.14,-0.67,101.55,-1.0,4.3
2.5,0.0,0.0,2.5,2.5,0.0,0.0,3.25,5.0,2.5,2.0,0.0,1.5,0.25,-0.11,0.89,-0.48,228.03,6.5,-15.6,1.0,0.25,0.0,0.5,0.0,1.0,0.75,0.75,0.0,1.5,1.0,0.0,0.75,-0.42,1.14,-0.55,98.2,0.1,-15.8
2.52,0.25,0.0,2.5,2.75,0.0,0.0,3.5,5.25,2.5,2.0,0.0,1.5,0.25,-0.11,0.95,-0.48,248.48,6.9,-13.2,0.75,0.5,0.25,0.25,1.0,0.75,0.75,1.0,0.0,1.25,1.0,0.0,0.75,-0.36,1.08,-0.42,102.08,0.0,-5.6
2.54,0.25,0.0,2.0,2.5,0.0,0.0,3.25,5.0,2.25,2.0,0.0,1.5,0.5,-0.05,0.95,-0.48,256.04,5.6,-17.4,0.25,0.0,0.0,0.0,0.0,0.5,0.5,0.25,0.0,0.0,0.0,0.0,0.0,-0.36,1.02,-0.36,74.76,-0.7,29.9
2.56,0.0,0.0,2.0,2.75,0.0,0.0,3.25,5.0,2.25,1.75,0.0,1.25,0.5,0.02,1.02,-0.48,258.55,5.7,-15.6,0.75,0.5,0.25,0.5,0.0,1.0,0.75,1.25,0.0,1.5,1.0,0.25,0.0,-0.3,0.95,-0.36,80.12,-1.1,-7.5
2.58,0.0,0.0,1.5,2.75,0.0,0.0,3.25,5.0,2.0,2.0,0.0,1.5,0.25,0.02,1.02,-0.48,255.24,4.6,-18.5,1.0,0.5,0.0,0.5,0.0,1.0,0.75,1.5,0.0,1.5,1.0,0.0,0.75,-0.23,0.89,-0.3,87.01,1.3,-14.2
2.6,0.25,0.0,1.5,2.5,0.0,0.0,3.25,5.0,2.5,2.25,0.0,1.25,0.25,0.02,0.95,-0.48,251.04,4.7,-18.2,0.5,0.0,0.0,0.0,1.0,1.0,0.75,0.75,0.0,1.5,0.75,0.25,0.5,-0.23,0.83,-0.3,96.0,4.5,-19.7
2.62,0.0,0.0,1.5,2.75,0.0,0.0,3.25,5.0,2.25,2.0,0.0,1.5,0.25,0.02,0.89,-0.48,249.1,4.7,-18.8,0.75,0.5,0.25,0.5,0.25,1.0,0.75,1.0,0.0,1.25,1.0,0.25,0.75,-0.23,0.77,-0.3,104.23,-0.5,-12.1
2.64,0.5,0.0,1.75,2.0,0.0,0.0,3.0,5.0,2.5,1.75,0.0,1.25,0.25,0.02,0.89,-0.48,242.9,5.6,-16.3,0.75,0.5,0.0,0.5,1.75,1.0,0.75,1.0,0.0,1.5,1.0,0.0,0.75,-0.23,0.7,-0.36,120.11,1.8,-1.0
2.66,0.75,0.0,1.75,1.75,0.0,0.0,3.25,5.0,2.25,1.75,0.0,1.5,0.25,0.02,0.83,-0.42,235.91,6.0,-16.6,0.75,0.5,0.25,0.5,0.0,1.0,0.75,0.75,0.0,1.5,1.5,0.0,0.75,-0.23,0.7,-0.42,122.72,-1.1,-16.6
2.68,0.5,0.0,1.5,2.0,0.0,0.0,3.25,5.0,2.25,2.25,0.5,1.25,0.25,0.02,0.83,-0.42,229.54,4.8,-20.2,0.75,0.5,0.0,0.5,0.25,1.0,1.0,1.0,0.0,1.5,0.25,0.0,0.0,-0.23,0.7,-0.55,116.97,0.7,6.5
2.7,0.5,0.0,1.5,2.0,0.0,0.0,3.25,5.0,2.75,2.0,0.0,1.25,0.25,0.02,0.83,-0.42,225.81,5.1,-18.4,0.75,0.5,0.0,0.5,0.25,1.25,0.75,0.75,0.0,1.25,1.0,0.0,0.75,-0.23,0.77,-0.55,115.13,1.1,-9.0
2.72,0.25,0.0,1.5,2.0,0.0,0.0,3.25,4.75,2.75,2.0,0.25,1.5,0.25,0.02,0.83,-0.42,226.03,5.2,-21.8,0.75,0.5,0.25,0.5,1.25,1.0,1.0,1.0,0.0,1.5,1.0,0.0,0.75,-0.23,0.83,-0.61,122.32,0.1,-2.3
2.74,0.5,0.0,1.25,2.0,0.0,0.0,3.25,5.0,2.75,1.75,0.0,1.5,0.25,0.02,0.89,-0.48,225.3,5.0,-20.1,0.75,0.5,0.0,0.5,0.25,1.0,0.75,1.0,0.0,1.5,0.5,0.25,0.75,-0.23,0.83,-0.61,120.25,1.9,-12.7
2.76,0.25,0.0,1.5,2.5,0.0,0.0,3.25,5.0,2.5,2.0,0.5,1.5,0.25,0.02,0.89,-0.48,228.68,5.2,-20.2,0.0,0.0,0.0,0.0,0.0,1.0,0.5,0.5,0.0,1.5,0.0,0.0,0.0,-0.23,0.89,-0.61,100.07,14.3,-29.5
2.78,0.5,0.0,1.75,2.75,0.0,0.0,3.0,5.0,2.5,1.75,0.0,1.25,0.25,0.08,0.89,-0.48,232.15,6.2,-12.9,0.75,0.5,0.0,0.5,0.25,1.0,0.75,1.25,0.0,0.5,1.5,0.0,0.75,-0.17,0.89,-0.55,99.78,-0.7,-10.0
2.8,0.25,0.0,2.0,2.0,0.0,0.0,3.0,4.75,2.25,1.75,0.0,1.5,0.25,0.08,0.95,-0.42,230.76,6.0,-17.4,0.75,0.5,0.0,0.5,0.0,1.0,0.75,1.25,0.0,1.5,1.0,0.0,0.75,-0.17,0.89,-0.48,94.06,1.9,-16.9
2.82,0.25,0.0,1.75,2.25,0.0,0.0,3.0,5.0,2.25,1.75,0.0,1.5,0.25,0.14,0.95,-0.42,228.98,5.4,-17.8,0.5,0.0,0.5,0.0,0.0,0.25,0.75,0.5,0.0,0.0,0.25,0.0,0.0,-0.17,0.89,-0.48,75.88,-15.7,24.7
2.84,0.25,0.0,1.5,1.75,0.0,0.0,3.25,5.0,2.5,1.75,0.5,1.25,0.25,0.14,0.95,-0.42,225.33,4.9,-21.7,0.0,0.0,0.0,0.0,0.0,0.5,0.25,0.75,0.0,0.0,0.0,0.0,0.0,-0.17,0.89,-0.48,51.72,14.5,-7.2
2.86,0.25,0.0,1.25,2.0,0.0,0.0,3.25,5.0,2.75,2.0,0.0,1.5,0.25,0.14,0.95,-0.42,224.21,4.2,-22.6,0.75,0.5,0.0,0.5,0.0,1.0,0.5,0.75,0.0,1.25,0.0,0.25,0.0,-0.17,0.89,-0.48,48.74,0.7,7.3
2.88,1.0,0.0,1.25,2.5,0.0,0.0,3.25,5.0,2.25,2.0,0.0,1.25,0.25,0.14,0.95,-0.42,226.62,5.6,-13.5,0.0,0.0,0.0,0.0,0.25,0.25,0.75,0.75,0.0,0.0,1.0,0.0,0.75,-0.17,0.89,-0.48,41.73,2.2,-45.5
2.9,0.5,0.0,1.25,1.75,0.0,0.0,3.25,5.0,2.5,2.0,0.0,1.0,0.25,0.14,0.95,-0.42,224.12,4.2,-19.2,0.25,0.0,0.0,0.0,0.0,0.5,0.75,0.5,0.0,0.0,0.0,0.0,0.0,-0.17,0.89,-0.48,34.41,-0.3,18.7
2.92,0.0,0.0,0.5,0.75,0.0,0.0,0.25,1.25,0.25,1.0,0.0,0.5,1.0,0.14,0.95,-0.42,178.16,-1.1,-40.6,0.75,0.5,0.0,0.5,0.0,1.0,0.25,0.5,0.0,1.25,0.0,0.0,0.0,-0.17,0.83,-0.48,42.87,1.2,15.7
2.94,0.0,0.0,0.75,0.75,0.0,0.0,0.5,2.5,0.25,1.0,0.0,1.0,1.0,0.14,0.95,-0.48,141.13,-1.2,-40.3,0.75,0.5,0.0,0.5,0.25,1.0,0.75,1.0,0.0,1.25,1.5,0.0,0.75,-0.17,0.89,-0.55,65.48,0.2,-15.4
2.96,0.0,0.0,0.75,0.75,0.0,0.0,0.25,1.25,0.25,1.0,0.0,0.75,0.5,0.14,0.95,-0.48,95.44,2.3,-32.4,0.75,0.5,0.5,0.5,0.0,1.0,0.75,1.0,0.0,1.5,1.0,0.0,0.75,-0.11,0.89,-0.55,87.95,-1.1,-11.1
2.98,0.0,0.0,1.25,0.75,0.0,0.0,0.0,1.25,0.25,1.0,0.0,0.75,0.75,0.08,0.95,-0.48,73.32,4.1,-28.9,0.75,0.5,0.5,0.5,0.0,1.0,0.75,1.0,0.0,1.5,1.25,0.25,0.75,-0.11,0.83,-0.48,111.37,-1.7,-15.9
3.0,0.0,0.0,1.0,0.75,0.0,0.0,0.0,1.25,0.25,1.0,0.0,0.75,0.75,0.08,0.89,-0.48,58.34,2.6,-32.9,0.75,0.5,0.0,0.5,0.0,1.0,0.75,1.0,0.0,1.5,1.0,0.25,0.75,-0.11,0.83,-0.48,122.01,1.0,-19.3
3.02,0.0,0.0,0.5,0.75,0.0,0.0,0.0,0.75,0.25,1.0,0.0,0.75,0.5,0.08,0.89,-0.48,51.97,1.6,-38.5,0.0,0.0,0.25,0.0,0.0,0.5,0.25,0.5,0.0,0.0,0.0,0.0,0.0,-0.11,0.89,-0.48,92.22,4.0,11.6
3.04,0.0,0.0,0.75,0.75,0.0,0.0,0.25,1.0,0.25,1.0,0.0,0.75,0.75,0.14,0.89,-0.42,49.21,2.4,-35.7,1.0,0.5,0.0,0.5,0.0,1.0,0.5,0.75,0.0,1.5,1.5,0.0,0.75,-0.17,0.89,-0.48,95.53,-0.4,-16.4
3.06,0.0,0.0,0.75,0.75,0.0,0.0,0.0,1.25,0.25,1.0,0.0,0.75,0.5,0.14,0.89,-0.42,47.33,1.6,-33.7,0.75,0.5,0.0,0.5,0.25,1.0,0.75,0.75,0.0,1.5,1.0,0.0,0.75,-0.17,0.89,-0.42,99.9,0.9,-12.6
3.08,0.0,0.0,0.5,0.5,0.0,0.0,0.0,1.25,0.25,1.0,0.0,0.75,0.75,0.14,0.89,-0.42,50.48,-1.7,-47.2,0.75,0.5,0.0,0.5,0.5,0.75,0.75,1.25,0.0,1.5,1.0,0.25,0.75,-0.17,0.89,-0.48,113.97,1.0,-16.2
3.1,0.0,0.0,0.75,0.75,0.0,0.0,0.0,1.25,0.25,1.0,0.0,0.75,0.75,0.14,0.89,-0.42,56.03,0.9,-37.2,0.75,0.5,0.0,0.5,0.5,1.0,0.75,0.75,0.0,1.5,1.25,0.0,0.5,-0.17,0.89,-0.48,117.62,0.2,-8.8
3.12,0.0,0.0,0.75,0.75,0.0,0.0,0.25,1.25,0.0,1.25,0.0,0.75,0.75,0.14,0.89,-0.42,65.02,0.4,-37.5,0.75,0.5,0.0,0.5,0.25,1.0,1.0,1.0,0.0,1.5,1.0,0.25,0.75,-0.11,0.89,-0.48,125.7,0.6,-15.9
3.14,0.0,0.0,1.0,0.75,0.0,0.0,0.0,1.25,0.25,1.25,0.0,0.75,0.75,0.14,0.89,-0.42,77.03,1.8,-34.6,0.75,0.5,0.5,0.5,0.0,1.0,1.0,1.0,0.0,1.5,1.0,0.0,0.75,-0.11,0.89,-0.48,124.14,-1.6,-10.5
3.16,0.0,0.0,1.25,0.75,0.0,0.0,0.0,1.25,0.25,0.75,0.0,0.75,0.5,0.14,0.89,-0.42,85.44,5.8,-23.1,1.0,0.0,0.5,0.5,0.25,1.0,0.5,1.0,0.0,1.5,1.0,0.25,0.75,-0.11,0.89,-0.48,120.36,-1.0,-16.3
3.18,0.0,0.0,1.0,1.0,0.0,0.0,0.0,1.25,0.25,1.75,0.0,0.75,0.75,0.14,0.89,-0.42,91.44,1.1,-34.1,0.75,0.5,0.0,0.5,0.0,1.0,0.75,1.0,0.0,1.25,1.5,0.25,0.75,-0.17,0.89,-0.48,118.51,-0.1,-20.9
3.2,0.0,0.0,1.25,0.75,0.0,0.0,0.0,1.25,0.25,1.0,0.0,0.25,0.75,0.2,0.89,-0.42,91.38,3.7,-21.7,0.75,0.5,0.25,0.5,0.0,1.0,1.0,0.75,0.0,1.5,1.0,0.25,0.75,-0.17,0.89,-0.48,118.35,-1.2,-15.2
3.22,0.0,0.0,1.0,1.25,0.0,0.0,0.0,1.25,0.25,0.5,0.0,0.75,0.75,0.2,0.89,-0.42,91.46,5.4,-21.1,1.0,0.5,0.0,0.5,0.0,1.0,1.0,1.0,0.0,1.5,1.25,0.25,0.75,-0.17,0.89,-0.48,120.37,-0.7,-16.9
3.24,0.0,0.0,1.0,0.75,0.0,0.0,0.0,1.25,0.25,1.25,0.0,0.75,0.75,0.2,0.95,-0.42,91.39,1.8,-34.6,0.75,0.5,0.0,0.5,1.25,1.0,0.75,0.75,0.0,1.25,0.0,0.25,0.75,-0.17,0.89,-0.48,121.36,2.0,4.4
3.26,0.0,0.0,1.0,0.75,0.0,0.0,0.25,1.5,0.25,1.25,0.0,0.75,0.75,0.2,0.95,-0.42,94.67,1.7,-33.6,0.75,0.5,0.25,0.5,0.5,1.0,0.5,0.75,0.0,1.5,1.5,0.0,1.0,-0.17,0.89,-0.42,125.55,0.0,-15.2
3.28,0.0,0.0,1.0,0.75,0.0,0.0,0.25,1.25,0.25,1.0,0.0,0.5,0.75,0.2,0.95,-0.42,91.77,2.9,-28.3,1.0,0.5,0.0,0.5,0.0,1.0,0.75,1.5,0.0,1.5,1.5,0.25,0.75,-0.17,0.89,-0.42,123.92,0.3,-20.3
3.3,0.0,0.0,0.75,1.0,0.0,0.0,0.0,1.25,1.25,1.5,0.0,1.25,0.75,0.2,0.95,-0.42,101.91,2.3,-41.3,0.75,0.5,0.0,0.5,0.0,1.0,0.75,1.0,0.0,1.5,0.75,0.0,0.5,-0.17,0.89,-0.42,118.5,1.4,-10.5
3.32,1.0,0.0,2.75,3.0,0.0,0.0,3.0,4.75,2.5,2.0,0.0,1.25,0.5,0.2,0.95,-0.42,164.37,8.5,-7.1,0.75,0.5,0.0,0.5,0.5,1.0,0.75,0.75,0.0,1.5,1.0,0.0,0.75,-0.17,0.89,-0.42,115.77,1.0,-10.1
3.34,0.25,0.0,2.75,3.0,0.0,0.0,3.0,4.75,2.5,2.0,0.0,1.25,1.0,0.2,0.95,-0.42,215.82,6.9,-13.7,0.75,0.5,0.0,0.5,0.0,1.0,0.75,0.75,0.0,1.5,1.0,0.25,0.75,-0.17,0.89,-0.42,111.17,0.5,-18.6
3.36,0.25,0.0,2.75,2.75,0.0,0.0,3.0,4.75,2.5,2.0,0.0,1.25,1.0,0.2,0.95,-0.42,255.41,6.8,-14.7,0.75,0.5,0.0,0.5,0.5,1.0,1.0,0.75,0.0,1.5,1.25,0.25,0.75,-0.17,0.95,-0.42,113.78,0.0,-14.5
3.38,0.25,0.0,2.75,3.0,0.0,0.0,3.0,4.75,2.5,1.75,0.0,1.25,1.0,0.2,0.95,-0.36,273.46,7.2,-12.9,1.0,0.5,0.0,0.5,1.0,1.0,0.75,0.75,0.0,1.5,1.0,0.0,1.0,-0.17,0.95,-0.42,119.11,0.6,-5.9
3.4,0.25,0.0,2.75,3.0,0.0,0.0,3.0,4.75,2.5,1.75,0.0,1.25,1.0,0.2,0.95,-0.36,281.11,7.2,-12.9,0.75,0.5,0.0,0.5,0.25,1.0,0.75,0.75,0.0,1.25,1.0,0.25,0.75,-0.17,0.95,-0.42,118.8,0.1,-13.8
3.42,0.5,0.0,2.75,3.0,0.0,0.0,3.0,4.75,2.25,2.0,0.0,1.25,1.0,0.2,0.95,-0.36,281.1,7.2,-12.0,0.75,0.5,0.0,0.5,0.25,1.0,0.75,1.25,0.0,1.5,1.25,0.25,0.75,-0.17,0.95,-0.42,120.55,1.2,-18.9
3.44,0.0,0.0,2.75,2.0,0.0,0.0,2.75,4.75,1.25,1.5,0.0,0.75,1.0,0.2,0.95,-0.36,269.31,5.8,-13.5,0.75,0.5,0.0,0.5,0.0,1.0,1.0,1.0,0.0,1.5,1.0,0.0,0.75,-0.17,0.89,-0.42,116.2,0.8,-15.5
3.46,0.0,0.0,0.75,0.75,0.0,0.0,0.25,1.25,0.25,1.25,0.0,0.75,0.75,0.2,0.95,-0.36,219.58,0.9,-37.5,0.75,0.25,0.0,0.5,0.5,1.0,0.75,0.75,0.0,1.5,1.0,0.25,0.75,-0.17,0.89,-0.42,114.45,1.2,-17.1
3.48,0.0,0.0,0.5,0.75,0.0,0.0,0.25,1.25,0.25,1.5,0.0,0.5,0.75,0.2,0.95,-0.42,163.99,-1.8,-40.5,0.75,0.5,0.0,0.5,0.0,1.0,0.5,0.75,0.0,1.5,1.25,0.0,0.75,-0.17,0.89,-0.42,110.03,1.0,-18.1
3.5,0.0,0.0,1.0,0.75,0.0,0.0,0.0,1.25,0.25,1.25,0.0,0.5,0.5,0.2,0.95,-0.42,110.6,2.2,-27.8,0.75,0.5,0.0,0.5,0.0,1.0,0.75,0.75,0.0,1.5,1.25,0.0,0.75,-0.17,0.89,-0.42,108.55,0.4,-17.4
3.52,0.0,0.0,1.0,0.75,0.0,0.0,0.0,1.25,0.25,1.0,0.0,0.75,0.75,0.2,0.95,-0.36,78.28,2.6,-32.9,0.75,0.5,0.25,0.5,0.0,1.0,1.0,1.0,0.0,1.5,1.0,0.25,0.75,-0.17,0.95,-0.42,110.43,-0.6,-15.9
3.54,0.0,0.0,1.0,0.75,0.0,0.0,0.0,1.25,0.25,1.0,0.0,0.75,0.75,0.2,0.89,-0.36,57.18,2.6,-32.9,0.75,0.5,0.0,0.5,0.0,1.0,1.0,0.75,0.0,1.25,1.25,0.0,0.75,-0.17,0.95,-0.42,110.11,-0.5,-14.6
3.56,0.0,0.0,1.5,0.75,0.0,0.0,0.0,1.25,0.25,1.0,0.0,0.75,0.75,0.27,0.89,-0.36,50.0,5.5,-25.3,0.75,0.5,0.0,0.5,0.25,1.0,0.75,1.0,0.0,1.25,0.75,0.25,0.75,-0.17,0.95,-0.42,109.48,1.0,-12.6
3.58,0.0,0.0,1.0,0.75,0.0,0.0,0.0,1.25,0.25,1.75,0.0,0.75,0.75,0.2,0.89,-0.36,55.1,0.5,-37.7,0.75,0.5,0.0,0.5,0.0,1.0,1.0,0.75,0.0,1.5,1.0,0.25,0.75,-0.17,0.95,-0.42,108.54,0.0,-17.8
3.6,0.0,0.0,1.0,0.75,0.0,0.0,0.0,1.25,0.25,1.0,0.0,0.75,0.75,0.2,0.95,-0.36,56.19,2.6,-32.9,0.75,0.5,0.5,0.5,0.0,1.0,0.75,0.75,0.0,1.5,1.0,0.25,0.75,-0.17,0.95,-0.42,110.22,-2.0,-13.3
3.62,0.0,0.0,1.25,0.75,0.0,0.0,0.0,1.25,0.25,1.0,0.0,0.5,0.5,0.2,0.95,-0.36,57.7,4.7,-21.6,0.75,0.5,0.5,0.5,0.0,1.0,0.75,1.0,0.0,1.5,1.0,0.0,0.75,-0.17,0.95,-0.36,112.44,-1.1,-11.1
3.64,0.0,0.0,1.0,0.75,0.0,0.0,0.25,1.25,0.25,1.0,0.0,0.5,0.5,0.2,0.95,-0.42,59.46,3.7,-24.4,0.75,0.5,0.5,0.5,0.25,1.0,0.75,1.0,0.0,1.5,1.0,0.0,0.75,-0.17,0.89,-0.36,117.37,-1.0,-8.8
3.66,0.0,0.0,1.0,0.75,0.0,0.0,0.0,1.25,0.25,1.75,0.0,0.75,0.5,0.2,0.95,-0.36,69.36,1.1,-34.8,0.75,0.5,0.0,0.5,0.0,1.0,0.75,1.0,0.0,1.5,1.5,0.25,0.75,-0.17,0.89,-0.42,118.52,0.3,-22.6
3.68,0.0,0.0,0.75,0.75,0.0,0.0,0.0,1.25,0.25,1.5,0.0,0.75,0.5,0.2,0.95,-0.36,79.69,0.1,-37.3,0.75,0.5,0.0,0.5,0.25,1.0,0.75,1.0,0.0,1.5,1.0,0.25,0.75,-0.17,0.89,-0.42,119.29,1.1,-16.6
3.7,0.0,0.0,1.25,0.75,0.0,0.0,0.0,1.25,0.25,1.0,0.0,0.5,0.5,0.2,0.95,-0.36,87.78,4.7,-21.6,1.0,0.5,0.25,0.5,0.25,1.0,0.75,1.0,0.0,1.5,1.0,0.0,0.75,-0.17,0.89,-0.36,120.18,-0.8,-7.9
3.72,0.0,0.0,0.5,0.75,0.0,0.0,0.0,1.25,0.25,1.0,0.0,0.75,0.75,0.2,0.95,-0.36,85.72,-0.8,-42.0,0.75,0.5,0.5,0.5,0.25,1.0,0.75,1.25,0.0,1.5,1.0,0.0,0.5,-0.17,0.89,-0.36,121.48,-0.9,-6.5
3.74,0.0,0.0,0.5,0.75,0.0,0.0,0.0,1.25,0.25,1.25,0.0,0.5,0.75,0.2,0.95,-0.36,83.46,-1.9,-40.4,0.75,0.5,0.0,0.5,0.0,1.0,0.75,0.5,0.0,1.5,1.5,0.0,0.75,-0.17,0.89,-0.36,117.71,-0.4,-18.6
3.76,0.0,0.0,0.75,0.75,0.0,0.0,0.0,1.25,0.25,1.0,0.0,0.75,0.5,0.2,0.95,-0.36,80.72,1.6,-33.7,0.75,0.25,0.75,0.5,0.25,1.0,0.5,0.75,0.0,1.5,1.0,0.0,0.5,-0.17,0.95,-0.36,115.53,-2.5,-6.2
3.78,0.0,0.0,1.0,0.75,0.0,0.0,0.0,1.25,0.25,1.0,0.0,0.75,0.5,0.2,0.95,-0.36,80.42,3.3,-29.3,0.75,0.5,0.0,0.5,0.0,1.0,0.75,1.25,0.0,1.5,1.25,0.25,0.5,-0.17,0.95,-0.36,114.5,0.8,-18.6
3.8,0.0,0.0,0.5,0.75,0.0,0.0,0.25,1.25,0.25,1.0,0.0,0.75,0.5,0.2,0.95,-0.36,79.29,0.5,-37.0,0.75,0.5,0.0,0.5,0.0,1.0,0.75,0.75,0.0,1.5,1.25,0.0,0.75,-0.17,1.02,-0.36,111.79,0.4,-17.4
3.82,0.0,0.0,0.75,0.75,0.0,0.0,0.0,1.25,0.25,1.0,0.0,0.75,0.5,0.2,0.95,-0.36,79.22,1.6,-33.7,0.75,0.5,1.0,0.5,0.25,1.0,0.75,0.75,0.0,1.5,1.0,0.25,0.75,-0.17,1.02,-0.36,116.75,-4.0,-6.6
3.84,0.0,0.0,1.25,0.75,0.0,0.0,0.0,1.25,0.25,1.0,0.0,0.75,0.5,0.2,1.02,-0.36,81.63,4.9,-25.3,0.75,0.5,0.5,0.5,0.5,1.0,1.0,1.0,0.0,1.25,1.0,0.25,0.75,-0.17,1.02,-0.36,121.09,-2.0,-7.1
3.86,0.0,0.0,1.0,0.75,0.0,0.0,0.0,1.25,0.25,1.0,0.0,0.75,0.5,0.2,1.02,-0.36,82.52,3.3,-29.3,0.75,0.5,0.5,0.5,0.0,1.0,0.75,0.75,0.0,1.5,1.0,0.0,0.75,-0.17,1.02,-0.36,120.88,-1.7,-10.2
3.88,0.0,0.0,1.0,0.75,0.0,0.0,0.0,1.25,0.25,1.0,0.0,0.75,0.75,0.2,1.02,-0.36,84.6,2.6,-32.9,1.0,0.5,0.0,0.5,0.0,1.0,0.75,1.0,0.0,1.25,1.5,0.0,0.75,-0.17,1.02,-0.36,119.03,-0.8,-14.5
3.9,0.0,0.0,0.75,1.0,0.0,0.0,0.0,1.25,0.25,1.0,0.0,0.75,0.75,0.14,1.02,-0.36,85.83,1.7,-33.0,0.75,0.5,0.5,0.5,0.0,1.0,0.75,0.75,0.0,1.5,1.5,0.25,0.75,-0.17,0.95,-0.36,119.59,-2.5,-17.0
3.92,0.0,0.0,1.0,0.75,0.0,0.0,0.0,1.25,0.25,1.0,0.0,0.5,0.5,0.14,0.95,-0.36,84.97,3.1,-25.6,0.75,0.5,0.5,0.5,0.0,1.0,0.75,1.0,0.0,1.5,1.25,0.25,0.5,-0.17,0.95,-0.36,119.43,-2.1,-12.9
3.94,0.0,0.0,0.5,0.75,0.0,0.0,0.25,1.25,0.25,1.0,0.0,0.75,0.75,0.2,0.95,-0.36,84.56,0.0,-40.5,0.75,0.5,0.0,0.5,0.0,1.0,0.75,0.75,0.0,1.25,1.5,0.0,0.75,-0.17,0.95,-0.36,115.96,-0.4,-17.3
3.96,0.0,0.0,1.0,0.75,0.0,0.0,0.0,1.5,0.25,1.0,0.0,0.75,0.5,0.2,0.95,-0.36,85.04,2.5,-29.7,0.75,0.5,0.25,0.5,0.0,1.0,0.75,0.75,0.0,1.25,1.0,0.25,0.75,-0.17,0.95,-0.36,113.48,-1.3,-13.8
3.98,0.0,0.0,1.0,0.75,0.0,0.0,0.0,1.25,0.25,1.0,0.0,0.75,0.5,0.2,0.89,-0.3,84.9,3.3,-29.3,0.75,0.5,0.0,0.5,0.5,1.0,0.75,0.75,0.0,1.25,1.0,0.0,0.75,-0.17,0.89,-0.36,111.46,0.5,-7.9
4.0,0.0,0.0,1.0,0.75,0.0,0.0,0.25,1.25,0.25,1.0,0.0,0.75,0.75,0.2,0.89,-0.36,86.7,3.2,-31.7,1.0,0.5,0.5,0.5,0.0,1.0,0.75,0.75,0.0,1.0,1.25,0.0,0.75,-0.23,0.89,-0.36,110.76,-4.2,-4.6
4.02,0.0,0.0,0.75,0.75,0.0,0.0,0.0,1.25,0.25,1.0,0.0,0.75,0.75,0.27,0.95,-0.36,86.74,0.9,-37.2,0.75,0.5,0.0,0.5,0.0,1.0,0.75,0.75,0.0,1.5,1.0,0.25,0.75,-0.23,0.89,-0.36,109.25,0.5,-18.6
4.04,0.0,0.0,0.75,0.75,0.0,0.0,0.0,1.25,0.25,1.0,0.0,0.75,0.75,0.27,0.95,-0.36,86.81,0.9,-37.2,0.75,0.5,0.0,0.5,1.25,1.0,0.75,0.75,0.0,1.25,1.0,0.25,0.75,-0.23,0.89,-0.36,115.16,0.5,-4.6
4.06,0.0,0.0,0.5,0.75,0.0,0.0,0.0,1.25,0.25,1.0,0.0,0.75,0.5,0.2,0.95,-0.36,83.27,-0.1,-38.5,0.75,0.5,0.0,0.5,0.0,1.0,0.75,1.0,0.0,1.0,0.75,0.0,0.75,-0.23,0.95,-0.36,109.64,0.7,-9.4
4.08,0.0,0.0,1.0,0.75,0.0,0.0,0.0,1.25,0.25,1.0,0.0,0.75,0.5,0.27,1.02,-0.36,82.44,3.3,-29.3,0.75,0.5,0.0,0.5,0.0,1.0,0.75,1.0,0.0,1.5,0.5,0.25,0.5,-0.17,0.95,-0.36,107.26,1.4,-11.8
4.1,0.0,0.0,1.25,0.75,0.0,0.0,0.0,1.25,0.25,1.0,0.0,0.75,0.5,0.27,1.02,-0.36,83.07,4.9,-25.3,0.75,0.5,0.5,0.5,0.25,1.0,0.75,0.75,0.0,1.5,1.0,0.0,0.75,-0.17,0.95,-0.36,108.44,-1.5,-7.8
4.12,0.0,0.0,0.75,0.75,0.0,0.0,0.0,1.25,0.25,1.0,0.0,0.75,0.5,0.2,1.02,-0.36,82.44,1.6,-33.7,0.75,0.5,0.0,0.5,0.0,1.0,0.75,1.0,0.0,1.5,1.5,0.0,0.75,-0.17,0.95,-0.36,110.45,0.6,-19.9
4.14,0.0,0.0,0.75,0.75,0.0,0.0,0.0,1.25,0.25,1.0,0.0,0.75,0.75,0.27,1.02,-0.36,83.55,0.9,-37.2,0.75,0.5,0.0,0.5,0.0,1.0,0.75,0.75,0.0,1.25,0.5,0.25,0.5,-0.17,0.95,-0.36,105.95,0.2,-8.2
4.16,0.0,0.0,0.75,0.75,0.0,0.0,0.0,1.25,0.25,1.0,0.0,0.75,0.5,0.2,0.95,-0.36,82.67,1.6,-33.7,0.75,0.25,0.75,0.5,0.5,1.0,0.5,0.75,0.0,1.25,1.0,0.0,0.75,-0.17,0.95,-0.36,109.48,-2.3,-5.1
4.18,0.0,0.0,0.75,0.75,0.0,0.0,0.0,1.25,0.25,1.0,0.0,0.75,0.5,0.2,0.95,-0.36,81.53,1.6,-33.7,0.75,0.5,0.0,0.5,0.5,1.0,0.75,0.75,0.0,1.25,1.0,0.0,0.75,-0.17,0.95,-0.36,109.92,0.5,-7.9
4.2,0.0,0.0,0.75,0.75,0.0,0.0,0.0,1.25,0.25,1.0,0.0,0.75,0.5,0.2,0.89,-0.3,80.27,1.6,-33.7,0.75,0.5,0.0,0.5,0.5,1.0,0.75,1.0,0.0,1.5,1.25,0.0,0.5,-0.17,0.95,-0.36,113.06,0.7,-9.8
4.22,0.0,0.0,1.25,0.75,0.0,0.0,0.0,1.25,0.25,1.0,0.0,0.75,0.5,0.2,0.89,-0.3,82.32,4.9,-25.3,1.0,0.5,0.0,0.5,0.0,1.0,0.75,0.75,0.0,1.5,1.0,0.25,0.75,-0.23,0.95,-0.36,113.12,-0.5,-15.0
4.24,0.0,0.0,0.75,0.75,0.0,0.0,0.0,1.25,0.25,1.0,0.0,0.75,0.5,0.2,0.89,-0.3,81.78,1.6,-33.7,0.75,0.5,0.25,0.5,0.0,1.0,0.75,1.0,0.0,1.25,1.0,0.25,0.75,-0.23,0.95,-0.36,114.2,-0.7,-14.6
4.26,0.0,0.0,0.75,0.75,0.0,0.0,0.0,1.25,0.25,1.0,0.0,0.75,0.75,0.2,0.89,-0.36,83.52,0.9,-37.2,0.75,0.5,0.0,0.5,1.0,1.0,0.75,0.0,0.0,1.5,0.75,0.25,0.5,-0.23,0.95,-0.36,112.47,-0.7,0.2
