time,left pressure 0[N/cm²],left pressure 1[N/cm²],left pressure 2[N/cm²],left pressure 3[N/cm²],left pressure 4[N/cm²],left pressure 5[N/cm²],left pressure 6[N/cm²],left pressure 7[N/cm²],left pressure 8[N/cm²],left pressure 9[N/cm²],left pressure 10[N/cm²],left pressure 11[N/cm²],left pressure 12[N/cm²],left acceleration X[g],left acceleration Y[g],left acceleration Z[g],left total force[N],left center of pressure X[mm],left center of pressure Y[mm],right pressure 0[N/cm²],right pressure 1[N/cm²],right pressure 2[N/cm²],right pressure 3[N/cm²],right pressure 4[N/cm²],right pressure 5[N/cm²],right pressure 6[N/cm²],right pressure 7[N/cm²],right pressure 8[N/cm²],right pressure 9[N/cm²],right pressure 10[N/cm²],right pressure 11[N/cm²],right pressure 12[N/cm²],right acceleration X[g],right acceleration Y[g],right acceleration Z[g],right total force[N],right center of pressure X[mm],right center of pressure Y[mm]
0.02,8.5,4.5,10.5,10.5,0.0,0.0,0.0,1.5,0.25,1.0,0.0,0.0,0.25,-0.3,0.33,1.27,664.86,24.0,63.1,1.25,0.5,0.0,0.75,1.0,1.0,0.75,2.25,0.25,7.25,4.5,5.75,6.75,-0.36,-0.3,0.14,235.66,3.1,-64.6
0.04,8.5,3.75,9.0,9.25,0.0,0.0,0.0,0.0,0.25,1.0,0.0,0.0,0.0,-0.42,0.39,1.45,597.18,26.0,68.7,2.75,0.0,0.25,0.0,1.25,0.75,0.0,2.5,0.5,8.5,7.5,6.0,8.0,0.08,0.45,1.89,355.53,1.9,-65.8
0.06,7.5,2.25,7.75,7.75,0.0,0.0,0.0,0.0,0.25,0.75,0.0,0.0,0.0,-0.55,0.52,2.02,497.82,26.9,68.3,1.0,0.0,0.0,0.0,0.5,2.5,0.25,5.25,1.5,8.75,7.5,6.25,8.5,0.08,0.39,1.7,525.07,5.1,-69.7
0.08,3.5,0.75,5.25,4.5,0.0,0.0,0.5,0.0,0.0,0.75,0.0,0.0,0.0,-0.86,1.52,2.77,359.17,26.9,62.6,1.75,0.75,0.0,0.75,0.25,3.25,0.0,6.75,1.75,9.75,9.0,7.0,8.75,0.14,0.14,1.02,697.68,4.1,-62.1
0.1,1.75,0.0,2.0,2.5,0.0,0.0,0.0,0.0,0.25,0.5,0.0,0.0,0.0,-0.61,1.39,3.14,236.46,24.9,55.2,1.25,0.5,0.0,1.75,3.25,3.5,0.25,7.5,2.25,10.5,10.0,6.75,8.75,0.14,0.14,1.02,862.5,4.0,-53.9
0.12,0.0,0.0,0.0,2.5,0.0,0.0,0.0,0.0,0.25,1.0,0.0,0.0,0.5,-0.55,0.14,2.52,112.95,5.7,2.2,2.5,0.75,0.75,2.25,3.5,3.5,1.25,7.75,3.25,10.5,10.5,7.5,8.75,0.14,0.08,0.95,1009.89,1.7,-47.5
0.14,0.0,0.0,1.0,0.75,0.0,0.0,0.0,1.75,0.0,0.75,0.0,0.0,0.0,-0.73,-0.48,2.02,15.33,2.7,-3.7,3.0,1.25,2.25,2.5,3.5,3.5,1.75,8.25,3.5,9.75,10.5,6.75,8.75,0.14,0.08,0.95,1128.67,0.2,-40.8
0.16,0.0,0.0,1.25,2.5,0.0,0.0,0.25,1.25,0.0,1.0,0.0,0.25,0.5,-0.86,-1.17,3.52,0.0,8.0,3.6,3.75,0.5,4.5,2.75,3.5,3.5,2.0,8.25,3.5,9.25,10.0,6.5,8.25,0.14,0.08,0.95,1204.87,-1.5,-35.5
0.18,0.0,0.0,0.0,2.5,0.0,0.0,0.0,0.0,0.0,1.0,0.0,0.0,1.0,-0.42,-0.92,1.77,0.0,3.2,-7.9,3.75,0.75,5.25,3.25,3.5,3.5,2.25,8.0,3.5,8.5,9.0,5.75,7.75,0.14,0.08,0.95,1214.9,-2.4,-30.4
0.2,0.0,0.0,0.75,2.5,0.0,0.0,0.0,0.0,0.25,1.0,0.0,0.25,0.25,-0.67,-0.73,0.64,0.0,11.7,11.2,3.5,1.25,5.75,3.25,3.5,3.75,2.25,7.5,2.75,8.0,8.25,5.0,6.5,0.2,0.08,0.95,1165.93,-2.9,-25.0
0.22,0.0,0.0,0.75,2.5,0.0,0.0,0.25,0.0,0.25,1.0,0.0,0.5,0.25,-0.36,-0.61,0.45,0.0,12.0,6.1,5.0,1.25,6.75,3.75,3.75,3.5,2.25,7.0,2.75,7.0,7.5,4.0,5.75,0.2,0.08,0.95,1096.44,-4.9,-15.6
0.24,0.0,0.0,0.75,2.5,0.0,0.0,0.25,0.0,0.0,1.0,0.0,0.0,0.25,-0.17,-0.55,0.7,0.0,12.4,20.5,4.75,1.25,7.0,3.75,5.25,3.5,2.25,6.5,2.0,6.0,6.25,2.75,4.75,0.2,0.08,0.95,999.9,-5.3,-6.8
0.26,0.0,0.0,0.5,2.0,0.0,0.0,0.0,0.0,0.0,1.0,0.0,0.25,0.25,-0.23,-0.48,0.89,0.0,9.4,5.2,5.5,1.5,7.75,5.0,5.5,3.5,2.25,6.0,1.5,4.75,4.5,2.25,4.0,0.14,0.14,0.95,911.72,-7.2,4.7
0.28,0.0,0.0,0.25,1.75,0.0,0.0,0.25,1.0,0.25,1.0,0.0,0.0,0.0,-0.17,-0.23,0.95,16.54,3.5,0.2,5.75,1.75,8.0,5.5,5.5,3.5,2.25,5.25,1.5,4.0,3.75,1.5,3.25,0.14,0.14,0.95,845.09,-8.5,12.8
0.3,0.0,0.0,0.0,1.75,0.0,0.0,0.25,0.0,0.25,1.0,0.0,0.0,0.25,-0.17,0.02,0.95,31.08,5.5,-1.1,5.75,2.25,8.75,6.0,5.75,3.75,2.25,4.75,0.75,3.5,3.0,1.25,2.75,0.14,0.14,0.95,797.02,-9.5,20.5
0.32,0.25,0.0,0.25,1.75,0.0,0.0,0.25,0.0,0.25,1.0,0.0,0.0,0.5,-0.17,0.08,1.02,49.19,8.0,1.5,7.0,2.25,9.25,7.25,6.0,3.5,2.25,4.0,1.0,1.75,2.25,1.25,2.5,0.14,0.14,0.95,763.05,-12.1,29.8
0.34,0.25,0.0,1.0,1.75,0.0,0.0,0.25,0.0,0.25,1.0,0.0,0.0,0.25,-0.23,0.2,1.39,61.99,14.1,17.3,7.5,2.5,10.5,7.75,6.0,3.25,2.25,4.0,0.25,0.0,2.25,0.0,2.75,0.08,0.14,0.95,744.15,-14.1,39.6
0.36,0.25,0.0,1.0,1.75,0.0,0.0,0.25,0.0,0.25,1.0,0.0,0.0,0.5,-0.3,0.27,1.7,70.11,12.7,10.7,7.0,0.5,10.5,7.5,6.5,3.0,1.75,3.75,0.25,0.75,2.0,1.0,2.5,0.08,0.14,1.02,722.17,-13.6,33.4
0.38,0.25,0.0,0.5,1.75,0.0,0.0,0.25,0.0,0.25,1.0,0.0,0.0,0.25,-0.48,0.45,2.02,69.63,11.1,11.9,8.25,0.0,11.5,10.0,6.5,3.5,1.5,2.75,0.0,1.5,2.0,0.0,2.25,0.08,0.14,1.08,733.35,-14.8,39.8
0.4,0.25,0.0,0.25,1.75,0.0,0.0,0.25,0.0,0.25,1.0,0.0,0.0,0.25,-0.67,0.64,2.45,66.58,9.4,8.7,8.0,0.0,10.5,9.25,6.25,2.5,1.25,2.5,0.0,1.5,0.75,0.75,1.5,0.08,0.2,1.08,715.15,-15.7,42.4
0.42,0.0,0.0,0.25,1.0,0.0,0.0,0.0,0.0,0.25,1.0,0.0,0.0,0.25,-0.67,1.33,2.77,58.26,4.1,-13.1,9.0,3.25,11.5,10.5,7.0,1.0,1.25,2.5,0.25,1.5,1.5,0.5,2.25,0.08,0.2,1.08,761.05,-16.6,44.6
0.44,0.0,0.0,0.25,1.5,0.0,0.0,0.0,0.0,0.25,1.0,0.0,0.0,0.5,-0.55,2.27,2.7,53.16,4.7,-9.7,9.0,2.5,11.5,9.25,7.5,1.25,0.75,2.25,0.0,0.0,1.0,0.0,1.75,0.08,0.27,1.14,766.98,-17.8,52.7
0.46,0.0,0.0,0.75,1.25,0.0,0.0,0.25,0.0,0.25,1.0,0.0,0.0,0.0,-0.42,3.45,2.08,50.48,12.5,11.9,9.0,1.0,12.0,9.5,6.0,1.25,0.75,1.25,0.0,0.25,0.0,0.0,1.25,0.08,0.27,1.14,748.31,-20.2,57.3
0.48,0.0,0.0,0.25,1.25,0.0,0.0,0.0,0.0,0.0,1.0,0.0,0.0,0.5,0.14,4.58,0.64,49.31,3.1,-13.1,9.0,3.0,12.0,9.5,5.5,1.25,0.25,1.0,0.0,0.25,0.25,0.0,1.5,0.02,0.27,1.2,725.01,-20.0,58.3
0.5,0.0,0.0,0.75,1.75,0.0,0.0,0.0,1.75,0.0,1.0,0.0,0.0,0.0,1.27,6.33,0.08,60.3,2.9,1.8,9.0,2.75,12.5,9.25,5.25,2.25,0.25,1.0,0.0,1.25,0.0,0.0,1.25,0.02,0.33,1.39,716.62,-19.0,56.4
0.52,0.0,0.0,0.0,1.0,0.0,0.0,0.0,1.5,0.0,0.0,0.0,0.0,0.75,1.89,6.7,-0.36,58.53,-5.3,-24.8,8.75,2.5,11.5,7.75,3.5,1.0,0.0,1.0,0.0,0.0,0.0,0.0,1.25,0.14,0.39,1.52,663.12,-22.1,60.9
0.54,0.0,0.0,0.0,0.0,0.0,0.0,0.0,0.0,0.0,0.0,0.0,0.0,0.0,-1.17,-0.86,1.64,40.15,0.0,0.0,7.75,1.0,9.75,5.75,3.0,1.0,0.75,1.0,0.0,0.0,0.0,0.0,1.25,0.27,0.58,1.83,573.65,-22.2,57.9
0.56,0.0,0.0,0.0,0.0,0.0,0.0,0.0,0.0,0.0,0.0,0.0,0.0,0.0,-0.73,0.7,2.7,17.47,0.0,0.0,6.25,1.0,7.75,4.0,0.0,1.5,1.0,1.25,0.25,1.5,1.0,0.5,2.25,0.2,1.33,2.83,467.13,-18.7,32.8
0.58,0.0,0.0,0.25,0.0,0.0,0.0,0.0,5.25,1.25,7.25,6.5,0.0,7.5,-0.17,0.64,2.89,157.8,-7.6,-75.2,2.5,0.0,5.25,2.0,2.75,1.75,1.0,1.0,0.0,0.0,1.0,0.0,2.0,-0.11,1.83,2.7,347.02,-13.4,30.3
0.6,0.0,0.0,0.0,0.0,0.0,0.0,0.25,6.0,1.75,7.25,0.0,5.5,7.0,-0.17,0.02,1.08,269.96,-8.6,-80.5,1.25,0.0,2.75,0.75,0.0,0.5,0.25,1.0,0.0,0.0,0.0,0.0,1.25,0.14,-0.05,2.2,225.66,-15.8,22.4
0.62,0.0,0.0,0.0,0.25,0.0,1.0,0.25,6.5,3.25,7.5,7.0,5.5,6.25,-0.17,0.08,1.08,428.63,-4.4,-72.8,1.25,0.0,0.5,1.0,0.0,1.0,0.25,0.75,0.0,1.75,0.0,0.25,0.5,0.08,-1.17,2.39,116.92,-2.2,-0.4
0.64,0.0,0.75,1.25,2.5,0.0,1.5,0.5,7.0,4.0,7.25,7.25,5.0,6.0,-0.23,0.02,1.02,582.14,-1.6,-55.3,1.0,0.0,1.75,0.25,3.0,0.5,0.75,0.75,0.0,0.0,0.0,0.0,1.0,0.27,-0.73,1.45,48.22,-7.5,31.4
0.66,0.0,0.75,1.0,2.75,0.0,2.25,0.5,7.0,4.25,7.25,7.0,5.0,5.75,-0.17,-0.05,0.95,700.54,-1.9,-53.3,1.0,0.0,0.0,0.5,0.0,0.5,0.25,0.75,0.0,0.25,0.0,0.0,0.75,0.39,-0.61,0.7,0.0,-2.0,2.1
0.68,1.25,0.75,2.0,3.0,0.0,2.25,1.0,7.0,4.5,6.5,6.75,4.5,5.5,-0.17,0.02,0.95,751.13,0.3,-44.1,1.25,0.25,0.0,1.0,0.0,1.0,0.25,0.75,0.25,1.5,0.0,0.5,1.25,0.33,-0.55,0.52,0.0,0.2,-14.3
0.7,1.0,0.75,2.75,4.25,0.0,3.0,1.0,7.0,4.25,6.5,6.0,4.0,4.5,-0.17,0.02,0.95,773.1,0.9,-36.0,1.5,0.75,0.5,1.0,3.0,1.0,0.5,1.0,0.0,1.75,1.0,0.25,1.5,0.2,-0.42,0.52,21.11,-1.3,6.4
0.72,2.25,0.5,3.5,4.5,0.0,3.25,1.0,6.75,3.75,5.5,5.5,3.0,3.25,-0.17,0.02,0.95,754.83,3.0,-24.9,1.25,0.5,0.75,0.75,3.0,1.0,0.5,1.0,0.0,1.5,1.0,0.25,1.75,0.2,-0.3,0.52,65.35,-0.9,2.3
0.74,2.75,0.75,3.5,4.5,4.75,3.5,1.0,6.5,3.25,4.5,4.0,2.25,3.0,-0.17,0.02,0.95,743.64,2.6,-7.9,1.25,0.5,0.25,1.0,2.5,1.0,0.75,1.0,0.0,1.75,1.0,0.0,1.75,0.2,-0.23,0.64,103.52,0.2,-0.2
0.76,3.25,1.0,3.75,4.75,5.0,3.5,0.75,6.25,3.0,4.25,3.0,2.0,2.0,-0.17,0.02,0.95,725.93,3.6,0.3,1.25,0.5,0.5,1.0,1.5,1.0,0.75,1.0,0.0,1.75,1.0,0.0,1.5,0.14,-0.17,0.7,131.64,-1.2,-1.8
0.78,3.5,1.25,3.75,6.25,5.0,3.0,0.75,6.0,2.5,3.0,2.25,2.0,1.75,-0.17,0.02,0.95,700.48,5.2,8.2,1.5,0.5,0.0,0.75,2.5,1.0,0.5,1.0,0.0,1.5,1.0,0.25,1.75,0.08,-0.05,0.83,151.98,0.5,-1.8
0.8,5.25,2.25,5.25,6.25,5.0,2.75,0.75,5.5,2.0,2.75,1.5,1.75,1.5,-0.17,0.08,0.95,675.21,8.2,20.0,1.25,0.5,0.5,0.75,2.25,1.0,0.25,1.0,0.0,1.5,1.0,0.25,1.75,0.02,0.02,1.02,164.04,-0.1,-2.7
0.82,6.0,2.25,5.75,7.25,5.25,2.25,1.0,5.25,2.0,2.5,0.5,1.25,1.0,-0.17,0.08,0.95,645.92,10.0,28.9,1.25,0.75,0.0,0.75,2.5,1.0,0.5,1.0,0.0,1.5,1.5,0.0,1.75,-0.05,0.08,1.27,181.03,0.6,-2.3
0.84,6.25,2.25,6.25,8.0,5.0,2.25,0.75,4.75,1.5,2.5,1.25,1.25,1.25,-0.17,0.08,0.95,652.73,10.8,29.0,1.25,0.75,0.0,1.0,2.75,1.0,0.5,1.0,0.0,1.5,1.0,0.25,2.0,-0.05,0.33,1.45,194.78,0.8,-1.3
0.86,7.0,2.5,6.75,8.0,5.0,2.25,0.75,4.5,1.5,2.25,0.5,1.25,0.75,-0.11,0.08,0.95,653.99,12.1,35.3,1.25,0.75,0.0,0.75,3.0,1.0,0.5,1.0,0.0,1.5,1.0,0.25,0.75,0.02,0.52,1.58,193.54,0.0,10.4
0.88,7.5,3.5,7.25,8.5,4.5,2.25,0.75,4.5,1.0,2.0,0.0,1.0,1.0,-0.11,0.08,0.95,670.16,13.0,40.4,1.75,0.75,0.0,0.75,2.75,1.0,0.5,0.75,0.0,1.5,1.0,0.25,1.5,0.08,0.95,2.14,192.46,-0.9,6.2
0.9,8.0,3.75,7.75,9.25,5.75,1.5,0.5,3.75,1.0,1.5,0.0,1.0,1.0,-0.17,0.14,0.95,694.49,14.3,45.0,1.5,0.75,0.0,0.75,3.0,1.25,0.75,1.0,0.25,1.25,1.0,0.0,1.25,-0.05,1.2,2.7,192.84,-0.3,10.8
0.92,8.25,4.25,8.5,10.5,0.0,1.5,0.5,3.5,0.75,1.25,0.0,1.0,0.75,-0.17,0.14,0.95,683.28,18.4,48.1,1.25,0.75,0.25,1.25,1.5,1.0,0.75,1.0,0.25,1.25,1.25,0.0,1.5,0.02,2.02,3.02,183.79,-2.1,1.1
0.94,8.5,4.75,8.25,10.5,0.0,1.5,0.5,3.5,0.75,1.25,0.0,1.0,0.75,-0.17,0.14,1.02,673.04,18.3,48.9,1.75,0.75,0.0,1.25,3.0,1.0,0.5,1.0,0.0,1.0,1.0,0.25,1.5,0.45,3.45,2.08,183.38,-1.7,11.6
0.96,9.0,5.0,8.75,10.5,0.0,1.0,0.25,3.0,0.5,1.25,0.0,1.0,0.75,-0.23,0.2,1.14,656.94,19.6,51.7,1.25,0.75,0.0,0.5,3.0,1.0,0.5,1.0,0.0,1.5,1.0,0.25,1.5,0.7,4.39,-0.17,183.61,1.1,1.9
0.98,9.25,5.0,9.0,10.5,0.0,0.75,0.0,2.75,0.5,1.0,0.0,1.0,0.75,-0.23,0.2,1.14,644.19,20.5,53.6,0.75,0.0,0.0,0.0,3.0,0.0,0.5,0.75,0.0,0.0,1.0,0.0,1.5,-1.3,4.7,0.45,162.98,0.3,-1.4
1.0,9.75,5.25,9.0,10.5,0.0,0.25,0.0,2.5,0.5,1.0,0.0,0.75,0.75,-0.23,0.27,1.27,636.82,21.4,56.2,0.75,0.0,0.0,0.0,0.25,0.25,0.5,0.5,0.0,0.5,0.0,0.5,1.25,-2.48,4.7,-0.23,123.59,0.8,-36.3
1.02,9.5,5.0,9.25,10.5,0.0,0.0,0.0,2.25,0.5,1.0,0.0,0.5,0.75,-0.36,0.27,1.39,627.55,22.1,57.5,0.0,0.0,0.0,0.0,0.0,0.0,0.0,0.0,0.0,4.75,1.75,4.0,3.25,0.52,0.27,1.14,142.73,4.8,-93.7
1.04,9.5,5.0,9.0,9.25,0.0,0.0,0.0,2.0,0.25,1.0,0.0,1.0,0.5,-0.55,0.33,1.7,604.15,22.5,57.6,0.25,0.0,0.0,0.0,0.0,0.5,0.0,0.0,0.25,8.0,4.5,5.5,7.0,1.02,0.27,1.58,226.69,4.9,-88.3
1.06,8.25,4.25,8.25,8.0,0.0,0.0,0.0,2.0,0.5,1.0,0.0,0.25,1.0,-0.42,0.27,1.52,556.69,21.9,55.6,1.5,1.0,0.0,1.0,0.25,1.25,0.25,2.25,1.5,9.25,7.5,5.75,8.0,-0.23,0.77,2.7,358.48,2.3,-65.3
1.08,7.25,0.0,0.0,4.75,0.0,0.0,0.0,0.0,0.25,1.0,0.0,0.0,0.0,-0.42,0.45,1.52,391.63,23.8,66.6,2.0,0.5,0.0,2.0,3.0,3.25,0.75,6.0,2.0,9.5,9.5,6.0,8.0,0.58,0.64,1.83,573.18,2.8,-50.2
1.1,2.75,0.0,5.75,2.75,0.0,0.0,0.0,0.0,0.25,1.0,0.0,0.0,0.0,-0.23,0.95,2.14,277.42,28.0,55.0,3.25,1.0,2.75,2.0,3.5,3.5,1.0,6.75,2.75,9.75,9.75,6.0,7.75,0.02,0.08,0.95,801.4,0.0,-38.9
1.12,0.0,0.0,1.5,2.0,0.0,0.0,0.0,0.0,0.0,0.5,0.0,0.0,0.0,-0.17,0.77,1.64,145.23,21.0,42.9,3.5,0.75,4.25,2.25,3.5,3.5,1.0,7.5,3.0,9.5,10.0,6.0,7.75,0.14,0.14,1.02,981.98,-1.0,-36.0
1.14,0.0,0.0,0.25,0.0,0.0,0.0,0.0,1.0,0.0,1.0,0.0,0.0,0.0,-0.42,-0.42,1.83,34.27,-10.0,-43.6,3.75,1.5,5.5,3.5,3.5,3.75,1.25,7.5,2.75,9.0,9.75,5.25,7.0,0.2,0.08,1.02,1091.98,-2.5,-27.4
1.16,0.0,0.0,0.0,0.75,0.0,0.0,1.0,1.5,0.0,0.0,0.0,0.0,0.0,0.08,-2.23,2.95,0.0,1.3,0.1,4.25,1.25,6.75,3.25,3.5,4.0,1.25,7.5,2.75,8.5,9.0,4.75,6.5,0.2,0.14,0.95,1146.45,-3.4,-23.0
1.18,0.0,0.0,0.0,0.75,0.0,0.0,0.0,1.5,0.0,0.0,0.0,1.0,0.0,-0.48,-0.92,0.39,0.0,-0.8,-37.1,5.0,0.5,7.75,3.25,4.5,4.0,1.25,7.5,2.75,8.25,8.5,4.25,6.0,0.2,0.14,0.95,1167.19,-4.2,-18.4
1.2,0.0,0.0,0.0,1.0,0.0,0.0,0.0,1.25,0.0,0.75,0.0,0.0,0.0,-0.36,-0.73,0.58,0.0,-4.8,-14.5,5.25,0.75,8.75,3.75,4.25,3.75,1.75,6.75,2.75,7.75,8.0,4.0,5.5,0.2,0.14,0.95,1168.76,-5.8,-13.6
1.22,0.0,0.0,0.0,0.75,0.0,0.0,0.0,0.0,0.0,0.5,0.0,0.0,0.0,0.83,-0.67,1.08,0.0,4.4,6.0,5.75,0.75,8.75,4.5,3.5,3.5,1.75,6.75,2.75,7.5,8.0,4.0,5.0,0.2,0.14,0.95,1153.35,-6.6,-12.0
1.24,0.0,0.0,0.0,0.25,0.0,0.0,0.0,0.0,0.0,0.75,0.0,0.0,0.0,0.83,-0.48,0.7,0.0,-7.1,-40.9,5.5,0.75,9.0,3.75,3.5,3.25,1.75,6.0,2.5,7.25,7.75,4.0,4.75,0.14,0.14,0.95,1096.59,-7.1,-11.8
1.26,0.0,0.0,0.0,0.0,0.0,0.0,0.0,0.0,0.0,0.0,0.0,0.0,0.0,0.89,0.02,0.77,0.0,0.0,0.0,5.75,1.0,9.25,4.0,3.25,3.25,1.75,5.25,2.75,7.0,7.5,4.0,4.75,0.14,0.08,0.89,1024.57,-7.8,-9.8
1.28,0.0,0.0,0.0,0.0,0.0,0.0,0.0,0.0,2.0,1.0,0.0,0.0,0.0,1.02,0.14,1.08,0.0,2.8,-51.0,5.75,1.0,9.5,4.0,3.25,2.75,1.75,5.0,2.75,6.75,7.5,3.5,4.25,0.08,0.14,0.89,949.82,-8.6,-7.7
1.3,0.0,0.0,0.0,0.25,0.0,0.0,0.0,0.0,0.0,0.75,0.0,0.0,0.0,0.83,0.45,1.33,0.0,-7.1,-40.9,5.75,0.75,10.5,4.0,3.0,2.5,2.0,4.75,2.75,6.5,7.5,3.75,4.25,0.08,0.14,0.95,898.29,-9.6,-7.3
1.32,0.0,0.0,0.0,0.5,0.0,0.0,0.0,0.0,0.0,0.75,0.0,0.0,0.0,0.64,1.27,1.27,0.0,-2.1,-20.6,6.25,0.75,10.5,2.75,3.0,2.75,1.75,4.0,2.75,6.5,7.75,3.25,3.25,0.08,0.14,0.95,847.01,-10.3,-4.9
1.34,0.0,0.0,0.0,0.25,0.0,0.0,0.0,0.25,0.0,0.75,0.0,0.0,0.0,0.7,1.58,1.14,5.05,-9.0,-40.5,5.75,0.25,9.25,3.25,1.5,1.0,1.75,3.75,2.75,5.75,7.25,3.5,3.75,0.08,0.08,0.95,775.22,-11.2,-11.1
1.36,0.0,0.0,0.0,0.75,0.0,0.0,0.0,0.0,0.5,1.25,0.0,0.0,0.0,0.77,1.7,0.95,21.88,0.0,-26.8,7.75,0.75,11.5,3.75,3.25,1.75,2.75,3.75,2.75,5.75,7.5,3.5,3.5,0.08,0.08,0.95,779.86,-12.5,0.3
1.38,0.0,0.0,0.0,0.0,0.0,0.0,0.0,0.0,0.0,0.0,0.0,0.0,0.0,-0.23,3.08,1.77,14.65,0.0,0.0,8.25,0.75,12.5,5.0,3.0,2.0,3.0,3.5,2.75,4.75,7.0,2.75,3.25,0.08,0.14,0.95,800.66,-14.0,7.5
1.4,0.0,0.0,0.0,0.0,0.0,0.0,0.0,0.0,0.0,0.75,0.0,1.0,0.0,-3.73,7.89,3.58,19.36,-1.6,-95.0,8.75,1.0,14.0,5.5,3.0,1.75,3.0,2.5,2.75,3.5,6.25,2.25,2.5,0.02,0.14,0.95,834.05,-16.8,17.0
1.42,0.5,0.0,0.0,1.25,0.0,0.0,0.0,0.0,0.0,1.0,0.0,0.0,0.75,-3.73,1.83,0.95,30.53,3.5,-10.9,9.25,0.75,14.0,5.5,3.0,1.25,3.0,2.0,2.0,2.0,5.0,1.5,1.75,0.08,0.14,1.02,818.18,-19.5,27.4
1.44,0.5,0.0,0.0,1.5,0.0,0.0,0.0,0.0,0.25,1.25,0.0,0.25,0.5,0.08,-3.36,1.39,48.4,5.0,-11.8,9.75,0.75,14.5,5.5,3.0,1.25,2.5,2.25,1.5,1.75,3.5,1.25,1.75,0.14,0.14,1.27,793.4,-20.1,33.1
1.46,0.25,0.0,0.0,1.0,0.0,0.0,0.0,0.0,0.25,0.5,0.0,1.0,0.75,-0.11,0.39,0.52,59.97,5.1,-41.5,9.75,0.75,15.0,5.5,3.0,1.0,2.0,2.25,1.0,0.5,3.0,0.5,1.25,0.02,0.2,1.14,740.49,-22.3,42.5
1.48,0.0,0.0,0.0,1.5,0.0,0.0,0.0,0.0,0.25,0.75,0.0,0.0,0.75,-0.36,0.64,1.08,64.01,2.3,-17.9,10.0,0.75,12.5,4.5,3.0,1.0,1.25,2.0,1.0,1.5,2.0,0.75,1.5,-0.05,0.14,1.45,680.8,-20.7,39.9
1.5,0.0,0.0,1.25,1.5,0.0,0.0,0.0,0.0,0.25,1.0,0.0,0.5,1.0,0.45,0.52,1.02,74.38,9.5,-14.7,9.0,0.0,12.0,2.75,0.0,0.0,0.5,0.75,0.25,0.5,1.0,0.0,1.0,0.02,0.14,1.83,548.29,-29.3,54.3
1.52,0.0,0.0,1.5,1.25,0.0,0.0,0.0,0.0,0.25,1.0,0.0,0.5,0.75,-0.67,0.58,0.64,79.95,11.6,-10.1,8.75,0.0,11.0,2.25,0.0,0.0,0.25,0.75,0.25,0.25,1.0,0.0,0.75,0.08,0.08,2.02,431.21,-30.0,56.6
1.54,0.0,0.0,1.75,1.5,0.0,0.0,0.0,0.0,0.25,1.0,0.0,0.25,0.75,-1.05,0.58,0.58,90.95,13.2,0.6,7.5,0.0,9.5,1.25,0.0,0.0,0.75,0.75,0.0,0.25,1.25,0.0,0.75,-0.17,-0.11,2.2,331.06,-29.8,53.3
1.56,0.75,0.0,1.75,1.75,0.0,0.0,0.0,0.0,0.25,1.0,0.0,0.5,0.5,-0.8,0.7,0.7,101.25,16.6,13.4,5.25,0.0,8.75,0.75,0.0,0.0,0.5,0.5,0.0,1.5,0.75,0.0,0.5,-0.48,0.08,2.39,265.59,-27.8,46.0
1.58,0.0,0.0,1.5,2.25,0.0,0.0,0.0,0.0,0.25,1.0,0.0,0.25,0.75,-0.3,0.58,0.77,106.57,12.7,5.4,5.25,0.75,6.75,0.25,0.0,0.0,0.25,0.75,0.0,0.5,1.5,0.0,0.0,-0.61,0.27,2.7,211.43,-28.7,52.3
1.6,2.75,0.0,1.75,2.75,0.0,0.0,0.0,0.0,0.0,1.0,0.0,1.0,0.0,-0.23,0.77,0.64,125.93,21.8,37.1,3.5,0.5,5.0,1.25,1.0,1.0,0.75,0.75,0.25,1.25,1.5,0.25,1.25,0.58,-0.86,1.27,179.59,-16.6,25.2
1.62,0.0,0.0,1.25,2.75,0.0,0.0,0.0,0.0,0.25,1.0,0.0,1.0,0.0,-0.55,0.83,0.52,126.12,14.8,7.9,2.5,0.75,3.0,0.75,1.75,1.0,0.75,1.0,0.25,0.75,1.5,0.0,1.5,3.08,-0.67,0.77,155.96,-11.4,19.9
1.64,0.0,0.0,1.25,2.75,0.0,0.0,0.25,0.0,0.25,1.0,0.0,1.0,0.0,-0.55,0.95,0.58,123.98,15.1,8.3,2.5,0.5,2.75,1.0,1.75,1.0,0.75,0.75,0.0,1.0,1.25,0.25,1.5,-0.05,0.27,0.7,145.36,-11.0,18.2
1.66,0.0,0.0,0.25,1.5,0.0,0.0,0.25,0.0,0.25,1.0,0.0,0.0,0.0,-0.17,0.77,0.52,98.63,8.7,7.7,2.25,1.0,2.75,1.5,1.75,1.0,0.75,0.75,0.0,1.75,1.0,0.0,1.5,-0.05,0.2,0.14,149.3,-9.7,20.0
1.68,4.25,0.0,0.25,1.75,0.0,0.0,0.25,0.0,0.25,1.0,0.0,0.0,0.0,0.02,0.89,0.52,103.84,23.0,57.7,2.5,0.25,2.75,1.0,2.25,1.0,0.75,0.75,0.0,1.0,1.25,0.25,1.5,-0.48,-0.36,0.64,155.45,-10.4,18.2
1.7,4.0,0.0,0.0,2.5,0.0,0.0,0.0,0.0,0.25,1.0,0.0,0.0,0.0,0.02,0.83,0.14,109.19,21.4,56.8,1.75,1.0,2.75,1.25,2.75,1.0,0.75,0.75,0.0,1.75,1.25,0.25,1.5,0.02,-0.55,0.52,174.66,-8.0,16.2
1.72,2.75,0.0,0.0,1.25,0.0,0.0,0.0,0.0,0.0,1.0,0.0,0.0,0.0,-0.55,1.27,0.27,107.29,19.8,51.5,2.0,0.5,2.25,1.25,3.0,1.0,0.75,0.75,0.25,1.5,1.0,0.25,1.5,0.27,-0.42,-0.48,192.47,-7.4,16.0
1.74,0.0,0.0,0.0,1.25,0.0,0.0,0.0,0.0,0.0,1.25,0.0,0.5,0.0,-1.3,2.02,0.39,86.43,2.3,-23.9,1.75,0.5,2.75,1.0,3.0,1.0,0.5,0.75,0.0,1.75,1.0,0.25,1.25,0.2,-0.11,-1.05,209.72,-7.6,16.9
1.76,0.0,0.0,1.25,0.75,0.0,0.0,0.0,0.0,0.0,0.75,0.0,0.25,0.0,-0.3,3.45,0.95,66.81,17.3,13.0,2.0,0.0,2.0,1.25,2.5,1.0,0.25,0.75,0.0,1.75,1.0,0.25,1.5,-0.05,2.89,-2.67,208.32,-6.2,9.9
1.78,0.0,0.0,0.0,1.0,0.0,0.0,0.0,0.0,0.0,0.75,0.0,0.0,0.0,-0.23,-1.3,0.89,41.54,3.4,2.2,1.75,0.0,2.75,1.75,2.75,1.25,0.0,0.75,0.0,1.5,1.0,0.25,1.5,-1.3,7.95,-1.23,213.82,-7.3,15.1
1.8,0.0,0.0,0.0,0.75,0.0,0.0,0.0,0.0,0.25,0.5,0.0,0.5,0.0,-0.8,-1.48,-1.42,25.93,6.4,-27.7,1.75,0.75,2.75,1.75,2.75,1.0,0.0,0.75,0.0,1.75,1.0,0.25,1.25,-2.05,7.64,0.89,220.05,-8.0,19.4
1.82,0.0,0.0,0.0,0.5,0.0,0.0,0.0,0.0,0.0,0.0,0.0,0.0,0.0,-0.61,-1.23,-1.61,11.0,17.2,57.9,1.75,0.5,2.75,1.0,2.75,1.0,0.75,0.75,0.0,1.5,1.0,0.25,1.25,-0.05,3.45,0.39,222.55,-8.4,17.8
1.84,0.0,0.0,0.0,0.5,0.0,0.0,0.0,0.0,0.0,0.0,0.0,0.0,0.0,0.45,-0.17,-0.67,0.62,17.2,57.9,1.5,0.5,2.75,0.75,2.75,1.0,0.5,0.75,0.0,1.75,1.5,0.25,1.25,1.89,-2.11,-0.8,222.62,-7.3,11.4
1.86,0.0,0.0,0.0,0.5,0.0,0.0,0.0,0.0,0.0,0.0,0.0,0.0,0.0,0.64,1.02,-0.73,0.0,17.2,57.9,1.75,0.5,2.75,1.25,2.75,1.0,0.75,0.75,0.0,1.75,1.0,0.25,1.5,2.39,-4.05,-2.11,226.12,-7.8,14.9
1.88,0.0,0.0,0.0,1.25,0.0,0.0,0.0,0.0,0.25,0.75,0.0,0.0,0.0,0.52,1.83,0.08,2.67,5.9,4.1,1.75,0.0,2.75,1.25,3.0,1.25,0.5,0.75,0.0,1.75,1.0,0.25,1.25,-0.17,-2.36,-0.73,225.84,-7.1,15.1
1.9,0.0,0.0,0.0,1.75,0.0,0.0,0.0,0.0,2.0,0.75,0.0,0.5,0.0,0.39,2.33,0.27,26.21,9.5,-16.0,1.5,0.75,2.25,1.25,2.75,1.0,0.75,0.75,0.0,1.5,1.0,0.5,1.5,-0.36,-0.73,0.77,224.63,-6.8,13.0
1.92,0.0,0.0,0.0,1.75,0.0,0.0,2.75,0.0,2.25,1.5,0.0,0.5,0.0,0.02,2.08,0.27,58.1,11.1,-15.1,1.25,0.75,2.5,0.75,3.0,1.0,0.75,0.75,0.0,1.75,1.0,0.25,1.5,-0.23,0.95,1.89,223.39,-6.0,12.3
1.94,0.5,0.0,0.0,1.75,0.0,0.0,2.75,0.0,2.0,0.75,0.0,0.5,0.0,-0.73,1.58,0.14,86.81,15.6,0.0,1.25,0.75,2.5,0.75,3.0,1.0,0.75,0.75,0.0,1.75,1.0,0.25,1.5,-0.42,3.27,1.64,221.5,-6.0,12.3
1.96,0.25,0.0,0.0,1.25,0.0,0.0,2.75,0.0,2.25,1.5,0.0,0.5,0.0,-0.3,0.64,1.02,107.63,11.4,-16.7,1.25,0.75,2.75,1.0,3.0,1.0,0.75,0.75,0.0,1.5,1.0,0.25,1.5,-3.92,6.39,1.02,222.28,-7.1,15.3
1.98,0.0,0.0,0.0,1.25,0.0,0.0,2.5,0.0,1.25,1.25,0.0,0.25,0.0,-0.17,0.33,0.89,108.25,11.2,-11.5,2.0,0.25,2.5,1.0,3.0,1.0,0.75,0.75,0.0,1.5,1.0,0.25,1.5,-1.86,3.33,2.33,223.21,-7.6,15.5
2.0,0.0,0.0,0.0,0.75,0.0,0.0,1.5,0.0,1.25,0.5,0.0,0.25,0.0,-0.17,0.7,0.7,94.49,13.2,-13.6,1.25,0.0,2.75,1.75,3.0,1.0,0.75,0.75,0.0,1.5,1.0,0.25,1.5,-0.42,2.45,0.7,224.38,-7.3,13.3
2.02,0.0,0.0,0.0,1.0,0.0,0.0,1.5,0.0,0.75,0.25,0.0,0.0,0.0,-0.36,1.2,0.58,76.97,16.8,11.9,1.25,0.0,1.75,1.25,3.0,1.0,0.75,0.75,0.0,1.5,1.0,0.25,1.5,-0.61,0.83,0.89,216.71,-4.7,8.2
2.04,0.5,0.0,0.0,1.0,0.0,0.0,1.25,0.0,0.5,1.25,0.0,0.5,0.0,-0.42,1.39,0.39,70.48,10.2,-10.4,2.0,0.25,1.75,1.0,3.0,1.0,0.75,0.75,0.0,1.75,1.0,0.25,1.75,-0.17,0.08,0.7,215.6,-5.3,9.6
2.06,0.0,0.0,0.0,1.0,0.0,0.0,0.5,0.0,0.25,0.0,0.0,0.25,0.0,-0.3,1.39,0.33,55.72,17.3,17.0,1.25,0.5,1.75,1.25,3.0,1.0,0.75,0.75,0.0,1.5,1.0,0.25,1.25,-0.05,-0.3,0.45,211.24,-5.3,13.5
2.08,0.0,0.0,0.0,0.75,0.0,0.0,1.0,0.0,0.25,0.5,0.0,0.25,0.0,-0.48,1.33,0.2,46.05,11.6,-7.0,1.75,0.5,0.75,1.0,3.0,1.0,0.75,0.75,0.0,1.5,1.0,0.25,1.25,-0.05,-0.36,0.27,205.44,-3.6,12.0
2.1,0.0,0.0,0.5,0.75,0.0,0.0,0.75,0.0,0.0,0.0,0.0,0.0,0.0,-0.55,1.14,0.2,33.05,27.0,52.2,1.25,0.0,0.75,0.25,2.75,1.0,0.75,0.75,0.0,1.5,1.0,0.25,1.5,-0.17,-0.36,0.02,190.1,-0.8,-2.0
2.12,0.0,0.0,0.0,0.75,0.0,0.0,0.5,0.0,0.5,1.0,0.0,0.0,0.0,-0.48,0.95,0.14,27.27,4.5,-16.8,1.25,0.5,0.5,0.75,3.0,1.0,0.5,0.75,0.0,1.5,1.0,0.25,1.5,-0.3,-0.23,-0.05,182.84,-0.8,4.2
2.14,0.0,0.0,0.0,0.25,0.0,0.0,0.5,0.0,0.0,0.0,0.0,0.0,0.0,-0.42,0.7,0.2,12.34,24.4,43.3,1.25,0.5,0.5,0.75,3.0,1.0,0.75,0.75,0.0,1.5,1.0,0.25,2.0,-0.48,0.14,-0.11,179.34,-0.5,0.0
2.16,0.0,0.0,0.0,0.5,0.0,0.0,0.0,0.0,0.25,1.0,0.0,0.0,0.0,-0.23,0.64,0.08,10.97,-2.0,-30.9,1.0,0.0,0.5,1.0,3.0,1.0,0.5,0.75,0.0,1.5,1.0,0.0,1.5,-0.61,0.58,-0.11,174.88,0.1,1.9
2.18,0.0,0.0,0.0,0.25,0.0,0.0,0.0,0.0,0.0,0.0,0.0,0.0,0.0,-0.05,0.64,-0.05,3.29,17.2,57.9,1.25,0.0,0.5,1.25,3.0,0.5,0.5,0.75,0.0,1.5,1.0,0.25,1.5,-0.67,0.83,-0.05,172.87,-1.9,1.4
2.2,0.0,0.0,0.0,0.5,0.0,0.0,0.0,0.0,0.0,0.0,0.0,0.0,0.0,0.14,0.7,-0.05,1.56,17.2,57.9,1.5,0.0,0.0,0.75,2.5,1.0,0.75,0.75,0.0,1.5,1.0,0.25,1.25,-0.73,1.2,0.02,166.03,-0.1,-0.4
2.22,0.0,0.0,0.25,0.75,0.0,0.0,0.0,0.0,0.0,0.75,0.0,0.0,0.0,0.2,0.83,-0.05,7.22,6.4,2.5,1.5,0.0,0.0,1.0,2.75,1.25,0.5,0.75,0.0,1.5,1.5,0.25,1.25,-0.55,1.52,0.14,166.3,-0.1,-0.4
2.24,0.0,0.0,0.0,0.75,0.0,0.0,0.0,0.0,0.25,0.75,0.0,0.0,0.0,0.2,0.95,-0.05,15.0,2.6,-11.5,1.25,0.0,0.0,0.75,3.0,1.0,0.5,0.75,0.0,1.5,1.5,0.0,1.25,-0.36,1.52,0.2,163.94,0.7,-0.7
2.26,0.0,0.0,0.0,0.0,0.0,0.0,0.0,0.0,0.0,0.0,0.0,0.0,0.0,0.14,1.08,-0.05,10.68,0.0,0.0,2.25,0.25,0.0,0.75,2.75,1.0,0.75,0.75,0.0,1.75,1.0,0.0,2.25,-0.3,1.45,0.2,173.87,-0.6,0.0
2.28,0.0,0.0,0.25,0.75,0.0,0.0,0.25,0.0,0.25,1.0,0.0,0.0,0.25,0.08,1.14,-0.05,19.45,4.1,-18.3,1.25,0.75,0.0,1.0,3.0,1.0,0.5,0.75,0.0,1.5,1.0,0.25,1.5,-0.36,1.33,0.27,177.66,0.1,5.0
2.3,0.0,0.0,0.5,0.5,0.0,0.0,0.25,0.0,0.0,0.0,0.0,0.0,0.0,0.02,1.14,0.02,21.05,28.1,56.1,1.25,1.0,0.0,1.25,2.75,0.75,0.5,0.75,0.0,1.5,1.0,0.25,1.5,-0.36,1.2,0.33,183.59,-1.0,6.3
2.32,0.0,0.0,0.0,0.75,0.0,0.0,0.0,0.0,0.0,0.5,0.0,0.0,0.0,-0.05,1.14,0.08,22.61,4.4,6.0,1.25,0.5,0.0,0.75,2.75,1.0,0.5,0.75,0.0,1.75,1.0,0.25,1.25,-0.36,1.08,0.39,181.51,0.7,1.4
2.34,0.0,0.0,0.0,0.25,0.0,0.0,0.25,0.0,0.0,0.0,0.0,0.0,0.0,-0.05,1.2,0.08,16.6,21.9,48.3,1.25,0.5,0.0,0.75,3.0,1.0,0.5,0.75,0.0,1.5,1.0,0.0,1.5,-0.3,0.89,0.33,179.84,0.9,4.2
2.36,0.0,0.0,0.0,0.5,0.0,0.0,0.0,0.0,0.0,0.0,0.0,0.0,0.0,0.02,1.2,0.14,13.72,17.2,57.9,1.0,0.75,0.0,0.75,2.75,1.0,0.5,0.75,0.0,1.5,1.0,0.25,1.5,-0.23,0.83,0.39,175.45,1.0,0.8
2.38,0.0,0.0,0.0,0.5,0.0,0.0,0.0,0.0,0.0,0.0,0.0,0.0,0.0,-0.05,1.14,0.27,10.05,17.2,57.9,1.25,0.25,0.0,1.25,2.5,0.75,0.5,0.75,0.0,1.5,1.0,0.0,1.5,-0.17,0.83,0.27,171.8,-0.1,1.4
2.4,0.0,0.0,0.0,0.5,0.0,0.0,0.0,0.0,0.0,0.0,0.0,0.0,0.0,-0.05,1.08,0.33,7.97,17.2,57.9,1.25,0.5,0.0,0.75,3.0,1.0,0.5,0.75,0.0,1.5,1.0,0.25,1.5,-0.17,0.77,0.2,173.42,0.7,1.8
2.42,0.0,0.0,0.0,0.5,0.0,0.0,0.0,0.0,0.0,0.0,0.0,0.0,0.0,-0.05,1.02,0.27,8.24,17.2,57.9,1.25,0.75,0.0,0.75,3.0,1.0,0.5,0.75,0.0,1.5,1.0,0.25,1.25,-0.23,0.77,0.2,174.84,0.1,6.3
2.44,0.0,0.0,0.0,0.25,0.0,0.0,0.0,0.0,0.0,0.0,0.0,0.0,0.0,-0.11,1.02,0.2,5.58,17.2,57.9,1.75,0.5,0.0,0.75,3.0,1.0,0.25,0.75,0.0,1.25,1.0,0.25,1.25,-0.3,0.77,0.14,176.7,-0.9,9.3
2.46,0.0,0.0,0.0,0.5,0.0,0.0,0.0,0.0,0.0,0.0,0.0,0.0,0.0,-0.11,0.95,0.14,4.84,17.2,57.9,1.0,0.5,0.0,0.5,2.75,1.0,0.25,0.75,0.0,1.75,1.0,0.0,1.5,-0.36,0.77,0.08,172.16,2.7,-2.2
2.48,0.0,0.0,0.0,0.5,0.0,0.0,0.0,0.0,0.0,0.0,0.0,0.0,0.0,-0.11,0.89,0.08,5.38,17.2,57.9,1.25,1.0,0.0,0.5,2.75,0.5,0.5,0.75,0.0,1.5,1.0,0.0,1.25,-0.36,0.83,0.08,168.85,-0.5,7.4
2.5,0.0,0.0,0.0,0.5,0.0,0.0,0.0,0.0,0.0,0.0,0.0,0.0,0.0,-0.11,0.89,0.02,6.82,17.2,57.9,1.25,0.5,0.0,0.75,3.0,1.0,0.5,0.75,0.0,1.5,1.0,0.25,1.5,-0.36,0.83,0.02,168.71,0.7,1.8
2.52,0.0,0.0,0.25,0.5,0.0,0.0,0.0,0.0,0.0,0.0,0.0,0.0,0.0,-0.05,0.89,0.02,7.68,24.1,58.9,1.75,0.5,0.0,0.75,2.25,1.0,0.25,0.75,0.0,1.5,1.0,0.0,1.5,-0.36,0.83,0.02,168.47,-0.3,4.0
2.54,0.0,0.0,0.25,0.5,0.0,0.0,0.0,0.0,0.0,0.0,0.0,0.0,0.0,-0.05,0.89,-0.05,11.27,24.1,58.9,1.25,0.5,0.0,0.5,2.75,1.0,0.5,0.75,0.0,1.5,1.0,0.25,1.25,-0.42,0.89,0.02,168.46,0.8,1.8
2.56,0.0,0.0,0.0,0.5,0.0,0.0,0.0,0.0,0.0,0.0,0.0,0.0,0.0,0.02,1.02,-0.11,11.62,17.2,57.9,1.5,0.0,0.0,0.75,2.75,1.25,0.5,0.75,0.0,1.5,1.0,0.25,1.25,-0.42,0.95,0.02,168.74,0.7,1.3
2.58,0.0,0.0,0.0,0.5,0.0,0.0,0.0,0.0,0.0,0.0,0.0,0.0,0.0,0.02,1.08,-0.17,11.55,17.2,57.9,1.25,0.75,0.0,0.75,2.75,1.0,0.5,0.75,0.0,1.75,1.0,0.25,1.5,-0.36,0.95,0.14,172.36,0.7,1.1
2.6,0.0,0.0,0.0,0.5,0.0,0.0,0.0,0.0,0.0,0.0,0.0,0.0,0.0,0.08,1.14,-0.11,10.46,17.2,57.9,1.25,0.75,0.0,0.75,2.5,1.0,0.5,0.75,0.0,1.5,1.0,0.25,1.75,-0.36,0.95,0.14,174.23,0.6,-0.8
2.62,0.0,0.0,0.0,0.5,0.0,0.0,0.0,0.0,0.0,0.0,0.0,0.0,0.0,0.02,1.14,-0.05,9.82,17.2,57.9,1.0,0.75,0.0,1.0,2.5,1.0,0.5,0.75,0.0,1.5,1.0,0.0,1.25,-0.42,1.02,0.14,173.71,0.5,5.7
2.64,0.0,0.0,0.0,0.5,0.0,0.0,0.0,0.0,0.0,0.0,0.0,0.0,0.0,-0.05,1.08,0.02,9.52,17.2,57.9,1.25,0.5,0.0,0.5,2.75,0.5,0.5,0.75,0.0,1.5,1.0,0.25,1.5,-0.42,1.02,0.14,169.69,0.1,-2.1
2.66,0.0,0.0,0.0,0.75,0.0,0.0,0.0,0.0,0.25,1.0,0.0,0.0,0.75,-0.05,1.02,0.08,22.14,-3.4,-44.3,1.25,0.5,0.0,0.75,2.75,1.0,0.5,0.75,0.0,1.5,1.0,0.0,1.25,-0.42,1.02,0.2,167.81,0.6,5.5
2.68,0.0,0.0,0.25,0.75,0.0,0.0,0.25,0.0,0.0,0.75,0.0,0.25,0.75,-0.05,1.02,0.02,33.94,2.4,-35.5,1.5,0.5,0.0,0.75,2.5,1.0,0.25,0.75,0.0,1.5,1.0,0.0,1.5,-0.48,0.95,0.2,167.11,0.4,3.3
2.7,0.0,0.0,0.0,0.5,0.0,0.0,0.0,0.0,0.0,0.25,0.0,0.0,0.25,-0.05,1.02,0.02,34.12,1.5,-16.3,1.0,0.75,0.0,0.75,2.75,1.0,0.5,0.75,0.0,1.5,1.0,0.0,1.5,-0.42,0.95,0.2,168.87,1.3,3.2
2.72,0.25,0.0,0.0,0.75,0.0,0.0,0.25,0.0,0.25,0.75,0.0,0.0,0.0,-0.05,0.95,0.02,36.32,7.8,2.5,1.25,0.5,0.0,1.25,2.75,1.25,0.25,0.75,0.0,1.5,1.0,0.0,1.25,-0.36,0.89,0.14,172.03,0.5,8.1
2.74,0.25,0.0,0.0,0.75,0.0,0.0,0.0,0.0,0.25,0.75,0.0,0.0,0.0,-0.05,0.95,0.02,35.35,6.4,1.0,1.5,0.5,0.0,0.75,3.0,1.0,0.5,0.75,0.0,1.5,1.0,0.0,1.25,-0.36,0.89,0.14,174.18,0.0,8.5
2.76,0.25,0.0,0.5,0.75,0.0,0.0,0.0,0.0,0.25,0.75,0.0,0.25,0.5,-0.05,0.95,0.02,42.2,8.4,-15.2,2.0,0.5,0.0,0.75,2.75,1.0,0.5,0.75,0.0,1.5,1.0,0.0,1.25,-0.36,0.83,0.14,177.22,-1.4,10.9
2.78,0.25,0.0,0.25,0.75,0.0,0.0,0.0,0.0,0.25,0.75,0.0,0.0,0.5,0.02,0.95,0.08,45.7,5.6,-13.8,1.75,0.5,0.0,0.75,3.0,1.0,0.5,0.75,0.0,1.5,1.0,0.25,1.5,-0.36,0.83,0.08,180.67,-0.5,5.4
2.8,0.25,0.0,0.25,0.75,0.0,0.0,0.25,0.0,0.25,1.0,0.0,0.0,0.25,0.02,0.95,0.08,50.81,6.6,-8.9,1.5,0.75,0.0,0.75,2.25,1.0,0.5,0.75,0.0,1.5,1.0,0.25,1.25,-0.36,0.83,0.14,178.44,-0.7,4.6
2.82,0.0,0.0,0.0,0.75,0.0,0.0,0.0,0.0,0.25,1.0,0.0,0.25,0.25,0.02,1.02,0.08,49.19,-0.1,-37.4,1.25,0.75,0.0,0.75,2.25,1.0,0.25,0.75,0.0,1.5,1.0,0.25,1.5,-0.36,0.83,0.08,174.93,0.6,-0.1
2.84,0.0,0.0,0.0,0.75,0.0,0.0,0.25,0.0,0.25,1.0,0.0,0.25,0.5,0.02,1.02,0.02,49.36,0.0,-41.2,1.25,0.5,0.0,0.75,3.0,1.0,0.25,0.75,0.0,1.5,1.5,0.0,1.25,-0.42,0.89,0.08,174.53,0.5,3.2
2.86,0.25,0.0,0.0,0.75,0.0,0.0,0.0,0.0,0.25,0.5,0.0,0.25,0.5,0.02,1.08,-0.05,46.05,4.7,-24.8,1.5,0.5,0.0,0.75,2.75,1.0,0.25,0.75,0.0,1.5,1.0,0.25,1.25,-0.42,0.89,0.08,174.08,0.0,4.7
2.88,0.25,0.0,0.0,0.75,0.0,0.0,0.25,1.75,0.25,1.0,0.0,0.0,0.5,0.08,1.08,-0.05,54.66,-5.0,-29.6,1.0,0.75,0.0,0.5,3.0,1.0,0.5,0.75,0.0,1.5,1.0,0.25,1.25,-0.42,0.89,0.08,173.48,1.2,3.3
2.9,0.0,0.0,0.0,0.75,0.0,0.0,0.25,1.75,0.25,1.0,0.0,0.0,0.75,0.08,1.08,-0.05,62.59,-7.5,-40.4,1.25,0.5,0.0,0.75,2.25,1.0,0.5,0.75,0.0,1.5,1.0,0.0,1.25,-0.42,0.89,0.2,168.54,0.4,2.9
2.92,0.0,0.0,0.25,0.75,0.0,0.0,0.25,1.75,0.25,0.75,0.0,0.0,0.75,0.08,1.08,0.02,71.94,-4.5,-32.9,1.5,0.5,0.0,0.75,2.25,1.0,0.5,0.75,0.0,1.5,1.25,0.25,1.5,-0.48,0.89,0.2,168.22,-0.3,-1.6
2.94,0.0,0.0,0.25,1.0,0.0,0.0,0.25,2.0,0.25,1.0,0.0,0.25,0.0,0.08,1.02,0.08,77.82,-2.5,-22.4,2.0,0.75,0.0,0.75,3.0,1.0,0.25,0.75,0.0,1.5,1.0,0.25,1.75,-0.48,0.95,0.2,175.06,-0.8,6.4
2.96,0.0,0.0,0.25,0.75,0.0,0.0,0.25,2.0,0.25,1.0,0.0,0.0,0.0,0.08,1.02,0.08,76.99,-4.3,-22.2,0.5,0.75,0.0,0.5,2.5,1.0,0.5,0.75,0.0,1.5,1.0,0.25,1.5,-0.48,0.95,0.2,171.52,3.0,-6.1
2.98,0.0,0.0,0.0,0.75,0.0,0.0,0.25,2.0,0.25,0.75,0.0,0.0,0.25,0.02,1.02,0.02,73.71,-6.8,-29.6,1.0,0.75,0.0,0.75,2.75,1.0,0.25,0.75,0.0,1.75,1.0,0.25,1.5,-0.48,0.95,0.2,173.59,1.7,-1.0
3.0,0.0,0.0,0.0,0.75,0.0,0.0,0.25,1.75,0.25,1.0,0.0,0.25,0.5,0.02,1.02,0.02,73.17,-6.3,-40.3,1.0,0.5,0.0,0.75,2.5,1.0,0.5,0.5,0.0,1.5,1.0,0.25,0.75,-0.48,0.89,0.2,165.49,0.0,6.1
3.02,0.0,0.0,0.0,0.75,0.0,0.0,0.0,1.75,0.25,1.0,0.0,0.0,0.25,0.02,0.95,0.02,71.07,-7.9,-33.5,1.25,0.5,0.0,0.75,2.75,1.0,0.25,0.75,0.0,1.25,0.75,0.25,1.75,-0.55,0.89,0.2,165.48,1.2,1.1
3.04,0.0,0.0,0.5,0.5,0.0,0.0,0.0,0.25,0.25,0.25,0.0,0.0,0.0,0.02,0.95,0.02,57.69,13.2,13.2,1.25,0.5,0.0,0.75,2.25,1.0,0.25,0.75,0.0,1.5,0.75,0.0,1.75,-0.48,0.89,0.2,161.81,1.6,-0.8
3.06,0.0,0.0,0.25,0.75,0.0,0.0,0.25,1.5,0.25,0.75,0.0,0.0,0.0,0.02,1.02,0.08,53.79,-1.8,-16.3,2.0,0.75,0.0,0.75,3.0,1.0,0.5,0.75,0.0,1.5,1.0,0.25,1.25,-0.48,0.89,0.2,171.78,-1.7,11.3
3.08,0.0,0.0,0.25,0.75,0.0,0.0,0.5,2.0,0.25,0.75,0.0,0.25,0.0,-0.05,1.02,0.02,54.85,-1.9,-22.8,0.5,0.75,0.0,0.75,2.75,1.0,0.25,0.75,0.0,1.5,1.0,0.25,1.5,-0.48,0.89,0.2,170.59,2.9,-3.4
3.1,0.0,0.0,0.25,1.0,0.0,0.0,0.25,2.0,0.25,0.75,0.0,0.0,0.25,-0.05,1.02,0.02,60.81,-3.0,-19.7,1.75,0.25,0.0,0.5,2.25,1.0,0.25,0.75,0.0,1.25,1.0,0.0,1.25,-0.48,0.89,0.14,167.43,-0.3,5.0
3.12,0.25,0.0,0.5,0.75,0.0,0.0,0.25,2.0,0.25,1.0,0.0,0.0,0.25,-0.05,1.08,0.02,67.54,-0.8,-17.0,1.25,0.5,0.0,0.75,1.75,1.0,0.5,0.75,0.0,1.5,1.0,0.0,1.25,-0.48,0.89,0.14,159.48,0.2,0.1
3.14,0.25,0.0,0.25,0.75,0.0,0.0,0.0,1.75,0.25,1.0,0.0,0.25,0.75,-0.05,1.08,0.02,75.3,-3.5,-34.1,1.25,0.5,0.0,0.75,2.75,1.0,0.25,0.75,0.0,1.25,1.25,0.25,1.25,-0.48,0.89,0.2,159.87,0.1,2.8
3.16,0.0,0.0,0.0,0.5,0.0,0.0,0.0,0.5,0.25,0.25,0.0,0.0,0.0,-0.05,1.08,0.02,60.27,-0.1,-11.4,1.25,0.5,0.0,0.75,2.25,1.0,0.5,0.75,0.0,1.5,1.0,0.25,1.25,-0.48,0.89,0.14,158.42,0.2,0.4
3.18,0.0,0.0,0.25,0.5,0.0,0.0,0.0,0.25,0.0,0.25,0.0,0.0,0.0,-0.05,1.08,0.02,43.2,8.3,13.6,1.25,1.0,0.0,0.75,2.75,1.0,0.25,0.75,0.0,1.5,1.0,0.25,1.25,-0.48,0.89,0.14,165.5,0.1,6.9
3.2,0.0,0.0,0.25,0.5,0.0,0.0,0.0,0.25,0.25,0.25,0.0,0.0,0.0,-0.05,1.08,0.02,28.44,9.0,5.1,1.25,0.75,0.0,0.75,2.75,1.0,0.25,0.75,0.0,1.5,1.0,0.25,1.25,-0.42,0.89,0.14,171.05,0.4,4.9
3.22,0.0,0.0,0.5,0.5,0.0,0.0,0.25,0.5,0.25,0.75,0.0,0.0,0.0,-0.05,1.08,0.02,26.85,5.8,-7.7,1.0,0.75,0.0,0.75,2.75,1.0,0.25,0.75,0.0,1.5,1.5,0.25,1.5,-0.42,0.89,0.14,175.23,0.9,-2.4
3.24,0.0,0.0,0.25,0.75,0.0,0.0,0.25,1.75,0.25,1.0,0.0,0.25,0.5,-0.05,1.02,0.02,40.96,-3.9,-35.0,2.0,0.75,0.0,0.75,2.75,1.0,0.5,0.75,0.0,1.5,1.0,0.25,1.5,-0.48,0.89,0.14,181.24,-1.5,7.9
3.26,0.0,0.0,0.25,0.75,0.0,0.0,0.25,1.75,0.25,1.0,0.0,0.25,0.5,0.02,1.02,0.02,58.05,-3.9,-35.0,1.75,0.75,0.0,0.75,2.25,1.0,0.5,0.75,0.0,1.5,1.0,0.25,1.25,-0.48,0.89,0.14,180.75,-1.4,6.4
3.28,0.0,0.0,0.25,0.75,0.0,0.0,0.25,1.75,0.25,1.0,0.0,0.25,0.75,0.02,1.02,0.02,72.21,-4.4,-38.7,1.25,0.5,0.0,0.75,3.0,1.0,0.25,0.75,0.0,1.5,1.0,0.25,1.25,-0.42,0.89,0.14,179.84,0.8,4.0
3.3,0.0,0.0,0.25,0.75,0.0,0.0,0.25,1.75,0.25,1.0,0.0,0.25,0.75,0.02,1.02,0.02,77.3,-4.4,-38.7,1.25,0.75,0.0,0.75,2.5,1.0,0.5,0.75,0.0,1.5,1.0,0.0,1.5,-0.42,0.89,0.14,176.1,0.5,3.8
3.32,0.0,0.0,0.5,0.75,0.0,0.0,0.25,1.25,0.25,1.0,0.0,0.25,0.5,0.02,1.02,0.02,77.8,-0.3,-29.3,2.0,0.75,0.0,0.75,2.75,1.0,0.25,0.75,0.0,1.0,1.0,0.0,1.25,-0.42,0.89,0.14,177.09,-2.1,16.4
3.34,0.0,0.0,0.5,0.75,0.0,0.0,0.25,1.75,0.25,1.0,0.0,0.0,0.75,0.02,1.02,0.02,79.22,-2.9,-30.3,1.25,0.5,0.0,0.75,2.75,1.0,0.25,0.75,0.0,1.0,1.0,0.25,1.5,-0.42,0.89,0.14,173.52,0.3,3.7
3.36,0.0,0.0,0.25,0.5,0.0,0.0,0.0,1.75,0.0,0.0,0.0,0.0,0.5,0.02,1.02,0.02,69.98,-5.7,-25.7,1.25,0.5,0.0,0.75,2.5,1.0,0.25,0.75,0.0,1.25,1.0,0.0,1.25,-0.42,0.89,0.14,168.44,0.5,5.9
3.38,0.0,0.0,0.25,0.75,0.0,0.0,0.0,0.5,0.25,1.0,0.0,0.5,0.75,0.02,1.02,0.02,69.09,-0.9,-45.0,2.0,0.75,0.0,0.5,2.25,1.0,0.25,0.75,0.0,1.25,0.75,0.25,1.5,-0.42,0.89,0.14,166.02,-1.2,7.8
3.4,0.25,0.0,0.25,0.75,0.0,0.0,0.0,1.75,0.25,1.0,0.0,0.5,0.5,0.02,1.02,0.02,73.59,-2.4,-34.0,0.5,0.75,0.0,0.75,3.0,1.0,0.25,0.75,0.0,1.0,1.0,0.25,1.25,-0.42,0.95,0.14,162.68,2.1,3.9
3.42,0.25,0.0,0.25,0.75,0.0,0.0,0.25,1.75,0.25,1.0,0.0,0.25,0.75,0.02,1.08,0.02,78.81,-2.7,-32.8,1.5,0.0,0.0,0.5,2.75,0.75,0.25,0.75,0.0,0.75,1.0,0.0,1.25,-0.42,0.95,0.14,155.2,-0.3,6.7
3.44,0.5,0.0,0.25,0.75,0.0,0.0,0.0,1.75,0.25,1.0,0.0,0.5,0.75,0.02,1.08,0.02,83.74,-1.4,-32.1,1.25,0.75,0.0,0.75,3.0,1.0,0.25,0.75,0.0,1.5,1.0,0.25,1.5,-0.48,0.95,0.14,160.87,0.7,3.6
3.46,0.25,0.0,0.5,0.75,0.0,0.0,0.0,1.5,0.25,1.0,0.0,0.25,0.5,0.02,1.08,0.02,82.86,-0.2,-25.2,1.0,0.5,0.0,0.75,2.5,1.0,0.25,0.75,0.0,1.25,1.0,0.0,1.5,-0.42,0.89,0.14,159.33,1.6,1.1
3.48,0.5,0.0,0.75,0.75,0.0,0.0,0.25,2.0,0.25,1.0,0.0,0.5,0.5,0.02,1.02,0.02,87.2,2.2,-20.6,1.25,0.75,0.0,0.75,2.75,1.0,0.25,0.75,0.0,1.5,1.0,0.25,1.5,-0.42,0.89,0.14,165.86,0.7,2.4
3.5,0.5,0.0,0.0,0.75,0.0,0.0,0.0,1.75,0.25,1.0,0.0,0.25,0.75,-0.05,1.02,0.02,85.56,-3.9,-32.9,1.0,0.75,0.0,0.75,2.75,1.0,0.25,0.75,0.0,1.0,1.0,0.25,1.25,-0.42,0.89,0.14,165.82,0.5,6.6
3.52,0.25,0.0,0.25,0.75,0.0,0.0,0.0,1.5,0.25,1.0,0.0,0.75,0.5,0.02,1.02,0.02,86.0,-1.2,-37.4,1.25,0.5,0.0,0.75,2.5,1.0,0.25,0.75,0.0,1.5,1.0,0.25,1.5,-0.42,0.89,0.14,168.14,0.9,-0.9
3.54,0.25,0.0,0.5,0.75,0.0,0.0,0.0,1.75,0.25,1.0,0.0,0.5,0.5,0.02,1.02,0.02,85.23,-0.5,-29.6,1.5,0.5,0.0,0.75,2.75,1.0,0.25,0.75,0.0,1.0,1.5,0.25,1.25,-0.42,0.89,0.14,168.75,-1.0,4.8
3.56,0.25,0.0,0.25,0.75,0.0,0.0,0.0,1.75,0.25,1.0,0.0,0.75,0.5,0.02,1.02,0.02,86.5,-1.9,-37.4,1.5,0.75,0.0,0.75,1.75,1.0,0.25,0.75,0.0,1.0,1.0,0.25,1.5,-0.42,0.89,0.14,165.91,-1.0,2.6
3.58,0.5,0.0,0.5,0.75,0.0,0.0,0.25,1.75,0.25,1.0,0.0,0.75,0.5,0.02,1.02,0.02,88.74,1.7,-26.9,1.25,0.5,0.0,0.75,2.75,1.0,0.25,0.75,0.0,1.0,1.0,0.25,1.25,-0.42,0.89,0.14,165.25,0.0,6.3
3.6,0.25,0.0,0.0,0.75,0.0,0.0,0.0,1.75,0.25,1.0,0.0,1.0,0.5,0.02,1.02,0.02,90.24,-3.3,-45.3,1.25,0.25,0.0,1.25,2.25,1.0,0.25,0.75,0.0,1.25,1.0,0.25,1.25,-0.42,0.89,0.14,163.06,-0.2,2.3
3.62,0.25,0.0,0.25,0.75,0.0,0.0,0.0,1.0,0.25,0.75,0.0,1.0,0.25,0.02,1.02,0.02,83.35,2.4,-35.0,1.25,0.5,0.0,0.75,2.75,1.0,0.25,0.75,0.0,0.75,1.0,0.25,1.25,-0.42,0.89,0.14,161.85,-0.3,8.3
3.64,0.5,0.0,0.25,0.75,0.0,0.0,0.0,1.25,0.25,1.0,0.0,0.75,0.5,0.02,1.02,0.02,79.73,1.0,-31.3,1.25,0.5,0.0,0.75,2.25,1.0,0.25,0.75,0.0,1.5,1.0,0.25,1.5,-0.42,0.89,0.14,162.0,0.9,-2.4
3.66,0.75,0.0,0.25,0.75,0.0,0.0,0.0,1.0,0.25,1.0,0.0,1.0,0.75,0.02,1.02,0.02,80.08,2.8,-32.6,0.75,0.75,0.0,0.75,2.5,1.0,0.25,0.75,0.0,1.5,1.0,0.25,1.25,-0.42,0.89,0.14,162.04,1.8,-0.2
3.68,0.25,0.0,0.25,0.75,0.0,0.0,0.0,0.75,0.25,1.0,0.0,0.75,0.75,0.02,1.08,0.02,78.19,0.4,-41.0,1.25,0.5,0.0,0.75,2.5,1.0,0.25,0.75,0.0,1.5,1.0,0.25,1.25,-0.42,0.89,0.14,161.85,0.6,1.5
3.7,0.25,0.0,0.5,0.75,0.0,0.0,0.0,0.5,0.25,1.0,0.0,0.75,0.75,0.02,1.02,0.02,76.54,3.4,-35.7,1.25,0.5,0.0,0.75,2.25,1.0,0.25,0.75,0.0,1.25,1.25,0.25,1.5,-0.42,0.89,0.14,162.91,0.3,-2.3
3.72,0.25,0.0,0.25,0.75,0.0,0.0,0.25,0.75,0.25,1.0,0.0,0.0,0.5,0.02,1.02,0.02,68.97,0.7,-21.3,1.5,0.5,0.0,0.75,2.5,1.0,0.25,0.75,0.0,1.5,1.0,0.25,1.25,-0.42,0.89,0.14,164.69,0.0,3.4
3.74,0.25,0.0,0.25,0.5,0.0,0.0,0.0,0.0,0.0,0.5,0.0,0.0,0.0,0.02,1.02,0.02,51.66,12.6,20.5,1.0,0.75,0.0,0.75,2.5,1.0,0.25,0.75,0.0,1.25,1.0,0.25,1.25,-0.42,0.89,0.14,164.77,0.7,3.5
3.76,0.25,0.0,0.25,0.5,0.0,0.0,0.0,0.25,0.25,0.25,0.0,0.0,0.0,0.02,1.02,0.02,36.08,12.4,17.4,1.5,0.5,0.0,0.75,2.25,1.0,0.25,0.75,0.0,1.5,0.75,0.25,1.25,-0.42,0.89,0.14,164.01,0.0,3.9
3.78,0.5,0.0,0.5,0.75,0.0,0.0,0.25,0.25,0.0,0.0,0.0,0.0,0.0,0.02,1.02,0.02,27.53,23.0,54.3,1.25,0.25,0.0,0.75,2.5,1.0,0.25,1.0,0.0,1.25,2.0,0.25,1.25,-0.42,0.89,0.14,166.64,0.0,-6.0
3.8,0.25,0.0,0.5,0.5,0.0,0.0,0.0,0.25,0.25,0.0,0.0,0.0,0.0,0.02,1.02,0.08,22.57,20.1,36.9,1.25,0.5,0.0,0.75,3.0,1.0,0.5,0.75,0.0,1.0,1.0,0.0,1.25,-0.42,0.89,0.14,167.93,0.0,10.4
3.82,0.25,0.0,0.25,0.5,0.0,0.0,0.0,0.25,0.25,0.0,0.0,0.0,0.0,0.02,1.02,0.02,19.15,17.1,32.8,1.25,0.5,0.0,0.75,1.75,1.0,0.25,0.5,0.0,1.25,1.5,0.0,1.5,-0.42,0.89,0.14,163.38,-0.2,-3.7
3.84,0.25,0.0,0.25,0.5,0.0,0.0,0.0,0.0,0.0,0.0,0.0,0.0,0.0,0.02,1.02,0.02,15.24,26.6,67.8,1.25,0.5,0.0,0.75,2.5,1.0,0.25,0.75,0.0,1.25,1.5,0.25,1.0,-0.42,0.89,0.14,162.98,-0.4,2.4
3.86,0.25,0.0,0.25,0.5,0.0,0.0,0.0,0.25,0.25,0.0,0.0,0.0,0.0,0.02,1.02,0.02,14.25,17.1,32.8,1.5,0.5,0.0,0.75,2.5,1.0,0.25,0.75,0.0,1.5,1.0,0.25,1.25,-0.42,0.95,0.14,163.93,0.0,3.4
3.88,0.25,0.0,0.25,0.5,0.0,0.0,0.0,0.25,0.25,0.0,0.0,0.0,0.0,0.02,1.02,0.02,13.02,17.1,32.8,1.5,0.5,0.0,0.75,2.25,1.0,0.25,0.75,0.0,1.5,1.0,0.25,1.25,-0.42,0.95,0.14,164.6,-0.1,2.1
3.9,0.25,0.0,0.25,0.5,0.0,0.0,0.0,0.0,0.0,0.0,0.0,0.0,0.0,0.02,1.02,0.02,12.56,26.6,67.8,1.25,0.75,0.0,0.75,2.25,1.0,0.25,0.75,0.0,1.0,1.0,0.0,1.25,-0.42,0.89,0.14,162.33,-0.2,8.8
3.92,0.25,0.0,0.25,0.5,0.0,0.0,0.0,0.25,0.0,0.0,0.0,0.0,0.0,0.02,1.02,0.02,14.44,18.0,46.8,1.5,0.5,0.0,0.75,1.5,1.0,0.25,0.75,0.0,1.25,1.5,0.25,1.25,-0.42,0.89,0.14,159.24,-1.2,-3.7
3.94,0.25,0.0,0.25,0.5,0.0,0.0,0.0,0.0,0.0,0.0,0.0,0.0,0.0,0.02,1.02,0.08,14.6,26.6,67.8,2.0,0.75,0.0,0.75,1.75,1.0,0.5,0.75,0.0,0.75,1.0,0.0,1.75,-0.42,0.89,0.14,158.76,-2.7,8.7
3.96,0.25,0.0,0.0,0.5,0.0,0.0,0.0,0.0,0.0,0.0,0.0,0.0,0.0,0.02,1.02,0.02,14.2,22.6,70.2,1.25,0.25,0.0,1.0,2.25,1.0,0.5,0.75,0.0,1.25,1.0,0.25,1.25,-0.42,0.89,0.14,158.02,-0.2,1.2
3.98,0.0,0.0,0.25,0.5,0.0,0.0,0.0,0.0,0.0,0.0,0.0,0.0,0.0,0.02,1.02,0.02,13.57,24.1,58.9,1.5,1.0,0.0,0.75,2.25,1.0,0.25,0.75,0.0,1.25,0.75,0.0,1.25,-0.42,0.89,0.14,160.54,-0.6,12.8
4.0,0.0,0.0,0.0,0.5,0.0,0.0,0.0,0.0,0.0,0.0,0.0,0.0,0.0,0.02,1.02,0.02,10.3,17.2,57.9,1.25,0.5,0.0,0.75,2.25,1.0,0.25,0.75,0.0,0.75,1.0,0.0,1.5,-0.42,0.89,0.14,157.87,0.0,5.6
4.02,0.0,0.0,0.0,0.5,0.0,0.0,0.0,0.0,0.0,0.0,0.0,0.0,0.0,0.02,1.02,0.02,8.02,17.2,57.9,1.25,0.75,0.0,0.75,2.25,1.0,0.25,0.75,0.0,1.5,1.25,0.0,1.5,-0.42,0.89,0.14,160.69,0.5,0.6
