time,left pressure 0[N/cm²],left pressure 1[N/cm²],left pressure 2[N/cm²],left pressure 3[N/cm²],left pressure 4[N/cm²],left pressure 5[N/cm²],left pressure 6[N/cm²],left pressure 7[N/cm²],left pressure 8[N/cm²],left pressure 9[N/cm²],left pressure 10[N/cm²],left pressure 11[N/cm²],left pressure 12[N/cm²],left acceleration X[g],left acceleration Y[g],left acceleration Z[g],left total force[N],left center of pressure X[mm],left center of pressure Y[mm],right pressure 0[N/cm²],right pressure 1[N/cm²],right pressure 2[N/cm²],right pressure 3[N/cm²],right pressure 4[N/cm²],right pressure 5[N/cm²],right pressure 6[N/cm²],right pressure 7[N/cm²],right pressure 8[N/cm²],right pressure 9[N/cm²],right pressure 10[N/cm²],right pressure 11[N/cm²],right pressure 12[N/cm²],right acceleration X[g],right acceleration Y[g],right acceleration Z[g],right total force[N],right center of pressure X[mm],right center of pressure Y[mm]
0.02,0.0,0.0,0.0,2.5,0.0,0.0,0.25,1.0,0.25,1.0,0.0,1.0,0.5,-0.67,-1.11,1.45,0.0,3.2,-20.7,2.0,0.75,2.75,3.75,6.25,5.5,1.25,8.0,2.25,7.75,7.5,3.5,6.0,0.27,0.08,0.95,1028.01,1.3,-23.5
0.04,0.0,0.0,1.0,2.0,0.0,0.0,0.25,1.75,0.25,1.25,0.0,1.0,0.5,-0.8,-0.92,0.64,0.0,4.3,-18.7,2.0,1.0,2.75,3.75,6.25,5.5,1.25,7.75,2.25,7.25,6.25,3.0,5.5,0.27,0.14,0.95,963.8,1.3,-19.6
0.06,0.0,0.0,0.0,2.0,0.0,0.0,0.25,1.75,0.25,1.0,0.0,1.0,0.5,-0.61,-0.8,0.58,0.0,0.0,-28.8,2.0,1.5,2.75,3.75,6.25,6.0,1.25,7.75,1.75,6.75,5.25,2.25,4.5,0.27,0.14,0.95,881.2,1.4,-13.1
0.08,0.0,0.0,1.25,1.75,0.0,0.0,0.0,0.75,0.25,0.75,0.0,1.0,0.5,-0.48,-0.67,0.77,5.26,9.6,-11.9,2.25,1.5,2.75,4.5,6.5,6.5,1.25,7.5,1.5,5.75,4.5,1.5,3.75,0.27,0.14,0.95,816.54,1.0,-5.3
0.1,0.0,0.0,0.0,1.75,0.0,0.0,0.0,0.0,0.25,1.0,0.0,0.5,0.5,-0.55,-0.55,0.95,5.96,3.9,-22.0,2.5,1.5,2.75,5.0,7.25,6.5,1.25,7.25,1.5,5.75,3.25,1.0,3.5,0.27,0.14,0.95,765.17,1.0,0.3
0.12,0.0,0.0,0.0,1.25,0.0,0.0,0.0,0.0,0.25,0.75,0.0,1.0,0.25,-0.48,-0.3,0.95,17.05,5.3,-35.9,2.5,1.5,3.5,5.75,7.5,6.75,1.25,7.0,1.25,4.75,3.0,1.25,3.0,0.27,0.14,0.95,726.96,-0.2,5.5
0.14,0.0,0.0,0.0,1.25,0.0,0.0,0.0,0.0,0.25,1.0,0.0,0.5,0.25,-0.48,-0.05,0.95,25.19,3.2,-27.8,2.75,1.5,3.5,6.0,8.0,7.0,1.25,7.0,1.0,4.0,2.25,1.0,2.5,0.27,0.14,0.95,704.04,-0.4,11.5
0.16,0.0,0.0,0.0,1.0,0.0,0.0,0.25,0.0,0.25,0.75,0.0,0.75,0.25,-0.42,0.14,1.14,36.52,5.1,-35.4,3.75,2.5,5.0,7.5,8.0,7.0,1.25,6.5,1.0,3.5,2.25,0.75,2.5,0.27,0.14,0.95,724.8,-3.2,19.6
0.18,0.0,0.0,0.0,1.0,0.0,0.0,0.25,0.0,0.25,0.75,0.0,0.75,0.5,-0.48,0.2,1.39,44.61,3.7,-41.0,5.0,2.5,6.5,8.75,8.5,7.25,1.25,6.25,1.0,3.25,2.0,0.5,2.5,0.2,0.14,0.95,778.85,-5.1,25.3
0.2,0.0,0.0,0.0,1.0,0.0,0.0,0.25,0.0,0.25,0.75,0.0,0.75,0.25,-0.55,0.33,1.89,43.24,5.1,-35.4,5.75,3.25,8.0,9.5,9.0,7.0,1.25,5.5,0.75,2.25,1.25,0.75,2.25,0.2,0.14,1.02,851.77,-7.3,33.0
0.22,0.0,0.0,0.0,0.5,0.0,0.0,0.25,0.0,0.25,0.75,0.0,0.5,0.25,-0.73,0.52,2.27,34.13,2.0,-48.2,6.75,1.75,8.75,9.25,9.25,6.0,1.25,4.5,0.25,1.0,1.0,0.25,2.0,0.2,0.2,1.08,882.43,-9.5,39.8
0.24,0.0,0.0,0.0,0.5,0.0,0.0,0.0,0.0,0.25,0.75,0.0,0.75,0.25,-0.86,1.27,2.58,30.48,1.3,-57.8,6.5,2.25,8.75,9.5,8.5,5.5,0.5,3.0,0.25,0.25,0.0,0.0,0.75,0.14,0.2,1.14,857.82,-11.7,51.8
0.26,0.0,0.0,0.0,0.75,0.0,0.0,0.25,0.0,0.25,0.75,0.0,0.5,0.25,-0.55,2.2,2.52,30.95,3.5,-37.7,7.5,3.25,9.25,9.5,8.5,3.75,1.0,2.75,0.0,0.0,0.0,0.0,0.5,0.14,0.2,1.2,821.52,-14.3,56.8
0.28,0.0,0.0,0.0,0.5,0.0,0.0,0.25,0.0,0.25,0.75,0.0,0.75,0.5,-0.3,3.2,2.27,33.14,1.2,-58.9,7.5,3.75,10.0,9.75,8.5,3.0,0.25,1.75,0.0,0.25,1.0,0.0,1.25,0.14,0.27,1.2,798.92,-15.0,53.9
0.3,0.0,0.0,0.0,0.75,0.0,0.0,0.0,0.25,0.25,1.0,0.0,0.75,0.25,0.2,4.2,1.2,39.7,0.0,-48.5,8.75,5.0,10.5,11.5,8.0,3.5,0.5,1.5,0.25,1.5,0.0,0.0,0.75,0.08,0.27,1.2,828.44,-15.4,56.8
0.32,0.0,0.0,0.0,0.75,0.0,0.0,0.25,1.5,0.0,0.0,0.0,0.5,0.25,0.89,5.52,0.58,44.2,-2.1,-29.2,9.0,5.25,11.5,11.0,9.0,3.5,0.75,1.5,0.25,1.0,1.0,0.5,1.0,0.08,0.33,1.2,889.0,-15.5,53.8
0.34,0.0,0.0,0.25,0.0,0.0,0.0,0.0,1.25,0.75,0.0,0.0,0.0,0.0,-0.17,-0.05,1.89,42.89,-0.9,-27.3,8.5,4.75,11.0,11.0,8.0,3.5,1.0,1.25,0.25,1.0,1.0,0.25,1.25,0.08,0.33,1.39,923.31,-15.6,53.3
0.36,0.0,0.0,1.0,0.25,0.0,0.0,0.0,1.75,0.5,4.25,0.0,4.5,5.25,0.14,0.27,0.95,128.37,-4.5,-80.1,8.0,3.5,9.25,8.0,7.75,3.5,1.25,1.25,0.25,1.0,0.25,0.25,1.5,0.27,0.52,1.7,877.74,-14.6,52.0
0.38,0.0,0.0,1.25,0.75,0.0,0.0,0.0,3.25,1.0,6.5,0.0,5.5,6.25,-0.48,0.45,2.52,230.01,-4.9,-74.4,5.75,1.25,7.25,4.25,5.75,2.75,1.25,1.5,0.25,2.0,0.75,0.25,1.25,0.27,1.33,2.89,725.99,-12.8,40.2
0.4,0.0,0.0,0.0,1.0,0.0,0.0,0.0,4.75,1.0,7.25,6.0,0.0,6.25,-0.36,0.52,2.2,318.59,-7.1,-70.5,2.5,0.75,3.0,1.0,0.0,2.0,0.75,0.5,0.0,0.0,1.0,0.0,0.5,0.27,1.64,2.95,445.72,-16.6,41.7
0.42,0.0,0.0,0.0,0.0,0.0,0.25,0.0,5.75,2.5,7.25,6.0,5.5,6.75,-0.11,0.08,1.14,433.7,-4.9,-78.4,1.25,0.0,2.0,1.0,0.5,0.75,0.25,1.0,0.0,0.25,0.0,0.25,0.5,0.02,0.14,2.77,252.92,-12.7,28.2
0.44,0.0,0.0,1.0,0.5,0.0,0.25,0.5,6.5,3.25,7.75,7.25,5.5,6.5,-0.17,0.02,1.02,555.22,-2.7,-70.3,0.25,0.0,0.75,0.0,0.0,0.0,0.0,1.25,0.0,0.0,0.0,0.0,1.25,0.58,-0.48,2.45,88.77,0.2,-33.8
0.46,0.0,0.0,0.0,1.25,0.0,0.5,0.5,6.75,4.0,8.0,7.5,5.75,6.5,-0.17,0.02,0.95,653.1,-3.3,-70.1,0.0,0.0,0.0,0.0,0.0,0.75,0.0,1.25,0.0,0.0,0.0,0.0,0.5,0.33,-1.17,3.27,0.0,17.9,-32.7
0.48,0.5,0.0,2.5,2.5,0.0,0.75,0.75,7.0,4.25,7.5,7.5,5.5,6.25,-0.17,-0.05,0.95,732.17,0.2,-55.3,1.25,0.75,0.5,1.0,2.75,1.25,0.75,1.5,0.25,1.5,1.0,0.0,1.25,0.27,-1.05,2.08,0.0,-0.6,7.8
0.5,1.0,0.75,3.0,2.75,0.0,1.5,1.0,7.0,4.5,7.25,7.25,5.25,6.25,-0.17,-0.05,1.02,794.11,1.0,-47.2,1.25,0.75,0.0,1.0,2.75,1.0,0.25,1.5,0.25,1.5,1.0,0.0,1.25,0.39,-0.8,0.77,0.0,0.9,4.8
0.52,1.0,1.0,4.25,2.75,0.0,1.5,1.0,7.0,4.25,6.5,6.75,4.75,5.5,-0.17,-0.05,0.95,809.74,2.4,-40.8,1.25,0.75,0.5,1.0,3.25,1.0,0.25,1.25,0.25,1.5,1.0,0.0,1.25,0.39,-0.61,0.7,40.06,-0.6,9.8
0.54,2.5,1.0,4.5,3.25,0.0,1.75,1.0,6.75,4.0,5.75,6.0,4.25,4.25,-0.17,-0.05,0.95,785.37,4.3,-30.4,1.25,0.75,0.5,1.25,3.5,1.0,0.5,1.25,0.25,1.5,1.0,0.0,1.5,0.2,-0.42,0.7,72.48,-0.9,9.6
0.56,2.75,1.0,5.0,4.25,0.75,2.0,1.0,6.5,3.5,5.25,4.75,3.25,3.25,-0.17,0.02,0.95,739.67,5.3,-18.7,1.25,0.75,0.25,1.0,2.75,1.0,0.5,1.25,0.25,1.5,1.0,0.0,1.25,0.2,-0.3,0.83,99.87,-0.4,7.0
0.58,3.5,1.0,5.75,4.5,0.0,2.0,1.0,6.0,2.75,4.25,3.25,2.5,2.25,-0.17,0.02,0.95,664.15,7.7,-7.5,1.25,0.75,1.0,1.0,3.5,1.0,0.25,1.25,0.25,1.25,1.0,0.0,0.75,0.2,-0.11,0.95,129.66,-2.8,18.8
0.6,4.25,1.0,6.5,4.5,0.0,2.0,1.0,5.5,2.25,3.0,2.5,2.0,1.75,-0.17,0.02,0.95,581.41,10.3,3.4,1.25,0.75,0.25,1.0,3.5,1.0,0.25,1.25,0.25,0.75,1.0,0.0,0.75,0.08,0.02,1.02,156.13,-1.4,19.9
0.62,5.0,1.0,6.75,5.25,0.0,1.75,1.0,5.0,1.75,2.75,1.5,1.75,1.5,-0.17,0.02,0.95,522.84,12.1,12.5,1.25,0.75,0.25,1.0,3.5,1.0,0.25,1.25,0.25,1.25,1.0,0.25,1.25,0.08,0.14,1.14,187.89,-0.3,9.2
0.64,6.0,1.25,7.25,6.5,0.0,1.75,1.0,4.75,1.5,2.5,1.0,1.0,1.0,-0.17,0.08,0.95,492.32,14.1,24.8,0.0,0.0,0.25,0.0,3.25,1.0,1.0,1.5,0.25,1.5,1.0,0.0,0.75,0.08,0.27,1.33,193.15,5.2,-7.3
0.66,6.5,1.75,7.25,7.0,0.0,1.5,1.0,4.5,1.0,2.25,0.5,1.25,0.75,-0.17,0.08,0.95,471.58,15.4,30.8,1.25,0.75,0.5,1.0,2.75,1.0,0.75,1.25,0.25,1.5,1.0,0.0,1.25,0.14,0.33,1.83,197.55,-1.4,8.2
0.68,7.0,2.5,8.0,8.0,0.0,1.5,1.0,3.75,1.0,1.75,0.0,1.0,0.5,-0.17,0.08,1.02,475.27,17.6,41.0,0.0,0.0,0.0,0.0,3.25,0.0,0.75,0.0,0.0,0.0,0.0,0.0,0.5,0.33,0.83,1.95,157.89,1.6,33.3
0.7,7.5,2.5,8.25,8.0,0.0,1.5,0.5,3.5,0.75,1.5,0.0,1.0,0.5,-0.17,0.14,1.02,482.24,18.4,43.9,0.0,0.0,0.0,0.0,0.0,0.0,0.25,0.0,0.0,0.0,0.0,0.0,0.0,0.39,1.2,2.52,95.56,-32.4,27.3
0.72,8.0,3.0,8.75,8.75,0.0,1.5,0.5,2.75,0.75,1.25,0.0,1.0,0.5,-0.17,0.14,0.95,499.67,19.7,48.4,0.0,0.0,0.0,0.0,0.0,0.0,0.0,0.0,0.0,0.0,0.0,0.0,0.0,0.45,1.64,2.83,25.2,0.0,0.0
0.74,8.5,3.75,8.75,9.0,0.0,1.5,0.25,3.0,0.5,1.0,0.25,1.0,0.5,-0.17,0.14,1.02,525.44,19.7,50.2,0.0,0.0,0.0,0.0,0.0,0.0,0.0,0.25,0.0,0.0,0.0,0.0,0.25,0.27,2.08,2.33,0.0,15.2,-74.8
0.76,8.5,3.75,9.0,9.25,0.0,1.5,0.25,2.0,0.5,1.0,0.0,1.0,0.5,-0.17,0.2,1.02,548.73,20.8,53.6,0.0,0.0,0.0,0.0,0.0,0.0,0.0,0.0,0.0,0.0,0.0,0.0,0.0,0.2,3.14,1.08,0.0,0.0,0.0
0.78,0.0,4.25,8.25,10.0,0.0,1.5,0.25,2.5,0.5,1.0,0.0,1.0,0.75,-0.23,0.2,1.02,517.95,15.6,39.9,1.25,0.75,0.25,1.0,2.75,1.0,0.25,1.25,0.25,0.0,1.0,0.0,1.25,-0.05,4.02,-0.05,23.71,-2.2,17.8
0.8,8.75,5.0,9.0,10.5,0.0,1.25,0.5,2.5,0.5,1.0,0.0,1.0,0.5,-0.23,0.2,1.02,551.58,20.3,54.3,0.0,0.0,0.0,0.0,0.5,0.0,0.0,0.0,0.0,0.0,0.0,0.0,0.0,-1.8,5.58,0.08,23.41,3.3,53.4
0.82,9.0,5.0,9.25,10.5,0.0,1.0,0.0,2.0,0.25,1.0,0.0,1.0,0.25,-0.23,0.27,1.08,575.76,21.5,57.7,0.0,0.0,0.0,0.0,0.25,1.25,0.0,0.0,0.25,1.0,0.0,0.25,0.0,-1.8,4.58,0.45,33.89,12.9,-19.1
0.84,9.5,5.0,0.0,10.5,0.0,0.0,0.0,2.0,0.25,1.0,0.0,1.0,0.5,-0.23,0.27,1.08,545.27,17.4,56.6,0.0,0.0,0.0,0.0,0.0,0.0,0.0,0.0,0.0,1.75,0.25,1.25,1.25,0.64,0.2,0.2,36.75,6.9,-94.7
0.86,9.25,5.0,8.75,10.0,0.0,0.0,0.0,1.75,0.25,1.0,0.0,1.0,0.5,-0.23,0.33,1.14,552.35,22.5,58.0,1.25,0.75,0.5,1.0,0.0,1.25,0.0,0.0,0.25,7.5,2.25,6.0,6.0,0.2,-0.17,0.52,167.73,2.3,-65.4
0.88,9.0,0.0,8.0,9.0,0.0,0.0,0.0,0.5,0.25,1.0,0.0,1.0,0.0,-0.36,0.39,1.2,497.4,26.3,57.5,1.25,0.5,0.0,0.0,1.75,1.25,0.5,1.5,0.75,8.5,6.25,6.5,9.25,-0.17,0.77,3.02,313.16,3.5,-69.1
0.9,8.0,0.0,7.25,8.0,0.0,0.0,0.0,1.5,0.25,0.75,0.0,0.25,0.25,-0.48,0.52,1.52,442.3,24.9,56.6,0.0,0.0,0.0,1.0,1.25,3.25,0.0,5.25,1.75,9.5,7.75,6.0,8.0,0.33,0.58,2.33,518.39,5.7,-65.6
0.92,6.25,0.0,0.0,6.5,0.0,0.0,0.25,0.0,0.25,1.0,0.0,0.5,0.5,-0.73,0.77,1.95,331.62,20.6,51.4,1.25,0.75,0.0,1.0,4.5,3.5,0.0,7.0,3.0,9.75,9.5,6.0,8.0,0.27,0.39,1.39,756.18,4.0,-50.0
0.94,3.5,0.0,0.0,4.25,0.0,0.0,0.25,0.0,0.25,0.75,0.0,0.0,0.0,-1.05,1.45,2.58,241.06,21.0,58.2,2.25,0.75,1.5,2.5,3.75,4.0,1.25,7.75,3.25,9.5,9.75,5.75,7.5,0.2,0.14,1.02,944.87,1.4,-41.0
0.96,2.0,0.0,3.5,2.75,0.0,0.0,0.0,0.0,0.25,0.75,0.0,0.0,0.0,-0.42,0.77,3.02,154.05,26.1,53.8,3.0,1.25,3.0,3.25,4.75,4.0,1.5,8.25,3.75,9.25,9.5,5.25,6.75,0.2,0.14,0.95,1077.6,-0.3,-31.0
0.98,0.0,0.0,0.75,1.75,0.0,0.0,0.0,0.0,0.0,1.0,0.0,0.0,0.0,-0.67,0.02,2.33,65.02,12.5,21.5,3.75,1.5,5.25,3.75,5.5,5.5,1.75,8.25,4.0,8.5,9.0,4.75,6.0,0.27,0.14,0.95,1181.04,-1.9,-20.5
1.0,0.0,0.0,0.0,1.0,0.0,0.0,0.0,1.5,0.0,0.75,0.0,0.0,0.25,-0.98,-0.55,1.77,5.77,-6.3,-23.1,4.0,1.75,5.75,4.25,6.0,5.5,1.75,8.25,3.5,8.0,8.5,4.0,5.5,0.27,0.14,1.02,1246.71,-2.5,-15.0
1.02,0.0,0.0,0.0,0.5,0.0,0.0,0.0,0.0,0.0,0.0,0.0,0.0,0.0,-0.55,-1.11,2.89,0.0,17.2,57.9,5.0,2.5,6.75,5.75,6.0,5.75,1.75,7.75,3.0,6.75,7.5,3.0,4.25,0.27,0.08,0.95,1271.78,-4.4,-3.3
1.04,0.0,0.0,0.0,0.0,0.0,0.0,0.0,0.0,0.0,0.0,0.0,0.0,0.0,-0.17,-0.73,1.39,0.0,0.0,0.0,5.5,2.5,7.75,5.75,6.25,5.25,1.5,7.0,2.25,6.0,6.25,1.5,3.5,0.2,0.14,0.95,1251.17,-5.7,5.6
1.06,0.0,0.0,0.0,0.5,0.0,0.0,0.0,0.0,3.0,0.0,0.0,0.0,0.5,-0.48,-0.48,0.33,0.0,9.5,-35.1,5.75,2.5,8.0,6.0,6.5,5.25,1.25,6.25,2.25,4.25,5.25,1.5,2.5,0.2,0.14,0.95,1172.19,-7.1,13.1
1.08,0.0,0.0,0.0,0.5,0.0,0.0,0.25,0.0,0.25,0.5,0.0,0.0,0.25,-0.36,-0.42,0.27,0.0,2.7,-25.4,6.0,1.75,8.75,7.0,6.5,5.0,1.25,5.75,1.75,3.5,4.25,1.25,2.25,0.2,0.14,0.89,1067.53,-8.5,18.5
1.1,0.0,0.0,0.0,1.25,0.0,0.0,0.25,0.0,0.25,0.75,0.0,0.5,0.0,-0.17,-0.3,0.64,0.0,7.5,-14.2,6.5,2.5,8.75,7.5,6.5,4.5,1.25,5.25,1.75,3.0,3.25,0.5,2.25,0.2,0.14,0.95,964.72,-9.5,25.5
1.12,0.0,0.0,0.0,1.25,0.0,0.0,0.0,0.0,0.25,0.75,0.0,0.5,0.25,0.08,-0.3,0.89,0.0,4.7,-23.9,7.0,2.5,9.25,7.5,6.75,4.5,1.25,5.0,1.5,3.0,2.75,0.5,2.25,0.14,0.14,0.95,905.93,-10.0,28.1
1.14,0.0,0.0,0.0,1.25,0.0,0.0,0.0,0.0,0.25,0.75,0.0,0.5,0.5,0.2,0.08,1.02,2.49,3.3,-30.5,7.0,2.75,9.25,7.5,7.0,4.0,1.25,4.25,1.25,2.25,2.5,0.75,1.5,0.14,0.14,0.95,857.84,-11.4,33.2
1.16,0.0,0.0,0.0,1.25,0.0,0.0,0.0,0.0,2.75,1.75,0.0,0.0,0.25,0.14,0.52,0.95,39.31,4.0,-31.3,7.5,2.75,9.5,7.75,7.0,4.0,1.25,4.25,1.0,1.75,2.25,0.75,1.75,0.14,0.14,0.95,827.12,-11.9,35.2
1.18,0.25,0.0,0.0,1.0,0.0,0.0,0.0,0.0,0.25,0.75,0.0,0.0,0.25,0.14,0.7,1.02,48.31,5.4,-4.3,7.75,3.0,10.0,7.75,7.0,3.75,1.25,4.25,1.0,2.5,2.25,0.5,1.75,0.14,0.14,0.95,817.96,-12.0,35.2
1.2,0.25,0.0,0.0,1.0,0.0,0.0,0.0,0.0,0.25,0.75,0.0,0.0,0.5,0.14,0.95,1.2,51.92,3.7,-14.0,8.0,3.0,10.5,7.75,7.25,3.75,1.25,4.25,1.0,3.0,2.25,0.25,1.5,0.14,0.14,0.95,826.56,-12.2,36.1
1.22,0.0,0.0,0.0,1.0,0.0,0.0,0.0,0.0,0.25,0.75,0.0,0.0,0.5,0.27,1.27,1.33,49.6,0.8,-24.2,8.25,3.25,10.5,9.0,7.25,3.5,1.25,4.0,1.0,2.0,2.0,0.5,1.5,0.14,0.14,0.95,843.19,-13.2,39.4
1.24,0.0,0.0,0.0,0.5,0.0,0.0,0.0,0.0,0.0,0.75,0.0,0.0,0.5,0.27,1.58,1.45,42.78,-5.4,-46.3,8.25,3.5,11.5,9.25,7.25,3.5,1.25,3.5,1.0,0.5,2.0,0.5,1.5,0.08,0.14,0.95,863.65,-14.8,44.1
1.26,0.0,0.0,0.0,0.75,0.0,0.0,0.25,0.0,0.25,0.75,0.0,0.0,0.25,-0.05,2.08,1.45,37.7,2.3,-21.1,8.75,3.25,11.5,9.25,7.25,3.5,1.25,3.0,1.0,1.75,1.5,0.5,1.5,0.08,0.14,0.95,882.81,-14.6,43.4
1.28,0.0,0.0,0.0,0.5,0.0,0.0,0.0,0.0,0.25,0.75,0.0,0.25,0.5,-0.23,2.33,1.27,35.38,-2.0,-52.4,8.25,3.5,10.5,9.25,6.25,3.25,1.0,3.0,1.0,0.75,1.25,0.25,1.5,0.08,0.2,0.95,867.67,-15.1,46.4
1.3,0.0,0.0,0.0,0.5,0.0,0.0,0.0,0.0,0.25,0.75,0.0,0.0,0.25,-0.3,2.58,0.95,30.07,-1.8,-36.0,9.0,2.5,11.0,9.25,6.5,3.5,1.25,3.0,1.0,1.75,1.0,0.5,1.5,0.08,0.14,0.95,861.71,-14.8,43.6
1.32,0.0,0.0,0.0,0.5,0.0,0.0,0.25,0.0,0.25,0.75,0.0,0.25,0.5,-0.3,2.7,0.77,32.13,-0.3,-48.4,8.5,2.5,10.5,8.5,6.75,2.0,1.0,2.75,0.25,1.0,0.25,0.25,0.75,0.02,0.14,0.95,808.1,-16.6,52.1
1.34,0.0,0.0,0.0,0.5,0.0,0.0,0.0,0.0,0.5,1.75,0.0,0.5,0.5,-0.42,2.52,0.45,40.55,-3.9,-61.3,8.5,2.25,11.0,7.5,7.0,1.75,1.0,2.5,0.0,0.25,0.0,0.0,0.5,0.08,0.2,1.08,750.42,-18.0,57.8
1.36,0.75,0.0,0.0,2.75,0.0,0.0,3.0,0.0,2.25,1.5,0.0,0.75,1.0,-2.73,3.95,-0.55,83.61,11.0,-11.3,8.5,1.75,9.75,7.5,6.25,2.0,0.25,1.5,0.25,1.5,0.0,0.0,0.0,0.08,0.2,1.2,677.26,-17.7,57.2
1.38,0.0,0.0,0.0,0.5,0.0,0.0,2.25,0.0,0.25,0.75,0.0,0.25,0.5,0.02,1.14,0.89,84.8,9.0,-26.8,8.25,1.5,9.25,7.5,7.5,1.0,0.0,1.75,0.0,0.0,1.0,0.0,0.5,0.08,0.2,1.27,625.26,-18.0,56.7
1.4,0.0,0.0,0.0,0.75,0.0,0.0,0.0,0.0,0.25,0.75,0.0,0.0,0.5,0.33,1.77,0.77,78.21,-1.0,-33.6,8.75,2.5,9.25,6.0,6.25,0.5,0.25,1.25,0.0,0.25,0.0,0.0,0.0,0.08,0.2,1.39,565.21,-20.4,65.1
1.42,0.0,0.0,0.0,0.5,0.0,0.0,0.0,0.0,0.25,1.0,0.0,0.75,0.25,-0.11,0.83,0.39,64.1,-0.2,-59.4,8.5,3.0,9.0,6.75,6.5,2.75,0.25,1.5,0.25,0.5,1.25,0.0,0.75,0.08,0.27,1.58,563.0,-16.3,54.2
1.44,0.0,0.0,0.0,0.5,0.0,0.0,3.75,0.0,0.25,0.75,0.0,0.0,0.0,-0.3,1.27,0.58,56.49,17.6,4.0,7.5,1.25,8.0,3.75,4.25,1.0,0.0,1.25,0.25,0.5,0.0,0.25,0.5,0.14,0.27,1.83,489.47,-19.7,57.0
1.46,0.0,0.0,0.0,0.0,0.0,0.0,0.0,0.0,0.0,0.0,0.0,0.0,0.0,-0.98,0.02,1.02,33.75,0.0,0.0,5.75,0.75,7.25,2.75,3.0,0.75,0.0,0.25,0.0,0.0,0.5,0.25,0.0,0.08,0.45,2.14,393.61,-23.4,62.8
1.48,0.0,0.0,1.0,0.0,0.0,0.0,0.0,0.0,0.0,1.0,0.0,0.0,0.0,-0.17,0.33,1.08,30.53,11.6,-6.2,4.75,0.75,5.5,3.5,0.0,1.0,0.5,0.0,0.25,0.0,1.0,0.0,0.0,0.02,0.7,2.45,294.63,-26.2,60.4
1.5,0.0,0.0,0.0,0.0,0.0,5.0,0.0,4.5,0.0,0.75,0.0,1.0,0.5,-0.23,0.2,1.39,74.95,-16.8,-20.5,2.75,0.0,3.0,2.25,3.5,1.0,0.25,1.25,0.25,0.5,1.0,0.0,0.75,-0.11,0.33,2.52,233.9,-11.3,34.0
1.52,0.25,0.0,0.0,1.5,0.0,5.75,0.0,5.0,0.0,1.75,0.0,1.0,0.5,-0.23,0.14,1.33,137.11,-12.8,-12.4,1.75,0.0,1.5,1.25,0.0,1.0,0.0,0.75,0.25,0.75,1.0,0.0,0.5,0.77,-0.61,1.64,150.99,-11.4,15.8
1.54,0.0,0.0,0.0,1.75,0.0,0.0,0.0,5.0,0.0,1.75,0.0,0.0,0.5,-0.3,0.14,1.27,160.74,-9.5,-30.3,2.0,0.0,0.75,0.0,1.0,0.25,0.25,1.5,0.0,0.0,0.0,0.0,0.75,1.39,-1.3,1.52,82.01,-8.3,24.9
1.56,0.75,0.0,0.0,2.5,0.0,6.5,0.0,4.5,0.25,1.25,0.0,0.25,0.5,-0.3,0.14,1.02,201.19,-10.3,4.1,1.75,0.0,0.5,1.25,3.0,1.0,0.25,1.25,0.25,0.75,1.0,0.0,1.25,0.58,-0.61,0.89,66.09,-2.6,12.7
1.58,0.0,0.0,0.0,2.75,0.0,5.5,0.0,4.25,0.25,1.0,0.0,0.0,0.5,-0.48,0.2,1.02,212.86,-11.3,2.6,1.25,0.0,0.5,1.25,2.75,1.0,0.5,1.5,0.25,1.0,0.75,0.0,0.75,0.64,0.2,0.45,64.88,-1.5,12.7
1.6,0.0,0.0,0.75,2.75,0.0,4.75,0.0,3.5,0.25,0.5,0.0,0.0,0.5,-0.36,0.2,1.14,219.16,-7.3,9.8,1.25,0.75,0.5,1.0,3.5,1.0,0.0,1.25,0.25,1.25,1.0,0.0,1.25,0.7,0.33,0.02,89.68,-0.6,12.2
1.62,0.0,0.0,0.0,2.25,0.0,4.5,0.0,3.5,0.25,0.75,0.0,0.0,0.25,-0.36,0.2,1.14,214.15,-11.2,4.5,1.25,0.0,1.75,1.0,3.0,1.0,0.75,1.25,0.25,0.75,1.0,0.0,1.25,0.45,-0.42,0.95,112.69,-5.2,13.8
1.64,0.0,0.0,1.0,2.5,0.0,3.75,0.0,3.25,0.25,1.0,0.0,1.0,0.5,-0.36,0.27,0.58,214.69,-4.7,-3.1,1.25,0.0,0.25,1.25,1.0,0.75,0.75,1.5,0.25,0.0,1.25,0.0,1.25,0.52,-0.48,0.95,114.25,-4.1,0.1
1.66,0.0,0.0,0.0,2.5,0.0,3.75,0.0,3.25,0.25,1.25,0.0,0.75,0.5,-0.3,0.39,0.45,204.58,-8.8,-7.9,1.0,0.75,0.25,1.25,0.25,1.0,0.75,1.5,0.25,1.25,1.0,0.0,1.0,0.7,0.14,-0.11,111.14,-1.8,-3.1
1.68,1.0,0.0,0.0,2.5,0.0,3.75,0.0,3.0,0.0,1.0,0.0,1.0,0.5,-0.42,0.45,0.64,201.26,-5.3,0.4,0.25,0.0,0.5,1.0,3.5,0.75,0.25,0.0,0.25,0.25,0.0,0.0,0.5,0.7,0.64,-0.67,111.83,-1.5,35.6
1.7,0.0,0.0,0.0,2.0,0.0,4.75,0.0,3.25,0.25,1.0,0.0,0.5,0.5,-0.55,0.52,0.89,195.31,-11.2,-3.9,1.25,0.5,0.5,1.0,3.0,1.0,1.0,1.25,0.25,1.5,1.0,0.0,1.25,0.7,0.39,-0.48,139.06,-1.4,7.6
1.72,0.0,0.0,0.0,1.0,0.0,2.5,0.0,2.5,0.0,1.0,0.0,0.5,0.5,-0.67,0.58,0.83,166.29,-12.1,-18.0,1.25,0.5,1.0,1.0,3.5,1.0,0.5,1.25,0.25,1.5,1.0,0.0,1.25,-0.48,0.02,-0.23,166.07,-2.0,11.1
1.74,0.0,0.0,1.25,1.0,0.0,3.25,0.0,2.5,0.25,1.0,0.0,1.0,0.5,-0.67,0.58,0.58,149.34,-5.2,-9.7,6.0,1.5,0.75,1.5,3.75,0.5,0.25,1.25,0.0,2.0,1.0,0.25,1.25,-1.98,0.33,-2.3,222.39,-9.5,32.2
1.76,0.0,0.0,1.25,0.25,0.0,0.0,0.0,1.75,0.25,1.0,0.0,0.0,0.5,-0.73,0.64,0.45,114.19,0.9,-22.8,0.0,0.0,3.5,1.25,0.0,1.0,0.0,0.75,0.25,1.0,0.0,0.25,0.0,0.58,7.64,7.52,211.12,-14.2,22.9
1.78,0.0,0.0,1.75,0.25,0.0,0.0,0.0,1.75,0.25,0.75,0.0,0.0,0.0,-0.98,0.83,0.77,91.88,7.3,-1.8,7.0,0.0,5.5,2.5,0.0,0.0,0.0,0.0,0.0,0.0,0.0,0.0,0.0,-1.36,-2.8,-0.05,224.37,-33.1,76.7
1.8,0.0,0.0,1.5,0.25,0.0,0.0,0.0,1.75,0.0,1.0,0.0,1.0,0.0,-1.55,2.14,1.33,66.28,4.9,-25.8,8.0,0.75,7.75,3.75,0.0,0.0,0.0,0.0,0.0,0.25,0.0,0.0,0.0,0.95,1.7,0.64,244.97,-31.3,73.6
1.82,0.0,0.0,1.75,0.0,0.0,0.0,0.0,1.75,0.0,0.75,0.0,0.5,0.25,-1.92,1.39,0.33,60.03,5.6,-19.2,8.5,0.75,8.75,4.0,0.0,0.0,0.0,0.0,0.0,0.0,0.0,0.0,0.0,0.39,1.02,1.33,285.53,-32.1,75.1
1.84,0.0,0.0,0.25,1.0,0.0,0.0,0.0,1.75,0.0,0.75,0.0,0.5,0.5,-0.36,2.02,0.58,54.07,-3.3,-33.0,9.75,1.0,9.25,4.0,0.0,1.0,0.0,0.0,0.25,1.0,0.0,0.0,0.0,0.02,0.83,0.77,337.32,-28.1,67.7
1.86,0.0,0.0,0.0,0.5,0.0,0.0,0.0,1.5,0.0,0.75,0.0,0.0,0.5,-0.8,3.2,0.58,45.45,-10.6,-42.8,9.0,0.75,9.25,4.0,0.0,0.0,0.0,0.0,0.0,0.0,0.0,0.0,0.0,-0.3,0.83,1.14,370.01,-32.3,75.2
1.88,0.0,0.0,0.0,0.0,0.0,0.0,0.0,1.5,0.0,0.75,0.0,0.0,0.5,-0.48,0.45,3.08,35.46,-15.9,-62.0,9.0,0.75,8.75,3.75,0.0,0.0,0.0,0.0,0.0,0.0,0.0,0.0,0.0,-0.8,0.33,0.7,380.42,-32.3,75.7
1.9,0.0,0.0,0.0,0.25,0.0,0.0,0.0,1.5,0.0,1.0,0.0,0.0,0.25,0.33,-3.05,2.2,28.91,-13.2,-48.6,9.25,0.75,8.75,4.75,0.0,1.0,0.25,0.0,0.25,0.0,0.0,0.0,0.0,-0.73,0.45,0.02,382.69,-29.4,72.2
1.92,0.0,0.0,0.0,0.0,0.0,0.0,0.0,0.0,0.25,0.75,0.0,0.0,0.0,0.58,-1.55,0.52,16.27,-8.7,-66.3,9.0,0.75,8.25,5.5,0.0,1.0,0.0,0.0,0.25,0.75,0.0,0.0,0.25,-0.55,0.58,0.02,390.54,-27.0,65.8
1.94,0.0,0.0,0.0,1.0,0.0,0.0,0.0,0.0,0.0,0.5,0.0,0.0,0.5,-0.23,0.14,-0.17,14.29,1.5,-16.3,8.25,0.5,8.25,3.75,0.0,0.0,0.5,0.0,0.0,0.75,1.0,0.0,1.0,-0.61,0.64,0.08,382.32,-27.9,55.6
1.96,0.0,0.0,0.0,0.0,0.0,0.0,0.25,0.0,0.0,0.0,0.0,0.0,0.0,-2.11,2.58,-1.98,4.26,32.4,27.3,8.25,0.75,8.0,4.0,0.0,0.0,0.75,0.75,0.0,0.0,0.75,0.0,0.25,-0.48,0.64,0.2,373.79,-29.1,64.0
1.98,0.0,0.0,0.0,0.0,0.0,0.0,0.0,0.0,0.0,0.0,0.0,0.0,0.0,-0.86,0.89,0.14,0.0,0.0,0.0,8.25,1.0,8.0,5.75,0.0,0.5,0.25,0.0,0.25,0.5,0.0,0.25,0.25,-0.3,0.83,0.39,371.63,-27.7,65.3
2.0,0.0,0.0,0.0,0.25,0.0,0.0,0.0,0.0,0.0,0.0,0.0,0.0,0.0,-0.05,1.27,0.52,0.0,17.2,57.9,8.75,0.75,8.75,5.75,0.0,1.0,0.75,0.0,0.25,1.75,1.0,0.25,1.0,-0.05,0.95,0.39,394.5,-23.9,49.5
2.02,0.0,0.0,0.0,0.25,0.0,0.0,0.0,0.0,0.0,0.0,0.0,0.0,0.0,-0.11,1.52,-0.11,0.0,17.2,57.9,8.0,0.25,8.0,4.0,0.0,0.0,0.25,0.0,0.0,0.0,0.0,0.0,0.25,-0.17,0.83,0.45,364.84,-31.7,71.9
2.04,0.0,0.0,0.0,0.25,0.0,0.0,0.0,0.0,0.0,0.0,0.0,0.0,0.0,-0.36,1.2,-0.05,0.0,17.2,57.9,8.25,0.75,7.75,4.5,0.0,0.75,0.75,0.25,0.25,0.0,1.0,0.0,0.75,-0.48,0.7,0.52,358.85,-26.9,59.1
2.06,0.0,0.0,0.25,0.5,0.0,0.0,0.0,0.0,0.0,0.0,0.0,0.0,0.0,-0.67,1.08,0.14,0.0,24.1,58.9,7.25,0.75,7.5,4.25,0.0,1.0,0.75,0.0,0.25,0.5,0.0,0.0,0.0,-0.61,0.64,0.64,335.77,-27.7,67.2
2.08,0.0,0.0,0.0,0.25,0.0,0.0,0.0,0.0,0.0,0.0,0.0,0.0,0.0,-0.98,0.77,0.33,0.0,17.2,57.9,7.0,0.0,8.0,3.5,0.0,0.0,0.75,0.5,0.0,0.75,1.0,0.0,0.75,-0.3,0.77,0.58,321.84,-27.4,51.8
2.1,0.0,0.0,0.0,0.0,0.0,0.0,0.0,0.0,0.0,0.0,0.0,0.0,0.0,-0.73,0.58,0.39,0.0,0.0,0.0,7.0,0.75,7.0,3.75,0.0,0.25,0.5,0.0,0.25,1.25,0.0,0.25,0.0,0.02,0.83,0.58,305.84,-27.5,61.2
2.12,0.0,0.0,0.0,0.25,0.0,0.0,0.0,0.0,0.0,0.0,0.0,0.0,0.0,-0.55,0.83,0.14,0.0,17.2,57.9,7.0,0.75,7.75,4.0,0.0,1.0,0.75,0.25,0.25,1.0,1.0,0.0,0.5,-0.17,0.83,0.77,312.23,-24.9,53.1
2.14,0.0,0.0,0.0,0.0,0.0,0.0,0.0,0.0,0.0,0.0,0.0,0.0,0.0,-0.42,1.27,0.27,0.0,0.0,0.0,7.0,0.75,7.75,3.75,0.25,1.0,0.5,0.0,0.25,0.75,1.0,0.0,0.5,-0.3,0.77,0.77,313.96,-25.5,55.6
2.16,0.0,0.0,0.0,0.0,0.0,0.0,0.0,0.0,0.0,0.0,0.0,0.0,0.0,-0.36,0.95,0.27,0.0,0.0,0.0,6.5,0.75,7.25,3.75,1.0,1.0,0.5,0.0,0.25,0.75,0.75,0.25,0.75,-0.3,0.77,0.7,320.97,-23.5,52.3
2.18,0.0,0.0,0.0,0.0,0.0,0.0,0.0,0.0,0.0,0.0,0.0,0.0,0.0,-0.55,0.7,0.14,0.0,0.0,0.0,5.75,0.75,7.0,3.75,0.25,1.0,0.5,0.25,0.25,1.0,0.75,0.25,0.5,-0.23,0.77,0.58,317.75,-23.5,50.1
2.2,0.0,0.0,0.0,0.0,0.0,0.0,0.0,0.0,0.0,0.0,0.0,0.0,0.0,-0.73,0.64,0.08,0.0,0.0,0.0,5.75,0.75,6.75,3.5,1.25,1.0,0.5,0.0,0.25,1.0,0.75,0.25,0.75,-0.3,0.77,0.33,314.36,-22.1,49.2
2.22,0.0,0.0,0.0,0.0,0.0,0.0,0.0,0.0,0.0,0.0,0.0,0.0,0.0,-0.67,0.64,0.08,0.0,0.0,0.0,5.25,0.75,6.75,3.5,1.25,1.0,0.5,0.5,0.25,0.75,1.0,0.25,0.5,-0.55,0.58,0.45,307.67,-21.6,48.1
2.24,0.0,0.0,1.0,0.0,0.0,0.0,0.0,0.0,0.0,0.0,0.0,0.0,0.5,-0.67,0.58,0.08,7.64,20.9,4.0,5.0,0.75,5.5,3.5,0.5,1.0,0.75,1.0,0.25,0.75,1.25,0.25,0.75,-0.48,0.58,0.52,299.77,-20.1,40.9
2.26,0.0,0.0,0.0,0.0,0.0,0.0,0.0,0.0,0.0,0.0,0.0,0.0,0.0,-0.86,0.7,0.02,7.01,0.0,0.0,5.0,0.75,5.5,3.75,1.25,1.0,0.5,0.75,0.0,0.0,0.75,0.0,0.75,-0.42,0.77,0.45,295.94,-21.2,52.9
2.28,0.0,0.0,0.0,0.25,0.0,0.0,0.0,0.0,0.0,0.0,0.0,0.0,0.0,-0.86,0.7,0.02,7.96,17.2,57.9,4.75,0.75,4.25,3.5,0.0,1.0,0.0,0.0,0.25,0.75,0.0,0.0,0.0,-0.3,0.83,0.39,270.15,-24.0,62.9
2.3,0.0,0.0,0.0,0.25,0.0,0.0,0.0,0.0,0.0,0.0,0.0,0.0,0.0,-0.86,0.64,0.08,5.74,17.2,57.9,3.75,0.75,5.5,2.75,1.5,1.0,0.25,0.0,0.25,1.25,1.0,0.25,0.75,-0.36,0.77,0.64,263.29,-18.8,40.3
2.32,0.0,0.0,0.0,0.0,0.0,0.0,0.0,0.0,0.0,0.0,0.0,0.0,0.0,-0.73,0.64,0.08,4.36,0.0,0.0,3.75,0.75,5.0,2.75,1.75,1.0,0.25,0.25,0.25,0.75,1.0,0.25,1.25,-0.36,0.7,0.58,257.27,-17.5,37.9
2.34,0.0,0.0,0.0,0.0,0.0,0.0,0.0,0.0,0.0,0.0,0.0,0.0,0.0,-0.67,0.64,0.08,1.87,0.0,0.0,3.0,0.75,4.0,2.75,2.25,1.0,0.5,0.25,0.25,0.75,0.75,0.0,1.25,-0.36,0.77,0.45,253.79,-15.3,38.2
2.36,0.0,0.0,0.0,0.0,0.0,0.0,0.0,0.0,0.0,0.0,0.0,0.0,0.0,-0.67,0.7,0.08,0.77,0.0,0.0,2.25,0.75,2.75,2.5,1.5,1.0,0.25,1.0,0.25,1.0,1.0,0.0,1.5,-0.67,0.83,0.58,239.59,-10.8,23.1
2.38,0.0,0.0,0.0,0.25,0.0,0.0,0.0,0.0,0.0,0.0,0.0,0.0,0.0,-0.8,0.7,0.08,1.99,17.2,57.9,2.25,0.75,2.75,1.75,1.5,1.0,0.5,0.5,0.25,1.25,0.75,0.5,1.25,-0.98,0.95,0.89,225.59,-11.5,21.2
2.4,0.0,0.0,0.0,0.0,0.0,0.0,0.0,0.0,0.0,0.0,0.0,0.0,0.0,-0.73,0.7,0.08,1.02,0.0,0.0,1.5,0.75,1.25,1.25,2.25,1.0,0.25,1.25,0.25,1.5,0.75,0.0,1.25,-0.92,0.95,0.77,204.52,-3.9,13.0
2.42,0.0,0.0,0.0,0.0,0.0,0.0,0.0,0.0,0.0,0.0,0.0,0.0,0.0,-0.86,0.7,0.14,0.64,0.0,0.0,0.5,0.0,0.5,0.25,0.0,0.0,0.5,1.25,0.0,0.0,1.0,0.0,1.0,-0.61,0.64,0.95,147.78,-5.0,-28.7
2.44,0.0,0.0,0.0,0.0,0.0,0.0,0.0,0.0,0.0,0.0,0.0,0.0,0.0,-0.86,0.64,0.14,0.0,0.0,0.0,0.75,0.75,0.5,1.0,1.25,1.0,0.75,1.0,0.25,1.25,1.0,0.0,0.5,-0.61,0.39,0.83,122.99,-2.7,8.6
2.46,0.0,0.0,0.0,0.0,0.0,0.0,0.0,0.0,0.0,0.0,0.0,0.0,0.0,-0.92,0.58,0.08,0.0,0.0,0.0,1.25,0.75,0.0,1.0,1.5,1.0,0.5,1.0,0.25,1.5,1.0,0.0,1.25,-0.73,0.39,0.64,111.68,-0.4,0.6
2.48,0.0,0.0,0.0,0.0,0.0,0.0,0.0,0.0,0.0,0.25,0.0,0.0,0.0,-0.86,0.45,0.27,0.0,-15.7,-75.5,1.5,0.75,0.0,1.0,2.25,1.0,0.5,1.0,0.25,1.0,1.0,0.25,1.25,-0.73,0.14,0.77,125.66,-1.6,7.3
2.5,0.0,0.0,0.0,0.0,0.0,0.0,0.0,0.0,0.0,0.0,0.0,0.0,0.0,-0.73,0.39,0.39,1.02,0.0,0.0,1.25,0.75,0.0,1.0,2.25,1.0,0.5,1.0,0.25,1.0,1.0,0.5,1.25,-0.61,0.02,0.83,137.94,-1.1,3.1
2.52,0.0,0.0,0.0,0.5,0.0,0.0,0.0,0.0,0.0,1.25,0.0,0.0,0.0,-0.73,0.39,0.27,10.7,-5.9,-36.1,1.25,0.75,0.0,1.0,1.75,1.0,0.5,1.25,0.25,0.0,1.0,0.25,1.25,-0.61,0.14,0.58,145.01,-2.4,9.6
2.54,0.0,0.0,0.0,0.0,0.0,0.0,0.0,0.0,0.0,0.5,0.0,0.0,0.0,-0.86,0.45,0.2,12.55,-15.7,-75.5,1.25,0.5,0.0,1.0,1.75,1.0,0.5,0.5,0.25,1.25,1.0,0.0,1.25,-0.48,0.08,0.52,139.86,-1.2,3.4
2.56,0.0,0.0,0.0,0.25,0.0,0.0,0.0,0.0,0.0,0.0,0.0,0.0,0.0,-0.86,0.52,0.33,13.15,17.2,57.9,1.25,0.5,0.0,1.0,1.75,1.0,0.5,1.0,0.25,1.0,1.0,0.25,1.25,-0.42,0.14,0.52,139.6,-0.9,0.7
2.58,0.0,0.0,0.0,0.25,0.0,0.0,0.0,0.0,0.0,0.0,0.0,0.0,0.0,-0.86,0.52,0.27,9.86,17.2,57.9,1.25,0.5,0.0,1.0,2.25,1.0,0.5,0.75,0.25,1.25,0.75,0.5,1.25,-0.48,0.2,0.45,147.56,-0.7,1.7
2.6,0.0,0.0,0.0,0.0,0.0,0.0,0.0,0.0,0.0,0.0,0.0,0.0,0.0,-0.86,0.52,0.2,6.14,0.0,0.0,1.25,0.5,0.0,1.25,2.5,1.0,0.5,1.0,0.25,1.5,1.0,0.0,1.25,-0.61,0.27,0.52,160.01,-0.1,4.8
2.62,0.0,0.0,0.0,0.5,0.0,0.0,0.25,0.0,0.5,0.75,0.0,0.5,0.0,-0.86,0.52,0.2,15.88,4.8,-40.5,1.25,0.5,0.0,1.0,2.25,1.0,0.5,0.75,0.25,1.0,0.75,0.25,1.25,-0.67,0.27,0.58,165.38,-0.9,6.1
2.64,0.0,0.0,0.0,0.5,0.0,0.0,0.0,0.0,0.25,0.75,0.0,0.0,0.0,-0.73,0.58,0.2,21.63,0.1,-23.5,1.25,0.5,0.0,1.0,2.25,1.0,0.5,1.0,0.25,1.5,1.0,0.0,1.25,-0.73,0.27,0.52,171.98,0.1,2.4
2.66,0.0,0.0,0.0,0.25,0.0,0.0,0.0,0.0,0.25,0.0,0.0,0.0,0.5,-0.8,0.58,0.2,25.18,0.4,-49.7,1.25,0.5,0.0,1.0,2.25,1.0,0.5,0.5,0.25,1.0,1.0,0.0,1.25,-0.92,0.27,0.58,170.79,-1.3,8.0
2.68,0.0,0.0,0.0,0.0,0.0,0.0,0.0,0.0,0.0,0.0,0.0,0.0,0.0,-0.8,0.64,0.2,17.57,0.0,0.0,1.25,0.5,0.0,1.0,2.75,1.0,0.5,0.75,0.25,1.25,1.0,0.25,1.25,-0.86,0.2,0.58,168.85,-0.5,5.0
2.7,0.0,0.0,0.0,0.0,0.0,0.0,0.0,0.0,0.25,0.25,0.0,0.25,0.0,-0.86,0.64,0.2,14.84,1.7,-74.7,1.25,0.5,0.0,1.0,2.25,1.0,0.25,0.75,0.25,1.5,1.0,0.5,1.25,-0.98,0.27,0.58,168.53,-0.2,-1.7
2.72,0.0,0.0,0.0,0.0,0.0,0.0,0.25,0.0,0.0,0.0,0.0,0.0,0.0,-0.8,0.64,0.2,7.56,32.4,27.3,1.25,0.5,0.0,1.0,2.25,1.0,0.25,0.75,0.25,1.25,1.0,0.0,1.25,-0.92,0.2,0.58,168.16,-0.2,4.8
2.74,0.0,0.0,0.0,0.0,0.0,0.0,0.25,0.0,0.25,0.0,0.0,0.0,0.0,-0.8,0.58,0.2,5.91,18.8,-17.0,1.25,0.5,0.0,1.0,2.25,1.0,0.25,0.5,0.25,1.5,1.0,0.0,1.0,-0.86,0.14,0.52,165.52,-0.6,6.7
2.76,0.0,0.0,0.0,0.25,0.0,0.0,0.0,0.0,0.25,0.0,0.0,0.0,0.0,-0.8,0.58,0.27,4.96,14.7,11.1,1.25,0.5,0.5,1.0,1.75,1.0,0.25,0.75,0.25,1.0,1.0,0.25,1.25,-0.92,0.2,0.52,163.91,-2.8,4.1
2.78,0.0,0.0,0.0,0.0,0.0,0.0,0.0,0.0,0.0,0.0,0.0,0.0,0.0,-0.8,0.64,0.2,4.06,0.0,0.0,1.25,0.75,0.0,1.0,2.25,1.0,0.25,0.5,0.5,1.5,1.0,0.25,1.25,-0.92,0.2,0.52,165.23,-0.9,2.8
2.8,0.0,0.0,0.0,0.0,0.0,0.0,0.0,0.0,0.0,0.0,0.0,0.25,0.0,-0.86,0.64,0.2,3.09,8.8,-109.9,1.25,0.5,0.0,1.0,2.25,1.0,0.5,0.5,0.25,1.5,1.0,0.0,1.25,-0.92,0.14,0.58,164.47,-0.6,4.2
2.82,0.25,0.0,0.0,0.5,0.0,0.0,0.0,0.0,0.5,0.0,0.0,0.0,0.0,-0.8,0.64,0.2,7.82,18.5,27.3,1.25,0.75,0.0,1.0,2.25,1.0,0.25,0.5,0.25,1.5,1.0,0.25,1.25,-0.86,0.2,0.58,166.43,-0.7,3.7
2.84,0.0,0.0,0.0,0.0,0.0,0.0,0.25,0.0,0.25,0.0,0.0,0.0,0.0,-0.8,0.58,0.27,7.62,18.8,-17.0,1.25,0.5,0.25,1.0,1.5,0.5,0.25,0.5,0.25,0.5,1.0,0.25,1.25,-0.86,0.2,0.52,156.38,-4.8,5.0
2.86,0.0,0.0,0.0,0.0,0.0,0.0,0.25,0.0,0.0,0.0,0.0,0.0,0.0,-0.73,0.58,0.27,5.26,32.4,27.3,1.25,0.75,0.0,1.0,2.25,1.0,0.5,0.5,0.25,1.5,1.0,0.0,1.0,-0.86,0.2,0.52,157.53,-1.2,9.1
2.88,0.25,0.0,0.25,0.75,0.0,0.0,0.5,0.0,0.75,0.75,0.0,0.0,0.0,-0.73,0.64,0.2,20.27,12.1,1.7,1.25,0.75,0.0,1.0,2.25,1.0,0.5,0.5,0.25,1.5,1.0,0.25,1.0,-0.86,0.2,0.52,157.82,-1.4,6.5
2.9,0.5,0.0,0.25,0.75,0.0,0.0,1.0,0.0,0.75,1.0,0.0,0.0,0.0,-0.8,0.64,0.27,38.04,13.0,4.2,1.25,0.75,0.0,1.0,1.75,1.0,0.5,0.25,0.25,1.25,1.0,0.0,1.25,-0.86,0.14,0.58,157.94,-1.9,6.9
2.92,0.5,0.0,0.0,0.75,0.0,0.0,1.0,0.0,0.75,1.0,0.0,0.0,0.0,-0.8,0.64,0.27,52.67,11.1,0.0,1.25,0.75,0.0,1.0,2.25,1.0,0.25,0.25,0.25,0.25,1.0,0.25,1.25,-0.92,0.14,0.58,154.64,-3.2,14.7
2.94,0.5,0.0,0.75,0.75,0.0,0.0,1.25,0.0,1.0,1.0,0.0,0.25,0.0,-0.8,0.64,0.27,68.24,15.9,2.8,1.25,0.5,0.0,1.0,1.75,1.0,0.25,0.5,0.25,1.25,0.75,0.5,1.25,-0.92,0.14,0.58,153.4,-1.0,-0.4
2.96,0.5,0.0,0.5,0.75,0.0,0.0,1.0,0.0,0.75,0.25,0.0,0.0,0.0,-0.73,0.64,0.2,71.39,21.6,27.2,1.25,0.5,0.0,1.0,2.25,1.0,0.25,0.5,0.25,1.5,1.0,0.25,1.25,-0.92,0.14,0.52,155.95,-0.4,1.5
2.98,0.0,0.0,0.25,0.75,0.0,0.0,1.0,0.0,0.75,0.75,0.0,0.0,0.0,-0.73,0.64,0.2,68.11,11.9,-3.6,1.25,0.75,0.0,1.0,1.75,1.0,0.25,0.75,0.25,1.0,1.0,0.0,1.25,-0.92,0.14,0.58,155.29,-1.1,6.4
3.0,0.0,0.0,0.0,0.5,0.0,0.0,0.75,0.0,0.25,0.25,0.0,0.0,0.0,-0.73,0.64,0.27,53.62,14.2,8.5,1.25,0.75,0.0,1.0,1.75,0.75,0.5,0.5,0.25,1.5,1.0,0.0,1.25,-0.92,0.08,0.58,156.22,-1.6,3.2
3.02,0.0,0.0,0.0,0.75,0.0,0.0,0.75,0.0,0.25,0.5,0.0,0.0,0.0,-0.8,0.64,0.27,44.84,10.7,4.2,1.25,0.75,0.0,1.0,2.25,1.0,0.25,0.5,0.25,1.25,1.0,0.25,1.25,-0.92,0.08,0.58,158.9,-1.1,5.4
3.04,0.0,0.0,0.0,0.75,0.0,0.0,0.5,0.0,0.75,0.5,0.0,0.5,0.0,-0.8,0.64,0.27,40.08,9.7,-24.9,0.0,0.0,0.0,0.0,2.5,0.0,0.25,0.25,0.0,0.0,1.0,0.0,1.25,-0.92,0.08,0.58,134.75,3.0,-11.9
3.06,0.0,0.0,0.0,0.5,0.0,0.0,0.75,0.0,0.25,0.5,0.0,0.0,0.0,-0.73,0.64,0.27,34.73,9.6,-4.3,0.0,0.0,0.0,0.0,0.0,0.0,0.0,0.0,0.0,0.0,0.0,0.0,0.0,-0.92,0.08,0.52,83.42,0.0,0.0
3.08,0.0,0.0,0.0,0.5,0.0,0.0,0.5,0.0,0.25,0.0,0.0,0.25,0.0,-0.8,0.64,0.27,29.29,17.4,0.0,0.0,0.0,0.0,0.0,0.0,0.0,0.0,0.0,0.0,0.0,0.0,0.0,0.0,-0.86,0.14,0.52,32.5,0.0,0.0
3.1,0.0,0.0,0.0,0.5,0.0,0.0,0.5,0.0,0.5,0.5,0.0,0.0,0.0,-0.8,0.64,0.27,24.63,8.4,-11.3,0.0,0.0,0.0,0.0,0.0,0.0,0.25,0.0,0.0,0.25,0.0,0.0,0.0,-0.86,0.14,0.52,0.0,0.1,-42.1
3.12,0.0,0.0,0.0,0.5,0.0,0.0,0.5,0.0,0.0,0.25,0.0,0.0,0.0,-0.8,0.64,0.27,16.56,12.6,17.7,0.0,0.0,0.0,0.0,0.0,0.0,0.25,0.0,0.0,0.0,0.25,0.0,0.25,-0.92,0.14,0.52,0.0,-4.7,-69.8
3.14,0.0,0.0,0.25,0.5,0.0,0.0,0.5,0.0,0.25,0.0,0.0,0.0,0.0,-0.73,0.64,0.27,14.26,23.3,33.9,1.25,0.75,0.0,1.0,0.5,1.0,0.75,1.0,0.25,2.75,1.0,0.25,1.25,-0.92,0.14,0.52,34.05,0.4,-15.2
3.16,0.0,0.0,0.25,0.5,0.0,0.0,0.5,0.0,0.25,0.25,0.0,0.25,0.0,-0.73,0.64,0.27,16.39,15.8,-1.7,1.25,0.5,0.0,1.25,1.75,1.0,0.5,0.75,0.0,1.5,1.0,0.0,1.0,-0.86,0.08,0.52,84.88,-0.9,5.7
3.18,0.0,0.0,0.0,0.5,0.0,0.0,0.5,0.0,0.25,0.25,0.0,0.0,0.0,-0.73,0.64,0.27,16.9,12.5,6.7,1.25,0.75,0.0,1.0,2.5,0.75,0.5,0.25,0.25,0.0,0.75,0.25,1.25,-0.86,0.08,0.52,124.59,-4.3,20.2
3.2,0.0,0.0,0.0,0.5,0.0,0.0,0.5,0.0,0.25,0.25,0.0,0.0,0.0,-0.8,0.64,0.27,18.58,12.5,6.7,1.25,0.5,0.0,1.0,2.5,1.0,0.25,0.25,0.25,1.25,1.0,0.0,1.25,-0.92,0.08,0.52,146.88,-0.9,8.2
3.22,0.0,0.0,0.0,0.0,0.0,0.0,0.25,0.0,0.0,0.0,0.0,0.0,0.0,-0.73,0.7,0.27,12.45,32.4,27.3,1.25,0.5,0.0,1.0,1.5,1.0,0.5,0.5,0.25,1.5,1.0,0.0,1.25,-0.92,0.02,0.58,158.49,-0.9,0.0
3.24,0.0,0.0,0.0,0.25,0.0,0.0,0.25,0.0,0.25,0.25,0.0,0.0,0.0,-0.73,0.64,0.27,11.19,8.4,-11.3,1.25,0.5,0.0,1.0,2.25,1.0,0.25,0.25,0.25,1.5,1.0,0.0,1.25,-0.92,0.08,0.52,164.84,-0.6,5.0
3.26,0.0,0.0,0.0,0.25,0.0,0.0,0.25,0.0,0.25,0.25,0.0,0.0,0.0,-0.73,0.64,0.27,8.5,8.4,-11.3,1.25,0.5,0.5,1.0,2.5,0.5,0.25,0.25,0.25,0.0,0.75,0.0,1.25,-0.92,0.02,0.52,166.6,-6.2,23.3
3.28,0.0,0.0,0.0,0.5,0.0,0.0,0.25,0.0,0.25,0.0,0.0,0.0,0.0,-0.73,0.64,0.27,10.01,17.8,27.0,1.25,0.75,0.0,1.0,0.0,1.0,0.0,0.0,0.25,0.75,0.0,0.0,0.5,-0.92,0.02,0.58,153.55,-5.7,29.5
3.3,0.0,0.0,0.0,0.0,0.0,0.0,0.25,0.0,0.25,0.0,0.0,0.0,0.0,-0.73,0.64,0.27,8.74,18.8,-17.0,1.25,0.75,0.0,1.0,2.25,1.0,0.25,0.25,0.25,1.0,1.0,0.5,1.0,-0.98,0.02,0.45,157.61,-2.4,8.5
3.32,0.0,0.0,0.0,0.5,0.0,0.0,0.5,1.25,0.25,0.0,0.0,0.0,0.0,-0.73,0.64,0.27,17.62,-0.5,-9.3,1.25,0.75,0.0,1.0,2.25,1.0,0.25,0.25,0.25,0.0,1.0,0.25,1.0,-0.98,0.02,0.52,152.93,-4.2,20.5
3.34,0.25,0.0,1.0,0.75,0.0,0.0,0.75,1.75,0.75,1.25,0.0,0.75,0.5,-0.8,0.64,0.27,51.3,4.3,-25.4,1.25,0.5,0.0,1.0,1.75,1.0,0.25,0.25,0.25,1.25,0.75,0.25,1.25,-0.92,0.02,0.52,154.8,-1.2,3.3
3.36,0.25,0.0,1.0,0.75,0.0,0.0,0.75,1.75,0.75,1.0,0.0,0.75,0.5,-0.73,0.64,0.27,81.72,5.0,-23.6,1.25,0.5,0.0,1.0,2.25,1.0,0.25,0.5,0.25,1.0,1.0,0.5,1.0,-0.92,0.08,0.52,154.56,-1.7,5.2
3.38,0.25,0.0,1.0,0.75,0.0,0.0,0.75,1.75,0.75,1.0,0.0,1.0,0.5,-0.67,0.64,0.27,106.59,5.1,-26.5,1.25,0.5,0.0,1.0,2.25,1.0,0.25,0.25,0.25,1.5,1.0,0.25,1.25,-0.92,0.08,0.52,154.98,-0.8,2.4
3.4,0.25,0.0,1.0,0.75,0.0,0.0,0.75,1.75,0.75,1.0,0.0,1.25,0.5,-0.73,0.64,0.27,120.6,5.3,-29.2,1.25,0.75,0.0,1.0,2.25,1.0,0.25,0.5,0.25,1.5,1.0,0.0,1.25,-0.86,0.14,0.52,160.56,-0.5,6.2
3.42,0.25,0.0,1.0,0.75,0.0,0.0,0.75,0.0,0.75,1.0,0.0,1.0,0.5,-0.73,0.64,0.27,118.72,11.9,-22.7,1.25,0.5,0.25,1.0,1.5,1.5,0.75,1.25,0.25,0.75,0.75,0.25,0.75,-0.8,0.14,0.52,162.22,-1.7,10.5
3.44,0.25,0.0,1.5,0.75,0.0,0.0,0.75,0.0,1.0,1.0,0.0,1.0,0.5,-0.73,0.64,0.27,115.62,14.1,-16.6,1.25,0.0,0.0,0.75,1.75,0.75,0.25,0.5,0.25,0.25,0.75,0.0,0.75,-0.86,0.14,0.58,148.17,-3.1,14.8
3.46,0.0,0.0,1.0,0.0,0.0,0.0,0.25,0.0,0.0,0.0,0.0,0.0,0.0,-0.73,0.64,0.27,87.28,37.6,57.4,0.75,0.0,0.0,1.25,0.25,0.75,0.75,0.0,0.25,0.5,0.0,0.0,0.75,-0.86,0.2,0.52,121.23,-5.3,12.6
3.48,0.0,0.0,0.25,0.0,0.0,0.0,0.0,0.0,0.0,0.0,0.0,0.0,0.0,-0.73,0.64,0.27,56.39,38.2,60.9,1.25,0.5,0.0,1.0,1.5,1.0,0.25,0.5,0.25,0.75,1.0,0.0,1.0,-0.92,0.14,0.58,116.62,-2.3,9.1
3.5,0.0,0.0,0.75,0.0,0.0,0.0,0.0,0.0,0.0,0.0,0.0,0.0,0.0,-0.73,0.7,0.27,28.8,38.2,60.9,1.25,0.75,0.0,1.0,1.75,1.0,0.25,0.5,0.25,1.5,1.0,0.25,1.0,-0.92,0.14,0.52,126.32,-1.3,3.7
3.52,0.0,0.0,0.5,0.0,0.0,0.0,0.0,0.0,0.0,0.0,0.0,0.0,0.0,-0.73,0.64,0.27,11.42,38.2,60.9,1.25,0.75,0.0,1.0,2.25,1.0,0.25,0.5,0.25,1.5,1.0,0.25,1.25,-0.98,0.08,0.52,145.77,-0.7,3.7
3.54,0.0,0.0,0.5,0.0,0.0,0.0,0.0,0.0,0.0,0.0,0.0,0.0,0.0,-0.73,0.64,0.27,0.16,38.2,60.9,1.25,0.5,0.5,1.0,1.75,0.5,0.25,0.5,0.25,1.5,1.0,0.0,1.25,-0.98,0.08,0.52,152.44,-3.4,2.7
3.56,0.0,0.0,0.75,0.0,0.0,0.0,0.0,0.0,0.0,0.0,0.0,0.0,0.0,-0.73,0.64,0.27,0.0,38.2,60.9,1.25,0.5,0.0,1.0,1.75,1.0,0.25,0.25,0.25,1.25,0.75,0.25,1.0,-0.98,0.08,0.52,155.0,-1.6,6.3
3.58,0.0,0.0,0.75,0.25,0.0,0.0,0.0,0.0,0.0,0.0,0.0,0.0,0.0,-0.73,0.7,0.27,0.0,32.9,60.2,1.25,0.5,0.0,1.0,2.25,1.0,0.25,0.25,0.25,1.0,1.0,0.25,1.25,-0.98,0.08,0.52,153.78,-1.6,6.1
3.6,0.0,0.0,0.5,0.0,0.0,0.0,0.0,0.0,0.0,0.0,0.0,0.0,0.0,-0.73,0.7,0.27,0.0,38.2,60.9,1.25,0.5,0.0,1.0,2.5,1.0,0.25,0.5,0.25,1.0,1.0,0.0,1.25,-0.92,0.08,0.52,154.86,-0.9,9.1
3.62,0.0,0.0,0.75,0.25,0.0,0.0,0.0,0.0,0.0,0.0,0.0,0.0,0.0,-0.73,0.7,0.27,0.0,32.9,60.2,1.25,0.75,0.0,1.0,1.75,0.75,0.25,0.25,0.25,1.5,1.0,0.0,1.25,-0.86,0.08,0.52,155.8,-1.7,3.9
3.64,0.0,0.0,0.75,0.25,0.0,0.0,0.0,0.0,0.0,0.0,0.0,0.0,0.0,-0.73,0.7,0.27,2.69,32.9,60.2,1.25,0.75,0.0,1.0,1.5,0.5,0.25,0.5,0.25,1.5,0.75,0.25,1.25,-0.86,0.08,0.52,155.26,-1.9,-0.2
3.66,0.0,0.0,0.75,0.25,0.0,0.0,0.0,0.0,0.0,0.0,0.0,0.0,0.0,-0.73,0.7,0.27,9.17,32.9,60.2,1.25,0.5,0.0,1.0,2.25,1.0,0.25,0.25,0.25,1.25,1.0,0.25,1.25,-0.86,0.08,0.52,158.64,-1.2,4.2
3.68,0.0,0.0,0.75,0.0,0.0,0.0,0.0,0.0,0.0,0.0,0.0,0.0,0.0,-0.73,0.7,0.27,11.94,38.2,60.9,1.25,0.5,0.0,1.0,2.25,0.75,0.25,0.25,0.25,0.75,1.0,0.25,1.25,-0.92,0.08,0.52,158.13,-2.6,7.5
3.7,0.0,0.0,0.75,0.0,0.0,0.0,0.0,0.0,0.0,0.0,0.0,0.0,0.0,-0.67,0.64,0.27,16.49,38.2,60.9,1.25,0.5,0.0,1.0,1.75,1.0,0.25,0.25,0.25,1.0,1.0,0.5,1.25,-0.92,0.08,0.52,155.96,-2.1,0.5
3.72,0.0,0.0,0.25,0.0,0.0,0.0,0.0,0.0,0.0,0.0,0.0,0.0,0.0,-0.67,0.64,0.27,12.49,38.2,60.9,1.25,0.25,0.0,1.0,2.25,0.75,0.25,0.5,0.25,1.25,1.0,0.25,1.25,-0.92,0.08,0.52,152.24,-1.0,0.2
3.74,0.0,0.0,0.75,0.0,0.0,0.0,0.0,0.0,0.0,0.0,0.0,0.0,0.0,-0.73,0.7,0.27,11.48,38.2,60.9,1.25,0.75,0.0,1.0,2.25,1.0,0.5,0.25,0.25,1.0,0.75,0.0,1.25,-0.92,0.08,0.52,152.76,-1.8,13.4
3.76,0.0,0.0,0.5,0.0,0.0,0.0,0.0,0.0,0.0,0.0,0.0,0.0,0.0,-0.73,0.7,0.27,9.9,38.2,60.9,1.25,0.75,0.0,1.0,1.75,0.5,0.25,0.25,0.0,1.5,1.0,0.25,1.0,-0.92,0.08,0.52,150.0,-2.6,4.4
3.78,0.0,0.0,1.25,0.0,0.0,0.0,0.0,0.0,0.0,0.0,0.0,0.0,0.0,-0.73,0.7,0.27,14.26,38.2,61.0,1.25,1.0,0.0,1.0,1.75,0.5,0.25,0.25,0.25,1.25,1.0,0.0,1.0,-0.92,0.08,0.52,148.92,-3.5,10.9
3.8,0.0,0.0,0.75,0.0,0.0,0.0,0.0,0.0,0.0,0.0,0.0,0.0,0.0,-0.73,0.7,0.27,14.41,38.2,60.9,1.25,0.5,0.0,1.0,2.25,0.5,0.25,0.25,0.25,1.25,1.0,0.0,1.25,-0.92,0.14,0.52,147.89,-2.1,5.6
3.82,0.0,0.0,0.5,0.0,0.0,0.0,0.0,0.0,0.0,0.0,0.0,0.0,0.0,-0.73,0.7,0.27,13.77,38.2,60.9,1.25,0.5,0.0,1.0,1.5,1.0,0.25,0.5,0.25,1.25,1.0,0.25,1.25,-0.92,0.14,0.52,147.11,-1.1,-1.0
3.84,0.0,0.0,1.0,0.0,0.0,0.0,0.0,0.0,0.0,0.0,0.0,0.0,0.0,-0.67,0.7,0.27,14.64,38.2,60.9,1.25,0.75,0.0,1.0,1.75,1.0,0.25,0.0,0.25,1.25,1.0,0.25,1.25,-0.92,0.08,0.52,148.3,-2.2,4.9
3.86,0.0,0.0,0.25,0.0,0.0,0.0,0.0,0.0,0.0,0.0,0.0,0.0,0.0,-0.67,0.7,0.27,10.69,38.2,60.9,1.25,0.5,0.0,1.0,2.25,1.0,0.25,0.25,0.25,0.75,1.0,0.0,1.25,-0.92,0.08,0.52,149.71,-1.9,11.1
3.88,0.0,0.0,0.5,0.0,0.0,0.0,0.0,0.0,0.0,0.0,0.0,0.0,0.0,-0.73,0.7,0.27,9.57,38.2,60.9,1.25,0.5,0.0,1.0,1.75,0.5,0.25,0.25,0.25,0.75,1.0,0.0,1.0,-0.92,0.08,0.58,143.77,-4.0,10.6
3.9,0.0,0.0,0.75,0.0,0.0,0.0,0.0,0.0,0.0,0.0,0.0,0.0,0.0,-0.73,0.7,0.27,9.89,38.2,60.9,1.25,0.75,0.0,1.0,2.25,1.0,0.25,0.25,0.25,2.5,1.0,0.0,1.0,-0.92,0.08,0.52,151.42,0.1,2.7
3.92,0.0,0.0,0.75,0.25,0.0,0.0,0.0,0.0,0.0,0.0,0.0,0.0,0.0,-0.73,0.7,0.27,13.46,32.9,60.2,1.25,0.5,0.0,1.0,2.25,1.0,0.25,0.25,0.25,0.5,1.0,0.25,1.0,-0.92,0.08,0.52,150.79,-2.9,13.5
3.94,0.0,0.0,0.5,0.25,0.0,0.0,0.0,0.0,0.0,0.0,0.0,0.0,0.0,-0.67,0.7,0.27,14.35,31.1,59.9,1.25,0.5,0.0,1.0,2.25,1.0,0.25,0.5,0.25,1.25,0.75,0.0,1.25,-0.86,0.08,0.52,155.09,-0.4,7.8
3.96,0.0,0.0,1.5,0.5,0.0,0.0,0.25,0.0,0.25,0.75,0.0,1.0,0.5,-0.67,0.7,0.27,35.72,13.8,-22.1,1.25,0.5,0.25,1.0,1.75,0.5,0.25,0.25,0.25,1.5,1.0,0.0,1.0,-0.86,0.08,0.58,151.23,-3.4,5.2
3.98,0.0,0.0,1.5,0.5,0.0,0.0,0.0,0.0,0.25,0.75,0.0,1.0,0.25,-0.73,0.7,0.27,51.63,14.9,-18.3,1.25,0.5,0.0,1.0,2.5,1.0,0.25,0.0,0.25,1.25,1.0,0.0,1.25,-0.92,0.08,0.58,154.14,-1.3,9.3
4.0,0.0,0.0,1.0,0.5,0.0,0.0,0.0,0.0,0.25,1.0,0.0,1.0,0.5,-0.73,0.7,0.27,66.59,8.7,-36.6,1.25,0.5,0.0,1.0,2.25,1.0,0.25,0.0,0.25,1.0,0.75,0.25,0.75,-0.92,0.08,0.52,150.12,-2.7,15.8
4.02,0.0,0.0,1.0,0.0,0.0,0.0,0.25,0.0,0.0,0.0,0.0,0.0,0.0,-0.67,0.7,0.27,57.32,37.6,57.4,1.25,0.75,0.0,1.0,2.25,1.0,0.25,0.25,0.25,1.0,0.75,0.25,1.25,-0.92,0.08,0.52,152.78,-1.7,10.3
4.04,0.0,0.0,0.5,0.25,0.0,0.0,0.0,0.0,0.0,0.0,0.0,1.0,0.0,-0.67,0.7,0.27,49.36,18.6,-35.3,1.25,0.5,0.0,1.0,1.75,1.0,0.25,0.25,0.25,0.75,1.0,0.5,1.25,-0.92,0.08,0.52,150.72,-2.5,2.5
4.06,0.0,0.0,1.0,0.5,0.0,0.0,0.0,0.0,0.0,0.75,0.0,1.0,0.5,-0.73,0.7,0.27,48.52,10.0,-33.9,1.0,0.5,0.0,1.0,2.25,1.0,0.25,0.5,0.25,1.5,1.0,0.25,1.0,-0.92,0.14,0.58,153.97,0.0,2.0
4.08,0.0,0.0,1.0,0.5,0.0,0.0,0.0,0.0,0.0,0.75,0.0,1.0,0.5,-0.73,0.7,0.27,53.55,10.0,-33.9,1.25,0.5,0.0,1.0,2.25,1.0,0.25,0.5,0.25,0.75,1.0,0.25,1.0,-0.92,0.08,0.58,153.76,-2.0,10.0
4.1,0.25,0.0,1.75,0.5,0.0,0.0,0.0,0.0,0.0,0.75,0.0,1.0,0.25,-0.67,0.7,0.27,64.92,17.4,-6.8,1.25,0.75,0.0,1.0,2.25,1.0,0.25,0.25,0.25,1.5,0.75,0.25,1.0,-0.92,0.08,0.58,157.24,-1.2,9.2
4.12,0.0,0.0,1.0,0.5,0.0,0.0,0.0,0.0,0.25,0.75,0.0,1.0,0.25,-0.73,0.7,0.27,67.7,11.8,-29.0,1.25,0.5,0.0,1.0,1.75,1.0,0.25,0.5,0.25,1.0,1.0,0.25,1.0,-0.92,0.08,0.58,154.58,-1.8,5.2
4.14,0.0,0.0,1.25,0.5,0.0,0.0,0.0,0.0,0.0,0.75,0.0,1.0,0.25,-0.73,0.7,0.27,67.59,13.5,-22.3,1.25,0.5,0.0,1.0,2.25,1.0,0.25,0.25,0.25,1.0,1.0,0.0,0.75,-0.92,0.08,0.52,151.19,-2.2,15.3
4.16,0.0,0.0,1.0,0.5,0.0,0.0,0.0,0.0,0.0,0.75,0.0,1.0,0.25,-0.67,0.7,0.27,62.07,11.8,-28.4,1.25,0.25,0.0,1.0,2.25,1.0,0.25,0.25,0.25,0.5,1.0,0.5,1.0,-0.86,0.08,0.58,148.84,-2.8,8.0
4.18,0.0,0.0,1.0,0.5,0.0,0.0,0.0,0.0,0.0,0.75,0.0,0.75,0.5,-0.67,0.7,0.27,58.41,10.1,-28.6,1.25,0.5,0.0,1.0,1.5,1.0,0.25,0.0,0.25,1.0,0.75,0.25,1.25,-0.86,0.08,0.52,143.48,-2.3,5.0
4.2,0.0,0.0,1.0,0.5,0.0,0.0,0.0,0.0,0.0,0.75,0.0,0.75,0.5,-0.67,0.7,0.33,54.39,10.1,-28.6,1.25,0.5,0.0,1.0,1.5,1.0,0.25,0.25,0.25,1.0,1.0,0.25,1.0,-0.86,0.08,0.52,140.67,-2.5,4.9
4.22,0.0,0.0,1.0,0.5,0.0,0.0,0.0,0.0,0.0,0.75,0.0,1.0,0.5,-0.73,0.7,0.27,56.71,10.0,-33.9,1.25,0.75,0.0,0.75,2.25,1.0,0.25,0.0,0.0,1.5,0.75,0.25,1.0,-0.86,0.08,0.58,141.7,-1.0,10.3
4.24,0.0,0.0,1.0,0.5,0.0,0.0,0.0,0.0,0.0,0.75,0.0,1.0,0.5,-0.73,0.7,0.27,58.92,10.0,-33.9,1.25,0.5,0.0,1.0,1.75,0.75,0.25,0.5,0.25,0.0,1.0,0.25,1.25,-0.92,0.08,0.52,139.53,-4.0,10.3
4.26,0.0,0.0,0.75,0.5,0.0,0.0,0.0,0.0,0.0,0.75,0.0,0.75,0.25,-0.67,0.7,0.27,57.01,9.8,-29.3,1.25,0.5,0.0,1.0,1.75,1.0,0.25,0.25,0.5,0.75,1.0,0.25,1.0,-0.92,0.14,0.52,140.08,-3.0,7.4
4.28,0.0,0.0,1.25,0.5,0.0,0.0,0.0,0.0,0.0,0.75,0.0,0.75,0.25,-0.67,0.7,0.27,54.62,13.9,-16.2,1.25,0.75,0.0,1.0,1.75,1.0,0.25,0.25,0.25,1.0,1.0,0.0,1.0,-0.92,0.14,0.58,141.11,-2.4,11.9
4.3,0.0,0.0,1.0,0.5,0.0,0.0,0.0,0.0,0.0,0.75,0.0,1.0,0.25,-0.67,0.7,0.27,51.79,11.8,-28.4,1.25,0.25,0.0,1.0,2.25,1.0,0.25,0.0,0.25,0.75,0.75,0.0,1.0,-0.98,0.14,0.58,139.48,-2.3,15.8
4.32,0.0,0.0,1.0,0.5,0.0,0.0,0.0,0.0,0.0,0.75,0.0,1.0,0.0,-0.67,0.7,0.27,50.91,13.7,-22.0,1.25,0.5,0.0,1.0,2.25,1.0,0.25,0.0,0.25,0.25,0.75,0.25,1.25,-0.98,0.14,0.52,139.15,-3.3,16.2
