time,left pressure 0[N/cm²],left pressure 1[N/cm²],left pressure 2[N/cm²],left pressure 3[N/cm²],left pressure 4[N/cm²],left pressure 5[N/cm²],left pressure 6[N/cm²],left pressure 7[N/cm²],left pressure 8[N/cm²],left pressure 9[N/cm²],left pressure 10[N/cm²],left pressure 11[N/cm²],left pressure 12[N/cm²],left acceleration X[g],left acceleration Y[g],left acceleration Z[g],left total force[N],left center of pressure X[mm],left center of pressure Y[mm],right pressure 0[N/cm²],right pressure 1[N/cm²],right pressure 2[N/cm²],right pressure 3[N/cm²],right pressure 4[N/cm²],right pressure 5[N/cm²],right pressure 6[N/cm²],right pressure 7[N/cm²],right pressure 8[N/cm²],right pressure 9[N/cm²],right pressure 10[N/cm²],right pressure 11[N/cm²],right pressure 12[N/cm²],right acceleration X[g],right acceleration Y[g],right acceleration Z[g],right total force[N],right center of pressure X[mm],right center of pressure Y[mm]
0.02,5.25,1.5,7.0,7.5,0.0,1.75,1.0,6.5,3.0,6.25,5.0,2.5,2.75,-0.17,0.02,0.95,699.94,8.9,-3.8,0.5,0.0,0.5,1.25,1.0,0.75,0.25,1.25,0.0,0.25,1.0,0.5,0.25,-0.17,0.77,0.89,92.9,-3.8,2.5
0.04,4.25,1.25,7.0,6.75,0.0,1.75,1.0,6.5,3.0,6.25,5.25,2.5,3.0,-0.17,0.02,0.95,691.7,8.2,-8.3,0.5,0.0,0.5,0.75,0.5,0.75,0.0,1.0,0.0,0.25,0.5,0.5,1.0,-0.11,0.58,0.95,93.5,-0.9,-13.3
0.06,3.25,1.25,6.25,6.0,0.0,1.75,1.25,6.75,3.0,6.25,5.75,2.75,4.0,-0.17,0.02,0.95,677.15,6.5,-16.0,0.5,0.0,0.5,0.75,0.25,0.75,0.25,1.0,0.0,0.25,1.25,0.25,1.0,-0.05,0.33,0.95,94.4,-2.5,-18.7
0.08,2.5,1.0,6.25,5.75,0.0,1.75,1.0,7.0,3.0,7.0,6.0,3.25,4.25,-0.17,0.02,0.95,663.23,5.4,-21.6,0.5,0.0,1.0,0.75,1.0,0.5,0.25,1.0,0.0,0.25,0.5,0.5,1.0,0.08,0.14,0.83,97.08,-4.5,-3.6
0.1,3.0,1.0,5.25,4.75,0.0,1.75,1.0,7.0,2.75,7.0,6.25,3.5,4.5,-0.17,0.02,0.95,650.59,4.6,-25.1,0.5,0.0,0.25,0.75,0.5,0.5,0.25,1.0,0.0,0.25,0.75,0.5,1.0,0.14,-0.05,0.77,94.21,-1.3,-19.8
0.12,1.25,1.0,5.0,4.0,0.0,1.75,1.0,7.0,2.75,7.0,6.5,3.5,5.25,-0.17,0.02,0.95,636.97,2.8,-33.2,0.5,0.25,0.0,0.75,0.5,0.5,0.0,1.0,0.0,0.25,0.75,0.5,0.75,0.2,-0.42,0.77,88.31,-0.2,-15.1
0.14,0.5,1.0,3.5,3.5,0.0,1.5,1.0,7.0,2.5,7.0,6.5,4.0,5.25,-0.17,0.02,0.95,619.39,1.0,-41.1,0.5,0.0,0.0,0.5,1.0,0.75,0.0,1.0,0.0,0.25,0.75,0.5,0.25,0.14,-0.86,0.7,84.01,1.1,-5.9
0.16,0.0,1.0,2.25,0.25,0.0,1.25,0.75,7.0,2.25,7.0,6.5,4.5,6.0,-0.23,0.02,0.95,587.36,-2.2,-58.0,0.25,0.0,0.0,0.75,1.25,0.5,0.0,1.0,0.0,0.25,0.75,0.5,0.5,0.2,-1.48,0.33,81.66,1.5,-10.4
0.18,1.0,0.75,1.0,2.0,0.0,1.0,0.5,6.5,1.75,7.75,6.5,4.5,6.25,-0.23,0.02,0.95,562.38,-2.1,-55.8,0.75,0.0,0.5,1.75,0.25,0.75,0.0,1.0,0.0,0.0,0.5,0.5,0.75,0.27,-1.8,0.14,88.14,-6.0,4.5
0.2,0.75,1.0,0.0,1.0,0.0,0.5,0.0,6.5,1.25,7.5,6.5,4.75,6.75,-0.23,0.08,1.02,534.97,-4.1,-65.1,2.0,1.0,2.25,3.25,1.25,1.25,0.0,1.0,0.0,0.25,0.5,0.5,0.75,0.77,-3.73,5.83,136.09,-12.0,35.6
0.22,1.0,1.0,1.75,1.75,0.0,0.5,0.0,6.0,1.0,7.0,6.0,4.5,6.75,-0.23,0.14,1.27,517.98,-1.5,-55.4,3.75,1.0,6.25,5.5,4.25,1.25,0.25,1.0,0.0,0.25,0.0,0.0,0.5,-0.11,0.2,1.2,228.45,-16.7,55.1
0.24,0.75,1.0,1.75,1.75,0.0,0.0,0.25,5.25,0.75,6.25,5.0,4.25,6.75,-0.3,0.14,1.33,484.78,-1.2,-56.5,5.5,2.5,8.75,8.0,5.25,3.0,0.5,1.25,0.0,0.25,0.0,0.0,0.0,0.08,0.27,1.08,354.87,-16.7,60.2
0.26,0.75,1.0,1.5,1.75,0.0,0.0,0.25,4.5,0.75,5.0,3.5,2.5,6.0,-0.48,0.27,1.33,423.71,-1.4,-51.3,6.25,3.0,8.5,10.5,6.75,5.0,0.75,2.5,0.0,1.0,0.25,0.75,0.75,-0.17,-0.05,1.39,554.99,-12.5,48.6
0.28,0.0,1.0,1.5,1.75,0.0,0.0,0.25,4.5,0.75,3.75,2.75,0.75,4.0,-0.23,0.08,1.33,344.93,-1.8,-43.5,7.0,3.25,10.5,11.0,8.25,6.0,1.75,3.25,0.75,1.25,1.0,0.75,0.5,0.2,0.14,1.89,796.9,-12.4,46.0
0.3,0.75,0.0,1.75,0.0,0.0,0.0,0.25,4.0,0.0,0.0,1.75,0.0,2.75,-0.17,0.08,1.14,249.42,0.8,-37.0,7.25,3.0,10.5,11.0,8.5,6.25,2.75,5.25,1.25,1.75,1.5,1.0,1.5,0.27,0.2,1.2,1022.83,-10.8,37.2
0.32,0.0,0.0,0.0,0.0,0.0,0.0,1.0,0.0,0.0,0.75,0.0,0.0,0.5,-0.17,1.39,0.89,127.74,-1.9,-57.3,7.5,3.0,10.5,11.0,8.5,6.5,3.5,6.25,1.5,3.5,2.5,1.5,1.75,0.2,0.14,1.08,1221.27,-9.7,29.7
0.34,0.0,0.0,0.0,0.0,0.0,0.0,0.0,0.0,0.0,0.0,0.0,0.0,0.0,0.08,3.27,0.45,8.16,0.0,0.0,7.5,3.0,10.5,11.0,8.25,6.25,3.75,6.5,1.5,3.5,3.5,1.75,2.0,0.14,0.14,1.02,1343.0,-9.7,26.8
0.36,0.0,0.0,0.0,0.0,0.0,0.0,0.0,0.0,0.0,0.0,0.0,0.0,0.0,1.2,2.14,1.45,0.0,0.0,0.0,7.25,3.0,10.0,10.5,8.25,6.25,3.5,6.25,1.5,3.25,3.25,1.5,1.75,0.14,0.14,0.95,1381.39,-9.6,28.1
0.38,0.0,0.0,0.0,0.0,0.0,0.0,0.0,0.0,0.0,0.0,0.0,0.0,0.0,-0.05,2.27,0.83,0.0,0.0,0.0,7.0,2.75,10.5,10.5,8.25,6.25,2.75,6.0,1.25,2.25,2.5,1.25,1.0,0.2,0.14,0.95,1363.91,-10.3,33.5
0.4,0.0,0.0,0.0,0.0,0.0,0.0,0.0,0.0,0.0,0.0,0.0,0.0,0.0,-0.23,1.77,1.2,0.0,0.0,0.0,6.75,2.5,9.75,9.25,8.0,6.0,2.75,5.25,0.75,2.0,2.5,1.0,1.25,0.14,0.14,0.89,1295.18,-10.3,33.9
0.42,0.0,0.0,0.0,0.0,0.0,0.0,0.0,0.0,0.0,0.0,0.0,0.0,0.0,0.08,1.33,1.33,0.0,0.0,0.0,6.25,2.5,9.75,9.0,7.25,5.75,2.25,5.25,0.75,2.0,2.0,0.75,1.5,0.14,0.14,0.89,1172.69,-10.2,33.9
0.44,0.0,0.0,0.0,0.0,0.0,0.0,0.0,0.0,0.0,0.0,0.0,0.0,0.0,0.02,1.02,1.33,0.0,0.0,0.0,6.0,1.75,9.25,7.5,7.0,5.25,2.0,5.25,1.0,2.25,2.5,1.25,1.5,0.14,0.14,0.89,1036.21,-9.7,28.4
0.46,0.0,0.0,0.0,0.0,0.0,0.0,0.0,0.0,0.0,0.0,0.0,0.0,0.0,-0.05,0.58,1.33,0.0,0.0,0.0,5.25,1.75,9.0,7.25,6.25,5.25,1.75,5.25,1.25,3.5,2.5,1.25,1.5,0.14,0.14,0.89,923.64,-8.8,23.9
0.48,0.0,0.0,0.0,0.0,0.0,0.0,0.0,0.0,0.0,0.0,0.0,0.0,0.0,-0.05,0.39,1.33,0.0,0.0,0.0,5.0,1.5,8.75,7.25,6.5,5.25,1.75,5.75,1.25,4.5,3.25,2.0,2.0,0.14,0.14,0.95,859.73,-7.6,16.4
0.5,0.0,0.0,0.0,0.0,0.0,0.0,0.0,0.0,0.0,0.0,0.0,0.0,0.0,-0.05,0.14,1.2,0.0,0.0,0.0,5.0,1.5,8.25,6.0,6.0,5.25,1.75,6.0,1.5,5.75,3.75,2.25,2.25,0.14,0.14,0.95,823.53,-6.5,10.1
0.52,2.5,0.0,1.75,0.0,0.0,0.0,0.5,3.25,0.0,0.0,0.25,0.0,1.0,-0.17,0.02,1.14,20.7,10.3,9.8,4.0,1.25,8.0,5.5,5.5,5.25,1.75,7.0,2.0,6.5,5.0,3.25,3.25,0.14,0.14,0.95,821.91,-5.0,-1.1
0.54,0.0,0.0,0.0,0.0,0.0,0.0,0.0,0.0,0.0,0.0,0.0,0.0,0.0,-0.3,-0.11,0.95,35.1,0.0,0.0,3.25,0.75,7.75,5.25,5.5,5.25,1.75,7.5,2.0,7.75,6.5,4.25,4.5,0.14,0.14,0.95,848.04,-3.6,-11.1
0.56,0.0,0.0,0.0,0.0,0.0,0.0,0.0,0.0,0.0,0.0,0.0,0.0,0.0,-0.36,-0.17,0.89,41.56,0.0,0.0,2.25,0.75,7.5,3.25,4.25,5.25,1.75,7.75,2.0,8.25,7.25,5.0,6.0,0.14,0.14,0.95,864.55,-2.2,-22.1
0.58,0.0,0.0,0.0,0.0,0.0,0.0,0.0,0.0,0.0,0.0,0.0,0.0,0.0,-0.42,-0.3,0.83,21.89,0.0,0.0,2.0,0.75,6.75,3.25,4.5,4.5,1.75,8.25,2.0,9.0,8.0,5.75,7.25,0.14,0.14,0.95,895.77,-1.4,-28.0
0.6,0.0,0.0,0.0,0.0,0.0,0.0,0.0,0.0,0.0,0.0,0.0,0.0,0.0,-0.48,-0.42,0.89,11.01,0.0,0.0,1.25,0.0,4.25,2.75,2.75,3.25,1.5,8.25,2.0,9.5,8.5,6.25,7.75,0.14,0.14,0.95,897.77,0.4,-42.6
0.62,0.0,0.0,0.0,0.0,0.0,0.0,0.0,0.0,0.0,0.0,0.0,0.0,0.0,-0.48,-0.42,0.89,0.0,0.0,0.0,1.0,0.0,1.75,1.75,2.25,3.25,1.0,7.75,1.75,9.75,8.75,7.0,8.75,0.14,0.08,0.95,889.34,2.9,-53.9
0.64,0.0,0.0,0.0,0.0,0.0,0.0,0.0,0.0,0.0,0.0,0.0,0.0,0.0,-0.48,-0.3,0.83,0.0,0.0,0.0,1.0,0.0,2.5,2.0,2.75,3.25,0.5,7.75,1.0,9.75,9.0,7.5,9.25,0.14,0.08,0.95,885.5,2.6,-52.3
0.66,0.0,0.0,0.0,0.0,0.0,0.0,0.0,0.0,0.0,0.0,0.0,0.0,0.0,-0.55,-0.17,0.83,0.0,0.0,0.0,0.0,0.0,0.0,0.5,1.75,2.25,0.5,7.0,0.5,9.0,8.25,6.5,8.75,0.08,0.14,1.02,818.6,6.0,-68.1
0.68,0.0,0.0,0.0,0.0,0.0,0.0,0.0,0.0,0.0,0.0,0.0,0.0,0.0,-0.55,-0.11,0.83,0.0,0.0,0.0,0.0,0.0,0.0,0.5,2.25,1.5,0.75,7.25,0.75,9.0,7.75,7.0,11.0,0.14,0.08,1.08,781.92,6.0,-69.9
0.7,0.0,0.0,0.0,0.0,0.0,0.0,0.0,0.0,0.0,0.0,0.0,0.0,0.0,-0.42,-0.11,0.77,0.0,0.0,0.0,0.5,0.25,0.0,1.25,0.5,2.0,0.0,6.0,0.5,9.0,7.75,7.75,10.5,0.14,0.08,1.08,735.2,5.1,-71.5
0.72,0.75,1.0,0.0,1.75,0.0,0.0,0.0,0.0,0.25,1.5,0.0,0.25,0.0,-0.36,-0.11,0.7,26.71,9.1,22.7,0.75,0.0,0.25,2.0,1.25,3.0,0.5,5.75,0.0,8.75,7.5,7.75,10.5,0.14,0.08,1.2,720.65,4.7,-64.3
0.74,0.0,0.25,0.0,1.75,0.0,0.0,0.0,0.0,0.5,1.25,0.0,0.25,0.0,-0.48,-1.8,0.95,45.38,5.7,-2.2,0.0,0.0,0.0,0.5,0.5,0.5,0.0,4.0,0.0,8.0,6.75,7.75,11.0,0.14,0.08,1.2,663.79,5.4,-83.4
0.76,1.0,1.0,2.75,4.0,0.0,0.0,1.5,2.75,0.5,1.25,0.0,0.25,0.5,-1.05,-4.17,2.14,120.69,12.3,21.6,0.0,0.0,0.0,0.5,0.5,0.5,0.0,2.75,0.0,7.5,5.75,7.25,10.5,0.27,0.08,1.2,599.23,5.4,-84.6
0.78,0.5,1.0,0.0,6.0,0.0,0.0,0.0,3.0,0.0,2.0,0.0,0.5,0.5,0.02,0.33,2.14,175.94,3.8,9.6,0.0,0.0,0.0,0.75,0.5,0.5,0.0,2.5,0.0,6.5,4.75,6.5,9.5,0.2,0.02,1.27,513.82,5.3,-82.9
0.8,2.5,0.75,5.25,7.5,0.0,2.75,0.75,4.5,1.5,2.25,1.0,1.25,1.25,-0.3,-0.17,2.45,284.13,9.5,14.0,0.0,0.0,0.0,0.5,0.5,0.25,0.0,1.25,0.0,5.0,4.0,5.75,8.75,0.14,0.02,1.33,423.92,4.9,-86.5
0.82,3.5,1.5,5.25,7.5,6.5,3.0,1.25,6.25,3.75,5.0,3.5,2.5,2.0,-0.11,-0.05,1.45,478.57,5.7,4.9,0.0,0.0,0.0,0.5,0.5,0.5,0.0,1.0,0.0,1.75,2.5,4.0,8.0,0.14,-0.05,1.33,329.15,5.2,-85.3
0.84,4.25,2.0,5.75,7.5,6.5,2.75,1.75,6.5,4.0,5.0,5.0,2.5,2.75,-0.23,-0.17,1.2,729.72,6.4,3.3,0.0,0.0,0.0,0.5,0.5,0.5,0.25,1.5,0.0,0.5,1.5,1.75,5.75,0.2,0.02,1.52,245.12,6.4,-75.4
0.86,4.25,2.25,6.0,7.5,7.0,3.0,1.5,6.25,3.75,4.5,4.25,2.25,2.75,-0.11,0.08,0.95,927.56,6.5,7.3,0.0,0.0,0.0,1.25,0.5,1.25,0.5,1.0,0.0,1.25,2.0,1.5,4.75,0.39,0.39,1.2,179.24,4.8,-59.6
0.88,4.0,2.5,6.0,7.5,7.0,3.0,1.5,6.5,3.5,4.75,4.25,2.25,2.5,-0.17,0.08,0.89,1043.46,6.3,7.5,0.5,0.0,0.75,0.5,1.0,0.5,0.5,1.0,0.0,0.0,1.5,1.0,3.75,-0.05,1.83,0.2,117.13,-0.2,-43.3
0.9,3.25,2.25,5.25,7.25,7.25,3.0,1.25,6.75,3.5,5.0,4.25,2.25,2.5,-0.17,0.08,0.95,1073.53,5.1,4.5,0.0,0.0,0.75,0.5,0.5,0.5,0.0,1.0,0.0,0.0,0.25,0.75,3.0,-0.92,1.2,1.27,69.15,3.2,-47.6
0.92,2.5,1.75,5.0,6.0,6.25,2.75,1.0,6.5,3.5,5.0,5.25,2.5,2.75,-0.17,0.02,0.95,1031.11,4.5,-3.0,0.0,0.0,0.0,0.5,0.0,0.5,0.0,1.0,0.0,0.0,0.0,0.75,2.75,-0.55,1.14,0.89,22.01,9.1,-69.1
0.94,1.75,1.0,3.75,5.75,5.5,2.0,1.0,6.75,3.5,5.25,5.25,3.0,3.25,-0.17,0.02,0.95,955.01,3.2,-12.5,0.0,0.0,0.0,0.5,0.0,0.25,0.0,0.75,0.0,0.0,0.25,0.5,2.25,-0.3,0.95,0.89,0.0,7.3,-69.6
0.96,0.0,1.0,3.25,3.75,4.0,1.75,1.25,6.75,3.5,6.25,4.5,3.5,4.0,-0.17,0.02,0.95,841.7,0.6,-26.9,0.75,0.0,0.0,0.5,0.0,0.5,0.0,0.5,0.0,0.0,0.25,0.5,2.25,-0.3,0.64,0.95,0.0,1.9,-44.1
0.98,0.0,1.0,1.5,3.5,0.0,1.75,1.0,6.75,3.0,6.25,5.5,3.5,4.5,-0.17,0.02,0.95,719.32,-0.9,-44.0,0.0,0.0,0.0,0.5,1.0,0.5,0.25,1.0,0.0,0.25,1.25,1.25,3.0,-0.23,0.45,0.95,10.37,4.4,-56.6
1.0,0.0,1.0,1.25,2.0,0.0,1.25,0.25,6.75,2.5,6.25,5.25,4.0,5.25,-0.17,0.02,0.95,605.65,-2.5,-53.2,1.0,0.0,0.5,0.5,1.25,1.75,0.75,1.25,0.0,0.0,0.5,1.0,2.5,-0.17,0.39,0.95,51.72,1.0,-16.8
1.02,0.0,1.0,0.5,1.75,0.0,1.0,0.5,6.75,2.25,6.75,6.0,4.5,5.5,-0.17,0.02,0.95,535.86,-3.2,-58.8,0.0,0.0,0.0,0.5,0.0,0.5,0.0,0.0,0.0,0.0,0.25,0.5,2.0,-0.11,0.39,1.08,57.77,6.0,-66.6
1.04,0.0,1.0,0.0,1.75,0.0,0.5,0.25,6.75,1.5,7.0,6.25,5.25,6.25,-0.23,0.08,1.02,485.83,-3.9,-64.7,0.0,0.0,0.0,0.5,0.0,0.5,0.0,0.0,0.0,0.0,0.25,0.5,2.0,-0.05,0.27,1.14,57.46,6.0,-66.6
1.06,0.0,1.0,1.75,1.25,0.0,0.0,0.25,6.5,1.25,6.5,5.75,5.5,6.5,-0.23,0.02,1.02,462.25,-1.9,-62.2,0.0,0.0,0.0,0.5,1.0,0.25,0.5,0.0,0.0,0.0,0.25,1.0,2.0,0.02,0.27,1.02,58.29,1.6,-45.2
1.08,0.25,0.0,0.5,0.25,0.0,0.0,0.25,6.0,0.75,7.75,6.25,5.75,7.0,-0.3,0.02,0.95,461.14,-4.6,-76.6,0.0,0.0,0.5,0.25,0.5,0.25,0.25,0.5,0.0,0.0,0.25,0.5,1.75,0.14,0.2,1.08,58.41,1.1,-42.3
1.1,0.0,0.75,0.0,2.0,0.0,0.0,0.25,6.0,0.0,7.25,6.25,6.0,7.75,-0.3,0.02,0.95,471.96,-4.3,-70.8,0.0,0.0,0.0,0.75,0.0,1.25,0.0,0.0,0.0,0.25,0.25,1.0,2.0,0.2,0.08,1.2,64.15,6.2,-52.0
1.12,0.75,1.0,0.25,2.0,0.0,0.0,0.5,5.75,0.75,7.75,5.75,6.0,7.5,-0.3,0.02,0.95,490.33,-2.9,-64.7,0.0,0.0,0.0,0.5,0.0,0.25,0.0,0.0,0.0,0.0,0.25,0.5,2.0,0.27,0.02,1.39,66.15,4.9,-73.2
1.14,0.0,1.0,0.0,0.0,0.0,0.0,0.25,6.0,0.5,7.75,6.25,5.75,8.0,-0.3,-0.05,0.95,504.06,-5.5,-76.8,0.0,0.0,0.0,0.25,0.0,0.25,0.0,0.0,0.0,0.0,0.0,0.5,2.0,0.33,0.02,0.95,62.51,8.0,-84.3
1.16,0.0,1.0,0.5,1.75,0.0,0.0,0.0,5.5,0.75,7.75,6.25,6.5,8.5,-0.23,-0.05,0.95,534.49,-3.5,-70.3,0.0,0.0,0.0,0.0,0.0,0.25,0.0,0.0,0.0,0.0,0.25,0.5,1.75,0.39,-0.17,0.95,51.82,8.3,-94.6
1.18,0.0,1.0,0.25,1.75,0.0,0.0,0.0,5.0,0.75,7.75,6.25,6.75,9.0,-0.3,-0.05,0.95,560.46,-3.7,-72.3,0.25,0.0,0.0,0.5,0.0,1.5,0.0,0.0,0.0,0.0,0.25,0.5,1.75,0.33,-0.36,1.08,52.94,6.9,-35.9
1.2,0.0,0.75,1.0,1.75,0.0,0.0,0.0,5.0,0.75,7.5,6.0,6.75,9.25,-0.36,-0.05,0.95,584.46,-3.0,-71.0,0.0,0.0,1.25,0.0,0.5,0.25,0.25,0.0,0.0,0.0,0.25,0.5,1.75,0.27,-0.42,0.95,54.75,-5.9,-31.5
1.22,0.0,0.0,0.0,0.0,0.0,0.0,0.0,4.25,1.0,7.0,5.75,6.25,9.0,-0.36,-0.05,1.08,567.33,-5.4,-85.7,0.0,0.0,0.0,0.0,0.0,0.25,0.0,0.0,0.0,0.0,0.25,0.5,1.75,0.27,-0.73,0.95,51.47,8.3,-94.6
1.24,0.0,0.0,1.0,1.75,0.0,0.0,0.0,3.0,0.25,6.25,4.0,6.75,8.0,-0.36,-0.05,1.08,526.84,-2.7,-75.8,0.0,0.0,0.0,0.0,0.0,0.25,0.0,0.0,0.0,0.0,0.25,1.0,1.75,0.45,-0.8,0.58,54.0,5.6,-96.9
1.26,0.0,0.25,1.5,0.5,0.0,0.0,0.0,4.25,0.75,5.5,4.0,6.75,8.5,-0.42,-0.05,1.08,490.89,-2.9,-76.2,0.0,0.0,0.0,0.0,0.5,0.25,0.25,0.0,0.0,0.25,1.25,1.0,3.0,0.52,-0.92,1.64,74.87,4.2,-79.7
1.28,0.75,1.0,0.0,1.75,0.0,0.0,0.0,3.5,0.5,6.25,0.0,6.25,8.5,-0.36,-0.11,1.2,444.2,-5.0,-69.3,0.0,0.0,0.0,0.0,0.0,0.0,0.0,0.0,0.0,0.5,0.5,2.0,3.75,1.45,-3.23,-0.98,94.44,5.5,-104.9
1.3,0.0,0.0,0.0,0.0,0.0,0.0,0.5,3.0,0.5,5.0,2.75,5.75,7.5,-0.3,-0.17,1.08,398.09,-5.6,-87.9,0.5,0.0,0.0,1.5,0.0,1.75,0.75,1.0,0.75,6.5,3.75,6.25,6.75,-5.48,-1.92,7.2,219.24,3.2,-71.3
1.32,0.0,0.0,0.0,0.0,0.0,0.0,0.25,3.0,0.0,3.5,0.0,4.5,7.25,-0.36,-0.17,1.14,335.22,-8.8,-91.0,0.75,0.0,0.5,1.75,1.0,0.5,0.75,2.5,0.75,6.0,6.0,6.0,8.25,1.27,-1.23,0.83,338.61,1.5,-66.9
1.34,0.0,0.0,0.0,0.0,0.0,0.0,0.0,1.75,0.0,3.5,0.0,4.5,5.75,-0.42,-0.17,0.77,277.27,-8.0,-94.2,0.0,0.0,1.25,2.75,1.25,2.75,0.75,2.25,0.25,5.5,5.0,5.5,6.75,-0.05,0.08,0.95,460.73,2.0,-53.8
1.36,0.0,0.0,0.0,0.0,0.0,0.0,0.0,2.25,0.0,2.0,0.25,3.5,5.25,-0.3,-0.3,0.64,222.67,-8.2,-92.1,1.0,0.5,2.75,2.75,1.25,2.75,0.75,2.5,1.0,6.5,6.0,6.0,7.5,0.02,0.33,0.77,578.59,-0.5,-46.5
1.38,0.0,0.0,0.0,0.0,0.0,0.0,0.0,1.75,0.0,2.0,0.0,2.5,5.0,0.02,-0.3,1.2,175.29,-9.5,-92.9,1.25,0.5,5.5,3.0,1.75,2.75,1.25,3.0,1.5,7.0,7.75,7.0,8.25,0.08,0.14,0.95,706.79,-3.1,-41.0
1.4,0.0,0.0,0.0,0.0,0.0,0.0,0.0,1.5,0.0,2.0,0.0,2.25,4.0,0.14,-0.3,1.33,133.67,-9.4,-92.0,1.75,0.25,5.0,3.0,2.5,2.75,1.5,4.0,2.0,7.25,8.25,7.0,8.75,0.08,0.08,1.02,821.95,-2.4,-40.9
1.42,0.0,0.0,1.5,0.0,0.0,0.0,0.0,1.75,0.5,1.5,0.0,0.0,0.0,0.08,-0.23,1.14,79.77,2.3,-20.0,1.25,0.25,5.5,2.75,2.5,3.0,1.25,4.0,1.75,7.0,8.5,7.0,9.0,0.08,0.14,1.02,909.7,-2.3,-41.7
1.44,0.0,0.0,0.0,0.0,0.0,0.0,0.0,1.5,0.0,0.75,0.0,0.5,2.25,0.14,-0.23,0.7,42.49,-12.6,-83.7,1.25,0.25,6.5,2.75,1.25,2.75,1.25,3.25,1.5,7.0,8.5,7.25,9.0,0.02,0.08,0.89,957.15,-3.5,-43.1
1.46,0.75,0.0,0.0,0.0,0.0,0.0,1.0,3.25,0.25,2.0,0.0,0.0,0.0,-0.05,0.95,0.52,23.4,-6.4,-30.7,1.5,0.5,6.5,3.0,1.5,2.75,1.5,3.25,2.0,7.75,8.5,7.75,9.5,0.08,0.14,0.95,985.29,-3.5,-42.3
1.48,0.0,0.0,1.25,1.0,0.0,0.0,0.5,0.0,0.5,2.0,0.0,0.75,1.75,-0.17,1.77,1.2,28.1,4.1,-39.9,1.5,0.5,7.25,3.25,1.25,2.75,1.75,3.25,2.0,8.0,9.5,8.0,9.75,0.02,0.08,0.95,1002.53,-4.1,-42.1
1.5,0.5,0.0,1.5,1.25,0.0,0.0,0.25,2.5,2.25,0.0,0.0,0.0,1.75,-0.3,1.83,1.45,51.73,6.2,-16.2,1.25,0.25,7.5,3.0,1.25,2.75,1.75,3.0,2.0,8.0,9.5,8.5,9.75,0.02,0.14,0.95,1009.97,-4.1,-43.9
1.52,0.5,0.0,1.5,1.5,0.0,0.0,0.5,2.75,0.0,0.5,0.0,1.0,1.75,-0.92,0.14,0.7,81.26,4.0,-21.7,1.25,0.25,7.25,2.0,1.25,2.75,1.5,2.5,1.5,7.75,9.0,8.25,9.75,-0.05,0.14,0.95,979.99,-3.8,-45.9
1.54,0.75,0.0,0.0,0.0,0.0,0.0,0.0,1.5,0.0,2.0,0.0,1.25,1.0,-1.92,-3.42,0.08,90.51,-5.4,-60.3,1.25,0.0,6.25,2.0,1.0,1.25,1.25,2.5,2.0,7.75,9.0,8.5,9.75,0.02,0.14,0.95,920.27,-3.9,-51.8
1.56,0.0,0.0,0.25,0.0,0.0,0.0,0.0,1.5,0.0,2.0,0.0,0.5,1.5,-1.86,-5.86,0.52,91.37,-10.9,-72.0,1.25,0.0,6.25,2.5,1.0,2.0,0.75,1.75,1.5,7.75,9.5,8.75,10.5,0.02,0.14,0.89,887.36,-3.6,-51.6
1.58,0.0,0.0,0.0,0.0,0.0,0.0,0.0,1.75,0.0,0.75,0.0,0.5,1.5,0.08,-0.23,-1.17,80.67,-12.7,-76.8,1.25,1.5,5.25,0.5,0.5,0.5,0.75,1.25,1.0,7.25,9.75,7.75,11.0,-0.11,0.14,1.02,831.15,-3.4,-57.3
1.6,0.0,0.0,0.5,0.0,0.0,0.0,0.25,2.25,0.0,2.0,0.25,1.0,1.5,-0.42,-0.3,1.45,89.84,-7.2,-65.3,0.75,0.0,4.75,2.0,0.5,1.5,0.5,1.0,1.0,7.75,9.5,8.5,11.0,-0.17,0.14,1.02,788.92,-2.3,-60.7
1.62,0.0,0.0,0.0,0.0,0.0,0.0,0.0,1.5,0.0,1.25,0.25,0.5,1.25,0.02,-0.42,1.39,86.47,-11.6,-76.8,1.0,0.0,2.75,2.0,1.0,1.0,0.5,0.0,0.75,7.25,9.0,8.5,10.5,-0.05,0.08,0.89,728.69,-1.7,-64.8
1.64,0.0,0.0,0.0,0.0,0.0,0.0,0.0,1.5,0.0,1.0,0.25,0.5,0.75,-0.05,-0.55,0.89,83.57,-11.0,-72.6,0.0,0.5,2.0,0.5,0.5,0.5,0.75,0.0,0.75,7.0,8.5,8.75,9.25,0.02,0.08,1.02,662.13,-0.7,-75.3
1.66,0.0,0.0,0.0,0.0,0.0,0.0,0.0,1.5,0.0,0.5,0.25,0.5,1.75,0.02,-0.55,0.77,78.85,-11.1,-80.7,0.5,0.0,2.0,1.75,1.0,0.5,0.0,0.0,0.75,6.5,9.25,9.5,10.5,0.02,0.08,1.02,629.27,-1.2,-72.2
1.68,0.0,0.0,0.0,0.0,0.0,0.0,0.0,1.5,0.0,1.0,0.25,0.25,1.75,0.14,-0.61,0.45,73.87,-12.6,-78.7,0.0,0.0,1.75,0.5,0.0,0.0,0.0,0.0,0.0,6.25,8.5,8.0,10.5,0.08,0.08,1.02,575.29,0.2,-84.7
1.7,0.0,0.0,0.0,0.0,0.0,0.0,0.0,1.75,0.0,0.25,0.25,0.0,1.75,0.14,-0.61,0.27,66.35,-13.6,-74.9,0.5,0.0,0.0,0.5,0.0,0.25,0.0,0.0,0.0,6.25,8.5,8.25,10.5,-0.17,0.08,0.95,535.56,1.8,-89.2
1.72,0.0,0.0,0.0,0.0,0.0,0.0,0.0,1.75,0.0,1.25,0.25,0.5,2.5,-0.48,-0.23,0.52,76.3,-12.2,-82.0,0.0,0.0,0.0,0.5,0.0,0.0,0.0,0.0,0.0,5.75,8.5,8.25,10.0,-0.11,-0.05,0.83,495.05,1.8,-92.6
1.74,0.0,0.0,0.0,0.0,0.0,0.0,0.0,2.0,0.0,2.0,0.25,2.0,3.0,-1.36,-0.17,0.77,104.24,-9.3,-86.3,0.0,0.0,0.25,0.5,0.0,0.5,0.0,0.0,0.25,7.75,8.5,9.75,9.5,0.08,-0.05,0.95,501.45,1.8,-89.1
1.76,0.0,0.0,0.0,1.5,0.0,0.0,0.0,2.5,0.0,2.25,0.75,1.25,4.25,-1.05,-0.42,1.08,146.18,-7.2,-66.9,0.0,0.0,0.0,0.5,0.5,0.5,0.0,0.0,0.0,7.0,9.5,9.0,12.0,0.33,-0.05,1.08,526.5,2.6,-89.2
1.78,0.0,0.0,1.0,0.5,0.0,0.0,0.25,3.5,0.0,2.0,0.75,1.25,0.0,-0.48,-0.48,0.89,159.86,-2.0,-41.7,0.0,0.0,0.5,0.5,0.0,0.25,0.0,0.0,0.0,7.25,9.0,9.5,10.5,0.08,-0.05,0.77,550.38,1.6,-89.6
1.8,0.0,0.0,1.25,0.0,0.0,0.0,0.0,3.25,0.0,0.75,0.25,0.5,3.25,-0.11,-0.48,0.27,166.53,-5.9,-58.1,0.5,0.0,0.0,1.25,0.0,0.5,0.0,0.0,0.0,8.5,8.75,11.5,11.5,-0.23,0.02,1.08,600.31,1.7,-87.1
1.82,0.0,0.0,0.0,0.0,0.0,0.0,0.0,3.25,0.0,0.75,0.25,0.5,2.75,-0.61,-0.36,0.27,154.98,-12.9,-74.8,0.5,0.0,0.0,0.75,0.5,1.0,0.0,0.0,0.5,8.5,10.0,11.5,13.5,-0.05,0.08,1.08,672.04,2.2,-85.9
1.84,0.0,0.0,0.0,0.0,0.0,0.0,0.0,1.75,0.0,1.0,0.0,0.5,3.0,-1.17,-0.11,0.14,139.13,-13.0,-84.8,0.0,0.0,0.0,0.5,0.0,0.0,0.0,0.0,0.0,7.75,9.0,10.0,11.5,0.02,-0.11,1.02,681.42,2.3,-93.0
1.86,0.0,0.0,0.0,0.0,0.0,0.0,0.0,1.75,0.0,1.0,0.0,0.5,2.0,-1.48,-0.05,-0.3,121.19,-12.9,-79.9,0.0,0.0,1.25,0.5,1.0,0.25,0.0,0.0,0.5,8.75,8.75,10.5,12.0,0.08,-0.11,1.02,709.24,1.5,-83.3
1.88,0.0,0.0,0.0,0.0,0.0,0.0,0.0,1.75,0.0,1.0,0.0,0.5,2.25,-1.11,-0.36,-0.3,109.33,-13.0,-81.3,2.75,1.0,0.0,1.5,0.0,0.5,0.0,0.0,0.0,8.0,9.5,9.75,14.5,-0.05,-0.11,1.08,738.25,0.5,-74.6
1.9,0.0,0.0,0.0,0.75,0.0,0.0,0.0,1.75,0.0,2.0,0.0,0.5,1.5,-0.86,-0.55,-0.11,102.71,-9.7,-60.4,0.0,0.0,0.0,0.5,0.0,0.25,0.0,0.0,0.0,7.75,8.25,8.75,12.0,-0.36,-0.05,1.2,707.72,3.2,-92.2
1.92,0.0,0.0,0.0,0.0,0.0,0.0,0.0,1.75,0.0,2.0,0.0,0.75,1.75,-1.17,-0.42,-0.05,100.31,-12.5,-79.2,0.5,0.0,0.0,1.25,2.25,2.0,0.0,0.0,0.0,7.75,8.75,9.5,14.0,-0.61,-0.05,0.95,728.62,3.3,-75.9
1.94,2.75,0.0,0.25,0.25,0.0,0.0,0.0,2.75,0.0,2.0,0.0,0.5,1.75,-1.98,-0.05,-0.48,114.13,0.6,-22.5,0.5,0.0,0.0,1.0,0.0,0.75,0.0,0.0,0.0,7.5,7.25,9.75,10.5,0.02,-0.36,0.89,681.61,2.3,-86.4
1.96,0.5,0.0,0.0,0.25,0.0,0.0,0.0,2.75,0.0,0.0,0.0,0.0,1.25,-3.23,-0.3,-0.23,99.32,-9.0,-39.2,1.25,0.25,0.0,0.5,1.25,0.5,0.25,0.0,0.0,6.0,7.0,7.25,9.5,0.27,-0.67,0.77,616.38,1.4,-75.9
1.98,0.25,0.0,1.0,0.5,0.0,0.0,0.25,2.5,0.25,1.75,0.0,0.5,1.25,-2.23,-1.42,0.2,103.33,-2.3,-38.5,0.5,0.0,0.0,0.75,0.0,0.5,0.0,0.0,0.0,5.75,4.75,5.5,8.75,0.33,-1.11,1.33,499.02,3.6,-85.3
2.0,0.0,0.0,1.25,0.25,0.0,0.0,0.0,1.75,0.0,1.75,0.0,0.5,1.5,-0.98,-1.42,0.08,99.9,-2.7,-46.6,0.0,0.0,0.0,0.5,0.5,1.0,0.0,0.0,0.0,4.25,3.75,4.75,7.75,-0.8,-1.17,1.7,397.08,4.8,-83.8
2.02,0.0,0.0,1.25,0.0,0.0,0.0,0.25,2.5,0.0,0.25,0.0,0.0,1.5,-1.55,-0.92,0.27,99.4,-2.4,-35.7,0.5,0.0,0.0,1.0,0.0,1.0,0.0,0.0,0.0,3.25,3.25,3.25,6.5,-1.23,-0.92,1.45,307.97,3.5,-76.4
2.04,0.0,0.0,0.0,0.0,0.0,0.0,0.0,1.5,0.0,0.25,0.0,0.0,0.5,-0.48,-0.92,1.39,74.72,-15.9,-59.0,0.5,0.0,0.0,0.75,0.25,0.5,0.0,0.0,0.0,2.0,2.5,2.75,4.5,-1.67,-1.36,1.45,235.63,1.9,-73.9
2.06,0.0,0.0,0.0,0.0,0.0,0.0,0.0,1.5,0.0,0.25,0.0,0.0,0.5,-0.36,-0.48,1.27,56.1,-15.9,-59.0,0.75,0.0,0.5,0.75,1.0,0.5,0.0,0.0,0.0,0.25,2.5,2.0,4.75,-0.92,-0.73,1.52,176.68,-1.2,-55.6
2.08,0.0,0.0,0.0,0.0,0.0,0.0,0.0,1.5,0.0,0.25,0.0,0.0,0.5,-0.17,0.02,0.64,37.9,-15.9,-59.0,0.5,0.0,0.25,1.25,0.0,0.5,0.25,0.0,0.0,2.0,2.0,2.25,4.5,-0.36,-0.61,1.7,141.73,0.9,-66.6
2.1,0.0,0.0,0.0,0.0,0.0,0.0,0.0,1.5,0.0,0.25,0.0,0.0,0.5,-0.05,0.14,0.14,27.98,-15.9,-59.0,0.5,0.0,0.25,1.0,1.0,0.5,0.0,0.0,0.0,1.75,1.75,2.25,4.5,0.33,-0.48,1.7,121.32,1.6,-59.4
2.12,0.0,0.0,0.0,0.0,0.0,0.0,0.0,1.75,0.0,0.5,0.0,0.0,0.5,-0.3,0.08,0.02,26.38,-16.0,-58.6,0.5,0.0,1.0,0.75,1.0,0.5,0.0,0.0,0.0,1.75,1.5,2.25,4.5,0.77,-0.17,1.45,120.5,0.0,-54.6
2.14,0.0,0.0,0.25,0.0,0.0,0.0,0.0,1.75,0.0,0.25,0.0,0.0,0.5,-0.73,-0.11,-0.05,27.36,-11.0,-46.0,0.25,0.0,0.0,0.5,0.5,0.5,0.0,0.0,0.0,1.5,1.75,2.25,4.5,0.7,-0.17,1.08,124.72,3.7,-75.4
2.16,0.5,0.0,1.25,0.0,0.0,0.0,0.25,2.25,0.0,1.0,0.0,0.5,1.5,-0.67,-0.23,-0.3,52.09,-0.1,-36.2,0.5,0.0,0.0,0.5,0.5,0.5,0.0,0.0,0.0,1.5,1.5,2.0,4.5,0.58,-0.3,0.95,123.59,3.5,-71.2
2.18,0.0,0.0,1.25,0.25,0.0,0.0,0.25,2.5,0.0,1.25,0.0,0.25,1.5,-0.3,-0.36,-0.42,74.54,-3.1,-40.4,0.25,0.0,0.0,0.5,0.0,0.5,0.0,0.0,0.0,1.25,1.5,2.25,4.5,0.52,-0.3,0.83,130.97,3.8,-82.3
2.2,1.0,0.0,1.5,0.0,0.0,0.0,0.25,2.25,0.0,1.25,0.0,0.25,1.5,-0.11,-0.55,-0.23,100.6,2.4,-24.0,0.5,0.0,0.0,0.75,0.5,0.5,0.25,0.0,0.0,1.5,1.25,2.0,4.25,0.58,-0.48,0.77,139.97,2.7,-66.3
2.22,0.0,0.0,1.0,0.5,0.0,0.0,0.25,2.25,0.0,1.25,0.0,0.5,1.5,-0.05,-0.73,-0.05,110.36,-3.0,-42.9,0.25,0.0,0.0,0.5,0.25,0.5,0.25,0.0,0.0,1.5,1.5,2.25,4.5,0.58,-0.55,0.52,152.04,3.6,-77.6
2.24,1.25,0.0,1.5,0.0,0.0,0.0,0.25,2.25,0.0,1.25,0.0,0.5,1.5,-0.11,-0.8,-0.05,123.14,3.5,-23.2,0.5,0.0,0.0,0.75,0.5,0.5,0.0,0.0,0.0,1.25,1.25,2.0,4.25,0.52,-0.61,0.45,159.76,2.8,-67.1
2.26,0.25,0.0,1.25,0.0,0.0,0.0,0.25,2.5,0.0,1.25,0.0,0.5,1.5,-0.3,-0.92,-0.17,126.82,-2.2,-41.8,0.5,0.0,0.0,0.75,0.5,0.5,0.25,0.0,0.0,1.25,1.25,2.0,3.75,0.27,-0.73,0.52,163.46,1.9,-64.0
2.28,0.5,0.0,1.25,0.25,0.0,0.0,0.25,2.5,0.0,0.25,0.0,0.5,1.5,-0.61,-0.98,-0.3,125.92,1.6,-28.5,0.25,0.0,0.0,0.75,0.25,0.5,0.0,0.0,0.0,0.25,1.0,2.0,4.0,0.08,-0.8,0.7,157.36,2.4,-72.8
2.3,0.5,0.0,1.5,0.0,0.0,0.0,0.25,2.5,0.25,0.25,0.0,0.5,1.5,-0.98,-0.98,-0.3,122.08,2.7,-28.8,0.5,0.0,0.0,0.75,0.5,0.5,0.0,0.0,0.0,0.5,1.5,2.0,3.75,-0.17,-0.86,0.58,152.68,1.0,-64.5
2.32,0.0,0.0,1.25,0.25,0.0,0.0,0.25,2.25,0.0,0.25,0.0,0.5,1.5,-1.05,-0.92,-0.3,114.22,-0.1,-37.6,0.5,0.0,0.0,0.75,1.0,0.5,0.0,0.0,0.0,0.25,1.25,1.75,4.0,-0.3,-0.92,0.52,148.24,1.6,-57.3
2.34,0.0,0.0,1.0,0.5,0.0,0.0,0.25,2.25,0.25,0.0,0.0,0.5,1.5,-0.92,-0.67,-0.36,107.06,0.1,-36.1,0.25,0.0,0.0,0.5,1.0,0.5,0.0,0.0,0.0,0.25,1.25,1.5,3.75,-0.36,-0.98,0.52,144.31,3.0,-61.6
2.36,0.0,0.0,1.25,0.25,0.0,0.0,0.25,2.25,0.0,0.5,0.0,0.25,1.25,-0.92,-0.55,-0.3,98.77,-0.5,-33.0,0.0,0.0,0.0,0.75,0.5,0.5,0.25,0.0,0.0,0.25,1.0,1.25,3.75,-0.36,-1.05,0.52,137.28,3.6,-67.2
2.38,0.0,0.0,1.25,0.0,0.0,0.0,0.25,2.25,0.0,0.25,0.0,0.5,1.5,-0.92,-0.36,-0.23,93.36,-0.8,-41.8,0.5,0.0,0.0,0.5,1.0,0.75,0.0,0.0,0.0,0.25,1.25,1.25,3.75,-0.3,-1.05,0.58,136.19,2.9,-54.0
2.4,0.0,0.0,1.0,0.5,0.0,0.0,0.25,2.25,0.0,0.25,0.0,0.5,1.25,-0.8,-0.17,-0.17,87.06,-0.4,-34.5,0.0,0.0,0.0,0.5,1.0,0.5,0.0,0.0,0.0,0.25,1.0,1.25,3.75,-0.42,-0.98,0.52,131.68,4.8,-64.2
2.42,0.0,0.0,1.5,0.25,0.0,0.0,0.25,2.5,0.0,0.25,0.0,0.5,1.5,-0.67,0.02,-0.23,89.81,0.7,-33.8,0.5,0.0,0.0,0.5,0.5,0.5,0.0,0.0,0.0,0.25,1.25,1.25,3.75,-0.55,-0.92,0.39,130.42,2.3,-63.6
2.44,0.0,0.0,1.5,0.0,0.0,0.0,0.25,2.5,0.0,0.25,0.0,0.5,1.5,-0.55,0.08,-0.36,91.71,0.0,-37.6,0.5,0.0,0.0,1.0,0.5,0.5,0.25,0.0,0.0,0.25,1.25,1.5,3.75,-0.67,-0.8,0.33,133.16,0.5,-57.0
2.46,0.0,0.0,1.5,0.0,0.0,0.0,0.25,2.25,0.0,0.25,0.0,0.5,1.25,-0.48,0.08,-0.36,91.46,1.3,-34.4,0.25,0.0,0.0,0.5,2.25,0.5,0.25,0.0,0.0,0.25,1.25,1.25,3.75,-0.73,-0.73,0.39,140.6,2.9,-43.6
2.48,0.0,0.0,1.25,0.0,0.0,0.0,0.25,2.5,0.0,0.25,0.0,0.5,1.5,-0.42,0.08,-0.3,91.66,-1.5,-41.6,0.5,0.0,0.0,0.75,0.5,0.75,0.0,0.0,0.0,0.25,1.0,1.25,3.75,-0.73,-0.67,0.39,141.29,2.6,-57.1
2.5,0.0,0.0,1.5,0.25,0.0,0.0,0.25,2.25,0.0,0.25,0.0,0.5,1.5,-0.36,0.08,-0.23,93.35,1.4,-33.6,0.5,0.0,0.0,0.5,1.0,0.75,0.0,0.0,0.0,0.25,1.25,1.25,3.75,-0.73,-0.61,0.33,143.5,2.9,-54.0
2.52,0.0,0.0,1.5,0.25,0.0,0.0,0.25,2.25,0.25,0.75,0.0,0.5,1.5,-0.23,0.08,-0.3,99.19,0.5,-36.7,0.0,0.0,0.0,0.5,1.25,0.5,0.25,0.0,0.0,0.25,1.25,1.25,3.75,-0.73,-0.48,0.2,142.97,3.8,-59.5
2.54,0.0,0.0,1.25,0.0,0.0,0.0,0.25,2.5,0.0,0.25,0.0,0.25,1.5,-0.23,0.02,-0.3,97.98,-1.9,-38.8,0.0,0.0,0.0,0.5,0.5,0.5,0.0,0.0,0.0,0.25,1.25,1.5,3.75,-0.73,-0.48,0.2,140.15,4.0,-74.0
2.56,0.0,0.0,1.25,0.0,0.0,0.0,0.25,2.25,0.25,0.25,0.0,0.5,1.5,-0.42,-0.05,-0.3,98.7,-0.3,-41.6,0.5,0.25,0.0,0.75,1.0,0.75,0.0,0.0,0.0,0.25,1.25,1.25,3.75,-0.67,-0.42,0.14,142.75,1.9,-47.1
2.58,0.5,0.0,1.25,0.5,0.0,0.0,0.25,2.5,0.25,0.5,0.0,0.5,1.5,-0.48,-0.05,-0.3,102.66,1.9,-27.4,0.5,0.0,0.0,0.75,0.5,0.5,0.0,0.0,0.0,0.25,1.0,1.25,3.75,-0.73,-0.42,0.08,141.54,2.1,-59.6
2.6,0.25,0.0,1.5,1.0,0.0,0.0,0.25,2.0,0.0,0.5,0.0,0.25,1.5,-0.55,-0.11,-0.36,106.03,3.9,-18.1,0.5,0.0,0.0,0.5,1.0,0.5,0.25,0.0,0.0,0.25,1.0,1.5,3.75,-0.86,-0.48,0.14,143.0,1.9,-56.1
2.62,0.0,0.0,1.5,0.25,0.0,0.0,0.25,2.25,0.25,0.25,0.0,0.5,1.5,-0.8,-0.11,-0.48,106.28,1.8,-33.8,0.0,0.0,0.0,0.5,1.0,0.5,0.25,0.0,0.0,0.25,1.25,1.25,3.75,-0.86,-0.48,0.02,140.75,3.8,-63.2
2.64,0.0,0.0,1.25,0.75,0.0,0.0,0.25,2.0,0.25,0.25,0.0,0.5,1.5,-0.86,-0.17,-0.48,105.02,2.2,-30.1,0.25,0.0,0.0,0.5,0.5,0.5,0.0,0.0,0.0,0.25,1.25,1.25,3.75,-0.73,-0.48,-0.05,139.14,3.3,-68.1
2.66,0.0,0.0,1.5,0.25,0.0,0.0,0.25,2.25,0.0,0.25,0.0,0.5,1.5,-0.86,-0.17,-0.48,101.91,1.4,-33.6,0.5,0.0,0.0,0.5,1.0,0.5,0.0,0.0,0.0,0.25,1.25,1.25,3.75,-0.67,-0.48,-0.05,138.52,2.3,-56.2
2.68,0.5,0.0,1.5,0.0,0.0,0.0,0.25,2.25,0.0,0.25,0.0,0.5,1.5,-1.11,-0.3,-0.61,99.93,3.1,-28.0,0.5,0.0,0.0,0.5,0.5,0.5,0.0,0.0,0.0,0.25,1.0,1.5,3.75,-0.61,-0.42,-0.11,137.06,2.3,-64.6
2.7,0.0,0.0,1.25,0.5,0.0,0.0,0.25,2.5,0.0,0.25,0.0,0.5,1.0,-1.61,-0.3,-0.73,96.75,1.0,-27.6,0.5,0.0,0.0,0.5,0.5,0.5,0.0,0.0,0.0,0.25,1.25,1.5,3.75,-0.48,-0.42,-0.17,138.08,2.0,-64.9
2.72,0.0,0.0,1.5,0.25,0.0,0.0,0.25,2.5,0.25,0.5,0.0,0.25,1.0,-2.17,-0.42,-0.86,95.31,1.3,-26.6,0.25,0.0,0.0,0.5,1.25,0.5,0.0,0.0,0.0,0.5,1.25,1.5,3.75,-0.55,-0.42,-0.23,142.83,3.3,-58.5
2.74,0.75,0.0,1.25,0.25,0.0,0.0,0.25,2.5,0.25,0.25,0.0,0.5,0.5,-2.42,-0.42,-0.86,94.46,5.7,-11.1,0.25,0.0,0.0,0.5,1.0,0.5,0.0,0.0,0.0,0.25,1.0,1.25,3.75,-0.61,-0.42,-0.23,141.94,3.7,-59.8
2.76,0.5,0.0,1.25,0.25,0.0,0.0,0.25,2.25,0.0,0.25,0.0,0.5,0.25,-1.67,-0.17,-0.8,89.78,6.1,-8.6,0.5,0.0,0.0,0.75,1.0,0.5,0.25,0.0,0.0,0.5,1.25,1.5,3.75,-0.73,-0.42,-0.17,146.75,1.5,-54.1
2.78,0.0,0.0,1.25,0.75,0.0,0.0,0.25,2.25,0.25,0.5,0.25,0.25,0.25,-1.17,-0.05,-0.55,88.64,4.2,-13.6,0.5,0.0,0.0,0.75,0.5,0.5,0.0,0.0,0.0,0.25,1.25,1.5,3.75,-0.73,-0.42,-0.17,146.23,1.4,-61.4
2.8,0.5,0.0,1.25,0.0,0.0,0.0,0.25,2.25,0.25,0.25,0.25,0.5,1.25,-0.92,0.02,-0.11,89.67,3.0,-30.4,0.5,0.0,0.5,0.5,0.5,0.5,0.0,0.0,0.0,0.25,1.25,1.25,3.75,-0.8,-0.42,-0.17,145.78,0.0,-56.6
2.82,0.75,0.0,1.25,0.25,0.0,0.0,0.25,2.5,0.25,0.25,0.25,0.5,1.5,-0.55,0.08,0.08,96.92,3.2,-26.4,0.5,0.0,0.0,0.5,0.0,0.5,0.0,0.0,0.0,0.25,1.25,1.0,3.5,-0.86,-0.48,-0.11,137.48,2.2,-69.5
2.84,0.75,0.0,1.25,0.25,0.0,0.0,0.25,2.25,0.0,0.5,0.25,0.5,1.5,-0.36,0.08,0.2,103.34,3.0,-27.3,0.5,0.0,0.0,0.75,0.5,0.5,0.0,0.0,0.0,0.25,1.0,1.25,3.5,-0.86,-0.48,-0.05,133.33,1.7,-58.1
2.86,0.75,0.0,1.25,0.25,0.0,0.0,0.25,2.5,0.25,0.0,0.25,0.5,1.5,-0.42,0.08,0.14,108.72,3.9,-24.8,0.5,0.0,0.0,0.75,0.5,0.5,0.25,0.0,0.0,0.25,1.0,1.5,3.5,-0.86,-0.48,-0.05,131.59,0.9,-58.4
2.88,0.75,0.0,1.5,0.0,0.0,0.0,0.25,2.25,0.25,0.25,0.25,0.5,1.25,-0.48,0.02,-0.05,109.5,5.3,-22.9,0.25,0.0,0.0,0.5,0.5,0.5,0.0,0.0,0.0,0.5,0.75,1.5,3.75,-0.86,-0.42,-0.05,132.28,4.1,-69.2
2.9,0.75,0.0,1.5,0.5,0.0,0.0,0.25,2.25,0.25,0.25,0.25,0.5,1.25,-0.73,-0.05,-0.11,112.08,6.1,-17.4,0.5,0.0,0.0,0.5,0.25,0.75,0.25,0.0,0.0,0.25,1.0,1.5,3.5,-0.86,-0.42,-0.05,132.41,2.0,-63.2
2.92,0.5,0.0,1.25,0.0,0.0,0.0,0.25,2.5,0.25,0.25,0.25,0.5,1.25,-0.98,-0.11,-0.17,109.96,2.3,-30.7,0.5,0.0,0.0,0.5,0.5,0.5,0.0,0.0,0.0,0.25,1.0,1.5,3.5,-0.86,-0.42,0.02,132.42,2.0,-63.2
2.94,0.75,0.0,1.25,0.0,0.0,0.0,0.25,2.25,0.0,0.5,0.25,0.25,1.0,-1.42,-0.23,-0.23,106.24,3.5,-20.9,0.5,0.0,0.0,0.5,0.5,0.5,0.0,0.0,0.0,0.25,0.75,1.25,3.25,-0.8,-0.48,-0.05,127.18,2.3,-59.7
2.96,0.75,0.0,1.0,0.0,0.0,0.0,0.25,2.5,0.25,0.5,0.25,0.25,0.0,-1.61,-0.23,-0.36,98.04,4.6,-9.8,0.5,0.0,0.0,0.5,0.0,0.5,0.25,0.0,0.0,0.25,1.0,1.25,3.75,-0.86,-0.48,0.02,125.06,2.1,-70.5
2.98,0.75,0.0,1.5,0.5,0.0,0.0,0.25,2.5,0.25,0.25,0.25,0.5,0.5,-1.48,-0.11,-0.48,99.33,7.5,-8.1,0.25,0.0,0.0,0.5,0.5,0.5,0.0,0.0,0.0,0.25,1.25,1.5,3.5,-0.8,-0.48,0.02,126.68,2.6,-68.1
3.0,0.75,0.0,1.25,0.5,0.0,0.0,0.25,2.5,0.25,0.25,0.0,0.5,0.25,-1.23,-0.05,-0.42,98.02,7.0,-4.3,0.5,0.0,0.0,0.5,0.25,0.5,0.0,0.0,0.0,0.25,1.25,1.25,3.5,-0.86,-0.48,-0.05,127.27,1.9,-66.4
3.02,0.75,0.0,1.25,0.5,0.0,0.0,0.25,2.25,0.25,0.25,0.0,0.5,0.5,-0.98,0.02,-0.3,98.03,7.1,-7.2,0.5,0.0,0.0,0.75,1.0,0.5,0.0,0.0,0.0,0.25,1.0,1.5,3.25,-0.86,-0.48,0.02,131.52,1.2,-50.8
3.04,0.75,0.0,1.25,0.75,0.0,0.0,0.25,2.25,0.25,0.5,0.0,0.5,0.25,-0.8,0.08,-0.23,98.01,7.4,-3.2,0.5,0.0,0.0,0.5,0.5,0.5,0.0,0.0,0.0,0.25,1.0,1.25,3.5,-0.92,-0.42,0.08,131.61,2.3,-61.8
3.06,0.5,0.0,1.5,0.0,0.0,0.0,0.25,2.25,0.0,0.0,0.25,0.25,0.5,-0.67,0.08,-0.23,92.12,7.3,-8.5,0.0,0.0,0.0,0.5,0.0,0.5,0.0,0.0,0.0,0.25,1.25,1.25,3.5,-0.86,-0.48,0.14,129.29,4.2,-81.6
3.08,0.75,0.0,1.5,0.25,0.0,0.0,0.25,2.25,0.25,0.25,0.0,0.5,1.0,-0.67,0.08,-0.23,94.0,6.3,-14.8,0.5,0.0,0.0,0.5,1.0,0.5,0.0,0.0,0.0,0.25,1.25,1.25,3.25,-0.73,-0.48,0.14,128.88,1.7,-53.1
3.1,0.75,0.0,1.25,0.75,0.0,0.0,0.25,2.25,0.0,0.25,0.0,0.5,1.0,-0.86,-0.05,-0.23,96.29,5.7,-11.2,0.25,0.0,0.0,0.5,0.5,0.5,0.25,0.0,0.0,0.25,0.75,1.25,3.5,-0.61,-0.48,0.14,126.79,3.3,-64.8
3.12,0.25,0.0,1.25,0.0,0.0,0.0,0.25,2.25,0.25,0.5,0.0,0.0,1.0,-1.05,-0.11,-0.23,93.98,0.8,-25.2,0.25,0.0,0.0,0.5,0.5,0.5,0.0,0.0,0.0,0.25,1.0,1.25,3.25,-0.48,-0.48,0.08,125.3,3.1,-65.1
3.14,0.25,0.0,1.5,0.5,0.0,0.0,0.25,2.25,0.25,0.25,0.0,0.5,1.0,-1.11,-0.17,-0.23,95.01,4.7,-19.8,0.0,0.0,0.0,0.5,0.25,0.5,0.0,0.0,0.0,0.25,1.0,1.25,3.0,-0.42,-0.55,0.08,120.06,4.0,-74.0
3.16,0.25,0.0,1.5,0.25,0.0,0.0,0.25,2.5,0.0,0.5,0.0,0.25,0.75,-1.11,-0.23,-0.23,94.22,2.8,-18.0,0.25,0.0,0.0,0.5,0.0,0.5,0.0,0.0,0.0,0.25,1.0,0.75,3.25,-0.61,-0.55,0.2,114.39,4.0,-72.2
3.18,0.75,0.0,1.25,0.25,0.0,0.0,0.25,2.0,0.25,0.25,0.0,0.25,0.75,-1.05,-0.17,-0.23,92.93,6.6,-8.9,0.25,0.0,0.0,0.5,1.0,0.5,0.0,0.0,0.0,0.25,0.75,1.25,3.25,-0.67,-0.67,0.27,114.84,3.5,-56.1
3.2,0.75,0.0,1.5,0.25,0.0,0.0,0.25,2.25,0.25,0.0,0.0,0.5,0.5,-1.05,-0.17,-0.23,91.97,8.9,-4.3,0.0,0.0,0.25,0.5,0.5,0.5,0.0,0.0,0.0,0.25,0.75,1.25,3.25,-0.67,-0.67,0.27,114.66,3.3,-65.5
3.22,0.5,0.0,1.5,0.25,0.0,0.0,0.25,2.25,0.25,0.25,0.0,0.25,0.75,-0.98,-0.11,-0.23,91.78,5.9,-11.2,0.5,0.0,0.0,0.75,0.5,0.5,0.0,0.0,0.0,0.25,1.0,1.5,3.0,-0.73,-0.73,0.27,119.08,0.6,-56.4
3.24,0.75,0.0,1.5,0.0,0.0,0.0,0.25,2.25,0.25,0.25,0.0,0.5,1.0,-0.86,-0.11,-0.23,94.54,5.8,-17.6,0.5,0.0,0.0,0.5,0.5,0.75,0.0,0.0,0.0,0.25,1.25,1.25,3.0,-0.8,-0.67,0.27,122.09,1.8,-56.3
3.26,0.75,0.0,1.5,0.0,0.0,0.0,0.25,2.5,0.25,0.25,0.0,0.5,1.0,-0.8,-0.11,-0.17,97.77,5.0,-18.4,0.5,0.0,0.0,0.75,0.5,0.5,0.0,0.0,0.0,0.25,1.0,1.25,3.0,-0.8,-0.67,0.33,123.44,0.9,-54.7
3.28,0.75,0.0,1.5,0.0,0.0,0.0,0.25,2.25,0.0,0.25,0.0,0.5,1.5,-0.92,-0.11,-0.17,100.83,4.2,-23.8,0.25,0.0,0.0,0.5,0.5,0.5,0.0,0.0,0.0,0.25,1.0,1.25,3.0,-0.8,-0.67,0.33,121.9,2.7,-63.5
3.3,0.75,0.0,1.25,0.0,0.0,0.0,0.25,2.25,0.25,0.25,0.0,0.5,1.0,-0.92,-0.11,-0.17,100.4,4.5,-20.8,0.5,0.0,0.0,0.75,1.0,0.5,0.25,0.0,0.0,0.25,1.0,1.25,3.25,-0.8,-0.67,0.39,125.89,1.0,-48.0
3.32,0.75,0.0,1.5,0.5,0.0,0.0,0.25,2.5,0.0,0.75,0.0,0.5,1.25,-0.92,-0.17,-0.17,105.75,3.7,-19.3,0.25,0.0,0.0,0.5,0.5,0.5,0.0,0.0,0.0,0.25,0.75,1.25,3.0,-0.8,-0.67,0.33,122.46,3.2,-63.1
3.34,0.75,0.0,1.25,0.0,0.0,0.0,0.25,2.5,0.0,0.25,0.0,0.25,1.25,-1.05,-0.17,-0.17,103.96,2.5,-21.0,0.0,0.0,0.0,0.5,0.5,0.5,0.0,0.0,0.0,0.25,0.75,1.25,3.0,-0.8,-0.67,0.39,120.05,4.5,-68.6
3.36,0.75,0.0,1.25,0.25,0.0,0.0,0.25,2.0,0.25,0.0,0.0,0.25,1.25,-1.05,-0.17,-0.17,102.24,5.8,-14.6,0.5,0.0,0.0,0.5,0.5,0.5,0.0,0.0,0.0,0.25,1.0,1.25,3.0,-0.86,-0.73,0.45,118.58,1.5,-58.5
3.38,0.75,0.0,1.5,0.25,0.0,0.0,0.25,2.5,0.25,0.5,0.0,0.5,1.25,-0.98,-0.17,-0.17,104.19,4.1,-20.7,0.25,0.0,0.5,0.5,1.0,0.5,0.0,0.0,0.0,0.25,1.25,1.25,3.0,-0.8,-0.73,0.45,123.36,0.0,-48.7
3.4,0.75,0.0,1.25,0.0,0.0,0.0,0.25,2.5,0.5,0.25,0.0,0.0,1.25,-0.98,-0.11,-0.17,103.8,3.0,-18.9,0.5,0.0,0.0,0.5,1.0,0.5,0.0,0.0,0.0,0.5,1.0,1.25,3.0,-0.86,-0.73,0.45,126.43,2.1,-51.3
3.42,0.75,0.0,1.5,0.25,0.0,0.0,0.25,2.25,0.25,0.5,0.0,0.5,1.25,-0.98,-0.11,-0.17,106.75,4.8,-20.1,0.5,0.0,0.0,0.5,0.5,0.5,0.0,0.0,0.0,0.5,1.25,1.25,3.0,-0.86,-0.67,0.45,128.56,1.6,-59.6
3.44,0.75,0.0,1.0,0.25,0.0,0.0,0.25,2.5,0.25,0.0,0.0,0.5,1.25,-0.98,-0.11,-0.17,104.41,3.0,-22.9,0.5,0.0,0.0,0.5,1.0,0.5,0.25,0.0,0.0,0.25,1.0,1.0,3.0,-0.86,-0.67,0.52,128.06,1.5,-47.6
3.46,0.75,0.0,1.25,0.25,0.0,0.0,0.25,2.25,0.5,0.25,0.0,0.5,1.0,-0.98,-0.05,-0.17,104.6,5.3,-18.5,0.25,0.0,0.0,0.75,0.5,0.5,0.0,0.0,0.0,0.25,0.75,1.25,3.0,-0.86,-0.61,0.58,123.85,2.4,-58.8
3.48,0.75,0.0,1.5,0.25,0.0,0.0,0.0,2.5,0.0,0.25,0.0,0.5,1.0,-0.98,-0.05,-0.17,102.09,4.8,-15.5,0.25,0.0,0.0,0.5,1.0,0.5,0.25,0.0,0.0,0.25,1.0,1.25,3.0,-0.8,-0.67,0.58,123.19,2.2,-53.7
3.5,0.75,0.0,0.75,0.0,0.0,0.0,0.25,2.5,0.0,0.25,0.0,0.5,1.0,-1.05,-0.05,-0.23,96.98,0.4,-28.0,0.0,0.0,0.0,0.5,0.5,0.5,0.0,0.0,0.0,0.25,1.0,1.25,3.0,-0.73,-0.61,0.58,120.4,3.9,-68.8
3.52,0.75,0.0,0.5,0.25,0.0,0.0,0.25,2.5,0.25,0.75,0.0,0.5,0.75,-1.05,-0.05,-0.23,94.48,-0.6,-28.9,0.5,0.0,0.25,0.5,0.5,0.5,0.25,0.0,0.0,0.25,1.0,1.25,3.0,-0.73,-0.61,0.58,121.57,-0.2,-53.4
3.54,0.75,0.0,1.25,0.0,0.0,0.0,0.25,2.5,0.0,0.25,0.0,0.25,0.75,-1.05,-0.05,-0.23,90.64,3.9,-13.2,0.5,0.0,0.0,0.75,1.25,0.5,0.25,0.0,0.0,0.25,0.75,1.25,3.0,-0.8,-0.67,0.64,123.61,1.0,-42.0
3.56,0.75,0.0,1.5,0.0,0.0,0.0,0.25,2.25,0.0,0.25,0.0,0.5,0.5,-0.98,-0.05,-0.17,88.58,7.3,-8.7,0.5,0.0,0.0,0.5,0.5,0.5,0.0,0.0,0.0,0.25,1.0,1.25,3.0,-0.92,-0.8,0.58,124.37,1.5,-58.5
3.58,0.75,0.0,1.0,0.25,0.0,0.0,0.25,2.25,0.0,0.25,0.0,0.5,0.5,-0.98,-0.11,-0.17,86.59,4.9,-12.0,0.25,0.0,0.0,0.5,1.0,0.5,0.0,0.0,0.0,0.25,1.0,1.25,3.0,-1.3,-1.48,0.64,124.2,2.7,-55.0
3.6,0.75,0.0,1.5,0.0,0.0,0.0,0.25,2.25,0.0,0.25,0.0,0.5,0.5,-0.55,-0.73,0.08,86.22,7.3,-8.7,0.5,0.0,0.0,0.5,0.0,0.5,0.0,0.0,0.0,0.25,1.0,1.25,3.0,-1.42,-1.17,0.77,119.81,1.4,-67.8
3.62,0.75,0.0,1.25,0.25,0.0,0.0,0.25,2.0,0.0,0.25,0.0,0.25,0.5,-1.11,-0.05,-0.11,83.08,7.4,-2.7,0.5,0.0,0.0,0.5,0.5,0.5,0.0,0.0,0.0,0.25,1.0,1.25,3.0,-1.61,-0.48,0.95,118.59,1.5,-58.5
3.64,0.75,0.0,1.0,0.25,0.0,0.0,0.25,2.25,0.0,0.25,0.0,0.5,0.25,-0.86,0.02,-0.17,82.03,5.8,-7.3,0.25,0.0,0.0,0.5,0.25,0.5,0.0,0.0,0.0,0.25,0.75,1.25,3.0,-1.05,-0.55,0.83,114.88,3.2,-68.1
3.66,0.75,0.0,1.0,0.0,0.0,0.0,0.25,2.25,0.0,0.5,0.0,0.5,0.5,-1.05,0.02,-0.17,80.95,3.4,-18.1,0.5,0.0,0.0,0.5,0.5,0.5,0.0,0.0,0.0,0.25,1.0,1.25,3.0,-0.8,-0.42,0.52,116.24,1.5,-58.5
3.68,0.75,0.0,1.5,0.25,0.0,0.0,0.25,2.25,0.0,0.25,0.0,0.25,0.5,-0.98,0.02,-0.23,83.79,7.7,-1.4,0.25,0.0,0.0,0.5,0.5,0.5,0.0,0.0,0.0,0.25,1.25,1.25,3.0,-0.67,-0.42,0.45,117.57,2.3,-63.9
3.7,0.75,0.0,0.75,0.25,0.0,0.0,0.25,2.0,0.0,0.25,0.0,0.5,0.25,-1.05,-0.05,-0.23,80.5,5.3,-9.3,0.5,0.0,0.0,0.5,1.25,0.5,0.0,0.0,0.0,0.25,1.0,1.25,3.0,-0.55,-0.42,0.45,122.4,1.7,-47.0
3.72,0.75,0.0,1.0,0.0,0.0,0.0,0.0,2.25,0.0,0.25,0.0,0.5,0.25,-1.05,-0.05,-0.17,78.6,4.6,-11.5,0.5,0.0,0.0,0.5,0.5,0.5,0.0,0.0,0.0,0.25,0.75,1.25,3.0,-0.48,-0.42,0.39,121.17,2.0,-58.0
3.74,0.75,0.0,1.5,0.0,0.0,0.0,0.25,2.25,0.0,0.25,0.0,0.5,0.25,-0.98,-0.11,-0.17,79.77,8.3,-4.0,0.0,0.0,0.0,0.5,0.5,0.5,0.0,0.0,0.0,0.25,0.75,1.25,3.0,-0.61,-0.48,0.45,118.88,4.5,-68.6
3.76,0.75,0.0,0.75,0.25,0.0,0.0,0.25,2.0,0.25,0.25,0.0,0.5,0.25,-0.98,-0.11,-0.17,78.53,5.6,-10.7,0.5,0.0,0.75,0.5,1.0,0.5,0.0,0.0,0.0,0.25,1.0,1.25,3.0,-0.73,-0.55,0.39,122.21,-1.7,-41.0
3.78,0.75,0.0,0.25,0.25,0.0,0.0,0.0,2.0,0.0,0.5,0.0,0.5,0.25,-0.98,-0.11,-0.17,74.67,-0.3,-22.0,0.0,0.0,0.0,0.5,0.5,0.5,0.0,0.0,0.0,0.25,1.0,1.25,3.0,-0.8,-0.67,0.39,120.58,3.9,-68.8
3.8,0.75,0.0,1.25,0.0,0.0,0.0,0.25,2.25,0.0,0.25,0.0,0.5,0.25,-0.92,-0.11,-0.17,75.76,6.8,-7.2,0.5,0.0,0.0,0.5,0.25,0.5,0.0,0.0,0.0,0.25,0.75,1.25,3.0,-0.8,-0.61,0.45,119.51,1.9,-62.6
3.82,0.75,0.0,1.0,0.0,0.0,0.0,0.25,2.25,0.0,0.25,0.0,0.5,0.25,-0.92,-0.11,-0.17,75.7,5.2,-10.6,0.5,0.0,0.0,0.5,0.5,0.5,0.0,0.0,0.0,0.25,1.0,1.25,3.0,-0.8,-0.55,0.52,118.67,1.5,-58.5
3.84,0.75,0.0,1.25,0.25,0.0,0.0,0.25,2.0,0.0,0.25,0.0,0.5,0.5,-0.92,-0.11,-0.17,79.31,7.4,-7.4,0.5,0.0,0.25,0.5,1.0,1.0,0.0,0.0,0.0,0.25,1.0,1.25,3.0,-0.67,-0.48,0.45,124.16,1.6,-42.9
3.86,0.75,0.0,1.25,0.0,0.0,0.0,0.25,2.25,0.0,0.25,0.0,0.5,0.5,-0.98,-0.11,-0.17,82.3,5.9,-11.9,0.5,0.0,0.0,0.75,0.5,0.5,0.25,0.0,0.0,0.25,1.0,1.25,3.0,-0.55,-0.48,0.45,125.02,0.4,-53.4
3.88,0.75,0.0,1.0,0.25,0.0,0.0,0.25,2.0,0.0,0.5,0.0,0.5,0.5,-0.98,-0.05,-0.17,85.03,5.0,-13.6,0.25,0.0,0.0,0.75,1.0,0.5,0.0,0.0,0.0,0.25,0.75,1.25,3.0,-0.67,-0.67,0.45,126.44,2.5,-50.6
3.9,0.75,0.0,1.25,0.0,0.0,0.0,0.25,2.25,0.0,0.5,0.0,0.5,0.5,-0.98,-0.05,-0.17,86.77,5.0,-14.6,0.5,0.0,0.0,0.5,0.5,0.5,0.0,0.0,0.0,0.25,1.0,1.0,3.0,-0.73,-0.67,0.52,122.84,1.9,-56.8
3.92,0.75,0.0,1.0,0.25,0.0,0.0,0.25,2.0,0.0,0.25,0.0,0.5,0.5,-0.98,-0.05,-0.17,86.22,5.9,-10.7,0.5,0.0,0.0,0.5,0.25,0.5,0.0,0.0,0.0,0.25,1.25,1.25,3.0,-0.8,-0.67,0.58,121.22,1.1,-63.4
3.94,0.75,0.0,1.0,0.0,0.0,0.0,0.25,2.25,0.25,0.25,0.0,0.25,0.25,-0.98,-0.05,-0.17,84.72,5.4,-7.1,0.25,0.0,0.0,0.5,0.0,0.5,0.5,0.0,0.0,0.25,1.25,1.25,3.0,-0.86,-0.61,0.64,119.05,1.0,-70.2
3.96,0.75,0.0,1.0,0.25,0.0,0.0,0.25,2.25,0.0,0.25,0.0,0.5,0.25,-0.98,-0.11,-0.17,83.18,5.8,-7.3,0.25,0.0,0.0,0.5,0.5,0.5,0.0,0.0,0.0,0.25,1.0,1.25,3.0,-0.86,-0.55,0.58,119.16,2.7,-63.5
3.98,0.75,0.0,0.5,0.25,0.0,0.0,0.25,2.25,0.0,0.25,0.0,0.5,0.25,-0.98,-0.11,-0.17,79.55,2.4,-14.5,0.25,0.0,0.25,0.75,0.5,0.5,0.0,0.0,0.0,0.25,1.0,1.25,3.0,-0.86,-0.55,0.58,120.19,0.7,-55.4
4.0,0.75,0.0,1.25,0.0,0.0,0.0,0.25,2.25,0.0,0.5,0.0,0.5,0.5,-0.98,-0.11,-0.17,82.51,5.0,-14.6,0.5,0.0,0.0,0.5,0.5,0.5,0.0,0.0,0.0,0.25,1.0,1.0,3.0,-0.86,-0.61,0.58,118.43,1.9,-56.8
4.02,0.75,0.0,1.5,0.0,0.0,0.0,0.25,2.0,0.0,0.25,0.0,0.5,0.25,-0.98,-0.11,-0.17,82.95,9.4,-2.4,0.5,0.0,0.0,0.5,0.5,0.5,0.0,0.0,0.0,0.25,0.75,1.25,3.0,-0.8,-0.61,0.52,118.24,2.0,-58.0
4.04,0.75,0.0,1.0,0.25,0.0,0.0,0.25,2.25,0.0,0.25,0.0,0.5,0.5,-0.98,-0.11,-0.17,84.45,4.9,-12.0,0.5,0.0,0.5,0.5,0.5,0.5,0.0,0.0,0.0,0.25,0.75,1.25,3.0,-0.73,-0.55,0.52,118.32,-0.6,-50.2
4.06,0.75,0.0,1.0,0.0,0.0,0.0,0.25,2.0,0.0,0.25,0.0,0.5,0.25,-0.98,-0.11,-0.17,81.15,6.4,-9.2,0.25,0.0,0.0,0.75,0.5,0.5,0.0,0.0,0.0,0.25,0.75,1.0,3.0,-0.73,-0.55,0.52,115.84,2.8,-57.0
4.08,0.75,0.0,0.5,0.25,0.0,0.0,0.25,2.0,0.0,0.25,0.0,0.5,0.25,-0.98,-0.11,-0.17,76.73,3.4,-13.2,0.5,0.0,0.0,0.5,0.5,0.5,0.0,0.0,0.0,0.25,1.0,1.25,3.0,-0.67,-0.55,0.45,116.43,1.5,-58.5
4.1,0.75,0.0,1.0,0.0,0.0,0.0,0.25,2.25,0.25,0.25,0.0,0.5,0.25,-0.98,-0.05,-0.17,76.13,5.6,-11.9,0.5,0.0,0.0,0.5,0.25,0.5,0.25,0.0,0.0,0.5,0.75,1.25,3.0,-0.67,-0.61,0.45,117.28,1.8,-61.5
4.12,0.75,0.0,0.5,0.25,0.0,0.0,0.25,2.25,0.0,0.25,0.0,0.5,0.25,-0.98,-0.05,-0.17,74.5,2.4,-14.5,0.5,0.0,0.0,0.75,0.5,0.5,0.0,0.0,0.0,0.25,1.0,1.5,3.0,-0.67,-0.61,0.52,121.26,0.6,-56.4
4.14,0.75,0.0,1.0,0.0,0.0,0.0,0.25,2.25,0.0,0.25,0.0,0.5,0.25,-0.98,-0.11,-0.17,75.7,5.2,-10.6,0.5,0.0,0.0,0.75,0.5,0.5,0.0,0.0,0.0,0.25,0.75,1.0,3.0,-0.73,-0.55,0.52,119.92,1.6,-52.1
