time,left pressure 0[N/cm²],left pressure 1[N/cm²],left pressure 2[N/cm²],left pressure 3[N/cm²],left pressure 4[N/cm²],left pressure 5[N/cm²],left pressure 6[N/cm²],left pressure 7[N/cm²],left pressure 8[N/cm²],left pressure 9[N/cm²],left pressure 10[N/cm²],left pressure 11[N/cm²],left pressure 12[N/cm²],left acceleration X[g],left acceleration Y[g],left acceleration Z[g],left total force[N],left center of pressure X[mm],left center of pressure Y[mm],right pressure 0[N/cm²],right pressure 1[N/cm²],right pressure 2[N/cm²],right pressure 3[N/cm²],right pressure 4[N/cm²],right pressure 5[N/cm²],right pressure 6[N/cm²],right pressure 7[N/cm²],right pressure 8[N/cm²],right pressure 9[N/cm²],right pressure 10[N/cm²],right pressure 11[N/cm²],right pressure 12[N/cm²],right acceleration X[g],right acceleration Y[g],right acceleration Z[g],right total force[N],right center of pressure X[mm],right center of pressure Y[mm]
0.02,0.0,0.0,0.75,0.0,0.0,0.0,0.0,1.25,0.0,0.0,0.0,0.0,0.25,0.14,4.45,0.64,109.93,2.2,-13.0,6.75,3.5,11.5,13.0,8.5,5.5,3.0,5.0,0.75,3.0,2.75,1.25,2.25,0.14,0.14,1.02,1165.85,-11.0,32.7
0.04,0.0,0.0,0.25,2.25,0.0,0.0,0.0,1.5,0.75,1.0,0.0,0.5,0.75,0.02,3.89,-0.11,99.11,1.7,-20.9,6.25,3.25,10.5,12.5,7.5,4.75,2.25,3.75,0.25,1.5,1.75,0.75,1.0,0.08,0.2,1.14,1096.39,-12.7,42.2
0.06,0.5,0.0,0.25,0.0,0.0,0.0,0.0,1.5,0.5,1.25,0.0,0.5,0.0,-0.92,-0.17,1.58,77.14,-1.8,-36.9,6.75,3.25,11.0,12.5,7.5,3.25,1.75,3.0,0.0,0.0,1.5,0.5,1.0,0.08,0.2,1.14,1003.62,-15.3,49.3
0.08,0.5,0.0,0.5,0.25,0.0,0.0,0.25,3.0,1.0,2.75,1.25,1.5,2.0,0.27,0.02,1.14,110.82,-3.0,-58.1,7.0,4.25,11.5,14.0,7.5,3.75,1.5,2.25,0.25,1.25,1.25,0.5,0.75,0.08,0.2,1.14,950.1,-15.1,49.9
0.1,0.0,0.0,0.5,0.0,0.0,0.0,0.75,3.25,0.0,0.0,1.25,0.0,2.25,-0.23,0.39,1.64,119.77,-5.4,-56.3,7.75,4.25,13.0,12.5,7.75,3.5,1.5,2.25,0.25,3.25,2.25,1.25,0.75,0.08,0.27,1.14,953.86,-14.7,42.6
0.12,0.0,0.0,0.0,0.5,0.0,0.0,1.0,3.5,1.25,4.25,1.25,1.25,3.0,-0.11,0.14,1.08,173.91,-6.7,-66.2,7.25,3.25,13.0,11.0,7.25,1.25,0.5,2.25,0.0,1.75,1.0,0.5,0.5,0.08,0.33,1.2,905.82,-17.4,50.5
0.14,0.0,1.5,0.25,0.0,0.0,0.0,0.0,3.0,1.0,4.5,2.25,2.0,3.25,-0.17,0.08,0.95,211.9,-4.7,-60.4,6.75,2.75,11.0,9.0,5.5,1.25,0.75,1.5,0.0,0.25,1.0,0.75,0.25,0.27,0.39,1.39,799.27,-19.2,54.5
0.16,0.0,2.5,0.0,1.0,0.0,0.0,0.25,4.75,2.0,6.5,4.75,4.25,4.5,-0.17,0.08,0.95,297.04,-2.6,-57.6,6.5,1.75,10.5,7.25,2.5,1.0,1.5,0.75,0.0,0.25,1.0,0.0,0.5,0.27,0.45,1.52,638.23,-22.7,57.0
0.18,0.0,2.5,0.0,1.0,0.0,0.0,0.5,6.0,3.0,6.75,6.0,4.5,5.5,-0.17,0.02,0.95,397.33,-2.4,-58.7,5.25,1.0,9.25,5.5,1.5,1.0,1.5,0.75,0.0,0.0,1.0,0.25,0.25,0.2,0.58,1.7,470.1,-23.8,55.2
0.2,0.0,2.5,0.0,1.75,0.0,0.25,0.5,6.5,3.5,7.25,6.75,5.0,5.75,-0.17,0.02,1.02,528.51,-2.0,-56.8,3.0,0.0,7.75,3.25,0.0,1.0,1.5,0.75,0.0,0.0,0.75,0.0,0.25,0.14,1.2,2.33,318.0,-25.9,51.0
0.22,0.0,2.5,1.75,2.0,2.0,0.75,0.75,6.75,3.75,7.25,6.75,4.75,6.0,-0.17,0.02,0.95,644.27,-0.6,-44.4,2.5,0.75,5.75,3.25,0.0,1.75,1.0,0.75,0.25,1.25,1.0,0.75,0.25,-0.05,1.14,2.39,241.03,-18.0,32.8
0.24,0.0,2.5,1.25,2.0,2.0,1.5,0.75,7.0,3.75,7.25,6.5,4.5,6.25,-0.17,0.02,0.95,727.15,-1.7,-44.2,1.75,0.25,5.0,2.75,0.5,1.25,0.75,2.25,0.25,0.25,2.0,0.75,1.0,0.02,0.45,2.39,186.31,-14.3,15.7
0.26,0.0,2.5,2.0,2.5,3.25,1.5,0.75,7.0,4.0,6.75,6.5,4.5,5.75,-0.17,0.02,0.95,778.32,-0.5,-37.2,1.75,0.25,2.75,2.0,1.0,1.25,0.75,1.75,0.25,0.0,2.0,1.0,1.25,0.52,-0.55,2.08,150.17,-10.9,7.4
0.28,0.0,2.5,2.0,3.0,2.0,2.25,0.5,7.0,3.75,6.5,6.0,3.75,5.5,-0.17,0.02,0.95,777.18,-0.8,-35.8,1.75,0.25,2.75,2.25,1.75,1.0,1.25,2.25,0.25,1.0,2.0,0.75,1.0,1.02,-0.92,2.58,144.03,-9.1,7.7
0.3,0.0,2.5,2.0,3.25,3.5,2.25,0.5,7.0,3.25,6.5,5.0,3.5,4.75,-0.17,0.02,0.95,758.54,-1.0,-29.2,1.5,0.25,2.75,2.0,1.0,1.25,0.75,2.0,0.25,1.25,2.0,0.5,0.5,0.89,-1.11,1.52,134.31,-9.2,8.2
0.32,0.25,2.5,1.5,3.75,3.25,2.25,0.5,6.75,3.0,5.5,4.5,2.75,4.5,-0.17,0.02,0.95,702.4,-1.0,-25.3,1.75,0.25,2.75,2.0,1.75,1.25,0.75,2.0,0.0,0.0,2.25,0.75,1.0,0.39,-0.8,1.02,135.76,-10.1,12.3
0.34,0.25,2.5,1.5,3.75,4.5,2.5,0.5,6.5,2.75,5.0,3.25,2.25,3.25,-0.17,0.02,0.95,649.04,-1.0,-15.8,1.5,0.25,2.75,2.0,1.75,1.0,0.75,2.0,0.25,0.0,2.25,0.25,1.0,0.27,-0.61,0.77,142.79,-10.3,13.7
0.36,0.5,2.5,0.75,3.75,4.25,2.75,0.5,6.25,2.25,4.5,2.5,1.5,1.75,-0.17,0.02,0.95,565.73,-1.6,-8.1,1.25,0.25,2.75,2.0,1.75,1.0,0.5,2.0,0.25,1.25,1.75,0.25,1.0,0.27,-0.3,0.58,166.94,-7.7,8.1
0.38,0.5,2.5,1.0,3.75,2.25,3.0,0.5,6.5,2.0,4.25,1.5,1.5,2.0,-0.17,0.02,0.95,487.35,-1.9,-10.0,1.25,0.25,2.75,1.75,1.75,1.25,0.5,2.25,0.0,1.25,1.25,0.0,1.0,0.27,-0.05,0.64,182.52,-6.5,12.2
0.4,0.0,2.5,2.0,4.0,5.0,3.5,0.5,6.25,1.5,3.5,1.5,1.25,2.0,-0.17,0.02,0.95,440.5,-1.3,0.4,1.25,0.5,2.75,1.75,1.75,1.0,0.5,2.0,0.0,1.25,1.25,0.5,1.0,0.14,0.02,0.83,197.47,-7.5,10.3
0.42,0.5,2.5,2.0,4.0,5.25,3.75,0.25,6.0,1.5,2.75,1.25,1.0,1.75,-0.17,0.02,0.95,417.28,-0.7,6.6,0.0,0.0,2.75,1.0,1.75,1.25,0.75,2.0,0.25,1.25,1.5,0.5,0.75,0.14,0.08,0.95,198.57,-4.6,-2.8
0.44,0.0,2.75,2.0,5.75,7.0,4.25,0.5,6.0,1.0,2.5,0.75,0.75,1.75,-0.17,0.08,0.95,429.71,-0.8,14.9,1.25,0.25,2.75,1.25,1.75,1.0,0.5,2.0,0.0,1.25,1.5,0.5,1.0,0.2,0.14,1.08,204.37,-7.1,5.7
0.46,0.25,3.25,2.0,6.5,7.75,4.75,0.25,6.0,1.0,2.5,0.5,0.5,1.5,-0.17,0.08,0.95,459.36,-0.5,20.7,1.25,0.25,2.5,1.25,1.75,1.0,0.5,1.75,0.0,1.0,2.0,0.75,1.25,0.2,0.33,1.27,203.83,-7.1,0.4
0.48,0.75,4.0,2.75,7.5,8.25,5.25,0.25,5.75,1.0,2.5,0.0,0.5,1.25,-0.23,0.08,0.95,515.31,1.0,27.7,1.25,0.25,2.75,1.0,1.75,1.0,0.5,2.0,0.25,1.25,1.25,0.75,0.5,0.27,0.33,1.39,205.58,-7.7,7.5
0.5,1.5,0.0,3.5,7.75,8.5,5.5,0.25,5.0,0.5,2.5,0.25,0.5,1.25,-0.23,0.14,1.02,540.52,1.3,23.9,1.0,0.25,2.25,0.75,1.75,1.0,0.25,1.5,0.25,1.25,1.5,0.25,1.0,0.33,0.58,1.58,199.88,-5.7,2.7
0.52,2.5,5.25,3.75,8.75,8.75,5.5,0.25,4.75,0.5,2.25,0.0,0.5,1.25,-0.23,0.14,1.02,612.25,4.0,37.0,2.0,0.25,2.25,1.25,1.75,1.0,0.25,1.5,0.25,1.25,1.5,0.25,1.0,0.39,1.08,1.83,200.06,-8.0,10.7
0.54,2.25,4.5,4.0,9.0,0.0,5.5,0.25,4.5,0.5,2.0,0.0,0.5,1.25,-0.3,0.14,1.08,590.35,6.4,32.0,0.5,0.5,2.25,1.25,1.75,1.0,0.25,1.0,0.0,1.25,1.5,0.0,1.0,0.14,1.77,1.7,192.04,-6.0,8.1
0.56,0.0,5.25,3.75,9.75,0.0,5.25,0.25,4.0,0.5,1.5,0.0,0.5,0.75,-0.3,0.14,1.14,554.9,6.0,34.8,1.25,0.25,1.75,0.75,1.75,1.0,0.25,1.25,0.0,1.25,1.5,0.75,1.0,-0.48,2.45,1.89,186.71,-5.4,-0.6
0.58,0.0,4.75,4.75,10.0,0.0,4.5,0.0,3.25,0.5,1.25,0.0,0.5,0.75,-0.3,0.2,1.14,496.66,8.3,37.5,1.25,0.25,2.25,1.0,1.75,1.25,0.25,1.0,0.25,1.0,1.0,0.75,1.0,-0.98,2.89,1.39,184.05,-7.2,7.7
0.6,5.25,0.0,4.25,10.0,0.0,0.0,0.0,3.25,0.5,1.0,0.0,0.5,0.75,-0.3,0.27,1.14,433.05,17.4,38.5,1.25,0.25,2.5,0.75,1.75,1.25,0.25,1.0,0.0,1.25,1.0,0.75,0.75,-1.23,3.58,0.77,183.63,-7.5,9.4
0.62,5.0,0.0,4.5,10.0,0.0,0.0,0.0,2.75,0.5,1.0,0.0,0.5,0.75,-0.36,0.33,1.14,380.5,18.1,39.7,1.75,0.25,1.75,0.75,1.75,1.0,0.25,1.0,0.0,1.25,1.5,1.0,0.75,-1.17,4.2,0.08,183.91,-7.3,3.6
0.64,5.0,0.0,3.75,8.75,0.0,0.0,0.0,0.0,0.75,1.0,0.0,0.25,0.75,-0.42,0.33,1.33,325.51,22.1,49.2,0.0,0.0,1.0,0.0,1.75,0.75,0.25,1.75,0.0,1.25,2.0,1.25,1.25,-2.3,5.02,-0.61,175.72,1.2,-34.1
0.66,4.0,0.0,3.75,7.5,0.0,0.0,0.0,0.0,0.0,1.0,0.0,0.25,0.5,-0.55,0.45,1.52,278.84,22.8,52.0,0.5,0.0,1.0,0.0,2.25,0.5,0.25,2.25,0.0,5.5,2.25,4.5,3.75,-0.17,-0.61,0.95,224.18,3.2,-57.3
0.68,1.0,0.0,2.25,5.75,0.0,0.0,0.0,0.0,0.5,1.0,0.0,0.0,0.75,-0.86,0.77,2.58,213.28,17.7,34.8,0.5,0.0,0.0,0.0,1.0,2.25,0.5,2.25,0.25,7.25,5.25,5.75,7.0,-0.23,0.7,1.83,300.82,5.3,-71.2
0.7,0.5,0.0,0.0,3.75,0.0,0.0,0.0,0.0,0.25,0.75,0.0,0.0,0.75,-1.11,1.52,2.95,133.67,10.4,19.8,0.0,0.0,0.0,0.0,0.0,0.0,0.25,3.75,1.0,7.75,8.0,6.0,7.75,0.2,0.52,2.14,411.99,4.1,-84.0
0.72,0.0,0.0,0.0,1.0,0.0,0.0,0.0,0.0,0.0,0.75,0.0,0.0,0.0,-0.67,0.64,2.45,40.94,3.4,2.2,0.0,0.0,0.0,0.5,0.0,0.75,0.0,5.0,0.0,8.5,8.5,6.5,8.0,-0.17,0.08,1.08,534.04,5.0,-80.1
0.74,0.0,0.0,0.0,0.0,0.0,0.0,0.0,0.25,0.0,0.0,0.0,0.0,0.0,-0.86,-0.17,2.08,0.0,-16.7,-38.7,1.25,0.25,0.25,1.25,2.25,3.5,0.0,6.75,2.0,9.75,9.25,7.0,8.0,0.14,0.14,1.02,695.62,3.9,-56.9
0.76,0.0,0.0,0.0,0.0,0.0,0.0,0.0,0.0,0.0,0.0,0.0,0.0,0.0,-0.11,-0.8,2.7,0.0,0.0,0.0,1.75,0.25,2.75,3.25,2.5,3.75,0.75,7.75,2.75,10.0,9.75,7.5,8.5,0.14,0.14,0.95,871.46,0.9,-46.0
0.78,0.0,0.0,0.0,0.0,0.0,0.0,0.0,0.0,0.0,0.0,0.0,0.0,0.0,-0.23,-1.11,2.08,0.0,0.0,0.0,1.25,0.75,2.75,3.25,3.0,4.5,1.0,8.25,3.25,10.5,10.0,7.0,8.5,0.14,0.08,0.95,1036.51,1.4,-43.7
0.8,0.0,0.0,0.0,0.0,0.0,0.0,0.0,0.0,0.0,0.0,0.0,0.0,0.0,-0.42,-0.73,1.2,0.0,0.0,0.0,2.0,0.5,2.75,3.25,5.25,5.5,1.5,8.75,3.25,9.75,10.0,6.5,8.25,0.2,0.08,1.02,1166.09,1.3,-36.5
0.82,0.0,0.0,0.0,0.0,0.0,0.0,0.0,0.0,0.0,1.5,0.0,0.0,0.0,-0.61,-0.67,0.58,0.0,-15.6,-75.5,1.75,0.75,2.75,5.0,5.5,5.5,1.5,8.75,3.25,9.25,9.5,6.0,7.75,0.2,0.08,0.95,1233.27,0.9,-31.8
0.84,0.0,0.0,0.0,0.25,0.0,0.0,0.0,0.0,0.0,1.0,0.0,0.0,0.0,-0.61,-0.55,0.64,0.0,-8.8,-47.8,2.5,0.75,3.75,5.5,5.5,6.0,1.5,8.75,3.25,8.5,8.75,5.5,7.25,0.2,0.08,0.95,1247.67,-0.1,-25.8
0.86,0.0,0.0,0.0,0.0,0.0,0.0,0.0,0.0,0.0,1.0,0.0,0.0,0.0,-0.67,-0.42,0.83,0.0,-15.7,-75.5,2.75,1.75,4.5,5.5,5.75,6.5,1.5,8.5,2.75,8.0,8.0,4.75,6.25,0.27,0.08,0.95,1230.6,-0.7,-18.3
0.88,0.0,0.0,0.0,1.75,0.0,0.0,0.0,0.0,0.5,1.0,0.0,0.0,0.0,-0.8,-0.3,0.83,0.0,6.5,3.4,2.0,1.75,4.25,6.25,6.25,6.5,1.25,8.0,2.5,7.0,7.25,3.5,5.25,0.27,0.14,0.95,1171.86,-0.6,-13.2
0.9,0.0,0.0,0.0,1.75,0.0,0.0,0.0,0.0,0.25,1.0,0.0,0.0,0.5,-0.8,-0.05,0.83,14.93,3.2,-9.8,2.0,2.0,4.5,7.25,6.75,6.75,1.25,7.5,2.0,6.25,5.5,2.75,4.0,0.27,0.14,0.95,1084.96,-1.2,-3.9
0.92,0.0,0.0,0.0,1.5,0.0,0.0,0.0,0.0,0.25,1.0,0.0,0.0,0.5,-0.73,0.14,0.95,38.71,2.1,-15.1,1.5,2.0,4.75,7.25,7.25,7.0,1.0,7.5,1.5,5.5,4.5,2.0,3.0,0.27,0.14,0.95,990.78,-1.0,2.1
0.94,0.0,0.0,0.0,1.5,0.0,0.0,0.0,0.0,0.25,1.0,0.0,0.0,0.25,-0.67,0.2,1.14,52.11,3.5,-7.2,2.0,2.0,4.75,7.5,7.5,7.0,1.0,6.75,1.5,4.25,3.25,1.5,2.5,0.27,0.14,0.95,902.9,-1.9,9.9
0.96,0.0,0.0,0.0,1.25,0.0,0.0,0.0,0.0,0.25,1.0,0.0,0.0,0.0,-0.67,0.33,1.45,55.66,3.8,-3.6,2.75,2.5,4.75,8.25,7.5,7.25,0.75,6.5,1.0,3.75,3.25,1.25,2.25,0.2,0.14,0.95,837.62,-2.7,15.4
0.98,0.0,0.0,0.0,1.5,0.0,0.0,0.0,0.0,0.25,1.0,0.0,0.5,0.0,-0.73,0.45,1.7,56.61,5.6,-14.6,3.0,2.0,5.25,8.75,7.75,7.25,0.75,6.0,0.75,3.0,2.5,1.25,2.0,0.2,0.14,0.95,784.25,-3.6,20.1
1.0,0.0,0.0,0.0,0.0,0.0,0.0,0.0,0.0,0.0,0.0,0.0,0.0,0.0,-0.8,0.58,2.02,39.02,0.0,0.0,3.0,2.25,5.25,9.5,8.5,7.5,0.75,5.75,0.75,2.75,2.25,1.25,2.0,0.2,0.14,0.95,769.8,-3.7,22.8
1.02,0.0,0.0,0.0,0.0,0.0,0.0,0.0,0.0,0.0,0.0,0.0,0.0,0.0,-0.92,0.95,2.77,23.47,0.0,0.0,4.5,3.0,5.5,10.5,8.75,7.75,0.75,5.25,0.5,2.75,2.0,1.25,2.0,0.2,0.14,0.95,793.86,-5.0,28.1
1.04,0.0,0.0,0.0,0.0,0.0,0.0,0.0,0.0,0.5,1.0,0.0,0.5,0.0,-0.98,1.45,2.64,19.41,-2.6,-74.9,4.0,3.5,6.75,11.5,9.75,7.75,0.75,5.0,0.25,2.5,2.0,1.0,1.5,0.2,0.14,0.95,843.26,-5.9,32.8
1.06,0.0,0.0,0.0,0.5,0.0,0.0,0.25,0.0,0.25,1.0,0.0,0.5,0.25,-0.42,2.64,2.58,24.4,0.4,-50.7,4.25,2.5,7.75,10.0,9.75,7.5,0.75,4.25,0.25,0.25,1.0,0.25,1.25,0.2,0.2,1.02,846.92,-7.6,42.3
1.08,0.25,0.0,0.0,1.0,0.0,0.0,0.0,0.0,0.25,1.0,0.0,0.5,0.0,0.02,3.52,1.39,33.94,5.9,-18.5,5.5,3.5,8.0,12.0,9.25,7.0,0.0,3.25,0.0,1.5,1.0,1.25,1.5,0.14,0.2,1.08,874.36,-8.8,40.9
1.1,0.0,0.0,0.0,1.25,0.0,0.0,0.0,1.5,0.5,1.0,0.0,0.5,0.25,0.27,4.83,0.33,51.84,-2.2,-31.5,5.5,4.75,9.25,14.0,11.0,6.75,0.75,3.25,0.0,0.75,2.0,1.0,1.25,0.14,0.27,1.08,941.87,-10.1,44.3
1.12,0.0,0.0,0.0,0.0,0.0,0.0,0.0,1.5,0.25,1.25,0.0,0.0,0.25,0.89,5.64,0.14,56.55,-13.9,-58.5,7.0,5.25,10.5,14.5,10.5,6.5,0.5,2.5,0.0,1.25,1.5,0.0,0.75,0.14,0.27,1.14,1026.17,-11.8,51.1
1.14,0.0,0.0,0.0,0.5,0.0,0.0,1.0,1.75,0.25,1.75,0.0,0.5,0.0,2.02,6.39,0.14,69.16,-4.7,-42.0,7.5,5.5,9.5,14.5,11.0,6.25,0.75,2.25,0.0,1.25,0.0,0.75,1.25,0.14,0.33,1.08,1094.1,-11.5,51.6
1.16,0.0,0.0,0.0,0.0,0.0,0.0,0.0,1.5,0.0,2.5,0.0,0.0,2.0,-0.67,-0.61,1.52,84.75,-15.2,-78.1,7.0,5.75,9.25,12.0,9.25,5.75,0.5,1.25,0.0,1.25,0.75,0.75,1.0,0.08,0.33,1.08,1086.54,-12.3,51.9
1.18,0.0,0.0,0.0,0.5,0.0,0.0,0.0,0.0,0.25,5.25,0.75,0.0,4.25,0.14,0.7,2.27,128.12,-11.0,-81.9,7.5,4.75,11.5,12.0,9.75,5.5,0.75,2.25,0.0,1.25,1.25,0.75,0.75,0.08,0.39,1.2,1081.02,-13.1,50.0
1.2,0.0,0.0,0.0,0.0,0.0,0.0,0.0,4.0,1.0,7.25,5.5,0.0,6.25,0.14,0.7,3.39,223.12,-8.3,-77.0,7.75,5.5,10.5,12.5,9.0,4.5,0.75,2.0,0.0,0.75,1.0,0.75,1.0,0.2,0.45,1.27,1043.28,-13.9,52.2
1.22,0.0,0.0,0.0,0.0,0.0,0.0,0.0,5.25,2.5,7.25,0.0,5.25,7.0,-0.3,0.33,1.52,311.78,-8.1,-80.7,6.5,4.25,8.75,9.25,7.25,3.5,0.75,0.5,0.0,0.0,0.0,0.0,1.25,0.14,0.52,1.52,916.54,-15.3,59.2
1.24,0.0,1.25,0.0,1.0,0.0,0.25,0.0,6.0,3.0,7.25,7.25,5.25,6.25,-0.11,0.02,0.95,450.2,-3.0,-66.9,4.5,1.25,7.75,5.5,7.25,2.75,1.5,1.25,0.0,0.0,1.0,0.0,1.0,0.08,0.83,2.83,731.71,-14.0,49.1
1.26,0.0,0.0,0.0,0.75,0.0,0.75,0.5,6.5,4.25,7.25,7.5,5.25,6.25,-0.17,0.08,1.02,571.83,-3.3,-70.3,2.0,0.0,5.25,3.5,2.25,1.25,1.0,0.75,0.0,0.0,0.75,0.0,0.75,0.33,2.02,3.02,471.98,-17.1,42.9
1.28,0.0,1.0,0.75,2.25,0.75,0.75,0.75,6.75,5.0,7.5,7.5,5.25,6.25,-0.17,0.02,1.02,686.29,-1.3,-56.1,2.5,0.5,2.75,3.25,2.25,3.25,1.0,1.5,0.0,1.25,1.0,0.75,1.0,0.2,0.83,2.58,318.59,-7.2,23.4
1.3,2.25,2.25,2.25,1.75,2.0,1.0,1.0,7.0,5.25,7.25,7.5,5.25,5.75,-0.11,0.02,0.95,777.43,1.6,-38.6,1.25,0.25,2.75,2.25,2.25,2.25,0.5,1.5,0.0,1.25,1.25,0.75,1.25,0.64,0.08,1.7,221.28,-5.7,11.3
1.32,3.0,2.5,3.5,3.5,2.0,1.5,1.0,7.0,5.5,6.75,7.5,4.5,5.5,-0.11,-0.05,1.02,854.73,3.5,-28.1,1.25,0.5,2.75,2.0,1.75,2.0,0.25,1.25,0.0,1.25,1.0,0.5,1.0,0.08,-0.92,1.83,157.9,-6.7,16.0
1.34,3.25,3.0,3.75,3.75,2.0,1.75,1.0,6.75,5.0,6.5,6.75,3.75,4.5,-0.11,-0.05,1.02,887.65,4.1,-21.2,0.5,0.25,0.0,0.5,0.0,1.0,0.0,0.5,0.0,0.0,0.0,0.0,0.25,0.33,-0.67,1.27,49.59,1.6,29.1
1.36,3.5,3.25,3.75,4.0,3.25,2.0,1.0,6.5,4.25,5.5,6.0,2.5,3.25,-0.11,0.02,0.95,882.65,4.7,-10.2,0.5,0.0,0.0,0.5,0.0,1.0,0.0,0.75,0.0,0.0,0.0,0.0,0.25,0.39,-0.55,0.64,0.0,4.2,17.2
1.38,3.75,3.75,4.0,4.25,3.5,2.25,1.0,6.25,3.75,4.5,4.75,1.75,2.0,-0.11,0.02,0.95,838.01,5.8,1.0,0.25,0.0,0.0,0.5,0.25,0.5,0.0,0.5,0.0,0.0,0.0,0.25,0.0,0.33,-0.42,0.64,0.0,0.3,16.7
1.4,3.75,4.5,4.0,4.0,3.5,2.5,0.75,6.0,3.0,3.5,3.25,1.5,2.0,-0.17,0.02,0.95,769.0,6.0,8.5,0.25,0.0,0.0,0.5,0.0,1.0,0.0,0.5,0.0,0.0,0.0,0.0,0.25,0.33,-0.3,0.64,0.0,6.6,15.3
1.42,3.25,4.0,3.75,5.5,5.0,2.25,0.5,5.5,2.25,2.75,2.5,1.5,1.75,-0.17,0.02,0.95,698.47,6.1,14.8,0.5,0.0,0.0,0.5,0.0,1.0,0.0,0.5,0.0,0.0,0.0,0.0,0.0,0.33,-0.17,0.7,0.0,1.9,36.4
1.44,3.5,4.0,3.75,5.75,5.5,2.25,0.25,5.25,1.75,2.5,1.5,1.0,1.25,-0.17,0.08,0.95,632.28,6.4,23.2,0.25,0.0,0.0,0.5,0.0,1.0,0.0,0.5,0.0,0.0,0.0,0.0,0.0,0.33,-0.05,0.77,0.0,5.8,29.9
1.46,3.25,4.25,3.75,6.0,5.5,2.25,0.25,5.0,1.5,2.5,1.0,0.75,1.0,-0.11,0.08,0.95,585.3,6.5,27.4,0.0,0.0,0.25,0.5,0.0,1.0,0.0,0.75,0.0,0.0,0.25,0.0,0.0,0.27,0.08,0.89,0.0,4.6,11.3
1.48,3.75,4.5,3.75,6.0,5.0,2.5,0.25,4.75,1.25,2.5,1.0,0.5,1.25,-0.17,0.08,0.95,549.25,6.9,29.2,0.5,0.0,0.0,0.5,0.0,1.0,0.0,0.5,0.0,0.0,0.0,0.0,0.25,0.27,0.14,1.02,0.0,3.0,22.4
1.5,3.75,4.5,3.75,6.25,5.75,2.5,0.25,4.5,1.0,2.5,0.75,0.5,0.75,-0.17,0.08,0.95,531.77,7.1,33.4,0.5,0.0,0.0,0.0,0.0,1.0,0.0,0.5,0.0,0.0,0.25,0.0,0.0,0.2,0.27,1.2,0.0,5.1,18.6
1.52,3.75,5.25,2.0,7.0,0.0,2.5,0.0,4.5,1.0,2.5,0.25,0.5,1.0,-0.17,0.14,0.95,475.1,7.6,30.3,0.5,0.0,0.0,0.25,0.0,0.75,0.0,0.5,0.0,0.0,0.0,0.0,0.0,0.14,0.39,1.45,0.0,1.9,33.8
1.54,3.75,5.25,3.75,6.75,6.5,2.75,0.0,4.5,0.75,2.0,0.0,0.5,0.75,-0.17,0.14,0.95,482.51,7.0,39.5,0.0,0.0,0.0,0.0,0.0,1.0,0.0,0.5,0.0,1.25,0.0,0.25,0.0,0.2,0.7,1.64,13.46,16.1,-37.0
1.56,5.25,5.5,3.5,7.5,0.0,3.0,0.0,4.0,0.75,1.5,0.0,0.5,0.75,-0.17,0.14,0.95,458.93,11.2,42.5,0.5,0.0,1.0,0.0,1.75,0.75,0.25,1.0,0.0,0.0,1.0,0.0,1.5,0.33,1.14,1.89,54.92,-1.1,-4.7
1.58,3.75,5.5,3.0,7.75,0.0,3.5,0.0,3.25,0.5,1.75,0.0,0.5,0.75,-0.23,0.14,1.02,444.58,9.6,41.3,0.5,0.0,0.0,0.0,0.0,0.5,0.0,0.5,0.0,0.0,0.0,0.0,0.0,0.2,1.39,2.64,60.73,1.9,29.4
1.6,5.25,6.5,4.0,8.25,0.0,3.25,0.0,3.25,0.5,1.5,0.0,0.5,0.75,-0.23,0.2,1.02,444.32,12.1,47.1,1.0,0.25,0.25,0.75,2.25,1.25,0.25,1.0,0.0,1.0,1.0,0.25,0.75,0.08,1.83,2.7,99.82,0.2,6.0
1.62,0.0,6.5,4.75,8.5,0.0,2.5,0.0,3.25,0.5,1.5,0.0,0.5,0.75,-0.23,0.2,1.02,426.94,9.9,39.4,1.5,0.25,0.75,0.5,1.75,1.25,0.25,0.75,0.0,1.0,1.0,0.5,1.25,-0.23,2.58,1.83,127.95,-2.7,1.6
1.64,0.0,7.25,4.75,8.75,0.0,2.75,0.0,3.0,0.5,1.25,0.0,0.5,0.75,-0.23,0.2,1.14,416.3,10.2,42.7,0.25,0.5,1.0,1.25,1.75,1.5,0.25,1.0,0.0,1.25,1.0,0.75,1.0,-0.73,3.08,0.95,161.72,-0.6,-2.4
1.66,6.5,0.0,4.0,8.5,8.25,2.25,0.0,3.0,0.5,1.25,0.0,0.5,0.75,-0.23,0.2,1.14,445.63,10.1,42.8,1.25,0.25,1.5,0.5,1.75,1.25,0.25,1.0,0.0,1.0,1.0,0.75,1.0,-1.36,4.14,-0.23,178.36,-4.5,2.9
1.68,6.25,0.0,5.5,8.25,0.0,0.0,0.0,2.5,0.25,1.25,0.0,0.5,0.75,-0.3,0.27,1.14,415.8,19.8,42.3,1.25,0.25,1.0,0.5,1.75,1.25,0.25,0.75,0.0,1.25,1.5,0.75,0.75,-1.55,4.45,-0.55,189.42,-3.7,-1.3
1.7,5.75,0.0,3.0,7.25,0.0,0.0,0.0,2.25,0.0,0.75,0.0,0.25,0.75,-0.36,0.33,1.27,361.52,18.8,44.7,1.25,0.0,0.5,0.0,1.75,1.0,0.25,1.25,0.0,1.75,2.0,1.5,1.75,0.14,-0.3,0.2,195.48,0.2,-30.7
1.72,4.75,0.0,0.0,7.5,0.0,0.0,0.0,2.0,0.25,1.0,0.0,0.5,0.75,-0.42,0.39,1.39,292.02,14.1,34.9,0.5,0.0,0.25,0.75,1.75,1.5,0.25,1.75,0.25,6.75,4.25,5.25,5.75,-0.11,-0.42,0.64,272.0,4.0,-63.8
1.74,2.75,0.0,0.0,5.25,0.0,0.0,0.0,1.75,0.5,1.0,0.0,0.5,0.5,-0.55,0.39,1.95,230.23,11.5,24.0,0.5,0.0,0.25,0.0,1.5,0.75,0.0,3.5,0.75,8.25,7.5,5.25,7.5,-0.67,0.77,2.58,381.89,4.3,-71.9
1.76,0.0,0.0,0.75,3.75,0.0,0.0,0.0,0.0,0.25,1.0,0.0,0.5,0.5,-0.86,1.14,2.58,151.72,11.7,11.2,0.0,0.0,0.0,1.5,0.0,3.25,0.0,4.5,0.5,7.5,7.0,5.25,6.0,0.33,0.64,1.83,500.34,5.5,-65.9
1.78,0.0,0.0,0.75,2.75,0.0,0.0,0.0,0.0,0.5,1.0,0.0,0.0,0.0,-0.73,1.45,3.58,79.4,13.4,23.1,2.0,0.25,2.0,2.5,2.25,3.5,0.0,5.75,1.75,8.0,7.5,4.75,5.5,0.02,-0.11,0.77,626.85,1.0,-40.2
1.8,0.0,0.0,0.0,0.0,0.0,0.0,0.0,0.5,0.0,1.25,0.0,0.0,0.0,-0.73,0.52,2.58,16.43,-16.0,-65.0,2.0,0.75,4.0,3.25,2.5,3.5,1.0,6.5,2.5,8.5,8.0,5.25,5.5,0.2,0.27,1.02,748.23,-1.1,-33.6
1.82,0.0,0.0,0.0,0.0,0.0,0.0,0.0,0.25,0.5,0.75,0.0,0.0,0.5,-0.61,-0.73,1.33,0.0,-8.4,-70.6,3.0,0.75,5.25,3.25,2.5,3.5,1.75,6.75,3.0,8.75,8.75,5.25,5.5,0.2,0.2,1.02,864.28,-2.8,-29.7
1.84,0.0,0.0,0.25,0.0,0.0,0.0,0.0,0.0,0.0,0.0,0.0,0.0,0.0,-0.48,0.02,1.39,0.0,38.2,60.9,3.5,0.5,6.75,3.5,2.5,3.75,2.0,7.5,3.25,8.5,9.0,5.25,5.5,0.14,0.08,1.02,956.92,-3.8,-26.4
1.86,0.0,0.0,0.25,0.0,0.0,0.0,0.0,0.0,0.0,0.0,0.0,0.0,0.0,0.02,-1.23,1.89,0.0,38.2,60.9,4.5,0.75,7.5,3.5,2.75,3.75,2.0,7.5,3.25,8.0,8.5,4.5,4.75,0.2,0.08,0.89,1032.89,-5.0,-19.5
1.88,0.0,0.0,0.0,0.0,0.0,0.0,0.0,0.0,0.0,0.0,0.0,0.0,0.0,0.02,-0.48,1.39,0.0,0.0,0.0,5.25,1.5,8.0,5.25,3.75,4.0,2.0,6.75,2.75,6.75,7.75,3.5,4.0,0.2,0.08,0.95,1077.96,-6.6,-7.2
1.9,0.0,0.0,0.0,0.0,0.0,0.0,0.0,0.0,0.0,0.0,0.0,0.0,0.0,-0.3,-0.3,0.39,0.0,0.0,0.0,5.75,1.5,8.75,5.75,5.0,4.5,2.5,6.0,2.0,5.75,6.5,2.75,2.5,0.14,0.14,0.95,1083.39,-8.0,4.4
1.92,0.0,0.0,0.0,0.0,0.0,0.0,0.0,0.0,0.0,0.0,0.0,0.0,0.0,-0.36,0.02,0.14,0.0,0.0,0.0,6.0,2.0,9.25,6.0,5.5,4.25,2.5,5.75,2.0,4.25,5.25,1.5,2.25,0.14,0.14,0.95,1057.98,-9.2,14.0
1.94,0.0,0.0,0.0,0.0,0.0,0.0,0.0,0.0,0.0,0.0,0.0,0.0,0.0,-0.3,0.33,0.08,0.0,0.0,0.0,7.0,1.75,9.5,7.0,5.5,4.5,2.25,5.0,1.5,3.0,4.0,1.25,1.25,0.14,0.14,0.95,999.59,-11.1,24.6
1.96,0.0,0.0,0.0,0.0,0.0,0.0,0.0,0.0,0.0,0.0,0.0,0.0,0.0,-0.3,0.45,0.14,0.0,0.0,0.0,6.75,2.0,10.5,7.0,5.5,3.75,2.0,3.75,1.0,2.0,3.25,1.25,0.5,0.14,0.14,0.95,911.46,-13.6,33.2
1.98,0.0,0.0,0.0,0.0,0.0,0.0,0.0,0.0,0.0,0.0,0.0,0.0,0.0,-0.23,0.7,0.27,0.0,0.0,0.0,7.25,1.75,10.5,7.5,5.5,3.5,2.0,3.75,0.75,1.25,2.25,1.25,0.75,0.14,0.14,1.02,842.85,-14.5,37.2
2.0,0.0,0.0,0.0,0.0,0.0,0.0,0.0,0.0,0.0,0.0,0.0,0.0,0.0,-0.23,1.08,0.2,0.0,0.0,0.0,7.75,2.25,11.5,7.25,5.25,3.5,1.75,2.25,0.5,1.5,2.25,0.5,0.0,0.08,0.14,1.08,785.58,-16.7,46.0
2.02,0.0,0.0,0.0,0.0,0.0,0.0,0.0,0.0,0.0,0.0,0.0,0.0,0.0,-0.48,1.33,0.14,0.0,0.0,0.0,7.5,1.75,11.5,6.0,5.5,3.5,1.5,2.5,0.0,1.0,2.0,0.75,0.0,0.08,0.2,1.08,722.01,-16.6,46.4
2.04,0.0,0.0,0.0,0.0,0.0,0.0,0.0,0.0,0.0,0.0,0.0,0.0,0.0,-0.61,1.45,0.02,0.0,0.0,0.0,7.75,1.5,10.5,6.75,2.25,3.25,0.75,2.25,0.25,1.25,2.0,0.25,0.0,0.08,0.2,1.14,644.82,-18.3,47.1
2.06,0.0,0.0,0.0,0.0,0.0,0.0,0.0,0.0,0.0,0.0,0.0,0.0,0.0,-0.86,1.58,-0.36,0.0,0.0,0.0,8.25,1.75,0.0,6.75,3.5,3.25,0.75,2.0,0.0,1.25,0.75,0.75,0.25,0.08,0.27,1.08,525.18,-10.3,46.0
2.08,0.0,0.0,0.0,0.0,0.0,0.0,0.0,0.0,0.0,0.0,0.0,0.0,0.0,-0.67,1.52,-0.3,0.0,0.0,0.0,8.5,1.25,11.5,6.0,2.25,3.25,0.5,2.25,0.25,0.0,2.0,0.75,1.0,0.08,0.27,0.95,496.31,-19.3,45.6
2.1,0.0,0.0,0.0,0.0,0.0,0.0,0.0,0.0,0.5,1.25,0.0,0.0,0.0,-3.3,7.95,-7.55,10.23,-7.8,-65.0,8.0,1.0,11.5,5.0,2.5,0.0,0.0,1.75,0.0,0.0,1.5,0.25,0.0,0.02,0.33,0.95,445.74,-24.9,56.6
2.12,0.0,0.0,0.0,0.0,0.0,0.0,0.0,0.0,0.25,1.0,0.0,0.25,0.0,-1.67,3.33,2.2,18.91,-7.0,-75.1,8.25,0.25,10.5,5.5,1.25,1.0,0.0,0.5,0.0,0.5,0.75,0.0,0.0,-0.05,0.39,1.02,412.96,-26.2,61.7
2.14,0.0,0.0,0.0,0.25,0.0,0.0,0.0,0.0,0.0,0.5,0.0,0.0,0.0,-4.3,0.64,-2.42,21.63,-4.3,-29.6,8.25,0.5,11.0,4.75,0.5,1.25,0.0,0.75,0.0,0.0,0.75,0.0,0.0,0.02,0.45,1.33,379.23,-27.4,63.8
2.16,0.0,0.0,0.0,0.0,0.0,0.0,0.0,0.0,0.25,0.75,0.0,0.0,0.25,-1.67,0.39,-0.73,23.88,-9.8,-75.3,8.0,1.0,10.5,4.5,0.0,1.0,0.0,0.5,0.0,0.0,0.25,0.0,0.0,0.02,0.39,1.33,354.28,-28.8,68.4
2.18,0.0,0.0,0.25,0.5,0.0,0.0,0.0,0.0,0.75,0.25,0.0,0.5,0.0,0.33,-1.73,0.89,29.07,12.5,-24.6,8.0,0.25,10.5,4.0,0.0,1.0,0.75,0.5,0.0,0.0,1.25,0.0,0.0,-0.11,0.39,0.83,332.46,-28.9,61.7
2.2,0.0,0.0,0.5,1.0,0.0,0.0,0.0,0.25,0.25,1.0,0.0,0.5,0.75,0.64,-1.61,1.2,44.93,3.3,-32.8,8.0,0.25,9.75,3.5,0.0,0.75,1.25,0.25,0.0,0.0,0.0,0.0,0.0,-0.36,0.52,0.83,312.26,-30.9,70.1
2.22,0.25,0.0,0.0,1.0,0.0,0.0,0.0,0.0,0.0,0.0,0.0,0.25,0.0,0.08,2.52,-1.42,45.34,18.5,36.7,6.75,0.0,9.25,3.25,0.0,1.25,1.75,0.5,0.0,1.0,0.0,0.5,0.0,-0.55,0.7,0.83,301.39,-26.8,56.2
2.24,0.0,0.0,0.0,0.0,0.0,0.0,0.0,0.0,0.0,1.5,0.0,0.0,0.0,-0.42,1.45,0.58,44.45,-15.6,-75.5,6.0,0.25,9.25,4.75,0.0,1.25,3.0,0.5,0.0,0.5,1.5,0.25,0.75,-0.61,0.64,0.52,307.92,-24.9,47.0
2.26,0.0,0.0,0.0,0.0,0.0,0.0,2.0,0.0,0.5,0.0,0.0,0.0,0.5,-0.86,1.02,0.52,38.92,15.2,-25.1,5.5,0.0,9.25,3.25,0.0,0.75,3.0,0.5,0.0,0.0,0.5,0.25,0.0,-0.48,0.58,0.2,300.37,-29.4,58.8
2.28,0.0,0.0,0.0,0.0,0.0,0.0,0.0,0.0,0.0,1.25,0.0,0.0,0.0,-1.48,1.64,0.27,32.89,-15.7,-75.5,5.75,0.75,8.0,3.5,0.0,1.0,3.0,0.75,0.0,1.25,1.5,0.75,1.0,-0.48,0.7,0.27,314.07,-22.4,37.4
2.3,0.0,0.0,1.0,0.0,0.0,0.0,2.0,1.5,0.0,0.0,0.0,0.0,0.0,-1.23,1.27,0.33,39.57,12.9,8.8,5.25,0.5,8.75,3.75,0.0,1.0,3.75,0.5,0.0,1.25,1.25,0.75,0.5,-0.42,0.89,0.27,321.58,-24.1,41.3
2.32,0.0,0.0,0.0,0.0,0.0,0.0,0.0,0.0,0.25,0.5,0.0,0.0,0.25,-0.8,1.27,-0.3,34.29,-8.3,-75.2,4.5,0.5,8.75,3.25,0.0,1.25,3.5,0.5,0.0,1.25,0.25,0.75,0.0,-0.36,0.58,-0.11,315.77,-24.8,47.5
2.34,0.0,0.0,0.0,0.0,0.0,0.0,0.0,0.0,0.0,0.0,0.0,0.0,0.0,0.14,2.45,0.14,23.48,0.0,0.0,2.0,0.0,7.75,2.0,0.0,0.5,2.5,0.5,0.0,0.0,0.25,0.0,0.0,-0.61,1.02,-0.48,281.25,-29.9,55.8
2.36,0.0,0.0,0.0,0.25,0.0,0.0,0.0,0.0,0.25,1.0,0.0,0.0,0.0,-0.92,2.52,0.83,18.67,-5.4,-46.3,1.25,0.0,6.75,1.0,0.0,0.25,1.5,0.25,0.0,0.0,0.0,0.0,0.0,-0.86,0.83,-0.8,231.93,-32.6,59.4
2.38,0.0,0.0,0.0,0.25,0.0,0.0,0.0,0.5,0.25,1.0,0.0,0.5,0.25,-0.98,1.58,0.89,25.5,-5.6,-62.3,1.0,0.0,5.25,0.5,0.0,0.5,1.25,0.5,0.0,0.0,1.75,0.0,0.0,-1.05,1.58,-0.61,177.65,-26.3,33.2
2.4,0.0,0.0,0.0,0.0,0.0,0.0,0.25,0.75,0.25,0.75,0.0,0.0,0.0,0.2,-0.48,-1.48,27.46,-9.3,-49.2,2.0,0.75,2.75,2.0,0.0,1.25,1.0,0.75,0.0,0.0,1.0,0.0,0.5,-0.61,2.95,0.64,147.15,-17.3,39.0
2.42,0.0,0.0,0.0,0.0,0.0,0.0,0.0,0.0,0.0,0.5,0.0,0.0,0.0,0.95,-1.73,-0.98,22.83,-15.7,-75.5,1.75,0.25,2.75,1.75,0.5,1.25,0.75,0.75,0.0,1.0,1.0,0.5,0.5,-0.11,3.02,-0.55,138.48,-13.1,20.6
2.44,0.0,0.0,0.0,0.0,0.0,0.0,0.0,0.0,0.0,0.25,0.0,0.0,0.0,0.58,-1.67,-0.3,14.73,-15.7,-75.5,1.75,0.25,2.75,2.0,1.25,1.0,0.75,0.75,0.0,1.25,1.5,0.5,0.25,0.52,-0.11,-0.86,150.08,-12.6,20.5
2.46,0.0,0.0,0.0,0.0,0.0,0.0,0.0,0.0,0.0,0.25,0.0,0.0,0.0,0.08,-1.17,-0.11,7.87,-15.7,-75.5,1.75,0.25,2.75,2.0,1.75,1.0,0.75,0.5,0.0,1.25,1.5,0.25,0.5,1.02,-2.55,-0.92,162.31,-12.1,22.8
2.48,0.0,0.0,0.5,0.0,0.0,0.0,0.0,0.0,0.0,0.75,0.0,0.0,0.0,0.08,0.77,-0.05,7.29,6.2,-19.9,0.75,0.0,2.75,0.5,1.75,1.0,0.75,0.75,0.0,0.0,1.25,0.0,0.25,1.02,-2.67,-0.48,150.67,-12.7,28.4
2.5,0.0,0.0,0.0,0.0,0.0,0.0,0.0,0.0,0.0,0.0,0.0,0.0,0.0,0.08,1.77,-0.23,3.35,0.0,0.0,0.75,0.0,1.25,0.25,0.0,0.5,0.25,0.5,0.0,0.0,0.0,0.0,0.0,0.2,-1.92,0.14,109.09,-18.8,48.5
2.52,0.0,0.0,0.0,0.0,0.0,0.0,0.0,0.0,0.25,0.75,0.0,0.5,0.0,0.14,1.58,-0.8,10.92,-2.9,-80.8,0.75,0.0,0.75,0.5,0.0,1.0,0.25,0.5,0.0,0.0,0.0,0.0,0.0,-0.61,-0.36,0.58,65.02,-10.3,45.5
2.54,0.0,0.0,0.75,0.25,0.0,0.0,0.0,0.0,0.25,0.75,0.0,0.5,0.0,0.14,2.14,-0.23,19.72,11.7,-23.1,0.75,0.25,0.5,1.25,0.0,1.0,0.75,0.5,0.0,1.25,0.75,0.5,0.0,-1.17,1.89,0.52,53.67,-6.2,2.8
2.56,0.0,0.0,0.5,0.25,0.0,0.0,0.0,0.0,0.25,1.0,0.0,0.5,0.5,-0.42,2.2,0.14,35.32,2.9,-49.3,1.25,0.25,2.5,1.75,1.75,1.25,0.5,0.75,0.0,1.25,1.25,0.0,0.75,-0.23,7.7,-2.61,96.76,-8.9,19.4
2.58,0.0,0.0,0.75,0.25,0.0,0.0,0.0,0.0,0.25,1.0,0.0,0.5,0.25,-0.55,1.7,0.2,43.95,7.3,-34.8,1.25,0.25,2.75,1.75,1.5,1.25,0.5,0.5,0.0,1.25,1.0,0.0,0.5,0.52,2.45,0.27,141.15,-10.7,25.2
2.6,0.0,0.0,0.25,0.0,0.0,0.0,0.0,0.0,0.25,1.0,0.0,0.5,0.25,-0.67,1.14,0.08,45.95,-0.8,-67.4,1.5,0.25,2.75,1.25,1.75,1.0,0.5,0.5,0.0,1.0,1.0,0.0,0.5,-0.73,0.83,-0.67,171.63,-11.8,27.8
2.62,0.0,0.0,0.5,0.0,0.0,0.0,0.0,1.25,0.0,1.0,0.0,0.25,0.0,-0.8,1.2,0.08,48.59,-4.9,-39.8,1.0,0.5,2.5,1.25,1.75,1.0,0.25,0.5,0.0,1.25,1.25,0.0,0.5,-0.3,0.89,-0.11,180.59,-9.5,21.6
2.64,0.0,0.0,0.75,0.25,0.0,0.0,0.0,0.25,0.25,1.0,0.0,0.25,0.0,-0.61,1.39,0.08,49.61,6.9,-21.5,0.25,0.0,2.75,0.5,1.75,0.5,1.0,0.75,0.0,0.0,0.0,0.0,0.0,-0.36,0.95,0.64,161.37,-15.1,45.7
2.66,0.0,0.0,1.0,0.0,0.0,0.0,0.0,1.5,0.0,1.0,0.0,0.5,0.0,-0.42,1.39,0.08,57.23,0.7,-31.1,0.25,0.0,0.0,1.0,0.0,0.5,0.25,0.5,0.0,0.0,0.0,0.0,0.0,-0.36,1.08,1.14,115.21,-4.5,35.1
2.68,0.0,0.0,0.5,0.0,0.0,0.0,0.0,0.0,0.0,1.0,0.0,0.25,0.5,-0.3,1.2,0.02,54.05,-0.3,-56.1,0.75,0.0,0.0,0.25,0.0,0.5,0.0,0.5,0.0,0.0,0.0,0.0,0.0,-0.3,1.2,0.45,70.86,-5.0,41.5
2.7,0.0,0.0,0.5,0.0,0.0,0.0,0.0,1.5,0.0,1.0,0.0,0.5,0.25,-0.3,0.83,-0.05,58.85,-5.3,-49.1,1.75,0.25,0.0,1.0,0.0,1.0,0.5,0.75,0.25,1.25,1.25,0.0,0.25,-0.3,1.33,-0.05,70.77,-5.7,4.1
2.72,0.0,0.0,0.25,0.0,0.0,0.0,0.0,1.5,1.5,0.0,0.0,0.0,0.0,-0.23,0.45,-0.23,56.27,0.8,-30.7,0.75,0.25,2.0,1.0,1.25,1.0,0.25,0.75,0.0,1.25,1.0,0.25,0.75,-0.42,1.08,-0.3,99.81,-6.8,7.9
2.74,0.0,0.0,0.0,0.0,0.0,0.0,3.5,2.75,1.0,0.0,0.0,0.0,0.0,0.02,0.45,-0.55,67.83,3.7,-18.2,1.25,0.25,1.75,1.0,1.5,1.0,0.25,0.5,0.0,1.25,1.0,0.25,0.25,-0.23,0.7,-0.36,131.37,-8.6,19.0
2.76,0.0,0.0,0.0,0.0,0.0,0.0,3.5,3.25,1.5,0.0,0.0,0.0,0.0,0.52,0.83,-0.86,79.25,2.7,-21.4,1.25,0.0,1.5,0.25,1.75,0.5,0.25,0.75,0.0,0.0,1.0,0.0,1.25,-0.11,0.45,-0.42,139.64,-8.2,12.5
2.78,0.0,0.0,0.0,0.0,0.0,0.0,3.5,3.75,1.0,0.0,0.0,0.0,0.0,0.64,1.08,-0.8,92.2,0.5,-21.4,0.25,0.0,0.0,0.25,0.0,0.75,0.0,0.5,0.0,0.0,0.0,0.0,0.0,-0.11,0.45,-0.42,101.68,7.0,25.1
2.8,0.0,0.0,0.0,0.0,0.0,0.0,3.0,2.5,1.25,0.0,0.0,0.0,0.0,0.52,1.02,-0.61,93.79,3.7,-20.3,0.25,0.0,0.0,0.5,0.0,0.75,0.0,0.5,0.0,0.0,0.0,0.0,0.0,-0.23,0.64,-0.55,60.42,3.7,29.4
2.82,0.0,0.0,0.0,0.0,0.0,0.0,3.25,3.5,2.75,1.75,0.0,0.75,0.0,0.14,0.7,-0.55,118.53,0.3,-40.1,1.0,0.25,0.5,0.75,1.25,1.25,0.75,0.75,0.0,1.25,1.0,0.5,1.25,-0.23,0.89,-0.67,73.17,-1.3,-6.9
2.84,0.0,0.0,0.75,0.0,0.0,0.0,0.25,0.5,0.25,0.25,0.0,0.5,0.75,-0.05,0.64,-0.55,103.56,5.6,-43.3,0.5,0.25,1.25,0.75,1.5,1.0,0.25,0.5,0.0,1.25,2.0,0.5,0.75,-0.36,1.08,-0.67,102.78,-4.3,-7.1
2.86,0.0,0.0,0.75,0.0,0.0,0.0,0.0,1.0,0.25,1.0,0.0,0.5,0.5,-0.05,0.64,-0.48,94.31,-0.6,-46.6,0.75,0.25,1.5,0.5,1.5,1.0,0.25,0.5,0.0,1.25,1.0,0.25,0.75,-0.48,1.14,-0.55,132.6,-4.8,5.0
2.88,0.0,0.0,0.75,0.0,0.0,0.0,0.0,0.75,0.25,0.25,0.0,0.5,0.75,-0.05,0.7,-0.48,73.61,3.0,-45.5,0.75,0.5,0.75,1.0,1.0,1.0,0.25,0.5,0.0,1.25,1.0,0.5,0.5,-0.42,1.2,-0.36,148.68,-4.0,2.9
2.9,0.75,0.0,0.25,1.25,0.0,0.0,0.5,2.0,1.5,1.25,0.0,0.75,1.0,-0.17,0.89,-0.36,90.71,2.4,-28.5,1.0,0.25,1.5,0.5,1.5,1.0,0.25,0.75,0.0,1.25,1.25,0.5,0.5,-0.42,1.14,-0.17,158.16,-5.7,4.2
2.92,0.0,0.0,0.75,0.0,0.0,0.0,0.25,1.0,0.25,0.75,0.0,0.5,0.5,-0.23,1.02,-0.36,82.12,1.3,-42.5,0.75,0.25,1.0,0.5,1.5,1.0,0.25,1.25,0.0,1.25,1.0,0.5,1.0,-0.3,1.08,-0.05,154.93,-1.2,-6.6
2.94,0.0,0.0,0.75,0.0,0.0,0.0,0.0,1.0,0.25,1.0,0.0,0.5,0.5,-0.3,1.2,-0.3,80.73,-0.6,-46.6,1.0,0.0,1.25,0.75,1.25,1.0,0.25,0.75,0.0,0.75,1.25,0.5,0.25,-0.23,1.02,0.02,148.45,-6.9,7.6
2.96,0.0,0.0,0.75,0.0,0.0,0.0,0.0,1.0,0.25,0.25,0.0,0.5,0.5,-0.36,1.27,-0.23,65.9,2.8,-40.0,0.5,0.5,1.0,1.0,1.25,1.0,0.25,0.5,0.0,1.25,1.0,0.75,0.5,-0.23,0.95,0.02,148.78,-4.1,0.8
2.98,0.75,0.0,1.5,0.25,0.0,0.0,0.0,1.5,1.5,1.25,0.0,0.5,0.75,-0.3,1.2,-0.17,77.91,6.8,-21.3,0.75,0.0,1.0,1.0,1.5,1.25,0.25,0.5,0.0,1.25,1.0,0.5,0.5,-0.3,0.89,0.02,150.34,-3.4,3.1
3.0,0.0,0.0,1.0,0.0,0.0,0.0,0.0,1.5,0.25,1.0,0.0,0.5,0.5,-0.3,1.14,-0.17,75.11,-0.2,-40.0,1.0,0.25,1.0,0.5,1.25,1.0,0.25,0.5,0.0,1.25,1.25,0.5,0.75,-0.3,0.89,-0.05,152.03,-4.2,-2.2
3.02,0.0,0.0,1.0,0.0,0.0,0.0,0.0,1.5,0.25,1.0,0.0,0.25,0.5,-0.17,1.08,-0.17,78.18,-0.7,-36.2,1.0,0.25,0.5,0.5,1.5,1.0,0.25,0.75,0.0,1.25,1.0,0.5,0.5,-0.36,0.89,-0.17,150.5,-1.8,0.0
3.04,0.0,0.0,0.75,0.0,0.0,0.0,0.0,1.5,2.25,1.0,0.0,0.5,0.75,-0.11,1.02,-0.23,86.01,1.4,-46.1,0.5,0.0,0.5,0.75,1.0,1.0,0.25,0.5,0.0,1.25,1.0,0.5,0.5,-0.36,0.89,-0.17,136.35,-1.0,-10.1
3.06,0.0,0.0,0.25,0.0,0.0,0.0,0.0,1.5,0.25,1.0,0.0,0.5,0.5,0.02,1.02,-0.23,79.65,-7.6,-59.4,0.5,0.75,0.75,0.75,1.75,1.0,0.25,0.75,0.0,1.25,1.25,0.5,0.5,-0.42,0.89,-0.17,133.76,-2.2,3.2
3.08,0.0,0.0,1.0,0.0,0.0,0.0,0.0,1.5,0.25,1.0,0.0,0.5,0.5,0.08,0.95,-0.3,81.48,-0.2,-40.0,1.0,0.25,0.5,0.5,1.25,1.0,0.25,0.75,0.0,1.25,1.5,0.5,0.5,-0.36,0.83,-0.23,133.43,-2.4,-5.7
3.1,0.0,0.0,1.0,0.0,0.0,0.0,0.0,1.5,0.25,1.0,0.0,0.5,0.5,0.14,0.95,-0.36,76.04,-0.2,-40.0,1.0,0.25,0.75,0.5,1.25,1.0,0.25,0.75,0.0,1.25,1.0,0.5,0.25,-0.23,0.77,-0.3,135.01,-3.5,3.1
3.12,0.0,0.0,0.75,0.0,0.0,0.0,0.0,0.0,0.25,1.0,0.0,0.5,0.5,0.14,0.95,-0.42,66.22,4.6,-49.2,0.75,0.25,0.5,0.5,1.5,1.0,0.25,0.75,0.0,1.25,1.0,0.5,0.5,-0.23,0.77,-0.3,132.84,-0.9,-2.6
3.14,0.0,0.0,1.25,0.0,0.0,0.0,0.0,1.0,0.25,1.0,0.0,0.5,0.5,0.14,0.95,-0.55,61.13,3.7,-34.4,0.5,0.25,0.0,0.5,1.0,1.0,0.25,0.75,0.0,1.25,1.0,0.5,0.75,-0.17,0.77,-0.42,125.05,2.7,-17.7
3.16,0.0,0.0,0.75,0.0,0.0,0.0,0.0,0.75,0.25,1.0,0.0,0.5,0.5,0.14,0.95,-0.55,61.15,0.4,-47.1,0.5,0.25,0.25,0.5,1.25,1.0,0.25,0.75,0.0,1.25,1.0,0.5,0.5,-0.17,0.83,-0.48,119.92,1.0,-9.7
3.18,0.25,0.0,0.5,0.0,0.0,0.0,0.0,0.75,0.25,1.0,0.0,0.5,0.5,0.14,0.95,-0.55,59.47,0.0,-45.5,0.75,0.25,0.5,0.5,1.25,1.0,0.25,0.75,0.0,1.25,1.0,0.75,0.5,-0.17,0.89,-0.55,120.46,-1.3,-7.5
3.2,0.25,0.0,0.75,0.0,0.0,0.0,0.0,1.0,0.25,1.0,0.0,0.5,0.5,0.14,1.02,-0.48,58.52,1.3,-38.7,1.25,0.25,0.75,0.5,1.0,1.0,0.25,0.75,0.0,1.25,1.0,0.75,1.0,-0.23,0.95,-0.61,127.69,-3.2,-7.9
3.22,0.5,0.0,1.0,0.0,0.0,0.0,0.0,1.0,0.25,1.0,0.0,0.5,0.5,0.08,1.02,-0.42,60.49,4.9,-26.6,0.5,0.25,0.5,0.5,1.5,1.0,0.25,0.5,0.0,1.25,1.5,0.5,0.5,-0.23,1.02,-0.67,130.37,-1.1,-8.3
3.24,0.25,0.0,0.5,0.0,0.0,0.0,0.0,0.75,0.25,1.0,0.0,0.5,0.5,0.08,1.02,-0.42,61.78,0.0,-45.5,1.0,0.25,0.25,0.5,1.5,1.0,0.25,0.75,0.0,1.25,1.0,0.5,1.0,-0.23,1.02,-0.61,134.96,0.0,-7.8
3.26,0.25,0.0,1.0,0.0,0.0,0.0,0.0,1.0,0.25,0.75,0.0,0.5,0.5,0.08,1.02,-0.42,62.09,4.5,-30.5,0.75,0.5,0.75,0.25,1.0,1.0,0.25,0.75,0.0,1.0,1.0,0.5,0.5,-0.23,1.02,-0.55,131.95,-2.8,-1.1
3.28,0.5,0.0,1.0,0.0,0.0,0.0,0.0,1.5,0.25,1.0,0.0,0.5,0.5,0.02,0.95,-0.36,66.36,2.9,-27.7,1.0,0.25,0.75,0.5,1.0,1.0,0.25,1.0,0.0,1.0,1.0,0.75,0.25,-0.23,0.95,-0.48,131.23,-3.9,-0.6
3.3,0.25,0.0,1.5,0.0,0.0,0.0,0.0,0.0,0.25,1.0,0.0,0.5,0.5,0.08,0.95,-0.36,67.38,12.8,-19.6,0.5,0.25,0.5,0.5,1.5,1.0,0.25,0.75,0.0,1.25,1.0,0.25,0.5,-0.23,0.89,-0.42,126.64,0.2,-2.3
3.32,0.25,0.0,0.0,0.0,0.0,0.0,0.0,1.25,0.25,0.5,0.0,0.5,0.5,0.08,0.89,-0.3,63.07,-6.2,-56.7,1.25,0.0,0.5,0.5,1.25,1.0,0.25,0.75,0.0,1.0,1.0,0.5,0.75,-0.23,0.89,-0.36,128.8,-2.6,-3.2
3.34,0.0,0.0,0.5,0.0,0.0,0.0,0.0,1.25,0.0,0.0,0.0,0.0,0.75,0.08,0.89,-0.3,53.9,-4.6,-40.1,1.25,0.5,0.5,0.5,1.25,1.0,0.25,0.5,0.0,1.0,1.0,0.5,0.5,-0.17,0.83,-0.3,130.28,-4.2,6.9
3.36,0.0,0.0,0.0,0.0,0.0,0.0,0.0,0.0,0.0,0.0,0.0,0.0,0.0,0.14,0.83,-0.3,32.59,0.0,0.0,0.75,0.25,0.5,0.5,0.5,1.0,0.25,0.5,0.0,1.25,1.25,0.5,0.5,-0.17,0.77,-0.3,125.78,-2.5,-12.3
3.38,0.0,0.0,0.25,0.0,0.0,0.0,0.0,0.0,0.25,0.0,0.0,0.5,0.0,0.14,0.83,-0.3,17.48,17.2,-48.3,1.25,0.25,0.25,0.5,1.0,1.0,0.25,0.5,0.0,1.0,1.0,0.75,0.5,-0.11,0.77,-0.3,124.12,-3.3,-2.8
3.4,0.0,0.0,0.5,0.0,0.0,0.0,0.25,0.5,0.25,0.0,0.0,0.5,0.0,0.14,0.83,-0.36,12.8,12.0,-26.0,0.75,0.25,0.25,0.5,1.25,1.0,0.25,0.75,0.0,1.25,1.0,0.75,0.75,-0.11,0.77,-0.36,123.18,0.1,-12.6
3.42,0.25,0.0,0.5,0.0,0.0,0.0,0.25,1.0,0.25,0.25,0.0,0.5,0.5,0.14,0.83,-0.36,22.88,3.3,-35.7,1.25,0.25,0.25,0.75,1.25,1.0,0.25,0.5,0.0,1.25,1.0,0.5,0.25,-0.11,0.77,-0.36,124.39,-3.3,5.2
3.44,0.5,0.0,0.5,0.0,0.0,0.0,0.25,0.25,0.25,1.0,0.0,0.5,0.5,0.14,0.83,-0.42,34.35,5.6,-34.7,1.25,0.25,0.5,0.5,1.0,1.0,0.25,0.75,0.0,1.25,1.0,0.5,0.25,-0.11,0.77,-0.42,125.48,-3.6,2.3
3.46,0.5,0.0,1.0,0.0,0.0,0.0,0.0,0.75,0.25,1.0,0.0,0.5,0.5,0.14,0.89,-0.42,49.83,6.1,-25.9,0.75,0.25,0.5,0.5,1.5,1.0,0.25,0.75,0.0,1.0,1.0,0.5,0.5,-0.17,0.77,-0.42,127.83,-1.4,-0.5
3.48,0.5,0.0,1.0,0.0,0.0,0.0,0.0,1.5,0.25,1.0,0.0,0.5,0.5,0.14,0.89,-0.42,63.52,2.9,-27.7,1.5,0.25,0.5,0.5,1.0,1.0,0.25,0.5,0.0,1.25,1.0,0.5,0.5,-0.17,0.83,-0.42,129.09,-4.5,2.7
3.5,0.25,0.0,0.5,0.0,0.0,0.0,0.0,1.5,0.25,0.25,0.0,0.5,0.75,0.14,0.89,-0.42,67.61,-1.0,-42.8,0.5,0.25,0.5,1.25,1.25,1.0,0.25,0.5,0.0,1.25,1.0,0.5,0.25,-0.17,0.83,-0.48,129.88,-2.6,2.5
3.52,0.25,0.0,0.75,0.0,0.0,0.0,0.0,0.0,0.25,0.5,0.0,0.5,0.5,0.14,0.89,-0.42,62.32,10.9,-32.0,0.5,0.25,0.25,0.5,1.0,1.0,0.25,0.75,0.0,1.25,1.5,0.5,0.5,-0.23,0.89,-0.48,127.21,0.2,-15.8
3.54,0.5,0.0,0.5,0.0,0.0,0.0,0.0,0.5,0.25,0.75,0.0,0.5,0.5,0.14,0.89,-0.42,60.27,4.6,-34.2,0.75,0.25,0.5,0.5,1.25,1.0,0.25,0.75,0.0,1.25,1.0,0.5,0.75,-0.23,0.89,-0.48,128.04,-0.6,-7.7
3.56,0.5,0.0,0.75,0.0,0.0,0.0,0.0,0.0,0.25,0.25,0.0,0.5,0.5,0.14,0.89,-0.42,54.32,15.4,-17.0,0.5,0.25,0.5,0.5,0.5,1.0,0.25,0.75,0.0,1.0,2.0,0.75,0.5,-0.23,0.89,-0.42,125.48,-2.4,-22.7
3.58,0.5,0.0,1.25,0.0,0.0,0.0,0.25,1.0,0.25,0.25,0.0,0.5,0.75,0.14,0.95,-0.42,60.89,9.8,-17.0,1.0,0.25,0.25,0.5,1.5,1.0,0.25,0.5,0.0,1.0,1.0,0.5,0.5,-0.17,0.89,-0.42,125.58,-1.8,1.4
3.6,0.5,0.0,0.5,0.0,0.0,0.0,0.0,0.25,0.25,0.25,0.0,0.5,0.5,0.14,0.95,-0.42,57.01,10.3,-26.3,1.0,0.25,0.5,0.5,1.5,1.0,0.25,0.5,0.0,1.25,1.0,0.75,0.5,-0.17,0.89,-0.42,128.82,-2.5,-2.0
3.62,0.25,0.0,0.75,0.0,0.0,0.0,0.0,0.5,0.25,0.25,0.0,0.5,0.75,0.14,1.02,-0.36,55.53,6.8,-35.8,0.5,0.25,0.25,0.5,1.5,1.0,0.25,0.75,0.0,1.0,1.25,0.5,0.75,-0.17,0.89,-0.42,128.73,0.7,-10.5
3.64,0.25,0.0,0.5,0.0,0.0,0.0,0.0,1.25,0.25,0.25,0.0,0.5,0.5,0.14,1.02,-0.36,51.88,0.9,-38.1,1.0,0.25,0.25,0.5,0.5,1.0,0.25,0.75,0.0,1.25,1.0,0.5,1.25,-0.11,0.89,-0.42,127.08,0.0,-19.5
3.66,0.25,0.0,0.5,0.0,0.0,0.0,0.0,0.75,0.25,0.0,0.0,0.5,0.5,0.14,1.02,-0.36,47.38,5.6,-34.6,1.0,0.25,0.5,0.5,1.0,1.0,0.25,0.5,0.0,1.0,1.0,0.75,0.5,-0.05,0.89,-0.42,125.17,-3.5,-3.7
3.68,0.25,0.0,0.5,0.0,0.0,0.0,0.0,0.75,0.25,0.0,0.0,0.5,0.5,0.14,1.02,-0.36,43.48,5.6,-34.6,1.0,0.25,0.5,0.5,1.0,1.0,0.25,0.75,0.0,1.25,1.0,0.75,0.25,-0.05,0.95,-0.42,124.93,-2.9,-3.6
3.7,0.25,0.0,0.75,0.0,0.0,0.0,0.0,1.25,0.25,0.25,0.0,0.5,0.5,0.2,0.95,-0.36,46.07,3.5,-31.3,0.75,0.25,0.25,0.5,1.5,1.0,0.5,0.75,0.0,1.25,0.25,0.75,0.5,-0.05,0.95,-0.42,123.79,0.3,-1.0
3.72,0.5,0.0,0.5,0.0,0.0,0.0,0.0,1.0,0.25,1.0,0.0,0.5,0.5,0.14,0.95,-0.36,53.05,0.9,-37.2,0.5,0.25,0.5,0.5,1.25,1.0,0.25,0.5,0.0,1.25,1.5,0.5,1.0,0.02,0.95,-0.42,126.73,-0.4,-16.1
3.74,0.5,0.0,0.5,0.0,0.0,0.0,0.0,1.0,0.25,0.5,0.0,0.5,0.5,0.14,0.95,-0.36,57.54,3.1,-32.1,1.25,0.25,0.25,0.5,0.5,1.0,0.25,0.5,0.0,1.25,0.75,0.5,0.5,0.08,0.95,-0.42,122.24,-2.7,-3.7
3.76,0.5,0.0,0.75,0.0,0.0,0.0,0.0,1.5,0.25,1.0,0.0,0.5,0.75,0.14,0.95,-0.36,68.39,0.3,-36.1,0.5,0.25,0.5,0.5,1.25,1.0,0.25,0.5,0.0,1.25,1.0,0.75,0.5,0.08,0.95,-0.42,122.06,-0.9,-9.6
3.78,0.5,0.0,0.75,0.0,0.0,0.0,0.0,1.75,0.5,0.25,0.0,0.5,0.5,0.14,0.95,-0.36,71.92,3.3,-26.1,1.25,0.25,0.5,0.5,1.0,1.0,0.25,0.5,0.0,1.25,1.0,0.5,0.25,0.08,0.95,-0.42,120.71,-4.2,3.5
3.8,0.5,0.0,0.75,0.25,0.0,0.0,0.0,1.0,0.25,0.0,0.0,0.5,0.25,0.2,0.95,-0.36,69.61,10.7,-6.6,1.0,0.25,0.5,0.75,1.5,1.0,0.25,0.5,0.0,1.25,1.0,0.5,0.5,0.08,0.95,-0.42,126.61,-2.8,2.6
3.82,0.5,0.0,0.5,0.0,0.0,0.0,0.0,0.0,0.25,0.0,0.0,0.5,0.5,0.2,0.95,-0.36,57.01,16.2,-19.4,1.25,0.25,0.0,0.5,0.5,1.0,0.25,0.75,0.0,1.25,1.0,0.5,0.5,0.08,0.95,-0.42,122.93,-1.1,-9.4
3.84,0.5,0.0,1.0,0.0,0.0,0.0,0.0,0.25,0.25,0.0,0.0,0.5,0.5,0.2,0.95,-0.36,51.74,17.2,-7.2,0.75,0.25,0.25,0.5,1.0,1.0,0.25,0.75,0.0,1.25,1.0,0.5,0.25,0.08,0.95,-0.42,120.94,-0.5,-5.4
3.86,0.5,0.0,0.5,0.0,0.0,0.0,0.0,0.25,0.25,0.0,0.0,0.5,0.5,0.2,0.95,-0.36,42.92,12.9,-21.4,0.5,0.0,0.0,0.5,0.5,1.0,0.25,0.5,0.0,1.0,1.25,0.75,0.5,0.02,0.95,-0.42,110.95,0.8,-27.6
3.88,0.25,0.0,0.5,0.0,0.0,0.0,0.0,0.25,0.25,0.0,0.0,0.5,0.5,0.2,0.95,-0.36,38.12,10.6,-33.7,1.0,0.25,0.0,0.5,1.25,1.0,0.25,0.5,0.0,1.25,1.0,0.75,0.5,0.02,0.95,-0.42,112.0,-0.5,-7.9
3.9,0.5,0.0,0.5,0.0,0.0,0.0,0.0,0.0,0.25,0.25,0.0,0.5,0.25,0.2,0.95,-0.36,34.7,16.1,-15.3,0.75,0.25,0.0,0.5,1.5,1.0,0.25,0.75,0.0,1.25,1.25,0.25,0.75,-0.05,0.95,-0.42,114.86,1.6,-8.7
3.92,0.25,0.0,0.5,0.0,0.0,0.0,0.0,0.0,0.25,0.25,0.0,0.5,0.5,0.2,1.02,-0.36,32.18,10.7,-37.8,0.5,0.5,0.0,0.5,1.0,1.0,0.25,0.5,0.0,1.0,1.0,0.5,0.25,-0.05,0.95,-0.42,113.84,0.3,-3.7
3.94,0.5,0.0,0.5,0.0,0.0,0.0,0.0,0.75,0.25,0.0,0.0,0.5,0.5,0.2,1.02,-0.36,33.24,7.9,-24.3,0.5,0.0,0.25,0.75,1.25,1.0,0.25,0.5,0.0,1.25,1.0,0.5,0.25,-0.05,0.89,-0.42,113.38,0.0,-6.6
3.96,0.5,0.0,0.75,0.0,0.0,0.0,0.0,0.75,0.25,0.0,0.0,0.5,0.5,0.2,1.02,-0.36,37.62,10.3,-17.5,0.75,0.25,0.0,0.5,1.25,1.0,0.25,0.5,0.0,1.0,2.0,0.75,0.75,-0.11,0.89,-0.42,117.91,-0.7,-19.0
3.98,0.5,0.0,0.5,0.0,0.0,0.0,0.0,0.25,0.25,0.0,0.0,0.5,0.5,0.2,1.02,-0.36,38.69,12.9,-21.4,0.75,0.25,0.0,0.5,1.0,1.0,0.25,0.75,0.0,1.0,0.75,0.5,1.0,-0.11,0.89,-0.42,118.07,1.9,-13.6
4.0,0.5,0.0,0.5,0.0,0.0,0.0,0.0,0.5,0.25,0.0,0.0,0.5,0.5,0.2,0.95,-0.36,39.13,10.2,-22.9,1.25,0.25,0.0,0.5,1.0,1.0,0.25,0.5,0.0,1.0,1.0,0.75,0.5,-0.11,0.89,-0.42,118.56,-2.2,-4.9
4.02,0.5,0.0,0.5,0.0,0.0,0.0,0.0,0.5,0.25,0.0,0.0,0.5,0.5,0.2,0.95,-0.3,40.24,10.2,-22.9,0.5,0.5,0.0,0.75,1.5,1.0,0.25,0.75,0.0,1.25,1.0,0.5,0.5,-0.17,0.89,-0.42,122.09,1.3,-4.3
4.04,0.5,0.0,0.75,0.0,0.0,0.0,0.0,0.25,0.25,0.0,0.0,0.5,0.5,0.2,0.95,-0.3,42.03,15.3,-13.6,1.25,0.25,0.5,0.5,1.25,1.0,0.25,0.75,0.0,1.25,0.75,0.5,0.75,-0.17,0.89,-0.42,127.97,-2.2,-0.3
4.06,0.5,0.0,0.5,0.0,0.0,0.0,0.0,0.0,0.25,0.0,0.0,0.5,0.75,0.2,0.95,-0.3,41.41,13.1,-28.7,1.0,0.25,0.5,0.5,1.5,1.0,0.25,0.5,0.0,1.0,1.0,0.5,1.0,-0.17,0.83,-0.36,133.48,-1.9,-3.1
4.08,0.5,0.0,0.5,0.0,0.0,0.0,0.0,0.5,0.25,0.5,0.0,0.5,0.5,0.2,0.95,-0.36,44.27,6.2,-31.1,1.25,0.25,0.25,0.5,0.5,1.0,0.25,0.75,0.0,1.0,1.75,0.5,0.5,-0.17,0.83,-0.42,133.26,-3.6,-11.0
4.1,0.5,0.0,0.5,0.0,0.0,0.0,0.0,0.0,0.25,0.0,0.0,0.5,0.75,0.2,0.95,-0.36,43.22,13.1,-28.7,1.25,0.25,0.25,0.5,1.25,1.0,0.25,0.5,0.0,1.25,1.0,0.5,0.25,-0.11,0.83,-0.42,131.84,-2.9,3.5
4.12,0.5,0.0,0.5,0.0,0.0,0.0,0.0,0.25,0.25,0.25,0.0,0.5,0.5,0.2,0.95,-0.36,43.33,10.3,-26.3,1.25,0.25,0.5,0.5,1.25,1.0,0.25,0.75,0.0,1.25,1.0,0.5,0.25,-0.11,0.83,-0.42,130.39,-3.3,4.0
4.14,0.25,0.0,0.5,0.0,0.0,0.0,0.0,0.0,0.25,0.25,0.0,0.5,0.5,0.14,0.95,-0.36,39.92,10.7,-37.8,0.75,0.25,0.25,0.5,1.5,1.0,0.25,0.5,0.0,1.0,1.25,0.5,0.75,-0.11,0.83,-0.36,130.07,-0.7,-6.7
4.16,0.75,0.0,0.5,0.0,0.0,0.0,0.0,0.0,0.25,0.0,0.0,0.5,0.75,0.14,0.95,-0.3,39.98,15.0,-17.9,0.5,0.25,0.0,0.5,1.25,1.0,0.25,0.5,0.0,1.25,1.0,0.5,0.75,-0.11,0.89,-0.36,126.43,2.2,-14.4
4.18,0.5,0.0,0.5,0.0,0.0,0.0,0.0,0.0,0.25,0.0,0.0,0.5,0.75,0.14,0.95,-0.36,38.09,13.1,-28.7,0.5,0.25,0.25,0.5,1.0,1.0,0.25,0.5,0.0,1.0,1.0,0.5,0.25,-0.17,0.89,-0.36,117.99,-0.5,-5.2
4.2,0.5,0.0,0.5,0.0,0.0,0.0,0.0,0.25,0.25,0.0,0.0,0.5,0.5,0.14,1.02,-0.36,38.33,12.9,-21.4,1.5,0.25,0.0,0.5,1.25,1.0,0.25,0.75,0.0,1.25,1.0,0.5,0.5,-0.17,0.95,-0.36,119.06,-1.6,-0.2
