time,left pressure 0[N/cm²],left pressure 1[N/cm²],left pressure 2[N/cm²],left pressure 3[N/cm²],left pressure 4[N/cm²],left pressure 5[N/cm²],left pressure 6[N/cm²],left pressure 7[N/cm²],left pressure 8[N/cm²],left pressure 9[N/cm²],left pressure 10[N/cm²],left pressure 11[N/cm²],left pressure 12[N/cm²],left acceleration X[g],left acceleration Y[g],left acceleration Z[g],left total force[N],left center of pressure X[mm],left center of pressure Y[mm],right pressure 0[N/cm²],right pressure 1[N/cm²],right pressure 2[N/cm²],right pressure 3[N/cm²],right pressure 4[N/cm²],right pressure 5[N/cm²],right pressure 6[N/cm²],right pressure 7[N/cm²],right pressure 8[N/cm²],right pressure 9[N/cm²],right pressure 10[N/cm²],right pressure 11[N/cm²],right pressure 12[N/cm²],right acceleration X[g],right acceleration Y[g],right acceleration Z[g],right total force[N],right center of pressure X[mm],right center of pressure Y[mm]
0.02,0.0,1.0,0.0,0.25,0.0,0.0,0.5,5.5,1.25,4.0,4.5,2.5,4.0,-0.17,0.08,0.95,390.78,-4.3,-64.3,4.0,1.5,6.5,5.25,5.25,5.0,0.75,3.25,0.25,0.5,1.0,0.75,0.0,0.08,0.14,1.39,340.78,-9.9,41.1
0.04,0.0,1.0,0.0,1.75,0.0,0.0,0.0,0.0,0.75,2.0,0.0,1.5,0.0,-0.05,0.14,1.45,263.6,4.9,-19.0,5.0,2.5,7.75,7.25,6.25,5.25,1.75,4.25,0.75,2.25,1.5,0.75,1.25,0.2,0.2,1.14,521.68,-9.2,32.6
0.06,0.0,1.0,1.5,1.75,0.0,0.0,0.25,4.0,0.75,2.0,1.75,0.5,1.0,0.14,0.64,1.64,192.02,1.8,-22.4,4.75,1.5,8.5,6.0,7.0,5.25,2.75,6.0,1.25,1.5,1.5,1.25,1.0,0.08,0.14,1.08,688.3,-8.8,28.6
0.08,0.0,0.0,1.5,0.75,0.0,0.0,0.0,3.5,0.0,0.0,1.0,0.0,0.5,0.2,1.02,1.39,101.45,2.3,-17.1,6.0,2.5,8.5,7.25,6.75,5.5,3.25,7.25,2.0,5.0,4.25,2.25,2.5,0.14,0.08,1.02,913.59,-7.2,13.5
0.1,0.0,0.0,1.5,0.0,0.0,0.0,0.0,0.0,0.0,0.0,0.0,0.0,0.0,-1.42,2.64,0.7,25.55,38.2,60.9,6.25,2.5,8.5,7.5,7.0,5.5,3.5,7.25,2.0,5.5,5.0,2.25,2.75,0.2,0.14,1.02,1085.14,-7.1,12.0
0.12,0.0,0.0,0.0,0.0,0.0,0.0,0.0,0.0,0.0,0.0,0.0,0.0,0.0,0.27,2.33,0.45,0.0,0.0,0.0,6.25,2.5,8.75,7.5,6.75,5.25,3.75,7.25,2.0,5.25,5.0,2.25,2.5,0.2,0.14,0.95,1209.97,-7.7,12.8
0.14,0.0,0.0,0.0,0.0,0.0,0.0,0.0,0.0,0.0,0.0,0.0,0.0,0.0,0.33,2.27,0.89,0.0,0.0,0.0,6.25,2.5,9.0,7.5,6.75,5.25,3.75,7.0,2.0,4.75,4.0,1.75,2.25,0.2,0.14,0.95,1253.14,-8.1,16.8
0.16,0.0,0.0,0.0,0.0,0.0,0.0,0.0,0.0,0.0,0.0,0.0,0.0,0.0,-0.36,2.14,0.77,0.0,0.0,0.0,6.25,2.25,9.25,7.25,6.5,5.25,3.75,6.25,1.5,3.75,4.0,1.25,2.0,0.2,0.14,0.95,1226.55,-9.0,20.6
0.18,0.0,0.0,0.0,0.0,0.0,0.0,0.0,0.0,0.0,0.0,0.0,0.0,0.0,-0.61,1.7,0.89,0.0,0.0,0.0,6.25,2.0,9.25,7.25,6.0,5.0,3.5,6.25,1.5,3.5,3.75,1.25,1.25,0.14,0.14,0.95,1154.28,-9.6,22.5
0.2,0.0,0.0,0.0,0.0,0.0,0.0,1.0,0.0,0.0,0.0,0.0,0.0,0.0,-0.36,1.27,1.2,0.0,32.4,27.3,6.25,1.75,9.25,7.25,6.0,4.5,3.5,6.0,1.5,3.5,3.75,1.5,1.25,0.14,0.14,0.89,1074.63,-10.0,21.8
0.22,0.0,0.0,0.0,0.0,0.0,0.0,2.0,2.0,0.25,0.0,0.0,0.0,0.0,-0.3,0.83,1.2,0.0,0.1,-18.9,6.0,2.0,9.25,7.25,5.5,4.0,3.5,5.75,1.5,3.5,3.75,1.25,1.25,0.14,0.14,0.89,1001.68,-10.5,22.2
0.24,0.0,0.0,0.0,0.0,0.0,0.0,2.0,3.5,0.0,0.0,0.0,0.0,0.0,-0.36,0.52,1.27,0.0,-6.2,-24.5,6.0,1.75,9.25,7.25,5.25,4.25,3.5,5.75,1.5,4.0,3.75,1.25,1.5,0.14,0.14,0.95,927.51,-10.0,20.2
0.26,0.0,0.0,0.0,0.0,0.0,0.0,1.75,2.0,0.0,0.0,0.0,0.0,0.0,-0.17,0.33,1.27,11.93,-2.2,-19.2,5.75,1.75,9.25,7.25,5.0,4.0,3.5,5.75,1.5,4.25,3.75,1.5,1.5,0.14,0.14,0.95,876.06,-10.0,18.6
0.28,0.0,0.0,0.0,0.0,0.0,0.0,0.0,0.0,0.0,0.0,0.0,0.0,0.0,-0.11,0.27,1.02,19.93,0.0,0.0,5.75,1.75,9.25,7.25,5.25,4.0,3.75,6.0,1.75,4.75,3.75,1.75,1.75,0.14,0.14,0.95,853.54,-9.5,16.3
0.3,0.0,0.0,0.0,0.0,0.0,0.0,1.0,0.0,0.0,0.0,0.0,0.0,0.0,-0.17,0.14,0.95,9.96,32.4,27.3,5.75,1.75,9.25,7.25,5.25,4.0,4.0,6.0,2.0,5.0,4.0,2.0,1.75,0.14,0.14,0.95,852.47,-9.5,14.7
0.32,0.0,0.0,0.0,0.0,0.0,0.0,0.0,0.0,0.0,0.0,0.0,0.0,0.0,-0.17,-0.05,0.83,6.26,0.0,0.0,5.75,1.75,9.25,7.25,5.25,4.25,3.75,6.25,2.0,5.0,4.25,2.25,1.75,0.14,0.14,0.95,858.46,-9.2,13.6
0.34,0.0,0.0,0.0,0.0,0.0,0.0,0.0,0.0,0.0,0.0,0.0,0.0,0.0,-0.23,-0.11,0.77,4.14,0.0,0.0,5.5,2.0,9.25,7.25,5.25,4.75,3.5,6.25,2.0,5.5,4.5,2.0,2.25,0.14,0.14,0.89,885.44,-8.4,12.1
0.36,0.0,0.0,0.0,0.0,0.0,0.0,0.0,0.0,0.0,0.0,0.0,0.0,0.0,-0.23,-0.23,0.7,1.06,0.0,0.0,5.25,1.75,9.0,7.25,5.25,5.25,3.5,6.25,2.0,6.0,4.75,2.0,2.25,0.14,0.14,0.95,913.45,-7.7,10.2
0.38,0.0,0.0,0.0,0.0,0.0,0.0,0.5,0.25,0.0,0.0,0.0,0.0,0.0,-0.23,-0.3,0.45,2.12,7.2,-6.4,5.0,1.75,9.0,7.25,5.5,5.25,3.0,6.75,2.0,6.0,5.0,2.0,2.25,0.2,0.14,0.95,939.41,-7.3,9.3
0.4,0.0,0.0,0.0,0.0,0.0,0.0,0.0,0.0,0.0,0.0,0.0,0.0,0.0,-0.3,-1.05,1.64,0.0,0.0,0.0,5.0,1.75,8.75,7.25,5.75,5.25,2.75,7.25,2.0,6.25,5.0,2.25,2.75,0.2,0.14,0.95,966.62,-6.6,7.0
0.42,0.0,0.0,0.0,0.0,0.0,0.0,0.0,0.0,0.0,0.0,0.0,0.0,0.0,-0.23,-2.67,1.95,0.0,0.0,0.0,4.75,1.75,8.5,7.25,5.5,5.25,2.75,7.25,2.0,6.5,5.0,2.25,3.0,0.2,0.14,0.95,982.77,-6.2,5.4
0.44,1.5,0.0,1.75,3.25,0.0,0.0,0.0,3.0,0.0,0.5,0.0,0.0,0.5,-0.98,-3.8,1.64,55.23,10.4,21.9,4.5,1.75,8.5,7.25,5.5,5.25,2.25,7.25,2.0,6.5,5.5,2.25,2.5,0.2,0.14,0.95,987.55,-6.2,5.3
0.46,0.0,0.0,3.25,6.5,0.0,0.0,0.25,3.0,0.25,0.75,0.0,0.25,0.5,-0.36,2.33,-0.11,129.28,12.3,22.3,3.75,1.75,7.5,7.0,5.5,5.25,2.25,7.25,2.0,6.5,5.0,2.0,3.0,0.2,0.14,0.95,968.31,-5.0,3.1
0.48,0.0,0.0,0.0,7.75,0.0,0.0,0.0,3.0,0.25,1.0,0.0,0.0,0.5,-0.11,0.2,1.58,183.15,5.4,16.4,3.75,1.5,7.5,5.5,5.25,5.25,1.75,7.25,1.5,6.0,5.0,2.0,2.5,0.2,0.14,0.95,918.4,-4.9,2.9
0.5,0.0,4.0,0.0,7.5,0.0,0.0,0.0,3.25,0.0,1.5,0.0,0.0,0.0,-0.17,0.08,1.39,232.71,6.5,37.2,2.25,1.5,6.25,5.25,5.0,5.25,1.5,6.5,1.0,6.0,4.0,1.25,2.0,0.2,0.14,0.95,824.62,-3.3,3.5
0.52,7.25,0.0,6.0,8.75,0.0,0.0,0.25,3.5,1.75,2.5,0.0,0.75,0.0,-0.36,0.08,1.58,317.2,18.3,35.8,2.0,1.0,4.75,3.25,5.0,5.25,1.25,6.25,0.75,4.25,2.75,0.75,1.25,0.14,0.14,0.95,686.62,-1.7,6.7
0.54,7.0,4.0,0.0,8.75,0.0,3.25,0.0,0.0,2.0,3.25,1.0,1.25,1.0,-0.36,0.08,1.77,399.9,11.1,33.1,1.5,0.75,2.75,3.0,3.0,3.25,0.75,5.5,0.25,1.5,2.0,0.0,0.5,0.08,0.14,1.02,498.01,-2.1,13.3
0.56,7.25,4.0,6.25,7.5,7.75,3.5,1.25,6.25,3.5,4.25,3.5,1.75,1.75,-0.17,-0.05,1.2,652.12,8.1,20.1,1.0,0.75,2.0,1.75,1.5,3.25,0.5,4.25,0.0,1.25,1.75,0.0,0.5,0.02,0.39,1.14,335.8,-0.2,8.7
0.58,6.5,2.75,6.25,6.75,7.5,3.5,1.5,6.5,3.75,4.75,4.5,1.75,1.75,-0.11,-0.05,1.08,866.84,7.4,13.8,1.25,0.5,2.0,1.75,1.25,2.75,0.5,3.75,0.0,0.75,1.5,0.0,0.0,0.02,1.02,1.02,231.91,-2.6,16.3
0.6,5.75,2.5,5.5,5.25,7.5,3.25,1.0,6.5,3.25,4.25,4.0,1.75,1.75,-0.17,0.02,1.02,1009.03,6.5,12.3,0.0,0.0,2.0,0.5,1.25,0.5,0.5,3.25,0.0,0.25,1.5,0.0,0.5,0.58,2.39,0.7,133.95,-2.9,-5.3
0.62,3.5,2.5,4.25,4.0,6.75,3.0,1.0,6.5,3.0,3.75,3.5,1.75,1.75,-0.17,0.02,0.95,984.85,4.5,6.9,0.75,0.0,1.5,1.75,1.25,2.25,0.5,3.25,0.0,0.0,1.25,0.0,0.5,-0.92,2.95,0.58,81.15,-1.6,11.7
0.64,2.0,1.25,3.5,3.75,6.0,2.75,1.0,6.25,2.5,3.75,3.5,1.5,1.75,-0.17,0.02,0.95,881.49,2.8,-0.1,0.0,0.0,1.75,0.5,2.25,0.5,0.75,3.0,0.0,0.0,1.5,0.0,0.25,-1.23,2.27,0.7,43.22,-3.0,4.9
0.66,2.0,1.0,2.25,3.75,5.25,2.0,0.75,6.0,2.25,4.0,3.25,1.5,1.75,-0.17,0.02,0.95,735.5,1.9,-4.6,0.75,0.0,0.0,1.25,1.25,2.0,0.75,2.5,0.0,0.5,0.75,0.25,0.0,-0.67,1.83,0.83,29.3,3.0,8.1
0.68,2.0,1.0,0.0,3.75,0.0,2.0,0.75,6.0,2.0,4.0,3.25,1.5,1.75,-0.17,0.02,0.95,566.81,0.0,-22.6,0.0,0.0,1.25,0.0,1.25,0.5,0.5,2.0,0.0,0.0,0.25,0.0,0.0,-0.11,1.52,0.77,1.69,-1.8,14.5
0.7,1.0,1.0,1.75,3.5,2.5,1.5,0.75,6.0,2.0,4.0,3.5,1.75,1.75,-0.17,0.02,0.95,477.28,1.1,-17.0,1.0,0.25,0.0,0.75,1.25,2.0,0.75,2.5,0.0,0.5,0.5,0.5,0.0,0.08,1.33,0.7,15.8,2.8,9.1
0.72,0.25,1.0,0.0,3.5,0.0,2.0,0.75,6.25,2.25,5.0,3.5,2.5,2.75,-0.17,0.02,0.95,406.92,-2.8,-38.6,0.75,0.5,0.5,1.5,1.25,1.25,0.5,2.5,0.0,0.5,1.5,0.5,0.25,-0.05,1.02,0.89,44.99,-1.8,3.4
0.74,0.25,1.0,0.5,3.0,0.0,2.0,0.5,6.5,2.5,5.25,4.25,2.5,3.0,-0.17,0.02,0.95,376.83,-2.5,-40.6,0.5,0.25,1.75,1.5,1.0,1.25,0.5,2.25,0.0,0.5,1.0,0.25,0.25,-0.05,0.7,1.14,84.59,-5.1,11.6
0.76,0.25,1.0,1.25,3.0,0.0,2.0,0.75,6.5,2.75,6.25,5.25,3.5,4.0,-0.17,0.02,0.95,378.05,-1.4,-44.0,0.75,0.5,1.25,0.75,1.0,1.25,0.5,2.0,0.0,0.5,1.25,0.5,0.5,0.2,0.52,1.02,116.52,-3.7,3.2
0.78,1.0,1.0,1.0,3.0,0.0,2.0,1.0,7.0,3.0,6.5,6.0,3.75,4.5,-0.17,0.02,0.95,411.49,-1.0,-43.9,0.5,0.25,2.0,1.0,1.0,1.25,0.5,1.75,0.25,0.0,1.5,0.25,0.5,0.33,0.45,1.02,140.32,-7.3,8.9
0.8,0.5,1.0,1.0,2.75,1.25,2.0,0.75,7.0,3.0,7.0,6.25,4.25,5.25,-0.17,0.02,0.95,455.71,-1.9,-45.5,0.75,0.25,1.5,1.0,1.0,1.0,0.5,1.75,0.0,0.75,1.5,0.75,0.5,0.27,0.33,1.08,151.23,-5.5,-2.0
0.82,1.0,0.75,0.75,2.75,2.25,2.0,1.0,7.0,3.0,7.0,6.75,4.5,5.5,-0.17,0.02,0.95,529.3,-1.6,-43.7,0.75,0.5,1.5,0.75,1.25,1.5,0.5,1.5,0.0,0.5,1.25,0.25,0.5,0.2,0.27,1.02,156.24,-4.6,11.3
0.84,0.25,0.25,0.25,2.25,2.0,1.75,0.75,7.25,3.0,7.0,7.0,4.5,6.0,-0.17,0.02,0.95,586.9,-3.3,-52.6,0.0,0.0,0.0,0.0,0.0,0.5,0.0,1.5,0.0,0.0,0.0,0.0,0.0,0.2,0.2,0.83,119.08,18.2,-21.3
0.86,0.0,0.5,0.0,2.0,0.0,1.5,1.0,7.25,2.75,7.0,7.0,4.5,6.0,-0.17,0.02,0.95,609.51,-3.7,-60.7,0.0,0.0,0.0,0.5,0.0,0.5,0.0,1.5,0.0,0.0,0.0,0.0,0.0,0.08,0.14,0.83,79.94,10.8,-4.7
0.88,0.0,1.0,0.0,2.0,0.0,1.25,0.75,7.0,2.5,7.0,7.0,4.5,6.0,-0.23,0.02,0.95,612.84,-3.5,-59.7,0.75,0.25,1.0,1.25,1.25,1.25,0.5,1.75,0.0,0.25,1.25,0.0,0.5,0.08,-0.05,0.83,85.26,-3.8,12.3
0.9,0.0,1.0,0.0,2.0,0.0,0.0,0.5,7.0,2.5,7.0,6.75,4.5,6.0,-0.17,0.02,0.95,599.86,-3.1,-62.9,0.75,0.0,1.5,0.75,1.0,1.25,0.5,1.5,0.0,0.75,1.0,0.25,0.5,0.02,-0.3,0.7,102.55,-4.4,4.7
0.92,0.0,1.0,0.0,1.75,0.0,0.0,0.5,7.0,2.25,7.0,6.75,0.0,6.25,-0.17,0.02,0.95,554.2,-5.1,-57.9,0.5,0.25,1.5,0.5,1.0,1.25,0.5,1.5,0.0,0.5,1.0,0.25,0.5,0.02,-0.36,0.52,122.34,-4.0,5.6
0.94,0.0,1.0,0.0,1.75,0.0,0.0,0.5,6.75,1.75,7.25,7.0,5.25,6.75,-0.17,0.02,0.95,544.79,-3.4,-66.4,0.5,0.0,1.0,0.5,1.0,1.5,0.5,1.5,0.0,0.5,0.75,0.25,0.5,0.02,-0.61,0.58,126.76,-0.7,2.5
0.96,0.0,1.0,0.0,1.5,0.0,0.0,0.5,6.5,1.5,7.5,7.0,5.25,7.0,-0.23,0.08,1.02,542.56,-3.7,-68.0,0.0,0.0,1.25,0.5,0.5,0.25,0.5,1.5,0.0,0.0,1.25,0.0,0.5,0.39,-1.3,2.08,115.48,-6.4,-8.4
0.98,0.0,0.75,0.0,0.25,0.0,0.0,0.25,6.25,0.75,6.25,6.25,4.5,7.25,-0.23,0.08,1.08,520.29,-5.3,-74.6,0.0,0.0,1.25,0.5,0.0,0.25,0.0,0.0,0.0,0.0,0.0,0.0,0.0,1.52,-3.36,2.39,80.62,-25.8,57.1
1.0,0.0,0.75,0.0,1.75,0.0,0.0,0.25,4.25,0.75,5.0,4.75,4.25,6.75,-0.42,0.27,1.52,465.04,-3.6,-68.7,3.75,1.75,2.75,5.75,0.0,0.5,0.5,0.0,0.0,0.25,0.5,0.0,0.0,2.08,-3.05,3.45,129.1,-22.7,64.7
1.02,0.0,1.0,0.0,1.75,0.0,0.0,0.0,4.25,0.75,3.75,2.75,3.25,5.75,-0.55,0.33,1.7,389.32,-4.2,-62.9,4.75,1.0,7.75,7.25,1.75,0.5,0.0,1.5,0.0,0.0,0.0,0.0,0.0,-0.55,-0.11,-0.11,221.7,-22.4,61.0
1.04,0.25,0.75,1.25,1.75,0.0,0.0,0.25,3.75,0.0,2.5,0.0,2.0,3.75,-0.36,0.27,1.45,297.16,-2.1,-42.1,5.5,2.5,9.25,9.0,5.0,2.0,0.75,1.5,0.0,0.0,0.0,0.0,0.0,0.14,0.39,1.83,357.12,-18.3,61.0
1.06,0.75,0.0,0.0,1.75,0.0,0.0,0.0,3.0,0.0,2.0,0.5,0.0,1.5,-0.05,0.33,0.89,209.64,-4.3,-31.2,7.25,3.0,11.0,11.0,7.0,3.25,1.25,2.0,0.0,0.5,0.0,0.5,0.5,0.02,0.14,1.58,571.98,-16.3,55.3
1.08,0.0,0.0,0.0,0.0,0.0,0.0,0.0,0.0,0.0,0.0,0.0,0.0,0.0,-1.11,4.45,-0.23,89.91,0.0,0.0,7.5,4.0,12.5,12.5,8.25,4.75,2.75,3.0,0.25,0.0,0.0,0.5,0.5,0.02,0.14,1.33,832.33,-15.4,54.6
1.1,0.0,0.0,0.0,0.0,0.0,0.0,0.0,0.0,0.0,0.0,0.0,0.0,0.0,0.27,3.58,0.27,0.0,0.0,0.0,7.75,4.0,12.5,13.5,8.25,5.25,4.0,3.25,0.25,2.0,1.5,0.5,0.25,0.14,0.2,1.27,1061.62,-14.2,47.5
1.12,0.0,0.0,0.0,0.0,0.0,0.0,0.0,0.0,0.0,0.0,0.0,0.0,0.0,1.33,2.39,1.64,0.0,0.0,0.0,7.75,4.25,12.5,13.5,8.25,5.25,4.5,4.0,0.5,1.0,1.5,0.0,1.0,0.14,0.2,1.14,1227.05,-14.1,47.6
1.14,0.0,0.0,0.0,0.0,0.0,0.0,0.0,0.0,0.0,0.0,0.0,0.0,0.0,0.2,2.27,1.2,0.0,0.0,0.0,7.75,4.0,12.5,12.5,8.25,5.25,4.5,4.25,0.75,0.5,1.5,1.0,0.0,0.08,0.2,1.02,1315.11,-14.5,47.6
1.16,0.0,0.0,0.0,0.0,0.0,0.0,0.0,0.0,0.0,0.0,0.0,0.0,0.0,-0.55,2.2,1.2,0.0,0.0,0.0,7.75,3.25,12.5,12.5,8.0,5.0,4.5,4.25,0.75,0.75,1.5,0.5,0.0,0.08,0.14,0.95,1327.38,-14.7,47.7
1.18,0.0,0.0,0.0,0.0,0.0,0.0,0.0,2.75,0.0,0.0,0.0,0.0,0.0,-0.17,1.64,1.39,0.0,-16.7,-38.8,7.5,3.25,12.5,12.5,7.75,4.5,4.0,3.25,0.75,1.0,1.5,0.75,0.5,0.08,0.14,0.95,1305.85,-15.1,46.6
1.2,0.0,0.0,0.0,0.0,0.0,0.0,0.0,2.5,0.0,0.0,0.0,0.0,0.0,-0.05,1.33,1.52,0.0,-16.7,-38.8,7.5,3.25,11.5,11.0,7.0,4.0,4.0,3.25,0.5,0.75,1.5,0.5,0.0,0.08,0.2,0.89,1219.22,-15.7,49.2
1.22,0.0,0.0,0.0,0.0,0.0,0.0,0.0,0.0,0.0,0.0,0.0,0.0,0.0,-0.17,0.89,1.52,0.0,0.0,0.0,7.0,3.25,11.5,11.0,7.0,4.0,3.5,3.25,0.5,0.5,1.5,0.75,0.5,0.14,0.2,0.89,1123.91,-15.3,47.2
1.24,0.0,0.0,0.0,0.0,0.0,0.0,0.0,0.0,0.0,0.0,0.0,0.0,0.0,-0.17,0.7,1.52,0.0,0.0,0.0,7.0,3.0,9.5,10.5,7.0,4.25,3.25,3.25,0.75,1.0,1.5,0.5,0.75,0.08,0.2,0.89,1007.12,-13.7,44.6
1.26,0.0,0.0,0.0,0.0,0.0,0.0,0.0,2.0,0.0,0.0,0.0,0.0,0.0,-0.11,0.52,1.52,0.0,-16.7,-38.7,6.25,2.75,10.5,10.5,6.75,4.25,3.0,3.25,0.5,1.25,1.5,0.75,1.0,0.08,0.2,0.89,924.89,-13.7,42.3
1.28,0.0,0.0,0.0,0.0,0.0,0.0,0.0,0.0,0.0,1.0,0.0,0.0,0.0,-0.11,0.39,1.33,0.0,-15.7,-75.5,6.0,2.5,10.0,9.5,7.0,4.5,2.75,4.25,1.0,2.0,1.5,0.5,1.25,0.14,0.2,0.95,863.37,-11.8,37.3
1.3,0.0,0.0,0.0,1.75,0.0,0.0,0.0,0.0,0.25,1.5,0.0,0.25,0.0,-0.17,0.27,1.2,27.47,3.4,-11.4,5.75,2.5,9.25,9.0,7.0,5.25,2.75,4.5,1.0,2.75,1.5,0.75,1.25,0.14,0.14,0.95,829.27,-10.3,33.8
1.32,0.25,0.0,1.5,1.75,0.0,0.0,0.25,3.0,2.75,0.0,0.0,0.0,0.5,-0.23,0.08,1.02,82.59,7.8,-5.1,5.0,2.25,9.25,9.0,7.0,5.0,2.75,5.5,1.25,3.5,2.75,1.0,1.25,0.14,0.14,0.95,823.98,-9.3,26.5
1.34,0.0,0.0,0.0,0.0,0.0,0.0,0.0,0.0,0.0,0.0,0.0,0.0,0.0,-0.17,-0.05,0.95,72.04,0.0,0.0,4.75,2.0,8.5,8.5,7.0,5.5,2.25,5.75,1.25,3.5,3.25,1.0,1.5,0.14,0.14,0.95,825.68,-8.1,23.3
1.36,0.0,0.0,0.0,0.0,0.0,0.0,0.0,0.0,0.0,0.0,0.0,0.0,0.0,-0.17,-0.05,0.95,55.08,0.0,0.0,4.0,1.75,8.25,7.25,7.0,5.75,2.25,6.25,1.25,6.0,3.75,2.0,2.25,0.14,0.14,0.95,849.29,-5.7,11.4
1.38,0.0,0.0,0.0,0.0,0.0,0.0,0.0,0.0,0.0,0.0,0.0,0.0,0.0,-0.3,-0.11,1.02,25.47,0.0,0.0,3.75,1.75,7.5,7.25,6.75,5.75,2.25,7.25,1.5,6.5,5.0,2.5,3.0,0.2,0.14,0.95,886.07,-4.6,4.2
1.4,0.0,0.0,0.0,0.0,0.0,0.0,0.0,0.0,0.0,0.0,0.0,0.0,0.0,-0.3,-0.3,1.08,8.23,0.0,0.0,3.0,1.75,6.5,5.75,6.75,6.25,1.75,7.5,1.75,7.5,5.5,3.5,4.0,0.2,0.14,0.95,922.11,-2.5,-5.0
1.42,0.0,0.0,0.0,0.0,0.0,0.0,0.0,0.0,0.0,0.0,0.0,0.0,0.0,0.02,-0.48,1.02,0.0,0.0,0.0,2.25,1.5,6.25,5.25,6.25,5.75,1.75,7.75,2.0,8.25,6.75,3.75,5.5,0.2,0.14,0.95,954.05,-1.6,-13.6
1.44,0.0,0.0,0.0,0.0,0.0,0.0,0.0,0.0,0.0,0.0,0.0,0.0,0.0,0.08,-0.92,0.77,0.0,0.0,0.0,2.0,1.0,4.75,3.25,5.25,5.25,1.25,8.25,1.75,8.75,7.25,5.25,6.25,0.2,0.14,0.95,948.27,0.1,-26.0
1.46,0.0,0.0,0.0,0.0,0.0,0.0,0.0,0.0,0.0,0.0,0.0,0.0,0.0,0.08,-1.36,1.64,0.0,0.0,0.0,1.25,0.75,2.75,3.25,5.0,5.25,1.25,8.5,1.5,9.0,7.75,5.75,7.5,0.2,0.08,0.95,933.83,2.2,-34.5
1.48,1.0,0.0,0.0,2.0,0.0,0.0,0.0,2.5,1.5,0.0,0.0,0.0,0.0,0.33,-4.55,3.33,32.64,6.3,8.3,1.25,0.25,2.0,2.0,4.75,4.25,0.5,8.5,1.25,9.0,7.75,6.0,8.0,0.2,0.14,0.95,898.26,3.4,-42.3
1.5,5.25,0.0,1.25,3.75,0.0,0.0,0.0,2.0,0.25,0.5,0.0,0.25,0.0,-1.3,-0.36,0.77,102.29,19.2,48.3,0.75,0.0,2.0,2.0,3.0,3.0,0.5,8.0,0.75,9.0,7.25,5.5,7.75,0.14,0.14,0.95,835.54,3.6,-48.8
1.52,7.25,0.0,3.5,8.25,0.0,0.0,0.25,3.5,0.25,1.25,0.0,0.0,0.0,-0.92,-0.55,-0.48,215.39,18.7,47.5,1.25,0.25,2.25,2.5,4.25,3.0,0.75,7.25,0.5,9.0,6.0,5.75,8.0,0.14,0.14,1.08,784.22,2.9,-42.1
1.54,0.0,0.0,4.75,9.5,0.0,0.0,0.0,3.5,0.0,1.25,0.0,0.25,0.5,-0.17,0.33,2.02,275.14,13.5,27.5,0.0,0.0,0.0,0.5,1.25,1.75,0.25,6.0,0.0,7.75,4.0,4.75,8.0,0.08,0.2,1.27,655.24,8.1,-68.9
1.56,8.0,0.0,0.0,10.0,0.0,0.0,0.0,3.25,0.0,1.0,0.0,0.5,0.5,-0.3,0.14,1.89,333.39,15.8,44.1,0.0,0.0,0.0,0.5,1.25,1.25,0.0,4.5,0.0,6.5,4.0,3.5,7.75,0.14,0.27,1.52,525.11,8.0,-70.1
1.58,8.75,0.0,6.5,10.0,0.0,0.0,0.0,3.5,0.0,1.5,0.0,0.5,0.75,-0.36,0.2,1.45,411.5,20.0,45.1,0.0,0.0,0.0,0.5,1.0,1.5,0.0,3.25,0.0,5.5,2.75,2.5,7.75,0.08,0.27,1.83,395.07,9.0,-70.1
1.6,8.25,0.0,7.75,10.0,0.0,0.0,0.0,3.75,0.0,1.5,0.0,0.5,0.5,-0.3,0.2,1.27,484.75,20.5,45.5,0.5,0.0,0.0,1.5,1.5,2.75,0.5,3.25,0.0,3.5,2.75,2.25,5.5,-0.11,0.2,1.83,313.26,6.3,-47.4
1.62,8.25,5.0,7.75,10.0,0.0,4.5,0.25,4.5,0.0,2.0,0.0,0.5,0.75,-0.3,0.14,1.14,611.87,14.1,46.9,0.75,0.25,0.25,0.5,1.5,2.25,0.5,3.0,0.0,2.0,1.75,1.0,3.25,-0.11,0.33,1.39,237.46,5.9,-33.2
1.64,8.25,5.0,7.75,10.0,0.0,4.5,0.25,4.5,0.0,2.0,0.25,0.75,1.0,-0.23,0.14,0.95,719.5,13.9,44.5,0.75,0.25,0.5,1.5,1.5,2.25,0.5,3.0,0.0,0.75,1.75,0.25,3.0,-0.23,0.89,1.14,181.87,3.5,-17.5
1.66,8.0,3.75,7.0,9.5,8.5,4.25,0.5,4.75,0.75,2.0,0.75,0.75,1.0,-0.23,0.14,0.95,861.88,10.2,41.5,1.0,0.25,0.0,0.5,1.75,1.25,0.5,2.75,0.0,0.75,1.5,0.25,2.25,-0.86,2.7,0.02,125.84,4.1,-19.9
1.68,7.75,4.0,7.5,7.5,8.25,3.75,0.5,5.0,1.25,2.0,0.75,1.0,1.25,-0.17,0.08,0.95,936.69,10.2,38.4,1.0,0.5,1.0,1.5,1.5,1.5,0.5,2.0,0.25,0.0,1.5,0.5,2.25,-0.92,1.89,0.95,102.2,-2.3,-4.4
1.7,7.5,3.75,7.0,8.5,8.25,3.25,0.75,5.25,1.5,2.0,1.25,1.25,1.25,-0.17,0.08,1.02,989.34,10.2,35.6,0.0,0.0,1.25,0.5,1.25,0.5,0.5,1.75,0.0,0.0,0.0,0.0,1.0,0.02,1.33,0.77,56.66,-1.0,4.1
1.72,7.0,2.75,6.5,7.5,7.5,3.0,1.0,5.25,1.75,2.25,1.5,1.25,1.5,-0.11,0.08,0.95,962.23,9.7,30.4,0.0,0.0,0.0,1.75,0.0,0.5,0.0,1.5,0.0,0.75,0.0,0.75,0.75,0.08,0.95,1.02,28.62,3.3,-26.2
1.74,6.5,2.5,6.0,5.5,7.0,2.75,1.0,5.25,2.0,3.0,1.5,1.25,1.5,-0.17,0.08,0.95,901.53,8.7,25.3,0.75,0.25,0.25,1.25,1.25,0.0,0.5,1.75,0.0,0.0,1.5,0.5,1.5,0.14,0.58,1.14,26.48,-3.4,-13.9
1.76,5.5,1.5,4.25,4.0,6.0,2.0,0.75,5.5,2.0,3.75,2.5,1.5,1.25,-0.17,0.08,0.95,792.88,6.8,13.4,0.5,0.25,0.0,1.25,0.0,0.5,0.0,1.5,0.0,0.5,0.0,0.5,0.5,0.08,0.52,1.08,20.57,0.7,-7.9
1.78,4.5,1.0,3.5,1.25,5.5,2.0,1.0,6.0,2.25,3.75,3.25,2.0,1.75,-0.17,0.02,0.95,686.06,4.3,-0.7,0.75,0.0,0.0,0.5,1.25,0.25,0.5,1.5,0.0,0.0,0.75,0.0,1.25,0.08,0.45,1.02,36.92,0.5,-9.5
1.8,3.25,0.75,1.5,3.25,4.0,1.5,0.75,6.0,2.5,5.0,3.5,2.5,3.0,-0.17,0.02,0.95,586.07,1.7,-16.0,0.75,0.5,0.0,0.75,1.5,0.25,0.5,1.5,0.0,0.0,0.5,0.0,1.25,0.14,0.39,1.08,51.12,-0.4,4.8
1.82,1.25,0.0,1.5,2.0,0.0,1.25,0.5,6.0,2.5,5.5,5.25,3.5,4.0,-0.17,0.02,0.95,496.31,-0.3,-48.2,0.5,0.25,0.0,1.25,0.0,0.5,0.0,1.25,0.0,0.5,0.0,0.75,0.5,0.08,0.33,1.14,57.61,-0.3,-11.1
1.84,0.0,0.75,1.75,0.75,0.0,0.5,0.5,6.0,2.5,6.25,5.75,4.5,5.25,-0.17,0.02,0.95,454.39,-1.5,-59.9,0.0,0.0,1.75,0.5,1.25,0.5,0.5,1.5,0.0,0.5,1.5,0.0,1.25,0.08,0.27,1.14,78.85,-3.8,-11.5
1.86,0.0,1.0,0.0,2.0,0.0,0.0,0.5,6.25,2.25,6.75,6.5,5.25,6.0,-0.17,0.08,0.95,440.96,-2.6,-64.3,0.0,0.0,0.0,0.5,0.0,0.25,0.0,0.75,0.0,0.0,0.0,0.0,0.5,0.14,0.2,1.33,64.15,7.9,-23.3
1.88,1.0,0.0,0.0,2.0,0.0,0.0,0.25,5.75,2.25,7.0,7.0,6.0,6.75,-0.17,0.02,0.95,462.27,-2.0,-67.4,0.5,0.0,1.75,1.0,1.25,1.0,0.5,1.5,0.25,0.0,1.25,0.0,1.25,0.14,0.27,0.95,91.36,-5.6,3.1
1.9,0.0,0.0,1.75,2.0,0.0,0.0,0.25,5.75,2.0,7.0,6.75,6.25,7.25,-0.17,0.02,1.02,488.93,-1.2,-66.4,0.5,0.0,0.0,0.5,1.25,0.25,0.25,1.5,0.0,0.0,1.25,0.0,1.25,0.2,0.27,0.83,91.74,1.5,-18.5
1.92,0.0,0.0,1.75,2.0,0.0,0.0,0.25,5.5,1.75,7.0,7.25,6.75,7.75,-0.23,0.02,1.02,529.02,-1.1,-68.0,0.0,0.0,0.0,0.5,0.0,0.25,0.0,0.25,0.0,0.0,0.0,0.0,0.5,0.27,0.02,1.2,76.8,5.0,-18.2
1.94,0.0,0.0,1.5,2.0,0.0,0.0,0.25,5.0,1.5,7.0,7.25,7.0,8.0,-0.23,0.02,0.95,557.63,-1.3,-69.9,0.0,0.0,0.25,0.0,0.0,0.0,0.0,1.5,0.0,0.0,1.25,0.0,1.25,0.33,-0.17,1.27,68.39,4.6,-64.7
1.96,0.0,0.0,1.5,2.75,0.0,0.0,0.25,4.75,0.0,0.0,7.0,2.5,8.25,-0.17,0.02,0.95,497.71,0.4,-60.5,0.0,0.0,0.0,0.25,0.0,0.0,0.25,1.5,0.0,0.75,1.25,0.25,0.5,0.33,-0.23,0.95,62.56,4.4,-58.9
1.98,0.0,0.0,0.0,0.0,0.0,0.0,0.0,0.0,0.0,0.0,7.0,1.25,8.5,-0.23,0.02,0.89,390.33,-2.1,-95.9,0.0,0.0,0.0,0.5,0.0,1.0,0.0,0.25,0.0,0.5,0.0,0.5,0.25,0.33,-0.23,0.89,50.88,7.9,-22.8
2.0,0.0,0.0,0.0,0.0,0.0,0.0,0.0,0.0,0.0,0.0,0.0,0.0,2.5,-0.23,-0.05,0.89,245.36,-13.6,-109.9,0.5,0.0,1.5,0.5,1.0,0.75,0.25,1.5,0.0,0.5,1.25,0.75,1.25,0.27,-0.3,1.27,80.9,-3.8,-15.4
2.02,0.0,0.0,0.0,0.0,0.0,0.0,0.0,0.0,0.0,0.0,0.0,0.0,1.5,-0.23,0.02,1.02,115.07,-13.7,-109.9,0.0,0.0,0.0,0.25,0.0,0.5,0.0,0.0,0.0,0.25,0.0,0.0,1.0,1.45,-1.86,1.27,69.55,12.0,-50.0
2.04,0.0,0.0,0.0,0.0,0.0,0.0,0.0,0.0,0.0,0.0,0.0,0.0,1.0,-0.3,0.02,0.95,0.0,-13.7,-109.8,0.5,0.25,0.0,0.75,0.0,0.75,0.0,1.5,0.0,2.0,1.25,1.0,3.25,2.7,-2.92,-0.36,108.03,5.6,-56.4
2.06,0.0,0.0,0.0,0.0,0.0,0.0,0.0,0.0,0.0,0.0,0.0,0.0,0.25,-0.23,0.02,1.02,0.0,-13.7,-109.8,0.75,0.0,0.5,0.5,0.0,1.5,0.0,1.5,0.0,0.0,0.25,0.0,2.0,2.64,0.14,1.14,109.07,4.3,-17.8
2.08,0.0,0.0,0.0,0.0,0.0,0.0,0.0,0.0,0.0,0.0,0.0,0.0,0.0,-0.11,0.02,1.33,0.0,0.0,0.0,0.0,0.25,0.0,0.5,0.0,1.25,0.0,1.5,0.0,2.0,0.0,1.5,2.25,-0.11,-1.55,0.45,132.83,9.6,-57.3
2.1,0.0,0.0,0.0,0.0,0.0,0.0,0.0,0.0,0.75,3.75,0.0,0.0,0.0,-0.11,0.14,1.52,0.0,-11.1,-69.4,0.75,0.0,0.5,0.5,1.25,2.5,0.0,4.5,0.0,3.25,2.0,1.25,1.25,0.89,1.08,1.77,176.03,6.6,-31.3
2.12,0.0,0.0,0.0,1.75,0.0,0.0,0.25,2.0,0.75,2.25,0.0,0.0,5.5,0.08,0.27,1.58,0.0,-8.0,-62.5,0.75,0.25,0.75,0.5,1.0,4.25,0.5,5.5,0.0,5.5,1.75,1.5,3.25,0.02,-0.17,0.89,245.23,8.5,-36.1
2.14,0.5,0.0,0.0,1.25,0.0,0.0,0.0,2.0,0.25,1.25,0.0,2.25,3.25,-0.05,0.2,1.2,35.7,-3.4,-62.0,0.0,0.0,0.0,0.5,1.25,5.25,0.5,7.25,0.0,6.25,1.0,1.0,3.25,0.33,0.2,1.02,303.94,13.3,-39.2
2.16,1.0,0.0,0.0,1.75,0.0,0.0,0.5,1.75,0.75,2.0,0.0,1.5,1.5,-0.73,0.27,1.08,86.63,1.1,-35.7,1.0,0.0,0.0,0.5,0.0,6.25,0.0,7.25,0.0,7.25,0.0,2.0,4.75,0.33,0.08,0.89,370.28,13.1,-43.9
2.18,0.75,0.0,0.0,1.75,0.0,0.0,0.25,2.25,0.25,2.0,0.0,0.5,2.25,-1.3,1.08,0.52,117.46,-3.3,-38.0,0.0,0.0,0.0,0.0,1.25,6.25,0.25,8.5,0.0,6.75,2.75,1.75,6.0,0.27,0.14,0.95,436.71,12.7,-48.9
2.2,0.0,0.0,0.0,0.0,0.0,0.0,0.0,1.75,0.0,0.5,0.0,0.5,0.5,-1.3,1.52,0.64,112.27,-12.2,-66.4,1.0,0.5,0.0,0.5,1.75,7.25,0.25,9.0,0.0,7.25,3.0,1.25,6.0,0.27,0.08,0.95,506.02,11.1,-37.6
2.22,0.0,0.0,0.0,0.0,0.0,0.0,0.0,1.75,0.0,0.0,0.0,0.0,0.5,-0.05,1.64,-0.05,91.0,-16.0,-54.9,0.0,0.0,0.0,0.0,0.25,7.75,0.25,8.5,0.0,5.75,1.75,0.75,4.75,0.27,0.14,0.95,510.36,15.0,-42.4
2.24,0.0,0.0,0.0,0.0,0.0,0.0,0.0,0.0,0.0,0.0,0.0,0.5,0.0,1.39,1.7,0.89,61.82,8.8,-109.9,0.75,0.0,0.5,0.0,1.5,8.0,0.0,8.75,0.0,5.0,1.75,0.25,3.25,0.27,0.14,0.89,489.57,13.0,-26.7
2.26,1.25,0.0,0.0,0.0,0.0,0.0,0.0,1.5,0.0,0.0,0.0,0.0,1.0,1.45,0.27,1.33,49.73,0.4,-15.4,0.5,0.25,0.0,0.5,1.0,9.25,0.0,8.75,0.0,4.25,1.5,0.25,3.25,0.33,0.14,0.89,457.74,14.2,-24.1
2.28,0.0,0.0,0.0,0.0,0.0,0.0,0.0,0.0,0.0,0.0,0.0,0.0,0.0,1.27,-0.3,0.89,23.53,0.0,0.0,0.5,0.5,0.0,0.5,1.5,9.25,0.25,8.75,0.0,4.75,1.5,1.0,2.5,0.45,0.14,0.89,432.01,13.1,-22.1
2.3,0.0,0.0,0.0,2.5,0.0,0.0,0.0,0.0,0.5,0.0,0.0,0.25,0.0,1.08,-0.61,0.27,28.07,15.8,31.3,0.25,0.5,0.0,0.25,1.5,8.25,0.0,7.75,0.0,0.5,1.5,0.75,2.25,1.14,-0.05,0.95,386.26,13.4,-14.4
2.32,0.5,0.0,0.0,1.5,0.0,0.0,0.0,0.0,0.75,2.0,0.5,2.0,1.25,4.58,-6.05,2.89,54.94,3.0,-51.4,0.75,0.25,0.0,0.0,1.5,7.5,0.0,6.25,0.0,1.75,0.5,0.5,1.5,0.89,0.64,1.33,336.91,13.9,-10.2
2.34,1.25,0.0,1.75,1.75,0.0,0.0,0.5,2.5,0.75,2.0,2.75,3.5,2.5,0.83,-2.17,-1.67,133.86,5.7,-42.4,0.75,0.0,0.5,0.5,1.75,7.0,0.0,5.5,0.0,1.5,0.0,0.0,1.25,1.52,2.33,0.89,285.79,12.7,-0.2
2.36,0.0,0.0,0.0,0.0,0.0,0.0,0.0,0.0,0.0,0.0,0.0,0.0,0.0,-0.42,-0.42,0.95,109.68,0.0,0.0,0.75,0.25,0.0,0.5,0.0,5.0,0.25,0.0,0.0,1.5,0.75,0.0,0.0,0.45,2.27,0.64,213.82,9.7,14.0
2.38,0.0,0.0,0.0,0.0,0.0,0.0,0.0,0.0,0.0,0.0,0.0,0.0,0.0,-0.73,0.58,2.52,85.73,0.0,0.0,0.75,0.0,0.0,0.5,0.0,3.5,0.0,3.25,0.0,1.0,0.0,0.0,0.0,-0.61,1.27,0.83,151.72,12.8,1.1
2.4,0.0,0.0,0.0,0.0,0.0,0.0,0.0,0.0,0.0,0.0,0.0,0.0,0.0,0.27,-0.17,0.52,34.71,0.0,0.0,0.5,0.0,0.0,0.5,0.0,3.25,0.25,4.25,0.0,0.25,0.75,0.25,1.25,0.02,0.89,0.52,109.4,11.3,-20.4
2.42,0.0,0.0,0.0,0.0,0.0,0.0,0.0,0.0,0.0,1.75,0.0,0.0,0.0,0.39,0.08,0.83,18.48,-15.6,-75.5,0.5,0.0,0.0,0.5,1.0,3.0,0.25,3.25,0.0,0.5,1.25,0.25,1.25,2.08,1.45,0.64,97.05,8.9,-16.0
2.44,0.0,0.0,6.25,1.75,0.0,0.0,0.5,0.0,1.5,2.25,0.0,0.0,2.75,0.27,0.02,0.95,84.36,15.2,-2.1,0.75,0.0,0.0,0.0,1.0,1.75,0.0,2.25,0.0,0.0,0.75,0.0,1.0,2.7,2.33,1.64,80.64,8.1,-9.0
2.46,0.0,0.0,7.0,1.75,0.0,0.0,1.0,0.0,1.25,2.25,0.0,5.75,2.25,0.2,0.02,1.2,177.08,15.3,-25.7,0.75,0.75,0.25,0.75,1.25,2.0,0.0,3.25,0.0,0.5,0.5,0.0,1.25,1.2,2.27,2.27,98.66,5.7,0.5
2.48,0.0,0.0,7.0,1.75,0.0,0.0,0.75,0.25,1.25,2.0,5.5,5.5,2.75,0.14,0.02,1.39,269.15,13.8,-36.4,0.75,0.25,0.0,0.0,1.0,0.0,0.25,3.25,0.0,0.0,0.5,0.0,1.25,-1.73,-1.23,3.52,85.63,5.3,-19.9
2.5,0.5,0.0,7.0,1.75,0.0,0.0,0.5,0.0,0.75,2.0,5.25,4.5,2.75,0.33,0.02,1.02,317.45,14.6,-30.8,0.0,0.0,0.0,0.0,0.0,0.5,0.0,2.0,0.0,0.0,0.0,0.0,0.25,-3.67,-3.55,2.83,56.07,17.5,-32.8
2.52,1.0,0.0,6.25,1.75,0.0,0.0,0.5,0.0,0.75,2.0,5.25,4.25,2.75,0.52,-0.11,0.52,351.05,14.3,-30.5,0.0,0.0,0.0,0.0,0.0,0.5,0.0,2.0,0.0,0.0,0.0,0.0,0.0,-4.36,-4.61,2.64,26.06,17.9,-24.8
2.54,0.0,0.0,4.25,1.75,0.0,0.0,0.25,0.0,0.0,1.25,3.5,3.5,1.75,0.7,-0.11,0.39,318.46,13.9,-34.1,0.0,0.0,0.0,0.0,0.0,0.5,0.0,1.75,0.0,0.0,0.0,0.0,0.25,1.2,-2.17,-1.67,12.41,17.6,-32.3
2.56,0.75,0.0,0.0,1.75,0.0,0.0,4.75,0.0,0.5,2.0,4.0,4.5,2.0,0.7,0.02,0.58,296.73,8.9,-53.2,0.0,0.0,0.0,0.0,0.0,0.5,0.0,1.75,0.0,0.0,0.0,0.0,0.25,7.95,5.02,-4.8,4.9,17.6,-32.3
2.58,0.0,0.0,4.0,2.0,0.0,0.0,0.75,0.0,0.5,2.0,3.75,3.5,1.5,0.7,-0.17,0.64,278.76,12.9,-34.6,0.0,0.0,0.0,0.0,0.0,0.5,0.0,1.5,0.0,0.0,0.0,0.0,0.0,1.45,-0.98,1.89,4.4,18.2,-21.3
2.6,1.0,0.0,0.0,1.75,0.0,0.0,0.5,0.0,0.5,2.0,3.25,2.5,1.75,0.64,-0.42,0.64,264.26,6.0,-52.1,0.0,0.0,0.0,0.25,0.0,0.5,0.0,1.25,0.0,0.0,0.0,0.0,0.0,-0.73,-0.86,2.14,11.16,13.7,-8.6
2.62,1.25,0.0,2.5,1.5,0.0,0.0,0.25,0.0,0.25,2.0,2.25,2.0,1.5,0.64,-0.42,0.52,236.14,12.0,-25.9,0.0,0.0,0.0,0.0,0.0,0.5,0.0,1.5,0.0,0.0,0.0,0.0,0.0,-1.17,3.39,-1.11,7.4,18.2,-21.3
2.64,0.5,0.0,1.5,1.75,0.0,0.0,0.5,0.0,0.0,1.5,0.0,0.0,0.5,0.45,-1.11,0.64,181.43,13.7,13.5,0.0,0.0,0.0,0.0,0.0,0.5,0.0,1.5,0.0,0.0,0.0,0.0,0.0,-1.11,2.08,-0.73,5.85,18.2,-21.3
2.66,0.0,0.0,0.0,0.0,0.0,0.0,0.0,0.0,0.0,0.0,0.0,0.0,0.0,0.77,-0.92,0.52,96.17,0.0,0.0,0.0,0.0,0.0,0.0,0.0,0.5,0.0,1.5,0.0,0.0,0.0,0.0,0.0,0.7,0.14,-0.23,8.52,18.2,-21.3
2.68,0.0,0.0,0.0,0.0,0.0,0.0,0.0,0.0,0.0,0.0,0.0,0.0,0.25,1.77,-0.36,1.14,12.28,-13.7,-109.8,0.0,0.0,0.0,0.0,0.0,0.5,0.0,1.5,0.0,0.0,0.0,0.0,0.0,1.2,0.39,-0.05,14.03,18.2,-21.3
2.7,0.0,0.0,0.0,0.0,0.0,0.0,0.0,0.0,0.0,0.0,0.0,0.0,0.0,0.89,-0.11,1.14,0.0,0.0,0.0,0.0,0.0,0.0,0.0,0.0,0.5,0.0,1.5,0.0,0.0,0.0,0.0,0.0,0.77,0.2,0.45,16.57,18.2,-21.3
2.72,0.0,0.0,0.0,0.0,0.0,0.0,2.0,0.0,0.0,0.0,0.0,0.0,0.0,0.89,0.27,1.2,0.0,32.4,27.3,0.0,0.0,0.0,0.0,0.0,0.5,0.0,1.5,0.0,0.0,0.0,0.0,0.0,0.58,0.83,-0.17,24.4,18.2,-21.3
2.74,0.0,0.0,0.0,0.0,0.0,0.0,2.25,0.0,0.0,0.0,0.0,0.0,0.0,0.89,0.33,1.08,0.0,32.4,27.3,0.0,0.0,0.0,0.0,0.0,0.25,0.0,1.5,0.0,0.0,0.0,0.0,0.0,0.95,1.39,-0.3,27.61,17.6,-28.8
2.76,0.0,0.0,0.0,0.0,0.0,0.0,1.25,0.0,0.0,0.0,0.0,0.0,0.0,1.02,0.45,1.14,0.0,32.4,27.3,0.0,0.0,0.0,0.0,0.0,0.5,0.0,1.5,0.0,0.0,0.0,0.0,0.0,0.95,0.7,-0.11,28.16,18.2,-21.3
2.78,0.0,0.0,0.0,0.0,0.0,0.0,1.25,0.0,0.0,0.0,0.0,0.0,0.0,0.89,0.58,0.95,0.0,32.4,27.3,0.0,0.0,0.0,0.0,0.0,0.25,0.0,1.5,0.0,0.0,0.0,0.0,0.0,1.14,0.58,-0.23,27.22,17.6,-28.8
2.8,0.0,0.0,0.0,0.0,0.0,0.0,1.25,0.0,0.0,0.0,0.0,0.0,0.0,0.39,0.52,0.64,0.0,32.4,27.3,0.0,0.0,0.0,0.0,0.0,0.5,0.0,1.5,0.0,0.0,0.0,0.0,0.5,0.89,0.64,-0.05,31.35,17.3,-39.6
2.82,0.0,0.0,0.0,0.0,0.0,0.0,1.25,0.0,0.0,0.0,0.0,0.0,0.0,0.2,0.52,0.02,0.0,32.4,27.3,0.0,0.0,0.0,0.0,0.0,0.25,0.0,1.5,0.0,0.0,0.0,0.0,0.0,0.39,0.58,0.39,30.66,17.6,-28.8
2.84,0.0,0.0,0.0,0.0,0.0,0.0,1.25,0.0,0.0,0.0,0.0,0.0,0.0,0.45,0.45,-0.11,0.0,32.4,27.3,0.0,0.0,0.0,1.25,0.0,0.75,0.0,1.5,0.0,0.5,0.0,0.25,0.0,0.08,0.2,0.27,44.12,5.7,-5.4
2.86,0.0,0.0,0.0,0.0,0.0,0.0,1.25,0.0,0.0,0.0,0.0,0.0,0.0,0.83,0.08,-0.3,0.0,32.4,27.3,0.0,0.0,1.5,0.75,1.25,1.25,0.5,1.5,0.0,0.5,0.75,0.75,1.0,0.52,0.02,-0.17,83.09,-1.6,-8.4
2.88,0.0,0.0,0.0,0.0,0.0,0.0,1.25,0.0,0.0,0.0,0.0,0.0,0.0,1.14,-0.42,-0.17,5.61,32.4,27.3,0.5,0.0,2.25,0.75,0.0,0.75,0.5,1.5,0.0,0.5,0.5,0.25,1.0,0.89,0.58,-0.42,112.0,-8.5,-1.1
2.9,0.75,0.0,0.0,1.75,0.0,0.0,2.0,0.0,0.25,1.0,0.0,1.25,0.0,1.14,-0.67,-0.17,40.67,14.2,-3.4,0.5,0.0,1.75,1.0,0.0,1.0,0.5,1.5,0.0,0.5,0.75,0.5,1.0,0.7,0.77,-0.11,135.02,-6.2,-7.2
2.92,0.5,0.0,0.5,1.75,0.0,0.0,0.25,1.25,0.25,0.75,0.0,1.25,0.0,1.02,-0.8,-0.05,68.65,8.2,-10.0,0.75,0.0,2.0,0.75,1.0,0.75,0.5,1.5,0.0,0.5,1.0,0.5,1.25,0.95,0.33,0.02,153.04,-6.6,-3.1
2.94,0.25,0.0,0.25,1.5,0.0,0.0,0.25,1.25,0.25,1.0,0.0,1.25,0.25,1.02,-0.55,0.08,91.72,3.6,-26.7,0.5,0.25,2.0,0.5,1.0,0.5,0.5,1.5,0.0,0.5,0.75,0.25,1.0,0.77,0.39,-0.17,159.49,-6.9,2.2
2.96,0.75,0.0,0.0,1.75,0.0,0.0,0.25,1.0,0.25,0.75,0.0,1.25,0.25,1.14,-0.3,0.14,102.8,6.8,-14.9,0.5,0.25,1.5,0.5,0.25,0.5,0.5,1.5,0.0,0.5,0.75,0.25,1.0,0.58,0.7,-0.48,153.71,-5.9,-7.3
2.98,1.0,0.0,0.0,1.75,0.0,0.0,0.25,1.75,0.25,0.5,0.0,1.0,0.0,0.95,-0.11,0.14,109.95,6.6,-3.6,0.5,0.0,2.0,0.5,0.5,0.5,0.5,1.5,0.0,1.5,0.5,0.5,1.0,0.64,0.7,-0.3,153.23,-4.9,-12.8
3.0,0.5,0.0,0.0,1.75,0.0,0.0,0.25,0.5,0.25,0.75,0.0,1.25,0.25,0.89,0.08,0.39,106.47,7.7,-17.5,0.5,0.0,1.75,0.5,1.0,0.5,0.5,1.5,0.0,0.5,0.75,0.25,1.25,0.77,0.64,0.08,150.61,-5.2,-5.4
3.02,1.0,0.0,0.0,1.75,0.0,0.0,0.25,0.25,0.25,0.75,0.0,1.25,0.25,0.77,0.2,0.58,104.2,11.1,-7.0,0.0,0.0,0.0,0.0,1.25,0.25,0.0,0.25,0.0,0.0,0.0,0.0,0.0,0.58,0.64,0.14,115.66,7.4,39.2
3.04,0.75,0.0,0.0,1.75,0.0,0.0,0.25,0.25,0.0,0.5,0.0,1.0,0.75,0.7,0.27,0.58,99.27,8.9,-12.2,0.75,0.0,0.0,0.5,0.0,0.25,0.0,0.25,0.0,0.0,0.0,0.25,0.25,1.08,0.14,0.58,81.41,-10.2,18.8
3.06,0.25,0.0,0.5,1.0,0.0,0.0,0.25,0.0,2.5,0.0,0.0,0.0,0.0,0.89,0.33,0.45,91.4,18.2,5.2,0.5,0.0,0.75,0.5,1.0,1.25,0.5,1.5,0.0,0.75,0.5,0.25,1.25,1.14,0.27,-0.23,81.42,1.7,-10.2
3.08,0.0,0.0,0.0,0.0,0.0,0.0,0.5,0.0,0.5,0.5,0.0,0.5,0.0,0.77,0.2,0.52,69.46,5.9,-60.6,0.0,0.0,0.5,0.0,1.0,0.25,0.5,1.5,0.0,0.0,0.5,0.0,1.0,0.7,0.58,-0.11,72.57,3.0,-19.3
3.1,1.0,0.0,0.0,1.75,0.0,0.0,0.0,0.25,0.25,0.5,0.0,1.0,0.25,0.7,0.14,0.64,66.64,12.0,0.6,0.75,0.0,0.0,0.5,1.25,0.5,0.5,1.5,0.0,0.5,0.75,0.25,1.0,0.45,0.64,-0.11,83.56,1.5,-12.4
3.12,0.75,0.0,0.0,1.0,0.0,0.0,0.25,1.75,0.0,0.25,0.0,0.5,0.5,0.83,0.27,0.58,63.12,2.1,-13.4,0.75,0.0,1.5,0.5,0.25,0.5,0.5,1.5,0.0,0.5,0.75,0.25,1.0,0.39,0.64,-0.11,95.89,-6.6,-7.7
3.14,0.0,0.0,0.0,0.25,0.0,0.0,0.0,0.5,0.0,0.0,0.0,0.5,0.25,0.83,0.27,0.58,47.66,-1.9,-57.4,0.75,0.25,0.5,0.5,1.0,0.75,0.5,1.5,0.0,0.5,0.5,0.25,1.25,0.45,0.52,-0.05,108.0,-0.1,-6.4
3.16,0.5,0.0,0.0,1.25,0.0,0.0,0.25,1.75,0.0,0.5,0.0,1.0,0.5,0.7,0.2,0.58,55.69,1.2,-25.9,0.5,0.0,0.25,0.5,1.0,0.5,0.5,1.5,0.0,0.5,0.75,0.25,1.25,0.64,0.45,0.14,107.86,1.6,-19.3
3.18,0.75,0.0,0.0,1.0,0.0,0.0,0.25,1.75,0.0,0.5,0.0,1.25,0.5,0.58,0.14,0.58,64.83,2.2,-28.2,0.0,0.0,1.25,0.0,0.25,0.0,0.5,1.25,0.0,0.0,0.0,0.0,0.0,0.83,0.45,-0.05,91.7,-11.4,16.9
3.2,0.75,0.0,0.0,0.0,0.0,0.0,0.25,1.5,0.0,0.5,0.0,0.75,0.5,0.58,0.14,0.45,67.68,-1.2,-39.8,0.0,0.0,0.0,0.5,0.0,0.5,0.0,0.5,0.0,0.0,0.0,0.0,0.25,0.83,0.58,-0.05,65.8,7.8,-0.7
3.22,0.0,0.0,0.0,0.25,0.0,0.0,0.25,0.25,0.25,0.75,0.0,0.75,0.5,0.52,0.02,0.45,61.59,-1.7,-67.8,0.0,0.0,0.0,0.5,0.0,0.5,0.25,1.5,0.0,0.0,0.5,0.0,0.5,0.77,0.64,0.02,49.09,6.8,-28.1
3.24,0.5,0.0,0.0,0.25,0.0,0.0,0.25,0.0,0.25,0.5,0.0,1.0,0.5,0.52,-0.05,0.45,56.93,6.9,-47.9,0.0,0.0,0.5,0.5,0.0,0.5,0.5,1.5,0.0,0.0,0.5,0.0,0.5,0.77,0.64,0.02,48.16,0.3,-15.7
3.26,0.0,0.0,0.0,0.0,0.0,0.0,0.25,0.75,0.0,0.25,0.0,0.5,0.25,0.58,-0.11,0.39,43.92,-6.2,-68.0,0.5,0.0,1.0,0.5,1.25,0.5,0.5,1.5,0.0,0.5,0.75,0.25,1.0,0.7,0.64,0.02,75.82,-2.4,-6.3
3.28,0.0,0.0,0.0,0.75,0.0,0.0,0.25,0.25,0.0,0.5,0.0,0.75,0.25,0.64,-0.17,0.33,38.99,3.1,-40.9,0.75,0.0,1.25,0.5,1.0,0.5,0.5,1.5,0.0,0.0,0.75,0.5,1.0,0.7,0.58,0.02,96.23,-6.0,-2.3
3.3,0.25,0.0,0.0,0.75,0.0,0.0,0.25,0.25,0.0,0.5,0.0,1.0,0.5,0.7,-0.3,0.39,41.7,4.5,-41.6,0.5,0.0,1.0,0.5,1.0,0.5,0.5,1.5,0.0,0.75,0.75,0.0,1.0,0.7,0.52,0.02,110.73,-1.8,-7.5
3.32,0.25,0.0,0.0,0.25,0.0,0.0,0.25,1.5,0.0,0.75,0.0,1.0,0.5,0.7,-0.36,0.45,52.33,-4.2,-54.7,0.5,0.0,0.5,0.5,1.0,0.75,0.5,1.5,0.0,0.5,0.5,0.0,0.75,0.64,0.52,0.02,114.96,0.8,-2.5
3.34,0.25,0.0,0.5,0.5,0.0,0.0,0.25,1.25,0.0,0.25,0.0,1.0,0.5,0.77,-0.3,0.33,57.63,4.0,-33.0,0.0,0.0,0.75,0.5,1.0,0.5,0.5,1.5,0.0,0.0,0.5,0.0,1.25,0.64,0.58,0.02,109.93,0.9,-11.5
3.36,1.0,0.0,0.25,0.5,0.0,0.0,0.25,1.75,0.0,0.25,0.0,1.0,0.5,0.77,-0.3,0.33,69.44,4.4,-20.9,1.0,0.0,0.75,0.5,1.0,0.5,0.5,1.5,0.0,0.5,0.75,0.25,1.0,0.64,0.64,0.02,113.35,-3.3,-4.6
3.38,0.5,0.0,0.5,0.5,0.0,0.0,0.0,0.75,0.0,0.75,0.0,0.75,0.5,0.83,-0.3,0.39,71.26,4.7,-27.3,0.75,0.0,1.5,0.5,1.0,0.75,0.5,1.5,0.0,0.5,0.5,0.25,0.75,0.64,0.58,0.08,121.41,-5.2,4.9
3.4,0.5,0.0,0.25,0.75,0.0,0.0,0.25,0.75,0.0,0.25,0.0,1.0,0.5,0.83,-0.23,0.39,67.87,6.9,-25.0,0.5,0.0,1.0,0.5,1.0,0.5,0.5,1.5,0.0,0.0,0.5,0.5,0.75,0.7,0.52,0.08,125.35,-4.4,-1.5
3.42,0.25,0.0,0.0,0.5,0.0,0.0,0.0,1.0,0.0,0.75,0.0,0.75,0.5,0.83,-0.17,0.33,65.25,-3.1,-47.9,0.5,0.0,1.25,0.5,1.0,0.5,0.5,1.5,0.0,0.5,0.5,0.5,1.0,0.7,0.58,0.14,130.64,-3.7,-7.4
3.44,0.5,0.0,0.0,1.25,0.0,0.0,0.25,1.25,0.25,0.0,0.0,1.0,0.5,0.64,-0.11,0.2,69.9,5.4,-20.1,0.5,0.0,0.75,0.5,1.0,0.5,0.5,1.5,0.0,0.5,0.5,0.5,1.0,0.77,0.64,0.08,127.18,-1.3,-12.1
3.46,0.5,0.0,0.0,1.0,0.0,0.0,0.25,1.25,0.0,0.25,0.0,1.0,0.5,0.7,0.08,0.2,71.68,3.2,-26.5,0.75,0.0,0.5,0.5,1.0,0.5,0.25,1.5,0.0,0.25,0.5,0.5,1.0,0.77,0.64,0.08,120.37,-1.2,-9.6
3.48,0.0,0.0,0.0,0.5,0.0,0.0,0.25,0.75,0.0,0.5,0.0,0.75,0.5,0.7,0.2,0.2,67.39,-2.5,-54.4,0.5,0.0,1.0,0.5,1.0,0.5,0.5,1.5,0.0,0.5,0.75,0.75,1.0,0.77,0.64,0.14,119.15,-3.0,-14.5
3.5,0.5,0.0,0.0,1.25,0.0,0.0,0.25,1.75,0.0,0.75,0.0,0.5,0.5,0.83,0.14,0.39,72.22,-0.1,-20.5,0.5,0.25,1.25,0.5,1.0,0.5,0.5,1.5,0.0,1.5,0.5,0.25,1.25,0.27,0.2,0.64,124.81,-1.2,-11.8
3.52,0.5,0.0,0.0,0.75,0.0,0.0,0.0,1.5,0.0,0.5,0.0,1.0,0.5,1.02,0.2,0.45,71.93,-0.2,-35.8,0.5,0.0,1.25,0.5,1.0,0.5,0.5,1.5,0.0,0.5,0.5,0.25,1.0,0.58,0.45,-0.11,126.37,-3.5,-4.2
3.54,0.5,0.0,0.0,1.5,0.0,0.0,0.0,1.75,0.25,0.75,0.0,0.5,0.5,1.33,0.45,0.45,78.62,0.4,-18.7,0.5,0.0,1.25,0.5,1.0,0.75,0.5,1.5,0.25,0.25,0.5,0.25,0.75,0.77,0.83,-0.11,126.94,-4.2,1.5
3.56,0.5,0.0,0.0,1.75,0.0,0.0,0.25,1.75,0.0,0.0,0.0,0.75,0.5,1.45,0.52,0.52,81.55,4.0,-9.4,0.5,0.0,1.75,0.5,1.0,0.5,0.5,1.5,0.0,0.5,0.5,0.5,0.5,0.39,0.7,-0.11,126.52,-6.9,3.2
3.58,0.25,0.0,0.25,0.25,0.0,0.0,0.25,0.25,0.25,0.25,0.0,0.5,0.5,1.45,0.52,0.64,71.24,7.0,-35.0,0.5,0.0,2.0,0.5,1.0,0.5,0.5,1.5,0.0,0.5,0.5,0.25,0.75,0.58,0.89,-0.17,126.99,-7.2,4.9
3.6,0.5,0.0,0.0,1.75,0.0,0.0,0.25,0.75,0.25,0.5,0.0,0.5,0.5,1.27,0.39,0.64,69.98,6.4,-6.5,0.5,0.0,1.5,0.5,1.0,0.5,0.5,1.5,0.0,0.5,0.5,0.25,0.75,0.7,0.95,-0.17,124.21,-5.2,1.2
3.62,1.0,0.0,0.0,1.75,0.0,0.0,0.25,1.75,0.0,0.25,0.0,0.75,0.5,1.02,0.27,0.58,76.48,5.5,-3.9,0.5,0.0,1.0,0.5,0.5,0.5,0.5,1.5,0.0,1.0,0.5,0.25,0.75,0.58,0.77,0.02,120.21,-2.1,-12.2
3.64,0.5,0.0,0.25,1.25,0.0,0.0,0.25,1.75,0.0,0.5,0.0,0.5,0.5,0.77,0.2,0.64,82.13,2.3,-14.0,0.5,0.0,1.5,0.5,1.0,0.5,0.5,1.5,0.0,0.0,0.75,0.25,0.75,0.45,0.7,0.02,118.53,-6.7,3.8
3.66,0.5,0.0,0.25,1.25,0.0,0.0,0.0,0.0,0.0,0.75,0.0,0.25,0.5,0.52,0.08,0.7,76.19,9.0,-0.9,0.5,0.0,1.0,0.5,1.0,0.5,0.5,1.5,0.0,0.5,0.5,0.5,1.0,0.52,0.64,0.14,116.3,-2.5,-9.7
3.68,0.25,0.0,0.0,0.25,0.0,0.0,0.25,0.0,0.0,0.25,0.0,0.5,0.5,0.45,-0.05,0.64,59.99,5.3,-47.2,0.5,0.25,0.5,0.5,1.25,0.5,0.5,1.5,0.0,0.75,0.5,0.0,1.0,0.58,0.64,0.14,116.08,0.6,-4.0
3.7,1.0,0.0,0.0,1.75,0.0,0.0,0.25,1.0,0.0,0.25,0.0,0.5,0.5,0.45,-0.05,0.58,60.96,8.6,6.2,0.5,0.0,1.0,0.5,1.0,0.5,0.5,1.5,0.0,0.75,0.5,0.5,1.0,0.58,0.7,0.08,117.39,-2.0,-11.7
3.72,1.0,0.0,0.5,1.5,0.0,0.0,0.0,0.25,0.0,0.0,0.0,0.5,0.5,0.58,-0.05,0.58,60.36,16.9,21.7,0.5,0.0,0.5,0.5,1.0,0.5,0.5,1.5,0.0,0.5,0.5,0.75,0.75,0.58,0.7,0.08,114.28,-0.8,-14.5
3.74,0.75,0.0,0.5,1.0,0.0,0.0,0.25,1.25,0.25,0.75,0.0,0.5,0.5,0.64,-0.11,0.64,70.76,5.9,-10.9,0.75,0.0,0.5,0.5,1.0,0.5,0.5,1.5,0.0,0.5,0.5,0.5,1.0,0.58,0.7,0.14,113.16,-1.1,-11.2
3.76,1.0,0.0,0.25,1.75,0.0,0.0,0.0,0.75,0.25,0.5,0.0,0.5,0.5,0.7,-0.23,0.7,78.96,9.7,4.6,0.5,0.0,0.25,0.5,1.0,0.5,0.5,1.5,0.0,0.5,0.5,0.25,1.0,0.58,0.7,0.14,108.91,1.6,-14.0
3.78,1.0,0.0,0.0,1.25,0.0,0.0,0.25,0.75,0.25,0.75,0.0,0.5,0.5,0.7,-0.23,0.7,82.97,6.8,-7.0,0.5,0.0,0.5,0.5,1.0,0.5,0.5,1.5,0.0,1.5,0.5,0.5,0.75,0.58,0.64,0.14,111.07,1.4,-19.1
3.8,0.75,0.0,0.0,0.75,0.0,0.0,0.25,1.25,0.25,0.5,0.0,0.5,0.5,0.7,-0.17,0.7,79.79,2.9,-19.4,0.5,0.0,0.5,0.5,1.0,0.5,0.5,1.5,0.0,0.5,0.5,0.25,0.75,0.64,0.64,0.14,107.55,-0.2,-7.6
3.82,1.0,0.0,0.25,1.0,0.0,0.0,0.25,1.5,0.0,0.75,0.0,0.5,0.5,0.7,-0.11,0.64,82.38,4.4,-9.7,0.5,0.0,0.5,0.5,1.0,0.75,0.5,1.5,0.0,0.5,0.75,0.25,0.75,0.64,0.7,0.14,108.8,0.1,-8.5
3.84,1.0,0.0,0.5,1.5,0.0,0.0,0.25,1.25,0.0,0.0,0.0,0.5,0.5,0.7,-0.05,0.64,82.36,11.0,10.6,0.5,0.0,0.5,0.5,1.0,0.5,0.5,1.5,0.0,0.5,0.5,0.25,1.0,0.64,0.7,0.14,107.44,0.2,-11.3
3.86,1.0,0.0,0.5,1.0,0.0,0.0,0.25,0.25,0.25,0.25,0.0,0.5,0.5,0.64,-0.05,0.58,79.83,15.2,8.5,0.5,0.0,0.5,0.5,1.0,0.5,0.5,1.5,0.0,0.5,0.5,0.25,1.0,0.58,0.7,0.14,107.36,0.2,-11.3
3.88,1.0,0.0,0.0,1.0,0.0,0.0,0.0,0.25,0.25,0.75,0.0,0.5,0.5,0.64,-0.05,0.58,76.69,8.2,-8.2,0.5,0.0,0.5,0.5,1.0,0.25,0.5,1.5,0.0,0.75,0.5,0.5,1.0,0.52,0.7,0.14,106.63,-0.2,-18.2
3.9,1.0,0.0,0.25,1.75,0.0,0.0,0.25,0.25,0.0,0.5,0.0,0.25,0.5,0.64,0.02,0.52,75.88,13.1,18.2,0.75,0.0,0.5,0.5,1.0,0.5,0.5,1.5,0.0,0.75,0.5,0.0,1.0,0.52,0.7,0.14,108.05,0.0,-6.7
3.92,1.0,0.0,0.25,0.75,0.0,0.0,0.25,0.0,0.0,0.25,0.0,0.5,0.5,0.64,0.02,0.58,66.91,15.8,7.6,0.5,0.0,0.25,0.5,1.0,0.5,0.5,1.5,0.0,0.5,0.75,0.25,1.25,0.52,0.7,0.08,108.73,1.6,-19.3
3.94,1.0,0.0,0.0,1.75,0.0,0.0,0.25,0.5,0.0,0.25,0.0,0.75,0.5,0.7,0.02,0.58,66.24,11.3,4.9,0.5,0.0,0.5,0.5,1.0,0.5,0.5,1.5,0.0,0.0,0.5,0.25,1.0,0.52,0.7,0.08,106.11,-0.9,-6.4
3.96,1.0,0.0,0.0,1.0,0.0,0.0,0.0,0.25,0.0,0.25,0.0,0.5,0.5,0.77,0.02,0.64,61.26,11.4,3.5,0.5,0.0,0.0,0.5,1.0,0.5,0.5,1.5,0.0,0.75,1.0,0.25,0.75,0.52,0.7,0.08,105.47,2.3,-19.6
3.98,1.0,0.0,0.0,1.75,0.0,0.0,0.25,0.25,0.25,0.5,0.0,0.5,0.5,0.77,0.02,0.64,65.61,11.5,6.6,0.5,0.0,0.5,0.5,1.0,0.5,0.5,1.5,0.0,0.5,0.5,0.25,1.25,0.52,0.7,0.14,105.91,0.6,-14.7
4.0,1.0,0.0,0.5,1.0,0.0,0.0,0.25,0.25,0.0,0.25,0.0,0.5,0.5,0.83,0.02,0.7,64.41,15.3,11.3,0.5,0.0,0.5,0.5,1.0,0.25,0.5,1.5,0.0,0.5,0.5,0.25,0.75,0.52,0.77,0.14,104.37,-1.1,-9.1
4.02,1.0,0.0,0.0,1.75,0.0,0.0,0.25,0.0,0.25,0.75,0.0,1.0,0.5,0.83,0.02,0.7,72.39,11.3,-5.7,0.5,0.5,0.5,0.5,1.0,0.5,0.5,1.5,0.0,0.5,0.5,0.25,0.75,0.52,0.77,0.08,106.66,-1.1,-0.2
4.04,1.0,0.0,0.5,1.75,0.0,0.0,0.0,0.75,0.25,0.25,0.0,0.5,0.5,0.77,0.02,0.7,78.08,12.2,10.8,0.5,0.0,0.5,0.5,1.0,0.5,0.5,1.5,0.0,0.0,0.75,0.5,0.75,0.52,0.77,0.08,106.37,-2.1,-8.7
4.06,1.0,0.0,0.5,1.25,0.0,0.0,0.25,1.0,0.0,0.5,0.0,0.75,0.5,0.77,0.02,0.7,84.04,9.5,-2.3,0.5,0.0,0.25,0.5,1.0,0.5,0.5,1.5,0.0,0.5,0.5,0.25,1.0,0.52,0.77,0.08,105.47,1.6,-14.0
4.08,1.0,0.0,0.5,1.75,0.0,0.0,0.25,1.0,0.0,0.25,0.0,0.5,0.5,0.77,0.02,0.64,88.83,11.3,11.2,0.5,0.0,0.0,0.5,1.0,0.5,0.5,1.5,0.0,0.5,0.5,1.0,1.0,0.52,0.77,0.08,105.41,1.9,-26.3
4.1,1.0,0.0,0.5,1.75,0.0,0.0,0.0,1.0,0.0,1.0,0.0,0.5,0.5,0.7,0.02,0.64,94.99,7.7,0.5,0.5,0.0,0.5,0.5,1.0,0.5,0.5,1.5,0.0,0.75,0.5,0.25,1.0,0.52,0.77,0.14,107.22,0.7,-13.5
4.12,1.0,0.0,0.75,0.5,0.0,0.0,0.25,0.5,0.0,0.25,0.0,0.5,0.5,0.58,0.02,0.64,87.76,14.6,5.5,0.5,0.0,0.0,0.5,1.0,0.5,0.5,1.5,0.0,1.0,0.5,0.25,0.75,0.52,0.77,0.14,105.87,3.7,-17.7
4.14,1.0,0.0,0.75,1.75,0.0,0.0,0.25,0.75,0.25,1.25,0.0,0.75,0.5,0.58,0.02,0.58,95.24,9.4,-3.2,0.5,0.0,0.25,0.5,1.0,0.5,0.5,1.5,0.0,0.5,0.5,0.25,1.0,0.52,0.7,0.14,105.06,1.6,-14.0
4.16,1.0,0.0,1.0,1.75,0.0,0.0,0.25,0.75,0.0,0.25,0.0,1.0,0.5,0.58,0.02,0.64,98.62,14.4,7.7,0.5,0.0,0.75,1.0,1.0,0.75,0.5,1.5,0.0,0.75,0.5,0.25,0.75,0.52,0.77,0.14,111.08,-1.4,-2.1
4.18,1.0,0.0,1.0,1.75,0.0,0.0,0.25,0.75,0.0,0.25,0.0,0.5,0.5,0.58,0.02,0.64,101.35,14.9,17.6,0.5,0.0,0.25,0.5,1.0,0.25,0.25,1.5,0.0,0.25,0.5,0.25,0.75,0.52,0.77,0.14,105.9,0.3,-10.0
4.2,1.0,0.0,0.75,1.75,0.0,0.0,0.25,0.75,0.0,0.5,0.0,0.5,0.5,0.58,0.02,0.64,100.6,12.5,11.8,0.5,0.0,0.5,0.5,1.0,0.5,0.5,1.5,0.0,0.5,0.5,0.25,0.75,0.52,0.7,0.14,105.26,-0.2,-7.6
4.22,1.0,0.0,0.75,1.75,0.0,0.0,0.25,1.25,0.0,0.25,0.0,0.5,0.75,0.58,0.02,0.58,101.25,10.3,6.4,0.5,0.0,0.5,0.5,1.0,0.5,0.5,1.5,0.0,0.5,0.5,0.5,0.75,0.52,0.77,0.14,103.93,-0.5,-11.2
4.24,1.0,0.0,0.5,1.75,0.0,0.0,0.25,1.75,0.25,0.75,0.0,0.5,0.5,0.64,0.08,0.64,104.44,6.5,-1.8,0.5,0.0,0.25,0.5,1.0,0.5,0.25,1.5,0.0,0.5,0.5,0.5,0.5,0.52,0.77,0.14,102.56,0.9,-10.8
4.26,1.0,0.0,0.75,1.75,0.0,0.0,0.0,1.75,0.25,0.5,0.0,0.75,0.5,0.7,0.08,0.64,108.17,8.1,-1.2,0.5,0.0,0.0,0.5,1.0,0.5,0.5,1.5,0.25,0.5,0.5,0.25,0.5,0.52,0.77,0.08,98.93,1.7,-10.2
4.28,1.0,0.0,0.75,1.5,0.0,0.0,0.25,1.75,0.0,0.25,0.0,0.5,0.5,0.64,0.08,0.58,108.49,8.9,5.4,0.75,0.0,0.5,0.5,1.0,0.5,0.5,1.5,0.0,0.75,0.5,0.25,1.0,0.52,0.77,0.08,103.81,-0.3,-10.0
