time,left pressure 0[N/cm²],left pressure 1[N/cm²],left pressure 2[N/cm²],left pressure 3[N/cm²],left pressure 4[N/cm²],left pressure 5[N/cm²],left pressure 6[N/cm²],left pressure 7[N/cm²],left pressure 8[N/cm²],left pressure 9[N/cm²],left pressure 10[N/cm²],left pressure 11[N/cm²],left pressure 12[N/cm²],left acceleration X[g],left acceleration Y[g],left acceleration Z[g],left total force[N],left center of pressure X[mm],left center of pressure Y[mm],right pressure 0[N/cm²],right pressure 1[N/cm²],right pressure 2[N/cm²],right pressure 3[N/cm²],right pressure 4[N/cm²],right pressure 5[N/cm²],right pressure 6[N/cm²],right pressure 7[N/cm²],right pressure 8[N/cm²],right pressure 9[N/cm²],right pressure 10[N/cm²],right pressure 11[N/cm²],right pressure 12[N/cm²],right acceleration X[g],right acceleration Y[g],right acceleration Z[g],right total force[N],right center of pressure X[mm],right center of pressure Y[mm]
0.02,0.0,0.5,1.0,2.0,0.0,0.0,0.25,2.0,0.75,1.0,0.25,0.25,0.5,-0.36,-0.11,1.83,78.23,5.0,-5.3,2.0,0.75,2.75,2.75,2.5,2.75,2.0,7.5,3.5,9.25,9.5,6.5,7.75,0.08,0.08,0.95,962.27,-0.2,-43.2
0.04,0.0,0.5,0.0,2.0,0.0,0.0,0.25,2.25,0.75,1.25,0.0,0.5,0.5,-1.98,-1.3,1.14,73.54,-0.5,-18.2,2.0,0.75,3.75,3.25,2.5,3.5,2.0,8.0,3.75,9.25,9.25,6.5,7.75,0.14,0.08,0.95,985.0,-0.6,-39.5
0.06,0.0,0.0,0.5,2.0,0.0,0.0,0.0,1.75,0.5,1.0,0.0,0.5,0.5,-0.73,-1.11,0.77,74.23,2.0,-17.6,2.0,1.0,5.25,4.0,3.0,4.0,2.0,8.0,3.5,8.75,9.0,6.0,7.75,0.14,0.08,0.95,1004.57,-1.5,-32.9
0.08,0.0,0.0,0.0,2.0,0.0,0.0,0.25,1.75,0.5,1.0,0.0,0.5,0.5,-0.55,-1.11,0.83,74.07,-0.2,-23.0,2.25,1.0,5.25,4.5,3.5,4.0,2.25,8.0,3.25,8.5,8.5,6.0,6.75,0.14,0.08,0.95,1009.31,-2.0,-29.0
0.1,0.0,0.0,0.5,2.0,0.0,0.0,0.0,1.75,0.5,1.0,0.0,0.5,0.0,-0.11,-1.05,0.95,74.68,3.3,-10.1,2.5,1.25,5.25,4.5,5.0,4.75,2.25,7.75,3.25,8.0,8.0,5.25,6.25,0.14,0.08,0.95,1009.65,-1.9,-22.7
0.12,0.0,0.0,0.0,0.25,0.0,0.0,0.25,1.5,0.25,0.75,0.0,0.0,0.0,0.02,-0.92,0.95,56.33,-8.8,-36.7,3.25,1.25,6.75,5.75,5.5,4.5,2.5,7.5,3.25,7.75,7.5,5.0,5.75,0.14,0.08,0.95,1022.23,-3.7,-15.6
0.14,0.0,0.0,0.0,0.25,0.0,0.0,0.25,1.5,0.25,0.75,0.0,0.0,0.5,-0.05,-0.73,0.95,45.84,-9.6,-47.8,3.25,1.5,6.75,6.5,5.5,5.0,2.75,7.5,2.75,7.25,7.0,4.0,5.0,0.14,0.08,0.95,1024.99,-3.9,-10.1
0.16,0.0,0.0,0.0,0.25,0.0,0.0,0.0,1.25,0.25,0.75,0.0,0.0,0.0,-0.11,-0.55,1.02,32.13,-10.0,-39.6,3.5,1.75,7.75,7.25,5.75,5.5,2.75,6.75,2.75,6.5,6.25,3.0,4.25,0.14,0.14,0.95,1028.88,-5.1,-2.0
0.18,0.0,0.0,0.0,0.0,0.0,0.0,0.5,1.5,0.25,1.0,0.0,0.0,0.0,-0.23,-0.3,1.08,29.2,-10.0,-45.7,4.0,2.0,8.0,8.25,6.25,5.75,2.75,6.75,2.0,5.75,5.25,2.75,3.25,0.14,0.14,0.95,1024.25,-5.9,5.7
0.2,0.0,0.0,0.75,0.25,0.0,0.0,0.25,2.25,0.25,1.0,0.0,0.0,0.0,-0.3,0.02,1.2,37.11,-2.6,-22.9,4.75,2.0,8.75,9.25,6.75,5.5,2.75,6.0,1.5,4.5,4.25,2.25,2.75,0.14,0.14,0.95,1014.18,-7.6,14.5
0.22,0.0,0.0,0.0,0.0,0.0,0.0,0.0,1.5,0.0,0.75,0.0,0.0,0.0,-0.36,0.39,1.33,38.15,-16.4,-51.0,5.5,2.5,9.25,10.5,7.25,5.5,3.0,5.75,1.0,4.5,3.5,1.5,2.5,0.14,0.14,0.95,1018.34,-8.4,21.5
0.24,0.0,0.0,0.0,1.5,0.0,0.0,0.0,1.25,0.5,1.0,0.0,0.5,0.0,-0.36,0.95,1.33,47.63,0.1,-22.1,5.75,2.75,10.5,11.5,7.5,5.75,3.25,5.0,0.75,3.5,2.75,1.25,2.25,0.14,0.14,0.95,1030.62,-9.9,28.5
0.26,0.0,0.0,0.25,1.5,0.0,0.0,0.25,1.75,0.5,0.75,0.0,0.0,0.75,-0.17,1.45,1.14,56.24,-0.8,-20.7,5.75,2.25,11.0,11.0,8.25,4.0,2.75,3.75,0.0,1.75,2.5,0.5,1.25,0.14,0.14,0.95,994.44,-12.6,38.8
0.28,0.0,0.0,0.0,1.5,0.0,0.0,0.0,1.25,0.25,1.0,0.0,0.5,0.0,0.14,2.33,0.95,64.83,-0.4,-21.2,6.25,2.75,10.5,11.0,7.5,3.5,2.25,3.25,0.5,1.75,1.0,0.5,1.0,0.14,0.14,1.08,936.58,-13.5,43.5
0.3,0.0,0.0,0.0,0.0,0.0,0.0,0.0,0.75,2.5,0.0,0.0,0.0,0.0,0.33,4.08,0.58,62.33,5.4,-38.6,7.5,3.0,12.5,12.0,8.5,3.5,2.25,2.5,0.0,0.75,2.0,0.0,1.0,0.08,0.2,1.14,916.01,-15.5,49.3
0.32,0.0,0.0,0.0,0.0,0.0,0.0,0.0,0.0,0.0,0.0,0.0,0.5,0.0,0.95,4.83,-0.92,44.36,8.8,-109.9,8.0,4.25,11.0,13.5,7.5,3.25,1.75,2.5,0.0,1.75,2.0,0.0,0.75,0.08,0.2,1.14,918.44,-15.1,49.3
0.34,0.0,0.0,0.0,0.0,0.0,0.0,0.0,1.0,1.25,1.0,0.0,0.0,0.5,0.02,0.52,2.45,44.55,-6.5,-58.2,7.5,3.5,11.5,11.0,7.5,3.0,1.5,2.25,0.25,1.5,2.25,0.0,0.75,0.08,0.27,1.14,903.18,-15.5,48.0
0.36,0.0,0.0,0.0,0.0,0.0,0.0,0.0,0.0,1.0,4.25,0.0,0.0,0.0,-0.17,0.33,1.45,56.82,-10.4,-68.5,8.0,4.5,12.5,12.5,7.75,2.75,1.0,1.0,0.25,1.5,1.0,0.0,0.5,0.02,0.27,1.14,904.13,-17.1,55.6
0.38,0.0,0.0,0.0,0.25,0.0,0.0,0.25,3.25,1.25,4.5,2.5,2.5,3.0,-0.3,0.2,1.08,139.31,-5.5,-74.3,8.0,3.25,12.0,11.0,5.5,1.0,1.0,0.75,0.0,0.0,1.0,0.0,0.5,0.02,0.33,1.2,831.61,-20.9,60.6
0.4,0.0,0.0,0.0,1.5,0.0,0.0,0.25,4.0,1.5,5.5,2.75,2.75,3.75,-0.17,0.02,0.83,224.39,-4.7,-66.5,7.5,2.5,11.5,9.0,5.25,1.25,1.0,0.5,0.0,0.0,1.0,0.0,0.5,0.08,0.39,1.33,736.35,-21.1,60.1
0.42,0.0,0.0,0.0,1.5,0.0,0.0,0.25,3.75,2.5,6.0,4.75,3.75,3.25,-0.17,0.14,1.02,302.66,-2.3,-67.3,7.0,2.0,10.5,7.5,2.25,1.0,1.5,0.5,0.0,0.0,0.75,0.5,0.5,0.33,0.58,1.52,605.01,-23.5,58.1
0.44,0.0,0.0,0.0,0.5,0.0,0.0,0.5,5.5,3.25,6.5,5.75,4.5,4.75,-0.17,0.02,0.95,391.53,-3.4,-72.5,5.5,0.5,9.25,5.5,0.0,1.0,2.0,0.5,0.0,0.0,0.25,0.25,0.0,0.33,0.89,1.83,454.62,-27.5,61.3
0.46,0.0,0.25,2.0,1.5,0.0,0.0,0.75,6.0,4.0,6.5,6.5,4.5,5.5,-0.17,0.02,1.02,499.05,-0.1,-59.6,3.0,0.25,7.75,2.75,0.0,0.25,1.5,0.5,0.0,0.0,0.75,0.0,0.25,0.2,1.39,2.58,312.68,-28.7,53.7
0.48,0.5,0.75,2.25,2.25,0.0,0.75,1.0,6.25,5.0,6.5,6.75,4.75,5.5,-0.17,0.02,0.95,598.68,1.0,-50.8,1.75,0.0,5.25,1.0,0.0,0.5,1.0,0.5,0.0,0.0,0.25,0.0,0.0,-0.05,1.2,2.58,203.14,-28.7,55.4
0.5,1.75,0.75,2.25,3.25,4.0,0.75,1.0,6.25,5.0,6.5,6.75,4.5,5.5,-0.11,0.02,0.95,702.81,1.7,-34.5,0.75,0.0,5.25,0.5,0.0,0.5,0.5,0.5,0.0,0.0,0.25,0.0,0.0,-0.05,0.02,2.27,105.7,-28.6,51.1
0.52,2.0,0.75,3.5,3.75,0.0,1.25,1.0,6.5,5.0,6.5,6.25,3.75,4.5,-0.17,0.02,0.95,751.91,3.4,-35.0,2.0,0.25,2.75,0.5,1.0,0.75,0.75,1.0,0.25,0.0,1.5,0.5,0.75,1.02,-0.92,1.89,50.08,-14.8,17.9
0.54,3.0,0.75,4.0,4.0,4.25,1.5,1.0,6.5,5.0,5.5,5.5,3.5,4.25,-0.17,0.02,0.95,795.25,4.0,-19.5,2.0,0.25,2.75,2.0,0.5,1.0,0.75,1.0,0.0,0.0,1.25,0.0,0.75,1.02,-1.17,2.27,33.4,-15.6,30.2
0.56,3.5,0.75,4.25,4.0,5.0,1.5,1.25,6.25,4.5,5.5,5.0,2.75,3.25,-0.17,0.02,0.95,801.31,4.7,-12.2,2.0,0.25,2.75,1.0,0.5,1.5,0.75,0.75,0.0,1.5,1.0,0.5,0.75,0.64,-0.98,1.45,48.99,-10.9,13.6
0.58,4.25,1.25,5.0,5.5,0.0,1.5,1.25,6.0,4.0,4.5,4.0,2.25,2.5,-0.17,0.02,0.95,756.97,8.2,-7.6,1.75,0.25,1.75,1.5,0.0,0.75,0.5,0.75,0.0,1.5,1.5,0.25,0.75,0.39,-0.67,1.02,61.28,-10.8,4.8
0.6,5.25,1.5,5.5,6.0,6.0,1.5,1.0,5.75,3.25,4.25,3.25,1.5,1.75,-0.17,0.02,0.95,747.05,7.9,10.8,1.25,0.25,2.5,1.25,1.25,1.0,0.5,1.0,0.25,1.5,1.25,0.0,1.0,0.2,-0.48,0.83,84.87,-8.3,9.4
0.62,5.25,2.0,6.5,6.5,6.0,1.5,1.0,5.25,3.0,2.75,2.5,1.5,1.75,-0.11,0.02,0.95,730.7,9.8,18.4,1.5,0.25,2.75,1.0,1.0,0.75,0.5,0.75,0.25,1.5,1.0,0.0,0.75,0.08,-0.36,0.89,106.47,-11.2,15.0
0.64,6.0,2.0,6.5,7.0,0.0,1.5,1.0,5.0,2.25,2.5,1.5,1.0,0.75,-0.11,0.08,0.95,671.1,13.8,23.9,1.25,0.25,1.5,0.75,1.5,1.0,0.5,1.0,0.0,1.5,1.25,0.0,0.75,0.08,-0.11,0.89,123.87,-5.3,7.4
0.66,6.0,2.0,6.75,7.5,0.0,1.25,0.75,4.25,1.5,2.5,0.75,0.75,0.75,-0.17,0.08,0.95,596.55,15.0,30.4,1.25,0.25,2.0,1.0,1.5,1.0,0.5,0.75,0.0,1.5,1.0,0.25,1.0,0.08,0.02,0.89,143.99,-7.0,8.5
0.68,6.5,2.0,7.25,7.75,0.0,0.75,0.75,4.25,1.25,2.25,1.0,0.5,0.75,-0.17,0.08,1.02,533.77,16.4,33.4,1.75,0.25,1.5,0.5,1.75,1.0,0.5,0.75,0.0,2.0,1.0,0.25,0.75,0.02,0.14,1.02,162.01,-5.5,7.7
0.7,7.0,2.25,7.25,7.75,0.0,0.5,0.5,3.25,1.0,1.75,0.0,0.5,0.75,-0.17,0.08,0.95,480.54,18.6,42.6,1.0,0.25,1.25,0.75,1.5,1.0,0.5,0.75,0.0,1.5,1.0,0.0,0.75,0.02,0.14,1.27,165.16,-4.2,7.1
0.72,7.5,3.5,8.0,8.75,0.0,0.0,0.5,3.25,1.0,1.75,0.0,0.5,0.5,-0.17,0.14,1.02,468.76,19.8,47.5,1.25,0.25,1.5,0.75,1.5,1.0,0.5,0.75,0.0,1.5,1.0,0.0,0.75,0.02,0.27,1.58,165.51,-5.7,10.3
0.74,7.75,3.5,8.0,8.75,0.0,0.0,0.25,3.25,1.0,1.25,0.0,0.5,0.75,-0.17,0.14,1.02,473.58,20.1,48.5,1.0,0.25,1.0,0.75,1.25,1.25,0.5,0.75,0.0,1.75,1.0,0.0,0.75,0.14,0.39,1.64,157.83,-2.4,2.9
0.76,8.25,4.0,8.5,10.0,0.0,0.0,0.0,2.75,0.75,1.5,0.0,0.5,0.75,-0.17,0.14,1.02,501.72,20.6,51.3,0.5,0.0,1.0,0.0,1.25,0.0,0.5,1.0,0.0,0.0,1.25,0.0,0.0,0.2,0.7,1.7,128.1,-10.2,11.5
0.78,8.5,4.75,8.75,10.0,0.0,0.0,0.0,2.5,0.75,1.0,0.0,0.5,0.25,-0.17,0.2,1.02,520.17,21.8,57.1,1.0,0.25,0.5,0.75,1.0,0.5,0.5,0.75,0.0,1.5,1.0,0.25,0.75,0.14,1.33,2.27,117.8,-3.2,-5.7
0.8,9.0,5.0,9.0,11.0,0.0,0.0,0.0,2.75,0.5,1.0,0.25,0.5,0.75,-0.23,0.2,1.02,561.1,21.2,55.0,1.0,0.25,1.25,1.0,1.25,1.0,0.5,0.75,0.0,1.5,1.0,0.25,0.75,0.02,1.89,2.7,121.1,-4.8,4.2
0.82,9.0,5.5,9.0,11.5,0.0,0.0,0.0,2.5,0.5,1.0,0.0,0.5,0.75,-0.23,0.27,1.08,596.39,21.3,56.9,0.75,0.25,0.75,0.5,1.5,1.0,0.5,0.75,0.0,1.0,1.0,0.25,0.75,-0.3,2.7,1.95,125.61,-2.3,1.4
0.84,9.5,5.5,9.0,11.5,0.0,0.0,0.0,2.5,0.5,1.0,0.25,0.5,0.25,-0.23,0.27,1.08,622.99,21.9,58.7,1.0,0.0,1.75,0.5,1.25,1.25,0.5,0.75,0.0,0.0,1.0,0.0,0.75,-0.61,3.39,0.95,127.12,-8.5,19.5
0.86,8.75,6.0,9.0,11.5,0.0,0.0,0.0,2.0,0.5,1.0,0.0,0.0,0.5,-0.23,0.33,1.08,640.97,22.0,61.6,0.5,0.0,0.0,0.0,0.0,0.0,0.0,0.5,0.0,1.25,0.0,0.25,0.0,-0.86,4.45,0.08,97.05,3.8,-38.7
0.88,9.5,0.0,8.5,11.0,0.0,0.0,0.0,1.75,0.5,1.0,0.0,0.0,0.5,-0.23,0.39,1.14,604.76,24.2,56.2,1.0,0.0,0.75,0.5,0.0,0.75,0.5,0.5,0.25,1.75,1.0,0.0,0.75,-1.11,4.77,-0.11,90.24,-4.0,-16.1
0.9,8.25,0.0,9.0,9.5,0.0,0.0,0.0,0.0,0.25,0.75,0.0,0.0,0.25,-0.36,0.39,1.33,528.78,27.8,63.9,0.0,0.0,0.0,0.0,0.0,0.0,0.5,0.5,0.0,2.25,0.0,1.25,0.5,-2.05,4.45,1.64,72.65,6.7,-79.1
0.92,7.5,0.0,7.0,8.75,0.0,0.0,0.0,0.0,0.25,0.75,0.0,0.0,0.0,-0.42,0.45,1.52,436.19,27.4,65.2,0.0,0.0,0.0,0.0,0.0,0.25,0.0,0.5,0.0,5.75,2.25,4.5,5.75,0.39,-0.55,0.52,154.04,6.3,-91.9
0.94,6.25,0.0,6.0,7.5,0.0,0.0,0.25,0.0,0.5,0.75,0.0,0.0,0.0,-0.73,0.77,1.89,359.0,27.0,62.6,0.0,0.0,0.0,0.0,1.75,0.75,0.5,2.0,0.0,7.75,5.25,6.0,7.75,0.14,0.39,1.58,270.66,5.4,-76.8
0.96,2.0,0.0,5.5,4.0,0.0,0.0,0.0,0.0,0.5,0.75,0.0,0.5,0.0,-0.73,1.64,3.08,272.68,26.2,47.5,0.0,0.0,0.0,0.0,0.0,0.0,0.0,3.75,1.0,9.5,7.75,6.5,8.25,0.08,0.77,1.83,414.54,4.8,-84.7
0.98,2.0,0.0,4.0,3.0,0.0,0.0,0.0,0.0,0.0,0.75,0.0,0.0,0.0,-0.55,1.33,2.89,198.1,26.8,56.6,0.0,0.0,0.0,1.0,2.25,2.5,0.0,6.25,1.75,10.5,9.5,6.5,8.75,0.14,0.27,1.33,622.47,5.2,-65.4
1.0,0.0,0.0,1.5,2.0,0.0,0.0,0.0,0.0,0.25,0.75,0.0,0.0,0.0,-0.61,-0.05,2.27,102.56,18.6,32.2,1.75,0.5,0.0,1.25,1.75,3.75,0.5,7.5,2.75,10.5,9.75,6.75,8.5,0.14,0.14,0.95,818.96,3.8,-56.0
1.02,0.0,0.0,1.25,2.0,0.0,0.0,0.0,1.5,0.25,0.75,0.0,0.0,0.0,-0.11,-1.05,2.64,35.7,8.7,12.8,2.0,0.5,2.5,3.0,2.5,4.5,1.25,8.5,3.25,10.5,10.5,6.75,8.5,0.2,0.14,1.02,1007.2,1.2,-44.3
1.04,0.0,0.0,0.0,2.0,0.0,0.0,0.0,0.5,0.5,0.75,0.0,0.0,0.0,-0.55,-1.05,3.27,0.0,5.7,6.8,2.0,0.75,2.75,3.25,3.5,5.0,1.25,8.75,3.5,10.5,10.5,6.5,8.25,0.2,0.08,0.95,1148.59,1.1,-40.1
1.06,0.0,0.0,0.0,2.0,0.0,0.0,0.25,0.0,0.25,1.0,0.0,0.0,0.5,-0.42,-0.67,1.39,0.0,5.0,-4.2,2.0,1.0,2.75,3.25,5.25,5.75,1.25,8.75,3.5,9.75,10.0,6.0,8.0,0.27,0.08,0.95,1249.35,1.3,-34.5
1.08,0.25,0.0,0.0,2.0,0.0,0.0,0.0,0.0,0.5,0.75,0.0,0.0,0.5,-0.55,-0.55,0.64,0.0,7.6,2.9,2.25,1.25,2.75,3.75,5.5,6.0,1.5,8.75,3.25,8.75,9.0,5.25,7.25,0.27,0.08,0.95,1265.58,1.0,-29.0
1.1,0.0,0.0,0.0,2.0,0.0,0.0,0.0,0.0,0.25,0.75,0.0,0.0,0.5,-0.42,-0.48,0.39,0.0,5.6,-0.3,2.25,1.75,3.25,5.0,5.5,6.25,1.5,8.5,3.0,8.0,8.0,4.25,6.0,0.27,0.08,0.95,1236.32,0.2,-20.9
1.12,0.0,0.0,0.0,2.0,0.0,0.0,0.25,0.0,0.25,1.0,0.0,0.0,0.0,-0.3,-0.42,0.58,0.0,7.8,11.4,2.0,1.5,3.0,5.25,5.75,6.5,1.0,8.0,2.25,7.0,7.25,3.0,5.0,0.27,0.08,0.95,1138.64,0.5,-16.0
1.14,0.0,0.0,0.0,2.0,0.0,0.0,0.0,0.0,0.25,0.75,0.0,0.5,0.0,-0.36,-0.36,0.77,0.0,8.8,0.1,2.25,1.75,3.0,5.5,6.0,6.25,1.0,7.5,1.75,6.25,5.25,1.75,4.0,0.27,0.14,0.95,1016.98,0.3,-6.9
1.16,0.0,0.0,0.0,2.0,0.0,0.0,0.25,0.0,0.25,0.75,0.0,0.5,0.0,-0.36,-0.17,0.77,9.44,9.5,1.0,2.25,1.75,2.75,6.0,6.75,6.75,1.0,7.0,1.5,5.0,4.5,1.5,3.25,0.27,0.14,0.95,889.57,0.1,0.0
1.18,0.0,0.0,0.0,1.75,0.0,0.0,0.0,0.5,0.25,0.75,0.0,0.5,0.25,-0.36,0.02,0.77,26.54,3.7,-15.2,2.25,1.75,2.75,6.25,7.25,6.75,1.0,6.75,1.0,2.75,3.25,1.25,2.5,0.27,0.14,0.95,776.58,-0.5,9.8
1.2,0.0,0.0,0.0,1.75,0.0,0.0,0.0,0.5,0.25,0.75,0.0,0.5,0.25,-0.36,0.08,0.89,43.73,3.7,-15.2,3.0,2.0,3.0,7.0,7.5,7.0,0.75,6.0,0.75,3.25,2.5,1.25,2.5,0.27,0.14,0.89,710.74,-1.2,14.4
1.22,0.0,0.0,0.0,0.25,0.0,0.0,0.0,0.0,0.0,0.25,0.0,0.0,0.0,-0.36,0.14,1.14,34.7,1.1,-7.2,3.25,2.0,3.5,7.5,7.5,7.25,0.5,5.75,0.75,2.5,2.25,1.25,2.5,0.2,0.14,0.95,669.57,-2.1,18.1
1.24,0.0,0.0,0.0,0.0,0.0,0.0,0.0,0.0,0.25,1.0,0.0,0.5,0.0,-0.42,0.27,1.58,31.44,-4.7,-80.0,3.25,1.0,4.75,8.75,8.5,7.25,0.5,5.75,0.75,2.75,2.0,1.0,1.75,0.2,0.14,0.95,670.34,-3.2,22.0
1.26,0.0,0.0,0.0,1.75,0.0,0.0,0.25,0.0,0.25,0.75,0.0,0.5,0.0,-0.48,0.39,1.83,31.55,9.0,-3.2,3.5,2.5,5.25,9.0,8.75,7.75,0.5,5.0,0.5,2.0,2.0,1.25,1.75,0.2,0.14,0.95,692.73,-4.3,27.6
1.28,0.0,0.0,0.0,1.75,0.0,0.0,0.25,0.75,0.25,0.75,0.0,0.5,0.5,-0.55,0.64,2.39,45.95,2.4,-20.5,4.25,3.0,5.25,10.5,9.75,7.25,0.5,5.0,0.25,1.5,2.0,0.75,1.5,0.2,0.2,0.95,742.66,-5.4,33.9
1.3,0.0,0.0,0.0,0.5,0.0,0.0,0.25,0.75,0.25,0.75,0.0,0.5,0.25,-0.61,1.14,2.77,50.48,-2.4,-45.9,5.25,3.75,6.75,11.0,9.75,7.75,0.5,4.75,0.25,2.25,1.5,0.75,1.5,0.2,0.2,0.95,820.33,-6.6,36.5
1.32,0.0,0.0,0.0,1.0,0.0,0.0,0.0,0.0,0.25,0.75,0.0,0.5,0.0,-0.8,2.27,2.77,50.18,5.3,-23.6,5.5,3.5,7.0,12.5,10.5,7.75,0.5,3.75,0.25,1.75,1.5,0.25,1.5,0.14,0.2,1.02,897.44,-7.5,41.0
1.34,0.0,0.0,0.0,1.25,0.0,0.0,0.0,0.0,0.25,0.75,0.0,0.5,0.0,-0.98,3.52,1.58,46.36,6.4,-16.0,5.75,4.0,7.75,10.5,11.5,7.0,0.0,2.5,0.0,1.5,0.75,0.25,0.75,0.14,0.2,1.08,935.74,-8.7,48.3
1.36,0.0,0.0,0.0,0.0,0.0,0.0,0.0,0.0,2.25,1.0,0.0,0.0,0.0,-0.67,4.64,0.7,45.33,3.5,-50.0,7.0,4.25,8.5,13.0,9.75,6.25,0.0,2.25,0.0,0.0,1.0,0.0,1.25,0.14,0.27,1.08,962.97,-11.5,52.7
1.38,0.0,0.0,0.0,0.0,0.0,0.0,0.0,0.0,0.0,0.0,0.0,0.0,0.0,1.14,5.39,0.02,28.92,0.0,0.0,7.0,5.0,8.0,12.5,9.75,5.5,0.0,2.0,0.0,0.0,0.0,0.25,0.75,0.14,0.33,1.14,954.86,-12.1,57.1
1.4,0.0,0.0,0.0,0.0,0.0,0.0,0.0,0.0,0.0,0.0,0.0,0.0,0.0,3.02,6.89,0.33,15.25,0.0,0.0,7.0,3.5,8.75,11.0,9.75,3.75,0.0,1.0,0.0,0.0,0.0,0.0,0.5,0.14,0.33,1.14,901.02,-14.3,60.4
1.42,0.0,0.0,0.5,0.0,0.0,0.0,0.0,0.0,0.0,0.75,0.0,0.0,2.25,-0.11,-0.67,2.52,23.95,-6.6,-78.1,7.5,5.0,8.75,11.0,9.75,4.5,0.0,0.75,0.0,0.0,0.0,0.0,0.5,0.08,0.33,1.14,868.74,-14.1,62.1
1.44,0.0,0.0,0.5,0.0,0.0,0.0,0.0,0.0,0.0,4.5,0.5,2.75,3.25,0.2,0.08,1.27,85.98,-5.8,-87.4,7.25,4.75,8.0,9.5,8.75,4.0,0.0,0.5,0.0,0.0,0.0,0.0,0.5,0.2,0.39,1.39,805.76,-14.5,62.9
1.46,0.0,0.0,0.25,0.5,0.0,0.0,0.0,2.75,1.0,7.25,2.75,3.75,6.0,-0.42,0.7,3.2,204.45,-6.2,-79.5,4.75,1.25,4.0,5.5,6.5,3.25,0.0,0.5,0.0,0.0,0.0,0.0,0.25,0.33,0.89,2.2,632.75,-11.9,59.5
1.48,0.0,0.0,0.0,0.0,0.0,0.0,0.0,5.5,2.25,7.25,0.0,5.0,6.75,-0.36,0.39,1.52,299.72,-8.5,-80.1,3.0,0.25,2.75,3.25,2.5,1.75,0.25,0.5,0.0,0.0,0.0,0.0,0.25,0.27,1.83,2.7,408.96,-14.4,56.8
1.5,0.0,0.0,0.0,0.0,0.0,0.0,0.25,6.0,2.75,7.25,6.75,4.75,6.25,-0.05,0.02,0.95,423.83,-4.5,-77.0,0.75,0.25,1.75,0.75,2.25,1.0,0.75,0.75,0.0,0.0,1.0,0.0,0.0,0.08,0.95,2.83,243.53,-9.7,35.8
1.52,0.0,0.0,0.0,2.0,0.0,1.0,0.5,6.5,3.75,7.25,7.0,4.75,6.0,-0.23,0.02,0.89,544.73,-3.2,-64.8,0.75,0.25,0.0,2.0,1.0,2.5,0.0,0.5,0.0,1.5,0.0,0.75,0.0,0.39,-0.17,1.89,117.24,2.0,15.3
1.54,1.0,0.0,0.5,2.25,0.0,1.5,0.75,7.0,4.5,7.25,7.25,4.75,5.75,-0.17,0.02,0.95,650.93,-1.6,-56.5,1.25,0.25,0.25,1.75,0.0,1.25,0.5,1.0,0.0,1.5,0.75,0.0,0.75,0.89,-0.42,1.39,28.86,-2.5,1.8
1.56,2.5,0.25,2.25,2.75,0.0,1.5,1.0,7.0,5.0,7.25,7.25,4.5,5.5,-0.17,0.02,1.02,732.31,1.5,-44.1,1.75,0.25,1.5,1.75,2.25,2.25,0.5,1.0,0.0,1.5,1.0,0.25,0.75,0.14,-1.17,2.58,31.76,-4.3,18.1
1.58,4.25,0.75,3.5,3.5,0.0,2.0,1.0,7.0,5.25,7.0,7.25,4.5,5.0,-0.17,0.02,0.95,803.69,4.0,-32.1,1.5,0.0,0.25,1.75,2.25,1.5,0.25,0.75,0.0,1.5,1.0,0.0,1.0,0.27,-0.61,1.08,41.02,-1.1,10.2
1.6,4.0,0.75,3.75,4.0,0.0,2.0,1.0,7.0,5.0,6.5,6.5,3.75,4.25,-0.17,0.02,1.02,825.68,4.4,-27.6,1.0,0.0,0.75,0.5,1.75,1.0,0.5,1.0,0.0,0.0,1.0,0.0,1.0,0.39,-0.48,0.64,38.18,-3.5,10.7
1.62,4.25,0.75,4.0,4.0,6.0,2.5,1.0,6.75,4.25,5.5,5.5,2.75,3.25,-0.17,0.02,0.95,853.07,4.0,-9.5,0.5,0.0,0.0,0.5,0.0,1.0,0.0,0.75,0.0,0.0,0.0,0.0,0.25,0.45,-0.42,0.58,2.07,4.2,17.2
1.64,5.0,1.25,4.0,4.0,6.75,2.75,1.0,6.5,3.75,4.5,4.25,1.75,2.0,-0.17,0.02,0.95,840.55,4.9,2.8,0.75,0.0,0.0,0.5,0.0,2.0,0.25,0.75,0.0,1.5,0.0,0.25,0.5,0.45,-0.3,0.64,0.0,7.4,-9.5
1.66,5.0,1.5,4.0,4.25,5.5,2.75,0.75,6.25,3.0,4.25,3.25,1.5,1.75,-0.17,0.02,0.95,795.07,5.3,6.3,1.25,0.25,0.5,0.75,1.75,1.25,0.5,1.0,0.0,1.5,1.0,0.5,0.75,0.45,-0.11,0.77,21.2,-1.4,0.6
1.68,4.75,1.25,4.0,5.25,6.25,2.75,0.75,6.0,2.5,2.75,2.25,1.25,1.75,-0.17,0.08,0.95,728.18,5.9,13.8,1.25,0.25,0.75,0.75,1.75,1.25,0.5,0.75,0.0,1.5,1.0,0.25,0.75,0.45,0.02,0.83,73.43,-2.5,5.6
1.7,5.0,1.5,4.0,5.75,6.75,2.75,0.5,5.5,2.0,2.5,1.5,1.0,1.25,-0.17,0.08,0.95,668.17,6.5,21.7,1.25,0.25,0.5,1.0,1.75,1.25,0.5,1.0,0.0,1.5,1.0,0.0,0.75,0.39,0.14,0.95,125.36,-1.4,7.2
1.72,5.25,2.25,4.5,5.5,7.0,2.75,0.5,5.25,1.5,2.5,1.0,0.75,1.0,-0.17,0.08,0.95,629.63,7.2,28.0,1.25,0.25,0.0,0.5,1.75,1.25,0.5,0.75,0.0,1.5,1.0,0.0,1.0,0.39,0.2,1.08,146.54,1.3,-0.3
1.74,5.5,1.75,5.5,6.0,0.0,3.0,0.5,5.0,1.25,2.5,0.5,0.5,0.75,-0.17,0.08,0.95,550.51,11.1,27.3,1.0,0.25,0.0,0.75,1.75,1.0,0.5,0.75,0.0,1.5,1.0,0.0,0.75,0.39,0.33,1.45,147.92,0.8,1.0
1.76,5.5,2.5,5.5,7.0,0.0,3.25,0.25,4.75,1.0,2.25,0.25,0.5,0.75,-0.17,0.08,0.95,500.19,11.4,32.5,1.0,0.25,0.0,0.75,2.25,1.0,0.5,0.75,0.0,1.5,1.0,0.0,1.0,0.39,0.58,1.77,144.5,1.2,1.1
1.78,6.25,3.0,5.5,7.5,0.0,2.75,0.25,4.5,1.0,1.75,0.0,0.5,0.75,-0.17,0.14,0.95,461.47,13.1,38.1,1.0,0.25,0.25,0.75,1.75,1.25,0.5,0.75,0.0,1.5,1.0,0.0,1.0,0.52,0.95,2.02,144.47,0.6,0.4
1.8,6.25,3.5,5.75,7.75,0.0,3.0,0.25,4.5,0.75,1.75,0.0,0.5,0.5,-0.17,0.14,0.95,451.84,13.3,41.0,1.25,0.25,0.0,0.5,1.75,1.25,0.5,0.75,0.0,1.5,1.0,0.25,0.75,0.7,1.64,2.33,144.28,0.7,-0.2
1.82,6.75,3.5,5.0,7.75,0.0,3.0,0.0,4.25,0.5,1.5,0.0,0.5,0.75,-0.23,0.14,0.95,446.85,13.2,42.3,1.0,0.25,0.0,0.75,1.75,1.25,0.5,0.75,0.0,1.5,1.0,0.25,0.75,0.52,1.95,2.33,149.2,1.0,-1.0
1.84,6.25,4.0,5.25,8.75,0.0,1.5,0.0,3.25,0.5,1.25,0.0,0.5,0.5,-0.17,0.2,0.95,444.99,16.2,48.1,1.0,0.25,0.5,0.5,1.75,1.0,0.5,0.75,0.0,1.5,1.0,0.25,0.75,0.2,2.83,2.02,151.83,-1.0,-0.1
1.86,0.0,4.75,5.5,8.5,0.0,3.25,0.0,3.25,0.5,1.25,0.0,0.5,0.5,-0.23,0.2,1.02,414.11,10.1,38.5,1.0,0.25,0.25,0.5,1.75,1.25,0.5,0.75,0.0,1.5,1.0,0.5,0.75,-0.17,3.64,0.89,151.98,0.3,-3.7
1.88,0.0,4.75,6.5,9.0,0.0,1.25,0.0,3.25,0.5,1.25,0.0,0.0,0.5,-0.23,0.2,1.08,389.6,13.6,42.7,1.0,0.25,0.0,0.5,2.25,1.25,0.5,0.75,0.0,1.5,1.0,0.75,0.75,-0.92,4.58,-0.17,149.81,1.1,-4.6
1.9,0.0,4.75,0.0,9.0,0.0,1.5,0.0,3.25,0.25,1.0,0.0,0.5,0.5,-0.3,0.27,1.08,340.4,5.7,35.6,1.25,0.0,0.25,0.5,1.75,1.25,0.25,0.75,0.0,1.5,0.75,0.75,0.75,-1.36,4.89,-0.11,146.43,0.2,-5.2
1.92,0.0,0.0,0.0,8.5,0.0,0.0,0.0,2.75,0.25,1.0,0.0,0.5,0.5,-0.23,0.27,1.14,272.46,6.5,15.2,0.25,0.0,0.25,0.0,1.75,0.75,0.0,1.25,0.0,1.5,2.0,1.25,1.0,0.27,-0.23,0.64,148.21,3.0,-37.9
1.94,5.75,0.0,6.5,8.75,0.0,1.75,0.0,2.5,0.25,1.0,0.0,0.5,0.5,-0.36,0.33,1.27,277.42,18.3,44.4,0.0,0.0,0.0,0.0,0.0,1.0,0.0,0.5,0.0,4.5,2.0,3.25,3.5,-1.17,-0.17,0.08,177.83,6.8,-83.1
1.96,5.25,0.0,5.5,8.0,0.0,0.0,0.0,2.25,0.25,1.0,0.0,0.5,0.5,-0.42,0.39,1.45,278.96,20.4,43.7,0.75,0.25,0.0,0.75,0.0,2.0,0.0,1.0,0.25,7.25,4.5,5.25,6.0,-0.55,0.64,4.45,260.17,4.3,-70.7
1.98,3.75,0.0,2.25,6.75,0.0,0.0,0.0,2.0,0.25,1.0,0.0,0.5,0.5,-0.61,0.45,1.64,272.11,16.5,36.1,1.25,0.25,0.0,0.5,1.5,3.0,0.0,4.0,0.75,7.75,6.75,5.5,7.75,0.33,0.52,1.83,382.17,4.8,-61.0
2.0,1.0,0.0,0.0,4.0,0.0,0.0,0.0,0.0,0.25,1.0,0.0,0.5,0.5,-0.73,0.64,1.95,206.94,12.1,18.6,0.0,0.0,0.25,0.5,2.25,2.5,0.0,5.5,1.5,8.25,7.5,4.75,6.25,0.2,0.14,0.89,519.94,5.4,-60.9
2.02,0.0,0.0,0.25,3.25,0.0,0.0,0.0,0.0,0.0,1.0,0.0,0.5,0.0,-0.98,1.58,2.7,131.56,11.0,16.0,2.75,0.25,0.75,2.25,1.5,3.5,0.0,6.0,2.0,8.5,8.25,5.25,6.25,0.14,0.14,0.95,662.63,1.7,-46.0
2.04,0.0,0.0,0.0,1.75,0.0,0.0,0.0,0.0,0.25,0.75,0.0,0.5,0.0,-0.3,0.89,2.14,46.03,8.1,-4.3,3.5,0.75,3.25,3.25,2.5,3.75,1.5,7.25,2.75,8.5,8.5,5.25,6.0,0.14,0.14,0.95,798.64,-1.2,-32.2
2.06,0.0,0.0,0.0,0.0,0.0,0.0,0.75,0.0,0.5,0.75,0.0,0.5,0.5,-0.55,-0.17,2.2,0.0,1.2,-67.7,5.0,1.0,6.75,3.25,2.5,4.0,2.0,7.5,3.25,8.5,8.5,5.5,5.75,0.2,0.14,0.95,939.4,-4.3,-23.0
2.08,0.25,0.0,0.0,0.0,0.0,0.0,0.0,0.0,0.25,0.75,0.0,0.5,0.5,-0.05,-0.55,2.33,0.0,-1.4,-68.9,5.5,1.0,7.75,3.5,2.5,4.0,2.75,7.25,3.25,8.0,8.5,5.25,4.5,0.2,0.08,0.95,1046.07,-5.9,-17.4
2.1,0.0,0.0,0.0,0.0,0.0,0.0,0.0,0.0,0.0,0.0,0.0,0.0,0.0,-0.17,-0.8,2.08,0.0,0.0,0.0,6.25,1.0,8.75,5.25,3.5,4.25,2.75,7.0,3.25,7.5,8.0,4.0,4.75,0.2,0.08,0.95,1144.56,-6.9,-9.0
2.12,0.0,0.0,0.0,0.0,0.0,0.0,0.0,0.0,0.0,0.0,0.0,0.0,0.0,-0.23,-0.61,0.95,0.0,0.0,0.0,6.75,1.25,9.25,5.5,3.75,4.5,3.0,6.75,2.75,6.5,7.5,3.5,3.75,0.2,0.08,0.95,1187.35,-8.0,-2.1
2.14,0.0,0.0,0.0,0.0,0.0,0.0,0.0,0.0,0.0,0.0,0.0,0.0,0.0,-0.3,-0.42,0.39,0.0,0.0,0.0,7.5,1.5,9.5,5.5,5.0,4.0,3.0,6.0,2.5,5.75,6.25,2.75,2.75,0.2,0.14,0.95,1184.27,-9.3,6.8
2.16,0.0,0.0,0.0,0.0,0.0,0.0,0.0,0.0,0.0,0.0,0.0,0.0,0.0,-0.36,-0.48,0.52,0.0,0.0,0.0,7.5,1.75,10.5,6.0,5.0,4.0,2.75,5.0,2.0,4.5,5.25,1.75,1.75,0.2,0.14,0.95,1127.47,-11.2,17.2
2.18,0.0,0.0,0.0,0.0,0.0,0.0,0.0,0.0,0.0,0.0,0.0,0.0,0.0,-0.48,-0.42,0.58,0.0,0.0,0.0,7.75,1.75,11.0,7.0,4.75,3.75,2.75,4.5,1.5,3.5,4.0,1.5,1.5,0.14,0.14,0.95,1047.51,-12.8,24.4
2.2,0.0,0.0,0.0,0.0,0.0,0.0,0.0,0.0,0.0,0.0,0.0,0.0,0.0,-0.48,-0.36,0.7,0.0,0.0,0.0,8.0,2.0,11.5,7.25,4.5,3.75,2.5,3.75,1.25,2.0,3.25,1.25,1.5,0.14,0.14,0.95,956.44,-14.5,31.6
2.22,0.0,0.0,0.0,0.0,0.0,0.0,0.0,0.0,0.0,0.0,0.0,0.0,0.0,-0.42,-0.17,0.83,0.0,0.0,0.0,8.0,2.0,11.5,7.25,4.5,3.5,2.25,3.75,0.75,2.0,2.5,1.75,0.5,0.14,0.14,0.95,879.52,-15.3,35.4
2.24,0.0,0.0,0.0,0.0,0.0,0.0,0.0,0.0,0.0,0.0,0.0,0.0,0.0,-0.42,-0.05,0.89,0.0,0.0,0.0,8.0,2.0,11.5,7.25,4.25,3.5,2.0,3.0,0.75,2.0,2.0,1.25,0.75,0.08,0.14,0.95,816.2,-15.8,38.3
2.26,0.0,0.0,0.0,0.0,0.0,0.0,0.0,0.0,0.0,0.0,0.0,0.0,0.0,-0.42,0.14,1.08,0.0,0.0,0.0,7.75,2.0,11.5,7.5,4.75,3.5,2.0,2.5,0.0,1.5,2.25,1.0,0.0,0.08,0.14,1.02,754.39,-16.8,44.3
2.28,0.0,0.0,0.0,0.0,0.0,0.0,0.0,0.0,0.0,0.0,0.0,0.0,0.0,-0.48,0.27,1.45,0.0,0.0,0.0,8.5,2.25,12.0,7.0,5.0,3.5,1.75,2.25,0.0,1.5,2.0,1.0,1.0,0.08,0.14,0.95,722.07,-16.6,43.3
2.3,0.0,0.0,0.0,0.0,0.0,0.0,0.0,0.0,0.0,0.0,0.0,0.0,0.0,-0.67,0.58,1.77,0.0,0.0,0.0,8.75,2.0,12.5,7.5,5.5,3.25,1.5,2.25,0.25,1.5,2.25,0.25,1.0,0.08,0.2,0.95,715.19,-16.9,45.1
2.32,0.0,0.0,0.0,0.0,0.0,0.0,0.0,0.0,0.0,0.0,0.0,0.0,0.0,-0.8,1.02,2.02,0.0,0.0,0.0,8.75,2.5,12.5,9.0,5.5,3.25,1.5,2.25,0.0,1.5,1.5,0.75,1.0,0.08,0.2,0.95,736.46,-16.9,46.7
2.34,0.0,0.0,0.0,0.0,0.0,0.0,0.0,0.0,0.0,0.0,0.0,0.0,0.0,-0.92,1.83,2.02,0.0,0.0,0.0,8.75,2.25,12.5,8.5,5.5,3.5,1.0,2.25,0.0,1.5,1.5,0.75,0.75,0.08,0.2,0.95,750.71,-16.9,47.2
2.36,0.0,0.0,0.0,0.0,0.0,0.0,0.0,0.0,0.0,0.0,0.0,0.0,0.0,-0.98,2.58,1.64,0.0,0.0,0.0,8.75,2.75,13.0,9.25,5.5,3.25,1.0,2.0,0.0,1.5,1.0,0.75,0.75,0.08,0.27,1.02,774.99,-17.4,49.7
2.38,0.0,0.0,0.0,0.0,0.0,0.0,0.0,0.0,0.0,0.0,0.0,0.0,0.0,-0.73,3.33,1.2,0.0,0.0,0.0,9.0,2.5,12.5,9.5,5.5,3.25,1.0,1.0,0.0,1.5,1.5,0.75,0.75,0.08,0.27,1.02,785.63,-18.0,50.1
2.4,0.0,0.0,0.0,0.0,0.0,0.0,0.0,0.0,0.0,0.0,0.0,0.0,0.0,0.14,4.45,-3.11,0.0,0.0,0.0,9.0,2.75,12.5,9.0,5.5,0.75,0.75,1.0,0.0,0.0,1.25,0.0,0.25,0.08,0.27,1.08,758.52,-21.9,61.0
2.42,0.0,0.0,0.0,0.75,0.0,0.0,0.0,0.0,0.0,0.0,0.0,0.0,0.0,1.89,7.89,0.89,4.91,17.2,57.9,8.25,2.5,11.5,8.5,5.25,1.0,0.25,1.0,0.0,1.25,1.0,0.0,0.75,0.08,0.33,1.2,716.8,-19.7,54.9
2.44,0.0,0.0,0.0,1.25,0.0,0.0,0.0,0.0,0.5,2.5,1.25,2.75,2.25,-0.36,-0.42,2.7,67.37,-0.4,-73.6,8.0,2.25,11.0,7.75,5.25,1.25,0.25,0.5,0.0,0.0,0.0,0.0,0.0,0.02,0.33,1.33,649.4,-21.8,66.5
2.46,0.0,0.0,0.25,2.0,0.0,0.0,0.0,0.0,0.25,2.5,1.0,1.5,3.0,-0.3,-0.05,1.2,119.77,-0.8,-59.8,8.0,1.75,10.5,7.5,2.75,1.0,0.0,0.5,0.0,1.5,0.0,0.0,0.0,0.14,0.33,1.45,576.59,-22.5,61.4
2.48,0.0,0.0,0.0,4.5,0.0,0.0,3.0,0.0,3.5,2.0,2.25,1.75,1.75,-0.11,-0.17,0.39,188.6,8.8,-30.3,6.75,1.75,9.25,5.75,2.5,1.0,0.0,0.5,0.0,0.0,0.0,0.0,0.0,0.2,0.39,1.58,482.71,-24.0,67.6
2.5,0.0,0.0,0.0,0.0,0.0,0.0,4.0,6.0,0.0,0.0,0.0,0.0,0.0,-0.17,0.27,0.95,190.99,-4.8,-22.7,4.75,0.25,7.75,3.5,1.75,1.0,0.5,0.0,0.0,0.0,0.0,0.0,0.0,0.08,0.7,2.08,370.23,-25.9,66.8
2.52,0.0,0.0,0.0,0.0,0.0,0.0,0.0,0.0,0.0,0.0,0.0,0.0,0.0,-0.23,0.14,1.02,149.29,0.0,0.0,2.5,0.25,5.25,2.25,0.0,1.0,0.25,0.0,0.0,0.0,0.0,0.0,0.0,-0.05,1.27,2.2,259.49,-27.5,66.1
2.54,0.0,0.0,6.25,5.75,0.0,0.5,5.25,6.5,2.5,4.25,2.75,2.5,0.5,-0.17,0.08,0.95,241.45,9.2,-10.8,2.0,0.0,3.25,0.5,0.0,0.75,0.5,0.75,0.0,0.0,0.0,0.0,0.0,-0.11,0.7,1.89,153.37,-24.4,56.3
2.56,0.0,2.0,6.75,8.25,0.0,0.0,2.25,5.25,2.0,4.5,3.25,2.5,3.25,-0.17,0.08,1.02,352.38,8.9,-8.6,0.5,0.0,3.5,0.75,1.75,1.25,0.0,0.5,0.0,0.75,1.0,0.0,0.25,0.08,0.14,1.45,82.17,-11.4,26.7
2.58,0.0,2.0,6.5,9.0,0.0,1.0,2.5,5.75,2.5,4.5,3.25,2.75,3.25,-0.17,0.08,1.02,519.07,7.9,-8.0,2.0,0.25,0.5,1.75,0.0,1.25,0.0,0.5,0.0,1.5,1.0,0.0,0.75,0.14,-0.05,1.83,40.21,-6.4,10.1
2.6,2.75,2.25,6.0,9.75,0.0,0.5,3.0,6.0,2.25,4.5,3.25,2.75,3.5,-0.17,0.02,0.89,659.24,9.5,-1.9,2.0,0.25,2.75,1.5,1.75,1.25,0.5,0.5,0.0,1.75,1.0,0.25,0.75,0.02,-0.86,1.77,58.37,-10.1,20.4
2.62,3.5,2.5,7.25,10.0,0.0,1.0,3.25,5.75,2.5,4.25,3.25,2.25,3.0,-0.17,0.02,0.95,768.08,11.0,5.2,1.5,0.0,2.25,1.0,1.25,1.0,0.75,0.75,0.0,1.5,1.25,0.0,0.75,-0.05,-0.55,1.14,73.35,-9.1,11.9
2.64,3.5,2.5,8.5,11.0,0.0,2.0,3.5,5.75,2.25,4.0,2.75,1.5,2.5,-0.17,0.02,0.95,820.86,11.6,12.9,2.0,0.0,1.75,1.0,2.25,1.25,1.0,0.75,0.0,1.5,1.25,0.0,0.75,0.02,-0.23,0.77,103.8,-7.4,17.2
2.66,3.75,3.0,8.75,11.0,0.0,1.5,4.0,5.25,1.5,2.75,2.0,1.5,2.0,-0.17,0.08,0.95,833.59,13.8,21.1,1.5,0.0,1.5,0.75,1.75,1.0,1.0,0.75,0.0,1.5,1.25,0.0,0.75,-0.05,0.08,0.52,111.71,-6.5,9.8
2.68,3.5,3.25,9.0,12.5,0.0,0.75,4.0,5.25,1.5,2.75,1.5,0.75,1.75,-0.17,0.08,0.95,833.08,14.7,26.4,1.0,0.0,0.5,0.75,0.0,1.0,1.0,0.75,0.0,0.0,1.25,0.0,0.5,-0.11,0.39,0.45,98.94,-8.6,5.9
2.7,4.25,3.25,9.0,12.5,0.0,1.25,4.0,4.75,1.0,2.0,1.0,1.0,1.5,-0.17,0.08,1.02,816.27,15.7,32.0,0.5,0.0,0.25,0.5,0.0,0.75,0.5,0.75,0.0,0.0,0.25,0.25,0.0,-0.17,0.64,0.14,69.73,-5.5,13.9
2.72,4.25,3.5,9.25,12.5,0.0,1.5,4.25,4.5,1.0,2.25,0.75,0.75,1.0,-0.17,0.14,0.95,794.77,16.1,35.4,1.0,0.0,0.25,0.75,0.0,1.0,0.5,0.75,0.0,0.5,0.0,0.0,0.0,-0.11,0.89,-0.23,54.68,-4.9,28.2
2.74,5.25,3.5,9.25,13.5,0.0,0.5,4.25,3.75,1.0,1.0,0.0,0.5,0.75,-0.17,0.14,1.02,764.78,19.3,45.8,1.0,0.0,0.25,0.75,0.0,1.0,0.5,0.75,0.0,0.25,0.25,0.0,0.0,-0.05,1.2,-0.3,50.58,-6.4,28.4
2.76,5.25,4.0,9.5,14.0,0.0,0.0,4.25,3.25,0.75,0.75,0.0,0.5,0.75,-0.23,0.14,1.14,723.42,20.5,49.1,1.0,0.25,0.25,0.5,0.0,1.0,0.5,0.75,0.0,1.5,0.5,0.5,0.25,-0.05,1.27,-0.23,62.75,-1.6,-9.0
2.78,5.25,0.0,10.5,15.0,0.0,0.0,4.0,3.25,0.75,0.75,0.0,0.5,0.75,-0.23,0.2,1.2,649.59,21.7,44.4,1.25,0.0,0.25,0.5,1.5,0.0,0.5,0.75,0.0,1.5,1.5,0.0,0.75,1.2,6.64,-3.05,82.03,-3.6,-9.1
2.8,5.25,0.0,9.0,15.0,0.0,0.0,3.0,1.5,0.5,1.0,0.0,0.0,0.25,-0.3,0.27,1.2,588.35,23.2,52.4,0.5,0.0,0.0,0.0,0.0,0.5,0.0,0.5,0.0,0.0,0.0,0.0,0.0,0.89,5.64,1.02,60.97,1.9,29.4
2.82,5.25,0.0,10.5,12.5,0.0,0.0,3.25,0.0,0.0,0.75,0.0,0.5,0.5,-0.23,0.27,0.95,523.38,26.3,55.1,0.5,0.0,0.0,0.0,0.0,1.0,0.0,0.5,0.0,0.5,0.0,0.5,0.0,0.08,0.95,0.64,45.74,5.8,-11.6
2.84,5.75,0.0,9.75,14.5,0.0,0.0,3.25,0.0,0.5,1.5,0.0,0.0,0.25,-0.11,0.39,0.89,488.56,25.0,55.2,1.25,0.25,0.25,0.5,1.75,1.25,0.5,0.5,0.0,1.5,1.25,0.5,0.75,0.02,1.39,-1.17,65.33,-1.1,-2.2
2.86,0.0,0.0,9.25,13.5,0.0,0.0,3.25,0.0,0.5,1.0,0.0,0.0,0.0,-0.05,0.89,0.64,423.8,24.2,50.4,1.0,0.25,0.0,0.5,1.75,1.25,0.5,0.75,0.0,1.5,1.0,0.25,0.75,1.39,0.45,-0.8,94.97,1.6,-2.6
2.88,6.0,0.0,8.75,12.0,0.0,0.0,3.75,0.0,0.25,0.0,0.0,0.0,0.0,0.14,1.39,0.27,399.18,28.0,63.8,0.5,0.0,0.0,0.0,0.0,0.75,0.0,0.5,0.0,0.0,0.0,0.0,0.0,0.83,-0.36,-0.11,83.87,4.9,30.1
2.9,0.0,0.0,8.5,11.5,0.0,0.0,3.25,0.0,0.25,0.0,0.0,0.25,0.0,0.02,-0.11,0.64,350.86,26.1,54.1,0.25,0.0,0.0,0.0,0.0,1.0,0.0,0.0,0.0,0.0,0.0,0.0,0.0,0.45,-0.05,0.02,65.73,11.4,46.7
2.92,0.0,0.0,0.0,11.0,0.0,0.0,3.75,0.0,0.25,0.0,0.0,0.0,0.0,-0.05,0.89,0.52,278.86,19.1,52.1,1.25,0.25,0.0,0.5,0.0,1.5,0.0,0.25,0.0,1.5,0.0,0.5,0.0,0.02,0.64,0.02,64.4,0.4,7.2
2.94,0.0,0.0,6.0,10.0,0.0,0.0,3.5,0.0,0.25,0.0,0.0,0.0,0.0,-0.17,1.02,0.33,239.81,25.5,54.8,1.0,0.25,0.0,0.0,1.75,1.0,0.5,0.75,0.0,0.0,1.0,0.0,0.75,-0.23,1.02,-0.17,73.05,-0.3,11.1
2.96,0.0,0.0,7.25,9.25,0.0,0.0,3.25,0.0,0.25,0.0,0.0,0.0,0.0,-0.17,0.89,0.27,219.79,26.6,55.3,1.0,0.25,0.0,0.5,0.0,2.0,0.0,0.5,0.0,1.5,0.0,0.25,0.0,0.02,0.52,0.39,83.14,4.7,8.8
2.98,0.0,0.0,7.25,10.0,0.0,0.0,2.75,0.0,0.25,0.0,0.0,0.5,0.0,-0.11,0.83,0.33,225.29,25.8,51.6,0.5,0.0,0.0,0.0,1.75,1.0,0.5,0.5,0.0,0.0,0.5,0.0,0.75,0.27,1.2,0.33,91.09,3.3,9.5
3.0,0.0,0.0,5.75,8.75,0.0,0.0,1.75,0.0,0.0,0.0,0.0,0.0,0.0,-0.05,1.64,0.2,217.86,25.8,57.4,0.5,0.0,0.0,0.0,0.0,1.0,0.0,0.5,0.0,0.0,0.0,0.0,0.0,0.95,1.64,0.52,72.16,7.1,30.6
3.02,0.0,0.0,3.5,6.0,0.0,0.0,1.0,0.0,0.0,0.0,0.0,0.0,0.0,0.27,3.45,0.7,191.59,25.2,57.5,0.0,0.0,0.0,0.0,0.0,0.25,0.0,0.5,0.0,1.5,0.0,0.0,0.75,1.27,4.58,0.14,58.15,15.9,-69.6
3.04,0.0,0.0,0.75,2.0,0.0,0.0,0.5,0.0,0.0,0.25,0.0,0.0,0.0,0.89,4.08,1.83,121.21,20.6,46.4,0.75,0.0,0.0,0.0,1.75,0.0,0.5,0.5,0.0,1.5,1.5,0.25,0.75,0.52,4.39,2.7,70.27,-0.1,-22.9
3.06,0.0,0.0,1.0,2.0,0.0,0.0,0.0,0.0,0.0,0.0,0.0,0.0,0.0,0.27,0.95,3.2,54.21,24.1,58.9,1.0,0.25,0.0,0.5,0.0,1.0,0.0,0.0,0.0,1.25,0.0,0.75,0.0,0.14,1.64,2.52,70.81,-2.2,0.6
3.08,0.0,0.0,0.0,2.0,0.0,0.0,0.25,0.0,0.0,0.5,0.0,0.0,0.0,-0.98,-1.17,1.45,2.88,11.8,31.9,0.75,0.0,0.0,0.0,1.75,0.0,0.5,0.5,0.0,0.0,0.0,0.0,0.0,0.02,-2.42,-0.92,67.75,-4.9,47.3
3.1,0.0,0.0,0.0,0.0,0.0,0.0,0.0,0.0,0.0,0.0,0.0,0.0,0.0,-1.61,-1.61,-2.3,0.0,0.0,0.0,0.5,0.0,0.0,0.0,0.0,0.5,0.0,0.0,0.0,0.0,0.0,0.0,0.0,0.39,-1.48,-1.17,52.08,-5.8,65.8
3.12,0.0,0.0,0.0,0.0,0.0,0.0,0.0,0.0,0.0,0.0,0.0,0.0,0.0,-1.17,-1.61,-1.92,0.0,0.0,0.0,1.0,0.25,0.0,0.5,0.0,1.25,0.0,0.25,0.0,1.5,0.75,0.5,0.75,0.33,-2.67,-1.11,66.41,1.2,-19.5
3.14,0.0,0.0,0.0,0.0,0.0,0.0,0.0,0.0,0.0,0.0,0.0,0.0,0.0,-0.48,-1.67,-1.36,0.0,0.0,0.0,1.0,0.25,0.0,0.5,1.75,1.0,0.5,0.5,0.0,1.25,1.0,0.25,0.75,0.27,-2.05,-0.3,84.26,0.1,-0.5
3.16,0.0,0.0,0.0,0.0,0.0,0.0,0.0,0.0,0.0,0.0,0.0,0.0,0.0,0.45,-0.23,0.02,0.0,0.0,0.0,0.75,0.25,0.5,0.5,1.75,1.0,0.5,0.5,0.0,1.5,1.0,0.5,0.75,-0.36,0.7,0.64,112.04,-0.8,-4.4
3.18,0.0,0.0,0.0,0.0,0.0,0.0,0.0,0.0,0.0,0.0,0.0,0.0,0.0,1.02,1.33,0.58,0.0,0.0,0.0,0.75,0.25,0.0,0.5,1.5,1.0,0.5,0.75,0.0,1.5,1.0,0.25,0.75,0.08,3.39,-0.42,130.08,1.9,-8.2
3.2,0.0,0.0,0.0,1.0,0.0,0.0,0.0,0.0,0.0,0.0,0.0,0.0,0.0,0.7,2.45,-0.61,0.0,17.2,57.9,0.75,0.25,0.0,0.5,1.5,1.0,0.5,0.75,0.0,1.5,1.0,0.75,1.25,0.27,3.33,-0.55,144.88,2.0,-18.9
3.22,0.0,0.0,0.0,2.0,0.0,0.0,0.0,0.0,0.0,0.0,0.0,0.0,0.5,-0.3,3.45,0.95,0.0,11.1,24.8,0.75,0.25,0.0,0.5,1.5,1.0,0.5,0.5,0.0,1.5,1.0,0.25,0.75,0.02,1.7,-0.23,144.9,1.5,-7.3
3.24,0.0,0.0,0.0,0.25,0.0,0.0,5.25,0.0,0.0,0.0,0.0,0.0,0.0,1.52,2.27,0.2,5.37,30.9,30.2,1.0,0.25,0.0,0.5,1.25,1.0,0.5,0.5,0.0,1.5,1.0,0.5,0.75,-0.23,0.89,-0.11,144.5,0.1,-9.5
3.26,0.0,0.0,0.0,0.25,0.0,0.0,0.0,0.0,0.25,0.0,0.0,0.0,0.0,0.52,1.77,0.39,16.7,14.7,11.1,1.0,0.25,0.0,0.5,1.5,1.0,0.5,0.5,0.0,1.5,1.0,0.5,0.75,0.27,0.89,-0.11,142.0,0.2,-7.4
3.28,0.0,0.0,0.0,2.75,0.0,0.0,0.0,0.0,3.25,1.75,0.0,0.0,0.0,0.2,0.83,0.89,58.91,7.8,-11.3,0.75,0.25,0.0,0.5,1.5,1.0,0.5,0.5,0.0,1.5,1.0,0.5,0.75,0.52,1.08,0.08,140.04,1.2,-10.3
3.3,0.0,0.0,0.0,1.25,0.0,0.0,4.0,0.0,2.5,1.5,0.0,0.0,0.25,0.14,0.64,0.77,85.46,11.7,-14.5,0.75,0.25,0.0,0.5,1.5,1.0,0.5,0.5,0.0,1.5,1.0,0.5,0.5,0.02,1.08,0.95,139.69,0.8,-7.2
3.32,0.0,0.0,0.25,1.75,0.0,0.0,3.75,0.0,2.0,0.25,0.75,0.0,0.25,0.02,0.7,0.52,111.34,17.4,-0.9,0.75,0.25,0.0,0.5,1.25,1.0,0.5,0.5,0.0,1.5,1.0,0.5,0.75,-0.11,1.08,0.64,136.49,1.1,-12.5
3.34,0.0,0.0,0.0,0.25,0.0,0.0,0.0,0.0,0.5,1.0,0.0,0.0,0.0,0.2,0.77,0.58,97.2,-2.9,-45.2,0.75,0.25,0.0,0.5,1.5,1.0,0.5,0.5,0.0,1.5,1.0,0.75,0.75,0.08,1.14,-0.3,134.64,0.9,-13.1
3.36,0.0,0.0,0.0,0.0,0.0,0.0,2.25,0.0,0.0,0.0,0.0,0.0,0.0,0.14,0.7,0.39,74.21,32.4,27.3,1.0,0.25,0.0,0.5,1.0,1.0,0.5,0.5,0.0,1.5,1.0,0.75,0.75,-0.05,1.02,-0.55,127.78,-0.2,-14.5
3.38,0.0,0.0,0.0,2.0,0.0,0.0,0.0,0.0,0.0,0.5,0.0,0.0,0.0,0.14,0.7,0.27,53.47,10.8,32.1,0.75,0.25,0.0,0.5,1.25,1.0,0.5,0.5,0.0,1.5,1.0,0.5,0.75,-0.05,0.83,-0.3,125.16,1.1,-12.5
3.4,0.0,0.0,0.0,0.0,0.0,0.0,0.0,0.0,0.0,0.5,0.0,0.0,0.0,0.27,0.77,0.14,32.54,-15.7,-75.5,0.75,0.25,0.0,0.5,1.5,1.0,0.5,0.5,0.0,1.5,1.0,0.5,0.75,0.14,0.83,-0.3,125.38,1.2,-10.3
3.42,0.25,0.0,0.0,0.25,0.0,0.0,1.0,0.0,0.0,0.5,0.25,0.0,0.25,0.39,0.89,0.14,27.46,9.8,-16.8,0.75,0.25,0.0,0.5,1.0,1.0,0.5,0.5,0.0,1.5,1.0,0.25,0.75,0.08,0.89,-0.23,122.42,1.3,-11.8
3.44,0.0,0.0,0.0,0.0,0.0,0.0,0.0,0.0,0.0,0.0,0.0,0.0,0.0,0.52,0.95,0.02,12.83,0.0,0.0,1.0,0.25,0.0,0.5,0.5,1.0,0.5,0.5,0.0,1.5,1.0,0.75,0.5,-0.05,0.89,-0.36,118.32,-0.9,-16.5
3.46,0.0,0.0,0.0,0.0,0.0,0.0,0.0,0.0,0.25,0.0,0.0,0.0,0.0,0.7,0.89,0.02,3.94,12.1,-38.5,1.0,0.25,0.0,0.5,1.25,1.0,0.5,0.5,0.0,1.25,1.0,0.5,0.75,-0.17,0.95,-0.55,118.95,-0.3,-7.5
3.48,0.0,0.0,0.0,0.25,0.0,0.0,0.25,0.0,0.25,0.0,0.0,0.0,0.0,0.7,0.95,-0.05,0.0,18.1,14.2,0.75,0.25,0.0,0.5,1.75,1.0,0.5,0.5,0.0,1.5,1.0,0.5,0.75,-0.36,0.89,-0.48,122.95,1.2,-8.2
3.5,0.0,0.0,0.0,0.25,0.0,0.0,0.25,0.0,0.25,0.0,0.0,0.0,0.0,0.58,0.95,-0.17,0.0,18.1,14.2,0.75,0.25,0.0,0.5,1.25,1.0,0.5,0.5,0.0,1.5,1.25,0.75,0.75,-0.36,0.89,-0.36,126.33,0.5,-16.9
3.52,0.0,0.0,0.0,0.5,0.0,0.0,0.25,0.0,0.25,0.0,0.0,0.0,0.0,0.45,0.89,-0.17,0.0,17.8,27.0,1.25,0.25,0.0,0.5,1.75,1.0,0.5,1.0,0.0,1.5,1.0,0.25,1.0,-0.23,0.83,-0.36,135.43,0.9,-4.8
3.54,0.0,0.0,0.25,0.0,0.0,0.0,0.0,0.0,2.5,0.0,0.25,0.0,0.0,0.33,0.83,-0.11,10.85,14.3,-32.9,0.75,0.25,0.0,0.5,1.25,1.0,0.5,0.5,0.0,1.5,1.0,0.5,0.75,-0.23,0.77,-0.17,134.22,1.1,-12.5
3.56,0.0,0.0,0.5,0.25,0.0,0.0,0.25,0.0,0.25,0.0,0.0,0.0,0.0,0.2,0.7,-0.11,18.31,27.2,35.2,0.75,0.25,0.0,0.5,1.25,1.0,0.5,0.5,0.0,1.5,1.0,0.5,0.75,-0.05,0.7,-0.17,131.98,1.1,-12.5
3.58,0.0,0.0,0.0,0.0,0.0,0.0,0.0,0.0,0.0,0.0,0.0,0.0,0.0,0.2,0.7,-0.05,18.09,0.0,0.0,0.75,0.25,0.25,0.5,1.0,1.0,0.5,0.5,0.0,1.5,1.0,0.5,0.75,0.02,0.7,-0.23,127.31,-0.1,-12.5
3.6,0.0,0.0,0.0,0.0,0.0,0.0,0.0,0.0,0.0,0.0,0.0,0.0,0.0,0.27,0.64,0.02,9.44,0.0,0.0,0.75,0.25,0.0,0.5,1.5,1.0,0.5,0.5,0.0,1.5,1.0,0.5,0.75,0.08,0.7,-0.23,127.32,1.2,-10.3
3.62,0.0,0.0,0.0,0.0,0.0,0.0,0.0,0.0,0.25,0.0,0.0,0.0,0.0,0.33,0.7,-0.05,3.42,12.1,-38.5,0.75,0.25,0.0,0.5,1.0,1.0,0.5,0.5,0.0,1.5,1.0,0.5,0.75,0.08,0.7,-0.3,124.2,1.0,-14.9
3.64,0.0,0.0,0.0,0.0,0.0,0.0,0.0,0.0,0.0,0.0,0.0,0.0,0.0,0.39,0.77,-0.05,0.34,0.0,0.0,0.75,0.25,0.0,0.5,1.25,1.0,0.5,0.5,0.0,1.5,1.0,0.5,0.75,0.02,0.77,-0.3,124.2,1.1,-12.5
3.66,0.0,0.0,0.0,0.0,0.0,0.0,0.0,0.0,0.0,0.0,0.0,0.0,0.0,0.39,0.89,-0.05,0.0,0.0,0.0,0.75,0.25,0.0,0.5,1.25,1.0,0.5,0.5,0.0,1.5,1.0,0.5,0.75,-0.11,0.89,-0.23,123.91,1.1,-12.5
3.68,0.0,0.0,0.0,0.0,0.0,0.0,0.0,0.0,0.0,0.0,0.0,0.0,0.0,0.39,0.89,-0.05,0.0,0.0,0.0,1.0,0.25,0.0,0.5,1.0,1.0,0.5,0.5,0.0,1.5,1.75,0.5,0.5,0.02,1.02,-0.23,125.18,-1.2,-14.1
3.7,0.0,0.0,0.75,0.0,0.0,0.0,0.0,0.0,0.0,0.0,0.0,0.0,0.0,0.33,0.95,-0.05,2.57,38.2,60.9,1.0,0.25,0.0,0.5,1.0,1.0,0.5,0.5,0.0,1.5,1.0,0.5,0.75,0.08,1.14,-0.36,123.88,0.0,-11.7
3.72,0.0,0.0,0.0,0.0,0.0,0.0,0.0,0.0,0.0,0.0,0.0,0.0,0.0,0.33,1.02,-0.05,0.94,0.0,0.0,1.0,0.25,0.0,0.25,1.5,0.5,0.5,0.5,0.0,1.5,1.0,0.75,0.75,0.02,1.14,-0.36,123.78,-0.7,-14.8
3.74,0.0,0.0,0.0,0.0,0.0,0.0,0.0,0.0,0.25,0.0,0.0,0.0,0.0,0.33,1.08,-0.05,1.69,12.1,-38.5,1.5,0.25,0.0,0.5,0.5,0.5,0.25,0.5,0.0,1.5,1.0,0.5,0.75,-0.05,1.02,-0.36,119.52,-3.2,-13.4
3.76,0.0,0.0,0.0,0.0,0.0,0.0,0.0,0.0,0.0,0.0,0.0,0.0,0.0,0.39,1.14,-0.11,0.0,0.0,0.0,0.75,0.25,0.0,0.5,1.0,1.0,0.5,0.75,0.0,1.5,1.0,0.5,0.75,-0.17,0.95,-0.3,119.11,1.5,-15.6
3.78,0.0,0.0,0.0,0.25,0.0,0.0,0.25,0.0,0.25,0.0,0.0,0.0,0.0,0.45,1.14,-0.17,2.02,18.1,14.2,0.75,0.25,0.0,0.5,1.0,1.0,0.5,0.5,0.0,1.5,1.0,0.5,0.75,-0.17,0.95,-0.36,118.93,1.0,-14.9
3.8,0.0,0.0,0.0,0.25,0.0,0.0,0.0,0.0,0.25,0.0,0.0,0.25,0.0,0.45,1.14,-0.17,6.83,12.8,-28.5,1.0,0.25,0.0,0.5,1.25,1.0,0.5,0.5,0.0,1.5,1.0,0.5,0.5,-0.23,0.89,-0.42,121.01,-0.2,-6.4
3.82,0.0,0.0,0.0,0.0,0.0,0.0,0.0,0.0,0.25,0.0,0.0,0.25,0.0,0.39,1.08,-0.23,10.16,10.5,-74.3,1.25,0.25,0.0,0.5,1.25,1.0,0.5,0.5,0.0,1.5,1.0,0.75,0.75,-0.3,0.83,-0.3,125.72,-0.9,-9.5
3.84,0.0,0.0,0.0,0.25,0.0,0.0,0.0,0.0,0.25,0.0,0.0,0.0,0.0,0.39,1.08,-0.23,10.69,14.7,11.1,0.75,0.25,0.0,0.5,1.25,1.0,0.5,0.5,0.0,1.5,1.0,0.5,0.5,-0.3,0.77,-0.3,125.82,0.7,-9.4
3.86,0.0,0.0,0.0,0.25,0.0,0.0,0.25,0.0,0.25,0.0,0.0,0.25,0.0,0.39,0.95,-0.23,12.19,15.5,-20.9,0.75,0.25,0.0,0.5,1.0,1.0,0.25,0.5,0.0,1.5,1.0,0.75,0.75,-0.3,0.7,-0.23,125.02,1.2,-18.4
3.88,0.0,0.0,0.0,0.25,0.0,0.0,0.0,0.0,0.25,0.0,0.0,0.25,0.0,0.39,0.89,-0.17,12.88,12.8,-28.5,0.75,0.25,0.0,0.5,1.25,1.0,0.5,0.5,0.0,1.5,1.0,0.25,0.75,-0.23,0.7,-0.23,122.57,1.4,-9.5
3.9,0.0,0.0,0.0,0.25,0.0,0.0,0.0,0.0,0.25,0.0,0.0,0.25,0.0,0.39,0.83,-0.11,13.35,12.8,-28.5,0.5,0.25,0.0,0.5,0.5,1.0,0.25,0.5,0.0,1.5,1.0,0.25,0.5,-0.23,0.77,-0.23,113.8,2.6,-18.3
3.92,0.0,0.0,0.0,0.25,0.0,0.0,0.0,0.0,0.25,0.0,0.0,0.25,0.0,0.39,0.7,-0.11,13.36,12.8,-28.5,1.0,0.25,0.0,0.5,1.25,1.0,0.5,0.5,0.0,1.5,1.0,0.5,0.75,-0.23,0.83,-0.23,115.86,0.1,-9.5
3.94,0.0,0.0,0.0,0.25,0.0,0.0,0.0,0.0,0.25,0.0,0.0,0.25,0.0,0.33,0.7,-0.17,13.08,12.8,-28.5,1.0,0.25,0.0,0.5,0.5,1.0,0.25,0.5,0.0,1.5,1.0,0.5,0.5,-0.3,0.89,-0.23,112.82,-0.1,-14.0
3.96,0.0,0.0,0.0,0.25,0.0,0.0,0.25,0.0,0.0,0.0,0.0,0.0,0.0,0.27,0.7,-0.17,11.61,21.9,48.3,0.75,0.25,0.0,0.5,1.0,1.0,0.5,0.5,0.0,1.5,1.0,0.5,0.5,-0.3,0.95,-0.3,114.79,0.6,-11.7
3.98,0.0,0.0,0.0,0.0,0.0,0.0,0.0,0.0,0.0,0.0,0.0,0.0,0.0,0.27,0.77,-0.17,7.2,0.0,0.0,1.0,0.25,0.0,0.5,0.5,1.0,0.25,0.5,0.0,1.5,1.0,0.75,0.75,-0.36,1.02,-0.3,113.83,0.0,-20.2
4.0,0.0,0.0,0.0,0.0,0.0,0.0,0.0,0.0,0.0,0.0,0.0,0.0,0.0,0.33,0.77,-0.17,3.25,0.0,0.0,1.0,0.25,0.0,0.5,0.5,1.0,0.25,0.5,0.0,1.5,1.0,0.5,0.5,-0.36,1.02,-0.36,112.3,-0.1,-14.0
4.02,0.0,0.0,0.0,0.0,0.0,0.0,0.0,0.0,0.0,0.0,0.0,0.0,0.0,0.33,0.83,-0.17,0.0,0.0,0.0,0.75,0.25,0.0,0.5,0.5,1.0,0.25,0.5,0.0,1.5,1.0,0.5,0.5,-0.36,1.08,-0.36,108.34,0.9,-17.7
4.04,0.0,0.0,0.0,0.0,0.0,0.0,0.0,0.0,0.25,0.0,0.0,0.0,0.0,0.33,0.83,-0.17,0.0,12.1,-38.5,1.25,0.25,0.0,0.5,1.5,1.0,0.5,0.5,0.0,1.5,1.0,0.5,0.5,-0.3,1.08,-0.36,115.04,-1.0,-1.7
4.06,0.0,0.0,0.0,0.5,0.0,0.0,0.0,0.0,0.25,0.0,0.0,0.25,0.0,0.33,0.89,-0.17,4.95,13.9,-6.3,0.75,0.25,0.0,0.5,0.5,1.0,0.5,0.5,0.0,1.5,1.0,0.5,0.5,-0.23,1.08,-0.36,113.39,0.4,-17.0
4.08,0.0,0.0,0.0,0.5,0.0,0.0,0.0,0.0,0.25,0.0,0.0,0.25,0.0,0.27,0.95,-0.3,9.99,13.9,-6.3,1.5,0.5,0.25,0.5,1.25,1.0,0.25,0.5,0.0,1.5,1.0,0.5,0.5,-0.23,1.02,-0.3,124.12,-3.0,3.2
4.1,0.0,0.0,0.0,0.5,0.0,0.0,0.0,0.0,0.25,0.0,0.0,0.25,0.0,0.2,0.95,-0.23,14.06,13.9,-6.3,0.75,0.25,0.0,0.5,0.5,1.0,0.5,0.5,0.0,1.5,1.0,0.5,0.5,-0.23,1.02,-0.3,119.89,0.4,-17.0
4.12,0.0,0.0,0.0,0.5,0.0,0.0,0.0,0.0,0.25,0.0,0.0,0.25,0.0,0.14,0.95,-0.23,16.42,13.9,-6.3,0.75,0.25,0.0,0.5,1.25,1.0,0.25,0.5,0.0,1.5,1.0,0.5,0.5,-0.17,1.02,-0.3,121.71,1.2,-9.9
4.14,0.0,0.0,0.25,0.25,0.0,0.0,0.0,0.0,0.25,0.0,0.0,0.5,0.0,0.14,0.95,-0.23,18.74,17.2,-26.3,0.75,0.25,0.0,0.5,0.5,1.0,0.25,0.5,0.0,1.5,1.0,0.5,0.5,-0.17,1.02,-0.3,114.62,0.9,-17.7
4.16,0.0,0.0,0.0,0.25,0.0,0.0,0.0,0.0,0.25,0.0,0.0,0.5,0.0,0.14,0.95,-0.17,19.12,11.8,-48.6,1.0,0.25,0.0,0.5,1.0,1.0,0.25,0.5,0.0,1.5,1.0,0.5,0.5,-0.23,0.95,-0.3,114.93,0.0,-9.1
4.18,0.0,0.0,0.25,0.5,0.0,0.0,0.0,0.0,0.25,0.0,0.0,0.5,0.0,0.14,0.95,-0.17,22.27,17.2,-11.8,1.0,0.25,0.0,0.5,1.0,1.0,0.25,0.5,0.0,1.5,1.0,0.25,0.75,-0.23,0.95,-0.23,115.52,0.8,-9.2
4.2,0.0,0.0,0.5,0.5,0.0,0.0,0.0,0.0,0.25,0.0,0.0,0.5,0.0,0.2,1.02,-0.11,26.43,20.2,-1.3,0.75,0.25,0.0,0.5,0.25,1.0,0.5,0.5,0.0,1.5,1.0,0.5,0.5,-0.3,0.95,-0.23,112.23,0.3,-19.9
4.22,0.0,0.0,0.75,0.5,0.0,0.0,0.0,0.0,0.25,0.0,0.0,0.5,0.0,0.2,1.08,-0.11,31.54,22.5,6.5,0.75,0.25,0.0,0.5,1.0,1.0,0.5,0.5,0.0,1.5,1.0,0.5,0.5,-0.3,0.89,-0.23,113.01,0.6,-11.7
4.24,0.0,0.0,0.5,0.5,0.0,0.0,0.0,0.0,0.25,0.0,0.0,0.5,0.0,0.2,1.14,-0.11,33.16,20.2,-1.3,0.75,0.25,0.0,0.5,1.25,1.0,0.5,0.5,0.0,1.5,1.0,0.5,0.5,-0.3,0.89,-0.23,114.82,0.7,-9.4
4.26,0.0,0.0,0.5,0.25,0.0,0.0,0.0,0.0,0.25,0.0,0.0,0.5,0.0,0.2,1.14,-0.11,32.02,20.8,-11.5,0.5,0.25,0.5,0.5,0.5,1.0,0.25,0.5,0.0,1.5,1.0,0.25,1.25,-0.3,0.89,-0.23,115.82,1.0,-22.1
4.28,0.25,0.0,0.5,0.25,0.0,0.0,0.0,0.0,0.25,0.0,0.0,0.0,0.0,0.2,1.14,-0.05,28.62,28.1,47.6,1.0,0.25,0.0,0.5,1.0,1.0,0.25,0.5,0.0,1.25,1.0,0.5,0.5,-0.36,0.89,-0.3,115.29,-0.4,-6.9
4.3,0.0,0.0,0.0,0.25,0.0,0.0,0.0,0.0,0.25,0.0,0.0,0.5,0.0,0.27,1.14,-0.05,23.56,11.8,-48.6,0.75,0.25,0.0,0.5,1.5,1.0,0.5,0.5,0.0,1.5,1.0,0.5,0.5,-0.36,0.89,-0.3,119.92,0.8,-7.2
4.32,0.0,0.0,0.5,0.5,0.0,0.0,0.0,0.0,0.25,0.0,0.0,0.5,0.0,0.27,1.08,-0.05,24.34,20.2,-1.3,0.75,0.25,0.0,0.5,0.5,1.0,0.25,0.75,0.0,1.5,1.0,0.5,0.5,-0.36,0.89,-0.3,116.25,1.5,-18.4
4.34,0.0,0.0,0.25,0.25,0.0,0.0,0.0,0.0,0.25,0.0,0.0,0.25,0.0,0.27,1.02,-0.11,21.49,19.3,-5.8,0.75,0.25,0.0,0.5,1.0,1.0,0.5,0.75,0.0,1.5,1.0,0.5,0.5,-0.36,0.89,-0.3,118.67,1.1,-12.6
4.36,0.0,0.0,0.5,0.25,0.0,0.0,0.0,0.0,0.25,0.75,0.0,0.5,0.0,0.27,1.02,-0.11,26.47,8.7,-32.6,1.0,0.25,0.0,0.5,0.5,1.0,0.25,0.5,0.0,1.5,1.0,0.5,0.5,-0.36,0.89,-0.3,114.91,-0.1,-14.0
4.38,0.0,0.0,0.25,0.25,0.0,0.0,0.0,0.0,0.25,0.75,0.0,0.5,0.0,0.27,0.95,-0.17,28.78,4.9,-44.6,0.75,0.25,0.0,0.5,0.5,1.0,0.25,0.5,0.0,1.5,1.0,0.5,0.5,-0.36,0.89,-0.3,112.12,0.9,-17.7
4.4,0.0,0.0,0.0,0.25,0.0,0.0,0.25,0.0,0.25,0.25,0.0,0.25,0.0,0.27,0.89,-0.17,27.04,8.5,-33.0,1.0,0.25,0.0,0.5,0.5,1.0,0.25,0.5,0.0,1.5,1.0,0.75,0.5,-0.42,0.95,-0.3,109.9,-0.4,-17.2
4.42,0.0,0.0,0.0,0.75,0.0,0.0,0.25,0.0,0.25,0.0,0.0,0.5,0.0,0.27,0.89,-0.17,25.64,15.0,-9.2,0.75,0.25,0.0,0.5,0.5,1.0,0.25,0.5,0.0,1.5,1.0,0.5,0.5,-0.55,0.89,-0.23,108.03,0.9,-17.7
4.44,0.0,0.0,0.25,0.25,0.0,0.0,0.0,0.0,0.25,0.0,0.0,0.5,0.25,0.27,0.95,-0.17,24.17,12.0,-40.4,1.25,0.25,0.5,0.5,1.5,1.0,0.25,0.5,0.0,1.5,1.0,0.5,0.75,-0.48,0.89,-0.3,119.6,-2.2,-1.6
4.46,0.0,0.0,0.5,0.25,0.0,0.0,0.0,0.0,0.25,0.0,0.0,0.5,0.25,0.27,0.95,-0.11,25.06,15.8,-25.7,0.75,0.25,0.0,0.5,1.25,1.0,0.5,0.5,0.0,1.5,1.0,0.25,0.5,-0.48,0.89,-0.3,120.68,1.0,-6.2
4.48,0.0,0.0,0.0,0.5,0.0,0.0,0.0,0.0,0.25,0.0,0.0,0.5,0.5,0.27,1.02,-0.11,26.81,5.2,-50.6,0.75,0.25,0.0,0.5,1.0,1.0,0.25,0.75,0.0,1.5,1.0,0.5,0.5,-0.48,0.89,-0.3,123.24,1.6,-13.2
4.5,0.0,0.0,0.25,0.25,0.0,0.0,0.0,0.0,0.0,0.0,0.0,0.5,0.25,0.27,1.02,-0.11,26.09,11.9,-40.8,0.75,0.25,0.0,0.5,0.5,1.0,0.5,0.5,0.0,1.5,1.0,0.5,0.5,-0.42,0.89,-0.3,117.49,0.4,-17.0
4.52,0.0,0.0,0.5,0.25,0.0,0.0,0.0,0.0,0.25,0.0,0.0,0.5,0.25,0.27,1.08,-0.11,26.45,15.8,-25.7,1.0,0.25,0.0,0.5,1.25,1.0,0.25,0.5,0.0,1.5,1.0,0.5,0.5,-0.42,0.89,-0.3,118.66,0.2,-6.9
4.54,0.0,0.0,0.5,0.5,0.0,0.0,0.0,0.0,0.25,0.75,0.0,0.5,0.25,0.27,1.08,-0.05,31.78,7.4,-31.3,1.0,0.25,0.0,0.5,1.0,1.0,0.25,0.5,0.0,1.5,1.0,0.25,0.5,-0.42,0.89,-0.3,116.33,0.3,-5.8
4.56,0.0,0.0,0.5,0.5,0.0,0.0,0.0,0.0,0.25,0.25,0.0,0.5,0.25,0.27,1.08,-0.05,34.6,12.5,-21.6,0.75,0.25,0.0,0.5,1.25,1.0,0.25,0.5,0.0,1.5,1.0,0.75,0.5,-0.42,0.89,-0.3,120.06,0.9,-13.0
4.58,0.0,0.0,0.75,0.5,0.0,0.0,0.0,0.0,0.25,0.0,0.0,0.5,0.5,0.27,1.08,-0.05,38.85,15.2,-16.9,1.0,0.25,0.0,0.5,0.5,1.0,0.25,0.5,0.0,1.5,1.0,0.75,0.5,-0.36,0.89,-0.3,118.08,-0.4,-17.2
4.6,0.0,0.0,0.5,0.75,0.0,0.0,0.0,0.0,0.25,0.25,0.0,0.5,0.5,0.2,1.08,-0.11,41.4,10.5,-22.3,0.75,0.25,0.0,0.5,1.25,1.0,0.25,0.5,0.0,1.5,1.0,0.25,0.5,-0.36,0.89,-0.3,118.28,1.5,-6.7
4.62,0.0,0.0,0.5,0.5,0.0,0.0,0.0,0.0,0.25,0.75,0.0,0.5,0.5,0.2,1.08,-0.11,45.99,5.6,-37.9,1.25,0.25,0.0,0.5,1.0,1.0,0.25,0.5,0.0,1.5,1.0,0.5,0.5,-0.42,0.89,-0.3,118.75,-0.9,-6.0
4.64,0.0,0.0,0.5,0.5,0.0,0.0,0.0,0.0,0.25,0.75,0.0,0.5,0.75,0.2,1.08,-0.05,50.62,4.1,-43.5,0.75,0.25,0.0,0.5,0.5,1.0,0.25,0.5,0.0,1.5,1.0,0.5,0.5,-0.42,0.89,-0.3,114.3,0.9,-17.7
4.66,0.0,0.0,0.5,0.5,0.0,0.0,0.0,0.0,0.25,0.75,0.0,0.5,0.25,0.2,1.02,-0.05,50.66,7.4,-31.3,0.75,0.25,0.0,0.5,1.0,1.0,0.5,0.5,0.0,1.5,1.0,0.5,0.5,-0.42,0.89,-0.36,114.09,0.6,-11.7
4.68,0.0,0.0,0.5,0.25,0.0,0.0,0.0,0.0,0.25,0.75,0.0,0.5,0.5,0.27,1.02,-0.11,50.59,4.6,-46.9,0.75,0.25,0.0,0.5,0.5,1.0,0.5,0.5,0.0,1.25,1.0,0.5,0.5,-0.42,0.89,-0.3,108.55,-0.1,-14.9
4.7,0.0,0.0,0.5,0.75,0.0,0.0,0.0,0.0,0.25,0.75,0.0,0.5,0.5,0.2,0.95,-0.11,51.0,6.5,-30.3,0.75,0.25,0.0,0.5,0.5,1.0,0.25,0.75,0.0,1.5,1.0,0.5,0.5,-0.42,0.89,-0.3,109.01,1.5,-18.4
4.72,0.25,0.0,0.5,1.0,0.0,0.0,0.0,0.0,0.25,0.75,0.0,0.5,0.5,0.2,0.95,-0.11,54.87,9.0,-16.4,0.75,0.25,0.0,0.5,0.25,1.0,0.25,0.5,0.0,1.5,1.0,0.5,0.5,-0.42,0.89,-0.3,104.49,0.8,-20.7
4.74,0.25,0.0,0.5,0.5,0.0,0.0,0.0,0.0,0.25,0.75,0.0,0.5,0.5,0.2,0.95,-0.05,55.43,7.7,-28.2,0.75,0.25,0.0,0.5,1.25,1.0,0.25,0.75,0.0,1.5,1.0,0.5,0.5,-0.42,0.89,-0.3,109.98,1.7,-10.8
4.76,0.0,0.0,0.5,0.5,0.0,0.0,0.0,0.0,0.25,0.75,0.0,0.5,0.5,0.2,0.95,-0.05,54.17,5.6,-37.9,0.75,0.25,0.0,0.5,0.25,1.0,0.25,0.5,0.0,1.5,1.0,0.5,0.5,-0.42,0.89,-0.3,106.26,0.8,-20.7
4.78,0.5,0.0,0.5,0.25,0.0,0.0,0.0,0.0,0.25,0.75,0.0,0.5,0.5,0.2,0.95,-0.11,52.2,8.9,-26.1,0.75,0.25,0.0,0.5,1.0,0.5,0.25,0.5,0.0,1.5,1.0,0.5,0.5,-0.42,0.89,-0.3,107.41,-0.2,-15.4
4.8,0.25,0.0,0.5,0.25,0.0,0.0,0.25,0.0,0.25,1.0,0.0,0.5,0.5,0.27,0.95,-0.05,52.41,6.1,-36.4,0.75,0.25,0.0,0.5,1.0,1.0,0.25,0.5,0.0,1.5,0.75,0.5,0.5,-0.42,0.89,-0.3,107.22,1.5,-10.3
4.82,0.25,0.0,0.5,0.25,0.0,0.0,0.5,0.0,0.25,1.0,0.0,0.5,0.5,0.27,1.02,-0.05,52.96,7.0,-34.2,0.75,0.25,0.0,0.5,1.0,1.0,0.25,0.5,0.0,1.5,1.0,0.5,0.5,-0.36,0.89,-0.3,110.36,1.1,-12.3
4.84,0.5,0.0,0.5,0.5,0.0,0.0,0.25,0.0,0.25,0.75,0.0,0.25,0.5,0.27,1.02,-0.11,53.6,10.4,-11.6,0.75,0.25,0.0,0.5,0.0,1.0,0.25,0.75,0.0,1.5,1.0,0.5,0.5,-0.36,0.95,-0.3,106.84,1.3,-24.6
4.86,0.25,0.0,0.5,0.25,0.0,0.0,0.25,0.0,0.25,0.75,0.0,0.0,0.5,0.27,1.02,-0.11,49.76,7.7,-18.9,0.75,0.25,0.0,0.5,1.25,1.0,0.25,0.5,0.0,1.5,1.0,0.5,0.5,-0.36,0.95,-0.3,111.1,1.2,-9.9
4.88,0.0,0.0,0.0,0.0,0.0,0.0,0.0,0.0,0.0,0.25,0.0,0.0,0.0,0.27,1.02,-0.11,33.21,-15.7,-75.5,0.75,0.25,0.0,0.5,0.5,1.0,0.25,0.5,0.0,1.5,1.0,0.5,0.5,-0.36,0.95,-0.3,109.93,0.9,-17.7
4.9,0.0,0.0,0.0,0.0,0.0,0.0,0.0,0.0,0.0,0.0,0.0,0.0,0.0,0.27,1.02,-0.11,16.31,0.0,0.0,1.0,0.25,0.0,0.5,0.5,1.0,0.25,0.5,0.0,1.25,1.0,0.5,0.5,-0.36,0.95,-0.3,109.16,-0.7,-11.9
4.92,0.0,0.0,0.0,0.0,0.0,0.0,0.0,0.0,0.0,0.0,0.0,0.0,0.0,0.27,1.02,-0.11,1.37,0.0,0.0,0.75,0.25,0.0,0.5,0.25,1.0,0.25,0.75,0.0,1.0,1.0,0.5,0.5,-0.36,0.89,-0.3,104.84,0.3,-17.2
4.94,0.0,0.0,0.0,0.0,0.0,0.0,0.0,0.0,0.0,0.0,0.0,0.0,0.0,0.27,1.02,-0.11,0.0,0.0,0.0,1.0,0.25,0.0,0.5,0.5,1.0,0.25,0.75,0.0,1.5,1.0,0.5,0.5,-0.36,0.95,-0.36,106.73,0.4,-14.8
4.96,0.0,0.0,0.0,0.0,0.0,0.0,0.0,0.0,0.0,0.0,0.0,0.0,0.0,0.27,1.02,-0.11,0.0,0.0,0.0,0.75,0.25,0.0,0.5,0.5,0.5,0.25,0.75,0.0,1.25,1.25,0.75,0.5,-0.36,0.95,-0.36,105.24,-1.1,-25.0
4.98,0.0,0.0,0.5,0.0,0.0,0.0,0.0,0.0,0.0,0.0,0.0,0.0,0.0,0.27,0.95,-0.11,0.0,38.2,60.9,1.0,0.25,0.0,0.5,0.5,1.0,0.25,0.75,0.0,1.5,1.0,0.75,0.5,-0.36,0.89,-0.36,109.05,0.1,-17.8
5.0,0.0,0.0,0.5,0.25,0.0,0.0,0.0,0.0,0.25,0.75,0.0,0.5,0.0,0.27,0.95,-0.11,5.17,8.7,-32.6,0.75,0.25,0.0,0.5,0.5,1.0,0.25,0.5,0.0,1.5,1.0,0.5,0.5,-0.36,0.89,-0.36,109.24,0.9,-17.7
5.02,0.0,0.0,0.5,0.25,0.0,0.0,0.0,0.0,0.25,0.75,0.0,0.5,0.0,0.27,0.95,-0.11,16.46,8.7,-32.6,0.75,0.25,0.0,0.5,0.25,1.0,0.5,0.75,0.0,1.5,1.0,0.25,0.5,-0.36,0.89,-0.3,107.69,1.2,-17.4
5.04,0.0,0.0,0.5,0.5,0.0,0.0,0.0,0.0,0.25,0.75,0.0,0.5,0.0,0.27,0.95,-0.11,27.82,9.6,-23.3,0.75,0.25,0.0,0.5,0.5,1.0,0.5,0.75,0.0,1.5,1.0,0.5,0.5,-0.36,0.89,-0.36,107.44,0.9,-17.7
5.06,0.0,0.0,0.5,0.25,0.0,0.0,0.0,0.0,0.25,0.75,0.0,0.5,0.5,0.27,0.95,-0.11,37.26,4.6,-46.9,0.75,0.25,0.0,0.5,0.25,1.0,0.25,0.5,0.0,1.5,1.0,0.5,0.5,-0.36,0.89,-0.36,105.27,0.8,-20.7
5.08,0.0,0.0,0.5,0.5,0.0,0.0,0.0,0.0,0.25,0.75,0.0,0.5,0.5,0.2,1.02,-0.11,45.44,5.6,-37.9,0.75,0.25,0.0,0.5,0.5,1.0,0.25,0.5,0.0,1.5,1.0,0.5,0.5,-0.36,0.89,-0.36,105.44,0.9,-17.7
5.1,0.0,0.0,0.5,0.5,0.0,0.0,0.0,0.0,0.25,0.75,0.0,0.5,0.25,0.2,1.02,-0.11,49.68,7.4,-31.3,0.75,0.25,0.0,0.5,0.25,1.0,0.25,0.5,0.0,1.5,1.0,0.5,0.5,-0.36,0.89,-0.3,102.81,0.8,-20.7
