time,left pressure 0[N/cm²],left pressure 1[N/cm²],left pressure 2[N/cm²],left pressure 3[N/cm²],left pressure 4[N/cm²],left pressure 5[N/cm²],left pressure 6[N/cm²],left pressure 7[N/cm²],left pressure 8[N/cm²],left pressure 9[N/cm²],left pressure 10[N/cm²],left pressure 11[N/cm²],left pressure 12[N/cm²],left acceleration X[g],left acceleration Y[g],left acceleration Z[g],left total force[N],left center of pressure X[mm],left center of pressure Y[mm],right pressure 0[N/cm²],right pressure 1[N/cm²],right pressure 2[N/cm²],right pressure 3[N/cm²],right pressure 4[N/cm²],right pressure 5[N/cm²],right pressure 6[N/cm²],right pressure 7[N/cm²],right pressure 8[N/cm²],right pressure 9[N/cm²],right pressure 10[N/cm²],right pressure 11[N/cm²],right pressure 12[N/cm²],right acceleration X[g],right acceleration Y[g],right acceleration Z[g],right total force[N],right center of pressure X[mm],right center of pressure Y[mm]
0.02,0.0,0.0,0.0,0.75,0.0,0.0,0.0,0.25,0.75,0.5,0.0,0.25,0.75,-0.17,0.14,0.95,52.07,0.6,-43.2,0.0,0.25,0.0,0.0,0.5,0.0,0.25,0.5,0.25,1.5,0.0,0.5,0.75,0.02,0.14,0.95,67.13,6.6,-49.6
0.04,0.0,0.0,0.0,0.75,0.0,0.0,0.0,0.25,0.75,0.75,0.0,0.25,0.75,-0.17,0.14,0.95,53.64,-0.5,-45.5,0.0,0.25,0.0,0.5,0.25,0.0,0.25,0.25,0.0,1.25,0.0,0.25,0.75,0.02,0.14,0.95,63.52,4.5,-38.1
0.06,0.0,0.0,0.0,0.75,0.0,0.0,0.0,0.25,0.75,0.5,0.0,0.0,0.75,-0.17,0.14,0.95,52.39,0.0,-37.8,0.0,0.25,0.0,0.5,0.5,0.0,0.25,0.5,0.25,1.5,0.0,0.25,0.75,0.02,0.14,0.95,65.94,4.8,-34.5
0.08,0.0,0.0,0.0,0.5,0.0,0.0,0.0,0.25,0.75,0.5,0.0,0.25,0.75,-0.17,0.14,0.95,51.51,-0.7,-52.0,0.0,0.25,0.0,0.5,0.25,0.0,0.25,0.5,0.0,1.5,0.0,0.5,0.75,0.02,0.14,0.95,66.59,5.1,-44.2
0.1,0.0,0.0,0.0,0.5,0.0,0.0,0.0,0.25,0.75,0.75,0.0,0.5,0.75,-0.17,0.14,0.95,52.85,-1.1,-57.7,0.0,0.5,0.0,0.5,0.25,0.0,0.25,0.5,0.0,1.5,0.0,0.0,0.75,0.02,0.14,0.95,66.72,5.7,-27.8
0.12,0.0,0.0,0.0,0.5,0.0,0.0,0.0,0.0,0.75,1.0,0.0,0.25,0.75,-0.17,0.14,0.95,53.17,-1.8,-56.5,0.0,0.5,0.0,0.5,0.5,0.0,0.25,0.5,0.25,1.5,0.0,0.25,0.75,0.02,0.14,0.95,69.15,3.9,-27.7
0.14,0.0,0.0,0.0,0.5,0.0,0.0,0.0,0.25,0.75,0.75,0.0,0.5,0.75,-0.17,0.14,0.95,55.21,-1.1,-57.7,0.0,0.25,0.0,0.5,0.25,0.0,0.25,0.5,0.25,1.5,0.0,0.25,0.75,0.02,0.14,0.95,69.82,4.9,-40.3
0.16,0.0,0.0,0.0,0.5,0.0,0.0,0.0,0.25,0.75,0.5,0.0,0.5,0.75,-0.17,0.14,0.95,55.9,0.0,-56.3,0.0,0.25,0.0,0.5,0.25,0.0,0.25,0.5,0.0,1.5,0.0,0.5,0.75,0.02,0.14,0.95,70.8,5.1,-44.2
0.18,0.0,0.0,0.0,0.5,0.0,0.0,0.0,0.25,0.75,0.5,0.0,0.25,0.75,-0.17,0.14,0.95,54.11,-0.7,-52.0,0.0,0.5,0.0,0.5,0.5,0.0,0.25,0.5,0.25,1.25,0.0,0.25,0.75,0.02,0.14,0.95,71.4,3.3,-25.1
0.2,0.0,0.0,0.0,0.5,0.0,0.0,0.0,0.25,0.75,0.5,0.0,0.25,0.75,-0.17,0.14,0.95,52.01,-0.7,-52.0,0.0,0.25,0.0,0.5,0.25,0.0,0.25,0.5,0.0,1.5,0.0,0.25,0.75,0.02,0.14,0.95,69.85,5.9,-40.4
0.22,0.0,0.0,0.0,0.25,0.0,0.0,0.0,0.0,0.75,0.25,0.0,0.5,0.75,-0.17,0.14,0.95,48.31,1.3,-68.1,0.0,0.5,0.0,0.5,0.25,0.0,0.25,0.5,0.0,1.5,0.0,0.75,0.75,0.02,0.14,0.95,72.14,3.5,-40.1
0.24,0.0,0.0,0.0,0.25,0.0,0.0,0.0,0.25,0.75,0.25,0.0,0.25,0.75,-0.17,0.14,0.95,44.92,-1.1,-61.1,0.0,0.5,0.0,1.5,0.25,0.0,0.25,0.25,0.25,1.5,0.0,0.5,0.75,0.02,0.14,0.95,78.04,-0.9,-19.2
0.26,0.0,0.0,0.0,0.5,0.0,0.0,0.0,0.25,0.75,0.75,0.0,0.25,0.75,-0.17,0.14,0.95,45.96,-1.9,-53.8,0.0,0.5,0.0,0.5,0.25,0.0,0.25,0.5,0.0,1.5,0.0,0.25,0.75,0.02,0.14,0.95,76.93,4.8,-32.3
0.28,0.0,0.0,0.0,0.5,0.0,0.0,0.0,0.0,0.75,1.0,0.0,0.25,0.75,-0.17,0.14,0.95,48.54,-1.8,-56.5,0.0,0.25,0.0,0.5,0.25,0.0,0.25,0.5,0.0,0.75,0.0,0.25,0.75,0.02,0.14,0.95,70.09,3.8,-32.8
0.3,0.0,0.0,0.0,0.5,0.0,0.0,0.0,0.25,0.75,1.0,0.0,0.25,0.75,-0.17,0.14,0.95,52.94,-2.8,-55.3,0.0,0.5,0.0,0.5,0.25,0.0,0.25,0.5,0.0,1.0,0.0,0.0,0.75,0.02,0.14,0.95,62.47,4.3,-21.3
0.32,0.0,0.0,0.0,0.5,0.0,0.0,0.0,0.0,0.75,0.75,0.0,0.5,0.75,-0.17,0.14,0.95,54.31,0.0,-59.1,0.0,0.25,0.0,0.5,0.25,0.0,0.25,0.5,0.25,1.25,0.0,0.5,0.75,0.02,0.14,0.95,61.77,3.5,-42.2
0.34,0.0,0.0,0.0,0.5,0.0,0.0,0.0,0.25,0.75,1.0,0.0,0.25,0.75,-0.17,0.14,0.95,56.17,-2.8,-55.3,0.0,0.5,0.0,0.5,0.25,0.0,0.25,0.5,0.0,1.0,0.0,0.0,0.75,0.02,0.14,0.95,58.85,4.3,-21.3
0.36,0.0,0.0,0.0,0.5,0.0,0.0,0.0,0.25,0.75,0.75,0.0,0.25,0.75,-0.17,0.14,0.95,55.74,-1.9,-53.8,0.0,0.25,0.0,1.0,0.25,0.0,0.25,0.5,0.25,1.5,0.0,0.25,0.75,0.02,0.14,0.95,64.01,2.6,-29.9
0.38,0.0,0.0,0.0,0.5,0.0,0.0,0.0,0.25,0.75,0.5,0.0,0.25,0.75,-0.17,0.14,0.95,53.99,-0.7,-52.0,0.0,0.25,0.0,0.5,0.5,0.0,0.25,0.5,0.25,1.25,0.0,0.25,0.75,0.02,0.14,0.95,66.15,4.2,-32.3
0.4,0.0,0.0,0.0,0.0,0.0,0.0,0.0,0.25,0.75,0.25,0.0,0.25,0.75,-0.17,0.14,0.95,48.8,-3.3,-74.8,0.0,0.5,0.0,0.5,0.25,0.0,0.25,0.25,0.25,1.5,0.0,0.25,0.75,0.02,0.14,0.95,67.93,3.2,-32.3
0.42,0.0,0.0,0.0,0.25,0.0,0.0,0.0,0.25,0.5,0.5,0.0,0.5,0.75,-0.17,0.14,0.95,46.99,-2.7,-68.7,0.0,0.25,0.0,0.5,0.25,0.0,0.25,0.5,0.0,1.5,0.0,0.25,0.75,0.02,0.14,0.95,66.6,5.9,-40.4
0.44,0.0,0.0,0.0,0.75,0.0,0.0,0.0,0.25,0.75,0.75,0.0,0.5,0.75,-0.17,0.14,0.95,50.44,0.1,-49.7,0.0,0.5,0.0,0.5,0.5,0.0,0.25,0.5,0.0,0.75,0.0,0.25,0.75,0.02,0.14,0.95,64.82,2.7,-18.0
0.46,0.0,0.0,0.0,0.5,0.0,0.0,0.0,0.25,0.75,0.5,0.0,0.5,0.75,-0.17,0.14,0.95,52.85,0.0,-56.3,0.0,0.0,0.0,0.75,0.25,0.25,0.0,0.5,0.25,1.5,0.0,0.25,0.75,0.02,0.14,0.95,65.54,6.5,-40.4
0.48,0.0,0.0,0.0,0.5,0.0,0.0,0.0,0.25,0.75,0.25,0.0,0.5,0.75,-0.17,0.14,0.95,53.05,1.2,-54.8,0.0,0.5,0.0,0.5,0.25,0.0,0.25,0.5,0.25,1.5,0.0,0.25,0.75,0.02,0.14,0.95,67.82,4.0,-32.6
0.5,0.0,0.0,0.0,0.25,0.0,0.0,0.0,0.25,0.75,0.5,0.0,0.25,0.75,-0.17,0.14,0.95,50.27,-2.4,-62.4,0.0,0.25,0.0,0.5,0.5,0.0,0.0,0.5,0.25,1.5,0.0,0.25,0.75,0.02,0.14,0.95,71.49,5.8,-36.1
0.52,0.0,0.0,0.0,0.5,0.0,0.0,0.0,0.25,0.75,0.25,0.0,0.5,0.75,-0.17,0.14,0.95,48.96,1.2,-54.8,0.0,0.25,0.0,0.5,0.5,0.0,0.25,0.5,0.25,1.5,0.0,0.0,0.75,0.02,0.14,0.95,71.77,5.6,-30.4
0.54,0.0,0.0,0.0,0.5,0.0,0.0,0.0,0.25,0.75,0.5,0.0,0.5,0.75,-0.17,0.14,0.95,49.36,0.0,-56.3,0.0,0.25,0.0,0.5,0.25,0.0,0.25,0.25,0.25,1.5,0.0,0.25,0.75,0.02,0.14,0.95,69.82,4.2,-40.4
0.56,0.0,0.0,0.0,0.5,0.0,0.0,0.0,0.25,0.75,0.5,0.0,0.5,0.75,-0.17,0.14,0.95,51.43,0.0,-56.3,0.0,0.25,0.0,0.5,0.25,0.0,0.25,0.5,0.0,1.75,0.0,0.25,0.75,0.02,0.14,0.95,68.87,6.5,-42.3
0.58,0.0,0.0,0.0,0.5,0.0,0.0,0.0,0.25,0.75,0.5,0.0,0.5,0.75,-0.17,0.14,0.95,53.23,0.0,-56.3,0.0,0.5,0.0,0.5,0.25,0.0,0.0,0.5,0.0,1.25,0.0,0.25,0.75,0.02,0.14,0.95,66.61,5.3,-31.4
0.6,0.0,0.0,0.0,0.5,0.0,0.0,0.0,0.25,0.75,0.25,0.0,0.5,0.75,-0.17,0.14,0.95,52.99,1.2,-54.8,0.0,0.25,0.0,1.0,0.25,0.0,0.25,0.5,0.0,1.5,0.0,0.25,0.75,0.02,0.14,0.95,67.41,3.4,-29.5
0.62,0.0,0.0,0.0,0.25,0.0,0.0,0.0,0.25,0.75,0.5,0.0,0.25,0.75,-0.17,0.14,0.95,50.98,-2.4,-62.4,0.0,0.25,0.0,0.5,0.25,0.0,0.25,0.25,0.25,1.0,0.0,0.25,0.75,0.02,0.14,0.95,64.09,2.7,-35.6
0.64,0.0,0.0,0.0,0.0,0.0,0.0,0.0,0.25,0.75,0.25,0.0,0.5,0.75,-0.17,0.14,0.95,47.71,-2.0,-78.3,0.0,0.5,0.0,0.5,0.25,0.0,0.25,0.5,0.25,1.5,0.0,0.25,0.75,0.02,0.14,0.95,66.46,4.0,-32.6
0.66,0.0,0.0,0.0,0.0,0.0,0.0,0.0,0.25,0.75,0.25,0.0,0.25,0.75,-0.17,0.14,0.95,42.96,-3.3,-74.8,0.0,0.25,0.0,0.75,0.25,0.0,0.25,0.5,0.0,0.75,0.0,0.0,1.0,0.02,0.14,0.95,62.32,3.9,-26.6
0.68,0.0,0.0,0.0,0.5,0.0,0.0,0.0,0.25,0.75,0.0,0.0,0.5,0.75,-0.17,0.14,0.95,41.78,2.7,-52.9,0.0,0.5,0.0,0.5,0.25,0.0,0.0,0.25,0.0,1.25,0.0,0.0,0.75,0.02,0.14,0.95,59.42,5.5,-25.5
0.7,0.0,0.0,0.0,0.5,0.0,0.0,0.0,0.25,0.75,0.25,0.0,0.25,0.5,-0.17,0.14,0.95,40.61,2.0,-43.7,0.0,0.25,0.0,0.75,0.25,0.0,0.25,0.5,0.25,1.0,0.0,0.25,0.75,0.02,0.14,0.95,58.15,2.3,-30.0
0.72,0.0,0.0,0.0,0.25,0.0,0.0,0.0,0.25,0.75,0.25,0.0,0.25,0.75,-0.17,0.14,0.95,40.73,-1.1,-61.1,0.0,0.25,0.0,0.5,0.25,0.0,0.25,0.25,0.0,1.25,0.0,0.0,0.75,0.02,0.14,0.95,55.79,5.5,-33.0
0.74,0.0,0.0,0.0,0.25,0.0,0.0,0.0,0.25,0.75,0.25,0.0,0.5,0.75,-0.17,0.14,0.95,41.85,-0.2,-65.4,0.0,0.25,0.0,0.75,0.25,0.0,0.25,0.5,0.0,0.75,0.0,0.25,0.75,0.02,0.14,0.95,55.07,2.3,-26.4
0.76,0.0,0.0,0.0,0.25,0.0,0.0,0.0,0.25,0.75,0.25,0.0,0.5,0.75,-0.17,0.14,0.95,43.26,-0.2,-65.4,0.0,0.5,0.0,0.5,0.25,0.5,0.25,0.5,0.0,1.25,0.0,0.25,0.75,0.02,0.14,0.95,59.38,6.1,-23.3
0.78,0.0,0.0,0.0,0.25,0.0,0.0,0.0,0.25,0.75,0.25,0.0,0.25,0.75,-0.17,0.14,0.95,42.86,-1.1,-61.1,0.0,0.25,0.0,0.5,0.25,0.0,0.25,0.5,0.25,1.5,0.0,0.25,0.75,0.02,0.14,0.95,63.85,4.9,-40.3
0.8,0.0,0.0,0.0,0.5,0.0,0.0,0.0,0.25,0.75,0.25,0.0,0.25,0.75,-0.17,0.14,0.95,43.54,0.5,-49.9,0.0,0.5,0.0,1.0,0.25,0.0,0.25,0.25,0.0,1.5,0.0,0.5,0.75,0.02,0.14,0.95,69.14,1.2,-26.4
0.82,0.0,0.0,0.0,0.0,0.0,0.0,0.0,0.25,0.75,0.25,0.0,0.25,0.75,-0.17,0.14,0.95,41.92,-3.3,-74.8,0.0,0.5,0.0,0.5,0.5,0.0,0.25,0.5,0.0,1.25,0.0,0.25,0.75,0.02,0.14,0.95,70.9,4.1,-24.4
0.84,0.0,0.0,0.0,0.5,0.0,0.0,0.0,0.25,0.75,0.25,0.0,0.25,0.75,-0.17,0.14,0.95,42.8,0.5,-49.9,0.0,0.25,0.0,0.5,0.25,0.0,0.25,0.25,0.0,1.0,0.0,0.0,0.75,0.02,0.14,0.95,64.73,4.7,-29.7
0.86,0.0,0.0,0.0,0.5,0.0,0.0,0.0,0.25,0.75,0.25,0.0,0.25,0.75,-0.17,0.14,0.95,43.47,0.5,-49.9,0.0,0.25,0.0,0.5,0.25,0.0,0.25,0.5,0.25,1.5,0.0,0.25,0.75,0.02,0.14,0.95,64.96,4.9,-40.3
0.88,0.0,0.0,0.0,0.5,0.0,0.0,0.0,0.25,0.75,0.25,0.0,0.0,0.75,-0.17,0.14,0.95,43.23,-0.2,-44.0,0.0,0.5,0.0,0.75,0.25,0.0,0.25,0.5,0.25,1.5,0.0,0.25,0.75,0.02,0.14,0.95,67.01,2.8,-27.9
0.9,0.0,0.0,0.0,0.25,0.0,0.0,0.0,0.25,0.75,0.25,0.0,0.25,0.75,-0.17,0.14,0.95,42.78,-1.1,-61.1,0.0,0.5,0.0,0.5,0.25,0.0,0.25,0.5,0.25,1.5,0.0,0.5,0.75,0.02,0.14,0.95,72.84,3.3,-36.5
0.92,0.0,0.0,0.0,0.25,0.0,0.0,0.0,0.25,0.75,0.25,0.0,0.25,0.75,-0.17,0.14,0.95,42.05,-1.1,-61.1,0.0,0.5,0.0,0.75,0.25,0.0,0.25,0.5,0.25,1.0,0.0,0.25,0.75,0.02,0.14,0.95,73.26,1.4,-22.6
0.94,0.0,0.0,0.0,0.25,0.0,0.0,0.0,0.25,0.75,0.25,0.0,0.25,0.75,-0.17,0.14,0.95,41.98,-1.1,-61.1,0.0,0.5,0.0,0.5,0.25,0.0,0.25,0.5,0.0,1.25,0.0,0.25,0.75,0.02,0.14,0.95,71.42,4.2,-29.8
0.96,0.0,0.0,0.0,0.5,0.0,0.0,0.0,0.25,0.75,0.25,0.0,0.25,0.75,-0.17,0.14,0.95,42.65,0.5,-49.9,0.0,0.5,0.0,0.5,0.25,0.0,0.25,0.5,0.0,1.5,0.0,0.25,0.75,0.02,0.14,0.95,69.58,4.8,-32.3
0.98,0.0,0.0,0.0,0.25,0.0,0.0,0.0,0.25,0.75,0.25,0.0,0.25,0.75,-0.17,0.14,0.95,42.64,-1.1,-61.1,0.0,0.25,0.0,0.5,0.25,0.0,0.25,0.5,0.0,0.75,0.0,0.0,0.75,0.02,0.14,0.95,61.06,4.8,-26.8
1.0,0.0,0.0,0.0,0.5,0.0,0.0,0.0,0.25,0.75,0.5,0.0,0.25,0.25,-0.17,0.14,0.95,41.92,1.8,-40.1,0.0,0.25,0.0,0.75,0.5,0.0,0.25,0.25,0.25,1.5,0.0,0.5,0.75,0.02,0.14,0.95,63.98,2.4,-33.2
1.02,0.0,0.0,0.0,0.5,0.0,0.0,0.0,0.25,0.75,0.5,0.0,0.25,0.75,-0.17,0.14,0.95,44.24,-0.7,-52.0,0.0,0.5,0.0,1.0,0.25,0.0,0.25,0.5,0.25,0.25,0.0,0.25,0.75,0.02,0.14,0.95,62.76,-2.4,-7.3
1.04,0.0,0.0,0.0,0.5,0.0,0.0,0.0,0.25,0.75,0.25,0.0,0.0,0.75,-0.17,0.14,0.95,43.3,-0.2,-44.0,0.0,0.75,0.0,0.5,0.25,0.0,0.25,0.5,0.25,1.5,0.0,0.25,0.75,0.02,0.14,0.95,68.22,3.1,-25.8
1.06,0.0,0.0,0.0,0.5,0.0,0.0,0.0,0.25,0.75,0.5,0.0,0.25,0.75,-0.17,0.14,0.95,45.96,-0.7,-52.0,0.0,0.25,0.0,0.5,0.25,0.0,0.25,0.5,0.25,1.25,0.0,0.5,0.75,0.02,0.14,0.95,69.35,3.5,-42.2
1.08,0.0,0.0,0.0,0.5,0.0,0.0,0.0,0.25,0.75,0.5,0.0,0.25,0.75,-0.17,0.14,0.95,47.2,-0.7,-52.0,0.0,0.5,0.0,0.5,0.25,0.0,0.25,0.5,0.0,1.25,0.0,0.5,0.75,0.02,0.14,0.95,70.99,3.5,-34.2
1.1,0.0,0.0,0.0,0.5,0.0,0.0,0.0,0.25,0.75,0.75,0.0,0.0,0.75,-0.17,0.14,0.95,49.27,-2.8,-49.2,0.0,0.25,0.0,0.75,0.25,0.0,0.25,0.5,0.25,0.75,0.0,0.25,0.75,0.02,0.14,0.95,65.76,1.4,-27.1
1.12,0.0,0.0,0.0,0.5,0.0,0.0,0.0,0.25,0.75,0.75,0.0,0.25,0.75,-0.17,0.14,0.95,51.54,-1.9,-53.8,0.0,0.5,0.0,0.5,0.25,0.0,0.25,0.5,0.25,1.5,0.0,0.25,0.75,0.02,0.14,0.95,66.92,4.0,-32.6
1.14,0.0,0.0,0.0,0.5,0.0,0.0,0.0,0.25,0.75,0.75,0.0,0.25,0.75,-0.17,0.14,0.95,53.43,-1.9,-53.8,0.25,0.25,0.0,0.5,0.25,0.0,0.25,0.5,0.25,1.25,0.0,0.0,0.75,0.02,0.14,0.95,65.41,2.9,-26.4
1.16,0.0,0.0,0.0,0.5,0.0,0.0,0.0,0.25,0.75,0.5,0.0,0.0,0.5,-0.17,0.14,0.95,50.06,-0.4,-40.4,0.0,0.5,0.0,0.5,0.5,0.0,0.25,0.5,0.0,1.5,0.0,0.25,0.75,0.02,0.14,0.95,68.21,4.7,-27.1
1.18,0.0,0.0,0.0,0.5,0.0,0.0,0.0,0.25,0.75,0.75,0.0,0.0,0.75,-0.17,0.14,0.95,49.32,-2.8,-49.2,0.0,0.5,0.0,0.5,0.25,0.0,0.25,0.5,0.0,0.75,0.0,0.0,0.75,0.02,0.14,0.95,63.44,3.5,-17.4
1.2,0.0,0.0,0.0,0.5,0.0,0.0,0.0,0.25,0.75,0.75,0.0,0.25,0.75,-0.17,0.14,0.95,50.06,-1.9,-53.8,0.0,0.5,0.0,0.5,0.5,0.0,0.25,0.5,0.25,1.5,0.0,0.5,0.75,0.02,0.14,0.95,68.56,3.3,-31.5
1.22,0.0,0.0,0.0,0.5,0.0,0.0,0.0,0.25,0.75,0.5,0.0,0.25,0.75,-0.17,0.14,0.95,50.72,-0.7,-52.0,0.0,0.5,0.0,1.0,0.5,0.0,0.25,0.5,0.25,1.5,0.0,0.25,0.75,0.02,0.14,0.95,73.68,1.9,-19.6
1.24,0.0,0.0,0.0,0.5,0.0,0.0,0.0,0.25,0.75,0.75,0.0,0.0,0.75,-0.17,0.14,0.95,50.68,-2.8,-49.2,0.0,0.5,0.0,0.5,0.25,0.0,0.25,0.25,0.25,1.5,0.0,0.25,0.75,0.02,0.14,0.95,74.04,3.2,-32.3
1.26,0.0,0.0,0.0,0.5,0.0,0.0,0.0,0.25,0.75,0.75,0.0,0.0,0.75,-0.17,0.14,0.95,50.19,-2.8,-49.2,0.0,0.5,0.0,0.5,0.5,0.0,0.25,0.5,0.25,1.25,0.0,0.5,0.75,0.02,0.14,0.95,75.93,2.7,-29.4
1.28,0.0,0.0,0.0,0.5,0.0,0.0,0.0,0.25,0.75,0.75,0.0,0.0,0.75,-0.17,0.14,0.95,49.81,-2.8,-49.2,0.0,0.5,0.0,0.75,0.5,0.0,0.25,0.5,0.0,1.0,0.0,0.25,0.75,0.02,0.14,0.95,73.61,2.3,-16.8
1.3,0.0,0.0,0.0,0.25,0.0,0.0,0.0,0.25,0.75,0.25,0.0,0.25,0.75,-0.17,0.14,0.95,46.41,-1.1,-61.1,0.0,0.25,0.0,0.5,0.5,0.0,0.25,0.5,0.25,1.5,0.0,0.25,0.75,0.02,0.14,0.95,73.5,4.8,-34.5
1.32,0.0,0.0,0.0,0.5,0.0,0.0,0.0,0.25,0.75,0.25,0.0,0.25,0.5,-0.17,0.14,0.95,43.64,2.0,-43.7,0.0,0.5,0.0,0.5,0.25,0.0,0.25,0.5,0.5,1.5,0.0,0.25,0.75,0.02,0.14,0.95,73.82,3.1,-32.9
1.34,0.0,0.0,0.0,0.5,0.0,0.0,0.0,0.25,0.75,0.25,0.0,0.25,0.75,-0.17,0.14,0.95,42.68,0.5,-49.9,0.0,0.5,0.0,0.5,0.5,0.0,0.0,0.5,0.25,1.5,0.0,0.25,0.75,0.02,0.14,0.95,75.1,4.8,-29.0
1.36,0.0,0.0,0.0,0.5,0.0,0.0,0.0,0.25,0.75,0.25,0.0,0.0,0.75,-0.17,0.14,0.95,40.96,-0.2,-44.0,0.0,0.25,0.0,0.25,0.25,0.0,0.25,0.5,0.0,1.5,0.0,0.25,0.75,0.02,0.14,0.95,71.1,7.5,-46.9
1.38,0.0,0.0,0.0,0.25,0.0,0.0,0.0,0.25,0.75,0.5,0.0,0.5,0.75,-0.17,0.14,0.95,44.04,-1.5,-66.3,0.0,0.5,0.0,0.5,0.25,0.0,0.25,0.5,0.0,0.75,0.0,0.25,0.75,0.02,0.14,0.95,65.54,2.7,-23.6
1.4,0.0,0.0,0.0,0.25,0.0,0.0,0.0,0.25,0.75,0.25,0.0,0.5,0.75,-0.17,0.14,0.95,45.46,-0.2,-65.4,0.0,0.25,0.0,0.5,0.25,0.0,0.25,0.5,0.0,0.75,0.0,0.0,0.75,0.02,0.14,0.95,57.07,4.8,-26.8
1.42,0.0,0.0,0.0,0.5,0.0,0.0,0.0,0.25,0.75,0.25,0.0,0.5,0.75,-0.17,0.14,0.95,47.32,1.2,-54.8,0.0,0.5,0.0,0.5,0.25,0.0,0.25,0.5,0.25,1.5,0.0,0.25,0.75,0.02,0.14,0.95,58.9,4.0,-32.6
1.44,0.0,0.0,0.0,0.25,0.0,0.0,0.0,0.25,0.75,0.5,0.0,0.5,0.75,-0.17,0.14,0.95,48.63,-1.5,-66.3,0.0,0.25,0.0,0.5,0.25,0.0,0.25,0.5,0.25,0.75,0.0,0.25,0.75,0.02,0.14,0.95,55.85,2.7,-33.1
1.46,0.0,0.0,0.0,0.0,0.0,0.0,0.0,0.25,0.75,0.5,0.0,0.5,0.75,-0.17,0.14,0.95,49.46,-3.3,-78.1,0.0,0.5,0.0,0.5,0.5,0.0,0.25,0.5,0.25,1.0,0.0,0.25,0.75,0.02,0.14,0.95,60.59,2.6,-22.4
1.48,0.0,0.0,0.0,0.0,0.0,0.0,0.0,0.0,0.75,0.25,0.0,0.5,0.75,-0.17,0.14,0.95,46.46,-0.4,-82.7,0.0,0.25,0.0,0.5,0.25,0.0,0.25,0.5,0.0,1.25,0.0,0.25,0.75,0.02,0.14,0.95,60.99,5.3,-38.1
1.5,0.0,0.0,0.0,0.5,0.0,0.0,0.0,0.25,0.75,0.5,0.0,0.5,0.75,-0.17,0.14,0.95,48.48,0.0,-56.3,0.0,0.25,0.0,0.5,0.25,0.0,0.25,0.5,0.0,1.5,0.0,0.25,0.75,0.02,0.14,0.95,62.83,5.9,-40.4
1.52,0.0,0.0,0.0,0.5,0.0,0.0,0.0,0.25,0.75,0.25,0.0,0.5,0.75,-0.17,0.14,0.95,49.12,1.2,-54.8,0.0,0.5,0.0,0.5,0.25,0.0,0.25,0.5,0.0,1.0,0.0,0.25,0.75,0.02,0.14,0.95,61.08,3.5,-26.9
1.54,0.0,0.0,0.0,0.5,0.0,0.0,0.0,0.25,0.75,0.5,0.0,0.25,0.75,-0.17,0.14,0.95,50.61,-0.7,-52.0,0.0,0.0,0.0,0.5,0.25,0.0,0.25,0.5,0.0,1.5,0.0,0.25,0.75,0.02,0.14,0.95,61.65,7.1,-49.5
1.56,0.0,0.0,0.0,0.5,0.0,0.0,0.0,0.25,0.75,0.5,0.0,0.5,0.75,-0.17,0.14,0.95,52.13,0.0,-56.3,0.0,0.5,0.0,0.5,0.25,0.25,0.25,0.5,0.0,0.75,0.0,0.0,0.75,0.02,0.14,0.95,59.71,4.7,-14.2
1.58,0.0,0.0,0.0,0.5,0.0,0.0,0.0,0.25,0.75,0.25,0.0,0.5,0.75,-0.17,0.14,0.95,52.04,1.2,-54.8,0.0,0.25,0.0,0.5,0.25,0.0,0.25,0.5,0.0,1.5,0.0,0.25,0.75,0.02,0.14,0.95,61.85,5.9,-40.4
1.6,0.0,0.0,0.0,0.25,0.0,0.0,0.0,0.25,0.75,0.5,0.0,0.5,0.75,-0.17,0.14,0.95,51.93,-1.5,-66.3,0.0,0.5,0.0,0.5,0.25,0.0,0.25,0.5,0.0,1.5,0.0,0.0,0.75,0.02,0.14,0.95,63.0,5.7,-27.8
1.62,0.0,0.0,0.0,0.25,0.0,0.0,0.0,0.25,0.75,0.25,0.0,0.5,0.75,-0.17,0.14,0.95,49.76,-0.2,-65.4,0.0,0.0,0.0,1.0,0.25,0.0,0.25,0.5,0.25,1.0,0.0,0.0,0.75,0.02,0.14,0.95,63.01,2.6,-27.6
1.64,0.0,0.0,0.0,0.25,0.0,0.0,0.0,0.0,0.75,0.25,0.0,0.5,0.75,-0.17,0.14,0.95,47.46,1.3,-68.1,0.0,0.5,0.0,0.5,0.25,0.0,0.25,0.5,0.25,1.5,0.0,0.25,0.75,0.02,0.14,0.95,65.83,4.0,-32.6
1.66,0.0,0.0,0.0,0.5,0.0,0.0,0.0,0.25,0.75,0.25,0.0,0.25,0.75,-0.17,0.14,0.95,45.44,0.5,-49.9,0.0,0.5,0.0,1.0,0.25,0.0,0.0,0.25,0.0,1.25,0.0,0.25,0.75,0.02,0.14,0.95,66.08,1.9,-20.3
1.68,0.0,0.0,0.0,0.5,0.0,0.0,0.0,0.25,0.75,0.25,0.0,0.5,0.75,-0.17,0.14,0.95,46.12,1.2,-54.8,0.0,0.5,0.0,0.5,0.25,0.0,0.0,0.25,0.25,1.25,0.0,0.0,0.75,0.02,0.14,0.95,64.87,4.3,-26.4
1.7,0.0,0.0,0.0,0.5,0.0,0.0,0.0,0.25,0.75,0.25,0.0,0.5,0.75,-0.17,0.14,0.95,47.53,1.2,-54.8,0.0,0.25,0.0,0.5,0.25,0.0,0.25,0.0,0.25,0.75,0.0,0.0,0.75,0.02,0.14,0.95,57.15,1.4,-25.8
1.72,0.0,0.0,0.0,0.5,0.0,0.0,0.0,0.25,0.75,0.25,0.0,0.5,0.75,-0.17,0.14,0.95,48.81,1.2,-54.8,0.0,0.25,0.0,0.5,0.5,0.0,0.0,0.0,0.25,1.0,0.0,0.25,0.75,0.02,0.14,0.95,54.51,2.9,-30.4
1.74,0.0,0.0,0.0,0.5,0.0,0.0,0.0,0.25,0.75,0.25,0.0,0.5,0.75,-0.17,0.14,0.95,48.99,1.2,-54.8,0.0,0.25,0.0,0.5,0.25,0.0,0.0,0.0,0.0,1.25,0.0,0.0,0.75,0.02,0.14,0.95,49.6,6.1,-34.8
1.76,0.0,0.0,0.0,0.25,0.0,0.0,0.0,0.25,0.75,0.25,0.0,0.5,0.75,-0.17,0.14,0.95,48.5,-0.2,-65.4,0.0,0.0,0.0,0.5,0.25,0.0,0.0,0.0,0.0,1.5,0.0,0.25,0.5,0.02,0.14,0.95,48.46,6.6,-49.1
1.78,0.0,0.0,0.0,0.25,0.0,0.0,0.0,0.25,0.75,0.25,0.0,0.25,0.75,-0.17,0.14,0.95,45.96,-1.1,-61.1,0.0,0.0,0.0,0.5,0.25,0.0,0.0,0.0,0.25,1.5,0.0,0.25,0.0,-0.05,0.14,0.95,45.23,3.6,-37.1
1.8,0.0,0.0,0.0,0.0,0.0,0.0,0.0,0.0,0.75,0.25,0.0,0.0,0.75,-0.17,0.14,0.95,39.71,-3.1,-75.0,0.0,0.0,0.0,0.5,0.25,0.0,0.0,0.0,0.0,1.5,0.0,0.0,0.0,-0.05,0.14,0.95,40.5,6.7,-29.1
1.82,0.0,0.0,0.0,0.25,0.0,0.0,0.0,0.25,0.75,0.25,0.0,0.0,0.75,-0.17,0.14,0.95,36.99,-2.2,-55.7,0.25,0.25,0.0,0.5,0.25,0.0,0.0,0.0,0.0,1.5,0.0,0.0,0.5,-0.05,0.14,0.95,40.55,3.3,-22.7
1.84,0.0,0.0,0.0,0.0,0.0,0.0,0.0,0.25,0.75,0.25,0.0,0.5,0.75,-0.17,0.14,0.95,37.18,-2.0,-78.3,0.0,0.0,0.0,0.5,0.25,0.0,0.0,0.0,0.0,0.25,0.0,0.25,0.25,0.02,0.14,0.89,33.23,-1.7,-18.2
1.86,0.0,0.0,0.0,0.25,0.0,0.0,0.0,0.25,0.75,0.25,0.0,0.5,0.75,-0.17,0.14,0.95,40.45,-0.2,-65.4,0.0,0.0,0.0,0.75,0.25,0.0,0.0,0.0,0.0,1.0,0.0,0.25,0.5,0.02,0.14,0.95,34.79,2.8,-34.6
1.88,0.0,0.0,0.0,0.0,0.0,0.0,0.0,0.25,0.75,0.25,0.0,0.0,0.75,-0.17,0.14,0.95,39.14,-4.8,-70.5,0.0,0.25,0.0,0.5,0.25,0.0,0.0,0.0,0.0,0.0,0.0,0.25,0.0,-0.05,0.14,0.95,27.4,-10.2,33.3
1.9,0.0,0.0,0.0,0.0,0.0,0.0,0.0,0.25,0.75,0.25,0.0,0.0,0.75,-0.17,0.14,0.95,37.16,-4.8,-70.5,0.0,0.5,0.0,0.5,0.25,0.0,0.0,0.0,0.0,0.25,0.0,0.0,0.0,-0.05,0.14,0.95,26.3,-6.7,49.3
1.92,0.0,0.0,0.0,0.0,0.0,0.0,0.0,0.25,0.75,0.25,0.0,0.0,0.75,-0.17,0.14,0.95,34.2,-4.8,-70.5,0.0,0.25,0.0,0.25,0.25,0.0,0.0,0.0,0.0,1.25,0.0,0.0,0.25,-0.05,0.14,0.95,26.18,7.0,-28.7
1.94,0.0,0.0,0.0,0.0,0.0,0.0,0.0,0.25,0.75,0.0,0.0,0.5,0.75,-0.17,0.14,0.95,34.51,-0.5,-78.6,0.0,0.25,0.0,0.5,0.25,0.0,0.0,0.0,0.25,0.0,0.0,0.25,0.0,-0.05,0.14,0.95,25.86,-10.5,22.0
1.96,0.0,0.0,0.0,0.0,0.0,0.0,0.0,0.0,0.75,0.0,0.0,0.5,0.75,-0.17,0.14,0.95,34.33,1.4,-83.6,0.0,0.0,0.0,0.0,0.5,0.0,0.0,0.0,0.0,1.25,0.0,0.0,0.25,0.02,0.14,0.95,26.95,12.0,-43.9
1.98,0.0,0.0,0.25,0.0,0.0,0.0,0.0,0.25,0.75,0.0,0.0,0.0,0.75,-0.17,0.14,0.95,34.23,2.0,-53.1,0.0,0.25,0.0,0.5,0.25,0.0,0.0,0.0,0.0,1.25,0.0,0.0,0.0,-0.05,0.14,0.95,29.72,3.5,-9.9
2.0,0.0,0.0,0.5,0.25,0.0,0.0,0.0,0.25,0.75,0.0,0.0,0.0,0.75,-0.17,0.14,0.95,35.59,7.2,-30.1,0.0,0.25,0.0,0.25,0.25,0.0,0.0,0.0,0.0,0.75,0.0,0.25,0.25,-0.05,0.02,0.95,31.0,3.0,-27.1
2.02,0.0,0.0,0.25,0.0,0.0,0.0,0.0,0.0,0.75,0.25,0.0,0.0,0.75,-0.17,0.14,0.95,34.96,2.1,-57.7,0.0,0.25,0.0,0.5,0.25,0.0,0.0,0.0,0.0,1.5,0.0,0.0,0.5,-0.05,0.14,0.95,36.86,6.2,-31.9
2.04,0.0,0.0,0.25,0.25,0.0,0.0,0.0,0.25,0.75,0.25,0.0,0.0,0.75,-0.17,0.14,0.95,36.93,1.8,-43.8,0.0,0.25,0.0,0.5,0.25,0.0,0.0,0.0,0.0,1.0,0.0,0.25,0.25,-0.05,0.14,0.95,39.42,2.2,-23.1
2.06,0.0,0.0,0.5,0.0,0.0,0.0,0.0,0.25,0.75,0.0,0.0,0.0,0.75,-0.17,0.14,0.95,36.2,6.1,-40.2,0.0,0.25,0.0,0.5,0.25,0.0,0.0,0.0,0.0,1.25,0.0,0.25,0.5,-0.05,0.14,0.95,44.15,4.2,-34.6
2.08,0.0,0.0,0.25,0.0,0.0,0.0,0.0,0.25,0.75,0.0,0.0,0.0,0.75,-0.17,0.14,0.95,35.42,2.0,-53.1,0.0,0.25,0.0,0.5,1.0,0.0,0.0,0.0,0.0,1.5,0.0,0.5,0.5,-0.05,0.14,0.95,54.43,3.9,-23.9
2.1,0.0,0.0,0.25,0.0,0.0,0.0,0.0,0.25,0.75,0.0,0.0,0.0,0.75,-0.17,0.14,0.95,34.12,2.0,-53.1,0.0,0.0,0.0,0.5,1.0,0.0,0.0,0.0,0.0,1.5,0.0,0.25,1.0,-0.05,0.14,0.95,63.31,6.7,-36.1
2.12,0.0,0.0,0.25,0.0,0.0,0.0,0.0,0.0,0.75,0.0,0.0,0.0,0.5,-0.17,0.14,0.95,30.74,7.8,-45.9,0.0,0.0,0.0,0.5,0.25,0.0,0.0,0.0,0.0,1.5,0.0,0.5,1.0,0.02,0.14,0.95,69.17,6.5,-61.2
2.14,0.0,0.0,0.5,0.25,0.0,0.0,0.0,0.25,0.75,0.25,0.0,0.0,0.75,-0.17,0.14,0.95,33.72,5.2,-34.2,0.25,0.5,0.0,0.5,0.25,0.0,0.0,0.25,0.0,1.5,0.0,0.75,1.0,0.02,0.14,0.95,76.03,2.4,-38.9
2.16,0.0,0.0,0.0,0.0,0.0,0.0,0.0,0.25,0.75,0.25,0.0,0.25,0.75,-0.17,0.14,0.95,35.44,-3.3,-74.8,0.25,0.5,0.0,0.5,0.25,0.0,0.0,0.5,0.0,2.5,0.5,1.0,1.25,-0.05,0.14,0.95,93.36,3.8,-51.2
2.18,0.0,0.0,0.0,0.0,0.0,0.0,0.0,0.25,0.75,0.25,0.0,0.5,0.75,-0.17,0.14,0.95,39.97,-2.0,-78.3,0.0,0.0,0.0,0.25,0.25,0.0,0.0,0.5,0.25,2.75,0.5,1.0,1.75,0.02,0.14,0.95,110.93,7.5,-75.0
2.2,0.0,0.0,0.5,0.0,0.0,0.0,0.0,0.0,0.75,0.25,0.0,0.0,0.75,-0.17,0.14,0.95,39.98,6.2,-44.3,0.0,0.25,0.0,0.5,0.25,0.0,0.0,0.5,0.0,4.0,0.75,1.5,1.75,-0.05,0.08,0.89,135.92,6.6,-69.5
2.22,0.0,0.0,0.5,0.25,0.0,0.0,0.0,0.25,0.75,0.25,0.0,0.25,0.75,-0.17,0.14,0.95,43.71,5.5,-40.4,0.0,0.25,0.0,0.5,0.25,0.0,0.0,0.5,0.5,3.75,1.75,2.25,2.75,0.02,0.14,0.95,169.26,4.0,-74.3
2.24,0.0,0.0,0.5,0.25,0.0,0.0,0.0,0.25,0.75,0.5,0.0,0.5,0.75,-0.17,0.14,0.95,48.5,4.2,-47.7,0.0,0.5,0.0,0.5,0.25,0.0,0.0,0.75,0.75,5.5,1.75,2.75,3.5,0.02,0.14,0.95,212.15,5.0,-73.4
2.26,0.0,0.0,0.5,0.0,0.0,0.0,0.0,0.0,1.0,0.5,0.0,0.0,0.75,-0.17,0.14,0.95,50.0,4.8,-46.6,0.0,0.0,0.0,0.5,0.5,0.0,0.0,1.75,0.5,6.0,3.75,3.75,4.5,0.02,0.08,0.89,264.79,4.7,-78.3
2.28,0.0,0.0,0.25,0.0,0.0,0.0,0.0,0.0,0.75,0.75,0.0,0.0,0.75,-0.11,0.14,0.95,49.12,-1.3,-61.2,0.0,0.0,0.0,0.5,0.25,0.0,0.0,2.0,0.75,6.25,4.0,4.25,5.25,0.02,0.08,0.95,314.2,4.6,-80.7
2.3,0.0,0.0,0.25,0.0,0.0,0.0,0.0,0.25,1.0,1.25,0.0,0.5,1.0,-0.17,0.14,0.95,57.55,-2.7,-68.8,0.0,0.0,0.0,0.5,0.25,0.0,0.0,2.25,0.0,7.0,5.0,5.25,5.75,0.02,0.14,0.95,370.66,4.6,-82.9
2.32,0.0,0.0,0.0,0.25,0.0,0.0,0.0,0.25,1.0,1.25,0.0,1.5,1.75,-0.17,0.14,0.95,76.31,-3.0,-80.9,0.0,0.0,0.0,0.5,0.5,0.0,0.0,2.25,0.75,7.25,5.75,5.5,6.5,0.02,0.08,0.95,425.55,4.0,-81.1
2.34,0.0,0.0,0.0,0.25,0.0,0.0,0.0,0.5,1.0,1.5,0.0,1.5,2.0,-0.17,0.14,0.95,97.64,-4.4,-80.2,0.0,0.25,0.0,0.5,0.25,0.5,0.0,2.5,0.5,7.5,6.0,5.75,6.75,0.02,0.08,0.95,476.9,4.4,-79.4
2.36,0.0,0.0,0.0,0.5,0.0,0.0,0.0,1.25,1.0,2.75,0.0,2.5,2.0,-0.17,0.08,0.95,131.3,-4.8,-75.9,0.0,0.0,0.0,0.5,0.25,0.25,0.0,2.5,1.0,7.75,6.0,5.75,7.25,0.02,0.08,0.95,514.55,4.4,-81.6
2.38,0.0,0.0,0.0,0.5,0.0,0.0,0.0,1.75,1.25,2.75,0.0,2.5,3.25,-0.17,0.08,0.95,165.74,-5.9,-77.2,0.0,0.5,0.0,1.5,0.5,0.0,0.0,3.0,1.0,7.75,6.25,5.75,7.25,0.02,0.08,0.95,545.16,3.4,-73.4
2.4,0.0,0.0,0.0,0.5,0.0,0.0,0.0,2.0,1.25,3.0,0.0,3.5,3.25,-0.17,0.08,0.95,199.34,-5.2,-78.8,0.0,0.25,0.0,0.5,0.25,0.5,0.0,3.25,1.0,8.0,7.0,5.75,7.25,0.02,0.08,0.95,564.45,4.3,-78.2
2.42,0.0,0.0,0.0,0.75,0.0,0.0,0.0,2.0,1.5,3.75,1.0,3.5,4.25,-0.17,0.08,0.95,235.41,-4.7,-77.7,0.0,0.75,0.0,0.75,0.5,1.0,0.0,3.5,1.0,7.75,7.0,5.75,7.25,0.08,0.08,0.95,579.4,4.1,-71.8
2.44,0.0,0.0,0.0,0.75,0.0,0.0,0.0,2.0,1.75,4.5,1.75,3.75,4.5,-0.17,0.08,0.95,269.8,-4.2,-77.8,0.0,0.0,0.0,0.5,0.5,0.5,0.25,3.5,1.0,7.5,6.5,5.75,6.75,0.08,0.08,0.95,568.26,4.3,-77.4
2.46,0.0,0.0,0.0,1.25,0.0,0.0,0.0,2.25,1.75,4.5,2.0,4.5,4.5,-0.17,0.08,0.95,298.69,-3.2,-75.1,0.0,0.25,0.0,1.0,0.5,0.5,0.25,3.25,0.25,7.5,5.75,5.5,6.75,0.08,0.08,0.95,542.01,4.5,-74.7
2.48,0.0,0.0,0.0,1.0,0.0,0.0,0.0,2.75,1.75,4.5,2.0,4.5,5.0,-0.17,0.08,0.95,326.95,-4.0,-76.7,0.0,0.5,0.0,0.75,0.5,0.5,0.25,3.0,0.75,6.5,5.75,5.5,6.5,0.08,0.08,0.95,504.79,3.7,-73.7
2.5,0.0,0.0,0.0,1.25,0.0,0.0,0.0,3.5,1.5,4.5,2.5,4.5,5.5,-0.17,0.08,0.95,353.03,-4.3,-75.1,0.0,0.25,0.0,0.0,0.5,1.25,0.25,2.5,1.25,7.0,5.75,5.25,6.25,0.08,0.08,0.95,473.13,4.6,-75.5
2.52,0.0,0.0,0.0,1.0,0.0,0.0,0.0,3.75,1.75,4.5,2.5,4.5,5.5,-0.17,0.08,0.95,368.13,-4.5,-75.8,0.0,0.5,0.5,1.25,0.5,1.25,0.25,2.5,1.5,6.75,5.75,5.0,5.75,0.08,0.08,0.95,454.55,2.6,-65.2
2.54,0.0,0.0,0.0,1.25,0.0,0.0,0.0,3.75,1.75,4.5,2.75,4.5,5.5,-0.17,0.08,0.95,376.88,-4.1,-74.3,0.25,0.5,0.0,0.75,0.5,1.0,0.5,2.25,1.0,6.25,5.0,4.25,5.25,0.08,0.08,0.95,419.98,3.5,-67.2
2.56,0.0,0.0,0.0,1.25,0.0,0.0,0.0,3.75,1.75,4.5,2.75,4.5,5.5,-0.17,0.08,0.95,379.11,-4.1,-74.3,0.5,0.5,1.0,1.0,0.5,0.75,0.5,2.25,1.0,6.0,4.5,4.0,5.0,0.08,0.08,0.95,391.75,1.3,-59.6
2.58,0.0,0.0,0.0,1.0,0.0,0.0,0.0,3.75,1.75,4.5,2.5,4.75,5.5,-0.17,0.08,0.95,376.85,-4.3,-76.1,0.5,0.5,1.25,0.75,0.5,1.25,0.75,2.25,1.5,5.25,4.0,3.75,3.75,0.08,0.08,0.95,360.34,0.4,-53.3
2.6,0.0,0.0,0.0,1.25,0.0,0.0,0.0,3.75,1.75,4.5,2.0,4.5,5.25,-0.17,0.08,0.95,365.98,-4.4,-73.9,0.5,0.5,1.5,0.75,0.5,1.5,0.75,2.25,1.0,6.0,4.0,3.25,3.5,0.08,0.08,0.95,338.12,1.0,-50.6
2.62,0.0,0.0,0.0,1.75,0.0,0.0,0.0,3.75,2.0,4.5,2.0,4.5,5.0,-0.17,0.08,0.95,357.14,-3.7,-70.2,0.5,0.5,1.5,0.5,0.5,1.25,0.75,2.25,1.5,4.75,4.0,2.5,2.75,0.08,0.08,0.95,308.46,-0.1,-47.1
2.64,0.0,0.0,0.0,1.75,0.0,0.0,0.25,3.75,2.0,4.5,2.0,4.0,4.5,-0.17,0.08,0.95,343.63,-3.5,-67.9,0.75,0.5,2.5,1.5,0.5,0.75,1.0,2.25,1.25,4.5,3.0,2.5,2.5,0.08,0.08,0.95,291.3,-3.4,-35.2
2.66,0.0,0.0,0.5,1.75,0.0,0.0,0.0,4.0,2.0,4.5,2.0,3.5,4.5,-0.17,0.08,0.95,331.77,-3.2,-64.3,0.75,0.5,4.0,1.75,1.0,0.75,1.25,2.25,1.25,4.25,3.0,2.25,1.75,0.02,0.14,0.95,283.0,-6.4,-22.1
2.68,0.0,0.0,0.5,1.75,0.0,0.0,0.25,3.75,1.75,4.5,1.75,3.5,4.5,-0.17,0.08,0.95,319.5,-3.2,-64.2,0.75,0.75,4.0,1.25,0.5,1.25,1.25,2.0,1.25,3.75,2.75,2.0,1.75,0.02,0.14,0.95,276.72,-6.5,-20.5
2.7,0.0,0.0,0.5,1.75,0.0,0.0,0.25,3.75,2.0,3.25,1.0,2.5,3.5,-0.17,0.08,0.95,293.74,-2.7,-57.7,0.75,0.5,4.75,1.0,1.25,1.0,1.25,1.25,1.5,3.5,2.0,1.5,1.5,0.02,0.14,0.95,269.92,-8.6,-11.4
2.72,0.0,0.0,0.5,1.75,0.0,0.0,0.25,3.75,1.75,2.75,0.5,2.5,3.25,-0.17,0.08,0.95,268.69,-2.8,-56.2,0.75,0.5,6.0,2.0,1.0,1.25,1.25,1.0,1.25,2.0,2.0,1.5,1.5,0.02,0.14,0.95,267.51,-12.5,0.8
2.74,0.0,0.0,0.5,1.75,0.0,0.0,0.25,3.75,1.5,2.75,0.0,1.5,2.0,-0.17,0.08,0.95,232.24,-3.4,-47.1,1.0,0.75,6.25,2.0,1.0,0.5,1.25,0.75,1.5,3.0,2.0,1.5,1.75,0.02,0.14,0.95,271.91,-12.9,-1.9
2.76,0.0,0.0,1.25,2.0,0.0,0.0,0.25,2.75,1.25,1.25,0.0,1.25,1.75,-0.17,0.08,0.95,192.68,2.1,-32.2,2.0,0.75,7.25,2.0,0.5,1.0,1.75,0.75,1.5,3.25,2.0,1.0,1.5,0.02,0.14,0.95,285.35,-14.8,6.7
2.78,0.0,0.0,1.0,2.0,0.0,0.0,0.25,2.0,1.0,1.25,0.0,0.75,1.0,-0.17,0.08,0.95,148.81,3.3,-23.5,2.0,0.5,7.5,2.0,0.5,1.0,2.25,0.75,1.5,3.5,2.0,1.25,1.25,0.02,0.14,0.95,301.95,-15.1,5.7
2.8,0.0,0.0,2.0,3.5,0.0,0.0,0.25,2.0,1.0,1.25,0.0,0.5,0.75,-0.11,0.08,1.14,130.15,8.6,-0.7,2.25,0.25,8.25,3.0,1.0,0.5,2.5,0.75,1.5,4.0,2.25,1.25,1.25,0.02,0.14,0.95,330.92,-15.8,7.6
2.82,0.0,0.0,2.25,3.5,0.0,0.0,0.25,1.0,1.0,1.25,0.0,0.5,0.75,-0.23,0.14,1.2,119.23,11.7,4.3,2.25,0.25,8.75,3.0,1.5,1.25,2.5,1.0,1.75,2.75,2.5,1.25,1.5,0.02,0.14,0.95,361.21,-15.6,11.1
2.84,0.0,0.0,2.25,3.5,0.0,0.0,0.0,0.25,1.0,0.75,0.0,0.5,0.75,-0.3,0.14,1.33,113.49,15.3,11.8,3.25,0.5,9.0,3.25,1.25,1.25,2.75,1.0,1.75,3.0,2.25,1.0,1.25,0.02,0.14,0.95,391.32,-16.7,17.0
2.86,0.0,0.0,0.75,3.0,0.0,0.0,0.0,0.25,0.75,0.25,0.0,0.25,0.75,-0.23,0.2,1.39,93.51,12.3,9.6,3.75,0.5,9.75,3.25,1.5,1.25,3.0,1.75,2.0,3.5,2.0,1.25,1.5,0.02,0.14,0.95,434.8,-15.8,15.2
2.88,0.0,0.0,2.0,1.75,0.0,0.0,0.0,0.25,0.75,1.0,0.0,0.5,0.75,-0.23,0.27,1.33,82.25,13.0,-3.0,4.75,0.5,9.75,4.0,2.25,0.75,3.5,1.25,1.75,2.75,2.0,1.0,1.0,0.02,0.14,0.95,471.94,-18.3,25.3
2.9,0.0,0.0,0.75,1.75,0.0,0.0,0.0,0.25,0.5,0.25,0.0,0.25,0.0,-0.23,0.33,1.39,56.91,15.9,20.3,5.0,0.75,11.0,4.5,2.5,1.5,3.5,1.0,1.5,2.25,1.75,1.0,1.0,0.02,0.14,0.95,513.0,-18.9,31.4
2.92,0.0,0.0,0.0,1.25,0.0,0.0,0.0,0.25,0.25,0.0,0.0,0.0,0.0,-0.3,0.45,1.2,32.29,11.8,31.3,5.5,0.5,11.0,4.5,2.25,1.0,4.0,0.75,1.5,1.75,1.75,1.0,0.75,0.02,0.14,0.95,534.09,-21.0,34.7
2.94,0.0,0.0,0.0,1.0,0.0,0.0,0.0,0.25,0.25,0.0,0.0,0.0,0.75,-0.42,0.45,1.02,16.44,2.7,-18.7,5.75,1.0,11.5,5.25,2.5,1.25,4.25,0.5,1.5,1.5,1.5,0.5,0.75,0.02,0.14,0.95,556.38,-21.4,41.0
2.96,0.0,0.0,0.0,1.0,0.0,0.0,0.0,0.25,0.5,0.5,0.0,0.0,0.75,-0.61,-1.42,1.64,12.14,0.4,-29.6,6.25,1.0,12.0,5.5,3.0,1.0,4.5,0.5,1.0,1.5,0.75,0.5,0.75,0.02,0.14,0.95,568.86,-22.1,45.7
2.98,0.0,0.0,0.0,0.75,0.0,0.0,0.0,0.25,0.25,0.25,0.0,0.0,0.75,-0.36,-1.42,0.89,10.89,-0.9,-33.6,6.25,1.5,12.0,5.5,2.75,1.25,4.5,0.5,1.0,1.25,0.75,0.25,0.0,0.02,0.14,0.95,575.05,-23.0,51.6
3.0,0.0,0.0,0.5,0.75,0.0,0.0,0.0,0.25,0.25,0.25,0.0,0.0,0.75,-0.3,-1.42,0.89,15.55,6.2,-16.3,6.75,1.5,12.5,5.75,3.0,1.0,4.5,0.5,0.75,1.0,0.5,0.0,0.25,0.02,0.14,0.95,578.88,-23.6,54.8
3.02,0.0,0.0,0.0,0.75,0.0,0.0,0.0,0.0,0.25,0.25,0.0,0.0,0.75,-0.23,-1.36,1.08,15.18,0.9,-32.9,7.0,1.5,13.0,5.5,3.5,1.0,4.5,0.5,0.75,1.25,0.0,0.0,0.25,0.08,0.14,1.02,585.29,-23.4,56.0
3.04,0.0,0.0,0.25,0.0,0.0,0.0,0.0,0.0,0.5,0.25,0.0,0.0,0.0,-0.17,-1.17,1.14,7.23,11.9,-22.2,7.5,1.5,13.0,6.75,3.5,0.75,4.5,0.0,0.75,1.0,0.0,0.0,0.0,0.02,0.14,0.95,592.43,-24.7,60.0
3.06,0.0,0.0,0.5,0.25,0.0,0.0,0.0,0.0,0.25,0.25,0.0,0.0,0.75,-0.23,-0.92,1.14,8.62,6.2,-32.6,7.5,1.5,13.5,7.5,3.25,1.0,4.5,0.0,0.5,1.25,0.0,0.0,0.0,0.02,0.2,0.95,605.55,-24.5,59.6
3.08,0.0,0.0,0.5,0.25,0.0,0.0,0.0,0.0,0.5,0.25,0.0,0.0,0.5,-0.17,-0.55,1.27,13.02,9.4,-23.5,8.0,1.5,14.5,7.25,3.5,1.25,4.0,0.0,0.5,1.0,0.0,0.0,0.25,-0.05,0.2,0.95,626.26,-24.5,59.8
3.1,0.0,0.0,0.5,0.5,0.0,0.0,0.0,0.0,0.5,0.25,0.0,0.0,0.25,-0.17,-0.17,1.45,20.09,13.3,-2.1,8.0,1.5,14.5,7.25,3.25,1.0,3.75,0.0,0.25,0.0,0.0,0.0,0.0,-0.05,0.2,1.02,628.23,-26.3,65.4
3.12,0.0,0.0,0.5,0.5,0.0,0.0,0.0,0.0,0.5,0.25,0.0,0.0,0.0,-0.23,0.14,1.52,23.02,17.2,13.3,8.5,1.5,15.0,7.5,3.0,0.25,3.5,0.0,0.25,0.25,0.0,0.0,0.0,0.02,0.27,1.02,629.66,-27.4,65.6
3.14,0.0,0.0,0.5,0.5,0.0,0.0,0.0,0.0,0.5,0.0,0.0,0.0,0.25,-0.3,0.45,1.58,27.71,17.4,8.0,8.5,2.0,16.0,7.5,2.75,0.0,3.0,0.0,0.25,0.5,0.0,0.0,0.0,-0.05,0.27,1.08,631.62,-27.7,65.5
3.16,0.0,0.0,0.5,0.5,0.0,0.0,0.0,0.0,0.5,0.25,0.0,0.0,0.25,-0.42,0.83,1.64,29.46,13.3,-2.1,8.25,1.5,16.0,7.25,2.75,0.0,2.5,0.0,0.25,0.0,0.0,0.0,0.0,-0.05,0.33,1.08,624.8,-28.5,67.0
3.18,0.0,0.0,0.5,0.25,0.0,0.0,0.0,0.0,0.75,0.25,0.0,0.0,0.25,-0.48,1.39,1.7,29.39,12.7,-14.4,8.5,1.75,16.0,7.25,1.75,0.25,2.5,0.0,0.0,0.25,0.0,0.0,0.0,-0.05,0.33,1.2,612.6,-28.9,67.4
3.2,0.0,0.0,0.5,0.25,0.0,0.0,0.0,0.0,0.75,0.25,0.0,0.0,0.5,-0.42,2.08,1.27,31.29,9.7,-25.1,8.5,0.0,15.0,7.25,0.5,0.0,2.5,0.0,0.0,0.25,0.0,0.0,0.0,0.02,0.39,1.2,570.78,-31.2,66.7
3.22,0.0,0.0,0.0,0.0,0.0,0.0,0.0,0.0,0.25,0.0,0.0,0.0,0.0,-0.05,2.77,0.58,22.75,12.1,-38.5,8.25,1.5,14.5,6.0,0.25,0.0,2.5,0.0,0.0,0.25,0.0,0.0,0.0,0.02,0.39,1.39,530.31,-31.1,68.6
3.24,0.0,0.0,0.0,0.0,0.0,0.0,0.0,0.0,0.5,0.25,0.0,0.0,0.5,0.27,3.2,0.33,20.38,-3.9,-75.1,7.5,0.75,13.0,5.75,0.25,0.0,2.5,0.0,0.0,0.0,0.0,0.0,0.0,0.02,0.45,1.58,470.77,-31.6,68.9
3.26,0.0,0.0,0.0,0.75,0.0,0.0,0.0,0.0,0.5,0.0,0.0,0.0,0.5,0.27,4.2,1.45,20.32,6.9,-16.7,5.75,0.75,10.5,4.25,0.25,0.0,3.0,0.0,0.0,0.0,0.0,0.0,0.0,-0.05,1.02,2.14,396.97,-31.7,68.0
3.28,0.0,0.0,0.5,0.25,0.0,0.0,0.0,0.0,0.75,1.25,0.0,0.5,0.75,-0.11,-0.42,2.08,36.77,1.8,-53.4,3.5,0.5,9.0,3.0,0.25,0.0,2.5,0.0,0.0,0.25,0.0,0.0,0.0,-0.05,1.33,2.45,319.98,-31.4,64.0
3.3,0.0,0.0,0.5,0.25,0.0,0.0,0.0,0.0,0.75,1.25,0.0,1.5,2.0,0.2,0.2,0.77,64.6,-0.2,-73.8,1.25,0.0,7.25,1.25,0.25,0.0,1.25,0.0,0.0,0.5,0.0,0.0,0.0,-0.05,0.64,2.2,240.36,-31.7,56.4
3.32,0.0,0.0,0.0,0.25,0.0,0.0,0.0,0.25,0.75,2.0,0.0,3.5,4.25,-0.42,0.2,1.83,119.7,-4.5,-93.3,0.5,0.5,6.0,0.25,0.25,0.0,0.75,0.0,0.0,0.0,0.0,0.0,0.0,-0.05,-0.11,1.89,158.31,-34.0,63.6
3.34,0.0,0.0,0.25,0.0,0.0,0.0,0.0,0.25,0.75,3.75,0.0,3.75,5.5,-0.17,0.14,1.27,178.72,-6.1,-92.9,0.75,0.0,2.5,0.0,0.0,0.0,0.5,0.0,0.0,0.0,0.0,0.0,0.0,0.95,-1.11,1.83,68.14,-37.2,66.0
3.36,0.0,0.0,0.5,0.25,0.0,0.0,0.0,1.25,1.25,4.75,0.5,4.75,6.25,-0.23,0.2,1.45,244.79,-4.9,-85.0,0.75,0.0,1.5,0.0,0.5,0.0,0.25,0.0,0.0,0.0,0.0,0.0,0.0,0.27,-1.23,2.2,0.0,-29.0,66.9
3.38,0.0,0.0,0.25,0.25,0.0,0.0,0.0,2.5,1.0,5.75,2.75,5.75,7.0,-0.3,0.14,1.14,313.12,-4.9,-85.2,0.75,0.0,1.5,0.75,0.5,0.0,0.25,0.0,0.0,0.0,0.0,0.0,0.0,0.52,-0.92,1.33,0.0,-26.5,65.0
3.4,0.0,0.0,0.0,0.0,0.0,0.0,0.0,4.25,1.25,6.75,0.0,6.0,7.5,-0.17,0.08,0.95,378.2,-8.2,-85.8,0.25,0.0,1.5,0.75,0.5,0.0,0.25,0.0,0.0,0.0,0.0,0.0,0.0,0.52,-0.73,0.77,0.0,-25.3,60.3
3.42,0.0,0.0,0.0,0.25,0.0,0.0,0.0,4.75,1.5,6.75,4.75,6.25,7.5,-0.17,0.08,1.02,460.52,-5.1,-82.2,0.5,0.0,1.0,0.75,0.25,0.0,0.25,0.0,0.0,0.25,0.0,0.0,0.0,0.2,-0.61,0.95,0.0,-23.2,52.3
3.44,0.0,0.0,0.25,0.25,0.0,0.0,0.0,5.25,1.75,7.25,5.0,6.5,8.0,-0.17,0.02,0.95,535.74,-4.9,-80.7,0.25,0.0,1.25,0.5,0.25,0.0,0.25,0.0,0.0,0.0,0.0,0.0,0.0,0.08,-0.48,1.02,0.0,-28.2,61.3
3.46,0.0,0.0,0.0,0.5,0.0,0.0,0.0,6.0,2.0,7.25,5.5,6.5,8.0,-0.17,0.02,0.95,601.06,-5.0,-79.4,0.25,0.0,1.0,0.75,0.5,0.0,0.25,0.0,0.0,0.0,0.0,0.0,0.0,0.08,-0.17,0.95,0.0,-22.9,60.2
3.48,0.0,0.0,0.0,0.5,0.0,0.0,0.0,6.25,2.0,7.25,0.0,6.25,7.5,-0.23,0.02,0.95,594.51,-7.8,-79.0,0.5,0.0,0.75,0.75,0.25,0.0,0.25,0.0,0.0,0.0,0.0,0.0,0.0,0.02,-0.05,1.02,0.0,-25.6,64.5
3.5,0.0,0.0,0.0,0.25,0.0,0.0,0.0,6.25,1.75,6.5,4.25,5.75,7.5,-0.23,0.02,0.95,588.25,-5.9,-79.6,0.25,0.0,0.5,0.75,0.25,0.0,0.25,0.0,0.0,0.0,0.0,0.0,0.0,0.02,0.2,1.14,0.0,-22.8,60.9
3.52,0.0,0.0,0.0,0.5,0.0,0.0,0.0,6.25,1.25,6.5,0.0,5.25,7.0,-0.23,0.02,0.95,528.08,-8.7,-78.5,0.0,0.0,0.25,0.5,0.5,0.0,0.25,0.0,0.0,0.0,0.0,0.0,0.0,0.02,0.27,1.27,6.12,-14.0,54.2
3.54,0.0,0.0,0.0,0.5,0.0,0.75,0.0,6.0,2.0,5.75,0.0,5.25,6.25,-0.17,0.02,0.95,475.55,-8.1,-74.0,0.25,0.0,0.25,0.5,0.25,0.0,0.25,0.0,0.0,0.0,0.0,0.0,0.0,0.02,0.33,1.39,13.3,-21.0,61.5
3.56,0.0,0.0,0.0,0.0,0.0,0.5,0.0,6.25,2.0,5.75,0.0,4.5,6.25,-0.17,0.02,0.95,419.19,-9.0,-76.3,0.0,0.0,0.0,0.75,0.5,0.0,0.25,0.0,0.0,0.0,0.0,0.0,0.0,0.02,0.52,1.58,16.61,-10.4,53.7
3.58,0.0,0.0,0.0,0.5,0.0,1.25,0.0,6.25,1.75,5.5,0.0,3.75,5.5,-0.17,0.02,0.95,380.94,-9.4,-68.6,0.0,0.0,0.25,0.75,0.5,0.0,0.0,0.0,0.0,0.0,0.0,0.0,0.0,-0.05,0.7,2.27,20.77,-13.2,56.8
3.6,0.0,0.0,0.0,0.5,0.0,1.0,0.0,6.25,2.0,4.5,0.0,3.5,4.75,-0.17,0.02,0.95,340.94,-8.8,-67.1,0.0,0.0,0.0,0.75,0.25,0.0,0.25,0.0,0.0,0.0,0.0,0.0,0.0,-0.11,1.02,2.52,19.04,-13.7,53.7
3.62,0.0,0.0,0.0,1.25,0.0,1.75,0.0,6.25,1.75,4.5,0.5,3.0,4.5,-0.17,0.02,0.95,315.25,-8.5,-59.0,0.0,0.0,0.0,0.5,0.25,0.0,0.25,0.0,0.0,0.0,0.0,0.0,0.0,-0.23,1.39,2.45,15.78,-12.7,52.6
3.64,0.0,0.0,0.0,1.75,0.0,2.5,0.0,6.25,2.0,4.5,0.0,2.5,3.75,-0.17,0.02,0.95,296.98,-8.8,-50.2,0.0,0.0,0.0,0.75,0.25,0.0,0.25,0.0,0.0,0.0,0.0,0.0,0.0,-0.23,2.14,1.95,15.16,-13.7,53.7
3.66,0.0,0.0,0.0,3.25,0.0,1.5,0.25,6.0,2.25,4.0,1.0,2.5,3.25,-0.17,0.02,0.89,288.47,-4.9,-45.3,0.0,0.0,0.25,0.5,0.25,0.0,0.25,0.0,0.0,0.0,0.0,0.0,0.0,-0.23,2.95,1.2,15.21,-18.3,54.4
3.68,0.0,0.0,1.25,3.5,0.0,3.25,0.5,6.0,2.5,3.25,0.25,2.5,3.25,-0.17,0.02,0.95,290.9,-3.5,-31.8,0.0,0.0,0.0,0.75,0.25,0.0,0.25,0.0,0.0,0.0,0.0,0.0,0.25,-0.48,3.7,0.27,17.38,-8.8,24.7
3.7,1.5,0.25,2.25,6.0,4.5,3.75,0.5,6.0,2.0,2.75,0.25,1.5,2.0,-0.17,0.08,0.95,337.64,0.7,4.4,0.0,0.0,0.0,0.5,0.5,0.0,0.25,0.0,0.0,0.0,0.0,0.0,0.0,-1.23,4.39,-0.05,18.38,-8.9,52.8
3.72,2.25,1.0,3.75,8.25,0.0,4.5,0.5,6.0,2.0,2.75,0.0,1.5,2.0,-0.17,0.08,1.02,390.36,4.6,8.3,0.0,0.0,0.0,0.5,0.5,0.0,0.0,0.0,0.0,1.25,0.0,0.0,0.0,-1.3,5.2,0.02,25.31,5.3,-14.0
3.74,3.5,1.25,5.5,9.75,7.0,5.0,1.0,5.5,1.25,1.75,0.0,1.25,1.75,-0.17,0.08,1.02,513.68,6.3,27.9,0.0,0.0,0.0,0.5,0.0,0.0,0.25,0.0,0.0,3.75,0.0,2.75,1.0,0.83,0.08,1.27,67.12,4.3,-81.2
3.76,5.25,2.0,6.5,11.0,8.0,5.25,1.0,4.75,1.0,1.25,0.0,0.75,1.25,-0.17,0.08,1.14,652.08,8.6,38.8,0.0,0.25,0.0,0.5,0.5,0.0,0.0,0.0,0.0,6.25,1.75,5.0,5.75,-0.11,0.39,1.08,168.79,5.2,-84.6
3.78,6.25,1.5,7.25,11.5,0.0,5.0,1.0,3.75,0.75,1.25,0.0,0.5,0.75,-0.23,0.14,1.14,701.78,13.9,42.0,1.25,0.75,0.0,3.0,0.5,2.0,0.0,0.5,2.75,8.75,4.75,5.5,7.75,-0.61,0.45,2.95,310.88,1.7,-57.0
3.8,6.25,2.75,7.0,12.0,0.0,4.5,0.5,2.75,0.75,1.25,0.0,0.5,0.75,-0.17,0.14,1.27,707.2,14.8,46.2,2.5,0.75,7.25,3.25,3.5,2.0,1.75,6.75,2.75,8.25,8.0,5.0,6.0,0.2,0.08,0.95,551.92,-4.1,-26.8
3.82,7.25,2.75,8.5,12.5,0.0,3.25,0.5,2.0,0.75,1.25,0.0,0.5,0.75,-0.23,0.2,1.27,694.01,17.9,50.1,2.5,0.75,8.25,3.25,4.25,2.0,1.75,6.0,2.75,7.5,7.25,3.75,5.25,0.2,0.14,0.95,773.2,-5.3,-19.3
3.84,7.75,0.0,8.5,12.0,0.0,0.0,0.5,1.75,0.75,1.0,0.0,0.5,0.75,-0.3,0.2,1.39,638.19,22.9,49.6,3.5,0.75,8.5,3.75,4.25,2.0,2.0,5.75,2.75,6.75,5.75,2.5,4.5,0.2,0.14,0.95,915.81,-6.6,-10.0
3.86,7.75,0.0,8.0,11.0,0.0,0.0,0.5,1.0,0.25,0.0,0.0,0.25,0.5,-0.42,0.27,1.64,562.26,25.8,59.9,4.0,0.5,9.0,4.25,4.5,2.0,2.25,5.0,2.0,5.75,4.0,2.25,3.25,0.14,0.14,0.95,946.06,-8.4,0.0
3.88,3.5,0.0,6.5,8.25,0.0,0.0,0.75,0.25,0.25,0.25,0.0,0.0,0.5,-0.61,0.45,1.83,444.14,25.6,56.5,4.75,0.75,9.25,4.5,4.5,2.0,2.5,3.75,2.0,4.5,3.75,1.25,2.75,0.14,0.14,0.95,918.96,-10.7,10.0
3.9,4.75,0.0,2.25,4.5,0.0,0.0,0.5,0.0,0.75,0.5,0.0,0.0,0.75,-0.8,1.14,2.89,322.56,23.5,51.3,4.75,0.5,9.5,4.5,4.25,2.0,2.25,3.75,1.5,4.0,2.25,1.0,1.75,0.14,0.14,0.95,849.85,-11.8,17.7
3.92,1.75,0.0,0.0,1.75,0.0,0.0,0.0,0.0,0.0,0.0,0.0,0.0,0.0,-0.8,1.2,3.39,192.29,25.5,76.7,5.0,0.75,9.75,5.25,4.25,2.0,2.5,3.5,1.5,3.25,1.75,1.0,1.5,0.14,0.14,0.95,794.99,-13.1,23.6
3.94,0.0,0.0,0.0,0.0,0.0,0.0,1.25,0.0,0.0,0.0,0.0,0.0,0.0,-0.48,0.14,2.39,57.06,32.4,27.3,5.5,0.5,9.75,5.25,4.5,2.0,2.5,2.25,1.5,3.0,1.75,0.5,1.0,0.14,0.14,0.95,734.43,-14.8,30.2
3.96,0.0,0.0,0.0,0.0,0.0,0.0,0.0,0.0,0.0,0.0,0.0,0.0,0.0,-0.17,-1.8,2.02,0.0,0.0,0.0,5.5,0.75,11.0,5.5,4.5,2.0,2.5,2.25,1.0,2.25,1.0,0.5,1.0,0.14,0.14,0.95,682.03,-16.3,36.7
3.98,0.0,0.0,0.0,0.0,0.0,0.0,0.0,0.0,0.25,0.0,0.0,0.0,0.0,-0.3,-1.05,2.95,0.0,12.1,-38.5,6.25,0.75,11.0,5.5,4.75,2.0,2.5,2.0,0.75,1.5,0.75,0.25,1.0,0.14,0.14,0.95,627.88,-17.4,42.8
4.0,0.0,0.0,0.0,0.0,0.0,0.0,0.0,0.0,0.0,0.0,0.0,0.0,0.0,-0.36,-0.67,1.02,0.0,0.0,0.0,6.25,1.0,11.0,6.25,4.5,2.0,2.25,2.0,0.75,1.5,0.25,0.25,0.75,0.08,0.14,0.95,584.5,-17.8,45.9
4.02,0.0,0.0,0.0,0.0,0.0,0.0,0.0,0.0,0.0,0.0,0.0,0.0,0.0,-0.36,-0.61,0.33,0.0,0.0,0.0,6.75,1.5,12.0,7.25,4.5,2.0,2.5,2.0,0.75,1.5,0.0,0.25,1.0,0.08,0.14,0.95,574.98,-18.3,47.5
4.04,0.0,0.0,0.0,0.0,0.0,0.0,0.0,0.0,0.0,0.0,0.0,0.0,0.0,-0.36,-0.55,0.45,0.0,0.0,0.0,7.25,1.5,12.0,7.25,4.5,2.25,2.5,1.75,0.75,1.5,0.0,0.0,1.0,0.08,0.14,0.95,585.35,-18.5,49.5
4.06,0.0,0.0,0.0,0.0,0.0,0.0,3.25,3.5,0.0,0.0,0.0,0.0,0.0,-0.42,-0.55,0.52,0.0,-1.6,-18.4,7.5,1.5,12.5,8.25,4.5,2.0,2.5,1.0,0.75,1.5,0.0,0.25,0.75,0.08,0.14,0.95,620.15,-19.8,51.7
4.08,0.0,0.0,0.0,0.0,0.0,0.0,0.0,0.0,0.0,0.0,0.0,0.0,0.0,-0.55,-0.48,0.7,0.0,0.0,0.0,7.75,1.0,13.0,9.0,4.75,2.0,2.5,0.75,0.75,1.5,0.0,0.0,0.75,0.08,0.14,0.95,652.05,-20.2,53.1
4.1,0.0,0.0,0.0,0.0,0.0,0.0,0.0,0.0,0.0,0.0,0.0,0.0,0.0,-0.55,-0.36,0.7,0.0,0.0,0.0,8.25,0.0,13.0,7.5,4.75,1.75,2.5,0.75,0.5,0.5,0.0,0.0,0.25,0.08,0.2,1.02,651.06,-22.4,58.3
4.12,0.0,0.0,0.0,0.0,0.0,0.0,0.0,0.0,0.0,0.0,0.0,0.0,0.0,-0.36,-0.11,0.77,0.0,0.0,0.0,8.5,2.25,12.0,9.0,4.5,2.0,1.5,0.5,0.0,0.0,0.0,0.0,0.0,0.08,0.2,1.02,651.62,-22.2,65.6
4.14,0.0,0.0,0.0,0.0,0.0,0.0,0.0,0.0,0.25,0.0,0.0,0.0,0.0,-0.3,0.08,0.95,0.0,12.1,-38.5,8.5,2.25,12.5,11.0,4.5,2.0,1.25,0.5,0.25,0.0,0.0,0.0,0.5,0.08,0.2,1.08,669.39,-21.6,62.6
4.16,0.0,0.0,0.0,0.0,0.0,0.0,0.0,0.0,1.25,0.0,0.0,0.0,0.0,-0.23,0.2,1.2,3.78,12.1,-38.5,8.75,2.25,12.5,9.0,4.75,1.0,1.0,0.0,0.0,1.25,0.0,0.0,0.0,0.08,0.2,1.08,671.47,-22.6,63.6
4.18,0.0,0.0,0.0,0.0,0.0,0.0,2.25,0.0,0.25,0.0,0.0,0.0,0.0,-0.23,0.39,1.33,14.53,28.6,15.1,9.25,2.25,14.5,11.0,5.5,1.25,1.25,0.5,0.0,0.75,0.0,0.0,0.0,0.02,0.27,1.08,714.52,-22.4,63.5
4.2,0.0,0.0,0.0,0.0,0.0,0.0,2.75,0.0,0.25,0.0,0.0,0.0,0.0,-0.3,0.64,1.58,22.48,29.2,16.9,9.25,2.5,13.5,9.25,5.75,0.0,1.25,0.0,0.0,0.0,0.0,0.0,0.25,0.02,0.27,1.08,716.8,-24.2,67.4
4.22,0.0,0.0,0.0,1.0,0.0,0.0,0.0,0.0,0.75,0.25,0.0,0.0,0.0,-0.42,0.7,1.83,27.98,11.3,6.4,9.25,3.25,13.0,9.25,5.25,0.0,1.25,0.0,0.0,0.25,0.0,0.0,0.25,0.02,0.33,1.14,717.91,-24.0,67.4
4.24,0.0,0.0,0.25,0.0,0.0,0.0,0.0,0.0,0.25,0.0,0.0,0.0,0.0,-0.73,0.77,2.33,23.86,25.5,12.2,9.0,3.75,14.5,10.0,4.75,1.25,1.25,0.0,0.0,0.25,0.0,0.0,0.0,0.08,0.33,1.2,722.21,-23.5,67.5
4.26,0.0,0.0,0.5,0.0,0.0,0.0,0.0,0.25,0.25,0.0,0.0,0.0,0.75,-0.73,1.2,2.45,25.0,4.4,-40.7,8.25,2.5,12.0,9.0,3.75,0.0,0.75,0.0,0.0,0.0,0.0,0.0,0.0,0.08,0.39,1.2,673.08,-25.4,69.3
4.28,0.0,0.0,0.0,1.0,0.0,0.0,0.0,0.0,0.25,0.0,0.0,0.0,0.0,-0.61,1.89,2.2,22.54,16.2,39.5,7.75,0.75,11.5,9.0,2.75,0.0,0.25,0.0,0.0,0.0,0.0,0.0,0.0,0.08,0.39,1.33,599.69,-26.7,68.3
4.3,0.0,0.0,0.0,0.0,0.0,0.0,0.0,0.0,0.25,0.0,0.0,0.0,0.0,-0.48,2.58,1.77,16.15,12.1,-38.5,6.75,1.5,11.5,7.25,1.25,0.0,0.0,0.0,0.0,0.0,0.0,0.0,0.0,0.14,0.52,1.52,507.1,-28.5,69.9
4.32,0.0,0.0,0.0,0.0,0.0,0.0,0.0,0.0,0.25,0.0,0.0,0.0,0.25,-0.05,3.33,1.08,15.5,-1.0,-75.0,6.25,0.75,9.0,5.5,4.5,0.5,1.0,0.0,0.0,0.0,0.0,0.0,0.0,0.2,0.89,2.27,436.31,-23.5,66.7
4.34,0.0,0.0,0.0,0.0,0.0,0.0,0.0,0.0,0.25,0.0,0.0,0.0,0.0,0.58,4.02,0.33,9.79,12.1,-38.5,2.25,0.0,7.25,2.75,0.25,0.0,0.75,0.0,0.0,0.0,0.0,0.0,0.0,0.08,1.7,2.64,314.98,-32.0,65.1
4.36,0.0,0.0,0.0,0.0,0.0,0.0,0.0,0.0,0.25,0.0,0.0,0.0,0.0,1.27,4.77,0.64,5.45,12.1,-38.5,0.5,0.0,5.5,1.0,0.0,0.0,0.25,0.0,0.0,0.0,0.0,0.0,0.0,0.02,1.08,2.58,212.12,-34.9,62.3
4.38,0.0,0.0,0.0,0.0,0.0,0.0,0.0,0.0,1.5,1.25,0.0,0.5,0.0,0.33,-1.17,0.7,19.82,0.8,-63.8,0.0,0.0,4.0,0.5,0.25,0.0,0.0,0.0,0.0,0.0,0.0,0.0,0.0,-0.11,0.33,2.45,97.68,-33.6,60.2
4.4,0.0,0.0,1.0,0.25,0.0,0.0,0.0,0.0,3.0,0.25,0.0,0.5,1.75,-0.98,-0.42,0.95,53.47,8.2,-45.2,0.0,0.0,1.5,0.5,0.0,0.0,0.0,0.0,0.0,0.0,0.0,0.0,0.0,0.27,-0.61,2.08,0.0,-32.9,60.2
4.42,0.0,0.0,0.0,0.0,0.0,0.0,0.0,0.0,0.0,1.25,0.0,2.5,2.25,0.14,0.2,1.08,85.04,-4.8,-102.7,0.0,0.0,1.25,0.5,0.25,0.0,0.0,0.0,0.0,0.0,0.0,0.0,0.0,0.58,-0.61,2.89,0.0,-27.3,59.1
4.44,0.0,0.0,0.0,1.0,0.0,0.0,0.0,1.0,1.0,3.25,0.0,4.25,5.75,-0.17,0.45,2.14,161.86,-4.9,-83.7,0.75,0.0,1.25,1.0,0.0,0.0,0.0,0.0,0.0,0.25,0.0,0.0,0.0,0.39,-0.98,1.83,0.0,-26.7,57.4
4.46,0.0,0.0,0.0,0.75,0.0,0.0,0.0,2.25,1.0,4.75,2.75,4.5,6.25,-0.48,0.52,2.39,244.69,-4.7,-82.2,0.75,0.0,1.5,1.0,0.5,0.0,0.25,0.0,0.0,0.0,0.0,0.0,0.0,0.39,-0.8,1.14,0.0,-25.9,64.5
4.48,0.0,0.0,0.5,0.0,0.0,0.0,0.0,4.0,2.0,6.5,0.0,5.25,6.5,-0.17,0.08,1.08,320.01,-6.8,-80.3,0.5,0.0,1.5,0.75,0.5,0.0,0.25,0.0,0.0,0.25,0.0,0.0,0.0,0.45,-0.86,0.64,0.0,-23.2,53.5
4.5,0.0,0.0,0.0,0.0,0.0,0.0,0.0,5.0,2.25,6.75,4.25,6.0,6.75,-0.17,0.08,1.02,411.98,-5.1,-81.2,0.75,0.0,1.25,0.75,0.5,0.25,0.25,0.0,0.0,0.0,0.0,0.0,0.25,0.45,-0.73,0.58,0.0,-20.2,52.0
4.52,0.0,0.0,0.0,0.25,0.0,0.0,0.0,5.75,2.75,7.25,0.0,6.0,7.0,-0.17,0.02,0.95,478.79,-7.4,-79.1,0.0,0.0,1.25,1.0,1.0,0.0,0.25,0.0,0.0,0.0,0.0,0.0,0.25,0.33,-0.61,0.64,0.0,-16.4,45.5
4.54,0.0,0.0,0.0,0.0,0.0,0.0,0.0,6.0,3.25,7.25,6.25,6.25,7.25,-0.17,0.02,0.95,562.07,-4.3,-79.1,0.0,0.0,0.0,0.5,0.25,0.0,0.0,0.0,0.0,0.0,0.0,0.0,0.0,0.27,-0.48,0.7,0.0,-9.9,56.3
4.56,0.0,0.0,0.0,1.75,0.0,0.5,0.0,6.25,3.5,7.25,6.5,6.0,7.0,-0.17,0.02,0.95,624.77,-3.4,-70.3,0.0,0.0,0.0,0.5,0.0,0.0,0.0,0.0,0.0,0.0,0.0,0.0,0.0,0.2,-0.3,0.89,0.0,-17.2,57.9
4.58,0.0,0.0,0.0,1.75,0.0,0.75,0.25,6.25,3.5,6.5,6.0,5.75,7.0,-0.17,0.02,0.95,668.51,-3.4,-68.9,0.0,0.0,0.0,0.5,0.0,0.0,0.0,0.0,0.0,0.0,0.0,0.0,0.0,0.14,-0.11,1.02,0.0,-17.2,57.9
4.6,0.0,0.0,0.0,1.75,0.0,1.25,0.25,6.25,3.5,6.5,5.5,5.25,6.25,-0.17,0.02,0.95,668.52,-3.8,-66.0,0.0,0.0,0.0,0.5,0.25,0.0,0.0,0.0,0.0,0.0,0.0,0.0,0.0,0.14,0.08,0.95,2.11,-9.9,56.3
4.62,0.0,0.0,0.5,1.75,0.0,1.75,0.25,6.25,3.0,5.75,4.5,4.5,6.25,-0.17,0.02,0.95,635.73,-4.1,-61.7,0.0,0.0,0.0,0.5,0.0,0.0,0.0,0.0,0.0,0.0,0.0,0.0,0.0,0.2,0.33,1.08,1.43,-17.2,57.9
4.64,0.0,0.0,0.5,1.75,0.0,1.75,0.25,6.25,2.75,5.75,3.5,3.5,5.5,-0.17,0.02,0.95,574.04,-4.9,-58.8,0.0,0.0,0.0,0.5,0.25,0.0,0.25,0.0,0.0,0.0,0.0,0.0,0.0,0.14,0.45,1.27,5.34,-12.7,52.6
4.66,0.0,0.0,0.0,2.5,0.0,2.25,0.0,6.0,2.5,4.5,2.0,2.5,4.5,-0.17,0.02,0.95,486.77,-6.1,-51.2,0.5,0.25,1.0,0.75,0.5,0.0,0.25,0.0,0.0,0.0,0.0,0.0,0.0,0.27,0.77,1.45,19.92,-23.0,66.0
4.68,0.0,0.0,0.0,3.5,0.0,2.5,0.25,6.0,2.0,4.25,1.0,2.5,3.25,-0.17,0.02,0.95,400.86,-5.7,-41.6,0.0,0.0,1.0,0.75,0.5,0.0,0.25,0.0,0.0,0.0,0.0,0.0,0.25,0.33,1.02,1.64,29.72,-18.5,41.2
4.7,0.0,0.0,0.5,3.5,0.0,3.0,0.25,5.75,2.0,3.0,0.25,1.75,2.75,-0.17,0.02,0.95,334.96,-5.2,-31.0,0.0,0.25,0.5,0.75,0.5,0.0,0.25,0.0,0.0,0.0,0.0,0.0,0.0,0.39,1.2,2.02,37.15,-17.0,60.5
4.72,0.0,0.0,0.0,3.5,0.0,3.25,0.0,5.75,2.0,2.75,0.0,1.5,2.0,-0.17,0.02,0.95,285.14,-6.6,-27.9,0.25,0.0,0.0,1.25,0.5,0.0,0.25,0.0,0.0,0.0,0.0,0.0,0.0,0.27,1.39,2.39,40.07,-14.5,59.2
4.74,0.0,0.0,0.5,5.0,0.0,4.25,0.0,5.5,1.5,2.75,0.0,1.5,2.0,-0.17,0.08,0.95,263.06,-4.9,-17.2,0.0,0.25,0.5,0.75,0.5,0.0,0.25,0.0,0.0,0.0,0.0,0.0,0.0,0.08,1.7,2.02,41.47,-17.0,60.5
