time,left pressure 0[N/cm²],left pressure 1[N/cm²],left pressure 2[N/cm²],left pressure 3[N/cm²],left pressure 4[N/cm²],left pressure 5[N/cm²],left pressure 6[N/cm²],left pressure 7[N/cm²],left pressure 8[N/cm²],left pressure 9[N/cm²],left pressure 10[N/cm²],left pressure 11[N/cm²],left pressure 12[N/cm²],left acceleration X[g],left acceleration Y[g],left acceleration Z[g],left total force[N],left center of pressure X[mm],left center of pressure Y[mm],right pressure 0[N/cm²],right pressure 1[N/cm²],right pressure 2[N/cm²],right pressure 3[N/cm²],right pressure 4[N/cm²],right pressure 5[N/cm²],right pressure 6[N/cm²],right pressure 7[N/cm²],right pressure 8[N/cm²],right pressure 9[N/cm²],right pressure 10[N/cm²],right pressure 11[N/cm²],right pressure 12[N/cm²],right acceleration X[g],right acceleration Y[g],right acceleration Z[g],right total force[N],right center of pressure X[mm],right center of pressure Y[mm]
0.02,1.0,0.0,0.0,1.0,0.0,0.0,0.0,0.0,1.0,0.75,0.0,0.5,0.5,-0.11,0.14,0.95,68.28,10.2,-11.3,0.0,0.5,0.0,0.5,0.25,0.0,0.0,0.75,0.0,1.5,0.0,0.25,1.0,0.02,0.14,0.95,71.68,6.8,-38.2
0.04,1.0,0.0,0.0,0.25,0.0,0.0,0.0,0.0,1.0,0.75,0.0,0.5,0.5,-0.11,0.14,0.95,65.99,8.8,-25.1,0.0,0.5,0.0,0.5,0.25,0.0,0.0,0.25,0.0,1.5,0.0,0.25,1.0,0.02,0.14,0.95,70.94,5.7,-38.2
0.06,1.25,0.0,0.0,0.75,0.0,0.0,0.0,0.0,1.0,0.75,0.0,0.5,0.5,-0.11,0.14,0.95,68.98,11.0,-9.8,0.0,0.5,0.0,0.75,0.25,0.0,0.0,0.75,0.0,1.5,0.0,0.25,1.0,0.02,0.14,0.95,72.86,5.6,-33.3
0.08,1.0,0.0,0.0,0.75,0.0,0.0,0.0,0.0,1.0,0.75,0.0,0.5,0.5,-0.11,0.14,0.95,69.08,9.8,-15.4,0.0,0.5,0.0,0.5,0.25,0.0,0.0,0.75,0.0,1.5,0.0,0.25,1.0,0.02,0.14,0.95,73.39,6.8,-38.2
0.1,1.0,0.0,0.0,0.75,0.0,0.0,0.0,0.0,1.0,0.75,0.0,0.5,0.5,-0.11,0.14,0.95,70.6,9.8,-15.4,0.0,0.5,0.0,0.5,0.5,0.0,0.0,0.5,0.0,1.5,0.0,0.25,1.0,0.02,0.14,0.95,73.84,6.1,-32.8
0.12,1.0,0.0,0.0,0.75,0.0,0.0,0.0,0.0,1.0,0.75,0.0,0.5,0.5,-0.11,0.14,0.95,70.0,9.8,-15.4,0.0,0.5,0.0,0.5,0.5,0.0,0.0,0.75,0.0,1.5,0.0,0.25,1.0,0.02,0.14,0.95,74.9,6.6,-33.1
0.14,0.75,0.0,0.0,1.0,0.0,0.0,0.0,0.0,1.0,0.5,0.0,0.5,0.5,-0.11,0.14,0.95,69.05,10.3,-13.6,0.0,0.25,0.0,0.5,0.5,0.0,0.25,0.75,0.25,1.25,0.75,0.5,1.0,0.02,0.14,0.95,81.77,2.8,-44.3
0.16,1.0,0.0,0.0,0.75,0.0,0.0,0.0,0.0,1.0,0.75,0.0,0.5,0.5,-0.11,0.08,0.95,68.38,9.8,-15.4,0.0,0.5,0.0,0.5,0.5,0.0,0.0,0.5,0.0,1.5,0.0,0.25,1.0,0.02,0.14,0.95,81.34,6.1,-32.8
0.18,1.0,0.0,0.0,1.0,0.0,0.0,0.0,0.0,1.0,0.75,0.0,0.5,0.5,-0.11,0.14,0.95,69.65,10.2,-11.3,0.0,0.25,0.0,0.5,0.5,0.0,0.0,0.75,0.0,1.5,0.0,0.25,1.0,0.02,0.14,0.95,81.31,7.7,-40.0
0.2,1.5,0.0,0.0,0.0,0.0,0.0,0.0,0.0,1.0,0.75,0.0,0.5,0.5,-0.11,0.14,0.95,68.07,11.2,-16.5,0.0,0.5,0.0,0.5,0.5,0.0,0.0,0.5,0.0,1.5,0.0,0.25,1.0,0.02,0.14,0.95,78.74,6.1,-32.8
0.22,0.75,0.0,0.0,0.75,0.0,0.0,0.0,0.0,1.0,0.75,0.0,0.5,0.5,-0.11,0.14,0.95,66.64,8.4,-21.6,0.0,0.5,0.0,0.5,0.5,0.0,0.0,0.5,0.0,1.5,0.0,0.25,1.0,0.02,0.14,0.95,76.94,6.1,-32.8
0.24,1.0,0.0,0.0,1.0,0.0,0.0,0.0,0.0,1.0,0.75,0.0,0.5,0.5,-0.11,0.14,0.95,68.3,10.2,-11.3,0.0,0.5,0.0,0.75,0.5,0.0,0.0,0.5,0.0,1.5,0.0,0.25,1.0,0.02,0.14,0.95,75.61,4.9,-28.2
0.26,0.5,0.0,0.0,0.5,0.0,0.0,0.0,0.0,1.0,0.75,0.0,0.5,0.5,-0.11,0.14,0.95,64.51,6.1,-34.7,0.0,0.5,0.0,0.75,0.25,0.0,0.0,0.5,0.0,1.5,0.0,0.25,1.0,0.02,0.14,0.95,75.51,5.0,-33.0
0.28,1.0,0.0,0.0,0.75,0.0,0.0,0.0,0.0,1.0,0.75,0.0,0.5,0.5,-0.11,0.14,0.95,65.62,9.8,-15.4,0.0,0.25,0.0,0.5,0.5,0.0,0.0,0.75,0.0,1.5,0.0,0.5,1.0,0.02,0.14,0.95,77.34,6.9,-43.4
0.3,1.0,0.0,0.0,1.0,0.0,0.0,0.0,0.0,1.0,0.75,0.0,0.5,0.5,-0.11,0.14,0.95,66.93,10.2,-11.3,0.0,0.25,0.0,0.75,0.25,0.0,0.0,0.75,0.25,1.5,0.0,0.25,0.5,0.02,0.14,0.95,74.35,4.8,-32.4
0.32,0.75,0.0,0.0,0.25,0.0,0.0,0.0,0.0,1.0,0.75,0.0,0.5,0.5,-0.11,0.14,0.95,64.69,7.1,-32.9,0.0,0.5,0.0,0.5,0.25,0.0,0.0,0.25,0.0,1.5,0.0,0.25,1.0,0.02,0.14,0.95,71.72,5.7,-38.2
0.34,1.0,0.0,0.0,0.5,0.0,0.0,0.0,0.0,1.0,0.75,0.0,0.5,0.25,-0.11,0.14,0.95,62.65,10.8,-14.1,0.0,0.5,0.0,0.5,0.5,0.0,0.0,0.75,0.0,1.5,0.0,0.25,0.75,0.02,0.14,0.95,70.43,6.3,-29.0
0.36,0.75,0.0,0.0,0.25,0.0,0.0,0.0,0.0,1.0,0.75,0.0,0.5,0.5,-0.11,0.14,0.95,59.34,7.1,-32.9,0.0,0.5,0.0,0.5,0.25,0.0,0.0,0.5,0.0,1.5,0.0,0.25,1.0,0.02,0.14,0.95,69.54,6.3,-38.2
0.38,1.0,0.0,0.0,0.5,0.0,0.0,0.0,0.0,1.0,0.75,0.0,0.5,0.5,-0.11,0.14,0.95,59.8,9.3,-20.0,0.0,0.5,0.0,0.5,0.5,0.0,0.0,1.0,0.0,1.5,0.0,0.25,1.0,0.02,0.14,0.95,73.2,7.1,-33.3
0.4,0.75,0.0,0.0,0.75,0.0,0.0,0.0,0.0,1.0,0.75,0.0,0.5,0.5,-0.11,0.14,0.95,60.19,8.4,-21.6,0.0,0.5,0.0,0.5,0.25,0.0,0.0,0.25,0.0,1.5,0.0,0.5,1.0,0.02,0.14,0.95,74.25,4.9,-42.0
0.42,0.75,0.0,0.0,0.0,0.0,0.0,0.0,0.0,1.0,0.5,0.0,0.5,0.5,-0.11,0.14,0.95,57.29,8.1,-37.0,0.0,0.5,0.0,0.5,0.25,0.0,0.0,0.75,0.0,1.5,0.0,0.25,0.75,0.02,0.14,0.95,73.73,6.5,-34.2
0.44,1.0,0.0,0.0,0.5,0.0,0.0,0.0,0.0,1.0,0.5,0.0,0.25,0.5,-0.11,0.14,0.95,56.57,11.0,-10.2,0.0,0.25,0.0,0.5,0.25,0.0,0.0,0.5,0.0,1.5,0.0,0.25,1.0,0.02,0.14,0.95,71.09,7.4,-46.3
0.46,0.75,0.0,0.0,0.0,0.0,0.0,0.0,0.0,1.0,0.75,0.0,0.5,0.5,-0.11,0.08,0.95,53.8,6.4,-39.8,0.0,0.5,0.0,0.75,0.25,0.0,0.0,0.75,0.25,0.0,0.0,0.25,0.75,0.02,0.14,0.95,65.01,-0.3,-10.7
0.48,0.75,0.0,0.0,0.75,0.0,0.0,0.0,0.0,1.0,0.5,0.0,0.25,0.5,-0.11,0.14,0.95,54.14,10.0,-12.2,0.0,0.5,0.0,0.5,0.5,0.0,0.0,0.75,0.0,1.5,0.0,0.25,0.75,0.02,0.14,0.95,65.64,6.3,-29.0
0.5,0.25,0.0,0.0,0.5,0.0,0.0,0.0,0.0,1.0,0.75,0.0,0.25,0.5,-0.11,0.14,0.95,52.57,3.8,-38.5,0.0,0.5,0.0,0.5,0.25,0.0,0.0,0.75,0.0,1.5,0.0,0.25,1.0,0.02,0.14,0.95,67.88,6.8,-38.2
0.52,1.0,0.0,0.0,0.5,0.0,0.0,0.0,0.25,1.0,0.75,0.0,0.25,0.5,-0.11,0.14,0.95,56.01,7.8,-15.8,0.0,0.5,0.0,0.5,0.5,0.0,0.0,1.0,0.0,1.5,0.0,0.5,0.75,0.02,0.14,0.95,73.99,6.1,-33.2
0.54,0.25,0.0,0.0,1.0,0.0,0.0,0.0,0.0,1.0,0.75,0.0,0.25,1.0,-0.11,0.08,0.95,59.54,3.3,-35.2,0.0,0.5,0.0,0.5,0.25,0.0,0.0,0.5,0.0,1.5,0.0,0.25,1.0,0.02,0.14,0.95,74.94,6.3,-38.2
0.56,1.0,0.0,0.0,0.75,0.0,0.0,0.0,0.0,1.0,0.75,0.0,0.25,0.5,-0.11,0.14,0.95,63.78,9.8,-9.8,0.0,0.5,0.0,0.5,0.5,0.0,0.0,0.5,0.0,1.5,0.0,0.25,1.0,0.02,0.14,0.95,76.0,6.1,-32.8
0.58,1.25,0.0,0.0,0.5,0.0,0.0,0.0,0.0,1.0,0.75,0.0,0.25,0.25,-0.11,0.14,0.95,64.27,12.4,-1.4,0.0,0.25,0.0,0.5,0.25,0.0,0.0,1.0,0.0,1.5,0.0,0.25,1.0,0.02,0.14,0.95,75.34,8.4,-45.6
0.6,1.0,0.0,0.0,0.0,0.0,0.0,0.0,0.0,1.0,0.75,0.0,0.25,0.5,-0.11,0.14,0.95,60.94,8.1,-25.3,0.0,0.5,0.0,0.5,0.5,0.0,0.0,0.5,0.0,1.5,0.0,0.25,1.0,0.02,0.14,0.95,75.27,6.1,-32.8
0.62,1.0,0.0,0.0,1.0,0.0,0.0,0.0,0.25,1.0,0.75,0.0,0.5,0.5,-0.11,0.14,0.95,65.19,8.8,-12.7,0.0,0.5,0.0,0.5,0.25,0.0,0.0,0.5,0.25,1.5,0.0,0.25,0.5,0.02,0.14,0.95,72.1,4.4,-29.7
0.64,1.0,0.0,0.0,0.5,0.0,0.0,0.0,0.0,1.0,1.25,0.0,0.25,0.5,-0.11,0.14,0.95,66.93,6.5,-21.2,0.0,0.5,0.0,0.5,0.25,0.0,0.0,0.5,0.0,1.5,0.0,0.25,0.75,0.02,0.14,0.95,70.33,5.9,-34.0
0.66,0.75,0.0,0.0,0.5,0.0,0.0,0.0,0.0,1.0,0.75,0.0,0.5,0.5,-0.11,0.14,0.95,67.57,7.8,-26.9,0.0,0.5,0.0,0.5,0.5,0.0,0.0,0.75,0.0,1.5,0.0,0.5,1.0,0.02,0.14,0.95,73.57,5.9,-36.6
0.68,1.0,0.0,0.0,1.0,0.0,0.0,0.0,0.0,1.0,1.25,0.0,0.25,0.5,-0.11,0.14,0.95,70.57,7.6,-12.9,0.0,0.5,0.0,0.5,0.25,0.0,0.0,0.5,0.0,1.5,0.0,0.25,0.75,0.02,0.14,0.95,71.86,5.9,-34.0
0.7,1.25,0.0,0.0,1.0,0.0,0.0,0.0,0.0,1.0,0.75,0.0,0.5,0.5,-0.11,0.14,0.95,74.11,11.3,-6.2,0.0,0.5,0.0,0.5,0.25,0.0,0.0,0.75,0.0,1.5,0.0,0.25,1.0,0.02,0.14,0.95,73.68,6.8,-38.2
0.72,1.0,0.0,0.0,0.0,0.0,0.0,0.0,0.0,1.0,0.75,0.0,0.5,0.5,-0.11,0.14,0.95,69.78,8.2,-31.0,0.0,0.5,0.0,0.5,0.25,0.0,0.0,0.75,0.0,1.5,0.0,0.25,1.0,0.02,0.14,0.95,72.93,6.8,-38.2
0.74,0.75,0.0,0.0,0.5,0.0,0.0,0.0,0.0,1.0,0.75,0.0,0.5,0.5,-0.11,0.14,0.95,66.2,7.8,-26.9,0.0,0.25,0.0,0.5,0.5,0.0,0.0,0.75,0.0,1.5,0.0,0.25,1.0,0.02,0.14,0.95,74.38,7.7,-40.0
0.76,0.75,0.0,0.0,0.5,0.0,0.0,0.0,0.0,1.0,0.75,0.0,0.5,0.5,-0.11,0.14,0.95,61.96,7.8,-26.9,0.0,0.5,0.0,0.5,0.25,0.0,0.0,0.75,0.0,1.5,0.0,0.25,1.0,0.02,0.14,0.95,74.37,6.8,-38.2
0.78,1.0,0.0,0.0,0.5,0.0,0.0,0.0,0.25,1.0,0.75,0.0,0.5,0.5,-0.11,0.14,0.95,62.58,7.8,-21.0,0.0,0.5,0.0,0.5,0.5,0.0,0.0,0.75,0.0,1.25,0.0,0.25,0.75,0.02,0.14,0.95,73.76,5.8,-26.5
0.8,0.5,0.0,0.0,0.5,0.0,0.0,0.0,0.0,1.0,0.75,0.0,0.5,0.5,-0.11,0.14,0.95,60.65,6.1,-34.7,0.0,0.5,0.0,0.5,0.25,0.0,0.0,0.5,0.0,1.5,0.0,0.25,0.75,0.02,0.14,0.95,70.9,5.9,-34.0
0.82,0.75,0.0,0.0,0.5,0.0,0.0,0.0,0.0,1.0,0.75,0.0,0.5,0.5,-0.11,0.08,0.95,60.93,7.8,-26.9,0.0,0.5,0.0,0.5,0.25,0.0,0.0,0.5,0.0,1.5,0.0,0.25,1.0,0.02,0.14,0.95,69.86,6.3,-38.2
0.84,0.75,0.0,0.0,0.0,0.0,0.0,0.0,0.0,1.25,0.5,0.0,0.5,0.5,-0.11,0.14,0.95,57.25,8.4,-37.1,0.0,0.25,0.0,0.5,0.5,0.0,0.0,0.75,0.0,1.5,0.0,0.25,1.0,0.02,0.14,0.95,71.53,7.7,-40.0
0.86,1.0,0.0,0.0,1.0,0.0,0.0,0.0,0.0,1.0,0.75,0.0,0.5,0.5,-0.11,0.14,0.95,60.48,10.2,-11.3,0.0,0.5,0.0,0.5,0.5,0.0,0.0,0.75,0.0,1.5,0.0,0.25,1.0,0.02,0.14,0.95,74.51,6.6,-33.1
0.88,0.75,0.0,0.0,0.25,0.0,0.0,0.0,0.0,1.0,0.75,0.0,0.5,0.5,-0.11,0.14,0.95,59.52,7.1,-32.9,0.0,0.5,0.0,0.5,0.5,0.0,0.0,0.75,0.0,1.5,0.0,0.25,1.0,0.02,0.14,0.95,76.63,6.6,-33.1
0.9,0.75,0.0,0.0,0.5,0.0,0.0,0.0,0.0,1.0,0.75,0.0,0.5,0.5,-0.11,0.14,0.95,60.55,7.8,-26.9,0.0,0.25,0.0,0.5,0.5,0.0,0.0,0.75,0.0,1.5,0.0,0.25,1.0,0.02,0.14,0.95,77.02,7.7,-40.0
0.92,0.75,0.0,0.0,0.0,0.0,0.0,0.0,0.0,1.0,0.75,0.0,0.25,0.5,-0.11,0.14,0.95,55.23,6.2,-34.3,0.0,0.5,0.0,0.5,0.25,0.0,0.0,0.75,0.0,1.5,0.0,0.5,1.0,0.02,0.14,0.95,78.72,6.1,-41.7
0.94,0.5,0.0,0.0,0.75,0.0,0.0,0.0,0.0,1.0,0.75,0.0,0.5,0.5,-0.11,0.14,0.95,56.36,6.8,-28.6,0.0,0.5,0.0,0.75,0.5,0.0,0.0,0.75,0.0,0.5,0.0,0.25,0.75,0.02,0.14,0.95,73.65,2.5,-12.3
0.96,0.75,0.0,0.0,0.0,0.0,0.0,0.0,0.0,0.75,0.75,0.0,0.5,0.5,-0.11,0.14,0.95,53.52,5.9,-39.9,0.0,0.5,0.0,0.5,0.25,0.0,0.0,0.75,0.0,1.5,0.0,0.25,1.0,0.02,0.14,0.95,73.41,6.8,-38.2
0.98,0.5,0.0,0.0,0.5,0.0,0.0,0.0,0.0,1.0,0.75,0.0,0.5,0.5,-0.11,0.14,0.95,54.46,6.1,-34.7,0.0,0.5,0.0,0.5,0.25,0.0,0.0,0.75,0.0,1.5,0.0,0.25,1.0,0.02,0.14,0.95,72.92,6.8,-38.2
1.0,0.75,0.0,0.0,0.0,0.0,0.0,0.0,0.0,1.0,0.75,0.0,0.5,0.5,-0.11,0.14,0.95,53.46,6.4,-39.8,0.0,0.5,0.0,0.5,0.5,0.0,0.0,0.75,0.0,1.5,0.0,0.5,1.0,0.02,0.14,0.95,77.0,5.9,-36.6
1.02,0.75,0.0,0.0,0.0,0.0,0.0,0.0,0.0,1.0,0.75,0.0,0.5,0.5,-0.11,0.14,0.95,53.53,6.4,-39.8,0.0,0.25,0.0,0.5,0.5,0.0,0.0,0.5,0.0,1.5,0.0,0.25,1.0,0.02,0.14,0.95,76.39,7.2,-40.1
1.04,1.0,0.0,0.0,0.5,0.0,0.0,0.0,0.0,0.75,0.75,0.0,0.25,0.5,-0.11,0.14,0.95,54.44,9.1,-12.7,0.0,0.25,0.0,0.75,0.25,0.0,0.0,0.75,0.0,1.5,0.0,0.25,1.0,0.02,0.14,0.95,76.95,6.6,-40.3
1.06,0.5,0.0,0.0,0.25,0.0,0.0,0.0,0.25,1.0,0.5,0.0,0.5,0.5,-0.11,0.14,0.95,54.3,5.2,-39.0,0.0,0.5,0.0,0.75,0.25,0.0,0.0,1.0,0.0,1.5,0.0,0.25,1.0,0.02,0.14,0.95,77.61,6.1,-33.6
1.08,0.75,0.0,0.0,0.75,0.0,0.0,0.0,0.0,0.75,1.0,0.0,0.5,0.5,-0.11,0.14,0.95,57.64,6.7,-23.8,0.0,0.5,0.0,0.5,0.25,0.0,0.0,1.0,0.0,1.5,0.0,0.25,1.0,0.02,0.14,0.95,78.2,7.3,-38.3
1.1,0.5,0.0,0.0,0.75,0.0,0.0,0.0,0.0,1.0,0.75,0.0,0.5,0.5,-0.11,0.14,0.95,58.76,6.8,-28.6,0.0,0.25,0.0,0.5,0.5,0.0,0.0,0.5,0.25,1.5,0.0,0.25,0.75,0.02,0.14,0.95,76.35,5.8,-36.1
1.12,1.0,0.0,0.0,0.0,0.0,0.0,0.0,0.0,1.0,0.75,0.0,0.5,0.5,-0.11,0.14,0.95,59.9,8.2,-31.0,0.0,0.5,0.0,0.5,0.25,0.0,0.0,0.5,0.0,1.5,0.0,0.5,1.25,0.02,0.14,0.95,77.61,5.9,-45.3
1.14,1.0,0.0,0.0,0.25,0.0,0.0,0.0,0.0,0.75,0.75,0.0,0.5,0.5,-0.11,0.14,0.95,58.69,8.5,-24.2,0.0,0.5,0.0,0.5,0.5,0.0,0.0,0.75,0.0,1.5,0.0,0.5,1.0,0.02,0.14,0.95,79.38,5.9,-36.6
1.16,0.75,0.0,0.0,0.5,0.0,0.0,0.0,0.0,1.0,0.75,0.0,0.5,0.5,-0.11,0.14,0.95,59.21,7.8,-26.9,0.0,0.5,0.0,0.75,0.25,0.0,0.0,0.75,0.0,1.5,0.0,0.25,1.0,0.02,0.14,0.95,79.81,5.6,-33.3
1.18,1.0,0.0,0.0,0.5,0.0,0.0,0.0,0.0,1.25,1.0,0.0,0.25,0.5,-0.11,0.14,0.95,61.93,8.1,-19.1,0.0,0.5,0.0,0.75,0.25,0.0,0.0,0.75,0.0,1.5,0.0,0.25,1.0,0.02,0.14,0.95,80.11,5.6,-33.3
1.2,1.0,0.0,0.0,0.5,0.0,0.0,0.0,0.0,1.0,0.75,0.0,0.5,0.5,-0.11,0.14,0.95,64.28,9.3,-20.0,0.0,0.5,0.0,0.5,0.5,0.0,0.0,0.75,0.0,1.5,0.0,0.25,1.0,0.02,0.14,0.95,79.13,6.6,-33.1
1.22,1.0,0.0,0.0,0.5,0.0,0.0,0.0,0.0,0.75,0.5,0.0,0.0,0.5,-0.11,0.14,0.95,61.13,11.1,-0.3,0.0,0.5,0.0,0.5,0.5,0.0,0.0,0.5,0.0,1.5,0.0,0.25,0.75,0.02,0.14,0.95,75.65,5.7,-28.5
1.24,0.5,0.0,0.0,0.25,0.0,0.0,0.0,0.0,1.0,0.5,0.0,0.0,0.5,-0.11,0.14,0.95,53.98,6.5,-26.2,0.0,0.5,0.0,0.5,0.5,0.0,0.0,0.75,0.0,1.5,0.0,0.5,0.75,0.02,0.14,0.95,75.36,5.5,-32.9
1.26,1.0,0.0,0.0,0.25,0.0,0.0,0.0,0.0,1.0,0.75,0.0,0.25,0.5,-0.11,0.14,0.95,51.99,8.8,-19.4,0.0,0.25,0.0,0.75,0.5,0.0,0.0,0.5,0.0,1.5,0.0,0.25,1.0,0.02,0.14,0.95,74.95,5.9,-34.9
1.28,1.0,0.0,0.0,1.0,0.0,0.0,0.0,0.0,1.0,0.5,0.0,0.0,0.5,-0.11,0.14,0.95,53.9,12.0,4.9,0.0,0.5,0.0,0.5,0.25,0.0,0.0,0.5,0.0,1.5,0.0,0.25,1.25,0.02,0.14,0.95,75.14,6.7,-42.0
1.3,1.25,0.0,0.0,0.25,0.0,0.0,0.0,0.0,1.0,0.5,0.0,0.25,0.5,-0.11,0.14,0.95,56.06,12.1,-8.2,0.0,0.25,0.0,0.5,0.25,0.0,0.0,0.5,0.0,1.5,0.0,0.25,1.0,0.02,0.14,0.95,72.45,7.4,-46.3
1.32,1.0,0.0,0.0,0.5,0.0,0.0,0.0,0.0,0.75,0.0,0.0,0.25,0.5,-0.11,0.14,0.95,53.87,15.4,3.1,0.0,0.5,0.0,0.5,0.25,0.0,0.0,0.75,0.0,1.5,0.0,0.25,1.0,0.02,0.14,0.95,72.94,6.8,-38.2
1.34,1.0,0.0,0.0,0.5,0.0,0.0,0.0,0.0,1.0,0.75,0.0,0.25,0.5,-0.11,0.14,0.95,55.88,9.3,-14.3,0.0,0.5,0.0,0.75,0.25,0.0,0.0,0.25,0.0,1.5,0.0,0.25,1.0,0.02,0.14,0.95,71.18,4.4,-32.7
1.36,1.0,0.0,0.0,1.0,0.0,0.0,0.0,0.0,1.0,0.25,0.0,0.25,0.5,-0.11,0.14,0.95,57.6,13.5,2.8,0.0,0.25,0.0,0.75,0.5,0.0,0.0,1.0,0.0,1.5,0.0,0.25,1.0,0.02,0.14,0.95,74.25,6.9,-35.2
1.38,0.75,0.0,0.0,0.0,0.0,0.0,0.0,0.25,0.75,0.75,0.0,0.25,0.5,-0.11,0.14,0.95,55.59,3.9,-34.4,0.0,0.25,0.0,0.5,0.25,0.0,0.0,0.75,0.0,1.5,0.0,0.25,1.0,0.02,0.14,0.95,74.0,7.9,-45.9
1.4,1.0,0.0,0.0,0.25,0.0,0.0,0.0,0.0,1.25,0.5,0.0,0.25,0.5,-0.11,0.14,0.95,55.74,10.7,-16.9,0.0,0.25,0.0,0.5,0.5,0.0,0.0,0.75,0.0,1.5,0.0,0.25,1.0,0.02,0.14,0.95,75.65,7.7,-40.0
1.42,0.5,0.0,0.0,0.25,0.0,0.0,0.0,0.0,0.5,0.5,0.0,0.0,0.5,-0.11,0.14,0.95,47.82,5.3,-23.4,0.0,0.25,0.0,0.75,0.5,0.0,0.0,0.75,0.25,1.25,0.0,0.25,1.0,0.02,0.14,0.95,76.19,5.1,-33.3
1.44,1.0,0.0,0.0,0.0,0.0,0.0,0.0,0.25,0.75,0.5,0.0,0.0,0.5,-0.11,0.14,0.95,45.44,7.6,-14.0,0.0,0.5,0.0,0.5,0.5,0.0,0.0,0.5,0.0,1.5,0.0,0.25,1.0,0.02,0.14,0.95,76.2,6.1,-32.8
1.46,0.75,0.0,0.0,0.25,0.0,0.0,0.0,0.0,1.0,0.75,0.0,0.25,0.5,-0.11,0.14,0.95,45.4,7.0,-27.4,0.0,0.5,0.0,0.5,0.25,0.0,0.0,0.25,0.0,1.5,0.0,0.25,1.0,0.02,0.14,0.95,73.37,5.7,-38.2
1.48,1.0,0.0,0.0,0.0,0.0,0.0,0.0,0.0,0.5,0.75,0.0,0.0,0.5,-0.11,0.08,0.95,44.36,7.3,-15.1,0.0,0.5,0.0,0.5,0.5,0.0,0.0,0.75,0.0,1.5,0.0,0.25,1.0,0.02,0.14,0.95,74.04,6.6,-33.1
1.5,1.0,0.0,0.0,0.5,0.0,0.0,0.0,0.0,0.75,0.75,0.0,0.0,0.5,-0.11,0.08,0.95,46.36,9.2,-5.7,0.0,0.5,0.0,0.5,0.25,0.0,0.0,0.75,0.0,1.5,0.0,0.25,1.0,0.02,0.14,0.95,74.24,6.8,-38.2
1.52,1.0,0.0,0.0,0.0,0.0,0.0,0.0,0.0,1.0,1.0,0.0,0.0,0.5,-0.11,0.08,0.95,48.25,6.3,-22.9,0.0,0.5,0.0,0.5,0.25,0.25,0.0,0.5,0.0,1.5,0.0,0.25,1.0,0.02,0.14,0.95,74.69,7.1,-34.7
1.54,1.0,0.0,0.0,0.0,0.0,0.0,0.0,0.0,1.0,0.75,0.0,0.0,0.5,-0.11,0.14,0.95,49.62,8.1,-18.8,0.0,0.5,0.0,0.75,0.5,0.0,0.0,0.75,0.0,1.5,0.0,0.5,1.0,0.02,0.14,0.95,78.59,4.9,-32.2
1.56,1.0,0.0,0.0,0.0,0.0,0.0,0.0,0.0,1.0,0.75,0.0,0.0,0.5,-0.11,0.14,0.95,49.12,8.1,-18.8,0.0,0.5,0.0,0.5,0.25,0.0,0.0,0.75,0.0,1.5,0.0,0.25,1.0,0.02,0.14,0.95,78.28,6.8,-38.2
1.58,1.0,0.0,0.0,0.0,0.0,0.0,0.0,0.0,1.0,0.5,0.0,0.0,0.5,-0.11,0.14,0.95,47.4,10.1,-13.9,0.0,0.5,0.0,0.75,0.25,0.0,0.0,1.0,0.25,1.25,0.0,0.25,1.0,0.02,0.14,0.95,79.96,4.8,-31.8
1.6,1.0,0.0,0.0,0.75,0.0,0.0,0.0,0.0,0.75,0.75,0.0,0.0,0.5,-0.11,0.14,0.95,50.95,9.7,-1.3,0.0,0.5,0.0,0.5,0.5,0.0,0.0,0.75,0.0,1.5,0.0,0.25,1.0,0.02,0.14,0.95,79.09,6.6,-33.1
1.62,1.0,0.0,0.0,0.5,0.0,0.0,0.0,0.0,0.75,0.25,0.0,0.0,0.5,-0.11,0.14,0.95,50.9,13.4,5.9,0.0,0.5,0.0,0.5,0.25,0.0,0.0,0.5,0.0,1.5,0.0,0.5,1.0,0.02,0.14,0.95,78.97,5.5,-41.9
1.64,1.0,0.0,0.0,0.75,0.0,0.0,0.0,0.0,1.0,0.5,0.0,0.0,0.5,-0.11,0.14,0.95,54.9,11.6,1.2,0.0,0.5,0.0,0.5,0.25,0.0,0.0,0.75,0.0,1.5,0.0,0.25,1.0,0.02,0.14,0.95,77.02,6.8,-38.2
1.66,1.0,0.0,0.0,0.75,0.0,0.0,0.0,0.0,1.0,0.75,0.0,0.0,0.5,-0.11,0.14,0.95,58.68,9.9,-3.6,0.0,0.25,0.0,0.75,0.25,0.0,0.0,0.5,0.0,1.5,0.0,0.25,1.0,0.02,0.14,0.95,75.01,6.0,-40.4
1.68,1.0,0.0,0.0,0.5,0.0,0.0,0.0,0.0,0.75,0.5,0.0,0.0,0.5,-0.11,0.08,0.95,57.61,11.1,-0.3,0.25,0.5,0.0,0.75,0.5,0.0,0.0,0.5,0.0,1.5,0.0,0.5,1.0,0.02,0.14,0.95,77.72,2.7,-26.6
1.7,1.0,0.0,0.0,0.5,0.0,0.0,0.0,0.0,0.75,0.25,0.0,0.0,0.5,-0.11,0.14,0.95,54.38,13.4,5.9,0.0,0.25,0.0,0.5,0.5,0.0,0.0,0.75,0.0,1.5,0.0,0.25,1.0,0.02,0.14,0.95,77.38,7.7,-40.0
1.72,1.0,0.0,0.0,0.75,0.0,0.0,0.0,0.0,1.0,0.5,0.0,0.0,0.5,-0.11,0.08,0.95,55.39,11.6,1.2,0.0,0.5,0.0,0.75,0.25,0.25,0.0,0.75,0.0,1.5,0.0,0.25,1.0,0.02,0.14,0.95,78.95,6.4,-30.3
1.74,1.0,0.0,0.0,0.5,0.0,0.0,0.0,0.0,1.0,0.25,0.0,0.0,0.5,-0.11,0.14,0.95,53.45,13.3,2.5,0.0,0.5,0.0,1.25,0.5,0.0,0.0,0.5,0.25,0.25,0.0,0.25,0.75,0.02,0.14,0.95,75.72,-2.1,-0.4
1.76,1.0,0.0,0.0,0.75,0.0,0.0,0.0,0.25,0.75,0.75,0.0,0.0,0.5,-0.11,0.14,0.95,57.0,8.0,-3.6,0.0,0.5,0.0,0.5,0.5,0.0,0.0,0.5,0.0,1.5,0.0,0.5,1.0,0.02,0.14,0.95,76.3,5.4,-36.5
1.78,1.0,0.0,0.0,0.5,0.0,0.0,0.0,0.0,0.5,0.5,0.0,0.0,0.5,-0.11,0.14,0.95,54.7,11.0,2.8,0.0,0.5,0.0,0.5,0.5,0.0,0.0,1.0,0.0,1.5,0.0,0.5,1.0,0.02,0.14,0.95,78.43,6.4,-36.7
1.8,1.0,0.0,0.0,0.5,0.0,0.0,0.0,0.0,1.0,0.75,0.0,0.0,0.5,-0.11,0.14,0.95,56.31,9.4,-7.9,0.0,0.25,0.0,0.5,0.25,0.0,0.0,1.25,0.0,1.5,0.0,0.25,1.0,0.02,0.14,0.95,80.67,8.8,-45.2
1.82,1.0,0.0,0.0,0.0,0.0,0.0,0.0,0.0,1.0,0.75,0.0,0.25,0.5,-0.11,0.08,0.95,53.93,8.1,-25.3,0.0,0.5,0.0,0.5,0.5,0.0,0.0,0.5,0.0,1.5,0.0,0.25,1.0,0.02,0.14,0.95,79.46,6.1,-32.8
1.84,1.0,0.0,0.0,0.5,0.0,0.0,0.0,0.0,1.0,0.5,0.0,0.25,0.5,-0.11,0.14,0.95,55.17,11.0,-10.2,0.0,0.25,0.0,0.5,0.5,0.0,0.0,0.75,0.0,1.5,0.0,0.25,1.0,0.02,0.14,0.95,78.25,7.7,-40.0
1.86,1.0,0.0,0.0,0.75,0.0,0.0,0.0,0.0,1.0,0.5,0.0,0.0,0.5,-0.11,0.14,0.95,56.51,11.6,1.2,0.0,0.25,0.0,0.5,0.25,0.0,0.0,0.5,0.0,1.5,0.0,0.25,0.75,0.02,0.14,0.95,72.75,7.0,-42.3
1.88,1.0,0.0,0.0,0.75,0.0,0.0,0.0,0.0,1.25,0.75,0.0,0.25,0.5,-0.11,0.14,0.95,61.46,9.9,-11.4,0.0,0.25,0.0,0.5,0.25,0.0,0.0,1.0,0.0,1.75,0.0,0.25,1.0,0.02,0.14,0.95,73.61,8.7,-47.0
1.9,1.0,0.0,0.0,0.5,0.0,0.0,0.0,0.25,1.0,0.75,0.0,0.25,0.5,-0.11,0.08,0.95,64.25,7.8,-15.8,0.0,0.5,0.0,0.0,0.5,0.0,0.0,0.5,0.25,0.75,0.0,0.25,0.75,0.02,0.14,0.95,66.47,5.7,-32.0
1.92,1.0,0.0,0.0,0.5,0.0,0.0,0.0,0.0,1.0,0.75,0.0,0.0,0.5,-0.11,0.14,0.95,64.5,9.4,-7.9,0.0,0.25,0.0,0.5,0.25,0.0,0.0,0.5,0.0,1.5,0.0,0.25,0.75,0.02,0.14,0.95,64.27,7.0,-42.3
1.94,1.0,0.0,0.0,0.5,0.0,0.0,0.0,0.0,1.0,0.75,0.0,0.0,0.5,-0.11,0.14,0.95,62.54,9.4,-7.9,0.0,0.5,0.0,0.5,0.25,0.0,0.0,0.0,0.0,1.5,0.0,0.25,1.0,0.02,0.14,0.95,61.29,5.0,-38.1
1.96,1.0,0.0,0.0,0.5,0.0,0.0,0.0,0.0,0.75,0.25,0.0,0.0,0.5,-0.11,0.14,0.95,56.56,13.4,5.9,0.0,0.25,0.0,0.5,0.25,0.0,0.0,0.0,0.0,1.5,0.0,0.25,0.75,0.02,0.14,0.95,58.57,5.7,-42.8
1.98,1.0,0.0,0.0,0.5,0.0,0.0,0.0,0.0,1.0,0.75,0.0,0.0,0.5,-0.11,0.08,0.95,55.79,9.4,-7.9,0.0,0.25,0.0,0.5,0.25,0.0,0.0,0.0,0.0,1.5,0.0,0.25,0.5,0.02,0.14,0.95,54.14,5.1,-37.7
2.0,1.0,0.0,0.0,0.5,0.0,0.0,0.0,0.0,0.75,0.0,0.0,0.0,0.5,-0.11,0.14,0.95,50.48,16.0,13.5,0.0,0.25,0.0,0.5,0.25,0.0,0.0,0.0,0.0,1.5,0.0,0.0,0.25,0.02,0.14,0.95,47.45,5.5,-24.8
2.02,1.0,0.0,0.0,0.5,0.0,0.0,0.0,0.0,1.0,0.75,0.0,0.0,0.5,-0.11,0.14,0.95,52.78,9.4,-7.9,0.0,0.0,0.0,0.5,0.25,0.0,0.0,0.0,0.0,1.5,0.0,0.25,0.25,0.02,0.14,0.95,42.92,5.9,-43.6
2.04,1.0,0.0,0.0,0.5,0.0,0.0,0.0,0.0,0.75,0.25,0.0,0.0,0.5,-0.11,0.14,0.95,49.48,13.4,5.9,0.0,0.25,0.0,0.5,0.25,0.0,0.0,0.0,0.0,1.5,0.0,0.25,0.25,-0.05,0.14,0.95,41.06,4.4,-31.6
2.06,1.0,0.0,0.0,0.5,0.0,0.0,0.0,0.0,1.0,0.0,0.0,0.0,0.5,-0.11,0.14,0.95,48.82,15.7,9.1,0.0,0.25,0.0,1.25,0.25,0.0,0.0,0.0,0.0,0.0,0.0,0.25,0.25,-0.05,0.14,0.95,38.63,-9.9,25.9
2.08,0.75,0.0,0.0,0.5,0.0,0.0,0.0,0.0,0.75,0.25,0.0,0.0,0.5,-0.11,0.14,0.95,44.73,11.5,-1.8,0.0,0.0,0.0,0.5,0.25,0.0,0.0,0.0,0.0,0.5,0.0,0.25,0.0,-0.05,0.14,0.95,31.63,-1.5,-12.3
2.1,1.0,0.0,0.0,0.25,0.0,0.0,0.0,0.0,1.0,0.0,0.0,0.0,0.5,-0.11,0.14,0.95,42.6,15.6,4.4,0.0,0.25,0.0,0.5,0.25,0.0,0.0,0.0,0.0,1.5,0.0,0.0,0.25,-0.05,0.14,0.95,32.1,5.5,-24.8
2.12,1.0,0.0,0.0,0.5,0.0,0.0,0.0,0.0,0.75,0.0,0.0,0.0,0.5,-0.11,0.14,0.95,40.9,16.0,13.5,0.0,0.5,0.0,0.5,0.25,0.0,0.0,0.0,0.0,1.0,0.0,0.0,0.0,0.02,0.14,0.95,30.88,0.4,9.1
2.14,1.0,0.0,0.0,0.5,0.0,0.0,0.0,0.0,0.75,0.5,0.0,0.0,0.5,-0.11,0.14,0.95,43.62,11.1,-0.3,0.0,0.25,0.0,0.5,0.25,0.0,0.0,0.0,0.0,1.25,0.0,0.0,0.25,0.02,0.08,0.95,34.03,4.5,-19.9
2.16,0.75,0.0,0.0,0.25,0.0,0.0,0.0,0.0,1.0,0.0,0.0,0.0,0.5,-0.11,0.14,0.95,42.38,13.8,-4.4,0.0,0.5,0.0,0.5,0.25,0.0,0.0,0.0,0.0,1.25,0.0,0.0,0.25,0.02,0.08,0.95,36.47,3.0,-9.1
2.18,0.75,0.0,0.0,0.25,0.0,0.0,0.0,0.0,0.75,0.0,0.0,0.0,0.5,-0.11,0.14,0.95,39.66,13.9,-0.6,0.0,0.25,0.0,0.5,0.25,0.0,0.0,0.0,0.0,1.0,0.0,0.0,0.0,-0.05,0.14,0.95,36.0,2.1,-2.0
2.2,1.0,0.0,0.0,0.0,0.0,0.0,0.0,0.0,0.75,0.0,0.0,0.0,0.5,-0.11,0.14,0.95,36.34,15.8,2.8,0.0,0.25,0.0,0.5,0.25,0.0,0.0,0.0,0.0,0.75,0.0,0.0,0.25,0.02,0.14,0.95,34.46,1.9,-6.5
2.22,1.0,0.0,0.0,0.25,0.0,0.0,0.0,0.0,0.75,0.25,0.0,0.0,0.25,-0.11,0.14,0.95,35.33,15.8,12.6,0.0,0.5,0.0,0.5,0.5,0.0,0.0,0.0,0.0,1.0,0.0,0.0,0.25,0.02,0.14,0.89,37.18,1.9,2.9
2.24,1.0,0.0,0.0,0.0,0.0,0.0,0.0,0.0,0.75,0.25,0.0,0.0,0.5,-0.11,0.14,0.95,35.54,12.5,-5.1,0.0,0.25,0.0,0.5,0.25,0.0,0.0,0.0,0.0,1.25,0.0,0.0,0.25,-0.05,0.08,0.95,38.74,4.5,-19.9
2.26,1.0,0.0,0.0,0.25,0.0,0.0,0.0,0.0,0.75,0.5,0.0,0.0,0.5,-0.11,0.14,0.95,38.83,10.6,-5.5,0.0,0.25,0.0,0.5,0.25,0.0,0.0,0.0,0.0,1.5,0.0,0.25,0.5,-0.05,0.02,0.95,44.22,5.1,-37.7
2.28,0.75,0.0,0.0,0.5,0.0,0.0,0.0,0.0,0.75,0.5,0.0,0.0,0.5,-0.11,0.14,0.95,42.58,9.2,-8.0,0.0,0.5,0.0,0.5,0.25,0.0,0.0,0.0,0.0,1.0,0.0,0.25,0.5,-0.05,0.14,0.95,47.09,1.9,-20.2
2.3,0.5,0.0,0.25,0.25,0.0,0.0,0.0,0.0,0.75,0.5,0.0,0.0,0.5,-0.11,0.14,0.95,43.74,9.0,-16.9,0.0,0.5,0.0,0.5,0.25,0.0,0.0,0.0,0.0,1.5,0.0,0.25,0.25,0.02,0.14,0.95,51.14,3.0,-21.5
2.32,0.75,0.0,0.0,0.0,0.0,0.0,0.0,0.0,0.75,0.75,0.0,0.0,0.5,-0.11,0.14,0.95,43.35,5.4,-27.0,0.0,0.5,0.0,0.5,0.25,0.0,0.0,0.0,0.0,1.5,0.0,0.25,0.25,-0.05,0.14,0.95,52.3,3.0,-21.5
2.34,0.5,0.0,0.0,0.0,0.0,0.0,0.0,0.0,0.75,0.5,0.0,0.0,0.5,-0.11,0.14,0.95,40.12,4.7,-34.7,0.0,0.25,0.0,0.5,0.25,0.0,0.0,0.0,0.0,1.5,0.0,0.25,1.0,0.08,0.14,0.95,56.39,6.2,-47.3
2.36,0.25,0.0,0.0,0.25,0.0,0.0,0.0,0.0,0.75,0.5,0.0,0.0,0.5,-0.11,0.14,0.95,37.45,3.0,-37.7,0.0,0.5,0.0,0.5,0.25,0.0,0.0,0.0,0.0,1.5,0.0,0.25,1.0,0.14,0.14,0.95,61.13,5.0,-38.1
2.38,0.25,0.0,0.25,0.5,0.0,0.0,0.0,0.0,0.75,0.5,0.0,0.0,0.5,-0.11,0.14,0.95,38.02,7.6,-19.5,0.0,0.5,0.0,0.5,0.25,0.0,0.0,1.0,0.0,1.25,0.0,0.75,1.25,0.02,0.14,1.02,73.55,5.8,-46.2
2.4,0.25,0.0,0.25,0.25,0.0,0.0,0.0,0.0,0.75,0.5,0.0,0.0,0.5,-0.11,0.14,0.95,38.78,6.6,-27.5,0.0,0.5,0.0,0.5,0.25,0.0,0.0,1.0,0.0,1.75,0.25,0.75,1.0,-0.05,0.14,0.95,86.17,5.6,-47.1
2.42,0.5,0.0,0.0,0.0,0.0,0.0,0.0,0.0,0.75,0.5,0.0,0.25,0.5,-0.11,0.08,0.95,39.43,5.1,-42.3,0.0,0.25,0.0,0.5,0.25,0.0,0.0,1.0,0.0,2.75,0.5,0.75,1.75,-0.17,0.02,0.89,107.48,7.8,-62.5
2.44,0.25,0.0,0.25,0.5,0.0,0.0,0.0,0.0,1.0,0.75,0.0,0.5,0.5,-0.11,0.14,0.95,45.86,6.5,-36.4,0.0,0.25,0.0,0.5,0.5,0.0,0.0,1.25,0.0,3.25,0.75,1.25,2.0,-0.11,0.08,0.89,132.85,7.1,-63.1
2.46,1.0,0.0,0.0,0.25,0.0,0.0,0.0,0.0,0.75,1.0,0.0,0.25,0.5,-0.11,0.14,0.95,51.09,6.9,-22.0,0.0,0.25,0.0,0.5,0.25,0.0,0.0,1.25,0.25,4.5,1.5,2.0,3.0,0.08,0.08,0.83,172.69,6.3,-73.1
2.48,1.0,0.0,0.5,0.25,0.0,0.0,0.0,0.0,0.75,0.75,0.0,0.25,0.5,-0.11,0.14,0.95,57.64,12.4,-7.8,0.0,0.0,0.0,0.5,0.5,0.0,0.0,1.5,0.25,5.5,1.75,2.5,3.75,0.02,0.08,0.95,216.22,6.9,-76.0
2.5,1.0,0.0,0.5,0.5,0.0,0.0,0.0,0.0,0.75,0.75,0.0,0.5,0.5,-0.17,0.08,0.95,64.15,12.5,-9.6,0.0,0.25,0.0,0.5,0.25,0.0,0.0,1.75,0.75,6.25,2.25,3.75,5.25,0.02,0.14,1.02,268.35,5.8,-78.8
2.52,1.0,0.0,0.5,0.5,0.0,0.0,0.0,0.0,1.0,0.75,0.0,0.25,0.5,-0.11,0.08,0.95,69.81,12.7,-5.6,0.0,0.25,0.0,0.5,0.5,0.0,0.0,2.75,0.75,7.0,4.0,4.75,5.75,0.02,0.08,0.95,330.68,5.0,-77.3
2.54,0.0,0.0,0.25,0.25,0.0,0.0,0.0,0.0,1.25,0.75,0.0,0.75,0.5,-0.11,0.08,0.95,70.39,4.5,-56.3,0.0,0.25,0.0,0.5,0.25,0.5,0.0,2.75,1.0,7.25,5.5,5.25,6.25,0.02,0.08,0.95,400.79,4.4,-77.5
2.56,1.0,0.0,0.0,0.25,0.0,0.0,0.0,0.0,1.0,1.5,0.0,1.0,1.5,-0.11,0.08,0.95,82.56,2.1,-52.0,0.0,0.5,0.0,0.5,0.5,0.0,0.0,2.75,0.75,7.5,5.75,5.75,6.75,0.02,0.08,0.95,469.35,4.0,-77.8
2.58,0.0,0.0,0.25,0.5,0.0,0.0,0.0,0.25,0.75,2.25,0.0,1.5,1.75,-0.17,0.08,0.95,100.5,-3.1,-71.6,0.0,0.0,0.0,0.5,0.5,0.0,0.0,2.75,0.75,7.75,6.25,5.75,7.5,0.08,0.08,0.95,520.79,4.4,-81.4
2.6,0.0,0.0,0.0,0.25,0.0,0.0,0.0,0.5,1.5,2.5,0.0,2.25,2.25,-0.17,0.08,0.95,128.09,-3.9,-80.7,0.0,0.5,0.0,0.5,0.5,0.5,0.0,3.0,0.75,7.75,6.5,5.75,7.5,0.02,0.08,0.95,555.76,4.4,-76.6
2.62,0.0,0.0,0.0,0.5,0.0,0.0,0.0,1.25,1.75,4.0,1.0,2.5,3.0,-0.11,0.08,0.95,172.19,-4.5,-76.3,0.0,0.5,0.0,0.5,0.5,0.25,0.0,3.0,0.75,7.75,6.75,5.75,7.5,0.08,0.08,0.95,572.46,4.1,-77.4
2.64,0.5,0.0,0.0,0.0,0.0,0.0,0.0,1.75,2.0,4.25,0.0,3.0,3.25,-0.11,0.08,0.95,209.82,-5.0,-75.4,0.0,0.5,0.0,0.5,0.5,0.25,0.0,3.0,0.75,7.5,6.75,5.75,7.75,0.08,0.08,0.95,577.73,4.1,-77.6
2.66,0.5,0.0,0.0,0.0,0.0,0.0,0.0,1.75,2.0,4.75,0.0,3.5,4.25,-0.11,0.02,0.95,244.69,-5.5,-78.6,0.0,0.25,0.0,0.5,0.5,0.25,0.0,2.75,0.75,7.5,6.75,5.75,7.5,0.08,0.08,0.95,568.36,4.1,-79.1
2.68,0.5,0.0,0.0,0.0,0.0,0.0,0.0,2.0,2.0,5.25,3.75,4.5,4.25,-0.11,0.02,0.95,286.59,-2.5,-78.9,0.0,0.25,0.0,0.5,0.5,0.0,0.0,3.0,0.75,7.5,6.25,5.75,7.5,0.02,0.08,0.95,550.63,4.3,-79.7
2.7,0.0,0.0,0.0,0.25,0.0,0.0,0.0,1.75,2.25,5.25,3.5,4.5,4.75,-0.11,0.02,0.95,324.13,-3.1,-81.8,0.0,0.25,0.0,0.5,0.25,0.75,0.0,2.75,1.0,7.0,5.5,5.5,6.75,0.02,0.08,0.95,516.65,4.5,-77.4
2.72,0.75,0.0,0.0,0.25,0.0,0.0,0.0,2.0,2.25,5.25,4.25,5.0,5.5,-0.11,0.02,0.95,366.23,-1.9,-77.6,0.25,0.5,0.0,0.5,0.5,0.5,0.0,2.75,0.75,7.0,5.75,5.25,6.75,0.08,0.08,0.95,487.28,4.0,-74.3
2.74,0.75,0.0,0.0,0.25,0.0,0.0,0.0,2.75,2.5,5.25,4.0,5.25,5.5,-0.11,0.02,0.95,396.83,-2.2,-76.4,0.0,0.5,0.0,0.5,0.5,0.5,0.0,3.0,0.75,7.0,5.75,5.0,6.25,0.08,0.08,0.95,456.73,4.4,-74.4
2.76,1.0,0.0,0.0,0.5,0.0,0.0,0.0,2.75,2.5,5.25,4.5,5.25,5.5,-0.11,0.02,0.95,425.15,-1.5,-73.6,0.0,0.5,0.0,0.5,0.5,0.5,0.0,2.75,0.75,6.75,5.25,5.0,6.0,0.08,0.08,0.95,429.02,4.4,-74.4
2.78,1.0,0.0,0.0,0.5,0.0,0.0,0.0,3.5,2.5,5.25,4.75,5.25,5.5,-0.11,0.02,0.95,442.37,-1.8,-72.7,0.0,0.5,0.0,0.75,0.5,0.5,0.0,2.75,0.75,6.5,5.0,4.25,5.75,0.08,0.08,0.95,401.34,4.5,-71.8
2.8,1.0,0.0,0.0,0.75,0.0,0.0,0.0,3.5,2.5,5.25,4.5,5.25,5.5,-0.11,0.02,0.95,449.6,-1.7,-71.5,0.5,0.5,0.0,0.75,0.5,0.75,0.0,2.75,0.75,6.25,4.25,3.75,5.25,0.08,0.08,0.95,376.89,4.3,-66.2
2.82,1.0,0.0,0.0,0.75,0.0,0.0,0.0,3.5,2.5,5.5,4.75,5.25,5.5,-0.11,0.02,0.95,452.63,-1.7,-71.5,0.5,0.25,0.0,0.75,0.5,1.25,0.0,3.0,0.25,6.0,4.0,3.75,5.0,0.08,0.08,0.95,354.14,5.2,-65.6
2.84,1.0,0.0,0.0,0.75,0.0,0.0,0.0,3.75,2.5,5.25,4.25,5.25,5.5,-0.17,0.02,0.95,445.51,-1.9,-71.2,0.75,0.5,0.0,0.75,0.5,1.0,0.25,3.0,0.25,5.75,4.0,3.0,4.5,0.08,0.08,0.95,331.42,4.4,-60.4
2.86,1.0,0.0,0.0,0.5,0.0,0.0,0.0,3.5,2.5,5.25,4.25,5.25,5.5,-0.17,0.02,0.95,433.84,-2.0,-72.7,0.75,0.5,1.0,1.0,0.5,1.25,0.25,3.25,0.0,5.25,3.75,2.5,3.5,0.08,0.14,0.95,310.57,2.6,-49.0
2.88,0.25,0.0,0.0,1.0,0.0,0.0,0.0,3.0,2.5,5.25,3.75,5.0,5.5,-0.17,0.02,0.95,415.12,-2.6,-74.9,0.75,0.5,1.25,0.75,0.5,1.0,0.5,2.75,0.5,4.75,2.75,2.5,3.0,0.08,0.14,0.95,289.04,1.3,-46.2
2.9,0.5,0.0,1.0,1.0,0.0,0.0,0.0,3.75,2.5,5.25,3.5,4.5,5.25,-0.17,0.02,0.95,399.31,-1.4,-66.3,1.0,0.5,1.25,0.75,0.5,1.0,0.75,2.75,0.75,4.75,1.75,2.5,3.0,0.08,0.14,0.95,273.21,1.1,-42.7
2.92,0.5,0.0,0.25,1.5,0.0,0.0,0.0,3.75,2.5,4.25,3.5,4.5,4.25,-0.17,0.02,0.95,376.2,-1.1,-65.4,0.75,0.5,1.5,0.75,0.5,1.25,0.75,3.0,1.25,4.75,1.75,2.5,3.0,0.08,0.14,0.95,265.8,1.1,-42.1
2.94,1.0,0.0,0.5,1.5,0.0,0.0,0.0,3.75,2.5,4.25,2.75,3.75,4.25,-0.17,0.02,0.95,355.6,-0.7,-59.3,0.75,0.5,2.75,1.0,0.5,1.25,1.0,2.75,0.75,4.75,1.75,2.25,2.75,0.08,0.14,0.95,264.4,-1.4,-33.2
2.96,1.0,0.0,0.0,1.75,0.0,0.0,0.0,3.25,2.5,4.0,1.75,3.5,3.25,-0.17,0.02,0.95,320.48,-0.9,-57.3,1.0,0.75,4.0,1.25,1.0,0.5,1.25,2.75,1.0,4.5,1.75,2.0,2.5,0.08,0.14,0.95,270.96,-5.1,-21.9
2.98,0.0,0.0,0.0,1.75,0.0,0.0,0.0,2.75,2.0,2.25,1.0,2.5,2.75,-0.11,0.02,0.95,274.24,-2.1,-59.8,1.0,0.75,4.0,1.25,1.0,0.75,1.25,2.75,1.5,4.5,2.0,1.75,2.5,0.08,0.14,0.95,281.25,-5.0,-21.4
3.0,1.0,0.0,0.25,1.75,0.0,0.0,0.0,2.0,2.0,1.75,0.0,1.5,1.75,-0.17,0.02,0.95,219.56,2.1,-36.0,2.0,0.75,5.25,2.0,0.5,1.0,1.25,2.75,1.5,4.5,1.75,1.75,2.0,0.08,0.14,0.95,299.22,-8.3,-9.7
3.02,1.0,0.0,1.25,2.0,0.0,0.0,0.25,1.25,1.5,0.75,0.0,1.0,0.75,-0.17,0.08,0.95,162.48,10.8,-6.3,2.25,0.75,6.0,2.0,1.25,1.25,1.5,2.75,1.25,4.5,2.5,1.75,1.75,0.02,0.14,0.89,330.04,-9.0,-5.1
3.04,1.25,0.0,2.25,3.5,0.0,0.0,0.0,0.25,1.25,0.75,0.0,0.5,0.5,-0.17,0.08,1.08,126.99,18.1,23.3,2.5,0.75,7.0,2.75,2.25,1.5,1.75,3.25,1.5,4.5,2.0,1.5,1.75,0.08,0.14,0.95,375.23,-9.3,2.7
3.06,2.75,0.0,3.75,3.5,0.0,0.0,0.0,0.0,1.0,0.5,0.0,0.5,0.5,-0.3,0.08,1.52,122.13,24.0,40.6,3.25,0.75,7.25,3.25,1.75,1.75,1.75,2.75,1.5,4.5,1.5,1.25,1.75,0.08,0.14,0.95,414.68,-10.6,8.2
3.08,2.75,0.0,4.25,3.5,0.0,0.0,1.0,0.25,1.0,0.0,0.0,0.5,0.5,-0.36,0.2,1.58,136.6,25.5,43.8,3.75,1.0,7.25,3.25,1.75,1.75,2.5,3.75,1.5,4.25,1.75,1.0,1.75,0.08,0.14,0.95,459.13,-10.6,9.8
3.1,0.0,0.0,5.0,0.0,0.0,0.0,0.0,0.0,0.0,0.0,0.0,0.0,0.0,-0.42,0.14,1.64,111.98,38.2,61.0,4.75,1.0,8.5,3.75,2.75,1.75,2.5,4.0,1.5,3.25,1.75,1.0,1.5,0.08,0.14,0.95,507.24,-12.5,18.6
3.12,0.0,0.0,0.0,0.0,0.0,0.0,0.0,0.0,2.25,0.0,0.0,0.5,0.0,-0.36,0.14,1.52,70.84,11.5,-51.6,4.75,1.25,9.0,4.5,3.75,1.75,2.75,4.0,1.5,3.25,1.75,1.0,1.25,0.08,0.14,0.95,561.28,-12.7,22.3
3.14,0.75,0.0,2.25,0.0,0.0,0.0,0.0,0.0,0.25,0.0,0.0,0.0,0.5,-0.48,0.27,1.27,33.92,28.8,38.0,5.5,1.5,9.25,5.0,4.5,1.75,3.0,3.25,1.5,3.0,0.75,0.75,1.0,0.08,0.14,0.95,605.77,-14.0,31.3
3.16,1.0,0.0,0.5,1.75,0.0,0.0,0.0,0.0,0.5,0.0,0.0,0.5,0.0,-0.3,0.52,1.2,19.55,22.0,36.3,5.75,1.5,9.75,5.5,4.5,1.75,3.0,3.0,1.25,2.25,0.5,0.5,1.0,0.08,0.14,0.95,634.48,-15.3,36.9
3.18,0.25,0.0,0.0,1.25,0.0,0.0,0.0,0.0,0.5,0.25,0.0,0.5,0.0,-0.55,-0.11,1.33,11.55,13.3,2.2,6.25,1.5,9.75,5.5,4.5,2.25,3.25,3.25,0.5,1.75,0.25,0.25,1.0,0.08,0.14,0.95,646.33,-15.5,41.6
3.2,0.0,0.0,0.0,0.0,0.0,0.0,0.0,0.25,0.5,0.0,0.0,0.0,0.0,-1.3,-1.61,1.27,4.28,2.4,-38.6,5.5,0.75,9.5,5.5,2.5,1.25,3.0,1.25,0.25,0.0,0.0,0.0,0.0,0.08,0.14,0.95,578.7,-23.0,59.2
3.22,1.0,0.0,0.0,0.0,0.0,0.0,0.0,0.0,0.25,0.0,0.0,0.5,0.0,-0.98,-1.36,0.83,2.42,23.9,16.2,6.25,0.75,9.75,5.5,2.5,1.5,3.0,1.25,0.25,0.0,0.0,0.0,0.0,0.08,0.14,0.95,521.14,-23.0,59.9
3.24,1.0,0.0,0.0,1.25,0.0,0.0,0.0,0.0,0.25,0.0,0.0,0.25,0.0,-0.8,-1.55,1.02,4.31,22.0,47.6,6.25,1.0,9.75,7.25,3.25,1.5,2.5,1.25,0.0,0.0,0.0,0.0,0.0,0.08,0.14,1.02,483.28,-21.9,60.9
3.26,1.0,0.0,0.0,0.5,0.0,0.0,0.0,0.0,1.0,0.0,0.0,0.0,0.0,-0.42,-1.55,1.2,8.22,21.9,34.2,7.0,1.5,11.0,7.25,4.75,1.0,2.5,0.75,0.0,0.0,0.0,0.0,0.0,0.08,0.2,1.02,492.18,-22.5,63.6
3.28,1.0,0.0,0.0,1.0,0.0,0.0,0.0,0.0,0.75,0.0,0.0,0.0,0.0,-0.23,-1.23,1.27,15.32,21.9,45.3,7.5,1.5,12.0,8.0,4.5,0.75,2.0,0.0,0.0,0.0,0.0,0.0,0.0,0.02,0.2,1.08,514.56,-24.3,66.5
3.3,0.0,0.0,0.0,0.75,0.0,0.0,0.0,0.0,0.75,0.0,0.0,0.0,0.0,-0.23,-0.98,1.33,15.07,14.7,11.1,8.0,1.5,12.0,9.0,4.5,0.5,1.75,0.0,0.0,0.0,0.0,0.0,0.0,0.02,0.27,1.02,550.12,-24.5,67.0
3.32,1.0,0.0,0.0,1.0,0.0,0.0,0.0,0.0,0.25,0.0,0.0,0.0,0.0,-0.23,-0.67,1.45,22.44,24.1,63.9,8.0,1.75,12.0,9.0,4.5,0.5,1.25,0.0,0.0,0.0,0.0,0.0,0.0,0.02,0.27,1.08,569.09,-24.3,67.5
3.34,1.0,0.0,0.0,1.0,0.0,0.0,0.0,0.0,0.75,0.0,0.0,0.0,0.0,-0.17,0.02,1.77,33.56,21.9,45.3,8.25,1.25,12.5,9.0,4.5,0.5,1.25,0.0,0.0,0.0,0.0,0.0,0.0,0.02,0.33,1.14,578.64,-24.8,67.1
3.36,0.0,0.0,0.0,1.0,0.0,0.0,0.0,0.0,0.75,0.0,0.0,0.0,0.0,-0.11,0.58,1.83,34.3,15.1,17.9,8.25,1.5,12.0,9.0,4.5,0.25,1.25,0.0,0.0,0.0,0.0,0.0,0.0,0.02,0.33,1.2,581.93,-24.8,67.6
3.38,0.0,0.0,0.0,0.0,0.0,0.0,0.0,0.0,0.75,0.0,0.0,0.0,0.0,-0.05,1.27,1.77,25.49,12.1,-38.5,8.25,2.0,12.0,9.0,4.5,0.0,1.25,0.0,0.0,0.0,0.0,0.0,0.0,-0.05,0.33,1.27,588.66,-24.9,68.3
3.4,1.0,0.0,0.0,0.5,0.0,0.0,0.0,0.0,0.75,0.0,0.0,0.0,0.0,0.27,2.39,1.58,27.12,23.0,42.4,8.0,2.0,11.0,9.0,4.25,0.0,1.25,0.0,0.0,0.0,0.0,0.0,0.0,0.02,0.39,1.39,584.02,-24.7,68.4
3.42,1.0,0.0,0.0,1.0,0.0,0.0,0.0,0.0,0.75,0.0,0.0,0.0,0.0,0.77,3.2,1.14,33.51,21.9,45.3,7.25,1.25,9.75,5.75,1.0,0.0,2.0,0.0,0.0,0.0,0.0,0.0,0.0,0.08,0.52,1.7,516.89,-29.2,70.1
3.44,1.0,0.0,0.0,0.75,0.0,0.0,0.0,0.0,0.5,0.0,0.0,0.0,0.0,1.58,5.2,1.83,37.8,23.5,53.2,4.75,0.0,8.75,3.25,0.5,0.0,2.5,0.0,0.0,0.0,0.0,0.0,0.0,-0.17,1.14,2.39,408.55,-31.9,66.8
3.46,1.0,0.0,0.0,1.0,0.0,0.0,0.0,0.0,0.75,0.0,0.0,0.5,0.5,0.7,5.83,1.45,46.31,15.2,3.3,2.25,0.0,6.0,1.0,0.0,0.0,1.25,0.0,0.0,0.0,0.0,0.0,0.0,-0.05,1.33,2.83,281.72,-35.0,66.4
3.48,0.0,0.0,0.0,0.0,0.0,0.0,0.0,0.0,0.0,0.0,0.0,0.0,2.25,-0.3,0.02,2.7,47.68,-13.6,-109.9,0.75,0.0,4.0,0.5,0.0,0.0,0.25,0.0,0.0,0.0,0.0,0.0,0.0,-0.11,0.2,2.7,169.36,-35.7,64.6
3.5,1.0,0.0,0.0,1.25,0.0,0.0,0.0,0.0,1.0,2.25,0.0,2.25,3.0,0.39,0.33,1.33,93.39,0.8,-57.9,0.75,0.5,1.0,1.25,0.0,0.0,0.0,0.0,0.0,0.75,0.0,0.0,0.0,0.27,-0.36,2.14,64.56,-18.8,46.8
3.52,0.25,0.0,0.0,1.0,0.0,0.0,0.0,0.0,1.0,2.5,0.0,2.25,3.0,-0.17,0.27,1.95,129.3,-2.3,-72.1,0.0,0.0,1.5,0.75,0.5,0.0,0.0,0.0,0.0,0.25,0.0,0.0,0.25,0.27,-0.67,4.02,0.0,-18.5,36.1
3.54,0.25,0.0,0.0,1.25,0.0,0.0,0.0,1.25,2.0,4.25,0.0,2.5,3.75,-0.17,0.14,1.33,187.54,-4.1,-67.9,0.5,0.5,1.25,0.75,0.25,0.0,0.25,0.0,0.0,0.0,0.0,0.0,0.25,0.08,-1.3,1.77,0.0,-22.8,56.7
3.56,0.0,0.0,0.0,0.0,0.0,0.0,0.0,2.75,2.75,6.25,0.0,4.5,4.5,-0.23,0.14,1.02,248.92,-6.4,-80.8,0.0,0.0,0.0,0.5,0.0,0.0,0.0,0.0,0.0,0.0,0.0,0.0,0.0,0.39,-1.05,0.95,0.0,-17.2,57.9
3.58,0.0,0.0,0.0,0.5,0.0,0.0,0.0,4.5,3.75,6.5,5.75,5.75,6.0,-0.17,0.02,0.95,351.77,-2.9,-76.6,0.0,0.0,0.0,0.5,0.0,0.0,0.0,0.0,0.0,0.0,0.0,0.0,0.0,0.08,-0.98,1.08,0.0,-17.2,57.9
3.6,1.0,0.0,0.5,1.75,0.0,0.0,0.25,5.25,4.75,7.0,6.5,5.75,6.25,-0.11,0.02,1.02,482.57,-0.5,-64.2,0.5,0.25,1.0,0.75,0.5,0.0,0.0,0.0,0.0,0.25,0.0,0.0,0.0,0.08,-0.8,1.27,0.0,-19.7,56.8
3.62,1.0,0.0,2.0,1.75,0.0,0.0,0.5,5.75,5.25,7.0,6.5,5.75,6.25,-0.11,0.02,1.02,614.27,0.9,-58.6,0.75,0.0,1.0,0.75,0.5,0.0,0.25,0.0,0.0,0.0,0.0,0.0,0.0,0.08,-0.48,1.27,0.0,-24.7,65.6
3.64,1.25,0.0,2.25,3.0,0.0,0.5,0.5,6.0,5.5,6.25,6.25,5.25,5.75,-0.11,-0.05,1.02,696.87,1.8,-50.5,0.5,0.0,0.5,0.5,0.5,0.0,0.25,0.0,0.0,0.0,0.0,0.0,0.0,0.02,-0.05,1.14,0.0,-21.3,64.2
3.66,1.25,0.0,4.0,2.5,0.0,0.5,0.5,6.0,5.25,5.75,5.5,4.5,5.5,-0.11,-0.05,0.95,725.13,3.2,-44.9,0.5,0.25,0.0,1.25,0.0,0.0,0.0,0.0,0.0,0.75,0.0,0.0,0.0,0.02,0.2,1.08,0.0,-10.8,32.4
3.68,1.75,0.0,4.25,3.5,0.0,0.5,0.75,5.5,5.0,4.75,4.5,3.5,4.25,-0.11,0.02,0.95,694.13,5.2,-34.0,0.5,0.5,0.25,0.75,1.25,0.0,0.0,0.0,0.0,0.0,0.0,0.0,0.0,0.02,0.33,1.39,25.83,-11.9,67.7
3.7,2.75,0.25,5.25,5.5,0.0,0.5,0.75,4.75,4.25,4.0,3.0,2.5,3.0,-0.11,0.02,0.95,642.78,8.8,-14.1,0.25,0.5,0.0,0.75,0.5,0.0,0.0,0.0,0.0,0.0,0.0,0.0,0.0,0.02,0.52,1.64,36.15,-12.4,71.1
3.72,2.75,0.75,6.5,5.5,0.0,0.5,0.75,4.5,3.5,2.25,1.5,1.5,1.75,-0.11,0.02,0.95,572.36,12.3,4.6,0.0,0.5,0.25,0.75,0.25,0.0,0.0,0.0,0.0,0.0,0.0,0.0,0.0,-0.11,1.02,1.89,38.36,-15.6,69.0
3.74,3.5,1.0,7.25,6.0,0.0,0.5,0.75,3.5,2.5,1.0,0.0,1.25,1.0,-0.11,0.02,0.95,496.48,16.8,25.2,0.25,0.5,0.0,0.75,0.25,0.0,0.0,0.0,0.0,0.0,0.0,0.0,0.0,-0.23,1.58,2.33,35.94,-14.9,73.9
3.76,4.25,1.25,7.5,7.25,0.0,0.5,0.5,2.0,2.0,0.75,0.0,0.75,0.5,-0.11,0.08,0.95,438.79,20.4,40.3,0.0,0.5,0.0,0.75,0.5,0.0,0.0,0.0,0.0,0.0,0.0,0.0,0.0,-0.42,2.14,2.58,34.08,-9.6,67.7
3.78,5.75,1.25,8.0,7.5,0.0,0.0,0.5,1.0,1.5,0.75,0.0,0.5,0.5,-0.11,0.08,1.02,396.46,23.8,49.6,0.0,0.5,0.0,0.5,0.5,0.0,0.0,0.0,0.0,0.0,0.0,0.0,0.0,-0.23,2.95,1.7,31.07,-8.4,69.3
3.8,6.5,1.25,8.5,8.5,0.0,0.0,0.5,0.25,1.25,0.75,0.0,0.5,0.5,-0.17,0.08,1.08,379.07,25.3,54.4,0.5,0.5,0.0,0.5,0.5,0.0,0.0,0.0,0.0,0.0,0.0,0.0,0.0,0.14,3.7,0.7,34.17,-14.3,75.7
3.82,7.25,1.75,9.0,8.5,0.0,0.0,0.25,0.25,1.25,0.75,0.0,0.5,0.5,-0.11,0.08,1.14,378.92,25.5,56.4,0.0,0.25,0.0,1.25,0.0,0.0,0.0,0.0,0.0,0.0,0.0,0.0,0.0,-0.05,4.02,-0.23,30.3,-16.4,64.6
3.84,7.75,2.5,9.25,8.75,0.0,0.0,0.0,0.25,1.0,0.75,0.0,0.5,0.5,-0.17,0.14,0.95,397.52,25.4,59.0,0.0,0.0,0.0,0.0,0.0,0.0,0.0,0.0,0.0,0.0,0.0,0.0,0.0,-1.05,4.14,0.08,16.73,0.0,0.0
3.86,8.25,2.75,9.5,9.75,0.0,0.0,0.0,0.25,1.0,0.5,0.0,0.5,0.5,-0.11,0.14,0.95,431.74,25.6,60.8,0.25,0.0,0.0,0.5,0.0,0.0,0.0,0.0,0.0,1.5,0.0,0.75,0.0,-2.36,7.52,1.83,23.45,0.0,-47.2
3.88,8.75,4.0,9.75,9.75,0.0,0.0,0.0,0.25,1.0,0.5,0.0,0.5,0.5,-0.11,0.2,0.95,476.73,25.3,62.7,0.0,0.0,0.0,0.0,0.5,0.0,0.0,0.0,0.0,4.5,1.25,3.25,3.75,0.27,-0.3,1.83,94.68,6.2,-88.1
3.9,8.75,4.0,9.75,11.0,0.0,0.0,0.0,0.25,1.0,0.25,0.0,0.5,0.5,-0.17,0.2,1.02,522.39,25.3,63.5,0.0,0.0,0.0,0.0,0.0,0.0,0.0,0.0,0.0,7.75,4.0,5.5,7.0,-0.05,0.7,2.2,213.41,5.3,-93.4
3.92,9.0,4.25,9.75,11.0,0.0,0.0,0.0,0.0,0.75,0.0,0.0,0.0,0.5,-0.17,0.27,1.08,554.91,26.2,68.8,0.0,0.0,0.0,0.5,1.0,0.25,0.0,3.75,1.5,9.25,7.5,6.25,8.25,-0.05,0.77,2.77,367.08,4.5,-77.2
3.94,8.75,4.0,9.25,9.75,0.0,0.0,0.0,0.25,1.0,0.0,0.0,0.5,0.25,-0.11,0.27,1.08,561.83,26.0,66.1,0.75,0.75,0.0,0.75,1.25,1.75,0.0,5.25,2.0,9.25,8.5,6.25,8.25,0.14,0.14,1.14,564.46,3.9,-64.5
3.96,9.75,3.75,10.5,11.0,0.0,0.0,0.0,0.0,0.75,0.0,0.0,0.5,0.25,-0.11,0.33,1.14,579.21,26.8,67.6,0.75,0.5,1.0,2.0,2.5,1.75,0.25,6.25,2.75,9.0,8.75,6.0,7.75,0.14,0.14,1.02,748.31,2.3,-54.2
3.98,8.5,0.0,9.75,9.25,0.0,0.0,0.0,0.0,0.75,0.0,0.0,0.5,0.25,-0.23,0.39,1.14,535.57,28.7,63.0,1.25,0.5,4.0,2.75,2.5,2.0,1.25,7.0,2.75,9.5,9.0,5.75,7.75,0.2,0.14,0.95,897.69,-0.4,-43.7
4.0,8.0,0.0,8.5,8.5,0.0,0.0,0.0,0.0,0.25,0.0,0.0,0.0,0.0,-0.36,0.52,1.39,472.96,29.6,69.8,2.25,0.75,6.25,3.25,3.75,2.0,1.5,7.0,3.25,9.0,8.75,5.75,7.25,0.14,0.14,0.95,1014.7,-2.8,-32.6
4.02,6.75,0.0,6.5,5.5,0.0,0.0,0.0,0.0,0.25,0.0,0.0,0.0,0.0,-0.67,0.95,2.02,377.09,30.4,71.0,2.75,1.0,8.0,4.0,4.5,3.0,1.75,7.25,3.5,8.75,8.25,5.25,6.25,0.2,0.08,0.95,1109.89,-4.1,-22.8
4.04,4.75,0.0,4.75,3.75,0.0,0.0,0.0,0.0,0.25,0.0,0.0,0.0,0.0,-0.8,1.58,2.77,288.45,30.5,70.3,3.5,1.25,8.5,4.5,4.5,3.0,2.25,7.0,3.25,7.75,7.75,4.5,5.75,0.2,0.08,0.95,1164.85,-5.3,-16.3
4.06,2.75,0.0,0.0,2.5,0.0,0.0,0.0,0.0,0.25,0.0,0.0,0.0,0.0,-0.73,0.95,2.77,187.27,25.3,72.4,4.75,1.25,9.0,5.0,4.5,2.75,2.5,6.25,2.75,7.0,6.5,3.0,4.5,0.2,0.14,0.95,1164.92,-7.2,-6.0
4.08,0.0,0.0,0.0,0.0,0.0,0.0,0.0,0.0,0.0,0.0,0.0,0.0,0.0,-0.48,0.14,2.45,68.27,0.0,0.0,5.0,1.5,9.75,5.25,4.5,2.0,2.5,5.25,2.0,4.5,4.0,1.75,2.75,0.14,0.14,0.95,1073.12,-10.4,10.0
4.1,0.0,0.0,0.0,0.0,0.0,0.0,0.0,0.0,0.0,0.0,0.0,0.0,0.0,-0.55,-0.23,1.95,0.0,0.0,0.0,5.5,1.5,9.75,5.5,4.5,2.0,2.25,4.25,1.75,3.25,2.75,1.0,2.0,0.14,0.14,0.95,939.79,-12.3,21.0
4.12,0.0,0.0,0.0,0.0,0.0,0.0,0.0,0.0,0.0,0.0,0.0,0.0,0.0,-0.8,-1.05,2.64,0.0,0.0,0.0,5.5,1.5,10.0,5.5,4.5,2.0,2.0,3.0,1.5,3.25,1.75,0.25,1.5,0.14,0.14,0.95,795.17,-13.7,29.5
4.14,0.0,0.0,0.0,0.0,0.0,0.0,0.0,0.0,0.0,0.0,0.0,0.0,0.0,-0.3,-0.92,1.89,0.0,0.0,0.0,5.5,1.5,10.5,5.25,4.5,2.0,1.75,2.5,0.75,1.25,0.5,0.0,1.0,0.14,0.14,0.95,663.7,-16.6,44.1
4.16,0.0,0.0,0.0,0.0,0.0,0.0,1.5,0.0,1.25,0.0,0.0,0.0,0.0,-0.67,-0.67,0.64,0.0,19.6,-14.3,6.25,1.5,11.0,5.5,4.5,1.75,1.25,1.5,0.75,1.25,0.25,0.0,1.0,0.08,0.14,0.95,574.42,-18.3,48.7
4.18,0.0,0.0,0.0,0.0,0.0,0.0,3.75,0.0,0.0,0.0,0.0,0.0,0.0,-0.42,-0.67,0.39,0.0,32.4,27.3,6.25,0.75,9.0,5.0,1.5,1.75,1.25,1.0,0.0,0.0,0.0,0.0,0.25,0.08,0.14,0.95,462.05,-23.3,61.2
4.2,0.0,0.0,0.0,0.0,0.0,0.0,3.5,0.0,0.75,0.0,0.0,0.0,0.0,-0.11,-0.67,0.58,0.0,26.2,7.1,5.75,0.0,9.75,6.25,2.25,2.0,1.25,0.5,0.25,0.0,0.0,0.0,0.25,0.08,0.14,0.95,393.53,-22.9,59.8
4.22,0.0,0.0,0.0,1.75,0.0,0.0,0.0,0.0,0.25,0.0,0.0,0.0,0.0,-0.23,-0.55,0.89,0.0,16.6,46.4,6.25,0.0,9.75,5.5,1.75,0.75,0.75,0.0,0.0,0.0,0.0,0.0,0.0,0.08,0.2,0.95,333.42,-27.3,67.1
4.24,0.0,0.0,0.0,1.5,0.0,0.0,0.0,0.0,0.25,0.0,0.0,0.0,0.0,-0.3,-0.36,1.08,0.0,16.5,44.8,6.25,0.75,9.75,6.0,2.5,1.75,0.25,0.0,0.5,0.0,0.0,0.0,0.0,0.08,0.2,0.95,320.98,-23.8,64.7
4.26,0.0,0.0,0.0,0.0,0.0,0.0,0.0,0.0,0.25,0.0,0.0,0.0,0.0,-0.23,-0.05,1.02,0.0,12.1,-38.5,7.0,1.0,11.0,6.25,3.5,1.0,0.25,0.0,0.0,0.0,0.0,0.0,0.0,0.08,0.2,0.95,332.8,-24.7,67.5
4.28,0.0,0.0,0.0,0.0,0.0,0.0,0.0,0.0,0.25,0.0,0.0,0.0,0.0,-0.3,0.08,1.08,1.0,12.1,-38.5,7.5,2.0,11.0,7.25,4.5,1.25,0.25,0.0,0.0,0.0,0.0,0.0,0.0,0.08,0.27,0.95,382.83,-23.0,67.9
4.3,0.0,0.0,0.0,0.0,0.0,0.0,0.0,0.0,0.0,0.0,0.0,0.0,0.0,-0.3,0.2,1.27,4.04,0.0,0.0,8.0,3.0,13.0,9.0,4.75,1.25,0.75,0.0,0.0,0.0,0.0,0.0,0.0,0.08,0.27,1.08,471.51,-23.2,67.8
4.32,0.0,0.0,0.0,0.0,0.0,0.0,0.0,0.0,0.0,0.0,0.0,0.0,0.0,-0.36,0.33,1.58,3.55,0.0,0.0,8.75,2.5,12.5,11.0,5.5,1.75,0.5,0.0,0.0,0.0,0.0,0.0,0.0,0.08,0.27,1.08,576.8,-22.0,67.0
4.34,0.0,0.0,0.0,0.0,0.0,0.0,3.75,0.0,3.0,0.0,0.0,0.0,0.0,-0.42,0.58,1.77,25.57,19.8,-13.6,9.25,3.0,12.0,11.5,4.75,0.0,0.5,0.0,0.0,0.75,0.0,0.0,0.0,0.02,0.27,1.08,655.07,-23.4,66.7
4.36,0.0,0.0,0.0,0.0,0.0,0.0,4.75,0.0,3.0,0.0,0.0,0.0,0.0,-0.48,0.89,2.14,50.05,20.9,-9.9,9.25,4.75,12.5,10.5,5.25,0.0,0.25,0.0,0.0,0.0,0.0,0.0,0.0,0.02,0.33,1.14,713.97,-23.6,70.6
4.38,0.0,0.0,0.0,0.0,0.0,0.0,4.0,0.0,3.0,0.0,0.0,0.0,0.0,-0.55,1.39,2.64,69.89,20.1,-12.6,8.5,3.0,12.5,11.0,4.5,0.0,0.0,0.0,0.0,0.0,0.0,0.0,0.0,0.02,0.33,1.14,726.65,-24.3,69.2
4.4,0.0,0.0,0.0,0.0,0.0,0.0,4.0,0.0,2.0,0.0,0.0,0.0,0.0,-0.42,3.27,1.14,74.08,22.1,-6.0,8.5,3.25,12.5,10.5,4.75,0.0,0.0,0.0,0.0,0.0,0.0,0.0,0.0,0.08,0.39,1.27,725.04,-24.1,69.4
4.42,0.0,0.0,0.25,0.5,0.0,0.0,0.0,0.0,0.25,0.0,0.0,0.0,0.0,-0.42,3.95,0.77,59.99,21.2,35.5,8.25,3.0,12.0,9.0,4.5,0.0,0.25,0.0,0.0,0.0,0.0,0.0,0.0,0.08,0.45,1.52,698.31,-24.5,69.6
4.44,0.0,0.0,0.0,0.5,0.0,0.0,0.0,0.0,0.25,0.0,0.0,0.0,0.0,0.45,4.52,0.2,40.64,15.5,27.0,7.25,1.5,9.75,7.25,2.75,0.0,0.75,0.0,0.0,0.0,0.0,0.0,0.0,0.2,0.64,1.89,608.29,-26.1,69.4
4.46,0.0,0.0,0.0,0.0,0.0,0.0,0.0,0.0,0.25,0.0,0.0,0.0,0.0,1.58,6.39,0.58,21.95,12.1,-38.5,5.75,1.0,8.25,3.25,0.0,2.0,0.75,0.0,0.0,0.0,0.0,0.0,0.0,0.02,1.52,2.83,470.03,-26.9,68.9
4.48,0.0,0.0,0.0,1.5,0.0,0.0,2.5,2.75,0.0,0.0,0.0,0.0,0.0,-0.55,-0.42,0.27,41.12,3.5,3.1,3.0,0.75,6.0,3.25,0.0,0.25,0.75,0.0,0.0,0.0,0.0,0.0,0.0,0.02,1.27,2.45,326.64,-29.7,68.5
4.5,0.0,0.0,0.0,0.25,0.0,0.0,0.0,0.0,0.75,1.25,0.0,2.5,2.0,0.2,-0.05,0.27,72.69,-1.7,-89.3,0.75,0.0,4.0,0.75,0.25,0.0,0.0,0.0,0.0,0.0,0.0,0.0,0.0,-0.05,0.27,2.45,201.81,-33.0,64.6
4.52,0.0,0.0,0.0,0.75,0.0,0.0,0.0,0.0,1.25,4.25,1.0,3.5,4.75,-0.11,0.45,2.58,150.05,-4.0,-84.3,1.0,0.5,1.25,1.5,0.25,0.25,0.0,0.0,0.0,0.0,0.0,0.0,0.25,0.58,-0.61,1.7,88.49,-20.7,60.3
4.54,0.0,0.0,0.0,0.0,0.0,0.0,0.0,3.0,1.75,5.75,0.0,4.5,5.75,-0.55,0.45,2.08,230.56,-7.7,-84.3,0.75,0.75,1.0,1.25,0.25,0.0,0.0,0.0,0.0,0.25,0.0,0.0,0.25,0.2,-1.11,3.52,2.96,-19.0,54.6
4.56,0.0,0.0,0.0,0.0,0.0,0.25,0.0,4.5,3.0,6.25,2.25,5.0,6.0,-0.11,0.08,1.08,315.31,-5.8,-78.5,0.75,0.5,1.5,1.25,0.5,0.0,0.25,0.0,0.0,0.25,0.0,0.0,0.25,0.33,-0.8,1.58,0.0,-20.3,52.4
4.58,0.0,0.0,0.0,1.0,0.0,1.25,0.0,5.5,3.75,6.5,6.0,5.25,6.0,-0.17,-0.05,0.95,424.71,-3.8,-69.3,0.75,0.5,1.25,0.75,0.25,0.0,0.25,0.0,0.0,0.0,0.0,0.0,0.25,0.45,-0.67,0.7,0.0,-23.5,59.1
4.6,0.0,0.0,0.5,1.75,0.0,1.75,0.25,6.0,4.5,6.5,6.0,5.25,5.5,-0.17,-0.05,1.02,539.56,-2.6,-61.7,0.0,0.0,1.25,0.5,1.0,0.0,0.25,0.0,0.0,0.0,0.0,0.0,0.0,0.2,-0.55,0.77,0.0,-18.8,56.3
4.62,1.0,0.0,2.25,2.75,0.0,2.0,0.5,6.25,5.0,6.25,6.0,4.5,5.25,-0.11,-0.05,1.02,634.1,0.5,-47.3,0.75,0.5,0.0,0.75,0.0,0.5,0.0,0.0,0.25,0.0,0.0,0.0,0.0,0.2,-0.36,0.77,0.0,-13.5,63.0
4.64,1.75,0.0,3.0,3.5,0.0,2.25,0.5,6.25,5.0,6.0,5.5,4.0,4.25,-0.11,-0.05,1.02,684.94,2.2,-37.6,0.75,0.5,0.75,0.75,0.5,0.25,0.5,0.0,0.0,0.0,0.0,0.0,0.25,0.27,-0.23,0.83,0.0,-17.3,56.1
4.66,1.75,0.5,4.0,4.0,0.0,2.75,0.5,6.0,4.75,5.25,4.25,2.75,3.5,-0.11,-0.05,1.02,689.09,3.4,-25.6,0.0,0.0,0.0,0.5,0.0,0.0,0.0,0.0,0.0,0.0,0.0,0.0,0.0,0.14,-0.05,0.89,0.0,-17.2,57.9
4.68,1.75,1.0,4.25,5.5,0.0,3.0,0.5,5.5,4.0,3.75,2.75,2.25,2.5,-0.11,-0.05,0.95,653.94,5.2,-11.2,0.0,0.0,0.0,0.5,0.0,0.0,0.0,0.0,0.0,0.0,0.0,0.0,0.0,0.08,0.08,1.02,0.0,-17.2,57.9
4.7,2.25,1.0,5.5,5.5,0.0,3.0,0.5,5.25,3.5,2.25,1.0,1.25,1.5,-0.17,0.02,0.95,593.18,8.1,6.3,0.0,0.0,0.0,0.5,0.25,0.0,0.0,0.0,0.0,0.0,0.0,0.0,0.0,0.08,0.2,1.14,0.0,-9.9,56.3
4.72,3.25,1.0,6.0,6.0,0.25,3.0,0.75,4.5,2.5,1.25,0.0,1.0,0.5,-0.17,0.02,0.95,525.4,11.6,24.6,0.0,0.0,0.0,0.5,0.0,0.0,0.0,0.0,0.0,0.0,0.0,0.0,0.0,0.08,0.33,1.33,0.0,-17.2,57.9
4.74,3.25,1.0,6.5,7.25,0.0,2.75,0.5,3.75,2.0,0.5,0.0,0.5,0.5,-0.17,0.02,0.95,465.6,14.2,34.1,0.0,0.0,0.0,0.5,0.0,0.0,0.0,0.0,0.0,0.0,0.0,0.0,0.0,0.2,0.58,1.64,0.0,-17.2,57.9
4.76,3.5,1.25,6.5,7.25,0.0,2.5,0.25,2.75,1.5,0.5,0.0,0.5,0.25,-0.17,0.08,0.95,411.45,16.1,40.8,0.0,0.0,0.0,0.5,0.0,0.0,0.0,0.0,0.0,0.0,0.0,0.0,0.0,0.2,1.08,1.77,0.0,-17.2,57.9
4.78,4.5,1.25,7.25,7.5,0.0,2.25,0.25,2.0,1.25,0.5,0.0,0.5,0.25,-0.17,0.08,0.95,383.8,18.6,46.4,0.0,0.0,0.0,0.0,1.5,0.0,0.0,0.0,0.0,0.0,0.0,0.0,0.0,0.08,1.64,2.45,4.07,3.2,53.4
4.8,5.0,2.0,7.25,8.25,0.0,2.0,0.0,1.5,1.0,0.5,0.0,0.5,0.25,-0.17,0.08,0.95,372.86,19.6,51.4,0.0,0.0,0.0,0.5,0.25,0.0,0.0,0.0,0.0,0.0,0.0,0.0,0.0,-0.11,1.95,2.2,5.72,-9.9,56.3
4.82,5.25,1.25,8.0,7.5,0.0,2.0,0.0,1.0,0.75,0.0,0.0,0.5,0.25,-0.17,0.14,0.95,362.97,22.0,55.4,0.0,0.0,0.0,0.25,0.25,0.0,0.0,0.0,0.0,0.0,0.0,0.0,0.0,-0.05,2.52,1.89,8.15,-6.4,55.5
