time,left pressure 0[N/cm²],left pressure 1[N/cm²],left pressure 2[N/cm²],left pressure 3[N/cm²],left pressure 4[N/cm²],left pressure 5[N/cm²],left pressure 6[N/cm²],left pressure 7[N/cm²],left pressure 8[N/cm²],left pressure 9[N/cm²],left pressure 10[N/cm²],left pressure 11[N/cm²],left pressure 12[N/cm²],left acceleration X[g],left acceleration Y[g],left acceleration Z[g],left total force[N],left center of pressure X[mm],left center of pressure Y[mm],right pressure 0[N/cm²],right pressure 1[N/cm²],right pressure 2[N/cm²],right pressure 3[N/cm²],right pressure 4[N/cm²],right pressure 5[N/cm²],right pressure 6[N/cm²],right pressure 7[N/cm²],right pressure 8[N/cm²],right pressure 9[N/cm²],right pressure 10[N/cm²],right pressure 11[N/cm²],right pressure 12[N/cm²],right acceleration X[g],right acceleration Y[g],right acceleration Z[g],right total force[N],right center of pressure X[mm],right center of pressure Y[mm]
0.02,0.0,0.0,0.0,0.0,0.0,0.0,0.0,0.0,0.0,0.0,0.0,0.0,0.0,-0.11,4.02,0.89,0.0,0.0,0.0,8.75,4.25,9.75,9.0,6.75,0.5,0.75,0.0,0.0,1.0,0.0,0.0,0.5,0.14,0.45,1.39,684.65,-19.9,64.0
0.04,0.0,0.0,0.0,0.0,0.0,0.0,0.0,0.0,0.0,0.0,0.0,0.0,0.0,0.45,4.52,0.58,0.0,0.0,0.0,7.0,2.0,9.5,6.75,4.5,0.25,0.25,0.0,0.0,0.0,0.0,0.0,0.0,0.33,0.58,1.64,596.85,-23.6,68.9
0.06,0.0,0.0,0.0,0.0,0.0,0.0,0.0,0.0,0.0,0.0,0.0,0.0,0.0,1.2,4.95,0.45,0.0,0.0,0.0,5.25,0.5,7.25,4.5,2.75,0.5,0.75,0.0,0.0,0.0,0.0,0.0,0.0,0.2,1.2,2.45,467.03,-24.7,67.3
0.08,0.0,0.0,0.0,0.0,0.0,0.0,0.0,0.0,0.0,0.0,0.0,0.0,0.0,2.02,5.95,1.2,0.0,0.0,0.0,2.25,0.0,6.5,2.0,0.25,0.25,0.25,0.0,0.0,0.0,0.0,0.0,0.0,0.08,1.58,2.64,312.24,-31.5,66.0
0.1,0.0,0.0,0.0,0.0,0.0,0.0,0.0,0.0,0.0,0.0,0.0,0.0,0.0,-1.11,0.2,2.2,0.0,0.0,0.0,0.75,0.0,2.75,0.5,0.25,0.0,0.25,0.0,0.0,0.0,0.0,0.0,0.0,-0.11,0.64,2.45,186.14,-32.4,65.0
0.12,0.0,0.0,0.0,0.0,0.0,0.0,0.0,0.0,0.0,0.0,0.0,0.0,0.0,-0.36,-0.3,0.14,0.0,0.0,0.0,0.0,0.0,0.5,0.0,0.0,0.0,0.0,0.0,0.0,0.0,0.0,0.0,0.0,0.33,0.02,2.08,42.96,-38.2,60.9
0.14,0.0,0.0,0.0,0.75,0.0,0.0,0.0,0.0,0.25,4.25,0.0,2.25,4.25,0.33,0.14,1.33,72.74,-7.5,-85.0,1.0,0.25,1.5,2.0,2.5,1.25,0.25,0.0,0.0,0.75,0.0,0.0,0.25,0.14,-1.48,2.39,0.0,-8.2,44.4
0.16,0.0,0.0,0.0,0.0,0.0,0.0,0.0,1.25,0.25,5.5,0.0,4.25,5.5,-0.23,0.45,2.02,162.65,-8.5,-92.3,0.5,0.5,1.0,2.0,2.5,0.75,0.25,0.0,0.0,0.5,0.0,0.0,0.0,0.08,-1.11,2.89,0.0,-8.2,51.0
0.18,0.0,0.0,0.0,0.0,0.0,0.0,0.0,3.75,1.0,6.5,0.0,5.0,6.25,-0.42,0.45,1.58,259.41,-8.7,-85.1,1.25,0.25,0.5,1.75,2.75,1.25,0.25,0.0,0.0,0.5,0.0,0.0,0.0,0.27,-0.86,1.64,5.94,-6.1,51.7
0.2,0.0,0.0,0.0,0.0,0.0,0.0,0.0,5.0,2.25,7.25,2.25,5.0,6.25,-0.11,0.08,1.08,349.54,-6.8,-80.0,0.0,0.0,0.0,0.0,0.25,0.0,0.0,0.0,0.25,0.0,0.0,0.0,0.0,0.33,-0.73,0.77,0.0,-3.8,11.1
0.22,0.0,0.0,0.5,0.0,0.0,0.25,0.25,5.5,3.0,7.5,6.75,5.75,6.75,-0.23,0.08,0.95,474.03,-3.5,-75.9,0.0,0.0,0.5,0.0,1.0,0.0,0.25,0.0,0.0,0.0,0.0,0.0,0.0,0.27,-0.61,0.77,0.0,-11.0,53.9
0.24,0.0,0.0,0.75,0.25,0.0,0.75,0.25,6.25,4.0,7.5,7.25,5.75,6.75,-0.17,0.02,0.95,590.15,-3.0,-71.1,0.0,0.0,0.0,0.0,0.25,0.0,0.0,0.0,0.0,0.0,0.0,0.0,0.0,0.27,-0.42,0.77,0.0,3.3,53.4
0.26,0.0,0.0,1.75,1.25,0.0,1.25,0.5,6.5,4.5,7.25,7.25,5.5,6.25,-0.17,0.02,0.95,686.22,-1.4,-61.8,0.0,0.0,0.0,0.0,0.25,0.0,0.0,0.0,0.0,0.0,0.0,0.0,0.0,0.27,-0.23,0.89,0.0,3.3,53.4
0.28,0.0,0.5,2.25,2.0,0.0,1.5,0.5,6.5,4.75,7.25,7.0,5.0,6.0,-0.17,-0.05,1.02,747.31,-0.6,-54.6,0.0,0.0,0.0,0.0,0.25,0.0,0.0,0.0,0.0,0.0,0.0,0.0,0.0,0.2,-0.05,1.08,0.0,3.3,53.4
0.3,0.0,1.0,2.75,2.75,0.75,2.25,0.5,6.5,4.5,6.5,6.25,4.25,5.5,-0.17,-0.05,0.95,768.82,-0.1,-43.6,0.0,0.0,0.0,0.0,0.25,0.0,0.0,0.0,0.0,0.0,0.0,0.0,0.0,0.14,0.14,1.08,0.0,3.3,53.4
0.32,0.0,1.0,3.5,2.75,0.0,2.25,0.5,6.5,4.0,6.0,5.5,3.25,4.25,-0.17,0.02,0.95,734.16,0.7,-38.9,0.0,0.0,0.0,0.0,0.25,0.0,0.25,0.0,0.0,0.0,0.0,0.0,0.0,0.14,0.33,1.08,0.0,-7.1,45.8
0.34,0.0,1.0,3.5,3.0,3.75,2.25,0.5,6.0,3.5,5.0,4.5,2.25,3.75,-0.17,0.02,0.95,683.26,0.6,-23.5,0.0,0.0,0.0,0.0,0.25,0.0,0.0,0.0,0.0,0.0,0.0,0.0,0.0,0.14,0.39,1.39,0.0,3.3,53.4
0.36,0.0,1.0,3.5,3.25,3.75,2.75,0.5,6.0,3.0,4.25,2.75,2.0,2.5,-0.17,0.02,0.95,609.93,0.6,-14.6,0.0,0.0,0.0,0.0,0.25,0.0,0.0,0.0,0.0,0.0,0.0,0.0,0.0,0.14,0.58,1.7,0.0,3.3,53.4
0.38,0.0,1.0,3.5,4.75,3.25,2.75,0.5,5.5,2.5,3.5,1.5,1.0,1.75,-0.17,0.02,0.95,527.26,1.7,-2.6,0.0,0.0,0.0,0.0,0.25,0.25,0.0,0.0,0.0,0.0,0.0,0.0,0.0,0.33,0.95,1.77,0.0,12.0,44.7
0.4,0.0,1.0,3.5,4.75,3.75,2.75,0.5,5.0,2.0,2.5,0.5,1.0,1.5,-0.17,0.02,0.95,454.8,2.1,5.5,0.0,0.0,0.25,0.25,1.5,0.75,0.25,0.0,0.0,0.25,0.0,0.0,0.0,0.45,1.33,2.14,8.09,2.2,39.6
0.42,0.0,1.0,3.75,4.75,4.5,2.75,0.5,4.75,1.5,2.5,0.0,0.5,0.75,-0.17,0.08,0.95,398.02,2.5,15.4,0.0,0.0,0.25,0.0,2.75,0.25,0.25,0.0,0.0,0.75,0.0,0.0,0.0,0.2,1.58,2.45,38.02,3.0,30.9
0.44,0.0,1.0,4.25,5.0,5.5,3.0,0.25,4.5,1.0,1.75,0.0,0.0,0.5,-0.17,0.08,0.95,365.45,3.2,25.6,0.0,0.0,0.25,0.5,1.5,1.0,0.25,0.0,0.0,0.5,0.0,0.0,0.0,-0.23,2.14,2.08,64.24,3.0,33.4
0.46,0.0,1.75,5.25,6.75,5.75,3.0,0.25,4.0,0.75,1.25,0.0,0.0,0.25,-0.17,0.08,0.95,360.12,6.2,35.4,0.0,0.0,0.25,0.0,1.5,0.0,0.25,0.0,0.0,0.0,0.0,0.0,0.0,-0.36,2.7,1.39,63.88,-3.7,52.9
0.48,1.5,2.5,5.25,7.0,0.0,3.0,0.25,3.75,0.75,1.0,0.0,0.0,0.25,-0.17,0.08,0.95,345.56,11.0,38.1,0.0,0.0,0.25,0.0,1.5,1.25,0.25,0.0,0.0,0.25,0.0,0.0,0.0,-0.61,3.45,0.58,67.24,6.4,37.5
0.5,1.75,2.5,6.0,8.25,0.0,3.5,0.25,3.75,0.5,1.0,0.0,0.25,0.5,-0.17,0.14,0.95,352.03,11.4,38.1,0.0,0.25,0.25,0.0,2.5,1.25,0.25,0.0,0.0,0.5,0.0,0.0,0.0,-1.11,4.33,0.2,75.01,5.2,38.7
0.52,3.25,3.75,6.75,9.25,0.0,4.0,0.25,2.75,0.25,1.0,0.0,0.0,0.5,-0.17,0.14,0.95,375.99,13.7,48.4,0.5,0.0,0.25,0.0,1.75,0.5,0.25,0.0,0.0,0.75,0.0,0.0,0.0,-1.42,3.95,0.02,78.72,-0.1,32.3
0.54,4.75,4.5,7.0,10.0,0.0,4.25,0.0,2.25,0.25,1.0,0.0,0.0,0.25,-0.17,0.14,1.02,424.89,15.1,54.3,0.0,0.0,0.25,0.0,1.25,0.5,0.25,0.0,0.25,1.5,0.0,0.5,0.5,-1.17,2.52,3.2,84.47,4.9,-24.0
0.56,5.0,5.0,7.75,10.5,0.0,4.25,0.0,2.0,0.25,1.0,0.0,0.0,0.25,-0.23,0.2,1.08,485.23,16.0,56.0,0.0,0.0,0.25,0.0,1.25,0.5,0.25,0.0,0.25,2.25,0.75,1.25,2.5,0.2,-0.3,0.64,110.83,5.4,-57.9
0.58,5.25,5.25,7.75,10.5,0.0,4.0,0.0,2.0,0.0,1.0,0.0,0.0,0.25,-0.23,0.2,1.14,534.59,16.3,57.4,0.0,0.0,0.25,0.0,1.5,1.25,0.25,0.0,0.75,6.25,1.5,4.25,6.0,-0.55,0.33,1.33,198.08,6.3,-72.3
0.6,6.0,5.5,0.0,10.5,0.0,2.25,0.0,1.0,0.25,1.0,0.0,0.0,0.25,-0.23,0.2,1.14,506.46,13.9,61.9,0.0,0.0,0.5,0.5,3.0,1.25,0.25,1.0,1.0,8.0,5.5,5.25,7.75,-0.23,0.27,1.64,314.3,4.1,-65.3
0.62,6.75,6.0,8.25,10.5,0.0,3.0,0.0,0.75,0.0,1.0,0.0,0.0,0.25,-0.23,0.2,1.14,530.31,19.4,63.7,0.0,0.0,0.0,0.0,0.25,0.0,0.0,1.75,1.25,7.75,6.75,5.25,7.0,0.27,0.39,1.77,420.88,3.9,-84.8
0.64,6.25,6.25,7.5,10.5,0.0,3.0,0.0,0.25,0.0,0.75,0.0,0.0,0.25,-0.3,0.27,1.2,535.04,19.5,66.0,0.0,0.25,0.0,0.5,0.25,2.0,0.0,5.0,2.5,9.25,8.0,6.25,7.25,-0.11,0.14,1.14,568.93,4.7,-71.5
0.66,6.25,6.25,0.0,10.5,0.0,0.0,0.0,0.25,0.0,0.5,0.0,0.0,0.25,-0.36,0.33,1.33,486.69,18.8,72.8,1.0,0.25,0.75,2.0,2.5,1.5,1.0,5.75,3.25,9.5,9.25,6.5,7.75,0.14,0.14,1.08,720.84,1.7,-55.7
0.68,5.5,0.0,0.0,9.25,0.0,0.0,0.0,0.25,0.0,0.75,0.0,0.0,0.25,-0.42,0.39,1.45,379.59,20.3,60.2,1.25,0.0,3.5,2.0,3.0,1.75,1.25,6.25,3.75,9.75,9.75,6.5,8.0,0.08,0.08,0.95,879.42,-0.3,-48.4
0.7,4.5,0.0,0.0,7.5,0.0,0.0,0.0,0.0,0.0,0.0,0.0,0.0,0.25,-0.61,0.52,1.77,283.84,22.6,68.0,2.25,0.0,5.75,2.0,3.75,2.25,2.0,7.0,4.0,9.5,9.75,6.5,7.75,0.14,0.08,0.95,1020.59,-2.1,-39.1
0.72,3.25,0.0,0.0,4.5,0.0,0.0,0.0,0.0,1.5,0.25,0.0,0.5,0.25,-0.67,1.02,2.33,202.62,19.7,40.1,2.0,0.25,7.25,2.75,4.25,2.0,2.0,7.0,4.0,9.25,9.5,5.75,7.25,0.14,0.08,0.95,1117.98,-3.3,-33.1
0.74,0.0,0.0,3.75,3.0,0.0,0.0,3.5,0.0,0.0,0.0,0.0,0.0,0.0,-0.73,1.39,2.77,130.34,29.5,53.3,3.25,0.5,8.0,3.25,4.5,2.75,2.5,7.0,4.0,8.75,8.75,5.5,6.25,0.14,0.08,0.95,1167.2,-4.5,-24.6
0.76,0.0,0.0,1.0,0.0,0.0,0.0,0.0,0.0,0.0,0.0,0.0,0.0,0.0,-0.55,0.7,2.58,44.57,38.2,60.9,4.75,0.75,8.75,3.25,4.5,2.75,2.5,6.25,3.5,7.75,8.25,4.0,5.25,0.14,0.08,0.95,1160.25,-6.4,-15.2
0.78,0.0,0.0,0.0,0.0,0.0,0.0,0.0,0.0,0.0,0.0,0.0,0.0,0.0,-0.73,-0.05,2.33,0.0,0.0,0.0,5.25,0.75,9.5,4.0,4.5,2.5,2.5,5.5,3.0,6.75,7.0,2.75,4.0,0.14,0.08,0.95,1107.64,-8.2,-5.4
0.8,0.0,0.0,0.0,0.0,0.0,0.0,0.0,0.0,0.0,0.0,0.0,0.0,0.0,-0.67,-0.8,1.58,0.0,0.0,0.0,5.75,0.75,9.5,4.5,4.5,2.0,2.5,4.5,2.75,5.5,5.0,2.0,2.75,0.14,0.08,0.95,1002.63,-10.4,5.0
0.82,0.0,0.0,0.0,0.5,0.0,0.0,0.0,0.0,0.0,0.0,0.0,0.0,0.0,-0.23,-1.3,2.45,0.0,17.2,57.9,5.75,0.75,10.5,4.5,4.5,1.5,2.5,4.0,2.0,3.75,3.5,1.0,1.75,0.14,0.14,0.95,870.42,-13.2,17.9
0.84,0.0,0.0,0.0,0.0,0.0,0.0,0.0,0.0,0.0,0.0,0.0,0.0,0.0,-0.42,-0.92,0.64,0.0,0.0,0.0,6.25,0.75,10.5,4.75,4.5,1.5,2.5,2.5,1.5,2.75,2.0,1.0,1.25,0.14,0.14,0.95,745.49,-15.7,29.0
0.86,0.0,0.0,0.0,0.25,0.0,0.0,0.0,0.0,0.0,0.5,0.0,0.0,0.0,-0.55,-0.73,0.52,0.0,-4.3,-29.6,6.0,1.0,11.0,4.75,4.5,2.0,2.5,2.0,1.5,2.0,1.75,0.5,1.75,0.08,0.14,0.95,658.68,-16.1,32.9
0.88,0.0,0.0,0.0,2.0,0.0,0.0,1.25,0.0,2.25,0.25,0.0,0.0,0.0,-0.36,-0.61,0.58,0.0,15.2,6.4,7.25,1.0,11.5,5.0,4.5,1.5,2.25,1.5,1.0,1.25,0.5,0.25,0.75,0.08,0.14,0.95,580.18,-19.6,47.7
0.9,0.0,0.0,0.0,0.0,0.0,0.0,2.5,0.0,0.0,0.0,0.0,0.0,0.0,-0.42,-0.55,0.83,0.0,32.4,27.3,6.25,0.75,11.5,5.75,4.5,1.25,2.0,1.5,0.75,0.0,0.0,0.0,0.75,0.08,0.14,0.95,518.85,-20.9,54.3
0.92,0.0,0.0,0.0,0.0,0.0,0.0,0.0,0.0,0.0,0.0,0.0,0.0,0.0,-0.42,-0.3,0.95,0.0,0.0,0.0,7.5,1.0,10.5,6.75,3.0,1.5,2.0,1.25,0.75,1.0,0.0,0.0,0.0,0.08,0.14,0.95,480.17,-21.6,56.5
0.94,0.0,0.0,0.0,0.0,0.0,0.0,0.0,0.0,0.0,0.0,0.0,0.0,0.0,-0.42,-0.05,0.95,0.0,0.0,0.0,7.0,0.0,13.0,5.75,4.5,1.25,1.25,0.0,0.5,0.0,0.0,0.0,0.0,0.08,0.14,0.95,452.47,-24.7,63.4
0.96,0.0,0.0,0.0,0.0,0.0,0.0,0.0,0.0,0.0,0.0,0.0,0.0,0.0,-0.36,0.14,1.08,0.0,0.0,0.0,8.25,1.5,11.5,7.0,2.5,1.25,1.25,0.0,0.75,1.0,0.0,0.0,0.0,0.02,0.14,0.95,449.8,-24.2,62.0
0.98,0.0,0.0,0.0,0.0,0.0,0.0,0.0,0.0,0.0,0.0,0.0,0.0,0.0,-0.42,0.2,1.64,0.0,0.0,0.0,8.25,0.75,11.5,8.5,4.5,1.5,1.25,0.0,0.75,0.75,0.0,0.0,0.0,0.08,0.2,1.02,475.29,-22.4,61.3
1.0,0.0,0.0,0.0,0.0,0.0,0.0,0.0,0.0,0.0,0.0,0.0,0.0,0.0,-0.48,0.39,1.83,0.0,0.0,0.0,9.0,2.5,12.0,8.25,4.5,1.25,1.25,0.0,0.75,0.75,0.0,0.0,0.0,0.08,0.2,1.02,527.2,-22.7,63.8
1.02,0.0,0.0,0.0,0.0,0.0,0.0,0.0,0.0,2.0,0.0,0.0,0.0,0.0,-0.61,0.77,1.89,10.45,12.1,-38.5,8.75,1.5,12.0,8.25,4.5,1.0,1.25,0.0,0.75,0.25,0.0,0.0,0.0,0.08,0.2,1.08,563.42,-23.7,64.6
1.04,0.0,0.0,0.0,0.0,0.0,0.0,4.0,0.0,2.5,0.0,0.0,0.0,0.0,-0.67,0.95,2.33,31.89,21.0,-9.7,9.75,2.75,12.0,9.25,4.5,0.0,1.0,0.0,0.0,0.25,0.0,0.0,0.0,0.02,0.27,1.08,602.31,-24.7,69.1
1.06,0.0,0.0,0.0,1.0,0.0,0.0,4.0,0.0,2.75,0.0,0.0,0.0,0.0,-0.73,1.14,2.89,58.98,19.9,1.4,9.0,3.25,14.5,10.0,4.75,0.0,0.75,0.0,0.25,0.0,0.0,0.0,0.0,0.02,0.27,1.08,648.46,-25.0,68.5
1.08,0.0,0.0,0.0,2.0,0.0,0.0,3.75,0.0,2.75,0.0,0.0,0.0,0.0,-0.61,1.95,2.58,85.58,19.2,9.9,8.75,2.5,14.0,10.0,4.5,1.25,0.5,0.0,0.0,0.0,0.0,0.0,0.0,0.02,0.33,1.2,678.89,-23.9,67.8
1.1,0.0,0.0,0.0,2.0,0.0,0.0,3.0,0.0,2.5,0.0,0.0,0.0,0.0,-0.73,2.95,1.7,99.66,18.7,10.9,8.75,2.5,12.5,8.25,2.75,0.0,0.25,0.0,0.0,0.0,0.0,0.0,0.0,0.08,0.39,1.2,652.36,-26.8,70.6
1.12,0.0,0.0,0.0,2.0,0.0,0.0,3.75,4.25,2.5,0.25,0.0,0.0,0.0,-0.48,3.58,0.77,129.11,4.5,-9.9,8.25,2.0,11.5,7.5,0.5,0.0,0.25,0.0,0.0,0.0,0.0,0.0,0.0,0.02,0.39,1.33,583.6,-29.3,71.9
1.14,0.0,0.0,0.0,1.75,0.0,0.0,3.75,3.0,2.75,0.0,0.0,0.0,0.0,0.7,4.08,0.64,147.71,7.7,-7.0,7.75,1.25,10.5,6.5,0.25,0.0,0.25,0.0,0.0,0.0,0.0,0.0,0.0,0.2,0.52,1.45,492.2,-30.2,71.8
1.16,0.0,0.0,0.0,0.0,0.0,0.0,3.75,4.25,2.5,0.0,0.0,0.0,0.0,1.27,4.77,0.27,155.61,1.9,-24.7,6.0,0.25,8.75,4.5,0.25,0.0,0.25,0.0,0.0,0.0,0.0,0.0,0.0,0.14,0.89,2.08,382.56,-31.4,70.7
1.18,0.5,0.0,0.0,1.75,0.0,0.0,2.25,0.0,0.0,0.0,0.0,0.0,0.25,0.64,5.02,1.45,132.82,21.8,42.1,2.5,0.0,7.0,2.75,0.0,1.25,0.25,0.0,0.0,0.0,0.0,0.0,0.0,0.14,1.64,2.58,285.67,-27.9,64.0
1.2,0.0,0.0,0.0,0.0,0.0,0.0,0.0,0.0,0.0,0.0,0.0,0.0,0.0,-0.67,-0.73,1.83,89.3,0.0,0.0,1.25,0.0,5.25,0.5,1.0,0.0,0.0,0.0,0.0,0.0,0.0,0.0,0.0,-0.17,0.83,2.33,194.19,-30.6,64.9
1.22,0.0,0.0,0.0,0.0,0.0,0.0,0.0,0.0,0.0,0.0,0.0,0.0,0.0,-0.17,0.27,1.02,44.05,0.0,0.0,0.0,0.0,1.5,0.0,0.25,0.0,0.0,0.0,0.0,0.0,0.0,0.0,0.0,0.33,-0.05,1.58,79.03,-31.7,59.8
1.24,0.0,0.0,1.75,0.0,0.0,0.0,0.0,0.0,0.25,5.0,0.0,2.5,5.25,-0.11,0.45,2.14,97.65,-3.9,-76.5,0.0,0.0,0.5,0.0,0.25,0.0,0.0,0.0,0.0,0.0,0.0,0.0,0.0,0.7,-0.3,2.77,0.0,-23.3,58.3
1.26,0.0,0.0,1.75,0.0,0.0,0.0,0.0,2.0,0.0,6.0,2.25,4.25,6.0,-0.61,0.39,2.14,191.69,-3.6,-77.2,0.0,0.0,0.5,0.0,0.25,0.0,0.0,0.0,0.0,0.0,0.0,0.0,0.0,0.08,-1.05,1.77,0.0,-23.3,58.3
1.28,0.0,0.0,0.0,0.0,0.0,0.0,0.0,4.75,1.25,6.5,0.0,4.25,6.0,-0.17,0.27,1.33,274.88,-9.3,-81.5,0.0,0.0,0.5,0.0,1.0,0.25,0.5,0.0,0.25,0.5,0.0,0.0,0.0,0.27,-0.8,1.08,0.0,-4.6,20.9
1.3,0.0,0.0,0.0,0.0,0.0,0.5,0.0,5.5,2.25,7.25,0.0,4.5,6.0,-0.23,0.08,0.95,346.86,-8.9,-76.6,0.0,0.0,0.5,1.0,1.25,0.75,0.25,0.0,0.0,0.75,0.0,0.0,0.25,0.39,-0.61,0.52,0.0,-1.0,23.1
1.32,0.0,0.0,0.25,0.75,0.0,1.0,0.0,6.25,3.0,7.25,6.5,5.0,6.0,-0.23,0.02,0.95,448.2,-4.2,-69.9,0.0,0.0,0.5,1.0,0.5,0.5,0.25,0.0,0.0,0.5,0.0,0.0,0.0,0.2,-0.55,0.7,0.0,-6.5,32.3
1.34,0.0,0.0,2.0,1.25,0.0,1.5,0.0,6.5,3.75,7.25,6.75,5.0,6.0,-0.17,-0.05,0.95,549.88,-1.9,-60.4,0.0,0.0,0.5,0.5,1.25,0.5,0.25,0.0,0.0,0.5,0.0,0.0,0.0,0.14,-0.42,0.83,0.0,-2.5,33.7
1.36,0.0,0.75,2.0,2.0,0.0,2.0,0.25,6.5,4.25,7.25,6.75,5.0,5.75,-0.17,0.02,0.95,642.72,-1.2,-53.4,0.25,0.0,0.5,0.25,1.25,0.75,0.25,0.0,0.25,0.75,0.0,0.0,0.5,0.08,-0.23,0.89,0.0,0.1,10.7
1.38,0.0,1.0,3.25,2.75,0.0,2.25,0.5,6.5,4.5,6.5,6.5,4.25,5.25,-0.17,-0.05,1.02,708.39,0.5,-44.1,0.0,0.0,0.5,1.0,1.25,0.5,0.25,0.0,0.0,1.0,0.0,0.0,0.0,-0.05,-0.05,0.89,23.62,-2.2,24.6
1.4,0.0,1.0,3.5,3.0,0.0,2.25,0.5,6.5,4.25,6.25,5.75,3.25,4.25,-0.17,0.02,0.95,718.92,0.9,-38.7,0.0,0.0,0.5,0.5,1.75,1.0,0.25,0.0,0.0,0.75,0.0,0.0,0.0,-0.11,0.08,1.02,49.21,1.5,30.5
1.42,0.0,1.0,3.5,3.25,0.0,2.5,0.5,6.25,4.0,5.5,4.75,2.5,3.25,-0.17,0.02,0.95,675.39,1.2,-32.4,0.0,0.0,0.25,0.75,1.0,0.5,0.25,0.0,0.0,1.0,0.0,0.0,0.25,-0.23,0.27,1.2,64.09,1.6,9.5
1.44,0.0,1.0,4.5,4.5,3.75,2.5,0.5,6.0,3.5,4.5,3.75,2.25,2.75,-0.17,0.02,0.95,643.44,2.5,-14.0,0.0,0.0,0.5,0.5,1.25,0.5,0.25,0.0,0.0,0.75,0.0,0.0,0.0,-0.23,0.7,1.08,71.96,-1.3,26.6
1.46,0.75,1.0,5.25,4.5,0.25,2.25,0.5,4.75,2.25,2.5,1.25,1.0,1.5,-0.17,0.02,0.95,540.73,6.9,1.3,0.0,0.0,0.5,0.5,1.0,1.0,0.0,0.0,0.0,0.75,0.0,0.0,0.0,-0.36,0.7,1.33,73.49,2.1,25.4
1.48,1.5,1.25,5.25,4.75,3.75,2.25,0.5,4.75,2.0,2.5,0.75,1.0,1.0,-0.17,0.08,0.95,480.81,6.6,14.7,0.0,0.0,0.5,0.25,1.25,1.25,0.25,0.0,0.0,0.0,0.0,0.0,0.0,-0.61,0.83,1.7,69.32,1.0,47.5
1.5,1.75,1.75,5.5,4.75,3.75,2.25,0.25,4.5,2.0,2.5,0.5,0.75,0.5,-0.17,0.08,0.95,437.2,7.5,21.2,0.0,0.0,0.25,0.0,1.0,0.75,0.25,0.0,0.0,0.75,0.0,0.0,0.0,-0.86,1.27,2.14,60.85,6.0,16.1
1.52,1.75,2.25,6.25,6.25,4.5,2.25,0.5,4.0,1.5,2.0,0.0,0.5,0.5,-0.17,0.08,0.95,437.51,9.2,31.6,0.0,0.0,0.5,0.0,1.0,0.75,0.25,0.0,0.0,0.5,0.0,0.0,0.0,-1.11,1.77,2.02,53.39,1.4,27.6
1.54,3.25,2.5,6.75,6.75,5.75,2.0,0.5,3.75,1.5,1.25,0.0,0.25,0.25,-0.17,0.08,0.95,450.43,11.3,41.2,0.0,0.0,0.5,0.0,1.5,1.25,0.25,0.0,0.0,0.75,0.0,0.0,0.0,-1.48,1.95,1.2,55.75,4.8,25.8
1.56,3.25,2.5,7.0,7.5,5.75,2.25,0.5,3.75,1.25,1.5,0.0,0.25,0.25,-0.17,0.08,0.95,479.21,11.2,41.4,0.0,0.0,0.5,0.0,1.5,1.0,0.25,0.0,0.0,0.25,0.0,0.0,0.0,-1.98,1.83,0.95,57.58,2.1,39.5
1.58,3.75,3.5,7.25,8.0,6.25,2.25,0.5,3.75,1.0,1.0,0.0,0.0,0.25,-0.17,0.08,0.95,520.23,12.0,47.1,0.0,0.0,0.5,0.0,1.0,0.5,0.25,0.0,0.0,0.75,0.0,0.0,0.0,-2.48,1.77,0.83,54.98,0.9,18.5
1.6,4.75,3.75,7.75,8.5,0.0,2.25,0.5,3.25,1.0,1.0,0.0,0.0,0.25,-0.17,0.08,0.95,518.25,16.9,49.3,0.0,0.0,0.5,0.25,0.5,0.5,0.25,0.0,0.0,0.5,0.0,0.0,0.0,-2.17,2.2,0.52,47.85,-3.0,24.1
1.62,6.0,4.0,8.0,9.25,6.75,2.25,0.5,2.25,0.75,1.0,0.0,0.0,0.25,-0.17,0.08,0.95,574.73,14.6,54.6,0.0,0.0,0.25,0.0,1.25,0.0,0.25,0.0,0.0,0.0,0.0,0.0,0.0,-2.17,2.45,1.39,39.18,-4.9,52.8
1.64,6.75,5.0,8.5,9.5,7.25,2.25,0.25,2.0,0.5,1.0,0.0,0.0,0.25,-0.17,0.14,1.02,637.62,15.0,57.4,0.0,0.0,0.25,0.0,1.5,1.25,0.25,0.0,0.25,2.5,0.0,0.25,0.0,0.08,0.33,1.27,54.64,8.4,-11.6
1.66,7.0,5.25,8.75,10.5,0.0,2.25,0.25,1.75,0.25,1.0,0.0,0.0,0.25,-0.17,0.14,1.08,656.08,19.7,60.2,0.0,0.0,0.25,0.0,2.25,1.25,0.25,0.75,0.0,6.5,2.0,3.5,4.25,1.02,-0.36,0.95,152.45,6.8,-62.7
1.68,7.5,6.0,9.0,10.5,0.0,0.0,0.0,1.0,0.25,1.0,0.0,0.0,0.25,-0.17,0.14,1.08,640.47,23.1,65.2,0.0,0.0,0.5,0.0,1.75,0.0,0.0,2.0,0.25,6.25,4.25,3.75,5.0,-0.11,0.7,2.14,246.74,4.5,-70.9
1.7,8.0,6.25,8.75,10.5,0.0,0.75,0.0,0.25,0.25,1.0,0.0,0.0,0.25,-0.23,0.14,1.2,622.53,23.0,67.5,0.5,0.0,0.5,0.25,0.25,1.25,0.0,3.0,1.5,7.75,5.5,5.25,6.25,0.02,0.02,0.89,359.12,3.9,-71.8
1.72,8.0,6.0,9.0,10.5,0.0,0.5,0.0,0.25,0.25,0.75,0.0,0.0,0.25,-0.23,0.2,1.27,590.67,23.8,68.4,0.0,0.25,0.25,0.75,2.5,1.25,0.5,4.75,2.25,8.75,7.5,5.75,6.75,0.08,0.14,0.95,507.66,3.8,-62.5
1.74,7.75,6.25,9.0,9.25,0.0,0.5,0.0,0.0,0.0,0.5,0.0,0.0,0.25,-0.3,0.2,1.27,559.19,24.6,71.5,0.0,0.0,0.5,1.25,2.25,1.25,0.75,5.5,3.25,9.0,8.5,6.0,6.75,0.08,0.14,0.95,657.24,2.8,-61.5
1.76,8.0,6.25,0.0,9.25,0.0,0.0,0.0,0.25,0.0,1.0,0.0,0.0,0.25,-0.3,0.27,1.39,482.14,19.3,72.3,0.75,0.0,1.25,2.0,2.75,1.25,1.0,6.25,3.75,9.5,9.0,6.5,7.75,0.08,0.08,1.02,800.64,1.5,-55.4
1.78,7.5,0.0,0.0,8.0,0.0,0.0,0.0,0.0,0.0,0.75,0.0,0.0,0.25,-0.42,0.27,2.02,366.23,22.8,66.2,1.25,0.25,3.0,2.0,2.75,1.25,1.25,6.25,4.0,9.5,9.5,6.5,7.75,0.08,0.08,0.95,921.13,-0.3,-49.4
1.8,2.5,0.0,6.5,4.5,0.0,0.0,1.0,0.25,0.0,0.25,0.0,0.0,0.0,-0.48,0.45,2.52,274.96,28.9,60.7,1.0,0.5,3.25,2.0,2.75,1.5,1.25,6.25,4.0,9.5,9.5,6.5,7.75,0.08,0.08,0.95,1006.53,-0.3,-48.5
1.82,2.5,0.0,4.0,2.75,0.0,0.0,0.0,0.0,0.0,0.0,0.0,0.0,0.0,-0.48,1.27,2.77,188.56,30.9,69.2,1.25,0.25,3.5,2.0,2.75,1.25,1.5,6.25,4.0,9.25,9.25,6.5,7.75,0.08,0.08,0.95,1040.43,-0.8,-48.0
1.84,0.0,0.0,2.25,0.75,0.0,0.0,0.0,0.0,0.0,0.5,0.0,0.0,0.0,-0.05,0.39,2.27,92.92,26.1,41.3,0.75,0.25,4.0,1.75,3.0,1.5,1.25,6.25,4.0,9.25,9.25,6.5,7.5,0.08,0.08,0.95,1042.99,-0.7,-47.7
1.86,0.0,0.0,0.0,1.0,0.0,0.0,0.0,0.0,0.0,0.0,0.0,0.0,0.0,-0.11,-0.73,1.7,0.0,17.2,57.9,1.25,0.5,5.0,1.5,2.5,1.25,1.5,6.0,4.0,8.75,8.75,6.25,7.5,0.08,0.08,0.95,1012.52,-2.0,-44.7
1.88,0.0,0.0,0.0,0.75,0.0,0.0,0.0,0.0,0.0,0.0,0.0,0.0,0.0,-0.36,-0.98,2.64,0.0,17.2,57.9,1.0,0.25,5.5,1.5,2.75,1.25,1.75,5.5,4.0,8.25,8.5,6.0,6.75,0.08,0.08,0.95,952.93,-2.7,-42.7
1.9,0.0,0.0,0.0,0.75,0.0,0.0,0.0,0.0,0.0,0.0,0.0,0.0,0.0,-0.05,-0.73,1.08,0.0,17.2,57.9,1.25,0.5,5.75,1.5,2.5,1.25,1.75,5.5,4.0,8.75,9.0,5.75,6.75,0.08,0.08,0.95,900.32,-2.9,-41.7
1.92,0.0,0.0,0.0,0.0,0.0,0.0,0.0,0.0,0.0,0.0,0.0,0.0,0.0,-0.48,-0.61,0.7,0.0,0.0,0.0,1.0,0.25,6.25,1.25,2.75,1.25,2.0,5.5,4.0,8.5,8.5,5.75,6.75,0.08,0.08,0.95,861.41,-3.1,-41.4
1.94,0.0,0.0,0.0,0.0,0.0,0.0,0.0,0.0,0.0,0.0,0.0,0.0,0.0,-0.86,-0.67,0.83,0.0,0.0,0.0,1.25,0.0,7.0,1.5,2.75,1.25,2.0,5.25,4.0,8.75,8.5,5.75,6.5,0.08,0.08,0.95,831.84,-3.8,-39.3
1.96,0.0,0.0,0.0,0.0,0.0,0.0,0.0,0.0,0.0,0.0,0.0,0.0,0.0,-0.92,-0.61,0.95,0.0,0.0,0.0,1.25,0.25,7.5,1.5,2.25,1.25,2.5,4.75,4.0,8.25,8.25,5.75,6.25,0.08,0.08,0.95,801.17,-4.8,-37.5
1.98,0.0,0.0,0.0,0.0,0.0,0.0,0.0,0.0,0.0,0.0,0.0,0.0,0.0,-1.17,-0.36,0.89,0.0,0.0,0.0,2.0,0.25,8.0,2.0,2.25,1.25,2.5,4.25,4.0,8.0,8.25,5.5,5.75,0.08,0.08,0.95,779.49,-6.1,-32.6
2.0,0.0,0.0,0.0,0.0,0.0,0.0,0.0,0.0,0.0,0.0,0.0,0.0,0.0,-1.17,-0.05,0.95,0.0,0.0,0.0,2.0,0.25,8.75,2.0,2.5,1.25,2.5,4.25,4.0,7.75,8.0,5.25,5.5,0.08,0.08,0.95,757.0,-6.7,-29.6
2.02,0.0,0.0,0.0,0.0,0.0,0.0,0.0,0.0,0.0,0.0,0.0,0.0,0.0,-1.3,0.14,1.02,0.0,0.0,0.0,2.75,0.25,9.25,2.0,2.25,1.25,3.0,4.25,3.75,7.25,7.5,5.0,5.0,0.08,0.08,0.95,739.72,-7.9,-25.2
2.04,0.0,0.0,0.0,0.0,0.0,0.0,0.0,0.0,0.0,0.0,0.0,0.0,0.0,-1.55,0.33,1.02,0.0,0.0,0.0,3.75,0.25,9.5,2.0,2.5,1.25,3.25,3.75,3.5,6.75,7.25,4.0,4.5,0.08,0.08,0.95,724.76,-9.2,-18.4
2.06,0.0,0.0,0.0,0.25,0.0,0.0,0.0,0.0,0.0,0.0,0.0,0.0,0.0,-1.67,0.58,1.2,0.0,17.2,57.9,4.0,0.5,10.5,2.0,2.75,1.25,3.5,3.0,3.25,6.0,6.25,3.75,3.0,0.08,0.08,0.95,703.51,-11.4,-9.2
2.08,0.0,0.0,0.0,1.0,0.0,0.0,0.0,0.0,0.0,0.0,0.0,0.0,0.0,-1.92,0.89,1.52,2.39,17.2,57.9,4.25,0.0,11.0,2.25,2.5,1.25,3.75,3.0,2.75,5.25,5.5,2.5,3.0,0.08,0.08,0.95,671.97,-12.6,-3.7
2.1,0.0,0.0,0.0,0.75,0.0,0.0,0.0,0.0,0.0,0.0,0.0,0.0,0.0,-2.3,1.08,1.45,9.98,17.2,57.9,5.5,0.5,12.0,2.75,2.25,1.25,4.0,1.75,2.75,3.75,4.5,2.5,1.75,0.08,0.14,0.95,641.14,-16.6,10.3
2.12,0.0,0.0,0.0,0.75,0.0,0.0,0.0,0.0,0.0,0.0,0.0,0.0,0.0,-2.42,1.45,1.14,14.17,17.2,57.9,6.25,0.25,11.0,3.5,2.25,1.25,4.0,1.5,1.75,2.75,2.75,0.75,0.25,0.08,0.14,1.08,581.82,-19.6,29.8
2.14,0.0,0.0,0.0,0.75,0.0,0.0,0.0,0.0,0.0,0.0,0.0,0.0,0.0,-2.42,1.89,0.95,15.9,17.2,57.9,5.75,0.0,11.0,2.0,1.0,0.5,3.75,1.25,1.5,1.75,1.75,1.0,1.0,0.2,0.27,1.14,497.2,-22.4,28.8
2.16,0.0,0.0,0.0,0.75,0.0,0.0,0.0,0.0,0.0,0.0,0.0,0.0,0.25,-2.48,2.33,0.58,18.26,9.5,16.5,5.75,0.0,11.5,2.0,0.25,0.5,2.5,0.0,1.0,1.5,0.0,0.5,0.0,0.7,0.58,1.02,399.45,-28.7,50.6
2.18,0.0,0.0,0.0,0.75,0.0,0.0,0.0,0.0,0.0,0.0,0.0,0.0,0.0,-2.48,2.45,0.2,17.83,17.2,57.9,5.75,0.0,13.0,2.0,2.25,0.5,1.25,0.75,0.75,1.25,0.25,0.5,0.0,0.77,0.7,1.33,357.91,-25.7,50.3
2.2,0.0,0.0,0.0,0.0,0.0,0.0,0.0,0.0,0.0,0.0,0.0,0.0,0.0,-1.55,2.39,0.33,12.9,0.0,0.0,5.0,0.0,10.5,1.0,1.0,0.75,1.0,0.0,0.75,1.0,0.0,0.25,0.0,0.89,0.58,1.08,302.36,-28.1,54.8
2.22,0.0,0.0,0.0,1.0,0.0,0.0,0.0,0.0,0.0,0.0,0.0,0.0,0.0,-0.36,2.02,1.2,14.27,17.2,57.9,1.75,0.0,8.0,0.0,0.5,0.0,0.75,0.0,0.75,0.0,1.25,0.0,0.0,0.83,0.45,1.02,242.95,-31.7,45.7
2.24,0.0,0.0,0.0,0.75,0.0,0.0,0.0,0.0,0.0,0.0,0.0,0.0,0.0,-3.36,0.95,1.7,13.83,17.2,57.9,1.0,0.0,5.5,0.0,0.0,0.0,0.25,0.0,0.0,0.0,0.0,0.0,0.0,0.7,0.33,0.95,156.42,-37.7,65.5
2.26,0.0,0.0,0.0,0.25,0.0,0.0,0.0,0.0,0.0,0.0,0.0,0.0,0.0,-0.3,0.39,1.39,11.79,17.2,57.9,0.0,0.0,3.25,0.0,0.0,0.0,0.25,0.0,0.0,0.75,0.0,0.0,0.0,0.58,0.2,0.39,65.76,-28.5,35.7
2.28,0.0,0.0,0.0,0.0,0.0,0.0,0.0,0.25,0.0,1.0,0.0,0.0,0.5,-0.92,-0.36,1.02,17.82,-15.2,-80.3,0.0,0.0,0.5,0.0,0.0,0.0,0.25,0.0,0.0,0.0,0.0,0.0,0.0,0.64,0.52,0.39,0.0,-37.1,54.6
2.3,0.0,0.0,0.0,0.0,0.0,0.0,0.25,3.5,0.75,4.25,0.0,1.25,1.5,-0.36,0.33,0.83,78.9,-10.7,-69.1,0.5,0.0,1.25,0.25,0.0,0.25,0.25,0.0,0.5,1.0,0.0,0.0,0.0,0.27,0.52,0.52,0.0,-15.2,14.5
2.32,0.0,0.0,0.0,0.5,0.0,0.0,0.25,3.75,1.0,5.5,0.0,3.25,2.75,-0.23,-0.11,1.14,160.74,-7.9,-72.6,0.5,0.0,0.75,0.0,0.5,0.25,0.25,0.0,0.5,0.0,0.0,0.0,0.0,-0.05,0.33,0.64,0.0,-18.1,43.5
2.34,0.0,0.0,0.75,1.0,0.0,0.0,0.25,4.75,1.75,4.0,0.0,0.0,4.5,-0.23,0.02,0.95,223.91,-7.8,-55.7,0.0,0.0,0.25,0.0,0.0,0.0,0.25,0.0,0.0,0.0,0.0,0.0,0.0,-0.36,0.08,0.89,0.0,-36.4,50.3
2.36,0.0,0.0,0.0,1.0,0.0,0.0,0.0,0.0,2.0,6.5,0.0,5.0,0.0,-0.11,0.08,0.95,253.64,-1.0,-72.6,0.0,0.0,0.25,0.25,0.0,0.0,0.0,0.0,0.0,0.0,0.0,0.0,0.0,-0.67,-0.42,0.95,0.0,-27.6,59.4
2.38,0.0,0.0,2.0,1.0,0.0,0.0,0.25,5.0,2.5,7.0,6.25,5.75,6.25,-0.23,0.02,0.95,356.34,-0.9,-67.4,0.0,0.0,0.25,0.0,0.0,0.0,0.0,0.0,0.0,0.0,0.0,0.0,0.0,-0.55,-0.92,0.95,0.0,-38.2,60.9
2.4,0.0,0.0,2.0,1.0,0.0,0.0,0.25,5.25,2.75,7.25,6.75,5.75,6.75,-0.17,0.02,0.95,471.26,-1.1,-67.7,0.0,0.0,0.25,0.0,0.0,0.0,0.0,0.0,0.25,0.0,0.0,0.0,0.0,-0.17,-1.17,1.08,0.0,-25.5,12.2
2.42,0.0,0.0,1.75,1.0,0.0,0.0,0.25,5.5,2.75,7.25,6.75,5.75,6.75,-0.17,0.08,0.95,592.33,-1.4,-68.4,0.0,0.0,0.5,0.0,0.5,0.0,0.5,0.0,0.25,1.0,0.0,0.0,0.0,0.39,-1.05,1.02,0.0,-4.9,-6.2
2.44,0.0,0.0,2.0,1.0,0.0,0.0,0.25,5.25,3.0,7.25,7.0,6.25,7.25,-0.17,0.02,0.95,671.59,-0.9,-68.7,0.0,0.0,0.5,0.25,0.5,0.5,0.25,0.0,0.5,1.0,0.0,0.0,0.0,0.27,-0.86,1.14,0.0,-1.6,0.6
2.46,0.0,0.0,1.75,1.0,0.0,0.0,0.25,5.0,3.0,7.25,7.0,6.25,7.25,-0.17,0.08,0.95,710.49,-1.1,-69.7,0.0,0.0,0.5,0.0,0.5,0.25,0.5,0.0,0.75,0.75,0.5,0.25,0.0,-0.23,-1.3,1.08,28.88,-6.5,-19.0
2.48,0.0,0.0,1.75,1.0,0.0,0.0,0.25,4.75,3.0,7.25,7.25,6.25,7.25,-0.17,0.08,0.95,711.64,-0.9,-70.0,0.0,0.0,1.0,0.0,0.5,0.0,0.25,0.0,0.75,1.75,0.75,1.0,0.75,0.02,0.08,0.95,65.26,-4.3,-46.5
2.5,0.0,0.0,1.75,1.0,0.0,0.0,0.0,4.75,3.0,7.25,7.25,6.5,7.25,-0.17,0.02,0.95,703.53,-1.0,-70.5,0.0,0.0,0.5,0.0,1.5,0.0,0.5,0.0,0.75,2.75,1.75,1.25,1.25,0.33,0.27,1.58,108.69,0.0,-50.0
2.52,0.0,0.0,1.75,0.75,0.0,0.0,0.0,4.5,3.0,7.25,7.0,6.25,7.25,-0.17,0.02,0.95,684.66,-1.1,-71.4,0.0,0.0,0.5,0.0,0.5,0.0,0.25,0.0,0.75,4.25,2.0,2.5,2.5,0.27,0.02,0.89,160.56,2.1,-74.6
2.54,0.0,0.0,1.75,0.75,0.0,0.0,0.0,3.75,2.5,7.25,7.0,6.25,7.25,-0.17,0.08,0.95,647.81,-1.0,-72.5,0.0,0.0,0.5,0.0,1.0,0.25,0.25,0.25,0.75,4.5,3.75,3.0,4.25,-0.23,0.08,0.89,220.86,2.4,-73.2
2.56,0.0,0.0,1.75,0.75,0.0,0.0,0.0,3.75,2.0,6.5,6.75,6.25,7.25,-0.17,0.08,1.08,608.56,-0.9,-72.9,0.0,0.0,0.0,0.0,0.25,1.25,0.5,0.0,0.5,6.5,5.0,4.5,5.5,0.02,0.14,1.08,288.41,4.3,-81.3
2.58,0.0,0.0,1.75,1.0,0.0,0.0,0.0,2.25,2.25,6.5,6.25,6.25,7.25,-0.11,0.02,0.95,566.57,-0.2,-73.1,0.0,0.0,0.25,0.0,1.0,1.25,0.25,1.5,1.5,7.75,7.25,6.25,7.25,-0.05,0.08,1.02,396.53,3.4,-76.5
2.6,0.0,0.0,0.0,0.75,0.0,0.0,0.0,0.5,1.25,6.0,4.0,6.0,6.75,-0.17,0.02,0.95,479.04,-2.9,-86.3,0.0,0.0,0.25,0.0,0.5,0.25,0.25,1.5,1.5,8.25,6.75,6.5,7.0,-0.05,0.02,0.89,494.5,3.0,-82.0
2.62,0.0,0.0,0.0,0.75,0.0,0.0,0.0,1.75,1.0,5.5,0.0,5.75,6.75,-0.3,0.02,1.02,381.67,-6.2,-86.1,0.0,0.0,0.5,0.0,1.0,1.25,0.25,2.75,1.5,8.75,7.5,7.0,7.75,0.02,0.08,0.95,599.21,3.7,-75.4
2.64,0.0,0.0,0.0,0.75,0.0,0.0,0.0,0.75,1.0,5.25,0.0,5.5,6.75,-0.36,0.08,1.08,319.13,-5.7,-88.2,0.0,0.0,0.25,0.0,1.5,1.25,0.25,3.0,1.5,8.75,8.25,7.25,8.75,0.02,0.08,0.95,676.88,3.9,-75.3
2.66,0.0,0.0,1.0,0.75,0.0,0.0,0.0,0.25,0.75,4.25,0.0,5.25,6.25,-0.3,0.02,0.89,276.2,-2.7,-81.8,0.0,0.0,0.25,0.0,1.75,1.25,0.25,3.0,1.5,8.75,8.25,7.25,8.75,0.02,0.08,0.95,731.5,3.9,-74.3
2.68,0.0,0.0,0.75,0.75,0.0,0.0,0.0,0.0,0.75,4.25,0.0,4.25,6.0,-0.23,-0.05,0.89,242.88,-3.6,-82.5,0.0,0.0,0.25,0.0,1.25,1.25,0.25,4.25,1.5,8.75,8.25,7.25,8.75,0.02,0.08,0.95,760.87,4.3,-75.1
2.7,0.0,0.0,0.5,0.75,0.0,0.0,0.0,0.0,0.5,4.25,0.0,5.0,5.75,-0.05,-0.3,0.33,224.0,-3.8,-86.2,1.25,0.0,0.25,0.0,1.75,1.25,0.25,3.25,1.5,8.75,8.25,7.25,9.0,0.02,0.08,0.89,775.56,3.0,-69.6
2.72,0.0,0.0,0.0,0.75,0.0,0.0,0.0,0.25,0.5,4.25,0.0,5.0,6.0,0.08,-0.05,0.95,214.72,-5.4,-90.3,0.0,0.0,0.25,0.0,1.25,1.25,0.25,3.25,1.25,8.75,8.0,7.25,9.0,0.02,0.08,0.95,760.89,4.3,-76.4
2.74,0.0,0.0,1.0,1.0,0.0,0.0,0.0,0.25,1.0,3.25,0.0,5.0,6.0,-0.05,0.08,1.14,214.08,-1.4,-78.7,0.0,0.0,0.25,0.0,1.5,1.25,0.25,4.25,1.25,8.75,8.25,7.25,8.75,0.08,0.08,0.95,743.6,4.4,-74.4
2.76,0.0,0.0,0.0,0.75,0.0,0.0,0.0,0.75,0.5,3.5,0.0,5.0,5.5,-0.17,0.08,1.08,213.97,-5.0,-88.8,0.0,0.0,0.25,0.0,1.75,1.25,0.25,3.0,0.75,8.75,7.75,7.25,9.0,0.02,0.08,1.02,712.02,4.5,-75.2
2.78,0.0,0.0,0.0,0.75,0.0,0.0,0.0,0.25,0.5,3.25,0.0,5.0,5.5,-0.3,-0.05,0.77,213.92,-4.4,-90.6,0.0,0.0,0.0,0.0,0.5,1.25,0.25,3.0,1.0,9.0,7.75,7.25,9.0,0.02,0.02,0.83,677.62,4.8,-80.7
2.8,0.0,0.0,0.0,0.75,0.0,0.0,0.0,0.25,0.25,3.5,1.0,5.0,6.0,0.02,-0.05,0.83,221.99,-4.2,-90.9,0.0,0.0,0.25,0.0,1.0,1.25,0.25,3.0,0.75,9.25,8.0,7.75,9.25,0.02,0.08,0.95,656.08,4.4,-78.6
2.82,0.0,0.0,0.0,0.75,0.0,0.0,0.0,0.25,0.25,3.5,0.0,5.0,6.0,0.33,0.02,1.08,228.23,-5.2,-91.8,0.0,0.0,0.25,0.0,1.0,1.25,0.25,3.0,1.0,9.5,8.25,7.75,9.25,0.02,0.02,0.89,647.87,4.3,-78.3
2.84,0.0,0.0,0.0,0.75,0.0,0.0,0.0,0.25,0.25,3.75,0.0,5.5,6.0,0.14,0.02,1.02,240.94,-4.9,-92.1,0.0,0.0,0.0,0.0,2.25,1.25,0.25,3.0,0.75,9.5,8.5,7.75,9.25,0.02,0.08,1.02,657.53,4.5,-74.9
2.86,0.0,0.0,0.0,0.75,0.0,0.0,0.0,0.25,0.5,4.25,0.0,5.75,6.25,-0.23,-0.05,0.89,253.29,-4.9,-91.4,0.0,0.0,0.0,0.0,1.25,1.25,0.25,3.0,0.75,9.5,8.25,7.75,9.75,0.08,0.08,0.95,658.58,4.8,-78.9
2.88,0.0,0.0,0.0,0.75,0.0,0.0,0.0,0.25,0.75,4.5,0.0,5.75,6.5,-0.11,-0.05,0.83,266.64,-4.9,-90.7,0.0,0.0,0.0,0.0,1.5,1.25,0.25,3.0,0.75,9.5,8.25,7.75,9.75,0.02,0.02,0.89,663.0,4.8,-78.0
2.9,0.0,0.0,0.0,0.75,0.0,0.0,0.0,0.25,0.75,4.5,0.0,5.75,6.75,-0.11,0.02,1.02,277.6,-5.1,-91.0,0.0,0.0,0.0,0.0,1.0,1.25,0.25,3.25,0.75,9.5,8.25,7.75,9.5,0.08,0.02,0.89,661.14,4.8,-79.4
2.92,0.0,0.0,0.0,0.75,0.0,0.0,0.0,0.25,0.75,5.0,0.0,5.75,6.75,-0.11,0.02,1.02,287.11,-5.3,-90.6,0.0,0.0,0.0,0.0,1.25,1.25,0.25,4.0,0.75,9.5,8.25,7.25,9.25,0.08,0.08,0.95,659.57,5.1,-77.2
2.94,0.0,0.0,0.0,0.75,0.0,0.0,0.0,0.25,0.75,4.75,0.0,5.75,6.75,-0.11,0.02,1.02,291.38,-5.2,-90.8,0.0,0.0,0.0,0.0,1.0,1.25,0.25,3.75,0.75,9.5,8.25,7.25,9.25,0.08,0.08,0.95,655.66,5.1,-78.4
2.96,0.0,0.0,0.0,0.75,0.0,0.0,0.0,0.25,0.75,4.5,0.0,5.75,6.5,-0.11,0.02,1.02,291.3,-4.9,-90.7,0.0,0.0,0.0,0.0,1.75,1.25,0.25,3.25,0.75,9.25,7.75,7.25,9.25,0.08,0.08,1.02,649.82,5.0,-76.1
2.98,0.0,0.0,0.0,0.75,0.0,0.0,0.0,0.25,0.75,4.5,0.0,5.5,6.25,-0.11,0.02,0.95,287.97,-5.0,-90.2,0.0,0.0,0.0,0.5,0.5,1.25,0.25,3.0,0.75,8.75,7.5,6.5,9.0,0.08,0.08,1.02,624.03,4.9,-78.5
3.0,0.0,0.0,0.0,0.75,0.0,0.0,0.0,0.0,0.5,4.25,0.0,5.75,6.25,-0.11,0.02,0.95,283.15,-4.7,-92.1,0.0,0.0,0.0,0.0,1.25,1.25,0.25,3.0,0.75,8.25,7.25,6.5,9.0,0.08,0.08,1.02,599.5,5.1,-77.5
3.02,0.0,0.0,0.75,0.75,0.0,0.0,0.0,0.0,0.5,4.25,0.0,5.75,6.25,-0.17,-0.05,0.77,280.09,-2.9,-85.7,0.0,0.0,0.0,0.0,1.0,0.75,0.25,2.5,0.75,7.75,5.75,5.75,8.5,0.14,0.08,0.95,548.42,5.4,-79.7
3.04,0.0,0.0,0.0,0.75,0.0,0.0,0.0,0.0,0.75,4.0,0.0,5.5,6.0,-0.11,-0.05,0.95,273.32,-4.4,-91.1,0.0,0.0,0.0,0.0,0.5,0.75,0.0,2.0,0.5,7.5,5.25,5.25,8.0,0.14,0.02,0.83,489.4,5.8,-82.8
3.06,0.0,0.0,0.0,0.5,0.0,0.0,0.0,0.0,0.5,4.25,0.0,5.0,6.0,-0.05,0.08,1.08,266.29,-5.6,-93.4,0.0,0.0,0.0,0.0,0.5,1.0,0.25,1.5,0.5,7.0,4.0,5.0,7.75,0.14,0.02,0.83,427.95,6.2,-82.1
3.08,0.0,0.0,0.25,0.75,0.0,0.0,0.0,0.0,0.5,4.0,0.0,5.0,5.5,-0.11,0.08,1.02,256.51,-4.1,-88.3,0.0,0.0,0.0,0.0,1.0,1.0,0.0,1.25,0.5,6.75,4.0,4.0,7.25,0.08,-0.05,0.77,379.88,6.6,-78.4
3.1,0.0,0.0,0.0,0.75,0.0,0.0,0.0,0.0,0.25,3.5,0.0,5.0,5.25,-0.11,0.02,1.02,244.03,-4.5,-91.7,0.0,0.0,0.0,0.0,1.0,0.75,0.25,1.25,0.5,6.25,3.0,3.75,6.75,0.08,0.02,0.95,338.8,6.7,-78.2
3.12,0.0,0.0,0.75,0.75,0.0,0.0,0.0,0.0,0.25,2.75,0.0,4.25,5.25,-0.05,0.02,1.02,229.82,-2.3,-83.3,0.0,0.0,0.25,0.0,0.5,0.75,0.25,1.25,0.5,6.0,2.5,3.25,6.25,0.08,0.08,0.95,301.85,6.8,-78.6
3.14,0.0,0.0,0.0,0.75,0.0,0.0,0.0,0.0,0.25,2.5,0.0,4.25,4.25,-0.11,0.02,1.02,210.7,-3.7,-90.4,0.0,0.0,0.0,0.0,1.0,0.5,0.0,1.25,0.25,5.75,2.0,2.75,6.0,0.08,0.08,0.95,275.36,8.2,-78.0
3.16,0.0,0.0,0.75,0.75,0.0,0.0,0.0,0.0,0.25,2.0,0.0,3.25,4.0,-0.23,-0.05,0.89,189.41,-1.1,-78.4,0.0,0.0,0.0,0.0,1.0,0.5,0.25,1.0,0.5,5.5,2.0,2.5,5.75,0.08,0.08,0.95,254.04,7.6,-76.5
3.18,0.0,0.0,1.75,0.75,0.0,0.0,0.0,0.0,0.25,1.25,0.0,2.25,2.75,-0.3,-0.11,0.7,160.19,5.1,-55.2,0.0,0.0,0.0,0.0,0.5,0.5,0.25,1.25,0.5,5.25,1.5,2.5,5.25,0.02,0.14,0.95,235.51,8.1,-79.4
3.2,0.0,0.0,0.0,0.75,0.0,0.0,0.0,0.0,0.0,1.0,0.0,0.5,2.75,-0.17,-0.11,0.7,119.19,-7.1,-77.3,0.0,0.0,0.25,0.0,1.0,0.0,0.25,1.25,0.5,4.75,1.75,2.5,5.0,0.02,0.08,0.95,224.76,6.3,-75.5
3.22,0.0,0.0,1.25,0.5,0.0,0.0,0.0,0.0,0.25,0.75,0.0,1.25,1.75,-0.17,0.14,1.2,86.77,6.1,-49.8,0.0,0.0,0.25,0.0,0.5,0.5,0.25,0.75,0.5,4.5,1.75,2.25,4.75,0.02,0.08,0.95,215.14,6.5,-77.0
3.24,0.0,0.0,1.75,0.75,0.0,0.0,0.0,0.0,0.25,0.75,0.0,1.0,1.5,-0.17,0.14,1.02,64.31,10.0,-30.9,0.0,0.0,0.25,0.0,0.5,0.25,0.25,0.5,0.5,4.25,1.75,2.5,4.25,0.02,0.14,0.95,206.65,5.4,-78.9
3.26,0.0,0.0,1.75,0.75,0.0,0.0,0.0,0.0,0.25,0.5,0.0,0.0,1.5,-0.11,0.08,0.95,49.12,11.5,-12.6,0.0,0.0,0.0,0.0,0.5,0.25,0.0,0.5,0.5,4.0,1.75,2.25,4.5,0.02,0.08,0.95,201.06,6.8,-82.3
3.28,0.0,0.0,1.0,0.75,0.0,0.0,0.0,0.0,0.25,0.25,0.0,0.0,1.0,-0.17,0.02,0.95,34.34,11.3,-9.9,0.0,0.0,0.25,0.0,1.0,0.25,0.25,0.5,0.5,4.0,1.75,1.75,3.5,0.02,0.08,0.95,193.91,5.5,-70.0
3.3,0.0,0.0,0.25,0.0,0.0,0.0,0.0,0.0,0.25,0.0,0.0,0.0,0.5,-0.3,0.08,0.95,12.12,5.7,-49.4,0.0,0.0,0.25,0.0,0.5,0.25,0.25,0.0,0.5,4.0,1.5,1.75,3.25,0.02,0.08,0.95,183.44,5.3,-76.2
3.32,0.0,0.0,1.25,1.5,0.0,0.0,0.0,0.0,1.75,0.75,0.0,0.25,0.5,-0.42,0.2,0.7,22.22,13.2,-6.1,0.0,0.0,0.25,0.0,0.5,0.0,0.25,0.0,0.25,3.75,1.0,1.5,3.0,0.02,0.08,0.95,167.98,5.9,-78.0
3.34,0.0,0.0,2.5,1.0,0.0,0.0,2.75,0.0,0.25,0.25,0.0,0.25,0.5,-0.42,0.27,0.7,39.51,24.7,22.8,0.0,0.0,0.25,0.0,0.5,0.0,0.25,0.0,0.5,3.5,1.5,1.5,2.75,0.02,0.08,0.95,157.74,4.3,-76.2
3.36,0.0,0.0,2.25,1.25,0.0,0.0,2.25,0.0,1.75,1.25,0.0,0.25,0.75,-0.48,0.08,0.95,75.45,15.9,-3.0,0.0,0.0,0.0,0.0,0.5,0.25,0.25,0.0,0.25,3.5,1.75,1.5,2.75,0.02,0.08,0.95,151.53,5.8,-77.9
3.38,0.0,0.0,0.25,0.25,0.0,0.0,0.0,0.0,0.25,0.25,0.0,0.0,0.0,-0.3,0.02,1.52,62.87,13.2,2.4,0.0,0.0,0.25,0.0,0.5,0.25,0.25,0.0,0.5,2.75,1.0,1.0,2.25,0.02,0.14,0.95,139.41,4.9,-69.4
3.4,0.0,0.0,1.0,0.5,0.0,0.0,0.0,0.0,0.0,0.0,0.0,0.0,0.25,-0.23,0.27,0.95,52.24,24.8,35.8,0.0,0.0,0.0,0.0,0.5,0.25,0.25,0.0,0.25,3.0,1.5,1.0,2.75,0.02,0.08,0.95,134.92,6.5,-76.5
3.42,0.0,0.0,1.75,0.0,0.0,0.0,0.0,0.0,0.0,0.25,0.0,0.0,0.25,0.14,0.27,0.89,35.22,26.6,27.1,0.0,0.0,0.25,0.0,0.5,0.5,0.0,0.0,0.25,2.75,1.5,1.0,2.25,0.02,0.14,0.95,129.68,5.5,-69.2
3.44,0.0,0.0,1.75,0.75,0.0,0.0,0.0,0.0,0.0,0.5,0.0,0.0,0.25,0.33,0.27,0.89,36.92,21.2,26.7,0.0,0.0,0.0,0.0,0.5,0.25,0.25,0.0,0.25,2.75,1.25,1.0,2.75,0.02,0.14,0.95,128.82,6.7,-76.5
3.46,0.0,0.0,1.75,0.5,0.0,0.0,0.0,0.0,0.0,0.5,0.0,0.0,0.25,0.89,0.2,1.2,38.11,21.6,24.0,0.0,0.0,0.0,0.0,0.5,0.5,0.0,0.0,0.25,2.75,0.75,1.0,3.0,0.02,0.14,0.95,128.59,8.8,-76.0
3.48,0.0,0.0,1.25,1.25,0.0,0.0,0.0,0.0,1.25,1.25,0.0,0.0,0.25,0.08,0.08,0.95,56.64,11.9,-2.9,0.0,0.0,0.0,0.0,0.5,0.0,0.25,0.0,0.25,2.75,1.0,1.0,2.75,-0.05,0.14,0.95,129.48,6.7,-79.6
3.5,0.0,0.0,1.75,0.75,0.0,0.0,0.0,0.0,0.0,0.75,0.0,0.0,0.5,-0.23,0.14,0.95,62.53,16.5,10.9,0.0,0.0,0.0,0.0,0.5,0.25,0.25,0.0,0.25,2.25,0.75,0.75,2.25,-0.05,0.14,0.95,122.3,7.3,-73.1
3.52,0.0,0.0,1.25,0.75,0.0,0.0,0.0,0.0,0.25,0.0,0.0,0.0,0.25,-0.11,0.08,0.95,58.6,24.1,33.4,0.0,0.0,0.25,0.0,0.5,0.0,0.0,0.0,0.25,1.5,0.5,0.25,1.0,-0.3,0.33,0.95,100.21,4.4,-58.2
3.54,0.0,0.0,1.25,1.25,0.0,0.0,1.5,2.25,0.75,0.5,0.0,0.25,0.5,-0.11,0.08,0.95,75.27,7.0,-8.3,0.0,0.0,0.25,0.0,0.5,0.25,0.25,0.0,0.0,1.5,0.5,0.25,1.5,-0.36,0.39,0.89,83.56,6.2,-58.1
3.56,0.0,0.0,1.5,1.0,0.0,0.0,1.0,1.0,0.75,0.5,0.0,0.0,0.5,-0.17,0.14,0.95,80.68,12.0,1.0,0.0,0.0,0.25,0.0,0.5,0.25,0.0,0.0,0.25,1.25,0.25,0.5,1.5,-0.23,0.45,0.83,69.95,5.8,-60.1
3.58,0.0,0.0,2.25,1.0,0.0,0.0,1.5,0.5,1.0,1.25,0.0,0.0,0.5,-0.17,0.14,0.95,99.41,14.5,1.7,0.0,0.0,0.25,0.0,0.5,0.0,0.25,0.0,0.0,1.0,0.0,0.25,1.25,0.33,0.39,0.83,56.4,5.5,-55.6
3.6,0.0,0.0,2.0,1.0,0.0,0.0,1.0,0.5,1.0,0.25,0.0,0.25,0.5,-0.17,0.14,0.95,104.91,17.6,6.4,0.0,0.0,0.25,0.0,0.5,0.0,0.0,0.0,0.0,1.0,0.25,0.25,1.5,0.33,0.14,1.02,50.33,6.2,-63.0
3.62,0.0,0.0,2.0,1.0,0.0,0.0,1.5,0.5,1.0,1.0,0.0,0.25,0.5,-0.17,0.08,0.95,117.2,14.5,-1.5,0.0,0.0,0.25,0.0,0.5,0.0,0.25,0.0,0.0,1.0,0.25,0.25,1.75,0.33,0.14,0.89,50.43,5.5,-63.3
3.64,0.0,0.0,2.25,1.0,0.0,0.0,1.25,0.5,0.25,0.0,0.0,0.0,0.5,-0.17,0.08,0.95,107.49,21.7,25.4,0.0,0.0,0.25,0.0,0.5,0.0,0.25,0.0,0.0,1.0,0.0,0.25,1.0,0.14,0.02,0.95,44.42,4.8,-51.3
3.66,0.0,0.0,1.5,0.0,0.0,0.0,0.0,0.0,0.0,0.0,0.0,0.0,0.25,-0.17,0.08,0.95,83.24,30.8,36.5,0.0,0.0,0.25,0.0,0.5,0.25,0.25,0.0,0.25,1.0,0.0,0.25,1.25,0.08,-0.23,0.95,44.93,5.4,-49.2
3.68,0.0,0.0,0.0,0.0,0.0,0.0,0.0,0.0,0.0,0.0,0.0,0.0,0.0,-0.17,0.08,0.95,48.03,0.0,0.0,0.0,0.0,0.25,0.0,1.25,0.25,0.25,0.0,0.0,1.0,0.0,0.25,1.25,0.02,-0.3,1.02,48.73,5.9,-30.4
3.7,0.0,0.0,1.75,0.0,0.0,0.0,0.0,0.0,0.0,1.0,0.0,0.0,0.5,-0.17,0.08,0.95,35.59,13.9,-6.7,0.0,0.0,0.25,0.0,0.5,0.0,0.25,0.0,0.25,1.0,0.0,0.25,1.5,-0.17,0.02,0.95,52.98,4.9,-58.0
3.72,0.0,0.0,1.75,0.75,0.0,0.0,0.0,0.0,0.25,1.0,0.0,0.0,0.5,-0.17,0.08,0.95,37.25,14.4,3.1,0.0,0.0,0.25,0.0,0.5,0.0,0.0,0.0,0.25,1.25,0.0,0.25,1.25,-0.11,0.14,0.89,56.28,6.2,-58.4
3.74,0.0,0.0,1.5,0.25,0.0,0.0,0.0,0.25,0.0,0.75,0.0,0.0,0.5,-0.17,0.08,0.95,43.25,12.2,-4.0,0.0,0.0,0.25,0.0,0.5,0.0,0.25,0.0,0.25,1.25,0.25,0.25,1.25,0.02,0.14,0.95,62.05,4.1,-56.9
3.76,0.0,0.0,0.75,0.75,0.0,0.0,0.0,0.0,0.0,1.0,0.0,0.0,0.5,-0.17,0.08,0.95,44.87,6.6,-12.8,0.0,0.0,0.25,0.0,0.5,0.0,0.25,0.0,0.25,1.25,0.25,0.25,1.25,0.02,0.14,0.95,66.15,4.1,-56.9
3.78,0.0,0.0,1.75,0.25,0.0,0.0,0.0,0.25,0.25,1.0,0.0,0.0,0.5,-0.17,0.08,0.95,46.52,12.1,-6.4,0.0,0.0,0.25,0.0,0.5,0.0,0.25,0.0,0.25,1.0,0.5,0.25,1.25,0.02,0.14,0.95,67.17,2.6,-56.9
3.8,0.0,0.0,1.0,0.0,0.0,0.0,0.0,0.0,0.25,1.0,0.0,0.0,0.5,-0.17,0.08,0.95,42.88,7.0,-28.2,0.0,0.0,0.25,0.0,1.0,0.0,0.25,0.0,0.25,1.25,0.5,0.25,1.25,0.02,0.14,0.95,72.54,3.3,-45.1
3.82,0.0,0.0,1.75,0.0,0.0,0.0,0.0,0.25,0.25,1.0,0.0,0.0,0.5,-0.17,0.08,0.95,45.5,11.8,-10.8,0.0,0.0,0.25,0.0,0.5,0.5,0.25,0.0,0.5,1.25,0.5,0.25,1.25,0.02,0.14,0.95,78.32,4.3,-48.6
3.84,0.0,0.0,1.75,0.0,0.0,0.0,0.0,0.25,0.0,0.0,0.0,0.0,0.5,-0.17,0.08,0.95,44.26,22.5,17.0,0.0,0.0,0.25,0.0,0.5,0.0,0.25,0.0,0.25,1.25,0.5,0.25,1.25,0.02,0.14,0.95,78.67,3.3,-57.9
3.86,0.0,0.0,0.25,0.0,0.0,0.0,0.0,0.0,0.0,0.0,0.0,0.0,0.0,-0.17,0.08,0.95,31.26,38.2,60.9,0.0,0.0,0.25,0.0,0.5,0.75,0.25,0.0,0.5,1.5,0.25,0.25,1.5,0.02,0.14,0.95,83.86,6.7,-48.0
3.88,0.0,0.0,0.25,0.0,0.0,0.0,0.0,0.0,0.25,0.75,0.0,0.0,0.25,-0.17,0.08,0.95,25.45,-1.6,-52.1,0.0,0.0,0.25,0.0,0.5,0.25,0.25,0.0,0.25,1.5,0.25,0.25,1.5,0.02,0.14,0.95,84.94,6.1,-56.3
3.9,0.0,0.0,1.0,0.0,0.0,0.0,0.0,0.25,0.0,0.0,0.0,0.0,0.25,-0.17,0.08,0.95,22.18,20.6,16.1,0.0,0.0,0.25,0.0,0.5,0.25,0.25,0.0,0.25,1.5,0.75,0.25,1.0,0.02,0.14,0.95,84.52,3.6,-52.6
3.92,0.0,0.0,0.0,0.0,0.0,0.0,0.0,0.0,0.25,0.75,0.0,0.0,0.25,-0.17,0.08,0.95,19.35,-9.8,-75.3,0.0,0.0,0.25,0.0,0.5,0.5,0.25,0.0,0.25,1.25,0.5,0.25,1.25,0.02,0.14,0.95,82.72,5.2,-49.1
3.94,0.0,0.0,0.0,0.0,0.0,0.0,0.0,0.25,0.25,1.0,0.0,0.0,0.25,-0.17,0.08,0.95,17.97,-11.6,-70.1,0.0,0.0,0.25,0.0,1.0,0.5,0.25,0.0,0.5,1.5,0.25,0.25,1.5,0.02,0.14,0.95,87.21,5.7,-41.5
3.96,0.0,0.0,0.0,0.0,0.0,0.0,0.0,0.0,0.0,0.75,0.0,0.0,0.25,-0.17,0.08,0.95,16.91,-15.1,-84.2,0.0,0.0,0.25,0.0,0.5,0.25,0.0,0.0,0.5,1.5,0.5,0.25,1.0,0.02,0.14,0.95,85.07,4.4,-52.7
3.98,0.0,0.0,0.0,0.0,0.0,0.0,0.0,0.25,0.25,0.75,0.0,0.0,0.25,-0.17,0.08,0.95,18.62,-10.9,-69.2,0.0,0.0,0.25,0.0,0.5,0.5,0.25,0.0,0.5,1.5,0.5,0.5,0.75,0.02,0.14,0.95,84.9,3.3,-46.8
4.0,0.0,0.0,0.0,0.0,0.0,0.0,0.0,0.25,0.0,0.0,0.0,0.0,0.25,-0.17,0.08,0.95,12.71,-15.2,-74.8,0.0,0.0,0.25,0.0,0.5,0.5,0.0,0.0,0.5,1.25,0.75,0.25,1.5,0.02,0.14,0.95,86.01,4.9,-54.3
4.02,0.0,0.0,0.0,0.0,0.0,0.0,0.0,0.0,2.75,0.0,0.0,0.0,0.25,-0.17,0.08,0.95,22.66,9.9,-44.7,0.0,0.0,0.25,0.0,0.5,0.25,0.25,0.0,0.25,1.25,0.5,0.25,1.0,0.02,0.14,0.95,81.53,3.7,-50.0
4.04,0.0,0.0,0.0,0.0,0.0,0.0,3.75,4.25,2.5,0.25,0.0,0.0,0.0,-0.17,0.08,0.95,61.56,1.4,-26.2,0.0,0.0,0.25,0.0,0.5,0.25,0.25,0.0,0.5,1.25,0.5,0.25,1.0,0.02,0.14,0.95,77.98,2.9,-49.4
4.06,0.0,0.0,1.25,0.0,0.0,0.0,4.0,4.25,2.5,0.25,0.0,0.0,0.0,-0.23,0.14,0.95,105.22,6.5,-14.5,0.0,0.0,0.25,0.0,0.5,0.0,0.25,0.0,0.5,1.25,0.75,0.25,1.25,0.02,0.14,0.95,77.14,1.8,-57.8
4.08,0.0,0.0,0.0,0.0,0.0,0.0,4.0,4.5,2.5,0.0,0.0,0.0,0.0,-0.23,0.08,0.95,134.15,1.8,-24.4,0.0,0.0,0.25,0.0,0.5,0.25,0.25,0.0,0.25,1.25,0.25,0.25,1.0,0.02,0.14,0.95,73.44,4.6,-48.6
4.1,0.0,0.0,0.0,0.0,0.0,0.0,4.25,4.25,2.75,0.0,0.0,0.0,0.0,-0.23,0.08,0.95,149.37,3.0,-23.7,0.0,0.0,0.25,0.0,0.5,0.5,0.25,0.25,0.5,1.25,0.25,0.25,1.25,0.02,0.14,0.95,74.4,5.6,-46.9
4.12,0.0,0.0,0.0,0.0,0.0,0.0,3.75,4.0,2.5,0.0,0.0,0.0,0.0,-0.17,0.08,0.95,148.51,2.5,-24.3,0.0,0.0,0.25,0.0,0.5,0.25,0.25,0.0,0.5,1.25,0.25,0.25,1.25,0.02,0.14,0.95,74.56,4.2,-51.4
4.14,0.0,0.0,0.0,0.0,0.0,0.0,3.75,3.75,1.75,0.0,0.0,0.0,0.0,-0.11,0.08,0.95,140.17,2.2,-22.3,0.0,0.0,0.0,0.0,0.5,0.5,0.25,0.5,0.5,1.25,0.5,0.25,1.0,0.02,0.14,0.95,77.58,7.2,-50.1
4.16,0.0,0.0,0.0,0.0,0.0,0.0,3.25,2.25,1.25,0.0,0.0,0.0,0.0,-0.11,0.08,0.95,121.88,5.4,-18.2,0.0,0.0,0.25,0.0,0.5,0.75,0.25,0.0,0.5,1.25,0.5,0.25,1.25,0.02,0.14,0.95,79.64,5.1,-45.0
4.18,0.0,0.0,0.0,0.25,0.0,0.0,3.5,3.75,0.0,0.0,0.0,0.0,0.0,-0.11,0.08,0.95,109.66,-0.7,-14.8,0.0,0.0,0.25,0.0,0.5,0.5,0.25,0.0,0.5,1.25,0.0,0.25,1.0,0.02,0.14,0.95,77.25,5.5,-42.2
4.2,0.0,0.0,0.0,0.0,0.0,0.0,0.0,0.25,0.0,0.0,0.0,0.0,0.25,-0.11,0.08,0.95,73.34,-15.2,-74.8,0.0,0.0,0.25,0.0,0.5,0.0,0.25,0.0,0.5,1.25,0.25,0.5,0.75,0.02,0.14,0.95,73.93,1.2,-52.5
4.22,0.0,0.0,0.75,0.0,0.0,0.0,0.0,0.0,0.0,0.0,0.0,0.0,0.0,-0.17,0.08,0.95,43.16,38.2,60.9,0.0,0.0,0.25,0.0,0.5,0.5,0.25,0.0,0.5,1.25,0.5,0.25,1.25,0.02,0.14,0.95,74.55,4.3,-48.6
4.24,0.0,0.0,0.0,0.0,0.0,0.0,0.0,0.0,0.25,0.5,0.0,0.0,0.0,-0.17,0.08,0.95,15.08,-6.4,-63.3,0.0,0.0,0.0,0.0,0.5,0.25,0.25,0.0,0.5,1.5,0.5,0.5,0.75,0.02,0.14,0.95,74.79,4.6,-56.8
4.26,0.0,0.0,0.0,0.0,0.0,0.0,0.0,0.25,0.25,0.5,0.0,0.0,0.25,-0.17,0.08,0.95,0.89,-10.0,-67.9,0.0,0.0,0.25,0.0,0.5,0.5,0.25,0.0,0.5,1.5,0.5,0.25,1.25,0.02,0.14,0.95,79.99,4.9,-49.9
4.28,0.0,0.0,0.0,0.0,0.0,0.0,0.0,0.25,0.0,0.5,0.0,0.0,0.25,-0.17,0.08,0.95,0.0,-15.4,-75.1,0.0,0.0,0.25,0.0,0.5,0.5,0.25,0.0,0.5,1.25,0.75,0.25,1.0,0.02,0.14,0.95,81.53,3.2,-46.8
4.3,0.0,0.0,1.75,0.0,0.0,0.0,0.0,0.25,0.25,0.5,0.0,0.0,0.25,-0.17,0.08,0.95,4.53,18.4,8.0,0.0,0.0,0.25,0.0,1.25,0.5,0.25,0.0,0.5,1.25,1.5,0.25,1.0,0.02,0.14,0.95,90.36,1.7,-37.0
4.32,0.0,0.0,0.0,0.0,0.0,0.0,0.0,0.25,0.0,0.75,0.0,0.0,0.25,-0.17,0.08,0.95,8.21,-15.5,-75.2,0.0,0.0,0.25,0.0,0.5,0.0,0.0,0.0,0.5,1.5,1.5,0.25,1.25,0.02,0.14,0.95,94.18,1.6,-62.5
4.34,0.0,0.0,0.0,0.0,0.0,0.0,0.0,0.5,0.0,0.75,0.0,0.0,0.25,-0.17,0.08,0.95,12.18,-15.7,-69.2,0.0,0.0,0.25,0.0,0.5,0.0,0.25,0.0,0.5,1.5,0.75,0.25,1.0,0.02,0.14,0.95,92.29,1.9,-56.0
4.36,0.0,0.0,0.0,1.25,0.0,0.0,0.5,0.25,1.75,1.5,0.0,0.0,0.5,-0.17,0.08,0.95,34.43,2.9,-29.5,0.0,0.0,0.25,0.0,0.5,0.25,0.0,0.0,0.5,1.5,1.5,0.5,1.0,0.02,0.14,0.95,94.45,1.4,-58.7
4.38,0.0,0.0,0.0,0.0,0.0,0.0,3.25,2.25,0.75,0.0,0.0,0.0,0.0,-0.17,0.08,0.95,52.09,4.7,-16.0,0.0,0.0,0.25,0.0,1.0,0.0,0.25,0.0,0.5,1.5,0.5,0.5,1.25,0.02,0.14,0.95,93.78,2.6,-48.9
4.4,0.0,0.0,0.0,0.0,0.0,0.0,3.5,2.0,1.5,0.0,0.0,0.0,0.0,-0.17,0.08,0.95,70.65,7.5,-17.2,0.0,0.0,0.25,0.0,0.5,0.25,0.0,0.25,0.5,1.5,0.5,0.25,1.25,0.02,0.14,0.95,92.59,5.5,-54.8
4.42,0.0,0.0,0.0,0.0,0.0,0.0,3.5,2.0,1.25,0.0,0.0,0.0,0.0,-0.17,0.08,0.95,79.67,7.2,-16.1,0.0,0.0,0.25,0.0,0.5,0.5,0.25,0.0,0.5,1.5,0.5,0.25,1.0,0.02,0.14,0.95,89.46,4.4,-46.9
4.44,0.0,0.0,0.0,0.0,0.0,0.0,3.5,2.5,1.0,0.0,0.0,0.0,0.0,-0.17,0.08,0.95,88.57,4.7,-17.2,0.0,0.0,0.25,0.0,0.5,0.25,0.25,0.0,0.5,1.5,0.5,0.25,1.0,0.02,0.14,0.95,85.34,3.5,-50.7
4.46,0.0,0.0,0.0,0.0,0.0,0.0,3.75,3.25,2.5,0.0,0.0,0.0,0.0,-0.17,0.08,0.95,99.27,4.4,-22.9,0.0,0.0,0.25,0.0,1.0,0.25,0.25,0.0,0.5,1.5,0.75,0.25,1.0,0.02,0.14,0.95,84.28,2.9,-41.3
4.48,0.0,0.0,0.0,0.0,0.0,0.0,4.5,4.25,2.0,0.0,0.0,0.0,0.0,-0.17,0.08,0.95,114.44,2.6,-21.7,0.0,0.0,0.25,0.0,0.5,0.0,0.25,0.0,0.5,1.5,0.5,0.5,0.75,0.02,0.14,0.95,80.72,1.4,-54.9
4.5,0.0,0.0,0.0,0.0,0.0,0.0,4.5,3.75,2.5,0.0,0.0,0.0,0.0,-0.17,0.08,0.95,127.14,4.4,-21.6,0.0,0.0,0.0,0.0,1.0,0.5,0.25,0.0,0.5,1.25,0.25,0.5,1.25,0.02,0.14,0.95,81.68,6.3,-44.6
4.52,0.0,0.0,0.0,0.0,0.0,0.0,3.5,2.25,1.25,0.0,0.0,0.0,0.0,-0.17,0.08,0.95,119.2,6.1,-17.2,0.0,0.0,0.25,0.0,0.5,0.0,0.25,0.0,0.5,1.25,0.25,0.25,1.0,0.02,0.14,0.95,75.69,2.6,-52.6
4.54,0.0,0.0,0.0,0.0,0.0,0.0,3.5,1.25,1.5,0.0,0.0,0.0,0.0,-0.17,0.08,0.95,103.71,11.6,-13.5,0.0,0.0,0.25,0.0,0.5,0.25,0.25,0.0,0.5,1.25,0.0,0.5,1.25,0.02,0.14,0.95,73.7,4.3,-53.2
4.56,0.0,0.0,0.0,0.0,0.0,0.0,3.25,2.0,1.5,0.0,0.0,0.0,0.0,-0.17,0.08,0.95,90.27,6.9,-18.2,0.0,0.0,0.25,0.0,0.5,0.0,0.25,0.0,0.5,1.5,0.25,0.5,0.75,0.02,0.14,0.95,70.8,2.0,-53.8
4.58,0.0,0.0,0.0,0.0,0.0,0.0,3.5,2.0,1.25,0.0,0.0,0.0,0.0,-0.17,0.08,0.95,79.96,7.2,-16.1,0.0,0.0,0.25,0.0,0.5,0.0,0.25,0.0,0.5,1.5,0.25,0.5,1.0,0.02,0.14,0.95,72.05,2.7,-56.8
4.6,0.0,0.0,0.0,0.0,0.0,0.0,3.25,2.0,1.25,0.0,0.0,0.0,0.0,-0.17,0.08,0.95,73.4,6.6,-17.2,0.0,0.0,0.25,0.0,0.5,0.0,0.25,0.0,0.5,2.0,0.5,0.5,1.0,0.02,0.14,0.95,76.08,3.3,-59.4
