time,left pressure 0[N/cm²],left pressure 1[N/cm²],left pressure 2[N/cm²],left pressure 3[N/cm²],left pressure 4[N/cm²],left pressure 5[N/cm²],left pressure 6[N/cm²],left pressure 7[N/cm²],left pressure 8[N/cm²],left pressure 9[N/cm²],left pressure 10[N/cm²],left pressure 11[N/cm²],left pressure 12[N/cm²],left acceleration X[g],left acceleration Y[g],left acceleration Z[g],left total force[N],left center of pressure X[mm],left center of pressure Y[mm],right pressure 0[N/cm²],right pressure 1[N/cm²],right pressure 2[N/cm²],right pressure 3[N/cm²],right pressure 4[N/cm²],right pressure 5[N/cm²],right pressure 6[N/cm²],right pressure 7[N/cm²],right pressure 8[N/cm²],right pressure 9[N/cm²],right pressure 10[N/cm²],right pressure 11[N/cm²],right pressure 12[N/cm²],right acceleration X[g],right acceleration Y[g],right acceleration Z[g],right total force[N],right center of pressure X[mm],right center of pressure Y[mm]
0.02,4.5,1.0,7.0,7.0,3.5,1.75,0.5,4.25,2.75,2.25,0.5,1.25,1.0,-0.17,0.08,0.95,595.08,11.8,24.7,0.5,0.5,1.25,0.5,0.5,0.0,0.0,0.0,0.0,0.0,0.0,0.0,0.0,0.33,0.58,1.64,61.53,-23.4,70.1
0.04,4.75,1.0,7.25,7.25,0.0,1.75,0.5,3.75,2.0,1.25,0.0,0.5,1.0,-0.17,0.08,0.95,525.27,15.7,32.6,0.5,0.0,1.0,0.25,0.5,0.0,0.0,0.0,0.0,0.75,0.0,0.0,0.0,0.39,0.95,1.7,53.44,-15.0,31.7
0.06,4.75,1.0,7.25,7.5,2.5,1.5,0.5,2.75,1.75,1.25,0.0,0.5,0.75,-0.17,0.08,0.95,486.81,15.5,38.6,0.0,0.25,1.25,0.5,0.5,0.0,0.0,0.0,0.0,0.5,0.0,0.0,0.0,0.45,1.39,1.83,49.4,-16.4,40.5
0.08,5.75,1.0,8.0,7.5,0.0,1.25,0.5,2.0,1.5,1.25,0.0,0.5,0.75,-0.17,0.08,0.95,443.49,19.7,42.2,0.0,0.5,1.25,0.5,0.5,0.0,0.0,0.0,0.0,0.25,0.0,0.0,0.0,0.27,1.58,2.45,44.57,-18.6,54.4
0.1,6.0,1.0,8.0,8.25,0.0,1.25,0.25,2.25,1.0,1.25,0.0,0.5,0.5,-0.17,0.14,0.95,417.66,19.8,45.0,0.0,0.25,0.5,0.5,1.0,0.0,0.0,0.0,0.0,0.25,0.0,0.0,0.25,-0.05,2.08,2.45,42.27,-6.9,34.4
0.12,6.5,1.5,8.0,8.5,0.0,1.25,0.0,1.5,1.0,1.25,0.0,0.5,0.75,-0.17,0.14,0.95,408.08,20.5,47.6,0.25,0.25,1.25,0.5,0.5,0.0,0.0,0.0,0.0,0.25,0.0,0.0,0.0,0.02,2.77,1.52,44.1,-20.3,54.0
0.14,6.5,2.0,8.0,8.75,0.0,1.0,0.0,1.25,1.0,1.25,0.0,0.5,0.75,-0.17,0.14,0.95,412.19,20.9,49.4,0.0,0.0,1.0,0.25,1.0,0.0,0.0,0.0,0.0,0.0,0.0,0.0,0.0,-0.11,3.58,0.02,43.19,-16.3,57.1
0.16,7.25,2.5,8.5,9.75,0.0,1.25,0.0,1.25,1.0,1.25,0.0,0.5,0.75,-0.17,0.14,0.95,438.85,20.9,51.4,0.0,0.0,0.5,0.25,0.5,0.0,0.0,0.0,0.0,0.25,0.0,0.0,0.0,-0.86,4.45,-0.05,36.46,-11.4,36.5
0.18,7.5,3.25,8.75,9.75,0.0,1.25,0.0,0.75,1.0,1.25,0.0,0.5,0.75,-0.17,0.2,0.95,469.74,21.5,54.1,0.5,0.5,1.0,0.5,0.25,0.0,0.0,0.0,0.0,1.0,0.0,0.0,0.0,-1.48,4.02,0.2,42.54,-14.2,33.9
0.2,8.0,3.75,9.25,11.0,0.0,1.75,0.0,0.75,1.0,1.25,0.0,0.5,0.75,-0.17,0.2,1.02,520.93,21.1,55.2,0.0,0.0,0.5,0.0,0.5,0.0,0.0,0.0,0.0,0.0,0.0,0.0,0.25,-0.17,0.27,0.89,34.95,-10.5,25.2
0.22,8.25,4.0,9.25,11.0,0.0,1.75,0.0,0.5,1.0,1.25,0.0,0.5,0.75,-0.23,0.2,1.08,561.74,21.3,56.4,0.0,0.0,0.0,0.0,0.0,0.0,0.0,0.0,0.0,4.5,0.25,3.25,3.75,0.2,-0.3,1.64,94.19,7.7,-96.1
0.24,8.5,4.5,9.25,11.0,0.0,1.5,0.0,0.25,0.75,1.25,0.0,0.5,0.75,-0.23,0.27,1.08,597.3,21.9,58.6,0.5,0.5,0.0,0.5,0.0,0.75,0.0,0.0,0.75,8.25,3.0,5.25,7.5,-0.86,0.45,2.02,215.85,4.9,-79.1
0.26,8.5,4.75,9.25,11.0,0.0,1.25,0.0,0.75,0.75,0.75,0.0,0.5,0.75,-0.17,0.27,1.08,614.28,22.1,59.5,0.0,0.0,1.75,0.0,1.0,0.0,0.0,1.75,0.5,8.0,6.0,5.5,7.0,-0.11,0.64,2.64,334.22,2.2,-74.1
0.28,8.25,5.0,9.25,11.0,0.0,0.0,0.0,0.25,0.75,1.0,0.0,0.5,0.5,-0.23,0.33,1.14,617.52,23.9,61.9,0.0,0.75,0.0,0.5,0.5,0.75,0.0,4.75,1.5,8.75,7.5,5.75,8.0,0.27,0.2,1.2,490.75,4.6,-72.7
0.3,8.5,5.25,8.75,11.0,0.0,0.0,0.0,0.25,0.75,0.75,0.0,0.5,0.75,-0.36,0.39,1.27,608.31,23.7,62.2,0.25,0.5,0.0,1.25,1.25,2.25,0.25,6.0,2.75,9.25,8.25,5.75,7.75,0.08,0.2,1.02,651.9,4.3,-62.5
0.32,7.5,5.0,8.0,9.0,0.0,0.0,0.0,0.25,0.75,0.25,0.0,0.5,0.75,-0.36,0.39,1.52,569.26,24.1,63.3,1.0,0.75,2.5,2.25,3.75,2.0,1.0,7.0,3.25,9.5,9.0,5.75,7.5,0.14,0.14,0.95,818.74,0.8,-44.8
0.34,6.75,0.0,6.0,7.25,0.0,0.0,0.0,0.0,0.25,0.0,0.0,0.5,0.0,-0.48,0.58,1.83,459.6,28.5,65.7,2.75,1.0,5.75,2.75,3.75,2.75,1.25,7.5,3.75,9.25,9.0,5.75,6.75,0.14,0.08,0.95,966.52,-2.4,-31.7
0.36,5.0,0.0,4.25,3.5,0.0,0.0,0.0,0.0,0.25,0.0,0.0,0.0,0.0,-0.8,1.2,2.39,330.52,30.6,71.5,3.75,1.25,7.5,3.25,3.75,3.25,1.75,7.5,3.75,8.75,8.75,5.25,6.25,0.2,0.08,0.95,1092.9,-4.1,-23.6
0.38,1.5,0.0,2.25,1.75,0.0,0.0,0.0,0.0,0.0,0.0,0.0,0.0,0.0,-0.8,1.58,2.77,209.42,30.4,69.2,4.5,1.25,8.5,4.0,3.75,3.25,2.25,7.25,3.75,8.25,8.25,4.5,5.5,0.2,0.08,0.95,1173.66,-5.6,-16.8
0.4,0.0,0.0,0.5,0.0,0.0,0.0,0.0,0.0,0.0,0.0,0.0,0.0,0.0,-0.48,0.39,2.2,74.81,38.2,60.9,5.5,1.25,8.75,5.0,3.75,3.25,2.25,6.75,3.25,7.25,7.25,3.25,4.5,0.2,0.08,0.95,1189.94,-7.0,-7.7
0.42,0.0,0.0,0.0,1.0,0.0,0.0,0.0,0.0,0.0,0.0,0.0,0.0,0.0,-0.61,-0.05,1.77,0.0,17.2,57.9,5.5,1.25,9.25,5.25,3.75,3.25,2.25,6.25,2.75,6.25,5.5,2.25,2.5,0.2,0.14,0.95,1131.25,-8.6,2.6
0.44,0.0,0.0,0.0,0.5,0.0,0.0,0.0,0.0,0.25,0.0,0.0,0.0,0.0,-0.36,-0.55,3.2,0.0,15.5,27.0,6.25,1.5,9.75,5.25,3.75,2.75,2.25,5.5,2.0,4.5,4.0,1.0,2.0,0.2,0.14,0.95,1024.37,-10.9,15.0
0.46,0.0,0.0,0.0,0.0,0.0,0.0,0.0,0.0,0.25,0.0,0.0,0.0,0.0,-0.05,-0.73,1.7,0.0,12.1,-38.5,6.25,1.5,10.0,5.25,3.75,2.0,2.25,4.25,1.75,3.25,2.75,0.75,1.75,0.14,0.14,0.95,882.72,-13.3,23.1
0.48,0.0,0.0,0.0,0.0,0.0,0.0,0.0,0.0,0.0,0.0,0.0,0.0,0.0,-0.42,-0.42,0.27,0.0,0.0,0.0,6.5,1.25,10.0,5.25,3.75,1.75,1.75,3.0,1.25,2.75,1.5,0.25,1.5,0.14,0.14,0.95,745.06,-15.1,32.3
0.5,0.0,0.0,0.0,0.0,0.0,0.0,0.0,0.0,0.0,0.0,0.0,0.0,0.0,-0.42,-0.48,0.27,0.0,0.0,0.0,6.25,1.5,10.5,5.25,3.75,1.0,1.75,2.75,0.75,1.75,1.0,0.0,1.0,0.14,0.14,0.95,634.84,-17.6,41.4
0.52,0.0,0.0,0.0,0.0,0.0,0.0,0.0,0.0,0.0,0.0,0.0,0.0,0.0,-0.17,-0.48,0.45,0.0,0.0,0.0,7.0,1.75,11.0,5.25,3.75,1.25,1.25,2.5,0.75,1.5,0.5,0.0,1.0,0.08,0.14,0.95,561.83,-18.4,46.0
0.54,0.0,0.0,0.0,0.0,0.0,0.0,0.0,0.0,0.0,0.0,0.0,0.0,0.0,-0.17,-0.42,0.83,0.0,0.0,0.0,7.0,1.75,11.0,5.5,3.75,1.25,1.25,1.5,0.5,1.5,0.0,0.0,0.5,0.08,0.14,0.95,508.35,-20.0,53.0
0.56,0.0,0.0,0.0,0.0,0.0,0.0,0.0,0.0,0.25,0.0,0.0,0.0,0.0,-0.17,-0.23,0.77,0.0,12.1,-38.5,7.5,1.5,11.5,4.25,1.75,1.25,0.75,1.25,0.5,1.5,0.0,0.0,1.0,0.08,0.14,0.95,460.02,-22.0,51.5
0.58,0.0,0.0,0.0,0.0,0.0,0.0,0.0,0.0,0.75,0.25,0.0,0.0,0.0,-0.17,-0.05,0.83,0.0,5.1,-47.9,8.0,2.0,11.5,6.0,3.75,0.75,1.25,1.25,0.75,1.25,0.0,0.0,0.5,0.02,0.2,0.89,458.01,-21.5,55.7
0.6,0.0,0.0,0.0,2.0,0.0,0.0,2.75,0.0,2.75,0.25,0.0,0.0,0.0,-0.11,0.02,1.02,22.56,16.9,5.3,8.25,2.25,12.5,7.0,4.25,0.75,1.0,1.25,0.5,1.5,0.0,0.0,1.0,0.08,0.2,0.89,490.1,-20.8,54.1
0.62,0.0,0.0,0.0,2.5,0.0,0.0,2.5,0.0,2.25,1.0,0.0,0.0,0.0,-0.17,0.14,1.14,69.58,13.5,3.3,8.25,2.25,12.5,8.0,4.25,0.75,1.0,1.25,0.0,0.0,0.0,0.0,0.25,0.08,0.2,0.95,526.32,-22.9,63.7
0.64,0.0,0.0,0.0,2.25,0.0,0.0,1.75,0.0,1.75,0.5,0.0,0.0,0.0,-0.23,0.27,1.39,95.78,14.9,10.1,8.75,3.0,11.5,7.25,3.5,0.0,1.0,1.0,0.0,0.0,0.0,0.0,0.0,0.08,0.2,0.95,544.34,-24.6,67.8
0.66,0.0,0.0,0.0,0.0,0.0,0.0,0.25,0.5,1.5,1.5,0.0,0.0,0.0,-0.3,0.83,1.64,94.73,-2.7,-51.8,9.0,2.5,13.5,8.75,4.25,0.75,1.0,0.0,0.0,0.0,0.0,0.0,0.25,0.08,0.27,0.95,582.4,-24.6,67.5
0.68,0.0,0.0,0.0,2.0,0.0,0.0,1.0,0.5,1.5,0.5,0.0,0.0,0.5,-0.42,1.08,2.08,96.74,8.3,-6.5,8.5,3.0,12.0,9.0,3.75,0.0,0.75,0.0,0.0,1.0,0.0,0.0,0.25,0.02,0.27,1.02,596.94,-23.9,65.0
0.7,0.0,0.0,0.0,2.0,0.0,0.0,0.75,2.0,1.5,1.25,0.0,0.0,0.5,-0.61,1.33,2.77,105.16,0.7,-20.0,9.25,3.0,14.5,9.0,4.25,0.75,0.75,0.0,0.0,1.0,0.0,0.0,0.25,0.02,0.27,1.02,643.65,-23.8,64.6
0.72,0.0,0.0,0.0,2.0,0.0,0.0,0.75,0.25,0.75,0.25,0.0,0.0,0.5,-0.73,2.08,2.77,100.43,9.8,4.1,9.25,3.0,13.5,9.0,4.25,0.5,0.5,0.0,0.0,0.5,0.0,0.0,0.25,0.02,0.33,1.08,667.92,-24.2,66.7
0.74,0.0,0.0,0.0,2.0,0.0,0.0,0.0,0.75,1.25,0.5,0.0,0.0,0.25,-1.3,2.95,1.83,98.25,5.6,-4.4,9.5,3.0,12.5,8.75,3.75,0.0,0.0,0.0,0.0,0.25,0.0,0.0,0.0,0.08,0.33,1.2,669.39,-25.4,70.0
0.76,0.0,0.0,0.0,2.0,0.0,0.0,0.25,0.5,1.25,0.75,0.0,0.0,0.25,-1.92,3.77,0.33,91.63,6.3,-5.5,9.0,3.0,14.5,8.75,3.25,0.0,0.0,0.0,0.0,0.25,0.0,0.0,0.0,0.08,0.39,1.27,658.06,-26.4,69.4
0.78,0.0,0.0,0.0,1.75,0.0,0.0,0.25,0.25,1.25,0.5,0.0,0.0,0.25,-0.17,3.64,0.33,82.66,8.3,-3.3,8.75,1.5,12.0,5.75,0.0,0.0,0.25,0.0,0.0,0.0,0.0,0.0,0.25,0.2,0.45,1.52,572.52,-30.9,71.3
0.8,0.0,0.0,0.0,1.25,0.0,0.0,0.25,0.25,1.25,0.25,0.0,0.0,0.25,1.52,3.95,0.77,69.21,8.7,-7.4,6.5,1.5,12.5,5.25,1.0,0.0,0.0,0.0,0.0,0.25,0.0,0.0,0.0,0.2,0.58,2.02,489.96,-29.6,69.1
0.82,0.0,0.0,0.0,0.0,0.0,0.0,0.5,0.0,0.25,0.25,0.0,0.0,0.0,0.52,6.7,-0.55,44.48,9.2,-29.6,4.5,0.25,9.25,3.5,0.0,0.0,0.0,0.0,0.0,0.0,0.0,0.0,0.0,0.14,1.08,2.27,362.62,-32.7,69.6
0.84,0.0,0.0,0.25,0.0,0.0,0.0,0.0,0.0,0.0,0.0,0.0,0.0,0.0,0.14,-0.48,2.45,18.7,38.2,60.9,1.25,0.0,7.25,0.25,0.0,0.0,0.0,0.0,0.0,0.0,0.0,0.0,0.0,-0.11,1.27,2.08,253.17,-37.2,65.7
0.86,0.0,0.0,0.0,1.5,0.0,0.0,0.0,0.0,1.0,4.5,0.0,3.75,0.0,0.08,0.39,1.08,62.42,0.1,-64.5,1.0,0.0,3.25,1.25,0.0,0.0,0.0,0.0,0.0,0.0,0.0,0.0,0.0,0.14,-0.11,2.14,143.81,-32.8,66.4
0.88,0.0,0.0,0.5,1.0,0.0,0.0,0.0,2.75,2.0,6.5,2.75,4.75,6.25,-0.36,0.7,3.27,191.36,-3.9,-75.4,0.25,0.25,2.5,0.75,0.0,0.0,0.0,0.0,0.0,0.25,0.0,0.0,0.0,0.45,-0.42,1.39,48.4,-29.1,56.5
0.9,0.0,0.0,0.0,0.0,0.0,0.0,0.0,4.75,2.5,6.75,0.0,4.5,6.25,-0.3,0.39,1.58,285.33,-8.2,-79.9,0.5,0.0,2.25,0.25,0.25,0.0,0.0,0.0,0.0,0.25,0.0,0.0,0.25,0.45,-0.67,1.02,0.0,-26.3,44.3
0.92,0.0,0.0,0.0,0.0,0.0,0.75,0.0,5.5,3.0,6.5,0.0,4.5,6.25,-0.11,0.02,0.95,369.92,-8.3,-74.9,0.5,0.25,2.25,0.5,0.0,0.0,0.0,0.0,0.0,0.0,0.0,0.0,0.25,0.64,-0.8,0.89,0.0,-29.7,56.1
0.94,0.0,0.0,0.0,0.0,0.0,1.75,0.0,6.25,3.5,6.75,5.25,4.5,5.5,-0.23,0.02,0.95,457.81,-5.6,-69.8,0.5,0.25,2.0,0.5,0.0,0.0,0.0,0.0,0.0,0.25,0.0,0.0,0.0,0.27,-0.67,0.45,0.0,-29.0,58.5
0.96,0.0,0.0,0.0,2.0,0.0,2.75,0.0,6.5,4.0,6.5,5.25,4.5,5.5,-0.23,0.02,0.95,539.87,-4.5,-59.2,0.75,0.25,2.0,0.5,0.0,0.0,0.0,0.0,0.0,1.0,0.0,0.0,0.25,0.08,-0.55,0.52,0.0,-20.0,30.4
0.98,0.0,0.0,0.75,1.75,0.0,3.25,0.0,6.5,4.25,6.25,5.0,3.5,4.5,-0.23,0.02,0.95,582.03,-4.0,-52.9,0.5,0.25,2.0,0.5,0.0,0.0,0.0,0.0,0.0,0.0,0.0,0.0,0.25,-0.3,-0.42,0.64,0.0,-29.1,55.7
1.0,0.0,0.5,0.5,3.0,5.25,4.0,0.0,6.5,4.25,5.75,4.0,2.5,3.25,-0.17,0.02,1.02,620.13,-3.8,-26.4,0.75,0.0,1.75,0.5,0.0,0.0,0.0,0.0,0.0,0.25,0.0,0.0,0.25,-0.36,-0.3,0.77,0.0,-26.9,45.7
1.02,0.0,1.0,0.5,3.75,5.75,4.5,0.0,6.25,3.5,4.5,2.75,2.25,2.5,-0.17,0.02,0.95,628.74,-3.6,-15.3,0.5,0.25,1.75,0.5,0.25,0.0,0.0,0.0,0.0,0.5,0.0,0.0,0.5,-0.3,-0.17,0.7,6.67,-18.7,30.4
1.04,0.0,1.25,0.5,4.5,5.0,4.5,0.0,6.0,3.25,3.0,1.0,1.5,2.0,-0.17,0.02,0.95,595.68,-3.3,-4.7,0.25,0.25,1.75,0.5,0.0,0.0,0.0,0.0,0.0,0.0,0.0,0.0,0.25,-0.3,-0.11,0.77,20.55,-27.9,52.1
1.06,0.0,1.0,2.25,5.5,3.75,4.5,0.0,5.75,2.5,2.75,0.0,1.25,1.25,-0.17,0.02,0.95,545.28,-0.8,4.8,0.5,0.25,1.75,0.5,0.0,0.0,0.0,0.0,0.0,0.25,0.0,0.0,0.0,-0.3,0.02,0.95,39.13,-28.3,58.3
1.08,0.0,1.5,2.25,5.25,0.0,4.25,0.0,5.5,2.0,2.25,0.0,0.75,1.0,-0.23,0.08,0.95,457.38,0.0,3.8,0.0,0.25,1.75,0.5,0.0,0.0,0.0,0.0,0.0,0.0,0.0,0.0,0.0,-0.17,0.27,0.89,45.57,-31.4,64.1
1.1,0.75,1.5,2.25,5.5,0.0,4.0,0.0,4.75,1.75,1.25,0.0,0.5,0.75,-0.17,0.08,0.95,376.15,2.6,14.7,0.25,0.25,1.75,0.5,0.25,0.0,0.0,0.0,0.0,0.25,0.0,0.0,0.0,-0.3,0.58,0.95,50.44,-25.1,55.1
1.12,1.0,2.5,3.0,6.25,0.0,4.5,0.0,4.5,1.5,1.25,0.0,0.5,0.75,-0.17,0.08,0.95,335.9,4.4,22.9,0.0,0.5,1.75,0.0,0.0,0.0,0.0,0.0,0.0,0.75,0.0,0.0,0.25,-0.67,1.02,1.14,50.64,-18.0,22.8
1.14,1.5,2.5,3.25,7.25,0.0,4.25,0.0,3.75,1.0,1.0,0.0,0.25,0.75,-0.17,0.08,0.95,326.82,6.7,31.2,0.5,0.5,1.75,0.5,0.0,0.0,0.0,0.0,0.0,0.0,0.0,0.0,0.25,-1.05,1.27,1.52,54.63,-27.2,58.5
1.16,1.75,2.5,4.0,6.25,0.0,4.25,0.0,3.75,1.0,1.25,0.0,0.5,0.75,-0.23,0.14,0.95,326.03,7.3,29.2,0.5,0.5,1.75,0.5,0.0,0.0,0.0,0.0,0.0,0.5,0.0,0.0,0.0,-1.17,1.33,1.64,58.16,-24.4,52.2
1.18,1.5,3.25,4.0,7.25,0.0,3.25,0.0,3.25,1.0,1.25,0.0,0.5,0.75,-0.23,0.14,0.95,328.11,9.1,32.9,0.5,0.25,1.75,0.5,0.25,0.0,0.0,0.0,0.0,0.25,0.0,0.0,0.0,-1.11,1.33,1.52,60.63,-25.8,57.9
1.2,2.5,3.75,3.25,7.5,0.0,4.0,0.0,2.25,1.0,1.0,0.0,0.5,0.75,-0.17,0.14,0.89,337.4,9.7,39.6,0.5,0.5,1.75,0.5,0.0,0.0,0.0,0.0,0.0,0.5,0.0,0.0,0.25,-1.23,1.45,1.02,63.59,-22.0,42.0
1.22,3.0,4.0,4.0,8.25,0.0,4.0,0.0,2.0,1.0,1.25,0.0,0.5,0.75,-0.23,0.14,0.95,357.16,11.1,41.8,0.25,0.25,1.75,0.5,0.0,0.0,0.0,0.0,0.0,0.5,0.0,0.0,0.0,-1.86,1.45,0.95,62.72,-24.5,45.4
1.24,3.25,4.0,3.75,8.5,0.0,4.0,0.0,2.0,0.75,1.0,0.0,0.5,0.75,-0.23,0.14,0.95,374.73,11.3,44.0,0.75,0.5,1.75,0.5,0.0,0.0,0.0,0.0,0.0,0.0,0.0,0.0,0.25,-2.3,1.14,1.08,64.16,-27.7,60.9
1.26,3.25,4.0,4.25,8.75,0.0,3.75,0.0,2.0,0.5,1.25,0.0,0.5,0.75,-0.23,0.14,0.95,395.78,11.9,44.2,0.0,0.25,1.75,0.5,0.0,0.0,0.0,0.0,0.0,0.25,0.0,0.0,0.0,-1.92,1.08,0.77,58.62,-27.2,51.8
1.28,4.75,5.0,5.0,8.75,0.0,3.5,0.0,1.75,1.0,0.75,0.0,0.5,0.75,-0.23,0.2,0.95,430.67,14.5,50.0,0.5,0.25,1.75,0.5,0.0,0.0,0.0,0.0,0.0,1.5,0.0,0.0,0.0,-1.17,1.14,5.64,64.45,-16.2,21.5
1.3,0.0,5.25,5.75,9.75,0.0,2.5,0.0,1.25,0.75,1.25,0.0,0.5,0.75,-0.23,0.2,1.02,435.81,13.3,44.2,0.5,0.5,0.5,0.5,1.0,0.0,0.25,1.0,0.0,2.0,0.0,0.0,0.25,0.58,-0.05,1.77,77.53,0.0,0.8
1.32,4.75,5.25,6.5,9.75,0.0,0.0,0.0,1.0,0.75,1.0,0.0,0.0,0.75,-0.23,0.2,1.02,451.07,20.5,57.5,0.0,0.25,1.75,0.25,1.5,0.75,0.0,2.75,0.75,5.5,0.0,0.75,1.75,-0.8,-0.11,1.08,138.21,5.3,-34.5
1.34,5.0,5.5,5.5,9.75,0.0,0.75,0.0,0.75,0.75,1.25,0.0,0.5,0.75,-0.23,0.2,1.08,455.22,18.8,54.5,0.25,0.0,1.5,2.0,1.75,0.75,0.5,4.25,1.5,6.75,3.75,2.5,3.5,0.08,0.14,1.14,242.57,2.0,-44.6
1.36,6.75,5.25,0.0,9.75,0.0,1.0,0.0,0.25,0.75,0.5,0.0,0.25,0.75,-0.23,0.27,1.08,428.89,16.9,62.5,0.5,0.5,2.0,2.75,2.75,1.5,0.5,5.5,2.25,7.5,5.5,3.75,5.25,0.08,0.08,1.02,377.21,1.2,-40.9
1.38,5.5,5.25,0.0,9.5,0.0,0.0,0.0,0.25,0.25,0.5,0.0,0.0,0.0,-0.3,0.27,1.2,383.52,19.0,72.4,0.5,0.25,3.25,2.75,3.0,2.0,1.0,6.5,2.75,8.25,7.25,5.0,5.75,0.08,0.08,0.95,565.92,0.1,-41.5
1.4,6.75,0.0,0.0,0.0,0.0,0.0,0.0,0.0,0.25,0.0,0.0,0.5,0.0,-0.3,0.33,1.39,278.76,32.3,78.4,0.5,1.0,4.75,3.25,3.25,2.75,1.0,7.0,3.25,8.75,7.75,5.25,6.5,0.14,0.08,0.95,759.7,-0.7,-36.0
1.42,0.0,0.0,6.0,0.0,0.0,0.0,0.0,0.25,0.25,0.0,0.0,0.0,0.75,-0.42,0.33,1.52,193.75,30.1,36.6,1.25,1.25,4.75,3.5,3.75,3.25,1.25,7.75,3.25,8.75,7.75,5.25,6.75,0.14,0.08,0.95,916.49,-0.7,-32.2
1.44,5.75,0.0,5.0,5.75,0.0,0.0,0.0,0.0,0.25,0.0,0.0,0.0,0.5,-0.61,0.39,2.14,165.79,28.0,64.8,1.75,1.25,5.0,4.0,3.75,3.25,1.25,7.75,3.25,8.75,8.25,5.25,6.75,0.14,0.08,0.95,1024.16,-1.4,-30.3
1.46,4.75,0.0,4.0,3.5,0.0,0.0,0.0,0.0,0.25,0.0,0.0,0.0,0.25,-0.23,1.02,2.52,152.4,29.5,67.5,1.25,1.5,5.0,3.75,3.75,3.25,1.5,7.75,3.5,9.0,8.0,5.0,6.75,0.14,0.08,0.95,1080.92,-1.1,-30.8
1.48,0.0,0.0,1.75,1.75,0.0,0.0,0.0,0.0,0.0,0.0,0.0,0.0,0.25,-0.23,1.08,2.45,110.47,24.9,48.2,1.75,1.5,5.0,3.5,3.75,3.25,1.25,7.5,3.25,8.75,7.75,5.0,6.5,0.14,0.08,0.95,1090.3,-1.3,-29.5
1.5,0.0,0.0,0.0,1.0,0.0,0.0,0.0,0.0,0.0,0.0,0.0,0.0,0.0,0.33,0.14,1.64,47.31,17.2,57.9,1.25,1.5,5.0,3.5,3.75,3.25,1.25,7.5,3.25,8.5,7.25,4.75,6.25,0.14,0.08,0.95,1061.38,-1.1,-29.2
1.52,0.0,0.0,0.0,0.0,0.0,0.0,0.0,0.0,0.0,0.0,0.0,0.0,0.0,0.02,-1.86,1.27,0.0,0.0,0.0,1.25,1.25,4.75,3.0,3.75,3.25,1.25,7.5,3.25,8.5,7.25,4.25,5.75,0.2,0.08,0.95,1002.64,-0.8,-29.6
1.54,0.0,0.0,0.0,0.0,0.0,0.0,0.25,0.0,0.0,0.0,0.0,0.0,0.0,-0.05,-0.17,1.2,0.0,32.4,27.3,1.25,1.25,4.75,2.75,3.75,3.25,1.25,7.75,2.75,8.25,6.75,3.75,5.75,0.2,0.08,0.95,927.76,-0.4,-28.6
1.56,0.0,0.0,0.0,0.0,0.0,0.0,0.0,0.0,0.0,0.0,0.0,0.0,0.0,-0.55,0.14,0.77,0.0,0.0,0.0,0.5,1.25,3.5,2.75,3.75,3.75,1.0,7.75,2.75,8.0,5.75,3.25,5.75,0.2,0.14,0.95,835.11,1.4,-30.3
1.58,0.0,0.0,0.0,0.0,0.0,0.0,0.0,0.0,0.0,0.0,0.0,0.0,0.0,-0.98,-0.05,0.45,0.0,0.0,0.0,0.75,1.25,2.5,2.75,3.75,4.5,0.75,7.75,2.75,8.0,5.5,3.0,5.5,0.2,0.14,0.95,753.85,2.6,-29.7
1.6,0.0,0.0,0.0,0.25,0.0,0.0,0.0,0.0,0.25,0.0,0.0,0.0,0.0,-0.86,-0.17,0.64,0.0,14.7,11.1,0.25,1.0,2.25,2.75,3.75,5.5,0.75,7.75,2.0,8.0,5.25,2.5,5.25,0.2,0.14,0.89,685.13,4.0,-29.3
1.62,0.0,0.0,0.0,0.5,0.0,0.0,0.0,0.0,0.0,0.0,0.0,0.0,0.0,-1.11,-0.23,0.58,0.0,17.2,57.9,0.5,0.75,2.0,2.25,4.25,5.5,0.25,8.0,2.0,8.0,5.0,2.75,5.25,0.27,0.14,0.95,641.35,4.6,-30.3
1.64,0.0,0.0,0.0,0.0,0.0,0.0,0.0,0.0,0.25,0.0,0.0,0.0,0.0,-1.42,-0.17,0.39,0.0,12.1,-38.5,0.25,0.75,1.75,1.5,4.25,5.75,0.25,8.25,2.0,8.25,5.0,3.0,5.25,0.27,0.14,0.95,616.08,5.6,-33.3
1.66,0.0,0.0,0.0,0.0,0.0,0.0,0.0,0.0,0.0,0.0,0.0,0.0,0.0,-1.36,-0.05,0.2,0.0,0.0,0.0,0.75,0.75,1.0,1.0,3.75,6.0,0.0,8.25,2.0,8.5,5.25,3.25,5.75,0.27,0.14,0.95,610.49,6.4,-37.2
1.68,0.0,0.0,0.0,0.0,0.0,0.0,0.0,0.0,0.0,0.0,0.0,0.0,0.0,-1.3,0.14,0.27,0.0,0.0,0.0,0.0,0.5,0.75,0.5,3.75,6.0,0.0,8.75,2.0,8.75,5.75,3.75,6.0,0.27,0.14,0.95,619.0,7.4,-43.4
1.7,0.0,0.0,0.0,0.0,0.0,0.0,0.0,0.0,0.0,0.0,0.0,0.0,0.0,-1.55,0.27,0.39,0.0,0.0,0.0,0.0,0.5,0.5,0.5,3.75,5.5,0.0,8.75,2.0,9.25,6.75,5.0,6.75,0.27,0.14,0.95,653.85,6.9,-48.3
1.72,0.0,0.0,0.0,0.0,0.0,0.0,0.0,0.0,0.0,0.0,0.0,0.0,0.0,-1.42,0.33,0.64,0.0,0.0,0.0,0.5,0.5,0.5,0.5,3.75,5.5,0.0,9.0,2.0,10.5,7.75,5.75,7.5,0.27,0.14,0.95,719.09,6.4,-49.9
1.74,0.0,0.0,0.0,0.0,0.0,0.0,0.0,0.0,0.0,0.0,0.0,0.0,0.0,-1.3,0.52,0.7,0.0,0.0,0.0,0.5,0.5,0.5,0.5,3.25,5.25,0.0,9.25,2.0,11.0,8.25,6.5,8.5,0.27,0.08,0.95,798.2,6.3,-53.6
1.76,0.0,0.0,0.0,0.0,0.0,0.0,0.0,0.0,0.0,0.0,0.0,0.0,0.0,-1.23,0.77,0.64,0.0,0.0,0.0,0.5,0.5,0.5,0.25,3.25,4.5,0.0,9.25,2.0,11.5,8.75,6.5,9.25,0.27,0.08,0.95,872.68,6.2,-56.3
1.78,0.0,0.0,0.0,0.0,0.0,0.0,0.0,0.0,0.0,0.0,0.0,0.0,0.0,-1.05,1.14,0.64,0.0,0.0,0.0,0.0,0.5,0.5,0.5,2.5,3.25,0.0,9.25,1.75,11.5,8.5,7.25,9.5,0.27,0.08,0.95,917.92,6.1,-61.7
1.8,0.0,0.0,0.0,0.0,0.0,0.0,0.0,0.0,0.0,0.0,0.0,0.0,0.0,-0.86,1.2,0.89,0.0,0.0,0.0,0.5,0.5,0.5,0.25,1.75,3.25,0.0,9.25,1.25,11.5,9.0,7.25,10.5,0.2,0.08,1.02,946.5,6.1,-64.0
1.82,0.0,0.0,0.0,0.0,0.0,0.0,0.0,0.0,0.0,0.0,0.0,0.0,0.0,-0.92,1.45,1.08,0.0,0.0,0.0,0.0,0.5,0.5,0.0,1.5,1.25,0.0,8.75,0.75,9.75,8.75,6.5,10.5,0.2,0.08,1.02,911.48,6.0,-70.0
1.84,0.0,0.0,0.0,0.0,0.0,0.0,0.0,0.0,0.0,0.0,0.0,0.0,0.0,-0.98,1.52,1.2,0.0,0.0,0.0,0.0,0.25,1.0,0.25,2.75,1.25,0.0,8.0,0.75,10.5,7.75,6.75,9.0,0.2,0.08,1.02,867.74,5.4,-64.5
1.86,0.0,0.0,0.0,0.0,0.0,0.0,0.0,0.0,0.0,0.0,0.0,0.0,0.0,-1.17,1.39,0.89,0.0,0.0,0.0,0.75,0.5,0.75,1.25,1.25,1.25,0.0,7.25,0.75,8.5,7.25,5.75,8.75,0.14,0.08,1.08,787.54,4.3,-62.0
1.88,0.0,0.0,0.0,0.0,0.0,0.0,0.0,0.0,0.0,0.0,0.0,0.0,0.0,-1.48,1.45,0.58,0.0,0.0,0.0,0.25,0.25,0.5,0.5,1.5,1.25,0.0,5.5,0.5,4.75,5.0,3.25,7.5,-0.3,0.08,1.08,638.27,5.7,-61.8
1.9,0.0,0.0,0.0,0.0,0.0,0.0,0.0,0.0,0.0,0.0,0.0,0.0,0.0,-1.23,1.52,0.7,0.0,0.0,0.0,0.25,0.5,0.0,0.25,1.5,0.75,0.0,4.25,0.25,4.5,2.75,1.75,6.0,-1.3,0.58,1.33,465.49,7.9,-59.8
1.92,0.0,0.0,0.0,0.0,0.0,0.0,0.0,0.0,0.5,0.25,0.0,0.0,0.0,-0.98,1.33,0.7,4.33,2.8,-51.0,0.0,0.0,0.75,0.0,0.25,0.0,0.0,2.75,0.0,1.5,0.75,1.0,3.5,-1.11,1.52,1.27,290.03,6.9,-67.4
1.94,0.0,0.0,0.0,0.0,0.0,0.0,0.0,0.0,0.0,0.0,0.0,0.0,0.0,0.2,0.39,2.33,4.02,0.0,0.0,0.0,0.0,0.75,0.0,1.5,0.0,0.0,2.75,0.0,1.5,0.0,0.0,0.25,-0.36,1.77,1.27,158.05,7.0,-15.4
1.96,0.0,0.0,0.0,0.0,0.0,0.0,2.75,0.0,0.75,1.0,0.0,0.25,0.0,0.39,-0.36,1.02,21.61,11.5,-28.8,0.0,0.0,0.0,0.0,0.0,0.0,0.0,1.25,0.0,1.0,0.0,0.0,0.0,0.95,1.83,1.08,16.72,16.3,-55.1
1.98,0.0,0.0,0.0,0.0,0.0,0.0,0.0,1.5,1.25,1.5,0.0,0.75,0.25,-0.17,0.14,1.08,48.89,-5.8,-62.8,0.0,0.0,0.0,0.0,0.0,0.0,0.0,1.25,0.0,0.0,0.0,0.0,0.5,1.95,1.83,0.14,0.0,15.8,-59.5
2.0,0.0,0.0,0.0,1.75,0.0,0.5,0.0,3.75,1.5,3.0,0.0,1.5,2.0,-0.17,0.08,0.95,118.93,-6.1,-49.4,0.0,0.0,0.0,0.0,0.0,0.0,0.0,1.0,0.0,0.0,0.0,0.0,0.25,0.89,1.14,0.83,0.0,16.1,-53.3
2.02,0.0,0.0,0.0,1.0,0.0,0.75,0.0,4.5,2.0,4.5,0.0,1.5,1.75,-0.17,0.08,0.95,182.67,-8.2,-54.1,0.0,0.0,0.0,0.0,0.0,0.0,0.0,0.25,0.0,0.0,0.0,0.0,0.25,0.39,0.83,0.58,0.0,15.2,-74.8
2.04,0.0,0.0,0.0,1.75,0.0,0.5,0.0,4.75,2.5,5.0,1.0,2.5,3.0,-0.23,0.08,0.95,252.24,-5.5,-57.9,0.0,0.0,0.0,0.0,0.0,0.0,0.0,0.25,0.0,0.0,0.0,0.0,0.25,-0.05,0.58,0.77,0.0,15.2,-74.8
2.06,0.0,0.0,0.0,1.75,0.0,0.5,0.0,5.5,3.25,5.75,1.75,3.0,3.5,-0.17,0.02,0.95,310.9,-5.0,-59.9,0.0,0.0,0.0,0.0,0.0,0.0,0.0,0.0,0.0,0.0,0.0,0.0,0.0,0.2,0.33,0.77,0.0,0.0,0.0
2.08,0.0,0.0,1.25,3.0,0.0,0.5,0.5,5.5,3.75,5.75,3.0,3.5,4.0,-0.17,0.02,0.95,386.07,-1.0,-51.0,0.0,0.0,0.0,0.0,0.0,0.0,0.0,0.0,0.0,0.0,0.0,0.0,0.0,0.45,-0.11,0.83,0.0,0.0,0.0
2.1,0.0,0.0,2.25,3.25,0.0,0.5,0.5,5.5,3.5,5.75,2.75,3.0,3.75,-0.17,0.02,0.95,442.32,0.1,-44.8,0.0,0.0,0.0,0.0,0.0,0.0,0.0,0.0,0.0,0.0,0.0,0.0,0.0,0.64,-0.42,0.7,0.0,0.0,0.0
2.12,0.0,0.0,2.75,3.5,0.0,0.5,0.5,5.25,3.75,5.75,3.0,3.5,3.75,-0.17,0.08,0.95,488.65,1.3,-43.5,0.0,0.25,0.0,0.5,0.0,0.0,0.0,0.0,0.0,1.5,0.0,0.0,0.0,0.77,-0.61,0.45,0.0,4.9,-25.1
2.14,0.0,0.0,2.5,3.5,0.0,0.5,0.5,5.25,4.0,5.75,3.75,3.5,4.5,-0.17,0.08,0.95,519.81,1.0,-46.4,0.0,0.0,1.75,0.5,0.0,0.0,0.0,1.25,0.0,1.5,0.0,0.0,1.0,1.77,-1.67,1.64,6.19,-3.1,-22.0
2.16,0.0,0.0,3.5,3.5,0.0,0.5,0.5,5.5,4.25,6.5,4.0,4.5,4.5,-0.17,0.08,0.95,556.39,1.9,-45.8,0.5,0.25,2.25,0.5,0.25,0.0,0.0,1.0,0.25,1.5,0.0,0.0,1.0,0.33,-1.73,1.58,63.6,-8.5,-2.1
2.18,0.0,0.0,3.0,2.5,0.0,0.0,0.5,5.5,4.25,6.5,5.0,4.5,5.5,-0.11,0.02,0.95,584.14,1.1,-53.8,1.0,0.0,4.75,0.5,0.0,0.0,0.0,0.75,0.0,3.25,0.75,0.5,1.5,0.45,-0.61,1.83,127.61,-11.9,-10.1
2.2,0.0,0.0,3.25,1.75,0.0,0.0,0.5,5.25,4.25,6.5,5.0,4.75,5.5,-0.11,0.02,0.95,596.77,1.2,-55.9,0.5,0.5,4.75,0.5,0.0,0.0,0.75,1.25,0.0,3.5,2.5,1.25,1.75,-0.11,0.14,0.83,187.35,-9.8,-23.2
2.22,0.0,0.0,3.25,1.75,0.0,0.0,0.5,4.75,4.25,6.5,5.0,4.75,5.5,-0.11,0.02,0.95,591.29,1.4,-56.1,0.5,0.5,4.75,0.5,0.25,0.0,0.5,1.25,0.75,4.5,2.75,2.25,2.25,-0.05,0.14,0.89,242.84,-7.7,-32.5
2.24,0.0,0.0,2.75,1.75,0.0,0.0,0.5,4.75,4.25,6.5,5.0,5.25,5.5,-0.11,0.02,0.95,575.67,1.0,-58.5,0.5,0.0,3.5,0.5,0.25,0.0,0.5,1.5,0.75,5.5,4.0,2.75,3.25,-0.05,0.08,0.89,289.62,-3.8,-50.1
2.26,0.0,0.0,2.25,1.75,0.0,0.0,0.5,4.75,4.25,6.0,5.0,5.25,5.5,-0.17,0.08,0.95,556.49,0.7,-60.0,0.75,0.5,2.25,0.5,0.0,0.25,0.25,2.0,1.25,6.25,5.0,3.75,4.25,0.02,0.08,0.95,348.59,-1.3,-57.7
2.28,0.0,0.0,2.25,1.75,0.0,0.0,0.25,4.25,3.75,5.75,5.0,5.0,5.5,-0.11,0.08,1.02,528.03,0.7,-60.5,0.5,0.5,2.25,0.5,0.5,0.0,0.5,2.5,1.25,7.5,6.75,5.25,5.75,0.02,0.14,0.95,431.06,-0.5,-63.2
2.3,0.0,0.0,2.25,1.75,0.0,0.0,0.25,3.75,3.25,5.75,4.25,4.75,5.5,-0.11,0.08,0.95,492.69,0.5,-60.5,0.5,0.5,2.25,0.5,0.0,0.0,0.25,2.75,1.5,8.0,7.5,5.75,7.0,0.02,0.08,0.95,524.73,0.0,-67.7
2.32,0.0,0.0,1.0,1.75,0.0,0.0,0.25,3.0,3.0,5.75,3.5,5.25,5.5,-0.23,0.08,0.95,451.96,-0.8,-67.1,0.5,0.5,1.75,0.5,0.0,0.0,0.25,3.0,1.75,8.25,7.75,6.5,7.5,0.02,0.08,0.95,608.49,0.5,-70.6
2.34,0.0,0.0,1.25,1.75,0.0,0.0,0.0,2.5,2.5,4.5,4.25,5.25,5.5,-0.05,0.02,0.89,414.12,0.4,-67.2,0.0,0.25,1.75,0.25,0.0,0.0,0.0,3.0,1.75,8.5,8.25,6.5,7.75,-0.05,0.08,0.95,661.09,1.3,-75.4
2.36,0.0,0.0,0.0,1.75,0.0,0.0,0.0,2.5,3.25,5.75,5.0,5.75,6.25,-0.11,0.02,0.95,403.77,-1.5,-74.2,0.5,0.25,1.75,0.25,0.0,0.0,0.0,3.25,1.75,8.75,8.5,7.0,8.0,0.02,0.08,0.95,696.46,1.0,-73.8
2.38,0.0,0.0,0.0,1.75,0.0,0.0,0.25,3.75,3.0,5.75,5.0,5.75,6.25,-0.11,0.08,0.95,408.58,-2.1,-72.7,0.5,0.5,1.75,0.25,0.0,0.0,0.0,3.0,1.75,8.75,8.75,7.25,8.25,0.02,0.08,0.95,713.31,0.7,-73.3
2.4,0.0,0.0,0.75,1.75,0.0,0.0,0.0,2.0,2.75,5.75,4.75,5.75,6.25,-0.17,0.08,1.02,411.23,-0.5,-71.9,0.25,0.5,1.0,0.25,0.0,0.0,0.0,3.0,1.5,8.75,8.75,7.25,8.25,0.02,0.08,0.95,714.22,1.8,-77.2
2.42,0.0,0.0,0.5,1.75,0.0,0.0,0.0,2.0,2.5,5.75,4.25,5.75,6.25,-0.05,0.02,0.89,408.47,-1.2,-73.3,0.0,0.25,1.25,0.25,0.0,0.0,0.0,2.75,1.5,8.75,8.75,7.25,8.5,0.02,0.08,0.95,703.04,1.8,-79.0
2.44,0.0,0.0,0.5,1.75,0.0,0.0,0.0,1.75,2.5,5.75,4.5,5.75,6.25,-0.17,0.02,0.95,403.43,-0.9,-73.6,0.75,0.0,1.5,0.25,0.0,0.0,0.0,2.75,1.5,8.75,8.75,7.25,8.25,0.02,0.08,0.95,688.29,0.9,-75.9
2.46,0.0,0.0,0.75,1.75,0.0,0.0,0.0,2.0,2.5,5.75,5.25,6.0,6.25,-0.11,0.02,0.95,406.72,-0.4,-72.5,0.5,0.25,1.25,0.75,0.0,0.0,0.0,2.75,1.25,8.5,8.5,7.0,8.5,0.02,0.08,0.95,667.8,1.3,-75.1
2.48,0.0,0.0,0.75,1.75,0.0,0.0,0.0,1.75,2.5,5.75,5.25,6.0,6.25,-0.11,0.08,0.95,412.02,-0.2,-72.8,0.0,0.25,1.75,0.25,0.0,0.0,0.0,2.75,1.25,8.25,8.25,6.5,8.0,0.02,0.08,0.95,635.04,1.4,-76.3
2.5,0.0,0.0,0.0,1.75,0.0,0.0,0.0,0.75,2.5,5.75,5.25,6.0,6.25,-0.11,0.02,0.95,413.28,-0.7,-77.7,0.25,0.25,1.75,0.5,0.0,0.0,0.0,2.75,1.25,8.0,7.75,6.25,7.75,0.02,0.08,0.95,598.46,1.1,-73.8
2.52,0.0,0.0,0.5,1.75,0.0,0.0,0.0,1.75,2.5,5.75,5.25,6.0,6.25,-0.11,0.08,0.95,419.47,-0.6,-74.0,0.0,0.0,0.75,0.25,2.5,0.0,0.5,1.5,0.75,7.0,7.25,5.25,7.5,-0.05,0.08,0.95,544.62,2.3,-70.2
2.54,0.0,0.0,0.5,1.75,0.0,0.0,0.0,1.25,2.5,5.75,5.25,6.0,6.25,-0.11,0.08,0.95,420.2,-0.3,-74.6,0.5,0.25,1.5,0.25,0.0,0.0,0.0,1.5,0.75,7.0,6.25,4.5,6.5,0.02,0.08,0.95,479.82,1.0,-73.0
2.56,0.0,0.0,0.5,1.75,0.0,0.0,0.0,1.0,2.5,5.75,5.25,5.75,6.25,-0.11,0.08,0.95,418.16,-0.2,-74.6,0.0,0.5,1.0,0.25,0.25,0.0,0.0,1.5,0.75,6.25,5.25,5.0,6.0,-0.05,0.08,0.95,417.08,1.8,-75.4
2.58,0.0,0.0,0.0,1.75,0.0,0.0,0.0,1.25,2.5,5.5,5.0,5.75,5.75,-0.11,0.08,1.02,406.53,-0.8,-76.1,0.0,0.25,2.0,0.5,0.0,0.0,0.0,1.25,0.75,5.75,4.5,3.75,5.5,-0.05,0.08,0.95,363.21,0.3,-69.4
2.6,0.0,0.0,0.0,1.75,0.0,0.0,0.0,1.25,2.0,4.75,4.25,5.5,5.5,-0.11,0.08,0.95,383.85,-0.9,-76.2,0.25,0.5,1.0,0.25,0.0,0.0,0.0,1.25,0.75,4.5,2.75,2.5,4.25,0.02,0.14,0.95,297.23,1.8,-67.5
2.62,0.0,0.0,0.0,1.25,0.0,0.0,0.0,0.5,2.0,4.5,3.5,5.25,5.5,-0.11,0.08,0.95,355.02,-1.1,-80.3,0.5,0.5,0.75,0.25,0.0,0.0,0.0,1.25,0.5,3.75,1.75,2.5,3.5,0.02,0.14,0.95,245.69,1.6,-64.6
2.64,0.0,0.0,0.5,1.75,0.0,0.0,0.0,0.5,1.5,4.5,2.25,4.5,4.75,-0.11,0.08,0.95,319.37,-0.6,-72.2,0.5,0.25,0.75,0.25,0.0,0.0,0.0,1.25,0.5,3.25,1.75,1.75,3.0,0.02,0.14,0.95,194.25,1.5,-63.1
2.66,0.0,0.0,0.0,1.25,0.0,0.0,0.0,0.0,1.25,3.75,0.0,4.5,4.5,-0.11,0.08,0.95,275.75,-2.9,-81.5,0.5,0.25,0.75,0.25,0.0,0.0,0.0,1.25,0.25,3.25,1.75,1.25,3.0,0.02,0.14,0.95,154.42,2.2,-61.7
2.68,0.0,0.0,0.0,0.0,0.0,0.0,0.0,0.0,1.0,3.0,0.0,4.0,4.5,-0.11,0.08,0.95,231.54,-5.0,-96.1,0.0,0.5,0.5,0.5,0.0,0.0,0.0,1.25,0.25,3.0,1.25,1.0,2.75,-0.05,0.14,0.95,123.97,4.2,-61.6
2.7,0.0,0.0,0.0,0.25,0.0,0.0,0.0,0.25,1.25,3.0,0.0,3.5,3.5,-0.11,0.08,0.95,190.51,-4.2,-88.5,0.75,0.25,0.75,0.25,0.0,0.0,0.0,1.25,0.25,3.0,1.5,1.0,2.75,0.02,0.14,0.95,113.55,1.4,-55.9
2.72,0.0,0.0,0.0,1.0,0.0,0.0,0.0,0.25,1.25,2.75,0.0,3.0,3.25,-0.11,0.08,0.95,161.47,-2.8,-77.4,0.5,0.5,0.75,0.5,0.0,0.0,0.0,1.25,0.25,2.75,0.75,1.0,2.5,0.02,0.14,0.95,106.71,1.6,-49.7
2.74,0.0,0.0,0.0,1.0,0.0,0.0,0.0,0.0,0.75,1.5,0.0,2.5,3.25,-0.17,0.08,0.95,132.41,-2.2,-79.1,0.5,0.0,0.75,0.25,0.0,0.0,0.0,1.25,0.25,1.5,1.25,1.0,2.25,0.02,0.14,0.95,99.08,0.1,-57.4
2.76,0.0,0.0,0.0,1.0,0.0,0.0,0.0,0.0,1.0,2.25,0.0,1.5,2.0,-0.17,0.08,0.95,105.15,-2.5,-68.5,0.0,0.25,0.5,0.25,0.0,0.0,0.0,1.0,0.25,2.5,1.25,1.0,1.75,-0.05,0.14,0.95,96.45,3.2,-64.1
2.78,0.0,0.0,0.0,1.0,0.0,0.0,0.0,0.0,1.0,1.75,0.0,2.5,2.0,-0.17,0.08,0.95,89.86,-0.4,-73.1,0.25,0.25,0.75,0.5,0.0,0.0,0.0,1.25,0.25,1.75,0.75,1.0,2.0,-0.05,0.14,0.95,96.7,0.7,-51.5
2.8,0.0,0.0,0.0,1.0,0.0,0.0,0.0,0.0,1.0,1.0,0.0,1.25,1.75,-0.23,0.08,0.95,70.44,0.1,-63.7,0.5,0.25,0.5,0.25,0.0,0.0,0.0,1.25,0.25,2.25,0.5,1.0,2.25,-0.05,0.08,0.95,102.09,3.0,-56.4
2.82,0.0,0.0,0.0,1.0,0.0,0.0,0.0,0.0,0.25,1.0,0.0,0.5,1.0,-0.3,0.14,0.95,47.72,-1.1,-50.2,0.5,0.5,0.75,0.5,0.0,0.0,0.0,1.0,0.25,2.0,0.75,1.0,1.75,-0.05,0.14,0.95,109.46,-0.9,-42.7
2.84,0.0,0.0,0.0,0.0,0.0,0.0,0.0,0.0,1.0,1.25,0.0,0.75,0.75,-0.36,0.14,0.95,32.99,-3.0,-79.7,0.0,0.5,0.5,0.0,0.0,0.0,0.0,0.75,0.25,2.0,1.0,1.0,1.75,-0.05,0.14,0.95,114.66,2.5,-62.5
2.86,0.0,0.0,0.0,0.0,0.0,0.0,0.0,0.0,0.25,1.0,0.0,0.5,0.75,-0.23,0.14,0.89,18.94,-7.4,-89.2,0.25,0.5,0.5,0.25,0.0,0.0,0.0,0.75,0.25,2.25,0.75,1.0,1.75,-0.05,0.14,0.95,116.69,1.6,-54.2
2.88,0.0,0.0,0.0,0.0,0.0,0.0,0.0,0.0,0.5,0.5,0.0,0.25,1.0,-0.11,0.08,0.89,11.62,-6.0,-86.8,0.5,0.0,0.75,0.25,0.0,0.0,0.0,0.75,0.25,2.0,0.75,1.0,1.5,-0.05,0.14,0.95,115.03,-0.6,-53.5
2.9,0.0,0.0,0.0,0.0,0.0,0.0,0.0,0.0,1.0,0.25,0.0,0.0,0.5,-0.05,0.08,0.95,6.22,0.6,-64.8,0.25,0.5,0.75,0.25,0.0,0.0,0.0,0.75,0.25,1.75,1.0,1.0,1.75,-0.05,0.14,0.95,116.52,-0.7,-50.0
2.92,0.0,0.0,0.0,0.75,0.0,0.0,0.0,0.0,0.75,1.25,0.0,0.5,0.0,-0.23,0.02,1.02,11.85,2.2,-40.3,0.25,0.25,0.5,0.25,0.0,0.0,0.0,0.5,0.25,1.5,1.0,0.75,1.75,-0.05,0.14,0.95,112.68,0.1,-56.9
2.94,0.0,0.0,0.0,1.25,0.0,0.0,0.0,0.0,0.75,1.25,0.0,0.5,0.75,-0.3,0.02,1.02,24.63,1.2,-40.8,0.25,0.5,0.5,0.5,0.0,0.0,0.0,0.25,0.25,1.5,0.75,0.5,1.75,-0.05,0.14,0.95,107.62,-0.9,-44.6
2.96,0.0,0.0,0.0,0.75,0.0,0.0,0.0,0.0,0.75,1.25,0.0,0.0,0.75,-0.42,0.02,0.89,34.79,-2.1,-45.7,0.5,0.25,0.5,0.0,0.0,0.0,0.0,0.25,0.25,1.5,0.75,0.75,1.75,-0.05,0.14,0.95,102.66,-0.6,-56.0
2.98,0.0,0.0,0.0,1.0,0.0,0.0,0.0,0.0,0.25,0.25,0.0,0.0,0.5,-0.17,0.08,0.89,35.31,4.8,-11.7,0.0,0.5,0.5,0.25,0.0,0.0,0.0,0.0,0.25,1.5,0.5,0.75,1.5,-0.05,0.14,0.95,95.97,-0.1,-53.9
3.0,0.0,0.0,0.0,0.75,0.0,0.0,0.0,0.0,0.75,1.25,0.0,0.25,0.75,-0.11,0.08,0.89,41.44,-1.4,-49.9,0.0,0.0,0.75,0.25,0.0,0.0,0.0,0.0,0.0,1.5,0.5,0.5,1.75,-0.05,0.14,0.95,88.27,0.8,-63.9
3.02,0.0,0.0,0.0,0.0,0.0,0.0,0.0,0.0,0.75,1.0,0.0,0.0,1.0,0.14,0.2,0.83,41.56,-7.5,-78.4,0.0,0.25,0.75,0.25,0.0,0.0,0.0,0.0,0.0,1.5,1.25,0.5,1.5,-0.05,0.14,0.95,86.23,-1.6,-56.4
3.04,0.0,0.0,0.0,0.5,0.0,0.0,0.0,0.0,0.75,1.0,0.0,0.5,0.0,0.14,0.52,0.83,44.79,2.4,-46.4,0.5,0.25,0.75,0.25,0.0,0.0,0.0,0.0,0.0,1.5,0.5,0.75,2.25,-0.05,0.14,0.95,89.98,-1.5,-51.8
3.06,0.0,0.0,0.0,1.0,0.0,0.0,0.0,0.0,0.75,1.25,0.0,0.5,0.75,0.14,0.02,1.33,53.93,0.2,-46.8,0.0,0.75,0.75,0.5,0.0,0.0,0.0,0.25,0.0,1.5,0.25,0.75,1.75,-0.05,0.14,0.95,93.25,-0.7,-40.4
3.08,0.0,0.0,0.0,0.5,0.0,0.0,0.0,0.0,0.75,1.25,0.0,0.5,0.75,0.2,0.08,1.08,59.58,-2.0,-61.3,0.0,0.25,0.75,0.5,0.0,0.0,0.0,0.25,0.0,1.5,0.75,0.75,1.5,-0.05,0.14,0.95,95.86,-1.1,-51.6
3.1,0.0,0.0,0.0,0.5,0.0,0.0,0.0,0.0,0.75,1.25,0.0,0.5,0.75,-0.17,0.08,0.89,64.13,-2.0,-61.3,0.0,0.25,0.5,0.0,0.0,0.0,0.0,0.0,0.25,1.5,0.5,0.5,1.75,-0.05,0.14,0.95,92.19,2.3,-66.9
3.12,0.0,0.0,0.0,0.5,0.0,0.0,0.0,0.0,1.0,1.25,0.0,0.5,0.75,-0.3,0.14,0.95,66.61,-1.1,-59.9,0.0,0.5,0.75,0.25,0.0,0.0,0.0,0.25,0.0,1.5,0.75,0.5,1.25,-0.05,0.14,0.95,89.78,-1.2,-44.8
3.14,0.0,0.0,0.0,0.75,0.0,0.0,0.0,0.0,1.0,1.0,0.0,0.25,0.5,-0.11,0.08,0.95,64.81,1.4,-42.9,0.75,0.5,0.75,0.25,0.0,0.0,0.0,0.25,0.0,1.5,0.5,0.5,2.0,-0.05,0.14,0.95,92.93,-2.6,-36.7
3.16,0.0,0.0,0.0,0.5,0.0,0.0,0.0,0.0,0.25,0.0,0.0,0.0,0.75,-0.05,0.2,0.95,49.88,0.9,-41.5,0.5,0.25,0.75,0.5,0.0,0.0,0.0,0.25,0.0,1.5,0.5,0.5,1.5,-0.05,0.14,0.95,95.13,-3.0,-37.3
3.18,0.0,0.0,0.0,0.5,0.0,0.0,0.0,0.0,0.25,1.0,0.0,0.0,0.5,-0.17,0.14,0.95,41.37,-4.6,-48.6,0.25,0.5,0.75,0.25,0.0,0.0,0.0,0.25,0.0,1.5,0.5,0.5,1.25,-0.05,0.14,0.95,94.39,-2.2,-37.8
3.2,0.0,0.0,0.0,0.5,0.0,0.0,0.0,0.0,0.25,0.25,0.0,0.0,0.75,-0.11,0.14,0.95,33.29,-1.3,-46.2,0.25,0.25,0.5,0.25,0.0,0.0,0.0,0.25,0.0,1.5,0.5,0.5,1.25,-0.05,0.14,0.95,90.15,0.0,-49.3
3.22,0.0,0.0,0.0,0.0,0.0,0.0,0.0,0.0,0.25,0.0,0.0,0.0,0.75,-0.11,0.14,0.95,25.39,-7.4,-92.6,0.0,0.5,0.75,0.0,0.0,0.0,0.0,1.0,0.0,1.5,0.5,0.5,1.5,-0.05,0.14,0.95,91.79,2.5,-49.8
3.24,0.0,0.0,0.0,0.75,0.0,0.0,0.0,0.0,1.0,1.0,0.0,0.0,1.0,-0.11,0.14,0.95,32.45,-1.1,-47.6,0.0,0.5,0.5,0.5,0.0,0.0,0.0,0.5,0.25,1.5,0.5,0.5,1.5,-0.05,0.14,0.95,92.82,0.8,-45.8
3.26,0.0,0.0,0.5,0.0,0.0,0.0,0.0,0.0,1.0,1.25,0.0,0.5,1.0,-0.11,0.14,0.95,46.57,0.5,-62.8,0.25,0.25,0.75,0.25,0.0,0.0,0.0,0.75,0.0,1.5,0.5,0.25,1.75,0.02,0.14,0.95,95.31,1.2,-46.5
3.28,0.0,0.0,0.0,0.0,0.0,0.0,0.0,0.25,0.5,0.25,0.0,0.0,0.0,-0.11,0.14,0.95,40.46,-2.1,-47.9,0.0,0.25,0.75,1.0,0.0,0.0,0.0,0.5,0.0,1.5,0.75,0.5,1.0,-0.05,0.14,0.95,96.09,-2.6,-35.0
3.3,0.0,0.0,0.0,1.0,0.0,0.0,0.0,0.0,1.0,1.25,0.0,0.5,0.25,-0.11,0.14,0.95,46.5,2.8,-38.3,0.0,0.5,0.75,0.25,0.0,0.0,0.0,1.0,0.0,1.5,1.5,0.5,1.0,-0.05,0.14,0.95,101.19,-0.8,-44.9
3.32,0.0,0.0,0.0,0.0,0.0,0.0,0.0,0.25,1.0,1.25,0.0,0.5,0.0,-0.11,0.14,0.95,46.6,-2.4,-65.9,0.0,0.25,0.5,0.5,0.0,0.0,0.0,0.5,0.0,1.5,0.25,0.5,1.5,-0.05,0.14,0.95,97.9,2.5,-51.6
3.34,0.0,0.0,0.5,0.75,0.0,0.0,0.0,0.25,1.0,1.25,0.0,0.5,0.75,-0.11,0.14,0.95,59.81,3.0,-40.4,0.5,0.25,0.75,0.25,0.0,0.0,0.0,0.5,0.25,1.5,0.25,0.25,1.5,0.02,0.14,0.95,96.49,-1.3,-37.0
3.36,0.0,0.0,0.0,0.75,0.0,0.0,0.0,0.0,1.0,1.25,0.0,0.25,0.0,-0.17,0.14,0.95,59.64,2.4,-34.9,0.25,0.25,0.5,0.25,0.0,0.0,0.0,0.25,0.0,1.5,0.75,0.5,1.25,0.02,0.14,0.95,91.61,-0.4,-50.4
3.38,0.0,0.0,0.25,0.0,0.0,0.0,0.0,0.25,0.75,1.0,0.0,0.5,0.5,-0.17,0.14,0.95,64.04,-1.1,-64.2,0.25,0.5,0.75,0.5,0.0,0.0,0.0,0.5,0.0,1.5,0.5,0.25,1.0,0.02,0.14,0.95,88.43,-2.5,-27.2
3.4,0.0,0.0,0.0,0.25,0.0,0.0,0.0,0.25,1.0,1.25,0.0,0.5,0.75,-0.17,0.14,0.95,65.66,-3.3,-66.3,0.25,0.25,0.75,0.25,0.0,0.0,0.0,0.25,0.0,1.5,0.0,0.25,1.5,-0.05,0.14,0.95,83.82,0.2,-41.3
3.42,0.0,0.0,0.0,1.0,0.0,0.0,0.0,0.25,1.0,1.25,0.0,0.5,0.75,-0.11,0.14,0.95,70.47,0.0,-46.0,0.5,0.5,0.75,0.25,0.0,0.0,0.0,0.5,0.0,1.5,0.25,0.25,1.25,-0.05,0.14,0.95,83.27,-2.0,-27.7
3.44,0.0,0.0,0.0,1.0,0.0,0.0,0.0,0.0,1.0,1.25,0.0,0.25,0.75,-0.11,0.14,0.95,72.72,0.4,-42.7,0.25,0.5,0.75,0.25,0.0,0.0,0.0,0.0,0.0,1.5,0.25,0.25,1.0,0.02,0.14,0.95,77.62,-3.3,-28.2
3.46,0.0,0.0,0.0,0.5,0.0,0.0,0.0,0.25,1.0,1.25,0.0,0.0,0.5,-0.11,0.14,0.95,69.78,-2.7,-47.7,0.0,0.5,0.75,0.25,0.0,0.0,0.0,0.0,0.0,1.5,0.0,0.25,1.0,-0.05,0.14,0.95,70.86,-1.1,-32.4
3.48,0.0,0.0,0.0,0.75,0.0,0.0,0.0,0.25,1.0,1.25,0.0,0.5,0.5,-0.11,0.14,0.95,68.16,-0.2,-48.5,0.5,0.5,0.75,0.25,0.0,0.0,0.0,0.0,0.0,1.5,0.0,0.25,1.0,-0.05,0.14,0.95,67.69,-4.4,-19.7
3.5,0.0,0.0,0.0,0.0,0.0,0.0,0.0,0.25,1.0,1.25,0.0,0.5,0.75,-0.11,0.14,0.95,66.75,-4.7,-74.9,0.0,0.25,0.75,0.5,0.0,0.0,0.0,0.0,0.0,1.25,0.0,0.25,1.0,-0.05,0.14,0.95,63.0,-2.5,-32.3
3.52,0.0,0.0,0.0,0.0,0.0,0.0,0.0,0.25,1.0,1.25,0.0,0.5,0.75,-0.11,0.14,0.95,67.84,-4.7,-74.9,0.25,0.5,0.75,0.25,0.0,0.0,0.0,0.0,0.0,1.5,0.0,0.25,1.0,-0.05,0.14,0.95,62.15,-2.9,-25.7
3.54,0.0,0.0,0.5,0.5,0.0,0.0,0.0,0.0,1.0,1.25,0.0,0.5,0.75,-0.11,0.14,0.95,67.77,3.2,-46.2,0.0,0.25,0.75,0.25,0.0,0.0,0.0,0.0,0.0,1.5,0.0,0.25,1.0,-0.05,0.14,0.95,60.12,-0.4,-40.7
3.56,0.0,0.0,0.0,0.25,0.0,0.0,0.0,0.25,1.0,1.25,0.0,0.5,0.75,-0.11,0.14,0.95,68.95,-3.3,-66.3,0.0,0.5,0.75,0.25,0.0,0.0,0.0,0.0,0.0,1.25,0.0,0.25,1.0,-0.05,0.14,0.95,60.14,-2.2,-29.8
3.58,0.0,0.0,0.0,1.0,0.0,0.0,0.0,0.25,1.0,1.25,0.0,0.5,0.75,-0.11,0.14,0.95,71.39,0.0,-46.0,0.25,0.25,0.75,0.25,0.0,0.0,0.0,0.0,0.0,1.5,0.0,0.25,1.0,-0.05,0.14,0.95,59.76,-2.3,-33.2
3.6,0.0,0.0,0.0,1.0,0.0,0.0,0.0,0.25,1.0,1.25,0.0,0.0,0.75,-0.11,0.14,0.95,71.66,-1.0,-38.6,0.0,0.0,1.0,0.5,0.0,0.0,0.0,0.0,0.0,1.5,0.0,0.25,1.0,-0.05,0.14,0.95,61.32,-2.9,-37.0
3.62,0.0,0.0,0.0,0.75,0.0,0.0,0.0,0.25,1.0,1.0,0.0,0.25,0.75,-0.11,0.14,0.95,69.6,-0.6,-46.9,0.5,0.25,1.0,0.0,0.0,0.0,0.0,0.0,0.0,1.5,0.0,0.25,1.0,-0.05,0.14,0.95,63.35,-5.1,-26.4
3.64,0.0,0.0,0.0,0.75,0.0,0.0,0.0,0.25,1.0,1.25,0.0,0.5,0.75,-0.11,0.14,0.95,69.28,-0.9,-51.9,0.0,0.25,0.75,0.5,0.0,0.0,0.0,0.0,0.0,1.5,0.0,0.25,1.0,-0.05,0.14,0.95,64.67,-1.4,-34.8
3.66,0.0,0.0,0.0,1.0,0.0,0.0,0.0,0.25,1.0,1.25,0.0,0.5,0.75,-0.11,0.14,0.95,71.67,0.0,-46.0,0.25,0.25,1.5,0.25,0.0,0.0,0.0,0.0,0.0,1.5,0.0,0.25,1.0,-0.05,0.14,0.95,69.13,-7.8,-18.9
3.68,0.0,0.0,0.0,1.0,0.0,0.0,0.0,0.25,1.0,1.25,0.0,0.5,0.75,-0.11,0.14,0.95,74.79,0.0,-46.0,0.0,0.0,0.75,0.0,0.0,0.0,0.0,0.0,0.0,1.5,0.0,0.25,1.0,-0.05,0.14,0.95,66.9,1.6,-58.2
3.7,0.0,0.0,0.0,0.75,0.0,0.0,0.0,0.25,1.0,1.25,0.0,0.25,0.75,-0.11,0.14,0.95,74.27,-1.5,-48.6,0.25,0.25,1.0,0.25,0.0,0.0,0.0,0.0,0.0,1.5,0.0,0.25,1.25,-0.05,0.14,0.95,69.38,-3.3,-32.3
3.72,0.0,0.0,0.0,0.75,0.0,0.0,0.0,0.25,1.0,1.25,0.0,0.5,0.75,-0.11,0.14,0.95,73.89,-0.9,-51.9,0.0,0.25,0.5,0.5,0.0,0.0,0.0,0.0,0.0,1.5,0.0,0.25,1.0,-0.05,0.14,0.95,66.81,0.8,-40.8
3.74,0.0,0.0,0.0,1.0,0.0,0.0,0.0,0.25,1.0,1.25,0.0,0.25,0.75,-0.11,0.14,0.95,72.72,-0.4,-42.5,0.0,0.25,0.75,0.25,0.0,0.0,0.0,0.0,0.0,1.5,0.0,0.25,1.25,-0.05,0.14,0.95,68.24,0.3,-44.8
3.76,0.0,0.0,0.0,0.75,0.0,0.0,0.0,0.25,1.0,1.25,0.0,0.0,0.75,-0.11,0.14,0.95,69.63,-2.1,-44.8,0.25,0.5,0.75,0.25,0.0,0.0,0.0,0.0,0.0,1.5,0.0,0.25,1.0,-0.05,0.14,0.95,67.63,-2.9,-25.7
3.78,0.0,0.0,0.0,1.0,0.0,0.0,0.0,0.25,1.0,1.25,0.0,0.0,0.75,-0.11,0.14,0.95,67.66,-1.0,-38.6,0.25,0.25,0.75,0.5,0.0,0.0,0.0,0.0,0.0,1.5,0.0,0.25,1.25,-0.05,0.14,0.95,70.58,-2.2,-32.3
3.8,0.0,0.0,0.0,1.0,0.0,0.0,0.0,0.25,1.0,1.25,0.0,0.5,0.75,-0.11,0.14,0.95,69.71,0.0,-46.0,0.5,0.5,0.5,0.25,0.0,0.0,0.0,0.0,0.0,1.5,0.0,0.25,1.5,-0.05,0.14,0.95,73.24,-0.9,-33.0
3.82,0.0,0.0,0.0,1.25,0.0,0.0,0.0,0.25,1.0,1.25,0.0,0.5,0.75,-0.11,0.14,0.95,72.95,0.9,-40.6,0.5,0.25,0.5,0.25,0.0,0.0,0.0,0.25,0.0,1.5,0.0,0.25,1.0,0.02,0.14,0.95,72.93,-0.9,-32.1
3.84,0.0,0.0,0.25,0.5,0.0,0.0,0.0,0.25,1.0,1.25,0.0,0.5,0.75,-0.11,0.14,0.95,74.61,0.2,-51.9,0.25,0.25,0.5,0.25,0.0,0.0,0.0,0.0,0.0,1.5,0.0,0.5,1.25,0.02,0.14,0.95,73.25,0.2,-47.0
3.86,0.0,0.0,0.5,1.0,0.0,0.0,0.0,0.25,1.0,1.25,0.0,0.25,0.75,-0.11,0.14,0.95,76.29,3.4,-32.0,0.0,0.5,0.5,0.5,0.0,0.0,0.0,0.25,0.0,1.5,0.0,0.25,1.0,0.02,0.14,0.95,71.87,0.9,-32.8
3.88,0.0,0.0,0.5,1.25,0.0,0.0,0.0,0.25,1.0,1.25,0.0,0.25,0.75,-0.11,0.14,0.95,77.41,4.1,-27.5,0.25,0.5,0.5,0.5,0.0,0.0,0.0,0.5,0.0,1.5,0.0,0.25,1.0,0.02,0.14,0.95,73.3,0.0,-27.1
3.9,0.0,0.0,0.5,1.0,0.0,0.0,0.0,0.25,1.0,1.25,0.0,0.25,0.75,-0.11,0.14,0.95,77.91,3.4,-32.0,0.0,0.0,0.5,0.25,0.0,0.0,0.0,0.5,0.0,1.5,0.0,0.25,1.5,0.02,0.14,0.95,74.12,5.8,-61.9
3.92,0.0,0.0,0.5,1.0,0.0,0.0,0.0,0.25,1.0,1.25,0.0,0.5,0.75,-0.11,0.14,0.95,79.91,3.7,-35.6,0.25,0.25,0.5,0.5,0.0,0.0,0.0,0.75,0.0,1.5,0.0,0.25,1.0,0.02,0.14,0.95,76.86,1.5,-34.1
3.94,0.0,0.0,0.5,0.25,0.0,0.0,0.0,0.25,1.0,1.25,0.0,0.25,0.75,-0.11,0.14,0.95,77.16,0.9,-48.5,0.25,0.25,0.5,0.25,0.0,0.0,0.0,0.75,0.0,1.5,0.0,0.25,1.0,0.02,0.14,0.95,76.33,2.5,-39.1
3.96,0.0,0.0,0.5,0.5,0.0,0.0,0.0,0.25,1.0,1.25,0.0,0.25,0.75,-0.11,0.14,0.95,74.92,1.8,-42.3,0.0,0.25,0.5,0.25,0.0,0.0,0.0,0.5,0.0,1.5,0.0,0.25,1.0,0.02,0.14,0.95,74.41,3.7,-46.6
3.98,0.0,0.0,0.5,1.0,0.0,0.0,0.0,0.25,1.0,1.25,0.0,0.0,0.75,-0.11,0.14,0.95,72.87,3.1,-27.9,0.5,0.5,0.5,0.25,0.0,0.0,0.0,0.25,0.0,1.5,0.0,0.25,1.0,0.02,0.14,0.95,72.75,-1.5,-25.0
4.0,0.0,0.0,0.5,0.25,0.0,0.0,0.0,0.25,1.0,1.25,0.0,0.25,0.75,-0.11,0.14,0.95,71.06,0.9,-48.5,0.0,0.25,0.5,0.25,0.0,0.0,0.0,0.75,0.0,1.5,0.0,0.25,1.0,0.02,0.14,0.95,71.7,4.5,-46.1
4.02,0.0,0.0,0.5,0.5,0.0,0.0,0.0,0.25,1.0,1.25,0.0,0.25,0.75,-0.11,0.14,0.95,69.92,1.8,-42.3,0.25,0.5,0.5,0.25,0.0,0.0,0.0,0.5,0.0,1.5,0.0,0.25,1.0,0.02,0.14,0.95,71.81,1.0,-31.7
4.04,0.0,0.0,0.5,0.25,0.0,0.0,0.0,0.25,1.0,1.25,0.0,0.25,0.75,-0.11,0.14,0.95,68.4,0.9,-48.5,0.0,0.25,0.25,0.25,0.0,0.0,0.0,0.75,0.0,1.5,0.0,0.25,1.0,0.02,0.14,0.95,70.96,7.0,-52.5
4.06,0.0,0.0,0.5,0.75,0.0,0.0,0.0,0.25,1.0,1.25,0.0,0.25,0.75,-0.11,0.14,0.95,69.73,2.7,-36.9,0.25,0.25,0.5,0.25,0.0,0.0,0.0,0.75,0.0,1.5,0.0,0.25,1.0,0.02,0.14,0.95,72.27,2.5,-39.1
4.08,0.0,0.0,0.25,0.75,0.0,0.0,0.0,0.25,1.0,1.25,0.0,0.5,0.75,-0.11,0.14,0.95,71.46,1.1,-45.9,0.0,0.5,0.5,0.25,0.0,0.0,0.0,0.75,0.0,1.5,0.0,0.25,1.0,0.02,0.14,0.95,72.67,3.5,-38.4
4.1,0.0,0.0,0.0,0.0,0.0,0.0,0.0,0.25,0.75,1.25,0.0,0.25,0.75,-0.11,0.14,0.95,66.56,-7.1,-75.0,0.25,0.25,0.0,0.25,0.0,0.0,0.0,0.75,0.0,1.5,0.0,0.25,1.0,0.02,0.14,0.95,71.6,7.5,-51.2
4.12,0.0,0.0,0.0,0.5,0.0,0.0,0.0,0.25,1.0,1.25,0.0,0.5,0.75,-0.11,0.14,0.95,66.34,-2.0,-58.7,0.25,0.0,0.75,0.5,0.0,0.0,0.0,1.0,0.0,1.5,0.0,0.25,1.25,0.02,0.14,0.95,76.03,1.6,-39.6
4.14,0.0,0.0,0.0,1.0,0.0,0.0,0.0,0.25,1.25,1.5,0.0,0.25,0.75,-0.11,0.14,0.95,69.21,-0.6,-43.9,0.25,0.5,0.5,0.5,0.0,0.0,0.0,1.0,0.0,1.5,0.0,0.25,1.25,0.02,0.14,0.95,81.04,2.1,-31.7
4.16,0.0,0.0,0.0,1.0,0.0,0.0,0.0,0.25,0.75,1.25,0.0,0.5,0.75,-0.11,0.14,0.95,71.36,-0.6,-46.4,0.25,0.5,0.75,0.0,0.0,0.0,0.0,1.0,0.0,1.5,0.0,0.25,1.25,0.02,0.14,0.95,85.01,2.0,-35.9
4.18,0.0,0.0,0.0,0.25,0.0,0.0,0.0,0.25,1.0,1.25,0.0,0.5,0.75,-0.11,0.14,0.95,71.35,-3.3,-66.3,0.5,0.25,0.5,0.25,0.0,0.0,0.0,1.0,0.0,1.5,0.0,0.25,1.0,0.02,0.14,0.95,85.42,1.5,-33.0
4.2,0.0,0.0,0.0,0.5,0.0,0.0,0.0,0.25,1.0,1.25,0.0,0.5,0.75,-0.11,0.14,0.95,70.95,-2.0,-58.7,0.25,0.5,0.5,0.5,0.0,0.0,0.0,1.0,0.0,1.5,0.0,0.25,1.25,0.02,0.14,0.95,87.43,2.1,-31.7
4.22,0.0,0.0,0.0,0.5,0.0,0.0,0.0,0.25,1.0,1.25,0.0,0.5,0.75,-0.11,0.14,0.95,70.03,-2.0,-58.7,0.25,0.5,0.5,0.5,0.0,0.0,0.0,1.0,0.0,1.5,0.0,0.25,1.0,0.02,0.14,0.95,86.37,1.5,-28.1
4.24,0.0,0.0,0.0,0.25,0.0,0.0,0.0,0.25,1.0,1.0,0.0,0.5,0.75,-0.11,0.14,0.95,67.21,-2.5,-65.7,0.25,0.25,0.5,0.25,0.0,0.0,0.0,1.0,0.0,1.5,0.0,0.25,1.25,0.02,0.14,0.95,85.99,3.7,-42.5
4.26,0.0,0.0,0.0,0.25,0.0,0.0,0.0,0.25,1.0,1.25,0.0,0.5,0.75,-0.11,0.14,0.95,66.52,-3.3,-66.3,0.0,0.0,0.5,0.5,0.0,0.0,0.0,1.0,0.0,1.5,0.0,0.25,1.0,0.02,0.14,0.95,83.12,4.8,-47.9
4.28,0.0,0.0,0.0,0.75,0.0,0.0,0.0,0.25,0.5,1.25,0.0,0.5,0.75,-0.11,0.14,0.95,65.53,-2.5,-53.6,0.0,0.25,0.5,0.0,0.0,0.0,0.0,1.0,0.0,1.5,0.5,0.25,1.25,0.02,0.14,0.95,83.78,5.2,-56.7
4.3,0.0,0.0,0.0,1.0,0.0,0.0,0.0,0.25,1.0,1.25,0.0,0.5,0.75,-0.11,0.14,0.95,68.52,0.0,-46.0,0.0,0.25,0.5,0.5,0.0,0.0,0.0,1.0,0.0,1.5,0.0,0.25,1.0,0.02,0.14,0.95,81.48,3.9,-40.4
4.32,0.0,0.0,0.0,0.5,0.0,0.0,0.0,0.25,1.0,1.25,0.0,0.5,0.25,-0.11,0.14,0.95,66.41,-0.5,-51.7,0.25,0.5,0.5,0.25,0.0,0.0,0.0,0.75,0.0,1.5,0.5,0.25,1.0,0.02,0.14,0.95,82.67,0.7,-35.9
4.34,0.0,0.0,0.0,0.0,0.0,0.0,0.0,0.0,1.0,1.25,0.0,0.5,0.75,-0.11,0.14,0.95,65.02,-3.9,-77.5,0.0,0.25,0.5,0.5,0.0,0.0,0.0,0.75,0.0,1.5,0.0,0.25,1.0,0.02,0.14,0.95,79.72,3.3,-40.5
4.36,0.0,0.0,0.0,0.75,0.0,0.0,0.0,0.25,1.0,1.25,0.0,0.5,0.75,-0.11,0.14,0.95,65.26,-0.9,-51.9,0.25,0.25,0.5,0.25,0.0,0.0,0.0,0.5,0.0,1.5,0.0,0.25,1.25,0.02,0.14,0.95,77.1,2.4,-42.9
4.38,0.0,0.0,0.0,0.25,0.0,0.0,0.0,0.25,0.75,1.25,0.0,0.5,0.75,-0.11,0.14,0.95,64.34,-4.3,-68.1,0.0,0.0,0.5,0.25,0.0,0.0,0.0,1.0,0.0,1.5,0.0,0.25,1.0,0.02,0.14,0.95,74.17,6.1,-54.0
4.4,0.0,0.0,0.0,0.75,0.0,0.0,0.0,0.25,0.5,1.5,0.0,0.5,0.75,-0.11,0.14,0.95,66.67,-3.3,-54.8,0.0,0.5,0.5,0.25,0.0,0.0,0.0,0.75,0.0,1.5,0.0,0.25,1.0,0.02,0.14,0.95,73.29,3.5,-38.4
4.42,0.0,0.0,0.0,0.0,0.0,0.0,0.0,0.25,0.75,1.25,0.0,0.5,0.75,-0.11,0.14,0.95,64.8,-5.9,-77.5,0.0,0.25,0.5,0.5,0.0,0.0,0.0,0.75,0.0,1.5,0.0,0.25,1.0,0.02,0.14,0.95,72.83,3.3,-40.5
4.44,0.0,0.0,0.0,0.25,0.0,0.0,0.0,0.25,1.0,1.25,0.0,0.5,0.75,-0.11,0.14,0.95,65.54,-3.3,-66.3,0.25,0.5,0.5,0.0,0.0,0.0,0.0,1.0,0.0,1.5,0.0,0.25,1.0,0.02,0.14,0.95,73.73,3.5,-37.1
4.46,0.0,0.0,0.0,0.75,0.0,0.0,0.0,0.25,0.25,1.25,0.0,0.25,0.75,-0.11,0.14,0.95,61.78,-4.4,-50.7,0.0,0.5,0.5,0.25,0.0,0.0,0.0,1.0,0.0,1.5,0.0,0.25,1.0,0.02,0.14,0.95,75.38,4.2,-38.4
4.48,0.0,0.0,0.0,0.5,0.0,0.0,0.0,0.25,0.75,1.25,0.0,0.5,0.75,-0.11,0.14,0.95,63.09,-2.9,-59.9,0.0,0.75,0.5,0.25,0.0,0.0,0.0,1.0,0.0,1.5,0.25,0.5,1.25,0.02,0.14,0.95,81.88,2.7,-40.0
4.5,0.0,0.0,0.0,0.75,0.0,0.0,0.0,0.25,1.0,1.25,0.0,0.5,0.75,-0.11,0.14,0.95,65.54,-0.9,-51.9,0.0,0.25,0.75,0.5,0.0,0.0,0.0,0.75,0.0,1.5,0.0,0.25,1.0,0.02,0.14,0.95,82.15,1.2,-35.3
4.52,0.0,0.0,0.0,0.0,0.0,0.0,0.0,0.25,0.75,1.25,0.0,0.5,0.75,-0.11,0.14,0.95,65.03,-5.9,-77.5,0.5,0.5,0.5,0.5,0.0,0.0,0.0,0.75,0.0,1.5,0.0,0.25,1.0,0.02,0.14,0.95,83.71,-0.6,-22.4
4.54,0.0,0.0,0.0,0.0,0.0,0.0,0.0,0.25,0.75,1.25,0.0,0.5,0.75,-0.11,0.14,0.95,63.58,-5.9,-77.5,0.0,0.25,0.5,0.25,0.0,0.0,0.0,1.0,0.0,1.5,0.0,0.25,1.25,0.02,0.14,0.95,82.66,5.5,-49.0
4.56,0.0,0.0,0.0,0.0,0.0,0.0,0.0,0.25,0.75,1.0,0.0,0.5,0.75,-0.11,0.14,0.95,60.67,-5.2,-77.7,0.0,0.5,0.5,0.25,0.0,0.0,0.0,1.0,0.0,1.5,0.0,0.25,1.25,0.02,0.14,0.95,83.14,4.7,-41.8
4.58,0.0,0.0,0.0,0.0,0.0,0.0,0.0,0.25,1.0,1.25,0.0,0.5,0.75,-0.11,0.14,0.95,60.48,-4.7,-74.9,0.5,0.5,0.5,0.5,0.0,0.0,0.0,1.0,0.0,1.5,0.0,0.25,1.0,0.02,0.14,0.95,84.7,0.1,-23.1
4.6,0.0,0.0,0.0,0.5,0.0,0.0,0.0,0.25,0.75,1.25,0.0,0.5,0.75,-0.11,0.14,0.95,61.21,-2.9,-59.9,0.25,0.5,0.5,0.25,0.0,0.0,0.0,1.0,0.0,1.5,0.0,0.25,1.25,0.02,0.14,0.95,85.98,3.0,-36.0
4.62,0.0,0.0,0.0,0.0,0.0,0.0,0.0,0.25,1.0,1.25,0.0,0.5,0.75,-0.11,0.14,0.95,63.5,-4.7,-74.9,0.25,0.0,0.5,0.25,0.0,0.0,0.0,1.0,0.0,1.5,0.0,0.25,1.0,0.02,0.14,0.95,83.43,4.1,-46.5
4.64,0.0,0.0,0.0,0.5,0.0,0.0,0.0,0.25,0.5,1.25,0.0,0.5,0.75,-0.11,0.14,0.95,63.67,-3.9,-61.3,0.0,0.25,0.5,0.5,0.0,0.0,0.0,1.0,0.0,1.5,0.0,0.25,1.0,0.02,0.14,0.95,81.2,3.9,-40.4
4.66,0.0,0.0,0.0,1.0,0.0,0.0,0.0,0.25,0.75,1.25,0.0,0.25,0.75,-0.11,0.14,0.95,65.36,-1.1,-42.7,0.0,0.25,0.75,0.5,0.0,0.0,0.0,1.25,0.0,1.5,0.0,0.25,1.0,0.02,0.14,0.95,81.34,2.6,-35.6
4.68,0.0,0.0,0.0,0.25,0.0,0.0,0.0,0.25,0.75,1.25,0.0,0.5,0.75,-0.11,0.14,0.95,64.66,-4.3,-68.1,0.25,0.5,0.5,0.5,0.0,0.0,0.0,0.75,0.0,1.5,0.0,0.25,1.25,0.02,0.14,0.95,81.99,1.4,-31.4
4.7,0.0,0.0,0.0,0.25,0.0,0.0,0.0,0.25,1.0,1.25,0.0,0.5,0.75,-0.11,0.14,0.95,65.95,-3.3,-66.3,0.5,0.25,0.25,0.5,0.0,0.0,0.0,1.0,0.0,1.5,0.0,0.25,1.0,0.02,0.14,0.95,81.71,2.6,-33.1
4.72,0.0,0.0,0.0,0.5,0.0,0.0,0.0,0.25,0.5,1.25,0.0,0.5,0.75,-0.11,0.14,0.95,64.65,-3.9,-61.3,0.0,0.5,0.5,0.25,0.0,0.0,0.0,1.0,0.0,1.5,0.0,0.25,1.0,0.02,0.14,0.95,80.33,4.2,-38.4
4.74,0.0,0.0,0.0,1.0,0.0,0.0,0.0,0.25,0.75,1.0,0.0,0.25,0.75,-0.11,0.14,0.95,64.53,-0.3,-40.7,0.5,0.25,0.5,0.25,0.0,0.0,0.0,1.0,0.0,1.5,0.0,0.25,1.0,0.02,0.14,0.95,80.15,1.5,-33.0
4.76,0.0,0.0,0.0,0.75,0.0,0.0,0.0,0.25,1.0,1.0,0.0,0.5,0.75,-0.11,0.14,0.95,66.16,-0.1,-50.6,0.0,0.25,0.5,0.25,0.0,0.0,0.0,1.0,0.0,1.5,0.0,0.25,1.25,0.02,0.14,0.95,79.26,5.5,-49.0
4.78,0.0,0.0,0.0,1.0,0.0,0.0,0.0,0.25,1.0,1.0,0.0,0.5,0.75,-0.11,0.14,0.95,68.59,0.8,-44.3,0.25,0.25,0.5,0.25,0.0,0.0,0.0,1.25,0.0,1.5,0.0,0.25,1.0,0.02,0.14,0.95,79.92,3.9,-39.1
4.8,0.0,0.0,0.0,0.5,0.0,0.0,0.0,0.25,1.0,1.25,0.0,0.5,0.75,-0.11,0.14,0.95,70.19,-2.0,-58.7,0.0,0.25,0.5,0.25,0.0,0.0,0.0,0.75,0.0,1.5,0.0,0.25,1.0,0.02,0.14,0.95,77.19,4.5,-46.1
4.82,0.0,0.0,0.0,0.5,0.0,0.0,0.0,0.25,0.75,0.75,0.0,0.5,0.75,-0.11,0.14,0.95,66.68,-1.1,-57.7,0.25,0.5,0.5,0.25,0.0,0.0,0.0,1.0,0.0,1.5,0.0,0.5,1.0,0.02,0.14,0.95,79.06,2.0,-35.9
4.84,0.0,0.0,0.0,0.5,0.0,0.0,0.0,0.25,1.0,1.25,0.0,0.5,0.75,-0.11,0.14,0.95,67.31,-2.0,-58.7,0.25,0.25,0.5,0.25,0.0,0.0,0.0,1.0,0.0,1.5,0.0,0.25,1.25,0.02,0.14,0.95,80.02,3.7,-42.5
4.86,0.0,0.0,0.0,1.0,0.0,0.0,0.0,0.25,0.75,0.5,0.0,0.5,0.75,-0.11,0.14,0.95,64.02,2.3,-40.6,0.0,0.25,0.5,0.25,0.0,0.0,0.0,1.25,0.0,1.5,0.0,0.25,1.0,0.02,0.14,0.95,80.95,5.7,-45.4
4.88,0.0,0.0,0.0,1.0,0.0,0.0,0.0,0.25,1.0,1.0,0.0,0.5,0.75,-0.11,0.14,0.95,66.5,0.8,-44.3,0.0,0.25,0.5,0.25,0.0,0.0,0.0,1.0,0.0,1.5,0.0,0.25,1.0,0.02,0.14,0.95,78.91,5.1,-45.8
4.9,0.0,0.0,0.0,0.5,0.0,0.0,0.0,0.25,0.75,1.25,0.0,0.5,0.75,-0.11,0.14,0.95,66.2,-2.9,-59.9,0.0,0.25,0.5,0.5,0.0,0.0,0.0,1.0,0.0,1.5,0.0,0.25,1.25,0.02,0.14,0.95,79.85,4.4,-43.8
4.92,0.0,0.0,0.0,1.0,0.0,0.0,0.0,0.25,0.75,1.25,0.0,0.5,0.75,-0.11,0.14,0.95,69.52,-0.6,-46.4,0.0,0.5,0.5,0.25,0.0,0.0,0.0,1.0,0.0,1.5,0.0,0.25,1.0,0.02,0.14,0.95,79.04,4.2,-38.4
4.94,0.0,0.0,0.0,0.0,0.0,0.0,0.0,0.25,0.75,1.25,0.0,0.5,0.75,-0.11,0.14,0.95,66.57,-5.9,-77.5,0.25,0.0,0.5,0.0,0.0,0.0,0.0,1.25,0.0,1.5,0.0,0.25,0.5,0.02,0.14,0.95,75.29,5.0,-44.9
4.96,0.0,0.0,0.0,0.5,0.0,0.0,0.0,0.25,0.75,1.0,0.0,0.0,0.75,-0.11,0.14,0.95,62.07,-3.7,-51.2,0.0,0.25,0.5,0.5,0.0,0.0,0.0,1.0,0.0,1.5,0.0,0.25,1.0,0.02,0.14,0.95,75.21,3.9,-40.4
4.98,0.0,0.0,0.0,0.25,0.0,0.0,0.0,0.25,0.75,1.25,0.0,0.5,0.75,-0.11,0.14,0.95,60.13,-4.3,-68.1,0.0,0.25,0.25,0.5,0.0,0.0,0.0,1.0,0.0,1.5,0.0,0.25,1.0,0.02,0.14,0.95,74.32,6.2,-45.8
5.0,0.0,0.0,0.0,1.0,0.0,0.0,0.0,0.25,0.75,1.25,0.0,0.25,0.75,-0.11,0.14,0.95,61.13,-1.1,-42.7,0.0,0.0,0.5,0.5,0.0,0.0,0.0,0.75,0.0,1.5,0.0,0.25,1.0,0.02,0.14,0.95,73.63,4.2,-48.4
5.02,0.0,0.0,0.0,0.25,0.0,0.0,0.0,0.25,0.75,1.0,0.0,0.5,0.75,-0.11,0.14,0.95,60.92,-3.5,-67.6,0.0,0.5,0.25,0.25,0.0,0.0,0.0,1.0,0.0,1.5,0.0,0.25,1.0,0.02,0.14,0.95,73.62,6.5,-43.7
5.04,0.0,0.0,0.0,0.5,0.0,0.0,0.0,0.25,0.75,0.75,0.0,0.0,0.75,-0.11,0.14,0.95,57.15,-2.8,-49.2,0.0,0.25,0.5,0.25,0.0,0.0,0.0,1.0,0.0,1.5,0.0,0.25,1.25,0.02,0.14,0.95,75.91,5.5,-49.0
5.06,0.0,0.0,0.0,1.0,0.0,0.0,0.0,0.25,1.0,1.25,0.0,0.5,0.75,-0.11,0.14,0.95,62.36,0.0,-46.0,0.0,0.5,0.5,0.25,0.0,0.0,0.0,1.25,0.0,1.5,0.0,0.25,1.0,0.02,0.14,0.95,77.62,4.8,-38.4
5.08,0.0,0.0,0.0,1.0,0.0,0.0,0.0,0.25,0.75,0.5,0.0,0.5,0.75,-0.11,0.14,0.95,60.75,2.3,-40.6,0.0,0.5,0.5,0.25,0.0,0.0,0.0,1.0,0.0,1.5,0.0,0.25,1.0,0.02,0.14,0.95,78.78,4.2,-38.4
5.1,0.0,0.0,0.0,0.75,0.0,0.0,0.0,0.25,1.0,1.25,0.0,0.5,0.75,-0.11,0.14,0.95,66.28,-0.9,-51.9,0.0,0.5,0.5,0.25,0.0,0.0,0.0,0.75,0.0,1.5,0.0,0.25,0.5,0.02,0.14,0.95,74.94,2.3,-29.8
5.12,0.0,0.0,0.0,0.75,0.0,0.0,0.0,0.25,0.75,0.75,0.0,0.25,0.75,-0.11,0.14,0.95,63.04,-0.5,-45.5,0.0,0.25,0.5,0.25,0.0,0.0,0.0,1.0,0.0,1.5,0.0,0.25,0.75,0.02,0.14,0.95,72.47,4.6,-42.1
5.14,0.0,0.0,0.0,1.0,0.0,0.0,0.0,0.25,1.0,1.25,0.0,0.5,0.75,-0.11,0.14,0.95,68.5,0.0,-46.0,0.0,0.5,0.5,0.25,0.0,0.0,0.0,0.75,0.0,1.5,0.0,0.25,1.25,0.02,0.14,0.95,72.78,4.1,-42.0
5.16,0.0,0.0,0.0,1.0,0.0,0.0,0.0,0.25,1.0,1.0,0.0,0.25,0.75,-0.11,0.14,0.95,67.75,0.4,-40.5,0.25,0.25,0.0,0.25,0.0,0.0,0.0,1.0,0.0,1.5,0.0,0.25,1.0,0.02,0.14,0.95,73.13,8.0,-50.5
5.18,0.0,0.0,0.0,0.5,0.0,0.0,0.0,0.25,1.0,1.25,0.0,0.5,0.75,-0.11,0.14,0.95,70.94,-2.0,-58.7,0.0,0.25,0.5,0.25,0.0,0.0,0.0,1.0,0.0,1.5,0.25,0.25,1.25,0.02,0.14,0.95,77.63,4.8,-50.2
5.2,0.0,0.0,0.0,0.75,0.0,0.0,0.0,0.25,1.0,1.0,0.0,0.25,0.75,-0.11,0.14,0.95,69.17,-0.6,-46.9,0.0,0.25,0.25,0.25,0.0,0.0,0.0,1.0,0.0,1.5,0.0,0.5,1.0,0.02,0.14,0.95,78.13,6.7,-54.8
5.22,0.0,0.0,0.0,0.5,0.0,0.0,0.0,0.25,1.0,1.5,0.0,0.5,0.75,-0.11,0.14,0.95,71.05,-2.8,-59.6,0.5,0.5,0.5,0.5,0.0,0.0,0.0,0.75,0.0,1.5,0.0,0.25,0.75,0.02,0.14,0.95,80.04,-1.3,-18.1
