time,left pressure 0[N/cm虏],left pressure 1[N/cm虏],left pressure 2[N/cm虏],left pressure 3[N/cm虏],left pressure 4[N/cm虏],left pressure 5[N/cm虏],left pressure 6[N/cm虏],left pressure 7[N/cm虏],left pressure 8[N/cm虏],left pressure 9[N/cm虏],left pressure 10[N/cm虏],left pressure 11[N/cm虏],left pressure 12[N/cm虏],left acceleration X[g],left acceleration Y[g],left acceleration Z[g],left total force[N],left center of pressure X[mm],left center of pressure Y[mm],right pressure 0[N/cm虏],right pressure 1[N/cm虏],right pressure 2[N/cm虏],right pressure 3[N/cm虏],right pressure 4[N/cm虏],right pressure 5[N/cm虏],right pressure 6[N/cm虏],right pressure 7[N/cm虏],right pressure 8[N/cm虏],right pressure 9[N/cm虏],right pressure 10[N/cm虏],right pressure 11[N/cm虏],right pressure 12[N/cm虏],right acceleration X[g],right acceleration Y[g],right acceleration Z[g],right total force[N],right center of pressure X[mm],right center of pressure Y[mm]
0.02,7.0,0.25,3.5,4.5,4.75,4.5,2.0,7.5,7.25,3.5,4.25,2.25,1.75,-0.11,0.08,0.95,802.92,6.0,0.7,0.75,0.0,0.0,1.25,3.0,4.75,0.75,6.75,5.0,8.25,7.25,8.25,8.0,0.02,0.27,1.02,727.4,3.7,-54.3
0.04,7.75,0.25,4.5,5.25,5.0,4.5,2.75,6.75,7.0,3.25,3.75,2.25,1.5,-0.11,0.08,0.95,809.32,7.7,6.7,1.25,0.25,2.25,2.0,3.25,4.5,1.0,7.0,5.0,8.0,7.75,8.0,8.25,0.02,0.2,0.95,911.74,1.2,-46.0
0.06,8.5,0.5,5.0,5.75,6.75,5.0,3.25,6.0,6.25,3.25,3.0,1.75,1.5,-0.11,0.08,0.95,830.73,8.1,14.7,1.25,0.25,2.0,1.25,3.5,4.25,0.75,7.25,4.75,8.0,6.75,7.75,8.0,0.08,0.2,0.95,1021.1,2.0,-46.8
0.08,9.0,0.5,5.5,6.75,7.0,5.25,3.25,5.25,5.5,3.0,1.5,1.5,1.5,-0.11,0.14,0.95,851.02,8.9,21.8,1.25,0.0,2.0,1.25,3.0,4.25,1.0,7.0,4.25,8.0,6.5,7.25,8.0,0.08,0.14,0.89,1053.47,2.2,-47.8
0.1,9.0,1.0,6.5,7.75,7.25,5.5,3.25,4.75,4.75,3.25,1.5,1.5,1.5,-0.11,0.14,0.95,887.83,9.5,25.0,1.25,0.25,2.0,1.25,3.25,4.25,1.0,7.5,4.25,8.0,6.0,6.5,8.0,0.08,0.14,0.95,1033.39,2.5,-45.4
0.12,9.0,0.5,7.75,7.25,8.75,4.5,3.5,3.25,3.75,3.0,0.75,1.25,0.75,-0.11,0.14,0.95,893.58,11.4,33.0,0.75,0.0,3.5,2.25,4.75,5.25,1.75,7.5,4.25,7.75,6.0,6.75,7.75,0.08,0.14,0.89,1026.32,1.4,-37.6
0.14,11.5,1.75,8.5,8.25,8.75,5.5,3.25,3.25,3.0,3.25,2.0,1.0,1.5,-0.11,0.14,1.02,950.91,11.8,34.8,1.75,1.0,2.75,1.25,4.5,5.25,1.5,7.5,4.75,7.75,5.5,6.5,7.75,0.08,0.14,0.95,1009.07,1.5,-36.0
0.16,12.0,1.75,9.0,9.0,9.25,5.5,3.0,2.0,2.75,2.0,1.25,0.75,0.5,-0.11,0.2,1.08,982.33,13.8,44.8,1.25,0.5,2.5,1.25,4.5,5.0,1.5,7.75,4.75,7.75,5.75,6.25,7.0,0.08,0.14,0.95,974.99,2.0,-37.9
0.18,13.0,1.75,9.25,0.0,10.5,5.5,2.5,3.0,2.0,2.75,1.75,0.75,1.5,-0.11,0.2,1.02,975.41,11.6,37.7,0.75,0.0,1.75,1.75,4.25,5.25,1.0,8.0,4.75,7.75,5.75,6.25,6.75,0.08,0.14,0.95,923.47,3.1,-41.0
0.2,15.0,1.75,11.0,11.0,10.5,4.75,2.75,3.0,2.0,2.75,1.75,0.75,1.5,-0.11,0.2,1.02,1065.72,14.3,43.4,0.75,0.5,2.0,1.25,4.5,4.75,1.0,8.0,5.0,7.75,5.75,6.25,6.25,0.08,0.14,0.95,875.66,2.6,-39.7
0.22,15.0,1.75,12.0,12.5,10.5,4.5,2.5,2.75,2.0,3.25,1.75,0.5,1.5,-0.11,0.27,1.08,1171.29,14.7,44.0,0.75,0.25,0.75,1.75,4.5,5.75,1.0,8.0,5.25,7.0,5.75,5.75,6.0,0.08,0.14,0.95,818.31,3.6,-39.0
0.24,15.5,1.75,12.5,10.5,9.75,3.75,2.0,2.0,2.0,2.75,2.0,0.75,1.5,-0.11,0.27,1.2,1246.71,16.1,44.9,1.25,0.25,2.0,0.5,4.5,6.0,1.0,8.25,5.75,7.0,5.75,5.5,5.75,0.08,0.14,0.95,781.89,2.8,-36.7
0.26,16.5,1.75,12.5,8.0,6.75,2.0,1.25,1.25,1.25,2.0,1.75,0.0,1.25,-0.3,0.45,1.45,1190.01,19.7,52.2,1.25,0.5,2.0,1.25,4.5,6.25,1.25,8.5,5.75,6.75,5.75,5.0,5.0,0.08,0.14,0.95,762.56,2.4,-32.3
0.28,12.5,1.75,11.0,7.25,5.75,2.0,1.25,1.0,2.0,2.75,0.5,0.5,0.0,-0.23,0.58,1.83,1048.42,19.1,51.2,0.75,0.5,2.75,1.5,4.75,6.25,1.25,8.5,6.25,6.5,5.5,3.75,4.25,0.08,0.14,0.95,745.27,2.0,-27.8
0.3,11.0,1.0,11.0,5.75,4.75,1.0,2.0,1.0,1.25,1.25,0.5,0.5,0.0,-0.61,0.83,2.33,847.74,21.9,54.9,1.25,0.75,2.0,2.25,5.75,6.75,1.5,8.5,6.25,5.75,5.0,3.25,3.75,0.08,0.14,0.95,739.09,1.9,-20.9
0.32,9.75,0.25,8.5,5.0,3.5,0.75,3.0,1.25,1.25,1.5,0.5,0.0,0.0,-1.17,1.2,2.39,658.14,21.7,52.5,0.75,0.5,2.0,3.75,6.5,7.25,1.5,8.5,6.25,5.25,4.5,2.5,3.5,0.14,0.14,0.95,738.18,2.1,-15.8
0.34,8.25,0.0,6.5,3.5,0.0,0.25,1.5,1.0,1.25,1.25,0.5,0.0,0.0,-0.98,1.02,2.45,462.52,25.6,51.5,1.75,0.75,2.0,4.0,7.0,7.25,2.0,8.5,6.25,4.75,3.75,2.5,3.0,0.08,0.14,0.95,746.63,1.0,-9.6
0.36,5.75,0.0,4.0,1.75,0.0,0.25,0.75,1.0,1.25,0.5,0.5,0.0,0.0,-0.61,0.45,3.08,303.45,25.0,48.9,1.25,1.0,2.25,5.25,8.0,7.75,1.75,8.25,5.75,3.5,3.75,2.25,2.75,0.08,0.14,0.95,761.21,0.7,-3.5
0.38,3.5,0.0,1.75,0.0,0.0,0.0,0.5,1.25,1.25,1.25,0.5,0.5,0.0,-0.55,-0.73,2.39,179.15,17.4,15.4,1.0,1.75,4.0,6.0,8.5,7.75,2.0,8.0,5.75,3.5,3.0,2.25,2.5,0.08,0.14,0.95,801.38,-0.8,2.6
0.4,1.0,0.25,3.0,1.0,0.0,2.0,0.5,1.0,1.75,2.0,0.5,0.75,0.0,-0.55,-0.48,1.45,96.51,9.0,4.6,4.25,1.5,5.0,7.75,9.5,8.25,2.0,7.75,5.0,3.25,2.75,2.25,2.5,0.08,0.14,0.95,882.41,-3.2,11.9
0.42,1.0,0.0,2.0,0.25,0.0,1.75,0.75,1.25,1.75,2.0,1.5,0.75,1.0,-0.92,-0.86,1.77,45.64,4.9,-20.2,5.25,1.75,4.25,9.5,11.0,9.0,2.0,7.5,4.0,3.25,2.75,2.0,2.5,0.08,0.2,0.95,982.28,-3.2,17.0
0.44,0.0,0.0,1.5,1.75,0.0,1.75,0.75,1.25,1.75,2.0,1.5,0.75,1.25,-0.61,-0.86,0.83,28.58,2.7,-24.0,6.75,2.0,5.75,11.5,13.0,9.5,2.0,6.5,3.0,2.0,2.25,1.75,2.25,0.08,0.2,0.95,1106.07,-5.2,27.3
0.46,0.0,0.0,2.75,2.0,0.0,1.0,0.75,1.0,1.5,2.25,1.5,0.75,1.0,-0.42,-0.67,0.39,45.02,7.6,-16.5,7.25,1.5,7.0,0.0,14.0,10.5,2.0,5.75,2.25,2.25,1.5,1.5,1.5,0.08,0.14,0.95,1104.02,-3.2,27.3
0.48,0.5,0.0,1.0,1.75,0.0,1.0,0.5,1.0,1.75,2.0,1.75,0.75,1.0,-0.3,-0.55,0.33,65.79,4.4,-25.6,7.5,2.5,7.25,13.0,15.0,9.75,2.0,4.75,2.25,2.0,1.5,1.25,2.0,0.02,0.2,1.08,1202.06,-6.6,35.6
0.5,0.25,0.0,1.0,1.0,0.0,1.25,0.75,1.0,1.5,2.25,0.5,0.75,0.0,-0.23,-0.42,0.52,74.19,2.8,-19.1,8.0,2.75,7.25,13.0,15.5,0.0,1.75,3.5,2.0,2.0,1.5,1.25,1.25,0.08,0.27,1.2,1181.21,-11.8,40.3
0.52,0.25,0.0,3.0,0.0,0.0,0.25,0.75,1.0,1.75,2.0,0.5,0.75,0.0,-0.17,-0.36,0.77,82.23,11.8,-14.7,8.75,2.5,7.25,11.5,15.5,9.5,1.5,2.25,1.5,0.25,1.5,0.75,1.25,0.14,0.33,1.39,1218.6,-8.4,45.8
0.54,1.0,0.25,2.5,0.0,0.0,0.75,0.75,1.25,1.5,2.0,1.5,0.5,1.0,-0.17,-0.3,0.89,106.06,8.0,-18.0,8.75,1.75,7.5,9.25,13.5,7.75,1.5,2.25,1.5,0.25,1.5,0.75,0.5,0.33,0.45,1.52,1147.07,-9.8,46.8
0.56,1.0,0.25,2.75,0.0,0.0,1.0,0.75,1.0,1.5,2.0,1.5,0.75,1.0,-0.05,-0.17,0.95,134.41,8.6,-16.8,7.75,1.0,7.0,6.0,8.75,6.0,1.5,2.0,1.5,0.25,0.75,0.75,0.5,0.33,0.77,2.33,990.91,-11.3,45.9
0.58,0.75,0.0,2.75,0.25,0.0,1.0,0.75,1.0,1.5,2.0,1.5,0.5,1.0,0.02,0.02,1.02,159.85,8.2,-17.9,5.75,0.25,3.75,4.0,5.5,4.75,2.0,0.5,1.25,0.25,0.5,0.75,0.0,0.7,1.45,2.7,718.51,-11.6,46.8
0.6,0.0,0.0,2.25,0.25,0.0,1.0,0.75,1.0,1.5,2.0,1.0,0.0,0.75,0.08,0.14,1.2,162.94,5.2,-20.4,3.0,0.0,2.0,1.75,4.5,1.25,1.5,0.75,1.25,0.25,0.5,0.75,0.5,0.33,0.83,2.58,444.82,-10.7,32.2
0.62,1.0,0.25,3.0,0.25,0.0,0.75,0.75,1.0,1.5,2.0,1.5,0.5,1.0,-0.05,0.14,1.52,170.74,9.9,-13.0,0.0,0.0,0.75,1.25,2.5,2.0,0.75,0.5,1.5,0.25,0.5,0.75,0.5,0.33,0.08,2.77,253.67,-1.9,7.2
0.64,0.75,0.0,2.5,0.0,0.0,1.0,0.75,1.0,1.5,2.0,1.5,0.5,1.0,-0.17,0.27,1.7,166.12,7.3,-21.3,0.0,0.0,0.0,0.5,0.0,0.0,0.75,0.0,1.5,0.25,0.5,0.75,0.5,0.2,-0.61,1.45,88.36,-9.0,-48.3
0.66,0.75,0.0,0.5,0.0,0.0,0.0,0.25,1.0,1.25,1.0,0.5,0.0,0.0,-0.23,0.39,2.08,137.55,7.1,-18.8,0.0,0.0,0.75,0.25,0.5,0.5,0.75,0.5,1.5,0.25,0.5,0.5,0.0,0.33,0.08,1.45,0.0,-8.5,-11.9
0.68,0.75,0.0,1.5,0.0,0.0,1.0,0.75,1.0,1.5,2.0,1.5,0.5,0.25,-0.3,0.77,2.64,131.63,5.8,-22.9,0.0,0.0,0.75,0.0,0.25,0.5,0.75,0.5,1.5,0.25,0.5,0.5,0.0,0.33,-0.42,1.83,0.0,-8.7,-19.2
0.7,1.0,0.0,2.0,0.0,0.0,0.5,0.75,1.0,1.5,2.0,1.5,0.75,1.0,2.08,3.27,4.45,133.84,7.8,-26.7,0.0,0.0,0.5,0.5,0.25,0.0,0.75,0.5,1.5,0.25,0.75,0.5,0.0,0.39,-0.86,1.33,0.0,-11.1,-22.9
0.72,1.0,0.0,2.0,1.0,0.0,0.5,0.75,1.25,1.5,2.75,1.5,0.75,1.5,-0.42,3.27,1.2,157.87,6.0,-26.3,0.0,0.0,0.5,0.0,0.25,0.5,0.75,0.5,1.5,0.25,0.5,0.5,0.25,0.45,-0.73,0.7,0.0,-6.1,-27.8
0.74,0.75,0.0,0.5,0.0,0.0,0.5,0.75,1.0,1.25,1.75,1.75,1.75,1.5,-0.17,5.14,0.33,166.73,2.5,-52.8,0.0,0.0,0.5,0.0,0.25,0.5,0.75,0.5,1.5,0.25,0.5,0.5,0.0,0.45,-0.42,0.64,0.0,-7.2,-23.4
0.76,0.0,0.0,0.25,0.0,0.0,0.0,0.0,1.0,1.25,2.0,0.5,2.5,3.0,4.08,7.95,-4.36,174.78,-3.6,-82.5,0.0,0.0,0.5,0.0,0.5,0.5,0.75,0.5,1.5,0.25,0.5,0.5,0.0,0.33,-0.23,0.58,0.0,-6.6,-19.1
0.78,0.75,0.0,2.0,0.0,0.0,1.75,0.75,3.25,2.25,4.75,3.0,6.0,5.5,-0.8,1.08,7.45,253.18,-0.6,-61.2,0.0,0.0,0.5,0.0,0.25,0.5,0.75,0.5,1.5,0.25,0.25,0.5,0.25,0.2,-0.17,0.7,0.0,-5.9,-25.4
0.8,0.75,0.0,2.25,1.25,0.0,1.75,0.5,4.5,3.75,1.5,5.75,7.0,6.5,-0.48,0.7,1.08,348.25,2.3,-56.9,0.0,0.0,0.5,0.0,0.25,0.5,0.75,0.5,1.5,0.25,0.5,0.5,0.25,0.2,-0.11,0.7,3.53,-6.1,-27.8
0.82,0.0,0.25,2.0,1.75,0.0,2.0,0.75,6.0,4.5,5.75,6.25,7.0,6.5,-0.05,0.27,1.02,502.94,-0.4,-58.2,0.75,0.25,0.5,1.0,0.25,3.0,0.75,2.0,1.75,1.75,1.5,1.0,0.75,0.2,0.08,0.83,86.7,1.0,-18.5
0.84,0.0,0.0,2.0,1.75,0.0,2.0,0.75,6.25,4.5,6.5,6.5,6.5,6.25,-0.17,0.14,0.95,629.21,-0.8,-58.5,0.0,0.0,2.0,0.75,3.0,2.75,0.75,2.0,1.5,1.75,1.5,1.0,0.0,0.2,0.14,0.89,161.84,-0.8,-1.7
0.86,1.0,0.25,2.0,1.5,0.0,2.0,0.75,6.75,5.0,6.75,6.5,7.0,6.25,-0.11,0.14,0.95,729.6,-0.1,-55.3,0.0,0.0,1.75,0.0,2.5,0.5,0.75,0.5,1.5,0.0,0.5,0.5,0.0,0.27,0.27,1.08,182.25,-9.3,14.4
0.88,0.75,0.25,2.25,2.0,0.0,2.0,0.75,6.75,5.25,7.25,6.75,7.0,6.5,-0.11,0.14,0.95,790.06,0.0,-54.7,0.0,0.0,0.5,0.0,0.25,0.5,0.75,0.5,1.5,0.25,0.5,0.5,0.25,0.33,0.33,1.2,164.09,-6.1,-27.8
0.9,1.0,0.25,1.0,1.5,0.0,2.0,0.75,6.75,5.5,7.5,7.25,7.0,6.75,-0.11,0.14,0.95,830.25,-1.1,-58.9,0.0,0.0,0.5,0.0,0.25,0.5,0.75,0.5,1.5,0.25,0.5,0.5,0.25,0.52,0.52,1.45,128.44,-6.1,-27.8
0.92,0.75,0.0,2.25,1.75,0.0,2.0,0.75,7.0,6.0,7.75,7.5,7.25,7.0,-0.11,0.14,0.95,860.4,-0.2,-57.1,0.0,0.0,0.5,0.0,0.25,0.5,0.5,0.5,1.5,0.25,0.5,0.75,0.5,0.58,0.7,1.64,100.6,-4.7,-36.5
0.94,1.0,0.25,2.0,1.5,0.0,2.0,0.75,7.5,6.25,7.75,7.5,7.5,7.0,-0.11,0.14,0.95,884.7,-0.3,-56.8,0.0,0.0,0.5,0.0,0.25,0.25,0.75,0.5,1.5,0.0,0.25,0.25,0.25,0.7,0.89,1.89,78.49,-8.7,-20.7
0.96,0.75,0.0,2.25,1.5,0.0,2.0,1.0,7.5,6.5,7.75,7.75,7.25,7.0,-0.11,0.08,0.95,896.99,-0.2,-57.3,0.0,0.0,0.5,0.0,0.25,0.5,0.5,0.5,1.5,0.25,0.5,0.25,0.25,0.83,1.33,2.39,72.68,-5.3,-24.9
0.98,1.0,0.25,2.25,1.5,0.0,2.25,0.75,7.5,6.75,7.75,8.0,7.0,7.0,-0.11,0.08,0.95,897.05,0.0,-55.3,0.0,0.0,0.5,0.0,0.25,0.5,0.75,0.5,1.5,0.25,0.5,0.25,0.5,1.33,2.45,2.52,69.3,-5.0,-27.9
1.0,1.0,0.25,2.0,1.75,0.0,2.5,1.0,7.75,6.75,7.75,8.0,7.0,7.0,-0.11,0.08,0.95,883.74,-0.3,-54.6,0.0,0.0,0.5,0.0,0.25,0.5,0.5,0.5,1.5,0.25,0.5,0.25,0.5,1.64,3.14,1.02,65.2,-4.3,-29.2
1.02,1.0,0.25,2.25,2.0,0.0,2.75,1.5,8.0,7.0,7.75,8.0,6.75,6.0,-0.11,0.08,0.95,854.93,0.2,-51.2,0.0,0.0,0.5,0.0,0.25,0.5,0.5,0.5,1.5,0.0,1.0,0.75,0.0,1.64,4.33,-0.92,62.96,-8.1,-31.0
1.04,1.0,0.25,2.25,2.5,0.0,3.5,1.5,8.0,7.25,7.25,8.0,6.0,5.75,-0.11,0.08,0.95,838.09,0.2,-47.5,0.5,0.0,1.75,0.0,1.75,3.0,0.75,2.0,1.75,2.0,1.5,1.5,1.75,-2.17,7.33,-0.11,123.9,0.7,-22.0
1.06,1.25,0.25,3.0,2.75,0.0,3.5,1.5,8.0,7.5,6.5,7.5,5.25,4.5,-0.11,0.08,0.95,805.03,1.4,-41.4,0.75,0.0,1.75,1.25,1.75,2.75,0.75,1.5,1.5,3.25,0.25,2.25,3.25,-2.05,-1.48,-1.11,187.3,0.9,-25.4
1.08,1.75,0.25,3.0,2.5,3.0,3.5,1.5,8.0,7.5,6.0,7.5,4.25,3.0,-0.11,0.08,0.95,773.83,1.8,-30.4,0.5,0.0,1.25,1.25,1.75,0.75,0.75,3.0,1.75,5.5,1.5,4.5,4.25,0.7,2.33,3.77,274.14,1.6,-50.1
1.1,2.0,0.25,3.0,3.5,4.75,4.0,1.75,8.0,7.5,5.25,7.0,3.75,2.75,-0.11,0.08,0.95,756.82,2.1,-22.0,2.25,0.0,2.0,0.0,2.25,3.0,0.75,6.75,3.0,6.75,3.0,7.0,7.0,-1.55,0.89,1.7,422.04,2.2,-47.9
1.12,2.0,0.25,3.0,3.5,4.5,4.25,2.0,8.0,7.5,5.0,6.25,2.5,2.0,-0.11,0.08,0.95,733.46,2.1,-17.5,2.0,0.0,0.0,0.0,1.0,3.75,0.75,6.5,4.25,7.25,6.5,8.75,7.0,0.33,0.14,0.89,607.36,2.8,-59.6
1.14,2.5,0.25,3.0,3.5,4.75,4.75,2.0,7.5,7.5,4.25,5.75,2.25,2.0,-0.11,0.08,0.95,716.08,2.5,-13.4,4.0,0.25,2.0,1.25,4.5,5.25,0.75,7.5,5.0,8.0,8.25,8.75,8.0,0.14,0.27,0.95,847.14,0.3,-39.5
1.16,2.75,0.25,3.75,4.5,4.75,5.5,2.25,7.5,7.5,4.0,5.0,2.25,1.75,-0.11,0.08,0.95,712.82,3.3,-7.8,4.0,0.25,3.25,0.25,3.75,5.25,0.75,7.5,4.75,7.75,7.75,8.0,8.0,0.14,0.2,0.95,1015.14,0.0,-39.1
1.18,3.5,0.25,4.25,5.5,5.75,5.75,2.75,7.5,7.25,3.25,4.0,2.25,1.75,-0.11,0.08,0.95,733.95,4.3,-0.4,3.75,0.25,3.75,0.75,3.25,5.25,0.75,7.5,5.0,7.5,7.25,7.0,7.75,0.14,0.14,0.89,1116.5,-0.2,-36.8
1.2,4.25,1.25,5.0,7.0,7.0,5.75,2.75,7.0,6.75,3.5,4.0,2.25,1.75,-0.11,0.14,0.95,793.07,5.4,6.6,5.5,0.25,4.0,1.25,3.0,5.25,0.75,7.5,5.25,6.75,6.5,6.0,6.0,0.14,0.14,0.89,1107.78,-2.0,-27.6
1.22,4.5,1.5,5.25,9.0,8.75,7.0,3.0,6.75,6.25,3.25,3.0,2.25,1.5,-0.11,0.14,0.95,882.52,5.4,14.0,7.5,0.25,5.75,1.75,4.5,5.25,0.75,7.5,5.75,6.0,6.25,5.0,4.75,0.14,0.14,0.95,1108.68,-4.6,-14.3
1.24,6.0,1.75,6.5,11.5,10.5,7.25,2.75,6.0,5.0,3.25,2.75,1.75,1.75,-0.11,0.14,0.95,1007.55,6.8,22.3,9.0,0.25,5.5,1.5,4.5,5.75,1.0,7.5,5.75,4.75,5.75,3.5,3.25,0.08,0.14,0.95,1073.28,-5.7,-4.8
1.26,7.0,1.75,7.75,13.5,13.0,7.75,2.5,5.5,3.75,3.25,1.5,1.75,1.5,-0.11,0.14,0.95,1149.93,7.4,30.0,9.5,0.0,5.75,1.25,4.5,5.25,1.0,6.75,5.5,2.0,4.25,2.25,2.25,0.08,0.14,0.95,992.31,-8.0,6.7
1.28,8.25,2.0,8.0,14.0,14.0,8.25,2.0,5.0,2.5,3.25,2.75,1.25,1.5,-0.05,0.2,1.14,1288.21,7.8,32.8,10.5,0.75,5.75,2.75,4.5,5.25,1.0,5.75,5.0,1.25,2.5,1.75,1.25,0.08,0.2,0.95,895.84,-10.1,21.1
1.3,9.0,3.25,9.0,14.5,15.0,8.75,1.5,3.75,2.0,3.25,2.25,1.25,1.5,-0.11,0.2,1.2,1382.36,8.5,37.8,13.0,1.0,7.0,3.25,5.5,6.0,1.75,5.25,4.25,1.25,2.75,1.0,1.5,0.08,0.2,0.95,857.3,-11.5,29.3
1.32,10.0,3.5,9.0,15.0,16.5,8.75,0.75,3.25,2.0,1.75,2.0,1.25,1.5,-0.11,0.2,1.27,1448.32,9.1,42.3,13.0,0.75,7.25,3.25,6.5,6.0,1.75,4.75,3.5,2.0,2.75,2.0,1.75,0.08,0.2,0.95,842.08,-11.0,26.6
1.34,11.0,3.5,9.0,13.5,15.5,8.25,0.75,3.25,2.0,2.75,1.75,1.0,1.5,-0.17,0.27,1.27,1475.94,9.3,41.8,11.5,0.25,7.25,3.0,6.0,5.25,1.25,3.25,2.75,0.5,1.5,0.75,0.25,0.08,0.2,0.95,767.82,-13.7,41.4
1.36,12.0,3.5,8.75,10.5,13.0,6.75,0.0,2.5,1.5,2.25,1.5,1.0,1.5,-0.23,0.39,1.52,1427.41,10.8,44.3,11.5,0.5,7.75,0.0,6.5,5.25,0.75,2.0,2.25,1.5,1.5,1.5,0.25,0.02,0.2,1.02,696.44,-13.5,38.8
1.38,9.75,1.75,7.75,7.25,8.5,4.5,0.25,2.5,1.25,0.75,1.75,0.75,0.25,-0.55,0.95,2.77,1229.14,13.2,46.6,0.0,0.5,8.5,5.25,8.0,0.0,0.0,2.25,1.75,0.25,1.75,0.75,0.5,0.02,0.2,1.08,558.11,-12.9,30.7
1.4,9.0,1.5,6.25,5.75,5.75,3.5,0.75,1.75,1.75,1.5,1.5,0.5,1.0,-1.17,1.08,2.77,943.81,13.5,41.0,12.0,0.5,8.5,6.0,6.5,3.25,1.5,2.0,1.5,0.0,1.5,0.75,0.0,-0.05,0.27,1.02,552.89,-17.7,51.3
1.42,6.5,0.0,3.0,3.5,4.75,0.0,0.0,1.0,1.25,0.0,0.5,0.25,0.0,-0.92,1.39,3.58,594.81,17.9,53.4,11.5,0.75,8.75,5.75,6.5,3.25,1.5,2.0,1.5,0.0,1.5,0.75,0.0,0.02,0.27,0.95,562.86,-17.6,51.1
1.44,3.5,0.0,1.75,0.5,0.0,0.0,0.0,1.0,1.25,1.5,0.5,0.0,0.0,-0.98,0.58,4.33,313.6,17.5,22.8,12.0,0.75,9.0,6.0,6.5,3.25,2.0,0.25,1.5,0.25,1.5,0.75,0.0,-0.05,0.33,0.89,612.23,-19.2,54.5
1.46,1.0,0.0,0.0,0.0,0.0,0.0,0.25,0.75,1.25,1.25,0.5,0.0,0.0,-0.42,-0.61,2.33,122.3,5.1,-23.6,13.0,1.5,9.5,7.5,6.5,3.0,2.0,0.5,1.5,0.25,1.5,0.75,0.5,-0.05,0.33,0.89,666.13,-19.2,54.1
1.48,0.75,0.0,0.5,0.0,0.0,0.0,0.25,0.25,1.25,1.75,0.5,0.25,0.0,-0.61,-0.73,2.2,0.0,7.3,-28.3,10.5,1.0,10.5,6.0,6.5,1.75,2.5,0.25,1.5,0.25,1.0,0.75,0.0,0.02,0.39,0.89,680.49,-20.9,55.6
1.5,0.0,0.0,0.5,0.0,0.0,0.0,0.25,0.25,1.25,1.5,0.5,0.5,0.0,-0.8,-0.67,1.58,0.0,4.4,-49.3,13.0,2.0,10.5,7.75,5.75,2.5,3.0,0.5,1.75,1.75,1.0,1.0,1.25,0.08,0.39,0.89,736.16,-18.9,48.3
1.52,0.0,0.0,0.5,0.0,0.0,1.75,0.25,0.25,1.25,3.25,0.5,1.0,0.0,-0.36,-0.61,0.45,0.0,-4.7,-42.0,13.5,2.75,12.0,7.75,6.75,2.75,4.25,1.5,1.5,1.75,1.5,1.0,0.5,0.08,0.45,0.89,811.93,-18.7,49.5
1.54,1.0,0.0,2.25,1.75,0.0,1.5,1.0,1.25,1.5,2.0,2.0,0.75,0.5,-0.23,-0.61,0.02,0.0,8.1,-9.4,13.5,3.25,12.0,8.25,6.5,3.25,5.5,0.75,1.5,1.75,1.25,1.0,1.0,0.08,0.52,0.89,908.87,-18.8,49.9
1.56,0.25,0.0,0.5,1.0,0.0,0.0,0.25,1.0,1.25,1.25,0.5,0.5,0.0,-0.23,-0.61,0.08,0.0,5.9,-24.0,13.5,3.75,13.0,9.0,6.75,3.0,6.0,0.5,1.5,1.5,1.5,1.0,1.25,0.02,0.58,0.83,1006.89,-19.3,50.3
1.58,1.0,0.0,2.25,1.75,0.0,0.25,0.75,1.0,1.5,1.75,1.5,0.75,1.0,-0.36,-0.67,0.14,4.32,10.7,-13.3,14.0,3.5,13.0,9.5,5.75,3.0,6.5,0.75,1.75,1.5,1.5,1.0,1.25,0.08,0.64,0.83,1088.76,-19.7,49.6
1.6,1.0,0.0,2.0,1.0,0.0,0.5,0.75,1.0,1.75,1.75,1.5,0.75,1.0,-0.36,-0.61,0.33,57.26,9.1,-18.9,13.5,3.25,12.0,8.0,6.0,3.0,7.25,0.5,1.75,1.75,1.5,1.0,1.25,0.08,0.7,0.83,1103.15,-19.3,48.3
1.62,0.75,0.0,2.25,0.25,0.0,1.0,0.75,1.25,1.5,2.0,1.5,0.75,1.0,-0.36,-0.48,0.45,114.0,6.5,-23.4,14.0,3.0,11.5,7.75,4.5,3.0,7.5,0.75,1.25,0.25,1.5,0.75,1.5,-0.05,0.89,0.89,1061.76,-20.9,52.0
1.64,0.25,0.0,2.0,0.0,0.0,1.0,0.75,1.0,1.5,1.75,1.5,0.5,1.0,-0.3,-0.36,0.52,137.98,5.2,-29.1,13.5,4.25,10.5,6.75,2.75,3.0,7.75,0.5,1.25,1.5,1.5,1.0,1.25,-0.05,0.95,1.08,982.57,-20.6,49.7
1.66,1.0,0.0,2.25,1.0,0.0,0.5,0.75,1.25,1.5,1.75,1.5,0.75,0.75,-0.42,-0.17,0.58,172.21,9.6,-15.4,12.5,4.5,9.5,6.0,0.25,3.0,7.75,0.5,1.5,1.25,1.5,1.0,1.25,0.08,1.14,1.33,885.8,-21.6,48.6
1.68,0.75,0.0,2.25,1.0,0.0,1.25,0.75,1.0,1.5,2.5,1.75,1.0,1.0,-0.42,-0.05,0.7,192.0,6.3,-21.9,11.5,3.5,8.75,4.0,0.0,2.75,7.0,0.5,0.75,0.5,1.0,0.5,1.25,0.08,1.2,1.52,750.35,-23.1,53.3
1.7,0.5,0.0,2.25,1.0,0.0,1.0,0.75,1.0,1.5,1.75,1.5,0.5,0.5,-0.36,0.08,0.83,193.41,8.4,-13.4,8.25,1.25,5.75,1.75,0.0,2.75,3.75,0.25,1.25,0.5,0.25,0.75,0.5,-0.23,1.64,2.52,551.84,-22.2,50.1
1.72,0.75,0.0,2.25,1.0,0.0,0.75,0.75,1.25,1.25,1.75,1.5,0.75,1.0,-0.3,0.2,1.39,192.71,8.0,-18.1,5.5,0.25,3.75,1.25,0.0,0.5,2.5,0.5,1.25,0.75,1.0,1.0,0.75,-0.17,0.39,2.95,366.57,-22.0,28.5
1.74,0.75,0.0,2.25,1.0,0.0,1.25,0.75,1.25,1.5,1.75,1.5,0.75,1.0,-0.3,0.58,1.52,191.2,7.0,-16.6,2.0,0.25,3.75,2.0,0.25,3.0,2.0,0.5,1.25,0.75,1.5,1.0,1.5,-0.17,-2.05,2.95,252.93,-11.5,10.2
1.76,1.0,0.0,2.25,1.0,0.0,1.75,0.75,1.0,1.5,2.0,1.5,0.75,0.75,-0.23,1.45,1.39,191.44,6.8,-11.9,0.0,0.25,3.75,1.5,0.0,2.5,2.0,0.5,1.25,1.5,1.75,1.0,1.5,0.08,-1.61,2.08,174.03,-8.7,-7.7
1.78,0.75,0.0,0.5,1.0,0.0,1.75,0.25,1.0,1.5,1.75,0.5,0.75,0.0,-0.36,3.02,1.58,174.4,1.4,-13.3,0.0,0.25,3.5,1.5,0.0,1.75,2.0,0.5,1.5,1.5,1.75,1.0,1.25,0.52,-0.17,1.08,127.53,-10.1,-9.6
1.8,1.0,0.0,2.0,1.0,0.0,1.25,0.75,1.0,1.5,2.0,1.5,0.75,0.75,-0.36,3.83,1.45,179.47,7.3,-15.0,0.75,0.25,3.5,1.5,0.0,0.0,2.0,1.0,1.25,2.0,1.75,1.0,0.75,0.83,-0.05,0.27,102.04,-14.0,-8.6
1.82,1.0,0.0,2.0,1.0,0.0,1.0,0.75,1.0,1.25,2.0,1.5,0.75,1.0,-0.3,3.95,0.89,173.55,7.3,-17.3,0.75,0.25,3.5,1.5,1.5,0.0,1.5,0.5,1.25,1.75,1.5,1.25,0.75,0.83,-0.05,0.27,101.18,-13.2,-0.8
1.84,1.0,0.0,1.75,1.25,0.0,1.5,0.75,1.0,1.25,1.75,1.5,0.5,1.0,-0.17,3.39,-0.05,178.76,6.2,-12.5,0.75,0.25,3.0,1.5,1.25,0.5,1.5,0.5,1.25,1.5,1.5,1.0,0.75,0.77,0.08,0.58,105.44,-12.0,0.1
1.86,0.75,0.0,2.25,1.25,0.0,0.75,0.75,1.5,0.75,2.0,1.5,0.75,0.5,-0.05,2.95,-0.55,178.79,8.0,-13.4,0.0,0.25,3.0,1.5,1.0,0.0,1.5,0.5,1.25,1.25,1.75,1.0,0.75,0.77,0.27,0.39,111.46,-12.9,-7.3
1.88,1.0,0.0,2.0,1.0,0.0,1.25,0.75,1.0,1.25,2.0,1.5,0.5,1.0,0.45,2.64,-0.3,181.85,6.8,-14.6,0.75,0.25,3.0,1.5,1.75,0.0,1.5,0.5,1.25,1.5,1.75,1.0,0.75,1.02,0.27,0.39,131.29,-12.5,0.0
1.9,0.5,0.0,2.0,0.0,0.0,0.75,0.25,0.75,1.0,2.0,0.5,0.75,0.0,0.89,2.02,-0.11,159.98,7.5,-16.5,0.75,0.0,2.75,1.5,1.5,0.5,1.5,1.25,1.25,1.5,1.75,1.0,0.5,1.39,0.27,0.64,155.01,-10.3,-2.7
1.92,0.0,0.25,2.5,1.0,0.0,2.0,0.75,1.0,1.0,1.25,1.5,0.75,0.0,-2.8,-0.55,1.08,157.1,7.4,-3.9,0.5,0.0,2.75,1.25,2.25,0.5,1.5,0.5,1.25,1.5,1.75,1.0,0.5,1.52,0.2,0.77,178.91,-10.3,-0.3
1.94,1.0,0.25,2.0,3.5,0.0,5.0,0.75,3.25,2.25,1.5,0.5,1.25,1.0,0.08,0.14,0.89,202.51,1.5,0.6,0.75,0.25,2.75,1.25,1.75,0.5,1.25,0.5,1.25,1.5,1.5,1.0,0.5,1.7,0.45,1.08,195.79,-11.1,1.9
1.96,3.75,1.5,0.0,3.5,4.75,6.5,1.5,6.75,6.75,4.25,3.25,2.25,1.25,-0.3,0.14,0.95,339.41,0.1,-5.1,0.75,0.25,2.5,1.25,1.0,0.75,1.75,1.25,1.25,1.5,1.5,1.0,0.75,1.95,0.77,1.27,203.51,-9.5,-5.2
1.98,5.5,1.75,0.0,3.5,4.75,7.0,1.75,8.0,8.0,4.25,4.0,2.25,2.0,-0.11,0.08,1.02,538.33,1.0,-5.0,0.75,0.25,2.5,1.25,1.75,0.5,1.5,1.5,1.25,1.5,1.5,1.0,0.25,1.7,1.08,1.7,205.6,-9.4,0.3
2.0,6.0,2.0,3.0,3.5,5.75,7.75,1.75,8.25,7.5,4.0,5.0,2.5,2.0,-0.05,0.02,0.95,781.26,3.0,0.1,0.5,0.25,2.5,1.25,2.25,0.0,1.5,0.75,1.25,1.5,1.5,0.75,0.75,1.14,1.77,2.2,206.88,-10.1,-0.2
2.02,6.5,3.5,3.0,3.5,6.75,8.75,1.75,8.0,6.5,3.25,0.0,2.0,1.75,-0.11,0.08,0.95,937.47,2.5,15.6,0.75,0.25,2.5,1.25,1.5,0.0,1.25,1.0,1.25,1.75,1.25,1.0,0.0,1.2,2.45,3.08,202.94,-11.6,1.2
2.04,7.5,3.5,3.0,4.0,7.0,8.75,1.5,7.5,6.0,3.25,1.5,1.5,1.75,-0.17,0.08,0.95,1032.98,3.3,17.2,1.25,0.25,2.5,1.25,1.25,0.25,1.0,0.0,1.25,1.75,1.25,1.0,0.75,0.7,2.52,2.52,198.18,-12.6,0.4
2.06,8.5,3.5,2.5,5.25,7.25,8.75,1.5,6.75,5.0,1.75,2.75,1.25,1.75,-0.11,0.08,0.95,1068.39,4.5,22.0,1.25,0.0,2.25,1.5,1.25,0.0,0.75,0.5,1.25,1.75,1.5,0.75,0.75,-0.48,3.02,1.2,192.88,-11.5,-3.1
2.08,9.5,4.75,4.25,5.75,8.5,8.25,0.75,5.0,3.0,1.75,2.0,1.0,1.0,-0.11,0.08,0.95,1094.08,6.8,35.1,0.75,0.25,2.75,1.25,0.0,0.5,0.75,1.5,1.25,1.5,1.5,1.0,1.5,-1.17,2.39,-0.17,192.76,-9.1,-16.8
2.1,9.75,5.75,4.25,6.25,8.25,4.75,0.0,3.25,2.0,1.75,1.5,0.75,0.0,-0.11,0.14,1.33,1054.28,10.2,46.0,0.0,0.0,2.75,1.25,0.25,0.25,0.75,1.25,1.25,1.5,1.5,1.0,0.75,0.2,1.33,0.52,184.99,-9.8,-18.9
2.12,10.5,6.0,2.75,5.75,7.0,6.25,0.0,2.75,1.75,1.75,0.0,0.75,0.0,-0.23,0.2,1.64,981.32,9.2,51.0,0.0,0.0,2.5,1.25,0.25,0.75,0.75,0.5,1.25,1.0,1.5,1.0,1.0,1.08,0.58,0.14,174.14,-10.2,-16.7
2.14,10.0,6.25,1.75,2.25,4.75,4.25,0.0,1.25,1.0,1.25,1.25,0.0,1.0,-0.11,0.2,1.45,820.07,10.7,52.4,0.25,0.25,2.5,1.25,1.75,0.75,0.75,0.5,1.25,0.25,0.0,1.0,0.75,2.58,0.7,-0.42,166.08,-10.8,12.8
2.16,8.25,4.75,0.0,1.75,1.75,4.0,0.0,1.0,1.5,1.5,0.0,0.5,0.0,-0.05,0.33,1.58,604.55,10.1,53.3,0.25,0.0,2.0,1.25,1.0,0.5,0.75,2.0,1.25,0.25,1.5,1.0,1.0,4.08,2.14,-1.11,165.59,-7.5,-13.0
2.18,7.5,3.5,0.0,0.0,0.75,2.25,0.0,1.5,1.0,1.75,0.25,0.0,0.0,-0.11,0.39,1.64,392.22,11.1,50.5,1.25,0.25,2.0,1.25,1.0,0.5,0.75,2.0,1.25,0.0,0.0,1.0,1.5,6.14,2.08,-1.23,169.02,-8.8,1.9
2.2,6.75,3.5,0.0,1.75,0.0,2.0,0.0,0.0,1.0,1.5,0.0,0.0,0.0,0.14,0.39,2.02,266.27,15.0,61.6,0.0,0.0,2.0,1.25,1.0,0.5,0.75,2.0,1.25,0.0,1.0,0.5,1.0,4.45,0.08,1.2,166.34,-7.2,-6.9
2.22,6.0,1.75,0.0,0.75,0.0,2.0,0.0,1.0,1.25,2.25,0.5,0.0,0.0,0.89,0.2,1.64,188.14,10.4,36.1,0.5,0.0,2.75,1.25,1.5,1.5,0.75,2.0,1.25,0.25,1.5,1.0,0.75,1.45,-1.8,0.2,180.75,-7.5,-0.1
2.24,4.5,0.75,0.0,0.0,0.0,1.75,0.0,1.5,1.0,1.25,1.5,0.0,1.0,0.08,-0.05,1.2,128.4,6.8,10.1,0.75,0.25,3.5,1.25,1.0,0.75,0.75,1.75,1.25,0.5,1.0,1.0,0.75,-2.92,-2.55,1.7,191.07,-11.6,4.5
2.26,2.75,0.25,0.0,0.0,0.0,0.0,0.0,1.0,1.0,1.5,0.5,0.0,0.0,-0.42,-0.48,0.77,65.22,10.3,7.3,0.75,0.25,3.25,1.25,2.25,0.25,0.75,1.5,1.25,1.0,1.5,1.0,0.75,-1.17,-1.61,5.2,208.3,-10.4,2.9
2.28,0.25,0.25,0.0,0.0,0.0,0.0,0.0,1.0,1.0,1.75,0.75,0.0,1.0,0.64,-0.67,1.27,11.47,-4.5,-54.9,0.75,0.25,2.0,1.25,0.5,0.5,0.75,1.75,1.25,1.25,1.5,0.75,1.25,2.2,-0.11,1.39,207.23,-7.3,-14.1
2.3,0.0,0.0,0.5,0.0,0.0,0.0,0.5,1.25,1.0,1.25,0.5,0.5,0.0,-1.23,0.08,1.89,0.0,1.6,-44.8,1.25,0.25,2.0,1.25,1.0,2.0,0.75,1.75,1.25,1.5,0.0,1.0,0.5,2.39,0.95,-1.55,210.53,-5.2,5.8
2.32,1.0,0.25,0.75,1.0,0.0,1.75,0.0,1.0,1.25,2.0,1.5,0.75,1.0,-0.36,0.77,0.27,0.0,1.7,-21.5,1.25,0.0,2.75,1.25,1.0,2.75,0.75,1.0,1.25,1.5,0.25,1.0,0.5,2.39,1.27,-3.48,211.84,-6.6,9.3
2.34,1.5,0.25,1.5,1.0,0.0,1.75,0.0,1.0,1.25,2.0,1.5,0.75,1.25,-2.23,0.83,-1.55,48.98,4.6,-14.4,0.75,0.0,2.75,1.25,0.5,0.5,0.75,0.5,1.25,0.75,1.5,0.75,0.5,0.58,1.39,-0.36,201.29,-14.3,0.1
2.36,1.0,0.25,1.75,0.0,0.0,1.5,0.0,1.0,1.25,1.75,1.5,0.5,1.0,-1.42,0.83,0.52,93.18,4.3,-19.4,1.25,0.25,2.5,1.25,0.5,0.5,0.75,0.5,1.25,0.75,1.5,1.0,0.25,-0.05,0.83,0.83,191.71,-15.1,4.9
2.38,1.0,0.25,1.75,0.0,0.0,1.25,0.5,1.0,1.25,1.75,0.5,0.5,1.0,0.77,0.83,0.77,121.53,4.9,-14.3,1.0,0.25,2.5,1.25,0.5,0.5,0.75,0.5,1.25,1.5,1.5,1.0,1.0,-0.17,-0.73,0.83,185.9,-11.3,-8.0
2.4,1.25,0.25,1.5,0.0,0.0,2.0,0.0,1.0,1.25,2.0,1.5,0.75,1.0,2.64,1.64,0.64,143.77,2.8,-19.7,1.0,0.0,2.25,1.25,1.0,0.5,0.75,0.5,1.25,1.5,1.5,1.0,0.75,0.27,-1.36,0.83,183.86,-10.6,-6.7
2.42,1.0,0.25,1.75,0.0,0.0,1.75,0.5,1.0,1.25,2.0,1.5,0.75,1.0,1.33,1.52,1.83,156.04,4.0,-20.4,0.75,0.0,2.25,1.25,1.25,0.5,0.75,0.5,1.25,1.5,1.5,0.75,1.25,0.77,-1.48,0.64,184.41,-8.9,-9.3
2.44,1.0,0.25,1.5,0.0,0.0,1.75,0.5,1.0,1.25,1.75,1.5,0.5,1.0,0.14,0.89,1.77,162.69,3.6,-19.1,0.75,0.25,2.0,1.25,1.25,0.5,0.75,0.5,1.25,1.5,1.5,0.75,1.0,1.14,-1.3,0.2,185.62,-8.9,-6.5
2.46,1.0,0.0,1.75,0.0,0.0,1.0,0.5,1.0,1.25,1.75,1.5,0.5,1.0,-1.05,-0.11,0.83,165.94,5.9,-23.5,0.75,0.25,2.25,1.25,1.0,0.5,0.75,0.5,1.25,1.75,1.75,1.0,0.75,0.95,-0.61,0.2,185.53,-9.7,-9.0
2.48,1.25,0.25,1.5,0.0,0.0,1.75,0.5,1.0,1.5,1.75,1.5,0.75,1.0,-0.98,-1.11,0.33,173.73,4.4,-19.1,0.5,0.25,2.0,1.25,0.5,0.5,0.75,0.5,1.25,1.5,1.5,0.75,1.0,0.7,-0.3,0.08,179.7,-9.2,-12.9
2.5,1.0,0.25,1.0,1.0,0.0,1.0,0.5,1.0,1.25,1.75,1.5,0.75,1.0,0.89,-1.3,0.64,175.38,5.0,-20.9,1.25,0.0,2.0,1.25,1.0,0.5,0.75,0.5,1.25,1.0,1.5,1.0,1.25,0.52,-0.17,-0.3,180.07,-10.5,-7.6
2.52,1.75,0.25,1.5,1.0,0.0,1.25,0.5,1.0,1.5,2.0,1.5,0.5,1.0,3.77,-0.73,2.33,182.34,7.0,-10.2,1.5,0.25,2.25,1.25,1.25,0.5,0.75,0.5,1.25,1.25,1.5,0.75,0.75,0.33,-0.3,-0.48,184.69,-11.7,3.3
2.54,1.0,0.0,1.75,1.0,0.0,1.5,0.5,1.0,1.25,2.0,1.5,0.5,1.0,4.89,-2.36,1.08,182.89,5.3,-15.6,0.75,0.25,2.0,1.25,1.0,0.5,0.75,0.5,1.25,1.25,1.5,1.0,1.0,0.2,-0.48,-0.23,184.97,-9.6,-8.6
2.56,1.0,0.25,1.75,1.0,0.0,1.0,0.5,1.0,1.25,2.0,1.5,0.75,1.0,2.14,-1.61,1.58,181.93,6.6,-17.0,0.75,0.25,2.0,1.25,1.25,0.5,0.75,0.5,1.25,1.5,1.5,1.0,1.0,-0.05,-0.61,-0.11,187.83,-8.9,-8.5
2.58,1.0,0.0,1.75,1.0,0.0,1.0,0.5,1.0,1.25,2.0,1.5,0.75,1.0,3.27,-0.98,2.33,180.44,6.5,-19.4,0.5,0.25,2.25,1.25,1.0,0.5,0.75,0.5,1.25,1.5,2.0,0.75,1.0,-0.11,-0.55,-0.11,190.31,-9.3,-10.9
2.6,1.0,0.25,1.75,1.0,0.0,1.0,0.5,1.0,1.25,2.0,1.5,0.5,1.0,3.58,-0.67,2.52,181.46,6.5,-15.1,1.25,0.25,2.0,1.25,0.5,0.5,0.75,0.5,1.25,1.5,1.5,0.75,1.25,-0.05,-0.3,-0.23,188.41,-10.2,-8.9
2.62,1.0,0.25,1.75,1.0,0.0,0.75,0.5,1.0,1.25,2.0,1.5,0.5,1.0,2.14,0.58,2.2,178.81,7.1,-16.1,1.75,0.0,2.0,1.25,1.0,0.5,0.75,0.5,1.25,1.5,1.5,1.0,1.0,0.02,-0.17,-0.61,189.89,-10.8,-4.5
2.64,1.0,0.25,1.75,0.75,0.0,1.0,0.5,1.0,1.25,2.0,1.5,0.5,1.0,-0.48,0.33,1.27,176.31,6.3,-16.7,0.5,0.25,2.0,1.25,1.0,0.5,0.75,0.5,1.25,1.25,1.5,0.75,0.75,0.08,-0.3,-1.17,185.44,-9.6,-6.4
2.66,1.0,0.5,1.75,0.75,0.0,1.0,0.5,1.0,1.25,1.25,1.5,0.75,1.0,-0.98,-0.11,0.83,174.83,7.9,-12.4,0.75,0.25,2.0,1.25,0.5,0.25,0.75,0.5,1.25,1.5,1.25,0.75,1.25,-0.05,-0.42,-1.05,180.33,-9.9,-12.5
2.68,1.0,0.25,1.75,1.0,0.0,0.75,0.5,1.0,1.25,2.25,1.25,0.5,1.0,-0.61,-0.17,0.58,174.61,6.6,-16.1,0.5,0.25,2.0,1.25,0.5,0.5,0.75,0.5,1.25,1.5,1.25,1.0,1.0,-0.11,-0.3,-0.73,174.38,-9.2,-13.7
2.7,1.0,0.25,1.75,1.0,0.0,1.0,0.5,1.0,1.25,2.0,1.5,0.5,1.0,-0.36,-0.3,0.58,175.1,6.5,-15.1,0.75,0.25,2.0,1.25,0.5,0.5,0.75,0.5,1.25,1.5,1.5,0.75,1.5,-0.05,-0.11,-0.55,174.42,-8.8,-14.8
2.72,1.0,0.0,1.75,1.0,0.0,0.75,0.5,1.0,1.0,2.25,1.25,0.5,1.0,-0.23,-0.55,0.7,171.68,6.3,-18.2,1.0,0.0,2.0,1.25,1.25,0.5,0.75,0.5,1.25,1.25,1.5,1.0,1.0,-0.05,0.02,-0.55,177.8,-9.7,-7.4
2.74,1.0,0.0,1.5,1.0,0.0,0.75,0.5,1.0,1.25,2.0,1.5,0.5,1.0,-0.11,-1.23,0.52,169.11,6.3,-20.3,0.75,0.0,2.0,1.5,0.5,0.5,0.75,0.5,1.25,1.5,1.5,1.0,1.0,0.02,0.27,-0.73,178.06,-9.8,-13.6
2.76,1.0,0.0,1.75,1.0,0.0,0.75,0.5,1.0,1.25,2.0,1.5,0.5,1.0,-0.05,-1.42,0.33,166.93,7.0,-18.6,0.75,0.25,2.0,1.25,1.0,0.5,0.75,0.5,1.25,1.0,1.5,0.75,1.25,0.02,0.39,-1.05,179.11,-9.7,-7.3
2.78,1.0,0.0,1.75,0.75,0.0,1.0,0.75,1.0,1.25,2.25,1.5,0.5,1.0,-0.11,-1.05,0.08,168.85,6.0,-19.9,1.0,0.0,2.0,1.0,1.5,0.75,0.75,0.5,1.25,1.5,1.25,0.75,1.5,-0.05,0.33,-1.05,183.7,-7.4,-8.7
2.8,1.0,0.0,1.5,0.75,0.0,0.75,0.5,1.0,1.25,2.25,1.25,0.5,1.0,-0.11,-0.98,-0.17,166.66,5.5,-22.1,1.25,0.25,2.0,1.25,0.5,1.0,0.75,0.5,1.25,1.5,1.5,1.0,1.25,-0.05,0.08,-0.86,187.87,-9.0,-9.2
2.82,0.5,0.0,1.0,1.0,0.0,1.0,0.25,1.0,1.25,2.0,1.5,0.5,1.0,-0.05,-0.8,-0.3,162.07,2.6,-28.6,0.25,0.0,2.0,1.5,0.5,0.75,0.75,0.5,1.25,1.0,1.5,0.75,1.0,0.02,-0.11,-0.61,182.36,-9.3,-12.4
2.84,1.0,0.25,1.75,1.0,0.0,0.75,0.5,1.0,1.0,2.0,1.25,0.5,1.0,0.02,-0.55,-0.3,161.78,6.9,-14.4,0.75,0.25,2.0,1.25,1.0,0.75,0.75,0.5,1.25,1.5,1.5,0.75,1.0,0.08,-0.17,-0.3,183.43,-8.6,-7.1
2.86,1.0,0.25,2.0,1.0,0.0,0.75,0.5,1.0,1.0,2.0,1.5,0.5,1.0,0.08,-0.42,-0.36,164.82,7.7,-14.0,0.5,0.25,2.0,1.25,1.5,0.75,0.75,0.5,1.25,1.5,1.5,0.75,1.25,0.2,-0.11,-0.3,185.68,-7.2,-8.3
2.88,0.75,0.25,1.75,1.0,0.0,1.0,0.5,1.0,1.25,2.25,1.5,0.5,1.0,0.08,-0.3,-0.42,169.78,5.6,-18.4,0.75,0.25,2.0,1.25,0.5,0.75,0.75,0.75,1.25,1.5,1.75,0.75,1.0,0.27,0.02,-0.42,187.76,-8.6,-11.7
2.9,1.0,0.0,1.75,1.0,0.0,0.75,0.5,1.0,1.0,2.0,1.5,0.75,1.0,0.02,-0.23,-0.55,171.57,6.9,-20.0,0.75,0.25,2.0,1.25,1.0,0.75,0.75,0.5,1.25,1.5,1.0,0.75,1.0,0.39,0.14,-0.55,186.55,-8.5,-4.5
2.92,0.75,0.0,1.75,1.0,0.0,0.75,0.75,1.0,1.25,2.0,1.5,0.5,1.0,0.02,-0.17,-0.67,171.41,6.7,-20.4,1.25,0.0,2.0,1.25,1.0,0.75,0.75,0.75,1.25,1.0,1.5,1.0,1.25,0.64,0.14,-0.61,188.75,-9.4,-7.4
2.94,0.75,0.25,1.5,1.0,0.0,0.5,0.5,1.0,1.25,2.5,1.5,0.5,1.0,0.08,-0.11,-0.73,170.15,5.5,-23.4,0.5,0.0,2.0,1.25,1.25,0.5,0.75,0.75,1.25,1.5,1.5,0.75,0.75,0.7,0.02,-0.42,185.6,-8.3,-9.2
2.96,1.0,0.25,1.75,1.0,0.0,0.75,0.75,1.0,1.25,2.0,1.25,0.5,1.0,0.2,-0.36,-0.73,171.02,7.3,-14.4,0.5,0.0,2.0,1.5,1.0,0.75,0.75,1.0,1.25,1.0,1.5,1.0,1.25,0.7,-0.11,-0.17,186.34,-7.7,-12.3
2.98,1.0,0.0,1.75,1.0,0.0,0.75,0.25,1.0,1.0,1.5,1.5,0.5,1.0,0.33,-0.55,-0.67,167.38,7.6,-16.0,0.75,0.25,2.0,1.25,1.0,0.75,0.75,0.75,1.25,1.5,1.5,0.75,0.75,0.7,-0.11,-0.05,186.7,-8.5,-5.7
3.0,0.75,0.0,1.75,1.0,0.0,0.75,0.5,1.0,1.25,2.0,1.5,0.5,1.0,0.27,-0.73,-0.61,166.63,6.4,-20.9,1.0,0.0,1.75,1.25,1.0,0.75,0.75,1.0,1.25,1.0,1.5,0.75,0.75,0.83,0.02,-0.05,184.94,-8.8,-5.2
3.02,0.75,0.25,1.75,1.0,0.0,0.75,0.5,1.0,1.25,2.0,1.5,0.5,1.0,0.14,-0.8,-0.48,167.01,6.6,-18.3,1.25,0.25,2.0,1.25,0.5,0.75,0.75,1.0,1.25,1.5,1.5,0.75,0.75,1.02,0.08,-0.17,185.13,-9.5,-5.3
3.04,0.75,0.25,1.75,1.0,0.0,0.75,0.75,1.0,1.25,2.0,1.5,0.5,1.0,0.08,-0.86,-0.42,169.52,6.8,-17.8,1.5,0.0,2.0,1.25,0.5,0.75,0.75,1.0,1.25,1.0,1.5,1.0,0.75,1.08,0.08,-0.17,185.58,-10.9,-4.8
3.06,1.0,0.0,1.75,1.0,0.0,0.5,0.75,1.0,1.0,2.0,1.5,0.75,1.0,0.08,-0.86,-0.36,169.5,7.8,-20.6,0.75,0.25,1.75,1.25,1.0,1.0,0.75,0.75,1.25,1.5,1.5,1.0,0.5,1.2,0.02,-0.11,186.94,-7.8,-6.2
3.08,0.75,0.25,1.75,1.0,0.0,1.0,0.5,1.0,1.25,2.0,1.5,0.75,1.0,0.02,-0.73,-0.42,171.7,6.1,-19.1,1.0,0.0,1.75,1.25,1.0,1.25,0.75,1.0,1.25,0.75,1.5,0.75,0.5,1.52,0.02,-0.05,183.87,-8.5,-0.1
3.1,0.75,0.25,1.75,1.0,0.0,0.75,0.5,1.0,1.0,2.0,1.5,0.5,0.75,0.08,-0.61,-0.42,169.46,6.9,-15.8,0.5,0.0,1.75,1.25,0.5,1.5,1.0,1.75,1.25,1.0,1.5,1.0,0.75,2.08,-0.05,0.02,185.08,-5.5,-12.8
3.12,1.0,0.25,1.75,1.0,0.0,0.5,0.5,1.0,1.0,2.0,1.5,0.5,0.75,0.2,-0.48,-0.42,167.95,8.1,-14.5,0.5,0.0,1.75,1.5,1.0,0.75,0.75,0.75,1.25,1.5,1.5,0.75,0.75,2.58,-0.36,-0.05,183.19,-7.5,-9.8
3.14,1.25,0.25,1.5,1.0,0.0,1.25,0.5,1.25,1.25,2.0,1.25,0.5,1.0,0.27,-0.36,-0.3,171.56,5.3,-13.0,0.5,0.0,2.0,1.25,0.5,1.5,0.75,0.75,1.25,0.75,1.5,1.0,0.75,2.58,-0.3,-0.17,180.18,-8.2,-8.3
3.16,0.75,0.0,1.75,1.0,0.0,1.0,0.5,1.0,1.25,2.0,1.5,0.75,0.75,0.33,-0.3,-0.23,171.92,6.3,-19.7,0.5,0.0,2.0,1.25,0.5,2.25,1.0,1.0,1.25,0.75,1.25,0.75,0.5,1.95,-0.05,-0.17,178.81,-6.5,-0.7
3.18,1.0,0.0,1.75,1.0,0.0,0.75,0.5,1.0,1.0,1.75,1.25,0.5,1.0,0.39,-0.23,-0.17,169.34,7.3,-15.6,1.0,0.0,1.75,1.25,0.5,1.75,1.0,1.5,1.25,0.75,1.25,1.0,0.75,1.33,0.2,-0.48,182.04,-6.7,-5.3
3.2,0.75,0.25,1.75,1.0,0.0,1.0,0.5,1.0,1.0,2.0,1.25,0.5,1.0,0.52,-0.23,-0.05,168.04,5.8,-15.6,1.25,0.0,2.0,1.25,1.0,1.25,1.0,1.5,1.25,1.5,1.5,1.0,0.75,0.89,0.14,-0.48,191.81,-7.2,-6.2
3.22,0.75,0.0,1.75,1.0,0.0,1.0,0.5,1.0,1.25,1.75,1.25,0.5,1.0,0.7,-0.17,0.14,166.2,6.2,-17.4,0.75,0.0,2.0,1.0,0.5,1.5,0.75,1.75,1.25,1.25,1.75,1.0,0.75,0.39,0.08,-0.23,196.45,-5.8,-13.5
3.24,0.75,0.0,1.5,1.0,0.0,0.75,0.5,1.0,1.0,1.75,1.25,0.5,1.0,0.89,-0.23,0.33,160.61,6.0,-19.9,0.5,0.0,2.0,1.25,1.0,1.25,0.75,1.0,1.25,1.5,1.5,1.0,0.75,0.08,-0.11,0.02,198.31,-6.4,-10.6
3.26,0.75,0.0,1.75,1.0,0.0,0.75,0.5,1.0,1.0,1.75,1.5,0.5,1.0,0.89,-0.3,0.52,158.65,6.8,-19.3,0.5,0.0,2.25,1.25,1.0,0.75,1.0,0.75,1.25,1.25,1.5,1.0,0.75,-0.11,-0.17,0.27,193.74,-9.2,-8.7
3.28,0.75,0.0,2.0,1.0,0.0,0.75,0.5,1.0,1.25,1.75,1.25,0.5,1.0,0.89,-0.36,0.58,159.19,7.5,-16.7,0.5,0.0,1.75,1.25,0.5,1.25,0.75,0.75,1.25,1.5,2.25,0.75,0.5,0.02,-0.23,0.27,188.41,-7.3,-14.3
3.3,1.0,0.0,1.0,0.75,0.0,1.25,0.25,1.0,1.25,1.75,1.25,0.5,1.0,0.89,-0.3,0.64,157.02,3.4,-21.7,0.75,0.0,1.75,1.25,1.0,0.75,0.75,1.5,1.25,1.5,1.75,0.75,0.75,0.27,-0.23,0.02,187.36,-6.5,-12.1
3.32,0.75,0.0,1.0,1.0,0.0,0.75,0.5,1.0,1.25,1.75,1.5,0.75,1.0,0.89,-0.3,0.7,155.23,4.7,-27.4,0.5,0.0,1.75,1.25,1.0,1.0,1.0,1.5,1.25,0.75,1.75,1.0,0.5,0.58,-0.17,-0.11,186.08,-7.4,-9.1
3.34,1.0,0.0,1.75,1.0,0.0,0.5,0.5,1.0,1.0,1.75,1.25,0.5,1.0,0.95,-0.3,0.77,155.09,8.0,-16.7,0.5,0.25,2.0,1.25,1.0,0.5,0.75,1.75,1.25,1.25,1.5,0.75,0.75,0.89,-0.23,-0.05,187.65,-7.2,-9.4
3.36,1.0,0.25,1.75,1.0,0.0,0.75,0.5,1.0,1.0,1.75,1.25,0.5,1.0,1.08,-0.3,0.77,157.37,7.4,-13.0,0.5,0.0,2.0,1.0,0.5,0.5,0.75,1.0,1.25,0.75,1.5,1.0,1.0,1.39,-0.23,-0.05,179.78,-9.5,-16.2
3.38,1.0,0.0,1.75,1.0,0.0,0.75,0.75,1.0,1.0,1.75,1.25,0.5,0.75,1.08,-0.36,0.77,157.98,8.1,-13.0,0.0,0.0,1.25,0.5,0.5,0.5,0.75,1.0,1.0,0.5,1.25,0.75,0.25,1.77,-0.17,-0.11,156.41,-7.6,-18.9
3.4,1.0,0.0,1.75,1.0,0.0,0.75,0.75,1.0,1.0,1.75,1.5,0.5,1.0,1.08,-0.42,0.77,162.1,7.6,-16.4,0.5,0.25,1.75,1.0,0.5,1.25,1.0,1.5,1.25,1.5,1.5,0.75,0.5,1.89,-0.11,-0.23,155.45,-5.8,-11.0
3.42,0.75,0.0,1.5,1.0,0.0,0.5,0.5,1.0,1.0,1.75,1.25,0.5,1.0,1.08,-0.42,0.77,158.91,6.6,-21.1,0.5,0.25,1.75,1.25,0.5,1.0,0.75,1.0,1.25,1.25,1.5,0.75,0.5,1.64,-0.05,-0.23,154.86,-7.8,-8.3
3.44,0.75,0.0,1.75,1.0,0.0,0.75,0.5,1.0,1.25,1.75,1.25,0.5,0.75,1.08,-0.42,0.77,157.94,7.3,-16.3,0.5,0.0,1.75,1.25,0.5,1.0,0.75,0.75,1.25,1.0,1.5,1.0,1.25,1.33,-0.05,-0.23,162.38,-7.3,-17.0
3.46,0.5,0.0,1.25,1.75,0.0,0.75,0.25,0.75,1.0,1.75,0.5,0.5,0.5,1.08,-0.42,0.77,150.17,6.3,-9.5,1.0,0.0,2.0,1.25,0.5,0.5,0.75,1.0,1.25,1.0,1.5,1.0,0.75,1.2,-0.05,-0.17,167.75,-10.6,-9.5
3.48,0.75,0.0,1.75,1.0,0.0,1.0,0.5,1.0,1.0,1.75,1.5,0.75,1.0,1.14,-0.48,0.77,154.44,6.2,-20.1,0.75,0.0,1.75,1.0,0.5,0.75,0.75,1.0,1.25,1.25,1.5,0.75,0.75,1.02,-0.11,-0.17,169.85,-8.1,-13.1
3.5,1.0,0.0,1.75,1.0,0.0,1.0,0.5,1.0,1.0,1.75,1.5,0.5,1.0,1.14,-0.42,0.83,157.72,6.8,-15.8,0.75,0.0,2.0,1.25,1.0,0.75,0.75,0.75,1.25,1.5,1.5,0.75,0.75,0.83,-0.17,-0.23,173.08,-8.4,-7.8
3.52,1.0,0.0,1.5,1.0,0.0,0.5,0.75,1.0,1.0,1.75,1.25,0.5,0.75,1.14,-0.36,0.83,158.93,8.0,-15.8,0.75,0.0,1.75,1.0,0.5,1.25,0.75,1.0,1.0,1.25,0.75,0.75,0.25,0.77,-0.17,-0.23,167.54,-7.5,-1.5
3.54,1.0,0.25,1.75,1.0,0.0,0.75,0.5,1.0,1.0,1.75,1.25,0.5,1.0,1.08,-0.3,0.77,161.84,7.4,-13.0,0.5,0.0,1.75,1.25,0.5,1.25,0.75,1.25,1.25,1.5,1.5,1.0,0.75,0.7,-0.23,-0.17,172.87,-5.8,-15.5
3.56,0.75,0.0,1.75,1.0,0.0,0.75,0.5,1.0,1.0,1.75,1.25,0.5,0.75,1.08,-0.3,0.77,159.61,7.2,-15.8,0.0,0.25,2.0,1.0,0.5,1.0,0.75,1.0,1.25,1.0,1.5,1.0,1.0,0.58,-0.3,-0.05,172.11,-6.7,-17.4
3.58,0.75,0.0,1.75,1.0,0.0,0.75,0.5,1.0,1.0,1.75,1.25,0.5,1.0,1.08,-0.3,0.7,158.6,6.7,-18.0,0.5,0.0,1.75,1.25,1.0,0.75,0.75,1.0,1.25,1.5,1.5,0.75,1.0,0.58,-0.3,0.08,177.95,-6.4,-13.8
3.6,1.0,0.0,1.75,1.0,0.0,0.5,0.5,1.0,1.0,1.75,1.5,0.5,0.75,1.02,-0.23,0.7,157.15,8.5,-15.8,0.5,0.25,1.75,1.25,1.0,1.0,0.75,1.0,1.25,1.0,1.5,1.0,1.75,0.64,-0.36,0.08,185.46,-5.7,-15.8
3.62,1.0,0.0,1.75,1.25,0.0,0.5,0.25,1.5,1.25,1.75,1.0,0.5,0.5,0.89,-0.3,0.58,159.28,7.8,-11.3,1.0,0.0,2.0,1.25,0.5,1.0,0.75,1.0,1.25,1.5,1.5,1.0,0.75,0.77,-0.48,-0.11,190.29,-8.4,-10.4
3.64,0.75,0.0,1.0,1.0,0.0,0.75,0.5,1.0,1.0,1.75,1.25,0.5,1.0,0.83,-0.3,0.58,155.01,4.3,-24.0,0.75,0.0,1.75,1.25,0.5,0.75,0.75,1.25,1.25,1.0,1.5,1.0,1.0,0.77,-0.55,-0.11,185.85,-7.9,-14.8
3.66,0.75,0.0,1.75,1.0,0.0,0.75,0.75,1.0,1.0,1.75,1.5,0.5,0.75,0.77,-0.36,0.7,156.42,7.6,-16.7,0.5,0.0,1.75,1.25,0.5,1.25,0.75,1.0,1.25,1.0,1.5,0.75,0.75,0.7,-0.61,-0.05,181.75,-7.1,-10.5
3.68,1.0,0.0,1.5,1.0,0.0,0.75,0.5,1.0,1.0,1.75,1.5,0.5,0.75,0.64,-0.36,0.7,155.75,7.1,-16.5,0.75,0.0,2.0,1.25,0.5,0.75,0.75,0.75,1.25,1.25,1.5,0.75,1.25,0.58,-0.67,0.02,179.12,-8.5,-13.6
3.7,1.0,0.0,1.75,1.0,0.0,0.5,0.5,1.0,1.0,1.75,1.25,0.5,0.75,0.58,-0.42,0.77,156.17,8.5,-14.4,0.5,0.0,1.5,1.25,1.0,1.25,0.75,1.5,1.25,1.0,1.5,1.0,1.0,0.58,-0.67,0.2,180.76,-4.7,-14.0
3.72,1.0,0.0,1.75,1.0,0.0,0.75,0.5,1.0,1.0,1.75,1.25,0.5,0.75,0.58,-0.36,0.7,155.6,7.8,-13.4,0.5,0.0,2.0,1.25,2.5,0.75,0.75,1.0,1.25,1.25,1.5,0.75,0.75,0.52,-0.67,0.39,190.07,-6.5,-1.4
3.74,0.75,0.0,1.5,1.0,0.0,1.0,0.5,1.0,1.0,1.75,1.5,0.5,0.75,0.45,-0.36,0.7,156.66,5.9,-17.9,0.5,0.0,2.0,1.25,0.25,1.0,0.75,1.25,1.25,1.0,1.5,0.75,1.0,0.45,-0.67,0.27,187.84,-7.6,-14.1
3.76,0.75,0.0,1.5,1.0,0.0,0.5,0.5,1.0,1.0,1.75,1.5,0.75,1.0,0.33,-0.36,0.7,156.94,6.8,-24.4,0.5,0.25,1.75,1.25,2.25,0.75,0.75,1.5,1.25,1.5,1.5,1.0,0.75,0.45,-0.61,0.14,198.11,-5.2,-6.1
3.78,1.0,0.0,1.0,1.0,0.0,0.75,0.5,1.0,1.0,1.25,1.25,0.0,0.5,0.27,-0.3,0.64,148.0,7.0,-8.2,0.5,0.25,1.75,1.25,0.5,1.0,0.75,1.0,1.25,1.25,2.0,0.75,1.25,0.45,-0.55,0.08,194.12,-6.6,-16.7
3.8,0.75,0.0,1.75,1.0,0.0,0.75,0.5,1.0,1.0,1.75,1.25,0.5,0.75,0.14,-0.3,0.64,148.56,7.2,-15.8,0.5,0.25,1.75,1.25,0.5,1.0,0.75,1.0,1.25,1.0,1.5,1.0,0.75,0.45,-0.55,0.14,190.16,-7.8,-11.1
3.82,0.75,0.0,1.5,1.0,0.0,0.75,0.5,1.0,1.0,1.75,1.5,0.5,0.75,0.08,-0.3,0.64,148.0,6.5,-19.0,0.5,0.0,1.75,1.25,1.5,0.25,0.75,1.0,1.25,1.0,1.75,0.75,1.0,0.45,-0.48,0.14,183.7,-8.0,-11.3
3.84,0.75,0.0,1.75,1.0,0.0,0.5,0.5,1.0,1.0,1.5,1.25,0.5,0.75,-0.05,-0.42,0.77,148.92,8.5,-15.5,1.0,0.25,2.0,1.25,0.5,0.0,0.75,0.75,1.25,1.0,1.5,0.75,0.75,0.39,-0.42,0.33,176.57,-12.7,-6.0
3.86,1.0,0.0,1.75,1.0,0.0,0.5,0.5,1.0,1.0,1.75,1.25,0.5,0.75,-0.05,-0.36,0.77,150.9,8.5,-14.4,1.0,0.25,1.75,1.25,0.5,0.5,0.75,0.75,1.25,1.0,1.5,0.75,1.0,0.45,-0.3,0.45,172.93,-10.1,-8.1
3.88,0.75,0.0,1.5,1.0,0.0,0.75,0.5,1.0,1.0,1.75,1.25,0.5,0.75,-0.23,-0.42,0.83,151.81,6.4,-17.7,0.5,0.25,2.0,1.25,0.5,0.5,0.75,0.75,1.25,1.0,1.5,0.75,1.0,0.52,-0.48,0.45,169.52,-9.8,-10.8
3.9,0.75,0.0,1.75,1.0,0.0,0.5,0.5,1.0,1.0,1.75,1.25,0.5,1.0,-0.48,-0.48,0.83,152.06,7.4,-19.2,1.0,0.0,1.75,1.25,0.5,0.0,0.75,0.75,1.0,1.25,1.75,0.75,0.75,0.58,-0.73,0.33,165.68,-11.4,-12.3
3.92,0.75,0.0,1.75,1.0,0.0,1.0,0.5,1.0,1.0,1.75,1.25,0.5,0.75,-0.86,-0.55,0.77,153.99,6.6,-14.7,0.5,0.0,1.75,1.25,1.0,0.5,0.75,0.5,1.25,1.0,1.5,0.75,0.75,0.64,-0.98,0.39,161.42,-9.5,-8.8
3.94,0.75,0.0,1.5,0.75,0.0,0.5,0.25,1.0,1.0,1.25,0.25,0.5,1.0,-1.05,-0.55,0.89,145.94,6.8,-15.0,0.75,0.25,1.75,1.25,0.5,0.5,0.75,0.5,1.0,1.0,1.5,0.75,0.5,0.52,-1.05,0.64,156.6,-11.3,-4.1
3.96,1.0,0.25,0.75,1.0,0.5,0.75,0.5,1.0,1.0,1.75,1.25,0.5,0.5,-1.05,-0.48,0.89,146.38,4.8,-11.9,0.5,0.0,1.75,1.25,1.0,1.0,0.75,0.5,1.0,1.0,1.5,0.75,0.75,0.39,-0.98,0.58,157.26,-8.1,-6.4
3.98,0.75,0.0,1.75,1.0,0.0,0.75,0.5,1.0,1.0,1.75,1.25,0.5,1.0,-0.92,-0.23,0.64,148.35,6.7,-18.0,0.5,0.25,2.0,1.25,1.0,0.5,0.75,0.5,1.0,0.75,1.5,0.75,0.75,0.33,-0.86,0.45,158.93,-10.7,-2.6
4.0,0.75,0.0,1.75,1.0,0.0,0.5,0.75,1.0,1.0,1.75,1.5,0.5,1.0,-0.86,-0.3,0.64,154.08,7.7,-19.9,1.0,0.0,1.75,1.25,0.5,0.75,0.75,0.5,1.0,1.0,1.5,0.75,0.75,0.39,-0.73,0.39,159.16,-10.5,-6.0
4.02,1.0,0.0,1.75,1.0,0.0,0.75,0.5,1.0,1.0,1.75,1.25,0.5,1.0,-0.73,-0.3,0.7,158.58,7.3,-15.6,1.25,0.0,1.75,1.25,0.5,1.25,0.75,0.75,1.25,1.0,1.5,0.75,0.75,0.39,-0.61,0.2,166.71,-9.1,-3.8
4.04,1.0,0.0,1.5,1.0,0.0,0.75,0.25,1.0,1.0,1.75,1.25,0.5,0.75,-0.61,-0.36,0.77,158.25,6.8,-15.7,0.5,0.0,2.0,1.25,1.0,1.75,0.75,1.25,1.25,0.75,1.0,0.75,0.75,0.2,-0.48,0.2,174.4,-6.0,-1.3
4.06,1.0,0.0,1.75,0.75,0.0,0.75,0.5,1.0,1.0,1.75,1.25,0.5,1.0,-0.61,-0.36,0.83,158.49,7.1,-17.4,0.5,0.0,1.75,1.25,1.0,1.25,1.0,1.0,1.25,0.75,1.75,0.75,0.5,0.14,-0.36,0.33,178.69,-7.8,-5.0
