time,left pressure 0[N/cm虏],left pressure 1[N/cm虏],left pressure 2[N/cm虏],left pressure 3[N/cm虏],left pressure 4[N/cm虏],left pressure 5[N/cm虏],left pressure 6[N/cm虏],left pressure 7[N/cm虏],left pressure 8[N/cm虏],left pressure 9[N/cm虏],left pressure 10[N/cm虏],left pressure 11[N/cm虏],left pressure 12[N/cm虏],left acceleration X[g],left acceleration Y[g],left acceleration Z[g],left total force[N],left center of pressure X[mm],left center of pressure Y[mm],right pressure 0[N/cm虏],right pressure 1[N/cm虏],right pressure 2[N/cm虏],right pressure 3[N/cm虏],right pressure 4[N/cm虏],right pressure 5[N/cm虏],right pressure 6[N/cm虏],right pressure 7[N/cm虏],right pressure 8[N/cm虏],right pressure 9[N/cm虏],right pressure 10[N/cm虏],right pressure 11[N/cm虏],right pressure 12[N/cm虏],right acceleration X[g],right acceleration Y[g],right acceleration Z[g],right total force[N],right center of pressure X[mm],right center of pressure Y[mm]
0.02,1.75,0.25,3.25,6.75,8.5,7.75,1.75,9.25,5.5,3.5,2.0,2.75,1.75,-0.11,0.14,0.95,797.11,0.2,2.2,1.0,0.0,1.75,1.25,2.25,3.0,1.5,6.5,5.5,7.5,7.25,8.0,8.0,0.08,0.2,0.95,919.57,1.0,-53.0
0.04,2.25,0.5,3.25,8.25,8.75,8.25,2.0,9.0,5.25,3.25,2.0,2.75,2.0,-0.11,0.14,0.95,841.08,0.9,5.6,0.75,0.0,1.75,0.5,2.75,3.0,1.0,6.5,5.5,7.5,6.75,8.0,8.0,0.08,0.2,0.95,956.01,1.7,-54.4
0.06,3.75,1.5,4.25,11.0,10.5,8.75,2.0,8.5,4.5,3.25,1.5,2.5,2.0,-0.11,0.14,0.95,937.12,2.7,16.0,0.75,0.0,1.75,0.25,2.75,3.25,1.0,6.5,5.5,7.25,7.25,7.75,8.0,0.08,0.2,0.95,964.48,1.7,-54.4
0.08,5.5,1.75,5.25,13.5,13.0,9.25,2.0,7.75,3.5,3.25,1.0,2.25,1.75,-0.11,0.14,0.95,1075.54,4.2,24.9,0.75,0.0,1.5,0.0,1.75,3.0,1.0,6.25,5.5,7.0,6.75,7.5,7.75,0.08,0.14,0.95,921.28,1.9,-57.8
0.1,6.5,1.75,5.25,14.5,14.5,9.5,2.0,6.75,2.75,2.75,2.0,2.0,1.75,-0.05,0.14,0.95,1221.75,4.9,28.3,0.75,0.0,1.75,0.0,2.75,3.0,1.0,6.5,5.5,6.75,6.75,7.25,7.25,0.08,0.14,0.89,877.46,1.6,-53.5
0.12,8.0,1.75,6.5,15.0,16.0,10.0,1.5,6.0,2.0,3.25,2.0,1.5,1.75,-0.11,0.2,1.08,1346.5,5.7,32.5,0.75,0.0,1.75,1.25,3.0,3.25,1.0,6.75,6.0,6.75,6.75,6.5,6.5,0.08,0.14,0.95,839.46,1.2,-47.6
0.14,9.0,1.75,7.25,13.5,17.0,9.75,0.75,5.0,2.0,3.0,1.75,1.75,1.5,-0.11,0.2,1.2,1413.36,6.4,35.0,0.75,0.0,1.75,1.25,3.0,3.75,1.0,6.75,6.25,6.0,6.25,6.25,6.0,0.08,0.14,0.95,791.93,1.1,-45.1
0.16,10.5,1.75,8.25,0.0,17.0,9.25,0.75,3.5,2.0,2.0,1.5,1.5,1.75,-0.23,0.27,1.33,1356.34,6.1,35.7,1.25,0.0,1.75,0.0,3.75,4.25,1.0,6.75,6.5,6.0,6.0,5.75,5.0,0.08,0.14,0.95,747.01,1.4,-41.7
0.18,10.0,1.75,8.75,11.5,15.0,7.25,0.75,3.5,1.75,1.75,2.0,1.25,1.25,-0.23,0.33,1.58,1328.85,9.5,40.3,0.5,0.0,2.75,1.5,4.5,5.0,1.0,7.0,6.75,5.25,5.75,5.0,4.25,0.08,0.2,0.95,713.9,0.6,-32.7
0.2,10.5,1.75,8.25,9.75,9.75,5.5,0.25,3.25,1.75,0.75,2.0,1.25,0.5,-0.42,0.52,1.83,1190.09,12.3,43.3,2.0,0.5,1.75,1.5,4.5,5.25,1.0,7.5,6.5,4.75,5.75,3.75,3.25,0.08,0.2,0.95,677.23,0.4,-25.1
0.22,9.5,1.75,6.75,8.0,7.25,4.5,1.0,1.5,1.75,2.25,0.75,1.25,0.0,-0.92,1.02,2.45,1010.88,13.1,44.5,3.0,0.75,3.5,2.75,4.75,5.25,1.0,7.5,6.75,3.5,5.25,2.5,2.75,0.08,0.2,0.95,664.55,-2.4,-11.5
0.24,8.75,0.25,5.75,5.5,6.5,3.0,1.75,1.75,1.75,2.0,1.75,1.25,0.75,-0.98,1.08,3.08,802.02,13.1,34.7,3.75,0.75,4.5,4.0,5.0,5.75,2.25,7.25,6.75,3.75,4.0,2.5,2.5,0.08,0.2,0.95,691.24,-3.8,-3.8
0.26,5.75,0.0,3.75,3.25,2.5,0.0,0.75,1.25,1.75,0.0,1.25,0.0,0.0,-0.61,0.95,3.14,527.15,20.4,45.6,4.75,0.75,4.75,5.25,6.5,6.0,3.0,6.75,6.5,3.5,3.75,2.5,2.5,0.08,0.2,0.95,748.79,-4.9,2.8
0.28,2.0,0.0,1.0,0.0,0.0,0.0,0.25,1.0,1.75,0.0,0.75,0.5,0.0,-0.61,-0.55,3.33,277.05,17.9,4.8,6.0,1.0,6.25,6.0,7.0,6.25,4.0,6.75,6.0,3.25,3.0,2.25,2.25,0.08,0.2,0.95,829.83,-6.6,10.8
0.3,0.5,0.0,1.0,0.0,0.0,0.0,0.75,1.5,1.75,0.5,0.75,0.25,0.0,-0.05,-0.61,2.2,98.74,9.9,-19.2,6.75,1.5,7.25,8.0,8.0,6.25,4.25,6.0,5.5,2.5,3.0,2.0,2.0,0.08,0.2,0.95,926.86,-8.3,18.9
0.32,0.25,0.0,1.0,0.0,0.0,0.0,0.25,0.0,1.5,0.5,0.75,0.5,0.0,-0.55,-1.23,1.52,0.0,16.1,-25.1,7.5,1.75,8.5,9.75,9.25,6.75,5.0,5.25,4.5,2.5,2.5,1.75,1.75,0.08,0.2,0.95,1036.09,-9.4,26.1
0.34,1.0,0.0,1.75,0.5,0.0,2.0,0.25,1.25,1.75,2.0,1.5,1.25,0.0,-0.55,-1.11,1.14,0.0,5.1,-16.4,7.75,1.0,9.0,9.75,10.0,6.25,5.25,4.0,3.25,0.75,1.75,1.0,0.75,0.08,0.2,0.95,1073.91,-11.5,37.1
0.36,0.25,0.0,1.75,0.0,0.0,0.0,0.75,1.25,1.25,0.75,0.5,0.75,0.0,-0.42,-0.67,0.58,0.0,12.0,-18.7,8.5,1.25,9.0,0.0,9.75,6.5,5.25,2.75,2.25,0.75,1.5,1.0,0.5,0.08,0.2,1.02,992.26,-11.4,38.7
0.38,0.25,0.0,1.0,0.0,0.0,0.0,0.75,1.5,1.25,0.5,0.5,1.25,0.0,-0.36,-0.55,0.14,0.0,8.7,-33.5,0.0,2.0,0.0,11.5,11.0,6.5,5.25,2.5,2.25,2.25,1.5,1.0,0.0,0.08,0.2,1.14,874.9,-2.3,28.7
0.4,0.0,0.0,0.75,0.25,0.0,0.0,0.25,1.0,1.25,0.5,0.5,0.75,0.0,-0.42,-0.36,0.14,0.0,7.8,-34.6,10.0,1.5,11.0,11.5,11.0,6.0,4.75,2.5,1.75,0.75,0.75,1.5,0.5,-0.05,0.27,1.08,912.94,-13.8,46.2
0.42,0.0,0.0,0.5,0.25,0.0,0.0,0.25,1.0,1.25,0.75,0.5,1.0,0.0,-0.48,-0.36,0.39,0.0,5.3,-44.6,10.0,2.5,11.5,11.5,11.0,5.75,4.25,2.0,1.75,0.75,0.75,0.75,0.5,0.02,0.33,1.2,980.7,-14.4,49.9
0.44,0.25,0.0,0.75,0.5,0.0,0.0,0.25,1.0,1.25,0.5,0.5,0.5,0.0,-0.36,-0.36,0.77,0.0,9.4,-20.8,11.5,2.5,11.5,9.75,9.75,5.25,4.5,1.0,1.5,0.75,0.25,0.75,0.5,0.14,0.45,1.2,1045.66,-16.2,53.7
0.46,0.0,0.0,0.75,0.25,0.0,0.0,0.25,1.0,1.25,0.5,0.5,0.5,0.0,-0.3,-0.3,0.95,0.0,7.8,-30.7,11.5,2.5,13.0,8.5,9.75,4.25,5.5,2.25,1.5,0.75,1.75,1.0,1.25,0.08,0.52,1.27,1089.01,-16.2,46.3
0.48,0.0,0.0,0.75,0.0,0.0,0.0,0.25,0.75,1.25,0.5,0.5,0.5,0.0,-0.23,-0.05,1.02,24.89,8.6,-35.6,12.0,2.5,11.0,7.75,7.75,3.5,6.25,2.0,1.25,0.5,1.75,0.75,1.25,0.2,0.7,1.64,1053.11,-17.3,47.7
0.5,0.0,0.0,0.75,0.0,0.0,0.0,0.25,1.0,1.25,0.5,0.5,0.5,0.0,-0.23,0.14,1.08,51.86,7.2,-35.8,9.75,1.75,9.0,6.0,6.5,3.0,6.75,2.0,1.5,0.5,1.75,1.0,1.25,0.58,1.7,2.95,936.31,-16.7,42.4
0.52,0.0,0.0,0.75,0.0,0.0,0.0,0.25,0.75,1.25,0.5,0.5,0.75,0.0,-0.23,0.27,1.27,63.16,8.6,-39.6,6.25,0.0,5.5,1.5,3.0,2.0,4.0,1.0,1.25,0.25,0.0,1.0,0.25,0.33,1.08,3.14,666.55,-18.9,44.3
0.54,0.0,0.0,0.75,0.0,0.0,0.0,0.25,1.0,1.25,0.5,0.5,0.75,0.0,-0.23,0.39,1.52,64.19,7.3,-39.6,0.75,0.0,3.25,1.25,0.5,0.5,2.0,1.75,1.5,0.5,0.0,0.25,0.0,0.33,-0.3,3.52,389.35,-15.5,20.4
0.56,0.0,0.0,0.75,0.5,0.0,0.0,0.5,1.5,1.25,0.5,1.75,0.5,0.75,-0.3,0.52,1.83,80.64,5.2,-42.2,0.0,0.0,1.75,1.0,0.25,0.5,1.0,0.0,1.25,1.5,3.75,1.0,0.0,0.02,-0.8,1.08,220.74,-11.3,-28.7
0.58,0.0,0.0,0.75,0.5,0.0,0.0,0.25,1.0,1.25,0.5,0.5,0.75,0.0,-0.42,0.83,2.27,80.78,8.3,-30.1,0.0,0.0,3.25,0.25,3.0,0.5,1.75,0.75,1.25,0.5,1.75,0.5,1.0,0.64,-0.36,1.77,124.93,-9.9,2.4
0.6,0.0,0.0,0.75,0.75,0.0,0.0,0.25,1.0,1.25,0.5,0.5,1.25,0.0,-0.48,1.83,2.83,92.29,8.7,-32.8,0.0,0.0,2.75,1.25,2.75,0.5,1.5,1.25,1.75,1.5,1.75,1.0,1.25,0.64,-0.8,2.02,94.11,-7.0,-8.9
0.62,0.0,0.0,1.0,0.25,0.0,0.0,0.25,0.5,1.25,0.5,0.5,0.75,0.0,-0.48,3.2,3.39,86.23,11.9,-29.1,0.0,0.0,2.0,1.5,0.0,0.5,1.25,1.25,1.75,1.5,1.5,1.0,1.25,0.45,-1.11,0.89,68.87,-7.5,-26.3
0.64,1.0,0.0,1.5,0.5,0.0,0.0,0.75,1.5,1.25,0.0,0.25,1.25,0.75,-0.86,4.95,2.33,100.39,12.6,-14.3,0.75,0.0,1.75,1.25,1.0,0.5,1.25,1.25,1.75,1.25,1.75,1.0,1.25,0.45,-0.8,0.83,57.55,-7.7,-16.8
0.66,0.0,0.0,0.75,0.25,0.0,0.0,0.25,1.5,1.5,0.0,0.5,1.25,1.25,0.14,6.45,-4.42,105.96,4.1,-50.9,0.5,0.0,1.75,1.25,1.5,0.5,1.0,1.0,1.75,1.25,1.75,1.0,1.25,0.27,-0.42,0.58,61.1,-7.1,-15.8
0.68,1.0,0.0,0.75,0.75,0.0,0.0,0.5,1.75,1.75,1.25,2.0,1.5,2.0,3.02,7.45,-4.36,143.21,4.7,-44.3,0.25,0.0,1.75,1.25,2.5,0.5,1.0,1.0,1.75,1.25,1.75,1.0,1.25,0.08,-0.23,0.45,82.92,-5.8,-12.2
0.7,1.0,0.0,1.75,1.0,0.0,0.75,0.25,1.5,1.75,2.5,2.0,1.75,2.0,-1.8,-1.42,1.33,183.08,4.4,-36.5,0.0,0.0,1.75,1.25,2.25,1.0,1.0,1.0,1.75,0.25,1.5,1.0,1.25,0.02,-0.17,0.7,102.69,-6.0,-8.2
0.72,0.0,0.0,0.75,0.0,0.0,0.0,0.0,1.5,2.0,4.25,0.5,4.5,1.75,-0.61,2.89,2.64,219.63,-1.1,-74.3,0.0,0.0,1.75,1.25,1.25,0.5,1.0,1.0,1.5,1.0,1.75,1.0,1.25,0.08,-0.05,0.77,129.98,-6.6,-19.8
0.74,0.0,0.0,1.75,1.0,0.0,2.0,0.75,6.0,3.5,6.0,4.25,7.25,5.75,-0.8,0.52,1.02,332.73,-1.8,-61.5,0.0,0.0,1.75,0.0,1.5,0.5,1.0,1.25,1.75,1.5,1.5,1.0,1.25,0.08,0.02,0.83,152.34,-4.0,-28.0
0.76,0.0,0.25,1.0,1.0,0.0,2.0,0.75,6.75,4.75,6.5,6.25,7.25,6.25,-0.36,0.33,0.95,481.61,-2.0,-63.1,0.0,0.0,0.25,0.0,0.25,0.5,0.75,1.0,1.25,0.25,0.0,0.5,0.0,0.14,0.08,0.83,135.6,-1.9,-23.5
0.78,0.25,0.0,1.25,1.0,0.0,2.0,0.75,7.0,5.0,6.75,6.5,7.25,6.25,-0.05,0.08,0.95,640.9,-1.7,-62.3,0.0,0.0,0.0,0.0,0.25,0.25,0.75,1.0,1.25,0.0,0.0,0.5,0.0,0.2,0.2,1.08,101.1,-2.2,-29.7
0.8,1.0,0.25,1.5,1.0,0.0,2.0,0.75,7.5,5.5,7.0,6.5,7.5,6.25,-0.11,0.14,0.95,753.85,-0.9,-58.1,0.0,0.0,0.0,0.0,0.25,0.0,0.5,1.0,1.25,0.0,0.0,0.5,0.0,0.33,0.33,1.33,56.76,-2.9,-36.4
0.82,1.0,0.0,1.0,1.0,0.0,2.0,0.75,7.5,5.5,6.75,6.5,7.5,6.75,-0.11,0.14,0.95,823.55,-1.4,-60.9,0.0,0.0,0.0,0.0,0.5,0.5,1.0,1.5,1.75,1.25,1.5,1.0,0.75,0.39,0.52,1.58,63.64,0.7,-50.1
0.84,1.0,0.25,1.0,1.0,0.0,2.0,0.75,7.5,5.5,7.25,6.75,7.5,6.75,-0.11,0.14,0.95,849.46,-1.5,-60.2,0.0,0.0,0.5,0.0,0.5,0.5,1.0,1.5,1.75,1.25,1.75,1.0,0.75,0.45,0.7,1.89,85.07,-1.5,-45.0
0.86,1.0,0.0,1.5,1.25,0.0,2.0,0.75,7.5,5.75,7.25,6.5,7.5,7.0,-0.11,0.14,0.95,862.41,-1.1,-59.2,0.0,0.0,0.75,0.25,1.0,0.5,1.0,1.75,1.75,1.5,1.25,1.0,0.75,0.58,1.2,2.39,120.09,-1.2,-34.2
0.88,1.0,0.25,2.5,1.25,0.0,2.0,1.0,7.75,6.0,7.5,7.25,7.25,6.75,-0.11,0.08,0.95,879.47,0.0,-55.3,0.0,0.0,1.5,0.0,0.5,0.5,0.75,1.5,1.5,1.25,1.5,1.0,0.75,0.52,2.27,2.83,134.75,-4.3,-34.8
0.9,1.0,0.0,1.75,1.75,0.0,2.25,1.25,8.25,6.5,7.25,7.25,7.0,6.25,-0.11,0.08,0.95,880.52,-0.4,-54.8,0.0,0.0,1.5,0.0,0.5,0.0,1.0,1.25,1.5,1.25,1.75,1.0,0.75,0.39,3.64,2.52,142.03,-6.6,-38.2
0.92,1.0,0.0,2.25,1.75,0.0,3.0,1.5,8.25,6.5,6.75,6.5,6.0,5.75,-0.11,0.08,0.95,853.16,-0.3,-49.8,0.0,0.0,1.5,0.0,1.25,0.5,1.0,1.25,1.5,1.5,1.5,1.0,0.75,0.7,4.89,1.64,148.21,-4.0,-28.2
0.94,1.25,0.0,2.5,2.0,0.75,3.5,1.5,8.75,6.75,6.0,6.5,5.25,4.75,-0.11,0.08,0.95,814.59,0.1,-42.5,0.0,0.0,1.75,1.0,1.0,0.5,1.0,1.0,1.5,1.5,1.75,1.25,0.5,-0.86,6.83,-3.36,161.2,-7.0,-21.6
0.96,2.0,0.25,3.25,3.25,2.25,4.5,1.5,8.75,7.0,5.25,5.25,4.5,3.75,-0.11,0.08,0.95,772.15,1.3,-27.3,0.0,0.0,1.75,1.0,0.5,0.5,0.75,0.75,1.5,2.25,1.75,2.5,2.5,-4.48,7.2,-3.23,190.41,-3.9,-45.9
0.98,2.0,0.25,3.25,3.5,4.75,5.25,2.0,8.75,7.0,5.25,5.25,3.0,2.75,-0.11,0.08,0.95,745.0,1.0,-17.3,0.0,0.0,1.25,1.25,1.25,0.0,1.0,1.75,1.5,3.5,0.0,3.75,3.25,1.45,-1.11,2.39,227.35,-0.1,-50.2
1.0,2.75,0.25,3.25,3.75,4.75,5.5,2.0,8.75,7.0,4.5,5.0,2.75,2.75,-0.11,0.08,0.95,748.42,1.6,-13.7,0.0,0.0,1.5,1.25,1.0,0.5,1.0,5.0,3.0,6.0,3.0,6.25,4.25,-2.42,1.58,6.89,315.25,1.0,-58.0
1.02,3.0,0.25,3.25,5.0,5.25,6.0,2.0,8.75,7.0,4.0,4.25,2.75,2.0,-0.11,0.08,0.95,766.34,2.1,-7.4,0.0,0.0,0.0,0.0,0.0,1.25,0.0,5.25,4.75,5.25,6.0,7.0,5.75,0.33,0.58,1.02,419.34,2.7,-74.0
1.04,3.75,0.25,3.25,5.5,7.0,6.25,2.0,8.25,6.5,3.5,3.75,2.75,2.0,-0.11,0.08,0.95,791.52,2.6,-1.2,0.0,0.0,0.5,0.0,1.75,2.75,0.25,5.25,5.0,6.0,6.75,7.0,6.0,-0.11,0.33,0.95,554.27,2.8,-62.0
1.06,4.75,0.5,4.5,8.25,8.75,7.0,2.0,7.25,5.0,3.25,2.0,2.5,1.75,-0.11,0.14,0.95,844.16,4.1,12.6,0.0,0.0,0.5,0.0,0.25,3.0,0.5,6.0,4.75,6.0,6.0,7.0,6.0,0.08,0.14,0.95,635.68,3.4,-65.7
1.08,5.75,1.25,4.75,9.25,9.5,7.5,1.5,6.75,4.0,3.5,0.5,2.25,1.75,-0.11,0.14,0.95,901.16,4.4,20.4,1.0,0.0,0.0,1.25,0.25,3.0,0.5,6.0,5.0,6.25,5.75,7.25,6.0,0.08,0.14,0.95,699.01,2.4,-59.9
1.1,5.75,0.25,4.0,9.25,11.0,7.75,1.5,6.0,3.0,2.5,0.0,2.25,1.75,-0.11,0.14,0.95,928.42,3.9,23.9,2.0,0.0,0.5,1.25,0.25,4.25,0.5,6.75,5.25,7.0,6.5,7.25,7.75,0.08,0.14,0.95,765.74,2.3,-55.2
1.12,7.0,1.75,4.5,12.5,12.5,8.25,2.0,5.25,2.5,3.25,2.0,2.0,1.5,-0.11,0.2,0.95,1018.7,5.5,28.1,0.0,0.0,0.5,0.0,0.25,3.25,1.0,6.5,5.0,6.5,5.75,7.25,7.0,0.08,0.14,0.95,782.69,3.8,-65.6
1.14,8.0,1.75,6.25,12.5,13.0,8.5,1.5,5.0,2.0,2.5,2.0,1.25,1.75,-0.11,0.2,1.02,1107.61,6.7,33.1,0.0,0.0,0.5,0.0,2.25,3.0,0.75,6.75,5.5,7.25,6.75,8.0,7.0,0.08,0.14,0.95,818.97,3.3,-61.1
1.16,9.0,1.75,6.25,13.0,14.0,8.75,0.0,4.0,2.0,2.5,2.0,1.25,1.25,-0.11,0.2,1.02,1198.8,7.1,36.7,0.0,0.0,0.5,0.0,0.25,2.75,1.0,7.0,5.25,7.5,7.25,7.25,8.0,0.08,0.14,0.95,823.27,3.6,-67.7
1.18,9.75,1.75,8.25,7.0,15.0,8.75,0.75,3.5,1.75,3.0,2.0,1.5,1.5,-0.11,0.2,1.02,1234.24,7.3,35.2,0.75,0.0,1.25,0.0,0.25,3.0,0.5,6.75,5.25,7.25,7.0,8.0,7.75,0.08,0.14,0.95,829.4,2.4,-63.6
1.2,11.0,2.0,8.75,0.0,13.5,8.75,0.0,3.25,1.75,2.75,2.0,1.5,1.25,-0.11,0.27,1.08,1177.13,7.4,35.1,0.75,0.0,1.75,0.0,1.25,3.0,1.0,6.75,5.5,7.25,7.25,7.75,7.5,0.08,0.14,0.89,822.24,1.6,-58.5
1.22,12.0,3.0,9.25,14.0,15.0,8.75,0.75,3.5,1.75,2.75,2.0,1.25,1.25,-0.11,0.27,1.14,1267.41,9.7,41.8,0.0,0.0,1.75,0.0,2.5,3.0,1.0,7.0,5.25,6.5,7.0,7.25,7.0,0.08,0.14,0.95,804.81,2.2,-56.0
1.24,13.0,3.25,9.75,14.5,15.0,8.25,0.5,3.25,1.75,2.25,2.0,1.5,1.25,-0.17,0.33,1.27,1348.12,10.6,43.5,0.0,0.0,1.75,1.25,2.75,3.0,1.0,7.25,6.0,6.75,7.25,7.25,6.0,0.08,0.14,0.95,787.52,1.3,-51.1
1.26,14.5,3.5,9.25,13.5,11.5,7.75,0.25,2.5,1.75,1.75,1.25,1.5,1.25,-0.3,0.39,1.39,1394.19,12.3,46.9,0.75,0.0,0.0,1.25,0.5,3.25,1.0,7.0,6.0,6.25,7.5,6.5,6.0,0.08,0.14,0.95,752.57,2.2,-57.8
1.28,15.0,3.25,10.0,11.0,10.5,6.75,0.5,1.75,1.75,1.75,1.75,1.25,1.0,-0.23,0.64,1.77,1371.14,13.7,48.0,0.75,0.0,0.0,1.25,3.0,4.0,1.0,7.5,6.0,6.0,6.75,5.75,5.5,0.08,0.14,0.95,729.74,2.9,-47.6
1.3,12.0,1.75,8.5,8.25,8.75,5.0,1.75,1.5,1.75,0.0,1.75,1.25,1.0,-0.92,1.33,2.7,1222.12,14.9,47.5,0.0,0.0,1.75,1.25,3.0,4.25,1.0,7.5,6.5,6.0,6.5,5.0,4.25,0.08,0.14,0.95,701.36,1.8,-42.2
1.32,9.75,1.75,6.75,5.5,6.75,3.5,1.75,1.5,1.75,1.75,1.5,1.0,1.0,-1.23,1.45,3.14,973.71,13.8,40.7,2.0,0.0,3.25,1.5,1.25,4.5,1.0,7.75,6.5,5.25,5.75,3.75,3.25,0.08,0.14,0.95,663.52,-1.0,-31.7
1.34,6.25,0.0,4.5,3.5,4.75,1.75,0.75,1.5,1.75,0.0,1.75,0.0,1.0,-0.61,1.08,3.27,664.48,14.5,38.4,2.0,0.25,3.5,2.0,4.5,4.5,1.75,7.75,6.5,4.75,5.0,2.75,2.75,0.08,0.14,0.95,645.92,-1.4,-18.7
1.36,2.5,0.0,1.0,0.75,0.0,0.0,0.0,0.0,1.5,0.0,0.5,1.25,0.0,-0.48,-0.73,3.14,346.13,22.9,14.4,4.25,0.75,2.0,4.0,5.25,5.25,2.25,7.75,6.5,3.75,4.0,2.5,2.5,0.08,0.14,0.95,665.12,-2.3,-6.4
1.38,1.0,0.0,2.25,0.0,0.0,0.0,0.75,1.5,1.5,0.0,1.0,0.25,0.0,-0.3,-0.17,-0.98,165.92,17.7,3.4,5.0,0.75,5.5,6.0,6.0,6.0,2.25,7.5,6.0,3.5,3.25,2.5,2.25,0.08,0.14,0.95,729.94,-5.2,5.1
1.4,1.25,0.0,0.25,0.0,0.0,0.0,0.25,0.0,1.25,0.0,0.75,0.5,0.0,-0.73,-1.17,2.02,0.0,20.4,-5.9,5.5,1.0,7.0,7.75,6.75,6.25,3.25,7.0,5.25,2.75,3.0,2.5,2.25,0.08,0.14,0.95,824.8,-7.1,12.6
1.42,1.25,0.0,1.75,0.0,0.0,1.75,0.75,1.75,1.25,0.75,1.75,0.5,0.0,-0.48,-1.05,1.2,0.0,7.3,-5.8,5.5,1.0,7.5,9.5,8.0,6.75,4.0,6.25,3.75,2.5,3.0,2.0,1.25,0.08,0.14,0.95,919.11,-7.9,21.0
1.44,0.25,0.0,1.0,0.0,0.0,0.0,0.5,1.5,1.0,1.75,1.75,1.25,0.0,-0.36,-0.67,0.52,0.0,5.0,-46.1,6.5,0.75,8.25,9.75,8.75,6.25,4.25,5.0,2.5,0.0,1.5,1.0,0.75,0.08,0.14,0.95,950.57,-10.6,36.5
1.46,1.0,0.0,1.25,1.0,0.0,1.25,0.75,1.5,1.25,1.75,1.75,1.25,0.0,-0.3,-0.61,0.39,0.0,6.2,-18.1,7.5,0.0,2.5,9.5,9.25,6.0,4.75,3.75,1.5,0.75,1.5,1.0,0.25,0.08,0.2,1.2,900.48,-8.2,37.1
1.48,1.0,0.0,2.25,1.0,0.0,1.5,0.75,1.5,1.5,1.75,1.75,1.25,0.25,-0.3,-0.42,0.33,0.0,7.8,-13.4,6.0,0.0,9.0,11.5,9.25,6.25,4.25,2.5,1.5,0.75,1.5,1.0,0.0,0.02,0.27,1.2,882.97,-12.1,41.9
1.5,0.5,0.0,2.25,1.0,0.0,1.0,0.75,1.5,1.25,1.75,2.0,1.25,0.5,-0.3,-0.23,0.45,33.3,7.5,-21.6,8.25,1.75,9.75,11.5,9.25,5.75,4.75,1.25,1.75,0.75,0.0,1.0,0.25,0.02,0.33,1.27,895.86,-14.3,50.0
1.52,1.0,0.0,2.25,1.0,0.0,0.25,0.75,1.5,1.5,1.75,1.75,1.25,0.0,-0.3,-0.17,0.64,76.04,11.1,-15.9,8.75,1.75,11.0,9.5,8.5,3.0,5.75,1.25,1.5,0.75,0.75,1.0,0.5,0.14,0.45,1.39,905.63,-17.1,48.8
1.54,0.75,0.0,2.0,1.0,0.0,0.25,0.75,1.5,1.25,1.75,1.75,1.25,0.0,-0.17,-0.11,0.83,113.37,10.0,-19.4,8.75,2.0,12.0,7.25,8.0,1.5,7.0,2.5,1.25,0.75,1.75,1.0,0.5,0.14,0.64,1.83,905.21,-18.1,45.0
1.56,0.75,0.0,2.0,1.0,0.0,0.0,0.75,1.5,1.75,1.75,1.5,1.25,0.5,-0.17,0.02,0.95,143.6,9.8,-23.8,9.75,2.75,10.5,6.0,6.25,2.75,7.5,1.75,1.75,2.0,1.75,1.0,1.25,0.7,1.27,2.77,891.11,-16.9,40.5
1.58,1.5,0.0,1.75,1.0,0.0,0.0,0.25,1.25,1.75,1.75,1.5,1.25,0.25,-0.17,0.14,1.14,167.71,11.2,-17.4,8.0,1.0,8.75,2.75,4.5,0.5,7.0,1.0,1.25,0.75,1.75,0.75,1.25,0.58,1.45,3.39,748.32,-20.5,39.9
1.6,1.0,0.0,2.0,1.0,0.0,0.25,0.75,1.5,1.75,2.0,2.0,1.25,0.75,-0.3,0.27,1.52,189.98,8.8,-25.1,6.75,0.25,7.0,1.25,0.5,0.5,4.75,0.0,1.25,0.5,0.0,0.75,0.25,-0.17,0.89,3.52,529.9,-28.0,50.7
1.62,0.75,0.0,2.25,1.0,0.0,0.75,0.75,1.5,1.75,1.75,1.25,1.25,0.75,-0.36,0.52,1.64,192.94,8.1,-19.8,2.5,0.0,4.75,1.25,0.25,0.5,2.25,0.75,1.25,0.5,0.0,0.5,0.25,0.27,-0.61,3.58,325.5,-22.7,34.2
1.64,1.0,0.0,2.0,1.0,0.0,1.0,0.75,1.5,1.75,1.75,1.25,1.25,0.5,-0.42,1.02,2.02,195.56,7.9,-16.6,0.0,0.0,1.25,0.5,0.0,0.0,1.25,0.0,1.25,0.0,0.0,0.75,0.0,1.27,-2.36,1.39,167.04,-22.6,-0.9
1.66,1.0,0.0,2.25,1.0,0.0,0.75,0.75,1.5,1.75,2.0,1.5,1.25,0.5,-0.3,1.77,2.27,193.26,8.6,-18.2,0.0,0.0,0.5,0.0,0.0,0.5,1.25,1.0,1.5,0.75,0.0,0.75,0.25,0.77,-1.55,1.7,41.04,-3.5,-34.1
1.68,1.0,0.0,1.75,1.0,0.0,0.5,0.75,1.5,1.75,1.75,1.25,1.25,0.5,-0.17,2.27,2.45,189.73,8.4,-20.1,0.0,0.0,0.75,0.0,0.0,0.0,1.0,1.0,1.25,0.25,0.0,0.5,0.25,-0.05,-0.98,1.39,0.0,-8.9,-28.5
1.7,1.0,0.0,2.0,1.0,0.0,1.0,0.75,1.5,1.75,1.75,1.75,1.25,0.5,0.08,3.14,1.83,188.76,8.0,-18.7,0.0,0.0,0.0,0.0,0.0,0.0,1.0,0.75,1.25,0.5,0.0,0.5,0.25,-0.48,0.33,-0.36,0.0,-2.9,-49.5
1.72,1.0,0.0,2.25,1.0,0.0,0.5,0.75,1.5,2.0,0.5,1.25,1.25,1.0,0.39,3.7,0.52,184.74,11.2,-15.4,0.0,0.0,0.5,0.0,0.0,0.0,1.0,1.0,1.25,0.5,0.0,0.5,0.25,-0.48,0.89,-0.61,0.0,-5.9,-36.2
1.74,1.0,0.0,2.0,1.0,0.0,1.0,0.75,1.5,1.75,1.5,1.25,1.25,1.0,0.83,3.95,-0.61,188.07,7.5,-19.1,0.0,0.0,0.0,0.0,0.0,0.5,1.0,1.0,1.25,0.25,0.0,0.5,0.25,-0.67,0.77,0.08,0.0,0.0,-37.9
1.76,1.0,0.0,2.0,1.0,0.0,1.0,0.75,1.5,1.75,1.75,1.25,1.25,1.0,2.2,4.7,-0.73,189.99,7.0,-20.1,0.0,0.0,0.5,0.0,0.0,0.5,1.0,1.0,1.25,0.5,0.0,0.25,0.25,-0.36,0.7,0.39,0.0,-2.8,-25.3
1.78,1.0,0.0,1.75,1.0,0.0,0.75,0.75,1.5,1.75,1.75,1.5,1.25,0.75,2.2,3.45,-0.23,190.81,7.4,-21.9,0.0,0.0,0.5,0.0,0.0,0.5,0.5,1.0,1.25,0.0,0.0,0.5,0.25,0.27,0.77,0.08,0.0,-3.7,-27.3
1.8,1.0,0.0,2.0,1.0,0.0,1.0,0.5,1.5,1.75,2.0,1.5,1.5,0.75,0.14,0.27,0.89,192.85,6.9,-22.4,0.0,0.0,0.5,0.0,0.0,0.5,0.75,0.75,1.25,0.25,0.0,0.5,0.0,0.95,0.77,-0.48,0.0,-5.7,-22.7
1.82,1.0,0.0,1.75,0.0,0.0,0.0,0.75,3.25,2.5,3.0,2.75,3.25,3.75,-2.36,-0.92,5.7,231.32,2.1,-56.4,0.0,0.0,0.25,0.0,0.25,0.5,0.75,1.5,1.5,0.5,0.0,0.5,0.0,2.45,1.52,-1.48,15.96,0.1,-28.1
1.84,0.0,0.25,1.75,1.0,0.0,1.25,0.25,4.25,4.5,2.5,4.25,5.5,4.0,0.89,-0.8,1.02,293.41,1.6,-56.3,0.0,0.0,0.5,0.0,0.0,0.5,0.75,0.75,1.25,0.0,0.0,0.25,0.25,2.45,2.52,0.02,40.87,-5.6,-19.5
1.86,2.0,0.25,0.25,1.0,0.0,2.0,0.75,5.0,5.5,4.5,5.0,5.0,5.25,0.14,0.02,0.95,389.89,0.0,-52.7,0.0,0.0,0.5,0.0,0.25,0.5,0.5,0.75,1.25,0.0,0.0,0.5,0.25,1.83,2.2,0.02,56.32,-4.4,-21.1
1.88,5.0,0.25,1.75,2.0,0.0,1.75,0.75,6.0,6.75,5.0,4.25,4.5,5.0,0.02,0.02,0.95,507.86,3.8,-34.4,0.0,0.0,0.5,0.0,0.25,0.5,0.5,0.75,1.25,0.0,0.0,0.25,0.25,2.14,2.08,-0.23,62.41,-4.2,-15.6
1.9,6.75,0.25,2.25,1.75,0.0,3.75,1.5,6.75,7.5,5.25,5.5,3.5,4.0,-0.05,0.02,1.02,624.27,4.5,-24.3,0.0,0.0,0.5,0.0,0.25,0.5,0.5,0.75,1.25,0.25,0.0,0.25,0.25,1.89,1.58,-0.3,62.49,-3.0,-19.1
1.92,8.25,1.75,3.25,3.0,0.0,4.5,1.5,7.0,7.75,5.0,5.5,2.75,3.75,-0.11,0.08,0.95,743.76,6.2,-11.1,0.0,0.0,0.5,0.0,0.25,0.5,0.75,0.75,1.25,0.25,0.0,0.5,0.25,1.39,1.39,0.33,64.95,-4.1,-22.8
1.94,8.75,1.75,3.25,3.5,0.0,5.5,1.5,6.75,7.0,3.5,4.5,2.5,2.25,-0.05,0.02,0.95,811.86,7.2,-1.1,0.0,0.0,0.5,0.0,0.25,0.5,0.5,0.75,1.25,0.5,0.0,0.5,0.25,0.45,1.08,0.83,68.19,-2.3,-26.8
1.96,9.5,2.75,3.25,3.75,3.5,5.5,1.5,6.0,6.0,3.0,0.0,2.0,1.75,0.14,-0.05,0.95,852.26,7.3,18.6,0.0,0.0,0.5,0.0,0.25,0.5,0.5,1.0,1.25,0.25,0.0,0.5,0.25,-0.3,1.58,0.77,70.15,-2.3,-24.9
1.98,10.0,3.25,4.25,5.5,4.75,4.5,1.25,3.75,4.0,1.25,1.75,1.5,1.0,0.95,-0.36,1.14,855.54,11.2,32.4,0.0,0.0,0.5,0.0,0.0,0.5,0.5,1.25,1.25,0.25,0.0,0.25,0.0,0.02,2.08,0.2,68.95,-2.1,-20.9
2.0,9.5,4.75,0.0,5.75,4.25,2.25,0.0,1.75,2.75,1.75,0.0,0.0,0.0,-0.3,0.33,1.77,758.3,11.7,52.4,0.0,0.0,0.5,0.0,0.0,0.5,0.25,1.0,1.25,0.25,0.0,0.5,0.0,0.45,2.02,-0.8,66.3,-2.8,-26.7
2.02,8.25,4.25,0.0,0.0,0.5,0.0,0.0,1.5,2.25,2.0,1.25,1.0,0.0,-0.23,0.2,1.7,572.49,15.3,35.1,0.0,0.0,0.5,0.0,0.25,0.0,0.5,1.0,1.25,0.0,0.0,0.75,0.25,2.77,2.27,-2.17,65.08,-6.5,-33.4
2.04,8.0,4.0,0.0,2.75,0.0,0.0,0.0,0.75,1.5,0.0,0.0,0.75,0.0,-0.11,0.2,1.58,399.43,21.4,65.2,0.0,0.0,1.75,0.0,0.5,0.5,1.0,2.25,1.25,0.0,0.0,1.0,0.0,3.45,1.7,-2.73,82.94,-7.4,-9.4
2.06,7.5,3.5,0.0,2.0,0.0,0.0,0.0,1.5,1.75,0.0,0.0,0.75,0.0,0.08,0.27,1.83,288.46,19.7,57.3,0.0,0.0,0.5,1.5,0.0,1.0,1.0,1.75,1.25,0.5,0.0,0.5,0.25,1.52,-0.61,-0.42,99.48,-2.4,-8.8
2.08,5.75,1.0,0.0,0.0,0.0,0.0,0.0,1.0,1.75,0.0,0.5,1.25,0.0,1.45,0.89,3.33,200.87,20.4,32.1,0.0,0.0,0.5,0.0,0.25,1.0,0.25,1.0,1.75,1.5,0.0,1.25,0.25,-0.23,-0.98,-0.73,115.05,1.4,-39.6
2.1,1.75,0.0,0.0,0.0,0.0,0.0,0.25,1.5,1.0,0.0,0.5,1.0,0.0,1.7,0.83,3.14,108.48,10.8,-13.7,0.0,0.0,1.75,0.0,1.25,0.5,1.0,2.0,1.5,1.5,1.5,1.0,0.75,-0.73,-2.23,2.45,142.53,-3.5,-27.0
2.12,1.0,0.0,0.0,0.0,0.0,0.0,0.0,1.0,1.25,0.0,0.5,1.25,0.0,-1.23,1.83,3.58,29.65,9.6,-34.3,0.5,0.0,2.0,0.5,0.5,0.5,1.0,1.25,1.25,1.25,1.5,1.0,1.0,-0.3,-1.55,1.64,161.9,-7.7,-22.1
2.14,0.75,0.0,0.0,0.0,0.0,0.0,0.0,1.25,1.5,0.0,0.5,1.0,0.0,-1.42,0.89,1.77,0.0,7.2,-37.2,0.0,0.0,0.5,0.0,1.0,0.5,0.25,0.75,1.25,0.75,0.5,1.0,0.25,1.33,-0.17,0.27,153.67,-1.5,-28.9
2.16,1.0,0.25,0.0,1.0,0.0,0.75,0.0,0.75,1.75,1.75,0.5,1.25,0.0,-0.67,1.39,1.33,0.0,3.9,-22.3,0.0,0.0,0.5,0.0,0.0,0.5,0.5,0.75,1.5,1.5,0.0,0.5,0.25,1.27,0.64,-1.48,134.83,0.0,-39.9
2.18,0.25,0.0,0.0,1.0,0.0,0.0,0.0,1.5,1.75,0.0,0.75,1.25,0.0,-0.73,1.64,1.02,0.0,6.3,-35.9,0.0,0.0,0.5,0.0,0.25,0.5,0.25,1.0,1.5,0.5,0.0,0.5,0.0,0.08,0.39,-1.42,109.4,-1.9,-25.0
2.2,0.25,0.0,0.0,0.0,0.0,0.0,0.75,1.5,1.5,0.0,1.25,0.5,0.0,-0.55,1.58,1.08,0.0,5.7,-43.2,0.5,0.0,1.75,1.25,1.25,1.25,1.0,1.25,1.5,1.25,1.5,1.0,0.75,-0.61,0.02,-0.48,134.16,-5.9,-10.1
2.22,0.25,0.0,0.0,0.0,0.0,0.0,0.0,0.75,1.5,0.0,0.5,0.25,0.5,0.02,1.52,1.58,0.68,3.7,-49.5,0.5,0.0,1.25,1.25,0.5,0.75,1.0,1.5,1.5,1.5,1.25,1.0,0.5,-0.55,-0.11,0.08,152.73,-5.7,-18.0
2.24,0.25,0.0,0.0,0.0,0.0,0.0,0.0,1.5,1.5,0.5,1.75,0.75,1.0,0.39,1.89,0.95,36.14,0.5,-63.1,0.5,0.0,1.5,1.25,1.0,1.0,1.0,1.25,1.5,1.25,1.5,1.0,0.75,-0.61,-0.3,0.2,180.26,-6.0,-13.7
2.26,0.25,0.0,0.0,0.0,0.0,0.0,0.0,0.75,1.5,0.5,0.5,0.5,0.0,0.52,1.7,1.02,44.61,3.9,-48.7,0.5,0.0,1.75,1.25,0.5,0.5,1.0,1.25,1.25,1.5,1.75,1.0,0.75,-0.48,-0.61,0.08,187.25,-7.7,-19.0
2.28,0.25,0.0,0.0,0.0,0.0,0.0,0.0,1.0,1.5,0.5,0.5,0.75,0.0,0.45,0.7,0.89,52.8,3.0,-51.6,0.0,0.0,1.25,1.25,1.0,0.75,1.0,1.5,1.25,1.5,1.5,1.0,1.25,-0.23,-0.61,-0.42,190.49,-3.1,-25.2
2.3,0.25,0.0,0.0,0.0,0.0,0.5,0.0,0.5,1.5,0.5,0.5,0.75,0.0,0.2,-0.11,0.02,55.6,2.4,-43.9,0.5,0.0,1.75,1.25,1.5,0.5,1.0,1.5,1.5,1.5,1.5,1.0,0.5,0.27,-0.23,-0.8,193.34,-6.8,-10.9
2.32,0.5,0.0,1.0,0.0,0.0,0.0,0.0,0.75,1.75,0.5,0.75,0.5,0.0,0.77,-1.11,0.27,69.28,12.0,-23.6,0.5,0.0,1.5,1.25,0.5,0.5,1.0,1.5,1.25,1.0,1.5,1.0,0.75,0.27,0.02,-0.86,189.29,-7.5,-17.7
2.34,0.5,0.0,1.0,0.0,0.0,0.0,0.0,0.5,1.75,0.5,0.5,1.25,0.0,1.02,-2.05,-0.67,77.37,12.9,-31.6,0.5,0.0,1.75,1.25,1.0,0.5,1.0,1.25,1.25,1.25,1.5,1.0,0.75,0.27,-0.11,-0.86,189.02,-7.6,-13.5
2.36,1.0,0.0,1.0,0.0,0.0,0.5,0.75,1.5,1.75,0.0,1.5,0.5,0.0,0.89,-3.17,-1.98,94.02,11.1,-13.6,0.5,0.0,1.25,1.25,1.0,0.75,1.0,1.25,1.25,1.0,1.5,1.0,0.75,0.39,-0.11,-0.86,186.98,-6.2,-14.5
2.38,0.5,0.0,0.75,0.0,0.0,0.0,0.0,0.5,1.0,0.0,0.0,0.5,0.0,2.83,-2.42,0.83,82.92,16.7,-5.9,0.25,0.0,1.5,1.25,1.0,0.5,1.0,1.25,1.5,1.5,1.5,1.0,0.75,0.58,-0.23,-0.86,189.15,-6.1,-18.8
2.4,0.25,0.0,0.75,0.0,0.0,0.0,0.0,1.5,1.5,0.5,1.5,0.75,0.25,3.27,-1.67,1.95,89.53,5.9,-43.6,0.25,0.0,1.25,1.25,0.5,0.5,1.0,1.5,1.25,1.0,1.25,1.0,0.75,0.52,-0.23,-0.92,178.88,-6.1,-20.7
2.42,1.0,0.0,0.75,0.0,0.0,0.25,0.25,1.5,1.75,1.75,0.5,1.25,0.0,2.77,-0.73,2.02,102.79,5.1,-31.9,0.5,0.0,1.75,1.0,0.5,1.0,1.0,1.25,1.25,1.25,0.75,1.0,0.75,0.27,-0.11,-0.92,172.3,-6.5,-12.7
2.44,1.0,0.25,1.0,0.0,0.0,0.0,0.5,1.5,1.75,1.75,1.25,0.5,1.0,0.7,0.02,0.7,126.3,5.3,-32.4,0.5,0.0,1.0,1.25,0.5,0.5,1.0,2.0,1.25,1.5,1.5,1.0,0.75,0.02,0.14,-0.92,165.21,-4.3,-24.2
2.46,1.0,0.25,1.0,0.0,0.0,0.25,0.5,0.0,1.75,1.75,0.5,1.25,0.5,0.08,-0.05,0.33,133.58,9.5,-27.8,0.5,0.0,1.75,1.25,1.5,0.5,1.0,1.75,1.5,1.25,1.25,1.0,0.75,-0.36,0.2,-0.86,175.5,-6.3,-11.0
2.48,0.25,0.0,1.5,0.0,0.0,0.0,0.0,0.25,1.5,0.5,0.5,0.5,0.0,0.08,-0.67,0.39,121.48,16.6,-15.7,0.25,0.0,1.75,1.25,0.5,0.75,1.0,1.25,1.25,1.25,1.5,1.0,0.75,-0.61,0.2,-0.8,175.65,-7.0,-18.0
2.5,0.25,0.0,0.75,0.0,0.0,0.0,0.0,0.25,1.5,0.25,0.5,0.5,0.0,-0.05,-0.98,0.39,100.38,14.4,-26.9,0.25,0.0,1.25,1.25,0.5,0.5,1.0,1.25,1.25,1.25,1.5,1.0,0.75,-0.55,0.2,-0.8,172.91,-6.2,-22.7
2.52,1.0,0.25,0.75,0.0,0.0,0.25,0.25,1.5,1.5,0.0,1.25,0.25,1.0,-0.11,-0.73,0.33,96.15,7.4,-22.0,0.0,0.0,1.5,1.25,1.0,0.5,1.0,1.25,1.25,1.5,1.5,1.0,0.75,-0.55,0.2,-0.86,170.19,-5.5,-20.7
2.54,1.0,0.25,1.25,0.0,0.0,0.25,0.5,1.5,1.75,2.0,1.25,1.25,0.75,-0.05,-0.55,0.27,117.64,5.7,-33.1,0.5,0.0,1.0,1.25,0.5,0.5,1.0,1.25,1.25,1.25,1.5,1.0,0.75,-0.42,0.2,-0.86,164.9,-6.1,-22.1
2.56,1.0,0.0,1.25,0.0,0.0,0.25,0.25,1.5,1.75,1.75,1.25,1.25,1.0,-0.17,-0.55,-0.11,141.31,5.3,-37.7,0.0,0.0,1.5,1.25,0.5,0.5,1.0,1.25,1.25,1.0,1.5,1.0,0.75,-0.48,0.08,-0.86,161.82,-6.9,-22.1
2.58,1.0,0.0,1.75,0.0,0.0,0.0,0.25,1.5,1.75,1.75,1.5,1.25,0.75,-0.42,-0.61,-0.3,160.8,7.9,-33.9,0.25,0.0,1.5,1.25,1.25,0.5,1.0,1.25,1.25,1.0,1.5,1.0,0.75,-0.55,0.08,-0.8,163.91,-6.7,-14.4
2.6,1.0,0.0,1.5,0.25,0.0,0.0,0.25,1.5,1.75,0.0,1.75,1.25,0.75,-0.61,-0.86,-0.48,162.19,11.7,-27.5,0.0,0.0,1.5,1.25,0.25,0.5,1.0,1.0,1.25,1.25,1.0,1.0,0.75,-0.55,0.2,-0.73,158.96,-7.0,-22.6
2.62,1.0,0.0,1.5,0.25,0.0,0.25,0.5,1.5,1.75,1.5,1.25,1.25,0.75,-0.67,-0.8,-0.36,165.52,7.5,-30.0,0.0,0.0,1.25,1.25,1.25,0.5,1.0,1.25,1.5,1.5,1.75,1.0,0.75,-0.55,0.2,-0.67,164.43,-4.8,-22.0
2.64,1.0,0.0,1.75,0.0,0.0,0.25,0.25,1.5,1.75,1.5,1.25,1.25,0.75,-0.73,-0.67,-0.23,161.44,7.7,-30.6,0.0,0.0,1.0,1.25,1.5,0.5,1.0,1.25,1.25,1.25,1.5,1.0,0.75,-0.42,0.2,-0.67,166.16,-4.1,-19.4
2.66,1.0,0.25,1.0,0.0,0.0,0.25,0.5,1.5,1.75,1.75,1.5,1.25,1.0,-0.86,-0.48,-0.36,166.28,5.1,-37.0,0.0,0.0,1.25,1.25,1.25,0.5,1.0,1.25,1.25,1.0,1.25,1.0,0.75,-0.36,0.2,-0.67,166.93,-5.3,-17.1
2.68,1.0,0.0,1.75,0.0,0.0,0.0,0.5,1.5,1.75,0.5,1.5,1.0,0.75,-0.92,-0.36,-0.61,162.72,11.2,-26.0,0.25,0.0,1.0,1.0,1.0,0.5,1.0,1.0,1.25,1.0,1.5,1.0,0.75,-0.3,0.02,-0.67,161.66,-5.7,-20.9
2.7,0.75,0.25,1.75,0.0,0.0,0.0,0.5,1.5,1.75,1.5,1.5,1.25,0.75,-0.8,-0.23,-0.86,166.65,8.3,-32.0,0.0,0.0,1.0,1.25,0.5,0.75,1.0,1.25,1.25,1.0,1.25,1.0,0.75,-0.36,-0.11,-0.61,156.67,-4.6,-23.6
2.72,1.0,0.0,1.0,0.0,0.0,0.25,0.25,1.5,1.75,1.75,1.25,1.25,0.75,-0.55,-0.11,-0.86,164.43,4.9,-38.4,0.25,0.0,1.0,1.25,0.5,0.5,1.0,1.0,1.25,1.5,1.5,1.0,0.75,-0.23,-0.11,-0.55,155.03,-5.5,-25.4
2.74,1.0,0.0,1.0,0.0,0.0,0.5,0.5,1.5,1.75,1.5,1.25,1.25,0.5,-0.3,0.02,-0.8,160.13,5.6,-33.3,0.0,0.0,1.25,1.25,0.5,0.5,1.0,1.25,1.25,1.0,1.5,1.0,0.75,-0.17,-0.17,-0.55,153.21,-6.1,-24.0
2.76,1.0,0.0,1.5,0.0,0.0,0.0,0.25,1.5,1.75,1.5,1.25,1.25,0.5,-0.23,0.02,-0.8,152.65,8.2,-32.4,0.0,0.0,1.25,1.25,0.5,0.5,1.0,1.25,1.25,1.0,0.75,1.0,0.75,-0.17,-0.23,-0.48,149.85,-5.8,-20.3
2.78,1.0,0.0,1.5,0.0,0.0,0.0,0.5,1.5,1.75,1.25,1.5,1.25,0.5,-0.23,-0.05,-0.8,149.32,9.1,-31.7,0.5,0.0,0.5,1.0,0.5,0.25,1.0,1.75,1.25,1.0,1.5,1.0,0.75,-0.11,-0.3,-0.42,148.78,-4.3,-28.9
2.8,1.0,0.0,1.5,0.0,0.0,0.25,0.5,1.5,1.75,1.25,1.25,1.25,0.5,-0.17,-0.11,-0.73,148.29,8.4,-29.1,0.0,0.0,1.5,1.25,0.25,0.5,1.0,1.25,1.25,1.25,1.0,1.0,0.75,0.08,-0.36,-0.48,147.68,-6.4,-22.9
2.82,1.0,0.25,1.25,0.0,0.0,0.0,0.25,1.5,1.75,1.5,1.25,1.25,1.0,-0.17,-0.17,-0.8,150.64,6.6,-35.2,0.0,0.0,0.75,1.25,0.5,0.5,0.75,1.25,1.25,1.0,1.5,1.0,0.75,0.08,-0.48,-0.36,145.52,-4.2,-28.9
2.84,1.0,0.0,1.25,0.0,0.0,0.0,0.5,1.5,1.75,1.5,1.25,1.25,0.75,-0.11,-0.36,-0.86,151.86,7.2,-35.9,0.0,0.0,0.75,1.25,0.5,0.5,1.0,1.25,1.25,1.0,1.5,1.0,0.5,-0.11,-0.42,-0.11,144.11,-5.0,-26.2
2.86,0.75,0.0,1.0,0.0,0.0,0.0,0.25,1.5,1.75,1.5,1.0,1.0,0.25,0.08,-0.36,-0.8,143.98,6.3,-35.7,0.0,0.0,0.5,1.25,0.5,0.5,0.75,1.25,1.25,1.25,1.5,1.0,0.75,-0.11,-0.23,0.2,142.68,-2.8,-32.4
2.88,1.0,0.0,1.25,0.0,0.0,0.0,0.5,1.5,1.75,1.75,1.25,1.25,0.75,0.33,-0.36,-0.55,145.62,6.7,-36.8,0.0,0.0,0.75,1.25,0.5,0.5,0.75,1.25,1.25,0.75,1.5,1.0,0.5,0.2,-0.05,0.02,140.77,-5.2,-25.6
2.9,1.0,0.0,1.5,0.0,0.0,0.25,0.5,1.5,1.75,0.0,1.25,1.25,0.75,0.45,-0.48,-0.55,140.53,11.0,-25.2,0.0,0.0,0.75,1.25,1.0,0.5,0.75,1.25,1.25,1.0,0.75,1.0,0.75,0.64,-0.11,-0.48,141.34,-3.3,-20.8
2.92,1.0,0.0,1.5,0.0,0.0,0.0,0.25,1.5,1.75,0.5,1.25,1.25,0.75,0.52,-0.55,-0.48,139.79,10.1,-29.9,0.0,0.0,0.75,1.25,0.5,0.5,0.75,1.25,1.25,1.0,0.75,1.0,0.75,1.45,-0.42,-1.11,138.88,-3.7,-25.4
2.94,1.0,0.0,1.0,0.0,0.0,0.0,0.5,1.5,1.75,0.0,1.5,1.25,1.0,0.52,-0.61,-0.55,135.01,9.6,-35.3,0.0,0.0,0.5,1.25,1.0,0.75,1.0,2.0,1.25,1.0,1.0,1.0,0.5,2.64,-0.86,-1.61,143.91,-1.4,-21.4
2.96,1.0,0.0,1.25,0.0,0.0,0.25,0.25,1.5,1.75,1.75,1.0,1.25,0.75,0.64,-0.55,-0.42,140.67,5.6,-35.1,0.0,0.0,0.75,1.25,1.25,0.75,1.0,1.25,1.25,1.0,0.75,1.0,0.75,4.2,-1.67,-2.05,147.35,-2.9,-17.1
2.98,1.0,0.25,1.5,0.0,0.0,0.0,0.25,1.5,1.75,1.75,1.0,1.25,0.5,0.77,-0.48,-0.36,143.94,7.7,-29.2,0.0,0.0,0.75,1.25,1.0,0.75,1.0,1.25,1.25,0.75,0.5,1.0,1.0,4.45,-1.61,-1.98,149.76,-2.9,-18.6
3.0,1.0,0.0,1.25,0.0,0.0,0.25,0.25,1.5,1.75,1.75,1.25,1.25,0.75,0.89,-0.36,-0.17,150.31,5.7,-36.0,0.25,0.0,0.5,1.25,0.5,0.5,1.0,1.25,1.25,0.75,0.5,1.0,0.75,3.02,-0.98,-1.67,144.47,-4.2,-21.2
3.02,1.0,0.0,1.75,0.0,0.0,0.0,0.25,1.5,1.75,1.25,1.25,1.25,0.5,1.08,-0.3,-0.05,151.09,9.5,-29.0,0.0,0.0,0.5,1.25,0.5,0.75,0.75,1.25,1.25,1.0,0.75,1.0,0.75,1.14,-0.36,-0.92,139.88,-2.1,-26.2
3.04,1.0,0.0,1.75,0.5,0.0,0.25,0.25,1.5,1.75,1.75,1.25,1.25,0.5,1.2,-0.23,0.08,156.44,8.1,-25.8,0.0,0.0,0.75,1.25,1.0,0.5,1.0,1.25,1.25,1.0,1.0,1.0,0.75,-0.17,-0.05,-0.3,140.57,-3.8,-21.5
3.06,1.0,0.0,1.0,1.0,0.0,0.25,0.25,1.5,1.75,1.75,1.25,1.25,0.5,1.2,-0.3,0.08,158.68,6.5,-27.8,0.25,0.0,1.0,1.25,1.0,0.5,1.0,1.25,1.25,1.0,0.75,1.0,0.75,-0.8,0.08,0.08,145.41,-5.2,-15.7
3.08,1.0,0.0,1.0,0.75,0.0,0.25,0.25,1.5,1.75,1.75,1.25,1.25,0.5,1.14,-0.36,0.2,161.42,6.2,-29.9,0.0,0.0,0.75,1.25,0.5,0.5,1.0,1.25,1.25,1.5,0.5,1.0,0.75,-0.73,0.02,0.14,146.18,-2.9,-26.0
3.1,1.0,0.0,1.25,0.75,0.0,0.25,0.25,1.5,1.75,1.75,1.0,1.25,0.5,1.14,-0.42,0.45,161.85,6.9,-26.7,0.0,0.0,0.5,1.0,1.0,1.25,1.0,1.5,1.25,1.25,0.75,1.0,0.75,-0.36,0.02,-0.05,150.41,0.1,-22.2
3.12,1.0,0.0,1.0,0.75,0.0,0.25,0.5,1.5,1.75,1.75,1.0,0.5,1.0,1.14,-0.61,0.52,159.06,5.3,-26.5,0.0,0.0,1.0,1.25,0.25,0.5,0.75,1.25,1.25,1.0,0.75,1.0,0.75,-0.17,0.14,-0.11,146.06,-4.9,-25.4
3.14,1.0,0.0,0.75,1.0,0.0,0.5,0.25,1.5,1.75,1.75,1.25,1.25,0.25,1.2,-0.73,0.39,158.85,5.6,-26.7,0.25,0.0,0.5,1.25,1.0,0.5,1.0,1.25,1.25,1.0,0.75,1.0,0.75,-0.17,0.27,-0.36,145.59,-3.5,-19.6
3.16,1.0,0.0,1.25,0.75,0.0,0.5,0.5,1.5,1.75,1.75,1.0,1.25,0.5,1.33,-0.73,0.33,159.67,6.5,-24.9,0.0,0.0,0.5,1.25,0.5,0.5,1.0,1.5,1.25,1.0,0.75,1.0,0.75,-0.05,0.2,-0.55,141.35,-2.6,-27.4
3.18,0.75,0.0,2.0,0.25,0.0,0.0,0.25,1.5,1.75,1.0,1.25,1.25,1.0,1.45,-0.73,0.39,159.02,9.3,-30.3,0.0,0.0,0.5,1.25,0.5,0.75,0.75,1.25,1.25,1.0,0.75,1.0,0.75,0.39,-0.05,-0.86,138.75,-2.1,-26.2
3.2,1.0,0.0,1.25,0.75,0.0,0.0,0.25,1.5,1.75,1.75,1.25,1.25,0.75,1.33,-0.67,0.39,159.77,7.1,-30.9,0.25,0.0,0.75,1.25,1.5,1.0,0.75,1.25,1.25,0.75,1.25,1.0,0.75,1.08,-0.42,-1.17,147.15,-3.3,-13.6
3.22,1.0,0.0,1.5,0.75,0.0,0.0,0.25,1.5,1.75,1.75,1.25,1.25,0.5,1.08,-0.55,0.33,160.25,8.3,-27.1,0.0,0.0,0.5,1.25,1.0,0.5,0.75,1.25,1.25,1.0,0.75,1.0,0.75,1.52,-0.92,-1.23,147.68,-2.4,-23.0
3.24,1.0,0.0,1.75,0.75,0.0,0.25,0.25,1.5,1.75,1.75,1.25,1.25,0.5,0.95,-0.42,0.27,163.19,8.3,-23.9,0.0,0.0,0.75,1.25,1.0,0.5,0.75,1.25,1.25,1.25,1.25,1.0,0.75,1.64,-1.55,-0.92,152.33,-3.2,-24.5
3.26,1.0,0.0,1.5,1.0,0.0,0.0,0.25,1.5,1.75,1.75,1.25,1.25,0.5,0.89,-0.36,0.27,164.32,8.5,-25.1,0.0,0.0,0.75,0.5,0.5,0.75,1.0,1.5,1.25,1.0,1.25,1.0,0.75,1.45,-1.61,-0.48,148.18,-2.1,-32.8
3.28,1.0,0.0,1.0,0.25,0.0,0.5,0.5,1.5,1.75,1.75,1.5,1.25,0.75,0.95,-0.36,0.33,165.05,5.1,-34.7,0.0,0.0,1.75,1.25,1.0,0.5,1.0,1.0,1.25,1.0,1.5,1.0,0.75,0.64,-1.05,-0.42,154.91,-7.6,-16.1
3.3,1.0,0.0,1.25,0.25,0.0,0.0,0.25,1.5,1.75,1.5,1.0,1.25,0.5,1.08,-0.36,0.45,159.0,7.6,-31.4,0.0,0.0,0.75,1.25,0.5,0.75,0.75,1.25,1.25,1.0,1.75,1.0,0.5,0.14,-0.55,-0.23,153.18,-4.2,-26.6
3.32,0.75,0.0,1.5,0.75,0.0,0.0,0.5,1.5,1.75,1.5,1.5,1.25,0.5,1.08,-0.42,0.45,158.01,8.6,-29.0,0.0,0.0,0.5,1.25,1.0,0.75,0.75,1.25,1.25,0.75,1.5,1.0,0.75,0.14,-0.3,-0.23,155.11,-2.8,-24.1
3.34,0.5,0.0,2.0,0.75,0.0,0.25,0.0,1.5,1.75,1.25,1.25,1.25,0.5,1.02,-0.48,0.52,155.74,8.7,-25.3,0.0,0.0,0.5,1.25,1.0,1.0,1.0,1.25,1.25,0.75,1.25,1.0,0.75,0.2,-0.23,-0.42,153.69,-2.4,-21.0
3.36,1.0,0.0,1.25,1.0,0.0,0.0,0.25,1.5,1.75,1.25,1.25,1.25,0.5,0.89,-0.48,0.45,155.39,8.9,-24.9,0.0,0.0,0.75,1.25,1.0,0.75,0.75,1.25,1.25,1.25,1.25,1.0,1.0,0.39,-0.61,-0.42,156.99,-2.3,-25.3
3.38,1.0,0.0,1.0,1.0,0.0,0.25,0.25,1.5,1.75,1.25,1.25,1.25,0.75,0.77,-0.48,0.39,155.04,7.0,-27.6,0.0,0.0,1.0,1.25,1.0,0.75,1.0,1.25,1.25,1.0,0.75,1.0,0.75,0.52,-1.05,-0.17,156.31,-3.9,-17.1
3.4,1.0,0.0,1.0,0.75,0.0,0.0,0.25,1.5,1.75,1.25,0.75,1.25,0.75,0.7,-0.55,0.52,151.32,7.3,-28.9,0.0,0.0,0.5,1.25,0.5,0.5,0.75,1.25,1.25,1.0,1.25,1.0,0.75,0.45,-1.17,-0.11,152.19,-3.1,-30.2
3.42,0.75,0.0,1.25,0.25,0.0,0.0,0.25,1.5,1.75,0.75,1.0,1.25,0.75,0.7,-0.61,0.52,144.69,8.2,-33.2,0.0,0.0,0.75,1.0,0.5,0.75,0.75,1.5,1.25,1.25,0.5,1.0,0.75,0.45,-1.11,-0.17,146.35,-1.5,-26.6
3.44,1.0,0.0,1.25,0.0,0.0,0.0,0.5,1.5,1.75,1.25,1.25,1.25,0.75,0.64,-0.55,0.45,142.11,7.8,-34.9,0.0,0.0,0.75,1.25,0.5,0.75,0.75,1.25,1.25,1.0,0.75,1.0,0.75,0.39,-0.98,-0.17,140.55,-3.0,-23.9
3.46,1.0,0.0,1.5,0.0,0.0,0.0,0.5,1.5,1.75,1.5,1.25,1.25,0.5,0.45,-0.55,0.33,142.7,8.5,-31.7,0.0,0.0,0.5,1.25,1.0,0.75,0.75,1.25,1.25,1.0,1.0,1.0,0.5,0.45,-0.92,-0.3,140.6,-2.4,-20.7
3.48,1.0,0.0,1.0,0.0,0.0,0.0,0.25,1.5,1.75,1.75,1.0,1.25,0.75,0.27,-0.48,0.33,144.0,5.5,-39.2,0.0,0.0,0.5,1.0,0.5,1.0,0.75,1.25,1.25,0.75,1.0,1.0,0.5,0.45,-0.92,-0.3,136.24,-2.2,-24.7
3.5,0.5,0.0,1.25,0.0,0.0,0.25,0.25,1.5,1.75,0.75,1.0,1.25,0.5,0.14,-0.48,0.27,139.43,7.1,-35.4,0.25,0.0,0.5,1.25,0.5,0.75,1.0,1.25,1.25,1.0,1.25,1.0,0.5,0.39,-0.86,-0.17,138.0,-4.0,-22.9
3.52,1.0,0.0,1.5,0.0,0.0,0.25,0.25,1.5,1.75,1.75,1.0,1.25,0.5,0.02,-0.61,0.33,142.15,6.9,-30.9,0.0,0.0,0.5,1.25,0.5,1.25,0.75,1.25,1.25,1.0,1.0,1.0,0.75,0.2,-0.92,-0.11,138.59,-1.1,-24.6
3.54,1.0,0.0,1.5,0.0,0.0,0.25,0.25,1.5,1.75,1.75,1.0,1.25,1.0,0.14,-1.05,0.52,146.99,5.9,-34.6,0.0,0.0,1.0,1.25,1.0,0.75,0.75,1.25,1.25,0.75,1.25,1.0,0.75,0.02,-0.86,-0.05,145.29,-4.3,-18.8
3.56,1.0,0.0,1.0,0.0,0.0,0.0,0.5,1.5,1.75,1.75,1.0,1.25,1.0,0.14,-1.42,0.7,150.56,5.3,-40.2,0.0,0.0,0.5,1.25,1.0,0.5,0.75,1.25,1.25,1.0,1.5,1.0,0.75,0.08,-0.73,-0.05,147.71,-3.0,-26.6
3.58,1.0,0.0,1.0,0.0,0.0,0.0,0.25,1.5,1.75,1.25,1.25,1.25,1.0,0.14,-1.8,1.27,151.78,6.1,-40.1,0.0,0.0,0.75,1.0,0.5,1.25,0.75,1.75,1.25,1.0,1.0,1.0,0.75,0.2,-0.67,-0.36,150.81,-0.8,-25.2
3.6,1.0,0.0,1.25,0.0,0.0,0.0,0.5,1.5,1.75,1.5,1.25,1.25,0.75,0.27,-2.11,1.45,152.74,7.2,-35.9,0.0,0.0,1.5,1.25,0.5,1.0,0.75,1.25,1.25,1.0,1.25,1.0,0.75,0.39,-0.67,-0.3,154.81,-5.3,-19.1
3.62,1.0,0.0,1.5,0.25,0.0,0.0,0.25,1.5,1.75,1.75,1.25,1.25,1.0,0.27,-2.17,1.45,156.38,6.9,-34.8,0.0,0.0,0.75,1.25,0.5,0.75,0.75,1.25,1.25,1.0,1.0,1.0,0.75,0.27,-0.61,-0.3,152.93,-3.2,-25.2
3.64,1.0,0.0,1.75,0.25,0.0,0.0,0.25,1.5,1.75,1.5,1.25,1.25,1.0,0.08,-1.67,1.39,160.09,8.1,-31.7,0.0,0.0,0.75,1.25,1.0,0.75,0.75,1.0,1.25,1.0,1.0,1.0,0.5,0.14,-0.55,-0.17,151.5,-3.8,-18.1
3.66,0.25,0.0,1.75,0.25,0.0,0.0,0.25,1.5,1.75,1.25,1.25,1.25,0.75,-0.17,-1.11,0.52,158.8,7.4,-37.6,0.0,0.0,0.5,1.25,1.0,0.75,0.75,1.25,1.25,1.0,1.0,1.0,0.75,0.08,-0.61,-0.11,149.17,-2.0,-22.9
3.68,1.0,0.0,1.25,0.0,0.0,0.0,0.25,1.5,1.75,1.25,1.0,1.25,1.0,-0.3,-0.67,0.33,155.03,6.9,-36.6,0.0,0.0,0.75,1.25,0.5,0.5,0.5,1.25,1.25,1.0,0.75,1.0,0.75,0.02,-0.92,0.02,144.02,-3.3,-26.0
3.7,1.0,0.0,1.25,0.0,0.0,0.0,0.25,1.5,1.75,1.75,1.25,1.25,0.75,-0.23,-0.36,0.02,153.55,6.4,-37.6,0.0,0.0,0.5,1.25,0.5,0.5,0.75,1.25,1.0,1.0,0.75,0.75,0.75,0.08,-0.86,0.08,136.36,-2.3,-25.1
3.72,1.0,0.0,1.25,0.25,0.0,0.0,0.25,1.5,1.75,1.5,1.25,1.25,1.0,-0.23,-0.05,-0.05,154.36,6.7,-36.1,0.0,0.0,0.5,1.25,1.0,0.75,0.5,1.25,1.0,1.0,0.75,1.0,1.0,0.27,-0.98,0.14,135.91,-0.7,-24.1
3.74,1.0,0.0,1.25,1.0,0.0,0.0,0.25,1.5,1.75,0.0,1.0,1.25,0.75,-0.11,-0.11,0.02,150.03,11.5,-19.3,0.0,0.0,0.5,1.25,0.5,0.5,0.5,2.0,1.0,1.25,1.25,0.75,0.75,0.14,-1.11,0.08,136.81,-0.5,-30.4
3.76,0.75,0.0,1.5,0.75,0.0,0.0,0.25,1.5,1.75,1.0,1.25,1.25,1.0,-0.05,-0.36,0.27,150.35,8.4,-30.3,0.0,0.0,0.75,1.25,0.5,0.75,0.5,1.25,1.0,1.0,0.75,0.75,0.5,0.02,-1.3,0.33,134.11,-2.7,-19.3
3.78,1.0,0.0,1.5,1.0,0.0,0.0,0.25,1.5,1.75,1.25,1.0,1.25,0.75,-0.11,-0.73,0.39,151.85,9.0,-23.7,0.0,0.0,0.5,1.25,0.5,0.5,0.75,1.0,1.0,1.25,0.5,0.75,0.75,0.02,-1.11,0.33,129.13,-2.1,-24.8
3.8,1.0,0.0,1.75,0.75,0.0,0.25,0.25,1.5,1.75,1.0,1.0,1.25,0.5,-0.42,-1.05,0.52,154.37,10.0,-19.2,0.0,0.0,0.75,1.25,1.0,0.5,0.5,1.25,1.0,1.0,0.75,0.75,0.75,-0.05,-0.98,0.2,129.27,-2.5,-18.6
3.82,1.0,0.0,1.25,0.5,0.0,0.25,0.25,1.0,1.75,0.0,1.25,1.25,0.75,-0.48,-1.3,0.95,147.08,11.8,-22.8,0.0,0.0,0.5,1.25,0.5,0.5,0.75,1.25,1.0,1.0,1.0,0.75,0.75,-0.23,-0.86,0.27,127.09,-2.5,-26.5
3.84,1.0,0.0,1.5,0.25,0.0,0.0,0.25,1.5,1.75,1.0,1.25,1.25,0.75,-0.42,-1.3,0.95,145.58,9.1,-29.9,0.0,0.0,0.75,1.25,0.25,0.5,0.5,1.25,1.0,1.0,1.0,0.75,0.75,-0.17,-0.8,0.08,126.35,-3.4,-27.3
3.86,1.0,0.0,1.5,0.0,0.0,0.0,0.25,1.5,1.75,0.5,1.25,1.25,0.75,-0.48,-1.17,0.83,139.84,10.1,-29.9,0.0,0.0,0.5,1.25,0.5,0.5,0.5,1.25,1.0,1.0,0.0,1.0,0.75,-0.3,-0.92,0.2,123.34,-1.3,-24.0
3.88,1.0,0.0,1.25,0.0,0.0,0.25,0.25,1.5,1.75,0.0,1.25,1.25,0.75,-0.48,-0.86,0.7,135.66,9.9,-28.3,0.0,0.0,0.75,1.25,0.5,0.5,0.5,1.0,1.0,0.75,1.0,0.75,0.75,-0.17,-0.98,0.27,122.25,-4.3,-22.8
3.9,1.0,0.0,1.5,0.25,0.0,0.0,0.25,1.5,1.75,0.75,0.75,1.25,0.75,-0.36,-0.61,0.45,134.22,9.6,-26.4,0.0,0.0,1.25,1.0,1.0,1.0,0.25,1.5,1.0,1.0,1.0,0.75,0.75,-0.11,-0.86,0.2,130.82,-2.2,-16.6
3.92,1.0,0.0,1.25,0.25,0.0,0.0,0.25,1.5,1.75,0.0,0.75,1.25,0.5,-0.3,-0.48,0.39,128.23,11.8,-22.1,0.0,0.0,0.5,1.25,1.0,0.5,0.5,1.25,1.0,1.0,1.0,0.75,0.75,-0.36,-0.48,0.39,135.32,-1.8,-22.3
3.94,0.0,0.0,1.0,0.0,0.0,0.0,0.25,1.25,1.0,0.0,0.0,0.25,0.0,-0.36,-0.61,0.39,100.62,10.0,-13.1,0.0,0.0,0.5,1.25,0.5,0.5,0.5,1.25,1.0,1.0,1.25,0.75,0.5,-0.42,-0.3,0.14,135.71,-2.8,-26.1
3.96,1.0,0.0,0.75,0.25,0.0,0.25,0.0,0.0,1.75,0.0,0.0,1.25,0.0,-0.36,-0.73,0.52,82.86,18.0,-8.0,0.0,0.0,0.5,1.25,1.0,0.5,0.5,1.25,1.0,1.0,1.25,1.0,0.75,-0.36,-0.3,0.14,137.09,-2.2,-25.8
3.98,0.0,0.0,0.75,0.0,0.0,0.0,0.0,0.25,1.75,0.75,0.0,0.25,0.0,-0.48,-0.86,0.64,61.26,9.8,-30.2,0.0,0.0,0.5,1.25,0.5,0.75,0.5,1.0,1.0,1.0,1.0,0.75,0.75,-0.48,-0.48,-0.17,134.43,-2.0,-25.3
4.0,1.0,0.0,1.75,0.0,0.0,0.25,0.5,1.5,1.75,0.5,1.0,1.25,0.5,-0.55,-0.92,0.58,78.97,11.0,-22.0,0.0,0.0,0.5,1.25,0.25,0.5,0.75,1.25,1.0,1.0,0.75,0.75,0.75,-0.23,-0.67,0.33,130.68,-2.5,-27.8
4.02,1.0,0.0,1.0,0.0,0.0,0.25,0.25,1.5,1.75,1.0,0.75,1.25,0.5,-0.42,-0.92,0.58,95.83,6.9,-31.3,0.0,0.0,0.5,1.25,0.25,0.5,0.5,1.0,1.0,1.0,1.0,0.75,0.75,-0.05,-0.86,0.83,125.94,-2.9,-29.7
4.04,0.0,0.0,0.75,0.0,0.0,0.0,0.0,0.0,1.0,0.0,0.0,0.0,0.0,-0.36,-0.86,0.58,82.05,23.6,5.1,0.0,0.0,0.5,1.25,0.5,0.75,0.5,1.0,1.0,1.0,1.0,0.75,0.75,-0.11,-0.86,1.14,124.94,-2.0,-25.3
