time,left pressure 0[N/cm虏],left pressure 1[N/cm虏],left pressure 2[N/cm虏],left pressure 3[N/cm虏],left pressure 4[N/cm虏],left pressure 5[N/cm虏],left pressure 6[N/cm虏],left pressure 7[N/cm虏],left pressure 8[N/cm虏],left pressure 9[N/cm虏],left pressure 10[N/cm虏],left pressure 11[N/cm虏],left pressure 12[N/cm虏],left acceleration X[g],left acceleration Y[g],left acceleration Z[g],left total force[N],left center of pressure X[mm],left center of pressure Y[mm],right pressure 0[N/cm虏],right pressure 1[N/cm虏],right pressure 2[N/cm虏],right pressure 3[N/cm虏],right pressure 4[N/cm虏],right pressure 5[N/cm虏],right pressure 6[N/cm虏],right pressure 7[N/cm虏],right pressure 8[N/cm虏],right pressure 9[N/cm虏],right pressure 10[N/cm虏],right pressure 11[N/cm虏],right pressure 12[N/cm虏],right acceleration X[g],right acceleration Y[g],right acceleration Z[g],right total force[N],right center of pressure X[mm],right center of pressure Y[mm]
0.02,0.5,0.0,0.0,1.25,2.25,3.0,2.25,4.0,2.0,3.0,3.0,3.0,2.25,-0.05,0.02,0.95,338.47,-2.5,-34.2,0.75,0.0,1.75,0.5,0.5,1.0,1.75,2.0,1.75,4.75,4.0,4.0,4.5,0.02,0.08,0.95,386.11,-1.2,-54.9
0.04,0.75,0.0,0.0,1.5,1.75,4.0,2.5,5.0,2.5,3.0,2.75,3.5,3.0,-0.05,0.02,0.95,368.53,-2.9,-34.8,0.5,0.0,1.75,0.5,1.0,1.0,2.25,1.5,1.75,3.5,3.5,2.75,3.75,0.02,0.08,0.95,334.35,-2.3,-46.7
0.06,1.5,1.0,0.25,3.0,0.0,4.0,2.5,5.0,3.25,5.75,5.0,5.5,5.25,-0.05,0.02,0.95,440.59,-0.7,-42.3,0.5,0.0,1.75,0.5,0.25,1.0,1.75,1.25,1.75,3.25,2.5,2.5,2.5,0.02,0.08,0.95,279.08,-3.2,-45.3
0.08,1.5,1.0,1.0,2.75,0.0,4.0,3.0,5.5,3.5,5.5,6.0,5.75,5.5,-0.05,-0.05,0.95,532.58,0.2,-41.9,0.75,0.0,1.75,0.5,1.0,1.0,1.5,1.25,1.25,3.0,2.5,1.75,1.75,0.02,0.08,0.95,236.21,-3.7,-33.0
0.1,1.5,0.5,0.25,3.0,0.0,4.75,2.5,5.0,3.75,6.75,5.75,6.75,6.5,-0.05,-0.05,0.95,631.8,-1.3,-47.7,0.5,0.0,1.75,0.75,1.5,0.5,1.5,1.5,1.25,2.75,1.75,1.25,1.5,0.02,0.08,0.95,198.01,-3.7,-26.2
0.12,1.75,0.75,1.0,2.5,0.0,4.0,3.75,5.75,4.0,7.25,7.25,7.25,6.5,-0.05,-0.05,0.95,734.83,0.1,-47.5,2.0,0.75,0.75,2.0,0.5,2.25,1.5,1.25,1.25,3.5,1.5,2.0,1.25,0.02,0.08,0.95,192.51,-3.4,-14.2
0.14,1.25,0.75,0.25,2.75,0.0,5.0,4.0,5.75,4.25,7.0,6.5,7.0,7.25,-0.05,-0.05,0.95,804.56,-1.2,-48.3,0.5,0.25,0.75,0.5,0.5,2.0,1.0,1.25,1.0,1.5,1.5,1.0,1.25,0.02,0.08,0.95,165.37,-0.2,-24.3
0.16,1.75,0.75,2.0,1.75,2.25,4.0,3.25,5.25,4.25,8.0,7.25,7.75,7.0,-0.05,-0.05,0.95,865.67,0.2,-44.0,0.25,0.0,0.5,0.5,0.25,0.0,0.5,1.0,0.5,1.5,0.75,0.75,1.25,0.02,0.08,0.95,127.46,-0.8,-45.3
0.18,1.5,1.0,0.25,3.5,2.5,4.5,3.5,5.25,4.25,8.25,8.0,8.25,7.5,-0.05,-0.05,0.95,917.96,-0.5,-44.3,0.0,0.0,0.0,0.5,0.25,0.0,0.5,1.0,0.5,1.5,0.25,0.75,1.25,0.02,0.14,0.95,82.43,4.2,-57.0
0.2,1.5,1.0,0.75,2.0,2.5,4.0,3.5,5.75,4.0,8.5,8.5,7.5,7.75,-0.05,-0.05,0.95,951.48,-0.9,-46.7,0.0,0.25,0.0,0.5,0.25,0.0,0.5,1.0,0.5,1.5,0.25,0.5,1.0,0.02,0.33,0.89,51.7,3.6,-45.9
0.22,1.25,0.5,1.0,1.5,2.5,4.0,3.5,5.75,4.25,7.75,7.5,8.25,7.0,-0.05,-0.05,0.95,939.59,-0.7,-48.3,0.0,0.0,0.0,0.5,0.25,0.0,0.25,1.0,0.5,1.5,0.25,0.5,1.0,-0.23,0.95,1.08,36.31,5.1,-54.0
0.24,1.25,0.0,0.25,1.5,1.25,3.0,3.25,5.75,3.75,8.75,7.5,8.25,7.75,-0.05,-0.05,0.95,910.13,-1.7,-57.7,0.0,0.0,0.0,0.5,0.25,0.0,0.5,0.0,0.5,1.5,0.25,0.75,0.75,-0.42,1.2,0.95,31.62,0.6,-55.1
0.26,1.25,1.0,0.75,2.0,2.5,4.0,3.25,5.75,3.75,9.0,8.25,7.75,8.25,-0.05,-0.05,0.95,912.66,-1.4,-48.5,0.0,0.0,0.0,0.5,0.25,0.0,0.5,0.0,0.5,1.25,0.0,0.5,0.75,-0.61,1.27,1.08,30.45,0.9,-49.3
0.28,1.75,0.75,1.0,1.5,3.0,4.0,3.25,5.75,3.75,8.5,9.0,8.0,9.0,-0.05,-0.05,0.95,916.02,-1.0,-48.7,0.0,0.0,0.0,0.5,0.25,0.0,0.25,0.25,0.5,1.25,0.25,0.5,0.75,-0.42,1.33,0.83,31.16,2.1,-52.2
0.3,1.75,0.25,0.25,1.5,2.5,4.0,3.25,5.75,3.5,8.25,8.25,8.25,8.25,-0.05,-0.05,0.95,901.37,-1.6,-51.7,0.0,0.0,0.0,0.5,0.25,0.0,0.5,0.5,0.5,0.75,0.25,0.25,0.75,-0.3,1.2,0.77,31.05,1.0,-42.6
0.32,2.25,1.0,0.25,1.75,2.5,4.0,3.25,5.75,3.5,8.5,8.25,8.25,8.25,-0.05,-0.05,0.95,899.84,-1.1,-47.9,0.0,0.0,0.0,0.5,0.25,0.0,0.25,0.25,0.5,1.0,0.25,0.5,0.5,-0.11,1.02,0.89,32.3,0.5,-46.9
0.34,0.75,0.25,0.5,1.5,3.5,4.0,3.75,6.5,3.25,8.5,9.0,8.25,8.25,-0.05,0.02,0.95,896.24,-2.1,-51.5,0.0,0.0,0.0,0.5,0.5,0.0,0.25,0.0,0.5,0.75,0.25,0.5,0.75,-0.11,0.77,0.95,34.83,-0.4,-42.4
0.36,0.75,1.0,0.25,1.25,2.5,3.75,3.25,5.75,3.0,8.5,8.5,8.25,8.5,-0.05,-0.05,0.95,877.16,-2.2,-53.7,0.0,0.0,0.0,0.5,0.25,0.0,0.25,0.75,0.5,0.5,0.25,0.25,0.5,-0.11,0.64,0.77,37.21,1.2,-37.7
0.38,1.5,0.25,0.25,1.5,2.5,3.5,2.75,5.75,2.75,8.5,8.75,8.25,9.5,-0.05,0.02,0.95,869.06,-2.2,-55.3,0.0,0.0,0.0,0.5,0.25,0.0,0.25,0.5,0.5,0.25,0.25,0.5,0.75,-0.23,0.52,0.83,46.23,-0.5,-45.0
0.4,0.75,0.0,0.0,1.5,2.5,3.0,2.5,5.75,2.75,8.5,8.75,8.25,9.0,-0.05,0.02,0.95,848.49,-2.7,-59.2,0.0,0.0,0.0,0.5,0.25,0.0,0.25,0.0,0.5,0.75,0.25,0.25,0.5,-0.23,0.27,0.83,47.49,-1.2,-40.4
0.42,0.75,0.0,0.0,1.25,2.25,3.25,2.5,5.75,2.5,8.75,8.5,8.25,9.25,-0.05,0.02,0.95,834.02,-3.1,-60.3,0.0,0.0,0.0,0.0,0.5,0.0,0.0,0.75,0.5,0.0,0.0,0.25,0.5,-0.17,0.14,0.89,43.16,5.1,-39.0
0.44,0.0,0.0,0.0,1.25,2.5,3.0,1.75,5.75,2.0,8.5,8.25,8.25,9.0,-0.05,0.02,0.95,808.55,-4.0,-62.8,0.0,0.0,0.0,0.5,0.25,0.0,0.25,0.25,0.5,0.5,0.25,0.25,0.75,0.02,0.02,0.7,43.57,0.0,-42.9
0.46,0.0,0.0,0.0,1.0,1.75,3.5,1.75,5.75,2.0,8.5,8.0,8.25,9.0,-0.05,0.02,0.95,786.81,-4.3,-64.5,0.0,0.0,0.0,0.5,0.25,0.0,0.0,0.5,0.5,0.25,0.25,0.25,0.5,0.08,-0.05,0.64,43.13,0.1,-37.1
0.48,0.0,0.0,0.0,0.0,1.75,3.0,1.25,5.75,2.0,9.0,7.5,7.75,9.0,-0.05,0.02,0.95,752.15,-5.3,-68.3,0.0,0.0,0.0,0.5,0.25,0.0,0.0,0.0,0.5,0.5,0.25,0.25,0.5,0.08,-0.11,0.39,43.32,-1.4,-40.2
0.5,0.0,0.0,0.0,0.0,1.75,2.75,1.25,5.75,1.25,9.25,7.25,7.5,8.75,-0.11,0.02,0.95,715.25,-5.6,-68.8,0.0,0.0,0.0,1.0,0.25,1.25,0.25,1.25,0.5,2.0,1.5,1.0,0.75,0.33,-1.55,0.27,78.49,4.0,-41.9
0.52,0.0,0.0,0.0,0.0,0.5,0.25,0.0,5.75,1.0,8.5,6.5,6.75,8.25,-0.11,0.02,0.95,647.68,-5.7,-80.1,2.5,0.75,1.75,2.75,2.5,0.0,1.0,1.25,0.75,0.75,1.25,1.0,1.25,0.7,-1.98,0.58,150.12,-11.2,15.7
0.54,0.0,0.0,0.0,0.0,0.0,1.75,0.0,5.25,1.0,7.75,5.75,6.0,8.25,-0.11,0.02,0.95,582.64,-6.6,-77.9,4.5,0.0,3.25,5.25,2.75,0.0,1.5,1.0,0.75,2.25,1.5,1.0,1.5,1.95,-3.36,2.39,242.8,-13.7,19.9
0.56,0.0,0.0,0.0,0.0,0.0,0.25,0.0,4.75,0.75,6.25,4.75,5.0,7.25,-0.05,0.02,1.27,487.3,-6.2,-82.4,5.75,0.5,6.5,7.25,4.5,2.0,1.5,1.0,0.75,2.0,1.25,1.25,1.25,0.14,0.58,1.58,362.33,-14.4,33.8
0.58,0.0,0.0,0.0,0.0,0.0,0.0,0.0,3.5,1.0,5.25,2.75,3.5,6.25,-0.05,0.08,1.2,384.9,-7.0,-83.3,6.25,2.0,8.0,9.25,6.75,2.0,2.75,0.0,1.0,1.75,1.0,1.0,1.5,0.02,0.27,1.39,533.01,-15.5,42.5
0.6,0.0,0.0,0.0,0.0,0.0,0.25,0.0,3.0,1.0,4.75,2.25,2.25,5.0,-0.42,0.2,1.2,298.61,-7.8,-79.9,5.5,0.25,9.25,9.0,8.25,2.25,5.0,1.0,0.75,1.0,0.25,0.5,1.25,-0.17,0.08,1.27,680.05,-15.5,45.0
0.62,0.0,0.0,0.0,0.0,0.0,0.25,0.0,3.0,0.75,2.75,1.75,0.75,2.75,-0.8,0.39,1.33,218.78,-8.6,-72.1,5.5,0.75,8.5,8.25,7.0,2.75,5.75,1.0,0.75,1.5,0.25,0.5,0.5,0.02,0.08,1.33,762.37,-15.6,46.0
0.64,0.0,0.0,0.0,0.0,0.0,0.25,0.0,2.25,0.75,2.5,1.25,0.5,1.75,-0.23,1.77,0.7,139.83,-8.7,-69.3,5.25,1.5,8.5,7.5,6.75,3.75,6.25,0.75,2.25,2.75,1.5,1.0,1.0,0.08,0.08,1.14,827.66,-13.5,34.0
0.66,0.0,0.0,0.0,0.0,0.0,0.25,0.0,1.75,0.75,1.75,0.75,0.0,1.25,0.27,2.39,0.89,63.76,-9.7,-64.2,4.5,0.75,7.5,7.25,6.75,4.5,6.5,2.5,3.0,3.25,2.5,1.5,1.5,0.08,0.08,1.02,873.78,-10.5,21.6
0.68,0.0,0.0,0.0,0.0,0.0,0.0,0.0,1.5,1.0,3.0,0.5,2.0,0.5,1.27,2.08,0.95,31.05,-5.2,-74.8,3.75,0.75,7.0,6.0,6.5,4.5,6.0,2.75,3.0,3.5,2.75,2.0,2.25,0.08,0.08,0.95,892.01,-8.9,14.1
0.7,0.0,0.5,0.0,0.0,2.25,0.25,0.5,3.0,0.25,1.75,2.0,2.0,2.25,0.77,2.27,1.02,50.99,-4.5,-45.3,4.5,1.75,6.75,7.25,7.0,5.0,5.75,4.0,3.75,5.5,4.5,3.25,4.0,0.14,0.08,0.95,978.08,-7.0,4.4
0.72,0.25,0.0,0.25,0.25,1.25,1.25,0.5,3.0,1.0,2.75,2.0,2.0,2.0,-0.23,2.02,1.02,97.45,-4.4,-47.4,3.75,1.75,5.75,5.75,5.75,5.0,5.25,4.0,3.5,5.75,4.75,4.0,4.25,0.08,0.08,0.95,1005.98,-5.8,-2.9
0.74,0.0,0.25,0.25,0.0,1.75,1.25,0.75,3.0,1.0,2.75,1.75,1.5,2.0,-0.42,1.52,1.08,140.54,-5.4,-42.3,2.0,1.75,6.25,5.5,6.5,4.5,5.25,4.0,3.25,5.75,4.0,4.0,3.5,0.08,0.08,0.95,993.09,-5.5,-2.4
0.76,0.0,0.25,0.25,0.0,0.0,1.25,0.25,1.0,0.5,1.75,0.5,2.0,1.5,-0.3,1.14,1.14,142.67,-5.1,-58.4,2.0,1.75,4.75,5.5,4.75,4.5,4.25,3.75,3.0,5.75,3.75,4.0,3.75,0.08,0.08,0.95,911.75,-4.5,-6.8
0.78,0.0,0.5,0.0,0.0,2.25,1.25,0.75,1.0,1.0,2.5,0.25,1.25,1.0,-0.23,0.64,1.27,143.34,-5.3,-25.1,1.5,0.75,4.25,3.25,4.5,3.0,4.0,3.25,2.0,4.75,3.75,4.0,4.25,0.08,0.08,0.95,780.39,-4.1,-15.4
0.8,0.5,0.25,0.25,0.5,1.25,1.25,0.75,1.25,1.0,2.75,1.75,1.25,1.0,-0.36,0.27,1.27,150.41,-1.3,-31.7,3.25,1.75,4.0,4.75,4.75,4.5,4.0,4.0,2.75,6.5,4.75,5.25,5.0,0.08,0.08,0.95,740.46,-3.8,-13.5
0.82,0.25,0.5,0.25,0.0,1.75,1.0,1.0,2.5,1.0,2.75,1.75,1.75,1.5,-0.36,0.08,1.08,177.32,-3.1,-37.5,2.0,1.5,4.75,4.5,5.25,4.5,3.75,4.0,2.0,6.5,5.75,5.25,5.75,0.08,0.08,0.95,735.1,-3.2,-17.3
0.84,0.0,0.0,0.25,0.0,1.75,1.25,1.0,2.5,0.75,2.75,1.75,1.25,1.5,-0.3,0.02,0.89,196.48,-5.2,-40.9,2.0,1.0,2.0,3.25,4.5,4.5,2.75,4.0,2.75,7.0,6.5,6.0,6.75,0.08,0.08,0.95,752.45,-0.4,-31.0
0.86,0.0,0.25,0.25,0.25,2.25,1.25,1.0,2.0,1.0,2.5,1.75,2.0,1.25,-0.23,-0.05,0.89,215.95,-2.9,-35.0,2.0,1.0,2.0,3.25,3.75,4.25,2.25,4.0,2.5,6.75,5.5,5.75,6.5,0.08,0.08,0.95,730.55,-0.3,-31.1
0.88,0.0,0.0,0.25,0.25,2.25,0.75,0.75,2.25,1.0,2.5,1.75,1.5,1.25,-0.23,-0.17,0.95,217.57,-3.4,-37.7,2.0,0.0,2.5,3.25,4.75,4.5,2.0,4.25,3.0,7.75,6.75,6.25,8.0,0.08,0.08,0.95,744.04,0.1,-35.6
0.9,0.25,0.0,0.25,0.25,1.25,1.25,0.75,2.0,1.0,2.5,1.5,1.5,1.25,-0.23,-0.3,0.89,210.96,-3.5,-39.9,1.75,0.25,2.0,3.25,5.0,4.5,2.25,4.75,3.0,8.25,7.5,6.5,8.0,0.08,0.08,0.95,765.25,0.5,-37.1
0.92,0.0,0.0,0.25,0.0,1.75,0.75,0.5,1.0,1.0,2.0,1.5,1.5,1.25,-0.23,-0.3,0.89,192.04,-2.6,-42.6,1.75,0.0,2.25,3.25,5.0,4.5,2.25,5.0,2.75,8.5,7.5,7.0,8.5,0.08,0.08,0.95,809.48,0.7,-38.7
0.94,0.25,0.0,0.25,1.25,1.75,1.0,0.75,1.0,1.0,2.0,1.25,0.5,1.25,-0.36,-0.42,0.58,178.09,-1.0,-20.6,1.75,0.0,1.75,3.25,5.0,4.5,2.25,5.25,2.5,8.5,7.75,7.25,8.5,0.08,0.08,0.95,845.45,1.0,-40.0
0.96,0.0,0.0,0.0,0.0,0.0,0.0,0.0,0.75,0.25,1.0,0.25,0.5,0.25,-0.67,-1.3,1.58,130.73,-7.2,-71.9,2.5,0.5,1.75,3.25,5.0,4.5,2.25,5.25,2.5,8.75,7.75,7.25,8.75,0.08,0.08,0.95,893.23,0.6,-37.6
0.98,0.25,0.0,0.0,0.75,0.0,0.0,0.0,1.0,0.25,0.5,0.0,0.5,0.25,-0.48,-2.11,0.7,91.05,0.2,-28.5,1.5,0.25,2.0,3.25,4.75,4.5,2.0,5.25,2.75,9.0,7.75,6.75,8.5,0.08,0.08,0.95,910.16,1.2,-39.8
1.0,1.5,0.0,0.25,1.75,0.0,0.0,0.0,1.0,0.25,1.25,0.0,0.75,0.25,-1.05,-3.3,3.33,74.12,8.5,0.8,2.0,0.0,1.75,1.25,4.75,5.0,1.5,5.0,1.75,8.5,7.0,6.5,8.5,0.08,0.08,0.95,888.88,2.4,-42.2
1.02,3.25,0.0,3.0,4.75,2.5,0.0,0.0,1.0,1.0,2.75,0.0,2.0,0.25,-1.05,0.77,1.33,143.07,12.7,18.9,1.75,0.75,2.0,3.25,5.5,4.5,1.5,5.25,2.0,9.0,7.5,6.5,9.25,0.08,0.08,0.95,892.85,1.5,-37.4
1.04,2.75,0.0,7.75,8.5,6.0,0.0,2.0,2.0,1.0,2.5,1.25,1.75,1.25,-0.36,0.14,1.45,275.45,13.6,24.9,0.5,0.0,1.75,0.75,4.75,3.25,1.75,4.25,1.5,8.0,6.25,6.25,8.25,0.08,0.08,0.95,812.93,2.9,-48.4
1.06,0.0,0.75,9.5,8.5,6.25,0.25,5.0,1.0,0.75,0.25,0.0,0.5,0.0,-0.11,0.08,1.33,384.47,18.1,47.4,1.25,0.0,1.75,3.25,4.75,4.5,1.5,5.25,1.75,9.0,6.75,6.5,8.75,0.08,0.08,0.95,809.76,2.3,-41.2
1.08,5.0,1.25,10.0,11.0,6.5,2.75,6.25,2.75,0.0,0.5,1.0,2.0,0.5,0.14,0.02,1.33,580.95,15.7,41.1,0.75,0.0,1.75,0.75,4.5,4.5,1.25,4.75,1.5,8.5,6.5,6.0,8.5,0.08,0.08,0.95,767.89,3.7,-47.0
1.1,4.75,1.25,9.75,8.75,8.0,4.25,8.5,3.0,2.75,0.5,1.75,1.0,1.5,0.08,0.02,1.39,755.34,13.3,33.8,0.0,0.0,1.5,0.5,3.5,2.25,1.0,4.25,0.75,6.75,3.75,4.0,7.25,0.08,0.08,0.95,662.59,4.9,-50.8
1.12,2.75,1.0,8.0,7.75,7.5,4.0,8.0,3.0,3.75,3.25,1.5,2.0,0.5,-0.11,0.02,1.14,877.87,10.7,22.6,0.0,0.0,0.0,0.5,0.0,2.25,0.5,2.75,0.5,5.5,2.5,2.5,6.0,0.08,0.08,0.95,483.32,8.5,-68.9
1.14,3.25,1.25,8.25,8.0,6.5,4.0,8.0,4.75,5.0,4.5,4.25,3.5,1.5,-0.11,-0.05,1.08,997.16,9.5,8.1,0.0,0.0,0.0,0.5,0.25,1.5,0.25,2.75,0.5,3.5,1.25,1.0,4.25,0.02,0.14,1.02,323.0,9.8,-62.1
1.16,3.25,1.25,7.75,7.25,6.25,4.0,7.75,5.25,5.25,5.25,5.0,5.0,4.0,-0.05,-0.05,1.02,1109.42,7.8,-3.0,0.0,0.0,0.0,0.5,0.25,0.5,0.25,2.5,0.5,3.0,0.25,1.0,2.75,0.27,0.52,1.39,208.72,9.5,-62.4
1.18,2.75,1.25,6.5,6.25,6.25,3.25,7.25,5.75,5.25,5.75,5.75,5.25,5.0,-0.05,-0.05,0.95,1175.06,6.3,-10.4,0.0,0.0,0.0,0.5,0.25,0.75,0.25,1.5,0.5,2.25,0.25,0.75,1.5,0.45,1.95,0.77,105.58,8.4,-52.7
1.2,2.25,0.75,5.75,6.25,5.75,4.0,6.25,5.75,5.0,5.75,6.0,5.75,5.5,-0.05,-0.05,0.95,1187.88,5.1,-15.1,0.75,0.75,0.0,1.0,0.25,1.0,0.25,1.25,0.75,2.25,0.25,1.0,1.25,-0.92,3.02,0.7,49.74,1.8,-24.3
1.22,2.25,0.5,5.25,6.0,4.5,4.0,6.0,5.25,5.0,5.75,6.0,5.5,5.5,-0.05,-0.05,0.95,1137.32,5.0,-17.8,0.0,0.25,0.0,0.5,0.25,0.0,0.25,1.25,0.5,2.0,0.0,0.75,1.25,-2.11,2.83,1.52,8.97,6.0,-52.7
1.24,2.0,1.25,5.25,5.0,5.25,4.5,5.5,5.0,4.75,4.75,5.75,5.5,5.5,-0.05,-0.05,0.95,1055.48,4.7,-15.3,0.0,0.25,0.0,0.5,0.5,0.0,0.0,1.25,0.5,1.5,0.25,0.5,1.25,-1.05,2.89,1.14,0.0,5.8,-46.4
1.26,1.5,1.0,5.0,4.75,4.5,4.0,5.5,4.75,4.5,4.5,5.75,5.5,5.0,-0.05,-0.05,0.95,944.52,4.9,-17.7,0.0,0.25,0.0,0.5,0.25,0.25,0.25,1.25,0.5,1.5,0.25,0.5,1.25,-0.36,2.33,1.2,0.0,5.8,-46.6
1.28,2.0,1.0,5.0,4.75,2.25,4.0,5.0,4.75,4.25,5.25,5.75,6.0,5.0,-0.05,-0.05,0.95,856.06,5.2,-22.0,0.75,0.0,0.0,0.5,3.0,0.0,0.5,2.0,0.5,1.5,1.5,0.25,1.75,-0.05,1.58,1.33,17.95,2.2,-20.3
1.3,1.5,0.75,4.25,4.5,2.5,3.75,4.75,5.0,4.25,6.0,5.75,6.0,5.5,-0.05,-0.05,0.95,792.44,3.8,-27.0,1.0,0.75,0.0,1.0,0.5,2.0,0.75,1.5,0.75,3.25,1.5,1.0,1.25,0.27,0.89,1.27,65.96,2.2,-24.2
1.32,1.5,1.0,3.0,4.0,2.5,3.75,4.75,5.0,4.25,5.75,6.0,6.0,5.75,-0.05,-0.05,0.95,732.17,2.8,-29.8,0.5,0.75,1.5,0.75,3.25,0.0,0.25,1.5,0.5,1.5,1.25,1.0,1.75,0.52,0.39,1.08,127.33,-2.9,-8.1
1.34,1.25,1.0,2.75,4.0,2.5,4.0,3.75,5.25,4.25,7.0,6.25,6.75,6.5,-0.05,-0.05,0.95,723.02,1.5,-34.6,0.75,0.75,0.0,0.75,0.5,2.0,0.25,1.0,0.5,3.0,0.25,1.0,1.5,0.52,0.14,0.83,160.62,5.0,-24.1
1.36,1.25,0.0,1.5,4.25,2.5,4.25,3.75,5.75,4.25,7.25,6.75,7.25,7.0,-0.05,-0.05,0.95,736.49,0.1,-40.7,0.75,0.75,1.75,0.75,3.0,2.0,0.5,1.5,0.75,2.5,0.5,0.5,1.75,0.39,0.02,0.7,201.16,0.0,-0.4
1.38,1.5,1.0,1.0,4.25,2.25,4.0,3.75,5.75,4.25,7.5,7.0,7.5,7.5,-0.05,-0.05,0.95,759.22,0.2,-40.6,0.0,0.0,0.0,0.5,0.25,0.0,0.25,1.0,0.25,1.5,0.25,0.0,1.0,0.27,-0.05,0.7,172.03,7.4,-49.2
1.4,1.5,0.75,0.25,2.75,2.25,4.25,3.75,6.0,4.0,8.5,7.25,7.5,8.25,-0.05,-0.05,0.95,789.01,-1.5,-46.9,0.0,0.25,0.0,0.5,0.25,0.0,0.0,1.0,0.5,0.75,0.25,0.25,1.25,0.27,-0.17,0.77,142.61,4.7,-45.1
1.42,1.25,1.0,0.0,3.25,2.25,4.5,3.25,6.0,4.0,8.5,7.5,7.75,8.25,-0.05,-0.05,0.95,823.31,-1.7,-46.7,0.0,0.0,0.0,0.5,0.25,0.0,0.25,1.0,0.5,0.75,0.25,0.25,1.75,0.2,-0.36,0.77,106.71,5.5,-56.4
1.44,2.25,0.75,0.25,4.25,2.5,4.75,3.25,6.25,3.75,9.0,7.5,7.75,8.75,-0.05,-0.05,0.95,867.6,-1.1,-42.7,0.0,0.0,0.0,0.5,0.5,0.0,0.25,1.0,0.5,0.75,0.25,0.25,1.0,0.14,-0.55,0.7,85.17,4.1,-41.8
1.46,1.5,1.0,0.25,3.75,3.0,4.75,3.25,6.75,3.5,8.5,7.5,7.5,8.25,-0.05,-0.05,0.95,895.08,-1.7,-42.6,0.0,0.0,0.0,0.5,0.25,0.0,0.25,1.0,0.5,1.0,0.0,0.25,0.75,0.08,-0.8,0.52,68.19,5.1,-44.1
1.48,1.5,0.75,0.25,4.25,5.75,5.0,3.25,6.75,3.5,8.5,7.0,6.75,8.25,-0.05,-0.05,0.95,923.71,-2.0,-35.9,0.25,0.0,0.0,0.75,0.25,0.0,0.0,1.0,0.5,0.75,0.25,0.25,1.0,0.02,-0.98,0.52,62.67,2.1,-37.3
1.5,0.75,0.75,0.0,2.5,2.5,4.25,2.5,5.75,2.0,4.5,5.0,3.75,6.25,-0.05,0.02,0.95,796.74,-3.2,-38.0,2.0,0.75,1.75,2.25,2.5,1.25,1.0,1.25,0.5,3.0,1.5,1.0,1.5,1.08,-2.23,1.95,134.47,-5.2,1.5
1.52,0.0,0.0,0.0,1.75,2.5,3.75,1.75,4.75,1.0,3.0,2.25,2.25,4.25,-0.05,0.02,1.02,598.29,-6.1,-35.1,3.5,1.75,2.0,4.75,2.75,0.25,1.5,1.25,0.75,2.0,0.25,0.5,1.5,2.02,-3.23,2.83,208.44,-11.1,28.4
1.54,0.0,0.0,0.0,0.0,2.25,3.0,1.25,3.5,1.0,2.75,0.5,2.0,2.25,0.02,0.08,1.02,382.34,-8.4,-35.3,4.5,0.0,4.75,5.75,4.75,0.0,1.5,0.75,0.5,0.0,0.25,0.25,0.25,0.89,1.52,3.7,280.37,-18.7,53.6
1.56,0.0,0.0,0.0,0.0,0.75,2.5,0.75,3.75,1.0,2.75,1.25,1.75,1.25,0.27,0.52,1.08,255.84,-8.3,-44.3,5.25,0.75,5.75,7.5,6.75,2.0,1.5,1.0,0.5,0.75,0.25,0.25,0.5,0.7,0.45,1.64,377.33,-14.2,50.0
1.58,0.0,0.0,0.0,0.0,0.0,1.25,0.0,3.0,1.0,1.75,0.5,1.25,2.25,-0.73,1.64,1.2,153.26,-9.8,-61.5,5.5,0.75,7.5,9.0,8.0,2.25,3.25,0.5,0.5,0.75,0.25,0.25,0.5,0.08,0.2,1.33,504.24,-15.5,51.8
1.6,0.0,0.0,0.0,0.0,0.0,0.25,0.0,2.75,1.0,1.75,0.25,1.25,0.5,-0.42,1.7,1.02,73.78,-7.8,-62.2,6.0,1.25,8.25,9.25,8.0,3.0,4.75,1.0,0.5,1.0,0.25,0.5,0.5,-0.05,0.2,1.14,636.6,-15.1,49.7
1.62,0.0,0.0,0.0,0.0,0.0,0.25,0.0,1.75,1.0,1.75,0.25,1.0,0.5,0.02,2.08,0.7,13.43,-7.0,-63.9,6.25,1.75,8.5,9.5,8.25,4.5,6.0,1.25,0.75,1.5,0.0,0.5,0.75,-0.11,0.14,1.14,776.9,-13.7,47.4
1.64,0.0,0.0,0.0,0.0,0.0,0.25,0.5,1.5,1.0,1.75,0.0,1.0,1.0,1.02,2.02,0.89,0.0,-6.4,-64.7,5.75,1.75,8.5,9.5,8.75,4.5,6.0,1.25,0.75,1.5,0.25,0.5,0.25,0.08,0.14,1.27,868.32,-13.5,48.0
1.66,0.0,0.0,0.0,0.0,0.0,0.0,0.5,1.25,1.0,1.5,0.5,1.0,0.75,0.89,2.02,0.89,0.0,-3.4,-68.0,5.5,2.0,8.5,9.25,8.75,5.5,6.75,2.5,1.75,1.75,0.5,0.75,1.25,0.14,0.14,1.02,948.24,-11.4,38.9
1.68,0.0,0.0,0.0,0.0,0.0,0.25,0.25,1.0,1.0,1.75,0.25,0.75,0.5,0.27,1.95,0.7,0.0,-5.6,-63.3,5.5,2.0,8.0,9.0,8.5,5.5,7.0,2.75,2.5,2.0,2.0,1.75,1.25,0.08,0.08,1.02,1008.08,-11.0,31.0
1.7,0.25,0.0,0.0,0.0,1.75,0.0,1.0,2.75,1.0,2.5,1.75,2.0,1.25,-0.11,1.7,0.83,21.3,-2.7,-48.5,6.0,2.5,7.5,9.25,9.0,6.0,7.0,3.0,3.0,3.5,2.75,2.0,2.25,0.14,0.08,0.95,1088.11,-9.4,24.5
1.72,0.0,0.0,0.0,0.0,0.0,1.0,0.75,1.75,1.0,2.5,0.25,2.0,0.25,-0.3,1.33,0.95,60.07,-5.5,-57.3,5.5,2.5,7.75,9.25,9.25,6.0,7.0,4.0,3.0,4.5,2.75,2.0,2.5,0.08,0.08,0.95,1148.65,-8.4,21.1
1.74,0.0,0.0,0.0,0.0,0.0,0.25,0.5,1.0,0.5,0.75,0.0,1.0,0.25,-0.36,0.95,1.02,79.54,-3.7,-59.7,5.0,2.5,7.5,9.25,9.0,6.0,6.75,4.0,2.75,4.25,2.75,2.0,2.75,0.14,0.08,0.95,1169.76,-8.1,20.3
1.76,0.0,0.0,0.0,0.0,0.0,0.0,0.5,1.0,0.25,0.5,0.25,0.75,0.25,-0.36,0.58,1.02,68.41,-2.5,-64.3,4.5,2.5,7.5,9.0,8.75,6.0,6.5,4.0,2.75,4.5,2.75,2.0,2.5,0.08,0.08,0.95,1163.34,-7.8,19.6
1.78,0.0,0.0,0.0,0.0,0.0,0.0,0.5,1.0,0.25,1.75,0.25,0.5,0.25,-0.42,0.33,0.83,58.84,-7.0,-64.9,3.25,2.5,6.5,8.0,8.25,6.0,6.0,4.0,2.75,4.5,3.0,2.25,2.75,0.08,0.08,0.95,1105.37,-6.5,14.7
1.8,0.0,0.0,0.0,0.0,0.0,0.0,0.5,1.0,0.25,1.25,0.0,0.5,0.25,-0.42,0.2,0.7,46.56,-7.0,-62.7,3.25,2.25,6.25,7.5,8.25,6.0,5.75,4.0,2.75,4.75,3.25,2.5,3.25,0.08,0.08,0.95,1038.7,-5.9,11.3
1.82,0.0,0.0,0.0,0.0,0.0,0.0,0.5,1.0,0.25,1.0,0.0,0.75,0.25,-0.36,0.2,0.7,46.81,-5.3,-65.2,3.25,2.0,6.25,7.25,8.25,6.0,5.5,4.0,2.75,5.25,3.5,2.5,3.25,0.08,0.08,0.95,986.34,-5.6,9.5
1.84,0.0,0.0,0.0,0.0,0.0,0.0,0.0,1.0,0.25,0.75,0.0,0.5,0.25,-0.11,0.08,0.64,45.09,-8.9,-68.2,3.25,2.0,5.25,7.25,8.0,6.0,4.75,4.25,3.0,5.5,3.75,2.75,3.75,0.08,0.08,0.95,953.34,-4.6,5.6
1.86,0.5,0.0,0.0,0.0,0.0,0.25,1.25,3.0,1.0,2.0,1.5,1.75,1.25,-0.11,0.02,0.77,89.03,-2.2,-57.5,3.25,2.0,4.75,6.0,7.75,6.0,4.75,4.75,2.75,5.75,4.5,3.5,4.5,0.08,0.08,0.95,930.86,-3.7,-0.7
1.88,0.5,0.0,0.25,0.0,2.25,0.5,1.0,2.5,1.0,2.25,1.5,2.25,1.0,-0.17,-0.17,0.83,137.4,-1.4,-36.8,3.0,2.0,4.75,5.75,7.5,5.75,4.25,5.25,2.75,6.5,4.75,4.0,5.0,0.08,0.08,0.95,923.49,-3.0,-5.2
1.9,0.5,0.25,0.25,0.0,1.75,0.25,1.0,2.5,1.0,2.0,1.25,2.0,0.75,-0.17,-0.17,0.7,175.15,-0.6,-35.2,2.5,1.75,4.0,5.75,6.75,5.75,4.0,5.25,2.75,7.0,4.75,4.0,5.5,0.08,0.08,0.95,900.92,-2.0,-9.8
1.92,0.5,0.0,0.25,0.0,1.75,0.25,1.0,2.25,1.0,1.75,1.25,2.0,1.0,-0.11,-0.11,0.7,192.46,-0.5,-38.6,2.0,2.0,3.75,5.5,6.75,6.0,4.0,5.25,3.0,7.25,4.75,5.25,6.0,0.08,0.08,0.95,893.5,-1.4,-13.9
1.94,0.25,0.0,0.25,0.0,1.25,0.5,1.25,2.25,1.0,1.5,1.25,2.0,1.0,-0.23,-0.11,0.83,194.9,-0.9,-42.8,2.0,2.0,3.0,5.5,6.75,6.0,3.5,5.25,2.75,7.5,5.25,5.25,6.5,0.08,0.08,0.95,885.73,-0.7,-16.5
1.96,0.5,0.0,0.25,0.25,1.25,0.5,1.0,2.75,1.0,2.0,1.25,1.75,1.0,-0.36,-0.17,0.89,201.6,-1.5,-38.7,2.0,1.75,2.25,5.5,6.75,5.75,3.25,5.5,2.5,7.75,5.5,5.25,7.0,0.08,0.08,0.95,885.14,0.0,-19.6
1.98,0.5,0.0,0.25,0.25,1.75,0.5,1.25,2.75,1.0,1.75,1.25,1.75,1.0,-0.55,-0.17,0.83,206.44,-1.0,-33.5,2.0,1.75,1.75,4.75,6.5,6.0,2.75,6.0,2.25,8.5,5.5,5.75,8.0,0.08,0.08,0.95,889.49,1.3,-24.6
2.0,0.0,0.0,0.25,0.0,0.0,0.0,0.75,2.5,0.25,0.25,1.25,1.75,0.25,-0.55,-0.92,1.02,183.78,0.5,-60.2,2.5,1.25,1.75,4.0,6.5,6.0,2.25,6.25,2.0,8.75,5.75,5.75,8.25,0.08,0.08,0.95,891.31,1.7,-26.8
2.02,1.0,0.0,0.0,0.0,0.0,0.0,0.25,2.25,1.0,1.75,0.0,1.75,0.25,-0.05,-0.8,0.45,162.7,-0.5,-47.5,1.75,1.25,1.75,3.25,6.0,6.0,1.5,6.25,1.75,9.25,5.5,6.0,8.5,0.08,0.08,0.95,884.61,2.8,-31.4
2.04,0.5,0.0,0.0,0.0,1.75,0.0,0.0,1.0,0.25,0.25,0.0,0.5,0.25,-0.05,-1.67,1.77,124.53,-1.5,0.8,0.5,0.25,1.75,0.75,4.25,6.0,1.0,6.0,1.25,9.25,4.75,6.0,8.25,0.08,0.08,0.95,826.96,5.4,-44.4
2.06,1.5,0.0,0.0,4.75,2.25,1.0,0.0,1.0,0.75,1.25,0.0,0.25,0.25,-1.3,-3.05,2.83,141.1,5.6,28.2,0.25,0.0,1.75,0.75,3.0,5.0,0.5,6.0,1.0,8.5,4.75,5.25,8.5,0.08,0.08,0.95,750.37,5.8,-49.9
2.08,3.75,0.0,3.0,4.5,4.25,0.0,0.0,1.0,0.25,0.75,0.0,0.5,0.25,0.14,0.33,2.2,186.99,14.8,46.3,0.0,0.0,0.5,0.5,2.75,4.75,0.5,6.25,0.5,8.5,4.0,5.25,8.5,0.14,0.08,0.95,667.22,8.1,-55.6
2.1,0.0,1.0,6.75,7.75,2.25,1.0,2.5,1.0,0.25,0.75,0.0,1.5,0.0,0.02,0.08,1.2,255.16,17.0,38.2,0.0,0.0,0.0,0.5,1.75,4.5,0.5,6.0,1.25,9.25,3.75,5.5,8.5,0.08,0.08,1.02,609.84,8.4,-61.0
2.12,6.0,1.0,9.0,9.5,6.0,2.75,6.5,1.25,1.25,0.0,0.0,1.0,0.0,0.2,-0.11,1.27,396.06,18.0,50.7,0.0,0.0,1.25,0.5,4.75,4.25,0.5,5.5,0.5,7.75,2.5,4.0,8.5,0.08,0.08,1.14,559.97,7.6,-45.7
2.14,5.25,1.0,9.25,7.75,7.25,4.0,8.5,3.0,5.0,3.5,1.75,2.25,0.5,0.02,-0.05,1.52,632.72,12.4,23.7,0.0,0.0,0.0,0.5,1.25,2.75,0.0,4.75,0.5,7.0,1.5,2.5,8.0,0.08,0.14,1.33,474.25,10.8,-62.9
2.16,5.75,1.75,9.5,9.0,6.75,5.25,9.75,5.25,6.25,4.5,5.75,5.0,4.25,-0.11,-0.17,1.2,972.38,9.6,4.4,0.0,0.0,0.0,0.5,1.0,2.25,0.0,4.0,0.0,5.75,1.0,2.25,7.0,0.14,0.14,1.39,379.59,11.2,-64.0
2.18,5.25,1.5,9.0,8.0,7.5,5.25,9.5,5.75,6.25,4.5,6.25,5.25,4.25,0.02,-0.11,1.02,1250.86,8.8,1.7,0.0,0.0,0.0,0.5,1.0,2.0,0.0,2.75,0.5,4.25,0.25,1.0,5.75,0.83,0.39,1.77,287.97,11.7,-58.6
2.2,5.0,1.25,8.5,7.75,7.25,5.25,9.0,5.5,5.75,4.25,6.0,5.0,4.25,-0.05,-0.05,0.95,1389.31,8.5,1.4,0.0,0.0,0.0,0.5,0.5,1.0,0.0,2.5,0.5,2.75,0.25,0.5,4.0,0.2,0.39,1.39,208.06,11.3,-59.7
2.22,3.25,1.0,6.5,5.25,6.0,3.5,7.5,4.75,5.0,4.25,5.75,5.25,4.25,-0.05,-0.05,0.95,1354.29,7.5,-7.7,0.0,0.0,0.0,0.5,0.25,1.0,0.0,1.5,0.5,1.75,0.25,0.5,2.0,-1.48,2.45,1.45,120.82,9.8,-51.8
2.24,1.5,0.0,3.0,1.0,0.0,1.25,5.75,3.25,4.0,3.25,4.75,5.0,4.25,-0.05,-0.05,0.95,1086.49,6.6,-41.2,0.0,0.25,0.0,0.5,0.5,0.75,0.0,1.25,0.5,1.75,0.25,0.5,1.5,-0.61,2.58,0.83,57.5,7.9,-42.2
2.26,0.5,0.0,0.0,1.0,0.0,1.25,4.5,3.0,3.5,4.25,4.75,5.75,4.25,-0.05,0.02,0.95,801.96,1.4,-60.2,0.0,0.0,0.0,0.5,0.5,0.5,0.0,1.25,0.5,1.75,0.25,0.5,1.25,0.33,2.45,0.77,17.47,8.0,-47.4
2.28,0.25,0.0,0.0,0.0,0.0,1.0,1.5,3.25,3.5,5.0,5.0,7.0,5.5,-0.05,-0.05,0.95,603.86,-1.4,-74.5,0.0,0.25,0.0,0.5,0.5,0.5,0.0,1.25,0.5,1.5,0.25,0.5,1.25,-0.11,2.14,0.39,4.07,6.9,-41.1
2.3,0.0,0.0,0.25,0.0,1.75,0.25,0.0,4.75,2.5,4.5,5.5,7.5,6.5,-0.05,-0.05,0.95,507.06,-2.6,-72.5,0.0,0.0,0.0,0.5,0.5,0.5,0.0,1.25,0.5,1.5,0.25,0.5,1.25,-0.36,1.58,0.89,2.68,7.7,-46.4
2.32,0.0,0.0,0.0,0.0,0.0,0.25,0.0,3.0,2.0,5.75,6.0,8.0,7.25,-0.05,-0.05,0.95,457.42,-2.8,-85.4,0.0,0.0,0.25,0.5,0.5,0.0,0.0,1.25,0.5,1.5,0.25,0.75,1.25,-0.05,1.08,1.33,10.53,4.3,-50.2
2.34,0.0,0.0,0.0,0.0,0.0,0.25,1.0,3.25,1.75,6.5,6.25,8.25,8.25,-0.11,-0.05,0.95,449.91,-2.9,-84.5,0.0,0.0,0.0,0.5,0.5,0.0,0.25,1.25,0.5,1.5,0.25,0.25,1.25,0.08,0.7,1.27,18.77,6.4,-48.5
2.36,0.0,0.0,0.0,0.0,0.0,0.25,1.0,4.5,2.0,7.5,6.25,8.75,9.0,-0.11,-0.05,0.95,456.36,-3.7,-83.3,0.0,0.0,0.0,0.5,0.25,0.0,0.0,1.25,0.5,1.5,0.25,0.25,1.0,0.33,0.39,1.02,30.67,7.1,-52.6
2.38,0.0,0.0,0.0,0.0,0.0,0.25,0.5,4.75,1.5,8.25,6.25,8.75,9.25,-0.11,-0.05,0.95,478.61,-4.5,-84.3,0.0,0.25,0.25,0.5,0.5,0.0,0.25,1.25,0.5,1.0,0.25,0.25,1.25,0.2,0.14,1.14,48.44,3.0,-35.8
2.4,0.0,0.0,0.0,0.0,0.0,0.75,0.75,4.75,1.25,8.5,6.25,8.25,9.75,-0.11,-0.05,0.95,512.66,-5.0,-82.8,0.0,0.0,0.0,0.5,0.5,0.0,0.25,1.0,0.5,1.25,0.25,0.25,1.25,0.08,0.02,1.33,60.14,5.6,-47.8
2.42,0.0,0.0,0.0,0.0,0.0,1.0,0.5,4.75,1.25,8.5,6.25,8.5,10.0,-0.11,-0.05,0.95,563.17,-5.2,-82.8,0.0,0.0,0.0,0.5,0.5,0.0,0.25,1.0,0.5,1.25,0.25,0.25,1.0,0.2,0.02,1.08,70.18,5.2,-44.9
2.44,0.0,0.0,0.0,0.0,0.0,1.25,0.5,5.0,1.0,8.75,6.25,8.25,10.0,-0.11,-0.05,0.95,610.62,-5.6,-81.9,0.0,0.25,0.0,0.5,0.5,0.0,0.25,1.0,0.5,1.25,0.25,0.25,1.0,0.2,0.02,0.83,77.79,4.4,-38.4
2.46,0.0,0.0,0.0,0.0,0.0,1.25,0.0,5.25,1.0,8.75,6.25,8.25,10.0,-0.11,-0.05,0.95,653.57,-5.9,-82.3,0.0,0.25,0.0,0.5,0.5,0.0,0.25,1.0,0.5,1.25,0.25,0.25,0.75,0.27,-0.11,0.89,80.56,3.9,-35.0
2.48,0.0,0.0,0.0,0.0,0.0,2.0,0.0,5.25,1.0,8.5,6.0,7.75,10.0,-0.11,0.02,0.95,680.14,-6.4,-80.0,0.0,0.0,0.0,0.5,0.5,0.0,0.0,1.0,0.5,1.25,0.25,0.25,0.75,0.33,-0.11,0.83,78.62,5.6,-43.3
2.5,0.0,0.0,0.0,0.0,0.0,1.25,0.0,5.0,1.0,8.5,5.75,7.75,9.0,-0.11,0.02,1.02,661.27,-6.0,-81.6,0.0,0.0,0.0,0.25,0.25,0.0,0.5,1.0,0.5,1.5,0.25,1.0,1.0,0.52,-0.17,0.58,83.46,4.2,-61.9
2.52,0.0,0.0,0.0,0.0,0.0,0.75,0.0,4.75,1.0,8.0,4.75,7.0,9.0,-0.17,0.02,1.08,618.07,-6.3,-83.1,0.5,0.25,0.25,0.5,0.25,0.0,0.5,1.0,0.5,0.5,0.0,0.0,0.75,0.33,-1.05,0.95,80.07,-3.3,-8.5
2.54,0.0,0.0,0.0,0.0,0.0,0.75,0.0,4.75,0.5,7.25,4.0,6.75,9.0,-0.23,0.02,1.2,565.13,-6.9,-83.9,1.5,0.5,1.75,1.25,0.0,0.0,0.75,1.0,0.5,0.5,0.0,0.0,0.75,0.95,-2.23,1.58,96.88,-15.8,24.9
2.56,0.0,0.0,0.0,0.0,0.0,0.25,0.0,3.25,0.25,5.75,3.5,5.75,8.25,-0.23,0.08,1.39,486.56,-6.5,-87.8,2.5,0.25,2.25,3.25,0.5,0.0,1.25,1.0,0.5,0.5,0.25,0.0,0.75,1.58,-3.98,2.33,133.84,-17.8,35.2
2.58,0.0,0.0,0.0,0.0,0.0,0.25,0.0,3.0,0.25,4.75,2.5,5.0,7.25,-0.3,0.08,1.39,399.21,-6.8,-87.7,3.5,0.75,5.25,5.75,2.75,0.75,2.25,1.0,0.5,1.0,0.25,0.25,0.75,1.08,-3.92,2.89,223.84,-16.9,42.7
2.6,0.0,0.0,0.0,0.0,0.0,0.25,0.0,3.0,0.25,4.25,1.75,3.75,6.5,-0.36,0.14,1.58,326.33,-8.0,-86.2,3.75,0.0,6.75,7.25,5.5,2.25,4.5,1.0,0.5,1.5,0.25,0.25,0.75,0.27,0.52,1.27,329.18,-14.5,41.7
2.62,0.0,0.0,0.0,0.0,0.0,0.0,0.0,2.0,0.25,2.75,0.5,2.25,4.5,-0.36,0.02,1.33,250.97,-9.0,-87.9,4.5,0.75,7.5,7.25,6.0,2.5,6.25,1.0,1.0,1.75,0.0,1.0,1.25,0.02,0.08,1.7,471.48,-14.5,38.1
2.64,0.0,0.0,0.0,0.0,0.0,0.25,0.0,1.5,0.25,1.75,0.5,2.0,2.25,-0.05,1.45,0.89,171.53,-7.4,-82.3,4.5,1.25,7.5,6.0,5.75,3.25,7.0,2.5,2.75,3.5,2.5,1.75,1.5,0.14,0.02,1.27,637.23,-11.4,19.5
2.66,0.0,0.0,0.0,0.0,0.0,0.0,0.25,1.5,0.25,1.75,0.5,2.0,1.75,-0.11,1.95,0.14,102.01,-6.0,-82.3,5.25,2.5,6.75,7.25,5.25,4.75,7.0,4.0,4.0,5.5,3.75,3.5,3.25,0.14,0.02,1.02,841.26,-8.4,7.0
2.68,0.0,0.0,0.0,0.0,0.0,0.0,0.5,1.75,0.25,1.75,0.75,1.5,0.75,0.52,1.58,0.89,51.82,-5.1,-72.6,4.5,2.25,6.5,7.25,6.75,5.5,6.75,4.5,4.25,5.75,4.75,4.0,4.75,0.08,0.08,0.95,1034.45,-6.5,1.2
2.7,0.0,0.0,0.0,0.0,0.0,0.0,0.5,1.0,0.25,1.75,0.25,1.5,0.5,0.02,1.39,0.7,17.56,-4.5,-75.2,3.75,2.0,6.25,5.75,6.75,5.0,6.5,5.0,4.0,6.25,5.0,4.0,5.0,0.08,0.08,0.95,1159.3,-5.5,-3.7
2.72,0.0,0.0,0.0,0.0,0.0,0.0,0.0,0.0,0.0,0.0,0.0,0.0,0.0,-0.3,1.2,0.64,0.0,0.0,0.0,3.25,1.75,5.5,5.5,6.25,4.75,6.0,5.0,3.75,6.25,5.25,4.0,5.0,0.08,0.08,0.95,1195.2,-4.9,-7.0
2.74,0.0,0.0,0.0,0.0,0.0,0.0,0.0,0.0,0.0,0.0,0.0,0.0,0.0,-0.3,0.89,0.77,0.0,0.0,0.0,3.0,2.0,4.75,5.25,5.75,4.5,5.25,4.25,3.25,6.0,4.75,4.0,5.0,0.08,0.08,0.95,1145.05,-4.5,-7.6
2.76,0.0,0.0,0.0,0.0,0.5,0.0,5.5,0.0,0.0,0.0,0.0,0.0,0.0,-0.23,0.52,1.02,0.0,25.9,32.1,2.0,1.5,2.25,3.25,4.75,4.5,3.25,4.0,3.0,6.5,4.75,5.0,6.0,0.08,0.08,0.95,1018.17,-0.8,-23.6
2.78,0.0,0.0,0.0,0.0,0.0,0.0,0.0,0.0,0.0,0.0,0.0,0.0,0.0,-0.23,0.33,1.14,0.0,0.0,0.0,2.0,1.25,2.25,3.5,4.75,4.25,2.75,4.0,2.5,7.0,4.75,5.25,6.25,0.08,0.08,0.95,898.13,-0.5,-25.6
2.8,0.0,0.0,0.0,0.0,0.0,0.0,0.0,0.0,0.0,0.0,0.0,0.0,0.0,-0.11,0.14,1.08,0.0,0.0,0.0,2.0,1.0,1.25,3.25,5.0,4.5,2.5,4.25,2.75,7.5,5.5,5.75,7.5,0.08,0.08,0.95,822.56,0.8,-32.0
2.82,0.0,0.0,0.0,0.0,0.0,0.0,0.0,0.0,0.0,0.0,0.0,0.0,0.0,-0.05,0.14,0.95,0.0,0.0,0.0,1.75,1.0,1.75,3.25,4.5,4.5,2.25,4.5,2.5,7.75,5.75,6.25,8.0,0.08,0.08,0.95,783.9,0.8,-34.6
2.84,0.0,0.0,0.0,0.0,0.0,0.0,0.0,0.0,0.0,0.0,0.0,0.0,0.0,0.02,0.08,1.02,0.0,0.0,0.0,1.75,1.0,1.75,3.25,4.5,4.5,2.25,5.0,2.75,8.0,6.25,6.5,8.25,0.08,0.08,0.95,781.58,0.9,-35.9
2.86,0.0,0.0,0.0,0.0,0.0,0.0,0.0,0.0,0.0,0.0,0.0,0.0,0.0,-0.05,0.02,1.08,0.0,0.0,0.0,1.5,1.0,2.0,3.25,4.75,4.5,2.75,5.25,2.5,8.5,6.5,6.5,8.5,0.08,0.08,0.95,797.03,1.0,-36.1
2.88,0.0,0.0,0.0,0.0,0.0,0.0,0.0,0.0,0.0,0.0,0.0,0.0,0.0,-0.17,0.02,1.08,0.0,0.0,0.0,2.0,1.75,1.75,3.25,4.5,4.5,2.25,5.25,2.5,8.5,6.5,7.0,8.5,0.08,0.08,0.95,811.68,0.7,-35.0
2.9,0.0,0.0,0.0,0.0,0.0,0.0,0.0,0.0,0.0,0.0,0.0,0.0,0.0,-0.48,-0.05,1.08,0.0,0.0,0.0,1.75,0.75,1.75,3.25,4.5,4.5,2.0,5.25,2.5,8.75,6.5,7.25,9.0,0.08,0.08,0.95,823.2,1.3,-39.3
2.92,0.0,0.0,0.0,0.0,0.0,0.0,0.0,0.0,0.0,0.0,0.0,0.0,0.0,-0.67,0.08,0.89,0.0,0.0,0.0,1.25,0.75,1.75,3.0,4.5,4.5,2.0,5.25,2.5,9.0,6.75,6.5,9.25,0.08,0.08,0.95,839.08,1.9,-40.6
2.94,0.0,0.0,0.0,0.0,0.0,0.0,0.0,0.0,0.0,0.0,0.0,0.0,0.0,-0.8,0.08,0.83,0.0,0.0,0.0,1.25,0.75,0.5,3.25,1.75,4.5,1.25,4.25,2.0,9.0,6.75,7.25,9.25,0.08,0.08,0.95,828.82,2.7,-50.0
2.96,0.0,0.0,0.0,0.0,0.0,0.0,0.0,0.0,0.0,0.0,0.0,0.0,0.0,-0.73,0.14,0.83,0.0,0.0,0.0,1.5,1.25,1.75,3.25,4.5,3.25,1.5,5.25,1.5,8.5,6.5,6.5,9.25,0.08,0.08,0.95,826.75,1.4,-39.6
2.98,0.0,0.0,0.25,0.25,0.5,0.25,0.75,2.25,1.0,2.25,1.5,2.0,1.25,-0.55,0.14,0.83,65.48,-2.2,-57.5,0.75,0.75,0.5,0.75,1.5,3.75,1.5,5.25,1.75,8.5,6.5,6.25,9.25,0.08,0.08,0.95,783.73,4.4,-57.5
3.0,0.0,0.0,0.5,0.0,0.0,0.0,1.25,1.75,0.25,0.75,1.5,0.5,1.0,-0.17,-0.36,0.83,96.87,1.0,-53.1,1.5,0.75,0.5,2.0,1.25,4.5,1.5,5.25,1.75,9.5,6.25,6.75,9.25,0.08,0.08,0.95,771.12,3.7,-52.4
3.02,0.0,0.0,0.0,0.0,0.0,0.0,0.5,0.5,0.25,0.75,0.0,0.5,0.25,-0.42,-1.17,0.64,106.16,-3.4,-65.0,0.25,0.0,1.5,0.5,4.75,3.5,1.75,5.25,1.25,8.5,6.25,6.5,9.25,0.08,0.08,0.95,743.54,4.1,-51.6
3.04,0.0,0.0,0.0,0.0,0.0,0.0,0.5,0.75,0.0,0.0,0.0,0.0,0.0,0.2,-2.67,1.2,80.38,-4.8,-22.7,0.75,0.5,0.0,2.0,1.0,4.5,1.0,5.0,1.25,9.25,4.75,6.5,8.5,0.08,0.08,0.95,706.46,5.5,-56.1
3.06,0.0,0.0,0.0,0.0,0.0,0.0,0.0,0.0,2.0,2.75,0.0,3.5,0.0,-0.98,-3.86,1.33,96.55,1.4,-81.2,0.75,0.0,1.5,1.25,3.25,4.5,1.0,5.25,1.25,9.25,5.75,6.5,9.5,0.08,0.08,0.95,701.47,4.4,-51.5
3.08,1.5,0.25,0.0,0.0,0.0,0.25,3.5,4.5,4.25,5.75,7.75,9.0,8.25,-0.11,0.64,1.33,273.11,0.7,-70.7,0.75,0.0,1.25,1.25,3.0,4.5,1.0,5.25,1.25,9.25,5.25,6.5,9.75,0.08,0.08,0.95,699.93,4.9,-52.8
3.1,1.0,0.75,0.25,0.25,1.75,0.25,4.5,3.25,4.25,5.25,7.5,8.25,8.0,0.14,-0.3,0.77,452.45,1.5,-61.9,0.0,0.0,0.0,0.5,0.25,2.5,0.25,4.25,0.5,8.0,3.75,5.25,8.5,0.08,0.08,0.95,620.75,7.9,-73.3
3.12,1.5,1.0,1.0,1.25,0.0,1.25,3.75,4.25,4.5,6.0,7.5,9.0,8.0,0.02,0.02,0.89,681.54,1.8,-58.8,0.0,0.0,0.0,0.25,0.25,2.25,0.0,4.0,0.5,7.25,2.5,4.0,8.5,0.08,0.08,1.02,521.38,9.4,-74.4
3.14,1.25,0.75,0.0,1.5,0.0,1.5,2.5,4.75,5.0,7.25,8.75,9.75,9.0,-0.11,0.02,1.02,843.77,0.0,-65.0,0.0,0.0,0.0,0.5,0.0,1.25,0.0,2.75,0.5,5.5,1.5,2.5,7.0,-0.05,0.27,1.77,392.52,9.5,-76.1
3.16,0.75,0.5,0.0,1.5,0.0,1.25,2.5,4.75,5.0,8.5,9.5,12.0,10.0,0.02,-0.05,1.02,984.43,-0.3,-70.6,0.0,0.25,0.0,0.5,0.0,0.75,0.0,2.5,0.5,3.75,0.25,1.5,5.75,1.14,0.58,1.95,289.53,10.3,-72.5
3.18,1.0,0.75,0.25,1.25,0.0,0.25,2.75,4.75,4.5,8.5,9.75,12.0,11.0,-0.05,-0.05,1.02,1061.25,0.1,-71.7,0.0,0.25,0.0,0.5,0.25,0.5,0.0,1.5,0.5,3.25,0.25,1.0,4.0,0.89,0.39,0.77,206.04,9.4,-67.1
3.2,0.75,0.25,0.25,0.25,1.25,0.25,2.0,4.25,4.0,8.5,9.75,12.5,11.5,-0.05,-0.05,0.95,1115.48,-0.7,-75.2,0.0,0.25,0.0,0.5,0.25,0.25,0.0,1.5,0.5,2.5,0.25,0.75,2.5,-0.23,1.89,0.7,130.2,8.3,-60.8
3.22,0.0,0.0,0.0,0.0,0.0,0.25,1.0,2.5,2.5,7.0,9.25,12.0,10.5,-0.05,-0.05,1.2,1061.1,-1.2,-87.3,0.0,0.25,0.0,0.5,0.25,0.5,0.0,1.25,0.5,1.75,0.25,0.75,2.0,-1.11,2.27,0.83,70.31,7.5,-54.2
3.24,0.25,0.0,1.75,1.25,0.75,0.0,1.0,3.0,2.0,7.25,8.0,12.0,10.0,-0.05,-0.05,1.08,1004.38,0.4,-74.6,0.0,0.25,0.0,0.5,0.25,0.25,0.0,1.25,0.5,1.5,0.25,0.5,1.5,-0.67,1.77,0.89,22.17,6.8,-50.3
3.26,0.5,0.5,0.25,0.0,0.5,0.5,0.75,3.0,1.75,7.0,7.5,12.0,11.5,-0.11,-0.05,1.08,924.77,-1.8,-81.5,0.0,0.0,0.0,0.5,0.5,0.25,0.0,1.25,0.5,1.75,0.25,0.5,1.5,-0.17,1.39,0.77,3.1,7.7,-52.4
3.28,0.5,0.0,0.25,0.25,0.0,0.25,0.75,2.5,1.5,6.5,7.25,12.0,11.0,-0.11,-0.11,0.95,839.98,-1.4,-85.8,0.0,0.25,0.0,0.5,0.5,0.25,0.25,1.25,0.5,1.5,0.25,0.5,1.25,-0.05,1.14,0.77,0.0,5.7,-42.5
3.3,0.75,0.0,0.0,0.25,1.25,0.25,0.5,2.25,1.25,6.5,6.5,12.0,11.5,-0.11,-0.17,0.83,759.39,-2.0,-82.3,0.0,0.25,0.25,0.5,0.25,0.0,0.0,1.25,0.5,1.5,0.25,0.5,1.25,-0.11,0.89,1.02,0.27,4.2,-46.6
3.32,0.5,0.0,0.25,0.0,0.5,0.25,0.5,2.0,1.25,5.75,6.5,11.5,12.0,-0.11,-0.17,0.89,683.64,-2.0,-86.7,0.0,0.25,0.0,0.5,0.25,0.0,0.0,1.25,0.5,1.5,0.25,0.5,1.25,-0.17,0.64,1.08,15.84,5.9,-51.0
3.34,0.5,0.0,0.25,0.0,0.0,0.25,0.5,2.5,1.0,6.0,6.25,12.0,12.0,-0.05,-0.17,0.83,658.92,-2.2,-88.6,0.75,0.75,0.0,1.0,0.25,0.5,0.25,1.25,0.5,1.5,0.25,0.25,1.25,-0.05,0.39,1.27,48.74,0.8,-15.0
3.36,0.25,0.0,0.25,0.0,0.0,0.25,0.0,2.25,1.0,6.0,6.0,12.0,12.5,-0.11,-0.23,0.89,634.34,-2.8,-91.0,0.0,0.0,0.0,0.5,0.25,0.25,0.25,1.25,0.5,1.5,0.25,0.5,1.25,0.08,0.33,1.02,64.13,6.6,-52.4
3.38,0.75,0.25,0.0,0.0,0.5,0.25,0.0,2.5,1.0,6.0,5.75,12.0,13.0,-0.17,-0.23,0.89,631.91,-2.8,-86.7,0.0,0.0,0.0,0.5,0.25,0.0,0.25,1.25,0.5,1.5,0.25,0.25,1.25,0.14,0.39,0.83,77.72,6.6,-53.5
3.4,0.25,0.5,0.25,0.25,0.0,0.25,0.0,1.75,1.0,6.5,5.75,12.0,13.0,-0.23,-0.3,0.77,632.92,-2.7,-88.5,0.0,0.0,0.0,0.5,0.25,0.25,0.25,1.0,0.5,1.5,0.25,0.25,1.25,0.27,0.33,0.89,83.3,6.8,-50.6
3.42,0.5,0.75,0.25,0.25,0.0,0.5,0.0,2.5,1.0,7.0,5.75,12.5,14.0,-0.17,-0.23,0.95,666.47,-3.0,-85.6,0.0,0.0,0.0,0.75,0.25,2.0,0.25,1.25,0.75,3.25,0.25,1.0,1.25,0.14,0.33,0.7,110.86,8.8,-42.6
3.44,0.5,0.25,0.0,0.0,0.0,0.75,0.0,2.25,1.0,7.25,5.0,13.0,14.0,-0.17,-0.23,1.02,694.43,-3.7,-89.5,0.0,0.0,0.5,0.5,2.5,0.0,0.75,1.5,0.5,1.25,1.25,0.25,1.5,0.14,0.33,0.83,130.8,1.3,-22.1
3.46,0.25,0.25,0.0,0.0,0.0,0.25,0.0,2.25,1.0,7.0,5.75,13.0,14.0,-0.23,-0.23,1.08,722.89,-3.4,-91.6,0.0,0.0,0.0,0.5,0.0,0.0,0.25,1.0,0.5,1.25,0.25,0.25,1.25,0.27,0.2,1.08,126.05,5.8,-59.1
3.48,0.5,0.5,0.0,0.25,0.0,0.5,0.0,2.0,1.0,7.0,5.5,12.0,14.0,-0.23,-0.3,1.08,724.11,-3.4,-87.9,0.0,0.0,0.0,0.5,0.25,0.0,0.25,1.0,0.5,1.5,0.25,0.25,1.25,0.2,0.2,1.02,115.08,6.1,-54.1
3.5,0.5,0.25,0.0,0.25,1.75,0.75,0.0,2.25,1.0,6.25,5.0,11.0,14.0,-0.3,-0.3,0.95,720.33,-3.9,-81.3,0.0,0.0,0.0,0.75,0.25,0.0,0.25,1.25,0.75,2.75,1.5,1.75,1.25,1.7,-5.55,1.7,125.73,2.4,-63.6
3.52,0.5,0.5,0.0,0.0,1.75,0.25,0.0,2.5,1.0,6.0,5.25,11.0,13.5,-0.36,-0.36,0.83,708.18,-3.5,-81.7,0.5,0.75,1.25,0.75,1.25,0.0,0.5,1.5,0.5,1.5,1.5,1.0,4.0,2.7,-7.98,1.52,158.07,-1.1,-35.3
3.54,0.0,1.25,0.0,0.5,0.0,2.5,0.0,1.0,1.25,5.75,3.0,11.0,11.0,-0.11,-0.36,0.95,657.24,-3.9,-78.9,0.0,0.0,0.0,0.5,0.25,0.0,0.0,1.0,0.5,1.5,0.5,1.0,3.25,1.77,3.27,0.95,166.02,6.7,-74.0
3.56,0.5,0.5,0.0,0.0,0.75,0.25,0.0,2.25,1.0,5.75,4.5,9.75,12.0,-0.05,-0.36,1.08,619.1,-3.6,-84.3,0.0,0.0,0.0,0.5,0.0,0.0,0.5,1.0,0.5,1.5,0.0,0.0,1.25,-0.36,1.58,0.14,149.1,6.9,-54.6
3.58,0.5,0.75,0.0,0.25,0.0,0.25,0.0,2.25,1.0,5.25,4.5,8.75,11.0,-0.17,-0.36,1.08,565.34,-3.2,-83.9,0.25,0.0,0.5,0.0,0.25,0.0,0.0,1.0,0.75,1.5,0.25,1.0,1.25,-3.23,2.83,1.39,128.91,1.5,-55.8
3.6,0.5,0.25,0.0,0.0,0.0,0.25,0.0,1.75,1.0,4.5,3.75,7.5,9.5,-0.3,-0.3,1.39,497.0,-3.5,-87.2,0.0,0.25,0.25,0.0,0.25,0.25,0.0,1.0,1.5,4.5,2.0,4.0,2.5,0.08,-0.05,1.02,164.57,2.5,-74.9
3.62,0.5,0.25,0.0,0.0,1.25,0.25,0.0,2.0,1.0,4.25,3.25,6.75,8.0,-0.3,-0.36,1.14,428.48,-3.5,-77.8,0.0,0.0,0.5,0.5,0.0,1.0,0.0,1.5,1.75,5.75,4.75,5.75,6.0,0.14,0.02,0.95,252.47,2.6,-77.2
3.64,0.25,0.25,0.0,0.5,0.0,0.25,0.0,1.5,1.0,3.25,2.5,5.0,6.5,-0.36,-0.3,1.02,351.59,-3.3,-81.5,0.0,0.25,0.5,0.5,0.25,1.0,0.5,2.5,1.75,6.75,5.75,6.5,7.0,0.02,0.08,0.95,359.59,2.7,-74.4
3.66,0.25,0.5,0.0,0.5,0.5,0.25,0.0,1.75,1.0,3.0,2.0,3.75,5.25,-0.23,0.14,0.95,286.87,-3.6,-70.8,0.5,0.25,0.75,0.5,0.25,2.0,1.25,2.5,2.0,7.5,6.5,6.5,8.0,0.08,0.08,0.95,490.51,2.3,-68.4
3.68,0.25,0.25,0.0,0.5,1.25,0.25,0.0,1.0,1.0,3.0,2.0,3.5,4.5,-0.05,0.64,0.89,241.01,-3.0,-66.3,0.5,0.75,0.75,0.5,0.25,2.0,1.25,2.75,2.0,7.75,7.0,7.25,8.25,0.08,0.08,0.95,607.03,2.0,-67.2
3.7,0.25,0.0,0.0,0.75,1.25,0.25,0.25,1.75,1.0,2.75,1.5,2.75,3.75,-0.05,0.58,1.02,205.94,-3.5,-60.5,0.5,0.25,0.75,0.5,0.25,2.0,1.0,2.75,1.75,7.75,7.25,7.25,8.25,0.08,0.08,0.95,677.46,2.3,-69.9
3.72,0.0,0.0,0.0,0.25,2.25,0.5,0.5,1.5,1.0,2.25,1.75,2.5,2.75,-0.36,0.64,0.89,178.65,-3.5,-52.2,0.5,0.25,0.75,0.5,0.25,2.0,1.0,2.75,1.75,7.75,6.75,7.25,8.0,0.08,0.08,0.95,701.14,2.4,-69.6
3.74,0.25,0.0,0.25,1.0,0.5,0.25,0.5,1.0,0.75,2.25,1.5,2.0,2.5,-0.23,0.52,0.83,152.59,-0.6,-55.8,0.0,0.0,0.5,0.5,0.0,1.25,0.5,2.5,1.5,7.75,6.75,7.25,8.25,0.08,0.08,0.95,692.32,3.2,-78.2
3.76,0.0,0.0,0.25,0.0,1.75,0.0,0.75,1.0,0.25,0.5,0.75,1.0,2.75,0.02,0.52,0.64,117.92,-3.2,-47.7,0.0,0.0,0.5,0.5,0.25,1.25,0.25,2.5,1.25,7.75,6.5,7.25,8.0,0.08,0.08,0.95,673.82,3.4,-77.5
3.78,0.0,0.0,0.0,0.0,0.0,0.0,0.25,0.25,0.25,0.75,0.5,1.25,1.0,-0.11,0.39,0.7,69.68,-1.6,-87.0,0.0,0.25,0.5,0.0,0.0,1.0,0.5,2.25,1.0,7.75,6.5,7.25,8.5,0.02,0.08,1.02,652.51,3.5,-80.8
3.8,0.0,0.0,0.0,0.0,0.0,0.0,0.75,0.5,0.25,0.75,0.0,1.75,1.0,-0.11,0.27,0.7,32.62,-0.8,-82.1,0.0,0.25,0.0,0.5,0.25,1.0,0.25,1.5,0.5,7.75,5.75,7.25,8.75,0.02,0.08,1.08,616.79,4.3,-81.9
3.82,0.25,0.0,0.0,0.5,0.0,0.25,0.5,0.75,0.5,2.0,1.5,2.0,2.25,-0.11,0.2,0.64,47.22,-1.6,-69.7,0.0,0.25,0.0,0.5,0.25,0.5,0.0,1.25,0.5,7.75,5.5,7.25,8.75,0.14,0.08,1.08,570.52,4.2,-84.3
3.84,0.25,0.0,0.25,0.25,0.0,0.25,0.75,0.75,0.25,0.5,0.0,2.25,2.5,-0.98,-3.48,0.77,62.37,-0.5,-69.6,0.0,0.25,0.0,0.5,0.25,0.5,0.0,1.25,0.5,7.5,4.75,7.25,8.75,0.14,0.02,1.08,519.72,4.4,-84.6
3.86,0.25,0.0,0.0,0.25,0.0,0.25,0.5,0.75,0.5,1.75,0.0,2.0,2.25,-1.23,-1.8,-0.42,85.43,-4.0,-72.6,0.0,0.25,0.0,0.5,0.25,0.5,0.0,1.0,0.5,7.25,4.75,7.25,9.25,0.14,0.02,1.08,483.89,4.4,-85.5
3.88,0.0,0.0,0.25,0.0,0.0,0.25,1.0,1.0,0.5,1.75,0.5,2.0,2.25,-0.11,-0.17,1.02,104.68,-3.0,-73.5,0.0,0.25,0.0,0.5,0.25,0.5,0.0,1.0,0.5,7.0,4.0,6.75,9.25,0.14,0.02,0.95,454.65,4.9,-85.4
3.9,0.0,0.0,0.0,0.0,0.0,0.0,0.75,1.0,0.25,0.5,0.75,1.5,1.0,-0.61,0.14,2.2,98.23,-0.5,-76.2,0.0,0.5,0.0,0.25,0.5,0.25,0.0,1.0,0.5,6.5,3.5,6.5,9.25,0.2,-0.05,0.95,429.72,5.0,-84.8
3.92,0.5,0.25,0.25,0.75,0.75,0.25,0.5,1.5,0.5,1.75,1.5,2.0,2.25,-0.67,0.27,1.52,122.3,-0.2,-47.4,0.75,0.25,0.0,0.25,1.0,0.25,0.0,1.0,0.5,7.0,2.75,7.0,9.0,0.14,-0.11,0.7,417.26,4.4,-79.7
3.94,0.25,0.0,0.25,0.25,0.0,0.25,1.25,1.0,0.5,2.0,1.75,2.0,2.25,-0.42,0.33,0.45,141.63,-0.1,-66.0,0.0,2.0,1.25,0.5,2.5,0.0,0.0,1.0,0.5,5.75,2.5,5.75,8.75,0.27,-0.11,1.08,410.33,2.3,-58.5
3.96,0.0,0.25,0.25,0.75,1.25,0.25,1.25,1.25,0.25,1.75,0.5,2.0,2.25,-0.48,-0.36,0.39,164.2,-1.5,-43.9,0.0,0.5,0.0,0.5,0.25,0.0,0.0,0.5,0.25,5.5,2.5,5.5,8.5,0.39,-0.11,1.08,383.04,5.0,-86.4
3.98,0.25,0.5,0.25,0.25,1.25,0.25,1.25,1.0,0.5,1.75,1.0,2.0,2.25,-0.61,-0.8,1.02,176.78,-0.2,-43.8,0.75,1.5,0.0,0.5,0.25,0.0,0.0,0.25,0.5,6.0,2.5,5.75,8.25,0.39,-0.17,0.89,368.37,3.0,-74.0
4.0,0.5,0.25,0.25,0.25,1.75,0.25,1.25,1.0,0.5,1.75,0.5,2.0,2.0,-0.48,-0.92,0.83,185.09,-0.1,-36.7,0.0,0.5,2.0,0.5,1.5,0.0,0.0,1.25,0.25,4.75,2.0,5.25,8.0,0.52,-0.23,0.95,353.41,1.8,-65.7
4.02,0.0,0.0,1.0,0.5,0.5,0.25,1.25,1.0,0.25,1.75,0.5,2.0,2.25,-0.55,-0.92,0.95,181.68,0.9,-50.3,0.0,0.25,0.0,0.0,0.25,0.0,0.0,0.0,0.5,3.5,1.5,3.75,7.25,0.77,-0.67,1.14,309.0,5.8,-92.0
4.04,0.5,0.0,0.25,0.25,1.75,0.5,1.25,1.75,0.25,1.75,1.25,2.0,2.25,-0.86,-1.11,1.27,185.05,-1.6,-41.6,0.0,0.25,0.0,0.5,0.0,0.0,0.0,0.0,0.25,3.0,1.25,2.5,5.75,0.89,-1.17,1.64,261.86,5.7,-87.5
4.06,0.25,0.25,0.25,0.25,1.25,0.25,1.25,1.0,0.25,1.75,0.75,2.0,2.25,-0.92,-1.3,1.27,180.89,-1.1,-46.5,0.0,0.0,0.0,0.25,0.0,0.0,0.0,0.0,0.25,1.5,0.25,1.0,4.0,1.08,-1.11,1.33,189.74,8.2,-93.3
4.08,0.25,0.25,0.25,0.25,0.75,0.25,1.25,1.0,0.25,1.75,1.25,2.0,2.25,-0.92,-1.23,1.33,181.74,-0.4,-52.9,0.0,0.0,0.0,0.0,0.0,0.0,0.0,0.0,0.5,1.5,0.25,1.0,2.25,1.33,-1.55,0.2,117.32,6.8,-92.7
4.1,0.25,0.25,0.25,0.25,0.75,0.5,1.25,1.0,0.25,1.75,0.75,2.0,2.0,-0.86,-1.11,1.64,174.39,-1.1,-48.6,0.0,0.0,0.0,0.5,0.0,0.0,0.0,0.0,0.25,1.5,0.25,1.0,2.0,0.52,-0.73,1.27,59.0,5.0,-80.1
4.12,0.25,0.25,0.25,0.0,1.25,0.5,1.5,1.0,0.25,1.75,1.5,2.0,2.0,-0.67,-0.86,1.77,174.53,-0.6,-46.9,0.0,0.0,0.0,0.5,0.0,0.0,0.0,0.0,0.25,1.5,0.25,0.75,1.25,0.7,-0.3,1.58,24.85,4.3,-73.4
4.14,0.25,0.0,0.25,0.25,0.0,0.5,1.25,1.0,0.25,1.75,1.25,2.0,2.25,-0.67,-0.8,1.7,169.22,-1.0,-63.7,0.0,0.0,0.0,0.5,0.0,0.0,0.25,0.0,0.5,1.5,0.25,0.5,1.25,0.39,-0.3,1.7,7.82,3.2,-67.1
4.16,0.25,0.0,0.0,0.25,0.0,0.5,1.5,0.75,0.25,1.75,1.25,2.0,2.25,0.08,-0.3,1.95,161.5,-1.2,-66.4,0.0,0.0,0.0,0.0,0.0,0.0,0.0,0.0,0.25,1.5,0.25,0.5,1.25,-1.48,-1.61,2.2,0.0,8.2,-89.3
4.18,0.25,0.0,0.25,0.25,0.5,0.25,1.25,0.5,0.25,1.75,0.5,2.0,2.0,0.27,-1.23,1.33,153.58,-0.3,-57.9,0.0,0.25,0.0,0.25,0.25,0.0,0.0,0.0,0.5,1.0,0.25,0.5,1.25,0.52,0.02,1.45,0.0,3.1,-58.3
4.2,0.5,0.0,0.25,0.0,1.25,0.75,1.5,1.0,0.25,1.75,1.0,2.0,2.0,0.27,-2.55,1.14,156.2,-1.1,-44.4,0.0,0.0,0.0,0.5,0.25,0.0,0.0,0.0,0.25,1.5,0.25,0.5,1.25,-0.11,-0.11,2.14,7.74,5.0,-63.5
4.22,0.25,0.0,0.25,0.25,0.5,0.25,1.25,1.0,0.25,1.75,0.5,2.0,2.25,-0.48,-2.17,0.7,153.28,-1.5,-58.3,0.0,0.0,0.0,0.5,0.0,0.0,0.0,0.0,0.5,1.5,0.25,0.25,1.25,0.2,-0.3,1.08,16.3,4.9,-67.2
4.24,0.5,0.25,0.25,0.25,1.25,0.75,1.25,1.0,0.25,1.75,1.0,2.0,2.0,-0.86,-1.05,-0.17,161.1,-0.7,-39.8,0.0,0.0,0.0,0.0,0.5,0.0,0.0,0.0,0.25,1.5,0.25,0.25,1.0,0.08,-0.92,0.02,27.54,8.2,-65.1
4.26,0.5,0.0,0.25,0.25,0.75,0.25,1.5,0.5,0.25,1.75,0.0,2.0,1.5,-0.3,-0.17,0.02,151.83,1.0,-45.0,0.0,0.25,0.0,0.25,0.0,0.0,0.0,0.0,0.25,1.5,0.25,0.25,0.75,0.08,-1.55,-0.11,39.54,5.2,-60.2
4.28,0.25,0.25,0.25,0.25,0.75,0.25,1.75,0.5,0.25,1.75,0.75,2.0,2.0,-0.23,-0.17,0.95,150.73,0.8,-49.2,0.0,0.25,0.0,0.0,0.0,0.0,0.0,0.0,0.25,0.75,0.25,0.25,1.0,0.39,-1.11,0.2,42.27,5.3,-71.8
4.3,0.25,0.0,0.5,0.25,0.5,0.25,1.75,0.75,0.25,1.75,0.5,2.0,2.0,-0.55,-0.42,0.89,147.62,0.9,-52.3,0.0,0.0,0.0,0.25,0.25,0.0,0.0,0.0,0.25,0.75,0.25,0.25,1.25,0.64,-0.55,0.89,47.18,5.4,-66.9
4.32,0.0,0.5,0.25,0.25,0.5,0.25,1.5,0.75,0.25,1.75,1.25,2.0,2.0,-0.48,-0.61,0.45,151.79,0.2,-53.5,0.0,0.25,0.0,0.5,0.25,0.0,0.0,0.0,0.25,0.75,0.25,0.25,1.25,0.77,-1.05,0.77,50.09,2.6,-47.2
4.34,0.25,0.0,0.25,0.25,1.25,0.5,1.5,0.5,0.25,1.75,1.0,2.0,2.0,-0.11,-0.73,0.52,155.37,-0.2,-46.9,0.0,0.0,0.0,0.25,0.25,0.0,0.0,0.0,0.25,1.0,0.25,0.25,1.25,0.77,-0.92,0.77,53.21,6.1,-67.5
4.36,0.25,0.0,0.25,0.25,1.25,0.25,1.25,1.0,0.25,1.75,0.5,2.0,1.5,0.2,-0.98,0.45,155.35,-0.7,-44.7,0.0,0.0,0.0,0.25,0.25,0.0,0.0,0.0,0.25,0.75,0.25,0.5,0.75,0.45,-0.92,0.83,53.03,2.8,-63.1
4.38,0.25,0.0,0.25,0.5,0.75,0.25,1.5,0.5,0.25,1.75,1.0,2.0,1.25,0.27,-1.05,0.39,152.29,2.0,-47.0,0.0,0.0,0.0,0.0,0.25,0.0,0.0,0.0,0.25,0.5,0.0,0.25,1.0,0.33,-1.11,1.02,47.6,7.6,-74.4
4.4,0.0,0.0,0.25,0.25,1.25,0.25,1.75,1.0,0.25,1.75,1.0,2.0,2.0,0.02,-1.17,0.2,155.18,-0.9,-50.5,0.0,0.0,0.0,0.0,0.5,0.0,0.0,0.0,0.25,0.75,0.0,0.25,0.75,0.33,-1.11,0.77,43.01,7.3,-56.7
4.42,0.0,0.0,0.25,0.5,1.25,0.25,1.75,1.0,0.25,1.75,1.25,2.0,1.25,-0.23,-1.23,0.08,156.89,0.7,-44.2,0.0,0.25,0.0,0.25,0.25,0.0,0.0,0.0,0.25,0.25,0.25,0.0,0.75,0.27,-0.86,0.64,36.72,0.8,-32.4
4.44,0.0,0.25,0.25,0.75,1.75,0.25,1.75,1.0,0.25,1.75,0.5,2.0,1.5,-0.3,-1.3,-0.11,160.04,0.1,-33.2,0.0,0.25,0.25,0.25,0.25,0.0,0.0,0.0,0.25,0.5,0.25,0.25,0.75,0.2,-0.86,0.52,37.67,-1.9,-34.4
4.46,0.25,0.25,0.25,0.75,0.75,0.25,1.5,1.0,0.25,1.75,0.5,2.0,1.5,-0.23,-1.17,-0.3,159.53,0.9,-40.6,0.0,0.0,0.0,0.0,0.25,0.0,0.0,0.0,0.25,0.5,0.25,0.0,1.0,0.27,-0.98,0.45,37.19,7.4,-70.7
4.48,0.25,0.0,0.25,0.75,1.75,0.25,1.75,1.0,0.25,1.75,1.0,2.0,1.5,-0.17,-1.05,-0.23,163.85,1.0,-35.2,0.0,0.0,0.0,0.25,0.25,0.0,0.0,0.0,0.25,0.25,0.25,0.0,0.5,0.33,-0.98,0.33,34.29,1.0,-40.2
4.5,0.0,0.0,0.25,0.25,0.5,0.5,1.75,0.75,0.25,1.75,1.25,2.0,1.5,-0.11,-0.98,-0.17,161.24,0.1,-55.5,0.0,0.0,0.0,0.0,0.0,0.0,0.0,0.0,0.25,0.5,0.25,0.25,0.75,0.39,-0.86,0.2,32.56,5.2,-88.4
4.52,0.5,0.0,0.25,0.25,0.75,0.75,1.75,0.5,0.25,1.75,0.5,2.0,1.0,-0.11,-0.86,-0.17,153.48,1.5,-38.2,0.0,0.0,0.0,0.25,0.0,0.0,0.0,0.0,0.25,0.25,0.25,0.25,0.5,0.33,-0.8,0.08,29.44,-0.7,-65.4
4.54,0.0,0.5,0.25,0.5,1.75,0.25,1.75,1.0,0.25,1.75,0.5,2.0,1.25,-0.05,-0.67,-0.17,152.69,0.3,-30.5,0.0,0.25,0.0,0.25,0.25,0.0,0.0,0.0,0.25,0.5,0.25,0.0,0.75,0.2,-0.73,0.14,30.78,2.3,-36.6
4.56,0.25,0.0,0.25,0.5,1.25,0.25,1.75,1.0,0.25,1.75,1.0,2.0,1.5,0.08,-0.48,-0.23,154.56,0.8,-42.0,0.0,0.0,0.0,0.25,0.5,0.0,0.0,0.0,0.25,0.25,0.25,0.0,0.75,0.14,-0.61,-0.05,31.77,2.6,-36.3
4.58,0.0,0.25,0.25,0.75,0.75,0.25,1.75,1.0,0.25,1.75,1.25,2.0,1.75,0.08,-0.36,-0.23,160.06,0.9,-46.6,0.0,0.0,0.5,0.5,0.25,0.0,0.0,0.0,0.25,0.5,0.0,0.0,0.5,0.14,-0.55,-0.11,35.74,-6.1,-10.2
4.6,0.0,0.0,0.25,0.25,0.75,0.5,1.75,0.75,0.25,1.75,0.75,2.0,2.0,0.08,-0.23,-0.23,160.97,-1.1,-54.2,0.0,0.0,0.0,0.25,0.25,0.0,0.0,0.0,0.25,0.5,0.25,0.0,0.5,0.08,-0.42,-0.11,35.33,2.7,-44.5
4.62,0.25,0.25,0.25,0.75,1.25,0.25,1.5,1.0,0.25,1.75,0.5,2.0,1.25,0.02,-0.11,-0.36,159.88,1.1,-33.8,0.0,0.0,0.0,0.25,0.25,0.0,0.0,0.0,0.25,0.25,0.25,0.25,0.5,0.02,-0.3,-0.11,34.98,-0.1,-48.6
4.64,0.0,0.0,0.25,0.25,0.75,0.25,1.5,1.0,0.25,1.75,1.25,2.0,1.5,0.02,-0.05,-0.48,155.88,-0.2,-55.0,0.0,0.0,0.0,0.5,0.25,0.0,0.0,0.0,0.25,0.25,0.25,0.0,0.5,-0.05,-0.17,-0.23,32.7,-1.3,-27.7
4.66,0.0,0.25,0.25,0.0,0.5,0.5,1.75,0.75,0.25,1.75,1.0,2.0,1.5,-0.05,-0.05,-0.61,152.35,-0.2,-53.9,0.0,0.0,0.0,0.5,0.25,0.0,0.0,0.0,0.25,0.25,0.25,0.25,0.5,-0.17,-0.05,-0.42,33.35,-2.1,-36.5
4.68,0.25,0.0,0.25,0.75,1.25,0.25,1.75,1.0,0.25,1.75,0.5,2.0,1.0,-0.05,0.02,-0.67,150.16,1.5,-34.5,0.0,0.0,0.0,0.0,0.25,0.0,0.0,0.0,0.25,0.25,0.0,0.25,0.5,-0.3,0.08,-0.61,30.34,4.3,-62.4
4.7,0.0,0.25,0.25,0.5,1.25,0.5,1.5,0.75,0.25,1.75,1.0,2.0,1.5,-0.05,0.08,-0.8,152.9,0.0,-40.9,0.0,0.0,0.0,0.5,0.25,0.0,0.0,0.0,0.25,0.25,0.25,0.25,0.75,-0.42,0.14,-0.73,34.16,-0.5,-43.9
4.72,0.0,0.25,0.25,0.25,1.25,0.25,1.5,0.75,0.25,1.75,1.25,2.0,1.75,0.02,0.08,-0.86,156.53,0.0,-47.3,0.0,0.0,0.5,0.25,1.0,0.0,0.0,0.0,0.25,0.25,0.25,0.0,0.5,-0.55,0.2,-0.86,40.22,-4.7,1.6
4.74,0.0,0.0,0.25,0.5,0.75,0.25,1.75,0.5,0.25,1.75,0.5,2.0,1.25,0.02,0.08,-0.92,152.03,1.1,-48.3,0.0,0.25,0.0,0.25,0.0,0.0,0.0,0.0,0.25,0.25,0.25,0.0,0.5,-0.67,0.2,-0.86,38.13,-1.3,-35.2
4.76,0.0,0.0,0.25,0.5,1.25,0.25,1.5,1.0,0.25,1.75,0.75,2.0,1.5,0.08,0.02,-0.92,152.32,-0.4,-45.2,0.0,0.0,0.0,0.5,0.25,0.0,0.0,0.0,0.25,0.25,0.0,0.25,0.75,-0.73,0.27,-0.86,38.27,0.5,-40.6
4.78,0.0,0.0,0.5,0.5,1.75,0.25,1.5,0.75,0.25,1.75,1.25,2.0,1.5,0.14,0.08,-0.98,154.75,1.0,-39.3,0.0,0.0,0.0,0.25,0.0,0.0,0.0,0.0,0.25,0.25,0.25,0.0,0.5,-0.73,0.27,-0.92,32.48,0.5,-58.1
4.8,0.25,0.0,0.25,0.0,1.75,0.25,1.5,0.75,0.25,1.75,1.0,2.0,1.25,0.14,0.08,-0.98,155.93,0.2,-41.0,0.0,0.0,0.0,0.5,0.25,0.0,0.0,0.0,0.25,0.25,0.0,0.0,0.75,-0.73,0.33,-0.92,31.51,1.6,-32.3
4.82,0.5,0.25,0.25,0.25,0.75,0.25,1.5,0.75,0.25,1.75,1.5,2.0,1.25,0.14,0.02,-1.05,157.27,2.6,-44.0,0.0,0.0,0.0,0.0,0.0,0.0,0.0,0.0,0.0,0.25,0.0,0.0,0.5,-0.67,0.33,-1.05,23.71,14.3,-98.6
4.84,0.5,0.25,0.25,0.5,0.0,0.25,1.5,1.0,0.25,1.75,1.25,2.0,1.5,0.14,0.02,-1.11,157.34,2.4,-50.4,0.0,0.0,0.0,0.5,0.25,0.0,0.0,0.0,0.25,0.25,0.0,0.0,0.5,-0.61,0.33,-1.11,24.35,0.0,-21.4
4.86,0.25,0.0,0.25,1.0,1.75,0.0,1.5,0.75,0.25,1.75,1.25,2.0,1.25,0.2,0.08,-1.11,160.16,2.4,-34.2,0.0,0.0,0.0,0.25,0.0,0.0,0.0,0.0,0.25,0.25,0.0,0.0,0.75,-0.55,0.33,-1.17,22.73,4.5,-64.0
4.88,0.0,0.25,0.25,0.75,0.75,0.25,1.5,0.75,0.25,1.75,1.75,2.0,1.25,0.2,0.08,-1.11,160.88,2.1,-45.9,0.0,0.25,0.0,0.25,0.0,0.0,0.25,0.0,0.0,0.25,0.0,0.0,0.5,-0.48,0.27,-1.17,22.15,-0.4,-22.4
4.9,0.25,0.0,0.25,0.75,0.75,0.25,1.5,0.75,0.25,1.75,1.0,2.0,0.75,0.14,0.02,-1.05,156.43,2.8,-40.6,0.0,0.0,0.5,0.25,0.0,0.0,0.0,0.0,0.0,0.25,0.0,0.0,0.5,-0.36,0.2,-1.11,21.42,-8.5,-18.7
4.92,0.0,0.25,0.25,1.0,0.5,0.25,1.5,0.75,0.25,1.75,0.75,2.0,1.25,0.2,0.02,-1.05,151.78,1.8,-43.1,0.0,0.0,0.0,0.5,0.0,0.0,0.0,0.0,0.25,0.5,0.0,0.25,0.75,-0.36,0.14,-1.11,26.47,1.8,-56.3
4.94,0.25,0.0,0.25,0.0,0.75,0.25,1.75,0.75,0.25,1.75,1.25,2.0,1.25,0.2,-0.05,-0.98,147.52,1.3,-52.3,0.0,0.0,0.0,0.5,0.0,0.0,0.0,0.0,0.25,0.25,0.0,0.0,0.5,-0.3,0.02,-1.05,25.53,-0.6,-35.5
4.96,0.0,0.0,0.25,1.0,1.25,0.5,1.5,1.0,0.0,1.75,0.75,2.0,1.5,0.2,-0.05,-0.98,150.59,-0.3,-38.7,0.0,0.0,0.0,0.25,0.25,0.0,0.0,0.0,0.0,0.5,0.0,0.0,0.5,-0.23,-0.05,-1.05,25.95,7.2,-40.6
4.98,0.0,0.0,0.25,0.75,0.5,0.25,1.5,1.0,0.25,1.75,0.75,2.0,1.0,0.27,-0.17,-0.92,148.09,1.0,-47.9,0.0,0.0,0.0,0.25,0.25,0.0,0.0,0.0,0.0,0.25,0.0,0.0,0.5,-0.23,-0.11,-0.98,24.37,5.6,-34.0
5.0,0.25,0.5,0.25,0.25,1.25,0.25,1.75,0.75,0.25,1.75,1.0,2.0,1.25,0.27,-0.23,-0.8,150.34,1.8,-36.2,0.0,0.0,0.0,0.25,0.0,0.0,0.0,0.0,0.25,0.25,0.0,0.0,0.75,-0.17,-0.17,-0.92,24.06,4.5,-64.0
5.02,0.0,0.0,0.25,1.0,0.75,0.25,1.75,0.75,0.25,1.75,1.0,2.0,1.25,0.27,-0.36,-0.67,149.85,1.9,-43.9,0.0,0.0,0.0,0.5,0.0,0.0,0.0,0.0,0.0,0.0,0.0,0.0,0.5,-0.17,-0.17,-0.8,20.82,-1.8,-25.2
5.04,0.0,0.25,0.25,1.0,0.0,0.25,1.5,0.75,0.25,1.75,1.25,2.0,1.0,0.2,-0.61,-0.55,148.79,3.0,-48.8,0.0,0.0,0.0,0.0,0.0,0.0,0.0,0.0,0.0,0.25,0.0,0.25,0.5,-0.11,-0.17,-0.55,19.68,8.6,-101.4
5.06,0.0,0.0,0.25,0.25,0.75,0.5,1.5,0.75,0.25,1.75,1.0,2.0,1.25,0.2,-0.73,-0.42,146.4,-0.2,-51.2,0.0,0.0,0.0,0.25,0.0,0.0,0.0,0.0,0.0,0.25,0.0,0.0,0.75,-0.05,-0.17,-0.48,19.79,7.7,-68.9
5.08,0.5,0.0,0.25,0.75,1.25,0.5,1.5,0.75,0.25,1.75,1.25,2.0,1.0,0.2,-0.8,-0.23,150.19,2.4,-33.5,0.0,0.0,0.0,0.5,0.0,0.0,0.0,0.0,0.0,0.25,0.0,0.0,0.5,0.02,-0.3,-0.48,19.04,1.5,-35.0
5.1,0.25,0.25,0.25,0.75,1.25,0.25,1.25,0.5,0.25,1.75,0.75,2.0,1.25,0.45,-0.73,-0.3,150.45,1.8,-35.3,0.0,0.0,0.0,0.25,0.0,0.0,0.0,0.0,0.0,0.25,0.0,0.0,0.5,0.02,-0.55,-0.42,18.14,6.3,-58.7
5.12,0.0,0.0,0.25,1.0,1.25,0.25,1.5,0.75,0.25,1.75,0.5,2.0,1.25,0.02,-0.67,-0.48,151.71,0.8,-37.7,0.0,0.0,0.0,0.25,0.0,0.0,0.0,0.0,0.0,0.25,0.0,0.0,0.5,0.08,-0.73,-0.36,17.27,6.3,-58.7
5.14,0.0,0.0,0.25,1.25,1.25,0.5,1.25,0.75,0.25,1.75,1.0,2.0,1.25,0.27,-0.67,-0.42,155.52,0.8,-36.3,0.0,0.0,0.0,0.5,0.0,0.0,0.0,0.0,0.0,0.0,0.0,0.0,0.5,0.02,-0.98,0.02,15.69,-1.8,-25.2
5.16,0.5,0.25,0.25,0.5,1.25,0.25,1.25,0.75,0.25,1.75,1.0,2.0,1.0,0.27,-0.67,-0.36,155.04,2.3,-33.8,0.0,0.0,0.0,0.5,0.0,0.0,0.0,0.0,0.0,0.25,0.25,0.0,0.5,0.27,-0.86,-0.3,17.51,-0.4,-41.4
5.18,0.0,0.0,0.25,1.0,1.25,0.25,1.25,0.5,0.25,1.75,1.25,2.0,1.25,0.14,-0.73,-0.23,155.7,1.6,-41.0,0.0,0.0,0.0,0.5,0.0,0.0,0.0,0.0,0.0,0.25,0.0,0.0,0.5,0.2,-0.98,0.02,19.19,1.5,-35.0
5.2,0.0,0.0,0.25,1.0,1.25,0.25,1.25,0.75,0.25,1.75,1.25,2.0,1.25,0.14,-0.73,-0.23,156.97,1.2,-41.0,0.0,0.0,0.0,0.0,0.0,0.0,0.25,0.0,0.0,0.25,0.25,0.0,0.5,0.2,-0.8,-0.05,20.26,3.9,-80.2
5.22,0.25,0.0,0.25,1.25,1.75,0.25,1.25,0.75,0.25,1.75,1.25,2.0,1.0,0.08,-0.8,-0.23,161.45,2.3,-29.7,0.0,0.0,0.0,0.0,0.0,0.0,0.0,0.0,0.0,0.25,0.25,0.0,0.5,0.2,-0.8,-0.11,19.78,8.3,-93.0
5.24,0.0,0.0,0.25,0.25,0.5,0.25,1.25,0.75,0.25,1.75,0.75,2.0,1.25,0.08,-0.86,-0.17,153.43,-0.3,-57.5,0.0,0.0,0.0,0.25,0.0,0.0,0.0,0.0,0.0,0.0,0.0,0.0,0.5,0.2,-0.86,-0.17,17.25,3.2,-53.2
5.26,0.0,0.25,0.25,0.75,1.25,0.0,1.25,0.75,0.0,1.75,1.0,2.0,1.0,0.02,-1.05,-0.17,150.14,1.5,-39.1,0.0,0.0,0.0,0.5,0.0,0.0,0.0,0.0,0.0,0.25,0.25,0.0,0.5,0.27,-0.8,-0.17,19.13,-0.4,-41.4
5.28,0.0,0.25,0.25,0.0,1.25,0.25,1.25,0.75,0.25,1.75,0.75,2.0,1.25,0.02,-0.98,-0.05,145.23,-0.7,-46.3,0.0,0.0,0.0,0.5,0.0,0.0,0.0,0.0,0.0,0.25,0.0,0.0,0.5,0.2,-0.8,-0.17,19.34,1.5,-35.0
5.3,0.0,0.25,0.25,0.25,0.75,0.0,1.25,0.75,0.25,1.75,1.0,2.0,1.0,-0.05,-0.98,0.02,140.84,1.2,-50.8,0.0,0.0,0.25,0.25,0.0,0.0,0.0,0.0,0.0,0.25,0.25,0.0,0.5,0.2,-0.73,-0.11,21.98,-3.9,-41.1
5.32,0.25,0.25,0.25,0.5,1.25,0.5,1.5,0.75,0.25,1.75,1.0,2.0,0.5,-0.05,-1.05,0.08,140.04,2.1,-30.7,0.0,0.0,0.0,0.5,0.0,0.0,0.0,0.0,0.0,0.0,0.0,0.0,0.5,0.2,-0.73,-0.05,20.6,-1.8,-25.2
5.34,0.25,0.5,0.25,0.75,0.75,0.25,1.25,0.75,0.25,1.75,0.75,2.0,1.0,-0.05,-1.11,0.08,141.68,2.3,-35.1,0.0,0.0,0.0,0.25,0.0,0.0,0.0,0.0,0.0,0.0,0.0,0.0,0.5,0.14,-0.8,0.02,18.31,3.2,-53.2
5.36,0.0,0.25,0.25,0.25,0.75,0.25,1.25,0.75,0.25,1.75,0.75,2.0,1.0,0.02,-1.11,0.14,139.49,0.3,-47.9,0.0,0.0,0.0,0.25,0.0,0.0,0.0,0.0,0.0,0.25,0.0,0.0,0.5,0.14,-0.8,0.02,16.46,6.3,-58.7
5.38,0.0,0.0,0.25,0.25,1.25,0.25,1.5,0.75,0.25,1.75,1.0,2.0,1.25,0.02,-1.11,0.14,141.05,0.0,-47.1,0.0,0.0,0.0,0.5,0.0,0.0,0.0,0.0,0.0,0.25,0.0,0.0,0.5,0.14,-0.86,0.08,16.91,1.5,-35.0
5.4,0.0,0.0,0.25,0.25,1.25,0.0,1.25,0.5,0.25,1.75,0.5,2.0,1.0,0.02,-1.11,0.2,137.11,0.5,-47.2,0.0,0.0,0.0,0.25,0.0,0.0,0.0,0.0,0.0,0.0,0.0,0.25,0.5,0.2,-0.86,0.14,17.03,0.3,-67.0
5.42,0.25,0.0,0.25,1.0,1.75,0.25,1.5,0.75,0.25,1.75,1.25,2.0,1.0,-0.05,-1.17,0.2,145.28,2.3,-31.1,0.0,0.0,0.0,0.25,0.0,0.0,0.0,0.0,0.0,0.0,0.0,0.0,0.5,0.2,-0.86,0.27,16.1,3.2,-53.2
5.44,0.25,0.25,0.25,0.25,0.75,0.25,1.25,0.75,0.25,1.75,0.75,2.0,1.0,-0.11,-1.17,0.27,143.25,1.2,-44.2,0.0,0.0,0.0,0.25,0.0,0.0,0.0,0.0,0.0,0.25,0.0,0.0,0.5,0.27,-0.86,0.27,16.13,6.3,-58.7
5.46,0.0,0.0,0.25,0.5,0.75,0.0,1.25,0.75,0.25,1.75,0.75,2.0,1.0,-0.11,-1.17,0.27,142.59,1.1,-51.2,0.0,0.0,0.0,0.5,0.0,0.0,0.0,0.0,0.0,0.0,0.0,0.0,0.5,0.27,-0.92,0.33,15.49,-1.8,-25.2
5.48,0.0,0.0,0.25,1.0,0.75,0.25,1.25,0.75,0.25,1.75,1.0,2.0,0.75,-0.17,-1.11,0.2,141.08,2.0,-42.1,0.0,0.0,0.0,0.5,0.0,0.0,0.0,0.0,0.0,0.25,0.25,0.0,0.5,0.33,-0.92,0.33,18.42,-0.4,-41.4
5.5,0.0,0.0,0.25,0.5,0.5,0.5,1.25,0.5,0.25,1.75,1.25,2.0,1.0,-0.17,-1.05,0.27,139.94,1.0,-51.8,0.0,0.0,0.0,0.25,0.25,0.0,0.0,0.0,0.0,0.0,0.0,0.0,0.5,0.33,-0.98,0.39,17.98,3.2,-24.2
5.52,0.0,0.0,0.25,0.5,1.25,0.0,1.25,0.5,0.25,1.75,1.25,2.0,1.0,-0.17,-1.05,0.33,140.69,1.8,-46.4,0.0,0.0,0.0,0.25,0.0,0.0,0.0,0.0,0.0,0.0,0.25,0.0,0.5,0.39,-0.98,0.45,18.66,0.0,-58.5
5.54,0.0,0.0,0.25,0.75,1.25,0.25,1.25,0.25,0.25,1.75,1.25,2.0,1.25,-0.17,-1.05,0.33,144.35,1.6,-43.7,0.0,0.0,0.0,0.5,0.0,0.0,0.25,0.0,0.0,0.25,0.0,0.0,0.5,0.39,-1.05,0.52,19.39,-1.3,-29.6
5.56,0.75,0.25,0.25,0.0,0.75,0.25,1.25,0.5,0.25,1.75,0.75,2.0,1.0,-0.11,-1.05,0.33,142.86,2.9,-40.0,0.0,0.0,0.0,0.0,0.25,0.0,0.0,0.0,0.0,0.0,0.0,0.0,0.5,0.45,-1.05,0.52,17.98,9.9,-51.0
5.58,0.0,0.25,0.25,0.5,1.25,0.0,1.5,0.75,0.25,1.75,0.5,2.0,1.0,-0.11,-1.11,0.33,141.83,1.3,-39.1,0.0,0.0,0.0,0.5,0.25,0.0,0.0,0.0,0.0,0.0,0.25,0.0,0.5,0.39,-1.05,0.52,20.07,-2.3,-18.4
5.6,0.5,0.0,0.25,1.0,1.25,0.25,1.25,0.5,0.25,1.75,0.5,2.0,1.0,-0.11,-1.11,0.45,141.96,2.9,-30.3,0.0,0.0,0.0,0.0,0.25,0.0,0.0,0.0,0.0,0.25,0.0,0.0,0.5,0.33,-0.98,0.58,19.25,11.3,-56.8
5.62,0.0,0.25,0.25,0.25,1.25,0.5,1.25,0.5,0.0,2.0,0.5,2.0,1.0,-0.11,-1.17,0.45,140.4,-1.0,-40.0,0.0,0.0,0.0,0.5,0.25,0.0,0.0,0.0,0.0,0.25,0.0,0.0,0.5,0.33,-0.92,0.58,21.93,1.8,-18.7
5.64,0.0,0.5,0.25,0.0,0.5,0.0,1.25,0.5,0.25,1.75,0.75,2.0,0.75,-0.23,-1.23,0.45,134.34,2.0,-51.0,0.0,0.0,0.0,0.5,0.25,0.0,0.0,0.0,0.0,0.25,0.0,0.0,0.5,0.45,-0.92,0.52,23.26,1.8,-18.7
5.66,0.25,0.0,0.25,0.5,0.75,0.0,1.25,0.75,0.0,1.75,0.75,2.0,1.0,-0.36,-1.23,0.45,131.11,1.7,-47.6,0.0,0.0,0.0,0.5,0.5,0.0,0.25,0.0,0.0,0.5,0.25,0.0,0.75,0.45,-0.86,0.58,31.22,1.7,-27.8
5.68,0.0,0.25,0.25,0.5,1.25,0.25,1.25,0.5,0.25,1.75,0.75,2.0,1.0,-0.36,-1.23,0.45,133.59,1.0,-39.1,0.0,0.0,0.0,0.0,1.0,0.0,0.0,0.0,0.0,0.0,0.0,0.0,0.75,0.45,-0.92,0.58,33.01,7.4,-11.8
5.7,0.5,0.0,0.25,0.25,0.5,0.25,1.5,0.5,0.25,1.75,0.75,2.0,0.5,-0.36,-1.17,0.45,130.43,3.9,-43.1,0.0,0.0,0.0,0.5,0.0,0.0,0.25,0.0,0.0,0.75,0.25,0.0,0.75,0.52,-0.98,0.58,37.96,2.8,-52.3
5.72,0.0,0.25,0.25,0.0,1.25,0.25,1.25,0.5,0.25,1.75,1.25,2.0,1.25,-0.36,-1.11,0.39,135.55,0.2,-47.9,0.0,0.0,0.0,0.75,0.5,0.0,0.5,0.0,0.25,0.5,0.25,0.25,0.75,0.58,-1.05,0.58,45.34,-2.4,-26.1
5.74,0.0,0.25,0.25,0.75,1.75,0.0,1.25,0.5,0.0,1.25,1.25,2.0,0.75,-0.36,-1.3,0.45,137.15,3.2,-30.7,0.75,0.5,0.5,0.75,0.5,1.25,0.5,1.0,0.5,1.5,0.25,0.75,1.5,0.58,-1.11,0.52,86.12,0.3,-16.6
