time,left pressure 0[N/cm虏],left pressure 1[N/cm虏],left pressure 2[N/cm虏],left pressure 3[N/cm虏],left pressure 4[N/cm虏],left pressure 5[N/cm虏],left pressure 6[N/cm虏],left pressure 7[N/cm虏],left pressure 8[N/cm虏],left pressure 9[N/cm虏],left pressure 10[N/cm虏],left pressure 11[N/cm虏],left pressure 12[N/cm虏],left acceleration X[g],left acceleration Y[g],left acceleration Z[g],left total force[N],left center of pressure X[mm],left center of pressure Y[mm],right pressure 0[N/cm虏],right pressure 1[N/cm虏],right pressure 2[N/cm虏],right pressure 3[N/cm虏],right pressure 4[N/cm虏],right pressure 5[N/cm虏],right pressure 6[N/cm虏],right pressure 7[N/cm虏],right pressure 8[N/cm虏],right pressure 9[N/cm虏],right pressure 10[N/cm虏],right pressure 11[N/cm虏],right pressure 12[N/cm虏],right acceleration X[g],right acceleration Y[g],right acceleration Z[g],right total force[N],right center of pressure X[mm],right center of pressure Y[mm]
0.02,0.5,0.0,0.0,0.0,0.0,0.25,0.25,1.0,0.75,0.75,1.25,0.5,0.5,-0.17,0.08,0.83,29.99,1.0,-48.7,3.5,1.25,5.0,4.0,2.75,3.75,5.0,4.75,5.5,6.75,8.5,6.5,6.75,0.08,0.08,0.95,910.79,-5.1,-26.5
0.04,0.5,0.0,0.5,1.0,3.75,0.0,0.75,1.0,1.0,0.75,1.25,0.5,0.75,-0.11,0.27,0.77,93.48,3.4,1.3,3.0,1.5,5.25,4.0,2.75,3.75,5.0,4.75,5.75,6.5,8.5,6.0,6.75,0.08,0.08,0.95,909.6,-5.1,-25.8
0.06,0.5,0.0,0.5,0.25,3.75,0.75,0.75,1.25,1.0,0.0,1.25,0.5,0.5,-0.17,0.27,0.77,142.41,2.0,6.2,3.25,1.5,5.25,4.75,2.75,3.75,5.5,4.75,5.75,6.5,8.5,6.0,6.25,0.08,0.08,0.95,916.6,-5.7,-23.3
0.08,0.25,0.5,0.5,0.5,3.75,0.5,1.0,1.0,0.75,2.5,1.25,0.5,1.25,-1.67,2.58,2.39,185.36,-0.9,-10.2,4.0,1.75,5.25,5.25,3.0,3.75,5.5,4.75,5.75,6.25,8.5,5.75,6.0,0.08,0.08,0.95,931.05,-6.2,-19.5
0.1,0.75,0.75,0.0,0.0,3.5,0.75,1.0,2.25,1.5,2.5,2.5,2.75,1.5,-0.23,0.2,1.02,229.73,-0.4,-29.8,4.5,1.75,6.0,5.75,3.0,3.75,6.0,4.75,5.75,5.25,8.0,5.25,5.5,0.08,0.08,0.95,945.94,-7.5,-14.0
0.12,0.75,1.25,0.0,0.25,3.75,1.25,1.25,3.0,2.0,2.5,3.5,3.75,3.25,-0.11,-0.11,0.89,286.0,-0.6,-34.7,5.0,2.0,6.75,5.75,3.0,3.75,6.5,3.75,5.75,4.75,7.5,4.25,4.25,0.08,0.08,0.95,943.87,-9.2,-6.5
0.14,0.5,1.0,0.5,1.25,3.75,1.5,1.5,3.0,2.25,3.5,4.75,5.0,4.75,-0.05,-0.05,0.95,366.37,0.0,-40.6,5.5,2.0,7.75,6.0,3.25,3.25,6.75,3.5,5.25,3.5,6.25,3.0,2.5,0.08,0.08,0.95,913.48,-11.7,5.1
0.16,1.0,1.25,0.5,1.75,3.75,1.75,1.75,3.0,2.75,4.75,4.75,5.0,5.0,-0.05,-0.05,0.95,461.13,0.1,-37.4,5.25,0.75,8.5,5.75,3.25,2.5,7.25,3.5,3.5,0.5,4.75,1.5,2.25,0.02,0.08,1.02,821.69,-14.6,16.2
0.18,1.0,1.25,0.0,1.75,4.25,1.75,2.25,3.0,3.0,4.75,5.5,6.0,5.5,-0.05,-0.05,0.95,554.98,0.1,-40.5,5.0,0.75,9.0,5.0,3.75,2.0,7.25,2.5,3.25,2.0,2.5,1.5,0.0,0.08,0.08,1.14,714.69,-16.4,26.0
0.2,1.0,1.25,0.0,2.0,4.25,2.5,2.25,3.5,3.5,5.75,6.25,6.75,6.0,-0.05,-0.05,0.95,645.39,-0.3,-42.0,6.75,2.0,9.25,5.5,1.25,0.5,6.5,2.0,2.0,0.5,2.25,0.25,0.0,0.02,0.08,1.39,600.06,-22.5,43.0
0.22,0.75,1.25,0.0,2.0,4.25,1.75,2.5,4.75,3.75,6.5,6.75,6.75,6.75,-0.05,-0.05,0.95,726.28,-0.8,-45.5,5.75,0.25,9.25,4.75,0.0,0.25,5.75,2.0,2.0,0.5,2.25,0.25,0.0,0.08,0.14,1.58,486.54,-24.4,37.3
0.24,1.25,1.25,0.0,2.0,4.25,2.25,2.75,4.75,4.25,6.25,7.25,7.5,7.0,-0.05,-0.05,0.95,797.3,-0.2,-44.6,5.75,0.25,9.25,3.25,0.0,0.0,4.25,2.0,1.5,0.5,1.5,0.25,0.25,0.08,0.2,1.77,390.58,-25.3,39.4
0.26,1.25,1.25,0.5,2.0,4.5,3.0,3.0,4.75,4.5,7.0,8.0,7.75,7.75,-0.05,-0.05,0.95,868.53,-0.2,-43.9,5.25,0.25,8.0,2.0,0.0,0.0,4.0,2.0,1.5,0.0,2.0,0.25,0.25,0.27,0.39,1.77,319.68,-25.3,36.2
0.28,1.25,1.25,0.5,2.25,4.5,3.0,3.0,5.0,5.0,7.5,8.0,8.5,7.75,-0.05,-0.05,0.95,932.55,-0.1,-44.6,2.0,0.0,6.75,1.25,0.0,0.0,3.25,2.0,1.5,0.0,1.75,0.0,0.25,0.64,0.7,1.89,253.05,-23.5,25.3
0.3,1.25,1.5,0.0,2.75,4.5,3.0,3.5,5.75,5.25,7.5,8.25,7.75,7.75,-0.05,-0.05,0.95,980.71,-0.4,-42.8,0.75,0.0,3.5,1.25,0.0,0.0,2.25,1.75,1.25,0.0,0.0,0.25,0.0,0.58,0.2,1.83,169.24,-20.9,25.2
0.32,1.25,1.25,0.0,3.0,4.75,2.75,3.75,5.75,5.25,6.5,8.25,7.5,7.0,-0.05,-0.05,0.95,982.29,0.1,-40.8,0.75,0.0,2.75,1.25,0.0,0.25,0.25,2.0,1.25,0.0,0.0,0.25,0.25,2.02,-0.92,0.83,93.82,-15.0,16.5
0.34,1.25,1.25,0.0,4.5,4.5,3.5,4.25,5.75,5.25,6.25,8.0,6.75,7.0,-0.05,-0.05,0.95,965.74,0.4,-36.1,0.5,0.0,1.75,1.25,0.0,0.25,1.0,2.0,1.0,0.0,0.0,0.0,0.0,2.2,-0.8,0.83,33.9,-13.2,18.8
0.36,1.25,1.25,0.0,5.25,4.5,4.0,4.25,5.75,5.5,6.0,7.25,6.0,6.5,-0.05,-0.05,0.95,927.54,0.4,-31.9,0.75,0.0,1.5,1.25,0.0,0.25,1.75,1.75,1.0,0.0,0.0,0.0,0.25,1.2,-0.67,0.77,8.85,-14.0,17.7
0.38,1.25,1.25,0.25,4.75,5.0,4.0,5.0,5.75,5.5,4.75,6.75,5.5,6.0,-0.05,-0.05,0.95,877.3,1.0,-28.1,0.5,0.0,1.75,0.0,0.0,0.0,1.5,1.75,1.0,0.0,0.0,0.25,0.25,0.64,-0.67,0.83,0.0,-14.4,2.2
0.4,1.25,1.25,2.5,6.25,6.5,4.5,5.5,5.75,5.5,4.75,6.25,5.0,5.0,-0.05,-0.05,0.95,871.07,2.8,-16.5,0.5,0.0,1.5,0.5,0.0,0.5,1.5,1.75,1.0,0.25,0.0,0.25,0.25,0.64,-0.73,0.89,11.59,-10.3,3.5
0.42,1.75,1.25,3.5,6.5,7.0,5.0,5.75,5.75,5.5,5.0,5.75,3.5,4.5,-0.05,-0.05,0.95,879.67,3.4,-9.3,0.5,0.0,1.5,1.25,0.0,0.0,1.5,1.25,1.0,0.0,0.0,0.25,0.0,0.39,-0.61,1.08,19.76,-17.5,18.6
0.44,1.25,1.5,5.25,8.0,7.0,5.25,6.25,5.75,5.25,3.5,4.75,2.75,3.25,-0.05,-0.05,0.95,893.59,5.3,1.1,0.5,0.0,1.25,0.75,0.0,0.25,1.5,1.25,1.0,0.0,0.0,0.25,0.0,0.2,-0.42,1.14,30.86,-15.1,13.9
0.46,1.25,1.5,5.5,8.5,7.75,5.75,6.75,5.25,5.0,3.0,4.75,2.0,2.75,-0.05,-0.05,0.95,903.66,5.8,6.6,0.25,0.0,1.5,0.0,0.0,0.0,1.25,1.25,1.0,0.0,0.0,0.0,0.0,0.02,-0.3,1.2,34.45,-16.8,10.1
0.48,2.5,1.75,6.75,10.0,8.75,6.0,7.5,5.0,4.5,3.5,3.5,2.25,2.0,-0.05,0.02,0.95,943.97,7.2,14.8,0.75,0.0,1.25,1.0,0.0,0.0,1.25,1.25,0.75,0.0,0.0,0.0,0.25,-0.05,-0.17,1.2,46.19,-16.2,20.2
0.5,3.25,2.5,8.0,12.5,8.75,6.5,7.75,4.75,4.0,2.5,3.25,1.25,1.5,-0.05,0.02,0.95,1001.23,9.0,24.9,0.0,0.0,1.0,0.5,0.0,0.0,1.5,1.0,1.0,0.0,0.5,0.0,0.0,-0.11,0.02,1.33,51.58,-15.2,-0.1
0.52,3.25,2.75,9.0,14.0,10.5,6.75,7.5,4.5,3.0,3.0,2.5,1.25,1.25,-0.05,0.02,1.02,1087.65,9.0,29.4,0.5,0.0,1.25,0.5,0.0,0.0,1.0,0.75,1.0,0.0,0.25,0.0,0.0,-0.05,0.27,1.33,61.47,-19.4,17.3
0.54,4.25,2.75,9.75,16.0,11.0,6.75,7.5,3.75,2.75,2.25,2.25,0.5,1.25,-0.05,0.02,1.08,1179.63,10.4,35.7,0.0,0.0,1.0,0.5,0.0,0.0,1.0,0.75,1.0,0.0,0.25,0.25,0.0,0.02,0.45,1.39,63.31,-16.0,-1.5
0.56,4.75,3.0,10.5,17.5,13.0,6.75,7.0,3.25,2.5,2.0,2.0,0.5,1.25,-0.05,0.08,1.08,1286.15,10.8,39.2,0.5,0.0,1.0,0.5,0.0,0.0,1.0,0.75,1.0,0.0,0.25,0.0,0.0,-0.05,0.83,1.52,63.71,-18.3,14.8
0.58,5.75,3.0,11.0,19.0,13.5,6.75,7.0,3.0,1.75,1.25,1.75,0.5,1.25,-0.05,0.08,1.14,1354.99,11.6,43.2,0.25,0.0,1.0,1.0,0.0,0.0,1.0,1.0,1.0,0.0,0.5,0.25,0.0,-0.23,1.33,1.45,68.31,-15.2,3.4
0.6,6.75,3.0,12.0,16.5,14.0,5.5,6.25,3.0,2.0,1.75,0.75,1.0,1.25,-0.05,0.14,1.14,1392.71,12.3,43.3,0.25,0.0,0.75,1.25,0.0,0.0,1.0,0.75,1.0,0.0,0.5,0.0,0.0,-0.67,1.83,1.27,71.67,-16.0,11.0
0.62,7.25,3.0,11.5,17.5,13.0,4.0,4.25,3.0,1.25,0.75,1.25,0.25,1.25,-0.05,0.14,1.14,1382.16,13.4,47.5,0.75,0.0,0.75,0.5,0.0,0.25,1.0,0.75,1.0,0.0,0.25,0.0,0.0,-1.11,2.33,1.02,74.13,-16.0,17.4
0.64,7.75,3.0,11.0,16.0,13.0,1.75,3.0,1.25,1.0,0.0,0.5,0.0,0.25,-0.11,0.2,1.2,1301.59,16.2,57.5,0.0,0.0,0.75,0.5,0.0,0.0,1.0,0.5,1.0,0.0,0.25,0.0,0.0,-0.98,2.7,0.83,66.57,-17.2,4.2
0.66,7.75,3.0,11.0,16.0,12.5,0.75,1.5,1.0,1.0,0.0,0.25,0.25,0.0,-0.17,0.27,1.27,1174.54,17.1,59.3,0.5,0.0,0.5,0.25,0.0,0.0,0.75,0.75,1.0,0.0,0.25,0.25,0.0,-0.73,2.7,0.52,62.09,-14.7,-2.7
0.68,7.5,3.0,10.5,14.0,11.0,0.25,2.0,1.0,1.0,0.0,0.0,0.0,0.0,-0.23,0.33,1.64,1026.55,18.0,60.9,0.25,0.0,0.0,0.0,0.0,0.0,0.75,0.75,0.75,0.5,0.75,1.5,0.25,-2.23,3.58,0.02,65.74,-5.1,-61.2
0.7,6.75,2.75,8.0,10.0,8.75,0.0,2.25,1.0,1.0,0.0,0.0,0.0,0.0,-0.3,0.7,1.95,841.31,18.2,60.9,0.5,0.0,0.75,0.0,0.0,0.5,0.75,1.25,1.0,3.75,2.25,5.5,5.5,-1.11,-0.48,2.02,161.31,1.2,-76.6
0.72,5.5,1.25,6.25,7.5,8.75,0.0,1.75,1.0,1.0,0.0,0.0,0.0,0.0,-0.55,1.52,2.64,646.64,16.8,58.3,0.25,0.0,0.25,0.0,0.0,0.0,0.75,2.0,1.25,5.75,3.75,6.0,7.25,-0.42,0.2,1.08,263.92,3.3,-84.0
0.74,4.75,1.5,3.75,6.5,7.0,0.25,0.0,0.5,1.0,0.0,0.0,0.25,0.0,-0.61,1.39,2.83,464.43,15.4,58.8,0.5,0.0,0.75,0.0,0.0,0.0,0.75,2.25,1.5,6.75,5.25,6.0,7.75,0.27,0.27,1.08,376.48,2.2,-79.3
0.76,1.25,1.25,1.25,2.75,5.5,0.0,0.0,0.75,1.0,0.0,1.25,0.75,0.5,-0.3,-0.17,2.27,300.74,8.5,30.8,0.5,0.0,1.25,2.0,0.0,2.75,0.75,3.5,2.5,8.25,6.25,6.75,8.0,0.08,0.08,1.08,528.69,2.1,-62.1
0.78,1.25,0.0,0.0,3.5,4.5,0.25,0.0,0.0,1.0,0.0,1.25,0.5,0.75,0.2,-0.98,0.52,192.39,7.2,25.0,0.5,0.0,0.5,0.5,0.0,0.25,0.75,3.5,2.0,7.5,6.75,6.75,8.0,0.02,0.08,1.02,622.4,2.2,-76.2
0.8,0.0,0.0,0.0,0.0,4.5,0.0,0.0,1.0,1.0,0.0,1.25,0.0,0.0,-0.8,-1.48,1.95,77.26,-1.0,13.1,0.5,0.0,0.0,0.25,0.0,1.0,1.0,3.75,2.0,7.75,7.5,7.0,8.25,0.08,0.08,0.95,684.7,3.1,-76.8
0.82,0.0,0.0,0.0,0.75,0.75,0.0,0.0,1.0,0.25,0.0,0.0,0.0,0.0,-0.61,-1.23,1.2,0.0,-1.0,15.0,0.75,0.0,1.0,0.5,0.0,0.25,1.5,4.25,2.5,7.75,7.5,6.75,8.25,0.08,0.02,0.95,715.91,1.2,-71.6
0.84,0.0,0.0,0.0,0.25,0.0,0.0,0.0,0.75,0.25,0.0,0.0,0.0,0.0,-0.42,-0.92,0.64,0.0,-4.0,-18.6,0.5,0.0,0.75,1.0,0.0,2.0,1.5,4.75,2.75,7.75,7.5,6.5,8.0,0.08,0.08,0.95,748.69,2.4,-66.5
0.86,0.0,0.0,0.0,0.25,0.5,0.0,0.0,0.75,0.25,0.0,0.0,0.0,0.0,-0.3,-0.8,0.64,0.0,-3.8,4.1,3.25,0.75,0.25,3.0,0.0,3.0,2.25,5.0,3.25,8.25,8.5,7.5,8.75,0.08,0.08,0.95,817.87,-0.1,-51.1
0.88,0.0,0.0,0.0,0.0,0.75,0.0,0.0,0.75,0.25,0.0,0.0,0.0,0.0,-0.3,-0.73,0.77,0.0,-6.6,4.2,1.25,0.75,1.5,4.0,1.5,4.5,2.0,5.0,3.5,7.75,7.25,6.75,8.0,0.08,0.08,0.95,872.46,0.5,-43.4
0.9,0.75,1.25,0.0,1.75,0.5,0.5,0.0,0.75,1.0,0.5,0.0,0.5,0.25,-0.36,-0.55,0.83,0.0,6.6,20.5,2.25,0.5,2.75,2.25,3.0,3.25,2.5,5.0,3.5,7.25,8.0,6.5,8.0,0.08,0.08,0.95,909.21,-1.0,-40.7
0.92,1.0,1.25,0.5,1.75,4.5,0.5,0.25,1.0,1.0,0.5,1.0,0.75,0.25,-0.36,-0.3,0.83,9.66,5.1,24.0,2.0,1.0,2.75,2.25,2.75,3.75,2.25,4.75,3.5,7.0,7.5,6.0,7.5,0.08,0.08,0.95,891.0,-0.9,-38.1
0.94,1.0,1.25,0.5,1.75,4.5,0.5,0.25,1.0,1.0,0.5,1.25,0.25,0.25,-0.23,-0.11,0.95,102.24,5.1,26.9,3.0,1.25,2.75,3.75,2.75,4.0,3.0,4.75,3.5,6.5,7.25,6.0,7.0,0.08,0.08,0.95,862.3,-2.4,-30.3
0.96,1.0,1.25,1.0,1.75,4.5,0.5,0.25,1.0,1.0,0.25,1.0,0.5,0.25,-0.17,0.02,1.2,167.46,6.6,29.2,2.0,1.5,2.75,3.5,2.75,4.0,3.0,5.0,3.75,6.0,7.0,5.5,6.25,0.08,0.08,0.95,821.59,-2.0,-29.9
0.98,0.75,1.25,1.0,1.75,3.75,0.5,0.25,1.0,1.0,0.25,1.25,0.5,0.5,-0.23,0.2,1.39,202.88,6.4,22.3,2.25,1.5,3.0,3.5,3.0,4.5,3.75,4.75,4.0,6.0,6.25,5.25,6.0,0.08,0.08,0.95,793.61,-2.4,-26.1
1.0,1.0,1.25,1.25,0.75,3.5,0.75,0.25,1.0,1.0,0.5,1.0,0.5,0.25,-0.23,0.27,1.58,219.3,6.3,23.6,3.0,1.75,3.5,4.5,3.25,4.75,4.0,4.75,4.0,5.0,6.25,4.25,5.5,0.08,0.08,0.95,778.85,-3.8,-17.1
1.02,0.0,0.0,0.0,0.0,2.5,0.0,0.25,1.0,0.25,0.0,1.0,0.5,0.25,-0.3,0.52,2.08,188.53,-1.3,-7.7,3.25,1.75,4.25,5.5,4.75,5.0,4.5,4.75,4.0,4.75,5.5,3.25,4.5,0.08,0.08,0.95,794.87,-4.7,-6.8
1.04,0.75,0.0,0.0,0.0,3.75,0.0,0.25,1.0,1.0,0.25,1.0,0.5,0.5,-0.42,0.95,2.2,175.12,1.4,2.5,3.75,1.5,5.25,6.25,5.5,4.5,5.0,4.75,4.0,3.75,4.5,3.0,3.75,0.08,0.08,0.95,806.27,-6.5,1.0
1.06,0.5,1.25,0.5,1.0,3.75,0.5,0.25,1.0,1.0,0.5,1.0,0.5,0.5,-0.36,1.7,2.14,176.5,3.4,17.1,3.75,2.0,6.25,8.0,6.0,5.75,5.5,4.75,3.5,3.5,4.5,2.0,3.0,0.08,0.08,0.95,841.77,-7.2,10.3
1.08,0.5,1.0,1.0,0.5,3.75,0.5,0.25,1.0,1.0,0.75,1.25,0.5,0.5,-0.17,2.39,2.08,186.22,3.8,12.0,4.75,2.5,7.0,9.25,7.5,5.75,6.25,4.25,3.25,2.5,3.75,1.5,2.25,0.14,0.08,0.95,888.63,-8.9,21.4
1.1,0.5,1.25,0.75,0.75,4.25,0.5,0.25,1.0,1.0,0.75,1.25,0.5,0.5,0.08,2.77,1.7,197.38,3.3,15.4,5.5,2.5,7.75,11.5,7.75,6.25,6.75,3.5,3.0,2.25,3.25,1.5,2.25,0.14,0.08,0.95,953.54,-10.1,26.6
1.12,0.5,1.25,0.25,0.5,4.25,0.5,0.25,1.0,1.0,0.75,1.0,0.5,0.75,0.64,3.27,1.2,200.44,1.2,11.9,5.5,2.5,8.75,13.0,8.75,6.0,7.0,3.5,2.5,2.0,3.25,1.5,1.5,0.08,0.08,1.02,1032.94,-11.0,30.9
1.14,0.5,1.25,1.0,1.0,3.5,0.75,0.25,1.0,1.0,0.75,1.0,0.5,0.5,1.45,4.45,0.2,197.35,4.1,16.6,6.5,2.5,9.25,13.0,9.25,6.0,7.25,3.5,2.0,2.0,2.5,1.0,1.25,0.08,0.08,1.02,1099.66,-11.6,35.7
1.16,0.0,0.0,0.0,0.0,0.0,0.0,0.0,0.75,0.5,0.0,0.0,0.25,0.0,1.45,6.45,-0.3,136.64,-2.9,-50.5,7.5,2.0,10.5,0.0,10.5,6.0,7.25,3.25,1.5,0.75,2.5,0.75,1.5,0.02,0.14,1.08,1041.32,-11.5,35.3
1.18,0.5,0.5,0.5,1.0,2.5,0.25,0.25,1.0,1.0,2.25,2.0,3.5,3.25,-0.05,-1.23,-0.86,167.98,0.8,-41.9,8.0,2.5,10.5,16.0,11.5,5.5,6.5,2.25,1.25,0.0,2.25,0.0,1.25,0.02,0.14,1.08,1096.45,-13.8,47.5
1.2,0.0,0.0,0.0,0.0,1.25,0.0,0.0,1.5,0.25,2.75,2.75,6.25,6.0,0.64,0.45,1.83,215.12,-3.3,-83.8,8.25,1.75,11.0,14.5,11.5,3.25,6.25,2.0,1.5,0.0,1.5,0.75,0.5,0.02,0.2,1.2,1100.95,-15.7,49.0
1.22,0.0,0.5,0.5,0.0,0.0,0.75,0.25,2.75,1.75,7.5,6.75,8.5,8.5,0.45,0.39,1.77,347.33,-2.7,-80.2,8.75,4.0,13.0,15.0,11.5,2.0,5.75,2.0,1.25,0.0,2.25,0.5,1.25,0.08,0.27,1.27,1173.89,-16.7,49.6
1.24,0.0,1.25,0.5,1.75,4.25,2.25,0.0,4.75,2.0,8.25,8.5,8.5,8.75,-0.05,0.27,1.52,550.34,-2.7,-54.9,10.0,4.0,11.5,15.0,9.0,0.0,5.0,2.0,1.0,0.0,0.25,0.0,1.0,0.2,0.39,1.58,1141.58,-19.1,57.3
1.26,0.75,1.25,0.0,1.75,1.75,2.75,0.5,4.75,2.75,8.25,9.0,9.0,8.75,-0.05,0.02,1.02,758.36,-2.1,-59.4,9.25,2.5,11.5,11.0,6.5,0.0,5.25,0.5,1.5,1.0,0.0,0.25,0.25,0.33,0.52,1.77,1035.42,-21.5,57.2
1.28,0.5,1.25,0.0,2.0,0.5,3.0,1.25,5.0,3.5,8.75,9.5,9.0,8.75,-0.05,0.02,0.95,892.09,-1.9,-61.6,8.25,2.5,9.25,9.5,6.0,1.0,6.0,0.5,0.5,0.75,0.0,0.0,1.0,0.45,1.08,2.39,869.02,-19.8,56.3
1.3,1.25,1.25,0.75,2.0,4.75,3.0,1.0,5.75,3.75,8.75,10.0,9.0,9.0,-0.05,-0.05,0.95,1009.62,-1.2,-48.8,7.5,1.75,7.5,6.0,0.0,0.25,5.0,0.5,0.25,0.0,0.75,0.25,0.0,0.64,2.02,3.27,628.91,-27.5,61.1
1.32,1.25,1.25,0.25,2.0,4.75,3.0,0.25,5.75,4.0,8.75,10.0,9.0,8.75,-0.05,-0.05,0.95,1082.61,-1.7,-49.9,4.0,0.75,6.75,2.75,1.5,0.25,3.25,1.0,0.25,0.5,0.75,0.5,0.25,1.08,1.39,4.2,420.41,-22.8,45.1
1.34,1.25,1.25,0.0,2.25,3.75,3.0,0.25,5.75,4.25,8.5,10.0,8.5,8.5,-0.05,-0.05,0.95,1110.84,-1.6,-51.1,1.0,0.0,3.0,1.25,0.0,0.0,1.0,0.5,1.0,0.5,0.25,0.0,0.0,0.95,-1.61,2.14,241.09,-23.3,31.7
1.36,1.25,1.25,0.0,3.75,4.25,3.5,1.25,5.75,4.5,7.75,9.25,7.75,7.75,-0.05,-0.05,0.95,1108.27,-0.9,-43.5,1.0,0.25,1.75,1.25,0.0,0.5,0.75,0.5,0.75,0.0,0.0,0.0,0.25,0.95,-1.55,2.02,107.58,-18.9,38.0
1.38,1.0,1.25,1.0,2.75,4.5,4.0,1.5,5.75,4.25,7.25,8.75,7.5,7.25,-0.05,-0.05,0.95,1072.29,-0.8,-41.3,0.75,0.25,1.5,1.0,0.0,0.0,0.75,0.5,0.75,0.0,0.0,0.25,0.25,1.45,-1.23,1.2,0.0,-20.4,27.4
1.4,0.75,1.5,1.0,4.0,4.5,4.0,2.25,6.0,4.25,6.25,8.0,6.75,6.0,-0.05,-0.05,0.95,1003.8,0.0,-34.8,0.75,0.25,1.5,1.25,0.0,0.5,0.75,0.5,1.0,0.5,0.0,0.25,0.25,0.7,-0.92,0.64,0.0,-14.6,19.5
1.42,1.0,1.25,1.0,4.75,4.75,3.0,2.0,5.75,3.75,4.75,7.0,5.5,6.0,-0.05,0.02,0.95,884.29,0.6,-30.4,0.75,0.25,1.75,1.25,0.0,0.5,0.75,0.5,0.75,0.0,0.0,0.0,0.25,0.45,-0.61,0.45,0.0,-18.3,35.8
1.44,0.0,0.0,1.0,2.0,4.25,3.25,1.5,4.75,4.25,5.75,5.75,5.0,5.0,-0.05,0.02,0.95,752.45,-1.7,-41.2,0.5,0.0,1.75,1.25,0.0,0.0,0.75,0.5,0.75,0.0,0.0,0.0,0.0,0.45,-0.42,0.7,0.0,-23.2,37.3
1.46,0.25,0.0,0.0,2.0,3.75,3.25,1.5,4.75,3.5,4.25,5.5,4.5,4.0,-0.05,0.02,0.95,607.14,-2.1,-40.2,0.5,0.0,1.5,1.25,0.0,0.25,0.75,0.5,0.75,0.0,0.0,0.0,0.25,0.52,-0.3,0.77,0.0,-18.7,29.0
1.48,1.25,1.25,0.0,4.5,5.5,4.25,2.0,5.75,4.25,5.0,6.0,5.0,5.0,-0.05,0.02,0.95,574.92,-0.6,-26.2,0.25,0.25,1.5,2.0,0.0,0.0,0.75,0.5,0.75,0.0,0.25,0.25,0.25,0.58,-0.17,0.89,0.0,-18.5,23.4
1.5,1.25,1.25,1.25,4.75,6.25,5.25,3.0,5.75,4.25,4.0,5.5,4.0,4.5,-0.05,0.02,0.95,589.0,0.4,-16.5,0.5,0.0,1.5,1.25,0.0,0.25,0.75,0.5,0.75,0.0,0.25,0.25,0.0,0.45,0.14,0.89,0.0,-19.4,24.8
1.52,1.25,1.25,0.75,6.5,4.75,5.75,3.75,5.75,4.5,4.25,5.5,3.5,2.75,-0.05,-0.05,0.95,620.92,1.2,-12.2,0.75,1.0,2.75,1.25,0.5,0.0,1.5,0.5,1.0,0.0,0.0,0.5,0.0,0.39,0.33,0.95,47.2,-21.6,39.0
1.54,2.25,1.25,3.25,8.0,7.5,6.75,4.5,5.75,4.25,3.75,4.75,2.25,3.25,-0.05,0.02,0.95,696.84,3.1,2.4,1.25,1.0,1.5,1.0,0.0,0.0,0.75,0.75,1.0,0.5,2.25,0.0,0.25,0.33,0.52,1.02,96.62,-15.7,8.4
1.56,2.5,1.75,5.25,10.0,8.75,7.25,5.25,5.75,4.25,3.5,4.0,2.0,2.25,-0.05,0.02,1.02,809.76,5.0,12.6,0.25,0.75,2.75,1.5,0.0,0.5,1.25,0.5,1.0,0.0,0.0,0.25,0.25,0.33,0.58,1.33,125.59,-19.3,33.3
1.58,3.25,2.5,6.75,14.0,10.5,7.25,5.75,5.0,3.5,2.75,3.0,2.0,1.5,-0.05,0.02,1.02,957.97,7.3,24.6,1.5,0.25,2.75,0.5,0.0,0.5,1.25,2.0,0.75,0.0,2.25,0.0,0.75,0.33,1.08,1.77,155.69,-14.1,3.6
1.6,3.25,2.75,8.0,16.0,12.5,7.75,5.5,4.5,2.5,2.5,2.5,1.0,1.5,-0.05,0.02,1.02,1112.94,7.8,31.9,0.25,0.75,1.25,1.25,0.25,0.25,0.75,0.5,1.0,0.0,0.0,0.0,0.25,0.33,1.7,2.2,145.45,-15.2,32.3
1.62,4.25,2.75,9.25,17.5,14.0,8.0,5.5,4.5,2.0,2.5,2.25,1.0,1.5,-0.05,0.08,1.2,1287.74,8.4,35.1,0.0,0.0,1.0,0.75,0.0,0.0,0.75,0.5,0.75,0.0,2.0,0.0,1.0,0.2,2.58,2.45,130.67,-11.2,-29.6
1.64,5.75,0.25,10.0,17.5,15.0,7.0,4.25,3.25,1.0,0.25,1.75,0.5,0.5,-0.05,0.14,1.2,1339.7,10.7,44.9,1.25,1.0,1.25,1.25,0.0,0.5,0.75,0.5,1.0,0.75,0.0,0.25,0.0,-0.3,3.27,1.95,122.88,-14.8,31.4
1.66,5.75,2.5,9.5,16.0,13.0,6.5,1.75,3.25,1.0,0.0,0.0,0.25,0.25,-0.05,0.14,1.2,1323.92,11.0,51.6,1.25,0.75,2.75,1.25,0.5,0.5,1.25,1.75,1.0,0.5,2.0,0.25,1.0,-1.17,3.7,1.58,152.71,-12.1,5.1
1.68,6.75,2.75,10.0,16.0,14.5,4.5,0.0,1.75,1.0,0.25,0.0,0.25,0.25,-0.05,0.14,1.27,1270.99,12.5,55.3,1.25,0.75,2.75,2.0,1.0,0.75,1.25,2.0,1.0,0.0,2.0,0.25,1.0,-1.73,4.27,0.89,187.2,-11.7,11.9
1.7,7.0,3.0,9.25,16.0,14.0,3.5,0.0,1.0,1.0,0.0,0.25,0.25,0.25,-0.17,0.2,1.39,1184.49,13.5,57.1,0.75,0.75,2.75,1.25,0.0,0.25,1.0,1.75,1.0,0.0,2.25,0.25,1.0,-1.23,4.64,-0.48,202.8,-13.5,0.3
1.72,7.5,3.25,9.75,16.0,13.5,4.0,0.0,3.0,1.0,2.0,1.25,0.5,1.25,-0.36,0.27,1.64,1162.1,11.4,45.3,1.25,0.0,1.25,0.0,0.0,0.25,1.0,2.0,0.25,1.25,2.25,4.25,1.75,-0.42,-0.36,2.27,217.71,-5.8,-53.4
1.74,6.5,3.0,7.75,12.5,13.0,1.75,0.0,1.5,1.0,2.0,1.0,0.25,1.25,-0.36,0.64,2.33,1071.45,11.9,46.6,0.5,0.25,0.75,1.5,0.0,0.0,1.0,0.5,0.75,4.75,2.25,6.0,6.25,-1.23,0.45,1.64,264.51,-0.2,-70.9
1.76,5.5,1.25,2.5,7.25,8.0,0.5,0.0,1.0,0.75,0.0,0.0,0.25,1.0,-0.73,1.52,2.95,813.0,12.4,52.1,0.5,0.0,2.0,1.0,0.5,0.0,0.75,1.0,0.75,4.75,4.5,6.0,8.0,-0.55,0.27,1.39,329.73,-0.9,-69.1
1.78,1.25,0.0,0.5,4.5,6.75,0.0,0.0,1.0,0.75,0.0,0.0,0.0,0.0,-0.86,1.45,3.7,488.8,6.7,48.2,0.5,0.5,2.5,1.25,1.25,0.0,0.75,2.0,1.25,7.75,4.5,6.75,7.75,0.52,0.2,1.52,436.79,-0.2,-60.9
1.8,0.25,0.0,0.0,1.75,4.25,0.0,0.0,0.0,0.5,0.0,0.0,0.0,0.0,-0.42,-1.36,2.83,248.25,3.9,49.8,0.0,0.0,0.75,0.0,0.0,0.0,0.75,2.75,1.25,8.0,6.25,6.5,8.25,0.33,0.27,1.33,529.11,3.1,-82.1
1.82,0.0,0.0,0.0,0.25,0.5,0.0,0.0,0.5,0.5,0.0,0.0,0.25,0.0,-0.17,-1.36,0.39,50.18,1.1,-9.4,0.0,0.25,0.0,1.25,0.0,1.0,0.75,3.5,1.5,8.0,7.5,7.25,8.75,0.08,0.14,1.08,619.38,3.3,-75.8
1.84,0.25,0.5,0.0,0.0,3.5,0.5,0.0,0.75,1.0,0.5,0.0,0.5,0.0,-0.86,-1.73,2.7,0.0,-1.6,18.3,0.0,0.0,0.0,0.0,0.0,1.75,0.75,3.75,2.0,8.5,8.0,7.5,8.75,0.08,0.08,1.02,682.6,4.2,-78.9
1.86,1.25,1.25,0.25,0.25,3.0,0.0,0.0,1.0,0.75,0.0,1.0,0.5,1.0,-0.86,-1.36,1.33,0.0,4.9,14.0,0.0,0.0,0.0,1.0,0.0,2.25,0.75,4.5,2.0,8.5,8.5,7.5,8.75,0.08,0.08,0.95,738.26,3.9,-73.6
1.88,1.0,1.25,0.5,0.75,4.25,0.25,0.0,0.5,1.0,1.0,0.75,0.5,0.5,-0.61,-0.92,0.77,0.0,4.1,20.7,0.25,0.0,1.0,1.25,0.0,2.0,0.75,4.75,2.0,8.25,8.5,7.0,8.75,0.08,0.08,0.95,768.83,2.7,-68.7
1.9,1.25,1.25,0.75,0.75,3.5,0.25,0.0,1.5,1.0,1.0,1.5,0.5,0.75,-0.36,-0.61,0.58,16.88,4.2,9.5,0.5,0.0,0.5,1.25,0.0,2.75,1.0,4.75,2.25,8.0,8.0,6.5,8.25,0.08,0.08,0.95,775.93,3.2,-66.1
1.92,1.0,1.25,0.75,0.75,4.25,0.5,0.0,1.0,1.0,1.25,1.25,0.5,0.5,-0.36,-0.42,0.83,62.2,3.4,14.8,0.5,0.0,0.75,1.0,0.0,2.5,1.25,4.75,2.0,7.5,7.5,6.0,8.0,0.08,0.08,0.95,753.8,3.0,-65.6
1.94,0.75,1.25,0.75,0.75,4.5,0.5,0.0,1.25,1.0,1.25,1.25,0.5,0.5,-0.48,-0.3,0.83,100.09,2.5,13.3,0.5,0.25,0.5,1.5,0.0,2.75,1.25,4.75,2.0,6.75,6.5,5.5,7.5,0.14,0.08,0.95,706.77,3.1,-61.5
1.96,0.75,1.25,0.75,0.25,4.25,0.5,0.25,1.0,1.0,1.25,1.25,0.5,0.5,-0.48,-0.11,0.89,129.72,2.6,11.9,0.5,0.0,0.75,1.25,0.5,3.75,1.5,4.75,2.25,6.0,6.25,5.0,6.25,0.14,0.08,0.95,643.09,3.0,-55.3
1.98,1.0,1.25,0.25,0.5,2.5,0.5,0.0,1.0,1.0,0.75,1.25,0.5,0.75,-0.42,0.08,1.08,157.43,3.2,6.1,0.5,0.25,0.25,1.25,0.25,2.75,1.5,4.75,2.0,5.25,5.25,4.25,5.75,0.08,0.08,0.95,558.84,3.3,-56.4
2.0,0.75,1.25,0.5,1.0,3.75,0.75,0.0,1.0,1.0,1.0,1.0,0.5,0.5,-0.36,0.27,1.33,188.92,2.6,15.3,0.75,0.75,1.25,2.5,1.25,3.25,2.0,4.75,2.75,5.25,4.5,4.25,5.0,0.08,0.08,0.95,514.45,0.8,-39.1
2.02,0.75,1.25,0.5,0.75,4.25,0.75,0.0,1.0,1.0,1.25,1.0,0.5,0.5,-0.42,0.39,1.58,205.74,1.7,14.4,2.0,1.75,2.5,4.0,3.25,5.0,2.75,4.75,2.75,5.0,5.25,3.0,5.0,0.08,0.08,0.95,531.27,-1.4,-17.0
2.04,0.5,1.25,0.5,1.0,4.25,0.75,0.0,1.0,1.0,1.0,1.25,0.5,0.5,-0.55,0.52,1.89,216.17,1.9,13.9,2.0,1.75,3.0,5.25,5.25,5.5,3.5,5.0,2.25,3.25,4.5,2.0,3.25,0.08,0.08,0.95,571.73,-2.8,-0.5
2.06,0.5,1.25,0.5,1.25,4.25,0.75,0.25,1.25,1.0,1.25,1.0,0.5,0.5,-0.61,1.02,2.45,220.76,1.7,13.9,3.0,1.75,1.75,6.0,4.5,5.75,3.75,4.75,2.5,4.0,3.5,2.25,2.25,0.08,0.08,0.95,603.91,-2.8,2.3
2.08,0.5,1.25,0.5,1.25,3.5,0.75,0.0,1.5,1.0,1.25,1.5,0.5,0.5,-0.73,1.95,2.58,216.83,1.7,7.5,2.0,0.75,4.0,6.0,6.0,5.75,3.75,4.25,2.5,1.75,2.75,1.25,2.0,0.08,0.08,0.95,612.24,-4.6,12.5
2.1,0.75,1.25,0.5,1.0,3.75,0.75,0.25,1.0,1.0,1.25,1.0,0.5,0.5,-0.73,2.52,2.45,211.92,2.5,13.8,3.5,2.5,5.25,9.25,7.0,6.0,4.5,4.5,2.75,1.0,2.5,1.25,2.25,0.08,0.08,0.95,675.93,-7.4,23.9
2.12,0.5,1.0,0.5,1.0,4.5,0.5,0.25,1.25,1.0,1.25,1.25,0.5,1.0,0.02,2.89,1.83,211.4,1.1,6.4,3.5,2.5,6.5,11.0,8.75,7.0,5.0,3.75,2.25,2.25,2.25,1.5,1.0,0.14,0.08,0.95,771.07,-7.9,29.2
2.14,0.75,1.25,0.5,1.25,4.25,0.5,0.25,1.0,1.0,1.25,1.25,0.5,0.5,1.2,3.58,1.14,212.66,3.1,14.3,5.25,2.5,7.5,13.0,9.75,7.25,6.0,3.75,1.75,2.0,2.25,1.0,1.5,0.08,0.08,1.02,919.95,-9.2,33.9
2.16,0.5,1.0,0.5,1.0,4.25,0.5,0.25,1.0,1.0,1.0,1.0,0.5,1.0,2.08,5.45,-0.67,211.45,1.7,9.2,4.75,2.5,7.75,12.0,9.75,6.75,5.75,3.5,1.25,0.5,2.25,0.75,1.25,0.08,0.14,1.02,1007.96,-10.0,38.1
2.18,0.5,0.5,1.5,0.75,3.5,0.25,0.0,0.0,1.0,1.5,2.0,0.5,0.5,1.39,4.52,-0.67,204.82,6.4,4.0,6.75,1.75,9.0,15.5,12.0,7.0,6.0,2.5,1.5,2.25,0.75,0.75,1.0,0.02,0.14,1.14,1131.13,-10.8,42.2
2.2,0.5,0.0,0.25,1.0,1.75,0.5,0.0,0.75,1.0,2.5,1.0,3.5,3.25,-0.05,-1.05,-0.8,213.79,-1.0,-51.0,6.75,1.25,9.0,14.5,11.5,6.75,5.0,2.0,1.25,1.5,0.25,0.75,0.25,0.02,0.2,1.14,1157.18,-11.7,46.8
2.22,0.0,0.0,0.5,0.0,0.0,0.0,0.0,0.0,0.25,3.5,1.25,6.0,5.75,0.52,0.08,1.33,234.67,-2.7,-94.4,7.5,2.0,9.25,15.0,11.5,5.0,4.25,2.0,1.0,0.0,1.0,0.5,0.5,0.02,0.27,1.14,1168.34,-13.5,50.7
2.24,0.0,1.25,0.25,1.25,0.0,1.75,0.0,3.25,2.0,7.5,6.75,8.25,8.0,1.14,0.39,1.58,348.33,-2.6,-69.4,8.25,3.0,9.5,15.0,11.5,1.5,3.75,0.25,0.75,0.0,1.0,0.25,0.25,0.08,0.27,1.27,1111.09,-17.1,58.0
2.26,0.0,1.25,0.75,1.0,0.0,2.75,0.0,4.75,2.75,7.75,8.5,8.25,7.75,-0.23,0.33,1.45,508.76,-2.4,-65.0,8.75,3.5,10.0,14.5,11.5,2.75,2.5,0.5,0.75,0.0,1.25,0.25,0.25,0.2,0.39,1.39,1081.83,-16.3,57.6
2.28,0.0,0.0,0.0,1.0,4.5,3.0,0.5,4.75,2.75,8.25,9.5,8.0,7.75,-0.05,0.02,1.02,699.74,-3.4,-58.0,8.5,3.5,9.5,12.0,11.0,1.75,4.0,0.5,0.75,0.0,0.75,0.0,0.25,0.27,0.52,1.7,1015.6,-17.1,59.4
2.3,0.25,0.0,0.75,1.5,4.5,1.75,0.0,5.25,3.5,7.5,10.5,8.25,8.75,0.02,0.02,1.02,845.77,-1.7,-57.8,8.0,2.5,8.75,9.5,8.25,1.5,4.5,0.5,0.5,0.0,0.25,0.0,0.25,0.45,1.08,2.45,899.5,-18.6,60.6
2.32,0.0,0.25,0.0,1.75,0.0,2.75,0.75,4.75,3.75,7.5,9.75,8.25,8.0,-0.05,-0.05,0.95,905.06,-2.2,-67.8,6.0,1.75,5.25,5.5,5.25,0.5,3.75,2.0,0.25,0.0,0.0,0.25,0.25,0.77,2.33,3.83,688.15,-17.5,55.2
2.34,1.25,1.25,0.0,2.5,0.0,3.5,0.25,5.75,4.25,8.25,9.0,8.75,8.0,-0.05,-0.05,0.95,941.68,-1.6,-57.6,3.0,0.75,4.0,1.75,3.25,0.25,1.25,0.5,0.0,0.0,0.0,0.25,0.25,0.95,0.45,4.02,423.38,-19.0,56.7
2.36,0.0,0.5,1.25,3.25,0.0,3.75,0.75,5.25,4.25,7.5,10.5,7.5,7.75,-0.05,-0.05,0.95,947.81,-0.8,-56.8,2.0,1.0,2.75,3.5,2.25,0.5,0.75,2.0,0.75,1.25,2.0,0.5,1.25,0.52,-1.61,2.64,283.63,-10.0,14.2
2.38,1.25,1.5,0.75,3.75,3.0,3.5,0.75,5.5,4.75,7.5,9.25,7.5,7.75,-0.05,-0.05,0.95,979.63,-0.3,-43.8,2.0,0.75,2.75,2.75,2.75,0.25,0.75,2.0,0.75,0.75,2.25,0.75,1.25,0.58,-1.61,2.08,204.66,-10.3,11.9
2.4,0.75,1.25,0.0,3.75,0.0,3.75,0.5,5.75,4.5,7.0,8.5,6.75,6.25,-0.05,-0.05,0.95,934.32,-1.1,-50.5,1.5,1.0,2.75,2.5,2.75,0.5,0.75,2.0,1.0,0.5,2.25,0.5,0.75,1.2,-1.42,1.89,170.99,-10.2,16.0
2.42,0.5,0.75,1.0,2.0,4.5,3.25,1.75,5.75,4.0,5.0,7.0,6.0,5.75,-0.05,-0.05,0.95,866.56,-0.8,-39.6,0.5,0.0,2.75,1.25,2.75,0.0,0.75,2.0,0.5,0.0,2.0,0.0,1.25,0.64,-0.92,0.39,129.25,-8.9,6.5
2.44,1.25,1.25,0.75,4.5,4.5,4.25,1.5,5.75,4.25,5.0,6.75,5.25,5.25,-0.05,-0.05,0.95,792.42,0.0,-28.5,0.75,0.25,1.25,0.75,0.0,0.0,0.75,0.5,0.75,0.0,0.25,0.5,0.25,0.45,-0.55,0.2,69.41,-18.9,14.0
2.46,1.25,1.25,1.0,4.75,4.5,4.0,1.5,5.0,4.25,5.0,6.0,5.0,5.0,-0.05,-0.05,0.95,724.05,0.5,-26.1,0.25,0.0,2.75,1.25,0.0,0.0,0.75,0.5,0.5,0.0,0.75,0.0,0.25,0.45,-0.36,0.39,13.7,-22.7,23.8
2.48,1.5,1.25,1.25,4.75,4.75,5.0,1.5,5.0,4.25,4.25,5.75,3.5,4.0,-0.05,-0.05,0.95,663.74,0.6,-17.7,1.25,0.75,1.0,1.5,0.0,0.0,0.75,0.5,1.0,0.75,0.25,0.5,0.25,0.45,-0.36,0.77,0.0,-15.2,17.1
2.5,1.25,1.25,2.75,6.5,6.75,5.25,3.0,5.0,4.25,3.5,4.5,3.0,2.75,-0.05,-0.05,0.95,662.51,2.7,-3.0,1.25,0.75,2.75,2.0,1.5,0.0,1.0,1.75,0.5,0.0,2.0,0.0,1.0,0.52,-0.17,0.89,32.1,-13.1,17.1
2.52,1.75,1.25,3.25,7.25,7.0,5.5,4.0,5.0,4.25,3.25,4.5,2.0,2.25,-0.05,-0.05,0.95,681.22,3.9,3.8,0.25,0.25,0.5,1.25,0.0,0.0,0.75,0.5,0.25,0.0,0.25,0.0,0.25,0.45,0.08,0.95,34.01,-15.0,22.9
2.54,1.25,1.5,4.5,8.25,7.75,6.0,4.5,4.75,4.0,2.0,4.0,1.75,1.5,-0.05,-0.05,0.95,711.84,5.3,12.6,0.5,0.25,1.0,1.0,0.0,0.0,0.75,0.5,0.0,0.0,0.0,0.25,0.25,0.45,0.2,1.14,45.34,-18.9,31.0
2.56,3.0,1.5,5.5,10.5,8.75,6.75,5.0,4.75,3.5,2.75,2.75,2.0,1.75,-0.05,0.02,0.95,790.7,6.3,19.0,1.25,0.75,1.25,1.5,0.0,0.0,0.75,0.75,1.0,0.25,1.0,0.5,1.0,0.45,0.52,1.33,67.17,-13.9,4.4
2.58,3.25,2.25,6.75,13.5,10.5,7.25,5.5,4.75,2.75,2.5,2.0,1.25,1.75,-0.05,0.02,0.95,902.85,7.2,28.0,1.25,0.75,2.5,1.25,1.0,0.25,1.0,2.0,0.75,0.5,2.25,0.25,1.25,0.45,0.58,1.64,116.14,-10.4,2.0
2.6,4.25,2.75,8.25,16.0,11.5,7.25,5.25,4.25,2.5,2.5,1.25,0.5,1.75,-0.05,0.02,1.02,1047.88,8.6,35.2,1.25,0.75,2.5,1.25,1.25,0.25,1.0,1.75,1.0,0.75,2.25,0.5,1.25,0.45,1.02,2.14,155.5,-10.2,0.0
2.62,4.75,1.5,9.75,17.0,13.0,7.5,4.25,3.75,2.0,1.5,2.75,0.5,1.5,-0.05,0.02,1.08,1187.15,9.5,36.8,1.25,0.75,2.5,1.25,1.0,0.0,0.75,0.5,0.75,0.75,1.5,0.25,1.25,0.52,1.64,2.58,182.44,-13.6,9.1
2.64,5.5,2.5,10.0,16.5,14.5,7.25,3.25,3.25,1.75,0.5,1.75,0.5,0.5,-0.05,0.08,1.14,1292.93,10.4,45.0,1.0,0.75,2.25,1.25,1.0,0.25,1.0,1.75,0.75,0.0,2.25,0.25,1.25,0.27,2.64,2.83,199.29,-11.0,2.8
2.66,5.75,2.75,10.5,16.0,15.0,6.0,3.0,2.25,1.0,0.0,0.0,0.25,0.25,-0.05,0.08,1.14,1306.85,11.8,53.4,1.25,0.75,2.0,1.25,1.0,0.25,1.0,1.25,0.75,0.5,2.0,0.0,1.0,-0.17,3.52,2.64,201.78,-11.4,8.0
2.68,6.75,1.75,11.5,16.5,13.0,6.25,1.5,3.0,1.5,2.25,0.0,0.5,0.0,-0.05,0.14,1.14,1304.13,11.6,47.5,1.25,0.75,2.5,1.25,1.25,0.25,1.0,1.25,1.0,0.75,2.25,0.5,1.0,-0.86,4.2,1.45,211.22,-11.5,3.1
2.7,7.75,3.0,11.5,16.0,15.0,5.0,0.0,3.0,1.25,2.5,1.25,0.25,1.25,-0.11,0.14,1.14,1320.13,11.2,45.1,1.25,0.75,2.5,1.25,0.25,0.25,0.75,0.75,0.75,0.5,2.25,0.25,1.0,-1.61,5.95,-0.48,203.88,-14.5,4.6
2.72,7.5,2.25,10.0,16.0,13.0,2.5,0.0,1.25,1.0,0.25,0.0,0.25,0.0,-0.23,0.2,1.39,1236.3,14.9,57.7,1.0,0.75,2.75,1.25,1.0,0.75,1.0,0.5,1.0,1.0,2.0,1.0,1.0,-2.23,5.95,-0.17,209.95,-11.7,0.9
2.74,7.75,2.75,11.0,14.0,11.5,1.75,0.0,1.25,1.0,1.5,1.0,0.25,1.25,-0.36,0.27,1.58,1147.36,14.9,49.8,1.25,0.75,2.25,1.25,0.25,0.0,0.75,0.75,0.5,0.5,2.25,2.25,3.5,-0.05,-2.05,0.77,214.62,-9.5,-28.7
2.76,4.75,1.0,5.5,7.25,8.25,0.0,0.0,1.5,1.0,0.0,1.25,0.0,1.25,-0.8,1.77,3.2,864.89,14.0,45.2,1.0,0.75,2.75,1.25,0.0,0.25,1.0,1.25,0.75,4.25,3.0,6.0,6.75,-0.61,0.27,1.2,281.14,-3.2,-55.8
2.78,2.25,0.25,1.0,4.75,6.25,0.0,0.0,1.0,0.5,0.0,0.0,0.25,0.0,-0.86,1.58,3.45,545.47,9.7,50.9,1.0,0.75,2.25,1.25,0.0,1.0,0.75,2.0,1.0,6.5,4.5,6.25,8.5,-0.67,0.27,1.83,369.59,0.0,-60.7
2.8,0.0,0.0,0.5,2.5,3.5,0.0,0.0,0.5,0.25,0.0,0.0,0.0,0.0,-0.48,-0.8,3.2,273.75,5.7,46.7,0.75,0.25,0.5,1.25,0.0,0.25,0.25,2.0,1.0,8.0,6.0,6.5,8.0,0.58,0.33,2.02,468.94,2.0,-73.9
2.82,0.0,0.0,0.0,1.25,2.5,0.0,0.0,0.75,0.25,0.0,0.0,0.0,0.0,0.14,-1.17,1.02,96.73,0.6,36.9,0.0,0.75,0.75,1.0,0.0,2.75,0.5,3.5,1.5,8.0,6.25,6.75,9.25,-0.05,0.27,1.52,577.57,4.0,-67.7
2.84,0.0,0.0,0.0,1.75,0.75,0.0,0.0,1.0,0.25,0.0,0.0,0.0,0.0,-0.48,-1.61,1.83,0.0,3.7,26.4,0.0,0.75,1.5,1.25,2.25,2.75,1.5,3.75,2.0,9.0,7.25,8.25,8.75,0.14,0.14,1.02,699.69,2.2,-58.3
2.86,0.0,0.0,0.0,2.0,0.0,0.75,0.0,1.0,1.0,0.0,0.0,0.5,0.0,-1.05,-1.3,1.58,0.0,3.6,2.6,0.75,0.75,1.25,1.75,2.75,3.0,0.75,4.75,2.75,9.25,9.0,8.25,9.5,0.14,0.08,0.95,830.99,1.9,-55.4
2.88,1.0,1.0,1.0,1.75,3.5,1.0,0.0,1.0,1.0,1.0,1.25,0.5,0.5,-0.73,-1.11,0.7,0.0,4.7,17.0,0.0,0.75,2.75,2.0,2.75,3.25,1.5,4.75,2.5,9.25,9.25,7.25,9.5,0.08,0.08,0.95,929.54,1.2,-51.8
2.9,0.75,1.25,0.75,0.0,4.5,1.0,0.0,1.0,1.0,1.0,1.25,0.5,0.75,-0.48,-0.86,0.45,0.0,1.2,11.8,0.0,0.25,0.0,1.5,0.0,3.25,1.0,4.75,2.5,8.0,8.5,7.75,9.25,0.08,0.08,0.95,944.83,3.7,-68.7
2.92,1.25,1.0,1.0,0.25,3.5,1.0,0.0,1.0,1.0,1.25,1.0,0.5,0.5,-0.36,-0.67,0.52,36.73,3.3,13.7,1.75,0.5,1.0,0.25,0.5,2.75,1.25,4.75,2.75,7.75,8.5,6.25,8.0,0.08,0.08,0.95,902.74,1.5,-58.9
2.94,1.0,1.0,0.75,0.0,3.0,1.0,0.0,1.5,1.0,1.5,0.75,0.5,0.25,-0.3,-0.55,0.64,71.88,1.1,8.8,0.5,0.5,0.0,1.25,0.25,2.75,1.5,4.75,2.75,7.25,7.5,6.0,7.5,0.08,0.08,0.95,819.72,3.0,-62.3
2.96,0.75,1.0,0.5,0.25,3.0,1.0,0.0,1.0,1.0,1.5,1.25,0.5,0.25,-0.36,-0.36,0.7,109.09,1.1,5.7,0.75,1.0,0.75,3.5,0.5,3.75,1.5,4.75,2.5,6.5,6.75,6.0,6.75,0.08,0.08,0.95,752.44,1.1,-47.1
2.98,1.0,1.0,0.75,0.25,3.0,0.75,0.0,1.0,1.0,1.0,1.75,0.5,0.25,-0.3,-0.3,0.83,134.88,4.0,8.1,1.25,0.5,1.25,1.25,3.0,4.25,2.0,5.25,2.5,5.0,6.25,5.5,5.5,0.08,0.08,0.95,684.5,1.2,-39.6
3.0,0.25,0.5,1.0,0.25,3.0,0.75,0.0,1.25,1.0,1.25,1.0,0.5,0.5,-0.17,-0.11,1.02,166.33,0.8,-0.2,0.75,0.75,1.5,4.0,1.0,5.0,2.0,3.75,3.0,5.25,5.25,4.25,5.0,0.08,0.08,0.95,616.05,0.0,-33.0
3.02,0.25,0.75,0.75,0.0,3.0,0.75,0.0,1.0,1.0,1.25,1.25,0.5,0.25,-0.11,0.14,1.2,180.39,0.8,0.9,2.0,1.25,1.75,4.0,2.25,3.0,2.5,4.75,3.0,3.25,6.0,3.0,4.0,0.08,0.08,0.95,560.29,-3.1,-20.9
3.04,0.75,1.0,0.75,0.0,3.0,0.5,0.0,1.0,1.0,1.25,1.25,0.5,0.5,-0.11,0.27,1.39,185.38,2.5,3.8,1.0,0.75,2.25,3.25,4.5,3.25,2.5,3.75,2.5,3.5,4.25,2.5,3.25,0.08,0.08,0.95,506.18,-2.0,-14.5
3.06,0.25,1.25,0.5,0.0,3.0,1.0,0.0,1.0,1.0,1.25,1.0,0.5,0.5,-0.23,0.39,1.58,182.82,-0.4,3.8,1.0,0.75,2.75,3.75,3.0,4.0,3.0,3.5,2.5,3.25,3.75,1.75,2.25,0.08,0.08,0.95,451.91,-3.2,-8.0
3.08,0.25,0.75,0.5,0.0,3.0,0.75,0.0,1.0,1.0,1.5,1.25,0.5,0.5,-0.36,0.52,1.89,176.59,-0.6,-4.5,1.0,0.75,2.75,4.75,3.25,5.0,3.0,3.5,2.75,1.5,3.5,1.5,2.25,0.08,0.08,0.95,419.43,-3.8,0.0
3.1,0.5,1.0,0.5,1.75,3.0,0.75,0.0,1.0,1.0,1.25,1.25,0.5,0.5,-0.42,0.95,2.64,179.15,2.8,9.0,2.0,0.75,3.0,5.75,5.25,5.0,3.75,3.5,2.75,2.0,2.75,1.0,1.75,0.08,0.08,0.95,431.44,-4.8,11.3
3.12,0.25,0.75,0.5,1.5,3.0,0.75,0.0,1.0,1.0,1.5,1.25,0.5,0.0,-0.48,1.77,2.83,176.5,2.0,7.6,3.75,2.0,5.0,7.75,6.0,6.25,4.25,3.5,3.0,3.5,2.5,1.5,1.5,0.08,0.08,0.95,527.79,-6.7,18.9
3.14,0.5,1.0,0.5,1.75,3.0,1.0,0.25,1.0,1.0,1.25,1.25,0.5,0.5,-0.48,2.58,2.64,188.2,2.7,9.5,3.0,1.5,6.75,7.75,7.75,6.0,5.5,4.5,2.5,1.75,3.5,0.25,2.25,0.08,0.08,0.95,646.29,-7.4,21.9
3.16,0.25,0.25,0.5,0.5,3.0,0.5,0.0,1.0,1.0,1.0,1.0,0.5,0.5,-0.42,3.2,1.58,179.48,0.5,-2.3,5.0,2.5,7.25,11.5,8.75,6.75,6.0,3.75,2.5,2.0,3.25,1.25,1.75,0.08,0.08,0.95,818.47,-9.2,28.7
3.18,0.25,0.0,0.5,0.25,3.5,0.75,0.0,0.75,1.0,1.25,1.0,0.5,1.0,0.33,4.02,0.33,174.62,-1.4,-8.1,5.5,2.0,8.25,11.5,10.0,6.25,6.25,3.5,1.5,0.75,2.75,0.25,1.5,0.08,0.08,1.02,941.09,-10.6,37.2
3.2,0.25,1.0,0.5,0.25,3.5,0.5,0.0,1.0,1.0,1.0,1.0,0.5,0.75,1.52,5.64,-0.8,169.11,0.4,3.3,5.5,0.0,9.0,13.0,11.5,6.5,6.25,2.0,1.5,0.0,2.0,0.25,0.25,0.08,0.14,1.08,1017.71,-12.1,44.7
3.22,0.5,0.25,0.5,0.5,3.0,0.75,0.0,1.0,0.75,1.75,1.25,0.5,1.25,1.58,3.7,-0.11,171.33,-1.1,-11.5,6.25,1.25,9.75,0.0,11.0,7.0,6.0,2.25,1.5,1.75,2.25,0.75,1.25,0.08,0.14,1.14,979.49,-9.5,33.2
3.24,0.25,0.0,0.5,0.0,2.5,0.0,0.0,0.75,0.25,0.75,1.25,1.0,2.25,-1.05,-1.11,0.95,162.87,-1.2,-34.4,7.75,2.25,9.5,14.5,11.0,6.25,5.5,2.0,1.0,0.25,1.25,0.75,0.25,0.02,0.14,1.14,1037.27,-13.3,49.5
3.26,0.0,0.0,0.0,0.0,0.0,0.0,0.0,1.0,0.25,3.5,1.25,5.0,5.0,0.58,0.02,1.45,194.21,-5.1,-94.2,7.75,3.0,10.5,15.5,11.5,5.0,4.5,1.0,1.0,0.0,1.25,0.0,0.25,0.08,0.27,1.2,1081.1,-14.8,54.8
3.28,0.0,0.5,0.0,1.0,0.0,2.5,0.0,2.5,1.75,7.5,4.75,7.75,7.0,1.33,0.27,1.58,294.64,-4.2,-71.7,8.25,2.75,10.5,14.5,11.5,0.75,3.25,0.5,0.75,0.0,1.25,0.0,0.25,0.14,0.33,1.27,1094.61,-17.8,58.0
3.3,0.0,0.75,0.5,1.0,3.5,3.0,0.0,3.25,2.25,7.5,8.0,8.25,8.5,-0.05,0.33,1.89,467.07,-2.9,-58.5,9.25,3.25,11.5,13.0,11.5,2.25,3.0,0.5,0.5,0.0,0.75,0.5,0.25,0.2,0.39,1.45,1089.87,-17.4,58.7
3.32,1.25,0.5,0.0,0.25,3.0,3.0,0.5,4.75,3.25,7.25,9.25,7.75,6.75,-0.05,0.02,0.95,649.93,-2.1,-56.4,8.25,3.0,10.5,11.5,8.75,1.25,3.0,0.5,0.75,0.5,0.75,0.25,0.25,0.33,0.52,1.77,1003.62,-18.5,57.5
3.34,1.25,1.25,0.25,2.25,0.0,4.0,0.25,5.0,4.75,8.75,10.0,8.5,8.75,-0.05,-0.05,0.95,831.96,-1.5,-57.9,8.5,3.75,8.75,9.5,7.75,2.75,4.5,1.0,0.75,0.75,2.25,0.75,1.0,0.45,1.2,2.58,922.17,-16.0,47.7
3.36,0.75,0.0,1.0,1.75,3.0,3.0,0.5,5.75,4.5,7.25,10.0,7.75,8.5,-0.05,-0.05,0.95,939.61,-1.4,-55.0,6.25,2.5,6.75,6.0,5.75,1.75,3.25,0.5,0.5,0.0,2.25,0.0,1.25,0.83,2.14,3.64,740.56,-16.8,47.9
3.38,1.25,1.25,0.75,2.5,0.0,4.25,1.5,5.75,5.0,7.0,9.0,8.25,8.0,-0.05,-0.05,0.95,992.91,-0.5,-52.5,2.0,0.5,2.25,1.25,0.0,0.25,0.75,0.5,0.0,0.0,0.0,0.0,0.25,1.14,0.7,3.89,438.34,-24.0,57.2
3.4,1.75,1.25,1.5,3.75,3.5,4.5,1.75,5.75,5.0,6.25,9.5,7.5,7.5,-0.05,-0.05,0.95,1033.35,0.7,-38.2,1.25,0.75,1.75,3.75,0.0,1.25,0.75,0.5,0.75,0.75,0.0,0.25,0.25,0.27,-1.36,2.02,255.74,-13.6,35.7
3.42,1.75,1.0,1.5,4.0,3.5,4.5,2.0,5.75,5.0,6.25,8.5,6.75,6.75,-0.05,-0.05,0.95,1035.53,0.7,-35.7,0.75,0.25,1.75,1.25,0.0,0.5,0.5,0.5,0.75,0.5,0.25,0.5,0.25,0.89,-1.8,2.14,106.72,-14.9,15.3
3.44,2.0,1.0,1.75,4.5,1.25,5.0,2.5,5.75,4.5,5.75,7.25,6.0,5.75,-0.05,-0.05,0.95,982.37,1.3,-33.4,0.5,0.0,1.75,1.25,0.0,0.25,0.0,0.5,0.25,0.0,0.0,0.0,0.25,1.02,-1.3,1.08,1.08,-19.4,37.8
3.46,2.0,1.25,1.75,4.75,3.5,5.0,2.25,5.75,4.25,4.5,6.25,5.0,5.0,-0.05,-0.05,0.95,905.95,1.4,-23.3,0.5,0.25,1.75,1.25,0.0,0.0,0.5,0.5,0.25,0.0,0.25,0.0,0.25,0.64,-0.8,0.33,0.0,-21.1,35.3
3.48,1.0,1.0,2.0,4.75,3.5,5.25,2.25,5.0,4.25,4.25,5.5,3.5,3.5,-0.05,-0.05,0.95,798.76,1.2,-18.5,0.5,0.25,1.5,2.75,0.0,0.5,0.25,0.5,0.75,0.0,0.25,0.0,0.25,0.45,-0.48,0.08,0.0,-16.1,34.3
3.5,1.0,0.75,2.0,5.25,6.5,5.5,2.5,5.0,3.75,3.75,4.75,3.5,3.25,-0.05,0.02,0.95,717.6,1.0,-10.4,0.5,0.25,1.75,1.25,0.0,0.25,1.0,0.5,0.25,0.75,0.5,0.25,0.25,0.39,-0.36,0.52,0.0,-15.3,14.2
3.52,1.0,1.0,2.25,6.25,6.5,5.75,2.5,5.0,3.75,3.75,4.5,2.25,3.0,-0.05,0.02,0.95,662.26,1.3,-4.2,1.75,0.75,2.75,1.75,1.5,0.25,0.75,1.75,0.75,0.5,2.25,0.5,1.25,0.39,-0.36,0.7,7.04,-11.5,8.0
3.54,2.0,1.25,2.75,6.5,6.75,6.75,3.0,5.0,3.75,3.75,4.0,2.0,2.25,-0.05,0.02,0.95,663.82,2.2,3.4,1.25,0.75,2.75,1.5,1.75,0.25,0.75,1.5,0.75,0.75,2.25,0.75,1.25,0.39,-0.23,0.89,76.26,-10.5,3.0
3.56,2.5,1.5,3.25,7.75,8.25,7.0,3.5,5.0,3.75,3.0,3.5,2.0,1.75,-0.05,0.02,0.95,699.69,3.5,11.5,1.25,0.75,2.75,1.5,1.5,0.25,0.75,1.5,1.0,0.75,2.0,0.5,1.0,0.39,0.02,0.95,140.02,-11.2,6.4
3.58,3.0,1.75,4.5,10.0,8.5,7.25,4.25,5.0,3.5,2.75,3.5,2.0,1.5,-0.05,0.02,0.95,768.68,5.3,17.3,1.25,0.75,2.5,1.5,1.25,0.5,0.75,1.5,0.75,0.75,2.25,0.5,1.0,0.39,0.27,1.02,177.78,-10.5,4.4
3.6,3.25,2.0,5.5,12.5,9.75,7.5,4.25,5.0,3.25,2.5,2.75,2.0,1.25,-0.05,0.02,0.95,870.42,6.3,23.6,1.25,0.75,2.5,1.5,1.25,0.25,0.75,1.5,0.75,1.75,2.0,0.75,1.25,0.39,0.45,1.2,216.77,-8.9,-3.3
3.62,4.0,2.0,6.75,14.0,11.5,7.75,4.5,4.75,2.75,2.0,2.5,1.25,1.25,-0.05,0.02,0.95,988.53,7.3,30.3,1.0,0.75,2.75,1.5,1.25,0.0,0.75,1.25,1.0,0.75,2.25,0.75,1.25,0.39,0.58,1.45,235.53,-11.6,-0.7
3.64,4.75,1.75,8.0,16.0,12.5,8.0,3.0,4.75,2.0,1.5,2.25,0.5,1.25,-0.05,0.02,1.02,1105.7,8.0,36.2,1.0,0.75,2.75,1.25,1.25,0.0,0.75,1.0,0.75,0.75,2.0,0.5,1.25,0.52,0.77,1.89,229.2,-12.1,2.7
3.66,5.5,1.75,8.75,17.0,14.0,8.25,1.75,4.25,2.0,1.75,2.25,0.5,1.25,-0.05,0.08,1.08,1229.99,8.2,38.0,1.0,0.75,2.5,1.5,1.25,0.0,0.75,1.0,0.75,0.5,2.25,0.5,1.25,0.45,1.33,2.52,226.64,-12.2,2.7
3.68,5.75,1.5,8.25,18.0,14.0,8.0,3.0,3.5,1.5,2.25,1.25,0.25,1.0,-0.05,0.08,1.08,1307.18,8.7,41.3,1.0,0.75,2.25,1.5,0.25,0.0,0.75,1.0,0.75,0.0,2.0,0.25,1.0,0.39,2.27,2.83,209.12,-15.1,6.4
3.7,5.75,0.25,8.5,16.0,13.0,6.5,1.5,3.0,1.0,0.5,1.25,0.25,1.0,-0.05,0.14,1.14,1275.53,10.0,44.4,1.25,0.75,2.75,1.5,1.0,0.0,0.75,1.0,0.75,0.5,2.0,0.5,1.25,0.08,3.27,2.33,202.26,-13.4,5.7
3.72,5.75,1.5,8.75,14.5,12.5,6.25,0.0,3.0,0.75,0.5,0.0,0.25,0.25,-0.05,0.14,1.14,1188.13,10.3,50.5,1.25,0.75,2.75,1.25,1.0,0.0,0.75,0.75,0.75,0.75,2.25,0.25,1.0,-0.42,3.83,1.27,194.29,-13.9,6.9
3.74,6.25,1.25,9.0,14.5,12.5,4.25,0.0,2.25,1.0,0.25,0.0,0.25,0.25,-0.17,0.2,1.33,1074.78,12.3,52.8,1.25,0.75,2.0,1.5,1.0,0.25,0.75,0.75,0.75,0.75,2.0,0.25,1.25,-1.05,4.2,0.45,191.03,-11.4,4.4
3.76,6.75,1.75,9.0,14.0,12.5,2.75,0.0,1.5,0.75,0.0,0.25,0.25,0.25,-0.23,0.27,1.52,978.97,13.9,55.9,1.25,0.75,1.75,1.5,1.0,0.25,0.75,0.75,1.0,0.0,2.25,0.75,1.25,-2.11,5.52,-0.23,183.32,-12.3,1.2
3.78,6.75,2.0,9.0,15.0,10.5,3.0,0.0,1.0,1.0,0.0,0.0,0.25,1.25,-0.3,0.27,1.7,907.77,14.3,53.9,1.0,0.5,2.0,0.75,0.0,0.5,0.75,0.75,0.75,2.25,2.25,3.0,3.0,-0.55,-1.42,-1.48,201.65,-5.9,-42.0
3.8,5.25,1.25,5.5,8.75,8.75,1.0,0.0,1.0,0.75,0.5,0.0,0.25,0.0,-0.36,0.64,2.2,735.69,14.2,55.6,1.25,0.5,2.25,1.25,0.0,0.5,0.75,0.5,0.75,5.0,2.5,6.0,6.75,0.39,0.08,1.02,264.09,-2.3,-58.4
3.82,3.0,0.75,4.0,6.5,8.25,0.25,0.0,1.0,0.5,0.0,0.5,0.25,0.0,-0.8,1.58,2.7,542.18,12.9,52.5,1.0,0.0,1.75,1.25,0.0,0.75,0.75,2.0,1.0,7.25,4.5,6.5,8.5,-0.73,0.58,2.45,358.71,0.8,-67.3
3.84,1.0,0.0,0.5,4.5,3.75,0.0,0.0,0.75,0.25,0.0,0.0,0.0,0.0,-0.55,0.7,2.83,314.4,9.5,51.2,0.5,0.25,0.5,1.25,0.0,1.5,0.0,2.25,0.75,7.25,4.5,6.0,8.25,0.77,0.39,3.64,451.16,3.9,-71.3
3.86,0.25,0.0,0.0,1.75,3.0,0.0,0.0,0.5,0.5,0.0,0.0,0.25,0.0,-0.23,-1.17,1.95,162.5,4.1,36.7,0.0,1.0,0.0,0.0,0.0,5.0,0.0,3.5,1.25,8.5,5.0,6.25,8.0,-0.23,0.14,1.14,550.78,7.2,-65.7
3.88,0.0,0.0,0.0,0.0,2.5,0.0,0.0,1.0,0.5,0.0,0.0,0.25,0.0,-0.17,-1.23,1.64,12.82,-3.9,15.0,0.0,0.25,0.0,1.25,0.0,5.0,0.5,4.75,1.25,7.75,6.25,5.5,8.0,0.2,0.08,0.95,619.77,6.4,-62.7
3.9,0.0,0.0,0.0,0.0,0.0,0.0,0.0,1.0,1.0,1.25,0.0,0.25,0.0,-0.67,-1.23,1.08,0.0,-6.3,-56.9,2.0,1.25,0.5,2.5,3.0,6.0,0.0,5.25,1.5,8.0,6.25,5.25,8.0,0.2,0.14,0.95,708.67,3.8,-38.8
3.92,0.25,1.0,0.75,1.75,3.5,0.5,0.0,2.25,1.0,1.25,1.25,0.0,0.5,-0.3,-1.05,0.45,0.0,1.2,9.8,2.0,1.5,0.5,2.5,3.0,6.0,1.25,6.75,2.0,7.75,7.75,5.5,8.0,0.14,0.08,0.95,801.73,3.0,-38.5
3.94,1.0,0.75,0.75,1.75,3.5,0.25,0.0,1.5,0.75,1.25,1.25,0.5,0.5,-0.11,-0.8,0.33,2.68,4.1,11.3,2.25,2.0,2.75,3.25,5.5,7.25,0.0,6.5,2.25,7.75,6.0,4.25,7.5,0.2,0.08,0.95,895.56,2.0,-22.8
3.96,1.0,1.0,0.5,1.25,3.5,0.5,0.0,1.25,0.75,1.0,1.25,0.75,0.5,-0.05,-0.67,0.52,58.17,3.5,10.9,3.25,1.75,1.75,3.75,6.0,7.75,0.25,6.5,2.0,6.5,5.75,2.5,6.25,0.14,0.08,0.95,936.83,2.0,-14.3
3.98,0.75,1.0,0.5,1.75,3.5,0.5,0.0,1.5,1.0,1.75,1.25,0.5,0.25,0.02,-0.61,0.83,98.02,2.5,9.3,3.5,2.25,2.75,3.75,6.0,7.75,0.0,6.25,2.0,6.0,4.5,2.5,5.5,0.2,0.08,0.95,941.58,1.0,-7.9
4.0,0.75,0.25,0.5,2.5,3.5,0.75,0.0,1.0,1.0,1.5,1.25,0.5,0.5,0.02,-0.3,1.02,131.37,3.0,8.6,3.25,2.5,2.75,4.0,7.25,8.25,1.25,5.75,1.75,5.25,4.25,1.5,4.0,0.14,0.08,0.95,913.84,0.4,1.6
4.02,0.75,1.0,0.5,1.5,1.25,0.25,0.0,1.0,0.75,1.25,1.0,0.5,1.0,0.02,-0.05,1.14,140.89,4.3,-2.1,3.5,2.5,2.75,4.0,7.75,8.25,1.25,5.75,1.5,4.0,2.75,1.75,3.0,0.14,0.08,0.95,861.36,0.0,8.9
4.04,0.25,0.75,0.5,1.25,1.75,0.25,0.0,1.0,1.0,1.25,1.25,0.5,0.75,0.02,0.33,1.33,156.1,2.8,-7.3,3.5,2.5,2.75,4.75,8.0,8.75,1.0,5.75,1.5,3.5,2.5,1.75,2.25,0.14,0.08,0.95,814.39,-0.2,13.3
4.06,0.75,1.0,0.5,1.0,0.0,0.25,0.0,1.0,1.0,1.5,1.0,0.5,0.5,0.08,0.95,1.39,153.62,5.4,-11.5,3.5,2.5,2.75,5.25,8.75,8.75,1.25,5.25,1.25,2.5,2.5,1.25,2.25,0.14,0.08,0.95,781.8,-0.8,18.5
4.08,1.25,0.75,0.5,1.0,0.0,0.5,0.0,1.0,1.0,1.75,1.0,0.5,0.75,-0.11,1.2,1.45,156.27,4.9,-12.3,3.5,2.5,3.0,4.0,9.25,8.5,1.25,5.0,1.25,2.75,2.25,0.75,2.0,0.14,0.08,0.95,752.96,-0.5,20.4
4.1,0.25,0.75,0.5,1.0,0.0,0.5,0.0,1.0,1.0,1.25,1.25,0.5,0.5,-0.3,1.39,1.52,143.3,3.6,-19.5,3.5,3.25,3.25,5.75,10.5,9.5,1.5,4.75,1.0,2.25,2.25,0.75,1.5,0.14,0.08,0.95,753.09,-1.4,27.2
4.12,0.5,0.5,0.5,0.25,3.0,0.0,0.0,1.0,1.0,1.25,1.25,0.5,0.5,-0.55,1.7,1.39,144.58,2.0,-4.1,4.5,3.25,4.0,6.0,10.5,10.0,1.25,4.75,1.0,2.0,2.5,0.75,1.75,0.14,0.08,0.95,778.55,-2.4,28.5
4.14,0.5,1.0,0.5,0.5,2.5,0.75,0.0,0.75,0.75,1.0,1.0,0.75,0.5,-0.8,2.14,1.02,143.81,2.1,4.0,4.75,3.5,3.75,6.0,11.0,10.0,1.25,4.75,1.0,1.0,2.25,0.75,1.25,0.14,0.14,0.95,801.33,-2.8,33.2
4.16,0.75,1.0,0.5,1.0,3.0,0.25,0.0,0.5,0.75,0.75,1.0,0.5,0.5,-0.98,2.33,0.64,145.28,5.0,15.2,4.5,3.5,3.25,6.0,11.5,10.0,1.25,3.75,1.0,2.0,2.25,0.5,1.25,0.14,0.14,0.95,817.07,-2.2,32.8
4.18,0.25,1.25,0.5,1.0,3.0,0.25,0.0,1.0,0.75,1.25,1.25,0.5,0.75,-1.23,2.45,0.14,157.51,2.0,3.5,4.75,3.75,4.0,6.25,11.5,10.5,1.5,3.75,1.0,2.0,2.25,0.75,1.25,0.14,0.14,0.95,844.56,-2.9,33.3
4.2,0.5,0.25,0.5,0.5,3.0,0.0,0.0,1.0,0.25,1.25,1.25,0.0,1.25,-1.05,2.2,-0.11,157.77,-0.1,-5.5,4.75,4.0,4.0,7.0,12.0,10.0,1.0,3.5,0.75,2.0,2.25,0.5,1.25,0.14,0.14,0.95,868.66,-3.2,35.5
4.22,0.0,0.0,0.0,0.0,0.0,0.25,0.0,0.75,0.25,0.25,0.0,0.0,0.0,-2.48,0.14,0.95,113.57,-12.7,-33.3,4.75,4.0,4.75,7.75,12.5,10.0,0.75,3.5,0.75,1.75,2.25,0.75,1.25,0.14,0.14,0.95,902.97,-3.8,36.2
4.24,0.75,1.0,0.0,1.0,2.25,3.25,0.0,0.0,0.25,2.5,0.0,0.75,0.0,-6.98,-1.23,2.83,124.09,-4.4,16.3,5.0,3.5,5.25,7.0,12.0,9.5,0.5,3.25,0.75,1.5,2.0,0.25,1.25,0.14,0.14,0.95,909.65,-4.4,38.4
4.26,0.0,0.0,0.0,0.0,5.75,2.25,0.0,3.0,0.25,0.0,1.0,0.0,0.5,-0.92,0.27,0.83,144.99,-8.4,12.8,4.75,3.5,5.0,7.25,12.0,9.25,0.0,3.25,0.75,1.75,0.0,0.5,1.25,0.08,0.2,0.95,895.96,-3.8,41.2
4.28,0.0,0.0,0.0,1.25,3.0,4.0,0.0,2.0,0.25,0.0,1.25,0.25,0.0,-0.42,0.02,0.58,170.47,-7.3,15.0,4.5,3.0,4.5,6.5,11.5,8.75,0.0,2.5,0.75,1.5,0.0,0.25,1.0,0.08,0.2,0.95,835.9,-3.8,43.3
4.3,1.0,1.25,0.0,3.25,6.5,5.75,0.0,3.5,0.75,0.0,0.0,0.75,0.0,0.58,0.02,1.02,236.31,-3.5,32.1,3.5,1.75,2.75,6.0,11.0,8.25,0.0,2.5,0.75,1.25,2.25,0.25,1.25,0.14,0.2,0.95,755.48,-2.0,33.3
4.32,0.0,1.0,0.0,1.75,6.0,6.5,0.0,4.75,2.0,1.25,1.25,2.0,1.25,0.08,0.02,1.33,298.37,-6.3,-0.5,3.25,1.75,1.25,5.25,9.5,7.25,0.0,2.25,0.75,1.5,0.0,0.25,1.0,0.2,0.2,1.02,637.38,-0.4,37.6
4.34,1.25,1.25,0.0,3.75,3.5,6.75,0.0,5.75,2.75,3.5,3.0,2.5,2.25,-0.11,-0.05,1.08,392.91,-3.5,-11.9,3.0,2.0,2.75,4.0,8.5,0.0,0.0,1.25,0.5,1.0,2.25,0.5,1.25,0.39,0.33,0.83,501.93,-8.8,32.2
4.36,0.0,1.25,0.0,2.0,3.5,6.25,0.0,5.0,2.25,3.25,3.5,2.0,2.75,-0.05,0.02,0.95,445.02,-5.8,-20.1,2.25,1.75,2.75,3.75,7.5,4.75,0.0,2.0,0.5,0.75,2.25,0.25,1.25,0.58,0.33,0.77,417.43,-3.5,29.7
4.38,1.25,1.25,0.0,3.5,6.5,6.75,0.0,5.75,3.75,4.75,5.5,5.0,4.25,-0.11,0.02,0.95,578.49,-2.7,-22.0,0.5,0.0,1.75,1.25,3.75,3.0,0.0,2.0,0.25,0.0,0.25,0.0,0.25,0.77,0.45,0.77,293.44,0.2,31.6
4.4,1.25,1.25,0.25,2.75,5.75,6.0,0.5,5.75,4.25,2.75,6.25,5.25,5.0,-0.05,-0.05,0.95,660.87,-1.5,-25.5,0.5,0.0,0.0,1.25,2.75,2.75,0.0,1.0,0.25,0.0,0.0,0.25,0.25,0.77,0.58,0.64,197.45,4.9,29.7
4.42,0.0,1.25,0.0,1.75,3.0,5.25,0.5,5.0,3.75,4.75,6.0,5.0,5.0,-0.05,-0.05,0.95,707.99,-3.5,-40.0,0.5,0.0,0.0,1.25,1.0,1.75,0.0,1.0,0.25,0.0,0.0,0.0,0.25,0.52,0.89,0.7,82.95,3.2,26.8
4.44,1.25,1.25,0.0,2.5,3.0,5.25,0.25,5.25,4.25,6.25,6.0,6.0,5.25,-0.05,-0.05,0.95,744.32,-2.4,-38.1,0.5,0.0,0.0,0.25,1.25,1.5,0.0,0.75,0.25,0.0,0.0,0.25,0.25,0.2,0.7,0.83,1.64,5.3,18.1
4.46,1.0,1.25,0.0,2.0,3.5,4.5,0.5,5.75,3.75,6.75,6.75,6.75,6.25,-0.11,-0.05,0.95,781.64,-2.7,-43.1,0.5,0.0,0.0,0.5,0.5,1.25,0.0,0.0,0.25,0.0,0.0,0.0,0.25,0.39,0.95,0.33,0.0,1.2,33.6
4.48,0.5,1.0,0.0,1.75,3.5,4.0,0.25,5.75,3.5,7.5,7.25,6.75,6.75,-0.11,0.02,0.95,795.92,-3.4,-48.3,0.0,0.0,0.0,1.0,0.25,1.0,0.0,0.0,0.25,0.0,0.0,0.0,0.25,0.14,0.64,0.58,0.0,1.8,25.3
4.5,0.25,0.25,0.0,1.75,3.5,3.0,0.0,5.75,3.0,7.5,7.25,7.5,7.5,-0.17,-0.05,0.95,808.8,-3.7,-55.3,0.5,0.0,0.0,0.5,0.0,0.5,0.0,0.0,0.25,0.0,0.0,0.0,0.0,-0.11,0.33,0.83,0.0,-10.2,48.3
4.52,0.5,0.0,0.0,1.75,3.0,3.0,0.0,5.75,1.75,6.25,7.5,6.75,7.75,-0.23,0.02,0.95,788.78,-3.9,-56.2,0.0,0.0,0.0,0.75,0.0,0.25,0.0,0.5,0.25,0.0,0.0,0.0,0.0,-0.23,-0.23,1.14,0.0,-1.5,13.9
4.54,0.5,0.25,0.0,0.0,0.0,1.5,0.0,5.25,1.75,7.0,7.25,7.0,7.75,-0.48,0.02,1.08,716.6,-4.2,-74.8,0.25,0.0,0.0,1.25,0.0,0.25,0.0,0.5,0.0,0.0,0.0,0.0,0.0,-1.55,-1.8,3.77,0.0,-7.4,38.3
4.56,0.0,0.75,0.0,0.75,0.0,1.75,0.0,5.0,1.5,7.5,5.75,7.5,8.0,-0.67,0.02,1.14,656.94,-4.8,-72.3,0.0,0.0,0.0,1.0,0.0,0.25,0.0,0.5,0.25,0.0,0.25,0.25,0.25,-0.86,-2.36,1.77,0.0,-3.0,-12.2
4.58,0.25,1.25,0.0,0.25,0.0,1.75,0.0,3.75,1.0,7.25,5.75,7.5,8.75,-0.42,0.02,1.2,605.44,-4.5,-73.1,0.25,0.0,0.0,0.75,0.0,0.5,0.0,0.5,0.0,0.0,0.25,0.25,0.25,-0.3,-1.17,1.02,0.0,-1.3,-3.2
4.6,0.75,1.25,0.0,0.5,0.0,1.0,0.0,3.25,1.0,6.5,5.0,7.25,8.75,-0.3,0.08,1.2,561.87,-3.5,-72.1,0.0,0.0,0.0,0.5,0.0,0.5,0.25,0.5,0.25,0.0,0.75,0.25,0.25,-0.42,0.7,0.77,0.0,-1.0,-28.9
4.62,0.0,0.0,0.0,0.0,0.0,1.0,0.0,3.5,0.75,6.0,3.0,7.0,8.25,-0.3,-0.05,1.08,491.78,-6.3,-84.7,0.0,0.0,0.5,0.5,0.0,0.25,0.25,0.5,0.25,0.0,0.75,0.25,0.25,-0.11,0.14,1.33,27.26,-8.4,-19.6
4.64,0.0,0.0,0.0,0.0,3.5,0.5,0.0,3.0,0.25,3.5,3.75,5.0,8.25,-0.36,-0.11,0.95,435.36,-5.6,-67.3,0.0,0.0,0.0,0.75,0.0,0.25,0.25,0.5,0.25,0.0,0.75,0.25,0.25,0.2,-0.05,1.64,37.35,-4.2,-26.4
4.66,0.0,0.0,0.0,0.0,0.0,0.5,0.0,1.0,0.25,2.75,2.25,4.0,6.5,-0.61,-0.23,0.83,341.64,-5.8,-91.0,0.0,0.0,0.0,0.5,0.0,0.25,0.0,0.5,0.25,0.0,0.5,0.25,0.25,0.2,0.2,1.14,40.61,-0.8,-33.1
4.68,0.0,0.0,0.0,0.0,0.0,0.5,0.0,1.0,0.0,0.75,1.25,2.0,5.25,-0.67,-1.23,1.58,247.41,-7.6,-90.8,0.0,0.0,0.0,0.5,0.0,0.25,0.0,0.5,0.25,0.0,0.25,0.0,0.25,0.08,0.02,0.89,38.11,1.3,-18.4
4.7,0.0,0.0,0.0,0.0,0.0,0.25,0.0,1.0,0.0,0.5,1.0,1.25,2.25,-0.55,-1.67,2.08,145.59,-6.4,-85.0,0.0,0.0,0.25,0.5,0.0,0.25,0.25,0.5,0.25,0.0,0.0,0.25,0.25,0.08,-0.36,0.83,37.52,-4.4,-11.3
4.72,0.25,1.0,0.0,0.0,0.0,1.0,0.0,1.0,0.25,1.25,2.25,1.5,2.25,-0.73,-1.67,3.2,87.94,-2.6,-53.1,0.0,0.0,0.0,0.5,0.0,0.25,0.25,0.5,0.25,0.0,0.25,0.0,0.0,0.52,-0.73,1.14,33.96,-2.5,-2.9
4.74,0.5,0.75,0.0,0.75,2.5,1.0,0.25,2.5,0.5,1.5,1.25,0.0,1.5,-0.92,-0.48,3.14,71.67,-4.1,-9.9,0.0,0.0,0.5,1.0,0.0,0.25,0.0,0.5,0.25,0.0,0.25,0.0,0.0,0.7,-1.23,1.39,37.65,-10.6,18.9
4.76,0.25,0.75,0.5,0.75,3.0,1.0,0.25,2.5,0.25,2.0,1.25,0.75,1.5,-1.17,0.14,2.58,95.81,-3.3,-13.4,0.0,0.0,0.0,0.75,0.0,0.25,0.25,0.5,0.25,0.0,0.0,0.0,0.0,0.77,-1.67,1.58,35.04,-3.5,14.7
4.78,0.25,0.75,0.5,0.25,2.25,0.75,0.25,1.75,0.75,2.0,1.25,0.5,1.5,-0.98,0.14,1.64,111.5,-2.6,-19.3,0.0,0.0,0.25,0.75,0.0,0.25,0.25,0.5,0.25,0.0,0.5,0.0,0.0,0.58,-1.86,2.14,37.21,-8.2,2.6
4.8,0.25,0.75,0.5,0.5,2.5,0.75,0.25,2.0,0.5,1.5,1.5,0.5,1.25,-0.3,0.08,1.33,123.05,-1.8,-13.2,0.0,0.0,0.25,0.5,0.0,0.25,0.25,0.5,0.25,0.0,0.0,0.0,0.0,0.27,-1.98,2.83,33.82,-6.3,15.1
4.82,0.25,0.0,0.5,0.5,2.5,1.0,0.25,1.0,0.75,1.25,1.25,0.0,1.25,0.27,-0.17,0.89,119.11,-2.0,-11.1,0.0,0.0,0.0,0.75,0.0,0.25,0.25,0.5,0.25,0.0,0.0,0.25,0.0,0.7,-1.36,1.7,33.57,-4.1,0.2
4.84,0.5,0.5,0.5,0.75,2.5,1.0,0.25,1.0,0.5,1.25,1.25,0.5,1.25,0.14,-0.8,1.2,127.27,-0.1,-6.3,0.0,0.0,0.0,0.75,0.0,0.25,0.25,0.5,0.25,0.0,0.0,0.0,0.0,1.02,-1.05,0.14,30.83,-3.5,14.7
4.86,0.0,0.75,0.5,0.75,2.5,1.0,0.25,1.5,0.5,2.0,1.25,0.5,1.25,-0.3,-0.92,1.33,142.94,-2.6,-13.1,0.0,0.0,0.25,0.5,0.0,0.25,0.25,0.5,0.25,0.0,0.0,0.0,0.25,0.83,-0.86,-0.23,31.47,-3.9,0.0
4.88,0.5,1.0,0.5,0.25,2.5,1.5,0.25,1.25,0.5,1.5,1.25,0.5,1.25,-0.67,-0.61,0.7,162.63,-1.7,-5.2,0.0,0.0,0.0,0.75,0.0,0.25,0.25,0.5,0.25,0.0,0.25,0.0,0.5,0.52,-0.48,1.14,34.54,-0.8,-17.7
4.9,0.25,0.75,0.25,0.5,2.5,1.0,0.25,1.0,0.25,0.5,1.25,0.75,1.25,-0.55,-0.48,0.52,170.7,-0.9,-6.0,0.0,0.0,0.0,0.75,0.0,0.25,0.25,0.5,0.25,0.0,0.0,0.0,0.25,0.45,-0.55,1.2,35.7,-1.4,-0.1
4.92,0.5,1.0,0.75,0.75,2.5,1.0,0.25,1.0,0.5,1.5,1.25,0.0,1.25,-0.42,-0.55,0.64,179.29,0.4,2.1,0.0,0.0,0.25,0.5,0.0,0.25,0.25,0.5,0.25,0.0,0.0,0.0,0.25,0.27,-0.55,1.2,36.03,-3.9,0.0
4.94,0.25,1.0,0.5,0.25,2.5,1.0,0.25,1.0,0.25,1.25,1.25,0.25,1.25,-0.36,-0.8,0.64,173.99,-1.5,-3.6,0.0,0.0,0.0,0.75,0.0,0.25,0.25,0.5,0.25,0.0,0.25,0.0,0.0,0.02,-0.36,0.83,34.89,-4.3,4.5
4.96,0.25,1.0,0.75,0.75,2.5,0.75,0.25,1.0,0.5,1.5,1.25,0.5,1.25,-0.3,-0.86,0.58,172.68,0.6,-4.6,0.0,0.0,0.25,1.0,0.0,0.25,0.25,0.5,0.25,0.0,0.0,0.0,0.25,-0.11,-0.23,0.58,37.67,-6.5,11.4
4.98,0.0,0.75,1.0,0.5,2.25,1.0,0.25,1.0,0.25,1.25,1.25,0.5,1.25,-0.17,-0.67,0.52,168.21,-0.1,-7.4,0.0,0.0,0.0,1.0,0.0,0.25,0.0,0.5,0.25,0.0,0.0,0.0,0.0,-0.3,-0.17,0.52,36.3,-3.5,19.6
5.0,0.25,1.0,0.5,0.75,0.75,1.0,0.25,1.0,0.25,0.75,1.25,0.5,1.25,-0.11,-0.61,0.45,158.81,0.8,-11.4,0.0,0.0,0.25,0.75,0.0,0.25,0.25,0.5,0.25,0.0,0.0,0.0,0.0,-0.3,-0.17,0.52,37.23,-7.6,20.3
5.02,0.0,0.75,0.5,0.5,2.25,0.75,0.25,1.0,0.25,0.5,1.25,0.75,1.25,-0.05,-0.55,0.27,152.4,-0.1,-9.3,0.0,0.0,0.0,0.25,0.0,0.25,0.25,0.5,0.25,0.0,0.0,0.0,0.0,-0.23,-0.17,0.39,31.36,1.7,-1.7
5.04,0.25,0.75,0.75,0.75,2.25,0.75,0.25,1.0,0.25,1.75,1.25,0.5,1.25,-0.05,-0.55,0.08,154.99,-0.1,-9.0,0.0,0.0,0.25,0.5,0.0,0.25,0.25,0.5,0.25,0.0,0.25,0.0,0.0,-0.05,-0.3,0.14,31.47,-6.8,4.7
5.06,0.0,0.75,0.75,0.25,2.25,0.75,0.25,1.0,0.25,1.25,1.25,0.5,1.25,-0.11,-0.48,-0.11,155.37,-0.9,-11.5,0.0,0.0,0.0,0.25,0.0,0.25,0.5,0.5,0.25,0.0,0.25,0.0,0.0,0.08,-0.48,0.08,28.27,-2.3,-10.0
5.08,0.25,0.75,0.25,0.75,2.5,0.5,0.25,1.0,0.25,1.25,1.25,0.5,1.25,-0.11,-0.55,-0.05,156.51,-0.7,-8.6,0.0,0.0,1.0,0.5,0.0,0.25,0.0,0.5,0.25,0.0,0.0,0.0,0.25,0.2,-0.55,0.02,34.23,-12.2,15.7
5.1,0.25,0.75,0.5,0.25,2.25,0.75,0.25,1.0,0.25,0.25,1.25,1.25,1.25,-0.3,-0.67,0.02,154.19,0.9,-11.8,0.0,0.0,0.0,0.5,0.0,0.25,0.25,0.5,0.25,0.0,0.25,0.0,0.0,0.27,-0.61,0.02,33.13,-2.5,-2.9
5.12,0.25,0.75,0.75,0.75,1.75,0.75,0.25,1.0,0.25,0.25,1.25,0.75,1.25,-0.36,-0.67,0.08,151.77,2.5,-5.3,0.0,0.0,0.75,0.75,0.0,0.25,0.25,0.5,0.25,0.0,0.0,0.25,0.0,0.2,-0.61,0.08,39.32,-13.1,16.4
5.14,0.0,1.0,0.75,0.75,2.5,0.5,0.25,1.0,0.25,1.25,1.25,0.25,1.25,-0.36,-0.67,0.08,154.5,0.3,-2.9,0.0,0.0,0.0,0.5,0.0,0.25,0.0,0.5,0.25,0.0,0.0,0.0,0.25,0.02,-0.67,0.14,36.0,3.0,-10.6
5.16,0.25,0.75,0.75,0.5,2.5,0.75,0.25,1.0,0.25,1.25,1.0,0.5,1.25,-0.3,-0.61,-0.05,157.39,-0.1,-4.6,0.0,0.0,0.25,0.5,0.0,0.25,0.25,0.5,0.25,0.0,0.0,0.0,0.25,-0.05,-0.61,0.02,36.05,-3.9,0.0
5.18,0.25,1.0,0.75,0.75,0.5,0.75,0.25,1.0,0.25,1.5,1.0,0.75,1.25,-0.17,-0.61,-0.23,155.26,1.2,-18.2,0.0,0.0,0.0,0.25,0.0,0.25,0.25,0.5,0.0,0.0,0.0,0.0,0.0,-0.05,-0.55,-0.05,28.25,4.8,6.3
5.2,0.25,0.5,0.5,0.5,2.25,0.5,0.25,1.0,0.25,0.5,1.0,0.5,1.25,-0.11,-0.55,-0.3,149.24,0.3,-6.4,0.0,0.0,0.5,0.5,0.0,0.25,0.25,0.5,0.25,0.0,0.0,0.0,0.0,-0.05,-0.48,-0.17,29.39,-10.1,20.6
5.22,0.25,1.0,0.5,0.75,2.5,0.5,0.25,1.0,0.25,2.0,1.25,0.5,1.25,-0.05,-0.55,-0.3,157.21,-0.6,-9.0,0.0,0.0,0.0,0.5,0.0,0.25,0.25,0.5,0.25,0.0,0.0,0.0,0.0,-0.11,-0.42,-0.23,27.31,-1.2,7.8
5.24,0.25,0.5,0.75,0.75,1.75,0.75,0.25,1.0,0.25,1.25,1.0,0.5,1.25,0.02,-0.61,-0.3,156.59,0.2,-10.5,0.0,0.0,0.0,0.5,0.0,0.25,0.25,0.5,0.25,0.0,0.0,0.0,0.25,-0.17,-0.36,-0.36,28.7,0.7,-8.2
5.26,0.25,1.0,0.5,0.75,2.25,0.5,0.25,1.0,0.25,1.25,1.0,0.5,1.25,0.14,-0.61,-0.36,159.44,0.2,-4.6,0.0,0.0,0.0,0.5,0.0,0.25,0.25,0.5,0.25,0.0,0.0,0.0,0.0,-0.23,-0.36,-0.36,27.54,-1.2,7.8
5.28,0.25,0.5,0.5,0.25,1.75,0.75,0.25,1.0,0.25,1.25,1.0,0.5,1.25,0.14,-0.55,-0.42,152.42,-1.6,-16.1,0.0,0.0,0.0,0.25,0.0,0.25,0.25,0.5,0.25,0.0,0.0,0.0,0.0,-0.23,-0.36,-0.48,24.8,1.7,-1.7
5.3,0.0,1.0,0.25,0.75,0.75,0.5,0.25,1.0,0.25,0.25,1.0,1.0,1.25,0.14,-0.55,-0.48,141.82,1.2,-19.5,0.0,0.0,0.25,0.25,0.0,0.25,0.25,0.5,0.25,0.0,0.0,0.0,0.0,-0.23,-0.42,-0.55,23.7,-4.5,8.1
5.32,0.5,0.5,0.75,0.75,2.25,0.75,0.25,1.0,0.25,1.5,1.0,0.5,1.25,0.2,-0.55,-0.55,144.64,0.4,-6.4,0.0,0.0,0.0,0.75,0.0,0.25,0.25,0.25,0.25,0.0,0.0,0.0,0.0,-0.17,-0.42,-0.61,23.3,-6.5,22.9
5.34,0.25,0.5,0.75,0.5,2.25,0.75,0.25,1.0,0.25,1.25,1.0,0.5,1.25,0.27,-0.55,-0.55,148.09,-0.3,-8.7,0.0,0.0,0.25,0.0,0.0,0.25,0.25,0.5,0.25,0.0,0.0,0.0,0.25,-0.17,-0.48,-0.67,24.26,0.3,-18.6
5.36,0.0,0.75,0.75,1.0,3.0,0.5,0.25,1.0,0.25,1.25,1.0,0.5,1.25,0.27,-0.61,-0.55,159.98,0.2,-1.8,0.0,0.0,0.0,1.0,0.0,0.25,0.25,0.5,0.25,0.0,0.0,0.0,0.25,-0.11,-0.55,-0.73,28.78,-3.1,6.1
5.38,0.25,0.25,0.5,0.75,0.75,0.75,0.25,1.0,0.25,0.25,1.25,0.75,1.25,0.27,-0.48,-0.48,148.64,1.6,-22.2,0.0,0.0,0.25,0.5,0.0,0.25,0.25,0.5,0.25,0.0,0.25,0.0,0.0,-0.11,-0.61,-0.73,32.62,-6.8,4.7
5.4,0.25,0.25,0.75,0.25,2.5,0.5,0.25,1.0,0.25,1.25,1.0,0.5,1.25,0.39,-0.67,-0.61,149.08,-0.6,-12.3,0.0,0.0,0.5,0.25,0.0,0.25,0.25,0.5,0.25,0.0,0.0,0.0,0.0,-0.23,-0.8,-0.55,33.72,-9.2,15.4
5.42,0.25,0.75,1.0,0.25,2.25,0.5,0.25,1.0,0.25,1.0,1.25,0.5,1.25,0.33,-0.8,-0.48,147.45,1.5,-6.9,0.0,0.0,0.5,0.5,0.0,0.25,0.25,0.25,0.25,0.0,0.0,0.0,0.0,-0.3,-0.86,-0.55,33.85,-13.7,28.4
5.44,0.0,0.5,0.5,0.75,2.25,0.75,0.25,1.0,0.25,1.25,1.25,0.5,1.25,0.33,-0.86,-0.48,150.94,-1.3,-12.6,0.0,0.0,0.0,0.5,0.0,0.25,0.25,0.25,0.25,0.0,0.0,0.0,0.0,-0.11,-0.73,-0.98,29.79,-4.5,16.3
5.46,0.25,0.5,0.0,0.25,1.75,0.5,0.25,1.0,0.25,1.0,1.0,0.5,1.25,0.33,-0.86,-0.55,142.45,-3.0,-20.4,0.0,0.0,0.0,0.25,0.0,0.25,0.25,0.5,0.25,0.0,0.0,0.0,0.0,-0.23,-0.73,-0.86,26.53,1.7,-1.7
5.48,0.0,0.25,0.5,0.75,2.25,0.75,0.25,1.0,0.25,1.25,1.0,0.75,1.0,0.27,-0.8,-0.61,145.2,-1.4,-13.8,0.0,0.0,0.25,0.5,0.0,0.25,0.25,0.25,0.25,0.0,0.0,0.0,0.0,-0.3,-0.67,-0.8,25.29,-9.8,23.3
5.5,0.0,0.5,0.25,0.75,2.5,0.75,0.25,1.0,0.25,1.25,1.0,0.5,1.0,0.27,-0.73,-0.61,144.71,-2.3,-8.6,0.0,0.0,0.5,0.25,0.0,0.25,0.0,0.5,0.25,0.0,0.25,0.0,0.0,-0.23,-0.61,-0.86,27.52,-8.0,3.7
5.52,0.0,0.75,1.0,0.75,0.75,0.75,0.25,1.0,0.25,1.25,1.0,0.5,1.25,0.2,-0.73,-0.67,143.83,1.1,-16.0,0.0,0.0,0.5,0.5,0.0,0.0,0.25,0.5,0.25,0.0,0.0,0.0,0.0,-0.17,-0.61,-0.8,29.47,-14.2,18.9
5.54,0.25,0.5,0.25,0.5,2.5,0.75,0.25,1.0,0.25,1.0,1.25,0.0,1.25,0.14,-0.73,-0.67,144.57,-2.2,-5.4,0.0,0.0,0.5,0.5,0.0,0.25,0.25,0.5,0.25,0.0,0.0,0.0,0.0,-0.17,-0.67,-0.73,32.29,-10.1,20.6
5.56,0.0,0.25,0.5,0.25,0.75,0.75,0.0,1.0,0.25,1.25,1.25,0.5,1.25,0.08,-0.73,-0.61,134.45,-3.1,-35.4,0.0,0.0,0.25,0.5,0.0,0.25,0.25,0.5,0.0,0.75,0.0,0.0,0.0,-0.11,-0.67,-0.73,34.98,1.1,-7.8
5.58,0.25,0.75,0.75,0.5,0.5,0.75,0.25,1.0,0.25,0.5,1.25,0.75,1.25,0.08,-0.8,-0.55,129.82,2.6,-19.0,0.0,0.0,0.0,0.5,0.0,0.25,0.0,0.25,0.25,0.0,0.0,0.0,0.0,-0.11,-0.67,-0.73,30.97,-1.9,15.2
5.6,0.0,0.75,0.75,0.0,2.25,0.75,0.25,1.0,0.25,1.5,1.0,0.5,1.25,0.08,-0.86,-0.55,133.37,-2.0,-13.3,0.0,0.0,0.0,0.5,0.0,0.25,0.0,0.25,0.25,0.0,0.0,0.0,0.0,-0.05,-0.67,-0.67,26.38,-1.9,15.2
5.62,0.25,0.5,0.75,0.5,2.5,0.5,0.25,1.0,0.25,1.25,1.0,0.5,1.25,0.08,-0.86,-0.55,144.11,0.0,-8.0,0.0,0.0,0.0,0.5,0.0,0.25,0.25,0.5,0.25,0.0,0.0,0.0,0.0,-0.05,-0.73,-0.61,24.62,-1.2,7.8
5.64,0.0,0.75,0.5,0.75,0.5,0.75,0.25,1.0,0.25,1.25,1.0,0.5,1.0,0.08,-0.86,-0.48,138.98,-0.4,-20.2,0.0,0.0,0.5,0.25,0.0,0.25,0.25,0.25,0.25,0.0,0.0,0.0,0.0,-0.05,-0.73,-0.61,24.79,-13.2,23.7
5.66,0.0,0.75,1.0,0.75,2.25,0.75,0.25,1.0,0.25,1.0,1.0,0.5,1.0,0.14,-0.8,-0.42,146.22,1.2,-1.2,0.0,0.0,0.25,0.5,0.0,0.25,0.25,0.5,0.25,0.0,0.0,0.0,0.0,-0.05,-0.8,-0.55,26.96,-6.3,15.1
5.68,0.0,0.5,0.75,0.5,1.75,0.75,0.25,1.0,0.25,0.5,1.0,0.5,1.25,-0.05,-0.92,-0.42,142.78,0.1,-9.9,0.0,0.0,0.0,0.5,0.0,0.25,0.25,0.5,0.25,0.0,0.0,0.0,0.0,-0.11,-0.8,-0.48,27.92,-1.2,7.8
5.7,0.0,1.0,0.75,0.25,2.25,0.75,0.25,1.0,0.25,0.75,1.0,0.5,1.0,0.14,-0.8,-0.42,146.25,0.1,-1.4,0.0,0.0,0.25,0.5,0.0,0.25,0.25,0.25,0.25,0.0,0.0,0.0,0.0,-0.23,-0.86,-0.23,27.92,-9.8,23.3
5.72,0.0,0.75,0.5,0.0,2.25,0.5,0.25,1.0,0.25,1.25,1.0,0.5,1.25,0.02,-0.86,-0.3,143.18,-2.2,-14.9,0.0,0.0,0.0,0.75,0.0,0.25,0.25,0.25,0.25,0.0,0.0,0.0,0.0,-0.17,-0.8,-0.48,26.77,-6.5,22.9
5.74,0.0,0.5,0.5,0.25,0.5,0.5,0.25,1.0,0.25,1.0,1.0,0.5,1.25,0.02,-0.92,-0.3,134.06,-1.3,-32.8,0.0,0.0,0.5,0.5,0.0,0.25,0.25,0.25,0.25,0.0,0.0,0.0,0.0,0.08,-0.86,-0.36,28.03,-13.7,28.4
5.76,0.25,0.5,0.5,0.25,0.0,0.75,0.25,1.0,0.25,1.0,1.0,0.5,1.25,-0.11,-0.92,-0.23,122.26,-0.7,-33.3,0.0,0.0,0.0,0.5,0.0,0.25,0.25,0.25,0.25,0.0,0.0,0.0,0.0,0.02,-0.86,-0.23,26.39,-4.5,16.3
5.78,0.0,0.5,0.5,0.25,2.25,0.75,0.25,1.0,0.25,1.25,1.0,0.25,1.25,-0.11,-0.92,-0.17,123.76,-2.9,-12.3,0.0,0.0,0.5,1.0,0.0,0.25,0.25,0.5,0.25,0.0,0.0,0.0,0.0,0.02,-0.92,-0.17,32.7,-11.5,27.9
5.8,0.25,0.75,0.5,0.5,3.0,0.75,0.25,1.0,0.25,0.5,1.0,0.5,1.25,-0.11,-0.98,-0.17,136.29,-0.1,1.7,0.0,0.0,0.25,0.5,0.0,0.25,0.5,0.5,0.25,0.0,0.0,0.0,0.0,0.02,-0.86,-0.17,34.2,-7.9,15.8
5.82,0.0,0.75,0.25,0.25,1.25,0.75,0.25,1.0,0.25,1.0,1.25,0.5,1.25,-0.11,-1.05,-0.05,136.52,-2.5,-22.5,0.0,0.0,0.5,1.0,0.0,0.25,0.5,0.5,0.25,0.0,0.25,0.0,0.25,-0.05,-0.86,-0.05,43.62,-10.2,9.5
5.84,0.0,0.75,1.75,0.5,1.75,0.5,0.25,1.0,0.25,0.75,1.0,0.5,1.25,-0.11,-1.05,-0.05,144.46,4.3,-2.8,0.0,0.0,0.5,0.5,0.0,0.25,0.75,0.5,0.25,0.0,0.25,0.0,0.25,-0.05,-0.92,0.02,46.44,-9.9,1.4
5.86,0.25,0.25,0.75,0.25,0.0,0.5,0.25,0.5,0.25,1.25,1.0,0.5,1.0,-0.17,-1.05,0.02,129.85,2.1,-35.4,0.0,0.0,0.75,0.5,0.0,0.25,0.75,0.5,0.25,0.0,0.5,0.25,0.0,-0.05,-0.98,0.08,52.26,-13.9,0.7
5.88,0.0,0.5,0.25,0.0,2.25,0.75,0.25,1.0,0.25,1.0,1.0,0.5,1.25,-0.11,-1.05,0.02,129.49,-3.9,-17.3,0.0,0.25,0.0,1.25,0.0,0.25,0.75,0.5,0.25,0.0,0.5,0.0,0.0,0.02,-0.92,0.02,55.24,-9.3,15.8
5.9,0.25,0.5,0.5,0.0,1.25,0.75,0.25,1.0,0.25,1.0,1.0,0.5,1.0,-0.17,-0.98,0.02,120.59,-1.3,-18.6,0.75,0.25,0.5,1.25,0.0,0.25,0.75,0.5,0.25,0.0,1.0,0.0,0.0,0.02,-0.92,0.02,67.93,-15.9,23.0
5.92,0.0,0.75,0.5,0.0,1.75,0.5,0.0,0.75,0.25,1.0,1.25,0.5,1.0,-0.17,-0.92,0.02,123.89,-1.1,-16.5,0.0,0.0,0.0,0.75,0.0,0.25,0.25,0.0,0.0,0.0,0.0,0.0,0.0,-0.05,-0.92,0.08,56.64,-10.5,49.7
5.94,0.0,0.75,1.0,0.0,3.0,0.5,0.25,1.0,0.25,1.0,1.0,0.5,0.5,-0.17,-0.92,0.02,131.57,0.9,3.6,0.0,0.0,0.25,0.25,0.0,0.25,0.25,0.0,0.0,0.0,0.0,0.0,0.0,0.02,-0.92,0.08,43.53,-14.6,48.2
5.96,0.0,0.5,1.0,0.0,2.25,0.75,0.25,1.0,0.25,1.25,1.0,0.5,1.25,-0.11,-0.98,0.08,141.61,-1.0,-12.8,0.0,0.0,0.0,0.5,0.0,0.25,0.25,0.25,0.0,0.0,0.0,0.0,0.0,0.02,-0.86,0.02,28.37,-2.9,28.3
5.98,0.25,0.5,0.5,0.25,0.75,0.5,0.25,0.75,0.25,1.0,1.0,0.5,1.0,-0.11,-0.92,0.14,135.47,0.6,-22.5,0.0,0.0,0.5,0.5,0.0,0.25,0.25,0.0,0.25,0.0,0.0,0.0,0.0,0.02,-0.86,0.14,23.09,-18.4,38.7
6.0,0.0,0.75,0.5,0.25,2.25,0.75,0.25,1.0,0.25,1.0,1.0,0.5,1.0,-0.17,-0.92,0.14,136.15,-1.6,-7.6,0.0,0.0,0.5,0.25,0.0,0.25,0.25,0.25,0.25,0.0,0.0,0.0,0.0,0.02,-0.86,0.2,20.76,-13.2,23.7
6.02,0.0,0.25,0.25,0.25,1.75,0.75,0.5,1.0,0.25,0.5,1.0,0.5,1.25,-0.11,-0.92,0.2,127.8,-2.6,-19.3,0.0,0.0,0.25,0.25,0.0,0.25,0.25,0.0,0.0,0.0,0.0,0.0,0.0,0.08,-0.86,0.14,17.72,-14.6,48.2
6.04,0.0,0.75,1.0,0.25,1.25,0.75,0.25,1.0,0.25,0.75,1.0,0.5,1.0,-0.11,-0.98,0.2,128.35,1.3,-9.7,0.0,0.0,0.0,0.5,0.0,0.25,0.25,0.0,0.0,0.0,0.0,0.0,0.0,0.08,-0.86,0.08,14.93,-8.5,47.3
6.06,0.0,0.5,0.5,0.5,1.25,0.5,0.25,0.75,0.25,1.0,1.0,0.5,1.0,-0.11,-0.98,0.14,124.82,-0.1,-17.9,0.0,0.0,0.0,0.5,0.0,0.25,0.25,0.0,0.25,0.0,0.0,0.0,0.0,0.08,-0.92,0.08,11.36,-9.3,28.5
6.08,0.0,0.75,0.25,0.25,1.75,0.75,0.25,1.0,0.25,1.0,1.0,0.5,1.0,-0.17,-1.05,0.2,127.26,-2.6,-13.6,0.0,0.0,0.0,0.75,0.0,0.25,0.25,0.0,0.0,0.0,0.0,0.0,0.0,0.08,-0.92,0.14,11.44,-10.5,49.7
6.1,0.0,0.25,0.5,0.25,2.25,0.5,0.5,0.75,0.25,0.75,1.0,0.5,1.0,-0.17,-1.11,0.2,127.5,-0.5,-11.8,0.0,0.0,0.25,0.5,0.0,0.25,0.25,0.25,0.0,0.0,0.0,0.0,0.0,0.02,-0.92,0.14,13.58,-9.4,34.3
6.12,0.25,0.5,0.5,0.0,0.0,0.75,0.25,0.25,0.25,1.0,1.0,0.5,1.0,-0.23,-1.11,0.2,114.09,0.9,-33.3,1.0,0.75,0.25,1.25,0.0,0.5,0.5,0.25,0.25,0.5,0.25,0.25,0.5,-0.05,-0.92,0.08,42.88,-10.1,20.5
6.14,0.25,0.5,0.75,0.5,0.5,0.5,0.25,0.75,0.25,0.75,1.0,0.5,1.25,-0.3,-1.11,0.2,110.27,2.6,-21.0,0.75,0.75,1.75,1.25,0.0,0.5,0.75,0.5,0.25,0.5,2.0,0.25,0.5,-0.05,-0.98,0.08,86.3,-13.8,6.4
6.16,0.0,0.5,1.0,0.25,0.5,0.75,0.25,1.0,0.25,0.75,1.0,0.5,0.75,-0.23,-1.11,0.2,104.92,2.0,-17.4,0.75,0.75,1.75,1.25,0.0,0.5,0.75,0.5,0.25,0.75,2.0,0.25,1.0,-0.05,-1.05,0.14,128.95,-11.6,-1.5
6.18,0.0,0.75,0.0,0.25,3.0,0.75,0.25,0.75,0.25,1.0,1.0,0.5,1.25,-0.23,-1.11,0.14,117.98,-3.7,-7.7,1.0,0.75,1.75,1.25,0.0,0.5,0.75,0.5,0.25,0.5,1.75,0.25,0.75,-0.11,-1.05,0.08,153.33,-13.6,7.5
6.2,0.0,0.0,0.5,0.5,1.25,0.5,0.5,1.0,0.25,0.75,1.0,0.5,1.0,-0.42,-1.05,0.08,118.69,-0.5,-23.9,1.0,0.75,1.75,1.25,0.0,0.25,0.5,0.5,0.25,0.5,1.75,0.25,0.75,-0.05,-0.98,0.14,163.54,-14.3,6.6
6.22,0.0,0.5,0.5,0.0,2.25,0.75,0.0,0.0,0.25,1.25,1.0,0.5,0.5,-0.42,-0.98,-0.11,122.93,-0.9,-5.4,1.0,0.75,0.25,1.25,0.0,0.5,0.75,0.5,0.25,0.5,2.0,0.25,1.0,-0.05,-0.98,0.14,160.72,-8.3,-7.9
6.24,0.0,0.5,0.25,0.0,0.5,0.5,0.25,1.0,0.25,1.0,1.0,0.5,1.0,0.33,-0.86,0.33,112.21,-3.1,-37.0,0.75,0.75,1.75,1.25,0.0,0.5,0.75,0.5,0.25,0.5,2.0,0.25,0.5,0.02,-1.05,0.14,160.34,-13.8,6.4
6.26,0.0,0.5,0.5,0.25,1.75,0.5,0.25,0.75,0.25,0.75,1.0,0.5,1.0,-0.42,-0.98,0.14,113.77,-0.4,-13.5,1.0,0.75,1.25,1.25,0.0,0.25,0.75,0.5,0.25,0.75,2.0,0.25,0.75,0.02,-0.86,0.14,159.84,-12.3,-0.3
6.28,0.0,0.5,0.5,0.25,2.25,0.5,0.25,0.0,0.25,0.5,1.75,0.5,1.0,-0.73,-0.98,0.02,115.3,2.2,-10.2,0.75,0.75,1.5,1.25,0.0,0.25,0.75,0.5,0.25,0.75,1.75,0.25,0.5,0.02,-0.92,0.2,157.75,-13.3,4.0
6.3,0.25,0.5,0.25,0.25,0.75,0.5,0.0,1.0,0.25,0.75,1.0,0.5,0.5,-0.11,-0.98,0.08,112.05,-0.3,-18.5,0.75,0.75,1.5,1.25,0.0,0.5,0.75,0.5,0.25,0.5,1.5,0.25,0.5,-0.11,-0.8,0.27,152.65,-13.2,9.3
6.32,0.25,0.5,0.75,0.5,2.25,0.5,0.5,0.5,0.25,0.75,1.25,0.5,0.5,-0.23,-0.98,0.02,120.23,3.8,2.7,0.75,0.75,1.75,1.25,0.25,0.5,0.75,0.5,0.25,0.5,1.75,0.25,0.5,0.14,-0.8,0.02,150.56,-13.3,9.9
6.34,0.25,0.25,0.5,0.5,0.75,0.75,0.25,0.0,0.25,1.0,1.25,0.5,0.5,-0.17,-0.92,0.27,114.44,3.3,-15.4,1.0,0.75,1.75,1.25,0.0,0.5,0.5,0.25,0.25,0.75,2.0,0.25,0.5,0.08,-0.92,0.02,147.26,-14.1,7.4
6.36,0.0,0.25,0.5,0.0,1.25,0.5,0.25,0.75,0.25,1.0,1.0,0.5,0.5,-0.23,-0.92,0.33,111.23,-0.9,-21.3,1.0,0.75,1.75,1.25,0.0,0.5,0.75,0.5,0.25,0.5,1.5,0.75,0.5,0.08,-0.86,0.27,144.31,-14.2,6.7
6.38,0.0,0.25,0.5,0.25,1.75,0.75,0.0,0.5,0.25,0.75,1.0,0.5,1.0,-0.11,-0.98,0.39,107.33,-1.5,-15.6,1.0,0.75,1.5,1.25,0.0,0.5,0.75,0.5,0.25,0.5,1.5,0.25,0.5,0.02,-0.8,0.39,140.64,-13.8,11.7
6.4,0.0,1.0,0.5,0.25,0.0,0.5,0.25,0.0,0.25,1.0,0.5,0.5,0.25,-0.23,-0.98,0.39,95.58,4.8,-7.4,1.0,0.75,0.5,1.25,0.0,0.5,0.75,0.5,0.25,0.5,2.0,0.25,0.5,0.08,-0.8,0.33,135.59,-10.6,0.5
6.42,0.0,0.5,0.0,0.0,1.25,0.75,0.25,1.0,0.25,0.5,1.0,0.5,1.0,-0.36,-0.98,0.39,93.46,-4.4,-24.3,0.75,0.75,1.5,1.25,0.25,0.5,0.75,0.5,0.25,0.5,2.0,0.25,0.25,0.08,-0.86,0.39,135.18,-13.3,9.6
6.44,0.25,0.75,0.5,0.75,0.0,0.5,0.25,0.25,0.25,0.75,1.0,0.5,0.5,-0.3,-1.05,0.33,91.08,6.3,-10.5,0.75,0.75,1.5,1.25,0.0,0.5,0.75,0.25,0.25,0.5,1.5,0.75,0.5,0.08,-0.92,0.45,134.09,-13.8,4.0
6.46,0.0,0.5,0.5,0.5,0.75,0.5,0.25,0.0,0.25,0.5,0.75,0.5,0.5,-0.23,-1.05,0.33,88.33,4.6,-6.3,1.0,0.75,1.75,1.25,0.0,0.5,0.75,0.5,0.25,0.5,2.0,0.25,0.5,0.02,-0.98,0.45,138.53,-14.3,8.6
6.48,0.25,0.75,0.5,0.25,2.25,0.25,0.5,1.0,0.25,0.75,1.0,0.5,0.5,-0.23,-1.05,0.39,100.92,2.0,1.2,1.0,0.75,1.25,1.25,0.0,0.25,0.75,0.5,0.25,0.5,1.75,0.25,0.75,0.02,-0.98,0.45,137.32,-13.2,3.7
6.5,0.0,0.25,0.75,0.5,1.25,0.5,0.25,0.75,0.25,0.5,1.0,0.5,0.75,-0.23,-1.05,0.39,105.68,2.3,-12.1,0.75,0.75,2.5,1.25,0.0,0.25,0.75,0.5,0.25,0.5,2.0,0.25,0.5,0.08,-0.98,0.45,142.88,-16.6,10.0
6.52,0.0,0.25,1.0,0.25,1.25,0.5,0.25,0.5,0.25,0.75,1.25,0.5,1.0,-0.23,-1.05,0.33,113.17,2.7,-18.4,1.0,0.75,1.75,1.25,0.0,0.5,0.25,0.75,0.25,0.5,1.75,0.75,0.75,0.08,-0.92,0.45,146.15,-12.2,0.2
6.54,0.0,0.25,0.5,0.5,0.5,0.5,0.5,0.0,0.25,0.75,0.75,0.5,0.5,-0.23,-1.05,0.33,103.34,4.4,-17.1,1.0,0.75,1.75,1.25,0.0,0.5,0.75,0.5,0.25,0.5,1.5,0.25,0.5,0.08,-0.98,0.45,146.1,-14.5,13.1
6.56,0.0,0.5,0.5,0.25,1.75,0.5,0.25,1.0,0.25,0.5,1.0,0.5,0.25,-0.23,-0.98,0.39,104.69,0.9,-2.2,1.0,0.75,1.75,1.25,0.0,0.25,0.75,0.5,0.25,0.5,1.75,0.25,0.5,0.14,-0.98,0.45,143.81,-15.3,10.2
6.58,0.0,0.25,0.5,0.75,1.75,0.5,0.25,0.25,0.25,0.5,1.0,0.5,0.75,-0.23,-0.98,0.39,105.77,2.4,-5.3,1.0,0.75,1.75,1.25,0.0,0.5,0.5,0.5,0.25,0.5,1.75,0.25,0.5,0.14,-0.92,0.45,142.51,-14.1,10.6
6.6,0.0,0.25,0.5,0.75,0.5,0.5,0.25,0.25,0.25,0.5,0.75,0.5,1.0,-0.17,-1.05,0.33,102.65,2.8,-21.2,1.0,0.75,1.75,1.25,0.0,0.5,0.5,0.5,0.25,0.5,1.5,0.25,0.5,0.2,-0.92,0.45,140.75,-14.2,12.9
6.62,0.25,0.0,0.5,0.25,2.25,0.5,0.25,0.25,0.25,0.5,0.0,0.5,0.5,-0.23,-0.98,0.33,100.55,0.8,9.6,1.0,0.75,1.5,1.25,0.0,0.25,0.75,0.5,0.25,0.5,1.5,0.25,1.0,0.2,-1.11,0.45,139.92,-13.2,4.2
6.64,0.0,0.25,1.0,0.25,1.25,0.25,0.25,0.75,0.25,0.75,1.0,0.5,0.5,-0.23,-0.86,0.39,102.43,3.8,-12.3,1.0,0.75,1.25,1.25,0.0,0.25,0.75,0.5,0.25,0.5,2.0,0.25,0.75,0.33,-1.23,0.45,138.99,-13.1,1.6
6.66,0.0,0.5,0.25,0.75,2.25,0.25,0.25,0.0,0.25,0.5,1.0,0.5,0.25,-0.17,-0.8,0.45,103.26,3.7,8.5,1.0,0.75,1.75,1.25,0.0,0.25,0.75,0.5,0.25,0.5,1.75,0.25,0.5,0.33,-1.17,0.45,138.15,-15.3,10.2
6.68,0.0,0.25,0.5,0.5,3.5,0.5,0.25,0.0,0.25,0.5,1.25,0.5,0.25,-0.17,-0.73,0.45,114.48,2.4,11.7,1.0,0.75,1.75,1.25,0.0,0.5,0.5,0.5,0.25,0.5,1.75,0.25,0.5,0.33,-1.11,0.45,138.61,-14.1,10.6
6.7,0.0,0.5,0.75,0.5,2.5,0.75,0.5,0.0,0.25,0.75,1.0,0.5,0.5,-0.23,-0.73,0.39,124.08,3.0,7.3,0.75,0.75,0.75,1.25,0.0,0.25,0.75,0.5,0.25,0.5,1.5,0.25,0.5,0.27,-0.98,0.52,130.7,-11.8,3.3
6.72,0.0,0.5,0.75,0.5,1.75,0.5,0.25,0.0,0.25,0.5,1.25,0.5,0.75,-0.3,-0.8,0.39,124.96,4.3,-2.8,0.75,0.75,1.75,1.25,0.0,0.25,0.75,0.5,0.25,0.5,1.5,0.25,0.5,0.2,-0.73,0.52,129.29,-14.9,10.2
6.74,0.25,0.0,0.5,0.25,1.75,0.5,0.25,0.0,0.25,0.5,1.0,0.5,0.5,-0.3,-0.8,0.33,118.39,3.4,-5.4,0.75,0.75,1.75,1.25,0.0,0.5,0.5,0.25,0.25,0.75,1.5,0.25,0.5,0.2,-0.61,0.52,127.53,-13.7,9.6
6.76,0.0,0.25,0.75,0.5,2.25,0.25,0.0,0.0,0.25,0.5,1.0,0.5,0.5,-0.3,-0.8,0.33,114.04,4.3,2.6,0.75,0.75,0.75,1.25,0.0,0.5,1.0,0.5,0.25,0.5,1.75,0.25,0.75,0.2,-0.55,0.27,127.63,-10.3,-1.1
6.78,0.0,0.25,0.25,1.0,2.25,0.25,0.25,0.5,0.25,0.5,1.25,0.5,1.25,-0.3,-0.8,0.33,118.09,0.8,-11.5,1.0,0.75,1.25,1.25,0.0,0.25,0.75,0.5,0.25,0.5,1.5,0.25,0.5,0.2,-0.48,0.2,127.54,-14.1,9.5
6.8,0.0,0.5,0.75,0.75,1.25,0.5,0.25,0.0,0.25,0.5,1.25,0.5,0.75,-0.36,-0.86,0.33,116.47,5.4,-5.1,0.75,0.75,1.5,1.25,0.0,0.25,0.75,0.5,0.25,0.75,1.75,0.25,0.5,0.08,-0.48,0.33,129.51,-13.3,4.0
6.82,0.0,0.0,0.5,0.75,0.75,0.5,0.25,0.5,0.25,0.5,1.25,0.5,0.5,-0.36,-0.8,0.39,111.19,3.3,-20.3,0.75,0.75,2.0,1.25,0.0,0.25,0.5,0.5,0.25,0.5,1.75,0.25,0.75,0.08,-0.55,0.33,132.98,-14.5,5.8
6.84,0.25,0.5,0.75,0.75,1.75,0.25,0.5,0.25,0.25,0.75,1.0,0.5,0.75,-0.36,-0.8,0.45,115.11,5.3,0.1,0.75,0.75,1.75,1.25,0.0,0.25,0.5,0.5,0.25,0.5,2.0,0.25,0.5,0.14,-0.61,0.33,135.13,-14.5,5.4
6.86,0.0,0.5,0.75,0.25,0.0,0.75,0.25,0.0,0.25,0.5,0.75,0.5,1.0,-0.3,-0.8,0.45,101.59,4.0,-24.0,1.0,0.75,1.5,1.25,0.0,0.5,0.75,0.5,0.25,0.5,2.0,0.25,0.5,0.2,-0.61,0.39,138.74,-13.6,7.1
6.88,0.0,0.5,0.5,0.75,1.75,0.25,0.5,0.25,0.25,0.75,0.0,0.5,0.25,-0.3,-0.8,0.39,97.91,3.6,14.5,1.0,0.75,2.0,1.25,0.0,0.25,0.75,0.25,0.25,0.5,1.75,0.25,0.5,0.14,-0.61,0.45,140.21,-16.9,12.9
6.9,0.0,0.25,0.5,0.5,1.75,0.25,0.25,0.25,0.25,0.75,1.0,0.5,1.25,-0.3,-0.67,0.39,98.53,1.0,-17.9,1.0,0.75,1.75,1.25,0.0,0.25,0.5,0.0,0.25,0.5,2.0,0.25,0.5,0.2,-0.67,0.45,139.19,-16.8,10.4
6.92,0.0,0.25,0.75,0.75,1.25,0.25,0.25,0.5,0.25,1.0,0.5,0.5,0.75,-0.23,-0.67,0.45,101.72,2.5,-10.3,0.75,0.75,1.0,1.25,0.0,0.25,0.75,0.5,0.25,0.5,1.75,0.25,0.5,0.27,-0.67,0.39,134.18,-12.6,2.8
6.94,0.0,0.25,0.5,0.5,1.25,0.5,0.25,0.5,0.25,1.0,0.5,0.5,1.0,-0.23,-0.67,0.52,103.58,-0.7,-17.5,0.75,0.75,1.5,1.25,0.0,0.25,1.0,0.5,0.25,0.75,1.75,0.25,0.5,0.33,-0.67,0.39,134.36,-13.5,4.3
6.96,0.0,0.25,0.5,0.25,0.5,0.25,0.25,0.0,0.25,0.5,1.25,0.5,1.0,-0.3,-0.73,0.58,97.92,4.1,-35.2,0.75,0.75,1.25,1.25,0.0,0.25,0.25,0.0,0.25,0.5,1.5,0.25,0.5,0.33,-0.67,0.45,125.88,-14.9,9.4
6.98,0.25,0.5,0.75,0.0,2.5,0.5,0.25,0.75,0.25,0.5,1.0,0.5,0.5,-0.42,-0.67,0.7,107.07,2.1,4.0,0.75,0.75,1.5,1.25,0.0,0.25,0.75,0.5,0.25,0.75,2.0,0.25,0.5,0.33,-0.61,0.52,128.55,-13.2,1.9
7.0,0.25,0.25,0.5,0.5,2.5,0.25,0.25,0.0,0.25,0.75,0.5,0.5,0.75,-0.48,-0.73,0.7,108.7,2.5,4.5,0.75,0.75,1.25,1.25,0.0,0.5,0.75,0.5,0.25,0.5,1.5,0.25,0.5,0.33,-0.8,0.64,127.3,-12.4,7.7
7.02,0.0,0.0,0.75,0.25,0.0,0.5,0.25,0.0,0.25,0.25,0.0,0.5,0.75,-0.55,-0.73,0.64,93.03,5.9,-25.4,1.0,0.75,1.5,1.25,0.0,0.25,0.5,0.25,0.25,0.5,2.0,0.25,0.5,0.39,-0.86,0.58,130.04,-15.2,7.5
7.04,0.0,0.5,0.5,0.25,2.25,0.5,0.25,0.0,0.25,0.25,0.5,0.5,0.75,-0.67,-0.67,0.7,93.61,1.9,7.7,0.75,0.75,1.25,1.25,0.0,0.25,0.75,0.5,0.25,0.5,1.5,0.25,0.5,0.39,-0.86,0.7,127.05,-13.5,7.0
7.06,0.0,0.0,0.75,0.5,0.75,0.25,0.25,0.0,0.25,0.5,0.75,0.5,1.0,-0.67,-0.48,0.7,85.56,4.9,-24.3,0.75,0.75,1.75,1.25,0.0,0.5,0.75,0.5,0.25,0.25,1.75,0.25,0.25,0.33,-0.86,0.77,128.82,-15.5,14.5
7.08,0.25,0.75,0.5,0.5,1.75,0.5,0.25,0.25,0.25,0.25,0.0,0.5,1.0,-0.61,-0.36,0.7,91.79,2.6,11.9,0.75,0.75,1.25,1.25,0.0,0.5,0.75,0.5,0.25,0.5,2.0,0.25,0.25,0.33,-0.8,0.77,128.78,-13.1,6.6
7.1,0.25,0.0,0.5,0.75,1.75,0.5,0.25,0.0,0.25,0.25,0.5,0.5,0.5,-0.61,-0.23,0.7,93.74,4.7,8.3,0.75,0.75,1.75,1.25,0.0,0.25,0.75,0.25,0.25,0.5,2.0,0.25,0.25,0.33,-0.73,0.77,130.25,-16.5,10.4
7.12,0.0,0.25,0.5,0.75,2.25,0.5,0.25,0.5,0.25,0.5,1.0,0.5,0.25,-0.67,-0.23,0.64,104.88,2.4,4.9,1.0,0.75,1.75,1.25,0.0,0.25,0.75,0.5,0.25,0.5,1.5,0.25,0.25,0.33,-0.67,0.77,131.93,-16.3,16.2
7.14,0.0,0.0,0.5,0.5,2.5,0.5,0.5,0.0,0.25,0.75,0.5,0.5,0.5,-0.67,-0.17,0.7,106.93,1.3,3.5,0.75,0.75,1.75,1.25,0.0,0.25,0.75,0.5,0.25,0.5,2.0,0.25,0.5,0.27,-0.55,0.83,135.29,-14.7,5.7
7.16,0.25,0.25,0.5,1.0,2.25,0.5,0.25,0.0,0.25,0.25,0.25,0.5,1.0,-0.61,0.02,0.77,113.52,3.4,11.2,1.0,0.75,1.25,1.25,0.0,0.25,0.75,0.25,0.25,0.5,2.0,0.25,0.5,0.14,-0.48,0.95,135.08,-14.8,6.1
7.18,0.0,0.25,0.5,0.5,0.75,0.5,0.25,0.25,0.25,0.5,0.5,0.5,0.5,-0.61,0.02,0.77,104.1,2.9,-9.8,0.75,0.75,1.5,1.25,0.0,0.5,0.75,0.25,0.25,0.5,1.5,0.25,0.5,0.08,-0.42,0.89,133.27,-14.1,10.8
7.2,0.25,0.0,0.5,0.75,2.25,0.5,0.25,0.5,0.25,0.5,0.0,0.5,0.5,-0.67,0.08,0.7,105.16,1.4,11.5,1.0,0.75,1.75,1.25,0.0,0.25,0.75,0.25,0.25,0.5,1.25,0.25,0.5,0.08,-0.3,0.77,132.18,-16.6,16.6
7.22,0.25,0.5,0.5,0.75,1.25,0.5,0.25,0.0,0.25,0.5,0.0,0.5,0.5,-0.73,0.02,0.64,97.52,4.9,15.2,0.75,0.75,1.5,1.25,0.25,0.25,0.5,0.25,0.25,0.5,1.5,0.25,0.5,0.08,-0.23,0.64,129.45,-14.3,11.4
7.24,0.25,0.25,0.5,0.75,2.25,0.5,0.25,0.0,0.25,0.5,0.25,0.5,0.75,-0.67,0.02,0.83,104.88,2.8,10.9,0.75,0.75,2.25,1.25,0.0,0.25,0.5,0.5,0.25,0.5,1.25,0.25,0.5,0.2,-0.17,0.64,131.41,-16.2,15.3
7.26,0.0,0.5,0.5,0.5,2.5,0.5,0.25,0.25,0.25,1.0,0.25,0.5,0.75,-0.73,-0.11,1.02,113.17,-0.2,4.2,1.0,0.75,0.5,1.25,0.0,0.25,0.75,0.25,0.25,0.5,1.75,0.25,0.5,0.27,-0.23,0.64,126.33,-12.5,3.2
7.28,0.5,0.25,0.5,0.75,0.0,0.5,0.25,0.0,0.25,1.25,0.5,0.5,1.0,-0.92,-0.36,0.64,108.02,4.0,-22.9,0.75,0.75,1.25,1.25,0.0,0.5,0.75,0.5,0.25,0.5,2.0,0.25,0.5,0.33,-0.3,0.64,128.44,-12.4,3.2
7.3,0.25,0.25,0.5,0.5,1.75,0.25,0.25,0.25,0.25,1.25,0.75,0.5,1.25,-4.55,-4.73,1.95,112.93,0.7,-16.4,1.0,0.75,1.25,1.25,0.0,0.5,0.5,0.25,0.25,0.5,1.5,0.25,0.5,0.33,-0.3,0.77,126.29,-13.7,11.4
7.32,0.0,0.0,0.5,0.25,1.75,0.5,0.25,0.25,0.25,1.5,0.75,0.5,1.5,-1.05,-0.98,2.58,113.77,-2.8,-29.0,1.0,0.75,1.5,1.25,0.0,0.25,0.75,0.25,0.25,0.5,1.5,0.25,0.75,0.39,-0.3,0.7,128.77,-14.9,8.9
7.34,0.0,0.0,0.5,0.75,2.25,0.5,0.25,0.75,0.25,1.5,1.25,0.5,1.25,-0.48,0.58,0.58,127.45,-1.5,-20.3,1.0,0.75,0.5,1.25,0.0,0.25,0.75,0.25,0.25,0.5,1.75,0.25,0.5,0.33,-0.3,0.77,123.92,-12.5,3.2
7.36,0.0,0.0,0.0,0.25,0.0,0.5,0.0,0.0,0.25,2.0,0.0,0.5,1.25,-0.73,-0.11,1.52,114.15,-10.0,-68.2,1.0,0.75,1.75,1.25,0.0,0.5,0.75,0.25,0.25,0.5,2.0,0.25,0.5,0.27,-0.17,0.89,129.78,-15.1,9.9
7.38,0.5,0.0,0.25,0.25,2.25,0.5,0.0,0.5,0.25,2.25,1.25,0.5,2.25,-0.23,-0.36,1.2,131.87,-3.9,-33.1,1.0,0.75,1.75,1.25,0.0,0.25,0.75,0.0,0.25,0.5,2.0,0.25,0.25,0.27,-0.11,0.89,130.56,-18.0,14.2
7.4,0.25,0.75,0.5,0.25,2.5,0.5,0.0,0.5,0.25,2.0,1.25,0.5,2.25,-0.17,-0.23,0.64,145.8,-2.4,-22.1,1.0,0.75,1.75,1.25,0.0,0.25,0.5,0.0,0.25,0.5,2.0,0.25,0.75,0.33,-0.11,1.14,135.11,-16.0,6.9
7.42,0.5,0.0,0.5,0.75,1.75,0.5,0.0,0.5,0.25,2.0,1.25,0.5,2.25,-0.11,-0.36,0.83,160.95,-1.7,-30.2,0.75,0.75,1.5,1.25,0.0,0.25,0.75,0.25,0.25,0.75,1.75,0.25,0.5,0.45,-0.36,1.33,134.66,-14.2,5.2
