time,left pressure 0[N/cm虏],left pressure 1[N/cm虏],left pressure 2[N/cm虏],left pressure 3[N/cm虏],left pressure 4[N/cm虏],left pressure 5[N/cm虏],left pressure 6[N/cm虏],left pressure 7[N/cm虏],left pressure 8[N/cm虏],left pressure 9[N/cm虏],left pressure 10[N/cm虏],left pressure 11[N/cm虏],left pressure 12[N/cm虏],left acceleration X[g],left acceleration Y[g],left acceleration Z[g],left total force[N],left center of pressure X[mm],left center of pressure Y[mm],right pressure 0[N/cm虏],right pressure 1[N/cm虏],right pressure 2[N/cm虏],right pressure 3[N/cm虏],right pressure 4[N/cm虏],right pressure 5[N/cm虏],right pressure 6[N/cm虏],right pressure 7[N/cm虏],right pressure 8[N/cm虏],right pressure 9[N/cm虏],right pressure 10[N/cm虏],right pressure 11[N/cm虏],right pressure 12[N/cm虏],right acceleration X[g],right acceleration Y[g],right acceleration Z[g],right total force[N],right center of pressure X[mm],right center of pressure Y[mm]
0.02,1.25,1.25,0.0,1.5,1.25,2.5,1.0,4.75,3.75,6.75,7.0,7.75,7.5,-0.05,-0.05,0.95,722.98,-1.3,-55.5,7.5,2.0,11.5,9.25,6.5,1.25,6.0,2.5,2.0,0.75,2.5,1.25,1.25,0.02,0.2,1.2,916.35,-17.6,38.2
0.04,1.25,1.25,0.0,1.5,0.0,3.0,0.5,4.75,4.25,7.0,7.25,8.25,7.75,-0.05,-0.05,0.95,774.54,-1.5,-59.3,7.5,2.0,11.0,7.5,5.0,0.25,5.0,2.5,1.75,0.5,2.0,1.0,1.25,0.08,0.27,1.45,824.45,-19.2,39.9
0.06,1.25,1.25,0.0,1.5,1.75,3.0,0.75,5.25,4.25,7.5,7.75,8.0,8.25,-0.05,-0.05,0.95,827.19,-1.8,-55.0,6.75,1.0,10.5,5.0,2.75,0.25,4.75,2.25,1.25,0.0,2.0,0.0,1.25,0.08,0.33,1.64,672.29,-21.6,41.9
0.08,1.25,1.25,0.0,1.75,0.75,3.0,0.25,5.75,4.75,7.5,7.75,8.0,8.0,-0.05,-0.05,0.95,852.12,-1.8,-56.7,6.25,0.0,8.5,3.5,0.25,0.0,4.5,1.0,1.25,0.0,0.0,0.0,0.25,0.08,0.45,1.64,481.54,-28.7,55.0
0.1,1.25,1.25,0.25,2.75,1.75,3.25,1.75,5.75,5.0,7.0,7.75,7.75,7.75,-0.05,-0.05,0.95,872.65,-0.7,-49.0,5.25,0.5,7.25,3.25,0.0,0.0,3.75,1.0,1.0,0.0,0.0,0.0,0.25,0.33,0.83,1.89,335.87,-28.1,55.4
0.12,1.25,1.25,0.0,3.75,1.75,4.0,2.5,5.75,5.25,7.0,7.75,7.5,7.5,-0.05,-0.05,0.95,879.26,-0.5,-45.3,3.5,0.0,5.75,1.25,0.0,0.0,2.75,1.0,1.0,0.0,0.0,0.0,0.25,0.45,0.77,2.02,228.77,-28.3,48.9
0.14,1.25,1.25,0.25,4.0,1.75,4.0,3.0,5.75,5.5,6.25,7.25,6.75,7.0,-0.05,-0.05,0.95,871.26,0.0,-41.6,1.0,0.0,3.25,1.0,0.0,0.0,1.5,0.75,0.75,0.0,0.0,0.0,0.25,0.45,0.14,1.52,124.06,-25.0,37.2
0.16,1.25,1.25,1.25,4.25,3.75,4.25,4.0,5.75,5.5,6.25,6.75,6.5,6.5,-0.05,-0.05,0.95,867.89,0.8,-33.1,0.75,0.0,2.75,1.0,1.5,0.0,1.25,1.0,0.75,0.0,0.0,0.0,0.25,0.95,-0.73,0.95,49.04,-17.2,35.4
0.18,1.25,1.25,2.25,5.25,5.25,5.25,4.5,5.75,5.5,5.75,6.5,6.0,5.75,-0.05,-0.05,0.95,877.14,1.6,-23.7,0.75,0.0,2.5,1.0,1.5,0.0,1.0,1.0,0.75,0.0,0.0,0.0,0.25,1.14,-0.61,1.27,4.66,-16.3,34.7
0.2,1.75,1.25,2.5,6.0,5.75,5.25,5.0,5.75,5.5,4.75,6.0,5.0,5.25,-0.05,-0.05,0.95,886.05,2.5,-16.7,0.75,0.0,1.75,1.0,2.25,0.0,1.25,1.0,0.75,0.0,0.0,0.0,0.25,0.77,-0.55,0.95,0.0,-12.6,34.2
0.22,2.0,1.25,3.75,7.5,5.75,5.75,5.75,5.75,5.5,4.75,5.25,3.75,4.75,-0.05,-0.05,0.95,905.62,3.7,-8.4,0.75,0.0,1.75,1.0,1.75,0.0,1.0,1.25,0.75,0.0,0.0,0.0,0.0,0.58,-0.55,0.52,0.0,-13.4,35.2
0.24,2.25,1.5,4.75,7.75,7.0,6.0,6.25,5.75,5.25,4.25,4.25,3.5,3.0,-0.05,-0.05,0.95,927.03,4.9,1.0,0.5,0.0,1.0,1.0,2.25,0.0,1.0,0.75,0.5,0.0,0.0,0.0,0.25,0.52,-0.55,0.39,3.05,-9.9,34.4
0.26,2.75,2.25,5.25,9.5,7.5,6.25,6.75,5.75,5.0,3.5,4.0,2.25,2.75,-0.05,-0.05,0.95,963.44,6.0,10.0,0.75,0.0,1.0,1.0,0.5,0.0,1.0,1.0,0.75,0.0,0.25,0.0,0.25,0.39,-0.55,0.64,12.32,-14.3,20.1
0.28,3.25,2.5,6.5,11.0,8.0,6.75,7.0,5.5,4.25,3.5,2.75,2.0,1.75,-0.05,-0.05,0.95,1005.29,7.2,18.8,0.5,0.0,1.5,1.0,0.5,0.0,0.75,1.0,0.75,0.0,0.0,0.0,0.25,0.33,-0.42,0.89,26.42,-15.3,24.3
0.3,3.25,2.5,7.25,12.0,8.5,6.75,7.25,4.75,3.75,2.25,2.5,2.0,1.5,-0.05,0.02,0.95,1040.15,8.5,24.3,0.5,0.0,1.0,1.0,2.25,0.0,1.0,0.5,0.75,0.0,0.75,0.0,0.25,0.33,-0.23,1.02,54.93,-10.9,24.2
0.32,3.25,2.75,8.25,14.0,9.25,6.75,7.0,4.75,3.25,2.25,1.75,2.0,1.25,-0.05,0.02,1.02,1088.43,9.1,28.8,0.75,0.0,0.5,1.0,1.75,0.25,0.75,1.0,0.75,0.0,0.25,0.0,0.25,0.2,0.08,1.08,77.42,-7.4,24.2
0.34,3.75,2.75,8.75,15.5,9.75,7.0,7.5,4.75,2.75,2.25,1.25,1.75,1.0,0.02,0.02,1.02,1141.1,9.6,32.7,0.5,0.0,1.25,1.0,1.0,0.0,0.5,1.0,0.5,0.0,0.5,0.0,0.25,0.14,0.14,1.08,88.58,-12.2,20.3
0.36,4.0,2.75,9.5,15.5,11.0,6.75,7.25,4.75,2.25,2.25,1.75,1.25,1.0,-0.05,0.08,1.02,1199.06,9.8,34.5,0.5,0.0,0.5,1.0,1.75,0.25,0.75,1.0,0.75,0.0,0.5,0.0,0.25,0.08,0.27,1.14,100.04,-6.6,18.4
0.38,4.25,2.5,9.5,17.0,12.0,6.75,6.5,4.25,2.0,2.25,1.75,0.5,0.75,-0.05,0.08,1.02,1248.8,10.0,38.2,0.5,0.0,2.0,1.0,1.75,0.25,0.5,1.0,0.5,0.0,0.5,0.0,0.25,0.02,0.27,1.39,112.72,-12.0,27.9
0.4,5.75,2.75,9.5,17.0,12.0,6.0,7.0,3.5,1.75,1.25,1.25,0.5,0.75,-0.05,0.08,1.08,1271.17,11.6,43.3,0.5,0.0,0.75,1.0,2.25,0.25,0.5,1.0,0.75,0.0,0.25,0.0,0.25,0.08,0.33,1.45,115.44,-6.4,25.4
0.42,5.5,2.75,11.0,18.0,13.0,6.75,6.75,3.75,1.5,0.0,0.75,0.5,0.5,-0.05,0.14,1.02,1298.94,12.0,47.4,0.5,0.0,0.0,1.0,1.75,0.25,0.75,0.75,0.75,0.0,0.25,0.0,0.25,0.02,0.39,1.58,111.78,-4.8,20.9
0.44,7.25,3.0,12.0,16.5,14.0,5.75,5.0,3.0,1.25,2.0,0.25,0.75,0.5,-0.11,0.14,1.02,1320.12,12.3,47.2,0.5,0.0,1.0,1.0,1.5,0.25,0.5,1.0,0.75,0.0,0.25,0.0,0.0,-0.11,0.7,1.7,109.78,-9.6,28.3
0.46,7.75,3.25,12.5,16.5,14.0,4.0,4.75,3.0,1.0,0.5,0.5,0.75,0.25,-0.11,0.2,1.08,1324.24,14.2,51.4,0.5,0.0,1.0,1.0,2.25,0.25,0.5,1.0,0.5,0.0,0.0,0.0,0.25,-0.3,1.27,1.7,111.17,-7.2,32.1
0.48,7.75,2.75,12.0,17.0,14.0,2.5,3.75,2.75,1.0,0.5,0.5,0.5,0.0,-0.05,0.2,1.08,1302.1,14.9,53.1,0.5,0.0,1.25,1.0,1.75,0.25,0.5,0.75,0.75,0.0,0.25,0.0,0.0,-0.55,1.83,1.52,112.72,-11.1,32.9
0.5,7.75,4.25,14.0,18.5,13.5,2.75,3.25,3.0,1.5,0.0,0.75,0.25,0.0,-0.05,0.27,1.08,1306.46,15.7,54.5,0.5,0.25,1.25,1.0,1.75,0.25,0.5,0.75,0.75,0.0,0.25,0.0,0.0,-1.23,2.33,1.52,116.02,-11.1,35.3
0.52,8.75,4.25,11.5,16.0,11.0,0.75,2.5,2.0,1.0,2.25,0.0,0.5,0.0,-0.11,0.33,1.14,1232.7,16.4,54.0,0.5,0.25,1.0,1.0,2.5,0.25,0.75,0.75,0.75,0.0,0.25,0.0,0.0,-1.42,2.64,1.33,121.31,-9.0,36.3
0.54,8.5,4.25,12.5,16.5,11.5,1.75,4.25,3.25,1.25,2.25,0.5,0.5,0.75,-0.23,0.45,1.27,1224.16,15.1,48.5,0.5,0.25,0.75,1.0,2.5,0.25,0.5,0.5,0.75,0.0,0.25,0.0,0.25,-1.67,3.27,0.52,122.72,-7.8,33.1
0.56,7.75,4.0,9.75,13.0,9.0,1.0,4.25,2.75,1.0,2.0,0.75,0.5,0.75,-0.17,0.7,1.58,1105.59,15.4,47.6,0.5,0.0,0.0,1.0,1.75,0.25,0.5,0.75,0.25,0.5,0.5,1.25,1.25,-1.48,4.2,-0.73,125.67,-1.3,-18.9
0.58,6.75,2.75,6.5,9.25,7.75,0.5,2.75,2.75,1.0,1.75,0.75,0.5,0.75,-0.61,1.7,2.45,925.3,14.2,44.0,0.5,0.0,2.0,1.0,2.25,0.25,0.5,1.5,0.0,2.0,1.75,3.25,4.5,-0.61,-0.42,2.2,179.93,-1.7,-41.3
0.6,5.0,1.75,4.25,7.0,5.25,0.5,0.25,0.75,1.0,1.0,0.0,0.5,0.0,-0.48,1.33,2.58,651.96,15.7,52.4,0.5,0.0,0.5,0.5,3.25,0.0,0.5,0.0,0.75,5.0,2.5,5.25,6.25,-0.05,0.27,1.08,253.18,1.7,-61.3
0.62,1.25,0.0,0.75,2.75,1.25,0.0,0.0,0.5,0.75,0.0,0.0,0.5,0.0,-0.23,0.39,2.89,349.53,15.0,37.8,0.5,0.0,0.5,0.0,2.5,0.25,0.5,0.0,1.0,6.5,4.0,5.5,7.5,0.08,0.33,1.64,335.55,2.6,-70.0
0.64,0.25,0.0,0.0,1.5,0.0,0.0,0.0,1.0,0.75,0.0,0.0,0.25,0.0,-0.17,-0.92,0.2,148.91,7.8,5.0,0.5,0.0,0.0,1.0,3.0,0.25,0.5,2.75,1.25,6.5,4.25,6.0,7.5,0.14,0.08,1.02,431.99,3.4,-63.7
0.66,0.25,0.0,0.0,1.25,0.5,0.0,0.0,1.0,0.75,0.0,0.0,0.25,0.0,-0.67,-0.98,1.89,0.0,5.6,8.5,2.0,0.75,0.0,1.25,3.0,2.75,0.25,3.75,1.5,7.75,5.5,6.0,8.25,0.08,0.08,0.95,558.7,3.3,-50.4
0.68,0.0,0.0,0.0,1.25,0.0,0.0,0.0,0.75,0.75,0.0,0.0,0.25,0.0,-0.86,-1.17,1.83,0.0,6.9,-2.9,0.5,0.0,0.0,1.0,4.75,1.25,1.0,4.75,1.5,7.75,6.75,6.5,8.75,0.08,0.08,0.95,666.52,3.8,-57.4
0.7,0.0,0.0,0.0,1.0,0.5,0.25,0.0,0.5,0.5,0.0,0.0,0.25,0.0,-0.67,-1.11,0.83,0.0,3.3,10.9,0.75,0.25,0.0,0.0,5.25,2.0,0.75,5.25,1.5,7.75,6.25,6.5,8.25,0.08,0.08,0.95,744.87,4.6,-54.7
0.72,0.0,0.0,0.0,0.25,0.0,0.0,0.0,0.75,0.5,0.0,0.0,0.25,0.0,-0.55,-0.92,0.77,0.0,0.0,-34.3,0.5,0.25,0.0,1.0,3.25,2.0,0.5,4.0,2.0,7.75,6.75,6.5,8.25,0.08,0.08,0.95,779.08,3.8,-59.4
0.74,0.0,0.0,0.0,0.25,0.0,0.25,0.0,0.75,0.5,0.0,0.0,0.25,0.0,-0.48,-0.8,0.95,0.0,-2.6,-26.2,3.0,0.75,0.5,2.0,2.75,3.0,0.5,5.0,2.0,8.5,6.75,7.5,8.25,0.08,0.08,0.95,825.45,1.5,-47.2
0.76,1.0,0.25,0.0,1.5,0.0,0.75,0.0,0.75,1.0,0.75,0.0,0.5,0.75,-0.48,-0.67,0.95,0.0,3.9,-4.3,2.0,1.25,1.25,2.25,4.75,3.25,1.25,5.25,2.25,8.25,7.5,7.25,8.75,0.08,0.08,0.95,878.04,1.2,-41.7
0.78,1.25,0.0,0.25,1.25,1.75,1.0,0.0,2.25,1.0,1.25,1.25,0.5,1.0,-0.61,-0.3,1.02,0.0,0.2,-10.2,2.0,1.5,0.5,2.75,5.25,3.5,1.25,5.5,2.75,8.25,7.25,6.5,8.75,0.14,0.08,0.95,923.85,1.8,-39.1
0.8,1.25,1.0,0.25,1.25,0.0,1.5,0.0,2.75,1.0,1.25,0.75,0.25,0.75,-0.48,-0.05,1.08,52.43,0.0,-4.1,2.0,1.5,0.75,2.75,5.5,4.5,1.5,6.0,2.75,7.75,7.25,6.5,8.5,0.08,0.08,0.95,950.73,1.8,-36.2
0.82,1.25,0.5,0.25,1.5,0.0,1.0,0.0,2.25,1.0,1.0,0.75,0.5,0.0,-0.36,0.14,1.2,114.01,3.3,-0.6,2.0,1.75,0.0,3.5,5.5,5.0,0.75,6.0,3.0,7.75,7.0,6.0,8.0,0.08,0.08,0.95,941.43,2.4,-33.9
0.84,1.25,0.75,0.25,1.25,1.75,1.25,0.0,2.25,1.0,1.25,1.25,0.5,1.0,-0.23,0.33,1.39,168.67,0.5,-3.4,2.0,1.75,2.5,3.5,5.75,5.0,2.0,6.0,3.0,7.25,6.75,6.0,7.5,0.08,0.08,0.95,931.97,0.1,-27.5
0.86,1.25,0.75,1.25,1.25,0.75,1.5,0.0,2.75,1.0,1.0,0.5,0.5,0.75,-0.3,0.39,1.7,199.17,2.7,3.2,2.5,1.75,2.75,4.0,6.25,5.0,2.75,6.0,3.25,6.5,6.5,5.25,6.75,0.14,0.08,0.95,921.18,-0.8,-21.3
0.88,1.0,1.0,0.0,1.5,3.0,1.0,0.0,2.25,1.0,0.75,0.5,0.5,0.75,-0.36,0.64,2.08,213.87,0.0,10.5,3.25,1.75,3.75,5.0,6.25,5.25,3.25,5.75,3.25,5.75,6.0,4.0,6.0,0.08,0.08,0.95,918.47,-2.4,-12.3
0.9,1.0,1.0,0.25,1.25,1.25,1.25,0.0,1.5,1.0,1.0,0.25,0.5,0.75,-0.42,1.2,2.27,209.34,1.2,6.5,3.5,2.0,4.5,5.75,7.0,5.5,3.75,5.5,3.25,5.0,5.0,3.0,5.0,0.08,0.08,0.95,915.56,-3.6,-2.7
0.92,1.0,1.0,0.0,1.25,1.75,1.0,0.0,2.75,1.0,0.75,0.5,0.5,0.5,-0.23,2.02,1.89,208.16,-0.2,4.9,3.5,2.25,5.0,7.5,7.5,6.0,4.5,5.25,3.25,3.75,3.75,2.5,4.0,0.14,0.08,0.95,922.7,-4.9,7.3
0.94,0.75,1.0,0.25,1.25,0.0,1.25,0.0,2.5,1.0,1.0,0.5,0.5,0.75,0.02,2.64,1.7,192.94,-0.3,-7.8,4.5,2.5,6.25,8.0,8.0,6.25,5.25,5.0,3.0,3.5,2.25,1.5,2.75,0.08,0.08,0.95,932.24,-6.6,19.1
0.96,1.0,1.25,0.0,1.25,0.5,1.25,0.0,2.25,1.0,1.0,0.5,0.5,0.75,0.39,3.08,1.39,184.7,0.0,-0.9,4.75,2.5,6.75,9.5,8.5,6.25,5.75,4.25,2.75,2.5,2.75,1.25,2.25,0.08,0.08,0.95,946.26,-8.2,24.8
0.98,1.0,1.0,0.25,1.25,0.75,1.25,0.0,1.75,1.0,0.75,0.5,0.75,0.5,0.7,3.45,0.95,172.96,2.2,3.1,4.5,1.75,7.75,9.5,9.5,6.0,6.25,4.0,1.5,0.5,3.0,0.25,1.5,0.08,0.08,0.95,928.78,-9.8,34.0
1.0,0.75,0.25,0.25,1.25,1.25,1.5,0.0,1.25,1.0,0.75,1.0,0.5,0.5,1.08,3.83,1.89,161.5,0.9,-1.5,5.0,2.0,7.75,0.0,9.25,6.25,6.0,2.5,1.5,0.5,1.75,0.25,0.5,0.08,0.08,1.02,818.95,-9.7,38.8
1.02,1.0,0.5,0.25,1.25,1.25,0.75,0.0,1.25,1.0,0.0,1.25,1.0,1.25,2.14,4.45,-2.3,154.89,4.2,-8.5,5.75,2.0,8.75,13.0,10.5,6.0,6.5,2.75,1.25,0.5,2.25,0.0,1.25,0.02,0.14,1.08,851.13,-11.7,42.3
1.04,0.0,0.0,0.0,0.0,0.0,0.0,0.0,1.25,0.5,3.75,2.0,6.0,5.25,0.27,-0.36,2.64,202.05,-3.9,-92.8,6.75,2.5,10.5,13.0,12.5,5.75,6.5,2.5,1.25,0.5,1.5,0.0,0.5,0.02,0.14,1.08,918.49,-12.8,48.2
1.06,0.0,1.0,0.0,1.25,0.0,0.5,0.0,2.0,1.75,6.75,4.75,8.0,6.25,1.02,0.45,3.39,293.58,-1.9,-73.9,7.5,2.5,11.0,14.5,12.0,5.25,5.75,1.5,1.0,0.5,1.0,0.0,0.5,0.02,0.2,1.08,1021.91,-14.2,52.0
1.08,0.0,1.25,0.25,1.25,0.0,2.75,0.0,4.75,2.25,7.0,7.75,8.25,7.75,-0.05,0.27,1.45,446.57,-2.9,-65.7,8.25,2.5,10.5,14.5,11.5,0.0,5.25,0.75,0.75,0.0,1.25,0.0,0.25,0.08,0.27,1.2,1033.55,-18.5,57.2
1.1,0.75,0.0,0.0,1.5,0.0,2.0,0.25,4.75,2.75,7.25,8.5,7.75,7.75,-0.05,0.02,1.02,605.75,-2.3,-68.8,8.5,3.0,11.0,14.5,11.0,0.0,4.75,1.0,0.75,0.0,1.5,0.0,0.25,0.08,0.33,1.39,1033.65,-18.7,56.9
1.12,0.75,1.25,0.0,1.5,0.0,3.0,1.0,5.0,3.5,8.25,9.0,9.0,8.25,-0.05,-0.05,0.95,762.74,-1.9,-62.8,10.0,4.0,11.5,15.5,11.0,0.0,4.25,0.75,0.75,0.0,1.0,0.0,0.25,0.14,0.39,1.45,1025.6,-19.2,60.3
1.14,1.25,1.25,0.0,1.5,1.75,3.0,0.75,5.25,4.0,8.75,10.0,9.0,8.75,-0.05,-0.05,0.95,892.74,-1.6,-57.8,9.25,2.75,10.5,11.0,8.25,0.0,5.5,0.75,0.25,0.0,0.5,0.0,0.25,0.27,0.52,1.77,941.4,-20.8,61.4
1.16,1.25,1.25,0.0,2.0,1.75,3.0,0.25,5.75,4.25,8.75,9.75,9.0,8.5,-0.05,-0.05,0.95,984.34,-1.7,-56.5,8.25,2.5,8.75,8.75,5.5,0.25,6.25,1.0,0.75,0.5,0.75,0.0,0.25,0.39,1.14,2.64,825.92,-20.9,56.4
1.18,1.25,1.25,0.0,3.0,1.75,3.25,0.25,5.75,4.75,8.0,9.25,8.25,8.0,-0.05,-0.05,0.95,1028.74,-1.2,-52.1,7.5,2.5,6.75,6.5,4.5,0.0,5.5,1.0,0.25,0.5,2.0,0.25,1.0,0.58,1.95,3.14,680.17,-19.8,48.0
1.2,0.5,1.25,1.0,3.75,1.25,3.75,1.5,5.5,5.0,7.5,9.0,7.5,7.5,-0.05,-0.05,0.95,1034.15,-0.3,-48.1,5.0,1.5,0.0,4.25,1.5,0.0,3.25,1.5,0.75,0.5,1.5,0.25,1.0,1.14,1.14,3.95,464.96,-14.6,32.3
1.22,1.25,1.25,1.0,4.0,2.5,4.0,2.25,5.75,5.0,6.75,7.5,7.0,6.5,-0.05,-0.05,0.95,1001.34,0.2,-39.2,1.0,0.25,4.75,1.25,4.5,0.0,1.75,0.75,0.25,0.0,0.25,0.0,0.0,0.83,-1.61,0.14,302.06,-16.9,50.1
1.24,1.25,1.25,1.5,4.0,2.25,4.0,2.5,5.75,5.0,6.0,7.5,6.0,6.0,-0.05,-0.05,0.95,939.84,0.9,-36.0,1.0,0.25,2.25,1.25,1.75,0.0,1.25,1.0,0.25,0.0,0.0,0.0,0.25,0.64,-1.67,2.08,177.95,-15.9,42.7
1.26,1.25,1.25,2.0,4.25,2.5,4.25,2.75,5.5,4.75,4.75,6.5,5.25,5.25,-0.05,-0.05,0.95,853.0,1.7,-29.4,0.75,0.25,1.75,1.25,3.75,0.0,1.0,1.0,0.25,0.0,0.0,0.0,0.25,1.02,-1.17,1.39,76.36,-9.9,43.1
1.28,1.25,1.25,2.75,5.25,5.25,4.5,2.25,5.25,4.5,4.75,5.5,4.75,4.5,-0.05,-0.05,0.95,789.97,2.0,-18.1,0.75,0.25,1.5,1.0,3.0,0.0,1.0,0.75,0.25,0.0,0.0,0.0,0.5,0.64,-0.86,0.39,12.92,-10.2,39.1
1.3,1.5,1.25,3.0,6.0,5.75,5.0,3.75,5.25,4.5,3.5,4.5,3.5,2.75,-0.05,-0.05,0.95,736.7,3.4,-5.6,0.75,0.25,1.25,1.0,3.0,0.0,1.25,0.75,0.25,0.0,0.0,0.0,0.25,0.45,-0.55,0.27,0.0,-10.4,42.7
1.32,1.75,1.25,4.25,7.0,5.75,5.25,4.25,4.75,4.25,3.25,4.25,2.75,2.0,-0.05,0.02,0.95,717.33,5.2,2.6,0.5,0.25,1.25,1.0,3.25,0.0,1.0,0.75,0.0,0.0,0.0,0.0,0.25,0.39,-0.36,0.52,0.0,-8.8,44.2
1.34,2.25,1.25,5.0,7.75,5.75,5.75,5.0,4.5,4.25,2.75,3.0,2.25,1.25,-0.05,0.02,0.95,712.03,6.6,11.7,0.75,0.25,1.75,1.0,3.0,0.0,0.75,0.75,0.25,0.0,0.0,0.0,0.25,0.33,-0.36,0.77,1.98,-11.4,44.2
1.36,2.25,1.75,6.25,9.5,7.5,6.0,5.5,4.5,3.75,2.25,3.0,2.0,1.0,-0.05,0.02,0.95,745.23,7.6,19.4,0.75,0.25,0.5,1.0,3.0,0.0,0.75,1.25,0.25,0.75,2.0,0.0,1.0,0.33,-0.17,0.89,32.48,-3.6,0.6
1.38,2.25,2.5,7.5,12.0,7.75,6.75,5.75,4.25,3.25,2.0,2.0,2.0,1.0,-0.05,0.02,0.95,810.47,8.5,26.3,0.5,0.25,2.5,1.0,3.0,0.0,0.5,0.25,0.0,0.0,0.0,0.0,0.25,0.33,0.02,0.89,63.17,-14.5,51.7
1.4,3.25,2.5,8.75,14.0,9.25,6.75,5.25,4.5,2.75,2.0,1.25,2.0,1.0,-0.05,0.02,1.02,918.94,9.2,31.4,2.0,0.75,2.25,1.25,3.75,0.25,1.25,0.75,0.75,0.75,0.0,0.0,1.0,0.27,0.27,0.89,120.08,-10.6,34.3
1.42,2.5,2.0,9.75,14.0,10.5,6.5,5.0,4.25,2.0,1.75,1.5,0.5,0.5,-0.05,0.02,1.02,998.49,9.6,36.9,2.0,0.75,2.5,1.25,4.5,0.0,1.25,1.25,0.25,0.0,2.0,0.0,1.0,0.14,0.45,1.08,174.72,-11.1,27.9
1.44,3.25,2.75,9.75,17.0,9.5,6.75,4.75,3.0,2.0,1.5,0.0,0.5,0.75,-0.05,0.08,1.08,1064.76,10.9,43.2,0.5,0.25,1.25,1.0,2.25,0.0,0.5,0.5,0.25,0.0,0.0,0.0,0.0,0.08,0.45,1.52,178.44,-12.1,49.2
1.46,4.75,2.75,9.5,18.5,13.0,6.0,5.75,3.0,1.75,0.25,0.0,0.5,0.25,-0.05,0.08,1.08,1140.44,11.8,49.1,2.0,0.75,2.5,1.25,4.25,0.25,1.0,1.0,0.75,0.75,2.0,0.0,1.0,0.02,0.77,1.77,209.19,-10.0,22.3
1.48,5.75,1.25,10.5,16.5,11.0,5.25,4.25,2.5,1.0,0.0,0.0,0.5,0.0,-0.05,0.08,1.14,1141.24,13.6,51.8,0.5,0.25,1.0,1.0,2.75,0.25,0.5,0.5,0.25,0.0,0.0,0.0,0.25,0.02,1.45,2.2,184.85,-8.0,43.1
1.5,6.5,2.5,11.5,16.0,12.0,4.0,1.0,2.5,1.0,0.0,0.0,0.5,0.0,-0.05,0.14,1.14,1138.14,14.2,54.5,0.5,0.25,1.25,1.0,2.5,0.0,0.75,0.5,0.0,0.0,0.0,0.0,0.5,-0.05,2.33,2.45,165.64,-10.0,40.8
1.52,7.75,2.75,11.5,16.5,12.0,3.0,0.5,2.5,1.0,0.5,0.5,0.5,0.25,-0.05,0.14,1.2,1128.45,14.7,53.2,0.5,0.25,1.25,1.0,1.75,0.0,0.5,0.75,0.25,0.0,0.0,0.0,0.25,-0.23,3.2,2.2,132.22,-11.3,39.2
1.54,7.75,2.75,12.0,16.0,13.5,1.75,0.0,3.0,1.0,0.25,0.5,0.25,0.0,-0.11,0.2,1.27,1132.08,15.0,54.8,0.5,0.25,1.25,1.0,2.75,0.25,0.5,0.5,0.25,0.0,0.0,0.0,0.25,-0.67,3.7,0.95,124.08,-9.0,43.7
1.56,7.75,2.25,11.0,15.5,10.5,0.25,0.0,1.5,1.0,0.25,0.0,0.25,0.0,-0.3,0.33,1.52,1054.7,17.8,58.7,0.5,0.25,1.75,1.0,3.5,0.25,0.75,0.75,0.25,0.0,0.0,0.0,0.25,-1.3,4.27,0.27,122.36,-9.1,43.2
1.58,6.75,1.25,11.5,12.5,9.25,0.0,0.25,1.0,1.0,0.0,0.0,0.25,0.0,-0.42,0.45,1.77,930.96,19.3,59.1,1.0,0.25,0.5,1.0,2.25,0.0,0.75,0.75,0.75,0.25,2.25,0.75,1.5,-2.61,6.02,0.77,137.95,-6.5,-11.2
1.6,6.0,1.25,8.0,9.25,7.5,0.0,0.0,0.75,1.0,0.0,0.0,0.25,0.0,-0.42,1.02,2.39,737.93,18.8,59.4,0.5,0.25,1.0,1.0,2.5,0.0,0.5,1.0,0.25,1.0,1.75,3.0,4.0,0.02,-1.3,2.89,176.16,-2.0,-39.8
1.62,3.75,1.25,5.0,6.25,5.75,0.0,0.0,1.0,1.0,0.0,0.0,0.25,0.0,-0.73,2.08,3.08,524.68,16.7,55.7,0.75,0.25,1.0,1.0,1.75,0.25,0.25,1.0,0.75,5.0,3.0,5.5,6.25,-0.98,0.64,1.52,252.2,0.6,-60.6
1.64,1.25,0.0,1.5,4.25,1.75,0.25,0.0,0.75,1.0,1.0,0.0,0.5,0.0,-0.67,1.33,3.7,314.19,12.0,30.4,0.5,0.25,1.75,1.0,2.25,0.25,0.5,2.5,1.5,7.5,4.0,6.0,7.5,0.7,0.45,4.33,352.49,1.4,-59.4
1.66,1.25,0.5,0.0,1.5,1.25,0.0,0.0,1.0,0.75,0.0,0.0,0.25,1.0,-0.3,-1.36,1.64,173.83,6.4,16.3,0.0,0.25,0.5,1.0,4.5,0.5,0.5,3.75,1.25,7.25,6.25,6.0,7.75,-0.17,0.2,1.08,486.78,3.3,-57.8
1.68,0.0,0.0,0.0,1.5,0.75,0.0,0.0,0.75,0.5,0.0,0.0,0.25,0.0,-0.23,-1.17,1.89,28.39,5.0,15.7,0.25,1.5,0.0,3.75,3.75,2.75,0.5,4.0,2.0,7.75,7.5,6.0,8.5,0.14,0.08,0.89,648.49,2.5,-46.3
1.7,0.0,0.0,0.0,1.25,0.0,0.0,0.0,0.75,0.75,0.0,0.0,0.25,0.0,-1.05,-1.23,2.02,0.0,6.9,-2.9,0.5,0.75,0.0,1.0,5.75,2.75,1.0,5.25,2.0,7.75,6.5,6.0,7.75,0.14,0.08,0.95,747.78,4.1,-47.2
1.72,0.0,0.0,0.0,1.25,0.0,0.0,0.0,0.75,0.5,0.0,0.0,0.25,0.0,-0.92,-1.17,0.89,0.0,6.4,0.1,0.75,0.75,0.75,1.25,4.25,2.75,1.75,6.0,2.75,7.5,6.0,6.0,7.5,0.14,0.08,0.95,821.83,2.8,-46.2
1.74,0.0,0.0,0.0,0.75,0.0,0.25,0.0,0.75,0.5,0.0,0.0,0.25,0.0,-0.61,-0.92,0.83,0.0,1.4,-8.7,0.75,1.0,0.0,3.0,6.0,5.0,1.0,5.25,3.25,7.75,7.0,6.0,7.25,0.14,0.02,0.95,874.86,3.1,-37.4
1.76,0.0,0.0,0.0,0.75,0.0,0.25,0.0,0.75,0.5,0.0,0.0,0.25,0.0,-0.23,-0.61,0.7,0.0,1.4,-8.7,1.25,0.75,2.25,3.25,5.25,4.75,1.5,5.0,3.25,6.5,7.0,5.25,6.25,0.14,0.08,0.95,892.39,0.3,-30.2
1.78,0.0,0.0,0.0,1.5,0.0,1.25,0.0,1.0,1.0,1.5,0.0,0.5,0.0,-0.17,-0.36,0.64,0.0,-3.5,-16.8,2.0,0.75,2.5,3.5,6.5,5.0,2.75,5.0,3.25,6.0,6.0,4.5,5.5,0.14,0.08,0.95,895.43,-0.6,-20.8
1.8,1.25,1.25,0.25,1.5,1.75,1.25,0.0,2.25,1.0,1.25,0.25,0.5,0.5,-0.3,-0.3,0.7,0.0,1.1,11.1,2.0,0.75,2.75,3.75,6.25,5.0,2.75,5.25,3.25,5.0,5.75,3.5,4.75,0.08,0.08,0.95,866.32,-1.1,-16.0
1.82,1.0,1.25,0.25,1.5,1.75,1.25,0.0,2.5,1.0,1.25,1.0,0.5,0.5,-0.3,-0.11,1.02,81.25,0.7,4.3,2.0,0.75,4.0,5.0,6.5,5.75,3.0,5.0,3.5,5.25,3.25,2.75,3.25,0.08,0.08,0.95,835.11,-2.2,-3.8
1.84,1.25,1.0,0.25,1.25,1.75,1.0,0.0,2.5,1.0,1.25,0.75,0.5,0.75,-0.17,0.02,1.27,148.31,0.7,1.8,2.0,0.75,4.5,5.75,6.5,5.0,3.0,4.25,2.75,2.0,3.25,1.25,2.5,0.08,0.08,0.95,756.58,-4.8,9.7
1.86,0.5,1.25,0.25,1.25,1.75,1.5,0.0,2.75,1.0,1.25,0.5,0.5,1.0,-0.11,0.14,1.45,189.65,-2.3,-1.5,2.0,0.75,5.0,5.75,7.25,5.0,2.75,4.0,2.0,1.25,2.5,0.75,0.75,0.08,0.08,0.95,673.88,-6.1,22.6
1.88,0.25,0.75,0.25,1.5,1.75,1.75,0.0,2.75,1.0,1.25,0.5,0.5,0.75,-0.17,0.27,1.64,209.99,-3.3,-3.3,2.0,1.25,5.0,7.0,7.75,5.75,2.25,3.75,2.0,0.5,2.25,0.5,1.25,0.08,0.08,0.95,622.19,-6.0,27.2
1.9,0.75,0.25,0.25,1.25,1.75,1.5,0.0,2.25,1.0,1.25,1.25,0.5,0.75,-0.23,0.45,1.83,213.25,-1.3,-8.3,3.0,1.5,5.25,7.75,7.75,5.75,3.25,3.0,1.5,0.5,2.0,0.0,0.75,0.14,0.08,0.95,599.81,-7.9,35.9
1.92,1.0,1.0,0.25,1.25,1.75,1.0,0.0,2.5,1.0,1.25,1.0,0.5,0.25,-0.42,0.7,2.33,214.29,0.8,3.1,3.5,1.5,6.25,9.25,8.5,6.0,4.0,2.5,1.5,0.5,2.0,0.25,0.0,0.08,0.08,0.95,619.09,-9.7,40.7
1.94,0.75,1.0,0.25,1.25,1.25,1.5,0.0,2.75,1.0,1.0,0.5,0.5,1.0,-0.48,1.39,2.64,212.31,-1.6,-2.8,4.0,1.75,7.0,9.5,9.25,6.0,4.5,2.5,1.5,0.5,2.0,0.0,0.25,0.08,0.08,0.95,669.2,-10.2,42.1
1.96,0.25,0.5,0.25,1.0,1.25,1.0,0.0,2.75,1.0,1.25,0.5,0.5,0.75,-0.55,2.14,2.7,200.28,-3.4,-13.8,4.75,1.5,7.75,10.0,9.5,6.0,4.75,2.75,1.25,0.5,1.5,0.0,0.0,0.08,0.14,0.95,725.77,-11.0,45.0
1.98,0.75,0.75,0.0,1.25,1.75,0.5,0.0,2.5,1.0,1.25,0.5,0.5,0.75,0.52,3.95,0.7,190.66,-0.9,-5.0,6.25,2.0,8.75,14.5,10.5,5.75,5.5,2.0,1.0,0.5,1.5,0.0,0.0,0.08,0.14,1.02,826.64,-12.9,49.7
2.0,0.0,0.0,0.25,0.0,1.75,0.0,0.0,1.5,0.25,0.0,0.75,0.25,0.0,1.89,5.95,-0.98,149.24,-1.7,-5.1,6.75,2.5,9.0,16.0,12.5,6.25,5.75,2.25,1.25,1.75,1.5,0.75,1.0,0.02,0.14,1.02,985.74,-11.4,43.4
2.02,0.0,0.0,0.0,0.0,0.0,0.0,0.0,0.75,0.25,0.0,0.0,0.5,0.0,2.08,4.95,-0.61,92.3,-3.4,-62.4,6.25,1.75,9.75,0.0,12.5,5.75,5.5,2.25,1.25,1.5,2.0,0.5,0.75,0.02,0.14,1.02,976.51,-10.1,38.4
2.04,0.0,0.0,0.25,0.0,1.25,0.0,0.0,0.75,0.25,0.75,0.75,2.5,3.0,-0.61,-0.3,1.14,85.41,-2.9,-68.6,7.0,2.5,9.75,14.5,11.5,5.0,5.0,1.25,0.75,0.0,0.75,0.0,0.5,0.02,0.2,1.02,1025.32,-14.1,54.0
2.06,0.0,0.0,0.0,0.0,0.0,0.25,0.0,0.75,1.0,4.75,1.75,6.0,5.75,-0.17,0.2,2.33,159.82,-4.4,-91.2,8.25,2.0,10.5,14.5,12.5,5.0,4.5,0.0,0.75,0.0,1.25,0.0,0.25,0.02,0.2,1.02,1042.47,-15.2,56.3
2.08,0.0,1.25,0.0,1.25,0.0,2.75,0.0,3.25,2.0,7.5,5.75,8.25,8.0,0.08,0.83,4.39,306.33,-3.7,-67.7,8.0,2.0,12.0,16.0,13.0,3.25,4.0,0.0,0.75,0.0,0.5,0.0,0.25,0.02,0.27,1.08,1095.82,-16.6,58.6
2.1,0.0,1.0,0.0,1.25,1.25,3.0,0.0,4.75,2.75,7.5,8.75,8.5,8.25,0.02,-0.11,1.02,506.24,-3.1,-63.9,9.0,3.25,11.5,17.5,13.0,0.75,3.75,0.75,1.0,0.75,0.75,0.5,1.0,-0.05,0.27,1.08,1148.27,-16.8,54.0
2.12,1.25,1.0,0.0,1.75,0.0,3.0,0.25,4.75,3.75,8.0,9.0,9.0,8.25,-0.05,-0.05,0.95,714.15,-1.5,-62.1,9.25,2.25,13.0,16.0,12.0,2.0,3.5,0.25,0.75,0.0,1.75,0.25,1.0,0.08,0.39,1.08,1185.68,-17.7,54.5
2.14,1.25,1.0,0.0,2.0,1.25,3.25,1.25,5.75,4.5,8.25,9.75,9.0,8.5,-0.05,0.02,0.95,881.84,-1.3,-57.0,10.5,4.0,14.0,16.0,13.0,1.25,3.25,1.5,0.75,0.75,2.0,0.25,1.0,0.2,0.45,1.27,1248.51,-17.2,53.1
2.16,1.5,1.25,1.0,2.25,0.0,4.0,1.25,5.75,5.0,8.25,9.75,8.5,8.25,-0.05,-0.05,0.95,988.72,-0.4,-53.8,10.5,4.0,13.5,14.5,10.5,1.75,4.5,1.0,0.75,0.75,1.75,0.0,1.0,0.27,0.58,1.58,1240.91,-18.1,54.4
2.18,0.75,1.25,1.75,4.0,0.0,4.25,2.25,5.75,5.5,7.5,9.75,8.25,8.0,-0.05,-0.05,0.95,1057.33,0.6,-48.6,10.0,3.75,11.5,12.0,8.0,1.75,5.75,1.0,0.75,0.5,1.75,0.25,0.75,0.33,0.89,2.02,1169.34,-18.8,53.8
2.2,1.25,1.25,2.5,4.25,3.75,4.5,3.25,5.75,5.5,6.5,9.0,7.0,6.75,-0.05,-0.05,0.95,1092.49,1.6,-33.9,8.0,2.5,8.75,7.75,6.5,1.5,5.25,0.75,0.5,0.75,2.0,0.0,1.0,0.64,1.95,2.95,973.73,-18.1,49.5
2.22,1.25,1.25,3.0,4.5,5.5,4.75,3.75,5.75,5.5,6.25,8.25,6.0,5.75,-0.05,-0.05,0.95,1100.63,2.0,-26.0,5.5,0.75,7.0,4.5,5.25,0.25,2.75,1.0,0.0,0.75,2.0,0.0,0.5,1.14,1.45,3.89,707.63,-18.5,45.9
2.24,2.0,1.25,4.25,5.75,5.75,5.0,4.25,5.5,5.5,4.75,7.0,5.0,5.0,-0.05,-0.05,0.95,1090.18,3.9,-15.2,2.0,0.0,4.0,2.25,1.5,0.25,0.75,0.0,0.0,0.0,0.0,0.0,0.0,0.77,-0.73,3.45,397.94,-24.7,63.8
2.26,1.75,1.25,5.0,6.0,5.75,5.25,4.75,5.25,5.0,4.75,5.75,3.75,3.75,-0.05,-0.05,0.95,1039.29,4.5,-8.0,1.0,0.0,2.75,1.5,0.0,0.25,0.5,0.25,0.25,0.0,0.0,0.0,0.25,0.77,-0.61,1.39,217.14,-25.2,49.0
2.28,2.25,1.25,5.25,6.75,5.75,5.25,4.75,4.25,5.0,4.0,4.75,3.0,2.5,-0.05,-0.05,0.95,957.83,6.0,0.8,2.0,1.5,2.5,3.75,5.25,1.0,0.5,1.25,0.25,0.0,1.25,0.0,0.75,1.39,-1.05,2.02,132.17,-9.7,41.1
2.3,2.5,1.25,6.5,7.5,5.75,5.25,5.0,4.25,4.5,3.5,3.5,2.25,1.25,-0.05,-0.05,0.95,874.91,7.7,11.0,0.75,0.25,2.5,1.25,3.75,0.25,0.5,0.75,0.25,0.0,0.0,0.0,0.25,0.83,-1.05,0.89,63.66,-11.3,46.4
2.32,2.25,1.25,7.0,7.75,5.75,5.25,5.0,4.25,4.25,2.75,3.0,2.0,1.0,-0.05,-0.05,0.95,804.18,8.4,15.0,0.75,0.25,2.5,1.25,3.0,0.25,0.5,0.0,0.25,0.0,0.0,0.0,0.25,0.45,-0.67,0.45,33.44,-14.9,52.6
2.34,1.75,1.25,8.0,9.25,6.25,5.25,5.0,4.0,3.5,2.5,2.5,2.0,1.0,-0.05,0.02,0.95,775.03,9.0,19.3,0.75,0.25,2.0,1.0,3.75,0.25,0.5,0.5,0.25,0.0,0.0,0.0,0.25,0.27,-0.48,0.45,7.25,-10.4,47.5
2.36,3.0,1.25,8.25,9.75,7.5,5.5,5.0,3.5,3.5,2.25,1.75,2.0,1.25,-0.05,0.02,0.95,782.11,9.6,24.2,0.75,0.25,1.5,1.0,3.5,0.0,0.5,0.75,0.25,0.0,0.0,0.0,0.25,0.2,-0.48,0.77,0.0,-9.4,44.5
2.38,2.25,1.25,9.25,9.5,7.75,5.0,5.0,3.5,2.5,1.0,1.75,0.5,1.25,-0.05,0.02,0.95,774.34,10.6,31.7,0.75,0.25,1.5,1.0,3.75,0.25,0.75,0.5,0.25,0.0,0.0,0.0,0.25,0.2,-0.42,0.89,0.0,-9.2,46.5
2.4,2.25,1.25,8.75,12.0,7.75,5.5,3.75,3.75,2.0,0.75,0.0,0.25,0.25,-0.05,0.02,0.95,765.82,10.6,41.3,0.75,0.25,1.75,1.0,3.75,0.0,0.5,1.0,0.25,0.0,2.0,0.0,0.5,0.2,-0.3,0.95,42.2,-8.9,20.8
2.42,3.5,1.0,9.75,13.5,8.0,5.25,4.5,3.0,1.75,0.0,1.75,0.5,0.5,-0.05,0.02,1.02,783.26,12.7,41.2,2.0,0.75,1.5,2.75,3.75,0.5,0.5,0.75,0.75,0.75,0.0,0.25,0.25,0.14,-0.05,1.02,109.43,-10.0,40.7
2.44,4.25,1.25,9.5,14.0,9.25,5.5,4.25,3.0,1.75,0.25,0.5,0.5,0.0,-0.05,0.08,1.02,818.02,12.5,46.1,0.5,0.25,1.5,1.0,3.5,0.0,0.5,0.5,0.25,0.0,0.0,0.0,0.25,0.08,0.27,1.14,133.63,-9.5,45.5
2.46,4.5,1.25,6.25,15.5,9.25,5.25,4.25,3.0,1.25,0.5,0.5,0.5,0.0,-0.05,0.08,1.08,839.23,11.1,46.0,0.5,0.25,1.25,1.25,3.75,0.25,0.5,0.25,0.75,0.75,0.25,0.25,0.25,0.02,0.39,1.33,157.48,-6.9,28.5
2.48,5.5,1.25,11.5,14.5,9.25,5.25,5.0,3.0,1.0,0.25,1.0,0.5,0.0,-0.05,0.08,1.02,897.87,14.1,47.8,1.75,0.75,2.75,2.0,4.75,0.25,0.5,1.0,0.75,1.0,1.75,0.25,1.25,0.02,0.45,1.52,203.2,-9.0,20.7
2.5,6.0,1.25,12.5,15.5,13.0,4.5,4.25,2.5,1.0,0.25,0.25,0.0,0.0,-0.05,0.14,1.02,981.51,14.2,52.7,2.0,0.75,3.0,1.5,5.25,0.25,0.5,1.0,0.75,0.75,1.75,0.0,1.0,0.08,0.64,1.95,234.94,-9.8,26.9
2.52,6.75,1.25,12.5,16.5,12.0,3.0,2.5,2.75,1.0,1.0,0.25,0.5,0.0,-0.05,0.14,1.08,1051.77,14.9,50.8,2.0,0.75,1.5,1.25,4.25,0.5,0.75,1.0,0.75,0.75,0.5,0.25,0.25,0.2,1.27,2.64,241.58,-8.5,34.1
2.54,7.75,1.25,15.5,19.0,14.0,3.0,1.0,3.0,1.25,2.0,1.25,0.5,0.75,-0.05,0.2,1.14,1192.63,14.6,46.7,1.75,0.75,2.5,1.25,4.75,0.5,0.75,0.5,0.75,0.75,1.5,0.25,1.0,0.14,2.2,3.2,259.53,-9.4,25.0
2.56,8.5,2.75,15.5,18.0,14.0,1.75,0.0,3.0,1.25,2.0,0.5,0.5,0.5,-0.17,0.27,1.27,1298.6,15.3,50.3,1.75,0.75,2.5,1.5,4.5,0.5,0.75,1.25,0.75,0.5,1.5,0.0,1.0,0.08,3.27,2.64,262.78,-8.9,25.7
2.58,7.75,1.25,15.0,16.0,12.0,1.0,0.0,2.5,1.25,0.75,0.5,0.5,0.25,-0.23,0.33,1.39,1291.21,17.1,52.2,2.0,0.75,2.75,1.25,3.5,1.25,0.5,0.75,0.75,1.0,1.25,0.25,0.5,-1.48,5.27,-0.17,260.0,-9.7,27.7
2.6,7.5,1.25,11.5,15.5,9.0,0.75,0.0,1.0,1.0,0.0,0.0,0.25,0.0,-0.3,0.45,1.58,1146.02,18.9,59.3,2.0,0.75,2.5,1.25,4.5,0.5,0.5,0.0,0.75,1.0,0.0,0.75,0.0,-2.92,5.58,-0.05,252.11,-11.7,40.6
2.62,6.75,1.25,10.5,10.0,7.75,0.0,0.0,0.75,0.75,0.0,0.0,0.25,0.0,-0.42,0.58,1.7,927.81,20.2,60.7,0.5,0.25,2.5,1.0,4.5,1.25,0.75,0.75,0.25,0.5,0.75,2.0,3.0,0.33,-0.55,2.08,254.1,-3.7,-3.8
2.64,5.75,0.5,8.0,8.0,5.75,0.0,0.0,1.0,0.75,0.0,0.0,0.5,0.0,-0.48,1.39,2.45,685.23,20.0,57.2,2.0,0.75,1.25,1.25,2.5,0.5,0.25,0.25,0.75,4.25,1.5,6.0,5.5,0.45,0.39,1.27,285.66,-2.2,-42.8
2.66,3.0,0.0,5.25,5.0,5.5,0.0,0.0,2.75,0.5,0.0,0.0,0.25,0.0,-0.67,1.58,3.39,463.65,14.4,46.9,0.75,0.5,2.5,1.0,3.75,0.25,0.5,1.5,0.75,6.5,5.25,6.0,8.5,-0.36,0.39,2.02,376.31,-0.1,-52.2
2.68,0.5,0.0,2.75,2.25,1.75,0.0,0.0,0.75,0.75,0.0,0.0,0.25,0.0,-0.67,-0.05,3.02,276.02,16.6,40.1,0.0,0.75,2.25,1.25,1.75,0.0,0.5,3.5,1.5,8.0,6.25,7.0,8.75,0.7,0.27,2.2,508.29,0.9,-62.3
2.7,0.25,0.0,1.0,1.5,1.25,0.0,0.0,0.75,0.5,0.0,0.0,0.25,0.0,-0.17,-0.8,2.08,131.47,11.3,30.9,0.0,0.25,1.5,1.0,5.25,0.0,0.5,3.5,1.5,7.75,5.75,6.25,8.0,-0.11,0.08,1.08,611.3,2.1,-54.2
2.72,0.0,0.0,0.25,0.25,0.75,0.0,0.0,0.75,0.5,0.0,0.0,0.25,0.0,-1.05,-1.36,2.08,0.0,2.4,0.6,0.5,0.75,0.0,1.25,4.25,2.75,0.5,4.0,2.0,7.75,6.5,6.5,8.0,0.14,0.08,0.95,688.94,3.8,-52.2
2.74,0.0,0.0,0.0,1.5,0.75,0.0,0.0,0.75,0.5,0.0,0.0,0.25,0.0,-0.98,-1.17,1.08,0.0,5.0,15.7,0.5,0.75,0.5,1.25,4.25,2.75,0.0,4.0,2.25,7.75,7.25,6.5,8.25,0.14,0.08,0.95,745.93,3.2,-51.9
2.76,0.0,0.0,0.0,1.0,0.5,0.0,0.0,0.75,0.5,0.0,0.0,0.25,0.0,-0.61,-0.86,0.58,0.0,3.7,5.2,0.75,0.75,0.75,1.25,4.5,2.75,1.25,5.0,2.75,7.75,8.0,6.5,8.5,0.14,0.08,0.95,805.17,2.4,-49.3
2.78,0.0,0.0,0.0,0.5,0.5,0.0,0.0,0.75,0.5,0.0,0.0,0.25,0.0,-0.42,-0.73,0.45,0.0,1.0,-5.4,1.0,0.75,1.25,1.75,4.5,3.0,1.5,5.0,2.75,7.5,7.75,6.0,7.25,0.08,0.08,0.95,832.08,1.4,-43.4
2.8,0.5,0.0,0.0,0.75,0.5,0.0,0.0,0.75,0.5,0.0,0.0,0.25,0.0,-0.23,-0.55,0.64,0.0,7.0,14.0,1.75,1.5,2.25,3.5,5.0,5.0,1.5,5.0,3.25,7.75,7.25,6.0,6.75,0.08,0.08,0.95,881.39,0.1,-30.1
2.82,0.0,0.0,0.0,0.0,0.0,0.0,0.0,0.75,0.25,0.0,0.0,0.25,0.0,-0.17,-0.48,0.89,0.0,-5.9,-52.9,2.75,1.5,3.25,3.75,6.75,5.0,1.75,5.5,3.0,6.0,7.25,4.5,6.5,0.08,0.08,0.95,915.78,-1.2,-19.1
2.84,0.0,0.0,0.0,0.5,0.0,0.0,0.0,0.75,0.25,0.0,0.0,0.25,0.0,-0.17,-0.36,0.89,0.0,0.9,-20.1,1.25,0.75,3.75,3.5,6.5,4.5,2.75,5.0,2.75,5.0,5.75,3.25,5.0,0.08,0.08,0.95,881.63,-1.4,-16.1
2.86,0.0,0.0,0.0,0.0,0.0,0.0,0.0,0.75,0.25,0.0,0.0,0.25,0.0,-0.05,-0.17,0.95,0.0,-5.9,-52.9,1.75,0.75,3.25,3.5,6.25,5.0,2.25,4.25,3.25,5.25,4.0,3.0,3.75,0.08,0.08,0.95,807.74,-1.3,-10.8
2.88,0.25,0.0,0.0,0.0,0.0,0.0,0.0,0.75,0.25,0.0,0.0,0.25,0.0,0.08,-0.05,1.14,0.0,0.5,-29.1,2.0,0.75,3.25,4.5,6.25,5.0,2.75,4.0,2.75,2.25,3.5,1.5,2.25,0.08,0.08,0.95,699.72,-3.5,5.4
2.9,0.0,0.0,0.0,0.0,0.0,0.0,0.0,0.75,0.25,0.0,0.0,0.25,0.0,0.08,0.08,1.33,0.0,-5.9,-52.9,2.0,0.75,3.5,5.25,6.75,5.0,2.75,4.0,2.5,2.0,2.75,1.25,2.0,0.08,0.08,0.95,620.17,-3.9,11.1
2.92,0.0,0.0,0.0,0.0,0.0,0.0,0.0,0.75,0.25,0.0,0.0,0.25,0.0,0.02,0.2,1.52,6.55,-5.9,-52.9,2.0,1.0,4.25,5.75,7.25,5.0,3.25,3.75,2.25,1.25,2.25,0.75,1.25,0.08,0.08,0.95,571.33,-5.6,21.3
2.94,0.0,0.0,0.0,0.0,0.0,0.0,0.0,0.75,0.25,0.0,0.0,0.25,0.0,0.02,0.27,1.83,11.98,-5.9,-52.9,3.0,1.25,5.0,6.25,7.75,5.25,3.75,3.0,2.0,0.5,1.5,0.75,1.25,0.08,0.08,0.95,563.37,-7.6,30.3
2.96,0.0,0.0,0.0,0.0,0.0,0.0,0.0,0.75,0.25,0.0,0.0,0.25,0.0,-0.11,0.39,2.2,14.55,-5.9,-52.9,3.5,1.5,6.0,7.75,8.0,5.75,4.0,2.75,2.0,0.75,1.75,0.25,0.75,0.08,0.08,0.95,584.74,-8.9,35.8
2.98,1.25,0.75,0.0,1.0,0.0,0.25,0.0,2.5,1.0,1.0,0.5,0.5,0.75,-0.23,0.89,2.52,58.42,1.7,-13.4,3.75,1.75,6.75,9.25,8.5,5.75,4.75,2.5,1.75,0.5,1.75,0.0,0.25,0.08,0.08,0.95,628.53,-10.4,41.6
3.0,1.25,0.5,0.5,1.0,1.25,1.0,0.0,2.25,0.75,1.25,0.75,0.5,0.75,-0.3,1.64,2.77,111.49,1.0,-3.1,4.75,2.0,7.75,9.75,9.25,6.0,5.25,2.5,1.5,0.5,1.25,0.0,0.25,0.08,0.08,0.95,693.23,-11.2,45.2
3.02,0.75,0.5,0.25,1.5,1.75,0.75,0.0,2.0,1.0,1.25,0.5,0.5,0.75,-0.36,2.45,1.83,156.58,0.2,-2.3,5.0,2.0,8.25,11.0,9.75,6.0,5.75,2.5,1.5,0.25,1.5,0.0,0.75,0.08,0.08,0.95,772.65,-11.5,44.4
3.04,1.0,0.75,0.25,1.5,1.75,0.5,0.0,1.5,1.0,0.5,0.75,0.75,0.75,0.27,3.08,1.27,180.74,3.9,3.8,5.5,0.0,8.75,11.5,10.5,6.0,6.0,2.0,1.25,1.75,1.75,0.0,0.0,0.08,0.08,1.02,839.06,-11.7,42.6
3.06,0.75,0.75,0.25,1.0,1.25,0.5,0.0,0.75,1.0,1.0,0.75,0.5,0.75,1.83,5.52,-0.23,184.21,3.3,-2.3,6.25,2.5,9.25,12.5,11.5,6.0,6.0,2.5,1.0,1.0,1.5,0.25,0.75,0.02,0.14,1.02,941.51,-11.8,45.4
3.08,0.0,0.0,0.25,0.0,1.75,0.0,0.0,1.75,1.0,0.25,0.5,0.5,0.75,2.27,5.45,-0.86,164.71,-2.7,-25.1,7.25,1.5,11.5,13.0,11.5,5.75,5.75,2.5,1.25,1.0,1.75,0.0,0.5,0.02,0.2,1.02,1046.89,-13.4,46.5
3.1,1.0,0.75,0.25,1.25,1.25,1.0,0.0,2.5,1.0,2.0,0.75,2.0,1.0,0.52,2.45,0.83,180.23,-0.1,-20.3,7.5,2.25,11.0,14.5,12.5,5.0,5.25,1.25,0.75,0.25,0.75,0.0,0.25,0.02,0.2,1.02,1121.38,-14.5,54.4
3.12,0.5,0.0,0.25,0.25,0.0,0.0,0.0,0.5,0.5,2.0,2.0,5.75,4.75,-0.73,-0.17,1.39,214.92,0.1,-86.2,7.75,1.0,11.5,16.0,12.5,5.0,4.25,0.25,0.75,0.0,0.75,0.0,0.25,0.02,0.2,1.02,1156.27,-15.4,56.1
3.14,0.0,0.0,0.25,1.0,0.0,0.0,0.0,1.75,1.0,6.25,4.25,7.5,7.25,1.2,0.33,1.45,300.85,-2.6,-83.6,8.25,2.5,11.5,16.0,13.0,0.0,3.5,0.25,0.75,0.0,0.25,0.0,0.75,-0.05,0.27,1.08,1142.95,-18.1,59.2
3.16,0.0,0.0,0.25,1.25,0.0,2.5,0.0,3.0,1.75,7.75,7.25,8.25,8.0,-0.36,0.45,1.52,441.06,-3.4,-73.5,8.5,1.25,12.5,17.0,12.5,2.5,2.75,0.25,1.0,0.75,2.0,0.0,0.75,0.08,0.33,1.14,1152.81,-16.5,52.2
3.18,0.0,0.5,0.0,1.5,1.25,2.0,0.0,4.75,2.75,8.25,8.75,8.75,8.5,0.2,-0.05,1.14,627.37,-3.0,-67.6,10.5,3.25,14.0,17.0,13.5,2.75,2.75,1.0,0.75,0.75,2.0,0.25,0.75,0.2,0.45,1.2,1222.91,-16.6,53.7
3.2,0.75,1.0,0.0,1.75,1.25,2.0,0.25,4.75,3.5,8.5,9.75,9.25,9.0,-0.11,0.02,0.95,794.07,-1.7,-63.5,11.0,4.0,14.0,15.0,11.0,1.5,2.75,1.0,0.75,0.5,1.75,0.0,0.75,0.2,0.52,1.45,1248.32,-18.4,56.4
3.22,1.25,1.25,0.0,1.5,1.75,3.0,0.25,5.75,4.0,8.5,10.5,9.5,9.25,-0.05,-0.05,0.95,936.68,-1.8,-59.0,10.0,4.0,12.0,11.5,8.0,1.5,4.75,0.0,0.0,0.5,0.5,0.0,1.0,0.33,0.7,1.77,1159.3,-19.9,60.4
3.24,1.75,1.25,0.0,1.75,0.75,3.5,0.0,5.75,4.5,8.25,10.5,9.0,9.25,-0.05,-0.05,0.95,1028.16,-1.5,-58.2,9.0,2.75,9.5,9.25,6.5,1.5,5.0,1.0,0.25,0.5,1.75,0.25,0.75,0.64,1.52,2.64,993.97,-18.9,52.7
3.26,1.25,0.75,0.0,2.75,1.75,4.25,1.25,5.75,5.0,8.0,9.75,8.25,8.25,-0.05,-0.05,0.95,1073.76,-1.4,-52.3,7.0,2.25,7.75,6.0,4.5,1.25,3.5,1.0,0.0,0.75,2.0,0.25,0.75,1.08,1.95,2.95,767.2,-18.5,48.2
3.28,1.25,1.25,1.5,2.75,2.25,4.0,1.5,5.75,5.0,7.0,9.25,7.5,7.5,-0.05,-0.05,0.95,1072.72,0.0,-44.7,3.0,0.5,6.25,3.25,4.5,0.25,1.25,1.0,0.25,0.5,1.25,0.25,0.75,0.95,0.27,3.83,517.34,-16.7,40.0
3.3,1.5,1.25,2.25,3.75,2.5,4.5,1.5,6.0,5.0,6.5,8.25,6.75,6.5,-0.05,-0.05,0.95,1041.57,0.8,-36.6,1.5,0.75,2.75,1.75,2.25,0.25,0.5,0.0,0.25,0.0,0.0,0.0,0.25,0.27,-1.11,0.95,295.62,-18.4,58.3
3.32,1.25,1.25,2.5,4.0,5.5,5.25,2.25,5.75,5.0,6.25,7.25,6.0,5.75,-0.05,-0.05,0.95,999.11,0.7,-26.8,1.25,0.75,1.75,1.25,3.75,0.25,0.5,0.75,0.0,0.0,0.0,0.0,1.0,1.45,-1.23,1.64,173.89,-8.8,41.3
3.34,2.0,1.25,2.5,4.75,5.75,5.0,3.0,5.75,4.5,4.75,6.0,5.0,4.5,-0.05,-0.05,0.95,932.15,2.0,-17.3,0.75,0.5,1.75,1.25,3.75,0.25,0.25,0.75,0.25,0.0,0.0,0.0,0.25,1.33,-1.11,0.95,72.12,-9.1,46.8
3.36,1.5,1.25,3.0,6.5,5.75,5.75,3.0,5.75,4.25,4.25,5.25,3.5,3.25,-0.05,0.02,0.95,870.54,2.4,-7.8,1.0,0.75,2.25,1.25,3.75,0.0,0.0,0.5,0.25,0.0,0.25,0.0,0.25,0.64,-0.67,0.58,24.1,-12.1,49.6
3.38,1.75,1.25,3.0,7.25,5.75,6.0,3.25,5.75,3.75,3.5,4.25,2.5,2.75,-0.05,0.02,0.95,800.02,2.8,-0.3,0.75,0.5,1.75,1.25,3.75,0.0,0.0,0.5,0.25,0.0,0.0,0.0,0.25,0.39,-0.36,0.45,0.0,-10.2,49.6
3.4,2.0,1.25,3.75,7.75,7.0,6.0,3.25,5.25,3.5,3.5,3.0,2.0,2.0,-0.05,0.02,0.95,756.16,3.6,8.4,0.75,0.5,2.25,1.0,3.75,0.0,0.25,0.75,0.25,0.0,1.25,0.0,0.25,0.33,-0.23,0.58,4.79,-11.0,34.6
3.42,2.0,1.25,3.75,9.5,7.75,7.0,3.0,5.0,2.75,2.75,3.0,2.0,1.5,-0.05,0.02,0.95,740.66,3.9,14.8,0.75,0.25,2.25,1.0,3.75,0.0,0.0,0.75,0.25,0.0,0.0,0.0,0.25,0.39,-0.17,0.7,11.11,-10.7,46.5
3.44,2.25,1.5,4.5,12.0,8.75,7.5,3.0,4.75,2.0,1.25,2.0,0.5,1.0,-0.05,0.02,0.95,749.85,5.3,29.9,1.0,0.25,1.75,1.0,3.75,0.0,0.25,0.5,0.25,0.0,0.0,0.0,0.5,0.45,-0.05,0.83,38.68,-10.2,44.8
3.46,1.25,1.25,3.0,12.0,8.0,8.0,2.25,4.5,2.0,2.25,0.5,0.75,0.75,-0.05,0.02,0.95,734.58,2.9,28.1,0.75,0.5,1.5,1.0,3.75,0.25,0.25,0.75,0.0,0.0,0.0,0.0,0.0,0.45,0.2,0.95,66.26,-8.6,52.8
3.48,2.0,2.5,5.0,15.5,9.5,8.75,2.25,4.75,1.5,2.75,1.0,1.25,1.0,-0.05,0.08,0.95,807.16,4.9,31.1,2.0,1.0,1.5,1.0,3.25,0.25,0.25,0.0,0.0,0.0,0.0,0.0,0.25,0.45,0.45,0.95,95.74,-13.9,63.2
3.5,3.25,2.75,6.5,16.5,13.5,8.75,0.0,4.75,1.5,2.5,1.25,0.5,0.75,-0.05,0.08,1.02,926.06,5.5,37.6,2.0,0.25,1.75,2.0,3.75,0.25,0.5,0.75,0.75,0.75,0.25,0.25,0.75,0.39,0.58,1.08,143.71,-9.8,30.8
3.52,3.0,1.25,5.75,15.0,15.0,8.75,0.0,4.5,0.5,1.0,1.25,0.5,0.75,-0.05,0.14,1.02,1011.07,4.7,39.8,0.75,0.25,1.5,1.0,3.75,0.25,0.25,0.75,0.75,0.75,0.0,0.25,0.25,0.27,0.58,1.39,167.48,-6.5,29.3
3.54,4.0,2.5,6.25,16.5,14.0,8.75,0.0,3.0,1.0,0.5,0.0,0.75,0.25,-0.05,0.14,1.02,1068.72,7.0,47.6,2.0,0.25,1.75,1.0,4.75,0.0,0.25,0.5,0.0,0.0,0.0,0.0,0.0,0.33,0.95,1.77,183.35,-11.9,59.2
3.56,4.25,2.75,6.5,17.0,14.5,9.0,0.0,3.0,0.25,2.5,0.25,1.0,0.0,-0.11,0.14,1.14,1118.14,6.4,44.8,2.0,1.0,1.5,1.25,5.25,0.25,0.5,1.0,0.5,0.5,1.75,0.0,0.75,0.39,1.39,2.27,204.71,-7.8,29.0
3.58,4.75,4.25,8.0,17.0,14.5,7.75,0.0,3.0,0.5,0.0,0.0,0.25,0.0,-0.11,0.2,1.14,1150.54,9.0,54.0,1.75,0.75,3.0,2.0,4.5,0.25,0.5,1.0,0.75,0.75,1.75,0.0,0.75,0.39,2.2,2.52,232.51,-10.6,27.5
3.6,5.75,3.75,7.25,17.0,15.0,8.0,0.0,2.75,0.5,0.75,0.0,0.5,0.0,-0.05,0.2,1.08,1178.96,8.6,52.3,1.75,0.75,2.5,1.25,5.25,0.5,0.75,1.0,0.75,0.75,1.75,0.0,1.0,0.02,2.95,2.27,254.85,-8.3,24.7
3.62,5.75,4.25,6.5,17.0,15.5,7.5,0.0,2.5,0.75,0.25,0.0,0.25,0.0,-0.11,0.27,1.14,1196.57,8.7,54.4,0.5,0.25,2.5,1.0,4.75,0.25,0.5,0.75,0.0,0.0,0.0,0.0,0.0,-1.05,3.2,1.83,242.58,-9.7,51.3
3.64,6.75,5.5,5.0,18.5,17.5,8.0,0.0,3.0,1.0,2.0,0.5,0.5,0.75,-0.17,0.27,1.33,1271.96,7.1,48.2,2.0,1.0,2.5,1.5,4.5,0.5,0.5,0.75,0.75,0.75,2.0,0.0,0.75,-2.11,3.7,1.58,249.99,-9.9,27.2
3.66,6.75,5.0,4.25,15.5,16.5,7.25,0.0,2.75,1.0,2.25,0.75,0.5,0.75,-0.3,0.45,1.58,1272.85,6.7,46.6,0.25,0.25,2.75,1.0,4.5,0.25,0.5,1.0,0.0,0.0,1.75,0.0,0.0,-2.67,5.58,0.08,230.77,-9.7,32.0
3.68,5.75,4.25,0.5,12.5,14.0,6.0,0.0,2.75,1.0,1.75,0.5,0.5,0.75,-0.3,0.95,2.52,1156.05,4.6,44.9,1.25,0.25,2.75,0.75,4.5,0.0,0.5,1.25,0.25,0.5,2.0,0.25,0.5,-2.11,1.95,0.95,230.45,-9.6,20.9
3.7,4.75,3.0,0.0,8.0,9.25,4.0,0.0,1.5,1.0,1.0,0.5,0.25,0.75,-0.98,1.83,3.45,890.29,5.2,45.4,0.5,0.25,1.25,1.25,3.75,2.0,0.0,0.0,0.75,3.0,0.75,3.0,2.75,0.02,-1.05,2.89,238.87,0.4,-21.5
3.72,2.25,1.25,0.0,4.5,5.75,1.0,0.0,0.75,0.25,0.0,0.0,0.25,0.0,-0.67,1.33,4.02,542.22,7.0,54.7,1.5,0.75,2.5,1.0,4.75,1.5,0.5,1.25,0.75,3.5,3.0,5.75,7.5,-1.05,0.27,0.7,309.64,-1.2,-36.1
3.74,0.25,0.0,0.0,2.5,3.0,0.25,0.0,0.25,0.25,0.0,0.0,0.25,0.0,-0.55,-1.73,3.45,276.42,5.1,44.0,2.0,0.75,2.5,1.0,4.5,0.25,0.5,2.0,0.75,6.75,4.0,6.0,8.75,-0.36,0.27,1.95,413.0,-0.4,-44.2
3.76,0.25,0.0,0.0,1.25,0.0,0.0,0.0,1.0,0.25,0.0,0.0,0.25,0.0,-0.73,-1.67,2.39,91.07,6.2,7.6,0.5,1.75,2.5,1.25,4.25,0.5,0.5,2.5,0.75,8.0,5.5,7.0,9.5,0.89,0.2,2.39,563.08,0.7,-49.4
3.78,1.25,0.5,0.0,1.5,0.0,0.25,0.0,1.0,1.0,1.25,0.25,0.5,0.0,-0.98,-2.17,3.02,0.0,6.9,2.7,1.25,1.0,2.5,1.25,4.25,2.75,0.5,4.0,1.5,8.5,6.0,7.5,9.5,-0.17,0.08,1.08,704.74,1.5,-46.7
3.8,1.0,0.25,0.0,2.5,2.25,0.75,0.0,0.75,1.0,1.5,0.0,0.5,0.0,-0.17,-1.8,1.33,0.0,3.3,18.1,0.75,1.5,2.5,1.25,5.5,2.75,0.5,4.0,1.5,9.25,7.75,8.25,9.0,0.2,0.08,1.02,831.44,1.3,-45.5
3.82,0.75,1.0,0.0,2.0,1.75,1.75,0.0,2.25,1.0,1.0,0.0,0.5,1.0,0.02,-1.36,1.14,0.0,-1.6,6.6,1.75,0.75,2.5,1.25,5.5,3.25,0.5,4.5,1.5,8.5,8.0,7.5,10.5,0.14,0.08,0.95,928.92,1.4,-45.0
3.84,1.0,1.25,0.0,0.5,1.75,2.0,0.0,1.75,1.0,0.0,0.0,0.5,0.75,0.02,-1.05,1.14,0.0,-1.4,16.5,0.5,1.5,0.0,1.25,3.75,2.75,0.0,4.0,2.0,9.5,7.5,8.25,9.0,0.08,0.08,0.95,960.0,3.6,-55.8
3.86,1.25,1.5,0.0,1.5,1.25,2.25,0.0,1.75,1.0,0.0,0.5,0.5,0.75,0.02,-0.73,1.2,15.7,1.2,18.3,2.0,1.0,0.25,1.25,5.25,2.75,0.5,5.0,2.0,9.0,8.5,8.25,10.5,0.08,0.08,0.95,1003.24,2.6,-50.5
3.88,1.25,1.25,0.0,1.5,1.25,2.0,0.0,1.5,1.0,0.0,0.0,0.75,0.75,-0.11,-0.3,1.27,38.13,1.6,18.6,0.75,0.5,1.0,1.0,5.5,0.75,1.25,5.25,1.5,8.0,8.5,6.5,9.0,0.14,0.08,0.95,959.2,2.1,-52.1
3.9,1.25,1.25,0.0,1.5,1.75,2.0,0.0,0.75,1.0,0.0,0.5,0.75,0.75,-0.23,0.02,1.27,80.81,2.9,20.1,1.0,1.0,1.5,1.5,4.25,2.75,1.25,5.25,2.0,8.5,8.25,7.5,8.5,0.14,0.08,0.95,946.2,1.6,-48.1
3.92,1.25,1.25,0.25,1.75,1.75,1.0,0.0,1.5,1.0,0.25,0.5,0.5,0.75,-0.42,0.39,1.64,124.0,4.3,17.7,0.5,0.75,2.5,1.0,5.0,2.75,0.5,4.0,2.0,8.0,7.75,6.5,9.0,0.14,0.02,0.89,890.17,1.6,-47.0
3.94,1.25,1.0,0.0,1.75,2.25,1.5,0.0,1.75,0.75,1.0,0.25,0.5,0.75,-0.61,0.89,1.83,165.91,0.3,13.8,0.75,0.5,1.25,1.0,3.75,2.25,0.5,4.0,2.0,7.25,6.75,6.0,8.0,0.14,0.08,0.95,806.93,2.3,-51.1
3.96,1.25,1.0,0.25,1.5,1.75,1.75,0.0,1.25,0.75,0.5,0.25,0.5,0.75,-0.98,1.45,1.83,186.89,1.9,18.3,1.0,0.75,1.25,1.0,4.25,2.5,0.5,4.0,2.0,6.5,6.75,6.0,7.5,0.08,0.08,0.95,717.12,1.8,-46.5
3.98,1.25,1.25,0.0,1.5,1.75,1.75,0.0,1.25,1.0,0.0,0.0,0.75,0.75,-1.23,2.2,1.64,192.24,2.3,21.3,1.0,0.75,1.5,1.25,3.75,2.75,1.25,3.75,2.75,6.25,5.75,5.5,7.0,0.08,0.08,0.95,648.1,1.1,-43.2
4.0,1.25,1.25,0.25,1.5,1.75,1.75,0.0,1.5,0.75,1.0,0.5,0.5,0.75,-1.3,2.77,1.33,193.52,1.2,13.5,1.25,0.75,1.25,1.25,4.5,2.75,1.5,4.0,2.75,5.75,6.0,5.25,6.25,0.08,0.08,0.95,599.89,0.7,-39.1
4.02,1.25,1.25,0.25,1.5,1.75,2.5,0.0,1.5,0.75,1.0,0.5,0.5,0.75,-1.23,3.14,0.7,193.92,0.0,14.5,2.0,0.75,1.5,1.25,4.75,3.25,1.75,3.75,3.25,5.0,6.0,4.75,5.5,0.14,0.08,0.95,564.3,-0.4,-31.9
4.04,1.5,0.0,0.25,0.0,1.75,0.0,0.25,1.0,0.0,0.0,0.75,2.0,0.75,-7.98,6.08,-1.42,170.83,6.5,-15.9,4.5,2.0,2.75,4.0,5.75,4.75,2.75,3.75,3.25,3.5,6.0,4.0,4.75,0.14,0.08,0.95,602.09,-4.4,-7.2
4.06,1.0,1.0,0.0,1.5,0.0,1.75,0.0,0.75,1.0,0.75,0.0,0.75,0.0,-1.17,2.27,1.08,152.77,3.4,16.0,4.75,1.0,5.0,3.5,6.25,3.75,3.5,3.0,3.25,2.0,4.5,2.75,3.0,0.14,0.08,0.95,615.77,-8.0,5.6
4.08,1.25,1.0,0.25,1.75,1.75,1.75,0.25,1.75,1.0,2.0,0.5,0.75,0.75,-3.3,1.89,0.45,164.7,0.4,3.0,5.5,1.5,6.25,5.0,6.5,3.5,4.25,2.5,3.25,1.0,2.75,1.25,1.5,0.08,0.08,0.95,633.83,-11.5,25.8
4.1,0.5,0.0,0.25,0.0,1.75,1.75,0.0,0.75,3.75,5.0,0.5,4.0,2.0,-1.98,7.39,3.45,206.84,-2.5,-50.2,6.75,1.75,7.25,5.75,7.25,3.25,4.75,2.25,2.75,0.5,2.5,1.0,0.0,0.08,0.08,1.02,641.54,-14.2,38.3
4.12,0.5,1.25,0.25,1.25,0.0,1.75,0.25,3.0,2.0,6.0,4.25,6.0,6.0,0.02,0.27,1.45,295.8,-2.3,-60.8,7.5,2.0,8.0,5.5,7.75,2.75,3.75,2.0,2.0,0.5,2.0,0.75,1.0,0.08,0.14,1.14,663.18,-14.5,40.5
4.14,0.75,0.0,0.25,1.25,1.25,0.5,0.0,3.0,2.0,6.25,5.5,6.0,7.0,0.27,-0.23,0.52,395.53,-2.1,-66.6,7.75,2.0,8.75,5.75,7.5,2.75,3.5,2.0,1.5,0.5,1.75,0.25,0.5,0.08,0.2,1.14,670.21,-15.6,46.3
4.16,0.0,0.0,0.0,0.0,0.0,0.5,0.0,3.0,1.75,5.5,5.25,5.5,6.5,-0.23,-0.05,1.08,461.13,-4.1,-82.3,8.25,2.0,9.25,5.75,7.0,0.5,1.75,1.5,1.5,0.5,1.75,0.0,0.25,0.2,0.27,1.2,662.02,-18.7,51.0
4.18,0.0,0.0,0.0,0.0,0.0,2.5,0.0,3.25,1.5,6.75,5.25,5.75,6.5,-0.11,0.02,0.95,501.74,-5.8,-75.3,8.0,2.0,9.25,4.75,6.5,0.25,0.0,1.25,1.25,0.5,1.5,0.0,0.0,0.45,0.45,1.14,625.41,-19.5,54.4
4.2,0.0,0.0,0.0,0.0,0.0,1.75,0.0,4.75,1.75,8.0,5.5,6.0,7.25,-0.17,0.02,0.95,541.11,-6.1,-76.7,7.75,0.75,8.75,2.75,4.5,0.25,0.0,1.0,0.75,0.25,1.25,0.0,0.0,0.89,0.64,1.39,532.12,-22.2,56.4
4.22,0.0,0.0,0.0,0.0,0.0,1.75,0.0,4.75,1.75,7.75,6.0,6.25,7.5,-0.05,-0.05,0.95,575.98,-5.7,-77.1,6.25,0.75,7.75,2.75,3.75,0.0,0.0,1.0,0.75,0.0,0.25,0.0,0.25,1.02,0.7,1.27,430.1,-22.7,59.0
4.24,0.0,0.0,0.0,0.0,0.0,1.75,0.0,4.75,1.5,7.75,5.75,6.25,7.5,-0.05,-0.05,0.95,599.91,-6.0,-77.4,3.5,0.0,5.75,0.75,3.75,0.0,0.0,0.75,0.75,0.0,0.0,0.0,0.75,1.14,0.7,1.2,320.13,-19.6,49.2
4.26,0.0,0.0,0.0,0.0,0.0,1.75,0.0,4.75,1.25,8.25,5.25,6.25,7.5,-0.11,0.02,0.95,613.64,-6.5,-77.7,1.25,0.0,2.75,1.0,3.75,0.0,0.0,1.0,0.75,0.0,0.5,0.0,0.25,1.02,-0.36,1.27,232.78,-12.3,37.7
4.28,0.0,1.25,0.0,1.25,0.0,3.0,0.0,5.25,1.5,9.0,5.25,6.5,8.25,-0.11,-0.05,0.95,644.92,-5.8,-64.7,0.75,0.25,1.5,1.0,3.75,0.0,0.0,1.0,0.5,0.0,1.25,0.0,0.5,1.14,0.08,0.52,153.97,-7.7,24.8
4.3,0.0,0.25,0.0,0.75,0.0,3.25,0.0,5.75,1.5,7.75,5.75,4.75,8.0,-0.11,-0.05,1.02,634.58,-7.0,-67.3,0.5,0.25,1.25,1.0,3.75,0.0,0.0,1.0,0.5,0.0,0.5,0.0,0.25,1.27,-0.55,0.64,100.54,-6.5,33.2
4.32,0.75,1.25,0.0,1.25,1.25,3.25,0.0,6.0,1.0,8.75,5.0,5.25,8.25,-0.11,0.02,0.95,642.92,-6.0,-55.8,0.75,0.25,1.25,0.25,3.75,0.25,0.0,1.0,0.25,0.0,0.25,0.0,0.25,0.77,-0.48,0.95,63.71,-5.3,37.7
4.34,0.0,0.0,0.0,1.5,1.25,2.75,0.0,5.75,1.0,8.75,4.25,4.75,8.0,-0.17,0.02,0.95,619.34,-7.4,-62.8,0.5,0.25,1.25,0.25,3.5,0.25,0.0,0.5,0.5,0.0,1.0,0.0,0.25,0.27,-0.73,1.02,44.9,-6.7,28.4
4.36,0.5,0.25,0.0,1.25,0.0,2.75,0.0,5.5,0.75,7.75,2.5,3.5,7.5,-0.11,0.02,0.95,562.14,-8.4,-62.1,0.5,0.25,2.5,1.0,3.75,0.25,0.25,1.0,0.25,0.0,0.75,0.0,0.75,-0.23,-0.8,1.33,59.41,-8.8,29.2
4.38,0.5,1.25,0.0,0.25,0.0,3.0,0.0,5.75,1.0,7.5,3.0,3.0,7.5,-0.17,0.02,1.02,513.21,-8.5,-59.2,0.25,0.25,1.25,1.0,3.75,0.25,0.0,1.0,0.25,0.0,0.75,0.0,0.25,-0.61,-0.86,1.45,69.76,-5.1,30.7
4.4,0.75,1.25,0.0,0.5,0.0,3.0,0.0,4.75,1.0,7.0,2.0,2.0,7.0,-0.55,0.02,1.08,455.21,-8.6,-54.2,0.5,0.25,1.25,1.0,3.25,0.25,0.0,0.75,0.25,0.0,0.5,0.0,0.25,-0.86,-0.8,1.64,83.42,-6.9,35.9
4.42,0.0,0.0,0.0,0.0,0.0,0.75,0.0,4.0,0.25,5.5,0.5,1.25,5.75,-1.36,0.2,0.95,360.65,-12.7,-76.2,0.25,0.0,1.0,0.75,3.75,0.25,0.0,0.25,0.25,0.0,0.0,0.0,0.25,-1.05,-0.48,1.52,87.09,-4.9,43.8
4.44,0.0,0.0,0.0,0.0,0.0,0.75,0.0,3.0,0.25,4.75,0.75,0.0,6.25,-1.92,-0.05,1.08,284.19,-13.7,-77.0,0.5,0.25,1.25,1.0,3.5,0.25,0.0,0.75,0.25,0.0,0.0,0.0,0.25,-0.98,-0.36,1.08,100.45,-6.3,42.8
4.46,0.0,0.0,0.0,0.0,0.0,0.5,0.0,3.0,0.25,3.75,0.5,0.0,4.75,-1.73,-0.17,1.7,220.42,-13.9,-75.2,0.5,0.25,1.0,1.0,3.5,0.25,0.0,0.75,0.25,0.0,0.25,0.0,0.5,-0.98,-0.23,0.95,111.16,-5.0,34.6
4.48,0.0,0.0,0.0,0.0,0.0,0.5,0.0,2.75,0.25,2.0,0.0,0.0,2.0,-1.8,-0.67,2.39,145.09,-15.0,-63.4,0.5,0.0,1.5,1.0,3.25,0.0,0.0,0.75,0.25,0.0,0.0,0.0,0.5,-1.05,-0.23,1.45,123.3,-7.7,36.8
4.5,0.0,0.0,0.0,0.0,0.0,0.5,0.0,1.5,0.25,1.25,0.0,0.25,1.0,1.2,-0.86,2.39,69.17,-13.5,-60.3,0.5,0.0,1.25,1.0,3.75,0.25,0.0,0.75,0.25,0.0,0.0,0.0,0.25,-0.67,-0.23,1.45,131.03,-5.8,41.5
4.52,0.0,0.0,0.0,0.0,0.0,0.5,0.0,1.5,0.25,0.75,0.0,0.25,0.75,-1.86,2.2,1.89,9.52,-13.3,-55.2,0.5,0.25,1.25,1.0,3.5,0.25,0.0,0.5,0.25,0.0,0.25,0.0,0.0,-0.11,-0.23,1.33,132.56,-7.8,46.5
4.54,0.0,0.0,0.0,0.0,0.0,0.5,0.0,1.5,0.25,1.0,0.0,0.25,0.75,-0.67,0.08,3.33,0.0,-13.4,-56.4,0.25,0.0,1.0,1.0,3.75,0.25,0.0,0.5,0.25,0.0,0.0,0.0,0.25,0.14,-1.3,1.39,130.62,-4.6,41.7
4.56,0.0,0.0,0.0,0.0,0.0,0.25,0.0,1.0,0.25,0.25,0.0,0.25,0.0,-0.8,-0.23,1.95,0.0,-10.5,-43.6,0.25,0.25,1.0,0.75,3.5,0.0,0.0,0.0,0.25,0.0,0.0,0.0,0.25,0.33,-1.23,2.14,122.61,-7.3,48.9
4.58,0.0,0.0,0.0,0.0,0.0,0.25,0.0,0.75,0.0,0.0,0.0,0.0,0.0,-0.55,-0.55,0.95,0.0,-18.2,-21.3,0.25,0.25,1.25,1.0,2.5,0.25,0.0,0.25,0.25,0.0,0.0,0.0,0.25,0.33,-3.73,2.08,114.43,-8.8,45.1
4.6,0.0,0.0,0.0,0.0,0.0,0.25,0.0,0.75,0.25,0.25,0.0,0.25,0.0,-0.23,-0.92,0.33,0.0,-9.6,-44.3,0.25,0.0,1.0,1.0,3.25,0.25,0.0,0.5,0.25,0.0,0.0,0.0,0.25,0.33,-0.92,2.14,110.24,-5.3,40.8
4.62,0.0,0.0,0.0,0.0,0.0,0.5,0.0,0.75,0.25,0.0,0.0,0.0,0.0,-0.23,-1.17,1.27,0.0,-13.8,-15.3,0.0,0.0,1.25,1.0,3.25,0.25,0.0,0.75,0.25,0.0,0.0,0.0,0.0,0.33,-0.11,2.08,112.22,-5.4,42.2
4.64,0.0,0.0,0.0,0.0,0.0,0.25,0.0,0.75,0.25,0.25,0.0,0.5,0.0,-0.55,-0.8,0.77,0.0,-7.3,-52.5,0.5,0.25,1.25,1.0,3.5,0.25,0.0,0.5,0.0,0.0,0.0,0.0,0.25,0.45,0.08,0.45,118.91,-6.9,47.8
4.66,0.0,0.0,0.0,0.0,0.0,0.25,0.0,0.75,0.25,0.0,0.0,0.25,0.0,-0.61,-0.42,0.45,0.0,-8.6,-39.0,0.5,0.25,0.75,0.75,3.5,0.25,0.0,0.5,0.0,0.0,0.0,0.0,0.0,0.83,-0.17,-0.05,119.29,-5.0,52.2
4.68,0.5,0.75,0.0,1.0,0.0,1.75,0.0,0.75,0.75,2.0,0.0,1.25,0.0,-0.55,-0.11,0.45,33.94,-2.0,-12.2,0.25,0.25,1.25,1.0,3.75,0.25,0.0,0.5,0.0,0.0,0.25,0.0,0.25,1.08,-0.48,0.45,124.44,-5.9,43.0
4.7,0.75,1.0,0.25,1.0,0.75,1.5,0.0,2.25,0.75,2.0,0.75,0.5,0.75,-0.86,-0.36,0.52,95.91,-2.3,-9.7,0.5,0.25,1.0,1.0,3.75,0.25,0.0,0.25,0.0,0.0,0.0,0.0,0.0,0.89,-0.48,1.08,124.91,-6.9,55.7
4.72,0.5,1.0,0.25,0.75,1.75,1.25,0.0,1.75,0.75,2.0,0.75,0.5,0.75,-1.11,-0.61,0.52,149.55,-2.5,-6.8,0.75,0.25,1.25,0.75,3.5,0.25,0.0,0.25,0.0,0.0,0.0,0.0,0.25,0.64,-0.36,1.02,127.73,-8.1,51.7
4.74,0.5,1.0,0.25,0.5,0.0,1.75,0.0,1.5,0.75,2.0,0.5,0.5,0.75,-0.98,-0.61,0.52,169.99,-3.8,-16.4,0.5,0.25,1.25,1.0,3.5,0.25,0.0,0.25,0.0,0.0,0.0,0.0,0.5,0.39,-0.36,0.7,129.06,-7.0,45.4
4.76,0.5,1.0,0.25,0.75,1.25,1.75,0.0,1.0,0.75,1.5,0.5,0.5,0.75,-0.61,-0.48,0.52,179.77,-2.0,-1.3,0.25,0.25,1.25,1.0,3.75,0.25,0.0,0.25,0.0,0.0,0.25,0.0,0.25,0.2,-0.42,0.64,132.03,-6.6,45.5
4.78,0.5,1.0,0.25,1.0,1.25,1.5,0.0,1.0,0.75,2.0,0.5,0.5,0.75,-0.23,-0.42,0.58,181.59,-1.7,-3.9,0.5,0.25,1.0,1.0,3.75,0.25,0.0,0.0,0.0,0.0,0.0,0.0,0.25,-0.17,-0.55,1.2,131.61,-7.0,53.2
4.8,0.75,1.0,0.25,1.0,1.25,1.5,0.0,0.75,0.75,2.0,0.5,0.5,0.75,-0.11,-0.48,0.52,184.77,-0.6,-1.0,0.0,0.25,1.0,1.0,3.75,0.25,0.0,0.0,0.0,0.0,0.0,0.0,0.0,-0.55,-0.42,1.14,127.11,-5.9,56.3
4.82,0.5,1.0,0.0,1.0,0.75,1.75,0.0,0.75,0.75,2.0,0.75,0.5,0.75,-0.17,-0.55,0.39,183.38,-2.5,-8.6,0.5,0.25,1.0,1.0,3.75,0.25,0.0,0.0,0.0,0.0,0.0,0.0,0.25,-0.55,-0.36,0.83,125.44,-7.0,53.2
4.84,0.5,1.25,0.25,1.0,0.0,1.25,0.0,1.25,0.75,1.75,0.5,0.5,0.75,-0.36,-0.61,0.2,176.35,-0.7,-9.7,0.0,0.0,1.0,0.5,3.5,0.25,0.0,0.0,0.25,0.0,0.0,0.0,0.25,-0.42,-0.36,0.52,116.44,-4.5,44.1
4.86,0.5,1.0,0.75,1.0,1.25,1.75,0.0,0.75,0.5,2.5,0.5,0.5,0.75,-0.42,-0.61,0.08,177.49,-1.0,-1.9,0.0,0.0,1.0,1.0,3.75,0.25,0.0,0.0,0.0,0.0,0.25,0.0,0.5,-0.36,-0.61,0.52,115.56,-4.4,38.9
4.88,0.5,1.0,1.0,1.0,1.25,1.5,0.0,1.0,0.5,2.0,0.5,0.5,0.75,-0.55,-0.67,0.02,176.68,0.5,1.0,0.5,0.25,1.0,1.0,3.75,0.25,0.0,0.0,0.0,0.0,0.0,0.0,0.25,-0.3,-0.61,0.27,116.51,-7.0,53.2
4.9,0.5,1.0,0.0,1.25,0.75,1.75,0.0,1.25,0.5,1.25,0.75,0.5,0.75,-0.48,-0.67,-0.11,170.72,-2.1,-2.8,0.25,0.25,1.0,1.0,3.25,0.0,0.0,0.0,0.25,0.0,0.0,0.0,0.25,-0.17,-0.55,0.08,116.3,-8.1,49.0
4.92,0.5,1.0,0.25,1.0,0.75,1.5,0.0,1.75,0.5,1.75,0.5,0.75,0.75,-0.36,-0.61,-0.11,163.4,-2.4,-9.3,0.0,0.0,0.75,0.75,3.75,0.25,0.0,0.0,0.0,0.0,0.0,0.0,0.5,-0.11,-0.67,0.02,112.3,-2.4,41.5
4.94,0.75,1.0,0.25,1.0,1.25,1.5,0.0,1.5,0.75,2.0,0.75,0.5,0.75,-0.3,-0.61,-0.05,165.54,-1.4,-4.8,0.0,0.0,1.25,0.0,3.5,0.0,0.0,0.0,0.0,0.0,0.0,0.0,0.25,-0.05,-0.67,-0.05,104.17,-5.7,47.7
4.96,1.0,1.0,0.25,1.0,0.0,1.25,0.0,1.0,0.5,2.0,0.75,0.5,0.75,-0.23,-0.61,-0.05,160.42,0.6,-9.3,0.0,0.25,1.25,1.0,3.25,0.0,0.25,0.0,0.25,0.0,0.0,0.0,0.25,0.02,-0.67,-0.11,104.0,-8.8,47.4
4.98,0.75,1.0,0.25,1.25,0.75,1.5,0.0,1.0,0.5,1.75,0.5,0.75,0.75,-0.11,-0.61,-0.17,160.84,-0.2,-3.3,0.0,0.25,1.0,1.0,3.75,0.25,0.25,0.0,0.25,0.0,0.0,0.0,0.25,0.02,-0.67,-0.23,107.89,-5.8,47.0
5.0,0.5,1.0,0.75,1.25,0.75,1.5,0.0,1.0,0.5,2.0,0.5,0.5,0.75,-0.05,-0.55,-0.3,159.85,0.2,-1.7,0.0,0.25,1.25,1.0,3.0,0.0,0.25,0.0,0.0,0.0,0.5,0.0,0.25,0.08,-0.61,-0.3,111.68,-9.3,41.7
5.02,0.75,1.0,0.25,1.25,0.0,1.25,0.0,1.25,0.5,1.75,0.5,0.5,0.75,0.08,-0.55,-0.36,154.56,0.0,-7.5,0.0,0.25,0.75,0.75,2.75,0.0,0.25,0.0,0.0,0.0,0.0,0.0,0.25,0.02,-0.55,-0.36,105.8,-6.7,48.9
5.04,0.5,1.0,0.25,1.0,1.25,1.5,0.0,1.0,0.25,1.5,0.5,0.5,0.75,0.14,-0.61,-0.36,151.85,-1.7,1.2,0.0,0.25,1.75,1.0,3.25,0.25,0.0,0.0,0.0,0.0,0.0,0.0,0.25,-0.05,-0.48,-0.42,109.47,-9.3,51.2
5.06,0.75,1.0,0.25,1.0,1.25,1.0,0.0,1.0,0.25,1.75,0.5,0.5,0.75,0.14,-0.61,-0.36,150.37,-0.3,0.0,0.0,0.25,1.25,1.0,3.5,0.0,0.5,0.0,0.0,0.0,0.0,0.0,0.25,-0.17,-0.42,-0.48,110.48,-8.5,50.3
5.08,0.75,1.0,0.5,1.0,0.0,1.5,0.0,1.5,0.5,2.0,0.5,0.5,0.75,0.02,-0.61,-0.48,150.22,-0.8,-8.9,0.0,0.25,1.25,1.0,3.0,0.25,0.0,0.0,0.25,0.0,0.25,0.0,0.0,-0.23,-0.42,-0.48,113.21,-8.7,48.7
5.1,0.5,1.0,0.25,1.0,0.0,1.25,0.0,1.5,0.25,2.0,0.5,0.5,0.75,-0.05,-0.61,-0.55,143.98,-2.5,-13.7,0.0,0.25,1.0,1.0,3.25,0.0,0.25,0.0,0.0,0.0,0.0,0.0,0.25,-0.23,-0.48,-0.55,111.35,-7.5,50.2
5.12,0.5,1.0,0.25,1.0,1.25,1.0,0.0,1.0,0.5,1.75,0.75,0.75,0.75,-0.11,-0.55,-0.61,147.53,-0.3,-7.2,0.0,0.25,1.0,0.75,3.25,0.0,0.0,0.0,0.0,0.0,0.5,0.0,0.25,-0.23,-0.48,-0.61,110.47,-6.9,41.0
5.14,0.75,1.0,0.25,1.25,1.25,1.5,0.0,1.25,0.5,1.5,0.5,0.5,0.75,-0.11,-0.48,-0.73,153.07,-0.6,2.7,0.25,0.25,1.0,1.0,3.0,0.0,0.5,0.0,0.0,0.0,0.25,0.0,0.25,-0.23,-0.48,-0.67,110.21,-9.4,46.8
5.16,0.5,1.0,0.25,1.25,0.0,1.5,0.0,1.5,0.25,1.5,0.5,0.5,0.75,-0.17,-0.42,-0.8,149.94,-1.8,-7.3,0.25,0.25,1.0,1.0,3.5,0.0,0.25,0.0,0.0,0.0,0.0,0.0,0.25,-0.23,-0.55,-0.73,112.01,-7.9,51.9
5.18,0.5,1.0,0.25,1.0,0.0,1.25,0.0,1.25,0.5,1.75,0.5,0.5,0.75,-0.17,-0.36,-0.86,144.89,-1.4,-12.0,0.0,0.25,0.75,1.25,3.25,0.0,0.25,0.0,0.25,0.0,0.25,0.0,0.5,-0.23,-0.61,-0.73,114.87,-6.2,37.1
5.2,0.75,1.0,0.25,1.0,1.25,1.25,0.0,1.0,0.25,1.5,0.5,0.5,0.75,-0.11,-0.3,-0.92,145.58,-0.4,2.6,0.0,0.25,1.25,0.75,3.25,0.25,0.25,0.0,0.0,0.0,0.0,0.0,0.25,-0.23,-0.61,-0.73,113.79,-7.2,49.7
5.22,0.5,1.25,0.75,1.0,0.75,1.25,0.0,1.0,0.25,1.75,0.5,0.5,0.75,-0.11,-0.23,-1.05,146.74,0.7,1.0,0.25,0.0,1.0,1.0,3.0,0.25,0.25,0.0,0.0,0.0,0.0,0.0,0.25,-0.23,-0.61,-0.73,111.47,-7.6,49.2
5.24,0.5,1.0,0.0,1.25,1.25,1.5,0.0,1.0,0.5,1.75,0.5,0.5,0.75,-0.11,-0.17,-1.05,151.32,-2.2,-1.5,0.25,0.25,1.0,1.0,3.25,0.0,0.25,0.0,0.0,0.0,0.0,0.0,0.0,-0.23,-0.61,-0.8,110.1,-9.3,58.3
5.26,0.5,1.25,0.25,1.25,0.0,1.0,0.0,1.5,0.25,1.25,1.25,1.25,0.75,-0.11,-0.17,-1.05,154.1,1.4,-16.9,0.0,0.0,1.25,0.5,3.5,0.25,0.25,0.0,0.0,0.0,0.0,0.0,0.0,-0.17,-0.61,-0.8,107.28,-6.9,54.1
5.28,0.75,1.0,0.25,1.25,1.25,1.0,0.0,1.0,0.5,2.0,0.5,0.5,0.75,-0.11,-0.23,-1.17,157.61,0.0,-1.1,0.25,0.25,1.0,1.0,2.5,0.0,0.5,0.0,0.0,0.0,0.25,0.0,0.0,-0.17,-0.61,-0.73,102.48,-11.7,52.9
5.3,0.5,1.0,0.25,1.0,1.25,1.0,0.0,1.0,0.25,1.5,0.5,0.5,0.75,-0.17,-0.3,-1.17,153.69,-0.7,-0.3,0.0,0.25,1.0,1.0,3.5,0.0,0.25,0.0,0.0,0.0,0.0,0.0,0.0,-0.17,-0.61,-0.73,103.61,-7.8,56.7
5.32,0.5,1.0,0.0,1.0,0.0,1.25,0.0,1.0,0.25,1.5,0.5,0.5,0.75,-0.11,-0.3,-1.11,143.09,-2.1,-10.8,0.0,0.25,0.75,1.0,3.5,0.25,0.25,0.0,0.0,0.0,0.5,0.0,0.25,-0.17,-0.61,-0.73,108.23,-5.2,41.0
5.34,0.5,1.0,0.25,1.25,0.75,1.5,0.0,1.0,0.25,1.75,0.5,0.5,0.75,-0.11,-0.42,-1.05,141.88,-1.5,-2.2,0.25,0.0,1.25,0.75,3.0,0.25,0.25,0.0,0.0,0.0,0.0,0.0,0.25,-0.17,-0.61,-0.67,108.77,-8.5,49.3
5.36,0.5,1.0,0.25,1.25,0.0,1.25,0.0,1.0,0.25,2.0,0.5,0.5,0.75,-0.11,-0.42,-1.05,136.95,-1.2,-10.3,0.5,0.25,1.0,1.0,3.0,0.25,0.5,0.0,0.0,0.0,0.0,0.0,0.0,-0.17,-0.67,-0.55,110.84,-10.0,58.5
5.38,0.5,1.0,0.25,1.25,0.0,1.25,0.0,1.5,0.25,1.75,0.5,0.5,0.75,-0.11,-0.42,-0.98,137.76,-1.6,-10.1,0.0,0.0,1.0,1.0,3.25,0.25,0.25,0.0,0.0,0.0,0.25,0.0,0.0,-0.23,-0.73,-0.48,109.23,-7.1,49.3
5.4,0.75,1.0,0.25,1.0,0.0,1.5,0.0,1.5,0.25,2.0,1.0,0.5,0.75,-0.11,-0.55,-0.86,142.43,-1.5,-13.0,0.0,0.25,1.0,1.0,3.5,0.25,0.25,0.0,0.0,0.0,0.0,0.0,0.0,-0.23,-0.73,-0.48,110.26,-6.7,55.9
5.42,0.5,1.0,0.25,1.25,0.0,1.0,0.0,1.0,0.25,2.0,0.5,0.5,0.75,-0.11,-0.67,-0.8,140.19,-0.6,-11.5,0.5,0.0,1.0,1.0,3.25,0.25,0.5,0.0,0.0,0.0,0.0,0.0,0.0,-0.42,-0.8,-0.36,111.14,-9.3,56.7
5.44,0.5,1.0,0.0,1.25,0.75,1.25,0.0,0.75,0.25,1.5,0.5,0.5,0.75,-0.11,-0.8,-0.61,137.09,-1.3,-1.9,0.0,0.0,1.25,0.75,3.5,0.0,0.25,0.0,0.0,0.0,0.0,0.0,0.0,-0.55,-0.86,-0.11,110.39,-8.5,55.0
5.46,0.5,1.0,0.0,1.25,0.0,1.25,0.0,1.0,0.25,1.75,0.5,0.5,0.75,-0.11,-0.8,-0.55,132.13,-1.9,-10.6,0.25,0.25,1.0,0.75,2.75,0.25,0.25,0.0,0.0,0.0,0.0,0.0,0.0,-0.61,-0.86,0.02,106.44,-8.9,57.8
5.48,0.75,1.0,0.5,1.0,0.0,1.5,0.0,1.0,0.25,1.5,0.5,0.5,0.75,-0.11,-0.8,-0.55,132.44,0.4,-2.8,0.25,0.0,1.0,1.0,3.5,0.25,0.25,0.0,0.0,0.0,0.0,0.0,0.0,-0.55,-0.86,-0.11,106.96,-7.5,55.7
5.5,0.5,1.0,0.25,1.25,0.0,1.25,0.0,1.0,0.25,2.0,0.5,0.5,0.75,-0.17,-0.73,-0.48,132.37,-1.2,-10.3,0.5,0.25,1.0,1.0,3.25,0.25,0.25,0.0,0.0,0.0,0.0,0.0,0.0,-0.48,-0.86,-0.11,109.67,-9.1,58.8
5.52,0.5,1.0,0.0,1.0,0.5,0.75,0.0,1.0,0.25,2.0,0.5,0.5,0.75,-0.23,-0.73,-0.48,132.12,-1.9,-12.6,0.25,0.0,1.0,1.0,3.25,0.25,0.25,0.0,0.0,0.0,0.0,0.0,0.0,-0.36,-0.86,0.02,110.14,-8.0,55.8
5.54,0.5,1.0,0.0,1.25,0.75,1.25,0.0,1.0,0.25,1.75,0.5,0.5,0.5,-0.3,-0.73,-0.42,135.13,-1.7,-1.9,0.0,0.0,1.0,1.0,3.25,0.25,0.25,0.0,0.0,0.0,0.25,0.0,0.0,-0.23,-0.92,0.02,109.23,-7.1,49.3
5.56,0.75,1.0,0.5,1.25,0.0,1.25,0.0,1.0,0.25,1.75,0.5,0.5,0.75,-0.36,-0.73,-0.36,137.42,1.1,-4.0,0.5,0.25,1.0,1.0,2.75,0.25,0.0,0.0,0.0,0.0,0.0,0.0,0.0,-0.11,-0.98,-0.05,107.28,-9.8,59.9
5.58,0.5,1.0,0.25,1.25,0.0,1.25,0.0,1.0,0.25,2.0,0.25,0.5,0.75,-0.42,-0.67,-0.36,135.93,-1.5,-8.6,0.75,0.25,1.75,0.5,4.25,0.0,0.5,0.0,0.0,0.0,0.0,0.0,0.0,0.02,-0.98,-0.11,118.06,-11.5,59.7
5.6,0.75,0.75,0.0,1.25,0.75,1.0,0.0,1.0,0.25,1.5,0.5,0.5,0.75,-0.36,-0.67,-0.3,136.26,-0.6,-4.1,1.25,1.0,1.0,1.25,4.25,0.75,0.5,1.0,0.5,0.75,2.0,0.0,0.75,0.02,-0.92,-0.17,159.1,-5.1,19.7
5.62,0.5,1.0,0.25,1.0,1.25,1.0,0.0,1.0,0.25,1.25,0.5,0.5,0.5,-0.36,-0.73,-0.17,136.68,0.0,4.7,0.0,0.0,0.75,0.75,3.25,0.25,0.25,0.0,0.0,0.0,0.0,0.0,0.0,0.02,-0.92,-0.23,152.3,-5.1,53.7
5.64,0.5,1.0,0.25,1.0,0.0,1.25,0.0,1.0,0.25,2.0,1.0,0.5,0.75,-0.36,-0.73,-0.17,137.28,-1.1,-15.5,0.0,0.0,0.75,1.0,3.0,0.25,0.25,0.0,0.0,0.0,0.0,0.0,0.0,-0.05,-0.92,-0.23,141.01,-6.1,53.9
5.66,0.5,1.0,0.25,1.25,0.5,1.0,0.0,0.75,0.25,1.5,1.0,0.5,0.75,-0.36,-0.73,-0.05,138.82,1.0,-6.6,0.0,0.0,0.75,0.75,3.25,0.25,0.0,0.0,0.0,0.0,0.0,0.0,0.0,-0.11,-0.92,-0.23,116.44,-4.5,54.3
5.68,0.5,1.0,0.0,1.25,1.75,1.5,0.0,0.75,0.25,1.5,0.75,0.5,0.75,-0.36,-0.73,-0.05,146.78,-1.7,3.1,0.25,0.0,1.0,0.75,3.5,0.25,0.25,0.0,0.0,0.0,0.0,0.0,0.0,-0.11,-0.92,-0.05,107.51,-7.1,55.6
5.7,0.5,1.0,0.25,1.0,2.5,1.0,0.25,0.75,0.25,1.5,0.5,0.5,0.75,-0.3,-0.8,-0.05,155.54,-0.3,7.8,0.0,0.25,1.0,1.0,3.25,0.25,0.25,0.0,0.0,0.0,0.0,0.0,0.0,-0.17,-0.86,0.08,101.03,-7.2,56.0
5.72,0.5,1.0,0.0,1.0,0.0,1.25,0.0,0.5,0.25,1.25,0.5,0.5,0.5,-0.3,-0.8,0.08,144.22,-0.2,-3.0,0.75,0.0,1.0,1.0,3.5,0.25,0.25,0.0,0.0,0.0,0.0,0.0,0.0,-0.11,-0.86,0.2,108.66,-9.3,58.4
5.74,0.5,0.75,0.25,1.25,0.0,1.0,0.0,1.0,0.25,1.5,0.5,0.5,0.25,-0.3,-0.67,0.2,133.72,0.7,-4.5,0.25,0.25,1.0,1.0,3.5,0.25,0.25,0.0,0.0,0.0,0.0,0.0,0.0,-0.11,-0.86,0.27,112.91,-7.7,57.3
5.76,0.5,1.0,0.25,1.25,0.0,0.75,0.0,0.75,0.25,1.75,0.5,0.5,0.75,-0.17,-0.67,0.33,124.03,0.9,-10.0,0.0,0.25,0.75,1.0,3.75,0.25,0.25,0.0,0.0,0.0,0.0,0.0,0.0,-0.11,-0.8,0.39,112.89,-5.1,55.6
5.78,0.5,0.75,0.25,1.25,0.0,1.0,0.0,1.25,0.25,1.5,0.5,0.5,0.5,-0.17,-0.67,0.39,119.7,-0.2,-8.8,0.0,0.0,1.0,1.0,3.25,0.25,0.25,0.0,0.0,0.0,0.0,0.0,0.0,-0.11,-0.8,0.52,107.97,-7.0,54.2
5.8,0.5,1.0,0.25,1.25,0.0,1.25,0.0,1.0,0.25,1.5,0.5,0.5,0.5,-0.17,-0.61,0.27,120.1,0.0,-3.5,0.0,0.25,1.0,0.75,3.25,0.25,0.25,0.0,0.0,0.0,0.0,0.0,0.0,-0.05,-0.73,0.52,103.1,-6.8,55.9
5.82,0.5,1.0,0.25,1.25,0.0,0.75,0.0,1.0,0.25,1.25,0.5,0.5,0.75,-0.17,-0.61,0.33,120.73,1.3,-6.8,0.0,0.25,0.75,1.0,3.75,0.0,0.25,0.0,0.0,0.0,0.0,0.0,0.0,0.08,-0.61,0.52,100.29,-6.1,56.4
5.84,0.5,1.0,0.25,1.25,0.0,1.25,0.0,0.75,0.25,1.25,0.5,0.5,0.75,-0.23,-0.67,0.39,120.79,0.5,-3.5,0.0,0.25,0.5,0.75,3.5,0.25,0.5,0.0,0.0,0.0,0.0,0.0,0.0,0.2,-0.55,0.58,98.95,-4.1,54.8
5.86,0.5,1.0,0.25,1.25,0.0,0.75,0.0,0.5,0.25,1.75,0.0,0.5,1.0,-0.23,-0.73,0.45,117.07,0.3,-8.3,0.0,0.0,1.0,1.0,3.25,0.25,0.25,0.0,0.0,0.0,0.0,0.0,0.0,0.2,-0.48,0.52,106.15,-7.0,54.2
5.88,0.5,1.0,0.0,1.25,0.75,1.0,0.0,1.25,0.25,1.5,0.5,0.5,0.5,-0.36,-0.8,0.52,122.13,-1.2,-1.8,0.0,0.0,1.25,0.75,3.0,0.25,0.25,0.0,0.0,0.0,0.0,0.0,0.0,0.33,-0.42,0.45,102.99,-8.4,54.4
5.9,0.5,1.0,0.5,1.25,0.0,1.0,0.0,0.75,0.25,1.25,0.5,0.5,0.75,-0.48,-0.92,0.58,122.41,2.3,-2.6,0.0,0.0,0.75,0.75,3.5,0.0,0.0,0.0,0.0,0.0,0.0,0.0,0.0,0.45,-0.36,0.45,98.79,-5.2,55.1
5.92,0.75,1.0,0.25,1.25,0.0,1.0,0.0,0.75,0.25,1.5,0.0,0.5,0.5,-0.55,-1.05,0.7,121.81,1.6,4.0,0.0,0.25,0.75,1.0,3.5,0.0,0.25,0.0,0.0,0.0,0.0,0.0,0.0,0.52,-0.42,0.39,98.07,-6.6,56.5
5.94,0.5,0.75,0.5,1.0,0.0,1.0,0.0,1.0,0.25,1.25,0.5,0.5,0.75,-0.55,-1.11,0.7,121.05,0.9,-9.0,0.5,0.0,1.0,1.0,3.5,0.0,0.25,0.0,0.0,0.0,0.0,0.0,0.25,0.58,-0.55,0.39,103.07,-8.7,51.7
5.96,0.75,1.0,0.25,1.25,0.0,1.0,0.25,0.75,0.25,1.5,0.5,0.5,0.75,-0.61,-1.11,0.64,125.27,2.1,-3.5,0.25,0.25,1.0,1.0,3.25,0.0,0.5,0.0,0.0,0.0,0.0,0.0,0.0,0.58,-0.73,0.52,106.57,-9.7,57.7
5.98,0.75,1.0,0.25,1.25,0.0,1.0,0.0,0.75,0.25,1.5,0.5,0.5,1.0,-0.61,-1.05,0.64,126.61,1.2,-7.0,0.0,0.0,1.0,1.0,3.75,0.0,0.25,0.0,0.25,0.0,0.0,0.0,0.0,0.52,-0.86,0.64,110.66,-7.3,51.5
6.0,0.5,1.0,0.25,1.0,1.25,0.75,0.0,0.75,0.25,1.5,0.0,0.5,0.5,-0.61,-1.11,0.64,128.78,0.0,7.3,0.0,0.25,1.0,1.0,3.75,0.25,0.25,0.0,0.0,0.0,0.0,0.0,0.0,0.39,-0.86,0.64,114.4,-6.3,55.8
6.02,0.5,0.75,0.25,1.25,0.0,1.0,0.0,1.25,0.25,1.75,0.5,0.5,0.75,-0.61,-1.11,0.58,130.31,-1.0,-13.7,0.0,0.0,0.5,1.0,3.0,0.0,0.25,0.0,0.0,0.0,0.0,0.0,0.0,0.33,-0.8,0.64,106.78,-5.8,54.5
6.04,0.5,0.75,0.25,1.0,0.0,1.0,0.0,0.75,0.25,1.75,0.5,0.5,0.5,-0.55,-1.11,0.52,125.86,-0.2,-11.3,0.5,0.0,0.5,1.0,3.25,0.0,0.25,0.0,0.0,0.0,0.0,0.0,0.0,0.27,-0.73,0.7,102.84,-7.7,57.9
6.06,0.75,0.75,0.25,1.0,1.25,1.0,0.0,0.75,0.25,1.5,0.0,0.5,0.75,-0.55,-1.11,0.52,128.41,-0.3,4.4,0.0,0.0,1.0,1.0,3.0,0.25,0.25,0.0,0.0,0.0,0.0,0.0,0.0,0.27,-0.73,0.77,98.78,-7.5,54.2
6.08,0.5,1.0,0.25,1.25,0.0,1.0,0.25,0.25,0.25,1.5,0.5,0.5,0.75,-0.55,-1.17,0.39,124.75,2.3,-4.2,0.0,0.25,1.25,1.0,2.5,0.25,0.25,0.0,0.0,0.0,0.0,0.0,0.0,0.2,-0.8,0.7,98.41,-10.1,56.6
6.1,0.5,1.0,0.25,1.25,0.5,1.0,0.0,0.75,0.25,1.25,0.5,0.5,1.0,-0.55,-1.17,0.2,128.09,0.5,-3.9,0.0,0.25,0.75,1.0,3.25,0.0,0.5,0.0,0.0,0.0,0.0,0.0,0.0,0.27,-0.86,0.77,98.72,-7.5,56.1
6.12,0.5,1.0,0.25,1.25,0.75,1.0,0.0,0.5,0.25,1.5,0.25,0.5,0.5,-0.55,-1.11,0.14,127.3,0.9,5.5,0.0,0.0,1.0,1.0,3.0,0.0,0.5,0.0,0.0,0.0,0.0,0.0,0.0,0.27,-0.92,0.83,98.75,-9.2,54.5
6.14,0.75,1.0,0.25,1.0,0.75,1.5,0.25,0.5,0.25,1.5,0.25,0.5,0.0,-0.55,-1.05,0.2,130.4,1.4,15.4,0.25,0.0,1.0,1.0,2.5,0.25,0.25,0.0,0.0,0.0,0.0,0.0,0.0,0.33,-0.92,0.77,96.38,-9.8,56.1
6.16,0.25,1.0,0.25,1.25,0.0,1.0,0.0,0.5,0.25,1.5,0.0,0.5,1.0,-0.67,-0.92,0.33,124.72,-0.8,-8.1,0.0,0.25,0.75,1.0,2.75,0.25,0.25,0.0,0.0,0.0,0.0,0.0,0.0,0.39,-0.86,0.64,93.52,-6.9,56.0
6.18,0.5,1.0,0.25,1.25,0.5,1.5,0.0,0.75,0.25,1.25,0.25,0.5,1.0,-0.73,-0.8,0.39,127.8,-0.9,0.0,0.0,0.0,0.5,1.0,2.75,0.0,0.25,0.0,0.0,0.0,0.0,0.0,0.0,0.39,-0.86,0.58,88.04,-6.3,54.5
6.2,0.5,1.0,0.0,1.25,1.25,1.0,0.0,1.0,0.25,1.5,0.5,0.5,0.25,-0.8,-0.67,0.33,130.85,-0.6,5.6,0.0,0.25,1.0,0.75,3.0,0.0,0.25,0.0,0.0,0.0,0.0,0.0,0.0,0.39,-0.92,0.58,88.73,-8.5,56.9
6.22,0.0,1.0,0.5,1.25,0.0,1.0,0.25,1.0,0.25,1.5,0.0,0.5,0.5,-0.8,-0.55,0.33,128.26,-0.3,-3.6,0.5,0.25,0.5,1.0,2.75,0.25,0.25,0.0,0.0,0.0,0.0,0.0,0.0,0.52,-0.98,0.64,90.68,-7.7,59.1
6.24,0.5,1.0,0.25,1.0,0.75,1.0,0.0,0.5,0.25,1.5,0.0,0.5,0.25,-0.8,-0.48,0.39,124.7,0.6,10.1,0.0,0.25,1.0,0.5,3.25,0.0,0.25,0.0,0.0,0.0,0.0,0.0,0.0,0.64,-1.05,0.45,93.69,-7.5,56.7
6.26,0.5,0.75,0.25,1.25,0.75,1.0,0.0,1.0,0.25,1.25,0.5,0.5,0.0,-0.73,-0.48,0.39,122.77,1.2,7.2,0.5,0.0,0.75,0.75,3.5,0.0,0.25,0.0,0.0,0.0,0.0,0.0,0.0,0.7,-1.17,0.52,98.8,-8.0,57.8
6.28,0.5,1.0,0.5,1.25,0.0,1.0,0.0,0.75,0.25,1.5,0.5,0.5,0.5,-0.67,-0.55,0.58,122.44,2.3,-1.5,0.0,0.0,0.75,1.0,3.5,0.25,0.25,0.0,0.0,0.0,0.0,0.0,0.0,0.7,-1.05,0.7,101.38,-5.2,53.9
6.3,0.5,1.0,0.25,1.0,0.0,1.25,0.0,0.5,0.25,1.5,0.5,0.5,0.75,-0.55,-0.55,0.64,120.54,0.0,-6.7,0.0,0.5,0.5,1.0,3.25,0.0,0.25,0.0,0.0,0.0,0.0,0.0,0.0,0.64,-0.92,0.58,102.52,-5.9,58.3
6.32,0.5,0.75,0.0,1.25,1.25,1.0,0.25,0.75,0.25,1.5,0.5,0.5,0.75,-0.42,-0.67,0.7,127.79,-0.8,-1.8,0.25,0.0,0.5,0.75,3.0,0.0,0.25,0.0,0.0,0.0,0.0,0.0,0.25,0.64,-0.92,0.52,98.84,-5.6,48.3
6.34,0.5,0.75,0.25,1.0,1.25,1.0,0.25,0.75,0.25,1.25,0.5,0.5,0.75,-0.42,-0.8,0.64,131.47,0.1,0.2,0.5,0.0,0.5,1.0,2.5,0.25,0.25,0.0,0.0,0.0,0.0,0.0,0.0,0.58,-0.8,0.45,95.15,-8.1,57.5
6.36,0.75,1.0,0.0,1.25,0.0,1.0,0.0,0.75,0.25,1.5,0.5,0.5,0.75,-0.36,-0.98,0.7,131.26,0.5,-5.9,0.0,0.0,0.5,0.75,3.0,0.0,0.25,0.0,0.0,0.0,0.0,0.0,0.0,0.52,-0.67,0.45,89.51,-5.2,54.3
6.38,0.5,1.0,0.25,1.0,0.75,0.75,0.0,0.75,0.25,1.25,0.25,0.5,0.5,-0.3,-0.92,0.83,127.84,1.1,4.0,0.0,0.25,0.5,1.0,3.25,0.25,0.25,0.0,0.0,0.0,0.0,0.0,0.0,0.39,-0.42,0.58,91.49,-4.5,55.6
6.4,0.5,0.75,0.0,1.25,0.75,0.75,0.0,1.0,0.25,1.25,0.5,0.5,0.75,-0.3,-0.8,0.83,126.2,-0.5,-5.9,0.0,0.25,0.75,0.75,3.25,0.0,0.25,0.0,0.0,0.0,0.0,0.0,0.0,0.33,-0.23,0.64,92.83,-6.6,56.6
6.42,0.5,1.0,0.25,1.25,0.0,1.0,0.0,0.75,0.25,1.25,1.0,0.5,0.75,-0.23,-0.61,0.77,124.4,1.7,-8.7,0.75,0.0,0.5,0.75,3.0,0.25,0.25,0.0,0.0,0.0,0.0,0.0,0.0,0.33,-0.11,0.64,96.37,-7.6,58.7
6.44,0.5,0.75,0.25,1.25,1.25,1.0,0.0,0.75,0.25,1.25,0.0,0.5,0.75,-0.17,-0.36,0.64,127.66,-0.3,5.8,0.0,0.25,0.75,0.75,3.25,0.0,0.5,0.0,0.0,0.0,0.0,0.0,0.0,0.33,0.02,0.45,96.79,-7.1,56.0
6.46,0.5,1.0,0.25,1.0,1.25,0.75,0.0,0.75,0.25,1.25,0.5,0.5,0.25,-0.05,-0.11,0.58,130.41,1.5,8.6,0.0,0.0,0.5,0.5,3.0,0.25,0.5,0.0,0.0,0.0,0.0,0.0,0.0,0.39,0.08,0.45,92.95,-3.9,52.5
6.48,0.25,1.0,0.25,1.0,1.25,1.0,0.0,0.75,0.25,1.5,0.25,0.5,0.5,-0.11,0.08,0.58,131.94,-1.2,3.3,0.0,0.0,0.5,1.0,2.75,0.0,0.25,0.0,0.0,0.0,0.0,0.0,0.0,0.39,0.02,0.58,87.86,-6.3,54.5
6.5,0.5,0.75,0.25,1.25,0.5,1.0,0.0,0.75,0.25,1.25,0.5,0.5,0.5,-0.3,0.33,0.64,128.72,1.0,-0.4,0.0,0.0,1.0,1.0,3.0,0.25,0.25,0.0,0.0,0.0,0.0,0.0,0.0,0.45,-0.05,0.89,89.07,-7.5,54.2
6.52,0.5,0.75,0.25,1.0,0.75,1.25,0.0,0.5,0.25,1.5,0.0,0.5,0.25,-0.61,0.39,0.77,124.31,-0.5,7.9,0.5,0.0,1.0,1.0,3.0,0.0,0.5,0.0,0.0,0.0,0.0,0.0,0.0,0.52,-0.23,0.95,94.75,-11.1,57.7
6.54,0.5,1.0,0.25,1.25,0.75,1.0,0.0,0.25,0.25,1.5,0.5,0.5,0.0,-0.92,0.39,0.95,121.3,2.8,12.0,0.0,0.25,0.25,1.0,2.75,0.0,0.5,0.0,0.0,0.0,0.0,0.0,0.0,0.52,-0.3,0.95,93.84,-5.6,55.9
6.56,0.25,0.0,0.25,1.0,1.25,1.0,0.0,0.75,0.25,1.0,0.5,0.5,0.25,-1.11,0.39,0.64,115.01,-1.3,-3.4,0.0,0.25,0.5,1.0,2.75,0.0,0.25,0.0,0.0,0.0,0.0,0.0,0.0,0.45,-0.36,1.08,92.64,-6.7,56.8
6.58,0.5,0.5,0.25,1.0,0.0,1.0,0.0,0.5,0.25,1.25,0.0,0.5,0.25,-1.17,0.27,0.7,105.78,0.8,-0.1,0.0,0.0,0.25,0.75,2.75,0.25,0.5,0.0,0.0,0.0,0.0,0.0,0.0,0.39,-0.48,1.08,86.56,-3.2,52.3
6.6,0.5,0.5,0.25,0.75,1.25,1.0,0.0,0.5,0.25,1.25,0.0,0.5,0.25,-1.23,-0.23,0.77,103.95,-0.5,8.5,0.0,0.0,0.5,1.0,2.5,0.0,0.25,0.0,0.0,0.0,0.0,0.0,0.0,0.33,-0.42,1.02,81.23,-7.0,54.6
6.62,0.25,0.25,0.25,0.25,0.75,0.75,0.0,0.75,0.25,1.25,1.5,0.5,0.75,-1.42,-3.55,1.83,103.33,-1.7,-30.7,0.25,0.0,1.0,1.0,3.0,0.25,0.25,0.0,0.0,0.0,0.0,0.0,0.0,0.2,-0.36,1.02,85.5,-8.5,55.9
6.64,0.5,0.25,0.25,0.75,0.5,0.75,0.0,0.75,0.25,1.25,0.25,0.5,1.0,-1.36,-1.73,1.77,102.78,-1.6,-18.6,0.0,0.0,0.75,1.0,2.5,0.0,0.25,0.0,0.0,0.0,0.0,0.0,0.0,0.08,-0.23,0.64,85.46,-8.6,55.0
6.66,0.5,0.5,0.25,1.0,0.75,1.0,0.0,0.5,0.25,1.5,0.5,0.5,0.5,-0.55,0.39,0.7,106.93,0.0,-4.8,0.0,0.0,0.5,1.0,2.5,0.0,0.5,0.0,0.0,0.0,0.0,0.0,0.0,0.14,-0.11,0.45,84.71,-7.6,53.9
6.68,0.5,0.25,0.25,1.25,0.75,0.75,0.25,0.75,0.25,1.25,0.5,0.5,0.25,0.02,0.89,-0.05,109.22,1.8,-2.1,0.0,0.25,0.5,1.0,3.0,0.25,0.25,0.0,0.0,0.0,0.0,0.0,0.0,0.14,-0.11,0.39,86.89,-4.9,55.7
6.7,0.5,0.75,0.25,1.0,1.25,0.5,0.0,0.75,0.25,1.75,0.5,0.5,0.5,0.14,0.95,0.33,117.32,0.4,-3.0,0.5,0.0,0.25,1.0,2.5,0.0,0.25,0.0,0.0,0.0,0.0,0.0,0.25,0.2,-0.11,0.39,86.78,-6.9,49.9
6.72,0.0,0.5,0.25,0.0,0.75,0.75,0.0,0.75,0.25,1.5,0.5,0.5,1.0,1.08,-1.67,1.27,113.62,-5.8,-31.9,0.0,0.0,0.5,1.0,2.5,0.0,0.5,0.0,0.0,0.0,0.0,0.0,0.0,0.27,-0.05,0.52,83.92,-7.6,53.9
6.74,0.5,0.25,0.25,1.0,1.25,0.75,0.0,0.75,0.25,1.75,0.5,0.5,1.25,-0.73,0.39,0.7,122.53,-2.0,-16.7,0.5,0.0,1.0,1.0,2.75,0.0,0.25,0.0,0.0,0.0,0.0,0.0,0.0,0.27,0.08,0.7,87.59,-11.4,58.6
6.76,0.0,0.25,0.25,1.0,0.75,0.75,0.0,0.75,0.25,2.25,0.5,0.5,1.0,-1.11,0.14,0.95,123.06,-4.4,-28.6,0.0,0.0,0.5,1.0,2.75,0.0,0.25,0.0,0.0,0.0,0.0,0.0,0.25,0.33,0.08,0.95,88.08,-5.3,46.3
6.78,0.5,0.25,0.25,1.25,1.75,0.75,0.0,0.75,0.25,2.0,0.5,0.5,1.0,-0.86,-0.05,1.33,134.99,-1.6,-9.8,0.25,0.0,0.5,1.25,3.0,0.25,0.25,0.0,0.0,0.0,0.0,0.0,0.0,0.58,0.08,1.02,93.62,-6.3,55.5
6.8,0.25,0.5,0.25,0.75,0.75,1.0,0.0,0.75,0.25,2.0,1.0,0.5,1.0,-0.48,-0.05,0.89,137.58,-2.9,-23.8,0.0,0.0,0.5,0.75,2.5,0.25,0.5,0.0,0.0,0.0,0.0,0.0,0.0,0.64,0.14,1.08,89.52,-5.5,52.7
6.82,0.5,1.0,0.25,1.25,1.25,0.75,0.25,0.75,0.25,1.75,0.5,0.5,1.25,-0.3,-0.17,0.83,147.75,0.0,-5.7,0.75,0.0,0.5,1.0,2.5,0.0,0.25,0.0,0.0,0.0,0.0,0.0,0.0,0.7,0.08,1.33,90.47,-10.7,60.4
6.84,0.75,0.75,0.25,1.25,0.75,0.75,0.25,0.75,0.25,2.0,0.5,0.5,1.0,-0.3,-0.17,0.64,148.43,0.6,-8.5,0.0,0.25,2.25,1.0,4.5,0.25,0.5,0.0,0.0,0.0,1.5,0.0,0.5,0.89,-0.11,6.64,119.01,-9.2,31.4
6.86,0.0,0.0,0.0,0.0,0.75,0.0,1.5,1.25,0.25,1.75,0.5,0.5,0.0,-0.48,-0.05,0.7,132.24,-2.6,-37.0,0.0,0.0,0.25,1.0,2.5,0.0,0.25,0.0,0.0,0.0,0.0,0.0,0.0,1.39,-0.05,0.83,112.0,-5.1,54.2
6.88,1.25,0.0,0.25,0.0,0.75,0.0,0.5,0.75,1.0,0.0,0.5,0.0,0.75,-0.73,0.02,0.89,112.72,8.9,-1.0,0.0,0.25,0.25,1.0,2.75,0.25,0.0,0.0,0.0,0.0,0.0,0.0,0.0,0.52,0.02,1.02,109.7,-3.0,56.2
