time,left pressure 0[N/cm虏],left pressure 1[N/cm虏],left pressure 2[N/cm虏],left pressure 3[N/cm虏],left pressure 4[N/cm虏],left pressure 5[N/cm虏],left pressure 6[N/cm虏],left pressure 7[N/cm虏],left pressure 8[N/cm虏],left pressure 9[N/cm虏],left pressure 10[N/cm虏],left pressure 11[N/cm虏],left pressure 12[N/cm虏],left acceleration X[g],left acceleration Y[g],left acceleration Z[g],left total force[N],left center of pressure X[mm],left center of pressure Y[mm],right pressure 0[N/cm虏],right pressure 1[N/cm虏],right pressure 2[N/cm虏],right pressure 3[N/cm虏],right pressure 4[N/cm虏],right pressure 5[N/cm虏],right pressure 6[N/cm虏],right pressure 7[N/cm虏],right pressure 8[N/cm虏],right pressure 9[N/cm虏],right pressure 10[N/cm虏],right pressure 11[N/cm虏],right pressure 12[N/cm虏],right acceleration X[g],right acceleration Y[g],right acceleration Z[g],right total force[N],right center of pressure X[mm],right center of pressure Y[mm]
0.02,1.75,0.0,6.0,5.5,2.5,1.0,0.5,1.75,1.25,0.0,1.25,1.25,0.5,-0.05,0.08,1.14,387.56,15.7,28.1,0.0,0.0,0.5,0.5,1.5,1.25,0.25,1.75,1.25,3.25,1.5,2.0,2.5,0.02,0.08,0.95,224.98,4.1,-47.4
0.04,1.75,0.0,5.25,0.0,2.5,0.25,0.0,1.5,1.0,1.0,1.0,0.75,0.5,-0.11,0.14,1.2,273.58,14.5,16.9,0.5,0.0,0.5,0.75,1.0,2.0,0.75,2.25,1.0,3.0,1.5,1.75,0.5,0.02,0.08,0.95,238.58,2.2,-29.8
0.06,1.5,0.0,4.5,2.75,0.0,0.0,0.0,1.5,1.0,1.25,0.75,0.75,0.5,-0.11,0.14,1.33,191.07,17.1,13.8,0.5,0.5,1.0,1.5,2.25,2.25,1.5,2.75,1.5,3.25,1.75,2.0,1.5,0.08,0.08,0.95,265.14,0.4,-20.3
0.08,1.5,0.0,3.0,1.0,2.25,0.0,0.0,1.25,1.0,0.5,0.5,0.75,0.0,-0.11,0.27,1.27,119.0,14.1,23.3,0.75,0.0,1.75,2.0,3.25,2.25,1.75,2.75,1.75,3.25,1.5,2.0,2.0,0.08,0.08,0.95,294.01,-1.0,-15.3
0.1,0.75,0.0,0.75,0.25,0.0,0.0,0.0,1.25,1.0,0.75,0.5,0.5,0.5,-0.11,0.39,1.33,42.82,6.5,-25.7,1.25,0.5,2.25,2.75,3.75,2.25,2.25,3.0,1.75,3.5,2.5,2.5,2.25,0.08,0.08,0.95,349.91,-3.0,-11.7
0.12,0.0,0.0,0.25,1.0,0.0,0.0,0.0,1.5,1.0,0.5,0.25,1.0,0.5,-0.11,0.33,1.14,0.0,1.8,-40.0,1.5,0.75,2.25,3.25,3.75,2.5,2.75,2.75,2.5,3.5,2.5,2.5,2.5,0.08,0.08,0.95,404.85,-3.8,-9.4
0.14,0.0,0.0,0.0,0.0,0.0,0.0,0.0,1.25,1.0,0.5,0.5,0.75,0.5,-0.17,-0.48,1.02,0.0,-2.6,-66.8,1.75,0.75,2.75,3.25,3.75,3.25,2.5,3.0,2.5,4.25,2.5,2.5,2.5,0.08,0.08,0.95,468.86,-3.3,-8.5
0.16,0.0,0.0,0.0,0.0,0.0,0.0,0.0,1.25,1.0,0.75,0.5,0.5,0.5,0.08,-0.86,0.64,0.0,-4.0,-64.9,1.75,0.75,3.5,3.25,4.25,3.5,2.25,3.25,2.5,4.75,2.5,2.5,3.25,0.08,0.08,0.95,521.14,-2.9,-9.2
0.18,0.0,0.0,0.0,0.0,0.0,0.0,0.25,1.0,1.0,0.5,0.25,1.25,0.5,0.02,-0.98,0.77,0.0,-0.4,-70.0,1.75,0.75,4.0,3.25,4.5,3.75,2.75,3.25,3.0,4.75,3.5,2.75,3.25,0.08,0.08,0.95,570.43,-3.7,-9.9
0.2,0.0,0.0,0.0,0.0,0.0,0.0,0.5,1.0,1.0,0.5,0.5,0.5,0.5,-0.17,-0.8,0.58,0.0,-0.5,-60.5,1.75,0.75,3.5,3.5,3.75,4.0,3.75,4.0,3.0,4.75,4.0,3.0,3.25,0.08,0.08,0.95,608.08,-3.4,-12.9
0.22,0.0,0.0,0.0,0.0,0.0,0.0,0.5,0.0,1.0,0.5,0.25,0.5,0.25,-0.23,-0.67,0.58,0.0,5.6,-62.6,1.75,0.75,4.0,4.5,5.0,4.5,3.75,4.25,3.0,5.0,4.5,3.25,3.75,0.08,0.08,0.95,664.21,-3.3,-10.7
0.24,0.0,0.0,0.0,0.0,0.0,0.0,0.5,1.0,1.0,0.0,0.25,0.75,0.5,-0.3,-0.48,0.77,3.03,1.3,-60.9,3.0,2.0,4.75,5.5,6.5,5.0,4.25,4.5,3.75,6.0,5.25,4.0,4.75,0.08,0.08,0.95,781.91,-4.1,-6.8
0.26,0.0,0.0,0.0,0.0,0.0,0.0,0.5,0.5,1.0,0.75,0.5,0.5,0.5,-0.36,-0.3,0.89,20.02,0.5,-64.2,3.0,2.0,5.5,5.75,6.5,5.5,4.25,4.5,3.75,6.0,5.0,4.0,4.5,0.08,0.08,0.95,895.66,-4.5,-4.6
0.28,0.0,0.0,0.0,0.0,0.0,0.0,0.5,1.0,0.75,0.75,0.5,0.5,0.5,-0.48,-0.17,0.89,37.21,-2.1,-62.7,3.25,2.25,5.25,5.75,6.5,5.5,4.25,4.75,3.75,5.75,4.75,4.0,3.75,0.08,0.08,0.95,977.45,-4.7,-2.2
0.3,0.0,0.0,0.0,0.0,0.0,0.0,0.75,1.0,1.0,1.0,0.25,0.75,0.5,-0.61,-0.05,1.2,51.56,-1.3,-61.7,3.0,2.0,5.25,5.75,6.5,5.5,4.5,4.5,3.75,5.75,4.75,3.25,4.25,0.08,0.08,0.95,1001.2,-4.5,-2.4
0.32,0.75,0.0,0.0,0.0,0.0,0.0,1.0,0.75,0.75,0.75,0.25,0.75,0.75,-0.67,0.08,1.33,65.92,4.5,-42.0,3.25,2.25,5.5,6.25,6.75,5.5,4.5,4.5,3.75,5.5,4.75,3.25,4.0,0.08,0.08,0.95,1009.39,-5.0,0.3
0.34,0.75,0.5,0.25,0.5,2.25,1.0,1.25,2.0,1.5,2.0,1.75,2.0,0.5,-0.92,0.39,1.33,127.78,1.3,-21.1,3.25,2.25,5.75,7.0,7.25,5.75,4.75,4.25,3.75,5.75,4.75,2.75,4.0,0.08,0.08,0.95,1011.51,-5.1,2.7
0.36,1.0,0.25,0.25,0.0,1.75,0.0,0.5,1.25,1.0,2.25,2.5,3.0,2.0,-0.42,3.08,0.77,177.18,1.7,-47.5,3.25,2.25,5.75,7.25,7.75,6.0,4.75,4.5,3.75,5.5,4.75,2.5,3.5,0.08,0.08,0.95,1022.24,-5.1,5.2
0.38,0.0,0.0,0.0,0.0,0.0,0.0,1.0,2.75,1.0,1.0,2.25,1.5,1.25,2.7,6.08,0.95,197.82,-1.4,-66.5,3.5,2.5,6.0,7.25,7.5,6.0,5.0,4.25,3.75,5.5,4.5,2.75,3.25,0.08,0.08,0.95,1030.17,-5.7,6.5
0.4,0.75,0.75,0.0,1.25,0.0,1.25,1.25,2.75,1.25,2.0,2.5,2.0,1.5,-0.05,0.02,0.89,221.75,0.5,-36.2,3.75,2.5,6.25,7.5,8.0,6.0,5.0,4.75,3.75,5.0,4.5,2.5,3.25,0.08,0.08,0.95,1036.78,-5.9,8.5
0.42,0.0,0.0,0.25,1.25,1.75,1.0,1.75,3.0,1.75,2.0,2.75,2.5,1.5,-0.11,-0.11,1.02,244.25,0.0,-38.4,3.75,2.5,6.25,7.5,8.0,6.0,5.25,4.75,3.75,5.25,4.5,2.5,3.25,0.08,0.08,0.95,1037.3,-5.9,8.2
0.44,0.0,0.0,0.5,0.75,0.0,0.25,2.0,3.25,1.0,2.0,2.5,1.75,0.5,-0.05,0.08,0.95,243.93,1.4,-47.3,4.0,2.5,6.25,7.5,8.0,6.0,5.25,4.75,3.75,5.0,4.5,2.5,3.25,0.08,0.08,0.95,1032.93,-6.0,8.9
0.46,0.75,0.75,0.25,1.75,0.0,0.25,2.5,3.0,1.25,2.0,2.0,2.0,0.75,-0.05,0.02,0.95,245.4,4.4,-28.6,4.25,2.5,6.25,7.5,8.0,6.0,5.25,4.75,3.25,4.75,3.5,2.5,3.25,0.08,0.08,0.95,1011.26,-6.1,11.3
0.48,1.0,1.0,1.0,2.5,0.0,2.25,2.5,3.0,1.5,0.75,1.75,2.25,0.5,-0.05,0.02,0.95,254.31,5.7,-7.9,4.5,2.5,6.25,8.0,8.0,6.0,5.25,4.25,3.0,4.75,3.5,2.0,2.5,0.08,0.08,0.95,984.12,-6.7,15.3
0.5,1.5,1.0,1.5,2.5,2.25,2.5,2.5,3.0,1.75,2.0,2.0,1.75,0.5,-0.05,0.02,0.95,281.64,4.6,0.4,4.5,2.5,6.25,8.75,8.0,6.0,5.25,4.25,3.0,4.5,3.25,1.75,2.25,0.08,0.08,0.95,969.11,-7.0,17.7
0.52,1.5,1.0,1.5,3.0,2.25,2.5,2.5,3.0,2.0,2.0,1.75,1.75,0.5,-0.05,0.02,0.95,307.35,4.9,2.0,4.75,2.5,6.25,8.5,8.25,6.0,5.25,4.25,2.75,3.75,2.5,1.25,2.0,0.08,0.08,0.95,945.53,-7.4,22.5
0.54,1.5,1.25,2.0,4.0,2.25,2.75,3.0,3.25,2.0,1.75,2.0,2.0,0.5,-0.05,0.02,0.95,347.23,6.2,5.3,4.5,2.5,6.75,9.0,8.5,6.0,5.0,4.0,2.5,3.5,2.5,1.25,1.5,0.08,0.08,0.95,926.08,-7.9,25.2
0.56,2.0,1.0,1.75,4.0,2.5,2.75,3.25,3.25,2.0,2.0,2.0,2.0,0.5,-0.05,0.02,0.95,371.98,6.1,5.4,4.5,2.5,6.25,9.0,8.5,6.0,4.75,3.75,2.5,3.25,2.5,1.0,1.5,0.08,0.08,0.95,898.97,-7.8,26.2
0.58,2.25,1.0,1.75,4.25,2.5,2.75,3.5,3.25,2.0,2.75,1.75,1.75,0.5,-0.05,0.02,0.95,388.36,5.9,6.2,4.5,2.5,6.25,9.0,8.5,6.0,4.75,3.5,2.5,3.5,2.5,1.25,1.5,0.08,0.08,0.95,881.75,-7.8,25.4
0.6,2.5,1.0,3.0,4.25,2.5,2.75,3.5,3.25,2.0,2.0,1.25,2.0,0.5,-0.05,0.02,0.95,406.25,8.1,11.9,4.5,2.5,6.25,9.0,8.5,6.0,4.75,3.25,2.0,3.5,2.5,1.0,1.5,0.08,0.08,0.95,863.36,-7.9,26.9
0.62,2.5,1.0,3.5,4.25,2.5,2.75,3.25,3.0,1.75,2.0,1.5,1.5,0.5,-0.05,0.02,0.95,419.42,8.7,15.0,4.5,2.5,6.25,9.0,8.5,6.0,4.75,3.25,2.0,3.5,2.5,1.0,1.5,0.08,0.08,0.95,853.14,-7.9,26.9
0.64,2.5,1.0,3.0,4.5,2.5,2.75,3.0,3.0,1.5,2.0,1.75,2.0,0.5,-0.05,0.02,0.95,419.38,8.2,12.0,4.5,2.5,6.5,9.0,8.5,6.0,4.75,3.25,1.75,3.25,2.25,1.0,1.25,0.08,0.08,0.95,841.36,-8.2,29.0
0.66,2.75,1.0,3.75,4.5,2.5,2.75,3.0,3.0,1.25,2.0,1.75,2.0,0.5,-0.05,0.02,0.95,423.69,9.1,14.4,4.5,2.5,6.25,9.0,8.75,6.0,4.75,3.0,1.75,3.5,2.5,1.0,1.25,0.08,0.08,0.95,837.79,-8.0,28.3
0.68,2.75,1.0,3.75,4.5,3.0,2.75,3.25,2.75,1.25,2.0,1.75,2.0,0.5,-0.05,0.02,0.95,430.28,9.2,15.7,4.5,2.5,6.25,8.75,8.5,6.0,4.75,3.0,1.75,3.25,2.5,1.0,1.5,0.08,0.08,0.95,832.82,-8.0,27.9
0.7,2.75,1.0,4.25,5.25,2.5,2.75,3.25,3.0,1.0,2.0,1.25,2.0,0.5,-0.05,0.02,0.95,430.32,9.9,18.3,4.5,2.5,6.75,9.0,8.5,6.0,4.5,3.0,1.75,3.25,2.5,1.0,1.25,0.08,0.08,0.95,835.58,-8.4,29.0
0.72,2.75,1.0,3.25,5.25,3.5,2.75,3.0,2.75,1.25,2.0,1.0,1.75,0.5,-0.05,0.02,0.95,425.34,8.5,19.9,4.5,2.5,6.25,9.0,8.5,6.0,4.25,3.0,1.75,3.25,2.5,1.0,1.25,0.08,0.08,0.95,833.37,-8.1,28.7
0.74,2.75,1.0,4.25,5.5,4.75,2.5,2.5,2.5,1.25,1.75,1.5,1.0,0.5,-0.05,0.02,0.95,429.64,9.5,25.9,4.5,2.5,6.25,9.0,8.5,6.0,4.25,3.0,1.75,3.5,2.5,1.0,1.25,0.08,0.08,0.95,834.6,-8.0,28.2
0.76,2.5,1.0,4.25,4.5,3.75,2.5,2.25,2.5,1.0,1.75,1.5,1.5,0.5,-0.05,0.08,1.02,420.1,9.4,21.2,4.5,2.5,6.25,9.0,8.75,6.0,4.25,3.25,1.75,3.5,2.5,1.0,1.5,0.08,0.08,0.95,841.38,-7.7,27.4
0.78,2.25,1.0,3.0,4.0,3.0,2.5,1.25,2.25,1.0,2.0,1.5,1.25,0.5,-0.05,0.08,1.02,390.87,7.6,17.4,4.5,2.5,6.25,9.0,8.75,6.0,4.5,3.25,1.75,3.5,2.5,1.0,1.5,0.08,0.08,0.95,849.0,-7.7,27.4
0.8,1.75,1.0,2.75,3.5,2.5,2.0,1.0,2.25,1.0,2.0,1.5,1.5,0.5,-0.05,0.08,1.02,354.49,7.3,11.8,4.5,2.5,6.25,9.0,9.0,6.0,4.75,3.5,2.0,3.5,2.5,1.0,1.5,0.08,0.08,0.95,862.74,-7.6,26.9
0.82,1.5,1.0,1.5,3.5,3.0,1.5,0.5,2.25,1.0,2.0,1.75,2.0,0.5,-0.05,0.14,0.95,318.56,5.3,4.8,5.0,2.5,6.5,9.25,9.25,6.0,5.0,3.75,2.25,3.5,2.5,1.0,1.5,0.08,0.08,0.95,887.24,-7.9,27.3
0.84,0.0,0.0,0.5,0.0,2.25,0.25,0.25,2.25,0.25,0.5,1.5,0.5,0.5,-0.05,0.14,0.95,243.27,-2.2,-19.3,5.0,2.5,6.75,9.0,9.0,6.0,5.0,3.75,2.5,3.5,2.5,1.0,1.5,0.08,0.08,0.95,908.73,-8.1,26.9
0.86,0.0,0.0,0.0,0.0,0.0,0.25,0.0,0.75,0.25,0.75,0.25,0.5,0.0,-0.11,0.14,0.89,149.45,-7.2,-58.8,5.25,2.5,6.75,9.25,9.25,6.0,5.25,3.75,2.5,3.5,2.5,1.0,1.5,0.08,0.08,0.95,931.35,-8.3,27.5
0.88,0.0,0.75,0.0,0.25,0.0,0.25,0.0,1.25,1.0,0.5,0.25,0.5,0.0,-0.17,0.64,1.08,66.05,-0.1,-20.5,5.5,2.5,7.0,9.25,9.25,6.0,5.5,3.75,2.5,3.5,2.5,1.0,1.5,0.08,0.08,0.95,951.13,-8.5,27.9
0.9,0.0,0.0,0.0,0.0,0.0,0.0,0.0,1.0,0.25,0.25,0.25,0.5,0.5,0.02,0.95,0.77,3.0,-6.4,-71.5,5.75,2.5,7.25,9.25,9.25,6.25,5.5,4.0,2.5,3.5,2.5,1.25,1.5,0.08,0.08,0.95,974.28,-8.5,27.5
0.92,0.0,0.0,0.0,0.0,0.0,0.0,0.5,1.25,0.25,0.25,0.25,0.5,0.0,0.52,1.08,1.08,0.0,-2.6,-52.5,6.0,2.5,7.5,9.25,9.25,6.25,5.75,4.25,2.75,3.75,2.5,1.5,1.75,0.08,0.08,0.95,1003.64,-8.5,25.8
0.94,0.0,0.0,0.0,0.0,0.0,0.0,0.5,1.0,0.25,0.5,0.25,0.5,0.0,0.39,1.08,0.89,0.0,-2.5,-55.9,6.0,2.5,7.5,9.25,9.25,6.25,5.75,4.25,3.0,4.5,2.5,2.0,2.0,0.08,0.08,0.95,1038.35,-8.2,22.7
0.96,0.0,0.0,0.0,0.0,0.0,0.0,0.75,1.0,0.25,0.5,0.25,0.5,0.0,0.08,0.95,0.7,0.0,-1.0,-52.4,6.0,2.5,7.5,9.25,9.25,6.5,5.75,4.25,3.25,4.75,3.5,2.5,2.25,0.08,0.08,0.95,1081.68,-7.9,19.2
0.98,0.0,0.0,0.0,0.0,0.0,0.0,0.5,1.0,0.25,0.5,0.25,0.5,0.0,0.02,0.83,0.77,0.0,-2.5,-55.9,6.0,2.5,7.5,9.25,9.25,6.5,5.75,4.25,3.5,4.75,3.5,2.5,2.5,0.08,0.08,0.95,1115.73,-7.9,18.5
1.0,0.0,0.0,0.0,0.0,0.0,0.0,0.75,1.0,0.25,0.0,0.25,0.5,0.0,-0.11,0.64,0.7,0.0,2.0,-47.4,6.0,2.5,7.0,9.5,9.25,6.75,5.75,4.75,3.5,5.0,4.0,2.5,3.0,0.08,0.08,0.95,1149.88,-7.2,16.0
1.02,0.0,0.0,0.0,0.0,0.0,0.0,0.75,1.0,0.25,0.5,0.25,0.5,0.0,-0.17,0.52,0.7,0.0,-1.0,-52.4,6.0,2.5,7.0,9.25,9.25,6.5,5.75,5.0,3.75,5.25,4.0,2.5,3.25,0.08,0.08,0.95,1173.1,-7.0,14.5
1.04,0.0,0.0,0.0,0.0,0.0,0.0,0.75,1.0,0.25,0.5,0.25,0.5,0.0,-0.17,0.39,0.64,4.28,-1.0,-52.4,6.0,2.5,6.75,9.0,9.25,6.5,5.75,5.0,3.75,5.25,4.5,2.5,3.25,0.08,0.08,0.95,1185.49,-6.9,13.5
1.06,0.0,0.0,0.0,0.0,0.0,0.0,0.5,1.0,0.25,0.25,0.25,0.5,0.0,-0.11,0.27,0.77,19.29,-1.1,-53.9,5.5,2.5,6.5,9.0,9.25,6.5,5.5,5.0,3.75,5.5,4.5,2.5,3.25,0.08,0.08,0.95,1182.28,-6.4,12.4
1.08,0.0,0.0,0.0,0.0,0.0,0.0,0.5,1.0,0.25,0.5,0.25,0.5,0.25,-0.11,0.14,0.83,38.7,-3.4,-60.5,5.5,2.5,6.5,9.0,9.25,6.5,5.5,5.25,3.75,5.5,4.75,2.75,3.25,0.08,0.08,0.95,1181.54,-6.4,11.5
1.1,0.0,0.0,0.0,0.0,0.0,0.0,0.5,1.0,0.25,0.5,0.25,0.5,0.25,-0.11,0.14,0.83,45.69,-3.4,-60.5,5.5,2.5,6.5,9.0,9.25,6.5,5.5,5.25,3.75,5.5,4.75,2.75,3.25,0.08,0.08,0.95,1176.35,-6.4,11.5
1.12,0.0,0.0,0.0,0.0,0.0,0.0,0.5,0.25,0.25,0.5,0.25,0.5,0.5,-0.17,0.08,0.7,44.85,-0.5,-72.2,5.5,2.5,6.25,9.0,9.0,6.5,5.25,5.25,3.75,5.75,4.75,2.75,3.75,0.08,0.08,0.95,1171.49,-6.0,9.9
1.14,0.0,0.0,0.0,0.0,0.0,0.0,0.75,1.0,0.25,0.5,0.25,0.5,0.0,-0.23,-0.11,0.64,46.41,-1.0,-52.4,5.5,2.5,6.25,8.25,9.0,6.5,5.25,5.25,3.5,5.75,4.75,3.0,3.75,0.08,0.08,0.95,1158.09,-5.9,9.0
1.16,0.0,0.0,0.0,0.0,0.0,0.0,0.5,0.5,0.25,0.25,0.5,0.5,0.0,-0.3,-0.23,0.27,43.22,3.6,-59.7,5.25,2.5,6.25,8.25,8.75,6.5,5.0,5.25,3.75,5.75,4.25,3.25,4.0,0.08,0.08,0.95,1141.36,-5.7,8.1
1.18,0.0,0.0,0.0,0.0,0.0,0.0,0.25,1.5,0.25,0.25,1.5,0.5,0.5,-0.23,-1.73,0.95,54.07,-2.0,-66.4,5.25,2.5,6.25,8.0,8.75,6.25,4.75,5.25,3.75,6.25,4.75,3.25,4.25,0.08,0.08,0.95,1128.8,-5.5,6.1
1.2,0.0,0.0,0.0,0.0,0.0,0.0,0.0,0.0,0.0,0.0,0.0,0.0,0.0,-0.23,0.27,1.08,37.75,0.0,0.0,5.0,2.5,5.75,7.5,8.5,6.25,4.75,5.25,3.75,6.25,4.75,3.75,4.5,0.08,0.08,0.95,1111.88,-5.0,3.4
1.22,1.5,0.0,0.0,4.25,0.0,2.75,0.0,0.0,1.25,0.0,0.0,1.5,0.0,-0.05,0.27,1.58,86.31,8.4,24.3,5.0,2.25,5.75,7.5,8.5,6.25,4.25,5.25,3.5,6.25,5.0,3.5,4.5,0.08,0.08,0.95,1095.46,-4.9,3.3
1.24,2.5,1.0,5.0,5.75,3.75,2.75,4.25,3.25,3.5,3.0,2.75,2.5,1.5,-0.05,0.02,1.27,250.7,8.9,6.0,4.5,2.5,5.25,7.25,8.25,6.25,4.25,5.25,3.25,6.0,4.75,3.5,4.25,0.08,0.08,0.95,1063.74,-4.5,3.3
1.26,2.5,1.0,5.5,5.5,3.75,2.75,5.5,3.25,4.5,3.75,4.25,3.5,2.5,-0.05,-0.11,1.08,428.08,8.7,-3.3,4.5,2.0,4.75,7.25,8.0,6.0,4.25,5.0,3.0,5.75,4.75,2.75,4.0,0.08,0.08,0.95,1015.29,-4.5,4.1
1.28,2.25,1.0,5.5,5.0,3.0,3.5,5.5,4.5,4.5,4.25,5.0,3.75,2.5,0.02,-0.05,0.95,636.54,7.4,-8.3,4.5,2.0,4.75,7.25,8.0,6.0,3.75,4.5,2.75,5.5,4.0,2.5,3.5,0.08,0.08,0.95,956.86,-4.7,7.4
1.3,1.75,1.25,4.75,4.5,2.5,4.0,5.5,5.0,5.0,4.0,5.5,5.0,3.75,-0.05,-0.05,0.95,781.75,5.8,-16.9,3.75,2.0,4.75,6.75,8.0,6.0,3.5,4.25,2.25,4.5,3.25,2.0,3.0,0.08,0.08,0.95,880.35,-4.6,11.3
1.32,1.5,1.0,5.0,4.5,2.25,3.75,5.5,5.0,5.25,5.25,6.5,6.0,5.0,-0.05,-0.05,0.95,879.79,5.2,-24.6,2.5,1.75,4.5,5.75,7.75,5.25,3.0,3.75,1.75,3.25,2.5,1.25,1.5,0.08,0.08,0.95,762.14,-4.8,17.7
1.34,1.5,1.25,3.0,4.25,2.5,2.75,4.5,5.0,4.75,4.75,6.5,6.5,5.25,-0.05,-0.05,0.95,899.04,4.1,-29.7,0.5,1.5,2.75,0.0,7.25,2.25,2.25,3.0,1.25,3.25,2.5,1.0,1.25,0.14,0.14,1.08,567.07,-1.1,2.7
1.36,0.75,1.0,3.0,4.0,2.25,2.75,4.5,5.0,5.0,6.0,7.5,7.0,6.0,-0.05,-0.05,0.95,928.05,3.1,-36.8,1.25,0.5,1.75,4.5,6.25,1.5,1.5,2.75,1.25,3.25,1.75,0.5,1.25,0.08,0.14,1.27,419.29,-3.0,9.8
1.38,1.5,1.0,2.75,1.5,2.5,2.5,4.75,5.0,4.5,6.0,7.5,7.0,6.25,-0.05,-0.05,0.95,925.85,2.6,-40.3,0.25,0.0,0.75,1.25,3.75,0.0,0.5,1.75,0.5,1.0,0.25,0.25,0.5,0.39,2.08,1.58,260.88,-1.1,10.7
1.4,1.5,1.0,2.25,4.0,2.25,3.0,4.75,5.0,4.75,6.5,7.5,7.5,6.5,-0.05,-0.05,0.95,936.57,2.7,-37.7,0.5,0.0,0.5,1.0,3.75,0.0,1.0,1.5,0.5,1.25,0.25,0.25,0.5,0.7,2.14,0.58,155.11,-1.2,9.8
1.42,1.5,1.0,0.25,4.0,1.25,3.0,4.25,5.0,4.75,6.5,7.5,7.5,6.5,-0.05,-0.05,0.95,907.69,1.2,-44.1,0.25,0.0,0.5,3.0,4.75,0.0,1.25,1.5,1.0,1.25,0.25,0.25,0.5,-0.86,2.33,1.33,85.63,-3.2,17.2
1.44,1.5,1.0,2.0,4.0,0.0,3.0,3.25,5.0,4.75,6.5,7.75,7.5,6.5,-0.05,-0.05,0.95,878.89,2.4,-44.0,0.25,0.0,1.75,0.75,4.25,0.0,1.5,2.75,0.0,2.0,1.5,0.0,0.75,-0.61,2.45,0.45,71.84,-1.6,0.5
1.46,1.5,1.0,1.75,3.75,2.5,3.0,4.25,5.0,4.75,7.0,7.75,7.5,6.75,-0.05,-0.05,0.95,844.34,1.9,-39.7,0.5,0.0,0.75,0.5,2.5,0.0,0.75,1.5,0.0,0.5,0.25,0.25,0.25,-0.61,2.08,0.64,37.7,-3.2,15.2
1.48,1.5,1.0,1.75,3.75,2.5,3.0,3.75,5.0,4.75,7.25,8.25,7.75,7.0,-0.05,-0.05,0.95,827.27,1.7,-41.1,0.0,0.0,0.5,0.5,2.25,0.25,0.75,1.25,0.0,0.25,0.0,0.25,0.25,-0.55,1.64,0.64,12.22,0.0,15.3
1.5,1.5,1.0,1.75,4.0,2.5,3.0,3.75,5.0,4.75,7.25,8.5,8.25,7.0,-0.05,-0.05,0.95,846.97,1.9,-41.4,0.0,0.0,0.5,0.5,2.25,0.0,1.0,1.5,0.0,0.75,0.0,0.25,0.5,-0.36,1.2,0.64,0.0,0.8,2.1
1.52,1.5,1.0,2.0,4.0,2.5,3.75,3.75,5.0,5.0,7.5,8.75,8.25,7.5,-0.05,-0.05,0.95,880.08,1.6,-40.9,0.0,0.0,0.5,0.5,2.25,0.0,0.75,1.5,0.0,0.5,0.25,0.25,0.5,-0.17,0.77,0.64,0.0,0.4,1.8
1.54,1.5,1.0,1.25,3.25,2.25,3.5,3.75,5.0,4.5,8.0,8.75,8.5,8.0,-0.05,-0.05,0.95,901.19,0.7,-45.7,0.0,0.0,0.75,0.5,2.25,0.0,0.5,1.5,0.0,0.5,0.0,0.0,0.25,-0.11,0.45,0.58,8.44,-0.1,15.5
1.56,1.5,1.0,1.25,3.75,2.25,3.75,3.75,5.0,4.75,7.5,9.0,8.0,8.25,-0.05,-0.05,0.95,913.78,0.8,-44.0,0.0,0.0,0.5,0.5,1.75,0.0,0.5,1.5,0.0,0.75,0.25,0.25,0.5,0.02,0.14,0.52,35.13,1.4,-6.1
1.58,2.25,1.25,1.5,4.25,2.5,4.5,3.75,5.25,4.5,8.5,8.5,9.0,7.5,-0.05,-0.05,0.95,941.02,1.1,-39.6,0.0,0.25,0.5,0.5,2.25,0.0,0.5,1.5,0.0,0.5,0.0,0.25,0.5,0.08,0.02,0.39,60.95,0.9,7.7
1.6,1.5,1.0,0.5,3.5,2.5,3.75,3.25,5.75,4.5,8.5,9.25,9.0,8.25,-0.05,-0.05,0.95,956.01,-0.1,-47.3,0.0,0.0,0.5,0.5,1.5,0.0,0.5,1.5,0.25,0.25,0.0,0.0,0.25,0.14,-0.11,0.52,64.54,-0.2,8.8
1.62,1.5,1.0,0.25,3.25,2.5,3.75,3.0,5.75,4.25,8.75,9.25,9.0,8.75,-0.05,-0.05,0.95,970.82,-0.7,-49.1,0.0,0.0,0.5,0.5,1.75,0.0,0.5,1.25,0.25,0.5,0.0,0.0,0.5,0.14,-0.23,0.64,76.3,0.5,4.1
1.64,1.5,1.0,0.0,3.75,2.5,4.0,3.0,6.0,4.25,9.0,9.25,9.0,8.5,-0.05,-0.05,0.95,978.52,-0.9,-48.1,0.0,0.25,0.75,0.5,1.75,0.25,0.5,1.25,0.5,0.25,0.0,0.0,0.25,0.14,-0.36,0.77,76.56,-2.3,17.6
1.66,1.5,1.0,0.0,4.0,2.5,4.0,2.75,6.0,3.75,9.0,9.0,8.25,8.75,-0.05,-0.05,0.95,976.92,-1.2,-47.3,0.0,0.0,0.5,0.5,1.5,0.0,0.5,1.5,0.5,0.5,0.0,0.25,0.5,0.14,-0.42,0.7,78.58,0.1,-5.9
1.68,1.5,1.0,0.0,3.75,2.5,5.0,3.25,6.0,3.5,8.5,8.75,8.0,8.25,-0.05,0.02,0.95,957.46,-1.4,-45.0,0.0,0.0,0.5,0.5,1.5,0.0,0.5,1.25,0.5,0.25,0.0,0.0,0.5,0.14,-0.42,0.58,81.88,-0.8,3.3
1.7,1.5,0.75,0.0,4.0,3.5,3.5,2.75,6.0,2.5,6.5,7.75,6.75,8.0,-0.05,0.02,0.95,890.78,-1.1,-42.0,0.25,0.0,0.5,0.5,0.0,0.0,0.5,1.5,0.5,0.25,0.0,0.25,0.25,0.08,-0.73,0.27,79.77,-4.7,-14.2
1.72,0.0,0.0,0.0,1.25,2.25,2.75,1.75,5.25,2.0,6.0,6.0,5.75,6.5,-0.05,0.02,0.95,752.8,-3.9,-56.9,2.25,0.75,1.75,2.75,3.5,0.0,1.5,1.75,0.5,1.75,0.25,0.0,0.25,2.02,-2.55,2.08,139.36,-9.5,31.4
1.74,0.0,0.0,0.0,1.25,3.5,2.75,2.0,5.0,1.25,4.75,4.5,3.75,5.75,-0.05,0.02,0.95,597.66,-4.8,-46.6,6.0,1.75,4.75,5.5,1.25,1.75,3.0,1.5,0.75,1.5,0.25,1.0,1.25,0.7,0.33,2.2,243.86,-16.0,36.8
1.76,0.0,0.0,0.0,1.0,1.75,2.5,1.5,4.0,1.0,4.0,2.5,2.5,4.25,-0.05,0.02,1.02,427.15,-6.1,-47.6,7.0,2.0,7.5,7.25,4.5,2.25,2.75,1.5,1.0,1.75,0.5,1.0,1.25,-0.11,0.2,1.14,389.06,-15.5,41.1
1.78,0.0,0.0,0.0,0.0,0.0,1.25,0.25,3.25,1.0,2.0,1.25,2.0,2.5,-0.05,0.14,1.08,283.92,-7.6,-64.9,7.0,1.75,9.0,9.25,6.25,2.25,3.25,1.5,1.25,1.75,1.25,1.0,1.25,0.14,0.39,2.02,587.38,-15.5,40.4
1.8,0.0,0.0,0.0,0.0,0.0,0.75,0.0,1.75,1.0,2.0,1.0,2.0,0.5,-0.23,1.27,1.02,168.69,-4.9,-65.1,7.0,1.75,9.75,11.0,7.0,4.0,4.75,1.5,1.25,2.5,1.75,1.0,1.5,-0.05,0.2,1.58,799.22,-14.0,37.7
1.82,0.0,0.0,0.0,0.0,0.0,0.25,0.0,2.25,1.0,2.0,0.5,1.25,1.0,-0.17,2.2,0.77,71.01,-7.3,-67.4,6.0,0.0,9.75,9.25,8.25,2.25,6.25,2.5,0.75,1.0,0.25,0.25,0.5,0.02,0.14,1.27,887.81,-15.7,46.0
1.84,0.0,0.0,0.0,0.0,0.0,0.25,0.75,1.0,1.0,2.0,0.5,1.25,0.25,0.64,2.45,0.83,0.22,-2.6,-62.6,6.0,1.75,9.25,9.25,8.0,3.75,5.5,1.5,0.75,1.0,0.25,0.25,0.5,-0.05,0.14,1.08,930.99,-14.8,49.5
1.86,0.0,0.0,0.0,0.0,0.0,0.0,0.75,3.0,1.0,2.0,0.75,1.0,1.0,1.08,2.33,1.14,0.0,-6.1,-62.9,6.0,2.0,9.0,9.25,8.0,4.5,6.75,1.5,1.5,1.5,0.25,0.5,0.0,0.02,0.14,1.27,940.72,-14.3,47.4
1.88,0.75,1.0,0.25,0.75,0.0,0.5,0.5,1.25,1.25,2.75,1.0,1.0,1.25,0.39,2.02,1.14,0.0,0.8,-31.1,5.75,2.0,8.5,9.25,8.25,4.75,7.25,2.75,2.75,3.5,1.0,1.5,1.0,0.14,0.14,1.02,993.25,-11.3,31.4
1.9,0.5,0.75,0.25,1.25,1.75,1.25,1.0,3.0,1.0,3.0,1.25,2.0,1.0,-0.23,1.64,0.95,59.64,-1.6,-24.1,6.0,2.5,9.25,10.5,9.25,6.0,7.75,4.0,3.0,4.5,2.75,2.0,2.25,0.08,0.08,1.02,1116.44,-9.6,23.8
1.92,0.75,0.75,0.25,1.0,1.75,0.5,1.25,2.25,1.0,2.75,1.5,2.0,0.25,-0.36,1.08,1.08,106.66,1.6,-21.0,6.0,2.5,8.5,9.25,9.25,6.0,7.25,4.25,3.5,4.5,3.25,2.25,2.25,0.08,0.08,0.95,1217.75,-9.0,20.8
1.94,0.5,0.75,0.25,0.5,1.75,0.25,1.25,3.0,1.0,2.75,1.75,2.0,0.75,-0.3,0.64,1.2,153.54,-0.2,-30.6,5.5,2.5,8.5,9.25,9.0,6.0,7.25,4.25,3.25,4.75,3.5,2.25,2.25,0.08,0.08,0.95,1269.52,-8.8,19.6
1.96,0.5,0.75,0.0,0.0,0.0,0.25,0.75,1.25,1.0,2.5,0.5,2.0,1.25,-0.3,0.33,0.83,161.64,-1.0,-51.4,5.5,2.5,8.0,9.25,8.5,6.0,6.75,4.25,3.0,4.75,3.75,2.25,2.5,0.08,0.08,0.95,1242.67,-8.5,18.3
1.98,0.75,0.25,0.25,0.25,0.0,0.25,1.25,2.0,1.0,2.25,1.25,2.0,1.0,-0.36,0.2,0.77,168.64,1.3,-47.4,3.5,2.5,7.5,7.5,8.5,5.5,6.75,4.25,2.75,4.5,2.75,2.0,1.25,0.08,0.08,0.95,1143.02,-7.8,19.6
2.0,0.75,0.75,0.25,0.25,2.25,0.5,1.25,2.5,1.0,2.25,0.75,2.0,0.5,-0.17,0.08,0.77,181.71,0.1,-19.6,4.5,2.5,7.5,9.0,8.25,6.0,6.5,4.25,3.0,4.5,3.25,2.0,2.5,0.08,0.08,0.95,1084.67,-7.9,18.0
2.02,0.75,0.25,0.25,0.25,1.75,0.5,1.5,2.25,1.0,2.0,1.25,2.0,1.0,-0.05,-0.05,0.77,196.21,0.5,-30.3,3.25,2.5,7.25,8.0,8.0,6.0,6.25,4.25,3.0,4.75,3.25,2.25,2.5,0.08,0.08,0.95,1027.53,-6.9,14.4
2.04,0.75,0.5,0.25,0.5,1.75,1.0,1.25,2.25,1.0,2.25,1.25,2.0,0.75,0.02,-0.05,0.7,207.05,0.0,-24.4,3.25,2.5,6.5,7.5,8.0,6.0,5.75,4.25,3.0,4.75,3.5,2.5,2.5,0.08,0.08,0.95,994.65,-6.3,12.5
2.06,0.5,0.5,0.25,1.0,0.5,1.0,1.25,1.75,1.0,2.0,1.25,2.0,0.75,0.02,-0.17,0.58,204.27,1.3,-30.4,3.25,2.0,6.5,7.5,8.0,6.0,5.5,4.25,3.0,5.0,3.5,2.5,3.25,0.08,0.08,0.95,969.55,-5.9,9.7
2.08,0.5,0.0,0.25,1.25,1.25,0.75,1.25,2.25,1.0,2.0,1.0,2.0,0.5,-0.17,-0.3,0.58,199.46,0.8,-27.3,3.0,2.25,6.25,7.5,8.0,6.0,5.25,4.25,3.0,5.5,3.75,2.5,3.25,0.08,0.08,0.95,946.93,-5.4,8.4
2.1,0.75,0.25,0.25,1.0,2.25,1.0,1.25,2.0,1.0,2.0,1.75,2.0,1.25,-0.23,-0.36,0.58,201.77,0.6,-24.1,3.0,2.0,5.5,7.25,8.0,6.0,5.25,4.75,3.0,5.75,4.25,3.0,4.0,0.08,0.08,0.95,928.76,-4.5,3.2
2.12,0.5,0.0,0.25,1.0,1.75,0.75,1.25,2.25,1.0,2.0,1.75,2.0,0.5,-0.23,-0.36,0.45,200.88,0.8,-28.0,3.0,2.25,5.25,7.25,8.0,6.25,4.75,5.25,3.25,6.5,4.5,3.75,4.75,0.08,0.08,0.95,936.76,-3.7,-0.9
2.14,0.0,0.25,0.25,0.0,2.25,0.0,1.25,2.25,0.25,0.5,2.0,0.5,0.5,-0.11,-0.42,0.27,181.27,0.0,-20.1,3.0,2.0,5.25,7.25,8.0,6.0,4.5,5.5,3.25,7.0,4.75,4.0,5.0,0.08,0.08,0.95,957.87,-3.4,-3.4
2.16,1.5,1.0,0.25,1.25,2.5,0.75,0.0,1.0,1.0,1.75,0.25,2.0,1.0,-0.48,-2.42,2.39,186.81,2.9,-3.3,3.0,2.0,4.75,7.25,7.5,6.0,4.25,5.5,3.25,7.0,5.25,4.0,5.75,0.08,0.08,0.95,986.96,-3.0,-6.3
2.18,1.5,0.0,0.25,1.5,2.25,0.0,1.25,2.0,0.25,0.5,0.5,0.5,0.0,-0.61,-2.55,1.77,173.21,6.6,18.0,3.0,2.0,4.75,6.25,7.5,6.0,4.25,5.5,3.0,7.5,5.5,4.5,6.0,0.08,0.08,0.95,1005.47,-2.6,-9.2
2.2,2.25,0.0,2.0,3.0,1.75,0.0,0.5,1.25,0.5,0.5,0.5,0.5,0.25,-0.98,-0.11,3.39,182.12,14.6,30.9,3.0,2.0,4.75,6.0,7.5,6.0,3.75,5.75,3.0,7.5,5.5,5.25,6.25,0.08,0.08,0.95,1021.8,-2.3,-11.2
2.22,3.25,0.0,5.25,7.0,2.25,0.0,1.0,0.25,1.0,0.5,0.5,0.5,0.5,-0.17,0.08,1.7,226.33,20.3,43.9,2.0,2.0,4.5,5.75,7.25,6.0,3.75,6.0,3.0,7.75,5.5,5.25,6.75,0.08,0.08,0.95,1024.92,-1.4,-14.8
2.24,0.0,1.0,7.75,7.75,2.25,0.25,3.75,2.25,1.25,0.75,0.75,0.25,0.0,-0.05,0.14,1.45,287.91,17.7,36.4,1.75,1.75,3.5,5.5,7.0,6.0,3.25,6.0,2.5,7.75,5.5,5.25,7.0,0.08,0.08,0.95,996.89,-0.3,-18.0
2.26,3.25,1.0,7.75,8.25,5.75,1.25,6.0,1.0,1.0,0.0,0.5,0.5,0.0,0.02,0.02,1.39,385.7,18.1,49.2,2.0,1.75,2.75,5.5,6.5,6.0,2.75,5.75,2.5,7.75,5.0,5.0,7.0,0.08,0.08,0.95,959.37,0.1,-18.5
2.28,3.5,1.0,0.0,8.5,6.75,2.75,7.25,3.0,1.0,0.0,0.25,0.5,0.0,0.14,-0.05,1.33,460.37,8.6,41.2,1.5,1.25,3.5,4.5,6.25,6.0,2.25,5.5,1.75,7.0,4.5,4.0,6.5,0.08,0.08,0.95,885.63,0.4,-17.3
2.3,2.75,1.0,8.0,7.75,6.25,3.25,6.75,2.0,2.25,0.0,0.5,2.0,0.5,-0.05,0.02,1.2,567.05,14.2,35.1,1.75,1.25,2.25,3.25,5.75,4.0,2.25,5.25,1.25,6.5,2.75,2.75,6.0,0.08,0.08,0.95,761.29,1.3,-17.4
2.32,2.5,0.75,8.0,7.75,7.5,3.75,7.5,3.5,4.0,3.25,2.75,2.0,1.5,-0.05,0.02,1.02,698.14,9.9,16.0,0.5,0.0,1.75,2.0,5.0,4.75,1.5,4.25,0.75,4.75,2.5,1.0,4.75,0.08,0.08,0.95,591.86,4.3,-18.6
2.34,3.25,1.25,7.0,7.0,6.25,5.0,8.0,5.0,5.5,5.0,5.0,5.0,2.75,-0.11,-0.05,1.02,883.15,7.6,-0.9,0.25,0.0,0.5,1.0,2.25,2.5,0.75,3.0,0.5,3.25,0.5,0.75,2.0,0.08,0.08,0.95,379.5,6.8,-22.2
2.36,2.5,1.0,5.75,6.25,5.75,4.5,7.25,5.75,5.5,5.5,6.0,5.75,5.0,-0.05,-0.05,0.95,1034.99,5.5,-12.7,0.25,0.0,0.5,0.5,1.5,2.25,0.5,3.0,0.5,2.0,0.25,0.5,0.75,-0.05,0.2,1.33,236.9,7.1,-15.1
2.38,2.25,1.0,4.75,6.0,2.5,4.0,7.0,5.75,5.25,5.75,6.5,5.75,5.0,-0.05,-0.05,0.95,1092.11,5.4,-20.2,0.0,0.0,0.5,0.5,1.5,1.0,0.5,2.75,0.5,1.5,0.25,0.25,1.25,0.08,0.77,1.52,118.29,6.4,-22.1
2.4,1.5,1.0,4.25,6.0,2.5,4.0,6.75,5.5,5.0,5.75,6.0,6.0,5.25,-0.05,-0.05,0.95,1064.76,4.7,-22.7,0.0,0.0,0.5,0.5,1.25,0.0,0.5,2.25,0.5,1.5,0.25,0.25,0.5,0.39,2.52,0.83,29.37,3.2,-22.0
2.42,1.5,1.0,4.25,6.0,2.5,4.0,6.25,5.25,5.0,5.5,6.0,6.0,5.25,-0.05,-0.05,0.95,1006.51,4.7,-22.6,0.0,0.0,0.5,0.5,1.25,0.75,0.5,1.75,0.5,1.5,0.25,0.25,0.5,-1.05,2.52,0.89,0.0,4.1,-16.1
2.44,1.5,1.0,4.0,5.0,2.5,3.75,6.0,5.25,5.0,6.0,6.25,6.0,5.5,-0.05,-0.05,0.95,939.92,4.2,-26.0,0.25,0.0,0.5,0.5,0.25,0.5,0.5,1.75,0.75,1.5,1.25,0.25,0.5,-1.8,2.33,1.2,0.0,0.3,-31.8
2.46,1.5,1.0,3.0,4.5,3.0,3.75,5.75,5.0,4.75,6.0,6.5,6.0,5.75,-0.05,-0.05,0.95,880.8,3.2,-28.3,0.0,0.0,0.5,0.5,0.5,0.0,0.5,2.75,0.5,1.25,0.0,0.25,0.25,-0.86,2.39,0.95,0.0,3.8,-25.7
2.48,1.5,1.0,2.75,4.25,2.5,3.75,5.5,5.0,4.75,6.0,6.5,6.75,6.0,-0.05,-0.05,0.95,843.97,3.0,-31.7,0.5,0.0,0.5,1.75,0.25,2.25,0.5,1.5,0.75,2.5,0.0,1.0,0.5,-0.23,1.95,1.02,0.0,2.3,-13.9
2.5,1.5,1.0,1.75,4.25,2.5,3.75,5.25,5.25,4.75,6.5,6.5,6.75,6.5,-0.05,-0.05,0.95,816.04,1.8,-34.8,0.75,0.75,1.75,0.5,3.75,0.5,1.0,2.5,0.75,2.5,0.25,1.0,1.25,-0.05,1.39,1.08,68.96,-1.3,-2.0
2.52,1.5,1.0,1.75,4.0,2.5,3.75,5.0,5.5,4.5,7.25,7.0,7.25,6.5,-0.05,-0.05,0.95,809.78,1.5,-36.9,0.5,0.75,1.75,1.5,3.75,2.0,1.0,2.75,0.25,2.25,0.25,0.25,1.25,0.14,0.89,1.02,146.29,0.6,8.7
2.54,1.5,1.0,1.25,4.25,2.5,3.75,4.75,6.0,4.5,7.25,7.0,7.5,7.25,-0.05,-0.05,0.95,807.37,0.8,-38.9,0.75,0.75,1.75,1.25,3.75,1.25,1.0,2.75,0.5,3.0,0.0,1.0,1.25,0.39,0.45,0.89,209.36,-0.2,0.7
2.56,1.75,1.0,0.25,4.0,2.5,3.75,4.5,6.0,4.5,7.5,7.5,7.5,7.25,-0.05,-0.05,0.95,811.08,0.1,-41.2,0.5,0.75,1.75,1.25,3.75,2.25,1.0,2.5,0.75,2.0,0.25,1.0,1.25,0.33,0.27,0.7,250.94,0.0,4.2
2.58,1.75,1.0,0.0,4.25,3.0,4.0,4.75,6.0,4.5,7.5,7.5,7.5,7.5,-0.05,-0.05,0.95,827.6,0.0,-40.1,0.5,0.75,1.75,1.25,3.75,2.25,1.0,2.75,0.75,2.5,0.25,1.0,1.25,0.33,0.14,0.7,276.49,0.6,1.6
2.6,1.75,1.0,0.0,4.25,3.5,4.75,4.5,6.0,4.5,8.0,7.5,7.5,7.5,-0.05,-0.05,0.95,859.22,-0.5,-38.7,0.75,0.75,1.75,1.0,3.75,2.25,1.0,2.0,0.75,3.25,0.75,1.0,1.5,0.2,0.02,0.77,287.5,0.3,-2.5
2.62,1.5,1.0,1.25,4.25,3.0,5.0,4.75,6.25,4.5,7.75,7.5,7.5,7.25,-0.05,-0.05,0.95,889.62,0.2,-37.1,0.75,0.75,1.75,0.75,2.75,2.0,1.0,2.25,0.75,2.5,0.25,1.0,1.5,0.14,-0.11,0.64,285.13,0.0,-2.9
2.64,1.75,1.0,1.5,4.5,4.5,5.0,4.75,6.5,4.5,7.25,7.5,6.75,7.0,-0.05,-0.05,0.95,909.89,0.4,-31.6,0.5,0.75,1.75,1.25,3.5,2.0,1.0,2.0,0.5,2.0,0.25,0.0,1.25,0.08,-0.17,0.58,277.44,-0.1,11.6
2.66,0.5,0.25,1.75,4.0,4.5,4.0,4.75,6.25,3.75,7.25,7.0,6.25,7.0,-0.05,-0.05,0.95,891.8,-0.2,-36.5,0.5,0.75,1.75,1.25,0.25,2.25,0.75,2.0,0.75,2.5,0.25,1.0,1.25,0.08,-0.23,0.64,256.29,-0.6,-10.6
2.68,0.5,0.0,1.25,4.0,5.75,3.75,4.5,6.0,3.0,6.0,6.5,5.0,5.75,-0.05,0.02,0.95,830.79,-0.4,-31.1,0.75,0.75,1.75,1.0,3.5,2.0,1.0,2.0,0.5,2.0,1.25,1.0,1.25,-0.05,-0.42,0.77,253.56,-1.3,1.0
2.7,0.5,0.0,0.0,4.75,2.5,3.75,3.75,5.5,2.5,4.75,4.5,3.5,5.25,-0.05,0.02,0.95,702.79,-1.5,-33.1,1.5,0.75,1.75,2.0,3.5,2.0,1.0,2.0,0.75,1.75,0.75,1.0,1.25,0.89,-1.48,2.02,257.9,-3.4,9.7
2.72,0.0,0.0,0.0,1.0,2.25,2.5,2.5,3.75,1.0,2.75,1.0,2.0,2.5,-0.05,0.02,0.95,484.52,-5.2,-32.2,2.25,1.0,1.75,3.25,2.5,1.75,1.5,1.75,0.75,2.0,0.75,1.0,1.25,1.14,-1.98,0.52,269.89,-6.5,13.8
2.74,0.0,0.0,0.0,1.25,0.0,2.0,1.75,3.25,1.0,2.0,0.0,1.25,0.75,0.14,0.2,1.08,296.25,-5.4,-30.3,4.5,1.75,3.75,5.25,2.5,1.25,2.5,1.75,0.75,1.5,0.75,1.0,1.25,2.02,-3.11,2.95,306.91,-13.3,30.9
2.76,0.0,0.0,0.0,0.0,0.0,1.25,1.25,3.0,1.0,2.0,0.5,1.5,0.5,0.14,0.7,1.08,171.73,-6.4,-49.3,5.5,0.75,6.25,6.75,3.75,0.5,2.5,1.25,0.75,0.5,0.0,0.25,0.25,1.39,2.2,1.58,357.3,-19.3,52.4
2.78,0.0,0.0,0.0,0.0,0.0,0.5,0.75,2.5,1.0,2.0,0.75,1.25,0.5,-0.86,2.08,1.27,73.6,-5.5,-57.7,5.5,0.75,7.5,8.25,6.5,2.0,3.25,1.25,1.0,0.5,0.0,0.25,0.5,0.95,0.52,1.33,447.41,-16.1,50.4
2.8,0.0,0.0,0.0,0.0,0.0,0.25,0.75,1.5,1.0,2.0,0.5,1.25,0.5,-0.23,1.83,0.77,10.64,-3.9,-62.6,7.0,1.5,9.25,11.0,7.25,3.25,5.0,1.5,1.0,0.75,1.5,0.25,0.75,0.08,0.2,1.27,602.42,-15.8,46.9
2.82,0.0,0.0,0.0,0.0,0.0,0.0,0.75,1.5,1.25,1.25,0.5,0.75,0.5,0.33,2.2,0.64,0.0,-2.1,-60.0,6.0,0.25,8.75,9.25,7.75,2.75,5.75,1.5,0.75,1.0,0.25,0.25,0.5,0.02,0.2,1.2,705.6,-15.6,47.8
2.84,0.5,0.0,0.0,0.0,0.0,0.25,0.75,1.75,1.0,1.25,1.0,0.75,0.5,0.83,1.95,0.89,0.0,-0.6,-47.8,6.0,2.0,9.0,9.5,8.0,4.25,6.75,1.5,0.5,1.25,0.25,0.5,0.0,-0.17,0.08,1.2,803.83,-14.7,50.0
2.86,0.0,0.0,0.0,0.0,0.0,0.0,1.0,1.5,1.0,1.5,0.25,0.75,0.25,0.58,1.7,0.83,0.0,-2.7,-56.8,6.0,2.0,8.75,9.5,8.0,4.5,7.0,2.25,1.5,1.5,0.25,0.5,1.0,0.02,0.08,1.08,872.32,-13.2,42.9
2.88,0.0,0.0,0.0,0.0,0.0,0.75,1.0,1.0,1.25,3.0,1.0,2.0,0.5,0.08,1.58,0.77,0.0,-2.8,-63.0,5.75,2.5,8.5,11.0,8.25,6.0,7.75,2.75,2.75,3.5,1.5,1.0,1.5,0.14,0.08,1.02,986.84,-10.7,32.0
2.9,0.75,0.25,0.25,1.25,0.75,0.75,1.5,3.0,1.0,2.75,1.75,2.0,0.75,-0.23,1.14,0.83,64.85,0.5,-32.3,5.75,2.25,8.75,11.0,8.25,6.0,7.5,3.0,3.0,4.0,2.75,2.0,2.25,0.08,0.08,1.02,1093.15,-10.2,24.5
2.92,0.0,0.0,0.0,0.0,0.0,0.5,1.5,3.0,1.0,2.0,2.0,0.75,1.25,-0.36,0.83,0.89,114.01,-4.2,-57.3,6.0,2.5,8.5,10.5,8.0,6.0,7.75,4.25,3.25,4.25,2.5,2.0,2.0,0.08,0.08,0.95,1187.21,-9.7,23.5
2.94,0.0,0.0,0.25,0.75,0.0,0.25,1.75,2.5,1.0,1.75,1.75,1.25,0.75,-0.36,0.52,0.95,150.17,0.5,-47.3,5.75,2.5,8.5,9.25,9.25,6.0,7.25,4.5,3.0,4.5,3.0,2.0,2.25,0.08,0.08,0.95,1239.41,-8.8,21.6
2.96,1.25,0.0,0.25,1.0,1.75,0.5,1.75,2.75,1.0,2.0,1.75,2.0,1.25,-0.48,0.2,0.89,189.89,1.8,-26.9,5.5,2.5,8.0,9.25,9.25,6.0,7.25,4.25,3.0,4.25,2.75,2.0,2.5,0.08,0.08,0.95,1240.69,-8.5,21.5
2.98,0.75,0.0,0.25,0.5,0.0,1.25,1.75,2.5,1.0,2.25,2.0,2.0,0.5,-0.48,0.08,0.77,202.89,0.7,-40.1,5.0,2.5,7.5,9.25,9.25,6.0,6.75,4.25,3.0,4.25,2.75,1.75,2.25,0.08,0.08,0.95,1201.61,-8.1,21.6
3.0,0.25,0.75,0.25,0.75,1.75,1.25,1.75,2.5,1.0,2.0,1.75,2.0,0.75,-0.3,0.02,0.77,217.16,0.0,-24.0,4.5,2.5,7.5,9.0,9.0,6.0,6.75,4.25,2.75,4.0,2.75,1.5,2.5,0.08,0.08,0.95,1147.93,-7.9,21.3
3.02,0.25,0.25,0.25,1.25,1.75,1.0,1.5,2.75,1.0,2.0,1.75,2.0,0.5,-0.11,-0.05,0.83,225.02,0.1,-25.4,4.5,2.5,7.5,9.0,8.5,6.0,6.5,4.25,2.5,4.75,2.75,2.0,2.25,0.08,0.08,0.95,1095.1,-7.7,19.6
3.04,0.0,0.25,0.25,1.0,1.75,1.0,1.25,2.25,1.0,2.0,1.5,2.0,0.75,0.02,-0.05,0.77,226.89,-0.8,-29.5,3.75,2.5,6.75,8.5,8.5,6.0,6.25,4.25,2.75,4.75,2.75,2.25,2.5,0.08,0.08,0.95,1042.7,-6.8,16.4
3.06,0.5,0.25,0.25,0.25,2.25,0.5,1.25,2.25,1.0,2.0,1.5,2.0,0.75,0.08,-0.11,0.83,220.3,0.0,-28.9,3.0,2.5,6.5,7.75,8.25,6.0,5.75,4.25,3.0,4.75,3.5,2.5,3.0,0.08,0.08,0.95,1007.03,-6.1,11.5
3.08,0.0,0.0,0.25,0.0,2.25,0.25,1.25,2.5,1.0,2.0,0.75,2.0,0.5,0.08,-0.17,0.83,206.83,-2.2,-35.1,3.0,2.5,6.25,7.5,8.0,6.0,5.5,4.75,3.0,5.5,3.75,2.5,2.5,0.08,0.08,0.95,966.28,-5.6,10.0
3.1,0.0,0.75,0.25,1.0,2.25,0.25,1.25,2.5,1.0,2.0,1.5,2.0,0.5,0.02,-0.11,0.7,204.19,0.5,-23.6,3.25,2.25,6.0,7.5,8.0,6.0,5.5,5.0,3.0,5.75,4.0,2.75,4.0,0.08,0.08,0.95,950.41,-4.9,5.4
3.12,0.25,0.25,0.25,0.0,1.75,0.25,1.25,2.25,1.25,2.25,1.25,2.0,1.5,-0.23,-0.05,0.77,198.62,-1.4,-41.7,3.0,2.5,5.5,7.25,8.0,6.25,5.25,5.25,3.0,6.5,4.5,3.5,4.5,0.08,0.08,0.95,952.96,-4.0,0.8
3.14,0.5,0.5,0.25,1.25,1.25,0.25,1.25,2.25,1.0,2.0,1.75,2.0,0.5,-0.23,-0.05,0.95,198.22,2.5,-27.2,3.0,2.25,4.75,7.25,8.0,6.0,4.75,5.5,3.0,6.75,4.75,4.0,5.0,0.08,0.08,0.95,968.87,-3.3,-3.0
3.16,0.0,0.5,0.25,1.0,1.75,0.25,1.25,2.25,1.0,2.0,1.5,2.0,0.5,-0.3,-0.11,1.08,197.85,0.7,-28.8,3.0,2.0,4.75,6.75,8.0,6.0,4.25,5.5,3.0,7.0,4.75,4.0,5.5,0.08,0.08,0.95,981.71,-2.8,-5.2
3.18,0.0,0.0,0.25,0.0,1.75,0.0,1.25,1.0,0.5,0.75,1.75,0.5,0.5,-0.36,0.02,0.95,168.39,2.0,-27.2,3.0,2.0,4.75,5.75,7.75,6.0,4.25,5.5,3.0,7.25,5.25,4.5,6.0,0.08,0.08,0.95,988.92,-2.5,-8.9
3.2,0.0,0.0,0.0,0.0,0.0,0.0,0.5,1.0,0.5,0.75,0.25,0.5,0.5,-0.42,0.2,0.45,120.58,-3.9,-63.5,3.0,2.0,4.75,5.75,7.5,6.0,3.75,5.5,3.0,7.5,5.5,5.25,6.25,0.08,0.08,0.95,998.81,-2.4,-11.4
3.22,0.0,0.0,0.0,0.25,0.0,0.0,0.0,1.0,0.5,0.5,0.25,0.5,0.5,0.27,-1.86,3.58,77.34,-4.0,-59.8,2.5,2.0,4.0,5.75,7.0,6.0,3.75,5.75,2.75,7.75,5.5,5.25,7.0,0.08,0.08,0.95,998.74,-1.4,-15.1
3.24,0.25,0.0,0.25,0.75,0.5,0.0,0.5,1.0,1.0,2.0,0.25,1.0,0.5,-0.8,-2.98,2.08,67.54,0.7,-37.0,2.0,2.0,3.25,5.5,6.5,6.25,3.25,6.25,2.5,8.25,5.75,5.5,7.5,0.08,0.08,0.95,992.67,-0.1,-19.7
3.26,1.75,0.0,0.25,4.0,2.25,0.25,0.5,1.0,1.0,0.25,0.25,0.5,0.25,-0.8,-4.92,2.39,100.22,10.3,30.2,2.0,1.75,2.5,5.25,6.5,6.0,2.75,6.25,2.5,8.5,5.75,5.75,8.0,0.08,0.08,0.95,976.01,0.6,-23.2
3.28,3.75,1.0,5.75,7.25,4.25,3.0,4.75,2.5,2.0,0.75,0.25,0.0,0.5,-0.23,0.45,1.14,240.78,13.2,40.0,1.75,1.75,2.0,4.5,6.5,6.0,2.25,6.25,1.75,8.75,5.75,5.75,8.25,0.08,0.08,0.95,946.24,1.7,-26.0
3.3,3.75,1.25,6.5,7.0,6.25,3.5,7.5,3.25,4.75,3.25,2.75,3.5,2.0,0.08,0.02,1.58,439.13,9.9,10.3,1.5,0.5,2.0,3.25,5.75,6.0,2.0,6.25,1.5,9.0,5.5,5.75,8.5,0.08,0.08,0.95,898.71,2.9,-32.9
3.32,4.0,1.0,5.25,6.25,6.0,4.0,8.25,5.0,5.75,4.5,5.25,5.0,3.75,-0.11,-0.11,1.14,717.95,7.3,-5.3,1.5,0.5,1.75,2.75,5.5,6.0,1.5,6.25,1.25,8.5,4.75,5.25,8.5,0.08,0.08,0.95,837.34,3.7,-33.3
3.34,3.5,1.25,6.25,6.25,6.0,5.0,8.25,5.5,6.0,5.0,6.5,6.0,4.5,-0.05,-0.11,1.02,979.61,6.7,-9.0,1.25,0.0,1.75,3.25,3.75,5.75,1.25,6.25,1.25,8.5,4.5,5.0,8.25,0.08,0.08,0.95,770.64,3.9,-37.3
3.36,3.75,1.0,5.75,6.25,6.25,5.25,8.0,6.0,6.0,5.25,7.0,6.0,5.5,-0.05,-0.05,0.95,1176.85,5.8,-11.6,0.25,0.0,0.5,0.5,1.75,4.25,0.5,5.25,0.5,6.75,2.5,3.0,8.0,0.08,0.08,1.02,625.87,8.9,-53.7
3.38,3.25,0.25,5.25,5.75,6.0,4.75,7.75,6.0,6.0,5.5,7.25,6.75,5.5,-0.05,-0.05,1.02,1269.56,5.3,-17.0,0.0,0.25,0.5,0.5,2.75,1.25,0.5,4.25,0.5,5.25,0.25,1.75,5.75,0.02,0.14,1.2,453.88,8.7,-47.7
3.4,3.25,1.25,5.0,5.0,3.5,4.0,7.25,5.5,5.5,4.75,7.0,6.75,5.5,-0.05,-0.05,0.95,1255.23,6.1,-19.2,0.25,0.0,0.25,0.5,1.0,1.75,0.25,3.0,0.75,3.5,0.25,1.25,4.25,0.39,0.33,1.45,301.79,8.9,-50.1
3.42,2.25,1.0,4.0,4.5,2.5,3.75,6.75,5.0,5.0,4.5,6.5,6.5,5.5,-0.05,-0.05,0.95,1164.12,5.3,-24.5,0.25,0.0,0.5,0.5,0.5,1.75,0.5,2.5,0.25,2.5,0.25,0.5,2.25,1.14,0.7,1.89,193.35,8.1,-36.8
3.44,1.5,0.75,2.25,3.75,2.5,3.0,6.0,4.75,4.75,4.5,6.25,6.75,5.5,-0.05,-0.05,0.95,1026.51,3.8,-32.5,0.0,0.0,0.5,0.5,0.5,1.75,0.5,2.5,0.5,2.0,0.25,0.5,1.5,-0.11,2.64,0.08,100.55,7.8,-32.8
3.46,1.75,0.25,0.0,1.75,2.5,2.5,5.5,4.75,4.5,5.25,6.5,6.75,6.0,-0.05,-0.05,0.95,884.98,1.0,-45.1,0.0,0.0,0.5,0.5,1.0,1.5,0.5,2.25,0.5,1.5,0.25,0.25,1.25,-1.67,2.77,1.14,40.95,6.8,-23.1
3.48,1.5,0.0,1.75,2.0,2.25,2.25,4.75,4.5,4.0,5.5,6.5,7.5,6.5,-0.05,-0.05,0.95,783.72,2.1,-45.6,0.0,0.0,0.5,0.5,0.5,0.5,0.5,1.75,0.5,1.5,0.25,0.25,1.25,-1.3,2.08,1.45,3.33,4.5,-34.6
3.5,1.5,0.5,1.5,1.5,0.0,1.75,4.0,4.5,3.75,6.0,7.0,8.25,7.0,-0.05,-0.05,0.95,706.57,1.9,-55.4,0.0,0.0,0.5,0.5,0.25,0.25,0.5,1.75,0.5,1.5,0.25,0.5,0.75,-0.42,2.08,0.7,0.0,2.8,-37.7
3.52,1.5,0.75,0.5,1.5,1.75,1.75,3.25,4.75,3.5,6.5,7.5,9.0,8.0,-0.05,-0.05,0.95,673.32,0.3,-55.5,0.0,0.0,0.75,0.5,0.25,0.0,0.5,1.75,0.5,1.5,0.25,0.5,0.75,-0.11,1.64,0.89,0.0,0.7,-36.5
3.54,1.5,0.5,0.5,1.25,1.75,1.5,3.25,4.5,3.25,7.5,7.75,9.5,9.0,-0.05,-0.05,0.95,678.79,-0.1,-59.6,0.0,0.0,0.5,0.5,0.25,0.25,0.5,1.5,0.5,1.25,0.25,0.25,0.75,-0.11,1.02,1.14,0.0,2.2,-33.3
3.56,1.0,0.0,0.25,0.25,2.25,2.25,2.5,4.75,3.5,8.0,8.25,9.75,9.5,-0.05,-0.05,0.95,713.81,-1.8,-64.6,0.0,0.25,0.5,0.5,0.25,0.5,0.5,1.5,0.75,1.25,0.0,0.0,0.5,0.08,0.45,1.02,0.0,2.3,-17.8
3.58,1.25,0.5,0.25,0.5,2.25,2.5,2.5,5.0,3.25,8.5,8.75,11.0,10.0,-0.05,-0.05,0.95,772.5,-1.6,-63.0,0.0,0.0,0.5,0.5,0.25,0.5,0.5,1.75,0.5,1.25,1.25,0.25,1.5,0.02,0.08,1.14,31.22,2.8,-43.3
3.6,1.25,1.0,0.25,1.5,2.25,1.75,2.5,5.0,2.75,9.0,8.75,11.0,11.0,-0.05,-0.05,0.95,842.19,-1.3,-61.7,0.5,0.75,0.5,0.5,0.25,0.5,0.5,1.5,0.5,1.25,0.25,0.0,1.25,-0.05,-0.05,1.08,67.09,0.3,-13.5
3.62,0.75,0.75,0.25,1.25,0.0,2.75,2.25,5.0,2.75,9.5,8.75,11.0,11.0,-0.05,-0.05,0.95,894.47,-2.2,-68.5,0.5,0.25,0.5,0.5,0.0,0.5,0.5,1.5,0.5,1.0,0.0,0.0,0.5,-0.05,-0.05,0.95,82.15,-0.5,-8.9
3.64,1.25,0.0,0.25,1.0,0.0,2.0,2.0,5.5,2.75,9.5,8.75,11.0,11.0,-0.05,-0.05,0.95,925.91,-2.2,-71.4,0.0,0.0,0.5,0.5,0.0,0.5,0.5,1.5,0.5,2.75,0.25,1.0,0.5,0.02,-0.05,0.77,99.28,3.9,-46.6
3.66,1.25,1.0,0.25,1.25,0.0,1.75,1.75,5.75,1.5,8.5,8.75,9.75,11.0,-0.05,-0.05,0.95,918.01,-2.2,-67.6,0.5,0.75,0.5,1.0,0.0,2.25,0.5,1.5,0.5,1.5,0.25,0.0,0.75,0.02,-0.11,0.89,117.32,2.8,0.0
3.68,0.0,0.0,0.0,0.0,0.0,1.25,1.0,5.25,1.75,8.5,7.25,8.5,10.0,-0.11,-0.05,0.95,844.78,-4.7,-80.3,0.0,0.25,0.5,0.5,0.0,0.0,0.5,1.5,0.5,0.5,0.25,0.0,0.5,0.08,-0.11,0.89,107.06,-1.7,-20.0
3.7,0.0,0.0,0.0,0.0,0.0,1.75,0.75,5.5,1.25,9.25,7.0,8.25,10.0,-0.11,0.02,0.95,775.48,-5.6,-79.4,0.0,0.0,0.5,0.5,0.0,0.25,0.5,2.5,0.5,0.75,1.0,0.0,1.25,0.14,-0.11,0.89,109.5,3.1,-41.3
3.72,0.0,0.0,0.0,0.0,0.0,1.75,0.5,5.5,1.0,9.0,6.5,7.5,10.0,-0.11,0.02,0.95,704.95,-6.2,-79.5,0.0,0.0,0.5,0.5,0.25,0.25,0.5,2.75,0.5,2.75,1.5,1.0,1.75,0.27,-0.05,0.83,133.35,4.4,-54.6
3.74,0.0,0.0,0.0,0.0,0.0,1.5,0.25,5.0,1.0,8.5,6.25,7.5,9.75,-0.11,0.02,1.02,650.1,-6.0,-80.9,0.0,0.25,1.75,0.5,3.75,0.0,0.75,2.0,0.5,0.25,1.0,1.0,1.5,0.39,0.02,0.7,162.94,-3.3,-4.3
3.76,0.0,0.0,0.0,0.0,0.0,1.25,1.0,5.0,1.0,8.0,5.5,7.0,9.25,-0.11,0.02,1.2,593.54,-5.8,-79.9,0.0,0.25,1.75,1.5,3.25,2.0,0.75,1.5,0.75,1.75,0.25,1.0,0.5,0.58,-0.05,1.14,196.09,-1.0,6.4
3.78,0.0,0.0,0.0,0.0,0.0,1.0,0.0,4.5,1.0,7.0,4.5,6.75,9.0,-0.3,0.02,1.27,535.1,-6.3,-82.7,1.75,1.0,1.75,2.75,2.5,2.25,1.0,2.0,0.75,2.0,0.5,1.0,0.75,0.52,-0.92,1.7,239.45,-4.7,14.6
3.8,0.0,0.0,0.0,0.0,0.0,0.25,0.0,3.25,0.75,6.0,4.0,5.5,8.25,-0.36,0.08,1.7,454.57,-6.0,-86.4,3.0,1.25,2.25,3.25,3.25,1.75,1.25,1.75,0.75,2.0,1.5,1.0,1.25,1.33,-1.67,1.2,284.6,-7.7,16.9
3.82,0.0,0.0,0.0,0.0,0.0,0.25,0.0,3.0,0.5,4.75,2.5,4.5,7.0,-0.61,0.27,1.64,366.88,-6.9,-86.4,4.25,0.75,4.75,5.0,3.75,2.25,1.75,1.75,0.5,1.0,1.5,0.75,1.25,1.89,-3.8,1.64,346.67,-12.3,31.1
3.84,0.0,0.0,0.0,0.0,0.0,0.0,0.0,2.5,0.75,3.25,1.75,2.25,5.5,-0.67,0.14,1.33,282.12,-7.6,-84.9,3.0,0.75,6.25,5.75,3.75,2.25,3.75,2.0,0.75,1.0,1.0,0.25,0.75,0.27,0.39,1.7,408.74,-13.8,35.9
3.86,0.0,0.25,0.0,0.0,0.0,0.0,0.25,1.75,0.5,2.75,1.25,2.25,4.0,-0.36,0.33,0.77,212.38,-6.4,-81.5,4.75,1.0,7.5,5.75,5.75,2.5,0.0,1.5,0.0,1.5,0.0,0.75,0.5,-0.05,-0.11,1.64,478.41,-13.6,45.6
3.88,0.0,0.0,0.0,0.0,0.0,0.0,0.25,1.25,0.75,1.75,2.25,1.25,2.5,-0.55,2.27,-0.23,142.51,-3.6,-80.1,5.25,1.75,7.5,6.0,5.75,3.25,7.0,2.75,2.5,1.75,1.5,1.25,1.5,0.02,-0.05,1.27,592.9,-12.8,28.8
3.9,0.0,0.0,0.0,0.0,0.0,0.0,0.5,1.0,0.25,1.75,0.5,0.5,1.5,0.52,1.45,1.33,75.01,-7.8,-75.4,5.25,1.75,7.5,7.25,6.25,4.75,7.25,3.0,3.25,3.0,2.5,1.25,1.5,0.14,0.02,1.02,734.41,-10.9,24.1
3.92,0.0,0.0,0.0,0.0,0.0,0.0,0.5,1.25,0.5,1.75,0.5,0.25,0.5,0.39,1.2,1.2,23.37,-6.8,-62.9,5.25,1.75,8.0,7.25,6.5,4.5,7.5,3.0,3.5,3.25,2.75,1.5,1.5,0.08,0.08,0.95,867.93,-11.1,22.8
3.94,0.25,0.75,0.25,0.25,0.0,1.0,1.25,2.0,1.0,3.0,2.0,0.75,0.5,-0.3,1.2,0.83,26.28,-1.4,-36.5,6.0,2.5,7.75,8.25,6.75,5.5,7.75,4.25,4.5,4.75,3.75,2.5,3.0,0.14,0.08,0.95,1025.2,-9.1,14.1
3.96,0.0,0.0,0.0,0.0,0.0,0.0,0.5,2.25,0.25,3.0,2.0,2.0,1.5,-0.36,0.77,0.95,50.72,-5.0,-75.9,6.0,2.5,8.5,7.5,8.0,5.5,7.75,4.25,4.5,4.75,4.75,2.75,3.25,0.08,0.08,0.95,1158.54,-9.0,12.7
3.98,0.5,0.0,0.25,0.0,1.75,0.0,1.25,2.5,0.75,2.5,1.5,2.0,0.5,-0.23,0.39,1.02,88.8,-0.5,-39.3,5.5,2.5,8.25,7.25,7.25,4.75,7.5,4.25,4.5,5.25,4.75,3.0,3.0,0.08,0.08,0.95,1233.18,-9.0,10.3
4.0,0.5,0.5,0.25,0.0,1.25,0.5,1.25,2.5,1.0,2.75,1.75,2.0,1.5,-0.3,0.08,1.02,130.49,-1.4,-41.8,4.5,2.5,7.5,6.0,6.5,4.75,7.0,4.25,3.75,5.25,4.75,3.5,3.75,0.08,0.08,0.95,1221.5,-7.8,4.7
4.02,0.75,0.0,0.25,0.25,1.75,0.5,1.25,2.5,1.0,2.75,1.75,2.0,1.5,-0.36,-0.05,0.95,166.88,-1.1,-39.1,3.5,1.75,6.5,5.5,6.25,4.5,6.5,4.25,3.75,5.75,4.75,4.0,4.0,0.08,0.08,0.95,1154.22,-6.5,-2.0
4.04,0.5,0.25,0.25,0.25,2.25,0.5,1.25,2.5,1.0,2.0,2.0,2.0,1.25,-0.3,-0.05,0.77,191.65,-0.4,-33.1,3.0,1.75,6.0,4.75,5.75,4.5,5.25,4.25,3.0,6.0,4.75,4.0,4.75,0.08,0.08,0.95,1053.55,-5.2,-6.5
4.06,0.75,0.25,0.25,0.75,1.75,0.25,1.25,2.25,1.0,2.5,1.75,2.0,1.5,-0.17,-0.11,0.58,210.75,0.5,-34.2,2.25,1.75,4.75,3.25,5.0,4.5,3.75,4.25,3.0,6.5,4.75,5.25,5.5,0.08,0.08,0.95,944.65,-3.1,-17.4
4.08,0.75,0.25,0.25,0.25,1.25,1.0,1.25,2.25,1.0,1.25,2.0,1.5,1.5,-0.05,-0.17,0.77,215.96,0.1,-32.2,2.0,1.5,2.75,3.25,4.5,4.5,2.75,4.25,2.5,7.0,5.0,5.0,6.25,0.08,0.08,0.95,841.97,-0.7,-24.6
4.1,0.75,0.0,0.25,1.0,1.75,0.5,1.25,2.25,1.25,2.25,1.5,1.75,1.5,0.02,-0.17,0.7,221.13,0.3,-31.4,0.5,0.75,1.75,0.0,2.5,2.75,1.75,4.25,1.75,6.75,4.0,5.25,6.5,0.08,0.08,0.95,694.18,2.8,-48.6
4.12,0.5,0.0,0.25,0.25,1.25,0.75,1.25,2.25,0.75,2.0,1.5,1.75,1.5,-0.11,-0.11,0.7,216.45,-1.5,-40.3,0.5,0.25,1.0,0.5,1.75,3.0,1.5,4.25,1.5,7.25,3.75,5.25,7.0,0.08,0.08,0.95,574.61,4.3,-54.7
4.14,0.5,0.0,0.25,0.0,1.75,0.75,1.25,2.25,1.25,2.75,1.5,2.25,1.0,-0.23,-0.05,0.77,218.96,-1.4,-40.0,0.25,0.25,1.0,0.5,2.25,3.25,1.0,4.25,1.25,7.75,3.25,5.75,7.75,0.08,0.08,0.95,501.76,5.3,-55.9
4.16,0.0,0.0,0.25,0.25,0.0,0.75,1.75,2.75,1.0,2.25,1.75,1.75,1.0,-0.3,0.08,0.83,207.1,-1.9,-53.4,0.5,0.0,0.75,0.5,2.5,3.5,1.0,4.25,1.25,8.0,4.0,5.75,8.0,0.08,0.08,0.95,478.94,5.4,-56.3
4.18,0.75,0.5,0.25,0.0,0.0,0.0,1.5,1.75,0.25,3.5,1.75,1.75,1.0,-0.42,0.27,0.83,194.56,0.2,-50.9,0.0,0.0,0.5,0.5,1.75,4.25,1.0,5.0,1.25,8.5,4.75,5.75,8.5,0.08,0.08,0.95,486.42,6.6,-60.4
4.2,0.5,0.25,0.25,0.25,1.75,0.25,1.25,1.75,1.0,2.0,1.75,1.75,1.5,-0.55,0.52,1.02,189.76,0.3,-36.9,2.0,0.0,1.75,0.75,3.75,4.5,1.0,5.5,1.25,8.5,5.5,5.75,9.25,0.08,0.08,0.95,551.95,3.6,-45.6
4.22,0.75,0.25,0.25,0.0,1.25,0.25,1.25,1.75,1.0,2.0,2.0,2.0,1.25,-0.36,0.64,0.95,187.43,1.4,-41.0,0.25,0.0,0.75,0.5,1.5,4.5,0.5,5.5,1.0,8.5,4.5,5.75,8.75,0.14,0.08,0.95,580.36,6.8,-59.6
4.24,0.25,0.0,0.25,0.0,0.0,0.25,1.25,1.0,0.25,1.5,0.25,2.25,0.5,-0.61,-7.98,4.2,159.67,1.4,-59.3,0.0,0.0,0.5,0.5,0.5,4.5,0.5,5.5,0.5,8.5,4.0,5.75,8.75,0.14,0.08,0.95,586.79,7.9,-64.8
4.26,0.0,0.0,0.0,0.0,0.0,4.0,0.5,1.0,2.5,0.0,0.0,2.0,0.0,1.14,-5.36,3.33,142.89,-5.0,-22.9,0.0,0.0,0.5,0.5,1.0,4.5,0.5,5.5,0.5,8.75,3.75,5.5,9.0,0.14,0.08,0.95,579.38,8.2,-63.1
4.28,0.0,0.0,0.0,0.0,0.0,0.25,0.75,1.0,0.5,0.0,1.5,3.25,2.0,-0.11,-0.92,1.14,131.04,1.3,-82.7,1.25,0.0,0.0,0.5,0.25,4.5,0.25,5.5,0.5,8.75,3.5,5.25,9.25,0.14,0.08,0.95,573.28,8.0,-62.7
4.3,0.0,0.0,0.0,0.0,0.0,0.25,0.0,1.0,1.25,0.0,2.0,3.75,3.25,0.08,-0.05,1.08,143.99,0.0,-87.2,0.0,0.0,0.0,0.5,0.0,5.0,0.0,5.5,0.75,8.5,2.75,5.0,9.25,0.14,0.08,0.95,561.0,10.0,-66.9
4.32,0.0,0.0,0.0,0.25,0.0,2.25,3.25,3.75,2.0,0.5,4.0,6.0,5.5,0.02,0.02,0.89,222.31,-0.9,-66.2,0.0,0.0,0.0,0.5,0.25,2.5,0.0,5.25,0.5,8.5,2.5,4.75,9.25,0.14,0.08,0.95,540.83,9.5,-72.9
4.34,1.5,1.0,0.0,2.5,0.0,2.75,1.25,2.5,2.75,4.75,6.0,8.25,7.0,-0.05,0.02,1.02,344.17,0.5,-55.7,0.0,0.0,0.0,0.5,0.0,2.25,0.0,4.25,0.5,8.0,2.5,4.0,9.0,0.2,0.08,1.08,505.33,9.5,-74.8
4.36,1.5,1.0,0.25,1.5,0.0,2.75,1.25,3.25,3.5,7.0,8.75,9.5,8.25,-0.05,-0.11,1.02,535.59,0.0,-61.9,0.0,0.0,0.0,0.5,0.25,1.25,0.0,4.25,0.5,7.5,1.5,3.5,8.75,0.39,0.08,1.14,447.66,9.8,-76.1
4.38,1.25,1.0,1.75,1.5,2.25,2.5,2.5,4.5,3.5,6.75,9.25,9.75,9.0,-0.05,-0.05,1.02,743.17,0.7,-53.4,0.0,0.0,0.0,0.5,0.25,1.0,0.0,3.0,0.0,7.0,1.5,3.0,8.5,0.52,0.14,1.33,387.48,10.0,-78.8
4.4,1.5,0.0,0.0,0.25,2.5,1.25,2.5,5.0,2.75,6.5,9.25,9.75,8.75,0.02,-0.05,1.02,870.96,-0.7,-64.3,0.0,0.0,0.0,0.5,0.25,0.0,0.0,2.75,0.25,6.5,0.25,2.5,8.25,0.33,0.14,1.33,333.66,10.6,-82.9
4.42,0.75,0.25,0.0,0.0,0.0,1.5,0.25,3.25,1.75,7.5,9.25,10.5,10.0,0.02,-0.05,0.95,912.29,-2.3,-79.8,0.0,0.0,0.25,0.5,0.0,0.0,0.0,2.75,0.25,5.25,0.25,2.25,7.75,0.2,0.14,1.52,287.98,9.9,-82.4
4.44,1.5,0.0,0.25,0.25,0.0,1.25,0.0,3.0,1.75,7.25,9.25,10.5,10.0,-0.05,-0.05,1.02,903.18,-1.3,-77.6,0.0,0.0,0.25,0.5,0.0,1.0,0.0,1.75,0.25,4.25,0.25,1.0,6.5,0.27,0.14,1.45,244.76,11.0,-74.4
4.46,0.75,0.0,0.25,0.0,0.0,0.25,0.0,3.0,1.75,7.25,9.25,11.0,10.0,-0.11,0.02,0.95,880.87,-1.4,-84.1,0.0,0.25,0.0,0.5,0.0,0.25,0.0,1.75,0.5,3.0,0.25,1.0,5.0,0.27,0.14,1.08,202.24,9.7,-74.5
4.48,1.0,0.0,0.5,0.0,0.0,0.25,0.0,3.0,1.25,7.25,8.75,11.0,10.0,-0.05,-0.05,1.02,853.43,-1.2,-82.8,0.0,0.25,0.5,0.5,0.0,0.25,0.0,1.75,0.5,2.0,0.25,0.5,3.25,0.08,0.52,0.83,150.51,6.7,-59.1
4.5,1.25,0.0,0.25,0.0,0.0,1.25,0.0,2.5,1.0,7.5,8.5,10.5,10.0,-0.11,-0.05,1.2,816.89,-1.9,-80.6,0.0,0.25,0.5,0.5,0.0,0.75,0.0,1.5,0.5,1.75,0.25,0.5,2.25,-0.55,1.52,0.27,105.18,6.3,-48.3
4.52,1.25,0.0,0.25,0.0,0.0,1.0,0.0,2.25,1.0,6.5,7.5,11.0,10.0,-0.17,-0.23,1.2,766.45,-1.5,-82.1,0.0,0.0,0.25,0.5,0.0,0.25,0.0,1.5,0.5,1.5,0.25,0.25,1.5,-0.11,1.27,0.39,65.17,6.9,-53.7
4.54,1.0,0.0,0.5,0.0,0.0,1.25,0.25,2.25,1.0,6.5,7.5,11.0,10.5,-0.11,0.02,0.89,718.77,-1.7,-81.6,0.0,0.25,0.0,0.5,0.0,0.5,0.0,1.5,0.5,1.5,0.25,0.5,1.25,-0.05,1.08,0.45,44.79,7.6,-49.1
4.56,1.25,0.0,0.25,0.0,0.0,1.25,0.0,1.75,1.0,6.0,7.0,11.0,10.5,-0.11,-0.17,1.2,662.46,-1.6,-82.5,0.0,0.25,0.5,0.5,0.0,0.25,0.25,1.5,0.5,1.5,0.25,0.25,1.25,1.45,-1.61,0.52,37.46,3.6,-40.2
4.58,1.0,0.25,0.25,0.25,1.75,1.25,0.0,1.75,0.75,6.0,6.5,9.75,10.5,-0.05,0.02,1.02,623.67,-2.2,-74.1,0.0,0.25,0.5,0.5,0.0,0.25,0.5,1.5,0.5,1.5,0.25,0.25,1.25,1.2,-2.86,2.27,41.59,3.0,-39.1
4.6,1.0,0.0,0.25,0.0,0.0,0.75,0.0,1.5,1.0,5.75,6.25,9.75,10.0,-0.23,-0.11,1.14,579.81,-1.8,-84.3,0.0,0.25,0.5,0.5,0.0,0.0,0.5,1.5,0.5,1.5,0.25,0.25,1.25,-0.23,0.83,0.02,48.78,2.3,-41.6
4.62,1.0,0.0,0.25,0.0,0.0,0.75,0.5,1.25,1.0,5.5,6.0,9.75,10.0,-0.42,-0.3,1.27,550.82,-1.4,-84.0,0.0,0.25,0.5,0.5,0.0,0.0,0.5,1.5,0.5,1.25,0.25,0.0,1.25,1.02,-0.73,0.89,55.66,2.2,-37.6
4.64,1.25,0.0,0.25,0.0,1.25,0.5,0.5,1.25,1.0,4.75,5.25,9.0,9.75,-0.48,-0.23,1.08,523.34,-1.2,-77.5,0.0,0.25,0.25,0.5,0.0,0.0,0.5,1.5,0.5,1.25,0.25,0.0,1.25,0.7,-1.61,1.39,61.49,3.9,-41.8
4.66,0.0,0.0,0.5,0.0,0.0,0.0,0.5,1.25,0.25,3.25,5.0,7.75,9.25,-0.55,-0.73,1.33,466.45,-1.8,-91.5,0.0,0.0,0.5,0.5,0.0,0.0,0.5,1.5,0.5,1.0,0.25,0.25,1.25,0.08,-0.11,0.2,67.44,1.8,-44.8
4.68,0.0,0.0,0.0,0.0,0.0,0.0,0.0,1.0,0.25,3.25,3.5,7.5,7.25,-0.48,-0.61,1.2,392.78,-2.8,-95.9,0.0,0.0,0.0,0.5,0.0,0.0,0.5,1.25,0.5,1.25,0.25,0.0,0.5,0.39,-0.3,0.27,67.11,4.9,-44.2
4.7,0.0,0.0,0.0,0.0,0.0,0.0,0.0,1.0,0.25,2.25,2.75,6.25,6.5,-0.42,-0.3,1.08,323.27,-2.9,-96.3,0.0,0.25,0.5,0.5,0.0,0.0,0.5,1.5,0.5,1.25,0.25,0.0,1.25,0.45,-0.42,0.52,75.11,2.2,-37.6
4.72,0.0,0.0,0.0,0.0,0.0,0.0,0.5,0.0,0.25,2.0,0.0,5.5,3.5,-0.42,-0.92,1.45,246.44,-1.8,-99.5,0.0,0.0,0.25,0.5,0.0,0.0,0.5,1.25,0.5,0.5,0.25,0.0,0.75,0.64,-0.48,0.45,71.06,0.9,-36.4
4.74,0.0,0.0,0.0,0.0,0.0,0.0,0.5,1.0,0.25,0.25,2.5,3.25,5.25,-0.36,-1.36,1.7,190.09,-2.2,-93.2,0.0,0.25,0.25,0.25,0.0,0.0,0.5,1.25,0.5,0.75,0.25,0.0,0.75,0.7,-0.61,0.7,69.42,2.0,-36.3
4.76,0.0,0.0,0.0,0.0,0.0,0.0,0.5,1.0,0.25,0.5,0.5,2.0,2.5,-0.48,-1.67,1.52,119.54,-3.7,-87.7,0.0,0.25,0.5,0.5,0.0,0.0,0.5,1.25,0.5,0.75,0.25,0.0,0.5,0.89,-0.73,0.52,66.38,-1.7,-21.9
4.78,0.0,0.0,0.0,0.0,0.0,0.0,0.5,0.5,0.25,0.5,0.5,2.25,1.75,0.02,-0.92,1.95,66.61,-0.8,-89.9,0.0,0.0,0.5,0.5,0.0,0.0,0.5,1.25,0.5,0.5,0.25,0.0,0.5,1.39,-0.98,0.39,63.01,-2.1,-26.1
4.8,0.5,0.0,0.25,0.0,0.0,0.5,0.5,1.0,0.5,2.0,2.0,2.5,0.5,-0.11,-0.92,2.39,47.45,1.7,-60.8,0.0,0.25,0.5,0.0,0.25,0.0,0.25,1.0,0.5,0.25,0.0,0.0,0.5,1.95,-1.23,0.45,55.86,-1.2,-16.7
4.82,0.25,0.0,0.75,0.0,0.0,0.25,1.25,1.0,0.25,2.0,1.75,2.25,2.5,-0.17,-0.86,2.33,63.0,0.8,-65.6,0.0,0.0,0.0,0.0,1.25,0.0,0.5,1.0,0.25,0.25,0.25,0.0,0.5,2.02,-1.11,1.45,53.58,4.8,-14.7
4.84,0.75,0.0,0.25,0.0,0.0,0.5,1.25,1.0,0.5,1.25,2.0,1.75,2.25,-0.05,-0.48,2.2,81.91,1.5,-58.2,0.0,0.25,0.5,0.5,0.25,0.0,0.5,1.0,0.25,0.25,0.25,0.0,0.5,1.95,-0.86,1.52,53.77,-4.0,-8.0
4.86,0.75,0.0,0.25,0.0,0.0,0.25,1.25,1.0,0.5,2.0,2.0,2.0,1.75,0.45,-1.17,1.2,102.73,1.8,-60.1,0.0,0.0,0.25,0.25,0.25,0.0,0.5,1.0,0.25,0.0,0.25,0.0,0.5,1.52,-0.48,1.95,49.61,-0.9,-23.0
4.88,0.5,0.0,0.0,0.25,0.0,0.5,1.0,0.75,0.5,0.5,0.5,1.25,0.5,0.45,-1.86,0.83,91.22,3.5,-39.8,0.0,0.0,0.5,0.5,0.25,0.0,0.5,1.0,0.5,0.0,0.25,0.0,0.5,1.02,-0.3,2.27,50.53,-5.3,-12.8
4.9,0.0,0.0,0.0,0.0,0.0,0.0,1.25,1.0,0.25,0.5,0.75,1.25,0.5,-0.67,-2.23,0.64,77.09,1.9,-65.7,0.0,0.0,0.5,0.5,0.25,0.0,0.5,1.0,0.5,0.0,0.0,0.0,0.5,0.83,-0.36,2.02,50.33,-4.9,-8.5
4.92,0.0,0.0,0.0,0.0,0.0,0.0,1.25,1.0,0.25,0.5,1.5,1.25,1.5,-1.67,-1.17,0.2,72.52,0.5,-73.7,0.0,0.25,0.5,0.25,0.25,0.0,0.5,1.0,0.5,0.25,0.25,0.0,0.5,0.77,-0.98,0.83,54.26,-3.7,-14.1
4.94,0.0,0.0,0.0,0.0,0.0,0.0,1.25,0.75,0.25,0.5,0.25,1.0,0.5,-1.48,-0.67,0.45,63.8,1.6,-63.4,0.0,0.25,0.5,0.5,0.25,0.0,0.5,1.0,0.25,0.25,0.0,0.0,0.5,0.77,-1.61,-0.23,55.18,-3.6,-3.7
4.96,0.0,0.0,0.0,0.0,0.0,0.0,1.0,0.25,0.25,0.5,0.25,1.0,0.5,-0.92,-0.42,0.95,57.08,3.3,-70.6,0.0,0.0,0.25,0.5,0.25,0.0,0.5,1.0,0.25,0.25,0.25,0.0,0.5,0.64,-1.3,-0.11,56.91,-0.9,-20.7
4.98,0.75,0.0,0.25,0.25,1.25,0.75,1.5,1.0,0.75,2.0,1.5,2.0,1.0,0.33,-0.8,1.08,91.68,1.7,-35.6,0.0,0.0,0.5,0.25,0.25,0.0,0.5,1.0,0.25,0.0,0.25,0.0,0.5,0.52,-0.67,0.89,54.08,-3.8,-16.4
5.0,0.5,0.0,0.5,0.25,0.75,0.75,1.75,1.0,0.5,0.5,1.75,0.75,1.5,-0.42,-0.61,0.7,114.86,3.5,-30.0,0.0,0.0,0.25,0.5,0.5,0.0,0.5,1.0,0.25,0.25,0.25,0.0,0.5,0.39,-0.3,1.08,54.7,-0.6,-15.1
5.02,0.0,0.0,0.0,0.25,0.0,0.75,1.0,0.25,0.5,2.0,1.5,2.0,1.25,0.33,-0.8,0.77,132.63,-1.1,-66.9,0.0,0.0,0.5,0.5,0.25,0.0,0.25,1.0,0.25,0.0,0.25,0.0,0.5,0.33,-0.42,0.95,54.3,-3.8,-12.3
5.04,0.75,0.0,0.25,0.25,0.0,0.5,1.25,1.0,0.5,0.5,1.5,2.0,1.25,0.58,-0.67,0.64,135.31,4.9,-48.0,0.0,0.0,0.5,0.5,0.5,0.0,0.5,1.0,0.25,0.0,0.25,0.0,0.5,0.27,-0.23,0.89,56.78,-4.2,-6.1
5.06,0.75,0.0,0.25,0.25,0.0,0.75,1.25,1.5,0.5,2.0,1.5,2.0,1.5,0.77,-0.8,0.83,151.65,0.3,-50.9,0.0,0.0,0.5,0.5,0.25,0.0,0.5,1.0,0.25,0.0,0.25,0.0,0.5,0.14,-0.48,0.95,56.3,-4.8,-11.0
5.08,0.5,0.0,0.25,0.25,0.0,0.75,1.5,1.0,0.5,2.0,1.5,2.0,1.25,0.39,-0.86,0.33,158.72,1.0,-52.4,0.0,0.0,0.5,0.5,0.25,0.0,0.5,1.0,0.25,0.0,0.0,0.0,0.5,0.08,-0.67,0.77,55.51,-4.4,-6.3
5.1,0.5,0.25,0.75,0.25,0.75,0.5,1.25,1.0,0.5,1.75,1.5,2.0,1.0,0.08,-0.98,-0.11,170.22,3.5,-36.6,0.0,0.0,0.25,0.25,0.25,0.0,0.5,1.0,0.25,0.0,0.25,0.0,0.5,0.2,-0.55,0.58,52.01,-0.9,-23.0
5.12,0.5,0.0,0.25,0.5,0.0,1.0,1.25,0.5,0.5,2.0,1.5,1.75,1.0,-0.11,-1.05,-0.23,173.1,1.6,-46.2,0.0,0.0,0.25,0.5,0.25,0.0,0.5,1.0,0.25,0.0,0.0,0.0,0.5,0.2,-0.48,0.33,48.75,-1.5,-11.9
5.14,0.75,0.25,0.25,0.5,1.75,0.25,1.5,1.0,0.5,2.0,1.5,2.0,1.0,-0.17,-0.92,-0.3,178.71,2.7,-29.4,0.0,0.0,0.25,0.0,0.0,0.0,0.5,1.0,0.25,0.25,0.0,0.0,0.5,0.27,-0.73,-0.11,43.95,2.8,-40.4
5.16,0.5,0.0,0.75,0.5,1.25,0.25,1.5,1.0,0.5,2.0,1.5,2.0,1.25,-0.11,-0.8,-0.3,180.9,3.3,-36.3,0.0,0.0,0.5,0.5,0.5,0.0,0.5,1.0,0.5,0.0,0.25,0.0,0.5,0.33,-0.86,-0.17,48.95,-4.7,-8.1
5.18,0.5,0.25,1.25,0.25,0.0,0.25,1.5,1.0,0.5,2.0,1.25,2.0,1.0,0.02,-0.73,-0.3,180.5,6.0,-40.1,0.0,0.0,0.5,0.5,0.25,0.0,0.5,1.0,0.25,0.0,0.0,0.0,0.5,0.39,-0.86,-0.23,50.48,-4.4,-6.3
5.2,0.5,0.0,0.5,0.5,1.25,0.25,1.75,1.0,0.5,2.0,1.25,2.0,1.25,0.02,-0.61,-0.3,178.53,2.7,-37.0,0.0,0.0,0.25,0.25,0.25,0.0,0.5,1.0,0.25,0.0,0.0,0.0,0.25,0.39,-0.86,-0.23,48.8,-1.5,-9.2
5.22,0.5,0.0,0.0,1.0,0.5,0.5,1.5,1.0,0.5,2.0,1.5,2.0,1.0,0.08,-0.36,-0.36,171.3,1.9,-42.4,0.0,0.0,0.5,0.25,0.25,0.0,0.5,1.0,0.0,0.0,0.25,0.0,0.5,0.27,-0.86,-0.05,46.87,-3.1,-14.6
5.24,0.5,0.5,0.0,1.0,0.0,0.5,1.5,1.0,0.5,2.0,1.25,2.0,0.75,0.14,-0.17,-0.42,168.28,2.9,-38.4,0.0,0.0,0.5,0.5,0.25,0.0,0.5,1.0,0.25,0.0,0.0,0.0,0.25,0.2,-0.73,0.02,45.93,-5.9,2.3
5.26,0.75,0.25,0.25,0.75,0.0,0.25,1.5,1.0,0.5,2.0,1.25,2.0,0.75,0.14,0.08,-0.42,161.68,4.5,-40.3,0.0,0.25,0.0,0.5,0.25,0.0,0.5,1.0,0.25,0.0,0.0,0.0,0.0,0.14,-0.67,-0.11,43.74,-2.0,11.5
5.28,0.5,0.25,0.25,1.0,0.75,0.25,1.5,1.0,0.5,2.0,1.25,2.0,1.25,0.14,0.33,-0.55,163.06,2.8,-37.0,0.0,0.0,0.5,0.5,0.25,0.0,0.25,1.0,0.25,0.0,0.25,0.0,0.0,0.02,-0.55,-0.17,44.0,-6.9,4.7
5.3,0.5,0.25,0.0,0.5,0.0,0.25,1.75,0.5,0.5,2.25,1.0,2.0,1.0,0.14,0.58,-0.73,155.3,2.7,-50.2,0.0,0.0,0.5,0.5,0.25,0.0,0.5,1.0,0.0,0.0,0.25,0.0,0.25,-0.11,-0.36,-0.23,45.71,-5.8,-0.5
5.32,0.5,0.25,0.25,1.0,0.75,0.25,1.5,1.0,0.5,2.0,1.25,2.0,0.75,0.14,0.64,-0.86,157.4,3.5,-33.7,0.0,0.0,0.0,0.5,0.5,0.0,0.5,1.0,0.25,0.0,0.25,0.0,0.25,-0.17,-0.23,-0.23,46.96,0.0,-8.7
5.34,0.5,0.0,0.25,0.75,0.75,0.25,1.5,1.0,0.5,2.0,1.5,2.0,0.75,0.08,0.64,-0.92,157.13,3.1,-39.9,0.0,0.0,0.25,0.5,0.25,0.0,0.5,1.0,0.25,0.0,0.25,0.0,0.25,-0.3,-0.23,-0.36,47.55,-3.5,-8.7
5.36,0.5,0.5,0.75,1.0,0.0,0.25,1.5,1.0,0.5,2.0,1.25,2.0,1.0,0.08,0.64,-0.98,160.46,5.4,-34.8,0.0,0.0,0.5,0.5,0.25,0.0,0.5,1.0,0.25,0.0,0.0,0.0,0.25,-0.36,-0.17,-0.42,48.3,-5.9,2.3
5.38,0.5,0.5,0.25,0.5,0.0,0.25,1.25,1.0,0.25,2.0,1.25,2.0,0.5,0.08,0.52,-1.11,152.9,3.5,-41.6,0.0,0.0,0.25,0.25,0.25,0.0,0.5,1.0,0.25,0.0,0.25,0.0,0.25,-0.36,-0.11,-0.55,46.6,-2.3,-15.0
5.4,0.75,0.0,0.25,1.0,0.0,0.25,1.5,0.5,0.5,2.0,1.25,2.0,0.5,0.02,0.45,-1.11,148.8,6.2,-39.6,0.0,0.25,0.5,0.5,0.25,0.0,0.5,1.0,0.25,0.0,0.0,0.0,0.0,-0.42,-0.05,-0.61,46.82,-8.1,19.8
5.42,0.5,0.25,0.75,1.0,1.25,0.25,1.5,1.0,0.25,2.0,1.25,2.0,0.5,0.08,0.33,-1.05,152.57,4.9,-23.6,0.0,0.0,0.25,0.5,0.25,0.0,0.5,1.0,0.25,0.0,0.25,0.0,0.0,-0.48,0.02,-0.73,46.64,-5.1,0.5
5.44,0.5,0.0,0.0,0.75,0.5,0.25,1.5,1.0,0.5,2.0,1.25,2.0,0.5,0.08,0.14,-0.98,150.63,2.7,-42.5,0.0,0.0,0.5,0.5,0.5,0.0,0.5,1.0,0.0,0.0,0.0,0.0,0.25,-0.48,0.08,-0.86,48.5,-4.5,10.3
5.46,0.5,0.25,0.5,1.0,0.5,0.25,1.5,1.0,0.5,2.0,1.25,2.0,0.75,0.02,0.02,-0.98,155.95,4.5,-33.8,0.0,0.0,0.5,0.0,0.5,0.0,0.5,1.0,0.25,0.0,0.25,0.0,0.25,-0.42,0.14,-0.98,48.11,-3.5,-8.4
5.48,0.75,0.25,0.25,1.0,0.0,0.25,1.25,1.0,0.25,2.0,1.5,2.0,0.5,0.02,0.02,-0.98,154.72,4.9,-37.7,0.0,0.0,0.0,0.0,0.25,0.0,0.25,1.0,0.25,0.0,0.25,0.0,0.0,-0.36,0.27,-1.11,42.22,4.3,-25.1
5.5,0.25,0.0,0.25,1.25,0.75,0.25,1.5,1.0,0.25,2.0,1.25,2.0,0.5,0.02,-0.05,-0.98,154.88,3.2,-35.6,0.0,0.0,0.25,0.5,0.5,0.0,0.5,0.75,0.25,0.0,0.25,0.0,0.0,-0.36,0.39,-1.11,41.79,-6.2,9.4
5.52,0.5,0.25,0.25,0.75,0.0,0.25,1.5,1.0,0.25,2.0,1.5,2.0,0.5,0.08,-0.11,-0.98,150.36,4.2,-42.7,0.0,0.0,0.25,0.5,0.25,0.0,0.5,1.0,0.25,0.0,0.25,0.0,0.0,-0.36,0.45,-1.17,40.75,-5.1,0.5
5.54,0.25,0.25,1.0,1.0,1.75,0.25,1.5,1.0,0.25,2.0,1.25,2.0,0.5,0.08,-0.17,-0.86,159.85,4.6,-20.6,0.0,0.0,0.5,0.5,0.25,0.0,0.5,1.0,0.0,0.0,0.0,0.0,0.0,-0.42,0.52,-1.23,41.46,-7.3,17.5
5.56,0.25,0.0,0.25,1.25,0.75,0.25,1.25,0.75,0.25,2.0,1.5,2.0,0.5,0.08,-0.23,-0.8,158.19,3.5,-37.2,0.0,0.0,0.25,0.5,0.25,0.0,0.5,0.75,0.0,0.0,0.25,0.0,0.0,-0.48,0.52,-1.17,39.7,-6.8,9.0
5.58,0.5,0.25,0.25,1.0,0.0,0.25,1.25,1.0,0.25,2.0,1.25,2.0,0.75,0.08,-0.3,-0.8,157.54,3.6,-41.8,0.0,0.0,0.5,0.5,0.25,0.0,0.5,0.5,0.25,0.0,0.25,0.0,0.0,-0.48,0.45,-1.11,40.09,-12.8,14.3
5.6,0.5,0.5,0.5,1.0,0.0,0.25,1.25,1.0,0.25,2.0,1.0,2.0,0.5,0.02,-0.42,-0.73,152.62,4.9,-33.0,0.0,0.25,0.5,0.5,0.25,0.0,0.5,0.25,0.25,0.0,0.25,0.0,0.0,-0.55,0.33,-1.05,39.97,-15.6,28.0
5.62,0.75,0.0,0.5,1.0,0.75,0.25,1.25,1.0,0.25,2.0,1.25,2.0,0.5,-0.05,-0.48,-0.67,153.27,4.7,-30.5,0.0,0.0,0.5,0.5,0.25,0.0,0.5,0.5,0.0,0.0,0.25,0.0,0.0,-0.61,0.27,-0.86,39.18,-12.8,19.9
5.64,0.5,0.0,0.25,1.0,0.0,0.25,0.75,1.0,0.25,2.0,1.25,2.0,0.5,-0.05,-0.48,-0.61,147.09,3.1,-45.6,0.0,0.0,0.0,0.5,1.25,0.0,0.5,0.75,0.25,0.0,0.0,0.0,0.0,-0.61,0.2,-0.73,43.54,-0.7,23.6
5.66,0.75,0.25,0.5,1.0,0.75,0.25,1.5,1.0,0.25,2.0,1.25,2.0,0.75,0.2,-0.42,-0.55,151.57,4.7,-28.8,0.0,0.25,0.5,0.5,0.0,0.0,0.5,0.5,0.0,0.0,0.25,0.0,0.25,-0.55,0.08,-0.67,43.71,-12.0,10.9
5.68,0.75,0.25,0.25,1.0,0.0,0.25,1.25,1.0,0.25,2.0,1.25,2.0,0.5,0.2,-0.42,-0.61,150.89,4.7,-36.8,0.0,0.0,0.5,0.5,0.25,0.0,0.5,0.75,0.5,1.5,0.0,1.0,0.25,-0.42,-0.11,-0.67,59.44,-1.9,-38.6
5.7,0.25,0.5,0.25,1.0,1.75,0.25,1.25,1.0,0.25,2.0,1.25,2.0,0.5,0.14,-0.48,-0.42,157.31,2.3,-23.7,0.0,0.0,0.25,0.5,0.0,0.0,0.5,0.75,0.25,0.0,0.25,0.0,0.25,-0.48,-0.55,-0.55,56.56,-6.4,-12.9
5.72,0.25,0.25,0.25,0.75,0.75,0.25,1.25,0.75,0.25,2.0,1.5,2.0,0.5,0.02,-0.55,-0.3,155.41,3.0,-38.6,0.75,0.75,0.5,0.75,0.25,1.75,0.25,1.0,0.5,1.5,0.0,1.0,0.25,-0.61,-0.92,-0.17,89.45,-0.3,-1.2
5.74,0.5,0.25,0.25,1.25,0.0,0.25,1.25,1.0,0.25,2.0,1.25,2.0,0.5,-0.17,-0.86,-0.11,154.07,4.4,-37.5,0.75,0.75,1.75,1.0,2.75,1.75,1.0,1.25,0.5,1.5,0.5,0.75,0.5,-0.17,-0.61,-0.3,140.93,-3.7,13.6
5.76,0.5,0.25,0.0,1.0,1.75,0.25,1.25,1.0,0.25,2.0,1.25,2.0,0.5,-0.17,-0.86,-0.05,155.45,2.0,-25.9,0.0,0.25,0.5,0.5,0.0,0.0,0.5,0.5,0.25,0.0,0.0,0.0,0.0,0.02,-0.67,-0.23,130.97,-15.0,28.4
5.78,0.5,0.25,0.25,0.75,0.75,0.25,1.25,1.0,0.25,2.0,1.75,2.0,0.5,-0.23,-0.86,-0.05,156.5,3.4,-36.5,0.0,0.5,0.5,1.25,0.25,1.25,0.5,0.25,0.5,1.5,0.25,1.0,0.0,0.08,-0.73,-0.17,134.22,-2.4,-6.5
5.8,0.5,0.0,1.0,0.75,0.0,0.25,1.5,1.0,0.25,2.0,1.0,2.0,0.5,-0.23,-0.86,-0.05,155.26,6.3,-36.7,0.0,1.0,2.0,0.75,3.0,1.25,0.75,1.25,0.5,1.5,0.5,1.0,0.5,0.08,-0.67,-0.17,156.68,-3.3,8.9
5.82,0.5,0.0,0.5,1.25,0.75,0.25,1.25,1.0,0.25,2.0,1.25,2.0,0.5,-0.23,-0.86,-0.05,155.61,4.4,-31.2,0.5,0.75,1.75,0.5,3.0,1.25,0.75,1.0,0.5,1.5,0.75,1.0,0.5,0.08,-0.67,-0.11,184.91,-3.8,7.7
5.84,0.75,0.0,0.0,1.25,0.0,0.25,1.25,0.75,0.25,2.0,1.25,2.0,0.25,-0.23,-0.8,0.02,149.11,5.0,-38.6,0.5,0.75,1.75,0.75,3.0,1.0,0.75,1.0,0.5,1.5,0.5,1.0,0.5,0.08,-0.67,-0.11,205.44,-4.4,9.7
5.86,0.25,0.0,0.5,0.25,0.0,0.25,1.25,1.0,0.25,2.0,1.25,2.0,0.75,-0.23,-0.8,0.08,144.1,2.3,-55.1,0.0,0.0,1.75,0.5,3.0,0.0,0.5,1.25,0.0,0.0,0.25,0.0,0.5,0.02,-0.73,-0.05,197.14,-6.0,26.0
5.88,0.5,0.5,0.5,1.25,1.25,0.25,1.25,1.0,0.25,2.0,1.0,2.0,0.5,-0.23,-0.86,0.2,149.8,4.2,-20.4,0.0,0.0,0.25,0.5,0.25,0.0,0.5,0.5,0.0,0.0,0.25,0.0,0.25,-0.11,-0.73,0.02,149.8,-7.0,0.9
5.9,0.5,0.5,0.25,1.0,0.5,0.25,1.25,1.0,0.25,2.0,0.75,2.0,0.5,-0.36,-0.92,0.27,149.04,3.5,-29.5,0.0,0.0,0.5,0.5,0.0,0.0,0.5,0.0,0.0,0.0,0.0,0.0,0.0,-0.11,-0.73,0.14,89.64,-28.5,53.4
5.92,0.5,0.25,1.0,1.0,0.5,0.25,0.75,0.75,0.25,2.0,0.75,2.0,0.5,-0.42,-1.11,0.2,149.43,5.7,-27.0,0.0,0.0,0.25,0.0,0.0,0.0,0.25,0.25,0.0,0.0,0.0,0.0,0.25,-0.05,-0.8,0.08,38.82,-6.7,-21.4
5.94,0.25,0.25,0.25,0.75,1.25,0.25,1.25,1.0,0.25,2.0,1.0,2.0,1.0,-0.42,-1.23,0.2,151.4,1.1,-35.5,0.0,0.0,0.0,0.25,0.0,0.0,0.25,0.75,0.0,0.0,0.0,0.0,0.0,-0.05,-0.8,0.08,10.41,3.7,-9.3
5.96,0.5,0.25,0.25,1.0,0.5,0.25,1.25,1.0,0.25,2.0,0.5,2.0,1.25,-0.36,-1.23,0.39,153.14,1.8,-37.5,0.0,0.0,1.75,0.0,3.0,0.0,0.5,1.0,0.5,1.5,0.5,1.0,0.5,-0.11,-0.86,0.2,43.66,-3.6,-6.7
5.98,0.5,0.0,0.5,1.25,0.75,0.25,1.25,1.0,0.25,2.0,1.25,2.0,0.5,-0.36,-1.23,0.39,154.51,4.4,-31.2,0.5,0.75,1.75,0.5,2.5,1.0,0.5,1.0,0.5,1.5,0.5,1.0,0.5,-0.17,-0.98,0.27,98.53,-4.2,6.5
6.0,0.5,0.0,0.75,0.75,0.0,0.25,1.25,0.75,0.25,2.0,0.5,2.0,0.5,-0.42,-1.23,0.39,146.87,5.4,-38.2,0.0,0.0,0.0,0.25,0.0,0.0,0.25,0.0,0.0,0.0,0.0,0.0,0.0,-0.17,-1.05,0.33,90.79,-21.9,48.3
6.02,0.5,0.0,0.25,1.0,0.5,0.25,1.25,0.75,0.25,2.0,1.25,2.0,0.5,-0.48,-1.3,0.39,145.84,3.9,-38.2,0.0,0.0,0.25,0.25,0.25,0.0,0.25,0.25,0.0,0.0,0.0,0.0,0.0,-0.11,-1.05,0.45,59.05,-11.1,33.8
6.04,0.25,0.25,0.75,1.0,0.75,0.25,1.0,0.0,0.25,2.0,0.75,2.0,0.5,-0.48,-1.36,0.45,139.56,6.0,-28.4,0.0,0.0,0.25,0.5,0.0,0.0,0.25,0.0,0.0,0.0,0.0,0.0,0.0,-0.17,-1.05,0.52,18.7,-25.2,54.7
6.06,0.25,0.25,0.25,1.0,0.0,0.25,1.5,0.75,0.25,2.0,0.5,2.0,0.5,-0.42,-1.36,0.45,135.05,3.6,-39.9,0.0,0.0,0.25,0.5,0.0,0.0,0.25,0.0,0.0,0.0,0.0,0.0,0.0,-0.17,-1.11,0.64,1.53,-25.2,54.7
6.08,0.25,0.0,0.25,1.0,0.0,0.25,1.25,0.5,0.25,2.0,1.25,2.0,0.75,-0.42,-1.3,0.45,134.05,3.6,-49.6,0.0,0.0,0.5,0.5,0.0,0.0,0.25,0.0,0.0,0.25,0.0,1.0,0.0,-0.11,-1.17,0.58,3.86,-15.6,-26.2
6.1,0.5,0.0,0.25,1.0,0.75,0.25,1.0,1.0,0.25,2.0,0.75,2.0,0.5,-0.42,-1.3,0.33,135.53,2.5,-34.5,0.0,0.0,1.75,1.25,2.75,1.25,0.5,1.0,0.5,1.5,0.5,1.0,0.5,-0.05,-1.17,0.58,78.47,-2.7,2.3
6.12,0.75,0.0,0.25,1.0,0.5,0.25,1.25,1.0,0.25,2.0,1.0,2.0,0.5,-0.36,-1.23,0.33,138.58,3.9,-34.2,0.25,1.0,0.75,0.75,2.25,1.0,0.5,1.25,0.5,1.5,0.5,0.75,0.5,-0.05,-1.11,0.77,130.73,-0.6,3.4
6.14,0.5,0.25,0.25,1.0,0.0,0.25,1.25,0.5,0.25,2.0,1.0,2.0,0.5,-0.23,-1.11,0.33,138.75,5.0,-39.1,0.5,0.75,1.75,0.75,2.5,1.0,0.5,1.0,0.5,1.5,0.25,1.0,0.75,-0.05,-1.11,0.77,173.83,-4.0,6.8
6.16,0.25,0.25,0.25,1.25,3.5,0.25,1.25,1.0,0.25,2.0,0.75,2.0,0.5,-0.23,-1.11,0.33,157.13,1.3,-11.0,0.5,0.75,1.75,0.75,2.75,1.0,0.5,1.25,0.5,1.5,0.5,1.0,1.0,0.08,-1.17,0.77,198.63,-3.2,3.3
6.18,0.5,0.0,0.25,1.0,1.75,0.25,1.25,1.0,0.25,2.0,1.0,2.0,1.0,-0.3,-1.42,0.45,164.15,1.7,-29.4,0.5,0.75,1.75,0.75,2.75,1.25,0.5,1.0,0.5,1.5,0.25,1.0,1.0,0.2,-1.23,0.7,211.66,-3.0,6.0
6.2,0.5,0.25,0.25,1.0,0.75,0.25,1.25,0.75,0.25,2.0,1.25,2.0,0.5,-0.42,-1.48,0.77,166.75,3.9,-32.3,0.75,0.75,1.75,0.75,2.75,1.0,0.5,1.0,0.5,1.5,0.25,1.0,1.0,0.27,-1.23,0.77,213.61,-4.0,7.1
6.22,0.5,0.0,1.0,0.5,0.0,0.25,1.5,0.25,0.25,2.0,0.5,2.0,0.5,-0.55,-1.48,0.77,154.07,7.7,-37.2,0.5,0.75,1.75,0.5,2.5,1.0,0.5,1.0,0.5,1.5,0.25,0.75,1.25,0.2,-1.23,0.77,217.74,-2.9,3.3
6.24,0.5,0.0,0.25,1.0,0.75,0.25,1.25,1.0,0.25,2.0,1.5,2.0,0.75,-0.67,-1.42,0.7,154.45,3.0,-38.3,0.5,0.75,1.75,1.0,2.5,1.25,0.5,1.0,0.5,1.5,0.5,1.0,1.0,0.27,-1.23,0.77,227.36,-3.5,4.6
6.26,0.25,0.0,0.25,0.5,1.25,0.25,1.25,1.0,0.25,2.0,1.0,2.0,1.25,-0.73,-1.42,0.64,153.02,0.1,-42.7,0.0,0.25,1.75,1.25,2.5,1.5,0.5,1.0,0.5,1.5,0.75,1.0,1.25,0.33,-1.23,0.7,223.99,-1.8,-3.9
6.28,0.5,0.0,0.5,1.25,0.0,0.25,1.25,0.25,0.25,2.0,1.25,2.0,0.5,-0.8,-1.36,0.64,150.93,6.8,-38.4,0.25,1.0,1.75,0.5,2.5,1.5,0.5,1.0,0.5,1.5,0.5,1.0,1.25,0.33,-1.23,0.7,221.93,-1.9,1.1
6.3,0.5,0.25,0.25,0.75,0.5,0.25,1.25,0.25,0.25,2.0,1.25,2.0,1.0,-0.73,-1.3,0.58,149.99,3.9,-40.9,0.5,0.75,1.75,0.5,3.25,1.25,0.5,1.0,0.5,0.0,0.25,0.0,1.25,0.33,-1.23,0.7,209.96,-3.9,24.9
6.32,0.25,0.0,0.25,0.75,0.75,0.25,1.0,0.5,0.25,2.0,1.25,2.0,0.5,-0.67,-1.17,0.58,144.68,2.7,-42.3,0.0,0.75,0.0,0.75,0.25,1.25,0.25,0.0,0.5,1.5,0.0,0.75,0.25,0.33,-1.17,0.7,168.9,2.4,-10.0
6.34,0.25,0.0,0.25,1.0,0.75,0.25,1.25,0.75,0.25,2.0,1.0,2.0,0.5,-0.61,-1.05,0.39,141.7,2.8,-37.8,0.5,0.75,1.75,0.75,2.75,1.25,0.5,1.25,0.5,1.5,0.25,0.75,1.25,0.27,-1.11,0.7,164.12,-2.2,5.1
6.36,0.5,0.0,0.25,1.0,0.5,0.25,1.25,1.0,0.25,2.0,1.0,2.0,1.0,-0.48,-0.86,0.27,143.26,2.4,-40.9,0.5,0.75,1.75,0.5,3.0,1.25,0.5,1.0,0.5,1.5,0.25,0.75,1.25,0.33,-0.98,0.7,169.26,-2.2,6.0
6.38,0.0,0.25,0.25,0.75,0.0,0.25,1.25,0.0,0.25,2.0,1.75,2.0,0.5,-0.48,-0.73,0.27,139.85,4.7,-52.7,0.0,0.0,1.75,0.75,2.75,1.0,0.5,1.0,0.5,1.5,0.25,1.0,1.0,0.33,-0.92,0.7,176.69,-1.7,-3.8
6.4,0.25,0.0,0.25,0.5,0.5,0.25,1.25,0.5,0.25,2.0,1.25,2.0,0.75,-0.42,-0.67,0.27,137.07,2.4,-49.2,0.5,0.75,1.75,0.5,2.75,1.5,0.5,1.0,0.5,1.5,0.25,1.0,1.25,0.39,-0.8,0.58,185.95,-2.0,3.4
6.42,0.5,0.0,0.25,1.0,0.0,0.25,1.25,0.5,0.25,2.0,1.0,2.0,0.25,-0.36,-0.55,0.2,133.37,5.3,-41.2,0.0,0.5,1.75,1.0,3.0,1.25,0.5,1.0,0.5,1.5,0.25,0.75,1.25,0.52,-0.67,0.52,192.7,-1.4,3.0
6.44,0.25,0.0,0.25,1.0,0.75,0.25,1.25,1.0,0.25,2.0,1.0,2.0,0.5,-0.36,-0.55,0.2,137.15,2.3,-37.8,0.0,0.0,0.5,0.25,0.25,0.0,0.5,0.25,0.0,0.0,0.0,0.0,0.25,0.58,-0.67,0.58,140.96,-12.8,16.9
6.46,0.25,0.0,0.25,1.0,0.0,0.25,1.25,0.0,0.25,2.0,1.25,2.0,0.5,-0.36,-0.55,0.2,132.86,5.4,-48.3,0.0,0.25,0.0,0.5,0.25,0.0,0.25,0.0,0.0,0.0,0.0,0.0,0.25,0.64,-0.61,0.52,86.03,-8.0,31.9
6.48,0.25,0.5,0.25,1.0,0.75,0.25,1.25,0.5,0.25,2.0,1.25,1.75,0.75,-0.36,-0.61,0.2,136.74,3.4,-31.8,0.5,1.0,0.0,0.75,0.25,1.25,0.5,0.0,0.5,1.5,0.0,0.75,0.25,0.64,-0.42,0.39,63.38,-1.1,1.8
6.5,0.25,0.5,0.25,0.75,0.75,0.25,1.25,1.0,0.25,2.0,0.75,2.0,0.5,-0.42,-0.61,0.14,139.26,2.2,-32.4,0.5,0.75,1.75,0.75,2.75,1.25,0.5,1.0,0.5,1.5,0.25,1.0,1.25,0.58,-0.42,0.33,99.75,-2.7,3.9
6.52,0.5,0.0,0.25,1.0,1.25,0.25,1.25,1.0,0.25,2.0,0.5,2.0,0.75,-0.48,-0.67,0.14,145.84,1.9,-29.8,0.5,0.75,1.75,0.5,2.75,1.25,0.5,1.0,0.5,1.5,0.25,0.75,1.25,0.52,-0.48,0.39,140.82,-2.3,4.9
6.54,0.5,0.25,0.25,1.0,0.75,0.25,1.25,1.0,0.25,2.0,0.0,2.0,0.5,-0.55,-0.73,0.14,143.24,2.5,-26.9,0.5,0.75,1.75,0.5,2.75,1.25,0.5,1.0,0.5,1.5,0.25,1.0,1.25,0.52,-0.48,0.33,179.87,-2.4,2.8
6.56,0.5,0.0,0.25,0.75,0.75,0.25,1.25,0.5,0.25,2.0,1.25,1.75,0.5,-0.61,-0.8,0.14,142.58,3.7,-36.2,0.5,0.75,1.75,0.75,3.0,1.25,0.5,1.0,0.5,1.5,0.25,0.75,1.25,0.52,-0.48,0.27,199.01,-2.5,6.9
6.58,0.5,0.0,0.25,0.75,0.75,0.25,1.25,0.5,0.25,2.0,1.0,2.0,0.5,-0.61,-0.8,0.2,139.89,3.7,-37.1,0.0,0.0,1.75,1.25,2.75,1.25,0.5,1.0,0.5,1.5,0.25,1.0,1.0,0.52,-0.48,0.33,196.25,-1.9,-0.6
6.6,0.25,0.0,0.25,1.0,1.25,0.25,1.25,1.0,0.25,2.0,0.75,1.75,0.5,-0.67,-0.92,0.27,141.05,1.6,-29.9,0.75,1.0,1.75,1.0,2.25,1.25,0.5,1.0,0.5,1.5,0.25,0.75,1.0,0.45,-0.55,0.39,200.1,-4.2,10.4
6.62,0.0,0.0,0.25,1.0,1.75,0.25,1.25,1.0,0.25,2.0,0.75,2.0,0.5,-0.67,-0.98,0.39,146.15,0.7,-30.0,0.5,0.75,1.75,0.75,3.0,1.25,0.5,1.0,0.5,1.5,0.25,0.75,0.75,0.39,-0.55,0.52,204.41,-3.1,11.4
6.64,0.5,0.25,0.25,1.0,0.75,0.25,1.25,0.5,0.25,2.0,0.5,1.75,0.5,-0.73,-0.98,0.45,143.36,3.8,-26.6,0.5,0.75,1.75,0.5,2.75,1.25,0.5,1.0,0.5,1.5,0.25,1.0,0.75,0.45,-0.67,0.52,207.08,-3.1,7.3
6.66,0.25,0.0,0.25,0.75,0.75,0.25,1.25,0.75,0.25,2.0,1.0,2.0,0.5,-0.8,-0.98,0.45,142.84,2.4,-40.5,0.5,0.75,1.75,0.75,2.75,1.25,0.5,1.0,0.5,1.25,0.25,0.75,0.75,0.58,-0.73,0.52,208.91,-3.6,12.1
6.68,0.0,0.0,0.25,0.75,0.75,0.25,1.25,1.0,0.25,2.0,0.75,1.75,1.0,-0.8,-0.86,0.45,140.81,-0.1,-44.9,0.5,0.75,1.75,0.75,2.75,1.25,0.5,1.0,0.5,1.5,0.25,1.0,1.0,0.7,-0.86,0.39,213.83,-3.0,6.0
6.7,0.25,0.5,0.25,1.0,0.75,0.25,1.25,1.0,0.25,2.0,0.75,2.0,1.0,-0.73,-0.8,0.39,146.25,1.8,-33.9,0.5,0.75,1.75,0.5,3.0,1.25,0.5,1.0,0.5,1.5,0.25,1.0,1.0,0.77,-0.86,0.45,208.75,-2.6,6.0
6.72,0.5,0.25,0.25,1.0,1.75,0.25,1.25,0.5,0.25,2.0,0.75,1.75,0.5,-0.73,-0.67,0.33,148.95,3.2,-19.0,0.75,0.75,1.75,0.5,2.75,1.0,0.5,1.0,0.5,1.5,0.25,1.0,0.75,0.7,-0.8,0.52,200.14,-4.1,8.4
6.74,0.25,0.0,0.25,0.75,1.25,0.25,1.25,0.5,0.25,2.0,0.75,2.0,0.75,-0.67,-0.61,0.27,149.92,1.9,-35.9,0.0,0.0,1.75,1.0,2.75,1.25,0.5,1.0,0.5,1.5,0.25,0.75,0.75,0.64,-0.67,0.45,189.56,-1.7,2.5
6.76,0.25,0.25,0.25,0.5,0.0,0.25,1.25,1.0,0.25,2.0,1.25,2.0,1.0,-0.67,-0.55,0.27,149.41,1.6,-52.5,1.25,1.0,1.75,0.75,2.5,1.25,0.5,1.0,0.5,1.5,0.25,1.0,0.75,0.58,-0.55,0.58,193.6,-5.2,13.4
6.78,0.0,0.25,0.25,1.0,1.25,0.25,1.25,1.0,0.25,2.0,1.0,1.75,0.5,-0.61,-0.55,0.33,149.23,1.3,-30.6,0.5,0.75,1.75,0.75,2.75,1.25,0.5,1.0,0.5,1.5,0.25,0.75,0.5,0.45,-0.55,0.58,191.92,-3.6,12.9
6.8,0.5,0.0,0.25,1.0,1.75,0.25,1.25,1.0,0.25,2.0,1.25,2.0,0.5,-0.61,-0.55,0.33,154.24,2.5,-26.8,0.5,0.75,1.75,0.5,3.25,1.25,0.5,1.0,0.5,1.5,0.25,1.0,0.5,0.33,-0.48,0.52,195.11,-3.1,11.5
6.82,0.0,0.5,0.25,0.75,0.75,0.25,1.0,1.0,0.25,2.0,0.5,1.75,0.5,-0.61,-0.48,0.33,148.88,0.6,-33.2,0.5,0.75,1.75,0.5,2.75,1.0,0.5,1.0,0.5,1.5,0.25,1.0,0.5,0.27,-0.42,0.52,192.53,-3.9,9.1
6.84,0.25,0.25,0.25,0.75,0.5,0.25,1.25,0.5,0.25,2.0,1.25,2.0,0.5,-0.61,-0.55,0.27,146.23,3.5,-40.5,0.5,0.75,1.75,0.75,3.0,1.0,0.5,1.0,0.5,1.5,0.25,1.0,0.5,0.27,-0.42,0.64,192.9,-4.0,11.1
6.86,0.25,0.0,0.25,1.0,1.25,0.25,1.25,0.5,0.25,2.0,0.75,2.0,1.0,-0.67,-0.61,0.33,145.15,1.9,-35.4,0.5,0.75,1.75,0.5,2.75,1.25,0.5,1.0,0.5,1.5,0.25,0.75,0.5,0.27,-0.42,0.7,189.64,-3.3,11.9
6.88,0.25,0.0,0.25,1.25,1.25,0.25,1.25,0.5,0.25,2.0,0.5,1.75,0.5,-0.73,-0.73,0.45,142.98,2.7,-25.9,0.5,0.75,1.75,0.75,2.75,1.25,0.5,1.0,0.5,1.5,0.25,0.75,0.5,0.27,-0.48,0.64,189.95,-3.6,12.9
6.9,0.0,0.25,0.25,1.0,0.75,0.25,1.25,1.0,0.25,2.0,1.25,2.0,0.5,-0.73,-0.8,0.52,144.24,2.0,-38.4,0.0,0.0,1.75,1.25,2.75,1.25,0.5,1.0,0.5,1.5,0.25,0.75,0.5,0.33,-0.48,0.45,185.63,-2.4,6.1
6.92,0.0,0.25,0.25,0.25,1.25,0.25,1.25,1.0,0.25,2.0,0.75,2.0,0.5,-0.67,-0.86,0.45,142.92,0.0,-38.8,1.25,0.75,1.75,0.75,2.25,1.25,0.5,1.0,0.5,1.5,0.25,0.75,0.5,0.45,-0.48,0.52,186.95,-5.6,15.6
6.94,0.25,0.0,0.25,1.0,1.75,0.25,1.25,0.75,0.25,2.0,1.0,1.75,1.0,-0.73,-0.8,0.39,148.43,1.2,-30.0,0.5,0.75,1.75,0.5,2.75,1.25,0.5,1.0,0.5,1.5,0.25,0.75,0.5,0.52,-0.48,0.58,186.25,-3.3,11.9
6.96,0.5,0.25,0.25,1.0,1.75,0.25,1.25,1.0,0.25,2.0,0.5,1.75,1.5,-0.67,-0.67,0.45,155.62,0.7,-26.5,0.5,0.75,1.75,0.5,2.75,1.25,0.5,1.0,0.5,1.5,0.25,0.75,0.5,0.64,-0.42,0.58,187.23,-3.3,11.9
6.98,0.0,0.5,0.25,1.0,1.25,0.25,1.25,1.0,0.25,2.0,1.0,1.75,0.5,-0.67,-0.48,0.39,157.83,1.6,-27.5,0.5,0.75,1.75,0.75,2.75,1.25,0.5,1.0,0.5,1.5,0.25,1.0,0.5,0.77,-0.55,0.58,188.88,-3.7,10.5
7.0,0.0,0.0,0.25,0.5,1.75,0.25,1.25,1.0,0.25,2.0,1.25,1.75,0.5,-0.67,-0.42,0.39,156.76,0.2,-34.7,0.5,0.75,1.75,0.5,2.75,1.25,0.5,1.0,0.5,1.5,0.25,1.0,0.5,0.89,-0.86,0.77,188.77,-3.4,9.6
7.02,0.75,0.25,0.25,0.0,0.75,0.25,1.25,1.0,0.25,2.0,1.0,2.0,0.5,-0.73,-0.36,0.45,151.33,2.5,-38.0,0.5,0.75,1.75,0.5,3.5,1.25,0.5,1.0,0.5,1.5,0.25,1.0,0.5,0.83,-0.55,0.77,194.09,-3.0,12.4
7.04,0.75,0.0,0.25,0.75,1.25,0.25,1.25,1.0,0.25,2.0,1.25,2.0,0.5,-0.8,-0.42,0.52,152.17,3.2,-30.4,0.5,0.75,1.75,0.5,3.25,1.25,0.5,1.0,0.5,1.5,0.25,1.0,0.5,0.64,-0.23,0.58,196.38,-3.1,11.5
7.06,0.25,0.0,0.25,0.75,1.75,0.25,1.25,0.5,0.25,2.0,1.25,1.75,0.5,-0.92,-0.55,0.45,151.33,2.2,-29.1,0.0,0.0,1.75,1.25,3.0,1.5,0.5,1.0,0.5,1.25,0.25,0.75,0.5,0.58,-0.3,0.58,194.56,-2.1,9.4
7.08,0.25,0.0,0.25,0.25,1.75,0.25,1.25,0.75,0.25,2.0,1.25,2.0,0.75,-0.8,-0.61,0.27,153.31,0.8,-37.5,0.5,1.0,2.0,0.5,2.75,1.25,0.5,1.0,0.5,1.5,0.25,0.75,0.5,0.45,-0.36,0.58,193.94,-4.1,14.6
7.1,0.5,0.25,0.25,0.25,1.75,0.25,1.25,1.0,0.25,2.0,1.25,1.75,1.0,-0.73,-0.55,0.27,156.37,0.9,-31.7,0.5,0.75,1.75,0.75,3.25,1.25,0.5,1.0,0.25,1.5,0.25,0.75,0.75,0.39,-0.42,0.52,195.31,-2.8,13.2
7.12,0.0,0.0,0.0,0.0,0.0,0.0,0.75,0.0,0.0,2.0,0.5,1.75,0.5,-0.67,-0.36,0.52,135.11,-1.2,-83.4,0.75,0.75,1.75,0.75,3.0,1.25,0.5,0.25,0.5,1.5,0.25,0.75,1.0,0.39,-0.42,0.45,196.0,-4.4,13.4
7.14,0.0,0.0,0.0,0.0,0.0,0.0,0.5,0.0,0.0,0.25,0.25,0.5,0.25,-0.67,-0.42,0.7,92.22,4.9,-76.3,0.75,0.75,1.75,0.75,0.25,1.25,0.5,0.0,0.5,0.0,0.25,0.75,0.75,0.45,-0.55,0.45,173.34,-12.6,19.7
7.16,0.5,0.0,0.25,0.5,1.75,0.25,0.75,1.0,0.25,2.0,1.0,1.75,0.0,-0.73,-0.42,0.39,91.22,1.5,-24.9,0.5,0.75,1.75,0.5,2.75,1.0,0.5,0.25,0.5,1.5,0.25,0.75,1.25,0.58,-0.55,0.58,170.48,-3.9,7.0
7.18,0.0,0.0,0.0,0.0,0.0,0.0,0.5,0.0,0.0,0.5,0.0,0.25,0.0,-0.73,-0.55,0.39,54.98,2.1,-59.2,0.75,0.75,1.75,0.75,2.75,1.0,0.5,0.5,0.5,1.5,0.25,0.75,0.75,0.7,-0.36,0.64,169.7,-5.1,13.6
7.2,0.0,0.0,0.0,0.0,0.0,0.0,0.5,0.0,0.0,0.25,0.25,0.5,0.0,-0.8,-0.61,0.45,35.26,8.8,-69.3,0.5,0.75,1.75,0.5,2.5,1.25,0.5,0.5,0.5,1.5,0.25,0.75,1.25,0.83,-0.3,0.58,176.21,-3.2,5.5
7.22,0.0,0.0,0.0,0.0,0.0,0.0,0.0,0.0,0.0,0.5,0.25,0.5,0.25,-0.98,-0.67,0.45,13.93,-2.9,-92.8,0.25,0.75,1.75,0.75,2.75,1.5,0.5,0.75,0.5,1.5,0.25,0.75,1.25,0.95,-0.23,0.39,183.44,-1.9,5.7
7.24,0.0,0.0,0.0,0.0,0.0,0.0,0.25,0.0,0.0,0.0,0.0,0.5,0.25,-0.86,-0.55,0.45,2.34,5.4,-91.0,0.5,1.25,2.0,0.75,1.75,1.5,0.5,1.0,0.5,1.5,0.25,0.75,1.25,0.89,-0.3,0.45,191.36,-3.7,7.0
7.26,0.0,0.0,0.0,0.0,0.0,0.0,0.0,0.0,0.0,0.0,0.25,0.5,0.25,-0.73,-0.3,0.33,0.0,3.5,-101.5,0.5,0.75,1.75,0.75,2.75,1.25,0.5,1.0,0.5,1.5,0.25,0.75,1.25,0.77,-0.3,0.52,195.11,-2.6,5.9
7.28,0.0,0.0,0.0,0.0,0.0,0.0,0.0,0.0,0.0,0.0,0.25,0.5,0.25,-0.86,-0.42,0.39,0.0,3.5,-101.5,0.5,0.75,1.75,0.75,2.5,1.25,0.5,1.0,0.5,1.5,0.25,1.0,1.25,0.64,-0.42,0.52,197.39,-2.8,2.8
7.3,0.0,0.0,0.0,0.0,0.0,0.0,0.0,0.0,0.0,0.25,0.25,0.5,0.0,-0.86,-0.42,0.39,0.0,3.1,-92.7,0.5,0.75,1.75,0.75,2.75,1.25,0.5,1.0,0.5,1.5,0.25,0.75,1.25,0.45,-0.36,0.52,200.43,-2.6,5.9
7.32,0.0,0.0,0.0,0.0,0.0,0.0,0.0,0.0,0.0,0.25,0.25,0.5,0.25,-0.92,-0.55,0.45,0.0,-0.3,-96.3,0.5,0.75,1.75,0.5,2.75,1.25,0.5,1.0,0.5,1.5,0.25,1.0,1.25,0.33,-0.36,0.58,200.68,-2.4,2.8
7.34,0.0,0.0,0.0,0.0,0.0,0.0,0.0,0.0,0.0,0.25,0.25,0.5,0.25,-0.86,-0.3,0.39,4.1,-0.3,-96.3,0.0,0.0,1.75,0.75,2.75,1.25,0.5,1.0,0.5,1.5,0.0,1.0,0.5,0.33,-0.42,0.64,192.81,-1.7,3.0
7.36,0.0,0.0,0.0,0.0,0.0,0.0,0.0,0.0,0.0,0.25,0.25,0.5,0.0,-0.86,-0.3,0.33,11.14,3.1,-92.7,0.5,0.75,1.75,0.5,2.75,1.25,0.5,1.0,0.5,1.5,0.25,1.0,1.25,0.39,-0.3,0.7,194.48,-2.4,2.8
7.38,0.0,0.0,0.0,0.0,0.0,0.0,0.0,0.0,0.0,0.5,0.25,0.5,0.25,-0.92,-0.42,0.39,16.25,-2.9,-92.8,0.25,0.5,1.75,0.75,2.75,1.25,0.5,1.0,0.25,0.0,0.25,0.0,1.25,0.52,-0.23,0.64,184.31,-3.6,22.2
7.4,0.0,0.0,0.0,0.0,0.0,0.0,0.0,0.0,0.0,0.25,0.0,0.5,0.0,-0.98,-0.36,0.45,12.52,0.6,-98.3,0.25,0.5,1.0,0.5,1.75,1.25,0.5,1.0,0.5,1.5,0.25,1.0,0.75,0.64,-0.23,0.58,171.16,-0.3,-5.6
7.42,0.0,0.0,0.0,0.0,0.0,0.0,0.25,0.0,0.0,0.0,0.25,0.5,0.5,-0.98,-0.23,0.45,21.97,2.8,-91.8,0.5,0.75,1.75,0.75,2.75,1.25,0.5,1.0,0.5,1.5,0.25,1.0,1.25,0.77,-0.3,0.58,175.62,-2.7,3.9
7.44,0.25,0.25,0.0,0.5,2.25,0.25,0.5,1.0,0.25,1.0,1.0,1.5,0.5,-0.92,-0.17,0.39,63.01,0.1,-19.8,0.5,0.75,1.75,0.5,2.75,1.0,0.5,1.0,0.5,1.5,0.25,1.0,1.25,0.77,-0.17,0.58,181.97,-2.9,2.3
7.46,0.0,0.25,0.0,0.0,0.0,0.25,1.75,1.0,0.0,1.5,1.25,1.25,0.5,-0.8,-0.23,0.52,90.82,0.2,-55.8,0.5,0.75,1.75,0.5,2.75,1.0,0.5,1.0,0.5,1.5,0.25,1.0,1.25,0.77,-0.11,0.58,188.52,-2.9,2.3
7.48,0.0,0.0,0.25,0.25,0.0,0.25,1.0,1.0,0.25,2.0,1.25,1.25,0.5,-0.61,-0.23,0.58,118.37,-0.4,-57.9,0.5,0.75,1.75,0.25,2.5,0.0,0.5,1.0,0.0,0.0,0.25,0.0,0.75,0.64,-0.17,0.58,171.71,-8.6,31.5
7.5,0.0,0.0,0.25,0.0,1.25,0.25,0.75,1.0,0.25,2.0,1.5,2.0,1.0,-0.67,-0.17,0.64,141.63,-1.4,-52.8,0.5,0.75,1.75,0.5,2.75,1.0,0.5,1.0,0.5,1.75,0.25,1.0,1.25,0.45,-0.23,0.64,176.91,-2.5,0.9
7.52,0.0,0.0,0.0,0.0,0.0,0.0,0.5,0.75,0.25,2.0,0.5,1.75,0.5,-0.61,-0.42,0.7,141.48,-3.2,-78.2,0.5,0.75,1.5,0.5,2.5,1.0,0.5,1.0,0.5,1.5,0.25,1.0,1.25,0.27,-0.11,0.7,175.42,-2.3,0.0
7.54,0.5,0.25,0.25,1.0,0.75,0.25,1.0,0.75,0.25,2.0,1.25,2.0,1.25,-0.55,-0.55,0.7,155.35,2.4,-38.3,0.0,0.0,1.75,0.0,2.75,0.0,0.5,0.75,0.5,0.75,0.25,0.25,1.5,0.2,0.02,0.77,165.85,-3.4,-3.5
7.56,0.25,0.0,0.25,0.0,1.25,0.25,1.0,1.0,0.25,2.0,1.25,2.0,0.75,-0.55,-0.36,0.7,160.51,-0.1,-46.2,0.5,0.75,2.25,0.25,2.5,0.0,0.75,1.0,0.25,1.5,0.25,1.0,1.5,0.27,-0.17,0.89,168.79,-5.9,-1.2
7.58,0.25,0.25,0.0,0.0,0.0,0.25,0.5,0.0,0.25,1.5,0.5,0.5,0.5,-0.55,-0.42,0.77,142.3,-0.9,-49.3,0.5,0.75,1.75,0.75,2.5,1.0,0.75,0.75,0.5,1.5,0.25,1.0,1.25,0.27,-0.3,1.02,176.24,-3.9,3.3
7.6,0.0,0.0,0.25,1.0,1.25,0.0,1.25,0.75,0.25,2.0,1.25,1.75,0.75,-0.61,-0.36,0.7,143.27,1.9,-38.4,0.5,0.75,1.75,0.5,2.75,1.0,0.75,1.0,0.5,1.5,0.25,1.0,1.5,0.33,-0.23,1.08,185.93,-2.8,0.4
7.62,0.0,0.0,0.0,0.0,0.0,0.0,0.5,0.0,0.25,0.0,0.25,0.5,0.5,-0.67,-0.17,0.58,105.48,6.1,-76.1,0.0,0.0,1.75,0.25,2.25,0.0,1.0,1.0,0.0,0.0,0.0,0.0,0.75,0.39,-0.05,0.83,164.58,-7.6,22.2
7.64,0.5,0.0,0.0,0.75,0.0,0.5,0.5,0.0,1.0,2.0,0.5,2.0,1.0,-0.67,-0.3,0.58,109.65,1.9,-52.4,0.5,0.75,0.0,0.5,0.25,1.0,1.0,1.0,0.5,1.5,0.25,0.75,1.5,0.52,-0.05,0.77,148.96,2.0,-25.2
7.66,0.5,0.0,0.5,0.75,0.0,0.75,1.75,1.25,1.0,2.25,1.5,2.0,1.0,-0.61,-0.36,0.58,124.67,2.8,-43.0,0.5,0.75,0.25,0.75,0.25,1.0,1.25,1.0,0.5,1.5,0.75,1.0,1.5,0.7,-0.11,0.64,134.38,-0.7,-24.8
7.68,0.0,0.25,0.5,0.25,0.5,0.5,1.75,1.0,0.25,2.0,1.0,2.0,1.0,-0.48,-0.36,0.64,142.93,1.0,-45.4,0.5,0.5,1.75,0.75,2.75,1.0,1.0,0.5,0.5,1.5,0.75,1.0,1.5,0.7,-0.11,0.58,153.09,-4.1,-1.2
7.7,0.25,0.0,0.25,0.25,1.75,0.25,0.75,0.75,0.25,2.0,1.25,1.75,1.0,-0.36,-0.36,0.58,154.24,-0.4,-39.1,0.75,0.75,1.5,1.0,2.5,1.5,1.0,0.25,0.5,1.5,0.75,1.0,1.5,0.64,0.02,0.58,175.73,-4.0,2.8
7.72,0.0,0.25,0.25,0.0,1.25,0.0,0.75,1.0,0.25,2.0,1.0,1.75,1.5,-0.36,-0.3,0.64,157.43,-2.0,-51.4,1.25,0.5,0.75,0.75,2.25,1.0,1.0,0.75,0.5,1.5,1.0,1.0,1.5,0.64,-0.11,0.7,193.75,-3.2,-5.2
7.74,0.5,0.0,0.25,0.25,0.0,0.5,1.25,1.0,1.0,2.0,1.25,2.25,1.0,-0.55,-0.3,0.7,159.89,2.0,-54.1,0.5,0.25,1.25,0.5,2.5,0.75,1.0,0.5,0.5,1.5,0.5,1.0,1.5,0.58,-0.05,0.77,191.23,-2.8,-7.8
7.76,0.75,0.0,0.5,0.25,0.0,1.75,2.5,1.25,1.25,3.0,2.25,2.75,1.5,-0.73,-0.23,0.77,187.06,1.4,-46.2,0.5,0.25,1.75,0.75,2.75,1.0,1.0,0.5,0.5,1.5,0.75,1.0,1.5,0.52,0.02,0.7,194.24,-4.0,-3.1
7.78,0.25,0.0,1.25,0.0,0.5,3.0,3.0,2.0,2.5,1.0,3.5,1.5,1.5,-0.73,-0.17,0.83,217.33,2.5,-31.1,0.5,0.25,1.5,1.0,2.75,1.0,1.0,0.5,0.5,1.75,0.5,1.0,1.25,0.58,0.02,0.7,194.97,-3.4,-1.1
7.8,1.0,0.25,1.5,1.0,0.0,2.5,6.0,4.75,2.0,1.0,2.5,1.5,2.0,-0.55,-0.23,1.14,261.84,4.0,-21.0,0.5,0.25,1.75,0.5,2.75,1.5,1.0,0.5,0.0,0.0,0.25,1.0,1.25,0.58,-0.05,0.77,186.7,-4.9,13.8
7.82,0.0,0.0,0.0,0.0,0.0,0.0,6.0,4.75,0.25,1.5,3.5,2.0,2.75,-0.61,-0.17,0.83,277.62,0.4,-57.6,0.5,0.25,1.75,0.75,2.5,1.25,0.75,0.5,0.5,1.5,0.25,1.0,1.25,0.45,0.02,0.77,187.12,-3.5,0.8
7.84,0.0,0.0,0.25,0.25,0.0,0.0,1.25,0.5,0.25,2.0,1.25,2.0,2.5,-0.73,-0.11,0.7,252.89,-0.7,-75.2,0.5,0.0,1.75,0.75,2.75,1.0,0.5,0.75,0.5,1.5,0.25,0.75,1.25,0.39,0.02,0.7,186.5,-2.8,0.5
7.86,0.5,0.0,0.25,0.25,0.0,0.0,1.25,0.25,0.25,2.0,1.5,2.0,2.5,-0.55,-0.17,0.7,221.64,1.5,-68.1,0.0,0.0,1.75,0.5,3.0,0.0,0.5,0.75,0.0,0.0,0.25,1.0,0.5,0.27,-0.05,0.64,171.53,-7.7,13.9
7.88,0.25,0.0,0.25,0.25,0.75,0.0,1.25,0.5,0.25,1.5,1.5,2.0,2.5,-0.42,-0.17,0.77,186.1,0.7,-60.7,0.0,0.0,1.75,0.75,2.5,0.0,0.5,0.0,0.0,0.0,0.0,0.0,0.75,0.14,0.02,0.77,142.11,-10.8,35.7
7.9,0.25,0.0,0.25,0.0,0.75,0.0,1.25,0.5,0.25,2.0,1.5,2.0,2.5,-0.48,-0.17,0.77,169.54,-0.3,-64.3,0.5,0.5,0.0,0.5,0.0,1.25,0.0,0.0,0.5,1.75,0.0,1.0,0.5,0.08,-0.05,0.77,112.23,2.3,-23.2
7.92,0.25,0.0,0.25,0.25,0.0,0.25,1.0,0.25,0.25,2.25,1.75,2.0,2.5,-0.55,-0.05,0.83,164.38,-0.3,-71.0,0.0,0.25,0.0,0.5,0.25,0.0,0.0,0.0,0.0,0.0,0.25,0.25,0.75,0.08,0.08,0.83,68.82,-2.3,-25.3
7.94,0.0,0.0,0.25,0.0,0.0,0.25,1.25,0.75,0.25,2.5,1.5,2.0,2.5,-0.55,-0.05,0.95,164.57,-2.5,-75.2,0.5,0.0,0.0,0.5,0.0,1.25,0.25,1.0,0.5,2.25,0.75,0.25,1.5,0.14,0.08,0.89,71.57,6.4,-42.1
7.96,0.0,0.0,0.25,0.0,0.0,0.0,1.25,0.75,0.25,3.25,1.5,1.5,2.5,-0.42,-0.11,0.95,161.62,-3.5,-76.1,0.0,0.0,0.0,0.0,0.0,0.0,0.25,0.0,0.0,0.0,0.25,0.5,1.25,0.27,-0.05,0.89,50.38,3.1,-98.3
7.98,0.0,0.0,0.25,0.0,0.0,0.0,1.25,0.75,0.25,2.75,1.75,1.25,2.5,-0.48,-0.05,0.89,154.67,-2.9,-75.2,0.0,0.0,0.0,0.0,0.25,0.0,0.0,0.0,0.0,0.25,0.25,0.5,0.75,0.27,0.14,0.89,38.58,4.1,-78.5
8.0,0.0,0.0,0.25,0.0,0.0,0.0,1.25,1.0,0.25,2.5,1.75,1.5,2.5,-0.48,-0.05,0.83,150.02,-2.6,-75.2,0.0,0.0,0.0,0.25,0.25,0.0,0.0,0.0,0.0,0.5,0.25,0.5,1.25,0.2,0.14,1.02,24.23,4.8,-71.9
8.02,0.25,0.0,0.25,0.0,0.0,0.0,1.25,1.0,0.25,2.0,1.75,1.5,2.5,-0.48,-0.05,0.89,148.47,-1.1,-71.2,0.0,0.0,0.0,0.0,0.5,0.0,0.0,0.0,0.0,0.75,0.25,0.5,1.25,0.14,0.14,1.08,25.66,7.2,-71.5
8.04,0.5,0.0,0.25,0.0,0.0,0.0,1.25,1.0,0.25,3.25,2.0,2.0,2.5,-0.42,-0.11,0.89,160.7,-1.2,-70.0,0.0,0.0,0.0,0.5,0.25,0.0,0.0,0.0,0.0,0.25,0.25,0.5,0.5,0.08,0.14,0.95,20.74,-1.7,-44.2
8.06,0.5,0.0,0.25,0.0,0.0,0.25,1.25,1.0,0.25,2.75,1.75,2.0,2.75,-0.48,-0.05,0.89,175.28,-1.6,-68.5,0.0,0.0,0.0,0.0,0.5,0.0,0.0,0.0,0.0,0.25,0.25,0.5,1.25,0.02,0.27,0.89,24.35,5.7,-70.8
8.08,0.0,0.0,0.25,0.0,0.0,0.0,1.25,1.0,0.25,2.5,2.0,2.25,2.75,-0.48,0.02,0.83,187.21,-1.8,-78.2,0.0,0.0,0.0,0.5,0.25,0.0,0.0,0.0,0.0,0.25,0.25,0.5,1.25,0.02,0.27,0.89,30.97,2.0,-60.6
8.1,0.0,0.0,0.25,0.0,0.0,0.75,4.0,3.5,0.25,3.25,3.5,2.0,3.0,-0.55,-0.05,0.83,216.7,-2.1,-60.6,0.0,0.0,0.0,0.5,0.25,0.0,0.0,0.0,0.0,0.25,0.25,0.75,0.5,0.08,0.14,0.89,34.52,-2.4,-50.5
8.12,0.0,0.0,0.25,0.0,0.0,0.5,1.25,1.0,0.25,3.25,2.0,2.25,2.75,-0.48,-0.05,0.83,220.18,-3.4,-73.9,0.0,0.0,0.0,0.25,0.25,0.0,0.0,0.0,0.0,0.5,0.25,0.5,1.25,0.08,0.14,0.89,39.95,4.8,-71.9
8.14,0.0,0.0,0.25,0.0,0.0,0.5,1.0,1.0,0.5,2.25,2.0,2.25,2.75,-0.42,-0.05,0.89,218.09,-2.4,-74.1,0.0,0.0,0.0,0.0,0.5,0.0,0.0,0.0,0.0,0.5,0.25,0.5,1.25,0.08,0.27,0.89,44.7,6.5,-71.2
8.16,0.0,0.0,0.25,0.0,0.0,0.25,1.25,1.0,0.25,3.25,2.0,2.0,3.25,-0.42,0.02,0.83,211.33,-3.7,-76.6,0.0,0.0,0.0,0.0,0.25,0.0,0.0,0.0,0.0,0.25,0.25,0.5,1.25,0.14,0.27,0.89,46.55,6.0,-84.8
8.18,0.25,0.0,0.25,0.0,0.0,0.25,0.75,1.0,0.25,3.5,2.0,2.0,4.25,-0.55,-0.05,0.83,214.54,-4.6,-77.9,0.0,0.0,0.0,0.0,0.25,0.0,0.0,0.0,0.0,0.75,0.25,0.5,1.25,0.14,0.2,0.89,46.48,7.6,-83.3
8.2,0.0,0.0,0.25,0.0,0.0,0.25,0.75,1.0,0.0,3.25,2.0,2.0,4.5,-0.61,0.02,0.83,215.83,-5.6,-82.3,0.0,0.0,0.0,0.25,1.0,0.0,0.0,0.0,0.0,0.75,0.25,0.75,0.5,0.14,0.27,0.89,54.32,2.4,-37.1
8.22,0.0,0.0,0.25,0.0,0.0,0.0,0.75,1.0,0.25,3.5,2.0,2.0,4.5,-0.55,0.02,0.83,221.73,-5.1,-83.3,0.0,0.0,0.0,0.5,0.25,0.0,0.0,0.0,0.0,1.0,0.25,0.5,1.25,0.2,0.33,0.95,58.71,4.7,-63.5
8.24,0.0,0.0,0.25,0.0,0.0,0.0,1.0,1.0,0.25,3.5,2.0,2.25,4.5,-0.42,-0.05,0.77,225.95,-4.6,-82.9,0.0,0.0,0.0,0.0,0.5,0.0,0.0,0.0,0.0,1.0,0.25,0.75,1.25,0.27,0.33,0.95,62.42,6.7,-74.2
8.26,0.25,0.0,0.25,0.0,0.0,0.5,0.75,1.0,0.25,3.5,2.0,2.25,4.5,-0.42,0.02,0.89,228.55,-4.8,-77.2,0.0,0.0,0.0,0.25,0.25,0.0,0.0,0.0,0.0,0.75,0.0,0.5,1.5,0.39,0.27,1.02,63.62,7.4,-74.8
