time,left pressure 0[N/cm虏],left pressure 1[N/cm虏],left pressure 2[N/cm虏],left pressure 3[N/cm虏],left pressure 4[N/cm虏],left pressure 5[N/cm虏],left pressure 6[N/cm虏],left pressure 7[N/cm虏],left pressure 8[N/cm虏],left pressure 9[N/cm虏],left pressure 10[N/cm虏],left pressure 11[N/cm虏],left pressure 12[N/cm虏],left acceleration X[g],left acceleration Y[g],left acceleration Z[g],left total force[N],left center of pressure X[mm],left center of pressure Y[mm],right pressure 0[N/cm虏],right pressure 1[N/cm虏],right pressure 2[N/cm虏],right pressure 3[N/cm虏],right pressure 4[N/cm虏],right pressure 5[N/cm虏],right pressure 6[N/cm虏],right pressure 7[N/cm虏],right pressure 8[N/cm虏],right pressure 9[N/cm虏],right pressure 10[N/cm虏],right pressure 11[N/cm虏],right pressure 12[N/cm虏],right acceleration X[g],right acceleration Y[g],right acceleration Z[g],right total force[N],right center of pressure X[mm],right center of pressure Y[mm]
0.02,2.25,1.25,1.5,4.5,3.75,4.0,3.25,4.75,4.0,6.5,7.25,6.25,7.0,-0.05,-0.05,0.95,739.65,1.4,-31.4,8.25,2.0,9.0,7.25,1.0,0.0,5.25,0.0,0.0,0.5,0.25,0.0,0.25,0.58,1.08,2.64,725.73,-27.1,64.2
0.04,2.0,1.25,4.0,5.25,5.0,5.0,3.75,5.5,4.75,6.75,8.0,7.0,7.25,-0.05,0.02,0.95,892.52,2.6,-26.0,7.25,2.0,7.0,5.75,0.0,1.0,4.0,0.25,0.25,2.0,0.25,1.0,1.0,0.7,1.95,3.02,553.03,-21.8,44.7
0.06,3.25,1.25,4.75,6.0,6.5,4.5,4.75,5.75,5.0,7.0,8.75,6.75,7.25,-0.05,-0.05,1.02,1071.22,3.8,-20.6,4.5,1.25,6.0,4.25,2.75,1.0,1.0,0.25,0.25,2.5,0.5,0.75,1.0,1.2,1.08,3.7,411.2,-16.0,36.5
0.08,3.25,1.25,5.0,6.0,6.5,5.0,5.0,5.75,5.25,6.75,8.5,6.5,7.25,-0.05,-0.05,0.95,1200.52,3.9,-19.2,2.5,1.0,3.25,3.25,1.25,0.0,0.0,0.0,0.0,0.75,0.0,0.0,0.25,0.02,-0.98,2.08,287.37,-20.7,57.6
0.1,3.25,1.25,5.5,7.0,6.5,5.0,5.25,5.75,5.25,7.0,7.75,5.75,6.5,-0.05,-0.05,0.95,1296.53,4.4,-15.0,0.75,0.25,1.75,1.0,1.25,0.0,0.0,0.0,0.0,0.5,0.0,0.25,0.25,0.45,-0.73,2.2,176.96,-16.1,39.7
0.12,3.0,1.25,5.0,6.75,4.75,4.0,5.0,4.75,4.75,5.5,6.25,4.5,5.5,-0.05,-0.05,0.95,1243.34,5.4,-12.4,0.5,0.25,1.75,0.75,2.5,0.0,0.0,0.0,0.0,0.75,0.0,0.25,0.25,0.77,-0.61,1.77,79.53,-10.6,36.0
0.14,2.75,1.25,5.0,6.0,6.5,4.0,5.5,5.5,4.25,3.5,5.75,3.5,4.5,-0.05,-0.05,0.95,1140.54,5.6,-5.1,0.25,0.25,1.5,0.75,1.75,0.0,0.0,0.0,0.0,0.0,0.0,0.0,0.0,0.64,-0.92,0.83,0.0,-15.9,61.1
0.16,2.75,1.25,5.0,6.75,4.5,4.0,5.0,4.5,4.25,4.25,5.0,3.0,4.25,-0.05,0.02,0.95,1007.8,6.2,-4.8,0.5,0.25,1.5,0.75,2.5,0.0,0.0,0.0,0.0,0.75,0.0,0.25,0.5,0.45,-0.67,0.27,0.0,-8.8,30.1
0.18,2.5,1.25,5.0,6.75,4.25,4.0,5.0,4.5,4.25,2.75,4.5,2.75,3.75,-0.05,0.02,0.95,882.26,6.9,-1.2,0.5,0.25,1.5,0.5,2.25,0.0,0.0,0.0,0.0,0.75,0.0,0.0,0.25,0.14,-0.55,0.2,0.0,-9.9,39.0
0.2,2.25,1.25,5.0,6.0,3.75,4.0,5.0,4.25,4.25,2.0,4.0,2.5,3.25,-0.05,0.02,0.95,762.12,7.4,0.5,0.5,0.25,1.5,0.5,2.25,0.0,0.0,0.0,0.0,0.5,0.0,0.25,0.25,-0.05,-0.48,0.45,0.0,-10.9,37.7
0.22,2.0,1.25,5.0,6.0,3.75,4.0,4.75,4.25,4.25,2.0,4.25,2.25,3.0,-0.05,0.02,0.95,680.02,7.3,0.8,0.5,0.25,1.5,0.5,2.25,0.0,0.0,0.0,0.0,0.75,0.0,0.0,0.25,-0.17,-0.36,0.77,0.0,-9.9,39.0
0.24,1.5,1.25,4.75,6.0,3.75,4.0,4.75,4.25,4.5,4.25,4.0,3.25,3.0,-0.05,0.02,0.95,644.07,5.8,-6.1,0.5,0.25,1.5,0.5,2.25,0.0,0.0,0.0,0.0,0.75,0.0,0.0,0.25,-0.17,-0.3,0.89,22.96,-9.9,39.0
0.26,3.25,1.25,5.5,7.0,4.25,5.25,4.75,4.25,4.75,4.75,4.75,3.0,3.75,-0.05,-0.05,0.95,660.52,6.3,-2.0,0.5,0.25,1.5,0.5,2.25,0.0,0.0,0.0,0.0,0.75,0.0,0.0,0.25,-0.17,-0.05,0.95,45.58,-9.9,39.0
0.28,3.25,1.25,5.25,7.0,3.5,5.0,4.75,4.5,5.0,3.25,5.25,2.75,4.5,-0.05,-0.05,0.95,688.72,6.7,-3.4,0.5,0.25,1.25,0.5,2.25,0.0,0.0,0.0,0.0,0.75,0.0,0.0,0.25,-0.11,0.33,0.89,61.3,-8.7,38.1
0.3,2.25,1.25,5.0,6.0,4.75,4.0,5.25,4.5,4.75,3.5,5.75,2.75,4.25,-0.05,-0.05,0.95,716.03,6.2,-6.1,0.5,0.25,1.25,0.75,2.25,0.0,0.0,0.0,0.0,0.75,0.0,0.0,0.25,0.14,0.58,0.7,80.22,-9.1,38.9
0.32,3.5,1.5,5.0,7.5,3.5,5.25,5.5,4.5,5.25,3.75,5.75,3.5,4.25,-0.05,-0.05,0.95,762.1,6.8,-4.2,0.5,0.25,1.25,0.5,2.5,0.0,0.0,0.0,0.0,0.75,0.0,0.0,0.25,0.52,0.64,0.83,97.54,-8.2,38.8
0.34,3.25,1.5,6.5,7.75,4.75,5.5,5.5,4.5,5.5,3.5,5.5,3.25,4.25,-0.05,-0.05,0.95,824.52,7.3,-0.2,0.5,0.25,1.0,0.5,1.75,0.0,0.0,0.0,0.0,0.75,0.0,0.0,0.25,0.58,0.83,0.95,98.05,-8.6,35.3
0.36,3.5,1.75,6.5,8.0,5.75,5.75,5.5,4.5,5.5,3.5,5.0,3.25,3.25,-0.05,-0.05,0.95,893.59,7.4,4.5,0.25,0.25,0.75,0.5,1.25,0.0,0.0,0.0,0.0,0.75,0.0,0.0,0.25,0.64,1.14,1.27,86.36,-7.0,27.8
0.38,4.25,1.75,7.75,9.25,6.5,5.75,6.25,4.5,5.5,3.25,4.75,2.5,2.75,-0.05,-0.05,0.95,968.76,8.8,11.5,0.5,0.25,0.75,0.5,1.5,0.75,0.0,0.0,0.5,2.0,0.0,1.0,0.25,0.83,1.33,1.45,95.73,-1.9,-5.1
0.4,4.5,2.0,8.5,9.5,6.75,5.75,6.0,4.5,5.5,3.25,4.75,2.0,2.25,-0.05,-0.05,0.95,1035.35,9.4,15.1,0.5,0.25,1.75,0.5,0.5,0.0,0.0,0.25,0.5,2.0,0.25,1.0,1.0,1.2,1.52,1.52,104.98,-7.3,-20.6
0.42,5.0,2.5,9.25,12.0,6.75,5.75,7.25,4.25,5.5,2.25,4.0,2.0,2.25,-0.05,-0.05,0.95,1107.12,10.9,21.3,0.5,0.25,1.25,0.5,1.5,0.0,0.0,0.0,0.0,0.75,0.0,0.0,0.25,1.52,1.77,1.52,105.04,-10.7,35.6
0.44,5.5,2.75,10.0,12.0,7.0,5.75,7.25,3.5,5.25,2.0,3.5,2.0,2.25,-0.05,-0.05,0.95,1157.87,11.8,24.7,0.25,0.25,0.5,0.5,1.25,0.0,0.0,0.0,0.0,0.5,0.25,0.0,0.25,1.7,2.08,1.27,92.46,-6.6,25.9
0.46,5.75,2.75,10.5,12.0,7.0,5.75,7.75,3.0,5.25,2.0,3.5,1.75,2.25,-0.05,0.02,0.95,1192.78,12.4,26.2,0.0,0.25,0.75,0.75,1.0,0.0,0.0,0.0,0.0,0.5,0.0,0.0,0.25,2.2,2.33,1.14,76.71,-8.3,30.5
0.48,6.0,2.5,10.0,12.0,7.5,5.75,8.0,2.75,4.75,2.0,1.25,1.75,2.25,-0.05,0.02,0.95,1183.07,12.3,30.4,1.75,0.75,1.75,1.5,4.5,1.0,0.0,0.25,0.25,1.75,0.5,1.0,0.75,2.52,2.64,0.33,129.88,-6.0,22.2
0.5,6.0,2.25,11.0,12.0,4.75,5.25,7.75,2.5,4.5,2.0,1.25,1.75,2.25,-0.05,0.02,1.02,1134.94,13.9,29.9,1.0,0.75,0.5,1.75,1.25,1.25,0.0,0.0,0.25,0.75,0.25,0.25,0.25,2.08,2.83,-0.55,142.93,-6.4,33.5
0.52,6.0,1.5,11.0,10.0,6.75,5.0,7.25,2.5,4.0,0.0,0.25,0.25,2.0,-0.05,0.02,1.02,1047.9,14.6,39.8,0.5,0.75,1.75,0.75,4.5,1.75,0.0,0.25,0.5,1.0,0.25,1.0,1.0,0.89,2.52,-0.17,187.54,-2.5,18.2
0.54,5.0,1.25,9.25,7.25,4.75,2.75,6.25,1.25,2.5,0.0,0.75,0.25,0.5,-0.11,0.02,1.14,860.85,17.9,45.4,1.75,0.75,0.75,2.0,0.5,1.25,0.0,0.0,0.5,3.5,0.5,4.0,1.75,-0.98,2.7,-0.42,212.49,-4.0,-27.6
0.56,5.0,0.0,9.0,6.0,3.0,2.5,6.0,0.75,1.75,0.0,0.5,0.25,0.5,-0.48,0.45,1.2,659.7,20.3,46.4,1.75,0.5,1.25,0.75,0.0,0.0,0.0,0.0,1.0,4.75,2.5,5.75,3.75,-1.8,1.14,4.45,261.88,-4.0,-59.0
0.58,4.25,0.0,9.25,2.75,0.0,0.25,4.25,0.75,1.0,0.0,0.0,0.5,0.25,-0.61,0.45,1.2,439.41,29.0,49.6,0.5,0.5,1.5,1.25,2.5,1.5,0.0,0.5,1.75,6.0,3.25,6.25,6.0,0.45,0.39,0.95,333.69,0.4,-52.2
0.6,3.25,0.0,8.25,2.0,0.0,1.25,0.75,0.5,1.0,0.0,0.0,0.25,0.5,-0.8,0.52,1.39,294.62,25.9,48.5,1.75,1.5,1.5,3.25,3.75,4.5,0.0,2.0,1.75,6.75,6.25,5.75,5.75,0.02,0.08,0.95,471.1,0.0,-31.3
0.62,2.25,0.0,6.25,1.75,1.25,0.25,0.0,0.5,0.5,0.0,0.0,0.25,0.5,-1.05,0.52,1.33,193.21,24.1,48.3,0.5,1.0,1.5,2.0,6.0,4.5,0.0,2.25,2.0,6.5,6.5,6.0,5.75,0.08,0.08,0.95,601.8,1.5,-34.3
0.64,0.75,0.0,4.25,1.25,1.25,1.0,0.0,0.5,0.0,0.0,0.0,0.0,0.25,-0.86,0.33,1.14,102.79,18.4,49.6,2.0,1.75,1.5,3.25,6.25,6.0,0.25,4.25,3.0,7.75,7.75,6.5,7.25,0.14,0.08,0.95,776.6,1.1,-29.7
0.66,0.5,0.0,1.5,1.25,3.0,0.5,0.0,0.5,0.0,0.0,0.0,0.25,0.25,-0.92,0.89,0.89,29.82,7.9,41.4,3.0,1.75,1.75,3.25,7.0,6.0,0.5,4.75,3.25,7.75,7.75,6.5,7.5,0.14,0.08,0.95,923.11,0.4,-26.5
0.68,0.5,0.0,0.75,1.25,2.25,1.0,0.0,0.5,0.0,0.0,0.0,0.25,0.5,-1.73,0.52,0.95,0.0,3.3,32.1,3.0,1.75,2.75,3.25,6.75,5.5,0.5,4.25,3.25,7.75,8.0,6.5,7.25,0.14,0.08,0.95,1027.29,-0.5,-25.6
0.7,0.25,0.0,0.25,1.25,2.25,1.0,0.0,0.5,0.0,0.0,0.0,0.0,0.25,-1.05,0.58,0.83,0.0,-0.2,39.0,2.75,2.5,4.0,3.25,6.5,4.75,1.75,3.5,3.25,7.0,8.25,6.5,7.25,0.08,0.08,0.95,1075.08,-2.4,-22.7
0.72,0.0,0.0,0.25,1.25,0.75,0.75,0.0,0.5,0.0,0.0,0.0,0.0,0.75,-0.92,0.52,0.7,0.0,-1.2,13.1,3.25,2.5,1.75,2.0,6.0,3.25,1.5,3.5,3.25,6.5,8.25,6.0,6.0,0.08,0.08,0.95,1030.43,-1.9,-26.2
0.74,0.0,0.0,1.0,1.25,2.5,1.0,0.0,0.5,0.0,0.0,0.0,0.0,0.25,-0.8,0.39,0.77,0.0,2.7,40.0,1.25,0.75,1.75,1.5,4.75,2.5,1.25,2.5,3.5,6.75,7.5,6.5,5.75,0.08,0.08,0.95,938.58,-0.9,-40.4
0.76,0.0,0.0,0.0,1.25,2.5,0.75,0.0,0.5,0.0,0.0,0.0,0.0,0.25,-0.3,0.2,0.89,0.0,-2.6,36.5,1.25,0.75,1.75,2.0,4.5,2.25,1.0,2.0,3.25,6.0,7.25,5.75,5.5,0.08,0.08,0.95,811.06,-1.5,-38.1
0.78,0.0,0.0,0.25,1.0,1.75,0.75,0.0,0.5,0.0,0.0,0.0,0.25,0.25,0.08,0.14,0.95,17.88,-0.9,26.5,0.75,1.0,1.75,2.0,4.5,2.25,0.5,2.0,3.25,6.0,7.25,6.0,5.25,0.08,0.08,0.95,714.5,-1.1,-39.1
0.8,0.0,0.0,0.0,0.0,0.5,0.75,0.0,0.25,0.0,0.0,0.0,0.25,0.5,0.2,0.08,1.08,17.59,-11.8,-16.7,0.5,0.5,1.75,2.0,4.5,2.25,0.5,2.0,3.25,6.5,7.5,6.25,6.0,0.08,0.08,0.95,650.62,-0.5,-43.7
0.82,0.0,0.0,0.0,0.0,0.75,0.5,0.0,0.5,0.0,0.0,0.0,0.25,0.5,0.27,0.02,1.08,20.29,-10.3,-15.6,0.75,0.25,1.75,1.75,4.5,2.25,1.0,2.0,3.25,6.5,7.75,6.5,5.75,0.08,0.08,0.95,615.49,-0.8,-44.2
0.84,0.0,0.0,0.0,0.0,0.5,1.0,0.0,0.5,0.0,0.0,0.0,0.25,0.25,0.14,0.02,0.95,14.71,-13.1,-4.6,0.5,0.5,1.5,2.0,4.5,2.25,1.25,2.0,3.25,6.5,7.75,6.5,6.0,0.08,0.08,0.95,600.97,-0.6,-44.3
0.86,0.0,0.0,0.25,0.0,0.0,1.0,0.0,0.25,0.0,0.0,0.0,0.25,0.25,-0.05,0.02,1.02,13.87,-8.8,-8.8,1.0,0.0,1.5,1.75,4.5,2.25,1.5,2.0,3.5,6.5,7.75,6.5,6.25,0.02,0.08,0.95,597.86,-0.8,-45.2
0.88,0.0,0.0,0.0,0.0,0.5,0.75,0.0,0.5,0.0,0.0,0.0,0.25,0.25,-0.17,-0.05,1.08,17.2,-12.1,-8.6,1.25,0.0,1.75,2.25,4.5,2.25,1.5,2.25,3.75,6.75,8.0,6.5,6.5,0.08,0.08,0.95,605.5,-1.2,-43.3
0.9,0.0,0.0,0.0,0.0,0.0,0.75,0.0,0.5,0.0,0.0,0.0,0.25,0.25,-0.3,-0.23,1.02,16.12,-15.1,-29.6,1.25,0.75,1.75,2.5,4.5,2.25,1.5,2.25,3.75,7.0,8.25,6.5,6.75,0.08,0.08,0.95,633.4,-1.3,-41.2
0.92,0.0,0.0,0.25,0.0,0.0,0.75,0.25,0.5,0.0,0.0,0.0,0.25,0.25,-0.42,-0.48,0.89,17.66,-5.8,-15.2,1.5,0.75,1.75,2.25,4.5,2.25,1.5,2.25,3.75,7.25,8.25,6.5,6.75,0.02,0.08,0.95,666.0,-1.3,-41.3
0.94,0.0,0.0,0.25,0.0,0.0,0.75,0.0,0.5,0.0,0.0,0.0,0.25,0.5,-0.61,-0.61,0.7,19.25,-8.7,-28.4,0.25,1.0,1.75,2.25,4.5,2.25,1.5,2.5,3.75,7.0,8.25,6.5,6.75,0.08,0.08,0.95,690.57,-0.6,-43.7
0.96,0.0,0.0,0.0,0.0,0.0,1.0,0.0,1.25,0.0,0.0,0.0,0.25,0.5,-0.61,-0.86,0.64,26.5,-16.0,-33.8,0.75,0.75,1.75,2.25,4.5,2.25,1.5,2.5,3.75,7.25,8.25,6.5,6.75,0.02,0.08,0.95,713.55,-0.8,-43.2
0.98,0.5,0.0,0.25,0.0,0.0,0.0,0.25,0.5,0.0,0.0,0.0,0.25,0.25,-0.61,-0.92,0.33,25.36,11.0,-5.5,0.75,0.75,1.75,2.25,4.5,2.25,1.5,3.25,3.75,7.25,8.25,6.5,6.75,0.08,0.08,0.95,728.86,-0.5,-43.2
1.0,0.0,0.0,0.0,0.0,0.0,0.0,0.0,0.0,0.0,0.0,0.0,0.0,0.25,-1.48,-1.92,3.33,19.38,-13.7,-109.8,0.5,0.75,1.75,2.25,4.5,2.25,1.5,3.5,3.75,7.25,8.25,6.5,6.75,0.02,0.08,0.95,737.4,-0.2,-43.8
1.02,0.0,0.0,0.0,0.0,0.0,0.0,0.0,0.0,0.0,0.0,0.0,0.0,0.0,0.95,-0.73,2.39,9.71,0.0,0.0,0.75,0.75,2.25,2.75,4.5,2.25,1.5,3.5,3.75,7.25,8.25,6.5,6.75,0.02,0.08,0.95,746.86,-1.0,-41.1
1.04,1.5,0.0,3.75,1.5,0.75,0.25,0.0,0.25,0.0,0.0,0.0,0.0,0.25,-0.11,0.52,0.83,53.14,24.6,56.8,1.0,0.75,2.25,2.75,4.5,2.25,1.5,3.5,3.75,7.25,7.75,6.25,6.75,0.08,0.08,0.95,747.74,-1.0,-39.7
1.06,2.75,0.75,6.5,4.25,3.0,0.25,1.75,1.0,0.0,0.0,1.25,0.25,1.0,0.39,-0.42,2.02,164.55,18.9,41.7,0.75,0.75,3.25,3.25,4.5,2.25,0.75,3.5,3.75,7.25,7.75,5.75,6.5,0.02,0.08,0.95,745.81,-1.5,-36.7
1.08,0.0,0.0,6.0,4.0,0.0,1.0,2.5,0.5,0.75,0.25,0.0,1.0,0.25,0.02,0.08,1.39,222.67,21.4,31.4,1.5,0.75,3.25,3.25,4.5,2.25,1.25,3.25,3.75,6.75,7.75,5.75,6.25,0.02,0.08,0.95,736.78,-2.5,-33.8
1.1,0.25,0.0,4.75,4.5,0.0,1.25,3.5,0.75,0.0,0.0,0.0,0.25,1.25,-0.05,0.08,1.14,258.44,18.4,32.2,1.25,1.0,4.0,3.25,4.5,2.25,1.5,2.5,3.5,6.5,7.5,5.5,5.75,0.02,0.08,0.95,716.87,-3.5,-30.3
1.12,1.75,0.5,1.0,4.0,3.5,1.25,5.25,1.75,0.5,0.0,1.25,0.25,0.25,0.02,0.02,1.14,278.79,10.7,31.9,0.75,0.75,4.25,3.25,4.5,2.0,2.0,2.0,3.25,6.0,6.75,4.5,4.75,0.02,0.08,0.95,668.05,-4.1,-26.9
1.14,2.0,1.25,0.0,5.75,0.0,3.0,5.25,1.5,1.0,1.0,0.75,1.0,1.75,0.02,0.02,1.02,298.21,7.6,13.5,1.25,0.75,4.25,3.25,4.5,2.0,2.25,2.0,3.25,5.0,6.0,4.0,4.5,0.02,0.08,0.95,618.2,-5.0,-22.0
1.16,2.25,1.25,5.25,5.5,3.0,3.0,5.25,2.25,1.5,2.0,1.25,1.0,2.25,-0.11,0.02,1.02,372.01,10.1,17.7,0.5,0.75,4.25,3.25,3.0,1.75,2.25,2.0,2.75,4.25,5.0,2.5,3.5,0.02,0.08,0.95,536.93,-5.5,-19.3
1.18,2.0,1.25,5.0,5.0,3.5,3.0,4.0,2.5,2.0,2.0,2.0,1.75,2.25,-0.05,0.02,0.95,455.88,8.8,10.8,1.25,0.75,4.25,2.5,3.0,1.75,2.75,2.0,2.5,3.5,4.5,2.25,2.25,0.02,0.02,0.95,463.25,-7.2,-11.7
1.2,1.75,1.25,2.5,4.75,3.5,3.5,3.0,3.0,3.0,3.25,2.5,2.0,2.25,-0.05,0.02,0.95,530.11,4.6,-0.8,1.75,0.75,5.25,3.75,4.75,2.0,2.75,2.0,1.75,2.25,4.5,1.0,1.25,-0.05,0.02,0.95,417.48,-9.4,8.9
1.22,1.75,1.25,1.25,4.5,4.25,3.75,4.75,3.25,3.5,3.75,3.5,3.25,4.25,-0.05,-0.05,0.95,591.44,2.7,-13.3,2.0,0.75,5.5,1.75,3.0,0.75,2.75,1.25,1.25,2.0,2.75,1.0,1.25,-0.05,0.02,1.08,360.55,-12.8,10.3
1.24,1.75,1.25,0.0,4.5,3.5,3.75,2.5,4.5,4.25,5.25,4.75,5.0,5.5,-0.05,-0.05,0.95,651.0,0.1,-28.8,2.0,0.75,6.25,3.25,2.75,0.0,2.75,0.25,1.25,1.75,1.5,1.0,0.0,-0.05,0.02,1.14,314.21,-18.5,28.5
1.26,1.5,1.25,2.75,4.25,4.5,3.75,3.75,5.5,4.75,6.75,6.25,6.25,6.5,-0.05,-0.05,0.95,754.41,1.7,-28.9,2.0,0.0,6.25,2.0,1.75,0.0,2.25,0.25,1.0,2.25,1.25,0.75,0.0,-0.05,0.02,1.2,267.46,-19.4,23.4
1.28,1.5,1.25,3.0,4.25,4.25,3.75,3.75,5.75,5.0,7.0,6.75,6.75,7.25,-0.05,-0.05,0.95,854.14,1.7,-31.3,1.75,0.0,5.75,0.75,0.5,0.0,1.25,0.25,0.75,1.5,0.5,0.5,0.0,-0.11,0.02,1.2,212.54,-23.5,28.5
1.3,1.5,1.25,2.0,4.25,3.75,4.0,3.75,5.75,5.25,7.75,7.0,7.0,7.75,-0.05,-0.05,0.95,950.59,0.8,-35.3,1.75,0.25,5.0,0.5,0.5,0.0,1.0,0.25,0.75,1.25,0.75,0.5,0.0,-0.23,0.02,1.39,160.32,-22.9,27.4
1.32,1.5,1.25,1.25,4.25,2.5,4.0,3.5,6.5,5.25,7.75,7.0,7.0,8.0,-0.05,-0.05,0.95,1010.54,0.0,-39.3,0.75,0.25,4.0,0.5,0.0,0.0,0.5,0.25,0.5,1.5,0.5,0.5,0.0,-0.23,0.02,1.33,111.42,-20.9,16.4
1.34,1.5,1.25,1.75,4.25,3.75,3.75,3.75,6.25,5.0,7.5,7.0,7.0,8.0,-0.05,-0.05,0.95,1029.56,0.5,-36.2,0.5,0.25,1.75,0.5,0.5,0.0,0.5,0.25,0.5,1.0,0.5,0.5,0.0,-0.23,0.08,1.58,69.59,-15.0,8.1
1.36,1.5,1.25,1.5,4.25,3.5,4.0,4.0,6.25,5.0,7.0,6.75,6.75,7.75,-0.05,-0.05,0.95,1007.66,0.5,-35.5,0.5,0.25,1.5,0.5,0.25,0.0,0.25,0.25,0.5,0.75,0.25,0.5,0.0,-0.05,0.02,1.14,35.86,-16.1,10.3
1.38,1.5,1.25,1.5,4.25,4.25,4.0,3.5,6.0,5.0,6.75,6.75,6.75,7.5,-0.05,-0.05,0.95,979.5,0.5,-33.9,0.5,0.25,1.5,0.5,0.25,0.0,0.0,0.25,0.5,0.75,0.25,0.25,0.0,0.39,0.39,0.64,16.59,-16.1,15.8
1.4,1.5,1.25,1.0,4.25,3.0,4.0,3.75,6.0,4.75,6.75,6.75,6.75,7.25,-0.05,-0.05,0.95,933.32,0.3,-36.5,0.5,0.0,0.5,0.5,0.5,0.0,0.0,0.25,0.5,0.75,0.25,0.5,0.25,0.89,0.52,0.39,6.82,-8.0,-10.5
1.42,1.5,1.25,1.5,4.25,3.75,4.0,4.25,6.0,5.0,6.75,6.75,6.75,7.25,-0.05,-0.05,0.95,913.53,0.8,-34.0,0.0,0.0,1.5,0.5,1.0,0.0,0.0,0.25,0.5,1.75,0.25,0.5,0.25,0.77,0.64,0.7,15.52,-6.2,-11.2
1.44,1.5,1.25,1.0,4.25,4.25,4.0,4.5,6.0,5.0,6.75,6.75,6.75,7.25,-0.05,-0.05,0.95,893.95,0.5,-33.9,0.5,0.0,1.0,0.5,0.5,0.0,0.0,0.25,0.5,0.75,0.25,0.25,0.25,0.64,0.77,0.7,20.79,-11.1,2.1
1.46,1.5,1.25,1.75,4.25,4.25,4.5,4.5,6.25,5.25,7.0,6.75,6.75,7.25,-0.05,-0.05,0.95,888.99,0.7,-32.3,0.5,0.0,0.5,0.5,1.25,0.0,0.0,0.25,0.5,0.75,0.25,0.25,0.25,0.58,0.77,0.58,36.67,-6.0,4.9
1.48,1.5,1.25,1.0,4.5,4.75,5.0,4.75,6.25,5.25,7.5,7.0,7.0,7.75,-0.05,-0.05,0.95,900.86,0.0,-33.1,0.5,0.0,0.5,0.5,1.25,0.0,0.0,0.25,0.25,0.75,0.25,0.25,0.25,0.52,0.7,0.64,43.4,-5.7,7.1
1.5,1.5,1.25,1.5,4.5,5.0,5.0,4.5,6.5,5.5,7.5,7.0,7.0,7.75,-0.05,-0.05,0.95,919.3,0.2,-32.1,0.5,0.0,0.5,0.5,1.0,0.0,0.0,0.25,0.25,0.75,0.25,0.25,0.25,0.39,0.52,0.83,52.12,-6.3,4.2
1.52,1.5,1.25,1.5,4.75,5.75,5.0,4.75,6.5,5.5,7.25,7.0,6.75,7.5,-0.05,-0.05,0.95,941.69,0.3,-29.7,0.5,0.0,0.5,0.5,1.25,0.0,0.0,0.25,0.25,0.5,0.25,0.25,0.25,0.39,0.33,0.89,58.82,-6.9,11.5
1.54,1.75,1.25,2.25,5.5,6.0,5.0,4.75,6.5,5.5,7.0,7.0,6.75,7.25,-0.05,-0.05,0.95,966.12,1.2,-26.2,0.0,0.0,0.5,0.5,1.0,0.0,0.0,0.0,0.25,0.75,0.25,0.25,0.25,0.39,0.14,0.89,58.76,-4.4,-4.1
1.56,1.5,1.25,3.0,6.0,6.0,5.25,5.0,6.5,5.5,6.75,6.75,6.75,7.25,-0.05,-0.05,0.95,991.75,1.7,-24.3,0.5,0.25,0.5,0.5,1.0,0.0,0.0,0.0,0.25,0.75,0.25,0.25,0.25,0.39,0.08,0.89,64.49,-7.9,11.7
1.58,2.0,1.25,3.0,6.0,6.75,5.75,5.25,6.75,5.75,6.75,6.5,5.75,7.0,-0.05,-0.05,0.95,1020.37,1.6,-20.2,0.5,0.0,0.5,0.0,1.0,0.0,0.0,0.0,0.25,0.75,0.25,0.25,0.25,0.45,0.02,1.02,63.04,-6.3,-0.2
1.6,2.25,1.25,2.5,7.0,6.75,5.75,6.0,6.5,5.5,6.25,6.25,5.75,6.5,-0.05,-0.05,0.95,1041.33,2.1,-17.5,0.5,0.25,0.5,0.5,0.25,0.0,0.0,0.0,0.25,0.5,0.25,0.25,0.0,0.39,-0.05,1.08,59.31,-14.3,16.8
1.62,2.5,1.5,3.75,7.5,6.75,6.5,6.25,6.5,5.5,5.25,5.75,5.0,6.0,-0.05,-0.05,0.95,1062.18,3.1,-10.8,0.5,0.0,0.5,0.5,0.5,0.0,0.0,0.0,0.25,0.5,0.25,0.25,0.25,0.33,-0.05,1.02,55.18,-11.0,4.8
1.64,2.5,1.75,3.75,7.75,7.5,6.75,6.5,6.5,5.5,5.25,5.25,4.5,5.5,-0.05,-0.05,0.95,1077.84,3.1,-7.1,0.5,0.25,0.5,0.5,1.0,0.0,0.0,0.0,0.0,0.75,0.25,0.25,0.0,0.33,-0.05,1.02,56.76,-9.0,22.2
1.66,2.75,1.75,5.0,9.5,8.25,6.75,7.0,6.5,5.25,4.25,4.75,3.25,4.5,-0.05,-0.05,0.95,1097.02,4.6,2.3,0.25,0.25,0.5,0.5,1.0,0.0,0.0,0.0,0.25,0.5,0.25,0.25,0.25,0.2,-0.05,1.08,58.27,-7.8,12.1
1.68,3.25,2.25,5.5,11.0,8.5,7.0,7.5,6.0,4.75,3.5,4.0,3.0,4.25,-0.05,-0.05,0.95,1122.94,5.7,8.9,0.5,0.25,0.5,0.5,1.0,0.0,0.0,0.0,0.0,0.75,0.25,0.25,0.25,0.14,-0.05,1.14,64.14,-7.6,14.5
1.7,3.25,2.75,6.25,12.0,9.0,7.0,8.0,5.75,4.25,3.5,3.75,2.5,3.5,-0.05,-0.05,0.95,1154.51,6.5,14.4,0.5,0.25,0.25,0.5,1.0,0.0,0.0,0.0,0.0,0.75,0.25,0.25,0.25,0.02,0.02,1.2,65.8,-5.8,11.6
1.72,3.25,2.75,7.0,14.0,9.75,7.25,8.0,5.5,3.5,3.25,3.5,2.0,2.75,-0.05,0.02,0.95,1192.77,7.3,20.4,0.5,0.25,0.25,0.5,1.0,0.0,0.0,0.0,0.0,0.75,0.25,0.25,0.25,0.02,0.14,1.2,66.81,-5.8,11.6
1.74,3.25,2.75,8.0,15.5,10.5,7.5,8.5,5.0,2.5,2.5,2.5,1.75,2.5,-0.05,0.02,0.95,1229.94,8.2,26.8,0.0,0.0,0.5,0.0,0.5,0.0,0.0,0.0,0.0,0.5,0.25,0.25,0.25,-0.05,0.27,1.14,56.11,-4.8,-21.0
1.76,4.25,2.75,8.75,16.0,12.5,7.75,8.75,4.5,2.25,2.25,2.5,1.75,2.25,-0.05,0.02,1.02,1290.62,8.8,30.6,0.25,0.0,0.5,0.5,1.0,0.0,0.0,0.0,0.0,0.75,0.25,0.25,0.25,-0.11,0.39,1.14,55.59,-5.7,4.0
1.78,5.0,2.75,9.0,17.0,13.0,8.0,8.5,4.25,1.75,2.0,2.25,1.0,2.0,-0.05,0.08,1.02,1331.77,9.2,35.2,0.5,0.0,0.5,0.5,0.5,0.0,0.0,0.0,0.0,0.5,0.25,0.25,0.25,-0.11,0.52,1.02,52.34,-10.9,8.0
1.8,5.0,2.75,9.75,18.5,13.5,8.0,8.0,4.25,1.75,2.0,2.0,1.75,2.0,-0.11,0.08,1.08,1381.44,9.5,35.0,0.25,0.25,0.5,0.5,1.0,0.0,0.0,0.0,0.0,0.5,0.25,0.25,0.0,-0.17,0.77,0.95,54.99,-9.0,24.1
1.82,5.0,3.0,10.0,18.5,14.5,7.5,7.75,3.5,1.25,2.0,1.5,1.5,2.25,-0.05,0.14,1.02,1412.63,9.8,37.5,0.25,0.25,0.5,0.5,0.5,0.0,0.0,0.0,0.0,0.5,0.25,0.25,0.25,-0.3,1.02,0.95,54.67,-9.4,8.7
1.84,6.0,3.0,10.5,18.5,14.5,7.25,7.0,3.0,1.0,2.0,1.5,0.75,2.0,-0.11,0.14,1.02,1430.59,10.5,41.2,0.25,0.25,0.25,0.5,1.0,0.0,0.0,0.0,0.0,0.75,0.25,0.25,0.0,-0.48,1.33,0.83,56.97,-5.3,14.7
1.86,6.0,3.0,10.5,20.0,14.5,7.0,6.5,2.75,1.0,2.0,1.25,1.5,2.25,-0.11,0.2,1.08,1441.38,10.7,40.2,0.5,0.25,0.5,0.5,0.5,0.0,0.0,0.0,0.0,0.5,0.25,0.25,0.25,-0.55,1.58,0.7,55.97,-11.0,14.5
1.88,6.75,3.0,10.5,20.0,14.5,6.5,5.25,3.0,1.0,2.0,0.75,1.5,2.0,-0.11,0.2,1.08,1442.38,10.9,41.9,0.0,0.0,0.25,0.5,0.5,0.0,0.0,0.0,0.0,0.5,0.25,0.5,0.25,-0.61,1.64,0.58,51.13,-4.4,-21.6
1.9,6.75,3.0,10.5,19.0,14.5,5.75,4.5,2.5,1.0,2.0,0.75,1.25,1.75,-0.11,0.27,1.14,1420.88,11.3,43.4,0.25,0.25,0.25,1.0,1.0,0.0,0.0,0.0,0.0,1.75,0.0,1.25,0.25,-1.67,2.7,-0.23,64.63,-2.4,-17.7
1.92,6.75,3.0,10.0,18.5,14.5,5.0,3.75,2.5,1.0,1.75,0.5,1.5,1.75,-0.17,0.33,1.2,1382.25,11.4,43.6,0.5,0.25,0.25,0.5,1.5,0.0,0.0,0.25,0.5,4.0,0.5,4.25,4.5,-0.55,0.08,2.14,138.88,2.8,-65.2
1.94,6.0,3.0,9.5,17.0,14.5,4.5,3.25,3.25,1.0,1.25,0.5,1.5,1.5,-0.23,0.39,1.33,1323.64,11.0,43.3,0.0,0.0,0.5,0.5,1.5,0.0,0.0,0.5,0.75,5.0,2.75,5.25,5.75,0.45,0.14,1.45,229.48,2.6,-74.3
1.96,6.0,2.75,7.0,14.0,12.5,3.75,2.5,2.25,1.0,1.5,0.75,1.0,1.5,-0.23,0.64,1.64,1174.29,10.7,42.9,0.0,0.25,0.25,0.5,1.0,0.0,0.0,0.75,0.75,5.75,2.75,5.25,5.75,-0.05,0.08,0.89,298.89,3.5,-76.7
1.98,5.0,2.75,4.75,11.0,10.0,2.75,2.0,2.25,1.0,1.25,0.75,1.25,1.25,-0.48,1.33,2.02,959.51,10.1,40.2,0.0,0.25,0.0,0.5,0.0,0.0,0.0,2.0,1.25,6.5,4.0,5.5,6.25,0.02,0.08,0.95,371.27,4.0,-82.1
2.0,3.25,1.25,2.75,7.75,8.5,2.5,0.5,2.25,1.0,0.0,1.0,1.0,1.0,-0.8,1.33,2.2,698.7,7.9,37.1,0.5,0.25,0.25,0.75,1.5,0.25,0.0,2.0,1.25,7.25,4.75,6.0,6.75,0.02,0.08,0.95,443.2,2.9,-69.4
2.02,1.5,1.25,2.25,4.5,6.75,2.0,0.0,2.5,1.0,0.5,0.75,1.0,1.25,-0.42,0.83,2.33,467.64,4.8,25.8,0.5,0.5,0.5,1.0,4.25,0.75,0.0,2.25,1.75,7.25,5.75,6.5,7.25,0.08,0.08,0.95,534.3,2.2,-55.9
2.04,0.5,0.0,1.75,1.25,4.75,0.0,0.0,0.0,0.0,0.5,0.0,1.5,0.75,-0.05,-0.48,1.83,267.15,7.1,20.2,0.5,0.0,0.25,0.5,1.75,1.25,0.0,2.75,2.0,7.75,6.5,6.5,7.5,0.08,0.08,0.95,604.23,3.2,-68.4
2.06,1.5,1.25,1.75,4.0,3.5,0.0,0.5,1.0,0.25,0.0,0.5,1.25,0.5,0.02,-0.11,1.14,164.34,11.9,34.1,0.5,0.25,0.25,1.25,2.75,1.75,0.5,3.5,2.5,7.75,6.75,6.5,6.75,0.08,0.08,0.95,671.56,2.5,-58.1
2.08,1.75,1.25,0.5,4.0,3.5,0.25,0.0,0.5,1.0,0.5,0.75,1.5,0.25,-0.17,-0.42,1.89,91.95,9.7,27.1,0.75,0.75,1.0,1.25,3.0,2.25,0.5,3.25,2.5,7.25,6.75,6.25,7.75,0.08,0.08,0.95,715.97,1.7,-52.4
2.1,1.25,1.25,1.75,4.0,3.75,0.25,0.5,2.5,1.0,0.25,1.0,0.75,1.25,-0.48,-0.55,1.27,91.62,7.5,19.5,1.0,0.75,1.25,2.0,3.25,2.25,0.5,3.5,2.5,7.25,6.5,6.0,7.0,0.08,0.08,0.95,738.34,1.0,-46.7
2.12,0.5,1.25,1.5,3.0,3.75,0.5,0.5,2.25,0.75,0.5,1.0,0.5,1.25,-0.61,-0.55,0.7,98.49,5.0,15.8,0.75,0.75,1.5,2.5,3.5,2.25,0.75,3.5,2.75,7.0,6.5,5.75,6.75,0.08,0.08,0.95,740.14,0.5,-43.8
2.14,1.25,1.0,0.0,2.25,3.75,2.25,0.25,2.25,1.0,0.5,1.0,0.5,0.25,-0.48,-0.42,0.58,116.85,0.7,20.5,0.75,0.75,1.5,2.75,4.5,2.25,1.5,3.5,2.75,6.5,6.5,5.5,6.75,0.08,0.08,0.95,730.06,0.1,-39.5
2.16,1.5,0.5,1.75,2.5,3.75,2.25,0.75,2.0,1.0,0.5,0.75,0.25,1.5,-0.3,-0.3,0.64,141.33,4.0,18.7,1.0,0.75,1.75,3.0,4.5,2.5,1.5,3.5,2.75,6.25,5.0,5.25,5.75,0.08,0.08,0.95,693.92,-0.2,-33.7
2.18,1.5,0.5,1.5,1.75,3.75,2.25,1.0,2.0,1.0,0.5,1.0,1.0,1.0,-0.17,-0.23,0.89,168.75,3.9,13.7,1.75,2.0,1.75,4.5,4.5,2.5,2.0,3.5,2.5,6.0,4.75,4.5,5.5,0.08,0.08,0.95,675.43,-1.8,-22.2
2.2,1.5,1.25,1.5,1.75,3.75,1.75,1.0,1.75,0.75,0.5,0.25,1.0,1.25,-0.36,-0.17,0.83,199.76,4.7,20.1,1.25,0.75,1.75,3.25,4.75,2.75,2.25,3.5,2.5,5.25,4.75,4.0,4.75,0.08,0.08,0.95,632.02,-1.0,-25.3
2.22,0.75,0.75,1.5,2.0,3.5,2.0,1.25,2.0,1.0,0.5,0.5,0.75,1.0,-0.55,-0.05,0.7,221.31,3.4,15.7,1.5,0.75,2.0,3.5,4.75,3.75,2.75,3.5,2.75,4.75,3.75,3.0,4.0,0.08,0.08,0.95,591.73,-1.3,-16.2
2.24,1.25,1.25,1.25,1.75,3.75,2.0,0.75,1.0,0.75,0.75,0.25,1.25,1.5,-0.48,0.08,0.83,239.04,3.6,16.0,1.75,0.75,3.25,5.25,5.25,3.75,3.0,3.25,2.5,4.0,2.75,2.5,2.25,0.08,0.08,0.95,557.73,-4.2,-0.1
2.26,1.0,1.25,1.25,1.75,3.5,2.0,0.5,2.0,0.75,0.5,0.25,1.0,1.0,-0.3,0.2,1.14,245.04,2.6,18.0,2.0,1.0,4.25,5.5,5.75,4.5,3.75,3.5,2.5,3.5,2.75,2.25,2.5,0.08,0.08,0.95,561.86,-5.0,4.9
2.28,1.25,1.25,0.75,1.5,3.0,1.75,0.75,1.75,0.75,0.75,1.0,1.5,1.25,-0.3,0.27,1.33,248.56,2.8,5.8,2.0,1.0,4.25,5.75,6.25,5.0,4.0,3.25,2.5,5.0,2.5,2.25,1.75,0.08,0.08,0.95,585.77,-4.4,6.2
2.3,1.5,1.25,1.25,1.5,3.0,1.75,0.75,1.75,0.75,0.75,0.5,1.0,1.25,-0.17,0.39,1.52,242.1,4.0,14.4,3.75,2.25,6.25,7.75,7.75,5.5,5.25,3.5,3.25,4.75,3.0,2.5,2.75,0.08,0.08,0.95,695.26,-6.8,13.0
2.32,1.5,1.25,1.5,1.5,4.25,2.0,0.5,2.0,0.75,0.5,1.25,1.0,1.0,-0.11,0.45,1.77,249.62,3.8,16.8,4.5,2.5,6.25,9.0,8.0,5.75,5.5,3.5,2.75,4.0,3.0,2.0,2.25,0.08,0.08,0.95,805.63,-7.7,19.5
2.34,1.5,1.25,0.25,1.5,3.5,1.5,1.0,1.75,0.5,0.75,1.25,1.25,1.25,-0.11,0.58,2.02,246.93,2.5,7.9,4.5,2.5,7.25,10.5,8.25,6.0,5.5,3.5,2.5,3.75,2.75,1.75,1.75,0.08,0.08,0.95,919.69,-8.6,24.2
2.36,1.5,1.25,0.75,1.5,3.5,1.5,0.75,2.25,0.5,1.0,0.25,1.0,1.25,-0.11,1.08,2.08,247.79,1.9,13.2,4.75,2.5,7.5,11.0,9.25,6.0,6.0,3.25,2.5,3.0,2.75,1.0,1.5,0.08,0.08,0.95,995.53,-9.3,29.3
2.38,1.5,1.25,1.0,1.5,3.5,1.75,0.5,2.5,0.5,0.5,1.25,1.0,0.75,0.08,1.83,2.02,246.28,3.1,14.6,4.5,2.0,7.5,11.5,8.75,6.0,6.5,2.0,1.25,2.0,0.75,0.75,0.25,0.08,0.08,0.95,993.72,-11.0,41.6
2.4,1.5,1.0,1.0,1.25,3.5,2.0,0.5,1.5,0.5,0.5,0.5,1.25,1.5,0.33,2.39,1.89,241.53,2.5,12.4,5.0,2.25,8.25,12.5,9.25,6.0,6.75,2.0,1.25,1.75,0.5,0.75,1.0,0.08,0.08,0.95,995.16,-11.4,42.0
2.42,1.25,1.25,0.25,1.5,3.0,1.5,1.0,1.5,0.5,0.5,1.25,1.0,1.25,0.64,2.83,1.58,234.06,2.7,8.8,6.25,2.0,8.75,14.5,10.5,6.5,6.75,1.25,1.25,3.5,0.5,1.0,0.5,0.08,0.14,1.02,1034.78,-11.4,42.0
2.44,1.5,1.0,1.0,1.5,2.5,1.75,0.75,2.0,0.75,0.0,0.25,0.75,1.25,1.14,4.08,0.27,225.93,4.0,17.8,6.25,2.0,9.25,13.0,12.0,6.0,7.0,2.0,0.75,1.75,1.25,0.5,0.75,0.02,0.14,1.08,1084.33,-11.7,44.3
2.46,1.25,0.0,0.25,0.0,3.5,0.0,0.5,1.5,0.0,0.0,1.25,0.5,1.25,2.27,6.33,-1.36,197.2,1.9,0.7,6.75,3.25,9.5,0.0,11.0,6.0,5.75,0.5,1.25,2.25,0.25,1.0,0.25,0.08,0.2,1.08,995.27,-11.5,45.6
2.48,0.0,0.0,0.0,0.25,0.0,0.0,0.0,0.5,0.0,0.0,0.0,3.25,4.5,0.02,-0.98,-0.86,169.17,-4.4,-100.6,7.5,2.0,9.75,15.0,11.5,4.75,6.25,0.0,0.5,0.75,0.25,0.5,0.25,0.02,0.2,1.08,995.76,-15.1,55.0
2.5,0.0,0.0,0.0,0.0,0.0,0.0,0.0,0.5,0.0,3.5,1.5,6.25,6.5,0.83,0.58,2.33,196.39,-4.5,-98.6,8.25,2.5,12.0,15.0,13.5,4.5,5.75,0.0,0.75,1.0,0.25,0.5,0.5,0.02,0.27,1.02,1027.65,-15.3,54.6
2.52,0.5,0.0,0.0,0.75,0.0,0.75,0.0,4.0,0.75,6.0,6.25,7.5,7.75,-0.05,0.14,1.64,291.29,-3.4,-78.2,8.25,4.25,11.0,17.0,13.5,2.25,5.25,0.0,0.75,2.25,0.75,1.0,1.0,0.08,0.33,1.2,1115.08,-15.2,50.7
2.54,0.0,0.0,0.25,0.5,3.5,1.75,0.5,4.5,1.5,6.75,6.25,7.5,7.75,0.08,0.08,1.27,425.89,-4.0,-62.7,10.0,4.0,12.5,16.0,12.0,2.0,4.75,0.0,0.75,2.5,1.5,1.0,1.0,0.2,0.39,1.33,1187.66,-16.5,50.0
2.56,0.0,0.0,0.0,0.25,3.75,1.25,0.25,4.5,1.25,6.75,7.5,7.5,9.0,-0.11,0.02,1.02,577.41,-4.2,-66.7,9.0,2.5,12.0,11.0,9.25,0.0,5.5,0.25,0.25,0.75,1.0,0.25,1.25,0.27,0.58,1.64,1123.75,-19.8,54.3
2.58,0.0,1.25,0.0,1.25,0.0,3.0,0.0,4.5,1.75,8.0,8.5,8.75,9.0,-0.05,-0.05,0.95,707.26,-3.6,-68.4,8.25,2.5,9.0,9.0,6.25,0.0,5.5,0.0,0.25,0.75,0.25,0.25,0.25,0.39,1.02,2.2,937.45,-21.5,60.1
2.6,0.5,1.25,0.5,1.25,1.25,3.0,0.25,5.25,1.75,8.5,8.5,9.0,9.25,-0.05,-0.05,0.95,808.64,-3.0,-61.9,6.75,1.75,7.25,5.75,3.75,0.0,4.75,0.0,0.0,0.75,0.0,0.0,0.25,0.58,1.77,2.58,681.82,-23.1,61.9
2.62,0.5,1.0,0.25,1.25,3.0,3.0,1.0,5.25,2.0,8.75,9.0,9.0,9.5,-0.05,-0.05,0.95,893.71,-3.0,-58.6,4.75,1.0,4.75,4.0,0.5,0.5,2.75,0.0,0.0,0.75,0.75,0.0,1.0,0.89,1.27,3.02,443.3,-22.6,48.1
2.64,0.5,1.0,0.25,1.75,2.25,3.0,1.25,5.5,2.25,9.0,8.75,8.75,9.75,-0.05,-0.05,0.95,959.21,-2.9,-58.9,1.0,0.5,1.5,2.0,1.0,0.0,0.0,0.0,0.0,0.75,0.0,0.25,0.25,0.52,-0.67,2.58,248.07,-15.6,41.0
2.66,0.5,1.0,0.25,0.75,3.5,2.5,1.0,4.5,1.75,7.75,7.5,7.5,8.25,-0.05,-0.05,0.95,942.92,-3.1,-55.9,1.0,0.5,1.75,1.25,1.5,0.0,0.0,0.0,0.0,0.75,0.0,0.25,0.25,0.27,-0.48,0.77,113.15,-14.8,40.8
2.68,0.25,0.0,0.25,1.25,1.25,3.75,0.75,4.75,2.75,8.25,7.5,8.75,8.25,-0.05,-0.05,0.95,913.51,-3.6,-63.9,0.75,0.25,1.5,1.25,2.5,0.0,0.0,0.0,0.0,0.75,0.0,0.25,0.25,0.95,-0.48,2.02,17.4,-10.8,38.5
2.7,0.0,0.5,0.25,2.0,3.5,2.75,1.5,5.75,3.5,8.0,8.5,8.25,9.0,-0.05,-0.05,0.95,904.9,-2.6,-56.2,0.75,0.0,1.5,1.0,2.5,0.0,0.0,0.0,0.0,0.75,0.0,0.25,0.25,0.89,-0.86,0.77,0.0,-10.6,35.7
2.72,0.0,0.75,0.5,1.75,4.5,2.5,1.25,5.5,3.75,7.0,7.5,7.75,7.5,-0.05,-0.05,0.95,870.21,-2.1,-50.5,1.0,0.25,1.75,1.0,2.5,0.0,0.0,0.0,0.0,0.75,0.0,0.0,0.25,0.45,-0.55,0.52,0.0,-12.3,44.9
2.74,1.25,1.25,0.0,4.25,2.25,4.0,1.5,5.5,4.25,6.25,7.25,6.75,7.75,-0.05,-0.05,0.95,834.9,-0.9,-42.6,0.5,0.5,1.5,0.75,2.5,0.0,0.0,0.0,0.0,0.75,0.0,0.25,0.25,0.27,-0.48,0.52,0.0,-9.7,37.3
2.76,1.75,1.25,0.0,4.0,3.75,4.0,2.5,5.75,4.25,6.75,7.5,7.25,7.25,-0.05,-0.05,0.95,821.1,-0.5,-38.7,0.5,0.25,1.0,0.75,2.5,0.0,0.0,0.0,0.0,0.75,0.0,0.25,0.25,0.2,-0.36,0.7,0.0,-7.4,33.1
2.78,1.25,1.25,0.25,4.5,3.5,5.0,3.25,5.75,4.5,5.75,7.25,6.75,6.5,-0.05,-0.05,0.95,811.86,-0.2,-34.7,0.5,0.5,1.25,0.75,2.5,0.5,0.0,0.0,0.5,2.25,0.0,1.0,0.25,0.33,-0.36,0.83,0.0,-3.9,6.2
2.8,1.75,1.25,2.75,5.25,0.0,5.0,3.75,5.75,4.75,5.25,6.75,5.75,6.0,-0.05,-0.05,0.95,784.76,2.7,-31.0,0.5,0.25,2.0,0.5,4.5,0.0,0.25,0.25,0.0,0.75,0.25,0.0,1.0,0.45,-0.23,0.77,57.88,-6.1,28.5
2.82,2.0,1.25,3.75,6.0,6.0,5.25,3.75,5.75,4.75,4.5,6.0,5.0,5.25,-0.05,-0.05,0.95,805.41,3.1,-14.1,0.5,0.25,1.25,0.5,2.25,0.0,0.0,0.0,0.0,0.5,0.0,0.0,0.25,0.45,-0.05,0.83,81.2,-9.8,42.9
2.84,2.0,1.25,4.75,7.5,5.75,5.75,4.75,5.5,4.5,3.5,5.0,3.5,4.25,-0.05,-0.05,0.95,823.26,4.6,-3.7,0.5,0.25,1.0,0.5,2.25,0.0,0.0,0.0,0.0,0.75,0.25,0.0,0.25,0.33,0.2,1.08,94.93,-7.6,32.6
2.86,2.0,1.5,5.25,8.5,6.25,5.75,5.75,5.0,4.25,3.25,4.25,3.25,3.25,-0.05,0.02,0.95,851.22,5.8,3.4,0.5,0.0,1.0,0.5,1.5,0.25,0.0,0.0,0.0,0.5,0.25,0.25,0.25,0.33,0.39,1.08,93.12,-8.9,24.4
2.88,2.75,1.75,7.75,12.5,8.5,6.5,6.75,4.5,3.5,2.0,2.5,2.0,2.25,-0.05,0.02,0.95,920.91,8.5,22.5,0.0,0.25,0.5,0.5,1.0,0.0,0.0,0.0,0.0,0.75,0.25,0.25,0.25,0.33,0.58,1.2,82.3,-4.4,4.7
2.9,3.25,2.5,8.75,14.0,9.25,6.75,6.75,4.5,2.5,2.0,1.25,2.0,2.25,-0.05,0.02,0.95,1011.94,9.0,28.7,0.5,0.25,0.75,0.5,1.0,0.0,0.0,0.0,0.0,0.75,0.25,0.25,0.25,0.27,0.64,1.58,69.44,-9.3,17.1
2.92,4.25,2.75,9.5,16.5,10.0,7.0,6.75,3.75,1.25,2.0,0.75,1.75,2.25,-0.05,0.02,1.02,1106.21,10.0,35.1,0.5,0.25,0.5,0.5,1.0,0.0,0.0,0.0,0.0,0.5,0.25,0.0,0.25,0.27,0.7,1.7,61.17,-9.1,28.2
2.94,4.75,1.75,9.75,16.0,9.75,6.5,6.5,2.5,0.5,0.0,0.0,0.75,2.25,-0.05,0.08,1.08,1123.47,11.9,44.3,0.5,0.25,0.5,0.5,1.5,0.0,0.0,0.0,0.0,1.0,0.0,0.0,0.25,0.33,1.08,2.39,61.26,-4.9,25.6
2.96,4.25,1.25,10.5,16.5,10.0,5.75,6.0,2.5,1.0,0.5,0.0,0.5,0.5,-0.11,0.14,1.08,1117.4,12.9,47.6,0.5,0.25,0.5,0.5,2.25,0.0,0.0,0.0,0.0,0.75,0.25,0.0,0.0,0.52,1.83,2.58,64.89,-5.6,36.8
2.98,5.75,2.5,10.5,17.0,12.0,4.25,6.0,2.5,1.0,1.5,0.0,1.75,0.5,-0.05,0.14,1.14,1129.19,13.1,45.4,0.5,0.25,0.5,0.5,1.75,0.0,0.0,0.0,0.0,0.75,0.25,0.0,0.25,0.52,2.58,2.02,69.71,-5.7,27.4
3.0,6.5,3.0,11.5,16.5,14.5,5.25,5.5,2.75,1.0,1.75,1.25,1.75,1.75,-0.05,0.14,1.14,1215.56,11.8,41.2,0.5,0.25,0.5,0.5,1.25,0.0,0.0,0.0,0.0,0.5,0.0,0.0,0.0,-0.11,2.89,1.39,65.26,-9.6,46.5
3.02,7.25,2.5,12.5,17.0,14.5,1.5,4.25,2.5,0.75,0.75,1.25,0.25,2.0,-0.11,0.2,1.27,1269.2,14.5,47.3,1.5,0.25,0.5,1.5,1.0,1.25,0.0,0.25,0.0,0.5,0.25,0.25,1.0,-1.17,3.27,1.14,83.69,-5.6,21.6
3.04,7.5,2.5,11.5,16.0,12.0,1.75,1.75,1.25,0.5,0.0,0.0,0.25,0.5,-0.17,0.27,1.27,1220.38,16.5,57.9,0.5,1.0,1.75,0.5,4.75,0.0,0.0,0.25,0.0,0.5,0.5,0.0,1.0,-2.05,4.39,0.39,121.64,-5.8,33.2
3.06,7.5,2.5,11.5,15.5,10.0,1.0,1.75,0.75,0.5,0.0,0.0,0.75,0.5,-0.23,0.33,1.39,1104.78,18.1,57.7,0.25,0.25,0.5,0.5,1.0,0.0,0.0,0.0,0.0,0.75,0.25,0.0,0.25,-1.8,4.7,-0.17,119.41,-5.9,17.4
3.08,7.5,2.75,10.5,14.0,8.75,0.25,4.0,2.25,0.75,0.0,0.0,0.5,1.25,-0.3,0.45,1.58,984.84,17.7,52.8,0.5,0.25,1.75,0.5,3.0,0.0,0.5,0.5,0.0,1.5,0.0,1.0,1.0,0.27,-1.92,2.64,140.17,-5.2,4.5
3.1,6.75,2.75,8.75,12.0,7.5,1.25,3.25,0.5,1.0,0.5,0.0,1.25,1.5,-0.3,0.95,2.08,854.59,17.0,49.4,1.5,0.75,0.5,1.0,3.25,0.0,0.0,0.25,0.25,4.0,1.5,4.5,5.0,0.08,-1.55,2.7,205.04,-0.2,-42.5
3.12,4.25,1.25,7.0,7.5,6.75,0.25,1.75,0.5,0.0,0.0,0.0,0.25,0.5,-0.48,2.02,2.95,653.74,18.0,57.6,1.5,0.75,1.5,1.25,3.0,0.0,0.0,0.5,0.25,5.75,2.75,6.5,8.25,-0.73,0.33,0.52,301.65,0.0,-53.2
3.14,2.0,0.0,3.0,4.25,3.75,0.25,0.0,0.5,0.0,0.0,0.0,0.25,0.5,-0.48,1.39,3.58,412.35,14.9,50.2,0.5,0.0,1.5,0.5,3.75,0.0,0.0,0.5,0.25,7.25,2.0,6.5,8.5,-0.61,0.33,1.95,399.13,2.8,-62.1
3.16,1.5,0.5,1.25,3.75,3.0,0.0,0.0,0.5,0.75,0.0,0.0,0.25,0.25,-0.3,-0.67,2.52,251.44,12.9,46.6,0.75,0.75,1.5,1.25,4.5,0.5,0.0,3.25,0.75,8.5,4.75,7.5,9.75,0.7,0.27,1.64,561.83,2.5,-55.0
3.18,0.25,0.0,2.75,1.5,0.0,0.0,0.25,1.75,0.0,0.0,1.25,0.25,1.0,-0.05,-0.42,-0.36,117.05,13.2,-1.0,0.75,0.75,1.75,1.0,4.25,2.5,0.0,3.5,1.25,9.5,6.5,8.0,9.75,-0.11,0.08,1.14,712.8,2.8,-53.7
3.2,0.25,0.0,0.75,1.25,1.75,0.0,0.0,0.5,0.0,0.0,0.0,0.25,0.25,-0.48,-0.48,2.02,1.07,8.2,33.5,0.5,1.0,1.5,1.5,4.25,3.25,0.0,4.75,1.25,9.5,7.5,8.0,9.75,0.08,0.08,1.02,852.32,3.2,-51.9
3.22,0.0,0.0,0.5,1.25,0.0,0.0,0.0,0.5,0.0,0.0,0.0,0.25,0.25,-0.67,-0.67,1.33,0.0,11.4,11.4,1.25,1.0,1.75,1.75,3.75,3.75,0.25,4.75,1.25,9.5,7.75,8.0,9.75,0.14,0.08,0.95,951.6,2.4,-49.3
3.24,0.5,0.0,0.25,1.25,2.25,0.0,0.0,0.5,0.0,0.0,0.0,0.25,0.25,-0.73,-0.67,0.77,0.0,5.3,35.7,0.5,1.0,1.0,2.0,4.5,4.5,0.0,4.75,1.25,9.5,6.75,7.0,9.75,0.14,0.08,0.95,997.19,4.3,-48.1
3.26,0.0,0.0,2.5,1.0,0.5,0.0,0.0,0.5,0.75,1.0,0.0,1.0,0.25,-0.48,-0.55,0.45,0.0,13.6,-1.6,0.5,1.25,0.0,0.5,5.0,3.75,0.0,4.75,1.25,9.5,7.0,7.25,9.0,0.14,0.08,0.95,980.93,5.2,-52.3
3.28,1.5,1.25,2.25,1.75,3.75,1.0,0.5,1.75,0.75,0.5,1.25,1.0,1.0,-0.23,-0.48,0.39,11.21,7.3,18.0,0.5,1.25,0.25,0.5,2.75,2.75,0.0,4.75,1.25,9.0,5.75,7.25,8.25,0.14,0.08,0.95,910.58,4.8,-57.8
3.3,1.5,0.5,1.75,1.75,3.75,1.5,0.5,2.25,0.75,0.5,1.25,0.75,1.0,-0.11,-0.42,0.39,98.18,4.7,13.9,0.25,0.75,1.5,0.5,4.75,2.75,0.0,5.0,1.25,7.75,6.5,5.75,8.25,0.14,0.02,0.95,845.9,3.9,-49.4
3.32,1.5,1.0,2.5,1.0,3.75,1.25,0.5,2.0,0.75,0.5,1.25,1.0,1.0,-0.23,-0.3,0.39,173.55,6.5,15.2,0.5,0.75,0.25,0.75,3.25,3.5,0.0,4.75,1.25,7.75,4.75,5.75,7.75,0.08,0.08,0.95,746.09,5.6,-52.4
3.34,1.5,0.75,2.25,1.75,3.75,1.75,0.5,2.0,0.5,0.75,1.25,1.25,1.25,-0.36,-0.23,0.64,226.05,5.2,11.9,0.5,0.75,0.25,1.5,3.5,4.0,0.0,4.75,1.5,7.0,4.75,5.25,6.75,0.14,0.02,0.95,663.75,5.0,-45.9
3.36,1.5,1.25,2.0,1.5,3.5,1.75,0.5,1.75,0.5,0.5,1.25,1.75,1.25,-0.36,-0.17,0.83,263.57,5.5,11.0,0.0,0.75,0.75,3.25,4.75,4.5,0.5,4.75,1.75,6.5,4.75,4.75,6.0,0.14,0.08,0.95,611.14,3.7,-35.0
3.38,1.5,1.25,2.0,1.75,3.75,1.75,0.5,1.75,0.5,0.5,1.25,1.5,1.25,-0.3,0.02,0.89,283.39,5.5,13.8,0.5,0.75,0.0,3.25,4.75,4.5,0.0,4.75,1.75,6.25,4.5,4.0,5.75,0.14,0.08,0.95,570.74,4.5,-33.3
3.4,1.5,1.25,2.0,2.25,3.75,1.25,0.5,1.75,0.25,1.0,1.25,1.0,1.25,-0.23,0.2,0.95,291.01,5.8,16.0,1.0,0.75,1.5,3.25,5.0,4.5,1.0,4.75,1.75,5.75,3.75,3.5,4.75,0.14,0.08,0.95,534.65,2.0,-22.9
3.42,1.5,1.25,1.75,1.5,3.75,1.75,0.5,1.75,0.5,0.5,1.0,1.75,1.25,-0.17,0.45,1.14,294.71,4.9,12.1,1.5,0.75,1.75,5.0,5.75,4.75,1.5,4.25,2.0,5.0,2.75,2.5,4.0,0.08,0.08,0.95,522.23,0.3,-9.3
3.44,1.25,0.5,1.75,1.5,3.75,1.25,0.5,1.75,0.75,0.5,1.25,1.75,1.25,-0.05,0.45,1.39,288.22,5.1,4.8,1.75,1.0,2.25,5.5,6.5,5.5,2.25,3.75,2.0,3.75,2.25,2.0,3.0,0.08,0.08,0.95,525.68,-1.2,2.8
3.46,1.5,0.5,1.5,1.5,3.75,1.75,0.5,1.75,0.5,0.5,1.25,1.75,1.25,-0.05,0.58,1.58,279.79,4.2,6.5,2.0,1.0,3.5,6.0,6.75,5.75,1.75,3.5,1.75,3.5,1.5,1.0,2.0,0.08,0.08,0.95,532.76,-2.6,14.5
3.48,1.25,1.0,1.5,1.5,3.5,1.0,0.5,1.75,0.25,1.0,1.0,1.75,1.25,-0.11,0.58,1.77,265.68,4.5,5.6,2.25,1.5,4.25,7.25,7.75,6.0,2.75,3.5,1.75,3.5,1.5,0.75,1.5,0.08,0.08,0.95,571.93,-4.1,21.4
3.5,1.25,1.0,1.5,1.75,3.5,1.75,0.5,1.75,0.25,1.25,1.0,1.75,1.25,-0.17,0.7,2.02,258.93,3.3,6.3,3.0,1.75,4.75,8.5,8.25,6.25,3.25,3.5,1.25,3.0,1.25,1.0,1.25,0.08,0.08,0.95,627.77,-5.5,27.2
3.52,1.25,1.25,1.75,1.25,3.75,1.75,0.5,1.75,0.25,0.0,1.25,1.25,1.25,-0.17,0.95,2.39,248.98,4.8,15.7,3.5,2.0,6.25,9.25,8.5,6.5,4.0,2.75,1.25,2.25,0.75,0.75,1.25,0.08,0.08,0.95,694.94,-7.7,34.4
3.54,1.25,1.0,1.5,1.5,3.5,1.25,0.5,1.75,0.25,0.5,1.0,1.75,1.25,-0.17,1.52,2.14,246.57,4.7,8.3,3.5,2.25,7.5,12.0,10.5,6.75,4.75,2.0,0.5,1.75,0.5,0.5,0.5,0.08,0.08,1.02,778.7,-9.3,43.9
3.56,1.25,0.5,1.25,1.0,3.5,1.25,0.5,1.75,0.25,1.0,1.25,1.5,1.25,0.14,1.89,2.02,238.17,2.9,1.1,4.5,0.0,8.25,11.5,11.0,6.75,5.5,2.0,0.5,2.0,0.25,0.5,0.25,0.08,0.14,1.02,844.04,-10.0,43.2
3.58,1.25,1.0,1.25,1.25,3.5,1.75,0.5,1.5,0.25,0.5,0.5,1.75,1.25,0.58,2.2,1.89,232.62,3.3,10.6,5.5,1.25,9.0,14.5,11.5,6.75,5.75,2.0,0.5,1.75,0.25,0.5,1.0,0.02,0.14,1.08,943.02,-10.9,44.9
3.6,1.5,1.25,1.0,1.75,3.5,1.25,0.5,1.25,0.25,0.5,1.25,1.25,1.25,1.45,4.33,0.95,230.45,5.0,13.8,6.25,1.5,8.75,13.5,12.0,6.5,5.5,0.5,0.5,1.5,0.25,0.5,1.0,0.02,0.2,1.02,1002.23,-11.7,48.3
3.62,0.75,0.25,1.25,1.5,3.5,1.5,0.25,1.5,0.25,0.0,0.75,1.5,2.0,3.2,7.27,1.02,224.06,2.1,1.2,6.75,1.75,9.5,15.0,13.5,6.0,4.75,0.0,0.5,1.25,0.0,0.25,0.75,0.08,0.2,1.08,1074.64,-12.6,52.8
3.64,1.25,0.0,0.25,1.0,0.0,0.25,0.5,0.75,0.25,2.0,1.5,5.75,4.25,-0.23,-0.8,3.08,232.8,2.0,-68.7,0.0,3.5,10.0,17.0,15.0,6.0,4.75,0.0,1.0,3.5,0.25,1.0,0.75,0.02,0.27,1.08,1130.13,-9.3,42.2
3.66,0.75,0.0,1.0,2.5,0.0,1.75,0.0,2.5,1.75,0.0,4.0,7.5,8.25,0.89,0.39,2.08,289.33,1.4,-62.2,7.0,2.75,11.0,16.5,13.0,4.75,3.75,0.0,0.5,2.25,1.0,0.25,0.75,-0.05,0.27,1.2,1184.63,-13.6,50.6
3.68,0.0,0.0,0.0,0.75,0.0,1.0,0.0,0.5,1.0,6.5,6.0,8.0,8.25,0.33,0.45,2.52,369.87,-2.7,-84.9,8.5,2.5,11.0,14.5,12.0,2.25,2.75,0.0,0.25,1.0,0.25,0.25,0.5,0.14,0.39,1.27,1155.95,-16.5,57.7
3.7,0.0,0.0,1.0,0.25,3.5,2.5,0.0,1.5,1.5,8.75,0.5,9.0,8.25,-0.61,0.27,1.45,473.17,-5.3,-63.0,8.75,2.5,11.0,13.0,11.0,1.0,3.0,0.0,0.25,1.25,0.25,0.25,0.5,0.14,0.45,1.58,1087.53,-17.8,57.7
3.72,0.25,1.25,1.0,1.5,3.5,3.75,0.0,4.75,2.25,8.5,9.25,9.25,9.0,0.02,0.02,1.08,656.62,-2.5,-54.4,8.25,2.5,10.0,11.0,8.25,0.25,4.25,0.0,0.0,0.75,0.25,0.25,0.25,0.33,0.7,1.7,946.83,-20.1,60.5
3.74,1.0,1.25,0.0,1.75,3.5,3.0,0.75,5.25,2.0,9.25,9.5,9.5,9.5,-0.05,0.02,1.02,824.92,-2.6,-55.8,7.5,2.0,8.5,7.75,6.0,0.75,5.25,0.0,0.0,0.75,0.25,0.25,0.25,0.45,1.27,2.39,775.72,-20.6,59.2
3.76,1.5,1.25,0.0,1.75,1.25,2.75,1.25,5.5,2.0,9.0,10.0,9.25,9.5,-0.05,-0.05,0.95,949.65,-1.9,-59.5,5.5,0.75,6.25,5.5,3.75,0.25,3.25,0.0,0.0,0.75,0.25,0.25,0.25,0.64,1.95,2.95,562.19,-21.5,56.6
3.78,1.5,1.25,0.25,1.75,0.0,2.5,1.25,5.5,2.0,8.5,9.5,9.0,9.5,-0.05,-0.05,0.95,994.81,-1.6,-61.9,1.75,0.75,4.5,3.25,3.0,0.0,1.25,0.0,0.0,0.75,0.0,0.25,0.25,1.02,1.02,3.58,359.79,-18.8,51.1
3.8,1.5,1.25,0.0,1.5,0.5,3.5,1.25,5.25,2.5,8.75,9.5,9.0,9.0,-0.05,-0.05,0.95,1007.39,-2.0,-59.6,0.75,0.5,0.5,2.0,2.5,0.0,0.0,0.0,0.0,0.75,0.0,0.25,0.25,0.2,-0.86,1.77,208.13,-8.0,39.4
3.82,1.25,1.25,0.0,1.5,3.5,3.5,1.5,4.75,2.5,8.5,9.5,8.75,9.0,-0.05,-0.05,0.95,998.99,-2.0,-52.8,0.5,0.75,1.5,1.5,2.5,0.0,0.0,0.0,0.0,1.0,0.0,0.0,0.25,0.58,-0.92,2.27,84.63,-9.8,42.1
3.84,1.5,1.25,0.0,1.75,2.25,3.0,1.75,4.5,2.75,8.0,9.5,8.5,9.0,-0.05,-0.05,0.95,978.38,-1.3,-54.6,0.5,0.5,1.5,1.25,3.0,0.0,0.0,0.0,0.0,0.75,0.0,0.0,0.25,1.02,-0.92,0.7,4.66,-9.3,44.1
3.86,1.5,1.25,1.5,1.75,3.5,3.0,2.25,4.5,3.0,8.0,9.25,8.25,8.5,-0.05,-0.05,0.95,967.52,0.0,-47.3,0.5,0.5,1.5,1.0,2.75,0.0,0.0,0.0,0.0,0.75,0.0,0.0,0.25,0.7,-0.67,0.33,0.0,-9.5,43.3
3.88,1.5,0.75,1.75,1.75,0.5,3.5,2.5,4.5,3.25,7.25,9.0,7.75,8.25,-0.05,-0.05,0.95,912.6,0.3,-52.7,0.5,0.5,1.25,1.0,3.0,0.0,0.0,0.0,0.0,1.5,0.0,0.0,0.25,0.39,-0.48,0.14,0.0,-6.0,32.7
3.9,1.5,1.0,2.5,2.0,3.5,3.5,3.25,4.5,3.5,6.5,9.0,7.5,7.75,-0.05,-0.05,0.95,874.0,1.3,-41.4,1.5,0.5,1.5,0.75,4.75,0.0,0.0,0.5,0.0,0.75,0.25,0.0,1.0,0.27,-0.3,0.27,0.88,-6.3,33.7
3.92,1.5,1.25,1.25,3.75,3.5,3.5,3.75,4.5,3.75,6.75,8.75,7.5,7.25,-0.05,-0.05,0.95,846.64,1.2,-38.9,0.5,0.25,1.0,0.5,2.5,0.0,0.0,0.25,0.0,0.75,0.0,0.0,0.25,0.27,-0.36,0.58,12.5,-6.0,34.9
3.94,2.0,1.25,4.75,3.75,3.75,3.75,4.25,4.5,4.25,6.0,8.5,7.5,7.0,-0.05,0.02,0.95,849.84,4.1,-29.8,0.5,0.25,0.75,0.75,2.5,0.0,0.0,0.0,0.0,0.75,0.0,0.0,0.25,0.39,-0.42,0.77,24.69,-6.1,37.7
3.96,2.5,1.25,5.5,4.0,3.75,4.0,3.75,4.5,4.5,5.25,8.0,6.75,6.5,-0.05,-0.05,0.95,843.56,4.9,-24.6,0.5,0.25,1.25,0.5,2.75,0.0,0.0,0.0,0.0,1.25,0.0,0.0,0.25,0.39,-0.17,0.77,41.28,-6.1,31.4
3.98,2.5,1.25,6.5,4.5,3.75,4.0,4.5,4.5,4.5,5.25,7.5,6.5,5.75,-0.05,-0.05,0.95,863.55,6.0,-20.1,0.75,0.25,1.0,0.5,1.75,0.0,0.0,0.0,0.0,0.75,0.0,0.0,0.25,0.27,0.14,0.77,55.31,-9.7,37.9
4.0,2.75,1.25,6.75,6.25,3.5,4.0,5.0,4.5,4.75,4.75,7.0,5.75,5.5,-0.05,0.02,0.95,882.78,6.9,-14.7,0.5,0.5,1.0,0.5,2.5,0.0,0.0,0.0,0.0,0.75,0.0,0.0,0.25,0.14,0.39,0.83,74.56,-7.2,40.3
4.02,3.25,1.25,8.0,6.0,5.25,4.5,6.0,4.5,4.75,3.75,6.5,5.0,4.25,-0.05,0.02,0.95,911.25,8.1,-4.9,0.5,0.25,0.75,0.5,2.5,0.0,0.0,0.0,0.0,0.75,0.0,0.0,0.25,0.08,0.52,0.89,86.79,-5.6,36.8
4.04,3.25,1.25,8.5,7.5,5.25,5.0,6.5,4.5,4.75,3.75,5.75,3.5,4.25,-0.05,0.02,0.95,940.13,8.4,1.0,0.5,0.25,0.5,0.5,2.5,0.0,0.0,0.0,0.0,0.75,0.0,0.0,0.25,0.02,0.52,1.14,91.53,-4.1,35.8
4.06,3.25,1.25,9.5,8.25,6.5,5.0,7.0,4.5,4.75,3.0,4.75,3.0,2.75,-0.05,0.02,0.95,969.75,9.7,9.9,0.5,0.25,0.75,0.5,1.5,0.0,0.0,0.0,0.0,0.75,0.0,0.25,0.25,-0.05,0.77,1.52,82.34,-7.8,25.7
4.08,4.25,1.5,10.0,9.5,6.75,5.75,7.25,3.5,4.25,2.0,3.75,3.0,2.25,-0.05,0.02,0.95,999.5,11.1,18.6,0.5,0.25,0.5,0.5,2.25,0.0,0.0,0.0,0.0,0.75,0.0,0.0,0.25,0.02,1.14,1.89,79.78,-4.5,34.8
4.1,5.0,1.5,11.0,12.5,8.25,6.0,7.0,3.0,3.75,0.75,2.5,1.75,2.25,-0.05,0.02,0.95,1041.5,12.3,30.2,0.5,0.25,0.75,0.5,1.25,0.0,0.0,0.0,0.0,0.75,0.0,0.0,0.25,0.02,1.77,2.14,72.64,-8.5,31.5
4.12,5.5,2.0,11.5,14.0,8.5,6.25,7.25,3.0,3.0,1.25,1.25,1.75,2.25,-0.05,0.02,1.02,1098.19,12.5,34.2,0.5,0.25,0.5,0.5,1.5,0.0,0.0,0.0,0.0,0.0,0.0,0.0,0.25,-0.05,2.58,2.02,64.45,-10.3,52.5
4.14,6.0,1.25,12.5,14.0,10.0,5.0,6.75,2.75,1.75,0.5,2.0,1.0,2.25,0.02,0.02,1.08,1132.85,13.7,38.3,0.25,1.25,1.0,1.25,1.25,1.25,0.0,0.0,0.0,0.75,0.0,0.0,0.0,-0.23,3.02,1.27,78.07,-5.9,48.3
4.16,5.75,1.25,12.5,14.5,10.5,5.75,6.0,2.0,1.75,1.25,0.0,2.0,0.5,-0.05,0.08,1.14,1146.12,13.8,43.3,0.5,0.25,1.0,0.5,1.0,0.0,0.0,0.0,0.0,0.5,0.0,0.0,0.25,-0.86,3.08,0.89,79.7,-12.5,38.2
4.18,6.0,1.25,12.5,15.0,10.0,4.5,6.75,1.5,1.5,1.5,0.25,0.5,2.0,-0.05,0.08,1.08,1135.87,14.4,43.6,1.5,0.75,0.5,2.0,1.0,0.0,0.0,0.0,0.0,0.75,0.0,0.25,0.25,-1.67,3.33,0.58,94.68,-13.5,43.9
4.2,6.5,1.25,13.0,15.5,9.0,4.0,5.25,1.0,0.75,1.25,0.5,1.75,1.25,-0.05,0.14,1.14,1109.13,15.8,44.9,0.5,0.25,0.5,0.5,1.75,0.0,0.0,0.0,0.0,1.5,0.0,1.0,0.25,-2.98,5.33,1.14,96.95,-3.5,-1.4
4.22,7.75,2.25,15.5,17.0,11.5,2.75,4.25,2.5,1.0,1.25,1.5,2.0,1.75,-0.11,0.14,1.27,1172.29,15.7,42.7,0.5,0.25,0.5,0.5,1.25,0.0,0.0,0.0,0.0,3.5,0.25,3.5,3.75,0.14,-0.05,0.52,145.22,2.1,-61.4
4.24,7.75,1.5,15.5,14.0,10.0,1.75,1.75,2.5,1.0,0.75,1.25,1.0,1.75,-0.11,0.2,1.39,1157.7,16.8,45.2,0.5,0.25,0.5,0.5,2.25,0.0,0.0,0.25,0.25,6.0,0.75,5.75,6.25,-0.55,0.58,1.52,224.2,3.5,-66.9
4.26,7.75,1.25,14.0,11.5,7.0,1.25,0.0,0.75,0.25,0.5,0.25,0.75,1.0,-0.23,0.27,1.64,1040.13,19.9,54.3,0.0,0.5,0.25,1.5,1.75,1.25,0.0,2.75,0.75,7.75,2.75,5.75,7.75,0.2,0.39,2.33,331.68,5.3,-63.9
4.28,6.25,1.25,10.5,7.75,6.25,0.0,0.5,0.5,0.5,0.5,0.0,0.25,0.25,-0.42,0.52,1.77,815.74,21.0,58.8,0.5,0.25,0.25,0.5,2.5,0.0,0.0,3.25,0.75,8.0,2.75,6.5,7.75,0.02,0.08,1.08,440.35,4.9,-67.9
4.3,5.0,0.0,8.75,6.0,4.25,0.25,0.75,0.5,0.5,0.0,0.0,0.25,0.25,-0.36,1.08,2.33,578.54,22.3,57.7,0.5,0.5,1.75,1.75,5.0,2.0,0.0,3.5,1.0,8.0,4.75,6.5,8.25,0.14,0.08,0.95,583.45,2.7,-46.9
4.32,3.25,0.0,6.25,4.25,3.0,0.25,0.0,0.5,0.25,0.5,0.0,0.25,0.5,-0.3,1.27,2.77,369.75,20.0,50.4,0.0,0.25,1.75,2.0,3.25,2.25,0.0,3.5,1.25,8.5,5.0,6.5,8.25,0.14,0.08,0.95,677.18,3.1,-53.4
4.34,1.25,0.0,3.0,1.25,1.25,0.25,0.0,0.5,0.25,0.0,0.0,0.75,0.25,-0.48,-0.23,1.7,217.5,18.8,36.1,0.0,0.5,0.0,0.5,3.0,2.0,0.0,3.5,1.25,7.75,5.0,6.25,8.0,0.14,0.08,0.95,713.16,5.4,-62.6
4.36,1.5,1.0,2.25,2.75,0.5,0.25,0.0,0.5,0.25,0.0,1.25,0.25,1.0,-0.05,-0.48,0.27,115.8,16.1,27.8,0.0,1.0,0.0,2.5,5.0,4.25,0.0,4.75,1.25,9.0,6.5,7.25,9.0,0.14,0.08,0.95,788.87,4.9,-48.7
4.38,0.5,0.0,2.0,1.25,0.0,0.25,0.0,0.5,0.25,0.5,0.0,1.0,0.25,-0.61,-0.61,1.64,16.18,15.8,7.7,0.0,0.75,0.0,0.5,5.25,3.25,0.25,4.25,1.25,8.75,5.75,6.5,8.25,0.14,0.08,0.95,807.85,5.7,-52.8
4.4,0.25,0.0,1.0,1.25,0.0,0.25,0.0,0.5,0.0,0.0,0.25,0.25,1.25,-0.42,-0.55,0.89,0.0,8.5,-7.2,0.25,0.75,0.25,0.75,3.25,2.75,0.0,4.75,1.25,8.25,4.75,6.75,8.25,0.14,0.08,0.95,805.33,5.4,-57.0
4.42,0.0,0.0,1.25,1.25,0.0,0.75,0.0,0.5,0.25,0.0,0.0,0.25,0.25,-0.11,-0.23,0.58,0.0,10.7,20.6,0.0,0.75,0.25,0.75,3.0,3.25,0.0,4.75,1.25,8.0,4.75,5.75,8.0,0.14,0.08,0.95,755.66,6.1,-55.9
4.44,0.0,0.0,0.25,1.25,0.0,0.25,0.0,0.5,0.0,0.5,0.0,0.25,0.25,-0.05,-0.11,0.33,0.0,2.8,-3.9,0.0,0.75,0.25,0.75,3.25,4.0,0.5,4.75,1.25,8.0,5.0,6.0,7.75,0.14,0.08,0.95,719.89,5.9,-53.3
4.46,1.5,1.25,2.5,1.75,3.5,1.75,0.25,2.0,1.0,0.5,1.25,2.5,1.25,-0.05,-0.05,0.27,0.0,6.3,6.7,1.5,1.75,2.25,3.0,5.25,4.75,0.25,5.75,1.75,8.5,6.5,6.25,8.25,0.14,0.08,0.95,747.18,1.8,-33.7
4.48,1.5,1.25,2.5,1.5,3.75,1.75,0.25,1.75,1.0,2.0,1.5,1.75,1.25,-0.05,0.08,0.27,113.98,4.8,4.7,1.25,1.75,1.5,3.25,5.5,5.25,0.5,5.75,1.75,8.25,6.0,5.75,8.0,0.14,0.08,0.95,779.33,2.7,-32.4
4.5,1.5,1.25,2.5,1.5,3.5,1.75,0.25,1.75,1.0,1.0,1.25,1.5,1.25,0.08,0.2,0.27,210.21,5.8,10.3,1.25,1.75,1.5,3.25,5.75,5.5,0.0,5.75,1.75,7.75,5.5,5.5,7.75,0.14,0.08,0.95,809.66,2.9,-30.4
4.52,1.5,1.25,2.5,1.25,3.5,1.5,0.25,1.75,1.0,0.75,1.25,1.75,1.25,0.2,0.39,0.27,256.79,6.3,9.0,2.0,1.75,0.5,4.25,6.25,6.0,0.5,5.75,1.75,6.75,4.75,5.25,7.0,0.14,0.08,0.95,808.79,2.7,-24.0
4.54,1.5,1.25,1.75,1.5,3.5,1.75,0.5,1.75,0.75,0.75,1.25,1.75,1.25,0.27,0.77,0.27,279.81,4.9,8.6,2.0,2.0,1.5,4.75,6.75,6.0,1.5,5.75,1.75,7.25,4.75,4.0,6.25,0.14,0.08,0.95,808.18,1.6,-17.0
4.56,1.5,1.25,1.0,1.5,3.5,1.75,0.5,1.75,0.75,1.0,1.25,1.75,1.25,0.33,1.02,0.27,284.61,3.3,5.4,1.25,1.0,1.75,5.5,6.0,6.5,1.25,5.0,2.0,6.75,2.75,3.5,4.75,0.14,0.08,0.95,769.26,1.9,-13.3
4.58,1.5,1.25,2.25,1.5,3.5,1.75,0.5,1.75,1.0,0.5,1.25,2.25,1.25,0.45,1.14,0.27,293.51,6.2,7.5,2.75,2.5,2.0,5.75,7.5,6.75,2.25,5.75,2.0,6.0,3.75,2.75,5.0,0.14,0.08,0.95,787.78,0.1,-3.6
4.6,1.25,1.25,2.5,1.25,3.5,1.75,0.5,1.5,0.75,1.5,1.25,1.75,1.25,0.45,1.2,0.27,297.06,5.2,6.4,3.0,2.5,3.0,8.0,8.0,7.0,2.75,5.75,1.75,5.75,3.0,2.5,4.0,0.14,0.08,0.95,818.36,-1.4,5.1
4.62,1.25,1.25,2.25,1.25,3.5,1.5,0.5,1.75,0.75,0.75,1.25,1.0,1.25,0.27,1.2,0.14,295.34,5.5,12.7,3.5,2.5,4.25,7.5,8.25,7.0,3.5,5.25,1.75,5.0,2.75,2.0,3.5,0.14,0.08,0.95,870.62,-3.0,10.9
4.64,1.5,1.25,1.0,1.5,3.5,1.5,0.5,1.5,0.75,0.75,1.25,1.75,1.25,3.27,7.95,-4.3,285.69,4.2,6.7,3.25,2.5,4.25,9.0,9.25,7.5,2.75,4.75,1.5,4.75,2.75,1.75,2.75,0.14,0.08,0.95,906.37,-3.2,16.0
4.66,1.0,1.25,1.5,1.5,2.25,1.75,0.5,1.5,0.75,1.25,1.25,1.75,1.25,0.27,0.7,1.2,270.25,4.0,0.0,3.5,2.5,4.5,9.5,9.25,7.75,3.5,4.75,1.25,4.25,2.5,1.25,2.25,0.14,0.08,0.95,926.66,-3.9,20.8
4.68,1.25,1.25,1.0,1.25,3.0,1.75,0.5,1.5,0.75,1.25,1.25,1.75,1.25,-0.67,1.89,1.39,255.59,2.9,1.3,3.0,2.0,5.0,9.25,9.25,7.25,3.75,3.5,1.0,3.75,0.5,1.0,1.0,0.14,0.08,0.95,884.18,-4.9,29.9
4.7,1.0,1.25,2.25,1.25,3.5,1.75,0.75,1.0,0.75,0.5,1.25,1.75,1.0,-0.3,0.08,0.83,242.39,6.5,12.0,3.25,2.0,6.25,10.0,11.0,7.5,4.75,2.75,0.5,2.0,0.5,0.75,1.0,0.08,0.08,1.02,855.31,-6.8,38.3
4.72,1.5,1.25,2.5,1.25,3.5,1.75,1.25,1.25,0.75,1.0,1.25,2.0,1.25,2.7,0.89,-1.23,253.25,6.8,9.0,4.75,1.75,5.5,11.5,11.0,7.5,4.5,3.5,0.75,3.5,0.5,1.0,1.75,0.08,0.14,1.02,879.24,-6.1,32.7
4.74,1.25,1.25,1.75,1.25,3.0,1.75,1.25,1.25,0.5,1.0,1.25,1.75,1.25,0.39,1.14,0.27,255.73,5.4,6.5,4.5,1.75,6.25,10.0,13.0,7.5,4.0,2.0,0.25,1.75,1.0,0.5,1.5,0.08,0.14,1.08,895.07,-7.0,40.2
4.76,1.5,1.25,1.5,1.25,1.75,1.75,1.25,1.0,0.5,0.75,1.25,1.75,1.25,0.02,0.33,0.08,248.76,6.7,4.7,5.75,2.0,6.25,13.5,12.0,7.75,3.0,2.0,0.25,3.0,0.0,0.25,1.0,0.02,0.2,1.02,934.55,-7.8,44.0
4.78,1.25,1.25,1.25,1.25,2.25,1.75,0.75,1.0,0.25,1.25,1.25,1.75,1.5,0.27,0.45,-0.23,239.31,4.0,0.4,5.75,2.5,7.5,14.5,14.5,7.5,2.25,2.0,0.5,3.5,1.0,1.0,1.5,0.08,0.2,1.08,1021.77,-7.8,39.6
4.8,1.25,1.0,1.75,1.25,3.5,1.75,1.25,1.0,0.25,0.5,1.25,1.75,1.25,0.2,0.52,-0.05,236.49,5.8,10.3,6.25,2.5,8.25,13.5,15.0,6.75,2.25,2.0,0.0,1.5,1.0,0.25,1.25,0.08,0.27,1.08,1079.32,-9.2,46.9
4.82,1.25,1.25,2.25,1.25,3.0,2.0,1.25,1.0,0.25,1.25,1.25,1.75,1.25,0.33,0.33,0.08,241.2,5.8,8.4,6.75,2.75,8.0,12.5,14.0,6.25,2.25,1.75,0.0,1.5,0.25,0.5,0.75,0.08,0.33,1.08,1081.54,-10.0,49.9
4.84,1.25,1.25,1.0,1.25,3.5,1.5,1.25,1.25,0.25,0.75,1.25,1.75,1.25,0.45,0.45,-0.17,243.86,4.2,7.1,7.5,3.0,8.25,12.5,12.0,6.0,1.5,0.75,0.0,3.5,0.25,1.0,0.75,0.08,0.39,1.08,1065.11,-10.5,46.6
4.86,1.25,1.0,1.5,1.25,2.5,1.75,1.25,1.0,0.25,1.25,1.0,1.75,1.25,0.52,0.52,-0.73,243.04,4.9,3.9,8.25,5.0,9.5,12.5,13.5,6.0,3.75,2.0,0.5,2.0,1.0,1.0,1.25,0.08,0.52,1.02,1113.75,-11.3,46.9
4.88,1.0,1.0,0.25,1.25,2.25,1.75,1.25,1.0,0.25,1.25,1.25,1.75,1.5,0.45,0.7,-1.11,231.76,1.6,-6.3,8.25,4.25,8.75,12.0,11.0,4.5,4.25,0.25,0.0,1.25,0.25,0.25,0.75,0.08,0.64,0.95,1072.76,-14.1,56.1
4.9,1.0,1.25,1.5,1.25,2.5,1.5,1.25,0.75,0.25,1.25,1.25,1.75,1.5,0.27,0.77,-1.23,227.73,5.1,1.3,9.0,5.25,8.5,11.0,9.75,4.5,5.5,0.5,0.0,1.25,0.25,0.25,0.75,0.02,0.64,0.89,1046.54,-14.7,56.7
4.92,1.25,1.25,2.25,1.25,3.0,1.75,1.25,1.0,0.25,0.5,1.25,1.75,1.25,0.2,0.83,-1.17,230.68,7.1,11.6,9.0,3.75,7.5,9.75,8.75,4.5,5.75,0.25,0.0,1.25,0.25,0.0,0.25,-0.17,0.89,0.83,955.7,-15.1,58.3
4.94,1.0,1.25,1.5,1.25,3.5,1.75,1.25,1.0,0.25,1.0,1.25,1.75,1.5,-0.05,1.45,-1.17,238.43,4.2,5.6,8.75,4.0,6.25,9.0,7.75,4.5,5.75,0.0,0.0,1.0,0.25,0.25,0.5,0.02,1.27,1.08,854.68,-14.9,57.8
4.96,1.25,1.0,2.25,1.25,3.5,1.75,1.25,1.0,0.0,0.5,1.25,1.5,1.25,-0.23,2.14,-0.67,244.27,6.6,14.1,8.25,4.0,4.75,7.25,6.0,3.25,5.5,0.5,0.0,1.5,0.25,0.0,0.5,0.08,1.27,0.95,719.79,-14.9,56.4
4.98,1.25,1.0,1.5,1.25,1.75,1.75,1.25,1.0,0.25,0.75,1.0,1.75,1.0,-0.55,2.08,0.39,238.1,6.4,5.6,7.5,3.0,3.25,5.75,5.0,2.25,4.25,0.25,0.0,0.75,0.25,0.0,0.25,0.33,1.27,0.58,576.95,-16.0,60.4
5.0,1.0,1.25,1.75,1.25,3.5,1.5,0.5,0.5,0.0,1.25,1.25,1.75,1.0,-0.48,2.2,-0.11,236.17,5.2,9.9,6.25,2.5,1.75,5.25,2.25,2.0,2.25,0.25,0.0,1.25,0.25,0.0,0.25,0.14,1.14,-0.17,416.82,-15.4,57.4
5.02,1.0,1.25,2.0,1.25,1.75,1.75,1.0,1.0,0.0,1.0,1.25,1.75,1.25,-0.05,2.08,-0.67,228.35,6.2,3.7,4.5,2.0,1.5,3.25,0.0,1.5,1.25,0.5,0.0,1.0,1.0,0.0,1.25,-0.92,1.2,-0.67,288.2,-14.5,38.9
5.04,1.25,1.25,1.75,1.25,3.5,1.75,0.75,0.5,0.0,0.5,1.25,1.75,1.25,0.14,1.64,-0.42,230.53,6.1,13.6,0.75,0.75,1.5,2.0,1.75,2.25,0.0,0.25,0.0,0.5,0.25,0.75,0.25,-1.67,0.39,-1.17,188.33,-6.0,32.4
5.06,1.5,1.25,1.75,1.25,2.5,1.5,1.0,0.5,0.25,0.5,1.25,1.75,1.0,0.14,0.7,0.2,228.48,8.3,12.9,0.75,0.25,0.75,1.0,2.75,0.0,0.0,0.25,0.0,0.75,0.25,0.25,0.25,-1.98,0.33,-3.73,87.91,-6.5,30.0
5.08,1.25,1.25,1.0,1.25,2.25,1.5,1.0,0.5,0.0,0.5,1.0,1.75,1.25,0.58,-0.55,-0.05,222.82,5.9,8.2,0.5,0.25,0.0,1.25,2.75,0.25,0.0,0.25,0.0,0.5,0.25,0.0,0.25,-0.55,0.83,0.83,10.14,-1.9,34.5
5.1,1.25,1.0,1.0,1.25,2.5,1.5,0.5,0.75,0.0,0.5,1.25,1.75,1.25,1.33,-2.05,-0.36,214.75,4.9,5.0,0.5,0.5,0.25,0.75,2.5,0.25,0.0,0.0,0.0,0.5,0.25,0.0,0.25,-0.23,0.95,0.14,0.0,-3.6,38.4
5.12,1.5,1.25,1.0,1.25,3.0,1.75,1.0,0.5,0.0,1.25,1.25,1.75,1.25,1.52,-2.11,0.52,217.12,4.5,7.2,0.5,0.75,0.5,0.75,1.75,0.75,0.0,0.25,0.0,1.0,0.0,0.0,0.25,-0.11,1.39,0.14,0.0,-1.9,32.1
5.14,1.25,1.25,1.25,1.25,1.25,1.5,0.5,0.5,0.0,0.5,0.75,1.75,1.25,0.89,-1.48,2.02,204.98,6.8,6.5,1.0,1.0,1.0,0.0,2.5,0.75,0.0,0.25,0.0,1.5,0.25,0.25,0.5,0.02,1.52,0.33,0.0,-3.1,22.4
5.16,1.5,1.25,1.5,1.25,2.25,1.75,0.5,0.5,0.0,0.75,1.25,1.75,1.0,3.39,5.14,0.33,206.93,6.7,10.8,0.5,0.75,0.75,0.5,2.25,2.0,0.0,0.25,0.25,0.75,0.0,0.0,0.25,0.02,1.45,0.33,15.05,0.4,35.0
5.18,1.5,1.25,1.0,1.25,0.0,1.75,0.5,1.0,0.0,0.75,1.25,1.75,1.25,0.2,-0.98,0.02,196.34,6.1,-4.1,1.25,1.5,1.75,1.25,4.5,2.0,0.0,0.25,0.25,2.75,0.25,1.0,1.0,0.2,-3.23,-0.3,98.15,-2.4,17.8
5.2,1.0,1.25,1.0,1.25,3.75,1.75,0.25,1.25,0.0,0.5,1.25,1.75,1.0,-0.05,0.02,-0.61,207.41,2.9,10.2,1.5,1.25,1.75,0.25,4.75,2.0,0.0,0.25,0.25,2.5,0.0,1.0,1.0,0.45,1.83,3.27,161.89,-1.8,18.5
5.22,1.25,1.25,1.75,1.25,3.5,1.75,0.5,0.75,0.0,0.75,1.0,1.75,1.25,-0.61,-0.42,-1.23,217.92,5.2,12.6,1.25,1.25,1.75,0.75,4.5,2.25,0.0,0.25,0.25,2.25,0.25,1.0,1.0,-0.61,0.89,-0.48,215.95,-1.9,18.3
5.24,1.25,1.0,1.0,1.25,1.75,1.5,1.25,0.5,0.0,0.75,1.25,1.75,1.0,-0.48,0.95,-0.8,216.77,6.5,4.0,1.25,1.0,1.75,1.75,4.5,2.0,0.0,0.25,0.25,2.5,0.25,1.0,1.25,-0.8,2.02,1.45,247.89,-2.5,16.1
5.26,1.25,1.25,1.5,1.25,2.5,1.25,0.75,1.0,0.0,1.0,0.25,1.75,1.25,-0.05,0.52,-1.61,217.01,5.4,10.1,0.5,0.0,0.25,1.5,2.25,1.25,0.0,0.5,0.25,0.5,0.0,0.25,0.0,-1.36,1.33,-0.92,225.61,-0.8,31.4
5.28,1.0,1.25,1.75,1.25,0.75,1.25,1.0,1.0,0.0,0.5,1.0,1.5,1.0,1.02,0.7,-1.3,204.89,8.6,6.0,0.5,0.25,0.25,0.0,1.5,0.0,0.0,0.0,0.0,0.75,0.0,0.0,0.25,-0.92,1.33,0.58,174.38,-2.2,25.4
5.3,1.25,1.25,1.0,1.25,3.0,1.25,0.75,0.5,0.0,0.5,1.25,1.75,1.0,0.2,0.95,-1.05,205.85,6.1,11.0,0.5,0.25,0.5,0.25,2.25,0.0,0.0,0.25,0.0,0.75,0.0,0.0,0.25,-1.23,0.7,1.02,125.8,-2.9,30.2
5.32,1.25,1.25,0.5,1.25,2.5,1.25,0.75,0.5,0.0,0.75,1.25,1.75,1.25,-0.55,0.64,-0.8,202.59,4.5,3.8,0.5,0.25,0.25,0.5,1.25,0.0,0.0,0.25,0.0,0.75,0.0,0.0,0.25,-1.67,0.77,0.7,87.53,-3.3,23.7
5.34,1.0,1.0,1.5,1.25,3.5,1.25,0.75,0.5,0.0,0.5,0.25,1.5,1.25,-0.92,0.27,-0.55,206.75,5.5,17.3,0.5,0.25,0.25,0.0,2.25,0.0,0.0,0.25,0.0,1.0,0.0,0.0,0.25,-1.67,0.95,0.02,68.42,0.5,22.1
5.36,1.25,1.25,0.25,1.25,2.5,1.5,0.75,0.75,0.0,0.5,1.0,1.75,1.25,-1.3,0.39,-0.23,204.08,3.3,5.3,0.0,0.25,0.25,0.5,1.5,0.0,0.0,0.0,0.0,0.5,0.0,0.25,0.25,-1.92,1.2,0.2,52.87,-1.9,18.8
5.38,1.25,1.25,1.75,1.25,3.5,1.5,1.25,1.0,0.0,0.75,0.5,1.75,0.0,-1.55,0.27,-0.3,213.79,7.3,24.7,0.5,0.25,0.25,0.5,2.5,0.0,0.0,0.0,0.0,0.75,0.0,0.0,0.25,-1.98,1.08,0.33,51.61,-2.5,34.6
5.4,0.75,1.25,1.0,1.25,2.5,1.5,0.75,0.5,0.0,0.75,1.25,1.5,1.0,-1.61,0.45,-0.36,209.54,4.6,7.4,0.25,0.25,0.25,0.5,1.5,0.0,0.0,0.0,0.0,1.25,0.0,0.0,0.25,-1.61,1.08,0.39,42.35,-0.3,14.3
5.42,1.25,1.25,1.75,1.25,2.5,1.25,0.75,0.0,0.0,0.75,0.5,1.75,1.25,-1.55,0.7,-0.55,210.47,8.0,14.5,0.0,0.25,0.25,0.5,1.5,0.5,0.0,0.0,0.0,0.5,0.0,0.0,0.25,-1.17,1.14,0.2,35.26,1.4,28.5
5.44,1.25,1.0,0.75,0.75,2.5,1.5,0.75,0.5,0.0,0.75,1.0,1.5,1.0,-1.36,1.08,-0.92,200.89,4.2,7.2,0.25,0.25,0.0,0.5,2.25,0.0,0.0,0.0,0.0,0.75,0.0,0.0,0.25,-0.86,1.2,0.2,40.99,0.7,28.7
5.46,0.0,0.0,1.25,0.0,0.5,0.25,0.75,1.0,0.0,0.0,0.0,0.25,0.25,-1.17,1.2,-1.23,154.82,8.9,8.3,0.5,0.25,0.25,0.5,1.5,0.0,0.0,0.0,0.0,0.75,0.0,0.0,0.25,-0.73,1.02,0.27,46.91,-4.0,29.4
5.48,0.75,1.0,0.0,1.25,0.0,1.25,0.0,0.5,0.0,0.5,0.0,1.75,0.25,-1.05,1.33,-1.36,124.88,3.9,1.4,0.0,0.25,0.5,0.5,1.25,0.0,0.0,0.0,0.0,0.75,0.0,0.0,0.25,-0.61,0.89,0.2,52.24,-3.1,21.2
5.5,0.5,1.25,0.25,1.25,3.0,1.0,0.5,0.5,0.0,0.5,0.75,0.25,1.25,-0.23,1.27,-1.42,118.98,1.4,18.5,0.25,0.25,0.5,0.5,1.25,0.0,0.0,0.0,0.0,0.75,0.0,0.0,0.25,-0.48,0.52,-0.05,62.49,-5.0,25.7
5.52,0.0,0.0,0.0,1.5,0.0,1.5,0.5,0.0,0.0,0.5,0.0,1.75,0.25,0.64,1.14,-1.23,102.33,1.1,-19.4,0.25,0.25,0.5,0.5,1.25,0.5,0.0,0.0,0.25,2.0,0.0,0.5,0.25,-0.55,0.27,-0.05,76.0,0.4,-6.1
5.54,1.25,1.25,2.25,1.25,3.5,1.5,0.5,0.5,0.0,0.5,1.0,1.75,1.0,0.77,0.77,-1.11,144.56,7.6,17.9,1.5,0.75,1.5,0.75,4.5,1.75,0.0,0.25,0.25,2.25,0.25,1.0,1.0,-0.8,0.02,0.02,137.19,-2.2,15.7
5.56,1.25,1.25,0.5,1.25,3.5,1.5,1.0,0.5,0.0,0.5,1.0,1.75,0.75,0.39,0.27,-1.05,173.19,4.6,15.0,1.25,0.75,0.75,0.75,2.5,1.25,0.0,0.25,0.25,2.5,0.25,1.0,1.0,-0.86,-0.11,0.2,173.7,-1.0,2.3
5.58,1.0,1.25,1.0,1.25,2.5,1.5,0.75,0.75,0.0,0.75,0.0,1.75,1.0,0.33,-0.05,-0.73,195.54,4.2,13.3,0.25,0.25,0.25,0.5,1.0,0.25,0.0,0.0,0.0,0.75,0.0,0.25,0.25,-0.8,-0.23,0.14,161.7,-2.0,13.2
5.6,1.25,1.25,0.25,1.25,3.0,1.25,1.0,0.5,0.0,0.75,1.25,1.75,1.0,0.7,-0.3,-0.3,202.58,4.2,7.0,0.5,0.25,0.5,0.5,1.25,0.0,0.0,0.0,0.0,0.75,0.0,0.0,0.25,-0.48,-0.42,-0.11,132.62,-6.6,29.7
5.62,1.25,1.25,1.5,1.25,2.25,1.25,0.75,0.5,0.0,0.5,0.75,1.75,1.0,0.89,-0.42,-0.11,208.8,7.7,13.2,0.0,0.25,0.25,0.5,1.0,0.0,0.0,0.0,0.0,0.75,0.0,0.0,0.25,-0.36,-0.86,-0.23,93.02,-0.9,15.1
5.64,1.25,1.25,1.5,1.25,3.5,1.25,0.75,0.0,0.0,0.5,0.5,1.75,1.0,0.89,-0.3,0.02,214.54,7.4,20.4,0.25,0.25,0.5,0.5,1.25,0.0,0.0,0.0,0.0,0.75,0.0,0.0,0.25,-0.17,-1.17,-0.23,71.02,-5.0,25.7
5.66,1.0,1.25,1.5,1.25,1.75,1.5,0.75,0.25,0.0,0.5,0.5,1.75,1.0,0.7,-0.11,-0.23,211.49,7.5,12.9,0.0,0.25,0.5,0.5,1.0,0.0,0.0,0.0,0.0,0.75,0.0,0.0,0.25,0.02,-1.23,-0.36,58.16,-3.7,18.5
5.68,1.25,1.25,1.75,1.25,3.5,1.25,0.75,0.5,0.0,0.5,0.5,1.75,0.5,0.64,0.14,-0.61,221.68,7.8,23.7,0.0,0.25,0.5,0.5,1.25,0.0,0.0,0.0,0.0,0.75,0.0,0.0,0.25,-0.11,-1.11,-0.11,58.03,-3.1,21.2
5.7,1.25,1.25,1.0,1.25,0.75,1.5,1.0,0.75,0.0,0.75,1.0,1.75,1.25,0.45,0.27,-0.73,216.83,6.3,-0.2,0.0,0.25,0.5,0.5,1.0,0.0,0.0,0.0,0.0,0.5,0.0,0.0,0.25,-0.3,-0.98,0.27,51.12,-5.2,25.8
5.72,1.0,1.25,1.25,1.25,3.5,1.5,0.5,0.5,0.0,0.5,0.5,1.75,1.0,0.08,0.2,-0.8,216.23,4.9,16.7,0.5,0.25,0.5,0.5,1.0,0.0,0.0,0.0,0.0,0.5,0.0,0.0,0.25,-0.42,-1.05,0.45,47.81,-8.9,35.0
5.74,1.5,1.0,1.5,1.25,3.0,1.5,0.75,0.75,0.0,0.5,0.25,1.75,1.0,0.02,0.02,-0.67,214.38,6.4,17.8,0.5,0.25,0.25,0.5,1.5,0.0,0.0,0.0,0.0,0.75,0.5,0.0,0.0,-0.61,-1.11,0.45,48.47,-5.8,26.1
5.76,1.25,1.25,1.5,1.25,3.5,1.25,0.75,0.5,0.0,0.0,0.5,1.75,1.0,0.27,-0.23,-0.42,218.42,7.3,21.7,0.0,0.25,0.25,0.5,1.0,0.0,0.0,0.0,0.0,0.75,0.0,0.0,0.25,-0.61,-1.05,0.27,42.79,-0.9,15.1
5.78,0.0,0.25,0.25,1.25,0.0,0.5,0.5,0.0,0.0,0.0,0.0,0.25,1.25,0.33,-0.3,-0.23,164.09,4.2,-7.1,0.0,0.25,0.25,0.5,0.5,0.0,0.0,0.0,0.0,0.5,0.0,0.0,0.25,-0.36,-0.92,0.14,34.4,-3.7,15.3
5.8,0.0,0.0,1.25,0.0,2.5,0.25,0.75,0.0,0.0,0.0,0.0,1.75,0.75,0.27,-0.36,-0.11,134.36,6.9,-3.3,1.25,1.0,1.5,0.75,4.5,1.25,0.0,0.25,0.0,2.25,0.25,1.0,1.0,-0.11,-0.8,-0.23,108.47,-2.5,16.2
5.82,0.0,0.0,1.0,0.0,3.0,0.25,0.5,0.5,0.0,0.5,1.25,1.75,1.25,0.2,-0.23,-0.11,115.79,2.4,-21.3,1.25,0.75,1.5,0.75,4.5,2.0,0.0,0.5,0.0,2.25,0.25,1.0,0.5,0.08,-0.67,-0.48,172.3,-1.4,18.9
5.84,0.0,0.0,0.0,0.0,0.0,0.25,0.5,0.5,0.0,0.5,0.0,1.0,0.5,0.2,0.02,-0.11,83.24,-4.0,-69.8,0.25,0.25,1.5,0.5,4.5,0.0,0.0,0.0,0.0,0.75,0.0,0.0,0.25,0.08,-0.42,-0.36,191.71,-5.3,41.7
5.86,1.0,1.25,1.0,1.25,3.75,1.25,1.0,0.0,0.0,0.5,0.0,1.75,0.25,0.08,0.2,-0.17,111.91,6.8,29.5,0.5,0.5,1.5,0.5,4.5,0.0,0.0,0.25,0.0,0.75,0.5,0.25,1.0,0.08,-0.17,0.14,198.79,-4.6,23.2
5.88,1.5,1.25,1.0,1.25,0.5,1.5,1.0,0.25,0.0,0.5,0.0,0.25,1.0,0.08,0.45,-0.3,122.52,8.8,32.2,1.25,0.5,1.5,0.75,4.5,1.75,0.0,0.25,0.25,2.25,0.25,1.0,1.25,0.45,0.08,0.45,215.38,-1.3,11.2
5.9,0.0,1.25,1.5,0.0,3.5,1.25,0.75,0.5,0.0,0.75,0.25,1.75,0.75,1.27,1.83,-1.42,151.36,2.7,9.5,0.5,0.75,1.5,0.5,4.5,0.0,0.0,0.25,0.0,1.5,0.75,0.25,1.0,1.14,0.33,0.45,213.98,-3.6,16.8
5.92,1.25,1.0,0.0,1.0,0.0,1.25,0.5,0.0,0.0,0.0,0.0,0.25,0.25,1.45,2.33,-1.73,127.55,9.9,51.8,0.75,0.5,1.5,0.5,4.5,0.0,0.0,0.0,0.0,0.5,0.0,0.0,0.25,1.52,0.7,0.27,203.25,-7.6,49.3
5.94,0.0,0.0,0.0,0.0,0.0,0.25,0.5,0.0,0.0,0.0,0.0,0.25,0.5,1.14,2.27,-1.42,91.53,-2.0,-55.9,1.25,1.25,0.5,0.75,1.25,1.25,0.0,0.5,0.0,2.25,0.5,1.0,1.0,1.39,1.02,0.14,197.14,-1.2,-1.0
5.96,0.0,0.0,0.0,0.0,0.0,0.25,0.5,0.0,0.0,0.0,0.0,1.75,1.0,0.7,1.58,-1.05,55.13,1.1,-89.2,1.5,1.75,0.5,1.0,3.75,2.0,0.25,0.5,0.25,2.0,0.25,1.0,1.0,1.52,4.45,-3.3,209.72,-1.0,17.8
5.98,0.0,0.0,1.5,0.0,0.0,0.25,1.0,0.0,0.0,0.0,0.5,0.25,0.5,0.33,1.14,-0.3,37.39,19.8,-1.4,1.75,1.25,1.5,1.0,3.25,1.25,0.25,0.25,0.25,2.0,0.25,1.0,1.0,0.08,5.08,-4.73,219.16,-5.2,18.0
6.0,1.25,1.25,1.75,1.25,3.5,1.25,0.75,0.5,0.0,0.5,0.5,1.5,0.75,0.39,0.64,-0.17,100.26,7.4,23.6,0.5,0.5,1.5,0.75,0.25,0.0,0.25,0.0,0.0,0.5,0.25,0.0,1.0,-0.73,2.95,-2.3,187.61,-14.3,15.6
6.02,1.25,1.25,1.0,1.25,3.5,1.5,1.25,0.5,0.0,0.75,1.0,1.5,1.0,0.45,0.52,-0.11,161.92,5.2,15.1,1.0,0.5,1.75,0.5,2.75,0.0,0.25,0.25,0.0,2.0,0.25,1.0,1.0,-0.73,1.14,-0.86,174.37,-6.2,4.7
6.04,1.25,1.25,1.5,1.25,3.5,1.5,1.25,0.0,0.0,0.5,0.25,1.75,1.0,0.58,0.64,-0.3,205.5,7.2,22.3,0.0,0.25,0.5,0.5,1.0,0.0,0.0,0.0,0.0,0.5,0.0,0.0,0.25,-0.36,0.7,-0.05,113.74,-5.2,25.8
6.06,1.25,1.25,1.75,1.25,2.5,1.25,1.0,0.0,0.0,0.5,0.5,1.5,1.25,0.64,0.7,-0.42,219.7,8.6,18.4,0.5,0.25,0.0,0.5,1.0,0.0,0.0,0.0,0.0,0.5,0.0,0.0,0.25,-0.11,0.02,0.27,80.13,-4.2,30.7
6.08,1.25,1.0,1.5,1.25,3.5,1.25,1.0,0.5,0.0,0.75,0.0,1.5,1.0,0.58,0.7,-0.42,228.9,6.1,20.8,0.5,0.25,0.5,0.5,1.0,0.0,0.0,0.0,0.0,0.5,0.0,0.0,0.25,0.02,0.02,0.08,51.62,-8.9,35.0
6.1,1.25,1.25,1.5,1.25,3.0,1.25,1.25,0.25,0.0,0.5,0.25,1.75,0.25,0.52,0.64,-0.3,220.56,9.0,27.2,0.25,0.25,0.5,0.5,1.25,0.0,0.0,0.0,0.0,0.75,0.0,0.0,0.25,0.02,-0.05,-0.05,40.73,-5.0,25.7
6.12,1.25,1.0,1.5,1.25,3.5,1.5,1.25,0.5,0.0,0.5,0.5,1.5,1.0,0.58,0.52,-0.3,228.64,6.4,19.6,0.0,0.25,0.25,0.5,1.25,0.0,0.0,0.0,0.0,0.5,0.0,0.0,0.25,-0.05,-0.17,-0.11,28.2,-1.8,25.5
6.14,1.5,1.25,1.0,1.25,1.75,1.25,1.0,0.25,0.0,0.75,0.25,1.75,1.0,0.58,0.52,-0.3,224.25,7.6,13.8,0.0,0.25,0.5,0.5,1.25,0.0,0.0,0.0,0.0,0.5,0.0,0.0,0.0,-0.17,-0.23,0.02,29.76,-5.9,39.1
6.16,1.25,1.25,1.75,1.25,3.5,1.5,1.0,0.0,0.0,0.5,0.0,1.75,1.5,0.58,0.58,-0.36,233.58,6.8,20.0,0.0,0.5,0.5,0.5,1.0,0.0,0.0,0.0,0.0,0.75,0.0,0.0,0.0,-0.17,-0.3,0.14,30.53,-5.6,34.0
6.18,1.0,1.0,1.5,1.25,3.0,1.25,1.0,0.0,0.0,0.5,0.5,1.75,0.5,0.52,0.64,-0.55,225.46,8.3,21.2,0.0,0.25,0.5,0.5,1.25,0.0,0.0,0.0,0.0,0.5,0.0,0.0,0.25,-0.17,-0.23,0.2,28.38,-4.5,28.1
6.2,0.75,1.25,1.5,1.25,3.5,1.25,1.25,0.5,0.0,0.5,0.75,1.5,0.5,0.39,0.77,-0.67,221.67,6.8,21.3,0.0,0.25,0.5,0.5,1.25,0.0,0.0,0.0,0.0,0.75,0.0,0.0,0.25,-0.11,-0.17,0.2,31.95,-3.1,21.2
6.22,1.0,1.0,1.25,1.25,3.75,1.25,0.75,0.25,0.0,0.5,0.25,1.5,0.5,0.27,0.83,-0.73,210.88,6.2,25.6,0.25,0.75,0.25,0.5,1.5,1.0,0.0,0.0,0.0,2.75,0.0,1.0,0.0,-0.36,1.2,-1.8,65.42,3.0,-5.6
6.24,1.0,1.0,1.25,1.25,3.5,1.25,1.0,0.5,0.0,0.5,0.5,1.75,1.25,0.2,0.77,-0.67,206.61,5.3,12.9,1.5,0.75,1.75,1.0,3.0,1.0,0.25,0.25,0.0,2.0,0.25,1.0,1.0,-0.48,2.08,-1.98,127.84,-5.5,14.5
6.26,1.0,1.25,1.5,1.25,3.5,1.25,1.0,0.5,0.0,0.5,0.25,1.75,0.5,0.27,0.7,-0.61,207.32,7.0,23.5,1.75,0.75,1.5,1.0,3.0,1.25,0.25,0.25,0.25,2.25,0.25,1.0,1.0,-0.61,2.27,-1.92,176.45,-4.7,12.9
6.28,1.0,1.0,1.25,1.25,3.5,1.25,1.0,0.5,0.0,0.5,0.75,1.75,0.5,0.33,0.7,-0.61,209.8,6.4,18.1,1.75,0.75,1.75,1.0,3.25,1.25,0.75,0.25,0.0,0.5,0.25,0.0,1.0,-0.73,1.58,-1.36,209.55,-8.1,38.1
6.3,1.0,1.0,1.5,1.25,3.5,1.25,0.75,0.25,0.0,0.5,0.5,1.75,0.5,0.39,0.7,-0.61,209.06,7.2,21.4,0.0,0.25,0.25,0.5,0.25,0.0,0.0,0.0,0.0,0.5,0.0,0.0,0.25,-0.61,0.83,-0.8,171.17,-4.6,10.0
6.32,1.25,1.0,1.25,1.25,3.5,1.25,1.0,0.25,0.0,0.5,0.75,1.5,0.5,0.33,0.7,-0.61,207.94,7.3,22.7,0.0,0.25,0.5,0.5,0.5,0.0,0.0,0.0,0.0,0.5,0.0,0.0,0.25,-0.42,0.39,-0.42,125.06,-7.0,19.8
6.34,1.0,1.0,1.25,1.25,3.5,1.25,1.0,0.5,0.0,0.5,0.0,1.75,0.5,0.33,0.64,-0.61,205.35,6.2,23.1,0.0,0.25,0.25,0.5,1.0,0.0,0.0,0.0,0.0,0.5,0.0,0.0,0.25,-0.23,0.2,-0.23,78.03,-2.3,22.8
6.36,0.75,1.0,1.25,1.25,3.75,1.25,1.25,0.5,0.0,0.5,1.0,1.5,0.5,0.39,0.64,-0.55,206.38,6.0,18.2,0.0,0.25,0.5,0.5,1.0,0.0,0.0,0.0,0.0,0.5,0.0,0.0,0.25,-0.23,0.14,-0.3,56.92,-5.2,25.8
6.38,1.25,1.25,1.5,1.25,3.5,1.5,0.75,0.25,0.0,0.5,0.5,1.75,0.5,0.39,0.64,-0.48,210.36,7.2,24.2,0.0,0.0,0.5,0.5,0.5,0.0,0.0,0.0,0.0,0.25,0.0,0.0,0.0,-0.23,0.33,-0.55,39.27,-12.2,39.5
6.4,0.0,0.25,1.5,1.25,3.5,1.25,1.25,0.25,0.0,0.5,0.5,1.75,0.25,0.45,0.7,-0.48,200.88,5.6,13.6,0.0,0.25,0.5,0.5,1.5,0.0,0.0,0.0,0.0,0.5,0.0,0.0,0.25,-0.23,0.52,-0.67,41.8,-3.9,30.1
6.42,0.75,1.0,1.25,1.25,3.5,1.25,1.0,0.5,0.0,0.5,1.0,1.75,1.0,0.52,0.77,-0.55,204.29,5.4,10.8,0.0,0.25,0.5,0.5,0.5,0.0,0.0,0.0,0.0,0.75,0.0,0.0,0.25,-0.36,0.7,-0.67,34.9,-5.1,11.5
6.44,1.0,1.25,1.5,1.25,3.5,1.25,0.5,0.0,0.0,0.5,0.0,1.75,0.0,0.45,0.77,-0.55,198.39,8.2,33.1,0.0,0.5,0.5,0.5,1.0,0.0,0.0,0.0,0.0,0.5,0.0,0.0,0.25,-0.48,0.89,-0.8,32.73,-5.7,31.3
6.46,1.0,0.5,0.25,0.25,1.75,0.25,0.75,0.0,0.0,0.0,0.0,0.25,0.5,0.45,0.7,-0.55,162.31,9.0,40.2,0.5,0.25,0.25,0.5,0.5,0.0,0.0,0.0,0.0,0.75,0.0,0.0,0.25,-0.48,0.95,-0.92,26.99,-6.8,20.4
6.48,0.5,1.25,1.25,1.25,3.5,1.5,1.0,0.5,0.0,0.5,0.75,1.75,1.0,0.39,0.7,-0.48,168.06,4.5,12.8,0.25,0.25,0.25,0.5,0.5,0.0,0.0,0.0,0.0,0.75,0.0,0.0,0.25,-0.48,0.95,-0.92,26.17,-4.5,14.1
6.5,1.0,0.75,1.25,1.25,3.5,1.25,1.0,0.5,0.0,0.5,0.5,1.75,1.0,0.39,0.64,-0.48,175.11,5.5,13.6,0.25,0.25,0.5,0.5,1.0,0.0,0.0,0.0,0.0,0.75,0.0,0.0,0.25,-0.3,0.83,-0.8,35.56,-5.6,23.5
6.52,0.0,0.0,1.25,0.0,0.5,0.25,0.5,0.0,0.0,0.0,0.0,0.25,0.0,0.39,0.7,-0.42,138.34,20.0,37.3,0.0,0.25,0.5,0.5,0.5,0.0,0.0,0.0,0.0,0.75,0.0,0.0,0.25,-0.17,0.64,-0.73,43.57,-5.1,11.5
6.54,0.0,0.0,0.25,0.0,0.0,0.25,0.5,0.0,0.0,0.0,0.0,0.25,0.0,0.39,0.7,-0.48,84.21,14.7,3.0,0.0,0.25,1.0,0.5,0.5,0.0,0.0,0.0,0.0,0.5,0.0,0.25,0.25,-0.17,0.58,-0.61,55.15,-11.9,16.5
6.56,1.0,0.75,0.25,1.25,0.0,1.5,0.5,0.0,0.0,0.5,0.0,1.75,0.25,0.39,0.77,-0.55,66.51,7.3,7.6,0.0,0.0,0.5,0.5,0.5,0.0,0.0,0.0,0.0,0.75,0.0,0.0,0.25,-0.23,0.58,-0.61,49.97,-4.3,2.9
6.58,1.25,1.0,1.0,1.25,3.0,1.25,0.5,0.5,0.0,0.5,0.5,1.75,0.25,0.33,0.77,-0.48,93.72,6.6,21.2,0.0,0.25,0.5,0.5,0.5,0.0,0.0,0.0,0.0,0.75,0.25,0.0,0.5,-0.3,0.64,-0.67,50.83,-4.0,-3.9
6.6,1.0,1.0,1.5,1.25,3.5,1.25,1.25,0.5,0.0,0.5,0.5,1.75,1.0,0.33,0.7,-0.42,141.51,6.4,16.0,0.0,0.25,0.25,0.5,1.0,0.0,0.0,0.0,0.0,0.5,0.0,0.0,0.25,-0.3,0.7,-0.73,48.98,-2.3,22.8
6.62,0.75,1.0,1.0,1.25,3.5,1.25,1.25,0.5,0.0,0.5,0.25,1.75,0.5,0.39,0.7,-0.42,180.29,5.4,19.3,0.5,0.25,0.25,0.5,1.0,0.0,0.0,0.0,0.0,0.5,0.0,0.0,0.25,-0.3,0.77,-0.73,52.62,-6.7,33.0
6.64,1.0,1.25,1.0,1.25,3.5,1.25,1.0,0.5,0.0,0.5,0.5,1.75,0.5,0.45,0.7,-0.42,203.42,5.9,20.4,0.0,0.25,0.5,0.5,1.0,0.0,0.0,0.0,0.0,0.5,0.0,0.0,0.25,-0.23,0.77,-0.8,52.07,-5.2,25.8
6.66,0.0,1.0,1.5,1.5,3.5,1.25,1.0,0.5,0.0,0.5,0.75,1.75,0.5,0.52,0.7,-0.42,207.71,5.3,14.2,0.0,0.25,0.25,0.5,1.0,0.0,0.0,0.0,0.0,0.5,0.0,0.0,0.25,-0.17,0.83,-0.8,52.45,-2.3,22.8
6.68,1.25,1.25,1.25,1.25,3.75,1.25,1.25,0.0,0.0,0.75,0.0,1.75,0.25,0.58,0.7,-0.42,214.1,7.6,29.3,0.0,0.25,0.5,0.5,1.0,0.0,0.0,0.0,0.0,0.5,0.0,0.0,0.25,-0.17,0.77,-0.73,51.99,-5.2,25.8
6.7,1.0,1.0,1.5,1.25,3.5,1.5,1.25,0.25,0.0,0.5,1.75,1.75,0.5,0.58,0.7,-0.42,225.0,7.4,14.2,0.0,0.25,0.5,0.5,2.75,0.0,0.0,0.0,0.0,0.0,0.0,0.0,0.25,-0.17,0.7,-0.73,61.9,-3.7,48.3
6.72,0.5,0.75,1.75,1.25,3.5,1.25,1.0,0.5,0.0,0.5,0.5,1.75,0.75,0.52,0.77,-0.42,223.67,6.1,14.8,0.0,0.25,0.5,0.5,1.5,0.0,0.0,0.0,0.0,0.5,0.0,0.0,0.25,-0.17,0.64,-0.67,65.04,-3.9,30.1
6.74,1.25,1.0,1.5,1.25,3.5,1.25,1.0,0.25,0.0,0.5,0.5,1.75,1.0,0.33,0.77,-0.55,230.79,7.1,18.1,0.25,0.25,0.25,0.5,1.0,0.0,0.0,0.0,0.0,0.5,0.0,0.0,0.25,-0.23,0.77,-0.67,64.08,-4.7,28.3
6.76,1.0,1.0,1.5,1.25,3.75,1.25,1.0,0.5,0.0,0.5,0.0,1.75,1.0,0.27,0.7,-0.48,234.34,5.9,19.7,0.0,0.0,0.0,0.5,0.5,0.0,0.0,0.0,0.0,0.5,0.0,0.25,0.25,-0.17,0.77,-0.73,53.89,0.9,-15.1
6.78,0.5,0.75,1.0,1.25,3.5,1.25,1.25,0.5,0.0,0.5,0.5,1.75,1.25,0.27,0.7,-0.48,225.51,3.8,7.7,0.5,0.25,0.5,0.5,1.0,0.0,0.0,0.0,0.0,0.5,0.0,0.0,0.25,-0.17,0.77,-0.73,53.49,-8.9,35.0
6.8,0.5,0.5,1.0,1.25,3.5,1.25,1.0,0.5,0.0,0.5,0.5,1.75,0.75,0.33,0.7,-0.55,209.0,4.1,10.4,0.0,0.25,0.5,0.5,1.0,0.0,0.0,0.0,0.0,0.5,0.0,0.0,0.0,-0.17,0.7,-0.8,50.14,-6.8,37.7
6.82,1.25,1.25,1.0,1.25,3.5,1.25,1.0,0.5,0.0,0.5,0.5,1.75,0.5,0.33,0.77,-0.48,204.1,6.4,21.7,0.25,0.25,0.5,0.5,1.0,0.0,0.0,0.0,0.0,0.5,0.0,0.0,0.25,-0.17,0.77,-0.73,53.18,-7.2,30.7
6.84,0.75,1.0,1.5,1.25,3.5,1.25,0.75,0.25,0.0,0.5,0.5,1.75,0.0,0.33,0.77,-0.55,199.68,7.5,25.2,0.0,0.25,0.5,0.5,1.0,0.0,0.0,0.0,0.0,0.5,0.0,0.0,0.25,-0.23,0.83,-0.73,53.47,-5.2,25.8
6.86,1.0,1.0,1.0,1.25,3.5,1.25,1.0,0.25,0.0,0.5,1.25,1.75,0.5,0.27,0.83,-0.55,202.72,6.4,15.1,0.0,0.25,0.5,0.5,1.0,0.0,0.0,0.0,0.0,0.5,0.0,0.0,0.0,-0.23,0.89,-0.73,52.78,-6.8,37.7
6.88,0.25,0.75,1.0,1.0,3.5,1.25,1.0,0.5,0.0,0.5,0.75,1.75,1.0,0.2,0.83,-0.55,198.68,3.2,5.7,0.0,0.25,0.5,0.5,1.5,0.0,0.0,0.0,0.0,0.5,0.0,0.0,0.25,-0.23,0.89,-0.8,55.06,-3.9,30.1
6.9,1.25,1.0,0.75,1.25,3.5,1.25,1.0,0.5,0.0,0.5,1.0,1.75,0.5,0.2,0.77,-0.48,201.49,5.8,16.2,0.25,0.25,0.5,0.5,1.0,0.0,0.0,0.0,0.0,0.5,0.0,0.0,0.25,-0.23,0.83,-0.8,55.97,-7.2,30.7
6.92,1.0,1.0,1.0,1.5,3.5,1.25,0.75,0.5,0.0,0.5,0.25,1.75,1.0,0.33,0.7,-0.42,201.72,5.0,16.5,0.5,0.25,0.5,0.5,1.25,0.0,0.0,0.0,0.0,0.5,0.0,0.0,0.25,-0.3,0.83,-0.73,60.15,-8.1,36.3
6.94,1.25,1.0,0.75,1.25,3.5,1.25,1.0,0.5,0.0,0.5,0.5,1.75,0.5,0.33,0.7,-0.42,202.78,5.7,19.5,0.0,0.25,0.5,0.5,1.0,0.0,0.0,0.0,0.0,0.5,0.0,0.0,0.25,-0.3,0.77,-0.73,58.19,-5.2,25.8
6.96,0.25,0.75,0.75,1.25,3.0,1.25,0.75,0.25,0.0,0.5,0.75,1.75,0.5,0.27,0.7,-0.42,194.09,4.0,9.1,1.5,1.0,1.0,1.0,4.25,1.0,0.25,0.0,0.0,2.0,0.25,1.0,1.25,-0.3,0.83,-0.73,120.48,-3.1,16.0
6.98,1.0,1.0,1.0,1.25,3.5,1.25,1.0,0.25,0.0,0.5,0.5,1.75,1.0,0.27,0.58,-0.48,195.14,5.5,15.2,0.75,0.75,0.5,0.5,0.5,0.0,0.25,0.0,0.0,1.75,0.0,1.0,1.0,-0.36,0.95,-0.86,130.99,-4.6,-16.2
7.0,1.25,1.0,1.0,1.25,3.5,1.25,1.0,0.5,0.0,0.5,0.25,1.75,0.5,0.39,0.58,-0.48,196.14,6.2,21.9,0.5,0.25,1.5,0.75,1.0,1.25,0.25,0.0,0.0,1.0,0.0,1.0,0.0,-0.55,1.02,-0.98,145.59,-7.7,17.5
7.02,1.0,1.25,1.0,1.25,3.5,1.25,1.0,0.5,0.0,0.5,0.5,0.25,0.5,0.45,0.64,-0.42,196.46,5.6,35.9,0.0,0.75,0.5,0.75,4.25,1.25,0.25,0.0,0.0,2.0,0.0,1.0,0.25,-0.73,0.95,-0.92,156.61,1.9,14.8
7.04,0.0,0.0,0.0,0.0,0.0,0.0,0.5,0.0,0.0,0.0,0.0,0.25,0.25,0.45,0.77,-0.42,137.31,8.6,-65.7,0.75,0.25,0.5,1.0,1.0,1.25,0.25,0.0,0.0,2.0,0.25,1.0,1.0,-0.67,0.89,-0.8,160.38,-0.4,-10.8
7.06,0.0,0.0,0.0,0.0,0.0,0.0,0.25,0.0,0.0,0.0,0.0,0.25,0.25,0.39,0.77,-0.48,75.83,4.1,-83.6,1.0,0.75,1.0,1.0,2.5,1.0,0.25,0.0,0.0,1.75,0.25,1.0,1.0,-0.55,0.89,-0.73,170.97,-3.6,9.2
7.08,0.0,0.0,0.0,0.0,0.0,0.25,0.5,0.0,0.0,0.0,0.0,0.25,0.25,0.45,0.7,-0.36,16.93,1.0,-41.7,0.75,0.75,1.5,1.0,4.5,1.0,0.25,0.0,0.0,2.0,0.25,1.0,1.0,-0.48,0.83,-0.86,194.5,-2.9,15.2
7.1,0.0,0.0,0.0,0.0,0.0,0.25,0.5,0.0,0.0,0.0,0.0,0.25,0.25,0.52,0.7,-0.42,0.0,1.0,-41.7,1.25,0.75,1.5,1.0,4.25,1.0,0.25,0.0,0.0,1.75,0.0,1.0,1.0,-0.23,0.77,-0.92,214.76,-4.2,20.2
7.12,0.0,0.0,0.0,0.0,0.0,0.25,0.5,0.0,0.0,0.0,0.0,0.25,0.25,0.58,0.83,-0.42,0.0,1.0,-41.7,1.0,1.0,1.5,1.0,3.75,1.25,0.25,0.0,0.0,2.0,0.0,1.0,1.0,-0.17,0.77,-0.86,223.69,-3.4,17.6
7.14,0.0,0.0,0.0,0.0,0.0,0.25,0.5,0.0,0.0,0.0,0.0,0.25,0.25,0.64,0.83,-0.42,0.0,1.0,-41.7,1.0,0.75,1.5,1.0,4.25,1.25,0.0,0.0,0.0,2.0,0.0,1.0,1.0,-0.11,0.77,-0.86,229.26,-2.7,17.5
7.16,0.0,0.0,0.0,0.0,0.0,0.0,0.5,0.0,0.0,0.0,0.0,0.25,0.25,0.64,0.77,-0.36,0.0,8.6,-65.7,1.0,1.0,1.5,0.75,3.75,1.0,0.25,0.0,0.0,1.75,0.0,1.0,1.0,-0.11,0.7,-0.8,225.19,-3.9,18.2
7.18,0.0,0.0,0.0,0.0,0.0,0.25,0.5,0.0,0.0,0.0,0.0,0.25,0.25,0.58,0.7,-0.3,0.0,1.0,-41.7,1.0,1.0,1.5,1.0,4.25,1.0,0.25,0.0,0.0,1.75,0.25,1.0,1.0,-0.05,0.58,-0.73,222.74,-4.0,18.8
7.2,1.25,1.0,0.0,1.25,0.0,1.25,0.5,0.0,0.0,0.5,0.0,0.25,0.25,0.64,0.77,-0.3,9.27,8.0,41.3,1.25,0.75,1.5,1.0,4.25,1.0,0.25,0.0,0.0,2.0,0.25,1.0,1.0,-0.05,0.64,-0.61,219.98,-4.0,17.0
7.22,1.25,0.5,0.5,0.25,2.25,1.25,1.25,0.25,0.0,0.5,0.25,1.75,1.0,0.64,0.77,-0.3,65.13,4.4,3.5,1.0,0.75,1.5,0.75,4.25,1.0,0.25,0.0,0.0,1.75,0.0,1.0,1.0,-0.05,0.64,-0.61,223.03,-3.5,18.2
7.24,0.75,0.0,1.0,0.0,3.5,0.25,1.25,0.25,0.0,0.5,0.5,1.75,0.5,0.52,0.7,-0.36,115.16,6.5,4.0,1.0,0.75,1.5,1.0,3.75,1.0,0.25,0.0,0.0,1.75,0.25,1.0,1.0,0.02,0.58,-0.61,216.95,-4.1,15.8
7.26,1.25,1.0,1.0,0.75,3.5,0.25,1.25,0.25,0.0,0.5,1.25,0.25,0.5,0.58,0.58,-0.36,160.98,8.9,29.5,0.75,0.75,1.5,1.0,3.75,1.0,0.25,0.0,0.0,2.25,0.0,1.0,1.0,0.08,0.58,-0.48,210.3,-2.8,12.7
7.28,0.0,0.0,0.0,0.0,0.0,0.25,0.75,0.0,0.0,0.0,0.5,0.25,0.5,0.83,0.64,-0.11,143.54,3.5,-55.6,0.0,0.25,1.5,0.5,3.75,0.0,0.5,0.0,0.0,0.75,0.0,0.0,0.25,0.14,0.45,-0.48,182.35,-6.2,38.4
7.3,0.5,0.0,0.0,1.25,3.0,1.25,1.25,0.25,0.0,0.5,0.0,1.75,0.5,1.02,0.45,-0.05,148.81,1.6,6.8,0.5,0.75,0.5,0.75,1.0,0.75,0.25,0.0,0.0,1.5,0.0,0.5,0.5,0.27,0.33,-0.55,146.9,-2.4,9.0
