time,left pressure 0[N/cm虏],left pressure 1[N/cm虏],left pressure 2[N/cm虏],left pressure 3[N/cm虏],left pressure 4[N/cm虏],left pressure 5[N/cm虏],left pressure 6[N/cm虏],left pressure 7[N/cm虏],left pressure 8[N/cm虏],left pressure 9[N/cm虏],left pressure 10[N/cm虏],left pressure 11[N/cm虏],left pressure 12[N/cm虏],left acceleration X[g],left acceleration Y[g],left acceleration Z[g],left total force[N],left center of pressure X[mm],left center of pressure Y[mm],right pressure 0[N/cm虏],right pressure 1[N/cm虏],right pressure 2[N/cm虏],right pressure 3[N/cm虏],right pressure 4[N/cm虏],right pressure 5[N/cm虏],right pressure 6[N/cm虏],right pressure 7[N/cm虏],right pressure 8[N/cm虏],right pressure 9[N/cm虏],right pressure 10[N/cm虏],right pressure 11[N/cm虏],right pressure 12[N/cm虏],right acceleration X[g],right acceleration Y[g],right acceleration Z[g],right total force[N],right center of pressure X[mm],right center of pressure Y[mm]
0.02,1.75,1.25,1.0,1.75,1.25,2.5,2.5,4.25,2.5,5.25,5.0,6.25,6.5,-0.05,0.02,0.95,608.76,0.4,-44.2,6.5,1.25,10.0,6.75,5.5,0.0,6.75,1.5,1.25,2.5,0.75,1.0,1.0,0.02,0.2,1.39,812.56,-18.4,38.2
0.04,1.5,1.0,0.0,2.5,3.5,2.5,2.5,4.5,2.5,5.25,5.75,6.75,6.5,-0.05,-0.05,0.95,681.34,-0.4,-41.9,6.75,0.75,8.75,5.5,1.75,0.0,6.0,1.5,1.25,1.75,0.25,0.75,1.25,0.08,0.27,1.45,651.89,-21.3,38.3
0.06,1.5,1.0,0.25,2.75,3.5,2.5,2.5,4.5,3.5,5.25,6.25,6.75,7.0,-0.05,-0.05,0.95,746.33,0.0,-41.8,6.25,0.75,8.25,4.5,0.0,0.0,5.5,1.5,1.0,2.0,0.25,0.5,1.0,0.14,0.45,1.64,492.81,-22.7,37.5
0.08,1.5,1.25,0.0,3.75,3.5,2.5,2.75,4.5,4.0,5.25,6.25,6.75,7.0,-0.05,-0.05,0.95,790.97,0.5,-39.2,6.0,0.75,7.0,3.25,0.0,0.0,5.25,1.5,0.75,1.75,0.0,0.5,0.75,0.14,0.58,1.64,370.37,-23.1,39.2
0.1,1.5,1.25,1.0,3.75,3.5,3.25,2.5,4.75,3.5,5.25,6.25,6.5,7.0,-0.05,-0.05,0.95,813.14,0.6,-35.8,4.75,0.0,5.75,3.25,0.0,0.0,4.25,1.5,0.5,1.5,0.0,0.25,1.0,0.2,0.7,1.58,285.42,-21.9,34.8
0.12,1.0,0.75,1.25,4.0,3.75,3.5,3.75,5.25,4.5,6.0,5.75,6.75,6.5,-0.05,-0.05,0.95,827.11,0.6,-35.8,3.25,0.0,4.5,1.25,0.0,1.75,3.0,1.5,0.75,3.5,0.0,1.0,1.0,0.39,0.7,1.77,231.82,-12.0,8.9
0.14,1.5,1.25,2.25,4.25,4.25,3.5,3.75,5.5,4.75,5.75,6.25,6.75,7.0,-0.05,-0.05,0.95,843.33,1.7,-31.1,1.75,0.0,4.5,0.75,1.5,0.0,2.5,1.75,0.25,1.75,0.5,0.5,1.25,0.39,0.27,1.39,181.11,-13.7,10.7
0.16,1.5,1.25,2.5,4.5,4.75,3.75,4.75,5.75,4.75,5.5,6.25,5.75,6.5,-0.05,-0.05,0.95,850.76,2.1,-26.3,2.0,0.25,2.75,0.5,2.5,0.0,1.75,1.75,0.25,1.75,0.0,0.5,1.75,0.7,-0.98,0.95,142.78,-8.4,8.3
0.18,2.0,1.25,3.0,5.75,6.5,4.0,5.25,5.75,4.75,5.0,6.0,5.75,6.25,-0.05,-0.05,0.95,898.27,3.0,-18.6,1.0,0.0,1.75,0.5,0.5,0.0,1.0,1.5,0.5,1.5,0.0,0.25,1.0,1.2,-0.67,1.7,90.59,-7.6,-6.0
0.2,2.25,1.5,3.25,6.0,6.75,4.75,5.5,5.75,4.75,2.75,5.25,4.75,5.5,-0.05,-0.05,0.95,914.99,3.9,-9.9,0.75,0.0,0.75,1.0,0.25,0.0,0.75,1.25,0.5,2.0,0.0,0.25,1.0,0.89,-0.8,0.89,51.18,-2.9,-19.2
0.22,2.5,1.5,4.25,7.5,6.75,5.0,6.25,5.5,4.75,3.25,4.75,3.5,4.75,-0.05,0.02,0.95,934.47,5.0,-2.4,0.75,0.0,1.0,0.5,0.25,0.0,0.75,1.5,0.5,1.25,0.0,0.5,1.0,0.64,-0.61,0.52,25.22,-4.5,-19.8
0.24,2.5,1.5,5.0,7.75,7.25,5.75,6.5,5.25,4.5,2.5,4.0,3.25,4.25,-0.05,0.02,0.95,938.12,5.6,3.3,0.75,0.25,0.75,0.5,0.25,0.0,0.75,1.5,0.5,1.5,0.0,0.25,1.0,0.58,-0.42,0.52,22.38,-2.9,-17.4
0.26,2.5,2.25,5.25,9.25,8.25,5.75,6.75,5.0,4.25,3.5,3.5,2.75,3.0,-0.05,0.02,0.95,964.06,6.0,10.3,0.75,0.25,0.75,0.5,0.25,0.0,0.75,1.5,0.5,1.25,0.0,0.0,0.75,0.52,-0.42,0.77,31.71,-3.9,-8.6
0.28,3.25,2.5,6.5,9.5,8.5,5.75,7.25,4.5,3.75,1.75,2.5,2.25,2.25,-0.05,0.02,0.95,972.15,8.2,20.9,0.75,0.0,0.5,0.5,0.25,0.0,0.75,1.5,0.5,1.25,0.0,0.5,0.75,0.39,-0.3,0.95,43.3,-2.7,-22.5
0.3,3.25,2.75,6.5,12.0,9.0,6.25,7.75,4.5,3.0,1.75,1.5,2.0,2.25,-0.05,0.02,0.95,1000.13,8.3,26.1,0.75,0.25,0.5,0.5,0.25,0.0,0.75,1.5,0.5,1.5,0.0,0.25,0.75,0.33,-0.11,0.95,53.43,-2.2,-16.9
0.32,3.25,2.75,8.0,13.5,10.0,6.5,7.75,4.5,2.5,1.5,1.25,1.0,2.25,-0.05,0.02,0.95,1040.84,8.9,31.7,1.0,0.0,0.5,0.5,0.25,0.0,0.75,1.25,0.5,1.25,0.0,0.0,1.0,0.27,0.02,0.89,60.56,-3.5,-14.5
0.34,3.25,2.75,8.0,14.0,10.5,6.75,8.0,4.25,2.0,2.0,0.0,2.0,2.25,-0.05,0.02,0.95,1083.81,8.7,32.0,0.75,0.0,0.5,0.5,0.5,0.0,0.75,1.5,0.5,1.25,0.0,0.25,1.0,0.14,0.14,1.02,71.17,-1.7,-19.5
0.36,4.0,2.75,8.75,15.5,12.0,7.0,7.75,3.25,1.75,1.5,0.5,1.75,1.5,-0.05,0.08,0.95,1138.42,9.9,37.7,0.75,0.25,0.0,0.5,1.0,0.0,0.5,1.0,0.5,1.0,0.0,0.25,1.0,0.02,0.2,1.2,77.6,-0.3,-12.1
0.38,4.75,2.75,9.0,16.0,10.5,7.0,7.75,3.0,1.75,1.25,0.75,0.75,1.5,-0.05,0.08,1.02,1168.12,10.9,40.8,0.75,0.0,0.5,0.5,0.25,0.0,0.75,1.5,0.5,1.0,0.0,0.25,0.5,-0.05,0.33,1.52,82.75,-3.9,-13.1
0.4,3.75,1.5,9.0,15.5,12.0,6.5,6.75,2.75,1.0,0.0,0.25,1.5,0.5,-0.05,0.08,1.02,1147.3,11.1,44.4,0.75,0.0,0.5,0.5,0.25,0.0,0.75,1.25,0.5,0.75,0.0,0.25,0.75,0.02,0.45,1.7,83.97,-4.8,-13.6
0.42,5.75,2.75,8.75,16.0,11.5,6.25,6.75,2.5,1.0,1.0,0.25,1.75,0.5,-0.05,0.14,1.02,1139.6,11.7,44.9,0.75,0.75,0.5,1.25,0.25,1.5,0.75,1.0,0.75,2.0,0.0,0.5,0.75,0.02,0.83,1.89,110.22,-0.9,-3.0
0.44,5.0,2.25,9.5,18.5,12.5,6.75,7.75,2.5,0.75,0.0,1.25,1.25,1.5,-0.05,0.14,1.02,1172.08,11.7,43.7,0.75,0.0,0.5,0.5,0.5,0.0,0.75,1.25,0.5,1.5,0.0,0.25,0.75,-0.11,1.45,1.77,112.43,-2.3,-17.5
0.46,6.0,2.5,10.5,17.0,15.5,5.75,7.0,1.0,0.75,0.5,0.0,0.25,0.5,-0.11,0.14,1.02,1205.02,12.8,53.2,0.5,0.0,0.75,0.5,0.5,0.0,0.75,1.0,0.5,0.75,0.0,0.25,0.75,-0.36,2.08,1.64,110.62,-5.6,-10.5
0.48,6.5,2.75,10.0,16.5,14.5,5.5,6.0,1.0,0.75,0.0,0.0,0.5,0.25,-0.11,0.2,1.02,1210.9,13.3,54.9,1.0,0.0,0.5,0.5,0.25,0.0,0.75,0.75,0.5,0.75,0.0,0.25,0.5,-0.73,2.52,1.39,98.62,-9.0,-1.8
0.5,7.25,2.75,10.0,16.5,16.5,5.0,5.75,2.25,0.25,0.75,0.5,1.0,0.5,-0.11,0.2,1.02,1243.27,12.2,50.3,1.25,0.5,0.5,1.0,0.5,1.75,0.75,1.0,0.75,3.0,0.0,1.0,0.75,-0.98,2.83,0.7,124.06,0.0,-10.8
0.52,7.5,2.75,10.5,16.0,14.5,3.75,5.0,0.5,0.25,0.75,0.0,0.25,0.5,-0.11,0.27,1.08,1209.19,14.4,56.2,0.75,0.0,0.25,0.5,0.25,0.0,0.75,0.5,0.5,1.0,0.0,0.5,1.0,-1.73,3.77,0.52,114.3,-4.6,-25.0
0.54,7.5,2.75,10.0,17.0,14.5,3.25,4.75,0.5,0.25,0.0,0.0,0.5,0.5,-0.17,0.33,1.14,1171.42,14.9,57.4,0.75,0.75,0.5,1.0,0.25,1.75,0.5,0.5,0.5,4.0,0.0,2.5,1.75,-0.8,-0.92,2.64,152.51,1.8,-34.2
0.56,7.0,2.75,9.75,15.5,14.0,2.75,5.0,0.5,0.0,0.25,0.0,0.75,0.5,-0.23,0.39,1.33,1104.75,14.9,56.3,0.5,0.0,0.5,0.5,0.25,1.25,0.75,1.5,0.5,4.75,1.25,4.0,6.0,-0.98,-0.55,2.45,215.02,4.7,-68.5
0.58,6.0,1.75,8.0,13.0,12.5,1.75,4.75,0.5,0.0,0.25,0.0,0.25,0.5,-0.23,0.58,2.02,982.89,15.0,56.7,0.75,0.0,0.5,0.5,0.25,0.0,0.25,1.75,0.5,6.5,2.0,5.75,7.75,0.08,0.33,1.77,292.75,4.0,-78.4
0.6,6.0,2.5,5.0,10.5,8.75,1.25,4.25,0.5,0.5,0.0,0.75,0.25,1.25,-0.61,1.64,2.45,811.17,14.9,52.0,0.75,0.0,0.5,0.5,1.0,0.25,0.5,2.0,0.75,7.25,2.5,6.0,8.0,-0.23,0.27,1.39,376.83,4.0,-73.0
0.62,3.25,1.0,3.0,6.0,6.75,0.0,1.25,0.25,0.0,0.0,0.0,0.0,0.25,-0.67,1.7,2.64,558.53,14.8,60.2,1.0,0.0,0.5,0.5,0.5,2.0,0.5,3.0,1.25,7.75,4.5,6.25,9.0,0.14,0.08,0.95,487.96,4.3,-69.1
0.64,1.5,0.0,0.75,4.0,5.5,0.0,0.0,0.0,0.0,0.0,0.0,0.0,0.25,-0.3,0.39,2.83,332.82,9.7,56.9,0.75,0.0,0.5,0.5,0.5,1.5,0.5,3.25,1.25,7.75,4.0,6.5,8.25,0.08,0.08,0.95,559.6,4.3,-70.7
0.66,0.5,0.0,0.25,1.75,1.25,0.0,0.0,0.0,0.0,0.0,0.0,0.25,0.25,-0.23,-0.92,1.08,151.54,11.4,41.9,0.75,0.0,0.5,0.5,0.5,1.5,0.75,3.5,1.25,7.75,2.75,6.5,8.25,0.14,0.08,0.95,594.29,4.8,-70.0
0.68,0.5,0.0,0.5,1.75,3.5,0.0,0.0,0.0,0.0,0.0,0.0,0.25,0.25,-0.17,-1.11,2.02,20.23,7.1,46.7,2.0,0.25,0.5,0.75,1.0,2.0,0.75,4.5,2.0,8.5,4.5,7.25,8.25,0.08,0.08,0.95,651.88,2.9,-60.3
0.7,0.25,0.0,2.5,1.25,3.0,0.0,0.0,0.0,0.0,0.0,0.25,0.25,0.25,-0.92,-1.05,1.52,0.0,14.2,44.0,2.0,1.0,1.75,2.0,4.5,4.5,1.25,4.75,1.75,8.5,5.5,6.75,8.75,0.08,0.08,0.95,746.81,2.0,-39.0
0.72,1.75,0.0,0.25,0.0,0.0,0.0,0.0,0.0,0.0,0.0,0.0,0.25,0.0,-0.73,-0.86,0.7,0.0,32.3,69.3,1.0,2.0,1.75,3.25,4.5,4.5,1.25,5.5,2.5,8.25,6.0,6.5,8.5,0.14,0.08,0.95,842.19,1.8,-36.0
0.74,1.5,1.25,0.0,1.25,0.0,0.25,0.25,0.0,0.75,0.5,0.0,1.0,0.25,-0.36,-0.73,0.52,0.0,13.5,21.6,1.25,1.5,1.5,3.25,4.5,5.0,1.75,5.5,2.5,8.0,5.5,6.0,8.0,0.14,0.08,0.95,898.25,2.0,-34.3
0.76,0.0,0.0,0.25,0.0,0.0,0.0,0.75,0.0,0.0,0.0,0.0,0.25,0.25,-0.17,-0.55,0.7,0.0,17.9,-26.7,1.25,1.75,0.5,3.25,4.5,4.75,1.75,5.5,2.5,7.75,4.75,5.75,7.75,0.14,0.08,0.95,905.87,2.7,-34.4
0.78,1.5,1.25,0.75,1.0,3.5,0.25,1.0,0.0,0.25,1.25,1.25,1.75,0.5,-0.23,-0.55,0.89,0.0,8.0,11.7,2.5,1.75,1.75,3.25,4.75,4.75,1.75,5.5,2.75,7.25,4.5,5.25,7.25,0.14,0.08,0.95,870.57,0.8,-26.6
0.8,1.25,1.25,1.75,1.25,3.5,0.0,1.0,0.0,0.5,0.75,0.75,1.5,1.0,-0.42,-0.36,1.02,34.99,10.4,17.1,3.0,2.0,2.0,4.5,5.25,5.5,2.75,5.5,3.0,7.0,4.5,4.75,6.75,0.14,0.08,0.95,857.81,-0.2,-18.8
0.82,1.25,0.75,1.5,2.0,3.5,4.5,1.0,0.0,1.75,1.75,1.25,1.75,0.5,-0.42,-0.17,1.02,156.7,3.0,11.4,3.5,2.0,2.75,5.5,6.0,5.75,3.5,5.5,3.0,6.5,3.75,4.0,5.75,0.08,0.08,0.95,869.06,-1.5,-9.6
0.84,1.5,1.25,1.5,1.5,3.5,0.25,1.0,0.5,0.25,0.75,0.75,1.75,1.0,-0.36,0.08,1.02,208.59,9.0,15.6,3.75,2.0,4.0,5.75,6.5,6.0,4.5,5.25,3.0,6.0,4.0,2.75,4.75,0.08,0.08,0.95,893.89,-3.1,-1.7
0.86,2.0,1.0,0.75,2.5,3.5,4.0,5.25,0.0,1.5,0.75,0.0,1.75,0.0,-0.3,0.2,1.14,267.66,7.5,28.7,4.5,2.5,4.5,7.25,7.0,6.0,4.5,4.75,3.0,5.25,2.5,2.5,4.0,0.14,0.08,0.95,916.01,-4.6,8.2
0.88,1.25,1.25,1.0,1.25,3.75,0.25,1.25,0.5,0.5,1.0,0.75,1.75,1.0,-0.3,0.27,1.58,269.44,7.1,10.6,4.75,2.5,5.75,8.5,8.0,6.0,5.5,4.5,2.5,4.75,2.5,2.25,3.75,0.08,0.08,0.95,955.26,-6.1,14.1
0.9,1.0,1.0,0.0,1.25,0.0,0.25,0.0,0.0,0.25,0.75,0.0,1.25,0.0,-0.3,0.39,1.77,229.76,11.3,12.9,4.0,1.75,6.25,8.0,8.25,6.0,5.75,4.25,1.75,3.5,2.25,1.0,3.0,0.08,0.08,0.95,938.99,-6.6,20.2
0.92,2.0,1.0,0.5,2.25,3.75,3.25,1.75,0.5,2.0,0.0,0.25,0.0,0.5,-0.3,0.52,2.14,227.54,5.3,37.2,4.75,1.75,6.25,9.0,8.0,6.0,6.5,3.0,1.5,3.25,0.75,1.0,1.5,0.08,0.08,0.95,897.6,-8.5,30.7
0.94,1.0,0.25,1.25,1.5,2.25,0.25,3.0,0.5,0.75,0.75,0.5,1.5,0.5,-0.36,1.14,2.45,212.77,11.3,8.7,5.75,2.5,6.5,11.5,8.25,6.25,6.75,3.0,1.25,2.25,0.25,1.0,1.25,0.08,0.08,0.95,883.37,-10.0,38.3
0.96,1.25,0.5,0.75,1.25,3.0,0.25,1.25,0.25,0.25,0.75,0.5,1.75,0.5,-0.23,1.95,2.39,210.64,8.5,11.4,5.75,1.75,7.5,11.0,11.0,6.0,6.75,2.5,1.25,3.5,1.25,1.0,1.5,0.08,0.14,0.95,918.93,-9.4,34.3
0.98,1.25,1.0,1.5,1.25,3.75,0.25,1.0,0.5,0.25,0.5,0.5,1.75,0.5,0.02,2.7,2.33,203.73,9.3,20.5,5.75,1.5,8.25,12.5,9.75,6.5,7.0,2.0,1.25,3.5,0.25,0.75,1.5,0.08,0.14,0.95,960.63,-10.3,37.5
1.0,1.5,1.0,1.5,1.5,3.75,0.25,1.25,0.5,0.25,0.75,1.0,1.75,0.75,0.52,3.33,1.39,213.31,9.3,15.7,7.0,0.0,8.5,15.0,11.0,6.25,7.5,3.25,0.75,2.0,0.75,0.5,1.25,0.02,0.14,1.02,1023.49,-11.1,40.6
1.02,1.25,0.0,0.25,1.5,3.75,1.0,1.0,0.5,0.75,0.0,1.0,0.0,0.75,1.14,4.89,-0.05,192.17,4.9,24.9,7.0,1.75,9.0,14.5,11.0,6.0,7.25,1.75,0.75,1.75,0.0,0.5,1.0,0.08,0.2,1.02,1057.07,-12.4,46.9
1.04,0.0,0.0,0.0,0.0,0.0,0.0,2.0,0.0,0.0,0.0,0.0,0.0,0.0,2.45,6.2,-2.11,131.06,32.4,27.3,7.5,2.5,0.0,14.5,11.5,5.0,7.25,1.5,0.5,2.0,0.0,0.5,1.25,0.02,0.2,1.08,1004.1,-8.3,45.4
1.06,1.0,0.0,0.0,1.25,0.0,0.5,1.0,0.0,0.25,2.0,0.5,3.25,3.5,-0.23,-0.86,0.14,130.03,1.2,-58.9,8.0,2.25,10.0,14.5,12.0,4.5,7.0,0.0,0.5,1.75,0.0,0.5,1.0,-0.05,0.2,1.08,1016.05,-14.5,51.6
1.08,0.0,0.0,1.0,1.25,1.75,0.25,0.5,0.75,1.75,4.75,3.25,6.0,6.75,0.02,0.39,1.95,211.86,-0.5,-65.7,8.25,2.5,11.0,15.0,12.0,2.25,6.75,1.5,0.5,2.75,0.0,1.0,1.0,0.02,0.33,1.14,1047.01,-14.9,47.4
1.1,1.25,0.0,0.0,1.25,0.0,0.0,0.5,2.5,1.0,6.25,5.25,8.25,8.25,-0.17,0.45,2.83,322.95,-1.3,-76.7,9.0,2.5,11.0,14.5,11.0,0.25,6.75,1.0,0.5,1.75,0.25,0.25,1.0,0.08,0.33,1.33,1060.66,-17.6,52.6
1.12,0.0,1.25,1.0,0.5,0.75,1.25,1.0,2.75,1.0,6.75,6.75,8.25,8.25,-0.17,0.14,1.39,473.38,-1.6,-68.1,9.25,2.5,11.0,13.0,9.5,0.0,6.75,0.25,0.5,1.5,0.0,0.25,1.0,0.08,0.45,1.39,1023.64,-19.2,55.1
1.14,0.25,1.25,0.25,1.25,3.0,1.75,0.0,3.5,1.5,6.75,7.5,8.25,8.25,0.02,-0.05,1.08,622.38,-2.3,-59.2,9.25,2.5,11.0,11.0,7.75,0.0,7.25,0.0,0.5,1.5,0.0,0.25,1.0,0.27,0.58,1.64,954.04,-20.4,55.4
1.16,0.75,1.25,1.0,1.5,2.5,2.5,1.0,4.5,1.75,8.0,8.0,8.5,9.0,-0.05,-0.05,0.95,742.68,-1.7,-55.5,8.25,2.0,9.0,7.5,4.5,0.0,7.5,0.0,0.0,1.25,0.0,0.0,0.75,0.33,1.02,2.14,787.1,-22.6,57.7
1.18,1.5,1.25,0.0,1.5,3.75,2.75,1.25,4.5,2.5,8.0,8.0,8.75,9.0,-0.05,-0.05,0.95,847.33,-1.8,-52.2,7.0,1.25,7.25,5.5,1.0,0.0,6.5,0.0,0.0,1.5,0.0,0.0,0.25,0.64,1.89,2.7,578.46,-25.8,57.6
1.2,0.5,0.0,0.0,1.25,3.0,1.5,1.25,4.25,2.5,7.0,9.0,8.0,9.0,-0.05,-0.05,0.95,889.26,-2.1,-63.2,3.75,0.75,4.5,4.25,1.75,0.0,4.25,0.0,0.25,0.75,0.0,0.25,0.5,1.02,1.33,3.58,383.19,-22.5,50.7
1.22,0.75,0.0,0.25,1.25,3.75,2.0,2.5,4.5,3.25,6.75,9.25,8.0,9.0,-0.05,-0.05,0.95,918.3,-1.2,-57.3,2.25,0.75,4.5,3.25,1.5,1.75,2.0,0.25,0.5,2.5,0.0,1.0,0.25,0.52,-0.92,2.64,275.71,-13.9,29.4
1.24,1.5,1.25,0.5,2.75,3.5,3.0,2.5,5.0,4.25,7.75,8.5,7.75,8.75,-0.05,-0.05,0.95,953.59,-0.4,-46.2,2.25,0.75,4.25,1.25,4.5,0.0,1.75,1.5,0.5,2.5,0.0,1.0,1.25,0.58,-0.61,1.89,218.49,-10.1,19.1
1.26,1.5,1.5,0.0,1.25,3.0,2.75,2.5,4.5,3.5,6.5,7.5,7.25,7.25,-0.05,-0.05,0.95,924.09,-0.7,-47.7,2.0,0.75,3.5,1.5,4.5,0.0,1.25,1.5,0.5,3.0,0.0,1.0,1.25,1.14,-0.98,2.08,195.46,-8.0,14.8
1.28,0.75,0.0,0.25,1.5,0.0,2.75,2.5,4.5,4.25,7.0,7.5,7.5,6.75,-0.05,-0.05,0.95,861.88,-1.0,-61.8,2.0,1.0,3.0,1.25,4.5,0.0,1.25,1.5,0.5,3.0,0.0,1.0,1.25,0.77,-0.92,0.89,189.43,-7.1,14.2
1.3,1.75,0.5,1.0,4.25,0.75,4.0,3.0,4.5,4.0,5.5,6.75,6.0,6.5,-0.05,-0.05,0.95,777.24,1.1,-40.1,2.0,1.0,3.0,2.25,4.5,0.0,1.25,1.5,0.5,3.0,0.0,1.0,1.25,0.45,-0.67,0.33,188.56,-7.6,16.3
1.32,1.5,0.5,2.25,2.0,0.0,2.75,2.5,4.5,4.25,4.75,6.25,5.75,6.5,-0.05,-0.05,0.95,688.2,2.0,-46.2,2.0,0.75,2.25,2.75,4.25,0.0,1.25,1.5,0.5,3.5,0.0,1.25,1.25,0.33,-0.42,0.52,198.45,-6.3,10.6
1.34,1.25,1.0,2.5,4.0,1.25,4.0,3.75,4.75,4.75,3.5,6.75,5.0,5.75,-0.05,-0.05,0.95,645.06,3.1,-31.2,2.0,0.75,2.5,2.75,4.25,0.0,1.25,1.5,0.5,3.25,0.0,1.0,1.25,0.2,-0.42,0.77,215.63,-6.9,13.6
1.36,2.5,1.25,2.5,5.0,5.0,3.25,4.75,4.5,4.25,3.5,4.75,4.0,5.25,-0.05,-0.05,0.95,640.96,4.1,-14.0,2.0,0.75,2.25,2.75,4.5,0.0,1.25,1.5,0.5,2.75,0.0,1.0,1.5,0.27,-0.36,0.89,233.3,-6.7,14.2
1.38,2.75,1.25,4.5,6.0,5.0,5.0,5.0,4.5,4.75,3.5,4.75,4.25,4.0,-0.05,-0.05,0.95,683.92,5.6,-6.0,2.0,1.0,2.25,2.25,4.5,0.0,1.25,1.5,0.5,3.25,0.0,1.0,1.25,0.27,-0.23,0.89,251.26,-6.2,13.6
1.4,3.25,1.25,6.0,7.25,6.75,5.0,5.5,4.5,4.75,3.0,4.75,3.25,3.25,-0.05,-0.05,0.95,752.17,7.2,4.2,2.0,0.75,1.75,2.25,4.5,0.0,1.25,1.5,0.5,3.0,0.25,1.0,1.25,0.2,0.02,1.02,265.23,-5.6,11.3
1.42,3.25,1.5,6.5,7.75,7.25,5.25,6.25,4.5,4.5,2.25,4.0,3.0,2.5,-0.05,-0.05,0.95,823.54,8.0,10.8,2.0,0.75,2.0,2.0,4.25,0.5,1.0,1.5,0.5,3.0,0.25,1.0,1.25,0.14,0.27,1.14,273.75,-5.2,11.1
1.44,3.5,1.75,7.75,9.5,7.75,5.25,7.0,4.5,3.5,1.25,3.5,1.75,2.25,-0.05,0.02,0.95,886.73,9.6,21.0,2.0,0.75,1.75,1.75,4.25,0.5,1.25,1.5,0.5,3.0,0.0,1.0,1.25,0.08,0.39,1.39,273.92,-4.7,11.0
1.46,4.5,2.0,8.0,9.5,8.0,5.0,6.25,2.75,2.5,0.0,1.25,1.75,2.25,-0.05,0.02,1.02,890.14,11.5,32.6,2.0,0.75,1.75,1.5,4.5,0.5,1.25,1.5,0.5,3.25,0.0,1.0,1.25,0.02,0.52,1.58,270.86,-4.2,9.9
1.48,5.0,2.75,9.5,14.0,8.5,6.25,6.5,2.5,2.25,0.25,0.0,0.75,0.5,-0.05,0.02,1.02,933.93,12.9,46.5,2.0,0.75,2.0,1.5,3.5,0.75,1.25,1.5,0.5,3.25,0.0,1.0,1.25,0.08,0.83,2.02,265.68,-4.7,8.3
1.5,5.5,2.75,10.5,15.5,10.0,5.5,7.0,2.75,1.75,0.0,1.25,1.5,2.0,-0.05,0.02,1.02,1026.44,12.9,40.6,2.0,0.75,1.75,1.5,3.5,0.75,1.0,1.5,0.5,2.75,0.25,1.0,1.25,0.02,1.39,2.52,260.83,-4.7,8.6
1.52,5.25,1.25,10.5,14.0,11.5,5.5,6.25,2.5,1.75,0.0,0.5,0.5,0.5,-0.05,0.08,1.02,1074.02,13.0,47.1,2.0,0.75,1.75,1.5,3.75,0.25,1.0,1.5,0.5,2.75,0.0,1.0,1.25,-0.05,2.27,2.52,254.47,-5.2,9.8
1.54,6.0,1.5,10.5,15.5,10.5,5.25,6.0,1.75,1.0,0.0,1.25,0.25,1.5,-0.05,0.08,1.08,1105.7,13.7,46.8,2.0,0.75,1.75,1.75,3.5,0.0,1.0,1.5,0.5,2.5,0.0,1.0,1.25,-0.17,3.14,2.27,247.49,-6.2,10.7
1.56,6.5,2.5,11.5,15.0,11.0,4.0,6.25,2.25,1.0,0.75,0.0,1.25,0.5,-0.05,0.14,1.14,1123.27,14.7,48.7,2.0,0.75,1.75,1.5,4.25,0.5,1.0,1.5,0.5,3.0,0.0,1.0,1.25,-0.48,3.64,1.14,249.47,-4.4,10.3
1.58,7.5,2.5,12.0,7.0,12.5,3.0,5.25,1.25,1.0,0.25,0.0,1.0,0.5,-0.05,0.14,1.14,1057.58,15.7,52.5,1.75,0.75,1.75,1.25,3.5,0.0,1.0,1.5,0.5,2.5,0.0,1.0,1.25,-1.05,4.45,-0.17,243.32,-5.5,8.0
1.6,7.75,1.75,12.5,15.5,12.5,1.5,4.5,2.5,1.0,0.75,1.25,0.75,1.25,-0.11,0.2,1.2,1072.25,15.6,46.9,0.75,0.0,2.0,0.5,3.0,0.0,0.5,0.0,0.25,1.0,0.0,0.75,1.0,-2.05,5.45,-0.8,211.21,-8.8,13.6
1.62,8.5,1.25,12.0,14.5,12.0,0.25,1.75,1.0,0.75,0.75,0.0,0.5,0.5,-0.23,0.27,1.39,1026.69,17.7,55.6,0.75,0.0,0.5,0.5,0.5,0.0,0.25,0.0,0.25,1.75,0.0,1.75,2.0,0.14,-1.05,1.27,169.01,-2.1,-47.9
1.64,8.25,1.25,12.0,14.0,9.75,0.0,1.0,0.75,0.75,0.5,0.0,0.25,0.5,-0.3,0.33,1.58,970.17,19.2,57.8,0.75,0.0,0.0,0.5,0.0,0.0,0.25,0.0,0.0,3.5,0.25,4.5,6.0,-0.42,0.52,1.33,174.31,3.8,-85.8
1.66,8.25,2.25,11.0,13.0,8.25,0.25,2.25,1.0,1.0,1.25,1.25,1.75,1.25,-0.48,0.52,1.77,913.85,17.8,45.3,0.75,0.0,0.5,0.5,0.5,1.0,0.25,1.5,0.5,7.0,2.0,7.25,7.75,-0.36,0.45,3.2,250.88,4.0,-75.3
1.68,6.0,1.25,8.0,7.75,7.0,0.0,1.75,0.5,0.0,0.0,0.0,0.25,0.25,-0.55,1.33,2.58,739.57,19.8,61.1,0.75,0.0,1.75,0.5,1.25,2.75,0.75,2.75,0.75,8.5,5.5,7.25,9.0,0.27,0.33,1.64,379.19,3.0,-63.1
1.7,3.5,0.0,6.25,4.75,5.5,0.0,0.0,0.5,0.0,0.0,0.25,0.25,0.5,-0.48,1.89,3.14,524.15,18.3,54.0,1.75,0.75,1.75,1.25,3.0,2.5,0.75,3.25,1.25,8.5,6.25,7.75,9.25,0.02,0.08,1.08,560.46,1.3,-51.4
1.72,1.5,0.0,3.25,1.5,3.75,0.0,0.0,0.25,0.0,0.0,0.0,1.75,0.25,-0.55,0.58,3.39,307.73,15.3,33.7,0.75,1.0,1.75,0.5,2.75,3.75,0.75,4.25,1.5,8.25,6.25,7.0,9.25,0.08,0.08,0.95,706.46,3.1,-52.4
1.74,0.25,0.5,3.0,2.5,3.75,0.5,0.0,1.0,1.0,0.0,1.0,1.75,0.0,-0.8,-0.86,2.2,204.87,10.9,20.1,1.25,1.0,0.5,1.25,4.25,4.0,0.75,4.25,1.5,9.25,7.0,8.0,9.5,0.14,0.08,0.95,824.81,3.4,-50.5
1.76,1.5,1.0,2.75,2.5,3.75,0.75,0.0,1.0,1.0,0.75,1.0,1.75,0.25,-0.92,-0.92,0.95,146.84,10.2,21.1,0.75,0.25,0.5,0.5,4.5,2.25,0.5,4.25,1.25,8.5,6.25,7.0,8.5,0.14,0.08,0.95,844.79,4.0,-55.6
1.78,0.75,0.0,2.75,1.0,3.75,0.5,0.0,1.25,1.0,0.75,0.0,1.75,0.0,-0.67,-0.67,0.33,113.14,8.5,15.2,0.75,0.5,0.25,0.5,1.75,2.5,0.75,4.25,1.25,8.25,6.25,6.5,8.25,0.14,0.08,0.95,820.51,4.3,-61.9
1.8,0.0,0.0,0.5,1.25,0.0,0.0,0.0,0.5,0.0,0.0,0.0,0.25,0.0,-0.3,-0.61,0.27,38.25,14.0,23.5,0.75,0.75,0.75,1.0,2.25,2.75,0.75,4.0,1.5,8.0,5.75,6.5,8.0,0.14,0.08,0.95,780.09,3.3,-55.4
1.82,0.25,0.0,0.5,1.0,0.5,0.0,0.0,0.25,0.0,0.0,0.0,0.25,0.0,-0.17,-0.48,0.39,0.0,14.6,37.9,0.5,0.75,0.5,0.5,1.75,2.75,0.75,4.25,1.5,7.75,5.0,5.75,7.75,0.14,0.08,0.95,730.36,4.6,-58.2
1.84,1.25,0.25,0.75,1.75,3.0,1.0,0.25,1.0,0.5,1.0,1.25,1.75,0.5,-0.23,-0.42,0.45,0.0,4.8,2.8,0.75,0.5,0.5,0.5,2.25,3.25,0.75,4.5,1.75,7.25,4.5,5.75,7.5,0.14,0.08,0.95,684.4,4.6,-54.5
1.86,0.0,0.0,2.25,0.25,3.0,0.0,0.5,1.25,0.0,0.0,0.25,0.25,0.25,-0.3,-0.42,0.64,0.0,8.4,27.3,0.75,0.75,0.5,1.0,2.5,3.5,1.0,4.5,1.75,6.5,4.5,5.25,6.75,0.14,0.08,0.95,629.84,4.0,-48.2
1.88,0.0,0.0,0.0,0.75,0.0,0.0,0.0,0.5,0.0,0.0,0.0,0.25,0.25,-0.3,-0.36,0.7,0.0,2.1,-16.4,0.75,0.75,0.75,2.0,4.75,4.25,1.5,4.5,2.25,6.0,5.25,4.5,5.75,0.14,0.08,0.95,594.01,2.7,-34.4
1.9,1.5,0.0,2.0,0.25,1.25,0.0,0.5,1.75,0.0,0.0,0.5,1.75,0.5,-0.11,-0.11,0.95,33.13,12.0,0.9,1.5,0.75,0.5,3.25,4.5,4.5,1.75,4.25,2.5,5.5,3.25,4.0,5.5,0.08,0.08,0.95,552.18,2.0,-26.1
1.92,0.0,0.0,1.75,0.0,3.75,0.0,0.5,1.25,0.0,0.0,0.5,1.75,0.0,-0.05,0.02,1.08,74.87,6.3,7.3,3.5,1.75,2.0,5.5,5.75,5.5,3.0,4.5,3.0,6.0,3.25,4.0,5.0,0.08,0.08,0.95,602.57,-1.6,-8.6
1.94,1.25,1.0,2.0,1.25,2.5,0.75,0.5,1.0,0.75,0.75,0.0,0.75,1.0,-0.05,0.14,1.2,127.1,8.0,20.7,3.75,2.0,4.5,5.75,6.5,5.75,4.0,4.5,3.0,5.5,3.75,2.75,4.25,0.08,0.08,0.95,682.74,-4.0,1.0
1.96,0.0,0.5,0.25,1.25,0.0,0.75,0.0,0.25,0.75,0.75,0.0,0.25,0.25,-0.11,0.2,1.39,122.68,2.8,3.2,3.75,2.25,5.0,7.25,7.5,6.0,4.5,4.25,2.75,4.75,2.75,1.25,3.5,0.08,0.08,0.95,774.5,-4.9,12.5
1.98,0.0,0.0,1.75,0.0,3.5,0.0,0.5,1.0,0.75,0.75,0.5,1.75,1.0,-0.17,0.33,1.77,142.65,4.2,-11.1,3.5,1.5,4.75,7.0,6.0,5.5,4.75,3.25,2.0,3.25,1.25,1.0,2.0,0.08,0.08,0.95,768.85,-6.5,21.1
2.0,1.5,0.75,1.75,1.25,3.5,0.5,0.5,1.0,0.5,0.75,0.0,0.75,0.75,-0.23,0.45,2.14,160.3,7.7,25.8,3.75,1.5,6.25,7.5,7.5,5.5,5.5,3.0,1.75,3.5,1.25,1.0,1.25,0.08,0.08,0.95,777.72,-8.0,26.6
2.02,0.0,0.0,0.5,0.0,0.5,0.0,0.5,0.75,0.0,0.0,0.0,0.0,0.25,-0.23,1.02,2.7,136.57,4.0,4.9,4.75,1.75,6.5,9.0,8.0,5.75,6.0,2.75,1.5,3.0,1.0,1.0,1.25,0.08,0.08,0.95,782.55,-9.1,31.9
2.04,0.0,0.0,0.0,0.0,0.0,0.0,0.0,0.0,0.0,0.0,0.0,0.0,0.0,-0.3,2.2,2.89,93.17,0.0,0.0,5.0,2.0,7.5,9.25,8.25,6.0,6.25,2.0,1.25,2.25,0.5,1.0,1.25,0.08,0.08,0.95,806.68,-10.4,37.4
2.06,0.0,0.0,0.0,0.0,0.0,0.0,0.0,0.0,0.0,0.0,0.0,0.0,0.0,-0.17,3.64,2.33,35.72,0.0,0.0,5.5,1.75,8.0,11.0,9.25,6.0,6.25,2.0,1.25,2.0,0.25,0.75,0.5,0.08,0.08,0.95,852.41,-11.3,42.9
2.08,0.0,0.0,0.0,0.0,0.0,0.0,0.0,0.0,0.0,0.0,0.0,0.0,0.0,0.33,3.39,0.95,0.0,0.0,0.0,6.75,1.75,9.0,11.0,9.5,6.0,6.75,1.75,0.75,2.0,0.0,0.75,0.75,0.08,0.14,1.02,904.2,-12.3,45.3
2.1,0.75,0.0,0.0,1.5,0.0,0.25,2.5,0.0,0.5,1.25,0.0,1.75,0.75,1.89,6.33,0.08,20.5,9.5,-23.7,6.5,1.5,9.0,12.5,11.0,6.0,6.75,1.75,0.5,1.75,0.0,0.5,0.75,0.02,0.14,1.02,954.41,-12.0,47.0
2.12,0.75,0.0,1.0,0.0,2.5,0.0,0.5,3.5,1.25,3.5,1.75,7.0,5.0,2.77,7.39,-2.17,159.84,-0.9,-59.9,7.25,2.5,9.5,0.0,11.0,5.75,6.5,1.5,0.75,2.5,0.0,0.5,1.25,0.02,0.2,1.08,902.12,-10.8,42.5
2.14,1.25,1.0,1.5,1.25,3.5,0.5,0.0,4.5,1.0,6.0,3.75,8.25,8.5,0.33,0.27,1.33,317.89,-1.3,-52.4,7.5,2.25,10.5,16.0,12.0,4.5,6.25,0.0,0.5,1.75,0.0,0.5,1.0,0.02,0.2,1.08,967.6,-14.5,51.7
2.16,0.25,0.75,0.0,1.5,0.0,0.75,0.0,0.0,1.25,0.0,0.0,9.0,7.75,-0.55,0.2,2.27,386.09,0.6,-78.9,8.25,1.75,11.0,14.5,12.0,3.25,5.75,0.0,0.5,1.25,0.0,0.5,1.0,0.02,0.27,1.2,988.65,-15.8,53.3
2.18,0.0,0.75,1.5,1.25,3.5,1.5,0.0,3.0,0.75,8.0,7.0,9.0,8.25,0.08,0.02,1.14,548.71,-1.8,-59.1,8.5,2.5,11.0,14.5,11.0,2.0,5.5,0.25,0.5,1.25,0.0,0.5,1.0,0.08,0.33,1.2,1034.84,-16.9,54.1
2.2,0.0,1.0,1.75,1.5,0.0,2.5,0.0,4.5,1.25,8.25,8.5,8.25,9.5,-0.11,-0.05,0.95,675.0,-2.2,-65.1,9.0,2.5,11.0,12.5,9.5,0.5,5.25,0.0,0.5,1.5,0.0,0.5,0.75,0.14,0.39,1.45,1006.92,-18.9,55.6
2.22,0.0,0.0,0.25,0.0,3.5,1.0,0.0,4.5,0.5,7.25,7.5,8.25,8.75,-0.11,0.02,1.02,759.69,-4.3,-69.4,9.0,2.25,11.0,10.0,7.75,0.0,5.5,0.0,0.5,1.0,0.0,0.25,0.25,0.27,0.64,1.77,932.76,-21.2,59.6
2.24,0.0,0.0,0.25,0.0,3.5,1.25,0.0,4.5,1.0,7.25,7.75,8.25,8.5,-0.11,-0.05,0.95,800.54,-4.0,-68.3,8.25,1.75,9.0,7.5,4.5,0.0,6.5,0.0,0.25,0.75,0.0,0.25,0.5,0.45,1.08,2.39,763.83,-23.2,59.0
2.26,0.5,1.25,1.75,1.5,6.5,2.25,0.5,5.25,1.75,8.75,9.0,9.0,10.0,-0.05,-0.05,0.95,931.34,-1.8,-48.5,6.25,1.0,7.25,5.5,1.0,0.0,5.5,0.0,0.0,0.75,0.0,0.25,0.5,0.7,1.77,2.83,559.42,-26.2,57.3
2.28,1.5,1.25,1.25,1.5,3.75,3.0,0.0,5.25,1.75,8.75,9.0,9.0,9.75,-0.05,-0.05,0.95,993.64,-1.8,-51.8,3.25,0.75,5.0,3.25,0.0,0.0,2.5,0.0,0.0,1.0,0.0,0.25,0.5,1.2,1.33,3.83,360.65,-25.4,49.4
2.3,1.5,1.25,0.0,1.75,3.75,3.0,0.25,5.5,2.0,7.0,8.5,7.75,9.0,-0.05,-0.05,0.95,999.82,-2.4,-50.5,1.0,0.25,2.5,0.75,0.25,0.0,0.75,0.0,0.25,1.25,0.0,0.25,0.25,0.64,-1.36,2.39,207.75,-19.5,25.7
2.32,1.5,1.25,0.5,1.75,4.75,3.75,1.0,5.75,2.75,8.0,7.5,8.25,9.0,-0.05,-0.05,0.95,998.24,-2.3,-46.0,1.0,0.5,1.75,0.75,1.25,0.0,0.75,0.0,0.25,1.0,0.0,0.25,0.5,0.77,-0.92,2.02,86.66,-14.1,27.5
2.34,0.5,1.25,0.25,2.75,4.25,4.0,1.25,5.75,3.5,7.25,7.75,7.75,7.25,-0.05,-0.05,0.95,946.53,-2.1,-44.5,0.75,0.25,1.75,1.0,1.25,0.0,0.75,0.0,0.25,1.0,0.0,0.25,0.75,1.14,-1.05,1.39,4.6,-12.7,19.6
2.36,1.5,1.25,0.0,4.0,4.75,4.75,1.75,5.75,3.75,6.75,7.5,7.5,7.25,-0.05,0.02,0.95,904.28,-1.2,-37.1,1.0,0.25,1.75,1.0,1.5,0.0,0.75,0.0,0.5,2.0,0.0,1.0,0.5,0.58,-0.86,0.7,0.0,-10.3,5.3
2.38,1.5,1.25,2.0,4.0,3.5,5.0,1.25,5.75,4.25,5.75,7.0,6.75,6.5,-0.05,-0.05,0.95,867.36,0.3,-32.7,2.0,0.75,2.25,3.25,4.5,1.75,0.75,1.5,0.5,2.75,0.0,1.0,1.25,0.27,-0.61,0.45,51.07,-4.7,18.0
2.4,1.75,1.25,2.75,4.75,5.0,5.25,2.5,5.75,4.25,5.25,6.25,5.75,6.0,-0.05,-0.05,0.95,865.97,1.3,-23.0,0.75,0.25,2.25,0.75,4.5,0.0,1.25,1.75,0.25,0.75,0.0,0.0,1.0,0.14,-0.48,0.58,90.13,-5.8,24.1
2.42,2.25,1.25,3.25,6.0,6.75,5.75,3.5,5.75,4.25,3.75,5.5,5.0,5.0,-0.05,0.02,0.95,842.4,2.7,-11.0,0.75,0.25,1.75,0.75,1.25,0.0,0.75,0.0,0.25,0.75,0.0,0.5,0.5,0.27,-0.42,0.7,92.37,-14.3,21.6
2.44,2.5,1.25,4.5,7.5,8.0,6.5,3.75,5.25,3.75,2.0,4.75,3.25,4.25,-0.05,0.02,0.95,857.59,4.2,2.9,1.0,0.25,1.75,0.75,0.5,1.75,0.5,0.5,0.5,2.5,0.0,1.0,1.5,0.39,-0.23,0.77,99.47,-2.6,-11.4
2.46,3.0,1.5,5.25,9.25,8.5,6.5,3.75,4.75,3.25,2.75,3.75,3.25,2.75,-0.05,0.02,0.95,886.92,5.5,11.2,2.0,0.75,2.0,2.5,4.5,1.75,0.75,1.5,0.5,2.75,0.0,1.0,1.25,0.33,0.08,0.95,162.65,-3.9,16.0
2.48,3.25,2.25,6.5,12.0,9.5,7.0,4.75,4.5,2.5,2.0,2.5,2.5,2.25,-0.05,0.02,0.95,932.45,7.1,23.2,2.0,0.75,2.0,2.0,4.25,1.25,0.75,1.5,0.5,2.5,0.25,1.0,1.25,0.39,0.33,0.89,218.06,-4.6,14.0
2.5,3.5,2.5,7.25,14.0,10.0,7.0,3.75,4.5,1.5,0.0,2.5,1.25,2.25,-0.05,0.02,1.02,968.66,8.3,32.8,2.0,0.75,2.0,2.0,4.5,1.75,0.75,1.5,0.5,3.0,0.25,1.0,1.25,0.39,0.58,0.77,272.53,-3.4,12.9
2.52,3.25,1.25,7.25,12.5,11.0,6.75,2.75,2.75,1.0,0.0,1.0,1.25,0.75,-0.05,0.08,1.02,954.08,8.9,41.0,2.0,0.75,1.75,2.0,4.5,1.25,0.75,1.5,0.5,2.75,0.25,1.0,1.5,0.33,0.64,0.89,299.22,-3.6,11.4
2.54,5.0,2.75,7.5,15.5,12.5,7.25,3.75,2.5,1.0,2.0,0.5,1.75,1.5,-0.05,0.08,1.02,1016.32,8.8,39.5,2.0,0.75,1.75,1.5,4.5,1.25,0.75,1.5,0.5,2.75,0.25,1.0,1.25,0.33,0.95,1.33,306.53,-3.4,11.7
2.56,5.0,1.25,9.25,14.5,12.5,6.5,3.75,2.75,1.0,0.75,1.5,1.25,1.5,-0.05,0.08,1.02,1043.49,10.2,39.8,1.75,0.75,1.75,1.25,4.5,1.25,0.75,1.5,0.5,3.0,0.25,1.0,1.25,0.39,1.45,1.7,296.45,-2.6,9.0
2.58,6.0,1.5,9.0,14.5,13.5,5.5,3.25,2.5,1.0,0.75,0.5,1.75,2.0,-0.05,0.14,1.14,1093.84,10.5,40.9,2.0,0.75,1.75,1.25,4.5,1.75,0.75,1.5,0.5,3.0,0.0,1.0,1.0,0.39,2.14,1.83,291.79,-2.5,13.1
2.6,7.25,3.0,10.0,15.5,13.0,5.0,1.75,2.5,0.75,0.75,1.5,1.0,1.25,-0.05,0.14,1.14,1134.99,12.0,46.0,1.75,0.75,1.75,1.25,4.75,1.75,0.75,1.5,0.5,2.25,0.25,1.0,2.0,0.33,2.89,1.58,288.58,-2.0,8.8
2.62,7.5,2.75,10.0,15.0,12.5,3.5,0.0,1.5,0.5,0.75,1.5,0.5,0.5,-0.11,0.2,1.27,1129.07,13.6,51.6,0.5,0.25,1.75,0.5,4.5,0.0,0.75,1.0,0.0,0.75,0.0,0.0,1.25,-0.17,3.2,1.02,253.21,-3.9,22.5
2.64,7.75,2.75,10.0,15.5,12.5,2.5,0.0,1.5,0.25,0.75,0.0,0.75,0.25,-0.11,0.2,1.33,1085.4,14.5,55.8,1.25,0.25,1.0,0.5,0.5,0.0,0.25,0.0,0.0,1.75,0.0,1.0,1.0,-6.67,7.95,0.52,207.28,-8.2,-11.7
2.66,7.25,2.75,9.75,14.0,11.5,1.25,0.0,1.5,0.0,0.75,0.25,0.5,0.5,-0.3,0.33,1.52,1000.4,15.3,55.6,2.0,0.5,0.75,0.5,0.25,0.0,0.0,0.0,0.5,3.75,0.25,5.25,3.25,-3.05,1.89,3.7,198.37,-3.5,-54.9
2.68,6.75,2.75,8.25,11.0,10.0,0.25,0.0,0.25,0.0,0.0,0.0,0.5,0.5,-0.3,0.45,1.77,862.43,17.2,61.3,3.25,0.75,1.75,0.75,0.25,0.0,0.25,0.0,0.5,4.75,2.5,5.5,6.5,0.7,-0.3,-0.42,237.01,-4.3,-50.6
2.7,5.75,1.5,5.0,7.5,8.25,0.0,0.0,0.5,0.0,0.25,0.0,0.25,0.75,-0.42,1.14,2.39,664.2,15.6,57.8,3.5,0.75,2.0,1.0,0.0,0.0,0.75,0.0,0.75,4.75,2.5,5.75,6.5,0.08,0.2,1.33,287.16,-5.4,-48.1
2.72,3.25,1.25,2.75,5.25,6.5,0.0,0.0,0.75,0.0,0.0,0.0,0.25,0.5,-0.61,1.58,2.58,455.7,13.0,55.5,4.75,0.75,3.25,1.25,0.0,0.0,1.25,0.25,1.25,5.5,3.25,5.75,6.75,0.08,0.02,0.77,362.99,-7.4,-38.9
2.74,1.5,0.0,0.5,2.0,4.25,0.0,0.0,0.5,0.0,0.0,0.0,0.25,0.25,-0.61,0.7,2.27,273.92,7.9,48.1,5.0,0.75,4.25,2.0,0.0,0.0,1.75,0.25,1.25,6.0,4.5,6.5,7.25,0.08,0.14,1.02,446.88,-8.3,-36.9
2.76,1.5,1.0,0.5,2.5,0.0,0.25,0.0,0.5,1.0,0.0,0.75,1.0,0.75,0.02,-0.42,0.89,148.45,13.4,12.6,5.75,1.0,4.5,2.25,0.0,0.0,2.5,1.5,1.75,6.5,5.0,6.5,7.5,0.02,0.08,1.02,538.33,-8.2,-33.6
2.78,1.25,1.25,2.25,2.5,3.75,1.0,0.0,1.75,0.75,0.0,1.25,1.0,0.5,-0.11,0.77,1.27,88.39,8.3,24.9,6.25,1.0,4.75,2.75,0.0,0.0,3.25,1.75,1.75,6.5,5.5,6.5,7.75,0.02,0.02,0.95,620.12,-8.7,-31.1
2.8,1.5,0.5,1.75,1.75,3.75,1.25,0.0,1.75,0.75,0.0,1.25,1.25,0.5,-0.36,0.45,1.33,80.45,6.7,17.9,6.25,1.5,4.5,3.25,0.0,0.0,3.75,1.75,1.75,6.0,5.25,6.5,7.75,0.02,0.08,0.95,682.54,-9.0,-28.2
2.82,1.5,0.0,2.25,1.75,3.5,1.25,0.0,1.5,0.75,0.0,0.25,0.5,0.5,-0.36,0.08,1.14,87.23,7.8,29.8,6.25,1.5,4.75,3.0,0.0,0.0,4.0,1.75,2.0,6.0,5.5,6.5,7.75,0.02,0.08,0.95,721.97,-9.2,-28.3
2.84,1.0,0.0,1.75,1.5,3.5,1.25,0.0,1.25,0.75,0.5,1.25,1.75,0.0,-0.17,-0.17,0.83,97.89,6.4,10.1,6.25,1.75,4.75,3.25,0.0,0.0,4.0,1.75,2.5,6.0,5.25,6.25,7.5,0.02,0.02,0.95,740.79,-9.4,-26.1
2.86,1.0,0.0,2.5,1.25,3.5,1.25,0.0,1.0,0.75,0.75,1.25,1.75,0.5,-0.05,-0.11,0.64,118.14,7.2,7.3,6.75,2.5,4.5,4.5,0.0,1.0,4.5,1.75,3.0,6.0,5.0,6.5,6.75,0.02,0.02,0.95,773.84,-9.6,-18.9
2.88,0.25,0.0,2.5,0.25,3.5,0.25,0.0,0.5,0.0,0.0,0.0,0.5,0.5,0.02,-0.05,0.39,102.76,9.1,32.6,8.25,2.5,6.25,5.25,0.0,1.25,6.0,2.5,3.0,6.0,5.5,5.75,6.75,0.02,0.02,0.95,826.48,-11.1,-11.1
2.9,1.25,0.0,0.25,1.0,0.0,0.0,0.0,0.5,0.0,0.0,0.0,1.25,0.0,0.02,0.14,0.33,74.42,16.9,8.2,8.25,2.5,6.25,5.5,0.0,1.25,6.75,2.5,3.0,5.5,4.5,5.25,5.75,0.02,0.08,0.95,848.09,-12.0,-5.9
2.92,0.0,0.0,0.25,0.0,0.0,0.25,0.0,0.5,0.0,0.0,0.0,1.75,0.0,0.02,0.33,0.2,44.84,4.2,-68.3,8.75,3.0,6.25,5.75,0.25,1.75,7.25,2.0,3.0,4.75,4.25,3.75,5.0,0.02,0.08,0.95,857.21,-13.1,3.4
2.94,1.5,0.0,0.25,1.25,0.0,0.5,0.0,0.5,0.25,0.75,0.0,0.5,0.0,-0.05,0.39,-0.17,39.48,10.6,19.2,9.25,3.5,6.5,7.0,0.25,2.25,8.0,1.75,3.0,2.75,3.0,2.75,4.0,0.02,0.08,0.95,844.76,-15.4,17.4
2.96,0.75,0.0,0.25,1.5,0.0,1.5,0.0,0.5,0.75,0.75,0.0,1.75,0.0,-0.11,0.33,-0.36,54.32,4.3,-9.4,8.75,2.5,7.0,6.75,1.0,2.0,8.5,1.75,2.25,1.75,2.5,2.0,3.5,0.02,0.08,0.95,798.1,-16.6,23.0
2.98,1.0,0.0,1.75,1.25,3.5,1.0,0.5,0.75,0.0,0.0,0.25,0.25,1.5,-0.11,0.33,-0.11,101.44,5.6,23.9,10.0,4.0,7.5,8.5,2.75,2.25,9.0,0.0,2.5,3.5,1.25,2.5,2.0,0.02,0.08,0.95,798.66,-17.3,33.4
3.0,1.25,0.0,0.25,1.5,0.0,1.0,0.25,0.5,0.25,1.0,0.5,1.75,1.0,2.08,7.7,-3.42,114.52,5.0,-20.8,10.5,4.0,7.5,9.25,4.5,2.25,10.0,1.25,1.75,3.5,2.5,2.25,2.75,0.02,0.08,1.02,850.87,-15.6,30.7
3.02,1.0,0.0,1.75,1.0,3.5,1.25,0.5,0.5,0.25,1.25,1.25,1.75,0.5,-0.3,3.08,0.08,149.12,5.6,4.2,11.0,4.25,8.25,9.5,4.75,2.25,11.0,0.5,1.75,3.5,2.25,2.25,2.5,0.02,0.08,1.02,926.42,-16.7,34.0
3.04,0.0,0.0,2.25,0.0,3.5,0.0,0.5,0.5,0.25,0.0,1.25,0.25,1.0,-1.17,-0.86,0.27,153.74,8.0,10.5,11.5,4.25,8.5,11.0,5.25,2.0,11.0,0.0,1.5,3.5,2.25,2.0,2.5,0.02,0.08,1.08,1000.63,-17.2,36.9
3.06,0.0,0.0,1.75,0.0,3.5,0.0,1.0,0.5,0.0,0.0,1.0,0.25,0.25,1.52,1.14,-2.3,153.15,8.6,23.0,11.5,3.5,9.0,11.0,6.0,2.0,11.5,0.0,1.25,1.75,2.0,1.0,2.25,0.02,0.14,1.02,1032.4,-18.5,43.9
3.08,0.5,0.0,0.25,1.0,0.0,0.75,0.5,0.25,0.0,1.0,0.0,1.75,0.25,0.58,-0.11,-0.67,127.23,4.6,-25.4,12.0,5.0,9.0,12.5,6.25,1.25,11.0,0.0,1.25,4.25,1.25,2.0,2.25,0.02,0.2,1.08,1081.63,-17.4,40.5
3.1,1.25,0.75,2.0,1.25,3.5,1.25,1.25,0.5,0.25,1.0,0.25,1.75,1.75,-0.11,-0.3,0.08,164.77,6.1,9.2,12.5,5.0,10.0,12.5,6.5,0.75,11.0,0.0,1.25,3.25,1.25,1.75,2.25,0.08,0.45,1.02,1112.45,-18.6,43.8
3.12,0.75,0.75,1.75,1.25,3.5,1.0,1.25,0.5,0.25,1.25,1.25,1.75,1.0,-0.17,0.58,-0.8,197.72,6.1,4.7,12.5,5.0,11.0,12.0,6.25,0.0,10.5,0.0,1.25,3.25,1.25,1.75,2.25,-0.11,0.83,0.95,1141.1,-19.4,44.0
3.14,0.75,0.25,1.75,1.25,3.0,1.0,1.25,0.5,0.25,0.75,1.25,1.75,1.25,-0.11,1.08,-1.98,224.49,6.7,0.3,12.0,4.5,11.5,11.5,5.5,0.0,9.25,0.0,1.25,3.0,1.25,1.5,2.0,0.08,0.39,1.02,1131.42,-20.1,45.0
3.16,1.25,0.25,2.25,1.0,3.5,1.0,1.25,0.75,0.25,1.25,1.25,1.75,1.0,0.33,1.02,-2.48,239.15,7.2,4.7,12.5,4.5,12.5,11.0,4.75,0.0,8.5,0.0,1.25,2.75,1.25,1.0,1.75,0.02,0.7,0.89,1102.99,-21.2,48.1
3.18,1.25,0.5,2.25,1.25,3.5,1.25,1.25,0.75,0.25,0.75,1.25,1.75,1.25,0.33,1.64,-1.42,246.82,7.4,7.9,11.5,4.25,12.0,9.75,4.5,0.5,8.25,0.0,1.0,2.75,1.25,1.0,1.5,0.02,0.58,0.89,1037.67,-20.9,47.7
3.2,1.25,1.0,2.25,1.25,3.5,1.0,1.25,0.5,0.0,1.0,0.5,1.75,0.75,0.33,1.33,-0.86,245.38,8.5,18.3,11.5,3.25,10.0,9.0,1.0,1.0,8.25,0.0,0.75,2.75,1.25,1.0,1.25,-0.11,1.2,0.89,919.85,-22.3,46.5
3.22,1.0,1.0,2.25,1.25,3.5,1.25,1.25,0.5,0.25,0.75,1.25,1.75,1.0,0.45,1.27,-0.48,247.22,7.8,12.0,10.0,4.0,9.0,7.25,1.0,1.25,7.5,0.0,0.5,2.5,1.0,1.25,1.25,-0.3,1.58,1.33,785.6,-21.5,46.0
3.24,0.75,0.25,2.0,1.25,3.5,1.25,1.25,0.75,0.25,1.0,1.25,1.75,1.0,0.27,1.39,-0.11,248.19,6.0,3.6,8.25,3.5,7.5,4.0,1.5,1.25,6.0,0.0,0.75,3.0,0.0,1.0,1.25,-2.42,2.7,1.2,631.44,-19.8,43.6
3.26,1.5,0.0,1.75,0.0,3.75,0.0,1.25,0.5,0.0,0.0,0.75,0.0,1.0,0.08,1.45,0.08,222.36,10.4,29.6,6.25,2.5,6.25,3.25,0.0,1.25,3.0,0.0,0.25,1.5,0.0,0.75,0.75,0.89,-1.3,2.83,460.28,-22.2,49.9
3.28,1.0,1.0,0.0,1.25,0.0,1.25,5.75,0.5,0.0,0.75,1.25,0.75,0.5,0.14,1.52,0.14,200.91,11.2,7.2,4.5,1.75,4.5,3.25,1.25,1.25,2.5,0.0,0.25,0.75,0.0,0.25,1.25,-0.17,0.39,0.27,328.39,-19.0,48.2
3.3,0.0,0.5,0.25,0.0,3.75,1.75,1.25,0.5,1.25,0.0,0.75,0.75,0.5,0.7,1.02,0.27,179.07,-0.2,10.0,1.0,0.5,3.75,0.75,0.0,0.0,1.25,0.0,0.25,1.0,0.0,0.5,1.25,-1.48,0.89,0.14,206.48,-19.9,16.3
3.32,0.0,1.25,0.0,0.0,0.0,0.25,6.0,4.5,0.25,0.75,1.5,0.75,0.0,1.08,0.08,-0.73,166.71,3.4,-18.0,1.0,0.25,1.75,0.75,0.25,0.0,0.75,0.0,0.25,0.75,0.0,0.25,0.25,-1.05,1.08,0.02,84.6,-20.0,29.6
3.34,1.0,1.25,1.75,1.25,3.5,1.0,1.0,0.5,0.0,1.25,0.0,1.75,1.0,1.2,-0.86,-1.11,174.37,6.1,16.2,1.0,0.25,1.75,0.5,0.25,0.0,0.75,0.0,0.25,0.5,0.0,0.25,0.0,-0.92,1.08,-0.3,0.0,-23.6,40.2
3.36,0.75,1.0,1.75,1.25,3.5,1.0,1.0,0.5,0.0,1.25,1.0,1.75,1.0,0.95,-1.05,-0.92,194.93,5.9,8.0,1.0,0.25,1.75,0.5,0.25,0.0,0.75,0.0,0.25,0.5,0.0,0.25,0.5,-1.36,0.95,-0.11,0.0,-20.2,26.6
3.38,0.75,0.75,1.75,0.5,3.5,1.25,1.0,0.5,0.0,1.25,1.25,1.75,1.0,0.58,-0.61,-0.17,208.64,4.8,3.0,0.75,0.25,1.75,0.5,0.25,0.0,0.75,0.0,0.25,0.5,0.0,0.25,0.5,-1.05,1.14,0.64,0.0,-19.6,23.6
3.4,1.25,0.5,1.5,1.0,3.5,1.75,0.75,0.5,0.0,1.0,1.25,1.75,1.25,0.39,-0.23,-0.36,217.01,4.4,5.2,0.5,0.25,1.75,0.5,0.25,0.0,0.75,0.0,0.25,0.25,0.0,0.25,0.25,-0.48,1.45,0.95,0.0,-22.5,32.4
3.42,0.75,1.25,1.5,1.25,3.5,0.5,0.75,0.5,0.0,0.75,1.0,1.75,1.0,0.27,0.27,-1.05,218.24,6.9,10.5,0.75,0.25,1.5,0.5,0.25,0.0,0.75,0.0,0.25,0.5,0.0,0.25,0.25,-0.23,1.89,1.08,0.0,-20.3,28.6
3.44,1.0,1.25,1.75,1.25,3.5,1.0,0.75,0.5,0.0,1.25,1.0,1.75,0.5,0.39,1.14,-1.36,222.61,6.8,14.6,0.75,0.25,1.25,0.5,0.25,0.0,0.75,0.0,0.25,0.75,0.0,0.0,0.5,-0.3,1.89,0.83,0.0,-16.4,21.3
3.46,0.25,1.0,1.5,1.25,3.5,0.75,1.0,0.5,0.0,0.75,1.25,1.75,1.0,0.45,1.7,-1.55,220.21,5.6,5.3,0.75,0.25,1.0,0.5,0.5,0.0,0.75,0.0,0.25,0.5,0.0,0.25,0.5,-0.61,1.58,-0.17,0.0,-15.3,19.5
3.48,0.75,0.5,1.75,1.0,3.5,0.5,0.75,0.5,0.0,1.0,1.25,1.75,1.0,0.58,1.89,-1.61,220.21,6.6,2.9,0.75,0.25,1.25,0.5,0.25,0.0,0.75,0.0,0.0,0.5,0.0,0.25,0.5,-0.92,1.45,-0.36,19.0,-17.9,22.7
3.5,1.0,1.25,1.5,1.25,3.5,1.0,0.75,0.5,0.0,0.75,1.25,1.75,1.0,0.39,1.77,-1.42,223.97,6.4,11.2,0.75,0.5,0.5,0.5,0.25,0.0,0.75,0.0,0.25,0.5,0.0,0.25,0.25,-1.05,1.39,0.2,38.65,-15.4,24.9
3.52,0.75,0.75,1.75,1.25,3.5,0.25,1.0,0.5,0.0,1.25,1.0,1.75,0.5,-0.17,1.52,-1.17,219.61,7.9,9.3,0.75,0.25,1.0,0.5,0.25,0.0,0.75,0.0,0.0,0.5,0.0,0.0,0.25,-1.23,1.14,0.33,49.54,-19.2,37.3
3.54,0.75,0.5,1.75,1.0,3.5,1.0,1.0,0.5,0.0,0.75,0.75,1.75,0.5,-0.48,1.45,-0.61,213.45,6.8,12.6,0.5,0.25,0.75,0.5,0.25,0.0,0.75,0.0,0.25,0.5,0.0,0.25,0.5,-1.36,1.14,0.45,60.47,-14.1,10.2
3.56,1.25,0.5,1.75,0.5,3.5,1.5,1.0,0.5,0.0,0.75,1.0,1.75,1.0,-0.86,1.2,-0.36,210.67,5.8,8.7,0.5,0.0,0.5,0.5,0.25,0.0,0.75,0.0,0.0,0.25,0.0,0.0,0.5,-1.42,0.83,-0.11,56.1,-15.3,19.6
3.58,0.75,1.25,1.5,1.25,3.5,1.25,1.0,0.5,0.0,1.0,0.75,1.75,1.25,-0.98,1.39,-0.23,213.05,5.0,9.7,0.75,0.25,0.5,0.5,0.25,0.0,0.5,0.0,0.0,0.5,0.0,0.25,0.5,-1.36,0.64,-0.17,54.79,-13.3,14.8
3.6,1.0,0.75,1.5,1.0,3.5,0.75,1.25,0.5,0.0,1.0,1.25,1.75,1.0,-0.42,0.64,-0.11,215.12,6.5,5.9,0.75,0.25,0.5,0.5,0.25,0.0,0.5,0.0,0.0,0.5,0.0,0.25,0.25,-1.42,0.64,0.02,52.48,-15.3,23.9
3.62,0.0,0.75,1.5,1.0,3.5,1.25,1.0,0.5,0.0,1.0,1.0,1.75,0.75,0.27,-0.05,-0.23,212.62,3.7,4.1,0.5,0.25,0.5,0.5,0.25,0.0,0.5,0.0,0.0,0.75,0.0,0.25,0.5,-1.05,0.58,-0.05,54.22,-10.1,3.8
3.64,1.0,0.0,1.75,1.25,3.5,1.25,1.0,0.5,0.0,1.0,0.75,1.75,1.0,0.58,-0.61,-0.23,211.29,5.7,6.3,0.75,0.25,0.5,0.5,0.25,0.0,0.5,0.0,0.0,0.75,0.0,0.25,0.25,-0.73,0.58,-0.36,55.54,-13.2,17.3
3.66,1.25,0.25,1.5,1.25,3.5,1.25,1.0,0.5,0.0,1.0,1.25,1.75,1.0,0.64,-1.11,-0.17,213.17,5.8,5.7,0.75,0.5,0.5,0.75,0.25,0.0,0.5,0.0,0.25,1.5,0.0,0.5,0.5,-0.73,0.45,-0.36,67.27,-8.2,-2.6
3.68,1.0,1.0,1.25,1.25,3.5,1.25,1.0,0.5,0.0,0.75,1.0,1.75,0.75,0.58,-1.42,-0.11,214.63,5.8,12.8,0.5,0.25,0.75,0.5,0.5,0.0,0.5,0.0,0.0,0.75,0.0,0.25,0.75,-0.92,0.33,-0.05,71.39,-9.5,3.7
3.7,0.75,0.75,1.75,0.25,3.5,1.25,0.75,0.5,0.0,0.75,0.75,1.75,0.5,0.52,-1.48,0.02,210.21,5.6,11.8,0.75,0.25,0.5,0.5,0.25,0.0,0.5,0.0,0.0,0.75,0.0,0.25,0.25,-0.86,0.14,0.2,71.26,-13.2,17.3
3.72,0.5,1.25,1.25,1.25,3.5,1.25,0.75,0.5,0.0,0.75,1.25,1.75,1.25,0.45,-1.42,0.52,212.62,4.3,6.1,1.75,0.75,1.75,0.75,2.75,1.0,0.75,0.0,0.5,2.25,0.25,1.0,1.25,-0.05,-0.42,0.39,124.41,-6.3,9.9
3.74,0.75,0.5,1.75,1.25,3.5,1.25,0.5,0.5,0.0,1.25,0.75,1.75,1.0,0.33,-1.61,0.58,212.08,4.7,6.3,1.75,0.75,1.75,0.75,3.0,1.0,0.75,0.0,0.5,2.5,0.0,1.0,1.25,0.58,-0.73,0.02,171.98,-5.7,10.7
3.76,1.25,1.25,1.0,0.5,3.5,1.25,0.75,0.5,0.0,0.75,1.0,1.75,0.75,0.08,-1.61,0.58,212.54,5.0,12.3,0.5,1.0,1.75,0.75,3.0,1.0,0.5,0.0,0.5,2.25,0.0,0.25,0.25,1.14,-0.86,-0.17,200.79,-4.6,23.6
3.78,0.5,0.75,1.75,0.0,3.5,1.5,0.75,0.5,0.0,0.75,0.75,1.75,0.5,-0.11,-1.42,0.45,205.11,4.3,9.8,0.75,0.25,0.5,0.5,0.5,0.0,0.75,0.0,0.0,0.75,0.0,0.25,0.75,1.58,-0.92,-0.61,176.87,-9.7,5.9
3.8,0.75,1.25,1.75,1.25,3.5,1.25,1.0,0.5,0.0,0.75,0.5,1.75,0.75,-0.36,-1.11,-0.11,207.46,6.4,17.5,0.5,0.25,0.5,0.5,0.25,0.0,0.5,0.0,0.0,0.75,0.0,0.25,0.5,1.33,-0.92,-0.3,140.06,-10.1,3.8
3.82,0.5,1.0,1.25,1.25,3.5,1.25,1.0,0.5,0.0,1.0,0.75,1.75,0.75,-0.61,-0.73,-0.42,206.79,4.4,10.0,0.5,0.25,0.5,0.5,0.25,0.0,0.5,0.0,0.0,0.75,0.0,0.0,0.25,0.95,-0.86,0.39,94.11,-12.0,21.2
3.84,0.0,1.25,1.25,1.25,3.5,1.25,0.75,0.5,0.0,0.75,0.5,1.75,1.0,-0.48,-0.61,-0.8,207.24,3.2,9.4,0.5,0.0,0.5,0.5,0.25,0.0,0.75,0.0,0.0,1.5,0.0,0.5,0.25,0.89,-0.98,0.45,71.85,-7.5,-14.3
3.86,0.5,0.75,1.5,0.5,3.5,1.25,0.75,0.5,0.0,0.75,1.25,1.75,0.75,-0.11,-0.61,-0.86,204.75,4.5,5.0,1.5,0.75,1.75,0.75,2.5,1.0,1.0,0.0,0.5,2.0,0.25,1.0,1.25,1.02,-0.92,0.14,114.41,-6.6,9.2
3.88,1.0,0.75,1.25,1.5,3.5,1.5,0.5,0.5,0.0,0.75,0.5,1.75,0.5,0.08,-0.67,-0.86,204.69,5.2,17.4,2.0,0.75,1.75,0.75,2.75,1.0,0.75,0.0,0.5,2.25,0.25,1.0,1.25,1.02,-0.8,-0.05,161.97,-6.7,11.2
3.9,0.25,0.5,1.5,1.25,3.5,1.25,0.75,0.5,0.0,0.75,0.75,1.75,0.5,0.02,-0.61,-0.55,200.34,4.7,9.8,1.75,0.75,1.75,0.75,3.0,1.25,0.75,0.0,0.5,2.25,0.25,1.0,1.25,0.83,-0.73,-0.05,202.19,-5.7,11.1
3.92,0.5,0.25,1.5,1.0,3.75,1.25,0.75,0.5,0.0,0.75,1.0,1.75,1.0,0.08,-0.48,-0.3,201.12,4.1,3.8,1.75,0.75,1.75,0.75,3.0,1.0,0.75,0.0,0.5,2.25,0.0,1.0,1.25,0.64,-0.8,-0.05,220.31,-6.0,12.1
3.94,0.5,0.75,1.25,0.25,3.5,1.25,0.5,0.5,0.0,0.75,1.0,1.75,1.0,0.08,-0.42,-0.17,197.42,2.9,1.9,1.0,0.25,1.75,0.5,2.75,0.0,1.25,0.0,0.0,0.75,0.0,0.25,1.0,0.58,-0.8,-0.05,204.26,-10.6,26.4
3.96,0.75,0.5,1.0,1.0,3.5,0.75,0.5,0.5,0.0,1.0,1.25,1.75,0.5,-0.17,-0.23,-0.11,193.77,4.8,4.2,0.5,0.25,0.5,0.5,0.5,0.0,0.75,0.0,0.0,0.75,0.0,0.0,0.5,0.58,-0.73,-0.05,151.99,-9.8,15.2
3.98,0.75,0.5,1.25,1.25,3.5,1.25,0.75,0.5,0.0,0.75,0.5,1.75,0.75,-0.36,-0.05,-0.23,193.62,4.6,11.1,0.5,0.25,0.5,0.5,0.5,0.0,0.75,0.0,0.0,0.75,0.0,0.25,0.25,0.58,-0.73,0.02,109.96,-11.3,15.5
4.0,1.0,0.25,1.25,1.0,3.5,1.25,0.75,0.5,0.0,0.75,0.5,1.75,0.5,-0.48,-0.05,-0.36,193.1,5.1,12.4,0.5,0.25,0.5,0.5,0.25,0.0,0.5,0.0,0.0,0.75,0.0,0.0,0.25,0.58,-0.73,0.2,78.14,-12.0,21.2
4.02,0.75,0.75,1.0,0.25,3.5,1.0,0.5,0.5,0.0,1.0,0.75,1.75,1.0,-0.61,-0.05,-0.3,190.97,2.7,1.8,0.25,0.0,0.5,0.0,1.0,0.0,0.5,0.0,0.0,0.75,0.0,0.0,0.0,0.64,-0.61,0.27,58.37,-6.9,22.8
4.04,1.0,0.5,1.0,1.0,3.5,1.0,1.0,0.5,0.0,0.75,0.75,1.5,0.5,-0.73,-0.05,-0.3,188.75,5.4,13.6,0.5,0.25,0.25,0.25,0.25,0.0,0.5,0.0,0.0,0.5,0.0,0.0,0.25,0.77,-0.48,0.33,40.39,-11.6,22.9
4.06,1.0,1.25,1.5,1.0,3.5,1.75,0.75,0.5,0.0,1.25,0.75,1.75,0.5,-0.86,0.08,-0.17,200.93,4.7,15.4,0.5,0.25,0.5,0.5,0.25,0.0,0.75,0.0,0.0,0.5,0.0,0.25,0.25,0.95,-0.36,0.27,32.81,-14.5,18.9
4.08,0.5,1.0,1.25,1.0,3.5,1.25,0.75,0.5,0.0,0.75,0.75,1.75,0.75,-1.23,0.39,-0.42,204.1,4.3,10.5,0.5,0.25,0.5,0.5,0.25,0.0,0.5,0.0,0.0,0.75,0.0,0.25,0.25,0.89,-0.48,-0.11,25.06,-11.8,12.0
4.1,0.75,1.0,1.0,1.0,3.5,1.25,0.75,0.5,0.0,0.5,1.0,1.75,1.0,-1.86,1.08,-0.73,207.96,4.3,8.9,0.5,0.25,0.5,0.5,0.25,0.0,0.5,0.0,0.0,0.75,0.0,0.0,0.25,0.89,-0.3,-0.42,18.72,-12.0,21.2
4.12,1.25,0.5,1.25,1.0,3.5,0.75,0.75,0.5,0.0,0.75,1.25,1.75,1.0,-1.92,1.7,-1.3,208.0,6.3,5.8,0.25,0.25,0.5,0.5,0.25,0.0,0.5,0.0,0.0,0.75,0.0,0.0,0.25,0.7,-0.05,-0.8,21.83,-10.3,15.3
4.14,1.5,1.5,1.0,1.25,3.5,1.5,1.0,0.5,0.0,0.75,0.5,1.75,0.5,-1.92,3.14,-3.17,214.59,6.1,22.7,0.5,0.25,0.5,0.5,0.25,0.0,0.5,0.0,0.0,0.5,0.0,0.25,0.25,-0.05,0.27,-0.36,28.37,-13.9,18.6
4.16,1.0,0.5,1.25,1.0,3.5,0.75,1.25,0.5,0.0,0.75,1.25,1.75,0.75,-0.67,3.2,-2.36,212.49,6.6,6.7,0.5,0.25,0.5,0.5,0.25,0.0,0.5,0.0,0.0,0.75,0.0,0.0,0.25,-0.23,0.33,0.45,36.56,-12.0,21.2
4.18,0.75,0.75,1.25,1.25,3.5,0.25,1.25,0.5,0.0,0.5,0.5,1.75,0.75,0.14,1.95,-1.36,207.94,7.7,13.2,0.25,0.0,0.5,0.0,1.25,0.0,0.75,0.0,0.0,0.75,0.0,0.25,0.25,0.02,0.83,1.58,49.23,-5.6,7.6
4.2,1.25,0.25,1.75,2.0,3.5,2.0,1.25,4.5,0.5,0.75,0.25,1.75,0.0,0.77,1.2,1.7,228.82,2.4,10.6,0.75,0.25,0.5,0.5,0.25,0.0,0.25,0.0,0.0,2.25,0.5,0.5,0.5,-7.42,-5.48,2.02,68.68,-4.3,-23.2
4.22,1.0,0.5,1.75,1.0,2.5,1.5,2.5,1.0,0.0,1.0,1.0,2.0,0.5,0.7,-0.05,-0.42,229.98,7.3,5.6,0.75,0.75,0.25,0.5,2.25,0.0,0.25,0.0,0.0,0.5,0.0,0.25,1.25,-7.98,2.95,-0.67,88.42,-3.5,18.1
4.24,0.5,0.25,1.5,1.0,2.25,1.5,1.75,0.75,0.0,0.75,0.5,1.75,0.5,-0.92,0.77,-0.17,221.19,5.8,5.3,0.5,0.25,0.0,0.5,0.25,0.0,0.25,0.0,0.0,0.5,0.0,0.25,0.25,-6.36,5.39,-5.05,82.13,-8.3,10.1
4.26,0.25,0.75,1.0,0.25,3.75,1.0,1.25,0.5,0.0,0.75,0.5,1.75,0.5,-1.05,0.39,-0.67,203.26,3.1,8.0,0.5,0.25,0.25,0.5,0.25,0.0,0.25,0.0,0.0,0.75,0.0,0.25,0.25,-2.36,1.33,-0.05,73.94,-8.9,7.4
4.28,1.25,0.25,1.0,1.25,3.5,1.0,1.25,0.5,0.0,0.75,0.5,1.75,0.5,-1.11,0.52,-0.98,194.21,6.2,13.7,0.5,0.25,0.5,0.5,0.25,0.0,0.25,0.0,0.0,0.5,0.0,0.25,0.25,-0.61,0.08,0.52,61.35,-13.2,18.3
4.3,1.0,0.5,0.75,1.25,3.5,1.0,1.25,0.5,0.0,1.0,0.5,1.75,0.5,-0.67,0.45,-0.73,187.63,4.8,11.3,0.5,0.25,0.5,0.5,0.25,0.0,0.5,0.0,0.0,0.5,0.0,0.0,0.25,0.58,-0.17,0.58,53.96,-14.3,29.1
4.32,0.5,0.25,0.75,0.75,3.5,1.25,1.25,0.5,0.0,0.75,0.25,1.75,0.5,-0.73,0.27,-0.42,183.38,2.7,8.0,0.5,0.25,0.5,0.5,0.25,0.0,0.5,0.0,0.0,0.5,0.0,0.0,0.25,1.64,-1.3,0.27,49.92,-14.3,29.1
4.34,0.25,0.25,0.5,0.75,3.0,1.0,1.25,0.5,0.0,0.75,0.5,1.5,0.5,-0.67,0.08,-0.42,172.44,2.1,2.5,0.5,0.25,0.5,0.25,0.25,0.0,0.5,0.0,0.0,0.5,0.0,0.25,0.25,1.52,-1.48,0.08,49.93,-13.6,15.3
4.36,0.75,0.25,1.0,1.0,3.0,1.0,1.25,0.5,0.0,0.75,0.25,1.75,0.5,-0.73,0.08,-0.42,166.19,5.2,9.3,0.5,0.25,0.5,0.5,0.25,0.0,0.5,0.0,0.0,0.5,0.0,0.0,0.25,-0.73,-0.23,0.39,49.06,-14.3,29.1
4.38,0.75,0.0,0.75,0.75,3.0,1.75,1.5,0.5,0.0,1.0,0.5,1.75,0.5,-0.92,0.08,-0.48,164.37,2.5,3.5,0.75,0.25,0.25,0.5,0.25,0.0,0.25,0.0,0.0,0.5,0.0,0.0,0.25,-2.17,0.83,0.02,46.37,-13.1,31.9
4.4,1.75,1.0,1.0,2.0,3.75,4.5,1.75,0.5,2.0,2.0,0.75,2.0,0.5,-1.05,0.14,-0.61,216.26,2.7,11.7,1.75,0.75,0.5,0.75,0.25,1.0,0.25,0.0,0.5,2.0,0.25,1.0,1.25,-2.23,1.02,-1.05,81.69,-4.9,-7.4
4.42,0.75,0.75,1.5,1.25,3.5,1.0,1.25,0.5,0.0,0.5,0.5,1.5,0.5,-0.8,0.39,-0.92,221.75,7.1,19.8,0.25,0.0,0.5,0.5,0.5,0.0,0.25,0.0,0.0,0.5,0.0,0.25,0.25,-1.98,0.52,-0.67,77.56,-9.9,8.5
4.44,0.75,0.5,3.25,2.5,1.25,1.75,6.0,5.0,0.0,0.75,1.5,1.5,0.0,-0.48,0.14,-0.42,257.97,8.6,7.5,1.25,0.75,1.75,0.75,3.0,1.0,0.75,0.0,0.5,2.5,0.0,1.0,1.0,-1.3,-0.11,-0.17,132.43,-5.1,10.0
4.46,0.75,0.5,1.5,1.25,3.5,1.0,1.25,0.5,0.0,0.75,0.25,1.25,0.5,-0.17,0.08,-0.36,244.91,6.4,20.7,1.25,0.75,1.75,1.0,3.0,0.75,0.75,0.0,0.25,1.75,0.25,1.0,1.25,-0.67,-0.42,0.27,168.39,-6.5,12.3
4.48,0.75,0.5,0.75,1.5,3.5,0.5,1.25,0.5,0.0,0.75,0.25,1.75,0.5,-0.3,0.14,-0.48,233.02,5.9,13.2,1.75,0.75,1.75,0.75,3.0,0.0,0.75,0.0,0.25,2.0,0.25,1.0,1.25,-0.73,-0.17,0.2,205.74,-8.4,11.6
4.5,0.75,0.75,1.5,0.25,3.0,1.25,1.25,0.5,0.0,0.0,0.5,1.75,0.5,-0.48,0.27,-0.73,203.1,7.1,16.4,1.5,0.25,0.25,0.5,0.25,0.0,0.25,0.0,0.0,0.5,0.0,0.0,0.0,-1.05,0.33,-0.3,172.91,-19.7,56.6
4.52,1.0,0.25,1.25,1.0,3.0,0.75,1.25,0.5,0.0,0.25,0.5,1.75,0.5,-0.67,0.58,-0.92,189.41,8.1,13.5,0.5,0.0,0.0,0.5,0.5,0.0,0.25,0.0,0.0,0.25,0.0,0.0,0.25,-1.36,0.52,-0.55,131.71,-9.0,28.7
4.54,1.0,0.75,1.0,1.25,3.5,1.0,1.25,0.5,0.0,0.75,0.5,1.5,0.5,-0.73,0.64,-0.92,186.13,5.9,17.8,0.5,0.0,0.25,0.5,0.5,0.0,0.25,0.0,0.0,0.25,0.0,0.0,0.25,-1.36,0.39,-0.36,81.96,-12.1,32.1
4.56,0.25,0.5,1.0,1.5,3.5,1.0,1.25,0.5,0.0,0.75,0.5,1.75,0.5,-0.67,0.58,-0.73,187.01,4.5,10.2,0.5,0.0,0.0,0.5,0.25,0.0,0.25,0.0,0.0,0.5,0.0,0.75,0.25,-1.3,0.14,-0.17,52.96,-8.1,-18.3
4.58,0.0,0.5,0.5,1.0,3.5,0.5,1.0,0.5,0.0,1.25,0.25,1.75,0.5,-0.61,0.45,-0.8,180.51,1.6,0.8,0.5,0.25,0.25,0.5,0.25,0.0,0.25,0.0,0.0,0.5,0.0,0.25,0.25,-1.3,0.14,-0.05,40.42,-11.0,14.6
4.6,0.75,0.75,1.25,1.0,3.5,1.0,1.0,0.5,0.0,1.0,0.5,1.75,0.5,-0.42,0.2,-0.73,179.44,5.2,12.3,0.5,0.25,0.5,0.5,0.5,0.0,0.25,0.0,0.0,0.75,0.0,0.25,0.25,-1.42,0.14,0.33,41.29,-9.9,14.7
4.62,0.75,1.0,1.0,1.25,3.0,1.0,1.0,0.5,0.0,0.5,0.5,1.5,0.5,-0.42,0.14,-0.61,175.4,6.1,18.1,1.5,0.75,0.5,0.5,0.25,1.0,0.75,0.0,0.25,2.0,1.0,1.0,1.25,-1.23,0.2,0.58,74.38,-4.8,-14.6
4.64,0.75,0.75,1.25,1.25,3.5,1.25,1.0,0.5,0.0,1.0,0.5,1.25,0.5,-0.67,0.08,-0.48,178.64,4.9,18.1,1.25,0.75,1.75,0.75,3.0,1.0,0.75,0.0,0.0,0.5,0.75,1.0,1.0,-1.05,0.2,0.64,115.7,-8.4,20.6
4.66,0.5,0.5,1.25,0.5,3.5,1.0,1.0,0.5,0.0,0.75,0.5,1.75,0.5,-0.73,-0.05,-0.3,182.69,4.4,8.7,1.25,1.0,1.75,0.75,1.5,0.5,0.25,0.0,0.25,0.5,0.0,0.25,0.0,-1.23,0.14,1.02,137.48,-14.9,50.4
4.68,0.75,0.25,1.5,0.75,3.5,1.25,1.0,0.5,0.0,0.75,0.5,1.75,0.5,-1.11,-0.05,-0.3,184.55,5.3,11.0,0.5,0.25,0.5,0.5,0.25,0.0,0.25,0.0,0.0,0.5,0.0,0.0,0.25,-0.92,0.52,1.14,112.09,-13.6,29.2
4.7,0.75,0.25,1.5,1.0,3.5,0.5,1.25,0.25,0.0,0.5,0.75,1.75,0.5,-1.36,0.08,-0.42,187.7,8.4,11.9,0.25,0.25,0.5,0.5,0.5,0.0,0.5,0.0,0.0,0.5,0.0,0.0,0.25,-0.86,0.39,1.2,87.94,-11.1,26.2
4.72,0.75,0.5,0.75,1.25,3.0,1.0,1.25,0.5,0.0,0.75,1.25,1.75,0.5,-1.3,-0.17,-0.67,189.08,5.4,4.7,0.5,0.25,0.5,0.5,0.25,0.0,0.5,0.0,0.0,0.75,0.0,0.25,0.25,-1.67,0.58,1.27,67.51,-11.8,12.0
4.74,2.0,1.0,1.75,2.25,3.5,4.0,2.5,1.5,1.5,1.75,1.75,2.25,0.75,-0.98,0.27,-0.36,242.61,4.6,7.9,0.5,0.0,0.5,0.5,0.25,0.0,0.75,0.0,0.0,0.5,0.0,0.0,0.25,-1.61,1.02,0.7,59.17,-15.2,22.9
4.76,0.75,0.5,1.75,0.75,0.0,0.0,6.0,4.75,0.0,1.25,1.5,1.75,0.0,-0.67,0.2,-0.55,249.07,8.7,-14.2,0.0,0.0,0.5,0.5,0.25,0.0,0.25,0.0,0.0,0.75,0.0,0.0,0.25,-1.86,0.64,0.83,49.22,-6.6,-1.8
4.78,0.0,0.0,0.75,0.0,3.5,2.0,1.25,0.5,1.75,0.0,0.25,0.0,0.0,-0.92,0.33,-0.61,232.71,0.7,24.5,0.25,0.25,0.5,0.5,0.25,0.0,0.5,0.0,0.0,0.75,0.0,0.0,0.25,-1.36,0.95,0.64,45.54,-10.3,15.3
4.8,0.0,0.0,1.0,0.0,1.75,0.0,3.75,4.5,0.0,0.0,0.0,0.0,0.0,-0.86,0.2,-0.61,195.18,1.6,4.9,0.25,0.0,0.5,0.5,0.25,0.0,0.25,0.0,0.0,0.75,0.0,0.0,0.25,-1.05,0.83,0.39,38.41,-9.1,6.8
4.82,0.0,0.0,0.0,0.0,0.0,0.0,0.0,0.0,0.0,0.0,0.0,0.0,0.0,-0.8,0.08,-0.55,119.18,0.0,0.0,0.0,0.0,0.5,0.5,0.5,0.0,0.5,0.0,0.0,0.5,0.0,0.0,0.0,-0.86,0.64,0.39,31.23,-11.3,26.0
4.84,0.0,0.0,0.0,0.0,0.0,0.0,1.0,0.0,0.0,0.0,0.0,0.0,0.0,-0.86,0.08,-0.48,48.15,32.4,27.3,0.5,0.0,0.5,0.5,0.5,0.0,0.25,0.0,0.0,0.75,0.0,0.0,0.25,-0.8,0.45,0.39,29.77,-9.8,17.6
4.86,0.75,0.5,1.0,1.75,0.0,1.5,6.0,4.75,0.0,1.0,1.5,2.0,0.0,-0.98,0.02,-0.36,89.56,5.7,-9.8,0.25,0.25,0.5,0.5,0.5,0.0,0.25,0.0,0.0,0.75,0.0,0.0,0.25,-0.73,0.33,0.33,29.93,-8.2,18.3
4.88,1.0,0.0,1.25,1.0,3.5,4.75,1.75,0.5,2.0,0.5,0.25,1.25,0.75,-0.98,-0.11,-0.36,152.4,1.2,14.0,0.5,0.25,0.5,0.5,0.25,0.0,0.25,0.0,0.0,0.5,0.0,0.0,0.25,-0.8,0.33,0.33,35.46,-13.6,29.2
4.9,1.0,0.0,2.0,1.25,0.75,4.5,6.0,5.0,2.0,1.0,1.5,1.5,0.0,-1.11,-0.11,-0.36,230.42,3.4,-2.4,0.0,0.0,0.25,0.5,0.25,0.0,0.5,0.0,0.0,0.75,0.0,0.0,0.25,-0.92,0.27,0.52,39.98,-4.4,-7.2
4.92,1.25,0.0,2.25,1.75,0.75,4.75,6.0,5.0,1.75,1.25,1.25,1.75,0.0,-1.17,-0.11,-0.36,281.91,3.8,0.0,0.0,0.0,0.5,0.5,0.25,0.0,0.25,0.0,0.0,0.5,0.0,0.0,0.25,-0.92,0.27,0.52,40.95,-9.1,6.5
4.94,1.75,0.0,2.25,1.75,0.75,4.75,6.0,5.0,2.0,0.75,1.25,1.5,0.0,-1.23,-0.11,-0.23,319.15,4.9,4.2,0.25,0.0,0.5,0.5,0.25,0.0,0.25,0.0,0.0,0.75,0.0,0.0,0.25,-0.86,0.33,0.33,39.05,-9.1,6.8
4.96,1.25,0.0,2.75,1.25,0.75,4.5,6.0,4.75,2.0,0.5,1.5,1.75,0.25,-1.36,-0.11,-0.17,331.62,5.3,0.2,0.0,0.0,0.5,0.5,0.25,0.0,0.25,0.0,0.0,0.5,0.0,0.0,0.25,-0.73,0.27,0.27,36.7,-9.1,6.5
4.98,2.25,1.0,3.75,2.25,1.25,4.0,5.5,3.75,1.75,1.75,2.25,2.5,1.25,-1.36,-0.17,-0.17,368.78,7.4,1.1,0.5,0.25,0.5,0.25,0.25,0.0,0.5,0.0,0.0,0.75,0.0,0.25,0.0,-0.61,0.14,0.45,41.19,-13.5,18.4
5.0,2.0,0.25,3.75,2.25,0.75,4.5,5.5,4.0,1.75,1.25,2.0,1.75,1.0,-1.36,-0.17,-0.17,399.31,7.1,2.7,0.0,0.25,0.0,0.5,0.5,0.0,0.25,0.0,0.0,0.75,0.0,0.0,0.25,-0.55,0.08,0.58,41.2,0.4,2.0
5.02,2.0,0.5,3.0,2.5,1.25,4.5,6.0,4.5,2.0,2.0,1.75,2.0,0.75,-1.42,-0.36,-0.11,431.31,5.7,1.4,0.5,0.0,0.5,0.5,0.5,0.0,0.25,0.0,0.0,0.5,0.0,0.0,0.25,-0.48,-0.05,0.58,44.29,-12.0,25.5
5.04,2.25,0.75,3.75,2.5,1.25,4.0,5.5,4.0,2.0,1.25,2.5,2.25,1.25,-1.36,-0.48,0.08,447.2,7.7,1.7,0.5,0.25,0.5,0.5,0.25,0.0,0.5,0.0,0.0,0.75,0.0,0.0,0.25,-0.23,-0.05,0.52,47.79,-12.0,21.2
5.06,2.25,1.0,3.75,2.5,2.25,3.25,5.25,3.5,1.25,1.5,2.25,2.0,1.25,-1.17,-0.55,0.14,453.72,8.0,6.3,0.5,0.0,0.5,0.5,0.5,0.0,0.25,0.0,0.0,0.5,0.0,0.0,0.25,-0.05,0.02,0.52,49.92,-12.0,25.5
5.08,2.0,0.75,3.5,2.5,2.5,4.0,5.25,3.25,1.5,1.25,2.25,2.25,1.0,-0.98,-0.55,0.02,437.68,7.3,6.1,0.25,0.0,0.25,0.5,0.25,0.0,0.25,0.0,0.0,0.5,0.0,0.0,0.25,0.27,0.02,0.39,45.46,-8.5,9.8
5.1,2.0,1.0,3.75,2.25,1.75,3.5,5.25,3.5,1.5,1.5,2.5,1.75,1.0,-0.86,-0.67,0.02,412.79,8.0,5.3,0.5,0.0,0.5,0.5,0.25,0.0,0.0,0.0,0.0,0.5,0.0,0.0,0.25,0.64,-0.55,0.14,43.86,-12.8,22.2
5.12,1.0,1.0,1.0,1.25,3.75,1.0,1.25,0.5,0.0,1.25,0.25,1.75,0.5,-0.73,-0.73,0.02,337.36,5.1,16.1,0.25,0.25,0.5,0.75,0.25,0.0,0.25,0.0,0.0,0.0,0.0,0.25,0.25,0.77,-0.86,0.33,43.52,-17.0,32.6
5.14,0.75,0.75,1.5,1.25,3.5,1.25,1.25,0.25,0.0,0.75,0.5,1.5,0.5,-0.73,-0.61,0.08,271.84,6.6,19.4,0.0,0.0,0.0,0.25,1.75,0.0,0.25,0.0,0.0,0.5,0.0,0.0,0.25,0.89,-1.17,0.52,46.83,3.0,19.2
5.16,0.75,0.75,1.25,1.25,3.5,0.5,1.25,0.25,0.0,0.75,0.25,1.75,0.5,-0.73,-0.48,-0.23,213.39,7.5,17.0,0.25,0.0,0.5,0.5,0.25,0.0,0.5,0.0,0.0,0.5,0.0,0.25,0.5,1.08,-2.05,0.58,48.39,-10.1,-4.8
5.18,1.0,0.75,1.75,1.25,3.5,1.0,1.25,0.25,0.0,0.75,0.5,1.25,0.5,-0.55,-0.36,-0.36,181.99,8.1,23.6,0.5,0.25,0.5,0.5,0.25,0.0,0.5,0.0,0.0,0.75,0.0,0.25,0.25,0.95,-1.73,1.33,52.75,-11.8,12.0
5.2,0.75,0.75,1.25,1.25,3.5,0.75,1.25,0.5,0.0,0.75,0.75,2.0,0.5,-0.36,-0.42,-0.36,164.22,6.7,10.8,0.25,0.25,0.5,0.5,0.25,0.0,0.5,0.0,0.0,0.75,0.0,0.25,0.25,1.45,-0.98,0.27,54.12,-10.2,6.0
5.22,0.75,1.25,1.25,1.25,3.5,1.0,1.25,0.5,0.0,0.75,0.5,1.5,0.5,-0.23,-0.42,-0.23,162.38,6.3,20.3,0.0,0.0,0.5,0.5,0.25,0.0,0.5,0.0,0.0,0.75,0.0,0.0,0.25,1.58,-0.73,0.27,50.46,-7.8,-0.4
5.24,0.75,0.75,1.25,1.25,3.5,0.5,1.25,0.25,0.0,0.75,0.75,1.75,0.5,-0.11,-0.42,-0.11,160.94,7.7,13.6,0.25,0.25,0.5,0.5,0.25,0.0,0.25,0.0,0.0,0.75,0.0,0.0,0.25,1.58,-0.55,0.27,49.15,-9.4,14.9
5.26,0.75,0.75,0.75,1.25,3.5,1.0,1.25,0.25,0.0,1.0,0.5,1.5,0.5,-0.11,-0.48,-0.23,156.41,4.8,14.8,0.25,0.25,0.5,0.5,0.25,0.0,0.25,0.0,0.0,0.75,0.0,0.25,0.5,1.33,-0.67,0.14,49.75,-7.6,-3.3
5.28,0.75,0.75,0.75,1.25,3.0,1.25,1.25,0.5,0.0,1.0,0.25,1.25,0.5,-0.3,-0.61,-0.36,153.3,4.0,16.5,0.0,0.0,0.5,0.5,0.25,0.0,0.25,0.0,0.0,0.75,0.0,0.25,0.5,1.14,-1.05,0.33,48.93,-5.0,-20.2
5.3,1.0,0.5,1.0,1.25,3.5,0.75,1.25,0.25,0.0,0.75,0.25,1.75,0.5,-0.48,-0.67,-0.36,156.65,6.8,16.3,0.0,0.25,0.5,0.5,0.5,0.0,0.25,0.0,0.0,0.75,0.0,0.25,0.25,1.02,-1.17,0.58,50.79,-6.4,2.8
5.32,1.0,0.75,1.75,1.25,3.5,1.25,1.25,0.25,0.0,0.75,0.5,1.75,0.5,-0.42,-0.67,-0.17,171.6,7.6,19.2,0.0,0.25,0.5,0.5,0.5,0.0,0.25,0.0,0.0,0.75,0.0,0.25,0.25,0.77,-1.11,0.77,51.87,-6.4,2.8
5.34,0.75,1.0,1.0,1.25,3.5,0.5,1.25,0.25,0.0,0.25,0.5,1.75,0.5,-0.23,-0.55,0.14,180.56,8.0,19.7,0.25,0.0,0.5,0.5,0.5,0.0,0.0,0.0,0.0,0.75,0.0,0.0,0.25,0.7,-0.98,0.7,50.08,-6.8,10.7
5.36,0.75,0.75,1.25,1.25,3.0,0.75,1.25,0.25,0.0,0.75,0.5,1.5,0.5,-0.17,-0.42,0.2,190.04,7.5,16.4,0.0,0.0,0.5,0.5,0.25,0.0,0.25,0.0,0.0,0.5,0.0,0.0,0.25,0.77,-0.92,0.27,44.31,-9.1,6.5
5.38,0.75,1.0,0.75,1.25,3.5,1.0,1.25,0.25,0.0,0.75,0.5,1.5,0.5,-0.17,-0.55,0.08,188.91,5.3,18.2,0.25,0.0,0.5,0.5,0.5,0.0,0.25,0.0,0.0,0.5,0.0,0.0,0.25,0.7,-0.67,-0.05,42.66,-10.0,19.3
5.4,0.75,0.75,1.25,1.25,3.5,1.0,1.25,0.25,0.0,0.75,0.75,1.75,0.5,-0.23,-0.67,0.14,192.0,6.6,14.3,0.5,0.25,0.5,0.5,0.25,0.0,0.25,0.0,0.0,0.5,0.0,0.0,0.25,0.39,-0.55,0.14,43.16,-13.6,29.2
5.42,0.75,1.0,1.25,1.25,3.0,1.0,1.25,0.5,0.0,0.75,0.25,1.75,0.75,-0.23,-0.55,0.27,192.98,6.2,14.1,0.0,0.0,0.5,0.5,0.25,0.0,0.25,0.0,0.0,0.75,0.0,0.0,0.25,0.14,-0.55,0.2,41.61,-6.6,-1.8
5.44,0.75,1.0,1.5,1.25,2.25,0.5,1.0,0.5,0.0,1.0,0.5,1.0,0.5,-0.23,-0.55,0.08,188.5,8.4,18.2,0.5,0.25,0.5,0.5,0.5,0.0,0.25,0.0,0.0,0.5,0.0,0.0,0.25,-0.05,-0.55,0.02,45.9,-12.0,31.4
5.46,0.75,1.0,0.75,1.25,3.0,1.0,1.0,0.25,0.0,0.75,0.25,1.75,0.5,-0.67,-0.86,-0.17,185.36,5.4,15.7,0.0,0.0,0.5,0.5,0.25,0.0,0.5,0.0,0.0,0.75,0.0,0.0,0.25,-0.17,-0.36,-0.11,44.85,-7.8,-0.4
5.48,0.75,1.0,1.0,1.25,3.5,1.0,1.0,0.25,0.0,0.75,0.75,1.75,0.75,-0.23,-1.55,0.52,188.69,5.5,12.6,0.25,0.25,0.0,0.5,0.25,0.0,0.25,0.0,0.0,0.5,0.0,0.0,0.25,-0.05,-0.11,-0.23,41.54,-5.4,14.3
5.5,0.75,0.5,1.25,1.25,3.75,0.25,1.0,0.5,0.0,0.75,0.5,1.5,0.5,-0.61,-1.36,0.39,188.76,7.1,15.4,0.5,0.25,0.5,0.5,0.5,0.0,0.25,0.0,0.0,0.75,0.0,0.0,0.25,0.08,0.08,-0.3,44.88,-10.0,23.7
5.52,0.75,0.0,1.75,1.5,3.75,0.75,1.25,0.5,0.0,0.75,0.25,1.25,0.5,-0.48,-0.98,0.14,191.48,7.3,19.6,0.5,0.0,0.5,0.5,0.25,0.0,0.25,0.0,0.0,0.75,0.0,0.0,0.25,0.08,0.14,-0.3,46.67,-11.1,14.1
5.54,0.5,0.0,1.0,1.5,3.0,1.0,1.25,0.5,0.0,1.0,0.25,1.25,0.5,-0.55,-0.73,0.02,184.91,4.4,11.0,0.25,0.25,0.5,0.5,0.5,0.0,0.0,0.0,0.0,0.5,0.0,0.0,0.25,0.02,0.08,-0.23,48.2,-9.3,26.1
5.56,0.75,0.0,0.5,1.5,3.0,1.25,1.25,0.5,0.0,1.0,0.0,1.0,0.5,-0.67,-0.86,-0.05,176.79,2.7,15.6,0.5,0.0,0.5,0.5,0.25,0.0,0.25,0.0,0.0,0.5,0.0,0.0,0.25,-0.11,-0.11,-0.23,47.29,-13.6,22.5
5.58,0.5,0.25,0.75,1.5,3.5,1.25,1.5,0.5,0.0,1.0,0.25,1.75,0.5,-0.8,-0.86,-0.05,178.15,3.5,9.6,0.0,0.0,0.5,0.5,0.5,0.0,0.25,0.0,0.0,0.5,0.0,0.0,0.25,-0.17,-0.05,0.02,45.69,-7.7,11.9
5.6,0.75,0.75,1.0,1.25,1.25,1.0,1.25,0.25,0.0,0.5,0.5,0.75,0.5,-0.92,-0.36,-0.17,165.14,8.8,20.1,0.25,0.25,0.5,0.5,0.5,0.0,0.25,0.0,0.0,0.75,0.0,0.25,0.25,-0.3,-0.17,0.2,48.22,-8.3,9.2
5.62,0.75,0.75,0.75,1.25,3.5,0.75,1.25,0.25,0.0,0.75,0.5,1.25,0.5,-0.67,-0.11,-0.17,167.87,5.7,18.8,0.0,0.25,0.5,0.0,0.5,0.0,0.0,0.0,0.0,0.75,0.0,0.25,0.25,-0.36,-1.17,0.08,45.85,-3.0,-9.3
5.64,0.75,0.25,0.75,1.25,3.0,0.25,1.25,0.5,0.0,0.75,0.5,1.5,0.5,-0.8,0.08,-0.3,163.39,6.6,8.5,0.0,0.25,0.0,0.5,0.5,0.0,0.25,0.0,0.0,0.5,0.0,0.0,0.25,0.14,-1.3,0.33,43.37,-1.2,10.7
5.66,0.75,0.75,1.0,1.25,3.0,0.25,1.25,0.25,0.0,0.75,0.25,1.5,0.75,-0.67,-0.61,0.02,167.89,7.5,13.8,0.0,0.0,0.5,0.5,0.25,0.0,0.25,0.0,0.0,0.5,0.0,0.25,0.25,-0.36,-1.23,0.77,40.36,-9.1,-5.2
5.68,0.75,0.25,2.5,1.5,3.0,1.0,4.75,2.75,0.0,0.75,1.25,1.75,0.5,-1.11,-1.3,0.02,199.73,8.3,6.4,0.0,0.0,0.5,0.5,0.5,0.0,0.0,0.0,0.0,0.75,0.0,0.25,0.25,-0.67,-1.17,0.89,40.43,-4.7,-6.7
5.7,0.75,0.75,0.25,1.25,2.25,0.75,1.0,0.25,0.0,1.0,0.5,1.75,0.5,-1.17,-1.61,0.39,195.36,4.7,4.0,0.25,0.0,0.5,0.5,0.25,0.0,0.0,0.0,0.0,0.5,0.0,0.0,0.25,-0.92,-1.05,1.52,39.32,-10.5,14.6
5.72,0.75,0.75,0.25,1.25,3.0,0.25,1.0,0.25,0.0,0.5,0.5,1.75,0.5,-1.23,-1.3,0.39,189.15,6.2,10.4,0.0,0.0,0.5,0.5,0.5,0.0,0.0,0.0,0.0,0.5,0.0,0.25,0.25,-1.05,-0.92,2.02,39.95,-6.7,-0.2
