time,left pressure 0[N/cm虏],left pressure 1[N/cm虏],left pressure 2[N/cm虏],left pressure 3[N/cm虏],left pressure 4[N/cm虏],left pressure 5[N/cm虏],left pressure 6[N/cm虏],left pressure 7[N/cm虏],left pressure 8[N/cm虏],left pressure 9[N/cm虏],left pressure 10[N/cm虏],left pressure 11[N/cm虏],left pressure 12[N/cm虏],left acceleration X[g],left acceleration Y[g],left acceleration Z[g],left total force[N],left center of pressure X[mm],left center of pressure Y[mm],right pressure 0[N/cm虏],right pressure 1[N/cm虏],right pressure 2[N/cm虏],right pressure 3[N/cm虏],right pressure 4[N/cm虏],right pressure 5[N/cm虏],right pressure 6[N/cm虏],right pressure 7[N/cm虏],right pressure 8[N/cm虏],right pressure 9[N/cm虏],right pressure 10[N/cm虏],right pressure 11[N/cm虏],right pressure 12[N/cm虏],right acceleration X[g],right acceleration Y[g],right acceleration Z[g],right total force[N],right center of pressure X[mm],right center of pressure Y[mm]
0.02,1.0,1.5,1.0,2.5,5.0,3.75,2.5,5.25,4.0,5.0,5.75,4.75,5.5,-0.05,-0.05,0.95,675.63,-0.3,-29.3,1.75,0.5,1.25,1.25,0.0,2.0,1.75,2.5,1.75,1.5,2.25,1.75,1.75,0.02,0.08,0.95,195.49,-4.7,-19.9
0.04,1.0,1.25,1.0,2.5,5.0,4.25,2.5,5.25,3.75,5.5,6.0,5.25,5.5,-0.05,-0.05,0.95,709.58,-0.7,-30.8,0.25,0.0,1.0,0.0,0.0,2.0,1.5,2.5,1.75,1.5,2.25,1.75,1.75,0.02,0.08,0.95,182.17,0.1,-43.1
0.06,0.75,1.25,0.75,2.5,5.0,4.25,2.5,5.25,4.0,5.25,6.25,5.25,5.75,-0.05,-0.05,0.95,724.02,-1.0,-32.4,1.5,0.75,1.75,2.75,0.0,2.5,2.0,2.75,2.0,3.0,3.25,2.25,2.5,0.02,0.08,0.95,219.19,-4.0,-22.3
0.08,1.0,1.0,1.0,2.5,5.0,4.0,2.5,5.25,4.0,5.25,6.25,5.25,6.0,-0.05,-0.05,0.95,730.65,-0.6,-32.7,1.25,0.75,2.5,2.5,0.0,2.75,2.0,2.5,1.75,3.0,3.25,2.25,2.5,0.02,0.08,0.95,249.9,-4.4,-20.9
0.1,1.0,1.0,0.75,2.5,4.75,3.75,2.5,5.25,3.75,5.25,6.5,5.5,6.25,-0.05,-0.05,0.95,727.15,-0.7,-35.1,0.25,0.25,1.0,2.5,0.0,2.75,1.5,2.5,2.0,3.0,2.0,2.5,1.75,0.02,0.08,0.95,263.23,-0.6,-30.5
0.12,0.75,1.25,1.0,2.5,4.75,4.0,2.5,5.25,4.0,5.25,6.5,6.0,6.25,-0.05,-0.05,0.95,724.73,-0.6,-34.9,1.0,0.0,0.75,1.25,0.0,2.0,1.5,2.5,1.5,1.75,2.0,1.75,2.75,0.02,0.08,0.95,256.17,-0.6,-35.6
0.14,0.75,1.0,1.0,2.5,5.0,3.75,2.5,5.25,4.0,5.25,6.5,6.0,6.25,-0.05,-0.05,0.95,716.23,-0.5,-35.5,1.0,1.0,1.0,2.75,0.0,2.75,2.0,3.75,1.75,3.25,3.25,3.0,2.75,0.02,0.08,0.95,278.91,-1.2,-29.3
0.16,0.75,0.5,0.75,2.5,4.75,3.5,2.5,5.25,4.0,5.25,6.5,5.75,6.25,-0.05,-0.05,0.95,710.83,-0.8,-37.9,1.5,0.75,2.5,2.5,0.0,3.25,2.0,2.75,1.75,3.5,3.25,2.75,3.0,0.02,0.08,0.95,304.55,-3.4,-23.3
0.18,0.75,1.0,0.75,2.25,5.0,3.5,2.5,5.0,4.0,5.25,6.5,6.0,6.25,-0.05,-0.05,0.95,705.85,-0.7,-36.8,1.25,0.75,2.5,2.5,0.0,3.25,2.0,3.25,2.0,3.5,3.5,2.75,3.25,0.02,0.08,0.95,347.77,-2.8,-25.8
0.2,0.75,0.75,1.0,2.5,4.75,3.25,2.5,4.75,4.0,5.25,6.5,5.5,6.25,-0.05,-0.05,0.95,692.78,-0.3,-36.6,0.25,0.75,2.75,2.5,0.0,3.25,1.5,2.5,2.0,4.0,2.25,3.25,3.5,0.02,0.08,0.95,372.92,-1.6,-30.3
0.22,0.0,0.5,1.0,1.0,4.75,2.75,2.5,4.25,3.25,3.25,6.25,4.0,5.5,-0.05,-0.05,0.95,627.68,-0.9,-38.1,1.0,0.75,2.0,2.75,0.0,3.25,2.0,2.5,2.25,3.25,2.5,3.25,2.75,0.02,0.08,0.95,374.99,-3.0,-25.2
0.24,0.0,0.25,0.0,0.0,0.0,1.75,1.75,3.75,3.0,2.75,5.0,3.0,4.25,-0.05,-0.05,0.95,497.2,-2.4,-62.9,1.25,0.75,2.75,2.5,0.5,4.25,1.5,4.0,2.5,4.5,3.75,3.25,4.0,0.08,0.08,0.95,398.42,-1.0,-27.9
0.26,0.0,0.5,0.0,0.25,0.0,2.5,2.5,3.75,3.0,3.5,4.0,2.0,3.75,-0.05,-0.05,0.95,387.07,-3.2,-52.7,1.25,0.75,2.75,2.75,1.0,3.75,2.0,4.0,2.5,4.75,4.25,4.0,4.25,0.08,0.08,0.95,440.14,-1.7,-29.6
0.28,0.0,0.25,0.25,1.0,0.0,2.5,3.0,2.5,2.25,0.5,2.75,1.0,2.25,-0.05,-0.05,0.95,282.46,0.4,-34.0,1.25,0.75,2.5,2.5,0.5,3.25,2.25,4.0,2.5,5.5,4.5,4.5,5.0,0.08,0.08,0.95,491.63,-1.3,-36.6
0.3,1.25,0.5,2.0,2.75,4.25,3.25,2.75,1.75,1.75,1.25,2.5,0.5,1.5,-0.05,-0.05,1.2,257.89,4.5,8.9,0.5,0.75,2.75,2.5,0.5,4.5,2.25,4.0,3.25,6.0,5.0,5.25,5.0,0.08,0.08,0.95,541.23,-0.5,-38.6
0.32,1.0,0.5,2.25,0.75,4.75,3.5,3.0,1.75,2.0,0.5,2.75,0.5,1.5,-0.05,-0.05,1.39,244.88,3.9,7.1,2.5,1.0,2.75,3.0,1.25,4.5,2.5,5.25,3.25,6.5,5.75,5.5,6.0,0.08,0.08,0.95,625.11,-1.3,-32.5
0.34,0.0,0.75,4.25,2.5,5.0,2.5,1.75,2.5,1.5,0.75,3.0,0.5,1.5,-0.05,0.02,1.33,266.03,5.8,9.6,1.5,0.75,4.0,2.75,1.5,4.5,3.0,5.5,3.5,6.75,6.5,5.75,6.5,0.08,0.08,0.95,708.72,-1.5,-35.0
0.36,1.5,0.5,2.75,2.5,0.5,2.25,0.0,1.75,1.5,0.5,1.75,0.25,0.25,-0.11,0.08,1.39,239.15,9.7,16.8,1.75,0.75,2.75,2.75,1.5,4.5,2.75,5.25,3.75,7.0,6.25,5.5,7.0,0.08,0.08,0.95,765.8,-0.5,-37.4
0.38,1.0,0.5,2.25,0.0,4.5,0.75,0.25,1.75,0.75,0.25,2.75,0.0,1.5,-0.11,0.2,1.45,220.15,4.8,6.2,1.25,0.25,2.75,2.75,1.5,3.75,3.0,5.25,3.25,6.0,6.75,5.5,7.25,0.08,0.08,0.95,779.71,-0.7,-41.0
0.4,0.75,0.5,1.0,0.75,2.25,2.25,0.5,1.75,1.5,1.25,2.5,0.75,1.5,-0.11,0.14,1.45,194.66,0.8,-12.0,2.0,1.0,2.75,3.25,1.25,5.25,3.0,5.75,4.0,7.0,6.75,6.25,7.5,0.08,0.08,0.95,818.26,-0.6,-36.7
0.42,0.25,0.25,0.5,0.25,2.25,2.25,0.5,2.0,1.5,1.0,2.75,0.5,1.5,-0.42,-0.73,1.27,179.82,-2.1,-20.8,1.75,0.75,4.0,2.75,1.75,4.5,3.0,6.0,4.5,7.0,6.75,6.25,7.75,0.08,0.08,0.95,850.39,-1.3,-36.8
0.44,0.25,0.5,0.5,0.0,2.25,2.0,0.5,1.75,1.5,0.5,2.5,0.5,1.5,-0.67,-1.36,0.77,172.11,-1.3,-17.9,2.0,0.75,3.0,3.25,1.5,4.5,3.0,6.0,4.5,7.0,6.75,6.25,7.5,0.08,0.08,0.95,875.24,-1.0,-37.3
0.46,0.0,0.25,0.0,0.0,0.0,0.75,0.25,1.75,0.75,0.25,0.75,0.0,0.25,-0.61,-1.36,0.95,133.07,-6.0,-30.2,2.0,1.25,3.25,3.5,1.5,4.75,3.5,6.0,4.5,6.5,6.75,5.5,7.25,0.08,0.08,0.95,876.52,-1.5,-32.8
0.48,0.0,0.5,0.0,0.0,0.5,2.0,0.0,1.5,1.25,0.5,1.0,0.5,0.25,-0.23,-1.3,0.95,109.5,-5.7,-19.2,2.75,1.25,3.75,4.0,1.75,4.5,4.25,6.0,4.5,7.0,7.0,5.75,7.0,0.08,0.08,0.95,879.01,-2.7,-29.6
0.5,0.0,0.5,1.0,0.0,0.75,2.0,0.5,2.25,1.25,0.5,2.5,0.5,1.5,-0.05,-1.17,0.95,105.06,-1.0,-26.8,2.0,1.25,3.75,4.75,1.5,4.5,4.25,6.0,4.5,6.5,6.5,5.5,6.5,0.08,0.08,0.95,862.74,-2.7,-28.4
0.52,0.0,0.25,1.0,0.0,0.75,0.75,1.25,1.75,0.75,0.25,1.75,0.0,0.75,-0.11,-0.98,0.95,102.73,3.0,-17.6,2.0,1.5,4.0,4.75,1.5,4.5,4.25,6.0,5.0,6.25,6.25,5.5,6.25,0.08,0.08,0.95,848.9,-3.2,-26.7
0.54,0.0,0.25,0.0,0.0,0.0,1.0,0.5,1.75,0.75,0.25,1.0,0.0,0.25,-0.11,-0.8,1.08,80.14,-5.1,-28.1,2.5,1.5,4.0,5.25,1.5,5.25,5.25,5.75,5.0,5.5,5.5,4.5,5.5,0.08,0.08,0.95,827.22,-3.9,-19.5
0.56,0.75,0.5,0.0,0.0,0.0,2.25,0.5,1.5,1.0,0.25,1.25,0.0,0.25,-0.11,-0.61,1.14,79.08,-2.2,-4.6,3.0,1.75,5.5,6.5,3.5,5.75,5.75,5.25,5.0,4.75,5.25,3.25,4.5,0.08,0.08,0.95,838.08,-5.6,-5.7
0.58,0.0,0.0,0.0,0.0,0.0,0.75,0.5,1.5,0.75,0.25,1.0,0.0,0.25,-0.11,-0.36,1.2,62.29,-4.6,-37.8,3.25,2.0,6.0,7.0,5.0,6.0,6.5,5.25,5.0,4.5,4.5,3.0,3.75,0.08,0.08,0.95,870.41,-6.2,1.2
0.6,0.0,0.25,0.0,0.0,0.75,1.0,0.75,1.75,0.5,0.0,2.0,0.0,0.25,-0.17,-0.11,1.27,67.7,-2.2,-21.4,3.75,2.0,7.25,8.5,5.25,6.0,7.0,5.25,4.5,3.0,3.75,2.0,2.75,0.08,0.08,0.95,908.93,-8.3,12.4
0.62,0.0,0.25,0.0,0.0,0.0,0.75,0.5,0.5,0.75,0.0,0.5,0.0,0.25,-0.17,0.08,1.27,50.81,-0.8,-17.7,4.5,2.0,7.75,10.5,5.75,6.0,7.5,4.75,4.25,3.0,4.0,2.0,2.75,0.08,0.08,0.95,963.14,-9.3,16.0
0.64,0.0,0.25,0.0,0.0,0.0,0.75,0.5,0.25,0.75,0.25,0.75,0.0,0.25,-0.23,0.33,1.27,44.82,0.0,-24.5,5.0,2.5,8.75,12.0,7.0,6.0,8.0,4.25,3.25,2.0,2.5,1.25,1.75,0.08,0.08,0.95,1004.44,-10.9,28.7
0.66,0.0,0.25,0.0,0.0,0.0,0.75,0.5,0.0,0.75,0.0,0.75,0.0,0.25,-0.17,0.58,1.39,33.4,2.7,-18.9,5.75,2.5,9.5,13.5,8.0,6.0,8.5,3.75,2.75,1.75,2.0,0.75,1.5,0.08,0.08,1.02,1060.87,-11.9,35.0
0.68,0.0,0.25,0.0,0.0,0.75,0.75,0.5,0.0,0.75,0.25,0.75,0.0,0.25,-0.11,1.02,1.45,37.84,0.3,-6.8,5.5,2.5,11.0,12.5,8.5,6.0,8.75,2.5,2.0,1.5,2.0,0.75,1.25,0.08,0.14,1.08,1090.58,-13.1,38.6
0.7,0.0,0.25,0.0,0.0,0.0,1.0,0.5,0.0,0.75,0.0,0.75,0.0,0.25,-0.05,1.58,1.2,39.06,0.8,-14.9,6.25,2.0,11.0,15.0,8.75,5.0,8.5,2.5,2.0,0.75,0.0,0.5,1.5,0.08,0.14,1.08,1108.79,-14.3,44.7
0.72,0.0,0.25,0.0,0.0,0.0,0.75,0.5,1.25,0.75,0.25,0.75,0.0,0.25,0.45,2.39,0.77,41.99,-3.7,-27.7,7.25,2.0,11.0,15.0,9.0,5.25,8.25,2.5,1.75,0.0,0.0,0.25,0.5,0.02,0.2,1.08,1104.9,-15.3,50.7
0.74,0.0,0.25,0.0,0.0,0.0,0.75,0.5,0.0,0.75,2.0,1.25,0.75,0.25,1.2,3.77,-0.48,57.43,-1.8,-52.7,7.5,2.5,12.5,16.5,8.5,4.5,7.5,1.0,1.75,1.5,0.25,0.5,0.25,0.02,0.2,1.08,1121.77,-16.5,50.7
0.76,0.0,0.25,0.25,0.0,0.5,0.5,0.5,1.75,0.75,1.75,3.0,3.75,3.5,0.52,-0.36,1.02,133.77,-1.5,-71.1,7.75,2.0,13.0,14.0,7.75,0.0,7.0,2.5,1.25,0.75,0.5,0.5,0.0,0.08,0.27,1.08,1069.18,-19.8,51.8
0.78,0.0,0.0,0.0,0.0,0.0,0.0,0.25,1.75,1.0,4.5,3.75,5.75,6.5,0.02,0.08,1.7,231.11,-3.6,-88.9,7.75,1.75,12.0,13.5,7.0,0.0,6.0,1.25,1.25,0.25,0.0,0.0,0.0,0.02,0.33,1.2,977.2,-21.2,58.0
0.8,0.0,0.25,0.0,0.0,0.0,1.0,0.5,1.75,2.0,6.5,6.0,7.5,6.75,-0.48,0.27,2.33,343.44,-2.6,-81.3,8.75,2.5,12.0,13.5,6.0,0.0,5.75,1.0,1.25,1.25,0.75,0.5,0.5,0.14,0.45,1.27,904.03,-20.7,52.2
0.82,0.0,0.0,1.75,0.0,3.5,1.0,1.25,4.25,1.5,5.25,6.25,6.75,7.25,0.08,0.02,1.02,480.75,-1.5,-58.4,8.75,2.5,12.0,12.0,4.75,0.0,6.5,1.0,1.25,1.0,0.0,0.5,0.75,0.14,0.58,1.58,832.59,-21.8,53.5
0.84,0.0,0.25,0.0,0.0,0.0,2.75,0.5,3.75,2.0,6.5,7.5,7.0,8.25,-0.05,0.02,0.95,598.36,-4.3,-74.6,8.25,2.25,11.0,9.75,1.5,0.0,7.0,1.0,0.75,1.25,0.75,0.5,0.75,0.2,0.77,1.64,736.61,-23.6,50.3
0.86,0.0,0.5,1.0,1.0,0.75,2.25,1.5,5.25,3.25,7.75,7.5,7.75,8.75,-0.05,0.02,0.95,722.69,-2.3,-64.2,7.5,1.75,9.0,7.25,0.0,0.0,6.5,1.0,0.25,1.0,0.0,0.5,0.75,0.45,1.39,2.2,597.7,-25.3,52.3
0.88,0.5,0.75,0.0,2.25,4.75,3.75,2.0,5.25,4.0,7.25,8.75,8.0,9.0,-0.05,-0.05,0.95,856.36,-2.1,-49.0,5.25,1.0,6.75,6.0,0.0,0.0,5.5,1.0,0.75,0.75,0.0,0.5,0.75,0.89,1.27,2.58,449.02,-24.1,46.1
0.9,0.75,1.0,0.0,2.5,4.75,4.0,1.75,5.5,4.5,7.75,8.75,8.0,9.0,-0.05,-0.05,0.95,977.46,-2.0,-47.2,0.75,0.0,5.75,2.5,0.0,0.0,3.0,1.0,0.75,0.0,0.0,0.0,0.25,0.7,0.14,2.7,287.63,-26.1,41.4
0.92,0.0,0.5,0.5,2.5,0.75,4.5,2.0,5.25,4.75,7.75,8.0,7.75,7.75,-0.05,-0.05,0.95,1012.85,-2.1,-55.5,0.75,0.0,2.25,2.25,0.0,0.0,0.75,0.0,0.75,0.0,0.0,0.0,0.0,0.27,-0.48,0.39,158.34,-26.9,50.6
0.94,1.0,1.5,0.75,2.5,5.0,4.5,3.0,6.25,5.0,7.25,8.75,7.25,8.0,-0.05,-0.05,0.95,1056.76,-0.9,-39.8,0.5,0.0,1.0,2.0,0.0,0.0,0.75,0.0,0.75,0.0,0.0,0.0,0.0,1.33,-1.23,1.89,33.25,-23.9,45.0
0.96,1.0,1.75,1.25,2.5,5.0,4.75,3.0,6.25,5.25,6.5,8.0,6.75,7.25,-0.05,-0.05,0.95,1043.4,-0.4,-35.6,0.25,0.0,2.0,2.0,0.0,0.0,1.0,1.0,0.75,0.0,0.0,0.0,0.0,0.7,-0.8,0.83,0.0,-19.8,32.6
0.98,0.0,1.75,2.25,4.5,5.0,5.25,3.75,6.25,5.25,5.75,7.5,6.0,6.5,-0.05,-0.05,0.95,1018.41,0.4,-28.9,0.25,0.0,1.75,2.0,0.0,0.0,0.75,1.0,0.75,0.0,0.0,0.0,0.0,0.45,-0.55,0.45,0.0,-18.7,31.5
1.0,1.5,1.75,3.0,5.0,5.5,5.0,4.25,6.0,5.25,5.25,6.75,5.25,5.75,-0.05,-0.05,0.95,980.92,2.2,-20.1,0.0,0.0,0.75,1.25,0.0,0.0,1.0,1.0,0.75,0.0,0.0,0.5,0.0,0.45,-0.36,0.58,0.0,-13.3,2.9
1.02,1.25,1.75,2.75,5.0,5.25,5.25,4.75,5.25,4.75,4.25,6.25,3.75,5.25,-0.05,-0.05,0.95,923.03,2.4,-15.6,0.0,0.0,2.75,2.5,0.0,0.0,1.0,1.0,0.75,0.0,0.75,0.0,0.75,0.45,-0.42,0.95,0.0,-17.2,14.2
1.04,1.0,1.75,4.25,6.5,6.75,5.5,5.0,5.25,4.75,3.75,5.5,2.25,4.25,-0.05,0.02,0.95,883.31,3.6,-3.7,0.0,0.0,1.75,2.5,0.0,2.0,1.25,1.0,0.75,1.0,0.0,0.0,0.75,0.45,-0.42,1.14,4.08,-5.3,10.9
1.06,1.75,1.75,4.0,6.75,7.25,6.0,5.0,5.25,4.0,2.75,4.5,2.25,3.0,-0.05,0.02,0.95,842.64,4.1,4.3,0.25,0.25,1.0,2.25,0.0,0.0,1.25,1.5,0.75,0.0,0.5,0.5,0.0,0.33,-0.3,1.08,36.5,-13.5,11.2
1.08,1.75,1.75,4.5,8.25,7.5,6.25,5.5,5.25,4.0,2.75,4.0,1.5,2.25,-0.05,0.02,0.95,830.27,5.0,10.9,0.5,0.5,1.0,2.0,0.0,0.0,0.75,1.0,0.75,0.0,0.25,0.0,0.0,0.27,0.08,0.89,59.53,-16.2,31.8
1.1,2.0,1.75,5.5,10.5,8.5,6.25,5.0,5.0,3.25,2.25,3.5,0.5,2.25,-0.05,0.02,0.95,829.91,6.0,19.6,0.25,0.0,0.75,2.75,0.0,0.0,1.0,1.0,0.75,0.0,0.75,0.0,0.0,0.2,0.27,0.83,77.89,-15.0,18.7
1.12,2.75,2.0,6.25,13.0,9.25,7.25,6.0,4.5,2.75,1.5,3.0,0.5,2.25,-0.05,0.02,0.95,880.75,7.3,26.8,0.0,0.0,1.75,1.0,0.0,0.25,0.75,1.0,0.75,0.0,0.0,0.0,0.0,0.14,0.33,1.14,82.33,-16.4,23.3
1.14,3.25,2.0,8.0,14.5,10.5,7.25,6.5,4.0,2.25,1.75,3.0,0.5,1.5,-0.05,0.02,1.02,967.13,8.8,32.0,0.0,0.0,0.75,0.75,0.0,0.0,0.75,1.0,0.75,0.0,0.0,0.0,0.0,0.08,0.39,1.52,79.09,-12.8,9.6
1.16,3.5,2.0,8.25,15.5,11.5,7.0,6.25,3.75,1.5,1.25,2.0,0.5,2.25,-0.05,0.08,1.02,1053.73,8.9,35.0,0.0,0.0,0.75,0.5,0.0,0.0,0.75,1.0,0.75,0.0,0.0,0.0,0.0,0.14,0.52,1.83,68.27,-12.5,5.8
1.18,3.75,2.25,9.75,14.5,13.0,7.25,6.75,3.75,1.5,0.25,1.75,0.75,1.75,-0.05,0.08,1.08,1126.23,9.8,38.8,0.0,0.0,0.75,0.5,0.0,0.0,0.75,1.0,0.75,0.0,0.0,0.0,0.0,0.2,0.89,2.33,55.72,-12.5,5.8
1.2,5.5,1.75,10.5,17.5,12.5,7.25,6.25,3.75,1.5,0.5,2.0,0.5,1.75,-0.05,0.14,1.08,1218.45,10.9,40.5,0.0,0.0,0.75,0.5,0.0,0.0,0.75,1.25,0.75,0.0,0.0,0.0,0.0,0.2,1.52,2.58,47.0,-10.4,2.8
1.22,5.75,2.0,11.0,19.5,13.5,7.25,5.0,2.5,1.5,1.5,1.5,0.5,0.25,-0.05,0.14,1.02,1302.57,11.6,45.7,0.0,0.0,0.75,0.5,0.0,0.0,0.75,1.0,0.75,0.0,0.0,0.0,0.0,-0.23,2.45,2.77,43.48,-12.5,5.8
1.24,7.25,3.25,11.0,19.5,15.5,6.75,4.75,3.75,1.5,1.5,2.25,0.0,1.25,-0.11,0.2,1.14,1391.27,11.0,44.3,0.75,0.75,2.5,2.25,0.0,2.0,1.0,1.0,0.75,1.0,0.25,0.5,0.75,-0.8,3.45,2.45,94.55,-9.1,16.5
1.26,7.75,3.5,11.0,19.5,16.0,5.75,3.75,3.5,1.5,1.5,2.5,0.5,1.5,-0.05,0.2,1.14,1462.97,11.3,43.5,0.25,0.5,1.25,2.25,0.0,2.0,1.0,1.0,0.75,1.0,0.25,0.5,0.75,-0.98,4.64,1.02,126.12,-4.5,5.9
1.28,8.5,4.75,12.5,18.5,15.5,4.75,2.25,3.25,1.5,1.25,2.0,0.5,1.5,-0.05,0.27,1.08,1507.46,12.5,46.6,1.25,0.25,2.25,2.0,0.0,2.0,1.0,1.0,0.75,1.25,0.5,0.5,0.75,-1.86,6.2,-1.48,167.89,-8.7,10.9
1.3,8.5,5.0,11.5,19.0,16.0,4.5,2.0,2.0,1.5,1.25,2.0,0.5,1.5,-0.17,0.33,1.2,1516.79,12.6,48.1,0.75,0.0,2.5,2.25,0.0,2.0,0.5,0.75,0.75,1.75,1.0,2.25,0.75,-2.67,4.83,3.2,197.18,-7.8,-10.7
1.32,8.5,4.75,11.0,17.0,15.0,3.5,2.5,2.5,1.0,1.25,2.0,0.5,1.5,-0.36,0.45,1.45,1478.47,12.9,47.6,0.0,0.0,0.0,0.25,0.0,0.0,0.75,1.0,0.75,3.0,0.25,4.5,5.75,-0.36,-1.55,2.45,231.48,4.8,-89.3
1.34,7.0,3.5,8.5,13.0,13.5,2.5,2.5,2.0,1.0,0.5,1.75,0.5,1.25,-0.3,0.83,2.7,1343.15,12.8,47.5,0.5,0.0,0.75,2.25,0.0,1.75,0.25,2.5,1.0,7.25,3.75,7.5,8.25,-0.11,0.52,1.52,331.9,2.8,-67.8
1.36,5.75,2.0,4.5,8.25,9.0,1.25,0.5,1.75,1.0,0.5,1.75,0.5,1.5,-1.3,2.33,3.39,1025.19,11.7,41.0,0.0,0.0,0.75,0.25,0.0,2.25,0.5,2.5,1.25,7.75,5.25,6.75,8.5,0.08,0.45,3.33,448.41,4.5,-75.4
1.38,2.75,1.75,2.75,5.0,7.0,1.0,0.0,1.75,1.0,0.5,1.75,0.5,1.25,-0.73,1.45,4.2,681.71,8.6,32.0,0.0,0.0,0.75,0.0,0.0,2.0,0.75,4.25,1.5,8.0,7.25,6.75,9.0,0.02,0.14,1.2,592.79,4.3,-75.2
1.4,1.0,0.0,2.25,0.25,5.0,0.75,0.0,1.75,0.75,0.25,0.25,0.0,0.0,-0.36,-1.05,2.64,364.61,5.3,34.5,0.0,0.0,0.0,0.0,0.0,0.0,0.75,4.25,1.75,8.0,7.0,7.0,8.5,0.08,0.08,1.02,663.03,4.0,-83.2
1.42,0.75,0.0,0.0,0.0,2.25,0.0,0.0,1.5,0.75,0.25,0.5,0.0,1.0,-0.86,-0.3,2.52,171.66,-1.7,-6.4,0.0,0.0,0.0,0.5,0.0,0.5,0.75,5.25,2.0,8.5,7.5,7.0,8.75,0.08,0.08,0.95,721.16,4.2,-78.6
1.44,0.0,0.5,0.5,1.75,0.75,1.5,0.0,1.25,0.75,0.25,0.25,0.5,0.25,-1.42,-1.61,2.45,17.67,1.2,10.2,0.0,0.0,0.0,1.25,0.0,2.0,0.75,5.25,2.5,8.0,8.5,6.75,9.0,0.08,0.08,0.95,753.07,3.9,-71.9
1.46,0.0,0.5,0.0,1.25,1.25,0.0,0.0,1.5,0.75,0.5,0.5,0.0,0.25,-0.98,-1.3,1.45,0.0,0.2,2.2,0.0,0.25,0.5,1.75,0.0,2.25,1.0,5.25,2.75,8.5,7.25,6.75,8.25,0.08,0.08,0.95,778.08,3.3,-66.1
1.48,0.0,0.25,0.25,0.0,4.5,0.0,0.0,1.75,0.75,0.25,1.25,0.0,0.25,-0.61,-0.98,0.64,0.0,-1.8,8.5,0.25,1.75,0.75,2.75,0.0,4.5,1.0,5.25,2.5,7.75,7.25,6.75,8.25,0.08,0.08,0.95,803.22,2.7,-52.2
1.5,0.0,0.25,0.0,0.0,1.25,0.0,0.0,1.0,0.75,0.25,0.5,0.0,0.0,-0.42,-0.73,0.77,0.0,-1.9,-4.7,0.25,0.0,1.0,2.5,0.0,3.75,1.0,5.5,2.75,6.5,5.5,5.5,6.5,0.08,0.08,0.95,766.52,2.9,-54.2
1.52,0.0,0.0,0.0,0.0,0.5,0.0,0.0,0.0,0.75,0.0,0.75,0.0,0.0,-0.36,-0.55,0.77,0.0,7.3,-25.6,0.5,1.0,1.0,2.5,0.0,5.0,1.0,5.25,3.25,6.25,4.75,4.5,5.75,0.08,0.08,0.95,709.32,2.9,-43.7
1.54,0.0,0.0,0.0,0.0,0.5,0.0,0.0,0.25,0.75,0.0,0.75,0.0,0.0,-0.42,-0.36,0.83,0.0,4.6,-27.0,0.5,0.25,1.25,2.5,0.0,4.0,2.0,5.5,2.75,5.5,5.0,3.75,5.0,0.08,0.08,0.95,622.88,1.9,-43.9
1.56,0.0,0.0,0.0,0.0,0.0,0.0,0.0,0.0,0.75,0.0,0.5,0.0,0.0,-0.36,-0.17,0.89,0.0,11.6,-53.1,1.0,1.0,1.75,4.75,0.5,4.5,2.0,5.25,2.75,4.75,3.75,3.0,5.0,0.08,0.08,0.95,559.94,0.0,-26.6
1.58,0.0,0.0,0.0,0.0,0.0,0.0,0.0,0.25,0.5,0.0,0.0,0.0,0.0,-0.23,0.02,1.08,0.0,2.4,-38.6,2.0,0.5,2.0,3.0,0.0,4.5,2.5,4.25,2.5,2.5,2.5,1.75,2.5,0.08,0.08,0.95,456.65,-2.4,-13.3
1.6,0.0,0.0,0.0,0.0,0.0,0.0,0.0,0.25,0.5,0.0,0.25,0.0,0.0,-0.23,0.2,1.27,0.0,4.5,-47.7,0.5,0.75,2.75,5.0,1.5,4.5,3.0,4.0,2.0,1.5,2.25,0.75,2.25,0.08,0.08,0.95,404.38,-3.3,1.0
1.62,0.0,0.0,0.25,0.0,1.75,0.0,0.0,1.25,0.5,0.0,0.5,0.0,0.0,-0.23,0.33,1.45,0.0,-1.4,4.4,0.5,0.75,4.0,5.75,2.25,5.25,3.25,4.0,2.0,1.25,1.25,0.5,1.5,0.08,0.08,0.95,376.35,-4.8,13.9
1.64,0.0,0.25,0.0,0.0,1.75,0.0,0.0,1.0,0.5,0.0,0.25,0.0,0.0,-0.23,0.39,2.02,24.0,-2.8,14.3,2.0,0.75,4.0,7.0,4.75,6.0,4.0,4.0,1.75,1.0,0.0,0.5,0.75,0.08,0.08,0.95,394.54,-5.8,29.5
1.66,0.0,0.25,0.0,0.0,0.0,0.0,0.0,0.75,0.5,0.0,0.5,0.0,0.0,-0.36,0.64,2.39,33.0,0.9,-29.7,4.0,2.5,5.75,8.75,5.5,6.75,4.75,4.0,1.75,1.75,0.0,0.75,0.75,0.08,0.08,0.95,482.28,-8.3,35.5
1.68,0.0,0.0,0.0,0.0,0.0,0.0,0.0,0.5,0.5,0.0,0.5,0.0,0.25,-0.48,1.2,2.83,29.39,-0.3,-59.5,3.5,1.75,7.0,10.5,7.0,6.0,5.5,3.5,1.25,0.75,0.0,0.25,0.25,0.08,0.08,0.95,583.4,-10.3,43.3
1.7,0.0,0.25,1.75,0.0,3.0,0.0,0.5,1.5,0.75,0.5,1.25,0.5,0.75,-0.55,2.08,2.58,74.73,4.6,-2.4,4.5,2.0,8.0,11.5,7.75,6.5,5.75,2.5,1.25,0.0,0.0,0.5,0.75,0.08,0.14,1.02,698.97,-11.7,46.4
1.72,0.0,0.25,0.0,0.0,0.5,0.0,0.0,1.25,0.75,0.5,0.5,0.5,0.25,-0.17,2.83,2.52,82.49,-2.7,-38.9,5.5,0.0,8.0,12.0,8.5,6.25,5.75,2.5,0.75,0.0,0.0,0.0,0.75,0.02,0.14,1.08,770.6,-12.1,48.0
1.74,0.0,0.5,1.5,0.0,2.25,0.0,0.25,0.0,0.75,0.5,0.5,0.5,0.25,0.77,3.52,1.89,111.38,9.3,14.0,6.5,1.75,7.25,15.0,8.0,6.0,5.75,2.5,0.25,1.0,0.0,0.0,0.75,0.02,0.14,1.14,862.11,-12.3,49.4
1.76,0.0,0.25,0.0,0.0,0.0,0.0,0.0,1.0,0.75,0.0,1.25,0.0,1.25,1.89,6.39,-0.42,105.6,-2.0,-61.0,7.75,3.0,9.5,17.0,9.75,6.0,5.5,2.5,1.0,0.0,1.0,0.0,1.25,0.02,0.2,1.14,994.7,-13.5,49.9
1.78,0.0,0.25,0.0,0.0,0.75,0.0,0.0,0.0,0.5,0.25,0.5,0.5,1.25,2.64,7.08,-1.17,98.43,-1.3,-47.9,8.75,4.25,12.0,18.0,11.0,4.75,5.0,1.25,0.75,0.0,0.0,0.0,0.75,-0.05,0.2,1.14,1150.7,-15.8,57.7
1.8,0.0,0.0,0.0,0.0,0.0,0.0,0.0,1.0,0.75,2.75,1.5,5.25,5.5,-0.17,0.39,2.27,156.67,-3.9,-93.9,9.25,5.0,12.0,18.0,11.0,4.0,4.5,1.0,1.0,1.0,0.25,0.5,0.75,-0.05,0.27,1.33,1292.13,-15.8,55.1
1.82,0.0,0.5,0.0,0.0,0.0,0.0,0.0,1.75,1.25,6.5,5.5,7.5,7.5,1.08,0.64,2.77,272.3,-3.0,-86.0,9.0,4.25,12.0,15.0,9.0,2.0,4.25,1.0,1.0,0.75,0.0,0.25,0.0,0.2,0.45,1.27,1296.37,-18.3,59.0
1.84,0.0,0.25,1.0,0.0,0.75,2.0,0.0,3.75,1.5,8.0,8.25,8.25,8.0,-0.92,0.39,4.27,438.22,-3.0,-72.3,10.0,5.5,11.0,15.5,8.5,2.0,5.75,1.0,0.75,1.25,0.5,0.25,0.75,0.33,0.58,1.58,1273.58,-17.7,56.2
1.86,0.75,0.5,1.25,1.0,2.5,2.25,0.0,4.25,3.25,8.25,9.75,9.0,8.75,-0.05,-0.11,1.02,664.01,-1.2,-60.2,9.0,4.75,10.5,12.0,6.75,0.5,6.5,1.0,0.75,0.75,0.0,0.25,0.25,0.39,1.08,2.27,1129.49,-20.1,59.4
1.88,0.0,0.25,0.5,0.0,1.75,2.25,1.25,4.25,3.25,7.25,9.5,8.25,8.0,-0.05,-0.05,1.02,811.36,-2.1,-67.2,7.5,3.25,7.25,7.25,1.5,1.0,5.75,1.0,0.75,1.25,0.0,0.5,0.75,1.08,2.58,3.77,887.75,-20.8,51.6
1.9,1.0,0.75,0.0,1.75,0.5,4.0,1.75,5.25,4.5,9.0,11.5,9.5,9.5,-0.05,-0.05,0.95,970.15,-1.5,-61.4,4.75,1.25,5.75,3.25,0.0,0.0,3.0,1.0,0.25,0.0,0.0,0.0,0.75,1.83,1.58,4.95,572.12,-25.8,55.4
1.92,1.0,1.25,1.0,2.5,4.25,4.5,0.0,5.25,4.75,8.5,11.5,9.0,9.25,-0.05,-0.05,0.95,1085.47,-1.1,-48.4,0.5,0.0,1.25,2.25,0.0,0.0,0.75,1.0,0.25,0.0,0.0,0.0,0.0,0.7,-1.67,0.2,298.53,-18.1,38.8
1.94,1.0,1.0,0.5,2.5,4.5,4.5,0.5,5.25,4.75,7.75,10.5,8.25,9.0,-0.05,-0.05,0.95,1155.22,-1.5,-47.4,0.5,0.0,2.5,2.25,0.0,0.0,0.0,1.0,0.25,0.0,0.0,0.0,0.0,1.14,-1.67,3.14,133.3,-21.3,43.7
1.96,1.0,1.5,1.0,2.5,4.5,4.5,0.75,5.25,4.75,7.0,9.5,7.5,8.0,-0.05,-0.05,0.95,1161.62,-0.9,-42.2,0.75,0.0,1.75,2.25,0.0,0.0,0.25,1.0,0.25,0.0,0.0,0.0,0.5,1.77,-1.61,2.2,1.51,-17.3,31.6
1.98,1.0,1.75,0.75,2.5,4.25,4.5,1.0,4.5,4.5,6.0,8.25,6.0,6.75,-0.05,-0.05,0.95,1078.19,-0.7,-37.4,0.0,0.25,1.5,2.0,0.0,0.0,0.75,1.0,0.25,0.0,0.0,0.0,0.0,0.89,-1.23,0.64,0.0,-17.4,36.8
2.0,1.25,1.75,2.25,2.5,4.75,4.5,1.75,4.75,4.0,5.0,7.0,5.25,5.5,-0.05,-0.05,0.95,959.28,0.8,-27.5,0.0,0.0,1.25,1.75,0.0,0.0,0.5,1.0,0.25,0.0,0.0,0.0,0.0,0.52,-0.73,0.45,0.0,-16.2,31.0
2.02,1.5,1.75,2.25,2.5,4.75,4.5,3.0,4.0,4.0,4.0,6.25,3.75,5.0,-0.05,-0.05,0.95,824.04,1.7,-20.6,0.0,0.0,2.75,2.5,0.0,0.0,0.75,1.0,0.75,1.0,0.0,0.5,0.0,0.39,-0.55,0.83,0.0,-16.1,15.1
2.04,1.0,1.75,4.25,4.75,4.75,4.75,3.0,3.75,4.0,2.75,5.5,3.0,4.25,-0.05,0.02,0.95,728.27,4.2,-8.6,0.75,0.0,1.25,2.5,0.0,2.0,0.75,1.0,0.75,1.0,0.0,0.5,0.0,0.27,-0.48,1.02,0.0,-6.7,17.3
2.06,1.0,1.75,5.0,5.0,5.25,5.25,3.5,3.75,4.0,2.25,5.0,2.25,2.75,-0.05,0.02,0.95,664.8,5.3,0.8,0.0,0.75,2.5,2.0,0.0,1.75,0.75,1.0,0.25,1.0,0.25,0.0,0.25,0.2,-0.3,1.08,0.76,-8.6,24.5
2.08,1.75,1.75,6.25,6.75,7.0,5.5,4.25,3.5,4.0,2.0,3.25,2.0,2.0,-0.05,0.02,0.95,661.7,7.1,14.0,0.0,0.0,2.5,1.25,0.0,0.0,0.75,1.0,0.5,0.0,0.0,0.0,0.75,0.2,-0.05,1.27,25.12,-17.1,15.3
2.1,2.0,1.75,7.75,8.25,7.25,6.0,5.25,4.0,3.25,2.0,3.0,1.0,2.5,-0.05,0.02,0.95,698.24,7.8,19.3,0.75,0.75,2.5,2.25,0.0,1.5,1.0,1.0,0.75,1.0,0.0,0.5,0.25,0.14,0.2,1.39,85.36,-11.3,23.2
2.12,3.5,1.75,8.75,10.5,8.5,6.25,5.75,3.75,3.25,0.0,2.5,0.5,1.75,-0.05,0.02,1.02,771.37,10.4,32.2,0.0,0.0,2.5,2.5,0.0,1.25,0.5,0.75,0.75,0.0,0.0,0.0,0.0,0.14,0.45,1.58,114.03,-14.9,36.7
2.14,4.25,1.75,9.0,13.0,8.25,5.75,6.0,2.25,2.25,0.25,2.0,0.5,0.5,-0.05,0.02,1.02,821.2,12.7,41.4,0.25,0.25,0.75,0.75,0.0,0.0,0.5,0.75,0.25,0.0,0.0,0.0,0.75,0.08,0.7,1.95,115.48,-10.3,5.9
2.16,5.0,2.0,9.75,14.0,11.0,6.25,6.25,3.5,2.0,1.0,1.75,0.5,1.25,-0.05,0.02,1.08,934.88,11.1,39.2,0.0,0.0,0.75,1.25,0.0,0.0,0.25,1.0,0.75,1.0,0.0,0.5,0.75,0.08,1.45,2.39,108.16,-4.2,-25.1
2.18,5.25,2.0,10.5,16.0,11.0,6.25,5.75,3.0,2.0,1.0,2.5,0.5,1.5,-0.05,0.08,1.08,1058.53,11.7,39.1,0.75,0.25,2.5,2.25,0.0,0.5,0.75,1.0,0.75,1.0,0.0,0.25,0.75,-0.05,2.39,2.95,118.57,-12.9,15.1
2.2,6.75,1.75,13.5,17.5,11.5,6.25,5.25,1.75,1.5,1.25,2.25,0.0,1.25,-0.05,0.08,1.08,1203.1,13.8,45.1,0.5,0.75,0.75,2.25,0.0,2.0,0.25,1.0,0.75,0.75,0.0,0.5,0.75,0.02,3.58,3.14,132.08,-3.0,10.8
2.22,7.0,1.5,12.5,17.5,11.5,5.5,3.0,2.25,1.5,0.0,2.25,0.5,0.25,-0.05,0.14,1.2,1275.36,14.3,48.2,0.5,0.75,2.5,1.25,0.0,2.0,0.75,1.0,0.75,1.0,0.0,0.5,0.75,0.14,4.58,2.02,153.95,-7.5,12.9
2.24,8.0,2.0,15.5,17.5,13.5,4.5,1.75,1.25,1.5,1.25,2.5,0.5,1.25,0.02,0.14,1.14,1349.9,14.8,46.6,1.0,0.75,1.75,0.75,0.0,0.0,0.75,1.0,0.5,0.0,0.0,0.5,0.75,-1.11,6.02,-0.98,148.93,-16.1,18.3
2.26,8.75,2.0,15.5,17.5,14.0,3.25,0.5,2.0,1.5,1.25,2.25,0.5,1.25,-0.05,0.2,1.27,1383.83,15.0,47.1,0.5,0.5,2.5,2.25,0.0,0.0,0.75,1.0,0.5,0.5,0.0,0.75,0.75,-2.73,6.83,-0.3,147.56,-15.4,14.0
2.28,8.5,1.75,15.0,15.0,13.5,0.75,0.0,1.75,0.75,0.25,0.25,0.0,0.5,-0.23,0.27,1.45,1337.78,17.5,57.2,0.25,0.0,1.25,0.25,0.0,0.0,0.75,0.75,0.25,1.0,1.25,3.0,4.0,0.2,-2.11,0.45,159.39,-2.5,-69.0
2.3,7.75,1.75,12.5,13.5,11.0,0.0,0.0,1.5,0.75,0.25,1.0,0.0,0.25,-0.42,0.39,1.64,1195.46,18.2,56.4,0.75,0.75,1.75,0.25,0.0,0.0,0.75,1.0,0.75,5.5,1.0,6.5,7.75,-0.11,0.45,1.02,242.57,0.6,-70.1
2.32,7.25,1.75,10.5,10.5,9.0,0.0,0.5,1.5,0.75,0.25,0.5,0.0,0.5,-0.55,0.64,2.02,979.96,18.2,56.2,0.75,0.0,2.5,0.75,0.0,0.0,0.75,2.5,0.75,7.0,4.75,6.75,9.25,-0.3,0.52,2.02,353.93,0.4,-70.5
2.34,5.25,0.5,6.75,6.75,7.0,0.0,0.0,1.25,0.75,0.25,0.5,0.0,0.25,-0.86,2.02,3.2,710.38,17.1,53.6,0.0,0.0,1.25,0.5,0.0,2.0,0.0,2.5,1.25,8.25,4.75,7.5,8.75,0.27,0.58,3.52,486.08,4.0,-74.8
2.36,2.0,0.25,4.5,2.5,5.0,0.0,0.0,0.75,0.75,0.0,0.25,0.5,0.0,-0.92,1.64,4.39,436.01,15.8,47.2,0.0,0.75,1.5,0.0,0.0,2.0,0.75,5.25,1.75,8.5,8.5,7.0,9.75,-0.11,0.2,1.2,646.83,3.3,-69.7
2.38,1.0,0.25,3.75,2.5,5.0,0.0,0.0,2.25,0.75,0.0,1.75,0.0,0.25,-0.61,-1.23,3.45,281.26,10.6,29.4,0.0,0.0,0.75,0.25,0.0,3.25,0.75,5.0,2.5,8.75,7.5,7.25,8.75,0.14,0.14,0.95,749.29,4.4,-70.2
2.4,0.0,0.0,2.5,0.0,1.25,0.0,0.0,1.75,0.75,0.0,2.0,0.0,0.25,-0.92,-0.11,2.14,139.48,10.4,-4.1,0.0,0.0,1.5,1.25,0.0,3.5,0.75,5.25,2.75,8.75,8.5,7.0,8.5,0.14,0.08,0.95,822.57,3.0,-64.1
2.42,0.0,0.0,2.25,0.0,0.5,0.0,0.0,1.25,0.75,0.0,1.25,0.0,0.0,-1.36,-1.36,2.14,20.58,14.4,0.6,0.5,1.5,1.5,1.25,0.0,4.0,0.75,5.5,3.0,8.25,9.0,6.75,9.0,0.14,0.08,0.95,871.82,2.3,-56.6
2.44,0.0,0.0,1.0,0.0,0.5,0.0,0.0,0.25,0.75,0.0,0.25,0.0,0.25,-0.8,-1.11,0.83,0.0,13.3,2.8,0.5,0.25,1.25,2.25,0.0,4.0,1.5,5.25,3.25,7.75,7.5,6.25,7.75,0.14,0.08,0.95,882.1,2.1,-55.5
2.46,0.25,0.25,1.0,2.25,0.0,2.0,0.0,0.5,0.75,0.5,0.75,0.5,1.25,-0.42,-0.8,0.33,0.0,3.5,-2.4,0.25,0.25,1.75,2.5,0.0,4.25,1.75,5.25,3.25,6.5,6.75,5.25,6.25,0.08,0.08,0.95,836.06,1.4,-49.4
2.48,0.0,0.5,2.25,0.25,3.0,1.0,0.0,1.75,0.75,0.5,1.75,0.0,0.75,-0.17,-0.55,0.52,0.0,3.5,6.0,1.0,1.0,2.0,3.75,0.0,4.5,1.75,5.25,3.25,6.25,6.25,3.5,6.0,0.08,0.08,0.95,774.31,0.3,-36.8
2.5,0.0,0.25,2.0,0.0,0.5,1.0,0.0,1.5,0.75,0.5,0.0,0.0,0.5,-0.11,-0.48,0.58,0.0,3.8,4.6,0.5,0.25,1.5,2.75,0.25,4.5,2.5,4.0,2.5,3.5,4.0,2.5,3.75,0.08,0.08,0.95,629.68,0.3,-31.5
2.52,0.0,0.25,2.25,1.0,1.25,0.5,0.0,1.75,0.75,0.25,1.25,0.5,0.25,-0.11,-0.48,0.64,22.71,8.2,3.0,0.5,0.75,2.5,3.25,0.25,4.25,2.0,4.0,2.5,1.75,2.5,1.5,2.5,0.08,0.08,0.95,488.71,-2.2,-13.1
2.54,0.0,0.5,2.25,1.25,4.5,1.75,0.0,1.75,0.75,0.5,1.5,0.5,0.5,-0.05,-0.3,0.7,92.18,2.8,15.0,0.5,0.75,3.25,4.25,1.5,4.0,2.75,4.0,2.25,1.5,3.25,0.5,1.5,0.08,0.08,0.95,389.42,-4.6,0.9
2.56,0.25,0.5,2.25,0.5,3.75,1.5,0.0,1.75,0.75,0.5,2.0,0.5,0.25,0.02,-0.17,0.95,147.72,3.9,10.8,0.5,0.75,4.5,5.25,1.75,4.5,3.0,3.0,1.75,1.0,1.25,0.5,0.75,0.08,0.08,0.95,343.25,-7.4,19.2
2.58,0.0,0.5,2.25,0.75,3.5,1.75,0.0,1.5,0.75,0.5,1.5,0.5,0.5,0.14,0.02,1.14,190.95,3.2,11.4,1.25,0.75,5.5,6.75,3.0,4.5,3.5,2.5,1.75,1.25,0.75,0.75,0.0,0.08,0.08,0.95,342.15,-9.9,29.9
2.6,0.25,0.5,2.25,0.0,4.25,1.5,0.25,1.5,0.75,0.5,2.0,0.5,0.75,0.02,0.14,1.33,219.07,3.1,7.7,1.75,0.75,6.0,7.0,3.75,4.5,3.75,2.5,1.5,0.0,0.25,0.5,0.0,0.08,0.08,0.95,354.41,-11.5,39.8
2.62,0.0,0.5,2.25,0.25,2.5,1.25,0.25,1.75,0.75,0.5,2.0,0.5,0.75,-0.17,0.27,1.58,221.12,3.9,-1.0,3.0,1.0,7.25,8.5,5.25,5.0,4.25,2.5,1.25,0.0,0.0,0.5,0.0,0.08,0.08,0.95,409.09,-12.4,45.3
2.64,0.25,0.25,2.0,0.25,3.0,1.0,0.25,1.75,0.75,0.25,2.0,0.0,0.75,-0.36,0.45,1.83,218.42,4.0,5.0,3.5,2.5,7.75,10.5,6.75,5.5,5.0,2.5,1.25,0.0,0.0,0.0,0.0,0.08,0.14,0.95,502.44,-12.4,50.3
2.66,0.0,0.25,0.75,0.0,0.0,0.25,0.0,0.25,0.25,0.0,0.5,0.0,0.0,-0.48,0.83,2.52,162.96,14.0,11.0,4.5,1.0,8.5,0.0,7.0,6.0,5.25,2.0,1.25,0.0,0.0,0.25,0.0,0.08,0.14,0.95,528.64,-11.9,47.1
2.68,0.25,0.5,0.75,0.25,0.0,1.75,0.0,1.75,0.75,0.5,1.75,0.5,0.5,-0.67,1.7,3.14,139.22,-0.1,-19.8,6.25,0.0,9.5,14.0,7.5,6.0,5.75,2.5,1.25,1.5,0.25,0.5,1.0,0.02,0.14,1.02,675.83,-12.9,42.4
2.7,0.25,0.0,2.25,0.0,2.25,0.0,0.5,1.75,0.25,0.0,2.0,0.0,1.0,-0.86,2.7,3.14,120.55,7.3,-2.5,6.75,2.0,11.0,16.0,9.5,6.0,5.75,2.5,1.25,1.5,1.0,0.5,1.0,0.02,0.14,1.08,864.6,-13.2,44.6
2.72,0.0,0.25,0.25,0.0,0.0,0.0,0.0,0.25,0.25,0.0,1.25,0.0,0.25,-0.42,3.27,2.27,90.01,8.6,-39.3,6.75,0.0,12.0,14.0,9.75,4.5,5.0,0.0,0.75,0.0,0.0,0.25,0.5,0.02,0.2,1.08,982.74,-16.9,55.3
2.74,0.0,0.0,2.25,0.0,3.75,0.0,0.0,0.0,0.5,0.25,1.25,0.0,1.0,1.7,5.89,0.52,99.66,7.8,13.6,8.0,0.0,11.5,17.5,9.25,3.25,4.25,0.5,1.0,1.5,0.0,0.5,0.25,-0.05,0.2,1.08,1076.08,-16.9,52.3
2.76,0.0,0.5,2.25,0.0,3.5,0.0,0.0,0.25,0.75,1.25,2.5,1.5,1.5,4.27,7.95,0.2,125.57,5.8,-16.4,8.0,3.0,13.0,15.5,11.0,2.25,3.75,1.0,1.0,1.25,0.25,0.5,0.5,0.02,0.27,1.14,1142.92,-16.8,53.7
2.78,0.0,0.0,2.0,0.0,0.5,0.0,0.0,0.25,0.25,1.75,3.0,5.25,5.25,-0.61,-0.17,1.14,183.31,2.8,-75.0,9.75,4.25,14.0,17.5,9.5,2.0,3.0,1.0,1.0,1.25,0.75,0.5,0.75,-0.05,0.27,1.14,1218.29,-18.0,54.6
2.8,0.0,0.0,0.0,0.0,0.0,0.0,0.0,1.75,0.75,6.5,4.5,7.75,8.5,-0.36,0.33,2.33,283.22,-4.2,-91.4,9.0,3.75,14.5,15.0,8.5,1.25,2.5,1.0,0.75,0.0,0.0,0.0,0.25,0.14,0.45,1.33,1201.14,-20.1,61.7
2.82,0.0,0.75,0.0,0.0,0.0,2.25,0.0,3.5,1.25,7.75,7.25,7.5,10.0,-0.11,0.58,4.33,430.82,-5.0,-77.2,10.0,4.25,12.0,14.0,7.0,2.0,3.0,0.25,0.75,0.0,0.0,0.0,0.0,0.39,0.58,1.7,1148.38,-20.4,64.8
2.84,0.0,0.25,0.0,0.0,0.5,2.5,0.0,4.75,0.75,8.5,8.0,7.75,8.25,-0.3,0.2,1.27,584.75,-5.3,-74.9,9.0,4.0,11.0,10.5,1.5,1.25,5.25,1.0,0.75,0.5,0.75,0.5,0.75,0.52,0.95,2.27,990.41,-22.5,55.2
2.86,0.0,0.25,0.0,0.0,0.5,3.0,0.0,5.25,2.25,8.5,8.75,8.0,8.75,-0.11,0.08,1.02,722.69,-4.8,-72.8,7.5,2.5,8.5,7.5,1.5,1.75,5.0,1.0,0.5,0.75,0.0,0.0,0.75,0.95,2.33,3.27,780.46,-21.4,55.5
2.88,0.5,0.5,0.0,2.5,0.75,4.5,0.0,5.75,3.25,10.0,9.5,9.0,9.0,-0.05,0.02,1.02,872.52,-3.5,-60.9,3.75,1.25,6.0,5.0,0.0,1.75,1.75,1.0,0.75,1.0,0.0,0.25,0.75,1.39,1.39,4.89,533.72,-18.8,43.4
2.9,0.0,1.0,0.0,2.25,4.75,4.5,0.5,6.25,3.25,10.0,11.0,9.0,10.5,-0.05,0.02,0.95,1037.79,-3.6,-53.9,2.0,0.75,1.25,3.5,0.0,2.0,0.25,0.75,0.75,1.25,0.0,0.5,0.25,0.77,-1.42,2.77,326.74,-9.6,29.2
2.92,0.25,0.75,0.0,2.25,5.0,4.5,0.5,6.5,3.0,9.75,10.5,8.5,10.0,-0.05,-0.05,0.95,1140.07,-3.7,-52.3,0.0,0.0,2.25,1.75,0.0,0.0,0.0,0.75,0.25,0.75,0.0,0.0,0.5,1.14,-0.73,2.39,161.79,-14.3,14.9
2.94,0.0,1.5,0.0,2.5,4.25,4.5,0.5,6.25,2.75,7.75,8.5,7.0,8.75,-0.05,0.02,0.95,1143.89,-3.8,-47.5,0.5,0.0,1.0,1.25,0.0,0.0,0.0,0.75,0.25,0.0,0.0,0.0,0.25,0.33,-0.11,1.02,21.28,-16.0,28.9
2.96,0.0,0.5,0.0,0.0,0.5,4.0,0.5,6.25,2.25,7.5,7.5,6.0,8.0,-0.11,0.02,0.95,1024.91,-5.9,-65.4,0.0,0.0,1.25,1.0,0.0,0.0,0.0,0.75,0.25,0.0,0.0,0.0,0.0,0.27,0.08,1.14,0.0,-17.3,30.1
2.98,0.0,0.25,0.0,0.0,0.5,3.75,0.25,5.75,1.5,6.5,6.5,5.5,7.25,-0.05,0.02,0.95,843.35,-6.4,-66.4,0.0,0.5,0.75,1.25,0.0,1.25,0.75,1.0,0.25,0.0,0.0,0.0,0.0,0.2,0.33,1.2,0.0,-5.4,32.6
3.0,0.0,0.25,0.0,0.0,1.75,4.25,0.0,5.25,1.5,5.75,6.0,5.0,6.5,-0.05,0.02,0.95,685.64,-6.6,-59.1,0.75,0.75,2.5,2.25,0.0,1.75,0.75,1.0,0.75,1.25,0.0,0.5,0.75,0.27,0.52,1.27,0.0,-8.9,16.0
3.02,0.0,0.25,0.0,0.0,3.0,4.5,0.5,5.25,1.75,5.25,5.0,4.0,6.25,-0.11,0.02,0.95,570.8,-6.9,-50.8,0.75,0.75,2.5,2.5,0.0,0.5,0.75,1.0,0.75,1.0,0.0,0.5,0.75,0.39,0.58,1.58,0.0,-12.9,17.1
3.04,0.0,1.75,0.0,2.5,4.75,5.25,0.5,6.25,2.25,5.75,6.25,4.75,6.25,-0.11,0.02,0.89,552.04,-4.4,-35.3,0.75,0.75,2.5,2.5,0.0,0.0,0.75,1.0,0.75,1.25,0.0,0.5,0.75,0.39,1.02,2.08,41.74,-13.8,14.3
3.06,0.5,0.25,0.0,2.5,5.0,5.75,0.0,6.25,2.75,4.5,6.25,4.75,5.5,-0.11,0.02,0.95,550.15,-4.3,-35.2,0.75,0.75,2.5,2.5,0.0,0.0,0.75,1.0,0.75,1.0,0.0,0.5,0.75,0.33,1.39,2.45,80.57,-14.4,16.4
3.08,0.0,1.75,1.0,5.0,7.25,6.5,0.5,6.25,3.25,5.0,6.25,4.0,5.5,-0.05,0.02,0.95,614.05,-2.4,-19.8,0.25,0.0,2.5,1.25,0.0,0.0,0.5,0.75,0.75,1.25,0.0,0.5,0.75,0.33,2.2,2.7,99.91,-12.8,-3.5
3.1,0.0,1.75,2.25,5.75,7.25,7.25,2.5,6.25,4.0,4.5,5.75,3.75,5.0,-0.05,0.02,0.95,678.53,-0.6,-13.3,0.5,0.75,2.5,2.25,0.0,0.0,0.75,1.0,0.75,1.0,0.0,0.5,0.75,0.27,3.02,2.77,123.97,-13.9,13.5
3.12,1.5,1.75,3.25,7.5,9.0,8.0,3.0,6.25,4.0,4.25,5.0,2.25,4.25,-0.05,0.02,0.95,777.26,1.0,0.3,0.75,0.75,2.0,2.25,0.0,0.5,0.75,1.25,0.75,0.25,0.0,0.25,0.75,0.02,3.58,2.14,143.69,-13.0,22.5
3.14,2.0,1.75,4.5,9.75,10.5,8.25,3.75,6.0,3.25,2.75,4.0,2.25,3.0,-0.05,0.02,0.95,878.25,3.1,12.3,0.75,0.75,2.5,2.25,0.0,2.0,0.75,1.0,0.75,1.0,0.0,0.5,0.75,-0.86,4.14,1.2,171.93,-8.8,18.2
3.16,2.75,2.0,6.25,13.0,11.5,8.75,4.25,5.25,2.25,1.5,3.75,0.5,1.5,-0.05,0.02,1.02,999.26,5.8,28.3,0.75,0.75,2.5,2.25,0.0,2.0,0.75,1.0,0.75,0.75,0.0,0.5,0.75,-1.8,5.45,0.14,187.02,-9.3,20.0
3.18,4.5,2.75,7.75,14.5,13.5,9.0,4.25,5.25,2.25,2.5,3.0,0.5,2.25,-0.05,0.02,1.08,1167.63,6.5,30.9,0.75,0.75,2.5,2.25,0.0,2.0,0.75,1.0,0.75,1.0,0.0,0.5,0.75,-2.61,5.45,-0.23,197.39,-8.8,18.2
3.2,5.25,2.75,8.25,16.5,15.0,9.0,4.25,4.0,1.5,1.25,2.5,0.5,2.25,-0.05,0.08,1.14,1314.04,7.8,37.5,0.75,0.75,2.5,2.25,0.0,1.0,0.75,1.0,0.75,1.0,0.0,0.5,0.75,-1.61,3.14,0.89,193.8,-11.4,16.9
3.22,6.5,2.0,9.25,18.0,15.5,8.0,3.0,3.5,1.5,1.75,1.5,0.5,2.0,-0.05,0.14,1.2,1399.8,8.9,40.6,0.5,0.75,2.5,2.25,0.0,0.0,0.5,1.0,0.75,1.5,1.0,2.5,2.0,-0.36,-0.3,3.27,198.45,-9.6,-21.8
3.24,7.75,3.5,10.5,18.5,15.5,7.5,0.25,3.5,1.25,1.75,0.5,0.5,2.0,-0.05,0.14,1.2,1455.49,9.7,45.1,0.25,0.0,2.75,2.25,0.0,2.0,0.5,0.75,0.5,3.75,2.0,4.5,6.25,-0.11,-1.36,1.83,247.84,-1.1,-50.1
3.26,8.25,3.5,10.5,17.5,15.5,6.5,0.0,3.5,1.0,2.0,2.0,0.5,1.5,-0.17,0.2,1.27,1476.72,10.2,44.0,0.75,0.0,0.75,2.25,0.0,2.0,0.0,1.0,0.75,6.5,3.5,7.75,7.75,-0.23,0.45,1.2,335.66,1.8,-67.2
3.28,8.5,4.5,11.5,17.5,15.5,5.25,0.0,3.25,1.0,1.75,2.25,0.5,1.5,-0.3,0.27,1.45,1479.29,11.4,45.6,0.5,0.75,2.25,2.25,0.0,2.0,0.5,2.5,1.25,8.0,6.25,8.25,9.75,-0.05,0.33,2.39,493.4,0.7,-62.1
3.3,8.25,4.0,10.5,16.0,14.0,4.0,0.0,2.25,0.75,2.0,2.0,0.5,1.5,-0.42,0.33,1.89,1429.93,12.1,46.0,0.0,0.0,2.5,0.25,0.0,0.0,0.0,2.75,0.75,8.25,6.75,8.0,11.0,0.14,0.14,1.89,625.59,1.9,-79.1
3.32,7.75,3.25,8.25,10.5,11.0,3.0,0.0,2.0,0.75,1.5,2.25,0.5,1.75,-0.55,0.89,2.39,1277.6,12.1,42.9,0.0,0.0,2.5,2.25,0.0,2.0,0.5,4.0,1.25,9.5,7.75,8.75,11.0,0.14,0.08,1.08,771.22,1.9,-67.3
3.34,6.0,1.75,4.5,6.75,8.75,1.75,0.0,1.75,0.75,0.5,1.75,0.5,1.5,-1.11,2.2,3.45,957.12,11.1,40.7,0.0,0.0,2.75,0.25,0.0,1.75,0.0,4.0,1.75,8.75,6.0,7.75,9.75,0.14,0.08,1.02,808.44,2.6,-70.7
3.36,3.5,1.75,2.25,4.75,7.0,1.5,0.0,1.75,0.75,0.0,1.75,0.5,1.5,-0.48,1.08,4.33,641.43,8.3,34.1,0.25,0.75,1.75,2.25,0.0,2.0,0.0,5.25,1.75,9.75,7.5,8.5,11.0,0.14,0.08,0.95,878.89,2.7,-65.2
3.38,0.0,0.0,1.0,0.25,4.75,0.0,0.0,1.75,0.75,0.0,0.75,0.0,0.25,-0.36,-1.98,1.89,335.26,0.9,18.7,0.25,0.75,2.25,2.25,0.0,3.5,0.5,5.75,1.75,9.5,7.75,8.5,11.0,0.14,0.08,0.95,924.75,2.6,-60.7
3.4,0.0,0.0,0.25,0.25,0.5,0.0,0.0,1.75,0.75,1.0,1.5,0.5,0.0,-0.55,-2.05,2.39,151.26,-0.5,-41.9,0.5,0.75,0.25,1.25,0.0,4.25,0.5,6.0,1.75,8.75,7.5,7.75,9.75,0.14,0.02,0.95,940.63,4.8,-63.8
3.42,0.0,0.0,2.25,2.25,5.0,1.0,0.0,1.5,0.75,0.25,0.5,0.0,0.25,-0.98,-1.55,2.14,39.65,4.7,30.6,0.0,0.75,0.0,1.25,0.0,4.5,0.75,6.0,2.0,8.5,7.25,6.75,9.0,0.14,0.02,0.95,905.62,5.5,-63.4
3.44,0.0,0.0,0.75,0.0,1.75,0.25,0.0,1.5,0.5,0.25,1.0,0.0,1.25,-0.61,-1.17,0.7,0.0,-1.6,-19.5,0.0,0.75,1.75,2.5,0.25,4.5,0.75,6.0,1.75,7.75,6.5,6.0,8.25,0.14,0.02,0.95,849.18,3.4,-52.6
3.46,0.0,1.0,0.0,1.0,4.5,0.75,0.0,1.75,0.5,0.5,0.25,0.5,0.25,-0.48,-0.86,0.58,0.0,-2.5,20.4,0.0,0.75,2.25,2.5,1.5,4.5,0.75,6.0,1.5,6.75,5.5,4.5,7.25,0.14,0.08,0.95,761.46,3.2,-43.5
3.48,0.25,0.5,0.0,1.25,0.0,2.25,0.0,1.75,0.75,0.5,0.0,0.5,0.25,-0.42,-0.61,0.58,0.0,-4.8,0.6,0.0,1.5,1.75,3.5,2.25,6.0,0.0,6.0,1.5,5.5,4.25,3.0,5.75,0.14,0.08,0.95,659.15,4.0,-28.7
3.5,0.75,0.75,0.0,0.25,4.25,2.25,0.0,1.75,0.75,1.0,1.5,0.5,1.25,-0.42,-0.42,0.7,0.0,-3.8,1.1,1.5,1.0,1.0,2.75,2.25,6.0,0.75,4.75,1.75,4.0,2.25,2.5,3.25,0.14,0.08,0.95,544.67,2.9,-16.3
3.52,0.0,0.0,2.25,0.0,3.75,1.0,0.0,1.75,0.25,0.75,1.5,0.5,1.0,-0.48,-0.23,0.7,28.26,1.5,-0.4,0.75,0.75,2.25,4.75,1.5,5.75,2.0,4.25,1.5,2.25,1.75,2.0,1.75,0.14,0.08,0.95,447.63,-1.0,-1.8
3.54,0.25,0.5,2.25,0.25,4.25,2.25,0.0,1.75,0.75,0.5,1.75,0.5,1.25,-0.48,-0.05,0.89,107.56,1.1,6.4,2.0,2.0,3.5,6.75,5.25,6.5,2.75,5.25,1.5,3.0,1.0,1.25,2.75,0.14,0.08,0.95,459.12,-2.2,13.4
3.56,0.5,0.25,2.0,0.0,3.5,2.25,0.0,1.75,0.75,0.25,2.0,0.5,0.75,-0.36,0.2,1.2,156.93,1.8,5.7,3.25,2.0,5.5,8.5,6.25,6.75,3.75,4.75,1.5,2.5,2.25,0.75,2.5,0.08,0.08,0.95,533.34,-5.7,21.4
3.58,0.75,0.75,2.0,0.0,1.75,2.25,0.25,1.75,0.75,0.5,1.75,0.5,1.25,-0.36,0.58,1.58,192.5,2.7,-0.2,4.0,2.5,6.25,10.5,7.0,6.75,4.75,4.0,1.0,1.75,1.5,0.5,1.75,0.08,0.08,0.95,649.75,-8.0,32.8
3.6,0.0,0.5,2.0,0.0,3.5,1.75,0.25,1.75,0.75,0.75,1.75,0.5,1.25,-0.36,1.2,1.77,210.63,0.7,-1.5,4.5,2.5,7.25,12.5,8.5,7.0,5.5,4.0,1.25,1.75,0.0,0.5,1.5,0.08,0.08,1.02,770.66,-8.9,38.6
3.62,0.0,0.75,2.0,0.25,2.5,2.0,0.25,1.75,0.75,0.75,1.75,0.5,1.25,-0.36,1.7,2.33,222.67,1.1,-2.5,5.25,2.5,8.25,13.5,9.0,7.25,5.5,2.75,0.75,1.5,0.0,0.25,1.5,0.08,0.14,1.02,881.7,-10.3,43.8
3.64,0.0,0.75,2.25,0.0,3.0,2.25,0.5,1.75,0.75,0.5,1.75,0.5,1.25,-0.17,2.52,2.7,224.76,1.4,1.5,5.75,1.0,8.25,0.0,8.75,6.75,5.5,2.5,0.5,1.0,0.0,0.5,0.75,0.02,0.14,1.08,825.29,-9.5,41.8
3.66,0.25,0.25,2.0,0.0,2.25,2.25,0.5,1.75,0.75,0.5,1.75,0.5,1.25,0.02,3.2,2.52,216.41,1.2,-4.7,6.25,0.0,0.0,16.0,9.75,6.0,5.5,2.5,0.75,1.5,0.0,0.5,1.25,0.02,0.2,1.08,816.22,-7.0,40.5
3.68,0.0,0.25,2.0,0.0,3.0,0.0,0.25,1.75,0.0,0.25,1.75,0.0,1.0,0.33,3.58,1.45,202.11,4.2,1.1,5.5,2.25,9.5,0.0,11.0,6.0,5.5,1.5,0.25,1.5,0.25,0.5,0.75,0.08,0.2,1.14,756.37,-10.4,45.0
3.7,0.0,0.5,0.0,0.0,0.0,2.0,0.0,0.0,0.5,0.75,0.5,0.25,0.5,0.83,4.02,-0.05,152.11,-8.6,-16.4,6.5,2.5,10.0,15.5,10.0,4.5,4.25,1.0,0.0,0.0,0.0,0.0,0.75,0.08,0.27,1.39,829.53,-14.9,56.8
3.72,0.0,0.0,1.75,0.0,3.75,1.0,0.0,0.5,0.5,0.75,0.5,0.5,0.0,1.7,5.08,-0.67,134.53,2.9,19.1,7.5,2.5,9.5,15.5,8.5,2.0,4.0,1.0,0.5,0.0,0.0,0.0,0.75,0.14,0.33,1.45,863.71,-17.4,57.8
3.74,0.0,0.5,1.5,0.0,2.5,2.0,0.0,1.5,0.75,1.5,2.0,1.25,1.75,0.83,0.27,1.14,143.81,-1.2,-20.3,7.5,2.5,9.25,13.0,7.0,0.0,4.25,0.25,0.25,0.0,0.0,0.0,0.5,0.27,0.39,1.77,858.95,-20.6,62.0
3.76,0.75,0.0,0.0,0.0,0.0,0.0,0.0,1.25,0.5,1.5,1.5,1.5,3.25,0.33,-1.11,1.45,153.65,-3.0,-73.6,7.5,2.5,9.0,10.5,5.25,0.0,5.75,0.25,0.25,0.0,0.0,0.0,0.5,0.39,0.77,2.27,766.94,-22.2,62.1
3.78,0.0,1.0,0.0,0.5,0.0,2.0,0.0,1.75,1.5,7.75,3.0,6.75,7.25,0.02,0.2,2.89,256.98,-5.2,-72.7,6.25,2.25,7.25,8.0,1.5,0.0,5.5,0.0,0.5,0.0,0.0,0.0,0.0,0.52,1.45,3.02,600.08,-25.9,65.3
3.8,0.0,0.25,0.0,0.0,0.0,4.0,0.0,5.25,1.5,7.75,7.0,7.0,9.0,-0.67,0.64,2.27,393.43,-6.4,-71.9,5.75,2.5,6.75,6.75,1.5,1.25,5.0,1.0,0.75,1.25,0.0,0.5,1.25,0.33,1.7,3.33,492.14,-19.1,45.3
3.82,0.0,0.25,0.0,0.75,0.5,6.5,0.0,6.25,3.25,9.75,6.0,7.75,9.0,-0.05,0.02,1.14,606.11,-6.8,-62.2,3.25,1.0,5.5,5.0,0.0,0.0,3.0,1.0,0.25,0.0,0.0,0.5,1.0,0.95,0.58,3.45,356.76,-23.4,45.4
3.84,0.25,0.5,0.0,2.25,4.75,7.25,0.5,7.25,4.0,9.75,0.0,7.5,9.5,-0.11,0.02,1.02,780.69,-7.5,-43.0,0.0,0.0,2.5,2.25,0.0,0.0,1.0,0.75,0.0,0.0,0.0,0.0,0.25,0.95,-2.55,2.64,233.83,-21.5,38.8
3.86,0.5,1.5,0.0,2.5,4.75,7.75,0.0,7.0,4.75,8.5,9.0,7.0,9.0,-0.11,-0.05,1.02,969.18,-4.3,-42.2,0.5,0.0,1.0,2.75,0.0,2.0,0.75,1.0,0.5,1.5,0.0,0.0,0.25,1.08,-2.55,2.7,136.82,-3.6,15.2
3.88,2.25,1.75,2.5,4.0,6.75,7.5,0.25,6.5,5.0,6.5,0.0,5.25,7.25,-0.05,-0.05,1.02,1027.96,-2.2,-15.6,0.75,0.75,2.75,2.75,0.0,0.25,1.0,1.0,0.75,1.25,0.0,0.5,1.0,1.02,-1.86,1.89,86.55,-13.3,14.1
3.9,3.0,1.75,4.5,5.0,7.25,7.25,2.0,4.5,4.25,2.0,5.0,2.25,4.25,-0.05,-0.05,1.02,1039.44,3.6,3.1,0.0,0.75,2.5,2.0,0.0,0.0,0.75,1.0,0.0,0.0,0.0,0.25,1.5,0.7,-1.23,0.7,37.32,-13.9,15.0
3.92,3.75,0.75,5.75,3.5,7.25,6.25,2.5,3.75,3.25,0.75,0.0,0.5,2.5,-0.05,0.02,1.02,930.25,5.7,25.2,0.5,0.75,0.25,2.75,0.0,0.0,0.75,1.0,0.75,1.25,0.0,0.5,1.25,0.7,-0.67,0.64,26.64,-5.9,-4.5
3.94,4.25,1.25,5.5,5.0,6.25,5.75,0.5,3.0,2.25,0.5,3.75,0.5,1.25,-0.11,0.02,1.02,827.13,7.8,25.7,0.5,0.5,2.5,2.75,0.0,0.25,0.75,1.0,0.75,1.25,0.0,0.5,1.0,0.45,-0.17,0.83,34.85,-12.1,9.4
3.96,4.75,1.0,8.0,5.25,6.75,5.25,0.0,1.75,2.25,0.0,1.5,0.0,0.25,-0.05,0.02,1.02,710.94,11.9,43.8,0.0,0.0,2.5,1.0,0.0,0.0,0.75,0.75,0.0,0.0,0.0,0.0,0.5,0.27,0.33,1.2,26.29,-20.7,27.0
3.98,5.75,0.0,8.75,5.5,6.75,4.25,0.0,1.75,1.25,0.0,1.5,0.0,0.0,-0.23,0.14,1.02,634.23,14.1,47.7,0.0,0.0,0.75,1.0,0.0,0.0,0.0,0.75,0.0,0.0,0.0,0.0,0.75,0.52,1.33,0.64,11.79,-7.3,-1.8
4.0,6.0,0.25,9.5,6.75,6.75,2.5,0.0,1.75,1.5,0.0,1.75,0.0,0.5,-0.11,0.08,0.95,588.7,16.0,46.1,0.0,0.0,0.75,0.75,0.0,0.0,0.0,0.75,0.0,0.0,0.0,0.0,0.25,0.64,1.95,0.14,0.0,-10.5,13.7
4.02,6.5,2.0,9.75,7.5,7.25,4.5,0.0,1.75,1.5,0.0,1.5,0.5,0.25,-0.05,0.14,1.02,586.88,14.4,48.5,0.0,0.0,2.5,2.25,0.0,0.25,0.75,0.75,0.25,0.0,0.0,0.0,0.75,0.33,2.2,0.45,21.66,-17.1,25.7
4.04,6.0,0.5,11.0,5.5,7.25,3.0,0.0,1.75,0.75,0.0,2.75,0.0,1.25,-0.11,0.08,1.02,583.95,15.5,42.3,0.5,0.75,1.0,0.75,0.0,1.25,0.25,1.0,0.0,1.25,0.0,0.5,0.25,0.27,2.33,0.89,45.4,-2.7,7.8
4.06,7.25,1.75,11.5,0.0,7.25,3.5,0.0,2.0,0.75,0.5,2.75,0.0,1.25,0.2,0.08,1.14,577.79,14.9,41.7,0.0,0.0,2.5,0.75,0.0,0.0,0.75,1.0,0.0,0.75,0.0,0.5,0.25,0.83,2.58,0.2,78.2,-15.4,5.4
4.08,7.25,1.75,12.0,2.5,7.25,4.25,0.0,2.0,1.0,0.25,2.5,0.5,1.25,0.45,0.08,1.27,594.9,14.8,41.9,0.5,0.75,2.5,2.25,0.0,2.0,0.75,1.0,0.75,1.0,0.0,0.5,1.0,0.83,2.45,-0.05,125.53,-7.9,14.1
4.1,6.5,1.75,11.5,8.0,7.25,3.5,0.0,1.75,0.25,0.0,2.5,0.25,1.25,0.02,0.2,1.14,631.76,15.6,46.1,0.5,0.75,2.5,2.25,0.0,2.0,0.75,1.0,0.75,0.75,0.0,0.5,1.0,0.64,2.14,0.33,151.1,-8.3,15.9
4.12,5.0,1.5,9.5,6.75,5.5,1.75,0.0,1.75,0.5,0.25,2.25,0.0,1.25,-0.23,0.39,1.08,620.33,16.1,43.2,0.5,0.75,2.5,2.25,0.0,2.0,0.75,1.0,0.75,1.25,0.0,0.5,0.75,0.58,1.83,0.2,176.17,-7.8,14.8
4.14,5.0,0.75,9.0,6.75,4.75,1.75,0.0,1.5,0.75,0.5,1.25,0.0,0.0,-0.36,0.58,1.2,577.43,17.7,49.9,0.5,0.75,2.25,2.25,0.0,2.0,0.75,1.0,0.75,1.0,0.0,0.5,1.0,0.58,1.39,-0.05,191.0,-7.2,13.1
4.16,3.5,1.25,7.75,5.25,5.0,2.0,0.0,1.75,0.75,0.5,2.0,0.5,1.5,-0.3,0.52,1.52,524.24,13.5,34.3,0.25,0.25,2.25,2.0,0.0,0.0,0.75,1.0,0.0,0.0,0.75,0.0,1.5,2.7,3.7,0.27,180.78,-13.7,6.7
4.18,1.75,0.5,5.25,3.75,5.0,2.5,0.0,1.75,0.75,0.5,2.5,0.5,1.5,-0.3,-0.23,1.64,439.56,9.0,22.7,0.0,0.75,0.0,2.5,0.0,2.0,0.0,1.0,0.5,1.5,0.0,0.5,0.75,3.14,0.14,0.45,169.16,3.0,-1.8
4.2,0.5,0.5,2.25,1.75,4.75,2.25,0.0,1.75,0.75,0.75,2.25,0.5,1.5,-0.3,-1.98,1.58,348.25,2.5,8.3,0.25,0.5,0.5,1.25,0.0,0.5,0.0,1.0,0.25,0.0,0.0,0.5,0.5,1.83,1.45,0.08,141.82,-5.6,7.1
4.22,0.75,0.5,2.25,1.75,4.5,1.75,0.0,1.75,0.75,0.75,2.0,0.5,1.5,-1.36,-1.05,2.39,284.17,3.5,9.1,0.75,1.0,0.0,2.25,0.0,1.25,0.0,1.0,0.5,0.0,0.0,0.5,0.75,1.33,-0.8,0.33,132.17,-4.2,18.6
4.24,0.0,0.25,1.75,0.0,4.25,0.75,0.0,0.0,0.25,0.0,0.5,0.0,0.25,0.02,-0.48,1.89,198.51,5.1,40.1,0.5,0.75,1.0,2.25,0.0,1.5,0.25,1.0,0.5,0.5,0.0,0.5,1.0,2.02,-0.17,0.2,129.19,-5.0,11.3
4.26,0.0,0.0,0.0,0.0,0.0,0.75,0.0,0.25,0.25,0.0,0.5,0.0,0.25,0.58,0.33,2.02,87.99,-8.0,-30.7,0.25,0.75,1.75,0.75,0.0,0.25,0.5,1.0,0.75,1.0,0.0,0.5,0.75,2.27,1.08,3.2,125.86,-9.0,-1.5
4.28,0.0,0.25,0.0,0.0,0.0,1.0,0.0,1.25,0.25,0.0,0.5,0.0,0.25,1.02,0.2,2.2,3.24,-10.0,-18.9,0.5,0.75,2.0,0.0,0.0,0.75,0.75,1.0,0.5,1.0,0.0,0.5,1.0,1.77,1.33,2.14,124.74,-7.6,-2.2
4.3,0.0,0.25,0.0,0.25,0.0,1.0,0.0,1.25,0.0,0.0,1.0,0.0,0.25,1.58,0.39,2.95,0.0,-7.0,-19.5,0.0,0.75,2.25,0.0,0.0,2.0,0.0,0.0,0.5,1.0,0.0,0.5,0.75,2.52,1.7,1.39,118.66,-5.0,6.2
4.32,0.0,0.0,0.0,0.0,0.0,0.75,0.0,1.5,0.25,0.0,0.5,0.0,0.25,5.95,-0.8,4.2,0.0,-11.4,-33.9,0.5,0.0,2.25,1.25,0.0,0.5,0.5,0.5,0.5,1.0,0.0,0.0,0.75,2.33,1.2,2.77,110.35,-12.6,11.4
4.34,0.0,0.25,0.0,0.0,0.0,1.0,0.0,0.5,0.0,0.0,0.5,0.0,0.25,1.02,-0.17,2.83,0.0,-10.2,-10.8,0.75,0.75,2.0,2.0,0.0,1.0,0.75,1.0,0.5,0.75,0.0,0.5,1.0,-3.42,-6.55,7.77,124.0,-9.9,14.1
4.36,0.0,0.25,0.0,0.0,0.0,1.0,0.0,0.25,0.0,0.0,0.5,0.0,0.25,0.52,0.08,1.08,0.0,-9.5,-7.6,0.5,0.25,2.25,2.0,0.0,1.75,0.75,1.0,0.5,0.25,0.25,0.25,0.75,2.83,-0.48,-2.05,138.06,-9.6,18.9
4.38,0.0,0.25,0.0,0.0,0.0,1.0,0.0,0.5,0.0,0.0,0.25,0.0,0.25,1.2,-0.42,0.83,0.0,-12.5,-3.7,0.5,0.75,1.75,2.25,0.0,2.0,0.75,1.0,0.5,1.25,0.0,0.5,0.75,1.7,1.64,1.64,158.51,-5.7,12.9
4.4,0.0,0.25,0.0,0.0,0.0,0.75,0.0,0.25,0.0,0.0,0.5,0.0,0.25,0.95,-0.98,0.14,0.0,-7.8,-12.7,0.25,0.75,1.75,2.25,0.0,2.0,0.0,1.0,0.5,0.5,0.25,0.5,0.75,0.08,0.52,-0.42,167.29,-5.8,14.8
4.42,0.0,0.25,0.0,0.0,0.0,1.75,0.0,1.0,0.75,0.25,0.25,0.0,0.25,-0.67,-1.23,0.89,0.0,-10.7,-11.5,0.5,0.5,2.25,2.25,0.0,1.75,0.5,1.0,0.5,0.75,0.0,0.5,0.75,-2.42,-0.61,-0.92,173.35,-8.4,16.5
4.44,0.0,0.25,0.0,0.0,0.0,0.75,0.0,0.75,0.0,0.0,0.5,0.0,0.25,-1.48,-1.17,1.08,9.63,-9.7,-18.0,0.0,0.0,2.0,0.0,0.0,0.0,0.0,1.0,0.0,0.0,0.0,0.0,0.75,-1.48,-0.61,1.52,139.79,-13.4,0.5
4.46,0.0,0.0,0.0,0.0,0.0,0.5,0.0,1.0,0.25,0.0,0.5,0.0,0.25,-0.86,-0.98,1.45,23.76,-9.3,-39.4,0.0,0.0,0.75,0.0,0.0,0.25,0.0,0.0,0.0,0.0,0.0,0.0,0.0,0.45,-0.98,2.08,90.49,-23.9,54.7
4.48,0.0,0.25,0.0,0.0,0.0,1.0,0.0,1.0,0.0,0.0,0.25,0.0,0.25,0.58,-0.86,1.52,36.3,-13.3,-10.2,0.0,0.0,0.75,0.0,0.0,0.25,0.0,0.0,0.0,0.5,0.0,0.0,0.0,1.58,-1.17,1.14,45.3,-10.8,11.5
4.5,0.0,0.25,0.0,0.0,0.0,1.0,0.0,0.75,0.0,0.0,0.5,0.0,1.25,1.33,-1.05,1.52,47.59,-11.6,-40.1,0.0,0.0,0.75,0.0,0.0,0.0,0.0,0.0,0.0,0.0,0.0,0.0,0.0,2.39,-0.61,-0.48,14.42,-38.2,60.9
4.52,0.0,0.25,0.0,0.0,0.0,0.75,0.0,0.5,0.0,0.0,0.5,0.0,0.25,0.83,-0.86,1.33,42.46,-8.9,-15.6,0.0,0.0,0.75,0.0,0.0,0.0,0.0,0.0,0.0,0.0,0.0,0.0,0.0,2.14,-0.17,-0.05,0.0,-38.2,60.9
4.54,0.0,0.25,0.0,0.0,0.0,0.5,0.0,0.75,0.25,0.75,0.5,0.5,0.25,-0.05,-0.86,0.83,49.4,-6.1,-46.5,0.0,0.0,0.75,0.25,0.0,0.0,0.0,0.0,0.0,0.0,0.0,0.0,0.0,1.39,-0.8,1.2,0.0,-32.9,60.2
4.56,0.0,0.25,1.75,0.0,0.75,1.75,0.0,1.25,0.0,0.0,0.5,0.0,0.25,-0.11,-0.55,0.77,70.47,1.8,19.0,0.0,0.0,0.75,0.0,0.0,0.0,0.0,0.0,0.0,0.0,0.0,0.0,0.0,1.52,-0.73,1.02,0.0,-38.2,60.9
4.58,0.0,0.25,0.0,0.0,0.0,1.5,0.0,1.0,0.0,0.0,0.5,0.0,0.25,-0.11,-0.55,0.39,72.43,-12.9,-8.7,0.0,0.0,0.75,0.75,0.0,0.0,0.0,0.0,0.0,0.0,0.0,0.0,0.0,0.95,-0.61,1.02,0.0,-27.6,59.4
4.6,0.0,0.25,0.0,0.0,0.0,0.75,0.0,1.0,0.0,0.0,0.5,0.0,0.25,-0.3,-0.55,0.08,67.21,-10.3,-19.9,0.0,0.0,0.75,0.0,0.0,0.0,0.0,0.0,0.0,0.0,0.0,0.0,0.0,0.08,-0.8,0.7,0.0,-38.2,60.9
4.62,0.0,0.5,2.0,0.0,1.25,1.75,0.0,1.0,0.75,0.5,1.0,0.5,0.25,-0.42,-0.55,-0.17,93.47,3.9,5.1,0.0,0.0,0.75,0.25,0.0,0.0,0.0,0.0,0.0,0.0,0.0,0.0,0.0,-0.17,-0.42,-0.17,0.0,-32.9,60.2
4.64,0.0,0.25,2.0,0.0,1.75,2.0,0.0,1.75,0.75,0.5,2.0,0.0,1.25,-0.36,-0.55,-0.36,131.41,0.5,-7.8,0.0,0.0,0.75,0.0,0.0,0.0,0.0,0.0,0.0,0.0,0.0,0.0,0.0,-0.67,-0.23,-0.11,0.0,-38.2,60.9
4.66,0.0,0.5,2.0,0.25,0.75,2.25,0.0,1.75,0.75,0.5,2.0,0.5,1.25,-0.11,-0.61,-0.23,165.34,1.4,-13.2,0.0,0.0,0.75,0.25,0.0,0.0,0.0,0.0,0.0,0.0,0.0,0.0,0.0,-1.05,-0.61,0.33,4.73,-32.9,60.2
4.68,0.0,0.5,2.25,0.0,0.75,1.75,0.0,1.75,0.5,0.75,2.0,0.5,1.25,0.14,-0.55,-0.23,187.24,2.2,-15.8,0.0,0.0,0.75,0.25,0.0,0.0,0.0,0.0,0.0,0.0,0.0,0.0,0.0,-0.42,-0.61,-0.3,14.07,-32.9,60.2
4.7,0.0,0.5,2.25,0.0,0.75,2.5,0.0,1.75,0.75,0.75,2.0,0.0,1.5,0.27,-0.36,-0.23,199.48,0.4,-11.7,0.0,0.0,0.75,0.0,0.0,0.0,0.0,0.0,0.0,0.0,0.0,0.0,0.0,-0.05,-0.42,-0.36,16.13,-38.2,60.9
4.72,0.0,0.5,2.25,0.0,1.25,1.0,0.0,1.75,0.5,0.5,1.75,0.5,1.25,0.27,-0.23,-0.3,195.9,3.7,-12.8,0.0,0.0,0.75,0.0,0.0,0.0,0.0,0.0,0.0,0.0,0.0,0.0,0.0,0.08,-0.23,-0.36,15.06,-38.2,60.9
4.74,0.0,0.5,2.0,0.25,1.25,2.0,0.0,1.75,0.5,0.5,1.75,0.5,1.25,0.2,-0.05,-0.36,195.94,1.2,-9.2,0.0,0.0,0.75,0.0,0.0,0.0,0.0,0.0,0.0,0.0,0.0,0.0,0.0,0.2,-0.23,-0.36,14.36,-38.2,60.9
4.76,0.0,0.5,2.25,0.0,0.75,1.75,0.0,1.75,0.5,0.5,2.0,0.0,1.25,0.2,0.02,-0.55,191.38,2.3,-10.3,0.0,0.0,0.25,0.5,0.0,0.25,0.0,0.0,0.0,0.0,0.0,0.0,0.0,0.39,-0.17,-0.8,14.93,-13.2,53.1
4.78,0.0,0.5,2.25,0.0,0.75,2.0,0.0,1.75,0.75,0.5,1.75,0.5,1.25,0.2,0.08,-0.61,189.05,2.1,-12.8,0.0,0.0,0.75,0.0,0.0,0.0,0.0,0.0,0.0,0.0,0.0,0.0,0.0,0.45,-0.11,-0.86,14.2,-38.2,60.9
4.8,0.0,0.5,2.0,0.0,0.75,1.75,0.0,1.75,0.5,0.25,1.75,0.5,1.25,0.33,0.14,-0.67,180.88,2.0,-13.5,0.0,0.0,0.75,0.0,0.0,0.0,0.0,0.0,0.0,0.0,0.0,0.0,0.0,0.2,0.02,-0.73,14.19,-38.2,60.9
4.82,0.0,0.5,2.25,0.0,1.25,2.0,0.0,1.75,0.5,0.25,2.0,0.0,1.0,0.58,0.27,-0.67,180.15,2.2,-2.6,0.0,0.0,0.75,0.0,0.0,0.0,0.0,0.0,0.0,0.0,0.0,0.0,0.0,0.14,0.08,-0.67,13.29,-38.2,60.9
4.84,0.0,0.5,2.0,0.0,0.75,2.0,0.25,1.75,0.75,0.0,1.75,0.5,1.25,0.52,0.2,-0.73,172.92,2.4,-11.3,0.0,0.0,0.25,0.0,0.0,0.0,0.0,0.0,0.0,0.0,0.0,0.0,0.0,-0.23,-0.05,-0.55,10.43,-38.2,60.9
4.86,0.0,0.5,2.25,0.25,0.75,1.0,0.25,1.75,0.5,0.0,2.0,0.25,1.0,0.39,0.14,-0.67,161.85,6.1,-8.0,0.0,0.0,0.75,0.0,0.0,0.0,0.0,0.0,0.0,0.0,0.0,0.0,0.0,-0.36,0.27,-0.55,10.21,-38.2,60.9
4.88,0.0,0.5,2.25,0.0,0.75,1.75,0.25,1.75,0.5,0.5,2.0,0.5,1.25,0.27,-0.05,-0.73,161.57,2.9,-14.1,0.0,0.0,0.75,0.0,0.0,0.25,0.0,0.0,0.0,0.0,0.0,0.0,0.0,-0.48,0.33,-0.55,12.03,-23.9,54.7
4.9,0.0,0.5,2.25,0.0,0.75,2.0,0.5,1.75,0.75,0.75,2.0,0.5,1.25,0.27,-0.11,-0.8,167.81,2.5,-14.5,0.0,0.0,0.75,0.0,0.0,0.0,0.0,0.0,0.0,0.0,0.0,0.0,0.0,-0.36,0.33,-0.61,13.21,-38.2,60.9
4.92,0.0,0.5,2.25,0.25,0.75,1.5,0.5,1.75,0.25,0.25,2.0,0.5,1.25,0.2,-0.11,-0.8,169.8,4.2,-11.1,0.0,0.0,0.75,0.0,0.0,0.0,0.0,0.0,0.0,0.0,0.0,0.0,0.0,-0.36,0.33,-0.67,13.94,-38.2,60.9
4.94,0.0,0.5,2.25,0.0,0.75,1.25,0.5,1.75,0.75,0.0,1.75,0.5,1.5,0.14,-0.17,-0.86,168.68,4.7,-14.3,0.0,0.0,0.75,0.5,0.0,0.0,0.0,0.0,0.0,0.0,0.0,0.0,0.0,-0.23,0.27,-0.92,17.49,-29.7,59.7
4.96,0.0,0.5,2.25,0.0,0.75,2.0,0.5,1.75,0.75,0.25,1.75,0.5,1.5,0.14,-0.17,-0.86,171.34,2.7,-12.8,0.0,0.0,0.75,0.5,0.0,0.0,0.0,0.0,0.0,0.0,0.0,0.0,0.0,-0.23,0.2,-0.98,20.13,-29.7,59.7
4.98,0.0,0.5,2.25,0.0,0.75,2.0,0.5,1.75,0.75,0.5,2.0,0.5,1.25,0.14,-0.17,-0.86,173.67,2.9,-13.2,0.0,0.0,0.5,0.0,0.0,0.25,0.0,0.0,0.0,0.0,0.0,0.0,0.0,-0.23,0.08,-1.11,19.14,-19.0,52.5
5.0,0.0,0.5,2.25,0.0,0.5,1.75,0.5,1.75,0.5,0.5,2.0,0.5,1.0,0.14,-0.23,-0.92,172.85,3.7,-13.2,0.0,0.0,0.75,0.0,0.0,0.0,0.0,0.0,0.0,0.0,0.0,0.0,0.0,-0.23,-0.05,-1.11,17.69,-38.2,60.9
5.02,0.0,0.25,2.0,0.0,0.75,2.0,0.5,1.75,0.5,0.5,2.0,0.25,1.0,0.2,-0.36,-0.92,170.13,1.9,-12.6,0.0,0.0,0.75,0.0,0.0,0.25,0.0,0.0,0.0,0.0,0.0,0.0,0.0,-0.3,-0.11,-1.11,17.37,-23.9,54.7
5.04,0.0,0.5,2.25,0.0,0.75,1.75,0.5,1.75,0.5,0.5,1.75,0.5,1.25,0.2,-0.48,-0.92,169.53,3.0,-12.4,0.0,0.0,0.75,0.25,0.0,0.5,0.0,0.0,0.0,0.0,0.0,0.0,0.0,-0.3,-0.23,-1.05,20.38,-15.4,52.0
5.06,0.0,0.5,2.25,0.0,0.75,1.25,0.5,1.75,0.5,0.5,1.75,0.25,1.25,0.2,-0.61,-0.92,165.33,4.0,-12.2,0.0,0.0,0.75,0.0,0.0,0.0,0.0,0.0,0.0,0.0,0.0,0.0,0.0,-0.36,-0.36,-0.98,19.37,-38.2,60.9
5.08,0.0,0.5,2.0,0.0,0.75,2.0,0.5,1.75,0.5,0.25,2.0,0.5,1.25,0.14,-0.67,-0.86,166.19,2.3,-13.0,0.0,0.0,0.75,0.0,0.0,0.0,0.0,0.0,0.0,0.0,0.0,0.0,0.0,-0.3,-0.42,-0.92,18.55,-38.2,60.9
5.1,0.0,0.5,2.25,0.0,0.75,1.75,0.5,1.75,0.5,0.75,1.75,0.75,1.25,0.08,-0.73,-0.73,169.11,2.7,-15.6,0.0,0.0,0.75,0.0,0.0,0.0,0.0,0.0,0.0,0.0,0.0,0.0,0.0,-0.23,-0.55,-0.86,15.59,-38.2,60.9
5.12,0.0,0.5,2.0,0.0,0.75,1.75,0.5,1.75,0.75,0.25,1.75,0.25,1.0,0.08,-0.73,-0.67,166.62,3.1,-8.8,0.0,0.0,0.75,0.25,0.0,0.0,0.0,0.0,0.0,0.0,0.0,0.0,0.0,-0.17,-0.67,-0.8,15.64,-32.9,60.2
5.14,0.0,0.5,2.25,0.0,0.75,1.5,0.5,1.75,0.5,0.5,2.0,0.25,1.25,0.02,-0.73,-0.67,166.16,3.6,-12.6,0.5,0.75,1.75,2.25,0.0,2.0,0.75,0.75,0.25,0.25,0.25,0.0,0.75,-0.11,-0.73,-0.8,66.66,-8.3,28.4
5.16,0.0,0.5,2.0,0.0,2.5,2.0,0.5,1.75,0.75,0.25,1.75,0.5,1.0,-0.05,-0.8,-0.61,176.08,1.8,-0.6,0.5,0.75,1.75,0.5,0.0,0.5,0.75,0.75,0.0,0.0,0.0,0.0,0.75,-0.11,-0.73,-0.73,90.78,-13.8,29.4
5.18,0.0,0.5,2.25,0.0,0.5,1.75,0.5,1.75,0.5,0.25,2.0,0.5,1.25,-0.17,-0.86,-0.61,174.96,3.7,-14.0,0.5,0.75,0.75,2.25,0.0,1.75,0.0,0.0,0.25,0.0,0.0,0.5,0.75,-0.17,-0.8,-0.61,120.02,-7.3,28.2
5.2,0.0,0.5,2.0,0.0,0.75,1.5,0.5,1.75,0.25,0.0,1.75,0.5,1.25,-0.17,-0.86,-0.42,169.26,3.4,-11.6,0.0,0.0,1.75,0.25,0.0,0.0,0.75,0.75,0.0,0.0,0.0,0.0,0.75,-0.23,-0.8,-0.36,110.74,-15.7,5.3
5.22,0.0,0.5,2.0,0.0,0.75,1.75,0.5,1.75,0.5,0.5,1.75,0.0,1.25,-0.17,-0.86,-0.3,164.2,1.9,-9.7,0.0,0.0,0.75,0.0,0.0,0.0,0.0,0.0,0.0,0.0,0.0,0.0,0.0,-0.17,-0.8,-0.23,85.04,-38.2,60.9
5.24,0.0,0.5,2.25,0.0,0.5,1.75,0.5,1.75,0.5,0.75,1.75,0.5,1.0,-0.17,-0.86,-0.17,163.1,3.1,-13.2,0.5,0.75,0.75,2.0,0.0,2.0,0.75,0.75,0.25,0.75,0.0,0.5,0.75,-0.17,-0.8,-0.17,96.7,-3.4,13.8
5.26,0.0,0.5,2.25,0.0,0.5,2.0,0.5,1.75,0.5,0.5,1.75,0.5,1.25,-0.17,-0.86,-0.11,163.68,2.6,-13.1,0.0,0.0,1.75,0.5,0.0,0.5,0.0,0.0,0.25,1.0,0.0,0.5,0.0,-0.11,-0.8,-0.23,91.93,-12.9,3.6
5.28,0.0,0.5,2.25,0.0,1.75,2.0,0.5,1.75,0.25,0.5,1.75,0.5,1.25,-0.17,-0.8,-0.17,172.3,1.8,-5.2,0.0,0.0,0.75,0.0,0.0,0.0,0.0,0.0,0.0,0.0,0.0,0.0,0.0,-0.17,-0.8,-0.17,76.05,-38.2,60.9
5.3,0.0,0.5,2.0,0.0,0.75,1.5,0.5,1.75,0.5,0.5,1.75,1.0,1.0,-0.17,-0.8,-0.17,173.01,3.4,-17.0,0.0,0.0,0.75,0.0,0.0,0.0,0.0,0.0,0.0,0.0,0.0,0.0,0.0,-0.11,-0.8,0.08,48.92,-38.2,60.9
5.32,0.0,0.5,2.0,0.0,0.75,2.0,0.5,1.75,0.5,0.25,1.75,0.25,1.0,-0.17,-0.8,-0.05,169.78,2.3,-7.2,0.0,0.0,0.75,0.25,0.0,0.0,0.0,0.0,0.0,0.0,0.0,0.0,0.0,-0.11,-0.8,0.02,28.3,-32.9,60.2
5.34,0.0,0.5,2.0,0.0,0.75,1.75,0.5,1.75,0.5,0.25,1.75,0.5,0.75,-0.17,-0.8,0.02,163.58,3.4,-8.0,0.0,0.0,0.75,0.0,0.0,0.0,0.0,0.0,0.0,0.0,0.0,0.0,0.0,-0.11,-0.86,0.14,8.54,-38.2,60.9
5.36,0.0,0.5,1.75,0.0,0.0,1.75,0.5,1.75,0.75,0.25,1.75,0.75,1.0,-0.23,-0.86,0.08,157.14,3.0,-20.5,0.5,0.0,2.0,0.0,0.0,0.0,0.75,0.75,0.0,0.0,0.0,0.0,0.75,-0.11,-0.86,0.08,20.01,-18.9,15.2
5.38,0.0,0.5,2.25,0.0,0.75,1.75,0.25,1.75,0.5,0.25,1.75,0.5,1.25,-0.17,-0.86,0.14,156.35,3.1,-11.4,0.5,0.75,2.0,2.0,0.0,1.75,0.75,0.75,0.0,0.25,0.0,0.5,0.75,-0.05,-0.8,0.08,64.63,-9.5,25.6
5.4,0.0,0.5,2.25,0.0,0.5,1.75,0.5,1.75,0.25,0.25,1.75,0.5,1.25,-0.17,-0.92,0.08,156.17,3.4,-12.1,0.0,0.0,1.75,0.0,0.0,0.0,0.75,0.75,0.0,0.0,0.0,0.0,0.75,-0.11,-0.86,0.14,78.05,-15.6,1.5
5.42,0.0,0.5,1.75,0.0,1.75,1.75,0.5,1.75,0.25,0.25,2.0,0.5,1.25,-0.23,-0.98,0.08,165.13,1.3,-8.7,0.5,0.75,2.0,2.25,0.0,2.0,0.75,0.5,0.25,0.5,0.0,0.5,0.75,-0.17,-0.92,0.08,117.0,-9.0,24.2
5.44,0.0,0.5,2.25,0.0,0.75,2.0,0.5,1.75,0.25,0.5,1.75,0.5,1.25,-0.17,-0.98,0.14,168.1,2.3,-10.9,0.5,0.75,0.75,2.25,0.0,1.5,0.0,0.0,0.0,0.75,0.0,0.0,0.5,-0.17,-0.92,0.14,125.37,-6.3,34.1
5.46,0.0,0.5,2.25,0.0,0.75,1.75,0.5,1.75,0.25,0.25,1.75,0.5,1.0,-0.23,-1.05,0.08,167.35,3.6,-8.1,0.5,0.75,0.75,2.0,0.0,0.0,0.0,0.0,0.0,0.0,0.0,0.0,0.0,-0.17,-0.92,0.08,119.24,-22.3,70.7
5.48,0.0,0.5,2.25,0.0,0.75,2.0,0.25,1.75,0.25,0.25,1.75,0.5,1.0,-0.23,-1.11,0.08,164.85,2.8,-7.6,0.5,0.75,0.75,2.25,0.0,2.0,0.0,0.0,0.25,0.0,0.0,0.0,0.75,-0.11,-0.98,0.08,113.81,-6.2,37.9
5.5,0.0,0.5,2.0,0.0,1.75,1.5,0.5,1.75,0.5,0.25,2.0,0.75,1.5,-0.23,-1.11,0.14,170.68,2.5,-12.6,0.0,0.0,0.75,1.25,0.0,1.75,0.0,0.0,0.25,0.25,0.0,0.5,0.0,-0.11,-0.98,0.2,109.23,-3.7,20.3
5.52,0.0,0.5,2.25,0.0,0.75,1.75,0.5,1.75,0.25,1.5,1.75,0.5,1.0,-0.23,-1.11,0.14,173.71,1.7,-15.0,0.0,0.0,2.25,0.0,0.0,0.0,0.75,0.5,0.0,0.0,0.0,0.0,0.75,-0.11,-0.98,0.2,97.4,-20.6,11.8
5.54,0.0,0.5,2.25,0.0,0.75,1.5,0.5,1.75,0.25,0.25,1.75,0.5,1.0,-0.17,-1.05,0.14,172.27,4.2,-9.0,0.0,0.0,0.75,0.0,0.0,0.0,0.0,0.0,0.0,0.0,0.0,0.0,0.0,-0.11,-0.98,0.27,64.53,-38.2,60.9
5.56,0.0,0.5,2.0,0.0,0.75,2.0,0.5,1.75,0.25,0.25,1.75,0.5,1.0,-0.23,-1.05,0.2,168.59,2.2,-8.8,0.5,0.75,1.75,2.25,0.0,2.0,0.75,0.25,0.25,0.0,0.0,0.5,0.75,-0.11,-1.05,0.2,86.83,-10.2,30.1
5.58,0.0,0.5,1.75,0.0,2.5,1.5,0.5,1.75,0.25,0.5,1.75,0.5,1.25,-0.3,-1.05,0.2,172.79,0.9,-5.3,0.5,0.75,1.5,2.25,0.0,0.25,0.5,0.25,0.0,0.0,0.0,0.0,0.75,-0.11,-1.05,0.27,91.59,-17.0,41.1
5.6,0.0,0.5,2.25,0.0,0.75,1.75,0.5,1.75,0.25,0.25,1.75,0.25,1.0,-0.3,-1.11,0.2,168.5,3.5,-5.8,0.0,0.0,0.75,0.0,0.0,0.0,0.0,0.0,0.0,0.0,0.0,0.0,0.0,-0.11,-0.98,0.45,72.12,-38.2,60.9
5.62,0.0,0.5,1.75,0.0,0.75,1.75,0.5,1.75,0.0,0.25,1.5,0.5,1.25,-0.3,-1.11,0.27,162.59,1.1,-11.8,0.5,0.75,0.75,2.25,0.0,2.75,0.0,0.0,0.0,0.75,0.0,0.5,0.0,-0.11,-0.92,0.52,84.8,-3.5,34.4
5.64,0.0,0.5,2.25,0.0,0.5,1.25,0.5,1.5,0.0,0.5,1.75,0.5,1.0,-0.36,-1.17,0.39,154.65,4.9,-12.0,0.5,0.5,1.75,2.25,0.0,1.25,0.5,0.25,0.0,0.0,0.0,0.0,0.75,0.08,-1.05,0.39,98.04,-12.9,38.9
5.66,0.0,0.5,2.25,0.0,0.75,1.75,0.5,1.75,0.0,0.5,1.75,0.25,1.0,-0.42,-1.23,0.45,152.06,2.9,-6.6,0.5,0.5,0.75,2.25,0.0,2.0,0.0,0.0,0.0,0.0,0.0,0.5,0.0,0.08,-1.17,0.39,104.41,-8.3,44.6
5.68,0.0,0.5,2.25,0.0,0.75,1.25,0.5,1.75,0.0,0.25,1.75,0.5,1.0,-0.36,-1.3,0.45,149.29,4.6,-9.3,0.5,0.75,1.75,2.25,0.0,1.75,0.75,0.0,0.0,0.0,0.0,0.5,0.75,-0.05,-1.3,0.52,122.3,-11.9,34.0
5.7,0.0,0.5,1.25,0.0,0.0,1.75,0.5,1.75,0.0,0.5,1.75,0.5,1.0,-0.3,-1.3,0.45,143.08,-0.3,-22.7,0.5,0.75,1.75,2.25,0.0,2.0,0.5,0.25,0.0,0.25,0.0,0.25,0.75,-0.05,-1.3,0.64,139.34,-9.2,33.0
5.72,0.0,0.5,2.0,0.0,0.75,1.75,0.5,1.5,0.25,0.25,1.75,0.25,1.25,-0.3,-1.23,0.39,143.57,2.7,-9.2,0.5,0.75,2.25,2.25,0.0,2.0,0.5,0.0,0.0,0.25,0.0,0.5,0.75,0.02,-1.3,0.52,148.31,-11.4,32.7
5.74,0.0,0.5,2.25,0.0,0.75,1.75,0.5,1.75,0.0,0.5,1.75,0.5,1.0,-0.3,-1.17,0.33,146.43,3.0,-9.0,0.25,0.75,1.75,2.25,0.0,1.5,0.5,0.0,0.0,0.5,0.0,0.75,0.75,0.08,-1.11,0.45,152.87,-10.2,22.1
5.76,0.0,0.5,1.75,0.0,2.25,1.75,0.5,1.75,0.0,0.5,1.75,0.0,1.0,-0.3,-1.11,0.45,157.17,0.3,1.4,0.5,0.75,1.75,2.25,0.0,2.0,0.5,0.0,0.0,0.75,0.0,0.5,0.75,0.02,-0.98,0.52,158.43,-8.6,25.5
5.78,0.0,0.5,2.25,0.0,1.25,1.75,0.25,1.5,0.0,0.25,1.75,0.0,1.25,-0.23,-1.05,0.39,160.89,2.6,-1.5,0.5,0.75,1.5,1.5,0.0,2.25,0.5,0.0,0.0,0.75,0.0,0.5,0.75,-0.17,-0.92,0.58,153.86,-6.1,21.7
5.8,0.0,0.5,1.75,0.0,0.5,1.0,0.5,1.75,0.0,0.25,1.5,0.5,1.25,-0.23,-1.05,0.39,154.57,3.1,-17.3,0.5,0.75,1.75,2.25,0.0,2.0,0.5,0.0,0.0,1.0,0.0,0.0,0.75,-0.11,-0.86,0.45,150.1,-7.9,30.0
5.82,0.0,0.25,1.0,0.0,1.25,1.5,0.25,1.75,0.0,0.0,1.75,0.5,1.0,-0.3,-1.05,0.45,144.99,-1.2,-15.8,0.5,0.75,1.75,2.25,0.0,1.75,0.5,0.0,0.25,0.5,0.0,0.5,0.75,-0.05,-0.86,0.33,152.78,-10.1,26.3
5.84,0.0,0.5,2.25,0.0,0.75,1.75,0.0,1.5,0.0,0.5,1.75,0.5,1.0,-0.3,-1.05,0.39,145.31,2.8,-9.1,0.5,0.5,1.5,2.25,0.0,1.5,0.5,0.0,0.0,1.5,0.0,0.0,0.75,-0.05,-0.92,0.39,151.56,-7.2,20.8
5.86,0.0,0.5,1.75,0.0,0.75,1.5,0.5,1.75,0.0,0.25,1.75,0.5,1.0,-0.3,-1.05,0.33,144.96,2.3,-11.9,0.5,0.75,0.75,2.25,0.0,2.0,0.0,0.0,0.0,0.75,0.0,0.25,0.0,-0.11,-0.92,0.58,136.28,-5.9,39.4
5.88,0.0,0.5,2.25,0.0,0.5,1.5,0.5,1.5,0.0,0.5,1.75,0.5,1.25,-0.3,-0.98,0.33,148.62,3.8,-13.4,0.5,0.5,1.25,2.25,0.0,2.0,0.5,0.0,0.0,0.0,0.0,0.25,0.75,-0.11,-0.92,0.52,130.34,-8.8,34.7
5.9,0.0,0.5,2.25,0.0,0.5,1.5,0.5,1.5,0.0,0.25,1.75,0.5,1.0,-0.3,-0.98,0.33,148.76,4.7,-9.4,0.5,0.75,1.25,2.25,0.0,2.0,0.5,0.0,0.0,0.75,0.0,0.5,0.75,-0.05,-0.92,0.52,130.34,-6.9,23.4
5.92,0.0,0.5,2.0,0.0,1.25,1.75,0.5,1.5,0.0,0.25,1.75,0.5,1.25,-0.3,-0.98,0.39,154.31,2.3,-7.5,0.5,0.75,1.5,2.25,0.0,2.0,0.5,0.0,0.0,0.75,0.0,0.5,0.75,0.02,-0.92,0.45,133.27,-7.7,24.5
5.94,0.0,0.5,2.25,0.0,0.0,1.0,0.5,1.75,0.0,0.5,1.75,0.5,1.0,-0.3,-0.98,0.33,149.06,5.5,-17.9,0.5,0.75,1.5,2.25,0.0,2.0,0.5,0.0,0.0,0.75,0.0,0.25,0.75,0.02,-0.98,0.45,137.69,-7.7,28.2
5.96,0.0,0.5,1.75,0.0,0.75,1.5,0.5,1.75,0.0,0.25,1.75,0.5,1.0,-0.23,-0.98,0.27,147.18,2.3,-11.9,0.5,0.25,2.0,2.0,0.0,1.5,0.5,0.0,0.25,0.75,0.0,0.5,0.75,-0.05,-0.92,0.52,138.92,-10.7,19.0
5.98,0.0,0.5,0.75,0.0,0.0,1.75,0.5,1.5,0.0,0.25,1.75,0.5,1.0,-0.23,-0.98,0.27,134.99,-1.7,-25.9,0.5,0.5,1.75,2.25,0.0,2.0,0.5,0.0,0.0,0.0,0.0,0.75,0.75,0.02,-0.86,0.58,139.14,-10.5,28.1
6.0,0.0,0.5,2.25,0.0,0.75,1.75,0.5,1.5,0.0,0.5,1.75,0.5,1.0,-0.23,-0.92,0.27,140.25,3.5,-8.3,0.5,0.75,1.75,2.25,0.0,2.0,0.5,0.0,0.25,0.5,0.0,0.5,0.75,0.08,-0.8,0.64,141.38,-9.3,26.4
6.02,0.0,0.5,1.5,0.0,0.75,1.75,0.5,1.75,0.0,0.5,1.75,0.5,0.75,-0.23,-0.86,0.2,141.7,0.7,-11.8,0.5,0.5,1.5,2.0,0.0,2.0,0.5,0.0,0.0,0.5,0.0,0.5,0.75,0.14,-0.67,0.58,139.9,-8.0,24.1
6.04,0.0,0.5,1.75,0.0,0.5,2.0,0.5,1.5,0.0,0.25,1.75,0.5,1.0,-0.23,-0.73,0.27,146.83,1.7,-10.9,0.0,0.0,0.75,0.0,0.0,0.25,0.0,0.0,0.0,1.5,0.0,0.75,0.0,0.27,-0.61,0.45,110.71,-2.2,-43.0
6.06,0.0,0.5,2.0,0.0,0.0,1.75,0.25,1.5,0.0,0.5,1.75,0.5,1.0,-0.23,-0.8,0.39,144.02,2.8,-16.2,0.5,0.75,1.75,2.25,0.0,2.0,0.5,0.0,0.0,0.5,0.0,0.5,0.75,0.33,-0.61,0.39,114.83,-9.2,28.2
6.08,0.0,0.5,2.0,0.0,0.5,1.75,0.5,1.75,0.0,0.25,1.75,0.5,1.0,-0.3,-0.86,0.45,145.44,2.7,-10.9,0.5,0.5,1.5,2.25,0.0,1.5,0.5,0.0,0.0,0.0,0.0,0.5,0.75,0.33,-0.61,0.39,112.38,-11.7,31.0
6.1,0.0,0.25,1.0,0.0,1.25,1.5,0.5,1.5,0.0,0.25,1.5,0.5,1.0,-0.36,-0.92,0.45,140.68,-1.0,-14.6,0.0,0.0,1.25,0.0,0.0,0.0,0.5,0.0,0.0,0.25,0.0,0.5,0.75,0.33,-0.55,0.45,93.39,-15.4,-24.0
6.12,0.0,0.5,2.25,0.0,0.75,1.5,0.25,1.5,0.0,0.5,1.5,0.5,1.0,-0.42,-0.86,0.39,143.04,3.6,-8.1,0.0,0.0,1.75,0.0,0.0,0.0,0.5,0.0,0.0,0.0,0.0,0.0,0.75,0.27,-0.48,0.7,67.7,-23.5,11.2
6.14,0.0,0.5,1.75,0.0,0.5,1.5,0.5,1.5,0.0,0.25,1.75,0.5,1.0,-0.42,-0.8,0.39,141.7,2.9,-13.2,0.0,0.0,0.75,0.0,0.0,0.0,0.0,0.0,0.0,0.0,0.0,0.0,0.0,0.33,-0.55,0.7,35.04,-38.2,60.9
6.16,0.0,0.5,2.5,0.0,1.25,1.5,0.25,1.5,0.0,0.25,1.5,0.5,1.0,-0.42,-0.67,0.39,148.46,4.5,-1.6,0.0,0.0,0.75,0.0,0.0,0.0,0.0,0.0,0.0,0.0,0.0,0.5,0.0,0.33,-0.55,0.7,11.99,-26.7,-5.9
6.18,0.0,0.5,2.0,0.0,0.5,1.75,0.5,1.5,0.0,0.25,1.75,0.5,1.0,-0.48,-0.73,0.39,149.77,3.2,-10.2,0.5,0.75,1.5,2.25,0.0,2.0,0.5,0.0,0.0,0.5,0.0,0.25,0.75,0.33,-0.55,0.58,42.8,-8.4,31.1
6.2,0.0,0.25,2.25,0.0,0.5,1.5,0.5,1.75,0.0,0.25,1.75,0.5,1.25,-0.48,-0.73,0.39,151.75,3.6,-15.3,0.5,0.75,1.75,1.75,0.0,2.25,0.5,0.0,0.0,0.75,0.0,0.5,0.75,0.39,-0.48,0.7,83.45,-7.3,23.8
6.22,0.0,0.5,2.0,0.0,0.5,1.25,0.25,1.5,0.0,0.25,1.5,0.5,1.0,-0.55,-0.67,0.45,146.51,4.0,-11.2,0.5,0.5,1.25,2.0,0.0,2.0,0.25,0.0,0.0,0.75,0.0,0.5,0.75,0.45,-0.48,0.83,114.4,-6.0,20.0
6.24,0.0,0.5,2.0,0.0,0.5,1.25,0.5,1.5,0.0,0.25,1.75,0.5,1.0,-0.55,-0.73,0.45,142.2,4.5,-12.3,0.5,1.25,1.5,2.25,0.0,0.0,0.5,0.0,0.0,0.0,0.0,0.0,0.75,0.52,-0.55,0.89,122.74,-19.4,48.8
6.26,0.0,0.5,2.25,0.0,1.25,1.5,0.0,1.5,0.0,0.25,2.5,0.5,0.5,-0.67,-0.8,0.39,146.81,4.8,-4.8,0.0,0.0,0.75,0.0,0.0,0.0,0.0,0.0,0.0,0.0,0.0,0.0,0.0,0.52,-0.61,0.89,92.76,-38.2,60.9
6.28,0.0,0.5,2.0,0.0,0.75,1.75,0.5,1.0,0.0,0.5,1.75,0.5,1.0,-0.67,-0.8,0.33,148.59,3.6,-8.5,0.5,0.75,0.5,2.25,0.0,2.0,0.75,0.0,0.0,0.0,0.0,0.5,0.75,0.39,-0.67,0.83,94.45,-6.3,29.4
6.3,0.0,0.5,1.0,0.0,0.75,1.75,0.5,1.5,0.0,0.25,1.75,0.5,1.25,-0.61,-0.73,0.33,147.31,-1.1,-18.6,0.5,0.75,2.5,2.25,0.0,1.75,0.5,0.0,0.0,0.5,0.0,0.5,0.75,0.2,-0.73,0.89,107.22,-12.3,30.6
6.32,0.0,0.5,2.0,0.0,0.5,1.25,0.25,1.0,0.0,0.5,1.5,0.5,0.5,-0.73,-0.67,0.45,139.2,5.7,-5.4,0.5,0.5,1.5,2.25,0.0,2.0,0.5,0.0,0.0,0.75,0.0,0.25,0.75,0.14,-0.73,1.02,133.14,-7.6,26.1
6.34,0.25,0.5,2.0,0.0,0.75,1.75,0.5,0.5,0.0,0.25,1.5,0.5,1.0,-0.8,-0.61,0.58,136.87,5.8,-0.7,0.5,0.0,1.5,0.0,0.0,0.0,0.5,0.0,0.0,0.0,0.0,0.0,0.75,0.14,-0.73,1.02,119.6,-24.0,20.3
6.36,0.0,0.5,1.5,0.0,0.75,1.5,0.5,0.5,0.0,0.0,1.75,0.5,1.0,-0.92,-0.42,0.52,128.86,4.6,-8.2,0.0,0.0,0.5,0.0,0.0,2.0,0.0,0.0,0.0,0.0,0.0,0.5,0.0,0.14,-0.61,1.02,96.08,6.5,14.1
6.38,0.0,0.5,2.25,0.0,0.5,1.25,0.5,0.75,0.0,0.0,1.75,0.5,1.25,-0.92,-0.42,0.39,129.18,7.3,-9.1,0.0,0.0,0.75,0.0,0.0,0.0,0.0,0.0,0.0,0.0,0.0,0.0,0.0,0.14,-0.48,0.95,53.94,-38.2,60.9
6.4,0.0,0.25,2.25,0.0,0.75,1.75,0.25,0.0,0.0,0.0,1.5,0.5,1.0,-0.98,-0.48,0.39,125.01,7.4,-0.5,0.5,0.75,1.0,2.0,0.0,1.5,1.0,0.0,0.0,0.0,0.0,0.5,0.75,0.08,-0.42,0.83,59.46,-10.4,30.3
6.42,0.0,0.5,2.25,0.0,0.75,1.25,0.5,0.0,0.0,0.0,1.25,0.5,0.0,-0.92,-0.55,0.52,118.54,13.2,20.4,0.5,0.75,1.75,2.25,0.0,1.75,0.25,0.0,0.0,1.0,0.0,0.25,0.75,0.08,-0.3,0.83,81.77,-8.4,26.1
6.44,0.0,1.0,2.0,0.0,0.75,1.5,0.5,0.75,0.0,0.25,2.0,0.5,0.5,-0.86,-0.61,0.58,123.19,6.9,2.4,0.5,0.75,1.75,2.25,0.0,2.0,0.5,0.0,0.0,0.75,0.0,0.5,0.75,0.08,-0.17,0.89,119.29,-8.6,25.5
6.46,0.5,0.5,2.25,0.0,0.5,1.0,0.5,0.5,0.0,0.0,1.75,0.5,1.0,-0.8,-0.55,0.7,125.54,10.9,-0.8,0.5,0.75,1.25,2.0,0.0,2.0,0.25,0.0,0.0,0.0,0.0,0.75,0.75,0.14,-0.17,0.95,135.23,-8.3,27.3
6.48,0.25,0.5,2.0,0.0,0.5,1.0,0.5,0.5,0.0,0.0,2.0,0.5,1.0,-0.67,-0.42,0.77,127.35,9.4,-7.5,0.25,0.75,1.75,2.25,0.0,2.0,0.25,0.0,0.0,0.25,0.0,0.25,0.75,0.14,-0.23,0.95,143.93,-8.9,33.4
6.5,0.0,0.75,2.0,0.0,0.75,1.5,0.5,0.75,0.0,0.5,1.75,0.5,1.0,-0.55,-0.23,0.64,132.69,5.0,-6.0,0.5,0.75,1.75,2.0,0.0,1.5,0.25,0.0,0.0,0.25,0.0,0.5,0.75,0.14,-0.3,0.77,141.97,-11.2,30.1
6.52,0.0,0.5,2.0,0.0,1.25,1.0,0.5,0.5,0.0,0.0,1.5,0.5,0.5,-0.61,-0.17,0.58,132.51,8.7,6.4,0.5,0.5,1.75,2.25,0.0,2.0,0.5,0.0,0.0,0.75,0.0,0.5,0.75,0.02,-0.42,0.7,140.36,-8.5,23.4
6.54,0.0,0.5,2.0,0.0,0.75,1.5,0.5,0.5,0.0,0.0,1.75,0.25,1.0,-0.8,-0.36,0.64,132.07,6.5,-1.1,0.5,0.5,1.5,2.25,0.0,2.0,0.5,0.0,0.0,0.5,0.0,0.25,0.75,-0.05,-0.61,0.83,142.53,-8.3,29.1
6.56,0.0,0.25,2.0,0.0,0.75,1.5,0.5,0.5,0.0,0.0,1.75,0.5,1.0,-1.11,-1.17,0.77,129.77,6.4,-7.3,0.5,0.75,1.75,2.0,0.0,2.0,0.25,0.0,0.0,0.5,0.0,0.0,0.75,0.02,-0.92,1.39,147.39,-8.7,35.4
6.58,0.0,0.5,1.75,0.0,0.5,1.5,0.5,0.5,0.0,0.0,1.75,0.5,1.0,-1.3,-1.23,0.58,127.6,5.9,-8.2,0.5,0.75,1.5,2.25,0.0,2.0,0.25,0.0,0.0,0.5,0.0,0.5,0.75,0.02,-0.73,1.45,150.96,-8.1,27.2
6.6,0.0,0.5,1.0,0.0,1.25,1.5,0.25,0.75,0.0,0.25,1.75,0.5,1.0,-0.92,-0.23,0.45,127.57,0.5,-11.5,0.5,0.75,1.5,2.25,0.0,2.0,0.25,0.0,0.0,0.75,0.0,0.25,0.75,0.02,-0.3,0.95,149.31,-7.4,28.2
6.62,0.0,0.5,1.75,0.0,1.25,1.75,0.0,0.75,0.0,0.25,1.75,0.5,0.75,-0.8,0.08,0.52,131.76,3.0,-2.1,0.5,0.5,1.75,2.0,0.0,2.0,0.25,0.0,0.0,0.25,0.0,0.75,0.75,-0.05,0.02,0.77,144.95,-9.3,24.2
6.64,0.0,0.5,1.75,0.0,0.5,1.5,0.0,0.5,0.0,0.0,1.0,0.5,0.75,-0.8,-0.23,0.58,125.56,5.2,1.1,0.5,0.75,1.25,2.25,0.0,2.0,0.25,0.0,0.0,0.25,0.0,0.5,0.75,-0.11,0.2,0.58,136.81,-7.9,29.3
6.66,0.0,0.5,0.0,0.0,0.0,1.0,0.0,0.25,0.0,0.0,0.5,0.0,1.0,-0.73,-0.55,0.64,98.46,-8.7,-23.6,0.5,0.5,0.0,2.0,0.0,0.0,0.0,0.0,0.0,0.0,0.0,0.0,0.75,0.02,-0.17,0.64,110.8,-12.5,34.6
6.68,0.0,0.25,0.0,0.0,0.0,0.0,0.0,0.0,0.0,0.0,0.25,0.0,0.25,-0.61,-0.36,0.58,57.22,3.0,-27.7,0.0,0.0,0.5,0.0,0.0,0.0,0.0,0.0,0.0,0.0,0.0,0.0,0.0,0.14,-1.17,1.52,68.94,-38.2,60.9
6.7,0.0,0.0,0.25,0.0,0.0,0.25,0.0,0.0,0.0,0.0,1.25,0.0,0.25,-0.55,-0.3,0.58,29.99,7.1,-48.9,0.0,0.0,0.75,0.0,0.0,0.0,0.0,0.0,0.0,0.0,0.0,0.25,0.0,0.08,0.08,1.14,32.16,-31.1,19.3
6.72,0.0,0.25,0.0,0.0,0.0,0.0,0.0,0.0,0.0,0.0,0.25,0.0,0.25,-0.55,-0.3,0.52,5.92,3.0,-27.7,0.0,0.0,0.5,0.0,0.0,0.0,0.0,0.0,0.0,0.0,0.0,0.5,0.5,0.2,-0.05,1.52,8.69,-11.1,-52.2
6.74,0.0,0.25,0.25,0.0,0.0,0.0,0.0,0.0,0.0,0.0,0.25,0.0,0.25,-0.67,-0.36,0.52,0.0,12.0,-5.2,0.0,0.0,0.75,0.0,0.0,0.0,0.0,0.0,0.0,0.0,0.0,0.75,0.5,0.27,0.02,1.52,1.93,-14.3,-44.9
6.76,0.0,0.25,0.0,0.0,0.0,0.0,0.0,0.0,0.0,0.0,0.5,0.0,0.0,-0.73,-0.3,0.52,0.0,11.4,-14.8,0.0,0.0,0.5,0.0,0.0,0.0,0.0,0.0,0.0,0.0,0.0,0.25,0.75,0.33,-0.05,1.08,0.56,-7.3,-52.6
6.78,0.0,0.0,0.0,0.0,0.0,0.0,0.0,0.0,0.0,0.0,0.5,0.0,0.0,-0.8,-0.3,0.52,0.0,10.7,-75.5,0.0,0.0,0.5,0.0,0.0,0.0,0.0,0.0,0.0,0.0,0.0,0.75,0.75,0.2,-0.23,0.45,6.16,-7.7,-66.6
6.8,0.0,0.25,0.0,0.0,0.0,0.0,0.0,0.0,0.0,0.0,0.0,0.0,0.25,-0.86,-0.17,0.58,0.0,-0.5,-5.3,0.0,0.0,0.5,0.0,0.0,0.0,0.0,0.0,0.0,0.0,0.0,0.5,0.75,-0.05,-0.23,0.39,7.01,-7.6,-60.5
6.82,0.0,0.25,0.0,0.0,0.0,0.0,0.0,0.0,0.0,0.0,0.5,0.0,0.0,-0.86,-0.23,0.52,0.0,11.4,-14.8,0.0,0.0,0.75,0.0,0.0,0.0,0.0,0.0,0.0,0.0,0.0,0.75,0.75,-0.17,-0.17,0.64,11.89,-11.1,-52.2
6.84,0.0,0.25,0.0,0.0,0.0,0.0,0.0,0.0,0.0,0.0,0.0,0.0,0.25,-0.86,-0.17,0.58,0.0,-0.5,-5.3,0.0,0.0,0.75,0.0,0.0,0.25,0.0,0.0,0.0,0.0,0.0,1.0,1.5,-0.05,-0.11,1.2,25.39,-3.3,-63.1
