time,left pressure 0[N/cm虏],left pressure 1[N/cm虏],left pressure 2[N/cm虏],left pressure 3[N/cm虏],left pressure 4[N/cm虏],left pressure 5[N/cm虏],left pressure 6[N/cm虏],left pressure 7[N/cm虏],left pressure 8[N/cm虏],left pressure 9[N/cm虏],left pressure 10[N/cm虏],left pressure 11[N/cm虏],left pressure 12[N/cm虏],left acceleration X[g],left acceleration Y[g],left acceleration Z[g],left total force[N],left center of pressure X[mm],left center of pressure Y[mm],right pressure 0[N/cm虏],right pressure 1[N/cm虏],right pressure 2[N/cm虏],right pressure 3[N/cm虏],right pressure 4[N/cm虏],right pressure 5[N/cm虏],right pressure 6[N/cm虏],right pressure 7[N/cm虏],right pressure 8[N/cm虏],right pressure 9[N/cm虏],right pressure 10[N/cm虏],right pressure 11[N/cm虏],right pressure 12[N/cm虏],right acceleration X[g],right acceleration Y[g],right acceleration Z[g],right total force[N],right center of pressure X[mm],right center of pressure Y[mm]
0.02,0.25,1.0,0.25,1.5,0.0,1.75,0.25,4.75,2.5,6.25,6.5,7.75,7.5,-0.11,-0.05,0.95,634.14,-2.3,-65.6,5.0,1.75,8.5,5.0,5.5,0.25,6.75,2.75,4.75,3.5,6.25,1.25,3.0,0.02,0.08,0.95,906.59,-13.1,8.2
0.04,0.5,1.0,0.25,1.5,1.25,1.75,0.5,4.75,2.75,7.5,7.25,8.75,8.5,-0.05,-0.05,0.95,718.03,-2.1,-63.0,5.0,1.0,9.25,2.75,5.25,0.25,6.75,2.75,3.25,0.75,4.5,0.5,1.25,0.02,0.08,1.08,754.53,-16.9,22.6
0.06,0.75,1.0,0.25,1.5,1.25,1.75,0.5,4.75,3.0,8.25,7.75,9.0,9.25,-0.05,-0.05,0.95,803.95,-2.1,-63.4,5.25,0.0,8.75,2.5,4.25,0.0,6.0,2.5,2.75,0.5,2.25,0.0,0.25,0.08,0.08,1.33,586.97,-19.7,33.5
0.08,1.0,1.25,0.25,1.5,1.25,1.75,0.5,5.75,3.5,8.75,8.75,9.75,10.0,-0.05,-0.05,0.95,903.44,-1.9,-62.9,5.0,0.5,8.75,1.25,3.25,0.0,4.75,2.5,2.0,0.5,2.25,0.0,0.0,0.2,0.2,1.7,445.3,-20.7,35.6
0.1,1.0,1.25,0.25,1.5,1.25,2.25,0.5,5.75,3.5,8.75,8.75,9.75,10.0,-0.05,-0.05,0.95,971.45,-2.1,-62.1,3.25,0.5,7.75,1.0,1.5,0.0,3.5,1.75,1.5,0.0,2.0,0.0,0.0,0.2,0.33,1.77,327.35,-23.3,36.0
0.12,1.0,1.25,0.0,1.75,1.25,2.75,0.75,5.75,3.5,8.75,8.75,9.75,10.0,-0.05,-0.05,0.95,1011.22,-2.3,-61.0,2.25,0.25,6.75,1.0,0.25,0.0,2.75,1.25,1.5,0.25,2.0,0.0,0.75,0.45,0.2,2.02,247.69,-23.0,23.3
0.14,1.25,1.25,0.25,1.5,0.75,2.75,0.75,5.75,3.75,8.0,8.75,9.25,9.5,-0.05,-0.05,0.95,997.45,-1.7,-60.3,1.25,0.0,4.5,1.0,1.5,0.0,1.75,1.5,1.25,0.25,1.75,0.0,0.25,0.27,0.39,2.14,173.72,-18.0,20.3
0.16,1.0,1.0,0.25,1.75,1.75,3.0,1.0,5.75,4.25,7.75,8.75,9.25,9.25,-0.05,-0.05,0.95,974.01,-1.7,-57.7,0.75,0.0,2.25,1.0,2.25,0.0,1.5,1.5,1.25,0.0,0.25,0.0,0.25,2.2,0.64,0.27,104.5,-12.6,26.1
0.18,0.75,1.25,0.25,1.75,1.75,3.0,1.0,5.75,4.25,8.0,8.75,9.0,9.25,-0.05,-0.05,0.95,948.05,-1.9,-57.4,0.25,0.0,2.5,0.0,2.25,0.0,1.5,1.5,1.0,0.0,0.0,0.0,0.25,0.77,1.02,0.64,48.49,-11.8,24.1
0.2,1.25,1.25,0.0,1.75,1.75,3.25,1.25,5.75,4.5,7.5,8.25,9.0,8.5,-0.05,-0.05,0.95,923.99,-1.5,-54.9,0.25,0.0,2.25,0.0,2.5,0.0,1.25,1.5,0.75,0.0,0.0,0.0,0.25,0.02,0.89,0.95,16.89,-10.1,25.8
0.22,1.5,1.25,0.0,2.75,1.75,3.5,1.5,6.0,4.75,7.5,8.25,8.5,8.25,-0.05,-0.05,0.95,904.6,-1.1,-50.6,0.25,0.0,1.75,0.5,2.25,0.0,1.25,1.5,0.75,0.25,0.0,0.0,0.25,0.27,0.52,0.83,9.48,-8.6,21.7
0.24,1.5,1.25,0.0,3.75,1.75,4.0,1.75,6.5,5.0,7.25,7.75,8.0,7.5,-0.05,-0.05,0.95,886.1,-0.9,-45.8,0.75,0.25,1.5,0.75,2.25,0.0,1.25,1.25,0.75,0.0,0.0,0.0,0.5,0.2,0.08,0.83,24.6,-10.2,28.4
0.26,1.5,1.25,0.0,4.25,3.0,4.25,2.25,6.5,5.0,6.5,7.75,7.5,7.25,-0.05,-0.05,0.95,869.94,-0.5,-40.3,0.5,0.0,1.25,1.0,2.5,0.0,1.0,1.5,0.75,0.0,0.0,0.0,0.75,0.27,-0.17,0.83,49.02,-6.8,19.7
0.28,1.5,1.25,0.0,4.5,3.5,5.0,2.0,6.75,5.25,6.25,7.25,6.75,6.5,-0.05,-0.05,0.95,846.8,-0.8,-35.7,1.0,0.0,1.25,1.0,2.75,0.0,1.0,1.25,0.75,0.0,0.0,0.0,0.25,0.39,-0.3,0.7,75.16,-9.7,33.6
0.3,1.5,1.25,0.0,6.0,5.25,5.25,3.25,6.5,5.25,5.75,6.5,6.0,5.75,-0.05,-0.05,0.95,833.62,-0.1,-26.2,0.25,0.0,1.25,1.0,2.5,0.0,0.75,1.25,1.25,0.75,0.25,0.5,0.25,0.64,-0.3,0.58,97.43,-6.3,7.2
0.32,1.75,1.25,2.25,7.0,6.25,5.5,4.75,6.5,5.0,4.75,6.0,5.0,4.75,-0.05,-0.05,0.95,843.47,2.2,-14.2,0.5,0.0,2.5,1.0,4.25,0.0,1.25,2.75,0.75,0.0,2.25,0.0,0.75,0.77,-0.23,0.52,145.17,-6.9,9.8
0.34,2.0,1.5,3.75,8.0,7.25,6.5,5.0,6.25,5.0,4.0,5.25,3.75,4.0,-0.05,-0.05,0.95,880.06,3.4,-3.2,1.0,0.0,1.25,1.0,2.5,0.0,0.75,1.25,0.75,0.0,0.25,0.0,0.25,0.77,-0.17,0.64,155.26,-9.8,30.1
0.36,2.5,2.25,4.75,9.5,8.0,6.75,5.75,5.75,4.25,3.5,4.25,3.5,2.75,-0.05,0.02,0.95,931.9,5.1,7.5,0.5,0.0,1.0,0.75,2.5,0.0,0.75,1.25,0.75,0.0,0.5,0.0,0.25,0.7,-0.11,0.89,155.52,-7.3,21.3
0.38,2.75,2.5,5.5,12.5,9.25,7.25,6.0,5.75,3.5,3.5,3.0,2.25,2.75,-0.05,0.02,0.95,1006.73,5.6,16.9,0.5,0.0,1.25,1.0,2.5,0.0,0.5,1.25,0.75,0.0,0.75,0.0,0.25,0.64,-0.05,0.89,146.41,-8.3,20.9
0.4,3.25,2.75,6.0,14.0,9.25,7.75,5.75,5.5,2.75,2.25,2.0,2.0,1.5,-0.05,0.02,1.02,1058.94,6.9,26.4,0.25,0.0,0.75,1.0,2.5,0.0,0.75,1.25,0.75,0.0,0.25,0.0,0.25,0.58,0.08,0.89,136.86,-5.7,22.0
0.42,3.0,2.75,6.75,15.5,11.5,8.0,5.75,4.75,2.0,2.75,2.0,2.0,1.25,-0.05,0.02,1.08,1127.73,7.0,29.6,0.5,0.0,0.75,1.0,2.75,0.25,0.75,1.25,0.75,0.0,0.75,0.0,0.25,0.52,0.2,0.89,133.15,-5.7,20.0
0.44,3.25,2.75,8.0,17.0,11.5,8.25,5.25,4.75,2.0,2.0,2.0,2.0,1.0,-0.05,0.08,1.08,1194.13,8.0,32.7,0.0,0.0,1.25,1.0,2.75,0.0,0.75,1.25,0.75,0.0,0.75,0.0,0.0,0.33,0.27,1.02,132.33,-7.4,21.8
0.46,5.0,2.75,7.75,18.5,13.5,7.75,5.75,4.5,1.75,0.75,1.75,1.5,1.0,-0.11,0.14,1.08,1275.13,9.1,39.0,0.0,0.0,1.0,0.5,2.25,0.0,0.5,1.25,0.75,0.0,0.5,0.0,0.25,0.14,0.33,1.2,125.47,-5.2,13.6
0.48,6.0,2.75,9.0,17.0,14.0,7.25,4.75,4.0,1.5,1.5,1.25,1.25,1.0,-0.05,0.14,1.08,1322.12,9.7,40.9,0.0,0.0,1.0,0.75,2.5,0.0,0.5,1.25,0.75,0.0,0.75,0.0,0.25,0.14,0.39,1.33,119.13,-5.4,13.8
0.5,6.25,4.25,9.0,18.5,14.0,7.25,3.0,3.25,1.25,2.25,0.75,1.0,1.0,-0.11,0.14,1.08,1360.24,9.7,44.0,0.0,0.25,0.5,1.0,2.25,0.0,0.5,1.25,0.75,0.0,0.5,0.0,0.25,0.2,0.64,1.33,112.77,-4.0,16.4
0.52,7.0,4.25,9.25,19.5,15.5,7.25,1.75,3.0,1.0,2.25,0.75,0.75,0.75,-0.11,0.2,1.02,1394.46,9.8,46.7,0.25,0.0,0.25,1.0,2.25,0.0,0.5,1.25,0.75,0.0,0.0,0.0,0.25,-0.36,0.45,1.33,105.46,-2.9,21.0
0.54,7.25,5.0,9.0,19.0,15.5,6.75,1.0,3.0,1.0,2.25,0.75,0.75,0.75,-0.11,0.27,0.95,1412.59,9.9,47.5,0.0,0.0,0.75,0.75,2.5,0.0,0.5,1.25,0.75,0.0,0.5,0.0,0.0,0.08,1.45,1.33,101.85,-4.8,19.6
0.56,7.25,5.5,8.75,18.0,15.5,6.75,1.0,3.0,1.0,2.25,0.5,0.5,0.75,-0.11,0.33,1.02,1411.57,9.7,48.6,0.25,0.0,1.0,1.0,2.25,0.0,0.5,1.25,0.75,0.0,0.25,0.0,0.25,-0.3,1.77,1.83,103.81,-6.7,22.0
0.58,7.5,5.5,7.75,18.0,14.0,6.75,0.5,1.5,1.0,2.25,0.5,0.5,0.75,-0.11,0.39,1.14,1376.36,10.2,50.4,0.75,0.0,0.5,1.25,2.25,0.5,0.75,1.25,1.0,0.75,0.75,0.25,0.0,-1.11,1.83,1.77,123.55,-4.8,11.6
0.6,7.0,5.0,5.0,16.0,15.0,6.0,0.25,2.75,1.0,2.0,0.5,0.5,0.75,-0.23,0.58,1.45,1308.13,8.2,48.0,1.25,0.25,1.75,1.25,3.5,0.25,1.5,2.0,0.75,0.5,2.0,0.0,0.5,-1.11,2.2,1.14,162.4,-7.9,14.6
0.62,6.25,4.25,1.0,12.5,13.0,5.25,0.0,2.5,1.0,1.25,0.5,0.5,0.75,-0.23,1.02,1.95,1108.4,6.1,47.1,0.25,0.0,1.5,0.0,3.5,0.0,1.25,1.75,0.5,0.0,2.0,0.0,0.5,-1.67,3.7,-0.48,175.97,-5.7,5.4
0.64,5.5,3.25,0.0,8.5,9.25,3.25,0.0,1.5,1.0,1.5,0.5,0.5,0.75,-0.73,1.64,2.64,840.93,6.2,44.4,0.0,0.0,0.5,0.5,2.5,0.0,0.5,1.0,0.5,3.5,1.25,4.25,3.0,-2.17,1.7,1.14,214.93,1.7,-56.1
0.66,3.25,1.5,0.0,6.0,7.5,1.5,0.0,0.0,1.0,0.75,0.5,0.75,0.75,-1.05,1.45,2.89,551.24,7.0,41.6,0.0,0.0,0.0,0.0,2.75,0.25,0.5,0.5,0.75,6.5,3.5,6.0,7.5,-1.67,0.14,2.33,285.79,4.4,-74.2
0.68,1.5,0.25,0.0,4.25,5.75,0.5,0.0,0.75,1.0,1.0,0.25,0.5,0.5,-0.11,-0.3,2.52,327.1,4.6,30.2,0.0,0.0,0.75,0.75,3.0,0.5,0.5,2.75,1.5,7.75,6.25,6.0,8.0,1.14,0.39,3.2,404.18,3.0,-64.9
0.7,1.0,0.0,0.25,3.5,1.75,0.0,0.0,0.0,0.25,0.0,0.0,0.25,0.5,0.14,-0.17,-0.05,166.06,12.2,42.3,1.25,0.25,0.0,1.0,4.5,0.75,1.0,4.0,1.5,7.75,6.25,6.0,8.0,-0.23,0.02,0.95,549.45,2.8,-54.2
0.72,0.0,0.0,0.0,1.5,0.5,0.0,0.0,0.75,0.25,0.0,0.0,0.25,0.0,0.02,-1.11,2.14,10.32,5.2,16.5,2.0,0.5,0.0,1.5,3.75,2.75,0.5,4.25,2.0,8.5,6.75,6.5,8.0,0.02,0.08,0.95,689.0,2.8,-49.6
0.74,1.5,1.25,0.25,1.75,1.25,0.75,0.0,1.5,1.0,1.25,0.5,0.5,0.75,-0.67,-0.73,1.89,0.0,4.1,9.7,0.5,0.25,0.0,1.25,5.0,3.0,1.25,5.25,2.75,7.75,7.25,6.0,8.0,0.08,0.08,0.95,786.89,3.8,-50.1
0.76,1.5,1.25,0.25,1.75,1.75,0.5,0.0,1.5,1.0,1.25,0.5,0.5,0.75,-0.73,-0.67,0.89,0.0,4.3,11.3,0.75,0.5,0.75,1.25,4.25,2.75,0.75,5.5,2.75,7.75,7.0,6.0,8.0,0.14,0.08,0.95,838.62,3.0,-49.2
0.78,1.5,1.25,0.25,1.75,2.25,1.0,0.0,1.5,1.0,0.75,0.5,0.5,0.75,-0.48,-0.61,0.77,0.0,3.7,17.2,1.0,1.0,1.75,3.0,6.0,5.0,1.5,5.75,3.25,8.0,7.0,6.0,7.75,0.14,0.08,0.95,905.13,1.8,-34.3
0.8,1.5,1.25,0.25,1.75,1.25,0.75,0.0,0.75,1.0,1.0,0.75,0.5,0.25,-0.17,-0.48,0.77,13.9,7.0,18.6,2.75,1.5,2.5,3.5,6.5,5.0,1.75,6.25,3.25,7.5,7.5,6.0,7.5,0.14,0.08,0.95,974.28,-0.1,-26.4
0.82,1.25,1.0,0.75,1.75,0.5,0.5,0.0,1.0,1.0,0.75,0.5,0.5,0.75,-0.11,-0.42,0.83,41.15,8.1,10.3,3.5,1.5,2.75,4.0,6.5,5.25,2.25,6.25,3.75,7.25,7.25,5.25,6.75,0.14,0.08,0.95,1032.06,-1.0,-21.2
0.84,1.5,1.25,0.5,1.75,2.25,0.75,0.0,1.0,0.75,1.25,0.5,0.5,0.25,-0.36,-0.36,0.89,75.55,5.5,22.6,3.5,1.75,4.0,4.5,6.5,5.75,2.75,6.25,4.0,6.5,7.0,4.5,6.25,0.14,0.08,0.95,1070.17,-2.1,-15.1
0.86,1.25,1.0,0.25,1.75,1.75,0.5,0.0,1.0,0.75,1.25,0.5,0.5,0.5,-0.48,-0.23,0.89,109.5,4.6,13.5,2.75,1.75,4.25,5.5,7.25,5.75,3.25,6.25,4.0,6.0,6.25,4.0,5.5,0.14,0.08,0.95,1084.5,-2.4,-10.6
0.88,1.0,1.0,0.25,1.5,1.25,0.5,0.0,1.0,0.75,1.25,0.75,0.5,0.75,-0.42,-0.05,0.95,137.22,3.8,3.5,3.0,2.0,5.0,6.0,7.75,6.0,3.5,6.0,3.5,5.0,5.5,2.75,4.75,0.08,0.08,0.95,1057.94,-3.3,-1.7
0.9,0.75,1.0,0.5,1.75,0.5,0.75,0.0,0.75,0.75,1.0,0.5,0.5,0.75,-0.36,0.08,1.08,147.98,5.2,5.6,3.75,2.0,5.0,7.0,8.0,6.25,4.0,5.25,3.25,3.75,4.5,2.0,3.75,0.08,0.08,0.95,1011.77,-4.7,7.8
0.92,1.25,1.0,0.25,1.5,0.5,0.5,0.0,0.75,0.75,1.25,0.5,0.5,0.75,-0.3,0.2,1.27,151.53,5.6,4.3,3.0,1.0,6.25,7.75,8.0,6.25,4.75,4.25,3.0,3.5,2.5,0.75,1.5,0.08,0.08,0.95,937.95,-6.3,19.9
0.94,1.25,1.0,0.25,1.5,1.25,0.5,0.0,1.25,0.75,1.0,0.0,0.5,0.5,-0.3,0.27,1.58,152.41,4.5,15.3,3.75,2.0,5.25,8.75,8.0,6.25,4.25,4.0,2.75,2.25,2.25,1.25,2.25,0.08,0.08,0.95,884.91,-6.6,22.5
0.96,1.0,1.25,0.25,1.5,0.0,0.5,0.0,1.0,0.75,0.75,0.5,0.5,0.75,-0.3,0.39,1.89,143.19,6.2,4.7,3.5,1.5,6.75,8.0,9.25,5.75,4.75,4.0,2.0,2.0,0.75,0.25,1.0,0.08,0.08,0.95,822.83,-7.8,33.4
0.98,0.75,1.0,0.25,1.5,0.0,0.75,0.0,1.0,0.75,1.0,0.5,0.5,0.75,-0.42,0.77,2.33,130.7,3.8,-1.9,4.25,1.0,7.75,10.5,8.75,5.75,4.75,3.0,1.5,2.0,2.25,0.25,0.25,0.08,0.14,0.95,804.07,-10.2,36.4
1.0,1.0,1.0,0.25,1.5,1.75,0.5,0.0,1.75,0.5,0.75,0.25,0.5,0.25,-0.55,1.58,2.39,134.74,3.2,17.5,5.5,0.0,7.5,10.5,9.75,6.0,4.75,3.25,1.5,1.5,0.0,0.5,0.5,0.08,0.14,0.95,789.11,-10.1,40.9
1.02,0.75,1.0,0.25,1.5,0.5,0.5,0.0,0.75,0.75,1.0,0.5,0.5,0.75,-0.55,2.27,2.14,133.01,4.6,1.7,5.75,1.75,7.75,13.0,9.25,6.25,4.75,2.75,1.5,1.5,1.5,0.0,0.0,0.08,0.14,0.95,819.93,-11.2,44.2
1.04,1.0,1.0,0.25,1.5,0.5,0.5,0.0,1.25,0.75,1.0,0.5,0.5,0.5,-0.61,3.02,2.02,135.89,4.7,5.0,6.0,1.75,8.25,14.0,10.0,6.25,5.25,2.75,1.5,2.0,0.25,0.75,0.0,0.08,0.14,0.95,872.47,-11.3,44.4
1.06,0.75,1.0,0.25,1.5,0.0,0.75,0.0,0.75,1.0,0.75,0.5,0.5,0.25,0.2,3.58,1.02,129.06,6.5,7.2,5.75,1.75,9.25,12.0,12.0,5.5,5.25,2.75,1.5,0.5,1.75,0.0,0.25,0.02,0.14,0.95,926.34,-11.9,45.9
1.08,1.0,1.0,0.25,0.25,0.75,0.25,0.0,1.5,0.75,1.25,0.75,0.0,0.75,1.45,5.64,-0.55,125.55,1.5,-4.8,6.5,1.75,9.25,0.0,11.0,5.0,5.5,2.5,1.0,1.5,0.75,0.0,0.25,0.02,0.2,0.95,853.95,-11.1,44.5
1.1,0.0,0.0,0.25,0.0,0.0,0.0,0.0,0.5,0.25,0.0,0.5,0.5,1.0,2.08,5.89,-0.05,97.24,0.0,-72.1,7.0,2.0,10.5,14.5,12.0,5.0,5.25,2.5,0.75,1.0,1.0,0.0,0.25,0.02,0.2,0.95,914.56,-13.3,49.9
1.12,0.0,0.0,0.0,0.0,0.0,0.0,0.0,0.0,0.25,3.0,0.5,5.0,4.0,-0.36,-0.61,3.89,131.41,-3.9,-99.1,7.0,2.5,10.5,17.5,12.0,5.75,4.75,1.25,0.75,0.75,1.0,0.0,0.25,0.02,0.27,1.02,987.07,-13.7,52.8
1.14,0.0,0.0,0.0,1.75,0.0,0.5,0.0,0.0,1.0,6.25,3.25,7.0,6.5,1.02,0.39,2.39,223.92,-2.3,-80.6,8.0,0.0,11.5,18.5,14.0,2.75,4.75,0.25,0.75,0.25,0.75,0.5,1.0,-0.05,0.27,1.02,1088.72,-15.9,52.3
1.16,0.0,1.25,0.25,1.5,0.0,3.0,0.0,4.75,2.0,7.5,7.5,8.25,8.25,0.02,0.33,1.52,384.91,-3.4,-65.2,9.0,3.5,11.5,18.5,14.5,5.0,4.25,1.0,1.0,0.75,2.25,0.5,1.25,0.02,0.33,1.08,1237.15,-13.9,49.6
1.18,0.5,1.25,0.0,1.5,0.5,3.0,0.0,4.25,2.5,7.75,7.75,8.25,8.25,-0.05,-0.05,1.02,575.92,-2.9,-62.8,9.5,3.0,11.5,16.0,12.0,1.25,3.0,1.25,0.75,0.0,0.75,0.0,0.25,0.02,0.39,1.08,1245.13,-17.6,58.7
1.2,0.25,1.25,0.0,1.75,0.0,3.0,0.25,5.0,2.75,7.5,8.0,8.25,8.5,-0.05,-0.05,0.95,741.57,-2.9,-63.9,10.5,4.0,12.5,16.0,12.0,0.25,3.5,1.25,0.75,0.0,0.75,0.0,0.25,0.2,0.45,1.45,1238.14,-18.7,60.3
1.22,0.75,1.25,0.0,1.75,0.0,3.0,0.75,4.75,3.75,8.0,9.5,8.5,8.75,-0.05,-0.05,0.95,853.61,-1.7,-62.5,10.5,4.0,11.5,14.5,9.25,0.75,5.0,1.25,0.75,0.75,2.25,0.25,0.5,0.27,0.58,1.58,1168.33,-18.7,53.7
1.24,1.5,1.25,0.0,2.0,0.0,3.25,0.5,5.25,4.5,8.0,9.25,8.25,8.25,-0.05,-0.05,0.95,920.89,-1.3,-58.1,8.75,2.5,10.5,9.75,7.0,0.25,5.75,1.25,0.25,0.5,0.75,0.0,0.5,0.45,0.89,2.02,1019.65,-20.3,56.7
1.26,0.75,1.25,0.25,4.0,0.75,3.5,1.75,5.75,5.0,7.5,9.0,7.5,7.5,-0.05,-0.05,0.95,966.75,-0.5,-49.8,8.25,2.75,8.75,9.0,6.5,1.0,5.75,1.25,0.75,0.0,2.25,0.0,1.0,0.64,1.89,3.02,868.43,-18.7,50.3
1.28,1.5,1.25,2.5,4.5,1.75,4.25,3.0,5.75,5.25,6.25,8.25,6.5,6.5,-0.05,-0.05,0.95,991.23,2.0,-35.2,5.0,2.0,6.25,5.0,4.25,0.0,2.75,1.0,0.25,0.0,1.5,0.0,0.0,1.33,1.64,3.2,634.63,-20.2,54.8
1.3,1.5,1.25,3.0,4.5,5.0,5.0,3.75,5.5,5.0,5.25,7.25,5.75,5.5,-0.05,-0.05,0.95,999.95,2.2,-23.4,2.25,0.5,5.0,2.0,3.5,0.0,1.0,1.0,0.25,0.0,0.0,0.0,0.25,0.83,-0.55,3.45,403.81,-18.7,53.1
1.32,1.75,1.25,3.5,6.0,5.75,5.25,4.0,5.25,5.0,4.75,6.0,4.25,4.5,-0.05,-0.05,0.95,985.12,3.2,-12.7,1.25,0.0,2.5,1.25,3.0,0.25,0.5,1.0,0.25,0.0,0.0,0.0,0.25,0.7,-0.8,2.02,238.14,-12.9,44.8
1.34,2.0,1.25,5.5,6.75,5.75,5.25,4.75,4.75,4.75,3.5,4.5,3.25,2.75,-0.05,-0.05,0.95,947.85,5.9,0.5,0.25,0.0,2.5,1.75,4.25,0.25,0.5,1.25,0.25,0.0,0.0,0.0,0.25,1.45,-1.3,2.27,114.82,-8.7,40.5
1.36,2.25,1.25,5.25,7.75,5.75,5.25,5.0,4.75,4.25,3.25,3.0,2.0,2.0,-0.05,0.02,0.95,877.2,6.3,9.3,2.0,1.0,2.75,2.25,5.25,0.75,0.5,1.5,0.5,0.75,2.25,0.25,1.25,0.95,-1.11,0.89,92.94,-8.1,22.3
1.38,2.75,1.5,6.5,8.25,6.5,5.5,4.25,3.75,3.75,2.25,3.0,2.0,1.0,-0.05,0.02,0.95,818.97,8.3,18.8,3.25,1.0,2.75,2.75,5.25,0.5,0.5,1.5,0.75,0.75,2.25,0.25,1.0,0.58,-0.8,0.45,126.48,-10.3,27.7
1.4,2.75,1.5,7.0,9.5,7.75,5.5,4.75,3.5,2.75,2.5,1.75,2.0,1.0,-0.05,0.02,0.95,791.36,8.5,24.4,0.5,1.0,2.0,1.0,4.25,0.5,0.5,1.25,0.75,0.75,0.25,0.25,0.25,0.39,-0.61,0.77,128.84,-6.1,30.0
1.42,2.5,1.25,8.0,9.5,7.5,5.25,4.5,3.25,2.5,1.5,1.25,0.5,0.75,-0.05,0.02,0.95,768.32,9.9,33.0,2.0,1.0,2.5,2.75,4.75,0.25,0.75,1.5,0.75,0.75,2.25,0.25,0.5,0.27,-0.48,0.83,164.21,-10.0,25.9
1.44,3.25,1.25,8.25,11.0,8.75,5.25,4.25,3.75,1.75,0.0,1.75,0.5,0.75,-0.05,0.02,0.95,771.47,10.7,38.0,2.25,0.0,2.5,0.5,5.25,0.0,0.5,1.25,0.25,0.0,0.25,0.5,0.25,0.27,-0.36,0.89,152.56,-11.0,40.3
1.46,2.75,1.25,8.0,12.5,8.0,5.5,4.25,2.5,1.75,0.25,0.0,0.5,0.0,-0.05,0.08,0.95,752.69,11.6,45.6,0.75,0.25,1.5,1.0,3.5,0.0,0.5,1.25,0.0,0.0,0.0,0.0,0.25,0.2,-0.17,0.95,135.81,-7.9,42.3
1.48,3.25,1.25,9.0,14.0,9.25,5.5,5.0,1.75,1.25,0.0,0.0,0.5,0.0,-0.05,0.08,0.95,770.76,12.8,49.6,2.5,1.25,2.5,1.25,4.75,0.25,0.5,1.5,0.75,0.75,2.25,0.25,1.0,0.08,0.02,1.02,173.18,-9.3,22.5
1.5,4.5,1.25,9.25,15.0,9.5,5.75,3.75,2.25,1.5,0.5,0.5,0.5,0.0,-0.05,0.08,1.02,812.01,12.5,47.6,0.5,0.25,1.75,1.0,4.75,0.0,0.5,1.25,0.25,0.0,2.0,0.0,1.0,0.02,0.33,1.2,185.59,-6.1,16.3
1.52,5.75,2.5,10.5,17.0,12.0,6.0,5.0,2.75,1.5,1.25,1.25,0.5,0.75,-0.05,0.14,1.02,954.13,12.0,44.8,2.0,0.75,1.25,1.75,3.0,0.0,0.5,1.0,0.25,0.0,0.25,0.0,0.25,-0.11,0.39,1.58,197.5,-12.2,48.2
1.54,6.75,1.25,11.5,17.0,14.0,5.75,3.75,3.0,1.0,0.5,1.25,0.5,0.5,-0.05,0.14,1.02,1092.0,12.4,47.5,1.75,0.75,1.0,2.0,4.75,0.5,0.5,1.25,0.75,0.0,2.0,0.0,0.25,-0.05,0.52,1.77,208.58,-7.9,30.5
1.56,7.5,2.75,12.5,18.0,14.0,5.25,2.75,2.5,1.0,1.0,0.5,0.5,0.5,-0.05,0.14,1.08,1238.22,13.2,50.7,2.25,1.0,1.25,1.25,4.75,0.25,0.75,1.25,0.5,0.5,2.0,0.25,1.25,0.02,1.08,2.33,223.52,-7.3,20.1
1.58,8.0,2.75,13.5,0.0,15.0,4.25,1.0,2.25,1.0,1.75,1.25,0.5,0.75,-0.05,0.14,1.14,1180.73,12.1,45.7,0.5,0.0,2.5,1.25,4.5,0.0,0.5,1.0,0.0,0.0,0.0,0.0,0.25,-0.11,2.02,2.7,203.94,-9.7,44.9
1.6,8.5,2.75,14.0,18.5,14.5,3.5,0.0,2.5,1.0,1.75,0.5,0.5,0.75,-0.05,0.2,1.14,1255.88,14.0,50.6,1.75,1.25,1.0,1.25,3.25,0.5,0.5,1.0,0.0,0.0,0.0,0.0,0.25,-0.23,2.77,2.39,186.35,-9.0,53.0
1.62,8.0,2.5,13.5,17.0,13.0,1.0,0.0,0.75,0.75,0.0,0.0,0.25,0.0,-0.17,0.33,1.39,1194.21,17.8,60.8,1.25,0.25,2.5,1.0,4.75,0.0,0.5,1.25,0.0,0.0,1.75,0.0,0.25,-0.73,3.52,1.7,187.3,-10.3,32.4
1.64,7.75,2.25,11.5,15.5,11.0,0.5,0.0,0.5,0.5,0.0,0.0,0.25,0.0,-0.36,0.39,1.45,1119.61,18.4,62.0,1.5,1.0,2.5,2.0,4.75,0.0,0.75,1.0,0.25,0.0,0.25,0.0,0.25,-1.42,4.14,0.7,198.95,-11.9,49.4
1.66,6.75,1.25,10.0,12.5,9.75,0.5,0.0,0.75,0.25,0.0,0.0,0.25,0.0,-0.42,0.64,1.89,951.18,18.2,61.0,2.0,0.75,2.5,1.25,4.5,0.75,0.5,1.25,0.25,0.0,2.0,0.75,1.0,-2.05,5.27,-0.11,218.39,-9.2,22.5
1.68,5.75,1.25,8.0,8.0,9.25,0.0,0.0,0.5,0.25,0.0,0.0,0.25,0.0,-0.61,1.58,2.7,756.82,17.8,61.6,1.5,0.75,1.0,1.0,2.75,0.25,0.5,1.75,0.5,2.25,2.25,3.5,4.5,-0.05,-0.98,0.7,256.55,-1.7,-34.8
1.7,3.25,0.0,3.25,5.75,5.75,0.0,0.0,0.5,0.25,0.0,0.0,0.0,0.0,-0.67,2.39,3.45,496.27,15.6,59.4,0.75,0.75,1.0,1.25,2.5,0.25,0.0,1.25,0.75,6.0,2.0,5.5,6.75,-0.86,0.52,1.39,312.64,1.7,-54.4
1.72,0.75,0.0,1.0,1.75,1.75,0.0,0.0,0.5,0.25,0.0,0.0,0.25,0.0,-0.61,-0.48,2.64,269.34,13.0,44.0,2.0,1.25,2.0,2.0,3.75,0.5,1.25,3.0,1.5,7.25,6.5,6.25,8.0,0.2,0.58,3.27,437.22,-1.2,-43.4
1.74,0.25,0.0,0.25,1.75,1.25,0.0,0.0,0.5,0.25,0.0,0.0,0.25,0.0,-0.17,-0.98,0.02,101.48,8.7,34.8,0.25,0.25,1.25,0.0,4.5,1.5,0.5,4.25,1.25,7.75,7.5,6.25,9.0,0.02,0.39,1.64,586.0,3.4,-57.9
1.76,0.25,0.0,0.25,1.5,0.75,0.0,0.0,0.5,0.25,0.0,0.0,0.25,0.0,-1.11,-1.55,2.2,0.0,9.9,30.5,0.0,0.5,0.0,1.75,4.25,2.75,0.5,4.25,2.0,8.5,6.75,6.75,8.0,0.14,0.08,0.95,710.18,4.1,-54.0
1.78,0.0,0.0,0.25,1.5,0.75,0.0,0.0,0.5,0.25,0.0,0.0,0.0,0.0,-1.11,-1.23,1.45,0.0,8.3,36.0,1.0,0.75,0.0,1.25,5.75,2.75,0.75,5.25,2.5,7.75,8.25,6.0,8.0,0.14,0.08,0.95,797.26,3.1,-46.7
1.8,0.25,0.0,0.25,1.5,0.75,0.0,0.0,0.75,0.25,0.0,0.0,0.25,0.0,-0.61,-0.86,0.58,0.0,8.3,26.3,1.0,0.5,2.0,1.5,4.75,3.0,0.0,5.25,2.5,7.75,7.5,6.0,8.0,0.14,0.08,0.95,850.99,1.9,-44.5
1.82,0.0,0.0,0.25,1.5,0.5,0.0,0.0,0.5,0.25,0.0,0.0,0.25,0.0,-0.42,-0.73,0.52,0.0,9.3,23.9,0.5,0.75,1.25,1.0,5.25,3.75,0.75,5.25,2.75,7.5,7.5,6.0,7.5,0.14,0.08,0.95,874.04,2.8,-44.2
1.84,1.25,1.25,0.25,1.75,0.0,1.0,0.0,1.0,0.75,0.0,0.0,0.25,0.0,-0.36,-0.55,0.58,0.0,9.5,40.2,1.25,0.75,1.25,2.5,5.25,4.75,0.75,5.5,3.0,6.75,7.5,5.25,7.0,0.14,0.08,0.95,877.52,1.9,-35.6
1.86,0.0,0.0,1.0,0.5,1.25,0.25,0.0,1.0,0.25,0.0,0.0,0.25,0.0,-0.42,-0.36,0.64,0.0,5.6,21.7,1.0,1.25,1.75,2.75,5.5,4.25,1.75,5.25,3.0,6.0,6.75,4.75,6.0,0.08,0.08,0.95,850.93,0.7,-29.4
1.88,1.5,1.0,0.75,1.75,1.75,1.0,0.0,0.75,0.75,0.75,0.25,0.5,0.5,-0.48,-0.3,0.77,13.52,6.9,25.1,1.75,0.75,2.5,3.5,6.0,5.0,2.25,5.25,2.75,5.0,6.25,3.0,5.0,0.08,0.08,0.95,812.11,-0.4,-17.8
1.9,1.25,1.0,0.75,1.75,1.75,1.0,0.0,1.5,0.75,0.75,0.5,0.5,0.25,-0.42,-0.11,0.95,80.42,5.4,20.6,2.25,1.0,2.75,4.25,6.5,5.0,3.0,5.25,2.75,5.0,5.5,3.0,4.5,0.08,0.08,0.95,783.52,-1.4,-11.6
1.92,1.25,1.25,0.5,1.5,1.75,1.0,0.0,1.0,0.75,1.0,0.5,0.5,0.75,-0.36,0.08,1.08,140.38,4.2,15.4,1.75,1.0,5.0,5.25,6.5,5.0,2.75,4.25,3.0,3.75,3.5,2.5,2.25,0.08,0.08,0.95,741.07,-4.4,3.2
1.94,1.5,0.75,0.5,1.5,1.75,1.0,0.0,0.75,0.5,0.75,0.5,0.5,0.5,-0.42,0.39,1.52,171.87,5.7,20.9,2.75,2.0,5.0,5.75,8.0,5.0,3.5,4.75,2.5,2.0,4.5,1.5,1.25,0.08,0.08,0.95,721.46,-6.1,15.8
1.96,1.25,0.0,0.5,1.75,1.75,0.75,0.0,0.75,0.75,1.0,0.75,0.5,0.75,-0.48,0.52,1.83,185.96,4.8,5.3,2.5,0.75,5.0,6.0,7.25,5.0,3.5,4.0,2.0,1.25,2.5,0.5,0.75,0.08,0.08,0.95,660.11,-6.7,24.6
1.98,1.0,0.75,0.5,1.75,1.75,1.0,0.0,0.75,0.5,1.0,0.5,0.5,0.5,-0.55,0.89,2.45,183.74,4.2,16.2,3.0,1.0,5.0,7.75,8.0,5.0,3.5,4.0,2.0,0.75,2.25,1.25,1.0,0.08,0.08,0.95,648.78,-7.4,26.4
2.0,1.0,1.0,0.5,1.5,1.75,0.5,0.0,0.75,0.5,0.25,0.5,0.5,0.75,-0.67,1.45,2.77,176.87,6.4,20.1,4.5,2.5,6.5,11.0,8.25,6.25,4.75,4.0,1.5,0.5,2.5,0.0,1.25,0.08,0.08,0.95,695.7,-9.4,37.0
2.02,1.0,1.0,0.5,1.5,1.75,0.75,0.0,0.75,0.75,1.0,0.5,0.5,0.75,-0.73,2.39,2.45,176.69,4.4,12.6,3.75,1.75,6.75,11.5,9.25,6.25,4.75,2.75,1.25,0.5,2.25,0.0,0.25,0.08,0.08,0.95,745.97,-10.0,41.8
2.04,0.75,1.0,0.25,1.5,1.75,0.75,0.0,0.75,0.5,0.75,0.5,1.0,0.75,-0.36,2.95,1.83,172.38,3.4,7.0,3.75,1.5,8.0,11.5,9.75,6.5,5.25,2.75,1.5,2.0,2.5,0.0,0.75,0.08,0.14,0.95,823.29,-9.5,36.4
2.06,1.0,1.0,0.5,1.5,1.25,0.75,0.0,0.75,0.75,0.25,0.5,0.5,0.75,0.27,3.33,1.33,166.0,6.4,17.0,6.25,2.25,8.75,14.5,12.0,6.75,5.5,2.75,1.25,1.75,1.5,0.75,0.5,0.08,0.14,1.02,950.28,-10.8,42.8
2.08,0.5,0.0,0.5,1.5,1.75,1.0,0.0,0.75,0.25,0.0,0.5,0.0,0.75,1.39,5.64,0.27,147.45,2.5,19.1,6.5,0.0,9.25,16.0,12.5,6.75,5.75,2.75,1.25,2.0,2.25,0.75,0.75,0.08,0.14,1.02,1073.84,-10.9,39.2
2.1,0.0,0.0,0.0,0.0,0.0,0.0,0.0,0.0,0.25,0.0,0.0,0.0,0.0,4.64,6.33,-1.17,95.05,12.1,-38.5,7.0,3.0,9.75,16.0,13.5,6.5,5.75,2.75,1.25,1.25,2.25,0.5,1.25,0.02,0.14,1.02,1210.59,-11.3,43.3
2.12,0.0,0.0,0.0,0.0,0.0,0.0,0.0,0.0,0.25,0.75,0.0,2.0,1.0,-0.05,-1.3,-0.98,63.37,-1.2,-99.0,7.0,2.5,9.75,0.0,13.0,5.25,5.25,2.75,0.75,0.25,2.0,0.0,0.5,0.02,0.2,1.02,1118.54,-11.2,45.8
2.14,0.0,0.0,0.0,0.0,0.0,0.0,0.0,0.0,0.25,3.5,1.0,5.5,5.25,0.52,0.45,4.14,114.04,-4.2,-98.9,8.25,2.0,5.75,16.0,13.5,4.25,4.75,2.25,0.75,0.5,0.75,0.0,0.25,0.02,0.2,1.14,1103.32,-12.0,52.4
2.16,0.0,0.75,0.0,1.0,0.0,1.75,0.0,2.25,1.25,7.25,5.75,8.0,7.0,1.27,0.45,1.95,257.36,-3.2,-73.7,8.25,3.0,12.5,16.0,15.0,3.0,3.5,0.25,0.25,0.0,0.75,0.25,1.0,-0.05,0.27,1.02,1109.65,-15.6,56.6
2.18,0.0,1.25,0.0,1.5,1.75,3.0,0.0,4.5,2.25,6.5,8.25,8.25,7.75,0.02,0.2,1.27,433.68,-2.8,-60.0,8.75,3.0,12.5,16.0,14.5,3.0,3.5,1.0,0.75,0.0,2.25,0.0,1.0,0.02,0.33,1.14,1184.97,-15.5,52.9
2.2,1.5,1.25,0.0,1.75,1.25,3.0,0.25,4.75,2.75,5.75,7.75,8.25,8.0,-0.11,-0.05,0.95,629.16,-1.4,-55.2,10.0,3.75,11.5,16.0,12.0,2.0,2.75,1.25,0.25,0.75,2.25,0.25,1.25,0.14,0.45,1.33,1225.78,-16.1,52.1
2.22,1.25,1.25,0.0,1.75,1.25,3.25,0.25,4.75,3.5,7.5,8.75,8.25,8.25,-0.05,-0.05,0.95,785.34,-1.8,-56.7,10.0,3.5,12.0,14.5,11.0,2.5,4.0,1.25,0.5,0.75,2.25,0.0,1.0,0.27,0.58,1.64,1229.99,-16.6,52.4
2.24,1.5,1.25,0.0,2.0,0.0,3.5,1.0,5.5,4.25,7.5,9.25,8.25,8.25,-0.05,-0.05,0.95,884.9,-1.2,-57.1,8.5,2.75,9.25,9.0,8.0,0.75,5.0,1.25,0.75,0.75,0.75,0.0,0.25,0.45,1.08,2.27,1050.67,-18.5,55.7
2.26,1.75,1.25,0.75,3.25,1.25,4.0,0.5,5.75,4.75,7.5,9.25,8.0,8.0,-0.05,-0.05,0.95,963.1,-0.4,-48.1,7.5,1.75,7.25,6.0,6.5,0.25,4.25,1.25,0.5,0.0,0.0,0.0,0.25,0.7,2.08,3.08,807.57,-19.7,59.7
2.28,1.75,1.25,1.5,4.25,1.75,4.25,1.5,5.75,5.0,7.25,8.75,7.5,7.25,-0.05,-0.05,0.95,1016.31,0.6,-40.9,4.5,1.0,6.25,4.0,4.25,0.0,2.25,1.0,0.25,0.0,0.5,0.0,0.25,1.14,1.27,3.89,537.96,-20.3,55.7
2.3,0.75,1.0,2.5,4.5,4.25,5.0,2.25,5.75,5.0,6.25,8.0,6.75,6.5,-0.05,-0.05,0.95,1046.83,0.7,-32.6,0.5,0.25,2.75,2.0,0.0,0.25,0.5,1.0,0.0,0.0,0.0,0.0,0.25,0.64,-1.05,2.45,288.45,-19.7,42.3
2.32,1.75,1.0,2.75,4.75,5.75,5.25,3.0,5.75,5.0,5.5,7.25,6.0,5.75,-0.05,-0.05,0.95,1049.31,1.7,-23.4,1.0,0.25,2.5,1.75,4.25,0.0,0.25,1.25,0.25,0.0,0.0,0.0,0.25,0.58,-0.92,2.89,163.94,-10.6,45.2
2.34,2.0,1.0,3.0,6.0,5.75,5.25,4.0,5.5,5.0,4.75,6.5,5.0,4.75,-0.05,-0.05,0.95,1025.27,2.9,-15.8,0.75,0.5,2.0,1.25,3.75,0.0,0.25,1.25,0.0,0.0,0.0,0.0,0.25,1.27,-1.17,1.89,65.78,-9.2,45.4
2.36,1.5,1.25,4.0,6.25,5.75,5.5,3.75,4.75,4.75,4.0,5.25,3.5,3.0,-0.05,-0.05,0.95,948.53,4.0,-5.6,0.5,0.25,1.75,1.25,4.25,0.25,0.25,1.25,0.25,0.0,0.0,0.0,0.25,0.77,-1.05,0.52,34.64,-6.6,40.9
2.38,2.0,1.0,5.0,6.75,5.75,5.25,4.25,4.75,4.25,3.5,4.25,2.5,2.25,-0.05,-0.05,0.95,862.26,5.5,2.8,0.0,1.0,1.75,2.75,3.75,0.0,0.5,1.75,0.25,0.0,0.0,0.0,0.25,0.39,-0.67,0.33,10.81,-7.5,40.8
2.4,2.0,1.25,5.25,7.75,6.0,5.5,4.25,4.5,4.0,2.5,3.0,2.0,1.5,-0.05,-0.05,0.95,784.51,6.5,12.2,0.5,0.25,1.5,1.25,3.75,0.25,0.5,1.0,0.5,0.5,0.0,0.0,0.25,0.27,-0.48,0.7,11.2,-6.3,34.2
2.42,3.0,1.25,6.0,9.25,7.25,5.75,3.75,4.25,3.5,2.25,2.25,2.0,1.0,-0.05,0.02,0.95,762.9,7.6,20.8,2.0,1.0,2.5,2.75,5.25,0.25,0.5,1.25,0.75,1.0,2.0,0.25,1.25,0.27,-0.48,0.77,79.88,-8.7,22.5
2.44,3.5,1.75,6.75,9.75,7.75,6.0,4.5,3.5,2.75,2.25,2.0,1.25,1.0,-0.05,0.02,0.95,770.54,8.6,27.8,0.5,0.25,1.5,1.0,4.25,0.0,0.5,1.0,0.25,0.0,0.0,0.0,0.25,0.33,-0.3,0.77,91.12,-7.1,42.0
2.46,3.5,1.25,8.0,12.5,8.0,6.0,4.25,3.0,2.5,2.25,2.0,1.25,0.75,-0.05,0.02,0.95,808.05,9.9,31.2,0.5,0.0,1.5,1.0,3.75,0.0,0.5,1.0,0.0,0.25,0.0,0.0,0.25,0.33,-0.11,0.89,109.47,-6.8,38.6
2.48,3.25,1.25,8.25,12.5,8.0,5.75,3.0,3.0,1.75,0.5,0.5,0.5,0.0,-0.05,0.02,1.02,802.74,11.1,43.7,0.75,0.75,1.25,1.25,3.75,0.0,0.5,1.0,0.0,0.0,0.0,0.0,0.25,0.27,0.14,1.14,119.34,-7.9,47.5
2.5,3.5,1.25,9.0,14.0,9.25,6.0,3.75,2.0,1.5,0.0,0.5,0.25,0.25,-0.05,0.08,1.02,816.14,12.1,47.9,0.5,0.0,1.25,1.0,3.5,0.25,0.5,1.0,0.0,0.0,0.0,0.0,0.25,0.27,0.33,1.2,126.56,-6.0,40.6
2.52,4.75,1.25,9.75,15.0,9.25,5.75,3.25,2.5,1.0,0.0,0.0,0.0,0.25,-0.05,0.08,1.02,834.59,12.9,51.4,1.75,0.25,1.0,1.25,3.5,0.0,0.25,1.0,0.5,0.75,0.0,0.25,0.75,0.27,0.52,1.45,144.4,-7.0,27.2
2.54,5.5,1.5,9.75,15.5,9.5,5.5,4.25,2.5,1.0,0.0,0.0,0.25,0.5,-0.05,0.08,0.95,880.52,13.3,50.7,2.0,0.75,2.5,2.0,4.75,0.5,0.5,1.25,0.75,0.75,1.5,0.25,1.0,0.27,0.58,1.64,197.79,-8.8,24.7
2.56,6.25,1.25,10.5,15.0,9.25,5.0,3.75,1.5,1.0,0.0,0.0,0.0,0.0,-0.05,0.14,1.02,905.59,15.1,55.3,1.25,1.0,2.5,1.25,4.75,0.5,0.75,1.25,0.25,0.0,1.5,0.0,1.0,0.33,1.08,2.27,222.86,-8.6,29.8
2.58,6.75,1.25,11.5,17.0,10.5,4.0,1.75,1.0,1.0,0.0,0.0,0.25,0.0,-0.05,0.14,1.02,951.25,15.9,56.8,1.25,1.5,1.0,1.25,4.75,0.25,0.5,1.25,0.75,0.75,1.75,0.0,1.0,0.39,1.89,2.64,241.52,-5.2,20.6
2.6,7.25,1.25,12.0,16.0,12.0,3.0,0.25,0.75,1.0,0.0,0.0,0.5,0.0,-0.05,0.14,1.14,979.15,16.2,57.5,1.25,1.0,2.5,1.75,4.75,1.0,0.5,1.25,0.75,0.5,1.5,0.25,1.0,0.14,3.08,2.58,254.92,-7.3,24.1
2.62,8.5,2.5,12.5,18.5,12.0,3.0,0.0,0.75,1.0,1.75,0.0,0.5,0.0,-0.05,0.2,1.14,1054.35,15.7,55.5,0.5,1.0,2.5,1.25,3.5,0.25,0.25,1.0,0.75,0.75,0.0,0.25,0.25,-0.36,3.7,1.7,241.08,-8.9,33.5
2.64,8.75,2.75,14.0,18.5,14.0,1.75,0.0,2.25,0.75,0.0,0.5,0.25,0.75,-0.17,0.27,1.33,1145.76,16.1,55.7,1.25,1.25,2.5,1.25,4.75,0.25,0.5,1.25,0.75,0.75,1.25,0.25,1.0,-0.98,4.58,0.52,244.31,-7.9,23.8
2.66,7.75,1.25,12.0,15.0,9.75,0.0,0.0,0.75,0.5,0.0,0.0,0.25,0.0,-0.3,0.33,1.64,1078.0,19.6,61.3,1.5,0.75,2.5,1.25,4.5,0.5,0.5,1.25,0.5,0.25,2.25,0.25,1.25,-2.36,6.89,0.08,245.32,-8.4,18.5
2.68,7.5,1.75,11.5,12.5,8.0,0.0,0.0,0.75,0.5,0.75,0.0,0.5,0.0,-0.42,0.45,1.7,959.69,19.8,58.9,1.0,0.0,1.0,1.25,4.25,0.0,0.5,1.25,0.25,0.5,2.5,2.75,3.25,-0.8,-0.86,-0.36,260.76,-3.4,-23.5
2.7,7.0,1.25,9.0,12.5,7.25,0.5,0.5,1.0,1.0,1.25,0.5,0.5,1.0,-0.55,0.95,2.27,822.5,17.1,49.1,1.75,1.0,0.75,0.5,2.75,1.25,0.0,1.0,0.75,3.0,2.25,6.0,6.0,-0.17,-0.36,2.7,295.7,-0.3,-45.3
2.72,5.25,0.75,6.5,6.5,5.75,0.0,0.0,0.75,1.0,0.0,0.0,0.5,0.0,-0.73,2.2,3.33,623.86,19.1,56.7,0.5,0.5,1.0,1.0,3.5,0.0,0.0,1.25,0.75,6.0,4.5,6.25,8.0,-0.73,0.45,1.39,370.72,1.4,-59.2
2.74,2.25,0.0,5.0,4.5,5.75,0.0,0.0,0.75,1.0,0.5,0.5,0.5,0.25,-0.8,1.14,3.64,433.3,14.8,41.8,0.25,0.25,1.0,2.0,2.75,2.25,0.75,3.75,1.5,8.0,6.5,7.25,8.75,0.89,0.33,1.45,510.48,2.7,-57.2
2.76,0.25,0.0,1.25,1.75,1.25,0.0,0.0,0.5,0.25,0.0,0.0,0.25,0.0,-0.67,-1.42,1.77,249.77,13.9,39.4,0.5,1.25,1.25,0.75,5.25,0.5,0.5,4.25,1.5,7.75,8.0,6.5,8.0,-0.05,0.02,1.08,636.26,1.6,-50.7
2.78,0.25,0.0,0.25,1.75,1.25,0.0,0.0,0.75,0.25,0.0,0.0,0.25,0.0,-0.86,-1.17,1.89,106.59,7.4,31.1,0.5,0.5,0.25,1.25,4.25,2.0,0.25,4.0,1.75,7.75,7.25,6.5,8.0,0.14,0.08,0.95,723.93,3.3,-54.4
2.8,0.25,0.0,0.5,1.5,0.75,0.0,0.0,0.75,0.25,0.0,0.0,0.25,0.0,-1.23,-1.3,1.45,0.0,10.0,28.3,0.75,0.25,1.75,0.0,5.75,2.75,0.5,4.25,2.5,7.75,8.0,6.5,8.75,0.14,0.08,0.95,798.01,2.4,-49.5
2.82,0.0,0.0,0.25,1.25,0.75,0.0,0.0,0.75,0.25,0.0,0.0,0.25,0.0,-0.55,-0.98,0.7,0.0,6.0,19.5,1.5,0.75,1.25,1.0,4.5,2.5,1.0,5.25,2.75,7.75,8.5,6.5,8.0,0.08,0.08,0.95,844.96,1.4,-46.9
2.84,0.0,1.0,0.25,2.25,0.0,0.75,0.0,0.5,1.0,0.75,0.0,0.5,0.0,-0.3,-0.8,0.58,0.0,6.1,15.4,0.75,0.75,1.5,1.25,4.75,2.75,1.25,5.25,3.25,7.0,8.25,6.0,7.5,0.08,0.08,0.95,866.13,1.3,-44.8
2.86,1.5,0.75,1.75,2.5,1.75,0.5,0.0,0.75,0.75,1.0,0.75,0.5,0.5,-0.17,-0.55,0.64,0.0,10.6,22.5,1.25,1.0,1.5,1.75,5.0,3.0,1.0,5.25,3.25,6.5,7.75,5.5,6.25,0.08,0.08,0.95,858.93,0.6,-37.8
2.88,1.25,0.75,1.5,1.75,1.75,1.0,0.0,0.75,1.0,1.0,0.5,0.5,0.5,-0.17,-0.48,0.7,15.16,7.9,19.2,1.25,0.75,2.5,2.0,5.5,3.25,0.25,5.0,3.5,5.75,7.25,5.25,6.0,0.08,0.08,0.95,827.05,0.0,-33.3
2.9,1.25,1.0,1.25,1.75,1.75,0.75,0.0,0.75,0.75,1.0,0.5,0.5,0.5,-0.17,-0.36,0.89,78.13,7.8,20.9,1.75,0.75,2.5,2.75,5.5,3.0,2.0,4.25,3.25,5.25,6.25,4.0,5.0,0.08,0.08,0.95,767.68,-1.6,-24.4
2.92,1.5,1.25,1.25,1.25,1.75,0.75,0.0,0.75,0.5,0.75,0.5,0.5,0.75,-0.05,-0.17,0.95,112.45,8.0,23.0,2.0,0.75,2.75,3.75,5.75,3.25,2.5,4.0,3.25,2.75,5.5,3.0,4.0,0.08,0.08,0.95,698.26,-3.6,-12.0
2.94,1.0,0.75,1.0,1.5,1.75,0.5,0.0,0.75,0.75,0.75,0.5,0.5,0.5,0.02,0.02,1.14,132.99,7.4,17.4,3.5,1.0,4.0,3.75,6.25,3.25,2.75,4.0,2.75,2.0,4.5,2.0,2.5,0.08,0.08,0.95,636.09,-6.3,4.5
2.96,0.75,1.0,1.0,1.75,1.75,0.5,0.0,0.75,0.5,0.75,0.5,0.5,0.75,0.02,0.08,1.27,154.61,6.6,16.9,2.5,1.0,5.0,5.0,6.5,3.75,3.5,3.75,2.75,1.5,3.75,1.25,1.5,0.08,0.08,0.95,593.9,-7.4,14.0
2.98,1.0,1.0,1.0,1.75,1.75,0.5,0.0,0.75,0.75,0.75,0.75,0.5,0.75,-0.05,0.2,1.58,170.89,7.3,15.4,2.75,1.25,5.5,6.0,6.5,3.75,3.75,2.75,2.75,0.75,3.0,0.75,1.0,0.08,0.08,0.95,565.13,-9.6,24.7
3.0,1.25,1.0,0.5,1.5,1.75,0.25,0.0,0.75,0.75,1.0,0.5,0.5,0.5,-0.11,0.39,1.83,181.33,6.8,16.5,3.5,1.25,6.5,6.25,7.25,4.0,4.25,2.75,2.5,0.5,2.25,0.5,0.75,0.08,0.08,0.95,568.72,-10.8,32.1
3.02,1.25,0.5,0.5,1.0,1.75,0.0,0.0,0.75,0.75,1.25,0.75,0.5,0.75,-0.23,0.45,2.27,173.99,5.6,1.9,3.5,1.75,6.75,7.75,7.75,4.25,4.75,2.75,2.0,0.5,2.25,0.25,0.5,0.08,0.08,0.95,593.28,-11.1,36.7
3.04,1.25,1.0,0.75,1.75,1.25,0.75,0.0,0.75,0.5,0.75,0.5,0.5,0.75,-0.3,1.02,3.02,169.7,6.9,17.7,3.5,1.25,7.75,8.25,8.0,4.75,5.0,2.5,2.0,0.5,2.25,0.25,0.5,0.08,0.08,0.95,627.44,-11.5,37.3
3.06,0.75,0.0,0.5,1.0,1.75,0.75,0.0,0.75,0.5,0.75,0.5,0.5,0.75,-0.36,2.08,2.77,154.42,2.2,1.4,4.5,2.0,8.0,9.5,8.5,5.0,5.25,2.5,1.75,0.5,2.25,0.0,0.25,0.08,0.08,0.95,688.42,-12.1,42.2
3.08,0.5,1.0,0.5,1.0,1.25,0.25,0.0,0.75,0.5,0.75,0.5,0.5,0.75,-0.61,2.89,2.14,138.37,4.4,5.2,4.75,1.75,8.75,11.0,9.25,5.0,5.75,2.5,1.5,0.5,2.0,0.0,0.0,0.08,0.08,0.95,762.09,-12.7,44.7
3.1,0.75,0.75,0.5,1.75,1.25,0.5,0.0,0.75,0.5,0.0,0.5,0.25,0.5,1.64,5.77,-0.42,125.29,7.7,25.2,5.5,1.75,10.5,11.5,9.75,5.0,6.0,2.25,1.5,1.75,2.5,0.75,0.25,0.02,0.14,1.02,865.49,-13.0,40.1
3.12,0.75,0.75,0.0,1.5,0.0,0.75,0.0,0.5,0.75,1.25,0.0,1.25,0.0,2.14,6.02,1.83,116.98,4.9,-2.4,7.0,3.0,11.0,14.5,11.5,5.75,6.25,2.5,1.5,1.5,1.75,0.75,1.0,0.02,0.14,1.02,1023.02,-12.7,43.4
3.14,0.75,0.0,0.5,1.5,1.25,0.75,0.0,0.75,0.5,0.0,1.25,3.5,2.75,-0.55,-0.42,1.33,139.87,3.5,-39.4,7.5,2.75,12.0,0.0,12.0,5.25,6.5,2.5,1.5,1.5,2.25,0.5,1.0,0.08,0.14,1.08,1046.89,-12.4,39.7
3.16,1.0,0.0,0.25,1.5,0.75,1.0,0.0,0.5,1.0,5.25,3.0,7.5,6.25,-0.8,0.08,1.14,234.16,-0.8,-68.4,8.0,3.25,12.5,0.0,12.5,4.0,5.5,1.25,1.25,1.0,1.5,0.0,0.0,0.02,0.2,1.08,1013.37,-14.9,51.3
3.18,0.0,0.75,0.0,1.5,0.0,2.0,0.0,0.5,1.75,7.5,5.5,8.25,7.5,0.27,0.77,3.95,349.04,-2.4,-73.0,8.0,1.75,12.0,15.5,12.0,4.0,4.75,0.25,1.0,0.25,1.25,0.0,0.25,-0.05,0.2,1.08,1031.8,-16.3,55.1
3.2,0.0,1.0,0.0,1.5,1.25,1.75,0.0,4.75,2.0,7.75,8.25,8.25,8.5,-0.11,0.33,1.58,529.72,-3.1,-66.1,8.5,2.5,12.5,15.5,12.0,0.0,4.0,0.0,1.25,0.75,1.75,0.0,0.25,0.02,0.27,1.33,1053.56,-18.8,55.4
3.22,0.75,0.75,0.0,1.75,0.0,3.0,0.0,4.75,2.75,8.25,8.75,8.25,8.25,-0.05,0.02,0.89,694.42,-2.7,-64.6,9.5,3.25,12.5,16.0,11.0,0.75,2.25,0.0,1.0,1.0,1.75,0.5,1.0,0.14,0.39,1.33,1100.81,-18.1,53.2
3.24,1.25,0.5,0.0,2.5,1.75,4.25,0.25,5.75,3.5,8.25,9.25,8.25,8.25,-0.05,0.02,0.95,849.48,-2.4,-54.6,10.0,3.5,14.5,14.0,11.0,0.25,2.5,1.25,0.75,0.0,0.0,0.0,0.75,0.2,0.45,1.58,1119.17,-19.5,60.3
3.26,1.5,1.25,1.0,3.75,0.0,4.0,0.25,5.75,4.25,8.0,9.5,8.25,8.25,-0.05,-0.05,0.95,950.77,-0.4,-51.1,9.0,2.0,12.0,9.0,6.5,0.5,3.25,0.75,0.0,0.5,0.75,0.25,0.25,0.27,0.58,1.89,996.27,-21.5,58.9
3.28,1.75,1.0,1.5,2.5,0.75,4.25,0.75,5.75,4.5,7.75,9.5,7.75,8.0,-0.05,-0.05,0.95,1013.91,-0.3,-49.4,7.0,1.75,8.25,6.0,4.5,0.75,3.5,1.0,0.0,0.5,2.0,0.0,1.0,0.89,2.02,3.08,787.73,-19.5,48.7
3.3,1.75,1.25,2.0,4.5,3.5,5.25,1.75,5.75,5.0,7.5,8.75,7.0,7.25,-0.05,-0.05,0.95,1064.34,0.5,-34.7,3.25,0.75,6.5,4.0,3.25,0.0,1.5,1.0,0.0,0.25,2.0,0.0,0.25,1.39,1.27,3.89,531.75,-19.9,44.8
3.32,2.0,1.25,2.75,4.75,5.75,4.5,2.5,5.75,4.75,6.25,7.75,6.0,6.25,-0.05,-0.05,0.95,1071.46,1.7,-25.1,3.0,1.25,5.0,2.0,4.75,1.25,0.5,1.0,0.75,0.75,2.25,0.5,1.0,0.14,-0.86,2.27,371.8,-12.4,29.5
3.34,1.75,1.25,3.0,6.0,5.75,5.0,3.0,5.75,4.75,5.25,6.75,5.0,5.25,-0.05,-0.05,0.95,1051.12,2.3,-17.9,0.75,0.75,2.5,3.5,4.25,0.75,0.25,0.75,0.5,0.75,0.0,0.5,0.25,0.83,-1.05,1.89,253.78,-9.2,38.0
3.36,2.25,1.0,3.75,6.25,5.75,5.5,3.25,5.75,4.25,4.75,5.75,3.75,4.0,-0.05,0.02,0.95,997.25,3.1,-9.5,1.25,0.75,3.75,2.75,4.25,0.25,0.5,1.0,0.25,0.75,0.5,0.75,0.25,1.2,-0.92,1.08,197.35,-12.3,35.2
3.38,2.25,1.0,4.5,7.5,5.75,5.75,3.75,4.75,4.25,4.0,4.5,2.75,2.75,-0.05,0.02,0.95,924.92,4.8,0.9,1.5,0.25,3.0,1.25,5.0,0.5,0.25,1.0,0.75,0.0,1.0,0.0,0.75,0.77,-0.73,0.27,158.83,-9.9,33.3
3.4,2.5,1.5,5.0,7.75,6.5,6.0,3.75,4.75,4.0,3.5,4.0,2.0,2.0,-0.05,0.02,0.95,860.2,5.4,9.0,0.75,0.25,1.75,1.0,4.25,0.0,0.25,0.75,0.25,0.0,0.25,0.0,0.25,0.45,-0.55,0.14,106.98,-8.8,43.1
3.42,2.75,1.5,5.25,8.75,7.25,5.75,4.25,4.75,3.75,3.5,3.0,2.0,1.25,-0.05,0.02,0.95,828.2,6.2,14.8,0.75,0.25,1.0,1.0,3.75,0.0,0.25,0.75,0.25,0.0,0.25,0.0,0.25,0.2,-0.42,0.39,51.55,-7.1,40.9
3.44,3.0,1.25,6.0,9.5,7.75,6.0,4.25,4.5,3.25,3.0,2.5,2.0,1.0,-0.05,0.02,0.95,816.96,7.0,19.7,1.0,0.75,1.0,2.5,3.75,0.0,0.5,0.75,0.75,0.75,0.25,0.25,0.25,0.14,-0.48,0.64,48.66,-8.2,33.5
3.46,3.25,1.5,6.5,11.5,7.75,6.5,3.0,4.0,2.75,2.25,2.0,1.75,1.0,-0.05,0.02,0.95,824.79,7.8,26.2,0.5,0.25,1.5,1.0,3.0,0.0,0.0,0.5,0.0,0.0,0.0,0.0,0.25,0.2,-0.48,0.77,35.69,-9.7,48.2
3.48,3.25,1.25,7.25,12.5,8.75,6.5,2.75,3.5,2.5,2.0,2.0,1.25,1.0,-0.05,0.02,0.95,842.23,8.4,30.1,0.75,0.25,1.5,1.0,4.25,0.0,0.25,0.75,0.0,0.0,0.0,0.0,0.25,0.27,-0.36,0.83,55.76,-7.9,47.7
3.5,3.25,1.25,8.0,11.5,9.25,7.0,4.25,3.0,2.25,2.25,0.0,0.5,0.25,-0.05,0.02,0.95,847.56,8.9,38.7,0.5,0.25,1.25,2.0,4.75,0.25,0.5,1.0,0.5,0.75,1.5,0.5,0.25,0.2,-0.17,0.83,106.23,-5.7,18.7
3.52,3.25,1.25,8.0,12.5,8.25,6.0,3.0,3.0,1.5,0.0,0.5,0.25,0.0,-0.05,0.02,0.95,819.15,11.0,46.1,1.75,1.25,2.5,1.5,4.75,0.25,0.5,1.0,0.75,0.5,1.75,0.25,1.0,0.14,0.08,0.95,168.72,-9.5,25.7
3.54,3.5,1.25,8.25,14.0,9.25,6.5,2.0,2.75,1.25,0.75,0.0,0.25,0.0,-0.05,0.08,1.02,810.02,10.3,47.2,1.25,0.75,2.5,1.75,4.75,0.25,0.5,1.0,0.5,0.75,2.0,0.0,0.75,0.08,0.2,1.27,210.76,-8.8,24.1
3.56,5.0,1.75,8.25,14.0,9.5,6.0,3.0,3.0,1.25,0.75,0.25,0.25,0.0,-0.05,0.08,0.95,828.4,11.3,48.0,1.75,0.25,2.5,1.5,4.75,0.25,0.5,1.0,0.5,0.75,2.25,0.25,1.0,0.02,0.39,1.52,237.64,-8.9,18.2
3.58,5.75,1.25,9.0,15.0,9.75,6.75,4.25,3.0,1.25,0.0,0.0,0.0,0.0,-0.05,0.08,1.02,875.46,12.1,51.1,1.25,0.25,2.5,1.0,4.75,0.25,0.5,1.0,0.5,0.0,2.0,0.25,1.0,-0.05,0.45,1.58,246.05,-9.1,20.4
3.6,6.0,1.25,9.5,15.5,9.25,6.0,3.75,2.25,0.75,0.5,0.0,0.0,0.0,-0.05,0.14,1.02,911.72,13.2,52.6,2.0,0.5,2.5,1.25,4.5,0.0,0.5,1.0,0.0,0.0,0.0,0.0,0.25,0.02,0.64,1.95,234.98,-12.5,52.7
3.62,6.75,2.75,10.5,17.5,11.5,5.75,3.0,1.25,0.75,0.25,0.0,0.0,0.75,-0.05,0.14,1.08,993.78,13.6,54.8,0.5,0.25,1.0,1.5,3.0,0.25,0.0,0.75,0.25,0.25,0.0,0.25,0.25,0.14,1.02,2.45,204.3,-6.1,34.8
3.64,6.75,1.25,11.0,17.0,12.0,4.5,0.0,1.0,0.75,0.5,0.0,0.25,0.0,-0.05,0.14,1.02,1018.74,14.3,56.1,1.25,0.75,2.5,1.25,4.75,0.5,0.25,0.75,0.5,0.75,0.0,0.25,0.25,0.2,1.77,3.02,204.49,-8.8,40.0
3.66,7.5,1.5,11.5,15.5,12.0,4.0,0.25,0.75,0.75,0.0,0.0,0.25,0.0,-0.05,0.2,1.2,1028.24,15.4,58.6,1.25,0.75,1.5,1.5,3.5,0.75,0.5,1.0,0.5,0.0,2.25,0.0,1.0,0.33,2.77,2.77,203.99,-7.6,19.5
3.68,8.5,2.75,12.5,18.0,14.0,3.5,0.0,2.5,0.75,0.5,0.5,0.25,0.75,-0.17,0.2,1.33,1103.78,14.2,53.5,1.25,1.25,2.5,1.75,4.5,0.5,0.5,1.0,0.25,0.5,2.0,0.25,1.0,0.33,3.45,1.14,225.04,-8.6,24.4
3.7,7.75,1.5,12.5,15.5,13.0,1.0,0.0,0.75,0.5,0.0,0.0,0.25,0.0,-0.17,0.27,1.45,1083.29,17.5,60.4,1.5,0.75,2.5,1.25,4.5,0.75,0.5,1.0,0.25,0.5,2.0,0.0,1.0,-0.61,4.02,0.08,238.9,-8.2,24.2
3.72,7.75,1.25,11.5,13.5,9.25,0.25,0.0,0.75,0.25,0.0,0.0,0.25,0.0,-0.3,0.33,1.77,990.99,19.6,61.9,1.25,0.75,1.0,1.25,4.5,0.5,0.75,1.0,0.75,1.25,2.25,0.75,1.0,-1.98,5.64,-0.36,245.4,-4.9,6.5
3.74,6.75,1.25,9.75,10.0,7.75,0.25,0.0,0.75,1.0,0.5,0.0,0.5,0.0,-0.48,0.64,1.95,832.72,19.0,57.2,1.5,0.75,1.75,1.0,4.75,1.25,0.5,1.0,0.25,0.5,2.25,3.25,2.75,-0.92,0.08,-0.67,258.92,-4.5,-8.7
3.76,6.25,1.25,8.0,9.25,7.5,0.75,0.0,0.75,0.75,0.0,0.5,0.25,0.75,-0.61,1.52,2.7,689.94,17.3,54.6,1.75,0.75,1.0,1.5,2.75,1.5,0.0,0.75,0.75,5.25,3.0,7.0,6.25,-0.11,-0.17,1.02,317.4,-0.2,-47.0
3.78,4.5,1.25,4.75,6.25,5.0,0.75,0.0,0.75,0.75,0.5,0.5,0.25,0.75,-0.8,1.2,2.7,507.54,15.3,48.5,1.25,0.0,2.5,1.0,3.0,0.75,0.5,1.0,0.75,6.5,5.5,6.75,8.0,-0.67,0.52,2.39,413.91,-0.8,-54.4
3.8,1.25,0.0,4.0,2.0,5.5,0.0,0.0,1.0,0.25,0.0,0.0,0.5,0.0,-0.67,-0.11,2.02,338.28,13.1,46.7,1.25,1.0,2.5,1.5,4.25,1.5,0.5,2.5,1.5,8.25,7.5,6.5,8.0,0.95,0.27,2.83,565.4,-0.1,-45.8
3.82,0.75,0.0,1.0,1.75,1.25,0.25,0.0,0.75,0.25,0.0,0.0,0.0,0.0,-0.36,-1.23,0.83,195.03,12.1,45.5,0.0,0.0,3.5,1.5,5.75,1.0,0.25,4.0,1.75,7.75,8.5,6.5,8.75,0.02,0.27,1.52,709.47,0.3,-48.4
3.84,0.25,0.0,0.25,1.25,1.25,0.0,0.0,0.75,0.25,0.5,0.0,0.0,0.0,-0.86,-1.17,1.45,57.1,3.8,24.3,0.0,0.5,1.0,1.0,4.5,1.25,0.5,4.0,2.0,8.0,8.25,6.5,8.25,0.14,0.14,1.02,793.47,2.4,-55.9
3.86,0.25,0.0,0.0,1.5,0.75,0.25,0.0,0.75,0.25,1.0,0.0,0.5,0.0,-0.48,-0.98,0.83,0.0,1.1,0.0,1.25,1.0,1.5,1.0,4.5,2.75,0.0,5.0,2.75,8.0,8.5,6.5,8.0,0.08,0.08,0.95,853.7,1.7,-46.8
3.88,1.5,1.25,0.25,2.25,1.75,1.5,0.0,1.0,0.75,1.25,0.5,0.5,0.5,-0.23,-0.67,0.33,0.0,3.9,19.9,1.5,0.75,1.0,1.25,4.75,2.75,1.25,4.0,3.25,7.75,8.75,6.25,7.5,0.08,0.08,0.95,868.81,0.9,-45.1
3.9,1.5,1.0,1.5,1.75,1.75,1.75,0.0,0.75,0.75,0.5,0.5,0.5,0.75,0.02,-0.55,0.39,0.0,7.2,25.1,3.0,1.25,1.5,3.25,4.75,2.75,1.25,4.0,3.25,7.75,9.25,7.0,7.5,0.08,0.08,0.95,910.6,-1.3,-36.5
3.92,1.5,1.0,1.5,1.75,1.75,1.0,0.0,0.75,0.75,0.75,0.5,0.5,0.75,0.08,-0.55,0.58,44.15,8.4,22.6,2.75,0.25,1.25,0.5,4.75,2.75,0.75,4.0,3.25,7.25,8.5,6.0,7.25,0.08,0.08,0.95,888.84,0.3,-43.5
3.94,1.25,1.25,1.25,1.75,1.75,1.0,0.0,0.75,0.75,0.75,0.5,0.75,0.75,0.14,-0.55,0.83,88.92,7.4,19.5,3.0,0.75,2.5,1.75,4.75,2.25,1.75,4.0,3.25,6.5,8.0,5.5,6.25,0.08,0.08,0.95,862.32,-2.2,-33.3
3.96,1.5,1.0,1.5,1.5,1.75,1.25,0.0,0.75,0.75,0.5,0.75,0.5,0.75,0.2,-0.36,1.02,119.64,8.2,22.2,2.25,0.75,2.75,1.75,4.75,2.75,1.75,4.0,3.5,6.5,7.5,5.25,5.75,0.08,0.08,0.95,805.78,-1.8,-32.4
3.98,1.5,1.0,1.25,1.75,1.25,1.0,0.0,0.75,0.75,1.0,0.5,0.5,0.75,0.33,-0.05,0.95,138.27,7.8,18.4,2.5,1.5,4.75,3.25,6.5,4.5,2.75,4.0,4.0,6.5,8.0,5.25,6.0,0.08,0.08,0.95,821.94,-3.2,-19.9
4.0,1.25,1.25,1.0,1.25,1.75,1.25,0.0,0.75,0.5,0.25,0.5,0.5,0.75,0.45,0.33,1.14,152.5,6.5,25.4,3.75,1.5,5.0,4.0,6.5,5.0,2.5,4.0,4.0,6.0,7.5,5.0,5.5,0.08,0.02,0.95,848.81,-4.1,-13.8
4.02,1.5,1.25,1.0,1.5,1.25,1.25,0.0,0.75,0.75,0.0,0.75,0.5,0.5,0.45,0.52,1.27,169.4,9.1,28.0,3.75,1.75,5.0,4.0,6.5,4.0,3.0,4.0,4.0,5.0,7.0,3.0,5.0,0.08,0.08,0.95,866.41,-5.0,-7.9
4.04,1.25,1.0,1.0,1.5,1.75,1.0,0.0,0.75,0.5,0.5,0.5,0.75,0.75,0.2,0.77,1.33,180.32,6.8,19.2,3.25,0.75,5.25,3.5,6.5,2.75,3.25,4.0,3.5,3.5,6.75,2.75,4.25,0.08,0.08,0.95,822.32,-6.2,-7.6
4.06,1.0,1.25,0.5,1.5,1.75,1.0,0.0,0.75,0.5,0.75,0.5,0.5,0.75,-0.17,1.02,1.45,181.79,4.3,18.2,3.75,1.0,5.0,4.0,6.0,3.5,3.0,3.75,3.25,3.25,5.25,2.5,4.0,0.08,0.08,0.95,766.53,-6.2,-2.0
4.08,1.25,1.0,0.5,1.5,1.75,1.0,0.0,0.75,0.5,0.5,0.5,0.5,0.75,-0.55,1.33,1.58,175.33,5.2,20.2,5.0,1.25,6.0,5.75,7.25,5.0,4.0,4.0,4.25,3.75,5.5,2.75,3.0,0.08,0.08,0.95,779.62,-7.2,5.8
4.1,1.0,1.0,0.75,1.5,1.75,0.25,0.0,0.75,0.5,0.0,0.5,0.5,0.75,-1.05,1.83,1.45,161.62,8.6,23.4,5.25,1.25,6.75,6.0,8.0,5.0,4.5,3.0,4.25,3.5,4.5,2.5,2.25,0.14,0.08,0.95,804.69,-8.5,12.8
4.12,1.25,1.0,0.5,1.5,1.75,0.5,0.0,0.75,0.75,1.25,0.5,0.0,0.5,-1.42,2.14,1.08,152.76,5.5,20.7,5.0,1.25,6.75,5.75,7.5,4.75,4.75,2.75,4.0,2.25,5.25,1.25,2.25,0.08,0.08,0.95,826.92,-9.4,16.0
4.14,1.25,1.0,0.5,1.5,1.75,0.5,0.0,0.75,0.5,1.0,0.5,0.5,0.75,-1.55,2.52,0.64,152.38,5.5,15.1,5.75,1.5,7.75,6.5,8.0,5.25,5.5,2.5,4.25,2.5,3.5,1.25,1.25,0.08,0.08,0.95,846.68,-10.6,24.5
4.16,1.0,1.0,0.5,1.75,1.75,0.75,0.0,0.75,0.25,1.0,0.5,0.5,0.75,-1.48,2.7,0.2,155.4,4.4,16.0,7.0,2.5,8.75,9.25,9.25,6.0,6.25,3.5,4.0,2.0,4.25,1.25,1.75,0.08,0.08,0.95,937.25,-10.8,27.7
4.18,1.0,1.0,0.5,1.5,1.25,0.25,0.0,0.75,0.25,0.5,0.5,0.75,0.75,-1.17,2.64,0.14,149.93,7.1,13.1,7.0,2.0,9.25,8.5,8.75,5.0,6.25,2.5,3.25,0.25,2.5,0.5,0.75,0.08,0.08,0.95,947.89,-13.5,39.6
4.2,1.0,0.0,0.75,0.0,1.25,0.0,0.0,0.75,1.0,0.0,0.5,0.0,0.25,-1.48,1.64,0.39,127.31,10.4,14.9,7.5,2.0,9.25,9.25,9.25,5.0,6.25,2.25,3.0,0.75,2.25,0.25,0.25,0.08,0.08,0.95,963.84,-13.8,42.8
4.22,0.0,0.0,0.0,0.0,0.0,0.0,0.0,0.0,0.0,0.0,0.0,0.0,0.0,-0.55,0.7,0.89,75.25,0.0,0.0,7.75,2.25,9.75,9.5,9.25,5.0,6.25,2.0,2.75,0.75,2.25,0.0,0.25,0.08,0.14,0.95,955.25,-14.3,44.9
4.24,0.0,0.5,0.0,0.0,0.0,2.5,1.0,0.0,0.25,0.0,0.0,0.0,0.0,-1.05,-0.61,0.89,47.59,-8.0,37.5,8.0,2.5,10.5,9.75,9.25,4.5,6.25,2.5,2.75,1.25,2.25,0.5,0.25,0.02,0.14,1.02,980.29,-14.4,42.6
4.26,0.0,0.0,0.0,0.0,0.5,6.25,0.0,4.5,0.0,0.0,0.0,0.25,0.0,-0.11,-0.05,0.7,70.34,-18.7,2.6,8.25,2.5,11.5,9.25,9.25,3.5,5.5,1.25,2.0,0.0,2.0,0.25,0.25,0.08,0.14,1.02,969.81,-16.9,50.3
4.28,0.25,0.0,0.0,1.25,0.0,3.5,0.0,0.0,1.25,0.75,0.0,3.25,0.25,0.33,0.33,1.14,99.51,-1.5,-26.7,8.75,2.5,11.5,9.5,9.25,3.0,4.75,1.0,1.5,0.0,2.25,0.0,0.25,0.02,0.14,1.02,960.17,-17.6,52.4
4.3,0.25,0.25,0.0,1.0,0.75,3.5,0.0,4.5,2.0,3.5,4.5,5.25,3.0,-0.05,-0.11,1.14,214.78,-3.6,-52.5,9.0,2.0,11.5,9.5,9.0,2.25,4.0,1.0,1.25,0.0,1.5,0.0,0.0,0.02,0.2,1.08,912.15,-18.6,55.7
4.32,0.5,0.5,0.0,1.75,1.25,4.0,0.0,3.0,2.75,4.0,5.25,6.25,4.0,-0.05,-0.05,0.95,313.89,-1.9,-49.2,9.25,2.0,11.5,9.25,8.0,1.0,1.75,1.25,1.25,0.0,1.25,0.0,0.0,0.02,0.2,1.02,840.74,-19.8,57.4
4.34,1.5,1.25,1.0,1.75,1.75,4.25,0.0,4.5,3.5,4.75,6.75,7.0,4.75,-0.05,0.02,0.95,466.45,-0.1,-41.7,9.0,1.75,11.5,7.75,7.25,0.0,0.0,0.75,1.0,0.0,0.0,0.25,0.25,0.02,0.27,1.08,747.66,-21.5,61.7
4.36,0.5,0.0,0.0,1.0,1.25,3.25,0.0,4.75,3.0,3.75,7.25,7.25,5.25,-0.05,-0.05,0.95,563.94,-2.0,-59.5,9.0,1.5,11.0,6.0,5.75,0.0,0.0,1.0,1.0,0.0,0.5,0.0,0.25,0.14,0.39,1.02,648.71,-22.4,60.7
4.38,0.25,0.25,0.0,1.5,0.0,3.25,0.0,5.0,3.5,4.75,7.75,7.0,4.75,-0.05,-0.05,0.95,636.87,-1.9,-61.3,8.25,1.25,9.75,5.0,5.75,0.0,0.0,1.0,1.0,0.25,0.0,0.0,0.25,0.33,0.52,0.89,545.14,-21.7,60.7
4.4,1.5,0.25,0.0,1.25,0.75,3.0,0.0,5.75,3.5,5.25,7.5,7.75,5.25,-0.05,-0.05,0.95,679.73,-1.3,-56.8,7.25,0.25,8.75,3.75,4.25,0.0,0.0,1.0,0.75,0.0,0.0,0.0,0.0,0.58,0.7,0.83,433.3,-23.6,62.3
4.42,0.0,0.0,0.0,0.75,0.0,3.0,0.0,4.75,3.5,5.75,7.75,7.5,5.75,-0.05,-0.05,0.95,699.34,-2.9,-68.8,5.0,0.0,7.0,1.75,4.25,1.0,0.0,1.0,0.75,0.0,0.0,0.0,0.0,0.7,0.83,0.7,344.05,-19.9,57.7
4.44,0.0,0.0,0.0,0.25,0.0,3.0,0.0,4.75,3.0,6.25,7.75,7.25,6.0,-0.05,-0.05,0.95,705.32,-3.7,-71.0,3.0,0.0,4.0,1.25,4.25,0.25,0.0,1.0,0.75,0.0,0.0,0.0,0.0,0.77,0.77,0.7,256.27,-16.4,53.2
4.46,0.0,0.25,0.0,1.75,0.0,2.5,0.0,4.75,3.0,7.0,7.75,8.25,6.75,-0.05,0.02,0.95,719.72,-2.7,-68.0,1.0,0.0,1.25,1.0,4.25,0.0,0.0,0.0,0.25,0.0,0.0,0.0,0.0,0.2,0.33,0.89,160.34,-10.2,57.4
4.48,0.0,1.0,0.0,0.0,1.75,3.0,0.0,4.75,3.0,7.5,8.0,9.0,6.75,-0.05,0.02,0.95,735.91,-3.3,-64.5,0.75,0.0,0.75,1.0,4.25,0.5,0.0,0.0,0.25,0.0,0.0,0.0,0.0,0.52,0.83,0.77,79.29,-5.8,54.6
4.5,0.75,1.25,0.0,0.75,0.75,2.5,0.0,5.75,2.5,8.0,9.25,9.25,8.25,-0.05,0.02,0.95,772.7,-2.7,-64.9,0.75,0.0,1.25,1.0,4.25,0.0,0.0,0.0,0.0,0.0,0.0,0.0,0.25,0.52,0.27,0.52,31.42,-8.7,53.9
4.52,1.0,1.25,0.25,1.5,0.0,2.25,0.0,5.0,2.25,7.75,9.0,9.5,8.5,-0.11,-0.05,0.95,796.95,-1.7,-65.0,0.75,0.0,1.5,1.0,4.25,0.25,0.0,0.5,0.5,0.0,0.0,0.0,0.25,0.02,0.2,0.64,22.5,-7.6,44.1
4.54,0.75,1.25,0.25,1.5,1.25,1.75,0.0,4.75,2.0,7.75,8.75,9.25,8.75,-0.05,-0.05,0.95,797.6,-1.9,-63.4,0.75,0.0,1.0,1.0,4.25,0.25,0.0,0.75,0.5,0.0,0.0,0.0,0.25,-0.17,0.08,1.08,31.98,-5.3,41.0
4.56,0.75,1.0,0.25,1.5,1.25,1.75,0.0,4.75,1.75,8.25,8.75,9.5,9.25,-0.17,-0.05,1.02,802.48,-2.2,-65.2,0.75,0.25,1.25,1.0,4.25,0.0,0.0,0.75,0.25,0.0,0.0,0.0,0.25,-0.11,-0.17,1.2,52.63,-6.9,45.3
4.58,1.5,1.25,0.0,1.75,0.0,3.0,0.0,4.75,1.5,8.75,7.75,9.5,8.5,-0.17,-0.05,1.08,795.09,-2.5,-62.4,0.5,0.0,1.25,0.75,4.25,0.0,0.0,0.75,0.25,0.0,0.0,0.0,0.25,-0.05,-0.23,1.08,67.24,-5.7,42.0
4.6,1.5,1.25,0.0,1.5,0.0,1.25,0.0,4.75,0.75,7.75,7.0,9.25,8.75,-0.36,-0.05,1.08,766.11,-2.1,-66.7,0.75,0.25,1.25,1.0,4.25,0.25,0.0,0.75,0.25,0.0,0.0,0.0,0.25,0.02,-0.36,1.02,86.17,-6.2,45.1
4.62,1.0,1.25,0.0,1.5,2.5,1.75,0.0,4.25,1.0,7.5,6.5,9.0,10.5,-0.55,-0.05,1.02,752.47,-3.1,-61.4,0.5,0.25,1.25,1.0,4.25,0.25,0.0,0.75,0.25,0.0,0.0,0.0,0.25,-0.05,-0.48,1.02,103.58,-5.5,43.8
4.64,0.75,1.0,0.25,1.5,1.25,1.75,0.0,3.5,1.0,7.75,6.0,8.25,10.5,-0.55,-0.05,0.89,720.28,-3.4,-65.7,0.5,0.0,1.25,0.75,4.25,0.25,0.0,0.75,0.25,0.0,0.0,0.0,0.25,-0.11,-0.55,1.08,120.15,-4.9,41.8
4.66,0.75,1.0,0.0,1.5,1.25,1.75,0.0,3.25,1.0,7.5,5.25,7.75,10.5,-0.55,-0.05,1.02,688.13,-3.9,-65.9,0.5,0.0,0.5,1.0,4.25,0.0,0.0,0.75,0.25,0.0,0.0,0.0,0.25,-0.17,-0.48,1.14,127.84,-3.0,40.7
4.68,0.0,0.0,0.0,0.0,0.0,2.25,0.0,3.5,0.25,5.75,4.25,6.75,9.0,-0.61,0.02,1.52,595.57,-6.8,-81.1,0.25,0.0,0.75,1.5,4.25,0.0,0.0,0.75,0.25,0.0,0.0,0.25,0.0,-0.17,-0.42,1.33,135.62,-4.7,40.9
4.7,0.75,1.0,0.0,1.25,1.75,1.25,0.0,3.0,1.0,6.0,4.25,6.75,9.25,-0.73,0.08,1.45,540.64,-3.6,-63.0,0.5,0.0,1.0,1.0,4.25,0.0,0.0,0.5,0.25,0.0,0.0,0.0,0.25,-0.17,-0.42,1.27,137.84,-5.7,44.3
4.72,0.0,0.0,0.25,0.0,1.25,0.25,0.0,3.0,0.25,4.5,4.0,5.25,7.75,-0.86,0.02,1.2,444.63,-5.2,-78.7,0.5,0.0,0.75,1.25,4.25,0.0,0.0,0.5,0.25,0.0,0.0,0.25,0.25,-0.17,-0.36,1.08,137.39,-5.2,39.8
4.74,0.0,0.0,0.0,0.0,0.0,0.25,0.0,1.0,0.25,3.5,2.0,5.0,6.75,-0.92,0.02,1.08,352.05,-5.5,-93.4,0.5,0.25,1.0,1.0,4.25,0.0,0.0,0.75,0.25,0.0,0.0,0.0,0.25,-0.11,-0.36,0.95,138.56,-5.3,43.5
4.76,0.0,0.0,0.0,0.0,0.0,0.0,0.0,0.75,0.25,2.25,0.75,3.5,5.75,-1.11,-0.55,1.33,263.81,-6.5,-96.9,0.5,0.0,0.5,1.0,4.25,0.0,0.0,0.25,0.25,0.0,0.0,0.0,0.0,0.02,-0.48,0.95,132.53,-4.9,51.2
4.78,0.0,0.0,0.0,0.0,0.0,0.0,0.0,0.75,0.25,1.25,0.5,1.75,3.25,-1.3,-1.3,1.58,172.73,-6.9,-93.1,0.5,0.25,1.0,0.75,4.25,0.25,0.0,0.75,0.25,0.0,0.0,0.0,0.25,0.27,-1.36,1.2,134.7,-4.2,42.8
4.8,0.0,0.0,0.0,0.0,0.0,0.0,0.0,0.5,0.25,0.0,0.0,0.5,1.25,-1.61,-1.42,2.02,63.06,-7.3,-88.9,0.25,0.0,1.0,0.5,4.25,0.25,0.0,0.75,0.25,0.0,0.0,0.0,0.25,0.52,-1.36,2.02,131.97,-2.6,39.0
4.82,0.0,1.0,0.0,0.5,0.0,0.5,0.0,0.75,0.75,1.0,0.25,2.0,1.0,-0.61,-0.8,2.2,9.84,-0.2,-43.0,0.5,0.0,1.0,1.0,3.75,0.25,0.0,0.75,0.25,0.0,0.0,0.0,0.25,0.58,-1.55,2.2,133.11,-4.8,40.9
4.84,0.5,0.75,0.25,1.0,0.75,0.5,0.0,1.0,0.5,1.25,0.75,0.75,1.0,-0.8,-0.55,2.39,0.0,1.1,-15.4,0.5,0.0,0.5,0.5,3.75,0.0,0.0,0.75,0.25,0.0,0.0,0.0,0.25,0.77,-1.36,2.2,125.04,-2.4,38.4
4.86,0.75,1.0,0.25,0.5,1.25,0.5,0.0,1.0,0.25,1.5,1.25,0.5,1.0,-0.55,-0.61,1.77,13.68,0.6,-11.1,0.25,0.0,0.75,1.0,3.5,0.25,0.0,0.75,0.0,0.0,0.0,0.0,0.25,0.7,-1.05,2.52,121.73,-2.8,40.5
4.88,0.75,1.0,0.5,0.75,0.0,0.5,0.0,0.75,0.5,2.0,1.0,1.0,1.0,0.58,-1.67,0.64,37.55,2.7,-23.7,0.25,0.0,1.0,1.0,3.75,0.25,0.0,0.75,0.25,0.25,0.25,0.0,0.25,0.64,-0.48,2.52,123.73,-3.6,32.7
4.9,0.75,1.0,0.75,1.0,0.0,0.5,0.0,1.25,0.25,1.25,0.75,0.5,0.75,0.52,-1.67,0.33,57.88,4.3,-5.9,0.5,0.0,1.0,0.25,4.25,0.25,0.0,0.75,0.25,0.0,0.0,0.0,0.25,0.52,-0.05,1.64,126.3,-3.1,40.1
4.92,0.75,1.0,0.75,1.0,1.25,0.5,0.0,0.75,0.25,1.25,0.75,0.5,0.75,0.14,-1.23,1.14,78.61,4.3,4.5,0.5,0.0,0.75,1.0,3.25,0.25,0.0,0.5,0.25,0.0,0.25,0.0,0.25,0.08,-0.05,0.95,125.38,-5.2,38.1
4.94,0.5,1.0,0.5,1.25,0.0,0.5,0.0,0.75,0.25,1.5,0.75,1.25,0.75,-0.61,-0.86,1.39,88.73,3.9,-17.3,0.25,0.0,1.0,1.0,3.0,0.25,0.0,0.75,0.0,0.0,0.25,0.0,0.25,-0.17,-0.73,0.39,122.11,-4.8,36.3
4.96,0.75,1.0,0.25,1.0,0.0,0.25,0.0,0.75,0.25,1.0,0.5,1.25,1.0,-1.05,-0.92,0.89,103.77,4.5,-18.1,0.25,0.0,1.0,1.0,3.5,0.0,0.0,0.5,0.0,0.0,0.25,0.0,0.25,0.33,-1.42,-1.86,119.06,-5.8,40.3
4.98,0.75,1.0,0.25,0.5,1.25,0.5,0.0,0.75,0.25,1.5,0.75,1.25,0.75,-0.92,-0.67,0.39,120.91,1.6,-12.1,0.0,0.0,1.0,1.0,4.25,0.25,0.0,0.75,0.25,0.0,0.0,0.0,0.0,0.2,-0.67,-0.42,121.59,-3.1,43.2
5.0,0.75,1.0,0.5,0.5,0.75,0.25,0.0,0.75,0.25,1.0,0.75,1.5,0.75,-0.48,-0.3,0.02,130.03,4.8,-14.7,0.0,0.0,0.5,1.0,3.0,0.25,0.0,0.5,0.25,0.0,0.0,0.0,0.0,0.33,-0.92,0.95,114.55,-2.5,42.7
5.02,0.5,1.0,0.25,0.25,1.25,0.25,0.0,0.75,0.25,1.0,0.75,1.0,0.75,-0.36,-0.36,0.39,133.33,1.7,-12.0,0.25,0.0,1.0,0.75,3.25,0.25,0.0,0.75,0.0,0.0,0.0,0.0,0.0,0.52,-1.42,1.08,111.72,-4.5,45.8
5.04,0.75,1.0,0.25,0.75,0.0,0.25,0.0,0.75,0.25,1.25,0.5,1.0,0.75,-0.23,-0.48,0.7,126.8,3.9,-16.4,0.0,0.0,1.25,0.5,3.5,0.25,0.0,0.75,0.25,0.0,0.0,0.0,0.25,0.39,-1.17,1.02,111.1,-3.5,36.2
5.06,0.75,1.0,0.75,0.75,0.0,0.5,0.0,1.0,0.25,1.25,0.75,1.0,0.75,-0.17,-0.55,0.64,122.07,4.8,-12.8,0.0,0.0,0.5,0.75,3.25,0.25,0.0,0.25,0.25,0.0,0.0,0.0,0.25,-0.17,-0.3,1.08,106.48,-1.7,39.4
5.08,0.75,1.0,1.0,0.5,0.0,0.5,0.0,0.5,0.25,1.25,0.5,1.0,0.75,-0.17,-0.61,0.64,117.88,6.6,-9.2,0.0,0.0,1.0,1.0,3.0,0.0,0.0,0.5,0.0,0.0,0.0,0.25,0.0,-0.48,-0.23,1.02,103.65,-6.3,41.6
5.1,0.75,1.0,1.0,0.5,0.0,0.5,0.0,0.75,0.25,1.25,0.75,0.75,0.75,-0.23,-0.86,0.52,118.86,6.0,-9.0,0.25,0.25,1.0,0.5,3.25,0.25,0.0,0.5,0.25,0.0,0.0,0.0,0.0,-0.3,-0.36,0.77,103.58,-5.3,47.4
5.12,0.75,1.0,0.5,0.75,0.5,0.5,0.0,0.75,0.25,1.5,0.5,1.0,0.75,-0.11,-0.98,0.39,122.62,3.2,-9.9,0.5,0.0,0.5,0.75,3.5,0.25,0.0,0.5,0.0,0.0,0.0,0.0,0.0,0.02,-0.36,0.45,103.74,-3.4,50.0
5.14,0.75,1.0,0.25,0.5,0.5,0.5,0.0,1.0,0.25,1.25,0.75,0.75,0.75,0.02,-0.98,0.45,123.71,1.7,-12.1,0.5,0.0,0.25,0.5,3.0,0.25,0.0,0.0,0.25,0.0,0.0,0.0,0.0,0.08,-0.42,0.45,97.8,-4.1,53.0
5.16,0.75,1.0,0.25,1.0,0.75,0.5,0.0,0.75,0.25,1.25,0.5,1.0,0.75,0.08,-1.05,0.45,126.39,2.9,-6.0,0.5,0.0,1.0,0.75,3.0,0.0,0.25,0.0,0.0,0.0,0.25,0.25,0.0,0.14,-0.61,0.58,98.73,-10.4,46.7
5.18,0.75,0.75,0.25,0.5,0.0,0.5,0.0,0.75,0.25,1.25,0.5,0.5,0.75,0.08,-1.05,0.52,118.65,1.8,-15.1,0.5,0.0,0.5,0.75,2.75,0.0,0.25,0.0,0.0,0.0,0.0,0.0,0.0,0.39,-0.8,0.39,92.03,-8.4,58.4
5.2,0.75,1.0,0.5,0.5,0.5,0.5,0.0,0.75,0.25,1.25,0.5,0.5,0.75,0.08,-0.98,0.39,117.19,2.9,-3.7,0.0,0.0,0.0,0.75,3.25,0.0,0.25,0.25,0.0,0.0,0.0,0.0,0.0,0.58,-0.86,0.2,86.47,-0.1,48.8
5.22,0.75,0.75,0.25,0.25,0.5,0.5,0.0,0.5,0.25,1.25,0.75,0.75,0.75,0.02,-0.92,0.27,110.12,2.0,-16.7,0.0,0.0,0.75,1.0,3.25,0.0,0.25,0.0,0.0,0.0,0.0,0.0,0.0,0.52,-0.73,0.14,85.84,-6.8,54.7
5.24,0.5,1.0,0.5,0.25,1.75,0.5,0.0,0.75,0.25,1.25,1.0,0.5,0.75,-0.05,-0.73,0.14,119.85,1.2,-2.8,0.25,0.0,0.75,0.0,3.0,0.0,0.25,0.0,0.0,0.0,0.0,0.0,0.0,0.33,-0.73,0.2,83.07,-6.5,56.3
5.26,0.75,1.0,1.0,0.25,0.0,0.5,0.0,0.75,0.25,1.25,0.5,0.5,0.75,0.02,-0.67,0.02,118.61,5.4,-5.9,0.0,0.0,0.5,1.0,2.75,0.25,0.25,0.0,0.25,0.0,0.0,0.0,0.25,0.14,-0.67,0.14,83.75,-4.4,42.0
5.28,0.5,0.5,0.75,0.25,0.0,0.5,0.0,0.75,0.25,1.0,0.5,0.5,0.75,0.14,-0.55,-0.17,112.26,3.1,-18.4,0.25,0.0,1.0,0.75,3.0,0.0,0.25,0.0,0.0,0.0,0.25,0.0,0.0,0.14,-0.61,-0.11,87.06,-9.5,51.3
5.3,0.75,1.0,0.25,0.25,0.0,0.5,0.0,0.75,0.25,1.25,0.75,0.5,0.75,0.27,-0.42,-0.17,104.88,1.9,-15.7,0.0,0.0,0.75,1.0,3.0,0.25,0.25,0.0,0.0,0.0,0.0,0.0,0.0,0.2,-0.48,-0.3,91.52,-6.1,53.9
5.32,0.5,0.0,0.75,0.5,0.0,0.5,0.0,0.75,0.25,0.75,0.5,0.5,0.75,0.27,-0.36,-0.3,94.49,3.8,-23.0,0.25,0.0,0.5,1.0,2.75,0.25,0.25,0.0,0.0,0.0,0.0,0.0,0.0,0.14,-0.36,-0.36,90.99,-6.3,55.5
5.34,0.5,0.0,0.5,0.0,0.0,0.5,0.0,0.5,0.25,0.5,0.5,0.5,0.5,0.33,-0.36,-0.36,79.02,3.4,-28.8,0.5,0.0,0.75,1.0,2.75,0.25,0.0,0.0,0.0,0.0,0.0,0.0,0.0,-0.05,-0.3,-0.36,92.88,-8.4,58.1
5.36,0.5,0.0,0.25,0.0,0.0,0.5,0.0,0.5,0.25,0.75,0.5,0.5,0.25,0.33,-0.36,-0.42,65.15,1.1,-32.4,0.0,0.0,0.25,1.0,2.75,0.0,0.25,0.0,0.0,0.0,0.0,0.0,0.0,-0.11,-0.23,-0.42,88.27,-4.6,54.2
5.38,0.75,0.25,0.5,0.25,0.0,0.5,0.0,0.75,0.25,1.0,0.75,0.5,0.25,0.33,-0.3,-0.48,65.38,4.3,-16.7,0.0,0.0,0.75,0.75,3.25,0.0,0.25,0.0,0.0,0.0,0.0,0.0,0.0,-0.11,-0.17,-0.55,88.97,-6.3,54.6
5.4,0.5,0.25,0.25,0.25,0.5,0.5,0.0,0.5,0.25,1.25,0.75,0.5,0.75,0.33,-0.3,-0.61,70.6,-0.3,-26.7,0.0,0.0,0.75,1.0,3.0,0.25,0.25,0.0,0.0,0.0,0.0,0.0,0.0,-0.05,-0.11,-0.67,89.6,-6.1,53.9
5.42,0.5,0.0,0.5,0.25,0.75,0.5,0.0,0.75,0.25,1.0,0.5,0.5,0.5,0.39,-0.23,-0.73,79.02,0.6,-17.6,0.0,0.0,0.5,0.75,2.75,0.0,0.25,0.0,0.0,0.0,0.0,0.0,0.0,-0.05,0.02,-0.8,87.62,-5.7,54.4
5.44,0.75,0.5,0.75,0.25,0.5,0.5,0.0,0.75,0.25,1.25,0.5,0.5,0.75,0.39,-0.23,-0.73,90.15,3.0,-10.9,0.0,0.0,1.0,0.75,2.75,0.0,0.0,0.0,0.0,0.0,0.0,0.0,0.0,-0.05,0.08,-0.98,85.8,-8.4,55.7
5.46,0.75,0.25,0.75,0.25,0.0,0.5,0.0,0.5,0.25,1.0,0.5,0.5,0.5,0.45,-0.23,-0.73,90.97,5.7,-13.9,0.0,0.0,0.5,0.75,2.75,0.25,0.25,0.0,0.0,0.0,0.0,0.0,0.0,-0.05,0.02,-1.17,82.79,-4.3,53.4
5.48,0.75,0.5,0.75,0.75,0.0,0.5,0.0,0.25,0.25,1.25,0.5,0.5,0.5,0.45,-0.3,-0.8,93.95,6.9,-5.0,0.25,0.0,0.5,0.75,2.5,0.0,0.0,0.0,0.0,0.0,0.0,0.0,0.0,-0.05,0.02,-1.23,79.68,-7.1,57.4
5.5,0.75,0.5,1.0,0.5,0.0,0.5,0.0,0.75,0.25,1.25,0.5,0.5,0.75,0.45,-0.3,-0.86,100.27,5.3,-11.0,0.0,0.0,0.5,0.75,2.75,0.25,0.25,0.0,0.0,0.0,0.0,0.0,0.0,-0.11,0.02,-1.23,77.7,-4.3,53.4
5.52,0.75,0.5,0.75,0.25,0.0,0.5,0.0,1.0,0.25,1.25,0.5,0.75,0.75,0.39,-0.3,-0.92,106.5,3.0,-20.5,0.0,0.0,0.75,1.0,2.75,0.0,0.0,0.0,0.0,0.0,0.0,0.0,0.0,-0.17,-0.05,-1.23,79.14,-7.4,55.5
5.54,1.0,0.5,1.0,0.25,0.75,0.5,0.0,0.5,0.25,1.25,0.75,0.5,0.75,0.39,-0.36,-0.98,114.83,5.7,-4.2,0.25,0.0,0.5,1.0,2.75,0.0,0.0,0.0,0.0,0.0,0.0,0.0,0.0,-0.17,-0.05,-1.3,81.21,-7.1,57.2
5.56,0.75,0.0,0.5,0.5,0.5,0.5,0.0,0.25,0.25,1.25,0.75,0.5,0.5,0.45,-0.3,-1.11,113.31,3.9,-16.3,0.25,0.0,0.5,1.0,2.75,0.0,0.0,0.0,0.0,0.0,0.0,0.0,0.0,-0.23,-0.05,-1.3,82.72,-7.1,57.2
5.58,0.5,0.75,1.0,0.5,0.5,0.5,0.0,0.75,0.25,1.25,0.5,0.5,0.75,1.33,0.2,-0.98,117.89,4.0,-5.9,0.5,0.0,0.5,1.0,2.75,0.0,0.25,0.0,0.0,0.0,0.0,0.0,0.0,-0.23,-0.05,-1.23,85.85,-8.8,58.3
5.6,0.75,0.75,0.25,0.25,0.0,0.5,0.0,0.75,0.25,1.25,0.5,0.5,0.75,0.58,-0.42,-0.86,110.44,1.1,-18.0,0.0,0.0,0.5,1.0,2.5,0.0,0.25,0.0,0.0,0.0,0.0,0.0,0.0,-0.3,-0.05,-1.17,84.17,-7.0,54.6
5.62,0.75,0.75,0.5,0.5,0.0,0.5,0.0,0.25,0.25,1.25,0.5,0.5,0.5,-0.05,-0.55,-0.73,105.24,5.4,-6.1,0.5,0.0,0.5,1.0,2.75,0.0,0.0,0.0,0.0,0.0,0.0,0.0,0.0,-0.36,-0.17,-0.92,85.15,-8.3,59.0
5.64,0.75,1.0,0.75,0.75,0.0,0.5,0.0,1.0,0.25,1.25,0.5,0.5,0.75,0.02,-0.67,-0.67,108.14,4.4,-4.9,0.5,0.0,0.75,0.75,2.75,0.0,0.0,0.0,0.0,0.0,0.0,0.0,0.0,-0.48,-0.86,-0.55,86.31,-9.3,59.2
5.66,0.75,0.75,1.0,0.25,0.0,0.5,0.0,0.5,0.25,1.25,0.5,0.5,0.75,0.39,-0.61,-0.73,108.78,5.9,-8.6,0.5,0.0,0.75,0.5,2.5,0.0,0.0,0.0,0.0,0.25,0.0,0.0,0.0,-0.17,-0.42,-1.3,86.95,-8.4,52.7
5.68,0.75,1.0,0.5,0.25,0.5,0.5,0.0,0.25,0.25,1.5,0.5,0.5,0.25,0.14,-0.55,-0.8,108.61,4.4,1.8,0.0,0.0,0.75,1.0,2.75,0.25,0.0,0.0,0.0,0.0,0.0,0.0,0.0,-0.17,-0.17,-1.11,87.47,-6.0,54.6
5.7,0.75,1.0,0.75,0.5,0.0,0.75,0.0,0.75,0.25,1.25,0.75,0.5,0.75,-0.17,-0.61,-0.86,112.92,4.0,-6.9,0.25,0.0,0.5,0.5,2.75,0.25,0.25,0.0,0.0,0.0,0.0,0.0,0.0,-0.23,-0.23,-0.92,86.16,-5.1,55.3
5.72,0.5,0.75,1.0,0.25,1.75,0.75,0.0,0.75,0.25,1.25,0.5,0.5,0.5,-0.11,-0.61,-0.8,122.12,2.2,5.7,0.0,0.0,0.5,0.5,2.75,0.25,0.25,0.0,0.0,0.0,0.0,0.0,0.0,-0.17,-0.36,-0.92,83.31,-3.6,53.1
5.74,0.5,0.5,0.25,0.75,0.0,0.75,0.0,0.25,0.25,1.25,1.0,0.75,1.0,0.14,-0.61,-0.61,119.4,1.6,-27.6,0.25,0.0,0.5,0.75,2.75,0.0,0.25,0.0,0.0,0.0,0.0,0.0,0.0,-0.17,-0.42,-0.8,81.34,-7.1,56.5
5.76,0.75,1.0,0.5,1.0,0.75,0.5,0.0,0.5,0.25,1.25,0.0,0.5,0.5,0.14,-0.67,-0.48,121.22,4.4,11.8,0.0,0.0,0.5,0.75,2.75,0.0,0.0,0.0,0.0,0.0,0.0,0.0,0.0,-0.17,-0.42,-0.86,78.86,-5.0,55.1
5.78,0.75,0.5,1.0,0.75,0.0,0.5,0.0,0.5,0.25,1.25,0.5,0.5,0.75,0.27,-0.67,-0.48,116.79,6.5,-7.6,0.0,0.0,0.75,0.75,2.75,0.0,0.0,0.0,0.0,0.0,0.0,0.0,0.0,-0.17,-0.42,-0.86,78.62,-6.8,55.4
5.8,0.75,0.75,0.25,1.0,0.0,0.75,0.0,0.75,0.25,1.25,0.5,0.5,0.75,0.14,-0.61,-0.55,116.22,2.1,-8.4,0.0,0.0,0.25,0.75,2.75,0.0,0.0,0.0,0.0,0.0,0.25,0.0,0.0,-0.23,-0.36,-0.67,76.65,-3.4,47.7
5.82,0.75,0.75,0.25,0.5,0.0,0.75,0.0,0.5,0.25,1.25,0.5,0.5,0.75,-0.05,-0.61,-0.48,109.32,1.6,-12.5,0.0,0.0,0.5,0.5,2.5,0.0,0.0,0.0,0.0,0.0,0.0,0.0,0.0,-0.23,-0.3,-0.67,72.83,-4.8,55.0
5.84,0.75,0.5,0.75,1.0,0.0,0.5,0.0,0.25,0.25,1.5,0.5,0.5,0.75,0.08,-0.55,-0.3,109.81,5.8,-8.9,0.25,0.0,0.5,1.0,2.75,0.0,0.0,0.0,0.0,0.0,0.0,0.0,0.0,-0.11,-0.3,-0.73,75.21,-7.1,57.2
5.86,0.5,0.75,0.25,1.0,0.0,0.5,0.0,0.5,0.25,1.25,0.25,0.5,0.5,0.02,-0.61,-0.23,103.21,2.8,-6.0,0.0,0.0,0.5,0.75,2.75,0.0,0.0,0.0,0.0,0.0,0.0,0.0,0.0,-0.11,-0.3,-0.67,74.61,-5.0,55.1
5.88,0.75,0.75,0.25,1.25,0.75,0.25,0.0,0.75,0.25,1.5,0.5,0.5,0.75,-0.11,-0.67,-0.11,108.95,2.8,-4.3,0.25,0.0,0.5,0.75,3.0,0.0,0.25,0.0,0.0,0.0,0.0,0.0,0.0,-0.05,-0.23,-0.48,79.59,-6.5,56.3
5.9,0.5,0.75,0.25,0.75,0.0,0.5,0.0,0.75,0.25,1.25,1.0,0.5,0.75,0.14,-0.61,0.02,108.93,1.8,-20.1,0.0,0.0,0.75,0.5,2.75,0.0,0.25,0.0,0.0,0.0,0.0,0.0,0.0,-0.05,-0.3,-0.42,79.82,-6.9,54.5
5.92,0.75,0.5,0.5,0.5,0.0,0.5,0.0,0.0,0.25,1.25,0.5,0.5,0.5,0.02,-0.73,0.14,102.85,6.1,-9.4,0.0,0.25,1.25,0.75,2.75,0.0,0.25,0.0,0.0,0.0,0.0,0.0,0.0,-0.11,-0.36,-0.3,86.33,-10.5,57.3
5.94,0.75,0.5,0.25,0.75,0.5,0.5,0.0,0.25,0.25,1.25,0.5,0.5,0.25,0.08,-0.73,0.33,96.78,4.2,-0.8,0.25,0.25,0.75,0.75,2.75,0.0,0.25,0.0,0.0,0.0,0.25,0.0,0.0,0.08,-0.48,-0.3,90.28,-9.0,52.9
5.96,0.5,0.5,0.25,1.0,0.0,0.5,0.0,0.5,0.25,1.25,0.75,0.5,0.75,0.08,-0.86,0.33,94.84,2.4,-19.0,0.0,0.0,0.5,0.5,2.5,0.25,0.25,0.0,0.0,0.0,0.0,0.0,0.0,0.2,-0.67,-0.3,87.37,-4.1,53.1
5.98,0.75,0.75,0.5,1.0,0.75,0.5,0.0,0.25,0.25,1.25,0.5,0.5,0.25,0.08,-0.92,0.45,100.96,5.9,9.0,0.25,0.0,1.0,0.5,2.75,0.0,0.25,0.0,0.0,0.0,0.0,0.0,0.0,0.2,-0.67,-0.23,86.93,-9.8,56.8
6.0,0.5,0.75,0.25,1.0,0.75,0.5,0.0,0.5,0.25,1.25,0.5,0.5,0.5,0.02,-0.98,0.52,105.56,2.4,-1.3,0.0,0.0,0.5,0.5,2.75,0.0,0.25,0.0,0.0,0.5,0.0,0.0,0.0,0.33,-0.61,-0.17,84.25,-2.9,40.8
6.02,0.5,0.75,0.5,0.25,0.75,0.5,0.0,0.25,0.25,1.25,0.5,0.5,0.5,-0.05,-1.05,0.52,107.11,2.7,-4.5,0.0,0.0,0.5,0.5,3.0,0.0,0.0,0.0,0.0,0.0,0.0,0.0,0.0,0.2,-0.67,0.02,81.78,-3.8,54.8
6.04,0.75,0.5,0.5,0.75,0.5,0.75,0.0,0.0,0.25,1.25,0.5,0.5,0.75,0.08,-1.11,0.52,107.28,4.0,-4.0,0.0,0.0,0.5,0.75,2.75,0.0,0.0,0.0,0.0,0.0,0.0,0.0,0.0,0.2,-0.73,0.14,79.14,-5.0,55.1
6.06,0.75,0.5,0.5,1.0,0.0,0.5,0.0,0.25,0.25,1.25,0.25,0.5,0.5,0.02,-1.11,0.52,103.04,5.9,-2.4,0.0,0.0,0.0,0.75,2.75,0.0,0.0,0.0,0.0,0.75,0.0,0.0,0.0,0.14,-0.8,0.14,78.29,1.8,33.7
6.08,0.75,0.5,0.5,0.5,0.75,0.5,0.0,0.0,0.25,1.0,0.5,0.5,0.25,0.02,-1.05,0.52,98.98,6.4,6.4,0.0,0.25,0.0,0.5,2.5,0.0,0.0,0.0,0.0,0.0,0.0,0.0,0.0,0.14,-0.92,0.14,71.44,-0.7,57.3
6.1,0.75,0.75,0.25,0.75,0.0,0.5,0.0,0.5,0.25,1.5,1.0,0.5,0.5,-0.05,-0.98,0.45,100.33,3.5,-14.4,0.25,0.25,0.25,0.5,2.75,0.0,0.25,0.0,0.0,0.0,0.0,0.0,0.0,0.14,-1.05,0.14,71.88,-5.1,58.5
6.12,0.75,1.0,0.25,0.75,0.75,0.5,0.0,0.25,0.25,1.0,0.5,0.5,0.25,-0.05,-0.98,0.45,102.25,5.3,11.7,0.0,0.25,0.5,0.75,2.75,0.0,0.0,0.0,0.0,0.0,0.0,0.0,0.0,0.14,-0.98,0.08,73.08,-5.4,57.5
6.14,0.75,0.5,0.5,1.0,0.75,0.5,0.0,1.0,0.25,1.25,0.5,0.5,0.5,-0.11,-0.98,0.64,111.73,2.9,-2.0,0.0,0.0,0.25,0.75,2.75,0.0,0.0,0.0,0.0,0.0,0.0,0.0,0.0,0.14,-0.92,0.02,73.36,-3.0,54.7
6.16,0.25,0.75,0.75,1.0,0.0,0.5,0.0,0.0,0.25,1.0,0.5,0.5,0.5,-0.11,-1.05,0.7,108.32,7.3,-1.5,0.25,0.0,0.5,0.75,2.75,0.0,0.0,0.0,0.0,0.0,0.0,0.0,0.0,0.14,-0.92,-0.05,74.96,-6.5,57.2
6.18,0.75,0.75,0.5,0.5,1.25,0.5,0.0,0.25,0.25,1.25,0.75,0.5,0.5,-0.05,-1.11,0.7,112.95,4.0,2.6,0.0,0.0,1.0,1.0,2.75,0.0,0.0,0.0,0.0,0.0,0.0,0.0,0.0,0.14,-0.92,-0.05,80.43,-8.9,55.8
6.2,0.5,1.0,0.5,0.5,1.25,0.5,0.0,0.75,0.25,1.25,0.5,0.5,0.5,-0.23,-1.42,0.77,116.16,1.9,2.7,0.0,0.0,0.25,0.75,2.75,0.0,0.25,0.0,0.0,0.0,0.0,0.0,0.0,0.2,-0.98,0.14,80.3,-3.8,54.0
6.22,0.75,0.5,0.5,1.0,0.0,0.5,0.0,0.0,0.25,1.0,0.5,0.5,1.0,-0.05,-1.17,0.77,113.14,6.2,-9.4,0.0,0.0,0.75,1.0,2.75,0.0,0.25,0.0,0.0,0.0,0.0,0.0,0.0,0.27,-0.98,0.2,82.66,-7.9,54.9
6.24,0.75,1.0,0.5,1.25,0.75,0.5,0.0,0.0,0.25,1.25,0.5,0.5,0.75,0.02,-1.11,0.58,117.73,5.9,7.4,0.0,0.0,0.0,0.5,2.75,0.0,0.25,0.0,0.0,0.0,0.0,0.0,0.0,0.27,-1.05,0.2,77.57,-0.6,53.2
6.26,0.75,0.75,0.5,0.75,0.75,0.5,0.0,0.5,0.25,1.25,0.75,0.5,0.75,0.02,-0.92,0.58,120.69,3.7,-4.0,0.0,0.0,0.25,1.0,2.75,0.0,0.25,0.0,0.0,0.0,0.0,0.0,0.0,0.27,-0.98,0.27,77.68,-4.6,54.2
6.28,0.75,0.5,0.5,1.0,0.5,0.5,0.0,0.0,0.25,1.25,0.5,0.5,1.0,-0.11,-0.92,0.58,119.94,4.7,-6.7,0.0,0.0,0.25,0.75,2.75,0.0,0.0,0.0,0.0,0.0,0.0,0.0,0.0,0.08,-0.92,0.2,74.11,-3.0,54.7
6.3,0.75,0.5,0.25,1.0,1.25,0.5,0.0,0.5,0.25,1.25,0.25,0.5,0.25,-0.11,-0.98,0.45,118.75,2.9,8.7,0.0,0.0,0.5,1.0,2.5,0.0,0.25,0.0,0.0,0.5,0.0,0.0,0.0,0.27,-0.86,0.08,78.13,-4.7,41.8
6.32,0.5,0.75,0.25,1.0,0.5,0.5,0.0,0.25,0.25,1.0,0.5,0.5,0.25,-0.17,-1.11,0.52,112.05,4.8,4.9,0.25,0.0,0.25,0.75,2.75,0.0,0.0,0.0,0.0,0.0,0.0,0.0,0.0,0.39,-0.86,0.08,77.83,-4.7,57.0
6.34,0.5,0.75,0.5,1.0,0.75,0.5,0.0,0.5,0.25,1.25,0.75,0.5,0.75,-0.17,-1.05,0.45,113.38,3.2,-5.0,0.0,0.25,0.0,1.0,2.75,0.0,0.0,0.0,0.0,0.0,0.0,0.0,0.0,0.33,-0.8,0.33,77.96,-2.3,57.1
6.36,0.5,0.25,0.5,0.75,0.75,0.5,0.0,0.25,0.25,1.5,0.5,0.5,0.5,-0.23,-0.98,0.39,108.92,2.4,-10.1,0.0,0.0,0.5,0.75,2.75,0.0,0.0,0.0,0.0,0.0,0.0,0.0,0.0,0.33,-0.86,0.39,76.92,-5.0,55.1
6.38,0.75,0.75,0.5,1.0,0.75,0.5,0.0,0.0,0.0,1.25,0.5,0.5,0.25,-0.3,-1.05,0.33,108.96,6.5,12.5,0.25,0.0,0.0,0.5,2.5,0.0,0.25,0.0,0.0,0.0,0.0,0.0,0.0,0.33,-1.05,0.39,72.57,-3.0,56.0
6.4,0.0,0.75,0.5,1.0,0.75,0.25,0.0,0.5,0.0,1.25,0.0,0.5,0.5,-0.3,-0.92,0.39,103.3,1.3,-0.2,0.25,0.0,0.0,0.75,2.75,0.0,0.0,0.0,0.0,0.0,0.0,0.0,0.0,0.45,-1.23,0.39,70.38,-2.6,56.7
6.42,0.5,0.5,0.25,1.0,0.75,0.5,0.0,0.0,0.25,1.25,0.25,0.5,0.75,-0.3,-0.8,0.45,100.03,2.5,-3.9,0.0,0.0,0.5,0.75,2.5,0.0,0.0,0.0,0.0,0.0,0.0,0.0,0.0,0.39,-1.17,0.45,69.21,-5.6,55.2
6.44,0.75,0.75,0.5,1.0,0.75,0.5,0.0,0.5,0.25,1.25,0.5,0.5,0.5,-0.36,-0.73,0.39,104.53,4.5,3.6,0.0,0.0,0.0,0.75,3.0,0.0,0.0,0.0,0.0,0.0,0.0,0.0,0.0,0.39,-1.11,0.45,70.71,-0.4,54.3
6.46,0.5,0.75,0.5,1.25,0.75,0.75,0.0,0.5,0.0,1.25,0.5,0.5,0.5,-0.23,-0.61,0.45,111.72,3.0,4.8,0.25,0.0,0.75,1.0,2.5,0.0,0.0,0.0,0.0,0.0,0.0,0.0,0.0,0.45,-0.98,0.39,74.95,-9.3,57.6
6.48,0.75,0.75,0.5,1.25,0.75,0.5,0.0,0.5,0.25,1.25,0.5,0.5,0.25,-0.17,-0.61,0.39,116.93,5.5,9.1,0.0,0.0,0.0,0.75,2.75,0.0,0.0,0.0,0.0,0.0,0.0,0.0,0.0,0.45,-0.8,0.39,74.46,-0.7,54.3
6.5,0.75,0.75,0.25,1.0,0.75,0.5,0.0,0.25,0.25,1.25,0.0,0.5,1.0,-0.11,-0.61,0.45,118.13,2.4,0.3,0.0,0.0,0.5,0.75,2.75,0.0,0.25,0.0,0.0,0.0,0.0,0.0,0.0,0.45,-0.73,0.33,75.67,-5.7,54.4
6.52,0.75,0.75,0.5,1.25,0.75,0.75,0.0,0.25,0.25,1.25,0.5,0.5,0.5,-0.17,-0.48,0.58,121.89,4.8,7.5,0.0,0.0,0.0,0.75,1.5,0.0,0.0,0.0,0.0,0.0,0.0,0.0,0.0,0.58,-0.73,0.27,64.06,-3.0,54.8
6.54,0.25,0.5,0.25,1.0,1.25,0.5,0.0,0.5,0.25,1.25,1.0,0.5,0.5,-0.17,-0.48,0.52,121.53,1.2,-8.0,0.25,0.0,0.5,0.75,3.0,0.0,0.0,0.0,0.0,0.0,0.0,0.0,0.0,0.58,-0.73,0.33,68.8,-5.9,57.0
6.56,0.5,1.0,0.5,0.75,0.5,0.25,0.0,0.5,0.25,1.25,0.5,0.5,0.25,-0.23,-0.55,0.52,117.99,5.3,3.0,0.0,0.0,0.25,0.5,2.75,0.0,0.25,0.0,0.0,0.0,0.0,0.0,0.0,0.64,-0.73,0.45,67.48,-2.9,53.7
6.58,0.75,0.75,0.5,1.0,1.25,0.5,0.0,0.25,0.25,1.0,0.5,0.5,0.5,-0.3,-0.3,0.58,118.67,5.2,11.1,0.0,0.0,0.0,0.75,2.75,0.0,0.0,0.0,0.0,0.0,0.0,0.0,0.0,0.64,-0.8,0.45,70.03,-0.7,54.3
6.6,0.5,0.75,0.25,1.0,0.75,0.5,0.0,0.25,0.25,1.25,0.5,0.5,0.75,-0.36,-0.55,0.64,117.36,2.5,-3.8,0.0,0.0,0.25,1.0,2.75,0.0,0.0,0.0,0.0,0.0,0.0,0.0,0.0,0.52,-0.73,0.39,71.68,-3.8,54.9
6.62,0.75,0.75,0.5,1.0,0.75,0.5,0.0,0.5,0.25,1.25,0.5,0.5,0.75,-0.55,-0.42,0.7,120.04,3.9,0.0,0.0,0.25,0.25,0.75,2.75,0.0,0.0,0.0,0.0,0.0,0.0,0.25,0.0,0.39,-0.73,0.33,75.89,-3.8,48.5
6.64,0.75,1.0,0.25,1.0,0.75,0.5,0.0,0.25,0.25,1.25,0.5,0.5,0.5,-0.67,-0.36,0.83,119.52,4.3,6.3,0.0,0.0,0.0,0.5,2.75,0.0,0.0,0.0,0.0,0.0,0.0,0.0,0.0,0.33,-0.8,0.27,71.97,0.4,54.1
6.66,0.75,1.0,0.25,0.75,1.25,0.5,0.0,0.0,0.0,1.25,0.0,0.5,0.25,-0.86,-0.48,1.02,115.7,3.9,22.0,0.0,0.25,0.25,1.0,2.75,0.0,0.0,0.0,0.0,0.0,0.0,0.0,0.0,0.27,-0.67,0.27,74.72,-4.3,57.3
6.68,0.75,1.0,0.25,0.75,0.75,0.5,0.0,0.25,0.25,1.25,0.5,0.5,0.75,-1.05,-0.55,1.14,113.49,3.3,0.6,0.0,0.0,0.75,0.5,2.5,0.0,0.0,0.0,0.0,0.0,0.0,0.0,0.0,0.27,-0.61,0.27,73.78,-6.9,55.4
6.7,0.5,0.75,0.25,0.75,0.75,0.5,0.0,0.25,0.25,1.25,0.5,0.5,0.5,-1.05,-0.42,1.08,109.47,2.5,-2.2,0.0,0.25,0.25,0.5,2.75,0.0,0.25,0.0,0.0,0.0,0.0,0.0,0.0,0.27,-0.61,0.45,74.6,-3.5,56.4
6.72,0.75,1.0,0.25,0.25,0.5,0.75,0.0,0.5,0.25,1.25,0.75,0.5,0.5,-0.92,-0.11,1.08,108.92,1.9,-4.4,0.25,0.0,0.0,0.5,2.5,0.0,0.0,0.0,0.0,0.0,0.0,0.0,0.0,0.27,-0.8,0.64,70.99,-2.0,56.9
6.74,0.75,1.0,0.25,0.75,0.75,0.75,0.0,0.0,0.25,1.25,0.5,0.5,1.0,-0.92,-0.05,1.08,111.33,2.6,-0.7,0.0,0.0,0.75,0.5,2.75,0.0,0.0,0.0,0.0,0.0,0.0,0.0,0.0,0.45,-1.05,0.77,72.64,-6.2,55.3
6.76,0.5,1.0,0.5,0.5,0.75,0.5,0.0,0.25,0.25,0.75,0.25,0.5,0.5,-0.86,-0.17,1.02,107.92,4.9,10.4,0.0,0.0,0.75,0.5,2.75,0.0,0.0,0.0,0.0,0.0,0.0,0.0,0.0,0.64,-0.98,0.95,73.8,-6.2,55.3
6.78,0.5,1.0,0.25,1.0,0.0,0.5,0.0,0.5,0.25,1.0,0.5,0.5,1.0,-0.73,-3.3,1.77,106.84,2.9,-9.7,0.0,0.0,0.5,0.5,2.75,0.0,0.0,0.0,0.0,0.0,0.0,0.0,0.0,0.7,-0.67,0.89,72.91,-4.3,54.9
6.8,0.0,0.5,0.25,0.0,0.75,0.5,0.0,0.25,0.25,1.25,0.5,0.5,0.75,-0.67,-1.8,1.58,97.13,-3.3,-28.5,0.0,0.0,0.25,0.5,2.75,0.0,0.0,0.0,0.0,0.0,0.0,0.0,0.0,0.64,-0.36,0.77,72.1,-2.1,54.5
6.82,0.5,0.75,0.25,0.25,0.75,0.0,0.0,0.25,0.25,1.25,0.75,0.5,0.25,-0.05,0.64,0.58,90.85,4.3,-8.8,0.0,0.0,0.25,0.75,2.75,0.0,0.0,0.0,0.0,0.0,0.0,0.25,0.0,0.39,0.08,0.58,72.71,-3.3,45.6
6.84,0.25,0.75,0.25,1.25,0.75,0.25,0.0,0.5,0.0,0.5,0.5,0.5,0.25,0.08,0.83,-0.11,87.18,5.3,11.6,0.0,0.0,0.25,1.0,3.0,0.0,0.0,0.0,0.0,0.0,0.0,0.0,0.0,0.39,0.14,0.64,74.92,-3.4,54.8
6.86,0.25,0.5,0.25,1.0,0.75,0.5,0.0,0.25,0.25,1.25,0.5,0.5,0.75,-0.05,-1.42,1.58,91.02,1.0,-11.1,0.0,0.0,0.25,1.0,2.5,0.0,0.0,0.0,0.0,0.0,0.0,0.0,0.0,0.45,-0.05,0.58,74.95,-4.3,55.0
6.88,0.75,1.0,0.25,1.25,0.75,0.25,0.0,0.25,0.25,1.25,0.5,0.5,1.25,-0.48,-0.61,0.95,103.72,3.8,-3.5,0.0,0.25,0.5,0.5,2.75,0.0,0.0,0.0,0.0,0.0,0.0,0.0,0.0,0.58,-0.48,0.7,76.77,-4.7,57.4
6.9,0.75,0.75,0.25,1.25,0.75,0.25,0.0,0.0,0.0,1.25,0.5,0.5,0.5,-0.67,0.14,0.7,108.6,5.9,7.1,0.0,0.25,0.25,0.75,2.75,0.0,0.0,0.0,0.0,0.0,0.0,0.0,0.0,0.7,-0.8,0.64,76.38,-3.5,57.3
6.92,0.75,0.5,0.25,0.75,1.25,0.25,0.0,0.0,0.25,1.0,0.5,0.5,0.75,-0.92,-0.23,0.89,110.61,4.4,0.7,0.0,0.0,0.5,0.5,2.75,0.0,0.0,0.0,0.0,0.0,0.0,0.0,0.0,0.95,-0.8,0.77,75.78,-4.3,54.9
6.94,1.0,0.75,0.25,1.5,0.5,0.25,0.0,0.0,0.25,0.5,0.5,0.5,0.25,-1.42,-0.3,0.95,107.38,11.5,23.1,0.0,0.0,0.0,0.75,2.75,0.0,0.0,0.0,0.0,0.0,0.0,0.0,0.0,0.89,-0.42,0.95,72.83,-0.7,54.3
6.96,1.0,0.5,0.25,1.5,0.0,0.25,0.25,0.25,0.25,1.0,0.5,0.5,0.5,-1.36,-0.11,0.77,104.91,9.0,2.7,0.0,0.0,0.0,0.5,2.75,0.0,0.0,0.0,0.0,0.0,0.0,0.0,0.0,0.89,-0.23,0.89,69.17,0.4,54.1
6.98,0.0,0.5,0.25,0.75,0.75,0.5,0.25,0.0,0.25,1.25,0.5,0.5,0.75,-1.05,-0.3,0.77,100.04,0.4,-16.2,0.0,0.0,0.0,0.5,1.75,0.25,0.0,0.0,0.0,0.0,0.0,0.0,0.0,1.14,-0.23,0.89,59.76,1.1,52.6
7.0,1.0,0.0,0.25,1.0,0.0,0.0,0.25,0.25,0.25,0.75,0.5,0.5,0.75,-0.73,-0.36,0.45,93.98,9.4,-15.0,0.0,0.0,0.5,0.75,2.75,0.0,0.0,0.0,0.0,0.25,0.0,0.0,0.0,1.27,-0.36,0.95,63.61,-3.9,48.2
7.02,0.0,0.25,0.25,1.0,1.25,0.25,0.25,0.25,0.0,1.0,0.5,0.5,0.75,-0.23,-0.23,0.77,92.59,0.6,-11.0,0.0,0.0,0.0,0.5,2.25,0.0,0.0,0.0,0.0,0.0,0.0,0.0,0.0,1.02,-0.23,0.7,59.44,-0.1,54.2
7.04,0.25,0.5,0.25,0.5,0.75,0.25,0.25,0.0,0.25,1.0,0.5,0.5,0.75,0.08,-0.3,1.02,89.36,2.6,-14.4,0.0,0.0,1.0,0.5,1.5,0.0,0.0,0.0,0.0,0.0,0.0,0.0,0.0,0.77,0.02,0.45,58.72,-12.9,56.5
7.06,0.75,0.25,0.5,1.25,0.75,0.5,0.0,0.25,0.25,1.25,0.5,0.5,0.75,-0.05,-0.61,0.7,97.12,4.5,-3.3,0.0,0.25,0.0,0.5,0.5,0.0,0.0,0.0,0.0,0.0,0.0,0.0,0.0,0.58,-0.11,0.52,43.62,-7.6,63.8
7.08,0.5,0.25,0.5,1.25,0.75,0.5,0.0,0.25,0.25,1.25,0.5,0.5,0.75,0.08,0.02,0.64,102.43,3.5,-6.5,0.0,0.0,0.5,0.25,2.75,0.0,0.0,0.0,0.0,0.0,0.0,0.0,0.0,0.52,-0.23,0.58,47.7,-3.4,54.7
7.1,0.5,0.5,0.25,1.5,0.5,0.25,0.0,0.25,0.25,1.25,0.5,0.5,0.75,0.2,0.77,0.33,107.2,4.3,-6.6,0.0,0.0,0.0,0.5,2.5,0.0,0.0,0.0,0.0,0.0,0.0,0.0,0.0,0.39,-0.23,0.7,47.93,0.1,54.1
7.12,0.25,0.5,0.25,1.5,0.75,0.25,0.0,0.5,0.25,1.25,0.5,0.5,0.75,0.39,1.45,0.27,109.52,2.3,-8.6,0.0,0.0,0.25,0.75,2.5,0.0,0.0,0.0,0.0,0.0,0.0,0.0,0.0,0.2,-0.36,0.64,56.52,-3.5,54.8
7.14,0.75,0.5,0.5,1.25,0.75,0.25,0.0,0.25,0.25,1.0,0.5,0.5,0.75,0.83,1.58,0.33,113.19,6.3,1.4,0.0,0.25,0.0,0.5,2.75,0.0,0.0,0.0,0.0,0.0,0.0,0.0,0.0,0.14,-0.11,0.39,61.76,-0.4,57.0
7.16,0.75,0.0,0.25,1.25,0.5,0.25,0.25,0.0,1.0,1.0,0.5,1.75,0.5,-2.42,-2.55,-0.23,115.6,8.0,-24.6,0.0,0.0,0.5,0.5,2.75,0.0,0.0,0.0,0.0,0.0,0.0,0.0,0.0,0.2,0.02,0.45,68.33,-4.3,54.9
