time,left pressure 0[N/cm虏],left pressure 1[N/cm虏],left pressure 2[N/cm虏],left pressure 3[N/cm虏],left pressure 4[N/cm虏],left pressure 5[N/cm虏],left pressure 6[N/cm虏],left pressure 7[N/cm虏],left pressure 8[N/cm虏],left pressure 9[N/cm虏],left pressure 10[N/cm虏],left pressure 11[N/cm虏],left pressure 12[N/cm虏],left acceleration X[g],left acceleration Y[g],left acceleration Z[g],left total force[N],left center of pressure X[mm],left center of pressure Y[mm],right pressure 0[N/cm虏],right pressure 1[N/cm虏],right pressure 2[N/cm虏],right pressure 3[N/cm虏],right pressure 4[N/cm虏],right pressure 5[N/cm虏],right pressure 6[N/cm虏],right pressure 7[N/cm虏],right pressure 8[N/cm虏],right pressure 9[N/cm虏],right pressure 10[N/cm虏],right pressure 11[N/cm虏],right pressure 12[N/cm虏],right acceleration X[g],right acceleration Y[g],right acceleration Z[g],right total force[N],right center of pressure X[mm],right center of pressure Y[mm]
0.02,5.25,1.75,4.25,6.25,7.0,0.0,2.25,0.0,1.0,0.25,0.25,0.0,0.25,-0.55,1.52,3.14,563.71,17.1,58.2,0.0,0.0,0.0,0.5,0.0,1.25,0.75,4.75,3.0,7.75,6.25,6.5,7.75,0.08,0.08,0.95,499.92,4.1,-74.8
0.04,1.5,0.5,3.75,2.0,4.75,0.5,0.25,1.0,1.0,0.0,1.25,0.0,0.25,-0.42,-0.55,2.83,349.23,12.5,38.0,0.0,0.75,0.75,2.75,0.0,1.5,1.0,5.75,2.75,7.25,8.0,7.0,8.25,0.08,0.08,0.95,636.1,1.6,-62.0
0.06,1.25,0.25,1.75,1.75,4.75,0.0,0.5,0.0,1.0,0.25,1.25,0.75,0.0,-0.61,-0.73,0.77,223.59,11.5,30.4,0.0,0.75,1.0,3.25,1.5,3.5,1.75,6.25,3.75,7.75,8.0,7.5,8.5,0.08,0.08,0.95,773.76,1.8,-52.5
0.08,1.0,0.25,1.75,0.25,0.0,0.0,0.0,0.0,0.75,0.0,1.75,0.0,0.0,-1.17,-1.48,1.83,81.93,24.0,15.0,0.0,0.75,2.75,2.5,2.25,3.5,1.75,6.25,3.75,7.5,7.75,7.0,8.25,0.08,0.08,0.95,879.86,0.8,-47.5
0.1,0.0,0.0,2.0,0.0,0.0,0.0,0.25,0.0,0.75,0.0,0.5,0.0,0.0,-0.92,-1.3,1.27,0.0,28.5,18.7,0.0,0.75,2.25,2.75,3.0,3.25,2.0,6.25,4.0,7.0,7.5,6.0,8.0,0.08,0.08,0.95,938.3,0.9,-44.7
0.12,0.0,0.0,1.0,0.0,0.0,0.0,0.5,0.0,0.75,0.0,0.25,0.0,0.0,-0.55,-0.98,0.89,0.0,26.1,10.0,0.0,0.75,2.75,2.75,3.5,3.75,2.25,6.25,4.0,6.5,6.75,6.0,7.5,0.08,0.08,0.95,948.9,0.6,-40.3
0.14,0.0,0.0,0.5,0.0,0.0,0.0,0.5,0.0,0.75,0.0,0.25,0.0,0.0,-0.36,-0.73,0.7,0.0,22.5,-5.1,0.0,1.0,2.75,4.0,3.5,3.75,2.75,6.25,3.75,5.5,6.25,5.0,6.25,0.08,0.08,0.95,911.57,-0.3,-32.4
0.16,0.0,0.0,0.5,0.0,0.0,0.0,0.75,0.0,0.75,0.0,0.25,0.0,0.0,-0.23,-0.42,0.77,0.0,23.1,-3.0,1.25,1.25,3.75,4.75,3.5,3.75,3.0,5.5,3.5,4.0,5.25,3.75,5.5,0.08,0.08,0.95,850.31,-2.9,-19.3
0.18,0.0,0.0,0.5,0.0,0.0,0.0,0.5,0.0,0.5,0.25,0.25,0.0,0.0,-0.36,-0.23,0.89,0.0,18.4,-10.4,1.25,1.25,4.0,5.0,3.5,4.5,3.75,5.25,3.5,3.5,4.5,3.25,4.25,0.08,0.08,0.95,778.39,-3.6,-12.1
0.2,0.0,0.0,0.25,0.0,0.0,0.0,0.75,0.0,0.75,0.25,0.25,0.25,0.0,-0.36,-0.11,1.02,0.0,14.9,-32.1,2.0,1.75,4.75,6.5,4.25,5.25,4.25,5.25,3.25,2.0,3.25,2.25,2.5,0.08,0.08,0.95,723.21,-5.8,6.5
0.22,0.0,0.0,0.25,0.0,0.0,0.0,0.75,0.0,0.5,0.0,0.25,0.0,0.0,-0.3,0.08,1.2,0.0,22.2,-8.7,2.5,1.75,5.75,7.5,5.5,5.75,5.0,5.25,3.0,1.5,2.5,1.5,2.25,0.08,0.08,0.95,710.28,-6.8,16.2
0.24,0.0,0.0,0.25,0.0,0.0,0.0,0.75,0.0,0.5,0.25,0.25,0.0,0.0,-0.23,0.27,1.33,0.0,16.3,-19.1,2.5,2.0,6.5,9.25,6.25,5.75,5.5,5.0,2.75,1.25,2.25,1.0,1.75,0.08,0.08,0.95,727.32,-8.0,23.6
0.26,0.0,0.0,0.25,0.0,0.0,0.0,0.75,0.0,0.5,0.25,0.25,0.0,0.0,-0.3,0.33,1.58,0.0,16.3,-19.1,3.5,2.25,7.25,10.0,7.25,5.75,6.0,4.25,2.75,1.25,2.25,0.75,1.25,0.08,0.08,0.95,768.19,-9.6,29.8
0.28,0.0,0.0,0.25,0.0,0.0,0.0,0.75,0.0,0.25,0.0,0.25,0.0,0.0,-0.3,0.52,2.08,0.0,24.5,-2.0,4.0,2.5,8.0,12.0,7.75,6.0,6.25,4.25,2.25,0.5,2.0,0.75,0.25,0.08,0.08,0.95,822.07,-11.0,37.7
0.3,0.0,0.0,0.25,0.0,0.0,0.0,0.75,0.0,0.25,0.25,0.25,0.0,0.0,-0.42,1.08,2.52,3.29,17.1,-15.5,5.0,2.5,8.5,13.0,8.0,6.5,6.75,4.25,2.0,0.0,0.75,0.75,0.25,0.02,0.14,0.95,882.98,-11.7,43.0
0.32,0.0,0.0,0.0,0.0,0.0,0.0,0.75,0.0,0.25,0.0,0.25,0.0,0.0,-0.3,1.89,2.39,11.2,20.3,-21.1,5.5,2.5,9.0,14.5,9.0,6.25,6.75,4.25,1.75,0.75,1.25,0.75,0.75,0.08,0.14,1.02,971.25,-11.6,40.9
0.34,0.0,0.0,0.0,0.0,0.0,0.0,0.75,0.0,0.25,0.0,0.25,0.0,0.0,-0.17,2.77,2.2,12.12,20.3,-21.1,6.0,2.75,9.5,14.0,10.5,6.25,7.0,4.25,1.5,0.25,1.0,0.75,0.75,0.02,0.14,1.08,1056.89,-11.8,43.6
0.36,0.0,0.0,0.0,0.0,0.0,0.5,0.75,0.0,1.0,0.75,0.25,1.0,0.0,0.14,3.2,1.2,28.38,3.2,-51.6,7.0,3.25,10.0,16.5,10.5,6.0,6.75,4.0,1.5,0.5,0.25,0.75,0.5,0.02,0.2,1.02,1153.25,-12.7,47.3
0.38,0.5,0.25,1.75,0.0,0.0,0.25,0.75,0.0,0.25,0.0,0.75,0.0,0.0,0.77,3.95,0.14,46.03,25.8,32.8,8.0,3.5,11.5,16.5,11.0,5.25,6.5,3.25,1.5,0.0,0.75,1.0,0.5,0.02,0.2,1.08,1240.8,-14.3,49.1
0.4,0.0,0.0,0.0,0.0,0.0,0.0,0.75,0.0,0.5,0.5,0.25,0.0,0.0,1.64,5.2,-0.42,47.1,7.7,-40.9,8.5,3.25,11.0,18.0,11.5,5.25,6.0,2.75,1.5,0.0,0.75,0.75,0.5,0.02,0.27,1.08,1307.5,-14.4,50.7
0.42,0.0,0.0,0.0,0.0,0.0,0.0,0.75,0.0,0.5,1.0,0.5,1.0,0.5,1.39,1.95,-1.98,56.67,2.3,-74.6,9.0,4.25,11.5,18.0,11.0,2.0,5.5,0.0,1.0,0.0,1.0,1.0,0.5,0.02,0.33,1.14,1307.19,-17.9,56.2
0.44,0.0,0.0,0.0,0.0,0.0,0.0,0.5,0.0,0.25,2.5,1.25,4.25,4.25,0.27,-0.8,2.52,115.61,-2.9,-95.9,9.75,3.75,13.0,16.5,10.5,1.25,5.0,1.75,1.5,0.0,0.0,0.5,0.0,0.08,0.39,1.14,1279.44,-18.7,58.1
0.46,0.0,0.0,0.0,0.0,0.0,0.0,0.5,0.25,1.0,5.5,3.0,7.25,7.0,0.89,0.27,1.52,224.44,-3.0,-93.0,9.75,4.75,13.0,14.0,9.0,0.0,5.75,2.75,1.0,0.0,0.75,0.0,0.5,0.2,0.52,1.39,1208.84,-19.3,56.7
0.48,0.0,0.25,0.75,0.0,0.0,2.5,1.0,3.0,1.75,7.75,7.0,8.5,9.0,-0.55,0.27,1.77,383.86,-3.3,-74.9,9.0,4.25,9.75,12.5,6.25,0.75,6.5,2.75,1.0,0.0,0.25,0.0,0.5,0.27,0.77,1.77,1076.62,-19.0,56.4
0.5,0.0,0.5,0.0,0.0,0.0,3.0,0.0,4.0,2.5,8.25,8.0,7.75,9.0,0.08,-0.05,1.2,575.93,-4.6,-74.2,8.5,3.5,9.0,9.75,5.25,0.0,6.5,2.75,1.0,0.0,0.25,0.25,0.5,0.52,1.77,2.7,912.48,-19.9,54.5
0.52,0.25,1.0,1.0,0.5,0.0,3.5,1.25,5.25,2.75,8.5,9.0,8.25,9.75,-0.05,-0.05,1.02,773.78,-2.9,-65.1,6.75,2.5,6.75,6.75,1.75,0.5,5.0,2.75,1.0,0.0,0.0,0.0,0.5,1.08,1.95,3.14,689.93,-20.5,52.8
0.54,0.0,0.25,0.0,0.0,0.0,2.5,1.5,5.25,2.5,8.0,8.75,8.0,9.25,-0.05,0.02,1.02,866.04,-3.9,-74.1,2.5,1.5,5.0,2.25,0.25,0.0,2.0,2.0,1.0,0.0,0.0,0.5,0.0,0.83,0.83,3.27,426.62,-21.8,43.6
0.56,0.0,0.25,0.0,0.0,0.0,2.75,1.5,5.25,2.5,8.0,8.75,8.0,9.0,-0.05,-0.05,0.95,908.24,-4.0,-73.3,1.25,0.0,2.25,3.0,0.5,0.0,1.0,2.75,0.75,0.0,0.0,0.75,0.5,0.14,-0.8,0.89,251.17,-12.8,16.7
0.58,0.0,0.25,0.0,0.0,0.0,2.5,1.5,5.25,2.75,7.75,8.75,8.0,9.0,-0.05,-0.05,0.95,900.23,-3.7,-73.7,0.75,0.75,0.5,2.75,0.0,0.0,1.0,2.75,0.75,0.25,0.0,0.75,0.5,1.2,-1.23,2.27,117.65,-7.4,6.1
0.6,0.0,0.25,0.0,0.0,0.0,2.75,1.5,5.25,2.75,7.25,7.75,8.25,8.25,-0.05,-0.05,0.95,872.93,-3.8,-72.6,0.5,0.75,2.5,2.75,1.25,0.0,0.75,2.75,1.0,0.0,0.0,0.75,0.5,1.33,-1.42,1.77,45.97,-10.8,18.5
0.62,1.75,2.0,0.75,2.25,4.25,4.5,2.25,6.0,3.25,7.0,8.75,7.25,8.25,-0.05,-0.05,0.95,913.65,-1.0,-39.4,0.25,1.5,2.5,2.75,1.25,0.0,0.75,2.75,1.0,0.0,0.0,0.75,0.5,0.7,-0.92,0.77,26.08,-10.5,21.6
0.64,0.5,0.75,1.25,2.0,4.75,5.0,2.0,5.25,3.5,7.0,7.5,7.0,8.0,-0.05,-0.05,0.95,924.99,-2.0,-42.2,0.25,0.75,1.0,2.5,0.0,0.0,0.25,1.75,1.0,0.0,0.0,0.25,0.0,0.39,-0.42,0.45,6.43,-11.7,23.7
0.66,0.75,0.75,0.75,2.0,4.75,5.0,2.0,5.25,3.5,6.5,6.5,6.25,7.0,-0.05,0.02,0.95,898.22,-2.3,-39.3,0.0,0.75,2.5,2.5,0.0,0.0,1.0,2.5,1.0,0.0,0.0,0.75,0.0,0.39,-0.23,0.52,11.74,-13.6,16.9
0.68,1.0,0.75,0.0,2.0,4.75,5.0,0.75,5.25,3.5,5.5,6.25,5.5,6.25,-0.05,0.02,0.95,811.35,-3.0,-37.8,0.0,0.75,2.5,2.5,0.0,0.0,1.0,2.75,0.75,0.0,0.0,0.5,0.5,0.45,-0.17,0.7,20.49,-11.7,13.8
0.7,0.5,1.75,0.25,4.75,4.75,5.0,2.0,5.25,3.5,4.5,5.25,4.0,5.5,-0.05,0.02,0.95,727.67,-1.3,-23.8,0.0,0.75,2.5,2.5,0.25,0.0,0.75,2.75,1.0,0.75,0.0,0.5,0.5,0.58,-0.11,0.83,54.07,-9.5,8.0
0.72,1.25,0.75,1.0,4.75,6.75,5.75,3.25,5.25,4.25,3.75,5.0,2.75,4.5,-0.05,0.02,0.95,675.48,-0.1,-13.2,0.0,0.75,2.5,2.5,0.0,0.0,0.75,2.75,0.75,0.0,0.0,0.75,0.5,0.52,0.08,0.95,86.3,-11.5,10.9
0.74,0.75,1.75,1.5,6.5,5.0,6.5,3.25,5.25,3.5,3.75,5.0,2.5,4.25,-0.05,0.02,0.95,666.34,0.4,-9.1,0.0,0.75,2.5,2.5,0.0,0.0,0.75,2.75,0.75,0.0,0.0,0.5,0.5,0.45,0.39,1.02,118.18,-11.5,13.7
0.76,1.0,1.5,1.75,6.5,7.25,6.5,4.5,5.25,3.5,3.75,2.75,2.75,2.25,-0.05,0.02,0.95,674.32,1.1,1.8,0.0,0.75,2.25,2.25,0.0,0.0,0.75,2.75,1.0,0.0,0.0,0.75,0.5,0.45,0.58,1.2,141.44,-10.7,7.5
0.78,1.25,1.75,2.75,8.5,7.5,7.5,5.25,5.25,3.5,2.75,2.25,1.25,1.75,-0.05,0.02,0.95,705.28,2.7,14.3,0.0,0.75,2.5,2.25,0.0,0.0,0.75,2.75,0.75,0.0,0.0,0.25,0.5,0.45,0.64,1.39,154.38,-11.4,15.5
0.8,2.0,2.0,5.0,12.5,9.25,8.0,5.25,5.25,2.5,2.75,2.5,1.5,1.25,-0.05,0.02,1.02,793.63,5.2,23.2,0.0,0.5,2.25,2.25,0.0,0.0,0.75,2.75,0.75,0.25,0.0,0.5,0.5,0.39,0.77,1.77,154.92,-10.0,7.1
0.82,3.5,2.0,6.25,14.5,11.5,8.5,6.0,4.0,2.0,2.75,2.5,1.25,1.5,-0.05,0.02,1.02,927.12,6.8,29.6,0.0,0.75,2.5,1.75,0.0,0.0,0.75,2.75,0.75,0.0,0.0,0.5,0.5,0.45,1.39,2.58,152.37,-11.1,10.2
0.84,2.75,2.75,5.75,14.0,11.5,8.0,5.75,3.75,1.75,2.0,2.25,1.25,2.0,-0.05,0.08,1.08,1029.83,6.5,30.3,0.0,0.75,2.25,2.25,0.0,0.0,0.75,2.75,1.0,0.0,0.0,0.25,0.5,0.45,2.2,2.52,150.49,-10.8,13.1
0.86,4.5,2.5,8.5,17.5,15.0,7.75,5.25,3.75,1.5,1.0,2.5,1.25,1.5,-0.05,0.14,1.08,1181.88,8.8,37.8,0.0,0.75,2.25,2.0,0.0,0.0,0.75,2.75,0.75,0.0,0.0,0.75,0.5,0.14,3.14,2.02,151.73,-10.5,7.3
0.88,6.0,3.25,9.25,19.0,15.0,8.0,4.5,3.75,1.5,1.75,1.75,1.25,1.25,-0.11,0.14,1.14,1331.5,9.4,40.6,0.0,0.75,1.75,2.25,0.0,0.0,0.75,2.75,1.0,0.0,0.0,0.5,0.5,-0.8,3.89,1.45,153.74,-9.3,7.6
0.9,7.0,3.5,9.5,17.5,16.0,7.75,3.25,3.25,1.0,1.75,1.5,1.0,0.25,-0.11,0.14,1.2,1414.2,9.9,45.6,0.0,0.75,2.25,2.25,0.0,0.0,0.75,2.75,1.0,0.0,0.0,0.75,0.5,-1.36,4.58,0.52,153.63,-10.7,7.5
0.92,7.5,3.75,9.5,17.5,16.0,7.0,1.5,2.0,1.0,2.0,1.75,1.0,1.5,-0.11,0.2,1.2,1454.14,10.0,44.4,0.0,0.25,2.0,1.75,0.0,1.0,0.75,2.75,0.75,0.0,0.0,0.75,0.25,-2.61,6.33,-0.86,151.58,-7.0,5.4
0.94,7.75,4.75,9.5,17.5,16.0,6.5,0.75,1.75,1.0,1.5,1.75,1.0,1.25,-0.23,0.27,1.33,1464.58,10.6,47.1,0.0,0.5,0.75,0.0,0.0,0.0,0.0,1.5,0.75,2.75,0.0,5.0,3.5,-0.11,-0.48,1.95,178.61,1.9,-76.6
0.96,6.25,4.25,8.5,16.0,13.5,5.75,0.75,1.75,1.0,1.75,1.75,1.0,1.25,-0.36,0.33,1.7,1401.92,10.4,44.5,0.0,0.0,2.25,0.0,0.0,1.0,0.0,2.25,1.0,5.25,2.0,6.0,6.5,-1.36,0.58,1.45,252.6,2.2,-71.5
0.98,5.75,2.25,5.25,10.5,13.0,3.75,0.5,1.5,1.0,1.5,0.5,1.0,0.25,-0.36,0.77,2.45,1205.5,9.5,46.6,0.0,0.0,0.25,0.75,0.0,1.0,0.0,2.75,1.5,7.75,4.5,7.0,8.0,0.2,0.64,3.02,354.71,4.5,-79.1
1.0,4.75,2.25,1.75,7.5,8.75,2.5,0.5,1.5,1.0,0.5,1.5,1.0,1.25,-1.11,2.27,3.58,896.5,8.2,38.0,0.0,0.0,0.75,2.0,0.25,1.5,0.75,5.25,1.75,8.0,6.25,7.25,8.75,-0.05,0.14,0.95,508.77,3.3,-68.0
1.02,1.75,0.5,0.75,4.75,7.0,1.25,0.0,1.75,1.0,0.0,1.5,1.0,0.75,-0.61,0.77,4.02,567.68,5.2,26.3,0.0,0.25,0.0,2.0,1.25,3.25,0.25,5.25,2.0,8.5,7.5,7.0,9.0,0.14,0.14,1.02,663.61,4.6,-63.2
1.04,0.75,0.5,0.0,2.0,4.75,1.75,0.0,0.0,1.0,0.25,0.25,1.0,0.25,-0.42,-1.61,1.02,308.78,2.0,28.7,0.0,0.0,0.25,0.5,0.0,2.0,0.0,5.25,3.0,8.75,7.0,7.75,8.25,0.08,0.08,0.95,756.95,4.4,-74.1
1.06,0.5,0.25,0.0,0.75,0.0,0.25,0.0,0.25,1.0,1.25,0.0,0.5,1.0,-0.3,-1.17,2.77,133.01,1.0,-32.1,0.0,0.0,1.0,1.25,0.0,3.25,0.75,5.5,2.75,7.75,7.5,6.5,8.25,0.14,0.02,0.95,800.62,3.5,-64.6
1.08,0.0,0.0,0.0,0.0,0.0,0.25,0.0,0.0,1.0,0.25,0.0,0.0,0.0,-1.05,-1.42,2.14,0.0,1.8,-33.2,0.0,1.0,0.75,2.5,2.75,4.5,0.75,6.25,3.5,7.75,7.5,7.0,7.75,0.08,0.08,0.95,852.87,3.1,-48.6
1.1,0.0,0.0,0.0,0.0,0.0,0.0,0.0,0.0,0.5,0.0,0.0,0.0,0.0,-0.61,-1.23,0.83,0.0,12.1,-38.5,0.0,0.75,1.5,2.75,3.25,5.25,1.0,6.25,4.0,7.25,7.5,6.25,7.75,0.08,0.08,0.95,895.6,2.5,-43.6
1.12,0.0,0.25,0.0,0.0,0.0,0.0,0.0,0.0,0.5,0.25,0.0,0.0,0.0,-0.36,-0.92,0.58,0.0,5.3,-12.3,0.0,1.0,2.5,4.0,3.5,5.5,2.0,6.25,4.0,6.0,7.0,5.5,6.25,0.08,0.08,0.95,912.28,0.6,-33.0
1.14,0.0,0.25,0.0,0.0,0.0,0.0,0.25,0.0,1.0,0.0,1.25,0.25,0.0,-0.23,-0.73,0.7,0.0,12.2,-45.3,0.75,0.75,3.75,4.75,3.5,5.5,2.5,6.25,3.5,5.5,6.25,4.25,5.25,0.08,0.08,0.95,894.61,-1.0,-23.4
1.16,0.25,0.25,0.0,0.0,0.0,0.25,0.5,0.0,1.0,1.25,0.0,1.0,0.5,-0.3,-0.61,0.77,0.0,1.6,-49.9,1.25,1.25,4.0,5.0,3.5,3.75,3.0,5.5,3.0,3.25,4.5,2.25,4.25,0.08,0.08,0.95,811.74,-3.6,-10.4
1.18,1.0,0.25,1.0,0.0,2.5,0.25,0.75,1.5,1.0,1.0,0.0,1.0,1.0,-0.36,-0.36,0.83,0.0,3.3,-3.7,0.0,0.5,2.75,4.5,2.75,3.75,2.5,5.0,2.75,1.0,2.25,1.5,1.5,0.08,0.08,0.95,638.92,-3.0,-1.7
1.2,0.25,0.5,0.75,0.25,3.0,1.25,0.75,1.75,1.0,0.5,0.0,1.0,0.5,-0.3,-0.17,1.08,4.33,-0.1,5.4,0.0,0.75,4.0,5.0,3.5,4.5,3.0,4.25,2.25,0.25,2.0,0.75,0.75,0.08,0.08,0.95,501.63,-5.4,14.9
1.22,0.0,0.25,0.25,0.0,0.0,0.0,0.75,0.0,0.25,0.5,0.0,0.0,0.0,-0.23,0.08,1.14,33.52,12.2,2.3,0.0,0.75,4.0,5.5,3.5,4.5,3.0,4.25,1.75,0.0,0.75,0.75,0.5,0.08,0.08,0.95,400.89,-5.6,22.4
1.24,0.0,0.25,0.0,0.0,0.0,0.0,0.75,0.0,0.25,0.25,0.0,0.0,0.0,-0.23,0.27,1.33,35.34,12.5,6.2,0.0,0.75,4.75,6.75,6.25,5.5,3.5,4.0,1.75,0.0,0.25,0.75,0.0,0.08,0.08,0.95,384.35,-5.7,31.9
1.26,0.25,0.25,0.0,0.0,0.0,1.75,0.75,0.0,1.0,0.25,0.0,0.0,0.0,-0.3,0.39,1.64,37.82,-1.7,15.3,1.25,0.75,5.75,7.5,6.5,5.5,4.25,4.25,1.5,0.0,2.0,0.25,0.0,0.08,0.08,0.95,415.34,-7.9,32.4
1.28,0.25,0.5,0.0,0.0,0.75,1.75,1.0,1.75,1.0,0.0,0.5,0.0,0.75,-0.36,0.64,2.14,65.94,-4.2,-4.8,2.25,1.0,6.25,8.5,6.25,5.5,4.5,3.0,1.5,0.0,0.0,0.25,0.0,0.08,0.08,0.95,467.44,-10.1,43.3
1.3,0.0,0.25,0.0,0.0,0.0,0.0,0.75,0.0,0.25,1.0,0.0,1.0,0.75,-0.61,1.39,2.52,74.81,0.1,-67.1,3.75,2.5,7.25,12.0,7.75,6.25,4.75,3.0,1.25,0.5,0.0,0.75,0.5,0.08,0.14,0.95,576.09,-10.6,44.3
1.32,0.0,0.0,0.0,0.0,0.0,0.0,0.75,0.0,0.25,0.25,0.0,0.0,0.25,-0.73,2.27,2.77,67.28,6.4,-42.0,5.0,2.5,8.75,15.0,9.0,5.75,5.5,4.25,1.0,0.0,1.0,0.75,0.5,0.08,0.14,1.02,728.56,-11.8,44.4
1.34,0.25,0.0,0.0,0.0,0.0,0.25,0.75,0.0,0.25,0.0,0.0,0.0,0.25,-0.61,3.08,2.14,45.7,10.4,2.2,5.0,2.25,9.0,15.0,10.0,6.5,5.5,4.0,1.0,0.0,1.0,0.75,0.5,0.02,0.14,1.02,892.18,-11.4,44.6
1.36,0.25,0.5,0.75,0.0,0.5,2.25,1.25,0.0,1.0,1.0,1.5,1.0,0.75,-0.11,3.7,0.7,68.69,2.3,-17.6,6.5,2.5,11.0,16.5,9.75,6.25,5.75,3.25,0.75,0.5,1.0,0.75,0.5,0.02,0.2,1.08,1056.43,-13.2,47.2
1.38,0.25,0.5,0.75,0.0,2.5,2.25,0.75,1.75,1.0,0.75,1.5,1.0,1.25,0.83,5.27,-0.05,116.38,-1.7,-11.6,6.75,1.75,10.5,15.5,10.5,5.25,5.5,2.75,0.75,0.0,1.0,0.0,0.5,-0.05,0.2,1.08,1144.95,-13.9,50.4
1.4,0.25,0.5,0.75,0.0,0.5,1.25,0.75,1.75,0.25,0.0,1.5,0.25,1.0,1.89,6.08,-0.8,137.97,0.5,-14.9,6.75,2.25,11.0,16.0,11.0,3.75,5.0,2.75,1.0,0.25,0.75,0.25,0.5,-0.05,0.2,1.14,1200.57,-14.6,50.5
1.42,0.0,0.5,0.0,0.0,0.0,1.0,0.5,0.5,0.25,1.0,0.25,1.0,1.75,0.33,1.7,3.02,139.15,-6.4,-52.4,8.5,3.0,12.5,16.5,10.5,3.5,4.0,2.0,0.75,0.0,0.5,0.0,0.5,0.02,0.33,1.14,1229.49,-16.4,55.9
1.44,0.0,0.0,0.0,0.0,0.0,0.0,0.0,0.0,0.25,2.0,1.25,4.25,4.0,0.02,-0.98,1.52,163.56,-2.8,-99.0,9.25,4.0,11.5,18.0,9.75,3.25,3.5,1.75,1.0,0.0,0.25,0.75,0.25,0.08,0.39,1.27,1249.58,-16.8,56.5
1.46,0.0,0.0,0.0,0.0,0.0,0.25,0.0,1.75,1.0,5.5,2.5,6.5,7.0,1.02,0.2,1.33,245.08,-5.0,-89.4,9.5,4.0,13.0,16.5,9.75,1.0,4.0,2.5,1.0,0.25,0.25,0.75,0.5,0.27,0.45,1.52,1250.71,-18.1,55.0
1.48,0.0,0.0,0.0,0.0,0.0,2.0,0.75,3.75,1.25,7.5,6.5,7.75,9.5,-0.73,0.33,2.83,376.54,-5.0,-80.0,9.0,4.0,11.5,12.5,7.75,1.0,5.5,2.5,1.0,0.0,0.0,0.25,0.5,0.33,0.64,2.14,1162.3,-18.8,56.7
1.5,0.0,0.75,0.0,0.0,0.0,4.25,0.0,3.75,2.75,9.25,7.0,8.75,8.5,0.2,-0.05,1.39,565.48,-5.0,-70.7,7.75,3.0,8.25,9.0,5.5,1.0,5.5,2.75,0.75,0.0,0.0,0.25,0.5,0.58,1.89,3.02,975.19,-18.3,54.2
1.52,0.5,1.5,0.0,1.25,0.0,3.75,0.5,5.25,3.25,9.25,9.5,9.25,10.0,-0.05,0.02,1.02,782.19,-3.1,-64.6,5.75,0.75,4.75,5.25,0.0,0.75,2.5,2.75,0.75,0.0,0.0,0.5,0.5,1.27,1.89,4.08,664.25,-20.1,44.8
1.54,0.75,0.5,0.0,1.75,4.75,2.75,1.75,6.0,3.5,9.25,10.0,9.25,10.0,-0.05,-0.05,0.95,975.95,-2.4,-55.2,0.5,0.25,2.75,3.0,0.0,0.0,0.75,1.25,0.75,0.0,0.0,0.25,0.0,0.77,-0.05,3.77,355.42,-19.7,35.6
1.56,1.25,0.5,0.0,2.0,4.75,4.5,1.75,6.25,4.25,8.25,10.5,9.25,9.75,-0.05,-0.05,0.95,1119.99,-2.1,-50.5,1.25,0.75,0.0,2.5,1.25,0.0,0.75,2.75,0.75,0.0,0.0,0.75,0.5,0.02,-0.98,2.83,188.52,-5.8,14.0
1.58,1.25,1.0,0.0,2.25,4.75,5.25,0.5,6.25,4.25,8.25,10.0,8.5,9.0,-0.05,-0.05,0.95,1184.18,-2.6,-46.9,0.5,0.75,2.5,2.75,0.5,1.0,0.75,2.75,0.75,0.0,0.0,0.75,0.5,1.45,-1.55,2.64,84.16,-9.3,18.4
1.6,1.25,1.25,0.0,2.0,4.75,5.0,0.75,6.25,4.25,7.75,9.25,7.75,8.25,-0.05,-0.05,0.95,1177.4,-2.5,-44.7,0.0,0.75,2.5,2.5,0.0,1.0,0.75,2.75,0.75,0.0,0.0,0.5,0.5,1.2,-1.42,1.52,31.75,-8.8,15.3
1.62,0.0,0.25,0.0,0.75,2.5,4.75,0.75,5.25,4.25,6.5,7.5,6.5,6.5,-0.05,-0.05,0.95,1054.32,-3.9,-54.5,0.5,0.75,2.5,2.5,0.0,0.5,0.75,2.75,0.75,0.0,0.0,0.25,0.5,0.64,-0.8,0.45,20.75,-11.1,20.6
1.64,0.5,0.75,0.0,2.5,4.75,5.0,2.0,6.0,3.5,5.25,6.5,5.5,5.75,-0.05,0.02,0.95,935.12,-2.7,-36.5,0.0,0.75,2.5,2.5,0.0,0.0,0.75,2.75,0.75,0.0,0.0,0.75,0.5,0.52,-0.42,0.2,15.6,-11.5,10.9
1.66,0.5,1.5,0.5,2.5,2.5,5.0,2.75,5.25,4.25,4.75,5.75,5.25,5.25,-0.05,0.02,0.95,800.14,-1.2,-35.4,0.0,0.75,2.5,2.25,0.0,0.0,0.75,2.75,0.75,0.0,0.0,0.75,0.5,0.52,-0.17,0.33,14.77,-11.3,9.8
1.68,1.0,1.5,1.75,2.25,4.75,5.0,2.0,5.25,4.0,4.5,5.75,4.25,4.25,-0.05,0.02,0.95,705.22,-0.1,-23.8,0.0,0.75,1.75,2.5,0.25,0.0,0.75,2.75,0.75,0.0,0.0,0.25,0.5,0.52,-0.17,0.64,22.65,-9.1,14.3
1.7,1.5,1.75,1.5,4.75,5.5,5.5,3.25,5.25,4.0,4.0,5.5,3.75,4.25,-0.05,0.02,0.95,662.67,1.1,-13.9,0.0,0.75,2.5,2.5,0.0,0.0,0.75,2.75,0.75,0.0,0.0,0.5,0.5,0.52,-0.05,0.89,51.34,-11.5,13.7
1.72,1.25,1.75,1.75,4.75,7.0,5.25,3.5,5.25,3.5,3.75,5.0,2.75,3.5,-0.05,0.02,0.95,647.0,1.1,-7.1,0.0,0.75,2.25,2.25,0.0,0.0,0.75,2.75,0.75,0.75,0.0,0.75,0.5,0.52,0.14,1.14,89.77,-8.9,2.9
1.74,2.0,1.75,2.0,6.5,7.0,6.5,4.0,5.25,3.5,2.75,4.0,2.75,2.25,-0.05,0.02,0.95,657.14,2.5,3.7,0.0,0.75,2.5,2.25,0.0,0.0,0.75,2.75,0.75,0.0,0.0,0.75,0.5,0.39,0.39,1.14,124.64,-11.3,9.8
1.76,2.0,1.75,2.75,8.0,7.25,7.0,4.5,5.25,3.5,2.75,4.0,2.25,2.25,-0.05,0.02,0.95,684.01,3.3,8.0,0.0,0.75,2.5,2.25,0.0,0.5,0.75,2.75,0.75,0.0,0.0,0.75,0.5,0.39,0.64,1.2,153.95,-9.9,10.8
1.78,2.25,1.75,4.25,9.0,8.75,7.5,5.0,5.25,3.5,2.5,3.75,1.75,2.25,-0.05,0.02,0.95,750.67,4.3,14.2,0.0,0.75,1.75,2.25,0.0,0.5,0.75,2.75,0.75,0.0,0.0,0.25,0.5,0.39,0.77,1.52,160.33,-7.8,12.9
1.8,2.75,2.0,5.25,12.5,9.25,8.0,5.0,5.0,2.75,2.75,2.5,1.0,2.25,-0.05,0.02,0.95,846.75,5.4,23.1,0.0,0.75,1.75,2.25,0.0,0.5,0.5,2.75,0.75,0.0,0.0,0.5,0.5,0.45,1.39,1.95,155.11,-7.5,9.7
1.82,3.75,2.0,6.5,13.5,11.0,8.25,5.75,3.75,2.5,2.0,1.5,1.0,1.25,-0.05,0.02,1.02,957.25,7.4,33.1,0.0,0.75,2.25,2.25,0.0,0.5,0.75,2.75,0.75,0.75,0.0,0.75,0.5,0.39,2.14,2.33,157.93,-7.6,4.2
1.84,4.25,2.0,7.25,16.0,13.0,8.5,5.75,3.75,1.75,2.0,2.75,1.25,1.0,-0.05,0.02,1.08,1102.5,7.9,34.4,0.0,0.5,2.25,2.5,0.0,0.5,0.75,2.75,0.75,0.0,0.0,0.5,0.5,0.27,3.02,2.52,160.93,-9.3,11.4
1.86,5.5,2.0,0.0,14.5,14.0,8.5,5.75,3.75,1.75,1.0,2.5,1.0,1.5,-0.05,0.08,1.14,1151.07,4.5,33.7,0.0,0.5,2.5,2.25,0.0,0.0,0.75,2.75,0.75,0.0,0.0,0.75,0.5,-0.3,3.58,1.89,161.62,-11.3,7.6
1.88,6.25,1.75,7.5,16.0,13.5,7.5,4.5,1.75,1.0,0.0,1.5,0.25,0.25,-0.05,0.14,1.2,1178.65,10.7,49.5,0.0,0.75,2.0,2.25,0.0,1.0,0.75,2.75,0.75,0.0,0.0,0.75,0.5,-0.92,4.2,0.52,164.07,-7.2,9.5
1.9,7.0,3.5,8.5,19.0,14.0,8.0,3.0,1.75,1.25,2.0,1.5,1.25,1.5,-0.05,0.14,1.2,1264.77,9.9,43.2,0.0,0.75,2.25,2.25,0.0,1.0,0.5,2.75,0.75,0.0,0.0,0.75,0.5,-1.42,4.77,-0.3,166.8,-7.6,10.4
1.92,7.75,3.5,10.0,19.0,15.0,7.5,1.5,1.75,1.0,2.0,1.75,1.0,1.25,-0.11,0.14,1.27,1347.3,10.6,45.3,0.0,0.5,1.75,0.75,0.0,1.0,0.25,1.5,0.75,0.0,0.0,0.75,0.25,-3.23,5.2,1.27,149.77,-7.8,6.0
1.94,7.25,3.5,9.75,14.0,16.0,6.0,0.75,1.75,1.0,1.25,1.75,1.0,1.5,-0.17,0.2,1.33,1360.86,10.4,45.2,0.0,0.5,0.75,2.0,0.0,0.75,0.0,1.25,1.0,1.5,0.25,5.25,4.5,0.52,-1.23,2.33,184.99,-0.5,-58.9
1.96,7.25,3.75,8.5,16.0,13.0,6.0,0.75,1.75,1.0,1.0,2.0,1.0,1.25,-0.3,0.27,1.52,1338.7,11.0,45.7,0.0,0.75,2.5,2.25,0.0,1.0,0.0,3.0,1.0,5.5,3.0,6.25,8.25,-1.42,0.58,1.27,280.63,0.8,-59.3
1.98,6.25,3.5,6.0,12.5,12.5,4.0,0.0,1.25,1.0,1.5,0.75,1.0,0.25,-0.42,0.45,2.08,1184.36,10.5,48.8,0.0,0.0,0.75,0.0,0.0,0.0,0.0,2.75,0.75,7.0,4.5,7.25,8.0,0.2,0.52,2.95,378.58,3.8,-85.0
2.0,5.5,2.0,3.75,7.5,8.75,1.5,0.0,0.5,1.0,1.0,1.75,0.5,1.25,-0.92,1.83,3.14,898.66,11.4,42.0,0.0,0.0,2.5,1.0,0.0,1.0,0.25,4.25,1.5,7.75,4.75,7.0,8.75,0.2,0.27,1.27,511.85,2.2,-68.5
2.02,3.75,1.75,1.75,5.25,7.25,1.75,0.0,1.75,1.0,1.0,1.75,1.0,1.25,-0.86,1.64,4.14,630.1,7.2,29.4,0.0,0.0,1.25,2.25,0.0,3.25,0.5,5.25,2.0,8.5,6.25,7.75,9.0,0.08,0.08,0.95,648.26,3.5,-63.8
2.04,0.25,0.5,0.5,2.0,4.75,0.5,0.0,0.25,0.75,0.0,0.5,0.25,1.0,-0.36,-0.8,3.52,354.36,3.2,26.6,0.0,0.0,1.0,2.25,0.25,3.5,0.5,5.5,2.25,9.0,7.5,8.25,9.5,0.08,0.08,1.02,773.5,3.6,-64.4
2.06,0.0,0.0,0.0,0.0,0.0,0.0,0.0,0.0,0.75,0.0,0.0,0.25,0.0,-0.17,-1.3,0.02,155.42,11.3,-56.5,0.0,0.0,2.5,0.5,0.25,1.25,0.75,6.25,2.0,8.0,8.5,7.0,9.5,0.08,0.08,0.95,836.33,2.1,-67.8
2.08,0.0,0.25,0.0,0.0,0.0,0.0,0.0,0.0,0.75,0.0,0.25,0.25,0.0,-0.98,-1.8,2.7,0.0,11.4,-32.6,0.0,0.0,0.5,1.0,0.0,2.5,0.25,5.5,2.75,7.75,7.75,7.0,8.25,0.08,0.08,0.95,851.55,3.8,-69.6
2.1,0.0,0.25,0.0,0.0,0.0,0.0,0.0,0.0,0.75,0.0,0.0,0.25,0.0,-0.86,-1.36,1.2,0.0,11.6,-24.3,0.0,0.0,0.0,1.5,0.0,2.75,0.5,6.25,2.75,7.5,7.75,6.25,8.0,0.14,0.02,0.95,830.29,4.4,-67.2
2.12,0.0,0.25,0.0,0.0,0.0,0.0,0.0,0.0,0.5,0.0,0.25,0.0,0.0,-0.48,-0.92,0.58,0.0,11.9,-11.8,0.0,0.25,0.0,1.75,0.0,3.25,0.75,5.75,2.75,6.5,6.5,5.75,7.5,0.14,0.08,0.95,772.97,4.3,-62.7
2.14,0.25,0.5,0.0,0.25,0.0,0.25,0.0,0.0,0.25,1.25,0.25,1.0,0.0,-0.23,-0.67,0.58,0.0,2.1,-33.7,0.0,0.25,0.5,2.25,0.0,3.5,0.75,5.5,2.75,5.75,4.75,4.75,6.5,0.14,0.08,0.95,694.37,4.0,-55.4
2.16,0.0,0.25,0.0,0.0,0.0,0.0,0.0,0.0,0.25,0.0,0.25,0.0,0.0,-0.17,-0.55,0.7,0.0,11.8,-3.0,0.0,0.25,0.0,2.25,0.0,5.0,0.75,5.25,2.75,5.75,4.5,5.0,5.5,0.14,0.08,0.95,620.62,5.0,-52.4
2.18,0.25,0.5,0.5,0.0,0.75,0.5,0.75,1.25,1.0,1.0,1.5,1.0,0.75,-0.23,-0.42,0.77,0.0,2.2,-30.5,0.0,1.0,0.0,3.25,0.0,3.5,1.0,5.75,2.25,3.5,4.5,3.0,4.25,0.08,0.08,0.95,515.97,3.1,-40.9
2.2,0.0,0.25,0.0,0.0,0.0,0.0,0.75,0.0,0.5,1.0,0.25,1.0,0.0,-0.3,-0.23,0.77,0.0,4.9,-55.7,0.0,0.25,0.0,2.5,0.25,3.75,1.5,5.25,2.0,1.5,2.5,1.75,2.5,0.08,0.08,0.95,391.36,4.0,-31.3
2.22,0.25,0.5,0.5,0.0,2.5,1.0,0.75,0.0,1.0,0.0,0.25,0.0,0.0,-0.3,-0.05,0.95,0.0,4.4,36.7,0.0,0.5,1.5,3.0,1.75,4.25,2.0,5.0,2.0,1.25,2.0,1.0,1.75,0.08,0.08,0.95,327.24,0.8,-8.7
2.24,0.0,0.25,0.25,0.0,3.0,0.0,0.75,0.0,0.25,0.0,0.25,0.0,0.0,-0.23,0.14,1.2,33.4,3.9,43.2,0.0,1.5,4.0,6.0,3.75,5.5,3.0,5.25,2.75,2.25,2.5,1.75,2.5,0.08,0.08,0.95,350.18,-2.8,2.0
2.26,0.0,0.25,0.0,0.0,0.0,0.25,0.5,0.0,0.25,0.0,0.25,0.0,0.25,-0.23,0.27,1.45,45.76,5.2,-10.7,1.5,1.75,4.0,7.0,6.25,6.0,3.5,5.25,2.5,2.25,2.25,1.25,1.75,0.08,0.08,0.95,426.24,-3.8,14.6
2.28,0.0,0.25,0.0,0.0,0.0,0.0,0.75,0.0,0.25,0.0,0.25,0.5,0.0,-0.36,0.39,1.77,47.25,15.5,-29.3,2.5,2.0,5.75,8.5,6.25,6.5,4.25,5.25,2.25,1.0,2.25,0.75,1.5,0.08,0.08,0.95,552.51,-6.7,24.8
2.3,0.0,0.25,0.0,0.0,0.0,0.25,0.75,0.0,0.25,0.0,0.25,0.0,0.0,-0.42,0.89,2.52,38.97,11.2,11.6,1.25,1.0,5.75,8.5,6.25,6.0,4.5,4.25,1.75,0.0,0.0,0.25,0.5,0.08,0.08,0.95,605.84,-7.5,36.5
2.32,0.0,0.25,0.0,0.0,0.0,0.25,0.75,0.0,0.25,1.0,0.25,0.25,0.0,-0.61,1.58,2.77,33.35,0.6,-33.6,2.5,1.5,6.75,10.5,7.5,6.25,5.0,4.25,1.5,0.0,0.0,0.25,0.0,0.08,0.08,0.95,665.9,-9.3,42.9
2.34,0.0,0.5,1.0,0.0,0.0,1.25,1.0,1.5,1.0,1.0,1.5,1.0,0.5,-0.55,2.45,2.95,68.12,2.3,-29.0,3.25,2.0,8.0,12.0,8.25,6.5,5.5,4.0,1.25,0.5,0.0,0.25,0.0,0.08,0.08,1.02,727.73,-10.3,44.9
2.36,0.25,0.5,0.75,0.0,0.5,1.5,1.0,0.5,1.0,1.0,1.75,1.0,0.75,-0.23,3.2,2.39,104.58,3.0,-24.3,3.75,2.0,8.25,13.5,9.0,7.25,5.5,3.0,1.5,0.0,0.0,0.0,0.0,0.08,0.14,1.02,821.52,-11.0,48.9
2.38,0.0,0.5,0.75,0.0,0.5,1.75,0.75,1.25,1.0,1.0,1.5,1.0,1.0,0.52,4.14,0.89,135.97,-0.5,-28.2,5.75,0.0,8.5,15.0,9.5,7.25,5.5,2.75,1.25,0.5,0.0,0.75,0.5,0.02,0.14,1.08,923.99,-11.5,45.1
2.4,0.25,0.5,0.5,0.0,1.75,1.75,0.75,1.75,1.0,1.0,1.75,1.0,1.0,1.64,6.83,-1.11,163.86,-1.4,-19.7,5.75,1.75,8.0,15.5,10.5,5.75,5.0,2.75,0.75,0.0,0.0,0.0,0.25,0.02,0.2,1.14,1000.84,-12.2,52.0
2.42,0.0,0.25,0.5,0.0,0.5,1.75,0.75,1.5,1.0,1.0,1.75,1.25,1.25,1.58,4.39,-0.55,173.13,-2.0,-38.2,6.75,3.0,9.25,18.0,10.5,5.5,4.5,2.75,1.25,0.5,0.25,0.75,0.75,0.02,0.27,1.02,1109.18,-12.8,48.8
2.44,0.25,0.0,0.75,0.0,0.0,0.0,0.75,0.0,0.25,1.0,2.0,1.75,2.5,-1.55,-2.11,2.08,175.2,4.2,-70.5,7.0,2.75,11.5,15.5,12.0,0.0,4.25,1.75,0.75,0.0,0.0,0.0,0.5,0.08,0.27,1.14,1122.39,-17.5,57.2
2.46,0.0,0.25,0.0,0.0,0.0,0.0,0.0,1.5,0.25,5.75,2.75,6.25,7.25,0.83,0.14,1.45,244.41,-5.2,-90.4,8.75,4.0,11.0,16.5,9.75,3.5,3.25,0.0,0.75,0.0,0.0,0.75,0.0,0.14,0.39,1.33,1131.04,-17.4,60.6
2.48,0.0,0.25,0.0,0.0,0.0,2.75,0.0,1.75,1.0,7.0,4.75,7.25,7.5,0.33,0.39,3.39,340.26,-5.4,-78.0,8.75,4.0,11.0,15.5,10.0,2.0,4.0,2.75,0.75,0.0,0.0,0.25,0.5,0.27,0.52,1.58,1110.03,-16.6,56.4
2.5,0.0,0.5,0.0,0.5,0.0,4.25,0.0,5.5,2.5,8.5,9.0,9.25,9.75,0.08,-0.05,1.14,554.44,-4.7,-70.8,8.0,3.5,9.25,12.0,7.75,1.25,5.0,2.5,0.75,0.0,0.0,0.75,0.5,0.45,0.89,2.2,1033.21,-17.4,54.1
2.52,0.25,0.5,0.0,1.5,5.0,4.5,1.25,5.75,3.5,9.25,10.0,9.25,10.5,-0.05,0.02,1.02,812.71,-3.5,-54.8,7.0,2.5,7.5,8.5,5.25,1.0,4.5,2.5,0.75,0.25,0.0,0.75,0.5,0.7,2.08,3.27,872.36,-17.6,50.8
2.54,0.25,0.5,0.0,1.5,5.0,3.5,1.25,6.0,3.5,9.5,10.5,9.25,10.5,-0.05,-0.05,0.95,1036.87,-3.2,-56.3,2.75,0.75,5.0,4.0,1.75,0.0,2.25,2.5,0.5,0.0,0.0,0.0,0.5,1.14,1.45,3.95,594.98,-18.3,44.0
2.56,0.25,0.5,0.0,2.0,5.0,4.75,1.5,6.25,3.5,9.25,10.0,8.75,10.0,-0.05,-0.05,0.95,1163.32,-3.4,-52.3,0.0,0.0,0.0,2.25,0.0,0.0,0.0,1.25,0.25,0.0,0.0,0.0,0.0,0.83,-1.36,3.27,303.9,-5.8,20.3
2.58,0.75,0.75,0.0,1.75,5.0,5.0,1.5,6.0,3.5,8.5,9.5,8.5,9.0,-0.05,-0.05,0.95,1194.73,-3.0,-48.9,0.0,0.75,1.25,2.75,0.0,0.0,0.0,1.25,0.75,0.0,0.0,0.75,0.0,0.95,-0.86,1.77,137.9,-13.4,21.2
2.6,0.5,0.5,0.0,1.75,5.0,5.0,0.75,5.5,3.5,8.0,8.75,7.75,8.5,-0.05,-0.05,0.95,1158.08,-3.5,-48.8,0.0,0.5,2.5,2.5,0.0,0.0,0.75,2.75,0.75,0.0,0.0,0.75,0.5,1.39,-1.3,1.89,29.37,-11.4,8.8
2.62,0.5,1.0,0.0,1.75,5.0,5.0,0.0,5.25,3.5,6.5,8.0,7.25,7.75,-0.05,-0.05,0.95,1070.63,-3.3,-45.3,0.0,0.75,2.0,2.75,0.0,0.0,0.75,2.75,1.0,0.0,0.0,1.0,0.5,0.89,-1.17,0.64,0.0,-10.3,6.0
2.64,0.75,1.0,0.0,2.0,5.0,5.0,0.5,5.25,3.5,5.5,7.5,6.5,7.0,-0.05,-0.05,0.95,971.17,-2.8,-40.9,0.0,0.75,2.5,2.5,0.0,1.0,0.25,1.25,0.75,0.0,0.0,0.75,0.5,0.52,-0.61,0.33,0.0,-11.9,19.9
2.66,1.0,1.0,0.5,2.0,4.5,4.75,1.0,5.25,3.75,5.5,6.75,6.25,6.25,-0.05,-0.05,0.95,874.35,-1.9,-38.3,0.0,0.75,1.75,2.5,0.0,1.0,0.75,2.75,0.75,0.0,0.0,0.75,0.5,0.45,-0.36,0.45,4.76,-6.7,9.4
2.68,0.0,0.25,1.75,0.0,4.75,2.75,1.75,3.75,3.5,2.75,6.5,5.5,5.5,-0.05,-0.05,0.95,728.34,0.0,-42.8,0.0,0.75,1.0,2.5,0.0,1.0,0.75,2.75,0.75,0.0,0.0,0.75,0.5,0.45,-0.3,0.7,17.92,-4.4,5.6
2.7,0.25,0.5,0.25,1.75,0.75,4.0,1.75,3.75,3.75,3.0,5.75,5.25,5.5,-0.05,-0.05,0.95,588.46,-1.1,-49.3,0.0,0.75,2.25,2.5,0.0,1.0,0.75,2.75,0.75,0.25,0.0,0.5,0.5,0.39,-0.17,0.89,40.02,-7.6,12.4
2.72,0.75,0.5,1.75,2.0,4.75,4.5,3.0,5.25,4.5,2.5,5.75,4.5,4.25,-0.05,-0.05,0.95,518.83,0.7,-26.2,0.0,0.75,2.0,2.5,0.0,1.0,1.0,2.75,0.75,0.25,0.0,0.75,0.5,0.27,-0.05,1.02,74.25,-7.2,8.9
2.74,2.0,0.5,4.25,3.75,5.0,5.0,5.0,3.75,4.25,2.5,5.0,3.5,4.0,-0.05,-0.05,0.95,511.34,5.0,-9.2,0.0,0.75,2.25,2.25,0.0,1.0,0.75,2.75,0.75,0.0,0.0,0.75,0.5,0.08,0.08,1.33,114.75,-7.9,10.6
2.76,1.5,1.75,5.75,5.75,5.5,5.0,5.75,3.75,4.25,1.25,4.0,2.5,2.0,-0.05,-0.05,0.95,547.59,7.8,8.7,0.0,0.75,2.5,2.25,0.0,1.0,0.75,2.75,0.75,0.0,0.0,0.5,0.5,-0.05,0.33,1.45,147.84,-8.6,14.4
2.78,2.25,1.75,7.5,8.25,7.25,6.25,6.5,3.5,4.25,2.5,3.0,2.75,2.0,-0.05,-0.05,1.02,657.87,8.2,15.4,0.0,0.75,1.75,2.25,0.0,1.0,0.75,2.75,0.75,0.0,0.0,0.75,0.5,0.02,0.52,1.7,170.74,-6.5,8.3
2.8,4.25,2.0,8.5,8.75,7.75,6.0,7.0,3.5,3.5,1.0,2.75,1.5,0.25,-0.05,-0.05,1.02,756.0,11.2,31.0,0.0,0.75,2.75,2.25,0.0,1.0,0.75,2.75,0.75,0.0,0.0,0.75,0.5,0.02,0.95,2.27,181.68,-9.2,12.8
2.82,4.75,1.75,10.5,11.5,9.0,6.75,7.5,3.75,2.75,2.5,2.25,1.0,1.75,-0.05,0.02,1.08,904.65,10.6,30.4,0.0,0.75,1.75,2.25,0.0,1.0,0.5,2.75,0.75,0.0,0.0,1.0,0.5,-0.17,1.95,2.52,173.85,-6.3,5.4
2.84,5.75,2.0,10.5,13.0,9.0,6.0,7.0,1.75,2.25,1.0,1.5,1.0,0.5,0.02,0.02,1.2,995.49,13.6,42.4,0.0,0.75,1.75,2.25,0.0,1.0,0.75,2.75,0.75,0.0,0.0,0.75,0.5,-0.3,3.2,2.27,169.95,-6.5,8.3
2.86,7.25,1.75,12.0,14.5,9.25,5.0,6.5,1.75,1.75,1.0,0.0,0.25,0.5,0.02,0.08,1.2,1078.59,15.4,50.0,0.0,0.5,1.75,2.25,0.0,1.0,0.75,2.75,0.75,0.0,0.0,0.75,0.5,0.08,4.33,1.27,165.39,-6.3,6.1
2.88,7.5,2.0,12.0,17.0,11.0,5.0,5.0,1.75,1.75,1.5,1.25,1.25,0.25,0.02,0.08,1.2,1167.42,14.4,46.1,0.0,0.5,2.0,2.25,0.0,1.0,0.5,2.5,0.75,0.0,0.0,0.75,0.5,0.14,4.64,0.39,162.46,-7.4,8.2
2.9,8.75,2.0,15.0,16.0,12.5,3.5,3.25,1.75,1.75,2.25,2.5,1.0,1.25,-0.11,0.14,1.33,1288.91,15.1,43.0,0.0,0.75,1.75,2.25,0.0,1.0,0.5,2.5,0.75,0.25,0.0,0.75,0.5,-0.86,4.2,-0.48,160.08,-6.2,7.2
2.92,9.25,2.75,13.5,16.0,11.5,1.75,1.25,1.75,1.5,1.75,2.0,0.75,1.5,-0.17,0.2,1.58,1330.98,15.8,45.9,0.0,0.0,0.5,2.25,0.0,0.0,0.0,1.25,0.5,0.0,0.25,1.75,0.5,-2.73,4.45,0.7,140.34,-7.9,-23.2
2.94,7.75,1.75,12.5,10.0,8.75,0.0,1.25,1.75,1.0,1.25,2.0,1.0,1.25,-0.36,0.33,2.02,1216.63,17.7,43.6,0.0,0.75,1.75,2.0,0.0,1.0,0.25,2.75,0.75,1.0,1.25,4.75,5.25,0.77,-1.48,2.77,191.55,-1.1,-49.7
2.96,6.5,1.0,9.5,7.5,7.25,0.0,1.75,0.25,1.25,1.25,1.0,1.0,0.5,-0.55,0.77,2.39,971.44,18.8,46.6,0.0,0.0,2.75,0.0,0.0,0.75,0.0,2.75,0.5,6.5,3.25,7.0,7.75,-0.61,0.27,0.83,281.88,2.0,-73.2
2.98,5.5,1.75,6.75,6.25,7.25,0.5,1.0,1.75,1.25,1.0,1.75,1.0,1.25,-0.67,1.95,3.52,744.13,14.2,36.9,0.0,0.0,0.5,0.0,0.0,1.0,0.0,4.0,1.0,8.0,6.25,7.0,8.75,0.33,0.27,1.64,409.34,4.9,-80.7
3.0,2.25,0.5,4.25,2.0,5.0,0.75,0.0,1.75,1.0,0.25,1.75,0.75,1.25,-0.8,1.02,4.2,490.31,10.5,22.5,0.0,0.0,0.75,0.0,0.0,3.5,0.0,5.25,1.5,9.25,6.5,8.25,10.0,0.08,0.14,1.02,585.15,5.8,-73.7
3.02,0.0,0.0,0.5,0.0,4.75,0.0,0.0,1.75,0.75,0.0,0.5,0.25,1.25,-0.61,-2.05,2.14,285.96,-2.7,2.2,0.0,0.0,0.0,2.25,0.0,3.5,0.25,6.25,1.5,9.5,8.75,8.75,10.5,0.08,0.08,1.02,763.58,4.8,-69.5
3.04,0.0,0.0,0.5,0.0,0.5,0.25,0.0,0.0,0.75,0.25,0.5,0.25,0.25,-0.92,-2.36,1.83,121.42,6.4,-20.8,0.0,0.25,0.0,2.25,0.0,3.5,0.5,6.25,1.5,9.5,8.75,8.75,10.0,0.14,0.08,0.95,886.12,4.5,-68.0
3.06,0.0,0.25,0.75,0.0,0.0,0.0,0.0,0.0,0.75,0.5,0.5,0.25,0.0,-0.86,-1.98,1.58,0.0,13.7,-19.1,0.0,0.0,1.0,2.25,0.25,3.5,0.0,6.25,1.75,9.0,8.75,7.75,9.5,0.14,0.08,0.95,947.53,3.9,-64.5
3.08,0.0,0.0,0.0,0.0,0.0,0.0,0.0,0.0,0.75,0.75,0.25,0.25,0.25,-0.36,-1.55,0.33,0.0,-0.6,-71.0,0.0,0.5,1.25,2.25,1.0,3.5,0.0,6.25,1.75,8.25,8.5,7.0,8.75,0.08,0.08,0.95,956.65,3.4,-58.4
3.1,0.0,0.25,0.5,0.0,0.0,0.0,0.0,0.0,0.75,1.0,0.5,0.25,0.25,-0.3,-1.17,0.33,0.0,5.7,-39.7,0.0,1.0,1.75,2.5,1.0,3.5,0.75,6.25,1.75,7.75,7.5,6.25,8.0,0.08,0.08,0.95,924.38,2.6,-52.0
3.12,0.5,0.5,1.75,0.25,2.5,1.25,0.5,1.5,1.0,1.0,1.75,0.5,1.25,-0.3,-0.86,0.27,0.0,3.0,-5.0,1.0,0.75,1.0,2.5,1.0,3.5,1.0,5.5,1.75,6.5,6.5,5.5,7.5,0.08,0.02,0.95,849.84,2.2,-48.8
3.14,0.0,0.25,1.0,0.0,0.0,0.0,0.0,0.0,0.5,0.75,0.25,0.0,0.25,-0.11,-0.42,0.39,0.0,11.8,-11.2,1.25,1.0,1.0,2.75,0.5,3.5,1.5,5.25,1.75,6.0,5.25,4.25,6.0,0.08,0.08,0.95,746.99,1.6,-41.8
3.16,0.0,0.25,0.25,0.0,0.0,0.25,0.0,0.0,0.25,0.75,0.5,0.25,0.25,0.2,0.2,0.64,0.0,1.0,-39.8,0.0,1.0,2.5,3.25,1.25,3.5,2.0,5.25,1.75,5.0,4.5,3.5,4.75,0.08,0.08,0.95,638.69,0.3,-32.7
3.18,0.0,0.25,0.0,0.0,0.0,0.25,0.0,0.0,0.5,0.75,0.25,0.25,0.25,0.39,1.02,0.89,0.0,-2.6,-46.6,1.5,1.0,3.75,4.0,1.75,3.5,2.25,5.25,2.0,4.25,3.75,2.5,3.75,0.08,0.08,0.95,549.45,-2.9,-15.7
3.2,0.0,0.25,0.25,0.0,0.0,0.25,0.0,0.0,0.25,1.0,0.5,0.25,0.25,0.58,1.83,1.33,0.0,-0.3,-42.8,2.25,1.5,5.25,6.75,3.5,5.5,3.75,5.25,2.0,2.0,2.5,1.5,2.25,0.08,0.08,0.95,532.37,-6.0,11.9
3.22,0.0,0.0,0.0,0.0,0.0,0.25,0.0,0.0,0.25,1.0,0.25,1.25,0.25,0.52,2.77,1.89,0.0,-2.4,-80.6,3.5,1.5,6.0,7.75,3.75,5.5,5.0,4.75,1.75,1.5,2.25,1.0,2.0,0.08,0.08,0.95,555.17,-8.5,21.0
3.24,0.0,0.0,0.0,0.0,3.0,1.0,0.25,1.5,1.0,1.25,2.0,1.0,1.0,0.33,3.83,0.89,71.31,-3.7,-27.6,3.75,2.0,7.25,9.25,5.75,5.25,5.75,4.25,1.5,1.0,0.75,0.75,1.25,0.08,0.08,1.02,608.32,-10.3,34.1
3.26,0.0,0.5,1.75,0.0,2.5,1.75,0.25,1.25,1.0,0.75,1.5,1.0,1.0,-0.05,3.77,0.7,136.9,1.6,-7.4,4.0,1.75,8.25,12.0,6.25,5.5,6.0,4.25,1.25,1.0,1.5,0.75,0.0,0.08,0.08,1.08,685.18,-11.7,38.6
3.28,0.0,0.0,1.75,0.0,1.25,1.0,0.5,1.75,0.25,0.5,1.5,0.5,0.5,3.2,5.02,6.33,162.3,3.1,-11.6,3.75,0.0,8.0,0.0,5.25,0.0,5.75,2.75,1.0,0.25,0.0,0.25,0.0,0.08,0.14,1.33,579.05,-18.9,42.5
3.3,0.0,0.25,0.0,0.0,0.0,2.5,0.0,1.75,0.0,0.25,0.25,1.0,0.0,2.14,4.02,0.2,150.04,-12.4,-18.4,3.75,0.75,9.0,10.5,4.75,0.0,5.25,2.5,0.75,0.0,0.0,0.25,0.25,0.02,0.14,1.64,547.34,-19.4,49.6
3.32,0.0,0.25,0.0,1.0,4.75,3.5,0.5,3.75,2.5,2.5,3.5,3.5,3.25,0.14,0.08,1.33,229.28,-3.9,-31.9,3.0,1.75,8.25,10.5,2.25,0.0,4.25,1.25,0.75,0.0,0.0,0.0,0.75,0.08,0.08,1.95,475.62,-21.2,52.0
3.34,0.25,0.25,0.0,2.0,4.75,5.0,1.75,3.75,3.5,4.25,5.0,4.75,3.75,-0.05,0.08,1.08,329.44,-2.5,-32.7,5.25,0.75,8.25,7.0,0.0,0.0,4.75,1.75,0.5,0.0,0.5,0.75,0.75,0.08,0.2,2.02,437.03,-24.4,45.3
3.36,0.0,0.5,1.25,3.0,4.75,6.5,0.0,5.25,4.25,4.5,4.5,4.0,3.5,-0.05,-0.05,0.95,473.95,-2.9,-24.7,3.5,0.75,7.0,5.75,0.0,0.0,4.25,2.75,0.5,0.5,0.0,0.75,0.75,0.02,0.2,2.83,379.36,-21.0,37.0
3.38,2.0,2.0,3.75,4.75,7.5,8.5,0.75,6.0,4.25,5.5,5.75,4.25,4.75,-0.11,0.02,1.02,723.04,0.3,-9.5,1.25,0.75,6.0,4.75,0.0,0.0,3.0,2.75,0.25,0.0,0.0,0.0,0.75,0.83,-1.3,2.27,320.59,-19.9,37.9
3.4,2.25,2.0,4.25,6.5,9.0,8.75,1.5,6.0,4.75,5.0,5.75,3.5,3.5,-0.05,-0.05,1.02,945.56,1.6,-0.9,0.0,0.0,2.75,2.5,0.0,0.0,1.75,1.5,0.25,0.0,0.0,0.0,0.0,1.58,-3.11,0.52,225.66,-19.7,34.8
3.42,3.75,2.0,4.75,6.5,9.0,8.75,4.25,5.25,4.75,3.75,4.0,2.75,2.25,-0.05,-0.05,1.02,1098.84,3.9,10.2,0.0,0.0,2.5,2.25,0.0,0.0,1.25,1.5,0.25,0.0,0.0,0.0,0.0,0.52,-1.92,0.83,130.73,-18.7,33.2
3.44,3.75,2.0,5.5,7.0,9.0,8.5,3.75,4.5,4.25,3.0,3.0,2.5,2.0,-0.05,-0.05,1.02,1156.63,4.9,15.8,0.25,0.25,1.75,2.5,0.0,0.25,1.75,3.0,0.5,0.0,0.0,0.25,0.0,0.2,-1.55,0.7,69.33,-10.8,18.3
3.46,3.75,2.0,5.75,6.75,9.25,8.0,3.25,3.75,3.5,1.0,3.0,1.25,2.25,0.02,-0.05,1.02,1133.95,5.9,23.1,0.0,0.5,1.25,2.5,0.0,0.0,0.75,1.25,0.5,0.0,0.5,0.0,0.0,0.02,-0.92,0.83,30.71,-14.6,26.6
3.48,3.75,2.0,6.25,5.0,9.0,7.5,1.25,3.75,2.5,1.0,1.75,0.75,1.0,-0.11,0.08,1.02,1022.52,5.8,30.8,0.0,0.0,0.75,1.25,0.0,0.0,0.5,1.5,0.0,0.0,0.0,0.5,0.0,-0.23,0.02,0.83,2.06,-9.0,3.8
3.5,1.0,1.25,5.25,5.5,7.25,7.0,0.5,1.75,1.75,0.5,1.5,0.5,0.0,-0.05,0.02,1.02,843.54,5.4,35.5,0.0,0.75,1.75,1.5,0.0,0.5,0.75,1.25,0.5,0.0,0.0,0.75,0.0,-0.05,0.7,0.7,10.27,-13.1,20.6
3.52,0.75,0.5,7.25,0.0,7.25,6.5,0.0,1.75,1.5,0.0,0.0,0.25,0.0,-0.11,0.02,1.08,646.82,5.2,40.5,0.0,0.5,2.25,2.5,0.0,1.0,1.0,2.75,0.5,0.25,0.0,1.0,0.5,0.27,1.45,0.39,55.64,-7.7,6.6
3.54,2.0,0.25,8.25,5.0,7.0,5.0,0.0,1.75,1.75,0.25,0.0,1.0,0.0,-0.05,0.08,1.08,528.07,10.3,40.7,0.0,0.75,2.0,2.5,0.0,1.0,1.0,2.75,0.5,0.25,0.0,0.75,0.25,0.27,1.7,0.14,78.7,-7.6,12.7
3.56,3.75,0.25,9.5,6.0,9.0,5.0,0.0,1.75,1.5,0.0,2.0,0.5,1.25,-0.11,0.08,1.02,497.04,11.0,37.7,0.0,0.5,1.75,2.5,0.0,1.0,0.75,2.75,0.5,0.25,0.0,0.75,0.5,0.33,1.58,0.02,112.99,-6.0,6.5
3.58,2.75,0.0,8.25,6.75,7.0,5.25,0.0,1.5,1.25,0.5,1.25,1.25,0.25,-0.11,0.08,0.95,490.62,10.7,37.2,0.0,0.75,2.25,0.75,0.0,0.25,0.5,2.75,0.5,2.0,0.0,0.25,0.25,0.14,1.64,-0.55,131.1,-4.1,-5.3
3.6,2.0,0.5,9.0,6.25,6.75,5.0,0.0,1.75,1.0,0.5,2.0,0.0,0.75,-0.23,0.2,1.14,492.56,10.6,37.6,0.0,0.0,1.0,0.0,0.0,1.25,0.75,4.25,0.25,0.25,0.75,0.25,1.5,1.02,1.2,1.7,139.22,6.0,-33.7
3.62,2.0,0.0,8.5,5.25,6.75,3.75,0.0,1.75,1.0,0.75,2.0,0.25,1.0,-0.36,0.2,1.2,460.77,10.7,32.9,0.0,0.0,0.0,1.75,0.0,3.25,0.75,4.0,0.0,0.5,0.0,0.5,1.5,-0.17,-0.05,1.08,153.46,10.0,-16.6
3.64,1.25,0.5,6.75,3.75,5.0,2.75,0.0,1.75,1.0,0.5,2.0,1.0,1.0,-0.36,0.27,0.95,407.03,10.4,24.9,0.0,0.0,0.0,1.0,0.0,3.5,0.0,4.75,0.5,2.0,0.0,0.75,1.0,0.14,0.14,0.95,173.15,12.7,-28.1
3.66,1.0,0.5,5.25,2.0,5.0,2.75,0.0,1.75,1.0,0.0,1.75,1.0,1.0,-0.36,0.33,1.2,349.18,8.3,22.5,0.0,0.0,0.0,2.5,0.0,3.75,0.0,5.25,0.5,4.25,0.75,1.75,1.5,0.2,0.02,1.02,214.51,9.0,-34.0
3.68,0.25,0.25,2.75,1.0,5.0,2.5,0.0,1.75,1.0,1.0,1.75,1.0,1.0,-0.61,0.14,1.27,293.41,2.2,7.0,0.0,0.0,0.0,2.25,1.25,5.5,0.0,6.0,0.5,4.75,0.75,0.75,3.0,0.08,0.14,0.95,262.92,11.3,-28.0
3.7,0.0,0.25,0.25,0.0,0.0,1.25,0.0,0.0,0.75,0.0,0.5,0.25,0.25,-0.23,0.27,1.33,194.49,-0.2,-11.4,0.0,0.0,0.75,2.25,0.0,5.75,0.0,6.5,0.5,5.5,2.25,1.75,3.75,0.14,0.08,0.95,323.72,8.9,-38.0
3.72,0.0,0.0,0.0,0.0,0.0,1.0,0.0,0.0,0.25,0.25,0.25,0.25,0.25,-0.8,-0.17,1.52,92.37,-9.7,-32.0,0.0,0.0,0.5,1.25,0.0,5.75,0.0,6.75,0.5,4.75,2.0,1.25,4.0,0.08,0.08,0.95,363.04,10.8,-40.7
3.74,0.0,0.25,0.0,0.0,0.0,1.25,0.0,0.0,0.5,0.25,0.25,0.25,0.25,-0.11,0.08,1.64,6.63,-6.9,-15.7,0.0,0.0,0.25,1.0,0.0,5.5,0.0,6.25,0.5,3.25,0.0,1.0,4.0,0.14,0.08,1.02,359.29,13.3,-37.7
3.76,0.0,0.25,0.0,0.0,0.0,1.0,0.0,0.0,0.25,0.0,0.5,0.0,0.25,0.14,0.58,1.52,0.0,-6.2,-7.6,0.0,0.25,0.0,2.0,0.5,5.5,0.0,6.25,0.5,5.0,0.75,1.0,4.25,0.2,0.08,1.08,359.48,11.6,-35.7
3.78,0.0,0.0,0.0,0.0,0.0,1.0,0.0,0.0,0.25,0.25,0.25,0.25,0.25,0.33,0.83,1.45,0.0,-9.7,-32.0,0.0,0.0,0.75,2.0,0.0,3.75,0.0,6.25,0.5,5.0,0.0,0.75,4.0,0.39,0.08,1.14,346.18,10.5,-38.4
3.8,0.0,0.25,0.0,0.0,0.0,1.0,0.0,0.0,0.25,0.0,0.5,0.25,0.25,0.52,0.89,1.52,0.0,-4.6,-18.0,0.0,0.0,0.0,0.0,0.0,0.0,0.0,4.25,0.0,2.0,0.0,0.25,2.25,0.58,0.2,1.2,283.42,15.0,-67.8
3.82,0.0,0.25,0.0,0.0,0.0,1.0,0.0,0.0,0.25,0.0,0.25,0.0,0.25,0.52,0.95,1.64,0.0,-8.3,0.8,0.0,0.0,0.0,0.0,0.0,1.0,0.0,4.25,0.0,0.75,0.0,0.0,1.75,0.58,0.2,1.89,221.56,16.7,-50.0
3.84,0.0,0.25,0.0,0.0,0.0,1.0,0.0,0.0,0.25,0.0,0.25,0.25,0.25,0.27,0.83,1.27,0.0,-6.3,-11.6,0.0,0.25,0.0,2.25,0.0,1.0,0.0,3.75,0.25,0.5,0.0,0.25,1.0,0.33,0.27,1.95,164.53,6.1,-14.8
3.86,0.0,0.0,0.0,0.0,0.0,1.0,0.0,0.0,0.25,0.0,0.25,0.25,0.25,0.08,0.89,0.45,0.0,-8.9,-26.4,0.0,0.0,0.0,0.0,0.0,0.0,0.0,2.75,0.0,0.0,0.0,0.0,0.25,0.64,0.33,1.45,94.33,16.5,-44.8
3.88,0.0,0.0,0.0,0.0,0.0,1.0,0.0,0.0,0.25,0.25,0.0,0.25,0.25,1.64,-1.23,0.27,0.0,-12.2,-26.6,0.0,0.0,0.0,0.0,0.0,0.0,0.0,2.25,0.0,0.0,0.0,0.0,0.0,-0.8,0.7,2.77,36.79,16.7,-38.7
3.9,0.0,0.0,0.0,0.0,0.0,1.0,0.0,0.0,0.25,0.0,0.25,0.0,0.25,0.77,0.14,-0.05,0.0,-11.5,-14.1,0.0,0.0,0.0,0.0,0.0,0.0,0.0,2.75,0.0,0.0,0.0,0.0,0.0,0.83,-0.92,2.2,0.0,16.7,-38.8
3.92,0.0,0.0,0.25,0.0,0.0,1.0,0.0,0.0,0.25,0.0,0.5,0.0,0.0,1.27,-1.67,0.33,10.03,-1.8,0.9,0.0,0.0,0.0,0.0,0.0,0.0,0.0,2.75,0.0,0.0,0.0,0.0,0.0,3.33,-2.36,-1.17,0.0,16.7,-38.8
3.94,0.0,0.0,0.25,0.0,0.0,0.75,0.0,0.0,0.25,0.0,0.25,0.25,0.25,1.2,-2.92,0.33,26.95,-1.0,-22.2,0.0,0.0,0.0,0.0,0.0,0.0,0.0,2.25,0.0,0.0,0.0,0.0,0.0,1.58,-1.55,0.89,0.0,16.7,-38.7
3.96,0.0,0.0,0.0,0.0,0.0,1.0,0.0,0.0,0.25,0.0,0.5,0.25,0.25,0.64,-2.3,1.89,29.77,-6.7,-31.8,0.0,0.0,0.0,0.0,0.0,0.0,0.0,1.75,0.0,0.0,0.0,0.0,0.0,0.7,-1.36,1.7,0.0,16.7,-38.7
3.98,0.0,0.25,0.0,0.0,0.0,1.0,0.0,0.0,0.25,0.25,0.5,0.25,0.25,0.08,-2.23,2.27,33.63,-5.7,-23.3,0.0,0.0,0.5,0.0,0.0,0.0,0.0,1.5,0.0,0.0,0.0,0.0,0.0,1.08,-1.55,1.64,0.0,2.7,-13.2
4.0,0.0,0.25,1.75,0.0,0.75,0.75,0.5,0.0,0.25,0.0,1.5,0.0,1.25,-0.3,-2.05,1.52,60.69,9.0,-6.9,0.0,0.0,0.25,0.0,0.0,0.0,0.0,2.0,0.0,0.0,0.0,0.0,0.0,1.77,-1.11,0.89,0.0,10.5,-27.4
4.02,0.0,0.25,0.0,0.0,0.0,0.75,0.25,0.0,0.25,0.5,0.25,0.0,0.25,-0.23,-1.48,1.08,60.11,-6.3,-17.5,0.0,0.0,0.0,0.0,0.0,0.0,0.0,2.25,0.0,0.0,0.0,0.0,0.0,1.64,-0.61,0.95,0.22,16.7,-38.7
4.04,0.0,0.0,0.0,0.0,0.0,0.75,0.25,0.0,0.25,0.0,0.75,0.0,0.25,-0.05,-1.23,1.2,56.89,-2.4,-31.6,0.0,0.0,0.5,0.0,0.0,0.0,0.0,2.0,0.0,0.0,0.0,0.0,0.0,0.89,-0.36,1.02,19.22,5.5,-18.3
4.06,0.0,0.25,0.0,0.0,0.5,1.0,0.75,0.0,0.0,0.25,1.75,0.0,0.75,-0.23,-1.17,1.27,59.63,-0.9,-27.4,0.0,0.0,0.25,0.0,0.0,0.0,0.0,1.75,0.0,0.0,0.0,0.0,0.0,0.77,-0.17,1.08,23.1,9.7,-25.9
4.08,0.0,0.0,1.75,0.0,0.75,1.0,0.5,0.0,0.25,1.0,0.25,0.0,0.25,-0.23,-0.98,1.2,71.63,6.9,11.3,0.0,0.0,0.25,0.0,0.0,0.0,0.0,1.75,0.0,0.0,0.0,0.0,0.0,0.64,-0.05,0.89,25.79,9.7,-25.9
4.1,0.0,0.25,0.75,0.0,0.5,2.5,0.75,0.0,1.0,1.25,1.75,1.0,1.0,-0.3,-0.55,1.08,104.43,-0.5,-28.0,0.0,0.0,0.0,0.0,0.0,0.0,0.0,1.75,0.0,0.0,0.0,0.0,0.0,0.58,-0.05,0.7,29.11,16.7,-38.7
4.12,0.0,0.25,1.75,0.0,0.75,2.5,0.75,0.0,1.0,1.0,1.75,1.0,1.0,-0.42,-0.61,0.77,138.92,3.2,-16.8,0.0,0.0,0.5,0.0,0.0,0.0,0.0,2.0,0.0,0.0,0.0,0.0,0.0,0.39,-0.11,0.64,31.83,5.5,-18.3
4.14,0.0,0.25,1.75,0.0,0.5,2.5,0.75,0.0,1.0,1.25,1.5,1.0,0.75,-0.67,-0.67,0.58,162.99,3.1,-16.6,0.0,0.0,0.25,0.0,0.0,0.0,0.0,2.0,0.0,0.0,0.0,0.0,0.0,0.2,-0.36,0.64,32.4,10.5,-27.4
4.16,0.0,0.5,1.75,0.0,0.75,2.5,0.75,0.0,1.0,1.0,1.75,1.0,1.0,-0.67,-0.73,0.45,176.75,3.4,-14.3,0.0,0.0,0.0,0.0,0.0,0.0,0.0,1.5,0.0,0.0,0.0,0.0,0.0,0.2,-0.55,0.58,30.65,16.7,-38.8
4.18,0.0,0.25,1.75,0.0,0.5,2.5,0.75,0.0,1.0,1.25,1.75,1.0,1.0,-0.55,-0.73,0.45,181.86,2.9,-19.9,0.0,0.0,0.0,0.0,0.0,0.0,0.0,1.5,0.0,0.0,0.0,0.0,0.0,0.2,-0.61,0.45,27.89,16.7,-38.8
4.2,0.0,0.25,1.75,0.0,0.75,1.5,0.75,0.5,0.75,1.25,1.5,1.0,1.0,-0.36,-0.61,0.52,179.75,3.7,-21.9,0.0,0.0,0.0,0.0,0.0,0.0,0.0,1.5,0.0,0.0,0.0,0.0,0.0,0.27,-0.48,0.33,24.91,16.7,-38.8
4.22,0.0,0.25,1.75,0.0,1.25,2.0,0.75,0.75,1.0,1.0,1.75,1.0,1.0,-0.23,-0.55,0.45,182.37,2.6,-16.8,0.0,0.0,0.0,0.0,0.0,0.0,0.0,1.25,0.0,0.0,0.0,0.0,0.0,0.14,-0.48,0.27,21.22,16.7,-38.8
4.24,0.0,0.25,1.75,0.0,0.75,2.5,1.0,1.0,1.0,1.0,1.75,1.0,0.75,-0.17,-0.48,0.2,185.05,2.2,-16.2,0.0,0.25,0.75,2.25,0.0,1.0,0.5,2.75,0.25,0.25,0.0,0.75,0.25,0.02,-0.42,0.33,60.52,-1.7,0.3
4.26,0.0,0.25,1.75,0.0,0.75,2.0,0.75,1.0,1.0,1.25,1.75,1.0,1.0,-0.11,-0.36,0.08,189.47,2.1,-21.8,0.0,0.25,0.5,2.25,0.0,1.0,0.0,1.5,0.25,0.0,0.0,0.75,0.0,0.02,-0.36,0.14,85.38,-4.0,11.5
4.28,0.0,0.25,1.75,0.0,0.75,1.75,1.0,1.25,1.0,1.0,1.5,1.0,1.0,-0.05,-0.23,-0.11,185.82,2.7,-20.6,0.0,0.0,0.5,0.0,0.0,0.0,0.0,1.25,0.0,0.0,0.0,0.75,0.0,0.08,-0.3,-0.05,86.53,-2.1,-39.4
4.3,0.0,0.25,1.75,0.0,0.5,2.25,0.75,1.0,1.0,1.25,1.5,1.0,1.0,0.02,-0.11,-0.17,180.34,1.6,-21.5,0.0,0.0,0.0,0.0,0.0,0.0,0.0,1.75,0.25,0.0,0.0,0.0,0.0,0.08,-0.23,-0.11,70.97,13.2,-38.7
4.32,0.0,0.5,1.75,0.0,0.75,2.25,1.0,1.0,0.75,1.0,1.75,1.0,1.0,0.08,-0.05,-0.23,177.08,2.3,-16.3,0.0,0.0,1.25,2.0,0.0,1.0,0.5,2.75,0.25,0.0,0.0,0.5,0.25,-0.11,-0.23,-0.05,86.87,-3.5,4.7
4.34,0.0,0.5,1.75,0.0,0.75,2.5,1.25,0.5,0.75,1.0,1.75,1.0,1.0,0.08,-0.05,-0.3,174.2,2.9,-14.0,0.0,0.25,1.75,0.0,0.0,0.0,0.25,2.75,0.0,0.0,0.0,0.0,0.25,-0.17,-0.17,-0.11,87.31,-5.0,0.7
4.36,0.0,0.5,1.75,0.0,0.75,2.0,1.0,0.5,0.5,1.5,1.0,1.0,0.5,0.08,0.02,-0.48,168.13,2.9,-10.0,0.0,0.75,0.5,1.75,0.0,1.0,0.0,2.75,0.25,0.0,0.0,0.75,0.5,-0.17,-0.11,-0.23,110.31,0.5,-0.9
4.38,0.0,0.5,1.75,0.0,0.0,2.0,1.0,0.0,0.75,1.0,1.5,1.0,0.75,0.14,0.08,-0.55,157.85,5.7,-17.5,0.0,0.5,1.5,1.5,0.0,0.0,0.25,2.75,0.0,0.0,0.0,0.0,0.25,-0.17,-0.11,-0.42,118.16,-6.9,15.4
4.4,0.0,0.25,1.75,0.0,0.75,1.75,1.0,0.5,1.0,1.0,1.75,1.0,1.0,0.2,0.08,-0.61,154.4,4.2,-20.5,0.0,0.75,1.5,1.5,0.0,1.0,0.5,2.75,0.25,0.0,0.0,0.5,0.25,-0.23,-0.11,-0.42,133.63,-4.5,11.5
4.42,0.0,0.25,1.75,0.0,0.5,2.0,1.25,0.5,0.75,1.0,1.5,1.0,0.75,0.27,0.08,-0.61,151.15,4.2,-17.0,0.0,0.75,1.25,2.0,0.0,1.0,0.25,2.75,0.25,0.0,0.0,0.75,0.25,-0.3,-0.11,-0.42,139.65,-4.0,9.2
4.44,0.0,0.25,1.75,0.0,0.75,2.25,1.0,0.5,0.75,1.0,1.75,1.0,0.75,0.39,0.02,-0.67,153.88,3.3,-15.8,0.0,0.5,1.25,2.0,0.0,1.0,0.5,2.5,0.25,0.0,0.0,0.75,0.75,-0.48,-0.17,-0.36,148.17,-3.7,1.7
4.46,0.0,0.5,1.75,0.0,0.5,1.75,1.0,0.5,1.0,1.0,1.75,1.0,0.75,0.33,-0.11,-0.73,153.99,5.0,-17.6,0.0,0.5,0.5,2.0,0.0,1.0,0.25,2.5,0.25,0.0,0.0,0.75,0.25,-0.67,-0.23,-0.48,143.95,-1.0,2.8
4.48,0.0,0.25,1.75,0.0,0.75,2.25,1.25,0.5,0.75,1.0,1.75,1.0,0.75,0.27,-0.11,-0.73,157.75,3.6,-15.3,0.0,0.75,1.75,2.0,0.0,1.0,0.25,2.75,0.25,0.0,0.0,0.75,0.25,-0.48,-0.23,-0.73,145.97,-5.8,12.0
4.5,0.0,0.25,1.75,0.0,0.75,1.75,1.25,0.5,0.75,1.0,1.75,1.0,1.0,0.27,-0.23,-0.8,157.92,4.3,-19.6,0.0,0.5,1.5,2.0,0.0,1.0,0.25,2.5,0.25,0.0,0.0,0.75,0.25,-0.48,-0.3,-0.8,148.53,-5.3,9.5
4.52,0.0,0.25,1.75,0.5,0.75,1.5,1.0,0.5,0.5,1.25,1.25,1.0,1.0,0.2,-0.3,-0.86,157.69,4.3,-15.9,0.0,0.5,1.75,2.0,0.0,1.0,0.25,2.75,0.25,0.0,0.0,0.75,0.25,-0.61,-0.3,-0.61,153.2,-5.6,9.6
4.54,0.0,0.5,1.75,0.0,2.25,1.75,0.75,0.0,0.75,1.0,1.75,1.0,1.0,0.08,-0.3,-0.86,164.51,3.7,-7.0,0.0,0.5,1.5,1.5,0.0,1.0,0.5,2.75,0.25,0.0,0.0,0.5,0.25,-0.36,-0.36,-0.8,147.21,-4.2,8.8
4.56,0.0,0.25,1.75,0.0,0.75,2.0,1.25,0.5,0.75,1.0,1.5,1.0,1.0,-0.05,-0.36,-0.98,164.53,3.6,-17.3,0.0,0.5,1.75,2.0,0.0,1.0,0.25,2.5,0.5,0.0,0.0,0.75,0.25,-0.36,-0.36,-0.73,145.19,-6.4,9.6
4.58,0.0,0.25,1.75,0.0,0.75,1.75,1.25,0.25,0.75,1.0,1.75,1.0,0.75,-0.17,-0.48,-0.98,163.28,5.3,-17.0,0.0,0.5,1.25,1.5,0.0,1.0,0.25,2.5,0.25,0.0,0.0,0.75,0.25,-0.36,-0.42,-0.73,139.47,-3.5,4.8
4.6,0.0,0.5,1.75,0.0,0.0,2.0,1.25,0.25,0.75,1.0,1.5,1.0,1.0,-0.17,-0.48,-1.05,157.9,4.9,-19.8,0.0,0.5,2.25,2.0,0.0,1.0,0.5,2.5,0.25,0.0,0.0,0.75,0.5,-0.3,-0.55,-0.73,142.69,-7.7,10.6
4.62,0.0,0.5,1.75,0.0,0.75,2.25,1.25,0.0,0.75,1.0,1.75,1.0,0.75,-0.23,-0.48,-0.98,157.5,4.7,-11.6,0.0,0.0,1.75,0.0,0.0,0.0,0.25,2.5,0.0,0.0,0.0,0.0,0.5,-0.23,-0.55,-0.8,120.75,-4.8,-8.1
4.64,0.0,0.25,1.75,0.0,0.5,1.75,1.25,0.5,0.75,1.0,1.75,1.0,0.5,-0.23,-0.55,-0.92,152.5,5.5,-17.2,0.0,0.0,0.0,0.0,0.0,1.0,0.0,1.25,0.25,0.0,0.0,0.75,0.25,-0.23,-0.67,-0.8,92.92,10.5,-39.5
4.66,0.0,0.5,1.75,0.0,0.5,1.75,1.25,0.25,0.75,1.0,1.75,1.0,0.5,-0.17,-0.55,-0.86,151.77,6.2,-13.8,0.0,0.5,1.0,1.75,0.0,1.0,0.5,2.25,0.25,0.0,0.0,0.75,0.25,-0.3,-0.73,-0.73,89.27,-3.9,6.4
4.68,0.0,0.5,1.75,0.0,0.5,2.0,1.25,0.0,0.5,0.75,1.25,1.0,0.5,-0.11,-0.61,-0.67,145.7,6.2,-6.4,0.0,0.5,1.0,2.0,0.0,1.0,0.25,2.25,0.25,0.0,0.0,0.75,0.25,-0.3,-0.73,-0.67,96.62,-3.9,7.7
4.7,0.0,0.25,1.75,0.0,0.75,2.0,1.25,0.25,0.5,1.0,1.25,1.0,1.0,-0.05,-0.67,-0.67,145.39,3.7,-14.9,0.0,0.5,0.75,1.75,0.0,0.0,0.5,2.25,0.0,0.0,0.0,0.0,0.25,-0.3,-0.73,-0.73,97.67,-5.8,16.2
4.72,0.0,0.25,1.75,0.0,0.75,1.5,1.25,0.0,0.75,1.0,1.75,1.0,0.5,-0.11,-0.67,-0.67,142.39,7.0,-15.2,0.0,0.5,1.25,2.0,0.0,1.0,0.5,2.0,0.25,0.0,0.0,0.75,0.25,-0.36,-0.67,-0.67,107.49,-6.0,11.0
4.74,0.0,0.25,1.75,0.0,0.5,1.75,1.25,0.25,0.75,1.0,1.75,1.0,1.0,-0.11,-0.73,-0.67,145.11,5.1,-21.2,0.0,0.5,0.5,2.0,0.0,1.0,0.5,2.25,0.25,0.0,0.0,0.5,0.25,-0.36,-0.61,-0.61,111.32,-1.9,8.3
4.76,0.0,0.5,1.75,0.0,0.75,1.75,1.0,0.0,0.75,1.0,1.75,1.0,1.0,-0.11,-0.67,-0.61,147.95,5.2,-16.4,0.0,0.5,1.25,2.0,0.0,1.0,0.0,1.75,0.0,0.0,0.0,0.75,0.25,-0.3,-0.67,-0.55,113.54,-5.7,13.8
4.78,0.0,0.25,1.75,0.0,0.5,1.75,1.25,0.0,0.5,1.0,1.5,1.0,0.75,-0.11,-0.67,-0.55,145.69,5.8,-16.5,0.0,0.25,1.5,1.5,0.0,1.0,0.5,2.25,0.0,0.0,0.0,0.5,0.5,-0.3,-0.67,-0.42,115.59,-4.4,6.5
4.8,0.0,0.5,1.75,0.0,0.5,1.75,1.25,0.25,0.5,1.0,1.75,1.0,1.0,-0.11,-0.67,-0.48,148.46,5.1,-17.9,0.0,0.5,1.25,2.0,0.0,1.0,0.5,1.75,0.25,0.0,0.0,0.75,0.25,-0.23,-0.67,-0.36,120.96,-6.7,12.6
4.82,0.0,0.5,1.75,0.0,0.5,2.0,1.25,0.0,0.75,1.0,1.75,1.0,1.0,-0.11,-0.8,-0.48,150.77,5.1,-16.7,0.0,0.5,1.5,1.75,0.0,1.0,0.25,2.0,0.0,0.0,0.0,0.75,0.25,-0.17,-0.73,-0.36,123.9,-6.1,12.4
4.84,0.0,0.25,1.75,0.0,0.75,2.0,1.25,0.25,0.5,1.25,1.5,0.75,0.75,-0.17,-0.92,-0.36,152.17,3.8,-13.1,0.0,0.5,1.25,0.25,0.0,0.0,0.25,2.0,0.0,0.0,0.25,0.0,0.25,-0.11,-0.86,-0.3,109.21,-6.3,5.1
4.86,0.0,0.25,1.75,0.0,0.0,1.75,1.25,0.25,0.25,1.0,1.25,1.0,0.25,-0.17,-0.92,-0.36,142.29,6.6,-13.9,0.0,0.25,1.5,1.75,0.0,1.0,0.5,1.75,0.0,0.0,0.0,0.75,0.25,-0.11,-0.92,-0.23,112.3,-7.1,11.4
4.88,0.0,0.25,1.75,0.0,0.5,1.75,1.25,0.0,0.5,1.0,1.5,1.0,0.75,-0.17,-0.92,-0.36,139.9,5.8,-16.5,0.0,0.5,1.5,1.75,0.0,1.0,0.5,2.0,0.25,0.0,0.0,0.5,0.25,-0.11,-0.92,-0.17,112.57,-6.6,14.8
4.9,0.0,0.5,1.75,0.0,0.5,2.0,1.25,0.0,0.25,1.25,1.75,1.0,0.5,-0.11,-0.92,-0.42,139.11,5.2,-12.3,0.0,0.5,1.5,2.0,0.0,0.75,0.5,1.5,0.25,0.0,0.0,0.75,0.25,-0.11,-0.98,-0.17,115.74,-9.4,15.2
4.92,0.0,0.25,1.75,0.0,0.5,1.75,1.25,0.0,0.5,1.0,1.75,1.0,0.5,-0.11,-0.92,-0.42,139.51,6.5,-15.5,0.0,0.5,1.5,1.75,0.0,1.0,0.5,2.0,0.0,0.0,0.0,0.75,0.25,-0.05,-0.98,-0.11,121.2,-6.5,12.6
4.94,0.0,0.25,1.75,0.0,0.75,1.5,1.25,0.0,0.25,1.0,1.5,1.0,0.5,-0.17,-0.92,-0.36,137.47,6.6,-12.4,0.0,0.5,1.75,2.0,0.0,1.0,0.25,2.0,0.0,0.0,0.0,0.5,0.25,-0.05,-0.98,-0.23,127.24,-7.4,19.1
4.96,0.0,0.25,1.75,0.0,0.5,1.75,1.25,0.0,0.25,1.0,1.75,1.0,0.5,-0.17,-0.92,-0.36,136.76,6.3,-14.9,0.0,0.5,2.25,2.0,0.0,1.0,0.25,1.75,0.0,0.0,0.0,0.75,0.25,-0.05,-0.92,-0.3,130.19,-9.9,19.5
4.98,0.0,0.25,1.75,0.0,0.5,1.75,1.25,0.0,0.25,1.0,1.75,1.0,0.5,-0.11,-0.92,-0.42,134.8,6.3,-14.9,0.0,0.25,1.5,2.0,0.0,1.0,0.5,1.75,0.0,0.0,0.0,0.75,0.25,-0.11,-0.92,-0.36,129.24,-7.4,12.9
5.0,0.0,0.25,1.75,0.0,0.5,1.75,1.25,0.0,0.5,1.0,1.25,1.5,0.5,-0.11,-0.92,-0.36,135.15,6.4,-17.4,0.0,0.5,1.5,2.0,0.0,1.0,0.5,1.5,0.25,0.0,0.0,0.75,0.75,-0.11,-0.92,-0.36,131.67,-7.1,8.2
5.02,0.0,0.25,1.75,0.0,0.5,1.75,1.25,0.25,0.25,1.0,1.5,1.0,0.75,-0.17,-0.92,-0.36,137.0,5.0,-16.5,0.0,0.5,1.0,2.0,0.0,0.0,0.5,1.5,0.0,0.0,0.0,0.75,0.25,-0.17,-0.98,-0.23,121.5,-10.6,11.5
5.04,0.0,0.5,1.75,0.0,0.5,1.5,1.25,0.0,0.25,1.0,1.5,1.0,0.5,-0.23,-0.86,-0.3,135.99,7.1,-11.3,0.0,0.75,1.25,1.5,0.0,1.0,0.25,2.0,0.0,0.0,0.0,0.75,0.25,-0.23,-1.05,-0.11,119.73,-4.9,12.1
5.06,0.0,0.25,1.75,0.0,0.5,1.75,1.25,0.0,0.25,1.0,1.75,1.0,0.5,-0.3,-0.92,-0.23,136.06,6.3,-14.9,0.0,0.5,1.0,2.0,0.0,1.0,0.5,1.75,0.0,0.0,0.0,0.75,0.25,-0.23,-1.05,0.02,117.03,-5.5,12.6
5.08,0.0,0.5,1.75,0.0,0.5,1.75,1.25,0.0,0.25,1.0,1.75,1.0,0.75,-0.3,-0.86,-0.17,138.85,5.9,-14.4,0.0,0.75,1.0,1.5,0.0,1.0,0.25,2.0,0.0,0.0,0.0,0.75,0.25,-0.17,-0.92,0.14,117.95,-3.7,10.4
5.1,0.0,0.25,1.75,0.0,0.5,1.5,1.25,0.0,0.25,1.0,1.5,1.0,0.75,-0.3,-0.86,-0.11,138.21,6.4,-17.2,0.0,0.5,1.25,2.0,0.0,1.0,0.5,1.75,0.0,0.0,0.0,0.75,0.25,-0.17,-0.92,0.14,116.46,-6.6,14.2
5.12,0.0,0.25,1.75,0.0,0.5,1.5,1.25,0.0,0.25,1.0,1.5,1.0,0.5,-0.3,-0.86,-0.05,134.83,7.0,-14.6,0.0,0.75,1.25,1.5,0.0,1.0,0.5,2.0,0.0,0.0,0.0,0.75,0.25,-0.11,-0.8,0.02,118.12,-5.3,12.4
5.14,0.0,0.25,1.75,0.0,0.5,1.75,1.25,0.0,0.25,1.0,1.5,1.0,0.5,-0.23,-0.86,-0.05,133.23,6.2,-13.3,0.0,0.75,1.25,1.75,0.0,1.0,0.5,1.5,0.0,0.0,0.0,0.75,0.25,-0.11,-0.73,0.02,118.45,-7.2,17.3
5.16,0.0,0.25,1.75,0.0,0.0,1.75,1.25,0.0,0.25,2.0,1.75,1.0,0.5,-0.23,-0.8,0.02,135.2,4.6,-25.2,0.0,0.75,1.75,1.75,0.0,1.0,0.25,1.75,0.0,0.0,0.25,0.5,0.25,-0.17,-0.73,0.08,121.19,-8.1,19.3
5.18,0.25,0.25,1.75,0.0,0.5,1.5,1.25,0.0,0.25,1.0,1.0,1.0,0.5,-0.3,-0.73,0.08,133.03,7.5,-8.1,0.0,0.5,1.25,2.0,0.0,1.0,0.75,1.5,0.0,0.0,0.0,0.75,0.25,-0.11,-0.73,0.14,121.44,-7.7,16.1
5.2,0.0,0.25,1.75,0.0,0.5,1.5,1.25,0.0,0.25,1.0,1.5,1.0,0.5,-0.23,-0.8,0.02,131.96,7.0,-14.6,0.0,0.5,1.25,2.0,0.0,1.0,0.0,1.75,0.0,0.0,0.0,0.75,0.25,-0.17,-0.73,0.14,121.01,-5.7,13.8
5.22,0.0,0.25,1.75,0.0,0.0,1.5,1.25,0.0,0.25,1.0,1.75,1.0,0.5,-0.3,-0.86,-0.05,128.21,7.8,-20.9,0.0,0.75,1.75,1.75,0.0,1.0,0.25,1.5,0.0,0.0,0.0,0.75,0.25,-0.17,-0.8,0.14,122.59,-8.8,20.0
5.24,0.0,0.25,1.75,0.0,0.5,1.5,1.25,0.0,0.25,1.0,1.5,1.0,0.5,-0.3,-0.92,0.02,127.49,7.0,-14.6,0.0,0.75,1.0,1.75,0.0,1.0,0.25,1.5,0.0,0.0,0.0,0.75,0.75,-0.17,-0.86,0.2,121.84,-4.3,7.2
5.26,0.0,0.25,1.75,0.0,0.75,1.25,1.25,0.0,0.0,1.0,1.5,1.0,0.5,-0.3,-0.98,0.08,126.42,7.3,-12.9,0.0,0.5,0.75,2.0,0.0,0.75,0.5,1.25,0.0,0.0,0.0,0.5,0.25,-0.17,-0.92,0.14,115.58,-6.8,18.7
5.28,0.0,0.25,1.75,0.0,0.0,1.5,1.25,0.0,0.25,1.0,1.75,1.0,0.75,-0.23,-1.05,0.08,126.81,7.1,-23.5,0.0,0.5,1.25,1.75,0.0,1.0,0.5,1.25,0.0,0.0,0.0,0.5,0.25,-0.11,-0.92,0.14,110.17,-7.8,20.9
5.3,0.0,0.25,1.75,0.0,0.0,1.5,1.25,0.0,0.25,1.0,1.5,1.0,0.5,-0.3,-1.11,0.08,124.25,7.7,-19.3,0.0,0.75,1.0,2.0,0.0,0.75,0.25,1.25,0.0,0.0,0.0,0.75,0.25,-0.11,-1.05,0.2,107.42,-7.8,18.5
5.32,0.0,0.25,1.75,0.0,0.5,1.5,1.25,0.0,0.25,1.0,1.5,1.0,1.0,-0.3,-1.11,0.08,127.38,5.8,-19.8,0.0,0.5,1.75,2.0,0.0,1.0,0.5,1.75,0.0,0.0,0.0,0.5,0.25,-0.17,-1.05,0.27,112.77,-8.5,21.0
5.34,0.25,0.25,1.75,0.0,0.5,1.5,1.25,0.0,0.0,1.0,1.75,1.0,0.5,-0.3,-1.11,0.08,129.98,7.6,-12.6,0.0,0.75,1.0,2.0,0.0,1.0,0.5,1.75,0.0,0.0,0.0,0.75,0.5,-0.17,-1.05,0.27,117.53,-5.1,11.5
5.36,0.0,0.25,1.75,0.0,0.5,1.5,1.25,0.0,0.25,1.0,1.25,1.0,0.5,-0.3,-1.11,0.02,130.48,6.9,-12.8,0.0,0.5,1.25,2.0,0.0,1.0,0.25,1.5,0.0,0.0,0.0,0.75,0.25,-0.11,-1.05,0.33,119.95,-6.9,15.8
5.38,0.0,0.25,1.75,0.0,0.5,1.25,1.25,0.0,0.25,1.0,1.5,1.0,0.5,-0.3,-1.05,0.08,129.25,7.8,-15.9,0.0,0.5,1.75,1.75,0.0,1.0,0.5,1.75,0.0,0.0,0.0,0.5,0.25,-0.05,-1.05,0.2,121.4,-8.2,19.7
5.4,0.0,0.25,1.75,0.0,0.5,1.75,1.25,0.0,0.0,1.0,1.5,1.0,0.5,-0.36,-1.05,0.14,129.38,6.0,-12.6,0.0,0.75,1.25,2.0,0.0,1.0,0.25,1.25,0.0,0.0,0.0,0.75,0.25,-0.11,-0.98,0.2,119.89,-7.9,20.5
5.42,0.0,0.25,1.75,0.0,0.75,1.75,1.25,0.0,0.0,1.0,1.75,1.0,0.5,-0.36,-0.98,0.2,132.56,5.8,-12.2,0.0,0.5,1.0,1.75,0.0,0.75,0.25,1.5,0.0,0.0,0.0,0.75,0.5,-0.17,-0.92,0.27,116.17,-5.6,7.2
5.44,0.0,0.25,1.75,0.0,0.5,1.25,1.25,0.0,0.25,1.0,1.5,1.0,0.5,-0.36,-0.92,0.2,131.64,7.8,-15.9,0.0,0.5,1.5,2.0,0.0,0.75,0.25,1.5,0.0,0.0,0.0,0.75,0.25,-0.17,-0.86,0.39,115.41,-8.9,16.7
5.46,0.0,0.5,1.75,0.0,0.5,1.5,1.25,0.0,0.25,1.0,1.5,1.0,0.25,-0.36,-0.86,0.14,132.7,7.7,-8.5,0.0,0.5,1.0,1.75,0.0,1.0,0.25,1.25,0.0,0.0,0.0,0.75,0.5,-0.17,-0.86,0.45,112.42,-5.5,9.8
5.48,0.25,0.5,1.75,0.0,0.5,1.75,1.25,0.0,0.0,1.0,1.75,1.0,0.5,-0.36,-0.86,0.2,135.41,7.0,-8.5,0.0,0.5,1.5,2.0,0.0,1.0,0.5,1.25,0.0,0.0,0.0,0.5,0.25,-0.11,-0.8,0.45,113.82,-9.2,23.6
5.5,0.25,0.5,1.75,0.0,0.5,1.25,1.25,0.0,0.0,1.0,1.75,1.0,1.0,-0.23,-0.8,0.2,138.53,7.4,-16.0,0.0,0.5,1.25,1.25,0.0,1.0,0.25,1.5,0.0,0.0,0.0,0.75,0.5,-0.11,-0.73,0.45,111.47,-5.0,6.3
5.52,0.0,0.25,1.75,0.0,0.5,1.75,1.25,0.0,0.25,1.0,1.5,1.0,0.25,-0.3,-0.8,0.27,137.65,6.8,-10.5,0.0,0.75,1.5,1.75,0.0,1.0,0.5,1.25,0.0,0.0,0.0,0.75,0.25,-0.17,-0.73,0.45,113.53,-9.0,20.6
5.54,0.0,0.25,1.75,0.0,0.5,1.5,1.25,0.0,0.0,1.0,1.75,1.0,1.0,-0.3,-0.86,0.27,137.76,5.8,-20.7,0.0,0.25,1.25,1.75,0.0,1.0,0.25,1.25,0.0,0.0,0.0,0.5,0.25,-0.17,-0.73,0.45,108.49,-7.1,17.7
5.56,0.0,0.25,1.75,0.0,0.0,1.5,1.25,0.0,0.0,1.0,1.5,1.0,0.25,-0.17,-0.86,0.33,129.44,8.2,-15.7,0.0,0.25,1.5,1.5,0.0,1.0,0.5,1.5,0.0,0.0,0.0,0.75,0.25,-0.17,-0.73,0.52,107.85,-7.5,11.4
5.58,0.0,0.25,1.75,0.0,0.75,1.5,1.25,0.0,0.0,1.0,1.5,1.0,0.25,-0.17,-0.92,0.33,127.61,7.1,-8.8,0.0,0.75,1.0,2.0,0.0,0.75,0.5,1.0,0.0,0.0,0.0,0.75,0.5,-0.11,-0.86,0.58,107.52,-8.3,16.0
5.6,0.0,0.5,1.75,0.0,0.75,1.5,1.25,0.0,0.0,1.0,1.5,1.0,0.75,-0.3,-0.98,0.33,129.56,6.1,-11.3,0.0,0.75,1.0,1.25,0.0,1.0,0.5,1.25,0.0,0.0,0.0,0.75,0.25,-0.05,-0.92,0.64,106.25,-6.1,14.5
5.62,0.0,0.5,1.75,0.0,0.75,1.5,1.25,0.0,0.25,1.0,1.5,1.0,0.5,-0.36,-1.05,0.45,133.94,6.8,-9.3,0.0,0.5,1.75,1.75,0.0,1.0,0.25,1.5,0.0,0.0,0.0,0.5,0.25,0.02,-0.98,0.64,109.19,-8.7,21.6
5.64,0.25,0.25,2.0,0.0,0.5,1.5,1.25,0.0,0.0,1.0,1.25,1.0,0.5,-0.36,-1.05,0.45,134.54,8.4,-7.1,0.0,0.25,1.75,2.0,0.0,0.75,0.25,1.25,0.0,0.0,0.0,0.75,0.25,0.08,-0.98,0.64,111.33,-10.7,17.3
5.66,0.0,0.5,1.75,0.0,0.5,1.5,1.25,0.0,0.25,1.0,1.75,1.0,0.75,-0.42,-1.05,0.39,137.43,6.6,-15.6,0.0,0.5,1.75,1.75,0.0,1.0,0.25,1.25,0.0,0.0,0.0,0.75,0.5,0.08,-0.92,0.64,115.99,-8.7,14.9
5.68,0.0,0.25,1.75,0.0,0.75,1.25,1.25,0.0,0.25,1.0,1.75,1.0,0.25,-0.36,-1.05,0.39,135.96,8.1,-12.5,0.0,0.25,1.75,2.0,0.0,0.75,0.5,1.5,0.0,0.0,0.0,0.5,0.25,0.08,-0.92,0.64,116.52,-10.2,19.9
5.7,0.0,0.5,1.75,0.0,0.5,1.5,1.25,0.0,0.0,1.0,1.75,1.0,0.25,-0.36,-1.05,0.45,134.0,7.7,-9.5,0.0,0.25,1.25,1.75,0.0,0.75,0.25,1.25,0.0,0.0,0.0,0.5,0.5,0.14,-0.86,0.64,113.03,-7.4,12.0
5.72,0.0,0.5,1.75,0.0,0.5,1.25,1.25,0.0,0.0,1.0,1.75,1.0,0.5,-0.3,-0.98,0.45,131.96,7.9,-13.5,0.0,0.5,1.75,1.75,0.0,1.0,0.25,1.25,0.0,0.0,0.0,0.5,0.25,0.14,-0.73,0.64,112.09,-9.5,23.7
5.74,0.0,0.25,1.75,0.0,0.5,1.25,1.25,0.0,0.0,1.0,1.25,1.0,0.5,-0.3,-0.92,0.52,128.24,7.6,-13.4,0.0,0.25,1.5,1.25,0.0,1.0,0.25,1.5,0.0,0.0,0.0,0.5,0.25,0.2,-0.73,0.64,107.56,-6.6,13.9
5.76,0.0,0.5,1.75,0.0,0.5,1.5,1.25,0.0,0.0,1.0,1.75,1.0,0.5,-0.36,-0.86,0.52,129.41,7.1,-12.3,0.0,0.5,1.0,1.5,0.0,1.0,0.5,1.25,0.0,0.0,0.0,0.5,0.75,0.2,-0.61,0.7,106.28,-4.6,8.1
5.78,0.0,0.0,1.75,0.0,0.5,1.0,1.25,0.0,0.0,1.0,1.75,1.0,0.5,-0.42,-0.8,0.52,125.24,8.5,-22.1,0.0,0.5,1.25,2.0,0.0,1.0,0.25,1.25,0.0,0.0,0.0,0.75,0.25,0.2,-0.48,0.7,107.85,-7.7,17.7
5.8,0.0,0.5,1.75,0.0,1.25,1.5,1.25,0.0,0.0,1.0,1.5,1.0,0.5,-0.48,-0.8,0.45,132.01,6.1,-4.9,0.0,0.5,1.0,1.5,0.0,1.0,0.25,1.5,0.0,0.0,0.0,0.5,0.5,0.2,-0.48,0.64,107.01,-4.0,10.6
5.82,0.0,0.25,1.75,0.0,0.5,1.5,1.25,0.0,0.0,1.0,1.5,1.0,0.25,-0.48,-0.8,0.45,128.63,7.4,-10.9,0.0,0.5,1.0,1.75,0.0,1.0,0.25,1.5,0.0,0.0,0.0,0.5,0.75,0.27,-0.55,0.58,108.3,-3.9,8.0
5.84,0.0,0.25,1.75,0.0,0.5,1.25,1.25,0.0,0.0,1.0,1.5,1.0,0.5,-0.42,-0.8,0.58,127.82,7.6,-15.2,0.0,0.5,1.0,2.0,0.0,0.75,0.25,1.25,0.0,0.0,0.0,0.5,0.5,0.27,-0.55,0.64,107.22,-6.8,15.3
5.86,0.0,0.25,1.75,0.0,0.5,1.75,1.25,0.0,0.0,1.0,1.5,1.0,0.25,-0.42,-0.86,0.58,125.91,6.6,-9.7,0.0,0.25,1.25,1.75,0.0,1.0,0.25,1.5,0.0,0.0,0.0,0.5,0.25,0.27,-0.48,0.7,106.01,-6.2,15.6
5.88,0.0,0.5,1.75,0.0,0.75,1.5,1.25,0.0,0.0,1.0,1.5,1.0,0.5,-0.42,-0.86,0.52,129.11,6.6,-8.6,0.0,0.75,1.25,1.5,0.0,1.0,0.25,1.25,0.0,0.0,0.0,0.5,0.5,0.2,-0.48,0.77,106.25,-6.4,17.5
5.9,0.0,0.25,1.75,0.0,0.75,1.5,1.25,0.0,0.0,1.0,1.5,1.0,0.25,-0.36,-0.8,0.45,128.98,7.1,-8.8,0.0,0.5,1.75,1.5,0.0,0.75,0.25,1.25,0.0,0.0,0.0,0.75,0.5,0.2,-0.55,0.77,108.5,-9.5,12.7
5.92,0.0,0.5,1.75,0.0,0.5,1.5,1.25,0.0,0.0,1.0,1.5,1.0,0.25,-0.36,-0.8,0.52,130.17,7.6,-7.6,0.0,0.5,1.0,1.25,0.0,1.0,0.5,1.5,0.0,0.0,0.0,0.75,0.0,0.27,-0.55,0.77,106.27,-5.7,14.0
5.94,0.0,0.25,1.75,0.0,0.0,1.75,1.25,0.0,0.0,1.0,1.5,1.0,0.5,-0.3,-0.73,0.52,127.51,6.7,-17.2,0.0,0.75,1.75,1.5,0.0,1.0,0.25,1.5,0.0,0.0,0.0,0.75,0.25,0.27,-0.48,0.83,111.47,-8.5,18.7
5.96,0.25,0.25,0.25,0.0,0.75,1.75,1.25,0.0,0.0,1.0,1.5,1.0,0.5,-0.23,-0.67,0.52,122.42,0.2,-21.4,0.0,0.75,1.0,0.0,0.0,0.75,0.25,1.25,0.0,0.0,0.0,0.75,0.5,0.27,-0.42,0.95,100.61,-3.0,-3.9
5.98,0.0,0.5,1.75,0.0,0.5,1.25,1.25,0.0,0.0,1.0,1.75,1.0,0.5,-0.23,-0.55,0.64,123.38,7.9,-13.5,0.0,0.5,1.25,1.25,0.0,1.0,0.25,1.5,0.0,0.0,0.0,0.75,0.0,0.33,-0.42,0.95,99.9,-6.5,15.6
6.0,0.0,0.25,1.75,0.0,0.5,1.5,1.25,0.0,0.0,1.0,1.5,1.0,0.75,-0.23,-0.42,0.7,124.77,6.2,-16.7,0.0,0.5,1.25,1.25,0.0,1.0,0.5,1.5,0.0,0.0,0.0,0.75,0.75,0.33,-0.36,1.02,100.22,-4.8,2.6
6.02,0.0,0.25,1.75,0.0,0.5,1.5,1.25,0.0,0.0,1.0,1.5,1.0,0.5,-0.36,-0.42,0.64,127.11,6.8,-13.9,0.0,0.5,0.0,1.5,0.0,0.0,0.25,1.25,0.0,0.0,0.0,0.5,0.25,0.27,-0.3,1.08,89.75,-4.1,3.3
6.04,0.0,0.5,1.75,0.0,0.5,1.25,1.25,0.0,0.0,1.0,1.5,1.0,0.25,-0.36,-0.42,0.64,126.23,8.5,-8.8,0.0,0.75,1.0,1.25,0.0,1.0,0.0,0.5,0.0,0.0,0.0,0.5,0.75,0.2,-0.23,1.02,87.64,-6.1,15.1
