time,left pressure 0[N/cm虏],left pressure 1[N/cm虏],left pressure 2[N/cm虏],left pressure 3[N/cm虏],left pressure 4[N/cm虏],left pressure 5[N/cm虏],left pressure 6[N/cm虏],left pressure 7[N/cm虏],left pressure 8[N/cm虏],left pressure 9[N/cm虏],left pressure 10[N/cm虏],left pressure 11[N/cm虏],left pressure 12[N/cm虏],left acceleration X[g],left acceleration Y[g],left acceleration Z[g],left total force[N],left center of pressure X[mm],left center of pressure Y[mm],right pressure 0[N/cm虏],right pressure 1[N/cm虏],right pressure 2[N/cm虏],right pressure 3[N/cm虏],right pressure 4[N/cm虏],right pressure 5[N/cm虏],right pressure 6[N/cm虏],right pressure 7[N/cm虏],right pressure 8[N/cm虏],right pressure 9[N/cm虏],right pressure 10[N/cm虏],right pressure 11[N/cm虏],right pressure 12[N/cm虏],right acceleration X[g],right acceleration Y[g],right acceleration Z[g],right total force[N],right center of pressure X[mm],right center of pressure Y[mm]
0.02,0.0,0.0,0.0,0.0,3.5,0.25,0.0,1.0,0.25,0.0,0.0,0.0,0.25,-2.42,-3.11,1.83,51.61,-6.2,25.6,2.0,1.5,1.75,3.25,5.25,6.0,1.75,5.5,1.5,9.0,6.5,6.5,8.5,0.08,0.08,0.95,881.83,2.0,-32.5
0.04,1.75,0.0,2.75,6.75,6.5,0.0,0.0,1.0,0.5,0.0,0.0,0.0,0.25,0.08,0.39,2.27,131.79,11.9,50.8,1.75,1.5,1.75,3.0,5.25,6.0,1.75,5.75,1.25,9.5,6.25,6.5,9.0,0.14,0.08,0.95,892.68,2.6,-34.3
0.06,2.25,0.75,5.5,9.5,6.75,2.5,1.25,1.0,1.0,0.0,0.0,0.0,0.25,-0.05,0.08,1.27,255.94,12.7,51.2,1.25,1.0,1.75,3.25,5.0,6.25,1.25,6.25,1.25,9.5,6.5,6.5,9.25,0.14,0.08,0.95,896.79,3.3,-37.1
0.08,3.0,1.25,7.25,12.5,8.5,5.25,5.75,2.25,1.5,0.5,1.0,0.75,0.5,0.2,-0.11,1.45,457.56,11.3,40.9,1.25,1.25,1.75,3.25,5.0,6.25,1.25,6.25,1.25,9.25,6.0,5.75,9.0,0.14,0.08,0.95,893.55,3.4,-34.7
0.1,3.75,1.25,8.75,9.5,10.0,5.5,7.25,3.25,2.75,0.0,2.0,1.5,1.5,0.08,-0.05,1.52,702.48,10.9,32.3,1.25,0.25,1.75,1.0,4.75,6.25,0.75,5.5,1.0,8.5,4.75,5.25,8.5,0.14,0.08,0.95,838.69,5.0,-39.5
0.12,3.75,1.75,6.5,9.75,8.5,7.0,6.75,4.5,4.5,3.0,3.25,3.0,2.25,-0.11,-0.05,1.14,951.14,7.3,15.5,1.25,0.5,1.5,1.25,4.5,6.25,0.5,5.25,0.75,7.75,4.0,4.0,7.25,0.14,0.08,0.95,748.3,5.3,-34.3
0.14,3.5,0.75,6.5,9.25,8.5,7.0,7.5,5.75,5.0,3.75,4.25,3.25,2.25,-0.11,-0.05,1.08,1125.32,6.5,9.2,1.25,0.0,0.75,1.0,0.0,5.0,0.5,5.25,0.75,6.5,2.5,2.5,5.75,0.14,0.08,0.95,591.23,7.2,-46.0
0.16,3.5,1.25,6.0,8.0,8.25,6.75,7.0,5.75,5.0,4.0,5.0,4.75,3.75,-0.05,-0.05,1.02,1246.26,5.7,1.5,1.0,0.0,0.5,0.0,0.0,2.75,0.25,4.25,0.25,3.5,0.0,1.0,4.75,0.02,0.14,1.14,398.01,10.2,-48.2
0.18,2.5,1.25,5.25,7.75,6.75,6.75,6.25,5.75,4.5,3.75,5.0,4.75,4.25,-0.05,-0.05,0.95,1270.19,4.8,-2.7,0.0,0.0,0.0,0.5,0.25,0.0,0.0,3.0,0.0,3.25,0.0,0.5,2.25,-0.11,0.2,1.58,250.06,12.2,-63.2
0.2,1.75,0.75,4.25,7.0,7.5,6.5,5.5,5.75,4.25,3.75,4.75,4.75,4.25,-0.05,-0.05,0.95,1237.33,3.4,-5.7,0.0,0.0,0.0,0.5,0.25,0.0,0.0,1.75,0.0,2.0,0.25,0.5,1.25,0.64,1.33,1.14,122.56,9.6,-58.7
0.22,1.5,0.75,3.0,6.0,7.5,6.5,4.75,5.75,3.75,3.75,4.75,4.0,4.25,-0.05,-0.05,0.95,1140.71,1.9,-7.5,0.0,0.0,0.0,0.5,0.25,1.0,0.0,1.5,0.0,2.0,0.25,0.25,1.25,0.2,2.89,0.52,25.53,11.7,-45.2
0.24,1.25,0.75,2.75,6.25,6.75,6.25,4.0,5.75,3.5,3.75,4.75,4.75,4.25,-0.05,-0.05,0.95,1026.58,1.7,-10.6,0.0,0.0,0.0,0.5,0.0,0.0,0.0,1.25,0.25,1.5,0.25,0.25,1.25,-1.92,2.08,1.33,0.0,8.5,-61.9
0.26,1.5,0.75,2.0,6.5,7.0,6.5,3.75,5.75,3.5,4.75,4.75,4.75,4.5,-0.05,0.02,0.95,935.92,0.8,-12.0,0.0,0.0,0.0,0.5,0.25,1.0,0.0,1.25,0.25,1.75,0.25,0.25,1.25,-1.23,2.64,0.95,0.0,10.5,-44.1
0.28,1.25,1.0,1.5,5.75,7.0,5.75,3.25,5.75,3.5,4.75,5.0,4.75,5.25,-0.05,0.02,0.95,853.04,0.1,-16.2,0.0,0.0,0.0,0.5,0.25,1.0,0.0,1.25,0.0,1.5,0.25,0.0,1.25,0.08,2.7,0.58,0.0,12.1,-40.3
0.3,0.75,1.0,1.0,5.5,6.75,5.75,3.25,6.0,3.5,5.5,5.0,5.75,5.5,-0.05,0.02,0.95,800.79,-0.7,-21.7,0.0,0.0,0.0,0.5,0.0,0.5,0.0,1.25,0.0,1.5,0.25,0.0,1.25,0.39,2.27,0.89,0.0,11.6,-52.1
0.32,1.0,0.75,0.75,4.75,6.75,6.0,3.25,6.25,3.25,6.25,5.75,5.75,6.0,-0.05,0.02,0.95,767.37,-1.5,-25.2,0.0,0.0,0.0,0.5,0.25,0.25,0.0,1.25,0.0,1.5,0.25,0.0,1.0,0.27,1.52,1.14,0.0,10.5,-47.1
0.34,1.0,1.0,0.25,4.75,6.75,6.25,2.75,6.75,3.0,7.0,5.75,5.75,6.5,-0.05,0.02,0.95,765.16,-2.5,-26.9,0.0,0.0,0.0,0.5,0.25,0.5,0.0,1.25,0.0,1.5,0.25,0.0,1.0,0.27,1.02,1.39,0.0,11.0,-43.5
0.36,2.0,1.0,0.25,5.0,6.75,6.25,2.5,6.75,2.75,7.0,6.25,6.75,7.25,-0.05,0.02,0.95,789.44,-1.8,-27.5,0.0,0.75,0.0,1.0,0.25,2.25,0.0,1.25,0.5,1.0,0.25,0.0,0.75,0.2,0.45,1.08,30.89,7.5,-2.6
0.38,1.5,1.0,0.0,4.75,6.75,5.75,2.5,6.75,2.75,8.0,6.25,6.75,7.75,-0.05,0.02,0.95,826.15,-2.5,-31.2,1.25,0.75,1.5,1.0,0.5,0.0,0.5,1.5,0.0,1.25,0.5,0.0,1.5,0.2,0.27,0.95,83.27,-7.1,2.4
0.4,1.0,0.0,0.0,4.5,6.75,6.25,2.5,7.0,2.75,8.0,6.5,7.25,8.25,-0.11,0.02,0.95,868.81,-3.3,-35.9,0.0,0.0,1.25,0.5,0.25,0.0,0.0,1.0,0.0,1.0,0.25,0.0,0.5,0.2,0.14,0.83,97.58,-4.1,-13.3
0.42,0.0,0.0,0.0,4.25,4.75,5.75,1.75,6.75,2.0,7.25,5.75,6.5,7.25,-0.11,0.02,0.95,847.99,-4.3,-40.1,0.25,0.0,0.0,0.5,0.25,0.0,0.0,0.75,0.0,1.0,0.0,0.0,0.75,0.27,0.02,0.77,90.69,6.3,-33.8
0.44,0.0,0.0,0.0,2.75,4.75,5.75,1.75,6.75,2.0,7.75,5.75,6.75,7.5,-0.11,0.02,0.95,819.5,-5.1,-44.2,0.0,0.0,0.0,0.5,0.25,0.0,0.0,0.75,0.0,1.25,0.25,0.0,0.75,0.27,-0.23,0.89,73.93,8.3,-47.2
0.46,1.25,0.0,0.0,4.75,4.25,5.5,1.75,6.75,1.75,8.75,5.75,7.25,8.0,-0.11,0.02,0.95,808.86,-3.6,-40.4,0.0,0.0,0.0,0.5,0.5,0.0,0.0,0.75,0.0,1.0,0.25,0.0,0.75,0.27,-0.42,1.02,60.72,7.5,-37.8
0.48,0.0,0.0,0.0,3.0,6.5,5.75,2.25,6.75,2.0,7.5,5.5,6.25,7.75,-0.11,0.02,0.95,794.13,-4.9,-39.0,0.0,0.0,0.0,0.5,0.5,0.0,0.0,0.5,0.0,0.75,0.0,0.0,0.5,0.27,-0.55,0.83,48.66,7.0,-24.8
0.5,0.0,0.0,0.0,3.25,4.25,5.75,1.5,7.0,2.25,8.5,5.25,5.75,7.5,-0.11,0.02,0.95,775.85,-5.5,-43.2,0.0,0.0,0.0,0.5,0.25,0.0,0.5,0.75,0.0,0.5,0.25,0.0,0.5,0.27,-0.73,0.58,43.43,2.9,-29.1
0.52,1.25,0.0,0.0,4.0,6.75,7.0,1.75,7.5,2.0,8.0,6.0,6.0,8.25,-0.11,0.02,0.95,802.28,-4.5,-33.8,1.25,0.75,0.0,1.0,0.25,2.0,0.0,0.25,0.5,1.75,0.25,0.5,0.5,0.14,-0.86,0.33,72.63,0.1,4.5
0.54,0.75,0.0,0.0,4.25,6.75,7.5,1.75,7.5,2.0,7.0,5.75,4.75,7.5,-0.11,0.02,0.95,802.13,-4.9,-30.2,0.75,0.25,0.0,0.5,1.75,0.0,0.0,1.25,0.0,1.0,0.5,0.75,1.5,0.64,-2.73,2.7,95.05,1.8,-21.0
0.56,1.0,1.0,0.0,4.0,6.75,7.5,1.25,7.0,1.25,5.25,3.75,2.25,6.0,-0.11,0.08,0.95,751.85,-5.5,-17.0,3.5,1.75,1.75,3.25,0.25,1.75,0.5,0.25,0.25,0.25,0.5,0.0,0.75,0.2,-2.48,1.14,151.95,-15.4,50.0
0.58,0.75,1.0,0.0,3.5,4.75,7.25,1.0,6.75,0.75,3.75,1.5,1.75,4.25,-0.11,0.08,0.95,637.95,-6.7,-11.6,6.0,0.0,4.75,4.75,3.0,0.0,1.75,0.0,0.25,0.75,0.0,0.25,0.5,0.7,2.52,4.58,225.24,-21.8,55.4
0.6,0.5,1.0,0.0,2.5,6.5,7.0,0.25,5.75,1.0,3.5,2.0,1.75,2.5,0.08,0.2,1.08,531.53,-6.7,-6.1,8.0,1.5,7.5,7.5,5.0,2.0,3.0,0.5,0.5,2.5,0.25,1.0,1.25,0.7,0.33,1.7,363.32,-16.3,43.4
0.62,0.0,0.25,0.0,1.5,3.5,5.75,0.0,4.75,1.0,3.0,0.25,1.75,1.0,0.02,0.58,1.08,389.53,-9.4,-10.9,7.5,0.75,9.0,7.25,6.75,1.25,4.0,1.25,0.5,0.75,0.25,0.25,1.5,0.08,0.45,1.52,517.83,-17.6,48.3
0.64,0.5,1.0,0.0,1.0,2.5,4.25,0.0,4.75,0.75,2.5,1.5,1.75,2.25,-0.17,0.77,1.45,307.51,-7.1,-19.9,7.25,1.0,8.25,8.75,6.75,2.0,5.25,0.5,0.5,1.0,0.25,0.25,0.75,0.14,0.33,1.2,667.56,-17.6,51.8
0.66,0.5,0.75,0.0,0.0,0.0,3.0,0.0,3.25,1.0,2.25,1.75,1.75,2.25,-0.61,2.02,0.89,238.73,-7.0,-42.2,7.5,0.0,8.5,9.0,7.5,2.5,6.25,1.25,0.5,1.25,0.0,0.0,0.5,-0.23,0.02,1.08,757.33,-16.7,50.8
0.68,0.0,0.0,0.0,0.0,0.0,1.25,0.0,2.25,1.0,1.25,0.75,0.75,1.5,0.33,2.33,0.7,155.91,-9.1,-55.9,7.5,2.0,8.75,9.25,8.25,4.5,6.5,1.25,0.75,1.5,0.25,0.25,0.5,0.02,0.14,1.14,851.52,-14.5,49.8
0.7,0.0,0.0,0.0,0.0,0.0,1.75,0.0,2.5,1.0,2.0,1.75,1.75,1.5,1.2,2.27,0.58,100.8,-7.1,-59.3,7.5,2.0,8.5,9.25,8.25,4.75,7.0,1.25,1.25,1.5,0.25,0.5,0.5,0.2,0.2,1.14,916.94,-14.3,47.9
0.72,0.0,1.0,0.25,0.0,3.0,2.5,0.0,3.0,1.0,2.0,1.75,1.75,1.5,1.14,2.39,0.95,100.76,-5.5,-22.6,7.25,2.0,8.5,9.25,8.5,5.0,7.25,1.5,1.75,2.0,0.25,0.75,1.25,0.2,0.14,1.02,984.59,-13.1,42.1
0.74,0.75,0.25,0.25,0.25,3.5,2.25,0.25,3.0,1.0,2.0,1.25,1.75,1.25,0.27,2.7,0.89,121.87,-4.1,-17.3,6.75,2.0,8.5,8.75,8.25,5.75,7.75,2.75,2.5,3.5,1.5,1.0,1.75,0.08,0.08,0.95,1050.87,-10.9,31.0
0.76,0.75,1.0,0.25,0.0,3.5,2.25,0.0,3.0,1.0,2.0,1.5,1.75,1.25,-0.23,2.33,0.89,151.16,-3.8,-14.6,6.75,2.5,8.5,8.0,8.0,5.0,7.75,3.0,3.25,4.75,2.75,2.0,1.5,0.08,0.08,0.95,1103.12,-10.7,24.0
0.78,0.25,0.5,0.25,0.0,3.5,1.5,0.25,3.0,1.0,1.25,1.5,1.75,1.0,-0.36,1.64,1.2,171.96,-3.6,-18.9,7.5,2.5,8.5,9.25,8.25,6.0,7.75,3.75,3.25,4.75,2.75,2.0,2.75,0.08,0.08,0.95,1173.5,-9.7,22.4
0.8,0.75,0.0,0.25,0.0,3.5,1.0,0.5,3.0,1.0,2.25,1.5,1.75,0.75,-0.3,1.02,1.27,186.96,-2.8,-22.5,7.0,2.5,8.5,9.0,8.25,5.75,7.5,3.25,3.25,4.0,2.75,2.0,2.5,0.14,0.08,0.95,1190.38,-10.2,23.8
0.82,0.5,0.25,0.25,0.0,2.5,1.25,0.75,3.0,0.75,1.75,1.5,1.75,1.25,-0.3,0.64,1.14,190.64,-3.3,-27.7,6.5,2.5,8.0,8.25,8.25,5.5,7.25,3.25,2.75,4.25,2.75,2.0,2.5,0.08,0.08,0.95,1168.27,-9.7,22.5
0.84,0.75,0.5,0.25,0.0,3.5,1.75,0.75,3.0,0.25,0.0,1.25,0.25,1.25,-0.36,0.39,0.83,190.98,-3.5,2.3,6.25,2.5,7.5,7.5,8.0,5.25,7.0,3.0,2.75,4.25,2.5,2.0,2.5,0.08,0.08,0.95,1100.51,-9.5,21.9
0.86,0.0,0.0,0.0,0.0,0.0,0.25,0.25,1.0,0.25,0.0,0.0,0.25,0.25,-0.3,0.2,0.7,141.81,-7.8,-43.9,6.25,2.25,7.5,7.25,7.75,5.0,6.75,3.0,2.75,4.75,2.75,2.25,2.5,0.08,0.08,0.95,1051.88,-9.4,19.4
0.88,0.0,0.0,0.0,0.0,0.0,0.25,0.5,1.0,0.25,0.0,0.0,0.0,0.25,-0.17,0.14,0.77,86.87,-7.5,-31.3,5.75,2.0,6.5,6.25,7.0,4.5,6.25,3.25,2.75,4.75,3.25,2.5,3.25,0.08,0.08,0.95,982.54,-8.4,12.7
0.9,0.75,0.25,0.0,0.0,0.0,1.75,0.5,1.0,0.75,1.0,0.0,1.5,0.25,-0.05,-0.05,0.7,63.97,-2.1,-24.2,5.0,2.0,6.25,5.75,6.75,4.5,6.0,4.0,3.0,5.0,3.5,2.5,3.5,0.08,0.08,0.95,926.89,-7.3,8.5
0.92,0.5,0.5,0.5,0.25,1.75,1.25,1.0,2.75,0.75,1.25,1.25,1.25,1.0,-0.17,-0.11,0.64,93.96,-1.3,-19.4,5.0,2.0,5.75,5.5,6.5,4.5,5.5,4.25,3.25,5.75,4.75,4.0,4.25,0.08,0.08,0.95,900.88,-6.4,-0.2
0.94,0.75,0.25,0.25,0.25,3.0,1.25,0.75,2.75,0.75,1.0,1.25,1.75,0.75,-0.17,-0.17,0.58,131.27,-1.3,-14.7,5.0,1.75,5.0,5.5,6.5,4.5,5.0,4.25,3.25,6.0,4.75,4.25,4.75,0.08,0.08,0.95,889.42,-5.6,-3.3
0.96,0.75,0.25,0.25,0.0,3.5,1.0,1.0,1.0,1.0,1.5,0.0,1.75,0.25,-0.05,-0.23,0.58,157.75,0.1,-3.0,4.0,1.75,4.75,5.5,5.75,4.5,4.0,4.25,3.25,6.5,5.5,5.25,5.5,0.08,0.08,0.95,881.38,-4.6,-10.9
0.98,0.5,0.5,0.5,0.25,1.75,1.5,1.0,2.25,0.5,0.5,1.25,1.75,1.0,0.02,-0.36,0.64,172.84,-0.1,-17.5,3.75,1.75,4.75,5.0,5.75,4.5,3.25,4.5,3.25,7.0,6.25,5.5,6.0,0.08,0.08,0.95,878.79,-3.9,-14.8
1.0,0.0,0.0,0.25,0.0,3.5,0.0,0.75,2.25,0.25,0.0,1.25,0.5,0.5,0.02,-0.42,0.58,161.04,-1.7,-6.0,3.75,1.75,4.75,5.0,5.5,4.5,4.0,5.0,3.25,7.5,6.5,5.75,7.0,0.08,0.08,0.95,896.34,-3.5,-17.7
1.02,0.0,0.0,0.0,0.0,0.0,0.0,0.0,1.0,0.0,0.0,0.0,1.75,0.25,-0.36,-1.48,1.39,122.76,-1.6,-86.1,3.75,1.75,4.75,4.75,5.25,4.5,2.75,5.0,3.25,7.75,6.5,5.75,7.0,0.08,0.08,0.95,906.57,-3.1,-19.1
1.04,0.75,0.0,0.0,1.25,0.0,0.25,0.0,1.0,0.75,0.0,0.0,1.25,0.25,-0.8,-1.92,0.83,95.97,7.5,-14.5,3.75,1.75,4.25,4.0,5.25,4.5,3.0,5.0,3.0,7.75,6.5,6.25,7.75,0.08,0.08,0.95,921.46,-2.5,-22.4
1.06,3.25,1.0,2.75,6.25,4.5,0.75,1.75,2.0,0.75,1.25,1.0,1.5,1.0,-2.05,-2.67,3.45,192.64,10.8,26.2,3.25,1.5,4.0,3.25,5.0,4.5,2.75,5.25,2.75,7.75,6.5,6.5,8.0,0.08,0.08,0.95,914.09,-1.7,-26.5
1.08,3.5,0.0,6.5,0.0,7.5,0.25,1.25,2.25,0.5,1.25,1.25,1.75,0.5,-0.36,1.08,2.64,275.51,12.1,25.1,2.75,1.75,2.25,3.25,4.75,4.5,2.75,4.75,2.5,8.0,6.5,6.5,8.0,0.08,0.08,0.95,887.58,-0.4,-30.1
1.1,0.0,1.25,8.0,9.25,7.75,1.5,3.25,1.0,1.0,1.0,1.25,0.75,0.5,-0.23,0.14,1.58,410.42,13.0,37.6,2.25,1.5,2.25,3.25,4.75,4.5,2.25,4.5,2.25,8.0,6.5,6.5,8.25,0.08,0.08,0.95,854.57,0.0,-32.3
1.12,0.0,1.0,9.75,12.0,9.25,2.75,6.0,3.0,0.25,0.0,1.25,0.0,1.0,-0.05,0.02,1.33,573.26,12.4,40.8,2.25,0.75,2.0,0.0,4.5,4.5,1.75,4.25,1.75,7.75,5.75,6.0,8.25,0.08,0.08,0.95,791.16,2.0,-40.2
1.14,4.5,1.0,0.0,12.0,9.5,5.75,6.75,1.25,0.5,0.0,1.25,0.25,0.5,0.14,0.02,1.2,679.85,7.6,45.1,1.5,0.0,1.75,0.0,4.25,2.25,1.75,4.25,1.0,6.5,4.75,4.75,7.75,0.08,0.08,0.95,684.7,2.4,-45.6
1.16,4.25,1.25,8.75,12.0,9.75,5.75,8.0,2.5,1.0,0.0,0.0,0.75,0.25,-0.05,0.08,1.27,810.71,12.5,47.0,1.0,0.0,0.5,0.5,0.5,2.25,0.5,3.0,0.5,5.0,2.5,2.5,5.5,0.08,0.08,0.95,501.83,5.5,-55.3
1.18,3.25,1.0,8.0,12.5,10.0,7.0,8.0,3.0,3.75,2.0,1.25,2.0,0.5,-0.11,0.08,1.14,962.18,9.7,30.6,0.5,0.0,0.5,0.5,0.5,1.25,0.5,2.75,0.25,3.25,0.25,1.25,4.0,-0.05,0.14,1.08,329.43,7.3,-51.0
1.2,4.25,2.25,8.0,9.5,9.75,7.0,9.0,5.5,4.5,4.0,4.0,3.25,2.25,-0.05,-0.05,1.08,1165.42,7.7,15.0,0.5,0.0,0.5,0.5,0.25,1.0,0.5,1.75,0.25,2.25,0.25,1.0,2.5,0.39,0.52,1.45,203.63,5.0,-44.9
1.22,3.25,1.5,6.5,9.5,8.5,7.0,8.5,5.75,4.75,4.5,4.5,3.0,3.25,-0.05,-0.05,1.02,1280.88,6.2,7.8,0.5,0.0,0.0,0.5,1.25,0.0,0.25,1.5,0.25,1.5,0.25,0.25,1.25,-0.17,2.33,0.64,87.9,4.4,-27.8
1.24,3.0,1.25,5.75,8.0,8.5,7.0,8.0,6.0,4.75,3.75,4.75,3.25,3.5,-0.05,-0.05,0.95,1320.98,5.4,4.8,0.25,0.0,0.25,0.5,0.0,0.0,0.25,1.5,0.25,1.5,0.25,0.25,1.25,-1.42,2.89,1.45,3.14,4.4,-48.0
1.26,2.5,1.25,5.25,7.75,8.5,7.0,7.25,6.0,4.5,4.0,4.75,3.25,3.25,-0.05,-0.05,0.95,1286.41,4.7,3.6,0.0,0.0,0.0,0.5,0.25,0.0,0.0,1.25,0.25,1.5,0.0,0.25,1.25,-1.8,2.45,1.64,0.0,9.1,-55.0
1.28,2.5,1.25,5.0,7.75,8.5,6.75,6.25,5.75,4.25,3.5,4.0,3.25,3.25,-0.05,-0.05,0.95,1190.76,4.6,5.0,0.0,0.0,0.25,0.5,0.25,0.0,0.0,1.25,0.5,1.5,0.25,0.25,1.0,-0.92,2.89,0.95,0.0,5.1,-47.6
1.3,2.25,1.0,4.5,7.75,8.5,6.25,5.5,5.75,3.75,3.0,4.0,3.25,3.25,-0.05,-0.05,0.95,1074.86,4.3,4.4,0.0,0.0,0.0,0.5,0.25,0.0,0.0,1.25,0.25,0.5,0.25,0.0,1.0,-0.11,2.64,0.89,0.0,7.1,-44.4
1.32,1.75,1.0,3.75,7.0,8.5,6.5,4.75,5.75,3.5,3.5,4.0,3.0,3.25,-0.05,-0.05,0.95,987.44,2.8,2.0,0.25,0.0,0.25,0.5,0.25,0.0,0.0,1.25,0.25,1.5,0.25,0.0,0.75,0.08,1.64,1.33,0.0,4.4,-35.7
1.34,1.5,1.0,3.0,6.75,8.25,6.25,4.5,5.75,3.5,4.0,4.0,3.5,3.25,-0.05,-0.05,0.95,902.89,2.1,-1.7,0.5,0.0,0.25,0.5,0.25,0.0,0.0,1.25,0.25,1.5,0.25,0.0,1.0,0.2,1.02,1.27,0.0,3.2,-33.6
1.36,1.5,1.0,2.5,6.0,7.75,6.25,4.75,5.75,3.25,4.5,4.0,3.5,4.25,-0.05,-0.05,0.95,836.9,1.1,-6.3,0.5,0.0,0.25,0.5,0.5,0.0,0.0,1.25,0.25,1.0,0.25,0.0,0.75,0.33,0.64,1.08,0.0,1.5,-21.3
1.38,1.5,1.0,1.75,6.0,7.25,5.75,4.0,5.75,3.75,4.75,4.75,5.0,4.75,-0.05,-0.05,0.95,800.7,0.9,-13.7,0.0,0.0,0.5,0.5,0.5,0.0,0.0,1.25,0.0,1.25,0.25,0.0,1.0,0.27,0.39,0.83,24.62,4.6,-33.6
1.4,0.75,1.0,0.75,6.0,6.75,5.75,3.75,6.0,3.25,5.5,4.75,5.0,5.5,-0.05,-0.05,0.95,757.29,-0.8,-19.5,0.0,0.25,0.0,0.5,0.25,0.0,0.0,1.25,0.25,0.75,0.0,0.0,0.5,0.14,0.2,0.83,43.32,6.6,-26.0
1.42,1.25,1.0,0.5,5.75,6.75,6.0,3.5,6.25,3.25,5.5,5.0,5.75,6.25,-0.05,-0.05,0.95,747.0,-1.0,-21.9,0.25,0.0,0.25,0.5,0.0,0.0,0.25,1.25,0.25,1.0,0.0,0.0,1.0,0.08,0.08,0.83,55.18,3.6,-37.4
1.44,0.5,0.0,0.5,4.25,6.75,5.25,3.25,6.75,2.75,5.25,5.5,5.5,6.5,-0.11,-0.05,0.95,721.19,-2.3,-29.5,0.5,0.25,0.5,0.5,0.0,0.0,0.25,1.25,0.25,0.75,0.0,0.0,0.75,0.02,0.02,0.7,61.27,-2.4,-12.9
1.46,0.75,0.0,0.0,4.25,6.5,5.75,2.5,6.0,2.75,6.25,5.0,5.75,6.5,-0.05,-0.05,0.95,713.31,-3.1,-30.8,0.0,0.25,0.5,0.5,0.0,0.0,0.0,1.25,0.25,1.0,0.0,0.0,0.75,0.08,-0.11,0.77,65.86,2.6,-28.7
1.48,1.5,1.0,1.0,4.5,6.75,6.5,3.25,7.0,2.75,7.75,6.25,6.75,7.5,-0.05,-0.05,0.95,764.94,-1.9,-28.5,0.0,0.0,0.25,0.5,0.0,0.0,0.25,1.0,0.0,0.5,0.0,0.25,0.75,0.08,-0.23,0.89,61.56,2.9,-40.7
1.5,1.25,0.0,0.0,4.5,6.75,6.5,2.5,7.25,2.75,8.0,6.25,6.75,8.25,-0.11,0.02,0.95,820.72,-3.5,-34.3,0.0,0.0,0.5,0.5,0.0,0.0,0.0,1.0,0.0,0.5,0.25,0.0,0.5,0.14,-0.36,1.02,55.8,0.1,-27.2
1.52,1.0,0.0,0.0,4.25,6.75,6.75,2.5,7.5,2.0,8.0,6.25,6.75,8.25,-0.11,0.02,0.95,872.54,-4.0,-34.9,0.0,0.0,0.0,0.5,0.25,0.0,0.0,0.75,0.0,0.75,0.25,0.0,0.75,0.14,-0.48,0.89,50.54,7.2,-42.9
1.54,1.5,0.0,0.0,4.25,4.75,7.25,1.75,6.75,2.0,8.0,4.75,6.75,7.25,-0.11,0.02,0.95,867.06,-4.2,-34.8,0.0,0.0,0.0,0.5,0.0,0.0,0.0,0.5,0.0,0.5,0.25,0.25,0.75,0.27,-0.55,0.83,45.88,4.6,-56.4
1.56,0.0,0.0,0.0,3.5,4.75,6.5,1.25,7.0,1.25,7.0,4.75,5.5,7.25,-0.11,0.02,0.95,813.52,-6.0,-38.7,0.0,0.0,0.0,0.5,0.25,0.0,0.0,0.75,0.0,0.75,0.0,0.0,0.5,0.39,-0.61,0.7,41.43,8.2,-34.1
1.58,0.0,0.0,0.0,1.75,4.5,6.75,1.25,7.0,1.0,7.0,4.0,4.5,7.75,-0.11,0.02,0.95,732.37,-7.8,-41.4,0.75,0.25,0.0,0.5,0.0,0.0,0.25,0.0,0.0,0.5,0.0,0.0,0.5,1.27,-1.3,2.89,38.75,-9.8,12.7
1.6,0.5,1.0,0.0,4.0,4.25,7.5,1.75,7.5,1.25,7.0,4.0,3.25,7.25,-0.11,0.02,0.95,684.54,-6.1,-29.0,1.5,0.5,0.25,0.5,0.25,0.0,0.5,0.0,0.0,0.5,0.0,0.0,0.5,0.52,-1.36,0.89,47.79,-15.6,38.1
1.62,0.0,0.0,0.0,1.25,4.25,6.75,0.5,6.75,0.75,5.0,1.0,2.0,5.5,-0.11,0.02,0.95,570.95,-10.7,-30.0,5.0,0.75,1.75,4.0,0.25,0.0,1.75,0.0,0.25,0.5,0.0,0.0,0.5,1.64,-2.3,3.33,111.64,-23.7,59.3
1.64,0.0,0.0,0.0,0.5,3.5,6.5,0.0,6.75,0.75,3.5,0.0,0.75,4.25,-0.11,0.08,1.02,447.29,-13.3,-24.6,7.25,1.75,6.25,7.5,2.25,0.75,2.75,0.0,0.75,2.5,0.0,0.75,0.5,0.64,2.14,4.64,249.52,-19.6,47.8
1.66,0.0,0.0,0.0,0.75,2.5,4.75,0.0,5.75,0.25,2.0,0.25,1.25,2.5,-0.11,0.14,1.58,323.16,-12.1,-23.1,7.75,1.0,9.0,9.25,5.0,1.75,4.5,1.25,0.75,2.75,1.0,1.0,1.25,0.39,0.52,1.02,430.04,-16.6,39.1
1.68,0.0,0.0,0.0,0.0,1.75,4.25,0.0,4.75,0.25,1.5,0.25,2.0,1.25,-0.11,0.27,1.52,237.26,-12.2,-27.4,7.25,0.25,10.5,9.25,7.25,1.0,6.0,0.0,0.5,0.75,1.25,0.25,0.75,-0.17,0.14,1.39,626.72,-19.9,50.6
1.7,0.0,0.0,0.0,0.0,0.0,2.0,0.0,3.25,0.25,1.0,0.0,1.75,0.5,-1.23,1.89,0.95,136.57,-11.8,-45.6,6.75,1.5,9.25,11.0,7.75,3.0,7.0,0.25,0.75,0.75,0.25,0.25,0.75,-0.11,0.08,1.33,794.81,-17.0,52.3
1.72,0.0,0.0,0.0,0.0,0.0,1.25,0.0,3.0,0.25,1.0,0.25,0.0,0.25,-1.42,3.02,0.33,46.71,-15.3,-35.0,7.25,2.0,10.0,11.0,8.5,3.75,8.0,1.25,0.75,1.5,0.0,0.5,0.75,0.02,0.14,1.14,928.62,-15.6,49.1
1.74,0.75,0.75,0.0,0.0,3.0,2.75,0.25,3.0,1.0,2.25,1.5,1.75,2.0,2.39,1.83,0.77,60.07,-5.4,-22.3,7.0,2.25,10.0,11.0,9.25,4.5,8.0,1.25,0.75,1.5,0.25,0.5,1.25,0.08,0.2,1.08,1031.3,-14.4,46.9
1.76,0.5,1.0,1.0,0.25,3.5,2.5,0.0,3.0,1.0,2.0,1.5,1.75,1.5,1.52,2.45,0.95,102.43,-2.7,-12.6,6.75,2.5,9.25,11.0,9.25,5.0,8.5,1.75,1.75,2.0,0.25,0.75,1.25,0.08,0.14,1.08,1112.92,-13.2,42.6
1.78,0.75,0.5,0.25,0.0,3.5,1.5,0.5,2.5,1.0,2.0,1.5,1.75,1.25,-0.92,1.7,0.89,145.8,-2.6,-18.7,6.25,2.25,9.25,9.75,8.75,5.5,8.5,2.75,2.5,2.75,1.5,1.0,1.25,0.08,0.08,1.02,1173.18,-11.8,34.4
1.8,0.75,0.0,0.25,0.0,2.25,1.5,0.75,3.0,1.0,1.5,1.25,1.75,1.25,-0.61,1.27,0.89,162.28,-3.0,-27.2,6.5,2.5,8.5,11.0,8.25,6.0,8.25,2.75,2.75,4.0,1.5,1.75,2.25,0.08,0.08,1.02,1224.72,-10.6,28.4
1.82,0.5,0.0,0.0,0.0,3.0,1.5,0.5,3.0,1.0,1.25,1.25,1.75,1.25,-0.48,0.89,1.02,169.12,-4.4,-25.6,5.0,2.0,8.5,9.0,9.25,6.0,8.25,3.25,2.5,4.0,2.5,1.75,1.25,0.08,0.08,0.95,1215.4,-9.7,26.1
1.84,0.5,0.25,0.75,0.0,3.75,1.25,0.75,3.0,1.0,1.0,1.25,1.75,1.25,-0.48,0.58,1.02,178.89,-1.4,-15.2,5.75,2.5,8.5,9.25,8.75,6.0,7.75,3.0,2.5,3.75,2.5,1.75,2.5,0.08,0.08,0.95,1195.79,-9.8,25.2
1.86,0.75,0.0,0.5,0.0,2.5,1.25,0.5,3.0,1.0,1.0,1.25,1.75,1.0,-0.55,0.33,0.77,191.1,-1.6,-22.3,5.75,2.5,8.0,9.0,8.5,5.75,7.25,3.0,2.5,3.75,2.5,1.75,2.5,0.08,0.14,0.95,1137.53,-9.6,24.6
1.88,0.5,0.0,0.0,0.0,3.5,1.25,1.25,2.75,1.0,1.5,1.25,1.75,0.5,-0.61,0.14,0.77,203.53,-2.7,-18.5,5.0,2.5,6.75,7.5,7.75,5.75,6.75,3.5,2.5,4.75,2.5,2.0,2.5,0.08,0.08,0.95,1058.64,-7.8,18.6
1.9,0.75,0.0,0.75,0.0,1.25,1.25,1.0,3.0,1.0,1.25,1.25,1.75,1.25,-0.55,0.02,0.77,205.0,-0.6,-30.3,3.75,2.25,6.5,7.5,7.75,5.75,6.25,3.5,1.75,3.5,2.5,1.25,3.0,0.08,0.08,0.95,967.27,-7.2,19.8
1.92,0.75,0.25,0.5,0.0,2.5,1.25,0.75,3.0,1.0,1.25,1.25,1.75,1.25,-0.55,-0.17,0.83,209.72,-1.5,-22.2,3.5,2.0,6.25,6.75,7.25,5.5,5.75,4.0,2.5,5.0,2.75,2.5,3.25,0.08,0.08,0.95,911.12,-6.1,10.1
1.94,0.75,0.0,0.25,0.0,3.0,1.0,0.75,2.25,1.0,1.25,1.25,1.25,1.5,-0.42,-0.17,0.45,206.23,-2.0,-21.4,3.75,2.0,5.0,5.75,6.75,5.5,5.25,4.25,2.5,5.75,3.25,3.25,4.0,0.08,0.08,0.95,860.26,-4.7,2.4
1.96,0.5,0.0,0.25,0.0,3.5,1.25,1.0,3.0,1.0,1.0,1.25,1.75,1.25,-0.67,-0.23,0.64,206.75,-2.6,-20.5,3.5,1.75,4.75,5.5,6.75,5.0,4.75,4.25,2.5,5.25,3.75,2.75,4.75,0.08,0.08,0.95,820.17,-4.3,0.0
1.98,0.5,0.25,0.25,0.25,2.25,1.25,0.75,2.75,1.0,1.25,1.25,1.75,1.25,-0.67,-0.42,0.89,197.13,-2.2,-25.4,1.25,0.75,4.75,4.5,6.5,4.5,4.0,4.75,1.5,5.75,4.75,4.0,5.5,0.08,0.08,0.95,772.52,-2.2,-13.9
2.0,0.75,0.25,1.0,0.0,1.25,1.0,0.75,2.75,1.0,1.25,1.25,1.5,1.25,-0.55,-0.23,0.7,194.8,0.5,-26.2,2.5,2.0,4.25,5.25,5.25,4.75,4.0,5.25,2.5,7.0,4.75,5.25,6.0,0.08,0.08,0.95,774.5,-2.6,-15.2
2.02,0.5,0.0,0.25,0.0,0.0,0.75,0.5,2.25,0.25,1.25,0.75,0.25,1.25,-0.48,0.02,0.33,167.48,-5.7,-42.0,3.0,1.75,3.0,5.25,6.0,4.75,2.75,5.25,2.75,7.25,5.25,5.5,6.5,0.08,0.08,0.95,786.29,-1.6,-18.0
2.04,0.0,0.0,0.0,0.0,0.0,0.25,0.0,1.0,0.25,1.0,0.0,0.0,0.25,-0.11,-0.92,1.08,117.31,-14.0,-52.5,2.25,1.75,3.25,5.5,6.0,4.5,3.0,5.25,2.25,7.75,5.5,5.75,7.0,0.08,0.08,0.95,814.34,-1.2,-20.6
2.06,0.0,0.0,0.0,0.0,0.0,0.25,0.0,1.0,0.25,0.0,0.0,0.0,0.25,0.2,-0.17,0.95,61.34,-13.0,-39.4,2.5,1.75,3.0,5.5,5.75,4.5,2.75,5.5,2.5,7.75,5.75,5.75,7.5,0.08,0.08,0.95,844.73,-1.1,-22.0
2.08,0.0,0.0,0.0,1.5,3.0,0.25,0.0,1.0,0.25,0.25,0.0,0.0,0.25,-0.67,-1.42,2.33,50.07,-1.5,26.9,2.25,1.75,2.5,5.5,5.5,4.5,3.0,5.5,2.5,8.0,6.25,6.0,8.0,0.08,0.08,0.95,868.83,-0.6,-25.2
2.1,0.5,0.0,0.5,5.25,3.75,0.0,0.5,1.0,0.25,0.0,0.0,0.0,0.25,-0.67,-3.92,2.45,89.9,8.4,44.3,2.25,1.25,2.25,4.5,5.0,4.5,2.75,5.5,2.0,8.25,5.75,6.5,8.25,0.08,0.08,0.95,870.09,0.1,-29.9
2.12,2.75,1.0,4.25,7.5,2.5,0.75,3.25,1.0,0.5,0.0,0.0,0.0,0.25,0.7,-0.11,2.39,186.59,18.2,53.2,2.0,1.5,2.25,3.25,4.75,4.5,2.25,5.5,1.75,8.5,5.5,6.5,8.25,0.08,0.08,0.95,857.75,0.9,-32.5
2.14,2.75,1.0,0.0,7.5,5.75,2.5,6.75,2.0,1.25,0.0,0.0,0.0,0.0,0.89,-0.86,1.7,276.3,9.2,44.8,2.0,0.25,1.75,2.0,4.5,4.5,1.75,5.25,1.5,8.25,5.25,6.25,8.25,0.08,0.08,0.95,816.65,2.3,-39.0
2.16,2.75,1.0,4.75,6.5,6.25,2.75,8.0,3.0,4.75,2.0,2.25,3.0,1.75,-0.11,-0.05,1.27,434.71,9.8,10.7,1.5,0.0,1.0,1.5,4.5,4.5,1.5,5.25,1.25,8.0,4.75,5.75,8.25,0.08,0.08,0.95,756.83,4.0,-42.7
2.18,3.25,1.25,5.5,7.0,4.25,3.75,8.75,5.75,6.0,5.5,6.25,5.75,4.5,-0.17,-0.11,1.14,691.41,7.0,-12.0,1.25,0.0,1.0,0.75,0.5,2.25,0.75,4.25,0.5,6.5,2.5,4.0,7.25,0.08,0.08,0.95,613.48,4.9,-57.1
2.2,3.25,1.0,5.5,6.0,6.0,4.0,8.5,6.0,6.0,5.5,7.25,6.75,6.0,-0.05,-0.05,1.02,959.1,5.9,-16.1,0.0,0.0,0.5,0.5,0.25,2.25,0.25,3.0,0.5,5.75,0.75,2.5,6.5,-0.05,0.14,1.08,453.51,9.3,-65.1
2.22,2.75,1.0,5.0,6.0,4.5,3.25,8.0,6.0,6.0,6.0,7.5,7.25,6.5,-0.05,-0.05,1.02,1145.77,5.6,-22.1,0.25,0.0,0.5,0.5,0.5,1.75,0.0,2.75,0.25,4.25,0.25,1.75,5.25,0.02,0.2,1.33,314.62,9.3,-58.9
2.24,2.0,1.0,3.25,4.5,3.75,0.25,7.5,5.75,5.5,5.5,7.5,7.25,6.75,-0.05,-0.05,0.95,1181.85,5.5,-32.3,0.0,0.0,0.0,0.5,0.0,1.0,0.0,2.5,0.5,3.25,0.25,1.0,4.25,0.33,0.27,1.08,217.51,11.1,-68.1
2.26,1.5,1.0,1.0,4.0,3.0,2.75,6.75,5.25,5.0,5.5,6.75,6.75,6.5,-0.05,-0.05,0.95,1119.86,2.5,-35.5,0.0,0.0,0.0,0.5,0.0,1.0,0.25,1.5,0.5,2.5,0.25,0.75,2.75,0.58,0.52,1.7,129.21,9.7,-61.7
2.28,1.5,1.0,0.5,0.0,3.5,2.75,6.0,4.75,4.5,5.25,6.25,6.75,6.5,-0.05,-0.05,0.95,991.04,0.5,-43.7,0.0,0.0,0.0,0.5,0.0,0.5,0.0,1.5,0.5,1.75,0.25,0.5,1.5,-0.36,2.27,0.95,54.61,8.9,-57.7
2.3,1.5,0.0,0.75,1.25,0.5,2.75,5.5,4.75,4.25,5.5,6.25,7.5,7.0,-0.05,-0.05,0.95,878.68,0.9,-53.4,0.0,0.0,0.5,0.5,0.0,0.0,0.25,1.5,0.5,1.75,0.25,0.5,1.25,-1.67,2.02,1.33,4.64,3.5,-51.7
2.32,1.5,0.0,0.5,1.25,4.25,2.5,4.5,4.75,3.75,5.5,6.25,8.0,7.25,-0.05,-0.05,0.95,807.84,0.0,-46.7,0.25,0.0,0.5,0.5,0.25,0.0,0.25,1.5,0.25,1.75,0.25,0.25,1.25,-1.23,1.77,1.14,0.0,3.2,-40.7
2.34,1.5,0.75,0.5,1.5,1.25,2.25,4.0,4.75,3.75,6.0,7.0,8.5,8.25,-0.05,-0.05,0.95,769.11,0.3,-54.5,0.5,0.0,0.25,0.5,0.25,0.0,0.25,1.0,0.5,1.5,0.25,0.25,1.25,-0.61,1.77,0.7,0.0,1.4,-38.5
2.36,0.75,1.0,0.25,1.5,1.75,2.25,3.75,4.75,3.5,7.0,7.25,8.75,8.75,-0.05,-0.05,0.95,753.15,-0.8,-56.9,0.0,0.0,0.25,0.5,0.25,0.0,0.25,1.25,0.25,1.5,0.25,0.25,1.25,0.14,1.58,0.64,0.0,5.4,-49.2
2.38,1.25,0.75,0.25,1.5,2.5,2.5,2.75,4.75,3.5,7.0,7.5,9.0,9.0,-0.05,-0.05,0.95,751.54,-0.9,-55.4,0.0,0.0,0.5,0.5,0.25,0.0,0.25,1.25,0.25,1.5,0.25,0.0,1.25,-0.05,1.27,0.77,0.0,4.1,-41.9
2.4,1.0,0.75,0.25,1.25,3.5,2.5,2.5,5.0,3.5,7.0,7.5,9.5,10.0,-0.11,-0.05,0.95,760.71,-1.5,-55.9,0.0,0.25,0.25,0.5,0.25,0.0,0.25,1.25,0.25,1.5,0.25,0.25,1.0,0.02,0.89,1.02,16.45,4.3,-40.1
2.42,1.5,0.25,0.0,1.25,3.5,2.5,2.5,5.0,3.25,7.75,7.75,9.5,10.0,-0.05,-0.05,0.95,781.45,-1.7,-57.0,0.0,0.25,0.25,0.5,0.25,0.0,0.5,1.25,0.25,1.25,0.25,0.0,1.25,0.14,0.45,1.27,40.99,4.0,-37.3
2.44,1.75,0.5,0.5,1.75,3.75,1.25,2.0,5.75,2.75,7.5,7.0,8.75,9.25,-0.05,-0.05,0.95,798.49,-1.0,-53.1,0.0,0.0,0.5,0.5,0.0,0.0,0.25,1.25,0.25,1.25,0.25,0.0,0.75,0.14,0.33,1.27,51.89,2.6,-38.7
2.46,1.0,0.5,0.25,1.75,0.0,2.5,1.75,5.5,2.75,8.25,7.75,9.0,9.75,-0.05,-0.05,0.95,808.57,-2.2,-64.9,0.25,0.25,0.25,0.5,0.25,0.0,0.5,1.25,0.25,1.5,0.0,0.0,0.75,0.27,0.2,1.2,61.26,2.6,-25.0
2.48,1.5,1.25,0.25,4.25,2.25,4.0,2.5,5.75,2.75,9.25,7.75,9.5,10.5,-0.11,-0.05,0.95,873.41,-1.5,-49.2,0.0,0.25,0.25,0.5,0.25,0.0,0.5,1.25,0.25,1.25,0.25,0.25,0.75,0.14,0.08,1.27,68.86,2.5,-33.9
2.5,1.0,0.5,0.0,1.5,2.5,2.75,1.75,5.75,2.5,9.25,7.5,9.5,11.0,-0.11,-0.05,0.95,901.33,-3.2,-61.0,0.0,0.0,0.0,0.5,1.0,0.0,0.5,1.0,0.25,1.0,0.25,0.25,0.75,0.27,0.02,1.2,74.29,4.1,-28.6
2.52,0.75,0.5,0.25,1.25,3.0,2.75,1.75,5.75,2.0,9.25,7.5,9.5,11.0,-0.11,-0.05,0.95,925.11,-3.4,-60.6,0.25,0.25,0.0,0.5,0.25,0.0,0.5,1.25,0.0,0.75,0.25,0.0,0.75,0.52,-0.11,1.14,72.76,2.9,-23.5
2.54,1.0,0.5,0.0,1.25,3.0,2.75,1.75,5.75,2.0,9.25,7.25,9.0,11.0,-0.11,0.02,0.95,914.65,-3.7,-60.0,0.25,0.25,0.0,0.5,0.5,0.0,0.5,1.0,0.25,1.0,0.25,0.0,0.75,0.52,-0.17,1.14,72.09,2.1,-21.7
2.56,0.75,0.75,0.25,1.25,3.5,2.75,1.5,5.75,2.0,9.25,7.25,8.75,11.0,-0.11,0.02,0.95,902.69,-3.7,-58.1,1.25,0.75,1.75,1.0,1.0,0.0,0.5,1.0,0.25,1.75,0.25,1.0,0.75,0.58,-0.3,0.95,104.06,-9.0,3.3
2.58,0.0,0.0,0.0,1.0,0.0,2.5,1.0,5.5,2.0,8.75,6.5,8.5,10.0,-0.11,0.02,0.95,832.07,-4.9,-73.7,0.0,0.0,1.75,0.5,2.75,0.0,0.75,1.5,0.25,0.75,0.5,0.0,0.75,0.7,-0.42,0.7,126.87,-4.1,7.7
2.6,0.0,0.0,0.0,0.25,2.5,2.5,0.75,5.75,1.5,8.75,6.5,8.25,10.0,-0.11,0.02,0.95,782.72,-5.6,-68.3,0.0,0.0,0.5,0.5,0.25,0.0,0.5,0.5,0.0,0.5,0.0,0.0,0.5,0.7,-0.61,0.64,114.58,-3.9,-9.7
2.62,0.75,0.5,0.75,0.25,2.25,2.75,0.75,5.75,1.5,9.25,6.75,9.0,11.0,-0.11,-0.05,0.95,768.57,-4.3,-64.1,1.25,0.75,0.5,1.0,0.5,1.5,0.75,1.5,0.5,2.0,0.75,1.0,1.5,0.7,-0.73,0.58,139.81,-0.8,-14.4
2.64,0.0,0.5,0.25,0.25,2.5,1.25,0.25,5.75,1.0,8.0,6.75,8.0,11.0,-0.11,-0.05,1.02,740.63,-5.1,-69.8,1.25,0.75,1.75,1.0,2.75,1.25,0.75,1.25,0.5,0.5,0.75,0.0,1.25,0.52,-0.61,0.2,165.83,-5.7,20.3
2.66,0.0,0.0,0.0,0.0,0.0,1.25,0.0,4.75,1.0,9.0,5.0,8.25,9.5,-0.11,0.02,1.14,683.95,-6.3,-82.6,0.5,0.75,0.75,0.5,2.75,0.0,1.25,1.25,0.5,2.25,0.25,0.25,0.5,0.83,-1.48,1.14,182.92,-1.8,4.1
2.68,0.0,0.0,0.0,0.0,0.0,0.5,0.0,4.0,0.5,7.0,3.75,6.75,9.0,-0.23,0.02,1.2,584.53,-6.6,-86.0,1.75,0.5,4.25,2.75,3.0,0.0,1.0,0.25,0.5,0.75,1.0,0.0,1.25,0.52,-2.67,4.58,217.9,-15.6,31.7
2.7,0.0,0.0,0.0,0.0,0.0,0.25,0.0,3.25,0.25,5.5,2.5,5.75,8.25,-0.36,0.14,1.45,463.18,-7.0,-88.4,2.75,0.75,5.75,3.25,2.5,0.5,2.0,1.25,0.5,1.5,0.5,0.5,1.5,0.39,0.45,1.58,266.32,-15.1,28.1
2.72,0.0,0.0,0.0,0.0,0.0,0.25,0.0,3.0,0.25,3.75,1.0,3.25,7.0,-0.55,0.27,1.7,336.86,-9.1,-86.9,3.75,0.75,5.5,4.0,5.25,2.25,2.5,1.0,1.0,1.5,0.0,0.25,0.5,-0.11,-0.11,1.64,329.14,-12.8,41.8
2.74,0.0,0.0,0.0,0.0,0.0,0.0,0.0,2.75,0.25,2.25,0.5,3.0,5.5,-0.8,0.14,1.2,252.61,-8.6,-88.5,3.75,0.5,5.75,3.25,3.75,2.25,5.75,1.5,1.5,3.5,0.25,2.5,1.5,0.2,0.08,1.45,406.84,-11.4,14.7
2.76,0.0,0.0,0.0,0.0,0.0,0.25,0.0,2.0,0.25,1.75,0.0,1.75,3.75,-0.48,0.33,0.89,167.16,-10.2,-84.0,5.0,0.0,4.75,3.25,3.0,2.25,6.0,2.75,3.25,4.75,3.5,4.0,3.25,0.08,0.02,1.02,527.56,-9.0,-8.4
2.78,0.0,0.0,0.0,0.0,0.0,0.25,0.25,1.25,0.25,1.0,0.5,1.75,2.25,-0.05,1.77,0.27,90.3,-6.2,-81.7,3.5,0.75,4.75,3.25,3.0,2.5,6.0,3.0,3.5,6.0,4.75,5.0,4.25,0.08,0.08,0.95,638.82,-6.9,-17.7
2.8,0.0,0.0,0.0,0.0,0.0,0.0,0.0,1.5,0.25,1.0,0.5,1.25,2.0,0.7,1.27,0.83,32.42,-7.6,-83.0,4.25,1.75,4.75,4.75,3.25,3.25,6.0,3.25,4.25,6.5,6.5,5.75,6.0,0.08,0.08,0.95,785.79,-6.5,-17.7
2.82,0.5,0.0,0.0,0.0,0.0,0.0,0.25,1.75,0.25,1.0,0.25,0.75,1.0,0.45,1.02,0.89,0.0,-4.7,-56.6,3.75,2.0,5.0,4.25,5.25,4.5,5.5,4.25,4.25,6.75,6.25,6.0,6.5,0.08,0.08,0.95,936.36,-4.6,-16.4
2.84,0.5,0.0,0.0,0.0,0.0,0.0,0.5,1.5,1.0,2.25,0.25,1.5,0.75,0.08,0.95,0.7,0.0,-2.4,-60.5,3.75,0.0,4.75,3.25,5.0,4.5,5.0,4.25,3.75,7.0,6.5,6.25,7.0,0.08,0.08,0.95,1021.83,-3.7,-24.2
2.86,0.0,0.0,0.0,0.0,0.0,0.75,0.75,2.5,1.0,1.0,0.25,0.0,0.5,-0.05,0.89,0.77,0.0,-8.6,-39.8,3.0,0.75,3.25,3.25,4.5,4.25,4.25,4.25,3.5,7.0,6.5,6.5,7.0,0.08,0.08,0.95,1023.38,-2.4,-28.0
2.88,0.75,0.0,0.0,0.25,0.0,1.25,1.0,2.75,1.0,2.0,1.25,1.0,2.25,0.14,0.77,1.02,43.18,-4.4,-47.6,2.25,0.25,2.25,3.0,4.5,4.0,3.5,4.25,3.25,7.0,6.25,6.5,7.0,0.08,0.08,0.95,980.25,-0.9,-33.5
2.9,0.5,0.0,0.25,0.25,1.75,0.75,0.5,1.25,0.25,0.75,1.25,0.25,2.25,0.14,0.7,1.2,73.29,-3.0,-27.2,2.25,0.0,2.0,3.0,4.5,4.0,2.75,4.25,3.25,7.25,6.0,6.0,7.75,0.08,0.08,0.95,924.9,-0.1,-35.5
2.92,0.5,0.0,0.25,0.25,3.0,1.0,1.0,2.75,1.0,1.75,0.0,1.75,2.5,0.02,0.52,1.2,131.6,-4.3,-28.2,2.0,0.0,2.5,2.25,4.75,3.25,3.0,4.25,2.5,7.25,6.5,6.5,7.75,0.08,0.08,0.95,866.48,-0.4,-37.9
2.94,0.5,0.0,0.25,0.25,2.5,1.0,1.0,2.25,1.0,2.0,1.25,1.75,2.25,-0.05,0.39,1.2,170.7,-2.8,-33.9,2.25,0.0,2.0,2.5,3.75,3.75,1.75,4.25,2.5,7.75,5.25,7.0,7.5,0.08,0.08,0.95,818.39,0.4,-39.8
2.96,0.5,0.0,0.25,0.25,3.0,1.0,1.25,2.5,1.0,1.5,0.75,1.0,2.25,-0.11,0.2,1.2,201.84,-3.4,-23.6,1.75,0.25,1.75,2.0,4.5,3.75,1.75,4.25,2.5,7.75,6.0,6.5,8.5,0.08,0.08,0.95,788.74,1.3,-41.6
2.98,0.5,0.0,0.25,0.25,1.25,1.25,1.25,1.75,1.0,1.75,1.0,1.25,2.25,-0.11,-0.05,1.08,208.79,-2.7,-37.1,1.5,0.25,2.0,2.75,4.5,4.5,1.75,4.25,2.0,8.25,6.0,7.25,8.75,0.08,0.08,0.95,780.58,1.4,-40.8
3.0,0.5,0.0,0.25,0.5,3.0,1.0,0.75,2.5,1.0,2.0,1.5,0.75,1.75,-0.17,-0.11,1.08,219.26,-3.2,-22.9,2.0,0.25,1.75,2.75,3.0,4.5,1.25,4.25,2.0,8.5,6.25,7.25,9.0,0.08,0.08,0.95,773.68,1.5,-44.2
3.02,0.5,0.0,0.25,0.75,3.5,0.5,1.25,2.0,0.75,2.0,1.25,0.75,2.25,-0.36,-0.36,1.02,223.74,-2.1,-21.0,2.0,0.25,1.75,3.0,4.5,4.5,1.75,4.5,1.75,8.5,6.5,7.25,9.25,0.08,0.08,0.95,787.2,1.4,-40.8
3.04,0.25,0.0,0.25,0.75,3.0,1.0,1.0,2.5,0.75,2.0,0.75,1.0,1.5,-0.36,-0.36,0.83,223.55,-3.7,-20.1,2.0,0.75,1.75,3.25,4.5,5.25,1.75,5.25,2.5,8.75,5.75,7.25,9.25,0.08,0.08,0.95,810.81,1.7,-37.8
3.06,0.0,0.0,0.25,1.0,3.0,0.25,1.0,2.5,1.0,1.75,1.25,1.75,2.25,-0.42,-0.3,0.83,227.2,-2.1,-32.5,1.5,0.0,1.75,0.75,4.5,3.25,1.5,5.25,1.75,9.0,5.5,7.25,9.25,0.08,0.08,0.95,806.97,2.9,-48.9
3.08,0.0,0.0,0.0,0.0,3.0,0.0,1.25,1.0,0.25,0.75,1.5,1.75,2.5,-1.05,-7.61,2.02,211.57,-1.8,-41.0,1.0,0.0,2.0,0.5,5.0,3.0,1.75,5.5,1.25,8.25,4.5,6.5,8.5,0.08,0.08,0.95,776.2,3.3,-46.4
3.1,0.0,0.0,0.0,0.0,0.0,0.0,0.25,0.5,0.25,0.75,0.25,1.0,2.25,-1.05,-5.11,-0.42,170.48,-6.4,-89.8,0.5,0.0,0.25,0.5,1.25,3.5,0.75,4.25,1.25,8.25,4.75,6.5,8.5,0.08,0.08,0.95,701.37,5.8,-64.2
3.12,0.0,0.0,0.0,1.0,0.0,0.0,0.0,0.0,0.75,1.0,0.0,2.5,1.25,-4.11,0.2,5.33,130.86,2.4,-69.8,1.25,0.0,0.25,0.5,1.0,3.25,0.75,4.5,1.25,8.25,4.75,6.5,8.5,0.08,0.08,0.95,640.29,5.0,-62.6
3.14,0.0,0.0,0.0,0.25,0.0,0.25,2.25,2.5,1.0,2.5,2.25,3.25,4.0,0.95,1.33,1.33,159.72,-2.3,-72.7,0.5,0.0,0.5,0.5,2.25,4.0,1.0,5.25,1.25,8.75,4.75,6.0,8.75,0.08,0.08,0.95,609.4,6.1,-58.2
3.16,0.0,0.0,0.25,0.0,0.0,0.0,0.5,0.5,0.25,2.0,0.5,3.25,2.5,0.39,-0.36,0.83,158.08,-2.1,-87.2,0.75,0.0,1.5,0.75,4.5,4.0,1.0,5.5,1.0,8.5,5.5,6.25,8.5,0.14,0.08,0.95,625.94,4.4,-48.3
3.18,0.25,0.0,0.25,0.0,3.0,0.25,1.25,1.5,1.0,2.5,2.5,3.25,3.75,-0.3,-0.23,0.52,206.89,-1.5,-51.7,2.25,0.5,1.75,3.25,3.5,4.5,0.75,5.5,1.25,9.0,4.75,6.5,9.25,0.14,0.08,0.95,675.77,2.5,-39.9
3.2,0.0,0.0,0.25,0.25,0.0,0.0,0.5,2.0,0.75,2.75,2.75,5.25,4.0,0.2,0.14,0.83,238.12,-1.4,-82.3,1.0,0.75,1.75,3.25,4.75,5.5,1.75,5.5,1.25,8.0,4.75,5.75,9.25,0.14,0.08,0.95,718.41,3.2,-36.1
3.22,0.0,0.0,0.0,0.0,0.0,0.0,0.5,1.0,1.0,3.5,2.75,6.75,5.25,-0.11,-0.11,1.08,277.39,-1.8,-91.0,1.25,0.5,1.75,0.5,2.75,4.5,1.0,5.25,0.75,8.5,4.75,5.75,9.0,0.14,0.08,0.95,713.36,4.4,-48.5
3.24,0.0,0.25,0.0,1.5,0.0,0.0,0.75,2.0,2.0,5.0,5.0,7.5,7.0,-0.17,-0.05,1.02,342.14,-0.8,-77.6,0.0,0.0,0.0,0.5,0.0,2.25,0.25,4.25,0.5,7.25,2.5,5.25,8.25,0.08,0.08,0.95,612.73,8.3,-74.9
3.26,0.0,0.0,0.0,0.0,0.0,0.25,0.5,2.0,2.0,4.5,5.75,7.5,7.25,-0.05,0.02,1.08,408.98,-1.8,-86.2,0.25,0.0,0.0,0.5,0.5,2.25,0.0,4.25,0.5,7.0,2.5,4.75,8.0,0.08,0.08,0.95,514.65,8.2,-70.7
3.28,0.0,0.0,0.0,1.0,0.0,0.25,2.5,2.75,3.5,4.0,6.5,7.5,7.25,-0.05,-0.05,0.95,491.05,0.4,-75.3,0.0,0.0,0.0,0.5,0.0,1.5,0.0,3.5,0.5,6.5,1.5,4.0,8.0,0.08,0.08,1.02,415.79,9.1,-77.3
3.3,2.0,1.0,1.75,4.0,0.0,0.5,3.75,3.0,4.75,4.75,6.5,7.5,6.5,-0.05,-0.05,0.95,585.69,5.4,-45.0,0.0,0.0,0.0,0.75,0.0,2.25,0.0,3.0,0.25,6.0,1.0,3.25,7.25,0.08,0.14,1.2,356.68,10.0,-71.7
3.32,3.25,1.0,5.75,4.25,3.75,2.5,6.5,4.5,5.0,4.5,7.5,7.0,6.5,0.02,-0.05,1.02,750.62,7.0,-22.6,0.25,0.0,0.0,0.5,0.25,1.0,0.0,2.75,0.25,5.25,1.25,2.5,7.0,0.27,0.14,1.2,305.53,9.2,-74.1
3.34,3.5,1.0,7.5,5.25,2.25,2.75,7.5,4.5,5.0,3.75,6.75,6.0,5.75,0.02,-0.05,1.02,880.5,9.2,-15.7,0.0,0.25,0.0,0.5,0.25,1.0,0.0,2.25,0.25,5.0,0.25,2.5,6.5,0.27,0.2,1.52,271.17,10.0,-73.8
3.36,4.5,1.0,7.5,4.25,0.0,2.5,7.75,3.5,4.75,2.75,5.75,4.75,5.0,-0.05,-0.05,0.95,917.0,11.7,-12.1,0.0,0.25,0.0,0.5,0.25,1.0,0.0,1.5,0.25,4.75,0.25,2.5,6.0,0.27,0.2,1.39,234.4,9.5,-74.2
3.38,4.0,0.75,8.25,4.25,3.0,2.5,7.75,3.5,5.0,1.75,6.0,4.75,4.25,0.02,0.02,0.95,918.54,11.8,-5.9,0.0,0.25,0.0,0.5,0.25,1.0,0.0,1.5,0.25,3.5,0.25,1.75,5.75,0.27,0.14,1.14,196.85,9.9,-71.7
3.4,4.5,0.25,8.5,4.75,2.5,2.5,7.75,3.0,4.75,2.0,5.25,4.75,2.75,0.02,0.08,0.95,886.28,13.3,-1.3,0.0,0.25,0.0,0.5,0.25,0.75,0.0,1.5,0.25,3.25,0.25,1.0,4.75,0.27,0.08,0.95,161.62,10.3,-68.4
3.42,5.5,1.25,9.25,6.0,3.75,3.25,7.75,3.25,4.5,0.5,5.5,4.5,4.75,0.02,0.08,0.95,896.27,12.9,4.4,0.0,0.25,0.0,0.5,0.5,0.25,0.0,1.5,0.25,2.25,0.25,0.5,3.25,0.2,0.27,0.83,122.1,9.4,-60.2
3.44,3.75,0.0,8.0,4.75,3.0,2.0,7.0,2.75,3.75,1.0,4.5,3.25,2.75,0.02,0.08,0.95,822.16,13.8,3.5,0.0,0.25,0.0,0.5,0.5,0.0,0.0,1.5,0.25,1.75,0.25,0.5,2.25,-0.3,2.27,-0.11,90.12,8.0,-55.6
3.46,3.75,0.0,8.0,4.25,0.0,1.5,6.75,2.5,3.5,1.0,4.75,4.25,3.0,0.02,0.02,0.95,732.93,15.5,-5.4,0.0,0.0,0.0,0.25,1.0,0.5,0.0,1.5,0.25,1.75,0.0,0.5,1.75,-0.61,2.52,0.83,71.29,10.4,-46.7
3.48,3.25,0.0,7.25,4.0,0.0,1.5,6.25,2.25,3.0,2.0,4.75,4.75,3.0,0.02,-0.05,0.95,621.13,14.0,-11.1,0.0,0.0,0.0,0.5,0.25,0.0,0.0,1.25,0.25,1.5,0.25,0.5,1.25,-0.36,2.02,1.2,57.35,7.5,-58.2
3.5,3.25,0.0,6.5,2.25,0.0,1.25,5.5,2.5,2.75,2.75,5.0,4.75,3.75,0.02,0.02,0.95,539.91,12.0,-20.4,0.0,0.25,0.0,0.5,0.25,0.0,0.0,1.25,0.25,1.5,0.25,0.25,1.25,-0.17,1.58,1.2,45.25,7.3,-49.0
3.52,3.25,1.0,6.0,3.0,0.0,2.75,5.25,3.0,2.75,0.0,6.0,5.75,4.25,-0.05,0.08,0.95,496.7,11.6,-16.2,0.0,0.25,0.0,0.5,0.25,0.25,0.25,1.25,0.25,1.5,0.25,0.25,1.25,-0.05,1.14,1.27,44.6,7.1,-44.4
3.54,3.5,1.0,6.5,2.5,3.0,2.25,5.0,3.0,2.75,3.75,6.0,5.75,5.5,-0.05,0.02,0.95,525.34,8.4,-18.3,0.0,0.0,0.0,0.0,0.5,0.0,0.25,1.25,0.25,1.25,0.25,0.25,1.25,-0.05,0.7,1.33,44.57,9.2,-58.4
3.56,1.5,0.0,3.0,1.0,0.0,0.25,2.5,2.25,2.0,2.75,5.75,5.75,5.75,-0.05,0.02,0.95,480.95,6.1,-52.7,0.0,0.0,0.0,0.0,0.0,0.0,0.5,1.25,0.25,1.25,0.25,0.25,1.25,3.45,-7.98,4.83,45.3,8.9,-69.8
3.58,0.0,0.0,2.0,0.0,0.0,0.25,1.25,2.75,1.25,3.75,6.25,6.25,5.25,-0.05,0.02,0.95,440.23,1.7,-71.4,0.0,0.25,0.0,0.25,0.0,0.0,0.25,1.25,0.0,1.25,0.25,0.25,1.25,0.52,-2.55,1.45,47.95,8.4,-58.1
3.6,1.0,0.0,0.5,0.0,0.0,0.0,0.0,1.75,1.0,5.25,6.0,6.5,6.0,-0.11,-0.05,1.02,393.27,-0.4,-79.1,0.0,0.0,0.0,0.0,0.25,0.0,0.5,1.25,0.25,1.5,0.25,0.25,1.0,-0.23,0.39,0.2,53.27,8.7,-61.0
3.62,1.75,0.0,0.0,0.0,0.0,0.0,0.0,1.25,1.0,5.5,5.0,7.25,6.75,-0.11,0.08,1.33,371.01,-0.5,-79.7,0.0,0.0,0.0,0.25,0.25,0.0,0.5,1.25,0.0,1.25,0.0,0.25,1.0,0.52,0.83,1.02,56.92,9.0,-53.8
3.64,0.0,0.0,0.0,0.0,0.0,0.25,0.0,1.0,0.75,4.75,4.0,6.75,7.25,-0.11,0.02,1.33,348.03,-3.5,-91.5,0.0,0.0,0.0,0.5,0.25,0.0,0.5,1.25,0.0,1.0,0.0,0.0,1.0,0.7,1.14,1.14,59.45,8.0,-42.6
3.66,0.0,0.0,0.0,0.0,0.0,0.0,0.0,1.0,0.25,3.75,4.0,6.75,7.25,-0.17,-0.05,1.27,333.82,-3.1,-94.6,0.0,0.0,0.0,0.5,0.25,0.0,0.5,1.25,0.0,1.0,0.25,0.0,1.25,0.27,1.27,0.95,64.21,7.4,-47.8
3.68,0.0,0.0,0.0,0.0,0.0,0.0,0.0,1.0,0.25,3.5,3.5,5.75,7.25,-0.23,-0.23,1.52,319.96,-3.9,-94.6,0.0,0.25,1.75,0.5,0.5,0.0,0.5,1.25,0.25,1.75,0.0,0.75,1.25,-0.61,1.45,0.14,85.26,-3.5,-24.2
3.7,0.25,0.0,0.0,0.0,0.0,0.0,0.0,1.0,0.25,2.25,3.0,5.75,6.75,-0.36,-0.8,1.52,292.65,-2.7,-93.6,0.0,0.0,0.0,0.5,0.25,0.0,0.25,1.25,0.0,0.5,0.25,0.0,1.75,-0.55,1.14,0.27,86.66,8.2,-53.6
3.72,0.0,0.0,0.0,0.0,0.0,0.0,0.0,1.0,0.25,2.25,2.5,4.75,6.5,-0.55,-0.8,1.89,266.88,-4.1,-95.5,0.0,0.25,0.0,0.5,0.25,0.0,0.25,1.25,0.0,1.0,0.0,0.25,0.75,-0.36,0.83,0.58,85.43,6.6,-36.2
3.74,0.0,0.0,0.0,0.0,0.0,0.0,0.5,1.0,0.25,0.75,1.25,2.5,4.25,-0.8,-1.55,2.39,215.15,-4.1,-91.5,0.0,0.0,0.0,0.5,0.5,0.0,0.25,1.25,0.0,0.75,0.25,0.25,1.0,0.27,-3.73,1.33,78.25,6.5,-42.0
3.76,0.0,0.0,0.0,0.0,0.0,0.0,0.5,0.75,0.0,0.0,0.25,1.75,2.25,-0.67,-1.36,1.27,141.87,-3.4,-92.0,0.0,0.0,0.0,0.5,0.25,0.0,0.25,1.25,0.0,1.25,0.0,0.25,1.0,0.7,-1.92,2.39,74.68,8.6,-49.7
3.78,0.0,0.0,0.0,0.0,0.0,0.0,0.75,0.75,0.25,0.0,0.0,1.0,1.0,-0.73,0.89,2.83,65.86,-0.9,-74.3,0.0,0.0,0.0,0.5,0.0,0.0,0.25,1.5,0.0,1.0,0.25,0.0,0.5,0.64,-0.05,1.39,68.01,8.3,-44.8
3.8,0.0,0.0,0.0,0.0,0.0,0.0,1.25,4.0,0.0,0.0,0.0,0.0,0.0,-0.42,-0.17,1.2,25.99,-10.3,-30.1,0.0,0.0,0.0,0.5,0.5,0.0,0.25,1.0,0.0,0.75,0.0,0.0,0.5,0.7,0.45,0.89,61.78,7.0,-25.0
3.82,0.0,0.0,0.0,0.0,0.75,0.25,4.75,0.0,2.0,0.0,0.25,1.0,0.0,-0.48,-0.17,1.52,9.67,15.3,-13.1,0.0,0.0,0.0,0.25,0.25,0.0,0.25,0.75,0.0,0.75,0.0,0.0,0.5,0.83,0.33,0.7,52.04,8.9,-40.3
3.84,0.5,0.0,1.75,0.0,0.0,2.75,6.0,5.0,1.5,0.0,0.75,1.0,0.5,-0.11,-0.17,2.2,67.63,3.8,-9.0,0.0,0.25,0.0,0.5,0.25,0.0,0.25,0.75,0.0,0.75,0.0,0.0,0.5,1.02,0.14,0.77,45.55,5.0,-21.1
3.86,0.0,0.0,1.0,0.0,0.0,0.0,4.0,1.5,0.25,0.0,1.5,0.75,0.5,0.27,-0.67,2.2,79.93,12.7,-27.0,0.0,0.25,0.0,0.25,0.5,0.0,0.25,0.5,0.0,0.5,0.0,0.0,0.5,1.02,-0.05,1.14,39.85,4.9,-14.1
3.88,0.0,0.0,0.0,0.0,0.0,0.25,4.75,0.0,0.25,0.0,0.5,0.5,0.75,0.2,-1.11,1.02,77.34,15.6,-25.5,0.0,0.25,0.0,0.5,0.25,0.0,0.25,0.5,0.0,0.5,0.0,0.0,0.5,1.2,-0.42,1.7,36.83,2.9,-14.4
3.9,0.0,0.5,0.5,0.0,3.0,1.0,1.75,1.0,0.75,1.0,1.25,1.25,1.75,0.02,-1.36,0.27,99.44,-0.2,-18.4,0.0,0.0,0.0,0.25,0.5,0.0,0.5,0.5,0.0,0.75,0.0,0.0,0.5,1.64,-1.11,1.95,34.42,5.9,-28.0
3.92,0.0,0.0,0.5,0.0,1.75,0.0,1.25,1.0,0.25,0.0,1.25,1.75,1.5,0.2,-1.3,-0.92,107.47,2.9,-38.7,0.0,0.25,0.0,0.25,0.25,0.0,0.5,0.0,0.0,0.75,0.0,0.0,0.5,1.39,-1.3,1.77,31.1,1.8,-21.8
3.94,0.75,0.0,0.25,0.0,3.0,0.25,1.75,1.0,0.25,0.0,1.5,0.25,1.5,0.2,-0.73,-0.05,126.22,2.7,-5.3,0.0,0.0,0.25,0.5,0.25,0.0,0.5,0.0,0.0,0.75,0.0,0.0,0.0,0.77,-1.61,1.08,31.25,-6.7,5.5
3.96,0.0,0.0,0.0,0.0,0.0,0.0,1.25,0.75,0.25,0.0,0.0,0.0,0.25,-0.42,-0.42,1.02,100.38,3.3,-27.2,0.0,0.25,0.0,0.25,0.25,0.0,0.5,0.5,0.0,0.5,0.0,0.0,0.5,0.83,-1.36,0.45,31.25,3.4,-19.8
3.98,0.0,0.0,0.0,0.0,0.0,0.25,1.25,0.75,0.25,0.0,0.0,0.25,0.25,-0.86,-0.73,1.45,81.21,1.3,-29.8,0.0,0.0,0.0,0.5,0.25,0.0,0.5,0.0,0.0,0.5,0.0,0.0,0.5,1.08,-0.73,0.39,29.51,-0.4,-20.2
4.0,0.0,0.0,0.0,0.0,2.5,0.0,1.75,1.0,0.25,0.0,1.5,1.5,1.5,-1.11,-0.86,1.08,83.87,1.2,-33.1,0.0,0.0,0.0,0.25,0.25,0.0,0.25,0.0,0.0,0.5,0.0,0.0,0.5,1.27,-0.11,0.27,27.24,4.4,-35.8
4.02,0.5,0.0,0.5,0.0,2.5,1.25,1.75,1.0,1.0,1.0,1.5,1.75,1.75,-0.86,-0.98,0.89,121.53,0.9,-25.6,0.0,0.0,0.0,0.0,0.25,0.0,0.5,0.0,0.0,0.25,0.0,0.0,0.25,1.14,-0.23,0.58,21.92,0.6,-24.2
4.04,0.0,0.0,0.0,0.0,0.0,0.0,1.25,0.75,0.25,0.0,0.0,0.0,0.25,-0.42,-1.17,0.58,102.08,3.3,-27.2,0.0,0.0,0.0,0.5,0.25,0.0,0.25,0.0,0.0,0.5,0.0,0.0,0.0,0.89,-0.67,0.83,19.76,-2.8,7.9
4.06,0.0,0.0,0.0,0.0,0.0,0.0,1.25,0.5,0.0,0.0,0.0,0.25,0.25,-0.11,-1.05,0.52,75.03,6.0,-36.5,0.0,0.0,0.0,0.25,0.25,0.0,0.25,0.0,0.0,0.5,0.0,0.0,0.5,0.58,-0.55,1.2,19.25,4.4,-35.8
4.08,0.25,0.0,0.5,0.25,2.5,1.0,1.75,1.0,0.5,1.0,1.25,1.75,1.25,0.08,-1.05,0.27,90.71,1.0,-22.3,0.0,0.0,0.0,0.5,0.25,0.0,0.25,0.0,0.0,0.5,0.0,0.0,0.5,0.27,-0.55,1.52,21.79,1.5,-23.2
4.1,0.75,0.0,1.0,0.0,1.25,1.25,2.5,0.25,0.5,1.0,1.25,1.75,1.5,0.08,-1.11,0.27,121.21,5.4,-23.2,0.0,0.0,0.0,0.5,0.25,0.0,0.25,0.25,0.0,0.5,0.0,0.0,0.25,-0.05,-0.61,1.14,25.0,1.8,-13.7
4.12,0.0,0.0,0.5,0.0,3.0,1.25,1.75,1.0,0.5,1.0,1.25,1.75,1.5,0.08,-1.11,0.27,154.89,-0.8,-23.4,0.0,0.0,0.0,0.5,0.25,0.0,0.25,0.0,0.0,0.5,0.0,0.0,0.5,-0.3,-0.48,0.58,27.28,1.5,-23.2
4.14,0.0,0.25,0.25,1.0,3.0,1.0,1.75,1.0,0.5,1.25,1.25,1.75,1.25,-0.11,-1.17,0.02,180.24,0.4,-16.9,0.0,0.0,0.0,0.5,0.25,0.0,0.25,0.0,0.0,0.5,0.0,0.0,0.5,-0.36,-0.42,0.39,28.41,1.5,-23.2
4.16,0.0,0.0,0.5,0.5,2.25,1.0,1.75,1.0,0.5,1.0,1.0,1.75,1.25,-0.23,-1.23,-0.05,192.97,0.6,-23.7,0.0,0.0,0.0,0.5,0.25,0.0,0.25,0.0,0.0,0.5,0.0,0.0,0.25,-0.23,-0.48,0.14,28.13,-0.3,-10.0
4.18,0.25,0.0,0.5,0.75,3.0,0.5,1.75,1.0,0.5,1.0,1.25,1.75,1.25,-0.3,-1.23,-0.05,195.71,2.3,-17.8,0.0,0.0,0.0,0.0,0.5,0.0,0.25,0.0,0.0,0.5,0.0,0.0,0.5,-0.05,-0.61,0.08,27.58,7.5,-35.0
4.2,0.0,0.0,0.5,0.0,2.5,1.25,1.75,1.0,0.5,1.0,1.25,1.75,1.5,-0.36,-1.17,0.08,196.24,-0.7,-27.0,0.0,0.0,0.0,0.5,0.5,0.0,0.25,0.0,0.0,0.5,0.0,0.0,0.25,0.02,-0.73,-0.11,28.68,0.2,-0.7
4.22,0.5,0.0,0.25,1.0,3.0,0.5,1.75,1.0,0.25,1.0,1.25,1.75,1.25,-0.36,-1.05,0.02,196.06,2.3,-15.3,0.0,0.0,0.0,0.5,0.25,0.0,0.5,0.0,0.0,0.5,0.0,0.0,0.5,0.08,-0.73,-0.05,30.78,-0.4,-20.2
4.24,0.0,0.0,0.25,0.75,3.0,0.75,1.75,1.0,0.25,1.0,1.25,1.75,1.25,-0.36,-0.86,-0.05,189.84,0.3,-20.2,0.0,0.0,0.0,0.5,0.25,0.0,0.5,0.0,0.0,0.5,0.0,0.0,0.5,0.02,-0.8,0.02,32.5,-0.4,-20.2
4.26,0.0,0.0,0.5,0.0,2.5,0.5,1.75,1.0,0.5,1.0,1.25,1.75,1.25,-0.3,-0.61,0.02,185.75,0.9,-28.9,0.0,0.25,0.25,0.5,0.25,0.0,0.25,0.0,0.0,0.25,0.0,0.0,0.25,0.02,-0.8,0.02,33.51,-8.9,22.0
4.28,0.5,0.0,0.5,1.0,3.0,1.0,1.5,1.0,0.25,1.0,1.25,1.75,1.25,-0.17,-0.42,0.02,193.75,1.8,-12.6,0.0,0.0,0.0,0.25,0.25,0.0,0.25,0.0,0.0,0.5,0.0,0.0,0.25,0.08,-0.73,-0.05,29.73,2.7,-22.4
4.3,0.0,0.0,0.5,0.25,2.5,1.0,1.5,1.0,0.25,1.0,1.25,1.75,1.0,-0.05,-0.23,-0.05,182.19,0.1,-23.0,0.0,0.0,0.0,0.5,0.25,0.0,0.5,0.0,0.0,0.5,0.0,0.0,0.5,0.08,-0.67,-0.11,29.62,-0.4,-20.2
4.32,0.5,0.0,0.5,1.0,2.5,0.5,1.25,1.0,0.25,0.5,1.25,1.75,1.5,0.02,-0.05,-0.17,174.59,3.1,-17.4,0.0,0.0,0.0,0.25,0.25,0.0,0.5,0.0,0.0,0.5,0.0,0.0,0.5,0.08,-0.48,-0.17,28.26,1.9,-31.6
4.34,0.0,0.0,0.25,0.75,3.0,0.0,1.5,1.0,0.5,1.0,1.0,1.75,1.25,0.08,0.08,-0.36,169.52,1.4,-23.2,0.0,0.0,0.5,0.5,0.25,0.0,0.25,0.0,0.0,0.5,0.0,0.0,0.25,0.02,-0.36,-0.3,31.17,-9.1,6.5
4.36,0.0,0.0,0.25,0.25,3.0,0.75,1.25,1.0,0.25,1.25,1.25,1.75,1.25,0.14,0.14,-0.48,168.24,-1.3,-25.7,0.0,0.0,0.5,0.5,0.25,0.0,0.5,0.0,0.0,0.5,0.0,0.0,0.25,-0.11,-0.17,-0.36,33.89,-10.3,7.6
4.38,0.5,0.0,0.5,0.75,3.0,1.0,1.5,1.0,0.25,0.75,1.25,1.25,1.0,0.14,0.14,-0.55,169.51,1.9,-6.9,0.0,0.0,0.0,0.5,0.25,0.0,0.25,0.0,0.0,0.5,0.0,0.0,0.5,-0.17,-0.11,-0.48,34.31,1.5,-23.2
4.4,0.25,0.0,0.25,1.0,2.5,0.5,1.25,1.0,0.25,1.0,1.0,1.75,1.25,0.14,0.2,-0.61,169.98,1.1,-20.6,0.0,0.0,0.0,0.0,0.25,0.0,0.5,0.0,0.0,0.75,0.0,0.0,0.5,-0.17,0.02,-0.67,33.04,6.7,-50.8
4.42,0.0,0.0,0.5,0.75,3.0,0.25,1.25,1.0,0.25,1.0,0.75,1.75,1.25,0.14,0.2,-0.86,168.05,1.0,-19.2,0.0,0.0,0.0,0.25,0.5,0.0,0.5,0.0,0.0,0.25,0.0,0.0,0.0,-0.17,0.08,-0.92,28.68,-4.8,25.4
4.44,0.25,0.0,0.25,1.0,2.5,0.5,1.25,1.0,0.25,1.0,1.25,1.75,1.0,0.14,0.27,-0.86,166.43,1.7,-19.8,0.0,0.0,0.0,0.5,0.25,0.0,0.25,0.0,0.0,0.5,0.0,0.0,0.5,-0.23,0.14,-1.17,27.78,1.5,-23.2
4.46,0.25,0.0,0.5,1.0,3.0,0.75,1.25,1.0,0.25,1.0,1.25,1.75,1.0,0.14,0.2,-0.92,170.7,1.7,-13.9,0.0,0.0,0.0,0.5,0.25,0.0,0.5,0.0,0.0,0.5,0.0,0.0,0.5,-0.3,0.2,-1.23,28.27,-0.4,-20.2
4.48,0.0,0.0,0.5,0.5,3.0,0.25,1.5,1.0,0.25,1.25,1.25,1.75,1.0,0.14,0.08,-0.98,171.04,1.3,-22.0,1.25,0.75,0.0,0.75,0.25,0.0,0.5,0.0,0.0,0.5,0.0,0.0,1.25,-0.42,0.2,-1.42,47.68,-9.0,15.7
4.5,0.25,0.0,0.5,1.25,2.5,0.5,1.25,1.0,0.25,1.0,1.25,1.75,1.25,0.14,0.02,-1.05,174.63,2.4,-18.4,0.0,0.0,0.25,0.5,0.25,0.0,0.5,0.0,0.0,0.5,0.0,0.0,0.5,-0.48,0.27,-1.42,49.25,-4.6,-11.2
4.52,0.25,0.5,0.5,0.5,3.0,0.5,1.5,1.0,0.25,1.0,1.25,1.75,0.75,0.14,-0.17,-1.11,175.43,2.6,-10.7,0.0,0.0,0.25,0.5,0.25,0.0,0.5,0.0,0.0,0.5,0.0,0.0,0.5,-0.55,0.27,-1.42,50.32,-4.6,-11.2
4.54,0.0,0.0,0.25,0.5,2.5,0.25,1.25,1.0,0.25,1.25,1.25,1.75,1.0,0.14,-0.3,-1.11,171.03,0.3,-28.4,0.0,0.0,0.25,0.25,0.25,0.0,0.25,0.0,0.0,0.5,0.0,0.0,0.5,-0.55,0.2,-1.36,41.56,-1.2,-23.0
4.56,0.0,0.0,0.25,0.5,2.5,0.25,1.5,1.0,0.25,1.0,1.25,1.75,1.25,0.08,-0.36,-1.17,164.66,0.7,-28.7,0.0,0.0,0.0,0.5,0.25,0.0,0.25,0.0,0.0,0.5,0.0,0.0,0.5,-0.55,0.14,-1.23,36.44,1.5,-23.2
4.58,0.75,0.0,0.5,1.0,3.0,0.75,1.5,1.0,0.0,1.25,1.25,1.75,1.25,0.08,-0.36,-1.17,172.15,2.3,-12.2,0.0,0.0,0.0,0.0,0.5,0.0,0.5,0.0,0.0,0.5,0.0,0.0,0.25,-0.55,0.08,-0.98,29.1,3.5,-18.0
4.6,0.0,0.0,0.25,0.75,3.5,0.5,1.25,1.0,0.25,1.0,0.5,1.5,1.25,0.08,-0.36,-1.11,171.87,-0.8,-13.2,0.0,0.0,0.0,0.5,0.25,0.0,0.25,0.0,0.0,0.5,0.0,0.0,0.5,-0.55,0.02,-0.86,28.62,1.5,-23.2
4.62,0.0,0.0,0.5,1.0,2.25,0.25,1.25,1.0,0.25,1.0,0.5,1.5,1.0,0.14,-0.36,-1.05,165.86,1.7,-17.6,0.0,0.0,0.0,0.5,0.25,0.0,0.25,0.0,0.0,0.75,0.0,0.0,0.5,-0.55,-0.05,-0.8,30.09,3.1,-29.1
4.64,0.5,0.0,0.25,1.25,3.0,0.0,1.5,1.0,0.25,1.0,1.0,1.75,1.0,0.14,-0.3,-0.98,167.08,3.5,-12.9,0.0,0.0,1.75,0.5,3.0,0.0,0.75,1.0,0.0,0.25,0.5,0.0,1.25,-0.55,-0.11,-0.67,70.21,-4.9,10.9
4.66,1.0,0.25,0.5,0.75,1.75,0.5,1.5,1.0,0.25,1.25,1.25,1.75,1.25,0.08,-0.3,-0.92,168.81,4.2,-18.3,0.0,0.0,0.0,0.5,0.25,0.0,0.5,0.0,0.0,0.5,0.0,0.0,0.5,-0.48,-0.17,-0.61,67.75,-0.4,-20.2
4.68,0.25,0.0,0.5,0.75,2.5,0.25,1.25,1.0,0.25,1.0,1.0,1.75,1.0,0.14,-0.23,-0.92,166.32,2.5,-19.7,0.0,0.0,0.0,0.5,0.25,0.0,0.5,0.0,0.0,0.5,0.0,0.0,0.5,-0.48,-0.3,-0.48,64.24,-0.4,-20.2
4.7,0.25,0.25,0.25,0.25,2.5,0.5,1.25,1.0,0.25,1.0,1.25,1.75,1.25,0.14,-0.23,-0.86,164.56,0.5,-24.5,1.0,0.75,1.75,0.75,3.0,1.0,0.75,0.75,0.25,1.75,0.5,1.0,1.25,-0.42,-0.42,-0.42,112.99,-4.3,6.3
4.72,0.5,0.0,0.5,1.25,2.5,0.0,1.5,1.0,0.25,0.5,1.0,1.75,1.0,0.14,-0.23,-0.8,164.31,5.4,-11.9,1.0,0.75,1.75,0.5,3.0,0.0,0.75,1.25,0.0,0.5,0.25,0.0,1.25,-0.36,-0.55,-0.3,146.85,-6.8,23.1
4.74,0.5,0.0,0.5,2.0,2.5,0.25,1.25,1.0,0.25,0.5,1.25,1.25,1.0,0.14,-0.23,-0.8,166.48,5.3,-4.0,0.0,0.0,0.0,0.5,0.25,0.0,0.75,0.0,0.0,0.0,0.0,0.0,0.5,-0.36,-0.61,-0.17,132.87,-7.4,-0.5
4.76,0.25,0.0,0.5,1.0,3.0,1.0,1.25,1.0,0.25,1.0,1.25,1.5,0.5,0.14,-0.23,-0.67,170.79,1.7,-7.0,0.0,0.0,0.0,0.5,0.5,0.0,0.25,0.0,0.0,0.75,0.0,0.0,0.5,-0.3,-0.73,-0.17,105.0,3.1,-19.5
4.78,0.0,0.0,0.5,0.0,2.25,0.0,1.5,1.0,0.25,1.25,1.25,1.5,1.0,0.2,-0.23,-0.61,165.1,1.3,-31.8,0.0,0.0,0.0,0.5,0.5,0.0,0.25,0.0,0.0,0.5,0.0,0.0,0.5,-0.17,-0.73,-0.17,71.09,1.7,-13.2
4.8,0.5,0.25,0.25,0.5,3.5,0.25,1.25,1.0,0.25,1.0,0.75,1.5,1.0,0.08,-0.3,-0.48,165.64,1.3,-8.1,0.0,0.0,0.0,0.0,0.25,0.0,0.25,0.0,0.0,0.5,0.0,0.0,0.5,-0.05,-0.8,-0.17,40.77,8.4,-53.0
4.82,0.0,0.0,0.5,0.25,2.5,0.75,1.25,1.0,0.25,1.0,1.25,1.5,1.0,-0.11,-0.36,-0.42,159.44,0.0,-22.8,1.25,0.75,0.0,0.5,0.5,1.0,0.5,0.0,0.25,1.75,0.0,1.0,0.75,-0.05,-0.86,-0.17,60.03,-2.2,-5.6
4.84,0.25,0.0,0.25,1.0,3.0,0.25,1.25,1.0,0.25,1.0,1.0,1.5,1.25,-0.17,-0.48,-0.3,163.93,1.2,-16.2,1.25,0.75,1.75,0.5,2.5,1.0,0.75,0.5,0.25,2.0,0.25,1.0,1.5,0.02,-0.86,-0.05,118.15,-4.4,3.6
4.86,0.5,0.0,0.25,1.0,3.0,0.5,1.25,1.0,0.25,1.0,1.0,1.5,0.5,-0.17,-0.55,-0.17,164.71,2.4,-6.6,1.25,0.75,1.75,0.5,3.0,1.25,0.75,0.5,0.25,2.0,0.25,1.0,1.25,0.02,-0.86,0.02,168.62,-4.0,8.1
4.88,0.5,0.0,0.25,1.0,2.25,0.25,1.25,1.0,0.25,1.0,1.25,1.75,0.75,-0.3,-0.61,-0.17,163.99,3.4,-18.3,1.0,0.75,1.75,0.75,3.0,1.0,0.75,0.25,0.25,1.75,0.25,0.75,1.5,0.08,-0.86,0.02,198.62,-4.5,9.3
4.9,0.0,0.25,0.25,0.0,2.5,0.25,1.25,1.0,0.25,1.0,1.0,1.75,1.0,-0.36,-0.67,-0.17,157.27,0.0,-27.4,1.25,0.75,1.75,1.25,3.0,0.75,0.5,0.5,0.25,2.5,0.25,1.0,1.75,0.14,-0.86,0.02,225.61,-4.0,3.1
4.92,0.25,0.0,0.25,1.0,3.0,0.0,1.25,1.0,0.25,1.75,1.0,1.5,0.75,-0.3,-0.73,-0.05,159.63,1.3,-16.9,0.75,0.0,1.75,0.5,2.75,0.0,0.75,0.25,0.0,0.5,0.25,0.0,1.25,0.14,-0.92,0.27,205.99,-8.6,20.5
4.94,0.5,0.0,0.25,1.0,2.5,0.25,1.25,1.0,0.0,1.25,1.0,1.5,0.5,-0.23,-0.8,-0.05,156.96,2.6,-11.6,0.0,0.0,0.0,0.25,0.25,0.0,0.5,0.0,0.0,0.5,0.0,0.0,0.5,0.2,-0.92,0.33,147.88,1.9,-31.6
4.96,0.5,0.0,0.5,1.25,2.25,0.25,1.25,1.0,0.25,0.75,1.25,1.5,1.0,-0.3,-0.86,-0.11,159.74,4.4,-13.6,0.25,0.0,0.25,0.75,0.5,1.25,0.5,0.0,0.25,1.75,0.0,0.75,0.75,0.2,-0.98,0.33,122.51,2.6,-21.6
4.98,0.0,0.0,0.25,0.5,3.0,0.25,1.25,1.0,0.0,1.0,1.0,1.5,1.0,-0.3,-0.92,0.02,156.69,-0.1,-19.6,1.25,0.75,1.75,0.75,3.0,1.0,0.75,0.25,0.25,2.0,0.25,1.0,1.25,0.2,-1.05,0.2,146.36,-5.0,9.4
5.0,0.5,0.0,0.5,1.0,2.25,0.0,1.25,1.0,0.0,1.0,0.75,1.75,0.5,-0.3,-0.98,0.14,154.54,4.7,-12.0,1.25,0.75,1.75,0.5,3.0,1.0,0.75,0.5,0.25,2.0,0.25,1.0,1.25,0.08,-1.11,0.2,174.04,-4.4,7.6
5.02,0.75,0.0,0.5,0.5,3.0,0.75,1.25,1.0,0.25,0.5,0.75,1.5,0.5,-0.3,-1.11,0.27,155.51,3.3,-0.4,1.25,0.75,1.75,0.5,2.75,1.0,0.75,0.25,0.25,2.0,0.25,1.0,1.5,-0.05,-1.11,0.2,199.67,-4.6,5.4
5.04,0.5,0.0,0.5,1.25,2.5,0.25,1.25,1.0,0.25,1.0,0.75,1.75,0.5,-0.36,-1.17,0.2,156.96,4.4,-8.3,1.25,0.75,1.75,0.5,2.75,1.0,0.75,0.25,0.25,1.75,0.25,0.75,1.5,-0.05,-1.17,0.2,208.93,-4.9,9.0
5.06,0.5,0.0,0.25,0.75,3.0,0.5,1.25,1.0,0.0,1.0,1.25,1.25,1.0,-0.42,-1.11,0.27,161.83,1.2,-11.2,1.0,0.75,1.75,1.0,3.0,1.0,0.5,0.0,0.0,2.75,0.25,1.0,1.75,-0.05,-1.11,0.14,209.87,-3.1,1.9
5.08,0.5,0.0,0.5,1.0,3.5,0.25,1.25,1.0,0.0,0.5,0.75,1.5,0.75,-0.42,-1.05,0.33,164.88,3.5,0.0,1.0,0.75,1.75,0.75,2.75,1.0,0.75,0.25,0.25,1.75,0.5,1.0,1.25,-0.11,-1.11,0.27,204.59,-5.2,7.0
5.1,0.25,0.0,0.5,1.0,3.0,0.25,1.25,1.0,0.25,1.0,0.75,1.25,1.0,-0.42,-1.11,0.33,166.87,2.0,-9.0,1.25,0.75,1.75,0.75,3.0,1.0,0.75,0.0,0.25,2.0,0.25,1.0,1.25,-0.05,-1.05,0.2,208.83,-5.4,10.2
5.12,0.0,0.0,0.25,0.5,3.0,0.5,1.25,1.0,0.25,0.0,0.75,1.75,0.5,-0.48,-1.17,0.33,159.06,1.9,-9.0,1.0,0.75,1.75,0.5,3.0,1.0,0.75,0.25,0.0,1.75,0.5,0.75,1.5,0.02,-1.11,0.08,210.11,-4.2,7.8
5.14,0.75,0.0,0.5,1.0,2.5,0.5,1.25,1.0,0.25,1.25,0.75,1.5,0.75,-0.48,-1.36,0.33,161.08,3.2,-8.3,1.0,0.75,1.75,0.75,3.0,1.0,0.75,0.0,0.0,2.0,0.25,1.0,1.5,0.02,-1.05,0.08,212.22,-4.5,7.4
5.16,0.5,0.0,0.25,1.25,3.0,0.25,1.25,1.0,0.25,1.5,1.0,1.75,0.5,-0.48,-1.61,0.39,164.74,2.6,-10.9,1.0,0.75,1.75,0.75,3.0,1.0,0.75,0.0,0.0,1.75,0.25,0.75,1.5,-0.05,-0.98,0.14,213.23,-4.8,11.1
5.18,0.5,0.0,0.25,1.0,2.5,0.25,1.25,1.0,0.0,1.0,1.0,1.25,0.75,-0.48,-1.67,0.45,164.25,2.5,-10.2,1.25,0.75,1.75,0.5,3.0,1.0,0.75,0.0,0.25,1.75,0.25,1.0,1.25,-0.05,-0.98,0.14,211.43,-5.6,10.9
5.2,0.5,0.0,0.5,0.75,3.5,0.25,1.25,0.75,0.25,1.0,1.25,1.75,0.75,-0.42,-1.61,0.33,169.63,3.4,-9.5,1.0,0.75,1.75,0.75,3.0,1.0,0.75,0.0,0.0,2.0,0.25,1.0,1.5,0.02,-0.98,0.08,203.45,-4.5,7.4
5.22,0.75,0.0,0.25,1.25,3.0,0.0,1.25,1.0,0.25,0.5,0.75,1.25,0.5,-0.42,-1.55,0.33,166.87,5.2,2.6,1.25,0.75,1.75,1.0,3.0,1.0,0.5,0.0,0.0,2.0,0.25,1.0,1.25,0.02,-1.05,0.33,199.61,-5.3,11.8
5.24,0.5,0.0,0.25,1.0,3.0,0.5,1.25,1.0,0.25,0.75,1.0,1.25,0.75,-0.42,-1.48,0.27,166.64,2.3,-5.2,1.25,0.75,1.5,0.75,3.0,1.0,0.75,0.0,0.0,1.75,0.25,1.0,1.5,-0.05,-1.11,0.39,199.58,-4.7,9.5
5.26,0.5,0.0,0.25,0.0,3.0,0.0,1.25,1.0,0.0,1.0,0.75,1.5,0.5,-0.36,-1.36,0.27,155.24,1.6,-13.2,1.25,0.75,1.75,1.0,2.75,1.0,0.75,0.0,0.0,1.75,0.25,0.75,1.25,0.02,-1.05,0.33,198.66,-6.1,15.0
5.28,0.25,0.0,0.5,0.25,2.5,0.5,1.25,0.75,0.25,0.5,0.5,1.5,0.75,-0.3,-1.17,0.2,147.12,2.3,-11.3,1.0,0.75,1.75,0.5,3.0,1.0,0.75,0.0,0.0,2.0,0.25,1.0,1.25,0.08,-1.05,0.33,196.52,-4.6,8.7
5.3,0.25,0.0,0.25,1.25,3.0,0.5,1.25,1.0,0.25,1.25,1.0,1.5,0.5,-0.42,-1.17,0.2,150.21,1.7,-8.7,1.25,0.75,1.75,0.5,3.0,1.0,0.75,0.0,0.0,1.5,0.25,0.75,1.25,0.08,-0.98,0.33,192.89,-5.8,15.9
5.32,0.5,0.0,0.25,1.0,3.0,0.25,1.25,1.0,0.25,1.25,1.0,1.5,0.5,-0.36,-1.11,0.27,156.03,2.5,-8.9,1.0,0.75,1.75,0.5,3.25,0.75,0.75,0.0,0.0,2.0,0.25,1.0,1.25,0.02,-0.98,0.33,193.05,-4.9,9.2
5.34,0.25,0.0,0.25,1.0,3.0,0.25,1.25,0.75,0.25,1.0,1.25,1.25,0.5,-0.36,-1.05,0.33,159.98,2.8,-8.2,1.0,0.75,1.75,0.75,3.0,1.0,0.75,0.0,0.25,2.0,0.25,0.75,1.25,0.08,-0.98,0.33,194.22,-4.9,10.9
5.36,0.25,0.0,0.5,0.75,3.0,0.25,1.25,0.75,0.25,0.5,1.0,1.5,0.5,-0.3,-1.05,0.27,158.56,4.1,-5.7,1.25,0.75,1.75,0.5,3.0,1.0,0.75,0.0,0.0,1.75,0.25,1.0,1.25,0.2,-0.98,0.33,195.25,-5.5,11.8
5.38,0.5,0.0,0.25,1.0,3.0,0.25,1.25,0.75,0.25,1.5,1.0,0.75,0.5,-0.36,-1.05,0.2,156.89,2.1,-2.8,1.0,0.75,1.75,0.5,3.0,1.0,0.75,0.0,0.0,1.75,0.25,1.0,1.5,0.2,-1.05,0.33,195.14,-4.6,7.9
5.4,0.25,0.0,0.25,1.0,3.0,0.25,1.25,1.0,0.25,1.25,1.25,1.25,0.5,-0.36,-1.11,0.14,157.66,1.9,-10.3,1.25,0.75,1.75,1.0,3.0,1.0,0.75,0.0,0.0,1.75,0.25,1.0,1.5,0.2,-1.11,0.39,198.58,-5.6,11.3
5.42,0.25,0.0,0.25,1.25,2.25,0.25,1.25,1.0,0.25,0.75,0.5,1.25,0.5,-0.3,-1.17,0.2,152.97,3.1,-5.9,1.0,0.75,1.75,0.5,3.0,1.0,0.75,0.0,0.0,2.0,0.25,0.75,1.25,0.2,-0.98,0.52,196.8,-4.5,10.9
5.44,0.0,0.0,0.25,1.0,3.0,0.5,1.25,1.0,0.0,1.25,0.75,1.75,0.5,-0.36,-1.17,0.33,154.42,0.4,-12.7,1.0,0.75,1.75,0.75,3.0,1.25,0.75,0.0,0.0,2.0,0.25,0.75,1.25,0.2,-0.92,0.52,197.74,-4.2,12.2
5.46,0.5,0.0,0.25,1.0,3.0,0.75,1.25,0.75,0.0,0.75,0.75,1.25,0.75,-0.36,-1.11,0.33,156.02,1.8,-1.2,1.0,0.75,1.75,0.75,3.0,1.0,0.75,0.0,0.0,2.0,0.25,1.0,1.25,0.2,-0.86,0.39,197.67,-4.8,9.6
5.48,0.5,0.0,0.25,1.0,3.5,0.5,1.25,1.0,0.0,1.0,1.0,1.5,0.75,-0.36,-0.98,0.33,164.18,1.6,-5.3,1.25,0.75,1.75,0.75,3.0,1.0,0.75,0.0,0.0,2.0,0.25,1.0,1.25,0.2,-0.73,0.39,200.03,-5.3,11.1
5.5,0.5,0.0,0.25,0.0,3.5,0.25,1.25,1.0,0.0,1.25,1.25,1.5,0.5,-0.3,-0.61,0.33,165.56,0.8,-12.8,1.25,0.75,1.75,0.5,3.0,0.75,0.75,0.0,0.0,2.0,0.25,0.75,1.5,0.14,-0.67,0.45,198.83,-5.1,9.7
5.52,0.25,0.0,0.25,1.0,3.0,0.25,1.25,1.0,0.25,0.75,0.5,1.25,0.75,-0.23,-0.48,0.27,163.09,1.8,-5.1,1.25,0.75,1.75,0.5,3.0,1.25,0.75,0.0,0.0,2.0,0.25,1.0,1.25,0.14,-0.67,0.45,200.32,-4.6,10.6
5.54,0.25,0.0,0.25,1.0,3.0,0.25,1.25,1.0,0.0,1.0,1.25,1.25,0.5,-0.36,-0.48,0.27,158.72,2.1,-8.2,1.25,0.75,1.75,1.0,3.0,0.75,0.75,0.0,0.0,1.75,0.25,1.0,1.25,0.2,-0.67,0.45,200.17,-6.4,13.2
5.56,0.25,0.0,0.25,1.25,3.5,0.5,1.25,0.75,0.25,1.25,1.0,1.5,0.75,-0.42,-0.42,0.27,165.01,1.5,-7.3,1.25,0.75,1.75,0.75,3.0,0.75,0.75,0.0,0.0,2.0,0.25,1.0,1.25,0.2,-0.67,0.52,199.85,-5.8,10.7
5.58,0.25,0.0,0.5,1.0,3.0,0.25,1.25,0.75,0.25,1.0,1.0,1.0,0.5,-0.36,-0.42,0.27,164.06,3.3,-2.6,1.25,0.75,1.75,0.5,3.0,1.0,0.75,0.0,0.0,1.75,0.25,1.0,1.25,0.2,-0.67,0.45,198.31,-5.5,11.8
5.6,0.25,0.0,0.25,1.0,2.25,0.25,1.25,0.75,0.25,0.5,1.0,1.5,0.5,-0.48,-0.61,0.2,157.46,4.3,-11.2,1.25,0.75,1.75,0.5,3.5,1.0,0.75,0.0,0.0,1.75,0.25,0.75,1.25,0.2,-0.67,0.45,199.13,-5.0,15.8
5.62,0.25,0.0,0.25,1.0,2.5,0.5,1.25,0.75,0.0,0.75,1.0,1.75,0.5,-0.61,-0.8,0.14,151.9,2.8,-11.7,1.0,0.75,1.5,0.75,3.0,1.0,0.75,0.0,0.0,1.75,0.25,1.0,1.25,0.27,-0.8,0.45,196.46,-4.5,10.2
5.64,0.75,0.0,0.25,1.0,2.5,0.25,1.25,1.0,0.25,1.0,0.75,1.0,0.75,-0.73,-0.92,0.14,149.75,3.1,-4.6,1.25,0.75,1.75,0.5,3.0,1.0,0.75,0.0,0.0,1.75,0.25,0.75,0.75,0.39,-0.92,0.52,192.83,-6.2,19.2
5.66,0.25,0.0,0.25,1.0,3.0,0.5,1.25,0.75,0.25,1.0,1.0,1.25,0.5,-0.98,-0.98,0.14,151.84,2.0,-5.8,0.0,0.0,1.75,0.5,3.0,0.0,0.75,0.0,0.0,0.25,0.25,0.0,1.25,0.45,-0.92,0.58,168.45,-7.4,19.8
5.68,0.5,0.0,0.5,1.0,3.0,0.25,1.5,1.0,0.0,0.75,0.5,1.5,0.75,-1.17,-0.98,0.08,154.7,3.6,-2.6,0.0,0.0,1.75,0.5,3.0,0.0,0.75,0.0,0.0,0.25,0.25,0.0,1.25,0.52,-0.86,0.58,145.0,-7.4,19.8
