time,left pressure 0[N/cm虏],left pressure 1[N/cm虏],left pressure 2[N/cm虏],left pressure 3[N/cm虏],left pressure 4[N/cm虏],left pressure 5[N/cm虏],left pressure 6[N/cm虏],left pressure 7[N/cm虏],left pressure 8[N/cm虏],left pressure 9[N/cm虏],left pressure 10[N/cm虏],left pressure 11[N/cm虏],left pressure 12[N/cm虏],left acceleration X[g],left acceleration Y[g],left acceleration Z[g],left total force[N],left center of pressure X[mm],left center of pressure Y[mm],right pressure 0[N/cm虏],right pressure 1[N/cm虏],right pressure 2[N/cm虏],right pressure 3[N/cm虏],right pressure 4[N/cm虏],right pressure 5[N/cm虏],right pressure 6[N/cm虏],right pressure 7[N/cm虏],right pressure 8[N/cm虏],right pressure 9[N/cm虏],right pressure 10[N/cm虏],right pressure 11[N/cm虏],right pressure 12[N/cm虏],right acceleration X[g],right acceleration Y[g],right acceleration Z[g],right total force[N],right center of pressure X[mm],right center of pressure Y[mm]
0.02,1.25,0.75,4.0,4.25,5.75,5.25,4.5,4.25,3.75,2.75,3.25,1.5,1.75,-0.05,0.02,0.95,688.35,4.1,4.0,2.0,1.75,3.5,3.25,4.25,3.0,2.25,5.0,2.75,6.5,7.5,5.75,6.5,0.08,0.08,0.95,817.57,-2.3,-28.7
0.04,2.75,1.0,4.0,6.0,0.75,5.25,4.25,4.5,4.5,2.5,3.0,2.5,1.0,-0.05,-0.05,0.95,720.41,7.4,2.5,1.75,1.0,2.25,3.25,2.5,2.75,2.75,4.5,2.5,6.5,6.0,5.75,6.0,0.08,0.08,0.95,722.61,-1.5,-35.0
0.06,2.5,1.0,3.75,4.5,2.25,6.0,4.75,5.25,5.0,4.75,4.25,5.0,2.75,-0.05,-0.05,0.95,762.04,4.1,-13.9,0.5,0.0,2.5,1.0,4.25,0.75,2.5,4.0,1.75,4.0,3.75,4.0,5.0,0.02,0.08,0.95,570.24,-1.0,-36.4
0.08,2.75,1.25,4.25,6.0,5.5,6.0,4.75,6.0,5.5,5.5,6.5,6.0,4.75,-0.05,-0.05,0.95,884.56,3.7,-14.6,0.5,0.25,1.75,1.0,0.25,0.5,1.5,3.75,1.25,3.5,3.75,3.0,3.5,0.02,0.08,1.08,408.45,-1.3,-48.9
0.1,3.0,1.0,3.75,6.0,5.5,6.0,4.75,6.25,5.25,5.75,6.5,6.0,5.25,-0.05,-0.05,0.95,1000.13,3.2,-16.2,0.5,0.25,0.75,1.0,2.25,0.25,1.5,3.75,1.25,2.0,2.75,2.0,1.5,-0.11,0.27,1.27,284.91,-1.1,-30.4
0.12,3.0,1.0,3.75,6.0,5.75,6.0,5.0,6.25,5.25,5.25,6.5,5.75,5.0,-0.05,-0.05,0.95,1083.31,3.4,-14.6,0.5,0.25,1.25,1.0,1.75,0.25,1.5,3.0,1.25,0.75,1.75,1.25,1.25,-0.17,0.58,1.64,195.63,-4.1,-18.3
0.14,3.0,1.0,3.75,6.0,5.75,6.0,5.0,6.0,5.25,4.75,6.5,5.75,4.75,-0.05,-0.05,0.95,1103.98,3.7,-13.6,0.25,0.25,1.0,1.0,1.75,0.25,1.5,3.0,1.25,0.75,1.5,0.75,0.75,-0.23,1.95,0.45,125.42,-3.3,-13.9
0.16,2.75,1.0,4.25,6.0,5.75,5.75,5.0,6.0,5.25,5.0,6.5,5.5,4.75,-0.05,-0.05,0.95,1088.37,3.9,-13.5,0.0,0.0,1.0,1.5,2.75,0.25,2.0,2.75,1.25,2.5,1.5,1.0,0.5,-0.61,2.27,0.45,100.74,-1.7,-15.8
0.18,2.75,1.0,4.0,6.0,5.75,5.75,5.0,5.75,5.25,5.0,6.25,5.5,4.75,-0.05,-0.05,0.95,1050.39,3.8,-13.4,1.0,0.75,2.5,1.0,3.75,0.75,1.75,3.75,1.5,2.25,2.75,1.0,1.25,-0.98,2.14,1.14,136.33,-4.0,-6.7
0.2,2.75,1.0,3.75,5.75,5.75,5.5,4.75,6.0,5.0,5.25,6.5,5.5,4.75,-0.05,-0.05,0.95,1012.79,3.5,-14.8,0.75,0.75,3.0,1.5,4.5,2.5,1.75,3.75,1.25,2.0,2.75,1.0,1.5,-0.11,2.14,0.7,194.8,-2.7,-0.6
0.22,2.5,1.0,3.0,5.75,5.5,5.5,4.5,5.75,5.0,5.75,6.5,5.75,5.0,-0.05,-0.05,0.95,985.61,2.8,-17.9,0.5,0.75,2.75,1.25,3.0,2.75,1.5,3.75,1.25,2.0,2.5,1.0,1.25,0.2,2.08,0.77,235.97,-1.9,-4.7
0.24,2.5,1.0,2.75,5.75,5.75,5.5,4.25,6.0,5.25,6.25,6.5,6.0,5.5,-0.05,-0.05,0.95,970.43,2.2,-19.7,0.75,0.75,2.5,1.25,3.25,2.25,1.75,3.75,1.25,2.0,2.75,0.5,1.25,0.02,1.52,1.33,262.99,-2.4,-2.8
0.26,2.5,1.0,2.75,5.5,5.25,5.75,4.25,6.0,5.25,6.25,7.0,6.0,5.75,-0.05,-0.05,0.95,962.76,2.1,-21.4,0.5,0.25,1.0,1.25,1.75,0.75,1.5,2.5,1.25,1.0,1.5,0.25,0.25,0.2,0.95,1.52,240.43,-4.0,-1.7
0.28,2.25,1.0,2.5,5.5,5.5,5.75,4.25,6.0,5.25,6.25,7.25,6.0,5.75,-0.05,-0.05,0.95,950.29,1.8,-22.0,0.75,0.75,2.5,1.25,3.5,2.25,1.5,3.75,1.25,2.0,2.0,1.0,1.25,0.2,0.64,1.27,257.51,-2.1,-2.3
0.3,2.25,1.0,2.75,5.25,5.25,5.75,4.25,6.25,5.25,7.0,7.25,6.5,6.25,-0.05,-0.05,0.95,939.54,1.6,-24.5,0.75,0.75,2.0,1.25,4.25,2.0,1.75,3.75,1.25,2.0,2.0,1.0,1.25,0.08,0.39,1.14,274.87,-1.5,-1.8
0.32,2.25,1.0,2.25,5.25,5.25,5.75,4.0,6.25,5.0,7.5,7.5,6.75,6.5,-0.05,-0.05,0.95,936.35,1.1,-26.5,0.5,1.0,2.25,1.25,3.75,2.0,1.75,3.75,1.25,1.75,2.0,1.0,1.25,0.02,0.27,1.02,298.64,-2.0,-1.6
0.34,2.25,1.0,1.75,5.0,5.75,5.75,3.75,6.5,5.0,7.5,7.75,6.75,6.5,-0.05,-0.05,0.95,947.97,0.6,-27.1,0.5,0.75,2.5,1.25,3.0,2.25,1.5,3.75,1.25,2.0,2.0,1.0,1.25,-0.11,0.2,0.89,308.65,-1.9,-4.7
0.36,1.5,0.75,2.25,4.75,5.75,5.75,3.25,6.5,4.75,8.25,7.75,6.75,7.0,-0.05,-0.05,0.95,959.99,0.0,-30.0,0.75,1.0,2.5,1.25,4.25,1.75,1.5,3.5,1.25,2.0,2.0,0.0,1.25,-0.17,0.08,0.83,315.93,-2.4,5.2
0.38,1.75,1.0,0.25,4.5,4.75,6.0,3.75,6.75,4.75,8.75,7.75,7.0,7.5,-0.05,-0.05,0.95,968.47,-1.3,-34.8,0.75,0.0,2.25,1.0,2.5,0.5,1.5,3.25,1.25,0.5,2.0,0.75,1.25,-0.23,-0.17,0.95,286.33,-5.6,-6.9
0.4,2.0,1.0,0.75,4.5,5.25,6.0,3.0,7.0,4.25,8.75,7.75,7.25,8.0,-0.05,-0.05,0.95,982.39,-1.3,-34.0,0.5,0.0,0.75,1.0,1.5,0.25,1.5,2.5,1.25,2.0,1.5,1.0,0.25,-0.17,-0.3,1.08,244.35,-2.8,-20.0
0.42,1.5,1.0,0.75,4.5,5.75,6.0,3.0,7.25,4.0,8.75,7.75,6.75,8.0,-0.05,0.02,0.95,990.58,-1.8,-33.6,0.0,0.25,1.0,1.0,2.25,0.25,1.5,3.0,1.0,0.5,1.75,0.0,1.25,-0.05,-0.42,1.02,205.44,-1.8,-10.8
0.44,1.0,0.0,0.5,4.0,5.0,5.75,3.0,7.25,3.25,7.5,7.75,6.0,7.25,-0.05,0.02,0.95,951.27,-2.4,-36.9,0.0,0.25,1.75,1.0,2.25,0.0,1.0,2.5,1.0,0.25,1.5,0.0,0.25,0.14,-0.48,0.7,174.83,-6.4,4.8
0.46,0.75,0.0,0.0,3.75,4.25,6.0,2.75,7.25,2.5,7.5,6.5,5.75,7.0,-0.05,0.02,0.95,882.21,-3.7,-38.6,0.25,0.0,0.5,1.0,1.75,0.0,1.0,2.5,1.0,0.5,1.5,0.0,0.25,0.14,-0.67,0.64,150.88,-2.9,-7.4
0.48,0.25,0.0,0.0,2.5,2.5,6.0,1.75,6.75,2.25,7.5,5.75,5.0,6.25,-0.05,0.02,0.95,774.02,-5.4,-44.6,0.0,0.0,0.5,1.0,0.0,0.25,1.0,2.5,1.0,0.25,1.5,0.0,0.0,0.45,-0.98,0.83,121.99,-3.9,-20.1
0.5,1.75,0.0,0.0,1.5,2.25,6.0,2.0,7.0,1.5,6.75,5.5,3.5,6.75,-0.11,0.02,0.95,675.27,-5.4,-40.9,0.0,0.0,1.0,0.75,1.5,0.25,1.25,2.0,1.0,0.25,1.25,0.0,0.25,0.58,-1.3,0.77,109.85,-4.9,-3.1
0.52,0.25,0.0,0.0,1.25,1.75,5.5,0.0,6.25,1.5,6.25,3.5,2.5,5.5,-0.11,0.08,0.95,550.47,-8.7,-44.8,0.0,0.25,1.0,1.0,1.5,0.25,1.25,2.5,1.0,1.5,0.75,0.0,0.25,0.7,-1.48,0.7,101.54,-1.8,-5.9
0.54,0.0,0.0,0.0,0.25,1.25,4.25,0.0,6.0,1.25,4.75,2.5,2.0,4.75,0.02,0.14,1.08,427.0,-10.2,-49.9,3.0,1.25,2.25,3.25,3.75,1.75,1.75,1.25,1.0,1.5,1.5,0.5,1.0,1.02,-1.61,1.58,176.15,-8.9,24.6
0.56,0.0,0.0,0.0,0.0,0.0,3.0,0.0,5.5,1.25,4.25,1.5,1.0,3.25,-0.05,0.2,1.39,313.1,-11.7,-54.6,3.75,0.75,4.25,3.5,4.25,1.75,1.5,1.25,1.25,1.5,1.5,0.5,1.25,1.14,1.83,5.08,255.1,-11.3,26.9
0.58,0.5,0.25,0.0,0.0,0.0,2.25,0.0,5.0,1.25,3.0,1.0,0.0,2.0,-0.23,0.27,1.52,226.46,-10.7,-41.2,5.0,1.75,6.5,5.75,5.5,1.25,2.5,2.5,1.25,1.75,1.25,0.5,1.25,0.58,0.33,1.14,370.31,-13.2,34.1
0.6,0.0,0.0,0.0,0.0,0.0,1.75,0.0,4.5,1.25,2.25,1.0,0.5,1.0,-0.8,0.89,1.14,144.56,-10.9,-47.5,4.5,0.25,7.75,6.0,5.5,3.0,3.5,2.5,1.25,0.75,0.0,0.0,0.0,0.14,0.27,1.39,467.76,-14.4,46.0
0.62,0.0,0.0,0.0,0.0,0.0,1.0,0.5,2.25,0.75,2.0,0.75,0.5,0.75,0.14,3.02,0.64,69.97,-8.8,-51.7,4.75,1.0,7.75,5.75,6.25,2.75,5.75,2.5,0.0,0.5,0.0,0.25,0.0,0.02,0.08,1.52,557.11,-15.1,49.8
0.64,0.0,0.0,0.0,0.0,0.0,0.5,0.0,2.25,1.0,1.75,0.75,0.5,0.75,2.02,2.27,1.33,20.42,-8.3,-58.4,4.5,1.25,8.0,6.0,6.25,3.25,6.5,3.0,3.25,1.5,2.5,1.0,1.0,0.14,0.02,1.2,654.66,-12.7,26.8
0.66,0.0,0.0,0.0,0.0,0.0,0.75,0.25,2.25,0.75,1.75,0.75,0.75,0.75,0.7,2.39,1.33,0.0,-8.2,-56.6,5.5,2.5,7.5,7.5,7.25,5.0,6.75,4.0,3.75,3.5,2.75,1.75,2.25,0.14,0.02,1.02,813.34,-9.5,20.3
0.68,0.0,0.0,0.0,0.0,0.0,0.75,0.25,2.0,0.75,1.25,0.5,0.5,0.5,-0.3,2.27,1.02,0.0,-8.5,-50.8,5.5,2.5,7.5,7.5,8.0,5.75,6.75,5.0,4.5,3.75,4.5,2.25,2.25,0.08,0.08,0.95,994.71,-8.5,15.4
0.7,0.0,0.0,0.0,0.0,0.0,0.5,0.25,2.25,0.75,1.25,0.5,0.5,0.75,-0.3,1.83,0.89,0.0,-8.5,-55.7,5.25,2.5,7.75,7.5,8.0,5.75,6.75,5.25,4.25,5.0,4.75,2.5,2.75,0.14,0.08,0.95,1155.92,-7.8,11.7
0.72,0.0,0.0,0.0,0.0,0.0,0.5,0.25,1.75,0.75,1.0,0.5,0.5,0.5,-0.23,1.58,0.95,7.12,-7.2,-53.8,5.0,2.5,7.25,6.75,7.75,5.25,6.5,5.25,4.0,5.0,5.75,3.0,3.25,0.08,0.08,0.95,1243.7,-7.4,7.1
0.74,0.0,0.0,0.0,0.0,0.0,0.5,0.25,2.25,0.75,1.0,0.25,0.5,0.0,-0.3,1.14,0.95,16.86,-8.3,-46.0,4.5,2.0,6.75,6.0,7.0,5.25,6.25,5.25,4.25,5.25,5.75,4.0,4.0,0.08,0.08,0.95,1249.09,-6.6,0.2
0.76,1.0,0.5,0.25,0.25,2.25,1.75,0.75,2.5,0.75,1.75,2.0,1.0,0.75,-0.36,0.77,0.95,81.77,-1.4,-14.3,4.0,2.0,6.75,5.75,6.75,5.0,5.75,5.25,4.25,5.0,5.75,4.0,4.0,0.08,0.08,0.95,1201.3,-6.5,-0.8
0.78,1.0,0.75,0.0,0.0,0.0,1.5,0.5,1.75,1.5,1.25,0.5,0.5,0.25,-0.36,0.33,1.02,109.44,-0.7,-12.7,3.25,2.0,5.75,5.75,6.75,5.0,5.75,5.25,4.25,5.25,5.5,4.0,4.0,0.08,0.08,0.95,1128.48,-5.5,-3.1
0.8,1.0,0.75,0.25,0.0,1.25,1.75,1.25,2.25,1.5,2.25,0.25,1.0,1.25,-0.36,0.08,0.95,156.56,-2.2,-17.6,3.25,1.75,5.25,5.25,6.5,5.0,5.0,5.25,3.75,5.5,5.75,4.0,4.25,0.08,0.08,0.95,1059.76,-4.7,-5.8
0.82,1.0,0.5,0.25,0.25,1.25,1.75,1.0,3.25,1.5,2.25,0.75,1.0,0.75,-0.3,-0.05,0.83,183.62,-2.6,-18.7,3.25,1.75,5.0,4.75,6.0,5.0,4.75,5.25,3.75,5.75,5.75,4.5,4.75,0.08,0.08,0.95,996.59,-4.3,-9.5
0.84,1.0,0.5,0.25,0.25,1.25,1.75,1.0,2.5,1.5,2.25,1.25,1.0,1.0,-0.23,-0.17,0.83,207.52,-1.6,-21.1,2.75,1.75,2.75,3.75,4.25,5.0,4.0,5.5,3.75,6.0,6.25,4.0,5.5,0.08,0.08,0.95,912.85,-2.0,-19.0
0.86,0.75,0.5,0.25,0.25,0.0,1.75,0.75,2.25,1.5,2.25,2.0,0.5,1.0,-0.3,-0.36,0.95,209.68,-1.8,-31.2,2.25,1.5,3.75,3.5,5.5,4.5,3.75,5.25,3.5,6.5,6.5,5.5,6.0,0.08,0.08,0.95,857.4,-2.2,-21.8
0.88,0.75,0.75,0.25,0.5,1.25,1.75,1.0,3.0,1.5,2.25,0.5,0.75,0.75,-0.3,-0.48,0.77,215.85,-2.7,-14.3,2.0,1.5,2.75,3.5,5.25,4.75,3.25,5.25,3.5,7.0,7.0,5.75,6.25,0.08,0.08,0.95,805.67,-1.1,-25.9
0.9,0.75,0.75,0.25,0.25,1.25,1.75,1.25,2.5,1.5,2.25,1.0,0.75,1.25,-0.3,-0.48,0.58,217.89,-2.3,-19.7,2.0,1.75,2.75,3.5,5.25,5.0,3.25,5.5,3.5,7.75,7.25,6.5,7.5,0.08,0.08,0.95,807.79,-0.6,-28.8
0.92,1.0,0.75,0.25,1.25,1.25,1.5,1.0,2.25,1.5,2.25,1.25,1.0,0.75,-0.23,-0.48,0.52,223.5,0.6,-12.9,2.0,1.5,2.75,3.5,5.25,5.0,3.0,6.0,3.25,8.0,7.75,6.5,8.0,0.08,0.08,0.95,832.98,-0.2,-30.7
0.94,0.0,0.0,0.25,0.0,1.25,0.25,1.0,2.75,0.75,0.25,1.0,0.25,0.5,-0.17,-0.67,0.2,194.45,-2.5,-24.9,2.0,1.5,3.25,3.5,5.5,5.0,2.75,6.0,3.25,8.25,8.25,7.25,8.25,0.08,0.08,0.95,887.1,-0.5,-31.5
0.96,0.25,0.0,0.0,0.0,0.0,0.0,0.0,1.75,0.75,0.25,0.0,0.25,0.0,-0.36,-2.73,2.95,144.0,-4.3,-37.1,2.0,1.5,2.5,3.5,4.5,5.0,2.75,6.0,3.25,8.5,8.25,7.25,8.75,0.08,0.08,0.95,926.01,0.0,-35.0
0.98,1.5,0.0,0.0,4.75,1.75,0.25,0.25,2.25,0.75,0.5,0.0,0.5,0.0,-0.86,-3.48,3.02,138.21,7.3,26.4,2.0,1.5,3.5,3.5,5.5,5.0,2.75,6.0,3.0,9.0,8.25,7.5,9.0,0.08,0.08,0.95,973.45,-0.2,-32.8
1.0,2.25,0.0,3.0,6.25,5.75,0.25,0.75,2.25,0.75,0.5,0.0,0.25,0.0,-0.23,0.7,3.33,193.99,11.1,42.5,1.75,1.5,2.75,3.25,5.25,5.0,2.75,6.0,2.75,9.25,8.25,7.75,9.25,0.08,0.08,0.95,1002.65,0.4,-35.9
1.02,3.0,0.75,6.5,8.25,3.0,1.5,2.0,2.0,1.5,0.0,0.0,0.25,0.0,-0.17,0.02,1.08,282.41,17.0,47.6,1.75,1.5,2.25,3.25,4.5,5.0,2.5,6.0,2.5,9.25,8.25,7.5,9.5,0.08,0.08,0.95,1015.23,0.9,-38.1
1.04,5.0,1.25,0.0,9.5,5.75,4.0,7.0,3.5,2.75,0.75,0.5,0.5,0.25,0.14,-0.17,1.64,402.28,8.4,34.8,1.75,1.25,2.25,2.0,4.5,5.0,2.25,6.0,2.5,9.25,8.25,7.25,9.5,0.08,0.08,0.95,1005.35,1.5,-40.5
1.06,3.5,1.25,7.25,7.75,5.75,4.25,8.0,4.0,5.25,3.0,1.75,2.0,1.0,0.08,-0.11,1.45,601.27,10.4,18.0,1.75,0.0,2.75,1.5,4.25,5.0,2.25,6.0,1.75,9.0,8.0,7.25,9.5,0.08,0.08,0.95,975.38,1.7,-43.8
1.08,4.25,1.25,7.0,7.75,5.75,5.5,8.25,5.5,5.75,4.75,5.75,5.0,4.0,-0.11,-0.17,1.14,858.49,7.5,-2.1,1.25,0.0,2.5,1.25,4.5,5.0,1.75,5.75,1.75,8.75,7.25,6.0,8.75,0.08,0.08,0.95,916.0,2.6,-42.8
1.1,3.5,1.25,6.5,6.75,5.75,5.25,7.75,6.0,5.75,5.25,6.25,5.0,4.75,-0.05,-0.05,1.02,1067.69,6.3,-7.4,1.0,0.25,3.0,1.0,3.5,2.75,1.5,5.25,1.25,6.5,6.0,4.75,8.25,0.08,0.08,1.02,795.11,1.4,-43.4
1.12,3.5,1.0,5.25,6.0,5.75,5.25,7.25,6.0,5.75,5.25,6.5,5.75,5.25,-0.05,-0.05,0.95,1202.22,5.3,-12.3,0.0,0.25,1.0,1.0,1.75,2.25,1.0,3.5,1.25,5.0,3.5,2.5,6.25,-0.05,0.2,1.27,602.39,4.5,-50.1
1.14,3.0,1.0,5.0,5.5,5.75,4.5,6.75,5.75,5.25,5.75,6.5,6.0,5.25,-0.05,-0.05,0.95,1236.91,5.0,-15.3,0.5,0.0,0.5,1.0,1.75,1.5,1.0,3.75,0.75,3.75,1.5,2.5,4.75,0.27,0.39,1.52,414.87,4.8,-46.4
1.16,2.0,1.0,4.0,4.5,4.5,4.0,6.25,5.5,5.25,5.25,6.25,6.0,5.25,-0.05,-0.05,0.95,1174.75,4.2,-21.3,1.0,0.75,1.75,1.25,4.25,2.75,1.5,4.0,1.25,3.5,2.75,1.5,4.0,0.27,0.83,1.77,327.49,1.3,-18.6
1.18,1.25,1.0,2.25,4.0,2.25,4.0,6.0,5.25,4.75,5.25,5.75,6.0,5.25,-0.05,-0.05,0.95,1047.26,2.7,-30.0,0.75,0.75,1.75,1.5,3.5,2.75,1.5,4.0,1.25,3.5,1.5,1.0,2.5,-0.23,2.77,0.2,276.75,1.4,-11.4
1.2,1.5,1.0,1.75,4.0,1.75,3.5,5.5,5.25,4.75,5.25,6.0,6.0,5.5,-0.05,-0.05,0.95,921.21,2.6,-32.8,1.0,0.75,2.25,1.25,4.25,2.75,1.5,4.0,1.25,2.75,2.0,1.0,2.25,-1.42,2.95,1.02,264.73,-0.1,-6.1
1.22,2.0,1.0,1.75,4.0,1.75,3.0,5.5,5.25,4.75,5.75,6.25,6.5,6.0,-0.05,-0.05,0.95,825.97,2.9,-34.4,0.75,0.75,2.5,1.25,4.25,2.75,1.75,3.75,1.25,2.0,2.25,1.0,2.25,-1.3,2.58,1.33,259.18,-1.0,-4.5
1.24,0.25,0.0,1.75,1.5,1.25,2.0,5.0,4.0,4.0,4.75,6.0,6.25,5.75,-0.05,-0.05,0.95,706.92,1.9,-50.2,1.0,0.75,2.5,1.5,3.5,2.75,1.5,3.75,1.25,2.0,2.5,1.0,2.25,-0.55,2.45,0.77,261.8,-1.6,-5.7
1.26,1.75,1.0,0.0,2.75,1.75,3.0,4.5,4.75,4.75,6.25,7.0,7.5,6.75,-0.05,-0.05,0.95,678.74,0.8,-45.2,1.25,0.75,2.5,1.25,3.5,2.75,1.75,4.0,1.25,2.0,2.0,1.0,1.75,-0.17,1.83,1.08,261.89,-1.8,-2.1
1.28,2.25,1.0,0.0,2.5,1.75,3.5,4.5,5.25,4.75,7.5,7.25,8.25,7.0,-0.05,-0.05,0.95,681.38,0.3,-45.8,1.0,0.75,2.5,1.25,3.0,2.25,1.5,3.75,1.25,2.0,2.0,1.0,1.75,-0.17,1.08,1.39,262.82,-2.2,-5.0
1.3,2.0,1.0,1.5,1.5,1.75,3.25,4.25,5.0,4.25,7.5,8.0,8.25,8.5,-0.05,-0.05,0.95,719.61,0.7,-48.2,0.75,0.75,2.5,1.25,3.25,2.25,1.5,3.5,1.25,2.0,1.5,1.0,1.75,-0.17,0.64,1.45,265.85,-1.8,-3.4
1.32,1.75,1.0,0.25,1.5,1.75,3.25,3.75,4.75,4.25,7.75,8.0,8.5,8.0,-0.05,-0.05,0.95,745.48,-0.3,-51.7,0.75,0.75,2.0,1.25,3.5,1.75,1.5,3.75,1.25,2.0,1.75,1.0,1.75,-0.05,0.33,1.45,270.85,-1.3,-6.1
1.34,1.5,1.0,0.75,1.75,2.25,3.5,4.25,5.5,4.0,8.75,8.25,9.0,9.0,-0.05,-0.05,0.95,814.41,-0.6,-51.0,1.0,0.75,2.5,1.25,3.75,0.5,1.5,3.75,1.25,2.0,2.0,1.0,1.5,-0.17,0.14,1.08,279.71,-4.0,-4.4
1.36,1.5,1.0,0.25,1.75,1.75,3.25,3.75,5.5,4.0,8.75,8.25,9.0,9.5,-0.05,-0.05,0.95,857.72,-1.1,-54.4,0.75,0.75,2.0,1.25,4.25,2.0,1.5,3.5,1.25,2.0,1.75,1.0,1.5,-0.17,0.02,1.02,290.21,-1.2,-2.0
1.38,2.0,1.0,0.25,1.5,1.75,4.0,3.0,5.5,3.5,9.5,8.0,9.0,9.75,-0.05,-0.05,0.95,901.66,-1.8,-53.6,0.75,0.75,2.5,1.25,3.5,0.5,1.5,3.5,1.25,2.0,1.5,1.0,1.25,-0.05,-0.17,0.95,285.73,-4.0,-3.0
1.4,1.5,1.0,0.0,1.5,1.75,4.0,3.0,6.0,3.25,9.75,8.5,9.0,10.0,-0.05,-0.05,0.95,940.27,-2.5,-55.8,1.0,0.75,2.25,1.25,3.25,1.0,1.5,3.75,1.25,0.5,1.5,0.75,1.25,0.08,-0.36,0.89,274.18,-4.6,3.7
1.42,1.25,1.0,0.0,1.5,1.75,4.25,2.25,6.25,2.75,9.75,8.25,9.0,10.5,-0.05,0.02,0.95,965.11,-3.3,-57.1,0.75,0.75,2.5,1.25,4.25,2.0,1.5,3.5,1.25,1.75,1.5,0.75,1.5,0.14,-0.48,0.77,278.84,-2.1,2.1
1.44,1.25,0.5,0.0,1.5,1.75,4.25,1.5,6.25,2.25,9.75,7.75,8.25,10.5,-0.05,0.02,0.95,951.84,-4.1,-58.4,0.75,0.75,1.75,1.25,3.5,2.0,1.5,3.25,1.25,2.0,1.5,0.75,1.25,0.2,-0.55,0.64,276.65,-1.2,-1.2
1.46,0.0,0.0,0.0,0.0,0.5,3.25,1.5,6.25,1.75,8.75,6.5,7.25,9.25,-0.05,0.02,0.95,865.97,-6.0,-70.9,0.75,0.75,3.25,1.25,4.25,1.5,1.5,3.0,1.25,2.0,1.5,0.5,1.25,0.2,-0.61,0.52,284.28,-4.2,5.9
1.48,0.0,0.0,0.0,0.0,0.0,3.0,0.5,6.25,1.5,8.0,5.5,6.0,8.75,-0.11,0.02,1.02,753.65,-7.2,-72.8,1.0,0.75,2.5,1.25,3.5,1.75,1.5,3.25,1.25,0.0,1.5,0.25,1.25,0.14,-0.61,0.2,278.66,-4.9,12.4
1.5,0.0,0.0,0.0,0.0,0.0,3.0,0.25,5.5,1.5,7.25,4.75,5.0,8.25,-0.11,0.02,1.02,619.03,-7.7,-72.2,1.75,1.0,2.5,2.5,2.75,2.0,1.25,2.5,1.25,1.75,1.5,0.5,1.25,0.89,-1.98,0.45,284.92,-5.7,10.7
1.52,0.0,0.0,0.0,0.0,0.0,1.25,0.25,5.5,1.5,5.5,3.0,3.5,7.25,-0.05,0.08,1.2,485.35,-8.1,-74.7,3.5,0.0,2.75,3.5,3.25,0.25,2.25,3.0,1.25,2.0,1.75,0.5,1.25,1.33,-2.42,2.58,295.84,-9.8,12.4
1.54,0.0,0.0,0.0,0.0,0.0,0.5,0.25,4.0,1.0,3.5,2.0,1.5,5.75,-0.23,0.14,1.45,350.57,-8.8,-75.9,6.25,1.75,5.25,6.25,3.25,1.25,2.75,2.5,1.25,1.5,1.5,0.5,1.25,3.02,-3.23,4.45,363.62,-14.6,34.1
1.56,0.0,0.0,0.0,0.0,1.25,0.5,1.0,2.25,0.75,2.5,1.0,0.5,4.0,-1.05,0.64,1.52,246.49,-8.1,-57.7,6.25,0.75,8.5,8.25,6.5,2.25,3.25,2.5,1.25,1.25,0.75,0.25,0.25,0.39,0.58,2.58,476.09,-15.3,44.6
1.58,0.0,0.0,0.0,0.0,0.0,0.5,0.25,2.25,0.75,2.25,1.0,0.5,2.25,-0.23,1.95,0.52,145.97,-9.1,-67.4,7.5,1.5,9.5,11.5,7.25,2.75,4.25,1.75,1.25,1.0,1.5,0.75,1.25,0.02,0.27,1.45,652.0,-15.7,43.2
1.6,0.0,0.0,0.0,0.0,0.0,0.75,0.25,2.25,0.75,2.5,0.75,0.75,1.0,0.77,2.7,0.95,67.42,-9.0,-59.7,6.75,1.25,11.5,11.0,9.25,3.25,6.5,3.25,1.25,2.0,0.0,0.75,0.25,-0.05,0.14,1.33,829.81,-14.7,44.4
1.62,0.0,0.0,0.0,0.0,0.0,0.5,0.5,2.25,0.75,2.0,0.5,0.5,1.0,1.33,2.39,1.14,15.18,-8.7,-58.1,7.5,2.5,10.0,13.0,9.0,5.75,7.25,2.5,1.25,2.0,1.5,1.0,0.25,0.02,0.14,1.33,1013.9,-13.4,43.3
1.64,0.0,0.0,0.0,0.0,0.0,0.5,0.25,2.25,0.75,1.5,0.5,0.5,1.0,0.2,2.83,0.77,0.0,-8.9,-58.3,7.5,2.75,10.5,12.0,10.5,6.25,8.25,4.0,3.25,2.75,2.0,1.0,1.75,0.08,0.14,1.2,1200.99,-11.4,33.9
1.66,0.0,0.0,0.0,0.0,0.0,0.0,0.25,2.25,0.75,2.5,0.5,2.0,0.75,-0.23,2.64,0.77,0.0,-5.8,-72.4,7.0,2.75,10.5,11.0,10.0,6.25,8.5,4.75,4.0,3.5,3.75,1.5,2.25,0.14,0.08,1.08,1340.32,-10.5,25.8
1.68,0.5,0.0,0.25,0.25,1.25,1.5,1.0,3.0,1.5,3.0,1.5,1.75,1.5,-0.36,1.89,1.14,58.82,-3.6,-39.6,6.75,2.5,9.25,10.5,9.25,6.25,8.25,5.25,4.0,3.75,4.0,1.75,2.25,0.08,0.08,1.02,1401.61,-9.7,22.5
1.7,0.75,0.0,0.25,0.75,0.75,1.25,1.0,3.0,1.5,2.75,2.0,1.25,1.0,-0.36,0.95,1.39,114.24,-1.5,-34.8,6.25,2.5,9.25,9.5,9.0,6.25,7.75,5.25,3.75,3.5,4.0,1.5,2.25,0.08,0.08,0.95,1404.1,-9.5,22.3
1.72,1.0,0.0,0.25,1.0,0.75,1.0,1.25,3.0,1.5,2.75,2.0,0.75,2.0,-0.42,0.39,1.39,162.93,-1.2,-34.4,5.5,2.5,8.75,9.25,8.75,5.75,7.25,5.0,3.5,3.5,3.75,1.5,2.25,0.08,0.08,0.95,1361.37,-9.2,21.6
1.74,1.25,0.0,0.25,0.25,1.25,1.5,1.25,2.5,1.5,2.5,1.75,1.25,1.25,-0.36,0.2,1.27,190.31,-0.8,-29.1,5.0,2.5,8.25,7.75,8.0,5.5,7.0,5.0,2.5,3.5,3.75,1.25,2.25,0.08,0.08,0.95,1262.24,-8.8,20.8
1.76,1.0,0.5,0.25,0.75,1.25,1.25,1.25,2.25,1.5,2.5,1.75,1.25,1.0,-0.23,0.08,1.08,211.06,0.4,-23.4,3.25,2.25,7.25,6.0,7.75,5.25,6.0,5.0,2.75,3.75,3.75,2.0,2.25,0.08,0.08,0.95,1111.01,-7.1,13.4
1.78,0.75,0.5,0.25,1.0,1.25,1.5,1.25,2.25,1.5,2.25,1.0,1.25,1.5,-0.17,-0.11,1.08,221.01,-0.8,-22.6,3.25,2.0,6.5,5.75,7.25,5.25,5.5,5.0,3.25,4.75,4.0,2.5,3.0,0.08,0.08,0.95,987.53,-6.0,6.5
1.8,1.25,0.0,0.25,0.5,1.25,1.5,1.0,2.25,1.5,2.25,2.0,1.25,1.0,-0.11,-0.3,0.95,225.89,0.0,-26.5,3.0,2.0,6.0,5.75,6.5,5.0,5.0,5.25,3.25,5.25,5.0,3.5,4.0,0.08,0.08,0.95,908.69,-5.2,-1.5
1.82,0.5,0.25,0.25,1.0,0.75,1.0,1.25,2.5,1.5,2.25,1.25,1.25,1.0,-0.23,-0.36,0.89,221.95,-0.4,-29.8,3.0,1.75,5.0,5.5,6.5,5.0,4.0,5.5,3.0,6.25,5.75,4.5,5.0,0.08,0.08,0.95,870.52,-3.7,-9.4
1.84,1.75,0.5,0.25,0.25,1.25,1.25,1.0,2.5,1.5,2.25,1.25,1.25,1.0,-0.36,-0.42,0.77,221.1,0.8,-18.8,2.75,1.75,4.5,5.0,6.25,5.0,2.5,6.0,3.25,7.0,6.0,5.25,6.0,0.08,0.08,0.95,859.69,-2.3,-16.0
1.86,0.75,0.5,0.25,0.25,1.25,1.5,1.0,2.25,1.5,2.25,1.0,1.0,1.0,-0.36,-0.42,0.7,213.28,-1.8,-22.8,2.0,1.5,3.75,4.5,6.25,5.0,2.75,6.25,3.25,7.75,6.5,5.75,6.75,0.08,0.08,0.95,856.83,-0.9,-22.6
1.88,0.75,0.75,0.25,0.25,0.75,1.25,1.25,2.25,1.5,2.25,1.25,1.25,1.0,-0.36,-0.42,0.7,205.86,-0.4,-26.6,2.0,1.5,2.75,3.75,6.25,5.25,3.25,6.0,3.25,7.75,6.75,5.75,7.75,0.08,0.08,0.95,852.31,0.0,-26.2
1.9,1.0,0.75,0.25,0.25,0.75,1.0,1.0,2.25,1.5,2.25,1.25,1.25,1.25,-0.3,-0.36,0.33,196.87,0.0,-27.6,2.0,1.75,2.75,3.5,6.0,5.25,3.25,6.0,3.25,8.25,7.0,6.25,8.0,0.08,0.08,0.95,865.39,0.0,-28.0
1.92,0.0,0.0,0.25,0.0,1.25,0.0,0.75,2.0,0.75,0.5,0.5,0.25,0.5,-0.36,-1.17,0.02,158.03,-2.3,-24.6,1.75,1.5,2.5,3.5,6.0,5.25,2.75,6.0,2.75,8.5,7.0,6.5,8.5,0.08,0.08,0.95,883.95,0.7,-30.7
1.94,0.5,0.0,0.0,0.5,0.0,0.0,0.25,2.0,0.75,0.0,0.25,0.5,0.25,-0.17,-2.67,2.2,117.14,1.6,-26.4,1.75,1.25,2.5,3.25,5.75,5.25,2.75,6.5,2.5,8.75,7.25,6.5,8.75,0.08,0.08,0.95,907.51,1.1,-32.8
1.96,2.0,0.5,0.25,6.0,1.25,0.0,1.0,2.0,0.75,0.5,0.0,0.5,1.0,-1.86,-3.36,6.52,136.11,10.1,25.1,1.75,0.0,2.5,2.75,5.5,5.5,2.25,6.5,1.75,9.0,6.75,6.5,9.0,0.08,0.08,0.95,912.41,2.1,-36.9
1.98,5.25,0.0,5.75,9.25,5.75,0.0,1.25,2.25,0.75,1.0,0.5,0.5,0.0,-0.23,0.77,3.7,247.55,16.1,45.5,1.0,0.0,2.5,2.5,5.5,5.75,2.0,6.75,1.75,9.25,6.5,6.25,9.25,0.08,0.08,0.95,912.73,3.1,-38.8
2.0,1.25,1.0,8.0,12.0,5.75,0.25,3.25,2.25,0.75,1.0,0.0,0.5,0.25,0.27,-0.11,1.64,367.29,15.6,43.6,0.5,0.75,2.5,2.25,4.25,5.75,1.5,6.75,1.5,9.0,5.5,5.75,9.5,0.08,0.08,0.95,882.57,3.8,-40.1
2.02,4.25,0.5,9.0,14.0,8.0,3.0,5.25,2.25,0.75,0.75,0.5,0.5,0.25,0.08,-0.05,1.58,574.79,14.6,46.3,1.25,0.25,2.5,1.25,4.75,5.25,1.5,6.25,1.25,8.5,3.75,4.75,9.25,0.08,0.08,0.95,816.8,4.2,-38.0
2.04,5.0,1.5,0.0,14.0,9.25,5.5,7.5,2.25,0.5,0.75,0.0,0.5,0.75,0.02,0.08,1.33,718.61,7.7,44.4,0.5,1.0,1.25,1.25,1.75,5.0,1.25,6.0,1.25,6.5,3.25,2.5,7.5,0.08,0.08,1.08,684.5,6.0,-40.0
2.06,5.0,1.75,9.5,14.0,10.5,6.75,8.75,3.0,1.5,1.0,0.0,0.5,0.75,-0.11,0.02,1.27,927.05,11.7,44.3,1.25,0.75,1.5,1.25,3.5,2.75,1.25,5.0,1.25,5.0,2.5,2.0,6.0,0.14,0.14,1.39,545.45,3.2,-30.0
2.08,4.75,2.25,9.25,15.5,10.0,7.25,9.25,4.0,2.25,1.0,1.0,0.5,0.25,-0.11,-0.05,1.14,1099.03,11.3,41.7,1.25,1.0,2.5,1.25,3.5,2.75,1.25,4.25,1.0,3.5,1.5,1.0,3.25,1.02,0.52,1.08,411.69,0.5,-10.1
2.1,5.0,2.5,9.0,15.0,9.25,7.25,9.25,4.5,3.25,2.5,2.0,2.0,1.0,-0.05,0.02,1.02,1291.57,10.3,30.9,1.0,0.75,2.5,1.5,5.25,2.75,1.5,3.75,1.25,3.5,1.25,1.0,2.75,-0.11,2.52,1.27,343.42,0.2,-4.1
2.12,5.0,2.5,9.5,14.0,11.0,7.25,9.5,5.0,2.5,3.25,2.25,1.75,1.5,-0.05,-0.05,1.02,1391.9,9.5,29.6,1.25,0.75,2.25,1.25,3.75,2.75,1.0,4.0,1.25,3.25,1.75,1.0,2.25,-1.61,2.7,1.02,296.16,0.1,-7.4
2.14,4.25,2.5,9.0,14.0,10.5,7.25,8.5,4.75,2.25,3.0,2.0,1.5,1.25,-0.05,0.02,0.95,1430.61,9.2,30.8,1.25,1.0,2.5,1.25,3.75,2.5,1.5,3.75,1.25,2.75,1.0,1.0,2.5,-0.92,2.14,0.95,277.46,-0.8,-3.2
2.16,3.0,1.0,8.0,10.5,9.5,6.5,7.5,4.25,1.75,2.0,1.5,0.5,0.75,-0.05,0.02,0.95,1343.64,8.8,32.6,1.25,1.0,2.5,1.25,3.75,2.75,1.5,4.0,1.25,2.25,2.0,1.0,2.5,0.02,2.02,0.7,270.4,-1.1,-4.5
2.18,2.0,1.0,6.5,9.5,8.25,6.0,6.5,4.0,1.75,1.75,0.75,0.5,0.75,-0.05,0.02,0.95,1144.48,7.8,31.9,1.0,0.75,2.5,1.25,3.5,2.25,1.5,3.75,1.25,2.25,1.5,0.75,2.0,0.33,1.7,0.58,261.87,-1.4,-2.9
2.2,1.75,0.75,6.0,9.5,7.75,6.0,6.0,4.0,1.75,1.5,0.75,0.5,0.5,-0.05,0.02,0.95,927.35,7.6,32.0,1.25,0.75,2.5,1.25,3.5,2.0,1.25,3.75,1.25,2.25,1.5,0.75,1.75,0.14,1.33,0.77,258.35,-2.0,-1.3
2.22,2.25,0.75,5.25,9.25,7.75,6.0,5.75,4.0,2.25,2.25,0.75,0.5,0.75,-0.05,0.08,0.95,780.21,6.8,28.7,0.5,0.75,2.5,1.25,3.75,1.75,1.5,3.75,1.25,2.0,2.0,0.75,2.25,0.08,1.02,1.14,258.65,-1.4,-6.8
2.24,1.25,0.75,5.0,9.5,7.75,6.75,6.0,5.5,3.25,3.5,2.5,2.0,2.0,-0.05,0.02,0.95,749.25,4.5,11.6,1.0,1.0,2.5,1.25,3.5,2.0,1.5,3.75,1.25,2.0,1.5,0.75,2.25,0.27,0.77,1.27,268.07,-1.8,-2.6
2.26,1.75,1.25,5.25,9.25,8.0,6.75,5.75,5.5,3.5,4.75,3.0,2.5,2.75,-0.05,0.02,0.95,777.81,4.2,7.8,1.0,0.75,2.5,1.25,3.5,2.0,1.5,3.75,1.25,2.0,1.5,0.5,1.75,0.39,0.64,1.14,276.34,-2.0,-0.2
2.28,1.75,1.0,5.0,8.0,7.75,6.75,5.75,6.0,4.0,4.75,4.25,3.5,3.0,-0.05,-0.05,0.95,829.01,3.8,0.9,1.25,1.0,2.5,1.75,3.5,1.75,1.5,3.75,1.25,2.0,1.5,0.5,1.75,0.45,0.39,1.08,289.5,-3.0,2.7
2.3,1.5,1.25,3.5,7.75,7.75,6.75,5.25,6.5,4.25,6.25,5.25,5.0,4.75,-0.05,-0.05,0.95,876.53,1.9,-9.8,1.25,0.5,2.5,1.25,3.5,2.0,1.5,3.75,1.25,2.0,1.5,0.5,1.75,0.45,0.14,1.14,293.24,-2.2,-0.3
2.32,0.0,1.25,3.0,6.5,7.5,6.5,4.5,6.75,4.25,6.75,5.75,6.0,5.75,-0.05,-0.05,0.95,910.09,0.2,-19.2,1.0,1.0,2.5,1.25,3.5,1.75,1.5,3.75,1.25,2.0,1.5,0.5,1.5,0.33,0.08,1.08,294.81,-2.5,1.8
2.34,1.5,1.0,1.75,6.0,6.5,6.25,4.25,7.25,4.25,7.5,6.25,6.75,6.5,-0.05,-0.05,0.95,937.94,-0.1,-24.3,0.75,1.0,2.5,1.75,3.5,2.5,1.5,3.75,1.25,2.0,1.5,0.75,1.75,0.45,-0.05,0.95,298.34,-1.7,0.7
2.36,1.75,0.5,0.5,6.0,6.0,6.0,4.0,7.25,4.0,7.5,6.5,6.75,7.5,-0.05,-0.05,0.95,949.77,-1.0,-29.2,0.75,1.25,2.5,1.25,3.5,1.5,1.5,3.5,1.25,2.0,1.5,0.75,1.75,0.39,-0.11,0.89,298.94,-2.7,-0.4
2.38,1.75,0.75,0.5,4.5,5.75,6.0,3.0,7.25,3.5,7.5,6.5,7.5,7.5,-0.05,-0.05,0.95,961.73,-1.7,-32.6,0.75,1.25,2.5,1.25,3.5,1.75,1.5,3.75,1.25,2.25,1.5,0.5,1.5,0.27,-0.17,0.89,299.56,-2.1,1.0
2.4,1.0,1.0,0.25,4.75,5.75,6.0,3.0,7.25,3.25,8.0,6.0,7.25,7.5,-0.05,-0.05,0.95,962.56,-2.5,-33.2,0.75,0.75,2.5,1.25,3.5,1.5,1.5,3.75,1.25,2.25,1.5,0.5,1.75,0.45,-0.23,0.83,296.75,-1.9,-2.7
2.42,0.25,0.0,0.25,1.75,5.75,5.0,2.75,7.25,2.25,7.5,6.0,6.75,7.5,-0.05,0.02,0.95,906.44,-4.4,-43.2,1.0,0.75,2.5,1.25,3.5,1.75,1.5,3.25,1.25,2.25,1.5,0.5,1.5,0.52,-0.3,0.83,295.66,-2.6,0.7
2.44,1.0,1.0,0.0,2.0,2.25,6.0,1.75,7.0,1.75,7.5,6.5,6.5,7.5,-0.11,0.02,0.95,834.42,-4.4,-45.4,0.75,0.75,2.5,1.25,3.5,2.0,1.5,3.0,1.25,1.75,1.5,0.5,1.25,0.45,-0.3,0.83,289.51,-2.9,3.6
2.46,0.5,0.0,0.25,0.25,1.75,4.25,0.5,7.0,1.5,7.75,5.5,6.5,8.0,-0.11,0.02,0.95,736.82,-6.4,-59.8,0.75,0.75,2.5,1.25,3.5,2.0,1.5,3.0,1.0,2.0,1.5,0.5,1.25,0.33,-0.3,0.83,285.34,-2.5,3.1
2.48,0.25,0.0,0.0,0.75,1.75,5.0,0.5,7.25,0.75,7.75,5.25,6.0,8.25,-0.11,0.02,0.95,662.23,-7.5,-58.2,0.75,0.75,2.5,1.25,3.5,2.0,1.5,2.5,1.25,1.5,1.5,0.0,1.25,0.08,-0.3,0.45,278.06,-3.4,8.5
2.5,0.0,0.0,0.0,0.0,1.25,3.75,0.0,7.25,1.5,7.5,4.5,5.75,8.25,-0.11,0.02,1.02,595.72,-8.1,-65.2,1.75,1.0,1.0,2.0,3.5,1.75,1.5,3.0,1.25,2.0,1.5,0.5,1.25,-0.17,-1.61,2.02,278.91,-2.4,5.4
2.52,0.0,0.0,0.0,0.0,0.0,3.5,0.0,6.75,1.0,7.5,3.25,5.0,8.0,-0.11,0.02,1.14,531.55,-9.4,-70.0,2.25,1.25,2.25,3.5,3.5,1.5,1.75,2.5,1.25,1.75,1.5,0.25,1.25,0.95,-2.17,1.33,290.69,-6.9,17.3
2.54,0.0,0.0,0.0,0.0,0.0,3.25,0.0,6.25,1.25,6.25,2.5,3.75,7.5,-0.05,0.08,1.39,456.36,-9.9,-68.4,3.0,0.0,2.75,3.5,4.25,0.25,1.75,2.5,1.0,0.5,0.0,0.0,0.25,1.27,-4.23,2.64,289.73,-11.9,38.5
2.56,0.0,0.0,0.0,0.0,0.0,2.75,0.0,5.75,0.5,4.75,2.0,3.5,6.75,-0.3,0.02,1.2,381.48,-10.3,-69.5,4.0,1.5,5.25,5.75,5.25,2.75,1.75,2.25,1.0,0.5,0.0,0.0,1.25,-0.05,0.58,2.02,340.9,-11.4,42.5
2.58,0.0,0.0,0.0,0.0,0.0,1.75,0.0,5.0,1.0,3.75,1.25,2.25,5.75,-0.67,0.2,1.52,307.68,-10.4,-69.7,6.25,0.75,7.5,7.75,7.0,2.75,3.75,2.75,1.25,2.0,0.0,0.5,1.5,-0.17,0.02,1.2,451.34,-12.6,37.9
2.6,0.0,0.0,0.0,0.0,0.0,1.5,0.0,4.0,0.75,2.75,1.0,0.75,4.75,-0.36,0.2,1.45,243.22,-11.8,-66.7,6.75,2.0,8.5,8.5,8.0,5.0,5.5,3.75,1.5,2.0,0.0,0.25,1.25,-0.05,0.08,1.27,635.18,-11.4,40.4
2.62,0.0,0.0,0.0,0.0,0.0,0.25,0.25,3.5,0.75,2.25,0.5,0.5,2.5,0.58,2.45,0.95,169.91,-10.7,-67.0,7.0,2.5,7.75,8.0,8.0,5.0,6.75,3.25,2.75,3.5,1.5,1.25,1.75,0.02,0.08,1.27,822.28,-10.6,29.5
2.64,0.0,0.0,0.0,0.0,0.0,0.0,0.25,2.5,0.75,2.0,0.5,0.0,1.0,1.08,3.64,0.7,94.52,-10.0,-61.5,6.75,2.25,8.0,7.25,7.75,5.0,7.25,5.25,4.5,5.0,4.5,2.75,2.25,0.14,0.08,1.02,1025.09,-9.0,13.5
2.66,0.0,0.0,0.0,0.0,0.0,0.25,0.25,2.25,0.75,1.75,0.5,0.5,1.0,0.45,2.77,0.95,44.22,-8.7,-62.0,6.25,2.5,7.75,7.0,7.5,5.75,7.0,6.0,5.0,6.0,6.25,4.0,4.25,0.14,0.02,1.02,1207.72,-7.3,3.1
2.68,0.0,0.0,0.0,0.0,0.0,0.75,0.5,2.25,0.75,1.0,0.5,0.5,0.75,-0.17,2.45,0.95,12.64,-8.0,-50.3,6.25,2.25,7.5,6.0,7.0,5.5,6.75,6.0,5.0,6.5,6.75,5.25,5.25,0.08,0.08,0.95,1326.74,-6.7,-3.2
2.7,0.0,0.0,0.0,0.0,0.0,0.0,0.5,2.25,0.5,1.0,0.5,0.5,0.75,-0.05,1.7,1.02,0.46,-7.0,-61.2,5.5,1.75,6.75,5.75,6.25,5.0,6.25,6.0,5.0,6.5,7.0,5.25,5.5,0.08,0.08,0.95,1358.48,-6.2,-7.6
2.72,0.0,0.5,0.0,0.0,0.0,0.25,0.5,2.25,0.5,1.5,0.5,1.75,0.75,0.02,1.02,1.2,12.95,-4.4,-56.6,4.5,1.5,5.75,4.25,5.75,5.0,4.75,6.0,4.5,6.0,6.5,5.25,5.5,0.08,0.08,0.95,1316.0,-4.8,-12.0
2.74,1.0,0.0,0.0,0.0,0.0,1.75,0.5,2.25,1.25,2.25,0.5,1.25,0.75,-0.17,0.39,1.33,47.2,-4.5,-36.9,3.5,1.25,4.5,3.5,4.75,4.5,3.75,5.5,3.5,6.0,5.75,5.25,5.5,0.08,0.08,0.95,1172.64,-3.5,-17.6
2.76,1.0,0.75,0.0,0.25,0.0,1.25,1.25,3.5,1.25,2.25,1.5,1.25,1.0,-0.11,0.14,1.33,98.93,-1.8,-32.7,3.25,0.75,4.0,3.5,4.75,3.75,3.5,5.25,3.0,6.0,5.5,5.25,6.0,0.08,0.08,0.95,1013.36,-3.0,-21.1
2.78,1.0,0.75,0.25,1.0,0.5,1.75,1.25,3.25,1.0,2.5,1.25,1.25,1.0,0.08,-0.11,1.27,149.19,-1.3,-21.5,2.5,0.25,3.0,1.75,4.5,3.25,2.75,5.25,3.0,6.5,5.75,5.5,6.25,0.08,0.08,0.95,864.94,-1.1,-31.8
2.8,1.0,0.75,0.25,1.25,0.0,1.25,1.25,3.0,1.25,2.25,2.0,1.25,1.0,0.02,-0.3,1.27,186.62,0.9,-26.2,1.75,0.75,2.75,2.5,3.5,2.75,2.75,5.25,3.0,7.25,6.5,6.5,7.5,0.02,0.08,0.95,774.0,-0.8,-38.5
2.82,0.25,0.0,0.25,1.25,0.0,1.5,1.0,2.75,1.0,2.25,1.25,1.5,1.25,-0.11,-0.36,1.08,203.52,-2.7,-39.1,1.25,1.0,3.5,3.75,3.75,5.0,2.25,5.0,2.75,7.75,6.25,7.25,8.25,0.08,0.02,0.95,752.21,-0.2,-34.6
2.84,1.0,0.25,0.25,1.0,0.75,1.0,1.25,2.25,1.0,2.25,0.5,1.25,0.75,-0.23,-0.36,0.89,206.37,0.2,-20.5,0.75,0.75,2.5,1.0,4.25,3.75,1.75,4.75,2.5,8.5,5.75,7.75,8.5,0.08,0.02,0.89,739.8,1.7,-45.6
2.86,1.25,0.0,0.25,1.0,1.25,1.0,1.0,3.0,0.75,2.0,1.25,1.25,1.0,-0.36,-0.36,0.83,210.42,-0.3,-22.2,1.75,1.0,2.5,1.5,4.25,3.0,1.75,5.0,2.5,8.75,6.75,8.0,9.5,0.08,0.02,0.89,759.27,0.7,-44.7
2.88,0.0,0.0,0.25,0.0,1.25,0.5,1.0,2.25,0.75,0.5,0.5,0.5,0.75,-0.48,-0.36,0.83,184.12,-3.5,-26.2,0.75,0.75,2.5,1.0,3.5,2.75,2.0,5.0,2.75,9.25,6.5,8.0,9.0,0.08,0.08,0.95,758.99,1.4,-50.2
2.9,0.0,0.0,0.0,0.0,0.0,0.0,0.25,2.25,0.75,0.75,0.0,0.25,0.75,-0.86,-1.05,1.08,146.68,-9.2,-57.6,1.75,1.25,2.5,1.5,3.75,3.25,1.75,5.75,2.5,9.5,8.0,8.0,11.0,0.08,0.08,0.95,813.24,1.2,-47.3
2.92,0.0,0.0,0.0,0.0,0.0,0.0,0.25,2.0,0.5,0.0,0.0,0.5,0.5,-0.92,-2.3,1.95,101.77,-7.2,-56.4,1.75,1.5,2.5,1.25,4.25,3.75,1.75,6.0,2.0,9.5,7.0,8.0,10.5,0.08,0.08,0.95,857.19,1.7,-44.5
2.94,0.5,0.0,0.25,1.0,0.0,0.0,0.5,2.25,0.75,0.75,0.25,0.5,0.75,-1.36,-3.86,1.7,84.14,1.0,-27.7,1.75,1.25,2.5,1.25,3.75,3.75,1.5,5.75,1.75,9.5,6.75,8.0,11.0,0.08,0.08,0.95,904.56,1.9,-46.8
2.96,1.5,0.0,3.0,5.25,0.0,1.75,4.75,2.25,0.5,0.0,0.5,0.5,0.25,-0.11,-3.36,2.39,134.18,15.2,30.0,1.5,0.5,2.5,1.25,3.5,3.75,1.5,6.0,1.75,9.25,7.0,7.5,10.5,0.08,0.08,0.95,916.25,2.2,-48.7
2.98,2.25,1.0,4.25,4.75,1.75,2.0,6.0,2.5,4.5,3.5,1.75,3.5,1.0,0.39,-0.11,2.58,258.88,10.4,-1.1,1.25,0.75,2.25,1.25,3.5,2.75,1.5,5.5,1.75,9.0,7.0,7.25,11.0,0.08,0.08,0.95,907.8,2.1,-50.9
3.0,2.75,1.0,5.0,6.0,1.75,3.0,7.75,5.5,5.25,5.0,5.25,4.75,4.75,-0.11,-0.11,1.2,456.17,7.0,-16.5,1.25,0.75,2.0,1.25,3.5,2.75,1.25,5.25,1.25,8.5,5.75,6.5,9.75,0.08,0.08,1.02,849.35,2.5,-48.6
3.02,3.0,1.0,5.25,6.25,2.25,4.0,7.5,5.5,5.25,4.5,5.25,3.75,4.5,-0.05,-0.05,1.02,679.58,6.9,-11.1,1.0,1.0,2.25,1.25,3.75,2.75,1.25,5.0,1.25,7.75,5.5,5.75,9.5,0.08,0.08,1.08,784.42,2.3,-45.5
3.04,2.75,1.25,5.75,6.75,4.5,4.5,7.75,5.5,5.5,4.75,5.5,4.5,4.0,-0.05,-0.05,0.95,890.75,6.7,-7.5,1.0,0.75,1.75,1.25,1.75,2.75,1.0,4.25,1.25,6.75,5.0,5.25,8.75,0.2,0.2,1.52,686.86,2.5,-50.6
3.06,2.75,1.25,6.0,6.5,2.5,4.75,7.75,5.5,5.5,4.75,5.5,5.0,4.5,-0.05,-0.05,0.95,1008.24,6.9,-11.6,0.75,0.75,1.25,1.25,0.0,2.25,1.25,3.75,1.0,5.25,3.75,3.75,7.75,0.45,0.33,2.02,561.34,2.9,-54.5
3.08,2.75,1.0,5.75,6.0,3.75,4.25,7.75,5.5,5.25,5.0,5.75,5.25,4.75,0.02,-0.05,0.95,1074.81,6.4,-13.0,1.0,0.75,1.5,1.25,1.75,2.0,1.0,3.0,1.25,3.5,2.5,2.5,5.75,0.64,0.45,1.52,433.06,1.2,-36.7
3.1,2.0,1.0,4.25,4.5,2.5,4.0,6.25,5.5,4.75,5.25,6.0,5.5,4.75,-0.05,-0.05,0.95,1044.61,4.7,-22.0,1.0,0.75,1.25,1.25,3.5,2.0,1.25,3.75,1.25,3.5,1.5,1.25,4.5,0.27,2.2,1.02,341.77,2.3,-22.2
3.12,1.0,0.5,3.0,2.5,1.75,3.25,5.0,5.5,4.25,4.75,6.0,5.25,4.75,-0.05,-0.05,0.95,955.42,2.8,-33.8,1.0,1.0,1.25,1.25,3.5,2.25,1.25,4.0,1.25,3.25,2.0,1.0,3.0,-0.55,3.27,-0.11,288.67,1.5,-15.0
3.14,0.0,0.0,0.0,1.25,0.75,3.25,3.25,5.5,3.25,6.0,5.25,6.0,5.75,-0.05,-0.05,0.95,824.88,-3.1,-57.4,1.0,1.25,1.25,1.25,3.5,2.0,1.25,3.5,1.25,2.75,1.5,1.0,2.75,-0.92,2.2,0.77,258.35,0.7,-10.3
3.16,0.0,0.0,0.0,0.5,0.0,2.5,1.5,5.5,2.75,6.5,5.5,6.75,6.75,-0.05,-0.05,0.95,711.77,-4.3,-69.2,1.0,0.75,1.5,1.25,4.75,2.25,1.0,4.0,1.25,2.5,1.5,1.0,2.25,-0.55,1.52,0.95,252.49,1.0,-5.8
3.18,0.0,0.0,0.0,0.5,0.0,3.0,1.5,5.5,2.0,7.0,6.0,7.0,7.5,-0.05,-0.05,0.95,636.23,-4.9,-69.7,1.0,0.75,1.5,1.25,3.5,2.0,1.25,3.25,1.25,2.75,1.75,1.0,2.25,0.14,1.2,0.58,246.67,0.0,-10.1
3.2,0.0,0.0,0.0,0.25,0.0,2.5,0.5,5.75,1.75,7.5,6.0,7.5,8.25,-0.05,-0.05,0.95,591.5,-5.6,-74.3,0.5,0.25,1.25,1.0,3.25,0.25,1.0,2.75,1.0,0.75,2.0,0.0,1.25,0.2,1.02,0.45,215.36,-2.7,-3.6
3.22,0.0,0.0,0.0,1.5,0.0,4.5,0.25,6.0,1.75,7.5,5.75,7.5,8.5,-0.11,0.02,0.95,583.25,-5.9,-65.8,0.0,0.25,0.25,1.0,0.5,0.0,0.75,2.5,1.0,0.75,0.75,0.0,0.75,0.02,0.83,0.95,154.52,0.4,-22.9
3.24,0.0,0.0,0.0,0.0,0.0,3.0,0.5,6.0,1.5,8.5,6.0,7.5,9.0,-0.11,0.02,0.95,584.79,-6.5,-74.6,0.25,0.25,0.0,1.0,1.5,0.0,1.0,2.75,0.75,0.75,0.75,0.0,1.25,0.02,0.7,1.27,110.19,1.9,-17.2
3.26,0.0,0.0,0.0,0.0,0.0,2.0,0.25,6.25,1.5,8.5,5.5,7.25,9.25,-0.11,0.02,0.95,592.07,-6.6,-77.2,0.5,0.0,0.5,1.0,1.5,0.0,0.75,2.5,0.75,0.5,0.5,0.0,1.25,0.14,0.58,1.27,81.21,-0.7,-10.4
3.28,1.0,0.0,0.0,0.0,0.0,3.25,0.25,6.0,1.5,9.5,5.75,7.5,9.25,-0.11,-0.05,1.02,611.07,-6.1,-70.8,1.0,1.0,1.75,1.0,3.5,2.0,1.5,3.5,1.25,2.0,1.75,1.0,2.25,-0.17,-1.11,4.89,146.73,-0.8,-6.9
3.3,1.75,0.75,0.0,0.25,0.5,3.0,0.25,6.25,1.5,8.5,6.0,7.5,10.5,-0.11,-0.05,1.02,650.1,-4.9,-64.6,1.25,0.75,1.5,1.25,4.25,2.25,1.75,3.0,1.25,2.0,1.5,0.75,2.25,-0.17,-0.17,1.08,212.26,-0.7,-1.7
3.32,0.25,0.0,0.0,0.0,0.75,3.25,0.25,6.25,1.5,8.0,5.5,7.75,9.25,-0.11,-0.05,1.08,667.08,-6.5,-70.9,1.0,1.0,1.25,1.25,3.5,2.5,1.25,2.75,1.25,2.0,1.5,0.75,2.0,-0.48,-1.11,1.27,260.18,0.0,-2.8
3.34,1.75,1.0,0.25,1.25,0.0,3.25,0.5,6.0,1.5,7.25,4.75,6.0,9.75,-0.3,0.02,1.14,674.15,-4.4,-57.8,0.75,1.0,1.75,1.25,3.75,1.75,1.5,2.5,1.0,2.0,1.75,1.0,2.25,0.08,-1.48,1.2,279.43,-1.5,-5.1
3.36,1.5,0.0,0.0,0.0,0.0,2.5,0.0,5.5,1.25,7.25,3.5,5.25,10.5,-0.42,0.02,1.27,638.76,-7.0,-70.1,1.25,0.75,2.5,1.5,3.5,2.25,1.5,3.0,1.25,2.0,1.5,2.0,2.5,2.33,-7.92,2.33,299.36,-2.7,-7.0
3.38,1.0,0.75,0.25,0.0,0.0,1.0,0.0,4.0,1.25,6.25,2.25,5.0,9.25,-0.3,-0.05,1.2,560.54,-5.8,-71.3,0.5,0.25,0.0,1.0,2.25,0.25,0.5,2.5,1.25,2.0,1.25,2.5,2.5,0.2,-0.67,1.2,283.39,1.6,-38.9
3.4,0.0,1.0,0.0,0.5,1.25,0.75,0.0,4.0,0.75,5.75,3.25,4.25,8.5,-0.23,-0.05,1.2,483.63,-6.4,-67.5,0.5,0.25,0.5,0.0,1.75,0.75,0.5,2.5,1.25,1.5,2.25,2.25,3.0,-0.05,-0.11,1.14,270.62,1.4,-45.1
3.42,0.0,0.0,0.0,0.0,1.25,0.5,0.25,4.0,0.75,4.75,3.0,3.75,8.25,-0.3,-0.11,1.2,410.86,-7.3,-75.3,0.5,0.0,1.0,1.0,1.75,1.5,0.5,2.75,1.25,2.0,2.0,2.0,2.75,0.02,0.14,0.95,263.81,1.0,-34.2
3.44,0.0,0.0,0.0,0.0,0.0,0.5,0.0,3.25,0.75,3.5,1.25,2.5,6.5,-0.36,-0.11,1.08,330.76,-9.1,-81.8,1.25,0.5,1.25,2.25,2.75,2.75,1.75,3.25,1.5,4.0,3.75,4.0,4.75,0.02,0.14,0.89,317.54,0.0,-32.3
3.46,0.0,0.0,0.0,0.0,0.75,0.25,0.25,4.0,0.75,2.25,2.25,2.0,6.0,-0.42,-0.17,0.95,275.37,-7.6,-73.1,1.75,0.25,2.75,2.25,5.25,3.25,2.25,4.0,1.25,6.0,5.5,5.75,5.75,0.02,0.08,0.95,432.37,-0.7,-30.3
3.48,0.0,0.0,0.0,0.0,0.0,0.25,0.25,2.25,0.75,2.25,0.5,0.25,3.5,-0.42,-0.17,0.89,200.43,-10.8,-73.9,1.75,0.75,2.5,1.5,4.25,3.0,2.25,5.0,2.5,6.5,7.0,6.5,7.75,0.08,0.08,1.02,595.9,-0.2,-39.6
3.5,0.0,0.0,0.0,0.0,0.0,0.0,0.25,2.25,0.75,2.0,0.5,0.5,2.5,-0.42,0.7,0.14,132.71,-9.4,-73.5,1.75,1.0,2.5,1.25,3.75,2.75,1.75,4.75,2.5,7.25,7.25,7.5,8.25,0.08,0.08,0.95,736.61,-0.1,-43.8
3.52,0.0,0.0,0.0,0.0,0.0,0.0,0.25,2.25,0.75,2.25,0.5,0.5,1.0,-0.11,0.64,0.52,67.72,-8.7,-66.0,0.5,0.25,2.5,1.0,3.5,1.25,1.75,4.0,1.75,6.75,8.25,7.0,8.5,0.02,0.08,1.02,794.42,0.0,-53.4
3.54,0.0,0.0,0.0,0.0,0.0,0.25,0.25,2.25,0.75,2.0,0.5,0.5,0.75,0.08,0.27,0.83,35.11,-8.8,-60.7,0.5,0.25,1.0,1.0,1.5,1.25,0.75,3.5,1.25,6.75,7.25,7.25,8.0,0.08,0.08,1.02,779.81,1.6,-64.5
3.56,0.0,0.0,0.0,0.0,0.0,0.25,0.75,2.25,0.75,1.25,0.5,0.75,1.0,-0.17,0.08,0.77,21.84,-6.2,-59.7,0.5,0.25,1.0,1.0,1.5,0.75,0.5,2.75,1.25,6.75,7.25,7.25,8.25,0.08,0.08,1.02,734.6,1.3,-66.7
3.58,0.75,0.5,0.0,0.5,0.75,1.25,1.25,3.0,1.25,2.0,2.0,1.5,2.0,-0.3,-0.05,0.83,70.63,-1.9,-37.1,0.5,0.25,0.5,1.0,1.75,0.5,0.5,2.75,1.25,6.5,6.5,9.0,8.75,0.14,0.02,1.14,700.03,1.5,-70.4
3.6,1.25,0.75,0.0,0.5,0.75,0.75,1.5,3.0,0.75,2.25,1.75,1.75,1.75,-0.36,-0.05,0.83,119.61,-0.2,-32.5,0.0,0.25,1.0,0.25,1.5,0.75,0.5,2.5,1.25,7.25,6.75,9.0,8.75,0.08,0.08,1.02,681.93,2.0,-73.8
3.62,0.0,0.0,0.0,0.0,0.75,0.0,1.5,2.75,0.75,0.75,1.75,0.5,2.25,-1.3,-2.48,1.33,140.81,-3.6,-54.4,1.0,0.75,1.75,1.25,3.75,2.75,1.0,3.0,1.25,6.75,7.25,7.75,10.5,0.08,-0.23,1.14,721.75,1.4,-52.3
3.64,0.0,0.0,0.0,0.0,0.0,1.0,1.0,2.25,0.75,1.0,1.25,0.5,2.25,-0.73,-2.8,2.33,141.73,-6.8,-57.9,1.25,0.75,2.5,1.25,3.5,2.75,1.0,2.5,1.25,6.5,6.5,9.0,10.5,0.08,-0.11,1.02,749.93,0.3,-51.5
3.66,0.75,0.5,0.0,0.25,0.0,1.5,1.0,2.25,1.0,2.75,0.5,2.0,1.0,-0.23,0.02,0.02,152.83,-3.2,-39.2,0.5,0.5,2.5,1.0,3.5,2.25,0.75,2.5,1.25,5.25,6.25,8.0,10.0,0.02,-0.11,0.95,735.75,0.5,-53.7
3.68,0.75,0.75,0.25,0.0,0.75,0.5,1.5,2.5,0.75,2.0,1.25,0.75,1.0,-0.17,0.02,-0.05,159.37,-0.4,-26.6,0.75,1.25,0.75,1.25,1.5,2.5,0.5,3.0,1.25,6.0,5.75,8.0,9.0,0.02,-0.05,1.08,682.43,2.0,-58.6
3.7,0.0,0.0,0.0,0.0,0.0,0.25,1.0,2.25,0.75,1.25,0.5,0.5,0.75,-0.23,-0.17,0.58,145.53,-5.8,-54.4,0.25,0.75,1.25,1.25,1.25,2.0,0.5,2.25,0.75,5.0,4.75,6.5,8.75,0.14,-0.23,1.08,597.7,2.1,-60.6
3.72,0.0,0.0,0.0,0.0,0.0,0.25,1.0,2.0,0.5,0.75,0.5,1.0,0.75,-0.42,-0.98,0.83,132.7,-4.1,-58.4,0.5,0.5,0.75,1.25,2.25,0.0,1.0,2.0,0.75,3.75,5.25,6.5,8.5,0.27,-0.36,1.08,522.35,0.2,-62.9
3.74,0.0,0.0,0.0,0.0,0.0,0.25,1.0,2.0,0.75,1.25,0.25,0.5,0.75,-0.92,-1.55,0.95,111.66,-6.0,-54.2,0.0,0.25,0.25,1.0,1.25,0.25,0.5,2.0,0.75,3.5,3.75,5.75,8.25,0.33,-0.8,1.27,444.19,2.7,-72.9
3.76,0.0,0.0,0.0,0.0,0.0,0.25,1.0,2.0,0.75,0.75,0.5,0.25,0.75,-1.23,-1.61,1.02,93.37,-5.1,-50.8,0.0,0.75,0.0,1.0,0.25,0.0,0.5,2.0,0.5,3.5,3.25,5.5,7.75,0.27,-0.17,0.7,386.93,2.9,-76.8
3.78,0.0,0.0,0.0,0.0,0.0,0.0,1.0,2.0,0.75,0.5,0.5,0.5,0.75,-1.36,-1.48,1.08,80.41,-3.2,-56.0,0.0,0.5,0.0,1.0,1.0,0.25,0.5,1.75,0.75,3.0,3.0,5.25,7.5,0.02,0.64,0.27,345.26,2.9,-72.3
3.8,0.0,0.0,0.0,0.0,0.0,0.25,1.0,2.0,0.75,1.0,0.0,0.25,0.75,-1.23,-0.86,1.2,72.28,-7.0,-49.8,0.0,0.5,0.5,1.0,1.0,0.0,0.5,1.5,0.5,2.0,3.25,4.5,7.25,0.45,-0.48,1.08,306.55,1.3,-69.4
3.82,0.0,0.0,0.0,0.0,0.0,0.0,1.0,2.0,0.75,0.75,0.5,0.25,0.75,-1.05,-0.73,1.27,65.14,-4.3,-54.5,0.0,0.5,0.0,1.0,0.5,0.0,0.5,1.25,0.75,2.0,2.25,3.25,6.25,0.64,-1.61,1.02,268.2,2.6,-71.6
3.84,0.0,0.0,0.0,0.0,0.0,0.0,1.25,2.25,0.75,1.0,0.5,0.5,1.0,-0.92,-0.55,1.45,73.96,-4.4,-57.4,0.0,0.5,0.0,1.0,1.0,0.0,0.5,1.5,0.75,0.5,1.25,1.0,4.0,0.77,-1.55,0.83,208.11,2.4,-49.6
3.86,0.0,0.0,0.0,0.0,0.0,0.25,1.25,2.25,0.75,0.5,0.0,0.5,0.75,-0.55,-0.42,2.08,78.72,-5.1,-48.0,0.0,0.25,0.25,0.75,1.25,0.0,0.5,1.25,0.5,0.5,0.25,1.0,2.5,0.58,-1.86,0.58,138.48,1.8,-38.1
3.88,0.0,0.0,0.0,0.0,0.0,0.0,1.25,2.0,0.75,0.5,0.0,0.5,0.75,-0.86,-0.8,1.27,77.67,-3.7,-52.2,0.0,0.25,0.5,1.0,1.0,0.0,0.5,1.25,0.75,0.5,1.5,0.5,1.75,0.2,-0.86,1.45,88.24,-2.1,-30.7
3.9,0.75,0.0,0.0,0.0,0.0,0.25,1.25,2.25,0.75,2.25,0.5,1.0,1.0,-0.23,-2.05,1.14,95.94,-2.7,-48.6,0.0,0.25,0.0,1.0,0.5,0.0,0.5,1.75,0.5,0.5,0.5,0.25,1.25,0.7,-0.42,1.83,51.64,2.0,-29.9
3.92,0.0,0.0,0.0,0.0,0.0,0.75,1.25,2.0,0.75,2.25,0.25,0.25,0.75,-0.73,-2.11,1.58,108.4,-8.2,-48.4,0.0,0.25,0.5,1.0,0.25,0.0,0.5,1.75,0.75,0.5,1.0,0.0,1.25,-0.3,-1.11,1.7,38.79,-1.6,-27.5
3.94,0.5,0.0,0.0,0.0,0.0,1.0,1.25,2.0,0.75,2.5,0.25,0.5,0.75,-1.17,-1.42,0.08,125.6,-6.0,-40.9,0.0,0.25,0.25,1.0,1.0,0.0,0.5,1.75,0.5,0.5,0.75,0.25,1.0,0.52,-1.3,1.45,40.11,0.0,-19.3
3.96,0.0,0.0,0.0,0.0,0.0,0.0,1.5,1.75,0.75,0.5,0.25,0.5,0.75,-0.48,-0.98,-0.36,115.63,-1.6,-52.1,0.0,0.25,0.0,1.0,1.25,0.0,0.75,1.5,0.5,0.25,1.5,0.0,0.75,0.33,-1.48,1.89,46.64,-1.3,-15.4
3.98,0.75,0.0,0.5,0.25,0.75,0.75,2.0,2.25,0.75,1.75,1.0,1.25,1.0,-0.11,-0.3,0.58,136.32,0.9,-29.9,0.0,0.25,0.0,0.75,0.5,0.0,0.5,1.5,0.75,0.25,1.25,0.0,1.0,0.27,-1.86,0.89,49.66,-0.2,-30.5
4.0,0.0,0.0,0.75,0.0,0.0,0.0,1.75,2.25,0.75,0.5,1.25,0.25,1.0,-0.05,-0.05,0.77,131.54,2.8,-41.5,0.25,0.25,0.0,0.5,1.0,0.0,0.75,1.25,0.5,0.5,1.5,0.0,1.25,0.2,-1.92,0.27,58.52,-0.4,-27.3
4.02,0.0,0.0,0.0,0.0,0.0,0.0,1.5,1.75,0.75,0.25,0.25,0.25,0.75,-0.17,-0.23,0.58,119.87,-1.4,-47.8,0.0,0.25,0.0,0.5,0.5,0.0,0.5,1.0,0.5,0.5,0.75,0.0,1.0,-0.48,-1.23,1.27,56.87,1.2,-31.8
4.04,0.75,0.5,0.25,0.25,0.0,0.75,1.75,2.25,0.75,2.25,1.25,1.25,1.0,-0.11,-0.36,0.27,134.05,0.1,-35.7,0.0,0.25,0.0,1.0,1.25,0.0,0.5,1.25,0.5,0.25,0.75,0.0,0.5,0.64,-0.05,0.33,65.16,-0.9,-4.4
4.06,0.75,0.0,0.5,0.5,0.5,0.75,2.0,2.25,0.75,2.0,1.25,0.25,1.0,0.2,-0.67,0.27,147.0,0.6,-25.0,0.0,0.25,0.0,0.75,0.5,0.0,0.75,1.25,0.5,0.25,0.0,0.0,1.0,0.27,-0.17,0.39,67.1,1.2,-17.5
4.08,1.0,0.75,0.0,0.25,0.0,0.75,1.5,1.5,0.75,2.25,0.75,1.0,1.0,0.27,-0.92,0.39,157.33,0.4,-28.8,0.0,0.25,0.5,0.5,1.25,0.0,0.75,1.0,0.5,0.25,0.25,0.0,0.75,0.2,-0.48,0.14,76.78,-2.7,-0.9
4.1,0.75,0.5,0.5,0.5,0.0,0.75,2.0,2.25,0.75,2.25,1.0,1.25,1.0,0.14,-1.05,0.33,169.51,1.4,-30.3,0.0,0.25,0.75,0.5,1.0,0.0,0.75,1.0,0.5,0.25,0.5,0.0,0.5,-0.05,-0.55,0.58,79.47,-5.6,0.8
4.12,0.75,0.5,1.5,0.5,0.0,0.75,1.75,2.25,0.75,2.25,1.0,1.25,1.0,-0.11,-1.3,0.14,181.88,4.0,-23.8,0.0,0.25,0.5,1.0,1.25,0.0,1.0,1.25,0.5,0.0,0.25,0.0,0.75,0.02,-0.67,0.89,86.99,-4.4,5.7
4.14,0.0,0.0,0.5,0.0,0.0,0.0,1.25,1.75,0.75,0.0,0.5,1.0,1.0,-0.3,-1.42,0.08,157.02,3.0,-50.3,0.0,0.25,0.5,1.0,1.0,0.0,0.5,1.5,0.5,0.25,0.25,0.0,0.75,0.2,-0.67,0.89,92.51,-2.1,-2.0
4.16,0.75,0.75,0.25,1.0,0.0,0.75,1.75,2.25,0.75,2.25,1.0,1.25,1.0,-0.36,-1.36,0.14,163.78,1.2,-26.5,0.0,0.25,0.0,0.75,1.0,0.0,0.75,1.75,0.5,0.0,0.75,0.0,0.75,0.2,-0.98,0.52,94.34,0.2,-13.2
4.18,0.75,0.25,0.0,0.5,0.0,1.0,2.0,1.5,0.75,0.5,1.0,0.75,1.0,-0.3,-1.3,0.08,150.1,2.8,-23.6,0.0,0.25,0.5,1.0,1.25,0.0,0.75,1.5,0.5,0.25,0.75,0.0,0.5,0.14,-1.17,0.2,99.58,-3.5,-0.3
4.2,0.75,0.5,0.25,1.0,0.0,1.0,2.0,1.75,0.75,2.25,0.75,1.0,1.0,-0.23,-1.11,0.14,159.33,1.2,-24.2,0.0,0.25,0.0,1.0,1.0,0.0,0.75,1.25,0.5,0.0,0.25,0.0,0.5,0.08,-1.17,0.2,95.31,-1.8,2.9
4.22,0.75,0.5,0.5,0.75,0.5,1.0,1.75,2.25,0.75,2.25,1.25,0.75,1.0,-0.11,-0.86,0.2,164.64,0.7,-22.1,0.0,0.0,0.0,0.75,1.25,0.0,0.75,1.0,0.5,0.0,0.75,0.0,0.25,0.14,-1.17,0.14,90.25,-2.7,-1.5
4.24,0.5,0.5,1.0,0.75,0.5,0.75,1.75,2.25,0.75,2.25,1.0,0.75,1.0,-0.11,-0.8,0.2,180.67,1.8,-20.9,0.0,0.25,0.25,1.0,0.5,0.0,0.75,1.25,0.5,0.25,0.25,0.0,0.5,0.2,-1.11,0.14,84.13,-3.3,-3.5
4.26,0.75,0.75,0.25,0.75,0.5,1.0,1.75,2.25,0.75,2.25,0.75,1.0,0.75,-0.11,-0.73,0.14,183.36,0.2,-19.2,0.0,0.25,0.25,0.75,1.0,0.0,0.75,1.25,0.5,0.25,0.5,0.0,0.0,0.27,-0.92,0.14,82.84,-3.9,6.7
4.28,0.75,0.75,1.5,0.75,0.75,1.0,1.75,2.25,0.75,2.25,1.0,1.0,1.0,-0.11,-0.61,0.02,190.99,3.4,-13.2,0.0,0.25,0.0,0.75,1.0,0.0,0.75,1.25,0.5,0.0,0.0,0.0,0.75,0.33,-0.8,0.2,79.38,0.1,-1.8
4.3,0.75,0.5,0.5,0.75,0.5,1.0,1.75,2.25,0.75,2.25,1.0,1.0,1.0,-0.11,-0.48,-0.11,193.49,0.6,-22.7,0.0,0.25,0.5,0.75,0.5,0.0,0.75,1.0,0.5,0.5,0.25,0.0,0.75,0.39,-0.61,0.2,80.59,-3.5,-10.0
4.32,0.75,0.75,0.25,0.5,0.75,1.0,1.75,2.25,0.75,2.25,1.0,1.0,1.0,-0.11,-0.42,-0.3,194.08,-0.2,-21.9,0.0,0.0,0.25,1.0,0.5,0.0,0.75,1.25,0.5,0.0,0.25,0.0,0.75,0.33,-0.55,0.14,77.69,-2.9,-10.6
4.34,1.0,0.75,1.0,1.0,0.0,1.0,1.75,2.25,0.75,2.25,1.0,0.5,1.0,-0.11,-0.36,-0.36,193.13,3.1,-13.5,0.0,0.25,0.0,0.75,1.25,0.0,0.75,1.5,0.5,0.0,0.25,0.0,0.75,0.27,-0.42,0.02,80.46,0.5,-3.7
4.36,0.75,0.75,0.25,1.0,0.75,1.0,1.75,2.25,0.75,2.25,1.0,1.0,1.0,-0.11,-0.3,-0.48,195.58,0.4,-18.8,0.0,0.25,0.5,1.0,1.25,0.0,0.5,1.25,0.5,0.0,0.0,0.0,0.5,0.14,-0.36,-0.05,83.14,-3.8,13.4
4.38,0.75,0.5,0.75,1.0,0.0,1.0,1.75,2.25,0.75,2.25,1.0,0.75,1.0,-0.05,-0.23,-0.55,194.01,1.7,-21.2,0.0,0.25,0.5,1.0,1.0,0.0,0.75,1.5,0.5,0.0,0.0,0.0,0.5,0.02,-0.3,-0.11,87.64,-3.8,9.5
4.4,0.75,0.75,0.25,0.5,0.75,1.0,1.75,2.25,0.75,2.25,1.0,0.75,1.0,0.02,-0.36,-0.67,188.36,-0.4,-20.2,0.0,0.25,0.25,0.5,1.25,0.0,0.75,1.0,0.5,0.0,0.0,0.0,0.5,-0.11,-0.23,-0.23,85.08,-2.2,9.1
4.42,0.75,0.75,0.75,1.25,0.5,1.0,2.0,2.25,0.75,2.25,1.25,1.0,1.0,0.27,-0.17,-0.48,194.0,2.5,-16.6,0.0,0.0,0.25,1.0,1.25,0.0,1.0,1.0,0.5,0.0,0.25,0.0,1.0,-0.17,-0.23,-0.36,87.46,-2.7,-3.7
4.44,0.75,0.5,0.5,1.0,0.0,1.0,1.75,2.25,0.5,0.0,1.0,0.25,1.0,0.08,-0.17,-0.73,175.72,4.3,-5.5,0.0,0.25,0.25,1.0,1.25,0.0,0.75,1.25,0.5,0.0,0.25,0.0,0.25,-0.23,-0.17,-0.55,88.66,-3.9,13.3
4.46,0.75,0.75,0.0,1.0,0.0,1.0,1.25,1.25,0.75,2.25,0.75,0.75,1.0,0.08,-0.11,-0.73,165.06,0.2,-22.4,0.0,0.25,0.0,0.5,1.5,0.0,0.5,1.25,0.5,0.25,0.25,0.0,0.25,-0.73,-0.11,-0.42,87.74,1.0,4.2
4.48,0.5,0.5,0.25,1.0,0.75,0.75,1.5,2.25,0.75,2.25,1.0,0.5,1.0,0.14,-0.11,-0.8,160.74,-0.6,-21.3,0.0,0.0,0.0,0.5,1.5,0.0,0.5,1.0,0.5,0.0,0.0,0.0,0.5,-0.42,-0.11,-0.67,81.78,1.5,3.4
4.5,0.75,0.5,0.5,1.0,0.0,1.0,1.5,2.25,0.75,2.25,1.0,0.75,1.0,0.08,-0.11,-0.92,163.13,0.7,-23.3,0.0,0.0,0.0,0.5,1.0,0.0,0.5,1.0,0.5,0.0,0.75,0.0,0.25,-0.61,-0.05,-0.73,75.55,-1.4,-9.5
4.52,0.5,0.75,0.75,1.0,0.0,0.75,1.5,2.25,0.75,2.25,1.0,0.75,1.0,0.08,-0.05,-0.98,166.02,1.5,-22.4,0.0,0.0,0.25,1.0,1.75,0.0,0.75,1.0,0.5,0.0,0.25,0.0,0.5,-0.61,-0.05,-0.8,78.75,-2.9,10.4
4.54,0.75,0.75,0.25,1.0,0.0,0.75,1.75,2.25,0.75,2.25,0.75,0.5,1.0,0.08,-0.05,-0.98,168.98,0.6,-20.2,0.0,0.25,0.0,0.5,1.0,0.0,0.5,1.0,0.5,0.0,0.0,0.0,0.25,-0.67,-0.05,-0.92,72.71,-0.4,9.7
4.56,0.75,0.75,0.5,1.25,0.75,1.0,1.5,2.25,0.75,2.25,1.0,0.5,1.0,0.14,0.02,-0.98,176.67,0.8,-12.9,0.0,0.25,0.0,0.5,1.25,0.0,0.5,1.0,0.5,0.0,0.5,0.0,0.5,-0.61,-0.05,-0.98,74.12,-0.5,-2.2
4.58,0.5,0.75,1.0,1.0,1.25,1.25,1.5,2.25,0.75,2.25,1.0,0.5,1.0,0.14,0.02,-1.05,185.86,0.8,-9.9,0.0,0.0,0.5,1.0,1.5,0.0,0.5,0.75,0.5,0.0,0.75,0.0,0.25,-0.55,-0.05,-1.05,77.23,-6.5,10.4
4.6,0.75,0.75,1.0,1.25,0.0,0.75,1.5,2.25,0.75,2.25,1.0,0.5,1.0,0.33,0.08,-1.11,189.65,3.0,-15.3,0.0,0.0,0.25,1.0,1.5,0.0,0.5,0.0,0.5,0.0,0.25,0.0,0.5,-0.48,0.02,-1.05,77.14,-6.9,18.0
4.62,0.75,0.75,0.5,1.0,0.0,0.75,1.5,2.25,0.75,2.25,1.0,0.5,0.75,0.2,-0.05,-1.05,186.32,1.6,-18.2,0.0,0.25,0.0,1.0,1.5,0.0,0.5,0.0,0.5,0.25,0.0,0.0,0.75,-0.42,-0.05,-0.98,76.85,-3.0,13.1
4.64,0.75,0.75,0.25,1.25,0.0,0.75,1.25,2.25,0.75,2.25,1.0,0.5,1.0,0.27,-0.11,-0.98,180.48,0.5,-20.6,0.0,0.0,0.5,0.75,1.5,0.0,0.75,0.0,0.5,0.0,0.0,0.0,1.0,-0.42,-0.05,-0.98,76.95,-6.3,9.6
4.66,0.75,0.5,0.25,1.0,0.5,1.0,1.5,2.25,0.75,2.25,0.75,0.75,0.75,0.2,-0.11,-0.98,176.21,-0.1,-18.6,0.0,0.0,0.5,0.5,1.5,0.0,0.75,0.0,0.5,0.0,0.0,0.0,0.25,-0.36,-0.11,-0.98,71.9,-9.5,30.1
4.68,0.75,0.25,0.5,1.25,0.0,1.0,1.5,2.25,0.75,2.25,1.0,0.75,1.0,0.2,-0.17,-0.98,176.34,0.8,-24.1,0.0,0.25,0.0,0.5,1.5,0.0,0.5,0.0,0.5,0.0,0.5,0.0,0.25,-0.48,-0.11,-0.98,67.76,-5.5,17.9
4.7,0.75,0.75,0.75,1.0,0.0,0.75,1.5,2.25,0.75,2.25,0.5,0.75,1.0,0.2,-0.17,-0.92,174.57,1.8,-18.0,0.5,0.0,0.0,0.75,1.5,0.0,0.5,0.75,0.5,0.0,0.0,0.0,0.25,-0.36,-0.17,-1.05,69.44,-4.6,24.1
4.72,0.75,0.75,0.75,0.75,0.0,1.0,1.25,2.0,0.75,2.25,1.25,0.5,1.0,0.2,-0.17,-0.92,173.65,1.5,-20.2,0.0,0.25,0.25,0.75,1.75,0.0,0.75,0.0,0.5,0.0,0.0,0.0,0.5,-0.36,-0.17,-0.98,71.96,-6.5,27.5
4.74,0.75,0.5,0.75,1.0,0.0,1.0,1.5,2.25,0.75,2.25,1.0,0.5,1.0,0.33,-0.11,-0.92,173.69,1.3,-19.8,0.0,0.0,0.5,0.5,1.5,0.0,0.75,0.25,0.5,0.0,0.0,0.0,0.75,-0.3,-0.17,-0.92,73.09,-5.5,10.9
4.76,0.75,0.75,0.25,1.0,0.5,0.75,1.75,2.25,0.75,2.25,0.5,0.5,0.75,0.14,-0.11,-0.92,171.93,0.5,-13.6,0.0,0.0,0.25,0.75,1.25,0.0,0.5,0.75,0.5,0.0,0.75,0.0,1.0,-0.23,-0.11,-0.92,78.02,-2.3,-12.3
4.78,0.5,0.5,0.25,1.0,0.0,1.0,1.5,1.75,0.75,2.25,1.0,1.0,1.0,0.2,-0.11,-0.8,168.51,0.1,-28.8,0.0,0.0,0.25,0.5,1.5,0.0,0.75,0.75,0.5,0.0,0.0,0.0,0.25,-0.23,-0.17,-0.86,77.6,-3.3,16.5
4.8,0.75,0.5,0.5,1.0,0.0,0.75,1.5,1.75,0.75,2.25,1.25,0.5,1.0,0.2,-0.11,-0.73,164.73,2.0,-23.1,0.0,0.0,0.0,1.0,1.5,0.0,0.5,0.75,0.5,0.0,0.0,0.0,0.75,-0.3,-0.23,-0.73,77.83,-0.5,5.3
4.82,0.75,0.75,0.25,1.0,0.0,0.75,1.5,1.75,0.75,2.25,1.25,0.5,1.25,0.14,-0.11,-0.55,164.36,1.1,-24.1,0.0,0.0,0.5,0.5,0.25,0.0,0.75,0.0,0.5,0.0,0.25,0.0,0.5,-0.3,-0.17,-0.73,66.26,-13.9,-2.3
4.84,0.5,0.25,0.75,1.25,0.0,0.75,1.5,2.25,0.75,2.25,0.75,0.5,1.0,0.08,-0.17,-0.55,165.12,1.0,-23.0,0.0,0.0,0.5,0.5,1.5,0.0,0.5,0.0,0.5,0.0,0.25,0.0,0.5,-0.3,-0.17,-0.67,65.71,-7.5,15.7
4.86,0.75,0.5,0.5,0.75,0.0,0.75,1.5,2.25,0.75,2.25,0.75,1.0,1.0,0.08,-0.23,-0.42,166.1,0.8,-27.0,0.0,0.0,0.5,0.75,1.0,0.0,0.75,0.0,0.5,0.25,0.0,0.0,0.5,-0.3,-0.17,-0.73,61.99,-8.8,13.2
4.88,0.5,0.75,0.25,1.0,0.0,0.75,1.75,2.25,0.75,2.25,0.75,0.5,1.0,0.08,-0.3,-0.36,165.01,0.0,-22.6,0.0,0.0,0.0,0.5,1.25,0.0,0.5,0.5,0.5,0.0,0.0,0.0,0.5,-0.23,-0.17,-0.61,61.33,-0.6,5.2
4.9,0.75,0.5,0.25,1.25,0.0,0.75,2.0,2.25,0.75,2.25,0.75,0.5,0.75,0.08,-0.48,-0.11,164.87,1.3,-18.7,0.0,0.0,0.0,0.75,1.25,0.0,0.5,0.0,0.5,0.0,0.0,0.0,0.25,-0.17,-0.23,-0.48,57.45,-5.8,25.4
4.92,0.75,0.75,0.5,1.0,0.0,0.5,1.5,1.5,0.75,2.25,1.25,0.5,1.0,0.08,-0.61,0.08,163.46,3.1,-21.2,0.0,0.0,0.0,0.5,1.25,0.0,0.75,0.0,0.5,0.0,0.0,0.0,0.25,-0.17,-0.36,-0.3,53.07,-5.9,22.8
4.94,0.75,0.75,0.25,1.0,0.75,0.75,1.75,2.25,0.75,2.25,1.0,0.75,1.0,0.02,-0.73,0.27,170.78,0.6,-18.1,0.0,0.0,0.25,0.75,1.25,0.0,0.75,0.0,0.5,0.0,0.0,0.0,0.25,-0.05,-0.55,-0.23,51.63,-9.0,28.0
4.96,1.0,0.75,0.5,1.25,0.0,0.75,1.75,2.25,0.75,2.25,1.0,0.75,1.0,-0.11,-0.92,0.27,176.89,2.6,-17.7,0.0,0.0,0.0,0.75,1.25,0.0,0.75,0.25,0.5,0.0,0.0,0.0,0.25,0.02,-0.67,-0.05,52.03,-5.1,21.0
4.98,0.5,0.25,0.75,1.0,0.0,0.75,1.25,2.25,0.75,2.25,1.0,0.5,0.75,-0.17,-0.98,0.27,174.91,0.9,-24.6,0.0,0.0,0.0,0.75,1.5,0.0,0.5,0.25,0.5,0.0,0.5,0.0,0.5,0.08,-0.8,0.02,58.57,-3.4,5.1
5.0,0.75,0.75,0.5,1.0,0.0,0.75,1.5,2.0,0.75,2.25,1.75,0.75,1.0,-0.11,-0.98,0.2,177.43,2.3,-24.6,0.0,0.0,0.0,0.75,1.0,0.0,0.75,0.0,0.5,0.0,0.0,0.0,0.25,0.14,-0.86,0.14,56.45,-7.8,22.9
5.02,0.5,0.5,0.5,1.25,0.75,0.75,1.5,1.75,0.75,2.25,1.25,0.5,1.0,-0.05,-1.05,0.14,177.64,1.3,-18.3,0.0,0.0,0.0,0.75,1.25,0.0,0.5,0.75,0.5,0.0,0.25,0.0,0.5,0.2,-0.92,0.2,62.26,-1.2,1.4
5.04,0.5,0.5,1.0,1.0,0.75,0.75,1.5,2.25,0.75,2.25,1.0,1.0,0.75,0.08,-1.11,0.2,182.34,2.1,-18.1,0.0,0.0,0.0,1.0,1.25,0.0,0.5,0.25,0.5,0.0,0.0,0.0,0.75,0.2,-0.92,0.2,63.79,-2.8,7.3
5.06,0.75,0.75,0.25,1.25,0.5,0.75,1.5,2.25,0.75,2.25,1.0,0.75,1.0,0.14,-1.17,0.27,184.39,0.8,-18.6,0.25,0.0,0.0,0.75,1.5,0.0,0.5,0.25,0.5,0.0,0.0,0.0,0.5,0.27,-0.86,0.14,68.45,-4.3,19.4
5.08,1.0,0.5,0.75,1.0,0.75,0.75,1.25,1.75,0.75,2.25,1.25,0.5,0.75,0.2,-1.23,0.33,186.19,3.0,-12.6,0.0,0.0,0.0,0.75,1.0,0.0,0.75,0.75,0.5,0.0,0.0,0.0,0.5,0.33,-0.8,0.02,67.18,-1.8,3.1
5.1,0.75,0.25,0.5,1.0,0.0,0.75,1.5,1.5,0.75,2.25,0.75,0.5,0.75,0.14,-1.36,0.39,174.48,2.1,-21.1,0.0,0.0,0.0,0.75,1.0,0.0,0.75,0.75,0.5,0.0,0.0,0.0,0.25,0.27,-0.8,0.02,66.67,-2.9,10.7
5.12,0.75,0.75,0.25,0.75,0.75,0.75,1.5,2.25,0.75,2.25,0.75,0.5,1.25,0.08,-1.36,0.45,172.98,-0.6,-19.1,0.0,0.0,0.0,0.5,1.25,0.0,0.75,0.5,0.5,0.0,0.25,0.0,0.25,0.2,-0.8,0.08,64.78,-3.2,8.5
5.14,0.75,0.5,1.0,1.0,0.5,0.75,1.25,1.75,0.75,2.25,1.0,0.75,1.0,-0.05,-1.42,0.45,172.28,2.9,-17.3,0.5,0.0,0.0,0.75,1.25,0.0,0.75,0.75,0.5,0.0,0.0,0.0,0.75,0.14,-0.86,0.08,69.89,-3.8,8.9
5.16,0.75,0.5,1.25,1.25,0.0,0.75,1.5,2.25,0.75,2.25,1.0,0.75,1.0,-0.11,-1.42,0.52,178.09,3.6,-17.8,0.0,0.0,0.25,0.75,1.25,0.0,0.5,0.75,0.5,0.0,0.25,0.0,0.75,0.2,-0.92,0.08,74.2,-2.3,-1.2
5.18,0.75,0.75,0.25,1.25,1.75,0.75,1.5,2.75,0.75,2.25,1.5,0.75,1.0,-0.17,-1.42,0.52,191.8,0.1,-14.2,0.25,0.0,0.0,0.75,1.25,0.0,0.75,1.0,0.5,0.0,0.75,0.0,0.25,0.14,-0.98,0.14,79.92,-4.1,2.7
5.2,0.5,0.5,0.25,1.0,0.5,0.5,1.5,2.25,0.75,2.25,1.0,0.5,1.0,-0.17,-1.36,0.58,189.0,-0.1,-24.3,1.0,0.0,0.0,1.0,1.25,0.0,0.5,1.0,0.5,0.0,0.0,0.0,0.25,0.08,-0.98,0.33,85.15,-7.2,27.6
5.22,0.5,0.5,0.75,1.0,1.25,0.75,1.75,1.75,0.75,2.25,0.75,0.5,0.75,-0.17,-1.3,0.58,187.91,1.8,-10.5,0.0,0.0,0.0,0.5,1.5,0.0,0.5,1.0,0.5,0.0,0.0,0.0,0.25,0.08,-1.05,0.39,81.97,0.7,10.2
5.24,0.75,0.75,1.0,1.0,0.0,0.75,1.5,1.75,0.75,2.25,1.25,0.75,1.0,-0.17,-1.23,0.52,181.16,3.8,-18.9,0.0,0.0,0.0,1.0,1.5,0.0,0.5,1.0,0.5,0.0,0.0,0.0,0.25,0.2,-1.05,0.52,80.98,-1.2,15.5
5.26,0.75,0.25,0.5,0.75,0.5,0.75,1.5,2.25,0.75,2.25,1.0,0.75,1.0,-0.17,-1.17,0.39,177.84,0.4,-25.1,0.5,0.0,0.0,1.0,1.25,0.0,0.5,1.0,0.5,0.0,0.0,0.0,0.5,0.27,-1.05,0.52,80.29,-3.7,14.5
5.28,0.75,0.5,0.25,1.0,0.75,0.75,1.5,1.75,0.75,2.25,0.0,0.5,1.0,-0.17,-1.11,0.39,169.7,-0.2,-13.3,0.75,0.75,0.25,1.0,1.0,1.25,0.75,1.0,0.75,1.25,0.0,0.5,0.75,0.27,-0.98,0.52,105.49,-0.9,3.3
5.3,0.75,0.75,0.25,0.75,0.0,0.75,1.5,2.0,0.75,2.25,1.0,0.5,1.0,-0.11,-0.98,0.39,166.04,0.4,-23.3,0.25,0.0,2.0,0.5,3.5,0.0,1.5,1.0,0.5,0.0,0.0,0.0,0.25,0.2,-0.98,0.45,128.0,-9.8,35.2
5.32,0.75,0.5,0.25,1.0,0.5,0.75,1.25,2.0,0.75,2.25,1.0,0.5,1.0,-0.17,-0.92,0.39,164.69,0.0,-20.9,0.75,0.75,0.0,1.25,0.25,1.25,1.0,1.0,0.75,1.25,0.25,0.5,0.75,0.2,-0.92,0.39,144.85,-1.4,-3.2
5.34,0.75,0.75,0.25,1.0,0.0,0.75,1.5,1.0,0.75,2.25,1.25,0.75,1.0,-0.17,-0.86,0.33,161.28,2.8,-23.1,0.75,0.5,1.5,1.25,3.5,0.25,1.25,1.5,0.5,0.0,1.5,0.0,1.75,0.14,-0.8,0.45,175.37,-5.9,10.2
5.36,0.75,0.5,0.25,1.0,0.0,0.75,1.5,2.0,0.75,2.25,0.0,0.5,0.75,-0.11,-0.8,0.39,153.65,0.0,-17.2,0.0,0.0,0.0,1.0,1.25,0.0,0.5,1.0,0.75,0.75,0.0,0.0,0.5,0.08,-0.8,0.52,158.42,0.9,-6.2
5.38,0.5,0.75,0.5,0.75,0.5,0.75,1.5,1.75,0.75,2.25,1.25,0.5,1.0,-0.11,-0.8,0.52,155.72,1.0,-20.9,0.75,0.75,1.75,1.25,3.5,1.25,1.0,1.5,0.75,0.75,1.25,0.5,1.5,0.14,-0.8,0.64,190.12,-4.1,8.5
5.4,0.5,0.5,1.0,1.0,0.5,0.75,1.5,1.75,0.75,2.25,1.0,0.5,0.75,-0.17,-0.86,0.52,159.04,2.8,-15.2,0.5,0.75,1.75,1.25,3.5,1.0,1.0,1.75,0.5,0.75,1.5,0.5,1.25,0.2,-0.67,0.77,209.18,-4.0,7.5
5.42,0.75,0.5,0.25,1.0,0.0,0.75,1.25,1.5,0.75,2.25,1.5,0.75,1.0,-0.17,-0.98,0.58,161.09,1.6,-28.1,0.5,0.75,1.75,1.0,3.5,1.25,1.0,1.5,0.75,0.75,1.0,0.5,1.25,0.27,-0.86,0.77,233.7,-3.7,9.6
5.44,0.5,0.5,0.25,0.75,0.75,0.75,1.5,1.75,0.75,2.25,0.75,0.5,0.75,-0.36,-1.3,0.95,162.39,-0.3,-19.2,0.5,0.75,1.5,1.25,3.5,0.75,1.0,1.75,0.75,0.75,1.5,0.5,1.25,0.45,-1.23,1.08,241.49,-4.0,5.5
5.46,0.75,0.5,0.25,1.0,0.5,0.75,1.5,2.25,0.75,2.25,0.5,0.5,0.25,-0.48,-1.55,1.2,160.3,0.5,-12.2,0.5,0.75,1.5,1.0,3.5,1.0,1.0,1.5,0.75,0.75,1.5,0.5,1.0,0.7,-1.55,1.27,246.0,-4.0,7.7
5.48,0.75,0.5,0.25,1.0,0.75,0.75,1.5,2.0,0.75,2.25,0.75,0.5,1.0,-0.67,-1.73,1.39,162.96,0.1,-17.6,0.75,0.75,1.75,1.25,3.5,1.25,1.0,1.25,0.5,1.0,2.0,0.5,0.75,0.83,-1.67,1.45,245.22,-5.2,10.6
5.5,0.75,0.5,0.25,0.25,0.0,0.75,1.5,1.5,0.75,2.25,1.0,0.5,1.0,-0.8,-1.86,1.39,157.82,0.1,-29.8,0.75,0.75,1.75,1.25,3.5,1.0,1.0,2.0,0.5,0.75,1.5,0.5,0.5,0.95,-1.73,1.45,241.95,-5.0,13.8
5.52,0.75,0.5,0.5,0.75,0.75,0.75,1.25,1.75,0.75,2.25,1.25,0.5,0.75,-0.86,-1.73,1.08,162.13,1.3,-17.9,0.75,0.75,1.75,1.25,3.5,1.25,1.0,1.75,0.75,0.75,1.25,0.5,1.0,1.02,-1.61,1.33,242.64,-4.4,11.6
5.54,0.75,0.75,0.25,0.5,0.75,0.75,1.5,2.0,0.75,2.25,1.0,0.75,0.5,-0.8,-1.48,0.83,163.26,0.6,-17.5,1.0,1.0,1.75,1.25,3.5,0.75,1.25,1.5,0.5,1.0,1.5,0.5,1.0,0.95,-1.3,0.95,243.4,-5.9,12.5
5.56,0.75,0.5,0.25,0.5,0.5,0.75,1.5,1.75,0.75,2.25,0.75,0.75,0.75,-0.67,-1.17,0.64,162.78,0.2,-22.5,0.5,0.75,1.75,1.25,3.5,1.25,1.0,1.5,0.75,1.0,1.5,0.5,1.25,0.83,-0.98,0.77,243.47,-3.8,6.6
5.58,0.25,0.5,0.75,1.25,0.0,0.75,1.5,1.75,0.75,2.25,0.75,0.5,1.0,-0.55,-0.86,0.58,161.82,1.4,-22.0,0.75,0.75,1.5,1.25,3.5,1.0,1.0,1.25,0.75,1.0,2.0,0.5,1.0,0.58,-0.67,0.52,239.88,-4.9,6.8
5.6,0.75,0.25,0.25,0.25,0.75,0.75,1.5,2.0,0.75,2.25,0.5,0.5,0.75,-0.42,-0.67,0.39,157.61,-1.3,-22.5,0.0,0.0,1.75,1.0,3.5,0.0,1.0,1.5,0.5,1.0,1.5,0.5,1.0,0.33,-0.42,0.33,226.73,-4.5,-2.2
5.62,0.75,0.75,0.5,0.5,0.5,0.75,2.0,1.75,0.75,2.25,1.25,0.5,1.0,-0.36,-0.55,0.33,160.78,1.9,-19.3,0.5,0.75,1.75,1.0,3.5,1.25,1.0,1.25,0.75,0.75,1.5,0.5,0.75,0.14,-0.36,0.27,215.79,-4.8,11.8
5.64,0.75,0.5,0.25,0.75,0.75,0.75,1.5,1.75,0.75,2.25,1.0,0.75,1.0,-0.3,-0.42,0.33,164.15,0.4,-21.8,0.5,1.0,1.5,1.5,3.5,1.25,1.25,1.25,0.5,1.0,1.5,0.5,1.25,0.08,-0.36,0.27,217.99,-4.0,9.6
5.66,0.25,0.25,0.25,1.0,0.75,0.5,1.5,2.0,0.75,2.25,1.25,0.5,1.0,-0.17,-0.36,0.27,167.29,-0.6,-28.3,0.0,0.0,1.75,0.75,3.5,0.0,1.0,1.25,0.5,0.0,1.0,0.0,1.25,0.08,-0.42,0.27,201.92,-5.6,9.2
5.68,0.75,0.5,0.25,0.75,0.0,1.0,1.5,1.5,0.75,2.25,0.75,0.5,0.75,-0.11,-0.36,0.2,162.06,0.5,-20.9,0.75,0.25,0.0,1.25,0.5,1.25,1.0,1.25,0.5,0.75,1.5,0.5,1.0,0.08,-0.48,0.27,178.21,-1.6,-14.7
5.7,0.75,0.5,0.25,0.25,0.5,0.75,1.25,2.0,0.75,2.25,1.25,0.75,0.5,-0.11,-0.42,0.14,159.06,0.0,-25.6,0.75,0.75,0.0,1.25,1.25,1.25,0.5,0.75,0.75,1.0,0.0,0.5,0.25,0.14,-0.48,0.39,151.51,-1.6,14.5
5.72,0.75,0.75,0.25,1.0,0.75,0.75,1.5,2.0,0.75,2.25,0.25,0.5,0.75,-0.11,-0.42,0.14,159.49,0.2,-10.5,0.75,0.5,1.75,1.0,3.5,1.25,1.0,1.5,0.75,0.75,0.75,0.5,1.25,0.2,-0.55,0.45,162.09,-3.9,10.8
5.74,0.75,0.75,0.25,1.0,0.5,0.75,1.5,1.75,0.75,2.25,1.25,0.5,0.75,-0.11,-0.48,0.08,164.49,1.5,-16.7,0.0,0.0,1.75,0.75,3.5,0.0,1.0,1.5,0.5,0.0,0.25,0.0,0.25,0.2,-0.61,0.45,153.33,-6.7,27.2
5.76,0.75,0.5,0.25,1.0,0.75,1.0,1.5,2.0,0.75,2.25,1.0,0.5,1.0,-0.17,-0.48,0.08,170.32,-0.1,-17.7,0.0,0.0,0.0,0.5,1.5,0.0,0.5,0.75,0.5,0.0,0.0,0.0,0.25,0.33,-0.67,0.52,124.35,-0.2,13.3
5.78,0.75,0.75,0.25,1.0,0.0,0.75,1.5,1.25,0.75,2.25,0.75,0.5,1.0,-0.23,-0.55,0.14,167.73,1.8,-19.0,0.0,0.0,0.0,0.5,1.5,0.0,0.5,0.75,0.25,0.0,0.0,0.0,0.25,0.39,-0.67,0.52,85.54,0.5,16.7
5.8,0.5,0.5,0.25,1.0,1.25,0.75,1.5,1.75,0.75,2.25,0.0,0.5,0.75,-0.36,-0.8,0.27,166.45,-0.7,-9.9,0.0,0.0,0.0,0.75,1.5,0.0,0.5,0.75,0.25,0.0,0.0,0.0,0.25,0.52,-0.67,0.58,54.61,-0.6,19.4
5.82,0.75,0.5,0.25,0.25,1.25,1.0,1.5,1.5,0.75,2.25,1.25,0.5,1.0,-0.42,-0.92,0.45,166.06,-0.4,-19.5,0.25,0.0,0.0,1.0,1.0,0.0,0.5,1.0,0.5,0.0,0.0,0.0,0.5,0.64,-0.61,0.52,40.47,-2.6,8.0
5.84,0.75,0.5,0.25,0.75,0.75,0.5,1.5,2.0,0.75,2.25,0.75,0.75,1.25,-0.48,-1.11,0.7,168.01,0.0,-24.1,0.0,0.0,0.0,1.0,0.25,0.0,0.75,1.0,0.75,0.75,0.0,0.25,0.25,0.64,-0.55,0.39,39.7,-1.6,-19.9
5.86,0.25,0.5,0.25,0.5,0.0,0.5,1.5,1.75,0.75,2.25,1.0,0.5,0.75,-0.61,-1.17,0.89,159.15,-0.5,-33.3,0.5,0.75,1.75,1.25,3.5,1.0,1.0,1.25,0.5,1.0,1.5,0.25,1.0,0.7,-0.55,0.39,101.26,-4.6,11.5
5.88,0.75,0.5,0.25,0.75,0.5,0.75,1.25,1.75,0.75,2.25,0.25,0.5,0.75,-0.61,-1.23,0.89,155.29,-0.3,-16.5,0.75,1.0,1.75,1.25,3.5,1.25,1.0,1.25,0.75,0.75,1.25,0.25,1.25,0.77,-0.55,0.33,158.02,-4.8,14.5
5.9,0.75,0.25,0.25,0.5,0.75,0.75,1.5,1.75,0.75,2.25,1.0,0.75,1.25,-0.67,-1.11,0.83,155.98,-0.4,-28.2,1.0,0.0,1.75,1.0,3.5,0.0,1.25,1.25,0.25,0.0,1.5,0.0,1.25,0.7,-0.48,0.39,193.36,-8.3,14.6
5.92,0.5,0.25,0.25,0.25,0.75,0.75,1.5,1.75,0.75,2.25,1.25,0.5,1.0,-0.73,-0.98,0.77,156.05,-1.2,-30.2,0.75,0.75,1.0,1.0,3.0,1.25,1.5,1.75,0.5,0.75,1.0,0.5,1.0,0.64,-0.42,0.58,211.82,-2.9,9.0
5.94,0.5,0.5,0.25,0.5,0.75,0.75,1.5,2.0,0.75,2.25,0.75,0.5,1.0,-0.73,-0.86,0.64,157.38,-1.4,-23.5,0.75,0.75,2.0,1.0,3.5,0.75,1.0,1.0,0.75,1.0,1.5,0.5,1.5,0.64,-0.36,0.64,225.39,-5.7,6.7
5.96,0.5,0.5,0.25,1.0,0.75,0.75,1.5,2.25,0.75,2.25,0.5,0.5,1.0,-0.73,-0.67,0.58,161.07,-1.1,-19.1,0.75,0.75,1.25,1.25,3.5,0.75,1.0,1.0,0.75,0.75,1.5,0.5,1.25,0.64,-0.42,0.64,229.41,-4.9,8.2
5.98,0.5,0.5,0.25,0.5,0.75,0.75,1.5,2.25,0.75,2.25,0.5,0.5,1.0,-0.73,-0.55,0.52,161.77,-2.0,-22.7,0.5,0.5,1.75,1.0,3.5,1.0,1.0,1.25,0.75,0.75,1.5,0.5,1.0,0.7,-0.42,0.58,238.18,-4.8,7.8
6.0,0.75,0.5,0.25,0.75,0.75,0.75,1.5,2.0,0.75,2.25,0.75,0.5,0.75,-0.67,-0.48,0.39,163.23,0.0,-17.2,0.5,0.75,1.75,1.25,3.5,0.75,1.0,1.25,0.5,0.75,1.5,0.5,1.25,0.77,-0.42,0.52,244.05,-5.1,8.6
6.02,0.5,0.5,0.25,1.0,0.75,0.75,1.5,2.25,0.75,2.25,0.75,0.5,0.5,-0.61,-0.36,0.33,165.22,-0.3,-16.2,0.75,0.75,1.75,1.0,3.5,0.75,1.0,1.25,0.5,0.75,1.25,0.5,1.0,0.7,-0.48,0.52,240.38,-5.6,12.6
6.04,0.25,0.75,0.25,0.5,0.75,0.75,1.5,2.25,0.75,2.25,1.25,0.5,0.75,-0.55,-0.42,0.33,166.32,-1.3,-23.7,0.75,0.5,1.75,1.25,3.5,0.75,1.0,1.25,0.5,1.0,1.5,0.5,1.5,0.64,-0.48,0.58,237.89,-4.8,5.2
6.06,0.0,0.25,0.25,0.5,0.75,0.75,1.75,2.25,0.75,2.25,0.75,0.75,1.0,-0.55,-0.48,0.33,164.85,-2.9,-33.0,0.5,0.75,1.75,1.0,3.5,1.0,1.0,1.0,0.5,1.0,1.5,0.5,1.25,0.58,-0.48,0.52,233.33,-4.5,7.5
6.08,0.75,0.5,0.25,0.25,0.0,0.75,1.5,1.75,0.75,2.25,0.5,0.5,1.0,-0.55,-0.67,0.33,158.02,-0.7,-27.8,0.5,0.75,1.75,1.0,3.5,1.0,1.0,1.0,0.5,0.75,1.5,0.5,1.0,0.58,-0.48,0.52,226.44,-5.2,11.0
6.1,0.0,0.75,0.25,0.75,0.5,0.75,1.5,2.25,0.75,2.25,0.75,0.5,0.75,-0.55,-0.67,0.52,156.49,-2.1,-24.1,0.5,0.75,1.75,1.25,3.5,0.5,1.0,1.25,0.5,0.75,1.5,0.5,1.25,0.52,-0.42,0.52,217.55,-5.6,8.2
