time,left pressure 0[N/cm虏],left pressure 1[N/cm虏],left pressure 2[N/cm虏],left pressure 3[N/cm虏],left pressure 4[N/cm虏],left pressure 5[N/cm虏],left pressure 6[N/cm虏],left pressure 7[N/cm虏],left pressure 8[N/cm虏],left pressure 9[N/cm虏],left pressure 10[N/cm虏],left pressure 11[N/cm虏],left pressure 12[N/cm虏],left acceleration X[g],left acceleration Y[g],left acceleration Z[g],left total force[N],left center of pressure X[mm],left center of pressure Y[mm],right pressure 0[N/cm虏],right pressure 1[N/cm虏],right pressure 2[N/cm虏],right pressure 3[N/cm虏],right pressure 4[N/cm虏],right pressure 5[N/cm虏],right pressure 6[N/cm虏],right pressure 7[N/cm虏],right pressure 8[N/cm虏],right pressure 9[N/cm虏],right pressure 10[N/cm虏],right pressure 11[N/cm虏],right pressure 12[N/cm虏],right acceleration X[g],right acceleration Y[g],right acceleration Z[g],right total force[N],right center of pressure X[mm],right center of pressure Y[mm]
0.02,0.75,0.75,4.5,2.75,2.25,0.25,0.25,0.75,0.75,0.25,1.5,0.0,0.25,-0.11,0.27,1.14,280.13,16.6,34.4,3.0,1.75,4.0,4.75,3.75,5.0,4.75,5.5,4.75,6.75,6.75,5.5,6.5,0.08,0.08,0.95,889.08,-3.3,-21.1
0.04,0.5,0.75,2.0,2.5,0.5,0.25,0.0,0.0,0.75,0.5,0.25,0.0,0.0,-0.11,0.39,1.27,216.93,17.8,43.0,3.0,1.75,3.25,4.75,3.25,5.0,4.75,5.75,4.75,6.75,7.0,5.75,6.75,0.08,0.08,0.95,904.64,-2.8,-23.9
0.06,0.25,0.75,0.75,1.75,0.5,0.25,0.0,0.0,0.5,0.0,0.25,0.0,0.0,-0.11,0.45,1.27,135.51,15.5,49.2,3.0,1.75,3.5,4.25,3.75,5.0,4.75,6.0,4.75,7.25,7.5,6.25,7.0,0.08,0.08,0.95,924.92,-2.6,-25.5
0.08,0.25,0.75,0.0,1.0,0.5,0.25,0.0,0.0,0.5,0.25,0.25,0.0,0.25,-0.3,-0.11,1.14,60.0,7.2,27.8,3.0,1.75,3.25,4.5,3.5,5.0,4.75,6.25,4.75,7.25,7.75,6.25,7.5,0.08,0.08,0.95,943.58,-2.3,-26.8
0.1,0.25,0.5,0.0,1.5,0.5,0.5,0.25,0.0,0.25,0.0,0.25,0.0,0.0,-0.3,-0.48,1.02,14.75,9.6,47.0,2.75,1.75,2.75,4.25,3.5,5.0,4.75,6.0,4.75,7.25,7.75,6.25,7.75,0.08,0.08,0.95,952.61,-1.9,-28.6
0.12,0.0,0.5,0.0,0.75,0.5,0.5,0.25,0.0,0.25,0.5,0.25,0.0,0.0,-0.48,-0.61,1.02,0.0,2.5,23.4,3.0,1.75,2.75,4.5,3.5,5.0,5.0,6.0,4.75,7.25,7.5,6.25,7.75,0.08,0.08,0.95,956.51,-2.1,-27.5
0.14,0.25,0.75,0.0,1.0,0.5,0.5,0.25,0.0,0.25,0.25,0.25,0.0,0.0,-0.17,-0.55,0.89,0.0,7.2,41.3,3.0,1.75,3.25,4.5,3.5,5.0,5.0,6.0,4.75,7.25,7.5,6.25,7.5,0.08,0.08,0.95,959.53,-2.4,-26.4
0.16,0.0,0.75,0.0,1.25,0.5,0.25,0.25,0.0,0.25,0.5,0.25,0.0,0.0,-0.11,-0.61,0.89,0.0,6.6,32.2,3.0,1.75,3.75,5.0,3.5,5.0,5.0,6.0,5.0,7.25,7.75,6.25,7.25,0.08,0.08,0.95,967.17,-3.0,-24.9
0.18,0.0,0.5,0.0,1.5,0.5,0.5,0.25,0.0,0.25,0.5,0.25,0.0,0.0,-0.05,-0.55,0.83,4.32,5.2,29.8,3.0,1.75,3.5,4.75,3.5,5.0,5.0,6.0,5.25,7.25,7.5,6.25,7.25,0.08,0.08,0.95,970.17,-2.8,-25.5
0.2,0.0,0.5,0.0,1.25,0.5,0.5,0.5,0.0,0.25,0.5,0.25,0.0,0.0,-0.05,-0.48,0.77,10.66,5.3,27.9,3.0,1.75,3.5,4.75,3.5,5.0,5.0,6.0,5.25,7.0,7.25,6.0,7.25,0.08,0.08,0.95,968.3,-2.8,-24.8
0.22,0.0,0.5,0.0,0.5,0.5,0.5,0.25,0.0,0.25,0.0,1.25,0.0,0.0,-0.05,-0.36,0.77,15.65,6.2,8.4,3.0,1.75,4.0,5.0,3.5,5.0,5.25,6.0,5.25,6.75,7.5,5.75,7.0,0.08,0.08,0.95,965.72,-3.4,-22.9
0.24,0.0,0.5,0.0,0.25,0.5,0.5,0.25,0.0,0.25,0.5,0.0,0.0,0.0,-0.05,-0.23,0.77,24.13,-0.9,25.6,3.0,2.0,4.0,5.0,3.5,5.0,5.5,6.0,5.25,6.75,7.25,5.75,6.75,0.08,0.08,0.95,961.35,-3.5,-21.8
0.26,0.0,0.5,0.0,1.25,0.5,0.5,0.25,0.0,0.25,0.25,0.25,0.0,0.0,-0.05,-0.11,0.83,40.51,5.8,34.9,3.0,2.25,4.0,5.0,3.5,5.0,5.75,6.0,5.25,6.75,7.25,5.5,6.25,0.08,0.08,0.95,959.74,-3.7,-20.1
0.28,0.0,0.5,0.0,1.25,0.5,0.5,0.5,0.0,0.25,0.0,0.25,0.0,0.0,-0.05,0.02,0.89,50.47,8.2,42.3,3.0,2.25,4.0,5.0,3.75,5.0,5.75,5.75,5.25,6.0,7.25,5.5,6.25,0.08,0.08,0.95,953.56,-4.0,-19.0
0.3,0.0,0.5,0.0,1.5,0.5,0.5,0.5,0.0,0.0,0.0,0.25,0.0,0.0,-0.11,0.14,1.02,56.89,8.6,49.0,3.5,2.25,4.0,5.25,3.75,5.0,6.25,5.75,5.25,6.0,7.0,5.25,5.75,0.08,0.08,0.95,948.37,-4.5,-16.3
0.32,0.0,0.5,0.0,1.25,0.5,0.75,0.5,0.0,0.0,0.0,0.25,0.0,0.0,-0.11,0.27,1.2,59.43,5.9,47.3,4.0,2.5,5.0,6.0,3.75,5.25,6.5,5.75,5.5,6.0,7.25,4.75,5.5,0.08,0.08,0.95,967.16,-5.5,-11.9
0.34,0.0,0.5,0.0,1.25,0.5,0.5,0.5,0.0,0.0,0.25,0.25,0.0,0.0,0.02,0.45,1.2,60.52,6.3,39.7,4.25,2.5,6.0,6.75,5.25,5.5,6.75,5.75,5.5,5.5,6.75,4.0,5.0,0.08,0.08,0.95,1006.83,-6.2,-4.8
0.36,0.0,0.5,0.0,1.5,0.5,0.25,0.5,0.0,0.0,0.0,0.25,0.0,0.0,0.14,0.83,1.02,59.35,10.8,50.0,4.5,2.75,6.75,7.5,6.0,5.75,7.5,5.25,5.5,4.75,5.25,3.5,4.0,0.08,0.08,0.95,1044.99,-7.3,3.5
0.38,0.0,0.5,0.0,1.5,0.5,0.25,0.5,0.0,0.0,0.0,0.25,0.0,0.0,0.2,1.14,0.89,57.82,10.8,50.0,5.25,3.0,7.25,8.5,6.25,6.0,8.0,5.25,5.25,3.75,5.0,2.25,3.0,0.08,0.08,0.95,1076.24,-8.6,12.3
0.4,0.0,0.5,0.0,1.75,0.5,0.5,0.5,0.0,0.0,0.5,0.25,0.0,0.0,0.27,1.33,0.83,62.55,6.3,35.3,5.5,3.0,8.25,10.5,7.0,6.25,8.75,4.75,4.75,3.25,4.5,2.0,2.75,0.08,0.08,0.95,1117.17,-9.7,18.3
0.42,0.0,0.5,0.0,1.5,0.5,0.5,0.5,0.0,0.0,0.5,0.25,0.0,0.0,0.14,1.45,0.7,65.71,5.6,33.8,6.25,3.25,9.0,12.0,7.75,6.25,9.0,4.25,4.0,2.75,4.5,1.25,2.25,0.08,0.08,0.95,1165.33,-10.8,25.3
0.44,0.0,0.25,0.0,1.75,0.5,0.5,0.25,0.0,0.0,0.75,0.25,0.75,0.25,0.83,2.45,2.64,73.9,3.7,-0.5,6.75,3.25,11.0,13.5,8.25,6.25,9.25,4.25,3.5,2.25,3.75,0.75,1.75,0.08,0.08,1.02,1227.86,-12.2,31.9
0.46,0.0,0.25,0.0,1.5,0.5,0.5,0.25,0.0,0.25,1.5,0.5,3.0,1.25,-0.42,0.02,0.77,102.19,1.5,-48.5,7.5,3.5,12.0,15.5,9.0,5.75,9.25,3.25,2.75,2.25,3.0,0.75,1.5,0.02,0.14,1.14,1296.45,-13.5,37.4
0.48,0.0,0.25,0.0,1.25,0.5,0.5,0.75,0.0,1.0,2.5,1.75,4.75,3.5,0.33,0.33,2.02,164.34,0.5,-67.4,7.75,2.75,11.0,15.5,8.0,5.0,9.0,2.75,2.5,1.0,1.0,0.5,1.75,0.02,0.14,1.2,1287.66,-14.6,42.6
0.5,0.25,0.75,1.75,1.5,0.75,2.0,1.5,1.75,1.25,4.25,4.25,5.0,5.25,-0.05,0.14,1.33,263.91,0.8,-49.2,7.5,1.75,12.0,15.0,8.0,4.0,8.25,2.75,2.25,2.25,1.75,0.75,0.75,0.02,0.2,1.2,1249.03,-15.2,40.4
0.52,0.25,0.75,0.0,1.75,0.5,2.5,0.5,1.0,1.0,3.75,3.0,4.75,4.25,-0.05,-0.05,0.89,321.94,-2.0,-52.8,8.5,2.75,13.5,14.0,7.75,0.0,8.0,2.75,1.5,0.75,2.5,0.25,0.5,0.08,0.27,1.27,1168.75,-19.4,47.3
0.54,0.25,0.75,0.0,1.75,1.75,2.5,0.25,1.75,1.5,5.25,5.0,6.0,5.0,-0.05,0.02,0.95,405.65,-2.0,-53.8,8.25,2.75,13.0,10.5,5.5,0.0,7.0,1.75,1.5,0.75,0.5,0.25,0.5,0.14,0.33,1.39,1024.0,-21.4,52.5
0.56,0.25,0.75,1.5,2.75,0.75,2.75,1.5,1.75,2.5,5.75,6.25,7.0,6.5,-0.05,-0.05,0.95,504.65,0.8,-51.9,8.25,2.0,11.0,8.5,0.0,0.0,6.5,1.25,1.5,0.5,1.0,0.0,0.5,0.14,0.45,1.58,811.46,-25.8,52.2
0.58,0.25,0.75,1.25,2.75,0.75,3.0,1.5,3.5,3.0,6.25,7.0,8.0,7.25,-0.05,-0.05,0.95,625.92,-0.1,-54.3,8.25,2.75,9.0,7.75,0.0,0.0,7.0,2.0,1.25,1.5,1.75,0.75,1.0,0.2,0.7,1.7,657.6,-22.2,40.5
0.6,0.5,0.75,1.25,3.0,1.25,2.75,2.0,3.75,3.5,7.0,7.5,8.75,8.25,-0.05,-0.05,0.95,748.26,0.0,-54.1,7.25,2.5,8.75,6.75,0.0,0.0,6.75,1.75,1.25,1.75,2.0,0.75,1.25,0.14,1.08,2.08,539.71,-21.6,36.0
0.62,0.25,1.0,1.0,3.0,0.75,3.0,2.0,3.75,3.5,7.25,8.75,9.0,8.75,-0.05,-0.05,0.95,858.34,-0.1,-56.8,4.25,1.0,7.0,2.75,0.0,0.0,5.75,1.25,1.25,0.5,0.0,0.25,0.75,0.64,1.14,2.64,388.78,-24.9,42.4
0.64,0.25,1.0,0.75,3.25,0.75,3.0,2.0,3.75,4.25,7.75,8.75,9.5,9.0,-0.05,-0.05,0.95,939.07,-0.2,-57.5,1.25,0.0,4.0,2.5,0.0,0.0,3.25,2.0,1.0,0.0,2.0,0.0,1.0,0.7,0.14,2.27,268.42,-18.1,11.9
0.66,0.5,1.0,1.0,3.0,0.75,3.0,2.0,3.75,4.25,8.0,9.25,9.5,9.0,-0.05,-0.05,0.95,983.67,0.0,-57.1,1.25,0.0,2.75,1.75,0.0,0.0,2.75,1.5,1.0,0.0,0.75,0.0,0.0,0.77,-0.73,1.02,154.17,-21.0,26.8
0.68,0.5,1.0,1.0,3.0,1.25,3.0,2.0,3.75,4.25,8.25,9.25,9.5,9.25,-0.05,-0.05,0.95,1007.76,-0.1,-56.2,1.25,0.25,2.5,1.5,0.0,0.0,2.25,1.25,1.0,0.0,1.25,0.0,0.0,1.39,-1.05,1.52,60.87,-20.6,23.7
0.7,0.0,1.25,1.0,3.75,1.25,3.0,2.0,4.0,4.25,8.0,9.0,9.25,9.0,-0.05,-0.05,0.95,1002.96,-0.1,-54.4,1.0,0.5,1.75,1.25,0.0,0.25,2.25,1.25,1.0,0.0,1.5,0.0,0.25,0.89,-1.11,0.95,5.86,-16.6,14.3
0.72,0.75,1.0,0.75,3.0,1.25,3.0,2.0,4.0,4.25,8.0,8.75,9.0,9.0,-0.05,-0.05,0.95,978.0,-0.2,-55.0,0.5,0.75,1.25,0.5,0.0,0.25,2.25,1.5,1.0,0.0,0.75,0.0,0.25,0.64,-0.92,0.64,0.0,-13.4,11.4
0.74,0.5,1.0,0.75,3.5,1.25,3.0,2.0,4.0,4.25,7.75,8.75,8.75,9.0,-0.05,-0.05,0.95,946.64,-0.2,-54.3,0.75,0.5,0.75,0.75,0.0,0.25,2.0,1.25,1.0,0.0,1.25,0.0,0.25,0.52,-0.92,0.83,0.0,-13.0,5.2
0.76,0.5,1.0,1.0,3.75,3.0,3.0,2.5,4.0,4.75,7.25,8.75,8.0,8.25,-0.05,-0.05,0.95,926.31,0.3,-47.0,0.5,0.25,1.0,1.0,0.0,0.25,2.0,1.75,1.0,0.0,0.75,0.0,0.25,0.33,-0.86,1.08,0.0,-11.6,5.1
0.78,0.75,1.0,1.0,4.5,3.75,4.0,2.75,5.0,4.75,7.25,8.25,8.0,8.0,-0.05,-0.05,0.95,912.02,0.0,-41.3,1.0,0.5,1.0,0.5,0.0,0.25,2.0,1.25,1.0,0.0,1.25,0.0,0.25,0.2,-0.55,1.08,15.49,-14.4,8.0
0.8,1.25,1.25,1.0,5.25,5.0,4.0,2.75,5.25,5.25,7.0,7.75,7.25,7.25,-0.05,-0.05,0.95,906.49,0.6,-33.8,0.25,0.25,1.0,0.0,0.0,0.0,2.0,1.5,1.0,0.0,0.75,0.0,0.25,0.14,-0.36,1.08,25.49,-12.2,-7.0
0.82,1.25,1.75,1.0,5.25,5.25,5.0,3.75,5.25,5.5,6.0,7.5,6.5,6.75,-0.05,-0.05,0.95,900.18,0.8,-28.2,0.5,0.5,1.0,0.0,0.0,0.0,2.0,1.25,1.0,0.0,1.0,0.0,0.0,0.02,-0.05,1.2,33.77,-15.3,4.2
0.84,2.0,2.25,2.0,7.0,5.25,5.25,4.5,5.25,5.5,5.75,6.5,5.75,5.75,-0.05,-0.05,0.95,908.91,2.6,-17.7,0.5,0.25,1.0,0.0,0.0,0.0,1.75,1.25,1.0,0.0,0.75,0.0,0.0,-0.11,0.2,1.45,44.85,-15.3,2.8
0.86,2.5,2.25,4.5,8.5,6.0,6.0,5.5,5.25,5.5,4.75,5.75,4.5,4.5,-0.05,-0.05,0.95,944.19,4.9,-4.7,0.25,0.25,1.0,0.0,0.0,0.0,2.0,1.25,1.0,0.0,0.75,0.0,0.25,-0.11,0.33,1.58,63.07,-13.5,-5.6
0.88,1.5,2.25,6.25,11.0,7.5,6.5,6.5,5.0,4.75,4.25,4.75,3.0,3.25,-0.05,-0.05,1.02,994.05,6.0,6.9,0.5,0.25,1.0,0.0,0.0,0.0,2.0,1.25,1.0,0.0,1.0,0.0,0.25,0.02,0.45,1.77,73.08,-14.2,-4.4
0.9,3.0,2.5,7.75,14.0,9.0,6.75,7.5,3.75,4.0,3.25,3.75,2.5,2.25,-0.05,0.02,1.02,1074.97,8.6,20.5,0.25,0.25,1.0,0.0,0.0,0.0,2.0,1.25,1.0,0.0,0.75,0.0,0.25,0.08,0.64,2.08,78.05,-13.5,-5.6
0.92,3.75,2.5,9.0,16.0,9.75,6.75,7.5,3.75,2.75,2.75,2.75,1.5,1.25,-0.05,0.02,1.08,1151.64,10.0,30.7,0.25,0.5,1.0,0.0,0.0,0.0,2.0,1.25,1.0,0.0,0.75,0.0,0.25,0.02,1.39,2.39,80.82,-13.5,-1.1
0.94,4.5,2.75,10.0,17.5,11.5,6.75,7.5,3.5,1.75,2.0,2.0,1.75,1.5,-0.05,0.08,1.08,1242.78,10.7,35.7,0.5,0.25,0.75,0.0,0.0,0.0,1.75,1.5,1.0,0.0,0.75,0.0,0.0,-0.17,2.39,2.27,81.1,-12.8,-1.7
0.96,4.75,2.5,10.0,16.5,12.5,6.0,6.25,2.0,1.75,0.0,2.0,1.25,1.5,-0.05,0.08,1.14,1264.78,12.0,41.8,0.5,0.25,1.0,0.0,0.0,0.5,2.0,1.25,1.0,1.5,1.0,0.0,0.0,-0.42,3.14,1.52,93.76,-7.2,-12.2
0.98,6.25,2.5,11.5,18.0,13.0,5.25,5.5,1.75,1.25,2.0,1.25,0.75,0.5,-0.05,0.14,1.14,1299.22,13.0,46.1,1.75,1.25,1.0,0.0,0.0,0.0,1.75,1.5,1.0,0.0,1.0,0.0,0.5,-0.98,3.95,0.58,109.74,-14.8,16.8
1.0,6.25,2.25,11.0,18.0,12.5,4.25,4.25,1.75,1.0,1.5,1.25,0.75,0.75,-0.05,0.14,1.08,1277.39,13.4,46.6,0.5,0.75,0.75,2.25,0.0,0.0,1.75,1.25,1.0,0.0,0.75,0.0,1.0,-1.48,5.02,-0.67,126.96,-11.7,8.0
1.02,7.25,2.25,11.5,18.0,12.5,2.75,3.25,0.75,1.0,1.5,0.75,0.5,0.25,-0.11,0.2,1.2,1241.7,15.3,52.1,0.25,0.25,0.75,0.0,0.0,0.0,1.5,1.25,0.75,0.75,1.5,0.75,1.0,-2.23,5.77,1.58,132.22,-6.1,-40.6
1.04,7.75,3.5,11.0,16.5,13.0,1.25,1.5,0.0,1.0,1.5,0.75,0.25,0.25,-0.17,0.27,1.27,1176.21,16.1,55.8,0.5,0.5,0.75,0.0,0.0,1.0,1.25,1.5,1.0,1.5,1.5,2.25,3.25,0.2,-1.3,3.14,165.57,-0.2,-51.6
1.06,8.5,4.0,10.5,18.0,11.5,1.75,2.25,0.0,1.0,2.0,0.5,1.0,0.25,-0.36,0.39,1.58,1144.0,16.1,53.9,0.75,0.75,0.75,0.0,0.0,0.75,1.25,1.25,1.0,4.0,2.0,4.75,6.25,-0.48,0.33,1.14,231.31,1.3,-66.7
1.08,7.25,2.75,9.5,13.5,9.25,0.25,3.25,0.0,1.0,1.5,0.25,0.5,0.25,-0.36,0.58,2.08,1008.33,18.0,55.1,0.25,0.25,0.75,0.0,0.0,0.0,1.0,2.0,1.25,6.5,3.75,5.5,7.75,-0.11,0.33,2.27,313.8,2.9,-79.1
1.1,5.75,2.25,7.5,9.5,8.5,0.25,2.0,0.5,0.75,1.25,0.25,0.25,0.25,-0.67,1.7,2.64,825.48,16.6,54.1,0.25,0.5,0.0,0.0,0.0,2.5,1.0,2.75,1.5,7.25,5.5,6.5,8.0,-0.05,0.2,1.2,428.4,4.6,-72.9
1.12,3.75,1.25,2.0,7.0,5.75,0.25,0.25,0.0,1.0,0.5,0.25,1.25,0.25,-1.11,1.95,3.39,565.85,13.6,46.2,0.5,0.75,0.0,0.0,0.0,2.75,1.25,4.25,2.0,8.0,7.25,7.0,8.25,0.08,0.14,1.02,566.81,4.0,-69.1
1.14,2.0,0.75,2.0,5.25,5.25,0.25,0.0,0.0,1.0,0.5,1.5,1.5,0.25,-0.48,-0.17,3.45,367.3,11.9,31.0,0.0,0.0,0.0,0.0,0.0,0.75,1.0,4.25,2.75,8.25,8.25,7.0,8.5,0.02,0.08,0.95,668.52,3.4,-79.4
1.16,0.25,0.5,0.25,5.0,4.75,0.25,0.0,0.0,1.0,1.25,1.0,1.5,0.0,0.02,-0.8,-0.55,238.2,6.4,19.5,0.0,0.75,1.0,0.5,0.0,2.75,2.0,5.25,3.25,8.5,8.25,7.25,8.25,0.08,0.08,0.95,763.23,2.5,-64.7
1.18,0.5,0.5,0.25,2.75,4.5,0.0,0.0,0.0,0.25,0.25,0.25,1.5,0.0,-1.11,-1.3,2.7,137.74,6.9,30.0,1.5,1.75,2.75,2.5,3.0,5.25,3.0,6.25,3.5,8.5,9.25,7.75,9.25,0.08,0.08,0.95,914.09,0.2,-40.5
1.2,0.0,0.0,0.5,3.0,0.5,0.0,0.0,0.0,0.25,0.5,0.25,1.5,0.0,-1.17,-1.36,1.58,41.65,12.3,2.2,1.0,1.25,0.75,1.25,0.0,3.0,2.5,5.25,3.5,7.25,8.0,6.25,8.0,0.08,0.08,0.95,933.95,1.2,-55.6
1.22,0.0,1.0,0.25,3.75,0.5,0.25,0.0,0.0,0.25,0.5,0.25,0.0,0.0,-0.73,-0.98,0.52,0.0,11.5,45.3,1.25,2.5,0.5,3.25,0.0,5.0,3.25,5.75,3.75,7.25,8.25,6.25,8.0,0.08,0.08,0.95,962.74,0.8,-43.3
1.24,0.25,0.75,1.75,3.25,3.75,1.75,0.25,0.0,1.0,0.5,1.75,0.25,0.0,-0.48,-0.86,0.39,0.0,7.7,29.6,2.0,1.75,2.5,2.5,3.5,5.0,3.25,5.5,3.5,6.25,7.5,5.5,7.0,0.08,0.08,0.95,938.05,-0.7,-30.7
1.26,0.0,0.0,0.0,2.5,0.5,0.25,0.25,0.0,0.25,0.5,0.25,0.0,0.0,-0.3,-0.67,0.64,0.0,8.6,28.2,3.0,1.75,2.5,3.0,3.5,5.0,3.75,5.25,3.5,5.5,6.5,4.25,6.0,0.08,0.08,0.95,902.39,-1.9,-22.2
1.28,0.0,0.0,0.25,2.5,0.5,0.25,0.25,0.0,0.25,0.5,0.25,0.25,0.0,-0.3,-0.55,0.77,0.0,10.1,23.1,3.5,2.0,3.75,5.0,3.5,5.0,4.25,5.25,3.5,4.0,5.5,3.25,4.5,0.08,0.08,0.95,849.35,-4.6,-7.9
1.3,0.0,0.0,0.0,2.5,0.5,0.25,0.25,0.0,0.0,0.5,0.25,0.25,0.0,-0.3,-0.42,0.89,0.0,8.4,24.3,2.0,2.5,4.0,5.25,3.75,5.0,4.75,4.5,3.25,3.0,4.0,2.25,2.25,0.08,0.08,0.95,777.3,-5.5,3.2
1.32,0.25,0.75,0.0,3.0,1.25,0.75,0.5,0.25,1.0,1.5,1.5,1.25,0.5,-0.23,-0.17,0.95,30.94,5.0,-5.9,3.75,2.5,5.75,6.75,5.5,5.25,5.25,4.25,2.75,2.5,3.75,1.5,2.75,0.08,0.08,0.95,761.31,-7.6,14.7
1.34,0.25,1.0,1.75,2.0,1.25,0.25,0.75,0.25,1.0,1.5,1.5,1.25,0.75,-0.17,0.08,1.14,88.44,9.5,-3.0,3.25,2.5,6.0,7.75,6.25,5.75,5.75,4.25,2.75,2.75,3.75,1.25,1.75,0.08,0.08,0.95,759.11,-7.7,18.5
1.36,0.25,0.75,0.5,3.5,1.25,1.0,0.75,0.25,1.0,1.5,1.5,1.5,0.75,-0.17,0.27,1.39,152.86,6.1,-3.9,4.0,2.5,7.25,9.0,6.5,6.0,6.0,4.25,2.25,2.25,3.75,0.75,1.5,0.08,0.08,0.95,799.89,-9.1,25.0
1.38,0.25,0.75,1.75,3.0,1.25,1.25,0.75,0.5,1.0,1.5,1.25,1.5,0.5,-0.23,0.33,1.77,190.16,7.9,2.3,5.75,3.25,7.75,10.5,7.75,6.25,6.5,4.0,2.0,2.25,3.25,0.75,1.25,0.08,0.08,0.95,873.54,-10.2,31.9
1.4,0.25,0.75,2.0,3.0,1.25,1.25,0.75,0.5,1.0,1.5,1.5,1.5,0.75,-0.23,0.45,2.14,216.18,8.1,0.3,5.75,3.5,8.25,12.0,7.75,6.25,6.75,3.5,2.0,2.0,2.75,0.25,1.5,0.08,0.14,0.95,946.39,-10.9,35.5
1.42,0.25,0.75,1.75,3.0,0.75,1.25,0.75,0.25,0.75,1.25,1.5,1.5,1.0,-0.36,0.7,2.39,224.98,8.4,-2.1,5.25,2.75,8.5,12.0,7.75,5.5,6.75,2.75,1.5,1.0,1.5,0.25,1.5,0.02,0.14,1.02,964.76,-12.1,40.4
1.44,0.0,0.25,1.75,1.75,1.25,0.25,0.25,0.25,0.0,0.5,1.5,0.25,0.25,-0.61,1.45,3.02,202.85,11.8,14.0,6.5,3.75,9.0,0.0,8.0,6.25,6.75,2.75,1.5,2.0,1.5,0.75,0.75,0.02,0.14,1.08,912.64,-10.8,37.0
1.46,0.0,0.0,0.0,2.0,0.5,0.25,0.25,0.0,0.0,0.5,0.25,0.0,0.25,-0.61,2.39,3.02,154.69,5.9,19.6,6.75,1.5,11.0,16.0,9.75,6.25,7.0,3.0,1.5,1.25,2.75,0.75,1.0,0.02,0.2,1.02,989.1,-13.0,39.9
1.48,0.0,0.0,0.0,2.75,0.5,0.5,0.25,0.0,1.0,1.75,0.25,1.5,0.0,-0.17,3.27,2.27,126.92,4.8,-15.8,7.75,2.5,12.0,15.5,9.25,5.0,6.5,1.75,1.0,0.75,2.25,0.25,1.5,-0.05,0.2,1.14,1057.29,-15.0,45.8
1.5,0.5,0.5,1.25,3.25,1.25,0.25,0.75,0.25,1.0,1.5,1.5,1.5,0.5,0.58,4.58,0.77,146.55,9.9,-1.6,8.75,3.75,11.0,15.5,9.25,3.0,6.0,1.5,1.5,0.0,1.5,0.0,1.25,-0.05,0.27,1.14,1133.04,-16.7,51.7
1.52,0.0,0.0,0.0,2.75,0.5,0.25,0.0,0.0,1.0,2.0,0.25,1.5,0.25,3.33,7.95,0.45,141.84,4.0,-22.3,9.25,5.25,13.0,16.0,10.5,2.0,5.5,2.0,1.5,1.5,2.0,0.75,1.25,0.02,0.33,1.2,1224.88,-16.3,47.8
1.54,0.0,0.0,1.5,1.25,0.75,0.0,0.5,0.0,0.0,1.5,2.0,4.5,4.25,0.39,-1.98,3.95,178.68,3.9,-62.0,10.5,5.5,13.0,16.5,10.5,2.75,5.75,1.5,1.5,1.25,2.25,0.75,1.25,0.02,0.33,1.27,1313.3,-16.6,49.3
1.56,0.0,0.0,0.0,1.5,0.0,0.25,0.0,0.0,0.5,6.0,2.75,7.75,7.25,0.14,0.58,3.27,250.35,-2.7,-85.7,10.5,5.75,13.0,15.5,8.75,0.25,6.5,1.25,1.25,1.5,2.25,0.75,1.0,0.27,0.52,1.39,1314.86,-18.8,50.4
1.58,0.0,1.0,0.0,2.5,1.25,3.0,0.25,3.25,1.75,9.5,8.0,9.5,10.0,0.2,0.7,3.27,430.49,-3.2,-64.6,10.5,5.25,12.0,12.5,6.25,0.0,7.25,0.25,1.0,1.5,2.0,0.75,1.0,0.33,0.77,1.89,1233.11,-20.6,51.6
1.6,0.0,1.0,1.0,1.75,0.0,3.25,0.25,4.0,2.25,9.25,9.25,9.5,10.0,0.14,0.14,1.2,649.74,-2.5,-66.4,8.5,3.75,8.0,8.5,3.5,0.0,7.0,1.25,1.0,1.5,1.75,0.75,1.5,0.58,1.77,2.83,1023.57,-19.5,43.2
1.62,0.75,1.0,0.0,4.0,2.5,3.0,1.25,5.25,3.5,9.5,10.0,9.5,10.0,-0.11,0.02,0.95,897.97,-1.5,-54.6,6.5,2.25,6.75,3.75,0.0,0.0,5.25,1.25,0.75,0.25,1.5,0.0,0.75,1.33,2.14,4.33,710.4,-24.6,47.7
1.64,0.5,1.0,0.0,4.25,4.75,3.75,1.5,5.25,4.25,9.5,11.0,9.5,10.0,-0.05,0.02,1.02,1091.53,-1.5,-49.4,2.0,0.75,0.0,1.25,0.0,0.0,2.25,0.25,0.75,0.0,0.25,0.0,0.0,0.52,-0.67,3.95,370.32,-22.3,49.2
1.66,0.75,1.0,0.0,4.5,5.0,4.0,0.25,5.25,4.25,9.0,11.0,9.5,10.0,-0.05,-0.05,0.95,1222.46,-1.5,-48.2,2.0,1.0,1.75,1.25,0.0,0.0,1.5,1.25,0.75,0.0,1.5,0.0,1.25,0.58,-0.73,-0.05,204.89,-15.6,14.1
1.68,1.0,1.0,0.75,4.75,5.25,4.5,0.25,5.25,4.5,7.75,9.5,8.0,8.25,-0.05,-0.05,0.95,1245.09,-0.8,-40.1,0.5,0.75,1.25,1.5,0.0,0.0,1.25,1.25,0.75,0.0,1.25,0.0,0.0,1.77,-1.05,2.2,57.81,-15.5,17.7
1.7,1.25,1.25,0.25,5.25,5.25,4.5,0.75,5.25,4.25,6.75,8.75,7.25,7.5,-0.05,-0.05,0.95,1200.92,-0.6,-35.8,0.25,0.5,1.75,0.5,0.0,0.0,1.25,1.25,0.75,0.0,0.5,0.0,0.5,1.39,-1.3,1.14,0.0,-14.7,9.0
1.72,1.0,1.25,0.0,5.25,5.25,5.0,1.5,5.25,4.25,5.75,7.5,6.5,6.5,-0.05,-0.05,0.95,1097.21,-0.8,-31.9,0.5,0.75,1.25,0.75,0.0,0.0,1.0,1.25,0.75,0.0,1.25,0.0,0.0,0.7,-0.92,0.58,0.0,-15.0,13.0
1.74,1.25,1.25,1.0,5.25,5.25,5.25,1.5,5.0,4.25,5.25,6.5,5.5,5.5,-0.05,-0.05,0.95,982.1,0.0,-24.9,0.0,0.75,1.0,0.5,0.0,0.0,1.0,1.25,0.75,0.0,0.75,0.0,0.5,0.52,-0.55,0.33,0.0,-10.3,-0.9
1.76,1.0,1.0,1.5,5.25,5.25,4.25,1.5,4.5,3.5,4.25,5.0,4.75,4.5,-0.05,-0.05,0.95,851.46,0.8,-20.2,0.5,0.75,1.0,0.5,0.0,0.0,1.0,1.25,0.75,0.0,0.75,0.0,0.5,0.52,-0.42,0.45,0.0,-12.1,6.1
1.78,1.0,1.25,2.0,5.25,5.5,5.25,2.75,4.0,4.25,3.75,5.0,3.75,3.25,-0.05,0.02,0.95,742.78,2.0,-11.5,0.75,0.5,2.5,0.0,0.0,0.0,1.0,1.25,0.75,0.0,0.5,0.0,0.5,0.52,-0.36,0.58,0.0,-18.0,16.4
1.8,1.25,2.5,2.25,7.0,5.25,5.25,2.75,4.0,4.0,4.0,5.0,3.0,3.25,-0.05,-0.05,0.95,679.21,3.0,-4.1,0.25,0.5,0.5,0.0,0.0,0.0,1.0,1.25,0.75,0.0,0.75,0.0,0.25,0.45,-0.23,0.77,0.0,-8.9,-8.8
1.82,0.75,1.25,2.75,7.0,5.75,5.25,3.0,3.75,4.25,3.0,2.75,2.75,1.75,-0.05,-0.05,0.95,615.75,3.5,2.8,0.5,0.5,0.75,0.0,0.0,0.0,1.0,1.25,0.75,0.0,0.5,0.0,0.25,0.33,0.02,0.95,0.0,-11.6,3.0
1.84,2.0,2.25,3.5,9.75,7.5,6.75,4.5,4.0,3.5,3.0,3.75,1.75,2.25,-0.05,-0.05,0.95,657.89,4.7,13.6,2.25,0.75,0.75,2.25,0.0,0.0,1.0,1.25,0.5,0.0,0.75,0.0,0.25,0.2,0.33,1.2,47.81,-17.1,35.6
1.86,2.0,1.75,6.25,11.0,8.75,7.0,5.0,3.75,3.5,2.25,2.75,1.5,2.25,-0.05,0.02,0.95,725.17,6.6,20.9,1.25,0.75,0.75,0.0,0.0,0.0,1.0,1.25,0.5,0.0,0.75,0.0,0.25,0.27,0.52,1.27,80.6,-14.3,16.9
1.88,2.25,2.25,7.5,13.0,9.25,7.25,5.5,3.75,2.5,1.75,2.25,1.25,1.25,-0.05,0.02,1.02,827.1,8.2,29.9,0.25,0.5,0.75,0.0,0.0,0.0,1.0,1.25,0.5,0.0,0.5,0.0,0.25,0.27,0.64,1.58,91.54,-10.3,0.3
1.9,4.0,2.5,8.5,16.5,9.25,7.75,5.25,2.0,2.5,3.25,1.5,1.5,1.0,-0.05,0.02,1.02,957.23,9.8,34.7,0.75,0.25,0.75,0.0,0.0,0.0,1.0,1.25,0.5,0.0,0.5,0.0,0.25,0.2,0.95,1.89,79.03,-12.6,4.6
1.92,4.75,2.5,7.25,18.0,12.0,7.5,5.25,2.25,1.75,2.25,2.5,0.75,1.5,-0.05,0.08,1.14,1099.28,9.3,37.3,0.75,0.5,0.75,0.0,0.0,0.0,1.0,1.25,0.5,0.0,0.5,0.0,0.25,0.27,1.64,2.64,76.09,-12.6,9.5
1.94,5.75,2.5,10.0,19.5,13.5,7.5,4.25,2.25,1.75,0.5,2.0,1.5,1.5,-0.05,0.08,1.14,1251.22,11.0,41.9,0.5,0.25,2.5,0.0,1.25,0.0,2.0,1.5,0.5,0.0,1.5,0.0,0.25,0.27,2.39,3.02,95.71,-14.6,12.4
1.96,7.0,3.0,11.5,20.5,15.5,7.0,1.5,2.0,1.0,2.25,1.5,1.5,1.5,-0.05,0.14,1.14,1379.46,10.9,43.4,1.25,1.5,0.75,2.0,0.0,1.25,1.0,1.5,1.0,1.5,1.75,0.5,0.25,0.02,3.58,2.77,138.15,-7.0,5.0
1.98,7.75,3.5,11.5,20.5,15.5,6.0,0.5,2.0,1.0,2.0,0.5,1.5,1.5,-0.05,0.2,1.14,1459.29,11.5,46.4,1.5,1.25,0.75,0.0,0.0,0.0,1.0,1.25,1.0,1.0,0.75,0.0,0.75,-0.73,4.33,1.58,153.09,-9.5,2.6
2.0,8.0,4.0,11.5,20.0,15.5,5.25,0.0,1.75,1.0,1.75,1.75,0.75,1.25,-0.05,0.2,1.14,1497.99,12.1,47.8,1.25,1.0,2.25,2.25,0.5,2.0,1.0,1.25,1.0,1.0,1.75,0.75,0.5,-1.98,5.95,-0.17,190.76,-9.1,10.8
2.02,8.0,4.0,10.0,19.5,13.5,5.0,0.0,1.75,1.0,2.0,1.75,1.5,1.5,-0.23,0.27,1.33,1478.2,11.9,44.7,1.5,1.25,1.75,2.0,1.0,0.0,2.0,1.5,1.0,1.25,1.5,0.75,1.0,-2.98,6.58,-0.8,212.32,-11.0,5.6
2.04,8.0,4.0,10.5,19.5,15.5,4.0,0.0,1.75,0.75,1.5,1.5,1.0,1.25,-0.36,0.33,1.52,1449.71,12.3,48.4,0.25,0.0,0.75,0.0,0.0,2.0,1.0,1.25,1.0,3.0,1.25,3.5,2.25,0.08,-0.17,2.89,234.88,2.1,-57.2
2.06,7.25,4.0,7.75,16.0,13.0,3.5,0.25,1.75,1.0,1.5,1.5,1.25,1.25,-0.36,0.64,2.02,1352.34,11.7,45.6,1.0,1.25,1.75,0.0,1.0,0.0,1.25,1.5,0.5,4.75,3.75,5.5,7.75,-0.98,0.52,0.64,297.35,-0.6,-60.1
2.08,6.0,2.5,5.25,13.0,11.5,2.75,0.0,1.75,1.0,1.5,1.5,1.5,1.25,-0.67,1.52,2.83,1151.71,10.4,40.4,0.75,1.5,0.25,1.5,0.0,0.5,1.5,2.5,1.0,7.5,3.75,7.0,8.5,-0.23,0.64,3.08,397.63,2.0,-65.6
2.1,3.0,1.0,2.25,7.0,8.25,0.75,0.0,1.5,1.0,0.0,1.25,1.0,1.25,-1.17,2.27,3.77,803.57,9.0,34.9,1.25,0.0,1.25,1.25,0.0,2.75,1.5,4.25,1.5,9.0,7.0,7.75,9.75,0.95,0.33,1.95,575.85,2.4,-64.4
2.12,0.25,0.0,0.75,3.25,5.25,0.25,0.0,0.0,0.0,0.0,0.0,0.0,0.0,0.27,-1.11,1.45,434.07,6.6,55.9,0.5,1.5,1.0,1.25,1.5,2.75,1.75,5.25,1.75,8.25,7.5,7.0,8.75,-0.17,0.08,1.27,720.82,2.5,-55.3
2.14,0.25,0.0,0.0,2.75,0.75,0.0,0.0,0.0,0.0,0.0,0.0,0.0,0.0,-0.55,-1.67,2.39,189.45,13.7,59.2,0.75,1.0,1.25,0.0,1.0,3.25,1.75,5.5,2.0,8.5,7.75,7.0,8.75,0.08,0.08,0.95,826.17,2.9,-59.2
2.16,0.25,0.0,0.0,3.0,0.5,0.25,0.0,0.0,0.25,0.0,0.0,0.0,0.0,-1.11,-1.3,2.08,0.0,13.0,52.8,0.5,1.0,1.0,0.75,0.0,3.25,1.0,5.5,2.75,8.25,8.25,7.0,8.5,0.14,0.08,0.95,863.73,2.8,-61.6
2.18,0.25,0.0,0.0,2.75,0.5,0.25,0.0,0.0,0.0,0.0,0.0,0.0,0.0,-0.92,-1.23,0.95,0.0,12.8,58.1,0.5,1.0,1.0,1.5,0.0,4.0,2.0,5.5,2.75,8.0,9.0,6.25,8.25,0.14,0.08,0.95,877.06,2.3,-56.5
2.2,0.0,0.0,0.0,2.75,0.5,0.0,0.0,0.0,0.25,0.0,0.0,0.0,0.0,-0.67,-0.98,0.58,0.0,13.6,50.7,0.75,1.0,1.0,2.25,0.0,4.75,2.25,5.5,3.0,7.25,8.0,5.75,7.5,0.08,0.08,0.95,863.8,1.9,-50.1
2.22,0.0,0.0,0.0,2.75,0.5,0.25,0.0,0.0,0.0,0.0,0.0,0.0,0.0,-0.48,-0.8,0.58,0.0,11.4,55.6,0.0,1.0,0.5,2.5,3.0,4.75,3.5,6.25,3.0,6.5,7.75,5.0,7.0,0.08,0.08,0.95,853.62,2.5,-42.3
2.24,0.0,0.0,0.0,2.75,0.5,0.25,0.0,0.0,0.0,0.0,0.0,0.0,0.0,-0.36,-0.67,0.7,0.0,11.4,55.6,1.5,2.25,0.5,3.75,2.25,5.25,3.5,5.25,3.0,5.5,6.75,3.75,5.25,0.08,0.08,0.95,798.99,0.2,-26.7
2.26,0.0,0.0,0.0,2.5,0.5,0.25,0.0,0.0,0.0,0.0,0.0,0.0,0.0,-0.3,-0.48,0.77,0.0,10.9,55.5,1.0,1.25,2.5,2.5,2.5,5.0,3.5,5.25,3.25,5.25,5.25,3.5,4.0,0.08,0.08,0.95,729.51,-0.6,-24.4
2.28,0.25,0.0,1.5,2.75,4.25,0.25,0.25,0.5,0.75,0.75,0.0,1.25,0.5,-0.42,-0.3,0.77,0.0,6.7,19.0,1.5,1.5,3.0,4.5,3.25,5.0,4.0,5.25,2.75,2.75,5.5,2.0,3.0,0.08,0.08,0.95,661.16,-3.4,-7.3
2.3,0.25,0.25,1.0,3.0,3.75,1.0,0.25,0.0,0.75,0.75,1.0,1.25,0.0,-0.48,-0.11,0.95,49.65,6.6,19.3,1.25,1.5,4.0,5.0,3.5,5.0,4.25,4.25,2.25,2.25,3.75,0.75,2.0,0.08,0.08,0.95,583.49,-5.0,6.6
2.32,0.25,0.75,1.5,3.0,2.25,1.25,0.25,0.25,1.0,1.0,1.5,1.0,0.5,-0.36,0.14,1.14,141.27,7.3,10.8,1.25,1.5,4.0,5.25,3.5,5.0,4.25,4.25,2.25,1.25,1.5,1.5,1.5,0.08,0.08,0.95,521.72,-5.6,13.6
2.34,0.0,0.0,0.0,2.25,0.5,0.25,0.25,0.0,0.0,0.0,0.25,0.0,0.0,-0.3,0.27,1.45,149.27,11.2,45.4,1.0,2.25,4.25,7.0,3.75,6.0,4.5,3.0,2.25,2.5,1.5,1.0,1.0,0.08,0.08,0.95,497.55,-5.9,20.2
2.36,0.0,0.0,0.0,2.0,0.5,0.25,0.25,0.0,0.25,1.0,0.25,1.0,0.0,-0.3,0.39,1.58,142.66,5.6,-8.8,4.0,2.5,6.0,7.75,6.25,6.25,4.75,3.0,2.0,2.75,1.5,0.75,2.0,0.08,0.08,0.95,559.54,-7.8,27.0
2.38,0.0,0.0,1.75,2.75,1.25,0.5,0.25,0.0,0.75,1.0,1.5,1.0,0.75,-0.36,0.52,1.83,141.31,9.7,-2.9,4.5,2.75,7.0,9.5,7.75,6.25,5.5,4.0,1.75,2.25,1.5,0.75,1.25,0.08,0.08,0.95,665.68,-8.9,32.6
2.4,0.25,0.75,0.0,2.5,0.5,0.75,0.25,0.0,0.75,0.5,1.5,0.0,0.5,-0.42,0.77,2.45,137.84,7.1,9.3,5.25,2.75,7.25,11.5,7.75,6.25,5.75,3.0,1.5,2.5,2.5,0.75,1.5,0.08,0.14,0.95,794.51,-9.9,33.1
2.42,0.0,0.0,0.0,2.25,0.5,0.25,0.25,0.0,0.0,0.0,0.0,0.0,0.0,-0.61,1.58,3.08,118.02,11.2,54.3,5.5,3.5,8.25,13.0,8.5,6.5,6.0,3.0,1.5,2.25,1.75,0.75,1.25,0.08,0.14,0.95,924.94,-10.7,38.0
2.44,0.0,0.0,1.5,2.5,1.25,0.25,0.5,0.0,1.0,1.0,0.25,0.25,0.0,-0.73,2.52,3.02,120.6,12.0,20.8,6.0,3.25,9.0,15.5,9.0,6.75,6.25,2.75,1.25,2.25,1.75,0.75,1.5,0.08,0.14,1.02,1054.89,-11.2,39.3
2.46,0.25,0.75,1.0,3.0,1.25,0.75,0.5,0.25,0.5,1.25,1.0,0.25,0.75,-0.23,3.2,1.52,134.27,7.1,12.4,7.25,2.5,9.5,15.5,10.5,6.5,6.25,2.75,1.0,2.0,2.25,0.0,1.0,0.02,0.14,1.02,1159.39,-11.9,43.0
2.48,0.25,0.75,1.5,2.75,1.75,1.5,0.5,0.25,0.75,1.0,1.5,1.0,0.5,1.27,5.14,-0.3,161.65,7.2,9.5,7.75,3.5,11.0,15.5,10.5,1.75,5.5,0.75,1.0,0.0,1.0,0.0,0.0,-0.05,0.2,1.14,1179.44,-17.8,57.9
2.5,0.25,0.25,1.5,1.75,0.5,0.25,0.25,0.25,0.0,0.0,1.0,0.0,0.0,2.45,7.02,-1.17,148.89,17.4,34.5,8.75,4.75,11.0,18.0,10.5,5.0,5.25,2.0,1.0,1.5,1.5,0.25,0.5,-0.05,0.27,1.2,1264.89,-14.4,50.8
2.52,0.25,0.75,0.0,2.75,0.5,0.25,0.25,0.0,0.0,1.25,1.75,2.25,2.0,2.95,4.64,-0.42,155.77,4.5,-31.9,9.5,5.75,13.0,18.0,11.5,4.5,5.25,1.25,1.0,1.25,2.0,0.75,0.75,0.02,0.33,1.08,1344.1,-15.5,51.2
2.54,0.0,0.0,1.0,1.75,0.75,0.25,0.25,0.5,0.0,2.75,2.5,5.5,5.5,-0.55,-0.86,2.95,205.37,0.5,-67.3,10.5,5.75,13.0,16.5,10.5,2.75,5.0,1.25,1.0,1.5,1.75,0.75,0.75,0.2,0.45,1.33,1391.29,-16.8,52.1
2.56,0.0,0.0,0.0,1.75,0.0,0.25,0.0,0.0,1.0,7.0,3.75,8.25,7.25,1.83,0.33,1.39,293.9,-2.1,-83.3,10.5,5.75,12.0,15.0,9.0,2.5,5.75,1.25,1.0,1.0,1.75,0.75,1.25,0.33,0.58,1.64,1378.96,-17.2,51.4
2.58,0.0,1.0,1.0,1.25,0.0,0.25,0.25,1.75,2.5,8.75,7.0,8.75,9.0,-0.61,0.39,3.45,452.85,-0.9,-73.7,9.5,5.25,9.75,11.0,6.25,2.0,6.5,1.25,1.0,1.25,1.75,0.75,0.5,0.39,1.08,2.33,1254.16,-18.0,50.8
2.6,0.0,0.75,0.75,1.75,0.0,1.75,1.25,3.75,2.5,7.0,8.5,8.25,8.25,0.14,0.02,1.27,613.7,-1.0,-66.7,7.75,3.75,7.5,7.0,3.5,1.5,5.75,1.25,1.0,1.25,1.5,0.5,0.5,0.95,2.58,3.45,977.77,-18.6,47.7
2.62,0.25,0.75,0.0,2.75,1.75,2.5,1.0,5.0,3.25,8.25,11.0,8.5,8.5,-0.11,0.02,1.02,789.98,-1.5,-59.6,4.25,1.25,5.75,2.75,0.0,0.0,2.75,1.25,0.5,0.0,1.5,0.0,0.5,1.27,1.45,4.89,611.4,-24.5,44.3
2.64,0.25,0.75,0.0,2.75,1.25,3.0,0.25,4.75,3.75,8.25,10.0,8.5,8.25,-0.05,-0.05,1.02,901.24,-1.9,-60.0,1.5,0.75,1.75,2.25,0.0,0.25,1.25,1.25,0.5,0.0,0.0,0.0,0.0,0.33,-1.11,3.14,319.48,-18.7,46.7
2.66,0.25,0.75,0.0,2.75,0.75,3.0,0.0,4.25,4.25,8.25,10.5,8.5,8.5,-0.05,-0.05,0.95,972.81,-1.6,-61.9,2.0,1.75,0.5,2.5,0.0,2.5,1.0,1.25,1.0,1.25,0.0,0.75,0.0,0.83,-0.17,4.14,173.28,-6.6,27.0
2.68,0.25,0.75,0.0,2.75,0.75,3.0,0.5,4.5,4.25,7.5,9.5,8.0,8.25,-0.05,-0.05,0.95,970.08,-1.6,-60.1,1.5,1.75,2.5,2.75,2.5,2.5,1.75,1.25,1.0,1.0,1.5,1.0,0.5,1.77,-1.17,2.27,114.65,-8.4,21.9
2.7,0.25,0.75,0.25,2.75,0.5,3.0,0.25,4.75,4.75,7.0,9.0,7.25,7.5,-0.05,-0.05,0.95,941.65,-1.3,-58.2,1.5,1.25,2.5,2.5,1.75,2.5,1.5,1.25,1.0,1.5,1.5,0.25,0.5,1.08,-1.11,0.77,106.2,-7.9,20.5
2.72,1.25,1.0,0.75,5.25,1.25,5.0,0.25,5.5,4.75,6.25,9.25,7.25,7.5,-0.05,-0.05,0.95,938.91,-0.1,-42.8,1.5,1.25,2.75,2.5,1.75,2.75,1.25,1.5,1.0,1.25,1.5,0.75,0.5,0.58,-0.67,0.27,127.51,-7.7,18.3
2.74,2.0,2.0,2.0,5.25,5.25,4.5,1.5,5.25,4.25,6.25,8.25,6.5,6.75,-0.05,-0.05,0.95,952.59,1.4,-26.7,1.75,1.25,2.5,2.5,1.75,2.5,1.5,1.25,1.0,1.0,1.5,0.75,0.5,0.45,-0.42,0.27,133.55,-8.8,20.5
2.76,1.25,1.25,1.25,5.25,5.25,5.0,1.5,5.0,4.25,4.75,7.25,5.5,5.75,-0.05,-0.05,0.95,909.77,0.6,-25.4,1.75,1.5,2.5,2.5,1.5,2.5,1.5,1.25,1.0,1.25,1.5,0.75,0.5,0.45,-0.3,0.39,148.71,-8.7,19.8
2.78,1.0,1.5,0.5,5.25,5.25,5.0,1.5,4.5,4.25,4.5,6.5,4.75,5.0,-0.05,-0.05,0.95,832.95,0.1,-22.9,1.5,1.5,2.25,2.25,1.25,2.25,1.75,1.25,1.0,1.25,1.5,0.75,0.5,0.52,-0.23,0.58,166.1,-8.6,17.1
2.8,1.0,1.5,2.0,5.25,5.25,5.25,1.5,4.0,4.25,2.75,5.75,4.25,4.25,-0.05,-0.05,0.95,747.73,2.0,-14.6,1.5,1.5,2.75,2.25,1.75,2.5,1.75,1.25,1.0,1.0,1.5,0.75,0.5,0.64,-0.11,0.77,198.04,-9.0,20.7
2.82,1.0,1.75,2.0,6.5,5.25,5.25,2.75,4.0,4.25,3.5,5.25,3.5,4.25,-0.05,-0.05,0.95,695.18,2.3,-10.4,1.5,1.5,2.5,2.25,1.0,2.25,2.0,1.25,1.0,1.25,1.5,0.75,0.5,0.64,0.08,0.83,225.9,-9.4,17.2
2.84,1.25,2.0,2.25,7.0,5.5,6.0,2.75,4.0,4.25,3.5,5.0,2.75,3.0,-0.05,0.02,0.95,675.31,2.8,-2.7,1.5,1.25,2.25,2.25,1.5,2.5,1.5,1.5,1.0,1.5,1.25,0.75,0.5,0.45,0.33,0.95,250.57,-7.1,15.8
2.86,2.0,2.25,3.5,8.5,7.0,6.25,4.0,4.75,3.5,2.0,4.5,1.25,2.5,-0.05,-0.05,0.95,697.6,4.7,12.1,1.5,1.5,2.5,2.25,0.25,2.5,1.75,1.5,1.0,1.0,1.5,0.75,0.75,0.39,0.52,1.14,262.54,-9.1,14.2
2.88,1.75,2.25,3.5,11.0,7.5,6.75,4.75,4.25,3.75,1.5,4.0,1.0,2.25,-0.05,-0.05,0.95,746.06,5.4,17.7,1.5,1.5,2.25,2.25,1.25,2.75,1.75,1.5,1.0,1.25,1.75,0.75,0.5,0.39,0.64,1.33,266.79,-7.5,15.6
2.9,3.25,2.5,6.0,13.0,8.5,7.5,5.0,3.75,3.5,2.25,3.0,1.25,2.25,-0.05,0.02,0.95,846.47,7.3,24.6,1.75,1.25,2.5,2.25,1.25,2.5,2.0,1.25,1.0,1.0,1.5,0.75,0.75,0.39,0.7,1.64,261.04,-9.1,17.3
2.92,4.0,2.5,8.25,16.0,11.5,8.0,5.25,3.75,1.75,1.0,2.75,0.5,2.0,-0.05,0.02,1.02,987.2,8.8,35.6,1.25,1.25,2.25,2.25,1.25,2.5,1.5,1.5,1.0,1.0,1.5,0.5,0.75,0.45,1.2,2.33,255.63,-7.3,15.4
2.94,5.5,2.5,8.75,18.0,13.5,8.25,5.0,3.75,1.75,0.75,2.5,1.25,2.0,-0.05,0.08,1.08,1167.2,9.3,37.5,1.25,1.25,2.0,2.25,1.5,1.75,1.75,1.25,1.0,1.25,1.25,0.75,1.0,0.45,2.02,2.89,252.33,-7.8,11.8
2.96,5.5,2.25,9.0,18.0,14.5,7.5,5.0,3.0,1.0,0.0,1.75,0.25,1.5,-0.05,0.08,1.14,1278.56,10.2,44.9,1.25,1.25,2.25,2.25,1.0,2.5,1.5,1.25,1.0,1.0,1.5,0.75,0.5,0.45,3.14,2.89,247.28,-8.2,15.6
2.98,6.5,2.25,9.5,21.0,13.5,7.5,2.5,2.25,1.25,1.75,1.5,1.0,1.25,-0.05,0.14,1.2,1361.19,10.6,43.5,1.5,1.25,2.0,2.0,1.25,2.0,1.5,1.25,1.0,1.25,1.5,0.5,0.5,0.14,3.77,2.2,242.16,-8.3,16.1
3.0,7.5,3.75,11.0,21.0,15.5,7.25,0.75,1.75,1.0,2.0,1.25,1.0,1.25,-0.11,0.14,1.2,1433.55,11.0,46.8,1.25,1.0,2.0,2.0,1.5,2.75,1.5,1.25,1.0,1.25,1.5,0.5,0.5,-0.67,4.45,1.02,240.65,-6.4,15.1
3.02,8.0,4.0,10.5,21.0,16.0,6.5,0.25,1.75,1.0,1.25,1.5,1.0,1.5,-0.11,0.14,1.14,1482.94,11.3,47.7,1.25,0.5,2.25,0.0,1.0,1.0,1.5,1.25,0.5,0.25,1.75,0.0,0.5,-2.17,6.39,-0.86,214.33,-11.4,13.5
3.04,8.0,4.0,10.5,20.0,16.0,5.75,0.0,1.75,1.0,1.5,1.5,1.0,1.5,-0.17,0.2,1.27,1499.74,11.4,47.4,1.25,1.25,1.75,2.0,0.0,0.0,1.0,1.25,1.0,2.25,1.25,1.75,0.5,-3.73,2.39,2.02,203.2,-10.4,-7.3
3.06,8.0,4.0,10.5,18.5,15.5,5.25,0.0,1.75,1.0,1.25,1.75,1.0,1.25,-0.36,0.33,1.45,1478.99,11.8,47.7,0.5,1.25,2.0,0.0,1.25,2.75,1.25,1.25,1.0,3.5,2.75,3.75,5.25,1.14,-2.11,2.64,240.5,0.3,-41.3
3.08,7.5,4.0,8.5,16.5,13.5,4.0,0.0,0.25,0.75,1.0,0.25,1.0,0.25,-0.42,0.39,2.45,1370.08,13.1,55.3,2.0,1.5,0.25,1.5,0.0,3.25,1.0,1.25,1.0,6.75,3.75,6.75,8.25,-1.17,0.64,0.83,329.33,1.7,-54.1
3.1,5.0,2.25,3.25,11.0,9.5,3.0,0.0,0.0,1.0,1.25,0.25,0.75,0.25,-0.61,1.45,2.95,1064.34,10.6,50.5,0.0,0.5,3.0,0.5,0.0,1.5,1.0,2.75,1.25,8.0,5.75,7.5,8.5,-0.23,0.58,1.64,455.19,0.8,-66.0
3.12,3.75,2.25,2.0,8.5,8.25,1.75,0.0,1.75,1.0,0.5,1.5,1.0,1.25,-1.11,2.14,3.7,759.86,8.4,36.5,0.0,0.0,0.5,0.25,0.0,2.5,1.5,4.25,1.5,8.25,7.0,7.25,9.0,-0.11,0.33,1.58,586.28,4.3,-73.5
3.14,1.75,0.75,0.0,4.25,5.5,1.5,0.0,0.5,1.0,1.0,1.5,1.0,1.25,-0.48,0.2,3.58,450.94,4.0,18.6,1.25,0.0,1.5,0.0,0.0,2.75,1.0,5.25,1.5,8.75,7.5,7.0,9.0,0.2,0.08,0.95,692.49,3.0,-65.7
3.16,0.25,0.0,0.0,4.25,0.75,0.25,0.0,0.0,1.0,1.0,0.0,1.0,0.0,0.33,-0.86,0.64,241.23,9.3,12.8,0.25,0.0,0.75,0.0,0.0,2.75,1.0,5.25,2.0,9.0,7.75,7.0,8.75,0.14,0.08,0.95,752.39,4.3,-71.0
3.18,0.75,0.5,0.0,2.75,0.0,0.0,0.0,0.0,0.25,0.0,0.0,0.0,0.0,-0.55,-1.48,2.45,64.41,19.2,63.7,0.5,0.5,1.0,0.75,0.0,4.5,1.0,6.0,2.0,8.75,8.25,7.0,8.5,0.14,0.08,0.95,805.36,4.0,-61.2
3.2,0.5,0.0,0.0,4.75,0.5,0.0,0.0,0.0,0.25,0.5,1.5,0.75,0.5,-1.05,-1.17,1.7,0.0,11.6,7.3,1.5,1.0,1.0,2.75,0.0,5.75,1.0,6.25,2.25,9.0,9.0,7.0,9.0,0.14,0.08,0.95,876.95,2.7,-50.8
3.22,0.5,0.75,1.5,4.25,5.25,0.25,0.25,1.25,1.0,1.0,1.5,1.0,1.0,-0.67,-0.8,0.64,0.0,6.1,15.5,1.0,1.5,2.25,2.5,3.5,5.0,2.25,6.25,2.5,8.25,8.25,5.75,7.75,0.14,0.08,0.95,930.05,1.3,-37.9
3.24,0.25,0.25,1.75,3.75,4.75,0.25,0.25,0.5,1.0,1.0,1.5,1.0,1.0,-0.42,-0.67,0.27,22.8,7.0,12.5,1.0,1.0,0.5,1.75,1.25,5.5,0.75,6.25,2.0,7.0,6.25,4.75,6.75,0.14,0.08,0.95,883.65,4.3,-44.9
3.26,1.0,0.25,1.25,3.0,4.25,0.25,0.25,0.5,1.0,1.0,1.5,1.0,1.25,-0.3,-0.48,0.39,79.92,6.7,9.2,1.25,2.0,0.0,1.75,1.75,5.75,0.0,6.25,1.75,6.0,6.25,3.5,6.5,0.14,0.08,0.95,801.77,4.8,-37.8
3.28,0.25,0.75,1.0,3.5,3.0,0.25,0.25,1.0,1.0,1.0,1.5,1.0,1.0,-0.3,-0.48,0.52,110.73,6.0,5.4,0.5,1.0,0.25,2.5,3.75,6.0,1.0,6.25,1.5,5.25,5.25,2.5,5.5,0.14,0.08,0.95,688.1,5.2,-29.7
3.3,0.25,0.75,1.75,3.0,4.5,1.75,0.25,0.5,1.0,1.0,1.5,1.0,1.0,-0.36,-0.36,0.58,153.66,4.6,14.0,1.5,2.0,0.75,3.25,3.75,6.5,2.25,6.25,1.75,5.5,4.25,1.5,4.5,0.14,0.08,0.95,616.23,3.0,-15.1
3.32,0.25,0.75,1.25,3.0,3.0,1.5,0.25,0.75,1.0,1.0,1.5,1.0,1.0,-0.36,-0.3,0.7,183.93,4.5,7.3,1.75,2.5,0.0,5.0,3.5,6.75,2.25,5.25,1.75,5.0,3.0,2.0,2.5,0.14,0.08,0.95,565.43,1.8,-4.6
3.34,0.25,0.75,1.5,3.0,2.25,1.75,0.25,1.25,1.0,1.0,1.5,1.0,0.75,-0.23,-0.11,0.95,215.76,4.7,6.5,2.25,2.5,2.5,5.0,6.25,7.0,3.0,5.25,1.75,3.75,3.75,1.25,2.5,0.14,0.08,0.95,587.33,-1.1,7.0
3.36,0.25,0.75,1.75,3.0,1.75,1.75,0.25,0.5,0.75,1.0,1.5,1.0,0.5,-0.17,0.14,1.27,224.14,6.8,10.7,2.75,2.5,2.75,6.0,6.25,7.0,3.25,5.25,1.25,3.75,3.75,1.25,2.5,0.14,0.08,0.95,619.51,-2.0,9.9
3.38,0.25,0.75,1.0,3.0,3.0,1.5,0.5,0.5,0.75,1.0,1.5,1.0,1.0,-0.17,0.27,1.39,236.41,4.4,8.0,2.5,2.5,4.0,7.25,7.75,7.5,3.75,5.25,1.75,3.75,3.75,0.75,1.75,0.14,0.08,0.95,684.2,-3.1,16.3
3.4,0.25,0.75,1.0,3.0,1.75,1.75,0.25,1.25,0.75,1.0,1.75,1.0,1.0,-0.3,0.39,1.58,236.05,3.5,0.6,3.25,3.25,4.75,8.5,8.0,7.75,4.25,5.25,1.25,2.75,3.25,0.75,1.75,0.14,0.08,0.95,755.33,-4.7,23.5
3.42,0.5,1.0,0.5,2.5,1.75,1.75,0.25,0.0,1.0,1.0,0.25,1.0,0.25,-0.36,0.52,2.14,216.74,4.8,19.2,3.75,3.0,6.0,10.0,8.75,7.75,4.75,4.75,1.25,2.75,2.75,0.75,1.5,0.14,0.08,0.95,838.46,-6.3,28.1
3.44,0.25,0.75,1.0,3.0,2.5,1.75,0.25,0.5,0.75,1.0,1.5,1.0,1.0,-0.42,0.77,2.52,208.03,4.0,6.6,3.0,2.5,6.75,8.75,9.75,7.75,5.25,4.25,0.5,2.5,2.0,0.75,1.25,0.14,0.08,0.95,882.01,-6.2,30.9
3.46,0.25,0.75,1.0,3.0,1.25,1.75,0.25,0.25,0.75,1.0,1.5,1.0,1.0,-0.42,1.27,3.27,194.69,5.2,2.5,5.5,3.5,7.25,13.5,10.5,8.0,5.5,4.25,1.0,1.0,2.75,0.25,1.0,0.08,0.14,0.95,992.04,-9.0,39.6
3.48,0.25,0.75,1.0,3.0,1.25,1.0,0.25,0.0,0.75,1.0,1.5,1.0,1.0,-0.42,2.2,3.27,191.6,7.1,1.6,4.5,2.5,6.75,12.5,9.75,7.75,5.75,3.5,1.0,1.0,1.5,0.0,1.25,0.08,0.14,1.02,1029.49,-8.7,40.3
3.5,0.25,0.75,1.0,2.75,1.25,0.5,0.5,0.25,0.75,1.0,1.5,1.0,0.75,-0.42,3.2,2.27,182.09,8.3,0.9,6.0,3.75,7.25,15.0,10.5,8.0,5.5,3.0,1.0,2.0,2.25,0.75,1.25,0.08,0.14,1.08,1119.29,-9.4,39.6
3.52,0.25,1.0,1.0,2.75,1.25,1.75,0.25,0.25,0.75,1.0,1.5,1.0,1.25,-0.05,3.64,0.7,184.37,4.7,1.2,5.75,0.0,9.0,8.25,12.0,7.25,5.0,3.0,0.75,1.0,2.25,0.0,1.25,0.02,0.2,1.08,1080.37,-9.4,38.5
3.54,0.25,0.75,1.0,3.0,1.75,1.75,0.25,0.5,0.75,1.0,1.75,1.0,0.75,2.08,5.77,0.14,188.32,4.9,4.5,7.75,3.5,9.0,15.0,11.0,6.25,4.25,2.75,0.5,1.0,1.5,0.0,0.5,0.02,0.27,1.14,1120.39,-12.2,49.6
3.56,0.25,0.75,1.0,3.0,2.25,1.75,0.25,0.25,0.75,1.0,1.5,1.25,1.0,2.52,4.77,-0.3,200.77,4.6,4.5,8.25,5.0,9.5,15.5,11.0,4.5,3.5,1.25,0.5,1.25,2.0,0.25,0.25,0.02,0.27,1.08,1128.65,-14.1,52.5
3.58,0.5,0.75,1.5,3.0,1.75,1.25,0.25,0.25,0.75,2.25,2.0,5.0,3.5,1.02,0.45,1.64,238.42,4.1,-32.4,8.25,5.5,9.5,17.5,10.5,6.0,3.25,1.25,1.0,1.5,1.5,0.75,0.25,0.02,0.33,1.14,1191.72,-13.3,51.2
3.6,0.0,0.0,0.5,2.75,0.0,0.0,0.25,0.0,0.75,4.75,3.0,8.5,7.5,-0.05,0.14,0.58,299.11,0.2,-77.7,9.5,5.5,12.0,16.5,11.5,4.75,4.25,1.5,1.0,1.5,1.5,0.75,0.75,0.2,0.52,1.33,1264.32,-14.7,50.9
3.62,0.0,0.0,1.0,1.75,0.0,0.25,0.0,0.0,0.25,7.0,5.0,9.0,9.25,0.14,0.45,3.08,393.62,-1.1,-81.8,9.5,5.75,11.0,14.5,9.25,2.75,5.25,1.25,0.75,1.5,1.5,0.75,0.5,0.33,0.58,1.58,1262.82,-16.5,52.3
3.64,0.0,0.75,1.0,3.25,0.0,1.0,0.5,1.75,1.75,9.75,8.25,9.25,11.0,-0.61,0.45,2.08,572.35,-1.1,-69.6,9.0,5.0,9.5,11.5,7.75,2.75,6.5,1.25,1.0,1.5,1.75,0.75,0.5,0.45,1.02,2.08,1177.75,-16.5,49.5
3.66,0.0,1.0,0.0,3.75,0.0,3.0,0.0,5.5,2.5,10.0,10.5,8.5,10.5,-0.23,0.2,2.39,772.56,-3.0,-63.8,7.75,4.5,7.5,8.25,4.5,2.25,5.75,1.25,0.5,1.0,1.5,0.75,0.5,0.95,2.27,3.14,975.24,-17.4,49.6
3.68,0.75,1.0,0.0,5.0,5.25,5.25,0.0,6.25,3.5,10.0,10.5,8.5,10.0,-0.05,0.02,1.02,995.46,-2.7,-44.8,4.5,2.5,4.0,4.0,1.0,0.25,3.25,1.25,0.0,0.25,1.25,0.0,0.5,1.45,1.45,3.58,654.05,-20.2,49.7
3.7,0.75,1.5,0.75,5.25,5.25,5.25,0.0,6.25,4.25,9.5,11.0,8.0,10.0,-0.05,-0.05,1.02,1169.81,-1.8,-41.6,1.25,1.25,2.5,2.25,0.0,0.0,1.5,1.25,0.0,0.25,0.0,0.0,0.0,0.83,-0.92,2.83,350.38,-20.2,50.7
3.72,1.25,1.5,2.0,5.25,4.75,6.0,1.5,6.5,4.5,8.0,10.0,7.0,8.25,-0.05,-0.05,0.95,1256.05,-0.3,-33.7,2.25,1.25,1.75,2.75,0.0,2.25,1.25,1.25,0.25,1.5,0.0,0.0,0.5,1.14,-0.98,3.39,206.6,-9.1,32.9
3.74,1.0,2.25,2.25,6.25,3.75,6.5,3.0,6.25,4.75,7.0,8.75,5.5,7.0,-0.05,-0.05,0.95,1240.22,0.6,-26.3,2.0,1.25,2.5,2.5,0.0,2.75,1.0,1.25,0.5,1.5,0.25,0.5,0.75,1.58,-1.42,1.33,116.25,-8.6,23.6
3.76,1.5,2.25,3.0,7.0,5.25,6.75,2.75,6.25,4.5,5.5,7.0,4.25,5.5,-0.05,-0.05,1.02,1183.41,1.5,-14.2,1.75,1.25,2.5,2.5,1.5,2.25,1.0,1.25,0.5,1.5,1.5,0.5,0.75,0.7,-0.92,0.2,101.44,-8.1,18.7
3.78,0.25,2.25,4.25,7.5,6.25,6.75,2.75,5.25,4.25,4.5,5.75,2.75,4.25,-0.05,-0.05,0.95,1095.17,2.3,-5.1,1.25,1.5,2.5,2.5,1.75,2.75,1.0,1.25,0.75,1.25,1.5,0.5,0.75,0.58,-0.61,0.14,107.69,-6.9,19.2
3.8,2.0,2.0,4.5,7.0,7.5,6.25,1.75,4.0,2.75,1.0,4.0,1.0,2.5,-0.05,0.02,0.95,958.64,4.8,16.4,1.25,1.75,2.5,2.5,2.25,2.0,1.0,1.75,0.75,1.5,0.75,0.5,0.75,0.45,-0.67,0.27,128.99,-6.7,21.6
3.82,1.0,1.0,3.75,8.5,7.5,6.5,2.5,2.75,2.5,1.0,2.5,1.0,1.5,-0.05,0.02,0.95,810.36,4.7,21.7,1.25,0.5,2.5,0.75,1.75,0.5,1.0,1.25,0.25,0.75,1.5,0.25,0.75,0.2,-0.55,0.64,110.53,-10.5,13.2
3.84,1.0,1.0,4.5,8.75,7.5,6.75,1.5,1.75,1.75,0.0,1.5,1.0,1.0,-0.05,0.02,0.95,672.84,6.0,32.2,0.0,0.5,2.5,2.0,1.5,2.75,1.0,1.5,0.25,0.25,0.75,0.0,0.0,-0.05,-0.36,0.95,104.64,-5.7,30.0
3.86,1.25,1.25,4.5,10.5,7.5,6.75,1.5,1.75,1.75,0.0,1.5,0.75,0.75,-0.05,0.02,0.95,589.8,6.8,36.0,1.5,1.25,2.25,2.0,1.5,2.5,1.0,1.25,1.0,1.25,1.25,0.75,0.25,-0.17,-0.05,1.02,134.99,-7.6,19.0
3.88,3.0,2.5,5.0,13.0,8.25,7.25,1.5,1.75,1.75,1.25,1.5,0.75,0.5,-0.05,0.08,0.89,594.88,7.8,39.4,1.5,1.5,2.5,2.0,1.5,2.5,1.25,1.25,0.75,1.0,1.5,0.5,0.5,-0.23,0.33,1.14,177.11,-8.3,21.6
3.9,4.0,2.5,6.5,14.5,9.5,7.5,1.25,2.0,1.75,1.25,2.0,1.25,1.5,-0.05,0.08,0.89,685.84,8.4,36.4,0.5,1.75,2.25,2.25,1.75,2.75,1.25,1.25,0.75,1.25,1.75,0.5,0.5,-0.17,0.58,1.39,220.87,-5.8,16.8
3.92,4.5,2.5,7.5,14.5,11.0,7.5,1.75,2.0,1.75,1.0,2.0,1.0,1.75,-0.05,0.08,0.95,809.31,8.9,38.2,1.25,1.75,2.0,2.25,1.5,2.5,1.25,1.25,0.75,1.5,1.5,0.75,0.5,-0.11,0.89,1.52,252.98,-6.6,16.7
3.94,5.5,3.0,8.5,16.0,11.5,8.0,1.5,2.0,1.75,1.0,2.0,1.0,1.5,-0.05,0.08,0.95,958.92,9.7,41.1,1.0,1.0,1.75,2.0,1.5,2.5,1.0,1.25,0.75,1.25,1.5,0.75,0.5,0.14,1.52,1.58,254.99,-5.5,11.6
3.96,5.75,3.25,8.25,16.0,13.5,8.0,1.0,2.0,1.5,1.5,1.75,1.0,1.5,-0.05,0.08,0.95,1094.9,9.0,41.8,1.25,1.25,2.0,1.75,1.25,2.25,1.25,1.25,0.75,1.5,1.5,0.5,0.5,0.64,2.2,1.2,244.01,-6.7,13.8
3.98,6.25,3.75,3.25,16.0,13.5,8.0,0.5,1.75,1.5,0.5,1.75,1.0,1.5,-0.05,0.08,1.02,1145.59,7.1,43.4,1.25,1.75,2.0,3.0,1.0,2.75,1.25,1.25,1.0,1.5,1.5,0.75,0.5,1.33,2.7,1.08,247.22,-7.1,16.8
4.0,6.25,3.75,10.5,15.0,13.5,8.25,0.0,1.75,1.0,1.0,2.0,1.0,1.5,0.02,0.08,1.02,1218.34,10.0,44.4,1.5,1.75,1.75,2.25,1.0,2.5,1.25,1.25,0.75,1.5,1.5,0.5,0.5,1.77,3.02,0.45,248.22,-6.9,17.7
4.02,6.75,2.5,10.5,6.0,14.0,7.75,0.0,1.75,1.0,1.0,1.75,0.5,1.5,-0.05,0.14,1.02,1174.77,9.1,43.5,1.25,1.5,1.75,2.25,1.25,2.75,1.0,1.25,0.75,1.25,1.5,0.5,0.5,0.83,2.77,0.27,249.96,-6.0,17.5
4.04,7.0,2.0,10.5,16.0,15.5,8.25,0.0,1.75,1.0,0.0,1.75,0.75,1.5,-0.05,0.08,0.89,1237.15,10.2,46.8,1.5,1.25,1.5,1.5,1.0,2.25,1.0,1.25,0.75,1.0,1.5,0.75,0.5,0.39,3.2,0.27,241.99,-6.6,12.8
4.06,7.0,2.25,10.5,16.5,15.0,8.0,0.0,1.0,1.0,1.25,1.75,1.0,1.25,-0.11,0.14,1.02,1267.48,10.4,45.8,1.25,1.75,1.5,2.75,1.0,2.75,1.25,1.25,0.75,1.5,1.5,0.75,0.75,0.08,3.64,0.77,247.2,-5.7,13.9
4.08,7.0,2.75,11.0,16.0,12.0,7.75,0.0,1.75,1.0,1.25,1.75,1.0,1.25,-0.11,0.14,1.02,1295.23,11.1,44.9,2.0,1.75,1.0,2.25,1.0,2.75,1.0,1.5,1.0,1.5,0.5,0.75,1.0,0.83,2.77,1.02,244.05,-4.6,16.1
4.1,6.25,3.25,11.5,16.0,15.0,7.5,0.0,1.75,0.0,2.0,1.75,0.0,1.25,-0.11,0.2,1.14,1298.22,10.2,47.5,0.75,0.25,0.0,2.0,0.0,3.5,1.25,2.75,0.75,2.5,0.75,0.75,1.0,-0.36,-0.17,2.08,233.56,4.4,-14.8
4.12,5.5,2.25,9.5,13.0,12.0,6.5,0.0,0.5,0.0,1.0,0.25,0.0,0.25,-0.05,0.27,1.2,1159.52,11.4,55.3,1.25,0.75,0.0,1.5,0.0,5.0,0.0,4.0,0.75,3.75,2.0,0.75,1.0,0.02,0.02,1.02,243.23,6.5,-17.8
4.14,4.75,2.25,9.25,13.0,11.5,6.0,0.0,0.5,0.0,1.0,0.5,0.0,0.25,-0.36,0.27,1.08,1017.0,11.4,54.3,0.0,1.0,1.5,2.5,1.25,5.75,0.25,4.25,1.0,4.0,3.25,1.0,1.5,0.08,0.08,0.95,277.19,4.0,-15.0
4.16,4.0,2.5,8.5,12.0,9.25,6.0,0.0,0.0,0.75,1.25,0.25,1.0,0.25,-0.36,0.39,1.02,861.53,11.5,49.8,2.0,1.75,1.5,2.5,3.5,6.25,2.0,5.25,1.25,5.25,3.75,1.25,2.5,0.14,0.08,0.95,361.82,1.7,-7.6
4.18,4.75,2.25,8.5,11.0,9.25,5.25,0.0,1.75,0.75,1.0,1.5,0.75,1.25,-0.48,0.52,1.02,784.9,10.8,42.3,2.25,1.75,0.0,1.5,3.5,6.25,2.25,5.5,1.25,5.25,3.75,1.5,2.5,0.14,0.08,0.95,439.69,3.6,-12.5
4.2,3.75,2.25,7.5,9.5,8.25,4.0,0.0,1.75,0.5,1.0,1.5,0.75,1.25,-0.48,0.58,0.89,696.06,10.7,40.5,1.75,2.0,1.5,0.0,3.5,6.75,2.25,6.0,1.0,5.5,3.75,1.5,2.75,0.14,0.08,0.95,510.26,3.8,-13.8
4.22,3.75,2.0,6.25,7.0,7.5,2.25,0.0,1.5,0.5,1.0,0.5,0.75,1.0,-0.55,0.58,0.77,598.34,11.4,42.8,1.5,2.0,1.0,1.25,3.5,7.0,2.25,6.25,1.0,6.0,3.75,1.25,3.25,0.14,0.08,0.95,550.77,4.5,-14.3
4.24,2.0,0.75,3.25,6.0,5.25,2.0,0.0,0.0,0.0,0.0,0.5,0.0,0.25,-0.55,0.52,0.64,422.98,11.9,54.9,1.75,2.5,1.0,1.25,3.5,7.0,2.0,7.0,1.0,6.25,3.75,1.5,3.75,0.14,0.08,0.95,590.4,4.4,-15.0
4.26,0.25,0.75,2.0,5.25,5.25,1.75,0.0,0.0,0.0,0.0,0.25,0.0,0.0,-0.36,0.39,0.83,291.65,8.2,54.8,1.5,1.0,1.0,0.0,3.5,7.25,2.0,7.0,1.0,5.5,3.75,1.75,4.25,0.14,0.08,0.95,593.5,6.0,-23.1
4.28,0.25,0.75,0.75,4.0,2.5,1.75,0.0,0.0,0.0,0.0,0.25,0.0,0.0,-0.36,-0.36,1.02,170.38,6.9,54.1,1.5,0.0,0.75,0.5,3.25,7.5,1.0,7.5,0.75,6.75,3.75,1.75,4.75,0.14,0.08,0.95,596.48,7.8,-29.5
4.3,0.0,0.75,0.0,3.0,1.25,1.75,0.0,0.0,0.0,0.0,0.25,0.0,0.0,-0.55,-0.86,1.2,69.05,3.2,51.5,1.5,0.0,0.0,0.0,2.75,7.5,1.0,7.75,0.5,7.25,3.75,1.5,5.25,0.14,0.08,0.95,582.88,9.6,-35.0
4.32,0.25,0.75,0.0,3.0,1.25,1.75,0.0,0.0,0.0,0.0,0.25,0.0,0.0,-0.67,-0.61,1.39,5.34,4.2,52.9,0.0,0.75,0.0,0.25,1.75,7.5,1.0,7.75,0.5,7.25,2.75,1.25,5.5,0.14,0.08,0.95,557.9,11.6,-38.4
4.34,0.0,0.75,0.0,2.75,0.75,1.75,0.0,0.0,0.0,0.0,0.25,0.25,0.0,-0.17,-0.23,1.2,0.0,3.5,45.0,1.5,1.0,0.0,1.25,1.25,7.5,0.5,7.75,0.5,7.25,2.25,1.0,5.5,0.14,0.08,1.02,532.6,9.7,-30.4
4.36,0.0,0.75,0.0,2.75,0.75,1.5,0.0,0.0,0.0,0.0,0.25,0.0,0.0,0.2,0.14,1.2,0.0,4.3,51.7,1.25,0.0,0.75,0.75,1.5,7.0,0.5,7.5,0.5,6.75,1.5,0.75,5.5,0.14,0.08,1.02,490.84,10.2,-32.4
4.38,0.0,0.75,0.0,2.75,0.75,1.5,0.0,0.0,0.0,0.0,0.75,0.0,0.0,0.52,0.27,1.14,0.0,4.7,42.5,1.25,0.0,0.75,0.75,1.25,6.25,0.5,7.0,0.25,6.75,1.5,0.75,5.0,0.27,0.14,1.02,445.32,10.0,-33.3
4.4,0.0,0.75,0.0,2.75,0.75,1.5,0.0,0.0,0.0,0.0,0.25,0.0,0.0,0.7,0.08,1.02,0.0,4.3,51.7,1.25,0.0,0.75,0.0,1.25,0.0,0.25,6.25,0.25,0.0,1.5,0.0,5.0,0.52,0.2,1.02,342.14,5.2,-41.2
4.42,0.0,0.75,0.0,2.75,0.5,1.5,0.0,0.0,0.0,0.0,0.25,0.0,0.25,0.83,-0.17,1.14,1.65,3.9,44.8,1.25,0.75,0.75,1.0,1.0,0.0,0.5,5.25,0.25,4.75,1.5,0.75,4.25,0.83,0.27,0.95,294.36,4.3,-39.9
4.44,0.0,0.75,0.0,2.75,0.5,1.5,0.0,0.0,0.0,0.0,0.25,0.0,0.25,0.89,-0.17,1.39,26.9,3.9,44.8,1.0,0.5,1.0,0.0,0.5,2.75,0.5,4.25,0.5,2.75,1.5,0.0,4.25,0.89,0.27,1.33,248.85,6.6,-33.8
4.46,0.0,0.75,0.0,2.75,0.5,1.5,0.0,0.0,0.0,0.0,0.25,0.0,0.25,0.58,-0.17,1.27,52.87,3.9,44.8,1.25,1.0,1.0,1.25,0.0,1.25,0.75,4.25,0.5,3.25,1.5,0.75,2.5,0.7,0.2,1.83,225.32,1.5,-26.4
4.48,0.0,0.75,0.0,2.75,0.5,1.0,0.0,0.0,0.0,0.0,0.25,0.0,0.25,0.45,-0.17,1.08,72.39,6.1,45.7,0.5,1.75,1.0,1.5,0.0,2.25,1.0,2.75,0.25,2.25,0.75,0.75,0.5,1.02,0.33,1.33,194.63,0.0,-1.0
4.5,0.0,0.75,0.0,2.75,0.5,1.5,0.0,0.0,0.0,0.0,0.25,0.0,0.25,0.52,-0.23,1.14,83.98,3.9,44.8,1.25,0.75,1.0,0.0,0.0,0.5,1.0,2.75,0.0,0.5,1.5,0.0,1.25,1.52,0.33,1.45,157.87,-3.9,-11.3
4.52,0.0,0.5,0.0,2.75,0.5,1.25,0.0,0.0,0.0,0.0,0.25,0.0,0.25,0.77,-0.3,1.2,90.16,4.6,42.8,0.0,0.25,0.0,0.5,0.0,2.75,1.0,2.5,0.0,0.25,0.5,0.0,0.25,1.52,0.45,1.45,106.98,10.3,-3.1
4.54,0.0,0.5,0.0,2.75,0.5,1.0,0.0,0.0,0.0,0.0,0.25,0.0,0.0,1.77,-0.8,2.02,90.12,6.8,50.9,0.0,0.25,0.0,0.25,0.0,1.25,1.0,0.0,0.0,0.0,0.75,0.0,0.75,2.45,0.08,1.89,49.14,1.7,-12.4
4.56,0.0,0.5,0.0,2.5,0.5,1.5,0.0,0.0,0.0,0.25,0.25,0.0,0.0,2.14,-1.42,2.52,88.95,2.8,43.5,1.25,0.75,0.5,0.0,0.0,0.25,1.0,2.0,0.25,0.0,0.5,0.0,0.5,2.08,-0.17,1.83,28.17,-7.4,9.8
4.58,0.0,0.75,0.0,2.5,0.5,1.0,0.0,0.0,0.0,0.0,0.25,0.0,0.0,3.58,-3.11,1.64,87.34,6.5,52.9,1.25,0.75,0.5,0.0,0.0,0.5,1.0,2.25,0.5,2.0,0.5,0.25,0.0,0.83,-1.98,2.02,34.61,-2.1,-7.8
4.6,0.0,0.5,0.0,2.75,0.5,1.5,0.0,0.0,0.0,0.5,0.25,1.0,0.25,1.2,-2.73,2.52,96.0,2.9,14.0,0.5,1.25,0.25,0.0,0.0,0.5,1.0,2.75,0.25,1.5,1.25,0.0,0.5,1.27,-2.17,1.2,60.34,1.4,-17.3
4.62,0.25,1.0,1.0,3.0,1.75,2.5,0.0,0.0,0.25,1.0,1.5,1.0,0.75,-0.3,-2.42,2.14,138.32,3.8,11.8,1.25,1.5,1.25,0.75,0.0,2.5,1.0,2.75,0.5,1.5,1.5,0.5,0.5,0.2,-2.48,1.33,114.84,-2.2,1.6
4.64,0.25,0.75,1.0,2.75,1.75,1.75,0.0,0.0,0.0,0.0,1.5,0.0,0.5,-0.8,-1.42,1.77,160.71,6.7,31.0,1.5,1.5,1.0,1.25,0.0,2.0,1.0,2.75,0.5,1.25,1.5,0.5,0.5,0.33,-1.67,1.2,159.93,-3.8,4.4
4.66,0.0,0.5,0.0,2.25,0.5,1.5,0.0,0.0,0.0,0.0,0.25,0.0,0.0,-1.8,-0.05,0.83,151.31,3.0,48.6,0.0,1.75,1.25,1.25,0.0,2.5,1.0,2.75,0.5,1.25,1.75,0.5,0.5,0.64,-0.8,1.27,184.28,-0.8,-2.2
4.68,0.25,1.0,0.0,2.75,0.5,2.5,0.0,0.5,0.25,1.0,1.5,1.0,0.75,-1.23,-0.05,0.58,159.89,0.6,-0.4,1.0,1.25,1.25,1.0,0.0,2.75,1.0,2.75,0.5,1.5,1.5,0.5,0.0,1.02,-0.17,0.89,200.7,-2.0,3.9
4.7,0.25,0.75,1.0,2.75,1.25,1.75,0.25,0.0,0.25,1.0,1.0,1.0,0.0,0.2,-0.67,0.83,164.55,6.5,17.5,1.5,1.25,1.5,0.5,0.0,2.75,1.25,2.0,0.5,1.5,1.5,0.25,0.5,0.89,0.08,0.64,211.09,-3.7,6.4
4.72,0.25,0.75,1.0,3.0,1.25,2.0,0.25,0.0,0.0,1.0,1.5,1.0,0.5,0.83,-0.73,0.77,179.8,5.4,10.9,1.5,1.25,1.0,0.0,0.0,2.5,1.25,2.75,0.5,1.5,1.5,0.5,0.5,0.64,-0.05,0.83,215.21,-1.3,-2.5
4.74,0.25,0.75,1.25,2.75,1.75,2.25,0.25,0.0,0.0,1.0,1.25,1.0,1.0,1.02,-0.36,1.2,195.17,4.1,10.2,1.75,1.25,1.25,0.0,0.0,2.5,1.0,2.75,0.5,1.0,1.5,0.5,0.5,0.2,0.02,0.95,217.86,-3.0,2.7
4.76,0.25,1.0,1.0,2.75,0.75,2.5,0.25,0.0,0.0,1.0,1.5,1.0,0.75,0.7,-0.48,0.58,205.01,4.3,8.2,1.75,1.25,1.25,0.75,0.0,2.75,1.25,2.75,0.25,1.25,1.5,0.5,0.5,-0.61,-0.23,0.83,222.73,-3.1,5.7
4.78,0.25,1.0,1.25,2.75,1.25,2.0,0.25,0.0,0.25,1.0,1.5,1.0,0.5,0.08,-0.42,0.45,206.54,6.1,11.8,1.25,1.25,1.25,0.5,0.0,2.5,1.25,2.75,0.25,1.5,1.5,0.75,0.5,0.14,-0.61,0.64,222.11,-2.0,-2.0
4.8,0.25,0.75,1.0,2.75,1.25,1.75,0.25,0.0,0.25,1.0,1.5,1.0,0.5,-0.3,-0.67,0.08,201.34,5.9,8.5,1.25,1.75,1.25,1.25,0.0,1.25,1.25,2.75,0.5,1.5,1.5,0.25,0.5,0.2,-0.8,0.27,218.07,-5.2,4.9
4.82,0.25,1.0,1.0,2.75,1.25,2.5,0.25,0.0,0.0,1.0,1.75,1.0,0.75,-0.67,-0.92,-0.17,202.44,4.1,8.7,1.25,1.5,1.0,0.5,0.0,2.0,1.25,2.75,0.25,1.75,1.5,0.5,0.5,0.08,-0.8,0.33,211.5,-1.9,-1.9
4.84,0.25,0.75,1.25,2.75,0.75,2.25,0.25,0.0,0.25,1.25,1.0,0.75,0.75,-0.73,-0.8,0.08,195.03,4.8,10.0,1.0,1.0,1.25,0.75,0.0,2.75,1.25,2.75,0.5,1.5,1.5,0.5,0.5,0.02,-0.92,0.02,207.98,-1.2,-2.5
4.86,0.25,0.75,1.0,2.75,1.25,2.25,0.25,0.0,0.25,1.0,1.0,1.0,0.25,-0.42,-0.55,0.14,190.24,5.0,15.4,1.5,1.25,1.25,0.5,0.0,2.25,1.5,2.75,0.5,1.75,1.75,0.25,0.5,0.2,-0.8,-0.05,205.09,-2.9,-0.2
4.88,0.25,1.0,1.0,2.75,1.25,2.25,0.25,0.0,0.0,0.0,1.5,0.0,1.0,-0.11,-0.55,-0.05,186.77,5.4,25.1,1.25,1.25,1.25,1.0,0.0,2.5,1.25,2.5,0.25,1.5,1.75,0.5,0.75,0.14,-0.55,0.02,208.63,-2.6,-0.6
4.9,0.0,0.5,0.0,1.5,0.5,0.75,0.0,0.0,0.0,1.0,0.25,0.0,0.25,-0.05,-0.48,-0.05,151.11,-0.2,15.3,1.25,0.25,1.25,0.0,0.0,2.25,1.25,2.75,0.25,2.0,0.75,0.75,0.5,-0.05,-0.3,0.08,199.65,0.2,-12.3
4.92,0.0,0.5,1.25,1.75,0.5,1.75,0.0,0.0,0.25,0.0,1.0,0.0,0.75,0.08,-0.42,-0.05,125.91,6.4,19.8,0.0,0.0,1.25,1.25,0.0,2.5,1.25,2.5,0.25,0.0,1.5,0.25,0.5,-0.05,-0.23,-0.17,182.46,-0.8,-4.6
4.94,0.25,1.0,0.0,2.75,0.5,2.5,0.75,0.25,0.0,1.0,1.5,1.0,0.5,0.08,-0.23,0.02,127.11,2.0,4.4,1.75,1.5,1.5,0.5,0.0,2.0,1.5,2.75,0.5,1.25,1.5,0.5,0.5,-0.05,-0.23,-0.23,185.56,-5.2,5.4
4.96,0.25,1.0,1.25,2.75,1.25,2.5,0.25,0.0,0.25,1.0,1.5,1.0,1.0,-0.11,-0.23,-0.11,152.49,4.4,8.1,1.25,0.75,1.25,0.0,0.0,0.5,1.25,2.5,0.25,0.0,1.5,0.0,0.5,-0.23,-0.17,-0.11,165.94,-8.6,3.2
4.98,0.25,1.0,1.0,2.75,1.25,2.0,0.25,0.0,0.0,1.0,1.5,1.0,0.5,-0.23,-0.23,-0.23,170.12,5.3,11.8,2.0,1.25,1.25,1.25,0.0,2.5,1.5,2.5,0.25,1.0,1.5,0.5,0.5,-0.36,-0.11,0.14,180.64,-5.3,10.7
5.0,0.5,0.75,1.25,2.75,1.25,2.25,0.25,0.0,0.0,1.0,1.5,1.25,0.75,0.39,-0.11,-0.42,188.75,5.5,8.4,1.25,0.75,1.25,0.75,0.0,2.25,1.5,2.5,0.25,1.0,1.5,0.5,0.5,-1.23,0.27,0.14,180.55,-3.5,0.3
5.02,0.25,0.75,1.75,2.75,1.25,2.5,0.25,0.0,0.0,1.0,1.25,1.0,1.25,-0.42,-0.17,-0.48,197.75,4.9,8.4,0.0,1.25,1.0,1.0,0.0,1.5,1.5,1.5,0.25,1.25,0.5,0.5,0.0,-0.23,0.08,-0.3,173.07,-3.4,6.9
5.04,0.25,0.75,1.5,2.75,1.25,2.0,0.25,0.0,0.0,1.0,1.5,1.0,0.5,-0.23,0.02,-0.36,198.52,6.5,12.0,1.25,1.25,1.5,0.75,0.0,2.25,1.25,2.0,0.25,1.5,1.5,0.5,0.5,-0.11,0.14,-0.55,175.09,-4.3,3.5
5.06,0.25,1.0,1.75,2.75,1.25,2.25,0.25,0.0,0.0,1.0,1.5,1.0,0.75,0.08,0.2,-0.42,202.43,6.3,12.6,1.25,1.0,1.25,1.0,0.0,2.75,1.5,2.0,0.25,1.0,1.5,0.5,0.5,-0.11,0.2,-0.67,181.01,-3.8,5.9
5.08,0.25,1.0,1.0,2.75,1.25,1.75,0.25,0.0,0.25,1.0,1.75,1.0,0.5,0.08,0.33,-0.67,202.25,6.1,8.7,1.5,1.5,1.25,1.25,0.0,2.75,1.5,1.75,0.25,1.0,1.5,0.5,0.5,-0.36,0.14,-0.42,192.74,-5.2,12.5
5.1,0.25,0.75,1.25,2.75,1.25,2.0,0.25,0.0,0.0,1.0,1.5,1.0,0.5,0.14,0.39,-0.86,200.75,5.9,11.0,1.25,1.5,1.75,1.25,0.0,1.75,1.5,1.75,0.25,1.25,1.5,0.75,0.5,-0.42,0.2,-0.55,199.97,-7.5,7.7
5.12,0.25,1.0,1.5,2.75,1.25,1.75,0.25,0.0,0.0,1.0,1.5,1.0,0.75,0.52,0.33,-0.92,200.07,6.8,10.9,1.25,1.5,1.25,1.25,0.0,2.0,1.25,1.75,0.25,1.0,1.5,0.75,0.5,-0.48,0.2,-0.73,205.34,-6.0,7.5
5.14,0.25,1.0,1.5,2.75,0.75,2.0,0.25,0.0,0.25,1.0,1.5,1.0,0.5,0.14,0.33,-1.36,199.57,7.2,10.9,1.0,1.25,1.25,0.75,0.0,2.75,1.25,2.0,0.25,1.0,1.5,0.5,0.5,-0.42,0.2,-0.98,203.22,-2.9,4.8
5.16,0.25,1.0,1.75,2.75,0.75,1.75,0.25,0.0,0.0,1.5,1.5,1.0,0.5,0.14,0.33,-1.23,194.23,7.4,9.1,1.25,1.25,1.25,1.25,0.0,2.25,1.5,1.5,0.25,1.0,1.5,0.5,0.5,-0.48,0.27,-1.17,199.29,-6.0,9.4
5.18,0.5,1.25,1.0,2.75,0.75,2.0,0.25,0.0,0.25,1.0,1.5,1.0,0.75,0.14,0.2,-1.17,190.49,6.1,9.8,1.25,1.5,1.75,0.5,0.0,2.5,1.5,1.5,0.25,1.25,1.5,0.5,0.5,-0.86,0.14,-1.11,197.39,-5.8,9.1
5.2,0.25,1.0,1.25,2.75,1.25,1.75,0.25,0.0,0.0,1.0,1.5,1.0,0.75,0.02,0.14,-1.36,189.14,6.1,9.9,1.5,1.5,1.5,1.0,0.0,2.0,1.5,1.5,0.0,0.75,1.5,0.5,0.5,-0.55,0.2,-1.17,197.25,-7.9,15.0
5.22,0.25,1.0,1.5,2.75,1.25,2.0,0.25,0.0,0.0,1.0,1.5,1.0,0.5,-0.05,0.08,-1.23,190.43,6.6,13.7,1.0,1.25,1.5,0.75,0.0,2.5,1.5,1.5,0.25,1.0,1.5,0.5,0.5,-0.61,0.08,-1.11,192.35,-5.1,7.3
5.24,0.25,1.0,1.75,2.75,0.75,2.0,0.25,0.0,0.0,1.0,1.5,1.0,0.5,0.02,0.02,-1.11,189.32,7.7,12.8,1.5,1.25,1.5,1.5,0.0,2.5,1.5,1.5,0.25,1.0,1.75,0.5,0.5,-0.61,-0.05,-1.11,198.85,-6.8,11.7
5.26,0.25,0.75,1.25,2.75,1.25,2.0,0.25,0.0,0.0,1.0,1.5,1.0,0.5,-0.05,-0.11,-1.11,188.08,5.9,11.0,1.25,1.5,1.5,0.5,0.0,2.5,1.25,1.25,0.25,1.0,1.5,0.5,0.5,-0.61,-0.11,-1.05,196.42,-5.7,10.5
5.28,0.25,0.75,1.75,2.75,1.25,2.0,0.25,0.0,0.0,1.0,1.5,1.0,0.5,-0.05,-0.23,-1.05,189.53,7.1,12.9,1.5,1.5,1.5,0.75,0.0,2.25,1.5,1.5,0.25,1.75,1.5,0.5,0.5,-0.55,-0.17,-1.05,197.21,-5.6,7.1
5.3,0.25,1.0,1.25,2.75,1.25,1.75,0.25,0.0,0.0,1.0,1.75,1.0,0.5,-0.11,-0.3,-1.05,189.17,6.6,10.7,1.5,1.25,1.25,1.25,0.0,2.75,1.25,1.5,0.25,1.5,1.5,0.5,0.5,-0.55,-0.23,-0.98,199.72,-4.5,8.6
5.32,0.5,0.75,1.75,2.75,0.75,1.75,0.25,0.0,0.0,1.0,1.5,1.25,0.5,-0.11,-0.3,-0.98,189.63,8.7,9.9,2.0,1.5,1.25,1.5,0.0,2.0,1.25,1.25,0.25,1.25,1.5,0.5,0.5,-0.61,-0.3,-0.86,203.22,-8.0,15.2
5.34,0.25,1.0,1.0,2.75,0.5,2.0,0.25,0.0,0.0,1.0,1.5,1.0,0.5,-0.05,-0.3,-0.92,183.99,6.0,8.7,1.25,1.5,1.75,1.25,0.0,2.0,1.25,1.5,0.25,1.0,1.5,0.0,0.5,-0.48,-0.42,-0.86,201.04,-7.5,17.2
5.36,0.25,0.75,1.5,2.75,0.75,2.0,0.25,0.0,0.0,1.0,1.5,1.0,0.5,-0.05,-0.3,-0.92,181.37,7.0,10.0,1.25,1.25,1.25,1.25,0.0,2.25,1.25,1.25,0.0,1.0,1.5,0.75,0.5,-0.36,-0.42,-0.92,197.19,-6.1,8.8
5.38,0.25,0.75,1.25,2.75,1.25,1.75,0.25,0.0,0.0,1.0,1.5,1.0,0.5,0.02,-0.3,-0.92,179.66,6.4,10.5,1.5,1.5,1.25,1.25,0.0,2.25,1.5,1.5,0.25,1.5,1.5,0.25,0.5,-0.36,-0.42,-0.86,197.34,-5.7,11.7
5.4,0.25,1.0,1.25,2.75,1.25,1.75,0.25,0.0,0.0,1.0,1.5,1.0,0.5,-0.05,-0.23,-0.86,181.32,6.5,12.3,1.25,1.25,1.25,1.25,0.0,2.0,1.25,1.25,0.5,1.0,1.5,0.25,0.5,-0.36,-0.36,-0.8,192.21,-6.8,11.2
5.42,0.25,1.0,1.5,2.75,0.75,1.75,0.25,0.0,0.0,1.0,1.5,1.0,0.5,-0.11,-0.23,-0.86,181.59,7.7,11.4,1.25,1.5,1.25,1.0,0.0,2.0,1.25,1.25,0.25,1.75,1.75,0.5,0.5,-0.42,-0.3,-0.73,192.97,-5.4,4.3
5.44,0.25,0.75,1.0,2.75,1.25,2.25,0.25,0.0,0.0,1.0,1.5,1.0,0.75,-0.05,-0.17,-0.8,184.19,4.3,8.0,1.25,1.25,1.25,0.75,0.0,2.25,1.25,1.25,0.25,1.0,1.5,0.5,0.5,-0.48,-0.3,-0.8,187.78,-5.7,8.2
5.46,0.25,0.75,1.5,2.75,1.25,2.0,0.25,0.0,0.0,1.0,1.5,1.0,0.5,0.08,-0.17,-0.8,185.92,6.5,12.0,1.25,1.25,1.75,0.0,0.0,2.25,1.25,1.25,0.25,1.0,1.5,0.5,0.5,-0.36,-0.11,-0.73,182.67,-6.3,7.2
5.48,0.25,0.75,1.0,3.5,1.25,2.0,0.25,0.0,0.0,1.0,1.5,1.5,0.25,0.02,-0.17,-0.8,190.21,6.4,10.6,1.25,1.5,1.25,1.0,0.0,2.5,1.0,1.25,0.25,1.0,1.75,0.5,0.5,-0.36,-0.11,-0.8,181.69,-5.4,9.7
5.5,0.25,0.75,1.25,2.75,1.25,1.75,0.25,0.0,0.0,1.0,1.25,1.0,0.75,0.02,-0.11,-0.8,188.96,5.9,9.7,1.25,1.5,1.25,0.5,0.0,2.0,1.0,1.25,0.25,1.25,1.5,0.25,0.5,-0.42,-0.05,-0.8,179.08,-5.4,9.0
5.52,0.25,0.75,1.25,2.75,1.25,1.75,0.25,0.0,0.0,1.0,1.25,1.0,0.5,0.02,0.02,-0.61,186.41,6.3,12.3,1.25,1.25,1.25,1.25,0.25,2.5,1.0,1.25,0.25,1.5,1.5,0.5,0.5,-0.42,0.02,-0.67,184.19,-4.4,8.2
5.54,0.25,0.75,1.0,2.75,0.75,1.75,0.25,0.0,0.0,1.0,1.25,1.0,0.5,0.02,0.02,-0.61,179.18,6.1,9.0,1.25,1.0,1.25,1.25,0.5,2.5,1.0,1.25,0.25,1.0,1.5,0.5,0.5,-0.36,0.02,-0.55,187.21,-4.9,10.6
5.56,0.25,0.75,1.0,2.75,1.25,2.0,0.25,0.0,0.0,1.0,1.5,1.0,0.25,0.02,0.08,-0.61,177.38,5.6,12.5,1.25,1.25,1.25,0.25,0.0,2.25,1.0,1.25,0.25,1.0,1.5,0.25,0.5,-0.48,0.2,-0.48,183.25,-4.8,8.3
5.58,0.25,0.75,1.25,3.0,1.25,1.75,0.25,0.0,0.0,1.0,1.5,1.0,0.75,0.08,0.14,-0.61,179.87,6.2,9.1,1.25,1.5,1.25,0.5,0.0,1.75,1.0,1.25,0.25,1.0,1.5,0.5,0.5,-0.48,0.33,-0.36,177.85,-6.5,7.8
5.6,0.25,0.75,1.0,2.75,0.75,1.75,0.25,0.0,0.0,1.0,1.5,1.0,0.5,0.08,0.2,-0.42,177.4,6.2,7.3,1.25,1.5,1.25,1.25,0.0,2.0,1.0,1.25,0.25,0.75,1.5,0.5,0.5,-0.48,0.39,-0.3,176.85,-7.0,13.2
5.62,0.25,1.0,1.0,2.75,1.25,1.75,0.25,0.0,0.0,1.0,1.5,1.0,0.5,0.02,0.27,-0.17,179.07,5.9,11.3,1.25,1.25,1.25,1.25,0.0,2.0,1.25,1.25,0.25,1.5,1.5,0.75,0.5,-0.48,0.45,-0.55,180.72,-5.9,4.3
5.64,0.0,0.25,1.0,3.0,0.75,1.75,0.25,0.0,0.0,1.0,1.5,1.0,0.5,-0.05,0.33,-0.23,172.54,5.5,2.3,1.25,2.25,1.25,1.25,0.0,2.0,1.0,1.25,0.25,1.25,1.5,0.25,0.5,-0.48,0.58,-0.17,188.61,-6.5,17.1
5.66,0.25,1.25,1.0,2.75,1.25,2.0,0.25,0.0,0.0,1.0,1.75,1.0,0.5,-0.05,0.39,-0.11,178.05,5.6,11.9,1.5,1.5,1.25,0.75,0.0,2.75,1.0,1.25,0.25,1.0,1.5,0.5,0.5,-0.48,0.64,0.2,193.03,-5.1,12.3
5.68,0.25,0.75,1.0,2.75,0.75,1.75,0.25,0.0,0.0,1.0,1.5,1.0,0.5,-0.05,0.58,0.33,174.29,6.2,7.3,1.25,1.5,1.25,1.25,0.0,2.25,1.0,1.25,0.25,1.0,1.5,0.25,0.5,-0.42,0.7,0.39,193.69,-6.0,14.2
5.7,0.25,1.0,1.0,2.75,0.5,1.75,0.25,0.0,0.0,1.0,1.5,1.0,0.5,-0.11,0.77,0.45,174.35,6.6,8.2,1.5,1.25,1.25,1.0,0.0,2.25,1.0,1.25,0.25,1.25,1.5,0.25,0.5,-0.36,0.64,0.39,190.87,-5.7,11.3
5.72,0.25,0.75,1.75,2.75,0.75,2.0,0.25,0.0,0.0,1.0,1.75,1.0,0.25,-0.3,0.64,0.64,176.24,8.1,11.9,1.25,1.0,1.25,0.5,0.0,2.5,1.0,1.25,0.25,1.0,1.5,0.25,0.5,-0.17,0.58,0.7,183.16,-4.3,7.9
5.74,0.25,0.75,1.25,2.75,1.25,1.75,0.25,0.0,0.0,1.0,1.5,1.0,0.5,-0.3,0.52,0.77,179.79,6.4,10.5,1.25,1.25,1.25,0.75,0.0,2.5,1.0,1.25,0.25,1.0,1.5,0.5,0.5,0.02,0.52,1.02,181.19,-4.9,8.5
5.76,0.25,0.75,1.25,2.75,0.5,1.75,0.25,0.0,0.0,1.0,1.5,1.0,0.5,-0.17,0.45,1.02,177.77,7.1,7.3,1.25,1.25,1.25,1.0,0.0,2.0,1.0,1.25,0.0,1.25,1.5,0.25,0.5,0.2,0.52,1.33,177.24,-5.6,10.2
5.78,0.25,0.75,1.0,2.75,0.75,1.75,0.25,0.0,0.0,1.0,1.5,1.0,0.5,-0.11,0.33,1.39,175.44,6.2,7.3,1.25,1.25,1.25,1.25,0.5,2.25,1.0,1.25,0.25,0.75,1.5,0.25,0.5,0.2,0.52,1.77,181.48,-5.9,16.1
5.8,0.0,0.75,1.25,3.0,0.75,1.75,0.25,0.0,0.0,1.0,1.5,1.0,0.75,0.02,0.52,1.83,174.52,6.1,5.2,1.5,1.25,1.25,1.0,0.0,2.25,1.0,1.25,0.25,1.0,1.5,0.25,0.5,0.27,0.08,1.52,182.82,-6.2,13.1
5.82,0.0,0.25,0.75,0.75,1.75,0.75,0.25,0.0,0.0,1.0,0.25,1.0,0.0,-0.3,0.39,1.95,150.7,3.3,7.3,1.25,1.5,1.25,0.5,0.0,2.0,1.0,1.25,0.25,1.0,1.5,0.5,0.5,0.39,-0.73,1.7,180.82,-5.9,8.3
5.84,0.25,0.75,1.25,1.5,1.25,0.5,0.25,0.0,0.0,0.0,1.25,0.0,0.5,-0.42,-0.67,3.89,134.6,11.6,28.5,1.25,1.0,1.25,1.0,0.5,1.25,1.5,1.25,0.25,1.0,1.5,0.5,0.5,0.27,-1.48,1.83,177.55,-7.9,7.6
5.86,0.0,0.0,0.0,3.0,0.5,1.75,0.25,0.0,0.0,0.0,0.25,0.0,0.0,-0.92,-2.3,4.77,109.14,3.6,44.3,1.25,1.25,1.0,1.0,0.25,2.25,1.25,1.25,0.0,1.0,1.5,0.25,0.5,0.77,-4.05,3.14,176.04,-4.8,12.6
5.88,0.0,0.0,0.0,2.75,0.5,0.5,0.0,0.0,0.0,0.0,0.25,1.25,0.25,-0.23,-5.42,4.45,92.31,8.2,5.4,1.25,1.25,1.25,1.5,0.0,2.25,1.5,1.25,0.25,2.0,1.5,0.5,0.5,1.39,-5.17,4.39,184.84,-5.0,5.2
5.9,0.0,0.25,0.0,1.5,0.5,0.5,0.25,0.0,0.0,0.0,1.5,0.5,1.5,2.27,-0.42,7.64,79.96,3.1,-25.7,1.25,1.25,1.25,1.25,0.0,2.0,1.25,1.25,0.25,1.5,1.5,0.0,0.5,2.7,-7.05,3.52,187.37,-5.7,11.1
5.92,0.0,0.25,0.0,1.25,0.5,0.5,0.0,0.0,0.0,0.0,0.25,0.0,0.0,-0.23,-5.11,4.39,62.1,5.4,45.4,1.5,1.0,0.0,1.25,0.0,1.5,1.0,1.25,0.25,1.5,1.5,0.5,0.5,2.39,-2.36,-1.42,182.4,-3.5,-1.4
5.94,0.0,0.0,0.0,2.75,0.5,1.75,0.25,0.0,0.0,1.0,0.25,0.0,0.0,1.7,-1.23,2.95,64.97,0.0,25.2,1.25,1.25,1.0,1.0,0.0,1.75,1.25,1.25,0.25,1.5,1.5,0.25,0.5,1.08,-3.3,2.52,178.62,-5.4,6.1
5.96,0.0,0.0,0.0,0.5,0.5,0.25,0.25,0.0,0.0,0.0,0.25,0.0,0.0,0.95,-0.48,1.7,42.31,4.8,31.9,1.0,1.25,1.0,1.25,0.0,2.25,1.5,1.25,0.25,0.0,1.5,0.5,0.5,0.14,-1.86,2.83,173.76,-7.0,15.0
5.98,0.25,0.5,0.25,3.0,1.25,2.25,0.75,0.0,0.0,1.0,1.5,1.0,0.5,-0.3,0.08,0.58,85.36,3.2,6.6,1.0,1.5,1.25,0.75,0.0,2.25,1.25,1.25,0.25,1.0,1.5,0.25,0.5,0.89,-0.98,0.58,173.15,-5.2,10.8
6.0,0.25,0.75,1.25,2.75,0.75,1.75,0.75,0.0,0.0,1.0,1.5,1.0,0.25,-0.11,0.14,0.64,118.67,7.9,11.4,1.25,1.75,1.0,0.75,0.0,2.0,1.25,0.0,0.0,1.75,0.5,0.25,0.5,0.7,0.2,0.77,167.14,-6.3,22.3
6.02,0.25,0.75,2.0,2.75,0.75,1.75,0.75,0.0,0.0,1.0,1.25,1.0,0.5,0.45,-0.05,0.7,160.65,9.2,13.6,1.0,1.5,1.0,1.0,0.0,2.25,1.25,1.25,0.25,1.5,1.5,0.5,0.0,-0.11,0.08,0.64,170.71,-4.8,9.9
6.04,0.25,0.75,1.75,2.75,0.75,1.75,0.75,0.0,0.0,1.0,1.25,1.0,0.5,0.33,0.08,0.64,180.93,8.6,12.7,1.5,1.25,1.25,1.25,0.0,2.0,1.25,1.25,0.25,1.0,1.5,0.25,0.5,-0.36,0.02,0.52,174.44,-7.2,13.8
6.06,0.25,0.75,2.0,2.75,0.75,1.75,0.75,0.0,0.0,1.0,1.5,1.0,0.25,-0.23,0.02,0.2,197.95,9.7,14.5,1.25,1.5,1.25,0.5,0.0,2.0,1.0,1.25,0.0,1.0,1.5,0.25,0.5,0.08,0.27,0.02,174.86,-5.7,11.9
6.08,0.25,0.75,2.0,2.75,0.5,2.0,0.75,0.0,0.0,1.0,1.5,1.0,0.5,0.08,0.08,0.2,201.26,9.0,11.4,1.25,1.5,1.0,1.25,0.0,2.0,1.0,1.25,0.25,1.0,1.5,0.25,0.5,-0.17,-0.11,-0.05,176.61,-5.9,12.8
6.1,0.25,0.75,1.75,2.75,1.25,1.75,0.75,0.0,0.0,1.0,1.5,1.0,0.5,-0.17,0.27,-0.17,206.55,8.1,12.8,1.25,1.5,1.0,1.25,0.0,2.25,1.0,1.25,0.25,1.75,1.5,0.0,0.5,-0.05,0.2,-0.23,180.71,-4.0,10.5
6.12,0.25,1.0,1.5,2.75,1.25,1.75,0.75,0.0,0.0,1.0,1.5,1.0,0.5,-0.17,0.27,-0.3,210.46,7.6,13.6,1.0,2.0,1.5,0.75,0.5,2.25,1.0,1.25,0.25,1.5,1.5,0.5,0.5,-0.11,0.2,-0.05,189.84,-4.8,11.4
6.14,0.25,0.75,1.75,2.25,1.75,1.75,0.75,0.0,0.0,1.0,1.25,1.0,0.5,0.02,0.14,-0.23,210.87,7.2,14.5,1.25,1.25,1.25,0.75,0.0,1.0,1.25,1.25,0.25,1.0,1.5,0.5,0.5,-0.23,0.2,-0.05,185.57,-8.7,5.4
6.16,0.25,0.75,1.75,2.75,0.75,1.75,0.75,0.0,0.0,1.0,1.5,1.0,0.25,0.08,0.08,-0.17,206.95,9.1,13.5,1.25,1.25,1.0,1.5,0.0,2.25,1.25,0.0,0.25,1.5,0.25,0.25,0.75,-0.36,0.27,-0.23,180.41,-6.3,21.4
6.18,0.25,0.75,2.0,2.75,0.75,2.0,0.75,0.0,0.0,1.0,1.5,1.0,0.5,0.14,0.08,-0.23,202.29,8.7,12.4,1.25,1.5,1.0,0.75,0.0,2.0,1.25,1.25,0.25,2.25,1.5,0.5,0.5,-0.36,0.2,-0.23,180.14,-3.7,0.5
6.2,0.25,0.75,2.0,2.75,0.75,1.75,0.75,0.0,0.0,1.0,1.25,1.0,0.5,0.08,0.02,-0.3,197.54,9.2,13.6,1.5,1.5,1.0,1.25,0.0,1.75,1.25,1.25,0.25,1.0,1.5,0.25,0.5,-0.36,0.08,-0.17,180.92,-7.2,14.2
6.22,0.25,0.75,2.0,2.75,0.75,1.75,0.75,0.0,0.0,1.0,1.5,1.0,0.5,-0.05,-0.11,-0.17,189.87,9.3,12.0,1.25,1.5,1.0,0.75,0.5,2.5,1.25,1.25,0.25,1.0,1.5,0.25,0.5,-0.23,-0.17,-0.17,185.24,-4.2,13.8
6.24,0.25,0.75,1.75,2.75,1.25,1.75,0.75,0.0,0.0,1.0,1.25,1.0,0.25,-0.17,-0.3,-0.11,189.02,8.5,17.0,1.25,1.5,1.25,0.5,0.25,2.25,1.25,1.25,0.0,1.0,1.5,0.25,0.5,-0.11,-0.3,-0.11,185.32,-5.2,13.5
6.26,0.25,0.75,1.75,2.75,0.5,2.0,0.75,0.0,0.0,1.0,1.5,1.0,0.5,-0.23,-0.55,0.02,187.36,8.3,10.4,1.25,1.25,1.0,1.25,1.0,2.0,1.25,1.25,0.0,1.25,1.5,0.5,0.5,-0.05,-0.42,-0.05,189.43,-4.7,11.9
6.28,0.0,0.75,2.0,3.75,0.75,2.0,0.75,0.0,0.0,1.0,1.5,1.0,0.5,-0.3,-0.8,0.2,192.23,8.9,14.4,1.25,1.25,1.0,1.25,0.0,1.75,1.25,1.25,0.25,1.5,1.5,0.0,0.5,0.02,-0.67,0.02,185.51,-5.6,9.6
6.3,0.0,0.75,1.75,2.0,0.75,2.25,0.75,0.0,0.0,1.0,1.5,1.0,0.5,-0.42,-1.05,0.45,187.81,6.4,7.1,1.25,1.25,1.25,1.0,0.0,2.0,1.25,1.25,0.25,1.0,1.5,0.25,0.5,0.08,-1.05,0.33,184.2,-6.4,11.2
6.32,0.25,0.75,2.0,2.75,0.75,1.75,0.75,0.0,0.0,1.0,1.25,1.0,0.75,-0.55,-1.23,0.77,188.34,8.8,11.2,1.25,1.25,1.0,0.75,0.5,1.75,1.25,1.25,0.25,1.0,1.5,0.5,0.5,0.14,-1.3,0.58,180.12,-5.7,8.2
6.34,0.25,1.0,1.75,2.75,0.5,2.0,0.75,0.0,0.0,1.0,1.25,1.0,0.5,-0.55,-1.48,0.89,185.57,8.4,13.9,1.25,1.5,1.0,1.0,0.0,2.0,1.0,1.25,0.25,1.0,1.5,0.25,0.5,0.2,-1.42,0.58,177.96,-5.6,11.9
6.36,0.25,0.75,2.0,2.75,0.75,1.75,0.75,0.0,0.0,1.0,1.5,1.0,0.5,-0.55,-1.73,1.02,186.94,9.3,12.0,1.25,1.5,1.0,1.0,0.0,1.75,1.25,1.25,0.0,1.75,1.5,0.5,0.5,0.27,-1.55,0.64,178.86,-5.1,4.9
6.38,0.25,0.75,1.75,2.75,0.5,1.75,0.75,0.0,0.0,1.0,1.25,1.0,0.5,-0.61,-1.92,1.08,183.53,8.9,11.7,1.25,1.25,1.0,0.75,0.0,2.0,1.25,1.25,0.25,1.25,1.5,0.25,0.5,0.27,-1.61,0.7,178.61,-5.0,7.2
6.4,0.25,1.0,2.0,2.75,0.75,1.75,0.75,0.0,0.0,1.0,1.5,1.0,0.5,-0.61,-1.92,1.08,186.72,9.3,13.7,1.0,1.25,1.25,1.0,0.0,2.5,1.5,1.25,0.25,0.75,1.5,0.25,0.5,0.27,-1.61,0.77,178.39,-5.5,12.4
6.42,0.25,0.75,2.0,2.75,0.5,1.75,0.75,0.0,0.0,1.0,1.25,1.0,0.5,-0.42,-1.73,1.14,184.51,9.5,12.7,1.25,1.5,1.0,0.0,0.0,2.0,1.25,1.25,0.0,1.5,1.5,0.25,0.5,0.27,-1.48,0.83,172.12,-3.7,4.9
6.44,0.25,0.75,2.0,2.5,0.5,1.5,0.75,0.0,0.0,1.25,1.25,1.0,0.5,-0.23,-1.48,1.08,182.6,9.5,9.5,1.25,1.25,1.25,1.25,0.0,2.25,1.25,0.0,0.25,0.25,0.25,0.25,0.5,0.27,-1.23,0.89,162.48,-10.4,38.2
6.46,0.25,0.75,1.5,3.0,0.75,2.5,0.75,0.0,0.0,1.0,1.5,1.0,0.5,-0.17,-1.23,0.89,185.3,6.6,12.1,0.25,0.25,0.5,0.0,0.0,0.0,1.25,0.0,0.0,0.0,0.5,0.5,0.0,0.2,-1.11,0.95,117.17,-23.2,1.9
6.48,0.25,0.75,2.0,2.75,0.75,1.75,0.75,0.0,0.0,1.0,1.25,1.0,0.5,-0.23,-1.11,0.77,185.99,9.2,13.6,1.25,1.5,1.0,1.0,0.0,1.75,1.25,1.25,0.0,0.0,1.5,0.0,0.0,0.14,-1.05,0.83,114.38,-9.6,31.3
6.5,0.25,0.75,2.0,2.75,0.75,1.75,0.75,0.0,0.0,1.0,1.25,1.0,0.5,-0.23,-1.05,0.7,186.81,9.2,13.6,1.25,1.5,1.25,1.0,0.5,2.0,1.25,1.25,0.25,1.0,1.5,0.5,0.5,0.2,-1.05,0.77,129.68,-6.2,12.5
6.52,0.25,0.75,2.0,2.75,0.5,2.0,0.75,0.0,0.0,1.0,1.5,1.0,0.5,-0.23,-0.92,0.64,186.8,9.0,11.4,1.0,1.5,1.25,0.75,0.0,2.0,1.0,1.25,0.25,1.0,1.5,0.25,0.5,0.2,-0.98,0.7,152.3,-5.5,10.2
6.54,0.25,0.75,2.0,2.75,0.75,1.75,0.75,0.0,0.0,1.0,1.5,1.0,0.5,-0.17,-0.8,0.64,188.86,9.3,12.0,0.0,0.5,1.0,1.25,0.25,2.0,1.0,1.25,0.0,1.0,1.5,0.25,0.5,0.27,-0.86,0.64,157.3,-1.3,-3.4
6.56,0.25,0.75,2.0,2.75,0.75,1.75,0.75,0.0,0.0,1.0,1.25,1.0,0.5,-0.17,-0.67,0.52,187.47,9.2,13.6,1.25,1.25,1.25,1.0,0.0,2.75,1.25,1.25,0.0,1.5,1.5,0.25,0.5,0.2,-0.8,0.52,171.74,-3.9,10.0
6.58,0.25,0.75,1.75,2.75,0.75,1.75,0.75,0.0,0.0,1.0,1.25,1.0,0.25,-0.23,-0.73,0.33,185.17,9.1,15.3,1.25,1.5,1.0,1.5,0.25,2.25,1.25,1.25,0.25,1.0,1.5,0.25,0.5,0.14,-0.73,0.52,179.19,-5.6,15.2
6.6,0.25,0.75,1.75,2.75,0.75,2.25,0.75,0.0,0.0,0.75,1.5,1.0,0.25,-0.23,-0.73,0.33,184.91,8.4,16.0,1.25,1.5,1.25,1.25,0.0,1.75,1.25,0.0,0.25,1.0,0.25,0.25,0.0,0.02,-0.73,0.52,172.4,-11.3,39.1
6.62,0.25,1.0,2.0,2.75,0.75,1.75,1.0,0.0,0.0,1.25,1.25,1.0,0.5,-0.11,-0.8,0.27,187.71,9.0,13.7,1.25,1.0,1.25,0.75,0.25,2.0,1.0,1.25,0.25,1.0,1.5,0.5,0.5,0.02,-0.73,0.39,175.89,-5.6,6.6
6.64,0.25,1.0,2.0,2.75,0.5,1.75,0.75,0.0,0.0,1.0,1.5,1.0,0.5,-0.05,-0.8,0.33,188.63,9.6,12.8,0.0,0.0,1.0,0.0,0.0,0.0,1.25,1.25,0.0,0.0,0.25,0.0,0.0,-0.05,-0.8,0.33,135.31,-12.9,3.9
6.66,0.25,0.75,2.0,2.75,0.75,2.0,0.75,0.0,0.0,1.0,1.25,1.0,0.5,-0.05,-0.8,0.33,190.36,8.6,14.0,0.0,0.25,0.0,0.0,0.0,0.0,1.0,0.0,0.0,0.0,0.5,0.0,0.0,-0.05,-0.73,0.33,88.41,-19.6,1.7
6.68,0.25,0.75,2.0,2.75,0.75,2.0,0.75,0.0,0.0,1.0,1.5,1.0,0.5,-0.11,-0.86,0.27,191.23,8.7,12.4,1.25,1.5,0.5,0.75,0.0,1.75,1.0,0.0,0.25,1.5,0.25,0.25,0.75,-0.05,-0.73,0.33,84.29,-4.9,17.5
6.7,0.25,0.75,2.0,2.75,0.5,1.75,0.75,0.0,0.0,1.0,1.25,1.0,0.75,-0.17,-0.86,0.2,188.93,9.0,10.2,1.25,1.5,1.0,1.0,0.0,2.0,1.0,1.25,0.0,1.0,1.5,0.25,0.5,-0.05,-0.8,0.39,110.28,-5.5,12.9
6.72,0.25,0.75,2.0,2.75,0.5,2.0,0.75,0.0,0.0,1.0,1.5,1.0,0.5,-0.11,-0.86,0.2,188.66,9.0,11.4,1.25,1.25,1.25,1.0,0.0,2.0,1.25,1.25,0.0,1.25,1.5,0.25,0.5,-0.11,-0.8,0.39,136.31,-5.9,10.4
6.74,0.25,0.75,2.0,2.75,0.75,1.75,0.75,0.0,0.0,1.0,1.5,1.0,1.0,-0.05,-0.86,0.33,190.22,8.4,7.2,1.25,1.25,1.0,1.25,0.0,2.25,1.25,1.25,0.0,1.0,1.5,0.25,0.5,-0.11,-0.86,0.39,160.67,-5.3,12.6
6.76,0.25,0.75,2.0,2.5,0.75,2.0,0.75,0.0,0.0,0.75,1.25,0.75,0.5,-0.11,-0.86,0.27,187.49,9.0,17.5,1.25,1.5,1.0,1.25,0.25,1.75,1.25,1.25,0.25,1.0,1.75,0.25,0.5,-0.11,-0.86,0.39,179.03,-6.5,11.8
6.78,0.25,0.75,1.75,2.75,1.75,2.0,0.75,0.0,0.0,1.25,0.5,1.25,0.75,-0.17,-0.86,0.14,192.2,6.1,15.0,0.0,0.5,1.0,0.25,0.0,0.25,1.25,1.25,0.0,0.0,0.25,0.75,0.0,-0.05,-0.86,0.39,148.24,-10.8,0.9
6.8,0.25,0.75,2.0,2.75,0.5,1.75,0.75,0.0,0.0,1.0,1.25,1.0,0.25,-0.17,-0.86,0.14,188.5,10.0,15.3,1.0,1.5,1.25,1.0,0.0,2.0,1.0,1.25,0.0,0.0,1.75,0.25,0.5,-0.05,-0.86,0.39,146.79,-7.7,18.4
6.82,0.25,0.75,2.0,2.75,0.5,1.75,0.75,0.0,0.0,1.0,1.5,1.0,0.5,-0.17,-0.92,0.14,187.85,9.6,11.0,1.25,1.75,1.0,0.75,0.0,2.0,1.25,1.25,0.0,1.0,1.5,0.25,0.5,0.02,-0.8,0.39,152.6,-5.6,14.0
6.84,0.25,0.75,2.0,2.75,0.75,1.75,0.75,0.0,0.0,1.0,1.5,1.0,0.5,-0.11,-0.86,0.2,185.88,9.3,12.0,1.0,1.25,1.0,1.25,0.0,1.75,1.25,1.25,0.0,1.0,1.75,0.25,0.5,0.02,-0.73,0.27,169.11,-6.0,8.2
6.86,0.25,0.75,2.0,2.75,0.75,1.75,0.75,0.0,0.0,1.0,1.5,1.0,0.5,-0.11,-0.8,0.2,186.89,9.3,12.0,1.25,1.5,1.0,0.75,0.0,1.5,1.25,1.25,0.25,1.5,1.5,0.25,0.5,0.08,-0.73,0.2,177.62,-5.9,6.4
6.88,0.25,0.75,1.75,2.75,1.25,2.0,0.75,0.0,0.0,1.0,1.5,1.0,0.25,-0.17,-0.8,0.14,189.28,8.0,15.6,1.25,1.5,1.0,1.25,0.25,2.0,1.25,1.25,0.25,0.25,1.5,0.25,0.5,0.02,-0.73,0.2,188.87,-7.3,19.6
6.9,0.25,0.75,2.0,2.75,1.25,1.75,0.75,0.0,0.0,1.0,1.5,1.0,0.5,-0.23,-0.73,0.08,192.82,8.7,13.8,1.25,1.5,1.0,0.75,0.0,1.5,1.25,1.25,0.25,1.25,1.5,0.25,0.5,0.02,-0.67,0.2,183.59,-6.3,8.2
6.92,0.25,0.75,1.75,2.75,0.75,1.75,0.75,0.0,0.0,0.5,1.5,0.75,0.25,-0.17,-0.67,0.08,187.95,10.2,20.0,1.0,1.25,1.0,1.25,0.0,1.5,1.0,1.25,0.25,1.0,1.5,0.5,0.5,-0.05,-0.67,0.2,173.8,-6.4,5.6
6.94,0.25,1.0,2.0,2.75,0.75,1.75,0.75,0.0,0.0,0.0,0.5,1.0,1.0,-0.23,-0.67,0.08,182.94,10.3,23.3,1.0,1.25,1.25,1.25,0.0,1.25,1.25,1.25,0.25,1.0,1.5,0.5,0.5,-0.05,-0.61,0.33,172.42,-8.0,6.5
6.96,0.25,0.75,2.0,2.75,1.25,1.75,0.75,0.0,0.0,1.0,1.25,1.0,0.5,-0.3,-0.67,0.02,183.77,8.7,15.4,1.25,1.25,1.25,0.75,0.0,2.0,1.25,1.25,0.0,1.25,1.5,0.25,0.5,0.02,-0.61,0.2,173.74,-5.6,9.3
6.98,0.25,0.75,2.0,2.75,0.5,2.0,0.75,0.0,0.0,1.0,1.25,1.0,0.25,-0.3,-0.67,0.08,183.0,9.4,15.7,1.25,1.5,1.0,1.0,0.0,2.0,1.25,1.0,0.25,1.25,1.5,0.25,0.5,0.02,-0.55,0.2,176.96,-5.9,11.2
7.0,0.25,0.75,2.0,2.75,0.75,1.75,0.75,0.0,0.0,1.0,1.25,1.0,0.25,-0.23,-0.61,0.2,183.95,9.7,16.2,1.25,1.25,1.25,1.25,0.0,1.75,1.25,1.0,0.25,1.5,1.5,0.25,0.5,0.02,-0.55,0.27,181.52,-6.8,9.2
7.02,0.25,0.75,2.0,2.75,0.75,1.75,0.75,0.0,0.0,1.0,1.25,1.0,0.25,-0.17,-0.67,0.2,183.08,9.7,16.2,1.25,1.5,1.0,1.0,0.0,1.75,1.25,1.0,0.25,1.75,1.5,0.5,0.5,-0.05,-0.55,0.27,186.61,-5.6,4.9
7.04,0.25,0.75,2.0,2.75,0.75,1.75,0.75,0.0,0.0,1.0,1.5,1.0,0.5,-0.3,-0.67,0.2,185.66,9.3,12.0,1.25,1.5,1.25,0.5,0.5,1.75,1.25,1.0,0.0,1.0,1.5,0.25,0.5,0.02,-0.55,0.27,180.27,-6.6,14.8
7.06,0.25,0.75,2.0,2.75,1.25,1.75,0.75,0.0,0.0,1.0,1.5,1.0,0.5,-0.36,-0.73,0.14,188.73,8.7,13.8,1.25,1.25,1.0,0.75,0.0,2.0,1.25,1.25,0.25,1.0,1.5,0.25,0.5,-0.05,-0.61,0.39,177.04,-5.5,9.0
7.08,0.25,0.75,2.0,2.75,0.75,1.5,0.75,0.0,0.0,1.5,1.25,1.0,0.5,-0.36,-0.73,0.14,190.01,8.8,9.8,1.25,1.25,1.25,0.5,0.0,1.25,1.0,1.0,0.25,1.25,1.5,0.25,0.5,-0.11,-0.61,0.52,169.91,-7.6,6.3
7.1,0.25,0.75,1.75,2.75,0.75,2.5,0.75,0.0,0.0,1.0,1.25,1.0,1.0,-0.36,-0.73,0.2,193.84,6.1,9.1,1.25,1.25,1.25,1.0,0.0,1.25,1.25,1.0,0.25,1.0,1.5,0.0,0.5,-0.05,-0.61,0.52,165.15,-8.8,13.6
7.12,0.25,0.75,1.75,2.75,0.75,2.0,0.75,0.0,0.0,1.0,1.25,1.0,0.5,-0.36,-0.73,0.27,191.81,8.0,13.1,1.25,1.25,1.0,0.75,0.0,2.0,1.25,1.25,0.0,1.0,1.5,0.25,0.5,0.02,-0.67,0.45,163.48,-5.3,10.1
7.14,0.25,1.0,1.75,2.75,1.25,1.75,0.75,0.0,0.0,1.0,1.5,1.0,0.5,-0.42,-0.8,0.2,194.51,8.2,14.5,1.25,1.25,1.0,1.25,0.25,1.25,1.25,1.25,0.25,1.5,1.5,0.25,0.5,0.02,-0.8,0.52,168.21,-6.6,7.2
7.16,0.25,0.75,1.75,2.75,1.25,1.75,0.75,0.0,0.0,1.0,1.25,1.0,0.5,-0.42,-0.86,0.14,194.0,8.1,14.5,1.0,1.25,1.25,1.0,0.0,1.75,1.25,1.0,0.25,2.25,1.5,0.5,0.5,0.02,-0.86,0.52,174.95,-4.8,-0.6
7.18,0.25,0.75,2.0,2.75,0.5,1.75,0.75,0.0,0.0,1.0,1.25,1.0,0.25,-0.42,-0.86,0.14,189.8,10.0,15.3,1.25,1.25,1.0,1.25,0.25,1.75,1.25,0.75,0.0,1.0,1.5,0.25,0.5,-0.05,-0.92,0.52,175.49,-7.2,15.0
7.2,0.25,0.75,2.0,2.75,1.25,1.75,0.75,0.0,0.0,1.0,1.5,1.0,0.5,-0.42,-0.86,0.14,190.5,8.7,13.8,1.25,1.25,1.25,1.0,0.25,2.0,1.25,1.0,0.25,1.0,1.5,0.25,0.5,-0.05,-0.86,0.58,177.42,-6.7,13.2
7.22,0.25,0.75,2.0,2.75,0.75,1.75,0.75,0.0,0.0,1.0,1.25,1.0,0.5,-0.42,-0.8,0.08,189.28,9.2,13.6,1.25,1.25,1.0,1.0,0.0,2.0,1.25,1.0,0.25,1.5,1.5,0.25,0.5,-0.05,-0.8,0.52,176.82,-5.3,7.5
7.24,0.25,0.75,2.0,2.75,0.75,1.75,0.75,0.0,0.0,1.0,1.5,1.0,0.5,-0.42,-0.8,0.14,189.47,9.3,12.0,1.5,1.25,1.0,1.0,0.0,2.0,1.25,0.75,0.0,0.75,1.5,0.5,0.5,0.02,-0.67,0.45,174.64,-7.8,14.4
7.26,0.25,0.75,1.75,2.75,0.75,1.75,0.75,0.0,0.0,1.25,1.0,0.25,0.25,-0.36,-0.86,0.2,182.59,8.5,23.5,1.25,1.25,1.0,1.25,0.25,1.75,1.25,1.0,0.25,1.5,1.5,0.25,0.5,0.02,-0.67,0.45,176.81,-5.9,9.2
7.28,0.25,0.75,2.0,2.75,0.75,2.0,0.75,0.0,0.0,1.0,1.5,1.0,0.25,-0.42,-0.86,0.2,183.26,9.1,14.8,1.25,1.5,1.25,1.25,0.0,1.75,1.25,0.75,0.25,1.0,1.5,0.0,0.5,0.02,-0.67,0.52,177.11,-8.4,18.5
7.3,0.25,0.75,2.0,2.75,0.75,1.75,0.75,0.0,0.0,1.0,1.25,1.0,0.25,-0.48,-0.8,0.2,181.07,9.7,16.2,1.25,1.25,1.0,1.0,0.25,1.75,1.25,0.75,0.25,1.75,1.5,0.5,0.5,-0.05,-0.61,0.58,179.56,-5.7,5.0
7.32,0.25,0.75,2.0,2.75,0.75,2.0,0.75,0.0,0.0,1.0,1.5,1.0,0.25,-0.48,-0.67,0.2,184.39,9.1,14.8,1.25,1.5,1.0,0.5,0.0,1.5,1.25,1.0,0.0,1.25,1.5,0.25,0.5,-0.05,-0.55,0.7,173.85,-6.5,9.1
7.34,0.25,0.75,2.0,2.75,0.75,2.25,0.75,0.0,0.0,1.0,1.25,0.75,0.25,-0.55,-0.61,0.2,185.13,8.5,19.4,1.25,1.25,1.0,1.0,0.25,1.5,1.25,1.0,0.0,1.5,1.5,0.25,0.5,-0.05,-0.55,0.77,172.28,-6.1,8.6
7.36,0.25,0.75,2.0,2.75,0.75,1.75,0.75,0.0,0.0,1.0,1.25,1.0,0.5,-0.61,-0.55,0.33,186.61,9.2,13.6,1.25,1.25,1.0,1.25,0.0,1.25,1.25,0.75,0.25,1.25,1.5,0.0,0.5,0.02,-0.55,0.7,166.27,-8.4,12.7
7.38,0.25,1.0,2.0,2.75,0.75,1.75,0.75,0.0,0.0,1.0,1.25,1.0,0.25,-0.67,-0.42,0.52,186.25,9.8,17.9,0.75,1.5,1.25,1.25,0.0,1.75,1.25,1.0,0.25,1.75,1.5,0.25,0.5,0.02,-0.55,0.83,169.93,-5.4,6.0
7.4,0.25,0.75,1.75,2.75,0.75,1.75,0.75,0.0,0.0,1.0,1.5,1.25,0.25,-0.8,-0.36,0.58,186.18,9.1,11.0,1.25,1.25,1.5,0.5,0.0,2.0,1.0,0.75,0.25,1.25,1.5,0.25,0.5,-0.05,-0.42,0.95,169.49,-6.9,10.3
7.42,0.25,0.75,2.0,2.75,0.5,1.75,0.75,0.25,0.0,1.0,0.75,1.0,0.75,-0.73,-0.3,0.64,185.04,8.5,12.6,1.25,1.25,1.25,1.0,0.0,1.25,1.0,1.0,0.25,1.75,1.5,0.25,0.5,-0.11,-0.36,0.95,172.2,-7.0,5.1
7.44,0.25,0.75,2.0,2.75,0.75,1.75,0.75,0.0,0.0,1.0,1.5,1.0,0.5,-0.73,-0.17,0.7,185.39,9.3,12.0,1.25,1.25,1.25,1.0,0.0,2.0,1.25,0.5,0.25,1.0,1.5,0.75,0.5,-0.17,-0.3,1.02,172.1,-8.0,9.3
7.46,0.25,0.75,2.0,2.75,0.75,2.0,0.75,0.0,0.0,1.0,1.5,1.0,0.5,-0.67,-0.11,0.7,188.31,8.7,12.4,1.25,1.25,1.25,1.25,0.0,1.75,1.0,0.5,0.25,1.0,1.5,0.25,0.5,-0.11,-0.23,1.08,171.13,-8.6,15.0
