time,left pressure 0[N/cm虏],left pressure 1[N/cm虏],left pressure 2[N/cm虏],left pressure 3[N/cm虏],left pressure 4[N/cm虏],left pressure 5[N/cm虏],left pressure 6[N/cm虏],left pressure 7[N/cm虏],left pressure 8[N/cm虏],left pressure 9[N/cm虏],left pressure 10[N/cm虏],left pressure 11[N/cm虏],left pressure 12[N/cm虏],left acceleration X[g],left acceleration Y[g],left acceleration Z[g],left total force[N],left center of pressure X[mm],left center of pressure Y[mm],right pressure 0[N/cm虏],right pressure 1[N/cm虏],right pressure 2[N/cm虏],right pressure 3[N/cm虏],right pressure 4[N/cm虏],right pressure 5[N/cm虏],right pressure 6[N/cm虏],right pressure 7[N/cm虏],right pressure 8[N/cm虏],right pressure 9[N/cm虏],right pressure 10[N/cm虏],right pressure 11[N/cm虏],right pressure 12[N/cm虏],right acceleration X[g],right acceleration Y[g],right acceleration Z[g],right total force[N],right center of pressure X[mm],right center of pressure Y[mm]
0.02,0.75,0.0,0.25,0.0,0.0,0.25,1.25,1.0,1.0,1.5,1.25,2.0,0.75,0.02,0.45,0.08,169.92,4.3,-51.4,2.0,0.75,1.75,2.75,5.0,4.5,1.5,4.25,2.5,6.75,5.5,5.25,6.0,0.08,0.08,0.95,755.6,0.5,-29.2
0.04,0.75,0.75,0.5,0.25,0.5,1.0,0.75,1.0,1.0,1.5,1.25,1.75,0.5,-0.11,0.33,0.14,181.67,3.5,-23.8,2.0,0.75,1.75,3.25,5.0,4.5,1.5,4.25,2.5,6.75,5.75,5.25,5.75,0.08,0.08,0.95,726.74,0.2,-28.1
0.06,0.75,0.5,0.25,0.0,2.25,1.25,1.0,1.0,1.0,1.75,1.25,1.75,1.0,-0.23,0.2,0.33,190.46,0.2,-20.5,2.25,0.75,2.0,3.75,5.25,5.75,1.75,4.25,2.5,7.0,6.75,5.25,6.25,0.08,0.08,0.95,729.09,0.1,-26.2
0.08,0.75,0.25,0.5,0.5,2.25,1.0,1.0,0.75,1.0,1.5,1.25,2.0,0.5,-0.3,0.02,0.52,198.09,3.1,-15.9,3.5,1.75,3.25,4.0,7.0,6.0,2.25,4.25,3.0,7.5,6.75,5.5,6.25,0.08,0.08,0.95,794.09,-1.5,-17.2
0.1,0.0,0.0,0.75,0.0,0.5,0.0,0.75,1.0,0.25,0.5,0.5,0.5,0.25,-0.36,-0.05,0.64,168.02,5.0,-25.0,3.75,1.75,4.5,4.5,6.75,6.0,2.75,5.25,3.0,7.75,6.5,5.25,6.0,0.08,0.08,0.95,883.17,-2.3,-14.3
0.12,0.0,0.0,0.0,0.0,0.0,0.5,0.0,0.0,0.25,0.25,0.0,0.5,0.25,-0.17,0.02,1.89,122.27,-6.2,-55.2,3.75,2.0,3.75,4.5,6.75,6.0,2.25,5.25,3.0,7.5,6.5,5.25,6.0,0.08,0.08,0.95,951.79,-1.8,-14.7
0.14,0.5,0.0,0.25,0.25,0.0,0.0,0.0,0.75,0.25,1.5,0.0,2.0,0.25,0.02,0.27,0.2,93.97,2.0,-56.2,3.75,1.75,3.25,4.5,6.75,6.0,2.25,5.25,3.0,7.75,6.5,5.5,6.0,0.08,0.08,0.95,987.75,-1.4,-16.4
0.16,0.75,0.0,0.25,1.0,0.0,0.0,0.0,0.5,0.25,0.25,0.0,0.5,0.25,-1.61,0.89,1.58,66.1,11.7,3.7,3.75,1.75,2.75,4.5,6.75,6.0,2.25,5.25,3.0,7.75,6.75,5.5,6.25,0.08,0.08,0.95,996.39,-1.1,-17.7
0.18,1.5,0.0,1.75,0.5,0.0,0.0,0.0,0.75,0.25,0.25,0.0,0.5,0.25,-0.48,0.7,2.58,64.41,19.9,23.9,3.5,1.75,3.25,4.25,6.5,6.0,2.25,5.25,3.0,7.75,7.0,5.75,6.5,0.08,0.08,0.95,994.61,-1.2,-19.1
0.2,2.25,0.0,3.0,4.0,0.0,0.0,0.0,0.0,0.25,0.5,1.5,0.5,0.25,-0.23,0.2,1.33,101.28,22.3,32.1,3.5,1.75,2.5,4.5,6.5,6.0,2.25,5.25,3.0,8.0,7.25,5.75,7.0,0.08,0.08,0.95,992.4,-0.7,-20.9
0.22,0.0,0.25,5.75,5.0,0.0,1.25,1.25,0.75,0.25,0.0,0.0,0.5,0.25,-0.05,0.2,1.27,153.45,20.3,41.8,3.0,1.5,2.25,4.0,6.5,6.0,2.0,5.25,2.75,8.25,7.5,5.75,7.0,0.14,0.08,0.95,985.81,0.0,-23.8
0.24,3.25,0.5,6.5,6.0,1.25,1.75,2.5,0.75,0.75,0.0,0.25,0.25,0.0,0.14,-0.11,1.39,231.77,20.8,51.9,2.0,1.75,3.0,3.25,6.75,6.0,1.5,5.25,2.5,8.25,7.5,5.75,7.0,0.08,0.08,0.95,967.5,0.4,-24.9
0.26,3.25,1.0,0.0,6.0,2.5,2.75,5.25,1.25,2.25,0.0,0.5,1.0,0.25,0.02,-0.05,1.27,288.91,10.8,32.5,2.75,2.0,2.0,3.75,5.5,6.25,2.25,5.25,1.75,7.75,7.25,5.25,7.0,0.08,0.08,0.95,926.32,0.4,-23.5
0.28,2.75,1.0,5.25,6.0,4.25,3.0,5.5,2.75,3.25,1.5,2.0,2.0,0.5,-0.05,-0.05,1.08,398.26,11.2,19.0,2.0,1.0,2.0,1.25,5.5,5.5,1.5,4.25,1.75,7.75,6.5,5.75,6.75,0.08,0.08,0.95,845.27,1.6,-32.4
0.3,3.25,1.0,5.0,6.0,1.75,5.0,4.75,2.75,4.25,3.5,1.75,3.5,0.75,-0.05,0.02,1.02,515.19,9.0,6.8,1.0,1.0,1.75,0.75,5.75,4.5,1.0,4.0,1.0,6.75,6.5,4.5,6.5,0.08,0.08,0.95,735.34,2.6,-34.1
0.32,3.25,1.25,5.5,5.0,4.25,4.5,5.5,4.75,4.75,4.25,5.0,5.0,2.5,-0.11,-0.05,0.95,693.98,7.0,-6.1,1.25,0.25,1.75,0.75,2.75,2.25,0.5,4.25,1.0,6.75,4.75,4.25,5.75,0.08,0.08,0.95,601.04,2.3,-44.9
0.34,2.5,1.0,5.0,5.5,2.5,4.75,5.0,5.0,5.25,5.5,6.25,5.25,5.0,-0.05,-0.05,1.02,841.23,5.1,-18.7,0.25,0.0,0.0,0.0,0.5,0.0,0.0,2.75,0.5,5.0,2.5,2.5,4.0,0.08,0.08,0.95,412.73,6.6,-75.1
0.36,2.5,1.0,5.0,4.75,2.5,4.25,4.75,5.25,5.0,5.75,6.75,6.0,5.5,-0.05,-0.05,0.95,949.14,4.8,-23.1,0.0,0.0,0.0,0.5,1.0,0.0,0.0,2.0,0.25,3.5,1.5,1.25,2.25,0.02,0.08,1.02,271.25,6.8,-61.0
0.38,2.25,1.0,4.75,4.5,3.5,4.0,4.5,5.25,5.0,5.75,7.0,6.5,6.0,-0.05,-0.05,0.95,999.04,4.3,-24.8,0.0,0.0,0.0,0.5,0.25,0.0,0.0,1.5,0.25,2.25,0.25,0.75,1.5,-0.05,0.33,1.33,143.48,8.3,-62.8
0.4,1.5,1.0,3.0,4.25,0.0,4.0,4.5,5.0,5.0,5.75,6.75,6.75,6.0,-0.05,-0.05,0.95,978.06,3.3,-36.3,0.0,0.0,0.0,0.5,1.0,0.0,0.0,1.25,0.25,1.5,0.25,0.5,1.5,0.02,1.77,0.7,41.33,7.2,-46.1
0.42,1.75,1.0,2.0,4.25,3.5,4.0,4.25,5.0,4.75,5.75,6.75,6.75,6.25,-0.05,-0.05,0.95,948.65,2.1,-31.3,0.0,0.0,0.0,0.5,1.0,0.0,0.0,1.25,0.25,1.75,0.25,0.5,0.75,-0.55,2.14,0.7,0.0,6.8,-39.6
0.44,1.5,1.0,0.75,4.25,2.25,4.0,4.5,5.0,4.75,6.0,7.0,6.75,6.5,-0.05,-0.05,0.95,899.42,1.2,-37.2,0.0,0.0,0.0,0.5,0.5,0.0,0.0,1.25,0.25,1.75,0.25,0.5,0.75,-1.23,2.27,1.02,0.0,7.1,-48.9
0.46,1.75,1.0,1.75,4.25,3.0,4.0,3.75,5.0,4.5,6.5,7.0,6.75,6.5,-0.05,-0.05,0.95,878.88,1.5,-34.1,0.0,0.0,0.0,0.5,1.0,0.0,0.0,1.25,0.5,1.5,0.25,0.25,0.5,-0.86,2.27,0.83,0.0,5.9,-32.1
0.48,1.5,1.0,2.5,4.25,2.5,4.0,3.75,5.5,4.5,7.0,7.0,7.0,6.75,-0.05,-0.05,0.95,863.55,1.6,-35.3,0.0,0.0,0.0,0.5,0.5,0.0,0.0,1.25,0.25,2.25,0.25,1.0,1.5,-0.05,2.14,0.77,0.0,7.3,-60.7
0.5,1.5,1.0,0.5,4.0,4.25,4.0,3.5,5.25,4.5,7.25,7.0,7.25,7.0,-0.05,-0.05,0.95,862.16,0.0,-37.1,1.25,0.0,0.25,0.75,3.75,0.0,0.5,1.25,0.75,3.25,1.5,1.0,1.5,0.14,1.58,0.89,32.86,0.1,-18.5
0.52,1.5,1.0,0.0,4.0,3.75,4.0,2.5,5.75,4.25,7.25,7.25,7.5,7.25,-0.05,-0.05,0.95,847.1,-0.8,-40.4,0.0,0.0,0.0,0.5,0.5,0.0,0.0,0.5,0.5,1.25,0.25,0.25,0.5,0.14,1.02,1.27,44.27,3.9,-39.9
0.54,1.5,1.0,0.0,4.0,3.5,4.75,2.5,5.5,4.25,7.75,7.75,7.5,7.75,-0.05,-0.05,0.95,852.11,-1.1,-41.2,0.0,0.25,0.25,0.5,2.25,0.0,0.0,0.25,0.25,1.25,0.25,0.25,0.5,0.14,0.58,1.33,65.14,1.4,-0.7
0.56,1.5,1.0,0.0,4.25,3.0,5.0,2.75,5.5,4.25,8.25,7.5,7.5,7.75,-0.05,-0.05,0.95,855.29,-1.2,-41.4,0.25,0.0,0.0,0.5,1.5,0.75,0.0,0.0,0.5,1.5,0.25,0.0,0.25,0.08,0.45,1.08,66.5,4.0,-1.5
0.58,1.5,1.0,0.0,4.0,4.25,5.0,2.5,5.75,4.25,8.25,7.75,7.5,7.75,-0.05,-0.05,0.95,876.71,-1.5,-39.7,0.5,0.75,1.75,0.75,3.5,2.0,0.25,0.0,0.5,2.75,1.5,1.0,0.75,-0.05,0.27,1.02,133.28,-1.9,1.9
0.6,1.5,1.0,0.0,4.25,4.75,5.0,2.5,6.0,4.25,8.25,7.75,7.5,8.25,-0.05,-0.05,0.95,905.3,-1.6,-39.0,1.0,0.75,1.5,0.75,0.5,2.0,0.0,0.0,0.5,1.25,1.5,0.0,0.5,-0.05,0.02,1.08,151.9,-6.3,12.0
0.62,1.5,1.0,0.0,4.25,5.25,5.25,3.0,6.5,3.75,8.25,7.25,7.5,8.25,-0.05,-0.05,0.95,931.5,-1.9,-37.3,0.0,0.0,0.0,0.75,0.5,2.0,0.0,0.0,0.5,0.75,1.5,1.0,1.25,0.08,-0.11,1.02,163.75,3.7,-35.8
0.64,1.5,1.0,0.25,4.25,6.0,5.75,2.5,6.5,3.5,8.25,7.5,7.5,8.25,-0.05,-0.05,0.95,958.57,-2.0,-35.5,0.0,0.0,1.75,0.5,3.5,0.0,0.5,0.5,0.25,0.75,1.5,0.0,1.5,0.2,-0.36,0.95,165.25,-4.4,-0.1
0.66,1.5,1.0,0.25,4.0,6.0,5.75,2.5,6.75,3.25,8.25,7.0,6.75,8.0,-0.05,0.02,0.95,955.84,-2.4,-34.3,0.0,0.25,0.0,0.5,0.5,0.0,0.0,0.0,0.25,0.75,0.25,0.0,0.5,0.39,-0.73,0.77,127.46,0.9,-17.3
0.68,1.5,0.25,0.25,4.25,5.75,6.5,2.5,6.5,2.75,7.25,6.5,5.75,7.5,-0.05,0.02,0.95,921.41,-2.8,-32.2,0.0,0.0,0.0,0.5,0.5,0.0,0.0,0.0,0.25,0.5,0.25,0.0,0.5,0.64,-1.05,0.39,88.02,0.8,-23.3
0.7,0.0,0.0,0.0,1.75,6.0,5.75,2.25,6.5,2.0,6.25,4.75,5.0,6.5,-0.05,0.02,0.95,816.85,-5.6,-37.5,0.5,0.75,1.75,1.0,3.0,1.75,0.0,1.0,0.5,2.0,0.25,0.5,1.25,0.83,-1.92,0.02,115.83,-0.7,7.5
0.72,0.0,0.0,0.0,1.25,2.5,5.5,1.25,5.75,1.25,5.0,3.0,3.5,5.5,-0.11,0.02,0.95,652.39,-7.6,-42.5,2.25,1.0,2.25,3.0,1.75,1.0,0.5,1.25,0.5,2.25,1.0,1.0,1.5,0.58,-2.86,2.14,175.8,-8.1,9.7
0.74,0.0,0.0,0.0,1.0,2.5,5.0,0.5,5.0,1.0,4.25,0.0,2.0,4.25,-0.11,0.02,0.95,468.62,-10.6,-34.0,3.25,0.75,2.25,3.25,2.5,1.25,1.0,1.25,0.5,2.0,1.0,1.0,1.25,1.2,-2.17,3.7,238.29,-9.3,17.9
0.76,0.0,0.0,0.0,0.0,2.25,4.0,0.0,4.75,1.0,2.75,0.0,1.5,2.0,-0.05,0.08,0.95,314.98,-11.9,-29.9,5.5,1.25,6.25,5.75,3.25,1.75,1.0,1.25,0.5,2.25,1.5,1.0,1.5,-0.05,0.45,1.45,338.7,-14.1,31.0
0.78,0.0,0.0,0.0,0.0,0.0,2.5,0.0,3.75,1.0,2.0,0.75,2.0,0.5,0.08,0.33,1.27,207.66,-9.5,-47.3,4.75,0.75,6.75,5.75,6.0,0.5,2.0,0.5,0.5,0.75,1.0,0.0,1.25,-0.05,0.2,1.64,413.63,-16.7,45.4
0.8,0.0,0.0,0.0,0.0,0.75,1.25,0.0,2.75,0.75,1.5,0.0,1.25,1.25,-0.23,1.33,1.2,111.94,-10.1,-45.9,5.25,0.0,7.5,7.5,6.0,2.25,3.75,0.0,0.75,1.75,0.25,1.0,0.5,0.02,0.14,1.33,504.7,-16.1,43.6
0.82,0.0,0.0,0.0,0.0,0.0,0.5,0.0,2.5,0.5,1.5,0.25,1.0,0.5,-0.36,2.27,0.95,32.07,-9.8,-59.1,5.0,0.75,8.0,7.75,6.25,2.25,4.5,1.25,0.5,1.0,0.0,0.25,1.0,-0.05,0.14,1.14,570.68,-15.6,46.6
0.84,0.0,0.0,0.0,0.0,0.0,0.25,0.0,1.0,0.5,1.5,0.75,0.75,0.5,0.89,2.52,1.08,0.0,-6.1,-68.3,5.0,1.5,8.25,7.75,7.25,3.0,6.0,1.25,1.25,1.5,0.0,0.25,0.0,0.02,0.14,1.08,661.24,-15.0,48.2
0.86,0.0,0.0,0.0,0.0,0.0,0.25,0.0,1.5,0.5,1.5,0.0,0.75,0.5,1.02,2.27,1.14,0.0,-9.7,-64.3,5.0,1.5,7.75,7.5,7.5,4.5,6.25,1.25,1.75,3.0,0.5,1.0,0.5,0.08,0.14,1.08,740.73,-12.0,36.9
0.88,0.0,0.0,0.0,0.0,0.0,0.25,0.0,1.0,0.5,1.25,0.25,0.5,0.25,0.14,2.14,0.83,0.0,-8.1,-61.7,4.75,1.75,7.5,7.5,7.0,4.5,6.75,2.5,2.75,3.5,2.5,1.75,1.25,0.14,0.08,1.02,834.95,-10.6,23.7
0.9,0.0,0.0,0.0,0.0,0.0,0.25,0.25,1.0,0.25,1.25,0.5,0.5,0.25,-0.36,1.64,0.83,0.0,-7.0,-61.3,5.25,2.5,7.5,8.25,6.75,5.5,6.75,2.75,3.75,5.0,2.75,2.75,2.25,0.08,0.08,1.02,958.28,-9.2,17.0
0.92,0.75,0.75,0.0,0.0,0.0,0.0,0.25,1.0,0.25,1.25,1.5,2.0,0.25,-0.3,1.2,0.95,0.0,4.4,-45.0,5.0,2.5,7.5,7.5,8.0,5.5,6.5,4.25,3.75,5.0,4.75,2.75,3.25,0.08,0.08,0.95,1069.04,-7.8,10.8
0.94,0.0,0.0,0.0,0.0,0.0,0.0,0.5,0.75,0.25,1.0,0.0,0.5,0.25,-0.3,0.45,1.02,0.0,-5.5,-63.6,4.75,2.5,7.5,7.5,7.75,5.5,6.5,4.25,3.5,5.25,4.5,2.75,3.25,0.08,0.08,0.95,1133.68,-7.6,10.5
0.96,0.0,0.0,0.0,0.0,0.0,0.0,0.5,0.75,0.25,1.25,0.0,0.5,0.25,-0.3,0.27,0.89,15.81,-6.3,-64.6,4.5,2.5,6.5,7.5,7.75,5.5,6.0,4.25,2.75,3.5,4.0,2.0,3.25,0.08,0.08,0.95,1129.28,-7.5,14.7
0.98,0.0,0.0,0.0,0.0,0.0,0.0,0.5,0.5,0.25,0.0,0.0,0.75,0.25,-0.17,0.08,0.77,16.08,2.7,-66.6,3.75,2.0,5.75,7.25,6.5,5.25,5.75,4.25,3.0,4.75,4.0,2.5,3.25,0.08,0.08,0.95,1073.72,-6.5,7.5
1.0,0.0,0.0,0.25,0.0,2.25,0.0,0.75,1.0,0.5,0.75,1.25,0.75,1.0,0.08,-0.05,0.7,51.03,-0.4,-27.9,3.75,2.0,6.25,6.75,7.0,5.5,5.5,4.0,3.0,4.75,3.75,2.5,3.25,0.08,0.08,0.95,1006.62,-6.5,8.7
1.02,0.75,0.0,0.0,0.25,0.0,1.0,1.25,1.0,1.0,2.0,1.25,2.0,1.0,0.2,-0.11,0.77,93.4,0.6,-48.3,3.25,2.0,5.0,5.75,6.75,5.25,4.75,3.5,3.0,5.5,4.0,2.75,3.75,0.08,0.08,0.95,942.4,-5.0,2.4
1.04,0.5,0.25,0.0,0.0,1.75,1.25,1.0,1.0,1.0,2.0,1.25,2.0,1.0,0.02,-0.3,0.83,141.4,-1.4,-33.1,2.5,1.0,5.25,5.5,7.0,4.5,4.75,4.25,2.5,6.0,4.5,3.25,4.5,0.08,0.08,0.95,889.01,-4.2,-5.0
1.06,0.5,0.0,0.0,0.25,0.5,0.5,1.0,1.5,1.0,2.0,1.25,2.0,1.0,-0.11,-0.42,0.83,167.8,-0.3,-50.0,3.25,2.0,4.75,5.75,6.75,5.5,4.5,4.25,3.0,6.0,4.75,4.0,4.5,0.08,0.08,0.95,874.53,-4.1,-3.8
1.08,0.75,0.0,0.25,0.25,0.0,1.0,0.75,1.5,1.0,1.75,1.5,2.0,0.75,-0.23,-0.48,0.7,180.13,1.0,-45.5,3.0,1.75,4.75,5.75,6.75,5.25,4.25,4.5,3.0,6.0,4.75,3.75,5.0,0.08,0.08,0.95,864.42,-3.7,-5.6
1.1,0.75,0.0,0.25,0.0,1.25,0.25,0.5,1.0,1.0,1.5,1.25,2.0,0.75,-0.36,-0.55,0.58,177.79,2.3,-39.5,2.75,1.75,4.75,5.75,6.75,5.5,3.75,5.0,2.75,7.0,5.25,4.5,5.5,0.08,0.08,0.95,875.29,-2.8,-10.0
1.12,0.5,0.0,0.25,0.0,0.0,0.0,0.5,0.75,0.25,0.5,0.0,0.5,0.25,-0.36,-0.73,0.52,140.51,5.4,-28.4,2.5,2.0,4.25,5.5,6.5,5.5,3.75,5.25,3.0,7.0,5.5,5.25,6.0,0.08,0.08,0.95,887.57,-2.3,-13.7
1.14,0.25,0.0,0.0,1.25,0.0,1.0,0.0,0.25,1.0,1.5,0.0,2.0,0.5,-0.42,-1.8,1.45,126.01,0.5,-39.5,2.5,1.75,4.0,5.5,6.5,5.75,3.5,5.25,3.0,7.5,6.0,5.25,6.25,0.08,0.08,0.95,905.18,-1.9,-15.8
1.16,0.5,0.0,0.25,1.25,0.0,0.0,0.5,1.5,0.25,0.0,1.25,0.5,1.0,-0.3,-1.86,1.89,107.94,5.5,-27.0,2.75,2.0,3.5,5.5,6.5,5.75,3.25,5.25,2.75,7.75,6.25,5.25,6.75,0.08,0.08,0.95,923.93,-1.5,-16.7
1.18,1.5,0.0,0.25,2.25,2.25,0.0,0.0,0.75,0.25,0.25,0.0,0.5,0.5,-0.86,-2.67,3.45,121.2,8.4,29.2,2.0,1.75,3.5,5.5,6.75,6.0,3.25,5.5,3.0,7.75,6.25,5.5,7.0,0.08,0.08,0.95,948.28,-0.9,-18.9
1.2,2.5,0.0,3.0,5.0,2.25,0.0,0.0,1.75,0.25,0.5,0.0,0.25,0.75,-0.23,0.45,2.2,167.39,14.2,37.6,2.25,2.0,3.25,5.5,6.75,6.0,3.0,5.75,3.0,7.75,6.25,5.25,7.25,0.08,0.08,0.95,970.26,-0.7,-18.5
1.22,2.5,0.75,5.25,7.5,2.5,2.75,2.5,1.0,1.0,0.5,0.0,0.0,0.0,0.02,-0.05,1.45,250.59,15.2,48.9,2.25,1.75,2.25,5.5,6.5,6.0,2.75,6.0,2.5,7.75,6.0,5.25,7.0,0.08,0.08,0.95,963.46,0.1,-20.1
1.24,3.25,1.0,6.5,7.75,6.0,2.75,5.5,1.25,1.0,0.0,0.0,0.5,0.0,0.08,-0.17,1.64,351.86,15.2,49.3,2.0,1.75,2.25,5.5,6.5,6.0,2.75,5.5,2.5,7.75,5.75,5.25,7.0,0.08,0.08,0.95,944.78,0.2,-20.1
1.26,3.25,1.0,5.25,7.75,6.25,3.25,7.0,2.25,2.0,0.25,0.5,0.5,0.25,0.02,-0.05,1.39,471.92,12.6,40.0,2.0,1.75,2.0,4.75,6.5,6.0,2.25,5.5,1.75,7.75,4.75,5.0,7.0,0.08,0.08,0.95,902.39,1.1,-20.2
1.28,3.25,1.0,6.5,7.5,6.25,5.25,6.5,3.0,3.5,2.75,0.5,1.25,0.5,-0.05,0.02,1.02,620.6,9.5,26.8,2.0,1.0,2.25,4.5,6.0,5.75,1.75,5.25,1.5,7.0,4.75,4.0,6.25,0.08,0.08,0.95,832.18,1.0,-19.3
1.3,3.5,1.25,6.5,7.75,6.5,5.75,6.75,4.75,4.5,2.75,1.25,3.25,0.5,-0.05,0.02,1.02,770.79,8.5,17.8,1.5,0.0,1.75,3.25,5.25,5.25,1.5,4.5,1.25,6.5,3.25,2.75,5.5,0.08,0.08,0.95,707.89,2.7,-21.7
1.32,3.5,1.25,6.5,7.75,5.75,5.75,7.25,5.25,5.0,4.25,4.0,3.75,3.0,-0.05,-0.05,1.02,932.78,7.1,3.4,0.5,0.0,0.0,0.0,2.75,3.75,0.75,3.25,0.0,4.5,1.5,1.0,3.0,0.08,0.08,0.95,489.8,9.9,-32.5
1.34,3.5,1.25,6.0,7.5,6.25,5.75,6.75,5.75,5.0,4.25,5.25,5.0,3.25,-0.05,-0.05,1.02,1070.36,6.5,-1.4,0.0,0.0,0.0,0.5,0.25,2.0,0.5,2.75,0.0,3.0,0.25,0.75,2.25,0.02,0.14,0.95,297.28,11.9,-47.6
1.36,3.0,1.25,5.25,7.0,6.0,5.75,6.5,5.75,5.0,4.5,5.5,5.0,4.25,-0.05,-0.05,0.95,1155.51,5.4,-6.1,0.0,0.0,0.0,0.5,0.5,1.5,0.5,1.75,0.0,2.0,0.25,0.5,1.25,0.02,0.7,1.7,158.83,10.4,-37.1
1.38,2.5,1.0,5.0,6.75,6.0,5.5,6.25,5.75,4.75,4.25,5.25,5.0,4.0,-0.05,-0.05,0.95,1156.95,5.1,-7.0,0.0,0.0,0.0,0.5,0.5,0.25,0.5,1.5,0.0,1.75,0.25,0.25,1.25,0.27,2.7,0.58,42.37,8.4,-45.6
1.4,2.5,1.0,5.0,6.5,6.0,5.25,6.0,5.75,4.5,4.25,5.0,4.75,4.25,-0.05,-0.05,0.95,1120.08,4.9,-7.2,0.0,0.0,1.0,0.5,3.5,0.25,0.5,1.25,0.0,3.5,0.25,0.5,1.0,-1.55,2.95,1.14,3.9,3.6,-13.8
1.42,2.25,1.0,5.0,6.25,6.0,5.25,6.0,5.5,4.5,4.25,5.0,4.25,3.75,-0.05,-0.05,0.95,1053.58,5.0,-5.9,0.0,0.0,1.75,1.0,3.5,2.25,0.5,1.25,0.25,3.25,0.25,0.5,1.5,-2.17,2.58,1.27,30.43,3.0,-4.8
1.44,2.25,1.0,4.75,6.0,6.25,5.25,5.75,5.25,4.25,4.25,4.75,4.75,3.5,-0.05,0.02,0.95,984.15,4.8,-6.2,0.0,0.0,0.0,0.5,0.5,0.75,0.25,1.25,0.0,1.5,0.25,0.0,0.5,-1.11,2.58,0.89,12.83,9.9,-27.2
1.46,2.25,1.0,4.25,6.0,6.25,5.0,5.5,5.5,4.25,4.25,5.0,5.0,4.5,-0.05,0.02,0.95,932.79,4.2,-9.8,0.0,0.0,0.0,0.5,0.5,0.5,0.25,1.25,0.0,1.0,0.0,0.0,0.75,-0.36,2.2,1.08,0.0,9.9,-27.1
1.48,1.5,1.0,3.0,6.0,6.0,5.0,5.25,5.5,4.25,5.5,5.25,5.0,5.0,-0.05,0.02,0.95,890.54,2.4,-15.8,0.0,0.75,0.0,0.5,1.0,0.5,0.0,1.75,0.0,0.75,0.25,0.0,0.75,0.14,1.45,1.2,0.0,6.9,-6.6
1.5,2.0,1.0,2.75,5.0,6.0,5.0,4.75,5.75,4.0,5.75,5.75,6.0,5.75,-0.05,-0.05,0.95,867.62,1.9,-20.4,0.75,1.25,1.0,1.75,1.0,0.25,0.25,1.5,0.0,1.25,0.5,0.0,1.5,0.14,0.89,1.14,17.57,-4.0,7.1
1.52,1.75,0.75,1.75,4.5,5.75,4.75,4.25,5.75,3.75,7.25,6.25,6.75,6.25,-0.05,-0.05,0.95,843.96,0.5,-28.1,0.75,1.0,1.25,1.0,3.0,2.0,0.0,1.25,0.25,1.5,0.25,1.0,1.5,0.2,0.33,1.2,87.5,0.0,6.0
1.54,1.25,1.0,0.0,4.25,5.5,5.0,3.75,5.75,3.75,7.25,6.5,6.75,7.25,-0.05,-0.05,0.95,828.77,-1.4,-33.8,0.75,0.75,1.5,1.0,0.5,2.25,0.75,1.5,0.25,3.0,0.25,0.5,0.75,0.2,0.14,1.08,149.33,0.0,-2.9
1.56,1.0,1.0,0.0,4.5,4.75,5.0,3.5,5.75,3.5,8.25,6.75,7.25,7.75,-0.05,-0.05,0.95,830.32,-1.7,-37.6,0.5,0.25,1.75,0.5,3.5,0.0,0.5,1.5,0.5,2.75,0.5,0.5,0.75,0.14,0.08,0.83,192.58,-2.0,-1.8
1.58,1.25,1.0,0.0,3.75,5.0,5.0,3.25,6.0,3.25,8.25,7.0,7.5,8.25,-0.05,0.02,0.95,846.96,-2.1,-39.1,0.75,0.75,1.75,1.0,3.0,2.0,0.5,1.5,0.5,2.75,0.25,0.5,1.5,0.14,0.02,0.77,218.86,0.1,2.6
1.6,1.5,1.0,0.0,1.75,5.75,3.75,3.25,6.25,2.5,7.75,7.0,6.75,8.25,-0.05,0.02,0.95,842.03,-2.5,-41.1,1.0,0.75,1.75,1.0,3.0,2.0,0.5,1.5,0.5,2.75,1.0,0.75,1.5,0.08,-0.11,0.83,239.55,-0.8,-0.7
1.62,0.25,0.0,0.0,1.5,3.5,4.0,2.25,6.0,2.0,8.0,6.25,6.75,7.75,-0.05,0.02,0.95,796.41,-4.5,-52.6,0.75,0.75,1.75,1.0,3.5,1.75,0.5,1.5,0.5,2.75,0.75,0.0,0.5,0.14,-0.23,0.83,247.62,-1.0,12.2
1.64,0.0,0.0,0.0,1.25,2.5,4.0,1.75,6.0,1.75,8.25,5.75,6.5,9.0,-0.05,0.02,0.95,745.32,-5.7,-58.3,0.0,0.0,0.0,0.5,2.75,0.75,0.5,1.5,0.5,2.5,1.0,0.25,1.25,0.27,-0.36,0.77,228.74,6.2,-23.7
1.66,0.0,0.0,0.0,0.25,2.25,4.0,1.25,6.0,1.25,7.75,5.75,6.0,7.75,-0.11,0.02,0.95,675.77,-6.5,-60.3,1.0,0.75,1.75,0.75,3.0,2.0,0.5,1.5,0.5,2.75,0.5,1.0,1.25,0.52,-0.86,0.33,235.24,-0.6,0.4
1.68,0.0,0.0,0.0,0.0,2.25,4.0,0.0,5.75,1.0,7.25,5.0,5.5,7.75,-0.11,0.02,0.95,608.28,-7.8,-61.6,1.25,0.75,1.25,1.25,2.75,0.5,0.25,1.5,0.5,0.75,1.0,0.0,1.5,0.58,-1.42,0.64,228.15,-4.6,11.6
1.7,0.0,0.0,0.0,0.0,1.75,4.0,0.0,5.75,1.0,6.0,4.0,4.75,7.25,-0.11,0.02,1.02,532.87,-8.3,-60.9,4.75,0.75,4.0,5.5,3.0,0.0,2.5,0.75,0.25,0.5,0.0,0.0,0.5,1.58,-3.55,4.7,261.0,-19.5,54.2
1.72,0.0,0.0,0.0,0.0,0.0,0.5,0.0,4.75,0.5,4.5,2.5,3.0,6.0,0.02,0.08,1.45,412.07,-8.5,-78.7,6.25,0.0,6.5,7.5,5.25,0.0,2.75,0.0,0.5,0.5,0.25,0.25,0.5,0.77,1.77,2.39,319.53,-20.6,54.9
1.74,0.0,0.0,0.0,0.0,0.0,0.0,0.0,3.0,0.75,3.0,1.25,2.0,5.25,-0.3,0.2,1.39,298.2,-8.5,-83.1,7.5,2.0,8.0,11.0,6.25,2.25,3.75,1.25,0.5,0.75,0.25,0.25,1.25,0.45,0.39,1.33,472.62,-16.5,51.0
1.76,0.0,0.0,0.0,0.0,0.0,0.25,0.0,3.0,0.5,2.0,0.75,0.5,2.75,-0.98,0.52,1.64,197.03,-11.0,-71.4,7.25,0.5,8.75,11.0,7.5,2.25,5.5,0.0,0.5,1.0,0.25,0.25,0.5,-0.05,0.14,1.33,618.25,-17.8,53.5
1.78,0.0,0.0,0.0,0.0,0.0,0.25,0.0,2.75,0.25,1.5,0.25,0.5,2.0,-0.61,1.2,0.77,101.63,-12.3,-69.1,7.5,0.5,9.25,11.0,8.25,3.25,6.25,1.25,0.5,1.25,0.0,0.25,0.5,-0.17,0.02,1.27,768.41,-16.0,50.8
1.8,0.0,0.0,0.0,0.0,0.0,0.25,0.0,1.5,0.5,1.5,0.0,0.5,0.5,0.08,2.2,0.27,16.11,-10.7,-61.9,7.5,1.75,9.25,11.0,9.25,4.75,7.0,1.25,0.75,1.5,0.0,0.5,0.0,0.02,0.14,1.2,885.28,-14.7,51.2
1.82,0.0,0.0,0.0,0.0,0.0,0.25,0.25,1.0,0.25,1.5,0.25,0.75,0.5,0.7,1.89,0.95,0.0,-7.9,-66.6,7.25,2.5,9.25,11.0,9.5,5.5,7.75,1.5,1.25,1.5,0.75,0.75,1.0,0.14,0.14,1.08,997.25,-13.3,44.9
1.84,0.75,0.0,0.0,0.0,0.0,1.25,1.0,3.0,1.0,2.75,1.5,1.75,1.75,-0.17,1.89,0.89,6.84,-4.4,-52.4,7.0,2.5,9.25,11.0,9.25,5.5,8.0,2.5,1.75,2.0,0.75,0.75,1.25,0.14,0.14,1.02,1087.7,-12.5,40.8
1.86,0.25,0.5,0.25,0.0,2.25,1.25,1.0,3.0,1.0,2.75,1.5,1.5,1.5,-0.36,1.64,0.83,64.5,-4.2,-31.7,6.5,2.75,8.5,11.0,9.0,6.0,8.0,3.0,2.75,3.5,1.5,1.0,1.25,0.08,0.08,0.95,1173.4,-10.8,33.6
1.88,0.25,0.5,0.25,0.75,0.5,1.25,1.25,2.75,0.25,1.5,1.5,0.5,1.25,-0.11,1.27,1.02,98.06,-3.0,-26.2,7.0,2.5,9.0,10.5,9.25,6.0,8.0,3.25,2.5,3.0,2.75,1.0,2.5,0.08,0.08,0.95,1237.91,-10.7,29.8
1.9,0.0,0.25,0.25,0.25,2.25,1.25,1.0,2.5,1.0,2.75,1.25,1.75,1.25,-0.23,0.83,1.27,137.38,-4.1,-33.3,6.25,2.5,8.5,9.25,9.25,6.0,7.75,3.75,2.5,3.75,2.75,1.75,2.25,0.08,0.08,0.95,1247.79,-9.6,25.4
1.92,0.5,0.0,0.25,0.0,2.25,1.25,1.0,2.75,1.0,2.25,1.5,2.0,1.25,-0.23,0.52,1.2,165.26,-3.0,-33.7,6.0,2.5,7.5,9.0,8.25,6.0,7.25,3.75,2.5,3.5,2.75,2.0,2.25,0.08,0.08,0.95,1213.44,-9.3,23.7
1.94,0.75,0.5,0.25,0.0,1.25,1.25,1.0,2.5,1.0,2.25,1.25,2.0,1.25,-0.3,0.45,1.08,187.01,-1.8,-33.1,5.5,2.5,7.5,7.5,8.25,5.75,6.75,3.0,2.5,4.25,2.5,2.0,2.5,0.08,0.08,0.95,1131.05,-8.8,21.5
1.96,0.5,0.25,0.25,0.0,0.5,1.25,1.25,2.5,1.0,2.0,0.5,2.0,1.0,-0.36,0.33,1.14,195.65,-2.6,-38.9,4.75,2.25,6.75,7.25,8.0,5.75,6.25,3.25,2.5,4.75,2.75,2.25,2.5,0.08,0.08,0.95,1042.43,-7.6,17.2
1.98,0.5,0.5,0.25,0.0,2.25,1.0,1.0,2.75,1.0,2.25,1.25,2.0,1.0,-0.3,0.27,1.02,210.23,-2.2,-28.4,4.5,2.0,6.5,6.75,7.75,5.25,5.75,4.0,2.5,5.0,3.75,2.5,3.25,0.08,0.08,0.95,972.65,-6.8,10.6
2.0,0.0,0.25,0.25,0.0,2.25,1.0,1.0,2.25,1.0,2.0,1.5,2.0,1.0,-0.23,0.2,1.02,212.68,-2.7,-34.5,3.75,2.0,5.5,5.75,7.25,5.0,4.75,4.0,2.75,5.5,3.75,2.75,3.5,0.08,0.08,0.95,912.63,-5.4,4.8
2.02,0.75,0.0,0.25,0.0,1.75,1.0,1.25,2.25,1.0,2.25,1.25,2.0,1.25,-0.17,0.08,1.08,214.77,-1.5,-34.8,3.5,1.75,4.75,5.75,6.75,4.75,4.25,4.25,2.5,6.0,4.25,4.0,4.25,0.08,0.08,0.95,865.25,-4.5,-3.0
2.04,0.0,0.5,0.25,0.25,1.75,1.25,1.0,2.25,1.0,2.0,1.25,2.0,1.0,-0.23,-0.11,0.83,211.69,-2.6,-32.1,3.5,1.75,4.75,5.5,6.75,4.75,4.0,4.25,2.75,6.5,4.75,4.5,5.0,0.08,0.08,0.95,840.42,-4.0,-7.1
2.06,0.25,0.25,0.25,0.25,2.25,1.0,1.0,1.75,0.75,2.0,0.75,2.0,1.0,-0.36,-0.11,0.7,201.52,-2.2,-27.8,3.5,1.75,4.75,5.5,6.5,4.75,3.75,4.75,2.5,7.0,4.75,5.25,6.0,0.08,0.08,0.95,843.42,-3.4,-11.2
2.08,0.25,0.0,0.25,0.25,1.75,1.0,1.0,2.0,0.75,2.0,1.5,2.0,0.5,-0.48,-0.11,0.64,187.42,-1.5,-33.6,3.0,1.75,3.75,4.75,6.25,4.75,3.0,5.25,2.75,7.5,5.5,5.5,6.5,0.08,0.08,0.95,849.53,-1.9,-17.7
2.1,0.0,0.25,0.25,0.25,1.75,1.0,1.0,1.75,0.75,1.75,1.25,1.75,1.0,-0.55,-0.05,0.39,180.27,-2.2,-33.2,2.75,1.75,3.5,4.75,6.0,4.75,2.75,5.25,2.5,7.75,5.75,5.75,7.0,0.08,0.08,0.95,856.99,-1.4,-20.5
2.12,0.0,0.0,0.25,0.0,1.25,0.0,0.75,1.25,0.25,0.75,1.25,1.25,0.75,-0.42,0.08,0.08,156.39,0.0,-43.0,2.5,1.5,3.0,5.0,5.75,5.0,2.5,5.25,2.5,7.75,6.25,5.75,7.75,0.08,0.08,0.95,862.33,-0.7,-23.7
2.14,1.25,0.25,0.0,0.0,0.75,0.0,0.0,1.0,0.75,1.5,0.0,1.25,0.25,-0.48,-1.42,0.64,126.8,2.4,-22.6,3.0,1.75,2.75,4.5,5.5,4.5,2.75,5.25,2.5,8.25,6.5,6.0,8.0,0.08,0.08,0.95,872.22,-0.9,-25.3
2.16,1.5,0.0,0.0,1.75,0.75,0.0,0.0,1.5,0.25,1.5,0.5,0.5,0.25,-0.05,-2.23,1.02,112.64,4.4,-1.2,2.0,1.75,2.25,4.5,5.5,4.5,2.75,5.25,2.5,8.5,6.5,6.25,8.0,0.08,0.08,0.95,876.23,0.0,-28.6
2.18,3.0,0.0,1.0,6.5,5.5,0.0,1.25,1.75,0.0,0.5,0.75,0.5,0.5,-1.86,-4.3,3.45,177.1,10.2,37.8,2.0,1.75,2.25,4.0,5.25,4.75,2.25,5.25,1.75,8.5,6.5,6.5,8.25,0.08,0.08,0.95,874.49,0.5,-30.3
2.2,5.75,1.0,5.75,10.5,6.25,1.0,2.0,1.75,0.5,2.25,0.0,2.0,0.25,0.89,0.7,1.27,307.28,14.2,39.9,2.0,0.75,1.75,3.25,5.0,4.5,1.75,5.25,1.75,8.5,6.5,5.75,8.5,0.08,0.08,0.95,850.43,1.6,-35.1
2.22,5.0,1.25,9.5,12.5,7.75,0.25,4.5,2.75,0.25,1.25,1.25,0.5,1.25,1.27,-0.86,2.08,507.17,15.8,41.9,2.0,1.0,0.5,0.0,4.75,4.5,1.25,5.25,1.25,8.25,5.0,5.75,8.0,0.08,0.08,0.95,782.91,4.4,-42.3
2.24,5.75,1.0,9.5,13.5,8.25,3.0,5.5,1.0,0.25,0.25,0.0,0.5,0.0,0.14,-0.05,1.52,707.34,16.7,54.9,1.5,0.5,2.0,0.0,2.75,4.5,0.75,5.25,1.25,8.5,4.75,6.25,8.0,0.08,0.08,0.95,719.77,3.8,-47.8
2.26,6.0,1.25,9.5,13.5,9.5,4.25,6.75,1.0,0.25,0.0,0.0,0.5,0.25,-0.05,0.14,1.2,869.67,15.5,54.3,0.5,0.0,1.75,0.5,1.0,4.5,0.5,4.25,0.75,8.0,2.5,5.0,8.0,0.08,0.08,1.02,615.84,6.1,-54.8
2.28,6.0,1.25,11.0,13.0,12.0,4.5,9.5,3.0,2.0,0.5,1.25,1.0,0.5,-0.11,0.14,1.27,1048.18,13.7,42.7,0.0,0.0,0.5,0.75,0.5,2.25,0.0,4.0,0.25,6.25,0.25,2.75,7.25,0.02,0.14,1.2,472.13,10.2,-63.9
2.3,6.25,1.75,9.75,12.0,8.25,5.75,9.75,3.0,5.0,3.0,1.5,3.25,0.5,-0.05,0.02,1.14,1196.24,12.4,28.1,0.0,0.0,0.0,0.5,1.5,2.0,0.25,2.75,0.0,4.75,0.25,2.0,5.75,-0.05,0.2,1.45,341.94,10.9,-58.3
2.32,6.0,1.5,10.0,9.5,8.0,5.0,10.5,4.75,5.25,4.0,4.75,3.5,2.75,-0.05,-0.17,1.08,1330.34,10.7,13.6,0.0,0.0,0.5,0.5,0.0,1.0,0.0,2.5,0.25,3.5,0.25,1.0,4.25,0.64,0.45,1.95,241.44,9.7,-63.9
2.34,5.5,1.0,9.5,9.25,8.0,5.0,9.25,4.75,5.0,4.25,4.75,3.5,3.0,0.02,-0.05,1.02,1380.09,9.9,11.2,0.0,0.0,0.0,0.5,0.0,0.75,0.0,1.5,0.0,2.75,0.0,0.5,2.5,0.39,0.58,1.77,141.62,12.4,-64.1
2.36,3.75,1.0,8.25,7.5,6.5,4.0,8.25,4.75,5.0,4.25,4.75,3.75,3.0,-0.05,-0.05,0.95,1345.22,9.2,4.3,0.0,0.0,0.25,0.5,0.25,0.0,0.0,1.25,0.5,2.0,0.25,0.5,1.5,-1.36,2.83,0.27,56.48,6.0,-56.3
2.38,2.75,1.25,7.5,6.25,5.75,3.0,7.5,4.75,4.75,4.25,4.75,4.75,3.5,-0.05,-0.05,0.95,1229.84,8.5,-2.8,0.0,0.0,0.25,0.5,0.5,0.0,0.0,1.25,0.5,1.75,0.25,0.5,1.25,-2.05,2.52,1.39,2.32,5.2,-48.9
2.4,2.5,0.5,5.75,4.5,4.75,2.75,6.25,4.75,4.5,4.25,5.0,5.25,4.75,-0.05,-0.05,0.95,1051.74,6.6,-14.6,0.0,0.0,0.0,0.5,0.5,0.25,0.0,1.25,0.5,1.75,0.25,0.25,1.25,-0.8,2.77,1.08,0.0,8.1,-48.0
2.42,1.25,0.5,4.5,3.25,2.25,2.5,5.25,4.75,4.25,4.25,5.75,6.0,4.75,-0.05,-0.05,0.95,857.39,5.4,-28.7,0.0,0.25,0.0,0.5,0.25,0.0,0.0,1.25,0.5,1.5,0.25,0.25,1.25,0.14,2.58,0.83,0.0,6.5,-48.6
2.44,1.25,0.5,1.5,2.5,2.25,2.5,3.75,4.75,3.75,4.75,6.25,6.75,5.5,-0.05,-0.05,0.95,710.6,1.9,-41.1,0.0,0.0,0.0,0.5,0.5,0.0,0.0,1.25,0.5,2.0,0.25,0.0,1.0,0.27,1.83,0.89,0.0,8.2,-47.1
2.46,1.5,0.0,0.0,0.0,2.5,2.5,2.25,4.75,3.5,5.25,6.25,7.5,6.5,-0.05,-0.05,0.95,617.55,-1.4,-56.1,0.0,0.0,0.5,0.5,0.25,0.0,0.25,1.5,0.5,1.5,0.25,0.25,0.75,0.2,1.2,1.2,0.0,2.7,-38.7
2.48,0.75,0.5,0.0,1.75,2.5,1.75,2.0,4.75,3.5,6.5,6.75,8.25,7.5,-0.05,-0.05,0.95,593.2,-1.2,-56.6,0.0,0.0,0.25,0.5,0.25,0.0,0.0,1.25,0.5,1.5,0.25,0.0,1.0,0.33,0.52,1.39,9.36,5.7,-44.8
2.5,1.25,0.0,0.0,1.75,2.25,1.0,0.0,4.75,2.75,6.75,7.0,9.0,8.5,-0.05,-0.05,0.95,586.91,-1.7,-63.2,0.0,0.0,0.0,0.5,0.5,0.0,0.25,1.25,0.5,1.25,0.25,0.0,0.75,0.2,0.27,1.39,28.87,6.0,-38.3
2.52,1.25,0.0,0.0,0.0,2.25,1.0,0.0,4.75,2.0,6.0,7.25,8.25,9.5,-0.05,-0.05,0.95,582.4,-2.9,-69.1,0.0,0.0,0.25,0.5,0.5,0.0,0.0,1.25,0.5,1.25,0.25,0.25,0.5,0.14,0.08,1.2,46.97,3.7,-34.9
2.54,0.0,0.0,0.0,0.0,0.0,1.25,0.25,4.75,2.0,7.25,6.25,8.25,9.0,-0.11,-0.05,0.95,567.88,-4.6,-80.9,0.0,0.0,0.0,0.5,0.25,0.0,0.0,1.25,0.25,1.5,0.25,0.0,0.75,0.2,0.08,0.95,56.31,8.5,-47.3
2.56,0.0,0.0,0.0,0.0,0.0,1.25,0.0,4.75,1.5,7.5,6.25,7.75,9.0,-0.11,-0.05,0.95,550.94,-5.2,-81.4,0.0,0.0,0.25,0.5,0.25,0.0,0.25,1.25,0.25,0.75,0.25,0.25,0.5,0.08,-0.05,0.95,61.5,2.2,-34.2
2.58,0.0,0.0,0.0,0.0,0.0,1.25,0.0,5.0,1.25,8.0,6.25,7.75,9.0,-0.11,-0.05,0.95,548.33,-5.5,-81.3,0.0,0.25,0.0,0.5,0.25,0.0,0.0,1.25,0.25,1.25,0.25,0.0,0.5,0.14,-0.11,0.95,64.39,6.7,-34.0
2.6,0.0,0.0,0.0,0.0,0.0,1.25,0.0,5.0,1.25,8.25,6.0,7.75,9.0,-0.11,0.02,0.95,557.52,-5.7,-81.3,0.0,0.0,0.25,0.5,0.25,0.0,0.25,1.25,0.25,1.25,0.25,0.0,0.75,0.2,-0.23,1.02,66.3,4.8,-38.5
2.62,1.0,0.25,0.0,0.0,0.0,2.25,0.25,5.25,1.5,9.5,6.25,8.75,9.25,-0.11,0.02,0.95,601.67,-4.9,-73.8,0.25,0.25,0.0,0.5,0.5,0.0,0.25,1.5,0.25,1.0,0.25,1.0,0.5,0.2,-0.23,0.95,74.4,1.7,-34.5
2.64,0.75,1.0,0.25,0.25,2.25,2.25,0.5,5.75,1.5,9.5,6.75,8.75,11.0,-0.11,0.02,0.95,681.7,-4.6,-64.7,1.0,0.75,1.75,1.0,3.0,1.5,0.5,1.25,0.5,1.25,0.25,0.0,0.5,0.2,-0.17,0.39,122.63,-4.0,25.4
2.66,0.0,0.0,0.25,0.0,2.25,1.25,0.0,5.0,1.75,8.0,5.25,8.25,9.75,-0.11,0.02,1.02,701.27,-5.3,-72.6,0.25,0.75,0.5,1.25,0.25,1.75,0.75,1.25,0.5,2.25,0.25,0.0,1.5,1.02,-0.55,0.52,148.87,3.2,-12.5
2.68,1.0,0.25,0.25,0.5,2.5,1.25,0.75,5.25,1.0,7.25,5.0,6.75,9.25,-0.23,0.02,1.39,684.25,-4.3,-62.7,2.0,1.0,1.75,3.25,0.25,1.25,0.5,1.0,0.5,3.0,0.25,1.0,1.5,0.89,-1.48,1.08,198.5,-6.9,4.2
2.7,0.25,0.0,0.0,0.0,0.75,1.75,0.25,4.5,1.0,5.5,2.75,5.0,7.25,-0.42,0.2,1.64,573.93,-7.1,-71.3,3.75,1.75,2.25,5.0,2.25,2.0,1.5,1.25,0.5,1.5,0.75,0.0,1.5,1.83,-2.92,2.02,258.55,-10.3,33.2
2.72,0.0,0.0,0.0,0.0,0.0,0.25,0.0,3.0,0.25,2.0,2.0,3.5,6.5,-0.61,0.33,1.7,416.19,-7.0,-87.1,4.0,0.75,4.75,7.5,5.0,2.25,1.5,0.5,0.5,1.0,0.25,0.0,0.5,2.39,-5.11,3.02,336.0,-13.8,49.1
2.74,0.0,0.0,0.0,0.0,0.0,0.0,0.0,2.25,0.25,2.0,1.25,2.0,4.5,-0.61,0.2,1.45,285.56,-8.0,-86.5,6.0,1.75,6.75,9.5,8.5,4.5,4.0,0.0,0.5,1.5,0.25,0.25,1.0,0.33,0.33,2.2,495.77,-12.8,49.2
2.76,0.0,0.0,0.0,0.0,0.0,0.0,0.0,1.25,0.25,1.25,0.5,1.75,2.25,-0.36,0.7,1.14,181.92,-6.6,-87.1,5.5,1.5,7.5,9.25,8.25,4.5,6.5,1.25,1.0,2.5,0.0,0.75,1.0,0.02,0.2,1.64,671.37,-12.1,41.2
2.78,0.0,0.0,0.0,0.0,0.0,0.0,0.0,1.0,0.25,1.5,0.25,1.5,1.75,0.27,2.02,0.39,92.23,-7.3,-86.2,5.0,2.25,8.5,9.0,8.0,4.5,8.25,2.75,3.0,3.5,1.5,1.25,1.5,-0.05,0.02,1.2,870.26,-11.2,28.7
2.8,0.0,0.0,0.0,0.0,0.0,0.0,0.0,1.0,0.0,1.25,0.0,1.5,0.75,0.45,1.77,0.77,19.46,-7.4,-84.6,6.25,2.5,8.25,9.5,7.75,5.5,8.5,3.75,3.75,4.75,3.75,2.5,3.25,0.14,0.02,1.02,1076.01,-9.5,16.8
2.82,0.0,0.0,0.0,0.0,0.0,1.0,0.25,1.0,0.0,1.5,0.25,1.25,0.5,0.39,1.52,0.64,0.0,-9.2,-58.9,6.25,2.75,8.5,9.5,8.25,6.0,8.5,4.0,3.75,4.75,3.5,2.5,3.25,0.08,0.08,0.95,1249.3,-9.2,17.9
2.84,0.0,0.0,0.0,0.0,0.0,0.0,0.25,1.0,0.25,1.25,1.75,0.5,2.25,-0.05,1.39,0.64,0.0,-5.4,-80.9,5.75,2.5,8.5,9.25,8.75,6.0,8.5,4.25,3.75,4.75,3.25,2.25,3.0,0.08,0.08,0.95,1334.97,-8.9,18.2
2.86,0.75,0.25,0.25,1.0,0.0,0.75,1.0,2.25,0.75,2.5,0.75,2.25,2.25,-0.23,1.14,0.7,21.27,-1.2,-45.8,5.5,2.5,8.5,9.0,8.5,6.0,8.0,4.25,3.75,4.75,3.5,2.5,3.0,0.08,0.08,0.95,1358.4,-8.7,16.8
2.88,0.5,0.0,0.25,0.75,1.75,0.0,1.0,2.25,0.75,1.75,1.5,1.75,2.0,-0.23,0.89,0.83,71.55,-0.3,-39.0,4.75,2.5,7.5,8.75,8.25,5.75,7.5,4.25,3.25,4.75,3.5,2.5,3.0,0.08,0.08,0.95,1330.39,-8.0,15.2
2.9,0.0,0.0,0.25,0.75,0.75,4.75,1.0,1.75,2.75,3.0,1.25,2.5,0.5,-0.36,0.64,0.95,144.31,-4.4,-29.4,3.5,2.5,7.0,7.25,8.0,5.5,6.75,3.75,3.0,4.75,3.25,2.5,3.0,0.08,0.08,0.95,1243.17,-7.1,12.7
2.92,0.0,0.0,0.25,0.0,0.0,0.25,4.75,3.5,1.5,0.0,1.0,0.0,1.5,-0.36,0.33,1.02,158.04,2.6,-34.0,3.5,2.25,6.0,6.0,7.5,5.75,6.0,4.0,2.25,5.25,3.25,2.5,3.25,0.08,0.08,0.95,1112.14,-5.6,9.0
2.94,0.0,0.0,0.0,0.0,0.0,0.25,5.25,3.25,1.5,0.0,0.0,0.0,0.0,-0.42,0.2,0.95,155.95,5.2,-14.2,3.0,1.75,4.75,5.5,7.25,5.5,4.5,4.0,2.0,5.75,3.25,2.75,3.5,0.08,0.08,0.95,974.76,-3.9,3.2
2.96,0.0,0.0,0.0,0.0,0.0,0.0,4.75,2.75,0.0,0.0,0.0,0.0,0.0,-0.42,0.08,0.95,125.88,5.4,-8.8,2.0,1.5,2.25,4.75,6.5,5.5,3.25,4.25,2.0,6.0,2.5,2.75,4.5,0.08,0.08,0.95,827.48,-0.2,-6.3
2.98,0.0,0.0,0.0,0.0,0.0,0.0,3.5,0.0,0.75,0.0,0.0,0.0,0.0,-0.23,0.08,0.83,88.62,26.2,7.1,0.5,0.25,2.25,3.0,5.75,4.5,1.75,4.25,1.5,5.75,2.5,3.0,4.25,0.08,0.08,0.95,659.71,2.0,-18.6
3.0,0.0,0.0,0.0,0.0,0.0,0.0,4.75,3.0,1.0,0.0,0.0,0.0,0.0,-0.3,0.14,0.83,76.48,5.6,-14.7,0.75,0.0,0.75,1.25,4.5,4.5,1.5,4.25,1.25,6.5,2.75,4.0,5.5,0.08,0.08,0.95,536.35,5.0,-35.6
3.02,0.0,0.0,0.0,0.0,0.0,0.0,4.75,2.5,0.0,0.0,0.0,0.0,0.0,-0.42,-0.05,1.2,66.62,6.6,-7.2,0.5,0.0,0.75,0.5,3.25,4.25,1.0,4.25,0.25,7.0,2.75,5.25,6.25,0.08,0.08,0.95,447.87,6.2,-47.7
3.04,0.0,0.0,0.0,0.0,0.0,0.0,0.25,0.0,0.0,0.0,0.0,0.0,0.0,-0.36,0.08,0.83,40.51,32.4,27.3,0.0,0.0,0.5,1.0,2.75,3.75,0.75,5.0,1.25,7.75,3.5,5.25,7.25,0.08,0.08,0.95,422.78,6.5,-53.8
3.06,0.0,0.0,0.0,0.0,0.0,0.0,0.0,0.0,0.0,0.0,0.0,0.0,0.0,-0.48,0.27,0.83,7.66,0.0,0.0,0.5,0.0,0.5,0.75,2.5,4.0,0.5,5.25,1.25,7.75,3.25,5.75,8.0,0.08,0.08,0.95,437.5,6.5,-54.8
3.08,0.0,0.0,0.0,0.0,0.0,0.0,0.0,0.0,0.0,0.0,0.0,0.0,0.0,-0.61,0.2,1.08,0.0,0.0,0.0,0.0,0.0,0.5,1.0,2.5,3.75,0.5,5.25,1.25,8.0,3.25,5.75,8.0,0.08,0.08,0.95,467.62,6.8,-56.5
3.1,0.0,0.0,0.0,0.0,0.0,0.0,0.0,0.0,0.0,0.0,0.0,0.0,0.0,-0.67,0.2,1.02,0.0,0.0,0.0,0.75,0.0,0.25,0.75,2.5,4.0,0.5,5.75,1.25,8.25,4.75,5.75,8.0,0.08,0.08,0.95,508.73,6.2,-55.4
3.12,0.0,0.0,0.0,0.25,0.0,2.75,0.0,0.0,2.0,2.5,0.0,2.5,0.0,-0.61,0.14,1.08,16.4,-4.8,-44.2,0.25,0.0,0.0,0.5,2.5,4.5,0.5,5.25,1.25,8.5,4.75,5.75,8.5,0.08,0.08,0.95,546.42,7.2,-58.5
3.14,1.5,0.25,1.75,1.0,0.0,2.5,5.25,5.25,1.25,1.25,3.25,2.0,1.25,-0.67,-0.23,1.08,137.02,4.5,-19.5,0.5,0.0,0.25,0.5,2.25,4.25,0.5,5.25,1.0,8.5,4.5,6.0,8.5,0.08,0.08,0.95,578.03,6.8,-58.5
3.16,0.0,0.0,0.5,0.0,1.75,0.0,5.0,2.5,0.25,0.5,0.75,0.75,1.0,-0.48,-0.86,0.64,183.58,4.1,-17.6,0.0,0.0,0.25,0.5,2.25,4.25,0.5,5.5,0.75,8.5,4.75,6.25,8.5,0.08,0.08,0.95,601.77,7.2,-60.7
3.18,0.0,0.0,0.0,0.0,0.0,0.0,0.0,1.0,0.0,0.0,0.0,0.75,0.25,0.39,-2.3,0.77,167.47,-6.8,-74.4,0.0,0.0,0.0,0.5,1.25,4.5,0.5,6.0,0.5,9.0,4.5,6.25,9.0,0.08,0.08,0.95,623.83,8.2,-64.6
3.2,0.0,0.0,0.0,0.0,0.0,0.0,0.25,0.75,0.0,0.0,0.0,0.0,0.0,0.64,-4.3,1.08,113.91,-10.0,-29.6,0.0,0.0,0.0,0.5,1.25,4.5,0.25,6.0,0.5,9.0,4.5,6.0,9.25,0.08,0.08,0.95,639.99,8.5,-64.9
3.22,0.75,0.0,0.0,0.75,0.0,0.0,3.0,0.0,3.5,4.5,0.0,8.0,0.0,-0.42,-4.17,6.14,155.75,6.7,-63.3,0.5,0.0,0.0,0.5,0.5,4.25,0.0,5.5,0.5,8.5,3.75,5.75,9.25,0.14,0.08,0.95,632.35,8.4,-66.2
3.24,0.0,0.0,0.0,0.0,0.0,0.0,1.75,2.75,4.25,4.25,7.25,8.25,7.75,-0.42,-0.73,1.45,278.45,0.1,-81.5,0.0,0.0,0.0,0.5,1.0,3.25,0.0,5.25,0.5,8.75,3.25,5.5,9.25,0.14,0.08,1.02,606.73,8.8,-68.7
3.26,1.5,0.0,0.0,1.25,0.0,0.0,4.75,2.75,5.0,5.0,7.5,8.5,7.75,0.14,0.02,0.89,454.17,3.0,-66.5,0.25,0.0,0.0,0.5,0.5,2.75,0.0,5.0,0.5,8.0,2.0,5.25,9.0,0.14,0.08,1.08,557.24,9.0,-70.3
3.28,0.25,1.0,0.0,1.5,0.0,0.75,5.5,4.0,5.25,6.25,8.25,9.25,8.25,-0.05,0.02,0.89,667.58,1.4,-64.7,0.0,0.0,0.0,0.5,0.25,2.25,0.0,4.25,0.25,7.75,1.5,4.0,8.75,0.2,0.08,1.14,491.32,10.2,-73.5
3.3,1.5,1.0,0.0,1.5,0.75,1.25,5.5,4.75,5.75,7.25,9.25,10.5,9.0,-0.05,-0.05,1.02,856.71,1.5,-60.0,0.0,0.0,0.0,0.5,0.25,1.75,0.0,3.5,0.25,6.5,0.25,2.75,8.25,0.2,0.2,1.52,408.04,11.4,-73.8
3.32,1.5,1.0,0.0,1.5,2.25,1.25,4.75,4.75,5.75,7.0,9.75,11.0,10.0,-0.05,-0.05,1.02,1000.58,1.1,-58.5,0.0,0.0,0.0,0.5,0.25,1.25,0.0,2.75,0.25,4.75,0.25,2.0,6.75,0.95,0.58,2.45,328.62,11.1,-73.4
3.34,1.5,0.5,0.0,1.25,1.75,0.25,5.25,4.75,5.25,7.25,9.75,11.0,10.0,-0.05,-0.05,0.95,1074.98,1.3,-63.1,0.0,0.25,0.0,0.5,0.25,0.75,0.0,1.75,0.5,3.5,0.25,1.0,5.0,0.77,0.33,0.77,253.27,10.2,-68.2
3.36,1.25,0.25,0.25,1.0,2.25,0.5,4.75,3.75,4.5,7.25,9.25,11.0,10.0,-0.05,-0.05,0.95,1090.86,1.0,-64.0,0.0,0.25,0.0,0.5,0.5,0.75,0.0,1.5,0.5,3.25,0.25,0.5,3.25,-0.36,1.95,0.89,184.04,10.0,-57.2
3.38,1.0,0.75,0.25,0.0,2.25,0.25,3.5,3.0,4.25,5.75,8.75,9.25,10.0,-0.05,-0.05,0.95,1034.13,0.7,-65.7,0.0,0.25,0.0,0.5,0.5,1.0,0.0,1.25,0.25,2.0,0.25,0.5,2.25,-1.36,2.39,0.64,117.82,9.6,-47.1
3.4,0.75,0.25,0.0,1.25,0.0,0.25,1.75,2.5,3.5,6.5,7.25,11.0,9.0,0.02,-0.05,0.95,955.66,0.3,-76.0,0.0,0.0,0.0,0.5,0.5,0.5,0.0,1.25,0.25,2.25,0.25,0.5,1.5,-0.48,2.08,0.64,67.45,9.3,-51.6
3.42,0.75,0.25,0.25,0.25,0.0,0.25,1.75,3.0,2.75,7.0,7.75,11.0,10.0,-0.05,-0.05,0.95,876.46,-0.5,-79.3,0.0,0.0,0.0,0.0,0.25,0.5,0.0,1.25,0.25,1.75,0.0,0.25,1.75,-0.17,1.52,0.83,30.44,13.1,-63.3
3.44,0.5,0.75,0.25,0.5,1.75,0.25,1.25,3.0,2.25,7.25,7.5,11.0,10.5,-0.11,-0.05,1.08,817.45,-1.2,-73.0,0.0,0.25,0.0,0.5,0.5,0.0,0.0,1.25,0.25,1.75,0.25,0.25,1.25,0.14,0.95,1.02,13.58,7.5,-45.4
3.46,0.5,0.0,0.25,1.25,1.75,0.25,0.75,3.0,2.0,7.25,7.25,9.75,11.0,-0.11,-0.05,0.95,756.89,-1.8,-73.8,0.0,0.0,0.0,0.5,0.25,0.0,0.0,1.25,0.25,1.5,0.25,0.25,1.25,0.02,0.58,0.95,7.19,8.2,-55.9
3.48,0.5,0.25,0.25,1.0,1.25,0.25,0.5,3.0,1.75,7.25,7.0,11.0,11.0,-0.05,-0.05,0.89,723.44,-1.8,-76.6,0.0,0.25,0.0,0.5,0.5,0.0,0.0,1.75,0.25,1.5,0.25,0.0,1.25,-0.11,0.45,1.02,14.15,8.5,-41.2
3.5,0.75,0.0,0.25,0.5,1.75,0.25,0.5,3.0,1.5,7.5,7.0,11.5,12.0,-0.05,-0.11,0.77,718.94,-2.2,-77.9,0.0,0.25,0.0,0.5,0.25,0.0,0.0,1.25,0.25,2.5,0.25,0.0,1.25,0.08,0.33,1.27,29.75,9.2,-50.8
3.52,0.5,0.0,0.0,0.5,1.75,0.25,0.5,3.0,1.25,8.25,7.0,11.5,12.0,-0.11,-0.11,0.89,718.24,-2.9,-79.7,0.0,0.0,0.0,0.5,0.5,0.0,0.0,1.25,0.25,1.5,0.0,0.0,1.25,0.14,0.2,0.95,41.61,9.6,-46.6
3.54,0.0,0.0,0.0,0.0,0.0,0.0,0.0,3.0,1.0,7.25,6.25,9.75,11.0,-0.11,-0.11,0.95,671.32,-4.0,-90.5,0.0,0.25,0.0,0.5,0.5,0.0,0.0,1.25,0.25,1.5,0.25,0.0,1.25,0.2,0.2,0.89,55.36,7.8,-41.4
3.56,0.0,0.0,0.0,0.0,0.0,0.0,0.0,3.0,1.0,8.0,6.25,9.75,12.0,-0.11,-0.11,0.95,648.84,-4.5,-90.7,0.25,0.0,0.0,0.5,0.25,0.0,0.0,1.0,0.25,1.5,0.0,0.0,1.25,0.33,0.08,1.14,62.17,7.6,-46.1
3.58,0.0,0.0,0.0,0.0,0.0,0.0,0.0,3.0,1.0,8.25,6.25,9.5,11.0,-0.17,-0.11,0.95,622.98,-4.4,-90.0,0.0,0.25,0.25,0.5,0.25,0.0,0.25,1.25,0.25,1.25,0.0,0.0,1.25,0.27,0.08,1.27,69.47,5.5,-37.1
3.6,0.75,0.0,0.0,0.0,0.0,0.0,0.0,3.0,1.0,8.5,6.25,9.75,12.0,-0.17,-0.11,0.95,628.71,-3.9,-87.3,0.0,0.0,0.5,0.5,0.25,0.0,0.0,1.25,0.25,1.5,0.0,0.0,1.25,0.45,0.2,0.89,74.22,5.5,-41.9
3.62,0.0,0.0,0.0,0.0,0.0,0.25,0.0,3.0,0.25,8.25,5.75,9.75,12.0,-0.23,-0.11,1.02,627.13,-5.2,-91.0,0.0,0.0,0.0,0.5,0.25,0.0,0.0,1.25,0.25,0.75,0.0,0.0,1.0,0.64,0.2,0.95,71.9,8.7,-44.4
3.64,0.5,0.5,0.0,0.25,1.75,1.25,0.25,4.75,1.0,8.5,6.25,11.0,13.5,-0.23,-0.05,1.14,691.69,-4.6,-76.1,0.0,0.75,0.5,0.75,0.25,2.0,0.0,1.25,0.5,3.0,0.25,1.0,1.0,0.64,0.2,1.02,101.99,5.8,-26.7
3.66,0.0,0.0,0.0,0.0,1.75,0.25,0.0,4.25,0.25,8.0,5.75,10.0,13.0,-0.3,-0.11,1.08,704.46,-5.5,-83.5,0.0,0.5,0.25,0.0,0.5,0.0,0.25,1.5,0.25,2.25,0.0,1.0,1.0,0.64,0.33,0.95,112.6,5.9,-47.9
3.68,0.0,0.0,0.0,1.5,2.25,2.5,0.0,4.5,1.25,8.5,5.0,9.75,11.5,-0.11,-0.11,0.89,733.88,-5.3,-69.6,1.25,0.75,0.0,1.0,0.25,0.5,0.5,1.25,0.5,2.0,1.25,1.75,3.0,2.77,-6.36,3.64,152.67,-0.3,-39.9
3.7,1.75,0.0,0.0,0.0,0.75,0.0,0.0,3.25,1.0,7.75,5.0,9.5,13.0,-0.11,-0.11,1.02,715.33,-3.7,-81.0,0.0,0.0,1.25,0.5,0.25,0.0,0.0,1.0,0.5,1.75,0.25,1.0,2.25,1.08,-2.86,-0.42,157.02,0.1,-50.3
3.72,0.75,1.0,0.0,0.0,3.0,0.25,0.5,4.75,1.0,7.25,5.75,8.75,11.0,-0.17,-0.11,1.02,706.33,-3.8,-68.2,0.0,0.0,0.5,0.5,0.25,0.0,0.5,0.5,0.5,1.0,0.25,0.25,1.25,1.77,-0.61,4.33,144.02,-0.8,-40.6
3.74,0.75,0.0,0.0,0.0,2.25,1.0,0.0,3.0,1.0,7.25,4.0,7.75,11.0,-0.23,-0.17,1.02,652.82,-5.2,-74.1,1.0,0.0,0.0,0.0,0.25,0.0,0.25,1.25,0.5,1.5,0.25,0.25,1.25,-1.23,3.27,1.39,122.88,2.4,-40.4
3.76,0.5,0.0,0.0,0.75,0.0,0.75,0.25,3.25,1.0,5.75,4.75,6.75,8.75,-0.36,-0.11,1.2,583.12,-3.9,-78.8,0.0,0.0,0.0,0.5,0.25,0.0,0.5,0.25,0.5,1.5,0.25,0.75,1.25,-0.23,0.08,0.7,106.82,2.5,-59.4
3.78,0.0,0.0,0.0,0.0,0.0,0.0,0.0,1.0,0.25,3.25,1.5,5.25,7.25,-0.36,-0.05,1.2,441.04,-5.6,-96.4,0.0,0.25,0.0,0.5,0.25,2.0,0.5,1.25,0.75,3.0,1.0,2.5,2.25,0.14,0.08,1.14,138.51,5.9,-54.5
3.8,0.0,0.0,0.0,0.0,0.0,0.0,0.0,1.0,0.25,2.5,1.0,3.0,5.5,-0.48,-0.11,1.14,307.5,-7.0,-94.3,1.0,0.25,0.5,0.5,0.25,0.25,0.25,1.25,1.25,4.75,2.75,5.25,4.25,0.08,0.08,0.95,212.59,0.1,-67.2
3.82,0.0,0.0,0.0,0.0,0.0,0.0,0.0,0.75,0.25,1.5,0.5,2.5,3.5,-0.55,0.77,0.7,201.98,-6.0,-94.5,1.0,0.25,0.5,0.5,0.25,1.0,0.5,1.5,1.75,6.0,4.75,6.0,7.0,0.02,0.08,0.95,309.51,1.4,-69.6
3.84,0.0,0.0,0.0,0.0,0.0,0.0,0.0,0.75,0.25,1.5,0.25,2.0,2.25,0.08,0.89,0.83,106.74,-6.3,-91.3,1.0,0.0,0.75,0.5,0.5,1.0,1.75,2.5,2.25,7.75,5.75,7.5,6.75,0.02,0.08,0.95,434.83,0.8,-67.9
3.86,0.0,0.0,0.0,0.0,0.0,0.0,0.0,0.75,0.25,1.25,0.25,2.5,1.5,0.14,0.7,0.95,38.34,-3.9,-91.1,1.0,0.5,2.0,0.5,3.0,1.75,2.25,3.0,3.25,7.75,7.75,8.0,8.0,0.08,0.08,0.95,606.67,-0.3,-54.3
3.88,0.0,0.0,0.0,0.0,0.0,0.0,0.0,0.75,0.25,1.5,0.25,2.0,1.5,-0.05,1.14,0.77,0.0,-5.4,-89.0,2.25,1.5,2.25,2.0,3.25,2.5,2.5,3.5,2.5,7.25,7.75,7.25,8.5,0.08,0.08,0.95,751.19,-1.3,-41.5
3.9,0.75,0.0,0.0,0.5,0.0,0.25,0.0,0.75,0.5,2.0,0.0,2.5,1.5,0.02,1.2,1.02,2.24,-1.0,-61.2,2.75,1.25,2.25,2.0,3.25,4.0,2.5,3.75,2.5,7.5,7.75,7.25,8.5,0.08,0.08,0.95,872.86,-0.8,-39.1
3.92,0.5,0.0,0.25,0.25,0.0,0.25,1.0,1.25,0.25,2.75,1.5,2.0,2.25,0.02,0.95,1.08,30.83,-1.6,-64.1,1.0,0.75,1.75,2.0,0.5,2.5,2.5,3.25,2.75,8.0,7.75,8.0,7.5,0.08,0.08,0.95,902.58,-0.6,-55.0
3.94,0.25,0.0,0.0,0.25,0.0,0.25,0.5,1.25,0.5,2.5,1.75,2.0,2.25,-0.11,0.77,0.95,67.57,-3.1,-71.7,2.25,1.5,2.5,2.75,4.5,3.25,2.5,3.25,2.0,7.75,7.75,7.75,8.25,0.08,0.08,0.95,949.47,-1.3,-36.8
3.96,0.5,0.0,0.5,0.25,0.5,0.25,1.0,1.0,0.5,2.25,1.25,2.0,2.25,-0.17,0.64,0.89,100.41,0.1,-54.9,2.25,1.5,2.25,2.25,4.25,2.5,2.25,3.25,2.5,8.0,7.75,7.75,8.0,0.02,0.08,0.95,953.98,-1.3,-39.6
3.98,0.0,0.0,0.25,0.0,0.0,0.25,1.5,1.25,0.5,2.0,1.25,2.0,2.25,-0.17,0.45,1.45,125.34,-1.8,-70.6,2.25,1.5,2.25,2.0,3.5,2.5,2.25,3.0,2.25,8.0,7.75,7.75,8.25,0.08,0.08,0.95,945.78,-1.3,-42.0
4.0,0.5,0.0,0.0,1.0,0.0,0.25,0.75,1.0,0.75,2.0,1.75,2.25,2.25,-1.86,-4.11,4.45,151.72,0.6,-59.7,2.0,1.25,2.25,2.0,3.5,2.25,1.75,3.0,1.75,8.0,7.75,7.75,8.25,0.08,0.08,0.95,910.31,-0.9,-44.0
4.02,1.25,0.0,0.25,2.0,0.0,3.75,5.5,5.25,2.25,2.75,3.5,2.5,1.5,-0.55,-1.98,0.33,230.96,0.8,-27.4,1.5,0.75,2.0,0.75,3.25,2.0,1.75,3.0,1.75,8.25,7.75,8.0,8.5,0.08,0.08,0.95,858.17,0.0,-52.0
4.04,0.25,0.0,0.75,0.25,0.5,0.25,1.25,1.0,1.0,1.75,0.5,2.25,2.25,0.08,0.58,-0.17,235.21,1.3,-52.8,1.25,1.0,1.75,0.0,3.0,1.75,1.25,3.0,1.5,8.5,7.5,7.75,8.5,0.08,0.08,0.95,793.7,0.9,-55.7
4.06,0.25,0.0,0.0,0.25,0.5,0.75,1.25,1.0,1.25,2.0,0.75,2.0,2.0,-0.61,0.77,1.02,234.26,-1.9,-55.1,1.25,1.0,1.75,1.25,2.5,2.5,0.5,2.75,1.25,8.5,7.75,8.0,9.25,0.02,0.08,0.95,755.26,1.1,-54.6
4.08,0.25,0.0,0.25,0.0,0.0,0.0,1.5,1.0,0.25,1.5,0.25,0.75,1.0,-0.92,0.89,1.39,184.57,-0.1,-53.0,1.25,0.75,1.75,0.75,2.75,2.25,0.5,2.75,1.25,8.5,7.25,8.0,9.25,0.08,0.08,0.95,725.7,1.4,-56.3
4.1,0.25,0.0,0.0,0.25,0.0,0.25,1.75,1.0,0.25,2.0,0.5,2.0,2.0,-0.8,0.83,1.45,161.61,-1.7,-65.4,0.25,0.0,0.0,0.5,0.25,0.5,0.0,1.75,0.5,8.0,5.75,7.25,8.25,0.08,0.08,1.02,630.75,4.1,-83.3
4.12,0.5,0.0,0.25,0.25,0.5,0.25,1.25,1.0,0.25,2.0,1.25,2.0,2.25,-0.36,0.7,0.77,146.02,-0.3,-56.6,0.0,0.0,0.0,0.5,0.25,0.25,0.0,1.75,0.5,8.0,5.5,7.25,9.0,0.08,0.02,0.95,556.96,4.5,-86.1
4.14,0.5,0.0,1.0,0.25,0.5,0.5,1.25,1.0,0.25,2.0,1.25,2.0,2.25,-0.17,0.7,0.33,157.12,1.7,-47.3,0.0,0.0,0.0,0.25,0.25,0.75,0.0,1.75,0.5,8.0,5.0,7.25,9.0,0.14,0.08,0.95,494.21,5.2,-85.6
4.16,0.5,0.0,0.25,0.25,0.75,0.25,1.25,1.0,0.25,1.75,1.25,2.0,2.25,-0.55,0.39,0.58,162.68,0.0,-53.3,0.0,0.0,0.0,0.25,0.25,1.0,0.0,1.5,0.25,7.75,4.75,7.25,9.25,0.14,0.08,0.95,461.47,5.5,-85.8
4.18,0.5,0.0,0.25,0.5,0.75,0.25,1.25,1.0,0.25,1.75,1.25,2.0,2.25,-0.11,0.27,0.77,166.6,0.3,-50.7,0.0,0.25,0.0,0.5,0.25,0.75,0.0,1.25,0.25,7.75,4.75,7.25,9.5,0.14,0.02,1.02,440.98,5.0,-84.6
4.2,0.25,0.0,0.25,0.5,0.0,0.25,1.25,1.0,0.25,2.0,1.25,2.0,2.0,0.2,0.27,0.95,161.88,-0.1,-62.0,0.0,0.0,0.0,0.5,0.25,1.0,0.0,1.25,0.25,7.75,4.75,6.75,9.5,0.2,0.02,0.95,439.62,5.5,-84.8
4.22,0.25,0.0,0.0,1.0,0.0,0.25,1.0,1.0,0.25,1.75,1.25,2.0,2.25,0.08,-1.8,1.2,157.26,-0.5,-60.9,0.0,0.0,0.0,0.25,0.25,0.5,0.0,1.25,0.25,7.0,4.5,6.5,9.5,0.14,0.02,0.95,428.26,5.4,-88.1
4.24,0.25,0.0,0.25,0.25,0.75,0.25,1.25,1.0,0.25,1.75,1.25,2.0,2.25,-0.05,-2.05,1.39,154.86,-0.7,-56.5,0.0,0.25,0.0,0.5,0.25,0.5,0.0,1.25,0.25,6.75,3.5,6.25,9.25,0.2,0.02,1.02,409.51,5.6,-85.2
4.26,0.25,0.0,0.5,0.5,0.0,0.25,1.75,1.0,0.25,1.5,1.5,2.0,2.25,-0.17,-0.23,1.64,155.12,2.1,-57.9,0.0,0.5,0.0,0.5,0.25,0.5,0.0,0.75,0.0,6.5,3.0,5.75,9.25,0.39,0.02,0.89,388.59,5.8,-84.6
4.28,0.5,0.0,0.25,0.25,0.5,0.0,1.25,1.0,0.25,0.5,1.25,1.0,1.5,-0.23,-0.17,1.08,151.23,3.5,-43.4,0.25,0.25,0.0,0.5,0.25,0.25,0.0,0.0,0.0,5.75,2.5,5.5,8.75,0.45,-0.05,1.02,360.62,5.1,-87.0
4.3,0.0,0.0,0.0,0.0,0.0,1.75,1.0,0.0,1.25,1.75,0.0,2.0,0.25,-0.48,-0.36,0.95,135.68,-2.7,-48.5,0.0,0.25,0.0,0.5,0.25,0.0,0.0,0.0,0.0,5.0,2.5,5.25,8.5,0.83,-0.3,1.08,332.0,5.1,-90.1
4.32,0.75,0.0,0.25,0.25,0.5,0.25,1.5,1.0,0.25,1.5,1.0,2.0,1.75,-0.48,-0.8,1.02,135.17,2.0,-48.0,0.0,0.25,0.0,0.0,0.25,0.0,0.0,0.0,0.0,4.5,2.0,4.5,8.0,1.27,-0.36,1.02,302.05,6.1,-93.5
4.34,0.25,0.0,0.25,0.5,0.75,0.25,1.5,1.0,0.25,1.5,0.75,2.0,2.0,-0.48,-0.92,1.02,136.25,0.1,-50.0,0.0,0.25,0.0,0.5,0.25,0.0,0.0,0.0,0.0,3.5,1.5,3.5,7.0,1.27,-0.61,1.33,274.77,5.7,-88.3
4.36,0.25,0.0,0.25,0.0,0.0,0.25,1.5,1.0,0.25,1.5,0.5,2.0,1.5,-0.36,-0.92,1.33,134.51,0.0,-63.3,0.0,0.25,0.0,0.5,0.25,0.0,0.0,0.0,0.0,2.5,0.75,2.25,5.75,0.95,-0.3,2.02,227.6,6.5,-85.7
4.38,0.75,0.0,0.25,0.25,0.0,0.25,1.5,1.0,0.25,1.75,1.0,1.75,1.75,-0.23,-1.05,1.89,138.87,1.7,-53.2,0.0,0.25,0.0,0.75,0.25,0.0,0.0,0.0,0.0,2.0,0.25,1.0,3.25,0.52,-0.55,0.45,164.96,6.3,-70.7
4.4,0.5,0.25,0.25,1.0,2.25,0.5,1.25,1.0,0.25,1.5,1.0,2.0,2.0,0.2,-1.55,2.39,154.86,0.7,-26.7,0.0,0.25,0.0,0.5,0.25,0.0,0.0,0.0,0.0,1.75,0.25,1.0,2.25,0.52,0.33,1.2,103.84,5.7,-69.4
4.42,0.5,0.0,0.5,0.5,0.5,0.5,1.5,1.0,0.25,1.5,1.0,2.0,2.0,-0.48,-1.67,1.58,161.02,1.6,-45.7,0.0,0.0,0.0,0.5,0.25,0.0,0.25,0.0,0.0,1.75,0.25,0.75,1.5,0.08,-0.61,0.83,52.7,5.2,-67.6
4.44,0.5,0.0,0.75,1.0,0.0,0.25,1.5,0.75,0.25,1.5,1.0,2.0,1.5,-0.55,-1.23,2.14,162.9,5.4,-42.1,0.0,0.0,0.0,0.0,0.25,0.0,0.0,0.0,0.0,1.5,0.25,0.75,1.25,0.2,-0.3,1.64,19.08,8.0,-83.5
4.46,0.75,0.0,0.5,1.0,0.0,0.25,1.5,0.75,0.25,1.5,1.25,2.0,1.75,0.2,-1.3,1.64,162.72,4.9,-43.9,0.0,0.0,0.0,0.0,0.25,0.0,0.0,0.0,0.0,1.5,0.25,0.5,1.5,-0.55,-0.3,2.45,3.42,9.4,-83.5
4.48,0.5,0.25,0.25,0.5,1.25,0.25,1.75,1.0,0.25,1.5,0.75,2.0,1.75,0.45,-1.42,0.95,163.33,1.6,-36.0,0.0,0.0,0.0,0.5,0.25,0.0,0.0,0.0,0.0,1.5,0.25,0.25,1.25,0.02,-0.23,1.95,0.0,6.9,-62.1
4.5,0.5,0.0,0.25,0.5,0.5,0.25,1.75,1.0,0.25,1.5,1.25,2.0,1.5,-0.55,-1.11,-0.3,162.02,2.6,-46.9,0.0,0.0,0.0,0.0,0.25,0.0,0.0,0.0,0.0,1.5,0.25,0.25,1.25,0.02,-0.48,2.08,0.0,10.4,-79.8
4.52,0.0,0.25,0.25,0.5,1.25,0.25,1.75,0.75,0.25,1.5,1.25,2.0,1.5,-1.61,-0.48,0.2,164.12,1.4,-41.7,0.0,0.0,0.0,0.0,0.25,0.0,0.25,0.0,0.0,1.5,0.25,0.5,1.0,0.08,-0.67,1.77,5.81,7.5,-76.2
4.54,0.5,0.0,0.5,0.75,0.0,1.0,1.75,0.25,0.25,1.5,0.5,2.0,1.5,-1.8,-0.42,0.89,156.73,3.3,-39.6,0.0,0.25,0.0,0.5,0.25,0.0,0.0,0.0,0.0,0.5,0.25,0.25,1.5,0.2,-0.86,-0.42,12.53,3.5,-50.3
4.56,0.5,0.0,0.0,0.75,0.0,0.75,1.5,0.25,0.25,1.5,0.5,2.0,1.5,-1.48,-0.36,0.95,145.53,1.6,-48.5,0.0,0.25,0.25,0.25,0.25,0.0,0.0,0.0,0.0,0.75,0.25,0.25,1.0,0.14,-1.23,-0.42,20.1,1.3,-42.9
4.58,0.5,0.0,0.5,0.0,0.0,0.5,1.75,0.75,0.25,1.5,1.0,2.0,1.75,-0.86,-0.48,0.52,142.04,2.3,-55.0,0.0,0.0,0.0,0.5,0.25,0.0,0.25,0.0,0.0,1.0,0.25,0.25,1.25,0.14,-0.73,0.02,31.35,4.4,-57.5
4.6,0.25,0.0,0.25,0.75,0.0,0.25,1.75,0.75,0.25,1.5,1.0,2.0,1.5,-0.23,-0.48,0.45,140.45,2.9,-53.2,0.0,0.0,0.0,0.5,0.25,0.0,0.25,0.0,0.0,0.75,0.25,0.25,1.0,0.33,-0.55,0.89,39.35,2.8,-51.8
4.62,0.0,0.0,0.25,0.25,0.75,0.25,1.5,0.25,0.25,1.5,1.25,2.0,1.5,0.27,-0.61,0.64,138.07,1.5,-55.8,0.0,0.0,0.0,0.0,0.25,0.0,0.0,0.0,0.0,0.75,0.25,0.0,1.0,0.45,-0.86,1.2,41.12,10.4,-74.6
4.64,0.25,0.0,0.25,1.0,0.5,0.25,2.0,1.0,0.25,1.5,0.75,2.0,1.75,0.7,-0.8,0.52,142.34,2.2,-44.2,0.0,0.0,0.0,0.0,0.25,0.0,0.0,0.0,0.0,0.5,0.0,0.25,1.0,0.58,-0.61,1.39,37.3,10.0,-78.6
4.66,0.5,0.0,0.25,1.0,0.5,0.25,1.5,1.0,0.25,1.5,1.0,2.0,0.5,0.7,-0.92,0.64,142.93,4.6,-34.5,0.0,0.0,0.0,0.25,0.25,0.0,0.0,0.0,0.0,0.5,0.25,0.0,1.0,0.52,-0.86,1.27,34.81,6.7,-59.6
4.68,0.0,0.0,0.75,0.75,0.5,0.5,1.5,0.5,0.25,1.5,1.0,2.0,1.75,0.39,-1.11,0.7,147.02,2.7,-45.7,0.0,0.0,0.0,0.0,0.25,0.0,0.0,0.0,0.0,0.25,0.25,0.0,1.0,0.33,-0.86,1.14,30.72,9.0,-74.4
4.7,0.5,0.0,0.75,0.5,0.0,0.25,1.75,0.75,0.25,1.5,0.75,2.0,1.5,0.02,-1.3,0.45,145.21,4.9,-45.9,0.0,0.25,0.0,0.25,0.25,0.0,0.0,0.0,0.0,0.5,0.0,0.25,0.75,0.2,-0.86,0.64,29.99,4.0,-40.2
4.72,0.25,0.5,0.25,1.0,0.75,0.25,1.75,0.75,0.25,1.5,0.75,2.0,1.5,-0.3,-1.3,0.08,149.58,3.0,-34.1,0.0,0.0,0.0,0.25,0.25,0.0,0.0,0.0,0.0,0.5,0.25,0.0,0.75,0.08,-0.86,0.58,29.34,5.9,-53.3
4.74,0.25,0.25,0.25,1.0,1.25,0.75,1.5,0.5,0.25,2.0,1.0,2.0,1.5,-0.42,-1.3,-0.17,157.21,0.9,-33.1,0.0,0.0,0.0,0.0,0.25,0.0,0.0,0.0,0.0,0.5,0.0,0.0,0.75,0.14,-0.92,0.45,27.1,12.4,-68.5
4.76,0.0,0.0,0.5,0.75,1.75,0.25,1.5,0.25,0.25,1.5,0.5,2.0,1.5,-0.42,-1.17,-0.11,158.23,2.0,-33.4,0.0,0.0,0.25,0.25,0.25,0.0,0.0,0.0,0.0,0.5,0.0,0.0,0.5,0.2,-0.86,0.39,24.9,0.8,-26.3
4.78,0.5,0.25,0.75,1.0,0.5,0.5,1.75,0.75,0.25,1.75,0.5,2.0,1.25,-0.42,-1.05,0.02,160.1,4.5,-29.0,0.0,0.0,0.0,0.5,0.25,0.0,0.0,0.0,0.0,0.5,0.0,0.0,0.75,0.14,-0.86,0.27,25.56,4.9,-36.8
4.8,0.5,0.0,0.5,0.5,0.0,0.25,1.75,0.75,0.25,1.5,0.75,2.0,1.25,-0.3,-0.86,0.08,152.48,4.5,-47.1,0.0,0.0,0.0,0.25,0.25,0.0,0.0,0.0,0.0,0.5,0.0,0.0,0.5,0.08,-0.8,0.2,24.16,7.2,-40.6
4.82,0.25,0.0,0.25,0.25,1.75,0.25,1.5,0.5,0.25,1.5,0.75,2.0,1.5,-0.23,-0.73,0.02,150.29,0.8,-38.6,0.0,0.0,0.0,0.0,0.25,0.0,0.25,0.0,0.0,0.5,0.0,0.0,0.75,0.08,-0.73,0.2,24.38,9.2,-61.7
4.84,0.5,0.5,0.75,1.0,0.0,0.25,1.5,0.5,0.25,1.5,0.5,2.0,1.25,-0.05,-0.36,-0.11,145.16,6.6,-31.3,0.0,0.0,0.0,0.25,0.25,0.0,0.0,0.0,0.0,0.5,0.0,0.0,0.75,0.08,-0.67,0.27,25.84,8.1,-50.4
4.86,0.25,0.0,0.25,1.0,0.0,0.25,1.25,0.5,0.25,1.5,1.0,2.0,1.5,0.02,-0.23,-0.17,143.21,3.0,-52.6,0.0,0.0,0.0,0.25,0.25,0.25,0.0,0.0,0.0,0.5,0.0,0.0,0.5,0.08,-0.61,0.14,26.78,9.2,-30.8
4.88,0.25,0.25,0.25,1.0,1.75,0.5,1.75,0.0,0.25,1.5,1.25,2.0,1.5,0.02,-0.11,-0.23,148.54,3.2,-28.4,0.0,0.0,0.0,0.5,0.25,0.0,0.0,0.0,0.0,0.5,0.0,0.0,0.5,0.14,-0.55,0.02,26.87,3.7,-26.5
4.9,0.5,0.0,0.5,0.75,1.75,0.25,1.75,0.25,0.25,1.5,0.5,2.0,1.0,0.02,-0.05,-0.42,150.22,4.6,-23.0,0.0,0.0,0.0,0.5,0.25,0.0,0.0,0.0,0.0,0.5,0.0,0.0,0.75,0.14,-0.42,-0.05,28.71,4.9,-36.8
4.92,0.25,0.25,0.5,1.0,0.5,0.5,1.75,0.75,0.25,1.5,0.5,2.0,1.25,0.02,0.02,-0.48,150.33,3.5,-33.1,0.0,0.0,0.0,0.0,0.25,0.0,0.0,0.0,0.0,0.5,0.0,0.0,0.5,0.14,-0.3,-0.17,26.81,12.1,-60.4
4.94,0.5,0.0,0.25,1.0,0.75,0.25,1.5,0.25,0.25,1.5,1.0,2.0,1.25,0.02,0.08,-0.55,147.7,4.5,-37.5,0.0,0.0,0.0,0.0,0.25,0.0,0.0,0.0,0.0,0.5,0.0,0.0,0.5,0.02,-0.17,-0.23,24.57,12.1,-60.4
4.96,0.25,0.0,0.25,1.0,0.0,0.25,1.75,0.0,0.25,1.75,0.75,2.0,1.0,0.02,0.08,-0.61,139.6,5.3,-47.6,0.0,0.0,0.0,0.5,0.25,0.0,0.25,0.0,0.0,0.5,0.0,0.0,0.5,-0.11,-0.11,-0.3,25.37,1.5,-23.2
4.98,0.25,0.0,0.25,0.5,0.75,0.25,1.75,0.5,0.25,1.75,0.25,2.0,1.0,-0.05,0.08,-0.8,133.09,2.2,-41.8,0.0,0.0,0.0,0.0,0.25,0.0,0.25,0.0,0.0,0.5,0.0,0.0,0.75,-0.23,0.02,-0.42,26.47,9.2,-61.7
5.0,0.5,0.0,1.0,1.25,0.0,0.25,1.75,0.75,0.25,1.5,0.75,2.0,1.25,-0.11,0.02,-0.86,136.86,7.2,-33.8,0.0,0.0,0.0,0.25,0.25,0.0,0.0,0.0,0.0,0.5,0.0,0.25,0.5,-0.3,0.08,-0.48,27.85,5.0,-50.1
5.02,0.5,0.25,0.25,0.75,0.75,0.25,1.75,0.25,0.25,1.5,1.0,2.0,1.25,-0.11,0.02,-0.98,139.94,4.7,-35.7,0.0,0.0,0.25,0.0,0.25,0.0,0.25,0.0,0.0,0.25,0.0,0.25,0.5,-0.36,0.08,-0.61,27.92,-2.3,-40.6
5.04,0.5,0.25,0.25,1.0,0.0,0.25,1.75,0.25,0.25,1.5,0.25,2.0,1.25,-0.05,0.02,-1.05,137.83,5.4,-38.5,0.0,0.0,0.5,0.25,0.25,0.0,0.0,0.0,0.0,0.5,0.0,0.0,0.5,-0.36,0.14,-0.67,30.03,-4.0,-15.5
5.06,0.5,0.25,0.25,1.0,0.0,0.25,1.75,0.5,0.25,1.5,0.0,2.0,1.25,0.02,0.02,-1.05,133.19,4.6,-37.4,0.0,0.25,0.25,0.5,0.25,0.0,0.25,0.0,0.0,0.25,0.25,0.0,0.75,-0.42,0.14,-0.8,34.28,-4.8,-11.6
5.08,0.5,0.25,0.25,0.5,0.0,0.5,1.25,0.25,0.25,1.5,0.75,2.0,1.0,0.08,0.02,-1.05,128.1,4.0,-44.3,0.0,0.25,0.0,0.25,0.25,0.0,0.25,0.0,0.0,0.25,0.0,0.0,0.5,-0.42,0.08,-0.92,33.5,0.1,-9.4
5.1,0.25,0.0,0.5,1.0,1.25,0.25,1.5,0.5,0.25,1.5,1.25,2.0,1.25,0.08,-0.05,-1.11,135.2,3.9,-34.1,0.0,0.0,0.0,0.25,0.25,0.0,0.25,0.0,0.0,1.5,0.0,0.75,0.5,-0.42,0.08,-1.11,42.99,4.8,-63.4
5.12,0.25,0.0,0.5,1.0,1.25,0.25,1.75,0.0,0.25,1.5,0.75,2.0,0.75,0.14,-0.05,-1.11,136.1,5.9,-26.9,1.25,0.75,1.75,0.75,2.5,1.25,0.5,0.5,0.5,1.75,0.25,1.0,1.5,-0.42,0.02,-1.17,106.85,-4.5,5.5
5.14,0.75,0.0,0.25,1.25,1.25,0.5,1.75,0.75,0.25,1.5,0.25,2.0,1.5,0.08,-0.11,-1.11,148.21,3.0,-24.9,1.25,0.75,1.75,0.5,2.5,1.25,0.5,0.75,0.5,2.0,0.25,1.0,1.5,-0.42,0.02,-1.23,163.06,-3.5,2.4
5.16,0.5,0.0,0.5,1.0,1.25,0.25,1.75,0.0,0.25,1.5,0.5,2.0,1.25,0.08,-0.17,-1.11,148.67,5.5,-27.1,1.25,0.75,1.75,0.5,1.0,1.0,0.5,1.0,0.5,2.25,0.25,0.75,1.5,-0.42,-0.05,-1.3,200.09,-4.1,-5.1
5.18,0.25,0.0,0.25,0.75,0.75,0.25,1.75,0.25,0.25,1.5,0.5,2.0,1.0,0.08,-0.23,-1.11,145.14,3.9,-38.8,1.0,1.0,1.75,1.25,2.5,1.5,0.5,0.75,0.5,1.75,0.25,1.0,1.25,-0.36,-0.11,-1.23,225.49,-4.1,9.2
5.2,0.25,0.0,0.25,0.75,0.75,0.25,1.75,0.0,0.25,1.5,1.0,2.0,1.0,0.02,-0.23,-1.05,139.51,4.9,-40.8,1.25,0.75,1.75,0.75,2.5,1.0,0.5,0.5,0.5,2.0,0.25,1.0,1.25,-0.36,-0.17,-1.17,233.63,-4.9,5.7
5.22,0.0,0.0,0.5,1.0,0.5,0.25,1.75,0.5,0.25,1.5,1.25,2.0,1.25,0.02,-0.23,-0.98,140.6,4.1,-44.1,1.25,0.75,1.75,0.5,2.5,1.0,0.5,1.0,0.5,2.5,0.25,1.0,1.5,-0.36,-0.3,-1.11,238.5,-3.0,-1.2
5.24,0.0,0.0,0.25,1.0,1.25,0.25,1.75,0.0,0.25,1.5,0.75,2.0,1.0,0.02,-0.3,-0.92,138.87,3.8,-34.8,1.0,0.75,1.75,0.5,2.5,1.0,0.5,0.5,0.25,2.0,0.25,1.0,1.5,-0.36,-0.36,-1.11,234.83,-3.7,1.8
5.26,0.5,0.25,1.0,1.0,0.0,0.5,1.75,0.0,0.25,1.5,0.75,2.0,1.25,0.02,-0.36,-0.86,141.57,8.1,-30.8,1.25,0.75,1.75,0.75,2.5,1.0,0.5,0.75,0.25,2.0,0.5,1.0,1.5,-0.36,-0.42,-0.98,236.31,-4.2,2.3
5.28,0.0,0.25,0.25,1.0,1.25,0.25,1.75,0.25,0.25,1.5,1.25,2.0,1.0,0.08,-0.36,-0.73,145.36,3.8,-33.4,1.0,0.75,1.75,0.5,2.5,1.0,0.5,0.25,0.5,1.75,0.25,1.0,1.5,-0.36,-0.48,-0.86,227.31,-4.6,3.2
5.3,0.5,0.0,0.5,1.0,0.5,0.5,1.75,0.5,0.25,1.5,1.25,2.0,1.0,0.02,-0.36,-0.73,148.16,5.4,-34.3,0.0,0.25,1.75,0.25,2.5,0.0,0.5,0.5,0.0,0.5,0.0,0.0,0.5,-0.36,-0.55,-0.8,193.38,-7.4,28.4
5.32,0.5,0.0,0.25,1.0,1.75,0.25,1.75,0.0,0.25,1.5,0.5,2.0,0.75,-0.05,-0.36,-0.73,146.86,5.1,-20.3,1.0,0.75,0.0,0.5,0.25,1.0,0.0,0.0,0.25,2.0,0.0,0.75,0.75,-0.36,-0.55,-0.73,156.73,0.4,-11.2
5.34,0.25,0.0,0.5,1.0,1.25,0.25,1.5,0.0,0.25,1.5,0.75,2.0,0.75,0.02,-0.36,-0.67,142.67,5.6,-27.6,1.25,0.75,1.25,1.0,1.25,1.25,0.75,0.25,0.0,1.75,0.25,1.0,1.5,-0.36,-0.55,-0.67,144.03,-4.6,1.5
5.36,0.5,0.0,0.0,1.25,0.75,0.25,1.75,0.25,0.25,1.5,1.0,2.0,1.0,0.02,-0.42,-0.55,141.92,4.8,-34.8,1.25,0.75,1.75,0.75,2.75,1.25,0.5,0.5,0.25,2.25,0.25,1.0,1.5,-0.36,-0.61,-0.55,156.58,-3.5,4.5
5.38,0.0,0.0,0.25,1.0,0.5,0.25,1.75,0.0,0.25,1.5,0.5,2.0,0.75,-0.05,-0.48,-0.48,132.66,4.9,-40.7,1.25,0.75,1.75,0.5,2.5,1.0,0.5,0.5,0.25,1.75,0.25,1.0,1.25,-0.36,-0.67,-0.55,175.37,-4.9,7.0
5.4,0.25,0.0,0.5,1.0,0.75,0.25,1.75,0.0,0.25,1.5,0.5,2.0,0.75,-0.11,-0.55,-0.42,129.69,6.4,-30.9,1.25,0.75,1.75,0.75,2.25,1.0,0.5,0.75,0.25,2.0,0.25,1.0,1.5,-0.42,-0.73,-0.42,192.96,-4.2,2.6
5.42,0.0,0.0,0.5,1.0,1.75,0.25,1.75,0.5,0.25,1.5,0.5,2.0,1.25,-0.17,-0.55,-0.36,134.99,2.7,-28.7,1.0,0.75,1.75,0.75,2.25,1.0,0.5,0.25,0.5,2.0,0.25,1.0,1.25,-0.48,-0.73,-0.23,195.57,-4.9,3.9
5.44,0.0,0.25,0.5,1.0,1.25,0.25,1.5,0.0,0.25,1.5,0.5,2.0,0.75,-0.11,-0.55,-0.36,134.87,4.9,-26.0,1.25,0.75,1.75,0.75,2.5,0.75,0.5,0.25,0.5,2.0,0.25,1.0,1.5,-0.48,-0.73,-0.17,198.32,-5.4,3.9
5.46,0.0,0.0,0.5,1.25,0.5,0.25,1.75,0.0,0.25,1.5,0.5,2.0,1.25,-0.11,-0.55,-0.36,134.96,5.2,-38.9,1.0,0.75,1.75,0.75,2.5,0.75,0.5,0.0,0.25,1.75,0.25,1.0,1.5,-0.48,-0.73,-0.11,195.23,-5.6,5.4
5.48,0.25,0.0,0.25,1.0,1.25,0.25,1.5,0.0,0.25,1.5,0.5,2.0,1.0,-0.17,-0.48,-0.36,133.93,4.0,-31.1,1.25,0.75,1.75,0.5,2.5,1.0,0.5,0.25,0.25,2.0,0.25,1.0,1.5,-0.42,-0.67,-0.05,199.04,-4.6,4.1
5.5,0.5,0.0,0.25,1.0,0.75,0.25,1.75,0.5,0.25,1.5,0.0,2.0,1.25,-0.17,-0.48,-0.23,133.15,3.7,-32.7,1.25,1.0,1.75,1.0,1.75,1.0,0.5,0.25,0.25,2.5,0.25,1.0,1.25,-0.36,-0.61,0.02,201.18,-5.3,4.1
5.52,0.25,0.25,0.25,1.25,0.75,0.75,1.5,0.5,0.25,1.5,0.5,2.0,1.0,-0.17,-0.42,-0.17,135.51,2.7,-27.7,1.25,0.75,1.5,0.5,1.75,1.0,0.5,0.25,0.25,2.0,0.25,1.0,1.5,-0.3,-0.67,-0.05,199.35,-4.4,-0.3
5.54,0.5,0.0,0.5,1.0,1.25,0.25,1.75,0.5,0.25,1.5,0.75,2.0,0.5,-0.23,-0.48,0.02,139.87,6.0,-22.5,0.0,0.0,0.25,0.5,0.25,0.0,0.0,0.0,0.0,0.5,0.0,0.0,0.5,-0.23,-0.67,0.02,148.75,-1.4,-15.7
5.56,0.5,0.0,0.25,1.0,1.25,0.25,1.5,0.0,0.25,1.5,0.75,2.0,1.0,-0.42,-0.61,0.08,142.2,4.9,-29.1,1.0,0.75,0.0,0.5,0.25,1.0,0.0,0.0,0.25,2.25,0.0,1.0,0.5,-0.3,-0.73,0.02,118.16,0.2,-13.2
5.58,0.5,0.0,0.25,1.0,1.25,0.25,2.0,0.5,0.25,1.5,0.0,2.0,1.0,-0.48,-0.8,0.2,142.31,4.1,-24.7,1.25,0.75,1.75,0.5,2.5,1.0,0.5,0.25,0.25,2.0,0.25,1.0,1.5,-0.42,-0.8,0.08,121.45,-4.6,4.1
5.6,0.25,0.0,0.25,1.0,1.25,0.25,1.5,0.25,0.25,1.75,0.5,2.0,0.5,-0.61,-1.05,0.2,139.17,3.9,-28.1,1.25,0.75,1.75,0.5,2.25,1.0,0.5,0.25,0.25,2.25,0.25,1.0,1.5,-0.42,-0.8,0.2,146.88,-4.4,1.6
5.62,0.25,0.0,0.25,1.0,1.25,0.25,1.5,0.0,0.25,1.5,0.5,2.0,1.0,-0.61,-1.23,0.27,137.12,4.0,-31.1,1.25,0.75,1.75,0.75,2.75,1.0,0.5,0.25,0.25,2.0,0.25,1.0,1.5,-0.36,-0.86,0.2,176.39,-4.6,6.1
5.64,0.5,0.0,0.5,0.5,1.25,0.5,1.5,0.25,0.25,1.5,0.5,2.0,0.75,-0.61,-1.36,0.33,134.61,4.2,-26.8,1.25,0.75,1.75,0.5,2.25,1.0,0.5,0.25,0.25,1.75,0.25,0.75,1.25,-0.3,-0.86,0.14,189.2,-5.4,9.2
5.66,0.5,0.0,0.25,0.75,2.25,0.25,1.75,0.5,0.25,1.5,0.5,2.0,0.75,-0.61,-1.42,0.39,140.41,3.3,-19.1,1.25,0.75,1.75,0.5,2.5,1.25,0.5,0.25,0.25,2.0,0.25,1.0,1.75,-0.3,-0.86,0.2,197.9,-3.8,2.6
5.68,0.25,0.0,0.25,1.0,0.5,0.25,1.5,0.0,0.25,1.5,0.75,2.0,1.0,-0.55,-1.36,0.39,138.67,5.0,-41.0,0.75,0.75,1.75,0.75,1.75,1.0,0.5,0.0,0.25,1.75,0.25,1.0,1.25,-0.23,-0.86,0.39,188.98,-5.5,3.1
5.7,0.0,0.25,0.5,1.0,1.75,0.25,1.5,0.25,0.25,1.5,0.0,2.0,0.75,-0.48,-1.17,0.33,139.65,3.6,-19.0,1.25,0.75,1.75,0.5,2.5,1.0,0.5,0.0,0.25,2.0,0.25,1.0,1.25,-0.17,-0.8,0.39,192.14,-5.3,7.2
5.72,0.5,0.25,0.25,0.75,1.25,0.25,1.5,0.25,0.25,1.5,0.5,2.0,1.25,-0.61,-1.17,0.27,139.37,3.6,-29.3,1.25,0.75,1.75,0.5,2.5,1.0,0.5,0.0,0.25,1.75,0.25,1.0,1.25,-0.17,-0.8,0.33,192.1,-5.7,8.8
5.74,0.0,0.5,0.5,1.0,1.75,0.25,1.5,0.25,0.25,1.5,1.25,2.0,0.5,-0.67,-1.17,0.33,145.1,5.0,-20.3,1.25,0.75,1.75,0.5,2.25,1.0,0.5,0.0,0.25,1.75,0.25,1.0,1.25,-0.17,-0.8,0.39,194.52,-6.0,7.8
5.76,0.0,0.0,0.25,1.0,2.5,0.25,1.5,0.25,0.25,1.5,0.75,2.0,1.0,-0.61,-1.17,0.39,149.77,2.0,-23.8,1.25,0.75,1.75,0.75,2.25,1.0,0.5,0.0,0.25,2.0,0.25,1.0,1.25,-0.17,-0.8,0.39,197.66,-5.8,7.2
5.78,0.5,0.0,0.25,1.25,1.25,0.25,1.25,0.0,0.25,1.5,0.5,2.0,0.5,-0.67,-1.17,0.39,147.11,5.8,-21.5,1.0,0.75,1.75,0.75,2.5,1.0,0.5,0.0,0.25,2.0,0.25,1.0,1.5,-0.23,-0.92,0.33,201.74,-4.7,4.4
5.8,0.5,0.25,0.5,1.0,1.25,0.25,1.5,0.5,0.25,1.5,0.75,2.0,1.25,-0.73,-1.23,0.33,150.46,4.5,-26.3,1.0,0.75,1.75,0.5,2.25,1.0,0.5,0.0,0.25,3.0,0.25,0.75,1.5,-0.23,-0.92,0.39,196.45,-3.0,-1.4
5.82,0.0,0.25,0.5,0.5,1.25,0.25,1.5,0.25,0.25,1.5,0.75,2.0,0.75,-0.67,-1.23,0.33,144.51,3.8,-32.4,1.25,0.75,1.75,0.75,2.5,1.0,0.5,0.0,0.0,2.5,0.25,1.0,1.75,-0.23,-0.98,0.58,196.19,-4.0,1.8
5.84,0.5,0.0,0.25,1.0,1.25,0.5,1.25,0.0,0.25,1.5,0.0,2.0,1.0,-0.61,-1.23,0.33,140.41,3.4,-24.5,1.25,0.75,1.75,0.75,2.5,1.0,0.5,0.0,0.25,1.75,0.25,1.0,1.5,-0.23,-1.05,0.64,197.59,-5.6,7.5
5.86,0.25,0.0,0.25,1.0,1.25,0.5,1.5,0.25,0.25,1.5,0.5,2.0,0.25,-0.48,-1.23,0.33,133.88,4.3,-22.8,1.0,0.75,1.75,0.75,2.5,1.0,0.5,0.0,0.25,2.0,0.25,1.0,1.25,-0.17,-1.11,0.64,196.8,-5.0,6.6
5.88,0.0,0.0,0.5,1.0,1.25,0.25,1.5,0.5,0.25,1.5,0.75,2.0,1.0,-0.42,-1.17,0.27,135.96,3.3,-33.2,1.25,0.75,1.75,0.5,2.5,1.0,0.5,0.0,0.25,2.0,0.25,1.0,1.25,-0.05,-1.05,0.52,195.46,-5.3,7.2
5.9,0.5,0.0,0.25,1.0,1.25,0.25,1.25,0.0,0.25,1.5,0.5,2.0,0.5,-0.42,-1.17,0.2,131.77,5.5,-23.9,1.25,0.75,1.75,0.5,2.75,1.0,0.5,0.0,0.25,2.0,0.25,1.0,1.25,0.02,-1.05,0.52,195.02,-5.1,8.2
5.92,0.25,0.0,0.25,1.0,1.75,0.25,1.25,0.0,0.25,1.5,0.5,2.0,1.0,-0.42,-1.17,0.2,134.6,3.2,-26.8,1.0,0.75,1.75,0.75,2.5,1.0,0.5,0.0,0.25,2.0,0.25,1.0,1.25,-0.05,-1.05,0.64,194.8,-5.0,6.6
5.94,0.25,0.0,0.5,1.0,1.25,0.25,1.5,0.25,0.25,1.5,0.5,2.0,1.0,-0.36,-1.11,0.27,134.73,4.4,-28.9,1.25,0.75,1.75,0.75,2.5,1.0,0.5,0.0,0.25,1.75,0.25,0.75,1.5,-0.05,-1.05,0.7,193.72,-5.5,9.7
5.96,0.5,0.5,0.25,1.0,0.75,0.25,1.25,0.0,0.25,1.5,0.75,2.0,1.0,-0.36,-1.05,0.33,135.19,5.5,-27.9,0.75,1.0,1.75,0.5,2.5,0.75,0.5,0.0,0.25,2.0,0.25,1.0,1.5,0.08,-0.98,0.64,191.85,-4.5,2.9
5.98,0.0,0.25,0.25,1.0,1.25,0.25,1.25,0.25,0.25,1.5,1.0,2.0,0.5,-0.3,-0.98,0.39,134.2,3.9,-29.7,1.25,0.75,1.75,0.5,2.5,1.0,0.5,0.0,0.25,2.0,0.25,1.0,1.25,0.02,-0.92,0.64,191.19,-5.3,7.2
6.0,0.5,0.25,0.25,1.0,1.75,0.25,1.25,0.25,0.25,1.5,0.5,2.0,1.0,-0.42,-0.98,0.39,139.74,3.7,-21.1,1.0,0.75,1.75,0.5,2.5,1.0,0.5,0.0,0.25,2.0,0.25,1.0,1.5,0.02,-0.92,0.45,189.91,-4.4,3.3
6.02,0.5,0.0,0.25,0.5,1.75,0.25,1.25,0.25,0.25,1.5,0.5,2.0,1.0,-0.55,-1.17,0.45,140.96,2.7,-28.7,1.0,0.75,1.75,0.75,2.5,1.0,0.5,0.0,0.25,1.75,0.25,1.0,1.25,0.14,-0.92,0.33,189.24,-5.4,8.2
6.04,0.0,0.0,0.25,0.5,0.75,0.25,1.25,0.5,0.25,1.5,0.75,2.0,0.5,-0.55,-1.23,0.45,134.85,2.4,-44.6,1.25,0.75,1.75,0.5,2.5,1.0,0.5,0.0,0.25,2.0,0.25,1.0,1.25,0.2,-0.98,0.45,189.5,-5.3,7.2
6.06,0.0,0.0,0.25,0.0,2.25,0.25,1.25,0.25,0.25,1.5,0.75,2.0,0.5,-0.55,-1.36,0.39,132.57,1.0,-31.6,1.0,0.75,1.75,0.75,2.25,1.0,0.5,0.0,0.25,1.75,0.25,1.0,1.25,0.2,-1.05,0.58,187.65,-5.6,7.2
6.08,0.0,0.25,0.25,0.0,1.75,0.0,1.25,0.25,0.0,1.5,1.0,2.0,0.5,-0.55,-1.36,0.33,127.61,2.2,-36.4,1.0,0.75,1.75,0.5,2.25,1.0,0.5,0.0,0.25,1.75,0.25,1.0,1.25,0.14,-1.05,0.52,185.3,-5.4,6.1
6.1,0.5,0.0,0.25,0.75,1.75,0.25,1.25,0.25,0.25,1.5,0.75,2.0,1.0,-0.61,-1.11,0.27,131.76,3.3,-27.6,1.25,0.75,1.75,0.5,1.75,1.25,0.5,0.0,0.25,1.75,0.25,1.0,1.25,0.14,-0.98,0.45,182.04,-5.8,6.1
6.12,0.5,0.0,0.25,0.5,1.75,0.25,1.25,0.5,0.25,1.5,0.75,2.0,0.5,-0.61,-0.92,0.39,133.79,3.3,-25.8,1.25,0.75,1.75,0.5,2.75,1.0,0.5,0.0,0.25,3.0,0.25,1.0,1.25,0.27,-0.86,0.33,189.09,-3.7,2.4
6.14,0.5,0.0,0.25,0.5,1.25,0.25,1.25,0.25,0.25,1.5,0.5,2.0,1.5,-0.73,-0.86,0.33,139.07,2.2,-38.0,1.0,0.75,1.75,0.5,2.5,1.25,0.5,0.0,0.0,3.0,0.25,1.0,1.25,0.39,-0.98,0.33,193.74,-2.7,1.0
6.16,0.0,0.0,0.25,0.5,1.75,0.25,1.25,0.25,0.25,1.5,1.25,2.0,0.5,-0.73,-0.86,0.27,138.42,2.6,-34.2,1.25,0.75,1.5,0.5,2.75,1.0,0.5,0.0,0.25,1.75,0.25,1.0,1.25,0.64,-0.98,0.58,195.59,-4.9,8.8
6.18,0.0,0.25,0.25,0.5,1.25,0.25,1.25,0.0,0.25,1.5,0.5,2.0,0.75,-0.67,-0.73,0.14,133.67,2.7,-34.7,1.0,0.75,1.75,0.75,2.75,0.75,0.5,0.0,0.25,1.75,0.25,1.0,1.25,0.83,-0.98,0.89,194.32,-5.8,8.7
6.2,0.25,0.0,0.25,0.5,1.25,0.25,1.25,0.25,0.25,1.5,0.5,2.0,1.0,-0.48,-0.48,-0.05,130.89,2.3,-37.5,1.0,0.75,1.75,0.5,2.75,1.0,0.5,0.0,0.25,2.0,0.25,1.0,1.25,0.83,-0.98,0.89,193.31,-4.6,6.6
6.22,0.25,0.25,0.25,1.0,1.75,0.25,1.25,0.0,0.25,1.5,0.25,2.0,1.0,-0.42,-0.23,-0.05,132.14,3.3,-22.2,1.0,0.75,1.75,0.5,3.0,0.75,0.5,0.0,0.25,2.0,0.25,1.0,1.25,0.83,-0.98,0.7,192.42,-4.9,7.2
6.24,0.0,0.0,0.25,0.5,1.25,0.25,1.25,0.25,0.25,1.5,1.0,2.0,0.5,-0.42,-0.11,0.02,130.87,2.8,-38.9,1.25,0.75,1.75,0.5,2.5,1.0,0.5,0.0,0.25,1.75,0.25,1.0,1.25,0.83,-1.05,0.45,191.56,-5.7,8.8
6.26,0.0,0.0,0.25,0.75,0.75,0.25,1.25,0.5,0.25,1.5,0.5,2.0,1.0,-0.42,0.14,0.14,131.11,1.6,-44.5,1.0,0.75,1.75,0.5,2.75,1.0,0.5,0.0,0.25,2.0,0.25,1.0,1.25,0.77,-1.05,0.33,192.38,-4.6,6.6
6.28,0.25,0.0,0.25,0.75,1.75,0.25,1.25,0.25,0.25,1.5,1.0,2.0,0.75,-0.48,0.2,0.14,134.8,3.2,-29.6,1.0,0.75,1.75,0.5,2.5,1.0,0.5,0.0,0.25,1.75,0.25,1.0,1.25,0.52,-0.92,0.39,189.99,-5.2,7.2
6.3,0.5,0.0,0.25,1.0,2.25,0.25,1.25,0.25,0.25,1.5,0.75,2.0,0.75,-0.61,0.08,0.14,141.65,3.7,-19.1,1.0,0.75,1.75,0.75,2.5,1.0,0.5,0.0,0.0,3.0,0.25,1.0,1.25,0.27,-0.67,0.45,193.28,-3.4,1.5
6.32,0.5,0.25,0.25,1.0,2.25,0.25,1.25,0.0,0.25,1.5,0.5,2.0,1.25,-0.73,-0.3,0.2,149.64,3.4,-18.9,1.25,0.75,1.75,0.5,2.75,1.0,0.5,0.0,0.25,1.75,0.25,1.0,1.25,0.02,-0.36,0.45,193.32,-5.5,9.8
6.34,0.0,0.5,0.25,0.5,1.25,0.25,1.25,0.0,0.25,1.5,0.5,2.0,1.0,-0.98,-0.86,0.39,146.11,2.5,-33.0,1.25,0.75,1.75,0.5,2.5,1.0,0.5,0.0,0.25,1.75,0.25,0.75,1.25,0.02,-0.05,0.39,191.66,-5.7,11.2
6.36,0.25,0.0,0.25,1.0,1.75,0.25,1.0,0.0,0.25,1.5,0.75,2.0,0.75,-1.11,-1.23,0.83,144.07,3.5,-26.4,1.25,0.75,1.75,0.75,2.75,1.0,0.5,0.0,0.25,2.0,0.25,1.0,1.25,-0.05,0.2,0.33,192.69,-5.4,9.2
6.38,0.5,0.0,0.25,0.0,1.25,0.25,1.0,0.0,0.25,1.5,0.25,2.0,1.0,-0.92,-1.11,0.52,133.36,2.1,-39.6,1.0,0.0,1.75,0.75,2.75,1.0,0.5,0.0,0.25,2.0,0.25,0.75,1.25,0.02,0.33,0.52,189.72,-4.3,4.3
