time,left pressure 0[N/cm虏],left pressure 1[N/cm虏],left pressure 2[N/cm虏],left pressure 3[N/cm虏],left pressure 4[N/cm虏],left pressure 5[N/cm虏],left pressure 6[N/cm虏],left pressure 7[N/cm虏],left pressure 8[N/cm虏],left pressure 9[N/cm虏],left pressure 10[N/cm虏],left pressure 11[N/cm虏],left pressure 12[N/cm虏],left acceleration X[g],left acceleration Y[g],left acceleration Z[g],left total force[N],left center of pressure X[mm],left center of pressure Y[mm],right pressure 0[N/cm虏],right pressure 1[N/cm虏],right pressure 2[N/cm虏],right pressure 3[N/cm虏],right pressure 4[N/cm虏],right pressure 5[N/cm虏],right pressure 6[N/cm虏],right pressure 7[N/cm虏],right pressure 8[N/cm虏],right pressure 9[N/cm虏],right pressure 10[N/cm虏],right pressure 11[N/cm虏],right pressure 12[N/cm虏],right acceleration X[g],right acceleration Y[g],right acceleration Z[g],right total force[N],right center of pressure X[mm],right center of pressure Y[mm]
0.02,1.0,0.25,1.0,1.75,0.75,2.75,2.0,1.25,0.5,1.0,1.5,2.25,3.0,-0.92,-0.36,2.08,235.57,2.1,-21.7,2.5,1.25,0.5,0.75,4.75,0.0,1.0,1.5,0.75,0.0,2.5,0.5,1.25,0.14,-0.48,0.52,132.83,-7.2,15.8
0.04,0.5,0.5,0.5,1.75,0.75,2.75,2.0,1.5,0.5,1.75,2.0,5.0,5.25,0.14,-0.11,2.08,266.62,-0.5,-46.2,1.5,0.0,0.0,0.75,1.25,1.25,0.5,0.25,0.75,0.5,1.25,0.25,0.0,0.02,-0.36,0.33,126.31,-6.3,14.0
0.06,0.75,0.25,1.25,1.75,0.5,3.0,2.0,1.0,1.0,2.75,2.5,5.75,6.25,0.45,0.08,1.52,313.15,0.4,-49.3,1.25,1.5,0.5,2.0,3.0,2.5,1.0,1.75,1.0,2.25,2.0,1.0,1.0,-0.11,-0.3,0.45,156.81,-1.4,2.6
0.08,0.25,0.0,2.25,0.25,0.75,1.75,2.0,3.0,1.0,1.25,1.75,6.75,6.0,-0.42,0.08,1.14,360.95,1.0,-56.8,3.0,1.75,0.5,2.0,2.5,1.5,1.0,1.75,1.0,2.25,2.0,1.25,1.0,-0.11,-0.3,0.7,183.95,-5.4,7.0
0.1,1.25,0.5,1.0,2.75,0.0,3.25,1.25,3.25,1.0,3.5,3.0,7.0,7.25,-0.17,0.52,1.64,433.19,-0.6,-50.0,2.0,1.5,0.5,1.5,2.25,1.0,1.0,1.5,1.0,0.5,2.0,1.0,1.25,0.02,-0.3,0.83,210.15,-6.4,6.7
0.12,1.5,0.25,2.25,3.0,0.75,3.5,0.75,3.5,1.5,3.5,3.75,7.5,7.75,-0.05,-0.11,1.08,511.87,0.7,-45.2,2.0,1.5,0.5,1.25,3.0,1.0,1.0,1.75,0.75,2.25,2.0,1.0,1.0,0.08,-0.17,0.95,231.09,-3.6,2.0
0.14,1.25,0.5,2.25,2.75,0.5,4.0,1.0,3.25,2.0,5.0,4.0,7.5,7.75,-0.11,0.02,0.95,583.72,0.0,-46.6,2.0,1.5,0.5,1.25,3.0,1.25,1.0,1.5,1.0,2.25,1.5,1.0,1.25,0.08,-0.05,1.08,252.92,-3.3,2.9
0.16,1.0,0.5,2.25,2.75,0.75,4.0,1.5,3.25,2.25,5.75,4.75,7.5,8.0,-0.17,0.02,0.95,647.63,0.0,-47.6,1.5,1.5,0.5,1.25,2.75,1.0,1.0,1.5,0.75,2.25,2.0,1.0,1.0,0.08,0.02,1.2,258.71,-3.2,-0.6
0.18,1.0,0.5,2.25,3.0,1.25,4.5,1.5,3.75,2.75,5.5,5.0,8.25,8.25,-0.11,-0.05,1.02,710.05,0.0,-46.0,2.0,1.5,0.5,1.25,3.0,0.0,1.0,1.5,0.75,0.5,1.5,1.0,1.25,0.14,0.2,1.39,250.38,-7.2,10.0
0.2,1.5,1.5,2.25,3.0,1.25,5.0,3.25,5.0,3.0,5.0,5.75,8.0,8.75,-0.11,-0.05,0.95,774.68,0.5,-40.2,1.25,1.5,0.5,1.5,3.0,1.25,0.75,1.25,0.75,0.5,2.0,1.0,1.25,0.27,0.33,1.7,244.37,-4.3,6.9
0.22,1.25,1.25,3.0,3.25,0.75,4.0,3.0,5.0,3.25,6.25,6.25,8.5,9.0,-0.11,-0.05,0.95,841.81,1.1,-44.1,2.25,1.25,0.5,1.0,3.0,1.25,0.5,1.5,0.75,0.5,1.5,1.0,1.25,0.33,0.64,2.08,233.66,-4.8,10.6
0.24,2.0,0.5,3.0,3.0,1.25,5.0,3.5,5.25,3.5,6.75,5.75,8.25,9.25,-0.11,-0.05,0.95,897.62,0.6,-42.1,1.5,1.5,0.5,1.0,3.5,1.0,0.5,1.5,0.75,1.5,1.5,1.0,1.5,0.45,1.2,2.27,231.54,-2.4,2.8
0.26,2.0,0.75,2.75,3.0,1.25,5.0,3.25,5.5,3.5,6.75,5.75,8.25,9.0,-0.11,-0.05,0.95,922.17,0.4,-41.7,2.0,1.5,0.5,1.0,3.0,0.75,0.75,1.5,0.75,0.75,2.0,1.0,1.5,0.45,2.2,2.27,237.67,-5.1,4.6
0.28,2.25,0.75,3.0,3.0,1.25,5.0,3.5,5.5,3.75,6.75,5.75,8.25,8.75,-0.11,-0.05,0.95,928.42,0.9,-40.2,1.75,1.5,0.5,1.0,3.0,1.25,0.75,1.5,0.75,1.25,1.5,1.0,1.5,0.52,2.89,1.77,240.95,-3.2,4.1
0.3,2.0,1.0,3.25,3.25,3.5,5.0,4.0,5.5,4.0,6.25,5.75,8.25,8.75,-0.11,-0.05,0.95,939.82,1.2,-34.5,1.5,1.5,0.25,1.0,2.75,1.0,0.75,0.75,0.75,2.25,1.5,1.0,1.5,0.33,3.64,0.45,230.4,-2.4,-2.2
0.32,2.0,1.0,3.5,3.25,3.0,5.0,4.0,5.5,4.25,6.5,5.75,8.0,8.25,-0.11,-0.05,0.95,941.48,1.5,-34.2,1.25,0.75,0.5,0.75,2.25,0.75,0.5,0.0,0.5,2.25,2.0,0.75,1.5,-0.55,4.58,-0.67,217.18,-3.1,-10.8
0.34,2.0,0.5,3.75,3.25,3.75,5.25,4.5,5.75,4.25,6.25,5.5,7.5,8.0,-0.11,-0.05,0.95,930.53,1.5,-31.8,2.25,1.5,0.5,1.0,2.25,2.0,0.5,0.0,1.0,3.5,2.25,1.75,1.75,-5.05,5.14,-0.86,231.71,-2.8,-9.6
0.36,2.25,0.5,3.5,3.0,3.75,5.25,4.5,5.75,4.75,5.75,5.75,7.5,7.75,-0.11,-0.05,0.95,916.26,1.7,-31.6,1.25,1.25,0.5,1.0,2.25,2.0,0.5,0.0,1.0,5.25,2.5,3.75,3.25,0.39,-0.8,1.08,259.28,0.2,-34.7
0.38,2.0,1.25,3.0,3.5,4.25,5.75,4.75,5.75,4.75,6.0,5.75,6.75,7.0,-0.11,-0.05,0.95,900.67,1.4,-27.1,1.0,0.25,0.5,0.0,2.5,0.75,0.5,0.0,1.0,5.25,4.5,4.0,3.75,-0.05,0.14,1.64,291.63,0.1,-53.8
0.4,2.75,1.75,3.75,3.25,4.5,6.0,5.25,6.0,5.0,5.75,5.75,6.75,7.0,-0.11,-0.05,0.95,905.34,2.3,-22.9,1.25,0.0,0.25,0.75,1.25,0.0,0.5,0.0,1.5,6.5,3.75,5.75,6.25,0.02,0.27,1.08,341.66,0.5,-68.6
0.42,3.25,1.75,4.25,3.25,5.25,6.5,5.25,6.0,5.0,5.0,5.75,5.75,6.25,-0.11,-0.05,0.95,915.03,2.9,-16.6,1.5,0.25,0.25,0.0,1.25,2.75,0.5,3.25,1.5,6.75,5.75,6.0,6.5,-0.17,0.2,1.14,420.32,3.2,-59.9
0.44,3.75,1.75,4.75,3.25,5.5,6.75,5.75,6.0,5.25,5.0,5.5,5.25,6.0,-0.11,-0.05,0.95,936.51,3.4,-13.1,1.75,0.5,0.25,0.0,1.25,2.75,1.25,3.25,1.5,6.75,5.75,6.0,6.25,0.02,0.02,1.02,493.73,2.4,-56.6
0.46,3.75,1.75,4.75,4.25,5.5,6.75,6.0,6.0,5.25,5.0,5.0,5.0,5.25,-0.11,-0.05,0.95,952.03,3.9,-9.7,1.25,0.5,0.5,0.75,1.25,1.5,1.0,3.5,2.0,6.75,5.75,6.0,6.5,0.2,0.02,0.89,551.92,1.6,-58.5
0.48,4.5,1.75,4.75,5.25,5.75,7.5,6.5,6.25,5.5,4.75,4.75,3.5,4.25,-0.11,-0.05,0.95,972.47,4.4,-2.1,1.25,1.0,0.25,2.75,1.25,5.0,1.25,3.75,3.0,7.75,6.0,6.5,6.25,0.14,0.02,0.89,628.82,2.1,-45.2
0.5,5.5,1.75,4.75,5.25,7.0,7.5,7.0,6.5,5.25,4.75,4.0,3.25,3.75,-0.11,-0.05,0.95,996.68,4.7,2.8,2.75,1.5,2.25,3.25,5.0,5.5,1.5,4.5,3.25,7.75,7.0,6.5,7.25,0.14,0.02,0.95,751.43,-0.2,-29.0
0.52,5.5,2.0,6.25,7.0,7.75,8.5,7.75,6.5,5.25,4.25,3.5,2.5,3.75,-0.11,-0.11,0.95,1052.86,5.6,9.7,2.75,1.5,2.75,3.25,5.0,5.75,2.25,5.0,3.75,7.75,7.25,6.0,7.5,0.08,0.02,0.95,868.95,-0.5,-27.7
0.54,7.0,2.75,6.25,8.0,9.25,9.0,8.25,6.5,4.5,2.75,3.0,2.0,3.0,-0.11,-0.05,1.02,1122.69,6.6,19.7,2.75,1.75,3.0,3.25,5.0,5.75,2.25,5.5,4.0,7.75,7.0,5.75,7.25,0.08,0.02,0.95,964.97,-0.6,-26.0
0.56,7.75,3.5,7.75,9.0,11.5,9.25,8.75,6.5,4.75,2.75,3.0,2.0,2.5,-0.11,-0.11,1.08,1245.83,7.6,24.5,3.0,1.5,3.0,3.25,5.25,6.0,2.75,5.5,4.0,6.75,6.25,5.25,6.25,0.14,0.02,0.95,999.2,-1.0,-21.5
0.58,8.75,3.5,7.75,11.0,11.5,9.5,8.75,6.25,4.25,2.5,2.75,2.0,2.25,-0.11,-0.05,1.08,1344.8,8.2,28.0,3.75,1.75,3.0,3.25,6.25,6.25,2.75,5.25,4.0,6.5,6.25,4.0,5.25,0.2,0.02,0.95,993.31,-1.5,-13.9
0.6,10.5,3.5,7.5,11.5,13.5,9.75,8.25,6.0,3.5,2.75,1.25,2.0,1.75,-0.11,0.02,1.39,1421.75,8.3,33.6,4.25,1.75,3.25,3.75,6.75,6.5,3.25,4.75,4.25,6.0,5.5,3.5,4.0,0.14,0.02,0.95,970.43,-2.6,-6.5
0.62,11.5,4.0,8.25,11.5,14.0,9.25,7.5,6.0,2.75,2.75,1.25,2.0,1.75,-0.23,0.08,1.27,1475.61,8.9,35.8,4.25,2.0,5.25,5.25,7.0,6.5,3.75,4.75,4.25,5.25,4.75,2.5,4.25,0.14,0.02,0.95,973.88,-4.4,1.5
0.64,12.5,3.5,8.75,9.25,13.0,8.5,6.25,5.75,2.0,2.5,1.75,1.75,1.75,-0.23,0.14,1.64,1476.78,9.6,36.6,4.5,2.5,5.5,5.5,7.5,7.0,4.0,4.5,4.0,5.25,4.5,2.5,3.0,0.14,0.02,0.95,979.35,-4.9,7.1
0.66,13.0,3.5,8.5,8.75,11.5,7.5,5.0,5.0,1.75,2.5,2.0,1.75,1.75,-0.42,0.2,1.95,1435.75,10.4,37.1,5.5,2.5,5.5,6.75,8.25,7.0,4.25,4.5,4.0,5.0,4.5,1.75,2.5,0.14,0.02,0.95,1002.25,-5.8,13.1
0.68,12.5,4.0,8.0,6.5,8.75,5.75,5.25,4.5,1.25,1.25,1.75,1.5,1.75,-0.8,0.52,2.33,1323.87,12.2,40.0,6.0,2.75,7.0,7.5,8.25,7.25,4.25,4.5,3.25,4.5,4.0,1.25,2.25,0.14,0.02,0.95,1030.7,-7.0,19.5
0.7,9.25,1.5,6.25,1.75,7.25,3.0,4.0,3.25,0.5,0.0,0.5,0.0,1.5,-0.8,0.33,2.33,1008.14,13.5,46.6,6.25,3.0,7.0,8.5,9.5,7.25,4.5,4.0,3.25,3.75,3.75,1.25,2.5,0.14,0.08,1.02,1063.16,-7.5,22.9
0.72,5.75,0.25,0.0,1.75,1.25,1.25,1.5,0.0,0.5,0.0,0.5,0.25,0.25,-0.86,0.14,2.14,576.5,18.2,55.6,7.0,3.25,8.0,9.25,9.5,7.25,4.25,3.75,3.0,3.75,2.75,1.25,2.25,0.08,0.08,1.02,1088.27,-8.5,27.6
0.74,2.25,0.25,0.0,1.75,0.0,1.5,0.5,1.0,0.25,0.0,0.25,0.25,0.25,-0.36,-0.48,1.45,276.75,9.0,34.4,7.25,3.25,8.0,9.5,9.75,7.25,4.25,3.25,2.75,4.0,2.75,1.25,1.0,0.08,0.08,0.95,1103.12,-9.1,31.2
0.76,1.25,0.25,1.25,1.25,0.0,1.25,0.25,1.0,0.25,0.25,0.5,0.25,0.25,-0.61,-0.8,2.52,85.89,10.1,22.8,8.25,3.25,8.0,10.5,11.0,7.0,4.0,3.25,2.25,3.5,2.5,1.0,1.0,0.08,0.14,0.95,1133.28,-9.5,35.4
0.78,2.25,0.5,3.5,2.0,1.25,1.5,1.5,1.25,0.5,0.0,1.0,0.75,1.5,-0.92,-1.23,2.27,9.45,13.0,20.7,8.25,4.0,8.0,11.0,11.0,7.0,3.5,3.25,2.0,3.5,2.75,1.25,2.0,0.08,0.14,0.95,1170.74,-9.2,33.4
0.8,2.0,0.75,2.25,0.75,0.75,1.25,1.5,1.25,0.0,0.0,1.25,1.0,1.0,-0.48,-0.8,0.64,0.0,12.1,14.6,9.0,3.25,8.75,11.0,11.0,6.5,3.25,3.25,2.0,3.5,2.5,1.25,1.0,0.08,0.2,0.95,1194.81,-10.3,36.3
0.82,0.75,0.25,2.25,0.0,0.0,1.5,1.25,0.0,0.0,0.0,0.25,0.25,0.0,-0.36,-0.55,0.2,0.0,18.7,44.0,9.5,3.75,8.75,12.5,12.0,7.0,2.75,3.25,1.75,3.5,2.5,0.5,1.0,0.08,0.2,0.95,1233.29,-10.1,39.8
0.84,0.5,0.25,2.25,0.5,0.0,1.0,1.5,0.0,0.25,0.5,0.25,1.0,0.0,-0.36,-0.48,0.2,0.0,17.4,16.6,9.75,4.25,8.75,12.5,12.0,7.25,2.0,3.0,1.25,2.25,2.5,0.5,2.0,0.08,0.2,1.02,1257.06,-10.2,41.2
0.86,2.0,0.5,2.5,0.5,0.0,1.75,5.0,1.0,0.25,0.0,2.0,0.25,1.5,-0.36,-0.48,0.52,0.0,14.3,10.4,9.75,3.75,8.75,0.0,11.0,6.25,1.5,2.0,1.5,2.25,1.5,1.25,1.5,0.02,0.27,1.02,1121.47,-10.0,39.0
0.88,2.0,0.5,1.75,1.75,0.0,1.5,1.5,0.75,0.25,0.5,1.0,1.0,1.5,-0.42,-0.48,0.83,15.35,10.9,6.8,11.5,4.5,8.25,11.5,12.5,6.0,1.75,2.0,0.75,2.0,1.5,0.75,0.25,0.14,0.33,1.2,1102.52,-12.1,50.5
0.9,2.0,0.5,2.25,1.75,0.75,1.5,1.75,1.0,0.25,0.25,1.0,1.5,1.5,-0.42,-0.36,0.77,89.18,11.1,8.2,11.5,4.75,8.75,12.5,12.0,5.75,1.75,2.75,1.5,2.5,1.5,1.0,0.0,0.2,0.39,1.27,1104.9,-12.2,48.0
0.92,2.0,0.5,2.5,1.75,1.25,1.5,2.5,1.0,0.25,0.5,1.0,1.25,1.5,-0.3,-0.23,0.77,158.92,11.1,11.6,11.5,5.0,8.75,11.5,11.0,6.0,1.5,2.0,1.0,2.25,2.0,0.75,1.25,0.14,0.45,1.45,1139.43,-12.2,46.6
0.94,2.0,0.5,2.25,2.5,0.75,1.5,2.5,1.0,0.25,0.0,1.0,1.75,1.5,-0.23,-0.11,0.95,212.08,12.2,10.5,11.0,4.0,8.75,10.5,9.75,5.75,1.75,0.0,1.0,2.25,1.75,1.0,1.25,0.33,0.58,1.52,1105.34,-13.4,47.7
0.96,2.0,0.5,3.25,2.5,0.0,1.5,3.75,5.0,0.25,0.25,1.75,1.25,0.25,-0.23,-0.05,1.2,254.02,10.4,8.5,10.5,3.25,8.0,9.25,8.25,5.5,2.25,0.0,0.75,0.5,2.0,0.0,0.75,0.64,0.64,1.83,1011.92,-15.0,54.5
0.98,1.75,0.0,2.25,0.0,0.75,0.0,3.25,1.0,0.0,0.0,1.5,0.0,0.0,-0.36,0.08,1.45,229.71,21.7,27.4,8.25,1.75,7.0,6.25,6.75,5.0,1.5,0.0,0.75,1.0,0.25,0.25,0.5,0.7,0.77,2.14,819.24,-14.3,54.6
1.0,0.0,0.0,0.0,0.0,0.0,0.0,0.0,0.0,0.0,0.0,0.0,0.0,0.0,-0.42,0.27,1.77,158.11,0.0,0.0,7.0,1.5,4.0,3.25,5.25,2.0,0.5,0.0,0.5,1.0,0.5,0.25,0.0,0.83,0.64,2.14,575.9,-15.6,56.7
1.02,0.75,0.5,0.0,2.75,1.75,1.75,4.0,3.75,0.25,0.0,2.0,0.5,0.0,-0.73,0.45,2.7,153.71,3.9,9.1,3.0,0.25,1.75,1.25,3.25,1.25,0.5,0.0,0.75,0.5,0.25,0.25,0.0,0.7,0.02,1.89,341.61,-12.7,47.5
1.04,1.25,1.0,1.0,2.75,1.25,1.5,2.0,1.0,0.25,0.0,0.5,0.25,1.5,-1.11,1.2,2.77,162.75,8.1,23.4,2.25,0.5,0.5,3.25,1.75,1.25,0.5,0.0,0.75,2.75,0.25,1.0,1.25,-0.17,0.14,1.45,219.44,-5.7,8.4
1.06,1.0,0.5,2.25,3.0,1.25,3.0,4.25,0.0,1.75,0.0,3.0,0.0,2.0,-1.23,2.14,2.77,215.21,10.1,9.2,0.25,0.0,0.5,1.0,1.75,0.5,0.5,0.0,0.25,1.0,0.25,1.25,0.25,0.58,-1.17,2.52,90.0,-4.4,-2.9
1.08,0.75,0.0,0.0,0.0,1.75,0.0,5.75,0.0,2.0,0.0,0.0,0.0,0.0,-1.36,3.33,2.2,193.62,17.5,23.6,2.0,0.75,2.25,1.0,5.0,0.0,1.0,1.25,0.75,1.25,1.5,0.0,1.25,1.02,-1.05,1.83,73.0,-7.9,19.8
1.1,1.75,0.5,0.0,2.25,0.0,0.0,0.0,0.0,0.0,0.0,0.0,0.0,0.0,-0.86,4.89,0.45,158.36,23.1,77.0,1.5,1.0,0.5,3.25,5.0,1.0,1.0,1.5,0.75,2.75,1.5,1.0,1.0,0.7,-0.67,0.52,102.47,-3.0,8.9
1.12,1.75,0.5,2.25,2.5,0.0,2.75,6.0,0.0,0.25,0.5,0.0,1.5,0.0,1.45,6.52,-0.98,153.96,16.1,31.1,2.5,1.5,1.75,3.25,5.0,1.0,1.0,1.5,0.75,2.25,1.5,1.0,1.0,0.33,-0.48,0.27,154.45,-6.6,18.7
1.14,1.25,0.5,1.25,1.75,0.75,2.75,1.5,1.25,0.25,2.0,1.0,1.75,1.5,1.95,0.89,-0.05,173.18,2.6,-8.2,2.5,1.5,1.25,3.25,5.0,1.25,1.0,1.75,0.75,2.25,1.5,1.0,1.0,0.08,-0.36,0.39,201.12,-5.4,17.4
1.16,1.0,0.25,1.0,1.75,1.25,1.5,1.5,1.75,0.0,1.0,1.5,2.0,3.75,-0.55,-0.11,2.39,205.38,1.6,-26.2,2.5,1.5,1.0,2.5,5.0,1.0,0.75,1.5,0.75,2.25,1.5,1.0,0.75,0.02,-0.3,0.64,235.88,-5.3,17.3
1.18,0.0,0.0,0.0,0.25,0.5,1.0,1.0,1.25,0.25,2.5,0.5,4.5,4.5,0.02,-0.23,1.7,230.59,-4.9,-75.2,2.0,1.5,1.75,3.0,5.25,1.0,0.75,1.75,0.75,2.25,1.5,1.0,1.25,0.14,-0.36,0.83,265.71,-5.3,15.2
1.2,0.25,0.0,0.0,2.0,0.0,2.75,1.25,1.25,0.25,2.75,1.25,5.75,6.0,0.33,0.08,1.7,272.63,-3.3,-61.8,2.0,1.5,1.0,2.75,5.0,1.25,0.75,1.75,0.75,2.25,1.5,1.0,0.75,0.27,-0.3,0.83,283.88,-4.3,15.7
1.22,0.0,0.0,0.25,0.75,0.0,3.0,0.25,3.25,1.0,4.5,2.0,6.75,7.0,-1.48,0.7,2.83,332.95,-5.9,-70.6,2.0,1.5,2.0,1.5,3.75,1.25,0.25,1.5,0.75,2.25,0.5,1.0,0.5,0.2,-0.17,0.89,290.9,-5.6,19.2
1.24,0.5,0.0,1.0,2.5,0.5,3.75,0.25,4.25,2.0,6.25,3.0,7.5,7.75,0.08,-0.05,1.2,439.76,-3.4,-56.5,2.0,1.5,0.75,1.75,5.0,1.25,0.5,1.5,0.75,2.25,1.25,1.0,1.0,-0.11,-0.05,1.14,297.18,-3.0,13.1
1.26,2.0,0.0,2.0,3.0,3.5,4.75,1.5,5.5,2.0,0.0,4.0,7.75,8.75,-0.05,0.02,1.02,548.43,0.5,-34.6,2.0,1.5,0.5,1.5,4.25,1.25,0.5,1.5,0.75,2.25,1.5,1.0,0.75,-0.05,0.08,1.27,292.84,-2.9,10.6
1.28,1.25,0.25,2.75,3.0,1.25,5.0,1.5,6.0,2.0,7.0,4.75,8.0,8.75,-0.23,0.02,0.95,696.66,-1.4,-45.1,1.75,1.5,0.5,1.75,4.25,1.25,0.5,1.0,0.75,1.0,1.5,1.0,1.0,0.2,0.14,1.39,278.45,-4.3,15.8
1.3,2.0,0.25,3.0,3.25,1.25,5.0,1.5,6.0,2.25,6.75,5.0,8.0,8.75,-0.11,-0.05,0.95,805.65,-0.4,-42.1,1.25,0.0,0.25,0.75,1.25,0.0,0.0,0.25,0.75,2.25,0.0,1.0,0.5,0.27,0.2,1.83,225.36,-3.6,-14.4
1.32,1.0,0.25,3.5,3.25,1.25,5.25,3.0,6.5,2.75,7.0,4.75,7.75,8.75,-0.11,-0.05,0.95,899.16,-0.5,-41.9,2.0,1.5,0.5,1.5,5.0,1.25,0.5,1.5,0.75,2.25,1.5,1.0,1.0,0.45,0.45,2.39,221.85,-2.5,10.9
1.34,1.5,0.0,3.0,3.25,1.75,6.0,3.5,6.75,2.75,6.5,4.5,7.5,8.75,-0.17,-0.05,0.95,934.0,-0.8,-39.3,1.75,0.75,0.5,0.5,4.25,0.0,0.5,1.25,0.25,0.5,1.5,0.0,1.25,0.52,1.27,2.7,195.9,-4.4,16.5
1.36,2.0,0.5,2.25,3.25,0.75,6.75,4.25,6.75,2.75,7.75,4.75,7.5,8.5,-0.17,-0.05,0.95,950.16,-1.2,-39.4,1.5,0.0,0.25,0.75,1.25,0.0,0.0,0.0,0.25,1.0,0.25,0.0,0.25,0.52,2.2,2.83,156.85,-9.5,25.5
1.38,2.0,0.25,2.25,1.75,4.25,5.75,4.5,6.75,2.75,7.25,3.0,6.75,8.0,-0.17,-0.05,0.95,935.86,-1.8,-33.9,1.75,0.25,0.25,1.0,1.25,1.25,0.25,0.0,0.5,1.0,0.25,0.25,0.25,0.83,3.64,2.02,122.36,-6.3,26.1
1.4,2.0,0.5,2.25,3.25,1.25,5.75,3.75,6.5,2.75,6.0,2.25,5.75,7.0,-0.17,-0.05,0.95,867.71,-0.9,-32.0,1.25,0.0,0.25,0.5,1.25,1.0,0.5,0.0,0.25,1.25,0.25,0.0,0.25,0.45,4.58,-0.36,92.58,-3.5,19.1
1.42,1.75,0.25,2.25,2.0,1.25,6.5,4.0,6.75,2.5,5.75,3.0,5.5,6.75,-0.17,-0.05,0.95,790.27,-1.8,-34.4,0.5,0.0,0.0,1.0,1.25,0.0,0.0,0.25,0.0,1.75,0.25,1.0,0.0,-4.73,6.33,-0.23,67.85,-1.5,-13.8
1.44,1.75,0.0,2.25,2.5,0.75,6.5,4.0,6.75,2.75,6.5,3.0,5.75,6.25,-0.17,-0.05,0.95,720.76,-1.6,-35.4,2.0,1.0,0.5,1.0,1.75,1.25,0.5,1.75,1.0,4.75,2.5,3.5,2.25,-0.36,-0.86,-1.05,142.61,-0.9,-31.8
1.46,2.0,0.25,2.25,3.25,4.25,7.5,4.25,6.75,2.75,5.0,2.75,3.5,5.25,-0.17,-0.05,0.95,682.16,-1.4,-17.0,1.5,0.0,0.5,1.0,2.5,0.75,0.5,0.0,1.5,6.0,4.0,5.5,5.5,-0.42,0.14,0.83,244.6,-0.1,-54.9
1.48,2.5,0.5,4.0,3.25,5.75,8.5,4.5,7.5,3.5,5.25,3.0,3.5,5.25,-0.17,-0.05,0.95,710.63,-0.1,-10.8,0.5,0.0,0.5,0.75,3.0,0.0,0.5,0.0,1.0,6.75,5.5,6.0,7.5,-0.3,0.27,6.39,344.95,1.3,-66.3
1.5,2.25,1.75,3.75,3.75,6.5,8.5,4.75,7.5,3.5,5.0,3.0,3.25,5.25,-0.17,-0.05,0.95,767.19,0.0,-6.7,1.0,0.25,0.5,0.5,1.25,3.25,0.5,0.0,1.25,7.75,5.75,6.5,7.5,0.27,0.52,1.64,452.45,2.7,-62.8
1.52,3.0,1.75,4.0,4.75,7.5,9.0,5.0,7.75,3.5,5.0,3.0,3.25,3.75,-0.17,-0.05,0.95,839.53,0.9,0.0,1.25,0.25,0.5,0.5,1.25,3.75,0.5,0.0,1.5,8.25,6.5,6.5,7.5,0.14,0.02,0.95,550.6,2.5,-60.8
1.54,3.75,1.75,4.25,5.25,7.75,9.25,5.0,7.75,3.5,5.0,2.75,2.75,3.75,-0.17,-0.05,0.95,906.99,1.4,3.5,2.5,1.5,0.5,0.0,1.5,5.5,0.5,0.0,1.75,8.25,7.25,6.5,8.5,0.14,0.02,0.95,639.11,2.0,-50.2
1.56,3.75,1.75,4.5,5.5,8.75,10.0,5.25,7.75,3.5,4.75,3.0,2.0,3.75,-0.17,-0.05,0.95,972.57,1.3,6.6,3.75,1.5,0.5,2.75,1.25,5.75,1.0,0.0,2.75,8.0,6.5,6.5,8.0,0.14,0.02,0.89,706.86,-0.3,-38.5
1.58,4.25,1.75,4.75,5.75,9.25,10.0,5.5,7.75,3.5,4.75,2.75,2.0,3.75,-0.17,-0.05,0.95,1028.07,1.8,8.5,3.0,1.75,0.75,3.0,1.5,5.75,1.0,5.5,2.75,8.5,6.5,6.5,8.0,0.2,0.02,0.95,817.51,1.6,-38.5
1.6,5.5,2.0,4.75,7.0,11.5,11.0,5.75,7.75,3.5,4.0,2.75,2.0,3.0,-0.17,-0.05,0.95,1114.78,2.6,15.6,2.0,1.5,2.25,3.25,5.0,6.0,1.5,0.0,2.75,8.5,7.0,6.5,8.0,0.14,0.02,0.95,884.65,-0.4,-31.0
1.62,5.75,2.75,4.75,7.5,13.0,12.0,6.0,7.75,3.25,3.75,2.0,1.75,2.75,-0.17,-0.05,1.08,1214.32,2.4,20.6,2.75,1.5,2.25,3.25,5.25,6.25,1.75,0.0,2.75,8.25,7.0,6.0,7.75,0.14,0.02,0.95,915.08,-0.9,-27.2
1.64,6.5,3.25,5.0,8.5,13.5,12.5,5.0,7.75,2.75,3.5,1.75,2.0,2.25,-0.17,-0.05,1.02,1309.09,2.9,24.4,3.0,1.75,2.75,3.25,5.25,6.75,2.0,0.0,2.75,7.75,6.25,5.5,6.5,0.2,0.02,0.95,907.61,-1.6,-20.6
1.66,7.75,3.5,4.75,10.5,14.5,12.5,5.0,7.5,2.5,3.0,1.5,1.75,2.25,-0.17,0.08,1.08,1371.85,3.7,28.8,2.75,1.5,2.75,3.25,6.75,7.25,2.25,0.0,2.75,7.0,5.75,4.5,5.75,0.2,0.02,0.95,877.41,-1.3,-14.3
1.68,8.75,3.5,5.25,11.0,15.5,12.5,4.75,7.5,2.0,2.75,1.5,1.75,2.0,-0.3,0.08,1.27,1425.32,4.3,31.6,3.0,2.0,3.0,3.5,7.0,7.75,2.25,0.0,2.75,6.75,5.5,4.0,5.25,0.14,0.02,0.95,840.04,-1.7,-8.7
1.7,9.5,3.5,6.25,10.5,15.5,12.0,2.75,7.25,1.75,2.75,1.75,1.75,1.75,-0.36,0.08,1.58,1452.83,4.9,33.1,3.5,2.25,3.0,5.25,8.25,7.75,2.75,0.0,2.75,6.0,4.75,2.5,4.0,0.14,0.08,0.95,829.39,-2.9,4.2
1.72,10.5,3.5,6.25,8.75,14.5,10.0,2.75,6.75,1.25,2.5,1.5,1.75,1.75,-0.55,0.2,1.83,1428.1,6.0,34.6,3.75,2.25,3.25,5.75,8.25,8.0,2.75,0.0,2.75,5.25,4.0,2.5,2.75,0.14,0.02,0.95,819.26,-3.8,10.8
1.74,10.5,3.5,6.25,7.0,12.5,8.75,2.5,6.0,1.0,2.5,1.5,1.75,1.75,-0.92,0.39,1.95,1357.21,6.7,34.5,5.0,2.25,3.5,6.25,9.5,8.25,3.0,0.0,2.25,5.25,2.75,1.75,2.25,0.14,0.02,0.95,819.1,-4.5,20.3
1.76,9.5,2.75,4.75,5.5,9.25,7.0,2.75,5.0,1.0,1.0,0.5,1.75,1.5,-0.98,0.58,2.77,1162.28,7.7,36.9,4.5,2.5,3.5,7.5,9.75,8.5,2.75,0.0,2.0,5.0,3.0,1.25,2.25,0.14,0.02,0.95,822.88,-4.4,22.7
1.78,5.5,0.0,3.25,1.75,7.0,4.5,1.5,3.25,0.25,0.0,0.0,0.25,0.5,-1.11,0.27,2.33,804.93,6.5,43.1,4.5,3.0,4.5,8.25,11.0,8.75,2.75,5.25,2.0,5.0,2.5,1.25,2.25,0.14,0.08,1.02,887.73,-3.0,20.7
1.8,2.0,0.0,0.0,0.5,0.75,3.0,0.0,0.0,0.5,0.0,0.0,1.0,0.0,-0.92,-0.3,1.83,412.52,2.8,30.0,5.5,3.25,5.0,9.25,11.5,8.75,2.25,0.0,1.5,5.0,2.5,1.25,2.25,0.14,0.08,0.95,935.15,-5.6,29.5
1.82,1.0,0.25,0.0,2.25,1.25,4.0,0.0,1.0,0.25,0.5,0.75,0.25,1.5,-0.61,-0.61,2.64,216.42,-3.6,9.3,5.75,3.25,5.0,9.5,12.5,9.0,2.25,0.0,1.5,4.5,2.5,1.25,2.25,0.14,0.08,0.95,989.85,-5.7,31.2
1.84,1.25,0.5,1.0,3.0,1.25,4.0,0.25,1.25,0.25,0.0,1.0,0.0,1.5,-1.05,-1.23,2.27,89.04,1.6,20.9,6.0,2.5,5.0,10.5,12.5,9.25,1.75,0.0,1.5,3.75,2.5,1.0,2.0,0.08,0.14,0.95,1017.07,-6.0,33.7
1.86,1.0,0.5,2.25,1.75,1.25,3.5,0.25,1.25,0.25,0.0,1.25,0.25,1.5,-0.8,-0.92,1.08,37.39,3.9,15.8,6.0,3.0,5.0,9.25,13.5,8.5,1.5,4.25,1.0,2.25,2.5,0.5,2.0,0.14,0.14,0.95,1042.61,-4.8,33.5
1.88,1.0,0.5,0.75,0.0,1.25,4.75,0.25,1.0,1.75,0.0,1.25,0.5,0.5,-0.55,-0.61,0.33,18.7,-1.5,8.7,6.75,3.5,3.25,9.75,12.5,9.0,1.0,0.0,0.75,3.5,1.75,1.0,1.0,0.08,0.2,0.95,1012.12,-5.6,40.1
1.9,0.0,0.0,0.0,0.0,0.0,0.0,0.0,0.0,0.0,0.0,0.0,0.0,0.0,-0.42,-0.55,0.08,0.0,0.0,0.0,8.0,4.25,4.75,12.5,14.5,9.0,1.0,0.0,0.75,2.75,2.5,1.0,2.25,0.14,0.2,0.95,1064.41,-7.1,40.7
1.92,0.0,0.0,0.5,0.0,0.75,0.0,0.0,0.75,0.5,0.0,0.0,0.25,1.5,-0.42,-0.55,0.27,0.0,-1.9,-37.8,8.25,2.75,4.25,11.0,12.5,9.25,0.5,0.0,0.75,2.5,1.5,1.25,1.5,0.14,0.27,1.02,1046.65,-7.0,42.0
1.94,1.75,0.5,0.25,1.75,0.75,3.0,0.75,1.25,0.25,0.0,1.0,0.75,1.5,-0.55,-0.61,0.58,0.0,2.0,7.8,8.75,3.25,3.0,11.5,12.0,9.25,1.0,0.0,0.75,2.5,1.5,1.25,2.0,0.08,0.33,1.08,1042.44,-6.7,41.2
1.96,2.0,0.5,2.25,1.75,2.5,3.0,1.5,1.0,0.25,0.75,1.0,0.5,1.5,-0.61,-0.48,0.7,29.32,6.0,19.4,8.25,3.0,3.5,11.0,14.0,9.25,0.0,0.0,0.75,1.75,1.5,1.0,2.0,0.33,0.33,1.2,1016.42,-6.3,43.3
1.98,2.0,1.0,1.0,1.75,0.75,3.75,1.75,2.5,0.25,0.0,0.0,0.25,0.0,-0.61,-0.23,0.64,111.02,3.9,36.4,8.25,3.0,3.5,10.5,12.5,8.5,0.0,0.0,0.0,0.5,1.5,0.25,2.0,0.45,0.39,1.27,961.15,-7.4,49.1
2.0,2.0,0.5,2.25,1.75,1.75,3.0,1.25,1.0,0.25,0.5,0.5,0.25,1.5,-0.55,-0.11,0.77,184.83,6.5,23.9,8.25,3.0,1.5,9.0,12.5,0.0,0.75,0.0,0.25,0.5,1.75,0.0,2.0,0.52,0.45,1.45,821.23,-11.6,50.6
2.02,2.0,0.5,2.25,1.75,1.25,3.0,0.75,1.0,0.25,1.0,0.75,0.25,2.0,-0.48,0.02,0.89,225.54,5.2,14.1,7.25,2.75,3.0,7.5,9.5,7.5,0.0,0.0,0.0,0.5,0.25,0.0,0.75,0.7,0.64,2.14,702.03,-7.7,56.6
2.04,2.0,0.5,2.25,1.75,0.75,3.0,1.5,1.0,0.25,1.0,0.75,0.25,1.5,-0.55,0.14,1.2,239.39,6.8,17.0,6.5,1.75,1.5,5.5,8.25,6.5,0.5,0.0,0.0,0.5,0.25,0.0,0.75,1.08,1.02,2.7,568.76,-6.5,54.7
2.06,1.5,0.5,1.5,1.75,1.25,2.75,1.5,1.0,0.25,0.75,0.75,0.25,1.5,-0.67,0.2,1.58,231.3,4.7,14.9,3.75,0.75,0.5,2.75,6.0,0.0,0.5,0.0,0.25,1.5,0.25,0.0,0.25,1.02,0.2,2.2,385.98,-9.6,48.3
2.08,1.5,0.5,1.75,1.75,1.25,2.75,1.5,1.0,0.25,1.0,0.5,0.25,1.5,-0.8,0.45,2.02,230.42,4.8,15.6,1.25,0.0,0.0,0.0,3.25,0.0,0.25,0.0,0.0,0.5,0.25,0.25,0.0,0.77,-0.36,1.64,228.27,-4.8,38.9
2.1,0.0,0.5,1.75,4.5,1.75,2.0,1.5,1.0,0.25,0.75,0.75,0.25,1.5,-1.17,1.2,2.64,235.96,5.7,16.6,1.25,0.0,0.0,0.75,2.25,1.25,0.25,0.25,0.25,1.75,0.25,0.25,0.0,0.2,0.39,1.95,103.97,0.1,16.9
2.12,1.0,0.5,1.75,1.75,1.25,2.5,1.5,1.0,0.0,0.25,0.5,0.0,1.75,-1.36,2.2,2.83,229.85,4.8,18.5,1.5,1.25,0.25,1.5,1.75,2.0,0.25,1.0,0.75,2.25,1.5,0.0,0.75,0.33,-0.73,2.52,47.11,-1.2,7.8
2.14,1.0,0.5,1.0,1.75,0.75,2.0,2.0,0.75,0.25,1.25,0.5,0.0,1.5,-1.36,3.39,2.02,219.78,4.0,8.8,2.0,1.5,0.0,1.5,5.25,2.75,0.5,1.75,0.75,2.25,0.5,1.0,0.25,0.83,-1.17,1.64,71.46,0.2,19.9
2.16,0.75,0.5,1.5,1.75,1.25,2.5,1.5,1.25,0.25,1.25,0.5,0.5,1.5,-0.98,4.52,1.27,205.74,2.5,5.8,1.5,0.75,0.5,1.5,5.0,1.25,0.75,1.75,0.25,1.5,1.5,0.25,1.25,0.64,-0.86,0.64,118.27,-1.1,12.5
2.18,1.25,0.25,1.25,2.0,0.75,1.75,1.5,1.75,0.25,2.5,0.75,1.75,1.5,3.2,7.95,1.45,204.06,2.9,-13.2,2.0,0.5,0.0,0.75,1.25,1.0,0.25,0.25,0.25,1.25,0.25,0.0,0.25,0.39,-0.55,0.52,105.28,-5.1,29.2
2.2,0.75,0.5,1.5,0.0,0.75,1.5,1.25,1.25,0.0,0.5,1.25,1.75,2.25,0.89,-2.48,-2.73,193.6,3.3,-23.5,1.25,0.0,0.0,0.25,1.25,0.5,0.0,0.25,0.25,1.25,0.25,0.0,0.25,-0.05,-0.3,0.52,65.48,-1.4,11.2
2.22,0.0,0.25,0.0,0.0,0.0,2.5,0.5,1.5,0.0,2.5,0.25,3.25,3.75,0.45,0.45,1.2,201.04,-9.0,-65.6,1.25,0.0,0.0,0.75,1.25,0.0,0.0,0.25,0.25,1.0,0.25,0.0,0.25,-0.11,-0.17,0.58,29.44,-5.8,17.7
2.24,0.25,0.0,0.0,1.0,0.5,1.75,0.75,3.0,0.75,3.75,1.25,5.75,6.0,0.83,0.14,2.64,247.32,-5.0,-67.2,1.25,0.5,0.0,0.75,1.25,1.0,0.0,0.25,0.25,1.0,0.25,0.0,0.25,0.08,-0.17,0.7,26.97,-2.4,26.1
2.26,0.25,0.0,0.75,1.0,0.0,3.25,0.0,4.5,1.25,4.5,2.5,6.75,7.0,-0.36,0.7,1.45,320.84,-5.0,-64.3,1.5,1.25,0.25,1.5,1.25,1.25,0.0,0.0,0.75,2.25,0.25,1.0,0.25,0.2,-0.17,0.77,64.54,-4.4,11.5
2.28,0.25,0.0,0.0,1.75,0.0,4.0,0.75,5.0,2.0,5.75,2.75,7.0,7.75,0.08,-0.05,1.08,425.76,-5.5,-62.4,1.25,1.75,0.5,1.25,5.0,1.0,0.5,1.75,0.75,2.25,1.25,1.25,1.0,0.2,-0.05,0.89,155.3,-1.3,7.0
2.3,0.25,0.0,2.5,1.25,0.75,4.0,1.5,6.0,1.75,5.5,2.5,6.25,7.75,-0.11,-0.05,0.95,531.64,-3.3,-51.0,2.0,1.5,0.5,0.5,4.5,1.25,0.5,1.25,0.75,2.25,1.5,1.0,1.25,0.2,0.02,1.14,221.45,-1.9,6.0
2.32,2.25,0.25,1.75,3.25,0.0,5.0,1.0,5.5,2.25,6.75,0.0,7.5,7.75,-0.17,-0.05,0.95,615.94,-2.4,-42.0,2.0,1.5,0.5,1.0,5.0,1.25,0.5,1.5,0.75,2.25,1.5,1.0,1.25,0.27,0.14,1.52,263.95,-1.9,8.2
2.34,2.25,0.25,3.0,1.75,1.25,4.75,1.5,6.0,2.0,6.25,2.25,7.5,8.75,-0.17,-0.05,0.89,689.59,-1.4,-42.2,2.0,1.5,0.5,1.25,4.25,1.25,0.5,1.0,0.75,2.25,1.5,1.0,1.25,0.52,0.33,1.7,274.35,-2.8,8.0
2.36,1.0,0.25,2.25,1.75,0.0,5.0,3.5,5.5,2.5,6.25,3.0,6.75,7.25,-0.17,-0.05,0.95,721.67,-1.6,-46.1,2.0,1.5,0.5,1.0,3.25,1.25,0.5,1.5,0.75,2.25,1.5,1.0,1.0,0.7,0.64,2.14,273.13,-2.7,4.8
2.38,2.0,0.5,2.25,3.25,0.75,5.75,3.5,6.0,3.25,6.75,5.0,7.25,8.0,-0.11,-0.05,0.95,789.98,-0.3,-39.7,1.25,1.5,0.5,1.75,3.25,1.25,0.5,1.25,0.75,2.25,1.5,1.0,1.25,0.95,1.39,2.45,269.37,-2.1,2.5
2.4,2.25,0.0,3.75,3.25,1.75,6.25,4.5,6.25,3.5,6.25,3.75,6.75,7.75,-0.11,-0.05,0.95,835.05,0.6,-32.1,1.5,1.5,0.5,1.5,3.25,1.25,0.5,1.0,0.75,2.25,1.5,1.0,1.25,1.14,2.52,2.64,271.63,-2.6,3.5
2.42,2.25,0.0,3.75,3.25,4.25,6.0,4.5,6.75,3.5,5.25,4.0,6.75,7.75,-0.17,-0.05,0.95,885.32,0.7,-27.5,1.5,0.0,0.5,0.5,2.75,1.0,0.5,1.0,0.75,2.25,1.5,1.0,1.0,1.27,3.77,1.95,259.11,-1.4,-11.3
2.44,3.0,0.0,3.25,2.0,5.0,6.75,4.75,6.5,4.0,6.25,4.0,5.75,7.0,-0.17,-0.05,0.95,906.36,0.1,-24.9,1.5,0.0,0.5,1.25,1.75,1.25,0.5,1.5,0.75,2.25,1.5,1.0,1.25,0.95,4.89,-1.3,242.36,-1.3,-14.5
2.46,3.75,1.75,4.25,3.25,5.5,7.5,5.25,6.75,4.25,5.75,4.75,5.25,6.25,-0.11,-0.05,0.95,955.62,2.0,-13.6,2.0,0.0,0.5,1.0,3.0,1.25,0.5,1.0,0.75,2.25,1.5,0.75,0.25,-1.61,6.45,-1.11,225.53,-3.2,3.4
2.48,3.75,1.75,4.75,3.5,5.5,7.5,5.5,6.75,4.5,5.0,4.5,4.75,5.5,-0.11,-0.05,0.95,975.42,2.8,-9.7,2.0,1.5,0.5,1.0,2.25,2.5,0.5,1.75,0.75,4.5,2.5,2.25,1.25,-0.23,-0.98,-0.73,244.69,-0.2,-15.2
2.5,4.5,1.75,4.75,5.25,7.0,8.0,6.0,6.75,4.5,5.0,4.0,3.25,5.25,-0.11,-0.05,0.95,1024.21,3.2,-1.1,0.75,0.0,0.5,1.0,3.0,1.25,0.75,2.0,0.75,5.25,1.75,4.0,3.0,-0.23,0.39,1.58,268.57,2.5,-42.0
2.52,4.75,1.75,4.75,5.25,7.5,8.5,6.25,6.5,4.5,4.75,3.0,3.0,3.75,-0.11,-0.05,0.95,1046.08,3.5,4.7,0.0,0.0,0.25,1.25,1.25,2.75,0.0,0.0,1.25,7.0,4.5,6.0,6.25,1.89,0.95,3.52,330.2,3.7,-65.6
2.54,5.5,1.75,4.75,5.5,7.75,8.5,6.5,6.75,4.25,4.5,3.0,2.0,3.75,-0.11,-0.05,0.95,1063.42,3.8,8.5,2.0,0.5,0.5,1.0,1.25,3.75,0.25,4.0,3.25,8.5,7.0,6.75,7.5,-0.48,-0.05,1.02,468.92,2.3,-54.1
2.56,5.75,1.75,4.75,7.0,8.75,9.0,6.75,6.75,4.0,3.5,2.75,2.0,3.25,-0.17,-0.05,0.95,1075.47,4.4,13.9,2.0,1.25,2.75,3.25,5.0,5.75,1.75,5.5,3.25,8.75,8.75,7.75,8.25,-0.3,0.02,1.02,703.56,0.2,-34.9
2.58,6.25,2.0,5.75,7.0,9.25,9.25,7.25,6.5,3.75,3.0,2.75,2.0,2.75,-0.11,-0.05,1.02,1099.45,5.5,18.1,2.0,1.5,2.75,3.0,5.0,5.75,1.5,5.5,3.25,8.75,8.25,7.5,8.25,0.14,0.02,0.95,909.75,0.4,-34.2
2.6,7.0,2.5,6.25,7.75,10.5,9.25,7.25,6.5,3.5,3.0,2.75,2.0,2.75,-0.11,-0.05,1.02,1152.4,6.0,21.3,2.0,1.25,2.75,3.25,5.25,5.75,1.5,5.75,3.25,8.5,8.25,7.25,8.25,0.2,-0.05,0.89,1060.76,0.4,-33.5
2.62,7.25,2.5,6.25,8.75,11.5,9.75,7.25,6.0,3.5,2.75,1.75,1.75,2.0,-0.11,0.02,0.95,1193.3,6.3,26.8,3.0,1.75,2.75,3.25,5.0,5.75,1.5,5.5,3.25,8.25,7.75,6.5,7.75,0.2,0.02,0.95,1115.85,-0.2,-28.7
2.64,8.0,3.0,6.25,8.75,12.5,10.0,6.75,6.0,3.0,2.75,2.0,1.75,1.75,-0.11,0.02,0.95,1248.98,6.3,29.1,2.25,1.5,2.75,3.25,5.25,6.0,2.0,5.5,3.25,7.75,7.25,6.0,7.5,0.14,0.02,0.89,1108.82,0.1,-28.1
2.66,9.0,3.5,6.25,11.0,13.0,10.0,6.75,6.25,2.75,2.75,1.75,1.75,1.75,-0.11,0.08,1.02,1312.74,6.9,31.9,2.25,1.75,3.0,3.25,5.25,6.25,2.25,5.75,3.25,7.5,6.75,5.5,6.5,0.14,0.02,0.95,1072.34,0.0,-24.1
2.68,10.5,3.5,6.25,11.5,14.0,10.0,6.25,6.0,2.5,2.75,1.5,1.75,1.75,-0.11,0.14,1.02,1365.51,7.3,34.4,2.0,1.75,3.0,3.25,6.5,6.5,2.25,5.5,3.25,6.75,6.0,4.5,5.75,0.08,0.02,0.95,1023.9,0.0,-18.3
2.7,11.0,3.5,7.75,12.0,14.5,10.5,6.25,6.0,2.25,2.75,0.0,1.75,1.75,-0.11,0.14,1.08,1416.38,7.8,37.9,3.0,1.5,3.0,3.5,6.75,7.0,2.5,5.5,3.25,6.25,5.5,3.75,3.75,0.14,0.02,0.95,968.96,-0.8,-9.9
2.72,12.5,3.5,7.75,12.5,14.5,11.0,5.75,6.0,2.0,1.25,0.0,1.75,1.75,-0.17,0.2,1.14,1460.42,8.5,41.4,3.0,2.0,3.25,3.75,7.0,7.5,2.75,5.5,3.0,5.25,4.75,2.5,2.75,0.2,0.02,0.95,902.26,-1.2,-0.6
2.74,13.0,3.75,7.0,11.5,15.0,10.0,5.0,6.0,2.0,2.5,1.5,1.75,1.75,-0.3,0.2,1.27,1488.39,8.1,37.8,3.75,2.25,3.25,5.0,8.25,7.75,2.75,5.5,2.75,5.25,4.5,2.5,2.5,0.14,0.08,0.95,874.98,-1.9,4.9
2.76,14.0,4.0,7.5,10.0,14.5,10.0,4.0,5.75,1.5,2.5,1.25,1.75,2.0,-0.42,0.27,1.39,1492.55,8.4,39.0,4.0,2.5,3.25,5.75,8.75,8.0,2.75,5.5,2.75,5.25,3.75,1.5,2.75,0.14,0.08,0.95,855.72,-1.8,9.7
2.78,14.5,5.0,7.75,8.75,13.0,9.25,4.0,5.25,1.0,2.5,1.5,1.75,2.0,-0.55,0.39,1.83,1469.09,9.2,40.3,4.0,2.5,4.5,6.75,9.5,8.25,2.75,5.5,2.25,5.0,2.5,1.25,2.25,0.2,0.08,0.95,857.52,-2.6,16.7
2.8,13.0,4.75,7.25,7.0,11.5,8.25,4.5,5.0,1.0,2.5,1.25,1.75,1.75,-0.98,0.7,2.83,1393.98,9.3,39.3,4.25,3.25,4.25,7.5,11.0,8.25,2.75,5.25,2.0,5.0,2.5,1.25,2.25,0.14,0.08,0.95,889.7,-2.8,20.0
2.82,8.75,1.75,6.25,1.75,8.5,3.5,3.5,3.25,0.25,0.0,0.25,0.25,1.75,-0.98,0.52,2.7,1086.67,11.8,45.8,5.25,3.25,5.0,7.5,11.0,8.5,2.75,5.25,2.0,4.75,2.5,1.25,2.25,0.14,0.08,1.08,947.09,-3.7,22.1
2.84,3.75,0.5,0.0,2.5,0.0,3.0,0.0,1.0,0.5,0.0,0.25,1.0,0.5,-0.67,-0.42,1.58,619.35,8.0,31.4,5.75,3.25,5.0,9.25,11.5,8.75,2.5,0.0,1.75,4.5,2.5,1.25,2.25,0.14,0.08,0.95,976.26,-6.0,30.3
2.86,3.25,0.5,0.0,1.75,0.75,3.5,0.25,1.25,0.25,0.0,0.75,1.0,1.5,-0.17,-0.05,1.77,310.84,3.2,15.5,6.25,3.25,5.0,9.0,12.5,8.75,2.25,0.0,1.5,4.0,0.5,1.25,2.25,0.14,0.14,0.95,986.31,-6.0,36.1
2.88,0.5,0.75,2.25,2.0,2.5,3.25,0.25,1.25,0.25,0.25,1.5,1.0,1.5,-0.86,-1.11,2.77,162.05,3.2,10.4,6.25,3.5,5.0,9.25,12.5,8.5,2.0,0.0,1.5,3.75,2.5,1.25,2.0,0.08,0.14,0.95,994.85,-6.4,33.9
2.9,1.0,0.25,2.5,1.0,0.5,2.0,0.25,0.0,0.25,0.0,0.0,0.25,0.5,-1.05,-1.17,1.89,34.49,13.0,40.4,7.0,3.5,5.0,10.5,13.5,8.5,1.5,0.0,1.5,3.0,2.5,0.5,2.0,0.08,0.14,0.95,1013.33,-7.0,38.7
2.92,0.75,0.5,1.0,0.5,0.0,2.0,0.25,1.0,0.0,0.0,0.25,0.0,0.25,-0.73,-0.8,0.77,0.0,3.5,31.0,7.25,3.5,5.0,11.0,14.0,8.5,1.5,0.0,1.25,2.25,2.0,1.0,2.0,0.14,0.2,0.95,1036.07,-7.3,40.7
2.94,0.5,0.25,2.0,0.0,0.5,2.25,0.25,0.0,0.0,0.0,0.0,0.25,0.25,-0.48,-0.48,0.2,0.0,8.2,40.5,8.25,4.25,4.75,11.5,14.0,9.25,1.25,4.5,0.0,2.25,2.5,1.0,2.0,0.14,0.2,0.95,1103.56,-5.7,37.4
2.96,2.0,0.75,1.75,1.75,0.0,2.75,0.25,0.25,0.25,0.0,0.25,0.75,1.75,-0.42,-0.42,0.08,0.0,8.4,20.3,8.25,4.75,5.25,11.0,15.0,9.5,1.0,4.5,1.0,3.5,2.0,1.0,2.0,0.14,0.27,1.02,1185.43,-5.2,35.9
2.98,2.0,0.5,0.0,1.75,0.75,2.5,0.75,1.0,0.25,0.5,1.25,1.75,1.5,-0.42,-0.36,0.33,0.0,3.1,-4.3,9.0,4.75,5.5,12.5,15.5,9.75,0.75,4.25,0.75,3.0,2.0,1.0,2.0,0.14,0.27,1.08,1272.35,-5.9,38.5
3.0,2.0,0.5,2.75,1.75,1.25,2.5,0.5,1.0,0.25,0.5,0.5,1.75,1.5,-0.48,-0.42,0.77,36.45,8.3,11.6,9.0,4.75,5.5,13.0,15.5,9.25,0.0,3.25,0.75,2.25,1.75,1.0,2.0,0.14,0.33,1.02,1312.63,-6.6,41.4
3.02,2.5,0.0,2.5,0.0,1.25,0.0,0.25,1.0,0.0,0.0,0.5,0.0,1.5,-0.48,-0.36,0.77,73.48,15.4,23.2,8.5,4.25,5.5,11.0,14.0,8.5,0.75,0.0,0.75,2.0,2.0,0.75,2.25,0.45,0.33,1.27,1266.63,-8.0,43.8
3.04,2.0,0.5,3.25,1.75,0.0,5.0,2.0,5.0,0.25,0.5,0.0,1.5,0.0,-0.48,-0.17,0.77,161.07,3.8,15.9,8.75,4.0,5.5,10.5,13.5,0.0,0.0,0.0,0.25,2.25,0.75,0.0,0.75,0.52,0.45,1.39,1093.48,-13.5,55.7
3.06,1.75,0.5,2.25,0.0,1.25,3.0,1.5,1.0,0.25,0.5,0.5,1.0,0.0,-0.42,-0.05,0.89,194.81,7.7,24.7,8.25,3.5,4.75,9.25,11.0,8.0,0.0,0.0,0.25,0.5,0.75,0.25,1.0,0.58,0.58,1.83,943.63,-9.0,54.5
3.08,2.0,0.5,2.75,1.75,1.25,2.25,1.5,1.0,0.25,0.5,1.0,1.25,2.0,-0.36,0.08,1.08,234.96,8.8,9.2,7.25,2.5,3.5,7.5,9.5,7.25,0.75,0.0,0.25,0.5,0.25,0.0,0.5,1.14,1.14,2.33,773.71,-8.6,56.8
3.1,2.0,0.5,2.5,1.75,1.75,2.25,1.75,1.0,0.25,0.75,0.5,1.25,1.0,-0.42,0.2,1.33,237.53,9.0,18.7,6.0,1.5,2.25,4.0,7.0,5.5,0.5,0.0,0.25,0.5,0.5,0.0,0.25,1.08,0.52,2.64,583.86,-8.2,55.4
3.12,1.75,0.5,2.0,1.75,1.25,2.25,1.5,1.0,0.25,0.75,0.75,1.0,1.5,-0.55,0.33,1.89,244.71,7.3,11.1,1.25,0.75,0.0,0.0,5.25,0.0,0.5,0.0,0.25,0.25,0.25,0.5,0.0,1.02,0.08,1.83,338.59,-4.6,44.3
3.14,1.25,0.5,2.25,1.75,1.25,1.0,0.75,1.0,0.25,1.0,0.75,0.5,1.5,-0.67,1.08,2.27,236.06,8.4,9.5,0.0,0.0,0.0,0.75,4.75,1.0,0.25,0.25,0.25,0.5,0.25,0.25,0.25,-0.17,0.2,1.27,188.3,3.3,26.8
3.16,1.5,0.5,2.0,1.75,1.25,1.0,1.5,1.0,0.25,1.0,0.5,0.75,1.5,-1.3,1.14,2.52,226.17,8.8,9.8,2.0,2.0,0.0,0.75,4.75,3.25,1.0,1.0,0.75,2.25,1.5,1.0,1.25,0.08,-0.42,2.33,116.11,0.1,11.4
3.18,1.75,0.5,2.0,1.75,1.25,2.25,2.0,1.0,0.25,1.25,0.5,0.5,1.5,-1.17,2.08,2.89,221.44,6.8,13.8,2.5,1.5,0.5,3.0,5.25,3.5,0.5,1.5,0.75,2.25,1.5,1.0,1.25,0.64,-0.86,2.33,126.15,-1.6,16.6
3.2,1.5,0.5,1.75,1.75,0.75,1.0,1.75,1.0,0.25,1.0,0.5,0.5,1.5,-0.61,2.89,1.14,206.43,9.0,9.3,2.0,1.75,0.5,1.25,5.0,1.5,0.5,1.75,0.75,2.25,1.5,1.0,1.25,0.89,-1.05,0.83,155.42,-1.7,9.6
3.22,1.75,0.25,1.75,1.75,1.25,2.25,1.75,1.25,0.25,2.5,0.5,1.75,1.5,-0.11,5.83,0.95,217.98,4.3,-3.9,1.25,1.75,0.5,1.25,5.0,1.25,0.5,1.5,0.75,2.25,1.5,1.0,0.75,0.45,-0.67,0.58,178.28,-1.5,9.9
3.24,0.75,0.75,1.75,1.75,0.75,2.25,1.5,2.0,0.25,2.5,1.25,1.75,1.75,5.2,7.95,-1.67,228.36,2.2,-14.0,1.5,0.25,0.0,0.75,1.25,1.25,0.0,0.0,0.25,0.75,0.25,0.0,0.25,0.08,-0.36,0.52,129.8,-3.7,32.4
3.26,0.25,0.25,0.0,0.0,0.0,1.0,0.75,1.25,0.0,2.5,0.25,2.5,2.0,-1.48,-0.98,3.83,213.61,-6.0,-64.3,0.75,0.25,0.0,0.5,1.25,1.0,0.0,0.0,0.25,0.75,0.25,0.0,0.25,-0.05,-0.23,0.45,73.76,-0.1,22.5
3.28,0.0,0.0,0.0,0.75,0.5,1.0,0.25,2.25,0.25,4.5,0.5,5.25,5.25,0.77,0.45,2.64,235.32,-6.5,-74.4,0.75,0.5,0.0,0.0,1.25,1.25,0.0,0.0,0.25,1.0,0.25,0.0,0.25,0.02,-0.11,0.64,28.54,2.5,18.8
3.3,2.0,0.0,0.25,1.0,0.5,1.0,0.0,4.25,0.75,4.75,3.75,6.75,7.0,0.02,0.89,1.83,303.55,-2.0,-63.5,1.25,0.5,0.0,0.75,1.25,1.25,0.0,0.25,0.25,0.75,0.25,0.0,0.25,0.2,-0.17,0.77,23.14,-2.2,30.1
3.32,1.0,0.0,0.0,1.5,0.5,3.5,0.0,5.0,1.5,5.75,3.0,6.75,7.75,0.27,-0.05,1.14,400.82,-5.3,-60.5,1.25,0.0,0.0,0.75,1.25,0.5,0.0,0.0,0.25,1.0,0.25,0.0,0.25,0.27,-0.17,0.89,33.68,-4.4,21.6
3.34,1.0,0.0,0.0,1.5,0.5,5.25,0.25,5.25,1.0,6.75,1.75,7.5,7.75,-0.05,0.08,1.08,510.4,-6.7,-57.2,1.25,0.25,0.0,0.75,1.25,0.75,0.0,0.0,0.0,0.75,0.25,0.0,0.25,0.27,-0.05,1.02,54.73,-4.2,32.6
3.36,2.0,0.0,2.25,1.75,0.75,3.5,0.25,5.5,1.0,6.25,0.5,6.75,7.75,-0.23,-0.05,0.95,581.94,-2.9,-46.6,2.0,0.5,0.0,0.5,1.25,1.25,0.0,0.0,0.25,0.75,0.25,0.0,0.25,0.2,0.08,1.33,72.38,-5.6,38.2
3.38,2.0,0.0,2.25,3.25,0.75,4.5,1.25,6.75,1.5,7.5,0.0,7.5,8.75,-0.17,-0.05,0.95,655.3,-3.0,-43.2,1.25,0.25,0.0,0.0,1.25,1.25,0.0,0.0,0.25,0.75,0.25,0.0,0.25,0.33,0.2,1.52,61.26,-0.4,26.0
3.4,1.25,0.5,2.5,3.0,1.25,4.5,1.5,6.75,1.75,6.5,3.75,7.5,8.75,-0.17,0.02,0.89,721.52,-1.8,-44.1,0.5,0.0,0.0,0.5,1.25,1.25,0.0,0.0,0.25,0.75,0.25,0.0,0.25,0.52,0.39,1.95,48.62,3.1,15.8
3.42,2.0,1.75,2.75,3.25,1.25,5.0,1.5,6.5,1.5,7.5,0.0,7.5,8.75,-0.17,-0.05,0.89,772.44,-2.0,-34.7,1.25,0.0,0.0,0.5,1.25,0.5,0.0,0.0,0.25,1.0,0.25,0.0,0.25,0.77,0.58,2.33,50.36,-3.8,19.8
3.44,2.0,0.25,2.25,3.25,1.25,6.25,1.5,6.75,1.75,7.5,2.5,7.5,7.75,-0.17,-0.05,0.95,811.3,-2.5,-38.7,0.75,0.0,0.0,0.5,1.25,0.75,0.0,0.0,0.25,1.25,0.25,0.0,0.25,1.02,1.2,2.83,60.72,0.9,9.2
3.46,2.0,0.5,2.5,3.25,3.5,6.25,1.75,7.25,2.0,7.5,2.25,7.25,8.75,-0.17,0.02,0.95,848.16,-2.6,-33.9,0.25,0.0,0.0,0.0,1.25,1.25,0.0,0.25,0.0,0.5,0.25,0.0,0.25,1.08,2.02,2.64,63.57,8.9,11.3
3.48,2.0,0.5,3.0,3.25,4.75,6.25,3.75,7.5,2.5,7.5,3.0,6.75,8.0,-0.17,-0.05,0.95,887.51,-1.4,-28.7,1.0,0.0,0.0,0.0,1.25,0.5,0.0,0.0,0.25,1.25,0.25,0.0,0.25,1.08,3.64,2.2,73.39,0.0,7.0
3.5,2.25,0.25,3.25,3.25,5.5,7.25,4.0,7.5,2.75,7.0,4.0,5.75,7.75,-0.17,-0.05,0.95,923.24,-1.2,-24.7,0.0,0.0,0.0,0.5,1.25,1.25,0.0,0.0,0.0,1.0,0.25,0.0,0.25,0.83,5.52,-1.92,71.01,8.4,5.5
3.52,2.25,0.25,3.75,3.25,5.5,7.5,4.5,7.5,3.25,6.25,4.0,5.5,7.0,-0.17,-0.05,0.95,931.69,-0.3,-21.5,1.25,0.0,0.0,0.5,1.25,0.0,0.0,0.0,0.25,1.25,0.25,0.25,0.25,-3.48,7.27,-0.61,73.34,-5.5,8.2
3.54,2.25,1.0,3.75,3.25,5.75,8.0,4.5,7.75,3.5,6.25,4.0,5.0,6.25,-0.17,-0.05,0.95,940.39,-0.3,-17.4,0.5,0.0,0.5,1.25,3.5,0.0,0.5,1.75,0.0,2.25,2.5,1.25,1.75,-0.92,-1.3,-2.55,126.25,0.0,-23.5
3.56,3.0,1.75,4.5,4.5,6.75,8.25,5.0,7.75,3.5,5.25,3.5,4.25,5.75,-0.17,-0.05,0.95,969.83,1.2,-7.1,1.0,0.0,0.25,0.5,1.25,0.75,0.0,1.5,0.75,5.0,1.5,3.5,2.25,0.77,0.39,0.27,189.5,2.6,-52.9
3.58,3.75,1.75,4.25,5.25,7.5,8.25,5.25,7.5,3.75,5.0,3.5,3.25,5.25,-0.17,-0.05,0.95,1002.08,1.8,-1.7,0.0,0.0,0.0,0.0,1.25,2.0,0.0,2.25,0.75,6.75,3.75,5.75,6.0,1.08,0.52,2.02,285.36,6.2,-72.1
3.6,3.75,1.75,4.75,5.25,8.25,9.0,5.5,7.5,3.5,5.0,3.0,3.0,3.75,-0.17,-0.05,0.95,1028.01,2.0,3.8,0.5,0.5,0.25,1.5,1.5,5.5,0.5,4.75,3.0,8.75,5.25,7.5,6.5,0.45,0.89,2.27,447.39,4.5,-52.9
3.62,3.75,1.75,4.75,5.5,8.75,9.0,5.75,7.5,3.5,4.75,3.0,2.0,3.75,-0.17,-0.05,0.95,1035.16,2.1,6.7,3.0,1.75,2.75,3.25,5.0,5.75,2.5,5.25,3.75,9.25,7.75,8.0,8.75,-0.11,0.27,1.08,731.48,-0.3,-32.2
3.64,4.5,2.0,4.75,7.0,9.25,9.5,6.0,7.5,3.5,4.25,3.0,2.0,3.75,-0.17,-0.05,0.95,1065.57,2.8,10.5,2.5,1.75,3.0,3.25,5.0,5.75,2.0,5.75,3.25,8.75,8.5,7.5,8.75,0.14,0.08,0.95,975.68,0.0,-32.5
3.66,5.5,2.0,4.75,7.0,10.5,9.75,6.25,7.25,3.25,4.0,2.75,2.0,3.5,-0.17,-0.05,1.08,1103.65,3.2,14.3,2.25,1.75,2.75,3.25,5.0,5.75,1.5,5.5,3.25,8.75,8.25,7.25,8.75,0.08,0.02,0.95,1144.05,0.3,-33.1
3.68,5.5,2.0,5.25,8.0,11.5,9.75,6.5,7.0,3.25,3.0,2.5,2.0,2.25,-0.17,-0.05,1.02,1138.72,4.3,20.3,2.5,1.5,2.75,2.25,5.0,5.75,1.5,5.5,2.75,8.75,7.75,7.25,8.25,0.14,0.02,0.95,1196.54,0.6,-33.7
3.7,6.25,2.75,6.25,8.75,12.5,9.75,6.25,6.75,3.25,2.75,1.5,2.0,2.0,-0.11,0.02,0.95,1186.2,5.3,26.0,1.75,0.5,2.25,0.75,5.0,4.5,1.5,5.5,2.0,7.75,7.25,6.0,8.25,0.14,0.02,0.95,1135.29,1.9,-40.2
3.72,7.25,3.0,6.25,10.5,13.0,9.75,6.75,6.75,3.0,2.75,1.5,1.75,2.25,-0.11,0.02,0.95,1254.3,5.9,28.4,1.75,1.5,0.5,3.0,1.5,5.75,1.0,4.75,2.75,8.5,6.75,6.5,8.0,0.2,0.02,0.89,1047.76,2.4,-42.9
3.74,8.75,3.5,6.75,11.5,13.5,9.75,7.0,6.5,2.75,2.75,1.25,1.75,1.5,-0.11,0.08,1.02,1326.07,7.1,33.1,2.5,1.75,2.75,2.75,5.0,5.75,1.25,5.5,3.25,8.5,6.5,6.5,7.5,0.14,0.02,0.95,1011.16,0.4,-29.5
3.76,9.5,3.5,6.75,13.0,14.5,10.0,7.25,6.5,2.75,2.75,2.0,1.75,1.75,-0.11,0.08,1.02,1400.72,7.3,33.0,2.0,1.5,2.5,2.75,5.25,5.75,1.5,5.5,3.0,8.25,7.25,6.5,8.0,0.08,0.02,0.95,993.17,0.8,-32.0
3.78,10.5,3.5,8.75,13.5,15.0,9.75,7.25,6.5,2.25,2.75,1.5,1.75,1.75,-0.11,0.14,1.14,1475.71,8.4,35.8,2.5,1.5,2.5,3.25,5.0,5.75,1.5,5.5,3.0,8.0,7.0,6.5,7.75,0.08,0.02,0.95,971.63,0.3,-29.9
3.8,12.5,3.5,8.75,13.5,15.5,9.75,6.5,6.0,1.75,2.75,1.5,1.75,1.75,-0.23,0.14,1.33,1537.07,8.9,38.2,2.75,1.5,2.75,3.25,5.0,5.75,1.5,5.5,3.25,7.75,7.0,6.5,7.5,0.08,0.02,0.95,948.04,-0.1,-28.5
3.82,13.5,3.5,9.5,13.5,15.0,9.25,6.25,5.75,1.75,2.5,1.5,1.75,1.75,-0.36,0.2,1.45,1577.48,9.9,39.6,2.0,1.75,2.5,2.75,5.0,5.75,1.5,5.5,3.25,7.75,7.0,6.5,7.5,0.14,0.02,0.89,905.27,0.5,-30.6
3.84,14.5,5.0,9.75,12.5,14.0,8.25,5.75,5.5,1.5,2.5,1.5,1.75,1.75,-0.48,0.33,1.7,1591.89,10.8,41.6,3.25,1.75,2.5,3.25,5.0,5.75,1.75,5.5,3.75,7.75,7.0,6.0,7.5,0.14,0.02,0.95,873.67,-0.3,-26.6
3.86,14.5,5.0,9.75,10.5,12.0,7.5,6.25,5.0,1.0,2.5,1.5,1.75,1.75,-0.86,0.64,2.14,1552.9,11.6,41.8,3.5,1.75,2.75,2.75,5.25,6.0,1.75,5.5,4.0,7.75,7.0,6.0,7.25,0.14,0.02,0.95,865.58,-0.5,-25.6
3.88,9.0,1.75,7.75,3.75,6.75,3.25,5.5,1.75,0.75,0.5,1.25,0.75,1.75,-1.17,0.45,2.64,1280.81,15.2,42.5,3.75,1.75,2.75,2.75,5.25,6.0,2.25,5.5,4.0,7.5,7.0,5.75,6.25,0.08,0.02,0.95,877.65,-1.0,-22.9
3.9,4.75,0.0,3.75,1.75,1.25,1.0,3.0,1.0,0.25,0.0,0.0,0.25,0.5,-1.17,0.02,2.33,761.35,21.0,49.6,4.0,1.75,2.75,3.25,5.25,6.0,2.25,5.5,4.25,7.0,6.5,5.5,6.25,0.08,0.02,0.95,886.88,-1.3,-20.5
3.92,2.25,0.0,1.0,1.75,0.0,1.0,0.75,1.0,0.0,0.0,0.0,0.25,0.0,-0.36,-0.23,1.58,342.89,15.9,46.6,3.75,1.75,2.75,3.25,5.25,6.25,2.25,5.5,4.5,6.75,6.5,5.25,5.5,0.14,0.02,0.95,887.25,-1.4,-19.1
3.94,2.5,0.75,3.0,2.5,1.25,1.5,1.5,0.75,0.5,0.0,0.75,0.25,1.75,-0.17,-0.17,2.77,165.18,13.3,28.1,3.75,2.25,3.0,3.5,6.25,6.25,2.25,5.5,4.75,6.5,5.75,4.0,5.25,0.14,0.02,0.95,889.36,-1.5,-12.7
3.96,0.75,0.25,1.0,1.75,0.0,1.0,1.5,0.0,0.25,0.0,0.0,0.0,0.0,-1.23,-1.3,3.08,0.0,18.0,53.2,4.5,2.25,3.0,3.25,6.75,6.5,2.75,5.5,4.75,6.0,5.75,3.5,4.25,0.14,0.02,0.95,881.69,-2.2,-7.6
3.98,1.0,0.25,2.0,1.25,0.0,1.0,1.5,1.0,0.0,0.0,0.0,0.25,0.0,-1.23,-1.11,0.83,0.0,16.6,40.7,4.5,2.25,3.25,3.5,6.75,6.75,3.0,5.25,4.75,5.25,5.0,2.5,3.75,0.14,0.02,0.95,863.06,-2.7,-2.0
4.0,0.5,0.25,2.25,0.25,0.0,0.0,1.5,0.0,0.0,0.0,0.0,0.25,0.0,-0.92,-0.61,0.52,0.0,32.3,51.5,6.0,2.25,3.5,5.25,7.0,7.25,3.25,4.75,4.75,5.0,4.75,2.5,3.25,0.08,0.02,0.95,876.06,-4.2,5.0
4.02,0.5,0.25,2.25,0.5,0.5,0.0,1.5,0.75,0.0,0.0,0.0,0.0,0.0,-0.55,-0.36,-0.05,0.0,22.4,47.1,6.75,2.5,5.25,5.75,8.25,7.5,3.75,4.5,4.0,5.0,4.5,1.75,2.25,0.08,0.02,0.95,911.83,-5.8,14.4
4.04,0.5,0.0,2.25,1.0,0.5,0.75,1.5,0.75,0.0,0.0,0.0,0.0,0.5,-0.48,-0.3,0.08,0.0,15.2,33.3,7.75,3.25,5.5,7.5,9.25,7.75,4.25,4.5,3.5,4.75,3.75,1.25,2.25,0.14,0.08,1.14,980.7,-6.5,21.6
4.06,0.75,0.0,2.0,1.75,0.0,1.0,0.5,0.5,0.0,0.0,0.0,0.25,1.0,-0.36,-0.36,0.77,0.0,13.3,23.7,8.5,3.25,6.25,7.5,9.5,7.75,3.75,4.0,3.25,4.75,3.5,1.25,2.25,0.08,0.02,1.14,1045.09,-7.2,24.1
4.08,0.75,0.25,1.75,1.25,0.0,1.75,1.5,0.5,0.25,2.0,0.0,0.75,0.0,-0.36,-0.36,1.08,0.0,7.5,9.4,9.0,3.0,6.75,7.5,11.0,7.75,2.75,4.0,2.75,4.0,2.75,1.25,2.25,-0.05,0.08,1.14,1097.34,-7.4,28.1
4.1,0.25,0.25,2.0,0.5,0.0,1.0,1.5,0.75,0.0,0.0,0.0,0.25,0.0,-0.36,-0.11,1.02,13.57,15.7,34.8,9.0,2.75,5.5,8.25,11.0,7.5,1.5,2.5,2.0,3.75,2.0,1.25,0.25,0.08,0.14,1.33,1076.75,-8.0,36.7
4.12,1.0,0.25,2.5,1.0,0.75,1.75,1.75,1.0,0.25,0.25,0.25,0.25,0.5,-0.36,0.08,0.89,94.23,11.1,27.2,9.75,3.25,5.5,8.0,11.0,7.5,1.0,3.25,1.5,3.5,1.5,1.0,1.0,0.27,0.2,1.39,1052.53,-7.7,37.7
4.14,2.0,0.5,2.0,2.75,1.25,1.0,1.5,1.25,0.25,0.5,0.0,0.25,0.25,-0.36,0.2,1.02,147.66,13.1,38.9,9.5,3.75,3.5,8.5,9.5,0.0,0.0,2.25,1.0,2.25,2.25,0.5,1.25,0.39,0.27,1.7,924.02,-12.3,42.0
4.16,0.25,0.25,1.0,1.0,0.75,1.0,1.25,1.0,0.0,0.0,0.5,0.75,0.5,-0.36,0.27,1.2,153.1,6.7,6.8,8.25,2.5,2.75,6.5,8.25,0.0,0.25,1.75,0.5,0.25,1.5,0.5,0.25,0.45,0.45,1.89,744.91,-14.2,52.2
4.18,0.25,0.25,2.5,0.75,0.75,1.0,1.25,0.5,0.0,0.0,0.0,0.25,0.0,-0.36,0.39,1.45,142.38,16.0,42.6,6.5,1.5,2.75,4.0,8.25,0.0,0.25,1.5,0.75,0.5,1.5,0.0,0.25,0.77,0.58,2.45,556.0,-12.9,49.1
4.2,1.25,0.5,2.25,2.5,1.25,2.25,1.5,1.0,0.0,1.25,0.5,1.0,1.5,-0.48,0.52,1.77,177.63,6.6,11.0,4.5,0.75,0.0,2.0,3.0,3.25,0.0,0.5,0.25,0.5,0.75,0.25,0.25,0.89,0.45,2.39,360.57,-6.4,44.9
4.22,1.25,0.75,2.25,2.5,1.25,1.0,2.0,1.0,0.25,2.0,0.5,1.0,1.5,-0.55,0.77,2.02,204.65,8.2,6.3,1.25,0.75,0.0,0.75,1.25,0.0,0.0,0.75,0.75,1.25,0.75,0.25,0.0,0.52,0.08,2.2,212.16,-5.8,10.0
4.24,2.0,0.5,1.75,0.75,1.25,1.0,1.5,1.0,0.0,0.0,0.5,0.25,1.5,-0.67,1.14,2.45,211.48,10.6,21.6,1.5,0.5,0.0,0.0,1.25,0.0,0.0,0.25,0.75,1.0,0.25,0.25,0.25,-0.67,0.14,1.39,74.77,-6.7,12.7
4.26,0.25,0.25,0.0,0.75,0.75,1.0,1.25,0.25,0.0,0.0,0.0,0.25,0.25,-0.73,1.64,2.64,175.67,3.2,27.8,1.25,0.25,0.0,0.0,1.25,0.25,0.0,0.5,0.5,0.0,0.5,0.0,0.25,0.77,0.39,1.64,0.0,-6.8,25.1
4.28,0.25,0.25,0.0,0.5,0.0,1.0,1.25,0.25,0.0,0.0,0.0,0.0,0.0,-0.67,2.2,2.58,124.06,4.9,41.8,1.25,1.0,0.0,0.0,0.0,1.25,0.0,0.25,0.75,0.5,0.25,0.25,0.25,0.77,-0.36,1.08,0.0,-4.4,18.9
4.3,0.25,0.0,0.0,0.25,0.0,1.0,1.5,0.75,0.0,0.0,0.0,0.0,0.25,-0.17,2.7,1.52,73.39,-0.5,10.2,0.5,0.25,0.0,0.5,1.0,0.0,0.0,0.25,0.75,1.5,0.25,0.25,0.25,0.08,-0.3,0.89,0.0,-1.3,-10.9
4.32,0.25,0.25,0.0,0.75,0.75,1.0,1.25,1.0,0.0,0.0,0.0,0.0,0.0,1.14,4.52,-0.42,52.82,0.6,32.0,0.0,0.5,0.0,0.5,1.25,0.0,0.0,0.25,0.5,1.0,0.25,0.25,0.25,-0.17,0.08,0.64,0.0,0.3,-3.8
4.34,0.25,0.25,1.0,0.5,0.5,1.0,1.25,1.0,0.0,0.0,0.0,0.25,0.0,2.45,4.77,-0.86,55.38,7.6,28.6,1.25,0.25,0.0,0.75,0.0,0.0,0.0,0.25,0.25,0.5,0.25,0.0,0.25,-0.48,0.83,0.64,0.0,-12.8,22.0
4.36,0.0,0.0,0.25,0.25,0.5,0.0,1.5,1.25,0.0,0.0,0.5,0.25,1.5,0.89,2.27,-0.48,57.67,0.1,-37.5,1.0,0.5,0.0,0.0,1.25,0.0,0.0,0.25,0.25,0.0,0.25,0.25,0.25,-0.61,1.2,0.27,0.0,-8.3,30.6
4.38,1.0,0.0,0.0,0.25,0.0,3.0,0.75,2.5,0.0,4.25,0.0,1.75,3.75,-3.23,-0.55,-2.05,121.49,-9.6,-49.0,1.25,0.75,0.0,0.75,0.0,0.0,0.0,0.25,0.25,0.5,0.25,0.25,0.25,-0.48,1.33,-0.23,0.0,-12.6,23.5
4.4,0.75,0.25,0.25,0.75,0.75,4.5,0.25,5.5,0.25,5.25,0.0,3.25,5.75,-0.98,1.08,2.08,221.94,-9.8,-46.5,1.25,0.25,0.0,0.0,1.25,0.25,0.0,0.25,0.5,0.0,0.25,0.25,0.25,-0.42,1.2,-0.3,9.69,-8.0,26.6
4.42,1.0,0.0,1.5,1.5,3.5,6.75,0.75,7.5,0.25,8.75,2.25,6.25,8.5,2.45,-0.86,2.7,389.53,-6.8,-42.2,0.5,0.0,0.0,0.5,0.0,0.0,0.0,0.25,0.25,0.25,0.25,0.25,0.25,-0.42,1.08,0.14,22.68,-8.6,-14.4
4.44,2.0,0.75,2.25,3.25,3.75,7.5,0.0,8.5,1.75,9.75,2.75,8.25,9.75,-0.11,0.33,1.89,648.97,-4.3,-37.3,0.5,0.0,0.0,1.25,0.0,1.0,0.0,0.25,0.0,0.0,0.25,0.25,0.25,-0.48,1.08,0.45,42.13,-3.8,18.8
4.46,0.25,0.75,2.25,3.25,4.25,8.0,1.5,9.5,2.75,10.5,5.75,8.75,10.5,-0.17,0.08,1.52,954.9,-4.4,-42.1,0.0,0.5,0.0,0.5,1.25,0.0,0.0,0.0,0.25,0.75,0.25,0.0,0.25,-0.55,1.2,0.64,50.58,-0.2,11.5
4.48,2.0,0.75,2.5,3.25,3.75,8.25,2.5,9.5,2.5,9.75,6.5,8.25,10.5,0.08,-0.05,1.08,1187.42,-3.0,-37.9,0.5,0.25,0.0,0.75,1.25,0.0,0.0,0.0,0.25,0.5,0.25,0.25,0.25,-0.73,1.33,0.58,58.06,-5.5,16.3
4.5,2.0,0.75,3.0,3.25,5.25,9.0,2.75,9.5,2.25,9.5,5.75,7.5,9.5,-0.23,0.02,0.89,1315.7,-3.0,-31.7,1.25,0.25,0.0,0.5,1.25,0.25,0.0,0.0,0.25,0.5,0.25,0.0,0.25,-0.61,1.45,0.39,66.46,-7.6,33.1
4.52,2.25,1.25,3.75,3.25,5.5,9.75,3.75,9.5,2.0,7.5,3.0,5.75,7.75,-0.3,0.02,0.95,1314.92,-2.4,-19.9,0.75,0.25,0.0,0.5,1.25,0.0,0.0,0.0,0.25,0.5,0.25,0.0,0.25,-0.3,1.52,0.14,69.74,-6.2,25.8
4.54,2.25,1.25,4.75,3.25,6.75,11.0,3.0,9.5,1.75,6.25,3.0,5.0,6.5,-0.3,0.08,0.89,1284.48,-2.1,-12.1,1.0,0.0,0.0,0.0,1.25,0.0,0.0,0.0,0.25,0.25,0.75,0.0,0.25,0.14,1.45,-0.11,68.78,-8.1,14.8
4.56,2.25,1.75,3.75,3.25,7.5,12.0,4.0,9.5,2.0,5.5,3.0,3.5,6.0,-0.3,0.14,0.95,1231.76,-2.6,-6.7,0.5,0.5,0.0,0.0,1.5,0.0,0.0,0.0,0.25,0.5,0.5,0.0,0.25,0.33,1.52,-0.61,68.02,-3.3,18.4
4.58,2.75,1.75,4.75,3.5,7.75,12.0,4.5,9.5,1.75,5.0,2.75,3.25,5.25,-0.3,0.08,1.02,1193.07,-1.4,-1.5,1.25,0.0,0.0,0.5,1.25,0.0,0.0,0.0,0.25,0.5,0.75,0.0,0.25,-0.42,1.33,-0.86,71.63,-9.1,18.8
4.6,3.75,1.75,4.75,3.25,7.75,12.0,3.75,9.25,1.75,5.0,2.5,3.25,4.0,-0.42,0.14,1.08,1141.11,-0.8,2.2,0.0,0.25,0.25,0.5,5.0,0.75,0.5,1.25,0.25,0.5,1.5,0.25,1.75,-7.98,7.14,-0.3,116.7,2.8,-1.4
4.62,3.75,1.75,4.75,3.25,8.25,13.0,4.0,9.25,1.75,4.75,1.75,2.5,3.75,-0.42,0.02,1.02,1083.15,-1.3,6.3,0.75,0.25,0.0,0.0,1.25,0.5,0.0,0.0,0.0,0.5,0.25,0.25,0.25,0.58,2.39,-1.3,113.59,-1.3,18.4
4.64,3.75,1.75,4.75,3.25,8.5,13.0,4.0,9.0,1.75,4.75,1.5,2.0,3.75,-0.3,0.33,1.14,1023.64,-1.3,8.0,0.75,0.25,0.0,0.5,1.25,0.0,0.0,0.0,0.25,0.25,0.25,0.0,0.25,-1.3,1.2,0.2,108.9,-7.6,32.3
4.66,3.75,1.75,4.75,3.25,8.5,13.0,2.75,8.5,1.5,4.25,1.75,2.0,3.75,-0.3,0.39,1.08,962.07,-1.4,8.8,0.0,0.25,0.0,0.5,1.25,1.25,0.0,0.0,0.0,0.5,0.25,0.0,0.25,-3.11,1.02,1.89,90.53,6.4,20.2
4.68,3.75,1.75,4.75,3.75,8.5,13.0,1.5,8.25,1.0,3.75,1.5,2.0,3.75,-0.42,0.45,1.14,917.02,-1.6,10.8,0.5,0.25,0.0,0.5,1.25,1.25,0.0,0.0,0.25,0.0,0.25,0.0,0.25,-2.55,1.08,1.08,81.22,0.2,35.3
4.7,4.0,1.75,4.75,3.25,8.0,12.0,2.25,8.0,1.0,3.0,0.0,1.75,2.75,-0.48,0.45,1.33,856.86,-0.9,16.7,1.25,0.0,0.0,0.75,1.25,0.5,0.0,0.25,0.0,0.75,0.25,0.0,0.25,-1.73,1.27,0.2,77.68,-4.0,26.1
4.72,4.25,1.75,4.25,2.0,7.75,11.0,1.5,7.5,0.25,2.75,0.75,1.75,2.0,-0.8,0.52,1.27,784.0,-1.0,17.5,0.5,0.25,0.0,0.75,1.25,0.5,0.0,0.0,0.0,0.75,0.25,0.0,0.25,-1.61,1.14,0.08,79.19,-1.0,22.8
4.74,4.75,1.75,1.0,2.75,7.5,9.5,0.25,6.75,0.0,2.5,1.0,1.75,1.75,-2.23,1.08,0.83,687.7,-2.7,16.8,1.0,0.0,0.0,0.5,1.0,1.0,0.0,0.25,0.0,0.75,0.25,0.0,0.25,-1.3,0.58,0.52,81.85,0.1,20.3
4.76,2.75,1.5,0.0,3.0,5.5,7.0,0.75,5.0,0.0,0.5,0.5,1.75,1.75,-2.8,1.7,-0.11,544.14,-3.0,16.7,0.5,0.25,0.0,0.5,1.0,1.0,0.0,0.0,0.0,0.5,0.25,0.0,0.25,-0.73,0.08,0.95,76.68,1.2,25.5
4.78,1.25,0.5,2.25,2.5,0.75,5.5,0.25,3.0,0.25,0.5,0.0,1.75,1.75,-0.86,2.52,-1.8,377.96,0.0,6.5,1.25,0.0,0.0,0.25,1.25,0.5,0.0,0.0,0.0,0.5,0.25,0.0,0.25,-0.11,-0.17,0.95,72.98,-4.8,31.8
4.8,0.25,0.25,0.5,0.5,0.0,2.75,0.0,2.25,0.0,0.0,0.0,1.75,1.75,0.45,2.58,1.39,235.29,-6.6,-28.0,0.75,0.0,0.0,0.5,1.25,0.75,0.0,0.0,0.0,0.25,0.25,0.0,0.25,0.39,-0.36,0.89,67.14,-1.8,32.7
4.82,0.25,0.25,2.25,1.0,1.25,2.5,0.25,2.25,0.0,1.25,0.5,1.75,1.75,0.02,1.45,1.64,148.16,0.1,-12.7,1.0,0.5,0.0,0.5,1.25,0.75,0.0,0.0,0.25,0.75,0.25,0.0,0.25,0.89,-0.67,0.7,71.74,-3.1,28.7
4.84,0.5,0.5,1.0,2.75,0.0,2.5,0.0,1.0,0.0,0.25,0.0,0.25,1.5,-0.61,2.08,0.33,71.91,1.7,14.7,1.0,0.25,0.0,0.5,1.25,0.25,0.0,0.0,0.25,0.75,0.25,0.0,0.25,1.52,-1.17,0.52,72.49,-5.1,24.5
4.86,1.75,0.5,1.5,1.75,0.75,3.0,0.25,0.25,0.0,1.25,0.5,1.75,1.5,0.08,1.58,-1.36,63.8,4.5,3.8,2.0,0.25,0.0,0.5,1.0,1.25,0.0,0.0,0.25,0.75,0.25,0.0,0.25,1.83,-1.55,0.2,91.7,-5.7,35.1
4.88,2.0,0.25,2.25,0.0,1.25,2.75,0.25,1.25,0.25,1.5,0.5,1.75,1.75,-1.36,2.58,-0.67,74.58,3.2,-5.0,0.5,0.25,0.0,0.5,1.25,1.0,0.0,0.0,0.25,0.5,0.25,0.0,0.25,1.89,-1.67,0.2,90.11,0.7,24.0
4.9,1.75,0.5,2.25,0.0,1.25,2.25,0.25,1.25,0.0,1.0,0.5,1.5,1.75,-3.42,2.02,-0.98,95.23,4.2,-1.1,1.25,0.25,0.0,0.5,1.0,0.75,0.0,0.0,0.0,0.75,0.25,0.0,0.25,1.89,-1.73,0.45,89.74,-4.0,30.2
4.92,0.25,0.5,2.25,0.0,1.25,2.25,0.25,1.25,0.0,1.25,0.25,1.5,1.5,-2.92,1.7,-0.55,100.74,0.6,-10.0,0.5,0.0,0.0,0.25,1.25,0.5,0.0,0.0,0.0,0.5,0.5,0.0,0.25,1.95,-1.73,0.7,78.72,0.2,13.3
4.94,1.0,0.5,2.25,0.25,1.25,2.25,0.25,1.0,0.0,1.0,0.0,1.75,0.0,-1.36,1.14,-0.11,108.57,5.7,12.7,1.0,0.0,0.0,0.5,1.25,0.5,0.0,0.0,0.25,0.75,0.25,0.0,0.25,1.95,-1.73,0.64,76.84,-3.3,21.0
4.96,0.25,0.25,2.5,0.0,1.25,1.0,0.25,1.25,0.0,0.0,0.0,0.25,1.75,-1.05,0.7,-0.11,104.76,4.9,5.0,1.5,0.75,0.0,0.5,1.25,1.0,0.0,0.0,0.0,0.5,0.25,0.0,0.25,1.83,-1.42,0.52,83.17,-5.3,44.2
4.98,0.5,0.25,0.25,0.25,0.75,0.5,0.25,1.0,0.0,0.0,0.0,0.5,0.25,-0.86,0.64,0.2,84.1,1.8,10.3,0.5,0.0,0.0,0.5,1.25,0.5,0.0,0.0,0.0,1.0,0.25,0.0,0.25,1.58,-1.11,0.39,81.57,1.5,10.7
5.0,0.25,0.0,1.0,0.25,1.25,1.0,1.25,1.0,0.0,0.0,0.0,0.25,0.0,-0.61,0.58,0.52,78.65,5.2,27.8,0.75,0.0,0.0,0.5,1.25,0.5,0.0,0.0,0.0,0.75,0.25,0.0,0.25,1.27,-0.86,0.33,79.76,-1.1,20.3
5.02,1.0,0.25,0.25,2.75,0.5,2.25,0.5,0.5,0.0,0.5,0.0,0.25,0.5,-0.42,0.33,0.39,92.23,3.4,29.7,1.0,0.25,0.0,0.75,1.0,1.25,0.0,0.0,0.0,0.5,0.25,0.0,0.25,0.89,-0.73,0.45,80.03,-1.8,33.9
5.04,1.25,0.5,2.25,1.0,1.25,1.0,1.5,1.0,0.0,1.25,0.0,1.25,1.5,-0.11,-0.23,0.27,127.19,7.9,4.3,0.75,0.25,0.0,0.5,1.25,0.75,0.0,0.0,0.0,0.25,0.25,0.0,0.25,0.52,-0.55,0.52,76.8,-2.4,36.5
5.06,1.0,0.5,2.25,2.75,1.25,2.25,1.5,1.0,0.0,1.25,0.0,1.5,1.5,-0.05,-0.73,0.27,167.89,6.3,9.4,0.5,0.25,0.0,0.5,1.25,1.25,0.0,0.0,0.0,0.75,0.25,0.0,0.25,0.39,-0.55,0.52,77.14,3.0,22.6
5.08,1.0,0.25,2.25,2.75,1.75,2.25,1.5,1.0,0.0,1.25,0.0,0.75,1.5,-0.05,-1.05,0.45,203.59,5.7,15.2,0.5,0.25,0.0,0.5,1.25,1.0,0.0,0.0,0.25,0.75,0.25,0.0,0.25,0.39,-0.55,0.52,79.18,1.4,19.1
5.1,1.0,0.25,2.25,2.5,1.25,2.25,1.5,1.0,0.0,1.25,0.0,0.25,1.5,-0.17,-1.11,0.52,216.51,5.8,17.2,1.0,0.0,0.0,0.5,1.0,0.5,0.0,0.0,0.0,0.5,0.25,0.0,0.25,0.33,-0.55,0.52,75.67,-4.4,28.2
5.12,1.0,0.25,2.25,2.5,1.25,2.25,1.5,1.0,0.0,1.25,0.5,0.25,1.5,-0.23,-1.11,0.52,223.23,5.9,14.2,0.75,0.0,0.0,0.5,1.0,0.0,0.0,0.0,0.0,0.75,0.25,0.0,0.25,0.2,-0.55,0.52,69.42,-4.6,15.8
5.14,0.25,0.5,2.25,1.75,1.25,2.25,1.5,1.0,0.0,0.5,0.5,1.0,1.5,-0.23,-0.98,0.27,220.95,5.3,7.2,0.5,0.0,0.0,0.5,1.0,0.75,0.0,0.0,0.0,0.75,0.25,0.0,0.25,0.14,-0.48,0.52,65.42,1.7,14.3
5.16,0.25,0.5,0.75,0.5,0.75,2.0,1.5,0.25,0.0,0.75,0.0,0.5,1.0,-0.05,-0.98,0.02,193.97,0.5,5.9,0.5,0.25,0.0,0.0,1.0,0.5,0.0,0.0,0.0,0.75,0.25,0.0,0.25,0.02,-0.48,0.58,60.55,2.1,12.7
5.18,1.25,0.5,2.25,1.75,1.25,2.25,1.5,1.0,0.0,0.75,0.0,0.25,1.5,0.14,-0.92,-0.3,194.15,6.5,21.2,0.0,0.0,0.0,0.25,1.25,1.0,0.0,0.0,0.0,0.75,0.25,0.0,0.25,-0.17,-0.36,0.64,57.87,8.8,5.5
5.2,1.0,0.5,2.25,1.75,1.25,2.25,1.5,1.0,0.0,1.25,0.0,1.0,1.5,0.27,-0.86,-0.42,199.97,5.4,10.0,1.0,0.0,0.0,0.5,1.25,1.25,0.0,0.0,0.0,0.75,0.25,0.0,0.25,-0.23,-0.42,0.52,65.82,0.5,25.5
5.22,1.25,0.5,2.25,2.25,1.25,2.5,1.5,1.0,0.0,1.25,0.0,0.75,1.5,0.33,-0.86,-0.48,215.51,5.8,15.2,0.75,0.25,0.0,0.75,1.25,0.5,0.0,0.0,0.0,0.75,0.25,0.0,0.25,-0.17,-0.36,0.45,73.4,-2.6,26.4
5.24,1.25,0.5,2.25,1.75,1.25,2.5,1.5,1.0,0.0,1.25,0.25,1.0,1.5,0.39,-0.92,-0.55,220.69,5.5,10.3,1.25,0.25,0.0,0.5,1.25,0.5,0.0,0.0,0.0,0.5,0.25,0.0,0.25,-0.48,-0.23,0.64,78.2,-5.9,36.8
5.26,1.25,0.25,2.25,2.0,1.25,2.25,1.5,1.0,0.0,1.25,0.0,1.0,1.5,0.39,-1.05,-0.55,222.2,6.0,10.7,0.5,0.25,0.0,0.5,1.25,1.0,0.0,0.0,0.25,0.75,0.25,0.0,0.25,-0.98,-0.11,0.77,80.73,1.4,19.1
5.28,1.25,0.5,2.25,2.0,1.25,2.25,1.5,1.0,0.0,1.25,0.0,0.25,1.5,0.39,-1.11,-0.48,216.68,6.0,18.5,0.5,0.0,0.0,0.5,1.25,0.5,0.0,0.0,0.0,0.5,0.25,0.0,0.25,-1.23,0.02,0.77,76.87,-0.2,21.8
5.3,1.25,0.25,2.25,1.75,0.75,2.25,1.25,1.0,0.0,0.5,0.5,0.5,1.5,0.39,-1.11,-0.36,207.14,7.2,14.0,0.0,0.0,0.0,0.25,1.25,0.5,0.0,0.0,0.0,0.75,0.25,0.0,0.25,-1.55,0.08,1.08,67.9,6.9,1.5
5.32,1.0,0.5,2.25,1.75,1.25,2.25,1.5,1.0,0.0,1.25,0.25,0.5,1.5,0.39,-1.11,-0.3,207.53,5.4,12.7,1.0,0.0,0.0,0.5,1.0,0.0,0.0,0.0,0.0,0.0,0.25,0.0,0.25,-1.73,0.2,1.08,60.1,-11.8,44.0
5.34,1.25,0.25,2.25,1.75,1.25,2.25,1.5,1.0,0.0,1.0,0.5,0.25,1.5,0.33,-1.11,-0.36,207.4,6.2,14.7,0.5,0.0,0.0,1.0,1.0,0.75,0.0,0.0,0.0,0.75,0.25,0.0,0.25,-1.73,0.27,1.02,63.0,-0.3,19.2
5.36,1.75,0.25,2.25,1.75,1.25,2.25,1.5,1.0,0.0,1.25,0.0,0.5,1.5,0.27,-0.92,-0.48,211.42,6.6,16.7,1.25,1.5,0.0,1.0,1.25,1.25,0.0,0.0,0.0,0.5,0.25,0.0,0.25,-1.73,0.52,0.89,83.49,-5.1,48.9
5.38,1.75,0.5,2.25,1.75,1.25,2.25,1.5,1.0,0.0,1.25,0.0,1.0,1.5,0.2,-0.67,-0.67,217.72,6.8,14.0,0.0,0.25,0.0,0.5,1.25,0.75,0.0,0.0,0.0,0.75,0.25,0.0,0.0,-1.67,0.52,0.58,83.31,4.5,20.9
5.4,1.5,0.5,2.25,1.75,0.75,2.25,1.5,1.0,0.0,1.25,0.5,1.0,1.5,0.33,-0.55,-0.73,220.94,6.9,8.3,0.75,0.25,0.0,0.5,1.25,1.0,0.0,0.0,0.0,0.75,0.25,0.0,0.0,-1.55,0.52,0.58,86.77,-0.2,32.6
5.42,1.25,0.25,2.25,1.75,1.25,2.25,1.5,1.0,0.0,1.25,0.5,1.0,1.5,0.45,-0.42,-0.8,217.6,5.9,7.1,0.5,0.0,0.0,0.5,1.0,0.75,0.0,0.0,0.0,0.5,0.25,0.0,0.0,-1.48,0.45,0.45,74.9,0.0,29.4
5.44,1.5,0.5,2.25,1.75,1.25,2.25,1.5,1.0,0.0,1.25,0.5,1.0,1.5,0.64,-0.17,-0.73,219.49,6.5,10.0,1.0,0.0,0.0,0.5,1.25,0.0,0.0,0.0,0.0,0.25,0.25,0.0,0.0,-1.42,0.33,0.52,66.41,-10.4,47.6
5.46,1.0,0.25,2.25,1.75,1.25,2.5,1.25,1.0,0.0,0.5,0.5,1.0,1.5,0.77,-0.05,-0.67,216.06,5.9,10.2,0.5,0.0,0.0,0.5,1.25,0.25,0.0,0.0,0.0,0.5,0.25,0.0,0.0,-1.23,0.33,0.52,58.29,-2.9,30.8
5.48,1.0,0.25,2.25,2.0,0.75,2.5,1.5,1.0,0.0,0.0,0.0,1.25,1.5,0.77,0.08,-0.61,209.45,7.5,13.5,0.5,0.25,0.0,0.5,1.25,0.25,0.0,0.0,0.0,0.5,0.25,0.0,0.0,-1.17,0.33,0.64,58.08,-3.5,35.6
5.5,1.0,0.5,2.25,1.75,0.75,2.25,0.75,1.0,0.0,1.25,0.5,1.0,1.5,0.83,0.2,-0.23,205.86,5.3,4.9,0.5,0.0,0.0,0.5,1.0,0.5,0.0,0.0,0.0,0.75,0.25,0.0,0.0,-1.36,0.33,0.7,57.45,-0.4,21.9
5.52,1.25,0.5,1.25,1.75,0.75,2.25,1.25,1.0,0.0,1.0,0.5,1.0,1.5,0.83,0.27,-0.11,200.28,4.2,4.1,0.5,0.25,0.0,0.5,1.25,0.25,0.0,0.0,0.0,0.5,0.25,0.0,0.0,-1.48,0.33,0.83,58.62,-3.5,35.6
5.54,1.0,0.25,1.5,1.75,1.25,2.25,1.5,1.0,0.0,0.75,0.5,1.0,1.5,0.64,0.52,0.2,197.72,4.4,5.5,1.25,0.0,0.0,0.5,1.25,0.5,0.0,0.0,0.0,0.25,0.25,0.0,0.0,-1.48,0.39,0.89,61.66,-8.0,48.9
5.56,1.0,0.5,1.0,2.25,1.25,2.25,1.25,1.0,0.0,0.5,0.5,0.75,1.5,0.27,0.64,0.33,193.88,3.8,10.7,0.5,0.25,0.0,0.5,1.25,0.0,0.0,0.0,0.0,0.0,0.25,0.0,0.0,-1.3,0.45,0.77,56.97,-8.9,54.7
5.58,1.0,0.5,2.25,2.5,1.25,2.25,1.5,1.0,0.0,0.5,0.5,0.5,1.5,-0.3,0.95,0.52,199.68,7.2,18.2,0.75,0.0,0.0,0.0,1.0,0.5,0.0,0.0,0.0,0.25,0.25,0.0,0.0,-1.17,0.33,0.77,50.96,-3.0,38.7
5.6,1.0,0.5,2.25,2.5,0.75,2.0,1.5,1.0,0.0,0.25,0.25,0.5,1.5,-1.11,1.14,0.52,198.57,8.6,19.8,1.0,0.0,0.0,0.25,1.25,0.0,0.0,0.0,0.0,0.0,0.25,0.0,0.25,-1.23,0.2,0.89,47.72,-10.0,43.7
5.62,1.0,0.5,2.25,2.25,0.75,2.25,1.5,1.0,0.0,1.0,0.0,0.5,1.75,-1.8,1.2,0.33,201.67,6.1,13.5,0.75,0.25,0.0,0.5,1.25,0.75,0.0,0.0,0.0,0.75,0.25,0.0,0.0,-0.98,0.14,1.02,58.26,-1.4,32.6
5.64,1.0,0.5,2.25,2.5,1.25,2.0,1.5,1.0,0.0,0.0,0.0,0.75,2.0,-2.05,1.08,0.2,203.73,7.7,17.5,0.5,0.5,0.0,0.0,1.25,0.75,0.0,0.0,0.25,0.5,0.25,0.0,0.25,-0.61,-0.05,0.89,63.9,0.8,23.8
5.66,1.0,0.5,2.25,2.5,0.75,2.25,1.5,1.0,0.0,0.0,0.0,1.0,1.5,-2.23,0.77,0.58,203.77,8.4,18.8,1.0,0.0,0.0,0.75,1.25,0.5,0.0,0.0,0.0,0.5,0.25,0.0,0.25,-0.36,-0.11,0.95,72.72,-4.7,31.4
5.68,1.0,0.25,2.25,2.5,0.75,2.0,1.5,1.0,0.0,0.0,0.0,0.75,1.5,-2.67,0.45,0.64,199.61,8.9,19.3,0.75,0.25,0.0,0.0,1.25,0.5,0.0,0.0,0.0,0.5,0.25,0.0,0.0,-0.23,-0.11,1.08,71.17,-1.9,36.3
5.7,0.25,0.25,0.0,0.25,0.0,1.0,0.75,0.0,0.0,0.0,0.0,0.25,0.0,-2.98,0.33,0.45,147.36,3.5,33.9,0.5,0.0,0.0,0.5,1.0,0.5,0.0,0.0,0.0,0.75,0.25,0.0,0.25,0.2,-0.17,1.08,68.82,0.5,13.1
5.72,0.25,0.25,0.0,0.25,0.0,0.75,0.75,0.0,0.0,0.0,0.0,0.25,0.0,-2.48,0.2,0.2,92.84,6.5,33.9,1.25,1.0,0.0,0.75,1.0,1.25,0.0,0.0,0.0,0.5,0.25,0.0,0.25,0.45,-0.23,1.08,79.79,-4.3,44.2
5.74,0.25,0.25,0.25,0.25,0.0,0.75,0.75,0.0,0.0,0.0,0.0,0.25,0.0,-2.05,0.2,0.2,40.88,10.0,36.9,0.5,0.5,0.0,1.0,1.25,0.5,0.0,0.0,0.0,0.75,0.25,0.0,0.25,0.58,-0.42,1.08,85.34,-2.4,28.4
5.76,0.25,0.25,0.0,0.25,0.0,1.0,1.0,0.0,0.0,0.0,0.0,0.25,0.0,-1.92,0.08,0.08,15.33,4.9,33.6,1.0,0.25,0.0,0.5,1.0,1.0,0.0,0.0,0.0,0.5,0.25,0.0,0.25,0.52,-0.55,1.33,88.82,-2.2,32.6
5.78,0.25,0.5,0.0,2.25,0.0,2.0,1.0,0.0,0.0,0.25,0.0,0.25,0.0,-1.92,0.08,0.02,24.21,4.3,40.4,0.25,0.0,0.0,0.5,1.0,1.0,0.0,0.0,0.0,0.0,0.5,0.0,0.25,0.52,-0.61,1.39,80.52,1.8,22.9
5.8,0.5,0.25,2.5,2.5,0.75,2.25,1.5,1.0,0.0,0.5,0.0,0.75,1.5,-1.73,0.02,-0.05,83.04,7.1,14.1,0.5,0.5,0.0,0.5,1.25,1.0,0.0,0.0,0.0,1.0,0.25,0.0,0.25,0.52,-0.67,1.39,82.65,2.0,21.2
5.82,1.25,0.5,2.25,2.25,1.25,2.25,1.5,1.0,0.0,0.0,0.0,1.25,1.5,-1.42,-0.05,-0.05,138.95,8.2,18.5,0.75,0.25,0.0,0.5,1.0,1.25,0.0,0.0,0.0,0.5,0.25,0.0,0.25,0.39,-0.61,1.58,79.59,0.5,29.5
5.84,1.25,0.5,2.25,2.5,1.25,2.25,1.5,1.0,0.0,0.25,0.0,1.0,1.5,-1.23,-0.05,-0.05,183.09,8.0,19.8,0.5,0.0,0.0,0.5,1.25,0.5,0.0,0.0,0.0,0.5,0.25,0.0,0.25,0.08,-0.55,1.58,75.54,-0.2,21.8
5.86,1.0,0.5,2.25,2.0,1.25,2.25,1.5,1.0,0.0,0.0,0.0,1.25,1.5,-0.98,-0.05,0.02,204.93,7.6,16.4,1.0,0.0,0.0,1.0,1.25,0.75,0.0,0.0,0.0,0.75,0.25,0.0,0.25,-0.17,-0.42,1.52,78.34,-3.1,27.9
5.88,1.25,0.5,2.25,2.25,0.75,2.0,1.5,1.0,0.0,0.5,0.5,1.0,1.5,-0.86,0.02,0.02,217.42,8.5,12.6,0.5,0.25,0.0,0.75,1.25,1.0,0.0,0.0,0.0,0.5,0.25,0.0,0.25,-0.23,-0.36,1.27,79.57,0.4,28.9
5.9,1.0,0.25,2.25,2.5,1.25,2.25,1.5,1.0,0.0,0.5,0.25,1.5,1.5,-0.73,0.02,0.02,226.53,7.2,9.9,0.75,0.25,0.0,0.5,1.25,0.75,0.0,0.0,0.0,0.25,0.25,0.0,0.25,-0.36,-0.3,1.27,78.42,-2.4,36.5
5.92,1.0,0.5,2.25,2.0,0.75,2.25,1.5,1.0,0.0,0.25,0.5,0.25,1.5,-0.73,0.02,0.08,228.47,7.7,19.2,0.25,0.0,0.0,0.5,1.25,1.25,0.0,0.0,0.0,0.75,0.25,0.0,0.25,-0.42,-0.3,1.14,76.62,5.8,14.5
5.94,0.25,0.25,0.0,0.25,0.0,0.75,0.75,0.0,0.0,0.0,0.0,0.25,0.0,-0.73,0.02,0.14,182.02,6.5,33.9,0.5,0.0,0.0,1.0,1.25,1.0,0.0,0.0,0.0,0.5,0.25,0.0,0.25,-0.3,-0.3,1.08,76.68,0.1,26.8
5.96,0.25,0.0,0.0,0.25,0.75,1.0,0.75,0.0,0.0,0.0,0.0,0.75,0.0,-0.67,-0.05,0.27,129.66,1.8,13.0,1.0,0.0,0.0,0.25,1.0,1.0,0.0,0.0,0.0,0.0,0.25,0.0,0.25,-0.17,-0.48,1.14,70.39,-2.8,40.6
5.98,0.25,0.25,0.0,0.25,0.0,0.75,0.75,0.0,0.0,0.0,0.0,0.25,0.0,-0.67,-0.11,0.27,70.61,6.5,33.9,0.25,0.5,0.0,0.5,1.0,1.25,0.0,0.0,0.25,0.25,0.25,0.0,0.25,-0.11,-0.48,1.08,72.21,1.9,28.5
6.0,1.25,0.25,0.0,2.25,0.5,2.0,0.75,0.5,0.0,0.5,0.0,1.25,1.5,-0.8,-0.23,0.27,77.75,2.3,1.7,0.75,0.0,0.0,0.5,1.0,0.75,0.0,0.0,0.0,0.25,0.25,0.0,0.25,-0.05,-0.17,0.77,68.73,-2.2,31.1
6.02,1.25,0.25,2.25,1.75,0.75,2.0,1.25,1.0,0.0,0.5,0.5,1.25,1.5,-0.86,-0.42,0.2,109.89,7.8,6.9,0.5,0.25,0.0,0.75,1.25,0.75,0.0,0.0,0.0,0.5,0.25,0.0,0.25,0.02,0.02,0.64,70.97,-0.7,28.7
6.04,0.25,0.25,2.25,0.25,0.75,0.75,1.5,0.0,0.0,0.0,0.0,0.25,0.0,-0.8,-0.55,0.2,113.71,19.7,47.7,0.5,0.0,0.0,0.5,1.25,1.25,0.0,0.0,0.0,0.5,0.25,0.0,0.25,0.08,-0.05,0.64,70.4,3.2,23.6
6.06,0.25,0.25,0.0,0.25,0.0,0.75,0.25,0.0,0.0,0.0,0.0,0.25,0.0,-0.67,-0.55,0.2,86.4,3.1,34.7,1.0,0.0,0.0,0.75,1.25,1.0,0.0,0.0,0.0,0.5,0.25,0.25,0.25,0.33,-0.05,0.58,77.65,-2.4,25.1
6.08,0.25,0.25,0.0,0.25,0.0,0.75,0.5,0.0,0.0,0.0,0.0,0.25,0.0,-0.55,-0.61,0.2,48.98,4.9,34.3,0.75,0.0,0.0,0.5,1.25,1.0,0.0,0.0,0.25,0.75,0.25,0.0,0.25,0.39,-0.05,0.58,80.65,0.4,18.7
6.1,0.25,0.25,0.0,0.25,0.5,0.5,0.5,0.0,0.0,0.0,0.0,0.25,0.0,-0.48,-0.55,0.27,22.48,5.7,39.2,1.0,0.25,0.0,0.5,1.25,0.5,0.0,0.0,0.0,0.5,0.25,0.0,0.25,0.33,0.02,0.58,80.52,-4.4,33.7
6.12,0.0,0.25,0.5,0.75,0.0,1.0,0.25,0.0,0.0,0.0,0.0,0.25,0.0,-0.36,-0.36,0.33,14.54,7.3,38.5,0.5,0.25,0.0,0.75,1.25,1.25,0.0,0.0,0.0,0.75,0.25,0.0,0.25,0.2,-0.05,0.7,83.55,2.1,24.3
6.14,0.25,0.25,0.0,0.25,0.0,1.0,0.25,0.0,0.0,0.0,0.0,0.25,0.0,-0.23,-0.23,0.39,17.88,0.1,34.7,0.5,0.0,0.0,1.5,1.25,1.25,0.0,0.0,0.0,0.5,0.25,0.0,0.25,0.08,-0.17,0.77,87.63,-0.4,30.0
6.16,0.25,0.0,0.0,0.25,0.0,0.75,0.25,0.0,0.0,0.0,0.0,0.25,0.0,-0.05,-0.23,0.39,22.35,1.6,24.2,1.25,0.0,0.0,0.0,1.0,0.75,0.0,0.0,0.25,1.0,0.25,0.0,0.25,-0.05,-0.36,1.02,85.96,-1.5,14.3
6.18,0.25,0.25,0.0,0.25,0.5,0.75,0.75,0.0,0.0,0.0,0.0,0.25,0.0,0.08,-0.23,0.39,29.42,4.4,38.2,0.0,0.0,0.0,1.25,1.25,0.75,0.0,0.0,0.0,0.5,0.25,0.0,0.25,0.08,-0.48,1.02,82.25,1.6,20.8
6.2,0.25,0.25,0.0,0.25,0.0,0.75,0.25,0.0,0.0,0.0,0.0,0.0,0.0,0.08,-0.17,0.58,20.93,2.2,57.5,0.5,0.0,0.0,0.5,1.25,1.0,0.0,0.0,0.0,1.0,0.5,0.0,0.25,0.2,-0.48,1.14,81.29,2.9,8.8
6.22,0.25,0.25,0.0,0.5,0.0,0.75,0.25,0.0,0.0,0.0,0.0,0.25,0.0,0.08,-0.23,0.83,18.87,4.9,37.6,0.75,0.0,0.0,0.75,1.0,0.25,0.0,0.0,0.25,1.0,1.0,0.25,0.25,0.39,-0.61,1.77,81.95,-4.5,-5.2
6.24,0.25,0.25,0.0,0.25,0.5,0.75,0.25,0.0,0.0,0.0,0.0,0.25,0.0,0.02,-0.3,1.08,16.58,1.6,39.2,0.75,0.0,0.0,0.5,1.0,0.0,0.0,0.0,0.25,0.75,1.5,0.5,0.5,0.52,0.08,1.27,84.75,-5.8,-21.5
6.26,0.25,0.25,0.0,0.25,0.0,1.0,0.0,0.0,0.0,0.0,0.0,0.25,0.0,-0.17,-0.42,1.14,22.1,-1.7,35.1,1.0,0.0,0.0,1.25,1.0,0.0,0.0,0.0,0.25,0.75,1.0,0.5,0.5,0.64,0.02,1.14,90.44,-7.9,-3.3
6.28,0.25,0.0,0.0,0.0,0.0,1.0,0.0,0.0,0.0,0.0,0.0,0.25,0.0,-0.36,-0.55,1.08,27.99,-7.8,19.4,1.25,0.25,0.5,0.0,1.25,1.0,0.0,0.0,0.25,0.75,1.0,0.5,0.5,0.33,-0.3,0.77,100.38,-4.9,4.1
6.3,0.25,0.25,0.25,0.25,0.5,0.75,0.0,0.0,0.0,0.0,0.0,0.0,0.0,-0.42,-0.67,1.08,33.32,3.3,58.4,1.25,0.0,0.0,0.5,1.25,0.0,0.0,0.0,0.0,0.25,1.25,0.75,0.5,-0.05,-0.23,0.58,100.33,-9.1,-4.5
6.32,0.25,0.25,0.0,0.25,0.0,1.0,0.25,0.0,0.0,0.0,0.0,0.0,0.0,-0.48,-0.86,1.14,31.92,-0.9,54.4,1.0,0.0,0.0,0.75,1.0,0.75,0.0,0.0,0.25,0.25,1.5,0.75,0.5,0.08,-0.3,0.39,103.91,-5.9,-7.8
6.34,0.0,0.0,0.0,0.0,0.0,3.25,5.5,3.75,0.0,0.0,1.25,0.25,0.25,-0.67,-1.05,1.27,79.98,-3.2,-10.3,2.0,0.0,0.0,0.75,1.0,1.25,0.0,0.0,0.25,1.5,1.5,1.0,1.0,0.27,-0.23,0.83,120.98,-3.7,-12.1
6.36,0.25,0.0,0.25,0.25,0.0,1.5,2.5,1.75,0.0,0.0,0.5,0.25,0.25,-0.73,-1.05,1.45,97.2,0.5,-4.1,1.25,0.5,0.0,0.5,1.25,0.0,0.0,0.0,0.25,1.0,1.5,1.0,1.25,0.14,-0.23,1.08,129.15,-5.3,-19.9
