time,left pressure 0[N/cm虏],left pressure 1[N/cm虏],left pressure 2[N/cm虏],left pressure 3[N/cm虏],left pressure 4[N/cm虏],left pressure 5[N/cm虏],left pressure 6[N/cm虏],left pressure 7[N/cm虏],left pressure 8[N/cm虏],left pressure 9[N/cm虏],left pressure 10[N/cm虏],left pressure 11[N/cm虏],left pressure 12[N/cm虏],left acceleration X[g],left acceleration Y[g],left acceleration Z[g],left total force[N],left center of pressure X[mm],left center of pressure Y[mm],right pressure 0[N/cm虏],right pressure 1[N/cm虏],right pressure 2[N/cm虏],right pressure 3[N/cm虏],right pressure 4[N/cm虏],right pressure 5[N/cm虏],right pressure 6[N/cm虏],right pressure 7[N/cm虏],right pressure 8[N/cm虏],right pressure 9[N/cm虏],right pressure 10[N/cm虏],right pressure 11[N/cm虏],right pressure 12[N/cm虏],right acceleration X[g],right acceleration Y[g],right acceleration Z[g],right total force[N],right center of pressure X[mm],right center of pressure Y[mm]
0.02,0.75,0.75,1.75,7.0,1.75,1.75,6.25,4.5,2.25,7.0,2.75,5.75,4.25,-0.11,-0.05,0.95,539.27,3.2,-26.7,1.75,0.75,2.5,1.5,4.25,0.5,1.0,1.25,1.25,3.0,2.5,1.5,1.5,2.39,0.52,1.08,136.17,-6.2,-2.6
0.04,0.0,1.75,1.75,7.0,5.0,3.5,6.5,5.25,3.25,0.0,4.0,7.25,6.25,-0.11,-0.05,0.95,621.77,3.9,-18.2,1.5,0.0,2.0,0.75,3.75,0.0,0.5,1.25,1.25,1.0,2.25,1.5,2.0,1.27,0.45,1.02,126.66,-6.7,-9.9
0.06,0.75,1.75,2.0,7.0,3.0,4.0,6.5,5.75,4.5,9.25,5.75,8.25,7.25,-0.11,-0.05,1.02,781.84,1.5,-32.3,1.5,0.0,2.25,1.75,4.25,0.0,0.75,1.0,1.25,2.25,2.0,1.5,1.5,0.64,0.45,0.77,152.58,-6.9,-3.8
0.08,1.25,1.25,2.75,7.25,1.75,3.75,7.0,6.0,5.0,9.5,6.5,8.75,8.25,-0.17,-0.05,1.02,946.63,2.3,-35.4,1.25,0.0,2.25,1.5,4.25,0.0,1.0,0.75,1.25,2.5,2.0,1.5,1.5,0.27,-0.23,1.02,165.41,-6.6,-6.1
0.1,1.75,1.5,2.25,7.0,5.75,4.0,6.75,6.0,5.25,9.5,7.0,9.0,9.0,-0.11,-0.11,0.95,1121.29,1.7,-30.6,1.75,0.0,1.75,1.75,4.25,0.0,1.0,0.75,1.25,2.0,2.0,0.5,2.0,0.02,-0.67,1.27,187.25,-6.5,-0.1
0.12,1.75,1.75,2.0,7.0,5.75,4.0,6.75,6.5,5.25,9.5,7.0,9.0,8.75,-0.11,-0.11,0.95,1238.2,1.5,-30.2,1.25,0.0,1.75,1.0,3.75,0.25,1.0,0.5,1.25,1.75,1.75,1.5,2.0,-0.05,-0.98,0.83,194.93,-5.9,-10.0
0.14,1.75,1.5,2.25,7.0,5.75,4.0,6.75,6.5,5.25,9.5,7.0,8.75,8.75,-0.11,-0.11,0.95,1299.12,1.6,-30.1,1.25,0.0,1.75,1.5,4.25,0.25,0.75,0.75,1.25,1.75,1.75,1.5,1.75,-0.11,-1.23,0.95,215.18,-5.7,-5.4
0.16,1.25,1.5,1.25,7.0,5.5,3.75,6.75,6.25,5.0,9.5,7.0,8.5,9.0,-0.11,-0.05,0.95,1291.62,0.9,-32.8,1.5,0.0,1.5,1.0,4.25,0.5,0.75,0.0,1.25,1.5,1.75,1.5,1.5,0.2,-1.17,0.89,226.3,-6.5,-2.3
0.18,1.25,1.5,1.5,7.0,5.75,3.0,6.75,6.25,4.75,8.5,6.5,7.5,8.0,-0.11,-0.05,0.95,1239.17,1.5,-29.4,1.25,0.25,1.5,1.25,4.25,0.5,0.75,0.25,1.25,1.5,1.75,1.5,1.5,0.39,-0.8,0.89,240.01,-6.0,-1.8
0.2,1.25,1.5,0.5,8.0,5.25,4.0,6.75,5.75,5.0,8.5,5.75,7.75,7.25,-0.11,-0.05,0.95,1166.36,1.2,-28.0,1.25,0.0,1.5,1.25,4.25,1.0,0.75,0.5,1.25,1.5,1.75,1.5,1.5,0.39,-0.3,0.89,243.62,-4.9,-2.8
0.22,2.25,2.5,1.5,8.5,5.75,5.25,7.5,6.75,5.5,9.25,7.0,8.25,7.5,-0.11,-0.05,0.95,1178.94,1.9,-23.3,1.25,1.0,1.5,1.25,4.25,1.25,0.5,0.25,1.25,1.75,1.75,1.25,1.5,0.39,0.08,0.95,251.68,-4.7,3.8
0.24,0.25,1.25,0.75,6.75,5.75,3.25,7.0,6.0,4.75,8.5,5.75,7.5,7.25,-0.11,-0.05,0.95,1107.64,0.6,-31.4,1.0,0.0,1.75,0.5,4.25,1.25,0.25,0.0,1.0,1.5,1.5,1.25,1.5,0.27,0.39,1.14,245.28,-4.0,-1.7
0.26,2.5,3.0,0.25,8.5,5.75,5.25,7.5,6.75,6.0,9.5,7.0,8.25,8.25,-0.11,-0.05,0.95,1143.67,1.3,-24.7,1.5,0.0,1.25,0.0,3.75,0.25,0.25,0.0,1.0,1.75,1.75,1.0,1.5,0.14,0.52,1.33,224.5,-5.0,-8.2
0.28,2.5,2.75,3.0,8.5,5.75,5.25,7.25,6.5,6.0,9.75,7.0,8.25,8.0,-0.11,-0.05,0.95,1176.32,2.6,-21.9,1.25,0.25,1.5,0.25,4.25,0.0,0.5,0.0,0.75,1.5,1.5,1.0,1.5,-0.11,0.52,1.52,213.31,-6.0,-0.7
0.3,1.0,1.25,0.5,6.75,4.5,4.0,7.0,6.25,5.25,8.5,6.0,7.5,7.25,-0.11,-0.05,0.95,1118.1,0.7,-31.8,1.25,0.0,1.25,0.75,4.25,0.5,0.75,0.0,0.75,1.5,1.75,0.75,1.5,-0.3,0.83,1.39,204.94,-5.0,0.4
0.32,1.75,1.75,0.25,7.5,5.5,4.5,6.75,6.25,6.0,9.5,6.25,8.25,7.25,-0.11,-0.11,0.95,1086.35,0.9,-28.8,1.25,0.0,1.5,0.75,4.25,2.0,0.5,0.0,1.0,1.25,1.75,1.0,1.5,-0.55,1.02,1.33,211.95,-3.5,2.8
0.34,1.5,1.0,2.25,6.75,5.75,4.25,7.0,6.75,5.75,9.0,7.0,7.75,7.5,-0.11,-0.05,0.95,1060.55,1.6,-28.6,1.0,0.0,1.25,0.75,3.75,1.25,0.75,0.0,0.75,1.5,1.75,0.75,1.5,-0.61,1.27,1.27,213.25,-3.6,-1.5
0.36,2.5,1.75,3.0,8.25,5.75,5.75,7.0,7.0,6.25,9.25,7.25,7.5,7.5,-0.11,-0.11,0.95,1112.59,2.4,-22.0,1.25,0.0,1.25,0.5,4.25,1.25,0.75,0.0,0.75,1.5,1.75,0.75,1.5,-0.67,2.02,0.2,217.11,-3.6,0.9
0.38,3.0,2.25,2.75,8.25,6.0,6.0,7.25,7.25,6.5,9.25,7.0,6.75,6.5,-0.11,-0.11,0.95,1163.8,2.5,-18.1,0.75,0.5,1.5,0.5,4.25,1.5,0.5,0.0,1.0,1.75,1.75,0.75,1.5,-0.98,2.95,-0.23,219.38,-2.8,0.7
0.4,3.25,2.25,3.0,8.5,7.5,7.0,8.0,7.5,6.5,9.0,6.5,5.75,6.0,-0.11,-0.11,0.95,1249.41,2.5,-12.5,1.25,0.75,1.5,0.0,3.75,2.0,0.25,0.0,0.75,3.25,1.5,1.25,1.5,0.7,0.14,0.45,229.31,-1.0,-5.8
0.42,4.5,2.5,3.0,9.25,7.75,8.0,8.5,7.75,6.75,8.5,5.75,5.0,5.0,-0.11,-0.11,0.95,1308.69,3.1,-5.9,1.25,0.5,0.5,0.5,4.25,2.0,0.25,0.0,1.0,2.5,2.0,3.0,3.0,-0.8,-0.3,1.52,246.81,0.0,-22.8
0.44,5.5,3.0,4.75,10.5,7.75,8.5,9.0,7.75,6.5,8.25,5.0,3.5,3.75,-0.11,-0.11,1.02,1350.21,4.6,3.4,1.5,0.5,0.75,0.25,4.25,2.25,0.25,0.0,1.25,4.25,2.75,4.25,4.75,-0.92,-0.05,1.64,286.64,0.8,-35.8
0.46,6.5,3.0,5.75,11.5,8.75,9.0,9.75,7.75,6.0,7.75,3.5,2.75,3.0,-0.11,-0.11,1.08,1388.39,5.5,11.2,2.0,0.5,1.0,0.0,4.25,3.0,0.25,0.0,1.25,5.25,3.25,5.5,6.0,0.39,0.33,1.39,349.72,1.0,-39.9
0.48,7.5,3.75,6.5,13.0,11.0,9.25,10.5,7.75,5.75,7.5,2.75,2.0,2.75,-0.17,-0.11,1.14,1462.2,6.2,18.1,1.25,1.0,0.0,0.75,3.75,2.0,1.0,1.5,1.75,5.5,3.75,6.0,6.75,0.02,0.02,1.2,425.65,1.9,-47.5
0.5,8.75,3.5,8.0,14.5,12.0,9.0,11.0,7.5,5.25,7.5,3.5,2.0,2.25,-0.17,-0.05,1.08,1538.76,7.4,21.2,0.25,0.0,0.0,0.0,4.25,2.75,1.0,2.0,1.75,5.75,4.0,6.0,7.0,0.08,0.02,0.95,491.59,4.5,-55.5
0.52,10.5,4.25,8.25,14.5,13.5,8.75,11.0,7.0,4.75,7.25,2.75,2.0,2.25,-0.17,0.02,1.33,1628.28,8.1,25.6,2.0,0.0,1.25,1.0,4.25,2.75,1.0,2.75,1.75,6.0,3.5,6.0,8.0,0.14,0.02,0.95,557.13,1.7,-43.6
0.54,11.5,4.5,9.0,14.5,12.0,7.25,10.5,6.5,4.0,7.0,3.0,2.0,2.0,-0.23,0.14,1.52,1679.02,9.5,27.4,0.75,0.0,0.5,0.5,4.25,3.0,1.0,2.75,1.75,6.0,3.5,6.5,8.0,0.08,0.02,0.89,593.33,3.9,-51.7
0.56,10.5,4.25,9.5,11.0,11.5,4.25,10.5,6.25,3.0,6.5,2.5,0.5,2.25,-0.17,0.2,1.89,1620.23,10.4,29.2,2.25,0.0,1.5,0.5,4.25,3.5,1.25,3.0,2.5,6.5,5.0,6.75,8.5,0.08,0.02,0.95,653.95,1.3,-45.1
0.58,10.5,4.5,8.0,9.25,8.0,3.0,9.25,4.75,2.25,7.0,1.25,0.0,1.0,-0.42,0.39,1.95,1465.96,11.7,33.6,2.0,1.0,1.25,1.25,4.25,3.5,1.0,3.5,2.5,7.0,5.75,7.5,8.5,0.08,0.02,0.95,720.51,1.1,-43.5
0.6,9.25,4.0,7.25,8.75,7.5,3.0,9.25,4.5,2.0,6.5,1.5,0.25,1.0,-0.36,0.45,2.08,1286.5,11.4,31.6,2.5,0.75,1.75,0.0,4.25,4.0,1.25,4.0,3.0,7.0,6.0,7.75,8.5,0.08,0.02,0.95,784.72,1.0,-44.0
0.62,7.25,2.0,5.25,6.75,5.75,1.25,8.25,3.0,1.0,5.25,0.5,0.0,0.25,-0.23,0.2,2.14,966.06,12.8,34.6,2.0,0.75,1.5,0.5,4.25,3.75,1.5,4.25,3.25,7.5,6.5,8.0,9.25,0.14,0.02,0.95,839.41,1.3,-46.8
0.64,4.5,1.25,3.0,5.0,0.0,0.25,7.0,2.75,0.75,5.25,0.25,0.25,0.25,-0.42,0.08,1.77,632.18,13.2,19.5,2.25,1.0,2.0,0.5,4.25,3.75,1.5,4.25,3.25,7.75,6.75,8.25,9.25,0.14,0.02,0.95,882.1,0.7,-45.0
0.66,2.0,0.25,1.0,5.25,1.75,0.0,6.75,2.5,0.75,5.0,0.25,0.25,0.25,-0.05,-0.55,1.52,380.02,8.3,9.1,2.25,0.75,1.75,0.5,4.5,4.5,1.5,4.25,3.25,7.75,6.75,8.25,9.25,0.14,0.02,0.95,904.8,1.2,-44.6
0.68,1.25,0.75,0.5,5.75,0.0,0.5,6.5,0.75,0.5,5.25,0.5,0.25,0.0,-1.3,-1.48,2.89,238.06,9.4,8.4,2.0,0.75,1.75,0.75,4.5,4.5,1.5,4.5,3.25,7.75,7.0,8.25,9.25,0.08,0.02,0.95,912.94,1.3,-44.8
0.7,1.0,1.25,0.25,5.75,0.0,0.75,6.5,2.5,0.5,5.0,0.5,0.0,0.0,-0.86,-1.3,1.83,153.98,6.6,7.8,2.25,0.75,1.75,0.25,4.75,5.0,1.5,4.75,3.25,7.75,7.0,8.0,9.25,0.08,0.02,0.95,917.34,1.7,-43.7
0.72,1.0,1.25,0.5,5.75,3.75,0.5,6.5,2.5,0.75,4.5,0.5,0.0,0.25,-0.48,-0.73,0.58,135.06,5.8,15.9,2.0,1.0,2.25,1.75,5.5,5.0,1.5,4.75,3.25,7.5,7.0,7.75,9.25,0.14,0.02,0.95,927.86,0.9,-38.1
0.74,0.75,1.25,0.25,6.0,3.0,0.75,6.5,2.5,0.25,5.25,0.5,0.0,0.25,-0.42,-0.67,0.45,150.21,4.5,12.3,2.25,0.75,1.75,2.0,5.5,5.0,1.5,5.0,3.75,7.5,6.5,7.5,9.0,0.14,0.02,0.89,928.88,1.1,-37.7
0.76,0.75,1.25,0.0,6.5,1.75,0.75,6.25,2.25,0.25,5.0,0.25,0.0,0.25,-0.36,-0.67,0.58,167.9,5.2,12.6,2.25,1.0,2.25,2.0,5.75,4.75,1.75,5.25,3.75,7.0,6.5,7.0,8.5,0.14,0.02,0.95,918.16,0.5,-34.3
0.78,0.5,1.25,0.5,6.75,0.75,1.0,6.25,2.5,0.25,4.75,0.25,0.0,0.25,-0.3,-0.61,0.95,188.26,5.9,11.8,2.25,1.5,2.5,2.0,6.25,5.0,2.0,5.25,3.75,6.75,6.0,6.5,8.5,0.14,0.02,0.95,902.91,0.3,-30.2
0.8,0.5,1.25,0.75,6.0,2.25,0.5,6.0,2.0,0.0,5.25,0.25,0.0,0.0,-0.36,-0.42,1.08,213.46,5.8,14.6,2.25,1.5,2.5,2.0,6.25,6.0,2.25,5.25,3.75,7.0,5.75,6.25,8.0,0.14,0.02,0.89,882.32,0.7,-28.0
0.82,0.5,1.25,0.25,6.0,0.5,0.5,6.25,1.5,0.0,5.25,0.25,0.0,0.25,-0.36,-0.23,1.02,225.25,6.4,9.2,2.5,1.5,2.75,2.0,6.25,6.0,2.5,5.5,3.75,6.75,5.75,5.75,8.0,0.14,0.02,0.95,868.92,0.4,-26.2
0.84,0.5,1.25,0.0,6.0,0.75,1.0,6.25,1.0,0.0,5.25,0.0,0.25,0.0,-0.36,-0.05,1.02,236.59,6.0,12.1,2.5,1.5,2.5,3.0,6.5,7.0,2.75,6.0,4.0,6.25,5.25,5.0,7.0,0.14,0.02,0.95,865.89,0.5,-20.4
0.86,0.5,1.25,0.25,6.0,0.75,1.0,6.25,1.25,0.0,5.25,0.0,0.0,0.25,-0.3,0.08,1.2,253.89,5.8,12.0,3.0,2.0,2.75,3.25,8.0,7.5,3.25,6.25,4.0,5.75,5.0,4.0,6.0,0.2,0.02,0.89,881.11,0.0,-11.3
0.88,0.5,1.25,0.25,5.75,1.75,1.0,6.25,1.0,0.0,5.25,0.0,0.0,0.0,-0.36,0.2,1.33,266.84,5.7,16.0,3.5,2.0,2.75,4.5,9.0,8.0,3.5,6.5,3.75,5.5,4.5,3.0,4.75,0.2,0.02,0.95,906.71,-0.5,-2.8
0.9,0.0,1.25,0.25,6.0,0.75,0.5,6.25,1.0,0.0,4.75,0.5,0.0,0.0,-0.42,0.27,1.52,263.02,7.1,11.8,5.0,2.5,2.75,6.5,10.5,8.75,3.75,7.0,3.75,5.5,4.0,2.5,3.75,0.2,0.02,0.95,974.34,-1.5,6.7
0.92,0.5,0.75,0.25,5.5,1.75,1.0,6.25,0.75,0.0,5.25,0.25,0.0,0.0,-0.48,0.39,1.77,262.78,5.7,12.8,5.5,2.75,4.0,8.0,12.0,9.25,3.75,6.75,3.5,4.75,3.75,2.25,3.25,0.2,0.02,1.02,1065.08,-2.8,14.0
0.94,0.0,1.25,0.25,5.25,1.75,0.75,6.25,0.75,0.0,5.25,0.0,0.0,0.0,-0.67,0.52,2.14,256.28,5.3,13.3,6.75,3.0,5.25,9.25,13.5,9.5,4.0,7.0,3.25,4.5,3.25,1.5,3.25,0.27,0.02,1.2,1187.75,-3.9,20.4
0.96,0.25,1.0,0.25,5.75,1.75,0.5,6.25,0.75,0.0,5.25,0.0,0.0,0.0,-0.73,1.02,2.33,254.01,6.2,14.1,7.75,3.75,5.25,11.0,15.0,10.0,3.75,7.0,3.25,4.5,3.0,1.5,3.0,0.14,0.08,1.08,1321.91,-4.3,24.4
0.98,0.5,1.25,0.25,6.0,2.25,0.75,6.0,0.75,0.0,5.25,0.25,0.25,0.0,-0.67,1.64,2.39,263.11,6.1,15.4,8.25,3.25,5.25,12.0,16.5,9.75,3.25,6.25,2.5,4.25,3.0,1.5,2.5,0.2,0.08,1.2,1405.35,-4.8,27.8
1.0,0.25,0.0,0.25,5.0,1.75,1.0,6.0,1.25,0.0,5.5,0.25,0.0,0.0,-0.48,2.7,1.52,262.77,3.6,4.2,9.25,3.75,5.75,11.5,16.5,9.75,2.5,6.25,0.0,3.5,2.75,1.5,2.75,0.27,0.2,1.27,1448.15,-5.1,32.2
1.02,0.5,0.5,0.25,6.0,2.25,1.25,6.0,2.5,0.0,5.75,0.25,0.0,0.0,-0.23,4.39,0.64,276.72,3.0,8.1,10.0,3.0,6.75,10.5,16.5,9.0,2.5,6.0,1.25,1.25,2.75,1.5,2.25,0.33,0.2,1.45,1448.45,-6.8,35.5
1.04,0.25,0.75,0.25,5.75,1.75,1.75,6.0,2.5,0.0,6.0,0.0,0.0,0.0,0.64,5.58,-0.92,285.53,1.9,7.0,10.5,3.0,6.75,10.5,15.0,7.5,3.0,5.25,1.25,1.25,2.0,1.0,2.25,0.39,0.33,1.58,1407.82,-8.1,38.4
1.06,0.25,0.25,0.0,6.25,1.75,1.75,5.75,2.5,0.0,6.0,0.25,0.5,0.0,1.58,4.89,-0.55,297.01,1.7,1.9,8.75,2.5,6.75,6.75,9.25,5.0,3.0,2.75,1.0,1.5,1.75,0.5,1.5,0.83,0.83,2.7,1222.85,-10.9,40.5
1.08,0.0,0.25,0.0,5.75,1.75,1.5,5.75,2.5,0.25,5.25,0.25,1.75,1.0,-1.55,-0.86,0.58,302.52,1.6,-9.3,7.0,2.0,5.0,3.0,7.75,5.0,1.75,1.5,1.0,2.25,1.75,1.0,0.75,0.89,0.39,2.33,938.47,-9.1,35.7
1.1,0.0,0.5,0.0,6.0,1.75,1.75,5.75,2.75,0.5,5.25,0.5,3.5,3.25,-0.42,-0.17,1.45,330.29,0.9,-22.5,2.75,0.25,2.75,0.75,6.25,2.75,1.0,1.25,0.75,1.75,1.75,1.0,1.0,0.7,-0.23,1.83,602.84,-4.9,17.5
1.12,0.0,0.0,0.25,5.75,0.75,1.75,6.0,2.75,0.75,6.5,1.25,5.0,5.25,0.77,0.27,1.77,375.15,0.2,-39.4,2.0,1.0,2.5,2.75,5.75,3.0,0.75,1.25,0.75,2.25,1.75,0.25,1.5,0.08,0.2,0.7,392.58,-3.9,19.2
1.14,0.25,1.25,0.0,6.75,0.75,3.5,6.0,3.75,1.5,7.5,1.75,7.0,6.25,0.2,0.27,1.52,474.77,-0.2,-36.1,0.75,0.25,0.0,0.5,3.75,0.25,0.75,0.0,0.5,0.0,0.5,0.25,0.75,0.33,-0.42,2.7,212.0,-3.7,24.5
1.16,0.5,1.5,0.75,7.0,1.75,4.25,6.25,5.75,2.0,7.75,2.5,7.5,7.5,-0.05,0.45,1.39,615.4,-0.3,-33.2,1.0,0.5,0.0,0.0,3.75,0.5,0.5,0.0,0.5,0.5,0.0,0.0,0.75,0.95,-1.3,2.45,83.78,-1.1,30.9
1.18,0.0,0.75,0.25,6.75,0.75,2.5,6.25,5.75,1.25,8.0,3.0,6.75,7.25,-0.11,-0.11,1.02,707.07,-0.7,-41.8,0.75,0.5,0.0,0.5,3.75,0.5,0.5,0.0,0.5,1.25,0.0,0.25,1.0,1.14,-1.11,1.27,0.0,0.2,15.3
1.2,1.25,1.75,0.0,7.0,1.75,4.5,6.5,5.0,2.5,8.75,2.75,8.25,7.25,-0.17,0.08,1.02,802.03,0.0,-33.4,0.5,0.5,0.0,0.5,3.75,0.25,0.25,0.0,0.5,0.0,0.0,0.25,0.75,0.64,-0.61,0.58,0.0,-1.7,31.0
1.22,1.25,1.5,0.0,7.5,5.5,4.25,6.75,5.75,2.5,9.5,4.75,8.25,9.0,-0.11,0.02,0.95,917.57,-0.5,-31.4,0.5,0.5,0.0,0.5,4.25,0.25,0.25,0.0,0.5,0.0,0.0,0.25,0.0,0.2,-0.36,0.52,0.0,-2.9,47.2
1.24,1.25,1.5,0.0,7.5,5.0,4.0,7.0,6.0,3.25,9.75,5.0,8.25,9.0,-0.11,0.02,1.02,1026.09,-0.2,-32.8,0.25,0.25,0.0,0.5,3.25,0.5,0.25,0.0,0.5,0.0,0.0,0.25,0.0,-0.11,-0.17,0.39,0.0,-1.5,41.4
1.26,1.5,1.5,1.5,8.0,5.0,4.5,7.0,6.5,3.0,9.75,5.0,8.25,9.0,-0.11,-0.05,0.95,1116.1,0.5,-29.0,0.25,0.5,0.0,0.5,3.75,0.25,0.25,0.0,0.5,0.0,0.0,0.25,0.25,-0.11,-0.05,0.52,0.0,-1.7,39.2
1.28,1.25,1.5,1.5,7.75,5.5,4.75,6.25,6.75,3.0,9.75,5.0,8.25,9.0,-0.11,-0.05,0.95,1177.12,0.0,-29.2,0.25,0.25,0.0,0.5,3.75,0.25,0.25,0.0,0.5,0.25,0.0,0.0,0.25,0.02,-0.11,0.64,0.0,-0.4,38.1
1.3,1.25,1.5,1.75,7.75,5.5,5.25,6.5,6.5,3.0,9.25,5.0,7.5,8.75,-0.11,-0.05,0.95,1190.81,0.1,-26.7,0.25,0.25,0.0,0.5,3.75,0.25,0.0,0.0,0.5,0.0,0.0,0.25,0.25,0.08,-0.11,0.77,20.54,-0.8,37.0
1.32,1.25,1.5,1.5,8.0,5.5,5.0,6.25,7.0,3.25,9.5,4.5,7.5,8.0,-0.17,0.02,0.95,1168.24,0.0,-26.1,0.0,0.25,0.0,0.25,3.75,0.5,0.0,0.0,0.25,0.0,0.0,0.25,0.75,0.08,-0.05,0.95,50.14,3.4,25.3
1.34,1.5,1.5,1.75,8.0,5.75,5.75,6.25,7.25,3.0,9.5,4.5,7.25,8.0,-0.17,-0.05,0.95,1148.04,0.0,-24.0,0.0,0.5,0.0,0.5,3.75,0.5,0.0,0.0,0.25,0.25,0.0,0.0,0.5,0.08,0.02,1.02,76.06,2.5,35.6
1.36,1.5,1.5,1.75,8.0,5.75,5.75,6.75,7.25,3.25,9.5,4.5,7.0,8.0,-0.11,-0.05,0.95,1128.91,0.0,-23.6,0.0,0.25,0.0,0.0,3.5,0.25,0.0,0.0,0.25,0.75,0.0,0.25,0.5,0.14,0.14,1.2,84.4,4.6,15.9
1.38,1.75,1.5,2.25,8.25,5.75,5.75,7.25,7.25,3.25,9.25,4.5,7.0,7.25,-0.11,-0.05,0.95,1114.4,0.8,-20.9,0.0,0.25,0.0,0.5,3.25,0.75,0.0,0.0,0.25,0.0,0.0,0.25,0.5,0.27,0.27,1.52,98.35,2.9,30.0
1.4,1.75,1.5,2.0,8.25,5.75,6.0,7.25,7.25,3.5,9.0,4.5,6.5,7.25,-0.11,-0.05,0.95,1102.48,0.6,-20.2,0.0,0.0,0.25,0.0,3.75,0.25,0.0,0.0,0.0,0.0,0.0,0.0,0.0,0.39,0.39,1.7,90.01,2.0,52.9
1.42,2.0,1.5,2.75,8.25,6.0,6.75,7.5,7.5,3.75,8.75,4.25,6.0,7.0,-0.11,-0.05,0.95,1108.6,1.0,-16.7,0.0,0.25,0.0,0.25,3.5,0.25,0.0,0.0,0.25,0.5,0.0,0.25,0.5,0.45,0.58,2.39,90.1,3.2,21.2
1.44,2.25,1.5,2.5,8.25,6.25,7.0,7.5,7.5,4.0,8.5,4.0,5.75,6.25,-0.11,-0.05,0.95,1095.41,1.0,-14.4,0.0,0.25,0.0,0.0,3.5,0.25,0.0,0.0,0.25,0.0,0.0,0.0,0.25,0.52,1.2,2.64,86.24,3.1,42.0
1.46,3.0,1.5,2.75,8.5,7.5,7.25,7.75,7.5,4.5,8.25,4.0,5.25,5.75,-0.11,-0.05,0.95,1109.26,1.6,-9.7,0.0,0.0,0.0,0.0,2.75,0.25,0.0,0.0,0.0,0.5,0.0,0.0,0.25,0.45,2.2,2.89,79.07,6.5,26.8
1.48,3.0,1.25,3.0,8.5,7.5,7.75,7.75,7.5,4.75,8.5,4.0,4.75,5.5,-0.11,-0.05,0.95,1130.33,1.6,-8.8,0.0,0.25,0.0,0.0,3.75,0.25,0.0,0.0,0.25,1.5,0.0,0.75,0.25,0.2,3.58,2.39,88.4,4.4,4.3
1.5,3.0,2.75,3.0,8.5,7.75,8.0,8.0,8.0,4.75,8.5,4.0,3.0,4.5,-0.11,-0.05,0.95,1155.29,1.7,-2.2,0.0,0.0,0.0,0.0,3.0,0.25,0.0,0.0,0.25,1.0,0.0,0.25,0.25,0.52,5.27,-1.42,87.07,5.6,9.7
1.52,3.5,3.0,3.0,9.25,8.5,8.75,8.25,8.0,5.0,7.75,3.0,3.25,4.0,-0.11,-0.05,0.95,1187.3,2.1,2.4,1.25,0.0,0.0,2.0,3.0,1.5,0.0,0.0,0.25,0.25,0.0,0.0,0.5,-1.48,6.45,-1.86,110.04,-2.7,41.9
1.54,4.75,3.0,3.0,10.5,9.25,9.0,8.5,8.25,5.25,7.75,2.5,2.75,3.25,-0.11,-0.05,0.95,1238.33,2.8,7.8,0.0,0.0,0.0,0.0,2.5,0.0,0.0,0.0,0.5,0.5,0.75,1.0,0.5,0.45,0.77,0.64,107.62,0.2,-20.0
1.56,5.75,2.75,4.0,11.0,11.5,9.75,8.75,8.25,5.25,8.0,2.5,2.5,2.25,-0.11,-0.05,0.95,1315.67,3.4,13.0,0.0,1.0,0.0,0.0,1.75,0.25,0.0,0.0,0.75,1.0,1.5,2.5,2.25,0.27,-0.36,1.77,134.32,0.0,-46.3
1.58,6.75,3.0,5.0,13.0,11.5,10.5,9.25,8.25,5.0,7.75,2.75,1.75,2.25,-0.11,-0.05,1.08,1394.38,4.5,17.4,1.25,1.25,0.0,0.0,2.5,2.0,0.0,1.0,1.25,5.0,2.0,5.75,6.0,-0.48,0.02,2.33,226.96,3.1,-51.4
1.6,7.5,3.0,5.75,13.5,14.0,11.5,9.75,8.5,4.75,7.75,2.5,1.75,2.25,-0.11,-0.05,1.14,1496.72,4.5,20.2,2.0,1.25,0.75,1.5,4.5,2.75,1.0,2.75,1.5,6.0,4.75,7.5,0.0,0.52,0.52,6.14,330.4,-1.9,-26.4
1.62,9.0,4.5,6.5,14.5,15.5,11.5,9.25,8.25,4.5,7.75,2.75,2.0,2.25,-0.11,0.02,1.08,1614.87,5.3,23.7,2.25,1.25,1.75,0.0,4.25,2.75,0.75,3.25,2.0,6.5,6.5,6.75,8.5,0.2,0.02,1.27,507.15,0.6,-44.3
1.64,11.0,4.5,6.75,14.5,15.5,11.5,9.0,8.0,4.0,7.5,2.0,2.0,2.25,-0.23,0.08,1.27,1708.24,6.0,26.7,1.25,1.0,0.0,0.0,3.75,2.5,0.75,2.75,1.75,6.75,5.75,6.75,8.0,0.14,0.08,1.02,631.16,3.0,-53.8
1.66,13.0,5.75,7.5,14.5,15.5,10.5,8.5,8.0,3.25,7.5,2.0,1.75,2.25,-0.3,0.14,1.39,1781.55,7.1,30.1,1.0,0.75,0.0,0.25,3.75,2.75,0.75,3.0,1.75,6.75,5.75,6.5,8.25,0.2,0.02,0.95,712.52,3.6,-54.3
1.68,15.0,4.5,8.0,14.5,15.5,9.5,8.25,7.5,2.5,7.25,2.25,1.75,2.25,-0.36,0.27,1.77,1815.34,8.1,31.5,0.75,1.0,0.0,0.5,3.75,2.75,1.0,4.25,2.5,6.5,5.75,6.75,8.0,0.08,0.02,0.95,744.01,3.4,-52.5
1.7,15.0,5.75,8.0,12.5,13.0,8.0,8.5,7.0,2.0,7.25,1.75,1.75,2.0,-0.67,0.39,2.2,1786.06,9.0,32.9,1.0,2.0,0.0,0.25,3.75,3.0,1.0,3.5,2.25,7.0,5.75,7.5,8.25,0.08,0.02,0.95,771.66,2.9,-50.2
1.72,10.5,4.5,6.5,8.25,9.25,5.75,8.25,6.0,1.25,6.5,1.75,0.5,0.75,-0.8,0.64,2.95,1598.86,9.0,32.3,1.75,0.75,0.0,1.0,3.75,3.75,1.25,4.0,2.5,7.0,5.75,6.5,8.0,0.08,0.02,0.89,783.02,2.9,-47.0
1.74,4.0,0.0,1.75,5.75,5.5,2.75,6.5,3.0,0.75,5.25,0.25,0.0,0.25,-0.98,-0.17,2.2,1174.69,6.0,22.6,2.5,1.0,2.75,2.75,6.5,4.25,1.75,4.25,3.25,6.75,6.25,6.25,8.5,0.08,0.02,0.89,847.96,-0.4,-29.4
1.76,2.25,0.0,0.5,6.0,0.0,2.75,6.25,2.5,0.75,5.25,0.25,0.0,0.25,-0.05,0.2,0.77,671.92,5.2,8.6,2.25,2.25,0.25,1.25,4.25,4.25,1.5,4.25,3.0,6.0,5.0,6.0,7.75,0.14,0.02,0.95,836.88,1.7,-35.3
1.78,1.25,0.0,0.75,6.0,4.5,1.75,6.25,2.5,0.5,5.25,0.25,0.0,0.25,-0.8,-0.67,3.2,372.58,3.7,14.2,2.75,1.25,1.75,3.0,4.25,6.0,1.75,4.25,3.5,6.75,5.0,6.0,7.0,0.14,0.02,0.95,842.28,0.3,-27.9
1.8,1.0,1.25,0.5,6.0,2.5,1.75,6.25,2.5,0.25,5.0,0.25,0.0,0.25,-1.11,-1.3,2.27,243.06,4.3,15.1,2.75,2.0,2.75,2.75,6.25,6.25,2.75,5.25,3.75,6.25,5.25,5.25,7.0,0.14,0.02,0.95,847.49,-0.3,-19.9
1.82,1.0,1.25,0.5,5.75,1.25,1.75,6.25,2.75,0.0,5.75,0.25,0.0,0.25,-0.8,-0.86,0.95,179.99,3.7,9.5,3.75,2.0,2.75,3.0,6.5,6.25,3.25,5.25,3.75,6.0,5.0,4.25,6.0,0.14,0.02,0.95,858.43,-1.2,-13.3
1.84,1.0,1.25,0.25,5.5,2.5,1.5,6.25,2.75,0.0,5.25,0.25,0.0,0.25,-0.42,-0.55,0.33,154.46,3.4,12.6,5.0,2.25,2.75,4.0,7.5,6.75,3.5,5.25,3.75,5.75,4.75,3.5,5.0,0.14,0.02,0.95,892.08,-2.2,-4.1
1.86,1.0,1.25,0.5,6.0,1.75,1.0,6.25,2.5,0.25,5.25,0.25,0.0,0.0,-0.23,-0.36,0.14,141.57,5.4,13.5,5.0,2.5,4.25,5.0,8.0,7.0,4.0,5.25,4.0,5.25,4.5,3.0,4.25,0.14,0.02,0.95,939.58,-3.6,2.7
1.88,1.0,1.25,0.25,6.0,1.75,0.5,6.0,2.5,0.0,5.25,0.25,0.0,0.0,-0.3,-0.3,0.33,137.15,5.4,13.1,5.5,2.75,5.25,5.5,8.0,7.0,4.5,5.25,3.75,4.75,4.0,2.5,3.25,0.14,0.02,0.95,990.04,-5.1,9.7
1.9,0.75,1.0,0.25,6.0,1.75,0.5,6.25,2.5,0.0,5.75,0.25,0.0,0.0,-0.42,-0.36,0.83,150.45,4.7,9.3,6.5,2.75,5.25,7.0,9.0,7.25,4.75,5.0,3.75,3.5,3.75,2.0,3.25,0.14,0.02,0.95,1031.03,-6.1,16.3
1.92,0.5,1.25,0.25,6.5,0.75,0.75,6.0,2.5,0.0,5.5,0.25,0.0,0.0,-0.42,-0.3,1.02,176.34,5.0,9.3,7.0,2.75,6.0,7.75,9.5,7.5,5.25,4.75,3.5,3.75,3.75,1.5,3.0,0.08,0.02,1.02,1078.0,-6.7,19.9
1.94,0.75,1.25,0.25,6.25,2.5,0.5,6.25,2.5,0.25,5.25,0.25,0.5,0.0,-0.36,-0.17,1.02,222.13,5.2,11.2,7.5,2.75,6.75,8.75,10.5,7.5,5.5,4.5,3.5,3.5,3.75,1.5,2.75,0.08,0.02,1.02,1138.01,-7.6,23.2
1.96,0.5,1.0,0.25,6.0,1.75,1.0,6.0,2.5,0.0,5.25,0.25,0.0,0.0,-0.3,0.08,1.08,260.54,4.1,10.7,8.5,3.0,7.0,10.5,11.5,7.75,5.5,4.25,3.25,3.5,3.0,1.5,2.5,0.08,0.08,0.95,1211.52,-8.2,28.0
1.98,0.25,1.25,0.0,6.0,2.25,0.75,6.0,2.5,0.0,5.25,0.25,0.0,0.0,-0.3,0.14,1.27,288.06,3.5,11.1,9.25,3.25,7.75,12.0,12.0,7.75,5.5,4.25,3.25,3.25,2.75,1.5,2.5,0.08,0.08,0.95,1298.55,-8.9,30.8
2.0,0.5,1.25,0.25,5.5,1.75,1.25,6.0,2.5,0.0,5.0,0.25,0.0,0.0,-0.42,0.27,1.77,289.77,3.8,11.9,9.75,3.75,7.75,12.5,13.5,8.0,5.25,4.25,2.75,3.0,2.75,1.5,2.25,0.02,0.14,1.02,1368.95,-8.9,33.6
2.02,0.5,1.25,0.25,6.0,1.75,0.5,6.0,2.5,0.0,5.25,0.25,0.0,0.0,-0.55,0.45,2.02,287.2,4.8,11.2,10.5,4.25,8.75,14.0,13.5,8.0,5.25,4.25,2.5,2.75,2.75,1.5,2.25,0.02,0.14,1.02,1430.54,-9.7,36.0
2.04,0.25,1.25,0.25,6.0,2.25,0.5,6.0,2.5,0.0,5.25,0.0,0.0,0.0,-0.8,0.7,2.64,287.55,4.2,12.4,11.5,4.25,8.75,14.0,15.0,7.75,4.75,4.25,2.25,1.5,2.75,1.25,1.75,0.08,0.2,1.08,1475.45,-10.3,40.6
2.06,0.25,1.25,0.25,5.75,1.75,0.5,6.0,2.5,0.0,5.25,0.25,0.0,0.0,-1.11,1.58,3.02,286.44,4.3,9.7,12.5,5.0,8.75,15.0,15.0,7.75,4.5,4.25,1.75,1.5,2.75,1.25,2.0,0.02,0.2,1.08,1521.18,-10.6,42.0
2.08,0.25,1.25,0.0,5.75,1.75,0.5,5.75,2.5,0.0,5.5,0.25,0.5,0.0,-1.17,2.58,2.83,285.94,3.6,5.2,12.5,4.75,9.25,15.5,15.0,7.75,4.0,4.25,1.75,3.0,2.75,1.0,1.75,0.02,0.33,1.14,1553.64,-10.4,40.9
2.1,0.25,1.25,0.25,6.0,1.25,0.5,5.75,2.5,0.0,5.75,0.25,0.0,0.0,-1.05,4.33,1.58,284.67,4.0,7.0,13.5,4.75,0.0,14.0,15.0,7.75,4.0,4.25,0.0,3.25,2.5,1.0,2.0,0.2,0.39,1.2,1500.36,-6.6,40.0
2.12,0.5,1.25,0.0,6.0,0.5,1.5,6.0,2.5,0.0,5.75,0.0,0.0,0.0,-0.17,6.02,-0.98,284.05,3.1,7.7,13.5,3.75,9.0,14.0,15.0,7.25,4.25,4.0,1.25,1.75,1.75,0.75,1.5,0.27,0.45,1.39,1480.71,-11.2,45.5
2.14,1.25,1.25,0.25,7.0,5.0,2.75,6.25,3.25,0.5,6.25,1.5,0.25,1.0,1.45,7.02,-1.42,338.17,2.0,8.6,12.5,4.75,9.25,12.0,13.5,7.0,4.5,3.0,1.0,1.5,0.0,1.25,1.5,0.39,0.7,1.64,1414.62,-11.8,48.8
2.16,1.0,1.25,0.0,6.75,2.5,2.75,5.5,2.75,0.75,6.5,0.25,2.25,0.0,1.77,3.7,4.27,372.6,2.3,1.8,11.0,4.25,8.75,9.5,12.0,6.25,4.25,2.75,0.75,1.5,0.0,0.75,1.5,0.83,0.95,2.58,1318.7,-11.8,48.8
2.18,1.0,1.25,0.5,6.75,4.75,3.0,6.0,4.5,0.75,7.0,1.75,2.5,4.0,0.02,-0.55,0.02,465.33,0.1,-10.9,8.5,2.75,6.75,6.75,9.0,3.75,2.75,1.25,0.75,0.0,0.0,0.25,0.5,1.02,0.89,2.58,1035.15,-14.2,57.0
2.2,0.25,1.25,0.25,6.75,1.25,1.75,6.0,4.5,0.25,7.25,1.0,5.0,5.25,-0.23,-0.05,3.2,512.15,0.0,-30.3,5.75,1.75,5.25,3.25,6.5,3.25,1.25,1.25,1.0,1.5,1.75,0.5,0.5,0.77,0.02,2.14,739.84,-11.4,39.1
2.22,1.25,1.75,1.5,6.75,5.5,3.5,6.5,5.75,1.25,7.75,3.0,6.75,6.25,-1.61,0.7,6.33,652.5,0.8,-21.4,2.5,1.0,2.75,2.75,5.75,2.5,0.75,1.0,0.75,1.75,1.75,0.75,1.5,-0.42,0.02,1.33,465.57,-6.0,20.7
2.24,1.5,1.25,0.0,6.0,4.5,4.0,6.75,6.5,2.0,8.5,2.75,6.75,7.5,0.2,0.14,1.39,753.61,-1.1,-29.5,0.0,1.25,2.75,2.75,5.75,2.75,0.75,0.25,0.75,1.25,1.5,0.5,1.5,0.08,-0.3,3.02,298.71,-3.9,20.3
2.26,0.0,1.25,2.25,7.0,3.0,4.5,7.75,6.5,2.5,3.5,2.75,6.75,7.25,0.02,0.08,1.02,829.62,1.8,-24.0,1.0,0.75,2.0,1.25,5.25,0.0,0.75,1.25,0.25,0.0,1.0,0.25,0.5,1.08,-0.86,0.7,186.91,-8.3,33.2
2.28,2.75,0.0,0.25,7.0,5.5,6.25,7.5,6.75,3.25,8.75,3.5,7.5,7.75,-0.11,-0.05,0.95,929.53,-0.5,-26.2,0.75,0.5,0.5,1.25,3.75,0.25,0.25,0.0,0.5,0.25,0.75,0.5,0.5,0.52,-0.42,0.27,84.61,-6.3,26.0
2.3,2.5,0.0,2.25,8.25,5.75,6.0,7.75,7.75,3.25,10.5,5.0,8.0,9.0,-0.11,0.02,0.95,1071.07,0.3,-26.8,0.5,0.5,0.0,1.25,3.75,0.25,0.25,0.0,0.5,0.0,0.0,0.25,0.5,0.2,-0.3,0.2,0.0,-3.7,37.9
2.32,2.25,1.25,2.5,8.25,6.5,7.0,7.75,8.0,3.75,10.5,5.0,7.5,9.0,-0.17,-0.05,0.95,1220.96,0.2,-22.6,0.5,0.25,0.0,0.5,3.75,1.0,0.25,0.0,0.5,1.0,0.75,0.0,0.5,0.02,-0.11,0.45,0.0,1.3,17.4
2.34,2.5,0.75,2.25,8.5,6.75,7.25,7.75,8.0,3.75,10.5,3.0,7.5,8.0,-0.17,-0.05,0.95,1308.23,0.0,-20.0,0.5,0.25,0.0,1.25,5.25,0.5,0.0,0.0,0.25,0.0,0.25,0.25,0.5,0.02,-0.11,0.7,0.0,-1.2,38.2
2.36,2.75,0.75,3.0,8.5,7.0,7.5,7.75,8.0,3.75,10.5,3.0,6.75,7.75,-0.17,-0.05,0.95,1344.37,0.4,-17.1,2.0,1.25,0.0,0.0,3.75,0.25,0.0,0.0,0.25,0.0,0.0,0.25,0.5,0.14,-0.11,0.89,0.0,-6.8,52.2
2.38,2.75,1.0,2.75,8.5,7.25,7.75,7.75,8.25,3.75,9.5,3.5,5.75,7.25,-0.11,-0.05,0.95,1332.61,0.4,-14.3,0.25,0.75,1.5,0.75,4.5,0.25,0.75,0.75,0.5,0.0,0.0,0.5,0.5,0.27,-0.05,1.02,16.83,-6.1,33.0
2.4,3.0,1.25,3.0,8.5,7.5,8.0,7.5,8.25,3.25,9.25,2.25,3.5,6.25,-0.11,-0.05,0.95,1302.5,0.3,-6.8,0.5,0.0,0.0,0.0,3.5,0.25,0.0,0.0,0.25,0.0,0.0,0.25,0.5,0.27,0.08,1.14,33.08,0.7,30.7
2.42,1.25,0.5,1.5,8.5,5.75,8.25,7.5,8.25,3.25,8.75,2.0,3.5,4.0,-0.17,-0.05,0.95,1176.46,-1.0,-9.8,0.25,0.0,0.5,0.25,3.75,0.25,0.0,0.0,0.25,0.5,0.0,0.0,0.5,0.2,0.27,1.39,57.33,-0.1,30.0
2.44,3.0,1.25,3.0,8.5,6.5,8.25,7.5,8.25,3.25,8.5,1.75,3.25,4.0,-0.17,-0.05,0.95,1110.74,0.8,-2.3,0.0,0.0,0.0,2.5,3.5,0.25,0.0,0.0,0.25,0.0,0.0,0.25,0.5,0.27,0.52,1.64,70.83,-3.0,35.7
2.46,3.0,1.25,3.0,8.5,8.25,9.0,7.5,8.25,3.0,8.5,1.5,2.0,4.0,-0.17,0.02,0.95,1055.88,0.2,2.2,0.25,0.25,0.0,0.0,3.5,0.25,0.0,0.0,0.25,0.0,0.25,0.0,0.5,0.39,0.64,2.02,77.31,1.5,32.6
2.48,2.75,1.5,2.5,8.75,7.75,9.0,7.5,8.25,3.0,8.5,1.0,2.0,2.25,-0.17,0.02,0.95,1029.17,0.2,5.4,1.25,0.5,1.75,1.0,4.25,1.75,0.75,0.25,0.0,0.5,0.5,0.25,0.5,0.64,0.89,2.39,121.36,-5.9,36.9
2.5,1.75,1.25,1.0,8.5,7.5,9.0,7.25,8.0,2.75,7.5,0.5,2.0,2.0,-0.17,0.02,0.89,961.22,-1.2,4.4,0.0,0.25,0.25,0.0,3.25,0.25,0.0,0.0,0.25,0.25,1.5,0.25,0.5,0.83,1.52,2.77,128.57,-0.7,3.9
2.52,3.0,1.25,2.75,9.5,9.25,9.75,7.75,8.5,3.25,8.0,1.75,2.0,2.25,-0.17,-0.05,0.95,966.97,0.6,7.2,0.0,0.0,0.0,0.0,3.25,0.25,0.0,0.0,0.0,0.0,0.25,0.75,0.5,0.89,2.14,2.52,124.12,2.8,9.5
2.54,3.25,1.5,3.0,10.5,9.5,9.75,7.75,8.5,3.25,7.5,1.5,2.0,2.25,-0.17,0.02,0.95,993.68,1.2,10.0,0.0,0.0,0.0,0.0,4.25,0.25,0.5,0.0,0.5,1.5,1.25,1.25,0.5,1.14,3.77,1.52,124.27,1.3,-13.4
2.56,3.25,3.0,3.0,11.0,11.5,10.5,7.75,8.5,3.25,7.75,1.75,2.0,2.25,-0.17,0.02,0.95,1093.69,1.2,13.2,1.5,0.25,1.25,1.5,4.25,1.75,0.75,0.75,0.5,1.0,1.0,0.75,1.5,0.58,4.64,-0.55,165.42,-3.5,12.5
2.58,4.25,3.0,3.0,11.0,10.5,11.0,8.25,8.5,3.5,7.75,2.0,2.0,2.25,-0.11,-0.05,0.95,1190.91,1.7,13.4,1.5,0.25,0.5,1.5,4.25,2.5,0.75,1.0,0.5,1.25,1.75,0.75,1.5,-1.17,5.45,-0.17,207.44,-0.7,5.9
2.6,4.75,3.0,3.25,12.5,13.0,11.5,8.0,8.75,3.75,7.5,2.0,2.0,2.25,-0.17,-0.05,0.95,1316.33,2.0,16.4,1.0,0.25,1.25,1.25,4.25,0.5,0.25,1.25,0.0,0.5,1.75,0.25,1.5,-2.67,4.27,1.14,230.21,-3.7,9.8
2.62,5.75,3.0,4.5,13.0,14.0,12.0,8.5,8.75,3.75,7.75,1.75,2.0,2.25,-0.17,-0.05,1.02,1411.02,2.8,18.9,1.5,0.5,0.5,1.25,3.0,1.0,0.0,1.25,0.75,3.0,1.5,2.75,1.5,1.45,-0.67,2.39,251.91,-1.2,-19.5
2.64,6.5,3.0,5.0,14.5,15.0,13.0,8.5,8.75,3.75,7.75,2.0,2.0,2.25,-0.17,0.02,1.02,1522.58,3.1,20.8,1.5,1.0,1.25,1.25,4.25,1.25,0.25,1.25,0.25,3.5,2.75,5.0,5.0,0.45,0.08,0.64,297.81,-0.8,-32.2
2.66,7.5,3.0,5.75,16.0,16.5,13.0,8.75,8.75,3.75,7.5,1.75,2.0,2.25,-0.17,0.02,1.02,1635.35,3.9,23.6,2.0,0.75,0.5,1.25,4.25,2.0,0.25,1.25,1.0,5.75,3.75,6.5,7.0,-0.67,0.14,1.02,384.07,1.0,-43.6
2.68,8.5,3.0,6.5,16.0,16.0,13.5,8.25,8.75,3.25,7.5,2.0,2.0,2.25,-0.17,0.08,1.08,1716.68,4.3,24.6,1.75,1.25,0.75,0.5,4.25,2.75,0.5,2.75,1.75,6.5,5.25,7.25,8.5,-0.61,0.27,1.27,521.66,1.9,-47.2
2.7,10.0,4.5,6.5,17.5,17.5,13.0,8.75,8.5,3.25,7.5,1.75,1.75,2.0,-0.23,0.14,1.14,1805.52,5.2,28.8,2.25,0.5,1.5,0.5,4.25,3.25,0.75,3.75,2.5,7.0,6.25,7.5,8.75,0.14,0.39,1.2,671.16,1.2,-46.6
2.72,12.0,5.75,8.0,17.5,18.5,13.0,8.25,8.25,2.5,7.5,1.75,1.75,2.0,-0.3,0.2,1.33,1895.67,6.2,32.3,2.25,1.25,1.75,1.25,4.25,2.75,0.75,4.25,2.5,7.5,6.5,7.75,9.25,0.2,0.02,1.02,796.51,0.6,-44.4
2.74,13.5,5.75,8.0,17.5,16.5,12.0,8.5,8.0,2.5,7.5,1.75,1.75,2.0,-0.36,0.27,1.45,1946.64,7.1,32.8,1.25,1.0,0.0,0.0,3.75,2.75,0.25,3.25,2.0,7.0,5.75,6.75,8.5,0.14,0.02,0.95,822.94,3.6,-54.3
2.76,14.0,5.75,9.0,16.0,16.5,10.5,8.5,7.5,1.5,7.25,1.75,1.75,2.0,-0.42,0.33,1.7,1942.64,8.0,34.3,1.0,0.75,0.5,0.75,3.75,2.75,0.5,3.75,2.75,7.0,6.0,6.75,8.5,0.08,0.02,0.95,820.16,2.8,-52.1
2.78,13.0,5.25,8.25,14.5,14.0,9.0,8.0,7.0,1.5,7.25,1.75,1.75,2.0,-0.92,0.64,1.89,1866.74,8.2,32.5,3.0,1.5,0.5,2.75,3.75,4.5,1.0,4.25,3.25,7.75,6.0,7.5,8.0,0.14,0.02,0.95,833.94,0.8,-37.7
2.8,10.5,4.5,6.75,9.25,11.0,7.25,7.75,5.75,0.75,6.5,1.75,1.0,1.75,-0.92,0.7,2.7,1662.66,7.9,31.2,2.5,2.0,2.5,2.75,5.75,5.0,1.75,5.0,3.75,7.5,7.25,7.25,8.5,0.14,0.02,0.95,902.58,-0.2,-30.8
2.82,6.25,0.25,4.0,7.5,7.5,3.25,6.5,4.5,0.75,5.25,0.25,0.0,0.25,-1.17,0.52,2.45,1300.97,8.0,29.8,2.75,2.5,2.75,2.75,6.25,5.25,2.0,5.25,4.5,6.25,6.75,6.0,8.25,0.08,0.02,0.95,966.36,-0.8,-24.6
2.84,3.0,1.25,1.75,6.0,4.75,2.75,5.0,1.5,0.5,4.75,0.0,0.0,0.0,-0.73,-0.42,1.7,791.07,6.7,30.1,2.5,2.75,2.75,2.75,6.25,5.5,2.5,5.0,4.0,6.75,6.25,6.0,7.0,0.14,0.02,0.95,1002.26,-0.8,-22.1
2.86,1.75,0.75,1.0,6.5,4.75,3.0,4.75,2.5,0.5,4.75,0.25,0.0,0.25,-0.67,0.27,2.27,455.41,3.5,21.4,3.25,2.5,2.75,3.0,6.25,6.25,3.0,5.25,4.5,6.0,5.5,5.25,7.0,0.2,0.02,0.95,996.35,-1.1,-17.7
2.88,1.25,0.75,0.0,6.75,5.0,2.75,5.0,1.75,0.25,5.0,0.25,0.0,0.0,-0.98,-0.98,3.45,286.88,2.5,21.8,3.75,2.25,2.75,3.25,6.75,6.25,3.5,5.25,4.5,5.5,5.0,4.0,5.75,0.14,0.02,0.95,957.5,-1.7,-11.0
2.9,1.0,1.25,0.25,6.25,1.25,2.5,4.75,1.25,0.0,5.25,0.25,0.0,0.0,-1.11,-1.17,2.2,195.26,3.9,16.9,4.5,2.5,4.5,5.0,8.0,6.5,4.0,5.0,4.5,4.75,4.75,3.0,4.75,0.14,0.02,0.95,957.23,-4.0,1.2
2.92,1.0,1.25,0.5,6.0,4.75,2.25,4.75,0.5,0.0,5.25,0.0,0.0,0.25,-0.8,-0.67,0.89,157.2,3.5,24.0,5.0,2.5,5.25,5.0,8.0,7.0,4.5,5.25,4.5,4.5,4.0,2.75,3.75,0.14,0.02,0.95,968.24,-4.7,6.4
2.94,1.0,1.25,0.5,6.0,5.0,2.0,5.5,0.75,0.0,5.25,0.25,0.0,0.0,-0.42,-0.42,0.39,144.59,4.1,24.1,5.5,2.75,5.25,7.0,8.75,7.0,4.75,4.5,3.75,4.25,4.0,2.25,3.25,0.14,0.02,0.95,1002.32,-5.7,13.3
2.96,1.0,1.25,0.25,6.0,5.25,1.75,5.5,2.25,0.0,5.25,0.25,0.0,0.0,-0.23,-0.23,0.27,161.68,2.8,20.4,6.25,2.75,6.5,7.0,9.0,7.5,5.25,4.25,3.75,3.75,4.0,2.0,3.25,0.14,0.02,1.02,1043.73,-6.8,17.0
2.98,1.0,1.25,0.25,6.0,4.25,3.0,5.75,2.5,0.75,6.5,0.0,0.0,0.0,-0.23,-0.23,0.39,202.85,1.3,14.3,6.5,2.75,6.75,8.75,10.5,7.5,5.5,4.25,3.75,3.5,3.25,1.5,2.5,0.14,0.02,1.02,1100.64,-7.4,23.4
3.0,1.25,1.5,1.5,5.75,4.75,1.75,5.5,2.75,0.0,5.75,0.75,0.0,1.25,-0.3,-0.17,0.77,255.87,3.4,12.9,7.5,2.75,7.0,9.75,10.5,7.5,5.5,4.25,3.5,3.5,3.25,1.5,2.5,0.08,0.02,0.95,1145.43,-8.0,25.3
3.02,1.0,1.25,0.25,6.25,4.25,1.75,5.5,2.75,0.0,5.75,1.5,0.0,0.5,-0.3,-0.11,0.95,295.98,2.6,10.3,8.0,2.75,7.75,10.5,11.5,7.25,5.5,4.25,3.25,3.25,3.0,1.5,2.5,0.08,0.08,0.95,1196.98,-8.6,28.0
3.04,1.25,1.25,1.0,6.75,3.5,3.0,5.25,2.25,0.25,6.0,0.0,0.25,0.0,-0.3,0.08,1.08,342.61,3.2,18.0,8.5,3.25,7.75,12.0,12.0,7.5,5.5,4.25,3.25,3.25,3.0,1.5,2.25,0.08,0.08,0.95,1267.46,-8.9,30.3
3.06,1.25,1.5,1.0,5.75,5.5,1.75,6.0,2.25,0.0,5.25,0.5,0.0,0.0,-0.36,0.2,1.2,377.39,4.2,22.1,9.25,3.5,8.0,12.0,12.5,7.75,5.25,4.0,2.75,3.0,2.75,1.5,2.25,0.02,0.14,1.02,1325.09,-9.1,32.9
3.08,1.25,1.5,0.25,6.0,2.25,2.5,5.75,3.0,0.25,6.0,1.5,0.25,1.25,-0.42,0.39,1.39,390.14,2.1,2.9,10.5,4.0,8.5,13.5,13.5,7.75,5.0,4.0,2.5,1.75,2.75,1.5,2.25,0.02,0.14,1.02,1381.76,-10.1,37.3
3.1,0.75,1.25,0.0,6.25,1.75,1.75,5.75,2.5,0.0,5.25,0.25,0.0,0.0,-0.48,0.52,1.58,364.33,3.3,13.2,11.0,4.25,8.75,14.0,13.5,7.0,4.75,4.0,2.0,3.0,2.75,1.5,1.5,0.02,0.2,1.02,1423.48,-10.4,38.3
3.12,0.5,1.25,0.0,6.75,2.25,1.75,5.75,2.0,0.0,5.25,0.0,0.0,0.0,-0.73,0.7,1.89,342.66,3.5,16.4,11.5,4.25,8.75,14.5,15.0,7.5,4.25,3.75,1.5,2.5,2.75,1.25,2.25,0.02,0.27,1.02,1466.71,-10.1,39.5
3.14,0.5,1.25,0.25,6.5,2.25,1.5,5.75,2.25,0.0,5.25,0.0,0.0,0.0,-1.11,1.08,2.39,320.78,3.7,15.6,12.5,4.0,9.0,15.5,15.0,0.0,3.75,3.75,1.25,2.75,2.75,1.5,1.75,0.02,0.27,1.02,1454.29,-13.7,41.4
3.16,0.5,1.25,0.25,6.75,2.25,1.75,5.75,1.75,0.0,5.25,0.0,0.0,0.0,-1.48,1.58,2.83,305.2,4.1,17.5,13.0,5.0,0.0,14.0,15.0,7.5,3.5,3.5,0.0,3.0,2.5,1.5,1.75,0.02,0.33,1.08,1412.05,-6.9,40.6
3.18,0.75,1.25,0.25,6.75,2.5,1.75,5.75,2.25,0.0,5.25,0.0,0.0,0.0,-1.11,2.89,2.83,302.58,3.8,17.5,13.5,4.75,0.0,14.5,15.0,7.5,3.5,3.5,0.0,2.0,2.25,1.25,2.0,0.2,0.39,1.2,1357.77,-7.3,42.9
3.2,0.5,1.25,0.25,6.25,1.75,1.75,5.75,2.25,0.0,5.75,0.0,0.0,0.0,-0.42,3.83,2.08,299.3,3.1,12.4,13.5,3.75,9.25,14.0,15.0,7.0,3.5,3.25,1.25,3.25,2.0,1.0,1.75,0.2,0.45,1.33,1371.73,-11.0,42.8
3.22,0.5,1.25,0.25,6.75,1.75,1.75,5.5,2.5,0.0,5.75,0.25,0.0,0.0,1.02,5.89,-0.05,300.04,3.1,11.9,12.5,4.0,9.25,13.5,13.5,7.0,4.0,2.75,1.25,2.75,1.75,1.5,1.75,0.27,0.64,1.45,1374.69,-11.4,42.6
3.24,0.5,1.25,0.25,6.75,1.75,1.75,5.75,2.75,0.0,5.75,0.0,0.0,0.0,2.14,6.7,-1.23,301.32,3.0,12.3,11.5,4.75,8.75,11.0,12.0,7.0,4.0,2.5,1.0,2.0,1.75,1.0,1.5,0.77,0.89,2.02,1345.16,-11.5,45.1
3.26,0.25,1.25,0.25,6.0,2.5,1.75,5.25,2.75,0.0,5.5,0.0,0.75,0.0,1.02,3.95,5.08,306.59,2.0,8.5,9.25,3.5,7.75,8.25,10.5,6.25,3.0,0.5,0.25,0.75,1.75,0.25,1.5,0.77,0.95,2.83,1175.93,-12.2,50.0
3.28,1.0,1.25,0.25,6.75,2.25,2.25,6.0,3.25,0.5,6.5,1.0,3.25,2.75,-0.67,-0.42,2.39,351.74,1.9,-12.7,7.5,2.5,5.75,5.0,8.0,5.0,1.25,1.25,0.75,0.0,0.75,0.75,0.75,0.89,0.58,2.58,900.06,-11.8,50.0
3.3,1.0,1.5,0.25,7.0,2.25,3.75,5.75,4.0,0.75,7.5,1.5,5.75,5.75,-0.42,-0.55,1.45,442.75,0.0,-25.2,2.5,1.5,3.0,2.75,6.25,2.75,0.75,0.0,0.75,1.5,1.75,0.75,0.0,0.2,-0.11,1.83,577.59,-8.4,35.2
3.32,0.0,1.25,1.0,6.75,5.25,2.75,6.0,5.25,0.25,7.5,3.25,6.25,6.25,0.7,0.45,1.89,572.33,-0.2,-26.4,0.0,1.25,2.75,2.75,6.25,2.75,0.5,0.0,0.75,0.0,1.75,0.5,0.5,0.45,-0.11,3.45,350.35,-6.0,33.2
3.34,1.5,1.25,0.0,6.75,1.25,3.75,6.25,5.75,1.75,8.25,4.0,6.75,8.0,-0.17,0.7,1.89,703.81,-0.3,-36.2,1.25,1.25,2.75,2.75,6.0,2.75,0.75,0.0,0.5,1.5,1.75,1.0,1.5,1.2,-1.42,3.08,251.66,-5.4,21.0
3.36,1.0,1.25,0.0,8.25,2.25,4.5,6.5,5.75,2.5,0.0,4.0,8.25,7.25,0.02,-0.11,0.89,761.91,2.8,-25.5,2.25,1.5,2.25,2.75,5.75,0.75,0.75,0.75,0.5,1.0,1.75,0.5,1.5,0.83,-0.67,1.14,201.33,-8.1,25.7
3.38,1.0,1.25,0.25,7.0,5.75,5.0,7.0,6.5,3.0,6.75,5.25,8.25,8.5,-0.11,0.02,1.02,876.61,-0.1,-29.5,1.0,1.0,0.75,2.0,4.5,0.5,0.25,0.0,0.5,0.0,0.5,1.5,0.5,0.52,-0.42,0.33,145.66,-7.6,28.2
3.4,1.25,1.0,0.5,7.75,5.5,5.25,7.25,7.0,3.0,3.5,4.75,8.25,8.75,-0.11,-0.05,0.95,943.57,0.8,-25.7,1.0,0.5,2.25,1.25,3.75,0.25,0.0,0.0,0.25,0.0,0.0,0.25,1.5,0.27,-0.3,0.2,91.43,-9.8,33.6
3.42,2.0,0.5,1.75,8.0,5.75,5.75,7.25,7.25,3.75,9.75,4.5,8.25,8.75,-0.11,-0.05,0.95,1074.33,0.2,-27.2,1.25,1.25,1.75,1.75,3.75,1.25,0.5,0.0,0.25,1.25,0.75,0.5,1.5,0.02,-0.23,0.39,67.01,-6.1,21.9
3.44,2.0,1.25,2.25,8.25,5.75,6.0,7.5,7.25,4.0,9.5,4.25,7.75,8.75,-0.17,-0.05,0.95,1171.69,0.7,-23.7,0.75,1.25,0.5,0.5,4.25,0.25,0.75,0.0,0.25,0.0,1.5,0.25,1.5,0.02,-0.3,0.7,43.94,-4.9,18.5
3.46,2.75,0.75,0.5,8.25,5.5,6.25,7.25,6.75,4.25,9.0,3.5,6.75,8.0,-0.11,-0.05,0.95,1211.18,0.0,-22.6,0.5,0.5,0.0,1.5,3.75,0.5,0.0,0.0,0.25,0.0,0.0,1.0,0.5,0.2,-0.23,0.83,42.76,-3.2,28.5
3.48,1.25,1.0,0.5,7.0,5.75,5.75,7.5,6.75,3.5,8.75,4.5,6.0,6.5,-0.11,-0.05,0.95,1159.06,-0.4,-23.7,0.75,0.25,0.0,0.0,4.25,0.25,0.0,0.0,0.5,1.25,0.0,1.0,0.5,0.27,-0.17,0.83,53.34,0.6,9.1
3.5,1.25,1.25,0.75,7.0,5.75,5.75,7.5,6.5,3.5,8.0,3.5,5.75,6.0,-0.11,-0.05,0.95,1076.57,-0.1,-20.1,0.5,0.25,0.0,0.0,3.75,0.25,0.0,0.0,0.25,1.0,0.0,0.25,0.5,0.14,-0.05,1.14,61.67,2.4,19.5
3.52,1.25,1.25,1.0,7.0,5.75,6.0,7.5,6.75,3.5,7.75,2.5,5.0,5.75,-0.11,-0.05,0.95,986.26,-0.2,-16.9,0.5,0.5,0.0,0.0,3.75,0.25,0.0,0.0,0.25,0.0,0.5,0.75,0.5,0.14,0.08,1.39,69.64,-1.4,20.2
3.54,1.25,1.25,1.0,7.0,5.75,6.0,7.75,6.75,3.75,7.5,3.0,4.75,5.25,-0.11,-0.05,0.95,922.63,0.0,-15.9,0.25,0.25,0.0,0.25,3.75,0.25,0.0,0.0,0.25,0.0,0.25,0.5,0.5,0.2,0.2,1.58,74.89,0.1,24.1
3.56,2.0,2.0,1.25,8.5,5.75,7.0,7.75,6.75,4.5,8.0,2.0,5.0,4.25,-0.11,-0.05,0.95,919.97,0.9,-8.8,0.25,0.25,0.0,0.0,3.75,0.0,0.0,0.0,0.25,1.0,1.5,0.25,1.5,0.33,0.39,1.89,85.93,2.0,-11.9
3.58,3.25,1.5,3.0,8.5,7.75,7.25,8.0,7.25,4.5,7.5,3.75,3.5,4.25,-0.11,-0.05,0.95,972.3,2.3,-2.7,0.5,0.25,0.0,0.0,3.75,0.25,0.0,0.0,0.25,0.5,0.25,0.5,0.75,0.45,0.64,2.2,86.87,1.1,14.0
3.6,3.25,2.5,2.75,8.75,7.5,7.75,8.0,7.25,4.75,8.0,3.0,3.25,4.0,-0.11,-0.05,0.95,1033.29,2.1,-0.2,0.0,0.0,0.0,0.0,3.0,0.25,0.0,0.0,0.25,0.0,0.75,0.25,0.5,0.58,0.83,2.64,85.18,1.9,8.3
3.62,3.75,3.0,3.0,9.25,8.0,8.0,8.5,7.25,4.75,8.0,3.75,2.75,3.25,-0.11,-0.05,0.95,1091.32,2.8,3.6,0.25,0.0,0.25,0.0,3.75,0.25,0.0,0.0,0.0,1.0,1.75,0.25,1.5,0.89,1.33,3.27,101.49,1.8,-12.7
3.64,4.25,1.75,3.25,10.5,8.75,8.25,8.5,7.5,4.75,7.75,3.5,2.5,2.25,-0.11,-0.05,0.95,1146.84,3.3,6.9,1.5,0.0,0.0,0.0,3.25,0.25,0.0,0.0,0.25,1.25,1.5,0.0,1.5,1.02,2.27,2.95,113.62,-0.9,-3.7
3.66,4.75,3.0,4.25,10.5,9.25,9.0,9.0,7.75,4.75,7.5,2.5,2.0,2.25,-0.11,-0.05,0.95,1206.68,3.8,12.6,1.75,0.25,0.0,1.25,3.75,2.0,0.5,0.0,0.75,1.25,2.0,0.75,1.5,1.14,4.14,0.52,156.6,-1.8,2.7
3.68,5.75,3.0,5.0,11.0,9.75,9.0,9.5,7.5,4.75,7.5,2.25,2.0,2.5,-0.11,-0.05,0.95,1284.6,4.7,14.8,1.75,0.25,1.25,1.5,4.25,2.25,0.5,1.25,0.5,1.5,1.75,1.25,1.5,-0.36,6.39,-2.11,212.23,-2.4,4.1
3.7,6.0,3.0,5.25,13.0,11.5,9.25,9.75,7.75,4.75,7.5,3.0,2.0,2.25,-0.11,-0.05,1.02,1376.62,5.0,16.8,1.75,0.25,1.25,2.25,4.25,1.75,0.25,1.25,0.5,1.5,1.75,0.75,1.5,-3.55,6.14,0.77,254.72,-3.3,8.3
3.72,6.75,3.25,6.0,13.0,12.0,9.5,10.0,7.75,4.75,7.5,2.5,2.0,2.25,-0.11,-0.05,1.02,1457.07,5.4,18.9,0.0,0.0,1.25,1.25,3.75,2.0,0.25,1.25,0.5,1.25,1.75,1.5,1.5,-1.67,3.33,1.33,265.44,0.3,-10.1
3.74,7.5,4.0,6.25,14.5,13.5,9.75,10.5,7.75,4.75,7.5,2.5,2.0,2.5,-0.11,-0.05,1.02,1550.89,5.8,21.4,1.75,0.0,0.5,1.25,4.5,2.25,0.0,1.25,0.75,4.5,2.75,4.75,4.25,0.58,-0.17,-0.61,310.83,1.3,-34.4
3.76,9.0,4.5,6.5,14.5,14.5,10.5,10.5,7.75,4.5,7.5,2.5,2.0,2.25,-0.11,0.02,1.02,1637.39,6.1,24.1,2.0,0.5,1.25,1.25,4.25,0.5,0.0,1.25,1.25,5.75,4.0,6.75,8.0,0.58,0.02,3.27,396.06,-0.2,-48.0
3.78,10.5,4.75,8.0,16.0,15.5,10.5,10.0,7.5,4.0,7.5,1.0,2.0,2.25,-0.11,0.08,1.14,1723.44,7.0,28.9,2.0,0.75,1.25,1.5,4.25,2.0,0.0,1.25,1.25,6.75,5.0,7.5,8.75,-0.42,-0.17,1.02,526.67,0.5,-47.2
3.8,12.5,5.25,8.25,16.0,15.5,11.0,9.75,7.5,3.75,7.5,2.0,1.75,2.25,-0.11,0.14,1.14,1798.87,7.5,30.1,2.25,1.0,1.0,0.0,4.25,1.75,0.0,2.75,1.75,6.0,6.0,8.0,8.75,-0.36,0.27,1.77,643.18,0.8,-50.8
3.82,15.5,6.25,9.0,16.5,16.5,10.5,9.75,7.25,3.25,7.25,1.75,1.75,1.75,-0.23,0.2,1.27,1880.89,8.7,34.9,2.25,0.25,1.25,1.25,4.5,0.75,0.5,4.0,2.0,8.0,6.25,8.25,9.5,0.45,0.2,1.2,760.34,0.8,-52.3
3.84,18.0,6.75,9.75,16.5,15.5,9.75,10.0,7.25,2.5,7.25,1.75,1.75,2.25,-0.3,0.27,1.52,1950.19,9.8,36.4,2.25,1.5,2.0,0.25,4.25,3.25,0.0,4.25,2.5,8.0,6.5,8.25,9.25,0.14,0.02,0.95,846.26,1.2,-45.9
3.86,19.0,7.0,9.75,15.5,15.5,9.0,9.5,6.75,2.25,7.25,1.75,1.75,1.25,-0.36,0.33,1.64,1979.42,10.5,38.9,2.25,1.75,1.5,1.5,4.75,3.25,0.75,4.25,2.75,8.0,6.75,7.5,9.25,0.14,0.08,1.02,905.36,0.9,-41.4
3.88,18.5,7.25,9.5,14.5,14.0,8.0,9.75,6.5,1.5,7.25,1.75,1.5,2.0,-0.36,0.52,1.89,1955.58,10.7,38.3,1.0,1.0,0.0,0.0,3.75,2.75,0.0,3.75,2.5,7.0,5.75,6.75,8.5,0.14,0.02,0.95,871.28,3.9,-55.0
3.9,12.5,5.5,8.75,11.5,11.5,6.0,9.5,5.75,0.75,6.0,1.5,0.25,2.0,-1.05,0.77,2.89,1784.12,10.4,37.2,1.0,1.0,3.0,0.5,3.5,3.25,0.0,4.0,1.5,7.25,5.75,7.0,8.5,0.14,0.02,0.95,835.75,1.5,-46.5
3.92,9.0,3.25,6.5,0.0,7.75,4.0,8.75,4.5,0.75,6.0,1.75,0.25,1.5,-1.17,0.64,2.77,1437.33,8.9,26.0,1.25,1.0,0.5,0.5,3.75,3.0,0.75,4.25,2.25,7.25,6.0,7.0,8.5,0.14,0.02,0.95,789.13,3.0,-50.9
3.94,4.0,0.0,3.0,7.0,5.0,2.25,6.25,2.75,0.75,6.0,0.0,0.25,0.75,-1.11,0.14,2.95,950.57,7.4,20.8,1.25,1.0,0.5,1.25,3.75,2.75,0.75,4.0,2.5,7.0,6.0,6.75,8.5,0.14,0.02,0.95,762.21,2.4,-49.1
3.96,2.25,0.0,1.75,6.0,0.0,3.0,5.75,0.5,0.5,6.0,0.0,0.0,0.25,-0.17,0.89,0.83,510.31,7.5,14.3,1.25,1.0,0.75,0.75,3.75,3.0,0.5,4.25,2.5,7.0,5.75,6.5,8.25,0.14,0.02,0.95,730.53,2.7,-48.6
3.98,1.75,0.0,1.25,7.5,1.75,4.0,5.75,2.5,0.75,6.25,0.25,0.75,0.0,-1.55,-1.67,4.95,308.22,3.8,10.3,2.25,1.25,1.0,2.75,3.75,4.0,0.75,4.25,2.5,7.25,7.25,7.5,8.75,0.08,0.02,0.89,744.37,0.8,-41.5
4.0,1.5,0.0,0.5,6.75,1.75,2.25,6.0,2.0,0.0,6.0,0.25,0.0,0.0,-0.86,-0.86,2.64,205.9,4.2,11.8,2.0,1.75,2.5,2.5,4.75,4.5,0.75,4.25,3.0,7.25,6.5,6.75,8.5,0.14,0.02,0.95,766.27,0.2,-34.0
4.02,2.25,1.25,0.5,7.0,5.75,3.5,6.0,2.75,0.0,6.0,1.25,1.0,0.0,-0.8,-0.61,1.08,209.89,3.2,16.4,0.75,1.0,0.25,1.25,3.75,3.0,0.75,4.0,3.0,6.5,5.0,6.5,8.0,0.14,0.02,0.95,732.6,3.0,-48.8
4.04,1.25,1.25,0.25,6.0,4.75,1.75,5.75,2.5,0.0,6.0,0.0,0.0,0.75,-0.55,-0.36,0.58,198.98,2.1,14.6,1.0,1.0,0.75,1.25,3.75,3.75,1.0,4.25,3.0,6.25,5.0,6.0,8.0,0.14,0.02,0.89,696.58,2.7,-44.4
4.06,1.25,1.25,0.25,6.0,2.5,1.75,5.75,1.5,0.0,6.0,0.5,0.25,0.0,-0.23,-0.36,0.83,194.99,4.2,13.5,2.25,1.25,1.0,2.25,3.75,4.0,1.25,4.25,3.0,6.0,6.5,5.5,7.25,0.14,0.02,0.95,667.47,0.5,-35.8
4.08,0.5,1.0,0.25,6.5,0.0,1.75,6.25,2.5,0.5,6.5,0.25,0.75,0.25,-0.3,-0.48,1.58,181.72,3.4,-1.6,1.25,2.5,1.25,2.75,4.25,5.25,1.75,4.25,3.75,6.5,4.5,5.25,6.5,0.14,0.02,0.95,660.84,1.1,-27.6
4.1,1.25,1.25,1.75,6.25,5.5,1.75,6.25,2.5,0.0,5.75,0.5,0.0,1.25,-0.48,-0.17,1.02,228.48,4.1,15.7,2.5,2.0,3.0,2.75,6.25,6.0,2.75,5.25,3.75,5.75,5.0,4.5,6.0,0.08,0.02,0.89,707.06,-0.7,-16.6
4.12,1.5,1.25,0.25,6.75,1.75,2.5,6.25,3.25,0.75,6.75,0.25,1.0,0.25,-0.36,0.08,0.58,270.47,3.0,4.7,2.75,2.5,3.75,4.0,7.0,6.25,3.5,5.25,3.75,5.5,4.75,3.5,5.0,0.14,0.02,0.95,779.14,-2.0,-6.9
4.14,1.0,1.25,0.25,6.75,4.25,2.0,6.25,2.5,0.25,5.75,1.5,0.25,1.25,-0.42,-0.23,1.33,333.68,2.8,7.6,4.25,2.75,4.0,5.0,8.0,7.0,4.0,5.25,3.75,4.75,4.0,3.0,4.25,0.14,0.02,0.95,853.19,-3.2,3.2
4.16,1.0,1.25,0.25,6.25,2.25,0.25,6.0,2.5,0.0,5.5,0.25,0.25,1.0,-1.73,2.77,0.64,353.87,4.6,6.9,5.0,2.75,5.25,8.25,9.25,7.75,4.75,5.25,3.75,4.5,4.0,2.5,3.25,0.2,0.02,1.14,958.21,-5.0,12.8
4.18,1.5,1.25,0.25,6.75,1.25,0.5,5.75,2.75,0.0,5.75,0.25,0.25,0.25,0.7,7.02,0.14,349.51,5.6,10.1,6.25,3.25,6.75,10.5,11.5,8.0,5.25,5.5,3.25,4.5,3.75,1.5,3.25,0.14,0.02,1.14,1109.09,-6.2,21.0
4.2,1.25,1.25,0.25,6.0,2.25,1.75,5.75,2.75,0.0,5.75,0.25,0.25,1.0,1.7,7.08,1.58,337.89,2.7,7.4,7.5,4.25,7.0,12.0,13.5,8.25,5.25,5.5,3.0,4.0,3.25,1.75,2.75,0.08,0.08,1.14,1281.84,-6.9,27.0
4.22,2.0,1.25,0.25,6.0,1.75,1.75,5.75,2.5,0.0,5.75,0.0,0.25,0.25,0.83,7.83,-0.23,326.02,4.4,13.7,9.25,4.25,7.0,13.5,15.0,0.0,3.75,5.5,2.5,1.75,3.0,1.5,2.25,0.14,0.14,1.45,1342.66,-11.4,34.8
4.24,1.5,1.25,0.25,6.25,1.75,1.75,5.5,2.75,0.0,5.75,0.25,0.25,0.25,0.64,6.52,0.58,326.0,3.7,11.2,10.5,3.5,6.75,12.0,14.5,8.25,1.75,5.25,0.0,3.25,2.75,1.5,2.5,0.39,0.27,1.89,1394.82,-7.2,34.7
4.26,1.75,1.25,0.25,5.75,1.75,1.75,5.75,2.5,0.0,5.75,0.0,0.25,0.5,0.33,3.39,0.45,320.59,3.8,11.2,10.5,3.5,8.0,12.0,13.5,7.75,1.75,4.25,1.25,2.75,1.75,1.5,2.25,0.64,0.39,2.08,1403.33,-8.7,37.4
4.28,1.75,1.0,0.25,6.0,0.0,1.75,5.75,2.5,0.0,5.25,0.5,0.25,0.75,0.64,1.7,0.02,316.03,4.8,5.7,9.25,3.75,7.5,9.0,10.5,7.0,3.5,3.75,1.0,2.5,1.75,1.0,1.25,1.33,1.08,2.89,1333.26,-9.6,39.4
4.3,1.0,0.0,0.0,6.75,1.75,1.75,5.75,2.5,0.25,5.75,0.25,0.0,0.0,0.83,-1.61,-0.42,306.75,3.1,7.8,6.75,2.25,6.0,5.25,8.0,5.0,2.25,0.75,1.0,2.75,1.25,0.25,1.5,1.33,1.08,3.89,1086.18,-9.9,38.8
4.32,6.75,2.75,0.25,7.25,2.5,2.5,6.0,2.5,0.75,6.5,0.25,0.5,0.25,-2.98,-5.61,0.7,361.43,8.2,26.4,2.5,0.25,2.75,2.75,5.5,2.75,0.75,1.25,0.5,1.5,1.5,0.5,0.75,-0.17,2.58,2.45,725.93,-6.1,25.5
4.34,2.5,1.25,1.0,7.25,5.25,1.75,6.25,3.0,0.0,6.25,1.5,0.5,2.25,3.2,-0.92,-6.23,415.51,4.0,8.6,1.0,0.0,0.75,1.25,3.75,1.0,0.0,0.0,0.25,0.0,0.75,0.75,0.5,1.33,3.83,3.33,381.46,-5.6,26.2
4.36,15.5,6.5,6.5,10.5,5.5,3.0,9.0,3.0,0.75,6.75,0.25,1.25,1.5,-0.55,-0.42,-1.11,690.34,14.1,40.9,1.0,0.0,0.25,0.0,3.75,0.5,0.0,0.0,0.5,0.25,0.75,0.25,0.5,0.33,1.33,3.02,186.42,-2.7,21.7
4.38,12.5,7.0,7.25,10.5,5.5,2.75,8.75,2.5,0.75,6.5,1.5,0.25,1.0,4.58,-1.42,6.02,925.48,14.2,41.7,0.75,0.0,0.75,1.25,4.25,0.25,0.0,0.0,0.5,0.0,0.75,0.25,0.25,-0.23,0.64,0.52,47.63,-6.9,34.4
4.4,17.5,7.25,9.75,13.0,5.75,1.75,13.0,1.5,0.75,6.0,0.5,0.25,0.5,1.39,1.89,5.08,1229.67,18.4,51.2,0.75,0.0,0.0,1.25,3.5,0.25,0.0,0.0,0.5,0.25,0.75,0.25,0.75,-0.05,0.89,0.64,0.0,-3.3,18.7
4.42,17.0,8.5,11.5,13.0,7.5,2.25,15.0,3.0,0.75,6.5,1.25,1.0,1.5,-1.11,1.02,2.89,1436.23,16.6,44.5,1.0,0.0,0.5,0.0,1.5,0.25,0.0,0.0,0.5,0.25,0.75,0.25,0.5,0.14,1.08,0.33,0.0,-8.1,8.3
4.44,19.5,8.25,11.0,12.0,6.25,2.0,14.5,3.0,0.75,6.5,1.75,0.75,1.5,-1.36,1.58,2.95,1574.22,17.4,45.3,1.0,0.25,0.25,0.5,2.75,0.25,0.0,0.0,0.5,0.0,0.75,0.25,0.25,0.14,0.45,0.64,0.0,-7.2,29.7
4.46,10.5,4.0,9.75,7.25,2.25,0.0,11.5,2.5,0.0,5.5,0.25,0.0,0.25,-1.86,3.45,3.08,1436.37,19.7,44.6,0.75,0.25,0.0,0.0,2.75,0.25,0.0,0.0,0.25,0.25,0.75,1.25,0.5,-0.48,-0.55,2.33,0.0,-3.0,-0.5
4.48,3.0,0.0,4.25,5.5,1.75,0.25,8.5,1.75,0.0,4.5,0.25,0.0,0.25,-0.92,5.52,1.14,1068.05,14.7,24.9,2.25,1.0,2.5,0.25,4.25,2.5,0.25,0.0,0.5,0.0,1.5,0.75,1.5,-0.55,-2.17,2.64,0.0,-7.4,25.3
4.5,2.25,0.0,1.25,5.25,0.0,0.25,7.75,1.5,0.0,5.0,0.0,0.0,0.0,-4.11,2.14,6.95,651.71,11.8,14.2,0.75,0.0,2.25,0.75,4.25,2.75,0.5,0.0,0.5,1.5,1.75,1.0,1.5,-0.48,-3.98,3.95,83.57,-2.6,4.1
4.52,1.25,0.75,1.0,6.75,0.0,0.25,7.5,1.0,0.0,0.0,0.0,0.25,0.0,1.33,1.7,0.02,365.62,20.3,46.5,2.25,0.25,1.75,1.25,4.25,2.75,0.25,0.0,0.5,1.5,1.75,1.0,1.5,-1.36,-4.86,4.7,178.18,-4.3,12.0
4.54,1.25,0.0,0.5,7.0,0.75,0.25,7.25,0.5,0.0,5.0,0.0,0.0,0.5,0.52,1.64,-0.11,247.68,10.0,13.5,0.5,0.25,2.0,0.0,4.5,0.5,0.25,0.0,0.0,0.25,0.0,0.25,0.5,-1.17,-4.23,2.02,198.4,-6.8,40.8
4.56,1.25,0.25,0.5,7.0,1.75,0.75,7.25,0.75,0.0,4.25,0.0,0.0,0.0,1.7,1.64,1.39,192.93,9.7,23.1,0.75,0.0,0.0,0.0,3.25,1.75,0.0,0.0,0.0,0.0,0.75,0.25,0.5,1.89,7.45,-7.98,191.15,2.9,24.6
4.58,1.25,0.0,0.25,6.25,0.0,0.75,7.0,1.25,0.0,4.5,0.25,0.25,0.0,-1.11,0.14,2.7,160.38,9.2,10.4,0.5,0.25,0.25,0.0,1.5,1.75,0.0,0.0,0.0,0.25,0.75,0.0,0.5,7.95,3.7,-5.3,151.55,2.9,18.0
4.6,1.25,0.0,0.25,6.75,1.75,1.0,6.75,0.5,0.0,4.5,0.0,0.0,0.0,-1.17,-2.73,2.33,131.51,8.6,20.7,0.75,0.25,0.0,0.0,3.0,1.75,0.0,0.0,0.0,0.0,0.75,0.5,0.5,2.64,-2.3,-1.8,128.32,2.0,21.7
4.62,1.0,1.0,0.5,6.5,0.0,1.75,6.75,0.75,0.0,4.25,0.0,0.0,0.0,-0.61,-4.67,2.33,132.19,8.8,21.5,0.75,0.0,0.0,0.0,2.5,0.5,0.0,0.0,0.0,1.5,0.75,1.25,0.5,0.45,-3.61,0.89,114.26,0.9,-15.1
4.64,1.0,1.25,0.5,6.75,0.0,1.75,6.75,1.0,0.0,4.5,0.0,0.25,0.0,0.02,-5.98,5.45,145.19,8.4,19.5,0.75,0.25,0.75,0.0,1.5,0.75,0.0,0.0,0.0,0.0,0.75,0.25,0.5,-3.73,-4.3,1.27,104.75,-6.7,21.1
4.66,1.25,1.25,0.25,5.75,0.0,1.75,6.75,1.75,0.0,5.25,0.0,0.25,0.75,2.2,-5.92,3.77,175.98,5.4,8.0,2.25,1.0,0.0,0.25,1.75,2.75,0.0,0.0,0.5,0.0,1.75,0.25,1.25,-3.55,-0.86,-0.23,124.89,-2.8,17.3
4.68,0.75,1.0,0.25,5.75,1.75,1.75,6.75,2.5,0.0,5.25,0.25,0.0,0.0,-0.67,1.27,-4.73,228.99,3.9,12.0,0.75,0.25,2.0,0.0,5.25,2.25,0.0,0.0,0.5,0.0,1.75,1.0,0.5,-2.92,-0.48,-0.3,154.31,-4.2,20.4
4.7,1.0,1.25,0.25,6.0,1.75,1.75,6.5,2.25,0.0,4.75,0.0,0.0,0.0,0.52,0.89,-5.48,278.5,4.9,17.8,2.0,1.25,1.5,1.75,3.5,2.75,0.0,0.0,0.5,1.25,1.75,1.0,1.5,-1.67,0.08,-0.48,202.16,-4.7,15.4
4.72,1.0,1.25,0.25,6.0,1.75,1.75,6.5,2.25,0.0,3.5,0.0,0.25,0.25,0.33,0.64,-4.8,301.07,5.9,20.2,2.0,1.25,1.5,1.75,4.25,2.0,0.0,0.0,0.0,0.0,1.5,1.0,1.5,-0.55,0.39,-0.8,228.95,-6.7,25.9
4.74,0.75,1.0,0.25,5.75,2.25,1.75,6.5,2.25,0.0,3.75,0.0,0.25,0.0,0.95,-1.23,-2.11,306.5,5.1,19.3,1.25,1.0,1.0,0.0,4.25,2.0,0.0,0.5,0.25,1.5,1.75,1.25,1.5,0.39,0.95,-1.36,248.48,-0.7,1.8
4.76,1.0,1.25,0.25,6.0,2.5,2.0,6.5,1.75,0.0,5.0,0.0,0.25,0.0,0.77,-1.67,-0.8,313.63,4.6,18.1,1.25,0.5,0.0,2.0,4.25,2.75,0.0,0.5,0.25,0.5,1.75,1.25,0.5,2.02,1.64,-1.67,252.2,-1.0,15.6
4.78,1.0,1.25,0.25,6.5,2.25,1.75,6.5,1.0,0.0,5.25,0.0,0.0,0.0,0.58,-1.17,-0.55,313.99,5.7,20.7,1.25,1.0,1.0,1.5,3.0,1.25,0.0,0.0,0.25,1.5,1.75,0.75,1.25,2.02,1.58,-1.11,250.26,-4.5,8.1
4.8,1.0,1.25,0.25,6.5,1.75,1.75,6.5,1.5,0.0,5.25,0.0,0.25,0.0,0.58,-0.05,-0.73,317.97,5.4,17.1,2.0,1.0,0.5,0.0,4.25,0.25,0.0,0.5,0.0,0.0,0.75,0.25,0.5,1.2,1.27,-0.55,227.41,-6.7,40.6
4.82,0.5,1.25,0.25,6.75,2.25,1.75,6.5,1.75,0.0,5.5,0.0,0.25,0.0,0.39,0.83,-0.92,323.57,4.3,15.3,0.25,0.5,0.75,0.0,4.5,0.25,0.0,0.5,0.0,0.0,1.75,0.25,1.5,0.7,1.27,-0.36,204.48,-1.1,5.8
4.84,0.75,1.25,0.25,6.0,2.25,1.75,6.5,2.0,0.0,5.75,0.0,0.0,0.25,0.45,1.45,-1.48,324.92,3.5,13.2,0.5,1.0,0.0,1.75,2.75,0.25,0.0,0.0,0.25,0.0,1.75,0.25,0.5,0.77,1.39,-0.55,177.16,-6.4,22.3
4.86,0.75,0.0,0.25,5.75,1.75,1.75,6.5,2.25,0.0,5.75,0.0,0.25,0.0,0.39,2.14,-1.36,315.64,3.1,6.0,0.25,0.5,0.0,0.75,2.25,0.25,0.0,0.0,0.0,0.0,1.5,0.5,1.5,0.64,1.08,-0.67,148.38,-1.6,-8.5
4.88,0.75,0.25,0.25,6.0,1.75,1.75,6.5,1.75,0.0,5.75,0.0,0.25,0.0,0.14,2.2,-0.92,306.0,3.8,8.8,0.75,0.5,1.0,0.0,4.5,0.25,0.0,0.0,0.0,0.0,0.5,0.25,0.75,0.2,0.89,-0.8,133.43,-4.8,34.8
4.9,0.5,0.75,0.25,6.0,2.25,1.75,6.5,1.75,0.0,5.75,0.0,0.0,0.0,-0.11,2.14,-0.86,300.74,3.4,12.3,2.0,1.25,1.5,1.75,3.75,1.5,0.0,0.0,0.25,1.25,1.75,1.5,1.5,-0.05,0.77,-0.86,165.69,-6.4,12.2
4.92,0.75,0.5,0.25,6.25,2.25,1.5,6.5,2.25,0.0,5.75,0.25,0.0,0.0,0.27,2.08,-0.61,302.02,3.7,10.5,2.0,1.25,0.75,1.5,4.5,0.25,0.0,0.0,0.0,1.5,1.75,1.5,1.5,0.08,0.7,-1.3,195.87,-5.9,9.3
4.94,0.5,0.5,0.25,5.25,2.25,1.75,6.5,2.0,0.0,5.75,0.25,0.0,0.0,0.45,1.89,-0.42,299.72,2.7,8.2,0.5,0.5,1.25,1.25,3.75,1.75,0.0,0.0,0.25,1.25,1.75,0.25,1.5,-0.05,0.52,-1.48,212.9,-1.7,7.6
4.96,0.25,0.5,0.25,6.5,2.5,1.25,6.5,1.5,0.0,5.75,0.0,0.25,0.0,0.33,1.64,-0.36,300.13,4.1,10.8,2.0,1.0,1.25,2.0,4.25,1.5,0.0,0.0,0.25,1.25,1.75,1.25,1.5,-0.17,0.2,-1.23,236.43,-5.7,13.8
4.98,0.5,1.0,0.25,6.5,1.75,1.75,6.5,1.5,0.0,5.75,0.0,0.0,0.0,-0.3,1.77,-0.05,299.12,4.2,13.9,2.0,1.25,1.0,1.5,4.25,1.5,0.0,0.0,0.25,1.25,1.75,1.25,1.5,-0.23,-0.11,-0.73,249.17,-5.0,13.1
5.0,0.25,1.25,0.25,6.5,2.25,1.25,6.5,1.5,0.0,5.75,0.0,0.0,0.0,-0.55,1.52,0.14,299.2,4.4,14.6,1.75,1.0,2.5,1.25,4.5,1.75,0.0,0.0,0.25,0.5,1.75,1.0,1.5,-0.17,-0.3,-0.36,260.81,-7.4,20.4
5.02,0.0,0.25,0.25,6.5,2.25,1.75,6.5,1.25,0.0,5.75,0.0,0.0,0.0,-0.55,1.2,0.39,296.43,3.3,10.7,2.0,1.25,1.25,1.5,2.75,1.5,0.0,0.0,0.25,1.25,1.75,1.25,1.5,-0.05,-0.42,-0.3,261.38,-6.4,9.6
5.04,0.5,0.0,0.25,6.5,2.25,1.5,6.5,1.0,0.0,5.75,0.0,0.25,0.0,-0.36,0.7,0.39,293.83,4.5,10.5,1.75,1.25,1.25,1.5,4.25,1.5,0.0,0.0,0.25,1.5,1.75,1.25,1.5,0.02,-0.36,-0.36,268.49,-4.8,11.5
5.06,0.0,0.25,0.25,6.25,2.25,0.5,6.5,1.25,0.0,6.0,0.0,0.0,0.0,-0.11,0.27,0.39,286.21,4.4,7.7,2.0,1.0,1.5,1.5,4.25,1.5,0.0,0.0,0.25,1.25,1.75,1.25,1.5,0.02,-0.23,-0.55,267.62,-5.8,13.2
5.08,0.0,0.5,0.25,6.5,2.25,1.25,6.5,1.0,0.0,6.0,0.0,0.0,0.0,0.08,0.02,0.33,284.84,4.0,10.8,2.0,1.25,0.25,1.5,4.5,1.5,0.0,0.0,0.25,1.25,1.75,1.0,1.5,0.08,-0.05,-0.92,265.28,-3.3,13.4
5.1,0.25,1.0,0.25,6.25,2.5,1.75,6.5,1.0,0.0,5.75,0.0,0.0,0.0,0.2,-0.17,0.33,288.85,4.0,15.2,2.0,1.25,1.25,1.75,4.25,1.5,0.0,0.0,0.25,1.5,1.75,1.5,1.5,0.14,0.2,-1.11,266.99,-5.4,11.6
5.12,0.5,0.75,0.25,6.5,3.0,1.0,6.5,1.5,0.0,5.75,0.0,0.25,0.0,0.14,-0.3,-0.23,296.49,4.6,13.5,2.0,1.0,1.25,1.5,3.75,1.5,0.0,0.0,0.25,1.5,1.75,1.25,1.5,0.08,0.33,-1.11,260.34,-5.3,10.0
5.14,0.5,0.75,0.25,6.0,2.5,1.25,6.5,1.5,0.0,5.75,0.0,0.25,0.0,0.02,-0.36,-0.67,299.54,4.2,11.6,2.0,1.0,1.25,1.75,4.25,1.75,0.0,0.0,0.25,1.5,1.75,1.25,1.5,0.02,0.33,-1.11,258.5,-4.9,12.3
5.16,0.75,0.25,0.25,6.0,2.5,1.5,6.5,1.75,0.0,5.5,0.0,0.25,0.0,0.58,-0.23,-1.61,301.6,4.0,11.2,2.0,1.25,2.25,1.5,4.5,1.5,0.0,0.0,0.25,1.5,1.75,1.5,1.5,0.02,0.27,-0.92,265.97,-6.8,14.1
5.18,0.0,0.75,0.25,6.0,2.5,1.25,6.5,2.0,0.0,5.25,0.0,0.0,0.0,1.02,-0.11,-1.67,298.69,3.4,12.0,2.0,1.0,1.25,1.5,3.75,1.5,0.0,0.0,0.25,1.5,1.75,1.5,1.5,-0.11,0.33,-0.8,264.79,-5.4,8.3
5.2,0.5,1.0,0.25,6.0,2.5,1.25,6.5,1.5,0.0,5.25,0.25,0.25,0.0,1.2,0.02,-1.55,298.22,4.8,13.6,2.0,1.25,1.25,1.5,4.25,1.5,0.0,0.0,0.25,1.5,1.75,1.5,1.5,-0.17,0.33,-0.8,262.88,-5.2,11.0
5.22,0.5,1.0,0.25,6.0,2.5,0.0,6.5,2.25,0.0,5.25,0.0,0.25,0.0,1.02,0.08,-1.3,295.93,5.5,11.7,2.0,1.0,1.5,1.25,4.25,1.5,0.0,0.0,0.25,1.5,1.75,1.25,1.5,-0.11,0.39,-0.92,260.14,-5.4,11.4
5.24,0.25,1.25,0.25,6.0,2.25,1.25,6.5,2.0,0.0,5.75,0.0,0.0,0.0,0.7,-0.05,-0.86,298.83,3.6,12.4,2.0,1.0,0.25,1.5,4.25,1.5,0.0,0.0,0.25,1.25,1.75,1.0,1.5,-0.05,0.52,-1.11,252.89,-3.3,11.4
5.26,0.0,1.25,0.25,5.5,2.5,1.25,6.5,1.75,0.0,5.75,0.0,0.0,0.0,0.33,-0.05,-0.67,298.4,3.1,11.5,2.0,1.0,1.25,1.5,3.75,1.5,0.0,0.0,0.25,1.5,1.75,1.0,1.5,-0.11,0.58,-1.17,248.31,-5.3,11.7
5.28,0.5,1.0,0.25,6.0,2.25,1.25,6.5,1.75,0.0,5.75,0.0,0.0,0.0,0.08,-0.11,-0.42,299.69,4.1,12.9,2.0,1.25,1.25,1.5,4.25,1.75,0.0,0.0,0.25,1.5,1.75,1.25,1.5,-0.23,0.58,-1.05,250.0,-4.8,12.8
5.3,0.25,1.0,0.25,6.5,3.0,0.75,6.5,1.75,0.0,5.5,0.0,0.0,0.0,0.02,-0.23,-0.48,301.9,4.6,15.1,2.0,1.25,0.75,1.5,4.25,1.5,0.0,0.0,0.25,1.5,1.75,1.25,1.5,-0.23,0.52,-0.92,251.2,-4.2,11.2
5.32,0.5,0.75,0.25,6.0,3.0,0.5,6.5,1.75,0.0,5.75,0.25,0.0,0.0,0.02,-0.36,-0.55,301.96,4.6,11.8,2.0,1.25,2.25,1.5,4.75,1.25,0.0,0.0,0.25,1.25,1.5,1.0,1.5,-0.3,0.52,-0.92,258.0,-7.2,20.0
5.34,0.5,1.25,0.25,6.0,2.25,1.5,6.5,2.25,0.0,5.75,0.0,0.0,0.0,0.08,-0.36,-0.61,305.87,3.5,12.9,1.75,1.25,1.0,1.5,4.25,1.75,0.0,0.0,0.25,1.5,1.75,1.0,1.5,-0.23,0.52,-0.92,257.19,-3.9,12.7
5.36,0.25,0.75,0.25,6.25,3.0,0.75,6.5,1.5,0.0,5.75,0.0,0.0,0.0,0.2,-0.36,-0.8,304.7,4.3,13.2,2.0,1.0,1.25,1.5,4.25,1.5,0.0,0.0,0.25,1.5,1.5,1.25,1.5,-0.23,0.45,-0.92,257.03,-5.0,12.5
5.38,0.5,0.75,0.25,6.25,2.25,0.0,6.5,1.5,0.0,5.75,0.0,0.0,0.0,0.39,-0.42,-0.86,298.38,5.9,11.8,2.0,1.0,1.0,1.5,3.75,1.75,0.0,0.0,0.25,1.5,1.75,1.25,1.5,-0.3,0.33,-0.92,251.69,-4.5,9.6
5.4,0.5,1.0,0.25,6.5,2.25,1.75,6.25,1.75,0.0,5.75,0.0,0.0,0.0,0.45,-0.42,-0.86,300.17,3.7,14.2,2.0,1.0,0.5,1.5,4.5,1.75,0.25,0.0,0.25,1.5,1.75,1.25,1.5,-0.23,0.27,-0.86,251.37,-3.3,10.3
5.42,0.25,1.5,0.25,6.5,2.5,1.0,6.25,1.75,0.0,5.75,0.0,0.0,0.0,0.58,-0.42,-0.92,303.48,4.3,15.2,2.0,1.0,1.25,1.75,3.75,1.75,0.0,0.0,0.25,0.75,1.75,1.0,1.5,-0.17,0.2,-0.86,249.08,-6.0,16.5
5.44,0.5,0.75,0.25,6.75,2.5,1.0,6.5,1.75,0.0,5.5,0.0,0.0,0.0,0.58,-0.42,-0.86,306.3,4.8,14.7,2.0,1.0,1.5,1.5,4.25,1.5,0.0,0.0,0.25,1.5,1.75,0.75,1.5,-0.11,0.2,-0.86,250.18,-5.4,15.4
5.46,0.25,1.25,0.25,6.75,3.5,1.0,6.5,1.75,0.0,5.25,0.0,0.0,0.0,0.58,-0.48,-0.8,313.73,4.5,18.5,1.75,1.25,1.5,1.5,3.75,1.5,0.0,0.0,0.25,1.5,1.75,1.0,1.5,-0.11,0.14,-0.8,250.04,-5.5,12.5
5.48,0.25,1.0,0.25,6.75,3.0,1.5,6.5,1.5,0.0,5.75,0.25,0.0,0.0,0.52,-0.55,-0.67,319.33,4.0,14.8,2.0,1.25,1.5,1.25,4.25,1.5,0.0,0.0,0.25,1.5,1.75,1.25,1.5,-0.05,0.14,-0.8,253.62,-5.5,12.6
5.5,0.5,0.5,0.25,6.75,2.5,0.5,6.25,1.75,0.0,5.75,0.25,0.0,0.0,0.52,-0.55,-0.61,315.16,5.0,11.3,2.0,1.0,1.5,1.5,3.75,1.5,0.0,0.0,0.25,1.0,1.75,1.0,1.5,-0.05,0.14,-0.8,249.92,-6.4,15.0
5.52,0.5,1.25,0.25,6.75,2.5,0.75,6.25,1.5,0.0,6.0,0.0,0.0,0.0,0.52,-0.55,-0.61,313.15,4.9,15.0,1.75,1.0,1.25,1.25,4.25,1.5,0.0,0.0,0.25,1.5,1.75,1.25,1.5,-0.11,0.14,-0.8,249.05,-4.5,9.5
5.54,0.25,0.75,0.25,6.5,2.25,0.5,6.25,1.75,0.0,5.75,0.0,0.0,0.0,0.52,-0.55,-0.55,303.52,4.7,11.3,2.0,1.25,0.75,1.5,4.25,1.5,0.0,0.0,0.25,1.5,1.75,1.25,1.5,-0.05,0.2,-0.8,248.95,-4.2,11.2
5.56,0.25,1.25,0.25,6.75,3.0,0.25,6.25,1.75,0.0,5.5,0.0,0.25,0.0,0.58,-0.55,-0.48,303.64,5.3,14.7,2.0,1.25,1.25,1.5,4.25,1.5,0.0,0.0,0.0,1.5,1.75,1.0,1.5,0.08,0.2,-0.92,250.35,-5.0,15.0
5.58,0.5,1.25,0.25,6.75,2.5,0.25,6.25,1.75,0.0,5.25,0.0,0.0,0.0,0.58,-0.48,-0.48,299.88,6.0,17.0,2.0,1.25,1.75,1.5,3.75,1.5,0.25,0.0,0.0,1.5,2.0,1.5,1.5,0.08,0.2,-0.92,255.22,-6.5,10.7
5.6,0.25,0.75,0.25,6.5,2.5,1.0,6.25,1.75,0.0,5.75,0.25,0.5,0.0,0.52,-0.48,-0.55,303.82,4.2,8.7,2.0,1.0,1.75,1.75,4.25,1.25,0.0,0.0,0.0,1.5,1.75,1.25,1.5,0.08,0.27,-0.86,258.37,-6.4,13.8
5.62,0.5,1.25,0.25,6.5,2.5,1.25,6.25,1.5,0.0,5.75,0.0,0.0,0.0,0.45,-0.36,-0.61,305.51,4.5,15.8,2.0,1.25,1.0,1.5,3.75,1.75,0.0,0.0,0.0,1.5,1.75,1.5,1.5,0.14,0.33,-0.92,257.7,-4.6,9.9
5.64,0.0,1.0,0.25,5.5,2.25,1.0,6.25,1.75,0.0,5.75,0.0,0.0,0.0,0.52,-0.23,-0.61,297.3,3.2,9.6,2.0,1.25,1.25,1.25,3.75,1.25,0.0,0.0,0.0,1.5,1.75,1.25,1.5,0.2,0.33,-1.05,252.59,-5.6,11.0
5.66,0.5,1.25,0.25,6.25,3.5,0.0,6.25,1.75,0.0,5.75,0.0,0.0,0.25,0.52,-0.11,-0.61,299.74,4.9,14.3,2.0,1.0,1.25,1.5,3.75,1.25,0.0,0.0,0.0,1.5,1.75,1.0,1.5,0.39,0.27,-1.23,247.15,-5.6,12.1
5.68,0.5,1.25,0.25,6.75,2.5,0.75,6.25,1.75,0.0,5.5,0.25,0.0,0.0,0.52,-0.05,-0.55,301.53,5.2,15.4,2.0,1.0,1.0,1.5,3.75,1.25,0.0,0.0,0.0,1.5,1.75,1.25,1.5,0.39,0.27,-1.23,241.84,-5.1,9.6
5.7,0.0,1.0,0.25,6.0,2.5,0.75,6.25,1.5,0.0,5.75,0.0,0.0,0.0,0.52,0.14,-0.61,298.12,4.0,11.6,1.75,1.25,1.0,1.5,4.25,1.25,0.0,0.0,0.0,1.5,1.75,1.25,1.5,0.14,0.27,-1.17,241.75,-4.6,11.2
5.72,0.25,1.0,0.25,6.25,2.5,1.0,6.25,1.75,0.0,6.0,0.0,0.5,0.0,0.58,0.45,-0.67,299.95,3.8,9.2,2.0,1.25,1.0,1.5,3.75,1.5,0.0,0.0,0.0,1.5,1.75,1.0,1.5,-0.05,0.33,-1.05,241.54,-4.8,13.0
5.74,1.25,1.5,0.5,7.0,5.5,1.75,6.5,2.75,0.0,6.5,1.25,0.5,1.0,0.64,0.64,-0.8,352.12,3.0,10.3,2.0,1.25,1.0,1.5,4.25,1.25,0.0,0.0,0.0,1.5,1.25,1.0,1.5,-0.17,0.2,-0.86,242.44,-4.7,16.6
5.76,1.25,1.5,0.75,7.0,5.75,1.75,6.5,2.75,0.0,5.5,1.5,0.75,1.0,0.58,0.77,-0.86,400.92,3.9,12.1,2.0,1.0,1.0,1.5,3.5,1.25,0.0,0.0,0.0,1.0,1.75,1.0,1.5,-0.36,0.14,-0.61,236.51,-5.9,13.3
5.78,1.25,1.5,0.75,7.0,5.75,1.75,6.5,2.75,0.0,6.0,1.25,0.75,1.0,0.58,0.77,-0.8,456.67,3.5,11.4,2.0,1.25,1.5,1.25,3.75,0.5,0.0,0.0,0.0,1.25,1.75,1.0,1.5,-0.36,0.14,-0.61,232.78,-7.6,13.9
5.8,1.25,1.25,0.75,6.5,5.5,1.75,6.5,2.75,0.0,6.0,1.25,0.25,1.0,0.52,0.7,-0.67,477.22,3.2,11.5,2.0,1.0,0.5,1.75,3.5,1.25,0.0,0.0,0.0,1.25,1.75,1.0,1.5,-0.55,0.2,-0.55,227.69,-4.7,11.1
5.82,1.25,1.25,0.5,7.0,5.75,2.25,6.5,2.75,0.0,6.0,1.25,0.5,0.75,0.52,0.64,-0.61,490.2,2.9,12.5,2.0,1.25,1.5,1.5,4.25,1.25,0.0,0.0,0.0,0.75,1.75,1.25,1.5,-0.55,0.27,-0.67,232.98,-6.8,17.5
5.84,1.25,1.25,0.5,6.75,5.75,2.25,6.5,2.75,0.0,6.0,1.25,0.75,1.0,0.45,0.58,-0.61,489.15,2.7,10.4,2.0,1.25,1.25,1.75,3.75,1.5,0.0,0.0,0.0,1.25,1.75,0.75,1.5,-0.36,0.27,-0.8,237.58,-5.7,17.4
5.86,1.25,1.25,0.75,7.0,5.5,1.75,6.5,2.75,0.0,6.25,1.25,0.25,1.0,0.39,0.58,-0.67,489.84,3.3,11.6,2.25,1.0,1.0,1.5,3.75,1.25,0.0,0.0,0.0,1.25,1.75,1.0,1.5,-0.17,0.27,-0.98,240.58,-5.8,13.9
5.88,1.25,1.25,1.0,7.0,5.5,1.75,6.5,2.75,0.0,6.0,1.25,0.5,1.25,0.27,0.52,-0.8,492.45,3.6,10.8,2.0,1.25,0.25,1.5,4.5,1.25,0.0,0.0,0.0,1.5,1.75,1.0,1.5,0.02,0.33,-1.11,241.67,-3.3,12.6
5.9,1.25,1.25,0.75,7.0,5.75,1.75,6.5,2.75,0.0,6.25,1.25,0.75,1.0,0.2,0.45,-0.86,490.48,3.3,10.1,2.0,1.25,1.0,1.5,3.75,1.5,0.0,0.0,0.0,1.25,1.75,0.75,1.5,0.33,0.52,-1.3,240.67,-5.1,16.1
5.92,1.25,1.5,0.75,7.0,5.75,2.5,6.5,2.75,0.0,6.25,1.25,0.5,1.0,0.33,0.52,-0.86,493.41,2.8,12.1,2.0,1.0,1.0,2.0,3.75,1.5,0.0,0.0,0.0,0.75,1.75,1.0,1.5,0.45,0.89,-1.55,239.73,-6.0,17.0
5.94,0.5,1.25,0.75,6.75,5.5,2.0,6.5,2.5,0.0,6.5,0.0,0.5,0.0,0.58,0.58,-0.86,469.15,2.6,15.6,2.0,1.0,0.5,2.25,4.5,1.75,0.0,0.0,0.0,1.25,0.75,0.75,1.5,0.27,0.64,-1.05,240.3,-3.3,22.9
5.96,1.25,1.25,0.25,7.0,4.5,1.75,6.5,2.75,0.0,6.0,1.25,0.75,1.0,0.64,0.64,-0.92,447.76,3.2,8.0,2.0,1.0,1.25,2.25,3.75,1.75,0.0,0.0,0.0,1.25,1.5,1.0,1.5,0.02,0.64,-0.98,245.11,-5.6,17.1
5.98,1.25,1.25,0.75,6.75,5.5,1.75,6.75,2.5,0.0,6.5,0.25,0.5,0.0,0.83,0.7,-0.73,424.67,3.7,16.7,2.0,1.25,1.5,2.25,3.75,1.5,0.0,0.0,0.0,1.5,1.5,1.0,1.5,-0.11,0.64,-1.11,251.14,-6.2,17.4
6.0,0.0,0.5,0.75,6.0,5.5,1.0,6.5,2.75,0.0,6.0,1.25,0.25,0.0,0.89,0.83,-0.73,400.62,2.7,8.5,2.0,1.25,1.75,2.25,4.25,1.75,0.0,0.0,0.0,1.5,1.5,0.75,1.5,0.02,0.45,-1.17,260.1,-5.9,21.0
6.02,0.25,1.25,0.5,6.75,5.75,1.75,6.5,1.5,0.0,6.5,0.0,0.75,0.0,0.64,0.89,-0.73,390.0,2.9,15.6,2.0,1.25,1.5,2.5,4.5,1.75,0.0,0.0,0.0,1.0,1.5,0.75,1.5,0.02,0.2,-1.05,265.72,-6.1,24.0
6.04,0.5,1.25,0.75,7.25,5.25,1.75,6.25,1.25,0.0,5.75,0.0,0.25,0.0,0.45,0.95,-0.61,379.29,4.3,21.8,2.0,1.0,1.25,2.75,4.25,2.0,0.0,0.0,0.0,1.25,1.75,1.0,1.5,-0.11,0.14,-0.98,270.45,-5.3,18.4
6.06,0.0,1.0,0.5,6.5,3.5,0.75,6.25,1.0,0.0,5.75,0.0,0.25,0.0,0.27,0.89,-0.55,348.21,4.8,15.1,2.0,1.0,1.25,2.75,4.25,1.75,0.0,0.0,0.0,1.5,1.5,0.75,1.5,-0.11,0.2,-0.92,270.54,-5.3,19.8
6.08,0.5,1.25,0.25,6.5,2.25,0.5,6.5,2.5,0.0,5.5,0.5,0.25,0.0,0.08,0.83,-0.61,322.62,5.0,10.4,2.0,1.0,0.0,2.75,4.5,1.75,0.0,0.0,0.0,1.5,1.25,0.75,1.5,0.14,0.33,-1.11,266.03,-2.7,18.7
6.1,0.25,1.25,0.25,6.75,2.25,0.5,6.25,1.25,0.0,5.75,0.0,0.0,0.0,0.2,0.89,-0.8,296.88,5.5,15.0,1.25,1.0,1.25,2.5,3.75,2.0,0.0,0.0,0.0,1.5,1.5,1.0,1.5,0.14,0.33,-1.17,260.71,-3.9,13.5
6.12,0.25,0.25,0.0,6.75,0.0,0.25,6.25,0.75,0.0,5.75,0.0,0.0,0.0,0.45,0.83,-0.98,265.66,7.0,4.8,1.5,1.0,0.5,2.25,3.75,1.75,0.0,0.0,0.0,1.5,1.75,0.75,1.5,0.08,0.33,-1.17,251.36,-2.9,12.0
6.14,0.25,0.0,0.0,6.5,0.0,0.5,6.25,0.5,0.0,5.75,0.0,0.0,0.0,0.7,0.58,-0.98,236.75,6.7,3.6,2.0,1.25,0.25,2.25,3.75,1.75,0.0,0.0,0.0,1.5,1.5,1.0,1.5,0.02,0.33,-1.05,246.69,-3.4,14.4
6.16,0.25,0.0,0.0,6.5,0.0,0.25,6.25,0.5,0.0,5.75,0.0,0.0,0.0,0.58,0.39,-0.8,215.46,7.1,3.2,2.0,1.25,1.0,2.25,3.75,1.75,0.0,0.0,0.0,1.5,1.5,0.75,1.5,-0.23,0.27,-0.92,245.53,-4.8,18.2
6.18,0.25,0.0,0.25,6.75,0.5,0.75,6.25,0.75,0.0,5.75,0.25,0.25,0.0,0.58,0.27,-0.61,215.07,6.3,4.0,1.25,1.25,0.5,2.75,4.25,1.5,0.0,0.0,0.0,1.5,1.75,1.0,1.5,-0.17,0.2,-0.86,246.71,-3.3,12.9
6.2,1.0,0.5,0.0,7.0,1.75,1.75,6.5,2.0,0.0,5.75,1.25,0.0,1.25,0.52,0.33,-0.48,246.85,3.6,2.8,1.5,1.25,1.75,2.5,4.5,1.5,0.0,0.0,0.0,1.5,1.5,0.75,1.5,-0.05,0.2,-0.98,252.67,-5.6,19.9
6.22,0.25,0.25,0.0,6.75,0.0,0.5,6.25,0.5,0.0,5.75,0.0,0.25,0.0,0.64,0.45,-0.48,249.65,7.0,4.2,1.25,1.0,1.0,2.5,3.75,1.5,0.0,0.0,0.0,1.5,1.5,1.0,1.5,0.14,0.27,-1.05,249.61,-4.1,12.2
6.24,0.25,0.25,0.0,6.75,0.0,0.5,6.5,0.5,0.0,6.0,0.0,0.25,0.0,0.64,0.64,-0.67,251.73,6.8,3.3,1.25,1.25,0.75,2.5,4.25,1.75,0.0,0.0,0.0,1.5,1.75,1.0,1.5,0.2,0.27,-1.11,250.71,-3.3,13.2
6.26,0.0,0.0,0.0,6.75,0.0,0.25,6.5,0.75,0.0,6.0,0.0,0.25,0.0,0.58,0.77,-0.73,238.65,6.4,-0.3,1.25,1.0,0.5,2.5,4.75,2.0,0.0,0.0,0.0,1.5,1.5,0.75,1.5,0.14,0.2,-1.05,249.75,-1.9,15.7
6.28,0.0,0.0,0.0,7.0,0.0,1.5,6.5,0.75,0.0,6.0,0.0,0.75,0.0,0.52,0.64,-0.55,242.43,4.8,-0.3,1.0,1.0,1.0,2.5,4.25,2.0,0.0,0.0,0.0,1.5,1.5,1.0,1.5,-0.11,0.2,-0.98,250.87,-2.8,13.0
6.3,1.25,0.5,0.0,6.75,3.75,1.25,6.5,2.75,0.0,6.0,1.25,1.25,1.0,0.45,0.64,-0.73,285.87,3.3,1.0,1.25,1.25,1.0,2.75,3.75,2.0,0.0,0.0,0.0,1.5,1.5,0.75,1.5,-0.17,0.2,-0.98,251.39,-3.7,16.4
6.32,1.0,0.0,0.0,6.75,0.0,1.5,6.5,1.75,0.0,6.0,0.0,0.5,0.0,0.33,0.7,-0.92,296.69,4.9,2.8,1.25,1.0,1.75,2.5,4.5,1.75,0.0,0.0,0.0,1.5,1.5,0.75,1.5,-0.17,0.2,-0.92,256.49,-4.8,18.0
6.34,0.25,0.25,0.0,6.5,3.5,0.75,6.75,2.75,0.0,6.0,1.25,0.25,1.0,0.14,0.45,-0.73,332.09,2.4,-0.7,1.0,1.0,0.5,2.25,4.25,2.0,0.0,0.0,0.0,1.5,1.5,0.75,1.5,-0.17,0.2,-0.98,251.95,-1.4,12.7
6.36,0.25,0.25,0.0,6.5,0.0,0.5,6.5,0.75,0.0,6.0,0.0,0.25,0.0,0.27,0.39,-0.55,306.18,6.3,1.9,1.25,1.0,0.75,2.5,4.25,2.0,0.0,0.0,0.0,1.5,1.75,0.75,1.5,-0.11,0.2,-1.11,251.66,-2.7,13.9
6.38,0.25,0.5,0.0,6.0,0.0,0.0,6.25,1.0,0.0,5.75,0.0,0.25,0.0,0.45,0.39,-0.55,284.29,6.7,1.1,1.0,1.0,0.5,2.25,3.25,2.75,0.0,0.0,0.0,1.25,1.5,0.75,1.5,-0.17,0.33,-1.17,242.56,-0.9,12.0
6.4,0.25,0.0,0.0,5.75,0.0,0.25,6.25,1.0,0.0,5.75,0.0,0.0,0.0,0.52,0.45,-0.61,251.09,5.9,-0.7,1.0,1.0,1.0,2.0,3.75,1.75,0.0,0.0,0.0,1.5,1.75,1.0,1.5,-0.11,0.27,-1.05,238.51,-3.0,8.6
