time,left pressure 0[N/cm虏],left pressure 1[N/cm虏],left pressure 2[N/cm虏],left pressure 3[N/cm虏],left pressure 4[N/cm虏],left pressure 5[N/cm虏],left pressure 6[N/cm虏],left pressure 7[N/cm虏],left pressure 8[N/cm虏],left pressure 9[N/cm虏],left pressure 10[N/cm虏],left pressure 11[N/cm虏],left pressure 12[N/cm虏],left acceleration X[g],left acceleration Y[g],left acceleration Z[g],left total force[N],left center of pressure X[mm],left center of pressure Y[mm],right pressure 0[N/cm虏],right pressure 1[N/cm虏],right pressure 2[N/cm虏],right pressure 3[N/cm虏],right pressure 4[N/cm虏],right pressure 5[N/cm虏],right pressure 6[N/cm虏],right pressure 7[N/cm虏],right pressure 8[N/cm虏],right pressure 9[N/cm虏],right pressure 10[N/cm虏],right pressure 11[N/cm虏],right pressure 12[N/cm虏],right acceleration X[g],right acceleration Y[g],right acceleration Z[g],right total force[N],right center of pressure X[mm],right center of pressure Y[mm]
0.02,1.75,1.75,2.0,2.75,3.5,4.5,3.0,4.0,4.0,2.75,4.0,3.5,3.75,-0.11,-0.05,0.95,477.99,2.5,-14.5,1.25,0.25,0.5,0.75,0.0,0.0,2.25,0.25,0.25,0.0,0.0,0.0,1.25,2.08,-0.36,1.08,4.88,-16.7,15.3
0.04,1.75,1.75,1.75,3.0,5.0,5.0,3.0,4.5,4.5,4.25,4.5,4.5,4.0,-0.11,-0.05,0.95,616.43,1.3,-17.1,0.75,0.0,0.0,0.75,0.0,0.0,1.25,0.25,0.5,0.0,0.25,0.0,1.25,0.95,-0.17,0.64,0.0,-10.1,-13.3
0.06,1.75,2.0,1.5,3.25,5.25,5.0,3.75,5.0,5.0,4.75,5.0,5.0,4.5,-0.11,-0.05,0.95,727.67,1.3,-19.3,0.25,0.25,0.0,0.0,0.0,0.0,1.25,0.0,0.25,0.0,0.25,0.0,1.5,0.58,-0.42,0.77,0.0,-4.8,-42.4
0.08,2.0,2.0,1.75,3.75,5.25,5.0,4.0,5.5,5.25,5.0,5.0,5.75,5.25,-0.11,-0.05,0.95,831.43,1.5,-20.6,0.0,0.25,0.0,0.25,0.0,0.0,0.5,0.0,0.25,0.0,0.5,0.0,1.5,0.2,-0.55,0.89,0.0,-0.8,-55.5
0.1,2.0,2.0,1.75,3.75,5.25,5.75,4.25,6.0,5.75,5.75,5.75,5.75,5.5,-0.11,-0.05,1.02,912.32,1.0,-21.9,0.0,0.25,0.0,0.0,0.0,0.0,1.25,0.0,0.25,0.0,0.5,0.0,1.25,-0.11,-0.42,0.89,0.0,-4.6,-50.6
0.12,2.0,2.0,2.25,4.25,5.25,6.0,4.5,6.25,5.75,5.75,6.0,5.75,6.0,-0.11,-0.05,1.02,981.76,1.3,-21.3,0.0,0.5,0.0,0.0,0.0,0.0,1.5,0.0,0.25,0.0,0.5,0.0,1.5,-0.17,-0.36,0.95,0.0,-4.8,-41.3
0.14,2.0,2.0,2.5,4.0,5.25,6.25,4.75,6.25,6.0,5.75,5.75,6.0,6.25,-0.11,-0.05,0.95,1025.75,1.3,-21.5,0.0,0.5,0.0,0.0,0.0,0.0,1.0,0.0,0.25,0.0,0.5,0.0,1.5,-0.11,-0.23,1.02,0.0,-2.7,-46.3
0.16,2.25,2.0,2.75,4.5,5.25,6.5,4.75,6.25,6.0,6.0,5.75,5.75,5.75,-0.11,-0.05,0.95,1049.91,1.7,-19.0,0.0,0.5,0.0,0.0,0.0,0.0,1.0,0.0,0.25,0.0,0.5,0.0,1.5,0.02,-0.11,1.2,0.0,-2.7,-46.3
0.18,2.25,2.0,3.75,4.5,5.25,6.5,4.75,6.25,6.0,5.5,5.75,5.5,5.5,-0.11,-0.05,0.95,1062.81,2.4,-16.4,0.0,0.25,0.0,0.0,0.0,0.0,1.25,0.0,0.25,0.0,0.5,0.0,1.5,0.08,0.08,1.39,2.29,-3.1,-55.5
0.2,2.5,2.0,3.25,4.5,5.25,6.5,4.75,6.5,5.75,5.25,5.75,5.0,5.25,-0.11,-0.05,0.95,1044.18,2.2,-15.2,0.0,0.75,0.0,0.0,0.0,0.0,1.25,0.0,0.5,0.0,0.5,0.0,1.5,0.08,0.33,1.39,23.95,-4.9,-33.9
0.22,2.75,2.0,3.5,5.0,5.5,7.0,4.75,6.5,5.75,5.0,5.25,5.0,5.0,-0.11,-0.05,0.95,1026.9,2.5,-12.0,0.0,0.5,0.0,0.0,0.0,0.0,1.25,0.0,0.25,0.0,0.25,0.0,1.5,0.2,0.45,1.58,36.12,-3.2,-41.3
0.24,2.75,2.0,3.5,5.0,6.5,7.25,5.0,6.75,5.75,5.0,5.0,3.5,4.25,-0.11,-0.05,0.95,996.17,2.3,-6.7,0.0,0.5,0.0,0.0,0.0,0.0,1.25,0.0,0.25,0.0,0.5,0.0,1.5,0.2,0.7,1.89,43.85,-3.8,-43.7
0.26,2.75,2.0,3.5,5.25,6.75,7.5,5.0,6.75,5.75,5.0,5.0,3.25,4.0,-0.11,-0.05,0.95,987.19,2.3,-5.1,0.0,0.25,0.0,0.0,0.0,0.0,1.25,0.0,0.25,0.0,0.5,0.0,1.25,0.33,1.27,1.89,48.41,-4.6,-50.6
0.28,3.0,2.0,3.75,5.25,6.75,7.5,5.25,6.75,5.75,4.75,5.0,3.25,4.0,-0.11,-0.05,0.95,976.49,2.7,-4.1,0.0,0.5,0.0,0.0,0.0,0.0,1.25,0.0,0.25,0.0,0.5,0.0,1.25,0.2,1.77,1.7,49.43,-5.2,-38.3
0.3,3.5,2.0,3.75,5.25,7.5,7.5,5.5,7.0,5.75,4.75,4.75,3.25,3.5,-0.11,-0.05,0.95,979.69,2.9,-1.4,0.0,0.5,0.0,0.0,0.0,0.0,1.25,0.0,0.25,0.0,0.5,0.0,1.25,-0.48,2.45,1.33,48.9,-5.2,-38.3
0.32,3.5,2.25,3.5,5.5,7.5,8.25,5.5,7.0,5.75,4.75,4.5,3.25,3.25,-0.11,-0.05,0.95,985.82,2.6,0.0,0.0,0.5,0.0,0.0,0.0,0.0,1.25,0.0,0.25,0.0,0.25,0.0,1.5,-0.98,3.83,0.39,48.96,-3.2,-41.3
0.34,3.5,2.25,4.5,5.5,8.0,8.5,5.75,7.25,5.75,4.75,4.5,3.0,2.75,-0.11,-0.05,0.95,1004.76,3.1,2.8,0.0,0.5,0.0,0.0,0.0,0.0,1.25,0.0,0.25,0.0,0.5,0.25,1.5,-1.61,5.14,-0.61,51.9,-4.1,-48.2
0.36,3.75,2.5,4.5,6.75,8.75,9.0,6.0,7.25,5.75,4.75,4.0,2.75,2.25,-0.11,-0.05,0.95,1040.07,3.4,7.5,0.0,0.25,0.0,0.0,0.0,0.0,1.0,0.5,0.25,1.0,0.0,0.0,2.0,0.14,-2.55,-0.42,60.53,6.7,-64.2
0.38,5.0,3.25,5.0,7.0,9.25,9.25,6.5,7.25,5.75,4.75,4.0,2.5,2.25,-0.11,-0.05,0.95,1102.08,4.3,11.5,0.0,0.5,0.0,0.0,0.0,0.0,1.0,0.5,0.25,0.75,0.5,0.75,2.25,-1.55,0.02,0.14,77.22,2.4,-65.3
0.4,5.75,3.5,5.75,7.25,10.5,10.0,7.0,7.5,5.75,4.5,3.25,2.0,2.25,-0.11,-0.05,0.95,1183.71,4.6,16.3,0.0,0.5,0.0,0.0,0.0,0.0,1.0,0.5,0.25,2.0,0.0,2.0,3.0,0.08,0.02,1.77,107.4,4.4,-76.3
0.42,6.25,3.5,5.75,8.75,12.5,10.5,7.25,7.5,5.5,4.5,2.75,2.0,2.25,-0.11,-0.05,1.02,1290.1,4.6,19.7,0.0,0.25,0.0,0.0,0.0,0.25,1.0,0.75,0.75,2.75,2.0,3.5,6.0,0.02,-0.17,0.52,174.56,3.9,-84.8
0.44,7.0,3.5,6.5,10.5,13.5,11.0,7.25,7.75,5.25,4.25,2.75,2.0,2.25,-0.11,-0.05,1.08,1382.94,5.2,22.4,0.0,0.5,0.0,0.0,0.0,0.0,0.75,1.75,1.25,5.0,2.0,5.25,7.0,0.14,0.02,1.33,255.14,4.5,-83.7
0.46,8.0,4.5,6.5,11.0,14.5,12.0,6.5,7.75,4.75,4.0,3.25,2.0,2.25,-0.11,0.02,1.02,1475.57,5.2,25.0,0.0,0.5,0.0,0.0,0.0,0.0,0.25,2.25,1.25,6.5,4.0,6.25,8.5,0.14,0.45,1.7,350.05,4.6,-85.1
0.48,9.5,5.0,7.5,13.0,15.5,12.0,6.25,7.5,4.25,3.5,2.75,2.0,2.25,-0.17,0.08,1.2,1573.66,6.3,29.7,0.0,0.0,0.0,0.0,0.0,2.0,1.25,3.25,2.25,7.25,5.0,6.75,8.5,-0.05,0.14,1.02,468.78,4.8,-77.2
0.5,11.5,5.0,8.0,13.0,16.5,12.0,6.25,7.25,3.5,3.5,2.75,2.0,2.25,-0.3,0.14,1.27,1660.46,6.9,32.3,0.0,0.0,0.0,0.0,0.0,1.75,1.75,3.75,2.75,7.25,6.5,6.75,9.0,0.02,0.08,1.02,586.39,3.9,-76.6
0.52,12.5,5.0,8.25,13.0,15.5,11.0,5.5,6.75,3.0,2.75,2.75,2.0,2.25,-0.36,0.2,1.52,1701.54,8.0,34.5,0.0,0.75,0.0,0.0,0.0,2.25,1.75,3.75,3.0,7.75,6.5,7.25,9.25,0.08,0.02,1.02,680.99,3.8,-72.4
0.54,14.0,6.5,8.0,13.0,15.0,9.5,5.75,6.25,2.25,2.75,3.0,2.0,2.25,-0.36,0.27,1.52,1716.13,9.1,37.2,0.25,0.75,0.0,0.0,0.0,1.5,2.25,4.0,2.75,7.5,6.5,6.75,9.25,0.14,0.02,0.95,732.08,3.3,-72.2
0.56,14.0,6.5,8.25,11.0,13.5,8.5,5.25,5.75,2.0,2.75,2.5,1.75,2.0,-0.48,0.64,2.14,1670.27,9.7,38.7,0.0,0.75,0.0,0.5,0.0,2.25,2.25,3.75,3.0,7.75,6.5,6.75,9.25,0.14,0.02,0.95,760.97,3.5,-69.7
0.58,12.5,5.0,8.0,8.5,10.5,7.5,5.75,5.0,1.5,2.75,2.5,1.75,2.0,-0.92,0.83,2.45,1547.81,10.2,36.1,0.0,0.5,0.0,0.0,0.0,1.75,2.0,3.75,2.5,7.25,6.5,6.5,8.75,0.14,0.02,0.95,745.23,3.7,-73.7
0.6,8.0,3.75,6.0,6.75,7.75,5.0,4.75,4.0,1.5,0.5,2.5,1.75,2.0,-0.86,0.45,2.2,1310.93,10.6,33.2,0.5,0.5,0.0,0.0,0.0,2.75,2.25,3.75,2.5,6.75,6.25,6.25,8.5,0.08,0.02,0.95,718.75,3.6,-68.2
0.62,5.75,1.25,3.75,5.25,4.75,3.75,1.75,1.75,1.5,1.25,2.0,1.75,2.0,-0.8,0.08,2.02,909.42,9.7,23.8,0.0,0.75,0.0,0.25,0.0,2.75,2.5,3.75,3.0,6.25,5.75,6.0,8.25,0.14,0.02,0.95,677.24,3.5,-66.8
0.64,2.0,0.0,1.0,2.75,3.0,2.5,0.0,0.0,1.5,0.75,1.25,1.5,1.0,-0.11,-0.3,1.77,499.42,6.1,11.1,0.0,0.75,0.0,0.25,0.0,2.75,2.5,3.75,3.0,6.5,5.5,6.25,8.0,0.08,0.02,0.95,639.94,3.5,-66.8
0.66,0.5,0.0,0.75,2.5,0.0,2.5,0.0,0.0,0.75,0.0,1.25,0.25,0.75,-0.92,-0.86,3.27,237.25,5.5,10.1,0.0,0.75,2.5,0.25,3.25,2.75,3.25,3.75,3.25,6.0,6.0,5.5,8.0,0.08,0.02,0.95,630.65,0.6,-47.4
0.68,1.75,1.75,1.5,3.75,0.0,3.0,0.25,2.0,1.5,0.5,2.0,1.0,2.0,-1.23,-1.36,3.27,114.05,5.9,5.0,2.5,1.75,0.0,2.5,1.25,4.75,3.0,3.75,4.25,6.25,6.5,6.0,8.25,0.14,0.02,0.95,658.46,0.3,-41.0
0.7,1.75,1.75,1.5,3.5,2.5,3.0,0.25,2.0,1.5,0.5,2.0,1.0,2.0,-0.61,-0.55,0.64,75.4,4.6,10.4,2.25,1.5,2.25,2.5,3.75,4.5,3.5,5.0,3.75,4.5,6.25,4.75,8.0,0.14,0.02,0.95,691.21,-1.0,-29.0
0.72,1.75,1.75,2.0,3.25,3.0,2.75,0.5,0.25,1.25,1.25,2.5,0.75,2.0,-0.48,-0.42,0.27,95.74,6.4,12.9,2.5,1.75,1.25,1.0,3.75,4.75,3.5,5.0,4.75,6.0,5.75,5.0,7.5,0.14,0.02,0.95,719.97,0.2,-32.7
0.74,1.75,1.75,1.25,3.0,0.75,2.75,0.5,0.0,1.25,1.25,2.25,1.5,2.0,-0.36,-0.42,0.27,109.66,6.7,2.2,2.5,1.5,2.5,2.0,3.75,5.75,4.0,5.0,4.75,4.75,5.5,3.25,7.0,0.14,0.02,0.95,731.65,-0.9,-22.8
0.76,1.75,1.75,1.75,2.75,1.25,2.75,0.5,0.25,1.0,0.25,2.0,1.5,2.0,-0.36,-0.48,0.58,125.8,7.8,9.5,2.25,1.5,2.5,2.75,3.5,6.25,4.5,4.5,4.5,5.0,4.0,3.25,5.0,0.14,0.02,0.95,718.56,-1.3,-16.3
0.78,1.25,1.75,1.25,2.75,0.5,2.75,0.75,0.5,1.0,1.0,1.75,1.75,2.0,-0.42,-0.48,1.02,131.3,5.6,-0.5,2.5,1.5,5.0,4.0,6.25,6.25,5.25,4.5,4.75,4.5,3.25,2.5,4.5,0.14,0.02,0.95,746.45,-3.7,-2.2
0.8,1.25,1.75,1.25,2.75,2.5,2.75,0.5,0.0,1.0,1.5,2.0,1.75,2.0,-0.48,-0.3,1.08,167.37,4.6,3.4,5.0,2.5,5.25,6.75,7.75,7.0,5.75,5.0,4.75,4.25,4.0,2.0,4.5,0.14,0.02,0.95,847.29,-5.3,8.2
0.82,1.5,1.75,1.5,2.75,0.5,2.75,0.5,0.0,1.0,1.25,1.25,1.75,1.5,-0.55,-0.11,0.95,196.74,7.1,6.6,5.75,3.0,6.5,8.5,9.0,7.25,6.25,5.0,4.25,3.5,3.75,1.75,4.0,0.14,0.08,1.02,988.95,-6.8,16.4
0.84,0.0,0.5,1.75,0.75,0.5,1.0,0.5,0.25,0.75,0.0,1.0,0.25,0.25,-0.61,0.08,1.02,181.64,11.9,14.9,6.75,3.0,7.0,10.5,9.75,7.5,6.5,5.0,4.25,3.25,3.0,1.75,3.5,0.14,0.02,1.08,1138.36,-7.7,21.8
0.86,1.0,1.75,1.5,2.75,0.75,2.75,0.5,0.5,0.75,1.25,1.75,1.75,2.0,-0.61,0.2,1.33,205.44,5.1,-0.7,7.75,3.5,7.75,12.0,10.5,7.25,6.5,5.0,3.5,3.5,2.75,1.0,3.25,0.14,0.02,1.08,1271.78,-8.5,27.3
0.88,0.75,1.25,1.75,2.75,0.5,2.5,0.5,0.75,0.75,1.25,1.75,1.75,2.0,-0.61,0.39,1.58,217.35,5.1,-5.8,8.5,4.0,8.5,13.0,11.5,7.75,6.25,5.0,3.0,2.5,2.75,1.0,3.25,0.08,0.08,1.08,1360.46,-9.1,31.4
0.9,1.0,1.75,1.0,2.75,0.0,2.5,0.0,0.0,0.75,1.25,1.0,1.75,0.25,-0.61,0.52,1.83,216.11,7.3,11.7,9.25,1.75,8.5,11.5,12.5,7.25,5.75,4.75,2.25,1.5,2.75,0.5,2.5,0.08,0.14,1.14,1371.62,-9.6,34.7
0.92,0.75,1.5,0.5,2.75,0.0,2.0,0.0,0.0,0.75,1.5,1.75,1.75,2.0,-0.8,0.7,2.39,203.6,4.0,-13.2,9.25,2.5,8.5,12.0,11.0,7.0,4.5,3.75,0.0,0.0,1.75,0.75,2.25,0.2,0.2,1.45,1329.47,-11.0,43.4
0.94,1.0,1.5,1.25,2.75,1.25,2.5,0.25,0.25,0.75,1.25,1.75,1.75,2.0,-0.92,1.64,2.89,215.98,4.7,-1.4,9.25,1.0,7.75,9.75,10.5,6.25,3.5,3.5,0.0,0.0,1.5,0.75,1.5,0.27,0.27,1.58,1201.26,-11.2,44.2
0.96,0.75,1.75,1.25,2.75,0.75,2.5,0.25,0.5,0.75,1.5,1.75,1.75,2.0,-0.92,2.77,3.02,225.61,4.1,-4.5,9.25,3.0,7.75,7.75,7.75,5.5,2.5,2.25,1.0,0.0,0.5,0.0,1.5,0.77,0.58,2.2,1030.4,-13.1,50.9
0.98,0.75,1.75,1.0,3.0,0.5,1.0,0.5,0.5,0.5,0.0,2.0,2.0,2.0,-0.73,3.89,2.02,226.36,8.6,-4.3,7.25,1.75,5.5,4.0,6.25,2.75,3.0,1.0,0.5,0.0,0.25,0.0,1.5,0.83,0.64,2.7,779.22,-14.6,51.5
1.0,0.75,1.25,1.25,2.75,0.0,2.75,0.0,0.25,0.75,2.0,0.5,1.75,0.5,-0.48,5.58,-2.11,221.68,4.6,3.8,5.0,0.75,2.75,1.25,3.25,0.0,2.0,0.5,0.5,0.0,0.0,0.25,1.0,0.89,0.27,2.45,488.82,-18.6,50.1
1.02,0.0,0.25,1.5,0.5,0.0,1.25,0.25,0.0,0.5,0.0,1.0,0.25,0.5,1.14,6.77,-1.73,175.24,10.2,3.0,1.0,0.5,0.0,0.25,0.25,0.0,1.75,0.5,0.25,0.0,0.25,0.0,0.75,0.45,-0.48,1.83,245.37,-12.2,13.9
1.04,0.0,0.5,0.0,0.5,0.0,1.25,0.0,0.0,0.75,0.0,1.5,1.75,1.5,0.2,-0.61,0.95,139.32,0.9,-49.0,0.0,0.75,0.0,0.25,0.0,0.0,1.25,0.5,0.25,0.0,0.0,0.0,0.5,0.58,-0.98,3.39,52.06,-7.3,7.8
1.06,0.0,0.25,0.0,0.5,0.0,1.25,0.0,1.25,0.75,0.75,1.25,3.5,3.75,0.7,0.39,0.95,143.6,-3.5,-70.6,0.0,0.5,0.0,0.0,0.0,0.0,1.25,0.5,0.5,0.0,0.5,0.25,0.5,1.52,-1.92,0.95,0.0,-7.1,-27.2
1.08,0.0,0.0,0.0,0.5,0.0,1.25,0.0,1.75,1.0,1.5,2.0,5.75,6.25,-0.17,0.14,2.52,198.96,-3.7,-81.3,0.0,0.75,0.0,0.0,0.0,0.0,1.25,0.5,0.25,0.0,0.5,0.0,0.75,0.7,-0.86,0.39,0.0,-5.4,-16.9
1.1,0.0,0.0,0.25,0.5,0.0,2.75,0.0,2.5,1.5,3.75,1.75,6.75,7.0,0.39,0.27,1.64,267.46,-5.3,-73.3,0.0,0.5,0.0,0.0,0.0,0.0,1.25,0.5,0.25,0.0,0.5,0.25,1.25,0.14,-0.55,0.02,0.0,-2.6,-42.9
1.12,0.0,0.5,0.0,1.0,0.5,2.75,0.5,3.75,2.25,0.0,3.5,7.5,7.25,-0.17,0.64,1.7,343.55,-2.1,-64.5,0.0,0.5,0.0,0.0,0.0,0.25,1.25,0.5,0.25,0.0,0.5,0.25,1.25,-0.11,-0.48,0.45,0.0,-1.1,-38.5
1.14,1.75,1.75,1.0,2.75,0.75,5.0,0.0,5.25,3.25,6.25,5.5,8.25,9.0,-0.05,0.02,1.02,516.03,-1.6,-46.4,0.0,0.5,0.0,0.0,0.0,0.0,1.25,0.5,0.25,0.0,0.5,0.25,1.5,-0.23,-0.42,0.83,0.0,-1.6,-47.1
1.16,0.0,0.0,1.0,1.75,3.5,3.0,1.75,5.5,3.75,0.0,5.0,7.5,8.0,-0.11,-0.05,0.95,604.04,-0.5,-48.1,0.0,0.0,0.0,0.0,0.0,0.0,1.25,0.5,0.25,0.0,0.5,0.25,1.25,-0.17,-0.42,1.02,0.0,-1.1,-64.7
1.18,0.5,0.0,1.0,2.25,0.0,3.5,2.25,4.25,4.0,5.75,5.25,7.5,8.0,-0.11,-0.05,0.95,694.47,-1.1,-57.5,0.0,0.0,0.0,0.0,0.0,0.0,1.25,0.25,0.25,0.0,0.5,0.0,0.75,0.08,-0.23,0.95,0.0,-5.4,-52.8
1.2,0.75,0.0,1.0,2.5,0.5,4.0,2.25,5.25,4.25,6.25,5.0,7.25,8.0,-0.11,-0.05,0.95,743.16,-1.6,-53.0,0.0,0.25,0.0,0.0,0.0,0.0,1.25,0.5,0.25,0.0,0.5,0.0,0.75,0.08,-0.05,0.95,0.0,-4.1,-37.9
1.22,1.0,0.75,1.0,2.75,1.25,5.0,2.5,5.25,4.25,6.0,4.0,6.75,7.25,-0.11,-0.05,0.95,782.86,-1.6,-43.0,0.0,0.0,0.0,0.0,0.0,0.0,1.0,0.25,0.25,0.0,0.5,0.25,1.25,0.02,0.02,1.2,3.7,-1.3,-70.5
1.24,0.75,0.5,1.0,2.75,1.25,5.0,2.5,5.5,4.5,6.5,4.5,7.25,7.25,-0.11,-0.05,0.95,803.1,-1.7,-45.7,0.0,0.0,0.0,0.0,0.0,0.0,1.25,0.5,0.25,0.0,0.5,0.0,1.5,0.08,0.14,1.39,34.9,0.5,-64.8
1.26,2.0,1.75,2.25,3.75,3.75,6.25,3.75,6.25,4.75,6.25,5.0,6.25,7.0,-0.11,-0.05,0.95,866.49,0.2,-26.5,0.0,0.0,0.0,0.0,0.0,0.0,1.25,0.5,0.25,0.0,0.5,0.0,1.5,0.2,0.27,1.7,51.53,0.5,-64.8
1.28,2.0,2.0,2.25,4.5,4.75,6.5,3.75,6.25,4.75,5.5,5.0,5.75,6.25,-0.11,-0.05,0.95,910.23,0.7,-20.4,0.0,0.25,0.0,0.0,0.0,0.75,1.0,0.25,0.25,0.0,0.5,0.0,1.5,0.33,0.45,2.39,57.58,3.6,-40.9
1.3,2.5,2.0,2.5,4.75,5.75,6.5,4.25,6.25,4.75,5.0,4.75,5.0,5.5,-0.11,-0.05,0.95,936.84,1.4,-14.1,0.0,0.0,0.0,0.0,0.0,0.0,1.0,0.25,0.25,0.0,0.5,0.0,1.25,0.58,0.77,2.77,54.45,-0.7,-67.0
1.32,2.75,2.0,3.75,4.75,5.5,7.0,4.75,6.25,4.75,4.75,4.0,3.5,4.75,-0.11,-0.05,0.95,940.37,2.3,-6.8,0.0,0.0,0.0,0.0,0.0,0.0,1.0,0.25,0.25,0.0,0.5,0.0,1.5,0.83,1.83,3.02,52.61,0.5,-70.6
1.34,3.25,2.0,3.75,5.25,6.0,7.5,4.75,6.25,4.75,4.75,4.25,3.25,4.0,-0.11,-0.05,0.95,943.69,2.7,-2.9,0.0,0.0,0.0,0.0,0.0,0.0,1.0,0.25,0.25,0.0,0.25,0.0,1.5,0.83,3.08,2.64,48.74,1.5,-70.2
1.36,3.5,2.0,3.5,5.25,6.5,7.5,4.75,6.25,4.75,4.75,4.0,3.0,4.0,-0.11,-0.05,0.95,938.09,2.5,-1.4,0.0,0.0,0.0,0.0,0.0,0.0,1.0,0.5,0.25,0.25,0.5,0.0,1.0,0.89,4.77,0.14,48.36,0.8,-61.6
1.38,3.5,2.0,3.75,5.5,7.0,8.25,5.0,6.25,4.75,4.0,3.75,2.5,3.0,-0.11,-0.05,0.95,929.73,2.9,4.2,0.0,0.0,0.0,0.0,0.0,0.0,0.75,0.5,0.25,0.0,0.5,0.0,1.25,0.08,6.45,-1.98,47.95,2.1,-68.4
1.4,4.0,2.25,4.25,5.5,8.5,8.5,5.5,6.25,4.75,3.25,3.5,2.0,2.25,-0.11,-0.05,0.95,954.71,3.7,11.4,0.0,0.0,0.0,0.0,0.0,0.0,0.25,0.5,0.25,1.25,1.25,0.0,0.25,-6.17,5.14,4.77,53.09,3.2,-66.8
1.42,3.75,2.0,4.5,5.5,8.75,8.75,6.0,6.25,4.75,2.75,2.75,2.0,2.25,-0.11,-0.05,0.95,955.73,3.7,13.1,0.0,0.0,0.0,0.0,0.0,0.25,1.25,1.0,0.25,2.0,0.5,1.75,3.25,1.08,-1.48,2.58,92.57,5.8,-79.8
1.44,6.0,3.5,3.75,7.25,10.0,9.25,6.25,6.5,4.75,2.75,3.5,2.0,2.25,-0.11,-0.05,1.02,1018.19,4.6,18.4,0.0,0.0,0.0,0.0,0.25,0.0,0.75,2.25,1.0,5.25,2.75,5.75,7.25,-0.05,0.27,2.27,205.68,4.8,-85.9
1.46,6.0,3.5,5.75,8.5,11.0,9.25,6.75,6.25,4.75,3.0,3.5,2.0,2.25,-0.11,-0.05,1.02,1112.16,5.8,20.9,0.0,0.5,0.75,0.0,0.0,1.5,0.75,2.25,1.25,7.25,5.0,6.75,8.75,0.33,0.2,3.2,332.9,3.8,-76.2
1.48,7.5,3.5,6.0,9.0,13.0,10.0,6.75,6.5,4.75,2.75,2.75,2.0,2.25,-0.11,0.02,0.95,1238.6,5.9,24.9,0.0,0.75,0.0,0.0,0.0,2.75,1.5,3.75,2.5,7.5,7.25,7.75,9.25,-0.36,0.27,1.52,513.99,3.8,-72.4
1.5,8.75,3.5,7.0,11.0,14.0,10.5,7.25,6.5,4.25,3.0,0.25,2.0,2.25,-0.11,0.02,1.02,1348.97,6.6,31.0,1.0,1.0,0.0,0.75,0.0,2.75,2.25,4.5,3.0,7.75,7.25,6.75,9.25,0.02,0.08,1.02,677.16,2.7,-63.0
1.52,9.5,4.5,7.75,13.0,15.0,10.5,7.0,6.25,4.0,2.75,1.25,2.0,2.25,-0.17,0.08,1.14,1459.91,7.5,33.1,0.75,1.5,0.0,2.75,0.0,3.25,2.5,5.0,3.0,7.75,7.25,6.75,8.5,0.2,0.02,0.95,797.96,1.9,-54.5
1.54,10.5,3.5,7.5,11.0,13.0,10.0,7.0,5.75,3.25,2.75,0.5,1.75,2.0,-0.11,0.14,1.08,1489.32,8.0,34.8,0.5,0.75,2.25,0.0,3.25,3.0,3.0,5.0,3.0,7.5,6.5,6.25,8.5,0.14,0.02,0.95,859.78,1.6,-49.5
1.56,12.5,5.0,8.75,13.0,15.5,10.0,6.25,6.25,3.25,2.75,1.5,2.0,2.25,-0.17,0.14,1.27,1567.28,8.7,36.4,0.75,0.75,0.0,0.0,1.5,4.0,2.75,5.0,3.0,6.5,6.25,5.75,8.0,0.14,-0.05,0.95,853.46,3.7,-55.7
1.58,14.5,6.0,9.5,13.0,15.0,9.5,6.0,5.5,2.75,2.75,1.5,2.0,2.0,-0.42,0.2,1.52,1623.22,10.0,40.0,1.25,1.0,0.75,0.25,2.75,4.0,3.0,5.0,3.25,6.25,5.0,4.5,7.25,0.14,0.02,0.95,817.67,2.6,-43.1
1.6,15.5,6.25,9.25,11.5,13.0,8.5,5.75,5.5,2.25,2.75,2.75,2.0,2.0,-0.36,0.33,1.77,1656.36,10.8,39.0,2.0,1.25,2.0,0.5,3.25,4.5,3.5,5.0,3.5,5.5,4.75,4.0,6.25,0.14,0.02,0.95,771.73,0.3,-30.9
1.62,14.5,6.25,9.25,9.25,10.5,7.5,5.75,5.0,1.75,2.75,2.5,1.5,2.0,-0.98,0.58,1.95,1602.24,11.4,39.5,2.5,1.5,2.25,2.0,3.5,5.0,4.0,4.75,3.5,4.5,4.0,3.0,5.5,0.08,0.02,0.95,730.59,-1.1,-18.6
1.64,10.5,3.5,8.0,6.25,9.0,5.0,5.5,4.25,1.5,2.5,2.5,1.75,1.25,-0.86,0.7,2.83,1429.22,11.5,34.5,2.5,1.25,2.25,2.25,3.75,5.25,4.25,4.25,3.5,4.25,3.75,2.25,4.75,0.08,0.02,0.95,681.88,-1.4,-13.8
1.66,7.75,0.0,6.25,5.25,6.75,3.75,2.5,2.25,1.5,0.0,2.25,1.75,2.0,-1.17,0.52,2.58,1087.31,12.4,30.5,3.75,1.5,2.5,2.5,3.75,5.75,4.5,3.75,3.5,2.75,2.75,1.75,3.5,0.14,0.02,0.95,628.16,-3.6,0.1
1.68,3.5,0.0,3.75,2.75,4.25,1.25,0.25,1.75,0.75,0.0,1.0,0.5,1.0,-0.92,-0.3,1.89,641.7,11.9,32.6,4.5,1.5,2.75,2.75,5.5,6.0,4.5,3.75,3.5,2.5,2.75,1.0,3.25,0.14,0.02,0.95,596.25,-4.1,8.2
1.7,1.75,0.25,1.25,2.75,0.5,1.25,0.25,1.0,0.75,0.0,1.25,0.25,1.0,-0.3,0.2,2.7,319.45,10.4,16.9,5.25,1.75,3.25,5.0,6.0,6.25,5.0,3.75,3.25,2.0,2.75,1.0,2.75,0.14,0.02,0.95,609.06,-5.9,16.5
1.72,2.0,1.75,2.25,4.0,0.5,1.75,1.5,1.5,1.5,0.0,2.25,1.0,2.0,-1.23,-0.86,3.2,188.33,10.7,11.1,5.5,1.75,5.0,5.25,6.25,6.25,5.25,3.75,3.0,2.25,2.25,0.75,2.5,0.14,0.02,0.95,647.65,-7.3,21.2
1.74,2.0,1.25,2.0,3.0,0.5,1.75,0.75,2.5,1.25,0.0,1.5,1.75,1.75,-1.48,-1.23,1.95,108.18,8.4,3.6,6.5,1.75,5.0,6.75,7.75,6.5,5.5,3.75,3.0,1.75,2.0,0.75,2.5,0.08,0.02,1.02,718.52,-7.8,26.2
1.76,1.75,1.75,1.75,3.25,0.5,1.75,0.0,1.5,1.25,0.0,1.5,1.75,1.75,-0.61,-0.61,0.64,83.07,8.8,6.9,7.0,2.0,5.25,7.0,7.75,6.25,5.5,3.75,2.75,1.5,2.0,0.5,2.5,0.08,0.02,1.02,780.48,-8.5,29.0
1.78,1.75,1.75,1.5,3.0,0.5,1.75,0.25,1.75,1.25,1.25,2.0,1.75,2.0,-0.36,-0.42,0.2,88.63,6.4,-3.3,7.75,2.0,6.5,8.75,8.0,6.25,5.75,3.5,2.75,1.5,2.0,0.5,2.25,0.08,0.08,1.02,857.64,-10.1,32.6
1.8,1.75,1.75,1.5,2.75,1.25,1.5,0.0,0.25,1.0,1.5,1.75,1.75,2.0,-0.17,-0.23,0.08,90.39,7.4,1.0,8.25,2.25,7.0,8.75,9.0,6.5,5.5,3.5,2.5,1.25,1.75,0.25,2.25,0.08,0.08,0.95,927.23,-10.2,36.0
1.82,1.75,1.75,1.5,2.75,0.75,2.25,0.25,0.5,1.0,1.5,1.5,1.75,2.0,-0.17,-0.23,0.27,108.23,6.4,1.2,8.5,2.5,7.0,11.0,9.0,6.5,5.25,3.25,2.75,3.0,1.75,1.0,2.0,0.02,0.14,0.95,1015.3,-10.0,33.1
1.84,1.75,1.75,1.5,3.0,0.5,2.25,0.5,1.0,1.25,0.25,1.75,0.5,2.0,-0.23,-0.3,0.7,134.83,7.8,11.8,10.5,3.75,7.75,12.0,10.5,7.0,5.5,3.5,2.0,1.5,2.75,0.75,2.5,0.02,0.14,1.02,1135.81,-10.9,38.1
1.86,1.75,1.75,1.0,2.75,0.5,2.25,0.5,1.0,0.75,1.25,2.25,1.75,2.25,-0.3,-0.3,1.02,177.03,5.4,-4.7,10.5,4.0,8.5,12.5,11.5,7.0,5.25,3.75,1.75,1.25,2.75,1.0,3.25,0.02,0.14,1.02,1265.57,-10.7,37.2
1.88,1.75,1.75,1.25,2.75,0.5,1.5,1.0,1.75,0.75,1.25,1.75,1.75,1.5,-0.36,-0.17,0.95,212.65,7.0,-0.1,10.5,4.0,8.5,12.5,11.5,5.25,4.5,3.75,1.5,0.0,2.75,0.5,3.0,0.02,0.27,1.02,1321.0,-12.0,41.4
1.9,1.75,1.75,1.5,2.75,0.5,1.5,1.5,0.0,0.75,1.25,0.75,1.75,1.5,-0.36,0.02,0.95,233.19,10.2,9.6,10.5,2.5,8.0,12.0,11.5,6.5,4.25,2.75,1.25,0.0,1.5,0.0,2.0,0.02,0.27,1.08,1303.53,-11.9,47.1
1.92,1.5,1.75,1.25,2.75,0.0,1.25,0.5,1.25,0.75,1.5,1.5,1.75,2.0,-0.42,0.14,1.2,244.0,6.7,-6.2,11.0,2.5,8.5,0.0,10.5,6.25,3.5,2.5,1.5,0.25,1.5,0.5,1.0,-0.05,0.27,1.08,1129.83,-12.0,46.1
1.94,1.25,1.75,1.25,2.75,0.5,1.25,0.5,1.0,0.75,1.5,2.0,1.75,1.75,-0.42,0.27,1.7,243.0,6.8,-5.5,11.5,3.5,8.5,14.0,10.5,6.75,3.5,2.25,1.0,0.25,1.5,0.0,2.0,0.08,0.33,1.2,1106.32,-12.8,49.6
1.96,1.0,1.5,1.25,2.75,0.75,1.25,0.5,1.5,0.75,1.25,1.5,1.75,2.0,-0.55,0.45,1.95,236.31,5.4,-7.0,11.5,2.75,8.5,12.0,10.5,6.25,3.5,3.25,0.75,0.0,2.0,0.75,1.5,0.27,0.45,1.39,1081.97,-12.7,46.7
1.98,1.0,1.5,1.25,2.75,0.0,1.25,0.75,1.0,0.75,1.25,1.75,0.75,2.0,-0.86,0.95,2.64,229.81,6.6,-3.6,11.5,4.0,9.25,9.75,10.5,6.0,4.25,2.5,1.0,0.0,0.5,0.0,1.5,0.39,0.58,1.64,1092.52,-13.6,53.1
2.0,1.0,1.25,1.25,2.75,0.75,1.25,1.0,1.25,0.75,1.25,1.75,1.75,1.75,-0.98,2.02,3.02,230.06,6.3,-7.1,10.5,3.0,8.0,8.5,8.0,5.0,4.0,2.0,1.0,0.0,0.0,0.25,1.5,0.7,0.77,2.02,1003.25,-14.4,52.8
2.02,0.0,0.5,1.25,0.75,0.75,1.0,0.75,1.75,0.75,0.0,1.5,0.25,0.5,-0.98,3.27,2.95,196.33,4.9,-2.7,8.5,1.25,6.75,5.25,7.0,3.0,3.25,0.5,0.5,0.0,0.5,0.0,1.5,0.77,0.83,2.77,818.04,-16.0,53.1
2.04,0.25,1.25,0.0,2.75,0.5,1.75,0.5,1.75,0.5,0.25,1.75,0.25,2.0,-0.8,4.58,1.89,184.78,0.5,-5.6,6.5,0.75,5.0,2.5,3.75,0.5,2.25,0.0,0.25,0.0,0.0,0.75,0.5,0.95,0.58,2.45,545.29,-21.6,57.5
2.06,0.0,0.5,0.25,0.5,0.0,0.5,0.0,0.25,0.75,0.5,0.5,0.25,0.5,0.02,6.52,-0.73,130.96,2.6,-18.4,3.25,0.25,2.25,0.25,1.5,0.0,1.5,0.0,0.25,0.0,0.0,0.0,1.25,0.39,-0.36,1.89,297.58,-20.8,44.7
2.08,0.0,0.25,0.0,0.5,0.0,0.5,0.0,0.25,0.75,1.0,1.25,0.25,1.0,3.58,7.27,1.52,99.67,-1.4,-47.7,0.75,0.0,0.5,0.0,1.5,0.25,1.5,0.5,0.25,0.0,0.0,0.0,1.25,-0.05,-0.05,3.08,133.34,-5.6,8.4
2.1,0.0,0.25,0.0,0.75,0.0,1.25,0.0,0.25,0.75,2.25,1.5,2.0,2.25,-1.92,-1.92,3.14,98.01,-3.4,-60.5,0.75,0.0,0.0,0.0,1.0,0.25,1.5,0.0,0.25,0.25,0.0,0.25,0.75,1.02,-1.23,2.89,0.0,-6.7,4.0
2.12,0.0,0.0,0.0,0.5,0.0,1.25,0.0,1.25,0.75,2.75,1.75,5.0,5.5,0.83,0.33,0.14,161.14,-4.7,-80.4,0.0,0.0,0.0,0.0,0.0,0.0,1.5,0.0,0.25,0.0,0.25,0.0,1.5,1.27,-0.98,0.58,0.0,-2.8,-64.6
2.14,0.0,0.0,0.25,1.0,0.0,2.75,0.25,3.0,1.5,2.5,2.5,6.75,6.5,0.27,0.52,3.33,248.66,-3.9,-68.9,0.0,0.0,0.0,0.0,0.0,0.25,1.25,0.25,0.25,0.0,0.25,0.25,1.5,0.64,-0.55,0.27,0.0,1.0,-62.4
2.16,0.0,0.5,0.0,2.0,0.5,3.0,0.0,4.0,3.25,5.75,3.75,7.5,7.25,-0.3,0.14,1.39,367.19,-3.7,-62.0,0.0,0.0,0.0,0.0,0.0,0.25,1.25,0.0,0.5,0.0,0.5,0.25,1.5,0.2,-0.36,0.2,0.0,-1.7,-63.2
2.18,1.75,0.75,1.5,2.75,2.5,5.0,3.0,5.5,3.5,6.25,4.5,7.75,8.0,-0.11,-0.05,1.02,554.01,-0.7,-39.8,0.0,0.0,0.0,0.0,0.0,0.25,1.25,0.25,0.25,0.0,0.25,0.5,1.5,0.02,-0.23,0.33,0.0,0.3,-65.6
2.2,2.0,0.0,1.75,3.5,5.25,5.0,3.75,6.25,4.0,7.0,5.0,8.25,8.75,-0.11,-0.05,0.95,763.97,-0.6,-36.1,0.0,0.0,0.0,0.0,0.0,0.25,1.25,0.0,0.25,0.0,0.5,0.0,1.5,-0.05,-0.23,0.77,0.0,-0.3,-61.5
2.22,0.5,0.0,2.25,3.0,5.0,5.0,3.75,6.5,3.75,6.5,5.0,7.0,8.0,-0.11,-0.05,0.95,901.97,-1.3,-36.9,0.0,0.0,0.0,0.0,0.0,0.0,1.25,0.0,0.25,0.0,0.5,0.25,1.5,0.08,-0.3,0.89,0.0,-2.7,-72.6
2.24,1.25,0.25,1.0,2.0,1.75,6.5,3.25,6.25,4.5,7.75,4.75,7.5,8.75,-0.17,-0.05,0.95,980.49,-2.9,-45.9,0.0,0.0,0.0,0.0,0.0,0.0,1.25,0.0,0.5,0.0,0.5,0.5,1.5,0.14,-0.17,0.95,0.0,-3.8,-72.8
2.26,2.0,1.75,2.75,4.25,5.25,6.5,3.5,6.75,4.5,7.25,6.0,7.25,8.25,-0.11,-0.05,0.95,1065.42,0.0,-27.3,0.0,0.0,0.0,0.0,0.0,0.25,1.0,0.0,0.25,0.0,0.5,0.0,1.5,0.08,-0.05,1.02,0.0,0.9,-65.0
2.28,2.0,0.5,2.75,4.25,5.25,7.0,3.75,7.0,4.25,7.0,5.5,6.75,7.0,-0.11,-0.05,0.95,1092.91,-0.2,-26.4,0.0,0.25,0.0,0.0,0.0,0.0,1.0,0.0,0.25,0.0,0.5,0.0,1.5,0.02,0.08,1.27,26.5,-1.9,-58.8
2.3,2.0,1.75,2.25,4.5,5.25,7.25,3.75,7.0,4.25,6.5,4.5,5.75,6.75,-0.17,-0.05,0.95,1105.75,-0.4,-20.9,0.0,0.0,0.0,0.0,0.0,0.0,1.25,0.0,0.25,0.0,0.5,0.0,1.5,0.08,0.2,1.52,41.79,-2.2,-69.3
2.32,1.75,1.25,2.0,4.25,5.25,7.5,3.75,6.75,4.0,6.25,4.5,5.5,6.25,-0.17,-0.05,0.95,1060.51,-0.8,-21.4,0.0,0.0,0.0,0.0,0.0,0.0,1.0,0.0,0.25,0.0,0.5,0.25,1.5,0.2,0.39,1.83,47.39,-1.6,-76.5
2.34,1.75,1.75,2.25,4.5,5.75,7.5,3.25,7.0,4.0,5.75,4.5,5.0,5.75,-0.17,-0.05,0.95,1008.35,-0.5,-17.1,0.0,0.5,0.0,0.0,0.0,0.0,1.0,0.0,0.25,0.25,0.5,0.25,1.5,0.39,0.64,2.45,52.48,-1.9,-52.4
2.36,2.0,1.75,2.5,4.5,5.75,7.5,3.75,7.0,4.0,5.75,4.25,5.0,5.25,-0.11,-0.05,0.95,950.96,0.0,-15.0,0.0,0.25,0.0,0.0,0.0,0.0,1.0,0.0,0.25,0.0,0.5,0.0,1.5,0.58,1.39,2.64,53.12,-1.9,-58.8
2.38,2.0,1.75,2.25,4.75,6.0,7.5,3.75,7.0,4.0,5.25,4.0,3.5,5.25,-0.11,-0.05,0.95,901.85,-0.3,-11.4,0.0,0.25,0.0,0.0,0.0,0.0,1.0,0.0,0.25,0.0,0.5,0.0,1.5,0.77,2.52,2.83,52.02,-1.9,-58.8
2.4,2.25,1.75,2.5,4.75,6.75,8.25,3.75,7.25,4.0,5.0,4.5,3.5,4.75,-0.17,-0.05,0.95,878.37,-0.1,-8.6,0.0,0.25,0.0,0.5,0.0,0.0,1.25,0.0,0.0,0.0,0.5,0.0,1.5,1.14,4.02,1.39,51.38,-4.6,-39.3
2.42,2.25,2.0,3.0,5.25,6.75,8.5,3.75,7.5,4.5,4.75,4.0,3.25,4.0,-0.17,-0.05,0.95,870.5,0.4,-4.5,0.0,0.0,0.0,0.0,0.0,0.0,1.0,0.0,0.0,0.0,0.5,0.25,1.5,1.02,5.33,-0.86,50.04,-0.6,-79.9
2.44,3.0,2.0,3.0,5.25,6.75,8.5,4.25,7.0,4.0,5.0,2.25,2.75,4.0,-0.17,-0.05,0.95,866.63,0.6,0.2,0.0,0.0,0.0,0.0,0.0,0.0,1.0,0.0,0.0,0.0,0.25,0.0,1.5,-0.67,6.08,-0.92,46.03,1.3,-77.1
2.46,3.25,2.0,1.5,5.5,7.5,9.25,4.25,7.25,4.75,4.75,4.0,3.0,3.75,-0.17,-0.05,0.95,886.53,0.0,-1.9,0.0,0.0,0.0,0.0,0.0,0.0,0.75,0.5,0.0,1.0,0.5,0.5,1.5,0.27,-0.17,-0.11,54.8,5.4,-78.8
2.48,3.5,2.25,3.75,5.5,9.0,9.5,4.75,7.75,4.5,4.75,4.0,2.25,3.25,-0.11,-0.05,0.95,931.17,1.4,4.8,0.0,0.0,0.0,0.0,0.0,0.0,0.75,0.5,0.0,1.75,0.75,2.0,2.25,-0.23,-0.67,0.95,83.12,3.9,-87.6
2.5,3.75,2.25,3.75,7.0,9.25,10.0,5.0,7.75,4.5,4.75,3.75,2.0,2.75,-0.17,-0.05,0.95,987.76,1.8,8.6,0.0,0.0,0.0,0.0,0.0,0.0,0.75,0.75,0.25,3.5,2.0,4.25,5.0,0.33,0.14,2.33,156.86,4.0,-90.8
2.52,4.5,3.5,4.5,7.0,11.5,11.0,5.5,7.75,4.5,3.5,3.5,2.0,3.25,-0.11,-0.05,0.95,1093.76,2.5,14.6,0.0,0.0,0.0,0.0,0.0,0.0,1.0,2.25,1.5,6.5,3.25,6.25,8.0,1.08,0.45,1.89,268.12,4.5,-86.4
2.54,4.5,2.25,4.75,7.0,13.0,11.0,5.75,7.75,4.5,4.25,3.25,2.0,2.75,-0.17,-0.05,1.02,1184.77,2.2,14.5,0.25,0.75,0.0,0.0,0.0,2.5,1.5,3.75,2.25,7.0,6.5,6.5,8.5,-0.36,0.2,1.27,410.05,3.9,-70.2
2.56,5.75,2.5,4.25,9.0,12.0,11.5,5.5,7.25,4.0,3.75,1.75,1.75,2.25,-0.11,0.02,1.02,1246.49,3.0,21.3,0.5,0.75,0.0,0.25,0.0,2.75,2.0,3.75,2.75,7.5,6.75,6.5,8.5,0.02,0.08,1.08,569.56,3.3,-66.9
2.58,7.25,3.5,5.75,11.0,13.5,12.0,5.25,7.75,4.0,3.75,1.25,2.0,2.5,-0.17,0.02,1.02,1335.61,4.2,25.6,1.5,1.5,2.25,2.0,3.25,4.0,2.5,5.0,3.0,7.5,7.5,6.75,9.25,0.2,0.02,1.02,757.96,0.4,-41.6
2.6,8.5,4.0,6.0,12.5,15.5,12.5,5.5,7.5,3.25,3.25,2.5,2.0,2.5,-0.11,0.08,1.08,1434.73,4.9,28.4,0.0,1.0,0.0,0.75,0.25,4.75,2.75,5.0,3.5,8.25,7.25,7.5,9.25,0.14,0.02,0.95,866.18,3.9,-61.5
2.62,9.5,5.0,7.0,13.0,15.5,12.5,5.0,7.25,3.0,3.0,2.5,2.0,2.5,-0.17,0.14,1.14,1537.18,5.8,31.3,1.0,1.75,0.5,1.75,1.25,4.0,2.5,4.75,3.25,7.75,6.5,6.75,8.5,0.14,0.02,0.95,922.35,2.0,-49.4
2.64,10.5,5.0,7.0,13.0,15.5,12.0,4.25,7.25,2.25,2.75,2.5,2.0,2.0,-0.36,0.2,1.33,1600.34,6.3,33.7,2.5,1.5,2.25,1.75,3.5,4.0,3.25,5.0,3.5,7.75,6.75,6.5,9.0,0.14,0.02,0.95,964.72,-0.1,-37.8
2.66,12.0,5.0,7.0,11.5,15.5,11.0,3.0,6.75,2.0,2.75,2.0,2.0,2.25,-0.42,0.27,1.52,1619.04,6.7,35.3,2.5,1.25,2.25,0.25,2.75,3.75,3.25,5.0,3.5,7.5,7.25,6.0,8.0,0.14,0.02,0.95,964.39,-0.1,-41.3
2.68,12.0,5.0,7.0,10.5,14.5,9.75,3.25,6.25,1.5,2.75,2.0,1.75,2.25,-0.73,0.33,1.83,1580.35,7.3,36.1,0.25,0.75,2.25,0.0,3.5,4.5,2.75,5.0,3.5,6.0,6.0,5.5,8.0,0.08,0.02,0.95,914.78,2.1,-44.4
2.7,10.5,5.0,5.75,8.25,11.5,8.25,3.75,5.5,1.5,2.5,2.0,1.75,2.25,-1.05,0.77,2.45,1461.64,7.5,33.9,0.5,1.5,1.0,1.25,2.75,4.75,3.5,5.5,3.5,6.0,5.75,5.0,7.0,0.14,-0.05,0.89,843.86,2.1,-39.9
2.72,7.25,3.5,5.5,5.5,7.5,6.0,1.5,4.25,1.5,2.5,1.25,1.75,1.75,-1.05,0.45,2.83,1217.08,7.5,29.7,2.5,1.75,1.75,0.75,3.5,5.0,4.0,5.5,4.25,6.25,5.25,4.5,6.75,0.14,0.02,0.95,791.37,0.2,-29.9
2.74,3.75,0.0,3.75,2.75,5.5,3.75,0.0,0.25,0.75,0.0,0.0,0.5,1.0,-1.23,0.08,2.2,771.26,9.3,44.1,2.5,1.75,2.25,2.75,3.75,5.5,3.75,5.0,3.5,4.25,4.0,3.5,6.25,0.14,0.02,0.95,728.11,-0.9,-18.1
2.76,0.75,0.25,0.25,3.75,0.75,3.75,0.0,0.0,1.25,0.0,0.75,1.75,1.0,0.08,0.08,1.27,399.26,3.1,6.8,3.0,2.0,2.25,2.75,3.75,6.25,4.0,5.0,4.25,5.25,4.0,3.25,4.75,0.14,0.02,0.95,698.07,-1.3,-13.6
2.78,1.75,1.25,1.5,4.0,4.25,1.75,0.0,2.0,1.25,0.25,2.5,1.75,2.0,-0.3,-0.55,2.77,251.21,5.6,8.0,2.75,2.25,4.0,5.0,6.25,6.75,5.0,5.5,4.25,4.75,4.75,2.5,4.75,0.14,0.02,0.95,739.96,-2.8,-3.2
2.8,1.75,1.5,1.75,4.0,5.0,3.0,0.25,2.0,1.25,0.0,2.0,1.75,2.0,-1.11,-1.05,2.95,190.96,4.7,14.3,3.75,2.5,5.0,5.25,7.5,7.0,5.25,5.0,4.0,4.75,4.0,1.75,4.25,0.14,0.02,0.95,806.61,-4.0,5.4
2.82,1.25,1.75,1.25,3.25,0.0,2.25,0.25,0.25,1.0,1.0,2.0,1.75,2.0,-1.17,-1.05,1.02,139.1,7.1,-2.3,4.0,2.5,5.0,6.75,7.75,7.0,5.25,5.0,3.75,4.5,4.0,1.75,4.0,0.14,0.02,0.95,877.64,-4.5,8.4
2.84,0.75,0.5,1.5,2.5,1.25,1.25,0.25,0.25,0.75,0.0,1.75,0.5,1.5,-0.55,-0.61,0.45,87.63,8.8,7.4,5.0,2.75,5.25,7.0,8.75,7.25,5.75,5.0,3.5,3.5,3.25,2.0,3.5,0.14,0.02,0.95,951.47,-5.5,14.8
2.86,0.75,1.75,1.25,3.0,3.75,1.75,0.0,1.0,1.0,1.5,1.75,1.75,2.0,-0.3,-0.36,0.2,90.22,3.4,2.7,5.25,3.0,5.75,8.75,9.0,7.5,5.75,5.0,3.5,3.5,2.75,1.5,3.25,0.14,0.02,0.95,1017.5,-6.1,19.5
2.88,0.0,1.5,1.5,3.5,1.75,1.25,0.0,0.0,1.0,1.25,1.5,0.25,2.0,-0.23,-0.17,0.2,79.38,5.6,7.0,6.0,3.0,6.5,9.0,10.5,7.0,5.75,5.0,2.75,2.0,3.0,0.75,3.25,0.08,0.08,0.95,1064.57,-7.3,26.0
2.9,0.75,1.75,1.25,2.75,0.75,1.25,0.0,1.75,0.75,1.25,2.0,1.75,2.0,-0.3,-0.17,0.7,107.99,4.6,-9.6,5.75,2.5,6.25,8.75,9.25,7.5,5.25,3.75,2.75,1.5,2.0,0.25,2.25,0.08,0.08,0.95,1057.81,-7.9,31.8
2.92,0.75,1.75,1.25,2.75,0.75,1.25,0.25,2.0,0.75,1.25,1.75,1.75,2.0,-0.42,-0.23,0.83,143.31,4.4,-8.9,6.5,2.75,6.75,10.5,10.5,7.5,5.0,3.75,2.25,2.0,1.75,0.75,2.0,0.08,0.14,0.95,1074.31,-8.3,34.0
2.94,0.5,1.25,1.25,3.0,0.75,1.75,0.25,1.5,0.75,1.5,2.0,1.0,2.0,-0.55,-0.17,1.02,182.61,3.4,-8.0,8.25,3.0,6.75,10.5,10.5,8.0,5.0,4.0,2.25,2.5,2.5,0.25,2.0,0.08,0.14,1.02,1099.22,-8.5,34.6
2.96,1.0,1.25,1.5,3.25,1.25,2.75,0.25,1.25,0.75,1.25,1.75,0.75,2.0,-0.48,0.2,1.2,218.11,3.7,3.7,8.75,4.0,7.5,14.0,11.5,8.0,4.5,5.0,2.0,2.75,2.75,0.75,2.5,0.08,0.14,1.02,1205.95,-8.6,34.2
2.98,0.0,0.5,1.25,0.5,1.25,0.75,0.25,1.75,0.5,0.0,1.25,0.0,0.5,-0.48,0.33,1.39,202.42,3.5,3.4,9.25,4.0,7.75,14.0,13.0,8.25,4.25,4.75,1.75,0.0,2.75,0.75,3.25,0.02,0.2,1.08,1303.61,-9.2,38.2
3.0,0.0,0.5,0.25,2.75,0.5,2.75,0.0,0.0,0.75,1.5,0.75,0.75,0.5,-0.55,0.52,1.83,180.27,-0.2,1.6,10.5,0.0,7.75,13.0,13.5,8.0,3.5,4.5,1.25,0.0,2.75,0.0,3.0,0.02,0.27,1.14,1322.74,-9.4,38.5
3.02,0.0,0.75,1.25,1.0,1.25,1.75,0.0,1.0,0.75,0.25,1.5,0.25,2.0,-0.73,0.83,2.27,149.94,1.0,-8.3,9.25,2.5,6.0,0.0,12.0,7.75,2.25,3.5,1.0,0.0,1.25,0.5,2.25,0.27,0.33,1.27,1143.5,-6.8,39.9
3.04,0.25,1.5,1.0,2.5,1.25,2.75,0.0,1.25,0.75,1.5,1.75,1.0,2.0,-0.86,1.39,2.58,175.42,0.6,-5.4,9.5,1.75,7.0,10.5,11.5,7.75,2.5,2.25,1.0,1.0,0.5,0.25,2.25,0.33,0.39,1.33,1048.56,-9.6,44.8
3.06,0.0,0.5,1.0,1.0,1.25,0.0,0.0,1.0,0.5,0.0,1.5,0.0,2.0,-0.98,2.33,3.02,165.05,3.9,-15.6,9.0,3.5,6.25,10.5,10.5,8.0,2.5,3.75,1.0,0.0,1.75,1.0,2.5,0.27,0.45,1.45,984.8,-8.9,40.5
3.08,0.0,0.5,1.25,1.0,0.5,1.0,0.0,0.0,0.5,0.0,1.25,0.0,0.5,-0.92,3.64,2.08,144.57,9.4,13.1,8.5,3.0,7.25,8.25,11.0,6.75,3.0,3.75,0.5,0.25,1.75,0.0,2.75,0.64,0.83,2.58,961.36,-9.3,41.5
3.1,0.0,0.25,0.25,1.25,0.0,0.0,0.0,0.0,0.25,0.5,0.75,0.0,0.25,-0.48,4.83,0.7,90.77,9.8,-3.7,6.5,1.75,5.0,5.25,8.0,4.25,2.25,2.0,0.25,0.0,0.5,0.0,1.5,0.7,0.95,3.33,801.95,-10.5,47.7
3.12,0.0,0.25,0.0,1.5,0.0,1.25,0.0,0.25,0.25,0.0,0.75,0.25,0.25,1.14,6.89,-2.3,62.94,1.8,5.7,4.0,0.75,2.25,1.25,4.25,0.5,1.5,0.5,0.0,0.0,0.25,0.0,0.25,1.08,0.14,2.39,526.02,-15.6,58.5
3.14,0.0,0.25,0.0,0.0,0.0,0.75,0.0,0.0,0.25,0.0,1.25,0.5,0.75,2.2,5.08,-1.36,35.06,-0.8,-51.6,0.75,0.75,0.0,0.0,1.5,0.0,1.25,0.5,0.25,1.5,0.0,0.25,1.5,0.45,-0.17,1.7,277.1,0.0,-10.8
3.16,0.0,0.0,0.0,0.5,0.0,1.0,0.0,1.5,0.75,0.25,1.25,2.0,1.75,-2.05,-1.36,1.58,59.86,-2.9,-61.5,0.0,0.75,0.0,0.25,1.25,0.75,1.25,0.5,0.25,0.0,0.0,0.25,1.5,0.2,0.2,3.08,94.86,1.8,-2.5
3.18,0.0,0.0,0.0,0.25,0.0,1.75,0.0,2.0,0.75,0.5,1.5,4.25,4.0,0.89,0.27,-0.17,120.47,-4.6,-73.5,0.0,0.0,0.0,0.0,1.0,0.25,1.25,0.5,0.0,0.0,0.5,0.25,1.5,0.83,-1.3,2.89,0.0,2.5,-34.9
3.2,0.0,0.25,0.25,1.5,0.0,3.0,0.0,2.75,2.0,0.0,2.5,6.75,5.75,0.27,0.45,4.08,217.19,-1.7,-61.7,0.0,0.0,0.0,0.0,1.0,0.25,1.25,0.5,0.25,0.0,0.5,0.0,1.5,1.08,-1.3,1.08,0.0,2.3,-31.2
3.22,0.0,1.75,0.0,3.75,0.0,5.0,1.75,5.5,3.75,0.0,5.75,8.25,9.0,0.02,0.39,1.45,368.06,-0.7,-48.3,0.0,0.5,0.0,0.0,0.0,0.25,1.25,0.25,0.25,0.0,0.25,0.25,1.5,0.52,-0.55,0.52,0.0,-0.7,-40.9
3.24,0.0,0.0,1.0,1.25,0.5,4.5,2.25,5.25,4.0,7.0,5.0,8.25,8.0,-0.11,0.08,1.08,547.7,-3.0,-59.3,0.0,0.5,0.0,0.0,0.0,0.0,1.25,0.5,0.25,0.0,0.0,0.25,1.5,0.14,-0.42,0.27,0.0,-0.4,-43.3
3.26,1.75,0.0,1.5,3.25,5.0,4.75,2.5,6.0,3.75,7.0,5.5,8.25,9.0,-0.17,0.02,1.02,766.0,-1.2,-39.6,0.0,0.25,0.0,0.0,0.25,0.25,1.25,0.25,0.25,0.0,0.25,0.0,1.5,-0.11,-0.17,0.39,0.0,0.9,-38.6
3.28,1.25,0.0,1.25,2.5,5.25,5.0,2.5,6.0,3.75,7.0,5.25,7.5,8.75,-0.05,-0.05,0.89,906.0,-2.2,-40.3,0.0,0.0,0.0,0.0,0.0,0.25,1.25,0.0,0.25,0.0,0.0,0.25,1.5,-0.11,-0.17,0.7,0.0,0.6,-63.3
3.3,0.25,0.0,1.5,1.25,4.75,3.5,2.25,6.0,3.25,5.75,5.25,6.25,8.25,-0.17,-0.05,0.95,953.86,-2.6,-45.2,0.0,0.25,0.0,0.0,0.0,0.0,1.0,0.0,0.25,0.0,0.0,0.0,1.5,0.14,-0.17,0.77,0.0,-0.2,-55.6
3.32,1.75,0.5,3.5,3.0,5.0,5.25,2.25,6.25,3.75,6.5,5.0,7.5,8.0,-0.17,-0.05,0.95,989.78,0.0,-31.9,0.0,0.5,0.0,0.0,0.0,0.0,1.0,0.25,0.25,0.0,0.25,0.25,1.5,0.27,-0.11,0.77,0.0,-1.2,-48.3
3.34,0.75,0.25,3.0,2.0,2.25,4.0,2.25,5.5,3.5,6.25,4.0,6.5,7.25,-0.11,-0.05,0.95,935.85,-0.6,-41.6,0.0,0.25,0.0,0.0,0.0,0.0,1.0,0.0,0.25,0.0,0.0,0.0,1.25,0.27,0.02,0.95,0.0,-1.8,-49.4
3.36,0.0,0.0,1.0,2.0,1.25,5.0,2.25,5.5,3.75,5.75,4.75,6.5,7.25,-0.11,-0.05,0.95,871.75,-3.0,-50.5,0.0,0.0,0.0,0.0,0.0,0.0,0.75,0.0,0.25,0.0,0.5,0.0,1.5,0.2,0.08,1.27,25.42,0.4,-78.1
3.38,0.5,0.0,1.0,2.5,1.25,5.0,2.25,5.25,4.0,5.5,4.5,5.75,6.75,-0.11,-0.05,0.95,785.59,-2.3,-45.5,0.0,0.0,0.0,0.0,0.0,0.0,0.75,0.0,0.25,0.0,0.0,0.0,1.25,0.27,0.27,1.58,30.55,1.5,-74.5
3.4,2.0,1.25,1.0,3.75,2.25,6.25,2.75,5.25,4.75,6.25,4.75,5.75,6.25,-0.11,-0.05,0.95,757.62,-0.5,-30.6,0.0,0.0,0.0,0.0,0.0,0.0,1.0,0.0,0.25,0.0,0.5,0.0,1.5,0.39,0.45,1.77,35.36,-0.9,-73.5
3.42,2.25,1.0,2.5,4.0,5.25,6.5,3.75,6.25,5.0,5.75,5.5,5.75,6.25,-0.11,-0.05,0.95,778.06,0.6,-22.5,0.0,0.0,0.0,0.0,0.0,0.0,1.0,0.0,0.25,0.0,0.5,0.0,1.5,0.45,0.64,2.27,38.21,-0.9,-73.5
3.44,2.25,1.5,3.5,4.0,5.25,6.5,4.5,6.25,5.25,5.0,5.25,5.25,6.25,-0.11,-0.05,0.95,821.05,1.7,-18.1,0.0,0.0,0.0,0.0,0.0,0.0,0.75,0.25,0.25,0.0,0.5,0.0,1.5,0.7,1.08,2.52,43.07,1.8,-74.7
3.46,3.5,1.5,3.75,4.0,5.25,6.75,4.75,6.25,5.25,5.0,5.0,5.0,5.5,-0.11,-0.05,0.95,863.5,2.6,-13.4,0.0,0.0,0.0,0.0,0.0,0.0,0.75,0.0,0.25,0.0,0.25,0.0,1.5,0.83,1.77,2.89,43.53,1.6,-78.4
3.48,3.5,1.75,3.75,4.75,5.5,7.0,5.0,6.25,5.5,5.0,5.25,4.25,5.25,-0.11,-0.05,0.95,906.1,2.9,-10.1,0.0,0.75,0.0,0.25,0.0,0.5,0.75,0.0,0.25,2.0,0.5,0.25,1.5,0.95,2.95,2.58,63.48,4.2,-43.2
3.5,3.75,1.25,3.75,5.25,6.5,7.5,5.5,6.25,5.5,4.75,5.0,3.25,4.25,-0.11,-0.05,0.95,932.86,3.1,-4.4,0.5,0.5,0.0,0.25,0.0,1.5,1.75,0.0,0.0,0.0,0.5,0.0,2.5,1.27,4.89,1.58,80.3,1.2,-20.7
3.52,4.0,1.75,4.0,5.25,7.25,7.5,5.75,6.25,5.5,4.5,4.5,3.25,4.0,-0.11,-0.05,0.95,967.77,3.5,-0.7,1.0,0.75,0.0,0.25,0.0,0.25,0.75,0.0,0.25,1.25,1.0,0.75,2.25,-0.42,7.14,-1.3,104.72,-2.7,-38.6
3.54,4.5,1.75,4.75,5.25,7.5,7.5,6.0,6.25,5.5,4.25,4.5,3.0,3.25,-0.11,-0.05,0.95,1000.13,4.4,3.1,0.0,0.0,1.0,0.0,1.25,0.0,1.25,0.5,0.0,0.0,1.5,0.25,1.5,-4.11,6.08,-0.8,112.86,-6.2,-24.8
3.56,5.0,2.0,5.0,5.75,7.5,8.0,6.5,6.25,5.25,4.25,4.0,2.25,3.0,-0.11,-0.05,0.95,1024.2,4.8,7.8,0.0,0.0,0.0,0.0,0.0,0.0,0.75,0.5,0.0,1.75,0.75,0.75,1.5,1.52,-2.48,2.64,115.21,5.4,-79.6
3.58,5.75,3.0,5.75,7.0,7.75,8.5,7.0,6.25,5.25,3.25,3.75,2.25,2.25,-0.11,-0.05,0.95,1076.89,6.3,15.4,0.0,0.0,0.0,0.0,0.0,0.0,0.75,0.5,0.0,2.75,1.5,2.5,4.0,0.02,0.64,-0.42,145.61,5.0,-90.2
3.6,6.25,2.25,5.75,7.5,9.0,8.5,7.5,6.25,5.25,3.0,3.75,2.0,2.25,-0.05,-0.05,1.02,1120.17,6.4,17.0,1.25,0.75,0.0,0.0,0.0,0.25,0.75,0.75,1.0,6.5,2.75,6.5,6.75,0.08,0.2,2.14,241.03,2.0,-75.3
3.62,7.0,3.5,7.0,8.75,10.5,9.25,8.0,6.25,5.25,3.0,3.75,2.0,2.25,-0.11,-0.05,1.02,1212.67,7.1,21.8,0.25,0.0,0.5,0.0,1.75,0.0,1.25,2.0,1.5,6.75,4.75,6.75,8.0,0.83,0.14,4.33,351.55,2.5,-74.0
3.64,8.5,3.5,7.75,10.5,11.5,9.25,8.25,6.25,5.0,2.75,3.0,2.0,2.25,-0.11,-0.05,1.02,1314.21,8.1,26.3,0.5,0.25,0.0,0.0,0.0,1.5,0.25,3.25,2.25,7.25,6.0,6.75,8.5,-0.11,0.14,1.45,488.09,4.0,-76.5
3.66,9.5,3.25,8.25,12.5,13.5,9.5,8.5,6.25,4.75,2.75,2.75,2.0,2.25,-0.05,0.02,1.02,1417.13,8.4,29.1,0.5,0.5,0.0,0.0,0.0,2.0,1.0,3.75,2.25,6.75,5.75,6.5,8.5,0.14,0.08,1.08,592.55,4.0,-72.1
3.68,11.5,4.0,9.5,11.0,14.5,9.25,8.25,6.25,4.25,2.75,2.75,2.0,2.25,-0.11,0.08,1.08,1513.29,9.2,31.9,0.0,0.75,0.0,0.0,0.0,1.75,1.25,3.75,2.0,6.75,5.25,6.25,8.5,0.2,0.08,0.95,641.75,4.5,-73.4
3.7,11.5,4.5,9.25,13.5,14.5,9.25,8.25,5.75,4.0,2.75,1.5,1.75,2.0,-0.23,0.08,1.27,1587.2,9.5,36.0,0.0,0.5,0.0,0.0,0.0,2.0,1.25,3.75,2.0,7.5,5.25,6.25,8.5,0.08,0.02,0.95,656.55,5.0,-74.0
3.72,16.0,4.25,11.0,12.5,14.5,8.0,8.75,5.25,3.25,2.25,2.75,1.75,2.25,-0.3,0.2,1.39,1651.77,11.9,38.7,0.0,0.75,0.0,0.0,0.0,2.25,1.25,3.75,2.25,7.25,5.5,6.5,8.5,0.2,0.02,0.89,661.28,4.6,-72.1
3.74,17.5,6.25,12.0,13.5,13.0,7.5,8.25,4.5,3.0,2.75,2.0,1.75,2.25,-0.23,0.27,1.52,1706.97,13.1,42.3,0.0,0.5,0.0,0.0,0.0,2.0,1.25,3.75,1.75,7.5,5.75,6.75,8.5,0.14,0.02,0.89,665.12,4.7,-74.7
3.76,14.5,4.75,11.0,11.0,12.0,6.5,8.25,4.25,2.25,2.75,2.5,1.75,2.0,-0.23,0.39,1.64,1671.8,12.8,39.2,0.0,0.75,0.0,0.0,0.0,2.5,1.25,3.75,2.0,7.75,6.0,6.75,8.5,0.08,0.02,0.95,668.92,4.7,-72.0
3.78,12.5,5.25,10.5,8.0,7.75,4.75,8.25,4.0,2.0,2.5,2.5,1.75,2.0,-0.61,0.58,2.45,1542.92,14.0,37.2,0.0,0.75,0.0,0.0,0.0,2.75,1.25,4.25,2.0,7.5,6.0,6.75,8.5,0.08,0.02,0.95,668.37,4.9,-70.9
3.8,12.0,3.5,9.25,6.75,7.5,3.5,7.75,2.5,1.5,2.5,2.25,1.25,2.25,-0.92,0.64,2.64,1351.59,14.8,37.5,0.0,0.75,1.5,0.0,3.25,2.75,1.5,4.25,2.25,7.5,6.0,6.75,8.5,0.14,0.02,0.95,683.41,3.1,-55.4
3.82,7.75,2.25,7.0,5.25,5.25,2.5,5.75,1.75,1.5,0.0,2.0,1.5,2.0,-1.11,0.39,2.33,1008.51,15.7,35.9,0.0,1.0,0.0,0.0,0.0,3.0,1.25,4.25,2.75,7.5,6.0,6.5,8.5,0.14,0.02,0.95,662.81,4.7,-68.3
3.84,4.25,0.0,4.75,3.75,3.5,1.5,2.5,1.75,1.5,0.5,1.75,1.75,2.0,-0.3,-0.11,2.02,652.93,13.0,17.5,2.0,1.75,1.5,1.25,3.5,4.5,2.5,5.75,3.0,7.75,6.5,7.75,8.5,0.14,0.02,0.95,721.47,1.2,-41.2
3.86,3.0,0.0,1.25,3.25,0.0,2.5,1.5,2.0,1.5,0.0,2.0,1.5,2.0,-0.67,0.58,3.02,366.82,8.4,-1.0,1.75,1.75,1.5,1.0,3.0,4.0,2.25,5.0,3.5,7.5,6.75,7.5,9.25,0.14,0.02,0.95,773.54,1.0,-44.8
3.88,2.0,0.0,3.0,3.75,3.5,2.5,2.25,2.0,1.25,0.0,2.0,0.75,2.0,-1.17,-1.05,3.7,246.36,8.1,14.2,1.75,2.0,2.25,0.0,3.5,3.25,2.25,5.0,2.75,6.75,6.75,6.25,9.25,0.08,0.02,0.89,809.5,0.7,-42.6
3.9,1.0,1.75,2.5,3.75,1.25,2.75,1.75,2.0,1.25,1.25,2.0,1.0,2.0,-0.61,-0.61,1.77,173.56,6.2,6.0,0.0,1.0,0.0,0.25,1.5,4.0,1.75,4.75,3.0,6.25,5.75,5.75,8.0,0.14,0.02,0.89,759.46,4.6,-57.4
3.92,2.0,1.25,1.75,3.25,1.25,1.25,1.5,2.0,1.0,1.25,2.25,1.25,2.0,-0.55,-0.36,1.02,141.07,7.7,0.8,0.0,1.0,0.0,0.25,2.5,5.0,2.25,5.0,3.5,6.25,5.0,4.5,7.0,0.08,0.02,0.89,699.28,5.1,-48.1
3.94,1.75,1.75,1.75,3.0,0.5,2.75,1.5,2.25,1.25,2.25,2.0,1.75,2.0,-0.48,-0.23,1.02,140.67,4.8,-4.1,1.25,1.5,0.75,2.0,3.75,6.25,3.0,5.0,3.5,4.75,4.0,2.5,6.0,0.14,0.02,0.95,633.54,2.6,-23.7
3.96,0.25,0.5,1.75,2.75,0.75,2.75,0.75,1.0,1.5,0.25,0.75,0.5,1.5,-0.23,-0.42,1.58,111.2,4.8,6.8,2.5,1.75,2.25,3.75,6.25,7.0,3.5,5.0,3.0,3.25,2.75,1.25,4.25,0.14,0.02,1.02,622.37,-0.4,1.3
3.98,0.0,0.25,1.5,1.75,1.25,1.0,0.5,2.25,0.75,1.5,1.25,2.0,2.0,0.02,0.45,0.02,99.12,1.5,-26.4,5.0,3.0,2.5,7.0,8.0,7.75,4.25,5.0,3.0,4.75,3.0,2.25,3.5,0.33,0.08,1.39,713.96,-3.0,10.7
4.0,1.25,0.5,0.5,2.75,0.0,2.75,0.5,1.0,1.5,2.5,0.75,1.0,2.25,0.33,-0.11,0.83,109.52,0.7,-14.4,5.75,2.75,3.75,7.25,9.0,7.0,3.25,5.0,1.25,2.5,2.0,0.5,3.25,0.2,0.02,1.45,784.23,-4.5,24.7
4.02,0.0,0.5,1.0,1.0,1.25,1.0,0.5,0.25,0.75,0.25,0.5,0.5,1.25,3.83,3.08,-1.23,99.63,4.3,0.1,7.75,4.0,5.25,0.0,10.5,7.0,1.25,5.0,0.0,0.25,2.75,1.75,3.25,0.2,0.08,1.77,816.4,-5.1,27.8
4.04,0.0,1.0,0.25,2.75,0.0,1.25,0.5,0.25,1.25,2.5,0.5,2.0,1.25,0.58,5.58,1.14,113.43,2.2,-23.3,7.75,2.0,6.25,6.75,10.5,6.25,1.25,3.75,0.0,1.5,2.75,0.75,2.25,0.2,0.08,2.27,834.65,-7.7,34.0
4.06,1.75,1.75,2.5,2.75,0.0,1.25,1.0,1.75,1.25,2.5,1.5,2.0,2.0,1.7,5.7,-0.8,171.81,7.8,-6.6,7.75,3.0,7.5,6.75,9.0,6.25,3.5,3.75,1.0,0.0,0.5,0.5,2.25,-4.73,4.08,4.08,841.04,-10.1,42.4
4.08,0.0,0.5,1.0,0.5,0.0,0.25,0.25,0.0,0.75,0.25,0.5,1.5,1.5,1.77,4.2,-1.67,160.13,8.0,-37.7,5.25,0.0,4.0,1.25,3.75,2.5,2.5,0.75,0.5,0.0,0.0,0.5,2.0,0.45,3.95,4.14,630.46,-13.2,37.3
4.1,0.5,0.0,1.0,0.5,0.0,0.75,0.25,0.0,0.75,0.5,1.0,1.0,1.25,1.52,2.2,-2.42,137.95,7.5,-30.5,0.75,0.0,0.0,0.0,0.0,0.5,1.25,0.0,0.25,0.0,0.25,0.25,1.5,-0.55,2.45,3.77,365.78,-4.8,-30.5
4.12,1.75,0.25,1.0,1.75,0.0,0.25,0.75,0.0,1.5,0.25,2.0,1.5,1.75,0.14,-0.36,-3.8,123.54,13.1,-17.1,0.0,0.0,0.0,0.0,0.0,0.5,1.0,0.5,0.25,0.0,0.5,0.25,1.5,0.77,4.08,6.64,189.56,3.6,-58.6
4.14,6.25,0.0,3.75,4.25,0.0,1.75,2.75,0.0,1.5,2.25,1.0,2.0,1.25,-0.23,-2.92,-2.86,194.63,17.0,19.8,0.0,0.0,0.0,0.0,0.0,0.5,1.0,0.5,0.25,0.75,0.5,0.0,1.5,-0.17,-0.36,3.64,46.51,6.3,-58.6
4.16,9.5,0.75,7.75,7.0,0.5,1.25,6.25,2.0,3.25,2.5,1.25,1.25,1.25,3.7,2.83,7.14,324.9,19.2,30.3,0.0,0.0,0.0,0.0,0.0,0.5,0.75,0.25,0.25,0.5,0.5,0.25,1.5,-0.05,1.83,1.89,0.0,5.3,-64.4
4.18,14.0,3.75,9.5,8.5,5.25,3.5,9.0,3.5,5.25,3.0,3.25,2.75,2.25,2.64,-0.3,4.02,662.9,15.3,28.5,0.0,0.0,0.0,0.0,0.0,0.5,0.75,0.25,0.25,0.25,0.5,0.25,1.5,0.58,1.39,0.58,0.0,4.6,-63.7
4.2,16.5,6.5,12.0,8.75,7.5,4.0,9.5,4.25,5.25,2.75,2.5,2.0,3.75,-2.67,-2.11,3.95,1115.96,15.1,34.2,0.0,0.0,0.0,0.0,0.0,0.25,0.75,0.25,0.25,0.0,0.5,0.25,1.5,1.08,1.02,0.77,0.0,2.5,-69.7
4.22,17.5,6.0,12.0,8.75,7.5,2.75,10.0,4.0,4.75,2.5,2.5,2.0,2.25,1.14,0.14,2.39,1429.93,16.7,38.4,0.0,0.25,0.0,0.0,0.0,0.25,0.75,0.25,0.25,0.0,0.5,0.25,1.25,1.33,0.52,1.08,0.0,0.5,-53.7
4.24,18.0,8.0,12.5,8.5,7.5,2.75,10.5,2.25,4.0,2.5,2.5,1.75,2.0,0.89,-0.05,1.7,1586.59,17.9,43.8,0.0,0.0,0.0,0.0,0.0,0.25,0.75,0.5,0.25,0.0,0.5,0.0,1.5,0.95,0.2,1.7,0.0,4.4,-64.4
4.26,16.5,8.0,12.5,8.5,5.75,1.75,10.0,2.25,2.75,2.5,2.0,1.75,2.25,-0.23,1.27,2.33,1615.56,18.6,44.4,0.0,0.5,0.0,0.0,0.0,0.25,0.75,0.5,0.25,0.0,0.5,0.25,1.5,0.95,-0.98,2.52,0.0,1.5,-46.8
4.28,12.5,6.25,11.0,7.0,2.5,1.0,8.75,0.5,1.5,2.0,0.75,1.75,1.25,0.2,3.2,2.02,1468.65,21.6,49.1,0.0,0.0,0.0,0.0,0.0,0.25,0.75,0.25,0.25,0.0,0.5,0.0,1.5,1.08,-3.42,3.89,0.0,3.4,-66.5
4.3,7.0,3.0,8.25,3.0,0.0,0.0,7.0,0.0,0.75,0.0,0.5,1.75,1.0,1.39,6.89,1.89,1116.15,26.9,47.8,0.0,0.0,0.5,0.0,0.0,0.25,0.5,0.0,0.25,0.0,0.0,0.0,1.5,0.33,-4.98,5.33,0.0,-1.4,-47.9
4.32,2.75,0.0,5.5,0.25,0.0,0.75,3.5,0.0,0.75,0.0,0.0,0.0,1.0,-0.05,3.64,0.89,676.54,27.2,42.7,0.0,0.25,0.0,0.0,0.0,0.25,0.75,0.5,0.25,0.0,0.5,0.0,1.5,-0.86,-4.48,5.08,33.91,3.2,-52.8
4.34,1.75,0.25,2.25,0.75,0.0,1.0,2.75,0.0,0.75,0.0,0.0,0.0,0.75,-1.61,5.83,3.7,345.5,20.7,37.3,0.0,0.25,0.0,0.0,0.0,0.0,0.5,0.0,0.25,0.0,0.0,0.25,1.75,-0.11,-2.86,3.58,48.98,3.0,-72.5
4.36,1.25,0.25,1.25,1.0,0.0,1.5,2.5,0.0,0.75,0.0,0.0,0.0,0.5,-0.55,0.89,4.14,164.83,15.7,36.0,0.0,0.5,0.0,0.0,0.0,0.25,0.75,0.25,0.25,0.0,0.5,0.0,1.5,1.95,-0.98,2.95,50.66,1.2,-43.0
4.38,0.75,0.5,1.25,1.0,0.0,0.5,2.25,0.0,0.75,0.0,0.0,0.0,0.5,0.27,1.45,2.7,20.55,19.5,34.5,0.0,0.25,0.0,0.0,0.0,0.25,0.25,0.0,0.0,0.0,0.5,0.0,1.25,3.08,0.33,1.52,45.99,4.4,-59.1
4.4,0.25,0.5,1.0,1.0,0.0,1.0,1.5,0.0,0.5,0.0,0.0,0.25,0.5,-0.73,1.39,1.02,0.0,13.0,25.4,0.0,0.0,0.0,0.0,0.0,0.5,0.75,0.0,0.0,0.0,0.5,0.0,1.5,5.89,7.95,-7.98,46.18,5.2,-63.0
4.42,0.0,0.5,1.0,0.75,0.0,0.75,1.5,0.0,0.75,0.0,0.25,0.0,0.5,-1.23,1.14,1.02,0.0,13.5,18.9,0.0,0.25,0.0,0.0,0.0,0.25,0.75,0.25,0.0,0.0,0.5,0.0,1.5,6.58,2.52,-7.98,45.77,3.3,-55.0
4.44,0.75,1.75,0.75,2.75,0.0,1.0,1.5,0.0,0.75,0.0,0.0,0.0,0.5,-1.61,1.2,2.27,0.0,14.3,47.1,0.0,0.25,0.0,0.0,0.0,0.0,0.75,0.5,0.0,0.0,0.5,0.25,1.5,6.27,4.58,-4.86,49.75,2.1,-64.1
4.46,0.0,0.5,0.25,0.75,0.0,0.25,1.5,0.0,0.75,0.0,0.25,0.0,0.75,-2.92,0.64,2.7,0.0,11.4,1.9,0.0,0.75,0.0,0.0,0.0,0.0,0.75,0.0,0.25,0.0,0.5,0.5,1.25,4.2,5.2,-0.36,52.95,-4.5,-42.6
4.48,0.0,0.5,1.0,0.75,0.5,0.25,1.75,0.0,0.75,0.0,0.0,0.25,0.75,-5.42,-1.11,3.39,0.0,13.9,14.0,2.0,1.25,1.0,0.0,0.25,1.25,1.25,0.5,0.25,1.5,1.75,1.0,2.5,-0.67,-2.17,7.95,106.64,-5.4,-15.7
4.5,0.0,0.5,1.0,0.75,0.5,1.0,1.75,0.0,0.75,0.0,0.0,0.5,0.5,-5.55,-2.8,4.39,0.0,10.7,16.4,1.25,1.25,2.25,0.0,1.5,1.5,1.25,0.5,0.25,1.5,1.5,1.0,2.25,-4.98,-7.3,4.77,161.47,-5.8,-4.8
4.52,0.0,0.5,1.0,1.5,0.0,1.5,1.75,0.0,1.0,0.5,0.25,1.5,0.5,-4.11,-3.48,4.08,40.28,8.8,-4.2,1.5,0.75,1.5,0.0,1.5,1.5,1.25,0.5,0.25,1.5,1.5,0.5,2.25,-5.42,-1.98,-2.86,201.24,-4.1,-6.8
4.54,0.0,0.5,1.75,0.75,0.5,0.25,2.25,0.5,0.75,0.0,1.0,0.0,2.0,-3.98,-3.42,3.14,93.62,10.7,-7.8,1.25,1.0,0.5,0.0,1.5,2.0,1.0,0.5,0.25,1.25,1.75,0.5,2.25,-0.42,-0.17,-3.48,217.22,-0.4,-10.6
4.56,0.0,0.5,0.5,0.5,0.0,1.0,1.5,0.0,0.75,1.25,0.5,1.0,0.5,-2.98,-2.61,2.83,116.28,4.6,-22.3,1.5,0.75,1.25,0.0,1.5,2.25,0.75,0.5,0.5,0.25,0.5,0.75,2.25,1.08,-0.92,-0.48,218.45,-3.1,2.9
4.58,0.75,1.25,1.0,2.75,1.25,1.25,2.25,0.5,0.75,0.5,1.0,2.0,2.0,-2.8,-1.67,1.7,163.03,7.6,-1.8,1.5,1.25,0.5,0.25,1.75,2.0,0.75,0.5,0.25,1.75,0.75,0.75,2.25,1.02,-1.11,-0.17,218.89,0.0,-4.1
4.6,0.75,1.25,1.75,2.5,0.5,1.25,2.25,0.25,1.25,2.0,1.25,2.0,2.25,7.95,7.95,-7.98,204.24,7.6,-11.7,1.25,1.5,0.25,0.25,1.75,1.5,1.0,0.5,0.5,1.5,1.75,1.25,2.5,0.89,0.27,-0.67,222.94,-1.2,-15.2
4.62,0.25,1.75,2.25,2.25,0.75,1.25,2.0,0.0,1.25,0.75,0.5,1.0,1.5,7.95,1.52,-5.48,229.56,10.6,11.7,1.25,1.5,0.5,0.25,1.75,1.5,0.75,0.5,0.25,1.75,1.75,0.5,2.5,1.14,1.95,-1.86,227.85,-0.8,-10.0
4.64,0.0,0.5,2.25,0.25,0.75,0.25,1.75,0.5,0.75,0.0,1.75,1.25,1.75,7.95,-3.23,-2.11,221.09,11.2,-20.4,1.25,1.5,0.5,0.25,1.5,1.75,0.75,0.5,0.25,1.5,1.75,0.5,2.25,1.83,1.95,-2.42,226.03,-1.0,-7.5
4.66,0.0,0.5,1.0,0.25,0.5,0.25,1.25,0.0,0.75,0.75,0.5,1.5,1.25,3.27,-2.42,-0.17,191.69,7.6,-30.4,1.25,1.5,0.5,0.25,1.25,1.5,0.75,0.5,0.25,1.5,1.75,0.75,2.25,0.64,1.77,-1.05,219.4,-1.6,-11.4
4.68,1.0,0.75,0.25,2.75,0.0,2.25,1.75,0.0,1.0,2.25,0.5,1.75,1.25,0.89,-2.05,-1.3,186.92,4.1,-9.0,0.5,1.5,0.5,0.25,0.5,1.5,0.75,0.5,0.25,1.75,2.0,0.75,2.5,-0.23,1.39,-0.17,206.05,0.2,-26.1
4.7,0.0,0.0,1.5,0.25,0.0,1.0,1.5,0.0,0.75,0.25,0.5,0.5,1.25,0.64,-0.67,-1.73,158.58,9.2,-17.6,0.25,1.25,0.25,0.25,1.25,1.5,0.75,0.5,0.25,1.5,2.0,1.0,2.25,0.08,0.39,0.2,191.95,1.3,-26.2
4.72,0.0,0.25,1.0,0.25,0.75,0.75,1.5,0.0,0.75,0.0,0.0,0.25,1.0,1.77,0.45,-0.98,135.28,8.2,4.2,0.5,1.25,0.25,0.25,1.25,1.5,0.75,0.5,0.25,1.5,1.75,0.5,2.25,0.58,0.08,0.02,176.91,1.3,-19.5
4.74,0.0,0.25,0.5,0.25,0.0,0.25,0.5,0.0,0.5,0.0,0.5,0.5,1.25,1.45,0.83,-1.17,97.72,6.5,-38.6,0.5,1.5,0.5,0.25,0.25,1.5,0.75,0.5,0.25,1.5,1.75,0.75,2.25,0.77,0.08,-0.48,169.95,-0.2,-24.2
4.76,0.0,0.25,1.0,0.25,0.5,1.0,1.5,0.0,0.5,0.25,0.0,0.25,1.0,1.33,0.89,-1.05,79.76,6.3,1.3,0.5,1.5,0.0,0.25,1.5,0.75,0.75,0.5,0.25,1.5,1.75,0.75,2.25,0.64,0.27,-0.8,167.66,0.4,-21.9
4.78,0.0,0.25,0.5,0.25,0.75,1.0,1.5,0.0,0.75,0.25,0.0,0.5,1.0,1.02,1.27,-0.48,66.87,3.5,-7.3,0.5,1.5,0.75,0.0,0.25,0.75,0.75,0.5,0.25,1.5,1.5,0.25,2.25,0.27,0.33,-0.92,158.55,-1.6,-22.8
4.8,0.0,0.25,0.25,0.5,0.5,0.5,1.0,0.0,0.5,0.0,0.0,0.25,1.0,1.39,1.83,-0.36,58.01,4.3,-6.3,0.25,1.5,0.25,0.25,0.0,1.0,0.75,0.5,0.25,1.5,1.75,0.5,2.25,0.02,0.14,-0.86,150.63,0.5,-31.8
4.82,0.0,0.25,0.0,0.5,0.0,0.5,1.0,0.0,0.5,0.25,0.5,0.25,0.5,1.33,2.14,-0.61,43.11,5.2,-19.6,0.25,1.5,0.5,0.25,0.5,1.25,0.75,0.5,0.25,1.5,1.75,0.5,2.25,0.02,0.02,-0.73,147.45,0.2,-24.1
4.84,0.0,0.5,0.75,0.5,0.0,0.5,1.0,0.0,0.25,0.25,0.0,0.25,0.5,0.58,2.02,-0.48,39.4,10.9,11.2,0.5,1.5,0.5,0.25,0.25,0.75,0.75,0.5,0.25,1.5,1.75,1.0,2.25,0.14,0.14,-0.73,148.92,-1.8,-29.7
4.86,0.0,0.5,0.75,0.5,0.0,0.25,1.0,0.0,0.25,0.5,0.0,0.25,0.75,-0.11,1.52,0.14,43.14,9.7,-2.2,0.0,1.25,0.5,0.25,0.5,1.0,0.75,0.5,0.0,1.5,1.75,0.5,2.25,0.27,0.2,-0.86,148.35,1.1,-30.8
4.88,0.0,0.5,0.0,0.5,0.0,0.5,1.25,0.25,0.25,0.25,0.0,1.0,1.0,-0.3,0.95,0.39,51.08,2.8,-30.0,0.0,1.5,0.0,0.25,0.25,1.25,1.0,0.5,0.25,2.0,1.75,0.5,2.25,0.39,0.39,-1.23,150.85,3.1,-34.4
4.9,0.0,0.5,0.0,0.5,0.0,0.5,1.0,0.0,0.25,0.5,0.0,0.25,0.5,-0.3,0.58,0.58,50.96,3.0,-5.8,0.5,1.5,0.0,0.25,0.25,1.25,0.75,0.5,0.25,1.5,2.0,0.5,2.25,0.45,0.39,-1.23,152.04,1.0,-28.6
4.92,0.0,0.5,0.25,0.5,0.5,0.75,1.0,0.0,0.25,0.0,0.0,0.25,0.5,-0.3,0.08,0.7,52.16,5.1,17.6,0.25,1.25,0.0,0.25,0.0,1.25,0.75,0.5,0.25,1.5,1.75,0.5,2.25,0.45,0.33,-0.98,150.12,2.4,-36.0
4.94,0.0,0.25,0.0,0.5,0.0,0.75,1.0,0.0,0.25,0.0,0.0,0.25,0.75,-0.23,-0.17,0.64,53.81,1.9,-8.8,0.0,1.25,0.0,0.25,0.5,1.5,0.75,0.5,0.0,1.5,1.75,0.5,2.25,0.27,0.14,-0.73,148.77,4.1,-32.4
4.96,0.0,0.25,0.25,0.5,0.5,0.5,1.0,0.0,0.25,0.0,0.0,0.25,0.25,-0.23,-0.42,0.58,52.42,8.0,20.0,0.25,1.25,0.0,0.25,0.0,1.5,0.75,0.5,0.25,1.5,1.5,0.5,2.25,0.2,0.08,-0.67,146.77,3.2,-33.4
4.98,0.0,0.25,0.25,0.5,0.5,0.5,1.0,0.0,0.25,0.25,0.0,0.25,0.75,-0.17,-0.67,0.45,53.92,3.8,-2.1,0.0,1.0,0.0,0.25,2.25,1.5,0.75,0.5,0.25,1.5,1.75,0.5,2.25,0.39,0.14,-0.8,155.88,4.0,-21.2
5.0,0.0,0.25,0.0,0.5,0.0,1.0,1.0,0.0,0.25,0.25,0.0,0.0,0.5,-0.17,-0.8,0.33,51.89,-0.5,5.0,0.0,1.25,0.0,0.25,0.25,1.25,0.5,0.5,0.25,1.5,1.5,0.5,2.25,0.58,0.27,-0.98,153.12,4.0,-36.4
5.02,0.0,0.25,0.0,0.5,0.5,0.25,0.5,0.0,0.25,0.25,0.0,0.25,0.75,-0.11,-0.92,0.27,51.64,1.0,-11.6,0.0,1.25,0.25,0.25,0.0,1.5,0.75,0.5,0.25,1.5,2.0,0.5,2.25,0.64,0.27,-0.92,155.77,2.4,-36.0
5.04,0.0,0.25,0.0,0.5,0.0,0.5,0.75,0.0,0.25,0.0,0.0,0.25,1.0,-0.17,-0.98,0.14,49.97,1.3,-21.7,0.25,1.25,0.0,0.25,0.0,1.25,0.75,0.5,0.25,1.5,1.5,0.5,2.25,0.52,0.14,-0.86,149.59,2.7,-35.1
5.06,0.0,0.5,0.25,0.5,0.0,0.25,1.0,0.0,0.25,0.0,0.0,0.25,0.5,-0.23,-1.05,0.08,48.22,11.1,8.2,0.0,1.25,0.0,0.25,0.25,1.5,0.5,0.5,0.25,1.5,1.5,0.5,2.25,0.39,0.08,-0.8,147.0,4.5,-34.7
5.08,0.0,0.25,0.0,0.5,0.0,0.5,1.0,0.0,0.25,0.0,0.0,0.25,0.5,-0.3,-1.11,-0.05,44.0,5.5,-3.0,0.5,1.5,0.5,0.25,0.5,1.25,0.5,0.5,0.25,1.5,1.5,0.75,2.25,0.45,0.14,-0.8,150.64,0.0,-22.9
5.1,0.0,0.25,0.25,0.5,0.0,0.25,1.0,0.0,0.0,0.25,0.0,0.25,0.5,-0.23,-1.05,-0.11,42.29,8.4,-3.6,0.0,1.25,0.0,0.25,0.0,1.25,0.5,0.5,0.25,1.5,1.75,0.5,2.25,0.33,0.27,-0.92,150.03,3.7,-40.0
5.12,0.0,0.5,0.0,0.5,0.0,0.25,1.25,0.0,0.25,0.25,0.0,0.25,0.75,-0.05,-0.92,-0.11,44.31,5.9,-10.2,0.0,1.5,0.0,0.25,0.5,1.25,0.5,0.5,0.25,1.5,1.5,0.5,2.25,0.52,-0.17,-0.61,150.0,3.6,-30.5
5.14,0.0,0.25,0.25,0.5,0.0,0.5,1.0,0.0,0.25,0.25,0.0,0.25,0.75,0.14,-0.8,-0.11,48.1,5.0,-11.3,0.0,1.5,0.0,0.5,0.0,1.25,0.5,0.25,0.25,1.5,1.5,0.5,0.5,-0.55,0.14,-0.61,137.8,0.3,-15.4
5.16,0.0,0.25,0.25,0.5,0.0,0.5,0.75,0.0,0.25,0.0,0.0,0.25,1.0,0.39,-0.61,-0.05,50.2,4.1,-15.4,0.0,1.0,0.0,0.25,0.25,1.5,0.5,0.25,0.25,1.5,1.5,0.5,1.0,0.64,0.95,-1.3,128.44,3.2,-27.0
5.18,0.0,0.5,0.0,0.5,0.0,0.25,1.0,0.0,0.0,0.25,0.0,0.25,0.25,0.58,-0.42,0.02,48.05,8.1,11.1,0.25,1.0,0.0,0.25,0.5,1.5,0.25,0.25,0.25,1.5,1.5,0.5,1.0,0.89,-0.11,-0.55,120.6,2.7,-21.7
5.2,0.0,0.5,0.0,0.5,0.0,0.75,1.0,0.0,0.0,0.0,0.0,0.25,0.5,0.89,-0.11,0.08,47.09,3.3,11.6,0.5,1.0,0.0,0.25,0.25,1.5,0.5,0.0,0.25,1.5,1.5,0.5,1.0,1.2,-0.23,-0.73,118.01,0.7,-19.7
5.22,0.0,0.5,0.0,0.5,0.0,0.75,1.0,0.0,0.0,0.25,0.0,0.25,0.5,1.08,0.2,0.33,47.19,1.8,4.9,0.25,1.0,0.0,0.25,0.0,1.5,0.25,0.0,0.25,1.5,1.75,0.5,1.0,0.64,-0.05,-0.8,114.5,1.8,-28.2
5.24,0.0,0.5,0.0,0.5,0.0,0.5,0.75,0.0,0.0,0.25,0.0,0.25,0.5,1.14,0.52,0.45,47.63,2.6,1.5,0.0,0.75,0.0,0.25,0.5,1.5,0.5,0.0,0.25,1.25,0.75,0.5,1.25,0.2,0.02,-0.8,110.75,4.7,-24.3
5.26,0.0,0.25,0.0,0.75,0.0,0.5,0.5,0.0,0.0,0.0,0.0,0.25,0.5,2.77,3.7,-1.8,45.37,3.5,3.8,0.5,0.75,0.0,0.25,0.0,1.5,0.25,0.25,0.0,1.5,1.5,0.5,0.75,0.2,0.02,-0.86,106.37,2.1,-24.3
5.28,0.25,0.5,0.0,0.75,0.5,0.25,0.5,0.0,0.0,0.0,0.0,0.25,1.0,3.2,4.02,-2.11,50.59,4.3,6.3,0.0,0.25,0.0,0.25,0.0,1.5,0.25,0.25,0.25,1.5,1.5,0.5,1.0,0.7,0.02,-1.05,102.76,5.6,-45.1
5.3,0.5,0.5,0.5,1.0,0.0,0.25,1.0,0.0,0.0,0.25,0.0,0.25,0.5,3.14,4.08,-2.55,58.01,14.4,25.0,0.0,0.5,0.0,0.25,0.0,1.75,0.25,0.25,0.0,1.25,1.5,0.5,1.0,0.7,0.14,-0.98,100.37,5.8,-36.3
5.32,0.0,0.5,1.0,0.75,0.0,0.25,1.0,0.0,0.25,0.0,0.0,0.25,0.5,2.7,1.95,0.2,64.32,16.6,21.4,0.0,0.5,0.0,0.0,0.25,2.0,0.25,0.25,0.0,1.5,1.5,0.5,1.0,0.52,0.33,-0.8,101.72,7.3,-35.2
5.34,0.0,0.5,1.0,1.0,0.5,0.25,1.25,0.0,0.0,0.0,0.25,0.25,0.25,1.2,0.52,-0.23,72.31,16.2,32.8,0.0,0.75,0.0,0.25,0.25,2.0,0.25,0.25,0.25,1.5,1.5,0.5,1.0,0.2,0.45,-0.86,108.25,5.3,-28.2
5.36,0.0,0.25,0.0,0.5,0.0,0.25,1.0,0.0,0.0,0.0,0.0,0.25,0.25,0.14,-0.23,-0.17,61.87,10.5,10.7,0.0,0.75,0.0,0.25,0.0,1.25,0.25,0.25,0.25,1.5,1.5,0.75,1.25,0.2,0.27,-0.8,112.76,3.7,-42.2
5.38,0.0,0.0,0.0,0.5,0.5,0.25,1.25,0.0,0.0,0.0,0.0,0.25,0.5,-0.23,-0.92,-0.17,54.6,6.0,0.7,0.0,0.75,0.0,0.25,0.25,1.5,0.25,0.25,0.0,1.75,1.5,0.5,1.0,0.39,0.14,-0.8,116.22,5.2,-33.2
5.4,0.75,0.25,0.75,0.75,0.75,0.25,1.5,0.0,0.0,0.0,0.5,0.25,0.5,0.33,-1.86,0.95,62.91,15.4,25.1,0.5,0.75,0.0,0.25,0.0,1.5,0.25,0.25,0.0,1.5,1.5,0.5,1.25,0.64,0.08,-0.8,117.06,2.8,-29.8
5.42,0.25,0.75,1.0,2.75,0.75,1.25,1.5,0.75,0.75,0.25,1.25,1.75,1.0,0.27,-1.3,-0.42,114.25,8.0,-2.7,0.0,0.75,0.5,0.25,0.0,1.5,0.5,0.25,0.0,1.5,1.5,0.5,1.0,0.77,0.08,-0.86,116.67,1.5,-28.0
5.44,0.25,1.25,0.25,2.75,0.75,1.75,2.0,1.25,0.75,2.0,1.0,2.0,2.0,1.08,0.14,-0.55,173.78,1.7,-16.5,0.0,0.75,0.0,0.25,0.0,1.5,0.5,0.25,0.0,1.5,1.5,0.75,1.0,0.7,0.14,-0.86,116.43,3.9,-36.6
5.46,0.5,1.25,0.25,2.75,1.25,2.5,1.5,1.0,0.75,1.25,1.0,2.0,2.25,1.83,1.58,-0.67,224.27,1.4,-9.8,0.0,0.75,0.0,0.5,0.25,1.5,0.25,0.25,0.0,1.5,1.5,0.5,1.25,0.52,0.08,-0.8,118.05,4.4,-31.4
5.48,0.75,1.0,1.5,2.75,1.25,2.5,1.0,1.0,0.75,1.25,0.75,2.0,2.25,1.33,1.58,-0.86,257.23,3.7,-4.7,0.5,1.0,0.0,0.25,0.0,1.25,0.5,0.25,0.25,1.5,1.5,0.25,1.25,0.39,0.02,-0.86,119.47,1.2,-24.6
5.5,0.75,1.25,1.25,2.75,2.25,2.5,1.25,1.25,0.75,1.25,1.25,2.0,2.25,1.02,0.89,-0.48,280.94,3.1,-2.8,0.5,1.25,0.0,0.0,0.0,0.5,0.5,0.25,0.25,1.25,1.5,0.5,1.25,0.33,0.2,-0.86,116.86,-1.5,-29.9
5.52,1.0,1.5,1.0,2.75,1.75,2.5,1.25,1.25,0.75,1.25,1.0,2.0,2.0,0.64,0.33,-0.36,290.87,3.4,-0.4,0.25,1.25,0.0,0.25,0.0,0.5,0.5,0.25,0.25,1.5,1.5,0.5,1.0,0.08,0.39,-0.73,114.23,-0.9,-29.6
5.54,1.0,1.5,1.0,2.75,1.75,2.5,1.25,1.0,0.5,1.25,0.75,2.0,2.0,0.45,0.02,-0.3,294.35,3.5,1.4,0.25,1.5,0.0,0.25,0.0,0.5,0.5,0.25,0.0,1.5,1.5,1.0,1.0,0.08,0.45,-0.8,113.89,-1.4,-30.2
5.56,1.0,1.5,0.75,2.75,1.25,2.5,1.0,1.5,0.5,1.25,1.0,1.5,2.25,0.58,-0.05,-0.17,291.81,2.2,-1.8,0.25,1.5,0.0,0.25,0.0,0.75,0.5,0.25,0.0,1.75,1.5,0.75,1.0,0.27,0.45,-0.86,114.98,0.0,-27.3
5.58,0.0,0.75,0.0,0.25,0.0,1.5,0.5,0.0,0.0,0.0,0.0,1.75,1.25,0.89,0.14,-0.11,237.95,-2.1,-32.5,0.5,1.25,0.0,0.25,0.0,0.5,0.5,0.25,0.25,1.5,1.5,0.75,1.25,0.52,0.52,-1.17,117.28,-1.7,-30.9
5.6,0.75,0.5,0.0,0.25,0.0,1.25,0.0,0.0,0.0,0.0,0.0,1.75,1.75,0.7,0.39,-0.11,182.25,-0.1,-34.5,0.0,1.5,0.0,0.25,0.0,0.5,0.75,0.25,0.0,1.25,1.75,1.0,1.0,0.64,0.64,-1.3,118.21,-1.7,-33.0
5.62,1.0,0.5,0.0,0.25,0.0,1.75,0.0,0.0,0.0,0.0,0.0,1.75,2.0,0.14,0.58,-0.3,126.81,-0.9,-28.4,0.25,1.0,0.0,0.25,0.0,1.0,0.75,0.0,0.0,1.75,1.75,1.0,1.0,0.7,0.77,-1.48,120.6,-0.1,-36.1
5.64,1.75,0.5,0.0,0.25,0.0,1.5,0.0,0.0,0.0,0.0,0.0,2.0,2.0,-0.61,0.83,-0.23,97.86,3.2,-21.6,0.0,0.75,0.0,0.0,0.0,0.75,0.75,0.0,0.0,1.5,1.75,1.0,1.0,0.77,0.64,-1.55,117.21,0.7,-50.0
5.66,2.5,1.5,0.0,0.5,0.75,2.5,0.0,0.0,0.0,0.25,0.0,2.25,1.75,-1.17,0.83,-0.55,104.2,3.7,6.4,0.5,0.5,0.25,0.0,0.0,1.25,0.75,0.0,0.0,1.5,2.0,1.5,1.0,0.95,0.64,-1.23,122.18,-1.5,-42.8
5.68,1.75,1.75,0.0,0.5,0.0,2.5,0.0,0.0,0.0,0.25,0.75,2.25,2.25,-1.17,0.95,-0.61,123.63,2.2,-10.5,0.25,0.5,0.0,0.0,0.0,1.0,0.75,0.0,0.0,1.5,1.75,0.75,1.0,0.64,0.89,-1.17,117.9,1.1,-45.6
5.7,1.75,1.75,0.0,0.0,0.75,2.5,0.0,0.0,0.0,0.5,0.25,2.5,2.0,-0.73,0.95,-0.67,141.58,0.9,-7.5,0.0,0.75,0.0,0.25,0.0,1.25,0.75,0.25,0.25,0.75,1.75,1.0,1.0,-0.11,1.39,-1.17,117.04,0.1,-37.7
5.72,1.75,1.75,0.0,0.25,0.0,2.5,0.0,0.0,0.0,0.5,0.75,3.0,2.25,-0.42,1.02,-0.61,150.96,2.0,-19.1,0.5,0.75,0.0,0.0,0.5,1.0,0.75,0.25,0.25,1.5,1.75,0.25,1.0,-0.67,1.83,-1.23,115.76,0.5,-25.4
5.74,2.0,2.0,0.0,0.25,0.5,2.5,0.0,0.0,0.0,0.25,0.5,3.0,2.0,-0.05,1.08,-0.55,162.38,3.0,-7.4,0.0,0.0,0.0,0.0,0.0,0.0,0.0,0.0,0.0,0.0,2.25,0.25,1.0,-0.05,2.08,-1.36,97.65,-3.3,-88.2
5.76,2.75,1.75,0.0,0.25,0.5,2.75,0.0,0.0,0.0,0.0,0.5,3.0,2.25,0.08,0.95,-0.3,175.87,4.1,-3.9,0.0,0.0,0.0,0.0,0.0,0.0,0.25,0.0,0.0,0.0,0.5,0.5,0.25,0.08,1.39,-0.55,66.71,-7.3,-85.5
5.78,3.25,2.0,0.0,0.0,0.5,2.5,0.0,0.0,0.0,0.0,0.25,2.75,2.0,-0.05,1.14,-0.42,187.64,5.7,5.1,0.0,0.0,0.0,0.0,0.0,0.0,0.0,0.0,0.0,0.0,0.5,0.25,0.25,0.27,1.14,-0.73,35.36,-3.9,-93.0
5.8,3.5,2.0,0.0,0.25,0.0,2.5,0.0,0.0,0.0,0.0,1.25,2.5,2.25,-0.17,1.39,-0.55,201.69,6.7,0.0,0.0,0.0,0.0,0.0,0.0,0.0,0.25,0.0,0.0,0.0,0.5,0.25,0.25,0.14,1.08,-0.61,13.79,-7.0,-80.0
5.82,3.75,2.0,0.0,0.5,0.0,2.5,0.0,0.0,0.0,0.0,0.5,2.0,2.25,-0.23,1.08,-0.36,210.8,7.1,11.1,0.0,0.0,0.0,0.0,0.0,0.0,0.25,0.0,0.0,0.0,0.5,0.75,0.25,0.08,0.95,-0.23,5.1,-7.6,-89.3
5.84,3.75,2.0,0.0,0.5,0.0,2.5,0.0,0.25,0.0,0.5,0.0,2.0,2.0,-0.36,1.02,-0.61,209.26,6.1,12.5,0.0,0.0,0.0,0.0,0.0,0.25,0.5,0.0,0.25,0.25,0.5,0.25,0.25,0.14,0.7,-0.17,6.32,-2.7,-53.9
5.86,3.5,2.5,0.0,1.0,0.5,2.5,0.0,0.0,0.0,0.25,0.5,3.25,2.0,-0.17,0.95,-0.36,216.36,6.9,6.9,0.0,0.25,0.0,0.25,0.0,0.5,0.25,0.0,0.25,1.25,0.75,0.75,0.25,0.27,0.52,0.14,23.35,1.1,-48.1
5.88,3.25,2.0,0.0,0.5,0.0,1.75,0.0,0.0,0.0,0.0,0.5,1.75,2.0,-0.17,1.39,-0.3,204.98,8.2,11.5,0.0,0.0,0.0,0.0,0.0,0.0,1.0,0.0,0.0,0.0,0.25,0.25,0.25,0.33,0.33,0.39,21.08,-13.7,-49.5
5.9,3.5,2.0,0.0,0.25,2.25,1.5,0.0,0.0,0.0,0.0,0.0,1.75,1.75,-0.36,1.52,0.14,201.81,7.1,25.6,0.0,0.0,0.0,0.0,0.0,0.0,0.25,0.0,0.0,0.0,0.25,0.25,0.25,0.39,0.33,0.64,16.41,-5.9,-81.3
5.92,3.0,1.75,0.0,0.25,0.0,1.25,0.0,0.0,0.0,0.0,0.0,1.75,2.0,-0.42,1.33,0.2,181.71,8.6,9.2,0.0,0.25,0.0,0.0,0.0,0.0,0.0,0.0,0.0,0.0,0.25,0.25,0.25,0.33,0.27,0.89,9.76,-4.5,-48.0
5.94,1.5,0.5,0.0,0.25,0.5,2.0,0.0,0.0,0.0,0.0,0.0,1.25,1.25,-0.55,1.39,0.27,153.96,1.1,2.8,0.0,0.0,0.0,0.0,0.0,0.0,0.25,0.0,0.0,0.0,0.25,0.25,0.25,0.2,0.33,0.95,6.74,-5.9,-81.3
5.96,0.0,0.5,0.0,0.5,0.0,1.25,0.0,0.0,0.0,0.0,0.0,1.0,1.25,-0.55,2.08,0.14,110.37,-4.5,-28.6,0.0,0.0,0.0,0.0,0.0,0.0,0.25,0.0,0.0,0.0,0.25,0.25,0.25,-0.05,0.33,0.89,6.69,-5.9,-81.3
5.98,0.0,0.5,0.0,0.5,0.0,1.25,0.0,0.0,0.0,0.0,0.0,1.0,1.0,-0.61,2.27,0.27,76.1,-3.9,-23.7,0.0,0.0,0.0,0.0,0.0,0.0,0.25,0.0,0.0,0.0,0.25,0.25,0.25,0.02,0.33,0.83,11.88,-5.9,-81.3
6.0,0.0,0.25,0.0,0.5,0.5,1.5,0.0,0.25,0.0,0.0,0.0,0.75,1.0,-0.61,1.7,0.33,53.72,-7.0,-14.5,0.0,0.0,0.0,0.0,0.0,0.0,0.25,0.0,0.0,0.0,0.25,0.25,0.25,0.27,0.33,0.7,14.0,-5.9,-81.3
6.02,0.0,0.5,0.0,0.5,0.0,1.25,0.0,0.25,0.0,0.0,0.0,0.5,0.0,-0.48,1.2,0.58,36.05,-3.7,19.3,0.0,0.0,0.0,0.0,0.0,0.0,0.25,0.0,0.0,0.0,0.25,0.25,0.25,0.39,0.27,0.58,12.98,-5.9,-81.3
6.04,0.0,0.5,0.0,0.5,0.0,1.5,0.0,0.0,0.0,0.25,0.0,0.5,0.75,-0.05,0.89,0.58,31.18,-6.7,-7.2,0.0,0.0,0.0,0.0,0.0,0.0,0.25,0.0,0.0,0.0,0.25,0.25,0.75,-0.11,0.08,0.08,15.57,1.3,-91.9
6.06,0.0,0.5,0.0,0.25,0.0,1.25,0.0,0.25,0.0,0.25,0.0,0.5,0.5,0.27,0.77,0.45,26.49,-7.7,-9.6,0.0,0.0,0.0,0.0,0.0,0.0,0.25,0.0,0.0,0.0,0.25,0.25,0.25,-0.98,0.39,-0.23,14.68,-5.9,-81.3
6.08,0.0,0.5,0.0,1.0,0.0,1.0,0.5,0.25,0.0,0.5,0.0,0.25,1.0,0.27,0.64,0.27,32.94,-2.7,-7.8,0.0,0.0,0.0,0.0,0.0,0.0,0.25,0.0,0.0,0.0,0.25,0.25,0.25,-1.11,0.64,-0.55,14.46,-5.9,-81.3
6.1,0.0,0.5,0.0,0.75,0.0,1.0,0.0,0.0,0.0,0.0,0.0,0.25,0.25,0.08,0.39,-0.11,29.53,-1.0,26.5,0.0,0.0,0.0,0.0,0.0,0.0,0.25,0.0,0.0,0.0,0.25,0.0,0.25,-1.42,1.08,-1.48,11.75,-4.7,-69.8
6.12,0.0,0.5,0.0,0.5,0.0,1.0,0.0,0.0,0.0,0.0,0.0,0.25,0.75,0.08,0.14,-0.17,33.87,-4.8,0.4,0.0,0.0,0.0,0.0,0.0,0.0,0.25,0.0,0.0,0.0,0.25,0.25,0.25,-2.05,1.45,-1.8,14.4,-5.9,-81.3
6.14,0.0,0.5,0.0,0.5,0.5,1.0,0.0,0.0,0.0,0.0,0.0,0.5,0.5,0.08,-0.36,-0.23,36.04,-2.9,9.3,0.0,0.25,0.0,0.0,0.0,0.0,0.25,0.0,0.0,0.0,0.25,0.25,0.25,-2.17,1.52,-2.17,14.93,-7.4,-40.0
6.16,0.0,0.5,0.0,0.5,0.5,0.5,0.25,0.0,0.0,0.0,0.0,0.25,1.0,0.33,-0.86,-0.36,43.59,-1.4,-2.4,0.0,0.0,0.0,0.0,0.0,0.0,0.25,0.0,0.0,0.0,0.25,0.0,0.25,-1.98,1.58,-2.3,13.92,-4.7,-69.8
6.18,0.0,0.5,0.0,0.5,0.5,0.75,0.25,0.0,0.0,0.0,0.0,0.25,0.75,0.39,-1.11,-0.36,49.29,-2.0,7.9,0.0,0.0,0.0,0.0,0.0,0.0,0.25,0.0,0.0,0.0,0.25,0.25,0.25,-1.05,1.08,-1.67,14.38,-5.9,-81.3
6.2,0.0,0.5,0.0,0.25,0.0,1.0,0.0,0.0,0.0,0.0,0.0,0.25,0.5,0.14,-1.11,-0.05,47.91,-6.2,5.8,0.0,0.0,0.0,0.0,0.0,0.0,0.25,0.0,0.0,0.0,0.25,0.25,0.25,-0.86,0.83,-0.67,14.28,-5.9,-81.3
6.22,0.0,0.5,0.0,0.5,0.0,1.0,0.0,0.0,0.0,0.0,0.0,0.25,0.5,0.02,-1.17,0.2,45.46,-3.9,10.8,0.0,0.0,0.0,0.0,0.0,0.0,0.25,0.0,0.0,0.0,0.25,0.0,0.25,-0.42,0.52,-0.3,13.05,-4.7,-69.8
6.24,0.0,0.5,0.0,0.25,0.5,0.75,0.0,0.0,0.0,0.0,0.0,0.25,0.5,-0.73,-1.17,-0.05,42.64,-4.2,13.2,0.0,0.0,0.0,0.0,0.0,0.0,0.75,0.25,0.0,0.0,0.5,0.0,1.0,-0.11,0.52,-0.42,20.66,0.6,-70.4
6.26,0.0,0.5,0.0,0.5,0.5,0.5,0.0,0.0,0.0,0.25,0.0,0.25,0.75,-0.92,-0.61,-0.42,45.83,-2.8,-0.7,1.25,1.5,0.0,0.25,0.0,0.5,0.75,0.25,0.0,1.5,1.25,0.5,1.0,-0.17,0.52,-0.3,60.04,-4.9,-8.8
6.28,0.0,0.5,0.0,0.5,0.5,0.25,0.0,0.0,0.0,0.0,0.0,0.25,0.5,-0.55,0.39,-1.11,44.04,1.2,13.9,0.75,1.25,0.75,0.25,0.0,0.5,0.75,0.0,0.0,1.0,1.5,0.5,0.75,-0.11,0.33,-0.17,91.76,-9.1,-5.3
6.3,0.0,0.5,0.0,0.5,0.5,0.25,0.25,0.0,0.0,0.0,0.25,0.25,0.5,-0.8,1.2,-1.98,45.54,3.3,7.2,0.75,1.5,0.0,0.25,0.0,0.25,0.75,0.0,0.0,1.25,1.5,0.75,1.0,-0.05,0.2,-0.11,116.99,-5.7,-19.0
6.32,0.0,0.5,0.0,0.5,0.0,0.75,0.0,0.0,0.0,0.25,0.0,0.25,0.25,-0.86,1.45,-2.23,42.66,-2.3,12.3,1.0,0.0,0.25,0.25,0.0,0.5,0.5,0.0,0.0,0.0,1.0,0.25,1.0,-0.3,0.33,-0.23,112.63,-9.6,-15.5
6.34,0.0,0.5,0.0,0.5,0.5,0.5,0.0,0.25,0.0,0.25,0.0,0.25,0.5,-0.67,1.2,-1.73,46.64,-3.0,4.7,0.5,1.5,0.0,0.25,0.0,0.5,0.75,0.0,0.0,1.5,1.5,1.0,1.0,-0.36,0.39,-0.55,119.9,-3.4,-25.4
6.36,0.0,0.5,0.0,0.5,0.5,0.5,0.0,0.0,0.0,0.0,0.0,0.25,0.25,-0.3,0.52,-0.98,44.83,0.5,28.0,0.0,0.0,0.0,0.0,0.0,0.0,0.25,0.0,0.0,0.0,0.25,0.0,0.25,-0.67,0.45,-0.61,85.8,-4.7,-69.8
6.38,0.0,0.5,0.0,0.5,0.5,0.5,0.25,0.0,0.0,0.0,0.0,0.25,0.25,-0.11,0.33,-0.61,45.22,1.9,28.0,0.0,0.0,0.0,0.0,0.0,0.0,0.0,0.0,0.0,0.0,0.0,0.25,0.25,-0.92,0.58,-0.55,59.48,2.5,-109.9
6.4,0.0,0.5,0.0,0.5,0.5,0.25,0.25,0.0,0.0,0.25,0.0,0.25,0.0,-0.17,-0.05,-0.42,43.42,4.1,31.3,0.0,0.25,0.0,0.0,0.0,0.0,0.25,0.0,0.0,0.0,0.25,0.25,0.25,-0.92,0.7,-0.48,33.31,-7.4,-40.0
6.42,0.0,0.5,0.0,0.5,0.0,0.25,0.0,0.0,0.0,0.25,0.0,0.25,1.0,-0.3,-0.23,-0.23,43.05,-2.0,-24.9,0.0,0.0,0.0,0.0,0.0,0.0,0.25,0.0,0.0,0.0,0.25,0.25,0.25,-0.86,0.77,-0.42,19.3,-5.9,-81.3
6.44,0.0,0.5,0.0,0.5,0.5,0.25,0.25,0.0,0.0,0.25,0.0,0.25,0.5,-0.42,-0.23,-0.55,44.35,1.1,7.0,0.0,0.0,0.0,0.0,0.0,0.0,0.25,0.0,0.0,0.0,0.25,0.0,0.25,-0.73,0.89,-0.67,7.17,-4.7,-69.8
6.46,0.0,0.0,0.0,0.5,0.5,0.25,0.0,0.0,0.0,0.25,0.0,0.25,0.5,-0.61,0.08,-0.73,41.66,-3.0,-14.1,0.0,0.0,0.0,0.0,0.0,0.0,0.25,0.0,0.0,0.0,0.25,0.25,0.25,-0.55,1.08,-0.61,3.22,-5.9,-81.3
6.48,0.0,0.5,0.0,0.5,0.0,0.75,0.0,0.0,0.0,0.25,0.0,0.25,0.25,-0.55,0.45,-1.23,40.83,-2.3,12.3,0.0,0.0,0.0,0.0,0.0,0.0,0.25,0.0,0.0,0.0,0.25,0.25,0.25,-0.67,1.08,-0.48,0.0,-5.9,-81.3
