time,left pressure 0[N/cm虏],left pressure 1[N/cm虏],left pressure 2[N/cm虏],left pressure 3[N/cm虏],left pressure 4[N/cm虏],left pressure 5[N/cm虏],left pressure 6[N/cm虏],left pressure 7[N/cm虏],left pressure 8[N/cm虏],left pressure 9[N/cm虏],left pressure 10[N/cm虏],left pressure 11[N/cm虏],left pressure 12[N/cm虏],left acceleration X[g],left acceleration Y[g],left acceleration Z[g],left total force[N],left center of pressure X[mm],left center of pressure Y[mm],right pressure 0[N/cm虏],right pressure 1[N/cm虏],right pressure 2[N/cm虏],right pressure 3[N/cm虏],right pressure 4[N/cm虏],right pressure 5[N/cm虏],right pressure 6[N/cm虏],right pressure 7[N/cm虏],right pressure 8[N/cm虏],right pressure 9[N/cm虏],right pressure 10[N/cm虏],right pressure 11[N/cm虏],right pressure 12[N/cm虏],right acceleration X[g],right acceleration Y[g],right acceleration Z[g],right total force[N],right center of pressure X[mm],right center of pressure Y[mm]
0.02,1.75,1.75,4.25,3.5,5.75,5.0,6.75,4.75,5.25,4.75,5.0,3.5,4.0,-0.11,-0.05,1.02,742.11,4.1,-9.7,4.5,1.25,2.75,1.5,5.0,0.0,1.25,1.25,1.25,3.25,2.0,1.0,1.5,1.45,-0.61,0.77,315.4,-9.4,13.6
0.04,2.0,1.75,4.5,3.75,6.5,5.0,7.0,5.0,5.5,4.75,5.0,4.5,4.25,-0.11,-0.05,0.95,881.37,4.3,-10.1,3.75,1.25,2.0,1.5,4.25,0.0,0.5,1.25,1.0,1.5,2.0,0.75,2.25,1.2,-0.67,0.45,272.25,-8.9,12.2
0.06,2.5,2.0,4.5,4.5,6.0,5.75,7.25,5.5,5.75,5.0,5.0,4.75,4.5,-0.11,-0.05,0.95,988.31,4.3,-9.3,3.5,0.0,1.75,0.0,3.25,0.25,0.25,0.75,1.0,1.5,0.25,0.75,1.75,0.64,-0.86,0.64,213.37,-8.5,10.7
0.08,2.75,2.0,4.5,4.75,7.0,6.5,7.5,6.0,5.75,5.0,5.0,4.5,4.25,-0.11,-0.05,0.95,1075.77,4.0,-6.3,3.0,1.0,2.0,1.5,3.75,0.0,0.75,1.0,1.0,3.25,1.5,1.0,2.5,0.39,-0.86,0.7,201.68,-6.5,0.4
0.1,3.25,2.0,4.75,5.25,6.5,6.5,7.75,6.0,6.0,5.0,4.75,3.5,4.25,-0.11,-0.05,0.95,1128.48,4.5,-3.4,1.25,1.0,2.0,1.5,3.75,0.75,0.5,1.25,1.25,2.75,1.75,1.0,1.75,0.2,-0.67,0.89,199.92,-4.3,-2.0
0.12,3.5,2.0,4.75,5.25,6.75,6.5,7.75,6.25,6.0,4.75,4.5,3.5,4.0,-0.11,-0.05,0.95,1151.03,4.6,-1.9,1.25,0.25,1.75,1.25,3.75,2.75,0.25,0.75,1.25,3.0,0.25,0.75,1.25,0.2,-0.55,1.02,207.84,-0.6,5.5
0.14,3.5,2.0,5.25,5.25,7.5,7.25,7.75,6.5,5.75,4.75,4.25,3.25,4.0,-0.11,-0.05,0.95,1159.93,4.3,0.3,2.25,1.0,1.75,1.5,3.0,1.5,0.25,1.0,1.25,3.25,0.25,1.0,2.5,0.2,-0.3,1.33,220.61,-3.1,0.1
0.16,3.5,2.0,5.25,5.5,8.25,7.5,8.0,6.25,5.75,4.25,3.0,2.25,3.0,-0.11,-0.05,0.95,1146.27,4.6,7.4,1.25,0.25,1.75,1.25,3.0,1.25,0.0,0.5,0.75,1.5,0.5,0.75,1.5,0.2,0.02,1.7,208.58,-4.4,6.9
0.18,3.75,2.0,5.5,5.5,8.5,7.5,8.0,6.25,5.5,3.5,0.25,2.0,2.25,-0.11,-0.05,0.95,1086.45,5.0,15.5,1.25,0.25,1.75,0.75,2.75,1.25,0.0,0.75,0.75,1.5,0.0,0.25,1.5,0.2,0.45,1.77,189.53,-3.2,10.4
0.2,4.0,2.0,5.75,6.25,9.25,8.0,8.25,6.25,5.25,2.75,1.75,2.0,2.25,-0.11,-0.05,0.95,1048.95,5.5,16.4,1.25,0.25,1.75,0.5,2.25,1.25,0.25,0.75,0.75,1.5,0.0,0.5,1.5,0.14,0.83,2.02,167.31,-3.6,5.3
0.22,4.75,2.0,6.0,7.0,9.75,8.5,8.25,6.25,5.25,2.75,1.5,2.0,2.75,-0.11,-0.05,0.95,1047.26,5.6,17.8,2.0,1.25,1.75,1.5,3.75,2.75,0.0,1.0,1.25,3.0,0.75,1.0,1.5,0.27,1.33,2.2,201.93,-2.3,8.4
0.24,5.25,2.0,6.25,7.0,10.5,8.5,8.5,6.25,5.25,2.75,1.5,2.0,2.25,-0.11,-0.05,0.95,1068.66,6.0,20.0,1.75,1.25,2.0,1.5,3.75,2.75,0.25,1.25,1.0,3.0,1.25,1.0,2.0,0.45,2.27,2.02,239.72,-2.0,3.8
0.26,5.75,2.25,6.25,7.0,11.5,8.75,8.25,6.5,5.0,2.75,1.75,2.0,2.25,-0.11,-0.05,0.95,1110.29,5.9,21.1,2.75,1.0,2.0,1.5,3.75,2.75,0.0,1.25,1.0,3.0,0.5,1.0,2.25,0.33,3.14,0.33,279.46,-2.6,7.6
0.28,6.25,3.5,6.25,8.5,12.5,9.25,8.75,6.5,5.0,2.75,2.0,2.0,2.0,-0.11,0.02,0.95,1189.17,6.2,24.6,2.5,1.25,2.25,1.5,3.75,2.75,0.25,1.5,1.0,3.0,0.75,1.0,2.0,-0.48,5.14,-0.8,304.95,-3.0,8.3
0.3,7.0,3.5,6.5,8.75,12.5,9.25,8.75,6.5,4.75,2.75,2.25,2.0,2.0,-0.11,0.02,0.95,1262.14,6.7,25.4,2.0,1.25,2.0,1.5,4.25,0.25,0.25,1.25,0.5,3.0,2.0,1.25,2.25,-2.73,6.08,-0.73,313.48,-4.8,-1.3
0.32,7.75,3.5,7.75,9.5,14.5,9.75,8.75,6.5,4.75,2.75,2.0,2.0,2.0,-0.11,0.02,0.95,1349.31,7.1,28.1,2.0,1.25,2.0,1.5,3.75,2.75,0.5,2.0,1.0,4.5,2.5,3.0,3.0,1.39,-4.3,2.08,338.61,-1.3,-15.0
0.34,8.75,3.5,7.75,11.0,14.5,10.0,8.75,6.5,4.5,2.75,2.25,2.0,2.25,-0.11,0.08,1.02,1426.5,7.4,29.0,2.5,1.0,2.0,1.5,3.75,2.75,0.5,2.5,1.25,5.75,2.75,5.25,6.5,-1.11,0.14,0.45,402.44,0.0,-31.7
0.36,10.5,4.25,8.75,13.0,15.5,10.0,8.75,6.5,4.25,2.0,2.25,2.0,1.75,-0.11,0.08,1.08,1522.04,8.7,34.2,2.5,0.25,0.0,0.0,1.25,2.75,0.0,2.75,1.5,7.0,4.25,6.5,8.0,0.08,0.45,1.58,485.76,3.4,-59.9
0.38,11.5,5.0,9.5,13.0,16.0,10.0,8.75,6.5,4.0,2.75,2.5,1.75,2.0,-0.11,0.14,1.08,1612.97,8.9,34.8,2.25,0.0,1.75,0.0,1.5,2.75,0.25,3.0,2.5,7.0,4.5,7.0,8.5,0.02,0.08,1.08,573.28,1.4,-56.1
0.4,14.0,5.0,9.75,13.5,16.0,10.0,8.75,6.25,3.5,2.75,2.5,2.0,1.0,-0.11,0.2,1.14,1696.34,10.0,38.4,2.5,0.5,1.75,0.25,2.25,2.75,1.25,3.0,3.0,7.0,6.0,7.25,8.5,0.02,0.08,0.95,661.69,0.0,-50.6
0.42,15.5,5.0,10.5,13.0,16.0,9.75,9.0,6.25,3.25,2.75,2.25,1.75,1.5,-0.23,0.27,1.27,1755.34,10.6,39.4,2.5,1.0,1.75,0.5,3.25,3.75,1.5,3.75,3.25,7.25,6.0,6.75,8.25,0.08,0.02,0.95,734.08,0.5,-43.1
0.44,16.5,6.5,10.5,13.5,16.0,9.0,9.0,6.0,2.5,2.25,2.5,1.75,2.0,-0.36,0.33,1.39,1794.99,11.2,41.4,3.75,2.0,3.0,1.5,5.25,5.0,2.5,4.5,3.75,8.0,6.75,7.0,9.0,0.08,0.02,0.95,846.14,-0.8,-30.2
0.46,17.0,6.5,10.5,13.0,15.0,8.0,8.75,5.5,2.5,2.75,2.25,1.75,2.0,-0.36,0.45,1.77,1799.25,11.8,41.6,3.75,2.0,3.0,1.5,5.0,5.25,2.5,5.0,3.75,8.0,6.5,7.25,9.0,0.14,0.02,0.95,937.77,-0.6,-30.6
0.48,15.5,5.5,10.5,11.0,12.5,7.0,9.0,5.25,1.5,2.5,2.0,1.75,2.0,-0.55,0.7,2.02,1727.43,12.4,41.1,3.75,2.0,3.5,1.5,5.25,5.75,2.75,5.25,4.25,7.25,6.5,5.75,8.5,0.14,0.02,0.95,1007.79,-0.9,-25.7
0.5,11.5,4.25,8.75,7.0,9.75,5.0,8.25,3.75,1.5,1.75,2.0,1.75,2.0,-0.86,0.7,2.33,1528.4,12.7,37.9,3.5,1.0,2.0,1.5,3.75,5.0,2.5,4.25,3.75,6.5,5.0,5.25,7.0,0.14,0.02,0.95,955.5,-0.4,-29.3
0.52,7.25,2.0,7.25,4.5,7.5,1.25,6.75,1.5,0.75,0.0,0.25,0.0,0.25,-0.98,0.7,2.27,1133.4,17.9,55.7,5.25,2.0,2.0,2.75,3.75,6.0,3.0,4.0,4.5,7.0,4.0,5.25,6.5,0.14,0.02,0.95,921.66,-1.8,-18.6
0.54,2.25,1.75,4.75,4.25,6.5,1.25,5.5,0.25,0.75,0.0,1.5,0.0,2.0,-0.67,-0.17,1.77,702.57,13.2,37.1,5.75,2.0,4.5,3.75,6.25,6.25,3.75,5.25,4.5,6.0,4.75,4.0,6.25,0.14,0.02,0.95,931.75,-3.6,-7.1
0.56,1.75,0.5,1.25,2.25,0.0,1.25,4.75,0.0,0.75,0.0,0.75,0.0,0.0,0.08,-0.05,1.39,329.43,20.2,41.5,6.0,2.0,4.75,3.75,6.5,6.25,4.0,5.25,4.5,5.75,4.0,3.5,5.5,0.14,0.02,0.95,953.85,-4.1,-2.8
0.58,0.75,0.5,1.0,1.75,0.0,1.25,3.0,0.0,0.75,0.0,0.75,0.0,0.0,-1.11,-1.36,3.33,130.19,16.9,34.8,7.0,2.0,4.75,4.0,6.5,6.75,4.5,5.25,4.5,5.75,4.0,2.5,5.0,0.14,0.02,0.95,985.5,-4.6,2.0
0.6,0.0,0.5,1.0,2.0,3.5,1.0,4.0,0.0,0.5,0.0,0.0,0.0,0.0,-0.92,-0.98,2.08,0.0,10.4,46.8,7.25,2.0,5.5,5.0,7.5,7.0,5.0,5.25,4.75,5.5,4.0,2.5,4.0,0.14,0.02,0.95,1027.83,-5.6,7.1
0.62,0.75,0.5,1.0,1.0,3.5,0.25,4.0,0.0,0.75,0.0,0.5,0.25,0.5,-0.55,-0.48,0.45,0.0,12.2,32.3,8.0,2.5,6.25,6.0,8.0,7.0,5.5,4.75,4.5,4.75,3.25,2.5,3.5,0.14,0.02,0.95,1061.75,-7.1,14.1
0.64,0.0,0.5,1.0,0.75,3.5,0.25,4.0,0.0,0.5,0.0,0.5,0.0,0.5,-0.36,-0.42,0.14,0.0,10.6,32.3,8.75,2.5,6.25,6.0,8.0,7.0,5.75,4.25,4.5,4.5,2.75,2.25,3.5,0.14,0.02,0.95,1077.8,-7.7,17.0
0.66,0.0,0.5,1.0,0.0,3.5,0.75,3.75,0.0,0.25,0.0,0.5,0.0,0.25,-0.11,-0.36,0.33,0.0,8.7,36.2,9.25,2.75,7.0,7.75,9.0,7.0,6.0,4.0,4.5,4.75,2.75,2.25,3.5,0.08,0.02,1.02,1129.14,-8.3,20.0
0.68,0.0,0.75,1.0,0.25,3.5,0.25,3.75,0.0,0.75,0.0,0.5,0.0,0.25,-0.05,-0.42,0.77,0.0,10.7,34.8,9.75,3.0,7.5,8.75,9.0,7.0,6.25,4.0,4.0,4.5,2.75,2.0,3.25,0.08,0.02,1.02,1179.47,-9.1,23.4
0.7,0.0,0.5,1.0,0.5,3.0,0.25,3.5,0.0,0.5,0.0,0.25,0.0,0.5,-0.11,-0.48,1.2,0.0,10.7,33.3,11.0,3.5,8.0,9.5,9.25,7.0,6.5,4.0,3.75,4.5,2.75,1.75,3.0,0.08,0.08,0.95,1256.61,-9.9,27.0
0.72,0.25,0.5,1.0,0.5,0.75,0.25,3.75,0.0,0.5,0.0,0.5,0.0,0.25,-0.17,-0.3,1.14,0.0,18.7,29.0,12.0,3.5,8.5,9.75,10.5,7.0,6.5,4.0,3.5,4.25,2.5,1.75,3.0,0.08,0.08,0.95,1326.34,-10.2,29.7
0.74,0.0,0.5,0.75,0.5,3.5,0.25,3.0,0.0,0.5,0.0,0.0,0.0,0.25,-0.17,-0.11,1.02,39.12,9.0,41.6,12.0,2.25,8.75,11.5,10.5,7.0,6.5,3.75,3.25,4.25,2.5,1.5,3.25,0.02,0.14,1.02,1371.97,-10.4,29.7
0.76,0.0,0.5,0.25,0.5,3.0,0.25,3.25,0.0,0.25,0.0,0.5,0.25,0.25,-0.17,0.02,1.33,78.07,8.4,29.7,13.0,3.75,9.0,12.5,11.5,7.0,6.25,3.75,3.25,4.0,2.5,1.25,2.25,0.02,0.2,1.02,1410.67,-11.1,35.4
0.78,0.0,0.5,0.25,0.5,3.5,0.25,3.5,0.0,0.25,0.0,0.5,0.25,0.5,-0.23,0.14,1.64,105.25,7.3,27.1,12.5,3.5,9.75,11.5,12.0,6.25,6.0,2.75,2.5,2.75,1.5,1.0,2.5,0.02,0.2,1.08,1407.16,-12.1,40.0
0.8,0.0,0.25,0.25,0.5,1.75,0.0,3.75,0.0,0.25,0.0,0.5,0.0,0.25,-0.36,0.27,1.77,110.7,13.3,26.4,14.5,5.0,9.25,13.0,10.5,0.0,5.25,2.75,2.25,2.25,1.75,1.0,2.5,0.02,0.27,1.08,1380.07,-16.1,44.0
0.82,0.0,0.5,0.5,0.5,0.0,0.0,3.5,0.0,0.0,0.0,0.5,0.0,0.25,-0.48,0.45,2.2,92.31,22.9,23.6,13.0,2.75,10.0,11.0,11.0,5.0,4.75,2.75,1.75,2.5,1.0,0.75,1.5,-0.11,0.27,1.2,1324.48,-13.6,44.6
0.84,0.0,0.5,0.25,0.5,3.5,0.0,3.25,0.0,0.0,0.0,0.25,0.0,0.25,-0.67,0.83,2.64,88.45,8.3,41.8,13.0,0.0,10.0,11.5,10.5,4.75,4.0,2.5,1.75,2.75,0.75,0.5,0.25,0.08,0.33,1.27,1224.16,-14.4,46.5
0.86,0.0,0.25,0.25,0.5,0.0,0.0,3.0,0.0,0.0,0.0,0.5,0.25,0.0,-0.8,1.58,3.02,69.66,23.7,14.6,13.0,3.0,10.0,11.5,10.5,4.75,5.0,2.75,1.5,1.5,0.5,0.25,1.5,0.2,0.39,1.45,1166.03,-14.4,49.1
0.88,0.0,0.25,0.0,0.5,0.0,0.25,3.5,0.0,0.25,0.0,0.5,0.0,0.5,-0.86,2.64,2.77,62.62,15.8,1.8,14.5,4.5,10.0,11.5,9.25,5.0,5.5,2.5,1.5,3.25,1.75,1.0,2.25,0.27,0.64,1.7,1178.37,-14.0,42.7
0.9,0.25,0.5,0.25,0.5,0.5,0.25,3.25,0.0,0.25,0.0,0.5,0.25,0.25,-0.23,3.77,1.02,59.87,16.2,19.4,11.0,2.5,9.75,7.5,8.25,2.75,4.5,1.25,1.25,1.0,0.25,0.25,1.5,0.7,0.83,2.39,1047.75,-16.8,51.4
0.92,0.0,0.5,0.0,0.5,2.25,0.25,2.75,0.0,0.25,0.0,0.5,0.0,1.0,0.02,6.27,-0.98,73.98,5.5,15.1,9.0,1.75,7.5,4.0,6.25,2.5,3.5,1.25,0.75,0.0,0.5,0.5,1.0,0.89,0.7,2.39,833.34,-17.2,52.0
0.94,0.0,0.5,0.0,0.25,1.25,0.25,2.75,0.0,0.25,0.0,1.0,0.5,0.75,2.27,7.89,-1.8,81.84,8.1,-5.4,7.25,2.0,4.75,3.75,2.25,2.5,2.25,0.75,1.25,1.5,1.0,0.75,0.75,0.83,0.27,2.33,585.14,-16.0,40.8
0.96,0.0,0.5,0.0,0.25,2.5,0.25,3.25,0.0,0.75,0.0,1.25,3.25,2.25,-1.05,-0.55,3.02,123.16,5.0,-35.3,3.75,0.0,3.5,1.5,3.75,1.0,1.25,1.0,0.75,1.0,0.75,0.5,0.0,-0.17,0.02,1.83,359.64,-14.0,36.8
0.98,0.0,0.25,0.0,0.5,1.75,0.0,3.25,0.5,0.75,1.0,1.5,5.0,5.25,-0.61,0.08,1.02,184.22,1.4,-63.2,2.5,0.0,2.0,1.5,3.5,1.25,1.0,0.75,0.75,1.75,0.25,1.0,1.5,0.7,-1.42,3.52,234.22,-6.8,12.8
1.0,0.0,0.0,0.0,0.5,0.0,1.25,3.25,1.75,1.25,2.75,2.5,5.75,6.5,0.52,0.52,2.08,260.53,-1.6,-73.7,2.75,1.0,3.0,2.5,5.0,2.75,1.0,1.0,1.25,2.25,1.5,1.0,1.5,1.27,-1.23,2.27,199.09,-6.3,17.2
1.02,0.0,0.75,0.0,2.5,0.0,3.5,2.25,3.75,1.5,0.0,3.0,6.75,7.0,-0.3,0.39,1.27,339.38,-1.2,-52.9,1.25,0.25,2.0,1.25,3.25,0.5,0.75,0.25,0.75,1.0,0.5,0.5,0.5,0.77,-0.55,0.2,145.23,-9.7,23.8
1.04,0.75,1.25,0.0,2.75,3.75,3.75,4.75,5.25,3.25,6.5,4.5,8.0,7.25,-0.05,0.08,1.08,517.23,-1.3,-41.4,1.25,0.25,1.75,1.25,2.5,1.25,0.75,0.75,0.75,1.25,0.0,0.5,0.75,0.14,-0.42,0.14,109.53,-6.2,18.4
1.06,0.75,0.25,2.25,2.75,3.5,5.0,5.25,6.0,3.75,6.5,5.0,8.25,9.0,-0.11,-0.11,0.95,718.14,-0.5,-41.1,1.25,0.25,1.75,1.25,2.5,1.25,0.5,0.75,0.75,1.5,0.25,0.5,0.75,-0.11,-0.3,0.39,75.68,-5.7,14.8
1.08,1.75,0.5,2.25,3.0,5.75,5.0,5.5,6.25,4.25,0.0,4.75,8.25,8.75,-0.11,-0.05,0.95,861.12,1.9,-28.1,0.5,0.25,1.75,1.25,2.75,1.25,0.25,0.5,0.5,1.25,0.0,0.25,0.5,-0.3,-0.36,0.77,58.11,-4.4,22.4
1.1,1.75,0.0,2.5,3.0,6.5,6.0,5.75,6.75,4.25,7.75,5.0,7.5,8.25,-0.11,-0.05,1.02,1006.94,-0.5,-31.1,1.25,0.25,1.75,1.25,2.75,1.0,0.25,0.25,0.75,1.25,0.25,0.25,1.0,-0.17,-0.36,0.95,54.39,-6.6,19.1
1.12,2.25,0.5,2.5,3.0,6.5,6.5,5.5,7.25,4.5,7.75,4.75,7.25,8.0,-0.11,-0.05,1.02,1094.76,-0.5,-28.1,0.75,0.25,1.75,1.25,2.25,1.25,0.25,0.5,0.5,1.5,0.0,0.25,0.5,-0.05,-0.3,0.89,71.95,-5.0,20.2
1.14,1.5,0.5,2.5,3.0,6.5,7.0,5.75,7.25,4.25,1.75,4.0,6.75,7.25,-0.17,-0.05,0.95,1088.04,0.4,-21.4,1.0,0.25,1.75,1.0,1.25,1.25,0.25,0.0,0.5,1.5,0.0,0.25,0.0,-0.23,-0.11,0.95,95.93,-8.8,27.5
1.16,2.0,0.5,2.5,3.25,6.5,7.5,5.75,7.25,4.25,6.5,4.0,5.75,7.0,-0.17,-0.05,0.95,1082.02,-0.7,-22.1,0.25,0.0,1.75,1.25,1.25,1.25,0.25,0.25,0.5,1.25,0.25,0.25,1.0,-0.3,-0.05,1.14,105.47,-4.6,4.9
1.18,2.0,1.0,2.5,4.0,6.75,7.5,6.0,7.25,4.0,5.75,4.0,5.0,6.0,-0.17,-0.05,0.95,1059.93,-0.1,-16.1,0.75,0.25,1.75,1.25,1.5,1.0,0.25,0.0,0.5,1.5,0.25,0.5,0.75,-0.11,0.08,1.33,117.3,-7.2,11.3
1.2,2.0,1.5,2.5,4.25,6.75,7.75,5.75,7.25,4.0,5.0,3.75,3.5,5.5,-0.17,-0.05,0.95,1018.67,0.0,-10.4,1.0,0.0,1.75,1.0,1.5,0.25,0.25,0.25,0.5,1.5,0.5,0.5,0.25,0.02,0.2,1.58,123.21,-10.3,11.1
1.22,2.25,1.75,2.5,4.5,7.25,8.5,6.0,7.25,4.0,5.0,3.75,3.25,4.25,-0.11,-0.05,0.95,981.81,0.2,-5.2,0.5,0.0,1.75,1.0,1.5,0.25,0.5,0.0,0.5,1.25,0.25,0.25,1.0,0.14,0.39,1.95,119.78,-8.7,5.8
1.24,2.25,1.75,3.0,4.75,7.75,8.5,6.0,7.25,4.0,4.75,3.75,2.0,3.75,-0.17,-0.05,0.95,953.25,0.6,-0.2,0.25,0.0,1.75,1.0,1.75,0.5,0.25,0.0,0.5,1.5,0.0,0.5,0.75,0.39,0.7,2.39,117.77,-6.4,5.5
1.26,3.0,2.0,3.0,5.25,8.25,8.5,6.25,7.25,3.75,3.75,2.75,2.0,2.75,-0.17,-0.05,0.95,919.14,1.6,7.3,0.5,0.0,1.75,0.5,1.75,0.5,0.25,0.0,0.5,1.5,0.25,0.25,1.25,0.52,1.58,2.77,127.28,-5.4,-0.6
1.28,3.5,1.25,2.25,5.25,8.25,9.0,6.25,6.5,4.0,3.5,1.75,1.75,2.0,-0.17,-0.05,0.95,862.96,1.4,10.8,0.5,0.0,1.75,0.75,1.25,0.5,0.25,0.0,0.5,1.5,0.0,0.25,1.0,0.45,2.45,2.95,123.11,-6.8,3.0
1.3,2.5,1.25,2.5,5.25,8.5,9.25,6.25,7.0,4.0,3.0,3.0,2.0,2.5,-0.11,-0.05,0.95,844.23,0.9,6.7,0.5,0.0,1.75,1.0,1.5,0.5,0.0,0.0,0.5,1.5,0.0,0.25,1.5,0.77,4.02,1.83,125.82,-5.4,-0.4
1.32,3.5,2.0,4.5,5.5,10.0,9.25,6.5,7.0,4.0,3.25,3.0,2.0,2.25,-0.11,-0.05,0.95,878.02,2.9,12.9,0.5,0.0,1.75,0.5,1.25,1.0,0.25,0.0,0.25,1.5,0.0,0.25,1.0,0.83,5.33,-0.8,125.01,-4.7,4.2
1.34,3.5,1.75,4.75,5.5,9.25,9.5,6.5,6.5,4.0,2.75,1.5,1.75,2.0,-0.11,-0.05,0.95,888.72,3.2,16.7,0.25,0.0,1.75,0.75,1.25,1.25,0.25,0.0,0.5,1.5,0.0,0.25,1.25,-1.67,6.08,-1.3,127.39,-3.2,-0.2
1.36,5.5,2.5,4.5,6.5,10.0,9.25,7.0,6.5,4.25,2.75,1.75,2.0,2.0,-0.11,-0.05,0.95,950.85,4.5,20.1,0.5,0.25,1.75,0.5,1.25,1.25,0.25,0.5,0.25,2.25,0.0,0.75,1.75,-2.73,4.08,0.89,139.91,-0.9,-12.9
1.38,5.75,1.75,4.75,7.0,11.5,9.5,7.5,6.5,4.25,2.75,1.75,1.75,2.0,-0.11,0.02,0.95,1014.54,4.6,21.4,0.5,0.25,1.5,0.5,0.5,1.0,0.25,1.0,0.0,3.0,0.25,2.5,3.25,0.33,-0.23,2.64,168.58,1.1,-45.6
1.4,6.75,3.5,6.25,8.75,14.5,11.0,8.0,7.25,4.0,2.75,2.75,2.0,2.25,-0.11,0.02,1.02,1172.2,5.1,25.0,1.25,0.5,2.0,0.0,4.5,2.75,0.5,2.75,1.0,5.5,2.75,5.25,7.0,0.14,-0.23,0.89,276.78,2.4,-40.4
1.42,7.75,3.5,6.25,11.0,15.0,11.0,8.0,6.75,4.0,2.75,2.0,2.0,2.0,-0.11,0.02,1.02,1325.1,5.9,28.8,1.25,0.5,1.75,0.0,0.0,0.0,0.0,2.25,1.75,7.0,3.75,6.5,8.0,-0.73,0.45,1.89,375.85,0.8,-70.0
1.44,9.0,3.5,7.75,11.5,15.5,10.5,8.5,7.0,3.75,2.75,1.75,1.75,2.25,-0.11,0.08,1.08,1451.58,7.0,31.0,1.25,0.5,1.75,0.0,2.25,3.0,0.75,3.75,2.5,7.5,5.5,7.25,8.5,0.08,0.27,1.27,544.08,2.1,-55.1
1.46,10.5,4.5,7.75,13.0,15.0,11.0,8.25,6.25,3.5,2.75,0.25,1.75,2.0,-0.11,0.08,1.08,1538.53,7.8,36.4,2.5,2.0,1.75,1.5,2.25,5.25,1.0,4.0,3.75,8.25,6.5,8.0,8.5,0.2,0.08,1.08,720.11,0.6,-41.5
1.48,10.5,3.75,8.75,11.5,17.0,10.0,8.5,6.25,2.5,2.25,0.5,1.0,2.0,-0.17,0.14,1.27,1584.02,8.1,38.7,2.5,2.0,2.5,1.5,4.25,5.0,1.75,5.25,3.75,8.25,7.25,8.0,8.5,0.2,0.02,0.95,897.48,0.1,-36.8
1.5,11.5,4.5,9.0,11.5,14.5,9.75,8.25,5.5,2.5,2.5,0.5,1.5,1.5,-0.36,0.2,1.39,1587.62,9.3,40.0,1.25,0.5,1.75,1.25,3.25,3.75,1.5,4.0,3.25,7.75,6.5,7.25,8.75,0.08,0.02,0.95,955.75,1.4,-48.2
1.52,14.5,5.5,10.5,13.0,15.5,9.25,8.0,6.0,2.5,2.75,2.0,1.75,2.0,-0.36,0.27,1.45,1642.66,10.4,39.5,1.25,0.75,1.75,1.75,3.75,5.75,1.75,4.75,3.25,7.75,6.0,6.5,8.5,0.14,0.02,0.95,984.6,2.3,-40.7
1.54,14.5,4.75,10.5,9.25,14.5,8.25,8.25,5.5,1.5,2.0,2.25,1.75,2.0,-0.48,0.45,2.02,1630.27,11.1,40.0,2.25,2.0,3.5,1.5,5.75,5.75,2.5,5.25,3.75,8.0,5.75,7.25,8.25,0.14,0.02,0.89,1014.11,0.0,-29.6
1.56,11.5,5.25,9.25,8.75,10.5,7.0,8.25,4.25,1.5,2.5,1.25,1.75,2.0,-0.67,0.64,2.27,1541.57,11.4,39.0,2.25,2.0,4.25,2.75,6.0,6.0,3.0,6.25,3.75,8.0,6.5,6.5,8.0,0.14,0.02,0.95,1059.34,-0.5,-25.3
1.58,8.5,2.75,8.5,5.25,8.75,3.75,7.75,3.5,1.25,0.25,1.5,0.75,2.0,-0.92,0.58,2.52,1319.65,13.4,39.7,2.75,2.0,4.5,3.0,6.25,6.25,3.0,5.75,3.75,7.5,5.75,5.75,8.0,0.14,0.02,0.95,1090.28,-1.0,-21.0
1.6,5.75,0.25,5.5,3.75,6.5,1.5,5.5,0.25,0.75,0.0,0.25,0.0,0.75,-0.98,0.52,2.52,878.8,17.3,52.2,3.0,2.0,4.5,3.75,6.25,6.25,3.5,5.75,3.75,7.0,4.75,5.0,7.0,0.14,0.02,0.95,1090.71,-1.5,-15.5
1.62,1.25,0.75,2.5,1.75,3.5,1.0,4.0,0.25,0.75,0.0,0.5,0.0,0.5,-0.42,-0.36,2.14,462.42,13.8,40.9,3.75,2.0,4.5,3.75,6.5,6.25,3.5,6.0,3.75,6.25,4.0,3.75,6.25,0.14,0.02,0.95,1048.49,-2.0,-9.2
1.64,0.25,0.5,1.5,2.25,0.0,1.25,4.0,0.25,0.75,0.0,0.5,0.0,0.25,-0.61,-0.42,3.27,214.52,16.4,31.0,3.75,2.0,4.75,4.0,7.25,7.0,4.0,6.0,3.75,5.75,4.0,2.75,5.0,0.2,0.02,0.95,990.91,-2.3,-2.6
1.66,0.25,0.5,0.0,1.75,0.0,1.0,3.75,0.25,0.75,0.0,0.5,0.0,0.25,-1.23,-1.17,2.58,35.12,12.6,22.4,2.75,2.0,4.75,5.5,8.0,7.25,4.25,6.0,3.75,5.75,2.0,2.5,3.5,0.14,0.02,0.95,951.39,-2.2,4.3
1.68,0.25,0.5,1.0,1.75,3.0,1.0,3.25,0.0,0.5,0.0,0.5,0.0,0.5,-0.86,-0.86,1.08,0.0,9.6,35.3,4.0,2.0,4.75,6.0,9.0,7.75,4.5,6.0,3.25,5.5,2.75,2.5,4.0,0.14,0.02,0.95,946.32,-2.7,6.5
1.7,0.0,0.5,1.0,0.75,3.5,0.25,3.75,0.0,0.5,0.0,0.5,0.25,0.25,-0.42,-0.55,0.27,0.0,10.9,32.5,5.0,2.5,5.25,7.5,9.25,8.0,5.0,5.75,3.25,5.25,2.75,2.25,3.75,0.2,0.02,0.95,981.67,-4.1,12.1
1.72,0.0,0.5,1.0,0.75,3.5,0.75,3.75,0.0,0.5,0.0,0.25,0.0,0.25,-0.36,-0.42,0.08,0.0,9.4,38.8,5.5,2.5,6.25,7.75,10.5,8.25,5.0,5.75,3.25,4.75,2.75,2.0,3.25,0.14,0.08,1.02,1048.83,-4.9,16.7
1.74,0.0,0.5,1.0,0.75,2.5,0.5,3.75,0.0,0.5,0.0,0.5,0.25,0.25,-0.42,-0.36,0.45,0.0,11.9,29.8,5.75,2.75,6.25,9.5,11.0,8.25,5.0,5.75,3.25,4.75,2.75,2.0,3.25,0.14,0.02,1.02,1132.12,-5.3,18.7
1.76,0.0,0.5,1.0,0.5,0.0,0.5,3.75,0.0,0.25,0.0,0.5,0.0,0.0,-0.48,-0.36,0.7,0.0,21.8,32.2,6.75,3.5,6.5,9.75,12.0,8.25,5.0,5.75,3.0,4.5,2.75,2.0,3.25,0.14,0.08,0.95,1210.18,-5.8,21.9
1.78,0.25,0.25,1.0,0.5,0.0,1.0,3.0,0.0,0.5,0.0,0.25,0.25,0.25,-0.48,-0.36,0.95,0.0,16.2,21.2,7.5,3.0,6.5,11.5,12.0,8.75,5.0,5.75,2.5,4.5,2.0,1.75,3.25,0.08,0.08,0.95,1275.5,-6.0,24.9
1.8,0.0,0.5,1.0,0.5,0.0,0.75,3.5,0.0,0.0,0.0,0.5,0.25,0.25,-0.48,-0.17,0.95,0.0,17.8,22.4,8.25,3.5,7.25,13.0,13.5,8.75,4.5,5.5,2.5,4.5,2.75,1.5,3.0,0.08,0.14,0.95,1351.03,-6.7,27.8
1.82,0.0,0.25,1.0,0.25,0.0,1.0,3.75,0.0,0.25,0.0,0.5,0.25,0.25,-0.55,-0.05,1.14,18.13,16.4,15.0,9.0,3.75,7.5,13.0,14.5,8.75,4.5,5.5,2.5,3.5,2.75,1.5,3.25,0.08,0.14,1.02,1416.79,-7.2,30.0
1.84,0.0,0.25,0.75,0.5,0.0,0.25,3.5,0.0,0.25,0.0,0.5,0.0,0.25,-0.48,0.14,1.27,45.83,21.4,18.5,9.75,4.25,7.5,14.5,15.0,9.25,3.75,5.5,1.5,3.0,2.5,1.0,3.0,0.08,0.2,1.08,1476.2,-7.4,34.9
1.86,0.0,0.0,0.75,0.75,0.0,1.0,3.5,0.0,0.25,0.0,0.5,0.25,0.25,-0.42,0.27,1.58,64.35,15.2,12.7,10.0,2.75,8.0,14.5,15.0,9.25,3.0,5.5,1.75,2.0,2.0,1.0,3.0,0.08,0.27,1.08,1496.35,-7.8,35.9
1.88,0.5,0.25,0.75,0.75,0.0,1.0,3.25,0.0,0.25,0.0,0.5,0.25,0.25,-0.55,0.39,1.89,73.29,16.3,22.7,11.0,4.25,8.25,14.5,16.5,9.25,3.0,5.25,1.5,3.0,2.5,1.0,3.25,0.08,0.33,1.14,1535.32,-7.8,36.2
1.9,0.0,0.5,0.5,0.5,0.0,0.75,3.25,0.0,0.0,0.0,0.5,0.25,0.25,-0.73,0.58,2.89,71.97,15.2,18.1,11.5,4.25,2.5,14.5,16.5,9.0,2.5,5.0,1.0,1.5,2.5,1.0,3.0,0.27,0.33,1.33,1504.44,-6.2,38.1
1.92,0.0,0.25,0.5,0.0,0.0,1.0,3.25,0.0,0.25,0.0,0.5,0.25,0.25,-0.92,1.33,3.08,66.37,13.0,6.6,12.0,4.25,9.0,14.5,15.0,8.5,3.0,0.0,1.25,3.25,2.25,1.0,3.0,0.39,0.39,1.45,1487.07,-10.6,42.6
1.94,0.0,0.5,0.75,0.5,0.0,0.5,3.0,0.0,0.0,0.0,0.5,0.5,0.25,-0.92,2.64,3.2,67.41,17.5,13.0,11.0,5.0,9.0,11.5,14.0,7.75,4.25,3.5,1.25,3.25,1.75,1.0,2.75,0.45,0.58,1.64,1445.07,-9.5,39.2
1.96,0.0,0.0,0.25,0.5,0.0,1.0,3.25,0.0,0.25,0.0,0.25,0.0,0.25,-0.67,3.83,1.64,64.11,12.3,16.0,9.75,3.5,8.75,11.5,11.0,7.5,4.25,3.25,1.0,3.25,1.75,1.0,2.5,0.89,0.83,2.2,1372.24,-9.8,37.2
1.98,0.0,0.5,0.25,0.5,0.0,0.75,3.5,0.0,0.0,0.0,0.5,0.0,0.25,-0.3,5.7,-0.36,65.75,14.7,23.1,7.5,2.0,7.0,6.0,7.5,5.0,2.5,1.5,0.25,1.0,0.25,0.0,1.0,0.83,0.83,2.95,1078.14,-12.3,50.4
2.0,0.0,0.25,0.25,0.5,0.75,0.75,3.25,0.0,0.25,0.25,0.5,0.0,0.0,0.95,6.58,0.2,72.24,11.2,23.2,5.0,0.5,5.0,2.5,5.25,2.0,1.25,0.25,0.5,1.25,0.0,0.25,0.0,0.95,0.39,2.27,696.13,-14.8,51.7
2.02,0.25,0.5,0.0,0.5,0.0,1.25,3.25,0.25,0.5,0.5,0.75,1.0,1.0,0.08,-0.92,0.45,88.77,5.4,-19.5,2.0,0.0,1.75,1.25,2.75,1.25,0.75,2.0,0.5,1.5,0.0,0.0,1.0,0.08,-0.17,1.95,363.17,-4.4,18.0
2.04,0.0,0.5,0.25,0.0,0.0,0.75,3.25,1.0,0.25,1.25,1.5,3.5,2.25,1.02,0.08,0.39,131.23,2.5,-59.1,2.5,0.0,1.75,1.25,1.75,0.0,0.75,0.75,0.5,1.25,0.0,0.0,0.75,0.64,-0.61,2.77,176.55,-12.7,27.4
2.06,0.0,0.0,0.25,0.25,0.0,0.75,3.25,1.75,0.75,2.75,1.5,5.75,5.25,0.39,-0.11,2.08,207.6,-1.0,-74.6,1.25,0.0,0.5,1.25,1.75,0.0,0.5,0.0,0.5,1.5,0.0,0.25,0.5,0.89,-1.42,3.02,24.3,-7.7,15.0
2.08,0.0,0.5,0.0,0.5,0.0,2.75,3.25,2.25,1.5,4.25,2.75,6.75,6.25,0.33,0.39,1.77,295.98,-2.7,-65.5,0.75,0.0,0.5,1.25,1.75,0.0,0.5,0.0,0.5,1.5,0.0,0.5,0.0,0.58,-0.73,1.33,0.0,-7.5,14.2
2.1,0.25,0.5,0.0,2.5,3.0,3.5,2.5,4.0,2.5,0.0,3.75,8.25,7.25,-0.36,0.39,1.39,410.23,-0.4,-45.5,1.5,1.0,1.75,1.75,2.25,0.25,0.5,0.25,1.0,3.0,0.0,1.0,0.0,0.39,-0.42,0.14,0.0,-8.7,15.6
2.12,1.0,0.0,0.25,2.75,3.75,3.25,5.25,5.0,3.5,5.75,4.75,8.25,8.0,-0.11,0.02,1.02,589.43,-0.6,-45.3,2.0,0.0,2.25,1.25,4.25,1.0,1.25,1.0,1.0,1.25,0.0,0.25,0.75,0.27,-0.36,-0.05,0.0,-7.7,26.4
2.14,0.0,0.0,2.25,1.0,3.75,3.0,5.25,5.75,3.5,7.5,5.75,8.25,9.0,-0.17,-0.05,0.95,763.96,-1.0,-50.4,0.5,0.0,0.5,1.25,1.75,0.25,0.25,0.25,0.5,1.25,0.25,0.25,0.25,0.08,-0.3,0.2,0.0,-4.5,10.2
2.16,0.0,0.0,2.25,1.5,4.25,3.0,6.0,5.5,3.75,7.0,4.5,7.5,8.0,-0.11,-0.05,0.95,875.78,-0.5,-44.6,0.5,0.0,1.25,1.25,2.25,0.25,0.25,0.5,0.5,1.25,0.25,0.25,0.25,-0.05,-0.3,0.64,0.0,-6.3,15.9
2.18,0.75,0.0,2.0,1.75,3.75,4.0,5.25,5.5,4.25,6.5,5.0,7.5,8.0,-0.11,-0.05,0.95,935.79,-0.4,-42.8,0.75,0.0,1.75,1.25,1.75,0.25,0.25,0.0,0.5,1.25,0.25,0.25,0.5,0.02,-0.3,0.83,13.02,-10.2,17.7
2.2,1.75,1.5,2.25,4.0,3.5,5.25,5.5,6.25,4.75,7.75,5.0,7.5,8.75,-0.11,-0.05,1.02,1009.66,0.3,-33.0,1.5,0.75,1.75,1.5,1.75,0.75,0.25,0.0,0.75,3.0,0.75,1.0,1.5,0.2,-0.17,0.89,81.63,-6.0,-2.5
2.22,1.75,1.0,2.5,3.0,6.5,6.25,6.0,6.5,4.5,6.5,5.0,6.5,8.0,-0.11,-0.05,0.95,1052.08,0.0,-26.1,0.5,0.0,2.0,1.25,3.75,0.0,0.25,0.0,0.5,1.5,0.0,0.25,0.75,0.14,-0.05,0.95,131.57,-7.1,21.0
2.24,1.75,1.25,2.75,4.0,6.5,6.5,6.25,6.75,4.5,6.25,4.5,5.75,7.25,-0.11,-0.05,0.95,1082.36,0.3,-20.8,0.5,0.0,1.75,0.25,0.25,0.0,0.25,0.0,0.5,1.5,0.5,0.25,0.75,0.08,0.08,1.14,142.62,-11.1,-14.2
2.26,2.0,1.5,2.5,3.75,6.5,6.5,6.0,6.5,4.25,5.5,4.75,5.0,6.25,-0.11,-0.05,0.95,1064.33,0.6,-17.3,0.5,0.0,1.75,0.5,1.0,0.0,0.25,0.0,0.5,1.25,0.0,0.25,0.5,0.14,0.27,1.45,129.19,-11.5,8.1
2.28,1.75,1.75,3.0,3.75,6.5,6.5,6.0,6.25,4.25,5.0,3.5,4.5,5.5,-0.11,-0.05,0.95,1010.5,1.0,-12.6,0.75,0.5,1.75,0.5,0.5,0.0,0.25,0.0,0.5,1.5,0.25,0.25,0.5,0.2,0.39,1.64,112.28,-12.5,8.2
2.3,2.0,0.75,3.75,3.25,6.5,6.5,6.0,6.0,4.5,5.0,2.75,3.5,5.25,-0.11,-0.05,0.95,928.44,1.3,-10.7,0.0,0.0,1.75,0.0,1.5,0.5,0.25,0.0,0.75,1.5,0.0,0.25,0.0,0.45,0.58,2.2,99.3,-6.6,8.0
2.32,2.25,1.25,2.25,2.25,6.75,7.0,6.25,6.25,4.25,3.0,3.75,3.5,4.0,-0.11,-0.05,0.95,843.56,1.0,-8.0,0.5,0.25,1.75,0.5,1.25,0.0,0.25,0.0,0.5,1.25,0.0,0.5,0.25,0.58,1.14,2.77,94.74,-11.8,13.4
2.34,2.75,1.75,3.75,3.75,6.5,7.5,6.5,5.75,4.75,4.5,3.75,3.0,4.0,-0.11,-0.05,0.95,818.44,2.5,-3.1,0.25,0.5,1.75,0.5,3.75,0.0,0.5,1.25,0.75,3.25,0.75,0.25,1.25,0.83,2.27,3.02,131.85,-1.0,-6.1
2.36,3.5,2.0,2.5,4.75,7.5,7.5,6.5,6.25,4.75,4.5,3.75,3.0,3.25,-0.11,-0.05,0.95,821.01,2.3,0.4,1.25,0.0,1.75,0.75,1.75,0.0,0.25,0.0,0.5,1.0,0.5,0.25,1.75,0.52,3.52,2.2,145.9,-9.4,2.5
2.38,4.0,2.0,4.5,5.25,8.25,7.75,7.0,6.25,5.0,4.25,3.75,2.5,2.75,-0.11,-0.05,0.95,876.33,4.1,6.7,0.25,0.0,1.75,0.5,0.0,0.25,0.25,0.0,0.25,1.25,0.25,0.25,0.75,1.2,5.39,0.02,139.78,-10.9,-10.5
2.4,4.0,2.25,4.75,5.25,8.5,8.25,7.75,6.5,5.25,3.5,3.5,2.0,2.0,-0.11,-0.05,0.95,926.73,4.5,11.4,0.5,0.5,1.75,0.5,0.0,0.0,0.25,0.75,0.0,1.5,0.25,0.25,0.5,0.52,6.2,-2.42,119.22,-9.9,-0.6
2.42,5.75,2.5,5.5,6.25,9.75,8.5,8.0,6.5,5.25,2.75,3.75,2.0,2.25,-0.11,-0.05,1.02,1004.68,5.9,16.4,1.5,1.0,1.75,1.5,0.5,2.5,0.25,1.5,0.0,4.25,2.0,2.5,3.25,-2.11,3.89,-1.42,173.47,-0.5,-27.3
2.44,6.5,3.25,6.25,7.0,10.0,9.0,8.5,6.25,5.0,2.75,3.75,2.0,2.25,-0.11,-0.05,1.02,1087.64,6.7,19.8,2.0,1.25,2.0,1.25,3.75,0.25,0.25,1.25,0.0,5.0,1.0,4.25,3.75,-0.42,0.45,1.52,240.66,-2.3,-23.8
2.46,7.25,3.25,7.0,8.5,12.5,9.25,9.0,6.5,5.0,2.75,3.0,2.0,2.25,-0.05,-0.05,1.02,1221.75,6.9,23.9,0.75,0.25,1.75,1.0,3.75,0.0,0.25,1.0,1.75,5.75,2.5,5.75,6.0,0.45,0.39,2.2,333.62,-0.3,-49.2
2.48,8.75,3.5,7.5,10.5,13.5,9.5,9.5,6.5,4.75,2.75,3.0,2.0,2.0,-0.11,-0.05,1.02,1357.09,7.8,27.6,1.0,0.75,1.75,1.25,3.0,3.75,0.0,3.25,3.0,7.0,5.0,6.5,8.0,0.02,0.83,1.64,487.2,2.0,-46.8
2.5,9.5,3.75,8.75,11.5,14.5,9.25,9.5,6.25,4.5,2.75,2.75,2.0,2.0,-0.11,0.02,1.02,1471.81,8.6,30.3,3.25,2.0,1.75,2.0,3.75,5.5,1.5,4.0,3.75,8.0,7.5,8.0,8.5,0.02,0.08,1.14,701.58,-0.1,-36.0
2.52,10.5,3.5,8.75,10.5,13.5,9.0,10.0,6.25,3.75,2.75,1.5,2.0,2.0,-0.11,0.08,1.08,1529.7,9.1,32.4,4.25,2.0,4.0,1.25,5.25,5.75,2.5,5.25,4.0,7.75,7.25,6.75,9.0,0.02,0.02,0.89,906.57,-1.3,-27.5
2.54,11.5,3.75,9.75,12.0,14.5,8.5,9.5,5.5,3.25,2.5,1.5,1.25,1.75,-0.11,0.14,1.2,1569.31,10.2,37.6,3.75,1.75,4.75,1.5,6.0,5.25,3.0,5.5,3.75,7.0,7.0,5.75,7.75,0.2,-0.05,0.95,1048.62,-2.0,-22.8
2.56,12.5,4.25,9.75,11.0,14.5,7.5,8.75,5.25,2.75,2.0,1.25,1.0,1.5,-0.23,0.2,1.39,1563.47,11.0,41.3,4.5,2.0,4.5,1.5,6.25,6.25,3.5,5.25,4.5,6.5,4.75,5.0,7.75,0.14,0.02,0.95,1119.88,-1.9,-16.5
2.58,16.0,5.25,11.0,13.0,14.5,7.0,9.0,5.5,2.75,2.25,2.0,1.25,2.25,-0.36,0.27,1.58,1607.26,12.3,41.5,3.75,1.25,3.5,1.5,5.75,6.0,3.75,4.5,4.5,5.75,4.5,4.0,6.0,0.2,0.02,0.95,1074.46,-1.8,-15.8
2.6,16.0,4.75,10.0,8.75,10.0,6.5,8.75,4.75,2.0,2.0,2.5,1.75,2.0,-0.55,0.45,1.89,1560.21,13.3,39.8,5.75,2.0,4.75,4.0,6.5,7.0,4.5,5.25,5.0,5.75,5.0,3.75,5.5,0.14,0.02,0.95,1101.18,-4.0,-4.2
2.62,12.5,4.25,9.75,7.0,9.25,4.75,8.25,3.25,1.5,2.0,2.0,0.5,2.0,-0.67,0.7,2.95,1442.77,14.0,42.1,6.0,2.0,5.0,4.0,7.5,7.0,4.75,5.0,4.5,5.5,4.5,2.5,4.5,0.14,0.02,0.95,1101.13,-4.5,2.7
2.64,8.5,2.0,7.75,3.75,7.75,1.25,7.5,2.25,0.75,0.0,1.5,0.25,2.0,-0.98,0.39,2.45,1130.42,16.4,43.2,6.0,2.0,4.75,4.0,6.5,6.5,5.25,4.5,3.75,3.5,2.75,2.5,3.25,0.14,0.02,0.95,1050.93,-5.9,10.3
2.66,4.25,0.5,1.25,2.75,3.75,1.25,5.25,0.5,1.0,0.0,0.25,0.0,0.75,-1.05,0.08,2.02,675.07,14.5,45.1,6.25,2.0,6.25,4.0,8.0,6.5,5.25,4.25,3.5,3.25,2.25,1.0,2.5,0.14,0.02,0.95,979.02,-7.0,20.4
2.68,2.0,0.5,2.25,1.75,0.0,0.0,4.75,0.0,0.75,0.0,1.25,0.0,0.5,0.27,0.08,1.33,325.54,24.9,32.5,7.0,2.0,5.5,6.0,8.0,7.0,5.0,4.0,3.75,4.5,2.0,2.25,1.5,0.14,0.02,1.02,947.23,-7.0,20.1
2.7,1.0,0.5,2.25,1.5,0.0,0.0,4.75,0.0,0.75,0.0,0.5,0.75,0.5,-0.36,-0.73,3.14,134.52,24.0,23.1,8.25,2.75,6.5,7.75,9.0,7.5,5.75,4.25,3.75,4.25,2.5,1.75,2.5,0.08,0.08,0.95,981.07,-7.8,23.2
2.72,0.5,0.5,1.75,1.75,0.0,0.0,4.25,0.0,1.0,0.0,0.5,0.25,0.25,-1.17,-1.11,1.95,0.0,23.7,27.6,8.75,2.75,7.5,8.0,9.25,7.5,5.75,4.0,3.5,4.25,2.5,1.75,3.0,0.08,0.08,0.95,1038.26,-8.4,24.0
2.74,0.25,0.5,1.75,0.75,2.25,0.0,4.0,0.0,0.5,0.5,0.5,0.25,0.25,-0.3,-0.55,0.14,0.0,15.5,27.6,9.0,3.0,7.5,8.75,10.5,6.5,6.0,3.75,3.25,2.75,2.5,1.0,2.25,0.08,0.08,0.95,1100.17,-9.7,31.4
2.76,0.25,0.5,0.75,0.5,0.0,0.0,4.5,0.0,0.75,0.25,0.25,0.5,1.25,-0.11,-0.42,0.14,0.0,16.2,-7.1,9.0,2.0,7.5,8.5,9.0,7.0,5.5,3.25,2.5,2.75,1.25,1.0,1.5,0.08,0.08,0.95,1093.93,-10.2,35.0
2.78,0.0,0.5,1.75,0.5,1.25,0.0,4.25,0.0,0.75,0.0,0.5,0.25,0.25,-0.11,-0.36,0.45,0.0,19.6,25.3,9.0,2.0,7.5,9.5,9.25,6.75,5.5,2.75,2.5,3.0,0.75,1.0,1.75,0.02,0.14,0.95,1075.11,-10.4,36.0
2.8,0.0,0.5,1.0,0.5,3.5,0.0,4.0,0.0,0.5,0.25,0.75,0.25,0.5,-0.17,-0.42,0.83,0.0,10.5,23.0,9.5,2.25,8.0,9.75,10.5,7.0,5.25,2.75,2.5,3.0,0.75,1.0,1.75,0.02,0.14,0.95,1070.99,-10.3,37.4
2.82,0.0,0.5,0.25,0.5,2.25,0.0,4.0,0.0,0.5,0.0,0.5,0.5,0.25,-0.3,-0.42,1.08,0.0,12.0,19.9,10.0,3.5,8.5,11.5,10.5,7.0,5.75,3.5,2.5,3.5,1.5,1.0,2.25,0.02,0.14,0.95,1137.28,-10.3,35.7
2.84,0.0,0.5,1.0,0.5,0.5,0.25,4.0,0.0,0.5,0.0,0.5,0.75,0.25,-0.23,-0.23,1.08,0.0,18.2,10.3,12.0,2.75,9.0,13.0,12.0,6.5,5.5,3.0,2.0,3.5,2.5,1.0,2.25,0.02,0.2,0.95,1233.78,-11.3,37.3
2.86,0.0,0.5,0.0,0.5,2.5,0.25,1.25,0.0,0.5,0.0,0.75,0.0,0.25,-0.05,-0.05,1.2,21.49,4.8,25.3,12.0,2.5,9.25,13.5,13.0,0.0,5.25,3.0,1.5,3.5,2.25,1.0,1.75,0.02,0.27,0.95,1287.01,-14.4,39.9
2.88,0.0,0.5,1.0,0.5,3.5,0.25,1.25,0.0,0.25,0.0,0.5,0.25,0.25,-0.17,0.27,1.58,70.01,7.6,34.6,12.5,4.25,9.25,14.5,13.5,7.0,4.75,3.0,1.5,1.5,2.0,1.0,2.5,0.02,0.27,0.95,1362.07,-11.7,43.4
2.9,0.0,0.5,0.25,0.5,2.5,0.0,1.0,0.0,0.25,0.0,0.5,0.0,0.25,-0.23,0.39,1.89,89.25,6.3,33.7,13.0,4.25,10.0,14.0,13.5,7.5,4.5,3.25,1.5,3.0,2.0,1.0,2.25,0.02,0.27,1.02,1411.85,-11.3,41.8
2.92,0.0,0.5,0.75,0.5,0.75,0.0,1.25,0.25,0.25,0.0,0.5,0.25,0.25,-0.42,0.58,2.2,88.49,13.5,16.7,12.0,4.25,10.5,11.5,14.0,6.75,4.25,3.0,1.25,1.5,2.0,0.75,2.25,0.02,0.33,1.02,1423.57,-11.8,44.2
2.94,0.0,0.5,0.75,0.5,3.5,0.0,1.25,0.0,0.25,0.0,0.0,0.25,0.5,-0.67,1.14,2.7,93.91,6.5,35.9,0.0,4.75,11.0,14.5,15.0,7.25,4.0,3.0,1.75,2.25,2.0,1.0,2.25,0.02,0.33,1.08,1383.54,-7.7,34.5
2.96,0.0,0.5,0.25,0.5,3.0,0.0,1.0,0.0,0.25,0.0,0.5,0.25,0.25,-0.92,2.33,3.08,95.31,5.6,29.9,14.0,4.25,11.0,13.0,14.5,6.75,4.0,2.75,1.0,2.5,1.75,1.0,2.25,0.2,0.45,1.2,1409.12,-12.2,44.9
2.98,0.0,0.25,0.5,1.0,3.5,0.0,1.25,0.0,0.25,0.0,0.5,0.0,0.25,-0.92,3.2,2.64,103.88,6.9,37.0,12.0,5.0,11.0,14.5,12.0,7.0,4.25,2.75,0.0,1.5,1.25,1.0,2.25,0.27,0.52,1.45,1404.29,-12.6,47.5
3.0,0.0,0.5,0.25,0.0,3.5,0.0,1.25,0.0,0.5,0.0,0.5,0.25,0.25,-0.92,4.83,1.08,108.13,4.6,27.3,13.0,5.25,11.0,13.0,12.0,7.0,4.75,2.75,1.0,1.5,0.5,1.0,2.25,0.39,0.64,1.52,1412.4,-12.9,48.1
3.02,0.0,0.5,0.25,0.5,3.0,0.25,1.25,0.0,0.75,0.0,0.5,0.0,0.25,-0.55,6.14,-1.17,111.04,5.4,30.1,11.5,4.5,9.75,11.0,11.0,6.25,5.0,1.25,0.75,3.25,0.75,1.0,2.25,0.77,0.95,2.33,1354.4,-12.4,44.5
3.04,0.0,0.5,0.25,0.5,3.5,1.0,0.75,0.25,0.25,0.25,0.5,0.75,0.25,1.27,6.77,-1.55,119.02,0.5,19.2,9.25,3.25,8.5,7.75,9.0,5.0,3.5,2.0,0.75,1.5,0.75,0.5,2.0,0.83,0.95,2.7,1178.84,-12.5,44.9
3.06,0.0,0.25,0.0,0.5,0.0,0.25,0.75,0.25,0.75,0.5,1.25,1.75,1.5,-1.61,-1.36,2.27,123.58,3.1,-61.7,5.75,1.25,5.5,3.25,6.5,0.25,1.25,1.25,0.5,1.0,0.0,1.0,0.25,0.95,0.52,1.95,803.51,-15.7,47.7
3.08,0.0,0.5,0.25,0.5,0.5,0.25,0.75,1.0,0.75,2.0,1.25,3.25,3.25,1.14,0.33,-0.05,158.83,-0.9,-63.3,1.25,1.0,3.5,2.0,5.0,2.5,1.0,0.0,1.0,2.0,0.0,1.0,0.5,-0.36,0.14,1.52,483.91,-7.2,28.8
3.1,0.0,0.25,0.5,0.5,0.0,1.25,0.75,1.75,0.75,2.75,1.75,5.0,5.5,-0.17,0.2,2.02,217.56,-3.0,-71.7,2.5,1.0,3.25,2.5,5.5,2.5,1.25,0.0,0.75,2.75,0.75,1.0,0.75,0.64,-0.92,3.27,307.49,-7.4,25.9
3.12,0.0,0.5,0.0,0.5,0.0,1.5,1.25,2.25,1.75,2.5,2.5,6.75,6.5,-1.11,0.58,1.89,286.75,-2.3,-73.0,2.75,1.0,3.75,2.0,5.5,0.25,1.25,1.25,0.75,3.0,0.75,1.0,2.0,1.2,-1.23,2.45,233.11,-8.1,14.9
3.14,0.75,0.5,0.0,0.5,3.0,2.75,3.25,5.25,2.25,0.0,3.0,7.75,8.0,0.14,-0.11,0.95,388.61,-1.5,-50.2,2.75,1.0,4.5,2.75,5.5,1.75,1.25,1.0,0.75,3.25,0.5,1.0,2.25,0.77,-0.55,0.64,224.07,-7.5,17.6
3.16,1.25,0.5,2.25,2.75,4.25,5.0,3.5,5.75,3.5,6.5,5.0,7.75,8.0,-0.05,0.2,1.08,587.79,-0.6,-36.9,0.75,0.25,3.25,1.25,4.25,0.5,0.5,0.0,0.5,1.5,0.25,0.25,0.5,0.39,-0.36,0.14,179.4,-9.7,29.8
3.18,1.75,0.0,2.5,3.0,6.0,5.0,4.25,6.25,4.0,7.75,4.75,7.75,8.5,-0.17,-0.05,0.95,795.82,-0.5,-34.1,1.25,0.0,1.75,1.5,3.75,0.25,0.25,0.0,0.5,1.5,0.25,0.5,1.0,0.2,-0.3,0.08,128.57,-7.4,18.4
3.2,1.0,0.0,2.5,2.75,6.5,5.0,4.5,6.25,4.0,6.5,2.75,7.75,7.25,-0.11,-0.05,0.95,931.16,-0.8,-31.0,1.25,0.25,1.75,1.0,3.5,0.0,0.25,0.0,0.5,1.5,0.0,0.5,1.0,0.08,-0.23,0.39,62.05,-7.8,19.2
3.22,2.0,1.5,2.75,3.0,6.5,6.5,4.75,7.25,4.75,7.5,5.75,7.25,8.0,-0.17,-0.05,0.95,1064.8,-0.2,-27.0,1.0,0.5,1.75,1.25,3.5,0.25,0.25,0.0,0.5,1.25,0.0,0.25,1.0,0.08,-0.36,0.89,45.06,-7.5,25.2
3.24,2.25,1.75,3.0,4.0,6.5,7.0,4.75,7.25,4.75,6.75,5.75,6.75,7.75,-0.11,-0.05,1.02,1149.92,0.3,-22.5,1.25,0.75,1.75,0.75,3.0,0.25,0.25,0.0,0.5,1.25,0.0,0.25,1.5,0.14,-0.3,0.95,49.81,-7.3,19.5
3.26,2.5,2.0,3.5,4.5,6.75,7.5,4.75,7.25,4.75,6.25,5.0,5.75,7.0,-0.17,-0.05,0.95,1204.9,0.8,-16.2,1.25,0.25,1.75,0.25,3.5,0.25,0.25,0.25,0.5,1.5,0.0,0.5,1.25,0.2,-0.11,0.95,82.33,-5.6,12.9
3.28,2.75,2.0,3.75,4.75,7.5,7.75,4.75,7.25,4.5,5.25,4.0,4.75,5.75,-0.17,-0.05,0.95,1208.11,1.2,-8.7,1.25,0.25,1.75,0.25,2.75,0.0,0.25,0.0,0.5,1.25,0.0,0.25,1.25,0.08,0.08,1.02,106.52,-8.1,15.5
3.3,2.75,2.0,3.5,5.0,7.75,8.5,4.75,7.25,4.25,4.75,3.75,3.5,5.0,-0.17,-0.05,0.95,1183.19,0.9,-3.7,0.0,0.5,1.75,0.0,2.5,0.25,0.25,0.0,0.5,1.25,0.25,0.25,1.25,0.08,0.2,1.33,116.92,-4.1,2.9
3.32,3.0,2.0,3.75,5.25,8.25,8.5,4.75,7.25,4.0,4.75,3.75,3.0,4.0,-0.17,-0.05,0.95,1126.18,1.4,0.5,1.0,0.25,1.75,0.5,2.75,0.25,0.25,0.0,0.5,1.25,0.0,0.25,1.25,0.2,0.33,1.83,117.25,-7.0,15.1
3.34,3.25,2.0,3.75,5.25,8.5,8.5,4.75,7.0,4.0,4.5,3.75,2.0,3.25,-0.17,-0.05,0.95,1063.49,1.7,4.9,0.75,0.25,1.75,0.0,1.75,0.5,0.25,0.0,0.5,1.25,0.25,0.25,1.25,0.39,0.52,2.02,107.96,-6.3,3.5
3.36,2.0,1.25,4.5,4.25,8.0,8.25,4.5,6.25,3.25,2.75,2.0,1.75,2.0,-0.17,-0.05,0.95,946.04,1.9,10.8,1.0,0.25,1.75,0.5,2.25,0.25,0.25,0.0,0.5,1.25,0.25,0.25,1.5,0.58,0.77,2.52,115.73,-7.2,7.7
3.38,2.0,1.75,3.0,4.75,8.5,8.5,4.75,6.25,3.25,2.75,1.75,1.5,2.0,-0.17,0.02,0.95,841.92,0.8,12.3,1.25,0.5,1.75,1.25,2.75,2.0,0.25,0.0,0.75,1.5,0.0,0.25,1.25,0.7,1.52,2.95,144.4,-4.2,20.2
3.4,2.75,1.75,2.5,5.25,8.75,8.5,4.75,6.25,3.25,2.5,1.75,1.75,2.0,-0.17,0.02,0.95,764.76,1.2,13.5,1.25,1.0,1.75,1.25,1.75,0.5,0.25,0.0,0.75,3.0,0.0,0.25,1.0,0.77,2.52,2.58,173.03,-6.3,10.3
3.42,3.5,2.0,2.75,5.5,9.25,9.0,4.75,6.25,3.25,2.75,1.75,1.25,2.0,-0.11,0.02,0.95,752.69,1.5,16.9,1.5,1.0,1.75,0.5,1.75,0.0,0.25,0.0,0.5,3.5,0.0,0.25,1.0,0.95,4.14,1.89,182.56,-6.2,5.5
3.44,3.5,2.0,3.0,5.5,9.75,9.75,5.0,6.25,3.75,2.75,1.5,1.5,1.5,-0.11,0.02,0.95,771.24,1.6,18.3,0.0,0.5,1.75,0.0,3.75,0.0,0.25,0.0,0.25,1.0,0.25,0.25,1.5,0.89,5.64,-1.05,175.64,-3.5,9.5
3.46,5.25,3.0,4.75,7.0,12.5,10.0,5.5,7.0,3.75,2.75,2.75,2.25,2.25,-0.17,0.02,0.95,886.64,3.6,20.0,1.25,1.25,1.75,1.25,1.0,1.25,0.75,1.25,0.75,3.0,1.25,1.0,2.25,-2.11,6.64,0.27,198.4,-3.4,-12.3
3.48,5.75,3.25,4.75,8.0,13.5,10.5,5.75,7.0,3.75,2.75,2.75,2.0,2.25,-0.11,0.02,0.95,1029.22,3.8,22.5,0.0,1.0,2.0,1.5,1.0,0.0,0.25,1.0,0.25,2.0,0.0,1.0,1.5,-1.36,1.77,1.39,192.91,-5.2,-8.0
3.5,6.25,3.5,5.25,8.75,14.5,11.0,6.0,7.0,3.75,2.75,2.5,2.25,2.25,-0.11,0.02,0.95,1193.2,4.2,24.3,1.0,0.0,2.0,1.5,3.75,2.5,0.25,2.25,0.75,4.5,2.0,3.25,3.75,1.83,-1.55,2.52,255.31,1.0,-27.1
3.52,7.0,3.5,6.0,9.0,15.0,11.0,6.0,6.75,3.5,2.75,2.5,2.0,2.25,-0.11,0.08,0.95,1318.88,4.8,26.6,2.0,0.0,2.0,0.0,3.75,2.5,0.25,2.5,1.0,5.75,2.75,5.75,6.75,0.39,-0.17,0.33,338.5,1.5,-43.5
3.54,7.75,3.5,6.25,9.0,15.5,10.5,5.5,6.75,3.0,2.5,1.5,1.5,2.25,-0.17,0.08,1.02,1378.88,5.1,30.5,2.5,1.0,2.0,0.0,3.75,2.75,0.25,2.25,1.0,6.25,4.0,6.0,8.25,-0.92,0.27,2.02,463.0,1.0,-42.1
3.56,8.75,3.5,6.75,12.0,16.5,11.0,6.25,6.5,2.75,2.75,0.75,2.0,2.0,-0.17,0.14,1.02,1444.5,6.0,33.5,2.75,1.25,1.75,0.0,1.25,3.75,0.25,2.75,2.0,7.75,5.75,8.0,9.25,0.83,0.27,1.83,605.9,1.0,-52.2
3.58,9.5,3.75,7.75,13.0,15.5,11.5,6.25,6.25,2.75,2.75,0.5,1.25,1.75,-0.17,0.14,1.08,1501.74,6.9,37.0,2.25,0.0,1.75,0.0,4.25,4.5,1.0,4.75,2.25,7.75,6.75,7.0,9.5,0.02,0.14,1.27,750.0,2.5,-47.5
3.6,12.5,5.0,7.75,11.5,15.5,11.0,6.25,6.5,2.25,2.75,2.0,2.0,2.0,-0.23,0.2,1.2,1575.41,7.8,36.1,2.0,0.0,1.75,1.5,3.5,3.75,1.25,4.0,2.5,8.25,5.25,6.5,8.5,0.08,0.02,0.95,822.11,1.8,-45.2
3.62,11.5,6.0,8.0,11.0,15.0,10.5,5.5,6.25,1.75,2.75,2.0,2.0,2.0,-0.3,0.27,1.39,1599.57,7.8,36.7,1.25,0.5,3.0,1.25,4.5,4.0,1.5,5.25,2.0,8.0,5.5,6.5,8.5,0.14,0.02,0.95,869.83,1.6,-40.7
3.64,16.0,6.5,8.25,13.0,16.5,10.5,5.5,6.25,1.75,2.75,2.0,1.75,2.25,-0.36,0.33,1.45,1667.04,9.1,40.7,2.0,2.0,2.75,3.75,5.0,5.75,2.0,6.0,2.5,8.5,6.5,7.5,8.5,0.14,0.02,0.95,957.3,0.5,-30.7
3.66,16.0,5.75,8.75,8.75,14.5,8.5,5.75,5.5,1.5,2.5,2.0,2.0,2.25,-0.48,0.52,1.89,1643.26,10.2,40.0,2.25,2.0,3.0,1.5,4.75,4.75,1.25,5.25,2.5,8.75,5.0,7.25,8.5,0.14,0.02,0.89,989.0,0.9,-33.9
3.68,14.0,6.5,8.0,8.5,12.5,8.5,5.5,5.0,1.25,2.5,2.0,1.75,2.0,-1.05,0.77,2.45,1579.86,9.9,40.3,2.0,1.75,1.75,1.5,4.5,5.25,1.75,6.0,2.5,8.75,6.5,7.25,9.25,0.14,0.02,0.95,1018.82,2.1,-38.9
3.7,8.75,3.75,6.5,5.25,9.25,5.75,4.5,3.0,0.75,0.0,1.5,0.25,1.5,-1.05,0.52,2.89,1325.16,11.1,45.9,2.0,1.75,2.5,1.5,5.25,5.75,1.75,6.25,2.75,8.75,6.5,7.25,9.25,0.14,0.02,0.95,1028.09,1.8,-35.7
3.72,5.75,0.5,2.5,2.75,6.75,3.5,0.5,1.25,0.75,0.0,0.0,0.25,0.5,-1.3,0.14,2.45,863.16,9.1,50.1,0.75,0.75,1.75,1.25,3.75,4.75,1.25,5.75,2.5,8.25,4.75,6.5,8.25,0.14,0.02,0.95,963.19,3.5,-43.9
3.74,1.0,0.25,0.0,1.5,0.75,1.25,0.0,0.0,0.75,0.0,0.5,0.25,0.5,-0.48,-0.23,1.64,394.67,6.2,21.4,2.75,1.75,2.0,1.5,3.75,5.5,2.5,6.25,2.5,7.5,5.25,5.75,8.5,0.2,0.02,0.95,893.95,1.5,-32.8
3.76,0.75,0.25,0.0,1.5,3.5,1.25,1.25,0.0,0.0,0.0,0.5,0.25,0.25,-0.67,0.2,2.33,171.16,4.0,39.1,1.5,1.0,1.75,1.25,4.25,5.25,1.75,6.0,2.5,7.0,4.0,5.25,7.5,0.14,0.02,0.95,803.83,3.0,-34.8
3.78,0.25,0.5,0.25,1.75,0.0,1.0,1.25,0.0,0.0,0.0,0.5,0.25,0.5,-1.05,-1.42,3.2,0.0,9.6,22.0,1.25,0.75,2.0,1.5,5.25,6.25,2.25,6.0,2.75,6.5,4.0,4.5,7.0,0.14,0.02,0.95,745.99,3.0,-29.1
3.8,0.0,0.5,1.0,0.75,2.5,1.25,1.25,0.0,0.0,0.0,0.25,0.25,0.25,-1.05,-0.86,1.58,0.0,5.6,38.3,1.25,0.75,2.0,2.0,6.0,7.0,2.5,6.25,3.25,6.0,3.0,3.75,6.0,0.14,0.02,0.95,694.38,3.0,-21.5
3.82,0.0,0.5,1.0,1.0,4.5,1.25,1.0,0.0,0.25,0.0,0.5,0.25,0.25,-0.67,-0.61,0.7,0.0,3.9,37.8,3.25,2.25,2.5,3.75,6.5,7.75,3.0,6.25,3.25,6.25,4.0,3.75,6.0,0.14,0.02,0.95,736.41,0.3,-10.6
3.84,0.0,0.5,0.25,1.0,3.0,1.25,1.0,0.0,0.0,0.0,0.5,0.25,0.25,-0.36,-0.36,0.39,0.0,1.9,34.5,3.25,2.25,4.5,4.5,8.0,8.0,3.5,7.0,3.25,6.0,3.75,2.5,5.0,0.14,0.02,0.95,809.4,-1.0,-1.3
3.86,0.0,0.5,0.75,0.5,1.75,1.25,1.0,0.0,0.0,0.0,0.5,0.25,0.25,-0.3,-0.23,0.33,0.0,4.7,30.5,4.0,2.25,4.75,5.75,8.75,8.25,4.0,7.0,3.25,5.75,3.0,2.5,4.75,0.14,0.02,0.95,900.5,-1.8,3.8
3.88,0.0,0.5,0.5,0.5,2.25,1.25,1.0,0.0,0.25,0.0,0.5,0.25,0.25,-0.42,-0.17,0.7,0.0,3.1,28.8,5.0,2.5,4.75,6.0,9.0,8.5,4.5,6.5,3.25,5.5,2.75,2.5,3.75,0.2,0.02,0.95,973.13,-2.9,9.0
3.9,0.0,0.5,0.5,0.5,0.0,1.25,1.0,0.0,0.5,0.0,0.5,0.0,0.25,-0.48,-0.23,1.02,0.0,7.0,18.4,5.25,2.75,5.25,7.75,10.5,8.5,4.5,6.25,3.25,5.25,2.75,2.25,3.25,0.2,0.02,1.02,1060.95,-3.8,14.5
3.92,0.0,0.5,0.25,0.5,3.5,1.25,0.75,0.0,0.0,0.0,0.5,0.25,0.0,-0.48,-0.11,1.08,0.0,0.5,39.3,5.75,3.5,5.25,9.75,12.0,9.25,4.75,6.0,2.75,3.75,2.5,1.5,3.25,0.14,0.02,1.02,1142.25,-4.4,22.7
3.94,0.0,0.5,0.0,0.5,1.75,1.25,0.75,0.0,0.25,0.0,0.5,0.0,0.5,-0.55,-0.05,1.39,39.78,-0.9,23.4,7.75,3.5,5.75,13.0,13.5,9.5,4.5,6.25,2.25,3.5,2.75,1.5,3.5,0.14,0.08,1.02,1281.24,-5.6,26.8
3.96,0.0,0.5,0.75,0.5,2.25,1.0,0.75,0.0,0.25,0.0,0.0,0.0,0.25,-0.48,0.08,1.58,81.77,4.1,43.7,8.75,4.25,7.0,13.0,15.0,10.0,4.25,6.25,2.25,3.5,2.75,1.5,3.25,0.08,0.14,1.14,1406.4,-6.2,29.9
3.98,0.0,0.5,0.0,0.5,2.5,1.0,0.75,0.0,0.25,0.0,0.5,0.0,0.25,-0.48,0.33,1.64,96.15,0.1,32.7,9.75,5.0,7.25,14.5,16.5,10.0,3.5,6.25,1.25,3.5,2.5,1.25,3.25,0.08,0.14,1.14,1517.46,-6.4,33.8
4.0,0.0,0.25,0.0,0.5,0.75,0.25,0.75,0.0,0.25,0.0,0.5,0.0,0.25,-0.55,0.45,1.89,79.41,6.2,14.1,11.0,4.5,7.75,16.0,16.5,10.0,3.5,6.0,0.75,2.5,2.0,1.0,3.25,0.02,0.2,1.14,1599.13,-7.4,37.9
4.02,0.0,0.25,0.0,0.5,2.25,0.25,0.75,0.0,0.25,0.0,0.75,0.0,0.25,-0.67,0.52,2.33,75.0,3.3,23.1,11.0,4.75,8.75,15.0,17.0,9.25,3.5,5.25,1.25,1.75,2.25,0.25,3.25,0.39,0.33,1.39,1633.75,-8.3,40.5
4.04,0.0,0.25,0.0,0.5,3.0,0.0,0.5,0.0,0.0,0.0,0.25,0.0,0.0,-0.8,0.64,2.95,67.27,2.3,48.5,11.0,0.0,8.75,15.5,15.0,8.5,4.25,3.25,0.25,2.5,0.5,0.75,1.75,0.33,0.39,1.39,1562.89,-9.7,43.2
4.06,0.0,0.25,0.25,0.25,0.5,0.0,0.25,0.0,0.0,0.0,0.5,0.0,0.25,-0.98,0.89,3.52,53.57,9.5,11.6,11.0,5.25,9.5,14.5,13.0,8.0,5.25,2.75,0.75,1.5,0.25,0.25,1.5,0.14,0.45,1.64,1489.7,-11.6,50.6
4.08,0.0,0.25,0.25,0.5,3.0,0.0,0.0,0.0,0.0,0.0,0.0,0.0,0.5,-0.8,2.2,2.7,59.51,0.7,39.9,11.0,5.25,9.5,13.5,12.0,7.75,6.25,2.0,0.25,0.75,0.5,0.25,2.5,0.33,0.77,1.64,1406.4,-12.2,50.5
4.1,0.0,0.25,0.0,0.5,2.5,0.25,0.0,0.25,0.0,0.0,0.0,0.0,0.0,-0.05,5.14,1.45,60.71,-1.6,50.2,9.5,3.5,8.75,11.0,10.5,7.0,6.75,1.25,0.0,1.5,0.5,0.25,1.5,0.27,1.08,2.45,1285.93,-12.5,50.1
4.12,0.5,0.25,0.0,0.75,0.0,1.0,0.25,0.0,0.5,0.0,0.25,0.0,0.25,2.83,7.95,-0.48,59.74,5.7,24.2,8.25,1.5,7.75,7.75,8.0,5.75,5.75,1.25,0.25,0.5,0.5,0.0,1.5,0.39,0.7,2.95,1040.96,-13.3,49.5
4.14,1.0,0.5,0.0,0.5,0.0,1.0,0.5,0.0,0.5,0.0,0.5,0.0,0.25,1.52,5.14,1.64,61.35,9.5,29.0,6.25,0.5,5.5,4.0,6.25,4.5,3.0,0.5,0.25,0.25,0.25,0.0,0.5,0.33,0.27,2.77,732.36,-13.3,53.7
4.16,2.0,0.5,1.0,0.75,0.0,1.25,0.5,0.25,0.75,0.0,0.25,0.0,0.25,-0.8,1.33,2.89,78.56,15.4,42.7,3.0,0.0,3.0,1.25,3.75,3.25,1.25,0.0,0.25,0.0,0.0,0.0,0.5,0.33,0.08,1.52,412.18,-10.6,51.7
4.18,3.0,1.5,1.5,2.75,0.0,2.75,0.5,2.25,1.75,2.25,2.0,2.0,2.25,-2.55,-7.36,4.45,174.46,5.3,-6.6,1.25,0.0,2.0,1.25,2.25,2.25,1.25,0.0,0.25,0.0,0.0,0.0,0.5,1.08,-0.23,3.64,212.73,-9.4,44.9
4.2,5.0,1.75,2.75,3.0,4.75,2.5,1.25,2.25,1.75,1.5,2.75,2.25,2.25,-0.55,-0.8,0.14,289.15,8.1,12.2,1.25,0.0,1.0,1.25,3.5,2.75,1.0,0.0,0.25,0.0,0.0,0.25,0.5,0.02,-1.73,3.39,72.19,-3.7,41.0
4.22,6.25,2.0,4.5,3.75,2.25,2.75,2.0,2.5,2.25,1.25,3.0,2.0,3.0,-0.55,0.39,2.39,420.12,11.2,13.2,1.25,0.25,1.25,1.25,3.75,2.5,0.75,0.75,0.25,0.0,0.0,0.75,0.5,0.08,-0.61,1.95,1.66,-3.6,32.9
4.24,7.0,2.0,5.5,4.75,3.5,2.75,3.0,2.25,2.5,1.25,2.75,2.0,2.25,-0.23,-0.8,0.52,560.42,12.8,21.6,1.25,0.25,1.25,1.25,2.75,2.25,0.75,1.0,0.25,0.0,0.5,0.25,1.25,0.39,-0.05,0.64,0.0,-3.4,22.6
4.26,8.5,3.25,6.25,5.25,4.75,3.0,4.25,2.25,3.0,2.5,3.0,2.0,2.25,-0.36,-0.17,1.14,706.83,12.7,24.4,1.25,0.0,0.5,1.25,2.75,2.25,0.5,0.5,0.25,0.25,0.0,0.25,0.5,0.33,0.45,0.33,0.0,-1.7,32.9
4.28,9.5,3.5,7.5,5.5,5.5,3.75,4.75,2.25,3.25,2.5,2.75,2.0,2.25,-0.3,-0.48,0.7,846.95,13.1,27.8,1.25,0.0,0.5,1.25,2.75,1.5,0.25,0.75,0.25,0.0,0.25,0.25,0.5,0.14,1.02,0.52,0.0,-3.3,31.1
4.3,10.5,0.0,8.75,7.0,5.75,4.0,5.5,2.75,3.25,2.5,2.5,1.75,2.0,-0.3,-0.3,0.95,959.19,14.0,27.3,1.25,0.25,0.5,1.25,1.75,1.75,0.25,0.0,0.25,0.25,0.25,0.25,0.5,0.02,1.58,0.39,0.0,-4.9,33.2
4.32,12.5,5.0,9.75,7.25,6.75,5.0,6.75,3.5,3.75,2.75,2.5,2.0,2.0,-0.3,-0.23,0.83,1134.97,13.7,33.8,1.25,0.25,0.5,1.25,2.5,1.25,0.25,0.25,0.25,0.25,0.25,0.25,0.25,0.08,1.77,0.08,12.37,-5.5,37.3
4.34,14.0,5.5,10.5,8.75,8.25,5.0,7.75,3.75,4.0,2.5,2.75,2.0,2.25,-0.36,-0.42,0.83,1324.02,14.1,35.7,1.25,0.0,0.25,1.25,1.75,1.5,0.25,0.0,0.25,0.25,0.0,0.25,0.0,0.2,1.89,-0.3,36.09,-5.5,44.0
4.36,16.0,0.0,11.5,11.0,8.5,5.0,8.5,4.0,4.25,2.75,2.75,2.0,2.25,-0.3,-0.36,0.83,1437.67,14.9,32.7,1.0,0.25,0.5,1.0,1.5,1.25,0.75,0.0,0.25,0.0,0.25,0.25,0.5,-0.05,2.7,-0.23,64.65,-7.3,33.0
4.38,17.0,6.5,12.5,11.5,8.5,5.75,9.5,4.75,4.75,2.75,2.0,2.0,2.25,-0.3,-0.3,1.02,1571.0,14.8,39.0,1.0,0.5,0.5,0.0,2.25,1.5,0.25,0.0,0.0,0.0,0.5,0.25,0.5,0.58,7.39,-2.8,86.76,-3.0,33.2
4.4,17.0,7.75,14.0,13.0,9.75,6.5,10.5,5.25,4.75,2.75,2.25,2.0,2.25,-0.17,0.02,1.14,1703.78,14.5,39.9,1.25,0.25,0.5,1.0,1.75,1.25,0.25,0.0,0.25,0.0,0.25,0.0,0.5,1.45,-1.05,0.89,101.7,-6.9,40.9
4.42,19.0,9.0,15.5,14.5,9.25,6.5,11.0,5.0,4.5,2.75,2.0,2.0,2.25,0.08,0.45,1.27,1828.26,15.5,42.9,1.0,0.5,0.25,0.5,1.5,1.25,0.25,0.0,0.25,0.0,0.0,0.0,0.5,-0.11,3.08,-3.05,98.07,-4.1,42.9
4.44,19.5,9.5,16.0,14.5,11.5,6.5,11.5,4.75,4.25,2.75,2.0,1.75,2.0,0.14,-0.8,1.33,1937.76,15.5,44.9,0.75,0.5,0.5,0.25,1.5,1.25,0.25,0.0,0.0,0.25,0.25,0.0,0.75,-0.23,0.58,-0.42,92.49,-2.2,28.6
4.46,19.5,10.5,17.0,16.5,12.0,7.0,11.5,5.0,4.25,2.75,2.5,2.0,2.0,-0.55,-0.61,1.27,2051.16,15.3,44.8,0.5,0.25,0.5,0.5,1.5,1.25,0.25,0.0,0.0,0.25,0.25,0.0,0.5,-1.05,0.27,0.77,85.99,-1.9,30.2
4.48,21.0,11.0,18.5,16.5,13.0,6.75,12.0,5.0,4.25,2.5,1.5,1.75,2.0,-0.61,0.14,1.45,2136.59,15.9,47.6,0.5,0.0,0.5,0.5,1.75,1.25,0.25,0.0,0.0,0.25,0.0,0.0,1.25,-0.36,-0.8,0.7,86.75,0.9,15.5
4.5,21.5,12.0,18.5,16.5,12.5,6.25,12.0,4.25,4.0,2.5,2.25,1.75,2.0,-0.73,0.7,1.52,2187.92,16.4,48.3,1.25,0.25,0.5,0.5,1.75,1.25,0.25,0.0,0.0,0.0,0.25,0.0,1.0,0.02,-1.23,1.02,93.87,-4.4,31.4
4.52,21.0,10.5,18.5,16.0,9.75,5.0,12.0,3.25,2.75,2.0,2.25,1.75,2.0,0.08,3.95,1.39,2151.5,18.0,49.8,1.25,0.25,0.25,0.5,1.75,1.25,0.25,0.0,0.0,0.25,0.0,0.0,1.5,-0.11,-1.86,1.14,101.77,-1.1,20.3
4.54,10.0,3.75,17.0,5.5,5.75,0.0,11.5,1.0,1.5,0.0,1.5,0.25,1.5,2.64,7.95,-0.61,1787.38,23.9,51.5,1.25,0.0,0.25,0.5,1.75,1.25,0.25,0.0,0.0,0.0,0.25,0.0,1.0,-0.92,-1.3,0.83,104.79,-2.8,27.6
4.56,5.5,2.0,9.0,4.5,3.5,0.0,7.25,0.0,0.75,0.0,0.25,0.25,0.75,-3.73,0.2,2.95,1266.44,24.2,55.2,1.25,0.5,0.25,0.5,1.75,1.25,0.25,0.0,0.0,0.0,0.0,0.0,0.5,-1.23,-0.67,-0.11,105.11,-4.6,48.6
4.58,1.75,0.75,5.25,2.75,2.25,0.0,3.0,0.0,0.75,0.0,0.5,0.0,0.25,6.08,1.89,0.52,606.39,22.9,50.4,1.25,0.75,0.25,0.5,1.75,1.25,0.25,0.0,0.0,0.25,0.0,0.0,0.5,-1.42,0.45,-1.11,107.6,-4.2,45.9
4.6,1.75,0.5,4.5,2.5,1.75,0.25,2.75,0.0,0.75,0.0,0.0,0.0,0.0,-3.55,3.02,4.45,264.31,23.7,56.0,1.0,0.25,0.5,1.25,2.25,1.25,0.25,0.0,0.0,0.25,0.25,0.0,0.75,-1.55,1.27,-2.05,115.43,-4.2,34.8
4.62,0.75,0.5,3.0,2.25,3.5,0.25,2.5,0.0,0.75,0.0,0.0,0.0,0.25,-0.67,0.64,3.02,67.06,16.3,49.0,2.0,0.75,0.5,0.5,2.25,1.75,0.25,0.0,0.0,0.25,0.25,0.0,0.75,-0.86,1.27,-1.92,130.07,-5.3,42.7
4.64,0.75,0.5,3.0,1.5,2.5,0.25,1.25,0.0,0.75,0.0,0.0,0.0,0.25,-0.55,0.89,1.33,0.0,17.5,49.1,1.25,0.25,0.5,0.0,2.25,2.0,0.25,0.0,0.0,0.0,0.0,0.0,2.25,0.02,1.08,-1.17,139.05,1.7,13.9
4.66,0.5,0.5,2.25,1.25,3.5,0.25,1.25,0.0,0.75,0.0,0.0,0.0,0.0,-0.55,0.77,1.08,0.0,14.0,51.4,0.5,0.0,0.25,0.0,2.5,2.5,0.0,0.0,0.0,0.0,0.0,0.0,1.25,0.77,0.77,-0.86,137.13,7.5,21.3
4.68,0.0,0.5,2.25,0.75,3.0,0.25,1.25,0.0,0.5,0.0,0.25,0.0,0.0,-0.11,0.45,1.52,0.0,13.8,47.4,1.25,0.25,0.25,0.5,3.0,2.75,0.0,0.0,0.0,0.0,0.0,0.0,0.5,1.33,1.2,-0.98,139.45,1.7,45.9
4.7,0.0,0.5,2.25,0.5,2.25,0.0,1.25,0.0,0.5,0.0,0.0,0.0,0.5,-0.05,0.33,1.89,0.0,15.0,40.0,2.0,0.0,0.25,0.0,3.0,2.75,0.0,0.0,0.0,0.0,0.25,0.0,1.0,2.2,2.7,-1.05,143.67,0.7,36.0
4.72,0.0,0.5,2.25,0.5,3.5,0.0,1.25,0.0,0.25,0.0,0.25,0.0,0.0,-0.05,0.08,1.95,0.0,13.6,50.3,2.0,0.25,0.5,0.25,3.75,2.75,0.0,0.0,0.0,0.0,0.0,0.25,2.0,1.7,3.14,-0.23,161.64,0.5,26.5
4.74,0.0,0.5,2.25,0.5,2.5,0.0,1.25,0.0,0.5,0.0,0.0,0.0,0.25,-0.11,-0.11,1.89,0.0,15.3,45.6,1.0,0.75,0.25,0.0,2.25,1.75,0.0,0.0,0.0,0.0,0.0,0.0,1.0,1.2,2.27,0.2,153.92,1.1,36.7
4.76,0.0,0.5,2.5,0.5,1.75,0.25,1.0,0.0,0.25,0.0,0.0,0.0,0.25,-0.3,-0.67,1.83,0.0,17.0,48.1,1.0,0.0,0.25,0.75,1.0,1.25,0.0,0.0,0.0,0.0,0.0,0.0,0.75,0.58,0.7,-0.23,134.6,-2.8,33.4
4.78,0.0,0.5,2.25,0.5,3.5,0.25,1.25,0.0,0.25,0.0,0.0,0.0,0.25,-0.48,-1.48,1.89,55.45,11.9,48.7,1.25,0.25,0.25,0.5,1.0,1.25,0.0,0.0,0.0,0.0,0.0,0.0,0.5,-0.3,-1.86,0.08,108.92,-4.9,45.7
4.8,0.0,0.5,2.25,0.5,1.75,0.25,1.25,0.0,0.25,0.0,0.0,0.0,0.0,-0.42,-2.92,1.89,85.96,17.7,53.5,0.25,0.75,0.25,0.5,0.25,1.25,0.25,0.0,0.0,0.0,0.0,0.0,0.5,-1.8,-4.05,0.14,83.02,-1.4,37.9
4.82,0.25,0.5,2.25,0.5,3.5,0.25,1.25,0.0,0.25,0.0,0.0,0.0,0.0,-0.05,-3.8,1.52,110.79,13.2,54.7,1.0,0.25,0.25,0.75,0.5,1.25,0.0,0.0,0.0,0.25,0.0,0.0,0.5,-3.73,-3.48,-0.23,69.59,-4.0,36.5
4.84,0.0,0.5,2.25,0.5,3.5,0.25,1.25,0.0,0.25,0.0,0.0,0.25,0.75,0.39,-3.17,0.52,123.19,10.4,35.9,2.0,0.5,0.25,0.5,0.5,1.25,0.25,0.0,0.0,0.25,0.0,0.0,0.5,-3.42,-1.05,-0.42,70.6,-9.4,48.0
4.86,0.0,0.5,2.0,0.5,3.5,0.25,1.25,0.0,0.25,0.0,0.0,0.25,0.25,0.64,-1.98,-0.61,133.6,11.0,43.8,1.0,0.25,0.25,0.5,0.5,1.25,0.25,0.0,0.0,0.0,0.0,0.0,0.5,-2.11,0.2,-0.86,68.75,-5.2,41.4
4.88,0.0,0.5,2.0,0.25,2.5,0.25,1.25,0.0,0.0,0.0,0.0,0.0,0.5,0.2,-0.48,-0.73,130.55,12.3,44.4,1.25,0.5,1.0,0.5,0.5,1.25,0.25,0.0,0.0,0.0,0.0,0.0,0.5,-0.8,0.64,-1.17,74.25,-11.3,49.0
4.9,0.0,0.5,2.0,0.5,0.0,0.0,1.25,0.0,0.0,0.0,0.0,0.25,0.25,-0.42,1.14,-1.73,109.96,26.7,39.9,1.25,0.25,0.25,0.75,1.25,1.5,0.0,0.0,0.0,0.0,0.0,0.0,1.25,0.14,0.58,-1.23,82.0,-1.9,27.9
4.92,0.0,0.5,2.25,0.5,0.0,0.0,1.25,0.0,0.25,0.0,0.0,0.25,0.25,-0.11,3.58,-3.3,91.74,26.6,36.9,0.5,0.5,0.25,1.0,1.5,1.75,0.0,0.0,0.0,1.5,0.0,0.75,0.5,1.02,0.83,-1.23,97.65,1.9,8.3
4.94,0.0,0.5,2.25,0.5,0.0,0.0,1.25,0.0,0.0,0.0,0.0,0.25,0.25,-0.11,5.27,-4.67,75.07,27.4,41.1,1.5,1.25,0.5,1.5,3.75,2.75,0.25,0.0,0.0,1.75,0.75,0.75,1.75,1.02,1.02,-0.86,153.82,-0.2,14.4
4.96,0.0,0.5,2.0,0.5,2.25,0.0,1.25,0.0,0.0,0.0,0.0,0.25,0.25,0.95,2.83,-2.67,80.64,15.2,45.1,1.5,1.0,0.5,1.25,3.75,2.75,0.25,0.0,0.0,1.0,0.75,0.75,2.5,0.7,1.27,-0.86,199.51,0.1,10.7
4.98,0.0,0.5,2.0,0.5,3.5,0.0,1.25,0.0,0.25,0.0,0.0,0.0,0.25,0.27,1.02,-1.11,98.36,12.0,48.7,1.75,1.25,0.5,1.5,3.75,2.75,0.5,0.0,0.0,1.75,1.0,0.75,2.0,0.52,1.33,-0.86,242.87,-0.8,12.6
5.0,0.0,0.5,1.75,0.5,2.5,0.25,1.25,0.0,0.0,0.0,0.0,0.0,0.25,-0.05,0.33,-0.61,108.62,12.5,50.1,1.75,1.0,0.5,1.25,3.75,2.75,0.25,0.0,0.0,1.75,1.0,0.75,1.75,0.33,1.14,-0.86,259.81,-0.4,12.3
5.02,0.0,0.5,1.75,0.5,3.0,0.25,1.25,0.0,0.0,0.0,0.0,0.0,0.25,0.02,-0.17,-0.3,115.28,11.2,50.3,1.25,1.25,0.5,1.5,3.75,1.5,0.25,1.25,0.0,0.0,0.75,0.0,1.75,0.14,0.83,-0.8,258.45,-1.6,24.4
5.04,0.0,0.5,1.75,0.5,3.5,0.25,1.25,0.0,0.0,0.0,0.0,0.25,0.25,0.08,-0.17,-0.17,122.7,10.1,45.7,1.75,1.25,0.5,1.5,3.75,2.5,0.25,1.25,0.0,1.75,1.0,0.75,1.25,-0.05,0.7,-0.67,262.1,-0.3,13.9
5.06,0.0,0.5,1.5,0.5,3.0,0.25,1.25,0.0,0.0,0.0,0.0,0.25,0.0,0.14,0.2,-0.11,121.65,11.1,50.2,1.5,1.25,0.5,1.5,0.5,2.75,0.25,1.0,0.0,2.0,0.25,0.75,1.0,-0.23,0.7,-0.61,245.82,-0.1,8.1
5.08,0.0,0.5,1.25,0.5,1.75,0.25,1.25,0.0,0.0,0.0,0.0,0.0,0.25,0.14,0.52,-0.11,112.77,12.5,48.5,1.75,1.0,0.25,1.25,3.75,2.75,0.25,1.25,0.0,1.5,1.0,0.75,1.75,-0.23,0.64,-0.67,251.24,1.1,9.2
5.1,0.0,0.5,1.0,0.5,2.25,0.25,1.25,0.0,0.0,0.0,0.25,0.0,0.25,0.33,0.83,0.02,108.11,9.8,43.5,1.75,1.25,0.5,1.5,3.75,2.75,0.25,1.25,0.0,1.75,0.75,0.0,2.0,-0.11,0.58,-0.73,254.2,1.0,15.2
5.12,0.0,0.5,1.25,0.25,1.75,0.25,1.25,0.0,0.0,0.0,0.0,0.0,0.25,0.52,1.14,0.08,99.77,12.3,48.0,1.5,0.25,0.5,0.5,3.75,1.25,0.25,1.25,0.0,0.25,0.75,0.25,1.75,-0.23,0.64,-0.86,239.51,-0.3,12.1
5.14,0.0,0.25,1.5,0.5,2.5,0.25,1.25,0.0,0.0,0.0,0.0,0.0,0.25,0.77,1.52,0.02,100.03,11.4,47.6,0.5,0.75,0.25,1.25,1.25,2.75,0.0,0.0,0.0,1.75,0.0,0.0,1.25,-0.17,0.64,-1.11,206.6,5.1,10.7
5.16,0.0,0.5,1.25,0.5,0.75,0.25,1.25,0.0,0.0,0.0,0.0,0.25,0.25,0.7,2.14,-0.11,89.12,16.4,38.6,0.25,0.25,0.5,0.5,1.5,1.25,0.25,0.0,0.0,0.25,0.0,0.0,1.25,-0.17,0.64,-1.11,155.48,1.6,14.1
5.18,0.0,0.5,1.25,0.5,0.0,0.25,1.25,0.0,0.0,0.0,0.0,0.0,0.25,0.52,2.2,-0.36,75.59,22.0,45.6,1.0,0.0,0.25,1.25,3.75,2.0,0.25,1.25,0.25,1.75,1.0,0.0,2.5,-0.23,0.58,-1.05,154.37,3.7,-4.0
5.2,0.0,0.5,1.0,0.5,0.0,0.25,1.25,0.0,0.0,0.0,0.0,0.25,0.0,0.39,2.2,-0.55,58.04,22.5,44.8,1.25,1.25,0.5,1.25,3.75,2.75,0.25,1.25,0.25,1.75,1.5,0.75,1.75,-0.23,0.64,-0.98,182.75,0.9,5.0
5.22,0.0,0.25,1.0,0.5,1.25,0.25,1.25,0.0,0.0,0.0,0.25,0.25,0.5,0.52,2.14,-0.42,57.66,11.5,23.2,2.25,1.5,0.5,1.25,3.75,2.75,0.25,1.25,0.25,1.75,1.0,0.75,2.25,-0.23,0.77,-1.05,226.62,-0.2,9.6
5.24,0.0,0.5,1.0,0.5,0.75,0.25,1.25,0.0,0.0,0.0,0.25,0.25,0.0,0.52,1.95,-0.23,58.37,16.6,39.7,1.25,1.25,0.5,1.5,3.75,2.75,0.25,1.25,0.25,1.75,1.0,0.75,2.0,-0.36,1.02,-1.11,251.24,1.2,6.2
5.26,0.0,0.5,1.0,0.5,1.25,0.25,1.25,0.0,0.0,0.0,0.25,0.25,0.75,0.52,1.7,-0.17,68.25,10.4,20.6,2.0,1.25,0.5,1.5,3.75,2.75,0.25,1.25,0.25,1.75,1.25,0.75,2.0,-0.3,1.14,-1.17,268.13,-0.2,8.5
5.28,0.0,0.5,1.0,0.5,0.0,0.25,1.25,0.0,0.0,0.0,0.0,0.25,0.25,0.45,1.39,-0.17,64.56,19.8,33.1,1.5,1.25,0.5,1.5,3.75,2.75,0.25,1.25,0.25,1.75,1.25,0.75,1.5,-0.23,1.14,-1.3,268.16,0.2,9.5
5.3,0.0,0.25,1.0,0.5,0.0,0.25,1.25,0.0,0.0,0.0,0.25,0.25,0.0,0.39,1.14,-0.11,60.38,22.4,31.0,2.0,1.25,0.25,1.5,0.5,2.75,0.0,0.0,0.25,1.75,0.0,0.75,0.75,-0.23,1.2,-1.23,243.79,-2.4,19.5
5.32,0.0,0.5,1.0,0.5,0.0,0.25,1.0,0.0,0.0,0.0,0.0,0.0,0.25,0.33,0.95,-0.05,52.46,20.2,45.0,2.5,1.25,0.5,1.5,3.75,2.75,0.25,1.25,0.25,1.75,1.5,0.75,2.0,-0.3,1.14,-1.11,250.74,-1.1,9.6
5.34,0.0,0.5,1.0,0.25,0.0,0.25,1.25,0.0,0.0,0.0,0.25,0.0,0.25,0.27,0.95,-0.11,48.21,20.2,34.0,2.0,1.0,0.5,1.5,3.75,2.75,0.25,1.25,0.25,1.75,1.0,0.75,1.5,-0.3,1.02,-0.98,254.67,-0.3,11.6
5.36,0.0,0.5,1.0,0.5,0.0,0.25,1.25,0.0,0.0,0.0,0.0,0.0,0.5,0.27,1.08,-0.3,48.31,18.1,32.7,1.5,1.25,0.5,1.25,3.75,2.75,0.25,1.0,0.25,1.75,0.75,0.75,1.75,-0.3,0.77,-0.86,264.79,0.7,10.1
5.38,0.0,0.5,1.0,0.5,0.0,0.25,1.25,0.0,0.0,0.0,0.25,0.25,0.25,0.39,1.08,-0.55,51.33,19.2,25.9,1.5,1.25,0.5,1.75,3.75,2.75,0.25,1.25,0.25,1.75,1.5,0.75,1.75,-0.11,0.52,-0.8,268.89,0.0,7.5
5.4,0.0,0.5,1.0,0.5,1.25,0.25,1.25,0.0,0.0,0.0,0.25,0.25,0.25,0.45,1.08,-0.61,64.4,12.8,33.7,1.5,1.0,0.5,1.5,3.75,2.75,0.25,1.0,0.25,1.75,1.5,0.75,2.0,-0.05,0.33,-0.61,269.27,0.4,4.6
5.42,0.0,0.25,1.0,0.5,1.75,0.25,1.25,0.0,0.0,0.0,0.25,0.25,0.0,0.39,0.95,-0.55,74.45,12.3,39.8,1.5,1.25,0.5,1.5,3.75,2.75,0.25,1.0,0.25,1.75,1.5,0.75,1.75,0.02,0.2,-0.61,261.41,0.0,7.4
5.44,0.0,0.5,1.0,0.5,1.75,0.25,1.0,0.0,0.0,0.0,0.0,0.0,0.25,0.2,0.7,-0.42,82.08,10.8,48.4,2.0,1.0,0.5,1.5,3.75,2.75,0.25,1.0,0.25,1.75,0.75,0.75,1.75,0.02,0.14,-0.67,257.56,-0.2,11.8
5.46,0.0,0.25,1.0,0.5,1.75,0.25,1.25,0.0,0.0,0.0,0.25,0.25,0.0,0.2,0.58,-0.36,85.53,12.3,39.8,1.25,1.25,0.5,1.25,3.75,2.75,0.25,1.25,0.25,1.75,1.5,0.75,1.75,-0.05,0.02,-0.67,258.08,0.9,5.0
5.48,0.0,0.5,1.0,0.5,1.25,0.25,1.25,0.0,0.0,0.0,0.0,0.0,0.0,0.27,0.33,-0.23,84.88,14.7,56.5,1.75,1.0,0.5,1.5,3.5,2.75,0.25,1.0,0.25,1.75,1.0,0.75,1.75,-0.17,0.02,-0.67,256.07,0.0,8.8
5.5,0.0,0.25,1.0,0.25,2.5,0.25,1.25,0.0,0.0,0.0,0.25,0.25,0.25,0.27,0.08,-0.36,90.51,8.7,34.6,1.25,1.25,0.25,1.5,3.75,2.75,0.25,1.0,0.25,1.5,1.25,0.75,1.75,-0.23,-0.11,-0.73,253.7,1.0,7.8
5.52,0.0,0.5,0.75,0.25,2.25,0.25,1.25,0.0,0.0,0.0,0.25,0.25,0.25,0.27,-0.17,-0.42,95.49,8.2,35.4,1.75,1.25,0.75,1.5,3.75,2.75,0.25,1.0,0.25,1.75,1.5,0.75,1.5,-0.23,-0.36,-0.8,257.73,-1.0,10.9
5.54,0.0,0.25,0.75,0.5,2.5,0.25,1.25,0.0,0.0,0.0,0.25,0.25,0.0,0.2,-0.36,-0.42,100.06,8.8,40.9,1.75,1.0,0.5,1.5,3.75,2.75,0.25,1.0,0.25,1.75,1.5,0.75,1.5,-0.17,-0.42,-0.73,259.31,-0.3,8.9
5.56,0.0,0.5,0.75,0.25,2.5,0.25,1.25,0.0,0.0,0.0,0.5,0.25,0.25,0.2,-0.61,-0.36,103.37,7.8,31.9,1.25,1.25,0.5,1.5,3.75,2.75,0.25,1.0,0.25,1.75,1.5,0.75,1.75,-0.23,-0.48,-0.67,256.05,0.5,6.3
5.58,0.0,0.25,1.0,0.5,2.5,0.25,1.25,0.0,0.0,0.0,0.25,0.0,0.0,0.2,-0.73,-0.23,104.03,10.1,48.3,1.25,1.25,0.5,1.25,3.5,2.75,0.25,1.0,0.25,1.5,1.25,0.75,1.75,-0.3,-0.48,-0.61,253.12,0.6,7.1
5.6,0.0,0.5,1.0,0.5,2.5,0.25,1.0,0.0,0.0,0.0,0.25,0.25,0.0,0.14,-0.8,0.02,104.69,9.7,44.5,2.0,1.25,0.75,1.75,3.75,2.75,0.25,1.0,0.0,1.5,1.0,0.75,1.5,-0.36,-0.48,-0.55,254.64,-1.5,16.7
5.62,0.5,0.5,0.5,0.25,1.75,0.25,1.0,0.0,0.0,0.0,0.25,0.25,0.25,0.08,-0.98,0.08,99.3,9.8,37.9,1.25,1.25,0.5,1.5,3.75,2.75,0.25,1.25,0.0,1.5,1.25,0.75,1.75,-0.36,-0.48,-0.48,252.1,0.8,8.5
5.64,0.5,0.5,1.0,0.25,1.25,0.25,1.0,0.0,0.0,0.0,0.25,0.25,0.25,0.02,-1.17,0.2,94.13,14.1,38.4,1.5,1.25,0.5,1.25,3.75,2.5,0.25,1.25,0.0,1.5,1.25,0.75,2.25,-0.36,-0.55,-0.48,253.37,0.7,5.3
5.66,0.0,0.5,0.75,0.5,0.5,0.25,0.75,0.0,0.0,0.0,0.0,0.0,0.5,-0.05,-1.3,0.27,80.04,12.0,34.4,2.0,1.25,0.5,1.5,3.75,2.75,0.25,1.0,0.25,1.5,1.5,0.75,2.0,-0.36,-0.55,-0.42,257.35,-0.7,9.1
5.68,0.0,0.25,1.0,0.75,0.5,0.25,0.75,0.0,0.0,0.0,0.25,0.0,0.25,-0.05,-1.55,0.45,70.24,15.9,36.3,0.75,1.25,0.5,1.5,3.75,2.75,0.25,1.25,0.25,1.5,1.25,0.75,1.75,-0.36,-0.48,-0.42,255.86,1.6,5.5
5.7,0.0,0.5,0.75,0.5,0.0,0.25,1.0,0.0,0.0,0.0,0.0,0.25,0.0,-0.05,-1.73,0.45,56.36,20.6,44.0,2.0,1.25,0.5,1.0,3.75,2.75,0.25,1.25,0.0,1.5,1.25,0.75,1.75,-0.42,-0.36,-0.36,255.65,0.0,10.5
5.72,0.0,0.5,1.0,0.25,0.0,0.25,1.0,0.0,0.0,0.0,0.25,0.0,0.25,-0.11,-2.05,0.39,48.99,19.7,34.2,1.25,1.0,0.5,2.0,3.75,2.5,0.25,1.0,0.25,1.5,1.5,0.75,2.0,-0.42,-0.3,-0.36,255.24,-0.1,5.6
5.74,0.0,0.25,0.75,0.25,0.0,0.25,0.75,0.0,0.0,0.0,0.0,0.25,0.0,-0.05,-2.17,0.33,37.47,21.4,36.6,1.5,1.25,0.5,1.5,3.75,2.75,0.25,1.0,0.25,1.5,1.25,0.75,1.75,-0.42,-0.23,-0.55,255.37,0.0,9.7
5.76,0.0,0.0,0.75,0.5,0.0,0.25,0.75,0.0,0.0,0.0,0.25,0.0,0.25,0.02,-2.05,0.14,32.84,18.3,20.4,1.25,1.25,0.5,1.5,3.75,2.75,0.25,1.0,0.25,1.75,1.5,0.75,1.5,-0.48,-0.11,-0.61,254.36,0.3,7.9
5.78,0.0,0.25,0.75,0.25,0.0,0.25,0.75,0.0,0.0,0.0,0.25,0.25,0.25,0.14,-1.92,0.08,29.98,17.0,12.0,1.25,1.25,0.5,1.25,3.5,2.75,0.25,1.0,0.25,1.5,1.5,0.75,1.75,-0.55,0.08,-0.73,252.6,0.5,5.9
5.8,0.0,0.5,1.0,0.5,0.0,0.25,0.75,0.0,0.0,0.0,0.25,0.0,0.25,0.2,-1.73,0.08,33.95,19.0,36.5,2.25,1.0,0.5,1.5,3.75,2.75,0.25,1.25,0.0,1.5,1.5,0.75,1.5,-0.61,0.2,-0.8,254.89,-1.0,12.3
5.82,0.0,0.25,1.0,0.5,0.0,0.25,1.0,0.0,0.0,0.0,0.25,0.25,0.0,0.27,-1.42,0.08,38.06,22.0,31.2,1.25,1.0,0.5,1.25,3.75,2.75,0.25,1.25,0.0,1.75,0.75,0.75,2.0,-0.61,0.33,-0.8,251.56,2.0,5.9
5.84,0.25,0.5,0.75,0.25,1.75,0.25,0.75,0.0,0.0,0.0,0.25,0.0,0.25,0.2,-1.23,0.02,53.6,9.6,44.0,1.5,1.25,0.5,1.5,3.75,2.75,0.25,1.0,0.0,1.75,1.25,0.75,1.75,-0.61,0.39,-0.8,252.19,0.3,9.2
5.86,0.0,0.25,1.0,0.5,2.25,0.25,0.75,0.0,0.0,0.0,0.0,0.25,0.0,0.08,-1.11,-0.05,69.35,9.7,47.2,1.25,1.0,0.5,1.25,3.75,2.75,0.25,1.0,0.0,1.5,1.25,0.75,1.75,-0.61,0.52,-0.92,248.22,1.1,7.1
5.88,0.0,0.25,0.5,0.5,1.75,0.25,0.75,0.0,0.0,0.0,0.25,0.25,0.0,-0.05,-0.92,-0.17,77.56,8.2,38.1,1.5,1.25,0.5,1.5,3.75,2.75,0.25,1.0,0.0,1.75,1.5,0.75,2.25,-0.55,0.64,-0.98,252.25,0.6,4.9
5.9,0.0,0.5,0.75,0.5,1.75,0.0,0.75,0.0,0.0,0.0,0.75,0.0,0.25,-0.17,-0.67,-0.23,85.24,10.4,31.5,1.25,1.25,0.5,1.5,3.5,2.75,0.25,1.0,0.0,1.75,1.25,0.75,2.0,-0.61,0.83,-1.05,251.03,0.9,5.6
5.92,0.0,0.5,0.5,0.75,1.25,0.5,1.0,0.0,0.0,0.0,0.25,0.25,0.0,-0.23,-0.42,-0.3,86.24,9.4,40.1,1.25,1.25,0.5,1.25,3.75,2.75,0.25,1.0,0.0,1.75,1.5,0.75,1.75,-0.67,0.89,-1.11,252.81,0.9,6.2
5.94,0.75,1.5,1.0,2.5,2.25,1.25,1.25,0.0,0.25,1.5,0.5,1.75,0.0,-0.17,-0.17,-0.42,135.36,7.8,19.7,1.75,1.25,0.5,2.0,3.75,2.75,0.25,1.0,0.0,1.5,0.75,0.75,1.75,-0.61,0.89,-1.17,253.39,-0.4,15.1
5.96,0.25,1.5,2.25,2.5,3.5,1.25,1.5,0.0,0.25,1.25,1.5,1.75,1.5,-0.05,0.14,-0.48,196.13,7.2,9.0,1.25,1.25,0.5,1.5,3.75,2.75,0.25,1.0,0.0,1.75,1.5,0.75,1.5,-0.73,1.14,-1.36,253.31,0.5,8.6
5.98,0.0,0.75,2.25,2.5,3.75,1.0,1.5,0.0,0.25,0.5,1.5,1.5,1.5,0.02,0.39,-0.48,240.13,7.8,9.6,1.75,1.0,0.5,1.5,3.75,2.75,0.25,1.0,0.0,1.5,1.25,0.75,1.75,-0.86,1.08,-1.23,253.05,0.0,10.2
6.0,0.0,0.25,2.25,0.5,3.75,0.25,2.0,0.25,0.0,0.0,0.5,0.25,0.0,0.02,0.77,-0.55,235.57,12.0,40.5,1.75,1.25,0.5,1.25,3.75,2.5,0.25,1.0,0.0,1.5,1.25,0.75,1.75,-0.8,0.83,-1.05,251.7,-0.3,10.5
6.02,0.0,0.25,0.5,0.25,1.25,0.25,1.0,0.0,0.0,0.0,0.25,0.0,0.25,0.08,1.02,-0.67,189.85,8.6,33.5,1.5,1.25,0.5,2.0,3.75,2.75,0.25,1.0,0.0,1.75,1.5,0.75,2.0,-0.92,0.83,-0.98,256.63,0.0,7.8
6.04,0.0,0.0,0.75,0.25,2.25,0.0,1.0,0.0,0.0,0.0,0.25,0.25,0.25,0.14,1.2,-0.86,139.88,8.6,28.9,1.25,1.25,0.5,1.5,3.75,2.75,0.25,1.0,0.0,1.5,1.5,0.75,1.75,-0.92,0.83,-0.92,255.47,0.4,8.1
6.06,0.0,0.5,1.0,0.25,2.25,0.25,0.75,0.0,0.0,0.0,0.25,0.0,0.0,0.33,1.33,-0.98,103.37,9.6,51.0,1.75,1.5,0.5,1.5,3.75,2.75,0.25,1.0,0.0,1.75,0.75,0.75,2.25,-0.86,0.7,-0.86,259.25,0.4,10.4
6.08,0.0,0.25,1.0,0.25,2.5,0.25,0.75,0.0,0.0,0.0,0.25,0.0,0.0,0.45,1.27,-1.05,88.23,8.8,48.8,1.5,1.25,0.5,1.5,3.75,2.75,0.25,0.5,0.0,1.75,1.0,0.75,1.75,-0.86,0.58,-0.8,255.14,0.0,11.7
6.1,0.0,0.5,1.0,0.25,3.0,0.25,0.75,0.0,0.0,0.0,0.25,0.0,0.0,0.45,1.08,-1.05,88.59,7.8,51.3,1.25,1.0,0.5,1.25,3.5,2.25,0.25,1.0,0.0,1.75,0.75,0.75,1.5,-0.8,0.52,-0.8,246.3,0.8,8.6
6.12,0.0,0.5,0.5,1.0,3.0,0.0,0.75,0.0,0.0,0.25,0.5,0.0,0.0,0.39,0.77,-0.98,93.14,6.8,42.6,1.25,1.25,0.5,1.5,3.75,2.5,0.25,1.0,0.0,1.75,0.5,0.75,1.75,-0.73,0.33,-0.61,240.3,1.0,11.2
6.14,0.0,0.5,0.75,0.5,3.0,0.25,0.75,0.0,0.0,0.0,0.25,0.25,0.25,0.39,0.64,-0.92,92.46,6.2,38.9,1.25,1.0,0.5,1.5,3.75,2.5,0.25,0.0,0.0,1.5,0.5,0.75,2.25,-0.55,0.14,-0.61,234.0,0.4,10.4
6.16,0.0,0.5,0.5,0.5,2.5,0.25,0.75,0.0,0.0,0.0,0.0,0.0,0.0,0.33,0.7,-0.92,81.94,6.3,56.6,1.25,1.25,0.5,1.5,3.5,2.5,0.25,0.5,0.0,1.5,0.5,0.75,0.75,-0.48,0.14,-0.67,226.79,-0.6,21.8
6.18,0.0,0.25,0.5,1.0,2.25,0.75,0.75,0.0,0.0,0.0,0.5,0.0,0.0,0.39,0.77,-0.98,75.1,5.5,42.5,1.75,1.25,0.5,1.25,3.5,2.5,0.25,0.75,0.0,1.75,0.5,0.75,1.5,-0.48,0.2,-0.8,225.77,-0.1,14.8
6.2,0.0,0.25,0.5,0.5,2.25,0.25,0.75,0.0,0.0,0.0,0.25,0.0,0.0,0.39,0.7,-0.92,70.25,6.7,47.7,2.0,1.25,0.5,1.5,3.5,2.5,0.25,0.75,0.0,1.75,0.5,0.75,2.25,-0.48,0.2,-0.86,232.29,-0.2,11.1
6.22,0.0,0.5,0.5,0.25,2.25,0.5,0.75,0.0,0.0,0.0,0.25,0.25,0.0,0.33,0.7,-0.86,76.96,5.3,41.6,0.5,1.0,0.5,1.5,3.5,2.5,0.25,0.75,0.0,1.5,0.5,0.75,2.0,-0.55,0.2,-0.86,229.23,2.5,5.3
6.24,0.0,0.5,0.75,0.5,2.25,0.25,0.75,0.0,0.0,0.0,0.25,0.0,0.25,0.33,0.7,-0.61,85.38,7.5,43.3,1.5,1.0,0.5,1.25,3.5,2.75,0.25,1.0,0.0,1.5,0.5,0.75,2.25,-0.55,0.27,-0.86,232.07,1.4,7.6
6.26,0.0,0.5,0.25,0.25,2.25,0.25,0.75,0.0,0.0,0.0,0.25,0.0,0.0,0.39,0.64,-0.61,85.77,4.7,49.3,1.25,1.0,0.75,1.25,3.75,2.25,0.25,1.0,0.0,1.75,0.5,0.75,1.75,-0.48,0.33,-0.86,231.34,0.6,9.6
6.28,0.0,0.5,0.25,0.25,2.25,0.25,0.75,0.0,0.0,0.0,0.5,0.0,0.0,0.39,0.7,-0.67,80.74,5.0,42.9,1.25,1.25,0.5,1.5,3.5,2.75,0.25,1.0,0.0,1.75,0.5,0.75,2.0,-0.42,0.33,-0.92,236.15,1.4,9.0
6.3,0.0,0.5,0.5,0.25,2.5,0.25,0.75,0.0,0.25,0.25,0.25,0.0,0.0,0.27,0.7,-0.67,81.34,5.2,40.5,2.0,1.25,0.5,1.5,3.5,2.5,0.25,1.0,0.0,1.75,0.5,0.75,1.75,-0.3,0.33,-0.92,240.15,-0.4,14.0
6.32,0.0,0.5,0.75,0.0,2.5,0.5,0.75,0.0,0.0,0.25,0.25,0.0,0.25,0.2,0.77,-0.8,84.97,3.9,37.0,2.0,1.0,0.5,1.25,3.5,2.75,0.25,0.75,0.0,1.5,0.5,0.75,1.75,-0.23,0.33,-0.98,243.11,-0.1,14.4
6.34,0.0,0.5,0.5,0.25,2.25,0.25,0.75,0.0,0.0,0.0,0.25,0.0,0.25,0.14,0.7,-0.73,84.3,5.4,41.7,1.5,1.25,0.5,2.0,3.75,2.5,0.25,1.0,0.0,1.5,0.5,0.75,2.25,-0.23,0.39,-1.05,248.45,0.2,11.4
6.36,0.0,0.5,0.25,0.5,2.5,0.25,0.75,0.0,0.0,0.0,0.25,0.0,0.0,0.08,0.77,-0.73,84.72,4.9,50.0,1.25,1.0,0.5,1.5,3.5,2.75,0.25,0.75,0.0,1.75,0.75,0.75,1.75,-0.23,0.39,-1.11,245.65,1.1,8.9
6.38,0.0,0.5,0.25,0.25,3.0,0.25,0.75,0.0,0.0,0.0,0.25,0.0,0.0,-0.05,0.77,-0.73,86.09,3.4,50.0,1.75,1.0,0.5,1.25,3.5,2.75,0.25,0.75,0.0,1.75,1.0,0.75,1.75,-0.05,0.45,-1.23,246.41,0.2,9.4
6.4,0.0,0.25,0.75,0.5,2.25,0.25,0.75,0.0,0.0,0.0,0.25,0.0,0.0,0.02,0.7,-0.86,85.88,8.4,48.4,1.75,1.25,0.5,1.25,3.5,2.75,0.25,0.75,0.0,1.5,0.75,0.75,1.75,0.14,0.45,-1.3,244.06,0.0,13.2
6.42,0.0,0.5,0.25,0.75,2.25,0.0,0.75,0.0,0.0,0.5,0.25,0.0,0.25,0.08,0.77,-0.98,87.13,4.3,32.0,1.75,1.25,0.5,2.0,3.75,2.5,0.25,0.5,0.0,1.5,0.75,0.75,2.25,0.08,0.52,-1.36,247.33,-0.8,12.8
6.44,0.0,0.25,0.25,0.25,2.25,0.25,0.75,0.0,0.0,0.0,0.25,0.0,0.0,0.08,0.77,-1.11,82.71,4.2,46.3,1.25,1.25,0.5,1.25,3.75,2.5,0.25,0.75,0.0,1.75,0.75,0.75,2.25,-0.23,0.39,-1.05,246.62,1.2,6.4
6.46,0.0,0.5,0.25,0.25,2.25,0.25,0.75,0.0,0.0,0.0,0.25,0.0,0.5,0.08,0.64,-0.92,81.32,2.8,32.9,1.25,1.0,0.5,1.25,3.75,2.25,0.25,0.75,0.0,1.75,0.75,0.75,2.5,-0.17,0.39,-0.98,246.35,1.3,2.9
6.48,0.25,0.5,0.25,0.5,2.25,0.25,0.75,0.0,0.0,0.0,0.25,0.0,0.25,0.08,0.58,-0.8,81.37,5.7,44.0,1.25,1.0,0.5,1.25,3.5,2.5,0.25,0.25,0.0,1.75,0.75,0.5,2.25,-0.11,0.39,-1.05,238.83,1.1,7.3
6.5,0.0,0.25,0.5,0.25,2.25,0.75,0.75,0.0,0.0,0.0,0.25,0.25,0.0,0.14,0.45,-0.61,83.87,3.6,38.4,1.25,1.25,0.0,1.25,0.0,2.25,0.0,0.0,0.0,1.75,0.75,0.75,1.75,-0.23,0.33,-1.11,210.25,0.6,-7.0
6.52,0.0,0.25,0.25,0.25,2.25,0.25,0.75,0.0,0.0,0.0,0.25,0.0,0.0,0.08,0.33,-0.55,79.46,4.2,46.3,1.25,1.0,0.5,2.0,3.75,2.25,0.25,0.5,0.0,2.0,0.75,0.75,2.0,-0.36,0.33,-1.05,212.34,0.1,8.2
6.54,0.0,0.25,0.25,0.25,2.5,0.25,0.75,0.0,0.0,0.0,0.25,0.25,0.0,0.08,0.39,-0.67,77.99,4.0,38.5,1.25,1.25,0.5,1.25,3.75,2.75,0.25,0.75,0.0,1.5,0.75,0.75,1.75,-0.48,0.2,-0.98,215.32,1.0,11.6
6.56,0.0,0.25,0.25,0.25,2.25,0.25,0.75,0.0,0.0,0.0,0.25,0.25,0.0,0.14,0.45,-0.8,74.93,4.4,37.6,1.75,1.0,0.5,1.25,3.5,2.25,0.25,0.75,0.0,1.75,1.0,0.75,1.75,-0.73,0.2,-0.73,227.05,-0.3,8.7
6.58,0.0,0.5,0.25,0.75,2.25,0.5,0.75,0.0,0.0,0.0,0.25,0.0,0.25,0.14,0.52,-0.8,79.79,3.8,42.0,1.25,1.0,0.5,1.25,3.5,2.5,0.25,0.75,0.0,1.5,1.0,0.75,2.0,-0.86,0.08,-0.48,230.31,0.8,6.0
6.6,0.0,0.25,0.25,0.75,1.25,0.75,0.75,0.0,0.0,0.0,0.25,0.25,0.25,0.14,0.64,-0.73,78.22,4.0,27.2,1.25,1.25,0.5,1.25,3.75,2.5,0.25,0.5,0.0,1.75,1.25,0.75,1.75,-0.86,-0.05,-0.11,236.89,0.3,8.3
6.62,0.0,0.0,0.5,0.25,2.25,0.25,0.75,0.0,0.0,0.0,0.25,0.0,0.0,0.2,0.77,-0.61,76.6,5.7,43.9,1.25,1.25,0.5,0.5,3.5,2.0,0.25,0.75,0.0,1.75,0.75,1.0,1.75,-0.92,-0.23,0.2,230.36,0.9,4.1
6.64,0.0,0.0,0.25,0.25,2.25,0.25,0.75,0.0,0.0,0.0,0.25,0.0,0.0,0.2,0.89,-0.61,71.5,3.6,42.8,1.5,1.25,0.5,1.25,3.75,2.75,0.25,0.75,0.0,1.75,0.75,0.75,2.0,-0.92,-0.36,0.52,234.71,0.9,9.7
6.66,0.0,0.25,0.0,0.25,1.25,0.25,0.75,0.0,0.0,0.0,0.25,0.0,0.25,0.02,1.02,-0.73,62.32,2.7,29.2,1.5,1.0,0.5,1.25,3.5,2.25,0.25,1.0,0.0,1.5,0.75,0.75,2.25,-0.92,-0.3,0.52,235.93,0.6,5.6
6.68,0.0,0.0,0.25,0.25,2.25,0.25,0.75,0.0,0.0,0.0,0.25,0.25,0.0,-0.11,1.08,-0.86,61.43,3.9,33.8,1.25,1.0,0.5,1.25,3.75,2.25,0.25,1.0,0.0,1.5,0.75,0.75,2.0,-0.98,-0.05,0.52,238.8,1.0,7.0
6.7,0.0,0.25,0.5,0.25,2.25,0.25,0.75,0.0,0.0,0.0,0.25,0.0,0.25,-0.17,1.14,-0.86,64.47,5.1,38.6,1.75,1.25,0.5,1.25,3.5,2.25,0.25,1.0,0.0,1.75,0.75,0.75,2.0,-0.92,0.02,0.52,241.51,0.0,8.8
6.72,0.0,0.25,0.25,0.25,1.75,0.5,0.75,0.0,0.0,0.0,0.25,0.0,0.0,-0.23,1.14,-0.73,65.89,3.7,44.4,1.25,1.0,0.5,1.5,3.75,2.25,0.25,1.25,0.0,1.5,1.5,0.75,1.75,-0.67,0.08,0.58,245.69,0.3,5.4
6.74,0.0,0.25,0.25,0.0,1.75,0.25,0.75,0.0,0.0,0.0,0.25,0.0,0.0,-0.23,1.08,-0.61,63.36,4.5,44.1,1.25,1.25,0.5,1.25,3.75,2.0,0.25,1.25,0.0,1.75,1.5,0.75,1.75,-0.48,0.2,0.83,248.01,0.2,4.4
6.76,0.0,0.0,0.25,0.0,2.25,0.25,0.75,0.0,0.0,0.0,0.25,0.25,0.0,-0.23,0.95,-0.67,62.83,3.1,32.2,1.5,1.25,0.5,1.25,3.5,2.5,0.25,1.25,0.0,1.75,1.5,1.0,1.75,-0.3,0.39,0.89,247.99,0.2,4.1
6.78,0.0,0.5,0.0,0.5,1.25,0.5,0.75,0.0,0.0,0.25,0.25,0.25,0.0,-0.23,0.83,-0.67,61.89,3.0,29.6,1.75,1.0,0.5,1.25,3.75,2.5,0.25,1.25,0.0,1.75,1.5,0.75,1.75,-0.17,0.64,0.77,252.29,0.1,6.2
6.8,0.0,0.25,0.0,0.5,1.25,0.25,0.75,0.0,0.0,0.0,0.0,0.25,0.0,-0.23,0.77,-0.73,57.66,5.1,40.3,1.25,1.25,0.5,1.5,3.75,2.5,0.25,1.25,0.0,2.0,1.5,0.75,1.75,-0.11,0.83,0.7,255.99,0.8,4.9
6.82,0.0,0.5,0.25,0.25,0.75,0.25,0.75,0.0,0.0,0.0,0.25,0.0,0.0,-0.17,0.64,-0.73,52.49,9.7,46.6,1.25,1.0,0.5,1.25,3.5,2.25,0.25,1.25,0.0,2.0,1.5,0.75,1.5,-0.17,0.89,0.77,253.08,0.7,3.1
6.84,0.0,0.25,0.25,0.0,2.25,0.25,0.75,0.0,0.0,0.5,0.25,0.25,0.0,-0.11,0.64,-0.67,59.11,1.6,24.4,1.5,1.25,0.5,1.25,3.5,2.5,0.0,1.25,0.0,1.75,1.5,1.0,1.75,-0.23,0.83,0.95,253.07,0.4,3.9
6.86,0.0,0.25,0.25,0.25,1.25,0.25,0.75,0.0,0.0,0.0,0.5,0.25,0.0,-0.11,0.58,-0.55,59.06,7.4,24.7,1.75,0.75,0.5,1.25,3.75,2.5,0.0,1.25,0.0,1.75,1.25,0.75,1.5,-0.23,0.7,1.2,249.93,0.5,7.6
