time,left pressure 0[N/cm虏],left pressure 1[N/cm虏],left pressure 2[N/cm虏],left pressure 3[N/cm虏],left pressure 4[N/cm虏],left pressure 5[N/cm虏],left pressure 6[N/cm虏],left pressure 7[N/cm虏],left pressure 8[N/cm虏],left pressure 9[N/cm虏],left pressure 10[N/cm虏],left pressure 11[N/cm虏],left pressure 12[N/cm虏],left acceleration X[g],left acceleration Y[g],left acceleration Z[g],left total force[N],left center of pressure X[mm],left center of pressure Y[mm],right pressure 0[N/cm虏],right pressure 1[N/cm虏],right pressure 2[N/cm虏],right pressure 3[N/cm虏],right pressure 4[N/cm虏],right pressure 5[N/cm虏],right pressure 6[N/cm虏],right pressure 7[N/cm虏],right pressure 8[N/cm虏],right pressure 9[N/cm虏],right pressure 10[N/cm虏],right pressure 11[N/cm虏],right pressure 12[N/cm虏],right acceleration X[g],right acceleration Y[g],right acceleration Z[g],right total force[N],right center of pressure X[mm],right center of pressure Y[mm]
0.02,2.0,1.0,2.75,3.5,5.25,3.75,3.0,4.25,3.5,3.5,3.75,3.5,3.75,-0.11,-0.05,0.95,557.7,3.0,-11.4,0.75,0.25,0.25,0.0,1.5,1.25,0.0,0.75,1.0,0.5,1.0,0.0,0.75,-0.17,1.14,0.52,56.82,0.4,-2.4
0.04,2.0,1.0,2.75,3.25,5.0,4.0,3.0,4.25,3.5,4.25,3.75,4.0,4.0,-0.11,-0.05,0.95,587.63,2.4,-14.8,2.25,1.5,0.25,2.0,1.5,1.5,0.0,0.75,1.5,2.5,1.0,0.75,0.75,-0.05,0.77,0.77,114.94,-4.4,7.4
0.06,2.0,1.0,2.75,3.5,5.25,3.75,4.25,4.25,4.25,4.5,4.5,5.75,5.25,-0.11,-0.05,0.95,640.26,2.9,-21.1,2.25,1.25,1.5,1.75,1.75,2.0,0.5,1.5,1.5,1.75,2.5,0.75,2.0,0.14,0.33,0.83,184.69,-5.1,-1.2
0.08,2.5,0.25,2.5,0.0,5.0,3.5,4.5,4.5,4.75,4.5,5.5,6.75,6.0,-0.11,-0.05,0.95,677.55,2.1,-33.5,2.25,1.25,1.5,0.25,1.75,1.25,0.5,1.25,1.0,3.0,2.5,0.75,2.25,0.08,0.14,0.77,238.42,-3.7,-12.1
0.1,2.25,0.75,2.75,1.75,5.25,4.25,4.75,4.5,5.0,5.0,5.75,7.0,6.25,-0.11,-0.05,0.95,733.74,2.3,-29.0,2.0,1.0,1.5,2.0,1.75,1.25,0.75,1.25,1.25,2.5,2.5,0.5,2.0,0.02,0.02,0.7,263.73,-5.4,-4.4
0.12,2.5,0.75,2.75,1.75,5.0,4.5,4.75,5.5,5.0,5.25,6.25,7.5,7.0,-0.11,-0.11,0.95,794.32,1.8,-31.2,2.25,1.0,1.5,0.5,1.75,2.0,0.5,0.0,1.5,0.25,2.5,0.75,2.5,0.14,-0.11,0.77,269.28,-7.3,-0.7
0.14,2.5,0.75,2.75,2.75,5.25,4.5,4.75,5.5,5.25,5.75,6.25,7.75,7.25,-0.11,-0.11,0.95,861.71,1.9,-30.3,2.25,1.0,1.5,0.0,1.75,1.25,0.25,0.0,1.5,1.5,2.5,0.0,2.5,0.14,-0.17,0.7,259.91,-6.3,-5.1
0.16,2.75,1.0,2.75,3.5,5.25,4.5,5.0,5.5,5.5,6.75,6.75,8.0,8.0,-0.11,-0.11,0.95,935.62,2.0,-30.5,0.75,0.25,0.0,0.0,1.5,0.0,0.0,0.0,1.0,0.5,1.0,0.25,0.75,0.14,-0.11,0.52,204.51,-4.5,-12.0
0.18,2.75,1.0,2.75,3.5,5.25,4.5,5.0,5.5,5.5,6.75,6.75,8.25,8.0,-0.11,-0.11,0.95,992.59,2.0,-30.8,0.5,0.25,0.0,0.0,1.5,0.0,0.0,0.0,1.0,0.25,1.0,0.25,0.75,0.14,-0.11,0.64,157.03,-4.2,-13.7
0.2,2.5,1.0,2.75,3.5,5.25,4.5,5.25,5.5,5.5,6.5,6.75,8.25,8.0,-0.11,-0.11,0.95,1025.7,2.1,-31.0,2.5,1.25,1.5,2.0,1.75,1.0,0.75,0.0,1.5,2.5,2.5,1.25,1.75,0.45,-1.11,0.58,181.38,-8.3,-2.0
0.22,2.5,1.0,2.75,3.5,5.25,4.0,5.0,5.5,5.5,6.75,6.75,8.25,8.0,-0.11,-0.11,0.95,1032.06,2.1,-31.8,3.25,1.25,1.5,2.0,1.75,2.0,0.75,0.0,1.5,2.5,2.5,1.0,1.75,0.33,-1.98,0.39,217.56,-7.8,4.0
0.24,2.5,0.5,2.75,2.5,5.25,4.25,5.25,5.5,5.5,6.75,6.75,8.25,8.0,-0.11,-0.11,0.95,1022.58,1.7,-34.0,5.0,1.25,2.75,3.25,5.25,0.0,0.75,0.0,1.5,2.5,2.5,0.5,1.75,0.77,-3.36,1.45,282.68,-11.8,22.2
0.26,2.25,0.75,3.0,3.5,5.25,4.5,5.25,5.5,5.5,6.75,7.0,8.25,8.0,-0.11,-0.11,0.95,1017.44,2.0,-32.0,5.0,1.75,3.5,4.5,1.5,3.5,1.0,0.0,1.5,2.5,2.5,1.25,1.0,0.14,0.52,1.39,346.55,-11.7,23.0
0.28,2.5,1.0,2.75,3.5,5.25,4.5,5.25,5.5,5.5,6.5,6.75,8.25,8.0,-0.11,-0.05,0.95,1007.85,2.1,-31.0,5.0,1.25,4.0,3.0,2.25,3.5,2.25,1.0,2.0,3.0,1.0,1.25,0.75,0.08,-0.05,0.89,390.52,-10.7,22.7
0.3,2.5,0.75,2.75,3.5,5.5,4.25,5.25,5.5,5.5,6.75,6.75,8.25,8.0,-0.11,-0.05,0.95,999.89,2.0,-31.6,6.25,2.0,6.0,4.5,5.5,5.75,3.75,2.5,4.25,3.5,3.0,1.5,2.5,-0.11,0.14,1.39,533.0,-8.5,16.3
0.32,2.5,1.0,2.75,3.5,5.25,4.0,5.25,5.5,5.25,6.75,6.75,8.25,8.5,-0.11,-0.05,0.95,992.8,2.0,-32.3,6.25,2.0,6.0,4.5,5.75,5.5,4.0,3.75,5.0,4.75,4.5,2.75,2.75,0.27,0.02,1.14,710.67,-7.5,6.7
0.34,2.5,1.0,2.75,3.75,5.25,4.5,5.5,5.5,5.5,6.75,6.75,8.75,8.75,-0.11,-0.11,0.95,995.07,2.0,-32.2,6.25,2.0,6.0,4.75,6.75,5.75,4.25,5.0,5.5,5.75,5.25,3.75,4.25,0.14,0.08,1.08,930.02,-6.0,-0.1
0.36,2.75,1.0,2.75,3.5,5.25,4.5,5.5,5.5,5.5,6.75,6.75,8.75,8.75,-0.11,-0.11,0.95,997.28,2.0,-32.1,6.25,2.0,6.0,4.25,6.25,6.25,4.0,5.0,5.75,6.5,6.25,4.25,5.0,0.14,0.02,0.95,1104.3,-5.4,-5.1
0.38,2.5,1.0,2.75,3.75,5.25,4.75,5.5,5.5,5.25,6.75,6.75,9.0,8.75,-0.11,-0.05,0.95,1003.86,1.9,-32.3,6.25,2.0,5.25,4.5,6.5,6.0,4.0,5.5,5.75,6.75,6.25,5.25,5.75,0.14,0.02,0.95,1236.16,-4.7,-8.7
0.4,2.5,1.0,2.75,3.0,5.5,4.5,5.5,5.5,5.5,6.75,6.75,9.0,8.75,-0.11,-0.05,0.95,1004.44,1.8,-33.2,5.75,2.0,4.75,4.5,5.75,6.0,4.0,5.75,5.5,6.75,6.5,5.25,6.0,0.14,0.02,0.95,1280.1,-4.2,-11.4
0.42,2.25,0.75,3.0,3.5,5.25,4.5,5.5,5.5,5.25,6.5,6.75,8.25,8.75,-0.11,-0.05,0.95,996.88,1.9,-32.4,5.5,2.0,4.75,4.5,5.5,5.75,4.0,5.5,5.5,6.75,6.5,5.25,6.25,0.14,0.02,0.95,1268.33,-4.3,-12.5
0.44,1.75,0.75,1.75,1.75,5.0,3.75,5.25,5.75,4.75,6.0,5.75,8.0,8.0,-0.11,-0.05,0.95,939.99,0.5,-37.5,5.5,2.0,5.0,4.5,5.5,5.75,4.0,5.25,5.5,6.5,6.25,5.25,6.0,0.14,0.02,0.95,1225.38,-4.6,-11.3
0.46,3.0,0.75,0.75,3.75,5.0,5.25,5.0,5.0,4.5,5.75,6.25,7.75,8.75,-0.11,-0.05,0.95,905.46,0.6,-32.3,5.0,2.0,5.0,4.25,5.5,5.5,4.0,5.0,5.25,6.5,6.25,5.25,5.75,0.08,0.02,0.95,1177.34,-4.6,-11.9
0.48,1.75,0.75,1.0,3.5,5.0,3.75,4.75,4.25,4.5,5.25,4.75,7.5,7.75,-0.11,-0.05,0.95,833.07,0.9,-33.6,5.0,2.0,5.0,4.5,5.5,5.5,4.0,5.0,5.25,6.75,6.25,5.25,5.75,0.08,0.02,0.95,1131.23,-4.5,-11.9
0.5,2.0,0.75,0.25,1.75,5.0,2.5,3.0,4.25,3.0,5.25,4.5,7.0,7.25,-0.11,0.02,1.02,741.85,-0.4,-39.0,5.0,2.0,5.0,4.0,5.5,5.75,3.75,5.0,5.25,6.75,6.25,5.25,6.25,0.08,0.02,0.95,1091.99,-4.1,-13.1
0.52,0.5,0.0,0.25,0.75,5.0,2.25,1.75,4.0,2.0,3.25,3.25,6.0,7.0,-0.11,0.02,1.02,608.89,-2.9,-46.0,5.0,2.0,4.25,4.5,5.25,5.5,3.5,5.0,5.25,6.75,6.5,5.75,6.5,0.08,0.02,0.95,1054.13,-3.9,-15.4
0.54,0.0,0.0,0.25,0.0,3.75,1.75,0.5,2.5,1.75,2.75,2.5,5.25,6.25,-0.11,0.02,1.14,466.85,-4.1,-55.3,5.0,2.0,4.5,3.75,5.25,5.25,3.25,5.0,5.5,7.25,6.75,6.0,6.75,0.08,0.02,0.95,1013.6,-3.8,-17.7
0.56,0.5,0.0,0.75,0.0,5.0,2.25,0.5,2.5,1.25,0.25,3.5,3.5,5.5,-0.17,0.08,1.2,353.43,-2.1,-36.3,5.0,2.0,4.25,3.5,5.25,5.25,3.25,5.0,5.5,7.5,7.0,6.0,7.75,0.08,0.02,0.95,1004.19,-3.3,-20.2
0.58,0.25,0.0,0.0,0.0,0.75,1.25,0.0,2.5,1.25,0.75,1.25,2.0,4.0,-0.3,0.33,1.83,249.63,-6.1,-60.6,5.0,2.0,4.25,3.75,5.25,5.5,3.25,5.0,5.25,7.75,7.5,6.5,7.75,0.08,0.02,0.95,1009.67,-3.2,-20.9
0.6,0.0,0.0,0.0,0.0,0.0,1.25,0.5,2.5,1.25,0.75,1.25,0.75,2.0,0.08,0.08,1.14,156.65,-6.7,-55.8,5.0,2.0,4.25,3.75,5.25,5.25,3.25,5.0,5.25,7.75,7.5,6.75,8.0,0.08,0.02,0.95,1023.7,-3.3,-21.7
0.62,0.0,0.0,0.0,0.0,0.5,1.0,0.75,2.25,1.75,0.75,1.25,0.25,1.75,0.58,1.45,0.39,77.6,-5.0,-46.0,5.0,2.0,4.25,3.5,5.25,5.25,3.25,5.25,5.25,8.0,7.5,7.5,8.25,0.08,0.02,0.95,1045.35,-3.1,-23.6
0.64,0.0,0.0,0.0,0.0,0.0,2.5,0.5,1.75,1.5,0.75,1.25,0.25,1.5,1.83,2.52,1.58,30.99,-7.8,-39.9,5.0,2.0,4.25,3.5,5.25,5.5,3.0,5.5,5.25,8.25,7.75,7.5,8.25,0.08,0.02,0.95,1069.41,-2.8,-23.9
0.66,0.0,0.0,0.0,0.5,0.0,1.0,0.75,1.0,1.25,0.0,1.25,0.25,0.75,1.02,2.45,1.27,0.0,0.3,-34.5,4.75,2.0,4.0,3.75,5.25,5.0,3.0,5.5,5.25,8.25,7.75,7.5,8.75,0.08,0.02,0.95,1084.61,-2.7,-25.3
0.68,0.0,0.0,0.0,0.75,0.0,1.0,0.5,0.5,1.25,0.0,1.25,0.25,0.5,0.2,2.39,0.77,0.0,2.5,-27.8,4.0,2.0,4.25,3.0,5.25,5.25,3.0,5.5,5.25,8.25,7.75,7.5,9.0,0.08,0.02,0.95,1086.31,-2.2,-27.3
0.7,0.0,0.0,0.0,0.75,0.5,1.0,0.5,0.25,1.0,0.0,0.75,0.25,0.0,-0.23,2.08,1.02,0.0,3.2,-3.0,4.0,2.0,4.0,3.5,5.25,5.25,3.0,5.5,5.0,8.75,7.75,7.5,8.75,0.08,0.02,0.95,1085.53,-2.0,-27.0
0.72,0.0,0.0,0.0,0.75,0.5,0.0,0.5,0.25,0.75,0.0,0.5,0.0,0.25,-0.48,1.45,1.33,0.0,7.7,-6.0,2.75,2.0,4.0,3.75,5.25,5.5,2.5,5.75,4.75,8.75,7.75,7.5,8.75,0.08,0.02,0.95,1076.07,-1.2,-28.8
0.74,0.0,0.0,0.0,0.0,0.0,0.0,0.5,0.75,0.75,0.0,0.5,0.25,0.0,-0.55,0.77,1.52,0.0,4.7,-46.6,3.5,2.0,4.0,3.25,1.75,4.0,2.25,5.25,4.25,9.0,7.0,8.0,8.5,0.08,0.02,0.95,1028.51,-2.3,-34.9
0.76,0.0,0.0,0.0,0.75,0.0,0.0,0.0,0.25,0.5,0.0,0.5,0.25,0.0,-0.11,0.33,1.33,0.0,10.0,-20.8,3.0,2.0,3.75,3.0,5.25,5.25,1.75,6.0,3.25,9.5,7.5,8.25,8.75,0.08,0.08,1.02,1018.76,-0.5,-31.3
0.78,0.0,0.0,0.0,0.25,0.5,0.0,0.0,0.25,0.5,0.0,0.25,0.25,0.0,0.27,0.2,1.27,0.0,4.4,-13.5,2.25,1.75,1.5,2.0,5.0,5.0,1.0,6.25,2.75,9.0,7.5,7.25,9.5,0.08,0.08,1.08,976.32,2.0,-38.8
0.8,0.0,0.0,0.0,0.25,0.5,0.0,0.25,0.25,0.5,0.0,0.0,0.25,0.0,0.45,0.08,1.08,0.0,5.3,-3.3,2.25,1.75,1.75,3.5,4.75,5.5,1.0,6.5,1.75,8.0,7.5,6.25,9.0,0.2,0.02,1.14,935.75,1.6,-33.2
0.82,0.0,0.0,0.0,0.0,0.5,0.0,0.5,0.25,0.5,0.0,0.25,0.25,0.0,0.58,-0.11,1.2,4.05,6.0,-17.9,1.0,0.25,1.0,0.0,1.75,3.75,0.0,5.0,2.0,7.75,5.5,5.75,7.75,0.27,0.08,1.33,791.78,4.6,-56.6
0.84,0.0,0.0,0.0,0.25,0.5,0.0,0.5,0.25,0.5,0.0,0.25,0.25,0.0,0.52,-0.3,1.14,11.55,7.3,-9.3,1.0,0.25,0.25,0.0,1.75,3.5,0.75,4.75,1.5,6.25,5.25,4.0,7.25,1.02,0.27,1.52,643.25,5.4,-55.0
0.86,0.0,0.0,0.0,0.0,0.5,0.0,0.5,0.25,0.5,0.0,0.0,0.25,0.0,0.27,-0.42,0.95,13.48,5.4,-10.2,0.5,1.75,0.0,0.0,1.5,2.25,0.5,4.0,1.5,3.0,4.0,2.25,6.0,0.7,0.39,1.64,461.89,4.6,-46.4
0.88,0.0,0.0,0.0,0.0,0.0,0.0,0.5,0.25,0.25,0.0,0.0,0.25,0.0,0.08,-0.61,0.77,12.12,8.9,-40.5,2.25,0.25,1.5,0.5,1.75,1.5,0.25,3.75,1.5,2.5,3.25,1.5,3.5,0.27,0.14,1.14,334.61,-0.9,-28.0
0.9,0.0,0.0,0.0,0.0,0.0,0.0,0.25,0.0,0.5,0.0,0.0,0.25,0.25,-0.05,-0.98,0.45,12.62,7.6,-63.7,0.5,0.25,0.0,0.0,1.75,1.5,0.0,2.25,1.0,2.25,1.5,1.25,2.5,-0.92,1.89,1.02,231.25,5.9,-39.9
0.92,0.0,0.0,0.0,0.0,0.0,0.0,0.5,0.25,0.5,0.0,0.0,0.25,0.0,-0.11,-1.36,0.45,11.83,9.5,-40.1,0.5,0.5,0.75,0.0,1.75,1.25,0.5,2.0,1.0,2.75,2.5,1.25,2.75,0.58,2.7,0.02,170.4,2.2,-37.5
0.94,0.0,0.25,0.0,0.75,0.0,0.0,0.25,0.25,0.5,0.0,0.0,0.0,0.0,-0.23,-1.8,0.45,17.31,11.7,23.9,2.25,1.0,1.0,1.5,1.75,1.0,0.75,2.25,1.0,2.75,2.25,1.0,2.75,0.77,1.77,0.83,147.75,-2.8,-14.5
0.96,1.75,0.75,0.25,0.75,1.75,0.0,0.5,0.0,0.75,0.0,0.0,0.25,0.0,-5.8,-4.92,7.7,52.44,15.3,53.2,2.25,0.5,1.5,0.25,1.5,0.0,0.0,0.75,1.5,2.25,1.0,0.25,1.0,0.2,1.83,0.45,118.48,-8.2,-0.8
0.98,6.0,0.75,1.25,2.5,4.75,0.0,1.25,0.25,1.25,0.75,0.0,0.25,0.0,1.33,-0.73,-0.36,149.08,16.0,54.3,2.25,0.25,0.25,0.5,0.5,1.25,0.5,1.0,1.5,1.75,1.0,1.75,0.75,0.45,1.39,0.7,101.02,-4.9,-17.2
1.0,8.5,1.0,5.0,5.25,5.25,1.75,3.0,2.5,2.0,0.75,1.25,0.25,0.0,-1.17,0.08,0.83,292.27,15.6,44.6,2.25,0.5,1.5,1.75,0.0,1.25,0.75,2.25,1.5,2.75,2.5,1.25,2.25,0.45,1.2,0.83,118.99,-4.8,-20.9
1.02,9.0,0.25,6.5,6.0,5.25,3.75,3.75,2.5,1.75,0.75,0.25,0.25,0.0,-0.86,0.52,2.2,453.25,15.3,48.0,2.25,0.0,1.5,2.0,1.75,0.75,0.5,2.25,1.0,2.0,1.0,0.5,2.75,0.08,0.7,1.45,147.97,-3.9,-8.4
1.04,8.5,2.25,6.75,7.25,8.5,5.0,5.5,1.75,2.5,2.25,0.0,0.25,0.0,-0.11,0.08,2.14,671.87,12.6,46.5,2.25,1.25,0.0,2.0,1.0,0.75,0.0,2.25,1.5,2.5,2.5,1.25,2.25,0.08,0.58,1.45,184.8,-2.6,-18.7
1.06,8.75,2.25,8.75,7.25,0.0,7.0,7.75,3.0,3.75,1.75,0.25,1.25,2.0,0.2,-0.11,1.77,826.05,14.4,31.8,2.25,1.5,1.25,2.0,1.75,1.25,0.5,1.5,1.5,2.5,2.5,1.5,2.5,0.14,0.45,1.27,231.96,-4.9,-9.7
1.08,8.5,2.25,8.25,6.5,9.25,7.25,8.25,4.25,4.5,3.0,2.0,1.75,1.25,0.02,-0.11,1.02,1035.17,10.0,28.1,2.25,1.25,1.25,2.0,2.5,0.0,0.75,1.25,1.5,2.5,2.5,1.5,2.5,0.14,0.27,1.27,261.05,-6.3,-10.3
1.1,7.75,2.25,8.0,5.75,9.5,7.75,7.75,5.5,5.25,3.25,2.5,2.0,1.75,-0.23,-0.17,1.14,1194.02,8.4,22.2,2.25,1.25,1.75,0.75,1.75,1.25,0.5,1.25,1.25,2.5,2.5,1.5,2.75,0.2,0.14,1.14,277.12,-4.8,-14.1
1.12,7.25,2.25,6.5,5.75,9.0,8.0,7.0,6.0,5.5,3.5,3.75,2.0,2.0,-0.3,-0.11,1.02,1312.88,7.0,17.2,2.0,1.25,1.5,1.75,1.5,0.0,0.75,1.0,1.5,2.5,2.5,1.25,2.5,0.33,0.02,1.08,280.08,-7.1,-13.7
1.14,7.0,2.25,6.0,5.5,9.0,7.75,7.0,6.25,5.75,3.75,3.75,2.0,2.0,-0.17,-0.11,1.02,1341.96,6.6,15.5,2.25,1.25,1.75,2.0,2.25,1.25,0.5,1.5,1.25,2.5,2.25,1.5,2.75,0.39,-0.17,0.95,291.8,-5.0,-7.9
1.16,6.25,2.25,5.0,5.5,8.75,7.75,6.5,6.25,5.75,4.25,4.25,2.5,2.5,-0.11,-0.11,0.95,1335.26,5.5,10.4,2.25,1.25,1.5,2.0,1.75,0.75,0.5,1.5,1.5,2.5,2.25,1.25,2.75,0.39,-0.3,0.89,291.14,-5.4,-10.5
1.18,6.0,2.25,4.0,4.75,7.5,7.0,6.25,6.0,5.5,4.25,4.5,3.25,3.0,-0.11,-0.11,0.95,1271.76,5.1,4.9,2.25,0.25,1.5,2.0,2.25,0.0,0.5,1.5,1.5,2.5,2.5,1.25,2.75,0.33,-0.36,0.89,290.55,-5.9,-16.4
1.2,5.75,2.25,4.75,3.75,7.25,7.0,5.75,6.0,5.25,4.75,4.25,3.0,3.5,-0.11,-0.11,0.95,1179.41,4.7,3.3,2.0,0.0,1.5,2.0,1.75,0.75,0.25,1.5,1.25,2.5,2.5,1.25,2.5,0.2,-0.42,0.7,285.5,-4.7,-18.2
1.22,5.0,2.0,4.0,2.75,7.25,6.5,5.25,5.75,5.25,4.5,3.5,3.5,3.75,-0.11,-0.05,0.95,1061.87,3.8,-0.3,2.25,0.75,1.5,2.0,1.75,1.25,0.5,1.5,1.25,2.5,2.75,0.25,2.5,0.08,-0.48,0.52,279.75,-4.7,-7.3
1.24,4.25,2.0,4.0,3.75,7.0,6.5,5.0,5.5,5.0,5.0,3.75,3.5,3.75,-0.11,-0.05,0.95,971.11,3.6,-1.4,1.5,1.0,1.5,2.0,1.75,1.25,0.25,1.0,1.0,1.25,2.5,0.75,1.75,0.45,-1.67,0.64,262.2,-6.3,-1.5
1.26,3.75,1.75,3.75,3.75,6.5,6.25,4.25,5.5,5.0,5.25,4.0,5.0,4.0,-0.11,-0.05,0.95,906.86,3.1,-7.8,3.25,1.75,1.5,1.75,1.75,2.0,0.25,0.0,1.5,2.5,2.25,1.0,1.75,0.02,-1.67,0.08,267.43,-7.5,6.3
1.28,3.5,1.25,3.0,2.75,5.25,5.75,4.25,5.5,5.0,5.25,4.5,5.75,5.25,-0.11,-0.05,0.95,843.93,2.3,-17.7,5.25,2.0,1.5,3.0,4.25,2.75,0.5,0.0,1.25,2.5,2.5,1.0,1.75,0.64,-3.11,1.64,299.53,-8.0,20.8
1.3,3.25,1.0,3.0,3.75,5.25,5.75,4.0,5.5,5.0,5.25,5.5,6.0,6.0,-0.11,-0.05,0.95,816.47,2.3,-20.0,7.25,2.25,1.5,4.5,4.75,3.75,0.75,0.0,1.25,2.5,2.5,1.25,1.5,1.52,-3.17,2.27,368.85,-9.2,28.4
1.32,3.0,0.75,2.75,3.75,5.75,5.5,3.0,5.75,5.0,5.75,5.5,6.75,6.25,-0.11,-0.05,0.95,797.78,1.5,-23.4,7.75,2.5,4.25,6.5,7.25,5.25,1.0,0.0,1.5,2.5,2.0,1.25,1.75,0.64,0.33,1.33,500.64,-9.8,34.9
1.34,2.75,1.0,0.0,3.25,5.5,5.5,3.0,6.0,5.0,6.75,5.75,7.5,7.0,-0.11,-0.05,0.95,804.5,-0.8,-32.0,6.75,2.25,6.25,6.75,8.25,4.0,1.0,2.25,1.5,1.25,2.5,0.25,1.75,0.33,0.27,1.39,631.28,-10.5,36.4
1.36,1.25,1.25,0.0,2.5,5.5,5.5,3.0,6.0,4.75,6.5,6.0,8.0,8.0,-0.11,-0.05,0.95,815.41,-2.0,-37.9,8.5,2.75,7.25,8.75,7.75,5.75,3.25,2.25,2.75,2.5,1.5,1.25,1.0,-0.17,0.08,1.45,796.81,-11.4,36.8
1.38,2.0,1.0,0.0,2.0,5.25,5.25,3.0,6.0,4.75,7.0,6.0,8.25,8.75,-0.11,-0.05,0.95,836.47,-1.9,-40.0,8.25,3.0,8.25,9.0,8.75,6.5,5.0,3.75,3.75,3.0,2.5,1.5,1.0,-0.3,-0.05,1.02,970.79,-10.5,31.3
1.4,2.0,1.25,0.0,2.25,5.75,5.5,3.0,6.5,4.75,8.0,6.25,8.75,8.75,-0.11,-0.05,0.95,878.53,-2.1,-39.1,7.75,2.75,8.25,8.25,9.5,7.0,5.75,4.5,5.25,5.25,3.75,2.25,2.75,0.02,-0.17,1.08,1176.5,-8.2,18.1
1.42,1.0,0.75,0.5,0.0,6.5,3.75,4.25,7.0,3.75,7.75,6.5,8.25,9.0,-0.11,-0.05,0.95,895.96,-2.7,-45.4,8.0,2.75,7.75,7.5,8.75,7.0,5.5,5.25,5.75,5.25,5.25,2.75,3.25,0.27,0.02,1.2,1325.62,-7.8,12.6
1.44,0.5,0.5,0.0,0.75,5.0,3.5,2.25,6.0,3.75,7.25,5.25,8.25,8.75,-0.17,-0.05,0.95,866.95,-3.6,-50.8,6.75,2.5,7.25,6.0,8.5,7.0,5.25,5.75,5.5,5.5,5.25,2.75,4.25,0.14,0.08,1.02,1380.76,-6.3,7.0
1.46,3.0,0.75,0.0,2.0,5.0,4.25,2.5,6.5,3.75,7.5,6.0,8.75,9.75,-0.17,-0.05,0.95,875.67,-1.8,-42.5,6.25,2.5,6.0,4.5,8.5,6.75,4.5,5.75,5.25,5.5,5.25,3.0,4.5,0.14,0.08,0.95,1366.02,-5.1,3.2
1.48,0.75,0.75,0.0,0.0,5.25,3.5,1.75,6.75,2.75,7.0,4.5,8.25,9.0,-0.11,0.02,1.02,826.79,-4.6,-50.7,5.5,2.25,4.5,4.0,7.25,6.5,3.75,5.5,5.0,6.0,5.25,3.0,4.5,0.14,0.02,0.95,1291.19,-3.8,-1.8
1.5,0.25,0.0,0.0,0.0,5.0,3.5,1.5,6.25,2.25,7.5,4.0,8.25,8.75,-0.17,-0.05,1.02,780.04,-5.6,-55.4,5.25,2.25,4.0,4.25,7.0,6.5,3.25,5.5,4.75,6.0,5.25,4.0,4.5,0.2,0.02,0.95,1179.13,-3.5,-4.4
1.52,0.5,0.25,0.0,0.0,4.75,3.25,1.25,6.0,2.0,6.75,3.75,8.25,9.0,-0.23,-0.05,1.02,722.68,-5.4,-55.2,5.25,2.25,4.0,4.5,7.0,6.25,3.0,5.5,4.75,6.5,5.25,4.25,5.5,0.14,0.02,0.95,1097.09,-3.1,-7.0
1.54,0.0,0.0,0.0,0.0,4.75,2.25,0.75,5.5,1.5,6.75,3.5,7.75,8.5,-0.36,-0.05,1.02,660.12,-6.0,-59.3,4.75,1.75,4.0,4.5,5.5,6.25,2.75,5.0,4.5,6.75,5.25,4.25,5.75,0.08,0.02,0.89,1021.33,-2.9,-10.9
1.56,0.0,0.0,0.0,0.0,4.25,2.5,0.5,5.5,1.25,6.0,2.75,7.5,8.75,-0.48,0.02,1.7,596.93,-6.6,-60.2,4.25,2.25,4.0,3.75,5.5,6.25,2.5,5.0,4.25,6.75,5.75,5.25,5.75,0.14,0.02,0.95,964.13,-2.6,-13.8
1.58,0.0,0.0,0.0,0.0,0.5,2.25,0.25,5.25,1.25,5.25,2.0,6.75,8.0,-0.36,0.08,1.52,513.53,-7.4,-74.1,3.75,2.25,4.0,4.25,5.5,6.25,2.25,5.0,4.25,6.75,5.75,5.25,6.75,0.14,0.02,0.95,928.11,-2.2,-15.7
1.6,0.0,0.0,0.0,0.0,2.25,0.0,0.5,4.25,1.25,3.75,1.25,5.75,7.0,-0.55,0.08,1.33,419.91,-5.7,-71.0,3.0,1.75,4.0,4.0,5.5,6.0,2.25,5.5,4.25,7.5,6.25,6.0,6.75,0.14,0.02,0.95,900.89,-1.5,-21.0
1.62,0.0,0.0,0.0,0.0,0.5,1.0,0.5,3.75,1.25,2.25,1.25,3.5,6.25,-0.55,0.08,1.2,325.13,-7.1,-73.2,3.5,1.75,4.0,4.25,5.5,6.0,2.25,6.0,4.25,7.75,6.25,6.0,7.75,0.14,0.02,0.95,903.94,-1.4,-21.6
1.64,0.0,0.0,0.0,0.0,0.0,1.25,0.5,2.75,1.25,1.5,1.25,2.0,4.0,-0.48,-0.05,1.02,243.88,-7.0,-69.1,3.0,2.0,4.0,4.0,5.5,6.0,2.25,6.0,4.25,8.25,6.25,6.5,8.0,0.14,0.02,0.95,924.46,-1.0,-23.7
1.66,0.0,0.0,0.0,0.0,0.5,1.0,0.5,2.5,1.25,0.0,1.25,0.25,2.0,-0.11,0.14,1.08,155.96,-6.1,-46.5,3.0,2.0,4.0,4.25,5.5,6.25,2.25,6.0,4.25,8.5,6.75,6.75,8.25,0.14,0.02,0.95,965.17,-1.0,-24.4
1.68,0.0,0.0,0.25,0.0,3.5,1.0,0.5,2.5,1.0,0.75,1.25,0.5,2.0,1.52,3.14,0.64,106.54,-5.1,-21.6,3.0,1.75,4.0,4.0,5.5,6.25,2.25,6.25,4.25,8.75,7.0,7.25,8.75,0.14,0.02,0.95,1006.74,-0.7,-26.8
1.7,0.0,0.0,0.25,0.0,3.0,1.0,0.0,2.5,1.0,0.75,1.25,0.25,1.75,0.64,2.27,1.64,73.2,-6.1,-22.5,3.0,1.5,4.0,4.0,5.25,6.25,2.25,6.5,4.0,8.75,7.25,7.5,8.75,0.14,0.02,0.95,1041.7,-0.6,-28.1
1.72,0.0,0.0,0.0,0.0,3.0,1.0,0.5,2.5,1.0,0.75,1.25,0.25,1.5,0.33,2.33,0.89,74.12,-6.1,-21.4,2.75,1.75,3.5,3.0,5.25,6.5,2.0,6.75,3.5,9.25,6.5,7.5,9.0,0.14,0.02,0.95,1053.93,0.5,-30.1
1.74,0.0,0.0,0.25,0.0,2.25,1.0,0.0,2.25,1.0,0.75,1.0,0.25,1.0,-0.42,1.77,1.14,68.27,-5.9,-20.7,1.25,1.75,2.25,2.5,5.25,6.0,2.0,6.75,3.0,9.5,6.75,7.75,9.0,0.14,0.02,0.95,1036.85,2.1,-36.6
1.76,0.0,0.0,0.0,0.0,0.75,1.0,0.25,1.5,1.0,0.75,1.25,0.25,0.75,-0.36,1.39,1.14,57.56,-5.5,-37.1,3.0,2.0,1.75,2.5,5.0,6.0,1.25,7.25,3.0,9.5,7.25,7.75,9.25,0.14,0.02,0.95,1028.99,1.7,-34.8
1.78,1.5,0.75,0.0,0.5,0.5,1.5,0.0,1.5,1.25,2.0,1.25,1.0,1.75,-0.48,1.08,1.45,79.25,-0.8,-24.7,2.5,1.5,1.5,2.5,5.25,5.75,1.5,7.25,2.75,9.5,7.0,7.5,9.75,0.14,0.02,0.95,1018.62,2.3,-37.1
1.8,1.0,0.75,0.25,0.0,5.0,0.75,0.5,2.5,1.0,0.75,1.25,0.25,1.75,-0.48,0.83,1.45,123.01,-1.6,0.9,2.25,1.5,1.5,2.75,4.25,5.75,1.0,6.75,2.25,8.75,6.5,6.75,9.25,0.2,0.02,0.89,975.69,2.5,-36.9
1.82,1.25,0.75,0.25,0.75,0.5,1.5,0.5,0.5,1.25,1.25,1.25,0.25,1.25,-0.36,0.64,1.33,146.11,2.9,-7.6,2.0,0.5,1.25,2.0,1.75,5.0,0.75,6.75,2.0,9.25,6.25,6.5,8.5,0.2,0.02,0.95,895.97,3.4,-47.0
1.84,0.0,0.0,0.0,0.0,0.75,1.0,0.5,0.5,1.0,0.75,0.5,0.25,0.0,-0.42,0.39,1.39,130.55,-3.4,-18.4,2.75,1.5,1.5,2.5,3.5,5.5,1.0,7.25,1.75,9.5,6.5,7.0,9.5,0.2,0.02,0.95,869.95,2.6,-39.0
1.86,0.0,0.0,0.0,0.0,0.75,0.25,0.5,0.25,0.5,0.5,0.25,0.25,0.25,-0.36,0.14,1.27,97.16,-1.5,-23.7,2.25,1.5,0.5,1.0,2.5,3.25,0.0,6.5,1.0,8.75,5.75,6.5,8.25,0.2,0.08,1.08,785.46,3.8,-48.0
1.88,0.0,0.0,0.0,0.5,0.5,0.25,0.5,0.5,0.5,0.25,0.0,0.25,0.25,-0.36,0.02,1.08,63.3,0.5,-11.1,2.25,2.0,1.5,0.5,3.25,3.75,0.0,6.25,1.0,7.0,5.25,5.75,8.75,0.27,0.14,1.2,723.51,3.0,-41.0
1.9,0.0,0.0,0.0,0.0,0.5,0.25,0.5,0.5,0.5,0.25,0.0,0.25,0.25,-0.42,-0.17,1.08,36.88,-2.5,-24.0,0.5,0.5,0.0,0.0,1.75,3.0,0.0,5.0,1.25,6.0,3.25,3.0,6.75,0.52,0.2,1.27,572.29,7.9,-55.2
1.92,0.0,0.0,0.0,0.25,0.5,0.5,0.5,0.5,0.5,0.5,0.0,0.25,0.25,-0.55,-0.3,1.08,26.5,-3.3,-17.7,1.0,0.25,0.0,0.0,1.5,2.0,0.0,3.75,1.0,3.0,2.5,1.75,5.25,1.02,0.33,2.08,410.67,6.4,-49.9
1.94,0.75,0.75,0.0,1.5,0.5,1.25,0.5,2.5,1.0,0.75,1.25,1.25,1.75,-0.55,-0.42,0.95,79.32,-0.1,-22.4,2.25,1.75,0.25,2.0,1.75,2.75,0.0,2.25,1.5,4.25,1.5,1.75,2.75,0.39,0.27,1.33,305.77,0.7,-14.4
1.96,0.25,0.75,0.25,1.5,5.0,1.25,1.0,2.5,1.0,0.75,1.25,1.5,1.75,-0.61,-0.55,0.7,153.98,-0.8,-3.9,2.25,0.25,1.25,0.5,1.75,1.25,0.0,2.25,1.0,0.75,1.0,0.5,2.0,-0.61,1.77,1.2,220.68,-3.3,-3.1
1.98,0.5,0.75,0.25,1.0,5.0,1.25,1.0,2.5,1.0,0.75,1.25,1.25,1.75,-0.61,-0.73,0.52,213.61,-1.0,-3.0,1.0,0.25,0.0,0.5,1.75,2.25,0.75,2.25,1.5,3.0,0.0,1.0,2.0,-0.55,2.7,0.45,163.24,5.3,-23.0
2.0,1.0,0.75,0.25,1.5,5.0,1.25,1.0,2.5,1.25,0.75,1.25,1.0,1.75,-0.48,-0.92,0.33,254.08,0.3,1.9,0.75,0.5,0.0,1.75,0.0,2.75,0.0,1.0,1.5,2.75,0.0,0.75,1.25,0.02,2.2,0.64,109.28,3.8,-16.4
2.02,0.0,0.0,0.75,0.5,4.75,0.25,0.75,2.5,0.5,0.0,1.25,0.25,1.75,-0.42,-1.23,0.39,250.25,-1.3,-3.1,2.25,1.5,1.75,2.0,1.75,2.75,0.75,2.25,1.5,3.25,1.0,1.5,2.75,-0.3,1.77,0.77,146.86,-2.3,-5.6
2.04,0.5,0.5,0.0,0.25,1.25,1.0,0.0,0.75,0.75,0.75,0.0,0.25,0.0,-1.11,-4.05,0.7,210.24,-1.9,13.0,2.25,1.25,1.5,2.0,1.75,2.75,0.75,2.25,1.5,3.0,1.0,1.0,2.75,-0.36,1.7,0.7,181.76,-1.8,-4.6
2.06,3.75,0.5,0.25,1.0,4.75,2.75,0.0,2.0,1.25,1.75,0.0,0.25,0.0,-1.67,-3.61,1.95,226.14,1.9,30.4,2.25,1.25,1.5,2.0,1.75,2.75,0.75,2.25,1.5,2.25,1.0,1.25,2.5,-0.23,1.45,0.83,223.17,-2.7,-2.2
2.08,6.5,1.75,2.75,4.75,7.25,5.5,0.0,2.5,1.25,2.0,1.25,0.5,1.75,-0.92,1.14,3.58,329.33,5.6,31.6,2.25,0.25,1.5,2.0,1.75,2.75,0.75,2.25,1.5,2.75,0.75,1.25,2.25,-0.17,1.33,1.14,239.83,-1.9,-6.6
2.1,6.0,2.25,4.25,5.5,8.75,7.25,0.0,3.5,1.75,0.5,1.25,0.25,0.25,-1.11,0.02,1.95,488.22,6.3,41.5,2.25,1.0,1.5,2.0,1.75,2.75,0.75,1.75,1.5,2.5,1.0,1.25,2.5,-0.11,1.14,1.39,260.94,-2.8,-3.4
2.12,7.0,0.0,4.5,6.75,10.0,7.75,3.75,3.0,2.25,2.0,1.25,0.25,1.75,-0.48,0.08,1.52,685.48,6.3,31.9,2.25,0.5,1.25,2.0,1.75,2.75,0.75,2.0,1.5,2.5,1.5,1.25,2.5,0.14,0.89,1.45,270.98,-2.1,-8.5
2.14,7.25,2.25,5.75,7.25,11.0,8.25,5.75,4.5,3.0,3.25,1.25,1.0,1.75,0.14,0.02,1.08,904.56,6.5,29.4,2.25,1.25,1.5,2.0,1.75,2.0,0.75,2.0,1.5,3.25,1.25,1.5,2.5,0.39,0.52,1.45,290.21,-3.0,-8.0
2.16,7.0,2.5,6.25,6.0,9.75,8.5,7.0,5.75,5.25,3.5,1.25,2.0,2.0,0.08,-0.11,1.02,1080.2,6.5,21.7,2.25,1.25,1.5,1.75,1.75,2.25,0.75,1.75,1.5,4.25,2.0,1.75,2.5,0.39,0.45,1.33,309.42,-2.3,-13.6
2.18,6.75,2.25,5.25,5.5,8.75,8.75,6.5,7.0,6.0,5.0,4.75,3.5,3.0,-0.17,-0.36,1.27,1229.35,4.9,6.7,2.25,1.25,1.5,2.0,1.75,1.75,0.75,2.0,1.5,2.5,1.5,1.5,2.25,0.33,0.33,1.33,311.71,-4.2,-5.7
2.2,6.0,2.25,5.0,5.5,7.0,8.75,6.75,7.25,6.25,5.25,5.25,3.5,3.75,-0.11,-0.17,1.08,1317.63,4.5,1.7,2.25,1.75,1.5,2.0,1.75,1.5,0.75,1.75,1.5,2.5,2.0,1.75,2.25,0.33,0.14,1.27,316.85,-5.1,-6.0
2.22,6.0,2.25,4.75,3.75,0.0,8.75,6.25,7.25,6.0,5.25,5.0,3.5,3.75,-0.17,-0.11,1.02,1283.81,4.8,-7.0,2.25,1.25,1.5,2.0,1.75,1.5,0.75,1.75,1.5,3.5,2.5,1.5,2.0,0.27,-0.05,1.2,311.77,-4.3,-10.4
2.24,6.0,2.25,4.25,3.75,8.5,8.0,6.0,7.0,5.75,5.25,4.75,3.5,3.75,-0.17,-0.11,0.95,1268.97,3.6,1.4,2.25,1.25,1.5,2.0,1.75,1.5,0.5,1.75,1.5,2.5,2.0,1.25,2.25,0.27,-0.3,1.14,301.81,-4.7,-6.3
2.26,5.25,1.75,3.75,3.25,5.75,7.0,5.0,6.0,5.0,4.75,3.25,2.5,2.75,-0.11,-0.11,0.95,1142.8,3.8,2.5,2.25,0.0,1.5,1.5,1.75,1.5,0.75,1.75,1.5,2.5,2.25,1.25,2.0,0.27,-0.36,1.02,284.01,-4.3,-14.0
2.28,4.25,0.75,3.75,3.75,7.25,7.0,5.5,5.75,5.0,4.75,4.0,3.5,3.75,-0.05,-0.11,0.95,1058.28,3.1,-3.4,2.25,0.25,1.5,0.75,1.75,1.5,0.75,1.25,1.25,3.0,2.5,1.25,2.0,0.27,-0.55,0.77,273.24,-3.9,-16.7
2.3,2.75,2.0,3.0,1.75,5.75,5.75,4.5,5.5,4.5,3.25,2.5,4.75,3.0,-0.11,-0.05,0.95,881.19,2.6,-6.7,2.25,0.5,1.5,0.5,1.75,1.25,0.75,1.5,1.5,3.0,2.5,1.25,2.25,0.33,-0.73,0.45,265.12,-3.8,-18.6
2.32,3.25,1.5,2.75,2.75,4.75,5.5,3.0,5.5,4.75,5.75,4.5,5.5,3.75,-0.11,-0.05,0.95,792.25,2.1,-16.9,2.25,0.0,1.25,2.0,1.75,1.5,0.75,1.5,1.25,2.5,1.5,1.25,2.0,0.27,-0.92,0.14,257.77,-4.1,-10.1
2.34,1.75,1.0,0.75,1.5,5.0,5.5,1.75,5.75,4.25,5.5,5.25,7.25,6.25,-0.11,-0.05,0.95,719.48,-1.6,-34.7,2.5,1.5,1.5,2.0,1.75,2.0,0.75,1.0,1.25,2.5,2.0,1.5,1.75,0.14,-1.17,0.14,264.31,-5.8,-0.1
2.36,1.75,0.75,0.0,0.0,3.75,4.75,0.75,5.75,4.0,6.25,5.5,8.0,7.75,-0.11,0.02,1.08,687.86,-3.4,-48.5,3.5,2.0,1.5,2.0,1.75,2.75,0.75,0.75,1.5,3.0,2.25,1.0,2.0,-0.11,-3.3,3.7,282.29,-5.8,5.4
2.38,0.75,0.75,0.25,2.0,4.75,3.75,1.75,5.75,3.75,6.75,5.5,8.25,8.75,-0.17,-0.05,1.02,687.02,-2.7,-46.6,6.25,1.5,2.0,4.5,5.25,3.75,0.75,0.75,1.25,0.25,1.25,0.25,1.75,1.83,-3.42,2.33,330.11,-9.5,39.3
2.4,0.25,0.5,0.0,0.75,5.0,2.5,1.5,5.75,2.75,6.0,5.5,7.5,9.5,-0.23,-0.17,0.89,679.16,-3.9,-53.7,8.5,2.5,5.0,6.5,5.5,0.0,0.75,0.0,1.25,1.5,1.5,0.25,1.75,0.52,1.58,4.08,406.95,-16.9,45.0
2.42,0.0,0.75,0.0,0.75,3.5,2.5,0.5,5.25,2.75,5.75,3.75,8.25,8.0,-0.23,-0.17,0.89,642.77,-4.3,-57.0,9.25,3.5,6.75,9.75,8.5,5.75,1.0,0.0,1.25,2.25,2.0,1.25,1.75,0.39,0.14,1.52,603.97,-11.8,41.8
2.44,0.25,0.75,0.0,0.5,3.5,2.5,0.5,5.5,2.5,6.25,4.0,8.5,8.75,-0.3,-0.11,0.83,623.09,-4.5,-58.4,9.25,2.75,7.25,9.75,9.5,6.0,1.75,2.25,1.5,1.5,1.0,0.5,1.0,0.14,0.14,1.58,788.96,-11.3,45.5
2.46,0.0,0.25,0.25,0.75,4.75,2.5,0.5,5.5,2.25,6.75,4.0,8.75,9.5,-0.3,-0.11,1.02,631.87,-4.8,-57.6,9.25,2.75,8.25,11.0,9.5,7.0,4.25,2.5,3.0,3.0,1.0,1.25,1.0,-0.05,0.14,1.7,1007.32,-11.0,38.5
2.48,0.25,0.0,1.0,0.0,4.75,2.0,0.0,5.5,2.0,6.5,3.75,8.75,9.75,-0.3,-0.11,1.02,634.81,-4.5,-59.3,9.0,3.25,9.5,11.5,9.75,7.25,5.75,3.75,3.5,3.5,2.0,1.5,1.0,-0.17,-0.05,1.14,1206.05,-10.8,34.3
2.5,0.0,0.0,0.0,0.75,4.5,2.5,0.0,5.25,2.0,6.5,3.75,9.0,9.75,-0.3,-0.11,0.95,656.32,-5.4,-60.9,9.25,3.5,9.5,11.5,11.5,7.75,6.5,5.0,5.25,4.0,3.5,1.5,2.75,0.2,-0.17,1.08,1397.29,-9.3,26.5
2.52,0.0,0.0,0.25,0.0,4.75,2.5,0.0,5.25,2.0,6.5,3.75,9.0,9.75,-0.3,-0.17,0.89,662.22,-5.5,-61.6,9.0,3.5,9.0,9.75,11.0,7.75,6.5,5.0,5.0,4.75,3.75,1.5,2.75,0.2,0.02,1.14,1488.98,-8.7,24.0
2.54,0.0,0.0,0.25,0.75,3.5,2.0,0.0,5.0,2.0,6.25,3.75,8.75,9.75,-0.3,-0.23,0.83,657.05,-4.9,-64.1,8.5,3.5,8.25,9.25,11.0,7.75,5.75,5.0,4.5,4.25,3.25,1.5,2.75,0.14,0.08,1.02,1522.83,-8.2,24.7
2.56,0.0,0.25,0.25,0.75,4.5,2.0,0.0,4.75,1.75,6.75,3.75,8.5,9.75,-0.3,-0.17,1.08,645.67,-5.0,-60.2,7.75,3.0,7.5,8.25,9.75,7.5,5.25,5.0,4.25,3.5,3.0,1.75,2.75,0.2,0.08,0.95,1473.88,-7.9,23.0
2.58,0.0,0.0,0.0,0.75,4.5,2.5,0.0,4.5,1.5,5.25,3.5,8.25,9.75,-0.3,-0.17,1.14,626.52,-5.4,-60.2,7.5,3.0,7.25,8.25,9.5,7.5,4.75,4.5,4.0,3.25,3.25,1.75,2.75,0.2,0.08,0.95,1394.24,-7.9,23.1
2.6,0.0,0.0,0.0,0.75,3.75,2.0,0.0,4.25,2.25,7.0,3.0,9.0,9.25,-0.36,-0.23,1.14,619.84,-5.2,-64.1,7.5,2.5,6.5,7.0,9.0,7.0,4.5,4.5,4.0,3.75,3.25,1.5,2.75,0.14,0.08,0.95,1288.94,-7.4,20.7
2.62,0.0,0.0,0.25,0.75,5.0,1.75,0.25,5.25,1.25,5.25,3.75,7.75,9.75,-0.36,-0.17,1.2,608.77,-5.1,-58.5,6.5,2.5,6.25,6.5,8.5,6.75,4.25,4.5,4.0,3.5,3.0,1.5,2.75,0.08,0.08,0.89,1152.53,-7.0,19.3
2.64,0.0,0.0,0.0,0.0,2.25,1.75,0.0,3.5,1.25,5.25,2.25,7.0,8.0,-0.42,-0.17,1.45,552.42,-6.3,-70.1,6.25,2.5,6.25,6.25,8.5,6.5,4.25,4.25,4.25,4.0,3.5,1.5,2.75,0.08,0.08,0.89,1047.01,-6.9,17.2
2.66,0.0,0.0,0.0,0.0,1.25,1.25,0.0,3.5,1.25,3.5,1.5,5.75,7.0,-0.55,-0.17,1.39,459.69,-6.4,-73.6,6.25,2.0,6.0,6.25,8.25,6.5,4.25,4.75,4.25,4.75,3.5,1.75,2.75,0.08,0.02,0.95,969.94,-6.3,14.0
2.68,0.0,0.0,0.0,0.0,0.75,1.25,0.0,3.25,1.25,1.75,1.25,3.5,5.75,-0.42,-0.11,1.2,348.41,-7.0,-71.1,5.75,2.5,6.0,6.25,7.5,6.5,4.0,5.0,4.75,5.5,4.5,3.0,3.25,0.14,0.02,0.95,952.94,-5.9,7.0
2.7,0.0,0.0,0.0,0.75,1.75,1.25,0.0,2.75,1.0,1.25,1.25,2.0,3.75,0.02,0.14,1.02,263.79,-5.9,-48.5,5.0,2.0,6.0,5.25,7.25,6.5,4.0,5.0,5.0,6.0,5.25,3.25,4.5,0.14,0.02,0.95,942.02,-4.9,-0.2
2.72,0.0,0.0,0.0,0.75,3.5,1.25,0.0,2.5,1.0,0.75,1.25,0.75,2.0,0.95,3.14,0.02,195.39,-5.4,-20.2,5.0,2.25,5.5,4.75,7.25,6.5,4.0,5.5,5.25,6.75,5.5,3.75,5.25,0.08,0.02,0.95,958.56,-4.0,-4.5
2.74,0.0,0.0,0.0,0.75,1.75,1.25,0.0,2.5,1.0,0.75,1.25,0.25,1.75,0.14,2.08,2.2,137.18,-6.2,-27.3,5.0,2.0,5.25,4.5,7.0,6.5,4.0,6.0,5.25,7.0,6.25,5.25,6.0,0.08,0.02,0.95,990.57,-3.6,-10.3
2.76,0.0,0.0,0.0,0.75,2.5,1.0,0.0,2.5,1.0,0.75,1.25,0.25,1.75,0.08,2.27,0.89,102.98,-5.6,-22.7,5.0,2.0,4.75,4.5,7.0,6.5,4.0,6.0,5.25,7.75,6.25,5.75,6.75,0.14,0.02,0.95,1043.26,-3.0,-13.3
2.78,0.0,0.0,0.0,0.75,1.25,0.0,0.0,2.5,1.0,1.0,1.25,0.25,1.75,-0.48,1.64,1.27,77.08,-4.6,-40.5,4.5,2.0,4.25,4.5,7.0,6.5,3.75,6.25,5.25,8.0,6.75,6.0,7.75,0.14,0.02,0.95,1092.13,-2.2,-17.1
2.8,0.0,0.0,0.0,0.0,0.5,0.25,0.0,2.25,1.0,0.75,1.25,0.25,1.5,-0.61,1.2,1.27,56.44,-6.4,-55.2,4.0,2.0,4.25,4.5,7.0,6.5,3.25,6.25,5.0,8.0,6.75,6.0,8.0,0.14,0.02,0.95,1123.93,-1.8,-18.3
2.82,0.0,0.0,0.0,0.25,0.0,0.0,0.0,1.75,0.75,0.75,1.25,0.25,1.25,-0.67,0.7,1.39,37.9,-4.8,-63.7,3.75,2.0,4.0,4.5,7.0,6.25,3.25,6.25,4.75,8.75,6.75,6.5,8.25,0.14,0.02,0.95,1141.36,-1.4,-20.6
2.84,0.0,0.0,0.0,0.25,0.5,0.0,0.0,1.5,0.75,0.75,1.0,0.25,1.5,-0.48,0.45,1.39,30.44,-5.1,-55.7,3.5,2.0,4.0,4.5,6.5,6.25,3.0,6.25,4.5,8.75,6.75,6.5,8.25,0.14,0.02,0.95,1139.68,-1.2,-21.7
2.86,0.0,0.0,0.0,0.5,1.25,0.5,0.0,1.0,0.75,0.75,1.25,0.25,1.25,-0.42,0.2,1.39,38.84,-3.7,-33.8,3.25,2.0,4.0,4.5,5.5,6.25,3.0,6.25,4.25,8.5,6.25,6.5,8.25,0.14,0.02,0.95,1114.64,-1.1,-22.7
2.88,0.0,0.0,0.0,0.0,1.25,0.0,0.0,1.25,0.5,0.75,0.5,0.25,0.75,-0.36,0.08,1.27,47.0,-6.3,-35.8,3.0,2.0,4.0,4.5,5.5,6.25,2.75,6.5,3.5,8.75,6.25,6.5,8.25,0.14,0.02,0.95,1080.58,-0.7,-23.3
2.9,0.0,0.0,0.0,0.0,0.5,0.0,0.0,0.75,0.5,0.75,0.5,0.25,1.0,-0.3,0.02,1.2,49.72,-6.2,-57.8,3.0,2.0,4.0,4.25,5.5,6.0,2.25,6.5,3.25,8.75,6.25,6.5,8.25,0.14,0.02,0.95,1044.16,-0.6,-24.0
2.92,0.0,0.0,0.0,0.0,0.75,0.0,0.0,1.0,0.5,0.5,0.5,0.25,0.5,-0.3,-0.05,1.14,47.38,-5.1,-41.2,2.5,2.0,4.0,3.25,5.5,5.75,2.25,6.5,3.0,8.5,6.25,6.25,8.25,0.14,0.02,0.95,997.53,-0.1,-25.8
2.94,0.0,0.0,0.0,0.0,0.75,0.0,0.0,1.0,0.5,0.5,0.5,0.25,0.5,-0.3,-0.11,1.08,44.87,-5.1,-41.2,2.5,2.0,2.75,2.25,5.25,5.75,1.75,6.25,2.25,8.75,6.0,6.0,8.25,0.14,0.02,0.95,936.31,1.2,-29.3
2.96,0.5,0.75,0.25,1.0,5.0,1.0,0.5,2.5,1.0,1.0,1.25,0.25,1.75,-0.36,-0.23,1.14,112.83,-1.9,1.1,2.5,2.0,1.5,2.0,5.25,5.75,1.5,6.25,1.5,7.75,5.25,5.25,8.25,0.14,0.08,1.08,853.1,2.6,-29.2
2.98,1.0,0.75,0.25,1.0,4.75,1.0,0.5,2.5,1.25,1.25,1.25,0.25,1.75,-0.42,-0.36,1.14,176.56,-0.9,1.2,2.5,0.25,1.5,0.0,5.25,4.75,1.25,6.0,1.5,7.0,4.75,4.0,7.75,0.14,0.08,1.14,740.25,3.8,-35.3
3.0,0.75,0.75,0.25,1.5,5.0,1.25,0.5,2.5,1.0,1.5,1.25,1.5,2.0,-0.55,-0.36,1.08,238.0,-1.1,-5.9,2.25,1.75,0.75,1.75,2.25,3.75,1.0,4.0,1.5,5.25,2.5,3.25,5.75,0.39,0.14,1.27,584.53,2.1,-27.8
3.02,1.0,0.75,0.25,1.5,5.0,1.0,0.5,2.5,1.0,1.25,1.25,0.75,1.75,-0.67,-0.36,0.89,268.37,-0.4,1.1,2.25,1.25,1.5,0.5,1.75,3.75,1.0,3.25,1.5,5.25,2.5,1.5,4.25,1.08,0.45,1.77,439.77,1.8,-23.7
3.04,0.75,0.75,0.25,1.0,5.0,1.0,0.25,2.5,1.25,1.25,1.25,0.5,1.75,-0.73,-0.3,0.77,281.56,-1.5,-0.8,2.25,1.75,1.5,2.0,2.5,3.25,0.75,3.25,1.5,4.25,2.5,1.5,2.0,0.83,0.39,1.39,348.68,-1.0,-7.2
3.06,0.75,0.75,0.25,1.5,5.0,1.25,0.0,2.5,1.0,1.25,1.25,1.0,1.75,-0.86,-0.42,0.64,283.51,-1.4,-1.3,2.25,0.25,1.0,0.0,1.5,2.0,0.0,2.25,1.0,2.25,2.0,0.5,1.75,0.27,0.64,1.14,256.16,-0.4,-14.5
3.08,0.75,0.75,0.25,1.5,5.0,1.25,0.0,2.5,1.0,1.25,1.25,0.25,1.75,-0.86,-0.67,0.58,282.1,-1.8,3.0,2.25,1.75,0.0,0.25,1.25,3.25,0.0,1.75,1.5,2.25,1.0,0.25,2.75,-0.61,2.58,0.39,200.76,2.5,-6.8
3.1,0.75,0.75,0.25,1.0,5.0,1.0,0.0,2.25,1.0,0.25,1.25,0.0,1.75,-0.61,-0.61,0.14,273.88,-1.2,8.1,2.25,1.5,0.0,2.0,1.25,2.75,0.0,1.5,1.0,2.5,2.25,1.0,2.75,-0.17,1.89,0.83,171.51,-0.2,-10.7
3.12,0.0,0.25,0.0,0.0,1.25,0.0,0.0,0.25,0.5,0.0,0.0,0.0,0.25,-2.61,-3.17,3.14,210.41,-1.1,16.9,2.25,1.75,1.25,1.75,1.75,2.75,1.0,2.25,1.25,3.0,2.5,1.25,2.5,0.08,1.52,0.64,188.15,-2.3,-7.4
3.14,1.75,0.75,0.0,0.75,0.5,1.25,0.0,1.0,0.75,0.75,0.0,0.0,0.0,0.2,-2.55,2.14,164.74,4.2,30.7,2.25,1.75,1.5,2.0,1.75,2.75,0.75,2.25,1.5,2.5,2.5,1.5,2.5,0.14,1.39,0.52,215.07,-3.2,-6.1
3.16,4.25,2.0,0.75,3.75,5.75,4.75,0.25,2.5,1.25,2.0,1.25,0.25,1.75,-1.23,-0.42,0.7,229.6,2.3,24.7,2.25,1.25,1.5,2.0,1.75,2.75,0.75,2.25,1.5,2.5,2.5,1.5,2.25,0.14,1.2,0.58,244.85,-3.2,-7.3
3.18,3.5,0.75,1.0,3.75,8.25,7.5,0.0,3.5,1.25,2.5,1.25,1.0,0.5,-0.86,0.2,1.2,321.21,-0.8,22.7,2.25,0.25,1.5,2.0,1.75,2.75,0.75,2.25,1.5,2.5,2.5,1.5,2.5,0.14,0.89,0.64,261.61,-2.6,-13.0
3.2,0.0,2.25,1.75,4.0,9.25,9.25,0.0,4.25,1.5,3.25,1.25,0.25,1.0,-0.73,0.2,1.52,446.98,-4.2,19.2,2.25,0.75,1.25,2.0,1.75,2.75,0.75,2.0,1.5,2.5,2.5,1.25,2.5,0.02,0.64,0.95,272.58,-2.6,-10.0
3.22,5.25,1.25,1.5,5.0,11.5,10.5,0.75,5.5,2.0,1.5,0.0,0.25,1.25,-0.3,0.08,1.45,611.62,-0.6,31.7,2.25,1.5,1.75,2.0,1.5,2.25,0.75,1.75,1.5,2.5,2.5,1.5,2.5,0.02,0.45,1.08,285.54,-4.5,-7.4
3.24,5.25,2.5,2.75,5.5,12.5,10.5,2.5,6.75,3.5,4.25,1.5,2.0,1.75,-0.11,-0.05,1.08,823.95,0.7,18.6,2.25,1.25,1.5,2.0,1.75,2.25,0.75,1.5,1.25,2.5,2.5,1.25,2.25,0.08,0.27,1.14,294.02,-4.2,-5.6
3.26,4.5,2.25,1.75,4.0,11.0,10.5,2.5,8.0,5.0,5.25,3.5,3.5,2.25,-0.3,-0.3,1.2,998.36,-0.5,4.0,2.25,1.5,1.5,2.0,1.75,1.75,0.75,1.25,1.5,2.5,2.5,1.75,2.25,0.08,0.08,1.2,299.03,-5.3,-7.5
3.28,3.75,2.25,1.0,3.75,9.75,10.5,2.0,8.75,5.0,6.5,4.75,3.5,4.0,-0.17,-0.11,1.14,1142.19,-2.1,-5.6,2.25,1.25,1.5,2.0,1.75,2.0,0.75,1.0,1.25,2.25,2.5,1.25,2.25,0.2,-0.05,1.08,297.06,-5.2,-4.5
3.3,3.5,2.25,0.0,3.75,8.75,10.5,1.25,8.75,5.0,6.75,4.5,3.5,5.25,-0.17,-0.11,1.02,1206.88,-3.4,-10.5,2.25,1.5,1.5,0.0,1.75,1.5,0.75,0.75,1.25,2.5,2.25,1.25,2.5,0.2,-0.11,1.02,288.06,-4.4,-11.8
3.32,2.75,2.25,0.25,3.5,8.75,9.5,0.5,8.5,4.5,5.75,3.75,3.5,5.25,-0.23,-0.05,0.95,1188.5,-3.7,-10.4,2.25,1.25,1.0,0.0,1.75,1.75,0.75,1.0,1.0,2.5,2.5,1.25,2.25,0.14,-0.11,1.02,269.21,-3.0,-14.2
3.34,2.0,1.0,0.25,3.5,7.75,9.0,0.5,8.25,4.0,5.75,2.5,3.5,5.25,-0.23,-0.05,0.89,1095.98,-4.8,-14.4,2.25,0.75,1.25,0.5,1.75,1.25,0.75,1.25,1.0,2.5,2.5,1.25,2.5,0.08,-0.17,1.14,254.43,-3.8,-17.0
3.36,2.0,1.25,0.25,3.25,7.25,8.75,0.5,7.75,3.5,5.5,2.5,3.5,5.25,-0.23,-0.05,0.89,992.21,-4.8,-14.4,0.75,0.0,1.75,0.0,1.75,0.75,0.75,1.25,1.0,1.0,2.5,0.0,2.25,0.14,-0.17,1.14,223.12,-3.8,-20.5
3.38,0.75,1.0,0.25,2.25,5.25,8.0,0.0,7.5,2.75,5.25,1.25,3.5,5.25,-0.23,-0.05,0.89,824.39,-7.1,-21.9,2.0,0.5,0.0,1.25,1.75,1.5,0.25,0.75,1.5,3.0,1.25,1.25,1.0,0.2,-0.17,1.02,210.04,-1.7,-11.5
3.4,0.75,1.0,0.25,2.5,5.75,7.5,0.5,7.5,3.0,5.25,3.5,5.0,5.25,-0.17,-0.05,0.95,717.1,-5.1,-26.1,2.25,1.25,1.5,2.0,1.75,1.25,0.75,1.0,1.5,2.5,2.5,1.25,2.25,0.27,-0.17,1.02,224.69,-6.0,-7.0
3.42,0.0,1.0,0.25,2.0,5.25,7.0,0.25,7.5,2.75,6.5,3.75,5.5,6.25,-0.17,-0.05,0.95,665.01,-6.2,-34.5,2.25,1.25,1.5,2.0,1.75,1.5,0.75,1.0,1.5,2.5,2.5,1.25,2.5,0.27,-0.23,1.02,247.84,-5.5,-7.7
3.44,0.75,0.75,0.25,2.0,5.75,7.0,0.0,7.5,2.75,7.0,4.25,6.0,7.0,-0.17,-0.05,0.95,665.77,-5.7,-35.2,2.25,1.5,1.5,2.0,2.25,1.25,1.0,1.25,1.5,2.75,2.0,0.5,2.25,0.52,-0.55,1.64,268.12,-5.3,0.0
3.46,1.0,0.75,0.25,2.25,5.0,7.0,0.25,7.75,2.5,6.75,3.75,6.0,8.0,-0.23,-0.05,0.95,669.5,-5.8,-36.4,1.25,0.25,0.0,0.0,0.5,0.5,0.0,0.75,1.0,1.0,1.25,0.25,1.0,0.33,-0.61,0.95,225.92,-2.1,-24.3
3.48,1.0,0.75,0.0,2.0,5.0,5.75,0.0,7.25,2.5,8.0,3.5,6.75,8.25,-0.23,-0.05,0.89,686.23,-5.8,-41.3,2.5,1.5,1.5,2.0,1.75,1.25,0.75,0.75,1.5,2.5,2.5,1.0,1.0,0.2,-0.86,0.83,232.45,-7.9,3.7
3.5,0.5,0.75,0.25,0.75,6.25,5.75,0.0,7.75,2.0,8.0,4.5,7.5,8.0,-0.3,-0.05,0.95,715.87,-6.2,-43.2,3.0,1.5,1.5,2.0,1.75,1.25,0.75,1.0,1.5,2.75,2.5,1.25,2.0,0.27,-1.98,1.08,241.84,-7.0,-2.1
3.52,1.25,0.75,0.5,2.0,5.5,5.75,0.25,7.5,2.25,9.5,4.0,8.25,8.75,-0.3,-0.05,0.89,768.26,-5.1,-42.3,3.75,0.25,2.0,2.75,5.25,2.75,0.75,1.75,1.25,2.25,2.25,1.25,2.0,0.64,-3.36,1.45,295.04,-5.0,9.5
3.54,1.75,0.25,0.25,0.75,5.0,5.0,0.0,7.75,1.75,10.0,3.5,8.5,8.75,-0.3,-0.11,0.89,804.96,-5.9,-47.9,4.5,2.0,4.0,4.5,3.5,5.5,1.5,2.25,1.5,2.5,1.0,1.25,1.5,1.08,0.58,2.33,378.54,-6.9,23.9
3.56,0.0,0.0,0.25,0.75,5.0,4.5,0.25,7.5,1.75,9.0,3.5,7.75,9.0,-0.3,-0.11,0.95,812.66,-7.1,-53.0,5.0,2.0,4.5,4.5,7.0,6.25,3.0,3.25,3.5,5.25,2.5,2.25,2.75,0.14,-0.11,1.2,556.05,-4.8,9.7
3.58,0.0,0.5,0.0,3.0,5.0,5.75,0.0,7.5,2.0,10.0,3.5,9.0,9.25,-0.3,-0.05,0.95,845.14,-6.3,-47.6,5.0,2.0,4.25,4.5,7.0,6.25,4.0,5.0,5.25,6.75,5.75,5.25,5.25,0.2,-0.11,1.27,787.48,-3.7,-9.2
3.6,0.0,0.5,0.25,0.75,5.25,3.75,0.0,8.0,1.25,9.5,3.75,8.25,9.5,-0.36,-0.05,0.95,840.55,-7.0,-53.7,5.0,2.0,4.0,4.5,7.0,6.25,4.0,6.0,5.25,7.75,7.0,6.0,6.75,-0.05,-0.05,1.02,1026.33,-2.8,-15.3
3.62,1.0,0.75,0.0,0.5,3.5,3.75,0.75,8.0,1.25,9.0,3.75,8.0,10.5,-0.36,-0.11,0.95,836.63,-6.4,-55.6,5.0,2.0,4.0,4.5,6.25,6.25,3.25,6.25,4.75,7.75,7.0,6.0,7.75,0.14,0.02,1.02,1192.71,-2.3,-17.7
3.64,1.25,0.75,0.75,1.0,5.0,3.5,0.0,7.75,1.25,9.0,3.75,8.0,10.5,-0.42,-0.11,0.89,825.17,-5.4,-49.6,3.75,2.0,4.0,4.0,5.5,6.25,2.75,6.0,4.75,7.75,6.75,6.0,7.75,0.14,0.08,0.95,1253.19,-1.7,-21.1
3.66,0.0,0.25,0.0,0.0,4.75,3.5,0.0,7.25,1.25,9.0,2.5,7.75,9.75,-0.55,-0.11,0.89,786.0,-8.1,-57.9,3.0,1.5,2.0,2.5,5.25,6.0,2.25,6.0,4.25,8.25,6.25,6.0,7.75,0.2,0.02,0.89,1210.72,0.7,-29.0
3.68,0.0,0.0,0.0,0.0,4.75,3.75,0.0,7.25,1.25,9.0,2.5,7.5,9.75,-0.61,-0.11,0.83,745.23,-8.4,-58.1,2.75,2.0,1.75,2.75,5.25,6.0,1.75,6.0,4.25,8.25,6.25,6.5,8.25,0.2,-0.05,0.89,1155.68,0.9,-30.0
3.7,0.0,0.0,0.0,0.25,2.25,3.5,0.0,7.25,1.0,9.0,2.5,7.5,9.5,-0.42,-0.11,1.02,695.26,-8.6,-65.2,3.25,2.0,2.75,2.5,5.25,5.75,2.0,6.0,3.0,7.5,6.25,6.0,8.25,0.14,0.02,0.95,1091.91,0.1,-26.6
3.72,1.0,0.75,0.0,0.25,3.5,3.5,0.0,7.0,1.0,8.75,2.25,7.5,10.5,-0.61,-0.11,0.95,678.56,-7.3,-56.5,2.0,1.0,1.0,2.0,2.5,5.0,1.0,5.25,3.0,7.75,5.25,6.5,7.75,0.08,0.02,0.95,966.05,2.3,-41.8
3.74,0.0,0.0,0.25,0.0,5.0,3.0,0.0,7.0,1.75,9.0,2.0,8.25,8.75,-0.67,-0.11,0.89,662.27,-7.4,-57.5,2.0,0.25,1.5,2.0,1.5,4.0,1.0,5.0,3.0,7.75,5.25,6.0,7.75,0.14,0.02,0.89,848.74,1.8,-46.2
3.76,0.0,0.0,0.0,0.0,1.75,2.0,0.0,6.5,1.0,8.0,1.5,6.75,8.75,-0.67,-0.11,1.02,610.57,-8.7,-69.9,1.5,0.5,1.25,2.0,1.75,4.0,1.0,5.0,3.0,8.5,5.25,6.5,7.75,0.14,0.02,0.95,755.55,2.4,-47.9
3.78,0.0,0.0,0.0,0.75,1.75,2.5,0.0,6.25,1.0,6.75,1.25,5.75,8.0,-0.67,-0.11,1.14,547.92,-8.5,-63.5,2.5,2.0,1.5,2.75,4.75,5.5,1.25,6.0,2.75,8.25,6.25,6.25,8.75,0.14,0.02,0.95,745.63,1.7,-32.7
3.8,0.0,0.0,0.0,0.5,3.75,1.75,0.0,5.5,1.0,5.25,1.25,4.25,6.5,-0.73,-0.17,1.27,462.65,-8.1,-53.3,1.5,0.25,1.25,2.0,1.75,4.0,1.0,5.5,2.25,8.0,5.5,6.25,8.0,0.14,0.02,0.95,695.85,2.7,-48.7
3.82,0.0,0.0,0.0,0.75,0.5,2.25,0.0,5.25,0.75,4.0,1.25,2.0,5.25,-0.73,-0.11,0.95,362.59,-10.0,-58.3,1.25,0.25,1.25,2.0,5.25,3.75,1.0,6.25,2.25,8.5,6.5,6.75,5.5,0.14,0.02,0.95,691.58,2.3,-39.6
3.84,0.0,0.0,0.0,0.75,1.25,1.75,0.0,4.25,0.75,3.25,1.0,0.75,3.75,0.14,2.45,0.7,281.05,-10.0,-47.3,1.25,0.25,0.5,2.0,2.25,4.0,0.5,6.0,2.0,8.75,6.0,6.75,8.5,0.14,0.02,0.95,681.47,4.0,-52.2
3.86,0.0,0.0,0.0,0.75,1.25,1.25,0.0,4.25,0.75,2.5,1.25,0.5,2.0,-0.55,1.7,1.33,213.41,-8.9,-40.3,2.0,1.75,0.75,2.0,1.75,5.0,1.0,6.75,2.25,9.5,7.0,7.75,9.0,0.14,0.02,0.95,733.35,2.9,-46.9
3.88,0.0,0.0,0.0,0.75,0.75,1.25,0.0,3.5,0.75,2.0,1.25,0.5,1.75,-0.11,2.2,0.77,153.45,-8.3,-41.8,2.25,1.75,1.5,2.0,4.25,5.75,1.0,7.0,2.25,9.75,7.0,7.75,9.25,0.14,0.02,0.95,810.0,2.7,-39.7
3.9,0.0,0.25,0.0,0.75,1.25,1.5,0.0,2.5,0.75,1.25,1.25,0.25,1.75,-0.42,2.14,1.27,110.35,-7.0,-29.1,1.0,1.75,1.5,1.75,3.5,4.25,1.25,7.0,2.0,9.75,6.75,8.0,9.75,0.2,0.02,0.95,878.72,3.1,-46.7
3.92,0.0,0.0,0.0,0.75,3.0,1.25,0.0,2.5,0.75,1.25,1.25,0.5,1.75,-0.42,1.89,1.45,94.88,-6.3,-21.7,2.25,0.25,1.5,2.0,3.5,3.75,0.75,7.25,1.75,9.75,6.5,7.75,9.75,0.2,0.02,1.02,909.78,2.9,-47.8
3.94,0.0,0.0,0.0,0.25,3.0,1.0,0.0,2.25,0.5,0.75,0.5,0.25,1.5,-0.55,1.39,1.58,80.41,-8.2,-15.6,2.25,1.25,0.25,2.0,3.75,4.5,0.5,7.0,1.5,9.5,6.5,7.0,8.5,0.27,0.02,1.02,900.1,3.7,-43.8
3.96,0.0,0.0,0.0,0.0,1.75,1.0,0.0,2.5,0.5,0.75,0.5,0.25,1.25,-0.36,1.02,1.52,65.93,-9.8,-27.1,0.75,0.75,1.25,2.0,2.75,3.75,0.5,7.0,1.5,9.75,5.5,7.25,9.75,0.27,0.08,1.14,878.5,4.4,-51.6
3.98,0.0,0.0,0.0,0.25,0.75,1.0,0.0,2.25,0.5,0.75,1.0,0.25,1.5,-0.17,0.7,1.45,59.78,-8.6,-40.7,1.5,0.25,0.75,0.5,3.25,3.75,0.25,6.5,1.5,7.75,5.75,6.0,9.0,0.39,0.08,1.27,808.58,4.8,-51.6
4.0,0.0,0.0,0.0,0.0,0.5,1.0,0.0,1.5,0.5,0.75,0.5,0.25,1.0,-0.05,0.33,1.39,52.71,-10.1,-41.0,2.25,1.25,0.0,1.5,1.75,3.75,0.25,6.0,1.25,7.75,5.25,5.75,8.25,0.64,0.08,1.64,736.66,4.1,-47.9
4.02,0.0,0.0,0.0,0.0,0.5,0.75,0.0,1.0,0.5,0.75,0.0,0.25,0.5,0.02,0.08,1.2,38.71,-10.6,-33.3,2.25,1.5,1.75,2.0,1.25,1.0,0.75,3.75,1.5,3.75,2.75,3.0,5.75,0.58,0.39,1.77,578.44,-1.7,-30.9
4.04,0.0,0.0,0.0,0.5,0.5,0.75,0.0,1.0,0.5,0.75,0.5,0.25,0.5,-0.05,-0.11,0.95,37.93,-5.8,-28.1,0.5,0.25,0.5,0.0,1.5,1.25,0.0,2.5,1.0,3.5,1.0,1.5,3.5,0.39,0.27,1.2,396.81,6.0,-46.2
4.06,0.0,0.0,0.0,0.75,0.5,0.25,0.0,0.25,0.5,0.75,0.5,0.25,0.5,-0.23,-0.23,0.64,38.7,-0.7,-27.9,0.5,0.5,1.25,1.0,1.75,2.75,0.0,2.5,1.0,2.75,2.5,1.25,1.75,-0.8,2.08,1.08,278.93,1.8,-21.7
4.08,0.0,0.0,0.0,0.0,4.5,0.25,0.0,0.5,0.5,0.75,0.0,0.25,0.5,-0.11,-0.23,0.2,61.53,-5.2,13.5,2.0,1.5,1.25,2.0,1.5,2.0,0.0,1.75,1.5,2.25,1.5,1.0,1.0,0.27,1.2,0.77,211.89,-4.3,3.4
4.1,0.0,0.0,0.0,0.0,0.5,0.25,0.0,0.25,0.5,0.75,0.0,0.25,0.0,-0.05,-0.42,0.14,52.12,-5.8,-28.8,2.25,1.25,0.0,2.0,0.5,2.75,0.25,2.25,1.0,2.5,2.5,0.75,2.0,0.64,0.83,1.27,176.15,-0.4,-11.5
4.12,0.25,0.75,0.0,0.75,0.0,1.25,0.0,0.25,1.0,1.5,0.0,1.75,0.25,-0.11,-0.86,0.14,71.0,0.0,-25.3,2.25,1.0,1.5,2.0,1.75,2.5,0.75,2.25,1.5,3.75,2.5,1.5,1.0,0.52,0.83,0.89,188.17,-3.3,-6.9
4.14,0.25,0.0,0.5,1.0,4.75,1.0,0.5,2.25,1.0,2.0,1.25,2.0,1.75,-0.55,-1.8,0.7,133.89,-1.9,-17.9,2.25,0.0,1.25,2.0,2.75,1.75,0.5,2.25,1.5,2.5,2.5,1.75,1.75,0.77,0.45,1.14,207.18,-3.3,-11.7
4.16,0.75,0.25,0.5,0.75,2.5,0.25,0.5,2.5,0.5,0.75,1.25,1.75,2.0,-0.8,-3.17,0.89,174.85,0.4,-23.7,2.25,1.0,1.5,2.0,1.75,1.75,0.75,2.25,1.5,3.0,2.5,1.5,1.0,0.7,-0.23,0.95,223.06,-4.7,-5.9
4.18,3.5,0.75,0.0,1.0,1.25,1.0,0.0,1.0,1.25,1.5,0.0,3.5,2.5,-3.17,-1.55,7.95,218.82,4.9,-17.2,2.25,1.25,1.25,2.0,1.75,1.75,0.25,1.0,1.5,2.5,2.5,1.5,1.5,0.77,-0.73,0.58,229.48,-5.4,-4.7
4.2,5.75,1.0,2.75,3.75,5.0,1.75,1.0,3.5,2.5,3.75,3.75,6.5,5.5,-1.48,0.08,4.77,357.86,5.7,-15.3,2.25,1.0,1.5,0.5,1.75,1.5,0.5,2.0,1.25,2.5,2.5,1.5,1.5,0.58,-1.48,0.45,234.1,-4.1,-11.6
4.22,7.75,2.25,5.25,3.75,5.25,1.25,1.25,4.25,3.0,4.5,5.25,7.0,7.0,0.14,0.45,3.14,586.74,7.6,-11.8,2.25,1.25,1.5,0.0,1.75,1.25,0.5,1.5,1.0,2.5,2.5,1.25,1.25,0.14,-2.3,0.7,233.63,-4.9,-8.9
4.24,8.25,3.5,6.5,5.5,5.25,2.5,1.75,2.5,2.5,5.25,5.0,7.0,7.25,0.2,0.45,1.89,858.18,8.6,-4.1,2.25,1.25,1.75,0.0,1.5,1.25,0.25,0.75,1.0,1.5,1.25,0.5,1.0,-0.23,-2.17,1.08,222.04,-7.6,9.8
4.26,9.75,3.75,7.25,5.5,5.5,3.75,1.0,4.25,2.75,5.0,4.25,7.5,8.0,0.08,0.58,0.39,1108.36,8.0,-2.1,2.25,1.25,0.0,0.0,1.0,1.5,0.0,0.75,1.0,2.75,1.0,1.0,0.75,-0.42,-1.73,1.27,210.61,-1.4,-7.4
4.28,9.0,2.0,6.25,3.75,5.0,2.5,0.0,3.5,2.25,5.25,3.75,7.5,7.75,-0.11,0.52,0.52,1194.41,7.5,-9.3,2.25,1.0,1.5,0.5,1.75,1.25,0.75,1.75,1.0,2.5,2.5,1.25,1.5,-0.36,-0.98,1.33,219.51,-4.7,-10.0
4.3,8.75,2.5,5.25,3.75,5.25,3.0,0.0,4.25,2.5,5.25,4.0,7.75,8.0,-0.17,0.45,1.08,1205.57,6.2,-10.9,2.25,1.25,1.5,0.0,1.75,1.25,0.75,1.75,1.0,2.5,2.5,1.25,1.75,-0.05,-0.42,1.33,226.34,-4.3,-11.7
4.32,8.5,2.5,4.75,2.25,5.25,2.5,0.0,4.25,2.25,5.75,4.5,8.25,8.75,-0.11,0.45,1.14,1159.05,5.4,-17.2,2.25,1.25,1.5,0.5,1.75,1.25,0.5,1.75,1.0,2.5,2.5,1.25,1.75,0.2,0.08,1.08,240.88,-4.4,-10.1
4.34,8.0,2.25,3.0,3.0,5.0,2.5,0.0,4.25,2.0,6.0,4.25,8.25,8.75,-0.11,0.33,0.95,1110.59,4.1,-20.3,2.25,1.25,1.25,0.5,1.75,1.5,0.75,1.75,1.0,2.5,2.5,1.25,1.75,0.2,0.33,0.89,250.01,-3.8,-10.3
4.36,8.25,2.25,1.0,2.0,5.0,2.5,0.0,4.0,2.0,6.5,3.75,8.0,8.75,-0.11,0.33,0.95,1016.75,2.6,-23.9,2.25,1.5,1.75,1.5,2.25,1.5,0.75,1.25,1.0,2.5,2.5,1.25,1.75,0.27,0.45,0.89,263.57,-5.7,-1.6
4.38,7.5,2.25,1.0,1.75,5.0,2.5,0.0,3.5,1.5,6.25,3.75,8.0,8.75,-0.05,0.52,0.7,924.02,2.2,-25.4,2.25,1.25,1.0,0.5,1.5,1.5,0.75,1.5,1.0,2.5,2.5,1.25,1.75,0.08,0.45,0.77,263.06,-3.7,-11.8
4.4,7.75,2.25,0.5,3.25,6.0,1.75,0.0,4.25,1.0,5.75,3.75,7.75,8.75,-0.05,0.33,0.77,858.54,2.5,-21.5,2.25,1.25,1.0,0.5,2.5,1.5,0.5,1.5,1.0,2.5,2.5,1.0,1.75,-0.17,0.39,0.45,266.19,-3.1,-7.0
4.42,7.0,3.0,0.0,1.0,4.5,2.25,0.0,4.5,1.25,5.75,3.5,7.75,8.75,-0.17,0.2,1.02,767.09,1.0,-28.0,2.25,1.5,1.5,0.5,1.75,1.5,0.75,1.25,1.0,2.75,2.25,1.25,1.5,-0.23,0.27,0.39,266.33,-4.8,-5.9
4.44,6.0,1.25,0.0,0.75,5.0,2.25,0.0,3.5,0.5,6.5,3.0,8.0,8.75,-0.11,0.33,0.83,676.01,-0.3,-35.3,2.25,1.25,1.5,0.5,1.75,1.25,0.75,1.25,1.0,3.5,2.25,1.25,1.75,-0.3,0.33,0.2,269.14,-4.0,-11.6
4.46,5.0,0.75,0.0,0.5,5.0,2.25,0.0,3.5,0.75,6.5,2.5,8.0,8.75,-0.23,0.2,0.83,614.67,-1.4,-39.8,2.25,1.25,1.5,1.75,1.75,1.25,0.75,0.75,1.0,2.5,2.25,1.25,1.75,-0.36,0.27,-0.05,270.78,-6.4,-3.1
4.48,3.25,0.75,0.0,0.75,4.25,2.25,0.0,3.0,0.75,6.5,2.5,8.0,8.75,-0.36,0.2,0.83,568.3,-2.5,-46.7,2.25,1.25,1.25,2.0,1.75,1.25,0.75,1.25,1.0,2.5,2.5,1.25,1.5,-0.36,0.14,0.14,274.78,-5.9,-3.5
4.5,2.25,0.75,0.0,0.0,4.75,2.25,0.0,3.0,0.5,6.25,2.5,8.25,9.0,-0.86,0.27,1.39,537.64,-3.8,-51.3,2.25,1.5,1.75,2.0,1.25,1.25,0.5,1.0,1.0,2.5,2.25,1.25,1.5,-0.48,0.14,0.27,273.47,-7.2,-1.1
4.52,1.75,0.75,0.0,0.75,3.5,1.75,0.0,2.75,0.5,6.5,2.25,8.25,9.25,-0.05,0.52,0.77,523.36,-3.8,-56.3,2.25,1.5,1.5,2.0,1.75,1.5,0.5,1.0,1.0,2.5,2.25,1.25,1.75,-0.36,0.14,0.2,272.83,-5.9,-1.3
4.54,1.75,0.0,0.0,0.5,4.25,1.5,0.0,2.5,0.5,6.25,2.5,8.25,9.75,-0.42,0.33,0.95,512.25,-4.0,-59.1,2.25,1.5,1.5,2.0,2.25,1.25,0.25,0.75,1.25,2.5,2.25,1.25,1.75,-0.05,-0.3,0.27,275.99,-6.1,-0.3
4.56,1.5,0.5,0.25,0.0,3.5,1.75,0.0,2.5,0.5,6.25,2.25,8.25,9.75,-0.55,0.08,0.83,505.74,-4.2,-60.7,2.25,1.25,1.5,2.0,1.75,1.25,0.5,0.75,1.0,2.0,2.0,1.25,1.75,1.02,-1.36,0.2,272.53,-6.9,0.2
4.58,1.5,0.75,0.0,0.0,4.5,1.5,0.0,2.5,0.5,6.25,2.0,8.5,9.75,-0.61,0.2,0.83,510.46,-4.3,-57.8,2.25,1.5,1.25,2.0,1.75,1.25,0.5,0.75,1.0,2.5,2.0,1.25,1.5,1.77,-1.92,0.89,269.24,-6.3,0.2
4.6,1.75,0.75,0.25,0.0,3.0,1.25,0.0,2.5,0.5,5.5,2.5,8.75,9.75,-0.73,-0.11,1.2,510.1,-3.1,-62.0,2.25,1.25,1.5,2.0,1.75,1.5,0.5,0.75,1.25,2.5,2.5,1.25,1.5,2.14,-2.48,1.39,268.87,-6.5,-2.0
4.62,1.75,0.5,0.25,0.0,2.5,1.25,0.0,2.5,0.5,5.25,2.5,8.25,9.75,-1.05,-0.86,1.45,502.57,-3.3,-64.3,2.25,1.25,1.5,2.0,2.25,1.25,0.75,0.75,1.0,2.5,2.25,1.25,1.5,3.02,-2.42,0.7,271.84,-6.6,0.5
4.64,1.0,0.5,0.25,0.0,3.5,1.0,0.0,2.5,0.5,6.25,2.25,7.75,9.5,-1.42,-2.05,2.27,495.69,-4.5,-63.6,2.25,1.25,1.5,2.0,2.25,1.25,0.75,0.75,1.0,2.5,2.5,1.25,1.75,3.27,-2.23,0.52,274.73,-6.4,-1.6
4.66,2.0,0.0,0.0,0.5,0.75,0.75,0.0,1.0,0.5,3.25,1.25,5.0,8.0,-2.23,-2.86,2.64,421.89,-2.6,-67.5,2.25,1.5,1.5,2.0,1.75,1.25,0.75,0.75,1.0,2.75,2.5,1.25,1.75,2.33,-2.11,1.52,277.39,-6.4,-2.8
4.68,0.0,0.0,0.0,0.0,2.25,1.0,0.0,0.5,0.5,2.0,0.75,2.5,4.0,-1.67,0.08,3.27,317.49,-6.5,-57.5,2.25,1.25,1.75,2.0,2.5,1.5,0.75,0.5,1.0,2.5,2.0,1.25,1.5,1.45,-1.98,2.45,278.95,-6.7,3.8
4.7,0.0,0.0,0.25,0.5,0.5,1.0,0.0,1.0,0.5,1.0,0.5,2.0,3.75,1.39,3.95,-2.23,228.44,-5.4,-63.2,2.25,1.25,1.5,2.0,1.5,1.5,0.75,0.0,1.25,2.5,2.5,1.0,1.5,0.89,-2.17,2.58,273.42,-7.6,0.0
4.72,0.0,0.0,0.25,0.5,0.5,0.25,0.0,1.0,0.5,1.25,0.0,2.0,2.0,2.39,2.64,1.95,143.69,-3.5,-61.0,2.5,1.5,1.5,2.0,1.75,1.25,0.5,0.0,1.0,2.25,2.0,1.5,1.5,0.58,-1.67,2.08,268.45,-8.3,3.3
4.74,0.0,0.25,0.0,0.75,2.5,1.0,0.0,1.0,0.5,0.75,0.0,0.75,1.75,0.64,3.45,-1.05,87.89,-5.6,-14.0,2.25,1.5,1.0,2.0,1.75,1.25,0.5,0.5,1.25,2.75,2.25,1.0,1.5,0.83,-1.42,1.2,264.2,-6.0,-1.0
4.76,0.0,0.0,0.0,0.75,0.75,1.0,0.0,0.75,0.5,0.75,0.0,0.5,1.75,0.2,1.83,-0.36,46.96,-7.1,-33.8,2.25,1.25,1.5,2.0,1.75,1.25,0.5,0.5,1.0,2.5,2.0,1.25,1.5,0.33,-1.23,1.02,261.32,-6.9,0.2
4.78,0.0,0.25,0.25,0.75,1.25,1.0,0.0,1.0,0.5,0.75,0.0,0.25,1.75,-1.3,0.2,-0.98,32.8,-5.6,-17.9,2.25,1.25,1.5,2.0,1.75,1.5,0.5,0.25,1.25,2.75,2.0,1.0,1.5,0.08,-0.3,0.39,261.12,-6.6,1.1
4.8,0.0,0.0,0.0,0.0,0.5,1.0,0.0,2.25,0.5,2.25,1.25,3.5,2.0,-4.23,-4.92,0.08,59.83,-5.6,-68.8,2.25,1.5,1.5,2.0,1.75,1.25,0.25,0.25,1.0,2.5,2.0,1.0,1.5,-0.55,0.58,-0.17,260.1,-7.2,3.4
4.82,1.0,0.75,0.0,1.75,0.0,2.5,0.0,2.5,0.5,3.5,0.75,3.5,4.0,1.02,-3.55,-1.8,127.96,-4.2,-44.1,2.25,1.5,1.25,2.0,1.75,1.25,0.5,0.25,1.0,2.5,2.0,1.25,1.5,-0.92,0.77,-0.05,258.26,-6.9,1.3
4.84,0.0,0.25,0.5,1.5,5.0,1.0,0.0,2.5,0.5,1.75,1.75,0.5,3.75,-2.86,-2.17,2.02,184.27,-4.2,-18.3,1.0,0.25,1.5,0.0,1.75,0.25,0.5,0.25,1.0,0.75,2.25,0.0,1.0,-0.67,0.64,-0.17,221.67,-9.2,-4.5
4.86,0.0,0.5,0.75,0.5,2.25,1.0,0.0,2.5,0.5,0.75,0.0,0.25,1.75,-2.8,-2.23,0.58,191.74,-4.9,-8.7,2.25,1.25,0.5,0.0,1.75,0.5,0.5,0.75,1.0,0.75,1.5,0.0,1.5,-0.36,0.39,-0.17,195.3,-6.7,7.6
4.88,0.0,0.0,0.5,0.25,5.0,0.0,0.0,0.5,0.5,0.75,0.0,0.25,1.5,-2.11,-1.11,0.89,182.15,-2.7,6.3,0.75,0.25,0.0,0.0,0.0,0.5,0.0,0.75,0.75,0.75,0.75,0.0,0.75,-0.23,-0.05,0.02,135.72,0.2,-27.8
4.9,0.5,0.0,0.0,0.75,1.25,1.0,0.0,1.25,0.5,1.0,0.5,0.5,1.5,-2.36,-0.61,1.27,161.76,-4.3,-22.7,1.0,0.25,1.5,0.0,1.75,0.25,0.5,0.75,0.75,1.0,1.5,0.25,1.25,-0.23,-0.36,0.14,120.96,-6.6,-7.2
4.92,0.25,0.75,0.25,0.75,1.25,0.0,0.0,1.75,0.25,0.5,0.0,0.25,1.5,-2.05,-0.17,1.45,141.11,-2.1,-9.5,0.25,0.25,0.0,0.0,0.0,0.25,0.0,0.75,0.75,0.25,0.5,0.25,1.0,-0.11,-0.73,0.2,79.46,1.9,-46.6
4.94,0.0,0.0,0.0,0.75,0.5,0.0,0.0,0.25,0.25,0.75,0.0,0.25,1.25,-1.8,0.14,1.52,107.14,-4.0,-40.5,0.75,0.5,0.0,0.75,0.0,1.25,0.0,0.75,1.0,1.25,0.5,0.25,0.75,-0.05,-0.8,0.14,78.01,0.7,-13.6
4.96,0.0,0.0,0.0,0.5,0.0,0.0,0.0,0.25,0.5,0.75,0.0,0.25,1.0,-1.23,-0.42,1.39,79.74,-3.8,-59.3,2.25,1.25,1.25,2.0,1.75,1.25,0.75,0.75,0.75,0.75,1.5,0.0,1.5,-0.11,-0.8,-0.05,113.72,-8.4,19.1
4.98,0.0,0.0,0.0,0.75,0.5,0.0,0.0,0.25,0.25,0.5,0.0,0.25,1.0,-0.42,-1.48,1.14,52.82,-2.5,-33.2,0.5,0.25,0.0,0.0,0.0,0.5,0.0,0.75,0.75,0.75,0.25,0.0,0.75,-0.3,-0.73,-0.17,100.96,3.2,-29.2
5.0,0.0,0.0,0.0,0.75,0.5,0.0,0.0,0.25,0.25,0.5,0.0,0.25,1.0,0.39,-2.05,0.83,35.97,-2.5,-33.2,0.5,0.25,0.0,0.0,0.5,0.25,0.0,0.75,0.75,0.75,0.75,0.0,0.75,-0.42,-0.61,-0.11,89.4,1.1,-27.2
5.02,0.0,0.0,0.0,0.5,0.5,0.0,0.0,0.5,0.25,0.5,0.0,0.25,0.5,0.95,-1.17,0.33,20.63,-3.5,-28.6,0.5,0.25,0.0,0.0,0.0,0.5,0.0,0.75,0.5,0.5,0.5,0.0,0.75,-0.55,-0.42,-0.17,61.13,2.6,-28.5
5.04,0.25,0.0,0.0,0.5,0.5,0.0,0.0,2.5,0.25,0.75,1.25,0.25,2.0,0.7,-0.36,0.39,41.61,-5.7,-50.7,0.5,0.25,0.0,0.0,0.5,0.5,0.0,0.75,0.75,0.75,0.75,0.5,0.25,-0.61,-0.42,-0.3,56.14,0.0,-24.3
5.06,1.0,0.25,0.25,0.75,3.0,0.0,0.0,2.5,0.25,0.75,0.0,1.5,0.0,-0.23,-0.05,0.33,79.58,0.9,3.4,0.25,0.25,0.0,0.0,1.25,0.25,0.0,0.75,0.75,0.75,0.5,0.0,0.5,-0.48,-0.8,-0.3,53.03,2.9,-13.5
5.08,1.25,0.75,0.0,1.75,0.0,1.0,0.0,0.25,0.5,1.75,0.0,1.5,0.25,-0.67,-0.05,-0.11,112.55,4.9,-2.6,0.25,0.25,0.0,0.0,0.0,0.25,0.0,0.75,0.75,0.75,0.5,0.0,1.0,-0.36,-0.98,-0.17,63.51,4.0,-46.3
5.1,1.0,0.75,0.5,1.5,4.5,1.0,0.5,1.75,0.5,1.5,1.25,1.5,1.75,-0.55,-0.36,-0.23,178.51,0.6,-2.4,0.5,0.25,0.0,0.0,0.0,0.25,0.0,0.75,0.5,0.25,0.5,0.0,0.75,-0.23,-1.17,-0.11,58.67,0.4,-29.4
5.12,1.25,0.75,0.5,1.75,5.0,1.0,0.5,1.5,0.5,1.25,1.25,1.75,1.75,-0.36,-0.61,-0.23,226.27,1.7,1.2,0.75,0.25,0.0,0.25,0.0,0.25,0.0,0.25,0.5,0.75,0.25,0.0,0.75,-0.11,-1.3,0.02,55.54,-2.2,-17.9
5.14,1.25,0.75,0.5,1.25,4.75,1.0,0.5,1.25,0.5,1.25,1.25,1.0,1.75,-0.36,-0.61,-0.05,257.25,1.3,4.0,0.0,0.25,0.0,0.0,0.25,0.25,0.0,0.75,0.5,0.5,0.25,0.0,0.5,-0.05,-1.36,0.02,44.59,6.6,-34.0
5.16,1.25,0.75,0.0,1.25,0.5,1.0,0.0,1.0,0.5,0.75,1.25,1.0,1.75,-0.17,-0.61,0.08,244.51,2.2,-16.6,0.5,0.25,0.0,0.0,1.25,0.25,0.0,0.75,0.25,0.25,0.25,0.0,0.0,-0.11,-1.3,0.02,47.34,0.3,20.7
5.18,1.0,0.75,0.5,1.5,0.5,0.0,0.0,1.0,0.5,0.75,1.25,1.5,1.75,-0.11,-0.55,0.02,225.54,5.9,-22.1,0.5,0.25,0.0,0.0,0.0,0.25,0.0,0.5,0.5,0.75,0.5,0.0,0.0,-0.23,-1.11,0.02,40.63,-1.6,-16.4
5.2,0.25,0.5,0.5,1.5,5.0,0.75,0.0,0.5,0.5,0.75,1.25,1.25,1.75,-0.05,-0.67,-0.05,217.45,0.7,0.6,0.25,0.25,0.0,0.0,1.0,0.25,0.0,0.75,0.5,0.5,0.25,0.0,0.25,-0.3,-0.98,-0.11,44.89,3.1,-3.4
5.22,1.0,0.75,0.0,1.0,4.75,0.5,0.0,0.5,0.5,0.75,1.25,1.5,1.75,-0.05,-0.8,-0.17,217.66,1.2,-0.6,0.5,0.25,0.0,0.0,1.0,0.25,0.0,0.75,0.5,0.75,0.25,0.0,0.0,-0.36,-1.17,-0.36,58.65,1.2,4.1
5.24,0.0,0.75,0.0,1.5,0.5,1.0,0.0,0.25,0.5,0.75,0.0,1.5,0.0,-0.05,-0.73,-0.11,189.13,2.4,-2.6,0.5,0.25,0.0,0.0,0.5,0.0,0.0,0.75,0.25,0.75,0.25,0.0,0.0,-0.3,-1.17,-0.36,57.07,0.3,-3.4
5.26,1.0,0.75,0.5,1.0,5.0,1.0,0.0,0.5,0.5,0.75,1.25,0.75,1.75,0.02,-0.67,-0.11,196.45,1.3,8.7,0.5,0.25,0.0,0.0,1.0,0.0,0.0,0.75,0.25,0.75,0.25,0.0,0.0,-0.23,-1.17,-0.36,58.05,0.7,5.0
5.28,0.75,0.75,0.5,1.25,5.0,1.0,0.0,0.5,0.5,0.75,1.25,0.5,1.75,0.02,-0.61,-0.11,196.5,0.9,10.1,0.0,0.25,0.0,0.0,0.25,0.25,0.0,0.5,0.25,0.75,0.25,0.0,0.0,-0.17,-1.05,-0.3,49.62,7.0,-21.7
5.3,1.0,0.75,0.5,1.5,4.75,1.0,0.0,0.5,0.5,0.75,1.25,1.0,1.75,0.08,-0.67,-0.17,210.94,2.0,7.7,0.0,0.25,0.0,0.0,0.25,0.25,0.0,0.75,0.25,0.75,0.25,0.0,0.0,-0.11,-0.98,-0.3,45.4,7.8,-23.2
5.32,1.0,0.75,0.5,1.75,5.0,1.0,0.0,0.5,0.5,0.75,1.25,0.75,1.75,0.08,-0.8,-0.11,220.66,2.0,11.1,0.25,0.25,0.0,0.0,0.25,0.25,0.0,0.5,0.25,0.5,0.0,0.0,0.0,-0.11,-0.86,-0.23,39.06,3.6,2.3
5.34,1.0,0.75,0.5,1.25,5.0,1.0,0.0,0.5,0.5,0.75,1.25,0.75,1.75,0.02,-0.92,-0.05,225.68,1.5,9.5,0.5,0.25,0.0,0.0,1.25,0.25,0.0,0.5,0.25,0.75,0.25,0.0,0.0,-0.11,-0.73,-0.23,47.13,1.2,12.7
5.36,1.0,0.25,0.5,0.0,5.0,1.0,0.0,0.5,0.5,0.75,1.25,0.75,1.75,-0.05,-1.17,0.02,219.95,-0.3,1.7,0.0,0.25,0.0,0.0,0.0,0.0,0.0,0.75,0.25,0.75,0.0,0.0,0.0,-0.17,-0.67,-0.23,41.48,9.0,-34.7
5.38,1.0,0.75,1.0,1.75,2.25,1.0,0.0,0.5,0.5,0.75,1.25,0.5,1.5,-0.11,-1.3,0.08,212.07,4.9,7.4,0.5,0.25,0.0,0.0,0.5,0.0,0.0,0.75,0.25,0.5,0.25,0.0,0.0,-0.17,-0.61,-0.3,44.44,-0.9,2.4
5.4,1.25,0.75,0.5,1.25,5.0,1.0,0.0,0.5,0.5,0.75,1.25,1.0,1.75,-0.17,-1.3,-0.11,219.63,2.1,9.0,0.25,0.25,0.0,0.0,0.0,0.0,0.0,0.75,0.25,0.5,0.5,0.0,0.25,-0.3,-0.55,-0.36,40.85,1.5,-34.0
5.42,1.0,0.75,0.5,1.5,5.0,1.0,0.0,0.5,0.5,0.75,1.25,0.75,1.75,-0.23,-1.3,-0.11,222.83,1.8,10.3,0.5,0.25,0.0,0.0,0.25,0.0,0.0,0.75,0.25,0.5,0.0,0.0,0.0,-0.3,-0.42,-0.42,40.47,-0.4,4.1
5.44,0.75,0.75,0.5,1.75,5.0,1.0,0.0,0.5,0.5,0.75,1.25,0.5,1.75,-0.17,-1.17,-0.17,227.34,1.4,11.7,0.5,0.25,0.0,0.0,0.5,0.0,0.0,0.5,0.25,0.5,0.25,0.0,0.0,-0.36,-0.36,-0.55,39.16,-2.5,6.1
5.46,1.0,0.75,0.5,1.75,5.0,1.0,0.0,0.5,0.5,0.75,1.25,0.75,1.75,-0.11,-1.11,-0.3,233.68,2.0,11.1,0.25,0.25,0.0,0.0,0.0,0.25,0.0,0.5,0.25,0.75,0.5,0.0,0.25,-0.36,-0.3,-0.61,41.48,3.1,-31.6
5.48,1.0,0.75,0.5,1.75,5.0,1.0,0.0,0.5,0.5,0.75,1.25,0.5,1.75,-0.11,-1.05,-0.36,236.71,1.9,12.9,0.5,0.25,0.0,0.0,0.25,0.25,0.0,0.75,0.25,0.5,0.25,0.0,0.5,-0.42,-0.23,-0.61,46.75,2.4,-16.1
5.5,1.0,0.75,0.5,1.5,5.0,1.0,0.25,0.5,0.5,0.75,1.25,0.75,1.75,-0.11,-0.92,-0.48,230.89,2.0,10.4,0.25,0.25,0.0,0.0,1.0,0.0,0.0,0.75,0.25,0.5,0.25,0.0,0.75,-0.55,-0.23,-0.67,53.64,4.2,-16.6
5.52,1.0,0.75,0.5,1.5,5.0,0.25,0.0,0.5,0.5,0.75,2.0,1.0,2.0,-0.11,-0.92,-0.42,231.96,3.1,1.9,0.5,0.25,0.0,0.0,0.0,0.25,0.0,0.75,0.25,0.75,0.0,0.0,0.75,-0.55,-0.23,-0.73,57.17,5.1,-28.9
5.54,0.75,0.75,1.0,1.5,4.75,0.75,0.0,0.5,0.5,0.75,1.25,0.75,1.75,-0.11,-0.98,-0.36,230.96,2.9,9.5,0.75,0.25,0.0,0.0,0.5,0.25,0.0,0.75,0.25,0.5,0.5,0.0,0.75,-0.55,-0.23,-0.8,63.23,0.5,-14.2
5.56,1.0,0.75,0.5,1.25,5.0,1.0,0.0,0.5,0.5,0.75,1.25,0.75,1.75,-0.11,-0.98,-0.3,229.74,1.5,9.5,0.25,0.25,0.0,0.0,0.0,0.25,0.0,0.5,0.25,0.5,0.25,0.0,0.75,-0.55,-0.3,-0.8,59.41,5.0,-37.9
5.58,0.75,0.75,0.5,1.5,5.0,0.75,0.0,0.5,0.5,0.75,1.25,0.5,1.75,-0.11,-0.98,-0.3,227.07,1.5,10.6,0.25,0.25,0.0,0.0,0.25,0.25,0.0,0.75,0.25,0.75,0.25,0.0,0.75,-0.55,-0.3,-0.8,59.53,6.4,-33.4
5.6,0.75,0.75,0.5,1.75,4.75,1.0,0.0,0.5,0.5,0.75,1.25,0.5,1.75,-0.11,-0.86,-0.23,225.85,1.5,10.9,0.0,0.25,0.0,0.0,0.25,0.25,0.0,0.75,0.25,0.75,0.0,0.0,0.75,-0.55,-0.3,-0.8,57.35,10.6,-39.6
5.62,0.75,0.75,0.5,1.75,5.0,1.0,0.5,0.75,0.5,0.75,1.25,0.25,1.75,-0.05,-0.8,-0.23,225.72,1.5,13.0,0.25,0.25,0.0,0.0,0.0,0.0,0.0,0.75,0.25,0.75,0.5,0.25,0.75,-0.55,-0.23,-0.73,58.78,3.4,-52.2
5.64,0.75,0.75,0.5,1.75,5.0,1.0,0.5,0.5,0.5,0.75,1.25,0.5,1.75,0.08,-0.73,-0.23,225.67,1.9,11.9,0.0,0.25,0.0,0.0,0.0,0.0,0.0,0.75,0.25,0.75,0.25,0.0,0.75,-0.55,-0.23,-0.67,56.06,8.6,-57.2
5.66,1.0,0.75,0.5,1.75,5.0,1.0,0.5,0.5,0.5,0.75,1.25,0.5,1.75,0.14,-0.61,-0.3,228.86,2.4,13.2,0.0,0.25,0.0,0.0,0.0,0.25,0.0,0.5,0.25,0.5,0.5,0.0,0.75,-0.48,-0.17,-0.61,54.13,6.9,-51.5
5.68,1.0,0.75,0.5,1.0,5.0,0.0,0.5,0.5,0.5,1.0,1.25,0.75,1.75,0.14,-0.48,-0.36,225.02,3.0,6.0,0.25,0.25,0.0,0.0,0.0,0.0,0.0,0.5,0.25,0.5,0.25,0.0,0.25,-0.36,-0.23,-0.42,45.71,1.2,-28.9
5.7,0.5,0.5,0.5,1.25,4.75,1.0,0.0,0.5,0.5,0.75,1.25,0.5,1.75,0.14,-0.36,-0.48,218.5,0.2,6.3,0.5,0.25,0.0,0.0,0.0,0.0,0.0,0.75,0.25,0.75,0.5,0.0,0.75,-0.3,-0.23,-0.36,47.26,1.9,-39.0
5.72,1.0,0.75,0.5,1.75,5.0,1.0,0.5,0.5,0.5,0.75,1.25,0.5,1.75,0.2,-0.3,-0.55,220.23,2.4,13.2,0.25,0.25,0.0,0.0,0.0,0.25,0.0,0.5,0.25,0.0,0.0,0.0,0.25,-0.17,-0.17,-0.42,38.53,1.6,-0.4
5.74,1.0,0.75,0.5,1.5,5.0,1.0,0.25,0.5,0.5,0.75,1.25,0.5,1.75,0.27,-0.3,-0.61,222.15,1.9,12.3,0.0,0.25,0.0,0.0,0.0,0.25,0.0,0.75,0.25,0.75,0.0,0.0,0.5,-0.11,-0.11,-0.42,38.91,11.0,-42.9
5.76,1.0,0.75,0.5,1.5,5.0,1.0,0.5,0.5,0.5,0.75,1.25,0.25,1.75,0.27,-0.36,-0.55,225.35,2.0,14.4,0.0,0.25,0.0,0.0,0.5,0.0,0.0,0.75,0.25,0.75,0.75,0.0,0.25,-0.05,-0.17,-0.23,41.95,4.4,-34.1
5.78,1.0,0.75,0.5,1.75,5.0,1.0,0.5,0.5,0.5,0.75,1.25,0.25,1.75,0.27,-0.36,-0.55,228.19,2.3,15.1,0.25,0.25,0.0,0.0,0.25,0.0,0.0,0.75,0.25,0.75,0.75,0.0,0.25,-0.05,-0.36,-0.05,46.93,1.8,-32.6
5.8,1.0,0.75,0.5,1.75,5.0,1.0,0.5,0.5,0.5,0.75,1.25,0.25,1.75,0.27,-0.42,-0.55,229.98,2.3,15.1,0.25,0.25,0.0,0.0,0.0,0.25,0.0,0.5,0.25,0.5,0.25,0.0,0.25,-0.05,-0.73,0.08,45.5,3.2,-22.9
5.82,1.0,0.75,0.5,0.75,5.0,1.0,0.5,0.75,0.5,0.75,1.25,0.5,1.75,0.27,-0.48,-0.55,227.42,1.1,9.3,0.0,0.25,0.0,0.0,0.25,0.0,0.0,0.5,0.25,0.5,0.25,0.0,0.0,-0.11,-1.11,0.14,40.24,4.0,-21.5
5.84,0.75,0.0,0.5,1.25,4.25,1.25,0.25,1.0,0.5,0.75,1.25,0.5,1.75,0.2,-0.55,-0.55,219.98,-0.1,1.6,0.0,0.25,0.0,0.0,0.5,0.0,0.0,0.75,0.25,0.5,0.5,0.0,0.0,-0.17,-1.61,0.27,38.86,3.8,-20.0
5.86,0.75,0.75,0.5,1.75,5.0,1.0,0.5,0.5,0.5,0.75,1.25,0.25,1.75,0.2,-0.67,-0.42,219.98,1.8,13.8,0.25,0.25,0.0,0.0,0.0,0.25,0.0,0.5,0.25,0.5,0.5,0.0,0.0,-0.11,-1.73,0.39,36.41,0.8,-19.0
5.88,1.0,0.75,0.5,1.75,5.0,1.0,0.5,0.25,0.5,0.75,1.25,0.5,1.75,0.14,-0.73,-0.3,222.03,2.7,14.0,0.5,0.25,0.0,0.0,0.0,0.25,0.0,0.75,0.25,0.75,0.25,0.0,0.25,-0.17,-1.67,0.45,41.18,2.5,-19.5
5.9,1.0,0.75,0.5,1.75,4.75,1.0,0.5,0.5,0.5,0.75,1.25,0.75,1.75,0.08,-0.8,-0.23,226.79,2.6,10.6,0.0,0.25,0.0,0.0,0.5,0.25,0.0,0.75,0.25,0.5,0.0,0.0,0.25,-0.11,-1.36,0.52,43.08,8.8,-14.1
5.92,1.0,0.75,0.5,1.5,5.0,1.0,0.5,0.75,0.5,0.75,1.25,0.5,1.75,0.02,-0.86,-0.17,230.71,1.8,11.6,2.0,1.25,0.0,2.0,0.0,1.25,0.0,0.75,0.5,2.5,0.75,1.0,1.0,0.08,-1.05,0.45,98.1,-3.6,-3.2
5.94,0.75,0.75,0.5,1.75,5.0,1.0,0.5,0.25,0.5,0.75,1.25,0.5,1.75,0.02,-0.8,-0.11,230.73,2.2,12.7,0.25,0.25,0.5,0.0,0.0,0.25,0.0,0.75,0.25,0.5,0.75,0.0,0.25,0.2,-0.8,0.14,97.62,-3.3,-19.2
5.96,0.75,0.75,0.5,1.75,5.0,0.75,0.5,0.5,0.5,0.75,1.25,0.5,1.75,-0.05,-0.8,-0.05,228.38,2.3,11.6,0.75,0.25,0.0,0.0,1.25,0.25,0.0,0.5,0.25,0.5,0.25,0.0,0.0,0.14,-0.73,0.02,102.3,-1.6,22.9
5.98,0.75,0.75,0.5,1.0,5.0,0.5,0.5,0.25,0.25,1.25,1.25,0.75,1.75,-0.17,-0.8,-0.05,223.46,1.5,5.6,2.0,1.25,1.0,2.0,2.5,1.25,0.25,0.75,0.75,2.5,1.75,1.0,1.0,0.08,-0.73,-0.05,155.12,-5.2,5.2
6.0,0.25,0.25,0.5,1.75,3.75,1.0,0.25,0.0,0.5,0.75,1.25,0.5,1.75,-0.36,-0.86,0.08,210.52,1.3,2.6,2.25,1.25,0.5,2.0,2.5,1.25,0.0,0.75,0.75,2.25,1.5,1.0,1.0,0.14,-0.92,-0.05,204.38,-4.6,7.0
6.02,0.75,0.75,0.5,1.5,5.0,1.0,0.5,0.5,0.5,0.75,1.25,0.25,1.75,-0.61,-0.92,0.27,210.45,1.5,13.1,2.25,1.0,1.25,1.75,1.75,1.25,0.25,0.75,0.75,2.25,1.5,0.75,1.0,0.27,-0.92,0.02,241.49,-6.4,6.7
6.04,0.75,0.75,0.5,1.75,5.0,1.0,0.5,0.5,0.5,0.75,1.25,0.5,1.75,-0.73,-0.98,0.27,214.53,1.9,11.9,2.25,1.25,1.5,1.75,1.75,1.25,0.25,0.75,0.75,2.25,1.5,0.75,1.0,0.27,-1.05,0.08,262.69,-7.0,8.9
6.06,0.75,0.75,0.5,1.75,5.0,1.0,0.5,0.25,0.5,0.75,1.25,0.25,1.75,-0.8,-1.05,0.2,220.4,2.1,14.7,2.25,1.25,0.0,1.0,0.5,1.25,0.0,0.75,0.75,2.5,1.25,1.0,1.0,0.52,-1.42,0.2,256.76,-3.2,-7.0
6.08,0.75,0.75,0.5,1.25,5.0,1.0,0.5,0.5,0.5,0.75,1.25,0.5,1.75,-0.73,-1.11,0.02,222.73,1.4,10.4,2.0,1.25,1.25,2.0,1.75,1.25,0.25,0.75,0.75,2.5,1.5,1.0,1.0,0.95,-1.73,0.2,255.71,-6.0,4.8
6.1,0.75,0.75,0.5,2.0,5.0,1.0,0.5,0.5,0.5,0.75,1.25,0.25,1.75,-0.73,-1.23,-0.05,225.48,2.0,14.6,0.0,0.25,2.75,0.0,2.25,0.25,0.25,0.75,0.25,0.75,1.75,0.0,1.0,0.95,-1.8,0.45,228.88,-8.0,1.2
6.12,1.0,0.75,0.5,1.5,5.0,1.0,0.5,0.5,0.5,0.75,1.25,0.5,1.75,-0.8,-1.55,0.02,226.65,2.1,12.4,0.25,0.25,1.5,0.0,1.75,0.0,0.0,0.75,0.25,0.75,1.75,0.0,1.0,0.64,-1.8,0.52,199.12,-5.4,-9.9
6.14,1.0,0.75,0.5,1.75,5.0,1.0,0.5,0.5,0.25,1.25,1.25,0.5,1.75,-0.92,-1.98,0.27,230.29,1.7,11.2,0.0,0.25,0.0,0.0,0.0,0.0,0.0,0.75,0.25,0.75,0.75,0.0,0.0,0.52,-1.61,0.52,135.77,3.7,-45.6
6.16,1.0,0.5,0.5,1.25,3.75,1.0,0.5,0.75,0.5,0.75,0.75,0.5,1.5,-0.86,-2.11,0.58,221.33,1.9,10.0,0.0,0.25,0.0,0.0,0.0,0.25,0.0,0.75,0.25,0.75,0.5,0.0,0.0,0.45,-1.3,0.58,81.3,6.7,-36.0
6.18,1.0,0.75,0.25,1.75,5.0,1.0,0.5,0.5,0.5,0.75,1.25,0.25,1.75,-0.61,-1.73,0.52,222.39,1.7,14.3,0.5,0.25,0.0,0.0,0.5,0.0,0.0,0.5,0.25,0.75,0.75,0.0,0.0,0.27,-1.3,0.45,46.64,-2.3,-10.8
6.2,1.0,0.75,0.5,1.75,5.0,1.0,0.5,0.75,0.5,0.75,1.25,0.25,1.75,-0.42,-1.3,0.27,224.0,2.0,14.2,0.25,0.25,0.0,0.0,0.0,0.0,0.0,0.75,0.25,0.25,0.25,0.0,0.0,0.27,-1.3,0.39,14.95,-0.2,-13.8
6.22,1.0,0.75,0.25,1.5,5.0,1.0,0.5,0.5,0.5,0.75,1.25,0.25,1.75,-0.23,-0.92,0.08,226.57,1.4,13.6,0.25,0.25,0.0,0.0,0.0,0.0,0.0,0.5,0.25,0.75,0.75,0.25,0.0,0.27,-1.17,0.39,0.0,-1.4,-40.2
6.24,1.0,0.75,0.5,1.25,5.0,1.0,0.5,0.5,0.5,0.75,1.25,0.25,1.75,-0.3,-0.61,-0.05,226.58,1.8,13.6,0.0,0.25,0.0,0.0,0.0,0.25,0.0,0.25,0.25,0.5,0.25,0.0,0.0,0.2,-1.11,0.33,0.0,4.9,-24.0
6.26,0.75,0.75,0.5,1.75,5.0,1.0,0.5,0.75,0.5,0.75,1.25,0.5,1.75,-0.48,-0.42,-0.11,227.59,1.6,11.1,0.0,0.25,0.0,0.0,0.0,0.25,0.0,0.5,0.25,0.75,0.25,0.0,0.25,0.14,-0.86,0.27,0.0,8.1,-39.5
6.28,0.75,0.75,0.5,1.75,5.0,1.0,0.5,0.5,0.5,0.75,1.25,0.5,1.75,-0.61,-0.36,-0.17,228.24,1.9,11.9,0.25,0.25,0.0,0.0,0.0,0.0,0.0,0.5,0.25,0.75,0.25,0.0,0.25,0.02,-0.55,0.27,0.0,2.6,-33.6
6.3,1.25,0.75,0.5,1.5,5.0,1.0,0.5,1.0,0.5,0.75,1.25,0.5,1.75,-0.61,-0.36,-0.23,232.18,2.0,12.1,0.5,0.25,0.0,0.0,0.25,0.0,0.0,0.5,0.25,0.5,0.75,0.0,0.25,-0.05,-0.48,0.33,11.31,-2.9,-19.4
6.32,0.5,0.75,0.5,1.0,5.0,1.0,0.5,0.75,0.5,1.0,1.0,0.25,1.75,-0.73,-0.36,-0.36,228.28,-0.2,9.3,0.0,0.25,0.0,0.0,0.0,0.0,0.0,0.0,0.25,0.75,0.25,0.0,0.0,0.02,-0.48,0.33,11.56,1.9,-39.3
6.34,1.0,0.75,0.5,1.75,5.0,1.0,0.5,1.0,0.5,0.75,1.25,0.25,1.75,-0.86,-0.48,-0.42,230.7,1.7,13.4,0.25,0.25,0.0,0.0,0.0,0.0,0.0,0.0,0.25,0.5,0.25,0.0,0.0,0.14,-0.67,0.27,18.88,-6.2,-11.6
6.36,0.75,0.75,0.5,1.75,5.0,1.0,0.5,0.75,0.5,0.75,1.25,0.25,1.75,-0.86,-0.61,-0.17,229.78,1.5,13.0,0.25,0.25,0.0,0.0,0.0,0.0,0.0,0.0,0.25,0.75,0.75,0.0,0.0,0.2,-0.86,0.39,23.08,-4.7,-32.7
6.38,1.0,0.75,0.5,1.75,5.0,1.0,0.5,0.5,0.5,0.75,1.25,0.5,1.75,-0.73,-0.86,-0.17,232.35,2.4,13.2,0.0,0.25,0.0,0.0,0.0,0.0,0.0,0.0,0.25,0.5,0.0,0.25,0.0,0.33,-0.98,0.45,23.73,-0.4,-39.1
6.4,0.75,0.75,0.5,1.75,5.0,1.0,0.5,0.75,0.5,0.75,1.25,0.5,1.75,-0.67,-0.98,-0.05,233.39,1.6,11.1,0.0,0.25,0.0,0.0,0.0,0.0,0.0,0.0,0.25,0.25,0.25,0.0,0.0,0.39,-0.98,0.52,19.09,-4.9,-21.2
6.42,0.75,0.75,0.5,1.75,5.0,1.0,0.5,1.25,0.5,0.75,1.25,0.25,1.75,-0.55,-0.98,0.02,233.97,0.9,11.5,0.0,0.25,0.0,0.0,0.5,0.0,0.0,0.0,0.25,0.75,0.0,0.0,0.0,0.45,-0.92,0.52,19.89,4.0,-5.2
6.44,0.75,0.75,0.5,1.75,5.0,1.0,0.5,1.0,0.5,1.0,1.25,0.25,1.75,-0.48,-0.73,-0.05,234.65,1.0,10.9,0.5,0.25,0.0,0.0,0.0,0.0,0.0,0.0,0.25,0.5,0.0,0.0,0.0,0.52,-0.86,0.39,21.06,-10.0,16.2
6.46,0.75,0.75,0.5,1.25,5.0,1.0,0.5,1.0,0.25,1.5,1.25,0.75,1.75,-0.48,-0.61,-0.11,235.95,0.0,4.0,0.0,0.25,0.0,0.0,0.0,0.0,0.0,0.0,0.25,0.75,0.25,0.0,0.0,0.52,-0.73,0.33,20.98,1.9,-39.3
6.48,0.75,1.0,0.25,1.0,5.0,0.75,0.5,1.0,0.5,0.75,1.25,0.5,1.75,-0.42,-0.42,-0.05,231.67,0.5,8.3,0.0,0.25,0.0,0.0,0.0,0.0,0.0,0.0,0.25,0.25,0.5,0.0,0.0,0.52,-0.73,0.27,20.29,-6.1,-31.8
6.5,0.5,0.75,0.5,1.25,5.0,1.0,0.5,1.25,0.5,0.75,1.25,0.25,1.75,-0.36,-0.3,0.02,228.34,0.0,8.6,0.0,0.25,0.0,0.0,0.0,0.0,0.0,0.0,0.25,0.5,0.25,0.0,0.0,0.52,-0.67,0.2,18.63,-0.8,-32.1
6.52,0.5,0.75,0.5,1.0,5.0,1.0,0.5,1.0,0.5,0.75,1.25,0.5,1.75,-0.36,-0.48,-0.05,224.24,0.0,6.7,0.0,0.25,0.0,0.0,0.0,0.0,0.0,0.0,0.25,0.5,0.25,0.0,0.0,0.52,-0.61,0.2,17.2,-0.8,-32.1
6.54,0.25,0.75,0.5,1.5,5.0,1.0,0.5,0.5,0.25,0.75,1.25,0.5,1.75,-0.55,-1.17,0.08,220.27,0.4,9.3,0.0,0.25,0.0,0.0,1.5,0.0,0.0,0.0,0.25,0.75,0.0,0.0,0.0,0.58,-0.55,0.14,27.58,3.7,17.4
6.56,0.5,0.75,0.5,1.5,5.0,1.0,0.5,0.5,0.25,0.75,1.25,0.25,1.75,-0.73,-1.55,0.27,217.85,0.8,12.6,0.0,0.25,0.0,0.0,0.25,0.0,0.0,0.0,0.25,0.25,0.0,0.0,0.0,0.58,-0.55,0.14,27.41,-1.3,12.0
6.58,0.25,0.75,0.5,1.5,4.75,1.0,0.5,0.5,0.25,0.75,1.25,0.25,1.75,-0.86,-1.86,0.45,212.87,0.4,10.5,0.0,0.25,0.0,0.0,0.0,0.0,0.0,0.0,0.25,0.5,0.25,0.0,0.0,0.52,-0.61,0.14,26.65,-0.8,-32.1
6.6,0.25,0.75,0.25,1.25,5.0,0.25,0.5,0.5,0.5,0.75,1.25,0.25,1.75,-0.98,-1.8,0.7,206.65,0.7,7.4,0.0,0.25,0.0,0.0,0.0,0.0,0.0,0.0,0.25,0.5,0.0,0.0,0.0,0.58,-0.61,0.14,20.83,1.5,-21.6
6.62,0.25,0.75,0.5,1.75,5.0,0.75,0.5,0.25,0.25,1.0,1.25,0.25,1.75,-1.05,-1.42,0.83,205.66,1.0,11.1,0.0,0.25,0.0,0.0,0.0,0.0,0.0,0.0,0.25,0.25,0.25,0.0,0.0,0.52,-0.61,0.14,18.36,-4.9,-21.2
6.64,0.5,0.75,0.5,1.5,5.0,0.75,0.5,0.25,0.25,1.25,1.25,0.25,2.0,-0.92,-1.05,0.64,208.13,0.7,8.2,0.0,0.25,0.0,0.0,0.0,0.0,0.0,0.0,0.25,0.75,0.25,0.25,0.0,0.45,-0.48,0.2,19.53,0.4,-49.4
6.66,0.5,0.75,0.25,1.75,5.0,1.0,0.5,0.25,0.5,0.75,1.25,0.25,1.75,-0.73,-0.8,0.33,211.31,1.0,12.6,0.0,0.25,0.0,0.0,0.0,0.0,0.0,0.0,0.25,0.5,0.25,0.0,0.0,0.45,-0.42,0.2,19.72,-0.8,-32.1
6.68,0.25,0.75,0.5,1.25,5.0,1.0,0.5,0.25,0.5,0.75,1.25,0.25,1.5,-0.67,-0.67,0.14,210.73,0.7,12.6,0.0,0.25,0.0,0.0,0.0,0.0,0.0,0.0,0.25,0.5,0.25,0.0,0.0,0.52,-0.36,0.14,20.86,-0.8,-32.1
6.7,0.25,0.75,0.5,1.25,5.0,1.0,0.5,0.25,0.25,0.75,1.25,0.25,1.75,-0.55,-0.61,0.08,209.5,0.3,11.3,0.0,0.25,0.0,0.0,0.0,0.0,0.0,0.0,0.25,0.25,0.5,0.0,0.0,0.58,-0.36,0.08,19.69,-6.1,-31.8
6.72,0.25,0.75,0.5,1.25,4.75,1.0,0.5,0.25,0.25,0.75,1.25,0.25,1.75,-0.48,-0.61,0.14,206.28,0.4,10.4,0.0,0.25,0.0,0.0,0.0,0.0,0.0,0.0,0.25,0.5,0.25,0.0,0.0,0.58,-0.36,0.08,19.32,-0.8,-32.1
6.74,0.0,0.75,0.5,1.0,5.0,1.0,0.5,0.25,0.25,0.75,1.25,0.25,1.75,-0.48,-0.61,0.14,202.64,-0.5,9.0,0.25,0.25,0.0,0.0,0.0,0.0,0.0,0.0,0.25,0.5,0.25,0.0,0.0,0.58,-0.36,0.2,19.72,-6.2,-11.6
6.76,0.25,0.75,0.5,1.25,5.0,1.0,0.5,0.25,0.25,0.75,1.25,0.25,1.75,-0.55,-0.67,0.14,203.01,0.3,11.3,0.0,0.25,0.0,0.0,0.0,0.0,0.0,0.25,0.25,0.5,0.25,0.0,0.0,0.58,-0.42,0.33,20.83,2.1,-33.2
6.78,0.25,0.75,0.5,1.75,5.0,1.0,0.5,0.25,0.25,0.75,1.25,1.0,1.5,-0.55,-0.73,0.08,208.45,1.5,9.0,0.0,0.25,0.0,0.0,0.0,0.0,0.0,0.0,0.25,0.5,0.25,0.0,0.0,0.58,-0.42,0.45,20.48,-0.8,-32.1
6.8,0.5,0.75,0.5,1.0,5.0,1.0,0.5,0.25,0.5,0.5,1.25,0.25,1.5,-0.55,-0.73,0.08,208.73,1.3,14.8,0.0,0.25,0.0,0.0,0.0,0.0,0.0,0.0,0.25,0.25,0.25,0.0,0.0,0.7,-0.3,0.45,20.15,-4.9,-21.2
6.82,0.25,0.75,0.5,1.0,5.0,0.75,0.5,0.5,0.25,0.75,1.25,0.25,1.75,-0.61,-0.73,0.08,208.26,0.1,9.2,0.0,0.25,0.0,0.0,0.0,0.0,0.0,0.0,0.25,0.5,0.0,0.0,0.0,0.83,-0.23,0.33,17.87,1.5,-21.6
6.84,0.25,0.75,0.5,1.5,5.0,1.0,0.5,0.25,0.25,0.75,1.25,0.25,1.75,-0.67,-0.73,0.14,208.31,0.6,12.2,0.0,0.25,0.0,0.0,0.0,0.0,0.0,0.0,0.25,0.25,0.25,0.0,0.0,0.89,-0.11,0.33,16.08,-4.9,-21.2
6.86,0.25,0.75,0.5,1.75,5.0,1.0,0.5,0.25,0.25,0.75,1.25,0.25,1.75,-0.67,-0.67,0.14,209.57,0.9,13.0,0.0,0.25,0.0,0.0,0.0,0.0,0.0,0.0,0.25,0.25,0.0,0.0,0.0,1.14,0.02,0.45,13.72,-3.0,-3.8
6.88,0.25,0.75,0.25,1.5,5.0,1.0,0.5,0.25,0.25,0.75,1.25,0.25,1.75,-0.67,-0.61,0.14,209.45,0.0,11.3,0.0,0.25,0.0,0.0,0.0,0.0,0.0,0.0,0.25,0.0,0.25,0.0,0.0,1.39,0.08,0.33,11.93,-11.8,-3.0
6.9,0.0,0.75,0.25,1.25,5.0,1.0,0.5,0.5,0.25,0.75,1.25,0.25,1.75,-0.55,-0.48,0.14,208.63,-1.2,8.1,0.0,0.25,0.0,0.0,0.0,0.0,0.0,0.0,0.25,0.0,0.0,0.0,0.0,1.52,0.02,0.14,10.13,-12.4,31.7
6.92,0.0,0.75,0.5,1.75,5.0,1.0,0.25,0.25,0.25,0.75,1.25,0.25,1.75,-0.42,-0.42,0.2,209.13,0.1,11.5,0.0,0.25,0.0,0.0,0.0,0.0,0.0,0.0,0.25,0.25,0.0,0.0,0.0,1.52,-0.05,-0.05,9.58,-3.0,-3.8
6.94,0.0,0.75,0.5,1.5,5.0,1.0,0.5,0.25,0.0,2.0,1.25,0.5,1.5,-0.55,-0.48,0.2,211.97,-1.0,4.6,0.0,0.25,0.0,0.0,0.0,0.0,0.0,0.0,0.25,0.25,0.0,0.0,0.0,1.33,0.02,-0.05,9.35,-3.0,-3.8
6.96,0.25,0.75,0.75,1.75,5.0,0.5,0.5,0.25,0.0,0.5,1.25,0.75,1.5,-0.8,-0.55,0.2,212.19,3.0,13.5,0.0,0.25,0.0,0.0,0.0,0.0,0.0,0.0,0.25,0.0,0.0,0.0,0.0,0.95,0.02,0.08,8.64,-12.4,31.7
6.98,0.25,0.75,0.25,1.5,4.75,1.0,0.5,0.25,0.25,0.75,1.25,0.25,1.5,-0.92,-0.48,0.08,209.47,0.2,12.7,0.0,0.5,0.0,0.5,0.0,0.0,0.0,0.0,0.25,0.0,0.0,0.0,0.0,0.39,-0.05,0.27,12.75,-14.3,55.8
7.0,0.25,0.75,0.5,1.25,5.0,1.0,0.5,0.25,0.25,0.75,1.25,0.25,1.75,-0.86,-0.36,0.08,207.59,0.3,11.3,0.0,0.25,0.0,0.0,0.0,0.0,0.0,0.0,0.25,0.0,0.0,0.0,0.0,0.2,-0.23,0.52,11.95,-12.4,31.7
7.02,0.0,0.75,0.25,1.25,5.0,1.0,0.25,0.5,0.5,0.75,1.25,0.25,1.75,-0.8,-0.17,0.08,205.44,-1.2,7.1,0.0,0.25,1.25,2.0,1.75,0.5,0.0,0.0,0.25,2.25,0.0,0.5,0.0,0.39,-0.17,0.45,59.89,-4.7,12.6
7.04,0.25,0.75,0.25,1.0,5.0,1.0,0.5,0.25,0.25,0.75,1.25,0.25,1.75,-0.67,0.08,0.27,203.79,-0.6,9.5,2.25,1.25,0.0,2.0,0.25,0.0,0.0,0.25,0.25,0.0,0.25,0.0,0.0,0.7,-0.05,0.27,89.81,-19.3,66.4
7.06,0.25,0.75,0.5,1.0,5.0,1.0,0.5,0.5,0.25,0.75,1.25,0.5,1.5,-0.8,0.14,0.33,204.01,0.1,9.7,0.0,0.5,0.0,0.25,0.5,0.0,0.0,0.0,0.25,0.0,0.0,0.0,0.0,1.14,0.02,0.14,89.61,-7.5,54.6
7.08,0.0,0.75,0.5,1.5,5.0,1.0,0.5,0.5,0.25,0.75,1.25,0.25,1.75,-0.98,0.08,0.27,205.82,-0.2,9.9,2.5,1.25,0.0,2.0,0.0,0.0,0.0,0.0,0.5,2.0,1.25,0.0,1.0,1.33,0.14,0.08,117.91,-10.2,9.8
7.1,0.0,0.75,0.5,1.75,5.0,1.0,0.5,0.25,0.5,0.75,1.25,0.5,1.75,-1.17,0.02,0.27,210.09,0.7,8.8,2.25,1.25,0.0,2.0,0.0,0.0,0.0,0.0,0.25,1.5,0.0,0.5,1.0,1.39,0.08,0.02,132.5,-10.9,18.7
7.12,0.0,0.75,0.25,1.5,5.0,0.75,0.5,0.5,0.5,0.25,1.0,0.5,1.75,-1.42,-0.05,0.33,208.8,0.2,10.1,2.0,1.25,1.5,2.0,1.75,1.0,0.5,0.25,0.5,2.0,1.0,0.25,1.0,1.33,-0.05,-0.05,178.19,-8.3,18.6
7.14,0.25,0.75,0.5,1.5,5.0,1.0,0.5,0.5,0.25,0.75,1.25,0.5,1.75,-1.55,0.02,0.27,211.95,0.4,9.3,0.75,0.25,1.25,0.25,0.5,0.0,0.0,0.0,0.25,0.0,0.0,0.0,0.0,0.83,-0.11,0.08,157.23,-24.7,62.7
7.16,0.25,0.75,0.5,1.75,5.0,1.0,0.5,0.5,0.5,0.75,1.25,0.5,1.75,-1.36,0.14,0.2,215.31,0.9,9.4,2.25,1.25,0.25,2.0,1.5,0.5,0.5,0.25,0.25,0.25,1.0,0.0,1.0,0.64,-0.17,0.39,173.81,-10.8,33.0
7.18,0.5,0.75,0.5,1.25,5.0,1.0,0.5,0.5,0.5,0.75,1.25,0.5,1.75,-1.05,0.08,0.33,218.79,0.9,9.0,0.5,0.25,1.75,0.5,1.75,0.0,0.0,0.75,0.25,0.25,1.0,0.0,0.75,0.7,-0.11,0.52,154.52,-9.5,12.9
7.2,0.25,0.75,0.5,1.5,5.0,1.0,0.25,0.5,0.5,0.75,1.25,0.5,1.75,-0.86,-0.23,0.45,220.93,0.4,8.4,0.75,0.25,0.0,0.0,0.25,0.0,0.75,0.0,0.25,0.5,0.0,0.0,0.0,0.83,-0.05,0.39,123.92,-14.2,30.6
7.22,0.25,0.75,0.5,1.75,5.0,1.0,0.25,0.5,0.5,0.75,1.25,0.25,1.75,-0.86,-0.48,0.33,222.03,0.5,11.2,1.0,0.25,0.0,0.0,0.0,0.0,0.0,0.0,0.25,0.0,0.0,0.0,0.0,0.95,-0.05,0.39,79.77,-27.0,74.6
7.24,0.5,0.75,0.5,1.25,5.0,1.0,0.25,0.5,0.5,0.75,1.25,0.25,1.75,-0.98,-0.48,0.39,220.3,0.5,10.9,0.5,0.25,0.0,0.0,0.25,0.0,0.0,0.0,0.25,0.75,0.0,0.0,0.0,0.95,-0.11,0.33,48.21,-4.9,10.2
7.26,0.5,0.75,0.5,1.75,5.0,1.0,0.25,1.0,0.5,0.75,1.25,0.25,1.75,-1.05,-0.23,0.2,223.19,0.5,10.9,0.75,0.25,0.0,0.0,0.0,0.0,0.0,0.0,0.25,0.75,0.5,0.0,0.0,0.95,0.08,0.33,24.14,-9.9,-3.5
7.28,0.25,0.75,0.25,1.75,5.0,1.0,0.25,1.0,0.5,0.5,1.25,1.0,1.5,-1.23,0.02,0.2,224.55,0.2,6.4,0.75,0.25,0.0,0.0,0.0,0.0,0.0,0.0,0.25,0.75,0.25,0.0,0.0,0.89,0.27,0.27,17.45,-9.8,4.3
7.3,0.75,0.75,0.5,1.25,5.0,1.0,0.25,1.25,0.5,0.75,1.25,0.5,1.75,-1.11,0.02,0.14,227.8,0.3,8.0,0.5,0.25,0.0,0.0,0.0,0.0,0.0,0.0,0.25,0.5,0.0,0.0,0.0,0.89,0.27,0.39,14.09,-10.0,16.2
7.32,0.75,0.75,0.5,1.25,5.0,1.0,0.25,1.5,0.75,0.75,1.25,0.5,1.75,-0.92,-0.17,0.52,231.4,0.2,6.6,0.75,0.25,0.0,0.0,0.0,0.0,0.0,0.0,0.25,0.75,0.75,0.0,0.0,1.08,0.08,0.52,8.89,-10.0,-10.0
7.34,0.5,0.75,0.5,1.5,5.0,1.0,0.0,1.75,0.75,0.75,1.25,0.5,1.75,-0.86,-0.23,0.39,235.37,-0.4,5.3,0.5,0.25,0.0,0.0,0.0,0.0,0.0,0.0,0.25,0.5,0.5,0.0,0.0,1.45,-0.05,0.52,8.6,-10.2,-6.4
7.36,0.5,0.75,0.5,1.0,5.0,1.0,0.0,2.25,0.75,0.75,1.25,0.75,1.75,-0.98,-0.11,0.08,238.42,-1.3,0.7,0.75,0.25,0.0,0.0,0.0,0.0,0.0,0.0,0.25,0.75,0.0,0.0,0.0,1.45,-0.3,0.58,10.46,-9.7,14.2
7.38,0.75,0.75,0.5,1.75,5.0,1.0,0.0,2.25,1.0,0.75,1.25,1.25,1.75,-1.17,-0.17,0.39,246.48,0.3,0.8,0.5,0.25,0.0,0.0,0.0,0.0,0.0,0.0,0.25,0.25,0.0,0.0,0.0,1.08,0.08,0.64,15.54,-15.2,35.0
7.4,0.75,0.75,0.5,1.0,5.0,1.0,0.0,2.25,1.0,0.75,1.25,1.25,1.75,-1.17,0.02,0.45,250.4,-0.3,-1.5,0.5,0.25,0.0,0.0,0.0,0.0,0.0,0.0,0.25,0.25,0.0,0.0,0.0,0.52,0.89,0.27,10.86,-15.2,35.0
7.42,0.75,0.75,0.25,1.25,5.0,1.0,0.25,2.25,1.0,0.75,1.25,1.0,1.75,-0.92,0.08,0.39,253.25,-0.5,0.0,0.75,0.25,0.0,0.5,0.0,0.0,0.0,0.0,0.25,0.5,0.0,0.0,0.0,-0.36,1.45,-0.05,20.77,-14.3,34.5
7.44,1.0,0.75,0.5,0.75,5.25,1.0,0.0,1.75,0.75,1.25,1.25,0.5,1.75,-0.86,0.08,0.45,251.11,-0.7,3.9,0.5,0.25,0.0,0.0,0.0,0.0,0.0,0.0,0.25,0.5,0.0,0.0,0.0,-1.11,1.39,0.02,25.75,-10.0,16.2
7.46,0.75,0.75,0.25,0.75,5.0,1.0,0.25,1.5,0.75,0.75,1.25,1.75,1.75,-0.8,0.02,0.45,247.19,-0.1,-4.2,0.5,0.25,0.0,0.0,0.0,0.0,0.0,0.0,0.0,0.25,0.25,0.0,0.0,-0.8,0.89,2.45,24.85,-15.0,27.9
7.48,0.75,0.75,0.5,1.0,5.0,1.0,0.25,1.25,0.5,0.75,1.25,2.0,1.75,-0.8,-0.17,0.39,243.93,0.8,-2.8,0.5,0.25,0.0,0.0,0.0,0.0,0.0,0.0,0.0,0.25,0.0,0.0,0.0,-0.98,0.02,1.89,20.34,-16.0,53.6
7.5,0.75,0.75,0.25,1.5,5.0,1.0,0.5,1.0,0.5,0.75,1.25,1.75,2.0,-0.8,-0.23,0.39,242.64,0.9,-1.3,0.5,0.25,0.0,0.0,0.0,0.0,0.0,0.0,0.25,0.5,0.0,0.0,0.0,0.08,0.58,1.33,19.8,-10.0,16.2
7.52,0.5,0.75,0.25,1.0,5.0,0.75,0.25,0.75,0.5,1.0,1.25,2.0,2.0,-0.92,-0.23,0.58,238.87,0.1,-7.4,0.75,0.25,0.0,0.25,0.0,0.0,0.0,0.0,0.25,0.5,0.25,0.75,0.25,-0.17,-1.3,3.2,28.75,-10.3,-20.7
7.54,0.5,0.75,0.5,1.5,5.0,0.5,0.25,0.5,0.5,1.0,1.25,2.0,2.0,-1.23,-0.11,0.45,236.27,1.8,-4.4,0.75,0.25,0.0,0.25,0.0,0.0,0.0,0.0,0.25,0.25,2.25,0.25,1.75,0.02,-0.23,2.95,54.81,-5.4,-51.9
7.56,0.25,0.75,0.5,1.5,5.0,0.5,0.0,0.5,0.5,0.75,1.25,1.75,1.75,-1.67,-0.3,0.2,229.66,1.5,-1.7,0.75,0.25,0.0,0.0,0.0,0.0,0.0,0.0,0.25,0.25,0.75,0.0,0.0,3.08,0.83,1.2,56.72,-15.9,4.9
7.58,0.25,0.75,0.25,1.75,5.0,1.0,0.0,0.25,0.5,0.75,1.25,1.0,1.75,-1.67,-0.48,0.27,223.33,0.3,5.1,0.5,0.25,0.25,0.0,0.0,0.0,0.0,0.0,0.25,0.75,0.25,0.0,0.0,-0.48,-0.36,2.77,56.1,-10.4,1.1
7.6,0.0,0.5,0.25,1.75,4.5,1.0,0.5,0.5,0.25,0.75,1.25,0.75,1.75,-1.17,-0.42,0.7,212.66,-0.3,2.3,0.5,0.25,0.0,0.0,0.0,0.0,0.0,0.0,0.0,0.75,0.0,0.0,0.0,1.45,0.7,0.52,43.32,-5.2,9.8
7.62,0.25,0.75,0.5,1.75,5.0,1.0,0.0,0.25,0.5,0.75,1.25,0.5,1.75,-0.61,-0.23,0.27,209.26,0.7,9.9,0.5,0.25,0.0,0.0,0.0,0.0,0.0,0.0,0.25,0.5,0.25,0.0,0.0,0.33,-0.92,0.77,35.83,-10.1,3.2
7.64,0.75,0.75,0.5,1.75,5.0,1.0,0.0,0.25,0.5,0.75,1.25,0.25,1.75,-0.05,0.2,0.27,209.98,1.6,14.5,0.5,0.25,0.0,0.0,0.0,0.0,0.0,0.0,0.25,0.5,0.0,0.0,0.25,-0.48,-0.05,-0.36,28.89,-6.4,-2.5
7.66,0.75,0.75,0.5,1.5,5.0,1.0,0.0,0.25,0.5,0.75,1.25,0.25,1.75,0.52,0.27,0.52,211.82,1.3,13.7,0.25,0.25,0.0,0.0,0.0,0.0,0.0,0.0,0.25,0.75,0.25,0.0,0.0,1.83,0.39,-0.73,27.73,-3.0,-20.8
7.68,0.5,0.75,0.5,1.5,5.0,1.0,0.25,0.25,0.5,0.75,1.25,0.25,1.75,0.58,0.45,0.64,212.75,1.1,12.5,0.75,0.25,0.0,0.0,0.0,0.0,0.0,0.0,0.25,0.5,0.0,0.0,0.0,0.83,-0.73,0.89,28.16,-13.4,27.4
