time,left pressure 0[N/cm虏],left pressure 1[N/cm虏],left pressure 2[N/cm虏],left pressure 3[N/cm虏],left pressure 4[N/cm虏],left pressure 5[N/cm虏],left pressure 6[N/cm虏],left pressure 7[N/cm虏],left pressure 8[N/cm虏],left pressure 9[N/cm虏],left pressure 10[N/cm虏],left pressure 11[N/cm虏],left pressure 12[N/cm虏],left acceleration X[g],left acceleration Y[g],left acceleration Z[g],left total force[N],left center of pressure X[mm],left center of pressure Y[mm],right pressure 0[N/cm虏],right pressure 1[N/cm虏],right pressure 2[N/cm虏],right pressure 3[N/cm虏],right pressure 4[N/cm虏],right pressure 5[N/cm虏],right pressure 6[N/cm虏],right pressure 7[N/cm虏],right pressure 8[N/cm虏],right pressure 9[N/cm虏],right pressure 10[N/cm虏],right pressure 11[N/cm虏],right pressure 12[N/cm虏],right acceleration X[g],right acceleration Y[g],right acceleration Z[g],right total force[N],right center of pressure X[mm],right center of pressure Y[mm]
0.02,0.0,0.0,0.0,1.0,0.5,1.75,2.25,0.0,1.25,0.0,0.0,0.5,0.25,0.52,5.7,0.39,50.43,4.5,7.4,0.5,0.0,0.0,0.25,0.0,1.5,0.25,1.25,0.75,0.25,1.25,0.0,0.0,-0.36,-0.23,1.27,0.0,1.8,-13.1
0.04,0.5,0.25,0.0,1.0,0.75,2.25,0.0,1.75,1.75,0.25,1.5,2.0,1.75,0.2,-0.42,0.7,115.96,-1.2,-31.2,0.0,0.0,0.0,0.0,0.0,0.5,0.0,0.25,0.75,0.0,1.0,0.0,0.25,0.02,-0.05,0.95,0.0,-0.3,-45.9
0.06,1.75,1.5,0.25,2.75,3.75,3.5,1.5,2.5,2.75,2.0,4.0,3.75,4.0,-0.3,-0.17,0.95,243.66,1.4,-19.2,0.0,0.0,0.0,0.25,0.0,0.0,0.0,0.5,0.75,0.5,1.0,0.0,0.0,-0.17,0.2,0.7,0.0,-2.6,-48.3
0.08,1.75,1.5,2.25,3.25,3.75,3.5,2.25,3.5,3.0,2.75,3.5,5.0,4.25,-0.17,0.08,1.02,370.74,3.1,-18.0,0.0,0.0,0.0,0.25,0.5,1.25,0.0,1.5,0.5,0.0,1.0,0.0,0.0,0.02,0.58,0.64,0.0,6.6,-12.8
0.1,0.75,1.0,2.25,1.0,0.5,3.5,2.25,2.25,3.0,2.75,1.75,4.75,4.25,-0.11,-0.05,0.95,447.82,1.9,-34.4,0.0,0.0,0.0,0.0,0.0,1.5,0.0,1.5,0.5,0.25,1.0,0.0,0.0,0.08,0.7,0.64,0.0,9.7,-26.1
0.12,1.25,0.75,0.5,1.0,0.75,3.5,2.75,2.75,3.25,2.75,3.5,5.25,5.25,-0.11,0.02,0.95,497.93,0.3,-43.6,0.0,0.0,0.0,0.0,1.25,0.0,0.0,1.25,0.75,0.25,1.25,0.0,0.0,0.2,0.83,0.58,0.0,1.5,-22.4
0.14,1.25,1.0,1.0,1.0,0.5,3.5,3.25,3.75,3.25,3.0,2.75,6.0,5.75,-0.11,-0.05,0.95,527.03,0.4,-43.1,0.25,0.0,0.0,0.0,1.5,0.5,0.25,1.25,0.5,0.25,1.0,0.0,0.0,0.14,0.95,0.64,14.16,2.3,-4.4
0.16,1.75,1.5,0.75,2.75,5.25,3.5,3.5,4.25,4.25,4.5,4.0,7.25,7.0,-0.11,-0.05,0.95,620.16,0.6,-31.1,0.0,0.25,0.0,0.0,1.0,0.5,0.25,1.25,0.75,0.25,1.25,0.0,0.0,0.08,1.02,0.7,41.61,1.8,-14.7
0.18,2.0,1.5,2.0,2.5,5.25,3.5,3.5,4.25,4.25,5.25,5.0,7.5,7.25,-0.11,-0.05,0.95,734.54,1.5,-31.0,0.0,0.75,0.0,0.25,0.25,0.5,0.0,1.25,0.75,0.25,1.0,0.0,0.0,0.02,0.95,0.77,54.08,0.5,-9.1
0.2,2.0,1.5,2.25,2.5,5.25,3.5,3.5,4.5,4.5,4.5,6.0,8.25,8.0,-0.11,-0.05,0.95,857.6,1.9,-32.9,0.0,0.0,0.0,0.0,1.0,1.0,0.25,1.0,0.5,0.5,1.25,0.0,0.0,-0.05,0.83,0.83,73.15,4.9,-16.5
0.22,1.75,1.0,0.0,1.0,0.75,3.0,3.0,4.0,4.25,3.75,5.0,7.5,7.25,-0.11,-0.05,0.95,838.05,0.2,-51.7,0.0,0.25,0.0,0.25,1.25,1.25,0.0,1.25,0.75,0.25,1.25,0.0,0.25,0.02,0.7,0.89,90.98,4.4,-8.3
0.24,1.25,0.75,0.0,1.0,0.75,2.75,2.25,4.0,4.25,4.25,5.75,7.75,8.0,-0.11,-0.05,0.95,792.68,-0.6,-57.7,1.5,0.5,0.0,1.25,0.5,1.25,0.0,2.0,0.75,2.0,2.5,0.75,1.0,0.14,0.52,0.83,130.87,-0.8,-21.5
0.26,1.0,0.5,0.0,1.0,0.5,2.25,2.25,4.0,4.25,4.25,5.75,8.0,8.0,-0.11,-0.05,0.95,719.19,-0.5,-61.7,0.0,0.0,0.0,0.25,3.0,0.0,0.5,1.75,0.5,0.25,2.5,0.0,1.0,0.2,0.33,0.64,150.31,1.4,-19.5
0.28,1.0,0.75,0.0,1.0,0.0,2.5,2.25,4.0,4.5,4.25,6.0,8.0,8.0,-0.11,-0.05,0.95,672.15,-0.4,-61.8,0.5,0.5,0.0,0.0,1.0,0.0,0.0,1.25,0.0,0.25,1.25,0.0,0.25,0.27,-0.17,0.39,143.64,-0.7,-5.5
0.3,1.0,0.75,0.25,1.0,0.5,2.25,2.5,4.0,4.25,5.0,6.0,8.25,8.0,-0.11,-0.05,0.95,646.44,-0.3,-60.4,1.5,0.5,0.0,2.5,0.25,2.0,0.0,1.75,0.5,0.25,1.0,0.0,0.5,0.64,-1.8,0.77,149.69,-3.0,17.2
0.32,1.0,1.0,0.0,1.0,1.25,2.5,2.0,4.0,4.5,5.25,5.75,8.25,8.0,-0.11,-0.05,0.95,657.2,-0.9,-57.7,1.25,0.5,0.0,2.25,3.0,3.0,0.5,0.0,0.75,0.5,1.0,0.5,0.75,1.14,0.14,0.33,171.23,-1.7,22.1
0.34,1.0,1.0,0.0,1.0,1.75,2.5,3.0,4.0,4.5,5.0,6.0,8.25,8.0,-0.11,-0.05,0.95,673.13,-0.4,-55.4,0.5,0.0,0.0,0.75,0.5,3.0,0.5,0.0,0.5,0.75,0.0,0.0,1.0,0.27,0.27,1.14,163.39,6.8,5.0
0.36,1.0,0.75,0.0,1.0,0.75,2.5,3.0,4.0,4.5,5.0,6.0,8.25,8.0,-0.11,-0.05,0.95,661.71,-0.4,-59.2,1.0,0.25,0.0,1.25,2.25,5.0,0.75,0.0,1.25,3.5,1.25,1.5,1.0,0.02,-0.05,3.27,202.75,3.9,-9.5
0.38,1.25,0.75,0.25,1.0,0.0,2.5,3.0,4.0,4.5,3.25,6.25,8.25,8.0,-0.11,-0.05,0.95,637.58,0.7,-59.3,1.0,0.0,0.0,0.5,3.0,4.5,0.75,4.75,2.0,6.5,4.5,4.25,4.75,0.39,-0.05,1.2,298.37,5.3,-44.7
0.4,1.25,0.75,0.0,1.0,0.5,2.5,3.0,4.0,4.5,5.75,5.75,9.0,8.0,-0.11,-0.05,0.95,631.5,-0.3,-60.1,1.25,0.25,0.0,0.0,3.0,4.0,0.75,5.5,2.25,7.25,5.25,5.5,6.75,0.02,-0.05,1.08,439.55,5.1,-51.3
0.42,2.0,1.5,2.25,2.75,5.25,3.5,4.25,5.25,5.0,6.5,6.75,9.0,9.5,-0.11,-0.05,0.95,735.09,1.2,-37.0,0.25,0.25,0.0,0.75,3.0,4.0,0.25,5.75,2.25,7.75,6.0,6.0,7.75,0.02,0.02,0.95,598.9,5.7,-55.6
0.44,2.0,1.5,2.25,2.75,4.75,3.5,3.5,5.25,5.0,6.5,6.75,9.0,9.5,-0.11,-0.05,0.95,841.88,1.1,-38.3,0.25,0.25,0.0,0.25,2.5,3.75,0.0,6.0,2.75,8.25,6.25,6.5,8.0,0.2,-0.05,0.89,721.38,5.8,-59.9
0.46,2.0,1.5,3.0,2.5,5.5,3.5,4.25,5.5,4.75,6.5,6.25,9.0,9.25,-0.11,-0.05,0.95,949.18,1.5,-35.2,2.25,0.5,0.0,2.5,3.25,4.75,0.75,7.0,3.0,9.25,7.0,7.5,9.0,0.27,0.02,0.95,856.73,3.4,-47.0
0.48,2.0,1.5,1.75,3.25,3.0,3.5,4.25,5.5,4.75,6.75,6.5,9.0,9.0,-0.11,-0.05,0.95,979.28,1.2,-40.4,0.5,0.25,0.5,0.0,3.5,3.75,0.5,7.0,2.75,9.0,7.25,7.5,9.0,0.2,0.02,0.95,920.06,5.0,-57.7
0.5,1.75,1.5,2.0,2.75,2.5,3.5,4.0,5.25,4.5,6.75,6.25,8.5,9.0,-0.11,-0.05,0.95,969.62,0.9,-41.8,0.5,0.25,0.0,2.0,2.5,3.75,0.0,6.5,2.5,8.75,6.25,7.5,9.0,0.2,-0.05,0.95,959.64,4.9,-56.9
0.52,1.0,1.25,1.75,2.0,3.5,3.5,3.5,4.25,4.25,6.5,5.0,8.25,8.0,-0.11,-0.05,0.95,902.18,0.1,-42.1,0.5,0.0,0.0,0.0,1.5,3.75,0.0,6.25,2.5,9.0,6.25,7.5,8.25,0.27,-0.05,0.83,929.72,5.9,-65.2
0.54,0.5,0.75,2.25,1.0,5.0,2.25,4.5,4.5,3.0,4.75,5.5,7.0,7.75,-0.11,0.02,0.95,817.68,0.6,-40.8,1.0,0.5,0.0,0.0,1.75,2.75,0.0,6.25,2.5,9.0,6.25,7.5,8.75,0.2,-0.05,0.89,885.42,5.0,-63.5
0.56,0.0,0.0,0.0,1.0,3.5,1.75,1.75,3.25,2.5,4.5,4.0,6.0,6.25,-0.11,0.02,1.02,673.32,-2.7,-54.5,1.0,0.25,0.0,0.0,1.5,2.5,0.0,6.5,2.5,9.0,6.5,7.5,9.0,0.27,-0.05,0.89,840.77,5.1,-65.9
0.58,0.0,0.0,0.0,0.75,0.75,1.0,1.75,1.75,1.5,1.25,2.75,5.0,6.0,-0.17,0.02,1.08,489.45,-1.2,-68.9,0.5,0.0,0.0,0.25,1.5,2.75,0.0,6.25,2.5,9.0,6.75,8.0,9.0,0.2,-0.05,0.83,815.81,5.2,-67.9
0.6,0.0,0.0,0.0,1.0,0.0,1.0,1.0,1.75,1.25,0.5,2.5,2.25,4.0,-0.11,0.02,1.02,322.12,-1.4,-63.0,0.5,0.25,0.0,0.5,1.5,2.75,0.0,6.25,2.5,9.0,7.0,8.0,9.0,0.2,-0.05,0.83,784.14,4.9,-66.3
0.62,0.0,0.5,0.0,1.0,0.0,2.0,0.75,1.5,1.75,0.5,1.25,2.25,2.0,-0.11,0.14,1.39,212.81,-1.0,-41.4,1.5,0.0,0.0,0.25,2.25,2.75,0.0,7.0,2.5,9.0,6.5,7.75,9.0,0.2,-0.05,0.83,764.19,4.8,-61.8
0.64,0.75,0.25,0.0,1.0,0.75,2.0,1.25,0.5,1.75,1.0,2.75,2.0,2.0,-0.23,1.2,0.7,135.39,2.2,-34.3,1.25,0.25,0.0,0.0,2.25,4.0,0.25,6.5,2.5,9.25,6.5,8.0,9.0,0.2,0.02,0.95,765.12,5.2,-60.4
0.66,0.0,0.0,1.5,0.25,1.25,1.0,0.75,0.75,0.75,0.0,1.5,0.5,0.25,0.64,1.14,0.83,58.85,7.5,-2.5,2.0,0.0,0.0,0.75,3.0,4.5,0.25,6.5,2.5,9.0,7.25,8.25,9.0,0.14,0.02,1.02,785.93,4.2,-55.0
0.68,0.0,0.0,0.25,0.0,0.0,0.5,0.5,0.25,0.75,0.0,0.75,0.5,0.25,0.27,1.2,0.89,0.0,5.9,-40.0,2.5,0.75,0.75,2.0,3.5,6.0,1.25,7.25,3.0,9.75,7.75,8.0,9.25,0.14,0.02,1.02,851.99,3.0,-44.4
0.7,0.0,0.0,0.0,0.0,0.0,0.25,0.5,0.0,0.75,0.0,0.0,0.5,0.0,0.14,1.2,0.77,0.0,9.2,-40.0,3.25,0.5,1.25,2.0,3.75,5.75,1.25,7.25,3.25,9.25,7.5,7.5,9.0,0.14,0.02,0.95,905.58,2.1,-41.1
0.72,0.0,0.0,0.0,0.75,1.25,0.75,0.5,0.0,1.0,0.25,0.75,0.5,0.0,-0.05,1.14,1.02,0.0,3.6,-2.2,2.75,0.5,1.5,1.0,3.25,5.5,1.25,6.75,3.0,8.75,7.5,6.5,8.25,0.14,0.02,0.95,925.44,2.3,-42.5
0.74,0.0,0.0,0.0,1.0,0.5,0.75,0.5,0.0,0.75,0.25,0.75,0.25,0.25,-0.17,1.14,0.95,0.0,4.0,-7.3,3.25,0.5,0.0,2.75,5.25,6.25,1.25,7.25,2.75,8.25,7.25,6.0,8.25,0.14,0.02,0.95,929.73,3.0,-35.2
0.76,0.0,0.0,0.0,0.75,0.5,0.5,0.75,0.0,0.75,0.0,0.5,0.25,0.0,-0.17,0.89,1.14,0.0,7.8,2.7,2.25,0.25,0.0,1.75,3.25,6.0,1.25,6.5,2.75,8.0,6.25,6.0,7.75,0.14,0.02,0.95,878.19,4.0,-42.8
0.78,0.0,0.0,0.0,0.0,2.25,0.75,0.75,0.0,0.75,0.25,2.0,0.5,1.5,-0.05,0.77,1.27,4.39,-0.4,-28.3,3.5,1.25,0.0,2.75,3.5,6.75,1.25,6.75,3.25,8.75,6.25,6.5,7.75,0.14,0.02,0.95,865.63,2.7,-35.1
0.8,0.0,0.0,0.0,0.0,0.75,0.25,1.0,0.25,0.75,0.0,0.5,0.25,0.0,0.02,0.58,1.2,24.01,5.9,-10.4,3.75,1.0,2.25,2.75,6.0,7.0,1.75,7.25,3.25,8.75,7.0,6.25,8.25,0.14,0.02,0.95,897.8,1.2,-28.0
0.82,0.0,0.0,0.0,0.0,0.5,0.0,0.5,0.0,0.75,0.0,0.25,0.25,0.0,0.14,0.45,1.2,29.62,9.6,-17.8,3.0,0.75,2.5,2.75,6.0,7.0,1.75,7.25,3.25,8.75,7.0,6.0,8.25,0.14,0.02,0.95,942.33,1.5,-29.3
0.84,0.0,0.25,0.0,0.0,0.0,0.0,0.5,0.0,0.75,0.0,0.75,0.25,0.0,0.14,0.27,1.08,22.69,13.6,-35.5,3.75,1.25,2.25,2.5,6.0,7.0,1.75,7.25,3.25,8.75,7.0,6.0,8.25,0.2,0.02,0.95,975.67,1.3,-27.6
0.86,0.0,0.0,0.0,0.0,0.5,0.0,0.5,0.0,0.75,0.0,0.0,0.25,0.25,0.14,0.08,0.89,18.04,6.5,-22.5,3.75,1.25,2.25,2.5,6.0,7.0,1.75,7.25,3.25,9.0,7.0,6.0,8.25,0.2,0.02,0.95,993.8,1.3,-27.8
0.88,0.0,0.0,0.0,0.25,0.5,0.0,0.25,0.0,0.75,0.0,0.5,0.25,0.0,0.02,-0.11,0.83,17.14,9.4,-17.6,3.0,1.0,2.25,2.75,6.0,7.25,1.75,7.5,3.25,8.5,6.25,6.0,8.0,0.2,0.02,0.95,985.92,1.8,-27.9
0.9,0.0,0.0,0.0,0.0,0.5,0.0,0.75,0.0,0.5,0.0,0.75,0.25,0.25,-0.11,-0.17,0.7,28.14,8.3,-33.2,2.25,0.25,2.25,2.5,6.0,7.25,1.75,7.25,2.75,8.25,6.25,5.5,8.0,0.2,0.02,0.95,949.64,2.6,-30.3
0.92,0.0,0.0,0.0,0.25,0.75,0.0,0.5,0.0,0.25,0.0,1.0,0.25,0.0,-0.11,-0.3,0.58,36.01,8.8,-14.7,2.5,0.75,2.25,2.75,6.0,7.0,1.75,7.25,2.5,7.75,6.25,5.25,7.75,0.2,0.02,0.95,914.3,2.1,-27.5
0.94,0.0,0.0,0.0,0.0,0.5,0.0,0.75,0.0,0.25,0.0,0.25,0.25,0.0,-0.17,-0.36,0.45,30.65,10.4,-8.5,2.25,1.0,0.5,2.5,5.0,6.5,1.5,7.0,2.0,7.25,5.0,4.0,6.75,0.2,0.02,0.95,836.72,3.9,-28.1
0.96,0.0,0.0,0.0,0.0,2.5,0.0,0.5,0.0,0.0,0.0,0.0,0.25,0.25,-0.17,-0.55,0.45,35.76,-0.8,29.0,0.75,0.5,2.25,0.5,3.25,5.75,1.25,6.25,1.25,5.0,3.5,1.75,3.25,0.2,0.08,1.02,672.73,4.3,-22.6
0.98,0.0,0.0,0.0,0.0,0.5,0.0,0.75,0.0,0.25,0.0,0.25,0.25,0.0,-0.17,-0.67,0.52,31.88,10.4,-8.5,1.25,0.25,1.75,0.5,1.5,4.0,0.75,4.75,1.25,3.5,2.5,1.0,2.25,0.14,0.08,1.02,477.16,3.0,-21.3
1.0,0.0,0.0,0.0,0.0,0.5,0.0,0.5,0.0,0.25,0.0,0.25,0.25,0.25,-0.11,-0.92,0.39,30.16,5.6,-25.2,0.0,0.0,0.0,0.0,1.75,2.5,0.5,3.5,0.75,2.5,2.25,0.75,0.75,0.08,0.14,1.08,301.5,8.1,-32.4
1.02,0.75,0.25,0.0,1.0,0.0,0.0,0.5,0.0,0.5,0.0,0.25,0.25,0.0,-0.11,-1.05,0.33,33.67,19.9,29.9,0.25,0.0,0.0,0.0,1.0,2.25,0.0,3.0,0.75,1.75,2.25,0.25,0.75,0.14,0.2,1.64,184.87,8.0,-32.4
1.04,2.25,0.5,0.0,1.0,0.5,0.0,0.5,0.0,0.75,0.0,0.25,0.25,0.0,0.45,0.33,0.89,60.5,20.6,49.1,0.5,0.0,0.0,0.5,1.0,1.5,0.0,1.75,0.75,2.0,1.5,0.0,0.25,0.64,1.58,0.58,82.68,5.1,-20.3
1.06,4.25,1.5,0.0,1.0,0.75,1.0,0.5,0.0,0.75,0.0,0.5,0.25,0.0,-0.55,0.2,0.83,105.29,17.4,58.9,0.0,0.0,0.0,0.5,0.5,0.75,0.0,1.75,0.75,1.25,1.25,0.0,0.25,-0.61,1.45,0.95,12.44,5.6,-32.0
1.08,6.0,0.25,2.25,4.0,0.75,1.75,0.5,0.0,1.0,0.5,0.25,0.5,0.25,-0.17,0.2,1.52,179.57,19.0,50.5,0.0,0.0,0.0,1.75,0.5,2.75,0.0,1.75,1.25,3.25,1.25,1.25,1.0,-0.86,1.27,1.02,13.24,5.7,-32.3
1.1,0.0,3.25,5.0,5.75,5.0,4.5,1.75,2.0,1.75,0.5,2.0,0.5,0.5,-0.17,0.27,1.64,293.01,7.7,31.7,2.25,0.25,0.0,3.25,3.0,2.5,0.5,2.25,1.25,3.5,2.5,1.25,1.75,0.02,1.2,0.83,87.45,-0.5,-8.8
1.12,6.25,3.0,5.25,6.0,7.5,5.75,2.5,1.75,1.75,0.0,0.5,0.5,0.5,-0.11,0.08,1.58,453.32,10.7,48.2,2.25,0.5,0.0,1.75,3.0,1.5,0.75,2.0,1.0,3.5,2.5,1.25,1.75,0.27,1.14,0.64,152.96,-0.7,-13.4
1.14,7.25,3.0,6.25,6.0,9.0,6.75,5.75,2.25,2.5,0.5,2.0,0.5,0.5,-0.17,0.02,1.52,673.56,10.7,41.7,1.75,0.25,0.0,2.0,3.25,1.25,0.75,2.0,1.0,2.75,2.5,1.25,1.75,0.45,1.08,0.52,200.65,-0.8,-13.7
1.16,6.25,3.0,6.25,6.0,7.5,7.0,6.25,3.75,3.5,0.75,2.0,0.75,0.5,-0.17,-0.05,1.02,847.94,9.8,34.9,1.5,1.0,0.0,1.75,3.25,2.25,0.5,2.0,1.25,3.25,2.5,1.25,1.75,0.52,0.95,0.64,236.55,0.7,-11.7
1.18,6.0,1.5,6.25,4.25,8.75,6.25,7.0,4.25,4.5,2.5,3.25,1.0,1.75,-0.05,0.08,1.39,979.83,8.0,20.4,2.25,0.5,0.0,1.5,3.0,2.0,0.5,1.75,1.25,3.25,2.5,1.0,1.5,0.33,0.77,0.83,259.99,-0.4,-10.3
1.2,5.75,1.75,5.5,4.25,8.5,7.0,7.0,5.0,5.75,2.75,3.5,2.25,0.75,-0.11,-0.17,1.14,1057.31,7.3,16.5,2.0,0.5,0.0,1.25,3.25,1.25,0.5,1.75,1.0,3.0,2.5,1.0,1.5,0.33,0.7,1.08,272.45,-0.6,-12.0
1.22,6.0,3.0,4.75,5.5,7.5,7.25,6.75,6.0,6.0,3.25,5.0,2.5,2.75,-0.11,-0.11,1.02,1148.05,6.2,9.7,2.25,0.25,0.0,2.0,3.0,0.5,0.5,1.75,1.0,3.25,2.5,1.25,1.5,0.2,0.58,1.14,279.64,-2.3,-14.0
1.24,6.0,3.0,4.75,5.25,7.75,7.25,7.0,6.0,6.0,3.0,4.75,2.25,2.5,-0.11,-0.11,0.95,1197.55,6.3,11.3,1.75,0.5,0.0,1.5,3.25,2.25,0.25,2.0,1.0,3.25,2.5,1.0,1.75,0.27,0.52,1.2,287.64,1.3,-12.8
1.26,5.5,3.0,4.25,5.25,7.75,7.75,7.0,6.0,5.75,2.75,4.0,2.25,2.25,-0.11,-0.11,0.95,1207.02,5.7,12.6,2.0,0.75,0.0,1.25,3.25,2.0,0.25,2.0,1.0,3.0,2.5,1.25,1.5,0.27,0.33,1.27,288.59,0.3,-10.8
1.28,5.75,2.75,4.75,5.5,7.75,7.75,7.25,6.0,5.5,2.75,4.75,2.0,2.25,-0.11,-0.11,0.95,1189.78,6.2,12.8,2.0,0.5,0.0,1.25,3.0,2.0,0.5,2.0,1.0,3.0,2.5,1.0,1.5,0.33,0.27,1.14,286.2,0.3,-11.7
1.3,5.75,3.0,4.75,5.75,8.5,7.5,6.75,5.75,5.5,2.75,4.5,2.0,1.75,-0.11,-0.11,0.95,1154.02,6.4,15.4,2.0,0.5,0.0,1.25,3.0,1.75,0.25,2.0,1.0,2.75,2.5,1.25,1.75,0.39,0.14,1.02,279.79,0.1,-14.1
1.32,5.75,3.0,4.75,5.75,8.25,7.5,7.0,5.5,5.5,2.75,4.75,2.25,1.25,-0.11,-0.05,0.95,1109.04,6.7,15.6,1.5,0.5,0.0,1.75,3.0,1.75,0.25,1.75,1.0,3.25,2.5,1.0,1.75,0.39,0.08,0.95,269.21,0.8,-14.9
1.34,5.25,2.75,4.75,5.25,8.0,7.25,7.0,5.75,5.5,2.75,4.75,2.25,2.0,-0.11,-0.05,0.95,1058.77,6.2,12.2,0.0,0.25,0.0,0.5,3.0,0.0,0.25,1.75,0.75,0.75,2.5,0.0,1.75,0.33,-0.05,0.95,230.06,2.1,-24.3
1.36,5.25,2.25,4.75,4.75,7.5,7.0,6.75,5.5,5.5,3.0,5.0,2.25,2.0,-0.11,-0.05,0.95,1009.95,6.2,10.0,1.75,1.0,0.0,1.25,1.5,2.25,0.75,2.0,1.0,2.75,2.5,0.25,1.75,0.33,-0.17,0.89,227.41,0.6,-11.8
1.38,5.25,2.0,4.0,4.25,7.5,7.0,6.75,5.75,5.75,3.5,5.0,3.0,2.25,-0.11,-0.05,0.95,969.81,5.4,5.3,0.0,0.25,0.0,0.0,0.0,2.5,0.0,1.75,0.75,3.0,1.25,1.25,1.0,0.2,-0.3,0.77,197.44,9.3,-48.1
1.4,4.5,1.75,3.75,4.0,7.5,7.0,6.0,6.25,5.75,4.25,5.0,3.5,3.75,-0.11,-0.11,0.95,950.63,3.8,-1.9,1.5,0.5,0.0,1.25,3.0,2.25,0.5,1.75,0.75,3.0,2.5,0.75,1.25,0.14,-0.48,0.52,211.08,1.4,-10.5
1.42,3.75,1.75,3.75,4.0,7.5,7.0,6.0,6.0,5.75,5.0,5.0,4.0,4.0,-0.11,-0.11,0.95,940.54,3.2,-5.1,0.5,0.0,0.0,0.0,0.0,0.75,0.0,1.75,0.5,0.5,1.25,0.0,0.75,-0.05,-0.73,0.2,164.93,4.8,-39.1
1.44,3.75,1.75,3.75,4.0,7.5,7.0,6.0,5.75,5.75,5.0,5.5,5.0,4.75,-0.11,-0.05,0.95,947.97,3.2,-8.5,0.0,0.25,0.0,0.5,0.5,1.25,0.0,1.25,0.0,0.5,1.25,0.0,0.75,-0.23,-0.92,0.08,132.28,6.8,-21.5
1.46,3.5,1.75,3.75,4.0,7.0,7.0,4.75,6.25,5.5,5.25,5.0,6.0,5.25,-0.11,-0.05,0.95,954.96,2.5,-12.0,0.75,0.0,0.0,0.0,3.0,2.75,0.25,1.75,0.25,1.75,2.25,0.75,1.25,-0.61,-4.23,1.45,127.72,5.6,-16.9
1.48,3.5,1.5,3.5,4.0,5.5,6.5,4.5,6.25,5.75,6.0,6.25,6.75,6.25,-0.11,-0.11,0.95,969.52,2.4,-19.7,3.0,0.5,0.25,0.5,3.75,3.5,0.25,0.0,0.75,0.25,2.5,0.0,1.25,1.45,-0.17,1.02,158.9,-3.0,21.0
1.5,3.5,1.5,2.75,3.0,5.5,6.25,3.75,6.25,5.5,6.5,6.0,7.0,6.75,-0.11,-0.05,0.95,962.54,1.3,-23.7,2.25,0.0,0.0,2.75,6.0,5.75,0.0,0.0,0.0,0.0,2.5,0.0,1.25,0.77,1.08,2.2,214.67,0.7,28.7
1.52,3.25,1.5,2.25,3.75,6.25,6.25,3.75,6.5,5.5,6.5,6.25,7.0,6.75,-0.11,-0.05,0.95,963.22,1.0,-23.0,1.5,1.0,0.0,5.75,7.75,6.75,0.25,0.0,0.75,0.0,0.5,0.0,0.75,0.77,0.2,1.77,280.28,0.0,43.9
1.54,2.75,1.5,2.75,3.75,5.5,6.25,4.75,6.25,5.25,6.5,5.75,7.5,7.0,-0.11,-0.05,0.95,958.17,1.3,-24.4,5.0,2.25,2.25,7.25,8.5,7.5,0.5,0.0,1.0,3.25,2.5,0.0,1.25,0.27,0.14,1.39,413.27,-4.6,34.1
1.56,2.75,1.5,2.75,3.75,5.5,6.25,4.5,6.25,5.25,6.75,6.0,7.5,7.5,-0.11,-0.05,0.95,964.9,1.1,-25.6,5.25,2.0,2.5,9.0,11.5,8.5,1.25,0.0,1.25,3.0,1.5,0.0,0.75,0.02,0.14,1.14,587.24,-4.7,40.5
1.58,2.75,1.5,2.25,3.75,5.5,6.25,4.25,6.25,5.25,6.5,5.75,7.5,7.75,-0.11,-0.05,0.95,963.04,0.7,-26.3,3.75,1.5,2.25,8.5,10.5,8.5,1.5,0.0,1.5,1.75,1.25,0.0,1.0,0.02,0.08,1.2,712.69,-4.0,39.9
1.6,3.25,1.75,2.25,3.75,5.75,6.75,4.25,6.5,5.25,6.75,5.5,7.5,7.0,-0.11,-0.05,0.95,971.77,0.8,-23.2,5.0,2.25,2.5,8.75,11.0,10.0,2.25,5.25,2.0,3.25,2.5,1.25,1.5,0.2,0.08,1.14,872.65,-2.1,24.1
1.62,2.5,1.5,2.25,4.0,5.75,6.25,4.75,6.75,4.5,6.75,5.75,7.5,7.75,-0.11,-0.05,0.95,968.92,0.4,-26.0,4.5,2.25,2.25,8.5,12.5,10.0,2.25,6.75,2.25,3.75,3.0,1.25,2.25,0.33,-0.05,1.14,1020.24,-0.8,19.1
1.64,2.0,1.5,2.25,3.75,5.5,6.25,3.75,6.5,4.25,6.5,5.25,7.0,7.75,-0.11,-0.05,0.95,944.8,-0.1,-26.8,3.75,2.25,2.25,8.25,11.5,10.0,1.75,7.25,2.25,3.75,3.25,1.25,2.5,0.2,0.08,1.02,1121.18,-0.2,15.9
1.66,1.75,1.5,2.0,3.25,5.5,5.75,3.75,6.5,3.25,5.0,5.0,7.0,7.75,-0.11,0.02,0.95,891.62,-0.2,-27.3,3.5,2.0,2.25,7.0,11.5,10.0,1.75,7.25,2.0,4.5,3.0,1.25,2.5,0.2,0.08,0.95,1166.47,0.6,13.7
1.68,2.25,0.5,1.0,1.0,5.25,4.0,4.25,6.25,2.25,4.5,4.5,5.5,7.25,-0.17,0.02,1.02,784.14,-1.2,-32.6,2.75,2.0,2.25,7.0,11.5,9.5,1.75,7.25,2.0,4.75,2.5,1.25,2.75,0.2,0.08,0.95,1151.03,1.1,12.3
1.7,0.0,0.25,0.0,0.25,5.0,2.5,3.0,5.5,1.5,3.0,2.5,4.0,6.25,-0.17,0.02,1.08,616.35,-5.0,-41.1,2.5,2.0,2.25,6.25,10.5,9.5,1.75,7.25,2.0,4.75,2.5,1.25,1.0,0.2,0.08,0.89,1070.99,1.0,14.5
1.72,0.25,0.0,0.0,1.0,3.75,2.5,2.25,4.25,1.25,1.5,2.25,2.25,5.0,-0.11,0.08,1.14,441.31,-4.4,-34.2,2.25,1.75,2.25,5.5,10.5,9.25,1.5,7.25,1.75,5.0,2.5,1.0,1.0,0.2,0.08,0.89,984.84,1.7,13.3
1.74,0.0,0.25,0.0,0.0,1.25,2.25,1.75,3.25,1.0,0.5,1.5,1.5,3.0,-0.11,0.08,1.27,289.86,-5.6,-39.9,2.25,1.0,2.25,5.0,10.0,9.25,1.75,7.25,1.5,4.75,2.5,1.25,0.75,0.2,0.08,0.89,895.0,1.9,11.8
1.76,0.25,0.25,0.0,0.0,2.25,1.25,1.0,2.0,1.0,0.5,1.5,0.5,2.0,-0.86,0.33,1.27,183.07,-3.7,-24.7,2.5,1.75,2.0,5.25,9.25,9.25,1.5,0.0,1.5,5.0,2.5,1.25,1.75,0.2,0.08,0.89,783.61,-0.4,18.0
1.78,0.0,0.25,0.0,0.0,0.75,1.5,1.25,1.75,0.75,0.0,1.25,0.25,0.25,-0.48,0.33,1.33,75.66,-2.8,-14.5,2.75,1.25,2.25,5.0,9.0,9.25,1.5,0.0,1.5,5.75,3.0,1.25,2.25,0.2,0.08,0.89,698.65,-0.2,13.2
1.8,0.0,0.0,0.0,0.0,0.5,1.0,1.25,1.0,0.75,0.0,1.25,0.0,0.0,0.2,1.58,0.83,0.0,0.2,-15.6,1.75,1.25,2.25,5.0,8.75,9.25,1.25,0.0,1.5,5.75,3.5,1.5,0.0,0.2,0.08,0.89,631.17,-0.3,16.1
1.82,0.0,0.0,0.0,0.0,0.5,1.0,1.0,0.5,0.75,0.0,1.0,0.0,0.0,1.14,1.89,0.89,0.0,0.7,-10.6,2.0,1.25,2.0,4.5,8.75,9.25,1.5,0.0,1.5,6.25,3.5,2.0,0.0,0.2,0.08,0.89,594.9,-0.1,13.2
1.84,0.0,0.25,0.0,0.0,0.5,1.0,1.0,0.5,0.75,0.0,1.0,0.0,0.0,0.77,1.77,1.33,0.0,1.4,-4.3,2.0,1.25,1.75,4.5,8.75,9.25,1.5,0.0,1.5,7.0,4.0,2.75,3.75,0.2,0.02,0.89,589.2,1.1,-1.0
1.86,0.0,0.0,0.0,0.0,0.5,1.0,0.75,0.25,0.75,0.0,1.0,0.25,0.0,0.27,1.83,0.77,0.0,1.3,-16.0,2.25,0.75,1.75,4.5,8.0,9.5,1.5,0.0,1.75,7.25,4.25,3.0,4.25,0.2,0.02,0.89,613.65,1.2,-5.0
1.88,0.0,0.0,0.0,0.0,0.0,1.0,0.75,0.5,0.75,0.0,0.75,0.25,0.0,-0.36,1.95,0.58,0.0,0.2,-25.0,2.25,1.25,2.0,4.5,8.0,9.5,1.75,0.0,1.75,8.0,4.5,3.5,5.25,0.2,0.02,0.95,664.36,1.1,-8.0
1.9,0.0,0.0,0.0,0.0,0.75,1.0,1.0,0.0,0.75,0.0,0.25,0.25,0.25,-0.36,1.95,0.52,0.0,0.3,-2.8,2.75,1.0,2.25,4.0,8.0,9.5,1.75,0.0,1.75,8.0,4.5,4.0,5.5,0.2,0.02,0.95,709.69,0.8,-9.4
1.92,0.0,0.25,0.0,0.0,0.5,0.75,0.5,0.0,0.75,0.0,0.5,0.25,0.0,-0.23,1.83,0.77,0.0,2.8,-1.5,2.25,1.5,2.25,4.25,7.75,9.5,1.75,0.0,1.5,8.0,4.5,4.0,6.25,0.2,0.02,0.89,751.24,1.1,-10.6
1.94,0.0,0.0,0.0,0.0,0.5,1.0,0.0,0.0,0.75,0.0,0.5,0.0,0.0,-0.48,1.64,1.2,0.0,-3.3,-0.7,2.5,1.25,2.25,3.25,7.75,9.5,1.75,0.0,1.25,8.0,4.5,4.0,6.75,0.2,0.02,0.95,771.17,1.6,-12.8
1.96,0.0,4.75,0.0,1.75,0.5,1.0,0.0,0.0,0.75,0.0,0.5,0.25,0.0,-0.67,1.27,1.2,53.44,8.8,57.7,2.25,0.75,2.0,3.25,7.75,9.5,1.5,0.0,1.5,8.0,4.5,3.25,6.0,0.2,0.02,0.95,767.78,2.1,-12.2
1.98,1.25,1.25,0.75,1.0,5.0,1.25,1.25,1.25,0.75,0.5,2.5,0.5,0.75,-0.67,1.14,1.14,142.43,4.3,15.4,2.25,0.75,2.0,3.25,7.75,9.5,1.25,8.5,1.25,7.75,3.75,3.0,6.0,0.2,0.08,0.95,803.22,4.6,-14.6
2.0,0.75,1.5,0.75,1.0,5.0,1.0,1.5,0.5,1.0,0.5,2.0,0.5,0.75,-0.67,0.95,1.2,205.94,5.0,18.5,2.25,1.0,1.75,2.75,7.5,9.5,1.25,0.0,1.25,7.0,3.5,2.75,6.0,0.2,0.02,0.95,767.47,2.7,-9.4
2.02,0.75,1.25,0.25,1.0,4.75,1.0,1.5,0.25,0.75,0.5,2.75,0.5,0.75,-0.67,0.77,1.2,243.09,4.5,12.7,2.25,1.0,0.5,3.0,6.75,1.25,1.25,8.0,1.0,7.0,3.5,2.25,5.75,0.2,0.08,1.02,709.95,2.9,-23.5
2.04,0.5,1.0,1.0,1.0,5.0,1.0,1.5,0.0,0.75,0.5,2.0,0.5,1.0,-0.73,0.58,1.08,256.77,5.1,16.0,2.25,0.75,0.0,2.75,6.25,0.0,1.0,0.0,1.0,6.25,3.25,1.5,4.75,0.27,0.08,1.08,565.47,-0.6,-19.8
2.06,1.25,1.25,0.75,1.0,5.25,1.0,1.25,0.25,0.75,0.5,1.75,0.5,0.25,-0.73,0.33,0.89,259.83,6.2,27.5,1.75,0.0,0.0,2.75,6.0,0.0,0.75,0.0,0.5,5.5,2.5,1.0,4.25,0.33,0.08,1.2,428.02,0.3,-19.4
2.08,1.0,1.5,0.5,1.0,4.75,1.0,1.25,0.25,0.75,0.5,1.75,0.5,0.75,-0.86,0.14,0.7,256.91,5.0,21.6,1.0,0.25,0.0,0.0,3.5,0.0,0.25,0.0,0.25,3.5,2.5,0.5,3.0,0.33,0.14,1.33,288.29,2.4,-33.9
2.1,0.75,1.5,0.5,1.0,5.0,1.0,1.25,0.0,0.75,0.5,1.75,0.5,1.0,-0.92,-0.17,0.7,256.49,4.4,19.8,1.25,0.0,0.0,1.0,3.75,6.0,0.25,6.0,0.25,1.5,2.5,0.0,2.0,0.33,0.14,1.33,249.21,8.3,-6.5
2.12,0.25,0.0,0.0,0.0,0.5,0.0,0.75,0.0,0.25,0.0,0.25,0.0,0.25,-0.86,-0.36,0.77,196.13,10.4,3.9,1.5,0.0,0.0,0.0,3.25,4.25,0.75,3.75,0.0,0.5,1.25,0.0,0.0,1.02,0.89,0.83,191.72,6.7,14.0
2.14,0.0,0.0,0.0,0.0,0.5,0.0,0.5,0.0,0.25,0.0,0.25,0.25,0.0,-0.55,-0.73,0.77,128.11,8.7,-11.2,1.25,0.75,0.0,2.0,3.25,0.0,0.5,3.75,0.75,1.75,2.5,0.5,0.25,-2.55,1.77,0.89,175.79,-1.5,-2.9
2.16,1.0,1.25,0.0,0.0,0.5,0.0,0.75,0.0,0.0,0.0,1.75,0.0,0.75,0.14,-1.48,0.77,78.72,11.7,8.3,0.0,0.0,0.0,0.5,3.25,0.0,0.5,3.25,0.5,0.0,2.5,0.0,0.25,-0.05,2.02,0.89,128.2,1.9,-10.7
2.18,0.75,0.25,0.0,0.0,0.5,0.0,0.5,0.0,0.0,0.0,0.0,0.0,0.0,0.7,-2.23,3.02,35.73,18.9,74.0,0.0,0.0,0.0,0.0,1.5,2.25,0.0,2.0,0.5,0.0,0.75,0.0,0.0,0.27,1.7,0.7,82.73,10.4,1.9
2.2,3.75,2.0,0.0,2.5,0.75,2.25,0.5,0.0,0.75,0.5,0.25,0.5,0.0,-0.3,3.33,5.33,74.48,11.8,51.1,0.0,0.0,0.0,0.75,0.25,0.25,0.0,1.75,0.5,0.0,1.0,0.0,0.25,0.08,1.45,0.89,23.61,1.9,-24.9
2.22,7.0,4.0,2.25,5.75,5.5,5.0,1.0,0.5,0.75,0.5,1.75,0.5,0.25,0.14,-0.55,1.33,225.41,10.6,50.5,0.0,0.0,0.0,0.0,1.25,1.75,0.0,1.75,0.25,0.0,1.0,0.0,0.5,0.2,1.2,0.95,1.52,9.9,-11.1
2.24,8.5,3.75,5.25,7.75,8.5,7.0,3.0,1.75,1.0,0.5,1.5,0.5,0.25,-0.92,0.95,2.39,429.21,10.8,49.6,0.0,0.0,0.0,1.25,1.25,2.25,0.0,1.75,0.25,1.0,1.0,0.0,0.25,0.39,1.08,0.77,23.28,7.2,-3.1
2.26,9.5,4.0,6.25,7.0,12.5,7.5,1.5,2.5,0.75,0.25,1.25,0.5,0.75,-0.73,0.2,1.64,705.03,9.4,50.0,1.5,0.5,0.0,0.5,1.25,0.0,0.0,1.75,0.5,1.0,1.25,0.0,0.25,0.64,1.02,0.7,50.87,-3.5,1.6
2.28,9.75,0.0,7.75,12.0,14.0,9.5,3.25,4.0,1.75,0.0,1.75,0.5,0.25,-0.42,0.2,1.89,1001.97,9.3,44.7,0.0,0.0,0.0,0.75,1.25,0.25,0.0,1.75,0.5,1.25,1.25,0.0,0.25,0.52,0.95,0.7,73.86,4.0,-22.8
2.3,9.25,4.0,7.75,9.25,14.0,8.75,4.75,3.25,1.75,0.25,0.5,0.0,0.0,-0.17,0.2,1.64,1206.96,9.9,51.9,0.0,0.0,0.0,0.5,1.0,0.0,0.0,1.75,0.75,0.25,1.25,0.0,0.25,0.33,0.89,0.64,74.07,1.6,-24.2
2.32,10.5,4.5,8.5,11.5,12.5,9.5,7.0,4.0,3.25,0.25,2.5,0.5,0.5,-0.17,0.14,1.27,1380.84,10.8,44.3,0.0,0.0,0.0,1.5,0.25,2.0,0.0,1.75,1.0,2.25,1.0,0.75,0.25,0.39,0.83,0.7,94.19,5.2,-26.9
2.34,9.25,4.25,9.0,11.5,9.5,9.5,8.25,4.0,4.0,0.5,2.5,0.5,1.0,-0.11,-0.05,1.02,1458.46,11.2,40.3,2.25,0.0,0.0,2.25,3.0,2.0,0.5,2.0,0.75,2.25,2.5,1.0,1.25,0.45,0.7,0.89,151.92,-1.2,-5.5
2.36,8.5,4.25,8.75,10.5,13.5,9.5,8.75,5.25,4.75,0.5,1.75,1.25,1.25,-0.05,-0.11,1.14,1542.9,9.4,37.2,2.25,0.5,0.0,2.5,3.0,2.5,0.5,2.0,0.75,2.25,2.5,0.75,1.0,0.39,0.7,0.83,218.8,-1.2,1.3
2.38,7.75,3.75,8.75,9.0,13.5,9.25,9.0,5.5,5.25,1.75,2.75,1.75,1.75,-0.11,-0.23,1.14,1566.6,8.5,29.9,2.25,0.5,0.0,2.25,3.25,2.0,0.5,2.0,0.75,1.75,2.5,0.75,0.25,0.33,0.64,0.89,259.31,-2.6,7.1
2.4,7.75,3.25,8.0,7.5,11.5,8.75,8.75,5.75,5.25,2.0,3.5,1.5,1.75,-0.11,-0.11,1.02,1540.15,8.4,26.5,0.0,0.25,0.0,0.0,3.0,0.25,0.75,2.0,0.75,1.0,1.25,0.0,0.25,0.33,0.52,1.08,245.46,3.4,-7.5
2.42,7.25,3.25,7.75,6.75,11.5,8.75,8.5,5.5,4.75,1.5,3.0,1.5,1.75,-0.11,-0.05,0.95,1467.85,8.2,27.7,0.0,0.25,0.0,0.25,0.0,0.75,0.0,1.75,0.5,1.5,1.0,0.75,0.0,0.45,0.33,1.08,204.41,5.7,-43.4
2.44,7.0,3.25,7.0,5.75,9.75,8.25,8.0,5.5,4.75,0.75,3.0,1.75,1.5,-0.11,-0.05,0.95,1344.08,8.5,26.9,1.75,0.5,0.0,2.0,3.25,2.0,0.25,1.75,0.75,1.75,2.5,0.75,0.75,0.52,0.2,1.08,205.83,-1.2,1.2
2.46,6.0,3.0,6.25,5.75,9.0,7.75,7.5,5.25,4.75,1.0,2.75,1.5,1.5,-0.11,-0.05,0.89,1176.77,8.0,25.4,2.0,0.5,0.0,2.5,3.0,2.25,0.5,2.0,0.75,1.75,2.5,0.75,0.25,0.52,0.02,1.02,223.63,-2.2,6.3
2.48,5.75,2.0,5.5,4.75,9.0,7.5,7.0,5.25,4.75,2.0,2.75,2.0,2.0,-0.11,-0.05,0.89,1029.27,6.6,18.6,2.0,0.75,0.0,2.25,3.0,2.25,0.5,2.0,0.75,2.0,2.5,0.75,0.75,0.45,-0.17,0.95,254.23,-1.5,2.7
2.5,5.25,2.0,4.75,4.75,8.0,7.0,6.0,5.25,4.75,1.75,2.5,2.0,2.0,-0.11,-0.05,0.95,909.45,6.3,17.2,2.25,0.5,0.0,2.0,3.0,1.25,0.5,2.0,0.75,2.0,2.5,0.75,1.0,0.52,-0.55,0.83,269.48,-2.5,-1.3
2.52,5.0,1.75,4.75,4.5,7.5,7.0,6.0,5.25,4.75,2.75,3.5,2.0,2.0,-0.11,-0.05,0.95,829.48,5.8,12.5,2.0,0.5,0.0,2.25,3.25,2.0,0.5,2.0,0.75,1.5,2.5,0.75,0.25,0.52,-0.61,0.14,274.72,-2.4,7.1
2.54,3.75,1.5,4.0,4.25,7.5,6.25,5.25,5.25,5.0,3.0,4.0,3.5,3.75,-0.11,-0.05,0.95,782.13,4.3,0.3,1.25,0.25,0.0,0.25,1.0,1.0,0.0,1.75,0.75,0.0,1.0,0.25,0.0,1.14,-2.42,0.33,224.39,-2.0,6.9
2.56,3.5,1.5,3.75,3.25,5.5,5.75,4.75,5.25,5.0,3.75,5.0,5.25,4.25,-0.11,-0.05,0.95,744.73,4.0,-11.0,2.25,0.25,0.0,1.75,3.25,1.75,0.75,2.0,0.75,0.5,2.5,0.0,0.25,0.14,-2.17,1.27,210.54,-3.7,15.7
2.58,3.5,1.5,3.25,3.0,5.5,5.5,3.75,5.5,5.0,4.25,5.0,6.0,5.75,-0.11,-0.05,0.95,736.61,2.8,-17.2,5.0,0.75,0.0,2.75,3.0,2.5,0.25,1.75,0.75,1.5,0.75,0.0,0.0,1.33,-3.92,1.77,218.0,-6.5,37.1
2.6,3.0,1.5,1.25,2.5,5.5,5.5,4.75,5.5,5.0,5.0,5.5,6.75,6.25,-0.11,-0.05,0.95,729.74,1.1,-24.8,7.5,2.0,4.75,7.0,7.0,4.0,0.75,0.25,1.0,2.0,2.25,0.75,0.25,0.27,0.14,1.64,337.42,-12.1,42.8
2.62,2.25,1.5,1.0,2.5,5.5,3.75,4.25,5.5,5.0,5.25,5.75,7.5,7.25,-0.11,-0.05,0.95,737.33,0.9,-31.9,8.5,2.25,5.0,7.75,8.75,6.0,0.75,3.0,1.0,0.75,2.5,0.0,0.25,0.39,-0.05,2.2,518.41,-9.8,44.8
2.64,2.0,1.5,1.0,1.5,5.25,4.5,3.75,5.25,4.75,6.5,5.75,7.75,8.0,-0.11,-0.05,0.95,759.11,-0.4,-36.3,7.75,1.75,6.5,8.5,9.75,6.0,2.75,2.0,2.0,1.75,1.25,0.0,1.25,0.39,0.27,1.7,737.44,-10.1,41.5
2.66,1.75,1.5,1.0,0.75,5.5,4.0,3.75,5.25,4.75,6.5,6.0,8.25,8.0,-0.11,-0.05,0.95,781.89,-0.5,-39.1,7.75,2.0,7.25,8.75,8.75,6.75,4.5,3.25,3.75,3.5,1.5,1.0,1.0,0.02,-0.05,1.08,922.23,-9.5,31.6
2.68,2.0,1.5,0.0,2.0,5.25,4.0,3.5,5.25,4.5,6.75,6.25,8.5,8.75,-0.11,-0.05,0.95,814.12,-0.9,-40.4,7.5,2.0,7.5,7.0,9.5,7.0,5.75,4.75,5.25,3.25,4.5,1.25,2.75,-0.05,-0.3,1.02,1090.95,-8.2,19.1
2.7,1.75,0.75,1.0,0.25,5.25,3.5,3.0,5.5,4.5,7.5,6.25,9.0,9.0,-0.11,-0.05,0.95,839.76,-1.3,-46.5,7.5,2.25,6.75,6.75,8.75,7.5,5.5,5.75,5.5,4.75,5.0,2.0,2.25,0.27,-0.05,1.2,1230.33,-7.1,14.2
2.72,1.0,0.75,1.0,0.0,5.25,2.25,3.0,5.5,3.75,6.5,6.5,8.25,8.0,-0.11,-0.05,1.02,823.45,-1.2,-48.4,7.25,2.0,5.0,5.75,8.75,8.0,4.5,5.75,5.25,5.0,4.75,2.0,3.0,0.14,0.02,0.95,1297.59,-5.2,10.4
2.74,1.75,0.75,0.0,1.25,3.75,2.25,1.75,5.0,3.75,6.5,5.0,8.25,8.5,-0.11,-0.05,1.08,783.73,-1.7,-50.3,6.25,2.0,4.0,5.0,8.75,7.75,4.0,5.75,5.0,5.0,4.5,2.25,3.0,0.33,0.02,0.95,1292.27,-4.0,7.5
2.76,1.75,1.25,0.75,1.75,5.25,3.0,2.0,5.25,3.0,6.75,5.75,9.0,9.5,-0.17,-0.05,1.02,780.79,-1.3,-44.2,5.0,2.0,2.5,5.0,8.75,7.75,3.75,5.75,5.25,4.75,4.5,1.25,3.0,0.27,0.02,0.95,1216.99,-2.4,6.4
2.78,0.5,0.5,0.0,0.5,5.0,1.75,2.0,4.0,2.25,5.25,4.75,8.0,8.0,-0.3,-0.05,1.08,712.73,-2.5,-53.2,5.75,2.0,3.0,5.25,8.0,7.25,4.0,5.75,4.5,4.75,4.5,1.5,3.0,0.2,0.02,0.95,1135.0,-3.4,7.4
2.8,0.0,1.0,0.0,0.5,0.5,1.0,0.75,3.5,1.75,4.25,3.75,7.5,8.0,-0.23,0.08,1.45,608.71,-3.1,-71.8,5.0,1.75,2.75,5.5,7.75,7.25,4.0,5.25,4.5,4.25,4.5,1.5,2.25,0.08,0.02,0.89,1024.94,-3.5,8.4
2.82,0.25,0.0,0.0,0.25,0.5,3.0,0.75,4.0,1.75,3.5,4.5,7.5,9.0,-0.36,0.08,1.52,526.61,-4.5,-71.6,4.0,1.5,3.25,5.0,7.75,7.0,3.5,5.25,4.0,4.5,4.0,1.5,2.75,0.08,0.02,0.89,928.72,-2.7,5.9
2.84,0.0,0.0,0.0,0.0,3.75,1.0,0.5,2.0,1.25,1.5,2.5,5.5,7.0,-0.55,0.14,1.64,414.8,-3.7,-60.8,5.0,1.5,2.5,4.5,7.75,7.0,3.5,5.25,4.0,4.75,3.75,1.5,2.75,0.14,0.02,0.89,842.12,-2.5,6.2
2.86,0.5,0.0,0.0,0.0,1.25,1.75,0.5,2.0,1.75,2.0,2.25,4.25,5.75,-0.48,0.14,1.33,331.19,-3.7,-63.5,4.5,1.5,2.5,4.25,7.75,7.0,3.5,5.25,3.75,3.5,4.5,1.25,3.0,0.14,0.02,0.95,784.78,-2.5,6.1
2.88,0.5,1.5,1.0,0.0,5.25,1.25,1.5,2.5,1.5,0.0,2.5,1.75,4.25,-0.48,0.02,1.02,276.64,0.3,-15.3,3.0,1.5,2.5,4.5,7.75,7.0,3.5,5.5,4.5,5.75,4.5,2.75,3.25,0.14,0.02,0.95,766.91,-1.2,-3.7
2.9,0.0,0.25,1.0,0.0,1.75,0.25,0.5,1.5,0.75,0.0,1.5,0.5,2.0,0.02,3.39,0.39,195.83,1.4,-26.4,3.25,1.5,2.5,4.0,7.75,7.0,3.25,5.75,4.5,6.0,5.25,3.0,4.5,0.14,0.02,0.95,773.54,-0.8,-8.1
2.92,0.0,0.25,0.0,0.0,0.5,1.0,0.5,0.25,0.75,0.25,1.5,0.5,1.25,1.45,2.58,2.2,105.44,-1.4,-41.1,3.0,1.75,2.5,4.0,7.75,7.5,3.25,6.25,4.5,6.75,5.5,4.0,5.25,0.14,0.02,0.95,817.9,-0.1,-12.1
2.94,0.0,0.25,0.0,0.0,0.0,1.0,0.5,0.0,0.75,0.0,1.25,0.5,0.25,0.58,2.2,1.27,18.08,2.9,-33.4,3.25,1.5,2.5,4.5,7.75,7.25,3.25,6.5,4.5,7.25,6.25,4.25,6.0,0.14,0.02,0.95,881.42,-0.2,-14.6
2.96,0.0,0.0,0.0,0.0,0.0,0.25,0.5,0.0,0.5,0.0,1.0,0.25,0.25,-0.05,2.2,0.89,0.0,7.1,-54.4,3.0,1.5,2.25,4.75,7.75,7.25,3.25,6.5,4.5,7.5,6.25,5.0,6.75,0.14,0.02,0.95,949.79,0.0,-17.4
2.98,0.0,0.25,0.0,0.0,0.5,0.0,0.5,0.0,0.75,0.0,1.0,0.25,0.0,-0.42,1.64,1.02,0.0,10.1,-21.7,3.0,1.5,2.25,4.0,7.75,7.5,3.0,7.0,4.5,8.0,6.25,5.25,7.0,0.14,0.02,0.95,1003.05,0.6,-19.5
3.0,0.0,0.0,0.0,0.0,0.5,0.0,0.75,0.0,0.75,0.0,1.25,0.5,0.0,-0.48,1.27,1.08,0.0,10.7,-39.4,2.75,1.5,2.25,4.75,7.75,7.5,3.0,7.0,4.5,8.0,6.25,5.25,7.5,0.14,0.02,0.95,1044.87,0.6,-19.7
3.02,0.0,0.0,0.0,0.0,0.5,0.0,0.75,0.0,0.5,0.0,0.5,0.25,0.0,-0.42,0.95,1.33,0.0,10.7,-19.4,3.0,1.25,2.25,5.0,7.75,7.5,3.0,7.0,4.0,8.0,6.25,5.25,7.75,0.14,0.02,0.95,1069.79,0.6,-19.7
3.04,0.25,0.0,0.0,0.0,0.5,0.25,0.75,0.0,0.75,0.0,0.5,0.25,0.0,-0.36,0.52,1.45,0.0,10.0,-7.1,2.75,1.0,2.25,4.0,7.5,7.5,3.0,7.25,3.75,8.0,6.25,5.25,7.75,0.14,0.02,0.95,1070.98,1.2,-22.1
3.06,0.5,0.5,0.0,0.0,0.5,0.0,0.75,0.0,0.75,0.0,0.25,0.25,0.0,-0.23,0.33,1.39,0.0,14.7,20.1,2.75,1.25,2.25,3.25,7.25,7.5,3.0,7.25,3.25,8.0,6.25,5.25,7.75,0.14,0.02,0.95,1052.43,1.4,-22.8
3.08,0.75,0.75,0.0,0.0,0.0,0.0,0.75,0.0,1.5,0.5,0.25,0.25,0.0,-0.17,0.14,1.27,0.0,14.1,3.3,1.75,1.25,2.25,3.25,6.25,7.5,2.5,7.25,2.75,7.5,5.5,5.25,7.75,0.14,0.02,0.95,997.5,2.2,-25.2
3.1,0.0,0.0,0.0,0.0,0.0,0.25,1.5,0.0,0.5,0.0,2.0,0.25,2.0,-0.17,0.02,1.27,30.67,3.3,-68.7,2.25,1.25,2.25,2.75,6.0,7.75,2.25,7.25,2.0,7.75,5.25,3.5,7.75,0.14,0.02,0.95,931.52,2.9,-22.5
3.12,0.75,0.25,0.0,1.5,0.0,1.0,0.5,0.0,0.75,0.5,0.25,0.5,0.0,-0.3,-0.11,1.2,59.01,8.6,14.8,0.25,1.25,0.25,2.25,6.0,7.5,1.75,0.0,1.75,7.0,4.0,3.0,6.0,0.2,0.08,1.08,761.95,4.6,-23.4
3.14,0.75,0.5,0.75,1.0,0.5,1.5,1.0,0.25,0.75,0.5,1.75,0.5,1.5,-0.42,-0.23,1.2,109.04,5.4,-10.1,2.0,1.0,0.0,2.25,5.25,7.0,1.25,6.5,1.0,6.5,3.0,2.5,6.0,0.2,0.08,1.2,651.05,5.9,-21.8
3.16,1.0,1.25,0.5,1.0,0.75,0.5,1.0,0.0,0.75,0.5,2.25,0.5,1.75,-0.55,-0.3,1.08,142.11,8.2,-8.5,1.25,0.5,0.0,0.0,1.0,6.5,1.25,6.5,0.75,5.5,3.25,1.0,2.5,0.27,0.08,1.33,478.77,8.8,-30.0
3.18,0.75,1.5,0.0,1.0,0.0,1.5,0.75,0.25,1.0,0.0,2.0,0.5,1.25,-0.67,-0.3,0.89,162.24,5.6,-4.9,0.0,1.0,0.0,2.0,3.25,6.0,0.75,5.25,0.75,4.75,2.5,1.25,1.0,0.27,0.2,1.45,376.65,7.4,-13.9
3.2,0.0,1.25,0.0,0.0,0.0,1.25,0.5,0.0,0.75,0.5,0.5,0.5,1.0,-0.8,-0.3,0.77,150.26,-1.0,-16.1,0.0,0.25,0.0,0.0,2.75,2.75,0.75,4.0,0.5,0.0,2.5,0.0,0.75,0.45,0.39,1.08,255.78,7.1,-10.4
3.22,0.25,1.25,0.5,1.0,4.5,0.75,1.0,0.0,0.75,0.5,2.0,0.5,1.25,-0.73,-0.36,0.7,174.27,3.6,10.3,0.0,0.25,0.0,0.0,1.5,2.75,0.25,3.0,0.75,0.0,1.0,0.0,0.0,-1.05,2.45,2.08,157.7,9.4,-0.8
3.24,0.5,1.5,0.5,1.0,5.0,1.0,1.0,0.0,0.75,0.25,2.0,0.5,1.0,-0.73,-0.36,0.7,197.61,4.2,18.6,0.0,0.5,0.0,2.75,0.0,2.5,0.25,2.25,0.75,0.0,1.0,0.0,0.0,-1.36,2.27,0.89,67.15,1.2,11.4
3.26,0.0,0.0,1.0,0.0,5.0,0.0,1.0,0.25,0.25,0.5,2.0,0.5,1.25,-0.55,-0.23,0.33,209.14,2.8,-1.1,0.0,0.25,0.0,0.0,0.0,2.25,0.5,2.0,0.75,0.0,1.0,0.0,0.0,0.27,2.02,0.64,0.51,8.1,-11.8
3.28,0.25,0.25,0.0,0.0,0.5,1.0,0.5,0.0,0.5,0.0,0.25,0.25,0.0,-0.48,-0.73,6.83,170.48,2.0,16.5,1.75,0.5,0.0,2.5,0.0,0.0,0.75,2.75,1.0,3.0,2.0,0.75,0.25,0.33,1.83,0.64,14.28,-4.2,-17.2
3.3,2.0,1.25,0.0,0.5,0.5,1.0,0.25,0.0,0.75,0.0,0.25,0.25,0.0,0.64,-2.11,1.64,143.5,12.9,50.8,2.0,0.25,0.0,2.5,3.0,0.0,0.75,2.5,0.75,2.75,2.25,0.75,0.5,0.33,1.64,0.83,65.72,-3.3,-4.4
3.32,6.25,2.5,0.5,2.5,3.75,1.5,0.75,0.25,1.25,0.25,0.25,0.5,0.0,-1.3,-3.61,1.14,184.04,13.9,57.1,0.0,0.0,0.0,0.0,3.0,0.0,0.25,1.75,0.75,0.75,1.5,0.0,0.0,0.39,1.52,0.7,78.72,2.9,-8.8
3.34,8.75,3.0,3.75,6.0,3.75,2.5,1.0,0.0,1.5,0.0,0.5,0.0,0.5,-0.48,1.33,3.52,280.78,17.5,60.5,0.0,0.25,0.0,0.0,1.0,1.25,0.25,1.75,0.75,1.25,0.75,0.0,0.0,0.45,1.27,0.58,73.9,7.7,-15.9
3.36,8.25,3.25,6.25,6.5,5.75,5.25,2.0,2.0,1.5,1.25,1.75,0.5,0.75,-0.3,0.33,1.77,454.45,12.2,43.2,0.0,0.5,0.0,0.25,1.0,1.5,0.25,1.75,0.75,0.5,0.75,0.0,0.0,0.45,1.08,0.64,67.48,5.8,-1.2
3.38,9.75,0.0,7.5,9.25,11.0,7.25,4.75,2.25,2.0,0.0,2.0,0.25,0.25,0.02,0.14,1.45,704.03,12.0,46.0,0.0,0.0,0.0,0.0,1.25,1.5,0.25,1.5,0.75,0.0,1.0,0.0,0.0,0.39,0.89,0.77,55.2,6.3,-4.9
3.4,9.0,3.5,8.5,8.5,13.0,8.75,6.25,3.75,3.25,0.5,2.0,0.75,0.5,-0.11,0.08,1.83,1000.85,10.1,42.1,0.0,0.25,0.0,0.0,1.25,0.0,0.25,1.25,0.75,0.75,1.0,0.0,0.0,0.39,0.7,0.83,56.81,1.9,-18.1
3.42,9.5,4.25,8.75,8.25,13.5,9.25,7.75,5.0,4.25,1.25,2.5,1.0,0.5,-0.17,-0.05,1.02,1282.43,9.5,38.0,0.0,0.0,0.0,0.5,0.5,0.0,0.0,0.75,0.5,0.0,0.75,0.0,0.25,0.39,0.45,0.95,50.17,-1.4,-20.9
3.44,9.0,4.5,8.25,8.25,13.5,9.5,8.25,5.75,5.25,2.5,2.75,2.0,1.75,-0.17,-0.11,1.14,1459.71,8.2,29.5,0.0,0.0,0.0,0.0,1.25,0.0,0.25,0.5,0.75,0.5,0.75,0.0,0.25,0.33,0.27,0.95,53.75,0.8,-20.5
3.46,8.75,4.0,7.75,8.0,13.5,9.5,8.5,6.75,6.0,3.0,4.0,2.0,2.0,-0.23,-0.23,1.14,1569.97,7.4,24.4,0.0,0.25,0.0,0.5,1.25,0.0,0.25,0.75,0.75,0.0,0.75,0.0,0.25,0.27,0.14,1.14,50.21,-2.5,-0.8
3.48,8.5,4.0,7.75,7.5,12.5,9.25,8.5,6.75,6.0,2.75,4.75,2.0,2.0,-0.11,-0.11,1.08,1624.3,7.6,22.9,0.0,0.0,0.0,0.0,0.5,0.0,0.25,0.5,0.75,0.5,0.75,0.25,0.25,0.14,-0.05,1.2,44.53,-0.3,-44.0
3.5,7.75,3.5,7.5,7.0,11.5,8.75,8.5,6.25,5.5,2.75,4.0,2.0,2.0,-0.11,-0.11,1.02,1606.01,7.6,22.6,0.0,0.0,0.0,0.0,0.0,0.0,0.25,0.75,0.75,0.0,1.0,0.0,0.25,0.08,-0.11,1.2,37.36,-2.5,-54.9
3.52,7.75,3.5,6.25,6.75,11.0,8.25,8.0,6.0,5.25,2.75,4.0,1.5,2.0,-0.17,-0.11,0.95,1536.51,7.3,22.7,0.0,0.0,0.0,0.0,0.5,0.0,0.25,0.25,0.75,0.0,0.75,0.0,0.0,0.02,-0.17,1.08,23.56,-6.0,-24.3
3.54,7.0,3.25,6.25,5.75,10.0,7.5,7.75,5.25,5.0,2.5,2.75,1.5,1.75,-0.11,-0.05,0.89,1407.28,7.7,24.1,0.0,0.0,0.0,0.25,1.25,0.0,0.25,0.25,0.75,1.0,1.0,0.0,0.25,0.02,-0.17,1.02,34.33,0.0,-23.6
3.56,7.0,3.0,6.25,5.5,9.0,7.5,7.5,5.25,4.75,2.0,2.75,1.5,1.75,-0.05,-0.05,0.89,1261.88,8.0,24.1,0.0,0.25,0.0,0.0,0.5,0.0,0.25,0.25,0.5,0.5,1.0,0.0,0.25,0.02,-0.17,0.95,43.49,-1.7,-31.5
3.58,6.25,2.75,5.0,5.5,8.5,7.0,7.0,4.5,5.0,2.75,3.0,2.0,2.0,-0.05,-0.05,0.89,1096.98,7.2,18.9,0.0,0.0,0.0,0.0,0.5,1.25,0.25,0.25,0.5,0.25,0.75,0.0,0.5,-0.05,-0.17,0.89,51.43,6.4,-20.5
3.6,6.0,2.75,4.75,4.5,7.5,7.0,6.75,5.0,5.0,2.75,2.75,2.0,2.0,-0.11,-0.05,0.95,963.79,6.7,16.8,0.25,0.0,0.0,0.0,1.0,0.5,0.25,0.25,0.5,0.0,0.75,0.0,0.5,-0.05,-0.8,1.08,54.25,0.0,-9.0
3.62,5.5,2.75,4.75,4.0,7.5,7.0,6.25,5.0,5.25,2.75,3.25,2.25,2.0,-0.11,-0.05,0.95,869.2,6.3,14.0,0.0,0.25,0.0,0.0,0.5,0.25,0.25,0.5,0.75,0.25,0.75,0.0,0.5,0.83,-1.48,0.89,57.76,0.6,-28.1
3.64,5.0,2.75,3.75,4.0,7.25,5.75,5.75,5.25,5.25,3.5,4.0,3.5,3.0,-0.11,-0.05,0.95,810.83,5.4,4.3,2.25,0.25,0.0,0.0,1.25,1.25,0.25,0.25,0.75,0.25,0.75,0.0,0.75,1.2,-2.42,0.83,81.2,-5.9,19.8
3.66,3.75,1.75,4.25,4.0,7.0,5.75,4.75,5.25,5.75,4.25,5.0,5.25,4.0,-0.11,-0.11,0.95,794.17,4.4,-7.1,3.5,0.25,0.0,2.5,1.75,0.0,0.25,0.25,0.75,0.75,0.75,0.75,0.75,1.52,-3.67,1.52,126.47,-12.7,23.8
3.68,3.5,1.75,3.5,3.75,6.75,5.25,4.75,5.5,5.75,5.0,5.75,6.0,5.25,-0.11,-0.11,0.95,803.06,3.5,-14.5,5.25,1.25,2.5,5.0,5.75,4.5,0.75,0.5,1.25,1.5,2.0,0.75,1.0,1.14,0.89,1.83,254.09,-8.2,32.8
3.7,3.5,1.75,3.5,3.75,6.75,5.75,5.0,5.5,5.75,5.25,6.25,6.5,6.25,-0.11,-0.11,0.95,843.42,3.1,-17.1,5.75,1.75,4.75,5.25,7.5,6.0,2.0,2.0,2.0,2.0,2.0,0.75,1.25,1.77,0.52,1.89,411.93,-7.8,31.0
3.72,3.5,1.75,3.25,3.75,6.5,5.75,5.0,6.0,5.5,5.25,6.25,6.75,6.25,-0.11,-0.11,0.95,885.12,2.8,-18.1,5.75,2.0,5.0,5.0,7.75,6.5,3.0,2.75,4.25,4.75,2.0,1.5,1.5,0.58,0.02,0.77,645.12,-6.2,18.9
3.74,3.5,1.75,3.5,3.75,6.75,5.75,5.0,6.0,5.5,5.25,6.25,6.75,6.5,-0.11,-0.05,0.95,929.78,2.8,-17.9,5.0,1.75,2.75,4.75,7.75,7.5,3.75,5.75,5.25,6.5,5.75,4.0,4.25,-0.11,0.02,1.08,893.72,-2.3,-6.0
3.76,3.5,1.75,3.25,3.5,6.5,5.75,5.0,6.0,5.25,5.25,5.75,7.0,7.0,-0.11,-0.05,0.95,954.15,2.5,-19.4,5.0,1.75,2.25,4.5,7.75,7.75,3.0,6.25,5.25,7.25,6.25,4.25,5.75,0.2,-0.11,1.08,1095.34,-1.0,-11.2
3.78,3.25,1.75,3.5,3.5,6.75,5.75,5.0,6.0,5.25,5.25,5.5,7.0,7.0,-0.11,-0.05,0.95,973.01,2.4,-19.0,4.5,1.5,2.25,3.5,7.75,7.5,2.75,7.0,5.0,7.75,6.25,5.0,6.75,0.33,-0.05,1.02,1221.23,0.0,-17.0
3.8,2.75,1.75,2.75,3.5,6.25,5.5,5.0,6.0,4.5,6.25,5.25,7.5,7.25,-0.11,0.02,1.02,967.06,1.4,-23.3,3.5,1.5,2.0,3.75,7.75,7.75,2.5,7.0,4.5,7.75,6.25,4.25,6.75,0.27,0.02,1.02,1267.12,0.8,-17.3
3.82,2.0,1.5,2.75,1.0,5.25,4.5,2.75,5.75,4.0,6.5,5.0,7.5,8.0,-0.11,0.02,1.02,918.88,-0.1,-33.7,2.75,0.5,2.25,3.0,7.25,7.25,2.0,6.75,3.5,7.0,6.25,4.75,6.75,0.2,0.02,0.95,1227.22,1.3,-22.2
3.84,1.75,1.0,0.0,1.0,4.25,2.75,2.0,5.75,2.25,5.5,3.5,7.75,8.5,-0.11,0.02,1.2,813.34,-2.7,-45.8,1.25,1.0,0.5,3.0,6.0,6.0,1.75,6.5,0.0,7.0,5.25,4.5,7.0,0.2,0.02,0.95,1083.54,4.4,-28.8
3.86,0.5,0.25,0.0,1.0,3.5,1.75,1.75,4.75,2.25,4.0,2.75,7.75,7.25,-0.36,0.02,1.2,671.15,-2.8,-54.2,0.75,0.5,0.0,2.75,5.75,6.75,1.25,5.75,2.25,7.0,3.75,4.25,6.25,0.14,0.02,0.95,930.09,5.5,-29.9
3.88,0.25,0.0,1.0,1.0,5.25,2.0,1.75,4.0,1.25,2.5,2.5,6.0,7.0,-0.36,0.14,2.2,537.77,-2.3,-42.4,0.5,0.0,0.0,1.25,3.25,4.5,0.75,5.75,1.25,7.0,3.25,4.0,6.5,0.2,0.02,0.95,751.18,7.1,-45.6
3.9,0.0,0.25,0.0,0.25,0.5,1.25,1.0,3.5,1.25,0.5,2.0,5.25,6.25,-0.48,0.14,1.52,387.23,-3.6,-70.5,0.0,0.0,0.0,0.5,3.0,4.75,0.0,5.75,1.25,7.0,3.25,4.0,6.5,0.14,0.02,0.89,612.32,8.7,-50.7
3.92,0.0,0.0,0.0,0.0,0.0,1.0,1.0,2.25,1.0,1.0,1.5,3.5,5.5,-0.8,0.2,1.7,280.39,-4.8,-78.1,0.5,0.0,0.0,0.25,2.25,5.0,0.0,0.0,1.0,7.0,3.25,3.75,6.75,0.2,0.02,0.89,470.73,7.4,-54.1
3.94,0.0,0.0,0.25,0.0,0.75,1.0,1.0,2.0,1.0,0.25,1.25,1.5,3.25,-0.48,0.27,1.58,183.93,-3.7,-54.9,0.25,0.0,0.0,0.25,0.5,4.5,0.0,0.0,1.25,7.0,3.25,4.0,6.25,0.2,0.02,0.89,381.0,7.3,-64.3
3.96,0.0,0.0,0.0,0.0,0.0,1.0,1.0,1.75,0.75,0.25,1.25,0.75,2.0,0.02,3.14,-0.61,92.79,-4.7,-57.4,0.0,0.0,0.0,0.0,1.25,5.25,0.25,0.0,1.25,7.25,4.5,3.75,8.0,0.27,0.02,0.89,345.29,7.8,-63.4
3.98,0.0,0.0,0.0,0.0,0.75,1.0,1.0,1.0,0.75,0.0,1.25,0.25,0.25,0.7,3.2,0.58,9.63,-0.8,-21.3,0.0,0.0,0.0,0.0,1.5,4.25,0.0,0.0,1.25,8.0,3.25,5.0,7.75,0.27,0.02,0.89,335.41,7.7,-67.0
4.0,0.0,0.0,0.0,0.0,1.75,1.0,1.0,0.25,1.25,0.0,1.0,0.75,0.0,-0.36,2.7,0.64,0.0,2.2,-8.8,0.0,0.5,0.0,1.5,3.5,6.0,0.75,0.0,1.0,8.75,4.5,6.0,8.0,0.33,-0.05,0.89,383.77,5.8,-50.0
4.02,0.0,0.0,0.0,0.0,0.5,1.0,1.0,0.0,0.75,0.0,0.75,0.25,0.0,-1.11,2.58,0.39,0.0,2.9,-9.2,0.0,0.0,0.0,0.5,2.5,6.25,0.25,0.0,0.75,8.5,3.25,5.25,9.0,0.39,0.02,0.83,421.65,8.3,-58.1
4.04,0.0,0.0,0.0,0.0,0.0,1.0,1.0,0.0,0.75,0.0,0.5,0.0,0.0,-1.3,1.7,1.14,0.0,3.0,-7.4,1.25,0.25,0.0,2.5,3.0,6.5,0.25,0.0,1.25,9.25,3.25,6.0,8.25,0.33,-0.05,0.83,489.05,5.2,-44.9
4.06,0.0,0.25,0.0,0.0,0.5,1.0,0.5,0.0,0.75,0.0,0.5,0.25,0.0,-0.61,1.14,1.2,0.0,1.1,0.8,0.25,0.25,0.0,0.0,3.25,6.5,0.25,0.0,0.5,8.75,4.0,6.0,8.0,0.33,-0.05,0.83,516.94,7.5,-54.7
4.08,0.0,0.0,0.0,0.0,0.0,0.75,0.5,0.0,1.0,0.0,0.25,0.0,0.0,0.27,0.83,1.7,0.0,2.8,-11.7,0.75,0.5,0.0,2.5,3.5,6.25,0.75,0.0,0.75,9.0,3.75,4.0,8.5,0.39,0.02,0.89,549.55,5.9,-41.7
4.1,1.75,1.5,0.25,0.25,0.75,0.5,1.5,0.75,0.75,0.0,2.5,0.75,1.75,0.77,0.64,1.83,14.87,8.6,-7.6,0.0,0.75,0.0,2.75,3.5,7.0,0.75,0.0,0.75,8.5,3.25,3.0,8.0,0.39,-0.05,0.95,545.3,7.0,-37.7
4.12,0.0,1.5,0.0,0.25,0.5,1.5,1.0,0.0,1.0,0.5,0.25,1.0,0.0,0.52,0.33,1.58,52.36,2.9,8.1,1.25,0.75,0.0,0.0,3.0,7.0,0.5,0.0,0.75,7.0,2.25,2.5,5.75,0.39,0.08,1.2,500.37,7.8,-33.9
4.14,1.5,1.5,0.0,0.0,0.0,1.0,1.0,0.0,1.0,0.0,0.25,0.25,0.75,0.08,0.02,1.39,89.8,10.3,25.2,1.75,1.0,0.0,0.0,3.5,7.5,0.75,0.0,0.75,4.75,2.5,1.25,4.5,0.58,0.08,1.08,435.81,6.6,-17.3
4.16,0.75,1.5,0.75,0.0,0.75,1.0,1.5,0.0,1.0,0.0,2.0,0.25,1.25,-0.42,-2.8,1.2,115.06,8.9,1.4,1.75,0.75,0.0,2.0,3.25,6.5,0.5,5.75,0.75,4.75,2.25,1.0,3.0,0.58,0.08,1.14,406.05,6.6,-13.9
4.18,0.5,1.5,0.0,0.0,0.0,1.0,0.75,0.0,1.0,0.0,2.5,0.5,2.0,-0.61,-4.55,0.02,132.22,4.3,-28.1,1.25,0.25,0.0,2.25,3.25,4.75,0.25,4.75,0.25,1.25,2.25,0.0,1.25,1.52,-0.3,1.27,348.08,5.3,1.8
4.2,0.75,0.25,0.0,0.0,0.0,0.0,0.5,0.0,0.75,0.5,0.75,0.5,0.0,-0.8,-4.36,0.27,114.42,13.3,-20.5,0.0,0.0,0.0,0.0,1.0,1.0,0.0,2.5,0.75,0.5,1.0,0.0,0.0,2.27,1.89,2.83,246.79,8.1,-20.8
4.22,0.0,1.5,1.0,1.0,3.0,1.0,1.25,2.0,1.75,1.75,2.5,2.25,2.0,-5.48,-6.36,5.14,174.69,1.9,-20.1,0.0,0.0,0.0,0.0,0.0,2.25,0.0,1.75,0.75,1.5,1.0,0.0,0.0,2.58,-2.05,2.83,152.5,11.5,-29.7
4.24,1.0,1.5,0.0,1.25,3.75,1.75,2.0,0.0,2.5,1.25,3.25,3.5,4.0,-0.42,3.27,0.64,240.33,2.8,-24.8,0.0,0.0,0.0,0.0,0.25,2.25,0.0,1.75,0.25,1.5,1.0,0.0,0.75,3.77,-3.61,1.95,69.53,13.0,-34.0
4.26,0.75,0.75,0.25,1.25,0.75,1.0,1.5,1.25,1.5,0.0,3.5,3.75,4.0,-0.3,0.95,2.39,282.11,3.8,-45.4,0.0,0.0,0.0,0.5,0.25,1.25,0.0,1.75,0.5,1.5,0.75,0.0,1.0,0.64,-3.48,4.2,28.83,9.6,-37.6
4.28,1.75,0.25,0.0,0.75,1.25,1.75,1.0,1.75,1.75,0.75,2.75,4.25,5.25,1.45,-0.11,1.02,314.3,0.8,-47.0,0.0,0.0,0.0,0.0,0.0,1.25,0.0,1.75,0.5,0.75,1.0,0.0,0.75,0.39,-1.73,4.33,6.82,10.5,-44.1
4.3,1.0,1.5,0.25,1.0,5.25,1.25,1.0,1.75,1.5,0.0,2.5,5.0,5.25,0.27,-0.73,0.33,347.16,1.2,-27.1,0.0,0.0,0.0,0.0,0.0,0.75,0.0,1.75,0.25,0.75,0.75,0.0,0.75,1.14,0.02,3.89,3.98,11.5,-50.3
4.32,2.75,1.25,0.25,1.0,1.75,1.0,0.25,2.0,1.5,2.75,2.5,6.0,5.75,-0.55,1.27,0.2,376.94,1.7,-42.7,0.0,0.0,0.0,0.0,0.0,1.75,0.0,1.75,0.0,0.75,0.75,0.0,0.0,1.33,1.33,3.27,0.0,14.5,-25.2
4.34,3.5,1.5,0.0,1.0,0.5,1.5,0.5,2.25,1.5,5.0,2.75,6.75,6.25,-0.3,1.45,0.95,419.9,0.8,-47.4,0.0,0.25,0.0,0.0,0.0,1.25,0.0,1.5,0.5,0.0,1.0,0.0,0.25,0.83,2.83,2.14,0.0,7.7,-24.2
4.36,5.25,1.5,0.0,1.0,2.5,2.0,0.5,3.75,2.0,5.75,4.0,7.5,7.5,-0.42,0.39,1.08,527.39,0.8,-39.4,0.0,0.25,0.0,0.0,0.0,1.25,0.0,1.75,0.0,0.25,1.0,0.0,0.25,0.2,3.39,0.27,6.96,10.7,-26.2
4.38,4.5,1.0,0.0,1.0,2.25,1.75,0.5,4.0,2.25,6.5,4.25,7.75,8.0,-0.36,0.27,1.33,618.1,0.0,-46.3,0.0,0.0,0.0,0.0,1.0,1.25,0.0,1.75,0.0,0.25,0.75,0.0,0.25,-0.86,3.7,0.7,20.73,11.2,-12.7
4.4,4.25,1.5,0.0,1.0,5.25,1.75,0.75,4.5,2.25,6.5,4.75,8.25,8.75,-0.42,0.27,1.14,719.03,-0.4,-40.1,0.0,0.0,0.0,0.0,0.5,1.5,0.0,1.25,0.0,0.25,1.0,0.0,0.25,-1.48,3.95,0.52,32.98,11.0,-18.9
4.42,2.75,0.0,0.0,0.0,1.75,1.25,0.75,3.75,2.25,6.75,5.0,8.25,9.0,-0.67,-0.11,0.95,747.52,-1.8,-63.5,0.0,0.0,0.0,0.0,1.0,1.25,0.0,1.5,0.0,0.0,0.75,0.0,0.25,-2.36,4.58,-0.11,54.36,10.7,-8.1
4.44,3.0,1.5,1.75,1.0,4.25,2.25,1.0,4.0,2.0,7.75,5.75,9.75,10.5,-1.73,-0.36,0.83,826.8,-0.2,-46.6,0.0,0.0,0.0,0.0,0.0,1.25,0.0,1.25,0.0,0.25,0.75,0.0,0.0,-2.3,5.02,1.33,60.1,12.9,-24.0
4.46,3.5,1.5,1.0,1.0,4.5,2.25,1.0,3.75,1.75,7.75,5.0,9.75,11.0,0.33,0.83,1.52,856.25,-0.7,-46.6,0.0,0.0,0.0,0.0,0.0,2.0,0.0,1.25,0.0,0.0,0.75,0.0,0.0,-1.92,3.58,1.45,56.07,14.5,-10.0
4.48,2.0,0.5,0.0,0.0,4.25,1.0,1.0,3.25,1.5,6.5,5.75,9.0,9.75,-0.3,0.27,1.58,850.77,-1.9,-59.2,0.0,0.0,0.0,0.0,0.0,1.25,0.0,0.5,0.0,0.0,0.75,0.0,0.0,-1.55,1.58,1.58,44.58,11.4,-14.1
4.5,1.75,0.25,0.0,0.0,0.5,0.25,0.5,2.0,1.0,5.5,3.5,8.5,9.75,-0.86,-0.3,1.39,750.11,-2.1,-77.6,0.0,0.0,0.0,0.0,0.0,1.75,0.0,1.25,0.0,0.0,0.5,0.0,0.0,-1.17,-0.48,0.89,43.83,15.8,-8.4
4.52,0.75,0.25,0.0,0.0,0.5,1.5,0.0,1.0,1.5,6.0,2.75,8.25,9.0,-1.17,-1.05,1.39,634.0,-3.9,-79.0,0.0,0.0,0.0,0.0,0.0,1.25,0.0,1.25,0.0,0.25,0.75,0.25,0.0,-1.11,-1.61,-0.36,44.9,11.4,-29.9
4.54,0.25,0.25,0.0,0.0,0.5,0.0,0.25,0.0,0.75,3.25,2.75,7.5,8.75,-0.8,-1.92,2.27,492.86,-2.3,-90.5,1.25,0.25,0.0,0.0,0.0,1.25,0.0,1.25,0.0,0.0,0.75,0.75,0.25,-1.23,-2.92,-0.92,59.47,-1.2,-5.9
4.56,0.25,0.75,0.0,0.0,0.0,0.0,0.25,0.0,0.75,1.25,2.5,3.0,7.25,-1.86,-3.55,3.77,354.39,-2.4,-84.5,0.0,0.0,0.0,0.0,0.0,1.0,0.0,1.25,0.0,1.75,1.0,0.75,0.0,-0.05,-3.55,-1.3,72.65,9.3,-53.6
4.58,0.0,1.0,0.0,0.0,0.0,0.5,0.5,0.0,0.75,0.25,1.0,2.0,3.75,-2.23,1.52,5.27,239.98,-1.0,-66.8,0.0,0.0,0.0,0.25,1.0,0.0,0.25,1.25,0.75,0.0,1.0,0.0,0.0,4.2,-3.73,-1.61,77.06,-0.6,-15.4
4.6,0.0,0.75,0.0,0.0,0.0,1.0,0.5,0.0,0.75,0.25,0.75,0.5,2.0,1.27,4.27,-0.92,127.37,-2.3,-42.9,0.5,0.25,0.0,0.0,0.0,0.0,0.0,2.0,0.75,2.0,1.0,0.5,1.5,7.95,-1.05,-4.36,99.01,5.0,-57.0
4.62,0.0,0.75,0.0,0.0,0.5,1.0,0.0,0.0,0.75,0.0,1.25,0.5,2.0,2.14,3.02,2.45,41.17,-2.2,-38.3,1.0,0.0,0.0,2.0,1.0,2.0,0.5,2.0,0.75,3.0,2.25,1.25,3.25,6.39,0.2,0.02,162.26,2.8,-34.8
4.64,0.0,1.0,0.0,0.0,0.0,0.0,0.0,0.0,0.75,0.0,1.0,0.5,1.5,0.39,2.27,-0.8,0.0,3.2,-46.8,1.0,0.0,0.0,1.75,3.0,2.0,0.5,3.0,0.25,4.0,1.5,0.5,3.0,3.02,0.33,2.7,223.2,5.5,-23.1
4.66,0.0,0.5,0.0,0.0,0.0,0.0,0.0,0.0,0.75,0.0,1.0,0.5,0.5,-1.98,0.27,-0.17,0.0,7.2,-49.9,1.5,0.5,0.0,0.0,1.0,1.25,0.25,2.0,0.0,3.75,0.75,0.25,2.75,1.58,-0.23,2.7,243.59,6.6,-33.0
4.68,0.0,0.75,0.0,0.0,0.5,0.25,0.0,0.0,0.75,0.0,0.75,0.5,0.5,-2.48,-1.3,0.2,0.0,4.1,-19.4,0.0,0.0,0.0,0.0,0.25,1.25,0.0,1.75,0.25,1.5,1.0,0.25,1.0,3.33,0.33,0.02,221.16,11.0,-48.3
4.7,0.0,0.75,0.0,0.0,0.5,0.75,0.0,0.0,0.75,0.0,1.0,0.5,0.25,-2.05,-1.86,0.27,0.0,2.6,-11.6,0.0,0.0,0.0,0.5,1.0,0.25,0.0,1.75,0.0,2.5,1.0,0.0,0.75,2.95,0.58,-1.05,186.25,8.7,-39.7
4.72,0.0,0.5,0.0,0.0,0.5,0.25,0.5,0.0,0.75,0.0,0.5,0.5,0.25,-1.42,-1.73,0.7,0.0,6.2,-14.4,0.0,0.0,0.0,0.0,3.0,1.25,0.0,1.75,0.0,1.5,0.75,0.75,0.5,1.27,0.33,-1.36,161.17,8.4,-15.0
4.74,0.0,0.25,0.25,0.0,1.25,0.0,0.0,0.0,0.75,0.25,0.25,1.0,0.25,-0.8,0.08,0.64,0.0,4.8,-19.0,2.0,0.5,0.0,2.5,3.0,2.25,0.25,1.75,0.25,2.0,2.25,0.75,1.25,-0.61,0.08,-0.98,193.08,-0.8,1.6
4.76,0.0,0.75,0.0,0.0,0.5,0.0,0.0,0.0,0.75,0.25,0.25,0.25,0.0,-1.05,-0.17,1.33,0.0,6.2,5.1,1.25,0.25,0.0,2.25,3.0,2.75,0.5,1.75,0.25,1.5,2.25,0.75,1.25,-0.23,-0.61,-0.55,224.67,0.8,-1.1
4.78,0.0,0.5,0.0,0.0,0.5,1.0,0.0,0.0,0.75,0.25,0.25,0.0,0.0,-1.42,-0.48,0.83,15.92,-2.8,14.8,1.25,0.5,0.0,1.75,3.0,2.25,0.5,1.75,0.0,1.5,2.25,0.75,1.25,0.2,-1.3,-0.17,247.29,0.8,-1.9
4.8,0.0,0.75,0.0,0.0,0.0,0.0,0.0,0.0,0.75,0.25,0.25,0.25,0.0,-1.8,-0.92,0.89,24.35,8.7,-7.2,1.75,0.0,0.0,1.25,3.0,2.25,0.25,1.75,0.0,2.0,0.75,0.0,1.25,0.33,-1.36,0.27,243.18,3.2,5.6
4.82,0.0,0.5,0.0,0.0,0.75,1.0,0.0,0.0,0.5,0.25,0.25,0.25,0.0,-1.11,-1.55,1.45,37.69,-3.1,12.9,1.25,0.5,0.0,1.75,3.25,2.25,0.25,2.0,0.0,1.75,2.25,0.75,1.25,0.58,-1.17,0.39,243.87,1.5,-2.8
4.84,0.0,0.5,0.0,0.0,1.75,1.0,0.0,0.0,0.25,0.25,0.25,0.25,0.25,0.39,-0.92,2.27,50.77,-4.5,18.8,1.5,0.5,0.0,0.25,3.0,1.5,0.25,2.0,0.0,0.0,2.0,0.0,1.25,0.14,-1.23,0.7,218.62,0.8,6.0
4.86,0.0,0.5,0.0,0.0,0.75,1.0,0.0,0.0,0.25,0.25,0.25,0.25,0.0,0.89,-0.73,2.33,55.03,-4.2,16.8,1.5,0.5,0.0,1.75,3.0,1.75,0.25,1.75,0.25,2.0,2.25,0.5,1.25,-0.05,-0.98,0.45,220.59,0.3,-2.8
4.88,0.0,0.25,0.0,0.0,1.25,0.75,0.0,0.0,0.25,0.25,0.25,0.25,0.0,0.77,-1.23,1.45,58.36,-4.0,15.6,1.25,0.5,0.0,2.0,3.0,2.25,0.25,1.75,0.25,1.75,2.0,0.5,1.5,-0.17,-0.8,0.2,229.29,1.3,-1.8
4.9,0.0,0.25,0.0,0.0,0.75,0.5,0.5,0.0,0.25,0.25,0.25,0.25,0.25,0.7,-2.05,0.95,55.03,-0.7,-2.4,1.25,0.5,0.0,2.0,3.0,2.25,0.5,1.75,0.5,1.5,2.25,0.75,1.25,-0.23,-0.67,-0.05,245.7,0.1,-2.0
4.92,0.0,0.25,0.0,0.0,1.25,0.0,0.5,0.0,0.0,0.25,0.25,0.25,0.0,0.39,-2.86,-0.11,49.35,2.6,16.7,1.25,0.25,0.0,0.5,3.0,1.5,0.25,1.75,0.0,0.25,2.25,0.0,1.25,-0.23,-0.55,-0.17,231.18,1.1,1.2
4.94,0.0,0.25,0.0,0.0,1.25,0.25,0.25,0.0,0.0,0.0,0.5,0.25,0.0,0.2,-2.73,0.83,45.24,1.5,18.0,0.0,0.25,0.0,0.0,3.0,1.5,0.0,1.0,0.5,1.75,0.75,0.0,0.75,-0.23,-0.55,-0.11,200.62,8.2,-7.0
4.96,0.0,0.25,0.0,0.0,0.5,0.25,0.5,0.0,0.0,0.0,0.25,0.25,0.0,0.27,-2.11,0.89,39.15,4.7,14.1,0.0,0.0,0.0,0.0,0.0,1.25,0.0,1.0,0.0,0.0,0.75,0.0,0.5,-0.11,-0.48,0.08,134.86,12.5,-32.1
4.98,0.0,0.25,0.0,0.0,0.75,0.0,0.0,0.0,0.0,0.0,0.5,0.25,0.0,0.08,-1.61,0.39,33.48,4.2,4.3,0.5,0.25,0.0,0.25,0.0,1.75,0.0,1.25,0.5,1.5,0.75,0.0,1.0,-0.11,-0.36,0.02,96.72,7.6,-26.9
5.0,0.0,0.25,0.0,0.0,0.0,0.0,0.25,0.0,0.0,0.0,0.25,0.25,0.0,-0.17,-1.11,0.33,23.55,13.7,-19.3,1.25,0.5,0.0,2.0,2.25,2.25,0.75,2.0,0.5,2.25,2.0,0.5,1.25,-0.36,-0.17,-0.23,128.8,1.0,-5.7
5.02,0.0,0.25,0.0,0.0,0.5,0.0,0.0,0.0,0.0,0.0,0.25,0.25,0.0,-0.3,-1.11,0.14,18.21,4.6,8.2,1.5,0.75,0.0,2.25,3.25,2.0,0.25,1.75,0.25,2.0,2.25,0.75,1.25,-0.3,-0.17,-0.3,179.88,-0.1,0.1
5.04,0.0,0.25,0.0,0.0,0.75,0.0,0.5,0.0,0.0,0.0,0.25,0.25,0.0,-0.36,-0.86,0.14,17.72,6.9,17.7,1.5,0.25,0.0,2.0,3.0,1.75,0.25,1.75,0.5,1.75,2.25,0.75,1.25,-0.05,-0.3,-0.23,217.76,-0.2,-4.5
5.06,0.0,0.0,0.0,0.0,0.75,0.0,0.5,0.0,0.0,0.0,0.25,0.25,0.0,-0.36,-0.48,0.02,17.65,6.0,4.6,1.25,0.5,0.0,1.5,3.0,2.0,0.5,1.75,0.5,1.5,2.25,0.5,1.25,0.14,-0.48,-0.42,234.13,0.5,-2.8
5.08,0.0,0.0,0.0,0.0,1.25,0.0,1.0,2.0,0.0,0.0,2.0,0.0,0.0,-0.36,-0.11,0.02,41.3,-0.3,-22.7,1.5,0.5,0.0,2.0,3.0,2.25,0.5,1.75,0.5,1.75,2.25,0.5,1.0,0.39,-0.42,-0.55,243.95,-0.1,1.3
5.1,0.0,0.0,0.0,0.0,0.0,0.0,0.0,0.0,0.0,0.0,0.0,0.0,0.0,-0.36,0.33,-0.17,33.09,0.0,0.0,1.25,0.5,0.0,2.25,3.0,2.0,0.25,1.75,0.75,1.75,2.0,0.5,1.25,0.58,-0.36,-0.8,243.25,0.1,-0.8
5.12,0.0,0.0,0.0,0.0,0.0,0.0,0.0,0.0,0.0,0.0,0.0,0.0,0.0,-0.17,0.39,-0.61,23.88,0.0,0.0,1.25,0.5,0.0,2.0,3.0,2.25,0.25,1.75,0.75,1.75,2.25,0.5,1.25,0.64,-0.3,-0.92,249.22,0.5,-2.3
5.14,0.0,0.0,0.0,0.0,0.0,0.0,0.0,0.0,0.0,0.0,0.0,0.0,0.0,0.08,0.27,-0.73,7.11,0.0,0.0,1.5,0.5,0.0,2.75,3.0,2.25,0.25,1.75,0.75,2.25,2.0,0.5,1.25,0.58,-0.17,-0.92,260.99,0.0,0.4
5.16,0.0,0.0,0.0,0.0,0.0,0.0,0.0,0.0,0.0,0.0,0.0,0.0,0.0,0.14,0.33,-0.8,0.0,0.0,0.0,1.25,0.5,0.0,2.25,3.0,2.25,0.25,1.75,0.75,2.0,2.0,0.5,1.0,0.33,-0.23,-0.8,266.28,0.4,0.1
5.18,0.0,0.0,0.0,0.0,0.0,0.0,0.0,0.0,0.0,0.0,0.0,0.0,0.0,0.14,0.33,-0.67,0.0,0.0,0.0,1.25,0.5,0.0,2.0,3.0,2.25,0.25,1.75,0.5,1.75,2.0,0.75,1.25,0.14,-0.23,-0.73,265.18,0.7,-2.3
5.2,0.0,0.0,0.0,0.0,0.0,0.0,0.0,0.0,0.0,0.0,0.0,0.0,0.0,0.27,0.27,-0.67,0.0,0.0,0.0,1.25,0.5,0.0,2.0,3.0,2.25,0.25,1.75,0.75,1.75,2.25,0.75,1.25,0.02,-0.36,-0.55,261.58,0.4,-3.7
5.22,0.0,0.0,0.0,0.0,0.0,0.0,0.0,0.0,0.0,0.0,0.0,0.0,0.0,0.27,0.02,-0.67,0.0,0.0,0.0,1.25,0.5,0.0,2.0,3.0,2.0,0.25,1.75,0.75,2.5,2.25,0.5,1.25,0.02,-0.42,-0.42,253.89,0.9,-5.7
5.24,0.0,0.0,0.0,0.0,0.0,0.0,0.0,0.0,0.0,0.0,0.0,0.0,0.0,0.14,-0.17,-0.61,0.0,0.0,0.0,1.25,0.5,0.0,2.25,3.0,1.0,0.25,1.75,0.0,2.25,2.0,0.25,1.25,-0.05,-0.48,-0.55,239.69,0.0,-1.8
5.26,0.0,0.0,0.0,0.0,0.0,0.0,0.0,0.0,0.0,0.0,0.0,0.0,0.0,0.14,-0.17,-0.55,0.0,0.0,0.0,0.0,0.5,0.0,2.0,3.0,2.25,0.25,1.75,0.75,1.5,1.0,0.5,0.5,-0.11,-0.55,-0.67,226.38,3.4,2.7
5.28,0.0,0.0,0.0,0.0,0.0,0.0,0.0,0.0,0.0,0.0,0.0,0.0,0.0,0.08,-0.11,-0.67,0.0,0.0,0.0,1.5,0.5,0.0,2.25,3.0,2.25,0.25,1.75,0.75,1.75,2.0,0.25,1.25,0.02,-0.67,-0.67,228.56,0.1,2.4
5.3,0.0,0.0,0.0,0.0,0.0,0.0,0.0,0.0,0.0,0.0,0.0,0.0,0.0,-0.11,-0.05,-0.67,0.0,0.0,0.0,1.5,0.5,0.0,1.5,3.0,2.0,0.25,1.75,0.75,1.75,2.0,0.5,1.25,0.08,-0.92,-0.67,228.12,0.4,-2.2
5.32,0.0,0.0,0.0,0.0,0.0,0.0,0.0,0.0,0.0,0.0,0.0,0.0,0.0,-0.11,-0.17,-0.73,0.0,0.0,0.0,1.5,0.5,0.0,1.75,3.0,2.25,0.25,1.75,0.75,1.5,2.25,0.75,1.25,0.14,-1.11,-0.61,233.99,0.0,-2.3
5.34,0.0,0.0,0.0,0.0,0.0,0.0,0.0,2.75,0.0,0.0,0.75,0.25,0.0,-0.11,-0.55,-0.67,21.46,-9.7,-50.7,1.5,0.5,0.0,2.0,3.0,2.25,0.25,1.75,0.75,1.75,2.25,1.0,1.25,0.08,-1.11,-0.67,240.79,-0.1,-3.9
5.36,0.0,0.0,0.0,0.0,1.25,0.0,0.0,0.0,0.0,0.0,0.25,0.25,0.25,-0.11,-0.8,-0.48,32.17,-1.5,1.6,1.75,0.5,0.0,1.5,3.0,2.0,0.5,1.75,0.75,1.5,2.25,0.75,1.25,0.02,-0.98,-0.61,243.59,-0.7,-2.2
5.38,0.0,0.0,0.0,0.0,0.75,0.0,0.0,0.0,0.0,0.0,0.25,0.25,0.0,-0.11,-1.05,-0.3,37.3,1.4,0.6,1.5,0.5,0.0,2.5,3.0,2.25,0.25,1.75,0.5,2.0,2.25,0.75,1.25,0.27,-0.92,-0.61,247.86,-0.1,-1.3
5.4,0.0,0.0,0.0,0.0,0.5,0.0,0.0,0.0,0.0,0.0,0.25,0.25,0.0,-0.17,-1.05,-0.3,32.7,2.7,-13.6,1.25,0.5,0.0,2.0,3.0,2.25,0.25,1.75,0.75,2.25,2.25,0.75,1.25,0.27,-0.8,-0.61,250.88,0.8,-5.7
5.42,0.0,0.0,0.0,0.0,0.0,0.0,0.25,0.0,0.0,0.0,0.25,0.25,0.0,-0.11,-1.17,-0.42,25.64,14.2,-69.3,1.25,0.5,0.0,2.0,3.0,2.0,0.25,1.75,0.75,1.75,2.0,0.5,1.25,0.27,-0.67,-0.55,249.29,0.4,-1.7
5.44,0.0,0.0,0.0,0.0,1.25,0.0,0.0,0.0,0.0,0.0,0.25,0.25,0.0,-0.17,-1.23,-0.36,25.65,0.0,16.4,1.5,0.5,0.0,2.0,3.0,2.25,0.25,1.75,0.75,1.75,2.25,0.75,1.25,0.27,-0.55,-0.55,249.22,0.0,-2.4
5.46,0.5,0.5,0.0,0.25,0.5,1.75,0.5,0.0,1.5,0.0,0.25,1.0,0.0,-0.3,-1.48,-0.36,53.36,3.8,3.2,1.25,0.5,0.0,2.0,3.0,2.0,0.25,1.75,0.75,2.25,2.25,0.75,1.5,0.14,-0.23,-0.55,250.57,0.7,-7.7
5.48,0.75,0.25,0.75,0.25,0.5,2.5,4.5,3.0,2.0,0.0,1.75,1.0,0.0,-0.36,-1.61,-0.3,121.26,5.1,-6.9,1.75,0.5,0.0,2.0,3.0,2.25,0.25,1.75,0.75,2.0,2.0,0.75,1.25,0.08,-0.11,-0.42,253.46,0.0,-1.2
5.5,0.0,0.0,0.0,0.0,0.5,0.0,0.0,0.0,0.5,0.0,0.25,0.5,0.0,-0.48,-1.42,-0.17,115.45,6.1,-33.6,1.25,0.5,0.0,1.75,3.0,2.25,0.25,1.75,0.5,2.0,2.25,0.75,1.5,-0.11,-0.17,-0.36,251.79,1.2,-6.7
5.52,0.0,0.0,0.0,0.0,0.0,0.0,0.0,0.0,0.0,0.0,0.25,0.25,0.0,-0.23,-1.23,-0.48,94.39,9.8,-92.9,2.0,0.5,0.0,2.0,3.0,2.25,0.25,1.75,0.75,2.0,2.25,0.75,1.25,-0.17,-0.3,-0.23,253.19,-0.6,-0.9
5.54,0.0,0.0,0.0,0.0,0.75,0.0,0.0,0.0,0.0,0.0,0.25,0.25,0.0,-0.11,-1.17,-0.67,57.16,1.4,0.6,1.75,0.5,0.0,1.5,3.0,2.25,0.25,1.75,0.5,2.0,2.0,0.75,1.25,-0.11,-0.36,0.02,250.36,0.5,-2.4
5.56,0.0,0.0,0.0,0.0,0.75,0.0,0.0,0.0,0.0,0.0,0.75,0.25,0.0,0.02,-0.98,-0.42,36.07,3.8,-19.3,1.75,0.5,0.0,1.25,3.0,2.0,0.25,1.75,0.75,1.5,2.25,0.75,1.5,-0.05,-0.23,0.02,246.41,0.0,-4.9
5.58,0.0,0.0,0.0,0.0,0.5,0.0,0.0,0.0,0.0,0.0,0.25,0.25,0.0,0.02,-0.61,-0.23,18.33,2.7,-13.6,1.25,0.5,0.0,2.0,3.0,2.25,0.25,1.75,0.75,1.5,2.25,0.75,1.25,-0.23,0.02,0.08,243.47,0.2,-2.7
5.6,0.0,0.0,0.25,0.0,0.5,0.0,0.0,0.0,0.0,0.0,0.5,0.25,0.0,0.14,-0.23,-0.3,21.94,9.8,-10.9,1.25,0.5,0.0,2.0,3.0,2.25,0.25,1.75,0.75,2.0,2.25,0.75,1.5,-0.36,0.58,0.45,245.26,0.8,-6.2
5.62,0.0,0.0,0.0,0.0,1.25,0.0,0.0,0.0,0.0,0.0,0.25,0.25,0.0,0.27,0.08,-0.55,24.69,0.0,16.4,1.25,0.5,0.0,2.25,3.0,2.25,0.25,1.75,0.75,1.75,2.0,0.5,1.5,-0.42,1.2,0.64,245.41,0.6,-1.9
5.64,0.0,0.0,0.0,0.0,0.5,0.0,0.0,0.0,0.0,0.0,0.25,0.25,0.0,0.2,0.52,-0.23,17.88,2.7,-13.6,1.25,0.5,0.0,2.0,3.0,2.0,0.25,1.75,0.75,2.25,2.25,1.0,1.25,-0.3,1.64,0.7,248.27,0.4,-7.6
5.66,0.0,0.0,0.0,0.0,0.75,0.0,0.0,0.0,0.0,0.0,0.25,0.25,0.0,0.2,1.02,-0.17,13.83,1.4,0.6,1.25,0.5,0.0,1.75,0.5,2.25,0.0,1.0,0.75,3.0,1.0,1.5,2.0,0.64,-2.67,1.39,236.46,2.0,-24.6
5.68,0.0,0.0,0.0,0.0,0.75,0.0,0.0,0.0,0.0,0.0,0.25,0.25,0.0,0.08,1.14,0.02,9.04,1.4,0.6,1.75,0.5,0.0,1.0,3.0,2.25,0.25,2.0,0.75,3.25,2.25,1.5,2.75,1.45,-6.48,2.52,247.27,2.4,-21.3
5.7,0.0,0.0,0.0,0.0,0.0,0.0,0.0,0.0,0.0,0.25,0.25,0.25,0.0,0.08,1.27,0.2,3.51,1.2,-87.0,1.25,0.5,0.0,1.75,3.0,2.0,0.25,2.0,0.25,3.25,2.5,1.25,2.75,2.39,-2.92,1.52,255.73,2.6,-20.8
5.72,0.0,0.0,0.0,0.0,0.75,0.0,0.0,0.0,0.0,0.0,0.25,0.25,0.25,0.14,1.39,0.27,7.3,-0.9,-16.9,1.25,0.25,0.0,1.75,3.0,2.25,0.5,2.0,0.75,2.75,2.25,0.75,2.25,2.39,-2.67,0.39,264.73,2.3,-15.3
5.74,0.0,0.0,0.0,0.0,0.5,0.0,0.0,0.0,0.0,0.25,0.5,0.25,0.25,-0.3,0.14,0.27,23.24,-1.0,-43.9,1.75,0.5,0.0,1.75,3.0,2.25,0.5,2.0,0.75,2.25,2.25,0.5,1.25,0.95,-1.3,-0.23,264.8,0.3,-2.9
5.76,0.0,0.0,0.0,0.0,0.5,0.0,0.0,0.0,0.0,0.25,0.25,0.25,0.0,-3.17,-3.48,0.95,24.14,-0.7,-25.3,1.5,0.5,0.0,2.0,3.0,2.25,0.25,1.75,0.5,1.75,2.0,0.5,1.0,0.52,-0.67,0.02,257.96,0.2,2.2
5.78,0.0,0.0,0.0,0.0,0.0,0.0,0.0,0.0,0.25,0.25,0.5,0.25,0.0,-4.61,-6.86,0.89,22.98,5.3,-75.0,1.75,0.5,0.0,2.0,3.0,2.25,0.25,2.0,0.75,1.5,2.0,0.75,1.0,0.02,-0.11,0.27,252.32,-0.4,1.8
5.8,0.0,0.0,0.0,0.0,0.0,0.0,0.0,0.0,0.5,0.25,0.5,0.5,0.25,-3.73,-4.42,-0.23,26.81,4.1,-79.4,1.75,0.5,0.0,2.5,3.0,2.25,0.25,1.75,0.75,1.75,2.0,0.5,1.0,0.08,-0.05,0.08,249.42,-0.8,4.4
5.82,0.0,0.0,0.0,0.0,1.25,0.25,0.0,0.0,0.5,0.0,0.5,0.25,0.0,-2.11,-0.42,-0.11,34.88,1.1,0.8,1.75,0.5,0.0,2.0,3.0,2.25,0.25,1.75,0.75,1.25,2.0,0.5,1.0,0.52,-0.23,-0.36,246.41,-0.8,5.1
5.84,0.0,0.0,0.0,0.0,0.5,0.5,0.0,0.0,0.25,0.0,0.5,0.25,0.0,-0.55,1.02,0.33,36.65,-1.1,-12.9,1.5,0.25,0.0,2.0,3.0,2.25,0.25,1.75,0.75,1.25,2.0,0.5,1.0,1.08,-0.23,-0.55,241.09,-0.2,2.4
5.86,0.0,0.0,0.0,0.0,0.5,1.0,0.0,0.0,0.0,0.0,0.75,0.25,0.0,0.52,2.08,-1.05,40.36,-5.3,-7.5,2.0,0.5,0.0,2.5,3.0,2.25,0.25,1.75,0.75,1.5,2.0,0.5,1.0,1.33,-0.42,-0.61,242.95,-1.5,6.7
5.88,0.0,0.0,0.0,0.0,0.5,0.75,0.0,0.0,0.0,0.0,0.25,0.0,0.0,1.33,-2.67,0.27,37.02,-10.1,24.0,1.25,0.5,0.0,2.25,3.0,2.25,0.25,1.75,0.5,1.75,2.0,0.5,1.0,1.08,-0.67,-0.3,240.62,0.4,1.7
5.9,0.0,0.0,0.0,0.25,0.5,0.75,0.0,0.0,0.0,0.0,0.25,0.25,0.0,-0.23,-2.98,0.27,35.8,-4.3,12.1,1.25,0.5,0.0,1.75,3.0,2.25,0.5,1.75,0.5,1.5,2.0,0.25,1.0,0.7,-0.61,0.27,236.4,0.6,3.0
5.92,0.0,0.0,0.0,0.5,0.75,0.0,0.0,0.0,0.0,0.0,0.5,0.25,0.0,-2.11,-1.42,-0.05,34.58,6.3,6.1,1.25,0.5,0.0,1.25,3.0,2.25,0.25,1.75,0.75,1.5,2.0,0.75,1.0,0.52,-0.48,0.27,228.54,1.0,-2.9
5.94,0.0,0.0,0.0,0.75,0.5,0.0,0.0,0.0,0.25,0.0,0.25,0.0,0.0,-1.92,-0.36,-0.42,34.56,9.2,26.2,1.5,0.5,0.0,2.0,3.0,2.25,0.25,1.75,0.5,1.75,2.0,0.25,1.0,0.64,-0.48,0.14,229.11,0.3,3.8
5.96,0.0,0.0,0.0,1.0,2.25,0.5,0.0,1.0,0.25,0.0,0.25,0.0,0.0,-1.11,-0.23,0.08,54.45,-2.2,26.6,2.0,0.5,0.0,1.5,3.0,2.25,0.25,1.75,0.5,1.5,2.0,0.5,1.0,1.02,-0.55,0.08,230.27,-0.4,4.2
5.98,0.0,0.0,0.0,0.5,0.0,0.5,0.0,0.0,0.5,0.25,0.25,0.5,0.0,-0.55,-0.23,0.2,54.57,2.9,-25.9,1.5,0.25,0.0,1.5,3.0,2.25,0.25,1.75,0.25,1.75,1.75,0.5,1.0,1.14,-0.36,0.02,228.42,1.3,0.6
6.0,0.0,0.0,0.0,0.75,0.5,0.25,0.0,0.0,0.25,0.0,0.25,0.0,0.0,-0.48,-0.36,0.2,53.71,5.6,27.1,1.25,0.5,0.0,1.5,3.0,2.0,0.25,1.75,0.25,1.5,1.75,0.75,1.0,0.95,-0.36,0.02,225.34,0.9,-0.2
6.02,0.0,0.25,0.0,0.75,1.25,0.25,0.0,0.0,0.25,0.0,0.5,0.0,0.0,-0.55,-0.55,0.27,52.44,4.2,31.9,1.75,0.5,0.0,1.0,3.0,2.25,0.25,1.75,0.5,1.5,2.0,0.5,1.0,0.83,-0.3,0.08,222.67,0.6,1.1
6.04,0.0,0.5,0.0,1.0,5.25,1.0,0.25,0.75,0.75,0.5,0.0,0.5,0.0,-0.73,-0.8,0.14,96.94,-1.8,28.8,1.25,0.25,0.0,1.25,3.0,2.25,0.25,1.75,0.5,1.5,1.5,0.5,1.0,0.89,-0.36,0.08,217.88,2.0,0.0
6.06,0.0,0.0,0.0,0.75,0.5,0.25,0.0,0.0,0.25,0.0,0.5,0.25,0.0,-0.92,-0.92,0.14,90.8,6.4,4.3,1.75,0.5,0.0,1.25,3.0,2.25,0.25,1.75,0.75,1.5,2.0,0.25,1.0,0.83,-0.42,-0.23,220.63,0.2,3.1
6.08,0.0,0.0,0.0,0.25,0.75,0.25,0.0,0.0,0.25,0.0,0.0,0.0,0.0,-0.92,-0.73,0.14,82.0,-0.4,37.2,1.5,0.25,0.0,1.25,3.0,2.25,0.25,1.75,0.75,1.5,1.5,0.75,1.0,0.77,-0.48,-0.17,220.58,1.0,-0.9
6.1,0.0,0.25,0.0,0.25,0.5,0.0,0.0,0.0,0.25,0.0,0.25,0.0,0.0,-0.86,-0.48,0.14,55.98,7.2,27.6,1.25,0.5,0.0,1.25,3.0,2.25,0.5,1.75,0.75,1.5,2.0,0.25,1.0,0.45,-0.42,0.02,222.06,1.0,0.6
6.12,0.0,0.25,0.0,0.0,0.0,0.0,0.0,0.0,0.5,0.0,0.25,0.0,0.0,-0.8,-0.42,0.27,35.3,11.9,-11.8,1.5,0.25,0.0,1.5,3.0,2.25,0.25,1.75,0.75,1.5,2.0,0.25,1.0,0.33,-0.36,0.14,223.69,0.7,1.1
6.14,0.0,0.0,0.0,0.0,0.5,0.0,0.0,0.0,0.5,0.0,0.25,0.0,0.25,-0.86,-0.55,0.39,20.42,2.0,-22.0,1.25,0.5,0.0,1.25,3.0,2.25,0.5,1.75,0.75,2.0,1.75,0.5,1.0,0.45,-0.23,0.39,226.72,1.5,-2.2
6.16,0.0,0.25,0.0,0.0,0.5,0.0,0.0,0.0,0.5,0.0,0.0,0.0,0.25,-0.92,-0.55,0.39,18.57,2.4,5.7,1.0,0.25,0.0,1.25,3.0,2.75,0.5,1.75,0.5,1.25,2.0,0.75,1.0,0.77,-0.48,0.52,225.95,2.1,-3.0
6.18,0.0,0.0,0.0,0.0,0.75,0.0,0.0,0.0,0.75,0.0,0.5,0.0,0.0,-0.92,-0.48,0.33,21.4,5.4,-8.9,1.5,0.25,0.0,1.5,3.0,2.25,0.5,1.75,0.5,1.5,2.0,0.5,1.0,0.89,-0.36,0.2,226.72,0.5,0.2
6.2,0.0,0.0,0.0,0.0,0.75,0.0,0.0,0.0,0.75,0.0,0.5,0.0,0.0,-0.86,-0.36,0.27,20.54,5.4,-8.9,1.25,0.25,0.0,1.25,3.0,2.25,0.5,1.75,0.25,1.75,1.5,0.25,1.0,0.83,-0.36,0.27,222.65,2.3,1.3
6.22,0.0,0.0,0.0,0.0,0.5,0.0,0.0,0.0,0.75,0.0,0.25,0.0,0.0,-0.8,-0.42,0.14,22.26,6.2,-10.1,1.25,0.5,0.0,1.75,3.0,2.25,0.5,1.75,0.75,1.5,2.0,0.5,1.0,0.77,-0.42,0.39,226.5,0.3,0.7
6.24,0.0,0.0,0.0,0.0,0.75,0.0,0.0,0.0,0.75,0.0,0.0,0.25,0.25,-0.67,-0.42,0.2,22.13,2.2,-17.8,1.25,0.25,0.0,1.25,3.0,2.0,0.5,1.75,0.5,1.5,1.0,0.75,1.0,0.64,-0.36,0.33,220.85,1.6,0.2
6.26,0.0,0.75,0.0,1.0,0.5,1.0,0.0,0.0,0.75,0.0,0.75,0.25,0.0,-0.67,-0.48,0.2,38.71,4.6,17.7,1.5,0.25,0.0,0.75,3.0,2.0,0.5,1.75,0.75,1.5,1.25,0.25,1.0,0.64,-0.42,0.2,216.21,1.6,1.6
6.28,0.75,1.5,0.0,0.0,0.5,0.0,0.75,0.0,0.75,0.5,0.75,0.5,0.25,-0.8,-0.48,0.14,60.37,10.7,9.8,0.0,0.0,0.0,0.0,0.0,0.0,0.0,0.5,0.0,0.0,0.0,0.0,0.0,0.52,-0.23,-0.11,146.91,16.7,-38.7
6.3,0.0,0.25,0.25,1.0,0.75,0.5,0.5,0.0,1.0,0.0,0.0,0.25,1.25,-0.86,-0.36,0.39,86.01,3.8,-6.3,0.0,0.0,0.0,0.0,0.0,0.0,0.0,0.5,0.0,0.25,0.0,0.0,0.0,0.7,-0.17,0.2,78.79,16.4,-51.0
6.32,0.0,1.5,0.0,0.25,0.5,0.0,0.25,0.0,0.75,0.0,1.25,0.25,1.75,-0.67,-0.11,0.64,99.48,3.9,-21.9,1.0,0.5,0.0,1.0,1.0,1.25,0.75,2.0,0.75,1.25,1.25,0.25,0.0,0.89,0.02,0.77,66.12,-0.8,-0.3
6.34,0.75,1.5,0.0,1.0,0.75,1.0,0.5,0.0,0.75,0.0,2.0,1.0,1.0,-0.48,-0.11,0.83,124.59,6.9,-2.9,1.25,0.5,0.0,1.25,3.0,1.25,0.5,1.75,0.75,1.25,2.0,0.5,0.25,0.83,0.27,0.83,102.49,-1.4,3.7
6.36,0.0,0.25,0.0,0.0,0.75,0.0,0.5,0.25,0.75,0.0,2.5,0.75,0.5,-0.55,-0.3,0.95,125.12,6.4,-46.5,0.0,0.0,0.0,0.0,0.0,0.0,0.0,0.25,0.0,0.75,0.0,0.0,0.0,0.83,0.2,0.95,80.73,15.9,-66.3
6.38,0.75,1.5,0.0,1.0,0.75,1.0,0.5,0.0,1.25,0.5,2.0,2.0,1.25,-0.55,-0.48,0.95,151.38,5.9,-18.2,0.0,0.25,0.0,0.0,3.0,0.0,0.5,1.75,0.0,0.0,0.0,0.0,0.25,1.2,-0.42,0.89,81.95,5.5,20.3
6.4,0.5,1.5,0.0,1.0,0.5,1.0,0.0,0.0,1.25,0.25,1.25,2.0,2.0,-0.61,-0.36,0.89,163.87,3.8,-24.7,0.0,0.0,0.0,0.0,0.0,0.25,0.0,0.25,0.0,0.0,0.0,0.0,0.25,1.33,-0.67,0.89,37.9,17.6,-40.2
6.42,0.5,1.5,0.0,1.0,1.25,1.0,0.5,0.5,1.25,0.0,2.5,2.0,2.75,-0.67,-0.36,0.83,191.15,3.2,-27.5,0.0,0.0,0.0,0.0,0.0,0.0,0.0,0.25,0.0,0.0,0.0,0.0,0.25,1.52,-0.55,0.77,6.28,15.2,-74.8
6.44,0.75,1.5,0.25,1.0,0.75,1.0,0.5,0.5,1.25,0.5,2.5,2.0,3.0,-0.61,-0.3,0.95,209.05,3.6,-30.1,0.0,0.0,0.0,0.0,0.0,0.0,0.0,0.25,0.0,0.0,0.0,0.0,0.0,1.52,-0.67,0.7,0.0,16.7,-38.7
6.46,0.5,1.25,0.0,1.0,0.75,1.0,0.5,0.25,1.25,0.5,2.75,2.0,3.75,-0.48,-0.17,0.95,226.84,1.9,-40.3,0.0,0.25,0.0,0.0,0.0,0.0,0.0,0.25,0.0,0.0,0.0,0.0,0.25,1.27,-0.73,1.02,0.0,5.8,-16.2
6.48,0.5,1.5,0.0,1.0,0.75,0.75,0.5,0.5,1.0,0.5,2.5,2.0,4.25,-0.48,-0.36,0.95,234.46,1.4,-40.9,0.0,0.0,0.0,0.0,0.0,0.0,0.0,0.25,0.0,0.0,0.0,0.0,0.0,1.02,0.02,0.7,0.0,16.7,-38.7
6.5,0.25,1.5,0.25,1.0,0.75,1.0,0.0,0.25,1.0,0.5,2.25,2.25,4.0,-0.48,-0.3,0.83,235.71,1.1,-40.6,0.0,0.0,0.0,0.0,0.0,0.0,0.0,0.25,0.0,0.0,0.0,0.0,0.25,0.52,0.52,0.64,0.0,15.2,-74.8
6.52,0.75,1.5,0.0,1.0,0.75,1.0,0.25,0.25,0.75,0.5,2.5,2.0,4.0,-0.48,-0.11,0.58,235.08,1.6,-37.0,0.0,0.0,0.0,0.0,0.0,0.0,0.0,0.25,0.0,0.0,0.0,0.0,0.0,0.2,0.83,0.64,0.0,16.7,-38.7
6.54,0.0,1.25,0.0,1.0,0.5,1.0,0.0,0.5,0.75,0.5,2.0,2.25,4.0,-0.48,-0.17,0.58,228.64,-0.8,-48.8,0.0,0.0,0.0,0.0,0.0,0.0,0.0,0.25,0.0,0.0,0.0,0.0,0.0,-0.11,1.14,0.58,0.0,16.7,-38.7
6.56,0.25,1.5,0.0,1.0,0.75,1.0,0.5,0.25,0.75,0.5,2.5,2.25,4.0,-0.55,-0.17,0.83,225.87,1.0,-41.9,0.0,0.0,0.0,0.0,0.0,0.0,0.0,0.25,0.0,0.0,0.0,0.0,0.0,-0.23,1.33,0.64,0.0,16.7,-38.7
6.58,0.25,1.5,0.0,1.0,0.75,1.0,0.25,0.25,0.75,0.5,2.25,2.25,4.0,-0.61,-0.05,0.64,221.02,0.6,-41.9,0.0,0.0,0.0,0.0,0.0,0.0,0.0,0.25,0.0,0.0,0.0,0.0,0.25,-0.42,1.45,0.77,0.0,15.2,-74.8
6.6,0.25,1.5,0.25,1.0,1.25,1.0,0.5,0.25,0.75,0.5,2.0,2.25,4.0,-0.55,-0.17,0.39,221.87,1.1,-35.6,0.0,0.25,0.0,0.0,0.0,0.0,0.0,0.25,0.0,0.0,0.25,0.0,0.0,-0.11,1.77,0.77,2.38,-2.2,-3.2
6.62,0.5,1.0,0.0,1.0,0.75,0.75,0.5,0.0,0.75,0.5,2.0,2.25,3.75,-0.48,-0.36,0.33,211.47,1.8,-43.7,0.0,0.0,0.0,0.0,0.0,0.0,0.0,0.25,0.0,0.0,0.5,0.0,0.25,0.14,1.64,0.83,6.32,2.5,-75.1
6.64,0.0,1.25,0.25,1.25,4.5,0.0,0.5,0.25,0.75,0.25,2.0,2.0,2.75,-1.17,-0.17,0.39,215.26,2.4,-14.0,0.0,0.0,0.0,0.0,0.0,0.0,0.0,0.25,0.0,0.0,0.25,0.0,0.25,0.33,1.08,1.08,13.8,6.8,-75.0
6.66,0.5,1.5,0.0,1.0,4.75,0.0,0.0,0.0,0.75,0.0,1.5,0.5,2.25,-1.98,-0.17,0.89,207.0,2.4,7.8,0.0,0.0,0.0,0.0,0.0,0.0,0.0,0.25,0.0,0.0,0.25,0.25,0.25,1.33,-0.17,0.95,16.76,2.9,-83.7
6.68,0.0,0.0,0.0,0.25,0.5,0.0,0.0,0.0,0.0,0.0,0.25,0.5,0.75,-2.73,-0.73,2.39,152.39,-0.4,-47.4,0.0,0.0,0.0,0.0,0.0,0.0,0.0,0.25,0.0,0.0,0.25,0.0,0.25,1.33,-0.48,1.02,16.57,6.8,-75.0
6.7,0.75,1.5,0.0,1.0,5.0,0.0,0.0,0.0,0.75,0.0,1.5,0.5,2.0,-1.8,-0.23,1.89,152.21,3.1,12.5,0.0,0.0,0.0,0.0,0.0,0.0,0.0,0.25,0.0,0.0,0.25,0.0,0.25,1.02,-0.61,1.02,16.09,6.8,-75.0
6.72,0.75,1.5,0.25,1.0,4.75,0.25,0.0,0.0,0.5,0.25,1.5,0.5,2.0,-0.92,-0.11,1.45,156.72,3.0,12.2,0.0,0.0,0.0,0.0,0.0,0.0,0.0,0.25,0.0,0.0,0.25,0.0,0.25,0.95,-0.55,0.58,15.5,6.8,-75.0
6.74,0.5,1.5,0.0,1.0,5.0,0.5,0.75,0.0,0.0,0.0,1.25,0.25,1.0,-0.3,0.7,2.02,172.81,3.0,29.8,0.0,0.0,0.0,0.0,0.0,0.0,0.0,0.25,0.0,0.0,0.25,0.0,0.25,0.83,-0.61,0.45,15.0,6.8,-75.0
6.76,0.0,0.25,0.0,0.5,0.5,0.0,0.0,0.0,0.0,0.0,0.5,0.0,0.0,0.33,0.95,1.08,128.16,8.4,27.2,0.0,0.0,0.0,0.0,0.0,0.0,0.0,0.25,0.0,0.0,0.5,0.0,0.25,0.7,-0.67,0.45,16.21,2.5,-75.1
6.78,0.0,0.0,0.0,0.0,0.5,0.0,0.0,0.0,0.0,0.0,0.5,0.0,0.0,0.58,1.58,0.52,79.91,3.1,-5.2,0.0,0.0,0.0,0.0,0.0,0.0,0.0,0.25,0.0,0.0,0.25,0.0,0.0,0.83,-0.73,0.52,13.99,3.2,-56.8
