time,left pressure 0[N/cm虏],left pressure 1[N/cm虏],left pressure 2[N/cm虏],left pressure 3[N/cm虏],left pressure 4[N/cm虏],left pressure 5[N/cm虏],left pressure 6[N/cm虏],left pressure 7[N/cm虏],left pressure 8[N/cm虏],left pressure 9[N/cm虏],left pressure 10[N/cm虏],left pressure 11[N/cm虏],left pressure 12[N/cm虏],left acceleration X[g],left acceleration Y[g],left acceleration Z[g],left total force[N],left center of pressure X[mm],left center of pressure Y[mm],right pressure 0[N/cm虏],right pressure 1[N/cm虏],right pressure 2[N/cm虏],right pressure 3[N/cm虏],right pressure 4[N/cm虏],right pressure 5[N/cm虏],right pressure 6[N/cm虏],right pressure 7[N/cm虏],right pressure 8[N/cm虏],right pressure 9[N/cm虏],right pressure 10[N/cm虏],right pressure 11[N/cm虏],right pressure 12[N/cm虏],right acceleration X[g],right acceleration Y[g],right acceleration Z[g],right total force[N],right center of pressure X[mm],right center of pressure Y[mm]
0.02,0.0,0.25,2.25,0.75,1.25,0.25,0.75,2.75,0.25,2.75,2.5,5.0,5.75,0.95,0.2,2.08,247.3,0.4,-57.0,0.0,1.75,0.5,2.75,5.0,0.75,0.5,1.25,0.75,2.25,1.25,1.0,1.25,-0.05,-0.23,0.83,234.14,-1.0,6.5
0.04,0.0,0.25,1.75,0.5,0.5,1.0,0.75,3.0,0.75,4.5,2.5,5.75,6.5,-0.3,-0.05,1.14,303.28,-2.0,-65.0,0.75,1.5,0.5,2.75,5.0,1.0,0.5,1.75,0.75,2.25,0.75,1.0,1.0,0.14,-0.11,0.95,258.25,-1.3,11.1
0.06,0.25,0.0,1.75,1.25,0.5,1.5,0.0,3.5,1.0,4.75,1.5,6.75,7.25,-0.05,0.52,1.83,371.97,-2.7,-63.3,1.25,1.5,0.5,2.5,5.0,1.0,0.5,1.5,0.75,2.25,1.5,1.0,1.0,0.14,0.02,1.14,276.62,-2.4,10.1
0.08,1.25,0.0,1.75,3.25,0.75,3.0,0.5,5.25,1.75,6.25,3.5,7.5,7.75,-0.11,-0.05,1.02,489.05,-1.4,-50.1,1.5,1.5,0.5,2.75,5.0,2.25,0.5,1.5,0.25,2.25,1.25,1.0,1.0,0.2,0.14,1.27,295.67,-1.2,14.9
0.1,0.75,0.0,3.25,3.0,0.5,3.25,0.0,4.75,2.0,6.5,4.0,8.0,8.5,-0.11,0.02,0.95,609.85,-0.6,-51.2,1.0,1.5,0.5,2.0,5.0,2.75,0.5,1.75,0.25,2.25,1.5,1.0,1.0,0.33,0.27,1.45,300.81,0.6,10.3
0.12,0.25,0.0,1.75,1.5,0.0,3.0,1.0,4.5,2.0,6.75,2.5,7.5,7.75,-0.17,0.02,0.95,668.56,-3.1,-60.6,0.5,1.75,0.0,1.75,1.25,2.25,0.25,1.75,0.25,2.25,0.5,1.0,0.75,0.52,0.45,1.77,271.61,2.5,0.3
0.14,0.0,0.0,1.75,1.75,0.0,2.5,1.5,5.0,2.75,6.0,3.75,7.5,7.75,-0.11,0.02,0.95,699.49,-2.0,-60.9,0.75,1.5,0.5,2.0,5.0,2.0,0.5,1.5,0.25,2.25,1.5,1.0,1.0,0.83,0.7,2.27,263.42,0.0,9.1
0.16,0.75,0.25,1.75,1.75,0.0,2.75,3.25,5.25,3.25,6.25,5.0,7.5,8.25,-0.11,-0.05,0.95,727.82,-0.5,-55.9,1.0,1.5,0.5,1.75,5.0,2.75,0.5,1.75,0.25,2.25,1.25,1.0,1.25,1.27,1.58,2.39,260.74,1.1,9.3
0.18,1.75,1.5,2.0,3.25,0.5,3.75,3.75,5.25,4.25,7.5,5.0,8.25,7.5,-0.11,-0.05,0.95,778.69,1.0,-42.2,1.25,1.75,0.5,2.0,4.75,2.25,0.5,1.5,0.25,2.25,1.25,1.0,0.75,1.39,2.7,2.08,270.77,-0.6,14.4
0.2,1.75,0.75,4.25,3.25,3.5,4.0,4.5,5.75,4.25,7.5,5.25,8.25,8.25,-0.11,-0.05,0.95,862.47,1.8,-34.7,1.5,1.5,0.5,1.25,4.75,2.75,0.5,1.75,0.0,2.25,0.25,1.0,0.75,1.39,3.77,0.64,272.12,1.1,17.6
0.22,1.75,0.75,3.75,3.25,3.5,4.0,4.5,5.75,4.25,7.0,5.75,7.75,8.25,-0.11,-0.05,0.95,936.86,1.7,-34.9,1.25,1.75,0.5,1.25,4.5,3.25,0.5,0.25,0.25,2.25,1.0,1.0,0.75,0.95,4.45,-0.92,270.56,0.0,17.7
0.24,1.75,1.25,4.25,3.25,3.5,5.25,4.75,5.75,4.5,6.5,5.5,7.5,7.75,-0.11,-0.05,0.95,976.29,1.9,-30.0,1.0,1.5,0.5,1.25,5.0,3.25,0.5,0.0,0.25,2.25,1.25,0.5,0.75,-0.98,5.27,5.95,262.73,0.6,19.7
0.26,1.75,1.0,4.25,3.25,4.25,4.0,4.75,5.5,4.25,6.25,5.0,7.25,7.5,-0.11,-0.05,0.95,956.56,2.4,-29.2,1.0,1.5,0.5,1.0,4.5,1.25,0.5,1.75,0.75,3.5,2.0,1.25,1.75,0.45,-0.55,0.77,267.69,0.6,-8.2
0.28,2.0,1.5,4.5,3.25,4.25,4.0,5.25,5.75,4.25,6.25,4.75,6.75,7.5,-0.11,-0.05,0.95,936.06,2.7,-26.1,1.25,1.5,0.0,1.0,4.5,1.25,0.25,0.0,1.0,5.25,2.0,3.25,3.75,-0.73,0.2,0.89,284.92,1.3,-27.7
0.3,2.0,1.5,4.5,3.25,4.25,4.75,5.0,5.75,4.5,6.25,5.0,6.75,7.0,-0.11,-0.05,0.95,914.84,2.6,-25.0,0.5,0.5,0.5,0.0,1.5,0.75,0.5,0.0,1.0,5.75,4.5,5.25,5.75,0.14,0.14,1.89,318.89,1.4,-67.1
0.32,2.0,0.5,4.5,3.25,4.5,5.0,5.25,5.75,4.75,6.25,5.0,6.0,6.75,-0.11,-0.05,0.95,893.22,2.3,-25.0,0.5,0.5,0.0,0.5,1.25,3.5,0.0,0.0,0.75,7.5,5.0,6.25,7.0,0.2,0.58,1.83,381.48,4.5,-64.6
0.34,2.5,1.75,4.5,3.25,4.75,5.5,5.25,5.75,4.75,6.25,5.0,5.75,6.5,-0.11,-0.05,0.95,901.65,2.6,-19.8,1.25,0.5,0.0,0.0,0.0,3.75,0.0,0.0,0.0,8.25,6.25,6.5,7.75,-0.05,0.08,1.33,451.31,4.4,-70.0
0.36,2.75,1.75,4.5,3.25,5.0,5.75,5.25,5.75,5.0,5.75,5.25,5.75,6.0,-0.11,-0.05,0.95,912.55,3.0,-17.8,2.0,1.5,0.25,1.25,1.75,5.5,0.5,0.0,2.0,8.0,6.5,6.5,7.75,0.14,0.08,1.08,550.92,1.9,-46.8
0.38,3.25,1.75,4.5,3.25,5.25,6.0,5.5,6.25,5.25,5.0,5.0,5.25,6.0,-0.11,-0.11,0.95,917.84,3.2,-14.8,0.75,0.75,0.5,1.0,5.0,4.75,0.5,5.5,1.5,8.0,6.5,6.25,7.5,0.2,0.02,0.89,650.57,4.6,-44.6
0.4,3.25,1.75,4.5,4.75,5.5,6.5,6.0,6.5,5.5,5.0,5.0,5.0,5.25,-0.11,-0.05,0.95,931.8,3.6,-10.8,0.75,1.75,0.0,1.25,2.75,5.5,0.5,0.0,2.0,8.75,6.0,6.0,8.0,0.2,0.02,0.89,702.88,3.7,-47.7
0.42,4.0,1.75,4.5,5.25,6.25,7.0,6.25,6.75,5.5,5.0,4.0,3.5,5.0,-0.11,-0.05,0.95,951.53,3.6,-4.0,2.0,1.75,1.0,3.25,5.0,6.5,1.5,0.0,2.0,8.5,6.0,6.0,7.5,0.2,0.02,0.95,759.08,0.9,-29.5
0.44,4.5,1.75,4.5,5.5,7.5,7.5,6.75,6.75,5.5,4.75,3.0,3.25,3.5,-0.11,-0.11,0.95,974.79,4.0,3.2,1.5,1.0,0.5,2.0,5.25,6.25,1.5,6.0,2.5,7.5,5.25,5.0,6.5,0.2,0.02,0.95,786.72,3.8,-32.1
0.46,4.25,2.0,5.0,7.0,8.0,8.0,7.25,6.75,5.25,4.75,3.25,3.0,3.25,-0.11,-0.05,0.95,1020.14,4.4,6.5,2.25,1.75,0.5,3.25,5.5,7.0,1.5,5.5,2.75,7.75,5.25,4.75,6.5,0.2,0.02,0.95,825.42,2.7,-24.8
0.48,6.0,2.75,6.0,8.5,9.25,8.75,7.75,6.75,5.0,4.25,3.0,2.0,3.25,-0.11,-0.05,1.02,1105.68,5.6,15.6,2.25,1.75,0.5,3.25,6.75,7.75,1.5,0.0,2.5,6.75,5.0,3.5,5.5,0.2,0.02,0.95,801.52,1.4,-14.3
0.5,7.0,3.5,7.5,10.0,11.5,9.0,8.5,6.75,4.75,3.5,2.75,2.0,3.0,-0.11,-0.05,1.08,1240.81,6.9,22.4,2.5,1.75,0.5,3.5,7.0,8.0,1.5,0.0,2.25,6.25,4.0,2.5,4.0,0.2,0.02,0.95,758.41,1.2,-4.9
0.52,8.25,3.5,7.5,11.0,12.0,9.0,8.5,6.75,4.5,3.0,2.75,2.0,3.25,-0.17,-0.05,1.14,1355.17,7.5,24.5,2.5,2.25,0.5,2.0,8.0,8.25,1.5,0.0,2.0,5.5,3.75,2.25,2.5,0.2,0.08,0.95,687.57,1.4,2.3
0.54,9.0,2.5,6.75,12.0,13.5,9.0,7.75,6.25,3.75,2.75,1.25,2.0,2.75,-0.17,0.02,1.08,1417.7,7.4,29.1,3.25,2.0,0.5,3.5,8.25,8.5,1.75,0.0,2.0,5.25,3.5,1.25,2.5,0.2,0.08,0.95,641.99,0.4,9.6
0.56,10.5,2.75,8.25,12.5,13.5,8.25,7.25,5.75,3.25,2.5,2.5,2.0,2.0,-0.17,0.02,1.39,1462.18,9.2,32.2,2.75,2.25,0.5,5.0,9.0,8.75,1.5,0.0,2.0,5.25,2.75,1.25,2.25,0.2,0.08,0.95,621.17,0.4,14.0
0.58,11.5,2.25,8.5,9.25,12.5,7.25,6.25,5.5,2.5,2.75,2.25,1.75,1.75,-0.23,0.14,1.7,1437.15,9.8,33.1,3.25,2.5,0.75,5.5,9.5,8.75,1.5,0.0,1.75,5.0,2.75,1.25,2.25,0.2,0.08,0.95,631.64,-0.3,17.4
0.6,11.5,3.5,8.5,8.75,11.0,6.0,4.75,4.75,1.75,2.5,2.0,1.75,1.5,-0.55,0.2,2.14,1377.01,10.9,36.6,3.75,2.5,0.75,5.75,10.5,9.0,1.5,0.0,1.5,5.0,2.25,1.25,2.25,0.2,0.08,0.95,652.69,-0.4,20.7
0.62,10.5,3.5,7.75,5.5,7.75,4.5,4.75,3.75,1.5,2.5,1.75,1.75,2.0,-0.67,0.45,2.2,1218.35,11.8,33.7,3.75,2.75,1.75,5.75,11.0,9.25,1.5,0.0,1.5,4.75,2.25,1.0,2.25,0.2,0.08,0.95,686.32,-1.1,23.6
0.64,7.0,1.75,5.25,4.75,5.5,2.25,2.5,1.75,0.25,0.0,0.25,0.25,1.25,-0.86,0.27,2.14,888.95,14.7,50.2,4.0,3.0,2.75,7.25,11.5,9.25,1.5,0.0,1.5,4.75,2.0,1.25,2.0,0.2,0.08,0.95,741.95,-2.6,26.9
0.66,4.25,0.25,3.0,1.75,0.5,0.0,2.5,0.25,0.25,0.0,0.25,0.25,0.0,-0.73,0.08,1.83,500.28,27.9,59.4,5.25,3.25,2.75,7.5,12.5,9.5,1.5,0.0,1.5,4.25,2.5,1.25,1.75,0.14,0.14,0.95,802.59,-3.5,30.2
0.68,1.75,1.0,0.5,1.0,0.0,0.25,0.0,0.0,0.25,0.0,0.0,0.25,0.25,-0.17,-0.42,1.27,235.92,19.9,56.9,5.5,3.25,3.0,7.75,12.5,9.0,1.5,0.0,1.5,4.0,2.25,1.0,2.0,0.14,0.14,0.95,857.88,-4.0,31.7
0.7,1.75,1.0,3.0,2.25,0.5,0.25,1.25,1.0,0.75,0.0,1.5,0.25,1.0,-0.42,-0.98,2.08,88.37,16.9,23.2,6.25,3.25,3.25,9.25,13.5,9.5,1.5,0.0,1.25,4.0,1.5,1.0,2.25,0.14,0.14,0.95,924.78,-4.3,34.8
0.72,1.0,0.75,2.25,1.25,0.5,0.0,1.25,1.0,0.25,0.0,1.25,0.25,0.25,-0.67,-1.17,2.08,0.0,17.8,25.0,7.0,3.5,3.25,9.25,14.0,9.5,1.25,0.0,1.0,3.75,1.5,0.5,0.75,0.14,0.14,0.95,973.41,-5.1,42.2
0.74,0.75,0.25,2.0,0.25,0.0,0.25,0.25,0.75,0.25,0.5,0.0,0.25,0.0,-0.48,-0.8,0.39,0.0,17.5,26.4,7.5,4.0,4.0,10.5,14.0,9.5,1.25,0.0,1.0,3.5,1.75,0.5,2.25,0.14,0.2,0.95,1036.93,-5.7,39.8
0.76,0.25,0.25,1.75,0.5,0.0,0.25,0.0,1.0,0.25,0.0,0.5,0.25,0.0,-0.3,-0.61,0.14,0.0,15.4,16.7,8.0,4.75,5.5,11.0,14.0,9.25,0.75,0.0,1.0,3.5,1.5,1.0,2.0,0.14,0.2,0.95,1101.47,-7.0,41.5
0.78,0.0,0.0,1.75,0.5,0.0,0.25,0.25,1.0,0.0,0.0,0.0,0.25,0.0,-0.17,-0.48,0.2,0.0,15.7,21.7,8.5,4.5,5.5,11.0,14.0,9.5,1.0,0.0,0.75,3.25,1.5,1.0,2.0,0.14,0.27,1.02,1154.21,-7.2,42.4
0.8,0.25,0.25,1.25,0.0,0.0,0.25,1.0,0.75,0.0,0.0,0.0,0.25,1.0,-0.11,-0.42,0.45,0.0,10.2,-4.7,8.75,4.75,6.25,11.0,14.0,9.25,1.0,0.0,0.5,1.25,1.5,0.0,1.75,0.14,0.27,1.02,1168.61,-8.6,50.4
0.82,0.0,0.25,1.5,0.0,0.0,0.25,0.0,0.0,0.0,0.0,0.25,0.25,1.25,-0.11,-0.48,0.95,0.0,11.5,-15.5,9.25,4.75,7.0,11.0,14.5,8.5,0.5,0.0,0.0,2.25,1.25,0.25,2.0,0.27,0.33,1.14,1177.83,-8.8,49.1
0.84,0.0,0.25,1.5,0.0,0.0,0.25,0.0,0.0,0.0,0.0,0.0,0.25,1.25,-0.17,-0.42,0.95,0.0,11.6,-11.4,8.75,4.25,6.5,11.0,12.5,8.0,0.5,0.0,0.0,0.25,0.75,0.25,0.5,0.33,0.33,1.2,1109.54,-10.6,58.2
0.86,0.5,0.25,1.25,0.5,0.0,0.25,0.0,0.0,0.0,0.0,0.0,0.25,1.25,-0.11,-0.23,1.02,0.0,13.2,4.5,9.0,4.75,7.0,11.0,11.0,7.5,0.5,0.0,0.25,0.5,0.5,0.0,0.75,0.39,0.39,1.33,1040.07,-11.5,58.6
0.88,0.0,0.25,1.5,0.25,0.0,0.0,0.0,0.0,0.0,0.0,0.0,0.25,1.25,-0.11,-0.11,1.08,16.03,14.3,-9.3,8.75,3.5,7.0,10.5,11.0,6.5,1.0,0.0,0.25,0.5,0.0,0.0,0.5,0.52,0.52,1.58,947.47,-12.2,59.9
0.9,0.0,0.25,1.75,0.0,0.0,0.25,1.25,0.0,0.0,0.0,0.0,0.25,1.25,-0.11,0.02,1.39,43.76,15.9,-1.9,8.25,3.25,7.0,9.25,8.75,5.75,1.25,0.0,0.25,0.5,0.0,0.0,0.25,0.89,0.7,1.89,844.92,-13.4,61.0
0.92,0.0,0.25,1.75,0.0,0.0,0.25,1.25,0.0,0.0,0.0,0.0,0.25,0.75,-0.23,0.14,1.58,48.88,19.8,12.1,6.75,2.0,5.5,6.75,7.0,5.5,1.0,0.0,0.25,0.75,0.0,0.0,0.5,0.77,0.77,2.27,698.36,-12.0,57.0
0.94,1.75,0.5,1.75,1.75,0.0,1.5,1.25,0.0,0.25,1.25,0.0,1.75,0.75,-0.36,0.27,2.02,90.71,11.8,9.4,5.5,1.75,3.25,5.5,5.25,5.0,0.5,0.0,0.75,2.25,0.0,1.0,0.25,0.64,0.58,2.02,549.96,-9.2,43.9
0.96,1.75,0.75,3.0,1.25,0.75,1.5,2.0,1.0,0.25,1.0,0.5,1.75,1.75,-0.61,0.52,2.27,155.67,10.4,4.4,2.0,1.75,0.75,3.5,5.25,3.75,0.75,0.0,0.75,2.25,0.25,1.0,0.75,0.39,-0.42,1.95,391.73,-2.8,28.8
0.98,1.75,0.75,3.0,1.25,0.75,1.5,2.0,0.5,0.25,1.0,1.0,1.75,1.25,-0.73,1.27,2.58,206.9,12.0,7.0,1.25,1.75,0.5,3.25,5.25,3.5,0.5,0.0,0.75,2.25,0.0,1.0,1.0,0.45,-0.17,0.77,291.36,-1.0,25.3
1.0,1.75,0.5,2.75,0.75,0.75,0.5,2.0,1.0,0.25,1.25,0.5,1.75,1.25,-0.8,2.2,2.58,228.2,12.2,0.4,1.25,1.75,0.5,3.25,5.0,3.5,0.5,0.25,0.75,2.25,0.25,1.0,1.0,1.27,-1.48,2.33,237.14,-1.0,23.0
1.02,1.25,0.75,3.0,1.5,0.75,0.75,2.0,1.0,0.25,1.0,1.0,1.75,1.5,-0.86,3.52,1.58,241.2,11.7,0.5,2.0,2.0,0.5,3.25,5.0,3.5,0.5,1.75,0.75,2.25,0.0,1.0,1.0,0.83,-0.86,1.2,222.19,-0.9,23.2
1.04,1.25,0.5,3.0,0.75,0.75,0.75,2.0,1.0,0.25,1.25,0.75,0.25,1.25,-0.86,4.7,-0.42,233.31,11.6,10.0,2.0,2.0,0.5,3.25,5.0,3.5,0.5,1.75,0.75,2.25,0.0,1.0,0.0,0.33,-0.55,0.33,221.87,-1.5,29.1
1.06,1.25,0.75,1.75,0.75,0.5,0.25,1.25,1.0,0.0,0.5,0.0,1.75,1.0,0.52,5.64,-1.17,213.87,11.9,2.0,2.0,1.75,0.5,3.25,5.0,3.25,0.5,1.75,0.75,2.25,0.0,1.0,1.25,0.02,-0.36,0.2,234.17,-0.8,20.8
1.08,1.25,0.5,2.75,0.75,0.5,1.5,1.75,1.25,0.25,1.5,1.25,2.75,1.5,1.27,1.14,1.08,219.57,8.2,-14.8,1.75,1.75,0.5,3.0,5.0,3.25,0.5,1.5,0.75,2.25,0.0,1.0,0.75,-0.17,-0.23,0.52,244.36,-0.8,23.2
1.1,1.75,0.5,2.25,1.75,0.75,1.25,1.25,2.25,0.25,1.25,1.75,3.5,5.25,0.45,-0.05,0.64,252.17,4.0,-31.5,2.0,1.75,0.5,2.75,5.0,3.25,0.5,1.75,0.75,2.25,0.0,1.0,1.25,-0.23,-0.3,0.77,254.56,-0.4,19.9
1.12,0.0,0.25,2.75,0.5,0.5,1.5,1.5,2.75,1.0,2.0,2.0,5.75,5.5,-0.17,0.14,2.2,295.95,1.5,-53.7,1.75,1.75,0.5,2.5,5.0,3.25,0.25,2.0,0.75,2.25,0.0,1.0,1.0,-0.05,-0.23,0.83,264.54,0.2,19.5
1.14,0.0,0.0,1.75,1.5,0.0,1.5,0.75,3.0,1.25,4.5,1.25,6.75,7.0,-1.05,0.7,4.45,358.22,-1.9,-64.3,2.0,1.5,0.5,2.0,5.0,3.25,0.5,1.75,0.75,2.25,0.0,1.0,1.0,0.02,-0.17,0.89,275.18,0.0,19.2
1.16,0.0,0.0,0.5,3.0,0.0,3.25,0.5,3.25,2.25,5.75,4.0,7.5,7.75,-0.36,0.02,1.27,452.69,-2.8,-61.6,1.75,1.75,0.5,2.0,5.0,3.25,0.5,1.25,0.75,2.25,0.0,1.0,1.0,0.02,-0.11,1.08,282.98,0.0,20.6
1.18,0.0,0.0,0.0,2.25,0.75,2.75,1.0,3.5,1.75,5.0,2.75,6.75,7.0,-0.11,0.08,1.02,500.91,-4.0,-61.1,1.25,1.5,0.5,2.0,5.0,3.25,0.5,1.5,0.75,2.25,0.0,1.0,0.75,0.08,0.02,1.27,284.72,0.9,18.8
1.2,0.0,0.25,1.75,2.25,0.0,2.75,2.75,4.75,2.5,5.0,3.25,7.5,7.5,-0.17,-0.05,0.95,565.81,-0.9,-55.7,1.0,1.5,0.5,2.0,5.0,2.75,0.5,1.75,0.75,2.25,0.0,1.0,1.0,0.2,0.2,1.52,283.97,1.1,15.2
1.22,0.75,0.25,2.0,2.25,0.5,3.5,3.25,5.25,3.5,6.75,3.25,7.5,7.75,-0.17,-0.05,0.89,639.19,-0.9,-49.9,1.0,1.5,0.25,2.0,5.0,2.75,0.5,1.75,0.25,1.0,1.75,0.0,1.0,0.39,0.33,1.95,275.06,0.5,20.4
1.24,1.75,0.25,4.25,3.25,3.75,5.0,4.5,6.0,3.75,7.5,5.75,8.0,8.75,-0.17,-0.05,0.95,793.76,1.1,-35.0,0.75,0.5,0.0,0.5,1.25,1.25,0.0,0.25,0.0,0.75,0.0,0.0,0.5,0.45,0.89,2.45,212.85,2.5,24.5
1.26,2.25,0.0,3.75,3.25,4.25,5.75,4.5,6.75,4.0,7.5,5.75,7.75,8.5,-0.11,-0.05,0.95,929.45,0.5,-33.2,0.0,0.5,0.0,0.75,1.25,1.25,0.0,0.25,0.0,1.0,0.0,0.0,0.25,0.52,1.58,2.77,146.37,6.4,18.5
1.28,2.0,1.25,4.25,3.25,5.0,5.75,4.75,6.75,4.25,7.5,4.75,7.5,8.25,-0.11,-0.05,0.95,1047.37,0.9,-27.7,0.5,0.25,0.0,0.25,1.25,1.25,0.0,0.75,0.25,1.5,0.0,0.0,0.0,0.58,2.7,2.58,86.89,6.6,8.5
1.3,2.25,1.25,4.5,3.25,5.25,6.0,4.0,6.75,4.25,7.25,4.5,7.0,7.5,-0.11,-0.05,0.95,1091.14,1.0,-24.5,0.25,0.25,0.0,0.75,1.25,1.25,0.0,0.25,0.0,1.5,0.0,0.0,0.25,0.52,3.7,1.45,54.81,6.4,10.1
1.32,2.0,1.25,4.5,3.25,5.25,6.0,4.0,6.75,4.25,6.5,4.75,6.75,7.5,-0.11,-0.05,0.95,1081.42,1.1,-24.2,0.5,0.0,0.0,0.5,1.25,1.0,0.0,0.25,0.0,2.25,0.0,0.75,0.0,-0.3,5.58,-0.67,43.71,5.1,-11.4
1.34,2.5,1.25,4.5,3.25,5.25,6.25,4.75,6.75,4.25,6.25,4.75,5.75,6.75,-0.17,-0.05,0.95,1048.67,1.6,-20.0,1.0,1.5,0.0,1.0,1.5,2.25,0.5,0.75,0.5,2.75,0.0,1.25,0.0,-5.11,6.14,-0.98,81.46,1.1,6.5
1.36,3.25,1.25,4.5,3.25,5.25,7.0,5.25,6.75,4.25,5.75,4.0,5.0,6.5,-0.11,-0.05,0.95,1020.03,1.8,-15.1,1.0,1.75,0.0,1.25,3.5,2.0,0.5,1.75,0.75,3.75,1.5,1.75,2.0,1.39,-1.11,2.83,156.11,2.1,-12.5
1.38,3.25,1.5,4.5,3.25,5.5,7.0,5.25,6.75,4.5,5.0,4.25,5.0,5.25,-0.11,-0.05,0.95,990.17,2.5,-11.8,1.0,1.5,0.0,1.75,1.25,3.0,0.0,1.5,0.75,4.75,0.0,2.5,2.5,0.14,0.33,0.08,211.26,4.3,-23.0
1.4,3.5,1.75,4.5,3.5,6.5,7.25,5.5,6.75,4.75,5.0,4.0,3.5,5.0,-0.11,-0.05,0.95,970.27,2.5,-6.0,0.75,0.5,0.0,0.75,1.25,0.5,0.0,0.0,0.75,6.5,3.0,5.25,4.75,0.64,0.77,3.52,273.07,2.2,-65.8
1.42,2.5,1.75,4.5,5.25,6.5,7.25,5.5,6.75,4.75,5.0,3.75,3.25,3.75,-0.11,-0.05,0.95,955.09,2.7,-2.6,0.5,0.25,0.0,0.5,1.25,3.75,0.0,0.0,1.25,7.0,5.5,5.75,6.25,0.02,0.08,1.33,350.68,4.1,-63.0
1.44,3.5,1.75,4.5,5.25,7.5,8.0,6.0,6.75,4.75,4.75,3.5,3.25,3.5,-0.11,-0.05,0.95,950.97,3.0,1.5,0.75,0.5,0.0,0.5,1.25,3.75,0.5,0.0,1.0,7.75,5.5,6.0,6.5,0.02,0.02,1.02,434.73,3.8,-61.2
1.46,4.0,1.75,4.5,5.5,7.5,8.0,6.25,6.75,4.75,4.75,2.75,2.75,3.5,-0.11,-0.05,0.95,945.81,3.2,4.4,2.0,1.75,0.0,2.75,2.25,5.25,0.5,4.75,1.5,7.75,6.75,6.0,8.25,0.14,0.02,0.95,591.23,3.0,-41.8
1.48,4.75,1.75,4.5,5.5,8.5,8.0,6.5,6.5,4.5,4.5,2.75,2.0,3.25,-0.11,-0.05,0.95,949.6,3.7,9.0,0.75,0.75,0.5,1.0,5.0,4.5,1.5,4.75,2.5,7.75,7.25,6.75,8.0,0.2,0.02,0.95,739.99,3.3,-45.8
1.5,5.5,1.75,5.0,7.0,9.0,8.75,6.75,6.5,4.25,4.0,2.75,2.0,3.0,-0.11,-0.05,0.95,988.47,4.5,13.6,2.0,0.75,0.25,1.0,3.0,5.0,1.0,4.75,2.0,7.75,6.25,6.0,7.5,0.14,0.02,0.89,818.85,3.5,-45.0
1.52,5.75,2.25,6.0,7.0,9.5,8.25,7.0,6.25,4.25,3.25,2.75,1.75,2.75,-0.11,-0.05,0.95,1031.46,5.8,17.8,2.0,1.0,0.0,1.0,4.25,5.5,1.0,5.75,2.75,8.25,6.25,6.75,7.5,0.14,0.02,0.95,871.83,3.8,-42.4
1.54,6.0,1.75,6.0,8.75,11.5,9.0,7.75,6.5,4.25,2.75,2.75,1.75,2.5,-0.11,-0.05,1.02,1104.98,5.8,20.9,2.0,1.75,0.5,3.25,5.25,6.0,1.5,6.25,3.0,8.75,7.5,6.5,8.0,0.14,0.02,0.95,943.63,2.3,-34.2
1.56,7.75,3.0,7.25,10.0,12.5,9.5,8.0,6.5,4.25,3.0,2.5,2.0,2.5,-0.11,-0.05,1.02,1228.88,6.9,25.4,2.5,1.75,0.5,3.25,5.25,6.25,1.75,6.25,3.25,8.25,7.25,6.0,7.5,0.14,0.02,0.95,984.76,1.9,-31.0
1.58,8.75,3.5,6.5,11.0,13.5,9.75,8.0,6.25,3.75,2.75,1.5,1.75,2.25,-0.11,-0.05,1.02,1334.87,7.0,30.4,2.0,1.5,1.0,3.25,6.5,6.5,2.25,6.25,2.75,7.0,6.5,5.5,7.0,0.14,0.02,0.95,988.99,1.9,-26.1
1.6,10.5,3.25,8.5,13.0,14.5,9.75,8.0,6.0,3.5,2.75,2.25,2.0,2.25,-0.05,0.08,1.02,1444.05,8.5,32.3,2.5,2.0,1.0,3.25,6.75,7.0,2.25,6.25,3.25,7.25,6.0,4.25,6.25,0.14,0.02,0.95,979.74,1.8,-20.1
1.62,11.5,4.25,8.75,13.0,15.0,9.75,8.0,5.75,3.0,2.5,1.5,1.75,2.0,-0.17,0.08,1.14,1527.46,9.0,36.8,3.0,1.75,2.75,3.5,7.0,7.5,2.25,6.0,3.25,6.5,4.75,3.75,5.25,0.14,0.02,0.95,959.8,0.2,-11.5
1.64,13.5,3.5,9.75,13.0,14.5,8.0,6.75,5.25,2.0,2.75,1.5,1.75,1.5,-0.23,0.2,1.52,1572.34,10.7,39.9,3.5,2.25,2.75,4.0,7.75,7.75,2.75,6.0,3.25,6.0,4.25,2.5,4.0,0.14,0.02,0.95,930.77,-0.4,-2.0
1.66,14.0,5.0,10.5,11.5,12.5,7.25,6.25,4.75,1.75,2.5,1.75,1.75,1.5,-0.42,0.27,1.95,1568.37,11.9,41.6,3.75,2.25,3.0,5.5,8.25,7.75,2.75,6.0,2.75,5.25,3.25,2.25,3.0,0.14,0.02,0.95,908.13,-1.3,6.0
1.68,14.0,4.5,9.5,8.5,10.0,5.75,6.5,4.0,1.25,2.5,1.25,1.75,1.5,-0.61,0.52,2.2,1482.59,13.0,42.1,3.75,2.5,3.0,5.75,9.25,8.0,2.75,5.75,2.75,5.25,2.25,1.5,2.75,0.14,0.02,0.95,894.37,-1.1,11.6
1.7,9.25,2.25,8.5,4.0,7.25,1.75,6.0,3.0,0.5,0.0,1.5,0.25,1.5,-0.92,0.64,2.39,1215.71,16.5,45.7,4.5,2.75,3.0,7.25,9.5,8.25,2.75,5.5,2.25,5.0,2.25,1.25,2.5,0.14,0.02,0.95,889.56,-2.0,16.8
1.72,6.75,0.75,6.0,2.25,3.0,1.75,3.75,0.0,0.25,0.0,0.0,0.25,1.25,-0.98,0.39,2.33,785.1,20.7,54.2,4.25,3.0,3.0,7.5,11.0,8.5,2.75,5.5,2.0,5.0,2.25,1.25,2.25,0.14,0.08,0.95,913.17,-1.7,18.9
1.74,3.5,0.25,3.0,1.75,0.0,0.0,1.25,0.0,0.0,0.0,0.0,0.25,0.75,-0.73,-0.23,1.95,389.96,27.6,54.0,5.0,3.25,3.25,8.25,11.0,8.75,2.75,5.25,2.0,5.0,2.25,1.25,2.25,0.14,0.08,0.95,952.73,-2.5,21.2
1.76,3.25,1.0,0.0,3.25,0.75,2.25,1.75,1.0,0.25,1.25,0.75,1.5,1.5,-0.11,-0.17,2.58,218.17,6.8,11.7,5.5,3.25,3.75,9.25,12.5,8.5,2.25,4.75,1.75,4.75,2.25,1.25,2.25,0.14,0.08,0.95,997.1,-3.3,24.6
1.78,2.25,1.25,3.0,3.75,0.75,2.0,2.5,1.0,0.25,0.5,1.25,1.5,1.5,-1.05,-1.23,2.64,121.92,12.3,18.7,5.75,3.25,4.0,9.25,12.5,8.75,2.25,0.0,1.5,4.25,2.25,1.0,1.75,0.14,0.14,0.95,997.43,-5.4,33.3
1.8,1.75,0.75,3.0,3.0,0.75,1.75,2.25,1.0,0.25,0.5,1.25,1.75,1.25,-0.86,-0.92,1.02,86.18,12.2,12.5,7.0,3.5,4.75,11.0,13.5,8.75,1.75,0.0,1.5,4.25,2.25,1.25,1.75,0.14,0.14,0.95,1037.25,-6.5,35.7
1.82,0.75,0.25,0.5,0.25,0.0,0.75,1.25,0.0,0.0,0.0,0.0,0.25,0.0,-0.48,-0.61,0.27,0.0,17.4,46.7,7.5,3.75,5.0,11.0,14.0,8.75,1.5,0.0,1.5,3.75,2.0,0.5,2.0,0.14,0.14,1.02,1064.55,-6.8,39.2
1.84,0.25,0.25,1.75,1.75,0.0,1.75,1.25,0.5,0.25,0.0,0.0,1.5,0.5,-0.3,-0.48,0.08,0.0,10.3,9.6,8.25,4.0,5.25,11.5,14.0,9.0,1.5,0.0,0.75,2.25,1.75,0.5,2.0,0.14,0.2,1.02,1093.51,-7.7,44.5
1.86,1.5,0.5,3.25,1.0,0.75,1.5,2.25,1.0,0.25,0.0,0.75,0.5,1.5,-0.17,-0.42,0.33,0.0,13.0,18.2,8.5,5.0,5.5,11.5,15.0,9.0,1.0,0.0,0.0,2.25,1.5,1.0,2.0,0.14,0.2,1.02,1124.4,-7.6,46.1
1.88,0.5,0.25,1.75,0.0,0.5,0.0,1.25,0.0,0.0,0.0,0.0,0.25,1.0,-0.17,-0.42,0.77,0.0,18.9,17.6,8.0,3.0,5.5,12.0,15.5,8.5,0.75,0.0,0.75,2.0,1.75,0.5,2.0,0.2,0.27,1.08,1133.47,-7.6,44.5
1.9,0.25,0.0,1.25,0.0,0.0,1.75,1.25,0.5,0.25,0.0,0.0,1.5,1.0,-0.23,-0.42,0.89,0.0,4.6,-18.7,9.0,3.25,5.0,11.5,13.0,8.5,0.0,0.0,0.0,1.0,1.0,1.0,2.0,0.39,0.33,1.2,1090.89,-8.4,48.3
1.92,0.0,0.0,0.25,0.0,0.5,0.0,1.25,0.5,0.0,0.0,0.0,0.25,0.75,-0.3,-0.23,0.89,0.0,3.5,-23.1,9.5,4.75,5.75,12.5,14.0,8.5,0.25,0.0,0.75,2.25,2.0,1.0,2.25,0.39,0.33,1.33,1107.27,-8.6,44.4
1.94,0.75,0.25,1.5,0.0,0.0,0.25,1.25,0.5,0.25,0.0,0.0,0.25,0.75,-0.3,-0.05,0.95,17.69,17.0,14.0,9.5,4.75,5.5,12.0,11.0,8.0,0.25,0.0,0.25,2.0,0.25,0.25,0.5,0.45,0.39,1.45,1053.33,-10.1,55.7
1.96,0.0,0.25,1.25,1.0,0.0,0.0,1.5,0.5,0.0,0.0,0.0,0.0,0.75,-0.3,0.08,1.08,28.19,16.3,17.4,8.0,3.25,5.5,9.25,9.75,6.5,0.5,0.0,0.25,0.5,0.0,0.25,0.25,0.77,0.77,1.89,933.65,-11.3,59.5
1.98,0.0,0.25,1.75,0.25,0.5,0.25,1.25,0.0,0.0,0.0,0.0,0.25,1.0,-0.36,0.2,1.52,44.76,15.3,13.0,7.0,2.5,5.5,7.5,8.25,5.75,1.0,0.0,0.25,0.5,0.0,0.0,0.25,0.77,0.95,2.52,770.91,-11.8,59.5
2.0,1.5,0.75,1.75,1.75,0.75,0.0,2.5,1.0,0.25,0.5,0.75,1.0,1.5,-0.48,0.27,1.77,85.23,13.1,6.9,5.5,1.5,3.0,5.25,6.75,0.0,0.5,0.0,0.25,0.5,0.0,0.0,0.5,0.95,0.58,2.33,551.27,-15.5,60.3
2.02,1.75,0.0,3.0,0.25,1.25,0.0,2.5,1.0,0.0,0.0,1.25,0.25,1.25,-0.8,0.64,2.39,122.46,17.1,15.3,1.75,1.0,0.5,0.0,5.25,3.25,0.5,0.0,0.0,0.5,0.0,0.0,0.25,0.7,0.08,2.14,336.86,0.3,49.8
2.04,1.25,0.25,1.75,1.75,0.5,0.25,1.25,0.25,0.25,0.0,0.0,1.75,0.75,-1.11,1.52,3.08,149.39,16.9,12.2,0.0,1.5,0.0,0.0,4.5,2.0,0.25,0.0,0.25,1.25,0.0,0.0,0.0,0.08,-0.23,0.58,193.86,5.2,38.5
2.06,0.0,0.0,3.0,0.25,1.25,0.0,1.5,0.25,0.0,0.0,0.5,1.75,1.25,-1.23,2.77,3.2,157.89,15.1,-8.4,0.5,1.0,0.0,0.0,4.75,1.25,0.0,0.0,0.25,0.75,0.0,0.0,0.0,0.39,-0.73,2.08,82.66,2.6,45.3
2.08,1.75,0.5,2.75,1.5,1.25,0.25,2.25,1.0,0.0,0.0,1.25,1.5,1.5,-1.3,4.08,1.89,176.1,14.5,8.6,1.25,2.0,0.5,2.0,5.0,2.5,0.5,1.25,0.75,2.25,1.25,1.0,0.25,0.83,-1.36,2.14,76.29,-1.3,18.7
2.1,1.75,0.5,2.25,0.25,0.75,0.25,2.25,1.0,0.0,0.0,1.0,0.0,1.5,-0.23,5.95,-0.8,176.2,14.9,16.3,1.75,1.75,0.5,1.75,5.25,1.0,0.5,0.5,0.75,2.25,1.25,1.0,0.25,0.77,-0.86,0.89,97.63,-4.2,20.7
2.12,0.0,0.5,1.75,0.5,0.0,1.0,1.25,1.0,0.0,0.0,0.0,0.25,0.25,1.7,7.39,1.64,164.31,10.9,24.7,2.0,1.75,0.25,3.25,5.0,1.25,0.5,0.25,0.75,2.25,1.5,1.0,1.0,0.33,-0.55,0.39,150.82,-4.6,18.3
2.14,1.75,0.75,1.75,0.5,0.0,0.5,1.25,1.0,0.0,0.0,0.0,0.25,1.25,-1.42,-1.86,1.83,150.96,14.5,24.1,0.5,0.5,0.5,1.0,5.0,1.0,0.5,0.25,0.0,1.0,0.25,0.0,0.0,0.02,-0.36,0.39,137.1,-0.9,39.3
2.16,0.0,0.25,2.75,0.75,0.5,1.5,2.0,2.0,0.25,2.25,0.0,3.25,3.25,0.89,0.52,-0.05,181.43,2.1,-35.2,0.5,0.75,0.0,0.75,1.25,1.0,0.0,0.25,0.25,1.25,0.0,0.0,0.0,-0.11,-0.17,0.64,94.97,1.2,26.5
2.18,0.5,0.0,2.5,0.0,0.5,1.0,1.25,3.0,0.75,3.5,1.75,5.0,5.25,-0.36,0.08,1.77,242.46,0.1,-57.0,0.5,0.75,0.0,0.5,1.25,0.75,0.0,0.25,0.0,0.75,0.0,0.0,0.0,-0.11,-0.17,0.77,51.73,0.3,38.1
2.2,0.0,0.0,0.5,2.25,0.5,3.25,1.5,3.0,0.75,4.75,0.0,6.75,6.25,-1.3,0.89,2.95,315.15,-4.6,-56.2,0.0,0.25,0.0,0.5,1.25,2.0,0.0,0.0,0.25,1.5,0.0,0.0,0.0,0.08,-0.05,0.95,36.46,9.5,12.7
2.22,1.25,0.0,1.0,3.25,0.5,1.75,1.25,5.0,1.75,5.75,2.75,7.25,7.75,0.08,-0.05,1.2,432.46,-1.3,-53.8,0.25,0.5,0.0,0.5,1.25,1.0,0.0,0.0,0.25,1.0,0.0,0.0,0.5,0.08,0.02,1.14,36.37,4.1,13.3
2.24,0.75,0.0,1.75,1.25,0.5,1.75,1.25,5.0,1.75,5.0,2.75,6.75,7.5,-0.05,0.08,0.95,514.39,-1.7,-58.2,0.5,0.5,0.0,0.5,1.25,1.0,0.0,0.0,0.0,1.25,0.0,0.0,0.25,0.14,0.14,1.39,52.62,3.2,21.0
2.26,0.5,0.0,2.0,2.25,0.5,3.0,2.25,5.25,1.75,6.75,2.75,7.5,7.75,-0.23,0.02,0.95,606.67,-2.0,-53.7,0.5,0.0,0.0,0.5,1.25,0.75,0.0,0.0,0.25,1.0,0.0,0.0,0.0,0.27,0.33,1.64,55.71,1.8,21.0
2.28,0.0,0.75,1.75,2.5,0.5,3.5,3.25,5.75,1.75,7.0,3.0,7.5,8.0,-0.23,-0.05,0.95,672.72,-2.3,-51.1,0.5,0.5,0.0,0.5,1.25,1.0,0.0,0.0,0.5,0.75,0.0,0.0,0.0,0.39,0.45,1.95,52.22,0.0,31.3
2.3,0.5,0.0,1.75,2.0,0.5,4.5,3.25,5.75,2.75,8.75,4.0,8.25,8.25,-0.17,-0.05,0.95,757.93,-2.6,-53.9,0.5,0.5,0.0,0.75,1.25,1.0,0.0,0.0,0.0,1.25,0.0,0.25,0.0,0.64,0.95,2.33,49.03,1.3,22.9
2.32,1.75,0.5,3.5,2.75,3.5,4.5,3.75,6.75,3.0,8.0,5.5,8.25,9.5,-0.17,-0.05,0.95,876.03,-0.1,-39.3,0.25,0.5,0.0,0.75,1.25,0.75,0.0,0.0,0.0,0.75,0.0,0.0,0.25,0.83,1.58,2.58,43.41,1.7,28.9
2.34,1.75,0.75,3.5,2.25,3.5,5.0,3.75,6.75,3.0,7.75,5.25,8.25,9.0,-0.17,-0.05,0.95,977.26,-0.2,-38.0,0.5,0.5,0.0,0.5,2.25,1.0,0.0,0.25,0.0,1.0,0.0,0.0,0.25,1.08,2.77,2.64,61.21,3.3,28.2
2.36,2.0,0.25,3.75,1.75,3.5,5.0,3.75,6.75,3.25,7.75,4.75,7.5,8.5,-0.17,-0.05,0.95,1021.82,-0.2,-37.2,0.5,0.25,0.0,0.75,1.5,1.0,0.0,0.25,0.0,1.0,0.0,0.0,0.0,1.2,3.58,1.7,71.49,2.5,28.7
2.38,1.75,0.25,3.75,3.0,3.75,5.5,4.0,6.75,3.25,7.75,4.0,7.5,8.5,-0.17,-0.05,0.95,1016.95,-0.2,-34.0,0.5,0.5,0.0,0.75,1.25,1.0,0.5,0.25,0.0,0.75,0.0,0.0,0.0,0.64,4.58,-0.55,86.57,-0.3,35.5
2.4,2.0,0.25,4.25,3.25,4.75,5.5,4.25,6.75,3.25,7.5,3.75,6.25,8.0,-0.17,-0.05,0.89,983.73,0.2,-27.7,0.5,0.25,0.0,0.75,1.25,1.0,0.0,0.25,0.0,1.0,0.25,0.0,0.25,-0.98,5.52,-1.05,90.49,2.4,16.7
2.42,2.25,0.25,3.0,3.75,3.75,4.75,4.5,7.0,3.25,6.25,3.5,6.75,7.75,-0.17,-0.05,0.95,929.4,0.4,-29.9,0.0,0.0,0.0,0.75,0.0,1.0,0.0,0.25,0.25,1.75,0.25,0.0,0.0,-5.3,3.89,3.27,82.64,8.0,-21.8
2.44,2.75,0.25,4.25,2.5,4.75,5.5,4.5,6.5,3.0,6.25,3.0,5.75,6.25,-0.17,-0.05,0.95,876.63,1.1,-21.8,0.25,0.0,0.0,0.5,1.25,1.0,0.0,1.75,0.0,2.25,1.75,0.5,0.0,2.02,-1.23,1.83,98.29,5.4,-27.5
2.46,2.5,1.25,3.0,2.5,5.5,5.5,4.75,6.5,3.25,5.5,2.75,5.0,6.0,-0.11,-0.05,0.95,826.32,0.5,-18.0,0.0,0.0,0.0,1.0,1.25,1.25,0.0,1.75,0.25,3.0,1.25,0.5,0.5,0.08,0.27,0.08,121.88,7.0,-30.1
2.48,1.75,0.25,4.0,3.5,5.25,5.5,4.75,6.75,3.5,5.0,4.5,4.75,6.0,-0.11,-0.05,0.95,801.46,1.3,-20.2,0.0,0.75,0.0,0.5,1.25,2.25,0.0,1.5,0.0,5.75,1.5,4.0,2.75,0.7,0.33,1.7,193.52,6.7,-53.6
2.5,3.25,1.5,3.25,3.75,5.0,7.25,5.0,6.75,4.25,5.75,4.0,5.0,6.0,-0.11,-0.05,0.95,814.61,1.2,-15.0,0.0,0.25,0.0,0.75,1.25,3.25,0.0,0.0,0.0,7.75,3.5,5.75,5.5,0.33,0.45,1.52,279.88,6.0,-65.4
2.52,3.5,1.25,4.5,3.0,6.5,6.75,5.25,7.0,4.0,4.75,3.75,3.25,5.0,-0.11,-0.05,0.95,828.49,2.2,-6.6,0.0,0.0,0.0,0.75,1.25,3.75,0.0,0.0,1.0,8.0,5.5,6.0,7.5,0.02,0.14,1.27,388.11,5.3,-68.2
2.54,3.5,1.75,3.75,5.25,7.5,8.0,5.25,6.75,4.5,5.0,3.75,3.25,4.25,-0.11,-0.05,0.95,872.88,2.1,-1.2,2.0,1.75,0.25,2.75,4.25,5.75,0.5,0.0,1.5,8.5,5.75,6.5,7.75,0.2,0.02,0.89,549.23,1.9,-36.0
2.56,3.5,1.75,4.5,5.5,7.5,8.25,5.75,7.25,4.75,4.75,3.5,3.0,3.5,-0.11,-0.05,0.95,912.76,2.7,1.9,2.0,1.5,0.25,3.0,5.0,5.5,0.75,0.0,1.75,9.5,7.0,7.25,8.75,0.14,0.02,0.95,715.46,1.7,-39.0
2.58,3.0,1.75,4.5,5.5,8.75,8.5,6.25,7.25,4.5,4.75,2.75,2.25,3.25,-0.11,-0.05,0.95,956.45,2.2,5.6,0.5,0.5,0.5,1.0,5.0,5.5,1.25,0.0,1.5,8.5,7.0,6.25,8.5,0.2,0.02,0.89,802.06,3.5,-47.1
2.6,5.5,2.0,5.0,7.25,9.5,9.0,6.5,6.75,3.75,2.5,2.75,1.75,2.25,-0.11,-0.05,0.95,1000.31,4.9,19.0,2.0,1.75,0.0,3.25,4.25,6.0,0.75,0.0,2.0,9.0,6.0,6.5,8.0,0.2,0.02,0.95,854.34,1.9,-36.0
2.62,5.75,2.75,4.5,8.5,9.25,9.75,6.75,7.0,4.25,3.5,2.75,2.0,3.25,-0.17,-0.05,1.02,1072.8,4.3,16.2,1.0,0.75,0.5,1.0,5.0,5.75,1.5,0.0,1.75,8.25,6.25,6.0,7.75,0.2,0.02,0.95,840.82,3.0,-42.1
2.64,6.0,3.0,6.0,9.25,12.5,10.0,7.0,6.75,4.0,2.75,1.75,2.0,1.5,-0.17,-0.05,1.08,1168.01,5.5,26.1,1.75,1.25,0.0,3.25,5.0,6.5,1.0,0.0,2.25,8.5,6.75,6.0,7.5,0.2,0.02,0.95,839.52,2.0,-34.3
2.66,7.0,3.5,5.75,11.0,14.5,10.5,7.0,7.25,3.5,3.5,2.0,2.0,3.25,-0.17,-0.05,1.02,1313.44,4.8,24.5,1.25,1.75,0.5,1.0,5.5,6.0,1.5,6.5,2.0,8.75,6.5,6.0,8.0,0.2,0.02,0.95,865.58,4.3,-37.9
2.68,7.75,3.0,6.0,10.5,13.0,10.0,6.5,6.75,2.5,3.25,1.25,2.0,1.75,-0.17,0.02,1.02,1361.91,5.8,29.3,1.25,1.75,0.5,3.25,5.25,7.0,1.5,7.0,2.25,8.25,6.25,5.75,7.5,0.14,0.02,0.89,901.9,3.7,-31.8
2.7,8.5,3.25,6.0,11.5,13.5,9.75,5.5,6.25,2.5,2.75,0.5,2.0,1.25,-0.3,0.08,1.27,1385.95,6.5,34.1,2.25,1.75,0.5,3.25,6.0,7.0,1.5,6.75,2.5,7.75,5.5,5.0,6.75,0.2,0.02,0.95,912.35,3.1,-25.2
2.72,10.5,3.25,7.5,11.0,15.5,10.0,4.75,6.5,1.75,2.75,1.75,1.75,2.5,-0.3,0.08,1.33,1417.72,6.8,33.4,2.0,1.75,0.5,3.25,6.75,7.25,1.75,7.0,2.5,7.75,5.5,4.0,6.0,0.2,0.02,0.95,896.55,3.4,-21.6
2.74,11.5,3.5,7.5,11.0,14.5,9.5,4.25,6.0,1.75,2.5,1.75,1.75,1.75,-0.3,0.2,1.64,1433.93,7.9,36.4,2.25,1.75,0.5,3.5,6.75,7.75,2.0,7.0,2.75,6.75,4.5,3.75,5.5,0.2,0.02,0.95,866.04,3.1,-17.0
2.76,11.5,3.5,7.25,8.75,12.5,8.25,2.0,5.75,1.0,2.0,1.5,1.75,1.5,-0.73,0.27,1.77,1391.1,8.3,38.0,2.0,2.0,0.75,3.5,7.0,7.75,2.25,5.75,2.75,6.5,4.5,2.75,4.0,0.2,0.02,0.95,817.91,2.4,-10.6
2.78,10.5,3.5,6.0,5.75,9.25,7.25,2.5,4.75,1.0,0.5,1.25,1.25,1.5,-0.92,0.58,2.45,1240.95,9.2,40.7,2.25,2.25,1.5,4.0,8.25,8.25,2.25,6.75,2.75,6.0,4.0,2.5,3.5,0.2,0.02,0.95,803.59,1.8,-3.7
2.8,7.0,1.75,4.5,3.5,7.5,4.5,2.25,3.25,0.0,0.0,1.25,0.0,1.25,-0.98,0.33,2.39,930.2,9.3,43.7,3.0,2.5,1.75,5.5,8.25,8.5,2.25,6.5,2.25,5.5,3.25,2.0,3.0,0.2,0.02,0.95,810.41,0.7,4.4
2.82,5.0,0.5,3.0,1.75,0.75,1.25,0.0,1.0,0.25,0.0,0.25,0.0,0.0,-0.92,0.02,2.08,534.24,20.4,60.3,3.0,2.5,2.75,5.75,9.5,8.75,2.25,2.75,2.0,5.25,3.25,1.25,2.5,0.2,0.08,0.95,817.4,-1.1,13.8
2.84,1.75,0.25,1.75,1.5,0.0,1.0,0.0,1.0,0.0,0.0,0.25,0.0,0.0,0.14,-0.3,2.39,262.11,16.1,48.5,4.0,2.5,2.75,6.0,10.0,9.25,2.25,0.0,2.0,5.0,2.75,1.25,2.25,0.2,0.08,0.95,805.06,-2.6,21.1
2.86,1.5,0.25,1.75,1.75,0.0,1.5,0.0,1.0,0.0,0.0,0.0,0.0,0.0,-0.55,-1.05,2.45,82.9,13.4,50.3,3.5,3.0,2.75,7.5,11.0,9.5,2.25,6.25,2.0,5.0,2.25,1.25,2.25,0.2,0.08,0.95,852.69,-0.4,17.3
2.88,1.75,0.75,1.75,2.0,0.0,1.25,0.0,1.0,0.5,0.0,0.0,0.0,0.0,-0.92,-1.17,2.02,0.0,14.9,50.1,3.5,3.25,2.75,7.75,12.5,10.5,2.25,6.5,1.5,5.0,2.25,1.25,2.25,0.2,0.08,0.95,913.34,0.0,19.3
2.9,1.25,0.25,1.75,0.25,0.0,1.0,0.75,1.0,0.0,0.0,0.0,0.25,0.25,-0.73,-0.86,0.64,0.0,14.2,33.7,3.25,3.25,2.75,9.25,13.5,10.5,2.0,6.25,1.5,5.0,2.25,1.25,2.25,0.2,0.08,1.02,994.65,-0.2,20.8
2.92,1.25,0.25,1.75,0.25,0.0,0.25,1.25,0.5,0.0,0.25,0.0,0.25,0.25,-0.55,-0.55,0.27,0.0,21.1,35.0,5.0,3.5,3.0,9.75,14.0,10.5,1.5,0.0,1.5,5.0,2.0,1.25,2.0,0.14,0.14,1.02,1038.88,-3.1,31.1
2.94,1.0,0.25,1.75,0.25,0.0,1.5,0.75,0.5,0.25,0.5,0.0,0.5,0.25,-0.48,-0.42,0.14,0.0,10.8,21.4,5.5,4.0,2.75,11.0,15.5,11.5,1.5,0.0,1.25,4.25,2.0,1.25,2.25,0.14,0.14,1.08,1096.5,-3.1,34.2
2.96,1.75,0.75,3.0,1.75,0.5,1.5,1.25,1.0,0.25,2.0,1.25,1.25,1.5,-0.42,-0.36,0.45,0.0,9.2,1.7,6.5,3.0,2.75,11.0,15.5,11.0,1.0,0.0,0.75,2.5,2.0,0.5,1.5,0.2,0.2,1.14,1092.53,-4.2,41.6
2.98,1.75,0.75,3.0,1.75,0.75,1.5,1.25,1.0,0.25,1.75,1.0,0.75,1.25,-0.42,-0.36,0.64,42.22,9.8,10.1,6.75,0.75,1.5,11.0,14.5,10.5,0.5,0.0,0.5,3.0,1.75,1.0,1.25,0.45,0.2,1.27,1045.72,-3.3,38.0
3.0,1.75,0.75,3.0,1.25,0.75,2.75,1.25,1.0,0.25,1.75,1.0,0.25,1.5,-0.42,-0.23,0.77,129.85,6.9,12.1,7.0,3.25,0.5,9.5,14.0,9.75,0.0,0.0,0.25,2.5,2.0,0.5,1.75,0.52,0.27,1.33,978.33,-3.0,41.0
3.02,1.75,0.75,3.0,1.75,0.75,1.5,1.5,1.0,0.25,2.0,1.25,1.0,1.25,-0.42,-0.11,0.83,190.39,9.5,6.0,5.75,3.0,0.0,7.5,11.0,0.0,0.0,0.0,0.0,2.25,0.75,0.25,1.0,0.52,0.33,1.58,776.89,-8.4,48.1
3.04,1.75,0.5,3.0,1.75,0.75,1.75,2.0,1.0,0.25,2.0,1.25,1.0,1.25,-0.42,0.02,0.95,233.15,9.4,5.3,5.25,2.0,0.0,6.25,9.5,8.0,0.0,0.0,0.25,0.5,0.25,0.0,1.0,0.95,0.45,2.02,624.26,-2.4,50.7
3.06,1.75,0.75,3.0,2.25,0.75,1.5,1.75,1.0,0.25,2.25,1.25,0.75,1.25,-0.42,0.14,1.14,257.33,9.6,8.2,3.5,1.5,0.0,3.5,8.25,5.75,0.25,0.0,0.25,2.25,0.25,0.0,0.5,1.02,0.95,2.77,458.22,-0.3,42.1
3.08,1.75,0.5,3.0,2.25,0.75,1.5,1.75,1.0,0.0,1.75,1.0,1.0,1.25,-0.48,0.27,1.58,261.9,10.2,9.5,0.5,1.0,0.0,2.75,5.25,4.0,0.0,0.0,0.0,0.25,0.25,0.0,0.0,0.95,0.08,2.2,309.58,1.9,49.6
3.1,1.75,0.5,3.0,3.0,0.75,1.5,1.75,1.0,0.25,2.0,1.0,1.0,1.25,-0.73,0.45,1.89,265.98,10.2,9.7,0.0,0.75,0.0,1.0,5.0,0.0,0.0,0.0,0.0,1.25,0.0,0.25,0.0,0.64,-0.36,1.64,184.49,0.9,35.6
3.12,1.75,0.75,3.0,2.75,0.75,1.75,1.75,1.0,0.25,0.75,1.0,1.5,1.5,-1.05,0.77,1.89,266.11,11.1,11.6,0.75,0.5,0.0,1.25,4.25,1.25,0.0,0.25,0.25,1.25,0.0,1.0,0.0,0.08,0.27,2.14,95.37,0.1,24.2
3.14,1.75,0.5,3.0,2.75,1.25,1.0,1.75,1.0,0.0,1.25,0.5,1.0,1.5,-1.36,1.83,2.58,263.24,11.3,15.0,1.5,1.75,0.0,3.25,5.0,1.5,0.5,1.75,0.75,2.25,1.25,1.0,0.0,0.45,-0.86,2.64,92.36,-2.5,19.5
3.16,1.75,0.5,2.75,3.0,1.25,0.25,1.5,1.0,0.25,1.75,0.5,1.5,1.5,-1.48,2.58,2.7,256.52,11.4,7.0,0.5,0.75,0.0,1.0,5.0,1.0,0.5,1.75,0.25,2.0,1.25,0.25,0.25,1.08,-1.48,1.64,92.51,2.3,10.4
3.18,1.75,0.5,3.0,3.0,1.25,1.5,1.5,1.0,0.25,1.75,0.75,1.5,1.5,-1.42,3.95,1.89,254.98,9.6,8.4,1.5,1.75,0.25,3.25,2.25,2.0,0.5,1.75,0.75,2.25,1.25,1.0,0.5,0.7,-0.8,0.58,132.37,-2.9,11.3
3.2,0.25,0.25,3.0,0.25,0.75,0.25,2.0,1.0,0.0,0.0,0.0,0.25,0.5,0.2,5.95,-0.67,208.87,17.6,27.3,0.0,0.75,0.25,0.75,5.0,1.0,0.0,1.0,0.25,1.75,0.0,0.0,0.0,0.02,-0.42,0.45,127.83,4.2,25.9
3.22,0.0,0.25,1.0,0.25,0.0,0.75,0.75,1.0,0.0,0.5,0.0,0.5,1.0,5.83,7.27,-1.05,158.08,1.4,-18.9,1.0,0.5,0.0,0.75,1.25,0.0,0.0,0.75,0.25,1.25,0.0,0.0,0.0,-0.11,-0.23,0.45,98.53,-3.1,22.3
3.24,1.75,0.5,1.75,1.75,0.0,1.0,1.25,2.0,0.25,2.75,1.25,3.0,3.0,-1.17,-1.11,4.08,168.55,4.3,-29.4,0.5,0.5,0.0,0.5,1.25,0.75,0.0,0.5,0.0,1.0,0.0,0.0,0.0,-0.17,0.02,0.58,58.73,2.5,25.9
3.26,0.0,0.25,2.25,0.5,0.0,0.25,0.75,1.25,0.25,2.5,0.25,3.5,3.25,1.14,0.08,0.39,178.22,2.5,-54.2,0.5,0.75,0.0,0.5,1.25,0.75,0.0,0.5,0.0,1.0,0.0,0.0,0.0,0.02,-0.05,0.64,48.08,1.8,29.3
3.28,1.5,0.0,0.75,3.0,0.0,1.5,1.75,2.0,1.0,0.0,0.0,6.25,5.25,1.27,0.58,1.89,227.63,3.9,-43.0,0.25,0.5,0.0,0.75,1.25,0.75,0.0,0.5,0.25,1.0,0.0,0.0,0.0,0.2,-0.05,0.83,39.07,2.5,21.4
3.3,1.75,0.0,2.75,3.25,0.75,3.25,0.0,3.0,1.5,3.0,2.75,5.75,7.25,-0.42,-0.11,1.45,308.31,1.3,-38.9,0.5,0.5,0.0,1.0,1.25,0.75,0.0,0.5,0.0,0.75,0.0,0.0,0.0,0.2,0.02,0.95,49.57,0.0,33.6
3.32,0.25,0.0,1.75,1.75,1.75,1.75,0.0,3.25,1.75,4.75,2.75,6.25,6.75,-0.23,-0.05,1.02,392.37,-1.6,-54.2,0.25,0.5,0.0,0.75,1.25,1.0,0.0,0.5,0.0,0.75,0.0,0.0,0.0,0.2,0.08,1.14,60.7,3.5,29.5
3.34,0.75,0.0,1.75,1.75,0.5,2.0,1.25,3.75,2.0,3.25,2.75,6.75,6.75,-0.23,-0.05,0.95,456.53,0.0,-54.2,0.5,0.25,0.0,0.75,1.25,0.5,0.0,0.25,0.25,0.0,0.0,0.25,0.0,0.27,0.2,1.27,54.37,-4.4,39.2
3.36,1.5,0.25,1.75,1.75,0.75,2.25,1.25,4.75,2.25,5.0,4.0,6.75,7.0,-0.11,-0.05,0.95,528.38,-0.1,-50.5,0.25,0.25,0.0,0.5,1.25,0.75,0.0,0.5,0.0,0.5,0.0,0.0,0.0,0.39,0.39,1.58,42.48,4.0,29.5
3.38,0.5,0.25,1.75,2.0,0.5,2.75,2.25,4.75,2.75,5.0,3.75,7.0,7.0,-0.11,-0.05,0.95,583.53,-0.6,-52.2,0.0,0.5,0.0,0.5,1.25,0.75,0.0,0.5,0.0,0.5,0.0,0.0,0.0,0.58,0.58,1.83,35.53,5.1,29.9
3.4,1.75,0.5,3.5,3.25,2.5,4.0,3.5,4.75,3.75,6.5,3.75,7.75,7.0,-0.11,-0.05,0.95,680.4,1.7,-34.7,0.5,0.5,0.0,0.5,1.25,0.75,0.0,0.25,0.0,0.75,0.0,0.0,0.0,0.83,0.89,2.45,45.94,1.0,34.8
3.42,3.0,1.0,4.25,3.25,2.25,4.5,4.5,5.75,4.25,6.5,5.5,7.75,8.25,-0.11,-0.05,0.95,810.75,2.7,-31.9,0.5,0.25,0.0,0.75,1.25,1.25,0.0,0.25,0.0,0.5,0.0,0.0,0.0,1.2,1.77,2.83,54.57,2.1,38.2
3.44,3.25,1.75,3.75,3.25,3.75,5.0,4.5,5.75,4.25,6.5,5.75,7.25,7.75,-0.11,-0.05,0.95,938.5,2.4,-26.5,0.0,0.5,0.0,0.5,1.25,0.0,0.0,0.25,0.0,0.5,0.0,0.0,0.0,1.08,2.45,2.45,60.42,0.4,34.3
3.46,3.5,1.75,4.25,3.25,4.5,5.5,4.75,6.0,4.5,6.5,5.75,7.5,7.75,-0.11,-0.11,0.95,1027.42,2.6,-24.1,0.5,0.5,0.0,0.75,1.25,0.75,0.0,0.25,0.0,1.0,0.0,0.0,0.0,0.89,3.52,0.52,70.56,0.8,30.6
3.48,3.5,1.75,4.25,3.25,5.0,5.75,5.25,6.0,4.75,6.25,5.25,6.75,7.0,-0.11,-0.05,0.95,1063.54,2.8,-20.3,0.25,0.5,0.0,1.0,1.25,0.5,0.0,0.25,0.0,1.5,0.0,0.0,0.0,0.45,4.83,-0.8,75.21,1.9,19.2
3.5,3.5,1.25,4.25,3.25,5.25,6.0,5.25,6.25,5.0,6.25,5.75,6.25,6.75,-0.11,-0.05,0.95,1083.81,2.6,-20.2,0.5,0.0,0.0,0.75,1.25,1.0,0.0,0.5,0.0,0.5,0.0,0.0,0.25,-1.36,5.64,0.52,78.82,3.3,23.5
3.52,4.25,1.25,4.5,3.25,5.25,6.25,5.75,6.25,5.0,5.0,5.25,5.5,6.0,-0.11,-0.05,0.95,1060.69,3.6,-14.3,0.0,0.5,0.0,0.5,1.25,1.0,0.0,1.0,0.25,2.25,0.75,0.75,0.25,0.08,-0.98,-0.92,96.93,5.6,-22.2
3.54,4.75,1.75,4.5,4.5,5.5,7.0,6.0,6.5,5.0,5.0,4.75,4.75,5.25,-0.11,-0.05,0.95,1055.73,3.9,-7.4,0.25,0.25,0.0,0.75,1.25,1.0,0.0,1.75,0.25,5.0,1.25,2.25,1.25,0.02,0.27,0.33,148.17,5.9,-47.4
3.56,5.25,1.75,4.75,5.25,6.75,7.0,6.5,6.25,5.0,4.75,4.0,3.25,3.75,-0.11,-0.05,0.95,1055.58,4.8,2.2,2.0,0.25,0.0,0.5,1.25,0.0,0.0,2.5,0.75,6.75,2.0,5.25,5.25,0.83,0.45,2.08,243.18,2.7,-61.2
3.58,5.25,1.75,4.75,5.25,7.5,7.25,6.75,6.25,5.0,4.75,3.5,2.75,3.5,-0.11,-0.05,0.95,1053.38,4.6,5.1,0.0,0.25,0.0,0.0,1.25,4.5,0.0,0.0,1.0,8.25,4.5,6.5,6.75,0.39,0.77,2.2,349.79,6.2,-67.2
3.6,5.75,1.75,5.25,6.0,7.5,8.0,7.0,6.0,4.75,4.0,3.0,2.25,3.25,-0.11,-0.05,0.95,1044.13,5.3,10.7,2.25,1.75,0.0,2.75,2.5,5.5,0.5,4.5,2.5,8.75,6.75,8.0,8.0,0.08,0.02,1.14,564.91,2.4,-43.1
3.62,6.0,2.0,6.0,7.0,8.25,8.0,7.75,5.75,4.5,3.5,2.75,2.0,3.25,-0.11,-0.05,0.95,1054.29,6.3,15.3,3.0,1.75,0.5,3.0,5.0,5.5,1.0,5.5,2.75,9.5,8.25,8.0,8.75,-0.05,0.14,1.02,810.17,1.6,-37.4
3.64,7.0,2.0,6.0,7.0,9.0,8.0,7.75,5.75,4.25,3.0,2.75,2.5,2.75,-0.11,-0.05,1.02,1064.99,6.9,18.0,2.0,1.5,0.5,2.75,5.0,5.5,1.0,5.75,2.75,9.5,8.25,8.0,8.75,0.14,0.02,0.95,1010.91,2.4,-40.5
3.66,7.0,3.0,7.0,8.75,10.5,8.25,8.0,5.75,4.25,2.75,2.75,2.5,2.25,-0.11,-0.05,1.02,1127.37,7.6,23.1,2.0,1.5,0.5,2.25,5.0,5.5,1.0,5.75,3.0,9.25,8.0,7.5,8.75,0.2,0.02,0.95,1119.33,2.6,-40.4
3.68,7.0,2.5,6.0,9.0,9.0,8.75,7.75,5.25,3.75,2.75,1.5,2.0,1.25,-0.11,0.02,0.95,1136.85,7.6,27.3,2.0,1.75,0.5,3.25,5.0,5.5,1.0,5.75,2.75,8.75,8.0,7.25,9.0,0.2,0.02,0.89,1162.77,2.2,-37.9
3.7,8.5,3.5,7.5,11.0,12.5,9.0,8.0,5.75,3.75,2.75,1.25,1.75,2.5,-0.11,0.02,0.95,1237.58,7.9,30.5,2.0,1.5,0.5,3.25,5.0,5.5,1.25,5.75,3.25,8.75,7.5,6.75,8.25,0.2,0.02,0.95,1145.76,2.1,-36.5
3.72,9.25,3.5,7.5,11.5,12.5,9.0,7.75,5.75,3.5,2.75,1.25,2.0,2.0,-0.11,0.08,0.95,1314.82,8.3,32.1,1.75,1.75,0.5,3.25,5.0,6.0,1.5,5.75,3.0,8.5,7.25,6.5,8.0,0.14,0.02,0.95,1109.99,2.4,-34.8
3.74,10.5,3.5,5.75,13.0,14.0,9.0,8.0,5.75,3.25,2.75,1.5,2.0,1.75,-0.11,0.08,1.02,1392.14,8.0,33.7,1.5,1.75,0.5,3.25,5.25,6.0,1.5,5.75,3.25,8.25,7.0,6.0,7.75,0.2,0.02,0.95,1062.39,2.5,-33.5
3.76,11.5,3.5,8.5,13.0,14.5,9.5,7.5,5.5,2.75,2.75,1.5,1.75,1.75,-0.11,0.08,1.02,1460.42,9.1,36.6,2.0,1.5,1.25,3.25,5.25,6.0,1.5,5.5,3.25,7.75,6.5,5.75,7.5,0.14,0.02,0.95,999.44,1.6,-30.3
3.78,12.5,4.25,9.5,13.5,15.0,9.5,7.5,5.75,2.75,2.75,1.5,1.75,2.0,-0.11,0.14,1.08,1541.06,9.6,37.7,2.75,2.0,0.5,3.25,5.25,6.25,1.75,5.5,3.25,7.0,5.5,5.0,6.25,0.14,0.02,0.95,913.91,1.5,-23.9
3.8,14.0,4.5,9.5,14.0,15.5,9.25,6.5,5.25,2.25,2.5,1.5,1.75,1.5,-0.23,0.14,1.2,1599.55,10.3,41.3,3.0,1.5,1.25,3.25,6.75,6.5,2.25,5.5,3.25,6.75,5.5,4.0,5.25,0.14,0.02,0.95,847.47,0.8,-16.9
3.82,15.5,4.0,9.5,13.0,14.5,9.0,6.25,5.25,1.75,2.75,1.75,2.0,1.5,-0.3,0.27,1.39,1627.95,10.7,40.9,3.5,1.75,1.75,3.5,6.75,7.0,2.25,5.5,3.25,6.5,4.5,3.0,4.5,0.14,0.02,0.95,796.84,0.3,-9.3
3.84,16.5,5.0,9.0,13.0,14.0,8.0,5.5,5.25,1.75,2.75,1.5,1.75,1.5,-0.36,0.33,1.64,1631.94,11.2,42.9,3.5,1.75,2.75,3.5,6.75,7.25,2.5,5.5,3.5,5.75,4.5,2.5,3.75,0.14,0.02,0.95,762.81,-0.7,-4.5
3.86,15.5,5.0,9.5,9.75,12.5,7.25,5.5,4.75,1.25,2.5,1.5,1.75,1.5,-0.67,0.58,1.95,1571.38,11.8,43.0,3.75,2.0,2.75,4.5,7.25,7.25,2.75,5.5,3.5,5.25,4.5,2.5,3.0,0.14,0.02,0.95,762.37,-1.6,0.4
3.88,14.0,5.0,8.5,7.0,8.75,6.0,5.5,3.5,1.0,2.5,1.5,1.75,1.5,-0.86,0.77,2.83,1432.39,12.8,42.2,4.25,2.5,3.0,5.5,8.25,7.75,3.0,5.5,3.5,5.25,4.0,1.75,2.5,0.14,0.02,0.95,795.54,-2.2,8.1
3.9,7.25,0.75,5.75,3.25,6.5,1.75,3.5,1.25,0.25,0.0,1.25,0.25,1.25,-1.11,0.45,2.45,1032.24,15.7,46.4,4.75,2.5,3.25,5.5,8.25,7.75,3.25,5.25,3.25,5.0,3.5,1.25,2.75,0.14,0.08,0.95,823.79,-2.6,11.2
3.92,3.5,0.0,3.0,2.25,0.0,0.25,0.0,1.0,0.25,0.0,0.0,0.25,0.5,0.08,-0.05,0.7,550.83,22.7,47.5,5.5,2.5,3.5,5.75,9.25,7.75,3.25,4.75,3.25,5.0,3.25,1.25,2.25,0.14,0.08,0.95,857.78,-3.4,15.5
3.94,3.5,0.25,1.75,2.25,0.75,0.25,1.25,0.25,0.25,0.0,1.25,0.0,1.5,-0.3,-0.36,2.02,257.11,18.1,30.2,6.25,3.0,5.0,7.25,9.5,7.75,3.75,4.5,3.25,5.0,3.0,1.25,2.25,0.14,0.08,0.95,918.11,-5.2,20.2
3.96,1.75,0.25,3.0,2.5,0.0,0.25,1.25,1.0,0.25,0.0,0.0,0.0,1.75,-1.05,-1.23,3.02,83.58,17.3,26.4,7.0,3.25,5.5,7.5,9.5,7.75,4.0,4.5,3.25,4.75,2.75,1.25,2.25,0.14,0.08,1.02,981.75,-6.0,22.6
3.98,1.75,0.25,1.75,3.25,0.0,1.5,1.25,1.0,0.25,0.0,0.0,0.0,0.75,-1.23,-1.17,1.64,0.0,13.5,38.0,7.75,3.25,5.75,7.5,9.75,7.75,4.25,4.25,3.0,4.5,2.5,1.25,2.0,0.08,0.08,1.02,1037.31,-6.7,25.6
4.0,1.75,0.5,1.75,1.75,0.0,0.25,1.25,1.25,0.25,0.0,1.25,0.25,0.25,-0.86,-0.55,0.77,0.0,17.4,25.0,8.75,3.25,7.0,9.25,11.0,7.75,4.0,4.0,2.75,4.0,2.5,1.25,2.25,0.08,0.08,1.02,1114.49,-7.9,29.5
4.02,0.75,0.0,1.75,0.25,0.0,0.25,1.25,0.75,0.0,0.0,0.0,0.25,0.0,-0.55,-0.36,0.39,0.0,22.1,35.1,9.25,3.5,7.0,9.25,11.0,7.75,3.75,3.75,2.75,3.75,2.25,1.25,2.25,0.08,0.08,1.02,1172.43,-8.2,31.2
4.04,2.0,1.0,3.0,0.5,0.5,1.75,1.25,1.0,0.25,1.75,1.0,1.75,1.25,-0.42,0.02,0.2,0.0,9.3,1.2,9.5,3.75,7.25,9.75,11.5,7.75,2.75,3.5,2.25,3.75,2.25,1.25,1.75,0.08,0.14,1.02,1213.13,-8.5,34.1
4.06,1.5,0.0,1.75,0.0,0.0,0.25,1.25,0.75,0.0,0.5,0.0,0.25,0.0,-0.3,0.2,0.39,0.0,20.5,32.0,10.5,4.5,7.5,11.0,12.0,7.75,2.25,3.25,2.0,3.75,2.25,1.0,2.0,0.02,0.14,1.14,1262.23,-9.0,36.9
4.08,1.0,0.25,1.75,0.25,0.0,0.25,1.25,1.0,0.25,0.5,0.0,1.25,0.0,-0.23,0.2,0.77,0.0,15.9,6.1,10.5,4.5,8.0,9.25,12.5,6.75,1.5,3.0,1.5,2.25,2.0,0.25,1.25,0.08,0.2,1.14,1251.24,-10.1,44.2
4.1,1.75,1.0,3.0,1.75,1.25,1.75,1.25,1.0,0.25,0.5,0.75,1.75,0.25,-0.11,0.14,1.08,35.65,12.3,21.9,9.75,3.75,7.0,9.25,11.0,7.0,0.75,2.0,1.5,2.25,0.75,0.0,0.75,0.14,0.27,1.33,1167.53,-10.1,48.3
4.12,1.75,0.75,3.0,1.0,1.25,1.75,1.5,1.0,0.25,1.25,0.75,1.5,1.25,-0.11,0.2,1.14,127.03,9.4,8.3,9.75,4.75,7.0,9.25,9.5,6.75,0.5,0.25,1.5,2.25,1.0,0.0,0.25,0.33,0.33,1.45,1057.5,-11.8,53.0
4.14,0.75,0.25,1.5,0.0,0.5,1.0,1.25,0.5,0.0,0.0,0.0,0.25,0.0,-0.17,0.33,1.2,149.46,14.2,41.1,9.75,4.5,7.0,10.5,9.5,5.5,0.0,1.75,0.25,1.5,0.0,0.0,0.25,0.52,0.45,1.64,958.54,-12.2,57.2
4.16,0.5,0.25,0.25,0.0,0.0,1.25,1.25,0.75,0.0,0.0,0.0,0.25,0.0,-0.17,0.45,1.2,132.47,3.0,23.1,8.75,3.25,5.5,8.5,8.25,5.75,0.5,0.75,0.5,0.5,0.25,0.0,0.5,0.83,0.58,1.7,825.2,-12.1,57.8
4.18,1.75,0.75,1.75,1.75,0.0,1.75,1.25,1.0,0.25,1.5,0.5,1.5,1.25,-0.11,0.58,1.2,141.64,7.8,1.5,8.25,3.25,4.5,6.0,7.0,5.5,0.5,0.0,0.75,2.25,0.25,0.75,0.25,0.64,0.89,2.58,697.92,-11.0,50.8
4.2,1.75,0.75,2.0,1.75,0.75,1.75,2.25,1.0,0.25,1.5,0.5,1.75,1.25,-0.17,0.58,1.2,168.23,8.4,4.3,4.5,1.0,0.0,3.75,6.0,3.25,0.5,0.0,0.25,0.5,1.0,0.25,0.25,0.7,0.52,2.33,487.34,-6.7,48.4
4.22,1.75,0.5,1.75,1.75,1.75,1.75,2.25,1.0,0.25,1.75,0.75,1.75,1.25,-0.3,0.58,1.39,208.96,6.8,3.0,1.5,0.75,0.0,0.0,2.25,0.75,0.25,0.25,0.25,0.5,0.0,0.0,0.25,0.39,-0.23,1.58,277.22,-3.6,43.0
4.24,1.75,0.5,2.75,1.75,0.5,1.75,2.0,1.0,0.25,1.5,0.5,1.75,1.5,-0.23,0.58,1.7,236.02,9.5,2.6,0.75,0.5,0.0,0.0,0.0,1.0,0.0,0.5,0.25,2.0,0.0,1.0,0.25,0.64,0.52,1.08,112.21,3.5,-26.9
4.26,1.75,0.75,2.0,1.75,1.75,1.75,2.25,1.0,0.25,2.25,0.75,1.75,1.5,-0.3,0.7,1.95,256.3,6.5,1.5,2.0,1.75,0.5,2.5,3.0,1.0,0.25,1.25,0.75,2.25,0.75,1.0,0.75,0.52,-0.05,1.77,52.39,-4.5,14.9
4.28,1.75,0.75,2.75,1.75,0.0,1.5,2.0,1.0,0.25,2.25,0.75,1.75,1.5,-0.36,0.89,2.08,252.21,9.3,-2.5,2.0,1.75,0.5,3.25,5.0,1.25,0.5,1.5,0.75,0.5,1.5,1.0,1.25,-0.11,-0.42,1.52,72.43,-5.2,21.7
4.3,1.75,0.5,2.0,2.75,0.5,1.5,2.0,1.0,0.25,2.5,0.75,1.75,1.5,0.2,2.7,3.14,260.08,7.7,-2.4,2.0,1.75,0.25,2.75,5.0,1.25,0.5,1.75,0.5,0.0,1.25,1.0,1.0,-0.55,0.02,0.95,121.8,-4.8,25.6
4.32,0.25,0.25,2.25,1.0,0.0,0.25,1.25,0.5,0.0,0.0,0.0,0.25,0.25,-0.61,2.64,1.08,210.79,21.4,35.0,0.5,0.75,0.5,1.0,4.5,0.0,0.5,1.5,0.0,0.0,0.0,0.0,0.25,-0.67,0.33,0.45,121.33,-2.5,41.2
4.34,0.0,0.25,2.0,0.5,0.0,0.25,1.25,1.0,0.0,0.25,0.0,0.5,0.75,0.2,4.33,0.2,161.66,12.6,1.4,0.5,0.0,0.0,0.75,1.25,0.0,0.0,0.25,0.0,0.0,0.0,0.25,0.25,-0.67,1.02,0.08,68.54,-5.6,29.9
4.36,0.25,0.25,1.0,0.0,0.0,0.0,0.75,1.5,0.25,2.5,0.25,1.75,1.5,3.77,7.2,-1.61,135.89,-0.2,-53.3,1.25,1.5,0.0,2.75,1.25,0.75,0.0,0.25,0.5,1.5,0.0,1.0,0.25,-0.8,1.27,-0.17,50.0,-6.4,22.7
4.38,0.75,0.0,2.25,0.0,0.0,1.25,1.25,3.0,0.0,4.25,0.25,3.25,5.0,-2.05,0.14,2.64,185.87,-2.4,-53.7,1.25,1.5,0.0,2.0,4.75,0.75,0.5,1.75,0.25,1.5,1.25,1.0,1.25,-0.8,1.14,-0.05,94.66,-1.3,9.9
4.4,0.0,0.0,2.0,1.75,0.75,1.5,0.75,4.5,0.25,4.75,2.0,5.0,6.25,-0.61,0.64,1.95,263.4,-2.8,-54.6,1.25,1.5,0.25,2.75,5.0,1.25,0.5,1.75,0.0,2.25,1.25,1.0,1.25,-0.61,1.02,0.14,174.17,-1.0,11.0
4.42,1.75,0.25,0.25,3.25,0.5,3.0,0.0,5.0,2.0,7.5,2.5,7.75,7.0,0.95,-0.11,2.14,386.07,-2.9,-52.2,0.25,0.0,0.25,1.25,5.0,0.0,0.5,1.75,0.25,0.5,1.25,0.0,0.25,-0.42,0.95,0.2,201.27,-0.3,16.6
4.44,1.75,0.25,2.5,3.25,3.5,4.25,3.0,6.75,2.75,8.75,6.25,8.75,9.5,0.58,0.2,1.2,628.7,-0.8,-42.9,0.0,0.75,0.0,1.0,1.25,1.0,0.0,0.25,0.0,0.5,0.0,0.0,0.0,-0.3,1.08,0.14,184.86,2.1,40.1
4.46,1.75,0.5,3.75,3.25,3.5,5.0,4.0,7.5,2.5,8.75,6.25,8.75,9.75,0.02,-0.05,1.14,867.06,-0.2,-39.1,0.0,0.25,0.0,0.5,1.25,1.0,0.0,0.25,0.0,0.5,0.0,0.25,0.0,-0.3,1.2,0.02,133.51,5.7,21.7
4.48,1.0,0.25,3.75,3.25,3.5,5.0,4.25,7.5,2.0,8.75,5.75,8.25,9.5,-0.17,0.02,1.02,1037.47,-0.8,-39.9,0.0,0.5,0.0,0.5,1.25,1.0,0.0,0.25,0.0,0.5,0.0,0.0,0.0,-0.23,1.33,-0.05,77.26,5.4,34.3
4.5,1.5,0.5,3.75,3.25,4.5,5.75,4.25,7.5,2.0,8.75,5.0,7.5,9.5,-0.17,-0.05,0.95,1125.19,-1.0,-34.5,0.25,0.5,0.0,0.5,1.25,1.0,0.0,0.0,0.0,0.5,0.0,0.0,0.0,-0.17,1.39,-0.05,41.13,2.5,42.2
4.52,1.75,1.25,3.25,3.25,4.75,6.5,4.5,7.75,1.75,7.75,4.25,6.5,8.5,-0.17,-0.05,0.89,1135.79,-1.2,-28.0,0.5,0.5,0.0,0.0,1.25,1.0,0.0,0.0,0.0,0.5,0.0,0.0,0.0,0.08,1.33,0.08,34.69,2.9,43.5
4.54,0.75,1.0,4.25,3.25,5.0,7.25,4.5,8.0,1.75,7.5,3.25,5.5,7.75,-0.23,0.02,0.89,1102.13,-1.7,-24.4,0.0,0.5,0.0,0.75,1.25,1.0,0.0,0.0,0.0,0.5,0.0,0.0,0.0,0.58,1.27,0.08,41.8,3.3,40.1
4.56,1.75,1.25,4.0,3.5,5.75,8.0,5.0,8.0,1.75,6.25,2.75,4.75,6.75,-0.23,-0.05,0.95,1069.37,-1.0,-15.6,0.25,0.0,0.0,0.0,1.25,1.0,0.0,0.25,0.0,0.5,0.0,0.0,0.0,0.83,1.2,0.2,42.52,8.9,25.1
4.58,2.25,1.75,4.25,5.25,7.0,9.0,5.25,8.25,1.75,5.0,2.75,3.0,5.75,-0.23,-0.05,1.02,1048.88,0.0,-3.0,0.5,0.25,0.0,0.5,1.25,1.0,0.0,0.25,0.0,0.5,0.0,0.0,0.25,1.14,0.95,0.14,43.59,2.8,29.1
4.6,2.5,1.75,4.5,5.5,8.0,9.75,5.75,8.0,1.75,4.75,2.25,2.5,3.75,-0.3,0.02,1.08,1022.59,0.5,5.2,0.0,0.5,0.0,0.75,1.25,1.25,0.0,0.0,0.0,1.0,0.0,0.0,0.25,-0.36,4.2,1.08,40.97,5.9,21.2
4.62,3.5,1.75,4.75,7.0,9.0,9.75,5.75,8.0,1.5,4.75,2.0,2.0,3.25,-0.3,-0.11,1.33,1017.34,1.5,11.6,0.0,0.75,0.0,0.75,1.25,1.0,0.0,0.25,0.0,0.75,0.0,0.0,0.25,1.58,1.2,-2.3,49.01,4.3,26.3
4.64,4.25,1.75,4.75,7.0,9.75,9.75,5.0,7.75,1.25,3.75,1.75,2.5,3.25,-0.3,0.02,1.52,1011.25,2.0,14.2,2.0,1.5,0.0,2.0,1.25,2.25,0.0,0.0,0.25,0.75,0.0,0.0,0.25,1.58,-0.3,-0.36,92.82,-5.3,49.5
4.66,5.25,2.0,5.25,7.0,9.75,9.5,4.0,7.25,1.0,2.75,1.25,1.75,3.0,-0.55,0.27,1.7,990.7,3.1,21.2,0.5,0.5,0.25,0.75,1.5,1.25,0.0,0.25,0.0,0.5,0.0,0.0,1.0,-0.11,-1.92,-0.67,114.22,1.8,19.4
4.68,5.75,2.0,4.5,5.5,9.25,8.5,2.25,6.5,1.0,2.75,1.25,1.75,2.75,-0.36,0.39,1.83,928.53,2.9,21.0,0.5,0.0,0.0,1.0,1.25,0.75,0.0,0.0,0.0,1.25,0.0,0.0,0.25,0.58,-2.48,-1.86,118.25,1.8,16.4
4.7,6.0,1.75,4.75,5.25,8.25,8.0,1.5,5.75,0.75,2.75,1.25,1.75,2.0,-0.61,0.52,1.89,862.88,3.7,23.3,0.5,0.25,0.0,0.75,1.25,1.0,0.0,0.25,0.0,1.0,0.0,0.0,1.25,-1.05,-1.3,-0.98,111.35,4.7,0.0
4.72,5.75,1.75,4.5,3.25,7.0,6.75,1.25,4.75,0.5,2.5,1.25,1.75,1.5,-0.67,0.52,1.89,756.26,4.4,23.6,0.0,0.75,0.0,0.75,1.25,1.0,0.0,0.25,0.0,1.0,0.0,0.0,0.25,-2.3,-0.55,-1.17,102.91,4.8,21.6
4.74,4.5,1.25,3.75,3.25,5.0,3.75,1.5,3.0,0.25,2.5,1.25,1.75,1.5,-1.36,0.89,0.89,609.99,6.4,19.8,0.5,0.0,0.0,1.25,1.25,2.5,0.0,0.25,0.25,2.25,0.0,1.0,0.25,-3.05,-0.23,-0.61,115.35,5.3,-4.9
4.76,1.0,0.5,2.5,1.5,3.5,1.25,0.0,1.75,0.25,0.0,0.0,0.25,1.25,-2.11,2.14,-1.17,393.38,5.7,27.9,0.5,1.5,0.0,1.25,4.5,2.25,0.0,0.25,0.25,2.25,1.25,1.0,1.25,-3.73,0.14,-0.61,165.83,2.3,5.6
4.78,0.5,0.25,1.75,1.5,0.0,1.5,0.0,1.0,0.0,0.0,0.0,0.25,1.25,-0.55,2.64,1.27,236.27,6.3,14.0,0.5,0.0,0.0,0.5,1.25,0.75,0.0,0.25,0.0,1.0,0.0,0.0,0.25,-3.86,0.7,0.52,155.63,4.0,13.7
4.8,0.5,0.25,1.75,1.25,0.5,1.5,0.0,1.0,0.0,0.0,0.0,0.25,0.75,-0.3,1.95,1.27,102.39,6.5,23.6,0.0,0.0,0.0,0.5,1.25,1.0,0.0,0.25,0.0,1.0,0.0,0.0,0.25,-3.17,0.89,0.77,135.8,9.2,5.9
4.82,1.75,0.25,3.0,1.75,2.5,1.75,0.0,1.0,0.25,1.5,0.75,0.5,1.5,-0.61,2.14,0.27,61.29,6.9,14.8,0.75,0.0,0.0,0.5,1.25,0.75,0.0,0.0,0.0,0.75,0.0,0.0,0.25,-3.36,1.27,1.39,100.19,0.6,26.3
4.84,0.5,0.25,1.75,0.5,0.0,1.25,0.0,0.75,0.0,0.0,0.0,0.25,1.0,-0.42,2.33,0.08,8.94,7.3,13.1,0.0,0.25,0.0,0.5,1.25,1.0,0.0,0.0,0.0,1.0,0.0,0.0,0.25,-2.8,1.14,1.58,78.91,7.5,13.9
4.86,1.75,0.25,1.75,3.25,0.0,1.5,0.0,0.5,0.5,2.25,0.0,0.5,1.0,0.27,1.7,0.39,29.58,8.1,12.3,1.25,0.0,0.0,0.25,1.25,0.5,0.0,0.0,0.0,0.25,0.0,0.0,0.25,-1.86,1.14,1.33,61.15,-5.7,45.5
4.88,1.75,0.5,3.0,2.0,0.5,0.5,0.0,0.0,0.0,0.0,0.0,1.75,1.25,-0.98,-1.05,3.52,35.22,17.8,20.6,0.25,0.25,0.0,0.5,1.25,1.0,0.0,0.25,0.0,0.75,0.0,0.0,0.25,-1.42,1.02,0.95,61.23,5.4,20.0
4.9,1.75,0.5,3.25,2.75,1.25,1.25,0.25,1.5,0.25,2.5,0.25,1.75,1.5,2.08,-2.42,1.14,97.23,7.8,3.5,0.5,0.5,0.0,0.75,1.25,1.0,0.0,0.0,0.0,1.25,0.0,0.0,0.25,-1.05,0.95,0.89,72.03,2.3,22.7
4.92,0.75,0.25,3.25,1.25,2.5,0.25,0.25,0.5,0.0,0.0,0.25,0.25,1.5,-1.98,-2.23,1.08,112.89,12.5,26.8,0.25,0.0,0.0,0.5,1.25,0.5,0.0,0.25,0.0,1.25,0.0,0.0,0.25,-0.86,0.83,0.83,68.92,5.8,3.2
4.94,1.75,0.75,3.0,2.5,1.25,1.5,1.25,1.25,0.25,2.5,0.25,1.5,1.5,-2.42,-0.11,-0.61,172.04,7.9,6.3,0.0,0.25,0.0,0.5,1.25,1.0,0.0,0.25,0.0,0.75,0.0,0.0,0.25,-0.48,0.7,0.58,65.85,7.5,15.9
4.96,0.75,0.25,3.5,0.5,1.75,0.25,1.25,1.0,0.0,0.0,0.0,0.25,1.25,-1.8,0.7,-2.17,174.97,14.2,25.7,0.5,0.25,0.0,0.75,1.25,1.25,0.0,0.25,0.0,1.0,0.0,0.0,0.25,0.14,0.7,0.52,68.78,3.9,21.4
4.98,1.75,0.25,1.75,1.0,0.0,0.25,1.0,0.0,0.0,0.0,0.0,0.25,0.5,-1.55,0.77,-1.3,163.88,24.5,47.1,0.0,0.5,0.0,0.5,1.25,1.0,0.0,0.0,0.0,1.0,0.0,0.0,0.25,0.58,0.52,0.27,66.51,6.4,18.5
5.0,1.75,0.5,1.75,1.0,0.75,0.25,1.25,1.0,0.25,0.25,0.75,1.75,1.25,-2.8,1.77,-3.11,163.86,12.5,-0.1,0.0,0.0,0.0,0.5,1.25,0.75,0.0,0.25,0.0,0.75,0.0,0.0,0.25,0.83,0.2,0.14,64.18,7.9,9.4
5.02,1.25,0.75,3.5,1.75,1.25,1.25,1.25,0.25,0.25,0.25,0.0,1.5,1.0,-1.17,1.33,-2.23,174.98,14.5,24.2,1.25,0.5,0.0,0.75,1.25,1.0,0.0,0.25,0.0,0.75,0.0,0.0,0.25,1.02,-0.17,-0.11,83.01,-2.4,36.9
5.04,0.0,0.25,3.0,0.0,0.75,0.0,1.0,1.0,0.0,0.0,0.75,0.25,1.5,-1.23,0.27,-1.05,158.66,12.9,-2.0,0.0,0.0,0.0,0.5,1.25,0.75,0.0,0.25,0.0,0.75,0.0,0.0,0.25,1.02,-0.55,-0.17,77.73,7.9,9.4
5.06,0.0,0.25,2.25,0.0,0.0,0.25,1.0,0.5,0.25,0.25,0.0,1.75,0.5,-1.11,0.52,-0.42,133.81,15.4,-16.4,0.5,0.0,0.0,0.75,1.25,1.0,0.0,0.0,0.0,1.0,0.0,0.0,0.25,0.83,-0.86,-0.11,78.9,3.2,19.7
5.08,1.75,0.5,2.5,1.75,1.25,1.5,0.0,0.75,0.25,0.25,0.5,1.25,1.25,-1.23,0.39,-0.48,151.32,10.3,16.6,0.25,0.25,0.0,0.5,1.25,0.5,0.0,0.0,0.0,0.75,0.0,0.0,0.25,0.64,-1.05,-0.11,72.31,2.6,22.1
5.1,1.75,0.5,3.0,1.75,0.75,1.5,0.25,0.75,0.25,0.5,0.0,1.25,1.5,-1.48,0.64,-0.42,160.22,11.2,16.0,0.25,0.25,0.0,0.75,1.25,1.0,0.0,0.25,0.0,0.75,0.0,0.0,0.25,0.39,-1.23,0.14,74.71,4.2,22.0
5.12,1.75,0.5,3.0,1.25,1.25,1.25,1.25,1.0,0.25,0.75,0.5,1.5,1.5,-1.36,0.39,-0.42,186.8,10.7,8.7,0.5,0.25,0.0,0.5,1.25,0.75,0.0,0.0,0.0,0.75,0.0,0.0,0.25,0.27,-1.42,0.2,71.27,1.7,26.7
5.14,1.75,0.5,3.0,0.25,1.25,1.5,0.75,1.0,0.25,2.0,0.5,1.5,1.5,-0.92,0.2,-0.05,204.7,7.2,-1.2,0.0,0.25,0.0,0.75,1.25,1.0,0.0,0.25,0.0,0.75,0.0,0.0,0.25,0.27,-1.55,0.27,73.41,6.2,18.3
5.16,1.75,0.5,2.25,1.5,0.0,1.5,0.25,1.0,0.25,1.25,0.25,1.75,1.5,-0.67,0.27,0.2,213.64,8.4,-1.9,0.25,0.25,0.0,0.5,1.25,1.0,0.0,0.0,0.25,0.75,0.0,0.0,0.25,0.14,-1.42,0.33,74.51,3.9,20.1
5.18,1.75,0.5,1.75,1.5,1.75,1.5,0.75,0.75,0.25,2.0,0.5,1.75,1.25,-0.73,0.27,0.2,217.56,5.9,1.2,0.5,0.5,0.0,0.75,1.25,1.0,0.0,0.0,0.0,0.75,0.0,0.0,0.25,0.02,-1.3,0.2,77.93,1.0,32.2
5.2,1.75,0.75,3.0,2.0,0.5,1.5,0.5,0.25,0.25,2.0,0.25,1.75,1.5,-0.92,0.2,0.08,227.72,10.0,5.2,0.5,0.25,0.0,0.75,1.25,1.0,0.0,0.0,0.0,1.0,0.0,0.0,0.25,-0.17,-0.98,0.14,80.14,2.4,23.7
5.22,1.75,0.5,2.25,1.75,1.75,1.5,0.25,0.5,0.25,2.25,0.0,1.75,1.25,-0.98,0.27,0.02,234.39,6.6,5.4,0.0,0.5,0.0,0.5,1.25,1.0,0.0,0.0,0.0,0.75,0.0,0.0,0.25,-0.3,-0.8,0.02,79.7,5.8,23.8
5.24,0.0,0.25,2.5,0.25,1.25,0.25,1.25,1.0,0.0,0.0,0.25,0.25,1.0,-1.05,0.2,0.02,200.66,11.3,12.9,0.25,0.25,0.0,1.25,1.25,0.75,0.0,0.0,0.0,0.75,0.0,0.0,0.25,-0.36,-0.48,-0.05,80.32,0.4,28.3
5.26,1.75,0.5,2.0,1.75,1.75,1.5,0.75,1.0,0.25,2.0,0.75,1.5,1.5,-1.23,0.2,-0.17,209.34,6.0,1.2,0.0,0.0,0.0,0.5,1.25,0.5,0.0,0.25,0.0,1.0,0.0,0.0,0.25,-0.42,-0.42,-0.11,73.02,7.5,2.6
5.28,1.75,0.5,2.25,1.75,0.75,1.5,0.75,0.25,0.25,1.5,0.0,1.5,1.5,-1.3,0.14,-0.42,205.17,9.1,6.9,0.25,0.25,0.0,0.5,1.25,1.0,0.0,0.25,0.0,0.75,0.0,0.0,0.25,-0.55,-0.42,-0.05,74.06,5.4,20.0
5.3,1.75,0.5,2.5,1.0,0.75,1.5,0.25,0.75,0.25,2.0,0.5,1.25,1.25,-1.17,0.08,-0.36,208.5,7.5,1.5,0.0,0.75,0.0,0.75,1.25,1.0,0.0,0.0,0.0,0.75,0.0,0.0,0.25,-0.67,-0.23,0.02,74.48,3.7,29.5
5.32,1.75,0.5,2.75,1.75,0.75,1.5,1.25,1.0,0.25,1.75,0.25,1.25,1.75,-0.98,-0.05,-0.3,209.75,8.4,4.2,0.25,0.0,0.0,0.75,1.25,1.0,0.0,0.0,0.0,0.75,0.0,0.0,0.25,-0.67,-0.17,0.14,75.07,4.5,21.0
5.34,1.75,0.5,2.5,2.25,0.75,0.25,1.25,1.25,0.0,1.25,0.25,1.5,1.25,-0.86,-0.17,-0.23,212.9,11.9,7.6,0.0,0.0,0.0,0.5,1.25,1.0,0.0,0.0,0.0,0.75,0.0,0.0,0.25,-0.8,-0.17,0.27,70.46,8.3,14.0
5.36,0.0,0.25,2.75,0.25,0.75,0.25,1.0,0.0,0.0,0.0,0.0,0.25,0.0,-0.8,-0.3,-0.17,170.99,24.2,48.9,0.25,0.25,0.0,0.75,1.25,1.0,0.0,0.0,0.0,1.0,0.0,0.0,0.25,-0.92,-0.17,0.45,72.42,4.1,20.2
5.38,0.0,0.25,1.0,0.5,0.0,0.25,0.25,0.5,0.0,0.0,0.0,0.25,0.25,-0.61,-0.36,-0.17,118.05,12.7,17.3,0.25,0.0,0.0,0.5,1.25,1.0,0.0,0.25,0.0,0.75,0.0,0.0,0.25,-1.05,-0.17,0.64,70.86,6.5,15.4
5.4,0.0,0.25,0.5,0.25,0.0,0.25,0.25,0.0,0.0,0.0,0.0,0.25,0.5,-0.36,-0.36,-0.11,62.87,9.8,-0.2,0.5,0.5,0.0,0.75,1.25,1.0,0.0,0.0,0.0,0.75,0.0,0.25,0.25,-1.23,-0.11,0.7,76.63,0.5,25.7
5.42,0.0,0.25,0.75,0.25,0.0,0.25,0.5,0.0,0.0,0.0,0.0,0.25,0.25,-0.23,-0.42,-0.11,23.49,16.8,20.5,0.0,0.5,0.0,0.5,1.25,1.0,0.0,0.0,0.0,1.25,0.0,0.0,0.25,-1.17,-0.23,0.64,78.27,6.8,13.8
5.44,0.0,0.25,0.75,0.25,0.0,0.25,0.0,0.0,0.0,0.0,0.0,0.25,0.5,-0.11,-0.48,-0.11,4.17,11.8,5.2,0.25,0.25,0.0,0.75,1.25,1.0,0.0,0.0,0.0,0.75,0.0,0.0,0.25,-1.11,-0.42,0.58,80.0,3.5,25.3
5.46,0.0,0.25,0.5,0.25,0.5,0.25,0.0,0.0,0.0,0.0,0.0,0.25,0.25,-0.05,-0.48,-0.11,2.15,7.9,23.5,0.5,0.0,0.0,0.5,1.25,1.0,0.0,0.0,0.0,0.75,0.0,0.0,0.25,-0.86,-0.48,0.58,77.17,3.7,22.9
5.48,0.0,0.25,0.5,0.25,0.0,0.25,0.0,0.25,0.0,0.0,0.0,0.25,0.0,0.08,-0.61,-0.11,0.07,11.3,24.3,0.5,0.5,0.0,0.5,1.25,1.0,0.0,0.0,0.0,0.75,0.0,0.0,0.25,-0.61,-0.61,0.58,77.81,2.0,30.9
5.5,0.0,0.25,0.5,0.25,0.0,0.25,0.0,0.0,0.0,0.0,0.0,0.25,0.25,0.2,-0.61,-0.05,0.0,11.6,13.8,0.25,0.25,0.0,0.5,1.25,1.0,0.0,0.0,0.0,0.75,0.0,0.0,0.25,-0.61,-0.55,0.83,75.94,4.8,23.4
5.52,0.0,0.25,0.5,0.25,0.5,0.25,0.0,0.0,0.0,0.0,0.0,0.25,0.25,0.27,-0.55,0.08,0.0,7.9,23.5,0.0,0.25,0.0,0.75,1.25,1.0,0.0,0.0,0.0,0.5,0.0,0.0,0.25,-0.8,-0.42,0.95,73.13,5.0,27.3
5.54,0.25,0.25,0.5,0.25,0.5,0.25,0.0,0.25,0.0,0.0,0.0,0.25,0.25,0.27,-0.48,0.2,5.9,8.0,24.1,0.5,0.25,0.0,0.25,1.25,0.75,0.0,0.0,0.0,0.75,0.0,0.0,0.25,-0.92,-0.3,1.14,70.38,2.9,24.8
5.56,0.0,0.0,0.5,0.0,0.5,0.25,0.0,0.0,0.0,0.0,0.0,0.25,0.25,0.2,-0.48,0.2,11.37,6.0,8.0,0.5,0.0,0.0,0.75,1.25,1.0,0.0,0.25,0.0,0.75,0.0,0.0,0.25,-1.05,-0.23,1.39,72.79,3.2,21.6
5.58,0.25,0.25,0.25,0.25,0.5,0.25,0.0,0.5,0.0,0.0,0.0,0.25,0.5,-0.05,-0.42,0.27,27.23,1.6,4.8,0.0,0.0,0.0,0.5,1.25,1.0,0.0,0.0,0.0,0.75,0.0,0.0,0.25,-1.11,-0.05,1.52,69.22,8.3,14.0
5.6,0.0,0.25,0.5,0.25,0.5,0.25,0.0,0.0,0.0,0.0,0.0,0.25,0.25,-0.23,-0.3,0.33,37.61,7.9,23.5,0.0,0.5,0.0,0.5,1.25,1.0,0.0,0.0,0.0,0.75,0.0,0.0,0.25,-0.92,0.14,1.39,69.33,5.8,23.8
5.62,0.0,0.25,0.5,0.25,0.0,0.25,0.0,0.25,0.0,0.0,0.0,0.25,0.25,-0.55,-0.11,0.45,38.89,8.1,7.3,0.5,0.25,0.0,0.5,1.25,1.0,0.0,0.0,0.0,0.5,0.0,0.0,0.25,-0.86,0.2,1.33,69.43,2.0,32.9
5.64,0.0,0.25,0.5,0.25,0.5,0.25,0.0,0.25,0.0,0.0,0.0,0.25,0.25,-0.8,0.14,0.45,39.89,5.6,17.5,0.25,0.25,0.0,0.5,1.25,1.0,0.0,0.0,0.0,1.25,0.0,0.0,0.25,-0.8,0.2,1.27,72.24,5.9,13.3
5.66,0.25,0.25,0.5,0.25,0.5,0.25,0.0,0.5,0.0,0.0,0.0,0.25,0.25,-1.23,0.7,0.64,43.95,6.0,19.0,0.25,0.0,0.0,0.5,1.25,1.0,0.0,0.0,0.0,0.5,0.0,0.0,0.25,-0.67,0.14,1.14,70.1,5.2,24.7
5.68,0.0,0.25,0.5,0.25,0.0,0.25,0.0,0.0,0.0,0.0,0.0,0.25,0.5,-1.67,0.64,0.64,41.55,8.4,-1.8,0.0,0.25,0.0,0.5,1.25,1.0,0.0,0.0,0.0,0.75,0.0,0.0,0.25,-0.48,-0.05,1.08,69.56,7.0,19.2
5.7,0.0,0.5,0.5,0.25,0.0,0.25,0.0,0.0,0.0,0.0,0.0,0.25,0.5,-2.42,0.58,0.33,40.6,8.9,9.5,0.0,0.0,0.0,0.5,1.25,1.0,0.0,0.0,0.0,0.75,0.0,0.0,0.25,-0.3,-0.3,1.08,66.04,8.3,14.0
5.72,0.0,0.25,0.75,0.25,0.5,0.25,0.0,0.0,0.0,0.0,0.0,0.25,0.25,-2.36,0.45,0.14,41.12,10.9,27.2,0.5,0.5,0.0,0.75,1.25,1.0,0.0,0.0,0.0,0.25,0.0,0.0,0.25,-0.11,-0.36,1.14,69.02,-0.5,43.8
5.74,0.0,0.25,0.75,0.5,0.0,0.0,0.0,0.0,0.0,0.0,0.0,0.25,0.5,-1.86,0.45,0.27,39.7,15.9,8.2,0.0,0.0,0.0,0.5,1.25,1.25,0.0,0.0,0.0,0.75,0.0,0.0,0.25,0.02,-0.48,1.27,68.76,9.1,15.1
5.76,0.0,0.25,0.5,0.25,0.0,0.25,0.75,0.0,0.0,0.0,0.0,0.25,0.25,-1.73,0.58,0.27,37.45,15.1,16.1,0.0,0.0,0.0,0.25,1.25,0.75,0.0,0.0,0.0,0.75,0.0,0.0,0.25,-0.05,-0.48,1.33,65.13,9.2,9.2
5.78,0.25,0.5,0.5,0.25,0.0,0.25,0.75,0.0,0.0,0.0,0.5,0.25,0.0,-1.67,0.64,0.27,40.49,18.4,26.1,0.0,0.5,0.0,0.5,1.25,1.0,0.0,0.25,0.0,0.75,0.0,0.0,0.25,-0.11,-0.48,1.39,66.91,6.4,20.5
5.8,0.0,0.0,0.75,0.75,0.0,0.25,0.75,0.0,0.0,0.0,0.0,0.25,0.25,-1.55,0.58,0.33,42.52,18.0,20.6,0.5,0.0,0.0,0.5,1.25,1.0,0.0,0.0,0.0,0.75,0.0,0.0,0.25,-0.17,-0.48,1.39,67.61,3.7,22.9
5.82,0.25,0.0,0.75,0.5,0.0,0.25,1.0,0.0,0.0,0.0,0.0,0.25,0.0,-1.42,0.33,0.33,42.81,23.7,37.7,0.5,0.5,0.0,0.5,1.25,1.0,0.0,0.0,0.0,0.75,0.0,0.0,0.25,-0.11,-0.48,1.2,73.53,2.0,30.9
5.84,0.0,0.25,1.0,0.25,0.0,0.25,0.75,0.0,0.0,0.0,0.0,0.25,0.0,-1.42,0.08,0.33,43.01,23.2,39.3,0.25,0.25,0.0,0.5,1.25,1.0,0.0,0.25,0.0,1.0,0.0,0.0,0.25,-0.11,-0.42,1.2,76.29,5.9,15.2
5.86,0.0,0.25,0.5,0.25,0.5,0.25,0.0,0.0,0.0,0.0,0.0,0.25,0.0,-1.23,-0.11,0.45,40.72,10.6,39.9,0.0,0.0,0.0,0.5,1.25,1.25,0.0,0.0,0.0,0.5,0.0,0.0,0.25,-0.23,-0.36,1.14,74.32,8.7,20.9
5.88,0.25,0.0,1.0,0.25,0.0,0.0,0.0,0.0,0.0,0.0,0.0,0.25,0.0,-1.11,-0.23,0.52,35.76,30.6,41.4,0.75,0.25,0.0,0.25,1.25,1.0,0.0,0.0,0.0,0.75,0.0,0.0,0.25,-0.17,-0.36,1.08,74.2,2.0,28.9
5.9,0.0,0.25,1.0,0.0,0.5,0.25,0.0,0.0,0.0,0.0,0.0,0.25,0.5,-1.11,-0.23,0.45,38.09,10.6,15.1,0.25,0.0,0.0,0.5,1.25,0.5,0.0,0.0,0.0,0.0,0.0,0.0,0.25,-0.11,-0.3,0.89,65.63,0.6,40.3
5.92,0.0,0.25,1.0,0.5,0.0,0.25,0.5,0.0,0.0,0.0,0.0,0.25,0.75,-1.36,-0.23,0.39,43.97,13.8,6.3,0.5,0.5,0.0,1.0,1.25,1.0,0.0,0.0,0.0,1.0,0.0,0.0,0.25,-0.11,-0.3,0.89,73.33,0.8,28.7
5.94,0.0,0.5,1.0,0.25,0.5,0.0,0.25,0.0,0.0,0.0,0.0,0.25,0.5,-1.61,-0.23,0.2,49.49,14.5,24.2,0.0,0.25,0.0,0.5,1.25,1.0,0.0,0.0,0.0,0.75,0.0,0.0,0.25,-0.11,-0.23,0.7,71.38,7.0,19.2
5.96,0.0,0.25,0.75,0.5,0.5,0.25,0.25,0.0,0.0,0.0,0.0,0.25,0.75,-1.61,-0.3,-0.05,54.28,8.5,9.4,0.25,0.25,0.0,1.0,1.25,1.0,0.0,0.0,0.0,1.0,0.0,0.0,0.25,-0.11,-0.23,0.64,78.32,3.1,22.1
5.98,0.25,0.25,1.0,0.25,0.5,0.25,0.25,0.0,0.0,0.0,0.0,0.25,0.25,-1.23,-0.3,-0.11,56.79,15.6,35.0,0.0,0.5,0.0,0.75,1.25,1.0,0.0,0.0,0.0,0.75,0.0,0.0,0.25,-0.11,-0.11,0.64,78.45,4.6,25.7
6.0,1.25,0.5,2.75,1.75,0.75,1.5,1.25,1.0,0.25,1.75,0.25,0.25,1.25,-0.98,-0.36,-0.11,113.5,8.3,13.4,0.0,0.0,0.0,0.5,1.25,1.0,0.0,0.0,0.0,0.75,0.0,0.0,0.25,-0.11,-0.11,0.7,75.38,8.3,14.0
6.02,1.75,0.5,1.75,1.75,0.5,1.5,0.5,1.0,0.0,1.75,0.5,1.75,1.5,-0.67,-0.36,0.02,162.21,6.3,-3.8,0.5,0.5,0.0,0.75,1.25,1.0,0.0,0.0,0.0,0.75,0.0,0.0,0.25,-0.05,-0.11,0.64,75.94,1.0,32.2
6.04,1.75,0.5,2.75,2.0,0.75,1.5,0.0,1.0,0.25,1.25,0.25,1.5,1.25,-0.48,-0.42,0.2,207.56,9.2,8.9,0.0,0.0,0.0,0.25,1.25,1.25,0.0,0.0,0.0,0.75,0.0,0.0,0.25,0.02,-0.11,0.58,71.43,10.9,12.2
6.06,1.25,0.5,2.0,1.75,0.75,1.5,0.0,1.0,0.0,1.25,0.5,1.75,1.5,-0.36,-0.42,0.33,224.83,6.1,-2.7,0.5,0.5,0.0,0.5,1.25,1.0,0.0,0.0,0.0,1.0,0.0,0.0,0.25,0.14,-0.11,0.64,75.82,2.6,25.7
6.08,1.25,1.0,2.0,1.75,1.25,1.5,0.0,1.0,0.0,1.75,0.5,1.75,1.75,-0.3,-0.48,0.39,239.56,5.0,-1.4,0.5,0.25,0.0,0.0,1.25,1.0,0.0,0.0,0.0,0.75,0.0,0.0,0.25,0.14,-0.11,0.7,72.82,5.3,23.2
6.1,1.75,0.5,2.25,2.0,1.25,1.5,0.0,1.0,0.0,1.5,0.5,1.5,1.5,-0.23,-0.48,0.39,242.65,7.0,4.9,0.5,0.75,0.0,0.5,1.25,1.0,0.0,0.0,0.0,0.5,0.0,0.0,0.25,0.2,-0.05,0.64,77.65,0.5,39.9
6.12,1.75,0.5,2.0,1.75,0.75,1.5,0.0,1.5,0.0,1.25,0.25,1.5,1.25,-0.17,-0.42,0.45,240.9,6.5,4.3,0.0,0.75,0.0,0.5,1.25,0.75,0.0,0.0,0.0,0.75,0.0,0.0,0.25,0.27,0.02,0.64,75.18,3.9,27.6
6.14,1.25,0.5,2.25,1.75,0.75,1.5,0.0,1.0,0.0,1.5,0.0,1.75,1.25,-0.11,-0.42,0.52,234.41,6.5,1.6,0.25,0.75,0.0,0.5,1.25,1.0,0.0,0.0,0.0,0.75,0.0,0.0,0.25,0.33,0.08,0.58,78.59,2.9,31.3
6.16,0.0,0.25,0.75,0.0,0.5,0.25,0.0,0.0,0.0,0.0,0.0,0.25,0.25,-0.11,-0.42,0.45,177.77,10.2,23.8,0.0,0.0,0.0,0.5,1.25,0.5,0.0,0.0,0.0,0.5,0.0,0.0,0.25,0.33,0.2,0.58,68.08,5.6,18.0
6.18,0.0,0.0,0.5,0.0,0.0,0.0,0.0,0.0,0.0,0.0,0.0,0.25,0.25,-0.05,-0.36,0.45,111.71,18.0,-23.7,0.0,0.25,0.0,0.5,1.25,1.0,0.0,0.0,0.0,0.75,0.0,0.0,0.25,0.14,0.33,0.77,67.27,7.0,19.2
6.2,0.0,0.25,0.75,0.0,0.5,0.25,0.0,0.0,0.0,0.0,0.0,0.25,0.25,0.02,-0.3,0.39,52.85,10.2,23.8,0.0,0.0,0.0,0.5,1.25,0.5,0.0,0.0,0.0,0.75,0.0,0.0,0.25,0.08,0.33,0.7,59.69,6.3,11.2
6.22,0.0,0.25,0.25,0.0,0.5,0.25,0.0,0.0,0.0,0.0,0.0,0.0,0.0,0.08,-0.17,0.45,12.42,4.3,60.3,0.25,0.5,0.0,0.75,1.25,1.0,0.0,0.0,0.0,1.5,0.0,0.0,0.25,-0.05,-0.61,1.33,69.45,4.4,15.3
6.24,0.0,0.25,1.0,0.25,0.0,0.25,0.0,0.0,0.0,0.0,0.0,0.25,0.0,0.14,-0.05,0.52,0.0,21.6,41.4,0.25,0.0,0.0,0.5,1.25,0.5,0.0,0.0,0.0,1.5,0.0,0.0,0.25,4.08,-7.36,3.58,70.33,5.7,1.1
6.26,1.75,0.5,1.25,1.75,0.0,1.75,0.0,0.0,0.0,1.0,0.25,0.25,1.0,0.14,-0.05,0.58,33.04,8.6,23.0,1.25,0.5,0.0,0.5,1.25,1.0,0.5,0.5,0.0,1.75,1.5,0.0,1.25,0.14,0.14,0.95,99.57,0.0,-9.2
