time,left pressure 0[N/cm虏],left pressure 1[N/cm虏],left pressure 2[N/cm虏],left pressure 3[N/cm虏],left pressure 4[N/cm虏],left pressure 5[N/cm虏],left pressure 6[N/cm虏],left pressure 7[N/cm虏],left pressure 8[N/cm虏],left pressure 9[N/cm虏],left pressure 10[N/cm虏],left pressure 11[N/cm虏],left pressure 12[N/cm虏],left acceleration X[g],left acceleration Y[g],left acceleration Z[g],left total force[N],left center of pressure X[mm],left center of pressure Y[mm],right pressure 0[N/cm虏],right pressure 1[N/cm虏],right pressure 2[N/cm虏],right pressure 3[N/cm虏],right pressure 4[N/cm虏],right pressure 5[N/cm虏],right pressure 6[N/cm虏],right pressure 7[N/cm虏],right pressure 8[N/cm虏],right pressure 9[N/cm虏],right pressure 10[N/cm虏],right pressure 11[N/cm虏],right pressure 12[N/cm虏],right acceleration X[g],right acceleration Y[g],right acceleration Z[g],right total force[N],right center of pressure X[mm],right center of pressure Y[mm]
0.02,1.75,0.0,2.25,2.5,0.75,1.5,1.25,2.5,0.75,3.5,2.75,5.25,6.0,0.39,0.2,1.77,310.17,2.5,-42.2,2.0,1.75,0.75,2.75,4.75,1.25,1.0,1.75,0.75,2.25,1.75,1.0,0.5,-0.3,-0.36,0.64,255.04,-4.5,16.1
0.04,0.0,0.0,0.5,1.0,0.0,1.25,1.25,1.5,0.25,2.5,1.25,5.75,6.0,-1.55,0.45,4.08,340.68,-2.5,-72.7,1.5,1.5,1.5,2.75,5.25,1.25,1.0,0.75,1.0,1.5,2.0,1.25,0.75,-0.11,-0.36,0.83,266.92,-6.4,17.1
0.06,0.5,0.0,0.0,3.25,0.0,2.75,1.0,2.25,1.75,4.25,3.5,7.25,7.25,-0.05,0.08,1.2,404.17,-1.6,-60.1,1.75,1.5,0.0,2.75,3.25,0.75,0.75,0.0,1.0,0.0,1.25,1.0,1.0,-0.05,-0.3,0.89,255.31,-8.5,24.0
0.08,0.5,0.0,1.0,1.75,1.25,1.5,1.25,3.5,1.75,3.75,2.5,6.5,6.5,-0.17,-0.05,0.95,441.84,-1.1,-56.0,2.0,1.75,0.0,2.25,2.75,1.0,1.0,0.0,0.75,2.25,1.5,1.0,1.0,-0.11,-0.17,0.95,249.41,-5.6,10.7
0.1,0.75,0.25,1.5,1.75,0.0,1.5,0.5,2.75,2.0,5.0,2.75,7.0,7.0,-0.17,0.02,0.95,489.87,-0.4,-60.4,1.75,1.5,0.0,2.5,1.25,0.0,0.75,0.0,0.75,2.25,1.75,1.0,0.25,-0.11,-0.05,1.08,227.29,-9.2,6.5
0.12,0.5,0.25,1.75,2.0,0.0,2.25,1.5,3.0,2.75,3.5,3.0,7.5,7.75,-0.11,-0.05,0.95,524.79,0.4,-57.2,1.25,1.5,0.0,2.0,1.25,0.5,1.0,0.5,0.75,2.25,1.5,1.0,0.25,-0.05,0.08,1.33,210.33,-6.1,2.2
0.14,1.0,0.25,1.5,1.75,0.0,2.5,3.0,4.5,2.75,5.25,4.0,7.5,7.75,-0.11,-0.05,0.95,575.88,-0.1,-55.4,1.5,1.5,0.0,2.0,1.5,1.25,1.0,0.0,1.0,2.5,1.5,1.0,0.75,0.08,0.2,1.58,194.56,-4.8,1.7
0.16,1.75,0.5,3.75,3.25,3.5,3.5,4.0,5.25,3.5,7.0,5.5,8.25,8.75,-0.11,-0.05,0.95,707.19,1.6,-37.4,2.0,1.5,0.0,1.75,1.25,0.75,0.5,0.0,0.75,2.25,1.5,1.0,1.0,0.14,0.33,1.95,177.78,-6.1,1.3
0.18,2.0,0.5,3.75,3.25,3.5,4.0,3.75,5.5,3.75,7.25,5.5,8.25,8.5,-0.11,-0.05,0.95,835.36,1.4,-36.3,1.5,1.5,0.5,1.25,3.0,1.0,0.75,0.0,0.75,2.25,1.25,1.0,1.0,0.27,0.64,2.33,185.75,-4.4,7.1
0.2,2.0,1.25,3.75,3.25,3.0,4.0,4.0,5.5,4.0,7.25,5.5,8.25,8.5,-0.11,-0.05,0.95,938.41,1.7,-35.3,1.0,1.5,0.75,2.0,3.5,1.0,0.5,0.0,0.75,2.25,1.25,1.0,1.25,0.39,1.45,2.58,199.41,-4.0,7.5
0.22,1.75,0.75,3.75,3.25,4.25,4.5,4.25,5.5,4.0,7.25,5.0,8.0,8.5,-0.11,-0.05,0.95,985.3,1.1,-33.5,1.0,1.5,0.25,1.0,3.25,1.25,0.75,0.25,0.75,3.25,1.25,1.25,1.0,0.33,2.14,2.27,212.54,-0.9,-3.1
0.24,2.0,1.5,4.0,3.25,3.75,4.5,4.5,5.5,4.25,6.5,5.5,7.75,8.25,-0.11,-0.05,0.95,998.22,2.1,-30.7,1.75,1.5,0.5,1.25,3.25,1.0,0.5,0.0,0.75,2.25,1.5,1.5,1.0,0.14,3.58,1.77,221.68,-4.7,4.4
0.26,2.25,1.75,4.25,3.75,3.75,5.25,4.5,6.0,4.25,6.5,5.25,7.5,8.0,-0.11,-0.05,0.95,1001.92,2.1,-27.0,1.25,1.5,0.5,0.75,3.0,1.25,0.5,0.25,0.5,2.25,1.25,1.0,1.0,-0.55,5.39,-0.36,221.76,-2.4,4.2
0.28,2.0,1.75,4.0,3.25,3.5,5.25,4.5,5.75,4.25,6.5,5.5,7.5,7.75,-0.11,-0.05,0.95,997.15,1.9,-28.8,1.25,1.5,0.5,1.25,2.25,1.0,0.5,0.0,0.0,2.25,2.0,1.5,1.25,-5.55,7.83,3.45,220.81,-4.0,-4.4
0.3,2.25,1.75,4.0,3.25,4.5,5.75,4.75,5.5,4.25,6.25,5.0,6.75,7.75,-0.11,-0.05,0.95,978.89,1.8,-24.5,1.5,1.5,0.0,1.0,3.25,1.25,0.5,0.0,1.0,3.5,2.0,1.25,2.0,1.33,-1.17,2.58,233.67,-0.8,-11.2
0.32,2.25,1.75,4.0,3.25,4.75,5.75,4.75,5.75,4.25,6.25,4.25,6.75,7.0,-0.11,-0.05,0.95,960.56,1.7,-22.4,1.25,1.5,0.25,0.75,3.75,1.25,0.5,0.0,0.75,5.25,2.75,3.25,2.0,-0.05,0.2,0.64,259.17,-0.2,-25.5
0.34,2.5,1.75,4.25,3.25,5.0,5.75,4.75,6.0,4.5,6.25,4.75,5.75,6.75,-0.11,-0.05,0.95,942.29,2.0,-19.9,1.25,1.5,0.75,1.25,3.5,0.0,0.5,0.0,1.0,6.0,3.5,5.25,5.25,-0.23,0.14,1.89,313.33,-1.1,-43.2
0.36,3.0,1.75,4.25,3.25,5.25,5.75,5.0,6.0,4.75,6.25,4.75,5.75,6.0,-0.11,-0.05,0.95,924.93,2.5,-17.5,2.0,1.5,1.0,2.75,0.0,2.75,1.0,0.0,1.5,7.75,5.75,6.5,6.5,-0.11,0.45,1.7,407.31,-1.3,-47.9
0.38,3.5,1.75,4.25,3.5,5.0,6.25,5.25,6.0,4.75,5.75,4.75,5.25,6.0,-0.11,-0.05,0.95,911.33,2.8,-14.8,2.0,1.75,1.25,2.75,3.25,3.75,0.75,0.0,2.0,8.0,7.0,6.5,7.5,-0.05,0.08,1.14,543.61,-0.6,-39.0
0.4,3.5,1.75,4.25,3.75,5.25,7.0,5.25,6.25,5.0,5.0,5.0,5.0,5.25,-0.11,-0.05,0.95,902.67,3.0,-11.7,2.0,1.5,1.25,3.0,5.0,5.5,1.5,4.5,2.0,8.5,7.0,6.5,7.75,0.14,0.08,1.02,709.1,1.6,-33.8
0.42,3.5,1.75,4.25,5.25,6.25,7.0,5.75,6.5,5.0,5.0,4.5,3.5,5.25,-0.11,-0.05,0.95,922.04,3.1,-5.7,2.0,1.5,1.25,2.5,5.0,5.5,1.25,5.5,2.0,8.5,7.0,6.5,7.75,0.2,0.02,0.95,840.06,2.1,-34.9
0.44,3.75,1.75,4.25,5.25,6.75,8.0,6.0,6.75,5.25,5.0,3.5,3.5,4.0,-0.11,-0.05,0.95,942.89,3.0,-1.1,2.0,1.5,1.25,2.75,5.0,5.5,1.5,5.5,2.0,8.75,7.0,7.0,8.0,0.14,0.02,0.95,939.54,1.9,-35.5
0.46,4.25,1.75,4.25,5.5,8.25,8.0,6.5,7.0,5.25,5.0,3.75,3.25,3.5,-0.11,-0.05,0.95,980.52,3.3,2.3,2.0,1.5,1.25,3.0,5.0,5.5,1.5,5.75,2.0,8.75,7.0,7.0,8.0,0.14,0.02,0.89,993.8,1.9,-35.1
0.48,5.25,2.0,5.5,7.0,9.0,8.75,6.75,7.25,5.0,4.75,2.75,2.75,3.25,-0.11,-0.05,0.95,1045.39,4.3,10.1,2.0,1.5,1.25,3.0,5.0,5.75,1.5,5.75,2.5,8.75,7.0,6.75,8.0,0.14,0.02,0.89,1021.64,1.9,-34.5
0.5,6.0,3.5,5.75,8.0,11.5,9.5,7.5,7.0,4.75,4.25,2.75,2.0,3.25,-0.11,-0.05,1.02,1154.43,4.8,17.8,2.0,1.5,1.0,3.0,4.75,6.0,1.5,6.25,2.75,8.0,6.25,6.5,7.75,0.14,0.02,0.95,1013.77,2.2,-33.5
0.52,7.75,2.0,5.0,11.0,13.5,10.5,7.75,7.0,4.25,3.5,2.75,2.0,3.25,-0.11,-0.05,1.08,1291.15,5.0,21.6,2.0,1.75,1.25,3.0,5.25,6.5,1.5,6.5,2.75,8.5,6.75,6.0,7.25,0.2,0.02,0.95,1002.25,2.2,-30.5
0.54,9.0,2.75,6.5,11.5,14.5,10.5,7.25,6.75,3.5,3.5,2.25,2.0,3.25,-0.23,0.02,1.08,1396.87,6.0,26.1,2.25,1.75,1.75,3.25,5.25,6.75,1.5,0.0,3.0,7.25,6.25,4.5,6.75,0.2,0.02,0.95,916.96,-0.2,-22.4
0.56,10.5,3.5,7.25,11.5,14.5,10.0,6.25,6.25,2.75,2.75,1.5,1.75,2.0,-0.23,0.08,1.27,1461.38,7.5,34.0,2.0,1.75,1.25,3.25,6.75,7.25,2.25,0.0,3.0,7.5,5.5,4.0,5.5,0.2,0.02,0.95,837.47,0.3,-16.6
0.58,11.5,3.5,7.25,11.0,14.5,9.5,5.25,6.25,1.75,1.5,1.25,1.75,1.75,-0.23,0.14,1.64,1477.58,8.2,38.2,2.5,1.75,1.25,3.25,7.0,7.75,2.25,0.0,2.75,6.75,4.5,2.75,4.5,0.2,0.02,0.95,746.17,0.2,-7.6
0.6,12.0,3.5,7.25,8.75,12.5,8.0,4.25,5.75,1.75,2.75,1.25,1.75,1.75,-0.67,0.14,1.77,1434.33,8.6,36.1,2.25,2.0,1.25,3.5,7.75,8.0,2.25,0.0,2.75,5.75,4.5,2.5,3.75,0.2,0.02,0.95,685.61,0.0,-2.1
0.62,11.5,3.5,7.25,6.75,9.0,6.5,3.75,4.75,1.0,2.5,0.25,1.75,1.75,-0.67,0.58,2.2,1315.84,10.1,38.3,2.5,2.0,1.25,5.0,8.25,8.25,2.25,0.0,2.25,5.25,3.75,2.5,2.5,0.2,0.02,0.95,645.54,-0.9,6.7
0.64,7.75,1.75,5.75,3.0,7.5,1.75,3.0,3.5,0.25,0.0,0.0,0.0,1.25,-0.73,0.45,2.58,979.82,13.2,48.8,3.25,2.5,1.75,5.5,9.25,8.5,2.25,6.5,2.0,5.5,2.75,1.5,2.0,0.2,0.08,0.95,680.53,0.6,10.1
0.66,5.5,0.25,3.0,1.5,3.0,0.0,1.25,0.5,0.25,0.0,0.0,0.25,1.25,-0.86,0.2,2.14,586.31,19.2,49.5,3.25,2.5,2.0,5.5,9.5,8.75,2.25,6.5,1.75,5.75,2.25,1.5,2.0,0.2,0.08,0.95,728.16,0.8,11.2
0.68,1.25,0.25,0.25,1.75,0.75,1.25,0.0,0.0,0.25,0.0,0.0,0.25,1.25,-0.61,-0.48,1.58,283.52,5.8,23.1,3.5,2.5,1.5,5.75,11.0,9.25,2.25,6.0,1.5,5.25,2.25,1.5,1.75,0.2,0.08,0.95,782.58,0.9,15.0
0.7,1.0,0.0,1.75,1.0,0.0,1.0,0.0,1.0,0.25,0.0,0.25,0.25,0.0,-0.11,-0.23,1.58,95.14,13.7,30.9,3.75,2.5,1.75,7.25,11.0,9.5,2.0,0.0,1.5,5.0,2.25,0.75,2.0,0.2,0.08,1.02,792.32,-1.6,25.2
0.72,0.75,0.25,1.5,1.75,0.0,0.75,0.0,0.5,0.25,0.0,0.25,0.25,0.0,-1.05,-1.23,2.64,0.0,16.1,38.8,3.75,2.75,3.0,7.5,12.0,10.0,1.75,0.0,1.5,5.0,2.0,1.0,2.0,0.2,0.08,0.95,817.12,-2.2,27.1
0.74,1.75,0.25,1.5,1.75,0.5,0.5,1.0,0.0,0.0,0.0,0.25,0.75,0.0,-0.92,-1.23,1.7,0.0,20.9,44.4,3.75,2.5,3.75,8.5,12.5,10.5,1.75,0.0,1.5,5.0,2.25,1.0,1.75,0.2,0.14,0.95,849.41,-2.8,28.4
0.76,1.0,0.25,1.5,0.25,0.0,0.5,1.0,1.0,0.0,0.0,0.25,0.0,0.0,-0.48,-0.8,0.52,0.0,17.3,38.2,3.75,2.5,4.0,7.5,13.5,9.5,1.5,0.0,0.75,2.75,2.0,0.25,2.0,0.14,0.14,0.95,860.04,-3.4,35.8
0.78,1.5,1.0,1.5,0.0,0.0,0.5,1.25,0.75,0.0,0.0,0.25,0.25,0.0,-0.42,-0.67,0.2,0.0,19.4,46.3,3.75,3.0,3.5,9.25,12.5,9.0,1.25,0.0,0.75,2.25,1.25,0.25,1.25,0.14,0.2,1.02,857.28,-4.3,41.7
0.8,1.75,0.75,1.75,2.0,0.0,1.5,1.75,1.0,0.5,0.0,1.25,1.0,1.25,-0.42,-0.55,0.27,0.0,11.8,10.2,5.5,3.25,4.0,9.0,12.5,9.5,1.25,0.0,0.75,1.75,1.25,0.75,1.25,0.2,0.2,1.02,856.68,-5.6,43.4
0.82,1.75,1.0,2.0,1.75,0.5,1.25,2.0,1.0,0.25,0.5,1.25,1.25,1.25,-0.48,-0.48,0.52,10.18,11.3,9.2,5.75,3.0,6.0,9.5,12.5,9.25,1.0,0.0,0.5,2.25,2.0,1.25,1.25,0.14,0.2,1.02,882.43,-6.9,40.6
0.84,1.75,1.0,2.75,1.75,0.5,1.5,2.0,1.0,0.25,1.25,1.25,1.0,0.75,-0.55,-0.48,0.7,96.48,11.7,13.8,6.75,3.5,6.0,12.5,13.5,9.75,0.0,0.0,0.25,3.0,1.5,1.0,1.75,0.2,0.27,1.08,954.51,-6.8,42.3
0.86,1.75,0.75,2.0,1.75,0.5,1.5,2.5,1.0,0.25,0.5,1.25,1.5,1.5,-0.61,-0.36,0.83,162.81,10.6,4.4,8.0,4.75,6.5,12.5,11.5,9.0,0.25,0.0,0.75,2.75,1.75,1.0,1.75,0.33,0.33,1.33,1027.43,-8.6,43.7
0.88,1.75,0.75,2.75,1.75,0.75,1.5,2.25,0.75,0.25,0.0,0.5,1.75,1.5,-0.61,-0.17,0.95,210.97,12.9,13.4,7.5,3.5,7.25,11.0,11.0,7.75,0.5,0.0,0.25,1.5,1.25,0.75,0.75,0.45,0.39,1.45,1023.14,-10.3,50.0
0.9,1.75,0.5,2.5,1.75,0.75,1.25,2.0,1.5,0.25,0.0,1.25,1.75,1.5,-0.55,-0.05,1.08,233.76,11.4,4.2,7.0,3.25,7.25,9.75,10.5,7.5,1.5,0.0,0.75,1.5,0.75,0.25,0.5,0.58,0.45,1.64,975.72,-10.5,51.6
0.92,1.75,0.5,2.25,2.25,0.75,0.5,2.0,1.0,0.25,0.0,0.0,1.75,1.25,-0.55,0.08,1.27,233.79,14.5,14.6,7.0,2.5,7.25,8.5,8.25,6.75,1.75,0.0,0.25,2.25,0.0,0.0,0.25,0.95,0.83,2.02,870.62,-11.4,53.5
0.94,1.75,0.75,2.5,2.5,0.75,0.0,2.25,0.5,0.25,0.0,1.0,1.75,1.25,-0.61,0.27,1.52,230.4,17.1,13.0,5.5,1.75,5.75,5.75,7.0,5.5,1.5,0.0,0.0,2.0,0.25,0.0,0.0,0.89,0.89,2.64,716.31,-10.8,52.7
0.96,1.5,0.5,2.5,2.75,0.75,1.25,2.0,1.0,0.25,0.0,0.5,1.5,1.5,-0.67,0.39,1.89,228.63,12.4,13.6,2.0,0.75,2.75,3.25,4.75,1.25,0.75,0.0,0.25,1.5,0.0,0.25,0.25,0.7,0.45,2.02,480.75,-10.2,43.7
0.98,1.25,0.5,2.5,2.75,0.75,0.25,2.0,1.0,0.25,0.25,1.25,1.75,1.5,-0.8,0.58,2.33,227.87,13.6,3.3,0.0,0.75,0.0,0.25,3.0,1.0,0.25,0.25,0.25,1.5,0.0,0.0,0.25,0.39,0.14,1.14,280.26,5.5,19.4
1.0,1.75,0.75,2.25,2.75,1.25,1.25,2.0,1.0,0.25,0.0,0.25,1.5,1.25,-1.05,1.45,2.77,229.98,12.2,20.4,0.0,0.75,0.0,0.0,3.5,0.5,0.25,0.25,0.5,2.25,0.0,0.0,0.25,0.45,-1.11,2.2,146.02,5.4,9.8
1.02,1.75,0.5,2.5,2.0,0.75,1.25,2.0,1.0,0.25,0.25,0.5,1.75,1.5,-0.92,2.64,2.77,225.72,12.0,9.1,1.0,1.5,0.0,1.0,3.0,1.0,0.25,0.5,0.75,2.25,0.0,1.0,0.0,0.64,-0.98,1.27,62.74,-1.2,15.8
1.04,1.75,0.5,1.75,2.5,0.75,0.25,2.0,1.0,0.25,0.0,0.75,1.75,1.25,-0.36,3.83,1.77,213.81,14.1,8.6,2.0,1.75,1.0,1.75,5.0,1.0,0.75,1.75,0.75,2.5,0.5,1.0,0.25,0.45,-0.67,0.39,74.73,-3.9,20.7
1.06,1.75,0.5,1.75,2.5,0.75,1.25,1.75,1.75,0.25,1.0,0.25,1.75,1.5,0.7,5.27,-0.23,214.72,8.1,3.1,0.5,0.75,0.5,0.5,5.25,0.25,0.75,1.75,0.25,1.0,1.25,0.0,1.0,0.14,-0.36,0.27,82.8,0.1,11.9
1.08,1.25,0.5,1.75,1.75,0.75,1.25,1.5,1.5,0.25,2.25,1.0,1.75,1.5,3.77,7.27,-1.05,217.31,5.4,-11.2,0.5,0.25,0.0,0.5,1.25,0.5,0.25,0.25,0.25,1.0,0.0,0.0,0.0,0.02,-0.23,0.39,48.75,0.0,21.6
1.1,1.0,0.75,1.75,1.75,0.0,1.75,1.25,1.5,0.5,2.75,1.75,3.25,3.25,-1.17,-0.3,0.83,238.92,3.0,-32.9,0.5,0.75,0.0,0.5,1.25,0.75,0.25,0.25,0.25,1.5,0.0,0.0,0.0,0.02,-0.23,0.64,14.03,1.1,20.6
1.12,0.0,0.25,2.25,0.25,0.75,1.0,1.25,2.5,0.25,2.5,2.5,5.0,5.75,0.45,0.14,-0.11,274.2,0.1,-58.7,0.5,0.5,0.0,0.5,1.25,0.0,0.25,0.25,0.25,1.25,0.0,0.0,0.0,0.2,-0.23,0.7,0.0,-2.1,19.5
1.14,0.0,0.0,0.5,1.0,0.0,2.25,0.5,3.25,1.5,4.25,0.75,6.0,6.25,0.89,0.58,2.14,318.68,-5.1,-67.2,0.5,0.5,0.0,0.5,1.5,0.5,0.25,0.25,0.25,1.25,0.0,0.25,0.0,0.27,-0.17,0.83,0.0,0.0,16.8
1.16,0.75,0.0,0.25,2.5,0.0,3.5,0.0,4.75,2.0,5.0,2.75,7.5,6.75,-0.11,0.58,1.14,401.38,-3.6,-58.1,0.5,0.5,0.0,0.5,1.25,0.75,0.25,0.25,0.25,1.0,0.0,0.0,0.25,0.2,-0.05,0.95,11.41,1.0,19.6
1.18,1.5,0.0,0.0,2.25,0.0,2.75,2.5,2.75,2.0,5.0,1.25,6.75,7.5,-0.17,-0.11,0.95,461.84,-1.9,-55.9,0.5,0.25,0.0,0.5,1.25,0.5,0.25,0.25,0.25,0.75,0.0,0.0,0.0,0.27,0.02,1.27,38.66,-0.8,27.0
1.2,0.0,0.25,1.75,2.25,0.5,3.25,3.75,4.75,2.75,5.0,2.5,7.5,7.5,-0.05,0.08,1.02,545.07,-0.9,-51.6,0.5,0.25,0.0,0.5,2.25,0.75,0.25,0.25,0.0,0.75,0.0,0.0,0.0,0.39,0.2,1.52,61.55,1.4,35.5
1.22,2.25,0.0,2.0,3.25,0.5,4.5,4.25,5.0,3.5,6.5,4.0,8.25,9.0,-0.11,-0.05,0.95,659.29,0.4,-44.7,0.5,0.5,0.0,0.5,1.25,0.0,0.25,0.25,0.0,1.25,0.0,0.25,0.0,0.45,0.39,1.83,63.9,-1.9,15.8
1.24,2.5,0.0,4.0,3.25,1.75,5.0,5.0,6.25,4.0,7.0,5.75,7.5,8.75,-0.11,-0.05,0.95,805.6,1.6,-36.7,0.5,0.25,0.0,0.5,1.25,0.75,0.25,0.25,0.0,1.0,0.0,0.0,0.0,0.64,0.7,2.52,59.2,1.7,25.3
1.26,3.5,0.75,4.25,3.25,5.25,5.75,5.25,6.25,4.25,7.5,5.5,7.5,8.5,-0.11,-0.05,0.95,960.87,1.8,-26.2,0.5,0.5,0.0,0.5,1.75,0.75,0.25,0.25,0.0,1.25,0.0,0.0,0.0,1.02,1.2,2.89,60.41,1.8,27.0
1.28,3.5,1.75,4.25,3.25,5.0,5.75,5.5,6.75,4.25,7.25,5.0,7.25,8.0,-0.11,-0.05,0.95,1077.96,2.0,-23.0,0.5,0.5,0.0,0.5,1.25,0.0,0.0,0.25,0.25,1.5,0.0,0.25,0.25,1.27,2.64,2.83,64.96,-0.1,3.0
1.3,3.5,1.75,4.25,3.25,5.25,6.5,5.25,6.5,4.25,6.5,4.75,6.75,7.75,-0.11,-0.05,0.95,1135.44,1.9,-20.2,0.5,0.25,0.0,0.5,1.25,0.5,0.0,0.25,0.0,1.25,0.0,0.0,0.0,1.39,4.14,0.89,74.98,2.3,19.4
1.32,3.5,1.75,4.25,3.25,5.5,6.25,5.5,6.75,4.0,6.0,5.25,5.25,6.75,-0.11,-0.05,0.95,1130.1,2.2,-16.3,0.5,0.25,0.0,0.5,1.25,1.0,0.0,0.25,0.0,1.0,0.25,0.25,0.0,0.27,5.39,-1.05,83.04,2.3,14.9
1.34,2.5,2.0,3.75,5.0,6.5,6.75,5.25,6.25,3.5,5.0,2.75,3.5,5.5,-0.17,-0.05,0.95,1071.38,1.7,-5.2,0.5,0.0,0.0,0.5,1.25,0.0,0.0,0.25,0.0,1.5,0.0,0.0,0.0,-2.55,6.64,-0.05,76.25,1.7,7.2
1.36,3.5,1.75,3.5,5.25,5.25,7.25,5.25,6.0,4.25,5.0,2.75,3.5,5.0,-0.11,-0.05,0.95,1007.97,2.4,-4.5,1.0,1.5,0.75,1.5,4.25,2.25,0.5,1.75,0.25,2.25,1.5,1.0,1.25,0.02,0.45,-0.23,151.52,0.1,5.8
1.38,4.0,1.75,4.25,5.25,7.5,8.0,6.0,6.5,4.0,5.0,3.0,3.0,4.0,-0.11,-0.05,0.95,986.85,2.8,2.4,0.75,1.5,0.5,1.25,4.5,2.5,0.5,1.75,0.25,2.75,2.25,2.25,1.75,-0.23,-0.17,1.33,222.86,1.2,-8.6
1.4,4.25,1.75,4.25,5.25,7.5,8.0,6.0,6.75,3.75,4.75,3.0,3.0,3.5,-0.11,-0.05,0.95,974.33,3.0,4.1,0.0,1.0,0.75,0.5,3.5,2.75,0.5,0.0,0.75,5.25,3.0,4.0,3.75,-0.55,0.02,1.7,294.11,2.8,-39.0
1.42,4.75,1.75,4.25,5.5,8.25,8.0,6.0,6.5,3.5,4.25,3.25,2.0,3.75,-0.11,-0.05,0.95,978.8,3.3,7.9,0.25,0.0,0.0,0.5,1.25,3.5,0.5,0.0,1.25,7.25,5.25,5.75,5.75,-0.67,0.83,1.52,377.23,4.1,-64.8
1.44,5.25,1.75,4.25,7.0,9.0,8.75,6.25,6.5,3.5,3.75,2.5,2.0,3.0,-0.17,-0.05,0.95,983.35,3.8,14.0,2.25,1.75,0.0,3.0,2.25,5.5,1.0,4.25,2.75,8.25,6.75,6.75,6.5,-0.05,-0.11,1.14,547.61,1.8,-38.8
1.46,5.25,2.0,4.75,7.0,9.5,9.0,6.5,6.5,3.5,3.5,2.5,2.0,3.0,-0.17,-0.05,0.95,997.31,4.1,15.6,2.0,1.5,1.5,3.0,5.0,5.5,1.75,5.5,3.25,8.5,8.0,7.25,7.5,0.08,0.08,0.95,754.21,0.9,-34.8
1.48,6.0,2.0,5.75,7.75,11.5,9.25,6.5,6.5,3.5,3.5,3.5,2.0,3.0,-0.11,-0.05,0.95,1060.7,4.8,17.6,2.25,1.75,1.75,3.0,5.25,5.75,2.25,5.75,3.25,8.5,8.0,6.5,7.75,0.08,0.02,0.95,942.48,0.8,-31.8
1.5,6.5,2.25,5.75,8.75,11.5,9.5,6.5,6.75,3.5,2.75,2.0,2.0,2.5,-0.11,0.02,0.95,1123.47,5.3,22.9,3.0,1.75,1.75,3.0,5.25,6.0,2.25,5.75,3.5,8.25,7.5,6.0,7.25,0.14,0.02,0.95,1059.13,0.4,-28.2
1.52,7.0,3.0,5.75,9.0,12.5,9.5,6.5,6.75,3.25,3.5,1.25,2.0,2.25,-0.11,0.02,0.95,1202.74,5.3,25.5,3.0,1.75,2.0,3.25,6.0,6.5,2.25,6.0,3.5,7.75,6.75,5.75,6.5,0.14,0.02,0.95,1107.24,0.3,-23.5
1.54,7.75,3.25,5.0,11.0,13.5,10.5,6.5,6.5,3.0,3.0,1.0,2.0,2.0,-0.11,0.02,0.95,1281.4,5.3,29.5,3.25,1.75,3.5,3.25,6.5,6.75,2.5,6.0,3.5,7.25,6.0,5.25,6.0,0.14,0.02,0.95,1114.67,-0.7,-17.4
1.56,8.5,3.5,5.75,11.5,14.5,10.5,6.5,6.5,2.75,3.0,1.25,2.0,2.0,-0.17,0.08,0.95,1353.27,5.9,31.1,3.25,1.75,4.0,3.25,7.0,7.25,2.75,6.0,3.5,6.5,5.5,4.0,5.25,0.14,0.02,0.95,1096.74,-1.0,-11.1
1.58,9.25,3.5,5.0,13.0,15.0,11.0,6.25,7.0,2.5,2.75,1.5,2.0,1.75,-0.17,0.08,1.02,1416.13,5.7,32.4,3.25,2.25,2.75,3.25,7.0,7.25,2.75,6.0,3.25,6.0,4.5,2.75,3.25,0.14,0.02,0.95,1034.49,-0.5,-3.8
1.6,10.5,3.5,5.75,13.0,16.0,11.5,5.75,6.75,2.25,2.75,0.5,1.75,2.0,-0.11,0.14,1.02,1472.44,6.0,35.6,3.5,2.0,3.5,5.25,8.25,7.25,2.75,5.75,3.0,5.25,4.5,2.25,3.0,0.14,0.02,0.95,981.94,-1.9,3.4
1.62,11.5,3.75,7.0,13.0,16.0,11.5,5.0,6.75,1.75,2.75,1.75,1.75,1.75,-0.17,0.14,1.08,1523.94,6.8,36.2,3.75,2.5,4.0,5.5,8.5,7.5,2.75,5.5,2.75,5.25,3.5,1.5,2.0,0.14,0.02,0.95,939.4,-2.5,11.4
1.64,12.0,4.5,7.0,13.0,16.5,11.5,4.5,6.75,1.75,2.75,1.25,1.75,2.0,-0.3,0.2,1.14,1568.4,6.8,37.5,3.75,2.5,3.75,5.75,9.5,7.75,2.75,5.5,2.75,5.0,3.0,1.25,2.0,0.14,0.08,0.95,911.4,-2.2,14.1
1.66,13.5,4.25,7.0,13.0,16.5,11.0,2.5,6.25,1.5,2.75,1.0,1.75,2.0,-0.36,0.27,1.33,1587.81,7.3,39.4,3.75,3.0,4.0,7.25,9.5,8.25,2.75,5.5,2.0,5.0,2.75,1.25,2.0,0.14,0.08,0.95,896.8,-2.5,17.5
1.68,13.5,5.0,6.25,11.0,15.5,10.5,2.75,6.25,1.25,2.5,1.0,1.75,2.0,-0.36,0.33,1.39,1565.39,7.2,39.7,4.75,3.25,4.0,7.5,11.0,8.5,2.75,5.0,2.0,4.75,2.25,1.25,2.0,0.14,0.08,1.02,908.33,-3.0,22.1
1.7,13.5,4.75,5.75,8.75,14.0,9.25,2.75,5.75,1.0,2.75,1.0,1.75,1.75,-0.73,0.45,1.83,1490.65,7.5,39.5,5.5,3.25,4.25,9.0,11.0,8.75,2.75,4.75,2.0,4.5,2.25,1.25,1.75,0.14,0.08,1.02,947.92,-4.0,25.3
1.72,11.5,3.5,5.75,7.0,11.5,8.0,2.5,5.0,1.0,2.5,0.75,1.75,1.75,-0.98,0.83,2.58,1348.83,7.7,37.3,5.5,3.25,4.5,9.0,12.0,8.5,2.25,5.0,1.5,4.25,2.25,1.0,1.75,0.14,0.08,0.95,992.11,-3.9,27.1
1.74,7.75,2.0,4.25,3.75,8.25,5.5,1.25,3.25,1.0,0.0,0.25,0.25,1.25,-1.05,0.45,2.64,1014.79,8.4,45.1,5.75,3.25,4.0,9.5,12.5,8.75,2.25,4.75,1.5,3.75,2.0,1.25,0.75,0.14,0.14,0.89,1022.85,-4.2,31.0
1.76,4.25,0.0,1.75,2.75,0.0,2.5,0.0,1.0,0.0,0.0,0.0,0.25,0.25,-1.11,-0.05,2.2,564.37,14.8,52.0,6.0,3.25,4.0,10.5,13.0,8.75,1.75,0.0,1.25,3.5,2.0,1.25,1.75,0.08,0.14,0.95,1019.51,-5.8,35.9
1.78,1.5,0.75,0.0,2.5,0.0,1.5,0.0,1.0,0.25,0.0,0.5,0.25,0.25,-0.36,-0.23,1.02,264.55,7.2,32.3,7.0,3.75,4.25,11.0,13.5,9.0,1.5,0.0,1.25,3.75,2.25,1.25,1.75,0.08,0.14,0.95,1036.85,-6.2,37.0
1.8,1.5,1.5,1.5,3.25,0.5,2.5,0.0,1.5,0.25,0.75,0.0,1.75,1.25,-0.3,-0.73,2.45,109.71,5.7,14.4,7.0,4.25,4.0,11.0,14.0,9.0,1.5,0.0,1.25,1.5,2.0,1.25,1.75,0.14,0.2,0.95,1042.64,-6.9,42.3
1.82,2.0,1.5,2.75,3.25,0.75,2.5,0.0,1.0,0.5,0.0,1.25,0.25,1.5,-1.05,-1.17,2.27,37.02,10.2,28.0,7.5,4.75,4.5,11.5,14.0,9.0,1.25,4.5,1.0,3.0,2.0,1.0,1.75,0.14,0.2,0.95,1108.14,-5.3,36.2
1.84,0.25,0.0,1.5,2.0,0.0,1.25,0.0,0.0,0.25,0.0,0.0,0.25,0.0,-0.8,-0.92,1.02,0.0,14.7,43.5,8.0,4.75,4.75,12.5,15.5,9.0,1.0,0.0,1.0,3.5,2.0,1.25,1.75,0.14,0.27,0.95,1155.71,-6.9,41.2
1.86,1.0,0.25,2.75,2.0,0.75,1.25,0.0,1.0,0.0,0.0,0.0,0.25,1.0,-0.48,-0.61,0.39,0.0,11.6,30.4,8.25,5.0,5.5,12.5,15.5,9.25,1.0,0.0,0.75,0.5,1.75,1.0,1.75,0.14,0.27,1.02,1190.51,-8.3,48.6
1.88,1.75,1.0,1.25,3.25,0.0,2.0,0.0,1.0,0.0,1.0,1.0,1.5,0.25,-0.3,-0.42,0.39,0.0,8.7,15.9,8.75,4.75,4.25,12.5,15.5,10.0,1.25,0.0,0.75,2.5,1.5,1.0,1.75,0.14,0.33,0.95,1204.62,-6.8,45.0
1.9,1.75,1.0,1.0,3.25,0.0,1.5,0.0,1.0,0.25,1.5,0.0,1.25,0.0,-0.3,-0.3,0.45,0.0,8.7,21.7,8.75,4.75,4.75,12.5,14.5,10.0,1.0,0.0,0.75,1.75,1.75,1.0,1.75,0.27,0.33,1.02,1197.36,-7.5,46.0
1.92,2.0,1.0,2.75,3.25,0.75,1.75,0.0,1.0,0.25,1.5,0.25,1.75,1.25,-0.48,-0.23,0.52,59.65,9.4,13.8,8.75,5.25,5.5,12.5,15.5,9.75,0.0,0.0,0.75,1.75,1.25,1.0,1.75,0.39,0.39,1.14,1197.97,-7.6,47.7
1.94,1.75,1.0,2.75,3.0,0.75,1.5,0.25,1.0,0.25,2.5,1.25,1.75,1.25,-0.55,-0.23,0.64,138.18,8.3,2.8,8.75,5.5,6.25,12.5,14.0,9.0,1.0,0.0,0.0,2.0,1.0,1.0,1.75,0.45,0.45,1.27,1185.31,-8.7,48.9
1.96,1.75,0.75,2.75,1.75,0.75,1.25,1.5,1.0,0.25,1.5,1.25,1.5,1.5,-0.48,-0.11,0.89,192.74,9.9,2.0,8.0,3.75,5.0,9.0,12.0,8.5,0.5,0.0,0.25,0.75,1.0,0.75,0.5,0.52,0.52,1.58,1074.25,-8.7,53.0
1.98,0.75,0.5,2.5,1.75,0.75,1.25,2.0,1.0,0.25,1.75,0.75,1.5,1.25,-0.42,-0.05,1.2,222.18,8.2,-2.9,6.75,3.25,4.0,7.5,11.0,7.75,1.5,0.0,0.25,0.5,0.75,0.0,0.25,1.14,1.02,1.95,913.2,-8.3,56.0
2.0,2.0,1.0,2.25,0.75,0.75,1.25,2.0,1.0,0.25,2.0,0.5,1.75,1.25,-0.48,0.14,1.39,237.94,8.8,1.0,5.5,1.75,2.25,5.5,8.25,6.5,0.5,0.0,0.0,0.5,0.0,0.0,0.25,1.02,1.02,2.83,685.28,-6.7,57.3
2.02,1.75,0.5,2.5,1.5,0.75,1.25,2.0,1.0,0.25,1.75,0.5,1.75,1.25,-0.48,0.33,1.58,232.76,9.6,1.4,3.0,1.5,0.0,3.25,6.0,3.75,0.5,0.0,0.25,1.0,0.0,0.0,0.0,1.08,0.2,2.33,443.88,-3.4,52.6
2.04,1.75,0.75,2.5,1.25,0.75,1.0,1.5,1.0,0.25,2.0,0.5,1.25,1.25,-0.61,0.45,1.89,224.44,9.3,3.5,0.0,0.75,0.0,0.75,1.75,3.5,0.25,0.0,0.0,1.5,0.0,0.0,0.0,0.58,-0.36,1.52,249.79,9.2,27.3
2.06,1.75,0.75,2.25,1.75,0.75,0.25,1.75,1.0,0.25,2.0,0.75,1.0,1.5,-0.92,0.77,2.7,224.22,10.4,1.8,0.0,0.75,0.0,0.5,5.0,3.5,0.25,0.25,0.25,1.5,0.0,0.0,0.25,0.02,-0.36,2.2,131.21,7.8,29.1
2.08,1.75,0.75,2.25,1.75,0.75,0.5,1.5,1.0,0.25,1.75,0.5,1.25,1.5,-1.23,1.77,2.83,225.11,10.1,2.8,0.75,1.0,0.0,0.75,5.0,2.5,0.25,0.5,0.25,2.0,0.0,0.0,0.0,0.52,-0.92,2.33,58.63,4.0,31.7
2.1,1.5,1.0,2.5,1.75,0.75,1.25,1.5,1.0,0.25,2.25,0.5,1.0,1.25,-1.11,2.95,2.7,220.69,8.3,6.5,0.5,1.0,0.0,0.75,5.25,1.25,0.5,1.0,0.25,1.5,0.0,0.25,0.25,0.89,-1.17,1.27,36.96,2.6,26.7
2.12,1.25,0.75,2.25,1.75,0.0,1.0,1.5,1.0,0.25,2.0,1.25,0.5,1.5,-0.67,4.14,1.39,212.18,8.6,-1.7,0.75,0.75,0.0,0.75,3.5,1.25,0.0,0.25,0.75,2.25,0.0,1.0,0.25,0.39,-0.67,0.7,29.52,1.4,8.5
2.14,0.0,0.0,2.25,1.25,0.0,0.0,1.25,1.0,0.0,0.0,0.5,0.25,1.0,0.45,5.64,-0.36,175.63,15.3,2.5,2.0,1.75,0.0,2.75,4.75,2.0,0.5,1.75,0.75,2.25,1.25,1.0,1.0,0.14,-0.48,0.52,92.18,-1.6,14.1
2.16,1.75,0.25,0.75,1.75,0.0,1.25,1.25,1.0,0.25,2.5,0.0,1.75,0.5,1.95,6.27,-0.3,160.3,5.6,-7.2,1.75,1.75,0.5,1.25,5.0,2.75,0.5,1.75,0.75,2.5,1.25,1.5,1.0,-0.11,-0.3,0.45,149.58,-0.1,8.7
2.18,2.25,0.5,0.25,0.0,0.0,1.25,0.75,1.0,0.25,2.5,0.0,2.0,1.5,0.33,-0.55,1.14,148.0,1.5,-25.9,1.75,1.75,0.0,0.75,5.0,2.5,0.5,1.75,0.75,2.25,1.25,1.0,1.0,-0.11,-0.11,0.58,201.6,0.9,9.7
2.2,1.75,0.0,2.0,0.5,0.75,1.75,1.25,3.0,0.5,2.75,1.5,3.25,3.25,0.58,0.27,0.52,195.71,1.6,-34.2,1.75,1.75,0.0,0.75,5.0,2.25,0.5,1.75,0.75,2.25,1.25,1.0,1.0,0.08,-0.11,0.64,239.58,0.7,9.4
2.22,1.75,0.5,2.0,0.5,0.75,1.25,1.25,3.0,0.25,2.75,2.5,5.0,5.75,0.02,-0.36,1.7,257.72,1.4,-46.5,1.75,1.75,0.0,0.75,5.25,2.0,0.5,1.75,0.75,2.25,1.25,1.0,1.25,0.2,-0.11,0.83,263.88,0.6,8.3
2.24,0.0,0.0,0.25,1.75,0.0,1.5,0.75,3.25,1.0,5.0,1.25,6.75,6.25,0.39,0.33,5.27,324.66,-4.2,-69.1,1.75,1.5,0.0,0.75,4.75,1.75,0.5,1.75,0.75,2.25,1.25,1.0,1.25,0.27,-0.05,1.02,276.05,0.4,5.4
2.26,1.0,0.25,0.75,3.25,0.5,3.5,0.0,4.75,2.0,4.5,2.75,7.5,7.5,-0.17,0.02,1.64,425.81,-2.3,-51.2,2.0,1.75,0.0,0.5,5.25,2.0,0.5,1.75,0.75,2.25,1.25,0.5,1.0,0.33,0.08,1.27,285.7,0.5,13.2
2.28,0.25,0.0,2.0,2.0,0.0,3.5,2.0,5.5,1.75,6.5,2.75,7.5,7.75,-0.11,0.08,1.02,533.73,-2.6,-55.8,1.5,1.5,0.75,0.5,5.0,2.0,0.5,1.5,0.75,2.5,1.25,0.75,1.25,0.52,0.33,1.39,289.97,0.0,7.8
2.3,0.75,0.0,1.5,3.25,0.0,4.75,3.25,6.0,2.25,7.25,2.5,7.5,8.0,-0.11,0.02,0.95,643.22,-2.6,-48.9,1.25,1.75,0.75,0.75,5.0,1.25,0.5,1.25,0.25,2.25,1.25,1.0,1.25,0.64,0.58,1.7,281.64,-1.0,9.0
2.32,0.5,0.0,2.0,2.0,0.0,4.0,3.25,6.5,1.75,7.5,2.0,8.5,8.5,-0.17,-0.05,0.95,717.65,-3.0,-54.8,1.25,1.5,1.0,0.0,5.0,1.0,0.5,1.0,0.0,0.75,1.25,0.25,1.25,0.77,1.02,2.33,261.9,-2.3,21.2
2.34,2.0,0.0,3.75,3.5,3.5,5.75,4.0,7.25,2.75,8.5,5.25,7.5,9.5,-0.17,-0.05,0.95,865.01,-0.5,-36.0,0.5,0.5,0.0,0.0,1.25,1.0,0.0,0.25,0.0,0.75,0.0,0.0,0.25,0.95,1.7,2.7,197.47,4.9,24.1
2.36,2.25,0.0,3.0,3.5,4.75,6.0,4.25,7.5,2.75,8.75,4.75,8.25,9.5,-0.17,-0.05,0.95,993.21,-1.0,-35.0,1.25,1.5,0.0,0.5,1.5,2.5,0.25,0.0,0.25,2.75,0.0,1.0,0.0,1.14,2.58,2.52,162.23,1.5,12.9
2.38,2.0,0.5,3.75,4.75,4.75,6.0,4.5,7.5,3.25,8.75,5.0,7.5,8.75,-0.17,-0.05,0.95,1106.07,0.0,-29.8,1.25,1.5,0.25,1.0,4.75,1.25,0.5,1.75,0.25,2.25,1.25,1.0,1.0,1.39,3.77,1.14,164.97,0.1,6.7
2.4,2.0,0.25,4.25,3.5,5.25,5.75,4.5,7.5,2.75,7.75,3.75,7.25,8.5,-0.17,-0.05,0.95,1120.15,-0.1,-28.5,1.5,1.5,0.5,1.25,5.0,1.25,0.5,1.75,0.25,2.25,1.25,1.0,0.25,0.14,4.77,-0.86,199.52,-1.5,14.8
2.42,2.5,0.25,4.25,2.5,4.5,5.75,3.5,7.5,2.75,7.5,3.75,6.5,7.75,-0.17,-0.05,0.95,1077.51,-0.2,-28.4,1.25,1.75,0.75,1.25,5.0,1.0,0.5,1.75,0.25,2.25,1.25,0.5,0.75,-2.23,5.7,0.2,231.17,-1.4,15.2
2.44,2.0,0.25,4.0,3.75,5.0,6.25,4.0,7.25,2.75,6.5,3.75,5.5,7.75,-0.17,-0.05,0.95,1001.57,-0.1,-24.0,1.0,1.5,0.75,1.0,4.5,2.0,0.25,1.75,0.75,2.25,1.5,0.75,0.75,-2.17,1.2,1.7,252.31,0.0,8.1
2.46,2.25,0.5,4.0,3.5,5.25,6.5,4.5,7.25,2.75,6.5,4.0,5.75,6.75,-0.17,-0.05,0.95,949.36,0.2,-21.5,0.25,0.5,0.0,0.5,1.25,0.75,0.0,0.25,0.25,2.25,1.25,1.0,0.25,0.2,-0.17,1.08,215.66,1.7,-24.5
2.48,3.0,0.25,4.0,3.75,5.25,7.0,4.5,7.5,2.75,6.5,3.75,5.5,6.75,-0.17,-0.05,0.95,925.15,0.3,-19.3,0.0,0.25,0.0,0.5,1.25,1.75,0.0,0.25,0.25,4.75,1.25,1.75,1.0,0.89,0.02,1.08,195.26,6.9,-44.5
2.5,2.75,0.25,4.25,3.5,5.25,7.0,4.5,7.5,3.0,6.25,3.5,5.0,6.0,-0.17,-0.05,0.95,895.57,0.5,-17.4,0.5,0.25,0.0,0.5,1.0,2.25,0.0,0.0,0.0,6.0,2.25,4.0,3.75,-0.42,0.2,1.64,213.92,5.4,-60.4
2.52,2.0,0.0,4.0,2.75,5.0,7.0,4.25,7.0,2.5,5.0,3.5,3.5,5.25,-0.17,-0.05,0.95,830.98,0.0,-15.6,0.0,0.25,0.0,0.5,1.25,1.0,0.0,0.0,0.0,7.25,4.5,5.5,6.0,0.27,0.52,1.39,275.12,4.4,-75.3
2.54,1.75,0.25,2.25,3.0,4.5,7.0,4.25,7.0,2.75,5.0,2.5,3.5,5.25,-0.17,-0.05,0.89,747.57,-1.6,-17.8,0.0,0.0,0.0,0.5,1.75,3.5,0.0,0.0,0.75,7.75,4.75,5.75,6.75,0.08,0.14,1.2,356.68,5.7,-66.4
2.56,3.25,0.5,4.25,4.0,6.5,8.0,4.75,7.75,3.25,6.25,3.5,3.75,5.25,-0.17,-0.05,0.95,758.07,0.5,-9.7,0.0,0.5,0.0,0.5,1.25,0.0,0.0,0.0,1.0,8.0,5.5,5.75,7.25,0.27,0.02,0.95,432.39,3.2,-77.8
2.58,3.5,1.5,4.25,4.75,7.5,8.75,4.5,7.5,3.75,6.0,2.5,3.5,5.0,-0.17,-0.05,0.95,803.2,0.8,-2.9,0.5,0.5,0.0,0.75,1.75,3.75,0.5,0.0,0.5,8.25,5.5,6.0,7.5,0.2,0.08,0.95,504.97,4.5,-61.4
2.6,4.0,1.75,4.25,5.5,7.5,8.75,4.75,8.0,4.0,5.25,3.75,3.25,5.0,-0.17,-0.05,0.95,900.02,1.6,-1.5,0.75,1.0,0.0,2.0,1.75,6.0,0.25,0.0,1.75,9.5,5.5,6.0,7.5,0.2,0.02,0.95,566.03,4.3,-49.9
2.62,5.0,1.75,4.25,5.25,8.25,9.5,5.25,8.0,4.25,5.0,3.5,3.25,3.5,-0.17,-0.05,0.95,986.33,2.2,3.8,2.0,1.5,1.0,3.0,5.0,6.0,1.0,0.0,1.5,8.5,6.5,6.0,8.75,0.2,0.02,0.89,663.95,1.4,-33.9
2.64,5.25,2.0,4.25,5.75,9.0,9.75,5.25,8.25,4.25,5.0,3.0,3.25,3.5,-0.17,-0.05,0.95,1066.58,2.2,6.1,0.75,0.75,0.0,0.75,5.0,5.75,0.5,0.0,1.5,8.75,6.75,6.0,8.0,0.2,0.02,0.95,721.97,4.3,-46.5
2.66,6.0,2.0,4.25,6.75,11.5,10.0,5.75,8.25,4.25,5.0,2.75,2.75,3.25,-0.17,-0.05,0.95,1145.59,2.5,11.4,0.75,1.0,1.0,0.75,5.0,6.0,0.75,0.0,1.5,8.75,5.5,6.0,8.0,0.2,0.02,0.95,756.96,3.7,-41.8
2.68,7.0,2.75,4.25,7.75,12.5,11.5,6.25,8.0,4.0,4.75,2.5,2.0,3.25,-0.17,-0.05,1.02,1244.08,2.8,17.3,0.5,0.75,0.0,3.0,3.75,6.25,0.5,0.0,1.5,9.25,5.5,5.75,7.5,0.2,0.02,0.89,753.19,4.1,-42.6
2.7,7.75,3.5,5.25,8.5,13.5,11.5,6.25,8.0,3.5,4.25,2.75,2.0,3.25,-0.17,-0.05,1.2,1345.53,3.7,21.0,3.25,1.5,0.0,3.0,3.75,7.0,0.5,0.0,1.5,9.0,5.5,6.25,7.5,0.27,0.02,0.89,760.76,1.9,-32.3
2.72,8.5,3.25,4.75,11.0,14.5,11.5,5.5,7.75,3.25,3.75,2.5,2.0,3.25,-0.23,-0.05,1.08,1424.96,4.1,24.0,0.5,1.0,0.0,0.75,4.75,6.5,0.75,6.5,1.5,8.25,5.25,5.25,7.25,0.2,0.02,0.89,752.36,6.7,-41.4
2.74,9.25,3.25,5.75,10.5,15.0,11.0,4.75,7.5,2.5,3.5,1.25,2.0,3.0,-0.23,0.02,1.27,1473.12,4.7,28.2,0.5,1.0,0.0,3.0,5.0,7.25,1.0,6.5,1.75,8.75,4.5,5.5,6.25,0.2,0.02,0.89,761.8,5.7,-33.9
2.76,11.0,3.5,5.75,10.5,15.5,11.5,4.5,7.25,2.0,3.0,1.75,1.75,2.75,-0.23,0.08,1.2,1506.7,5.3,31.6,2.0,1.75,1.0,3.25,6.75,7.75,1.5,7.25,1.75,8.25,5.5,4.5,6.75,0.2,0.02,0.89,809.04,3.6,-22.7
2.78,11.5,3.5,5.75,9.0,14.5,10.0,3.25,6.75,1.75,2.75,2.0,1.75,2.25,-0.3,0.14,1.52,1478.47,6.1,32.8,2.0,1.75,1.25,3.25,6.75,7.75,1.5,7.25,1.75,7.75,4.5,3.75,6.25,0.2,0.02,0.89,836.46,3.6,-19.0
2.8,12.5,3.25,5.75,8.0,13.5,9.25,2.5,6.5,1.25,2.75,1.5,1.75,2.0,-0.61,0.2,1.64,1415.01,6.7,34.7,2.25,1.75,1.25,3.25,6.75,8.0,1.5,7.5,1.5,7.0,4.5,2.75,5.25,0.2,0.02,0.89,843.47,3.6,-14.0
2.82,11.5,3.5,4.75,5.5,11.0,8.0,2.0,5.75,1.0,2.5,1.5,1.75,1.5,-0.73,0.58,2.14,1289.99,6.8,34.6,2.0,1.75,1.25,3.25,7.0,8.5,1.5,0.0,1.5,6.75,3.75,2.5,3.75,0.2,0.08,0.95,766.99,1.6,-4.0
2.84,9.25,2.0,4.25,4.0,8.25,5.5,1.25,4.75,0.25,0.25,1.25,1.75,1.5,-0.86,0.45,2.52,1023.29,8.2,36.0,2.25,2.25,1.25,3.25,8.25,9.0,1.5,0.0,1.5,6.25,3.25,1.75,3.5,0.2,0.08,0.89,704.66,1.6,4.0
2.86,6.0,0.5,2.25,1.75,1.75,3.25,0.0,1.0,0.25,0.0,0.25,0.25,1.25,-0.98,0.2,2.08,630.86,11.9,44.8,2.0,2.25,1.0,3.25,8.25,9.5,1.5,0.0,1.5,6.0,2.25,1.5,2.75,0.2,0.08,0.89,639.15,2.3,8.5
2.88,2.25,0.0,1.75,1.75,0.0,0.25,0.0,1.0,0.0,0.25,0.0,0.0,0.25,-0.61,-0.42,1.02,309.21,19.3,45.9,2.5,2.25,1.0,3.75,9.5,10.0,1.5,0.0,1.5,5.5,2.5,1.25,2.0,0.2,0.08,0.89,625.15,1.6,15.1
2.9,0.75,1.25,2.5,1.75,0.0,1.75,0.0,1.0,0.75,0.0,0.0,1.75,1.0,0.08,-0.3,2.08,139.27,10.0,11.4,2.25,2.25,1.25,5.5,9.5,10.5,1.5,0.0,1.5,5.25,2.25,1.25,2.0,0.2,0.08,0.89,629.34,1.0,17.9
2.92,0.0,0.5,2.75,2.75,0.75,1.25,0.25,2.0,0.5,0.0,1.25,1.25,1.5,-0.8,-0.73,2.33,33.61,7.6,-0.9,3.25,2.5,1.0,5.5,11.0,11.5,1.25,0.0,1.0,5.25,2.25,1.25,2.0,0.27,0.08,0.95,665.68,1.1,21.8
2.94,1.75,1.0,2.5,1.75,0.75,0.25,1.25,1.0,0.25,0.0,1.25,1.75,1.5,-0.86,-1.11,1.14,0.72,14.1,6.5,3.25,2.75,0.5,5.75,12.0,11.5,1.25,0.0,1.0,5.0,2.25,1.25,2.0,0.2,0.14,1.02,699.96,1.4,23.2
2.96,0.75,0.5,2.75,1.25,0.0,0.0,0.25,1.0,0.0,0.0,0.0,1.5,0.75,-0.67,-0.73,0.77,0.0,17.3,9.6,3.75,2.25,1.25,7.25,14.0,10.0,1.0,0.0,0.75,4.75,1.75,1.25,2.0,0.27,0.08,1.02,746.16,-0.2,27.5
2.98,1.75,1.0,2.75,1.75,0.0,1.0,1.25,1.0,0.0,0.0,0.0,0.25,0.75,-0.55,-0.48,0.33,0.0,16.7,40.2,3.75,2.5,1.25,7.5,14.0,0.0,1.0,0.0,0.75,5.0,2.0,0.25,1.75,0.2,0.14,1.08,712.6,-5.5,29.6
3.0,1.75,1.5,2.75,1.75,0.75,1.25,1.5,1.0,0.25,2.25,0.0,1.75,0.25,-0.48,-0.36,0.33,11.4,10.7,16.1,4.25,2.25,1.25,8.75,15.0,11.5,0.75,0.0,0.75,5.0,2.0,0.5,1.75,0.2,0.2,1.14,770.67,-0.2,31.3
3.02,1.5,1.0,2.75,1.25,0.75,1.25,1.25,1.0,0.0,2.5,1.25,1.75,1.5,-0.55,-0.3,0.39,69.99,7.7,-5.1,5.5,3.25,1.0,8.25,15.0,11.5,0.5,0.0,0.75,4.5,2.0,1.0,1.75,0.39,0.2,1.2,834.9,-0.9,33.2
3.04,1.75,0.75,2.75,1.0,0.75,1.0,1.25,1.25,0.25,2.25,1.0,1.25,1.5,-0.55,-0.17,0.58,125.34,8.3,-2.6,5.75,3.25,1.0,8.0,14.5,10.5,0.5,0.0,0.25,3.5,1.75,1.0,1.75,0.52,0.27,1.33,893.93,-1.6,36.3
3.06,1.75,0.75,2.75,1.5,0.75,1.75,1.25,1.0,0.0,1.75,0.5,1.75,1.5,-0.48,-0.11,0.77,176.15,8.2,3.1,5.75,3.25,1.25,7.5,12.5,9.0,0.5,0.0,0.5,3.5,1.25,1.0,1.75,0.64,0.39,1.83,888.05,-2.6,36.2
3.08,1.75,0.5,2.5,1.75,0.75,1.5,1.25,1.0,0.0,1.25,0.75,1.25,1.5,-0.42,0.02,0.89,207.91,9.1,5.9,5.75,3.0,1.25,6.25,11.0,8.5,0.5,0.0,0.75,3.0,1.25,0.25,1.75,1.14,0.45,1.89,827.37,-2.7,37.9
3.1,1.75,0.75,2.5,1.75,0.75,1.25,1.25,1.0,0.0,1.75,0.75,1.0,1.5,-0.48,0.14,1.08,228.31,8.9,6.3,3.75,1.5,0.0,2.25,8.25,6.5,0.25,0.0,0.25,2.25,0.25,0.0,0.25,1.02,0.83,2.77,634.96,0.7,43.1
3.12,1.75,0.75,2.5,2.5,0.75,1.5,1.25,1.0,0.0,2.5,1.0,1.5,1.5,-0.55,0.27,1.39,240.64,7.8,1.2,2.0,0.75,0.0,1.0,5.75,5.5,0.25,0.0,0.0,0.75,0.25,0.0,0.25,0.89,0.02,2.14,422.56,3.3,44.5
3.14,1.75,0.75,2.25,1.75,0.75,0.75,1.25,1.0,0.0,2.25,0.75,1.5,1.5,-0.67,0.39,1.64,236.52,8.5,-1.6,0.0,0.0,0.0,0.75,4.25,3.25,0.25,1.25,0.0,0.0,0.25,0.0,0.25,0.64,-0.36,1.52,263.03,8.5,30.2
3.16,1.75,0.5,2.25,1.75,0.75,1.25,1.75,1.0,0.25,2.0,0.75,1.75,1.5,-0.86,0.64,2.08,237.5,8.4,-2.8,0.5,0.75,0.0,0.75,3.25,3.25,0.25,1.5,0.0,1.5,0.0,0.0,0.25,0.2,0.02,1.2,163.58,7.4,22.6
3.18,1.75,0.75,2.0,1.75,1.25,1.25,1.75,1.25,0.25,2.25,0.75,1.5,1.5,-1.05,1.27,2.52,240.31,6.9,-0.4,1.0,0.25,0.0,0.5,3.0,2.0,0.0,1.0,0.0,2.0,1.25,0.25,1.75,0.2,-0.73,2.45,99.82,5.0,-8.1
3.2,1.75,0.75,2.25,2.0,1.25,1.5,1.5,1.0,0.25,2.0,0.5,1.0,1.5,-0.98,2.14,2.64,242.64,7.5,7.7,0.5,0.75,0.0,0.5,4.25,1.25,0.25,1.25,0.25,1.75,0.0,0.0,0.25,0.89,-1.36,1.64,72.6,4.6,20.9
3.22,1.75,0.5,2.75,2.5,1.25,1.25,1.25,1.0,0.25,2.25,0.75,1.5,1.5,-0.8,3.08,2.45,243.95,8.6,3.4,0.5,0.5,0.0,0.5,2.5,1.25,0.0,1.0,0.25,0.5,0.0,0.0,0.25,0.64,-0.73,0.7,42.68,3.9,27.4
3.24,1.25,0.75,2.25,2.5,1.25,1.75,1.75,1.25,0.25,2.25,0.5,1.5,1.5,0.02,4.52,0.39,246.3,6.2,2.3,0.5,0.5,0.0,0.5,1.25,1.0,0.0,0.5,0.0,0.75,0.0,0.0,0.25,0.2,-0.48,0.45,0.0,3.3,24.4
3.26,1.75,0.5,2.25,1.0,0.75,1.75,1.25,2.0,0.25,2.25,1.25,2.0,1.5,4.2,7.95,-1.48,248.58,5.1,-11.4,0.5,0.5,0.0,0.5,2.5,1.0,0.0,0.75,0.0,1.0,0.0,0.0,0.25,-0.05,-0.23,0.39,0.0,4.2,24.6
3.28,0.75,0.5,2.25,1.25,0.75,1.25,1.25,2.0,0.5,2.75,1.25,3.25,3.25,-0.92,-1.11,3.64,257.66,2.7,-33.0,0.5,0.25,0.0,0.5,1.25,1.25,0.0,0.5,0.0,0.25,0.0,0.25,0.25,-0.05,-0.11,0.52,0.0,3.2,24.4
3.3,0.0,0.25,1.0,0.25,0.75,1.0,1.0,2.5,0.25,2.5,2.0,4.0,5.0,1.2,0.27,0.52,269.73,-2.6,-61.9,0.5,0.5,0.0,0.5,1.75,1.0,0.0,0.5,0.0,0.5,0.0,0.0,0.25,0.08,-0.11,0.64,3.51,2.8,31.7
3.32,0.0,0.0,1.25,2.25,0.5,1.5,0.75,3.0,1.0,1.75,1.25,6.0,5.75,-0.17,1.33,7.27,296.56,-0.5,-55.5,0.75,1.5,0.0,1.75,1.5,2.5,0.0,0.5,0.75,2.25,0.0,1.0,0.25,0.27,-0.11,0.7,66.04,1.0,11.2
3.34,1.0,0.0,1.25,3.25,0.0,3.5,1.75,3.5,1.5,6.25,3.0,6.5,7.75,-0.48,0.27,0.95,384.19,-1.7,-51.3,1.5,1.5,0.5,1.0,5.0,2.75,0.5,1.75,0.25,2.25,1.25,1.0,1.5,0.33,-0.11,0.95,166.1,1.2,8.0
3.36,0.75,0.0,1.5,1.75,0.0,2.5,1.25,4.5,1.75,4.75,1.25,6.75,7.0,-0.17,-0.05,0.95,449.56,-2.2,-55.9,1.25,1.5,0.5,0.75,5.0,2.75,0.5,1.75,0.25,0.75,1.5,0.25,1.5,0.33,0.02,1.14,226.43,0.9,16.5
3.38,0.75,0.25,1.75,1.5,0.0,2.25,3.0,4.75,2.25,5.25,3.0,7.0,7.25,-0.11,-0.05,0.95,529.57,-0.5,-55.1,1.0,1.5,0.0,0.75,5.0,2.75,0.5,1.75,0.25,2.25,1.25,1.0,1.5,0.39,0.2,1.33,266.93,3.3,3.8
3.4,0.5,0.25,1.75,2.0,0.5,2.25,3.25,4.75,2.25,6.0,3.5,7.25,7.75,-0.11,-0.05,0.95,585.96,-0.7,-54.4,1.25,1.5,0.25,1.25,3.75,2.25,0.5,1.75,0.25,2.25,1.25,1.0,1.25,0.52,0.39,1.52,278.26,1.0,4.3
3.42,0.75,0.25,1.5,2.5,0.5,2.25,3.25,3.25,2.75,5.5,3.5,7.5,7.75,-0.11,-0.05,0.95,624.59,0.4,-53.2,0.75,0.5,0.75,0.5,4.25,1.0,0.5,1.75,0.0,0.75,1.25,0.0,1.25,0.64,0.52,1.77,263.76,0.4,10.4
3.44,0.5,0.0,1.75,2.5,2.25,3.25,3.25,4.75,2.75,6.5,3.75,7.5,8.75,-0.11,-0.05,0.95,678.85,-1.4,-49.1,1.25,1.5,0.0,0.75,1.5,2.5,0.5,1.0,0.25,2.25,0.75,1.0,1.0,0.83,0.77,2.27,246.33,1.7,-0.1
3.46,0.75,0.25,1.5,2.5,0.75,3.5,3.25,5.0,3.5,6.5,4.0,8.0,7.75,-0.11,-0.05,0.95,720.5,-0.8,-50.8,1.0,1.5,0.0,0.75,5.0,2.5,0.5,1.75,0.25,2.25,0.5,1.0,1.5,1.02,1.58,2.7,252.57,3.6,6.5
3.48,1.75,0.0,3.75,3.25,3.5,4.5,3.75,5.75,3.5,6.25,5.0,8.0,8.5,-0.11,-0.05,0.95,807.94,1.1,-36.1,1.5,1.5,0.5,0.75,3.75,2.25,0.5,1.75,0.25,2.25,0.75,1.0,1.5,1.02,2.52,2.52,259.86,1.0,5.2
3.5,2.0,0.5,3.5,3.0,3.75,3.5,4.25,6.0,3.5,5.75,4.5,7.5,8.5,-0.17,-0.05,0.95,854.27,1.5,-34.3,1.0,1.5,0.5,1.0,4.75,2.5,0.5,1.75,0.0,2.25,1.25,1.0,1.25,0.83,3.58,1.52,270.94,1.7,7.0
3.52,2.0,0.5,4.0,3.25,4.5,4.0,4.5,5.75,3.5,6.25,3.75,7.25,7.5,-0.11,-0.05,0.95,885.59,1.8,-28.9,0.75,0.75,0.0,0.5,1.5,1.25,0.25,1.5,0.25,2.5,0.0,0.0,0.0,-0.73,5.83,-1.3,237.48,5.0,5.9
3.54,3.0,1.5,4.25,3.0,5.25,4.5,4.75,6.25,4.0,6.25,5.75,6.25,7.75,-0.11,-0.05,0.95,921.27,2.4,-23.6,0.5,0.0,0.0,0.5,1.25,0.0,0.0,1.0,0.0,2.0,0.0,0.0,0.0,-5.67,7.2,3.52,178.99,5.0,-6.6
3.56,3.5,1.75,2.75,3.5,3.5,5.75,4.75,5.75,4.75,6.5,3.5,6.5,6.75,-0.11,-0.05,0.95,919.95,1.7,-22.3,0.5,0.25,0.0,0.5,1.75,0.25,0.0,1.75,0.0,2.25,0.75,1.0,1.0,1.58,-0.67,1.7,132.48,4.4,-28.9
3.58,1.75,0.5,4.25,3.25,5.25,5.75,5.25,6.5,4.25,4.75,5.0,5.75,6.25,-0.11,-0.05,0.95,906.73,1.9,-21.6,0.5,0.0,0.0,0.5,1.25,2.0,0.0,1.75,0.5,5.25,1.25,3.0,2.75,0.83,0.7,0.2,157.06,6.7,-52.8
3.6,2.5,1.75,3.5,3.25,5.25,7.0,5.25,6.75,4.75,5.0,2.75,3.5,5.0,-0.11,-0.05,0.95,887.36,1.2,-9.7,0.0,0.25,0.0,0.5,1.25,0.0,0.0,0.0,0.75,7.25,2.25,5.25,5.75,2.14,0.52,4.52,226.85,4.6,-77.7
3.62,2.5,0.5,4.0,3.25,5.5,6.25,6.0,5.75,4.25,2.75,2.75,3.25,3.5,-0.11,-0.05,0.95,822.44,3.3,-4.1,0.5,0.75,0.0,0.5,1.75,5.5,0.0,4.5,1.5,8.25,4.5,6.25,7.25,0.02,0.14,1.83,358.41,6.7,-54.5
3.64,4.0,1.75,4.25,5.25,7.0,7.5,6.5,6.75,4.75,5.0,3.75,3.25,3.5,-0.11,-0.05,0.95,853.03,3.4,0.7,2.0,1.75,1.0,2.75,3.5,5.75,1.25,5.75,2.0,9.0,7.5,7.25,8.5,-0.17,0.14,1.14,585.93,2.2,-39.4
3.66,5.0,1.75,5.0,6.75,8.25,8.0,6.5,6.5,4.5,4.5,3.25,2.5,3.25,-0.11,-0.05,0.95,917.08,4.5,9.0,2.0,1.75,1.5,2.75,4.5,5.75,1.25,6.0,2.0,9.25,7.5,7.25,8.5,0.14,0.08,1.02,810.96,2.0,-36.9
3.68,5.25,2.0,5.75,7.0,9.0,8.0,7.0,6.25,4.25,4.25,2.75,2.0,3.25,-0.11,-0.05,0.95,1001.82,5.1,13.4,3.5,1.5,1.25,2.0,5.0,5.75,1.5,6.5,2.0,8.75,7.25,6.25,8.25,0.14,0.02,0.95,960.17,1.8,-32.9
3.7,5.75,2.0,5.75,7.25,9.5,8.75,7.25,6.25,4.25,3.75,2.75,2.0,3.25,-0.11,-0.05,0.95,1073.38,5.2,15.5,1.0,1.5,1.0,3.0,5.0,5.5,1.0,6.0,2.25,9.25,6.5,6.5,8.0,0.2,0.02,0.95,1023.11,3.2,-37.4
3.72,6.0,2.75,5.75,8.75,11.5,8.75,7.75,6.25,4.25,3.5,2.5,2.0,3.25,-0.11,-0.05,0.95,1159.76,5.5,19.5,0.75,1.0,0.0,0.5,5.0,5.5,1.0,6.5,1.5,8.25,6.75,6.25,8.0,0.2,0.02,0.95,1007.08,5.5,-45.4
3.74,7.0,3.25,7.0,10.0,12.0,9.0,7.75,6.25,4.0,3.5,2.75,2.0,3.0,-0.11,-0.05,1.02,1264.31,6.6,23.0,2.0,1.75,0.0,3.25,3.75,6.0,0.75,6.0,2.0,8.75,6.25,6.0,8.0,0.2,0.02,0.89,986.37,3.5,-36.6
3.76,8.5,3.5,7.25,11.0,12.5,9.5,7.75,6.25,4.0,2.75,2.5,1.75,2.75,-0.11,0.02,1.02,1353.76,7.4,27.7,3.5,2.25,0.75,3.25,5.0,6.25,1.5,6.5,2.25,9.0,7.0,6.5,8.0,0.2,0.02,0.95,1012.54,1.7,-29.6
3.78,9.25,3.5,7.0,13.0,14.0,9.5,7.75,6.25,3.5,2.75,2.5,1.75,2.75,-0.11,0.02,0.95,1439.22,7.5,29.9,2.0,1.75,1.25,2.75,5.25,6.0,1.5,6.5,2.0,8.75,7.0,6.5,8.25,0.2,0.02,0.89,1019.52,2.4,-33.7
3.8,10.0,3.5,8.25,11.5,14.5,9.25,8.0,6.0,2.75,2.5,1.0,1.75,1.5,-0.11,0.08,1.08,1487.53,8.5,36.1,2.0,1.75,1.25,3.25,5.25,6.0,1.5,6.5,2.0,8.75,7.0,6.5,8.0,0.2,0.02,0.89,1008.45,2.2,-32.6
3.82,12.0,4.0,8.25,13.5,15.0,9.5,7.75,5.75,2.75,2.75,2.0,1.75,2.25,-0.17,0.08,1.27,1551.34,9.0,35.8,2.0,1.5,1.0,3.0,5.0,6.0,1.0,6.5,2.0,8.75,7.0,6.5,8.0,0.14,0.02,0.89,971.79,2.7,-34.6
3.84,14.0,3.5,9.25,13.5,15.5,9.0,6.75,5.75,2.0,2.75,2.0,2.0,2.0,-0.3,0.14,1.39,1598.53,9.9,37.9,1.25,1.25,0.75,1.0,5.0,6.0,1.0,6.5,2.0,8.5,6.75,6.5,8.0,0.2,0.02,0.89,912.07,4.2,-40.6
3.86,15.0,5.0,9.5,13.0,14.5,8.0,6.0,5.5,1.75,2.5,2.0,1.5,1.5,-0.3,0.27,1.52,1625.45,11.0,42.0,2.0,1.5,1.5,3.0,5.0,6.25,0.5,6.25,2.75,8.5,6.75,6.5,7.0,0.2,0.02,0.95,864.46,2.1,-32.1
3.88,15.5,5.0,9.25,11.5,12.5,7.25,5.5,5.0,1.75,2.75,1.75,1.75,2.0,-0.48,0.39,2.02,1591.69,11.5,40.8,2.0,1.75,1.75,3.0,5.0,6.5,1.5,6.0,2.75,8.25,6.25,6.0,7.0,0.2,0.02,0.95,837.04,1.7,-29.1
3.9,14.0,5.0,8.5,7.75,9.25,5.75,6.0,4.5,1.25,2.5,1.5,1.75,1.5,-0.73,0.58,2.45,1477.32,12.5,40.9,2.25,1.5,1.0,3.0,5.75,6.5,1.5,6.5,3.25,8.0,6.75,6.0,7.25,0.14,0.02,0.95,847.6,2.1,-29.8
3.92,10.5,3.5,7.25,4.0,7.0,3.5,5.25,3.0,0.75,2.0,1.25,1.5,1.5,-1.11,0.39,2.45,1228.58,13.4,38.9,2.75,1.75,0.75,3.25,6.0,6.5,1.5,6.5,3.5,7.75,6.5,5.75,6.25,0.14,0.02,0.95,853.24,1.6,-25.7
3.94,4.75,0.0,2.25,1.75,1.25,1.75,2.5,1.0,0.25,0.5,0.0,0.0,1.0,-0.98,0.2,2.08,716.24,15.0,41.4,3.25,1.75,1.75,3.25,6.5,7.0,1.75,6.25,4.0,7.0,5.75,5.25,5.75,0.14,0.02,0.95,867.9,0.5,-19.2
3.96,1.75,0.0,0.0,1.75,0.0,2.5,0.5,1.0,0.25,2.0,0.25,0.75,1.0,0.02,-0.23,1.45,345.47,-0.6,-5.2,3.75,2.0,2.0,3.25,7.0,7.0,2.0,6.0,4.5,6.5,5.25,4.0,5.25,0.14,0.02,0.95,871.96,-0.1,-12.9
3.98,1.75,0.5,0.0,3.0,0.0,1.0,1.25,1.75,0.5,2.5,1.25,0.5,1.5,-0.61,-1.42,3.08,156.06,3.3,-10.1,3.75,2.25,2.75,3.75,7.25,7.25,2.75,6.0,4.5,6.0,4.75,2.75,3.75,0.14,0.02,0.95,866.87,-1.1,-4.1
4.0,1.75,1.5,2.75,1.75,0.75,1.0,1.75,1.5,0.25,1.75,1.0,1.0,1.25,-1.11,-1.36,2.64,57.8,9.9,9.8,5.5,2.5,4.0,5.25,7.75,7.5,3.25,5.5,4.25,5.25,4.5,2.5,3.0,0.14,0.02,0.95,889.48,-3.7,6.3
4.02,1.75,1.25,2.25,1.75,0.75,1.25,2.5,1.5,0.25,1.0,1.0,1.5,0.5,-0.8,-0.73,0.58,20.99,11.3,13.5,7.0,2.75,5.0,7.0,8.5,7.75,4.0,5.25,4.0,5.25,4.0,2.0,2.0,0.14,0.02,1.02,950.4,-5.6,15.7
4.04,1.75,0.75,3.0,1.75,2.25,1.5,2.25,1.5,0.5,1.0,1.25,1.75,0.25,-0.55,-0.55,-0.11,43.25,10.7,15.2,8.0,3.25,6.25,7.75,9.5,7.75,4.25,4.5,3.25,5.0,3.25,1.5,2.0,0.14,0.02,1.08,1027.52,-7.0,23.2
4.06,1.75,0.75,2.25,1.75,0.75,1.5,1.25,1.5,0.5,0.5,1.25,0.75,1.0,-0.42,-0.42,0.2,40.86,10.0,12.9,8.75,3.25,7.0,9.0,11.0,7.75,4.25,4.5,3.0,5.0,3.25,1.25,2.0,0.08,0.02,1.08,1125.85,-7.5,26.5
4.08,1.75,1.0,2.75,1.75,1.25,1.5,1.25,1.0,0.25,0.5,1.25,2.0,1.25,-0.23,-0.42,0.77,60.84,10.8,8.5,9.5,4.0,8.0,11.0,11.0,7.75,3.75,4.25,2.75,4.75,3.0,1.25,2.0,0.08,0.08,1.08,1233.03,-8.6,30.5
4.1,1.75,1.0,2.75,1.75,2.5,1.5,1.25,1.0,0.25,1.5,1.0,1.75,1.25,-0.17,-0.42,1.02,101.2,8.3,10.1,10.5,4.75,8.5,11.0,12.5,7.75,2.5,3.5,2.25,4.0,2.25,0.75,2.0,0.02,0.14,1.2,1312.32,-9.2,37.2
4.12,1.75,1.0,2.75,1.75,2.25,1.25,1.25,1.25,0.25,1.25,1.25,1.0,1.5,-0.3,-0.11,1.08,151.05,8.6,11.7,9.75,5.5,8.25,10.0,11.5,7.0,1.75,3.25,1.5,2.25,1.5,0.0,2.0,0.02,0.2,1.2,1308.25,-9.8,43.8
4.14,1.75,0.75,2.0,1.75,2.5,1.5,1.25,1.25,0.25,1.25,1.25,1.75,1.5,-0.42,0.14,1.08,199.09,6.7,4.5,10.0,4.75,7.5,10.5,9.5,6.5,1.0,2.0,1.5,3.25,1.25,0.75,0.75,0.2,0.27,1.27,1238.87,-10.9,44.6
4.16,1.75,0.75,1.75,1.75,1.25,1.25,1.25,1.25,0.25,1.25,1.0,1.75,1.25,-0.3,0.27,1.08,227.52,7.8,1.7,10.0,4.75,8.25,9.25,9.25,6.25,0.5,3.25,1.5,3.0,2.0,1.0,1.75,0.27,0.39,1.52,1167.57,-10.3,38.8
4.18,1.75,0.75,1.75,1.5,1.25,1.0,2.0,1.25,0.25,0.5,1.0,1.0,1.5,-0.3,0.45,1.27,239.1,9.5,8.5,11.0,5.25,8.0,9.0,8.75,0.0,0.5,2.0,1.0,3.5,1.5,1.0,1.75,0.39,0.52,1.52,1056.08,-14.7,42.9
4.2,1.75,0.75,1.75,1.75,1.75,0.25,1.75,1.25,0.25,1.75,0.5,1.5,1.5,-0.42,0.52,1.33,229.99,8.4,1.9,9.0,3.25,7.75,9.0,8.25,3.75,0.5,1.0,1.0,2.25,0.75,1.0,0.25,0.39,0.52,1.77,935.83,-13.8,48.9
4.22,1.75,0.5,2.5,1.75,1.25,1.25,1.5,1.25,0.25,2.0,1.25,1.5,1.25,-0.55,0.52,1.58,227.86,8.3,0.3,7.75,2.5,5.0,7.5,6.25,3.5,0.5,1.5,0.75,0.0,0.0,0.5,0.0,0.64,0.89,2.33,750.83,-14.1,57.7
4.24,1.75,0.75,2.25,1.75,0.75,1.25,2.25,1.0,0.25,2.0,1.0,1.75,1.5,-0.67,0.58,1.77,230.01,8.8,-1.9,5.5,1.25,3.25,4.0,4.75,1.25,0.25,1.0,0.25,0.5,0.0,0.25,0.0,0.7,0.89,2.77,518.32,-14.7,57.1
4.26,1.75,0.75,2.25,1.75,1.25,1.5,2.0,1.0,0.25,2.0,0.5,1.5,1.25,-0.67,0.64,1.95,234.39,8.0,5.6,1.75,0.75,0.0,0.0,1.0,1.25,0.0,0.5,0.25,0.5,0.0,0.25,0.25,-0.11,0.83,1.58,277.35,-3.3,33.3
4.28,1.75,0.75,1.75,1.75,1.25,1.25,2.25,1.0,0.25,2.0,0.75,1.75,1.5,-0.48,0.89,2.14,235.24,7.5,-0.8,0.75,0.75,0.0,0.0,1.0,0.5,0.0,0.5,0.25,0.5,0.25,0.25,0.0,0.45,1.39,1.08,106.74,-2.3,22.9
4.3,1.75,0.5,2.25,2.75,0.75,1.0,2.0,1.0,0.25,1.75,0.5,1.75,1.5,-0.42,1.2,2.08,236.21,9.8,2.7,0.75,0.75,0.0,0.0,0.0,0.75,0.0,0.25,0.75,0.0,0.5,1.0,0.25,0.58,0.52,1.77,0.0,-6.8,-8.7
4.32,1.75,0.5,1.75,2.25,1.25,1.25,1.25,1.0,0.25,2.0,0.25,1.5,1.25,-0.23,1.52,1.95,229.62,7.2,4.3,2.0,1.75,0.0,0.0,3.25,1.25,0.25,1.75,0.75,1.75,1.25,1.0,1.25,0.02,0.02,1.27,0.0,-0.5,2.1
4.34,1.75,0.5,1.5,2.75,1.75,1.25,2.0,1.0,0.25,0.0,1.25,0.25,1.5,0.14,2.08,1.52,223.83,10.0,20.7,2.0,1.75,0.25,1.25,3.5,0.75,0.5,1.75,0.25,1.0,1.5,1.0,1.25,-0.17,0.45,0.52,5.01,-3.7,11.0
4.36,0.25,0.25,0.25,0.25,0.5,0.0,1.25,1.0,0.0,0.0,0.0,0.25,0.25,1.08,4.2,0.39,168.96,6.8,8.7,1.75,1.0,0.0,1.5,3.75,0.75,0.5,1.75,0.75,0.5,1.25,1.0,1.25,-0.36,0.64,0.08,70.98,-3.1,8.7
4.38,0.25,0.25,0.0,0.75,0.5,0.5,1.75,1.0,0.0,0.0,0.0,0.25,0.5,1.7,4.27,-0.11,120.72,3.6,8.3,2.0,1.5,0.0,1.25,0.5,1.0,0.0,0.25,0.25,0.75,0.25,1.0,0.25,-0.98,0.95,-0.3,74.06,-8.7,27.0
4.4,0.0,0.25,0.0,0.25,0.0,0.75,1.0,0.75,0.0,0.0,0.0,0.25,1.0,1.39,2.52,-0.05,67.82,-4.6,-24.5,2.0,1.5,0.0,1.25,3.75,1.25,0.5,1.75,0.75,0.5,1.5,1.0,1.0,-0.8,1.14,-0.3,109.69,-3.3,13.2
4.42,0.25,0.25,0.75,0.0,0.0,1.0,1.25,1.0,0.0,2.25,0.25,1.75,1.5,-0.55,0.27,0.45,71.07,-1.7,-46.3,0.5,0.5,0.25,0.0,4.25,0.0,0.0,0.25,0.25,0.5,0.0,0.25,0.25,-0.55,0.95,-0.11,98.8,-0.7,34.3
4.44,0.0,0.0,1.75,1.5,0.75,3.0,1.25,3.0,1.75,2.75,0.5,2.25,3.25,-4.3,2.33,4.7,136.47,-2.1,-32.0,0.5,0.5,0.0,0.5,1.75,0.5,0.0,0.25,0.25,0.75,0.25,0.25,0.25,-0.55,0.77,0.08,95.28,-0.4,16.9
4.46,0.0,0.0,1.25,2.0,0.0,4.25,2.0,4.75,1.5,7.75,0.0,7.5,6.0,-0.42,0.64,2.39,270.07,-4.9,-54.5,0.5,0.25,0.0,0.5,1.75,0.5,0.0,0.25,0.25,0.25,0.0,0.0,0.25,-0.48,0.64,0.14,83.14,-0.5,33.6
4.48,2.75,0.0,3.0,3.0,5.25,5.75,4.5,7.5,3.25,9.75,6.25,9.25,9.75,0.45,0.27,1.64,554.58,-0.6,-37.0,0.5,0.25,0.0,0.5,1.25,0.0,0.0,0.25,0.25,0.0,0.0,0.0,0.25,-0.3,0.7,0.14,74.61,-5.5,38.1
4.5,1.75,0.25,4.0,3.25,1.75,5.75,4.5,7.25,3.5,9.75,7.0,9.0,10.5,-0.11,-0.23,1.08,862.1,-0.1,-43.1,0.5,0.25,0.0,0.5,1.25,0.0,0.0,0.25,0.25,0.25,0.25,0.0,0.25,-0.3,0.64,0.08,62.56,-4.5,23.9
4.52,1.75,0.25,3.75,3.25,4.5,5.75,4.0,7.75,2.25,8.75,6.5,8.0,9.75,-0.17,0.02,1.08,1101.46,-0.8,-36.5,0.25,0.5,0.0,0.5,1.25,0.0,0.0,0.25,0.25,0.75,0.25,0.25,0.25,0.08,0.64,-0.05,51.88,-1.5,6.7
4.54,1.5,1.0,1.5,3.25,0.5,5.75,3.0,7.5,1.5,7.5,5.5,6.75,8.75,-0.17,-0.05,0.89,1125.74,-2.5,-43.1,0.25,0.25,0.0,0.5,2.25,1.0,0.0,0.25,0.25,0.75,0.25,0.0,0.25,0.64,0.7,-0.05,55.53,3.7,20.2
4.56,1.75,1.75,3.75,3.25,4.75,7.0,4.0,7.25,1.5,5.25,2.75,4.25,6.75,-0.23,-0.11,0.7,1078.89,-0.6,-15.6,0.0,0.0,0.0,0.5,1.25,1.0,0.0,0.25,0.25,0.5,0.5,0.25,0.0,0.95,0.58,-0.3,46.86,4.0,4.1
4.58,1.75,1.5,3.0,3.25,3.75,8.5,4.5,7.5,1.0,4.75,2.25,2.75,5.0,-0.3,-0.05,0.95,966.86,-1.8,-9.5,0.0,0.25,0.0,0.5,1.25,1.0,0.0,0.25,0.0,0.75,0.5,0.0,0.0,1.08,0.39,-0.48,51.74,5.3,13.4
4.6,2.25,1.75,4.25,3.75,6.75,8.75,4.5,7.5,1.0,4.25,2.25,2.0,3.25,-0.36,0.02,1.45,928.97,0.0,4.6,0.25,0.5,0.0,0.5,1.5,1.0,0.25,0.25,0.25,1.0,0.25,0.25,0.0,0.39,0.2,-0.36,62.44,1.9,15.2
4.62,3.5,1.75,4.25,5.25,8.0,9.5,3.75,7.5,1.0,4.25,1.5,2.0,3.25,-0.61,0.02,1.52,922.9,0.5,10.8,0.5,0.25,0.0,0.5,2.5,1.0,0.0,0.0,0.25,1.25,0.5,0.25,0.0,0.02,0.02,-0.8,81.57,1.6,16.5
4.64,4.75,1.75,4.25,5.25,8.75,9.5,2.5,7.25,1.0,2.75,1.5,1.75,2.75,-0.42,0.2,1.52,924.01,1.4,17.5,0.5,0.0,0.0,0.5,0.0,1.0,0.0,0.25,0.0,0.75,0.25,0.25,0.0,-0.42,0.08,-0.86,72.96,2.1,-1.0
4.66,5.25,1.75,4.25,3.75,8.25,8.75,0.75,6.75,0.5,2.75,1.25,1.75,2.75,-0.48,0.33,1.77,871.49,1.2,17.8,0.5,0.25,0.0,0.5,0.0,1.0,0.0,0.25,0.0,1.25,0.25,0.25,0.25,-0.73,-0.05,-1.05,78.1,3.5,-9.9
4.68,6.0,2.0,4.25,3.25,7.25,7.75,1.0,5.75,0.25,2.75,1.25,1.75,1.75,-0.67,0.39,1.89,782.27,3.0,22.3,0.5,0.25,0.0,0.5,1.25,1.0,0.0,0.25,0.0,1.5,0.75,0.25,0.25,-0.98,-0.17,-1.11,83.47,2.8,-3.3
4.7,5.5,1.75,4.25,3.25,5.75,6.25,0.0,4.75,0.25,2.5,1.25,1.75,1.5,-0.55,0.39,1.89,658.5,4.1,22.1,0.75,0.5,0.0,0.5,1.25,1.0,0.0,0.5,0.0,1.5,1.0,0.25,0.25,-1.05,-1.17,-2.92,96.81,1.2,-0.2
4.72,5.0,1.75,4.0,3.25,5.25,4.25,1.25,3.25,0.25,2.5,0.75,1.75,1.5,-0.98,0.64,0.77,539.84,6.3,23.7,0.75,0.25,0.0,0.5,1.25,1.25,0.0,0.25,0.25,1.25,0.0,0.0,0.25,-0.86,-0.86,-3.05,102.38,3.1,16.3
4.74,1.75,0.0,3.75,0.5,4.25,0.5,0.25,3.0,0.0,0.0,0.75,0.0,1.0,-1.86,1.89,-0.73,378.82,8.2,26.0,0.75,0.25,0.0,0.5,1.25,1.0,0.0,0.25,0.0,1.25,0.25,0.0,0.25,-2.61,0.39,-1.67,103.95,2.4,14.1
4.76,1.25,0.25,1.5,0.0,0.0,0.25,0.0,1.0,0.0,0.0,0.0,0.25,1.25,-1.55,3.39,0.27,237.61,11.4,6.0,0.5,0.0,0.0,0.5,1.25,1.0,0.0,0.25,0.0,1.0,0.25,0.0,0.25,-3.11,1.64,-1.67,96.3,4.2,10.4
4.78,0.75,0.25,2.0,0.75,0.75,1.25,0.0,0.0,0.0,0.0,0.0,0.25,1.25,0.2,1.39,1.14,120.51,10.1,24.7,0.5,0.0,0.0,0.5,1.25,1.0,0.0,0.0,0.0,1.25,0.0,0.0,0.25,-3.42,2.08,-1.05,87.14,4.9,12.8
4.8,0.75,0.25,1.75,1.5,0.0,0.25,0.0,0.0,0.0,0.0,0.0,0.25,1.0,0.27,0.27,0.52,22.82,18.2,27.8,0.5,0.25,0.0,0.25,2.25,1.0,0.0,0.25,0.0,1.5,0.0,0.0,0.25,-3.42,1.95,-0.55,90.75,5.7,16.2
4.82,0.5,0.25,1.75,3.0,0.5,1.25,0.0,1.5,0.25,1.75,0.0,1.75,1.25,0.7,-0.17,0.52,16.67,4.4,-7.0,0.5,0.25,0.0,0.5,0.0,1.0,0.0,0.0,0.0,1.0,0.25,0.0,0.0,-3.05,1.64,1.14,78.94,1.7,11.6
4.84,1.75,1.0,1.5,3.0,0.0,1.75,0.0,1.0,0.25,2.25,0.5,1.75,1.25,1.33,-0.55,0.7,48.17,6.2,0.4,0.5,0.25,0.0,0.5,0.0,1.0,0.0,0.0,0.0,1.25,0.0,0.0,0.25,-1.98,1.27,0.95,69.85,4.3,2.9
4.86,1.75,0.5,2.25,2.75,0.75,1.25,0.0,2.0,0.25,2.5,0.5,1.5,1.5,0.95,-0.67,0.83,102.9,5.6,-2.2,0.5,0.25,0.0,0.5,0.0,1.0,0.0,0.0,0.0,1.25,0.25,0.0,0.0,-0.92,1.02,0.7,59.99,2.7,5.7
4.88,1.75,0.5,2.75,2.5,1.75,0.0,1.0,1.75,0.0,0.0,0.25,0.75,1.5,-0.36,-1.48,1.52,130.56,12.8,22.1,0.5,0.0,0.0,0.0,0.0,1.0,0.0,0.0,0.0,0.75,0.0,0.0,0.0,-0.73,0.77,0.83,49.0,7.8,9.8
4.9,1.75,0.25,2.25,0.75,2.25,0.0,1.0,2.0,0.0,0.0,0.5,0.25,1.5,-0.67,-0.67,0.77,143.7,9.8,17.2,0.5,0.5,0.0,0.5,0.0,0.75,0.0,0.0,0.0,0.75,0.0,0.0,0.0,-0.67,0.45,1.02,40.56,-1.3,31.8
4.92,0.25,0.25,3.0,0.25,2.25,0.0,0.25,1.5,0.0,0.0,0.0,0.25,1.0,-0.8,1.39,-1.23,134.38,9.8,20.9,0.5,0.0,0.0,0.5,0.0,1.0,0.0,0.0,0.0,1.25,0.0,0.0,0.0,-0.42,0.33,1.08,37.17,4.9,4.3
4.94,0.0,0.25,1.0,0.5,0.5,0.0,1.75,0.5,0.0,0.0,0.0,0.25,0.75,-1.3,1.52,-1.23,106.59,12.6,8.6,0.5,0.0,0.0,0.25,0.0,1.0,0.0,0.25,0.0,0.75,0.0,0.0,0.0,-0.11,0.14,0.89,36.37,6.2,9.9
4.96,1.75,0.75,1.75,1.75,0.0,1.5,1.25,1.5,0.25,2.0,0.25,1.75,1.5,-2.48,0.89,-1.05,138.43,6.3,-5.2,0.5,0.25,0.0,0.5,0.0,1.0,0.0,0.0,0.0,0.75,0.0,0.0,0.25,0.14,0.08,0.7,39.27,2.5,15.2
4.98,1.75,0.5,2.25,0.5,1.25,1.25,1.0,1.0,0.25,2.25,0.75,1.75,1.5,-2.86,1.7,-0.23,176.9,6.2,-7.7,0.5,0.0,0.0,0.5,0.0,1.0,0.0,0.0,0.0,1.25,0.0,0.0,0.0,0.33,-0.05,0.45,41.93,4.9,4.3
5.0,1.75,0.75,2.25,1.5,1.25,1.5,0.75,1.0,0.25,2.0,0.75,1.75,1.5,-0.92,1.64,-0.23,215.08,6.8,-0.6,0.5,0.0,0.0,0.5,1.0,1.0,0.0,0.0,0.0,1.5,0.25,0.0,0.0,0.52,-0.23,0.33,53.57,4.3,7.9
5.02,1.75,0.5,3.0,1.75,0.5,1.25,1.75,1.0,0.25,2.25,0.5,1.75,1.25,-0.48,0.64,-1.3,229.68,9.9,0.7,0.5,0.0,0.0,0.5,0.5,1.0,0.0,0.0,0.0,1.25,0.0,0.0,0.25,0.7,-0.55,0.08,58.59,5.3,4.0
5.04,1.75,0.5,2.0,0.0,1.75,1.25,1.25,1.0,0.25,2.0,0.75,1.75,1.5,-0.55,0.64,-1.05,232.69,5.5,-7.4,0.5,0.25,0.0,0.0,1.25,1.0,0.0,0.0,0.0,1.5,0.0,0.0,0.0,0.77,-0.8,0.02,67.4,6.5,14.6
5.06,1.75,0.5,1.0,0.0,0.75,1.25,1.25,1.0,0.25,2.25,0.5,1.75,1.5,-0.73,0.95,-0.8,212.93,3.2,-18.2,0.5,0.0,0.0,0.25,1.25,1.0,0.0,0.0,0.0,0.75,0.0,0.0,0.0,0.77,-1.23,0.08,70.25,4.4,29.4
5.08,1.75,0.75,2.25,0.0,1.75,1.25,1.25,1.0,0.25,2.25,0.25,1.75,1.5,-1.36,1.27,-0.98,210.78,5.7,-3.5,0.5,0.0,0.0,0.5,1.25,1.0,0.0,0.0,0.0,0.75,0.0,0.0,0.0,0.83,-1.36,0.2,71.82,3.1,31.2
5.1,1.75,0.5,1.5,0.25,0.75,4.5,0.5,1.0,2.0,1.25,0.5,1.75,1.5,-1.73,1.39,-0.98,220.93,1.2,-5.1,0.5,0.0,0.0,0.0,1.25,1.0,0.25,0.25,0.0,0.75,0.0,0.0,0.25,0.95,-1.73,0.08,71.45,6.0,15.1
5.12,1.75,0.75,0.0,1.5,1.25,1.5,0.5,1.25,0.25,1.25,0.25,1.75,1.5,-1.55,1.27,-0.42,219.27,1.7,-5.3,0.5,0.0,0.0,0.25,1.25,1.0,0.0,0.25,0.0,1.25,0.25,0.0,0.0,0.95,-1.86,-0.05,75.81,5.5,9.8
5.14,1.75,0.5,0.0,1.75,0.75,0.75,1.25,2.25,0.25,1.25,2.0,1.75,0.0,-1.17,1.02,0.14,215.46,5.7,-9.1,0.5,0.25,0.0,0.0,1.0,1.0,0.0,0.0,0.0,0.75,0.25,0.0,0.0,0.83,-1.86,-0.23,72.67,3.9,23.6
5.16,0.25,0.75,0.0,2.5,0.0,1.5,6.0,5.25,0.25,1.25,1.75,1.75,1.25,-1.17,0.58,0.58,229.47,1.8,-20.1,0.5,0.0,0.0,0.0,1.25,1.0,0.0,0.0,0.0,0.75,0.25,0.0,0.25,0.58,-1.55,-0.23,71.59,5.5,12.6
5.18,0.25,0.25,1.25,0.25,0.75,1.5,2.25,5.0,0.75,0.75,0.0,1.25,0.25,-1.36,0.33,0.64,218.54,-1.0,-13.2,0.5,0.25,0.0,0.0,1.0,1.0,0.0,0.0,0.0,0.5,0.0,0.0,0.25,0.2,-1.23,-0.17,66.85,4.8,27.7
5.2,1.0,0.25,2.25,1.25,0.0,4.5,5.0,4.75,1.75,0.5,1.25,1.5,0.25,-1.36,0.27,0.45,238.84,3.9,-1.2,0.5,0.25,0.0,0.0,1.25,1.0,0.0,0.0,0.0,0.75,0.0,0.0,0.25,-0.11,-0.98,-0.11,65.68,5.3,23.2
5.22,1.25,0.0,2.0,1.75,0.0,5.0,5.0,4.75,2.5,0.75,1.0,1.5,0.0,-1.17,0.2,0.14,263.97,3.6,0.0,0.5,0.0,0.0,0.0,1.25,1.0,0.0,0.25,0.0,0.75,0.0,0.0,0.25,-0.3,-0.8,0.02,64.53,7.1,14.7
5.24,1.0,0.0,0.0,0.75,0.0,3.5,5.75,4.75,1.75,0.0,1.25,0.75,0.0,-0.86,0.14,-0.05,265.54,1.2,-6.1,0.5,0.25,0.0,0.0,1.5,1.0,0.0,0.0,0.0,0.75,0.0,0.0,0.25,-0.23,-0.8,0.02,66.81,5.2,25.2
5.26,0.75,0.0,0.25,0.5,0.0,3.0,5.25,4.5,1.75,0.0,0.75,0.75,0.0,-0.73,0.14,-0.17,249.46,1.3,-6.7,0.5,0.0,0.0,0.0,1.25,1.0,0.0,0.0,0.0,0.75,0.25,0.0,0.25,-0.17,-0.73,0.02,67.49,5.5,12.6
5.28,1.25,0.0,0.5,1.75,0.0,5.0,5.75,5.0,2.0,3.0,0.5,2.25,0.0,-0.73,0.02,-0.36,266.13,-0.3,-12.2,0.5,0.25,0.0,0.0,0.0,1.0,0.0,0.0,0.0,0.75,0.0,0.0,0.25,-0.17,-0.61,0.08,59.32,6.4,6.8
5.3,2.0,1.0,1.75,3.75,0.75,4.25,2.5,2.25,1.75,1.75,0.5,2.0,1.5,-0.86,-0.17,-0.55,287.47,4.7,5.2,0.5,0.0,0.0,0.0,0.25,1.0,0.0,0.0,0.0,0.75,0.0,0.0,0.25,-0.3,-0.55,0.14,51.35,7.9,3.1
5.32,0.75,0.0,1.75,0.75,0.0,4.25,6.25,4.75,2.0,0.0,0.5,0.5,0.0,-0.8,-0.3,-0.48,286.41,3.6,5.0,0.5,0.25,0.0,0.0,0.25,1.0,0.0,0.25,0.0,1.0,0.0,0.0,0.0,-0.48,-0.42,0.39,46.72,7.1,10.4
5.34,0.0,0.0,0.0,0.0,0.0,3.5,5.25,3.25,1.75,0.0,0.0,1.25,0.0,-0.67,-0.36,-0.36,258.26,-1.3,-12.2,0.5,0.0,0.0,0.0,1.25,1.0,0.0,0.0,0.0,0.75,0.75,0.0,0.25,-0.73,-0.3,0.52,53.09,3.8,3.3
5.36,1.75,0.5,1.75,1.75,0.0,1.5,0.75,1.0,0.25,1.5,0.25,1.75,1.25,-0.55,-0.48,-0.23,229.86,7.8,-2.0,0.5,0.25,0.0,0.25,1.25,1.0,0.0,0.0,0.0,0.75,0.0,0.0,0.25,-0.8,-0.23,0.7,60.48,4.0,25.3
5.38,1.75,0.5,1.5,1.75,0.0,1.5,1.25,1.0,0.25,1.5,0.25,1.75,1.25,-0.48,-0.61,-0.17,199.29,7.7,-2.6,0.5,0.25,0.0,0.0,1.25,1.0,0.0,0.25,0.0,1.0,0.0,0.0,0.0,-0.86,-0.23,0.89,68.18,6.1,21.8
5.4,1.75,0.5,2.0,1.75,0.75,1.5,1.25,0.75,0.25,1.0,0.75,1.75,1.25,-0.36,-0.67,-0.11,189.73,9.4,3.5,0.5,0.0,0.0,0.0,1.25,1.0,0.0,0.0,0.0,0.75,0.0,0.0,0.25,-0.86,-0.23,0.89,68.28,6.5,18.2
5.42,2.5,0.75,1.75,4.0,1.75,4.25,6.25,3.75,1.25,2.75,0.0,2.25,0.0,-0.3,-0.73,-0.11,250.94,5.6,12.0,0.5,0.25,0.0,0.0,1.0,1.0,0.0,0.25,0.0,0.75,0.0,0.0,0.0,-0.86,-0.23,0.83,66.87,5.7,25.8
5.44,1.75,0.5,2.25,2.0,2.25,1.5,4.0,2.5,0.25,0.75,1.25,1.25,1.5,-0.17,-0.8,-0.17,268.97,8.0,7.6,0.5,0.0,0.0,0.0,1.25,1.0,0.0,0.0,0.0,0.75,0.0,0.0,0.25,-0.86,-0.17,0.7,64.22,6.5,18.2
5.46,1.5,0.5,1.25,1.75,0.0,1.25,1.0,1.0,0.25,1.25,0.25,1.75,1.25,-0.11,-0.8,-0.23,256.89,7.3,-5.4,0.5,0.25,0.0,0.0,2.25,1.0,0.0,0.0,0.0,1.0,0.0,0.0,0.25,-0.98,-0.11,0.64,73.02,5.3,25.1
5.48,1.75,0.5,1.5,1.75,0.5,1.25,1.25,1.0,0.25,1.75,0.25,1.75,1.25,0.02,-0.8,-0.3,233.33,7.3,-2.2,0.5,0.0,0.0,0.0,1.75,1.0,0.0,0.0,0.0,0.5,0.0,0.0,0.25,-0.92,-0.11,0.52,74.57,5.5,28.6
5.5,1.75,0.5,1.75,1.75,0.75,1.25,1.0,0.75,0.25,1.5,0.25,1.75,1.5,0.08,-0.73,-0.42,209.42,7.9,-0.2,0.5,0.0,0.0,0.0,1.25,1.0,0.0,0.0,0.0,0.75,0.0,0.0,0.25,-0.73,-0.11,0.45,74.56,6.5,18.2
5.52,1.75,0.5,1.75,1.5,3.5,1.25,1.0,1.25,0.25,1.5,0.75,1.75,1.5,0.2,-0.8,-0.48,209.68,5.2,5.2,0.5,0.25,0.0,0.0,1.75,1.0,0.0,0.0,0.0,0.5,0.0,0.0,0.75,-0.73,-0.11,0.64,76.73,5.4,17.9
5.54,1.75,0.5,1.5,1.75,0.75,1.25,1.25,1.0,0.25,1.25,0.0,1.75,1.5,0.14,-0.67,-0.67,209.12,7.5,0.7,0.5,0.0,0.0,0.0,0.5,1.0,0.0,0.0,0.0,0.75,0.0,0.0,0.0,-0.92,-0.11,0.7,66.09,6.9,19.0
5.56,1.25,0.5,1.75,1.75,0.5,1.75,1.5,0.75,0.5,1.25,0.5,1.75,1.5,0.08,-0.55,-0.73,217.89,7.2,-3.5,0.5,0.25,0.0,0.0,1.25,1.0,0.0,0.0,0.0,1.25,0.0,0.0,0.25,-1.3,0.02,0.83,66.21,6.4,12.5
5.58,1.25,0.75,1.5,1.75,0.0,1.5,1.25,1.25,0.25,1.25,0.25,1.75,1.25,-0.05,-0.36,-0.98,206.07,6.8,-3.5,0.5,0.0,0.0,0.0,1.25,1.0,0.0,0.0,0.0,0.75,0.0,0.0,0.25,-1.55,0.14,0.89,62.4,6.5,18.2
5.6,1.75,0.5,1.75,1.75,1.25,1.25,0.75,1.0,0.25,1.25,0.25,1.75,1.25,-0.23,-0.17,-1.17,199.63,7.6,4.1,0.5,0.0,0.0,0.0,1.25,1.0,0.0,0.25,0.0,0.75,0.0,0.0,0.25,-1.55,0.14,0.83,65.12,7.1,14.7
5.62,1.75,0.5,1.25,1.75,0.0,1.25,1.0,1.0,0.25,1.5,0.5,1.75,1.5,-0.3,0.02,-1.36,188.93,7.0,-8.1,0.5,0.25,0.0,0.0,1.0,1.0,0.0,0.0,0.0,0.75,0.0,0.0,0.25,-1.55,0.14,0.89,63.2,5.5,20.9
5.64,1.75,0.5,1.75,1.75,0.5,1.25,0.75,1.0,0.25,1.75,0.5,1.75,1.25,-0.36,0.33,-1.36,188.53,7.5,-2.8,0.5,0.25,0.0,0.0,1.25,1.0,0.0,0.0,0.0,1.0,0.0,0.0,0.25,-1.55,0.14,0.83,66.45,5.9,17.6
5.66,1.5,0.5,1.25,1.75,0.75,1.25,1.0,0.75,0.25,2.0,0.25,1.75,1.5,-0.48,0.45,-1.3,185.45,5.5,-6.8,0.5,0.0,0.0,0.0,0.5,1.0,0.0,0.0,0.0,0.75,0.0,0.0,0.25,-1.36,0.2,0.89,59.52,7.5,7.9
5.68,1.75,0.5,1.5,1.75,1.75,1.25,1.25,1.5,0.25,1.75,1.25,1.75,1.5,-0.61,0.58,-1.23,209.95,5.6,-4.3,0.5,0.25,0.0,0.0,1.25,1.0,0.0,0.0,0.0,0.75,0.0,0.0,0.0,-1.17,0.2,0.7,59.26,4.8,32.1
5.7,1.75,0.5,1.75,1.75,1.25,1.25,1.25,1.25,0.25,1.75,0.0,1.75,1.5,-0.67,0.52,-1.11,219.16,6.4,0.6,0.5,0.0,0.0,0.0,1.5,1.0,0.0,0.0,0.0,0.75,0.0,0.0,0.0,-0.98,0.08,0.64,58.54,5.8,29.2
5.72,1.5,0.5,1.0,1.75,1.25,1.25,1.0,0.75,0.25,1.25,0.5,1.5,1.25,-0.67,0.45,-0.86,213.89,6.1,0.9,0.5,0.0,0.0,0.0,1.25,1.0,0.0,0.0,0.0,1.0,0.0,0.0,0.25,-0.86,0.02,0.64,62.57,7.1,12.5
5.74,1.5,0.5,1.5,1.75,1.25,1.25,1.25,1.0,0.25,1.25,0.0,1.75,1.5,-0.73,0.27,-0.42,208.57,6.6,1.3,0.5,0.0,0.0,0.0,1.25,1.0,0.0,0.0,0.0,1.0,0.0,0.0,0.0,-0.73,-0.05,0.83,63.04,6.6,20.6
5.76,1.75,0.5,2.0,1.75,2.25,1.25,1.75,0.75,0.0,1.25,0.25,1.75,1.25,-0.8,0.2,-0.17,211.97,8.4,10.7,0.5,0.0,0.0,0.0,1.25,1.0,0.0,0.0,0.0,1.25,0.0,0.0,0.25,-0.61,-0.11,0.95,65.83,7.6,7.4
5.78,1.5,0.75,1.5,1.75,0.75,1.25,1.25,1.0,0.25,0.75,0.0,1.75,1.5,-0.73,0.14,0.14,209.42,7.9,3.8,0.5,0.0,0.0,0.0,1.5,1.0,0.0,0.0,0.0,0.75,0.0,0.0,0.0,-0.55,-0.17,1.14,66.56,5.8,29.2
5.8,1.75,0.5,1.75,2.0,2.25,1.25,0.75,1.0,0.25,1.25,0.5,1.75,1.5,-0.61,0.14,0.27,218.34,6.7,5.5,0.5,0.0,0.0,0.25,1.75,1.0,0.0,0.0,0.0,0.75,0.0,0.0,0.0,-0.36,-0.17,1.2,68.36,4.3,32.5
5.82,1.25,0.75,1.25,2.0,0.75,1.25,0.25,0.75,0.25,1.5,0.5,1.75,1.25,-0.36,0.2,0.33,211.94,5.9,-2.9,0.5,0.0,0.0,0.0,1.25,1.0,0.0,0.0,0.0,0.75,0.0,0.0,0.25,-0.11,-0.17,1.2,67.65,6.5,18.2
5.84,1.5,0.5,1.25,2.25,0.5,1.5,1.0,0.75,0.25,1.5,0.0,1.75,1.25,-0.17,0.27,0.27,206.66,6.7,0.8,0.5,0.0,0.0,0.0,1.25,1.0,0.0,0.5,0.0,1.0,0.0,0.0,0.0,0.02,-0.17,1.14,69.16,7.8,13.8
5.86,1.5,0.5,1.0,2.25,1.25,1.5,1.25,0.5,0.25,1.5,0.0,1.75,1.25,-0.11,0.2,0.27,200.82,6.1,3.9,0.5,0.25,0.0,0.0,1.25,1.0,0.0,0.0,0.0,0.75,0.0,0.0,0.0,0.02,-0.17,1.2,67.47,4.8,32.1
5.88,1.5,0.5,1.5,2.25,1.25,1.25,1.25,1.0,0.25,1.25,0.25,1.75,0.75,-0.11,0.02,0.33,201.03,8.1,8.1,0.5,0.25,0.0,0.0,1.25,1.0,0.0,0.0,0.0,0.5,0.0,0.0,0.25,0.08,-0.17,1.2,66.72,4.6,29.6
5.9,1.75,0.5,0.25,2.25,0.75,1.25,0.75,1.0,0.0,1.25,0.5,1.75,1.25,-0.17,-0.17,0.33,194.46,4.8,-3.2,0.0,0.0,0.0,0.0,1.25,1.0,0.0,0.0,0.0,0.75,0.0,0.0,0.25,0.14,-0.11,1.2,62.44,12.2,7.2
5.92,1.75,0.25,1.5,2.25,0.75,1.25,1.0,0.0,0.0,2.0,0.5,1.75,1.5,-0.17,-0.36,0.58,194.33,8.0,-2.3,0.5,0.25,0.0,0.25,1.25,1.0,0.0,0.0,0.0,0.75,0.0,0.0,0.0,0.27,-0.17,1.08,62.81,3.4,33.7
5.94,1.75,0.5,1.75,2.25,0.5,1.25,1.0,1.0,0.25,2.5,0.25,1.75,1.25,-0.3,-0.55,0.7,202.56,6.8,-2.9,0.5,0.25,0.0,0.5,1.25,1.0,0.0,0.25,0.0,1.0,0.0,0.0,0.25,0.27,-0.17,1.02,69.02,4.1,18.9
5.96,1.5,0.5,1.75,2.0,1.25,1.5,1.25,1.0,0.0,2.5,0.5,1.75,1.25,-0.67,-0.73,0.83,213.44,5.5,-2.1,0.5,0.0,0.0,0.5,1.0,1.0,0.0,0.0,0.0,0.75,0.0,0.0,0.0,0.2,-0.11,0.95,69.43,3.0,29.5
5.98,1.75,0.5,1.75,2.5,1.25,1.25,1.5,1.0,0.0,2.25,0.25,1.75,1.0,-0.98,-0.86,1.08,221.65,7.4,4.8,0.5,0.25,0.0,0.5,2.25,1.0,0.0,0.0,0.0,0.75,0.0,0.0,0.25,0.14,-0.17,0.89,79.79,2.9,32.4
6.0,1.75,0.5,1.75,2.5,0.75,1.5,1.5,1.0,0.0,2.5,0.25,1.75,1.5,-1.42,-0.8,1.02,229.14,6.4,-1.1,0.5,0.0,0.0,0.5,1.25,1.0,0.0,0.0,0.0,0.75,0.0,0.0,0.25,-0.05,-0.23,0.89,78.87,3.7,22.9
6.02,1.5,0.5,1.75,2.75,0.75,1.25,1.5,1.0,0.25,2.0,0.75,1.75,1.5,-1.73,-0.8,0.83,234.26,7.4,-2.6,0.5,0.0,0.0,0.5,2.5,1.0,0.0,0.0,0.0,0.75,0.0,0.0,0.0,-0.11,-0.36,0.89,86.1,3.1,36.9
6.04,1.75,0.5,1.75,2.75,1.25,1.25,1.25,0.75,0.0,1.5,0.5,1.75,1.25,-1.73,-0.73,0.58,233.03,8.6,6.9,0.5,0.0,0.0,0.5,1.25,1.0,0.0,0.0,0.0,1.0,0.0,0.0,0.0,-0.36,-0.48,0.77,81.8,3.8,25.1
6.06,1.75,0.5,1.75,2.75,0.75,1.25,1.25,1.0,0.0,1.5,0.5,1.75,1.5,-1.48,-0.73,0.58,232.78,8.3,2.6,0.5,0.0,0.0,0.0,1.25,1.0,0.0,0.25,0.0,1.0,0.0,0.0,0.25,-0.42,-0.42,0.77,80.2,7.6,9.5
6.08,1.75,0.5,2.0,2.5,0.75,1.25,1.25,0.75,0.25,1.25,0.5,1.75,1.0,-1.3,-0.67,0.58,227.42,10.3,7.8,0.5,0.0,0.0,0.25,1.25,1.0,0.0,0.0,0.0,0.75,0.0,0.0,0.25,-0.55,-0.42,0.77,73.81,5.0,20.7
6.1,1.5,0.5,1.75,2.75,0.75,1.5,1.25,1.0,0.25,1.25,0.25,1.75,1.25,-1.17,-0.61,0.52,223.59,8.2,5.4,0.5,0.0,0.0,0.25,1.0,1.0,0.0,0.0,0.0,0.75,0.0,0.0,0.5,-0.3,-0.36,0.77,70.37,5.7,10.1
6.12,1.75,0.5,2.0,2.5,2.25,1.5,0.0,1.25,0.0,1.25,0.25,1.75,1.25,-0.92,-0.61,0.52,227.1,6.4,10.9,0.5,0.0,0.0,0.25,1.0,1.0,0.0,0.0,0.0,1.25,0.25,0.0,0.0,0.02,-0.3,0.64,68.37,4.9,9.7
6.14,1.5,0.5,1.75,2.75,0.0,1.25,1.0,1.0,0.0,1.0,0.75,1.75,1.25,-0.67,-0.55,0.64,220.01,9.6,1.1,0.5,0.0,0.0,0.5,1.25,1.0,0.0,0.0,0.0,1.5,1.0,0.25,0.25,1.7,-3.11,1.89,77.58,2.4,-8.8
6.16,1.75,0.5,1.75,2.75,1.25,1.5,0.5,0.75,0.0,1.0,0.0,1.75,1.5,-0.55,-0.48,0.7,216.95,7.9,10.3,0.5,0.25,0.0,0.5,3.0,1.0,0.0,0.25,0.0,1.5,1.0,0.0,0.75,0.58,0.7,0.02,101.1,3.5,4.2
6.18,1.75,0.75,1.75,2.75,0.75,1.25,0.25,1.0,0.25,1.25,0.5,1.75,1.75,-0.42,-0.55,0.7,215.12,7.7,2.2,1.75,0.0,0.0,0.5,3.0,1.0,0.5,0.0,0.0,1.75,1.25,0.25,0.75,1.27,0.33,1.52,130.71,-1.6,7.3
6.2,1.75,0.5,2.0,2.75,0.75,1.25,0.5,0.5,0.0,0.5,0.25,1.75,1.25,-0.42,-0.55,0.77,209.48,11.3,13.8,0.5,0.0,0.0,0.5,1.25,1.0,0.0,0.0,0.0,1.5,1.0,0.5,0.5,0.7,0.08,1.77,134.49,2.4,-16.3
6.22,1.75,0.5,1.75,2.75,0.5,1.25,1.25,1.0,0.0,1.25,0.5,1.75,1.25,-0.36,-0.55,0.89,208.6,9.3,4.8,0.5,0.0,0.0,0.5,1.25,1.0,0.0,0.25,0.0,1.75,1.0,0.0,0.5,0.08,0.08,1.27,129.95,4.2,-12.5
6.24,1.75,0.5,1.75,2.5,1.75,1.25,1.25,0.75,0.0,1.25,0.5,1.75,1.25,-0.3,-0.67,0.83,213.13,8.4,9.1,0.5,0.0,0.0,0.5,1.25,1.0,0.0,0.0,0.0,2.0,0.75,0.0,0.25,-0.05,-0.11,0.95,118.07,4.4,-7.6
6.26,1.75,0.5,1.75,2.75,1.25,1.25,1.0,1.0,0.0,1.25,1.0,1.75,1.0,-0.23,-0.67,0.77,218.94,8.8,6.7,0.5,0.0,0.0,0.5,1.75,1.0,0.0,0.0,0.0,1.5,1.25,0.25,0.25,-0.05,-0.3,0.33,113.07,2.0,-6.0
6.28,0.0,0.25,1.75,0.5,0.5,0.25,0.25,0.0,0.0,0.0,0.0,0.25,0.0,-0.17,-0.67,0.77,170.94,21.2,47.9,0.5,0.0,0.0,0.5,1.25,1.0,0.0,0.0,0.0,1.5,1.25,0.25,0.75,0.02,-0.3,0.7,110.83,2.7,-18.4
6.3,0.0,0.25,0.25,0.5,0.0,0.25,0.0,0.0,0.0,0.0,0.0,0.25,0.5,-0.17,-0.61,0.77,111.7,5.8,-2.0,0.5,0.0,0.0,0.5,2.25,1.0,0.25,0.0,0.25,2.0,1.25,0.5,0.75,0.14,-0.23,0.83,123.32,2.3,-14.9
6.32,0.0,0.25,0.0,0.5,0.0,0.25,0.0,0.0,0.0,0.0,0.0,0.25,0.0,-0.17,-0.55,0.83,45.99,7.1,28.9,0.5,0.0,0.0,0.5,1.25,1.0,0.0,0.0,0.0,2.25,1.25,1.0,1.0,0.27,-0.23,0.83,129.83,3.2,-33.6
