time,left pressure 0[N/cm虏],left pressure 1[N/cm虏],left pressure 2[N/cm虏],left pressure 3[N/cm虏],left pressure 4[N/cm虏],left pressure 5[N/cm虏],left pressure 6[N/cm虏],left pressure 7[N/cm虏],left pressure 8[N/cm虏],left pressure 9[N/cm虏],left pressure 10[N/cm虏],left pressure 11[N/cm虏],left pressure 12[N/cm虏],left acceleration X[g],left acceleration Y[g],left acceleration Z[g],left total force[N],left center of pressure X[mm],left center of pressure Y[mm],right pressure 0[N/cm虏],right pressure 1[N/cm虏],right pressure 2[N/cm虏],right pressure 3[N/cm虏],right pressure 4[N/cm虏],right pressure 5[N/cm虏],right pressure 6[N/cm虏],right pressure 7[N/cm虏],right pressure 8[N/cm虏],right pressure 9[N/cm虏],right pressure 10[N/cm虏],right pressure 11[N/cm虏],right pressure 12[N/cm虏],right acceleration X[g],right acceleration Y[g],right acceleration Z[g],right total force[N],right center of pressure X[mm],right center of pressure Y[mm]
0.02,7.0,2.0,5.25,5.25,7.75,8.0,7.25,7.0,5.5,5.0,4.5,3.5,3.75,-0.11,-0.05,0.95,1143.73,5.2,4.8,4.75,2.0,1.5,3.25,4.25,3.75,0.75,0.0,1.0,3.25,2.0,1.0,1.5,0.77,-2.36,1.33,317.29,-6.3,21.2
0.04,7.0,1.75,5.0,5.25,7.5,8.0,7.25,7.0,5.25,5.0,4.5,3.5,3.75,-0.11,-0.05,0.95,1136.82,5.1,4.1,5.0,0.75,1.75,4.0,5.5,4.0,0.75,0.0,1.0,2.5,2.0,0.75,1.75,0.27,0.64,1.89,365.98,-6.4,23.8
0.06,6.75,1.75,5.0,5.5,7.75,8.0,7.25,7.0,5.5,5.0,4.5,3.5,4.25,-0.11,-0.05,0.95,1134.28,4.9,3.2,6.25,0.75,4.0,5.0,7.0,5.75,1.0,0.0,1.25,2.5,2.0,0.75,1.75,0.33,0.08,1.33,455.63,-7.9,30.6
0.08,6.25,1.5,5.0,5.0,7.75,8.25,7.0,7.0,5.25,5.25,4.5,4.0,5.25,-0.11,-0.05,0.95,1130.23,4.1,-0.7,6.5,2.0,4.5,6.5,7.75,6.25,1.25,0.0,1.5,2.5,1.25,0.0,0.0,0.2,0.14,1.27,551.28,-9.4,45.6
0.1,6.0,1.5,4.75,4.75,8.0,8.25,7.0,7.25,5.25,5.75,4.75,4.75,5.25,-0.11,-0.05,0.95,1134.79,3.6,-3.3,6.5,2.5,4.0,6.5,8.25,6.25,1.75,2.5,1.5,2.25,0.5,0.0,0.75,-0.11,0.08,1.08,646.92,-7.2,41.1
0.12,6.0,1.75,4.75,5.5,8.0,8.25,7.0,7.5,5.25,6.25,4.5,5.0,5.25,-0.11,-0.05,0.95,1154.74,3.6,-3.0,6.25,2.0,5.25,6.5,8.5,7.5,3.25,3.5,2.25,2.5,0.5,0.5,1.0,0.02,0.02,0.95,743.97,-6.8,34.7
0.14,6.0,1.5,4.75,5.0,7.75,8.5,6.75,7.5,5.25,6.5,4.5,5.0,5.25,-0.11,-0.05,0.95,1169.18,3.3,-4.2,6.75,3.0,5.75,8.25,10.0,7.75,3.75,4.75,3.5,4.0,2.25,1.5,2.5,0.27,-0.11,0.95,915.29,-6.1,23.3
0.16,6.0,1.75,4.75,5.0,7.75,8.75,6.75,7.75,5.25,6.5,3.5,5.0,6.0,-0.11,-0.05,0.95,1184.11,2.9,-4.0,6.75,3.0,5.5,8.25,10.5,8.0,4.0,5.5,4.25,5.25,3.0,1.5,2.5,0.27,0.02,1.08,1087.36,-5.3,19.2
0.18,5.75,1.5,4.75,4.75,7.75,8.75,6.75,7.75,5.0,6.5,3.5,5.25,6.0,-0.17,-0.05,0.95,1184.71,2.7,-5.2,6.5,3.0,6.0,8.25,10.5,8.0,4.5,5.75,4.75,5.25,3.75,1.5,2.75,0.14,0.02,0.95,1245.53,-5.5,17.2
0.2,5.5,1.25,4.75,3.75,7.75,8.5,6.5,7.75,4.75,6.75,3.5,5.75,6.0,-0.11,-0.05,0.95,1170.98,2.3,-8.0,6.25,2.75,5.75,8.25,10.5,8.0,4.5,5.75,4.5,5.25,4.0,1.5,2.75,0.14,0.02,0.95,1322.08,-5.2,16.3
0.22,5.25,1.5,4.75,3.75,7.5,8.75,6.25,7.75,4.75,6.5,3.5,5.75,6.0,-0.17,-0.05,0.95,1149.6,2.2,-7.8,6.25,2.75,6.25,8.25,9.75,8.0,4.25,5.75,4.25,5.25,3.5,1.5,2.75,0.14,0.02,0.95,1339.01,-5.5,17.0
0.24,4.5,1.75,4.75,3.5,7.5,9.0,6.25,8.0,4.5,6.25,3.5,5.25,6.0,-0.17,-0.05,0.95,1122.01,1.6,-7.6,6.25,2.75,6.0,8.25,9.75,8.0,4.0,5.75,4.25,5.25,3.0,1.5,2.75,0.14,0.02,0.95,1316.6,-5.3,17.5
0.26,3.75,1.5,3.75,3.5,6.75,9.0,6.0,7.75,4.0,6.25,3.5,5.0,6.0,-0.17,-0.05,0.95,1070.87,0.6,-10.5,5.75,2.75,6.0,8.25,9.75,7.75,4.0,5.5,3.75,4.75,2.75,1.5,2.75,0.14,0.02,0.95,1268.32,-5.3,18.5
0.28,3.5,1.25,3.75,3.5,7.0,8.5,5.75,7.75,3.25,5.0,3.25,4.5,6.0,-0.17,0.02,0.95,1004.05,0.6,-8.7,5.25,2.75,5.75,8.25,9.5,7.75,4.0,5.25,3.5,4.25,2.75,1.5,2.75,0.14,0.08,0.89,1205.11,-5.3,18.8
0.3,1.75,0.5,3.75,2.75,6.75,8.25,5.0,7.75,2.0,5.0,3.25,3.25,5.0,-0.17,0.02,0.95,892.96,-1.0,-10.3,5.0,2.75,6.0,8.0,9.5,7.75,4.0,5.0,3.5,4.5,2.75,1.5,2.5,0.14,0.08,0.89,1138.46,-5.3,18.9
0.32,0.75,0.5,2.25,1.5,5.5,6.5,3.75,6.75,1.25,2.75,1.0,0.75,3.25,-0.17,0.02,1.02,692.33,-3.6,-2.5,5.0,2.75,6.0,8.0,9.75,7.75,4.0,5.25,3.5,5.0,3.0,1.5,2.5,0.14,0.08,0.89,1098.83,-5.0,17.7
0.34,1.5,0.25,0.5,0.5,3.75,4.75,4.25,6.0,1.0,2.0,1.0,0.5,1.0,-0.11,0.08,1.08,476.55,-3.5,0.1,5.0,2.75,5.75,7.75,9.5,8.0,4.0,5.5,3.5,5.25,3.0,1.5,2.5,0.14,0.02,0.95,1067.03,-4.6,16.7
0.36,1.75,0.5,1.0,3.5,4.25,4.5,3.0,6.0,1.25,1.75,2.0,1.75,1.5,-0.05,0.14,1.2,364.1,0.0,0.4,5.0,2.5,5.75,7.75,9.5,8.0,4.0,5.75,3.5,5.25,3.0,1.5,2.75,0.14,0.02,0.95,1043.36,-4.4,15.6
0.38,1.75,0.5,2.0,1.0,2.5,3.0,1.75,5.0,1.0,1.25,1.5,0.0,1.5,-0.11,0.2,1.39,276.64,0.7,2.9,5.0,2.75,6.0,7.25,9.75,8.0,4.0,5.75,3.75,5.25,3.0,1.75,2.25,0.14,0.02,0.95,1025.99,-4.7,16.3
0.4,0.0,0.0,0.0,0.25,3.75,3.0,0.5,1.75,0.25,0.25,0.75,0.25,0.25,-0.73,1.7,0.7,189.56,-8.1,12.9,5.0,2.5,5.75,7.25,9.5,8.0,4.0,5.75,4.0,5.75,3.0,2.25,2.75,0.14,0.02,0.95,1029.75,-4.3,12.7
0.42,0.25,0.25,0.0,0.0,3.75,2.75,0.5,2.0,0.75,1.25,0.75,0.0,0.0,2.08,1.77,1.52,117.04,-7.3,9.7,5.0,2.5,5.25,6.75,9.5,8.0,4.0,6.0,4.0,6.0,3.75,2.75,3.75,0.14,0.02,0.95,1046.05,-3.6,7.7
0.44,0.25,0.25,0.0,0.5,3.0,2.25,0.5,2.0,0.75,0.5,0.5,0.25,0.0,1.52,2.45,1.02,58.92,-5.2,12.5,5.0,2.5,5.25,6.75,9.75,8.25,4.0,6.25,4.0,6.5,3.25,2.75,4.25,0.14,0.02,0.95,1074.53,-3.1,6.9
0.46,0.0,0.0,0.0,0.0,0.0,2.25,0.25,2.0,1.25,0.5,0.25,0.5,0.0,0.27,2.2,1.02,2.43,-9.5,-23.8,4.75,2.5,5.25,6.75,9.5,8.25,4.0,6.25,4.0,6.75,4.5,2.75,4.25,0.14,0.02,0.95,1104.93,-3.0,4.6
0.48,1.75,0.0,0.0,0.0,3.5,1.25,0.25,2.0,1.25,0.5,0.0,0.25,0.0,-0.11,1.7,0.95,4.31,-0.3,20.9,4.5,2.0,5.0,6.5,9.5,8.25,4.0,6.5,3.75,6.75,4.75,2.75,4.25,0.14,0.02,0.95,1118.66,-2.6,2.9
0.5,0.25,0.25,0.0,0.0,0.0,2.5,0.25,1.75,1.25,0.0,0.0,0.25,0.0,-0.42,1.52,0.77,0.0,-8.2,-1.7,4.0,2.25,4.75,6.5,9.5,8.25,3.75,6.5,3.5,6.75,4.75,2.75,3.75,0.14,0.02,0.95,1115.21,-2.3,3.3
0.52,0.0,0.25,0.0,0.0,0.0,2.25,0.25,1.5,1.0,0.0,0.0,0.25,0.0,-0.61,1.2,0.89,0.66,-10.0,-4.2,3.75,2.25,4.25,6.5,9.5,8.5,3.25,6.5,3.25,6.75,4.75,3.0,4.5,0.14,0.02,0.95,1102.51,-1.5,1.0
0.54,0.0,0.0,0.0,0.0,0.0,1.25,0.25,1.0,0.75,0.0,0.0,0.25,0.0,-0.48,1.02,1.08,0.0,-8.7,-15.5,3.75,2.0,4.0,6.5,9.5,8.5,3.0,6.75,2.75,6.75,4.0,2.75,4.5,0.14,0.02,0.95,1074.94,-1.0,1.7
0.56,0.25,0.25,0.0,0.0,0.0,1.0,0.25,0.75,0.75,0.5,0.0,0.25,0.0,-0.36,0.77,1.14,2.77,-4.0,-10.2,3.5,2.0,4.0,4.75,8.75,8.75,2.5,6.5,2.25,6.5,3.75,2.25,3.5,0.14,0.08,0.95,1010.49,-0.4,2.9
0.58,0.0,0.0,0.0,0.0,0.0,0.5,0.5,0.5,0.75,0.0,0.0,0.0,0.0,-0.23,0.64,1.08,0.0,-1.2,-12.9,2.5,2.0,3.0,4.75,8.5,8.5,2.25,6.25,2.0,4.25,2.75,1.5,3.75,0.14,0.08,1.02,909.19,0.5,5.9
0.6,0.0,0.0,0.0,0.5,0.0,0.75,0.5,0.25,0.75,0.25,0.0,0.25,0.0,-0.23,0.45,1.08,0.0,1.2,-7.9,2.0,0.75,1.75,2.25,7.25,7.5,1.75,0.0,1.25,0.0,2.75,1.25,2.0,0.14,0.08,1.2,682.99,-1.6,20.0
0.62,0.0,0.0,0.0,0.0,0.0,0.0,0.5,0.5,0.5,0.25,0.0,0.25,0.0,-0.23,0.2,1.02,1.1,2.1,-45.0,2.5,2.0,1.25,3.0,5.0,7.5,1.75,4.75,1.25,3.25,0.75,0.0,0.0,0.2,0.14,1.39,521.36,1.5,22.6
0.64,0.0,0.0,0.0,0.0,0.0,0.0,0.75,0.25,0.5,0.25,0.0,0.0,0.0,-0.42,0.02,0.89,4.65,7.0,-27.9,2.25,0.0,0.0,0.0,5.75,5.75,1.0,4.25,0.5,2.5,2.0,0.75,0.0,0.14,0.2,1.39,363.89,5.4,6.4
0.66,0.0,0.0,0.0,0.0,0.0,0.0,0.75,0.25,0.5,0.25,0.0,0.25,0.0,-0.55,-0.11,0.64,0.81,7.3,-40.6,1.0,0.5,0.0,0.25,2.5,5.75,0.0,2.0,1.0,2.5,0.5,0.0,0.0,0.39,0.64,1.08,258.14,9.1,9.7
0.68,0.0,0.0,0.0,0.0,0.0,0.0,1.0,0.25,0.25,0.0,0.0,0.25,0.0,-0.48,-0.23,0.64,1.06,13.5,-27.2,2.25,1.75,1.5,0.75,3.0,0.0,0.25,2.5,1.25,2.5,1.75,0.75,1.25,-1.67,2.45,1.14,194.4,-5.1,1.4
0.7,0.0,0.0,0.0,0.0,0.0,0.0,1.0,0.25,0.25,0.0,0.0,0.0,0.0,-0.48,-0.55,0.45,1.58,14.6,-6.2,2.25,1.75,1.5,2.25,3.75,4.0,0.0,1.75,1.0,2.5,2.0,0.5,0.0,-1.05,2.52,1.33,183.6,-2.7,20.3
0.72,0.0,0.0,0.0,0.0,3.75,0.0,1.5,2.0,0.5,0.25,1.0,0.0,1.5,-0.42,-0.8,0.2,50.53,-3.2,-10.2,2.25,0.5,2.0,1.25,4.25,2.0,0.5,2.0,1.0,2.5,2.0,0.25,0.0,-0.11,2.33,0.95,181.11,-4.4,15.1
0.74,0.0,0.0,0.0,0.0,0.0,0.0,1.0,0.0,0.75,0.25,0.0,0.25,0.0,-0.36,-1.23,0.45,56.35,13.2,-35.8,2.25,1.25,1.5,2.0,0.0,0.0,0.75,1.75,1.0,2.5,2.0,0.75,0.0,0.39,2.02,0.52,163.45,-10.9,2.3
0.76,1.75,0.5,0.0,1.75,3.75,1.75,0.5,2.0,1.0,0.0,1.0,0.25,1.5,-0.48,-4.3,3.33,132.79,1.3,14.2,0.75,0.25,1.75,2.0,2.75,0.75,0.75,0.5,1.0,1.0,0.25,0.0,0.0,0.64,1.77,0.39,136.88,-9.1,31.9
0.78,3.5,0.5,0.0,2.0,3.5,2.0,0.5,1.75,1.0,0.0,0.0,0.0,0.0,-0.05,-1.73,0.95,180.69,6.1,45.5,2.25,1.0,1.5,2.25,2.75,2.75,1.0,0.5,1.0,2.5,0.5,0.75,0.0,0.27,1.39,0.77,147.45,-5.8,24.0
0.8,7.0,1.75,2.5,3.75,4.5,3.0,2.25,2.25,0.75,0.5,0.75,0.25,0.0,-1.86,0.7,2.08,283.56,12.1,48.2,2.5,0.75,0.5,2.25,1.75,1.75,0.25,0.5,1.0,1.0,0.75,0.0,0.25,0.2,1.08,1.08,147.15,-7.7,32.0
0.82,8.75,2.0,4.75,6.75,6.75,5.75,3.0,2.75,1.25,0.25,0.0,0.5,1.0,-0.98,0.2,1.58,438.29,11.0,47.2,2.25,1.75,0.0,2.25,1.25,2.0,0.25,0.5,1.0,2.5,0.25,1.0,0.0,0.45,0.83,1.08,170.36,-4.5,19.5
0.84,0.0,2.0,6.25,7.0,8.5,5.75,4.5,2.0,1.5,0.0,0.0,0.25,0.0,-0.36,0.08,1.52,576.88,8.0,44.0,1.0,0.25,1.75,2.0,3.75,1.5,0.75,1.75,1.0,2.5,1.75,1.0,1.5,0.39,0.45,1.14,210.36,-2.6,-3.0
0.86,7.75,2.0,6.25,7.0,0.0,7.0,5.0,2.75,2.0,0.0,0.0,0.25,0.0,0.27,-0.05,1.52,665.52,15.0,48.8,2.25,1.5,1.75,2.25,1.75,1.5,0.75,2.0,1.0,2.5,1.5,1.0,0.75,0.14,0.27,1.2,237.26,-6.3,8.0
0.88,8.5,3.5,8.0,8.25,10.0,8.0,8.0,5.0,4.5,2.0,0.0,1.25,0.5,0.08,-0.17,0.83,887.22,9.9,37.3,1.25,0.25,1.25,1.5,3.5,1.5,0.75,1.75,1.0,1.0,1.5,0.0,0.0,0.14,0.02,1.27,242.24,-4.5,19.1
0.9,7.75,2.25,7.75,7.0,9.25,8.25,8.5,6.25,6.5,5.0,2.5,2.25,1.5,-0.23,-0.3,1.52,1125.82,7.7,18.7,1.25,0.25,0.0,2.0,1.75,1.5,0.25,0.5,1.0,1.0,0.5,0.0,0.0,0.14,-0.11,1.2,216.95,-3.7,25.0
0.92,7.5,2.25,6.25,6.25,9.25,8.5,7.75,7.0,6.75,4.75,6.0,3.25,3.5,-0.23,-0.23,1.27,1349.08,6.1,7.3,1.0,0.25,0.0,1.5,1.5,1.5,0.0,0.0,1.0,0.75,0.25,0.0,0.0,0.14,-0.17,0.95,171.66,-3.5,29.9
0.94,7.0,2.25,6.25,5.5,9.0,8.0,7.0,7.0,6.25,5.0,5.5,3.25,3.5,-0.17,-0.11,1.02,1436.65,5.7,6.3,1.0,0.25,0.25,1.25,1.5,1.5,0.0,0.25,1.0,0.75,0.0,0.0,0.0,0.2,-0.23,0.95,132.11,-3.3,31.0
0.96,6.75,2.0,5.75,5.5,8.5,7.75,7.0,6.75,6.0,4.75,4.5,3.0,3.5,-0.17,-0.11,0.95,1444.72,5.6,6.9,1.0,0.25,0.0,0.5,1.75,1.5,0.0,0.5,1.0,0.75,0.5,0.0,0.0,0.27,-0.3,1.08,112.93,-0.3,19.4
0.98,6.0,2.0,4.75,5.5,8.25,7.25,6.5,6.25,5.5,2.75,3.5,3.0,3.5,-0.11,-0.11,0.95,1366.74,5.6,9.2,0.75,0.25,0.0,1.0,1.5,1.5,0.0,0.25,1.0,0.75,0.5,0.0,0.75,0.33,-0.48,1.02,108.84,0.1,8.3
1.0,6.0,2.0,4.75,5.25,7.25,7.0,7.0,6.0,5.25,2.75,3.5,2.25,3.0,-0.11,-0.05,0.95,1243.61,6.2,11.0,1.0,0.25,0.0,0.5,1.75,1.5,0.0,0.25,1.0,0.75,0.5,0.0,0.75,0.45,-0.61,0.52,106.21,0.4,9.2
1.02,4.75,0.75,3.75,3.5,6.0,6.25,5.75,5.0,5.0,2.75,3.0,2.5,1.5,-0.05,-0.05,0.89,1043.38,5.6,7.3,0.75,0.25,0.25,0.5,0.25,1.25,0.0,0.5,1.0,0.75,0.25,0.0,0.5,0.45,-0.73,0.52,90.65,-0.9,1.1
1.04,3.75,2.0,3.75,3.5,6.75,6.25,5.75,5.25,5.0,2.75,2.5,2.0,2.25,-0.11,-0.05,0.89,887.6,4.6,8.7,2.25,0.25,1.0,2.0,1.5,1.5,0.0,0.25,1.0,0.0,0.0,0.0,0.0,1.89,-2.3,0.27,105.25,-12.3,51.5
1.06,3.25,0.5,2.25,3.0,4.5,5.5,5.0,4.0,4.75,2.75,3.25,2.75,1.5,-0.11,-0.05,0.89,715.14,4.4,-1.4,3.75,0.25,1.25,2.25,1.75,1.5,0.5,0.25,1.0,2.5,0.25,0.0,0.75,0.7,-1.8,0.33,143.48,-9.1,25.6
1.08,3.75,1.75,2.25,3.5,3.75,5.75,5.0,5.25,5.25,5.25,4.5,5.0,3.75,-0.11,-0.05,0.95,679.74,3.1,-14.1,6.25,1.0,3.0,2.25,3.75,1.5,1.0,1.25,1.0,1.0,0.25,0.0,0.0,1.45,-2.55,1.33,214.6,-14.6,50.4
1.1,3.5,1.5,3.75,3.5,5.5,5.75,4.75,5.25,5.25,4.5,5.25,5.75,5.25,-0.11,-0.05,0.95,680.7,3.6,-14.5,7.75,2.0,4.5,4.5,3.75,1.5,0.75,0.0,1.0,1.25,0.25,0.0,0.25,0.02,0.77,1.89,295.18,-17.9,57.4
1.12,1.75,0.5,2.25,2.25,3.75,4.0,4.25,5.0,5.0,5.0,5.75,5.75,5.25,-0.11,-0.05,0.95,650.35,1.9,-30.8,9.5,1.5,4.75,4.75,5.75,2.0,1.0,0.0,1.0,0.75,2.0,0.0,0.75,0.14,0.39,1.08,403.41,-16.7,50.8
1.14,2.0,0.5,2.25,1.75,3.75,3.5,4.25,5.5,5.0,5.25,6.0,6.25,6.0,-0.11,-0.05,0.95,649.81,1.7,-34.2,10.5,3.0,6.25,8.5,8.25,4.0,0.75,0.0,1.5,1.5,2.0,0.75,1.5,0.14,0.33,1.2,597.97,-13.7,45.9
1.16,1.75,0.5,3.25,1.75,4.25,3.5,4.25,5.25,5.0,5.0,5.25,7.0,6.0,-0.11,-0.05,0.95,649.34,2.4,-32.2,10.0,2.75,8.25,9.75,9.5,4.25,1.75,1.75,0.0,0.75,0.75,0.0,0.75,0.02,0.14,1.33,778.04,-14.1,54.9
1.18,1.75,0.5,2.75,1.75,3.5,3.5,4.25,5.25,5.25,5.25,5.75,7.25,7.0,-0.11,-0.05,0.95,672.5,1.9,-37.1,10.5,3.25,8.5,10.0,9.25,6.25,4.0,1.75,1.5,0.75,0.25,0.0,0.75,0.08,0.14,1.39,960.99,-13.6,53.1
1.2,1.75,0.5,1.75,1.75,3.5,3.5,4.25,5.25,5.0,6.25,6.0,7.5,7.0,-0.11,-0.05,0.95,700.32,0.8,-40.3,10.5,3.25,9.0,12.0,10.0,6.75,5.25,2.0,2.25,2.25,0.75,0.0,0.75,0.14,0.08,1.08,1135.58,-12.7,47.5
1.22,2.5,0.75,1.0,3.25,3.75,3.5,4.25,5.25,5.0,6.5,6.0,7.75,7.75,-0.11,-0.05,0.95,758.44,1.0,-37.5,10.5,3.5,9.25,13.0,11.0,7.5,6.0,2.0,3.0,2.5,0.75,1.25,0.75,0.14,0.08,1.08,1307.87,-12.2,43.6
1.24,1.75,0.75,0.25,1.75,3.75,3.5,4.25,5.25,4.75,6.5,6.0,8.0,7.75,-0.11,-0.05,0.95,786.75,-0.4,-44.0,11.5,3.5,10.5,13.0,12.5,7.75,6.75,3.5,3.5,2.5,2.0,1.25,2.25,0.14,0.02,1.08,1445.27,-11.4,37.7
1.26,1.75,0.5,0.0,0.75,1.25,3.25,3.0,5.25,4.5,6.5,6.0,8.25,8.0,-0.11,-0.05,0.95,781.98,-1.3,-55.6,11.0,3.5,11.0,12.0,12.5,7.75,6.75,3.5,3.5,2.75,2.0,1.25,2.0,0.14,0.02,1.08,1535.39,-11.4,37.4
1.28,1.0,0.5,0.0,0.75,3.5,2.75,3.0,5.0,4.0,6.0,5.75,8.25,8.5,-0.11,-0.05,0.95,758.31,-1.8,-53.3,10.5,3.5,10.0,11.5,12.5,7.5,6.75,3.5,3.25,2.5,2.0,1.25,1.75,0.14,0.08,1.02,1562.58,-11.1,37.7
1.3,0.5,0.0,2.5,0.5,3.0,2.25,2.0,4.0,2.75,5.25,4.75,8.25,8.75,-0.23,-0.05,1.02,712.93,-0.5,-54.1,10.5,3.5,9.75,11.5,12.0,7.5,6.25,3.5,3.0,2.5,2.0,1.25,1.75,0.14,0.08,0.95,1537.05,-11.0,37.7
1.32,0.25,0.0,0.25,0.0,3.5,2.25,1.5,3.75,2.25,5.0,3.5,8.25,8.75,-0.3,0.02,1.08,639.65,-3.8,-61.8,9.75,3.5,9.5,11.5,11.5,7.25,5.75,3.25,2.75,2.5,2.0,1.25,2.0,0.08,0.08,0.95,1481.03,-10.9,37.0
1.34,0.25,0.25,0.0,0.0,0.75,1.75,1.5,3.0,2.0,3.5,3.5,7.75,8.0,-0.17,0.08,1.45,548.56,-3.0,-72.7,9.25,3.5,9.0,11.0,11.0,7.25,5.5,2.0,2.75,2.5,2.0,1.25,1.75,0.08,0.08,0.89,1401.99,-11.1,38.1
1.36,1.0,0.5,2.25,0.0,1.75,3.0,2.25,4.0,1.75,5.0,3.25,7.5,8.0,-0.36,0.02,1.39,521.95,-1.1,-52.0,9.25,3.0,9.0,10.5,11.0,6.75,4.75,2.75,2.5,2.5,2.0,1.25,2.0,0.08,0.14,0.89,1325.08,-10.8,36.4
1.38,1.75,0.25,1.0,0.0,4.25,1.0,2.75,2.25,1.5,0.5,2.5,5.75,7.75,-0.36,0.02,1.45,443.72,1.4,-42.3,9.25,3.25,8.75,10.0,11.0,7.25,4.75,2.75,2.25,2.5,2.0,1.25,1.75,0.08,0.14,0.89,1243.26,-10.5,37.2
1.4,0.0,0.25,0.5,0.0,0.0,1.0,1.25,2.0,1.0,0.5,1.0,3.5,6.0,-0.42,0.02,1.39,340.28,-3.1,-71.9,9.0,3.25,8.25,10.5,11.0,7.25,4.5,3.0,2.25,2.5,2.0,1.25,1.75,0.08,0.14,0.89,1186.54,-10.1,36.7
1.42,0.0,0.0,0.0,0.0,0.0,1.0,1.5,2.0,1.0,0.25,1.0,2.0,3.75,-0.36,0.02,1.27,241.75,-4.1,-68.1,8.75,3.5,8.25,11.0,11.0,7.5,4.25,3.0,2.5,2.5,2.0,1.0,1.75,0.08,0.08,0.89,1149.68,-9.9,37.1
1.44,0.0,0.0,0.0,0.0,0.0,1.0,1.5,2.0,1.0,0.25,0.75,1.75,1.5,-0.3,0.33,1.08,146.43,-2.4,-55.9,8.5,3.5,8.25,11.5,11.0,7.5,4.75,3.25,2.75,2.5,2.0,1.25,2.0,0.08,0.08,0.89,1138.31,-9.8,35.4
1.46,0.0,0.0,0.0,0.0,0.0,1.0,1.5,1.5,1.0,0.25,0.75,0.75,1.5,0.52,2.64,-0.05,64.52,-2.9,-49.8,8.5,3.5,8.25,11.5,11.5,7.75,5.0,3.5,2.75,2.5,2.0,1.25,2.25,0.14,0.08,0.89,1149.05,-9.4,34.7
1.48,0.0,0.0,0.0,0.0,0.0,1.0,1.0,0.75,1.0,0.25,0.25,0.25,1.25,0.64,1.7,1.45,8.28,-4.5,-43.9,8.5,3.5,8.25,11.5,12.0,7.75,5.25,3.25,3.0,3.0,2.5,1.25,2.5,0.14,0.08,1.02,1179.71,-9.2,32.8
1.5,0.0,0.0,0.0,0.0,0.0,0.75,1.5,0.25,1.0,0.0,0.75,0.25,1.5,0.02,1.33,0.95,0.0,0.7,-49.3,8.5,3.5,8.5,11.5,11.5,8.0,5.25,4.25,3.5,3.5,2.0,1.25,2.5,0.14,0.08,0.95,1229.73,-8.8,31.3
1.52,0.0,0.0,1.25,0.0,0.0,0.0,1.5,0.0,1.0,0.0,1.0,0.25,1.0,-0.42,1.2,0.7,0.0,15.8,-29.2,8.5,3.5,8.25,10.5,11.5,8.0,5.5,4.5,4.25,4.25,2.75,1.5,2.5,0.14,0.02,0.95,1280.61,-8.3,27.3
1.54,0.0,0.0,0.0,0.0,0.0,0.0,1.0,0.0,0.75,0.0,0.75,0.25,0.5,-0.3,1.02,0.7,0.0,10.1,-56.9,8.5,3.5,8.25,10.0,11.0,8.0,5.75,5.0,4.75,5.0,3.25,1.5,2.75,0.14,0.02,1.02,1319.08,-8.0,23.8
1.56,0.0,0.0,0.0,0.0,0.0,0.0,1.0,0.0,0.75,0.0,0.75,0.25,0.25,-0.05,0.77,1.08,0.0,12.6,-51.3,8.5,3.0,8.25,10.0,11.0,7.75,5.75,4.75,5.0,5.25,3.75,1.5,2.75,0.14,0.02,0.95,1342.47,-8.1,22.3
1.58,0.0,0.0,0.0,0.0,0.0,0.0,0.5,0.0,0.75,0.0,0.75,0.25,0.75,-0.05,0.58,1.27,0.0,5.9,-69.3,8.25,2.75,8.0,9.25,10.5,7.75,5.75,5.25,5.0,5.25,4.0,1.75,3.0,0.14,0.02,0.95,1349.43,-7.6,19.5
1.6,0.0,0.0,0.0,0.0,0.0,0.0,0.5,0.0,0.75,0.0,0.5,0.25,0.25,-0.05,0.52,1.2,0.0,10.5,-57.9,7.75,2.75,7.25,8.5,9.75,7.75,5.25,5.25,4.75,5.25,4.0,2.25,3.25,0.14,0.02,0.95,1328.61,-7.0,16.5
1.62,0.0,0.0,0.0,0.25,0.0,0.0,0.75,4.5,0.75,0.0,0.5,0.25,0.0,-0.11,0.27,1.33,12.29,-6.5,-36.7,7.5,2.5,7.25,8.25,9.5,7.5,5.0,5.25,4.75,5.25,4.5,2.5,3.5,0.14,0.02,0.95,1300.95,-6.9,14.1
1.64,0.0,0.0,0.0,0.5,0.0,0.0,0.5,0.0,0.75,0.0,0.5,0.25,0.5,-0.11,0.08,1.33,30.7,9.5,-40.7,7.0,2.25,6.25,6.75,8.5,7.25,4.5,5.0,4.5,5.5,4.5,2.75,3.5,0.14,0.02,0.95,1221.27,-6.1,10.2
1.66,0.0,0.0,0.0,0.25,0.0,0.25,0.5,0.0,0.5,0.0,0.5,0.25,0.5,-0.11,0.02,1.27,39.15,5.3,-44.2,6.5,2.25,6.0,6.5,8.5,7.25,4.0,5.0,4.25,6.0,4.5,2.75,3.75,0.08,0.02,0.95,1150.05,-5.4,8.2
1.68,0.0,0.0,0.0,0.0,0.0,0.75,0.5,0.0,0.5,0.0,0.0,0.0,0.0,-0.23,-0.05,1.2,29.96,-1.6,8.0,6.25,2.0,6.0,5.75,8.0,6.75,3.75,4.75,3.5,6.0,4.0,2.75,4.25,0.14,0.02,0.95,1064.93,-5.2,6.6
1.7,0.0,0.0,0.0,0.0,0.0,0.5,0.5,0.0,0.5,0.0,0.5,0.0,0.0,-0.23,-0.11,1.27,25.07,4.8,-19.5,5.25,2.0,5.25,5.0,7.0,6.75,3.0,4.5,3.25,6.0,4.0,2.75,4.25,0.08,0.02,0.95,972.18,-4.1,3.1
1.72,0.75,0.0,0.0,0.0,0.0,0.25,0.75,4.0,0.5,0.0,1.25,0.25,0.0,-0.3,-0.23,1.33,48.75,-2.0,-28.4,5.0,2.0,4.25,4.5,7.25,5.75,3.0,3.5,2.75,5.25,3.25,2.0,2.75,0.08,0.08,0.95,849.03,-4.6,9.3
1.74,0.0,0.0,0.0,1.25,0.0,0.25,5.0,0.0,0.5,0.0,0.0,0.25,0.25,-0.42,-0.36,1.45,64.76,20.1,15.1,4.75,2.0,4.0,4.25,6.5,5.75,2.25,4.0,1.75,3.75,2.75,0.75,2.75,0.08,0.08,1.02,723.5,-4.3,14.8
1.76,0.0,0.0,0.0,0.0,0.0,4.25,5.75,3.0,2.5,0.0,0.0,0.0,0.0,-0.36,-0.36,1.02,117.26,-1.8,0.0,3.75,2.0,2.75,1.0,5.5,4.0,1.75,3.75,1.0,2.5,2.5,0.0,1.5,0.02,0.08,1.08,549.76,-3.4,17.3
1.78,1.0,0.0,0.0,0.0,0.0,4.0,0.0,0.0,2.25,1.25,0.0,1.0,0.0,-0.3,-0.42,0.95,138.63,-4.0,-7.5,2.0,0.5,1.5,2.0,2.5,3.75,1.0,2.0,1.25,1.25,0.0,0.0,0.0,0.08,0.14,1.2,358.08,-3.0,29.7
1.8,0.25,0.0,1.0,0.0,0.0,0.0,5.25,0.5,0.25,0.0,0.25,0.25,0.0,-0.23,-0.42,0.77,136.45,25.6,15.9,3.0,2.0,1.0,2.25,2.25,4.0,1.0,2.0,1.5,2.5,2.0,0.75,0.75,0.2,0.39,1.14,270.98,-3.5,13.1
1.82,0.0,0.0,0.0,0.0,0.0,0.0,0.5,0.0,0.25,0.0,0.0,0.25,0.0,-0.17,-0.67,0.58,95.71,17.6,-41.1,3.0,2.0,2.0,2.25,3.5,4.0,1.0,2.0,1.5,2.5,1.75,0.0,1.75,0.33,2.7,0.33,236.93,-3.6,16.6
1.84,0.0,0.0,0.0,0.25,0.0,0.0,0.5,0.0,0.5,0.0,0.0,0.0,0.0,-0.11,-0.92,0.27,59.23,18.3,2.7,3.0,2.0,1.5,1.25,4.25,1.75,1.0,2.0,1.5,2.5,2.0,0.5,1.75,-1.42,2.02,1.77,231.0,-4.5,10.3
1.86,0.0,0.0,0.0,0.0,0.0,0.0,0.25,0.0,0.5,0.0,0.25,0.0,0.0,-0.11,-1.11,0.08,25.63,14.6,-39.8,2.75,0.5,2.0,0.0,5.25,1.0,1.0,1.75,1.0,2.5,2.0,0.0,1.5,-1.36,1.83,1.27,222.12,-4.3,8.7
1.88,1.0,0.5,0.0,0.0,1.25,0.75,0.25,0.0,0.75,0.0,0.25,0.25,0.0,-0.42,-2.17,2.08,37.93,7.2,34.9,2.0,0.25,1.25,0.75,0.25,1.25,0.75,0.0,1.0,0.75,0.25,0.0,0.5,-0.23,2.02,0.58,163.63,-13.0,26.7
1.9,3.75,0.5,0.0,1.75,2.25,1.25,0.25,1.25,1.0,0.0,0.0,0.75,0.0,-1.48,-3.11,2.08,97.57,9.9,40.3,1.5,0.25,0.5,2.0,1.5,1.75,0.75,0.0,1.0,1.75,0.5,0.75,0.75,0.14,1.7,0.52,119.12,-4.8,7.9
1.92,7.0,0.25,3.5,5.5,6.25,5.0,0.5,2.0,1.5,1.0,1.0,0.5,1.5,-0.05,1.02,3.14,254.91,8.5,35.3,2.75,1.75,1.75,2.25,0.0,1.5,1.0,0.0,1.0,2.5,2.0,0.75,1.75,0.08,1.45,0.64,117.43,-9.8,4.6
1.94,7.75,1.75,4.0,6.0,7.75,6.75,1.5,2.5,1.5,0.5,1.0,0.75,1.5,-0.23,0.27,1.7,424.95,8.1,39.3,2.5,1.75,1.5,2.25,2.25,1.5,1.0,0.0,1.0,2.5,1.75,0.75,1.75,0.08,1.02,0.95,160.13,-7.4,10.0
1.96,6.5,1.75,4.75,7.0,9.25,7.5,3.75,2.75,2.0,0.75,1.0,0.75,1.5,-0.36,0.08,1.52,647.72,7.6,37.0,2.5,1.75,1.5,2.25,1.75,1.5,1.0,0.0,0.0,2.5,1.5,0.75,1.5,0.2,0.77,1.08,196.64,-7.8,14.1
1.98,7.75,2.25,5.75,7.25,9.5,8.75,4.5,4.25,2.75,0.75,1.0,0.25,1.25,-0.23,0.08,1.27,856.22,7.8,38.3,2.5,2.0,1.25,2.25,2.25,1.5,1.0,0.0,1.0,2.5,0.5,0.75,1.0,0.27,0.58,1.14,227.25,-7.7,21.3
2.0,7.75,3.25,6.0,7.25,10.0,8.75,7.0,5.25,4.0,1.25,1.25,1.5,1.5,-0.11,-0.05,1.02,1052.84,7.8,31.7,2.5,1.75,1.75,2.25,1.75,1.75,1.0,0.0,1.25,2.5,1.75,1.0,1.5,0.2,0.33,1.2,251.0,-8.1,9.2
2.02,7.0,2.0,6.25,6.0,6.75,8.75,7.75,6.25,5.25,4.25,2.0,2.0,1.5,-0.11,-0.11,1.45,1183.3,6.8,17.7,2.5,1.5,1.5,2.25,2.5,1.5,1.0,0.0,1.25,2.5,1.75,1.0,1.5,0.14,0.14,1.2,263.37,-7.6,9.0
2.04,7.0,2.0,6.0,6.5,9.5,8.75,7.75,7.0,6.25,5.0,4.25,3.25,3.5,-0.11,-0.17,1.14,1337.19,5.5,8.6,2.25,1.75,2.25,2.25,2.25,0.0,1.0,0.0,1.25,2.5,2.0,0.75,1.5,0.08,0.02,1.2,264.11,-10.9,9.1
2.06,7.0,2.0,5.25,5.75,9.25,8.75,7.5,7.25,6.25,5.0,5.5,3.25,3.5,-0.11,-0.17,1.02,1410.27,5.0,5.8,2.5,1.75,2.75,1.25,3.0,1.5,0.75,0.0,1.0,2.5,1.5,0.75,1.75,0.14,-0.11,1.08,274.56,-8.2,13.4
2.08,6.5,2.0,5.25,5.5,8.75,8.75,7.5,7.0,6.0,5.0,4.5,3.25,3.5,-0.11,-0.11,1.02,1433.36,4.8,6.0,2.25,0.25,1.5,0.0,1.25,0.0,0.75,0.0,1.0,1.0,2.0,0.0,1.75,0.08,-0.11,1.02,246.79,-11.8,-3.9
2.1,6.0,2.0,5.5,5.5,8.0,8.0,7.25,6.75,5.75,4.25,4.5,3.0,3.5,-0.11,-0.11,0.95,1394.34,5.3,6.3,2.25,0.75,0.5,2.0,1.5,2.0,1.0,0.0,1.0,2.5,1.25,0.75,1.0,0.08,-0.23,1.02,238.15,-5.2,5.7
2.12,6.0,2.0,5.25,5.5,8.5,7.75,7.25,6.25,5.5,3.25,2.25,2.0,2.75,-0.11,-0.11,0.95,1309.98,5.7,14.5,2.25,1.5,1.0,2.0,2.25,1.75,1.0,0.5,1.0,2.5,2.0,1.0,1.75,0.14,-0.42,0.95,243.37,-5.2,2.5
2.14,6.0,2.0,4.75,5.5,8.25,7.0,7.25,6.0,5.5,2.75,3.0,2.0,2.25,-0.05,-0.11,0.89,1172.04,6.3,14.7,2.25,1.75,1.5,2.25,1.75,1.5,0.75,0.5,1.0,2.5,2.0,1.0,1.5,0.27,-0.55,0.83,252.49,-7.0,5.4
2.16,5.75,2.0,5.5,5.0,7.5,7.0,6.75,5.5,5.5,3.25,2.75,2.25,2.25,-0.05,-0.05,0.89,1046.01,6.6,13.5,2.25,1.75,1.5,2.0,2.75,1.5,1.0,0.75,1.0,2.5,2.0,1.0,1.75,0.33,-0.61,0.7,266.82,-5.9,5.6
2.18,5.5,2.0,5.25,3.5,7.0,7.0,6.5,5.25,5.5,3.5,3.25,3.0,3.25,-0.11,-0.05,0.95,968.71,5.8,6.6,3.5,2.0,1.75,2.25,2.25,1.75,0.75,1.5,1.0,2.25,2.0,1.0,1.75,0.2,-0.61,0.33,289.11,-7.2,10.8
2.2,5.25,2.0,4.25,3.5,6.5,6.75,6.25,5.25,5.5,4.25,3.5,3.25,3.5,-0.11,-0.11,0.95,907.72,4.9,2.1,5.0,2.0,1.5,2.25,2.25,2.0,1.0,0.75,1.25,2.5,1.75,0.75,1.5,0.33,-1.61,1.77,309.47,-9.1,19.2
2.22,4.75,2.0,4.0,3.5,5.75,6.75,5.75,5.5,5.75,5.0,5.25,4.25,3.75,-0.11,-0.11,0.95,876.96,4.3,-5.5,7.5,2.0,1.75,4.5,3.25,2.75,1.25,0.5,1.5,2.5,1.5,0.75,1.5,1.95,-2.98,1.83,357.43,-11.0,30.9
2.24,3.75,1.75,4.0,3.5,6.5,6.5,5.5,6.0,5.75,5.0,5.25,5.0,5.0,-0.11,-0.11,0.95,870.19,3.3,-10.7,9.0,2.0,4.5,5.0,5.25,2.75,1.5,0.0,1.5,2.5,1.75,0.75,1.75,1.39,0.27,0.77,443.42,-13.4,36.6
2.26,3.75,1.75,3.75,3.5,6.75,6.25,5.25,6.0,6.0,5.0,6.0,5.75,5.25,-0.11,-0.11,0.95,887.75,3.3,-13.3,10.0,2.25,6.25,8.25,7.5,2.25,2.0,0.0,1.25,2.5,2.0,0.75,1.75,0.89,0.2,1.08,590.06,-14.6,41.4
2.28,3.75,1.75,3.25,3.5,5.75,6.25,5.0,6.0,6.0,5.0,6.0,6.25,6.0,-0.11,-0.11,0.95,895.58,2.9,-17.2,9.25,1.75,7.5,8.25,8.25,4.25,3.0,0.25,0.0,0.75,1.0,0.0,1.25,0.14,0.33,1.52,709.23,-14.8,53.3
2.3,3.5,1.75,3.25,3.5,5.5,6.0,5.0,6.25,6.0,5.75,6.0,6.75,6.0,-0.11,-0.11,0.95,918.09,2.6,-19.7,10.5,3.25,8.0,10.0,8.5,6.25,4.25,2.0,2.25,2.5,0.5,1.0,0.25,-0.11,0.14,1.58,888.39,-12.8,45.7
2.32,3.5,1.5,3.25,3.5,6.25,5.75,5.0,6.0,5.75,6.0,6.25,7.0,6.75,-0.11,-0.11,0.95,943.12,2.4,-21.1,10.5,3.5,9.0,11.5,10.0,7.0,5.75,3.25,3.0,2.5,2.0,1.25,1.75,0.02,-0.05,1.08,1105.1,-11.5,37.3
2.34,3.5,1.25,3.0,3.5,5.0,5.75,5.0,6.0,5.75,6.5,6.5,7.5,7.0,-0.11,-0.11,0.95,959.16,2.3,-25.2,10.0,3.5,9.0,10.5,11.0,7.5,6.25,3.5,4.5,3.75,2.5,1.25,2.5,0.27,0.2,1.52,1309.37,-10.1,30.9
2.36,3.5,1.0,2.75,3.5,5.5,5.5,5.0,6.0,5.5,6.5,6.5,7.5,7.0,-0.11,-0.11,0.95,967.98,2.1,-25.5,9.25,3.25,8.75,10.0,11.0,7.5,6.25,4.5,5.25,4.5,3.0,1.5,2.75,0.27,-0.05,1.14,1422.16,-9.0,25.4
2.38,2.75,1.0,2.5,3.25,4.5,5.5,4.75,6.0,5.5,6.5,6.5,8.25,7.75,-0.11,-0.05,0.95,965.76,1.4,-31.2,9.25,3.25,8.25,9.0,9.75,7.5,6.25,4.0,5.25,4.75,4.25,1.5,2.75,0.08,0.02,1.02,1474.43,-9.0,22.6
2.4,1.75,0.5,2.5,0.75,4.25,3.5,4.0,6.25,4.75,5.75,6.75,7.5,7.0,-0.11,-0.05,0.95,906.52,0.8,-39.6,8.5,2.75,8.0,8.25,9.5,7.25,6.0,4.75,5.0,4.75,3.75,1.5,2.75,0.14,0.02,1.02,1461.62,-8.4,20.8
2.42,1.75,0.25,0.25,0.5,0.5,3.5,4.25,5.25,4.25,6.25,5.25,7.5,7.0,-0.11,-0.05,0.95,798.79,-1.0,-54.5,8.5,2.5,7.25,7.5,8.75,7.25,5.5,4.75,4.75,4.75,3.75,1.5,2.75,0.14,0.02,0.95,1403.61,-8.0,19.4
2.44,1.5,0.5,0.0,0.75,1.75,3.25,3.0,6.0,4.0,5.5,5.0,7.5,7.75,-0.11,-0.05,0.95,709.44,-2.0,-52.8,7.75,2.5,7.0,6.5,8.5,6.75,4.75,4.25,4.75,5.25,3.25,1.5,2.5,0.08,0.02,0.89,1321.84,-7.6,18.4
2.46,0.75,0.5,0.75,0.5,3.75,3.0,1.5,5.0,3.25,5.0,4.0,7.5,7.75,-0.11,-0.05,1.02,631.11,-2.5,-49.8,7.5,2.5,6.25,6.5,8.0,6.75,4.5,4.5,4.25,5.25,3.75,2.0,2.75,0.08,0.02,0.89,1216.62,-7.0,15.2
2.48,0.75,0.25,0.0,0.5,1.75,2.25,2.25,4.0,2.25,5.0,3.25,7.25,7.75,-0.11,-0.05,1.08,552.94,-3.1,-60.3,6.5,2.0,6.0,5.0,7.25,6.5,4.0,4.75,4.25,5.25,4.0,2.75,3.25,0.08,0.02,0.95,1100.63,-6.1,8.0
2.5,0.0,0.0,0.0,0.0,0.5,2.0,1.5,2.5,2.0,1.5,1.25,6.5,7.0,-0.17,0.02,1.14,431.47,-3.8,-73.4,6.25,2.0,5.0,4.75,7.0,6.25,4.0,4.75,4.25,5.75,4.5,2.75,4.25,0.08,0.02,0.95,1012.56,-5.0,2.9
2.52,0.0,0.0,0.0,0.0,1.75,1.75,1.5,2.25,1.25,1.25,1.5,5.0,6.0,-0.23,0.14,1.95,334.88,-4.0,-63.4,6.25,2.0,4.25,4.75,6.75,6.25,3.5,4.75,4.5,6.75,5.0,4.0,5.0,0.08,0.02,0.89,963.28,-4.1,-3.7
2.54,0.0,0.0,0.0,0.0,3.5,1.0,1.5,2.25,1.25,0.0,1.5,3.25,5.0,-0.23,0.14,1.45,255.4,-3.1,-47.1,5.5,2.0,4.25,4.5,7.0,6.25,3.25,5.25,4.75,6.75,5.5,4.25,5.75,0.14,0.02,0.95,934.85,-3.4,-7.6
2.56,0.0,0.0,0.25,0.0,0.5,1.75,1.25,1.75,1.0,0.25,1.25,1.25,2.25,-0.3,0.08,1.27,169.81,-3.6,-45.0,5.0,2.0,4.25,4.5,6.5,6.25,3.25,5.5,4.75,7.25,6.0,5.25,6.5,0.08,0.02,0.95,939.28,-2.9,-12.7
2.58,0.0,0.0,0.0,0.0,0.75,1.25,1.25,1.75,1.0,0.25,0.75,0.75,1.5,0.33,1.7,1.2,93.23,-4.4,-37.9,5.0,2.0,4.25,4.5,6.25,6.25,3.5,5.75,4.75,7.75,6.25,5.75,7.25,0.08,0.02,0.95,971.66,-2.7,-15.5
2.6,0.25,0.0,0.0,0.0,3.5,1.25,1.0,1.75,1.0,0.25,0.5,0.25,1.0,1.52,3.14,1.52,52.16,-4.1,-0.8,5.0,2.0,4.0,4.5,6.0,6.25,3.25,5.75,4.75,8.0,6.5,6.0,7.75,0.08,0.02,0.95,1008.68,-2.4,-17.6
2.62,0.25,0.25,0.0,0.0,0.0,1.0,1.0,0.0,1.0,0.25,1.0,0.25,1.0,0.89,2.45,1.33,9.45,2.2,-32.7,5.0,2.0,4.0,4.5,5.75,5.75,3.0,6.0,4.25,8.25,6.5,6.5,8.25,0.08,0.02,0.95,1039.94,-2.3,-19.9
2.64,0.0,0.25,0.0,0.0,0.0,0.0,1.0,1.5,1.0,0.25,0.5,0.25,0.25,-0.17,2.52,0.52,0.0,1.2,-37.7,4.75,2.0,4.0,4.5,6.25,6.25,3.0,6.25,4.25,8.75,6.5,6.5,8.25,0.14,0.02,0.95,1074.43,-1.7,-19.8
2.66,0.0,0.0,0.0,0.0,0.0,0.0,1.0,1.0,1.0,0.25,0.75,0.25,0.25,-1.05,1.83,0.7,0.0,3.3,-48.9,4.25,2.0,4.0,4.5,5.5,6.25,3.0,6.25,4.0,8.75,6.75,6.75,8.25,0.08,0.02,0.95,1091.04,-1.6,-21.9
2.68,0.0,0.0,0.0,0.0,0.0,0.0,1.0,0.5,1.0,0.25,0.0,0.25,0.5,-0.8,1.2,0.95,0.0,3.4,-49.3,3.75,2.0,4.0,3.5,5.25,6.0,2.25,6.5,3.5,8.75,6.75,6.75,8.5,0.08,0.02,0.95,1080.98,-0.9,-25.1
2.7,0.0,0.25,0.0,0.75,0.0,1.0,1.25,0.25,1.25,1.75,0.5,1.5,0.25,-0.48,0.7,1.39,0.0,1.5,-37.0,3.5,2.0,2.75,3.5,5.5,5.75,2.25,6.5,3.0,9.25,6.5,7.25,9.0,0.14,0.02,0.95,1057.62,0.1,-28.4
2.72,0.0,0.0,0.0,0.0,0.0,0.0,1.0,0.25,0.75,0.25,0.5,0.25,0.25,-0.3,0.52,1.27,1.41,7.5,-50.2,3.25,2.0,1.5,2.75,5.25,5.75,1.75,7.0,2.75,9.5,6.25,7.5,9.0,0.14,0.02,0.95,1025.44,1.6,-32.7
2.74,0.0,0.0,0.0,0.25,0.0,0.0,1.0,0.25,0.75,0.25,0.5,0.25,0.5,-0.17,0.45,1.27,19.24,6.6,-46.2,3.0,2.0,1.5,2.5,4.75,6.0,1.5,7.0,2.25,9.5,6.5,7.5,9.5,0.14,0.02,1.02,994.64,2.1,-35.0
2.76,0.0,0.0,0.0,0.25,0.0,0.0,1.5,0.0,0.75,0.25,0.75,0.25,0.25,-0.05,0.33,1.27,18.8,12.3,-38.4,2.75,1.75,1.5,2.25,5.25,5.75,1.0,6.5,2.25,9.5,6.5,7.5,8.75,0.2,0.02,0.95,957.73,2.2,-35.1
2.78,0.0,0.0,0.0,0.25,0.0,0.0,1.0,0.25,0.5,0.25,0.5,0.25,0.0,0.02,0.2,1.14,22.37,10.2,-33.7,1.75,1.5,1.75,2.25,5.25,5.75,1.0,7.0,1.5,8.75,6.0,6.75,9.25,0.2,0.02,1.02,916.28,3.2,-36.3
2.8,0.0,0.0,0.0,0.5,0.0,0.0,4.5,4.0,0.25,0.25,0.0,0.25,0.0,-0.05,0.08,1.02,50.81,1.7,-16.3,2.0,0.5,1.0,0.0,1.75,4.0,0.75,6.0,1.0,8.5,4.75,6.0,8.25,0.27,0.02,1.02,796.31,4.6,-52.2
2.82,0.0,0.0,0.0,0.5,0.0,0.0,1.0,0.5,0.25,0.25,0.25,0.25,0.0,-0.11,-0.05,0.89,50.23,8.0,-20.0,2.5,1.75,0.25,0.0,1.75,4.0,0.5,5.75,1.5,7.5,4.0,5.25,7.75,0.33,0.08,1.2,680.68,4.4,-45.5
2.84,1.0,0.5,0.0,1.5,0.0,1.0,1.5,1.75,1.0,1.0,0.75,1.25,1.25,-0.17,-0.17,0.83,96.43,3.0,-19.6,1.5,0.25,0.0,0.25,1.75,3.0,0.5,4.25,1.25,6.5,2.75,3.75,6.5,0.89,0.2,1.14,531.05,6.0,-51.7
2.86,0.25,0.0,0.0,0.75,0.0,2.25,1.5,1.75,1.5,0.25,2.0,0.25,0.0,-0.36,-0.3,0.64,121.0,0.4,-16.4,1.5,0.25,0.0,0.0,1.75,2.75,0.0,3.75,1.0,3.25,1.0,2.25,4.75,0.77,0.33,1.39,379.2,6.8,-41.3
2.88,0.0,0.0,0.0,0.5,0.0,0.0,0.0,0.0,0.5,0.0,0.0,0.25,0.0,-0.42,-0.36,0.45,105.38,13.6,-12.6,1.25,2.0,0.0,0.5,1.75,3.75,0.5,2.5,1.0,1.0,0.75,1.0,0.25,0.52,0.14,1.08,263.5,2.2,11.3
2.9,0.0,0.0,1.0,0.5,0.5,0.0,3.0,1.0,0.5,0.0,0.0,0.25,0.0,-0.3,-0.17,0.14,94.45,15.9,14.7,2.5,1.75,0.0,2.0,2.75,1.75,0.75,3.25,1.0,0.75,2.0,0.75,2.5,0.02,0.64,0.7,211.16,-1.9,1.5
2.92,0.0,0.0,0.0,0.5,0.0,1.25,1.5,2.0,1.0,0.25,0.5,0.25,1.25,-0.55,-0.3,0.39,94.87,-3.9,-32.5,2.5,2.0,0.0,0.0,1.0,1.75,0.25,1.25,1.25,1.5,0.75,1.25,1.0,-0.73,2.39,0.7,152.4,-3.1,2.8
2.94,0.0,0.0,0.0,0.5,0.0,0.75,0.5,0.75,1.0,0.25,0.0,1.25,0.0,-0.92,-1.05,5.89,87.77,1.5,-34.3,2.25,0.25,1.5,1.0,1.75,1.75,1.0,2.0,0.75,0.0,1.75,0.5,1.75,0.39,2.02,0.77,129.69,-6.2,4.8
2.96,0.0,0.25,0.0,0.75,0.75,1.0,0.0,1.75,1.25,0.5,0.0,0.25,0.0,0.52,-1.3,0.2,96.52,-4.2,-4.6,2.5,1.75,1.5,2.0,2.75,2.0,1.0,2.0,1.0,1.5,2.0,1.25,1.75,0.27,1.39,0.89,152.32,-5.4,7.0
2.98,5.25,1.75,0.0,1.75,3.75,2.25,0.0,2.25,1.25,1.25,1.0,0.75,1.25,-1.11,-2.67,1.52,183.05,5.2,23.9,2.25,1.75,1.75,2.0,2.25,2.75,1.0,2.0,0.75,0.75,2.0,1.25,1.75,0.14,1.2,0.77,184.33,-5.4,9.7
3.0,7.5,1.75,2.25,5.5,5.75,4.25,0.75,2.5,1.75,2.5,0.5,1.25,1.5,-1.36,-1.17,1.45,312.74,7.6,30.2,2.25,1.5,1.5,2.0,2.75,2.5,0.75,2.0,1.25,0.75,2.0,1.25,1.75,0.2,1.02,0.83,216.6,-5.0,7.7
3.02,8.0,0.0,4.75,7.0,8.25,6.25,1.25,2.5,1.25,2.75,0.0,0.25,0.0,-0.8,0.27,1.45,489.45,8.4,42.4,2.25,1.5,1.75,2.0,1.75,2.75,1.0,1.5,1.0,0.75,1.75,1.25,1.75,0.27,0.83,0.89,238.13,-6.1,8.9
3.04,0.0,0.0,6.0,7.0,8.5,7.0,2.75,2.5,2.0,0.75,0.5,0.0,0.0,-0.42,0.33,1.45,610.32,5.3,35.7,2.5,1.25,1.5,2.0,3.25,2.75,1.0,1.25,1.25,1.0,1.5,1.25,1.75,0.27,0.58,1.02,262.8,-5.3,11.7
3.06,9.25,3.0,6.5,7.5,0.0,7.75,4.75,3.75,2.25,0.0,1.0,0.25,1.0,0.08,0.2,1.45,725.07,13.6,42.6,2.25,1.5,0.75,2.25,1.75,2.75,1.0,1.75,1.0,1.0,0.5,1.25,2.25,0.27,0.45,1.08,265.46,-3.2,7.2
3.08,9.25,3.5,8.0,8.75,12.5,8.75,5.75,4.0,2.75,0.5,0.5,0.5,1.0,0.08,0.02,1.2,926.12,9.7,44.5,2.5,1.25,1.0,2.0,1.75,1.5,1.0,0.5,1.25,1.25,1.0,1.25,1.75,0.2,0.39,1.08,265.89,-7.5,7.9
3.1,8.25,3.5,7.75,8.25,12.5,8.75,7.25,5.25,3.75,1.25,0.0,1.75,1.5,-0.17,0.02,0.95,1146.85,8.5,36.2,2.25,1.5,1.5,2.0,1.5,2.0,1.0,0.0,1.0,1.25,1.5,1.25,1.75,0.2,0.27,1.02,263.41,-8.2,9.2
3.12,7.25,2.5,6.5,7.0,10.5,8.75,7.75,6.25,5.25,4.75,1.75,2.0,1.5,-0.23,0.08,1.2,1326.97,6.4,21.2,2.5,1.5,1.5,2.25,1.75,2.5,1.0,0.0,1.0,2.5,1.75,1.25,1.75,0.27,0.08,1.08,267.89,-6.3,5.9
3.14,6.25,2.0,5.75,5.5,9.25,8.5,6.5,7.0,5.75,5.0,5.25,3.5,3.5,-0.17,-0.3,1.14,1396.69,4.8,5.2,2.5,1.75,1.5,1.25,2.5,1.25,0.75,0.0,1.0,1.0,2.0,1.25,1.75,0.2,0.02,1.08,262.27,-8.9,10.2
3.16,5.75,2.0,4.75,4.5,8.25,8.0,5.75,7.0,5.5,5.0,5.25,5.0,4.75,-0.05,-0.17,1.02,1399.99,3.8,-2.6,2.25,1.5,1.5,2.0,1.75,2.0,1.0,0.5,1.0,2.5,2.0,1.25,1.75,0.2,-0.05,1.08,270.38,-6.0,1.6
3.18,5.25,2.0,4.0,3.5,7.5,7.75,4.75,6.75,5.25,5.0,4.25,5.0,5.25,-0.11,-0.11,0.95,1338.15,2.8,-5.6,2.25,1.5,1.75,2.0,2.75,2.25,1.0,0.5,1.0,2.5,1.5,1.25,1.75,0.2,-0.11,1.08,275.26,-5.5,7.1
3.2,3.75,1.75,3.75,3.5,6.5,7.0,4.25,6.5,5.0,5.0,4.75,5.0,5.25,-0.17,-0.05,0.95,1219.19,2.2,-10.8,2.25,1.5,0.75,2.0,2.25,2.25,1.0,0.5,1.25,2.5,1.5,1.25,1.75,0.14,-0.17,1.02,274.98,-4.2,2.5
3.22,3.5,1.75,2.5,3.5,5.75,6.75,3.25,6.5,5.0,5.0,4.5,5.75,5.5,-0.11,-0.05,0.95,1075.89,1.2,-15.7,2.25,1.25,1.5,2.0,1.5,1.75,0.75,0.25,1.25,2.5,1.75,1.25,1.75,0.14,-0.17,0.95,272.61,-6.6,0.0
3.24,3.25,1.0,1.0,3.5,4.75,6.25,3.25,5.5,4.75,5.0,5.25,6.0,6.0,-0.11,-0.05,0.95,937.37,0.5,-23.5,2.25,1.5,1.5,2.0,2.5,1.5,0.75,0.5,1.25,2.5,1.75,1.25,1.75,0.2,-0.23,0.95,274.94,-6.2,3.3
3.26,2.25,1.0,0.5,1.75,3.5,5.75,3.75,5.75,4.25,6.5,5.5,6.75,6.75,-0.11,-0.05,0.95,840.96,-1.2,-36.0,2.25,1.5,1.5,2.0,1.75,1.5,0.5,0.0,1.25,2.5,2.0,1.5,2.25,0.27,-0.23,0.77,274.76,-6.6,-3.1
3.28,2.0,0.75,0.0,1.75,3.5,5.5,3.0,6.25,4.25,5.5,5.25,7.5,7.0,-0.11,-0.05,0.95,769.04,-1.9,-39.6,2.25,1.5,1.75,2.25,3.0,1.5,0.5,0.25,1.5,2.5,2.0,1.25,1.75,0.33,-0.42,0.7,282.11,-6.6,4.9
3.3,0.75,0.5,0.75,0.5,4.25,3.5,2.75,5.5,3.5,5.75,4.25,7.5,7.0,-0.17,-0.05,0.95,680.8,-2.3,-45.9,2.5,1.5,1.5,2.25,2.25,1.5,0.75,0.25,1.25,2.5,2.0,1.25,1.75,0.27,-0.67,0.27,286.41,-7.1,3.9
3.32,0.75,0.5,0.0,1.0,1.25,3.5,1.5,5.5,3.5,6.25,4.0,7.5,7.5,-0.11,-0.05,0.95,601.65,-3.6,-56.8,2.75,1.75,1.75,2.25,1.75,2.75,1.0,0.0,1.25,2.5,0.75,1.25,1.5,1.14,-3.8,2.77,289.57,-6.9,13.8
3.34,1.0,0.25,0.0,0.5,2.25,3.5,1.25,6.0,3.25,6.5,3.75,8.0,7.75,-0.17,-0.05,0.95,571.36,-4.2,-56.4,3.75,1.75,1.5,4.0,3.5,3.75,0.75,0.0,1.0,2.5,1.75,1.25,1.5,0.2,-3.11,-0.05,313.43,-6.4,20.1
3.36,0.75,0.5,0.0,0.25,0.5,3.5,0.5,6.25,2.75,6.25,3.5,8.0,8.5,-0.17,-0.05,0.95,550.32,-5.3,-64.1,3.75,2.0,1.75,4.75,5.25,5.75,0.75,0.0,0.0,2.5,0.0,1.25,1.0,1.58,-0.05,1.77,352.45,-4.4,35.4
3.38,0.0,0.25,0.0,0.0,3.5,3.25,0.75,6.0,2.75,6.5,3.5,7.75,8.75,-0.17,-0.05,0.95,555.42,-5.9,-59.5,5.0,2.0,1.75,4.75,6.0,6.25,3.25,3.5,4.75,6.0,2.75,3.25,2.75,0.95,0.14,1.77,502.04,-3.1,0.7
3.4,2.25,0.5,0.0,0.0,0.0,3.5,0.75,6.0,2.75,7.5,3.5,8.0,8.75,-0.23,-0.11,0.95,570.52,-4.3,-61.7,5.25,2.0,4.5,4.75,6.5,6.25,4.0,5.75,6.25,7.75,7.25,6.0,6.25,0.27,-0.3,1.52,767.22,-3.6,-14.4
3.42,0.5,0.25,0.25,0.0,3.5,2.25,1.0,6.25,2.0,7.0,4.0,8.25,9.25,-0.23,-0.11,0.95,600.73,-5.0,-60.6,5.25,2.0,4.5,4.5,6.5,6.25,4.25,6.25,6.25,7.75,8.0,6.0,7.75,-0.23,-0.11,0.95,1048.09,-3.2,-17.4
3.44,0.5,0.5,0.0,0.0,2.25,2.5,0.5,6.0,2.0,7.25,3.5,8.25,9.0,-0.23,-0.11,0.95,611.63,-5.6,-64.0,5.0,2.0,4.0,4.5,6.5,6.5,3.75,6.25,5.75,7.75,7.25,6.0,7.75,0.14,0.02,1.02,1246.61,-2.5,-17.6
3.46,0.75,0.25,0.0,0.0,3.5,2.25,0.25,6.0,2.0,7.75,3.5,8.75,9.5,-0.3,-0.11,0.89,636.96,-5.5,-62.3,5.0,2.0,4.25,4.5,6.25,6.5,3.0,6.0,5.25,7.75,6.5,5.75,7.75,0.2,0.08,0.95,1322.43,-2.4,-16.6
3.48,0.25,0.25,0.0,0.0,3.0,2.5,0.25,6.0,2.0,7.75,3.5,8.75,9.75,-0.36,-0.11,1.02,653.97,-6.1,-65.2,5.0,2.0,3.75,4.5,5.5,6.25,2.75,5.75,5.0,7.75,6.0,5.75,7.5,0.2,0.08,0.95,1311.35,-2.3,-17.5
3.5,0.0,0.25,0.0,0.0,1.75,2.5,0.25,6.0,1.75,7.75,3.5,8.75,9.75,-0.36,-0.11,1.08,659.8,-6.5,-70.3,4.5,2.0,3.25,4.0,5.5,5.75,2.75,5.75,4.75,7.5,6.0,5.75,7.5,0.08,0.02,0.95,1251.5,-1.8,-19.6
3.52,0.0,0.5,0.0,0.0,0.0,2.5,0.25,6.0,1.5,7.75,3.25,8.5,9.25,-0.42,-0.11,1.02,643.3,-6.8,-75.0,2.5,1.75,2.75,4.25,5.0,5.75,2.0,5.5,4.5,7.5,6.0,6.0,7.75,0.08,0.02,0.89,1163.72,-0.4,-25.7
3.54,0.0,0.25,0.0,0.0,0.0,2.25,0.25,6.0,1.25,7.75,3.25,8.25,9.5,-0.42,-0.17,1.08,624.77,-7.1,-77.1,3.75,2.0,3.75,4.0,5.25,5.75,2.5,4.75,4.25,7.75,6.0,5.5,7.75,0.14,0.02,0.89,1105.15,-1.8,-20.5
3.56,0.0,0.0,0.0,0.0,0.0,2.25,0.0,6.0,1.25,7.75,3.0,8.25,9.5,-0.36,-0.17,0.95,600.86,-7.5,-78.6,3.75,2.0,3.5,2.0,5.25,4.0,1.75,5.5,3.5,6.75,6.0,5.75,7.75,0.08,0.02,0.95,1009.24,-1.5,-25.0
3.58,0.0,0.25,0.0,0.25,0.0,2.0,0.0,6.0,1.0,7.75,2.5,8.0,9.5,-0.42,-0.17,0.95,578.33,-7.5,-77.2,3.5,1.75,1.5,2.0,5.25,4.5,2.0,4.75,3.5,7.25,5.25,6.0,7.0,0.08,0.02,0.95,903.4,0.0,-27.6
3.6,0.25,0.0,0.0,0.5,2.5,2.25,0.0,5.5,1.0,6.75,2.0,7.5,8.75,-0.48,-0.23,0.95,558.79,-7.0,-65.1,2.25,1.0,3.25,2.0,5.5,4.0,2.0,5.75,3.5,7.75,5.75,6.0,7.75,0.08,0.02,0.95,829.99,0.0,-31.4
3.62,0.0,0.0,0.0,0.5,2.25,2.0,0.0,5.25,1.0,6.5,2.0,7.0,8.5,-0.48,-0.23,1.14,531.23,-7.2,-66.9,2.75,2.0,1.5,2.0,5.25,4.0,1.5,5.25,4.0,8.75,7.0,6.5,8.25,0.08,0.02,0.95,792.96,0.6,-34.6
3.64,0.0,0.0,0.0,1.25,0.0,1.25,0.0,5.0,0.75,5.0,1.0,5.75,7.0,-0.42,-0.23,1.39,461.91,-7.2,-72.9,3.0,2.0,1.25,2.25,3.5,5.25,1.75,5.75,3.5,9.0,7.0,7.5,9.0,0.08,0.02,0.95,804.14,1.1,-38.0
3.66,0.0,0.0,0.0,0.5,0.0,1.0,0.0,4.0,1.0,2.75,1.0,3.25,6.0,-0.55,-0.05,1.77,366.34,-7.9,-73.8,2.75,2.0,1.5,2.25,3.25,5.25,1.75,5.75,3.25,9.5,7.25,7.75,9.5,0.14,0.02,0.95,850.31,1.3,-39.9
3.68,0.25,0.5,0.25,1.5,0.5,3.25,0.25,4.0,1.25,3.75,2.5,2.25,5.25,-0.17,0.08,1.14,315.6,-6.1,-46.8,2.25,1.25,1.5,2.75,2.75,4.0,1.5,6.25,2.75,8.75,7.5,6.75,9.75,0.14,0.02,0.95,871.05,1.4,-43.4
3.7,0.0,0.25,0.0,0.5,3.75,1.75,0.25,4.0,1.0,1.75,2.0,1.75,3.25,0.89,3.2,2.2,267.79,-6.2,-33.0,2.0,0.5,0.75,2.0,1.75,4.0,1.0,5.5,2.75,8.75,6.5,7.5,9.0,0.14,0.02,0.95,844.79,2.5,-51.2
3.72,0.5,0.0,0.0,0.0,2.5,1.75,0.0,2.25,0.75,1.0,1.25,0.5,2.25,0.14,2.7,0.95,213.65,-6.8,-25.7,2.0,0.25,0.0,2.0,1.75,4.0,1.0,5.75,2.25,8.75,6.25,7.5,9.0,0.14,0.02,0.95,804.58,3.5,-53.6
3.74,1.0,0.5,0.0,1.75,0.0,2.25,0.25,2.0,1.0,0.5,0.75,0.25,1.5,-0.55,2.2,1.08,160.83,-1.2,-7.0,2.0,0.25,0.0,2.0,1.75,4.0,0.75,6.0,2.25,9.25,6.0,7.5,9.0,0.14,0.02,0.95,775.16,3.8,-53.9
3.76,2.0,0.25,0.25,1.0,3.0,1.0,0.25,2.0,0.75,0.25,0.75,0.0,1.75,-0.61,1.64,1.08,132.94,1.6,9.5,1.5,0.25,0.0,2.0,1.75,4.0,0.75,6.25,2.0,9.0,6.25,7.5,8.75,0.2,0.02,0.95,756.39,4.1,-55.0
3.78,0.25,0.5,0.0,1.75,0.0,2.0,0.0,2.0,1.0,0.25,1.0,0.75,1.0,-0.23,1.39,1.64,102.0,-1.8,-15.1,1.25,0.75,1.5,1.75,2.5,4.5,1.0,6.25,2.25,10.0,5.75,8.25,8.75,0.2,0.02,0.95,773.91,3.2,-49.6
3.8,0.25,0.0,0.0,0.0,0.0,0.0,0.0,1.0,0.75,0.25,0.75,0.25,0.25,0.2,1.08,2.02,54.79,0.8,-50.3,2.25,1.0,0.75,1.75,3.5,4.0,0.75,6.25,1.75,9.5,5.75,7.25,9.5,0.27,0.02,0.95,794.24,3.3,-46.2
3.82,0.0,0.0,0.0,0.0,0.75,0.0,0.0,0.5,0.75,0.25,0.5,0.25,0.5,0.08,0.77,2.2,18.09,-1.6,-39.0,1.5,0.25,1.5,2.0,2.75,4.0,1.0,6.25,1.75,9.5,5.0,7.5,9.75,0.27,0.08,1.02,802.37,3.5,-49.9
3.84,0.0,0.25,0.0,0.0,0.5,0.0,0.0,0.25,0.75,0.25,0.5,0.25,0.0,0.02,0.45,1.95,0.0,3.4,-22.9,2.25,1.25,0.5,2.25,3.5,4.25,0.75,0.0,1.5,9.5,5.5,6.25,8.25,0.33,0.08,1.14,741.97,1.7,-42.1
3.86,0.0,0.0,0.0,0.0,0.75,0.0,0.0,0.0,0.25,0.25,0.25,0.25,0.0,0.02,0.27,1.45,0.0,0.5,-14.8,1.0,0.25,0.0,0.5,3.5,3.75,0.5,6.25,1.0,8.0,4.5,5.75,8.25,0.39,0.08,1.14,682.17,6.4,-52.6
3.88,0.0,0.0,0.0,0.0,0.0,0.0,0.25,0.0,0.5,0.25,0.25,0.25,0.0,-0.3,0.02,1.27,0.0,7.9,-59.2,1.25,1.75,1.0,0.25,2.75,2.0,0.5,5.5,1.0,7.25,4.25,4.5,8.25,0.83,0.2,1.64,608.06,4.0,-47.5
3.9,0.0,0.0,0.0,0.0,0.0,0.0,0.25,1.0,0.25,0.25,0.5,0.25,0.0,-0.42,-0.11,0.89,0.0,-2.7,-54.3,1.25,0.25,0.0,0.0,1.75,0.25,0.25,2.25,1.0,5.5,2.25,3.0,6.25,0.64,0.33,1.52,472.89,4.7,-61.3
3.92,1.25,0.5,0.25,1.0,3.5,1.0,0.5,2.0,1.0,1.5,1.25,1.5,1.5,-0.61,-0.3,0.64,61.15,0.4,-9.2,1.25,1.5,0.0,0.5,1.75,1.75,0.0,1.5,1.0,3.75,2.25,1.75,4.25,0.39,0.2,1.39,355.51,3.1,-35.1
3.94,0.75,0.5,0.0,0.75,1.75,1.0,0.5,1.75,1.0,2.0,1.25,1.5,1.5,-0.67,-0.42,0.45,126.6,-1.3,-26.0,1.25,1.5,0.0,0.75,0.0,1.25,0.0,2.0,1.5,5.0,1.0,1.5,3.0,-0.05,0.2,1.2,268.77,3.5,-39.3
3.96,1.0,0.5,0.25,1.0,3.75,1.0,0.5,1.75,1.0,1.5,1.0,1.5,1.5,-0.61,-0.48,0.45,192.81,0.0,-8.2,2.25,1.5,0.0,2.0,0.0,1.75,0.0,1.5,1.5,4.75,0.75,1.5,2.25,-0.3,2.83,0.08,217.13,0.0,-20.8
3.98,0.25,0.0,0.0,0.0,3.5,0.0,0.75,2.0,0.25,0.25,1.0,0.25,1.5,-0.55,-0.61,0.39,194.6,-3.6,-12.7,2.25,1.75,1.0,2.0,0.5,1.5,0.75,0.5,1.5,4.0,2.25,1.5,2.5,-0.17,1.83,1.08,195.36,-4.5,-15.3
4.0,0.0,0.0,0.0,0.0,0.0,0.0,0.25,0.0,0.25,0.0,0.0,0.25,0.0,-0.55,-1.11,0.33,148.05,14.8,-54.5,1.5,0.25,1.0,1.5,2.75,1.75,0.75,1.5,1.5,3.75,2.0,1.5,2.5,0.33,1.77,0.64,199.4,-0.6,-19.7
4.02,0.75,0.5,0.0,1.0,0.0,1.0,0.25,0.0,1.0,1.25,0.75,1.75,1.5,-0.73,-1.73,0.7,132.76,2.7,-34.7,2.25,1.5,1.75,2.25,1.75,1.75,1.0,0.0,1.5,3.75,2.25,1.5,1.75,0.89,1.58,0.64,213.06,-6.3,-3.6
4.04,2.0,0.5,0.0,0.5,0.0,0.0,0.0,0.0,0.75,0.0,0.75,1.75,1.5,-0.73,-1.98,0.58,120.17,12.0,-23.5,2.25,1.5,1.5,2.0,2.75,2.0,1.0,1.0,1.5,3.5,1.75,1.25,2.25,0.95,1.27,0.77,234.72,-3.9,-2.3
4.06,4.0,1.5,0.0,1.75,0.75,1.0,0.25,0.5,1.75,2.5,1.0,3.25,1.5,0.77,4.02,5.77,178.67,7.8,-8.4,2.25,1.25,1.25,2.0,1.75,1.5,0.75,0.5,1.0,3.25,2.0,1.5,1.5,0.64,1.02,1.2,241.35,-5.5,-4.0
4.08,7.5,1.75,2.75,1.75,0.75,1.5,2.25,2.5,2.75,2.5,3.5,5.0,4.75,-0.67,0.2,3.52,292.14,9.8,-12.2,2.25,1.25,1.5,2.25,1.75,1.5,0.75,0.0,1.5,3.0,2.0,1.25,1.75,0.14,0.77,1.33,249.59,-6.8,-1.6
4.1,8.75,2.0,4.75,3.5,4.25,1.75,3.25,3.0,3.25,2.75,4.5,5.75,6.0,0.14,0.27,2.33,498.73,9.9,-3.9,2.25,1.25,1.5,0.75,3.5,1.75,1.0,1.25,1.25,2.5,2.0,1.25,2.5,0.02,0.52,1.33,260.67,-3.4,-4.0
4.12,10.0,3.0,6.25,3.25,3.5,2.25,3.0,3.25,3.5,4.0,5.25,5.75,6.0,0.14,0.39,1.58,733.74,10.4,-1.9,2.25,1.5,1.0,1.25,1.75,1.5,0.5,1.5,1.25,2.75,2.25,1.5,2.5,-0.55,0.27,1.33,271.21,-3.3,-12.3
4.14,11.5,4.0,7.75,5.25,3.75,2.25,3.0,3.75,3.5,3.0,4.5,6.0,6.0,0.02,0.58,0.89,961.25,12.0,6.9,2.25,1.5,1.5,2.0,1.75,1.5,0.75,1.5,1.25,2.5,2.0,1.25,2.25,-0.67,0.2,1.2,284.81,-5.1,-4.1
4.16,0.0,4.25,8.25,5.5,6.5,3.5,2.25,4.0,3.5,4.0,4.5,5.75,6.75,0.08,0.58,0.58,1066.62,5.5,-8.1,2.0,1.5,1.5,2.0,2.75,1.5,0.75,1.0,1.0,2.5,2.0,0.25,2.0,-0.23,-0.36,1.08,286.17,-4.8,5.5
4.18,10.5,3.0,7.75,3.75,3.75,2.75,2.75,3.25,3.5,4.75,3.5,6.0,6.0,-0.05,0.52,0.89,1136.82,10.6,2.1,1.25,0.25,1.0,0.0,1.5,1.25,0.0,0.0,1.0,1.5,0.5,1.0,0.75,1.27,-4.23,2.83,244.05,-4.2,-4.5
4.2,11.0,5.0,7.75,5.5,4.25,3.5,1.75,4.0,3.75,5.0,2.5,7.25,6.25,-0.23,0.58,1.02,1210.79,9.9,5.6,2.25,0.25,0.5,1.25,1.5,1.5,0.25,0.0,1.25,2.25,1.5,1.0,0.5,2.7,-5.23,4.45,213.26,-5.8,-0.7
4.22,12.5,4.0,7.75,3.5,5.75,3.5,2.5,3.75,3.75,4.25,4.75,7.25,7.25,-0.11,0.45,0.95,1298.16,10.0,2.6,3.75,1.0,0.5,2.0,2.5,2.75,1.0,0.0,1.5,4.25,2.5,1.75,2.5,1.33,0.77,1.39,234.04,-3.7,-7.0
4.24,12.5,3.5,7.75,3.5,3.75,1.75,1.25,3.75,3.0,2.75,3.0,6.5,6.5,-0.05,0.45,0.83,1268.56,12.1,6.3,5.0,0.5,1.75,2.0,2.25,1.5,0.0,0.0,1.5,3.5,0.5,1.25,3.5,-0.11,1.33,1.02,262.15,-6.9,1.5
4.26,11.5,3.5,6.25,3.5,2.25,1.25,1.25,2.25,2.75,3.0,3.0,6.0,6.25,0.02,0.45,0.77,1139.88,12.6,4.0,6.25,1.0,0.25,2.25,1.75,3.25,0.75,0.0,1.5,2.5,1.25,1.25,3.5,-0.42,0.52,0.77,295.26,-6.2,7.1
4.28,11.5,3.5,6.25,3.5,3.5,1.25,1.75,2.0,2.75,5.0,3.5,7.0,6.5,0.08,0.45,0.7,1039.41,11.2,-0.3,5.75,0.0,1.25,2.5,4.25,2.75,0.0,0.0,1.5,4.75,0.75,2.25,2.75,-0.05,0.2,0.89,338.01,-4.8,2.7
4.3,11.5,3.5,6.5,3.5,4.25,1.0,3.5,2.5,2.75,2.75,3.5,6.25,6.25,0.08,0.45,0.7,941.68,12.6,5.6,6.25,0.0,1.5,2.5,4.75,0.5,0.75,0.0,1.0,2.5,0.0,1.25,3.5,0.08,0.58,0.83,353.72,-9.1,15.3
4.32,12.0,3.5,6.0,3.5,3.5,1.0,2.25,2.0,2.75,2.75,3.5,6.25,6.0,0.02,0.45,0.7,870.71,12.9,5.8,5.75,0.0,0.5,2.0,5.25,1.5,0.75,0.0,1.0,2.5,0.75,1.25,3.0,-0.05,0.58,0.64,351.61,-6.2,12.4
4.34,12.0,3.5,5.0,3.5,0.75,1.0,2.25,1.75,2.25,2.75,3.5,6.0,6.25,0.02,0.45,0.77,794.36,13.5,2.2,7.0,1.75,0.0,4.5,1.75,3.75,0.25,0.0,1.5,4.75,1.5,2.25,2.75,-0.05,0.58,0.58,378.79,-6.0,7.6
4.36,12.0,3.75,4.75,3.25,0.75,1.0,1.5,2.25,2.25,2.75,3.25,6.0,6.25,0.02,0.52,0.83,738.7,12.9,1.9,6.5,1.25,0.5,2.25,2.5,1.5,0.5,0.0,1.0,4.0,1.75,1.5,2.5,0.27,0.14,0.7,380.08,-7.8,7.2
4.38,12.0,4.0,4.75,2.5,1.25,1.25,1.5,2.25,2.0,3.0,3.25,6.0,6.25,-0.05,0.45,0.83,692.86,12.3,2.0,7.5,1.75,1.5,2.5,5.25,3.25,0.75,0.0,1.5,5.75,2.0,3.0,3.25,0.02,0.58,0.64,443.58,-5.8,5.7
4.4,14.0,5.25,4.25,3.5,3.5,3.25,1.25,2.25,2.75,4.0,3.25,6.75,6.75,-0.05,0.52,0.77,751.91,10.3,6.6,8.5,2.5,3.0,4.75,6.25,5.0,1.0,0.0,1.5,6.5,3.5,3.5,4.75,0.14,0.58,0.58,577.3,-6.1,6.8
4.42,14.0,5.0,4.75,3.5,4.25,2.5,1.75,3.25,2.5,4.0,3.75,6.75,7.0,0.02,0.52,0.77,829.45,10.3,5.4,8.25,2.75,4.0,5.25,7.0,1.0,1.0,0.0,1.5,7.0,4.0,4.25,6.25,0.08,0.7,0.7,725.03,-8.0,0.6
4.44,14.0,3.75,4.75,2.25,4.25,2.0,1.75,3.25,2.25,2.75,3.5,6.5,6.75,0.02,0.39,0.64,874.27,11.0,5.2,8.0,2.75,4.0,4.75,7.0,5.75,1.0,0.0,1.5,6.75,3.75,4.25,6.5,0.33,0.52,1.2,845.72,-5.3,2.5
4.46,11.5,4.25,2.25,2.5,2.25,1.75,1.25,2.0,2.0,4.25,3.25,6.0,6.0,-0.23,0.52,0.77,834.22,9.5,-1.1,9.25,3.75,4.5,6.75,7.25,5.75,1.75,0.0,1.5,7.75,5.75,5.5,7.75,0.2,0.52,1.02,1001.65,-6.2,0.5
4.48,12.0,5.5,4.25,2.0,4.25,1.0,1.25,2.0,1.75,1.25,2.25,5.5,6.0,-0.05,0.52,0.77,794.08,12.4,13.9,9.25,3.5,5.75,6.5,8.5,6.25,1.75,0.0,1.5,7.75,5.5,5.5,8.0,0.2,0.58,0.89,1149.83,-6.3,2.2
4.5,11.5,4.75,3.75,1.75,4.25,1.75,1.5,2.0,1.5,2.25,2.25,5.0,6.0,-0.05,0.52,0.77,737.57,10.8,10.9,8.5,2.75,5.75,5.25,8.0,5.75,1.75,0.0,1.0,7.25,5.25,4.5,8.0,0.14,0.52,0.89,1203.66,-6.0,1.1
4.52,11.0,4.75,2.25,1.0,3.75,1.5,1.0,2.0,1.25,0.25,2.0,5.0,5.5,-0.17,0.58,0.83,660.58,11.3,12.9,8.5,2.5,4.0,4.75,7.25,5.75,1.25,1.75,1.0,6.75,4.25,4.25,7.5,0.2,0.52,0.89,1183.7,-4.5,-0.2
4.54,10.5,4.75,2.25,0.25,3.75,1.25,0.5,2.0,1.0,1.5,1.0,3.75,5.25,-0.17,0.58,0.89,592.61,10.3,15.2,7.75,2.0,3.75,4.5,7.25,5.0,1.0,0.0,1.0,6.75,4.0,4.0,6.75,0.2,0.45,0.89,1092.78,-5.1,0.0
4.56,9.75,3.25,1.5,0.75,3.75,1.0,0.75,1.75,1.0,1.25,1.0,3.25,4.75,-0.17,0.64,0.95,515.42,10.2,14.0,7.5,2.0,1.5,4.25,7.25,5.75,1.25,0.0,1.5,6.75,3.25,3.0,6.5,0.2,0.39,0.89,969.64,-3.0,0.4
4.58,9.25,3.25,1.0,1.0,0.0,1.0,0.5,2.0,0.75,1.5,0.75,1.75,3.5,-0.11,0.58,1.14,412.58,12.2,18.7,6.5,1.25,1.75,2.5,6.75,2.75,1.25,0.0,1.0,6.25,4.75,2.75,6.25,0.33,0.14,0.89,816.85,-4.0,-8.1
4.6,8.25,2.5,0.0,1.0,1.75,1.25,0.5,1.0,0.75,0.25,0.75,0.5,1.5,-0.23,0.64,1.27,317.06,14.0,44.0,6.25,0.75,1.25,2.25,5.25,4.0,1.0,0.0,1.0,6.0,2.75,2.5,6.0,0.52,-0.17,1.14,680.01,-2.4,-8.0
4.62,7.0,2.5,2.0,1.75,3.75,1.75,1.0,2.0,1.0,2.0,1.25,1.75,1.5,-0.48,0.7,1.45,291.77,9.9,24.5,5.0,0.5,1.0,2.0,3.25,3.0,0.75,0.25,1.0,5.25,3.75,2.0,6.75,0.95,-0.92,0.89,532.15,-1.9,-20.4
4.64,4.0,0.5,2.25,0.0,1.75,0.75,0.5,2.0,0.5,0.25,1.25,0.25,1.5,-1.17,0.2,1.27,232.08,11.3,19.1,4.5,1.5,0.0,2.25,1.75,4.0,0.75,0.5,1.0,6.0,1.0,2.75,5.75,1.58,-1.05,2.14,419.28,0.3,-18.7
4.66,3.5,0.5,0.0,0.0,0.0,0.5,0.0,0.0,0.5,0.25,1.0,0.25,0.75,-2.23,0.89,2.58,159.82,16.3,23.4,5.0,1.25,1.5,1.5,2.5,1.5,1.0,1.75,1.0,2.5,2.5,1.5,5.75,1.58,-0.8,1.95,349.39,-4.8,-10.5
4.68,2.0,0.5,0.0,0.5,0.0,0.5,0.25,0.0,0.25,0.0,0.25,0.25,0.0,-0.23,1.64,1.27,73.03,19.3,53.9,2.25,0.25,0.5,1.25,1.75,1.5,0.25,0.0,0.75,0.75,0.25,0.5,0.75,0.39,-1.36,4.52,241.99,-7.2,23.7
4.7,1.75,0.0,0.0,0.0,0.0,0.0,0.25,0.0,0.25,0.0,0.0,0.25,0.0,0.45,2.45,0.77,0.0,29.4,56.2,2.0,0.25,0.0,1.75,1.5,1.5,0.0,0.5,0.75,2.5,0.5,0.25,0.75,1.83,3.2,-0.98,157.41,-1.6,5.6
4.72,1.0,0.25,0.0,0.0,0.0,0.0,0.25,0.0,0.25,0.25,0.0,0.25,0.25,0.7,2.2,0.45,0.0,16.2,15.6,2.0,0.25,0.0,1.25,1.25,1.5,0.0,0.25,1.0,2.25,0.25,0.25,0.25,1.83,3.08,-1.36,82.48,-2.6,11.2
4.74,1.0,0.5,0.0,0.0,0.0,0.0,0.25,0.0,0.25,0.0,0.0,0.25,0.0,0.77,1.95,-0.23,0.0,23.3,52.7,2.5,1.25,0.0,2.0,1.75,1.5,0.0,0.0,1.0,2.5,0.0,0.0,0.5,-1.48,0.33,0.45,70.56,-4.6,26.6
4.76,1.75,0.0,0.0,0.0,0.0,0.0,0.25,0.0,0.5,0.5,0.0,0.25,1.5,0.7,1.45,-0.48,0.0,8.8,-19.9,2.0,0.25,0.0,2.0,1.75,1.5,0.0,0.0,1.0,2.25,0.5,1.25,0.5,0.52,0.27,0.2,73.06,-3.9,3.7
4.78,1.0,0.0,1.0,0.5,0.0,0.0,0.25,0.0,0.25,0.0,0.0,0.25,0.0,0.89,1.08,-0.8,0.0,29.0,48.6,2.0,1.25,1.5,2.25,2.25,3.25,0.25,0.0,1.0,2.75,0.5,1.25,1.0,1.2,-0.17,0.39,129.6,-3.9,13.2
4.8,1.25,0.0,0.0,0.5,0.0,0.0,0.25,0.0,0.25,0.0,0.0,0.25,0.0,1.33,0.77,-0.67,0.0,25.5,48.1,2.75,1.0,1.5,2.25,2.5,3.25,0.25,0.0,1.25,2.5,2.25,1.25,1.75,1.39,-0.86,0.89,186.79,-4.9,4.9
4.82,0.5,0.0,0.0,0.0,0.0,0.0,0.25,0.0,0.75,0.0,0.0,0.0,0.0,1.52,0.39,-0.42,0.0,22.0,15.3,2.0,0.25,1.5,2.25,1.75,3.25,0.0,0.0,1.0,2.5,0.25,0.0,0.75,1.39,-0.8,0.64,208.99,-3.5,20.6
4.84,0.25,0.0,0.0,0.0,3.75,0.5,0.75,0.0,0.25,0.0,0.0,0.25,0.0,1.95,-0.23,-0.17,8.5,0.0,41.3,2.25,0.25,0.0,1.75,1.75,1.5,0.0,0.5,1.25,1.5,0.25,0.0,0.75,0.95,-0.73,0.95,201.47,-3.7,17.7
4.86,0.75,0.0,0.0,0.0,0.0,0.75,0.5,0.0,1.25,0.25,0.0,0.75,0.0,1.89,-1.17,0.02,21.57,8.7,-12.6,2.0,0.25,0.0,1.25,1.75,1.5,0.0,0.0,1.0,1.75,1.5,0.0,1.75,0.64,-0.67,1.02,187.89,-2.1,-2.8
4.88,0.75,0.25,0.5,1.5,3.75,1.0,1.0,1.5,0.75,0.25,1.0,1.75,1.5,1.64,-2.05,0.2,111.94,2.4,-2.9,3.25,0.25,0.0,1.5,1.75,1.5,0.5,0.0,1.0,1.25,0.0,0.0,1.5,0.7,-0.98,1.14,177.51,-6.1,22.2
4.9,0.0,0.0,0.5,0.0,3.75,0.25,1.25,1.25,0.25,0.0,1.0,0.25,1.5,0.77,-3.42,0.39,146.37,-0.7,-4.0,2.0,0.25,0.0,1.25,1.5,1.5,1.0,0.0,1.25,1.5,1.5,0.0,1.0,0.89,-1.3,1.2,175.73,-5.0,4.4
4.92,0.75,0.0,0.0,0.0,0.75,1.0,0.0,0.0,0.25,0.25,0.0,0.25,0.0,-5.73,-4.55,0.2,141.55,0.4,28.0,2.5,1.5,0.0,2.0,1.5,1.75,0.5,0.0,1.0,2.5,0.5,1.25,1.25,1.2,-1.55,1.2,200.82,-4.5,7.2
4.94,1.25,0.5,0.0,0.75,0.0,1.0,0.0,0.0,0.5,0.0,0.0,0.25,0.5,-0.23,-1.42,-0.11,119.33,8.6,30.0,2.75,0.25,1.5,2.0,1.5,1.25,0.25,0.0,1.0,0.75,1.5,0.25,1.5,1.52,-1.55,1.2,206.5,-10.8,15.7
4.96,2.75,0.5,0.0,0.5,0.0,1.75,0.25,0.0,1.25,0.0,0.0,1.5,1.5,-2.3,2.14,0.83,122.44,8.1,1.1,2.25,1.25,0.0,2.0,1.25,1.75,0.0,0.0,1.0,1.0,0.5,0.0,1.5,1.64,-1.48,1.27,203.2,-5.0,21.3
4.98,4.5,1.0,1.0,0.5,0.0,3.5,1.25,1.75,1.5,0.0,0.0,3.0,3.0,-1.92,4.02,0.64,178.61,6.2,-2.8,1.75,0.25,0.0,2.0,1.5,1.25,0.0,0.0,1.0,0.75,0.5,0.0,0.5,1.27,-1.3,1.58,179.54,-6.4,26.1
5.0,5.75,0.0,2.5,3.0,2.5,3.5,1.5,1.0,1.75,1.0,2.0,2.5,1.75,-1.92,2.02,2.45,266.03,10.2,12.6,2.0,0.25,0.25,1.5,1.5,1.25,0.0,0.0,1.0,1.25,1.5,0.25,1.5,0.7,-1.23,1.89,169.61,-5.0,0.7
5.02,5.75,2.0,1.0,3.75,0.0,3.25,1.75,2.25,2.75,2.75,1.75,5.75,5.25,-1.73,0.39,2.83,378.49,6.1,-16.3,2.5,1.25,1.25,2.25,2.75,1.5,0.75,0.0,1.0,2.5,1.75,1.25,1.5,0.52,-0.92,1.08,196.68,-6.8,6.8
5.04,6.0,2.0,1.0,3.25,4.25,3.5,2.25,2.25,2.75,2.75,2.5,5.75,6.0,-0.23,0.02,2.02,519.9,4.7,-10.8,1.25,0.25,1.5,1.75,1.75,1.25,0.75,0.0,1.0,0.75,2.0,0.0,0.75,1.08,-1.23,0.45,202.31,-9.6,13.4
5.06,6.0,1.75,2.25,2.5,4.25,3.5,2.25,2.25,2.75,3.5,3.5,6.0,6.25,0.27,-0.42,2.14,641.09,5.1,-14.1,1.25,0.25,0.0,0.5,1.5,1.25,0.0,0.0,1.0,0.75,0.25,0.0,0.0,1.45,-1.23,0.2,185.49,-3.3,27.7
5.08,5.75,2.0,1.0,2.5,4.25,3.75,1.75,2.25,2.5,4.0,3.5,6.75,6.25,-0.23,-0.05,1.83,714.11,3.6,-18.2,1.25,0.25,0.0,0.0,1.5,0.5,0.0,0.0,1.0,1.0,0.25,0.0,0.0,0.89,-0.73,-0.73,146.23,-4.5,19.9
5.1,5.25,0.75,1.0,1.5,3.75,3.75,1.5,2.25,2.5,4.0,3.0,6.75,7.0,-0.36,0.2,0.7,726.97,2.2,-27.1,2.5,1.5,1.25,2.0,1.75,1.5,0.75,0.25,1.0,2.5,2.0,1.25,1.25,0.08,-0.73,-1.11,171.91,-7.3,4.5
5.12,4.75,1.75,1.0,1.0,3.75,3.75,1.5,2.0,2.0,3.5,2.0,6.0,7.75,-0.36,0.52,0.39,698.64,1.5,-24.5,2.5,1.5,1.25,2.0,1.75,1.5,0.75,0.25,1.0,2.5,1.5,1.0,1.5,-0.36,-0.48,-0.48,201.91,-6.9,6.5
5.14,4.25,1.75,0.0,0.25,1.75,4.0,0.0,2.25,2.0,5.0,2.25,6.75,7.25,-0.55,0.52,0.83,661.43,-1.0,-38.5,2.25,1.5,1.75,2.0,1.75,2.0,0.75,0.5,1.0,2.5,2.0,1.25,1.5,0.08,-0.48,0.02,247.16,-6.5,3.6
5.16,4.25,0.75,0.0,0.0,3.75,1.75,0.0,3.25,1.75,3.25,2.5,6.25,8.5,-0.67,0.39,1.08,618.81,-0.7,-41.5,2.25,1.25,1.5,0.5,3.0,1.25,0.75,0.75,0.75,0.75,1.5,0.0,1.0,0.52,-0.67,0.39,253.64,-7.7,23.4
5.18,2.0,0.0,0.0,0.0,0.0,1.25,0.0,1.75,1.0,2.75,2.0,6.25,7.0,-0.55,-0.36,1.08,512.47,-1.8,-71.6,1.25,0.25,0.0,0.25,1.5,1.25,0.0,0.5,0.75,0.75,0.25,0.0,0.0,0.89,-1.11,0.45,217.76,-1.0,24.1
5.2,1.75,1.0,0.0,0.0,0.0,1.75,0.0,1.0,1.0,2.75,1.25,5.75,7.25,-0.86,-0.23,1.58,416.82,-2.3,-64.2,1.0,0.25,0.0,0.5,1.25,1.0,0.0,0.25,0.75,1.0,0.0,0.0,0.0,1.02,-1.55,0.7,164.2,-1.2,23.4
5.22,1.75,0.5,1.0,0.0,0.5,1.0,0.25,1.75,1.0,2.5,1.25,5.25,7.0,-1.17,0.33,2.14,344.95,-0.5,-59.5,1.25,0.25,0.0,0.5,0.0,0.5,0.0,0.25,0.75,0.75,0.0,0.0,0.0,0.89,-1.55,0.83,107.98,-8.4,21.9
5.24,0.25,0.0,0.0,0.0,0.0,1.0,0.25,0.5,0.75,0.75,1.0,3.5,6.75,-1.36,0.77,2.33,273.48,-5.0,-86.1,1.25,0.25,0.0,1.0,1.5,1.0,0.0,0.25,0.75,0.75,0.25,0.0,0.25,0.64,-1.42,0.39,87.35,-3.6,24.8
5.26,0.75,0.0,0.0,0.0,0.0,1.0,0.25,0.25,0.25,0.25,0.75,3.25,6.0,-1.8,0.77,2.64,213.81,-3.6,-80.8,1.25,0.5,0.0,2.5,1.5,0.5,0.0,0.25,0.5,2.0,0.5,0.0,0.0,0.27,-0.92,0.2,93.96,-5.2,21.5
5.28,0.5,0.0,0.0,0.0,0.0,1.0,0.25,0.0,0.5,0.25,0.5,1.75,5.25,-1.73,0.45,2.89,152.66,-5.3,-78.6,1.0,0.25,0.0,0.5,1.25,0.5,0.75,0.5,0.25,0.75,0.0,0.0,0.0,-0.17,-0.42,-0.36,98.41,-4.3,30.0
5.3,0.25,0.5,0.0,0.0,0.0,0.0,0.25,0.0,0.5,0.0,0.75,2.0,3.5,-1.48,0.64,2.2,101.05,0.0,-79.5,3.0,0.25,0.25,2.0,1.75,1.5,0.75,0.0,0.25,2.5,0.25,0.75,0.75,-0.3,-0.42,-0.36,132.96,-5.9,16.0
5.32,0.5,0.0,0.0,0.0,0.0,0.0,0.25,0.0,0.75,0.0,0.5,0.0,1.5,-1.23,0.64,1.77,39.6,3.9,-55.3,2.25,0.25,1.5,0.5,1.75,0.5,0.75,0.5,0.25,0.75,1.5,0.0,0.75,-0.3,-0.42,-0.3,140.19,-11.5,19.0
5.34,0.25,0.0,0.0,0.0,0.0,0.0,0.25,0.0,0.25,0.0,0.0,0.25,1.5,-0.73,0.2,1.45,0.0,-1.6,-75.4,1.5,0.5,0.5,0.5,1.25,0.75,0.0,0.25,0.25,0.75,0.25,0.0,0.0,-0.36,-0.36,-0.17,127.72,-8.0,38.9
5.36,0.25,0.0,0.0,0.25,0.0,1.75,0.25,0.0,0.75,0.0,0.0,0.75,0.5,-0.8,-0.42,0.02,0.0,-2.9,-16.2,0.75,0.5,0.0,0.0,1.25,1.25,0.0,0.25,0.0,0.75,0.25,0.0,0.0,-0.42,-0.36,-0.05,106.79,2.7,30.0
5.38,0.0,0.0,0.0,0.0,0.0,0.0,1.75,0.25,1.0,0.0,0.0,0.25,0.5,-0.73,-1.36,0.08,0.0,10.6,-38.2,0.5,0.25,0.25,0.0,1.25,0.25,0.0,0.25,0.0,0.25,0.25,0.0,0.0,-0.42,-0.36,0.02,82.26,-4.0,36.8
5.4,0.5,0.0,0.0,0.5,0.0,0.0,0.25,0.0,0.0,0.0,0.0,0.25,1.0,-0.73,-1.67,0.7,0.0,7.2,-25.5,0.75,0.25,0.25,0.25,1.0,0.5,0.0,0.25,0.0,0.25,0.25,0.0,0.0,-0.48,-0.23,0.08,67.32,-5.7,40.5
5.42,0.25,0.0,0.0,0.25,0.0,0.0,0.25,0.0,0.5,0.25,0.0,0.0,0.5,-1.05,-1.48,1.2,0.0,6.1,-28.3,0.75,0.25,0.0,0.5,1.25,0.5,0.0,0.25,0.0,0.25,0.25,0.0,0.0,-0.42,-0.11,0.08,62.28,-3.7,41.2
5.44,0.0,0.0,0.0,0.25,0.0,0.0,0.25,0.0,0.25,0.0,0.0,0.25,0.5,-1.23,-1.17,1.7,0.0,4.7,-53.8,1.0,0.25,0.0,0.5,1.0,0.75,0.0,0.25,0.0,0.75,0.5,0.0,0.0,-0.42,-0.05,0.02,65.2,-2.7,25.7
5.46,0.0,0.0,0.0,0.5,0.0,0.0,0.0,0.0,0.25,0.0,0.0,0.25,0.0,-0.98,-0.73,1.7,0.0,13.9,-6.3,1.0,0.25,0.0,0.75,0.25,0.5,0.0,0.25,0.0,0.75,0.25,0.0,0.0,-0.36,0.02,-0.11,61.35,-6.1,27.4
5.48,0.0,0.0,0.0,0.5,0.75,0.0,0.0,0.0,0.25,0.0,0.0,0.25,0.0,-0.36,-0.23,1.27,0.0,6.0,21.1,0.75,0.25,0.0,0.5,0.0,0.75,0.0,0.25,0.0,0.75,0.25,0.0,0.0,-0.36,-0.05,-0.23,52.38,-2.0,18.6
5.5,0.0,0.0,0.0,0.25,0.5,0.0,0.0,0.0,0.0,0.0,0.0,0.0,0.0,0.02,0.14,0.95,0.0,3.0,54.8,1.0,0.25,0.0,0.75,0.0,0.5,0.0,0.0,0.0,0.75,0.25,0.0,0.0,-0.3,-0.05,-0.23,45.39,-8.5,30.0
5.52,0.0,0.0,0.0,0.0,0.75,0.0,0.0,0.0,0.25,0.25,0.0,0.0,0.0,0.2,0.33,0.2,4.21,-2.7,13.2,1.0,0.25,0.0,0.25,1.25,0.5,0.0,0.25,0.0,0.75,0.25,0.0,0.0,-0.23,-0.05,-0.23,49.76,-2.4,30.5
5.54,0.0,0.0,0.0,0.25,0.0,0.0,0.0,0.0,0.0,0.0,0.0,0.25,0.0,0.2,0.39,-0.23,4.97,13.1,-23.7,1.0,0.25,1.5,0.0,1.75,0.5,0.75,0.25,0.0,0.75,0.25,0.0,0.0,-0.17,0.02,-0.23,64.89,-11.0,38.1
5.56,0.0,0.0,0.0,0.0,0.0,0.0,0.0,0.0,0.25,0.0,0.0,0.25,0.0,0.27,0.2,-0.42,6.78,10.5,-74.3,2.25,1.25,0.0,2.0,2.25,0.75,0.75,0.5,0.5,2.5,1.25,0.75,0.75,-0.17,0.33,-0.3,130.71,-5.2,9.2
5.58,1.25,0.5,0.0,1.5,0.0,1.75,0.0,0.0,0.25,0.0,1.25,0.0,1.5,0.27,0.14,-0.42,44.81,3.9,5.3,2.25,1.5,1.5,2.0,1.75,1.5,0.75,1.0,0.5,2.5,2.0,1.0,0.75,-0.3,0.52,-0.48,199.26,-6.9,8.1
5.6,0.0,0.0,0.0,0.5,0.0,0.0,0.0,0.0,0.25,0.0,0.0,0.25,0.0,0.27,0.14,-0.42,43.41,13.9,-6.3,2.25,1.25,1.5,2.0,1.75,1.5,0.75,0.5,0.5,2.5,1.25,1.0,1.25,-0.42,0.83,-0.73,245.07,-6.7,8.1
5.62,0.0,0.0,0.0,0.25,0.0,0.0,0.0,0.0,0.0,0.0,0.0,0.0,0.0,0.27,0.08,-0.42,40.29,17.2,57.9,2.25,1.25,0.25,2.0,1.5,1.5,0.75,0.75,0.5,2.5,1.25,1.0,0.75,-0.61,1.08,-0.98,262.04,-4.6,6.1
5.64,0.0,0.0,0.0,0.25,0.5,0.0,0.0,0.0,0.25,0.0,0.0,0.0,0.0,0.39,0.02,-0.42,27.06,5.1,33.6,1.25,0.25,1.25,0.5,1.5,0.75,1.0,0.25,0.0,0.75,0.0,0.0,0.0,-0.67,1.27,-1.36,230.84,-11.1,43.6
5.66,1.0,0.75,0.0,0.5,2.5,1.25,0.75,1.25,0.5,0.0,1.0,0.5,1.5,0.45,0.02,-0.55,77.09,0.4,3.3,2.25,1.5,0.0,2.0,0.5,1.5,0.0,0.25,0.0,0.75,0.0,0.0,0.25,-0.67,1.33,-1.48,201.03,-8.3,51.6
5.68,0.75,0.5,0.0,1.5,3.75,0.75,0.25,1.0,0.5,0.0,1.0,0.75,1.5,0.52,0.02,-0.61,127.52,1.3,6.9,2.25,1.5,0.0,2.0,1.25,1.5,0.0,0.25,0.5,2.5,0.0,0.75,0.0,-0.55,1.33,-1.61,187.91,-4.8,24.3
5.7,0.0,0.0,0.0,0.25,3.75,0.0,0.25,1.0,0.25,0.0,1.0,0.25,1.5,0.58,0.08,-0.73,157.0,-3.2,-7.7,2.5,1.5,1.5,2.0,1.75,1.5,0.75,0.5,0.75,2.5,1.5,0.75,0.75,-0.55,1.14,-1.61,214.79,-7.8,13.8
5.72,1.0,0.5,0.0,1.5,0.0,0.25,0.0,0.0,0.25,0.25,0.0,0.25,0.0,0.64,0.08,-0.67,145.49,15.5,46.4,0.75,0.25,1.25,0.5,0.0,0.5,0.0,0.0,0.5,2.5,0.0,0.75,0.5,-0.48,0.95,-1.61,193.38,-5.5,-16.9
5.74,1.25,0.5,0.75,1.25,4.25,1.0,0.25,0.5,0.5,0.25,1.0,0.75,1.5,0.7,0.08,-0.67,169.87,3.8,14.3,2.25,1.5,1.5,2.0,1.75,1.5,0.75,0.75,0.5,2.5,1.5,0.75,1.0,-0.48,0.77,-1.55,218.3,-6.8,11.0
5.76,1.75,0.5,0.0,1.0,3.75,1.0,0.25,1.0,0.5,0.0,1.0,0.25,1.5,0.64,0.08,-0.61,182.29,2.3,16.4,2.25,1.25,1.5,2.0,1.75,1.5,0.75,0.5,0.5,2.5,1.5,0.75,1.25,-0.48,0.64,-1.48,225.27,-6.7,8.7
5.78,1.25,0.5,0.25,0.75,3.75,0.75,0.25,1.0,0.25,0.25,0.75,0.5,1.5,0.58,0.14,-0.67,199.44,1.4,11.5,2.25,1.25,1.5,2.25,1.5,1.5,0.75,0.5,0.5,2.5,1.75,1.0,0.75,-0.55,0.58,-1.42,240.44,-7.7,9.3
5.8,1.0,0.5,0.0,1.75,3.75,0.5,0.25,0.75,0.5,1.0,1.0,0.5,1.5,0.52,0.2,-0.73,210.11,1.5,5.8,2.25,1.5,1.5,2.25,1.75,1.5,0.75,0.5,0.5,2.5,1.0,1.0,0.75,-0.61,0.64,-1.36,243.93,-7.5,14.8
5.82,1.0,0.5,0.0,1.0,3.75,0.0,0.25,1.0,0.25,0.75,1.0,0.75,1.5,0.52,0.27,-0.86,209.27,1.4,0.7,2.25,1.75,1.5,2.0,1.75,1.5,0.75,0.5,0.5,2.5,1.0,1.0,0.75,-0.61,0.7,-1.23,254.05,-7.4,15.4
5.84,1.25,0.5,0.0,1.25,3.75,0.25,0.5,1.0,0.25,0.75,1.0,0.5,1.5,0.52,0.33,-0.92,209.61,2.0,6.6,2.25,1.25,1.5,2.25,1.75,1.5,0.75,0.5,0.5,2.5,1.25,1.0,1.0,-0.55,0.83,-1.17,258.13,-7.1,10.6
5.86,1.25,0.5,0.0,0.75,3.75,0.25,0.5,0.75,0.5,0.25,1.0,0.5,1.5,0.58,0.33,-1.05,200.06,2.7,7.9,2.25,1.5,1.5,2.0,1.75,1.5,0.75,0.25,0.5,2.5,0.0,0.0,0.0,-0.48,0.77,-1.11,249.88,-8.6,36.4
5.88,1.25,0.5,0.0,1.0,3.75,0.0,0.25,1.0,0.5,0.25,0.75,0.75,1.5,0.58,0.33,-1.05,192.74,2.8,6.5,1.0,0.25,1.5,0.25,1.75,0.75,0.75,0.5,0.0,0.75,1.5,0.0,0.75,-0.36,0.77,-1.05,221.03,-7.6,10.2
5.9,1.0,0.75,0.0,1.0,3.75,0.0,0.25,0.75,0.25,0.25,0.75,0.5,1.5,0.58,0.27,-1.05,179.13,2.4,11.3,2.25,1.5,0.25,2.0,1.5,1.5,0.0,0.25,0.5,2.25,0.25,0.25,1.25,-0.23,0.64,-0.92,203.88,-3.9,18.0
5.92,1.25,0.5,0.0,1.0,3.5,0.0,0.25,0.5,0.5,0.25,0.75,0.5,1.5,0.52,0.14,-1.05,174.43,3.7,10.0,2.25,1.75,1.5,2.0,1.75,2.0,0.75,0.25,0.75,2.5,0.25,0.75,0.75,-0.11,0.58,-0.86,206.91,-6.8,21.6
5.94,1.25,0.5,0.0,0.75,3.5,0.0,0.25,0.5,0.25,0.25,0.75,0.25,1.5,0.45,0.02,-1.05,167.98,3.0,12.9,2.25,1.5,1.5,0.25,1.5,0.5,0.0,0.25,0.25,1.5,0.0,0.75,0.25,-0.05,0.45,-0.8,194.17,-11.1,31.3
5.96,1.25,0.5,0.0,1.25,3.75,0.0,0.25,0.5,0.25,0.25,0.75,0.5,1.5,0.39,-0.05,-0.98,164.81,3.6,13.3,2.25,1.5,0.25,2.0,3.0,1.75,0.75,0.0,0.5,2.5,0.75,1.0,0.25,0.02,0.39,-0.67,210.77,-4.9,21.1
5.98,1.25,0.5,0.0,1.0,3.75,0.75,0.25,0.5,0.25,0.5,1.0,0.5,1.5,0.27,-0.17,-0.92,162.53,1.5,10.0,2.25,1.75,1.5,2.0,1.75,1.5,0.5,0.5,0.5,2.5,0.25,0.75,1.0,0.02,0.33,-0.61,213.59,-6.7,19.2
6.0,1.25,0.5,0.0,0.75,3.75,0.75,0.25,0.5,0.25,0.25,0.75,0.5,1.5,0.2,-0.23,-0.86,166.92,1.4,12.5,2.5,1.5,0.0,2.0,1.0,1.5,0.0,0.0,0.5,2.5,1.5,0.75,1.25,0.02,0.27,-0.42,218.15,-4.8,4.8
6.02,1.75,0.5,0.0,0.75,3.75,0.0,0.25,0.5,0.5,0.25,0.75,0.5,1.5,0.08,-0.36,-0.86,169.47,4.5,13.6,2.25,1.25,1.5,2.0,1.75,1.5,0.25,0.75,0.5,2.25,1.5,0.75,0.75,0.02,0.2,-0.3,225.49,-7.0,12.5
6.04,1.25,0.5,0.0,1.75,3.75,0.5,0.0,0.5,0.5,0.25,0.75,1.0,1.5,0.02,-0.48,-0.8,175.8,3.3,10.0,2.25,1.25,0.0,2.0,0.25,1.5,0.75,1.0,0.25,2.25,1.5,0.75,1.25,0.14,0.08,-0.17,222.47,-4.1,-1.5
6.06,1.25,0.5,0.0,1.75,3.75,0.75,0.0,0.25,0.5,0.5,1.0,0.75,1.5,-0.11,-0.67,-0.73,183.47,2.9,10.4,2.25,1.25,1.5,2.0,1.75,1.5,0.75,0.75,0.25,2.5,1.5,0.75,1.25,0.2,0.08,-0.05,232.59,-6.3,8.6
6.08,1.0,0.5,0.25,1.75,3.75,0.5,0.0,0.5,0.5,0.5,1.0,0.5,1.5,-0.17,-0.8,-0.67,188.55,3.0,10.8,2.25,1.25,1.5,2.0,1.75,1.5,0.75,0.5,0.5,2.5,1.25,0.75,1.25,0.2,0.08,0.02,238.88,-6.7,9.8
6.1,1.5,0.5,0.0,1.75,3.75,1.0,0.0,0.25,0.5,0.5,1.5,0.5,1.5,-0.23,-0.92,-0.55,196.72,3.1,11.5,2.25,1.25,1.5,2.0,1.75,1.5,0.75,0.5,0.5,2.5,1.5,0.5,1.0,0.14,0.14,0.14,249.71,-7.0,12.1
6.12,1.25,0.5,0.0,1.75,3.75,0.25,0.0,0.25,0.25,0.5,1.0,0.75,1.5,-0.23,-0.98,-0.48,195.59,3.7,10.5,2.25,1.5,1.5,2.0,1.75,1.5,0.75,0.25,0.25,2.5,2.0,0.75,1.0,0.08,0.2,0.33,254.05,-7.5,10.7
6.14,1.5,0.5,0.0,1.75,3.75,0.25,0.0,0.25,0.25,0.25,1.0,0.75,1.5,-0.23,-0.98,-0.36,193.66,4.7,13.9,2.25,1.25,1.5,2.0,1.75,1.5,0.75,0.25,0.5,2.5,1.25,0.75,0.75,-0.05,-0.05,0.58,250.06,-7.6,14.2
6.16,1.75,0.5,0.0,1.75,3.75,0.25,0.0,0.0,0.25,0.25,1.0,0.75,1.5,-0.23,-0.92,-0.36,190.1,5.7,16.6,2.25,1.5,1.5,2.0,1.75,1.5,0.75,0.5,0.5,2.5,0.75,0.75,1.0,-0.05,-0.3,0.83,248.19,-6.9,15.4
6.18,1.25,0.5,0.0,1.75,3.75,0.75,0.0,0.25,0.25,0.25,1.0,0.75,1.5,-0.23,-0.8,-0.42,189.08,3.1,13.1,2.25,1.5,1.5,2.25,1.75,1.5,0.5,0.5,0.5,2.5,2.0,0.75,0.75,0.2,-0.67,0.89,252.02,-7.5,11.6
6.2,0.75,0.5,0.0,1.75,3.75,0.75,0.0,0.25,0.25,0.5,1.0,0.75,1.5,-0.17,-0.61,-0.48,185.88,1.5,8.1,2.75,1.5,1.5,2.0,1.75,1.5,0.75,0.5,0.25,2.5,1.5,0.75,0.75,0.52,-0.98,0.89,251.36,-8.1,16.4
6.22,1.0,0.5,0.25,1.75,3.75,0.75,0.0,0.25,0.5,0.5,1.0,0.5,1.5,-0.23,-0.55,-0.55,187.15,2.9,12.2,2.25,1.5,1.5,2.0,2.5,1.5,0.5,0.25,0.5,2.5,2.0,0.75,0.75,0.7,-1.36,0.77,256.39,-7.2,13.6
6.24,1.0,0.5,0.0,1.75,3.75,1.0,0.25,0.25,0.25,0.25,1.0,0.5,1.5,-0.23,-0.48,-0.55,186.91,2.1,14.5,2.25,1.5,1.5,2.0,2.25,1.5,0.75,0.5,0.25,2.5,1.5,0.75,0.75,0.77,-1.73,0.7,257.88,-7.0,15.5
6.26,0.5,0.5,0.0,1.25,3.75,0.75,0.25,0.25,0.25,0.25,1.0,0.5,1.5,-0.17,-0.42,-0.55,179.93,0.6,8.6,2.25,1.25,1.5,2.0,1.75,1.5,0.75,0.5,0.25,2.5,1.75,0.75,1.0,0.45,-1.73,0.89,255.08,-7.0,9.9
6.28,0.75,0.5,0.0,1.0,3.5,0.75,0.0,0.0,0.25,0.5,0.75,0.25,1.5,-0.17,-0.48,-0.48,168.47,0.3,11.8,2.25,1.5,1.5,2.0,1.75,1.5,0.75,0.5,0.25,2.5,1.5,0.75,0.25,0.14,-1.67,0.83,250.06,-8.0,18.0
6.3,0.5,0.5,0.0,0.75,3.75,0.75,0.0,0.0,0.25,0.25,0.75,0.5,1.5,-0.11,-0.48,-0.42,157.95,-0.3,9.0,2.25,1.25,1.5,2.0,1.75,1.5,0.75,0.5,0.25,2.5,1.0,0.75,1.0,0.02,-1.55,0.7,243.41,-6.8,13.6
6.32,0.75,0.5,0.0,1.75,3.0,1.0,0.0,0.25,0.25,0.75,0.75,0.5,1.5,-0.11,-0.36,-0.42,156.99,0.6,7.7,2.0,1.5,1.5,2.0,1.75,1.5,0.5,0.5,0.25,2.5,1.25,0.75,0.75,-0.05,-1.42,0.7,239.73,-6.7,14.2
6.34,0.75,0.5,0.0,1.0,3.75,1.0,0.0,0.25,0.25,0.75,1.0,0.5,1.5,-0.11,-0.36,-0.42,160.36,-0.5,6.0,2.25,1.5,1.5,2.0,1.5,1.5,0.5,0.5,0.25,2.5,1.5,0.75,0.75,0.14,-1.36,0.83,238.32,-7.3,13.4
6.36,0.75,0.5,0.0,0.75,3.75,0.0,0.0,0.25,0.25,0.5,1.0,0.5,1.5,-0.17,-0.23,-0.17,159.94,1.4,4.1,2.25,1.25,1.5,2.0,1.75,1.5,0.5,0.5,0.25,2.5,1.5,1.0,0.75,0.58,-2.17,0.95,238.63,-7.1,11.0
6.38,0.75,0.5,0.0,1.25,3.75,0.25,0.0,0.25,0.25,0.5,1.0,1.0,1.5,-0.23,-0.05,0.02,162.67,1.9,2.3,1.25,0.5,1.5,2.0,1.75,1.5,0.25,0.25,0.0,2.5,0.5,0.75,0.0,1.45,-3.11,1.2,222.36,-5.8,17.3
6.4,1.25,0.5,0.0,1.0,3.75,0.0,0.0,0.5,0.5,0.75,1.0,1.0,1.5,-0.42,0.08,0.08,167.02,2.8,0.9,2.25,1.5,1.5,2.0,1.75,1.5,0.5,0.25,0.25,2.5,1.75,1.0,1.0,1.83,-3.3,1.39,225.83,-7.3,10.1
6.42,1.75,0.5,0.0,1.0,3.75,0.0,0.0,0.75,0.5,1.0,0.75,1.0,1.5,-0.55,0.08,-0.05,175.91,3.1,3.5,2.25,1.5,1.5,2.0,1.75,1.5,0.75,0.5,0.5,2.5,2.5,1.0,0.75,1.83,-3.23,1.14,233.06,-7.6,7.2
6.44,1.75,0.5,0.0,1.5,3.75,0.0,0.0,0.5,0.5,1.0,1.25,0.75,1.5,-0.48,0.08,-0.17,186.06,4.1,5.7,2.25,1.25,1.25,2.0,1.5,1.5,0.25,0.0,0.5,2.5,1.5,0.75,0.5,1.95,-2.55,0.89,234.87,-7.7,14.0
6.46,1.75,0.5,0.0,1.5,3.75,0.0,0.0,0.75,0.5,0.25,1.0,1.0,1.5,-0.55,-0.05,-0.05,192.76,4.9,8.8,2.25,1.5,1.5,2.0,1.75,1.5,0.0,0.25,0.5,1.75,0.0,0.25,0.0,1.58,-1.98,0.58,225.27,-9.3,40.2
6.48,1.75,0.5,0.0,1.0,3.75,0.0,0.0,1.0,0.5,0.5,1.0,1.25,1.5,-0.67,-0.48,0.08,196.89,3.6,2.1,2.5,1.25,1.5,2.0,1.75,0.5,0.5,0.25,0.0,0.5,1.25,0.75,0.0,1.2,-1.42,0.45,211.68,-15.0,37.9
6.5,1.75,0.5,0.0,0.75,3.75,0.0,0.0,0.5,0.5,0.75,1.0,1.0,1.5,-0.67,-0.73,0.27,195.27,3.7,3.3,2.25,1.25,1.5,2.0,2.25,1.5,0.0,0.0,0.5,2.5,0.0,0.75,0.75,0.77,-0.86,0.27,209.62,-6.8,23.2
6.52,1.75,0.5,0.0,1.0,3.75,0.25,0.0,0.5,0.25,0.75,1.0,1.0,1.5,-0.61,-1.05,0.33,194.03,3.3,5.8,2.25,0.25,0.0,0.25,1.25,0.5,0.0,0.0,0.0,1.0,0.25,0.0,0.25,0.27,-0.42,0.14,168.52,-8.1,36.0
6.54,1.75,0.5,0.0,1.0,3.75,0.0,0.0,1.0,0.25,0.75,1.0,1.0,1.5,-0.36,-1.23,0.39,192.63,3.0,3.6,2.5,1.5,1.5,2.0,1.75,1.5,0.75,0.25,0.5,1.0,1.25,0.0,1.0,-0.05,-0.23,0.08,179.23,-10.0,29.7
6.56,1.75,0.5,0.0,1.5,3.75,0.0,0.0,1.0,0.25,0.75,0.75,0.75,1.5,-0.23,-1.3,0.52,192.94,3.3,9.4,2.25,1.5,1.5,2.0,2.5,1.5,0.5,0.0,0.5,2.5,1.25,0.75,0.75,-0.3,-0.17,0.08,195.38,-7.3,18.1
6.58,1.75,0.5,0.0,1.5,3.75,0.0,0.0,1.5,0.25,0.75,1.0,1.25,1.5,-0.17,-1.48,0.7,198.67,2.9,2.1,2.25,1.25,1.5,2.0,1.75,1.5,0.75,0.5,0.5,2.5,1.5,0.75,0.75,-0.3,-0.11,0.08,221.24,-7.3,12.2
6.6,1.75,0.5,0.25,1.0,3.75,0.5,0.0,1.5,0.25,0.75,0.75,0.25,1.5,-0.23,-1.73,1.02,200.36,1.6,12.0,2.25,1.5,1.5,2.0,1.75,1.5,0.75,0.25,0.5,2.5,0.0,0.75,0.0,-0.23,-0.05,0.08,228.03,-8.6,29.2
6.62,1.75,0.5,0.0,0.75,3.75,0.25,0.0,1.5,0.25,1.0,0.75,0.5,1.5,-0.23,-2.42,1.08,198.05,0.8,5.7,2.5,1.5,1.5,2.0,1.75,1.5,0.75,0.5,0.5,2.5,1.5,0.75,1.0,-0.17,-0.11,0.08,243.18,-7.5,12.8
6.64,1.75,0.5,0.0,1.0,3.75,0.0,0.0,1.5,0.25,0.75,1.0,0.5,1.5,-0.67,-3.67,1.77,194.56,2.0,6.3,2.25,1.25,1.5,2.0,1.75,1.5,0.75,0.25,0.5,2.5,2.0,0.75,0.75,-0.05,-0.17,0.02,243.49,-7.8,10.5
6.66,1.75,0.5,0.0,1.0,3.75,0.25,0.0,0.75,0.25,1.0,1.0,0.75,1.5,-1.17,-3.61,1.64,191.98,2.5,5.6,2.5,1.25,1.5,2.0,2.5,1.5,0.75,0.5,0.5,2.5,1.25,0.75,0.5,0.14,-0.23,0.08,250.48,-7.4,18.2
6.68,1.75,0.5,0.0,0.75,3.75,0.0,0.0,0.5,0.25,0.75,1.0,0.75,1.5,-0.8,-3.3,1.33,186.08,3.4,6.5,2.25,1.5,1.5,2.0,1.75,1.5,0.5,0.25,0.5,2.5,1.0,0.75,1.0,0.33,-0.36,0.14,253.93,-7.2,14.8
6.7,1.75,0.5,0.0,1.5,3.75,1.0,0.0,0.75,0.25,0.5,1.0,1.0,1.5,-0.67,-2.73,1.2,191.24,2.5,9.8,2.25,1.25,1.5,2.0,1.75,1.5,0.75,0.5,0.5,2.5,1.5,0.75,0.5,0.45,-0.55,0.2,255.09,-7.6,14.0
6.72,1.75,0.5,0.0,1.25,3.5,1.0,0.0,0.75,0.25,0.5,0.75,0.5,1.5,-0.55,-1.98,0.95,190.72,1.9,14.1,2.25,1.5,1.5,2.0,1.75,1.5,0.75,0.25,0.5,2.25,1.5,0.75,0.75,0.58,-0.67,0.33,252.28,-8.1,15.5
6.74,1.25,0.5,0.0,1.5,3.75,1.0,0.0,0.5,0.25,0.5,1.0,0.5,1.5,-0.42,-1.48,0.64,191.75,1.4,12.2,1.25,1.25,0.5,2.0,1.25,1.5,0.0,0.25,0.5,2.5,0.0,0.75,0.0,0.64,-0.8,0.45,229.39,-3.7,18.5
6.76,1.25,0.25,0.25,1.5,3.75,1.0,0.25,0.5,0.25,0.5,1.0,0.5,1.25,-0.3,-0.86,0.33,189.18,2.6,14.1,2.25,1.5,1.5,2.0,1.75,1.5,0.75,0.25,0.5,2.25,0.5,0.75,0.75,0.77,-0.92,0.52,227.66,-7.9,21.0
6.78,1.25,0.5,0.25,1.5,3.75,1.0,0.0,0.5,0.25,0.25,1.0,0.5,1.5,-0.11,-0.55,0.14,188.89,2.5,14.9,2.25,0.5,1.5,2.0,1.75,1.75,0.75,0.25,0.5,2.5,0.75,0.75,0.75,0.89,-0.86,0.52,216.1,-6.8,13.1
6.8,1.0,0.5,0.0,1.25,3.75,1.0,0.0,0.5,0.25,0.5,1.0,1.0,1.5,-0.05,-0.3,-0.05,186.9,0.8,5.0,2.75,1.25,1.5,2.0,1.75,1.5,0.75,0.25,0.5,2.5,1.5,0.75,1.0,0.89,-0.8,0.58,227.76,-8.1,13.4
6.82,1.0,0.5,0.0,1.0,3.75,1.0,0.25,0.5,0.25,0.5,1.0,0.75,1.5,0.02,-0.17,-0.05,184.76,0.6,6.4,2.25,1.5,1.5,2.25,1.75,1.5,0.75,0.25,0.5,2.5,1.25,0.75,0.75,0.64,-0.73,0.45,235.4,-7.9,16.1
6.84,1.5,0.5,0.0,1.25,3.75,1.0,0.25,0.5,0.25,0.25,1.0,0.25,1.5,0.02,-0.11,-0.05,184.67,2.2,17.2,2.25,1.5,1.5,2.0,2.25,1.5,0.5,0.75,0.5,2.5,1.5,0.75,0.75,0.39,-0.42,0.33,247.44,-6.6,13.9
6.86,1.75,0.5,0.0,1.0,3.75,1.0,0.25,0.5,0.25,0.25,1.0,0.25,1.5,0.02,-0.11,0.02,183.94,2.5,17.9,2.25,1.0,1.5,2.0,1.75,1.5,0.75,0.75,0.5,2.5,1.0,0.75,0.75,0.2,-0.05,0.27,245.06,-6.8,12.6
6.88,1.25,0.5,0.0,1.0,3.75,1.0,0.25,0.25,0.25,0.5,0.75,0.75,1.5,0.02,-0.11,0.08,182.15,1.4,10.7,2.25,1.5,1.5,2.0,1.75,1.5,0.5,0.25,0.5,2.5,1.0,0.75,0.75,0.08,0.2,0.39,244.12,-7.5,16.7
6.9,1.75,0.5,0.0,1.25,3.75,1.0,0.25,0.5,0.25,0.5,1.0,0.5,1.5,0.02,-0.05,0.02,185.46,2.6,14.5,2.25,1.25,1.5,2.0,1.75,1.5,0.5,0.5,0.5,2.25,1.5,0.75,0.75,0.08,-0.11,0.64,242.03,-7.5,13.4
6.92,1.0,0.25,0.25,1.5,3.0,0.75,0.25,0.25,0.25,0.5,1.0,0.25,1.5,-0.11,-0.11,0.08,179.03,2.8,9.9,2.25,1.25,1.5,2.0,1.75,1.5,0.5,0.25,0.25,2.25,1.25,0.75,1.25,0.08,-0.3,0.83,241.16,-7.1,12.4
6.94,1.5,0.5,0.0,1.25,3.75,1.0,0.25,0.5,0.25,0.5,1.0,0.75,1.5,-0.36,-0.42,0.14,181.99,2.1,10.6,2.0,1.75,1.5,2.0,1.75,1.5,0.75,0.25,0.0,2.0,0.0,0.75,0.0,0.58,-0.48,0.89,231.82,-8.9,35.4
6.96,1.75,0.5,0.0,1.25,3.5,1.0,0.25,0.25,0.25,0.5,1.0,0.5,1.5,-0.48,-0.61,0.45,182.91,3.1,14.6,2.25,1.5,1.5,2.0,0.25,1.75,0.0,0.25,0.5,1.0,0.25,0.0,1.0,1.95,-1.86,1.33,215.42,-10.1,33.5
6.98,1.25,0.5,0.0,1.75,3.75,1.0,0.25,0.5,0.25,0.5,1.0,0.25,1.5,-0.55,-0.8,0.52,187.63,1.9,15.6,2.25,1.25,0.25,2.0,1.5,1.5,0.0,0.0,0.75,2.25,0.0,0.0,0.5,1.95,-0.73,0.7,200.44,-5.1,28.7
7.0,1.5,0.5,0.0,1.75,3.5,1.0,0.25,0.25,0.25,0.5,1.0,0.5,1.5,-0.73,-1.11,0.52,189.13,3.1,14.9,2.25,1.5,0.5,2.0,1.5,1.5,0.0,0.25,0.5,2.5,0.0,0.5,0.0,1.83,0.77,-0.23,188.39,-5.9,28.9
7.02,1.75,0.5,0.0,1.5,3.75,1.0,0.25,0.25,0.25,0.25,0.75,0.25,1.5,-0.92,-1.3,0.77,189.98,3.4,22.5,2.25,1.75,1.5,2.0,1.75,1.5,0.75,0.5,0.5,0.75,1.0,0.0,0.75,1.95,0.52,-0.11,193.79,-10.0,34.6
7.04,1.75,0.5,0.25,1.75,3.75,1.0,0.25,0.25,0.25,0.25,1.0,0.25,1.5,-0.98,-1.42,0.83,192.42,4.5,22.2,2.25,1.25,0.0,2.25,0.5,1.5,0.0,0.0,0.5,2.25,0.0,0.5,0.0,1.52,-0.11,0.02,183.08,-6.4,27.7
7.06,1.75,0.5,0.0,1.5,3.75,1.0,0.0,0.25,0.25,0.5,1.0,0.5,1.5,-0.98,-1.42,0.89,193.39,3.0,16.3,2.25,1.25,1.5,2.0,1.75,0.25,0.75,0.0,0.0,0.75,0.0,0.0,0.0,0.64,-0.11,0.33,174.65,-16.6,59.4
7.08,1.75,0.5,0.0,1.0,3.0,1.0,0.0,0.25,0.25,0.75,0.75,0.25,1.5,-0.8,-1.17,0.58,187.15,2.1,14.2,0.5,0.25,0.0,1.0,1.25,0.25,0.0,0.0,0.0,0.5,0.0,0.0,0.0,-0.11,-0.23,0.45,128.71,-4.9,45.3
7.1,1.75,0.5,0.25,1.75,2.5,1.0,0.25,0.5,0.25,0.5,0.75,0.5,1.5,-0.48,-0.73,0.27,184.0,4.5,14.5,2.0,1.5,1.5,2.0,1.75,1.5,0.75,0.25,0.5,2.5,0.75,0.75,0.75,-0.36,-0.3,0.58,151.86,-7.2,17.0
7.12,1.75,0.5,0.0,1.75,3.75,1.0,0.25,0.5,0.25,0.5,1.0,0.25,1.5,-0.3,-0.23,0.33,187.03,3.0,18.5,1.75,0.25,1.5,0.5,2.25,0.25,0.0,0.0,0.0,0.5,0.0,0.0,0.0,-0.11,-0.17,0.58,133.14,-14.6,57.4
7.14,1.75,0.5,0.0,1.75,3.75,1.0,0.0,0.5,0.25,0.5,1.0,0.5,1.5,-0.23,0.02,0.33,192.03,2.9,16.0,0.5,0.25,0.0,0.5,1.0,0.0,0.0,0.0,0.0,0.5,0.25,0.0,0.0,0.33,0.02,0.58,109.74,-6.2,34.1
7.16,1.25,0.5,0.0,1.5,3.75,1.0,0.25,0.5,0.25,0.5,0.75,0.5,1.5,-0.3,-0.11,0.45,193.65,1.5,14.0,0.5,0.25,0.0,0.5,1.25,0.0,0.0,0.0,0.0,0.75,0.0,0.0,0.0,0.77,0.27,0.39,72.81,-3.4,35.4
7.18,0.75,0.5,0.0,1.75,3.75,1.0,0.25,0.5,0.25,0.25,0.75,0.25,1.5,-0.55,-0.55,0.58,189.12,0.8,16.2,0.75,0.25,0.0,0.5,1.5,0.0,0.0,0.0,0.0,0.75,0.0,0.0,0.0,1.02,0.45,0.39,52.93,-4.8,40.4
7.2,0.75,0.5,0.0,1.5,3.5,1.0,0.25,0.5,0.25,0.25,0.75,0.25,1.5,-1.17,-1.73,0.89,181.64,0.5,14.3,2.0,1.25,0.25,2.0,1.5,1.5,0.5,0.25,0.75,2.5,0.25,0.75,0.75,1.08,0.33,0.52,92.21,-4.3,12.9
7.22,1.75,0.5,0.0,1.5,3.75,1.0,0.25,0.5,0.25,0.5,1.0,0.5,1.5,-1.48,-2.05,0.89,183.65,2.9,15.3,2.25,1.25,1.5,2.0,1.75,1.5,0.75,0.0,0.0,0.5,0.25,0.0,0.5,0.89,0.27,0.52,131.04,-12.0,49.8
7.24,1.0,0.25,0.0,1.25,3.75,1.0,0.0,0.5,0.25,0.5,1.0,0.75,1.5,-1.11,-0.11,0.2,182.11,0.4,5.3,0.5,0.25,0.5,1.0,1.25,0.5,0.0,0.0,0.0,0.5,0.0,0.0,0.0,0.77,0.27,0.45,132.4,-7.1,46.5
7.26,1.25,0.5,0.0,1.75,3.75,1.0,0.25,0.5,0.25,0.5,1.0,0.5,1.5,-0.92,0.2,0.2,187.69,2.0,13.2,2.5,1.25,0.5,2.0,1.0,1.5,0.0,0.0,0.0,0.5,0.0,0.75,0.0,0.64,0.2,0.33,141.42,-11.5,49.6
7.28,1.25,0.5,0.0,1.75,3.75,1.0,0.25,0.75,0.25,0.5,1.0,0.5,1.5,-0.55,0.2,0.33,191.16,1.7,12.3,0.75,0.75,1.5,0.5,1.75,0.25,0.75,0.25,0.0,0.5,1.5,0.0,0.0,0.27,0.33,0.33,136.54,-12.6,28.5
7.3,0.75,0.5,0.0,1.5,3.75,1.0,0.25,0.25,0.25,0.25,1.0,0.5,1.5,-0.48,-0.05,0.64,189.24,1.2,11.9,1.25,1.0,0.5,0.25,1.0,0.0,0.0,0.0,0.0,2.5,0.75,1.0,0.0,5.64,2.14,3.95,133.92,-6.1,-3.3
7.32,0.75,0.5,0.0,1.75,3.5,1.0,0.25,0.5,0.25,0.5,1.0,0.75,1.5,-0.48,-0.42,0.83,187.75,1.1,6.8,0.5,1.25,1.5,2.0,0.25,1.5,0.0,0.0,0.0,0.75,0.0,0.75,1.25,-0.17,0.83,0.52,139.8,-7.2,17.4
7.34,1.0,0.5,0.0,1.75,3.5,1.0,0.25,0.5,0.25,0.5,1.0,0.5,1.5,-0.36,-0.55,0.7,185.34,1.5,10.8,2.25,1.5,1.5,2.0,2.25,0.0,0.0,0.0,0.0,2.75,1.5,0.0,0.0,0.39,0.27,0.7,167.19,-10.7,28.1
7.36,1.5,0.5,0.0,1.25,3.75,1.0,0.25,0.25,0.25,0.5,1.0,0.5,1.5,-0.48,-0.55,0.64,185.41,2.4,14.0,2.25,1.25,1.5,1.75,1.5,0.0,0.75,0.0,0.0,2.5,0.75,0.5,0.75,0.45,0.45,0.77,192.93,-11.1,18.9
7.38,1.25,0.5,0.0,1.5,3.75,1.0,0.25,0.5,0.25,0.5,0.75,0.75,1.5,-0.48,-0.17,0.52,187.27,1.7,11.6,2.25,1.5,1.5,2.0,1.75,1.5,1.0,0.5,0.0,0.75,1.25,0.0,0.75,0.39,0.33,0.64,214.8,-10.1,34.0
7.4,1.0,0.25,0.75,0.75,2.25,1.0,0.25,0.5,0.25,0.25,1.0,0.5,1.5,-0.55,0.08,0.52,178.2,3.5,3.7,0.75,0.25,0.75,2.0,0.0,0.0,0.25,0.25,0.0,1.5,0.25,0.5,0.25,0.33,0.39,0.64,187.47,-10.9,6.2
7.42,1.25,0.5,0.25,1.75,2.25,1.0,0.25,0.5,0.25,0.5,1.0,0.5,1.5,-0.86,-0.11,0.58,174.33,3.6,8.3,2.75,0.75,1.25,2.25,1.75,1.5,0.75,0.5,0.0,1.75,1.0,0.75,1.0,0.39,0.33,0.7,197.97,-8.1,18.3
7.44,1.25,0.5,0.0,1.75,3.75,1.0,0.25,0.75,0.25,0.25,1.0,0.75,1.5,-0.98,0.02,0.39,177.82,2.1,11.7,2.25,1.5,1.5,2.0,1.5,1.5,0.75,0.5,0.5,2.5,1.75,0.75,1.0,0.33,0.33,0.7,209.74,-7.3,9.8
7.46,1.25,0.5,0.0,1.75,3.75,0.75,0.5,0.75,0.25,0.5,1.0,1.0,1.5,-0.92,0.27,0.39,186.12,2.6,7.6,2.25,1.5,1.5,2.25,1.5,1.5,0.75,0.0,0.75,2.0,0.0,0.75,0.5,0.33,0.33,0.7,231.03,-9.5,28.0
7.48,1.75,0.5,0.0,1.75,3.75,1.0,0.25,0.5,0.25,0.5,0.75,0.75,1.5,-0.92,0.2,0.52,195.0,3.1,15.5,0.75,0.25,0.0,1.5,1.25,1.0,0.25,0.25,0.0,0.75,0.5,0.0,0.0,0.33,0.27,0.83,203.67,-3.3,29.8
7.5,1.75,0.5,0.0,1.75,3.75,1.0,0.25,0.5,0.25,0.5,1.0,1.0,1.5,-0.92,0.14,0.52,202.21,3.3,11.7,2.25,1.5,0.0,2.5,1.5,1.75,0.25,0.75,0.75,2.25,1.5,1.0,1.25,0.33,0.27,0.89,212.31,-3.8,4.3
7.52,1.75,0.5,0.0,1.75,3.75,1.0,0.5,0.25,0.25,0.5,0.75,1.0,1.5,-0.92,0.33,0.39,205.2,3.8,14.3,2.25,1.5,1.5,2.25,2.5,1.5,1.0,0.25,0.5,2.5,1.25,0.75,1.0,0.33,0.27,0.89,225.29,-7.2,16.2
