time,left pressure 0[N/cm虏],left pressure 1[N/cm虏],left pressure 2[N/cm虏],left pressure 3[N/cm虏],left pressure 4[N/cm虏],left pressure 5[N/cm虏],left pressure 6[N/cm虏],left pressure 7[N/cm虏],left pressure 8[N/cm虏],left pressure 9[N/cm虏],left pressure 10[N/cm虏],left pressure 11[N/cm虏],left pressure 12[N/cm虏],left acceleration X[g],left acceleration Y[g],left acceleration Z[g],left total force[N],left center of pressure X[mm],left center of pressure Y[mm],right pressure 0[N/cm虏],right pressure 1[N/cm虏],right pressure 2[N/cm虏],right pressure 3[N/cm虏],right pressure 4[N/cm虏],right pressure 5[N/cm虏],right pressure 6[N/cm虏],right pressure 7[N/cm虏],right pressure 8[N/cm虏],right pressure 9[N/cm虏],right pressure 10[N/cm虏],right pressure 11[N/cm虏],right pressure 12[N/cm虏],right acceleration X[g],right acceleration Y[g],right acceleration Z[g],right total force[N],right center of pressure X[mm],right center of pressure Y[mm]
0.02,6.0,2.25,4.75,5.25,8.5,8.25,6.75,7.25,5.75,5.0,4.75,3.0,3.5,-0.11,-0.05,0.95,1161.5,4.3,4.7,10.0,3.0,7.5,8.75,7.75,4.5,1.75,2.0,1.25,1.75,2.75,0.5,1.25,-0.23,0.2,1.02,708.26,-13.0,41.9
0.04,6.0,2.25,4.75,5.5,8.5,8.25,6.75,7.25,5.75,5.0,4.75,3.25,3.25,-0.11,-0.05,0.95,1146.84,4.4,5.0,9.25,2.25,8.0,9.0,10.0,5.75,3.75,2.0,1.25,0.5,1.5,0.0,0.5,-0.11,0.2,1.2,883.48,-12.9,49.8
0.06,6.0,2.5,4.75,6.0,8.75,8.5,6.75,7.25,5.5,5.25,4.75,3.0,3.0,-0.11,-0.05,0.95,1146.64,4.4,6.7,10.5,3.5,8.0,11.5,10.0,7.0,4.25,2.25,2.0,0.25,1.5,0.0,1.25,0.27,0.2,1.33,1075.89,-12.5,48.8
0.08,5.75,2.25,4.75,5.25,9.0,8.75,6.75,7.25,5.5,4.75,4.25,3.0,3.0,-0.11,-0.05,0.95,1140.29,4.1,6.9,10.0,3.75,8.75,12.0,11.0,7.5,5.75,3.25,2.75,2.0,2.25,0.75,1.25,0.2,0.14,1.08,1253.0,-11.2,40.3
0.1,5.75,2.25,4.75,6.25,9.0,9.0,6.75,7.25,5.5,3.75,2.25,3.0,2.75,-0.11,-0.05,0.95,1122.59,4.4,12.0,11.0,4.0,9.0,12.0,11.5,7.75,6.25,3.0,3.0,2.0,2.75,0.75,1.5,0.14,0.08,1.08,1382.64,-11.4,40.0
0.12,5.75,2.0,4.75,6.25,9.0,9.0,6.75,7.25,5.25,5.0,4.0,3.0,2.75,-0.11,-0.05,0.95,1117.34,4.1,8.1,11.0,3.5,9.25,11.5,12.5,7.75,6.75,3.5,3.25,1.75,2.5,0.75,1.5,0.14,0.08,1.08,1466.44,-11.2,39.7
0.14,5.5,1.75,4.75,6.0,9.0,9.0,6.5,7.25,4.75,4.75,4.0,2.75,3.0,-0.11,-0.05,0.95,1104.5,3.8,7.8,10.5,3.75,9.25,12.5,13.0,7.75,6.75,3.5,3.25,2.25,2.75,1.0,1.5,0.14,0.08,1.08,1524.56,-10.9,38.3
0.16,5.25,2.0,4.5,4.75,8.75,9.0,6.0,7.25,4.5,4.5,3.75,2.75,2.75,-0.11,-0.05,1.02,1074.85,3.3,7.6,10.0,3.75,9.25,12.0,12.0,7.75,6.75,3.5,3.0,2.25,2.5,0.75,1.25,0.14,0.08,1.02,1517.47,-11.0,39.2
0.18,3.75,2.0,4.5,4.75,8.5,8.75,5.75,7.25,3.0,3.25,2.75,1.75,2.75,-0.17,0.02,1.02,997.06,2.6,11.5,9.0,3.25,9.25,12.0,11.5,7.75,6.25,3.25,2.75,2.0,2.0,0.75,0.5,0.14,0.08,0.95,1462.74,-11.2,41.3
0.2,2.0,1.75,2.25,3.5,6.75,7.25,4.0,6.25,2.0,2.0,1.25,1.25,0.75,-0.17,0.02,1.02,808.53,0.5,16.0,10.0,3.0,8.75,12.0,11.5,7.25,6.0,3.25,2.75,1.75,2.75,0.75,1.5,0.08,0.08,0.95,1412.7,-11.2,38.8
0.22,1.75,0.75,1.25,1.75,5.5,6.75,3.0,6.0,1.5,1.5,0.0,0.0,0.5,-0.17,0.08,1.02,588.53,-2.9,19.1,9.75,3.0,8.75,12.0,11.5,7.25,5.25,3.25,2.25,1.75,2.5,0.75,1.5,0.08,0.14,0.89,1353.78,-11.0,39.6
0.24,1.25,1.5,0.5,3.5,5.25,5.25,1.5,5.75,1.25,1.5,0.0,0.0,0.5,-0.11,0.08,1.08,417.51,-2.8,21.1,9.75,3.0,8.5,12.0,11.5,7.0,5.0,2.0,1.75,2.0,2.75,0.75,1.25,0.08,0.14,0.89,1291.36,-11.5,41.3
0.26,0.25,0.5,0.25,1.75,5.0,4.25,0.75,4.0,1.0,1.5,0.0,1.0,0.5,-0.11,0.14,1.27,295.06,-5.7,8.5,9.75,3.0,8.5,12.0,12.0,7.0,4.75,3.0,1.75,1.75,2.75,0.75,1.25,0.02,0.14,0.89,1241.96,-11.0,40.7
0.28,1.75,1.75,0.25,2.5,5.5,4.5,0.75,4.0,1.25,2.0,0.5,0.5,0.75,-1.67,2.89,1.02,256.49,-2.1,17.9,9.75,3.0,8.5,12.0,11.5,7.0,4.25,2.75,1.75,1.75,2.75,0.5,1.5,0.02,0.14,0.89,1203.37,-11.1,40.9
0.3,0.0,0.5,0.0,1.75,3.75,3.5,0.75,2.0,1.0,1.5,0.25,0.0,0.5,0.83,1.83,1.27,195.69,-5.7,13.3,9.25,3.0,8.0,10.5,11.5,7.25,4.25,3.25,2.0,2.0,2.75,0.75,1.25,0.08,0.14,0.89,1155.45,-10.2,38.6
0.32,0.0,0.25,0.0,1.75,2.25,2.75,0.75,2.0,1.0,1.0,0.25,0.0,0.5,1.14,2.14,0.89,142.55,-5.1,8.3,9.0,3.0,8.25,10.5,11.5,6.75,3.75,2.0,1.5,0.25,2.75,0.0,1.5,0.08,0.14,0.89,1087.75,-11.6,45.3
0.34,0.0,0.25,0.0,1.0,0.75,3.0,0.5,2.0,1.0,0.5,0.25,0.0,0.5,0.7,2.27,0.58,72.06,-7.6,0.7,8.25,2.25,7.5,10.5,10.5,7.0,4.25,2.5,2.0,2.0,1.5,0.0,0.75,0.08,0.14,0.95,1022.15,-10.5,43.0
0.36,0.0,0.25,0.0,1.75,0.75,2.5,0.5,2.0,1.0,1.0,0.25,0.25,0.5,-0.17,2.39,0.83,37.19,-5.1,-2.6,9.0,3.25,8.25,12.5,11.5,7.75,4.75,3.5,2.0,2.0,2.5,0.5,1.25,0.08,0.14,0.89,1046.36,-10.2,39.9
0.38,0.0,0.5,0.0,1.5,0.75,2.0,0.25,2.0,1.0,1.0,0.25,0.25,0.25,-0.17,2.14,0.58,21.66,-4.6,-0.9,8.25,2.25,7.5,13.0,11.0,7.75,5.0,3.25,2.0,1.75,2.5,0.75,0.75,0.08,0.14,0.89,1061.52,-10.2,39.4
0.4,0.25,1.0,0.0,2.0,0.5,3.0,0.25,2.0,1.25,0.5,0.25,0.5,0.5,-0.67,1.64,1.08,48.07,-2.6,7.1,9.0,3.25,8.5,13.5,12.0,8.0,5.0,3.25,2.5,1.75,2.5,0.75,1.5,0.08,0.14,0.89,1146.38,-10.3,39.4
0.42,0.25,0.25,0.0,1.5,0.5,2.0,0.5,1.75,0.75,1.0,0.25,0.0,0.5,-0.67,1.14,1.27,66.99,-4.3,-0.6,9.0,3.25,8.5,13.5,12.5,8.0,5.25,3.25,2.75,1.75,2.75,0.75,1.25,0.14,0.08,0.95,1213.8,-10.3,39.3
0.44,0.0,0.5,0.0,0.75,0.5,1.75,0.25,1.75,0.75,0.5,0.25,0.25,0.5,-0.55,0.64,1.45,80.32,-6.0,-6.4,8.5,3.0,8.5,13.5,13.0,8.0,5.5,3.5,2.75,1.75,2.0,0.75,1.5,0.14,0.08,0.95,1270.09,-9.9,39.2
0.46,0.0,0.5,0.0,0.0,0.5,1.75,0.25,1.75,0.5,0.5,0.25,0.5,0.25,-0.42,0.45,1.52,74.15,-8.6,-12.7,8.25,3.25,8.5,13.5,13.0,8.25,5.5,3.75,2.75,2.25,2.75,1.0,1.5,0.14,0.08,0.95,1307.54,-9.5,36.5
0.48,0.0,0.5,0.0,0.0,0.5,1.75,0.25,1.75,0.75,1.75,0.25,1.25,0.5,-0.36,0.27,1.39,79.96,-7.7,-32.7,8.25,3.0,8.5,13.5,13.0,8.5,5.75,4.25,3.25,2.75,3.5,0.75,2.25,0.14,0.08,1.02,1345.64,-8.9,32.5
0.5,0.0,0.75,0.0,1.0,0.5,2.5,1.0,1.75,1.0,0.5,0.5,0.25,0.5,-0.3,0.14,1.27,95.66,-3.8,-0.2,7.75,3.0,8.25,13.0,13.0,8.5,5.75,4.75,3.25,3.25,2.75,1.0,2.0,0.14,0.08,0.95,1366.28,-8.3,31.7
0.52,0.0,0.5,0.0,0.0,0.0,0.5,0.25,1.5,0.25,0.5,0.25,0.5,0.5,-0.17,0.08,1.14,85.65,-6.6,-35.7,7.5,3.0,7.75,12.0,12.5,8.5,5.5,4.75,3.25,3.25,3.25,1.0,2.25,0.14,0.08,0.95,1367.81,-7.8,29.5
0.54,0.0,0.5,0.0,0.0,0.5,0.5,0.25,1.5,0.25,0.5,0.25,0.5,0.5,-0.17,-0.05,1.02,84.9,-6.2,-25.7,7.25,3.0,7.5,12.0,12.0,8.5,5.5,5.0,3.25,3.5,2.75,1.25,2.25,0.14,0.02,0.95,1356.52,-7.5,28.6
0.56,0.0,0.75,0.0,0.0,0.5,0.5,0.25,1.25,0.5,0.5,0.25,0.5,0.25,-0.23,-0.11,0.89,73.28,-3.5,-15.3,6.25,2.75,7.5,11.0,11.5,8.5,5.0,4.75,3.25,3.25,2.75,1.0,1.75,0.14,0.08,0.95,1313.43,-7.3,28.9
0.58,0.0,0.5,0.0,0.0,0.5,0.5,0.25,1.75,0.25,0.0,0.25,0.25,0.5,-0.3,-0.23,0.89,64.74,-6.5,-16.6,6.0,2.5,6.5,10.5,11.5,8.25,4.5,4.75,2.75,3.25,2.5,0.75,0.75,0.14,0.08,1.02,1222.13,-6.9,31.3
0.6,0.0,0.5,0.0,0.0,0.5,0.75,0.25,1.25,0.25,0.5,0.25,0.0,0.25,-0.42,-0.42,0.95,56.84,-7.8,-7.4,4.5,2.25,6.25,8.75,10.5,8.0,3.75,4.5,2.0,2.5,3.25,0.75,1.0,0.08,0.08,1.02,1082.87,-6.2,28.6
0.62,0.0,0.75,0.0,0.0,0.5,0.75,0.25,1.5,0.25,0.5,0.25,0.0,0.5,-0.55,-0.67,1.02,60.13,-7.5,-8.7,3.5,0.0,5.0,5.25,8.75,7.0,3.0,0.0,1.0,0.0,2.75,0.75,1.25,-0.05,0.14,1.02,840.21,-7.8,34.3
0.64,0.0,0.5,0.0,0.0,0.5,0.75,0.25,1.5,0.25,0.5,0.25,0.0,0.25,-0.55,-0.92,1.02,59.99,-8.2,-9.1,1.75,0.5,2.5,2.75,7.75,6.25,1.75,2.0,1.0,1.5,0.25,0.5,0.0,-0.17,0.27,1.14,584.66,-1.2,32.8
0.66,0.0,0.5,0.0,0.0,0.5,0.5,0.0,1.75,0.25,0.5,0.25,0.0,0.25,-0.61,-1.11,1.02,62.27,-9.0,-13.9,0.75,1.25,2.0,2.25,6.75,6.0,1.75,2.5,0.5,1.75,1.0,0.25,0.0,0.02,0.39,1.08,393.64,0.7,27.8
0.68,0.0,0.5,0.0,0.0,0.0,0.75,0.0,1.75,0.25,0.75,0.25,0.25,0.25,-0.48,-1.23,1.02,62.93,-9.8,-28.1,1.0,0.75,2.0,0.25,6.0,4.75,1.5,2.25,0.75,1.75,2.25,0.25,0.5,0.33,2.27,1.02,286.36,0.5,14.9
0.7,0.0,0.5,0.0,0.25,0.5,0.5,0.0,1.5,0.25,0.5,0.25,0.0,0.5,-0.48,-1.23,0.77,64.26,-7.4,-13.8,1.5,1.0,1.75,1.25,5.75,1.5,1.25,2.0,0.75,1.75,2.0,0.5,0.5,-1.23,2.52,1.2,224.13,-3.9,16.1
0.72,0.5,1.0,0.0,0.75,0.5,0.25,0.0,1.75,0.25,0.75,0.25,0.25,0.5,-0.67,-1.3,1.02,75.94,-0.7,-0.5,1.5,1.0,1.25,2.5,3.75,2.75,1.0,1.75,0.75,1.75,2.25,0.25,0.75,-1.73,1.45,1.7,188.64,-3.0,14.0
0.74,1.75,0.75,0.0,1.75,0.5,2.0,0.0,2.0,0.25,0.75,0.0,0.75,0.5,-0.3,0.27,1.52,112.13,0.9,14.2,1.5,0.0,0.75,1.0,4.5,2.75,1.0,1.75,0.75,1.5,1.75,0.25,0.5,-0.3,1.95,1.02,159.14,-0.2,11.3
0.76,3.75,1.75,0.75,1.75,2.25,3.0,0.0,3.25,0.25,1.0,1.5,0.25,0.5,-0.98,0.27,0.45,189.81,3.8,25.2,1.5,0.0,0.25,1.25,1.0,2.5,1.25,2.25,0.75,1.5,2.75,0.5,0.25,0.45,1.89,0.58,125.61,-1.3,-8.3
0.78,6.25,1.25,1.25,4.5,3.75,3.0,0.0,2.25,0.75,1.25,0.25,0.75,0.5,-0.42,0.14,2.08,272.72,8.6,38.8,1.5,0.5,0.0,1.25,1.25,2.5,1.0,1.5,0.75,1.75,2.25,0.5,0.0,0.77,2.08,0.02,103.65,-1.3,-0.2
0.8,8.5,3.5,3.5,6.5,7.5,6.5,0.25,3.25,1.25,1.75,0.25,1.25,0.75,-0.11,0.33,1.52,446.12,7.6,41.4,1.5,0.0,0.0,2.5,1.25,2.25,0.75,1.5,0.75,1.75,2.75,0.25,1.0,0.45,1.39,0.64,108.07,-1.6,-7.0
0.82,7.75,2.0,4.75,6.5,8.0,7.25,0.5,4.0,1.5,1.75,1.5,1.25,0.5,0.02,0.33,1.39,640.53,7.2,35.4,1.5,0.5,0.25,2.5,1.25,2.25,1.0,1.5,0.75,1.5,2.5,0.25,0.5,-0.11,1.08,1.27,127.14,-3.4,3.2
0.84,9.25,3.5,4.25,9.75,12.5,8.25,2.5,4.5,1.25,0.0,1.5,1.0,0.5,0.08,0.2,1.27,893.01,7.8,44.6,1.5,0.75,0.0,2.5,3.0,2.25,1.0,1.75,0.75,1.75,2.25,0.5,0.75,0.14,1.08,1.02,169.21,-1.5,5.6
0.86,9.5,4.75,5.75,9.75,11.5,9.75,4.5,5.25,2.25,0.5,1.5,1.25,0.5,-0.17,0.14,1.39,1123.34,8.2,41.9,1.5,0.75,0.0,2.5,3.25,2.25,1.0,1.75,0.75,1.75,2.25,0.5,0.25,0.27,0.83,1.08,208.01,-1.9,9.6
0.88,9.0,4.5,7.75,9.25,14.5,10.5,7.0,6.5,4.5,1.25,1.5,1.25,0.75,-0.23,-0.05,1.14,1367.79,7.7,36.7,1.5,0.5,0.0,2.5,3.25,1.75,0.5,1.5,0.75,1.75,2.5,0.5,0.75,0.27,0.58,1.2,227.77,-1.9,3.5
0.9,8.75,4.5,7.75,9.25,14.5,10.5,7.5,7.0,5.0,2.0,0.5,1.5,1.0,-0.23,-0.17,1.2,1502.01,7.2,34.9,1.25,0.5,0.0,2.5,3.25,2.0,0.75,1.0,0.75,1.5,2.5,0.75,1.25,0.39,0.39,1.2,235.81,-1.7,0.3
0.92,8.5,4.75,7.75,8.25,13.5,10.0,7.75,7.25,5.0,1.75,1.75,1.5,1.25,-0.11,-0.11,1.08,1581.16,7.4,32.2,1.5,0.0,0.0,2.5,3.0,2.25,0.75,1.5,0.75,1.5,1.75,0.5,1.25,0.39,0.2,1.2,238.82,-0.6,1.9
0.94,7.75,4.25,6.75,8.0,13.5,9.75,7.75,7.25,4.75,1.75,1.5,1.5,1.0,-0.11,-0.11,1.02,1580.65,6.8,31.7,1.5,0.0,0.0,2.25,3.0,2.25,1.0,1.75,0.75,1.5,2.25,0.5,1.0,0.39,0.14,1.14,240.77,-0.8,0.1
0.96,7.75,3.75,6.25,8.0,13.5,9.75,7.25,6.75,4.5,2.5,1.75,1.5,1.0,-0.11,-0.05,0.95,1538.72,6.4,30.3,1.25,0.5,0.0,2.0,3.0,2.0,0.75,1.75,0.5,1.75,2.5,0.5,1.25,0.33,0.02,1.08,242.81,-0.1,-2.8
0.98,7.25,3.75,6.25,7.25,12.5,9.75,7.25,6.25,4.0,2.0,2.0,1.5,0.75,-0.11,-0.05,0.95,1457.87,6.6,31.0,1.0,0.75,0.0,2.0,3.25,2.0,1.0,1.75,0.75,1.75,2.25,0.75,1.25,0.33,-0.17,1.14,249.53,-0.1,-2.6
1.0,7.0,3.5,5.75,7.5,11.5,9.0,6.5,6.25,3.75,2.0,1.5,1.5,0.75,-0.11,0.02,0.89,1359.52,6.5,31.0,1.25,0.75,0.0,2.0,3.0,2.0,1.0,1.25,0.75,1.5,1.75,0.5,1.25,0.39,-0.42,1.08,248.14,-1.0,3.6
1.02,6.25,2.25,4.75,6.5,9.25,8.5,5.75,5.25,3.75,2.0,0.5,1.5,0.0,-0.11,0.02,0.89,1178.98,6.4,31.6,1.25,0.75,0.0,2.0,3.0,1.75,1.0,1.5,0.5,1.5,2.5,0.5,1.25,0.45,-0.61,0.77,245.95,-1.3,-0.1
1.04,5.5,2.0,4.75,6.25,11.0,8.5,5.75,6.25,3.25,1.5,1.5,1.25,0.75,-0.11,0.02,0.89,1027.02,5.2,28.3,1.25,0.75,0.0,2.25,2.5,1.25,1.0,1.5,0.75,1.75,2.5,0.5,1.25,0.39,-0.86,0.58,240.22,-2.3,-3.6
1.06,5.25,2.75,4.0,6.25,9.25,9.0,5.0,5.75,3.75,3.5,1.25,2.25,0.75,-0.11,-0.05,0.95,926.32,4.2,22.1,1.5,0.75,0.0,2.5,3.0,0.25,0.75,1.0,0.75,1.0,2.0,0.25,1.25,0.08,-1.05,0.14,230.03,-5.3,7.3
1.08,5.25,3.5,4.5,6.25,9.75,9.0,5.0,6.25,4.75,4.25,1.75,2.75,0.75,-0.11,-0.05,0.95,904.57,4.3,19.2,1.75,0.75,0.75,2.5,3.0,2.0,1.0,1.25,0.75,1.0,2.0,0.5,1.25,1.2,-3.55,0.7,234.25,-4.4,11.1
1.1,5.0,3.5,4.25,6.25,9.25,9.0,5.0,7.0,5.0,5.0,4.0,3.0,2.75,-0.11,-0.05,0.95,940.24,3.4,9.1,5.25,1.5,2.0,3.25,3.5,2.0,1.25,1.75,0.75,0.0,2.0,0.0,0.75,-0.23,-2.98,0.64,266.63,-11.8,39.1
1.12,4.25,3.25,3.75,6.25,9.0,9.0,5.0,7.5,5.25,5.75,4.0,4.5,4.0,-0.11,-0.05,0.95,1005.17,2.3,1.2,7.75,1.25,2.75,0.0,3.75,1.5,1.5,0.25,0.75,0.0,0.75,0.0,0.25,1.83,1.14,0.45,284.66,-18.3,59.9
1.14,3.75,2.75,3.75,6.0,9.0,9.0,5.0,7.75,5.25,6.0,4.75,4.75,4.75,-0.11,-0.05,0.95,1069.55,1.7,-3.1,9.0,2.25,5.75,8.5,6.0,2.25,1.5,0.25,0.75,0.0,1.0,0.0,0.5,0.52,0.14,0.77,386.36,-17.5,58.8
1.16,3.75,2.5,3.75,5.25,9.0,9.0,5.25,7.75,5.0,6.25,4.75,5.5,5.5,-0.17,-0.05,0.95,1118.96,1.4,-6.5,9.25,2.5,7.5,10.5,7.75,2.25,1.5,1.5,1.0,1.5,0.75,0.0,0.25,0.27,0.33,0.95,546.03,-15.6,53.2
1.18,3.25,2.5,3.5,4.5,8.75,8.0,5.25,7.75,4.75,6.5,4.75,5.75,5.75,-0.11,-0.05,0.95,1133.31,1.1,-9.8,9.75,2.75,8.5,12.0,10.5,4.75,3.25,2.0,1.0,0.25,2.25,0.25,0.75,-0.23,0.2,1.58,784.96,-13.8,49.5
1.2,3.5,2.0,3.5,4.75,8.25,7.5,5.0,7.75,4.25,7.0,4.0,5.5,5.75,-0.11,-0.05,0.95,1119.32,1.0,-10.1,9.75,4.0,9.25,14.0,10.5,7.0,5.0,2.0,1.75,0.25,2.0,0.0,0.0,-0.23,0.08,1.45,1029.32,-13.6,52.1
1.22,2.75,2.0,2.25,4.75,6.25,8.0,4.25,7.75,4.25,7.25,3.75,6.5,6.5,-0.11,0.02,0.95,1081.37,-0.4,-17.6,9.75,3.0,9.25,12.0,12.0,7.25,6.25,3.0,2.0,0.5,1.5,0.0,0.5,0.2,0.08,1.2,1232.17,-12.3,48.4
1.24,2.0,1.75,3.25,4.5,7.5,7.25,3.25,7.75,3.75,7.25,3.75,6.75,7.25,-0.11,0.02,0.95,1052.63,-0.6,-19.0,10.0,3.75,9.0,14.0,12.0,7.75,6.25,3.25,2.75,1.5,1.5,0.75,1.25,0.2,0.08,1.2,1374.91,-11.4,43.0
1.26,2.0,2.0,2.25,3.25,6.75,6.75,2.25,7.75,3.0,7.25,2.75,6.75,7.5,-0.11,0.02,0.95,989.09,-2.0,-22.6,9.75,3.75,9.5,13.5,13.0,8.0,6.5,3.5,2.75,2.0,2.75,0.75,1.5,0.14,0.08,1.14,1466.08,-10.8,39.5
1.28,1.75,1.25,2.25,1.5,5.5,6.75,2.0,7.75,2.0,6.0,3.75,6.5,7.0,-0.11,0.02,1.02,884.08,-2.7,-28.0,9.0,3.75,9.25,12.5,13.0,7.75,6.25,3.75,2.75,2.0,2.75,0.75,0.5,0.14,0.08,1.08,1507.79,-10.7,40.4
1.3,1.75,1.75,0.0,4.0,5.25,5.25,1.5,7.0,2.0,7.0,2.5,6.5,6.5,-0.11,0.02,1.08,778.71,-3.3,-27.6,9.0,3.25,9.0,12.0,12.5,7.75,5.75,3.5,2.25,2.0,2.5,0.75,1.5,0.14,0.08,0.95,1499.89,-10.3,38.8
1.32,0.0,0.5,1.0,1.0,5.25,4.25,1.5,6.75,1.25,5.0,2.5,4.75,6.5,-0.23,0.08,1.27,639.84,-5.5,-36.4,8.75,3.0,8.5,12.0,11.5,7.25,5.5,3.25,2.0,2.0,2.5,0.75,1.5,0.14,0.08,0.95,1446.42,-10.5,38.5
1.34,2.0,1.5,0.0,2.25,3.75,3.75,0.25,5.5,1.25,4.25,0.5,3.0,5.25,-0.86,0.33,1.39,501.87,-4.5,-21.1,8.25,3.0,8.5,11.5,11.5,7.0,4.5,3.25,2.0,1.75,2.75,0.75,1.25,0.08,0.14,0.89,1372.61,-10.4,38.7
1.36,2.0,2.0,0.25,2.25,5.25,4.25,0.75,6.0,1.25,4.25,2.5,2.25,4.5,-0.61,0.33,1.89,430.28,-3.3,-13.9,8.25,3.0,7.75,11.5,11.5,7.0,4.25,3.25,1.75,1.75,2.0,0.75,1.25,0.08,0.14,0.89,1291.63,-10.0,40.0
1.38,1.25,1.75,1.5,2.0,5.25,4.25,0.5,5.5,1.25,3.25,2.0,1.25,2.5,-0.17,0.08,1.52,378.32,-2.3,-2.9,7.75,2.5,7.75,11.0,11.5,7.0,4.25,3.0,1.75,2.0,2.25,0.75,1.25,0.02,0.14,0.89,1180.63,-9.8,38.4
1.4,1.0,1.25,0.0,1.75,0.5,3.0,0.5,5.25,1.25,2.5,1.75,1.25,2.25,0.33,2.27,1.33,306.02,-4.2,-22.7,7.5,2.75,7.5,11.0,11.0,7.0,4.25,3.25,2.0,1.75,2.5,0.5,1.5,0.08,0.14,0.89,1105.28,-9.6,37.5
1.42,1.0,1.75,2.0,2.25,5.25,4.25,0.5,4.5,1.25,2.0,2.0,1.25,1.5,1.64,3.89,0.83,292.68,-0.3,5.8,7.5,2.75,7.5,12.0,11.5,7.5,4.25,3.25,2.0,2.0,2.75,0.75,1.5,0.08,0.14,0.89,1074.99,-9.3,36.5
1.44,0.75,1.75,2.0,2.0,5.25,3.0,0.5,4.0,1.25,2.0,1.75,1.25,1.0,1.27,2.45,1.52,280.1,0.6,7.0,7.25,2.5,7.5,12.0,11.5,7.75,4.25,3.25,2.0,1.75,2.5,0.75,1.0,0.08,0.08,0.89,1058.91,-9.3,38.1
1.46,1.0,1.75,2.0,2.0,5.25,3.0,0.5,4.0,1.25,2.0,1.75,1.25,0.75,0.08,2.33,0.89,284.3,1.0,8.9,7.25,2.75,7.5,12.0,11.5,7.75,4.5,3.5,2.0,2.25,2.5,0.75,1.5,0.08,0.08,0.89,1069.44,-8.9,36.0
1.48,1.0,1.75,2.25,2.0,3.75,3.0,0.75,4.0,1.25,1.75,1.75,1.25,0.5,-0.73,2.02,0.89,281.86,2.2,8.5,6.75,3.0,7.5,12.0,11.5,8.0,5.0,3.75,2.75,2.0,2.75,0.75,1.25,0.08,0.08,0.89,1082.26,-8.9,35.2
1.5,1.75,1.25,2.25,1.75,3.75,2.75,0.5,3.5,1.25,1.5,2.0,1.0,0.75,-0.61,1.77,0.83,286.99,3.2,9.3,6.25,2.75,7.5,12.0,11.5,8.0,5.25,4.5,3.25,3.25,3.0,1.0,1.75,0.2,0.02,1.08,1123.05,-7.8,29.2
1.52,1.25,1.75,1.75,1.75,1.25,2.5,0.5,3.5,1.0,1.75,1.75,1.25,0.75,-0.55,1.45,1.02,271.96,2.7,0.8,6.0,2.75,7.5,12.0,11.5,8.25,5.5,5.25,3.75,3.5,3.75,1.25,1.5,0.14,0.08,1.02,1178.99,-7.5,26.4
1.54,1.0,1.25,1.0,1.75,4.75,2.75,0.25,2.75,1.0,1.75,1.5,1.25,0.75,-0.86,1.02,1.2,268.56,0.0,7.4,6.0,2.5,7.5,10.5,11.5,8.25,5.5,5.5,4.0,3.75,4.0,1.25,2.0,0.14,0.02,1.02,1222.29,-7.0,23.3
1.56,1.75,1.75,1.75,1.75,4.75,2.5,0.5,2.25,1.0,1.75,1.5,1.25,0.5,-0.8,0.77,1.33,276.55,3.5,16.0,5.25,2.5,6.75,10.5,11.5,8.25,5.5,5.5,4.0,4.25,4.0,1.25,2.5,0.14,0.02,0.95,1245.22,-6.0,20.5
1.58,1.25,1.75,1.0,1.75,4.75,2.5,0.5,2.5,1.0,1.5,1.75,1.25,0.5,-0.48,0.64,1.27,281.86,1.7,12.2,4.5,2.25,6.5,9.75,11.0,8.25,5.0,5.75,4.0,4.75,4.0,1.5,3.0,0.14,0.02,0.95,1236.23,-5.1,16.2
1.6,1.0,1.75,1.0,1.75,1.25,1.75,0.5,2.25,1.0,1.75,1.75,1.25,0.75,-0.36,0.52,1.2,265.12,3.2,-1.5,4.25,2.25,6.0,8.5,10.5,8.0,4.5,5.75,3.5,4.75,4.0,1.5,3.0,0.14,0.08,0.95,1190.46,-4.5,14.7
1.62,1.0,1.75,1.0,1.75,0.5,2.0,0.5,2.25,1.0,1.75,1.5,1.25,0.75,-0.3,0.33,1.2,249.19,3.0,-2.8,3.0,2.25,5.0,7.0,9.25,8.0,4.0,6.0,3.25,5.0,4.0,1.5,3.25,0.14,0.08,0.95,1102.19,-2.8,9.3
1.64,1.0,1.75,0.0,1.0,0.75,1.75,0.5,2.25,1.0,1.75,1.5,1.25,0.5,-0.36,0.14,1.2,222.75,0.4,-8.1,2.0,1.75,3.5,5.25,8.75,7.75,3.25,6.25,2.75,5.25,4.0,1.5,3.0,0.14,0.08,0.95,975.92,-0.5,3.5
1.66,0.5,1.75,0.0,1.75,0.75,1.75,0.5,2.25,1.0,1.75,1.25,1.25,0.75,-0.42,-0.05,1.2,197.81,-0.1,-8.6,1.5,1.5,2.25,5.0,7.75,7.25,2.5,6.0,2.0,4.75,2.25,1.5,2.5,0.14,0.08,1.02,819.59,1.0,4.3
1.68,0.5,1.75,0.5,1.75,2.25,1.75,0.25,2.25,1.0,2.0,1.5,1.25,0.75,-0.48,-0.23,1.08,200.95,0.3,-2.6,1.75,1.0,2.0,2.5,6.25,6.5,1.75,5.5,0.75,0.0,3.0,1.25,2.5,0.08,0.08,1.14,629.37,0.5,8.0
1.7,0.0,0.5,0.0,0.0,1.25,0.75,0.25,1.5,0.25,0.5,0.0,0.75,0.5,-0.48,-0.3,1.02,159.93,-6.5,-13.9,1.5,0.75,1.0,0.5,5.25,6.0,1.5,5.5,1.0,1.75,2.75,1.0,0.0,0.2,0.14,1.45,453.0,3.1,5.3
1.72,0.0,0.75,0.0,0.0,0.5,0.75,0.0,1.75,0.25,0.75,0.25,0.75,0.5,-0.61,-0.48,0.83,121.42,-7.0,-25.2,1.5,1.0,0.0,0.5,5.5,5.25,0.75,3.5,0.75,0.25,2.5,0.0,0.0,1.08,0.64,1.27,315.64,3.6,19.6
1.74,0.0,0.75,0.0,0.5,0.5,2.0,0.0,2.0,0.25,0.75,0.75,0.25,0.75,-0.86,-1.11,0.77,91.48,-8.1,-12.7,1.5,0.75,0.0,2.5,3.75,4.75,1.0,3.25,0.75,2.0,2.5,0.25,0.25,0.14,0.33,1.95,248.44,2.1,9.5
1.76,0.0,0.5,0.0,0.25,0.0,0.75,0.0,1.75,0.25,0.75,0.25,0.5,0.5,-0.8,-1.67,0.7,67.05,-7.9,-31.5,1.5,0.75,0.0,2.5,5.75,4.5,1.0,2.5,1.0,1.75,2.75,0.25,0.5,-2.61,3.89,0.39,218.74,1.3,13.1
1.78,0.0,0.5,0.0,0.25,0.5,0.75,0.0,2.0,0.25,0.75,0.25,0.5,0.5,-0.73,-2.05,0.52,53.72,-7.8,-24.0,0.0,0.0,0.0,0.0,3.5,2.25,1.0,2.0,0.75,0.25,2.5,0.0,0.5,-0.92,2.89,1.14,161.48,4.4,-4.9
1.8,0.0,0.5,0.0,1.75,0.5,1.75,0.0,2.0,0.25,1.0,0.25,0.25,0.5,-0.73,-2.11,0.52,67.16,-5.6,-2.2,0.0,0.25,0.0,0.0,3.0,2.25,0.5,1.75,0.75,0.0,2.0,0.0,0.5,0.45,2.58,0.64,109.33,5.0,-0.7
1.82,2.25,0.25,0.0,1.75,0.5,3.0,0.0,2.0,0.25,1.25,0.25,0.25,0.5,-0.67,-0.36,-0.42,104.38,-0.8,14.9,0.0,0.0,0.5,0.0,3.5,2.0,0.75,2.0,0.75,0.25,2.25,0.0,0.25,0.64,2.02,0.52,70.62,2.7,0.3
1.84,5.5,1.75,0.0,3.25,4.25,3.75,0.0,2.25,0.75,0.25,0.25,0.25,0.5,-2.05,0.58,2.02,192.98,5.5,44.4,0.0,0.25,0.0,0.0,3.25,1.25,1.0,1.25,0.75,0.25,1.5,0.0,0.25,0.14,1.27,0.95,48.47,2.5,4.8
1.86,7.5,3.5,3.0,6.25,7.0,8.25,0.0,3.75,1.5,1.5,0.25,1.25,0.5,-0.61,0.39,2.14,356.83,5.6,39.7,0.0,0.0,0.0,0.0,0.0,1.0,0.5,0.75,0.75,0.0,1.25,0.0,0.25,-0.05,1.14,1.08,14.61,1.9,-33.4
1.88,7.0,2.25,3.5,8.25,9.25,9.0,1.5,5.0,1.5,0.0,1.5,1.25,0.5,-0.05,0.08,1.77,584.92,5.7,37.8,1.5,0.75,0.0,2.5,0.0,2.25,0.75,1.75,0.75,0.0,2.5,0.0,1.5,-0.23,0.95,1.27,53.42,-3.7,0.0
1.9,7.75,4.5,6.0,9.5,13.0,10.5,4.75,6.25,3.0,1.5,2.0,1.5,0.75,0.02,0.02,1.39,937.21,6.3,35.0,0.0,0.0,0.0,0.0,0.0,1.25,0.5,0.5,0.75,0.0,1.25,0.0,0.0,-0.17,0.7,1.27,40.26,1.4,-23.9
1.92,7.75,4.5,6.25,9.5,14.0,10.5,6.25,7.0,4.75,4.25,2.0,1.75,1.0,-0.17,-0.11,1.14,1286.52,5.6,28.1,1.5,0.75,0.0,2.5,2.75,2.25,0.25,0.5,0.75,1.75,2.0,0.0,1.0,0.02,0.39,1.33,104.62,-1.7,10.6
1.94,7.75,4.25,6.25,8.25,13.5,10.5,7.0,8.0,6.0,4.75,4.0,2.75,2.25,-0.3,-0.3,1.33,1515.77,5.1,18.7,1.5,0.5,0.0,2.5,3.25,2.25,0.75,1.75,0.75,1.75,2.5,0.25,1.5,0.02,0.27,1.39,159.97,-0.5,0.7
1.96,7.0,3.75,6.25,8.0,13.5,10.0,7.25,8.25,6.0,5.0,5.0,2.75,2.5,-0.11,-0.17,1.08,1631.41,4.9,15.3,1.5,0.0,0.5,2.5,3.5,0.5,1.0,2.0,0.75,0.0,2.5,0.0,1.5,0.08,0.08,1.33,205.98,-5.2,6.6
1.98,7.0,3.75,5.5,7.75,12.5,9.75,7.0,8.0,5.75,4.25,4.75,2.75,2.5,-0.11,-0.11,1.02,1666.77,4.9,15.6,0.0,0.0,0.0,0.0,0.25,0.25,0.25,0.25,0.75,0.0,1.5,0.0,0.25,0.02,-0.11,1.33,166.31,-4.3,-44.6
2.0,6.75,3.5,5.0,6.75,11.5,9.75,6.75,7.75,5.25,3.5,3.75,2.0,2.0,-0.17,-0.11,1.02,1614.63,4.7,18.4,0.0,0.0,0.0,0.0,3.0,0.0,0.75,1.75,0.75,0.0,2.5,0.0,0.0,0.02,-0.17,1.2,149.18,-0.6,-9.5
2.02,6.25,3.5,4.75,6.25,10.0,9.0,6.0,7.0,4.5,2.75,2.5,1.5,1.25,-0.17,-0.05,0.95,1488.81,5.1,23.0,0.0,0.0,0.0,0.0,3.0,0.0,1.0,1.75,0.75,0.0,0.75,0.0,0.0,0.08,-0.23,1.08,122.79,1.1,6.6
2.04,6.0,3.5,4.75,6.25,9.75,9.0,6.0,6.5,4.25,2.75,1.75,1.5,0.75,-0.11,-0.05,0.89,1353.17,5.3,25.6,1.25,0.75,0.0,2.0,0.25,0.0,0.75,1.75,0.75,0.25,2.5,0.0,1.25,0.2,-0.48,1.08,127.92,-7.3,-9.1
2.06,5.75,3.5,4.5,6.25,9.25,8.25,5.75,6.25,3.75,2.25,2.5,1.5,1.0,-0.11,0.02,0.89,1191.1,5.6,24.6,1.25,0.75,0.0,2.0,1.0,2.0,1.25,2.0,0.75,1.5,2.5,0.5,1.5,0.33,-0.67,0.89,163.13,-1.2,-10.4
2.08,5.25,3.5,4.5,5.5,9.0,8.0,5.25,6.0,3.75,2.5,2.5,1.5,1.0,-0.11,0.02,0.89,1037.44,5.2,23.2,1.5,0.75,0.0,2.25,3.0,2.0,0.75,1.75,0.75,1.75,2.5,0.5,1.5,0.52,-0.86,0.77,214.27,-0.9,-1.3
2.1,5.25,3.25,4.25,5.0,8.75,8.0,5.0,6.25,4.25,2.25,2.5,1.5,1.0,-0.11,0.02,0.89,919.08,5.0,21.8,1.5,0.75,0.0,2.0,3.25,2.0,0.75,1.75,0.75,1.5,1.5,0.0,1.5,0.64,-0.86,0.27,240.32,0.0,7.0
2.12,5.25,3.5,4.25,4.75,8.5,8.25,5.0,6.25,4.5,3.25,2.75,2.75,2.0,-0.11,-0.05,0.95,873.05,4.3,14.5,0.75,0.5,0.0,2.5,3.0,2.0,1.0,0.25,0.75,1.75,0.5,0.25,0.25,2.7,-2.61,0.02,235.05,-1.3,20.2
2.14,4.5,2.75,4.0,4.75,8.5,8.0,5.25,6.25,5.0,4.25,4.0,2.75,2.5,-0.11,-0.05,0.95,848.09,3.6,7.5,3.75,0.75,1.75,2.75,3.25,2.25,1.0,1.25,1.0,1.75,2.5,0.0,1.25,0.52,-2.42,0.08,266.87,-7.7,19.1
2.16,4.25,2.5,3.75,4.75,8.5,8.0,5.25,6.75,5.25,4.25,4.25,3.5,2.75,-0.11,-0.05,0.95,863.44,3.2,3.7,8.25,2.25,2.5,4.0,3.75,2.25,1.0,0.5,0.75,1.25,2.0,0.0,1.25,2.08,-3.17,1.89,314.68,-13.7,43.1
2.18,3.75,2.25,3.75,4.75,8.0,8.0,5.25,7.0,5.5,3.0,4.0,4.5,4.5,-0.11,-0.05,0.95,887.61,2.9,-1.3,9.25,2.0,6.25,8.5,6.25,4.0,1.25,1.5,1.25,0.75,1.0,0.25,1.25,0.02,0.77,2.7,466.25,-13.9,47.8
2.2,3.75,2.25,3.75,4.75,7.5,8.0,5.25,7.25,5.5,5.75,5.0,5.5,4.75,-0.11,-0.11,0.95,944.64,2.2,-8.0,9.0,2.25,7.75,9.75,9.0,5.5,1.75,2.0,1.25,0.25,2.25,0.0,1.0,0.45,0.14,2.27,681.7,-12.7,47.3
2.22,3.75,2.0,3.75,4.75,7.5,8.0,5.0,7.25,5.5,4.5,5.0,6.0,5.5,-0.11,-0.05,0.95,993.38,2.3,-9.2,9.25,2.5,8.5,10.5,10.0,6.5,4.0,2.0,2.0,1.25,2.0,0.5,0.75,0.02,0.08,1.64,924.28,-12.3,44.3
2.24,3.5,2.0,3.75,4.75,7.5,7.25,5.0,7.25,5.5,5.75,5.75,6.5,5.75,-0.11,-0.11,0.95,1048.79,2.2,-13.0,9.25,2.5,9.0,11.0,12.0,7.75,6.5,3.5,2.75,2.0,2.5,0.75,1.0,-0.11,-0.11,1.14,1156.56,-10.7,38.4
2.26,3.25,2.0,3.75,4.5,7.5,7.25,4.75,7.25,5.25,6.25,5.75,7.25,6.5,-0.11,-0.05,0.95,1091.29,1.8,-16.2,9.0,3.5,9.25,10.5,11.5,8.0,7.25,4.0,4.5,1.75,2.25,1.0,0.75,0.14,0.14,1.89,1334.86,-10.8,37.2
2.28,3.0,2.0,3.0,4.0,6.75,6.75,4.5,7.0,5.0,6.75,5.75,7.75,7.25,-0.11,-0.05,0.95,1100.0,1.1,-21.4,9.0,3.5,8.5,12.0,11.5,8.5,7.25,5.25,4.5,3.25,2.75,1.25,1.5,0.27,-0.05,1.27,1449.35,-9.2,31.2
2.3,2.0,1.75,2.25,3.25,5.75,6.0,3.0,7.0,4.5,7.25,5.75,8.0,7.75,-0.11,0.02,1.02,1061.42,-0.4,-29.5,8.75,3.25,8.75,10.5,12.0,8.25,7.0,4.75,4.0,3.25,3.25,1.0,2.0,0.14,0.02,1.08,1502.99,-9.0,30.3
2.32,1.75,2.0,0.0,2.5,4.75,4.25,2.25,6.75,3.5,7.0,5.5,6.75,8.25,-0.11,-0.05,1.08,965.98,-2.3,-36.9,8.5,3.0,8.5,10.5,11.5,8.0,6.5,4.75,3.25,2.75,3.25,0.0,1.5,0.2,0.02,0.95,1503.29,-9.3,34.0
2.34,0.75,0.5,0.0,1.75,3.5,4.0,0.75,5.75,3.25,6.0,3.0,7.75,0.0,-0.23,-0.05,1.14,757.91,-2.1,-34.9,7.5,2.25,7.25,8.75,11.5,7.5,6.0,4.25,2.75,1.25,2.75,0.0,1.5,0.14,0.08,0.95,1420.85,-8.9,35.6
2.36,1.0,0.75,0.0,1.75,5.5,4.25,1.0,5.25,2.75,6.0,4.5,8.0,5.75,-0.42,0.08,2.02,653.71,-2.9,-39.7,7.25,2.0,7.5,8.75,10.5,7.25,5.25,3.5,2.5,1.0,2.75,0.0,1.5,0.08,0.08,0.89,1310.47,-9.6,36.7
2.38,0.0,0.5,1.0,1.75,1.25,3.0,2.0,5.5,2.25,4.25,4.0,7.25,5.5,-0.17,0.2,1.7,539.85,-1.7,-51.0,6.75,1.5,6.25,7.0,9.0,7.0,4.5,3.0,2.0,1.75,1.5,0.5,0.25,0.08,0.08,0.89,1092.72,-9.2,38.4
2.4,1.5,1.75,0.0,2.5,5.0,3.25,0.75,5.25,2.0,3.5,3.0,5.5,6.75,-0.55,0.14,1.77,498.22,-2.3,-30.0,6.0,2.0,5.0,7.0,8.75,7.0,4.5,3.0,2.75,1.75,1.75,0.25,0.75,0.08,0.08,0.89,924.5,-8.0,35.0
2.42,0.5,1.75,1.25,2.0,5.25,3.0,0.5,4.75,1.75,2.75,2.5,3.0,5.5,-0.36,0.2,1.64,433.57,-2.2,-21.0,7.0,2.25,6.0,8.25,9.0,7.5,4.25,3.25,2.75,2.0,2.5,0.75,1.75,0.08,0.08,0.89,849.02,-8.3,31.2
2.44,0.75,0.75,1.25,2.0,4.25,3.75,0.5,4.25,1.5,2.75,2.5,1.25,2.5,0.14,1.89,0.83,372.54,-2.2,-10.4,6.5,2.25,5.5,8.25,9.0,7.5,4.5,3.75,2.75,2.5,2.5,0.75,0.75,0.14,0.08,0.95,821.71,-7.8,31.4
2.46,0.75,1.75,2.0,2.25,5.25,3.5,0.5,4.0,1.25,2.0,2.5,1.5,2.5,0.95,4.33,-0.05,331.73,0.0,-0.9,6.25,2.25,5.25,8.5,9.0,7.75,4.5,4.25,3.25,3.25,2.75,1.0,1.5,0.14,0.02,0.95,837.23,-6.7,25.7
2.48,0.75,1.75,1.75,2.0,5.25,2.75,0.5,4.0,1.25,2.25,2.5,1.25,2.25,1.02,2.33,2.2,304.89,0.0,-1.6,6.25,2.25,5.25,8.25,9.25,7.75,5.0,4.75,4.5,3.5,3.75,1.5,2.25,0.14,0.02,0.95,881.52,-6.4,19.2
2.5,0.0,0.5,0.0,1.0,2.5,1.0,0.25,3.75,1.0,1.5,2.5,0.5,1.5,-0.36,2.45,0.52,252.92,-4.1,-24.7,6.25,2.25,5.5,8.25,9.5,8.0,5.0,5.5,5.25,4.5,4.5,1.5,2.75,0.14,0.02,0.95,962.43,-5.7,14.8
2.52,0.0,0.5,0.0,1.0,0.75,0.25,0.0,2.0,1.0,1.25,0.25,0.25,0.5,-0.92,1.77,0.89,173.6,-3.4,-18.4,6.25,2.25,5.0,7.75,9.5,7.75,5.25,5.75,5.25,4.75,4.75,1.5,3.25,0.14,0.02,0.95,1028.57,-5.3,12.3
2.54,0.0,0.5,0.0,0.25,0.5,1.0,0.0,2.0,1.0,1.5,0.25,0.75,0.5,-0.73,1.39,0.89,101.84,-6.6,-30.9,5.5,2.25,5.0,7.25,9.25,7.75,5.25,5.5,5.25,5.0,4.75,1.5,3.5,0.14,0.02,0.95,1081.36,-4.8,10.2
2.56,0.0,0.5,0.0,0.0,0.5,2.0,0.25,2.0,1.25,1.5,0.25,1.0,0.5,-0.55,1.02,1.39,60.19,-7.5,-28.4,4.75,2.25,5.0,7.0,9.0,7.75,5.0,5.75,5.25,5.25,5.0,1.5,3.5,0.14,0.02,0.95,1107.8,-4.3,8.1
2.58,0.0,0.5,0.0,0.0,0.0,1.0,0.25,2.0,0.75,1.25,0.25,1.0,0.5,-0.55,0.52,1.45,38.34,-6.9,-40.7,4.75,2.25,5.0,6.75,9.0,7.75,5.0,5.75,5.0,5.25,4.5,1.5,3.5,0.14,0.02,0.95,1111.46,-4.2,8.7
2.6,0.0,0.5,0.0,0.0,0.0,1.0,0.25,1.75,0.5,1.25,0.25,1.0,0.5,-0.17,0.2,1.52,23.19,-7.3,-40.8,4.5,2.25,5.0,6.75,9.0,7.75,4.5,5.75,4.5,5.5,4.75,1.5,3.5,0.14,0.02,0.95,1100.29,-3.8,8.0
2.62,0.0,0.5,0.0,0.0,0.5,1.0,0.25,2.0,0.5,0.75,0.25,1.0,0.5,-0.05,0.08,1.52,27.62,-6.7,-30.7,4.0,2.25,4.75,6.75,9.0,7.75,4.5,5.75,4.25,5.5,4.5,1.5,3.25,0.14,0.02,0.95,1079.6,-3.5,8.1
2.64,0.0,0.5,0.0,0.0,1.25,1.0,0.0,1.75,0.25,1.25,0.25,0.75,0.5,-0.05,0.02,1.39,31.73,-8.3,-21.9,3.5,2.25,4.75,6.75,8.75,7.75,4.25,5.75,4.0,5.75,4.0,1.5,3.25,0.14,0.02,0.95,1041.15,-3.0,7.7
2.66,0.0,0.5,0.0,0.25,0.5,1.0,0.0,1.5,0.25,1.25,1.25,0.75,0.5,-0.05,-0.11,1.33,45.74,-5.3,-33.8,3.0,1.75,3.75,5.25,8.75,7.75,3.75,5.75,3.25,5.5,4.0,1.5,2.75,0.14,0.02,0.95,962.63,-1.6,5.6
2.68,0.0,0.5,0.0,0.25,0.5,0.5,0.25,1.5,0.25,1.25,0.25,1.0,0.5,-0.11,-0.23,1.2,56.22,-5.2,-34.2,2.0,1.5,2.25,5.0,7.75,7.75,3.25,6.0,2.75,5.5,4.0,1.5,1.75,0.14,0.02,0.95,861.23,0.1,2.9
2.7,0.0,0.5,0.0,0.0,0.5,0.25,0.25,1.75,0.25,1.25,0.25,1.0,0.5,-0.17,-0.3,1.14,62.94,-5.9,-40.7,2.0,1.5,2.25,5.0,7.75,7.5,3.0,6.0,2.0,5.0,3.75,1.5,2.25,0.14,0.08,1.02,765.31,0.3,3.3
2.72,0.0,0.5,0.0,0.0,0.0,1.0,0.0,1.0,0.25,1.0,0.25,1.25,0.5,-0.23,-0.42,1.08,70.54,-6.6,-44.1,2.0,1.0,2.0,0.0,6.25,6.75,2.25,5.75,1.5,3.5,3.5,1.25,3.25,0.14,0.08,1.14,626.51,2.8,-6.7
2.74,0.5,1.75,0.0,1.75,0.5,1.75,0.0,0.25,1.0,1.75,0.25,1.25,0.5,-0.3,-0.42,0.95,110.87,1.5,2.3,1.5,0.75,1.5,0.0,6.0,6.0,2.0,5.25,0.5,1.75,2.5,0.0,2.5,0.08,0.08,1.2,483.3,4.1,2.6
2.76,0.25,1.75,0.0,1.75,0.75,1.75,0.25,2.0,1.0,1.5,1.5,1.25,0.75,-0.36,-0.55,0.95,152.59,-0.2,-10.1,0.0,0.25,0.0,0.75,3.0,2.25,1.25,3.5,0.75,1.0,1.5,0.0,0.5,0.14,0.2,1.33,312.02,5.5,-4.1
2.78,0.0,1.75,0.0,1.75,0.5,1.75,0.25,2.0,1.0,1.75,1.75,1.25,0.75,-0.48,-0.86,1.02,184.85,-0.8,-15.3,0.0,0.25,0.0,2.5,3.0,3.0,0.75,2.5,0.75,0.25,1.25,0.0,0.5,1.45,0.83,0.89,214.16,3.1,12.0
2.8,0.25,1.75,0.0,1.75,0.0,1.75,0.0,1.75,1.0,1.75,1.25,1.25,0.75,-0.55,-1.11,0.89,200.33,-0.5,-14.1,1.0,0.75,0.0,2.0,3.5,3.0,1.0,1.75,1.0,1.75,1.5,0.25,0.5,0.14,1.95,0.95,147.76,1.0,10.3
2.82,0.0,2.0,0.0,1.75,0.5,1.75,0.25,2.0,1.0,1.5,1.75,1.25,0.75,-0.61,-1.36,0.7,212.32,-0.3,-12.2,2.0,0.75,0.0,0.5,3.5,2.0,1.25,2.0,0.75,1.75,2.5,0.5,0.5,-1.36,2.77,0.95,126.16,-1.0,3.1
2.84,0.0,0.75,0.25,0.0,0.75,1.0,0.5,2.0,0.25,0.25,1.75,0.5,0.75,-0.42,-1.42,0.02,189.96,-2.2,-22.9,0.0,0.0,0.0,0.0,3.5,1.25,1.0,2.0,0.75,0.5,2.5,0.0,1.25,-0.48,2.27,1.08,101.91,3.8,-15.6
2.86,1.25,1.0,0.0,1.75,0.0,1.75,0.0,1.75,0.75,0.5,0.25,0.0,0.5,-1.17,-3.86,4.64,174.29,1.5,18.0,0.0,0.0,0.0,0.0,1.5,2.0,0.5,1.75,0.75,0.25,1.0,0.0,0.25,0.02,2.08,0.83,66.63,7.4,-6.7
2.88,3.75,1.75,0.0,1.75,0.5,3.0,0.0,1.75,1.0,1.25,0.25,0.0,0.5,-1.98,0.77,0.89,187.79,4.4,31.3,0.0,0.0,0.0,0.0,1.25,1.25,0.75,1.25,0.75,0.25,0.5,0.0,0.25,0.39,1.58,0.7,24.48,5.7,-5.5
2.9,6.0,2.25,0.75,4.75,5.0,5.25,0.0,3.75,1.25,1.75,0.25,1.25,0.5,-0.55,0.52,1.89,282.54,4.1,31.8,1.5,0.75,0.0,1.25,0.5,0.0,1.0,1.75,0.75,0.0,2.5,0.0,1.25,0.77,1.27,0.64,24.59,-7.7,-8.0
2.92,5.75,3.5,3.0,5.75,7.25,7.75,0.0,4.0,1.5,0.25,0.5,1.25,0.5,-0.92,0.27,1.7,426.12,5.1,39.6,0.0,0.25,0.0,2.5,0.0,0.0,1.0,1.75,1.0,1.5,2.5,0.5,1.25,0.77,0.89,0.52,50.0,-3.0,-34.5
2.94,7.0,3.5,3.5,6.5,10.0,9.0,1.75,5.25,2.0,1.0,1.5,1.25,0.75,-0.05,0.14,1.39,660.36,4.8,34.9,1.5,0.75,0.0,2.5,2.5,2.0,1.0,1.5,1.0,1.5,1.75,0.25,1.25,0.64,0.64,0.52,117.53,-1.8,5.3
2.96,7.0,3.5,4.5,7.25,12.0,9.75,3.25,6.0,2.75,1.75,1.5,1.25,0.75,0.08,0.08,1.27,902.26,4.8,33.1,2.0,0.5,0.0,2.5,3.0,0.0,1.0,1.75,1.0,1.75,2.5,0.5,1.25,0.45,0.39,0.64,177.44,-5.0,-1.8
2.98,7.0,3.75,5.25,7.75,13.0,10.5,5.75,7.0,5.0,4.25,2.0,2.25,0.75,-0.17,-0.11,1.14,1171.53,4.7,24.4,2.0,0.0,0.0,0.5,3.25,0.0,1.0,2.0,0.75,1.5,2.75,0.5,2.0,0.33,0.2,0.83,212.16,-2.1,-17.0
3.0,7.0,3.75,4.75,7.25,12.5,10.5,6.0,8.0,5.75,5.25,4.0,2.75,2.25,-0.23,-0.3,1.27,1376.15,3.8,15.1,1.25,1.0,0.0,0.25,3.0,0.0,1.0,1.75,0.75,0.0,2.5,0.0,1.0,0.2,0.08,0.89,213.82,-4.3,3.0
3.02,6.25,3.75,4.75,6.75,11.5,10.5,6.0,8.25,6.0,5.5,5.0,3.0,2.75,-0.17,-0.11,1.02,1493.09,3.4,10.5,0.0,0.0,0.0,0.25,0.5,0.0,0.75,0.5,0.75,0.0,1.5,0.0,0.5,0.2,-0.05,0.95,164.31,-5.3,-35.8
3.04,6.0,3.5,4.75,6.5,11.5,10.0,5.75,8.25,5.75,4.75,4.5,2.75,2.5,-0.17,-0.11,1.02,1533.47,3.5,12.0,0.25,0.25,0.0,0.0,0.0,0.0,0.25,0.25,0.75,0.0,1.0,0.0,0.25,0.08,-0.11,0.95,106.34,-9.5,-31.1
3.06,6.0,3.5,4.5,6.5,11.5,9.75,5.5,8.0,5.25,4.25,4.0,2.75,2.5,-0.17,-0.11,0.95,1518.52,3.5,13.4,0.0,0.0,0.0,0.0,0.0,0.0,0.25,0.25,0.75,0.0,0.75,0.0,0.5,0.14,-0.36,0.95,58.54,-4.0,-62.2
3.08,5.75,3.5,4.5,6.25,11.5,9.75,5.5,7.75,5.0,4.25,2.75,2.5,2.0,-0.11,-0.05,0.95,1465.53,3.4,16.2,1.25,0.75,0.0,1.25,0.25,1.5,0.25,0.25,0.75,1.5,0.75,0.5,0.25,0.14,-0.42,0.95,70.35,-3.7,4.9
3.1,5.25,3.5,4.5,6.25,10.0,9.5,5.0,7.5,4.5,4.0,2.5,1.75,2.0,-0.11,-0.05,0.89,1374.09,3.3,17.3,0.0,0.0,0.0,0.0,3.0,0.25,1.0,1.5,0.75,0.25,2.5,0.0,0.25,0.2,-0.48,0.95,89.56,-0.1,-11.7
3.12,4.75,3.5,3.75,6.25,10.0,9.0,4.75,7.25,3.75,3.25,2.0,1.5,1.5,-0.11,0.02,0.89,1244.25,3.1,20.4,1.75,0.75,0.0,1.75,3.0,2.0,1.0,1.75,0.75,1.75,2.5,0.25,1.25,0.27,-0.48,1.08,155.67,-1.2,1.4
3.14,3.75,3.0,3.75,5.75,9.0,9.0,4.5,7.0,3.75,3.75,1.75,1.5,1.5,-0.11,0.02,0.89,1079.8,2.3,17.2,0.0,0.25,0.0,0.0,3.25,0.0,1.0,0.25,0.75,0.0,0.75,0.0,0.0,0.39,-0.3,0.83,146.07,-3.0,23.6
3.16,3.5,2.75,3.75,5.0,9.0,9.0,4.0,7.25,3.75,4.0,2.5,1.75,1.5,-0.17,0.02,0.89,961.38,1.8,13.5,0.0,0.0,0.0,0.0,0.0,0.0,0.25,0.25,0.75,0.0,0.75,0.0,0.0,0.52,-0.42,0.83,112.04,-9.0,-48.9
3.18,3.5,2.25,3.0,4.75,9.0,9.0,3.75,7.25,3.75,4.25,2.75,2.5,2.25,-0.17,0.02,0.89,878.71,0.9,7.8,2.0,0.75,0.0,2.25,0.5,2.25,0.25,0.25,0.75,1.75,0.25,0.5,0.25,0.33,-0.42,0.7,109.52,-4.3,19.9
3.2,3.25,2.0,2.5,4.75,8.75,9.0,3.75,7.5,4.0,4.5,2.75,2.75,2.5,-0.17,0.02,0.95,831.73,0.2,4.5,2.0,0.75,0.0,2.0,1.25,2.25,0.25,0.25,0.75,1.75,1.0,0.25,0.0,0.33,-1.36,1.2,132.07,-4.1,21.2
3.22,3.0,2.0,2.5,4.75,8.5,9.0,3.5,7.75,4.25,5.25,3.75,3.0,2.75,-0.17,-0.05,0.95,818.77,0.0,0.2,2.0,0.75,0.25,2.5,3.5,2.75,0.75,1.25,1.0,1.5,2.0,0.25,1.25,0.2,-1.98,1.33,196.96,-2.1,11.5
3.24,2.5,2.0,2.5,4.75,8.5,9.0,3.5,8.0,4.5,6.0,4.5,4.5,4.5,-0.17,-0.05,0.95,853.95,-0.4,-8.2,1.0,0.5,1.5,1.0,3.5,0.0,1.0,0.75,0.75,0.0,2.5,0.0,1.25,0.89,-0.36,1.14,223.67,-8.9,10.5
3.26,2.0,2.0,2.25,4.75,8.25,9.0,3.75,8.25,4.75,7.25,5.0,5.5,5.5,-0.17,-0.05,0.95,916.44,-1.1,-14.4,1.0,0.0,0.0,2.5,1.75,4.5,1.0,1.75,1.0,0.25,1.25,0.0,0.5,0.77,0.02,0.95,246.23,1.7,15.7
3.28,2.25,2.0,2.25,4.75,8.0,9.0,3.5,8.75,4.75,7.5,5.0,6.25,6.5,-0.17,-0.05,0.95,991.26,-1.2,-17.2,2.75,0.75,0.0,2.5,4.25,6.0,1.5,2.0,2.0,1.75,1.5,0.5,0.0,0.14,0.02,2.95,279.43,-0.2,20.2
3.3,2.0,2.0,2.5,4.5,8.0,9.0,3.0,8.75,4.5,8.25,5.0,6.5,6.5,-0.17,-0.05,0.95,1052.2,-1.5,-18.6,1.75,0.75,0.0,2.5,6.0,6.5,2.0,5.5,3.25,5.25,4.75,3.75,2.75,0.2,-0.05,1.14,391.55,2.5,-18.2
3.32,2.0,2.0,2.25,4.5,7.5,9.0,3.25,8.75,4.5,8.25,5.0,6.5,7.25,-0.17,-0.05,0.95,1094.94,-1.8,-20.4,3.5,1.5,2.0,3.25,6.25,7.25,2.75,6.5,4.75,7.25,6.5,5.25,6.25,0.08,-0.05,1.08,626.07,0.1,-20.6
3.34,2.0,2.0,2.25,4.5,7.5,9.0,3.25,8.75,3.75,7.75,4.75,6.0,6.75,-0.17,-0.05,0.95,1103.45,-1.8,-18.3,2.25,1.5,2.0,3.0,6.5,7.5,3.0,7.0,5.0,8.0,7.25,6.0,7.25,0.08,0.02,1.02,877.53,1.0,-26.3
3.36,1.75,2.0,2.25,4.5,7.0,8.25,2.25,8.25,2.75,7.0,2.5,4.75,6.25,-0.17,-0.05,0.95,1043.67,-2.5,-14.4,2.0,1.25,1.75,2.75,6.25,7.25,2.5,7.25,5.0,8.0,7.5,6.0,8.0,0.2,0.02,1.02,1069.91,1.7,-30.0
3.38,1.25,1.75,2.25,3.75,7.5,9.0,3.0,8.25,2.75,7.25,2.5,4.75,5.5,-0.17,0.02,0.95,979.23,-3.1,-14.2,2.0,1.25,1.5,2.75,6.0,7.0,2.5,7.25,4.5,8.0,7.0,6.0,8.0,0.2,0.02,0.95,1166.74,1.9,-30.5
3.4,1.75,1.25,2.25,3.0,5.75,8.5,1.75,9.0,1.75,5.75,2.5,3.0,5.5,-0.23,0.02,0.95,869.51,-4.0,-13.9,2.0,1.25,0.75,2.5,6.0,7.0,2.25,7.0,4.0,8.0,6.5,6.0,8.0,0.14,0.02,0.95,1167.18,2.8,-31.8
3.42,0.25,0.5,0.75,0.75,5.25,8.25,1.5,8.25,1.25,4.75,1.25,2.25,3.25,-0.23,0.08,0.95,701.48,-8.6,-17.2,0.5,0.5,1.0,2.0,5.5,2.0,2.0,6.25,2.75,7.0,5.0,4.5,7.25,0.14,0.02,0.95,1027.69,2.7,-39.9
3.44,0.25,0.5,1.0,1.0,4.75,8.25,0.5,8.0,1.25,4.75,0.5,2.5,2.5,-0.3,0.08,1.02,555.17,-8.8,-15.2,2.0,1.0,0.5,2.5,6.0,6.0,1.75,6.5,2.75,7.5,5.5,5.25,7.75,0.14,0.02,0.95,964.34,3.3,-31.4
3.46,1.5,1.0,0.75,2.5,3.0,7.75,0.25,7.75,1.25,4.25,1.75,1.5,1.0,-0.3,0.08,1.02,444.84,-5.9,-5.7,1.5,1.0,0.0,2.5,5.75,6.5,1.75,6.5,2.75,7.5,5.25,5.25,7.75,0.14,0.02,0.89,900.48,4.2,-33.1
3.48,0.5,0.5,0.0,2.0,0.75,6.75,0.5,7.5,1.25,2.0,0.5,1.25,0.75,-0.3,0.08,1.14,337.52,-9.1,-10.8,2.0,0.75,0.5,2.5,5.25,6.5,1.75,5.75,2.25,7.75,4.75,5.25,7.75,0.14,0.02,0.89,867.21,3.7,-32.3
3.5,0.75,1.75,0.0,2.0,3.0,6.25,1.0,7.5,1.0,2.75,1.5,1.25,1.5,-0.3,0.14,1.2,298.21,-6.6,-6.1,1.25,0.75,0.5,2.5,3.75,5.5,1.75,0.0,2.0,8.0,5.5,5.25,8.0,0.14,0.02,0.95,771.16,2.2,-39.6
3.52,1.0,1.75,0.25,2.0,5.25,5.25,0.5,6.5,1.25,2.75,1.75,1.25,0.75,-0.3,0.2,1.33,288.54,-4.6,1.6,1.0,0.75,0.0,2.5,3.5,6.25,1.5,0.0,2.0,8.25,5.25,5.75,8.0,0.2,0.02,0.89,688.29,3.3,-42.0
3.54,1.0,1.75,1.25,2.0,5.25,4.75,0.25,4.0,1.0,1.75,1.75,1.25,0.75,-0.67,1.27,0.58,286.97,-1.5,10.1,2.0,0.75,0.0,2.5,3.5,6.5,1.5,0.0,2.0,9.0,5.5,6.0,8.0,0.14,0.02,0.95,625.11,2.7,-39.8
3.56,0.0,0.5,0.0,1.5,1.25,3.0,0.0,4.0,0.25,0.25,0.25,0.0,0.5,0.39,1.2,1.52,226.46,-9.3,4.9,1.25,0.75,0.0,2.5,3.5,6.5,1.5,0.0,2.0,9.0,5.75,6.0,9.0,0.2,0.02,0.95,606.34,3.5,-43.6
3.58,0.0,0.5,0.0,1.0,0.5,2.5,0.0,2.25,0.5,0.0,0.25,0.0,0.5,0.14,1.33,1.39,154.55,-8.4,5.2,1.25,0.75,0.0,2.0,3.25,6.5,1.5,0.0,2.0,9.25,5.75,6.5,9.0,0.2,0.02,0.89,621.43,3.6,-46.2
3.6,0.0,0.5,0.0,1.75,0.5,1.75,0.0,2.0,0.25,0.0,0.25,0.0,1.0,-0.11,1.39,0.7,82.3,-5.4,3.2,1.5,0.75,0.0,2.5,3.5,6.5,1.5,0.0,1.75,9.75,6.5,6.5,9.25,0.2,0.02,0.95,655.96,3.3,-44.9
3.62,0.0,0.75,0.0,0.0,0.5,2.5,0.0,1.75,0.25,0.0,0.0,0.0,0.25,-0.11,1.14,0.52,30.14,-12.7,13.8,1.25,0.75,0.0,0.75,3.5,6.75,1.5,0.0,1.75,9.75,6.5,6.5,9.25,0.2,0.02,0.95,677.3,4.3,-49.2
3.64,0.0,0.5,0.0,1.0,0.5,1.75,0.0,2.0,0.25,0.0,0.25,0.25,0.25,-0.05,1.02,0.33,18.96,-6.5,5.6,1.5,1.25,0.0,1.75,3.5,6.75,1.5,0.0,1.5,9.75,6.25,6.5,9.25,0.2,0.02,0.89,698.16,3.7,-44.5
3.66,0.0,0.75,0.0,1.75,0.5,1.75,0.0,2.0,0.25,0.0,0.25,0.0,0.5,-0.3,1.14,0.27,33.41,-4.2,13.7,1.25,0.75,0.0,1.5,3.5,7.0,1.5,0.0,1.25,9.75,6.0,6.5,9.25,0.2,0.02,0.95,707.07,4.4,-46.8
3.68,0.0,0.5,0.0,1.5,0.5,1.25,0.0,2.0,0.25,0.0,0.25,0.0,0.5,-0.42,1.08,0.39,38.17,-4.4,7.4,1.25,0.75,0.0,1.25,3.5,6.75,1.25,0.0,1.0,8.5,5.5,6.0,9.25,0.27,0.02,0.95,681.15,4.6,-46.3
3.7,0.0,0.5,0.0,0.25,0.5,0.5,0.0,1.75,0.25,0.0,0.25,0.0,0.0,-0.48,0.83,0.58,27.67,-6.2,4.3,0.75,1.0,0.0,1.25,3.5,6.5,1.0,0.0,1.0,9.0,5.25,6.0,9.25,0.27,0.02,0.95,662.43,5.1,-47.8
3.72,1.0,1.75,0.0,1.75,0.5,1.75,0.0,1.5,1.25,0.5,0.5,1.25,0.0,-0.48,0.7,0.45,65.43,3.8,12.4,1.0,0.75,0.0,1.0,3.25,6.25,0.75,7.25,1.0,9.0,4.75,5.75,8.75,0.27,0.02,0.95,680.9,7.0,-47.0
3.74,1.0,1.25,1.75,2.0,4.25,1.25,0.5,2.0,1.0,0.75,1.25,0.25,0.5,-0.42,0.52,0.64,127.75,5.1,22.7,1.0,1.0,0.0,0.75,3.25,6.5,1.0,0.0,0.5,9.0,4.75,5.5,8.75,0.27,0.02,0.89,655.86,5.7,-47.3
3.76,1.0,1.75,1.0,1.75,3.75,1.75,0.5,2.0,1.0,1.5,1.25,1.25,0.5,-0.23,0.52,0.95,196.43,2.7,11.4,1.0,0.75,0.0,0.0,3.0,6.25,0.75,0.0,0.75,8.75,4.5,4.5,8.75,0.33,0.02,0.95,612.44,6.6,-49.9
3.78,0.75,1.75,1.25,2.5,1.25,1.75,0.25,2.25,1.0,1.5,0.5,1.25,1.25,-0.17,0.52,1.14,240.43,3.0,3.5,1.0,0.75,0.0,0.5,3.0,5.5,0.75,7.25,0.25,8.0,4.5,4.25,3.5,0.39,0.02,0.95,559.35,7.0,-38.8
3.8,1.0,1.75,1.25,1.75,4.25,1.75,0.25,2.0,1.0,1.5,1.25,1.25,0.5,-0.17,0.52,1.27,277.31,2.9,13.2,1.25,0.25,0.0,0.25,3.25,6.0,0.75,7.25,0.25,7.5,4.25,4.25,8.0,0.39,0.02,0.83,553.54,8.1,-45.9
3.82,0.75,1.75,1.5,1.75,2.25,1.75,0.25,2.0,1.0,1.75,1.25,1.25,0.5,-0.17,0.52,1.14,281.4,3.5,6.3,0.0,0.5,0.0,1.5,3.5,6.0,0.75,6.5,0.75,8.5,3.5,4.5,8.25,0.39,-0.05,0.77,565.15,8.3,-46.1
3.84,0.75,1.75,1.75,2.0,2.5,1.75,0.25,2.0,1.0,1.5,1.5,1.25,0.5,-0.3,0.45,0.95,283.87,4.4,8.5,0.0,0.75,0.0,0.75,1.75,5.75,0.5,7.25,0.75,8.75,4.75,5.5,9.25,0.45,0.02,0.77,607.53,8.3,-55.7
3.86,0.0,0.5,1.0,0.5,0.5,0.25,0.0,2.0,0.25,1.75,1.5,1.5,0.75,-0.61,-0.8,1.33,251.69,0.7,-37.2,1.25,0.75,0.0,1.25,3.0,4.75,0.25,7.25,0.75,8.5,4.5,5.25,9.25,0.64,0.02,1.08,647.21,6.8,-48.8
3.88,0.5,1.75,1.0,1.75,3.5,0.75,0.25,2.0,1.0,0.0,2.25,1.5,2.5,-3.05,-6.05,2.7,254.44,3.3,-4.6,1.25,0.75,0.0,1.25,3.0,4.5,0.25,6.5,0.75,8.25,4.0,5.25,8.75,1.08,0.02,1.52,659.91,6.6,-48.3
3.9,0.0,0.5,0.0,1.0,0.0,1.0,0.0,1.75,0.75,0.25,0.25,1.5,2.25,-3.48,-3.42,1.64,213.94,-4.0,-43.8,1.5,0.75,0.0,0.75,3.0,4.5,0.0,5.75,0.75,7.25,3.75,4.25,8.25,0.77,0.08,1.08,634.74,6.8,-46.1
3.92,0.0,0.5,0.0,1.25,0.0,1.75,0.0,0.25,0.75,0.0,0.75,1.5,2.0,-0.48,0.64,1.27,184.09,-1.2,-34.3,0.5,0.75,0.0,1.25,3.0,3.5,0.5,5.75,0.75,6.5,3.75,3.75,7.5,0.64,0.08,1.08,588.46,6.7,-47.0
3.94,0.25,0.25,0.0,0.75,0.5,1.0,0.0,1.5,0.75,1.0,0.5,1.25,1.25,0.45,1.02,0.52,145.95,-3.5,-35.3,1.0,0.75,0.0,1.5,2.75,2.5,0.75,5.0,0.75,4.75,3.5,2.75,6.25,0.58,0.08,0.95,510.89,4.9,-41.1
3.96,0.0,0.5,0.0,1.0,0.0,0.25,0.0,1.75,0.5,0.5,0.25,1.25,0.75,0.52,0.33,0.45,110.36,-1.3,-35.9,1.25,1.0,0.0,1.25,3.0,2.0,0.75,4.25,0.75,2.5,2.5,1.25,5.0,0.52,-0.11,0.7,409.73,3.9,-28.0
3.98,0.0,0.5,0.0,0.75,0.0,0.25,0.0,1.75,0.75,0.25,0.25,1.25,0.75,0.27,-0.42,0.27,81.97,-1.0,-38.3,1.0,0.75,0.0,1.25,2.25,0.0,0.75,3.25,0.25,3.5,2.75,1.25,3.75,0.33,-0.11,0.58,329.76,2.4,-37.0
4.0,0.0,0.5,0.0,0.5,0.0,0.25,0.0,1.5,0.25,0.0,0.25,1.25,0.5,-0.42,-1.61,0.77,62.91,-1.0,-37.7,1.25,0.75,0.0,1.5,1.0,0.25,1.0,3.0,0.25,3.5,3.25,1.0,2.5,-0.3,0.52,0.83,267.05,0.5,-34.7
4.02,0.0,0.5,0.0,1.75,0.0,1.5,0.0,1.25,0.25,0.0,0.25,1.25,0.5,0.33,-1.36,1.52,65.02,-0.7,-8.7,0.5,0.5,0.0,1.25,2.75,2.0,0.75,2.5,0.5,1.5,2.0,1.25,1.5,0.39,0.45,0.27,216.79,2.6,-15.6
4.04,0.0,0.0,0.0,1.75,0.0,2.75,0.0,1.75,1.5,1.5,0.25,2.75,0.5,-0.05,2.27,2.7,92.66,-3.3,-33.1,1.25,0.75,0.0,1.0,3.0,0.0,0.75,2.25,0.5,1.5,0.0,1.25,0.25,1.33,-0.42,0.14,164.57,-1.6,4.9
4.06,0.75,1.75,0.0,2.0,0.75,4.0,0.0,4.0,2.75,4.75,4.0,5.75,5.5,0.64,1.52,1.77,234.09,-2.7,-44.9,1.0,0.75,0.0,0.0,0.0,0.0,0.0,1.75,0.25,1.0,0.25,0.0,0.75,0.95,-0.86,0.33,95.7,1.3,-15.4
4.08,1.75,1.75,2.25,2.0,5.25,4.25,1.5,5.25,2.75,4.5,4.0,5.75,6.25,0.08,-0.05,1.58,389.51,-0.1,-25.2,0.0,0.0,0.0,0.5,0.0,2.25,0.25,1.5,0.75,2.5,0.5,1.25,0.75,0.7,-0.73,0.7,62.34,8.5,-42.7
4.1,1.75,1.75,2.25,1.75,5.25,4.0,0.25,5.25,2.0,5.25,3.0,6.0,6.5,0.08,-0.05,0.83,568.0,-1.2,-27.2,0.0,0.0,0.0,0.0,3.0,0.0,0.75,1.75,0.75,1.5,2.25,1.25,0.0,0.83,-1.23,0.77,52.05,0.8,-28.0
4.12,1.75,1.75,1.75,1.75,5.0,3.0,0.25,5.0,2.0,5.75,3.5,6.5,6.5,-0.36,-0.05,0.89,679.6,-1.0,-31.9,0.0,0.0,0.0,0.0,3.0,0.0,0.75,1.75,0.75,0.25,2.75,0.0,0.25,0.83,-1.42,0.58,59.69,-0.1,-15.6
4.14,0.75,1.75,1.75,1.75,5.25,2.0,0.25,5.25,1.5,5.75,4.0,7.25,8.25,-0.36,0.02,0.95,757.65,-1.7,-40.1,1.5,0.75,0.0,1.25,0.0,2.0,0.0,0.5,0.75,1.75,0.5,1.0,0.75,0.83,-1.61,0.58,78.84,-1.3,-5.3
4.16,1.0,0.75,1.25,1.75,4.25,3.25,0.0,5.25,2.0,7.0,4.25,8.0,9.0,-0.23,-0.05,1.02,804.13,-3.0,-47.3,0.0,0.0,0.0,0.0,0.0,0.0,0.0,0.25,0.75,0.75,1.0,0.0,0.0,1.02,-1.61,0.83,58.74,-1.2,-62.0
4.18,0.0,0.5,1.75,0.75,2.25,1.75,0.0,5.25,1.25,6.0,5.0,8.0,8.25,-0.17,-0.11,1.08,795.96,-2.8,-60.1,0.0,0.0,0.0,0.0,3.0,0.0,0.75,1.75,0.5,0.25,2.5,0.0,0.0,0.95,-1.42,0.83,69.79,0.1,-10.6
4.2,2.0,0.5,1.25,1.75,5.25,4.0,0.0,5.25,1.25,6.0,4.0,8.0,10.0,-0.11,-0.05,1.39,830.64,-2.9,-42.6,0.0,0.0,0.0,0.25,0.0,0.0,0.25,0.25,0.5,0.25,0.75,0.0,0.0,0.83,-1.36,0.95,42.72,-6.7,-39.9
4.22,2.0,1.5,1.25,3.25,3.0,1.75,0.25,5.0,1.25,7.25,4.5,8.0,9.5,-0.48,-0.11,1.02,834.7,-1.0,-45.1,0.0,0.0,0.0,0.0,0.0,0.0,0.25,0.25,0.25,0.25,0.75,0.0,0.0,0.83,-1.3,1.27,28.21,-4.1,-56.2
4.24,0.5,0.75,2.25,1.25,1.25,3.0,0.0,5.0,1.25,6.5,4.75,9.0,9.0,-0.36,-0.17,0.95,816.64,-2.2,-57.4,0.0,0.0,0.0,0.0,0.0,0.0,0.25,0.25,0.25,0.0,0.25,0.0,0.0,0.45,-0.98,1.2,2.57,-6.1,-39.8
4.26,0.5,0.5,0.0,1.0,0.5,2.5,0.0,4.5,1.75,6.0,3.5,8.75,10.0,-0.36,-0.17,0.95,749.1,-4.8,-69.9,0.0,0.0,0.0,0.25,0.0,0.0,0.0,0.25,0.5,0.25,0.25,0.0,0.0,0.39,-0.61,1.2,0.0,-3.3,-33.8
4.28,2.0,1.75,0.0,1.75,0.5,3.0,0.0,4.0,1.0,6.0,2.25,8.75,8.5,-0.48,-0.23,0.89,671.47,-2.9,-53.9,0.25,0.0,0.0,0.0,0.0,0.0,0.0,0.25,0.25,0.25,0.25,0.0,0.0,0.58,-0.55,1.2,0.0,-4.6,-27.4
4.3,1.75,1.75,1.75,2.0,5.25,3.0,0.0,4.25,1.0,5.75,3.0,8.5,10.0,-0.67,-0.36,1.02,645.61,-1.7,-39.3,0.0,0.0,0.0,0.25,0.0,0.0,0.25,0.5,0.25,0.25,0.25,0.0,0.0,0.7,-0.92,1.02,0.0,-1.0,-29.3
4.32,0.25,2.0,1.5,3.25,0.5,1.75,0.0,3.25,0.25,4.25,1.5,7.25,8.5,-0.86,-0.73,1.14,573.74,-1.3,-49.4,0.0,0.0,0.0,0.0,0.0,0.0,0.25,0.25,0.25,0.0,0.25,0.0,0.0,0.39,-1.55,1.33,0.0,-6.1,-39.8
4.34,1.0,1.75,0.0,1.75,0.5,3.0,0.0,2.5,0.75,4.25,2.5,7.25,7.5,-1.17,-1.61,1.45,521.98,-2.8,-53.8,0.0,0.0,0.0,0.0,0.0,0.0,0.25,0.0,0.0,0.0,0.25,0.0,0.0,0.45,-1.8,1.77,0.0,-17.9,-41.4
4.36,0.75,1.75,0.75,1.0,2.5,0.25,0.0,3.75,0.25,1.75,2.5,4.5,7.25,-1.8,-2.86,1.89,428.14,-1.5,-45.8,0.0,0.0,0.0,0.0,0.0,0.0,0.25,0.25,0.0,0.25,0.25,0.0,0.0,0.95,-1.42,0.89,0.0,1.8,-50.5
4.38,0.0,0.5,0.0,0.0,0.0,0.0,0.0,2.0,0.25,1.5,0.25,2.0,2.75,-1.98,-3.42,3.83,292.48,-7.0,-74.7,0.0,0.0,0.0,0.0,0.0,0.0,0.25,0.25,0.0,0.0,0.5,0.0,0.0,1.27,-1.17,-0.3,0.0,-5.7,-50.3
4.4,0.0,0.5,0.0,0.0,0.0,0.25,0.0,2.25,0.25,0.5,0.5,1.25,2.5,0.89,-0.36,1.33,186.12,-7.5,-66.0,0.25,0.0,0.0,0.0,0.0,0.0,0.25,0.25,0.0,0.0,0.25,0.0,0.0,0.95,-0.61,-0.8,3.4,-12.3,-2.1
4.42,0.0,0.5,0.0,0.0,0.5,0.25,0.0,2.0,0.25,1.5,0.25,1.25,0.75,0.08,0.83,1.64,90.32,-7.0,-47.7,0.0,0.0,0.0,0.0,0.0,0.0,0.25,0.25,0.0,0.0,0.25,0.0,0.0,0.2,-0.11,0.64,2.7,-3.7,-40.3
4.44,0.0,0.5,0.0,0.0,0.5,0.25,0.0,2.0,0.25,1.5,0.25,1.25,0.5,0.2,1.08,1.45,26.94,-6.8,-45.4,0.0,0.0,0.0,0.0,0.0,0.0,0.25,0.25,0.25,0.0,0.5,0.0,0.0,-0.36,-0.48,0.89,11.8,-7.1,-47.6
4.46,0.0,0.5,0.0,0.0,0.5,0.25,0.0,1.75,0.25,1.5,0.25,1.25,0.75,0.14,0.89,0.52,0.0,-6.7,-48.0,0.0,0.0,0.0,0.0,0.0,0.0,0.25,0.0,0.0,0.0,0.5,0.0,0.75,-0.36,-0.73,1.08,16.3,1.0,-85.8
4.48,0.0,0.5,0.0,0.0,0.5,0.25,0.0,1.75,0.25,1.5,0.25,1.25,0.5,-0.8,-0.3,0.58,0.0,-6.4,-45.7,0.0,0.5,0.0,1.25,0.0,1.5,0.25,0.25,0.75,1.75,0.25,0.75,0.25,-0.42,-0.86,1.02,51.67,2.2,-16.4
4.5,0.0,0.5,0.0,0.0,0.5,0.25,0.0,1.75,0.25,1.25,0.25,1.25,0.5,-1.8,-1.8,0.7,1.17,-6.1,-44.5,0.0,0.0,0.0,0.0,0.0,0.0,0.25,0.25,0.0,0.0,0.5,0.0,0.25,-0.55,-1.17,0.39,50.31,-1.2,-64.1
4.52,0.0,0.5,0.0,0.0,0.0,0.25,0.0,1.25,0.25,1.0,0.25,1.25,0.5,-2.42,-2.11,1.08,0.0,-4.9,-54.4,0.0,0.0,0.0,0.0,0.0,0.0,0.25,0.25,0.25,0.0,0.25,0.0,0.0,-0.73,-1.36,0.52,46.6,-6.1,-39.8
4.54,0.0,0.0,0.0,0.0,0.5,0.25,0.0,1.5,0.25,1.25,0.25,1.25,0.5,-1.73,-1.17,0.83,6.06,-7.3,-57.5,0.0,0.0,0.0,0.0,0.0,0.0,0.25,0.25,0.0,0.0,0.0,0.0,0.0,-0.48,-1.23,0.45,28.11,0.8,-17.3
4.56,0.0,0.25,0.0,0.0,0.5,0.25,0.0,1.75,0.25,0.5,0.25,1.0,0.5,0.52,-0.3,-0.11,25.28,-6.3,-44.1,0.0,0.0,0.0,0.0,0.0,0.0,0.25,0.25,0.0,0.25,0.5,0.0,0.25,-0.23,-0.98,0.14,23.28,1.8,-66.2
4.58,0.0,0.25,0.0,0.0,0.5,0.25,0.0,1.5,0.25,0.75,0.25,1.25,0.5,1.02,0.02,-0.11,41.55,-5.6,-48.6,0.0,0.0,0.0,0.0,0.0,0.0,0.25,0.25,0.0,0.0,0.5,0.0,0.25,-0.23,-0.73,-0.23,17.26,-1.2,-64.1
4.6,0.0,0.25,0.0,0.0,0.5,0.25,0.0,1.5,0.25,0.5,0.25,0.5,0.5,-0.17,-0.36,0.14,54.52,-7.4,-37.2,0.0,0.0,0.0,0.0,0.0,0.0,0.25,0.25,0.0,0.0,0.25,0.0,0.25,-0.36,-0.48,-0.42,17.5,1.4,-60.9
4.62,0.0,0.25,0.0,0.0,0.5,0.25,0.0,1.5,0.25,0.5,0.25,0.5,0.5,-1.55,-1.05,0.89,67.48,-7.4,-37.2,0.0,0.0,0.0,0.0,0.0,0.0,0.25,0.0,0.0,0.25,0.5,0.0,0.0,-0.36,-0.36,-0.48,16.56,-6.0,-61.0
4.64,0.0,0.5,0.0,0.0,0.5,0.25,0.0,1.0,0.25,0.75,0.25,0.5,0.5,-1.73,-1.42,0.7,64.36,-5.7,-31.5,0.25,0.0,0.0,0.0,0.0,0.0,0.25,0.25,0.0,0.0,0.5,0.0,0.25,-0.3,-0.17,-0.61,16.11,-7.1,-35.9
4.66,0.0,0.5,0.0,0.0,0.5,0.25,0.0,1.0,0.0,0.5,0.25,1.0,0.5,-1.61,-1.23,0.45,63.61,-4.5,-37.2,0.0,0.0,0.0,0.0,0.0,0.0,0.25,0.25,0.0,0.0,0.25,0.0,0.0,-0.3,-0.05,-0.67,12.04,-3.7,-40.3
4.68,0.0,0.5,0.0,0.0,0.5,0.25,0.0,1.25,0.25,0.5,0.25,1.0,0.5,-1.42,-1.11,0.14,65.86,-4.3,-37.3,1.0,0.75,0.0,1.25,0.0,1.25,0.25,0.25,0.75,0.75,0.5,0.0,0.0,-0.23,0.08,-0.67,42.96,-6.1,23.8
4.7,0.0,0.25,0.0,0.0,0.5,0.25,0.0,1.0,0.25,0.5,0.25,1.0,0.5,-0.73,-1.48,-0.11,67.01,-4.6,-44.9,1.25,0.5,0.0,1.0,3.0,1.25,0.75,1.25,0.75,1.75,1.75,0.5,0.5,-0.23,0.27,-0.67,108.84,-1.0,0.9
4.72,0.0,0.25,0.0,0.0,0.5,0.25,0.0,1.0,0.25,0.0,0.25,0.0,0.5,-0.36,-1.42,0.14,59.92,-7.2,-19.0,1.25,0.5,0.0,1.25,2.5,1.25,0.75,1.5,0.75,1.75,2.0,0.5,0.5,-0.23,0.33,-0.8,166.41,-1.3,-2.1
4.74,0.0,0.5,0.0,0.0,0.5,0.25,0.0,1.0,0.25,0.5,0.25,0.75,0.5,-0.17,-1.3,0.14,60.16,-4.4,-33.3,1.0,0.5,0.0,1.25,3.0,1.25,0.75,1.25,0.75,1.75,2.5,0.5,0.5,-0.23,0.45,-0.86,212.93,-1.2,-3.2
4.76,0.0,0.5,0.0,0.0,0.5,0.25,0.0,1.0,0.25,0.5,0.25,1.0,0.5,-0.05,-1.17,0.14,62.54,-3.7,-37.2,1.0,0.75,0.0,1.0,2.75,1.25,0.75,1.0,0.75,1.5,2.0,0.5,0.75,-0.23,0.45,-0.98,230.27,-1.2,-1.2
4.78,0.0,0.5,0.0,0.0,0.5,0.25,0.0,1.0,0.25,0.5,0.25,0.5,0.5,0.02,-1.05,0.14,63.74,-5.1,-28.9,0.5,0.5,0.0,0.25,2.5,0.25,0.75,1.5,0.75,0.5,2.0,0.0,0.0,-0.3,0.45,-0.98,216.72,-2.2,1.4
4.8,0.0,0.5,0.0,0.0,0.5,0.25,0.0,1.0,0.25,0.25,0.25,0.75,0.5,0.14,-1.05,0.08,64.94,-3.7,-30.9,1.0,0.75,0.0,1.25,1.25,1.25,1.0,1.75,0.75,1.75,2.0,0.5,0.5,-0.36,0.39,-0.92,211.82,-1.4,-8.3
4.82,0.0,0.5,0.0,0.0,0.5,0.25,0.0,1.0,0.25,0.25,0.25,0.5,0.5,0.27,-0.98,0.08,63.85,-4.5,-26.1,1.0,1.0,0.0,1.0,2.75,1.25,0.75,0.75,0.75,1.5,1.75,0.75,0.5,-0.36,0.39,-0.92,211.88,-2.0,2.7
4.84,0.0,0.25,0.0,0.0,0.5,0.25,0.0,1.0,0.25,0.5,0.0,0.75,0.5,0.33,-0.98,0.02,63.18,-6.4,-39.2,0.75,0.5,0.0,1.25,3.0,1.25,0.75,0.75,0.75,1.75,2.25,0.5,0.5,-0.36,0.33,-0.92,218.17,-1.1,-2.4
4.86,0.0,0.5,0.0,0.0,0.5,0.0,0.0,1.0,0.25,0.25,0.25,0.75,0.5,0.39,-1.05,-0.11,61.63,-2.6,-34.6,1.0,0.5,0.0,0.5,2.75,1.25,0.75,1.0,0.75,1.75,2.0,0.5,1.0,-0.42,0.33,-0.92,217.83,0.1,-8.8
4.88,0.0,0.5,0.0,0.0,0.5,0.25,0.0,1.0,0.0,0.0,0.25,0.25,0.5,0.39,-0.86,-0.05,57.84,-5.9,-15.2,0.25,0.5,0.0,1.25,2.75,1.25,0.75,1.0,0.75,1.75,2.25,0.5,0.5,-0.42,0.33,-0.92,214.87,0.2,-7.7
4.9,0.0,0.5,0.0,0.0,0.5,0.25,0.0,1.0,0.25,0.25,0.0,0.25,0.5,0.39,-0.61,-0.05,55.32,-6.5,-16.9,1.0,1.0,0.0,0.75,2.75,1.25,0.75,0.75,0.75,1.75,2.0,0.5,0.5,-0.36,0.33,-0.92,208.08,-1.5,0.8
4.92,0.0,0.5,0.0,0.0,0.5,0.25,0.0,1.0,0.25,0.5,0.25,0.5,0.5,0.39,-0.48,-0.05,56.81,-5.1,-28.9,0.75,0.75,0.0,1.5,2.5,1.25,0.75,1.0,0.75,1.75,1.75,0.5,0.5,-0.36,0.33,-0.92,199.21,-1.2,0.1
4.94,0.0,0.5,0.0,0.0,0.5,0.25,0.0,1.0,0.25,0.25,0.25,0.5,0.5,0.39,-0.3,-0.11,58.88,-4.5,-26.1,1.25,0.5,0.0,1.25,2.25,1.25,0.75,1.25,0.75,1.75,2.0,0.75,0.25,-0.36,0.27,-0.92,195.88,-2.2,-2.5
4.96,0.0,0.5,0.0,0.0,0.5,0.25,0.0,1.0,0.25,0.25,0.25,0.5,0.25,0.39,-0.11,-0.23,59.69,-3.9,-20.4,0.0,0.0,0.0,0.0,0.0,0.0,0.0,0.25,0.0,0.0,0.25,0.0,0.0,-0.36,0.2,-0.92,136.89,3.2,-56.8
4.98,0.0,0.5,0.0,0.0,0.5,0.25,0.0,1.0,0.25,0.25,0.25,0.25,0.5,0.33,-0.05,-0.42,58.19,-5.4,-20.6,0.0,0.0,0.0,0.0,0.0,0.0,0.25,0.25,0.0,0.0,0.75,0.0,0.0,-0.36,0.14,-0.92,80.15,-6.8,-55.8
5.0,0.0,0.5,0.0,0.0,0.5,0.25,0.0,1.0,0.25,0.5,0.25,0.5,0.5,0.27,0.02,-0.48,60.13,-5.1,-28.9,0.0,0.0,0.0,0.0,0.0,0.0,0.25,0.25,0.25,0.25,0.25,0.0,0.0,-0.36,0.08,-0.86,23.91,-1.2,-47.9
5.02,0.0,0.5,0.0,0.0,0.5,0.0,0.0,1.0,0.0,0.5,0.25,0.25,0.5,0.27,0.02,-0.55,58.47,-6.1,-26.8,0.0,0.0,0.0,0.0,0.0,0.0,0.0,0.25,0.0,0.0,0.25,0.0,0.0,-0.36,0.08,-0.67,0.0,3.2,-56.8
5.04,0.0,0.0,0.0,0.0,0.5,0.0,0.0,1.0,0.25,0.0,0.0,0.25,0.5,0.2,0.02,-0.55,52.37,-7.9,-39.0,0.0,0.0,0.0,0.0,0.0,0.0,0.25,0.25,0.0,0.0,0.5,0.0,0.0,-0.36,0.02,-0.61,0.0,-5.7,-50.3
5.06,0.0,0.5,0.0,0.0,0.5,0.0,0.0,1.0,0.0,0.0,0.25,0.75,0.5,0.2,0.08,-0.61,51.11,-2.7,-31.5,1.0,0.75,0.0,1.25,2.25,1.25,1.0,0.75,0.75,1.75,1.5,0.5,0.75,-0.36,0.02,-0.42,41.4,-1.7,-0.1
5.08,0.0,0.5,0.0,0.0,0.5,0.25,0.0,1.0,0.25,0.5,0.25,0.5,0.5,0.2,0.08,-0.61,54.22,-5.1,-28.9,0.0,0.0,0.0,0.0,2.75,0.0,0.75,0.5,0.0,0.0,2.0,0.0,0.25,-0.36,-0.05,-0.36,65.76,-1.6,-2.1
5.1,0.0,0.5,0.0,0.0,0.5,0.25,0.0,1.0,0.25,0.5,0.0,0.25,0.5,0.27,0.08,-0.67,56.81,-7.1,-20.7,0.5,0.0,0.0,0.0,0.0,0.0,0.0,0.25,0.0,0.0,0.5,0.0,0.0,-0.3,-0.05,-0.3,61.2,-14.4,-0.4
5.12,0.0,0.5,0.0,0.0,0.5,0.25,0.0,1.0,0.25,0.5,0.25,0.5,0.5,0.33,0.08,-0.8,61.46,-5.1,-28.9,0.0,0.0,0.0,0.0,0.0,0.0,0.0,0.0,0.0,0.0,0.25,0.0,0.0,-0.17,0.02,-0.05,31.26,-10.7,-75.5
5.14,0.0,0.5,0.0,0.0,0.5,0.25,0.0,1.0,0.25,0.5,0.25,0.5,0.25,0.33,0.08,-0.86,62.46,-4.6,-23.8,0.0,0.0,0.0,0.0,0.0,0.0,0.0,0.0,0.0,0.0,0.25,0.0,0.25,0.02,0.02,0.33,7.75,1.8,-93.2
5.16,0.0,0.5,0.0,0.0,0.5,0.0,0.0,1.0,0.25,0.25,0.25,0.5,0.5,0.33,0.08,-0.92,61.48,-3.4,-29.8,0.0,0.0,0.0,0.0,0.0,0.0,0.0,0.0,0.0,0.0,0.5,0.0,0.0,0.2,-0.17,0.58,0.0,-10.7,-75.5
5.18,0.0,0.75,0.0,0.0,0.5,0.0,0.0,1.0,0.0,0.25,0.25,0.75,0.5,0.33,0.14,-0.98,61.44,-2.6,-26.0,0.25,0.0,0.0,0.0,0.0,0.0,0.0,0.0,0.0,0.0,0.5,0.0,0.25,0.33,-0.61,0.64,0.0,-10.1,-43.0
5.2,0.0,0.0,0.0,0.25,0.5,0.25,0.0,1.0,0.25,0.5,0.25,0.0,0.25,0.27,0.14,-1.05,58.13,-7.6,-23.6,0.0,0.5,0.0,0.25,0.0,1.25,0.25,0.25,0.75,1.5,0.5,0.5,0.0,0.52,-1.11,0.7,36.51,3.8,-23.9
5.22,0.0,0.5,0.0,0.0,0.5,0.25,0.0,1.0,0.25,0.5,0.25,0.25,0.25,0.27,0.2,-1.05,57.73,-5.5,-18.2,0.75,0.75,0.0,1.0,2.5,1.25,0.75,0.25,0.75,1.75,2.5,0.5,1.0,0.77,-1.86,0.89,99.07,-1.5,-8.0
5.24,0.0,0.5,0.0,0.0,0.5,0.25,0.0,1.0,0.25,0.25,0.25,0.25,0.25,0.2,0.27,-1.05,56.08,-4.8,-14.2,0.0,0.0,0.0,0.0,3.0,0.0,0.5,0.0,0.0,0.0,2.0,0.0,1.0,0.77,-2.3,1.14,118.92,-0.4,-10.0
5.26,0.0,0.5,0.0,0.0,0.5,0.0,0.0,1.0,0.25,0.25,0.0,0.5,0.5,0.27,0.27,-1.05,56.28,-4.3,-26.7,0.0,0.0,0.0,0.0,0.0,0.0,0.0,0.0,0.0,0.0,0.75,0.0,0.25,0.52,-2.3,1.02,101.85,-4.3,-84.5
5.28,0.0,0.5,0.0,0.0,0.5,0.0,0.0,1.0,0.0,0.0,0.25,0.75,0.5,0.27,0.2,-0.98,55.32,-2.7,-31.5,0.0,0.0,0.0,0.0,0.0,0.0,0.0,0.0,0.0,0.0,0.5,0.0,0.25,0.08,-1.92,0.64,63.57,-2.2,-87.4
5.3,0.0,0.5,0.0,0.0,0.5,0.0,0.0,1.0,0.25,0.0,0.25,0.25,0.5,0.14,0.14,-0.8,52.82,-3.4,-20.4,0.0,0.0,0.0,0.0,0.0,0.0,0.0,0.0,0.0,0.0,0.25,0.0,0.0,-0.36,-1.48,0.52,24.39,-10.7,-75.5
5.32,0.0,0.5,0.0,0.0,0.5,0.0,0.0,1.0,0.25,0.5,0.25,0.5,0.25,0.02,0.02,-0.67,53.35,-3.5,-27.4,0.0,0.0,0.0,0.0,0.0,0.0,0.0,0.0,0.0,0.0,0.25,0.0,0.0,-0.67,-0.92,0.33,9.96,-10.7,-75.5
5.34,0.0,0.5,0.0,0.25,0.5,0.0,0.0,1.0,0.0,0.25,0.0,0.25,0.25,-0.23,0.02,-0.48,51.53,-4.1,-5.1,0.0,0.0,0.0,0.0,0.0,0.0,0.0,0.0,0.0,0.0,0.5,0.0,0.25,-0.67,-0.67,0.45,8.44,-2.2,-87.4
5.36,0.0,0.0,0.0,0.25,0.5,0.0,0.0,1.0,0.0,0.25,0.0,0.0,0.25,-0.48,0.14,-0.17,45.77,-9.2,-16.9,0.0,0.0,0.0,0.0,0.0,0.0,0.0,0.0,0.0,0.0,0.25,0.0,0.0,-0.55,-1.05,0.77,5.57,-10.7,-75.5
5.38,0.0,0.5,0.0,0.0,0.5,0.25,0.0,1.0,0.25,0.5,0.25,0.5,0.5,-0.61,0.14,-0.11,50.34,-5.1,-28.9,0.0,0.0,0.0,0.0,0.0,0.0,0.0,0.0,0.0,0.0,0.5,0.0,0.0,0.83,-1.67,1.08,0.81,-10.7,-75.5
5.4,0.0,0.5,0.0,0.0,0.5,0.25,0.0,1.0,0.25,0.0,0.25,0.5,0.5,-0.61,0.02,-0.05,52.93,-3.8,-22.8,0.0,0.0,0.0,0.0,0.0,0.0,0.0,0.0,0.0,0.0,0.25,0.0,0.5,1.27,-2.05,0.83,0.0,5.8,-98.8
5.42,0.0,0.5,0.0,0.0,0.5,0.0,0.0,1.0,0.0,0.5,0.0,0.5,0.5,-0.67,-0.3,0.02,55.66,-6.2,-29.3,0.0,0.0,0.0,0.0,0.0,0.0,0.0,0.0,0.0,0.0,0.5,0.0,0.25,1.27,-2.48,1.33,0.0,-2.2,-87.4
5.44,0.0,0.5,0.0,0.0,0.5,0.0,0.0,1.0,0.25,0.25,0.25,0.0,0.5,-0.8,-0.67,0.08,55.05,-5.2,-17.9,0.0,0.0,0.0,0.0,0.0,0.0,0.0,0.0,0.0,0.5,0.25,0.0,0.25,1.33,-2.48,1.14,0.0,8.7,-84.3
5.46,0.0,0.5,0.0,0.0,0.5,0.25,0.0,1.0,0.25,0.25,0.25,0.5,0.5,-0.67,-0.92,0.33,57.33,-4.5,-26.1,0.0,0.0,0.0,0.0,0.0,0.0,0.0,0.0,0.0,0.0,0.5,0.0,0.0,1.39,-2.05,0.83,0.0,-10.7,-75.5
5.48,0.0,0.5,0.0,0.0,0.5,0.25,0.0,1.0,0.0,0.25,0.25,0.25,0.5,-0.55,-0.98,0.27,56.42,-6.6,-19.4,0.0,0.0,0.0,0.5,0.0,0.0,0.0,0.25,0.0,0.0,0.25,0.0,0.0,1.2,-1.42,0.52,9.05,-7.3,2.3
5.5,0.0,0.0,0.0,0.0,0.5,0.0,0.0,1.0,0.0,0.25,0.25,0.0,0.25,-0.3,-0.98,0.14,50.1,-10.1,-31.4,0.0,0.0,0.0,0.0,0.0,0.0,0.0,0.25,0.0,0.0,0.25,0.0,0.0,0.95,-0.92,0.14,12.25,3.2,-56.8
5.52,0.0,0.0,0.0,0.0,0.5,0.0,0.0,1.0,0.25,0.5,0.25,0.0,0.5,-0.05,-0.98,0.14,48.06,-9.0,-42.1,0.0,0.0,0.0,0.0,0.0,0.0,0.0,0.25,0.0,0.0,0.25,0.0,0.0,0.64,-0.61,0.08,11.51,3.2,-56.8
5.54,0.0,0.25,0.0,0.0,0.5,0.25,0.0,1.0,0.0,0.5,0.25,0.5,0.25,0.02,-1.11,0.39,48.39,-7.0,-31.7,0.0,0.0,0.0,0.0,0.0,0.0,0.0,0.25,0.0,0.0,0.25,0.0,0.0,0.33,-0.36,0.08,9.9,3.2,-56.8
5.56,0.0,0.25,0.0,0.0,0.5,0.25,0.0,1.0,0.0,0.5,0.25,0.5,0.5,-0.11,-1.3,0.52,52.24,-7.5,-36.9,0.0,0.0,0.0,0.5,0.0,0.0,0.0,0.25,0.0,0.5,0.5,0.0,0.0,0.14,-0.3,0.14,15.61,-1.2,-30.5
5.58,0.0,0.5,0.0,1.75,0.5,0.0,0.0,1.0,0.0,0.5,1.0,0.5,0.75,-0.23,-1.67,0.77,70.87,2.3,-15.1,0.0,0.0,0.0,0.0,0.0,0.0,0.0,0.25,0.0,0.25,0.25,0.0,0.0,0.08,-0.23,0.14,15.64,7.4,-63.1
5.6,0.0,0.25,0.0,0.0,0.5,0.0,0.0,1.0,0.0,0.5,0.0,0.5,0.5,-0.42,-2.05,0.83,70.4,-7.7,-39.1,0.0,0.0,0.0,0.0,0.0,0.0,0.0,0.25,0.0,0.0,0.5,0.0,0.0,0.14,-0.23,0.14,16.58,-1.4,-63.0
5.62,0.25,0.5,0.0,1.75,3.75,1.75,0.0,2.0,0.25,1.75,1.25,1.25,0.5,-0.73,-2.17,0.89,128.86,-3.0,-2.2,0.0,0.0,0.0,0.25,0.0,0.0,0.0,0.0,0.0,0.0,0.25,0.0,0.0,0.33,-0.23,0.14,12.99,-14.1,-6.1
5.64,0.5,0.75,0.0,1.75,3.0,1.75,0.0,2.0,0.25,1.5,1.0,1.25,0.75,-0.73,-2.23,0.89,172.74,-2.3,-1.6,0.0,0.0,0.0,0.0,0.0,0.0,0.0,0.0,0.0,0.0,0.25,0.0,0.0,0.45,-0.48,0.14,9.04,-10.7,-75.5
5.66,0.0,0.25,0.0,0.0,3.5,0.25,0.0,2.0,0.0,0.0,1.25,0.5,0.5,-0.98,-3.05,0.7,186.38,-4.4,-3.3,0.0,0.0,0.0,0.0,0.0,0.0,0.0,0.0,0.0,0.0,0.25,0.0,0.0,0.58,-0.67,0.14,5.45,-10.7,-75.5
5.68,0.0,0.5,0.0,0.0,0.5,0.0,0.0,1.0,0.0,0.25,0.25,1.0,0.5,-1.42,-2.73,1.08,157.58,-2.8,-38.9,0.0,0.0,0.0,0.0,0.0,0.0,0.0,0.25,0.0,0.0,0.25,0.0,0.0,0.64,-0.8,0.27,5.16,3.2,-56.8
5.7,0.25,1.75,0.0,1.75,3.5,1.75,0.0,2.0,0.25,1.5,1.25,1.25,0.75,-0.98,-2.42,0.95,181.94,-1.7,4.0,0.0,0.0,0.0,0.0,0.0,0.0,0.0,0.0,0.0,0.0,0.25,0.0,0.0,0.64,-0.86,0.33,4.65,-10.7,-75.5
5.72,0.0,1.75,0.0,1.75,3.5,1.75,0.0,2.0,0.25,1.5,1.25,1.25,0.75,-0.92,-1.98,0.64,202.88,-2.2,2.7,0.0,0.0,0.0,0.0,0.0,0.0,0.0,0.0,0.0,0.0,0.25,0.0,0.0,0.58,-0.86,0.39,3.81,-10.7,-75.5
5.74,0.0,1.75,0.25,1.75,3.75,1.75,0.0,2.0,0.25,1.75,1.0,1.25,0.5,-0.73,-1.36,0.52,234.19,-1.9,6.2,0.0,0.0,0.0,0.0,0.0,0.0,0.0,0.25,0.0,0.0,0.25,0.0,0.0,0.52,-0.86,0.58,4.83,3.2,-56.8
5.76,0.0,1.75,0.25,1.75,2.5,1.25,0.0,2.0,0.25,1.5,1.25,1.25,0.5,-0.55,-0.92,0.33,242.91,-0.6,0.7,0.0,0.0,0.0,0.0,0.0,0.0,0.0,0.25,0.0,0.0,0.25,0.0,0.0,0.45,-0.86,0.64,5.51,3.2,-56.8
5.78,0.0,1.75,0.5,1.75,3.5,1.5,0.0,2.0,0.25,1.5,1.25,1.25,0.5,-0.36,-0.55,0.08,250.56,-0.5,5.9,0.0,0.0,0.0,0.0,0.0,0.0,0.0,0.0,0.0,0.0,0.25,0.0,0.0,0.52,-0.86,0.64,4.73,-10.7,-75.5
5.8,0.0,1.75,0.75,1.75,2.5,1.0,0.0,2.0,0.25,1.5,1.25,1.25,0.5,-0.23,-0.36,-0.05,240.41,1.0,2.2,0.0,0.0,0.0,0.0,0.0,0.0,0.0,0.0,0.0,0.0,0.25,0.0,0.0,0.52,-0.8,0.64,3.83,-10.7,-75.5
5.82,0.0,1.5,0.75,1.75,2.25,1.0,0.0,2.0,0.5,2.0,1.25,1.25,0.5,-0.11,-0.3,-0.11,234.03,0.5,-3.5,0.0,0.0,0.0,0.0,0.0,0.0,0.0,0.0,0.0,0.0,0.25,0.0,0.0,0.52,-0.73,0.45,4.12,-10.7,-75.5
5.84,0.25,1.25,0.75,1.75,3.0,1.25,0.0,2.0,0.25,1.5,1.0,1.25,0.5,-0.11,-0.36,0.08,230.22,0.4,4.1,0.0,0.0,0.0,0.0,0.0,0.0,0.0,0.0,0.0,0.0,0.25,0.0,0.0,0.52,-0.67,0.39,3.82,-10.7,-75.5
5.86,0.25,1.75,0.25,1.75,2.25,1.5,0.0,2.0,0.25,1.5,1.25,1.25,0.75,-0.11,-0.42,0.14,222.85,-0.6,-0.1,0.0,0.0,0.0,0.25,0.0,0.0,0.0,0.0,0.0,0.0,0.25,0.0,0.0,0.45,-0.61,0.33,5.28,-14.1,-6.1
5.88,0.25,1.75,1.0,1.75,2.25,1.25,0.0,2.0,0.25,1.5,1.25,1.25,0.5,-0.11,-0.48,0.08,225.2,1.8,4.2,0.0,0.0,0.0,0.0,0.0,0.0,0.0,0.25,0.0,0.0,0.25,0.0,0.0,0.45,-0.55,0.33,6.78,3.2,-56.8
5.9,0.25,1.75,0.5,1.75,2.5,1.0,0.0,2.0,0.25,1.5,1.0,1.25,0.5,-0.23,-0.55,0.08,224.63,0.7,4.0,0.0,0.0,0.0,0.0,0.0,0.0,0.0,0.0,0.0,0.0,0.25,0.0,0.0,0.45,-0.55,0.33,6.46,-10.7,-75.5
5.92,0.0,1.75,1.0,1.75,2.25,1.0,0.0,2.0,0.25,1.5,1.0,1.25,0.5,-0.36,-0.73,0.14,219.34,1.6,3.5,0.0,0.0,0.0,0.0,0.0,0.0,0.0,0.25,0.0,0.0,1.0,0.0,0.0,0.45,-0.61,0.33,11.5,-5.1,-67.9
5.94,0.0,1.75,0.5,1.75,2.5,1.0,0.0,2.0,0.25,1.5,1.25,1.25,0.75,-0.55,-0.92,0.27,209.08,0.1,-0.6,0.0,0.0,0.0,0.0,0.0,0.0,0.0,0.0,0.0,0.0,0.25,0.0,0.0,0.39,-0.61,0.39,10.36,-10.7,-75.5
5.96,0.0,1.75,0.75,1.75,3.0,0.5,0.0,2.0,0.25,1.5,1.25,1.25,0.75,-0.73,-0.98,0.33,211.18,1.3,1.3,0.0,0.0,0.0,0.0,0.0,0.0,0.0,0.0,0.0,0.0,0.25,0.0,0.0,0.39,-0.61,0.39,9.27,-10.7,-75.5
5.98,0.0,1.75,1.0,1.75,2.25,0.75,0.0,1.75,0.25,0.5,1.25,1.25,0.5,-0.86,-1.05,0.33,206.01,3.8,8.3,0.25,0.0,0.0,0.0,0.0,0.0,0.0,0.25,0.0,0.0,0.25,0.0,0.0,0.33,-0.55,0.39,8.95,-9.0,-7.0
6.0,0.0,1.25,0.75,1.75,2.5,0.0,0.0,1.75,0.25,1.5,1.0,1.25,0.5,-1.05,-0.98,0.33,199.17,2.4,-1.6,0.0,0.0,0.0,0.0,0.0,0.0,0.0,0.0,0.0,0.0,0.25,0.0,0.0,0.27,-0.48,0.33,7.71,-10.7,-75.5
6.02,0.0,1.0,0.0,1.75,3.75,1.0,0.0,1.75,0.25,1.5,1.0,1.25,0.5,-1.17,-0.86,0.33,196.7,-1.8,1.1,0.0,0.0,0.0,0.0,0.0,0.0,0.0,0.0,0.0,0.0,0.25,0.0,0.0,0.2,-0.42,0.33,6.43,-10.7,-75.5
6.04,0.0,1.0,1.0,1.75,3.0,1.0,0.0,2.0,0.25,1.5,0.75,1.25,0.5,-1.17,-0.8,0.33,199.0,0.5,2.8,0.0,0.0,0.0,0.0,0.0,0.0,0.0,0.25,0.0,0.0,0.25,0.0,0.0,0.14,-0.42,0.39,6.6,3.2,-56.8
6.06,0.0,1.5,1.0,1.75,3.0,1.25,0.0,1.75,0.25,1.5,1.25,1.25,0.5,-1.11,-0.73,0.27,206.69,1.2,4.7,0.0,0.0,0.0,0.0,0.0,0.0,0.0,0.0,0.0,0.0,0.5,0.0,0.0,0.08,-0.42,0.45,7.37,-10.7,-75.5
6.08,0.25,1.75,0.75,1.75,3.75,1.5,0.0,1.75,0.25,1.5,1.0,1.25,0.5,-0.98,-0.61,0.2,218.9,0.5,10.7,0.0,0.0,0.0,0.0,0.0,0.0,0.0,0.0,0.0,0.0,0.25,0.0,0.0,0.14,-0.36,0.52,6.2,-10.7,-75.5
6.1,0.0,1.75,1.0,1.75,3.5,1.25,0.0,1.75,0.25,1.5,1.25,1.25,0.5,-0.86,-0.55,0.2,227.93,1.2,7.9,0.0,0.0,0.0,0.0,0.0,0.0,0.0,0.25,0.0,0.0,0.5,0.0,0.0,0.14,-0.42,0.64,8.14,-1.4,-63.0
6.12,0.0,1.75,1.0,1.75,3.5,0.75,0.0,1.75,0.0,0.0,1.0,0.0,0.5,-0.67,-0.48,0.2,219.62,3.0,30.8,0.0,0.0,0.0,0.0,0.0,0.0,0.0,0.0,0.0,0.0,0.25,0.0,0.0,0.2,-0.48,0.77,7.01,-10.7,-75.5
6.14,0.0,0.25,0.0,0.0,0.5,0.0,0.0,0.25,0.0,0.0,0.0,0.25,0.25,-0.61,-0.48,0.2,157.26,-2.6,-5.5,0.0,0.0,0.0,0.0,0.0,0.0,0.0,0.0,0.0,0.0,0.5,0.0,0.25,0.27,-0.42,0.83,9.33,-2.2,-87.4
6.16,0.0,1.25,0.25,1.5,3.75,1.0,0.0,1.75,0.25,1.5,0.75,1.25,0.5,-0.48,-0.48,0.2,154.7,-1.4,4.1,0.0,0.0,0.0,0.0,0.0,0.0,0.0,0.0,0.0,0.0,0.5,0.0,0.0,0.52,-0.36,0.52,8.79,-10.7,-75.5
6.18,0.0,1.5,0.0,1.75,3.75,1.0,0.0,1.75,0.25,1.5,1.25,1.25,0.5,-0.42,-0.55,0.27,160.61,-1.1,3.2,0.25,0.0,0.0,0.0,0.0,0.0,0.0,0.0,0.0,0.0,0.25,0.0,0.0,0.58,-0.17,0.52,10.01,-22.6,9.6
6.2,0.0,1.75,0.5,1.75,3.75,1.0,0.0,1.75,0.25,1.5,1.25,1.25,0.5,-0.36,-0.55,0.33,192.18,0.3,6.6,0.0,0.0,0.0,0.0,0.0,0.0,0.0,0.0,0.0,0.0,0.25,0.0,0.25,0.77,-0.05,0.45,9.39,1.8,-93.2
6.22,0.0,1.5,0.75,1.75,3.75,1.5,0.0,1.75,0.25,1.5,1.0,1.25,0.5,-0.36,-0.61,0.39,213.14,0.0,8.0,0.0,0.0,0.0,0.0,0.0,0.0,0.0,0.0,0.0,0.0,0.25,0.0,0.0,1.08,0.2,0.33,7.65,-10.7,-75.5
6.24,0.0,1.75,0.75,1.75,3.75,1.0,0.0,1.75,0.25,1.5,0.75,1.25,0.5,-0.36,-0.61,0.45,227.23,0.6,10.0,0.0,0.0,0.0,0.0,0.0,0.0,0.0,0.0,0.0,0.0,0.25,0.0,0.0,1.45,0.39,0.02,6.34,-10.7,-75.5
6.26,0.0,1.5,0.25,1.75,3.75,1.75,0.0,1.75,0.25,1.5,1.0,1.25,0.5,-0.42,-0.48,0.58,227.19,-1.6,6.7,0.0,0.0,0.0,0.0,0.0,0.0,0.0,0.0,0.0,0.0,0.25,0.0,0.0,1.77,0.45,-0.05,4.76,-10.7,-75.5
6.28,0.0,1.75,0.5,1.75,3.75,1.25,0.0,2.0,0.25,1.5,1.25,1.25,0.5,-0.36,-0.36,0.58,229.04,-0.2,6.3,0.0,0.0,0.0,0.0,0.0,0.0,0.0,0.0,0.0,0.0,0.25,0.0,0.0,1.77,0.2,0.14,3.96,-10.7,-75.5
6.3,0.0,1.75,1.0,1.75,3.5,1.5,0.0,1.75,0.25,2.0,0.75,1.25,0.5,-0.3,-0.42,0.45,234.6,0.1,8.2,0.0,0.0,0.0,0.0,0.0,0.0,0.0,0.0,0.0,0.0,0.25,0.0,0.0,1.45,-0.11,0.14,3.52,-10.7,-75.5
6.32,0.0,1.5,0.25,2.0,2.5,1.0,0.0,2.0,0.0,1.75,0.75,1.25,0.5,-0.42,-0.61,0.58,227.7,-1.0,1.4,0.0,0.0,0.0,0.25,0.0,0.0,0.0,0.0,0.0,0.0,0.25,0.0,0.0,0.64,-0.17,0.14,4.86,-14.1,-6.1
6.34,0.0,1.5,0.25,1.75,2.5,1.5,0.0,2.0,0.25,1.5,1.25,1.25,0.5,-0.55,-0.67,0.52,224.49,-1.2,-0.4,0.0,0.0,0.0,0.0,0.0,0.0,0.0,0.0,0.0,0.0,0.25,0.0,0.0,0.2,-0.05,0.39,4.47,-10.7,-75.5
6.36,0.0,1.75,1.0,1.75,2.5,1.25,0.0,2.0,0.25,1.5,0.75,1.25,0.5,-0.61,-0.48,0.39,222.54,0.9,6.3,0.0,0.0,0.0,0.25,0.0,0.0,0.25,0.25,0.0,0.25,0.5,0.0,0.0,0.14,0.02,0.64,10.65,-4.0,-34.1
6.38,0.0,1.75,1.0,1.75,3.0,1.5,0.0,2.0,0.25,1.5,0.75,1.25,0.5,-0.73,-0.11,0.33,225.49,0.4,8.4,0.25,0.25,0.0,0.5,0.0,0.5,0.25,0.25,0.0,0.5,0.25,0.0,0.75,0.7,0.02,0.45,26.38,1.9,-15.5
6.4,0.0,1.75,0.25,1.75,3.5,1.0,0.0,2.0,0.25,1.5,1.0,1.25,0.5,-1.05,0.08,0.14,217.07,-0.6,5.4,0.75,0.75,0.0,1.25,0.0,1.25,1.0,1.0,0.25,1.5,1.5,0.0,1.0,1.08,0.02,0.39,74.75,-0.9,-11.3
6.42,0.0,1.75,0.25,1.75,3.0,1.75,0.0,2.0,0.25,1.5,1.0,1.25,0.5,-1.11,0.27,0.33,219.14,-1.6,4.9,0.75,0.75,0.0,0.5,2.5,0.0,0.75,0.25,0.0,0.0,0.25,0.0,0.75,1.14,0.14,0.39,101.93,-5.0,34.8
6.44,0.0,1.75,0.75,1.75,3.75,1.5,0.0,2.0,0.25,1.5,1.0,1.25,0.5,-1.3,0.39,0.33,224.27,-0.1,8.7,1.0,0.75,0.0,1.25,0.0,1.25,0.25,0.5,0.5,1.5,0.5,0.0,0.0,0.83,0.33,0.45,124.67,-2.8,13.5
