time,left pressure 0[N/cm虏],left pressure 1[N/cm虏],left pressure 2[N/cm虏],left pressure 3[N/cm虏],left pressure 4[N/cm虏],left pressure 5[N/cm虏],left pressure 6[N/cm虏],left pressure 7[N/cm虏],left pressure 8[N/cm虏],left pressure 9[N/cm虏],left pressure 10[N/cm虏],left pressure 11[N/cm虏],left pressure 12[N/cm虏],left acceleration X[g],left acceleration Y[g],left acceleration Z[g],left total force[N],left center of pressure X[mm],left center of pressure Y[mm],right pressure 0[N/cm虏],right pressure 1[N/cm虏],right pressure 2[N/cm虏],right pressure 3[N/cm虏],right pressure 4[N/cm虏],right pressure 5[N/cm虏],right pressure 6[N/cm虏],right pressure 7[N/cm虏],right pressure 8[N/cm虏],right pressure 9[N/cm虏],right pressure 10[N/cm虏],right pressure 11[N/cm虏],right pressure 12[N/cm虏],right acceleration X[g],right acceleration Y[g],right acceleration Z[g],right total force[N],right center of pressure X[mm],right center of pressure Y[mm]
0.02,4.75,0.75,2.5,5.25,6.75,8.0,8.75,7.75,5.75,5.75,3.75,2.5,3.75,-0.11,-0.05,1.02,1026.49,2.4,-2.3,11.0,4.25,7.75,10.5,10.5,7.25,0.75,2.5,1.25,3.0,2.0,1.25,1.25,0.02,0.27,1.08,992.52,-10.3,41.4
0.04,4.5,1.75,2.5,4.75,6.75,7.5,8.5,7.25,5.25,4.75,3.75,2.0,3.0,-0.11,-0.05,0.95,960.77,3.0,2.3,12.0,4.5,8.75,12.0,12.0,7.75,3.0,2.5,1.75,3.0,2.0,1.25,1.5,0.08,0.27,1.14,1271.44,-10.9,41.9
0.06,4.25,1.75,2.5,4.5,6.75,7.0,8.0,7.0,4.75,4.25,4.0,2.0,2.75,-0.11,-0.05,0.95,890.71,3.2,2.6,12.0,5.25,8.75,12.0,13.0,8.25,4.25,2.5,2.0,3.0,2.0,1.5,1.5,0.14,0.2,1.08,1453.74,-10.6,41.8
0.08,3.25,1.25,2.25,4.5,6.5,7.0,7.5,6.5,4.25,4.25,3.25,2.0,2.75,-0.17,0.02,0.95,811.46,2.3,1.2,12.5,5.25,9.25,12.5,13.5,8.25,5.5,2.75,2.5,3.0,2.0,1.5,1.25,0.14,0.14,1.14,1575.77,-11.1,42.0
0.1,3.0,0.75,2.25,3.5,6.5,5.75,7.5,6.25,3.0,4.25,3.0,1.25,2.25,-0.11,0.02,0.95,718.94,2.2,2.2,13.0,5.25,10.5,13.5,13.5,8.25,6.0,2.75,2.5,3.0,2.5,1.5,1.75,0.14,0.14,1.08,1664.35,-11.6,41.2
0.12,3.0,0.5,1.25,4.25,4.25,5.5,7.25,5.25,2.0,4.25,1.25,2.0,1.5,-0.17,0.14,0.95,605.53,2.2,3.0,13.0,5.25,10.5,14.0,13.5,8.0,6.25,2.75,2.5,2.75,2.0,1.5,1.5,0.08,0.14,1.02,1705.31,-11.9,42.8
0.14,2.0,0.5,0.0,2.25,3.75,4.25,7.5,4.5,2.25,2.5,1.25,0.0,1.0,-0.23,0.52,0.95,462.74,1.2,6.5,13.0,5.25,11.0,14.0,13.5,7.75,6.25,2.75,2.5,3.0,2.0,1.25,1.0,0.02,0.2,0.95,1711.44,-12.3,44.0
0.16,1.0,0.5,0.0,1.75,3.5,2.0,6.75,4.25,1.5,1.75,1.0,0.25,0.5,-0.48,0.7,0.95,336.55,2.0,4.9,13.0,5.25,11.0,14.0,13.5,7.75,6.0,2.0,2.5,3.0,2.25,1.5,1.75,0.02,0.2,0.95,1689.14,-12.3,42.5
0.18,0.75,0.0,0.0,1.75,0.0,2.0,6.75,4.5,1.0,0.75,0.75,0.25,2.0,-0.3,0.27,1.02,240.81,1.4,-14.7,13.0,4.75,11.5,14.0,12.5,7.25,5.75,1.5,2.0,3.0,1.5,1.25,1.25,0.02,0.27,0.89,1627.37,-13.2,45.8
0.2,0.5,0.0,0.0,1.5,1.25,2.5,6.75,3.0,0.75,1.5,0.5,0.25,0.5,-0.36,0.14,1.2,168.8,1.5,0.2,13.0,4.75,11.5,14.0,12.0,7.0,5.75,1.25,1.75,3.0,1.75,1.0,1.5,0.02,0.27,0.89,1562.56,-13.5,45.9
0.22,1.0,0.25,0.0,2.0,0.0,2.0,6.75,3.0,0.75,1.25,0.5,0.0,0.25,-0.23,-0.17,1.2,117.6,5.2,6.1,12.5,3.75,11.5,14.0,12.0,7.0,5.75,1.25,1.75,2.25,1.75,1.25,1.75,0.02,0.27,0.83,1491.41,-13.6,45.0
0.24,0.75,0.5,0.0,1.75,0.0,1.75,6.75,2.75,0.75,1.5,0.5,0.0,0.25,0.02,-0.11,0.89,94.93,5.1,4.1,13.0,4.25,11.5,14.0,12.0,6.5,5.75,1.25,1.75,2.75,1.75,1.25,2.0,0.02,0.27,0.89,1443.93,-13.6,44.5
0.26,1.0,0.25,0.0,1.75,3.5,1.5,6.75,2.75,1.25,3.0,0.5,1.0,0.25,0.14,-0.11,0.83,123.38,2.8,1.0,12.5,4.25,11.5,14.0,12.0,6.25,6.0,1.25,1.75,2.5,1.75,1.25,1.5,-0.05,0.2,0.89,1402.06,-13.9,45.6
0.28,1.25,0.5,0.0,2.0,0.0,1.75,6.75,4.0,0.75,1.25,1.75,0.0,0.5,0.33,-0.11,1.02,141.0,4.9,-1.8,13.0,4.5,11.5,14.0,12.0,6.25,6.0,1.25,2.0,2.5,1.75,1.25,1.5,-0.05,0.2,0.89,1385.22,-14.0,45.8
0.3,0.5,0.5,0.0,1.75,0.0,1.75,6.25,2.75,0.75,1.5,0.25,0.0,0.5,0.52,-0.11,0.95,146.6,3.6,1.3,12.5,4.5,11.5,14.0,12.0,6.25,6.25,1.25,2.0,2.5,1.75,1.25,1.5,0.02,0.2,0.89,1373.46,-13.9,45.5
0.32,0.75,0.25,0.0,1.75,0.75,1.25,6.25,2.75,0.75,1.5,0.5,0.0,0.25,0.64,-0.11,0.95,148.36,4.9,4.1,13.0,4.75,12.5,14.0,12.0,6.5,6.5,1.25,2.25,2.75,1.75,1.5,1.5,-0.05,0.2,0.89,1386.02,-14.2,45.0
0.34,0.75,0.5,0.0,1.25,1.75,1.5,6.25,2.75,0.75,1.25,0.25,0.0,0.25,0.64,-0.11,1.08,158.27,3.7,11.1,13.0,4.75,12.5,14.5,12.0,6.75,6.75,1.25,2.5,2.75,1.75,1.25,1.5,0.02,0.2,0.95,1404.74,-14.1,45.2
0.36,0.5,0.25,0.0,1.75,0.75,1.75,6.25,2.75,0.5,1.25,0.25,0.0,0.25,0.45,-0.11,0.83,165.46,3.5,7.3,13.0,5.0,12.5,15.0,12.5,6.75,7.0,1.25,2.5,2.5,1.75,1.5,1.5,0.02,0.2,0.95,1438.16,-14.1,45.4
0.38,0.5,0.5,0.0,1.75,0.0,1.0,6.5,2.75,0.5,1.25,0.25,0.0,0.25,-0.17,-0.05,0.64,171.0,6.1,4.5,13.0,4.75,12.5,15.5,13.5,7.0,7.25,1.25,2.5,2.5,2.0,1.25,1.5,0.02,0.2,0.95,1474.53,-13.8,45.5
0.4,0.0,0.25,0.0,1.25,0.5,1.0,6.25,2.75,0.25,1.25,0.25,0.0,0.0,-0.36,-0.17,0.7,166.35,3.6,1.6,13.0,4.75,12.5,15.5,13.5,7.0,7.5,1.25,2.5,1.75,2.0,1.5,1.0,0.02,0.2,0.95,1499.83,-14.3,47.1
0.42,0.5,0.5,0.0,1.75,0.0,1.0,6.25,2.5,0.25,1.25,0.5,0.0,0.25,-0.36,-0.23,0.89,162.34,6.3,4.4,13.0,4.5,13.0,15.5,13.5,6.75,7.5,1.25,2.5,2.5,2.0,1.25,2.0,0.02,0.2,0.95,1524.93,-13.9,44.5
0.44,0.25,0.25,0.0,1.75,1.25,0.75,6.25,2.75,0.25,1.25,0.0,0.0,0.5,-0.42,-0.3,0.95,161.19,4.0,5.8,13.0,5.0,13.0,15.5,13.5,6.75,7.5,1.25,2.5,2.5,1.75,1.0,1.75,-0.05,0.2,0.95,1537.42,-14.0,46.1
0.46,0.25,0.0,0.0,1.75,0.5,0.75,6.25,2.5,0.25,1.5,0.25,0.0,0.25,-0.3,-0.3,0.89,158.84,4.9,0.0,13.5,3.5,13.0,15.5,13.5,6.75,7.5,1.25,2.5,2.0,1.5,1.5,1.5,-0.05,0.2,0.95,1535.69,-14.4,46.0
0.48,0.25,0.0,0.0,2.0,0.5,1.0,6.25,2.75,0.25,1.5,0.25,0.0,0.25,-0.23,-0.23,0.89,159.88,4.2,1.1,13.5,4.25,13.0,15.5,13.5,6.5,7.5,1.25,2.5,2.0,1.5,1.0,1.5,0.02,0.2,0.95,1528.17,-14.6,47.5
0.5,0.0,0.5,0.0,1.75,0.5,0.5,6.25,2.5,0.25,1.25,0.25,0.0,0.25,-0.3,-0.23,0.95,155.06,5.7,3.5,13.5,5.25,13.5,15.5,13.5,6.5,7.25,1.25,2.5,2.25,1.75,1.25,1.5,0.02,0.2,0.95,1534.8,-14.5,47.1
0.52,0.25,0.0,0.0,1.75,1.25,0.5,6.25,2.5,0.25,1.25,0.25,0.0,0.25,-0.42,-0.17,0.89,160.42,5.3,4.9,14.0,5.25,13.5,15.5,13.5,6.25,7.25,1.25,2.5,2.25,1.75,1.0,1.75,0.02,0.27,0.95,1542.2,-14.7,47.4
0.54,0.25,0.0,0.0,2.25,0.5,0.25,6.25,2.75,0.0,1.25,0.25,0.0,0.25,-0.48,-0.11,0.89,159.85,6.5,3.0,14.5,4.75,14.0,16.0,13.5,6.25,7.0,1.25,2.0,2.25,2.0,1.25,1.75,0.02,0.27,0.95,1555.06,-14.9,47.2
0.56,0.25,0.25,0.0,1.75,0.5,0.5,6.25,2.75,0.25,1.25,0.25,0.0,0.0,-0.67,-0.11,0.89,159.22,6.1,5.0,15.0,5.5,14.0,16.5,13.5,6.0,7.0,1.25,1.75,2.0,1.75,1.0,1.25,0.08,0.27,1.02,1564.86,-15.4,50.4
0.58,0.0,0.0,0.0,1.25,0.0,0.5,6.25,2.5,0.25,1.0,0.25,0.0,0.0,-0.67,0.02,0.83,147.75,6.4,-3.0,15.5,5.5,14.0,16.5,13.0,6.0,6.75,1.25,1.5,2.5,1.75,1.0,1.5,0.08,0.33,1.02,1573.28,-15.4,49.7
0.6,0.25,0.0,0.0,1.75,0.5,0.75,6.25,2.75,0.25,1.25,0.25,0.0,0.0,-0.61,0.27,0.7,149.6,5.3,3.4,15.5,5.25,14.0,16.0,13.0,5.5,6.5,1.25,1.75,2.25,1.75,0.75,1.5,0.08,0.33,1.02,1566.06,-15.7,50.2
0.62,0.0,0.0,0.0,1.75,1.25,0.25,6.25,2.5,0.0,1.25,0.25,0.0,0.0,-0.55,0.52,0.58,149.56,5.6,6.0,15.0,5.5,12.5,15.5,12.0,5.0,5.75,1.0,1.5,2.0,1.75,1.0,1.5,0.08,0.39,1.14,1528.07,-15.7,50.5
0.64,0.25,0.0,0.0,0.25,0.5,0.5,6.25,2.75,0.0,1.25,0.25,0.0,0.0,-0.36,0.7,0.58,143.86,3.8,-5.9,16.0,5.25,14.5,14.0,10.5,2.5,5.0,1.25,1.25,1.5,1.75,1.0,1.5,0.02,0.39,1.2,1469.74,-18.3,52.4
0.66,0.0,0.0,0.0,1.75,0.0,0.5,6.25,2.5,0.0,1.25,0.25,0.0,0.0,-0.23,0.83,0.7,138.47,6.3,-0.5,14.5,4.25,14.0,11.5,9.25,2.75,5.5,1.25,1.0,1.5,1.75,0.75,1.5,0.02,0.52,1.64,1370.9,-18.3,51.2
0.68,0.25,0.0,0.0,1.75,0.0,0.25,6.25,2.75,0.0,1.25,0.5,0.0,0.25,-0.17,0.33,0.83,138.13,6.6,-4.6,13.5,3.25,12.5,10.5,8.0,0.0,4.75,0.75,0.75,1.5,2.25,0.75,0.75,0.02,0.52,1.7,1203.54,-20.6,52.4
0.7,0.0,0.0,0.0,1.25,0.0,1.75,6.25,2.75,0.25,1.75,0.5,1.75,1.0,-1.05,-1.98,1.08,156.22,1.2,-26.8,11.0,2.25,11.5,6.5,6.5,0.0,4.0,0.0,0.25,0.0,2.0,0.25,0.5,0.14,0.52,1.83,939.22,-23.2,58.8
0.72,0.25,0.0,0.0,2.0,0.0,1.75,6.0,2.75,0.0,1.75,0.5,2.25,2.25,1.2,-0.36,0.45,183.57,1.1,-30.2,8.25,1.25,8.75,5.5,3.75,0.0,2.0,0.0,0.25,0.0,0.0,0.25,0.25,0.27,0.58,1.89,647.57,-25.0,65.6
0.74,0.75,0.0,0.0,1.5,0.0,0.25,6.25,3.0,0.75,2.75,1.25,5.0,4.0,0.39,0.2,1.52,238.47,2.6,-53.5,6.25,1.25,7.25,4.5,3.75,0.0,0.25,0.0,0.5,0.0,0.0,0.75,0.0,0.27,0.39,2.02,414.61,-23.5,62.4
0.76,0.75,0.0,0.0,1.75,0.0,1.25,6.5,3.0,1.5,2.75,2.25,5.75,5.5,-0.11,0.02,1.02,297.67,1.8,-54.1,5.25,1.25,6.0,5.0,3.75,0.0,0.25,0.0,0.75,1.5,0.75,0.75,1.25,0.83,0.45,1.7,296.76,-17.9,40.7
0.78,0.75,0.0,0.0,2.0,0.0,3.0,6.75,4.5,3.25,4.25,3.5,6.75,6.25,-0.17,-0.05,0.95,402.47,0.1,-52.0,4.5,1.5,4.5,3.5,3.0,0.0,0.0,0.0,0.5,1.5,1.0,0.75,1.25,2.58,-0.3,1.27,229.08,-16.7,36.2
0.8,1.5,0.0,0.0,3.25,1.75,3.5,7.25,5.75,4.0,0.0,5.75,7.5,7.0,-0.11,-0.05,1.02,531.69,2.6,-40.3,3.5,0.5,4.75,4.0,2.5,0.0,0.0,0.0,0.5,1.5,0.0,0.75,0.5,1.08,0.45,1.02,178.13,-18.5,41.8
0.82,1.25,0.5,1.25,3.25,3.75,3.75,7.0,5.0,4.0,6.5,5.75,8.25,8.0,-0.11,-0.05,0.95,709.73,0.9,-39.5,2.25,0.5,4.0,4.0,3.75,0.0,0.75,0.0,0.5,1.0,1.5,0.75,0.5,0.58,0.33,0.58,150.22,-15.7,32.7
0.84,2.0,0.75,1.5,2.25,3.75,3.75,6.75,5.75,4.25,7.25,5.75,8.25,9.0,-0.11,-0.05,1.02,865.12,0.5,-40.4,0.5,0.25,2.75,3.0,3.75,0.0,0.75,0.0,0.0,0.0,0.0,0.25,0.5,0.33,0.02,0.64,104.35,-14.3,48.0
0.86,1.5,0.75,1.0,1.75,3.75,3.75,6.25,5.75,4.5,7.25,6.0,8.25,9.0,-0.11,-0.05,0.95,979.9,-0.2,-43.8,0.0,1.0,1.25,3.0,1.25,0.5,0.0,0.0,0.25,1.5,0.0,0.25,0.75,0.08,-0.23,0.83,63.83,-7.0,21.7
0.88,1.75,0.5,1.25,1.75,3.5,4.0,6.75,6.25,4.5,7.0,6.0,8.25,9.0,-0.11,-0.05,0.95,1039.96,0.0,-43.1,0.0,0.25,1.75,2.75,3.75,0.5,0.75,0.25,0.5,1.5,1.5,0.25,1.75,0.08,-0.36,0.83,69.29,-5.0,5.2
0.9,1.5,0.5,1.75,1.75,3.5,4.0,6.75,6.5,4.5,6.75,5.75,8.25,9.0,-0.11,-0.05,0.95,1057.48,0.1,-42.4,0.0,1.5,1.75,2.75,2.75,0.5,0.75,0.0,0.5,0.25,0.75,1.0,0.5,0.27,-0.42,0.77,88.39,-10.5,27.8
0.92,1.25,0.75,1.25,3.25,3.5,4.0,7.25,6.5,4.5,6.75,5.75,8.25,9.0,-0.11,-0.05,0.95,1056.79,0.2,-40.3,1.25,1.75,1.75,2.75,3.75,1.25,0.0,0.25,0.5,1.5,1.75,1.0,1.5,0.33,-0.36,0.77,149.15,-6.3,14.9
0.94,1.75,0.75,1.25,3.5,3.5,4.0,7.0,6.5,4.5,7.25,5.75,7.5,8.25,-0.11,-0.05,0.95,1036.29,0.5,-37.4,1.25,1.5,2.5,2.75,3.75,0.5,0.0,0.0,0.5,1.5,1.5,0.75,0.5,0.27,-0.23,0.89,192.98,-10.2,25.9
0.96,2.0,1.0,1.75,2.0,3.75,4.75,7.0,6.75,4.5,7.25,5.5,7.5,8.0,-0.11,-0.05,0.95,1013.04,0.2,-36.1,0.0,2.0,2.75,2.0,3.75,0.0,0.5,0.0,0.0,0.0,1.75,0.0,1.25,0.27,-0.05,0.95,213.49,-11.3,32.1
0.98,2.25,1.25,2.25,4.0,4.25,5.75,7.25,7.0,4.75,7.25,5.0,6.75,7.25,-0.11,-0.05,0.95,991.67,0.9,-26.9,0.75,0.75,2.75,2.75,3.75,0.5,0.5,0.0,0.25,1.5,1.75,0.75,1.0,0.27,0.08,1.08,222.28,-9.4,16.8
1.0,2.75,1.25,2.25,4.5,4.5,5.75,7.75,7.25,5.0,6.25,5.0,6.25,7.25,-0.11,-0.05,0.95,978.39,1.6,-23.3,1.25,1.75,1.25,2.75,0.0,0.5,0.5,0.0,0.5,1.25,1.75,1.0,1.5,0.27,0.2,1.2,212.34,-10.9,2.9
1.02,3.0,1.5,2.25,4.5,6.25,7.25,8.0,7.25,5.25,5.75,5.0,5.75,6.25,-0.11,-0.05,0.95,986.59,1.5,-16.2,1.5,1.5,2.75,2.75,3.75,0.0,0.25,0.0,0.5,1.5,1.75,1.0,1.5,0.39,0.33,1.52,232.62,-10.5,16.8
1.04,3.0,0.0,2.25,4.5,6.5,7.25,8.0,7.5,5.25,5.75,4.75,5.0,5.5,-0.11,-0.05,0.95,977.15,1.1,-16.3,1.25,1.5,2.25,2.75,3.75,0.0,0.5,0.0,0.5,1.25,1.75,1.0,1.5,0.52,0.45,1.83,244.4,-9.9,15.9
1.06,3.25,1.75,2.5,4.5,6.75,8.0,8.25,7.75,5.0,5.75,4.25,3.5,5.0,-0.11,-0.05,0.95,978.68,1.3,-7.8,0.0,1.5,2.5,2.75,3.75,0.25,0.75,0.0,0.5,0.75,1.0,0.0,1.0,0.64,0.64,1.95,248.56,-9.8,30.6
1.08,4.0,2.0,2.5,5.0,7.5,8.25,8.5,7.75,5.25,5.0,3.0,3.5,4.0,-0.11,-0.05,0.95,985.66,2.0,-0.9,1.0,1.25,2.75,2.75,3.75,0.0,0.25,0.0,0.5,1.5,1.75,0.75,1.75,0.7,1.02,2.2,256.79,-9.6,13.6
1.1,4.75,2.0,3.0,5.75,8.25,8.25,8.75,7.75,5.0,5.0,2.0,2.5,3.75,-0.11,-0.05,0.95,1006.78,2.7,5.6,1.25,1.75,2.0,2.75,3.75,0.25,0.5,0.0,0.5,1.5,1.75,1.0,1.5,0.7,1.83,2.45,260.79,-8.8,15.4
1.12,4.75,2.0,4.5,6.0,8.5,8.75,9.0,7.5,5.0,4.25,3.75,2.0,2.25,-0.11,-0.05,0.95,1033.75,4.3,10.2,0.0,0.75,1.25,2.75,3.75,0.5,0.25,0.0,0.5,1.5,1.75,0.75,1.5,0.39,2.7,2.14,249.27,-4.6,3.8
1.14,5.75,0.5,4.75,6.5,9.25,9.0,9.5,7.5,5.0,4.25,3.5,2.0,2.25,-0.11,-0.05,0.95,1069.1,4.6,11.0,1.25,1.25,2.0,2.5,3.5,0.75,0.25,0.5,0.5,1.5,1.75,1.0,0.25,0.33,4.2,0.77,247.84,-8.7,19.8
1.16,6.5,1.0,5.5,7.75,10.0,9.25,10.0,7.5,5.0,4.25,2.75,2.0,2.25,-0.11,-0.05,1.02,1129.12,5.4,15.5,1.25,1.0,2.5,2.5,1.5,1.0,0.0,0.75,0.5,1.75,1.75,1.5,1.5,-0.98,5.89,-1.42,244.18,-8.2,0.4
1.18,6.75,2.0,6.25,8.5,11.5,9.5,10.5,7.75,5.0,4.75,2.75,2.0,2.25,-0.11,-0.05,0.95,1227.1,5.7,18.0,1.0,0.5,2.5,0.0,2.25,1.5,0.0,1.25,0.25,3.0,1.75,1.25,2.25,-2.42,3.2,-0.3,244.46,-1.6,-17.7
1.2,7.75,3.5,6.25,9.0,12.5,9.75,10.5,7.75,4.75,4.5,2.75,2.0,2.25,-0.11,-0.05,1.02,1334.36,6.0,21.8,1.25,0.25,0.5,2.5,0.0,2.25,0.0,0.5,0.25,3.5,1.75,3.0,4.0,-0.05,-0.3,3.08,252.01,0.5,-40.8
1.22,9.0,3.5,6.5,10.0,13.5,10.0,10.5,7.75,4.25,4.25,2.5,2.0,2.25,-0.11,0.02,0.95,1420.95,6.5,24.9,1.25,1.0,2.25,1.5,1.5,2.75,0.0,1.25,0.75,5.25,2.0,5.25,6.0,-0.05,0.02,2.08,299.08,0.2,-40.0
1.24,11.0,3.5,7.75,12.5,14.5,10.5,9.75,7.75,4.25,4.5,2.5,2.0,2.25,-0.11,0.08,1.14,1529.67,7.4,28.0,0.25,0.25,1.75,1.5,1.5,0.75,0.0,2.0,1.25,5.75,1.75,6.5,7.75,0.7,0.45,5.02,364.04,1.8,-60.7
1.26,12.0,4.25,7.75,10.0,14.0,10.5,9.75,7.25,3.75,3.75,2.5,2.0,2.25,-0.11,0.14,1.08,1589.89,7.8,30.0,0.0,0.5,1.25,0.0,0.0,0.5,0.0,1.0,1.75,6.5,4.5,6.75,8.0,0.02,0.08,1.33,425.64,1.9,-78.6
1.28,15.0,5.0,8.75,12.5,14.5,10.5,9.25,7.5,3.25,4.25,2.0,1.75,2.0,-0.17,0.14,1.27,1674.84,9.0,34.8,0.5,1.0,1.75,0.0,0.0,2.75,0.0,2.75,2.5,7.0,5.25,6.75,8.25,0.14,0.08,1.08,512.36,2.3,-63.5
1.3,16.0,5.25,8.75,12.5,14.5,9.75,9.5,7.25,3.0,4.5,2.0,1.75,2.0,-0.36,0.27,1.39,1726.04,9.5,35.7,0.75,1.0,1.75,1.0,4.5,2.75,0.75,2.75,1.75,7.0,5.75,6.75,8.25,0.2,0.02,0.95,605.36,1.6,-46.1
1.32,17.0,5.75,8.75,11.5,13.5,9.0,9.25,7.25,2.25,4.5,2.0,2.0,2.0,-0.3,0.27,1.52,1754.03,10.1,36.5,0.25,0.5,1.75,1.25,0.0,3.25,0.75,2.75,2.5,7.0,5.75,6.75,8.5,0.14,0.02,0.95,655.13,1.9,-61.0
1.34,17.0,6.5,8.75,8.25,10.5,8.25,8.75,6.5,1.75,3.0,1.75,1.75,2.0,-0.42,0.52,1.77,1690.77,11.3,39.5,0.5,1.0,1.75,1.25,0.0,2.75,0.75,2.75,2.5,7.0,5.75,6.75,8.25,0.08,0.02,0.95,684.66,1.2,-58.9
1.36,15.0,5.0,6.75,7.0,9.5,7.0,8.5,6.25,1.5,4.25,1.75,1.25,2.0,-0.8,0.7,2.58,1562.76,10.2,35.2,1.0,1.25,1.75,1.25,0.0,4.0,1.25,3.0,3.0,7.0,6.0,6.75,8.25,0.14,0.02,0.89,708.59,1.0,-53.0
1.38,9.0,2.75,4.25,4.5,7.5,4.25,7.25,5.75,0.75,0.25,1.5,0.0,0.5,-0.98,0.45,2.33,1258.34,10.7,42.1,0.5,1.25,2.75,1.75,2.25,3.25,1.0,4.0,2.5,6.75,6.25,6.5,8.5,0.14,0.02,0.95,731.68,0.6,-46.3
1.4,5.5,0.0,2.25,2.25,0.0,2.25,6.75,2.5,0.75,1.25,0.25,0.0,0.25,-1.05,0.02,1.58,743.57,15.4,33.4,1.25,1.0,2.5,2.0,1.5,3.75,1.25,3.75,3.0,6.5,5.25,6.0,8.0,0.14,0.02,0.95,734.92,0.2,-43.5
1.42,2.25,0.5,0.75,0.5,0.0,1.75,5.75,2.75,0.5,0.5,0.25,0.0,0.25,0.14,0.02,1.39,353.86,9.6,20.3,1.25,1.25,2.75,2.0,3.75,4.5,2.0,4.0,3.25,5.75,5.5,5.5,7.25,0.14,0.02,0.95,741.75,-0.1,-33.1
1.44,2.0,0.0,0.25,1.0,0.0,1.75,6.25,2.75,0.25,0.0,0.0,0.0,0.25,-0.55,-0.8,3.2,148.52,9.5,22.8,0.5,2.0,2.5,2.75,3.5,5.75,1.75,4.0,3.75,6.5,5.0,5.75,6.75,0.14,0.02,0.95,741.92,0.7,-30.9
1.46,1.25,0.0,0.0,0.5,0.75,0.0,6.25,2.75,0.25,0.5,0.25,0.0,0.25,-1.11,-1.11,2.39,0.0,9.6,7.6,2.25,1.75,2.75,3.25,5.0,6.0,2.5,4.25,4.5,5.75,5.5,5.25,7.0,0.14,0.02,0.95,767.52,-0.9,-22.6
1.48,1.0,1.0,0.0,0.75,0.0,2.25,6.5,2.75,0.75,1.25,0.25,0.0,0.25,-0.73,-0.73,0.64,0.0,4.0,9.1,3.0,2.25,4.75,3.75,6.0,6.25,3.0,4.75,4.5,5.75,5.25,4.25,6.0,0.14,0.02,0.95,828.33,-2.7,-11.5
1.5,1.0,0.5,0.0,1.75,0.0,0.25,6.25,2.5,0.25,1.25,0.25,0.0,0.0,-0.42,-0.42,0.27,0.0,9.8,11.1,4.0,2.75,5.25,5.0,6.25,6.5,3.75,5.0,4.5,5.5,5.0,3.0,5.0,0.14,0.02,0.95,901.71,-4.1,-1.8
1.52,1.25,0.25,0.0,1.5,0.0,0.5,6.5,2.75,0.25,0.75,0.25,0.0,0.0,-0.3,-0.3,0.45,0.0,10.2,13.3,4.0,2.75,5.25,5.25,6.5,7.0,4.25,4.75,4.5,4.75,4.75,3.0,4.5,0.14,0.02,0.95,951.07,-4.5,1.3
1.54,1.25,1.0,0.0,1.75,0.0,0.25,6.25,2.5,0.25,1.0,0.25,0.0,0.0,-0.3,-0.36,0.64,0.0,11.1,18.8,5.5,2.75,5.25,6.0,7.75,7.0,5.0,4.25,4.5,4.5,4.0,2.5,3.25,0.14,0.02,0.95,994.5,-5.9,10.5
1.56,1.0,0.5,0.0,1.75,0.0,0.5,6.25,2.5,0.0,2.0,0.25,0.25,0.0,-0.36,-0.42,1.02,0.0,7.5,4.5,6.0,3.0,6.5,7.0,8.0,7.5,5.5,4.0,4.0,4.25,4.0,2.25,3.25,0.14,0.02,0.95,1046.53,-6.9,15.1
1.58,1.0,0.25,0.0,1.75,0.0,0.0,6.25,2.5,0.0,0.5,0.25,0.0,0.0,-0.36,-0.36,1.02,20.44,12.6,16.4,7.0,3.0,6.75,8.75,9.0,7.5,5.75,4.0,3.75,4.0,3.75,1.75,3.25,0.14,0.02,1.08,1109.1,-7.6,20.2
1.6,1.0,0.25,0.0,2.5,0.0,0.25,6.25,2.5,0.0,0.5,0.5,0.0,0.0,-0.23,-0.11,0.95,70.88,12.1,17.8,8.5,3.25,7.5,10.0,9.25,7.75,6.0,4.0,3.75,3.5,3.75,1.5,3.0,0.14,0.02,1.02,1189.48,-8.8,25.0
1.62,1.0,0.25,0.0,1.75,0.0,0.25,6.25,2.5,0.0,0.75,0.0,0.0,0.0,-0.17,-0.05,1.14,113.33,11.0,16.7,9.25,3.5,7.75,10.5,10.5,7.75,6.25,4.0,3.75,3.5,3.0,1.5,2.5,0.08,0.08,0.95,1275.18,-9.2,28.9
1.64,1.0,0.5,0.0,1.75,0.0,0.5,6.25,2.5,0.0,0.0,0.5,0.0,0.0,-0.23,0.08,1.39,139.97,12.3,21.9,10.0,3.75,8.75,12.0,11.5,7.25,6.0,4.0,3.0,3.25,2.75,1.5,2.5,0.08,0.08,0.95,1347.42,-10.0,32.5
1.66,1.0,0.25,0.0,1.75,0.0,0.75,6.25,2.5,0.0,1.0,0.25,0.0,0.0,-0.3,0.2,1.58,148.17,8.9,13.2,11.0,4.25,8.75,13.5,12.0,7.75,6.0,3.5,3.25,3.25,2.75,1.5,2.25,0.02,0.14,1.08,1410.07,-10.5,35.1
1.68,1.0,0.25,0.0,1.75,0.0,0.25,6.25,2.5,0.0,0.0,0.25,0.25,0.0,-0.42,0.33,1.89,147.24,13.1,18.4,11.0,2.75,9.25,13.5,13.0,7.25,5.75,4.0,2.5,3.25,2.75,1.5,1.75,0.02,0.14,1.08,1444.94,-10.5,35.5
1.7,1.0,0.5,0.0,1.75,0.0,0.25,6.25,2.5,0.0,0.25,0.0,0.0,0.0,-0.61,0.52,2.2,144.74,12.5,24.0,11.5,4.75,9.25,13.5,13.5,7.0,5.5,3.75,0.0,2.75,2.75,0.25,2.25,0.08,0.2,1.14,1458.05,-10.8,42.6
1.72,1.0,0.5,0.0,1.75,0.0,0.5,6.25,2.5,0.0,0.5,0.25,0.0,0.0,-0.8,0.64,2.95,143.54,10.9,19.3,13.5,4.25,9.25,0.0,12.0,7.0,5.0,3.75,1.75,2.0,2.75,1.0,1.25,0.02,0.27,1.2,1364.51,-11.1,39.9
1.74,1.0,0.25,0.0,1.75,0.0,0.75,6.25,2.5,0.0,0.5,0.25,0.0,0.0,-1.36,1.52,3.2,147.18,10.1,17.6,14.5,4.25,10.5,15.0,13.5,7.0,5.0,2.0,1.5,1.5,2.5,0.25,1.5,0.14,0.33,1.39,1384.57,-13.4,48.9
1.76,1.0,0.0,0.0,1.75,0.0,1.0,6.25,2.5,0.0,0.0,0.25,0.0,0.0,-1.73,2.64,2.33,146.46,10.6,20.8,12.0,3.25,9.25,9.5,10.5,5.0,3.75,2.5,1.25,1.25,2.25,0.25,1.75,0.2,0.52,1.64,1290.45,-13.4,45.5
1.78,1.0,0.0,0.0,1.75,0.0,1.75,6.25,2.5,0.0,0.0,0.0,0.0,0.0,-1.61,4.45,1.14,148.34,8.2,24.1,11.5,4.25,9.5,10.5,9.5,5.25,4.5,1.75,0.25,0.0,1.25,0.25,0.5,0.33,0.7,1.83,1191.69,-15.4,56.6
1.8,1.0,0.0,0.0,1.75,0.0,0.5,6.25,2.5,0.0,1.25,0.25,0.0,0.0,0.14,5.95,-1.11,150.59,8.9,8.4,11.0,3.25,8.75,8.75,8.0,3.5,5.0,0.0,0.5,0.0,1.5,0.25,0.75,0.7,0.83,2.83,1002.12,-17.8,57.3
1.82,1.0,0.0,0.0,1.75,0.5,1.25,6.25,2.75,0.0,1.75,0.25,0.0,0.0,2.2,6.2,0.2,162.78,4.9,7.6,9.0,2.5,7.75,6.5,6.5,3.0,3.5,0.0,0.25,0.0,0.75,0.0,0.5,1.08,0.83,2.45,801.91,-18.2,60.6
1.84,0.5,0.25,0.0,1.5,0.0,1.75,6.25,2.75,0.25,2.0,0.25,2.25,1.0,-1.55,-0.92,1.95,182.99,2.5,-22.2,6.0,0.75,5.75,2.75,3.75,0.5,1.0,0.0,0.75,0.0,0.75,0.25,0.25,1.02,0.58,2.39,522.15,-21.7,56.8
1.86,1.0,0.0,0.0,1.75,0.0,1.75,6.25,3.75,0.5,2.75,1.25,5.0,5.0,-0.05,0.27,-0.05,248.1,0.3,-48.1,2.25,0.0,2.75,2.75,2.5,0.5,0.75,0.0,0.25,0.0,0.75,0.25,0.5,0.14,0.02,1.58,300.7,-17.2,43.5
1.88,1.0,0.0,0.0,1.75,0.0,1.75,6.0,4.5,0.75,4.25,1.5,6.5,6.25,1.33,0.08,1.83,324.16,-0.9,-55.1,2.5,0.25,4.0,2.75,3.75,2.75,0.0,1.25,0.75,0.0,1.75,1.25,1.5,0.14,0.14,3.7,212.98,-9.3,20.9
1.9,1.0,0.0,0.0,1.75,0.0,2.25,6.25,4.5,0.75,5.5,2.25,7.25,7.25,-0.3,0.02,1.45,426.82,-1.5,-57.5,1.5,0.75,3.0,4.0,3.75,2.0,0.75,1.0,0.75,0.0,2.0,1.0,0.5,1.33,-1.55,3.02,158.71,-10.2,26.9
1.92,0.5,0.25,0.0,1.75,0.0,2.75,6.25,5.25,1.5,6.75,3.0,7.5,8.0,-0.55,0.14,1.45,543.52,-2.5,-58.8,1.75,0.75,1.75,2.75,0.25,1.25,0.0,1.0,0.75,1.0,1.5,1.0,0.5,1.39,-1.05,0.95,120.63,-10.6,10.5
1.94,0.0,0.0,0.0,1.75,0.0,3.5,6.25,5.75,2.25,7.0,3.75,7.75,8.0,-0.23,0.08,1.14,644.58,-3.0,-60.0,2.0,0.0,1.75,2.75,3.75,1.5,0.5,1.0,0.5,0.0,1.75,0.25,0.5,0.7,-0.48,0.52,110.73,-8.9,28.9
1.96,2.5,0.0,0.0,2.5,3.75,5.0,6.75,7.0,3.25,0.0,5.75,8.25,9.75,-0.17,0.02,1.08,748.6,0.5,-38.1,0.0,0.25,1.25,1.25,0.25,0.5,0.0,0.0,0.5,0.25,0.0,0.25,0.5,0.02,-0.3,0.52,49.07,-11.8,17.4
1.98,2.75,0.0,0.25,4.5,3.75,5.75,6.0,7.25,4.0,7.25,5.75,8.25,9.0,-0.17,-0.05,1.02,893.07,-0.7,-37.0,0.0,0.0,0.25,2.75,0.0,0.5,0.0,0.0,0.0,0.0,0.75,0.25,0.5,-0.3,-0.11,0.64,0.0,-10.1,11.7
2.0,2.75,0.0,1.5,4.5,4.5,5.25,7.5,7.5,3.75,7.25,5.75,7.25,9.0,-0.11,-0.05,0.95,1016.51,0.2,-32.4,0.0,1.0,1.25,1.5,0.0,0.25,0.0,0.0,0.0,0.0,1.75,1.25,1.5,-0.3,-0.05,0.95,0.0,-10.7,-17.9
2.02,3.0,0.5,0.0,4.5,5.25,6.75,7.5,7.5,4.5,7.5,5.75,7.5,8.0,-0.11,-0.05,1.02,1109.87,-0.6,-29.8,0.0,0.0,2.75,1.25,3.75,1.5,0.75,0.0,0.0,0.75,2.0,1.25,0.5,-0.05,-0.11,1.02,37.02,-7.4,9.7
2.04,3.25,1.25,2.25,4.5,6.5,7.0,7.75,7.5,4.5,6.0,5.0,5.75,7.25,-0.11,-0.05,0.95,1158.28,1.0,-17.8,1.5,1.25,2.5,3.25,3.75,1.5,0.25,0.75,0.5,1.0,1.75,1.25,1.5,0.02,0.02,0.95,133.69,-7.7,16.2
2.06,3.0,0.5,0.5,2.25,3.75,6.75,7.75,7.0,3.75,4.25,3.0,4.25,5.5,-0.17,-0.05,0.95,1042.41,-0.4,-20.6,1.25,1.25,2.75,2.75,3.75,1.75,0.75,0.75,0.5,0.75,0.75,1.25,1.5,0.02,0.14,1.14,212.13,-7.6,20.6
2.08,3.0,0.5,1.25,3.5,5.25,7.0,7.75,6.75,4.0,3.75,2.75,3.75,4.25,-0.17,-0.05,0.95,931.29,0.8,-10.4,1.25,1.5,2.75,2.0,3.25,1.5,0.75,0.5,0.5,1.5,1.0,1.25,1.75,0.02,0.2,1.39,260.14,-7.2,13.2
2.1,3.0,0.5,2.25,4.5,6.75,7.25,8.25,7.25,3.75,3.5,3.5,1.75,2.75,-0.11,-0.05,0.95,839.95,1.9,1.0,1.75,1.5,2.75,2.75,2.75,1.5,0.0,0.0,0.5,1.5,0.5,1.0,2.0,0.2,0.39,1.64,273.09,-8.4,19.2
2.12,4.5,2.0,2.25,5.25,7.5,8.0,8.25,7.25,4.0,4.5,3.0,2.25,3.25,-0.11,-0.05,0.95,853.81,2.4,5.1,1.25,1.25,2.75,1.0,1.75,1.75,0.75,0.5,0.5,0.75,1.5,1.0,1.5,0.33,0.52,1.89,260.71,-8.6,10.3
2.14,4.5,2.0,2.75,5.75,8.25,8.75,8.5,7.25,4.0,4.25,3.0,2.0,2.25,-0.11,-0.05,0.95,890.96,2.9,9.9,1.25,1.25,2.75,2.5,2.25,1.5,0.75,0.25,0.5,1.5,1.75,1.25,1.5,0.39,0.83,2.39,264.87,-8.8,9.8
2.16,4.75,2.0,2.25,6.25,8.5,9.0,8.5,7.25,4.0,4.25,2.5,2.0,2.25,-0.11,-0.05,0.95,942.21,2.6,11.2,1.25,1.5,2.75,2.0,2.75,1.5,0.75,0.75,0.5,1.5,1.75,1.25,1.5,0.58,1.64,2.7,274.38,-7.6,9.8
2.18,5.75,2.0,4.0,6.5,10.0,9.5,8.75,7.25,4.0,4.25,2.25,1.75,2.25,-0.11,0.02,0.95,1004.45,3.8,16.2,1.25,1.25,2.5,2.5,2.5,1.25,0.75,0.75,0.5,1.5,1.75,1.0,1.5,0.77,2.58,2.58,280.28,-7.9,9.8
2.2,5.5,2.0,4.0,6.5,10.5,9.0,9.0,7.25,4.0,4.25,2.25,1.75,2.25,-0.11,0.02,0.95,1042.49,3.8,16.1,1.25,1.25,2.5,2.5,1.75,1.75,0.75,0.75,0.5,1.5,1.5,1.25,1.5,0.83,4.02,1.89,283.34,-7.6,7.9
2.22,5.75,2.5,4.5,7.5,12.5,9.5,9.25,7.5,3.25,4.0,2.0,1.0,2.25,-0.11,0.02,0.95,1106.32,3.9,21.8,1.25,1.0,2.5,2.5,3.25,2.25,0.75,1.0,0.25,1.5,1.75,0.75,1.5,0.58,5.2,-0.23,283.6,-5.6,13.1
2.24,6.75,2.0,5.0,8.0,11.5,9.75,9.25,7.0,3.75,4.25,1.5,1.5,1.25,-0.11,0.02,0.95,1162.63,5.1,23.7,1.25,1.25,2.25,2.0,2.75,2.0,0.5,1.0,0.25,1.5,1.75,1.0,1.75,-1.23,6.14,-1.73,276.07,-5.2,7.6
2.26,8.25,3.5,6.25,10.0,14.5,11.0,9.5,7.5,3.75,4.25,2.0,1.75,2.25,-0.11,0.08,0.95,1318.82,5.5,26.3,0.75,1.0,2.0,2.0,3.0,1.25,0.5,1.0,0.5,3.0,1.75,0.75,1.5,-2.73,4.89,0.89,268.16,-3.5,-0.7
2.28,9.0,3.5,6.25,12.5,15.0,12.0,8.75,7.5,3.25,4.25,2.0,2.0,2.25,-0.11,0.08,1.02,1443.62,5.6,28.1,0.5,0.0,2.75,0.5,1.75,0.5,0.25,1.25,0.0,3.25,1.75,2.0,1.5,2.33,-2.86,2.7,248.33,-3.8,-26.8
2.3,11.0,3.5,6.5,10.5,15.5,11.0,8.75,7.5,3.25,4.25,1.75,2.0,2.25,-0.17,0.14,1.08,1553.69,6.3,29.4,1.25,0.75,2.5,1.75,2.75,2.75,0.0,2.0,0.75,5.75,3.0,5.25,4.75,-1.61,0.89,1.83,299.19,-0.1,-34.4
2.32,10.5,4.0,7.75,12.0,14.5,11.0,8.5,7.25,2.5,2.75,2.0,0.5,1.25,-0.17,0.2,1.08,1587.32,7.6,36.8,1.25,1.5,1.75,0.0,0.0,0.25,0.0,2.75,1.0,7.0,4.75,7.5,7.75,-0.67,0.27,2.2,379.27,0.3,-65.6
2.34,13.5,5.0,7.75,12.5,16.0,12.0,8.75,7.25,2.5,4.25,2.0,1.75,1.5,-0.23,0.2,1.2,1653.45,7.7,35.5,0.0,0.25,2.0,0.0,1.75,0.5,0.0,3.5,2.0,7.75,6.25,8.5,8.5,0.77,0.27,5.02,513.36,1.7,-69.4
2.36,15.0,6.25,7.75,12.5,15.5,12.0,8.5,7.25,2.0,4.25,1.75,1.75,2.0,-0.42,0.27,1.33,1705.57,8.0,37.1,1.0,1.0,2.25,1.25,0.0,2.75,0.5,4.0,2.5,8.0,7.25,7.75,9.0,-0.23,0.33,1.39,645.91,0.8,-58.5
2.38,16.0,5.25,7.5,10.5,14.5,10.5,8.25,7.25,1.5,4.25,1.75,1.75,1.25,-0.42,0.33,1.58,1718.03,8.7,38.1,1.25,1.0,2.0,1.5,0.5,2.75,0.75,4.0,2.75,8.0,7.25,7.5,9.0,0.08,0.02,1.02,748.31,0.7,-55.8
2.4,15.5,6.5,8.0,8.5,13.0,9.5,8.25,6.75,1.5,4.0,1.75,1.75,2.0,-0.86,0.58,1.89,1686.83,9.2,37.5,0.5,1.0,2.5,1.25,0.0,2.75,1.0,4.75,2.75,8.0,7.25,7.5,8.75,0.2,0.02,0.95,803.44,0.9,-58.0
2.42,12.0,4.0,6.5,6.5,9.75,7.5,8.0,5.75,1.0,1.5,1.75,0.5,1.75,-0.92,0.83,2.95,1508.17,9.9,39.5,0.5,0.75,2.5,1.25,1.25,4.25,1.0,5.0,3.0,8.0,6.5,6.75,8.5,0.08,0.02,0.95,833.81,2.0,-51.3
2.44,8.0,1.25,3.5,3.25,6.75,5.25,7.25,4.75,0.75,0.75,1.5,0.0,0.25,-1.23,0.58,2.45,1156.66,9.4,38.8,1.25,1.25,2.5,2.0,1.75,5.0,1.25,5.0,3.0,7.25,5.75,6.25,7.75,0.2,-0.05,0.95,841.35,1.1,-41.0
2.46,3.5,0.0,1.0,2.0,3.0,2.75,6.0,0.0,0.5,1.0,0.25,0.0,0.0,-0.98,-0.23,1.58,646.28,12.0,43.5,1.25,1.0,2.75,2.25,3.75,5.0,2.0,5.0,3.5,7.75,5.25,5.75,8.0,0.2,0.02,0.95,851.76,1.1,-35.7
2.48,1.25,0.0,0.25,4.25,0.0,2.5,5.75,2.25,0.5,1.25,0.25,0.0,0.0,-0.17,-0.05,3.2,320.72,7.4,21.3,1.25,1.0,2.75,1.75,3.75,5.0,2.75,4.75,3.25,6.25,5.0,5.25,7.0,0.2,0.02,0.95,827.16,0.5,-32.5
2.5,2.0,0.0,0.0,2.0,1.25,0.5,5.75,2.5,0.25,1.25,0.25,0.0,0.25,-1.17,-0.98,3.39,136.5,8.7,17.1,1.25,1.0,2.75,2.75,3.75,6.25,2.25,5.25,3.75,6.25,5.5,4.25,6.0,0.27,0.08,0.95,802.63,0.6,-26.8
2.52,0.25,0.5,0.25,2.0,1.25,0.5,6.25,2.5,0.0,1.25,0.25,0.0,0.0,-1.3,-1.11,1.77,18.26,6.9,14.7,1.5,2.5,2.75,3.75,4.5,6.25,3.25,4.25,3.75,5.75,4.75,4.0,6.0,0.08,0.02,0.89,782.93,-0.7,-17.1
2.54,0.5,0.25,0.0,2.0,3.0,0.25,6.25,2.75,0.25,1.75,0.25,0.0,0.25,-0.73,-0.67,0.64,0.0,4.3,11.7,3.0,2.75,3.0,4.75,4.25,6.25,3.0,4.0,3.75,4.5,4.5,3.0,4.75,0.14,0.02,0.95,757.48,-2.9,-5.8
2.56,2.25,0.5,0.0,4.5,3.0,2.75,6.25,3.75,0.25,1.25,1.25,0.25,1.25,-0.48,-0.36,0.14,30.52,4.3,15.4,3.75,2.75,5.25,5.0,6.25,6.5,3.75,5.0,3.75,4.5,4.0,3.0,4.0,0.14,0.02,0.95,793.8,-4.4,2.7
2.58,1.25,0.5,0.0,2.0,0.0,1.75,6.25,2.75,0.0,1.25,0.25,0.0,0.0,-0.42,-0.3,0.08,23.92,6.2,16.2,4.0,2.75,5.25,5.25,6.5,7.0,4.25,5.25,3.75,4.5,3.75,3.0,2.75,0.14,0.02,0.95,833.09,-4.7,6.7
2.6,1.0,0.5,0.0,3.25,0.75,1.75,6.25,2.75,0.75,2.0,1.5,0.5,0.0,-0.48,-0.3,0.64,64.91,5.9,4.1,4.75,2.75,5.25,6.25,8.0,7.0,4.5,5.0,3.75,4.25,3.75,2.5,3.0,0.14,0.02,0.95,896.82,-5.2,11.1
2.62,1.0,0.5,1.5,1.75,3.75,1.75,6.5,3.0,0.0,1.25,0.25,0.0,0.0,-0.42,-0.23,0.95,106.88,6.0,26.4,5.25,2.75,6.5,7.0,8.0,7.25,5.0,5.0,3.75,4.5,3.75,2.25,3.0,0.14,0.02,0.95,965.27,-6.2,13.6
2.64,1.0,0.5,0.0,1.75,0.0,1.75,6.25,2.5,0.0,1.25,0.25,0.0,0.25,-0.42,-0.11,0.95,128.8,5.5,12.2,6.0,2.75,6.75,8.75,9.0,7.5,5.5,5.0,3.75,4.25,3.75,2.0,3.0,0.14,0.02,0.95,1055.86,-6.8,17.5
2.66,1.0,0.5,0.0,1.75,0.0,1.75,6.25,2.5,0.0,1.25,0.25,0.0,0.0,-0.42,0.08,0.95,150.51,5.9,14.8,6.5,3.0,6.75,9.25,9.25,7.75,5.75,5.0,3.75,4.0,4.0,1.75,3.0,0.08,0.02,1.02,1136.65,-7.1,19.4
2.68,1.75,0.5,0.75,2.25,3.75,2.75,6.5,3.0,0.0,1.25,1.25,0.0,1.25,-0.55,0.2,1.02,214.37,3.9,16.1,7.25,3.5,7.75,10.5,10.5,7.75,5.75,5.0,3.75,4.0,4.0,1.75,2.75,0.08,0.08,0.95,1240.91,-7.9,23.1
2.7,1.0,0.25,0.0,1.75,0.0,1.75,6.25,2.5,0.0,1.25,0.25,0.0,0.0,-0.61,0.33,1.39,217.95,5.8,13.0,8.25,3.75,7.75,12.0,11.5,8.0,6.0,5.0,3.25,3.75,3.25,1.5,2.5,0.08,0.08,1.02,1329.19,-8.3,28.1
2.72,1.0,0.5,0.0,1.75,0.0,1.75,6.25,2.5,0.0,1.25,0.25,0.0,0.0,-0.61,0.39,1.58,208.73,5.9,14.8,8.75,4.25,8.75,14.0,12.0,8.25,6.0,5.0,3.25,3.5,3.25,1.5,1.75,0.08,0.08,1.02,1411.01,-9.2,32.1
2.74,1.0,0.5,0.0,1.75,0.0,1.75,6.25,2.75,0.0,1.5,0.0,0.0,0.0,-0.92,0.58,1.95,190.61,4.9,13.7,9.25,4.25,8.75,14.0,13.5,8.25,5.75,5.25,2.5,3.25,3.0,1.5,2.25,0.08,0.14,1.02,1472.66,-8.9,33.1
2.76,1.0,0.25,0.0,1.75,0.0,1.75,6.25,2.5,0.0,1.25,0.25,0.0,0.0,-1.17,0.89,2.52,177.21,5.8,13.0,9.75,4.25,9.0,15.5,13.5,8.25,5.5,4.75,2.5,3.5,2.75,1.5,2.25,0.02,0.14,1.08,1524.39,-9.3,34.5
2.78,1.0,0.5,0.0,1.75,0.0,1.75,6.25,2.5,0.0,1.25,0.25,0.0,0.0,-1.36,1.89,2.83,162.64,5.9,14.8,11.0,5.0,9.25,15.5,15.0,8.25,4.75,4.5,1.75,1.5,2.75,1.5,1.25,-0.05,0.2,1.14,1554.94,-10.4,41.9
2.8,1.0,0.0,0.0,1.75,0.0,1.75,6.25,2.5,0.0,1.25,0.25,0.0,0.0,-1.23,3.02,2.89,158.49,5.6,11.0,11.5,4.25,9.0,15.5,15.0,8.25,3.5,4.25,1.5,3.25,2.75,1.0,2.25,0.14,0.33,1.27,1567.13,-9.5,38.8
2.82,1.0,0.25,0.0,1.75,0.0,1.75,6.25,2.75,0.0,1.5,0.25,0.0,0.0,-0.67,4.77,1.33,168.06,4.8,10.1,10.5,3.25,8.75,11.5,12.0,7.0,2.5,1.25,0.0,1.25,1.5,0.5,1.0,0.27,0.39,1.52,1444.14,-12.1,50.8
2.84,1.0,0.0,0.0,1.75,0.0,1.75,6.25,2.75,0.0,1.5,0.0,0.0,0.0,0.39,6.02,-0.55,162.79,4.6,9.9,9.75,1.5,8.25,9.75,10.5,6.25,3.0,2.75,0.75,0.0,1.0,0.25,1.0,0.58,0.77,1.77,1266.56,-12.3,49.3
2.86,0.5,0.0,0.0,1.75,0.0,1.75,6.0,2.75,0.0,1.5,0.25,0.0,0.0,1.83,7.02,-1.05,162.86,3.1,4.3,8.75,2.75,7.75,7.25,9.0,6.0,2.5,1.5,0.5,0.75,0.0,0.25,1.25,0.77,0.95,2.52,1003.6,-12.1,51.6
2.88,1.25,0.5,0.0,1.75,0.0,3.0,5.75,2.25,0.5,2.0,0.5,2.0,1.0,-0.98,-2.23,2.77,189.46,2.8,-10.4,6.75,1.75,6.25,5.0,6.5,3.5,1.0,1.25,0.25,0.0,0.25,0.25,0.5,1.08,0.77,2.45,725.86,-14.1,55.3
2.9,1.25,0.5,0.0,1.75,0.0,3.0,6.25,4.25,0.75,4.25,1.5,3.5,4.0,0.83,0.7,-0.86,250.11,-1.0,-36.5,2.75,1.0,3.75,0.0,3.75,0.75,0.0,1.0,0.75,1.0,0.5,0.75,0.0,0.77,0.02,2.14,425.68,-12.6,35.4
2.92,0.75,0.0,0.5,1.75,0.0,2.5,5.75,4.0,0.75,4.25,1.25,5.0,5.5,0.95,0.14,2.2,310.39,-1.1,-48.3,0.5,2.0,2.5,2.75,3.0,2.75,0.0,0.25,0.75,1.5,0.75,1.0,0.0,-0.17,0.52,0.89,265.18,-6.4,29.1
2.94,0.25,0.0,0.0,1.75,0.0,2.75,6.25,4.5,0.75,5.5,1.75,6.25,6.25,0.14,0.27,1.7,398.92,-2.7,-56.1,1.75,1.5,2.75,2.75,3.75,2.75,0.0,1.25,0.75,1.5,1.75,1.5,0.5,0.52,-0.67,3.45,182.74,-6.5,18.8
2.96,2.25,0.5,0.0,3.25,1.25,4.0,6.5,6.25,2.0,7.0,3.75,6.75,8.0,-0.17,0.77,1.83,546.58,-1.1,-41.9,0.75,1.75,2.75,2.75,3.75,2.75,0.0,1.25,0.75,1.5,1.75,1.25,0.25,1.39,-1.42,2.39,144.06,-5.5,19.4
2.98,2.25,0.75,0.75,3.5,3.5,5.0,7.0,6.5,2.25,6.75,4.25,8.0,8.75,-0.11,-0.05,1.02,716.34,-0.5,-35.9,1.25,1.5,2.75,1.5,3.75,2.75,0.0,1.25,0.5,1.25,1.75,0.75,0.5,0.95,-0.67,0.64,135.09,-5.2,21.1
3.0,1.25,0.5,1.75,3.75,5.25,5.0,7.25,6.5,3.25,7.75,5.0,8.5,9.0,-0.11,0.02,0.95,897.84,-0.3,-35.4,1.75,1.75,2.75,3.25,3.75,2.0,0.0,1.0,0.75,1.5,1.75,1.5,0.75,0.39,-0.42,0.2,156.63,-7.7,19.3
3.02,1.75,0.0,1.0,4.5,3.75,5.25,7.5,6.75,3.25,8.25,5.25,8.25,9.0,-0.11,-0.05,0.95,1028.06,-0.5,-37.9,1.25,1.75,2.75,2.75,3.75,2.25,0.0,1.0,0.5,1.5,1.75,1.5,1.0,-0.05,-0.3,0.27,176.13,-6.3,16.1
3.04,2.25,0.0,1.5,2.0,3.75,5.25,7.5,7.0,3.75,7.5,5.75,8.25,9.0,-0.11,-0.05,0.95,1099.84,-0.4,-40.0,1.25,1.0,2.75,1.5,3.75,2.75,0.0,1.0,0.75,1.5,1.75,1.25,1.0,-0.17,-0.17,0.7,195.34,-4.7,11.6
3.06,2.0,0.0,1.5,4.25,3.75,5.75,7.5,7.25,3.75,8.25,5.5,8.25,9.0,-0.11,-0.05,0.95,1135.18,-0.3,-36.6,0.0,0.5,2.75,1.25,3.75,2.0,0.75,0.0,0.75,1.5,0.75,0.25,0.5,0.02,-0.23,0.83,198.78,-5.3,21.7
3.08,2.25,0.0,1.75,4.0,3.75,5.75,7.5,7.25,3.75,7.5,5.25,7.5,8.25,-0.11,-0.05,0.95,1125.08,0.0,-33.6,0.0,0.25,1.5,2.75,0.0,2.0,0.0,0.0,0.25,0.0,0.75,1.25,1.25,0.2,-0.23,0.89,170.62,-7.2,0.8
3.1,3.0,0.0,1.5,4.25,5.25,5.75,7.75,7.25,3.75,7.25,5.0,7.25,8.0,-0.11,-0.05,0.95,1107.64,0.3,-28.7,0.0,0.0,2.75,0.75,0.0,0.5,0.0,0.0,0.25,0.25,0.75,1.25,0.25,0.14,-0.11,0.95,128.4,-18.4,-2.0
3.12,3.0,0.25,1.0,4.5,4.25,6.0,7.5,7.25,3.75,7.25,5.0,6.75,7.5,-0.11,-0.05,0.95,1057.41,0.1,-28.6,0.0,1.75,1.0,1.25,3.75,0.25,0.75,0.75,0.25,0.0,0.75,0.25,0.25,0.08,0.02,1.14,126.44,-6.5,37.0
3.14,3.0,0.5,1.75,4.5,5.25,6.0,7.75,7.25,4.0,7.0,4.5,6.25,7.25,-0.11,-0.05,0.95,1020.62,0.6,-23.8,0.0,0.25,1.0,1.0,0.0,0.25,0.0,0.0,0.0,0.0,0.75,0.25,0.5,0.08,0.14,1.33,92.94,-14.3,4.5
3.16,3.0,0.25,1.75,4.5,5.75,6.5,7.75,7.25,4.0,6.75,4.5,5.75,6.25,-0.11,-0.05,0.95,982.5,0.6,-20.7,1.5,0.25,1.25,1.25,0.0,0.25,0.0,0.0,0.0,1.5,0.75,1.5,0.25,0.2,0.33,1.64,82.79,-13.3,-4.1
3.18,3.0,0.5,2.25,4.5,4.75,7.0,8.0,7.25,4.25,5.75,4.25,5.0,6.0,-0.11,-0.05,0.95,940.03,1.2,-17.8,0.0,0.0,1.25,1.25,0.0,0.0,0.0,0.0,0.0,0.0,0.75,0.25,0.5,0.39,0.52,1.95,50.13,-18.3,3.8
3.2,3.0,0.75,2.75,4.5,6.0,7.0,8.0,7.25,4.5,4.75,4.0,5.0,5.5,-0.11,-0.05,0.95,906.64,1.9,-13.0,0.25,0.25,1.25,0.75,0.0,0.25,0.0,0.0,0.0,0.0,0.5,0.25,0.5,0.52,0.77,2.58,37.94,-17.0,14.8
3.22,3.25,1.5,2.5,4.5,6.0,7.5,8.25,7.25,4.75,5.0,4.0,3.5,5.0,-0.11,-0.05,0.95,893.11,1.8,-8.0,0.5,0.25,2.5,0.5,0.0,0.75,0.0,0.0,0.0,0.0,0.25,0.25,0.5,0.83,1.89,2.83,30.43,-19.6,32.6
3.24,3.5,1.75,2.5,4.75,6.75,8.0,8.25,7.5,4.75,5.75,4.0,3.5,4.25,-0.11,-0.05,0.95,908.84,1.6,-5.4,0.0,0.5,0.75,0.75,0.0,0.25,0.0,0.0,0.0,0.0,0.0,0.25,0.5,0.95,2.83,2.64,22.77,-12.8,22.0
3.26,4.5,2.0,2.5,5.75,6.5,8.25,8.5,7.75,5.0,5.75,3.5,3.0,4.0,-0.11,-0.05,0.95,944.23,2.3,-0.9,0.0,0.0,1.0,0.25,0.0,0.0,0.0,0.0,0.0,0.25,0.0,1.0,0.25,1.2,4.58,1.27,18.72,-16.2,-28.0
3.28,4.75,2.0,3.5,6.25,7.75,9.0,8.75,7.75,5.0,5.5,3.5,2.25,3.0,-0.11,-0.05,0.95,998.01,3.0,5.7,0.0,0.0,1.0,0.75,0.0,0.5,0.0,0.0,0.25,0.0,0.75,0.25,0.0,0.89,5.64,-2.11,22.05,-15.7,9.3
3.3,5.5,2.0,4.5,6.5,9.0,9.25,9.25,7.75,5.0,4.75,2.75,2.0,2.25,-0.11,-0.05,0.95,1054.88,4.1,12.5,0.0,0.5,1.25,0.0,0.0,0.5,0.0,0.0,0.0,0.5,0.25,0.25,1.5,-1.67,6.52,-0.98,37.57,-4.3,-22.3
3.32,6.25,2.25,4.75,7.75,9.75,9.5,9.5,7.75,5.0,4.75,2.75,2.0,2.25,-0.11,-0.05,1.02,1135.55,4.7,15.3,0.0,0.25,0.75,0.0,0.0,0.25,0.0,0.5,0.25,1.5,0.75,1.5,1.5,-0.36,-0.86,2.33,65.7,0.2,-61.8
3.34,6.75,2.0,5.5,8.0,12.0,9.5,10.0,7.75,4.5,4.25,2.75,1.75,2.25,-0.11,-0.11,1.02,1221.67,5.2,19.0,0.0,0.0,1.0,0.0,0.0,0.5,0.0,1.25,0.5,3.0,1.75,3.75,4.0,-0.92,0.39,0.45,137.24,2.4,-76.3
3.36,8.25,3.5,6.25,9.75,13.5,10.5,10.0,7.75,4.75,4.25,2.5,2.0,2.25,-0.11,-0.05,1.08,1349.22,5.9,23.7,0.0,0.0,1.0,0.0,0.0,0.0,0.0,1.25,1.25,4.75,2.75,5.75,6.0,0.14,0.33,2.08,227.78,2.0,-83.2
3.38,9.75,3.5,6.75,12.5,14.5,11.0,10.0,7.75,4.25,4.25,1.75,2.0,2.25,-0.11,0.02,1.02,1467.05,6.6,27.9,1.75,0.5,0.25,0.0,2.25,0.0,0.0,2.5,1.75,6.25,4.75,6.75,8.25,1.2,0.39,1.83,351.45,1.7,-64.8
3.4,11.0,4.0,7.75,12.5,14.0,11.5,9.75,7.75,4.0,4.25,2.5,1.75,2.25,-0.11,0.08,1.14,1580.11,7.2,29.2,0.75,1.0,2.25,0.75,0.0,3.0,0.0,2.25,2.5,7.0,5.75,7.25,8.5,-0.3,0.14,1.27,499.16,0.9,-59.4
3.42,11.5,3.5,8.25,10.5,15.5,10.0,9.25,7.5,3.0,3.25,2.0,0.5,2.25,-0.23,0.14,1.33,1623.64,7.8,34.0,1.0,1.0,2.5,1.25,0.0,2.75,0.75,3.75,2.5,7.0,6.5,7.5,8.5,0.02,0.08,1.02,651.87,0.2,-56.1
3.44,12.5,4.0,8.0,9.75,12.5,9.5,9.25,6.75,2.75,3.75,1.5,0.5,1.0,-0.36,0.2,1.52,1599.01,9.0,37.2,1.25,1.25,2.5,1.5,0.5,3.25,0.75,4.0,2.75,7.0,6.5,7.5,8.5,0.2,0.02,1.02,759.44,0.1,-51.4
3.46,16.5,5.0,8.5,12.0,11.5,9.0,8.75,7.0,2.5,4.25,1.25,1.75,2.0,-0.36,0.33,1.83,1602.92,10.3,36.9,0.25,1.0,2.5,1.25,1.25,3.25,1.0,4.0,3.0,7.0,6.5,6.75,8.0,0.08,0.02,0.95,813.81,0.9,-52.1
3.48,15.5,5.0,8.75,8.5,11.5,8.0,8.75,6.0,1.75,4.25,1.75,1.75,2.0,-0.86,0.58,2.02,1562.58,10.5,36.3,2.0,2.25,2.75,3.0,4.25,5.0,2.0,5.25,3.25,7.75,7.25,7.5,8.75,0.14,0.02,0.95,921.92,-0.1,-33.6
3.5,12.0,3.75,7.0,6.5,9.25,6.5,8.5,5.5,1.5,4.0,1.5,1.25,2.0,-0.86,0.7,2.95,1445.67,9.9,32.8,2.25,2.25,2.75,2.5,3.75,5.0,2.0,5.0,3.25,7.5,7.25,7.5,8.75,0.14,0.02,0.95,992.2,-0.3,-34.5
3.52,7.5,0.0,4.5,4.0,6.5,2.75,7.25,4.25,0.75,1.5,0.25,0.0,0.25,-1.11,0.45,2.64,1092.6,11.9,39.6,2.75,2.25,2.75,2.0,3.75,5.0,2.0,5.0,3.25,6.5,7.25,6.25,8.5,0.14,0.02,0.95,1025.09,-0.6,-31.6
3.54,3.75,0.0,1.25,1.75,0.75,2.5,6.25,3.0,0.75,1.25,0.0,0.0,0.25,-0.98,-0.3,2.02,635.46,9.8,25.9,1.75,1.25,2.75,3.25,3.5,5.75,1.75,5.0,3.5,7.0,6.75,6.0,7.5,0.14,0.02,0.95,1002.02,0.0,-32.1
3.56,2.25,0.25,0.25,0.75,0.5,2.5,6.25,2.75,0.75,1.25,0.0,0.0,0.0,-0.23,0.27,2.39,307.12,5.9,18.2,1.25,1.25,2.75,1.75,5.5,4.0,2.25,4.0,3.25,5.5,5.0,5.25,7.0,0.14,0.02,0.95,909.09,-0.2,-29.0
3.58,1.75,0.25,0.75,1.0,0.0,2.5,6.0,2.5,0.0,1.25,0.0,0.0,0.5,-1.3,-0.98,3.33,137.15,5.9,15.4,1.25,1.25,2.75,2.5,3.75,5.25,2.0,4.0,3.25,5.25,4.25,4.25,6.0,0.14,0.02,0.95,789.73,0.0,-25.1
3.6,1.25,0.5,0.0,1.5,2.5,0.25,6.0,2.5,0.25,1.5,0.5,0.0,0.0,-1.11,-1.11,1.02,28.93,6.8,17.2,3.0,2.5,2.75,3.0,5.5,5.75,3.25,4.25,3.25,5.75,5.0,3.75,6.0,0.14,0.02,0.95,749.22,-1.4,-13.7
3.62,1.25,0.5,0.0,1.75,0.0,0.25,6.0,2.75,0.25,1.25,0.0,0.0,0.0,-0.67,-0.67,0.52,0.0,9.5,13.5,3.0,2.5,5.0,5.0,6.25,6.75,3.5,5.25,4.0,5.75,5.0,4.25,5.0,0.14,0.02,0.95,793.04,-3.1,-6.4
3.64,1.25,0.25,0.0,1.75,0.0,1.75,6.25,2.5,0.25,1.25,0.25,0.0,0.0,-0.48,-0.48,0.08,0.0,6.4,13.5,3.5,2.5,5.0,5.0,6.5,7.0,4.0,5.25,4.25,5.25,4.75,3.0,4.5,0.14,0.02,0.95,855.53,-3.6,-1.2
3.66,1.25,0.5,0.25,0.5,0.0,1.75,6.0,2.25,0.0,1.25,0.0,0.0,0.0,-0.36,-0.36,0.08,0.0,6.1,15.7,4.5,2.75,5.25,5.25,8.0,7.0,4.5,5.25,4.5,4.5,4.25,3.0,3.5,0.14,0.02,0.95,927.15,-4.7,6.0
3.68,1.25,0.25,0.0,1.75,0.0,1.75,5.75,2.25,0.0,1.25,0.0,0.0,0.25,-0.36,-0.3,0.45,0.0,5.7,14.6,4.5,2.75,5.25,7.0,8.0,7.5,5.0,5.25,4.0,4.5,4.25,2.75,3.25,0.14,0.02,0.95,983.17,-5.0,9.2
3.7,1.0,0.25,0.0,1.75,0.0,1.75,5.75,2.5,0.0,1.25,0.25,0.0,0.0,-0.36,-0.36,0.95,0.0,5.2,12.7,5.5,3.0,6.75,8.75,9.0,7.75,5.5,5.25,3.75,4.25,4.0,2.25,3.0,0.14,0.02,0.95,1056.79,-6.4,16.3
3.72,1.25,0.25,0.0,1.75,0.75,1.75,6.0,2.5,0.0,1.25,0.0,0.25,0.25,-0.36,-0.23,1.02,55.45,5.0,13.9,6.25,3.25,6.75,10.0,9.75,7.75,5.75,5.25,3.75,4.25,3.75,2.25,3.0,0.08,0.02,1.02,1133.83,-6.9,19.0
3.74,1.0,0.5,0.0,1.75,0.0,1.75,6.0,2.5,0.0,1.25,0.0,0.0,0.25,-0.36,-0.05,1.02,107.73,5.1,13.8,7.0,3.75,7.75,10.5,10.5,8.0,6.0,5.25,3.75,4.25,3.75,2.0,3.5,0.08,0.02,1.02,1257.06,-7.3,21.2
3.76,1.0,0.5,0.0,1.75,0.0,1.75,6.0,2.75,0.0,1.25,0.0,0.0,0.25,-0.3,0.08,1.08,152.95,4.6,12.7,7.75,4.25,7.75,12.0,12.0,8.25,5.75,5.25,3.25,4.0,3.0,1.5,2.5,0.08,0.08,1.02,1351.53,-7.7,28.2
3.78,1.0,0.5,0.0,1.75,0.0,1.5,6.25,2.25,0.0,1.25,0.0,0.0,0.0,-0.3,0.27,1.27,168.59,6.9,17.6,8.5,4.25,8.5,14.0,12.5,8.25,5.75,4.75,2.5,3.5,3.0,1.5,2.75,0.08,0.14,0.95,1426.86,-8.7,31.4
3.8,1.0,0.5,0.0,1.75,0.0,1.75,6.25,1.75,0.0,1.25,0.0,0.0,0.0,-0.3,0.33,1.52,168.97,7.4,20.5,9.5,4.5,8.75,14.5,13.5,8.5,5.5,4.75,2.5,3.0,2.75,1.5,2.0,0.08,0.14,1.08,1488.17,-9.2,35.3
3.82,1.0,0.25,0.0,1.75,0.0,1.75,6.25,2.25,0.0,1.25,0.0,0.0,0.0,-0.42,0.52,2.08,166.85,6.1,16.0,10.5,5.0,8.75,15.5,15.0,0.0,4.75,4.25,1.25,1.5,2.75,1.5,2.25,0.02,0.2,1.14,1479.39,-13.3,41.0
3.84,1.0,0.5,0.0,1.25,0.0,1.75,6.25,2.25,0.0,1.25,0.0,0.0,0.0,-0.55,0.77,2.45,165.3,5.8,16.0,11.0,4.0,8.75,14.5,15.0,8.5,3.5,4.25,1.25,3.25,2.75,1.5,2.5,-0.05,0.2,1.14,1494.49,-9.0,36.8
3.86,1.0,0.0,0.0,1.75,0.0,1.75,6.5,2.5,0.0,1.25,0.0,0.0,0.0,-0.86,1.64,3.2,167.34,5.8,13.1,11.0,4.0,0.0,12.0,15.0,8.0,3.0,4.0,0.0,1.25,2.75,0.75,2.25,0.2,0.33,1.33,1396.23,-5.6,40.1
3.88,1.0,0.0,0.0,1.75,0.0,1.75,6.25,2.5,0.0,1.25,0.75,0.0,0.0,-1.11,2.58,3.08,169.31,5.8,7.5,9.75,3.0,0.0,12.5,13.5,7.75,2.25,2.5,0.5,1.5,1.75,0.5,1.0,0.39,0.39,1.39,1264.81,-6.0,44.6
3.9,1.0,0.0,0.0,1.5,0.0,1.75,6.25,2.5,0.0,1.25,0.0,0.0,0.0,-1.36,4.7,1.95,168.58,5.2,11.8,9.75,3.5,8.75,12.0,11.5,7.5,2.25,2.75,0.75,1.0,1.25,1.25,1.5,0.33,0.58,1.58,1152.82,-10.9,45.1
3.92,1.0,0.25,0.0,1.75,0.0,1.75,6.25,2.5,0.0,1.25,0.5,0.0,0.0,-0.48,6.7,-2.98,170.53,5.9,11.2,9.0,3.75,8.25,10.5,10.5,7.0,3.0,2.5,0.5,0.25,1.5,0.25,1.25,0.77,0.89,2.02,1052.2,-11.5,49.1
3.94,1.0,0.25,0.0,1.75,0.5,1.75,6.25,2.5,0.0,1.5,0.0,0.0,0.0,2.14,7.08,-1.67,174.18,4.8,14.8,7.75,2.75,7.0,7.25,9.0,5.75,2.0,0.0,0.25,0.0,0.0,0.0,1.25,0.83,0.95,2.95,877.3,-12.8,57.5
3.96,0.5,0.25,0.0,1.75,0.0,1.75,6.25,2.5,0.0,1.75,0.0,1.0,1.0,-1.42,-1.92,4.83,181.52,2.6,-10.0,3.25,1.0,6.5,3.0,6.75,3.0,0.75,0.25,0.5,0.0,0.0,0.0,0.5,1.08,0.7,2.33,618.91,-13.1,54.5
3.98,1.25,0.5,0.0,1.75,0.0,2.5,6.25,4.5,0.75,4.25,1.25,3.5,3.75,-0.48,-0.48,1.33,243.42,-0.7,-36.7,1.5,0.25,4.5,2.75,2.75,2.75,0.0,0.0,0.75,1.5,1.0,0.75,0.5,-0.17,0.02,1.77,381.05,-10.5,26.6
4.0,1.0,0.0,0.0,1.75,3.5,2.75,6.25,3.75,0.75,4.25,0.25,5.75,5.5,0.02,0.02,3.08,316.9,-1.7,-35.9,0.25,1.25,3.5,3.25,3.5,0.5,0.25,1.0,0.75,1.5,1.75,0.75,0.75,0.33,-0.36,3.45,243.87,-9.3,16.7
4.02,0.75,0.5,0.0,2.0,1.25,3.0,6.5,4.5,1.5,5.75,2.5,6.75,6.5,-1.3,0.27,5.2,430.68,-1.4,-47.6,0.5,1.0,2.75,3.0,3.75,0.25,0.0,0.75,0.75,1.5,1.75,1.25,1.5,1.33,-1.55,3.02,163.43,-7.8,7.0
4.04,0.5,0.5,0.0,3.0,0.0,4.5,6.75,5.75,2.5,6.5,4.0,7.5,7.75,0.33,0.02,1.39,574.48,-1.8,-50.0,1.25,0.75,2.75,2.25,3.75,0.25,0.0,1.25,0.5,0.25,1.75,0.25,0.75,0.95,-0.73,1.08,120.04,-10.4,25.2
4.06,2.25,0.0,0.0,2.75,3.5,4.0,7.5,6.5,2.5,6.75,4.75,7.25,9.0,-0.23,0.02,1.08,730.8,-1.1,-41.3,0.0,0.0,2.5,1.0,0.5,0.0,0.0,0.0,0.25,0.0,0.75,0.25,0.5,0.52,-0.48,0.14,50.88,-20.3,16.9
4.08,0.25,0.0,0.0,1.75,3.0,4.0,7.25,6.25,2.75,7.25,4.75,7.5,7.5,-0.23,0.02,0.95,820.27,-2.4,-48.6,0.25,0.0,2.5,1.5,0.0,0.0,0.0,0.0,0.25,0.0,0.75,0.25,0.5,0.14,-0.42,0.2,0.0,-22.8,20.0
4.1,0.25,0.0,0.0,2.0,3.5,4.0,7.25,6.25,3.25,7.25,4.0,7.5,8.0,-0.17,-0.05,0.95,875.26,-2.5,-47.0,0.5,0.25,1.75,1.25,0.0,0.0,0.0,0.0,0.25,0.0,0.5,0.25,0.5,0.02,-0.3,0.64,0.0,-21.4,23.8
4.12,0.5,0.0,0.0,2.0,3.5,4.0,7.25,6.5,3.25,7.25,4.5,7.5,8.0,-0.11,-0.05,0.95,897.34,-2.3,-46.5,0.25,0.25,1.5,1.25,0.0,0.0,0.0,0.0,0.25,1.0,0.0,0.25,0.5,0.14,-0.36,0.77,0.0,-14.1,9.2
4.14,1.25,0.0,0.0,2.0,3.5,4.25,6.25,6.25,3.25,7.25,4.0,6.75,7.5,-0.11,-0.05,0.95,887.8,-2.3,-42.9,0.0,0.5,1.0,0.25,0.0,0.25,0.0,0.0,0.25,0.0,0.0,0.25,0.5,0.27,-0.3,0.77,0.0,-14.1,14.3
4.16,1.25,0.0,0.0,2.0,3.5,5.0,6.25,6.5,3.25,6.75,3.75,6.75,7.5,-0.17,-0.05,0.95,865.01,-2.6,-41.3,0.0,0.0,1.25,0.75,0.0,0.0,0.0,0.0,0.25,0.0,0.0,0.25,0.5,0.33,-0.17,1.02,0.0,-19.7,9.9
4.18,1.25,0.0,0.0,2.0,3.5,5.25,7.5,6.5,3.25,6.0,3.5,6.0,7.0,-0.11,-0.05,0.95,825.86,-2.2,-37.6,0.0,0.25,1.5,1.25,0.0,0.0,0.0,0.0,0.0,0.0,0.0,1.25,0.5,0.27,-0.05,1.27,0.0,-18.2,0.5
4.2,1.5,0.0,0.25,2.0,3.5,5.25,7.5,6.5,3.25,5.75,3.75,5.75,6.25,-0.11,-0.05,0.95,777.98,-1.5,-34.9,0.75,0.25,2.75,1.0,0.0,0.0,0.0,0.25,0.75,1.5,1.75,1.5,0.5,0.33,0.08,1.45,42.98,-14.5,-15.6
4.22,1.25,0.0,0.25,2.0,3.5,5.75,7.5,6.5,3.25,5.75,3.0,5.0,6.0,-0.11,-0.05,0.95,714.54,-2.2,-32.5,0.0,0.5,1.75,0.5,0.25,0.5,0.0,0.0,0.5,1.5,0.75,0.25,0.5,0.39,0.27,1.64,70.04,-8.2,-6.8
4.24,1.75,0.5,1.0,2.75,3.5,6.25,7.75,6.75,3.25,5.0,3.0,4.75,5.5,-0.11,-0.05,0.95,681.8,-0.6,-24.2,0.0,0.5,1.5,1.0,0.0,0.0,0.0,0.0,0.25,1.5,0.75,1.25,0.5,0.45,0.33,2.02,89.22,-10.2,-22.4
4.26,2.25,0.5,1.75,4.5,5.5,7.5,8.25,7.25,4.25,5.75,1.75,5.0,5.5,-0.11,-0.05,0.95,713.36,0.0,-15.0,1.25,1.5,1.75,2.0,3.25,0.5,0.5,1.0,0.75,1.25,0.75,1.5,0.5,0.58,0.45,2.58,146.98,-8.1,16.9
4.28,3.0,0.5,1.75,5.25,6.5,8.0,8.0,7.25,4.5,5.75,3.0,3.5,4.5,-0.11,-0.05,0.95,771.77,0.6,-8.2,0.75,1.5,2.75,1.5,2.75,0.5,0.75,1.0,0.5,1.5,1.75,1.25,1.5,0.95,0.58,3.02,202.41,-7.9,4.2
4.3,3.5,1.75,2.5,6.0,7.75,8.5,8.5,7.75,4.5,5.75,3.75,3.25,4.25,-0.11,-0.05,0.95,882.8,1.6,-2.0,1.25,1.25,2.75,2.0,2.5,1.5,0.75,0.25,0.75,0.0,0.75,1.25,0.5,1.27,1.64,3.45,239.81,-12.1,29.8
4.32,4.5,2.0,2.75,6.25,8.5,9.0,8.5,7.75,4.5,5.5,4.0,2.25,2.75,-0.11,-0.05,0.95,986.17,2.4,5.5,0.75,0.25,2.25,1.5,3.0,0.5,0.0,0.0,0.5,1.5,0.0,0.25,0.5,-0.11,7.95,3.77,237.65,-8.5,27.0
4.34,4.75,2.0,3.5,6.5,9.25,9.5,8.75,7.75,4.25,5.25,2.5,2.0,2.75,-0.11,-0.05,0.95,1069.18,2.6,10.3,0.75,0.0,2.25,1.25,0.0,2.25,0.0,1.25,0.75,0.25,0.25,1.5,1.0,-1.73,7.95,-1.17,223.95,-6.3,-2.8
4.36,5.5,2.0,4.5,7.5,10.0,9.75,9.0,7.75,4.25,5.0,2.5,2.0,2.75,-0.17,-0.05,0.95,1147.11,3.7,13.6,1.25,1.25,0.75,2.5,0.25,0.5,0.0,1.25,0.5,0.25,2.0,0.25,1.5,-1.11,4.95,1.58,207.09,-8.3,3.4
4.38,6.0,2.25,4.75,8.0,11.5,10.5,9.25,8.0,4.0,4.75,2.5,2.0,2.5,-0.17,-0.05,1.02,1239.34,3.8,16.9,2.0,1.75,1.75,3.25,1.25,2.75,0.75,1.25,1.25,3.25,2.75,1.0,1.5,-0.3,2.83,0.89,247.62,-5.0,0.9
4.4,6.75,3.5,5.25,9.75,13.0,11.0,8.75,7.75,4.0,4.25,3.0,2.0,2.25,-0.17,0.02,1.02,1345.53,4.6,21.7,3.0,2.0,2.75,2.75,2.25,4.0,1.0,2.0,1.25,3.25,3.25,1.75,3.25,1.08,-7.48,-0.23,316.59,-4.2,-2.1
4.42,7.5,3.5,5.75,10.0,14.5,12.0,9.25,8.0,3.75,4.25,0.5,2.0,2.25,-0.11,0.02,1.02,1430.69,4.5,26.5,3.75,2.0,5.0,3.5,4.25,3.75,1.25,2.25,1.25,3.25,3.25,2.0,3.25,-0.55,0.39,3.27,428.83,-6.8,6.9
4.44,9.0,3.75,6.25,12.5,15.5,12.5,8.5,7.75,3.25,4.25,2.25,2.0,2.0,-0.11,0.08,1.14,1534.47,5.4,28.4,4.0,1.75,4.75,4.75,5.0,1.25,1.75,1.75,1.0,3.0,3.0,1.5,2.5,-0.17,-0.17,0.58,513.79,-9.8,14.0
4.46,9.75,3.5,6.25,10.5,14.5,11.5,8.75,7.75,2.25,4.25,1.5,1.0,1.0,-0.17,0.14,1.2,1559.35,5.9,32.9,4.25,2.0,5.0,4.75,5.5,3.25,2.0,1.25,1.25,2.25,2.25,1.5,1.5,-0.36,0.45,1.08,576.84,-9.9,24.7
4.48,13.0,5.0,6.5,12.5,14.5,12.0,8.75,7.25,2.25,3.75,1.75,0.75,1.25,-0.3,0.14,1.27,1604.09,7.4,37.7,5.0,2.25,5.25,5.0,5.25,1.75,2.0,1.25,1.0,1.75,2.0,1.5,1.5,-0.8,0.7,1.27,586.98,-12.4,29.1
4.5,12.5,5.0,7.75,13.0,14.5,11.0,8.5,6.5,1.75,3.0,2.0,1.75,2.0,-0.3,0.27,1.27,1616.88,8.3,36.7,5.75,2.25,5.25,5.0,5.5,3.25,1.5,1.25,1.25,2.5,2.0,1.5,1.5,0.2,-0.55,1.52,603.24,-10.7,28.3
4.52,17.0,6.75,8.75,13.0,14.5,9.75,9.25,6.75,1.5,4.0,1.75,1.75,2.0,-0.36,0.27,1.33,1684.15,10.1,40.0,5.75,2.75,5.25,5.25,6.25,5.0,1.25,1.25,1.25,3.0,2.0,1.5,1.5,-0.11,-0.55,0.58,645.21,-8.8,28.8
4.54,17.0,7.75,9.25,12.0,13.5,9.0,9.75,5.5,1.25,4.25,1.75,1.75,1.5,-0.17,0.45,1.58,1710.69,11.1,42.2,6.75,2.75,5.25,6.75,6.25,5.0,0.75,1.25,1.5,3.0,2.5,1.75,1.75,1.08,-2.86,0.89,710.59,-9.4,28.2
4.56,16.0,7.0,9.0,10.0,10.5,8.0,10.5,5.0,0.75,4.0,2.0,1.75,2.0,-0.36,0.7,1.64,1680.37,11.8,40.2,8.25,2.75,6.75,8.25,8.0,6.25,0.75,2.75,1.75,3.5,1.75,3.0,2.5,0.33,0.33,0.7,837.12,-8.7,26.1
4.58,13.5,5.75,8.25,8.0,8.5,7.0,9.75,4.5,0.75,4.0,2.25,0.25,1.5,-0.23,0.95,2.39,1544.54,11.8,40.6,9.0,3.25,7.75,9.75,9.0,5.75,1.25,3.5,3.25,4.5,4.0,5.25,5.0,0.02,-0.42,0.83,1039.16,-8.4,13.3
4.6,9.0,3.5,5.5,5.5,6.25,4.25,8.25,3.0,0.5,1.0,0.0,0.25,0.25,-1.05,0.7,2.77,1230.65,13.8,50.9,9.75,4.25,8.75,11.5,9.25,6.0,1.75,4.0,4.0,4.75,5.0,5.75,6.25,-0.11,-0.17,1.27,1289.9,-8.7,12.2
4.62,4.75,0.0,2.5,2.0,3.75,0.0,7.25,2.5,0.75,2.0,0.5,0.25,0.5,-0.48,3.2,1.7,743.79,13.8,27.4,11.0,4.75,9.0,13.0,9.5,6.5,2.0,5.25,3.75,5.5,5.5,5.5,6.25,0.08,-0.3,1.02,1469.25,-8.5,13.6
4.64,3.75,0.0,2.25,3.25,1.75,0.0,6.25,3.75,0.75,2.25,1.5,1.5,1.75,-2.05,4.45,1.83,419.79,10.6,2.1,12.0,4.75,10.5,14.5,12.0,7.0,3.5,5.5,3.25,3.5,5.0,4.25,6.0,0.08,-0.11,1.08,1624.97,-9.6,22.0
4.66,3.25,0.5,1.25,2.5,3.5,0.0,6.25,2.5,0.75,2.0,1.5,0.0,1.5,0.14,0.77,3.45,259.24,9.7,14.1,12.0,5.75,11.5,16.5,12.5,7.75,5.0,5.5,2.5,3.25,3.0,2.25,3.25,0.39,1.2,1.02,1725.49,-10.7,34.4
4.68,0.75,0.5,0.0,2.0,0.0,1.75,5.75,2.5,0.0,0.75,0.25,0.5,0.25,0.02,2.77,0.14,131.23,5.7,9.8,12.5,5.5,13.0,15.5,11.5,7.25,7.0,4.75,1.75,3.0,2.75,1.0,2.75,-0.48,6.83,1.27,1762.83,-12.4,39.3
4.7,0.5,0.0,1.0,2.0,0.0,0.0,6.5,2.75,0.0,0.5,0.25,0.0,0.25,-0.61,2.02,-0.48,34.19,13.1,11.8,9.0,3.0,10.5,10.5,8.5,5.0,7.0,2.0,1.25,0.0,2.5,1.5,2.0,3.14,-3.67,7.95,1598.72,-14.8,41.4
4.72,0.25,0.5,0.0,1.75,0.0,1.25,6.5,0.75,0.0,1.25,0.25,0.0,0.25,-0.86,1.27,-0.61,0.0,9.2,14.4,8.5,2.75,8.75,8.5,8.0,5.0,4.5,1.25,1.25,0.0,1.75,0.75,1.5,0.95,-0.42,-3.98,1371.79,-14.4,46.0
4.74,0.0,0.25,0.0,1.75,0.0,1.75,6.5,1.0,0.0,1.25,0.25,0.0,0.0,-0.67,0.45,-0.42,0.0,6.8,13.0,7.25,2.0,8.5,7.0,6.25,3.25,4.5,1.25,0.75,0.0,1.75,0.25,1.5,1.2,-0.36,2.77,1032.53,-16.0,46.0
4.76,1.0,0.5,0.0,1.75,0.0,1.75,6.5,1.5,0.0,1.25,0.25,0.0,0.25,-0.17,0.14,-0.36,0.0,7.7,16.9,3.75,0.75,6.75,2.75,2.5,1.0,2.5,0.0,0.75,0.0,0.75,0.25,0.75,0.45,1.45,2.52,644.09,-21.4,47.8
4.78,1.25,0.25,0.0,1.75,0.0,1.75,6.25,2.5,0.0,1.0,0.0,0.0,0.25,0.2,-0.48,-0.42,0.0,6.3,15.7,2.0,0.5,4.0,2.5,0.0,0.0,1.0,0.0,0.25,0.0,0.0,0.25,0.5,0.08,1.7,2.83,333.54,-27.1,52.4
4.8,0.75,0.25,0.0,1.75,0.0,0.5,6.25,2.5,0.0,1.25,0.25,0.0,0.5,0.52,-0.73,-0.3,19.26,7.3,2.9,0.5,1.0,2.75,3.25,0.25,0.5,0.75,0.0,0.5,1.5,0.0,1.25,1.5,0.83,2.02,2.89,169.02,-12.3,8.8
4.82,1.0,0.5,0.0,1.75,0.0,1.75,6.5,2.5,0.0,1.25,0.25,0.0,0.0,0.89,-0.8,0.58,75.6,6.2,14.9,1.5,1.5,3.75,2.5,2.5,0.5,0.25,0.0,0.5,0.5,0.75,0.25,1.5,0.14,0.58,3.02,64.1,-14.1,33.0
4.84,0.75,0.0,0.0,1.75,0.0,1.75,6.5,2.5,0.0,1.0,0.25,0.0,0.25,1.2,-1.36,1.2,120.11,5.3,8.6,0.25,0.25,2.5,1.25,0.0,0.25,0.0,0.0,0.0,0.5,0.75,0.25,0.5,0.02,0.58,1.89,0.0,-18.5,17.0
4.86,1.0,0.0,0.0,1.0,0.0,1.75,6.5,0.0,0.0,1.0,0.0,0.0,0.0,0.45,-2.05,1.95,128.79,12.6,28.1,0.0,0.5,2.5,1.75,0.0,0.5,0.0,0.0,0.25,0.0,0.0,0.25,0.5,0.02,0.58,1.27,0.0,-19.3,36.9
4.88,0.75,0.0,0.0,0.5,0.0,2.25,6.25,0.0,0.0,1.25,0.25,0.0,0.0,-0.17,-1.98,1.58,119.43,8.2,17.9,0.0,0.5,2.5,1.25,0.0,0.5,0.0,0.0,0.0,0.25,0.0,0.25,0.5,0.02,0.2,1.33,0.0,-18.3,33.5
4.9,0.75,0.25,0.0,0.5,0.0,1.75,6.25,0.0,0.0,0.5,0.25,0.0,0.0,-0.11,-1.36,0.89,111.85,13.2,30.0,0.0,0.25,2.5,0.75,0.0,0.25,0.0,0.0,0.0,0.0,0.25,0.25,0.75,0.14,0.2,0.7,0.0,-20.3,20.6
4.92,0.5,0.25,0.0,0.5,0.0,1.75,6.25,0.0,0.0,1.25,0.25,0.0,0.0,0.02,-0.8,0.39,112.14,9.5,17.2,0.0,0.75,2.0,1.25,0.0,0.0,0.0,0.0,0.0,0.5,0.75,0.25,0.75,0.2,-0.36,0.14,0.0,-16.0,11.4
4.94,0.5,0.5,0.0,0.5,0.0,1.75,6.25,0.0,0.0,1.25,0.25,0.0,0.0,0.02,-0.48,0.2,109.18,9.6,19.9,0.0,0.75,1.75,0.75,0.0,0.0,0.0,0.0,0.0,0.0,0.0,0.25,0.75,0.08,-0.61,0.14,0.0,-19.1,27.3
4.96,0.75,0.5,0.0,0.0,0.0,1.75,6.25,0.0,0.0,1.25,0.0,0.0,0.25,-0.05,-0.23,0.27,108.77,9.0,18.3,0.0,0.75,2.25,1.25,0.0,0.5,0.0,0.0,0.0,0.0,0.0,0.5,0.75,0.08,-1.23,-0.73,0.0,-16.9,27.7
4.98,0.5,0.25,0.0,0.0,0.0,1.25,6.25,0.0,0.0,0.5,0.0,0.0,0.25,-0.11,-0.05,0.2,98.25,13.8,22.5,0.0,0.5,2.25,0.0,0.0,0.5,0.0,0.0,0.25,0.0,0.0,0.25,0.5,0.2,-2.36,-0.73,20.27,-19.1,26.6
5.0,1.0,0.25,0.0,0.25,0.0,3.0,6.5,0.0,0.0,1.0,0.5,0.0,0.5,-0.73,3.14,-3.92,107.17,6.2,15.4,0.5,0.5,2.5,1.25,0.0,0.5,0.0,0.0,0.0,0.25,0.75,0.25,0.5,-0.05,-2.36,-0.8,62.55,-18.6,26.5
5.02,0.75,0.0,0.0,0.75,0.0,0.0,6.25,0.25,0.0,1.25,0.0,0.25,0.0,-1.98,4.33,-5.23,101.37,18.2,10.3,0.5,0.25,2.5,0.25,0.0,0.0,0.0,0.0,0.0,0.0,0.75,0.25,0.5,-0.36,-2.67,-2.17,70.2,-24.8,20.7
5.04,0.5,0.0,0.0,0.5,0.0,0.25,6.5,0.25,0.0,1.75,0.25,1.0,0.25,-1.92,2.39,-5.36,106.52,12.3,-16.3,1.25,0.5,2.25,1.25,0.0,0.25,0.0,0.0,0.0,0.0,0.75,0.25,0.75,-0.48,-3.17,-2.17,84.9,-20.9,30.6
5.06,1.25,0.5,0.0,1.0,0.0,0.25,6.25,0.25,0.0,2.25,0.25,0.75,0.0,-4.05,3.52,-2.42,115.5,13.4,3.8,0.0,0.75,2.0,1.25,0.0,0.5,0.0,0.0,0.0,0.0,0.75,0.25,0.5,-0.55,-1.98,-1.61,89.76,-16.9,25.4
5.08,1.5,0.5,1.0,1.0,1.25,2.75,6.25,0.5,0.0,2.25,1.25,1.0,1.25,-2.55,1.95,-0.73,166.82,6.1,1.6,0.25,1.0,2.25,0.5,0.0,0.25,0.0,0.0,0.0,0.0,0.25,0.25,0.5,-1.55,-0.98,-0.73,98.83,-20.8,37.8
5.1,0.25,0.0,1.0,0.25,0.0,1.75,6.25,0.5,0.0,1.25,1.5,0.25,1.0,-1.17,1.02,1.89,178.03,8.1,-11.7,0.0,1.25,2.5,1.0,0.0,0.5,0.0,0.0,0.0,0.0,0.75,0.25,0.5,-1.8,-0.55,-0.23,101.81,-18.1,32.4
5.12,0.5,0.0,0.0,0.75,0.0,2.5,6.25,0.25,0.0,1.25,0.25,0.0,0.0,1.45,-5.8,4.27,176.19,6.1,15.7,0.0,1.0,1.75,0.75,0.0,0.25,0.0,0.0,0.0,0.0,0.0,0.25,0.5,-1.61,0.58,-0.23,95.01,-18.4,39.3
5.14,0.75,0.0,0.0,1.0,0.0,0.5,6.25,0.25,0.0,1.25,0.25,0.0,0.0,2.95,-5.36,-1.61,152.51,15.4,15.0,0.0,1.0,1.75,1.25,0.0,0.0,0.0,0.0,0.0,0.0,0.0,0.25,0.5,-1.36,1.02,-0.36,90.36,-20.3,41.5
5.16,0.25,0.0,0.0,0.5,0.0,1.0,6.25,0.25,0.0,1.25,0.25,0.0,0.0,3.39,-1.8,-2.42,128.7,11.0,6.9,0.0,0.75,1.75,0.5,0.0,2.0,0.0,0.0,0.5,0.0,0.75,0.25,0.75,-0.98,1.2,-0.23,94.61,-6.9,13.1
5.18,0.25,0.5,0.0,0.75,0.0,0.25,6.25,0.25,0.0,1.25,0.25,0.0,0.25,1.7,0.95,-1.48,110.55,14.0,8.6,1.0,0.5,1.75,0.25,0.0,0.25,0.0,0.0,0.0,0.5,0.75,0.25,0.5,-0.42,1.08,-0.17,96.07,-17.8,17.2
5.2,0.5,0.0,0.0,0.25,0.0,0.0,6.25,0.25,0.0,1.25,0.25,0.0,0.0,0.27,0.27,-0.98,97.9,17.6,3.7,0.0,0.75,1.5,0.5,0.0,0.5,0.0,0.0,0.0,0.0,0.75,0.25,0.5,-0.3,1.08,-0.11,89.96,-14.5,16.3
5.22,1.75,0.5,0.0,0.25,0.0,0.75,6.25,0.25,0.0,1.25,0.25,0.0,0.0,0.2,0.58,-1.42,103.39,16.2,26.7,0.0,1.0,2.75,0.75,0.0,1.5,0.0,0.0,0.25,1.5,1.75,1.25,0.75,-0.42,1.02,-0.11,116.54,-8.7,-8.9
5.24,0.25,0.25,0.0,1.0,0.0,1.75,6.25,0.25,0.0,1.25,0.25,0.0,0.0,0.33,1.27,-1.67,105.21,8.5,15.7,0.0,1.0,2.75,0.75,0.5,0.0,0.25,0.0,0.25,1.75,0.75,1.25,1.5,-0.55,1.2,-0.3,135.62,-10.1,-13.6
5.26,0.75,0.0,0.0,0.5,0.0,1.5,6.25,0.25,0.0,1.25,0.25,0.0,0.0,0.02,1.27,-1.42,110.49,10.4,14.4,0.0,0.75,2.75,0.5,0.0,0.0,0.25,0.0,0.0,0.25,1.5,0.25,0.5,-0.61,1.33,-0.42,137.74,-20.5,10.4
5.28,0.5,0.5,0.0,0.25,0.0,1.5,6.25,0.25,0.0,1.25,0.25,0.0,0.0,-0.23,1.02,-1.17,108.61,9.5,16.1,1.25,1.25,1.5,2.5,0.0,1.5,0.0,0.0,0.0,0.25,0.75,0.25,0.75,-0.67,1.33,-0.36,147.4,-12.4,34.9
5.3,0.25,0.0,0.0,0.25,0.0,1.75,6.25,0.25,0.0,1.25,0.25,0.0,0.25,-0.36,0.89,-0.92,104.93,6.5,3.5,0.0,1.0,2.75,0.75,0.0,2.25,0.25,0.0,0.25,0.5,1.75,0.5,1.5,-0.67,1.33,-0.3,158.69,-7.6,-0.3
5.32,0.5,0.75,0.0,0.25,0.0,2.0,6.25,0.25,0.0,1.5,0.25,0.0,0.0,-0.8,0.52,-0.61,109.13,7.0,17.0,1.25,1.25,2.0,2.75,0.0,2.0,0.25,0.0,0.25,1.75,1.75,1.25,1.5,-0.67,1.33,-0.3,189.21,-8.1,1.6
5.34,0.0,0.25,0.0,0.25,0.0,1.75,6.25,0.25,0.0,1.25,0.25,0.0,0.0,-0.86,0.2,-0.23,113.63,6.6,8.1,0.5,1.5,2.75,2.5,0.0,1.75,0.25,0.0,0.25,1.5,1.75,1.25,1.5,-0.55,1.27,-0.23,211.7,-9.2,1.6
5.36,0.5,0.0,0.0,0.0,0.0,2.0,6.25,0.25,0.0,1.25,0.25,0.0,0.25,-0.48,0.2,-0.23,116.72,6.1,5.6,0.0,0.75,2.75,0.75,0.0,0.0,0.25,0.0,0.25,1.75,1.75,1.25,1.5,-0.48,1.14,-0.11,211.55,-10.8,-25.2
5.38,0.5,0.25,0.0,0.0,0.0,1.5,6.25,0.25,0.0,1.25,0.25,0.0,0.0,-0.42,0.39,-0.42,113.63,9.1,11.5,1.25,1.5,1.5,2.75,0.0,0.5,0.25,0.0,0.25,1.5,1.75,1.5,1.5,-0.42,0.95,-0.11,212.74,-10.6,-2.5
5.4,0.25,0.25,0.0,0.0,0.0,2.0,6.25,0.25,0.0,1.25,0.25,0.0,0.0,-0.42,0.7,-0.48,112.65,6.1,10.1,1.25,1.5,2.75,2.5,1.25,1.5,0.25,0.0,0.25,1.5,1.75,1.25,1.5,-0.55,0.83,-0.3,224.59,-9.6,9.4
5.42,0.0,0.25,0.0,0.0,0.0,1.75,6.25,0.25,0.0,1.25,0.25,0.0,0.0,-0.42,0.89,-0.61,107.84,6.1,6.2,0.0,1.0,2.75,1.25,0.5,1.75,0.25,0.0,0.25,1.75,0.75,1.0,0.75,-0.67,0.89,-0.48,218.42,-7.4,4.2
5.44,0.5,0.0,0.0,0.0,0.0,1.75,6.25,0.25,0.0,1.25,0.25,0.0,0.0,-0.42,1.08,-0.61,106.68,7.9,8.9,1.25,1.75,2.75,2.25,0.5,1.5,0.25,0.0,0.25,1.5,1.75,1.0,1.5,-0.86,0.95,-0.8,227.47,-10.3,9.5
5.46,0.0,0.0,0.0,0.0,0.0,1.75,6.25,0.25,0.0,1.25,0.25,0.0,0.0,-0.3,1.08,-0.67,101.02,5.9,2.4,0.75,1.25,2.75,2.0,1.0,1.0,0.25,0.0,0.25,1.5,1.75,1.0,1.5,-0.98,1.08,-0.73,224.95,-9.8,3.8
5.48,0.5,0.0,0.0,0.0,0.0,1.25,6.25,0.25,0.0,1.25,0.25,0.0,0.0,-0.17,0.89,-0.73,99.08,10.1,7.1,1.25,1.25,2.75,2.5,1.0,2.0,0.25,0.0,0.0,1.5,1.75,1.25,1.5,-0.98,1.27,-0.48,236.94,-8.9,8.7
5.5,0.0,0.25,0.0,0.0,0.0,1.0,6.25,0.25,0.0,0.75,0.25,0.0,0.0,-0.11,0.7,-0.8,92.7,12.0,10.1,1.25,1.5,2.5,2.5,0.5,1.5,0.25,0.0,0.0,0.0,1.75,0.25,1.5,-0.86,1.33,-0.48,228.6,-12.7,24.7
5.52,0.5,0.25,0.0,0.0,0.0,1.25,6.25,0.25,0.0,0.75,0.25,0.0,0.0,-0.11,0.52,-0.8,91.62,12.4,17.7,1.25,1.25,1.25,1.75,0.0,1.5,0.0,0.0,0.0,1.5,1.75,1.0,1.5,-0.73,1.39,-0.67,215.35,-6.9,-3.5
5.54,0.25,0.0,0.0,0.0,0.0,1.25,6.25,0.25,0.0,1.25,0.0,0.0,0.0,-0.11,0.45,-0.8,89.23,9.1,6.9,1.25,1.25,2.75,2.25,0.25,2.0,0.25,0.0,0.0,1.75,0.75,1.25,1.0,-0.55,1.33,-0.8,208.5,-9.7,13.4
5.56,0.25,0.25,0.0,0.0,0.0,0.5,6.25,0.25,0.0,1.0,0.25,0.0,0.0,-0.11,0.52,-0.92,86.52,14.7,7.8,1.25,1.25,1.5,2.5,0.0,1.5,0.75,0.25,0.0,1.25,2.0,0.0,1.5,-0.42,1.14,-0.92,199.71,-8.7,9.4
5.58,0.75,0.25,0.0,0.0,0.0,0.25,6.25,0.0,0.0,0.5,0.25,0.0,0.0,-0.3,1.45,-1.23,82.98,23.1,25.9,0.0,0.5,2.75,0.0,1.0,1.25,0.25,0.0,0.25,1.5,1.75,1.25,1.5,-0.42,1.02,-1.05,190.34,-6.2,-18.9
5.6,0.5,0.0,0.0,0.0,0.0,1.0,6.25,0.25,0.0,1.0,0.25,0.0,0.0,-0.36,1.58,-1.42,83.6,12.6,9.5,0.25,1.25,2.75,1.25,0.5,1.75,0.25,0.0,0.25,1.5,1.75,1.0,1.5,-0.42,0.83,-1.11,190.9,-7.5,-2.8
5.62,0.25,0.0,0.0,0.0,0.0,0.5,6.25,0.25,0.0,0.75,0.25,0.0,0.0,-0.17,1.7,-1.36,80.03,16.3,7.3,1.25,1.25,2.75,2.75,0.25,0.5,0.0,0.0,0.0,1.25,1.25,0.75,1.25,-0.42,0.7,-0.98,188.21,-13.8,15.1
5.64,0.75,0.0,0.0,0.0,0.0,0.5,6.25,0.25,0.0,0.75,0.25,0.0,0.0,0.14,1.52,-1.36,80.78,17.9,15.1,1.25,1.25,2.75,2.75,0.25,2.0,0.75,0.25,0.25,1.75,2.0,1.0,1.5,-0.42,0.52,-0.92,206.32,-9.3,5.4
5.66,0.25,0.25,0.0,0.0,0.0,1.0,6.25,0.25,0.0,1.0,0.25,0.0,0.0,0.2,1.45,-1.11,83.79,11.7,9.9,1.5,1.5,2.75,2.75,1.0,1.25,0.25,0.0,0.25,1.75,1.75,1.25,1.5,-0.48,0.39,-0.73,226.12,-10.4,9.0
5.68,0.5,0.0,0.0,0.0,0.0,1.0,6.25,0.25,0.0,1.25,0.25,0.0,0.0,0.2,1.08,-0.86,88.54,11.4,6.0,2.0,1.25,2.75,2.5,0.5,2.0,0.25,0.0,0.25,1.5,1.75,1.5,1.5,-0.48,0.2,-0.73,240.52,-10.3,8.4
5.7,0.25,0.25,0.0,0.0,0.0,1.0,6.25,0.25,0.0,1.25,0.25,0.0,0.0,0.27,0.77,-0.67,92.54,10.6,6.5,1.25,1.25,2.75,2.75,1.25,1.5,0.25,0.0,0.0,1.5,1.75,1.5,1.5,-0.42,0.14,-0.67,247.89,-9.7,7.8
5.72,0.5,0.0,0.0,0.0,0.0,1.25,6.25,0.0,0.0,1.25,0.0,0.0,0.0,0.27,0.33,-0.67,94.45,11.3,12.4,1.25,1.5,2.75,2.25,2.25,1.75,0.5,0.0,0.0,1.5,1.75,1.0,1.5,-0.36,-0.05,-0.61,254.89,-8.4,14.2
5.74,0.75,0.0,0.0,0.0,0.0,1.75,6.25,0.0,0.0,1.25,0.25,0.0,0.0,0.27,0.2,-0.55,100.19,9.7,13.7,0.0,0.75,2.75,0.0,1.0,0.5,0.25,0.0,0.0,0.75,0.75,0.0,0.75,-0.3,-0.17,-0.48,217.4,-12.2,17.6
5.76,0.75,0.25,0.0,0.0,0.0,1.5,6.25,0.0,0.0,1.25,0.0,0.0,0.0,0.27,0.02,-0.48,103.02,10.9,19.6,0.0,0.75,1.5,0.5,0.0,0.0,0.0,0.0,0.0,0.75,0.75,1.0,0.5,-0.3,-0.3,-0.36,167.89,-13.0,-13.0
5.78,0.25,0.5,0.0,0.25,0.0,1.75,6.25,0.0,0.0,1.75,0.0,0.0,0.0,0.27,-0.11,-0.42,110.48,6.8,12.8,1.25,1.25,2.75,2.75,1.0,1.25,0.25,0.0,0.0,1.75,1.75,1.25,1.75,-0.23,-0.42,-0.3,170.49,-9.6,5.3
5.8,0.5,0.25,0.0,0.25,0.0,1.75,6.25,0.0,0.0,1.25,0.25,0.0,0.0,0.27,-0.3,-0.36,114.22,9.2,15.7,1.25,1.5,1.5,2.5,0.0,1.25,0.0,0.0,0.0,1.25,0.75,1.25,0.5,-0.36,-0.55,-0.3,167.99,-11.0,17.9
5.82,0.5,0.25,0.0,0.0,0.0,1.75,6.25,0.0,0.0,1.25,0.0,0.0,0.0,0.2,-0.48,-0.3,114.29,8.9,17.3,1.25,1.25,2.75,2.75,0.5,1.25,0.25,0.0,0.25,1.5,1.75,1.25,1.5,-0.42,-0.55,-0.42,194.51,-10.9,6.0
5.84,0.5,0.25,0.0,0.25,0.0,0.75,6.25,0.0,0.0,1.25,0.0,0.25,0.0,0.27,-0.67,-0.23,109.17,14.1,11.4,0.0,0.75,2.75,0.25,0.5,0.0,0.0,0.0,0.0,0.0,1.75,0.25,0.75,-0.48,-0.55,-0.48,168.01,-18.2,7.7
5.86,0.25,0.0,0.0,0.0,0.0,1.0,6.25,0.0,0.0,1.25,0.0,0.0,0.0,0.27,-0.8,-0.3,100.89,11.7,7.8,0.0,0.75,1.25,0.0,0.0,0.0,0.0,0.0,0.0,0.75,0.75,1.0,0.5,-0.55,-0.48,-0.55,132.63,-11.2,-24.2
5.88,0.5,0.25,0.0,0.0,0.0,1.0,6.25,0.0,0.0,1.25,0.25,0.0,0.0,0.27,-0.86,-0.3,96.6,12.6,11.8,1.25,1.5,2.75,2.5,0.25,1.25,0.25,0.25,0.0,1.75,1.75,1.0,1.5,-0.61,-0.42,-0.55,138.49,-10.2,6.3
5.9,0.5,0.25,0.0,0.0,0.0,0.25,6.25,0.0,0.0,1.5,0.0,0.0,0.0,0.27,-0.86,-0.48,90.55,16.0,8.7,1.25,1.25,3.0,2.5,0.5,1.0,0.25,0.5,0.0,1.75,1.75,1.25,1.5,-0.61,-0.36,-0.61,168.59,-10.4,3.7
5.92,0.5,0.0,0.0,0.0,0.0,1.5,6.25,0.0,0.0,1.25,0.25,0.0,0.0,0.27,-0.73,-0.61,92.5,10.0,9.9,1.25,1.25,2.75,2.25,1.25,1.25,0.25,0.0,0.0,1.5,1.25,1.25,1.5,-0.61,-0.36,-0.61,202.48,-9.9,10.1
5.94,0.75,0.25,0.0,0.25,0.0,0.5,6.25,0.0,0.0,1.25,0.25,0.0,0.0,0.27,-0.55,-0.67,93.25,16.4,15.3,1.25,1.25,2.75,2.5,1.75,1.25,0.25,0.0,0.0,1.5,1.0,1.25,1.75,-0.61,-0.3,-0.61,227.21,-9.1,11.7
5.96,0.75,0.5,0.0,0.0,0.0,0.25,6.25,0.0,0.0,1.25,0.0,0.25,0.0,0.2,-0.42,-0.8,94.02,17.6,14.7,1.25,1.25,2.75,2.5,0.5,1.25,0.25,0.0,0.0,1.5,1.75,1.25,1.5,-0.61,-0.17,-0.61,238.7,-10.7,5.9
5.98,0.75,0.25,0.0,0.0,0.0,2.25,6.25,0.0,0.0,1.25,0.25,0.0,0.0,0.08,-0.23,-0.92,101.25,7.8,17.9,1.25,1.25,2.75,2.5,0.0,1.25,0.25,0.0,0.0,1.5,1.5,1.25,1.5,-0.61,0.02,-0.61,237.84,-11.3,5.3
6.0,0.25,0.75,0.0,0.0,0.0,0.25,6.25,0.0,0.0,1.25,0.25,0.0,0.0,0.02,-0.05,-0.98,99.22,16.1,13.3,1.75,1.25,2.75,1.75,0.25,1.25,0.25,0.0,0.0,1.5,1.75,1.0,1.5,-0.67,0.14,-0.67,229.66,-11.5,7.0
6.02,0.5,0.25,0.0,0.25,0.0,0.25,6.25,0.0,0.0,1.0,0.0,0.25,0.0,0.27,0.08,-0.92,95.74,18.6,13.4,1.25,1.25,2.75,1.25,0.5,1.25,0.25,0.0,0.0,1.5,1.75,1.25,1.5,-0.73,0.27,-0.8,219.64,-10.2,1.2
6.04,0.25,0.5,0.0,0.5,0.0,1.0,6.25,0.0,0.0,1.25,0.0,0.0,0.0,0.14,0.14,-0.92,95.96,12.2,19.1,1.25,1.25,2.5,2.0,1.25,1.25,0.25,0.0,0.0,1.5,1.75,1.25,1.5,-0.8,0.33,-0.73,224.78,-9.3,5.9
6.06,0.5,0.25,0.0,0.5,0.0,1.75,6.25,0.0,0.0,1.25,0.0,0.0,0.0,0.02,0.14,-0.8,102.32,9.5,20.3,1.25,1.25,2.75,2.5,1.5,1.75,0.0,0.0,0.0,1.25,1.75,1.25,1.5,-0.92,0.39,-0.73,232.57,-9.1,10.9
6.08,0.0,0.0,0.0,0.25,0.0,1.75,6.25,0.0,0.0,1.25,0.25,0.0,0.0,0.14,0.14,-0.73,103.67,7.2,6.3,1.25,1.25,2.5,2.5,0.5,1.5,0.0,0.0,0.0,2.25,1.75,1.0,1.5,-0.92,0.45,-0.8,239.71,-8.4,3.2
6.1,0.5,0.25,0.0,0.25,0.0,1.75,6.25,0.0,0.0,1.25,0.25,0.0,0.0,0.08,0.27,-0.73,108.95,9.2,15.7,1.25,1.5,2.75,2.5,1.25,1.75,0.75,0.0,0.0,1.5,2.0,1.25,1.5,-1.05,0.52,-0.92,244.74,-9.5,9.5
6.12,0.25,0.0,0.0,0.0,0.0,1.0,6.25,0.0,0.0,1.25,0.0,0.0,0.0,0.08,0.27,-0.8,101.94,11.7,7.8,1.25,1.5,2.5,2.0,1.0,1.0,0.0,0.0,0.0,1.5,1.75,1.25,1.5,-1.17,0.64,-0.92,233.68,-9.9,5.9
6.14,0.75,0.0,0.0,0.25,0.0,1.5,6.25,0.0,0.0,1.25,0.0,0.25,0.0,0.2,0.33,-0.86,103.25,11.0,13.4,1.25,1.5,2.5,2.5,0.5,0.0,0.0,0.0,0.0,0.5,1.75,0.0,1.5,-1.3,0.7,-0.92,218.03,-15.6,22.2
6.16,0.0,0.0,0.0,0.0,0.0,1.5,6.25,0.0,0.0,1.25,0.25,0.0,0.0,0.2,0.39,-0.86,97.1,8.0,2.9,1.25,2.0,2.75,2.5,0.0,1.25,0.0,0.0,0.0,1.5,1.75,1.25,1.5,-1.3,0.7,-0.73,214.85,-11.2,8.5
6.18,0.5,0.25,0.0,0.0,0.0,1.75,6.25,0.0,0.0,1.5,0.25,0.25,0.0,-0.05,0.45,-0.8,103.48,8.1,6.8,1.5,1.25,2.5,2.5,0.0,1.75,0.0,0.0,0.0,1.5,1.75,1.25,1.5,-1.17,0.7,-0.8,213.52,-10.0,5.3
6.2,0.5,0.0,0.0,0.0,0.0,1.25,6.25,0.0,0.0,1.5,0.0,0.0,0.0,-0.23,0.58,-0.67,100.97,10.2,8.8,1.25,1.25,2.5,2.25,0.0,1.25,0.0,0.0,0.0,1.0,1.75,1.0,1.5,-0.98,0.7,-0.8,210.58,-11.5,6.7
6.22,0.5,0.0,0.0,0.0,0.0,1.25,6.25,0.0,0.0,1.0,0.0,0.0,0.0,-0.3,0.58,-0.86,98.31,12.5,16.3,1.5,1.25,2.5,2.5,0.0,1.0,0.0,0.0,0.0,2.5,1.75,1.5,1.5,-0.86,0.7,-0.8,214.52,-9.8,-2.7
6.24,0.5,0.0,0.0,0.0,0.5,1.25,6.25,0.0,0.0,1.25,0.0,0.0,0.0,-0.11,0.52,-1.11,98.59,10.0,16.1,1.25,1.25,2.5,2.5,0.0,2.0,0.0,0.0,0.0,1.5,1.75,1.25,1.5,-0.8,0.7,-0.8,216.55,-9.1,4.3
6.26,0.25,0.0,0.0,0.5,0.0,1.5,6.25,0.0,0.0,1.25,0.0,0.25,0.0,0.27,0.52,-1.23,99.52,9.6,9.2,1.25,1.0,2.75,1.25,0.0,1.25,0.0,0.0,0.0,1.5,1.75,1.25,1.5,-0.48,0.7,-0.67,208.59,-10.5,-3.1
6.28,0.5,0.0,0.0,0.25,0.0,1.75,6.25,0.0,0.0,1.0,0.25,0.0,0.0,0.77,0.58,-1.11,100.88,10.1,15.9,1.25,1.25,2.5,2.5,0.5,1.5,0.0,0.0,0.0,1.25,1.75,1.25,1.5,-0.23,0.64,-0.55,208.28,-10.0,6.5
6.3,0.5,0.0,0.0,0.25,0.75,1.75,6.25,0.0,0.0,1.25,0.0,0.25,0.0,1.14,0.7,-1.17,108.61,7.7,16.0,0.25,0.75,2.5,0.5,0.0,0.25,0.0,0.0,0.0,0.0,1.75,0.25,1.5,-0.05,0.58,-0.48,176.19,-15.2,-3.8
6.32,0.5,0.0,0.0,1.25,0.5,1.75,6.25,0.0,0.0,1.25,0.25,0.0,0.0,0.89,0.83,-1.11,120.27,9.3,20.9,1.25,1.25,2.75,2.5,0.25,1.25,0.0,0.0,0.0,1.25,1.75,1.25,1.5,0.14,0.58,-0.55,182.16,-11.3,6.1
6.34,0.5,0.0,0.0,0.25,0.75,1.75,6.25,0.0,0.0,1.25,0.25,0.0,0.0,0.58,0.7,-0.92,124.81,7.7,17.1,0.0,0.5,2.5,0.25,0.0,0.0,0.0,0.0,0.0,0.5,1.75,0.25,1.5,0.39,0.58,-0.61,148.46,-13.7,-19.0
6.36,0.25,0.0,0.0,0.5,0.75,1.75,6.25,0.0,0.0,0.75,0.0,0.0,0.0,0.58,0.64,-0.61,124.67,8.7,25.8,0.0,0.75,1.25,2.75,0.0,1.25,0.0,0.0,0.0,1.25,0.75,1.5,1.5,0.52,0.52,-0.73,150.31,-5.5,-10.8
6.38,0.5,0.0,0.0,0.25,0.5,1.75,6.0,0.0,0.0,1.5,0.25,0.0,0.0,0.45,0.7,-0.55,122.55,7.0,12.5,0.0,0.75,1.75,0.25,0.0,0.0,0.0,0.0,0.0,0.0,0.5,0.0,0.75,0.64,0.52,-0.8,108.97,-19.0,19.6
6.4,0.5,0.0,0.0,0.5,0.0,1.5,6.0,0.0,0.0,0.25,0.25,0.0,0.0,0.27,0.89,-0.67,113.02,14.6,28.7,1.5,1.5,1.25,2.0,0.0,0.25,0.0,0.0,0.0,0.25,0.75,0.25,1.5,0.64,0.45,-0.98,109.79,-14.2,24.3
6.42,0.5,0.0,0.0,0.0,0.0,1.75,6.0,0.0,0.0,1.25,0.0,0.0,0.0,0.02,1.02,-1.05,105.81,8.3,13.8,1.25,1.5,1.25,2.5,0.0,1.5,0.5,0.0,0.0,1.5,1.75,0.25,1.5,0.39,0.33,-0.86,125.69,-7.9,8.6
6.44,0.5,0.0,0.0,0.0,0.0,1.75,6.0,0.0,0.0,1.25,0.0,0.0,0.0,-0.11,1.02,-1.17,101.13,8.3,13.8,1.5,1.25,1.0,2.0,0.0,1.75,0.0,0.0,0.0,1.5,0.75,1.25,0.5,0.08,0.33,-0.67,147.19,-7.9,12.5
6.46,0.5,0.0,0.0,0.0,0.0,1.75,6.0,0.0,0.0,1.25,0.25,0.0,0.0,0.08,0.83,-0.98,99.8,8.4,10.4,1.5,1.5,2.5,2.5,1.0,0.5,0.0,0.0,0.0,1.25,1.75,1.25,1.5,-0.23,0.33,-0.61,178.4,-12.0,9.5
6.48,0.5,0.0,0.0,0.0,0.0,1.75,6.0,0.0,0.0,1.25,0.0,0.0,0.0,0.14,0.58,-0.92,97.03,8.3,13.8,1.25,1.25,2.75,2.25,0.5,1.25,0.25,0.0,0.0,1.5,1.75,1.25,1.5,-0.3,0.39,-0.61,201.74,-10.6,5.0
6.5,0.25,0.0,0.0,0.0,0.0,1.25,6.0,0.0,0.0,1.25,0.0,0.0,0.0,0.14,0.33,-0.92,92.47,9.8,8.5,1.25,1.25,2.75,2.5,1.0,1.25,0.0,0.0,0.0,1.5,1.75,1.25,1.5,-0.48,1.02,-1.23,222.88,-10.1,7.4
6.52,0.25,0.0,0.0,0.0,0.0,1.75,6.0,0.0,0.0,1.25,0.25,0.0,0.25,0.08,0.39,-0.92,92.25,6.5,2.5,1.25,1.5,2.5,2.25,1.0,1.25,0.0,0.0,0.0,1.25,2.0,1.0,1.5,-0.86,1.27,-1.36,230.65,-10.0,9.1
6.54,1.25,0.25,0.0,0.75,0.0,2.0,6.0,0.0,0.0,1.75,0.0,1.0,0.0,0.02,0.39,-1.05,108.88,9.1,8.9,1.25,1.75,2.75,2.75,0.5,1.25,0.0,0.0,0.0,2.0,1.75,1.0,1.5,-0.98,1.39,-1.36,243.82,-10.0,8.7
6.56,0.25,0.0,0.25,0.0,3.75,1.75,6.5,0.5,0.0,1.25,0.5,0.25,0.0,-0.11,0.45,-1.05,139.36,3.8,19.4,1.5,1.5,2.5,2.0,1.0,0.75,0.0,0.0,0.0,1.5,1.75,1.25,1.5,-0.73,1.33,-1.23,240.78,-10.8,6.9
6.58,0.25,0.25,0.0,0.0,0.0,1.25,6.0,0.0,0.0,0.0,0.25,0.0,0.0,-0.11,0.39,-0.8,131.53,16.7,31.1,1.25,1.25,2.75,2.5,1.25,1.25,0.0,0.0,0.0,1.25,1.75,1.25,1.5,-0.55,1.08,-1.05,246.43,-10.2,9.5
6.6,0.5,0.25,0.0,0.0,0.0,0.5,6.25,0.0,0.0,1.5,0.25,0.0,0.0,-0.11,0.33,-0.73,122.4,14.2,6.3,1.25,1.25,2.75,2.25,0.5,1.25,0.0,0.0,0.0,1.0,1.75,1.0,1.5,-0.3,0.83,-0.8,237.84,-11.4,9.5
6.62,0.25,0.0,0.0,0.25,0.0,0.0,6.25,0.0,0.0,1.25,0.25,0.0,0.0,-0.11,0.52,-0.92,99.76,18.5,1.4,1.25,1.25,2.5,2.75,0.5,1.75,0.0,0.0,0.0,1.5,1.75,1.25,1.5,-0.17,0.45,-0.61,238.51,-9.3,6.5
6.64,0.25,0.0,0.0,0.0,1.75,0.75,6.25,0.0,0.0,1.75,0.0,0.0,0.0,0.02,0.58,-0.73,101.76,7.1,13.6,1.25,1.25,2.75,2.5,1.25,1.5,0.0,0.0,0.0,1.25,1.75,1.25,1.5,-0.11,0.2,-0.67,233.98,-9.8,9.9
6.66,0.5,0.0,0.0,0.0,0.5,1.75,6.25,0.0,0.0,1.5,0.25,0.0,0.0,0.27,0.7,-0.8,103.33,7.0,11.2,1.25,1.5,2.75,2.5,1.25,1.5,0.0,0.0,0.0,1.5,1.75,1.0,1.5,-0.05,0.14,-0.73,236.28,-9.4,11.7
6.68,0.25,0.0,0.0,0.0,0.0,1.75,6.25,0.0,0.0,1.25,0.0,0.25,0.0,0.33,0.77,-0.8,107.57,7.8,6.1,1.25,1.25,2.5,2.5,1.0,1.25,0.0,0.0,0.0,1.5,1.5,1.25,1.5,-0.11,0.14,-0.8,234.25,-9.6,7.8
6.7,0.25,0.0,0.0,0.0,0.0,1.75,6.25,0.0,0.0,1.25,0.0,0.25,0.0,0.33,0.77,-0.8,105.16,7.8,6.1,1.25,1.25,2.5,2.25,1.25,1.25,0.0,0.0,0.0,1.5,1.75,1.0,1.5,-0.11,0.27,-0.86,230.02,-9.3,8.4
6.72,0.25,0.0,0.0,0.25,0.0,1.0,6.25,0.0,0.0,1.25,0.25,0.25,0.0,0.45,0.7,-0.73,99.47,11.8,1.9,1.25,1.5,2.75,2.5,1.25,1.75,0.0,0.0,0.0,2.0,1.5,0.75,1.5,-0.17,0.33,-0.86,232.55,-8.2,12.5
6.74,0.25,0.0,0.0,0.0,0.0,0.25,6.25,0.0,0.0,1.25,0.0,0.25,0.25,0.39,0.77,-0.8,89.27,15.0,-7.1,1.25,2.0,2.75,2.25,1.25,1.25,0.0,0.0,0.0,1.5,1.5,1.0,1.5,-0.3,0.58,-0.98,234.0,-9.9,14.7
6.76,0.25,0.0,0.0,0.0,0.0,0.25,6.25,0.0,0.0,1.25,0.0,0.5,0.0,0.33,0.89,-0.92,80.1,16.2,-6.9,1.25,1.25,2.75,2.5,1.25,1.5,0.0,0.0,0.0,1.5,1.5,1.0,1.5,-0.36,0.77,-0.98,235.27,-9.4,11.6
6.78,0.5,0.0,0.0,0.5,0.0,0.25,6.25,0.0,0.0,1.25,0.0,0.25,0.0,0.39,1.02,-0.92,77.61,17.3,7.7,1.25,1.25,2.75,2.0,1.5,1.25,0.0,0.0,0.0,0.5,1.75,1.0,1.5,-0.3,0.83,-1.05,230.03,-11.1,14.9
6.8,0.25,0.0,0.0,0.0,0.0,0.25,6.25,0.0,0.0,1.25,0.0,0.0,0.0,0.45,1.08,-1.05,74.84,16.9,3.9,1.25,1.25,2.75,2.5,1.25,1.25,0.0,0.0,0.0,1.25,1.75,1.0,1.5,-0.23,0.77,-1.05,229.08,-10.3,11.4
6.82,0.5,0.0,0.0,0.0,0.0,0.25,6.25,0.0,0.0,2.25,0.25,0.25,0.0,0.7,0.89,-1.05,84.93,12.0,-12.3,1.25,1.5,2.5,1.25,1.25,1.25,0.0,0.0,0.0,1.5,1.75,1.75,1.5,-0.17,0.7,-0.92,224.45,-8.8,1.0
6.84,0.5,0.0,0.0,0.0,0.0,1.0,6.0,0.0,0.0,1.25,0.0,0.25,0.0,0.64,0.7,-0.8,85.44,12.1,6.0,1.25,1.25,2.75,2.0,0.5,1.25,0.0,0.0,0.0,1.5,1.75,1.0,1.5,-0.11,0.52,-0.86,220.35,-10.4,5.8
6.86,0.5,0.25,0.0,0.0,0.0,1.5,6.25,0.0,0.0,1.25,0.25,0.0,0.0,0.7,0.52,-1.11,92.73,10.1,13.3,1.25,1.25,2.75,2.5,0.0,1.25,0.0,0.0,0.0,1.25,1.75,1.0,1.5,-0.05,0.45,-0.92,213.85,-11.6,7.2
6.88,0.5,0.0,0.0,0.5,0.0,1.0,6.25,0.0,0.0,1.25,0.25,0.25,0.0,0.64,0.45,-1.48,95.71,12.8,7.5,1.25,1.5,2.75,2.0,0.25,1.5,0.0,0.0,0.0,1.5,1.5,1.0,1.5,0.08,0.45,-0.98,210.89,-10.1,8.3
6.9,0.25,0.0,0.0,0.5,0.0,1.5,6.25,0.0,0.0,1.75,0.25,0.0,0.0,0.64,0.27,-1.23,104.19,7.9,4.6,1.25,1.25,2.75,1.75,0.0,1.25,0.0,0.0,0.0,1.25,1.5,0.75,1.5,0.08,0.52,-0.98,202.54,-11.4,7.9
6.92,0.25,0.0,0.0,0.5,0.0,1.75,6.25,0.0,0.0,1.25,0.0,0.0,0.0,0.45,0.14,-0.73,107.32,8.5,14.5,1.25,1.25,2.5,2.25,0.25,1.25,0.0,0.0,0.0,1.25,1.75,0.5,1.5,0.08,0.58,-0.98,199.21,-10.8,10.4
6.94,0.25,0.0,0.0,0.5,0.0,1.5,6.25,0.0,0.0,1.25,0.0,0.0,0.0,0.33,-0.17,-0.48,107.73,9.6,13.8,1.25,1.5,2.5,2.25,0.5,1.25,0.0,0.0,0.0,1.5,1.75,1.0,1.5,0.02,0.58,-0.92,201.24,-10.1,7.3
6.96,0.5,0.0,0.0,0.5,0.0,1.5,6.25,0.0,0.0,1.25,0.0,0.0,0.0,0.33,-0.36,-0.3,108.17,10.5,16.8,1.0,1.25,2.75,2.0,1.0,1.25,0.0,0.0,0.0,1.5,1.75,1.0,1.5,-0.05,0.58,-0.92,205.69,-9.5,6.2
6.98,0.25,0.25,0.0,0.5,0.0,1.25,6.25,0.0,0.0,1.5,0.0,0.0,0.0,0.33,-0.42,-0.23,108.51,9.9,13.0,1.25,1.25,2.75,2.25,1.0,1.0,0.0,0.0,0.0,1.5,1.75,1.0,1.5,-0.11,0.45,-0.86,212.34,-10.5,8.0
7.0,0.5,0.0,0.0,0.5,0.0,0.75,6.25,0.0,0.0,1.0,0.25,0.0,0.0,0.27,-0.42,0.02,104.53,15.6,14.8,1.25,1.5,2.5,2.0,0.25,1.25,0.0,0.0,0.0,1.5,1.75,1.0,1.5,-0.11,0.33,-0.86,213.38,-10.2,5.5
7.02,0.25,0.25,0.0,0.25,0.0,0.75,6.0,0.0,0.0,1.25,0.25,0.0,0.0,0.27,-0.42,0.08,99.7,13.0,9.2,1.0,1.5,2.5,2.25,1.0,1.5,0.0,0.0,0.0,1.25,1.75,0.75,1.5,-0.17,0.33,-0.8,216.16,-9.1,11.4
7.04,0.5,0.0,0.0,0.5,0.0,0.75,6.25,0.0,0.0,1.75,0.0,0.0,0.0,0.2,-0.36,0.27,98.69,12.2,7.7,1.25,1.25,2.0,2.5,1.0,1.5,0.0,0.0,0.0,1.5,1.75,1.0,1.5,-0.17,0.33,-0.86,216.9,-8.2,7.0
7.06,0.5,0.25,0.0,0.0,0.0,0.75,6.25,0.0,0.0,0.0,0.0,0.0,0.0,0.08,-0.23,0.33,88.26,22.6,40.0,1.25,1.25,2.5,2.75,1.5,1.75,0.0,0.0,0.0,1.5,1.75,1.0,1.5,-0.05,0.39,-0.86,227.13,-8.4,11.4
7.08,0.5,0.25,0.0,0.25,0.0,0.5,6.25,0.0,0.0,1.5,0.25,0.0,0.0,-0.11,-0.05,0.39,88.82,14.4,8.5,1.25,1.25,2.5,2.25,1.0,1.75,0.0,0.0,0.0,1.25,1.5,0.75,1.5,-0.11,0.45,-0.86,228.06,-8.9,13.0
7.1,0.5,0.0,0.0,0.25,0.0,1.0,6.25,0.0,0.0,1.25,0.25,0.0,0.0,-0.11,0.14,0.45,88.55,12.8,10.1,1.25,1.25,2.5,2.5,1.25,2.0,0.0,0.0,0.0,1.0,1.5,1.0,1.5,0.02,0.58,-0.86,231.7,-8.7,14.2
7.12,0.25,0.25,0.0,0.5,0.5,1.0,6.25,0.0,0.0,0.75,0.0,0.0,0.25,-0.05,0.45,0.64,94.57,12.0,21.2,1.25,1.5,2.75,1.75,1.25,1.5,0.0,0.0,0.0,1.5,1.5,1.0,1.5,0.08,0.64,-0.86,230.17,-9.0,10.8
7.14,0.25,0.0,0.0,0.5,0.0,1.5,6.25,0.0,0.0,1.25,0.0,0.0,0.0,0.08,0.64,0.7,97.2,9.6,13.8,1.25,1.75,2.75,2.0,1.5,1.0,0.0,0.0,0.0,1.5,1.75,1.0,1.5,0.08,0.58,-0.86,232.69,-10.0,11.7
