time,left pressure 0[N/cm虏],left pressure 1[N/cm虏],left pressure 2[N/cm虏],left pressure 3[N/cm虏],left pressure 4[N/cm虏],left pressure 5[N/cm虏],left pressure 6[N/cm虏],left pressure 7[N/cm虏],left pressure 8[N/cm虏],left pressure 9[N/cm虏],left pressure 10[N/cm虏],left pressure 11[N/cm虏],left pressure 12[N/cm虏],left acceleration X[g],left acceleration Y[g],left acceleration Z[g],left total force[N],left center of pressure X[mm],left center of pressure Y[mm],right pressure 0[N/cm虏],right pressure 1[N/cm虏],right pressure 2[N/cm虏],right pressure 3[N/cm虏],right pressure 4[N/cm虏],right pressure 5[N/cm虏],right pressure 6[N/cm虏],right pressure 7[N/cm虏],right pressure 8[N/cm虏],right pressure 9[N/cm虏],right pressure 10[N/cm虏],right pressure 11[N/cm虏],right pressure 12[N/cm虏],right acceleration X[g],right acceleration Y[g],right acceleration Z[g],right total force[N],right center of pressure X[mm],right center of pressure Y[mm]
0.02,1.0,1.75,2.25,1.75,0.5,2.75,1.75,2.0,2.5,1.75,3.25,2.0,2.25,-0.11,-0.05,0.89,301.45,5.3,-14.4,2.0,0.0,0.0,0.5,1.5,0.0,1.75,0.0,1.0,0.0,0.0,0.0,1.25,0.52,0.52,1.14,157.01,-12.4,20.6
0.04,1.75,1.75,2.25,2.75,0.75,2.75,3.0,2.25,3.0,1.25,3.75,2.25,2.25,-0.11,0.02,0.95,339.04,7.4,-8.8,1.25,0.0,0.5,0.5,2.25,0.25,1.25,0.5,1.0,0.0,0.0,0.0,1.25,3.58,0.14,-0.3,50.29,-7.2,16.7
0.06,1.75,1.75,2.5,2.75,2.25,3.5,3.75,3.75,3.75,2.75,4.0,3.25,3.0,-0.05,-0.05,0.89,420.83,4.5,-14.0,1.25,0.0,0.0,0.5,0.25,0.0,1.25,0.5,0.75,0.0,0.0,0.0,1.25,1.95,0.14,0.77,0.0,-10.0,-2.5
0.08,1.75,1.75,3.0,3.0,0.5,3.75,4.25,4.0,4.75,4.75,4.75,3.5,4.0,-0.11,-0.05,0.95,515.95,4.2,-23.1,0.0,0.0,0.0,0.5,0.25,0.25,1.25,0.0,0.5,0.0,0.0,0.0,1.5,1.39,0.2,0.27,0.0,-1.8,-32.1
0.1,1.75,1.5,4.0,3.0,1.25,4.5,4.75,5.0,5.25,4.75,5.75,5.0,5.25,-0.11,-0.05,1.02,644.04,3.9,-26.0,0.0,0.0,0.0,0.25,0.25,0.0,1.0,0.25,0.25,0.0,0.75,0.0,1.5,1.02,-0.23,0.58,0.0,-1.2,-52.6
0.12,2.0,1.75,3.75,3.0,4.25,5.0,4.75,5.25,5.75,5.5,6.0,6.0,5.5,-0.11,-0.05,0.95,779.71,3.0,-22.8,0.0,0.0,0.0,0.25,0.0,0.0,1.0,0.0,0.25,0.0,0.25,0.0,1.75,0.58,-0.42,0.77,0.0,-0.3,-65.1
0.14,2.0,1.75,4.25,3.75,4.5,5.0,5.0,5.5,6.25,5.75,6.5,6.75,6.25,-0.11,-0.11,1.02,911.89,3.3,-23.6,0.0,0.0,0.0,0.25,0.0,0.0,0.75,0.0,0.25,0.0,0.25,0.0,1.25,0.27,-0.36,0.83,0.0,-1.7,-60.1
0.16,2.0,1.75,4.5,3.75,4.75,5.0,5.0,5.75,6.25,5.75,6.75,6.75,6.25,-0.11,-0.11,0.95,1010.35,3.4,-23.1,0.0,0.0,0.0,0.0,0.0,0.0,0.75,0.0,0.25,0.0,0.25,0.0,1.5,0.08,-0.23,0.89,0.0,1.6,-78.4
0.18,2.25,2.0,3.0,4.25,4.5,5.0,5.25,6.25,6.25,5.5,6.5,6.0,6.25,-0.11,-0.11,0.95,1055.37,2.7,-22.5,0.0,0.0,0.0,0.25,0.0,0.0,0.75,0.0,0.25,0.0,0.75,0.0,1.5,0.08,-0.17,1.08,0.0,-1.8,-66.6
0.2,2.75,2.0,4.5,4.5,4.5,5.25,5.5,6.25,6.25,5.0,6.25,5.75,5.5,-0.11,-0.05,0.95,1075.86,4.2,-16.7,0.0,0.0,0.0,0.0,0.0,0.0,0.75,0.25,0.25,0.0,0.75,0.0,1.5,0.2,0.02,1.27,0.0,0.9,-74.8
0.22,2.75,2.0,4.5,4.5,4.75,5.75,5.5,6.25,6.25,4.75,5.75,5.0,5.25,-0.11,-0.05,0.95,1072.94,4.0,-13.7,0.0,0.0,0.0,0.0,0.0,0.0,0.75,0.0,0.25,0.0,0.25,0.0,1.75,0.27,0.27,1.39,13.07,2.8,-81.5
0.24,3.25,2.0,4.5,4.75,5.25,6.25,5.75,6.25,6.25,4.75,5.75,4.75,4.25,-0.11,-0.05,0.95,1073.73,4.3,-9.5,0.0,0.0,0.0,0.0,0.25,0.0,1.0,0.0,0.25,0.0,0.0,0.0,1.5,0.33,0.52,1.39,27.23,1.3,-58.8
0.26,3.5,2.0,4.75,5.25,5.0,6.5,6.0,6.25,6.25,4.75,5.0,3.5,4.0,-0.11,-0.05,0.95,1045.32,4.6,-5.0,0.0,0.0,0.0,0.0,0.25,0.0,0.75,0.0,0.25,0.0,0.5,0.0,1.25,0.39,0.77,1.45,35.44,-0.4,-60.8
0.28,3.5,2.0,5.25,5.25,5.25,6.5,6.0,6.25,6.25,4.75,5.0,3.25,4.0,-0.11,-0.05,0.95,1027.67,4.8,-3.7,0.0,0.0,0.0,0.0,0.0,0.0,0.75,0.0,0.25,0.0,0.0,0.0,1.25,0.52,1.2,1.58,32.47,1.5,-74.5
0.3,3.5,2.0,5.5,5.25,5.25,6.75,6.25,6.25,6.25,4.75,5.0,3.25,3.5,-0.11,-0.05,0.95,1004.66,5.1,-2.3,0.0,0.0,0.0,0.0,0.0,0.0,0.75,0.0,0.25,0.0,0.0,0.0,1.5,0.39,1.77,1.52,34.7,3.0,-78.7
0.32,3.75,2.0,5.0,5.5,6.75,7.25,6.75,6.25,6.25,4.5,5.0,3.0,3.0,-0.11,-0.05,0.95,1001.49,4.8,1.3,0.0,0.0,0.0,0.0,0.0,0.0,0.5,0.0,0.25,0.0,0.25,0.0,1.5,0.14,2.02,1.14,35.58,3.4,-84.0
0.34,4.25,2.25,5.75,5.5,7.25,7.5,6.75,6.5,6.25,4.5,4.75,3.0,2.75,-0.11,-0.05,0.95,1013.29,5.3,4.2,0.0,0.0,0.0,0.0,0.0,0.0,0.25,0.0,0.25,0.0,0.0,0.0,1.5,-0.42,2.89,0.08,34.69,7.4,-92.0
0.36,5.25,2.0,6.0,6.25,7.5,7.5,7.25,6.75,6.25,4.25,4.75,2.5,2.25,-0.11,-0.05,0.95,1041.21,6.1,8.3,0.0,0.0,0.0,0.0,0.0,0.0,0.25,0.0,0.25,0.0,0.0,0.0,1.5,-2.05,4.14,-0.11,34.25,7.4,-92.0
0.38,5.5,3.25,6.0,7.0,8.5,8.5,7.5,6.75,6.25,4.0,4.5,2.0,2.25,-0.11,-0.05,0.95,1100.29,6.0,13.4,0.0,0.0,0.0,0.0,0.0,0.0,0.25,0.5,0.25,0.0,0.25,0.0,1.5,-1.61,-0.11,-1.11,37.71,7.5,-80.5
0.4,6.0,3.5,6.25,7.0,9.0,8.5,7.75,6.75,6.0,3.75,4.0,2.0,2.25,-0.11,-0.05,0.95,1159.32,6.3,16.0,0.0,0.0,0.0,0.0,0.0,0.0,0.25,0.25,0.25,1.0,0.75,0.75,2.75,-0.67,-0.48,0.77,60.88,6.3,-91.1
0.42,6.25,3.5,6.5,8.5,10.0,9.25,8.25,6.75,5.75,3.5,3.75,2.0,2.25,-0.11,-0.05,1.02,1236.4,6.4,18.9,0.0,0.0,0.0,0.0,0.0,0.0,0.25,0.0,0.5,2.25,1.75,1.75,4.75,0.27,-0.05,1.52,112.64,5.2,-93.1
0.44,7.0,3.5,7.75,8.75,11.5,9.25,8.5,7.0,5.75,3.0,3.75,2.0,2.25,-0.11,-0.05,1.02,1317.22,7.2,21.7,0.0,0.0,0.0,0.0,0.0,0.0,0.25,1.0,1.0,3.0,2.0,4.0,6.5,0.2,0.08,0.89,190.54,4.7,-91.3
0.46,7.75,3.5,8.0,11.0,13.0,9.75,8.5,7.0,5.25,2.75,3.75,2.0,2.25,-0.11,-0.05,1.02,1400.63,7.4,24.9,0.0,0.0,0.0,0.0,0.0,0.0,0.25,2.0,1.0,5.5,2.5,5.25,7.0,0.14,0.33,1.39,272.44,5.5,-88.5
0.48,9.25,3.75,8.5,12.5,14.0,10.0,8.5,6.75,5.0,2.75,3.0,2.0,2.25,-0.11,0.02,1.02,1489.48,8.1,28.8,0.0,0.0,0.0,0.0,0.0,0.5,0.75,2.75,1.25,6.25,2.5,5.5,7.75,0.08,0.08,1.02,352.39,6.0,-83.9
0.5,10.5,4.5,9.75,13.0,14.5,9.5,8.25,6.75,4.75,2.5,2.25,2.0,2.0,-0.17,0.08,1.14,1574.25,9.1,32.8,0.0,0.25,0.0,0.0,0.0,1.5,1.0,3.25,1.5,6.25,3.75,6.0,8.0,0.08,0.02,1.02,437.53,5.4,-77.6
0.52,11.5,3.75,9.5,13.5,15.0,9.25,8.25,6.25,4.0,2.75,2.75,1.75,2.0,-0.23,0.14,1.33,1630.28,9.4,33.6,0.0,0.0,0.0,0.0,0.0,2.75,1.0,4.0,1.5,7.25,4.25,6.0,8.5,0.2,0.02,0.95,523.29,6.6,-74.6
0.54,12.5,3.75,10.5,13.0,15.0,8.75,7.75,6.25,3.5,2.75,2.75,1.75,2.0,-0.23,0.2,1.33,1661.66,10.0,34.9,0.0,0.25,0.0,0.0,0.0,2.75,1.0,4.25,1.75,7.5,5.0,6.25,8.5,0.14,0.02,0.95,593.96,6.0,-73.2
0.56,14.0,5.0,10.5,13.0,13.5,7.5,7.75,5.5,3.0,2.5,2.75,1.75,2.0,-0.23,0.27,1.39,1662.45,11.5,37.9,0.25,0.25,0.0,0.25,0.0,2.75,1.0,4.75,2.25,7.5,5.0,6.25,8.5,0.14,0.02,0.95,647.69,5.5,-70.3
0.58,14.0,4.75,11.0,11.0,11.0,7.25,7.25,5.25,2.5,2.75,2.5,2.0,2.0,-0.3,0.39,1.33,1615.94,12.1,37.1,0.0,0.5,0.0,0.25,0.25,2.75,1.25,4.75,2.25,7.5,5.0,6.5,8.5,0.14,0.02,0.95,681.71,5.4,-69.2
0.6,11.5,4.0,9.0,8.75,9.0,6.0,7.0,4.0,2.0,2.5,2.75,1.75,2.0,-0.55,0.52,2.08,1482.25,12.0,34.8,0.25,0.5,0.0,0.0,0.0,3.0,1.25,4.75,2.25,7.5,5.5,6.5,8.5,0.14,0.02,0.95,696.84,5.2,-69.4
0.62,8.0,2.0,6.5,5.5,6.75,1.5,5.75,3.25,1.25,0.5,1.25,0.25,1.25,-0.73,0.52,2.08,1160.81,14.9,41.9,0.0,0.5,0.0,0.0,0.25,3.5,1.5,4.75,3.0,7.5,5.25,6.25,8.5,0.14,0.02,0.95,698.87,5.4,-67.2
0.64,5.75,0.5,3.75,3.75,5.0,1.0,2.75,0.25,1.0,0.25,0.25,0.0,0.75,-0.8,0.39,1.83,723.39,16.8,51.5,1.25,0.75,2.5,1.0,3.5,4.5,2.5,5.25,3.0,7.5,5.75,6.0,8.5,0.14,0.02,0.95,742.29,1.5,-41.5
0.66,2.5,0.25,2.0,2.75,0.5,0.0,1.5,0.0,0.75,0.25,1.25,0.0,0.75,-0.36,-0.17,1.45,352.44,20.5,31.6,0.25,0.5,0.25,0.5,1.75,3.25,1.75,4.75,3.0,7.5,6.5,6.0,8.5,0.14,0.02,0.95,741.89,4.0,-59.5
0.68,1.0,0.25,2.25,2.75,0.5,1.25,1.5,0.25,0.75,0.0,1.25,0.0,0.5,0.39,-0.05,0.95,161.77,15.4,28.4,0.0,0.75,0.0,0.25,0.5,4.0,1.75,4.75,3.0,7.0,5.25,6.0,8.5,0.14,0.02,0.95,719.88,5.2,-62.6
0.7,0.75,0.5,2.25,2.75,0.5,1.25,0.25,0.25,0.75,0.0,0.75,0.0,0.75,-0.3,-0.92,2.7,15.42,13.5,30.0,0.0,0.75,0.0,0.5,1.75,4.0,2.25,4.75,3.5,6.75,5.0,5.5,8.0,0.14,0.02,0.95,683.08,4.6,-55.7
0.72,0.5,0.25,2.25,2.75,0.0,1.0,0.5,0.0,0.75,0.0,0.75,0.0,0.25,-0.48,-1.11,1.95,0.0,17.8,34.7,0.25,0.75,0.0,0.5,2.25,5.0,2.5,4.75,3.5,6.0,5.0,5.25,8.0,0.14,0.02,0.95,656.11,4.6,-50.5
0.74,0.25,0.5,2.25,2.5,0.0,1.25,0.25,0.25,0.75,0.0,0.0,0.25,0.25,-0.42,-0.67,0.83,0.0,15.1,37.3,0.5,0.75,2.25,0.5,4.5,6.0,3.0,4.75,4.25,6.75,5.75,5.5,7.0,0.14,0.02,0.95,673.04,2.0,-37.0
0.76,0.0,0.5,2.25,2.25,0.5,1.25,0.5,0.0,0.75,0.0,0.25,0.0,0.5,-0.23,-0.48,0.39,0.0,13.7,34.9,2.5,1.75,2.25,2.75,4.5,6.0,3.5,5.75,4.75,6.5,5.75,4.25,7.5,0.14,0.02,0.95,730.84,0.0,-24.7
0.78,0.0,0.5,2.0,1.75,0.5,1.25,0.5,0.25,0.75,0.25,0.5,0.0,0.25,-0.11,-0.42,0.39,0.0,11.7,28.4,2.5,1.75,2.25,2.75,5.75,6.25,4.5,5.75,4.75,6.5,5.25,3.5,7.0,0.14,0.02,0.95,797.07,0.0,-19.7
0.8,0.0,0.5,2.25,1.5,0.5,1.0,0.5,0.0,0.75,0.0,0.5,0.0,0.5,-0.11,-0.36,0.83,0.0,14.3,29.2,4.0,2.0,2.75,4.5,6.5,6.75,5.0,5.5,5.0,4.75,5.0,3.0,6.0,0.14,0.02,0.95,864.66,-2.3,-7.3
0.82,0.0,0.25,2.25,1.25,0.5,1.0,0.25,0.0,0.75,0.25,0.75,0.0,0.25,-0.05,-0.36,1.33,0.0,13.9,23.8,5.0,2.5,5.0,5.25,7.0,7.0,5.5,5.5,5.0,4.5,4.25,2.25,5.0,0.14,0.02,0.95,938.0,-4.6,3.4
0.84,0.0,0.5,1.25,1.0,0.0,0.25,0.25,0.0,0.75,0.0,1.0,0.0,0.25,-0.05,-0.17,1.27,11.16,17.0,13.8,5.75,2.75,5.25,7.0,8.0,7.5,6.0,5.25,4.75,4.25,4.0,1.75,4.25,0.14,0.02,1.02,1016.91,-5.5,10.9
0.86,0.0,0.25,1.75,0.75,0.0,0.75,0.25,0.0,0.75,0.0,1.25,0.0,0.5,0.02,0.02,1.14,48.49,14.4,5.1,6.75,3.0,6.5,9.0,9.25,7.75,6.25,4.75,4.25,3.75,3.75,1.25,4.0,0.14,0.02,1.08,1112.31,-7.0,18.9
0.88,0.0,0.5,1.0,0.75,0.0,0.75,0.0,0.0,0.75,0.25,0.5,0.0,0.25,0.08,0.08,1.27,61.41,10.4,14.9,7.75,3.25,7.5,10.5,10.5,7.75,6.75,4.75,4.25,3.5,3.0,0.75,3.25,0.14,0.02,1.08,1219.94,-8.2,25.9
0.9,0.0,0.25,1.75,0.75,0.0,0.5,0.25,0.0,0.75,0.0,1.0,0.0,0.5,0.02,0.2,1.64,71.61,16.1,7.4,9.25,4.0,8.5,12.0,12.0,7.75,6.75,4.75,3.5,3.25,2.75,1.0,3.25,0.08,0.08,1.08,1346.14,-9.0,30.6
0.92,0.0,0.5,1.0,0.75,0.0,0.5,0.5,0.0,0.75,0.25,0.5,0.0,0.25,-0.11,0.33,2.08,66.78,13.2,14.6,10.5,3.5,9.25,12.5,12.0,7.5,6.5,4.0,3.0,2.75,2.75,0.0,2.25,0.14,0.14,1.27,1408.42,-10.6,37.3
0.94,0.0,0.5,1.0,0.75,0.0,0.5,0.5,0.0,0.5,0.25,0.0,0.0,0.25,-0.3,0.52,2.2,63.54,13.5,28.6,10.0,2.5,9.0,0.0,12.0,6.25,6.0,3.5,2.5,2.75,2.75,0.5,3.25,0.2,0.2,1.33,1338.01,-9.1,28.7
0.96,0.0,0.25,1.25,0.5,0.0,0.25,0.25,0.0,0.75,0.25,0.5,0.0,0.25,-0.36,1.02,2.39,59.05,16.0,8.0,11.5,3.5,9.5,12.0,12.0,5.0,5.0,3.5,1.75,2.25,2.75,0.5,3.0,0.2,0.27,1.52,1328.77,-11.9,38.2
0.98,0.0,0.5,1.5,0.5,0.0,1.0,0.0,0.0,0.5,0.0,0.25,0.0,0.25,-0.42,1.58,2.52,58.67,12.8,31.4,11.5,3.0,10.5,12.0,10.5,4.75,4.75,2.25,1.75,2.25,2.75,0.25,1.75,0.14,0.39,1.83,1276.66,-13.8,42.6
1.0,0.0,0.25,1.25,0.5,0.0,0.5,0.25,0.0,0.75,0.25,0.5,0.0,0.0,-0.36,2.52,2.02,57.53,15.7,16.8,11.5,3.25,10.5,10.5,8.25,3.25,5.0,2.0,1.5,2.25,2.5,0.75,2.25,0.27,0.58,2.08,1220.62,-15.2,40.8
1.02,0.0,0.25,1.0,0.5,0.0,0.25,0.5,0.0,0.75,0.25,0.5,0.25,0.25,-0.48,3.58,1.14,58.67,14.7,-1.4,9.75,2.25,9.25,7.75,6.5,0.25,5.0,1.75,1.25,2.75,1.25,0.25,2.25,0.58,0.7,2.33,1046.26,-16.9,40.0
1.04,0.0,0.25,1.0,0.5,0.5,0.25,0.25,0.0,0.75,0.25,0.0,0.25,0.75,-0.86,4.45,-0.8,62.63,9.4,0.2,8.5,1.75,7.5,5.25,4.25,0.0,4.5,1.0,1.0,1.25,1.75,0.5,2.5,0.52,0.58,2.2,825.31,-18.5,37.6
1.06,0.0,0.5,1.25,0.5,0.0,0.5,0.5,0.0,0.75,0.25,0.75,1.0,0.25,0.64,5.83,0.52,72.83,13.3,-9.5,5.0,0.0,5.25,1.5,0.25,0.0,2.5,0.0,0.75,0.0,0.5,0.0,1.5,0.45,0.27,2.14,493.06,-26.9,43.4
1.08,0.0,0.25,0.5,0.5,0.0,0.5,0.25,0.25,0.75,1.5,1.5,2.0,2.0,-0.61,-0.55,3.27,105.0,1.1,-60.6,1.75,0.25,2.25,0.5,0.5,0.0,1.25,0.5,1.0,0.0,0.5,0.0,1.0,0.33,-0.55,2.2,261.41,-19.1,22.1
1.1,0.0,0.25,1.0,0.5,0.0,1.0,0.25,0.75,0.75,2.25,1.5,3.25,3.0,0.58,0.2,0.58,154.09,-0.1,-60.9,0.5,0.5,0.0,0.25,0.0,0.0,1.25,0.25,0.5,0.0,0.25,0.0,1.0,1.14,-1.05,2.95,72.15,-9.6,-8.2
1.12,0.0,0.25,1.0,0.5,0.0,1.0,0.5,1.5,0.75,2.5,1.75,5.0,4.25,-0.17,0.2,2.2,216.28,-0.8,-67.8,0.0,0.5,0.0,0.5,0.0,0.0,1.25,0.5,0.5,0.0,0.25,0.0,2.0,1.58,-1.55,2.14,0.0,-1.4,-37.5
1.14,0.25,0.0,1.25,0.5,0.0,1.5,0.5,2.0,1.5,2.75,2.5,5.75,5.5,-0.42,0.27,3.08,279.15,-0.7,-66.9,0.0,0.25,0.25,0.25,0.0,0.0,1.0,0.0,0.25,0.0,0.5,0.0,1.5,0.64,-0.86,0.7,0.0,-5.7,-41.4
1.16,0.0,0.5,0.0,0.5,0.0,2.5,0.25,3.0,2.25,2.75,1.25,6.75,6.25,-0.42,0.02,1.14,340.19,-4.5,-68.8,0.0,0.0,0.0,0.25,0.0,0.0,1.0,0.0,0.25,0.0,0.25,0.0,1.75,-0.05,-0.61,0.39,0.0,-0.3,-65.1
1.18,0.0,0.5,1.0,0.75,0.5,2.5,0.0,3.25,2.75,0.0,4.0,6.75,6.5,-0.11,0.08,1.02,395.65,-0.2,-60.5,0.5,0.25,0.0,0.25,0.0,0.0,1.0,0.25,0.25,0.0,0.75,0.0,1.5,-0.3,-0.61,0.77,0.0,-5.9,-34.0
1.2,0.25,0.0,2.0,1.0,0.5,2.5,0.0,3.5,3.25,4.75,4.75,7.5,8.0,-0.11,-0.05,0.95,493.69,-1.1,-62.3,0.0,0.25,0.0,0.25,0.0,0.0,0.75,0.0,0.25,0.0,0.25,0.0,2.5,-0.55,-0.55,1.14,0.0,2.5,-65.9
1.22,0.0,0.25,1.25,1.0,0.0,2.75,0.25,4.5,4.0,5.25,5.25,7.5,7.25,-0.11,-0.05,0.95,580.61,-1.9,-63.8,0.0,0.0,0.0,0.25,0.0,0.0,0.75,0.0,0.25,0.0,0.5,0.0,1.5,-0.42,-0.36,1.08,0.0,-1.1,-65.8
1.24,1.75,0.0,2.0,2.75,0.5,4.0,2.0,4.5,4.75,6.5,4.0,8.25,8.25,-0.11,-0.05,0.95,698.15,0.1,-48.5,0.0,0.0,0.0,0.25,0.0,0.0,0.25,0.0,0.25,0.0,0.0,0.0,2.25,-0.3,-0.17,0.95,0.0,6.9,-83.4
1.26,0.5,0.0,2.5,0.75,1.75,3.25,3.0,5.25,4.25,5.25,5.75,7.0,8.25,-0.11,-0.05,0.95,766.87,-0.3,-51.6,0.0,0.0,0.0,0.25,0.0,0.0,0.5,0.0,0.25,0.0,0.0,0.0,1.75,-0.3,-0.11,1.14,0.0,3.6,-72.8
1.28,1.0,0.5,2.25,0.75,0.5,3.0,2.25,4.25,4.25,5.25,3.75,7.0,7.25,-0.11,-0.05,0.95,771.95,0.1,-51.3,0.0,0.0,0.0,0.0,0.0,0.0,0.5,0.0,0.25,0.0,0.5,0.0,1.5,-0.23,0.02,1.33,0.0,2.0,-83.2
1.3,1.0,0.5,2.25,1.25,0.5,3.75,2.25,4.5,4.75,6.5,4.75,7.5,7.75,-0.11,-0.05,0.95,773.27,-0.2,-51.0,0.0,0.0,0.0,0.0,0.0,0.0,0.5,0.0,0.25,0.0,0.5,0.0,1.75,-0.11,0.14,1.64,27.11,3.1,-85.6
1.32,1.25,0.5,2.25,1.75,5.5,3.75,3.0,5.0,4.5,6.25,4.75,7.25,6.25,-0.11,-0.05,0.95,783.27,0.1,-34.6,0.0,0.0,0.0,0.0,0.0,0.0,0.75,0.0,0.25,0.0,0.25,0.0,1.75,0.02,0.33,1.89,38.65,2.8,-81.5
1.34,2.5,1.75,2.5,2.75,4.75,5.0,3.25,5.5,5.0,5.5,5.5,6.75,7.0,-0.11,-0.05,0.95,826.3,1.3,-26.9,0.0,0.0,0.0,0.0,0.0,0.0,0.5,0.0,0.25,0.0,0.25,0.0,1.5,0.2,0.64,2.33,41.48,3.4,-84.0
1.36,2.5,1.75,2.5,2.75,5.0,5.0,3.5,5.5,5.25,5.25,5.75,6.75,6.25,-0.11,-0.05,0.95,860.35,1.7,-25.2,0.0,0.0,0.0,0.25,0.0,0.0,0.5,0.0,0.25,0.0,0.5,0.0,1.25,0.45,1.08,2.52,40.04,-1.1,-65.8
1.38,2.5,2.0,2.75,3.0,4.75,5.25,3.75,5.5,5.25,5.0,4.75,6.0,6.25,-0.11,-0.05,0.95,880.26,1.8,-21.7,0.0,0.0,0.0,0.0,0.0,0.0,0.25,0.0,0.25,0.0,0.25,0.0,1.5,0.64,1.77,2.83,38.78,5.4,-90.2
1.4,2.25,2.0,3.5,3.75,4.75,5.75,4.25,5.5,5.5,5.0,4.25,5.75,5.5,-0.11,-0.05,0.95,883.78,2.5,-17.2,0.0,0.0,0.0,0.0,0.0,0.0,0.25,0.0,0.0,0.0,0.5,0.0,1.5,0.27,3.08,1.7,37.19,5.6,-94.4
1.42,3.25,2.0,4.0,4.5,5.25,6.5,4.75,5.5,5.75,5.0,5.25,5.0,5.25,-0.11,-0.05,0.95,906.8,3.4,-11.8,0.0,0.0,0.0,0.0,0.0,0.0,0.25,0.0,0.25,0.0,0.5,0.0,1.25,-0.05,4.83,0.89,35.54,2.5,-86.1
1.44,3.5,2.0,4.5,4.75,5.25,6.5,5.0,6.0,6.0,4.75,4.75,5.0,4.25,-0.11,-0.05,0.95,927.75,4.1,-8.2,0.0,0.0,0.0,0.0,0.0,0.0,0.5,0.25,0.25,0.0,0.0,0.0,1.5,-0.55,6.7,-2.11,36.5,6.3,-79.9
1.46,3.5,2.0,4.5,5.25,5.75,7.0,5.75,6.25,6.0,4.75,5.0,3.5,4.0,-0.11,-0.05,0.95,961.94,4.0,-4.0,0.0,0.25,0.0,0.0,0.0,0.0,0.25,0.5,0.25,1.0,1.5,0.0,1.5,-2.67,4.95,0.14,53.86,3.7,-69.3
1.48,5.5,2.0,5.5,5.5,6.75,7.5,6.0,6.25,6.0,4.5,4.75,3.25,3.5,-0.11,-0.11,0.95,1012.95,5.4,3.3,0.0,0.0,0.0,0.0,0.0,0.0,0.25,0.25,0.25,1.5,1.25,1.25,2.75,1.7,-0.67,2.14,84.12,4.8,-90.2
1.5,6.0,3.0,6.25,6.75,7.5,7.5,7.0,6.25,5.75,3.25,4.5,2.5,3.0,-0.11,-0.11,0.95,1081.42,6.9,12.1,0.0,0.0,0.0,0.0,0.0,0.0,0.25,1.0,0.5,4.0,2.0,4.25,6.0,0.14,0.27,0.33,168.58,5.3,-91.6
1.52,6.75,3.25,6.5,7.0,8.75,8.25,7.75,6.25,5.75,2.75,3.75,2.0,2.75,-0.05,-0.05,1.02,1152.95,7.2,17.8,0.0,0.25,0.0,0.0,0.0,0.0,0.25,1.75,1.25,6.25,4.0,6.0,8.0,-0.61,0.33,2.14,274.14,4.4,-87.1
1.54,7.75,3.5,7.75,8.75,9.5,8.5,8.25,6.25,5.75,2.75,3.75,2.0,2.25,-0.05,-0.05,1.02,1242.09,8.3,22.2,0.0,0.5,0.0,0.0,0.0,1.5,0.75,3.5,2.75,7.5,6.5,7.25,8.75,0.08,0.64,1.89,421.93,3.8,-76.7
1.56,9.0,3.5,8.75,10.5,11.5,8.75,8.75,6.0,5.25,2.75,3.5,2.0,2.25,-0.05,-0.05,1.08,1349.53,9.0,26.5,0.0,0.75,0.0,0.0,0.0,1.5,1.25,3.75,3.0,7.5,7.25,6.75,8.5,0.14,0.08,1.14,573.68,3.3,-73.8
1.58,10.5,3.5,9.75,11.0,13.0,9.0,9.0,6.0,5.0,2.5,3.5,2.0,2.25,-0.05,0.02,0.95,1451.12,9.6,29.4,0.0,0.5,0.0,0.0,0.0,2.25,1.0,3.75,3.0,7.5,6.5,6.5,8.75,0.08,0.02,0.95,679.85,4.3,-73.2
1.6,12.0,4.25,10.5,13.0,13.5,8.75,9.25,5.5,4.5,2.75,2.75,2.0,2.25,-0.05,0.08,1.2,1557.71,10.5,33.5,0.0,0.75,0.0,0.25,0.0,2.5,1.25,3.75,3.0,7.5,6.5,6.5,8.5,0.14,0.02,0.89,729.18,4.0,-70.1
1.62,12.0,3.5,10.5,11.0,11.5,7.5,8.25,4.25,3.75,1.0,1.5,1.75,1.5,-0.23,0.14,1.33,1555.24,12.5,39.7,0.0,0.75,0.0,0.25,0.5,2.75,1.5,3.75,3.0,7.0,6.25,6.0,8.5,0.14,0.02,0.95,740.74,4.1,-66.7
1.64,13.0,4.5,10.5,11.0,9.5,6.5,8.0,4.25,3.25,1.75,1.5,0.25,2.0,-0.3,0.2,1.52,1512.04,13.3,42.3,0.0,0.75,0.0,0.25,1.5,3.0,1.75,4.0,3.0,6.5,5.25,5.5,8.0,0.2,0.02,0.89,725.79,4.4,-60.6
1.66,12.5,4.75,10.5,8.75,9.25,5.0,7.75,4.0,2.5,1.25,1.75,1.25,1.25,-0.23,0.33,1.89,1412.14,14.3,42.9,0.0,0.75,0.0,0.5,0.25,4.0,2.5,4.25,3.5,6.25,5.0,5.25,7.75,0.14,0.02,0.95,703.51,4.3,-59.7
1.68,12.5,4.5,11.0,7.25,8.75,3.25,8.0,4.0,2.0,0.0,2.5,1.0,1.75,-0.61,0.45,2.02,1311.12,16.0,43.5,1.0,1.0,0.0,0.5,2.5,4.0,2.5,4.5,3.5,5.5,4.75,4.25,7.0,0.14,0.02,0.95,675.18,3.3,-44.8
1.7,11.0,3.5,9.25,5.5,6.25,2.5,7.0,2.0,1.5,0.0,1.5,0.75,1.0,-0.73,0.64,2.52,1080.27,18.2,49.1,1.25,0.75,0.75,0.5,3.25,5.75,3.25,4.5,3.5,4.5,4.25,3.0,6.0,0.08,0.02,0.95,633.03,2.8,-31.9
1.72,7.0,1.75,7.0,2.75,5.25,0.0,5.5,0.0,1.25,0.0,1.5,0.25,1.0,-0.92,0.45,2.33,775.04,21.2,49.0,2.5,1.75,2.0,2.75,4.25,6.0,3.5,4.25,3.5,4.25,4.5,3.0,5.75,0.14,0.02,0.95,635.74,-0.8,-15.5
1.74,2.75,0.75,4.25,2.75,0.0,1.25,1.75,0.25,0.75,0.0,0.5,0.25,0.75,-0.8,-0.36,1.95,440.87,21.0,42.2,4.0,1.75,2.5,3.25,4.25,6.25,4.75,4.75,4.25,4.5,4.0,2.0,5.0,0.14,0.02,0.95,656.16,-2.5,-6.8
1.76,1.75,0.5,2.5,1.75,0.0,1.25,1.75,0.25,0.75,0.0,1.25,0.25,1.0,-0.3,0.2,1.14,235.21,16.5,22.1,5.0,2.0,4.25,5.0,6.5,6.5,5.0,4.25,4.25,4.25,4.0,1.5,4.25,0.14,0.02,0.95,731.24,-4.8,5.9
1.78,1.0,0.5,2.25,2.5,0.5,0.25,1.5,0.0,0.75,0.0,1.5,0.25,0.25,-1.17,-0.98,2.77,80.67,19.9,28.2,5.25,2.25,5.0,5.25,7.25,6.75,5.5,4.25,4.25,3.5,3.75,1.25,3.75,0.14,0.02,0.95,808.49,-5.8,11.7
1.8,0.5,0.5,2.25,1.75,0.0,1.0,1.5,0.0,0.75,0.0,1.0,0.25,0.0,-0.98,-0.98,1.33,0.0,19.0,30.5,6.25,2.5,5.25,7.0,8.0,6.75,5.75,3.75,3.5,3.0,2.5,1.25,3.25,0.14,0.02,0.95,892.22,-7.1,20.7
1.82,0.5,0.5,2.25,1.75,0.0,1.25,1.5,0.0,1.5,1.25,1.0,1.75,0.5,-0.55,-0.67,0.58,0.0,12.0,-5.2,6.75,2.5,6.5,7.5,8.25,7.0,6.0,3.5,3.5,3.0,2.75,1.25,3.25,0.08,0.02,1.02,964.78,-8.1,22.6
1.84,0.25,0.5,2.5,2.5,0.5,0.25,1.75,0.75,0.75,0.0,1.5,0.25,2.25,-0.23,-0.42,0.2,0.0,12.2,-0.3,7.75,3.0,6.75,8.75,9.0,7.0,6.25,3.25,3.5,2.75,2.75,0.75,3.25,0.08,0.08,0.95,1042.41,-8.9,27.3
1.86,0.25,0.5,2.25,1.5,0.5,0.25,1.25,0.0,0.75,0.25,1.0,0.25,0.25,-0.11,-0.3,0.33,0.0,18.4,21.7,8.0,3.0,7.5,10.0,9.25,7.0,6.0,3.75,3.0,3.0,2.75,0.0,3.25,0.08,0.08,0.95,1118.9,-9.1,29.9
1.88,0.25,0.5,2.25,1.0,0.5,0.5,1.0,0.0,0.75,0.0,1.25,0.25,0.5,-0.11,-0.3,0.64,0.0,16.9,15.8,8.5,3.0,7.75,10.5,10.5,7.0,6.0,3.5,3.0,2.75,2.5,0.75,3.25,0.08,0.08,0.95,1197.43,-9.4,30.7
1.9,0.0,0.5,2.25,0.75,0.5,0.25,1.0,0.0,0.75,0.0,1.25,0.25,0.75,-0.11,-0.36,1.02,0.0,16.5,7.3,9.25,3.0,8.5,11.0,10.5,7.0,6.0,3.5,3.0,2.75,2.5,0.75,3.25,0.02,0.14,0.95,1267.5,-10.0,31.9
1.92,0.5,0.75,2.0,1.0,0.0,0.25,0.75,0.0,0.75,0.0,0.75,0.25,0.5,-0.11,-0.23,0.95,20.56,19.6,22.1,10.5,3.25,8.5,11.5,12.0,7.0,5.75,3.5,2.25,2.75,1.75,0.75,2.25,0.02,0.14,1.02,1318.09,-10.4,37.9
1.94,0.5,0.5,2.25,0.75,0.0,0.25,0.75,0.0,0.75,0.0,1.25,0.25,0.5,-0.17,-0.11,0.95,52.51,20.0,13.2,10.5,2.75,8.75,12.0,12.0,7.0,5.25,3.5,1.75,2.5,2.5,0.75,3.0,0.02,0.2,1.02,1343.05,-10.3,35.9
1.96,0.0,0.5,2.0,1.0,0.5,0.25,0.75,0.0,0.75,0.0,1.0,0.25,0.5,-0.17,0.02,1.2,82.36,16.8,13.8,11.5,4.0,9.25,14.0,12.0,6.25,4.5,3.25,1.5,1.75,2.25,0.5,3.25,0.08,0.2,1.08,1367.05,-11.5,40.6
1.98,0.0,0.5,1.5,0.75,0.5,0.25,0.5,0.0,0.75,0.0,0.5,0.25,0.5,-0.17,0.14,1.45,91.95,15.1,14.8,11.0,3.25,9.25,12.0,12.0,0.0,4.25,3.25,1.25,0.0,1.5,0.0,1.75,-0.05,0.27,1.08,1296.99,-16.0,49.9
2.0,0.0,0.25,1.75,0.5,0.0,0.25,0.5,0.0,0.75,0.0,1.0,0.25,0.5,-0.3,0.27,1.7,85.45,17.7,-0.9,12.5,4.0,9.25,14.0,12.0,6.25,3.5,2.0,0.0,0.0,2.25,0.5,2.5,0.02,0.33,1.2,1280.64,-13.2,49.3
2.02,0.0,0.5,1.75,0.5,0.0,0.0,0.25,0.0,0.75,0.0,1.0,0.25,0.5,-0.42,0.39,2.45,77.86,18.9,1.6,12.5,4.0,9.25,0.0,12.0,5.25,2.75,2.5,0.0,0.0,2.0,0.25,2.5,0.27,0.39,1.33,1120.05,-12.4,47.9
2.04,0.0,0.5,1.5,0.5,0.0,0.25,0.5,0.0,0.5,0.25,0.5,0.25,0.25,-0.8,1.02,2.89,69.83,17.3,12.5,11.0,4.75,9.25,12.5,9.75,5.75,4.25,2.5,0.0,0.0,2.0,0.25,1.5,0.33,0.52,1.45,1094.47,-13.9,51.5
2.06,0.0,0.25,1.75,0.25,0.0,0.25,0.25,0.0,0.5,0.25,0.75,0.25,0.25,-0.98,1.89,3.27,62.22,18.0,2.9,11.5,4.25,9.25,11.0,9.0,5.0,4.5,1.75,0.75,0.0,0.75,0.25,2.25,0.52,0.77,1.83,1027.98,-14.8,51.9
2.08,0.0,0.5,1.25,0.5,0.5,0.25,0.25,0.0,0.5,0.0,0.75,0.25,0.25,-0.86,3.02,2.27,63.8,14.8,14.5,10.5,3.0,8.75,8.75,8.0,4.0,4.5,0.5,1.0,0.0,0.5,0.0,2.25,0.7,0.95,2.58,952.78,-16.1,53.0
2.1,0.0,0.75,1.0,0.5,0.5,0.25,0.5,0.0,0.75,0.25,0.75,0.25,0.25,-0.3,4.83,1.45,71.35,12.5,10.2,7.5,1.75,7.5,5.25,5.75,1.25,3.25,0.5,0.25,0.0,0.25,0.0,0.5,0.89,0.77,2.58,737.29,-19.7,60.4
2.12,0.0,0.5,1.0,0.75,0.0,0.25,0.5,0.0,0.75,0.25,0.75,0.0,0.25,0.45,6.95,-1.55,71.6,14.8,9.0,4.0,0.0,3.75,0.5,4.5,0.0,1.75,0.5,0.25,0.0,0.5,0.0,0.5,0.77,-0.05,2.33,459.8,-18.2,50.9
2.14,0.0,0.5,1.0,0.5,0.0,0.5,0.5,0.0,0.75,1.0,1.25,0.75,1.0,3.7,6.7,2.33,84.58,6.7,-29.7,1.25,0.0,0.25,0.5,0.5,0.0,1.25,0.5,0.25,0.0,0.5,0.0,1.0,-0.3,0.14,1.64,232.75,-11.6,5.4
2.16,0.0,0.25,1.25,1.0,0.0,1.25,0.25,0.5,0.75,2.5,1.25,2.25,2.25,-1.05,-0.73,2.77,126.53,0.7,-46.3,0.25,0.0,0.0,0.5,0.25,0.0,1.0,0.25,0.25,0.0,0.5,0.0,0.25,0.7,-1.11,3.45,42.26,-11.6,-0.8
2.18,0.0,0.25,1.0,1.0,0.0,1.25,0.0,1.5,0.75,2.75,1.5,5.0,4.5,-0.3,0.08,1.27,196.08,-1.4,-64.9,0.0,0.0,0.0,0.25,0.0,0.0,1.0,0.5,0.25,0.0,0.5,0.0,0.75,1.52,-1.23,2.08,0.0,-3.3,-44.4
2.2,0.0,0.25,1.25,0.0,0.0,2.5,0.25,2.25,1.5,4.75,2.75,6.5,6.25,0.77,0.45,1.77,285.53,-3.3,-68.9,0.25,0.0,0.0,0.5,0.0,0.0,1.0,0.25,0.25,0.0,0.25,0.0,1.0,0.83,-0.67,0.52,0.0,-6.6,-28.0
2.22,0.0,0.5,0.0,1.0,0.0,2.75,1.0,4.0,2.75,3.25,3.75,7.0,7.25,0.14,1.02,1.45,386.52,-3.2,-65.8,0.0,0.0,0.0,0.25,0.0,0.0,0.75,0.0,0.25,0.0,0.5,0.0,1.0,0.27,-0.48,0.39,0.0,-4.3,-56.3
2.24,0.0,0.0,1.25,1.75,0.5,2.75,2.25,4.5,3.25,5.25,5.0,7.5,8.5,-0.05,-0.05,1.08,529.38,-1.5,-60.6,0.0,0.25,0.0,0.25,0.0,0.0,0.75,0.0,0.25,0.0,0.5,0.0,0.75,-0.05,-0.3,0.33,0.0,-7.1,-33.7
2.26,0.5,0.25,2.25,1.0,0.75,3.5,2.75,5.25,3.25,0.0,3.75,7.5,8.0,-0.11,-0.05,0.95,604.08,0.9,-49.7,0.0,0.5,0.0,0.0,0.0,0.0,0.75,0.0,0.25,0.0,0.5,0.0,0.0,-0.11,-0.17,0.52,0.0,-16.4,9.2
2.28,0.5,0.0,1.5,1.5,0.5,3.25,3.0,5.25,3.5,6.25,3.0,7.5,8.0,-0.11,-0.05,0.95,681.19,-1.9,-55.5,0.0,0.0,0.0,0.25,0.0,0.0,0.75,0.0,0.25,0.0,1.25,0.0,0.5,-0.05,-0.23,0.83,0.0,-9.7,-51.0
2.3,0.0,0.25,2.0,1.0,0.5,3.5,2.75,5.25,3.75,6.5,4.75,7.5,8.0,-0.11,-0.05,0.95,730.44,-1.7,-56.8,0.0,0.25,0.0,0.25,0.0,0.0,0.25,0.0,0.25,0.0,0.5,0.0,0.5,0.08,-0.17,0.83,0.0,-6.8,-31.1
2.32,1.5,1.5,2.5,1.0,5.25,4.0,3.0,6.25,3.75,6.5,5.0,7.0,9.0,-0.11,-0.05,0.95,827.39,-0.8,-36.5,0.0,0.0,0.0,0.25,0.0,0.0,0.5,0.0,0.25,0.0,0.25,0.0,0.0,0.02,-0.05,0.95,0.0,-18.0,-6.1
2.34,0.25,0.25,2.25,1.75,0.75,3.0,2.25,5.5,3.5,5.75,4.75,6.75,7.75,-0.11,-0.05,0.95,827.29,-0.9,-52.3,0.0,0.25,0.0,0.0,0.0,0.0,0.25,0.0,0.25,0.0,0.75,0.0,0.5,0.02,0.02,1.08,0.0,-5.8,-49.3
2.36,0.25,0.0,2.25,2.5,0.75,4.5,2.0,5.75,3.25,5.5,4.0,6.5,7.25,-0.11,-0.05,0.95,811.02,-1.6,-47.1,0.0,0.0,0.0,0.0,0.0,0.0,0.25,0.0,0.25,0.0,0.5,0.0,0.25,0.08,0.14,1.33,3.81,-7.7,-64.1
2.38,0.5,0.25,2.25,2.5,0.75,5.0,2.0,6.0,3.25,5.0,3.25,5.75,7.0,-0.11,-0.05,0.95,745.69,-1.8,-42.2,0.0,0.0,0.0,0.0,0.0,0.0,0.75,0.0,0.25,0.0,0.75,0.0,0.75,0.14,0.33,1.64,21.08,-5.6,-66.2
2.4,0.25,0.0,2.25,2.0,1.75,5.0,2.5,6.0,3.25,4.5,3.0,5.75,6.25,-0.17,-0.05,0.95,681.34,-1.9,-40.2,0.0,0.0,0.0,0.0,0.0,0.0,0.25,0.0,0.25,1.5,0.5,0.25,1.0,0.2,0.45,2.2,36.84,6.4,-81.7
2.42,1.0,0.25,2.25,2.5,2.25,5.5,3.0,6.25,3.5,5.0,2.75,5.0,6.0,-0.11,-0.05,0.95,636.74,-1.4,-32.2,0.0,0.0,0.0,0.25,0.0,0.0,0.25,0.0,0.25,0.0,0.25,0.0,0.5,0.39,1.02,2.58,36.39,-5.0,-47.5
2.44,2.0,0.75,3.5,3.25,5.25,6.75,3.75,6.75,4.0,5.5,4.75,5.0,6.25,-0.11,-0.05,0.95,688.19,0.3,-20.7,0.0,0.0,0.0,0.0,0.0,0.0,0.25,0.0,0.25,0.0,0.5,0.0,2.25,0.64,1.77,2.95,45.45,6.1,-93.8
2.46,2.25,0.25,3.25,3.75,5.5,7.5,4.0,6.75,4.5,5.25,4.0,4.75,5.5,-0.11,-0.05,0.95,748.29,0.2,-17.3,0.0,0.0,0.0,0.25,0.25,0.0,0.75,0.0,0.25,0.0,1.75,0.0,1.75,0.95,3.27,2.77,57.48,-2.5,-63.3
2.48,1.75,0.5,4.0,4.75,5.25,7.25,3.75,6.5,4.0,4.25,2.75,3.25,4.0,-0.11,-0.05,0.95,776.61,1.2,-7.4,0.0,0.0,0.0,0.0,0.0,0.0,0.25,0.0,0.25,0.0,0.25,0.0,1.5,1.2,4.77,1.27,57.53,5.4,-90.2
2.5,3.25,1.0,3.5,5.0,6.0,8.25,4.75,7.25,4.5,3.5,4.25,2.25,4.25,-0.11,-0.05,0.95,822.94,1.8,-2.3,0.0,0.0,0.0,0.0,0.0,0.0,0.25,0.0,0.25,0.0,0.25,0.0,2.5,0.7,5.83,-1.36,60.23,8.0,-96.5
2.52,3.5,1.25,4.5,5.5,7.5,8.5,5.0,6.75,4.75,4.75,2.75,3.25,2.25,-0.11,-0.05,0.95,865.08,2.8,4.3,0.0,0.0,0.0,0.0,0.0,0.0,0.25,0.5,0.0,0.75,1.0,0.0,0.75,-1.92,6.95,-1.17,58.98,5.2,-74.1
2.54,3.75,1.75,4.5,6.0,8.5,9.25,5.5,7.25,4.75,4.75,3.75,2.75,3.25,-0.11,-0.05,0.95,945.01,2.5,4.7,0.5,0.75,0.0,0.5,0.0,0.25,0.5,0.5,0.25,3.0,2.0,2.25,3.5,0.83,-0.17,3.02,117.25,1.7,-63.6
2.56,3.75,2.75,5.0,6.5,9.25,9.25,5.75,7.25,4.75,4.25,3.75,2.25,2.75,-0.11,-0.05,0.95,1032.03,3.2,10.1,1.0,0.25,0.25,0.25,0.25,0.25,0.75,2.0,1.0,4.5,3.25,4.25,6.0,-0.67,0.27,0.95,212.9,2.1,-70.0
2.58,4.25,3.25,5.5,6.75,9.5,9.5,6.0,7.25,4.75,4.25,3.0,2.0,2.5,-0.11,-0.05,1.02,1130.53,3.8,14.1,0.0,0.25,0.0,0.0,0.25,0.25,0.5,2.0,1.5,5.5,2.75,5.5,7.25,-0.36,0.39,2.08,299.4,4.7,-82.6
2.6,6.0,3.25,6.25,8.75,12.5,10.0,6.5,7.5,4.75,4.0,3.0,2.0,2.25,-0.11,-0.05,1.02,1253.39,4.8,20.2,0.0,0.0,0.0,0.0,0.0,1.75,0.75,2.75,2.25,6.75,5.25,6.5,8.0,0.14,0.39,1.33,416.66,4.5,-78.6
2.62,7.0,3.5,6.25,9.75,13.5,11.0,6.5,7.5,4.25,3.5,3.0,2.0,2.25,-0.11,0.02,1.02,1357.57,5.0,23.5,0.0,0.75,0.0,0.25,0.0,2.75,1.75,3.75,3.0,7.5,6.5,6.5,8.25,-0.11,0.2,1.14,549.51,3.8,-68.6
2.64,8.25,4.0,6.25,12.0,14.0,11.5,5.5,6.75,3.25,2.75,0.5,2.0,2.25,-0.11,0.14,1.08,1431.95,5.6,31.9,0.0,0.75,0.0,0.25,0.0,2.75,1.75,4.5,3.0,7.5,6.5,6.5,8.5,0.14,0.02,1.02,656.4,4.1,-68.3
2.66,10.5,5.0,7.75,13.0,15.5,12.0,5.75,7.25,3.0,2.75,2.75,2.0,2.25,-0.17,0.14,1.14,1537.05,6.8,32.6,0.25,0.75,0.0,0.25,0.25,2.75,1.75,4.5,3.0,7.25,6.5,6.5,8.5,0.14,0.02,0.95,724.76,3.8,-66.5
2.68,11.5,5.0,8.25,12.5,15.5,11.5,5.5,6.75,2.5,2.75,2.75,2.0,2.25,-0.42,0.2,1.39,1608.53,7.4,34.1,0.0,0.75,0.0,0.25,0.0,2.75,2.0,4.75,3.25,6.75,7.0,6.0,8.5,0.14,0.02,0.95,755.2,3.7,-67.1
2.7,13.5,5.0,8.5,9.25,15.5,10.0,5.0,6.5,2.0,2.75,2.75,2.0,2.25,-0.42,0.27,1.64,1643.71,8.2,35.3,0.75,0.75,0.0,0.25,0.25,3.25,2.25,4.25,3.5,6.5,6.5,6.0,8.0,0.14,0.02,0.95,757.04,2.9,-61.5
2.72,13.0,5.5,8.25,9.0,13.5,9.0,5.0,6.0,1.5,2.75,2.5,2.0,2.25,-0.8,0.45,2.08,1613.09,8.8,36.0,0.5,0.75,0.5,0.5,1.5,4.0,2.75,4.75,3.5,6.25,5.75,5.25,7.75,0.2,0.02,0.95,747.71,3.1,-52.4
2.74,11.5,4.75,7.5,6.75,10.0,7.0,4.75,5.25,1.5,1.75,2.5,1.75,2.0,-0.98,0.89,2.95,1478.64,9.9,35.5,1.25,0.75,0.5,0.5,2.5,4.0,3.0,5.0,3.5,5.25,5.0,4.25,7.0,0.08,0.02,0.95,714.12,2.5,-43.1
2.76,7.25,2.0,4.5,3.75,6.75,3.75,3.0,2.5,0.75,0.0,1.25,0.25,1.0,-1.11,0.39,2.83,1118.58,11.5,44.4,2.0,1.75,1.75,2.75,3.75,5.75,4.25,4.5,4.25,4.5,4.0,4.25,6.0,0.14,0.02,0.95,709.85,-0.7,-21.0
2.78,0.0,0.5,1.25,1.75,0.0,1.25,0.5,0.0,1.0,0.0,0.5,0.25,1.0,-1.17,-0.23,2.14,581.86,9.4,8.6,2.75,1.5,2.5,2.75,4.5,5.75,4.5,3.75,4.25,4.0,4.0,1.5,4.75,0.14,0.02,0.95,682.67,-2.2,-7.8
2.8,0.25,0.0,2.25,2.25,0.5,1.75,0.0,0.0,0.75,0.0,1.0,0.25,1.0,-0.3,0.45,2.27,268.76,10.4,14.4,3.25,1.75,3.0,2.75,4.25,6.25,4.5,4.75,3.75,4.25,4.25,2.25,4.0,0.14,0.02,0.95,683.71,-2.5,-6.4
2.82,0.0,0.5,2.0,1.5,0.0,1.0,0.25,0.0,0.75,0.0,1.25,0.25,0.5,-0.86,-0.55,3.08,63.36,14.1,12.5,5.25,2.0,4.75,5.0,6.5,5.75,5.0,3.75,4.25,2.75,4.5,1.5,4.25,0.14,0.02,0.95,732.04,-6.5,8.4
2.84,0.0,0.5,2.0,1.25,0.5,0.25,0.5,0.0,0.75,0.0,1.0,0.0,1.0,-1.42,-1.48,2.7,0.0,14.8,10.8,5.75,2.5,5.0,5.25,6.5,6.5,5.5,4.25,4.25,3.5,4.0,1.5,3.75,0.14,0.02,0.95,799.6,-6.4,11.1
2.86,0.25,0.5,2.0,1.0,0.5,0.0,0.5,0.0,0.75,0.0,0.5,0.0,0.5,-1.11,-1.05,0.89,0.0,19.4,27.4,6.75,2.5,5.25,7.0,8.0,6.75,5.75,3.75,3.5,3.0,3.0,1.5,3.5,0.14,0.02,0.95,882.1,-7.3,19.4
2.88,0.0,0.5,2.0,0.5,0.5,0.0,0.5,0.0,0.75,0.0,1.25,0.5,0.25,-0.36,-0.55,0.52,0.0,18.6,6.3,7.25,2.5,6.5,7.25,8.0,6.75,6.0,3.5,3.5,2.75,2.75,1.25,3.25,0.08,0.02,1.02,956.29,-8.5,23.2
2.9,0.0,0.5,2.25,1.0,0.0,0.0,0.5,0.0,0.75,0.0,0.75,0.0,0.75,-0.11,-0.3,0.27,0.0,20.0,14.3,7.75,2.75,6.75,8.75,9.0,6.75,6.0,3.75,3.5,3.0,2.5,1.0,3.25,0.08,0.08,0.95,1038.08,-8.7,25.9
2.92,0.0,0.5,2.0,1.0,0.5,0.0,0.5,0.0,0.5,0.0,0.75,0.25,0.5,-0.05,-0.11,0.27,0.0,18.4,18.2,8.5,3.0,7.5,9.0,9.25,6.5,6.0,3.75,3.0,3.0,2.25,1.0,3.25,0.08,0.08,0.95,1103.11,-9.4,28.5
2.94,0.25,0.5,1.75,1.0,0.0,0.75,0.5,0.0,0.5,0.0,1.0,0.25,1.0,-0.05,-0.17,0.7,0.0,13.4,5.8,9.0,3.25,7.5,10.0,9.75,6.75,6.0,3.5,2.5,2.75,2.75,0.75,3.25,0.08,0.08,0.95,1168.92,-9.7,30.9
2.96,0.0,0.5,1.75,0.5,0.0,0.25,0.5,0.0,0.25,0.0,0.75,0.25,0.5,-0.11,-0.23,0.95,0.0,18.3,11.4,9.25,3.0,7.75,10.5,11.0,6.75,5.75,3.5,2.25,2.5,2.5,0.75,1.75,0.02,0.14,1.02,1213.1,-10.2,36.1
2.98,0.0,0.0,1.25,1.0,0.5,0.25,0.5,0.0,0.5,0.0,0.5,0.0,0.5,-0.17,-0.17,1.08,3.71,14.7,14.8,10.5,3.5,8.5,12.0,11.0,7.0,5.25,3.5,2.0,2.25,2.75,0.75,2.25,0.02,0.14,1.02,1276.02,-10.8,37.6
3.0,0.0,0.25,1.5,1.0,0.0,0.0,0.5,0.0,0.5,0.0,1.0,0.0,0.5,-0.17,0.08,1.14,48.38,19.2,7.5,11.0,4.0,8.75,12.5,12.0,7.0,5.25,3.25,1.5,0.0,2.5,0.25,3.0,0.02,0.2,1.02,1311.75,-11.6,43.2
3.02,0.0,0.5,1.25,0.75,0.0,0.0,0.5,0.0,0.5,0.0,0.5,0.25,0.75,-0.23,0.27,1.33,70.68,16.5,2.8,11.5,4.0,9.25,14.0,12.0,0.0,5.0,3.5,1.75,0.0,2.0,0.25,3.25,0.02,0.27,1.02,1311.11,-15.3,44.7
3.04,0.0,0.5,1.25,0.5,0.0,0.0,0.5,0.0,0.25,0.0,1.0,0.25,0.5,-0.3,0.33,1.64,65.61,17.8,0.0,11.5,3.5,9.25,12.5,12.0,6.25,4.5,3.25,1.25,0.0,2.5,0.0,3.0,-0.05,0.27,1.08,1309.12,-12.2,44.3
3.06,0.0,0.5,1.25,0.5,0.5,0.0,0.5,0.0,0.25,0.0,0.75,0.0,0.5,-0.48,0.58,2.02,67.12,16.0,16.5,11.5,3.5,9.25,11.5,11.0,6.0,3.75,2.5,1.25,0.0,1.25,0.0,1.5,-0.05,0.33,1.14,1247.94,-13.4,51.1
3.08,0.0,0.5,1.25,0.25,0.0,0.0,0.5,0.0,0.0,0.0,0.75,0.0,0.25,-0.73,0.95,2.52,60.22,22.0,20.7,13.5,4.0,10.5,12.5,12.0,6.0,4.0,2.5,1.25,0.0,2.25,0.25,2.5,0.2,0.39,1.33,1267.5,-13.8,48.4
3.1,0.0,0.0,1.25,0.75,0.0,0.0,0.5,0.0,0.5,0.0,0.75,0.0,0.5,-0.92,1.95,3.08,57.76,19.1,0.0,11.5,2.5,10.5,10.5,11.5,5.0,3.75,2.0,0.0,0.0,0.5,0.0,1.5,0.27,0.52,1.7,1183.94,-14.7,54.9
3.12,0.0,0.75,1.0,0.5,0.0,0.5,0.5,0.0,0.25,0.0,0.75,0.25,0.5,-1.23,3.33,2.95,59.59,12.8,9.2,12.5,4.75,9.25,12.0,10.5,5.0,4.75,2.0,1.0,0.0,2.0,0.0,2.25,0.39,0.7,1.83,1176.63,-14.5,50.6
3.14,0.0,0.5,1.25,0.5,0.0,0.0,0.5,0.0,0.0,0.0,1.25,0.0,0.5,-1.11,4.7,1.58,61.54,18.3,4.3,9.5,2.5,8.5,7.75,6.0,2.75,4.5,0.5,0.25,0.0,0.0,0.0,1.25,0.64,0.95,3.02,961.93,-18.6,58.8
3.16,0.0,0.5,1.5,0.5,0.0,0.0,0.5,0.0,0.25,0.0,0.5,0.25,0.25,-0.36,6.08,-2.05,62.54,22.0,19.8,7.75,1.25,7.0,5.0,2.5,0.5,3.0,0.5,0.25,0.0,0.0,0.0,0.75,1.02,0.83,2.64,699.56,-23.6,61.3
3.18,0.0,0.5,1.0,0.5,0.0,0.0,0.25,0.25,0.25,0.0,1.5,0.0,0.5,1.7,7.52,-2.8,65.3,14.2,-8.1,4.0,0.25,4.0,0.5,2.25,0.0,1.5,0.0,0.0,0.0,0.0,0.0,0.25,0.95,0.27,2.14,385.11,-25.5,65.7
3.2,0.0,0.5,1.0,0.25,0.0,0.75,0.0,0.25,0.5,0.25,1.25,2.0,1.75,-1.05,-1.42,1.95,89.52,4.4,-47.2,1.5,0.0,0.75,0.25,0.5,0.0,1.25,0.25,0.25,0.0,0.0,0.0,1.25,0.08,0.58,0.77,189.04,-15.1,15.9
3.22,0.0,0.5,0.25,0.5,0.0,0.25,0.25,1.5,0.5,0.5,1.5,5.0,4.25,0.14,0.39,0.52,147.06,-0.2,-76.5,0.5,0.5,0.25,0.5,0.5,0.0,1.25,0.0,0.25,0.0,0.25,0.0,1.25,0.2,-0.55,3.39,14.02,-10.0,4.4
3.24,0.0,0.0,1.25,0.75,0.0,2.5,0.25,2.25,1.25,0.0,2.75,6.75,6.25,0.27,0.58,2.39,234.22,-0.4,-65.9,0.0,0.5,0.0,0.25,0.0,0.0,1.0,0.0,0.25,0.0,0.0,0.0,0.5,1.33,-1.36,1.14,0.0,-11.1,6.5
3.26,0.0,0.0,0.0,0.75,0.0,3.0,1.25,4.25,3.0,1.75,4.0,7.25,7.25,-0.17,1.14,1.33,335.99,-2.8,-68.0,0.5,0.5,0.0,0.25,0.0,0.0,0.75,0.0,0.25,0.0,0.0,0.0,1.25,0.89,-0.67,0.58,0.0,-7.7,-9.2
3.28,0.0,0.0,1.0,1.5,0.5,2.75,2.0,5.0,3.0,0.0,4.5,7.0,7.5,-0.11,0.08,1.02,439.49,-0.2,-57.8,0.0,0.5,0.0,0.25,0.5,0.0,0.75,0.0,0.25,0.0,0.0,0.0,1.5,0.2,-0.48,0.39,0.0,-0.7,-20.5
3.3,0.0,0.25,1.75,1.25,0.5,3.5,1.75,5.0,3.25,5.0,4.0,7.0,7.25,-0.17,0.02,0.95,555.41,-1.9,-55.4,0.5,0.25,0.0,0.25,0.0,0.0,0.75,0.0,0.25,0.0,0.0,0.0,0.5,-0.23,-0.36,0.39,0.0,-15.0,14.3
3.32,0.0,0.0,1.5,1.25,0.5,3.5,0.0,5.25,3.0,5.75,2.75,6.75,7.25,-0.11,-0.05,0.95,619.08,-4.0,-58.5,0.0,0.25,0.0,0.25,0.0,0.0,0.75,0.0,0.25,0.0,0.0,0.0,1.25,-0.36,-0.17,0.58,0.0,-1.9,-41.6
3.34,0.25,0.0,1.75,0.25,0.5,3.0,0.0,5.25,3.0,5.25,2.75,7.0,7.25,-0.17,-0.05,0.95,647.11,-3.6,-61.3,0.0,0.0,0.0,0.25,0.0,0.0,0.75,0.0,0.25,0.0,0.0,0.0,1.25,-0.3,-0.23,0.95,0.0,-0.7,-58.4
3.36,0.25,0.25,1.5,1.0,0.5,3.5,0.0,5.5,3.25,5.25,4.0,6.75,7.25,-0.23,-0.05,0.89,662.06,-3.2,-57.3,0.0,0.25,0.0,0.25,0.0,0.0,0.75,0.0,0.25,0.0,0.0,0.0,0.75,0.02,-0.23,0.95,0.0,-6.2,-23.0
3.38,0.5,0.5,1.75,1.75,0.5,4.0,0.25,5.5,3.25,6.0,4.0,6.75,7.25,-0.11,-0.05,0.95,684.25,-2.6,-51.7,0.0,0.25,0.0,0.25,0.0,0.0,0.75,0.0,0.25,0.0,0.0,0.0,1.25,0.02,-0.11,0.95,0.0,-1.9,-41.6
3.4,0.75,0.0,2.25,2.25,0.5,4.0,0.25,5.5,3.5,6.0,4.0,6.5,7.25,-0.11,-0.05,0.95,699.01,-1.8,-49.6,0.25,0.0,0.0,0.25,0.0,0.0,0.75,0.0,0.25,0.0,0.0,0.0,1.25,-0.11,0.02,1.08,0.0,-4.0,-43.1
3.42,1.0,0.0,2.25,1.75,0.75,5.25,2.25,5.5,3.75,5.25,3.75,6.0,7.0,-0.11,-0.05,0.95,702.07,-1.4,-43.7,0.0,0.25,0.0,0.0,0.0,0.0,0.75,0.0,0.25,0.0,0.0,0.0,1.5,-0.11,0.14,1.45,22.84,1.3,-59.7
3.44,1.75,0.25,2.25,3.0,5.5,5.5,3.0,6.25,4.5,6.0,4.75,6.75,7.25,-0.11,-0.05,0.95,760.83,-0.5,-30.5,0.0,0.25,0.0,0.0,0.0,0.0,0.5,0.0,0.25,0.0,0.0,0.0,1.25,0.08,0.33,1.58,31.45,1.7,-58.5
3.46,2.0,0.5,2.75,3.5,5.25,6.25,3.5,6.25,4.75,6.0,3.5,6.0,6.25,-0.11,-0.05,0.95,799.94,0.0,-23.5,0.0,0.0,0.0,0.0,0.0,0.0,0.25,0.0,0.25,0.0,0.0,0.0,1.5,0.2,0.45,2.08,33.4,7.4,-92.0
3.48,2.25,1.75,3.25,4.25,5.25,6.5,4.0,6.25,5.0,5.25,5.0,5.25,6.0,-0.11,-0.05,0.95,861.77,1.5,-17.3,0.0,0.0,0.0,0.0,0.0,0.0,0.25,0.0,0.25,0.0,0.25,0.0,1.25,0.39,0.64,2.39,33.89,4.2,-87.5
3.5,3.0,2.0,4.0,4.5,5.5,7.0,4.5,6.25,5.25,5.0,5.0,5.0,5.5,-0.11,-0.05,0.95,918.6,2.6,-11.9,0.0,0.25,0.0,0.0,0.0,0.0,0.25,0.0,0.25,0.0,0.25,0.0,1.5,0.58,1.2,3.08,35.15,3.4,-69.9
3.52,3.5,2.0,4.5,5.25,5.75,7.5,4.75,6.5,5.25,4.75,5.0,3.0,4.5,-0.11,-0.05,0.95,971.27,3.2,-3.7,1.0,1.5,0.0,0.5,0.0,0.25,0.5,0.0,0.25,1.25,0.0,0.25,1.25,0.83,2.58,3.2,59.11,-4.8,2.5
3.54,3.75,2.0,4.5,5.25,5.75,7.5,5.5,6.5,5.25,4.0,4.5,3.25,4.0,-0.11,-0.05,0.95,990.2,3.9,-1.2,0.0,0.0,0.0,0.0,0.0,0.0,0.25,0.0,0.25,0.0,0.25,0.0,1.5,0.95,3.77,1.52,59.89,5.4,-90.2
3.56,4.25,2.25,5.0,5.5,7.5,8.0,5.75,6.25,5.25,3.5,3.5,2.25,3.25,-0.11,-0.05,0.95,1014.37,4.4,8.1,0.0,0.0,0.0,0.0,0.0,0.0,0.5,0.0,0.25,0.0,0.5,0.0,2.25,1.02,5.95,-0.61,65.29,4.7,-89.4
3.58,4.25,2.25,5.5,5.5,7.75,8.5,6.25,6.25,5.25,2.75,3.75,2.25,2.75,-0.11,-0.05,0.95,1028.93,5.0,10.7,0.5,0.75,0.0,0.25,0.0,0.0,0.25,0.0,0.5,1.5,2.0,0.0,1.75,-1.48,7.14,-2.42,81.88,-1.7,-45.6
3.6,5.75,3.25,6.25,7.0,9.0,8.5,6.75,6.25,5.0,2.75,3.25,2.25,2.25,-0.11,-0.05,1.02,1078.95,6.4,18.4,0.0,0.0,0.0,0.25,0.0,0.0,0.25,0.5,0.25,1.0,0.25,0.0,1.0,-2.98,2.33,1.58,80.87,7.1,-63.9
3.62,5.75,2.25,6.25,7.0,10.0,8.5,7.25,6.25,4.75,2.75,3.5,2.0,2.25,-0.11,-0.05,1.02,1122.49,6.2,18.2,0.5,1.0,0.0,0.25,1.5,0.0,0.75,1.75,1.0,4.25,2.5,2.25,5.0,1.83,-1.42,2.52,164.17,3.3,-55.9
3.64,7.0,3.5,6.75,8.75,11.5,9.25,7.25,6.0,4.5,3.0,3.0,2.25,2.25,-0.11,-0.05,1.02,1218.62,6.7,23.4,1.25,0.75,0.25,0.0,0.5,0.25,0.75,2.25,1.0,6.25,3.0,5.25,7.0,0.64,0.33,2.27,264.29,2.8,-68.3
3.66,7.75,3.5,7.75,9.0,11.5,9.25,7.5,6.25,4.5,3.5,3.0,2.0,2.25,-0.11,0.02,0.95,1305.1,7.3,24.3,1.0,1.25,0.0,0.0,1.25,0.5,0.75,3.25,1.5,7.5,5.0,7.25,8.75,0.2,0.14,2.08,405.47,3.0,-68.1
3.68,9.5,3.75,7.75,11.0,13.5,10.0,7.0,6.25,4.0,2.5,2.5,2.0,2.25,-0.11,0.08,1.02,1387.51,7.7,30.1,0.5,0.0,0.25,0.0,2.5,1.5,1.25,4.5,2.25,7.5,7.25,7.25,9.5,-0.23,0.14,1.58,579.94,3.5,-67.0
3.7,11.5,3.5,7.75,10.5,12.5,9.25,6.5,5.5,3.25,2.5,0.75,1.75,2.0,-0.11,0.14,1.08,1423.63,8.9,35.7,0.0,0.5,0.0,0.25,0.0,2.75,1.25,4.25,2.75,7.75,7.75,7.0,9.0,0.08,0.14,1.14,713.79,4.0,-71.5
3.72,11.5,4.0,8.25,11.0,13.5,9.25,6.25,5.5,2.75,2.0,1.5,1.5,2.0,-0.05,0.14,1.14,1454.1,9.1,37.3,0.0,0.75,0.0,0.0,0.0,0.5,1.25,4.75,2.25,7.5,6.75,6.75,9.0,0.2,0.02,0.95,761.77,3.8,-76.6
3.74,12.5,0.0,8.75,11.0,13.5,9.25,6.25,5.25,2.5,2.25,1.5,1.25,1.75,-0.23,0.2,1.27,1437.56,9.5,35.9,0.0,0.75,0.0,0.0,0.5,2.5,2.5,5.75,2.25,7.5,6.75,6.5,9.5,0.02,0.02,0.95,789.94,4.6,-67.9
3.76,14.0,4.5,8.75,10.5,12.0,8.75,5.75,5.5,2.0,2.5,1.75,1.5,1.5,-0.36,0.33,1.45,1445.73,10.4,39.9,0.0,0.0,0.0,0.25,0.0,1.0,1.25,4.75,1.75,7.5,6.25,6.5,8.5,0.14,0.02,0.95,760.56,4.6,-77.8
3.78,13.0,6.5,8.75,11.0,12.0,8.5,5.5,5.5,2.0,2.75,2.5,1.75,2.0,-0.3,0.39,1.64,1462.62,10.0,38.0,0.0,0.0,0.0,0.25,0.0,1.0,1.25,4.75,1.75,7.5,5.5,6.0,8.75,0.2,0.02,0.89,725.48,5.1,-77.6
3.8,17.0,6.5,8.75,8.75,11.5,7.75,5.75,5.0,1.75,2.0,2.75,2.0,2.0,-0.73,0.58,2.08,1481.3,11.8,41.1,0.0,0.0,0.0,0.25,0.0,2.75,1.25,4.75,1.5,7.5,5.0,6.0,8.5,0.14,0.02,0.89,679.9,6.2,-72.6
3.82,14.0,6.25,7.75,7.0,9.0,6.5,5.0,4.0,1.5,2.5,2.5,1.5,2.0,-0.92,0.64,2.7,1412.38,11.7,39.6,0.0,0.0,0.0,0.0,0.25,2.75,1.25,5.0,1.75,7.25,5.25,6.0,8.5,0.2,0.02,0.95,646.29,6.1,-72.1
3.84,7.75,2.5,4.5,4.25,5.5,3.75,2.25,2.0,0.75,0.25,1.25,0.25,1.0,-1.3,0.58,2.7,1078.83,12.5,46.3,0.0,0.0,0.0,0.5,0.25,2.5,1.25,5.0,1.5,7.0,4.75,6.0,8.25,0.14,-0.05,0.89,606.85,5.9,-70.8
3.86,2.75,0.5,1.25,2.75,0.0,1.25,0.25,0.25,0.75,1.25,1.25,0.25,1.0,-1.11,-0.3,1.58,605.08,11.9,17.0,0.25,0.75,0.0,0.25,0.5,3.25,1.25,5.5,2.0,6.75,4.75,5.75,8.0,0.14,0.02,0.95,573.39,5.6,-63.0
3.88,0.0,0.5,2.25,2.5,0.0,1.25,0.5,0.0,0.5,0.0,1.25,0.5,1.0,-0.61,0.7,2.52,278.36,12.9,11.1,1.25,1.25,0.0,0.5,1.75,3.25,1.25,5.75,2.25,7.0,5.25,5.25,8.0,0.14,0.02,0.89,572.85,4.3,-52.1
3.9,0.0,0.5,2.25,2.5,0.0,1.0,0.25,0.25,0.75,0.0,1.25,0.0,1.0,-1.3,-0.48,3.7,91.75,12.9,14.0,0.0,1.5,0.0,2.0,3.0,5.75,1.75,5.75,3.0,7.25,3.25,5.25,8.0,0.2,0.02,0.95,594.19,5.6,-42.0
3.92,0.0,0.5,2.0,2.0,0.5,1.0,0.5,0.25,0.75,0.0,1.25,0.25,1.0,-1.42,-1.48,2.58,0.0,11.2,9.8,1.75,1.25,0.0,0.5,3.75,5.5,2.5,6.25,2.25,6.75,5.0,4.0,7.75,0.14,0.02,0.95,621.04,4.7,-38.0
3.94,0.25,0.5,2.25,1.75,0.0,0.0,0.5,0.0,0.5,0.5,1.25,0.75,0.5,-0.8,-0.67,0.77,0.0,17.8,4.8,0.25,1.75,1.0,0.75,5.25,6.75,3.0,6.5,3.0,6.25,3.75,3.75,6.25,0.14,0.02,0.95,646.28,4.7,-28.3
3.96,0.5,0.5,2.25,1.75,0.5,0.0,0.5,0.0,0.75,0.0,1.25,0.25,0.0,-0.36,-0.36,0.39,0.0,21.2,28.7,2.25,1.75,2.25,2.75,6.5,7.25,3.0,6.75,3.0,5.75,4.5,2.75,6.0,0.14,0.02,0.95,705.48,1.5,-13.9
3.98,1.75,1.75,2.0,3.0,0.0,1.0,0.5,0.0,0.75,0.0,1.0,0.25,0.25,-0.23,-0.17,0.27,0.0,18.0,43.8,2.5,1.75,2.25,4.0,6.5,7.75,3.5,6.5,3.0,5.25,4.0,2.0,5.0,0.14,0.02,0.95,751.91,0.7,-6.6
4.0,1.0,1.25,1.75,1.5,0.5,0.0,1.5,0.25,0.75,0.0,1.75,0.25,1.5,-0.17,-0.11,0.52,0.0,14.9,9.4,2.5,2.25,2.5,5.25,8.0,8.0,4.0,6.5,3.0,4.5,3.75,1.5,5.0,0.2,0.02,0.95,822.71,0.0,0.5
4.02,0.0,0.5,1.25,2.75,0.0,0.0,0.5,0.0,0.75,1.75,1.25,1.25,0.75,-0.23,-0.23,1.2,0.0,10.1,-16.0,3.0,2.5,2.75,7.0,9.25,8.5,4.0,6.5,3.0,4.5,2.75,1.25,4.25,0.14,0.02,0.95,891.16,-0.7,8.5
4.04,1.75,1.25,2.25,2.75,1.25,1.5,1.5,0.0,0.75,1.75,1.5,1.5,2.0,-0.3,-0.23,1.39,83.01,9.3,4.2,4.0,3.0,4.0,8.75,10.5,9.0,4.25,6.5,2.5,4.5,2.75,1.25,3.75,0.08,0.02,1.08,991.99,-2.3,15.6
4.06,1.75,1.75,2.75,2.75,0.5,0.0,1.5,0.5,0.75,1.5,2.0,1.5,2.0,-0.42,-0.05,1.39,167.19,12.9,1.6,5.0,3.0,5.0,9.75,12.0,9.5,4.0,6.5,2.25,4.25,2.5,1.25,3.5,0.14,0.08,1.02,1103.41,-3.3,20.4
4.08,1.75,1.75,3.0,2.75,0.5,0.0,1.25,0.25,0.75,1.75,2.0,1.75,2.0,-0.42,0.14,1.39,237.78,13.1,0.3,5.75,3.75,5.0,11.0,13.5,10.0,3.5,6.5,2.25,3.0,2.75,0.75,3.5,0.14,0.08,1.02,1226.83,-3.8,25.9
4.1,1.75,1.5,2.5,2.75,0.5,0.0,1.0,0.25,0.75,1.5,1.75,1.75,2.0,-0.3,0.33,1.52,264.09,12.7,-0.8,7.0,4.0,5.0,12.5,15.0,10.5,3.0,6.5,1.5,3.0,2.75,0.25,3.5,0.14,0.08,1.2,1334.72,-4.1,30.1
4.12,1.5,1.5,1.75,2.75,0.75,0.75,1.25,0.5,0.75,1.25,1.75,2.0,2.0,-0.36,0.39,2.27,270.34,9.7,-3.3,8.5,3.75,6.0,13.5,15.0,10.5,2.25,6.25,0.75,1.75,2.5,0.25,3.5,0.14,0.2,1.2,1398.59,-5.4,35.0
4.14,1.25,1.5,2.25,2.75,0.5,1.0,1.0,1.5,0.75,2.0,1.75,1.75,2.0,-0.42,0.52,2.39,272.29,7.5,-6.6,9.0,3.75,7.25,14.0,15.5,10.0,1.5,5.75,0.0,0.0,2.25,0.0,3.25,0.27,0.27,1.27,1430.91,-6.9,41.4
4.16,0.0,0.5,2.25,0.75,0.5,1.0,1.0,1.5,0.75,1.75,0.5,2.0,0.5,-0.55,0.7,2.33,248.68,5.7,-17.1,8.75,3.5,7.5,12.5,13.5,8.25,2.0,3.25,0.0,1.25,1.0,0.0,2.0,0.2,0.33,1.45,1385.39,-8.7,46.4
4.18,1.25,1.75,2.25,2.75,0.5,0.75,1.0,1.75,0.0,0.0,2.0,0.25,2.0,-0.73,0.83,2.83,242.31,10.3,12.6,9.75,5.25,7.75,15.0,12.0,8.75,3.5,2.25,1.0,2.5,2.0,0.25,3.5,0.2,0.39,1.45,1381.9,-9.3,40.9
4.2,0.25,0.5,0.0,0.5,0.0,0.0,0.0,0.0,0.5,0.0,1.0,0.5,0.25,-3.48,6.08,1.89,176.61,11.7,-20.2,9.5,4.75,9.0,14.0,13.5,8.25,5.25,2.75,1.0,2.0,1.25,0.25,3.0,0.27,0.45,1.64,1373.22,-9.9,43.0
4.22,1.75,0.5,0.25,0.5,0.0,0.0,0.0,0.0,0.75,0.0,1.25,0.0,0.5,0.2,7.77,1.77,128.35,18.0,14.9,8.0,3.25,8.25,9.0,11.0,7.0,5.75,2.0,0.0,0.0,1.5,0.0,1.75,0.08,1.2,2.52,1268.61,-11.4,48.5
4.24,1.75,0.5,1.0,2.25,0.0,0.0,0.0,0.25,0.75,0.5,1.25,0.0,0.5,0.89,7.39,0.33,98.87,16.7,21.2,6.5,1.75,6.25,5.25,6.5,5.0,4.0,0.75,0.25,0.0,0.0,0.0,1.75,0.77,0.77,3.14,973.54,-12.8,50.6
4.26,2.75,1.75,2.25,2.75,0.0,2.75,0.5,0.25,1.75,1.0,1.25,2.0,1.0,2.52,5.83,2.2,150.2,11.0,13.1,3.0,0.25,2.5,1.25,4.25,2.75,1.5,0.25,0.25,0.0,0.0,0.0,0.25,0.39,0.08,3.08,581.1,-10.3,53.7
4.28,4.25,1.75,2.25,3.0,1.25,2.75,0.5,3.5,3.25,0.0,3.5,2.5,2.25,-1.42,-7.05,1.77,239.11,8.3,0.6,2.75,0.0,2.25,2.75,3.75,2.75,1.25,0.0,0.75,1.25,0.0,0.25,0.75,-0.48,0.83,0.45,326.87,-8.4,36.1
4.3,3.5,2.0,3.5,2.75,3.0,2.75,0.5,3.75,3.25,3.25,4.0,3.5,4.0,-0.92,-0.86,2.39,361.26,5.1,-11.3,0.0,0.0,1.75,0.0,0.25,0.25,1.0,0.0,0.25,0.0,0.25,0.0,0.5,0.52,-0.92,3.83,126.16,-20.1,16.3
4.32,5.25,2.0,3.25,2.75,4.75,2.75,1.5,4.0,3.5,1.25,3.75,2.25,4.0,0.14,-0.61,1.7,491.16,6.8,2.5,0.0,0.25,0.0,0.0,0.25,0.25,0.75,0.0,0.25,0.0,0.5,0.0,1.5,0.08,-0.48,2.89,0.0,1.2,-45.8
4.34,4.25,2.0,4.0,3.75,3.5,3.5,1.75,2.25,3.75,1.25,3.5,2.25,2.25,-0.05,-0.55,0.64,571.17,9.1,9.1,0.0,0.25,0.0,0.25,0.0,0.0,0.75,0.25,0.25,0.0,0.5,0.0,1.5,0.45,-0.11,0.45,0.0,-0.6,-51.3
4.36,5.75,2.0,4.25,4.5,2.25,4.0,1.75,2.5,3.5,2.25,2.5,2.5,2.25,0.08,0.77,1.27,618.63,9.6,11.4,0.0,0.25,0.0,0.25,0.0,0.25,0.75,0.0,0.25,0.25,0.25,0.0,1.25,0.08,-0.42,0.52,0.0,0.6,-41.2
4.38,7.0,2.5,4.5,4.5,5.25,4.5,2.5,4.0,3.75,2.5,2.5,2.25,2.0,-0.3,-1.17,0.39,692.55,8.4,17.3,0.75,1.75,1.0,1.0,2.25,0.5,1.0,0.5,0.5,1.5,1.75,0.25,1.75,-0.11,-0.61,0.89,0.0,-4.9,2.3
4.4,7.75,3.5,4.75,5.25,5.25,5.0,3.75,4.0,4.0,2.5,2.5,1.75,2.0,-0.42,-0.86,0.64,788.46,9.2,22.2,1.25,1.5,1.25,0.75,2.25,0.5,0.75,0.5,0.25,1.5,1.75,0.25,1.5,0.2,-0.55,1.14,0.0,-6.1,6.4
4.42,9.0,3.5,6.25,5.25,5.75,5.25,5.0,4.0,4.5,2.5,2.75,1.75,2.0,-0.42,-0.42,1.08,902.82,10.5,24.3,1.25,1.5,0.5,0.5,2.25,0.25,0.75,0.25,0.25,1.5,2.0,0.25,1.75,0.52,-0.3,1.2,24.58,-4.6,-1.3
4.44,10.5,4.25,6.25,5.5,6.0,6.25,5.75,4.0,4.75,2.75,2.75,2.0,2.0,-0.36,-0.42,0.89,1031.1,10.6,26.2,0.0,0.75,0.0,0.0,0.0,0.0,0.25,0.5,0.25,0.0,0.25,0.0,0.25,0.45,3.64,-3.98,20.93,-3.4,2.0
4.46,11.5,5.0,7.75,7.0,7.25,6.5,7.0,4.75,5.0,2.75,3.0,2.0,2.0,-0.11,-0.42,1.02,1172.27,11.2,28.8,0.0,0.25,0.0,0.0,0.0,0.0,0.5,0.0,0.0,0.0,0.0,0.0,0.5,1.08,3.02,3.45,18.24,-3.9,-24.1
4.48,12.0,6.0,8.5,7.0,7.5,7.25,7.75,5.25,5.25,2.5,3.0,2.0,2.0,-0.11,-0.42,1.2,1302.24,11.3,30.4,0.0,0.25,0.0,0.0,0.0,0.0,0.25,0.0,0.25,0.0,0.25,0.0,0.5,1.58,1.77,-4.8,3.48,-4.1,-40.2
4.5,12.5,6.5,8.75,8.5,8.5,7.5,8.5,5.25,5.25,2.75,3.0,2.0,2.0,-0.23,-0.36,1.2,1398.24,11.3,31.9,0.25,0.0,0.0,0.0,0.0,0.0,0.25,0.0,0.25,0.0,0.25,0.0,0.75,3.2,4.2,-4.17,4.35,-4.3,-53.6
4.52,14.0,6.75,9.75,8.75,9.0,7.5,9.0,5.5,5.25,2.75,3.0,1.75,2.0,-0.17,-0.36,1.2,1486.76,12.0,34.1,0.0,0.0,0.0,0.0,0.0,0.0,0.25,0.0,0.0,0.0,0.25,0.0,0.5,-1.17,0.77,3.02,0.0,0.6,-81.6
4.54,16.0,7.75,10.5,9.0,9.25,8.25,9.25,5.5,5.25,2.75,3.0,2.0,2.0,-0.17,-0.3,1.2,1582.94,12.4,36.2,0.0,0.25,0.0,0.0,0.0,0.0,0.25,0.0,0.0,0.0,0.25,0.0,1.75,-1.98,-2.61,2.83,17.62,6.1,-77.4
4.56,16.0,8.0,11.0,11.0,10.0,8.25,9.75,5.5,5.0,2.75,2.75,1.75,2.0,-0.23,-0.23,1.2,1672.13,12.6,38.1,0.0,0.0,0.0,0.0,0.0,0.0,0.25,0.0,0.0,0.0,0.0,0.0,1.5,-0.3,-1.42,1.02,15.47,10.3,-100.0
4.58,17.5,8.25,11.5,11.0,10.5,8.0,10.0,5.5,4.75,2.75,2.5,2.0,2.0,-0.73,-1.11,1.08,1748.45,13.1,39.5,0.0,0.0,0.0,0.0,0.0,0.0,0.25,0.0,0.0,0.0,0.0,0.0,1.5,-1.8,-1.05,0.27,11.98,10.3,-100.0
4.6,17.5,9.0,11.5,11.0,11.0,7.5,10.0,4.75,4.25,2.75,3.0,2.0,2.0,-0.42,0.39,1.27,1788.52,13.4,40.5,0.0,0.0,0.0,0.0,0.0,0.0,0.5,0.0,0.0,0.0,0.0,0.0,1.0,-2.55,-0.55,-1.17,4.26,4.9,-83.9
4.62,17.5,9.0,12.0,13.0,11.0,7.5,10.0,4.5,3.75,2.5,2.5,1.75,2.0,-0.3,0.27,1.58,1807.81,13.8,43.0,0.0,0.0,0.0,0.0,0.0,0.0,0.5,0.0,0.0,0.0,0.0,0.0,0.5,-1.86,0.64,-1.92,0.0,-0.9,-66.3
4.64,17.5,9.0,12.5,13.0,10.5,7.0,10.0,4.0,2.75,1.75,2.75,2.5,2.0,-0.36,0.52,1.77,1799.44,14.6,43.8,0.25,0.0,0.0,0.0,0.0,0.0,0.25,0.0,0.0,0.0,0.0,0.0,0.75,-0.48,0.95,-3.17,0.0,-1.3,-52.1
4.66,17.5,8.75,12.5,13.0,9.25,6.5,10.0,3.75,2.0,1.75,2.25,1.75,2.0,0.02,1.64,1.52,1754.91,15.3,46.5,0.0,0.0,0.0,0.0,0.0,0.0,0.25,0.0,0.0,0.0,0.25,0.0,1.75,1.02,0.89,-2.86,13.74,8.4,-98.4
4.68,14.0,7.5,11.5,9.25,7.5,5.0,9.25,2.0,1.5,2.25,1.75,1.75,2.0,1.14,4.7,0.58,1605.0,15.9,45.1,0.0,0.25,0.0,0.0,0.0,0.0,0.0,0.0,0.0,0.0,0.25,0.0,1.25,1.52,0.7,-0.67,28.3,6.5,-75.0
4.7,8.0,3.75,9.0,5.5,4.5,1.0,7.25,2.0,0.75,0.0,1.75,0.0,2.0,0.27,6.08,1.2,1274.6,18.9,46.1,0.0,0.0,0.0,0.0,0.0,0.0,0.0,0.0,0.0,0.0,0.25,0.0,1.5,1.02,1.08,-0.36,33.17,10.3,-105.2
4.72,4.5,1.75,5.0,4.5,3.5,0.0,3.0,0.0,0.75,0.0,1.75,0.25,2.0,-0.17,3.64,2.39,779.79,18.4,39.2,0.0,0.5,0.0,0.0,0.0,0.0,0.25,0.0,0.0,0.0,0.5,0.0,1.5,1.45,1.2,-0.11,37.87,2.0,-57.0
4.74,2.5,0.5,3.25,2.75,0.0,0.0,2.5,0.0,0.75,0.0,1.0,1.0,0.5,-1.23,4.52,3.14,373.52,24.1,30.8,1.25,0.5,0.0,0.0,0.0,0.0,0.25,0.0,0.0,0.0,0.25,0.0,1.5,1.02,1.39,-0.05,46.15,-9.1,-5.4
4.76,1.25,0.5,3.0,2.75,0.5,0.75,1.75,0.0,0.75,0.0,0.5,0.0,0.5,-0.11,0.45,2.45,167.88,20.0,41.4,0.25,0.0,0.0,0.0,0.0,0.0,0.25,0.0,0.0,0.0,0.0,0.0,1.75,0.02,1.64,-0.11,46.49,5.8,-79.7
4.78,0.75,0.5,2.5,2.5,0.0,1.0,1.5,0.0,0.75,0.0,1.0,0.0,0.5,0.33,1.45,0.95,8.11,18.3,31.2,0.25,0.25,0.0,0.0,0.0,0.0,0.25,0.0,0.0,0.0,0.0,0.0,1.5,-0.73,1.58,-0.55,44.56,2.7,-54.7
4.8,0.75,0.75,2.25,1.75,0.0,1.0,0.25,0.0,0.75,0.0,1.25,0.0,2.0,0.14,1.02,0.39,0.0,12.2,7.6,0.0,0.25,0.0,0.0,0.0,0.0,0.25,0.0,0.0,0.0,0.25,0.0,1.25,-0.8,1.77,-0.86,41.08,4.1,-68.6
4.82,0.0,0.5,1.5,1.75,0.0,0.75,0.5,0.5,0.75,0.0,0.5,0.0,0.0,0.2,1.02,1.2,0.0,14.4,30.1,0.0,0.25,0.0,0.0,0.0,0.0,0.25,0.0,0.0,0.0,0.25,0.0,0.5,-0.86,1.77,-0.55,32.78,-2.3,-40.5
4.84,0.0,0.5,1.75,1.5,0.5,0.25,0.25,0.0,0.75,0.0,0.5,0.0,0.25,0.2,0.95,2.02,0.0,17.4,31.8,0.0,0.25,0.0,0.0,0.0,0.0,0.25,0.0,0.0,0.0,0.5,0.0,0.5,-0.61,1.83,-0.17,27.2,-3.8,-46.7
4.86,0.0,0.5,1.0,1.5,0.5,0.5,0.25,0.0,0.75,0.0,0.0,0.0,0.25,-0.05,0.83,2.64,0.0,13.1,37.5,0.0,0.0,0.0,0.0,0.0,0.0,0.25,0.0,0.0,0.0,0.25,0.0,1.0,-0.67,1.2,0.27,24.31,5.4,-92.0
4.88,0.0,0.5,1.0,1.5,0.0,0.25,0.5,0.0,0.75,0.0,0.25,0.0,0.5,-0.67,0.39,2.83,0.0,15.7,22.8,0.0,0.0,0.0,0.0,0.0,0.0,0.25,0.0,0.0,0.0,0.25,0.0,1.0,0.7,0.45,0.33,22.81,5.4,-92.0
4.9,0.0,0.5,1.0,1.5,0.0,1.0,0.25,0.0,0.75,0.0,0.0,0.25,0.25,-0.86,-0.17,2.95,0.0,11.6,28.7,0.25,0.0,0.0,0.0,0.0,0.0,0.25,0.0,0.0,0.0,0.25,0.0,1.5,1.14,0.2,0.14,25.92,3.0,-75.6
4.92,0.0,0.5,1.25,1.0,0.0,0.25,0.75,0.0,0.5,0.0,0.25,0.25,0.25,-1.3,-1.05,2.89,0.0,18.6,24.5,0.25,1.25,0.0,0.5,0.0,0.25,0.25,0.0,0.25,1.5,0.5,0.25,1.5,1.2,-1.55,-1.67,51.44,0.3,-25.5
4.94,0.0,0.5,0.25,0.75,0.0,0.75,0.5,0.0,0.5,0.0,0.25,0.0,0.5,-1.8,-1.67,2.64,9.11,6.1,13.0,0.5,1.5,0.75,0.5,0.5,0.25,0.5,0.0,0.25,1.25,0.25,0.25,2.25,-0.55,-2.73,-1.61,85.86,-3.6,-9.4
4.96,0.0,0.5,1.0,1.0,0.0,0.25,1.0,0.0,0.5,0.0,0.25,0.0,0.5,-1.8,-2.05,2.39,35.3,16.5,22.3,1.0,1.5,1.25,0.5,0.25,0.25,0.75,0.25,0.25,1.5,0.75,0.25,2.0,-1.98,-2.42,-1.23,122.78,-7.1,-5.3
4.98,0.0,0.5,0.75,0.75,0.0,0.25,0.75,0.0,0.5,0.0,0.25,0.25,0.25,-1.48,-2.42,1.58,46.05,16.1,17.5,0.5,1.5,0.75,0.5,0.25,0.25,0.75,0.5,0.25,1.5,0.5,0.25,2.25,-2.05,-1.55,-0.48,144.79,-2.7,-15.9
5.0,0.0,0.5,0.75,0.5,0.0,0.25,1.0,0.0,0.5,0.0,0.5,0.25,0.5,-1.36,-2.17,0.27,49.5,14.4,2.3,0.5,1.25,1.0,0.75,0.25,0.25,0.75,0.5,0.0,1.5,0.5,0.0,2.25,-2.11,-0.73,0.33,156.7,-3.4,-11.7
5.02,0.0,0.5,0.25,0.5,0.0,0.25,1.0,0.0,0.5,0.0,0.5,0.25,0.25,-0.92,-1.05,-0.55,48.44,12.9,2.0,0.0,1.0,0.0,0.5,0.0,0.25,0.25,0.0,0.0,1.25,0.75,0.25,1.5,-1.48,1.33,-0.17,142.01,1.8,-35.6
5.04,0.0,0.5,0.25,0.5,0.5,0.25,0.25,0.0,0.75,0.0,0.25,0.25,0.0,-0.92,0.27,-1.42,49.26,10.3,18.8,0.0,0.0,0.25,0.0,0.25,0.0,0.5,0.5,0.0,0.0,1.5,0.0,1.75,-0.36,2.45,-1.3,122.15,0.1,-63.7
5.06,0.0,0.5,1.0,0.5,0.5,0.25,0.25,0.0,0.75,0.0,0.0,0.25,0.5,-1.3,1.27,-5.8,55.98,12.3,16.4,0.25,0.0,0.0,0.0,0.0,0.0,0.25,0.0,0.0,0.0,0.0,0.0,0.25,-0.48,2.77,-1.36,81.09,-13.9,-3.5
5.08,0.0,0.5,1.25,0.75,0.0,0.25,0.25,0.0,0.75,0.0,0.0,0.25,0.0,-1.05,2.02,-6.23,58.76,20.0,33.1,0.0,0.0,0.0,0.0,0.0,0.0,0.25,0.0,0.0,0.0,0.25,0.0,0.5,-0.73,2.83,-0.73,48.82,0.6,-81.6
5.1,0.0,0.5,1.0,0.5,0.0,0.25,0.5,0.0,0.5,0.0,0.5,0.25,0.25,0.39,3.08,-3.67,61.88,16.6,11.8,0.0,0.25,0.0,0.0,0.0,0.0,0.25,0.0,0.0,0.0,0.5,0.0,0.5,-0.36,2.52,-0.55,24.13,-3.8,-46.7
5.12,0.0,0.5,1.0,0.5,0.0,0.25,0.5,0.0,0.5,0.0,0.25,0.25,0.25,1.2,3.14,-2.17,61.53,17.0,17.4,0.25,0.0,0.0,0.0,0.0,0.0,0.25,0.0,0.0,0.0,0.5,0.0,0.25,-0.11,2.14,-0.55,10.57,-12.5,-35.3
5.14,0.0,0.5,1.0,0.5,0.0,0.25,0.5,0.0,0.5,0.0,0.0,0.25,0.25,1.45,3.14,-0.98,59.96,17.4,23.7,0.0,0.0,0.0,0.0,0.0,0.5,0.25,0.0,0.25,0.0,0.25,0.0,0.5,-0.11,1.58,-0.48,3.77,5.2,-40.7
5.16,0.0,0.5,1.0,0.5,0.0,0.25,0.5,0.0,0.5,0.0,0.5,0.0,0.5,1.2,3.14,-0.8,60.83,15.2,11.5,1.5,1.5,0.0,0.25,0.0,0.25,0.25,0.5,0.0,0.0,1.5,0.0,1.75,0.02,0.83,-0.55,32.3,-7.3,-1.4
5.18,0.0,0.5,1.0,0.5,0.0,0.25,0.5,0.0,0.25,0.0,0.5,0.0,0.5,1.2,3.27,-1.11,61.05,15.4,14.8,0.5,1.5,0.0,0.25,0.0,0.25,0.25,0.0,0.0,1.25,0.75,0.25,0.5,0.02,0.39,-0.55,51.1,-4.1,-1.4
5.2,0.0,0.5,0.5,0.5,0.5,0.25,0.5,0.0,0.5,0.0,0.5,0.25,0.25,1.2,3.14,-0.86,62.58,11.1,11.5,0.0,1.25,0.0,0.75,0.25,0.25,0.75,0.5,0.0,1.25,1.25,0.25,2.25,0.02,0.02,-0.73,84.67,1.1,-33.0
5.22,0.0,0.5,1.0,0.5,0.0,0.25,0.5,0.0,0.25,0.0,0.25,0.25,0.25,1.08,2.89,-0.3,61.56,17.4,21.3,0.5,1.5,0.75,0.5,0.25,0.25,0.75,0.25,0.0,1.5,2.0,0.0,2.25,0.14,-0.11,-1.05,115.39,-4.0,-20.9
5.24,0.0,0.5,0.5,0.5,0.0,0.25,0.5,0.0,0.25,0.0,0.5,0.25,0.25,0.83,2.27,0.27,58.41,13.6,7.8,0.5,1.5,0.5,0.5,0.0,0.25,0.5,0.5,0.25,1.5,1.75,0.25,2.75,0.08,-0.17,-1.17,142.95,-1.8,-31.5
5.26,0.0,0.5,0.75,0.5,0.0,0.75,0.25,0.0,0.25,0.0,0.25,0.25,0.25,0.52,1.64,0.89,57.35,10.1,19.9,0.5,1.5,0.25,0.25,0.0,0.25,0.5,0.5,0.25,1.0,1.75,0.0,2.0,-0.05,-0.3,-1.05,150.61,-2.5,-25.1
5.28,0.0,0.5,0.5,0.0,0.0,4.0,0.25,0.0,0.25,0.25,0.75,0.25,0.25,0.52,1.02,1.14,72.66,-7.6,11.3,0.0,1.5,0.0,0.25,0.25,0.25,0.5,0.5,0.25,1.5,1.75,0.25,1.75,-0.17,-0.36,-0.8,153.34,0.9,-34.6
5.3,0.0,0.5,0.25,0.5,0.0,0.5,3.25,4.75,0.25,0.0,0.0,0.0,0.5,0.83,0.45,1.27,97.25,-2.1,-10.6,0.0,1.5,0.0,0.5,0.25,0.25,0.5,0.5,0.25,1.5,1.75,0.25,2.25,-0.17,-0.42,-0.61,154.95,1.0,-36.2
5.32,0.0,0.5,1.0,0.5,0.5,0.25,0.25,0.0,0.25,0.0,0.5,0.0,0.75,0.89,-0.05,1.08,99.78,10.9,12.3,0.25,1.5,0.0,0.25,0.25,0.25,0.5,0.5,0.25,1.5,0.75,0.25,2.25,-0.11,-0.48,-0.48,148.16,2.0,-30.8
5.34,0.0,0.5,0.25,0.5,0.0,0.25,0.25,0.0,0.25,0.0,0.5,0.25,0.5,0.77,-0.23,0.83,88.45,8.6,-6.8,0.25,1.5,0.0,0.25,0.0,0.25,0.25,0.5,0.25,1.25,1.5,0.25,2.5,-0.17,-0.55,-0.42,145.12,1.3,-39.2
5.36,0.0,0.5,0.0,1.0,0.0,0.25,0.0,0.0,0.0,0.0,0.5,0.0,0.25,0.45,-0.48,0.45,68.23,8.1,21.6,0.5,1.5,0.25,0.5,0.25,0.25,0.5,0.5,0.0,1.5,0.75,0.25,2.25,-0.17,-0.61,-0.42,141.36,-0.2,-21.9
5.38,0.0,0.5,0.0,0.5,0.5,0.25,0.5,0.0,0.0,0.0,0.0,0.25,0.0,0.08,-0.8,0.27,51.24,7.7,42.5,0.0,1.25,0.25,0.25,0.0,0.25,0.5,0.5,0.0,1.5,0.5,0.25,2.25,-0.23,-0.55,-0.42,130.64,3.1,-37.9
5.4,0.0,0.5,0.0,1.0,0.5,0.25,0.5,0.0,0.0,0.0,0.5,0.0,0.0,-0.05,-1.11,0.33,44.45,9.7,38.9,0.5,1.5,0.5,0.5,0.25,0.25,0.5,0.5,0.0,1.5,1.25,0.25,2.25,-0.42,-0.48,-0.36,128.52,-1.8,-22.4
5.42,0.0,0.5,0.0,0.25,0.5,0.25,0.5,0.0,0.0,0.0,0.5,0.25,0.25,-0.17,-1.36,0.39,42.92,5.4,6.9,0.5,1.5,0.5,0.5,0.0,0.25,0.25,0.0,0.25,1.5,1.5,0.25,2.0,-0.55,-0.55,-0.42,128.48,-3.6,-24.0
5.44,0.0,0.5,0.0,0.5,0.0,0.25,0.5,0.0,0.0,0.0,0.5,0.0,0.25,-0.67,-1.61,0.45,39.73,8.6,13.8,0.75,1.25,0.0,0.25,0.25,0.25,0.25,0.0,0.25,1.25,1.5,0.25,2.25,-0.55,-0.55,-0.55,125.94,-1.4,-30.5
5.46,0.0,0.5,0.0,0.5,0.0,0.25,0.5,0.0,0.0,0.0,0.5,0.25,0.25,-1.11,-1.86,0.39,36.14,8.6,1.5,0.25,1.25,0.0,0.5,0.0,0.25,0.5,0.0,0.0,1.5,1.75,0.25,2.25,-0.55,-0.55,-0.61,123.54,-0.1,-39.5
5.48,0.0,0.5,0.25,0.5,0.5,0.25,0.5,0.0,0.0,0.0,0.5,0.25,0.25,-1.23,-1.92,0.45,37.98,8.8,15.1,0.5,1.5,0.25,0.25,0.0,0.25,0.25,0.0,0.0,1.5,1.5,0.25,2.75,-0.61,-0.55,-0.67,126.37,-0.4,-35.9
5.5,0.0,0.5,0.0,0.5,0.0,0.25,0.25,0.0,0.0,0.25,0.5,0.25,0.25,-0.98,-1.92,0.33,35.69,5.3,-6.9,1.0,1.5,0.5,0.25,0.25,0.25,0.25,0.0,0.0,1.25,1.5,0.25,2.0,-0.61,-0.55,-0.67,128.71,-4.9,-15.6
5.52,0.0,0.5,0.0,0.5,0.0,0.25,0.5,0.0,0.0,0.0,0.5,0.25,0.25,-0.86,-1.73,0.08,34.2,8.6,1.5,0.5,1.5,0.0,0.0,0.25,0.25,0.25,0.0,0.0,1.25,1.5,0.25,2.25,-0.55,-0.55,-0.73,125.3,0.0,-32.8
5.54,0.0,0.5,0.0,0.5,0.0,0.25,0.0,0.0,0.0,0.0,0.0,0.25,0.25,-0.8,-1.42,-0.17,31.14,4.9,18.9,0.25,1.5,0.25,0.5,0.25,0.25,0.5,0.0,0.0,1.5,1.5,0.25,2.75,-0.48,-0.48,-0.8,128.83,-0.3,-33.0
5.56,0.0,0.5,0.0,0.5,0.0,0.25,0.0,0.0,0.0,0.0,0.25,0.25,0.25,-0.67,-1.23,-0.23,32.7,5.6,7.6,0.0,1.5,0.25,0.25,0.25,0.25,0.5,0.0,0.0,1.5,1.5,0.25,2.25,-0.42,-0.48,-0.86,127.45,0.2,-34.8
5.58,0.0,0.5,0.0,0.5,0.0,0.25,0.25,0.0,0.0,0.25,0.5,0.25,0.0,-0.67,-1.05,-0.55,32.94,7.3,4.1,0.5,1.25,0.0,0.5,0.25,0.25,0.25,0.0,0.0,1.5,1.5,0.25,2.25,-0.42,-0.42,-0.86,126.75,-0.2,-32.4
5.6,0.0,0.5,0.0,0.5,0.0,0.25,0.25,0.0,0.0,0.25,0.0,0.25,0.25,-0.92,-0.92,-0.67,33.26,4.0,8.4,0.5,1.5,0.25,0.5,0.0,0.25,0.25,0.0,0.0,1.5,2.0,0.25,2.25,-0.42,-0.42,-0.8,128.29,-2.2,-31.1
5.62,0.0,0.5,0.0,0.5,0.5,0.25,0.25,0.0,0.0,0.0,0.0,0.25,0.0,-1.05,-0.86,-0.73,34.58,6.4,43.3,0.25,1.25,0.0,0.5,0.25,0.25,0.25,0.0,0.0,1.5,1.5,0.25,1.75,-0.42,-0.36,-0.67,124.27,0.0,-31.2
5.64,0.0,0.5,0.0,0.5,0.5,0.25,0.0,0.0,0.0,0.25,0.0,0.25,0.25,-0.92,-0.8,-0.73,36.9,1.1,17.5,0.5,1.75,0.0,0.5,0.25,0.25,0.25,0.0,0.0,1.25,1.5,0.0,2.25,-0.48,-0.3,-0.67,122.16,-1.1,-20.9
5.66,0.0,0.5,0.0,0.5,0.5,0.25,0.25,0.0,0.0,0.0,0.5,0.25,0.25,-0.73,-0.8,-0.86,41.65,5.3,10.6,0.25,1.0,0.25,0.0,0.25,0.0,0.25,0.0,0.0,1.25,2.0,0.25,2.5,-0.55,-0.23,-0.61,121.12,-0.2,-49.2
5.68,0.0,0.5,0.0,0.5,0.0,0.25,0.0,0.0,0.0,0.0,0.0,0.25,0.25,-0.55,-0.8,-0.92,38.72,4.9,18.9,0.25,1.25,0.0,0.5,0.25,0.25,0.25,0.0,0.0,1.5,1.75,0.25,2.25,-0.55,-0.17,-0.55,122.98,0.4,-37.3
5.7,0.0,0.5,0.0,0.5,0.5,0.25,0.5,0.0,0.0,0.0,0.75,0.25,0.25,-0.55,-0.67,-0.92,43.37,6.7,4.9,0.0,1.5,0.0,0.25,0.25,0.25,0.25,0.0,0.0,1.0,1.5,0.25,2.25,-0.61,-0.11,-0.55,118.47,1.0,-36.3
5.72,0.0,0.5,0.0,0.5,0.5,0.25,0.0,0.0,0.0,0.25,0.5,0.25,0.25,-0.61,-0.61,-0.92,45.43,2.6,3.0,0.0,1.5,0.0,0.5,0.25,0.0,0.25,0.0,0.0,1.5,1.5,0.25,2.25,-0.55,0.02,-0.61,118.06,0.7,-37.8
5.74,0.0,0.5,0.0,0.5,0.5,0.25,0.25,0.0,0.0,0.0,0.25,0.25,0.5,-0.48,-0.55,-0.86,49.43,3.3,7.2,0.25,1.5,0.0,0.5,0.0,0.25,0.25,0.0,0.0,1.25,1.5,0.25,2.25,-0.55,0.08,-0.67,116.39,-0.2,-33.8
5.76,0.0,0.5,0.0,0.5,0.5,0.25,0.25,0.0,0.0,0.0,0.0,0.25,0.25,-0.48,-0.48,-0.73,48.07,4.3,27.4,0.0,1.5,0.0,0.25,0.25,0.25,0.25,0.0,0.0,1.25,1.5,0.25,2.25,-0.61,0.14,-0.67,115.76,1.5,-37.6
5.78,0.0,0.5,0.0,0.5,0.5,0.25,0.25,0.0,0.0,0.25,0.75,0.25,0.25,-0.48,-0.48,-0.73,51.6,4.2,-1.6,0.25,1.25,0.0,0.5,0.25,0.25,0.25,0.0,0.0,1.25,1.5,0.25,2.0,-0.67,0.27,-0.61,113.59,-0.1,-32.4
5.8,0.0,0.5,0.0,0.5,0.5,0.25,0.0,0.0,0.0,0.0,0.0,0.25,0.25,-0.36,-0.48,-0.67,47.62,2.9,27.4,0.5,1.25,0.25,0.5,0.0,0.25,0.25,0.0,0.0,1.25,1.5,0.0,2.25,-0.67,0.27,-0.67,114.15,-1.8,-28.8
5.82,0.0,0.5,0.0,0.5,0.5,0.25,0.25,0.0,0.0,0.25,0.25,0.25,0.25,-0.3,-0.42,-0.61,48.06,3.1,10.4,0.0,1.25,0.0,0.5,0.0,0.25,0.25,0.0,0.0,1.5,1.75,0.25,2.0,-0.73,0.33,-0.73,114.05,0.9,-42.4
5.84,0.0,0.5,0.0,0.25,0.0,0.25,0.0,0.0,0.0,0.0,0.5,0.25,0.5,-0.23,-0.36,-0.61,43.31,2.6,-20.4,0.5,1.25,0.25,0.25,0.25,0.25,0.25,0.0,0.0,1.25,1.5,0.25,1.75,-0.92,0.39,-0.8,112.94,-2.3,-25.8
5.86,0.0,0.5,0.0,0.5,0.5,0.25,0.25,0.0,0.0,0.0,0.25,0.25,0.5,-0.3,-0.3,-0.73,44.34,3.3,7.2,0.25,1.0,0.5,0.5,0.0,0.25,0.25,0.0,0.0,1.25,1.5,0.25,2.25,-0.86,0.45,-1.05,114.93,-1.8,-36.3
5.88,0.0,0.25,0.0,0.5,0.5,0.25,0.0,0.0,0.0,0.25,0.25,0.25,0.25,-0.23,-0.3,-0.8,42.07,0.8,0.8,1.0,1.5,0.25,0.5,0.0,0.25,0.25,0.0,0.0,1.0,1.75,0.25,2.0,-0.86,0.64,-1.23,118.38,-5.3,-17.9
5.9,0.0,0.5,0.0,0.5,0.5,0.25,0.0,0.0,0.0,0.0,0.5,0.25,0.5,-0.23,-0.3,-0.8,45.08,2.7,0.0,0.5,1.5,0.25,0.5,0.0,0.25,0.25,0.0,0.0,1.25,0.75,0.25,2.75,-0.86,0.83,-1.55,120.11,-0.5,-28.1
5.92,0.0,0.5,0.0,0.5,0.0,0.25,0.0,0.0,0.0,0.0,0.0,0.25,0.25,-0.11,-0.23,-0.86,39.99,4.9,18.9,0.25,1.25,0.5,0.5,0.0,0.25,0.25,0.0,0.0,1.25,0.5,0.0,2.25,-0.73,0.83,-1.55,115.44,-0.7,-23.2
5.94,0.0,0.5,0.0,0.5,0.5,0.25,0.25,0.0,0.0,0.0,0.25,0.25,0.5,0.02,-0.17,-0.86,41.13,3.3,7.2,0.5,1.5,0.25,0.5,0.0,0.25,0.25,0.0,0.0,1.25,0.5,0.25,2.0,-0.67,0.7,-1.48,111.67,-1.7,-17.8
5.96,0.0,0.5,0.0,0.5,0.5,0.25,0.0,0.0,0.0,0.0,0.0,0.25,0.5,0.08,-0.11,-0.8,40.5,1.2,13.9,0.75,1.25,0.5,0.5,0.0,0.25,0.25,0.0,0.0,1.25,0.5,0.25,1.75,-0.55,0.58,-1.36,107.51,-4.3,-12.1
5.98,0.0,0.5,0.0,0.5,0.5,0.25,0.25,0.0,0.0,0.0,0.25,0.25,0.25,-0.05,-0.05,-0.67,42.8,4.9,18.3,0.75,1.0,0.25,0.5,0.25,0.25,0.25,0.0,0.0,1.5,0.75,0.25,2.25,-0.48,0.58,-1.36,109.04,-1.0,-25.9
6.0,0.0,0.5,0.0,0.5,0.5,0.25,0.0,0.0,0.0,0.0,0.25,0.25,0.0,-0.11,0.02,-0.55,41.65,5.5,31.9,0.75,1.5,0.25,0.5,0.25,0.25,0.25,0.0,0.0,1.0,1.0,0.25,2.25,-0.61,0.58,-1.3,113.35,-3.1,-16.5
6.02,0.0,0.25,0.0,0.25,0.5,0.25,0.25,0.0,0.0,0.0,0.5,0.25,0.0,-0.23,-0.05,-0.36,39.51,5.3,8.7,0.5,1.25,0.5,0.5,0.0,0.25,0.25,0.0,0.0,1.0,1.25,0.25,2.25,-0.73,0.45,-1.23,116.01,-3.4,-25.5
6.04,0.0,0.25,0.0,0.25,0.5,0.5,0.25,0.0,0.0,0.0,0.0,0.0,0.25,-0.42,-0.23,-0.48,36.39,-2.3,32.2,0.0,1.0,0.25,0.5,0.25,0.25,0.25,0.0,0.0,1.5,1.25,0.25,2.25,-0.67,0.08,-1.11,117.11,1.3,-40.2
6.06,0.0,0.5,0.0,0.5,0.5,0.25,0.25,0.0,0.0,0.0,0.5,0.25,0.5,-0.61,-0.23,-1.11,39.82,3.8,1.0,0.0,1.25,0.5,0.25,0.0,0.25,0.25,0.0,0.0,1.25,1.5,0.25,2.25,-0.73,-0.23,-0.86,116.66,-0.7,-39.0
6.08,0.0,0.5,0.0,0.5,0.5,0.25,0.25,0.0,0.0,0.0,0.5,0.25,0.25,-0.61,0.14,-1.23,43.43,5.3,10.6,0.75,1.5,0.5,0.25,0.0,0.25,0.25,0.0,0.0,1.25,1.5,0.25,2.25,-0.73,-0.42,-0.8,119.9,-3.8,-23.8
6.1,0.0,0.5,0.0,0.5,0.5,0.25,0.25,0.0,0.0,0.0,0.0,0.25,0.0,-0.23,0.45,-1.23,43.17,6.4,43.3,0.25,1.25,0.0,0.5,0.0,0.25,0.25,0.0,0.0,1.25,1.5,0.25,2.25,-0.67,-0.48,-0.8,118.83,0.2,-38.2
6.12,0.0,0.5,0.0,0.5,0.5,0.25,0.0,0.0,0.0,0.0,0.25,0.0,0.0,0.08,0.58,-1.11,41.23,5.1,48.7,0.0,1.25,0.0,0.5,0.0,0.25,0.25,0.0,0.0,1.25,1.5,0.25,2.25,-0.8,-0.42,-0.73,118.02,1.3,-42.5
6.14,0.0,0.5,0.0,0.5,0.0,0.25,0.25,0.0,0.0,0.25,0.5,0.25,1.0,0.2,0.7,-1.11,44.0,0.9,-30.2,0.25,1.5,0.0,0.25,0.0,0.25,0.25,0.0,0.0,1.5,2.25,0.0,2.25,-0.8,-0.3,-0.73,120.87,0.1,-39.2
6.16,0.0,0.75,0.0,0.75,0.5,0.0,0.0,0.0,0.0,0.0,0.5,0.25,0.25,0.02,0.7,-0.98,47.1,8.0,19.4,1.25,1.0,0.5,0.25,0.0,0.25,0.25,0.0,0.0,1.25,1.5,0.25,2.25,-0.8,-0.23,-0.61,123.63,-5.0,-24.6
6.18,0.0,0.5,0.0,0.25,0.5,0.25,0.0,0.0,0.0,0.0,0.75,0.25,0.25,0.08,0.64,-0.73,47.63,3.6,-1.8,0.0,1.25,0.0,0.5,0.0,0.25,0.25,0.0,0.0,1.0,1.25,0.25,2.25,-0.73,-0.23,-0.36,118.66,1.2,-40.2
6.2,0.0,0.5,0.0,0.5,0.0,0.25,0.25,0.0,0.0,0.0,0.0,0.0,0.25,0.08,0.52,-0.8,42.37,6.3,38.9,0.25,1.5,0.0,0.25,0.0,0.25,0.25,0.0,0.0,1.0,1.0,0.25,2.0,-0.67,-0.3,-0.17,111.09,0.0,-29.9
6.22,0.0,0.25,0.0,0.5,0.5,0.25,0.0,0.0,0.0,0.0,0.5,0.25,0.25,-0.11,0.58,-1.3,40.7,3.4,1.0,0.5,0.75,0.0,0.5,0.0,0.0,0.25,0.0,0.0,1.0,0.5,0.25,2.25,-0.61,-0.3,0.14,100.6,0.1,-40.1
6.24,0.0,0.5,0.0,0.5,0.0,0.25,0.0,0.0,0.0,0.0,0.5,0.0,0.0,0.2,0.77,-1.3,34.99,8.7,30.0,0.0,1.0,0.0,0.5,0.0,0.25,0.25,0.0,0.0,1.5,0.5,0.25,2.25,-0.55,-0.3,0.33,95.79,4.2,-44.5
6.26,0.0,0.5,0.0,0.25,0.5,0.25,0.0,0.0,0.0,0.0,0.5,0.25,0.25,0.2,0.77,-1.3,36.22,2.9,5.0,0.0,1.25,0.0,0.25,0.0,0.0,0.25,0.0,0.0,1.25,1.25,0.25,2.0,-0.48,-0.11,0.14,93.97,1.2,-45.5
6.28,0.0,0.5,0.0,0.75,0.5,0.25,0.0,0.0,0.0,0.0,0.0,0.25,0.75,0.02,0.58,-1.05,40.13,1.3,7.4,0.5,1.0,0.0,0.5,0.25,0.25,0.25,0.0,0.0,1.5,1.5,0.0,2.25,-0.55,0.02,0.08,101.24,0.4,-34.3
6.3,0.0,0.0,0.0,0.25,0.5,0.25,0.0,0.0,0.0,0.0,0.5,0.25,0.25,0.08,0.45,-0.8,38.6,0.5,-18.3,0.0,1.25,0.0,0.25,0.0,0.0,0.25,0.0,0.0,1.0,1.5,0.25,2.25,-0.73,0.14,0.64,102.75,0.7,-47.9
6.32,0.25,1.25,0.0,2.5,0.0,1.75,0.25,0.0,0.0,1.5,0.5,1.75,0.0,-0.17,0.45,-1.11,77.61,3.3,2.1,0.0,1.0,0.0,0.0,0.0,0.25,0.25,0.5,0.0,1.5,1.5,0.25,2.25,-0.67,0.14,0.89,108.37,4.6,-55.4
6.34,0.75,1.25,1.25,1.75,1.25,2.0,0.5,1.0,0.0,1.25,1.5,1.75,1.5,-0.23,0.45,-1.3,139.88,3.5,-4.7,0.0,1.25,0.0,0.25,0.0,0.25,0.25,0.5,0.0,1.25,1.75,0.25,2.25,-0.55,0.27,0.64,113.34,2.5,-46.6
6.36,0.0,0.5,1.0,0.25,0.75,0.25,0.0,0.0,0.0,0.0,0.5,0.25,0.25,-0.3,0.39,-1.17,140.51,11.8,23.4,0.0,1.5,0.0,0.25,0.0,0.0,0.25,0.5,0.0,1.5,1.5,0.25,2.25,-0.67,0.39,0.7,118.04,2.2,-44.3
6.38,0.0,0.5,0.0,0.25,0.0,0.25,0.0,0.0,0.0,0.0,0.0,0.25,0.0,-0.23,0.33,-1.11,114.2,6.1,37.1,0.5,1.5,0.0,0.25,0.0,0.0,0.25,0.5,0.0,1.25,1.5,0.25,2.25,-0.61,0.45,1.02,120.68,-0.2,-35.2
6.4,0.5,0.5,0.0,0.25,0.5,0.25,0.0,0.0,0.0,0.0,0.5,0.25,0.25,-0.23,0.27,-0.92,82.46,7.8,19.2,0.0,1.0,0.0,0.25,0.0,0.25,0.25,0.25,0.0,1.25,1.75,0.25,1.75,-0.42,0.39,1.27,118.66,1.7,-47.6
6.42,0.0,0.5,0.0,0.25,0.5,0.25,0.0,0.0,0.0,0.0,0.0,0.25,0.25,-0.42,0.39,-1.05,55.35,1.1,23.6,0.5,0.75,0.0,0.5,0.0,0.25,0.25,0.5,0.0,1.5,1.75,0.25,1.5,-0.67,0.45,1.2,118.59,-0.1,-38.6
6.44,0.0,0.5,0.0,0.25,0.5,0.25,0.0,0.0,0.0,0.0,0.5,0.25,0.25,-0.36,0.39,-0.98,41.8,2.9,5.0,0.0,0.5,0.0,0.25,0.25,0.25,0.25,0.25,0.0,1.25,1.75,0.25,2.25,-0.92,0.52,1.27,116.73,3.6,-58.5
6.46,0.25,0.5,0.0,0.25,0.5,0.25,0.0,0.0,0.0,0.0,0.5,0.0,0.0,-0.05,0.27,-0.86,39.13,7.3,39.6,0.25,0.0,0.0,0.25,0.0,0.25,0.25,0.0,0.0,1.25,1.5,0.25,2.25,-0.8,0.2,1.52,112.09,3.6,-71.3
6.48,0.0,0.5,0.0,0.25,0.5,0.25,0.0,0.0,0.0,0.0,0.5,0.0,0.25,0.27,0.39,-0.67,37.81,2.3,17.3,0.5,0.0,0.0,0.0,0.0,0.25,0.25,0.0,0.0,1.25,1.75,0.25,2.25,-0.8,0.02,1.64,107.92,2.5,-70.6
6.5,0.0,0.25,0.0,0.25,0.0,0.5,0.0,0.0,0.0,0.0,0.5,0.25,0.0,0.52,0.45,-0.67,26.99,2.5,-4.0,0.0,0.0,0.0,0.0,0.0,0.0,0.0,0.75,0.25,1.5,2.0,0.25,2.25,-0.92,0.08,1.52,109.56,5.9,-82.8
6.52,0.25,0.5,0.0,0.25,0.0,0.25,0.0,0.0,0.0,0.0,0.5,0.25,0.0,0.39,0.45,-1.05,21.46,10.7,16.8,0.5,0.5,0.0,0.0,0.0,0.25,0.25,0.0,0.0,1.5,1.75,0.25,2.25,-0.05,0.52,1.45,110.1,1.8,-58.4
6.54,0.0,0.25,0.0,0.5,0.5,0.25,0.0,0.0,0.0,0.0,0.5,0.25,0.25,0.02,0.39,-0.98,20.24,3.4,1.0,0.0,0.75,0.0,0.0,0.0,0.25,0.25,0.0,0.0,1.5,1.75,0.25,1.75,0.52,0.7,1.33,108.32,3.0,-59.3
6.56,0.0,0.5,0.0,0.25,0.0,0.5,0.0,0.0,0.0,0.0,0.5,0.25,0.25,-0.3,0.27,-0.92,16.92,1.8,-4.3,0.0,0.0,0.0,0.25,0.0,0.0,0.25,0.0,0.0,1.5,1.75,0.25,1.75,0.64,0.64,1.33,102.53,3.4,-79.6
6.58,0.0,0.5,0.0,0.25,0.5,0.25,0.0,0.0,0.0,0.0,0.5,0.25,0.0,-0.61,0.14,-1.11,23.3,4.7,17.8,0.0,0.75,0.0,0.0,0.0,0.25,0.25,0.0,0.0,1.5,1.75,0.25,1.75,0.52,0.58,1.45,99.73,3.0,-59.3
6.6,0.0,0.5,0.0,0.25,0.0,1.0,0.0,0.0,0.0,0.0,0.5,0.25,0.75,-0.61,0.14,-1.05,40.47,-4.2,-15.5,0.0,0.75,0.0,0.0,0.0,0.25,0.0,0.0,0.0,1.5,1.75,0.25,1.75,0.39,0.45,1.45,97.78,3.7,-61.0
6.62,0.0,0.75,0.0,0.75,0.0,1.0,0.0,0.0,0.0,0.0,0.5,0.25,0.25,-0.3,0.33,-0.92,48.88,1.5,17.7,0.0,0.75,0.0,0.0,0.0,0.25,0.25,0.5,0.0,1.5,2.0,0.0,2.25,0.45,0.45,1.45,104.13,4.6,-60.3
6.64,0.0,0.5,0.0,0.5,0.75,1.25,0.0,0.0,0.0,0.0,0.75,0.25,0.25,-0.05,0.52,-1.05,57.88,-1.8,13.3,0.0,0.75,0.0,0.25,0.5,0.25,0.25,0.0,0.0,1.5,1.75,0.25,2.25,0.2,0.64,1.27,111.24,3.1,-50.3
6.66,0.0,0.5,0.0,0.25,0.5,0.5,0.0,0.0,0.0,0.0,0.5,0.25,0.5,0.14,0.64,-1.05,59.59,-0.4,-2.3,0.0,0.75,0.0,0.25,1.5,0.25,0.0,0.0,0.0,1.5,2.25,0.25,2.25,0.02,0.58,1.2,123.22,2.8,-39.6
6.68,0.0,0.5,0.0,0.5,0.5,0.75,0.0,0.0,0.0,0.0,0.75,0.25,0.0,0.14,0.58,-0.98,60.26,2.2,16.4,0.0,0.75,0.0,0.0,0.0,0.5,0.0,1.0,0.25,1.5,2.0,0.25,1.25,0.02,0.39,1.27,124.77,4.4,-51.4
6.7,0.0,0.5,0.0,0.25,0.75,0.75,0.0,0.0,0.0,0.0,0.5,0.0,0.25,-0.05,0.45,-0.98,57.42,-2.0,23.2,0.5,1.0,0.0,0.25,0.0,0.25,0.0,0.25,0.0,1.5,1.75,0.25,2.0,-0.11,0.33,1.2,125.71,0.9,-43.0
6.72,0.0,0.5,0.0,0.5,0.5,0.5,0.0,0.0,0.0,0.0,0.5,0.0,0.25,-0.3,0.33,-0.98,54.63,1.5,22.4,0.25,1.0,0.0,0.25,0.0,0.25,0.25,1.0,0.0,1.5,2.0,0.25,1.75,-0.17,0.39,0.89,125.64,2.1,-44.4
