time,left pressure 0[N/cm虏],left pressure 1[N/cm虏],left pressure 2[N/cm虏],left pressure 3[N/cm虏],left pressure 4[N/cm虏],left pressure 5[N/cm虏],left pressure 6[N/cm虏],left pressure 7[N/cm虏],left pressure 8[N/cm虏],left pressure 9[N/cm虏],left pressure 10[N/cm虏],left pressure 11[N/cm虏],left pressure 12[N/cm虏],left acceleration X[g],left acceleration Y[g],left acceleration Z[g],left total force[N],left center of pressure X[mm],left center of pressure Y[mm],right pressure 0[N/cm虏],right pressure 1[N/cm虏],right pressure 2[N/cm虏],right pressure 3[N/cm虏],right pressure 4[N/cm虏],right pressure 5[N/cm虏],right pressure 6[N/cm虏],right pressure 7[N/cm虏],right pressure 8[N/cm虏],right pressure 9[N/cm虏],right pressure 10[N/cm虏],right pressure 11[N/cm虏],right pressure 12[N/cm虏],right acceleration X[g],right acceleration Y[g],right acceleration Z[g],right total force[N],right center of pressure X[mm],right center of pressure Y[mm]
0.02,5.5,1.75,4.75,5.25,7.0,7.5,7.25,6.75,6.5,4.75,5.25,3.5,3.75,-0.11,-0.11,0.95,1054.79,4.9,0.1,2.5,1.5,0.0,1.5,3.25,2.25,0.75,3.75,1.5,7.75,6.5,6.5,8.75,0.14,0.02,0.95,688.77,1.8,-47.5
0.04,5.75,1.75,5.75,6.75,7.75,8.5,7.5,6.75,6.0,4.75,4.0,3.25,3.75,-0.11,-0.11,1.02,1112.82,5.2,5.8,2.25,1.5,0.0,1.75,1.25,3.75,0.5,4.0,1.5,8.75,6.75,7.5,8.25,0.14,0.02,0.95,773.64,2.5,-51.6
0.06,6.25,2.25,6.25,7.0,9.25,8.5,8.0,6.75,5.5,3.75,3.25,2.5,3.75,-0.11,-0.05,1.02,1163.5,5.8,12.5,2.0,1.5,0.0,2.0,5.0,4.25,1.25,4.75,2.25,8.75,7.25,7.5,9.0,0.14,0.02,0.95,865.28,2.6,-42.9
0.08,7.25,3.25,6.5,8.75,10.5,9.25,8.25,6.75,5.25,3.5,3.0,2.0,3.0,-0.11,-0.11,1.08,1246.36,6.5,20.0,2.25,1.25,0.0,1.75,5.0,4.25,1.25,5.5,2.25,8.75,7.25,6.5,8.75,0.14,0.02,0.95,917.45,2.9,-41.9
0.1,8.25,3.5,7.75,8.75,11.5,9.25,8.75,6.5,5.0,2.75,1.75,2.0,2.75,-0.17,-0.11,1.08,1318.23,7.6,25.8,2.25,1.5,1.5,0.5,5.0,3.75,1.25,5.5,2.0,8.25,7.25,6.5,9.0,0.14,0.02,0.95,936.85,2.0,-41.4
0.12,9.75,2.75,7.75,11.0,13.0,9.25,8.5,6.0,4.5,2.75,1.75,2.0,1.75,-0.17,0.02,1.02,1383.61,8.4,30.5,2.5,1.75,0.0,1.75,5.0,5.25,1.75,5.75,2.5,8.75,7.25,7.25,8.5,0.14,0.02,0.95,953.33,2.6,-39.0
0.14,11.0,3.0,8.75,10.5,13.0,8.5,8.0,6.0,3.75,2.75,3.0,1.75,1.75,-0.23,0.08,1.27,1433.67,9.4,31.4,2.25,1.5,0.0,2.25,5.0,5.75,1.5,5.5,2.25,8.75,7.25,7.25,8.75,0.14,0.02,0.95,967.16,2.9,-39.2
0.16,12.0,3.5,8.75,9.25,12.5,7.5,7.0,5.25,2.75,2.5,2.5,1.75,1.0,-0.23,0.08,1.45,1437.67,10.5,36.2,2.25,0.75,0.0,2.75,5.0,5.75,1.75,5.75,2.75,8.5,7.0,6.5,8.25,0.14,0.02,0.89,950.23,2.9,-38.1
0.18,12.0,3.5,8.75,8.5,9.25,6.75,5.5,5.0,2.5,2.5,2.5,1.75,1.75,-0.23,0.2,1.83,1385.79,11.1,34.1,3.0,1.5,0.5,3.0,5.25,5.75,1.75,0.0,3.0,8.25,6.75,6.5,8.0,0.14,0.02,0.95,903.22,0.0,-31.6
0.2,12.0,3.5,8.25,6.25,8.25,5.25,5.0,3.5,2.0,2.0,2.0,1.75,1.75,-0.55,0.33,1.77,1264.16,12.6,36.8,2.0,1.5,0.75,3.25,5.25,6.25,2.25,0.0,3.5,7.75,6.5,6.0,7.75,0.14,0.02,0.95,850.14,0.2,-30.5
0.22,10.0,1.75,6.25,4.0,6.75,3.5,5.0,3.25,1.25,1.0,1.75,0.25,1.75,-0.48,0.45,2.08,1010.45,13.1,38.6,2.5,1.75,1.75,3.25,5.5,6.25,2.25,0.0,3.5,7.75,5.75,5.25,7.0,0.14,0.02,0.95,793.57,-0.7,-23.4
0.24,7.25,0.25,4.75,1.5,2.25,1.5,3.5,0.25,1.0,0.0,0.5,0.25,1.0,-0.55,0.27,1.83,657.07,21.1,48.9,3.0,1.75,2.75,3.5,6.75,6.75,2.75,5.0,4.0,6.75,5.75,4.0,6.25,0.14,0.02,0.95,798.66,-0.4,-15.6
0.26,4.25,0.0,2.5,0.0,0.75,0.0,2.0,0.25,0.25,0.0,0.5,0.0,0.25,-0.55,0.08,1.7,344.95,27.7,55.6,4.0,2.0,2.75,4.0,6.75,7.25,2.75,6.0,4.0,6.5,5.25,3.75,5.5,0.14,0.02,0.95,836.97,-0.8,-10.3
0.28,2.25,0.0,1.0,0.0,0.75,1.0,1.5,0.0,0.5,0.0,0.0,0.0,0.0,-0.17,-0.3,1.45,149.02,19.1,56.5,4.75,2.0,2.75,5.0,8.0,7.5,3.5,6.0,4.0,6.0,4.75,2.5,4.0,0.14,0.02,0.95,887.15,-1.8,-0.2
0.3,0.75,0.0,1.0,0.0,0.5,1.0,1.5,0.0,0.5,0.0,0.0,0.0,0.5,-1.05,-1.42,2.58,0.0,12.5,27.8,6.0,2.5,3.5,5.5,8.25,7.75,3.5,6.0,4.0,5.25,4.75,2.5,4.0,0.14,0.02,0.95,941.16,-3.2,4.9
0.32,1.0,0.0,2.25,0.0,0.0,0.0,1.5,0.0,0.25,0.0,0.0,0.0,0.5,-0.98,-1.17,1.2,0.0,29.7,39.3,6.5,2.5,5.25,7.0,9.5,7.75,4.0,5.5,3.5,5.0,3.75,1.75,3.0,0.14,0.02,0.95,1005.88,-4.9,15.0
0.34,0.75,0.25,1.5,1.5,0.0,1.5,1.75,0.0,0.25,0.0,0.0,0.25,0.5,-0.48,-0.8,0.39,0.0,14.5,35.0,7.75,3.0,5.25,8.5,9.75,8.0,4.25,5.5,3.5,5.0,3.75,1.75,2.5,0.14,0.08,0.95,1081.9,-5.9,19.3
0.36,2.25,0.5,1.0,1.75,0.0,1.0,1.75,0.0,1.0,1.25,0.5,1.5,1.75,-0.23,-0.8,0.45,0.0,10.7,-3.7,8.25,3.25,6.5,9.0,11.0,8.25,4.5,5.5,3.25,5.0,3.25,1.25,2.25,0.14,0.02,1.14,1168.26,-6.5,24.2
0.38,2.25,0.5,1.0,1.75,1.25,1.5,2.75,1.25,1.0,0.5,1.25,1.25,1.75,-0.17,-0.8,0.7,0.0,8.3,2.2,9.25,3.75,6.75,10.5,12.5,8.25,4.25,5.5,2.75,5.0,3.0,1.25,2.25,0.14,0.08,1.08,1281.05,-6.9,27.9
0.4,1.75,0.5,1.0,2.25,1.75,0.0,2.5,1.25,0.75,0.75,1.25,1.5,1.5,-0.17,-0.73,1.02,58.25,9.9,-0.4,10.0,3.75,7.0,11.0,12.5,8.0,4.0,4.75,2.75,4.75,3.0,1.25,2.25,0.14,0.08,1.08,1349.89,-7.7,29.9
0.42,1.75,0.25,1.25,2.0,1.25,0.0,2.5,1.25,0.75,0.5,0.75,1.25,1.5,-0.23,-0.55,1.14,110.95,11.3,1.4,11.0,4.25,7.75,11.5,12.5,8.25,3.5,0.0,2.25,4.0,2.75,1.25,2.25,0.14,0.14,1.14,1375.97,-10.2,38.4
0.44,1.5,0.25,2.25,1.75,1.25,0.75,2.5,1.0,0.25,0.0,1.25,0.25,1.5,-0.17,-0.3,1.08,149.0,12.7,15.4,10.0,3.75,7.75,11.0,12.5,6.75,2.75,4.5,1.25,2.75,2.5,1.25,1.75,0.27,0.14,1.2,1359.63,-9.2,36.7
0.46,0.25,0.0,0.25,0.25,0.5,0.25,1.5,0.0,0.25,0.0,0.25,0.0,0.0,-0.17,-0.11,1.2,128.92,15.9,30.5,11.0,2.5,7.25,9.0,11.0,5.75,2.5,3.25,1.5,1.25,1.5,0.0,1.25,0.27,0.27,1.45,1253.3,-11.3,45.5
0.48,0.5,0.25,0.0,0.25,0.0,0.0,1.5,0.75,0.25,0.0,0.75,0.25,1.5,-0.23,0.02,1.39,116.55,5.1,-35.3,11.0,3.25,7.75,9.25,5.25,4.75,1.75,2.5,1.25,1.5,1.75,0.25,0.5,0.27,0.33,1.52,1071.22,-14.7,47.9
0.5,1.25,0.5,0.0,1.75,0.0,0.0,1.5,0.0,0.5,0.75,0.5,0.75,0.5,-0.36,0.14,1.64,103.27,14.0,5.6,10.5,3.0,7.75,7.25,8.25,3.75,2.25,0.0,1.0,1.25,2.5,0.0,1.25,0.33,0.39,1.52,913.27,-15.2,49.3
0.52,0.5,0.25,2.25,1.5,0.0,1.0,1.25,0.0,0.5,0.5,0.25,0.5,0.0,-0.48,0.33,1.89,105.89,17.5,28.1,9.75,2.25,6.75,7.25,7.0,3.75,2.25,0.0,1.0,2.0,0.25,1.0,0.5,0.7,0.58,2.08,770.07,-15.1,50.5
0.54,0.75,0.25,0.25,1.75,0.0,1.5,1.75,1.25,0.5,1.25,1.0,0.25,1.5,-0.55,0.45,2.14,122.1,1.8,-13.0,9.0,2.5,5.75,5.5,5.25,3.75,2.0,0.0,1.0,2.25,1.5,0.5,1.0,0.7,0.52,2.27,645.6,-14.3,44.5
0.56,0.75,0.25,0.0,1.5,0.0,1.0,2.25,0.0,0.5,1.0,0.25,0.25,0.25,-0.8,0.89,2.39,119.59,8.7,11.5,6.25,0.5,2.75,2.0,5.0,1.5,1.25,0.25,1.0,1.0,1.0,0.0,0.5,0.64,0.39,2.2,457.35,-13.9,45.5
0.58,1.0,0.25,1.0,1.5,1.25,1.5,1.5,1.25,0.5,0.5,0.0,0.0,0.25,-0.98,1.7,2.39,126.57,6.2,28.6,2.0,0.25,0.0,1.25,1.75,1.25,0.75,0.25,1.0,0.75,0.25,0.0,0.5,0.52,-0.3,2.02,274.46,-6.2,27.0
0.6,1.0,0.0,0.0,0.0,0.0,0.0,0.0,0.0,0.0,0.0,0.0,1.75,0.0,-0.86,2.52,1.89,87.75,18.0,-37.3,0.75,0.0,0.0,0.75,1.25,1.25,0.75,0.25,0.75,1.0,1.0,0.25,0.0,0.02,-0.23,2.27,123.22,-2.5,3.5
0.62,0.0,0.0,2.25,0.0,1.25,0.0,1.5,1.25,0.0,0.0,0.5,0.0,0.0,-0.67,3.7,1.08,81.88,14.7,24.6,0.5,0.25,0.0,0.75,1.25,1.25,0.5,0.25,0.5,0.75,0.75,0.25,0.0,1.02,-1.17,1.89,0.0,-1.3,10.7
0.64,3.0,0.0,0.0,1.75,0.0,0.75,5.5,2.5,0.25,0.25,1.75,0.25,1.75,0.2,4.7,-0.48,117.78,10.3,-0.1,0.0,0.0,0.0,0.75,1.25,1.25,0.5,0.25,0.75,0.75,0.5,0.25,0.0,0.95,-0.98,0.95,0.0,1.6,1.7
0.66,0.75,0.25,2.25,1.75,1.25,1.0,1.5,1.25,0.5,0.0,1.5,1.75,1.5,3.08,6.83,-1.3,163.25,9.5,-4.5,0.25,0.0,0.0,0.5,1.25,1.25,0.5,0.25,1.0,1.0,0.25,0.25,0.0,0.2,-0.67,0.58,0.0,1.5,1.3
0.68,0.75,0.25,2.25,1.5,1.75,2.5,1.5,1.5,0.75,1.25,1.75,3.0,2.25,-0.98,-0.48,2.2,221.53,4.0,-17.4,0.75,0.0,0.0,0.75,1.25,1.0,0.5,0.25,0.75,0.5,0.25,0.25,0.25,-0.17,-0.42,0.39,0.0,-2.7,12.6
0.7,0.75,0.25,2.25,1.75,0.75,2.75,1.5,1.5,1.0,2.5,2.0,5.0,4.75,0.52,0.33,0.33,283.88,2.0,-39.0,0.0,0.0,0.0,0.5,1.25,1.25,0.5,0.25,1.0,0.5,0.25,0.25,0.0,-0.17,-0.23,0.33,0.0,1.8,4.1
0.72,1.0,0.25,2.0,0.0,0.0,2.75,1.5,2.25,1.25,1.5,3.0,5.75,6.0,0.14,0.08,1.83,335.09,1.1,-54.0,1.0,0.0,0.0,0.5,1.25,1.25,0.5,0.0,0.25,0.5,0.25,0.0,0.0,-0.17,-0.23,0.7,0.0,-2.9,33.9
0.74,0.5,0.0,2.25,0.0,0.5,2.75,1.5,3.5,1.25,2.75,3.0,6.5,6.5,-0.05,0.2,1.58,390.56,-0.7,-57.2,0.5,0.0,0.0,0.5,1.25,1.25,0.5,0.25,0.25,0.5,0.5,0.25,0.0,-0.05,-0.3,0.83,0.0,0.0,14.2
0.76,1.0,0.25,0.0,2.5,1.25,3.0,1.5,4.25,1.5,0.0,3.5,7.5,7.75,-0.23,0.39,1.39,452.99,-0.7,-51.3,0.5,0.0,0.0,0.5,1.25,1.25,0.5,0.0,0.5,0.5,0.25,0.25,0.0,0.02,-0.23,0.95,6.85,-0.8,18.3
0.78,2.0,0.0,2.25,2.5,1.25,3.5,0.5,5.0,2.0,5.5,2.75,8.0,8.0,-0.11,-0.05,1.02,556.01,-0.7,-46.2,0.5,0.0,0.0,0.5,1.25,1.25,0.5,0.0,0.75,0.5,0.5,0.25,0.5,-0.05,-0.11,1.02,39.21,-0.4,2.1
0.8,0.75,0.25,2.25,3.0,0.5,5.0,1.0,5.5,2.0,6.25,3.25,8.25,8.75,-0.11,0.02,1.02,661.55,-2.3,-49.0,0.5,0.0,0.0,0.5,1.25,1.25,0.5,0.0,0.5,0.5,0.25,0.0,0.25,-0.05,0.02,1.2,67.72,0.2,18.1
0.82,1.75,0.0,2.5,3.0,1.75,5.0,1.75,5.25,2.75,7.5,4.0,8.25,9.0,-0.17,-0.05,0.95,777.89,-1.2,-44.3,0.5,0.0,0.0,0.5,1.25,1.25,0.5,0.0,0.5,0.5,0.25,0.0,0.25,0.02,0.14,1.45,82.55,0.2,18.1
0.84,2.25,0.5,2.75,3.25,1.75,5.0,1.75,6.0,2.75,7.75,4.0,8.25,8.75,-0.11,-0.05,0.95,870.49,-0.7,-40.5,0.0,0.0,0.0,0.5,1.25,1.25,0.5,0.0,0.5,0.5,0.5,0.0,0.5,0.08,0.27,1.95,82.89,3.4,0.8
0.86,2.5,0.75,2.5,3.25,3.5,5.25,3.0,6.25,2.75,7.5,4.0,8.25,9.0,-0.11,-0.05,0.95,936.27,-0.5,-35.5,1.5,0.25,0.0,0.5,1.25,1.0,0.25,0.0,0.5,0.5,0.25,0.0,0.5,0.14,0.52,2.39,89.64,-5.0,27.0
0.88,2.5,1.0,3.0,3.0,3.5,5.5,3.5,6.5,3.0,7.5,4.0,7.5,8.75,-0.17,-0.05,0.95,966.11,-0.2,-32.7,0.75,0.0,0.0,0.5,1.25,1.25,0.25,0.0,0.25,0.5,0.25,0.0,0.5,0.2,1.2,2.64,89.81,0.6,17.8
0.9,2.5,1.25,3.75,3.25,4.25,5.75,3.75,6.5,3.25,7.5,4.0,7.5,8.0,-0.17,-0.05,0.95,990.74,0.4,-27.9,1.25,0.0,0.0,0.5,1.25,1.25,0.25,0.0,0.25,0.5,0.25,0.0,0.75,0.02,2.39,2.89,94.28,-1.4,18.5
0.92,2.25,1.25,3.25,3.25,4.25,5.75,4.25,6.5,3.25,6.5,3.0,6.75,7.75,-0.17,-0.05,0.95,967.07,0.2,-25.9,0.75,0.0,0.0,0.5,1.25,1.0,0.25,0.0,0.5,0.5,0.25,0.0,0.5,-0.05,3.7,2.02,92.46,-0.8,14.6
0.94,2.5,1.0,3.75,3.25,4.25,6.25,4.25,6.5,3.25,5.75,3.5,6.75,7.5,-0.11,-0.05,0.95,942.08,0.8,-24.1,0.5,0.0,0.0,0.25,1.25,0.5,0.25,0.0,0.25,0.5,0.25,0.0,0.5,-0.11,5.45,-0.42,85.07,0.0,8.3
0.96,2.5,0.5,2.75,3.25,4.75,6.5,4.5,6.5,3.5,6.25,3.25,6.0,7.0,-0.11,-0.05,0.95,904.13,-0.1,-24.0,0.0,0.0,0.0,0.5,1.25,1.0,0.5,0.0,0.25,1.75,0.25,0.25,0.5,-2.48,6.2,2.27,84.5,5.8,-15.8
0.98,2.5,0.5,3.75,3.25,5.5,6.75,4.75,6.5,3.5,6.25,4.0,5.75,6.75,-0.11,-0.05,0.95,890.06,0.5,-20.8,1.75,1.25,0.0,0.75,1.25,1.25,0.75,1.75,1.0,3.5,2.25,2.0,2.25,1.27,-1.42,-0.36,148.19,-0.2,-28.1
1.0,2.5,0.25,3.75,3.25,5.75,6.75,4.75,6.5,3.75,5.75,4.0,5.25,6.0,-0.11,-0.05,0.95,868.5,0.8,-18.6,1.25,1.0,0.0,1.25,2.75,0.5,0.5,0.0,1.0,4.5,2.5,2.75,3.25,-0.42,0.2,0.08,213.97,-0.4,-34.7
1.02,2.5,0.5,3.75,3.25,5.75,7.0,4.75,6.75,3.75,5.0,3.25,5.0,6.0,-0.11,-0.05,0.95,847.78,0.7,-16.0,1.0,0.0,0.0,0.0,2.75,0.75,0.5,0.0,0.75,5.0,3.5,4.0,4.75,-0.67,0.08,1.83,278.36,2.2,-58.2
1.04,2.5,1.25,3.75,3.25,5.75,7.5,5.0,6.75,4.0,5.0,4.0,3.5,5.25,-0.11,-0.05,0.95,833.68,0.9,-10.9,1.5,0.0,0.0,0.0,1.0,2.75,0.0,0.0,2.0,6.75,4.75,5.75,5.5,-0.55,0.89,1.08,355.38,2.4,-63.5
1.06,3.5,1.75,4.25,3.25,6.5,7.5,5.25,6.75,4.5,5.0,3.75,3.25,4.5,-0.11,-0.05,0.95,842.29,2.1,-4.7,2.25,1.75,0.25,2.75,2.25,4.5,2.0,4.5,3.25,8.25,7.75,7.0,7.75,-0.11,0.14,1.08,544.05,0.9,-42.2
1.08,4.25,1.75,4.75,5.25,7.5,8.5,5.5,6.75,4.5,4.75,3.0,2.75,3.75,-0.11,-0.05,0.95,884.73,3.0,4.2,2.5,1.5,2.5,3.0,5.0,5.0,2.25,4.5,3.25,8.25,7.5,7.0,8.0,0.08,0.02,1.02,753.1,-0.3,-32.1
1.1,5.0,1.75,4.75,5.5,7.75,8.5,6.0,6.75,4.5,4.75,3.0,2.0,3.75,-0.11,-0.05,0.95,935.12,3.4,7.2,2.75,1.25,2.5,3.0,5.0,4.5,2.25,4.75,3.5,8.5,7.5,7.25,8.25,0.2,0.02,0.95,946.5,-0.5,-33.6
1.12,5.75,1.75,4.75,7.0,9.25,9.25,6.75,6.75,4.5,4.5,3.0,2.0,3.75,-0.11,-0.05,0.95,1019.06,3.9,11.2,2.75,1.5,2.5,2.75,5.0,4.75,2.25,5.0,3.5,8.5,7.75,7.25,8.25,0.08,0.02,0.95,1070.35,-0.3,-33.4
1.14,6.25,2.25,5.0,7.0,10.5,9.75,7.0,6.75,4.5,3.5,2.75,2.0,2.75,-0.17,-0.05,1.02,1095.61,4.5,17.2,2.75,1.5,2.5,3.0,5.0,5.0,2.25,5.25,3.5,8.5,7.75,7.25,8.25,0.14,0.02,0.95,1131.71,-0.3,-32.7
1.16,7.25,3.25,6.25,8.5,11.5,10.0,7.25,6.75,4.25,3.0,2.5,2.0,2.25,-0.17,-0.05,1.02,1203.17,5.9,23.8,2.5,1.75,2.5,3.0,5.0,5.5,2.25,5.5,4.0,8.25,7.75,7.25,8.25,0.14,0.02,0.95,1149.94,-0.1,-32.1
1.18,8.0,3.5,6.25,8.75,13.0,10.0,7.75,6.75,3.75,2.75,3.0,2.0,2.25,-0.11,-0.05,1.02,1303.48,6.2,25.7,2.25,1.5,2.75,3.0,5.0,5.75,2.25,5.5,4.0,8.0,7.75,6.5,8.25,0.14,0.02,0.95,1141.34,0.0,-31.4
1.2,9.75,3.5,6.25,11.0,14.0,10.5,7.0,6.75,3.25,2.75,2.0,1.75,2.0,-0.11,0.02,1.02,1386.79,6.7,31.1,2.75,1.75,2.75,3.0,5.0,5.75,2.25,5.5,4.0,7.75,7.25,6.0,7.75,0.14,0.02,0.95,1106.63,-0.3,-28.0
1.22,11.0,3.5,6.75,11.5,14.5,11.0,7.0,6.75,2.75,2.75,2.0,1.75,1.75,-0.11,0.08,1.2,1458.43,7.1,33.5,3.25,1.75,2.75,3.0,5.0,5.75,2.5,5.25,4.0,6.75,6.75,5.75,6.75,0.14,0.02,0.95,1040.07,-1.1,-23.8
1.24,13.0,4.5,7.75,11.0,15.0,10.5,6.25,6.5,2.25,2.5,2.0,1.75,1.75,-0.3,0.14,1.27,1526.76,8.2,37.1,3.75,1.75,2.75,3.25,5.25,5.75,2.75,5.25,4.0,6.75,6.25,5.25,6.0,0.14,0.02,0.95,983.44,-1.5,-19.6
1.26,14.5,4.0,7.75,11.0,14.5,9.75,5.5,6.0,2.0,2.25,1.75,1.75,1.75,-0.3,0.2,1.58,1556.71,9.1,39.0,4.25,2.0,2.75,3.25,5.75,5.75,3.25,4.75,4.25,6.0,5.75,4.0,5.5,0.14,0.02,0.95,921.72,-2.3,-13.0
1.28,14.5,5.0,7.75,8.75,12.0,8.5,4.75,5.5,1.5,2.5,1.75,1.75,1.75,-0.73,0.2,1.7,1524.5,9.9,39.5,5.5,2.0,4.75,3.25,6.75,6.25,3.5,4.5,4.25,5.25,5.25,3.0,4.25,0.08,0.02,0.95,885.43,-4.5,-1.0
1.3,13.0,4.75,7.5,6.25,9.25,7.5,4.25,5.0,1.25,2.5,1.75,1.75,1.75,-0.8,0.52,2.45,1415.18,10.2,37.5,6.0,2.0,5.25,5.5,6.75,6.25,4.0,4.5,4.25,5.25,4.75,2.5,3.5,0.14,0.02,0.95,875.8,-5.8,5.7
1.32,11.0,3.5,5.5,4.5,7.75,5.75,3.75,3.25,1.25,0.75,1.75,0.25,1.75,-0.98,0.33,2.52,1181.78,11.1,42.7,7.25,2.5,6.5,5.5,7.0,6.25,4.5,4.25,4.0,5.0,4.75,2.5,3.0,0.14,0.02,0.95,915.2,-7.5,11.4
1.34,6.25,0.0,2.0,1.75,1.75,3.0,1.0,1.5,0.25,0.0,0.5,0.25,0.5,-0.98,0.27,2.2,725.79,13.1,46.1,8.0,2.5,6.75,7.25,7.75,6.25,4.75,3.5,3.75,4.75,4.0,2.0,2.25,0.08,0.02,0.95,962.6,-8.7,19.2
1.36,2.25,0.0,0.5,1.0,0.0,0.0,0.5,1.0,0.25,0.0,0.0,0.0,0.0,-0.61,-0.55,1.83,338.98,20.4,49.7,8.75,2.75,7.75,7.75,8.25,6.25,5.25,3.25,3.5,3.75,3.75,1.25,2.25,0.08,0.08,0.95,1011.85,-10.0,25.6
1.38,1.75,0.0,0.0,1.75,0.5,2.5,0.5,0.0,1.0,1.25,0.5,0.25,0.0,-0.23,-0.86,2.7,135.25,4.2,19.5,9.25,3.0,8.75,9.0,8.25,6.25,5.5,3.25,3.5,3.75,3.5,1.25,2.25,0.08,0.02,1.02,1070.77,-10.8,28.0
1.4,2.0,0.25,3.0,1.75,1.75,1.75,1.5,1.25,1.0,1.0,1.25,0.25,1.5,-1.11,-1.3,2.64,32.58,9.4,13.3,10.0,3.25,8.75,10.5,8.75,6.0,6.0,3.25,3.25,4.0,3.0,1.25,2.25,0.02,0.08,1.02,1140.32,-11.2,30.5
1.42,1.5,0.5,2.75,1.0,1.75,2.75,1.75,1.0,0.75,0.0,1.0,0.25,0.5,-0.67,-0.86,0.7,0.0,9.5,28.3,10.5,3.5,9.25,11.0,9.5,5.75,6.0,2.25,2.75,3.75,2.75,1.25,2.25,0.02,0.08,0.95,1205.11,-12.0,34.2
1.44,1.75,0.75,2.75,1.5,2.25,2.5,2.0,1.0,0.75,0.0,0.5,0.25,0.5,-0.42,-0.61,0.08,19.46,10.3,35.5,11.5,3.5,10.5,11.5,9.5,5.75,6.0,2.75,2.5,2.25,2.5,1.0,1.75,0.02,0.14,1.02,1260.38,-13.4,39.8
1.46,2.0,0.5,2.25,1.75,1.25,2.75,2.25,1.25,0.75,0.5,1.25,0.25,1.5,-0.23,-0.48,0.08,45.6,7.9,15.9,10.5,3.0,10.0,11.0,9.5,5.0,5.75,1.75,1.75,2.25,1.5,1.0,1.0,0.02,0.14,1.08,1237.53,-14.2,44.0
1.48,2.0,0.5,2.5,0.5,1.25,2.75,2.0,1.25,0.5,1.25,1.25,0.25,1.5,-0.11,-0.42,0.52,67.56,6.4,9.8,11.0,3.25,10.5,11.0,9.5,3.75,5.25,1.75,2.0,2.25,1.5,1.0,1.25,0.02,0.2,1.08,1202.09,-15.0,44.1
1.5,2.0,0.5,2.25,1.75,1.25,2.75,1.75,1.25,0.5,1.25,0.75,0.25,1.5,-0.11,-0.48,0.77,100.66,6.4,15.1,12.5,4.75,11.0,11.5,9.5,2.75,4.75,1.75,2.0,2.0,1.5,0.25,0.75,-0.11,0.2,1.14,1174.15,-16.5,50.5
1.52,1.75,0.5,2.5,2.0,1.25,2.75,2.0,1.25,0.5,1.25,1.5,0.25,0.0,-0.23,-0.42,1.02,142.42,8.9,23.1,13.0,4.75,11.0,12.5,9.5,2.75,4.75,1.75,2.0,2.25,2.0,1.0,2.0,0.08,0.27,1.33,1192.17,-15.8,44.8
1.54,1.5,0.5,2.25,1.75,1.25,2.75,1.75,1.25,0.25,1.0,1.0,0.25,1.5,-0.23,-0.23,1.02,181.6,5.9,13.6,12.0,3.5,12.5,10.5,9.5,1.0,3.25,1.5,1.5,2.25,2.5,0.5,1.5,0.14,0.33,1.45,1161.31,-17.4,46.0
1.56,1.5,0.5,2.25,2.25,1.25,2.75,1.75,1.25,0.25,0.5,0.5,1.0,1.5,-0.23,-0.05,1.08,216.29,6.9,14.7,12.0,3.5,10.5,9.0,7.0,0.5,3.5,0.75,1.5,2.0,1.5,0.5,0.75,0.14,0.39,1.64,1059.72,-19.4,51.0
1.58,1.25,0.5,2.25,2.75,1.25,2.5,1.5,1.25,0.25,0.0,0.75,0.5,1.5,-0.23,0.02,1.27,240.13,7.8,20.0,11.0,2.5,10.5,8.5,5.25,1.25,3.5,0.25,1.0,0.5,1.5,0.25,0.5,0.39,0.52,2.02,904.94,-21.4,56.4
1.6,1.25,0.5,2.25,2.5,0.0,2.5,1.5,1.0,0.25,0.25,0.5,0.25,1.75,-0.36,0.14,1.52,233.01,8.4,16.7,9.0,1.5,9.25,5.5,5.0,0.0,3.5,0.25,0.5,0.5,1.5,0.5,0.25,0.58,0.64,2.45,709.31,-22.7,54.9
1.62,2.25,0.75,2.25,2.25,1.25,2.75,1.75,1.25,0.25,0.5,0.5,0.25,1.5,-0.48,0.33,1.89,228.95,8.1,25.1,7.5,0.75,6.75,3.25,0.0,0.0,2.0,0.25,0.25,0.5,0.5,0.25,0.0,0.45,0.39,2.45,472.06,-29.2,61.8
1.64,0.5,0.5,2.25,3.25,1.25,3.0,2.0,3.25,0.5,0.0,2.5,0.25,1.5,-0.8,0.52,2.77,239.18,4.5,5.5,4.5,0.0,3.75,1.5,0.25,0.0,1.5,0.0,1.0,0.5,0.75,1.0,0.25,0.58,-0.05,2.2,290.37,-25.6,35.7
1.66,0.0,0.0,2.25,4.25,1.25,3.5,2.25,1.25,1.25,0.5,0.75,0.75,1.75,-1.11,1.2,2.89,252.97,5.0,7.9,4.25,1.5,2.75,3.25,4.25,1.0,1.75,1.25,1.0,2.25,2.0,1.25,1.0,0.33,-0.23,1.77,237.65,-10.6,21.2
1.68,0.0,0.0,2.25,0.0,0.0,4.0,6.25,4.75,2.5,0.0,3.75,1.0,0.0,-1.23,2.39,3.08,265.87,4.6,-14.8,3.75,1.5,2.75,3.0,4.75,1.25,1.75,1.25,1.0,2.25,1.75,1.0,1.25,1.27,-1.42,2.33,222.45,-9.3,21.2
1.7,1.25,0.0,3.75,3.0,0.0,2.5,0.0,0.0,0.75,0.25,0.0,0.25,0.0,-1.3,3.95,1.89,244.33,16.6,45.6,2.75,1.5,2.5,3.0,4.5,1.25,1.75,1.75,1.0,2.25,2.0,1.0,0.75,0.95,-0.98,1.52,237.46,-8.2,18.2
1.72,1.0,0.25,2.25,1.5,1.25,2.75,1.75,1.25,0.5,0.25,1.25,0.25,1.5,-0.61,5.7,-0.55,231.33,6.0,10.9,2.75,1.75,2.25,3.0,4.5,1.25,1.5,1.0,1.0,2.25,2.0,1.0,1.25,0.33,-0.55,0.58,247.07,-8.1,17.6
1.74,1.0,0.25,2.25,1.75,1.75,0.0,1.5,1.5,0.5,0.0,1.0,1.0,1.5,1.27,6.95,-1.11,208.67,11.1,4.6,2.25,1.5,1.75,2.75,3.75,1.0,1.25,1.5,1.0,0.75,1.75,1.0,1.25,-0.05,-0.36,0.27,239.92,-8.3,17.9
1.76,0.75,0.5,1.0,1.25,0.5,1.5,1.5,1.5,0.75,0.25,2.0,2.0,2.25,0.89,-0.98,0.64,203.08,4.5,-24.5,2.0,1.5,1.75,3.0,4.25,1.25,1.25,1.5,1.0,2.0,2.0,1.0,1.25,-0.17,-0.3,0.39,240.08,-6.3,12.7
1.78,0.75,0.25,1.5,1.5,0.75,2.5,1.5,1.75,1.0,2.75,2.0,5.0,4.75,0.2,0.52,0.2,243.8,0.7,-44.1,3.0,1.75,1.5,2.75,4.5,1.25,1.25,1.5,1.0,2.25,1.75,1.0,1.5,-0.36,-0.3,0.7,258.18,-6.4,15.0
1.8,0.75,0.0,1.75,1.5,0.75,3.0,1.5,3.0,1.25,4.5,2.75,6.0,6.25,-0.67,-0.11,2.08,313.18,-1.1,-50.6,2.75,1.5,1.25,2.0,4.25,1.25,1.25,1.25,1.0,0.75,1.75,0.5,1.75,-0.23,-0.3,0.89,270.55,-6.9,18.9
1.82,0.0,0.0,1.75,0.5,0.0,3.75,1.0,3.75,1.25,6.0,2.5,7.5,7.0,0.52,0.33,1.77,403.35,-3.9,-62.9,2.25,1.5,0.5,2.0,3.5,1.25,0.75,0.25,1.0,0.5,0.75,1.0,1.0,-0.11,-0.17,0.95,260.71,-7.5,25.4
1.84,0.0,0.0,2.75,3.0,1.25,5.0,0.25,5.25,2.0,7.0,4.0,8.25,8.75,-0.36,0.83,1.83,554.85,-2.7,-50.3,2.25,1.5,0.5,2.0,3.0,0.5,1.0,1.5,1.0,0.5,1.5,1.0,1.5,-0.11,-0.11,1.08,253.9,-7.0,11.5
1.86,2.25,0.0,1.0,2.5,1.75,4.5,1.5,6.0,2.0,6.5,3.5,7.5,9.5,-0.11,0.02,1.02,674.48,-2.7,-47.1,2.25,1.75,0.25,1.5,4.25,1.25,1.0,1.25,1.0,0.5,1.5,1.0,1.25,-0.05,0.02,1.27,251.3,-5.0,17.2
1.88,1.0,0.0,0.5,1.5,1.25,4.0,1.5,6.0,2.0,7.25,2.5,7.5,8.5,-0.17,0.02,0.95,735.74,-4.8,-55.6,2.0,1.5,0.25,1.25,3.25,1.25,1.0,1.5,1.0,2.0,1.5,1.0,1.5,0.02,0.14,1.45,245.34,-2.7,2.4
1.9,1.5,0.25,1.75,0.75,1.25,5.75,1.5,5.75,2.5,8.75,3.5,8.5,8.75,-0.17,-0.05,0.95,798.25,-3.7,-51.4,2.5,1.25,0.25,1.25,3.75,1.25,1.0,0.75,1.0,2.25,1.75,1.0,1.25,0.08,0.27,1.89,240.45,-4.0,6.1
1.92,2.0,0.5,1.25,3.0,0.5,5.75,1.75,6.5,2.75,7.5,3.25,7.5,8.5,-0.11,-0.05,0.95,831.94,-2.7,-44.4,2.0,1.0,0.25,1.25,2.75,1.25,1.0,1.0,1.0,2.25,1.5,1.0,1.5,0.02,0.52,2.33,238.28,-2.9,-2.0
1.94,1.0,0.25,2.25,1.5,4.25,5.25,3.0,7.0,2.0,7.5,3.5,7.5,8.0,-0.17,-0.05,0.95,866.95,-2.9,-39.9,1.75,1.75,0.25,1.25,2.5,1.25,1.0,1.0,1.0,2.25,0.25,1.0,0.5,0.27,1.33,2.64,228.72,-3.5,13.3
1.96,0.75,0.25,2.25,1.75,1.25,5.25,3.0,6.5,2.0,6.25,3.0,6.75,7.75,-0.17,-0.05,0.95,831.14,-2.7,-44.3,1.75,1.5,0.0,0.75,2.75,1.5,1.0,1.0,1.0,2.25,1.5,1.0,1.5,0.39,2.39,2.64,223.87,-1.5,-2.6
1.98,0.5,0.25,2.25,1.75,1.25,5.25,3.0,6.25,2.0,5.75,3.0,6.0,7.0,-0.17,-0.05,0.95,776.8,-2.7,-42.4,1.75,1.5,0.0,0.75,2.75,1.25,1.0,1.0,1.0,2.25,1.5,1.0,1.5,0.64,3.95,1.52,222.7,-1.8,-3.1
2.0,0.5,0.25,2.25,1.75,1.25,5.5,3.0,6.25,2.0,6.25,1.5,5.5,7.0,-0.17,-0.05,0.95,695.58,-3.6,-40.4,2.0,1.25,0.0,1.0,2.5,1.25,0.75,0.0,1.0,2.25,1.5,1.0,1.5,-0.3,5.39,-0.61,218.17,-3.4,-1.2
2.02,0.5,0.25,2.25,1.75,1.25,5.75,3.0,6.25,2.0,5.75,1.5,5.25,6.5,-0.17,-0.05,0.95,621.49,-3.5,-38.2,1.5,0.0,0.25,0.5,1.75,0.5,0.75,0.0,0.75,2.25,1.5,1.0,1.5,-2.3,6.14,-0.86,198.61,-3.2,-22.4
2.04,0.5,0.25,2.25,2.5,1.75,6.25,3.0,6.5,2.0,5.0,1.5,5.0,6.25,-0.17,-0.05,0.95,574.33,-3.2,-32.7,2.0,0.75,0.0,0.75,1.75,1.25,0.5,0.0,1.0,3.5,2.25,2.0,2.25,0.33,-0.23,1.58,206.67,-1.6,-26.8
2.06,0.75,0.0,2.25,1.75,1.75,6.25,3.5,6.5,1.75,5.0,2.75,5.75,6.0,-0.17,-0.05,0.95,555.06,-2.7,-36.2,1.25,0.75,0.0,1.25,2.25,1.25,0.5,0.0,0.5,4.75,2.5,3.25,3.75,-1.05,0.14,0.64,232.62,0.9,-40.2
2.08,2.25,0.25,3.5,3.0,4.75,7.25,4.0,7.25,2.75,5.75,3.0,5.0,6.25,-0.17,-0.05,0.95,607.86,-0.6,-20.2,1.5,0.0,0.0,0.25,1.75,0.0,0.5,0.0,0.75,5.0,3.25,3.75,5.5,-0.67,0.08,1.83,265.55,1.1,-63.4
2.1,1.25,0.25,3.5,2.5,5.75,6.75,4.25,6.75,2.25,4.75,2.75,3.5,5.25,-0.17,-0.05,0.95,641.74,-1.0,-15.4,1.25,0.0,0.0,0.75,1.25,3.25,0.5,0.0,1.5,6.5,2.5,5.75,5.25,1.14,0.89,5.95,315.12,3.3,-56.8
2.12,2.25,0.5,3.5,3.0,4.25,7.5,3.75,6.75,2.25,3.75,2.0,3.25,5.25,-0.17,-0.05,0.95,665.84,-0.3,-11.0,1.25,0.25,0.0,0.75,1.25,4.0,1.25,3.25,3.0,8.25,6.5,7.0,7.0,-0.23,0.08,1.2,439.64,3.0,-57.9
2.14,2.25,0.25,2.25,3.0,5.5,7.5,3.75,7.0,2.75,4.75,2.25,2.75,3.75,-0.17,-0.05,0.95,658.85,-1.5,-9.4,2.25,1.5,2.5,3.0,5.0,4.0,2.0,4.5,3.25,8.5,7.75,7.25,8.0,0.02,0.02,1.02,644.8,-0.5,-34.5
2.16,2.5,0.25,3.75,3.5,7.25,8.5,4.5,7.75,2.75,4.75,2.25,2.0,4.0,-0.17,-0.05,0.95,700.62,-0.6,-2.2,2.25,1.5,2.75,2.75,5.0,4.5,2.25,4.75,3.5,8.5,7.75,7.25,8.25,0.14,0.02,0.95,843.32,-0.4,-34.2
2.18,2.75,1.75,3.75,5.25,7.75,9.25,4.75,7.75,3.5,5.0,3.0,3.25,3.75,-0.17,-0.05,0.95,790.39,0.6,0.2,2.0,1.5,2.75,2.75,5.0,4.75,2.25,5.25,3.5,8.75,8.0,7.25,8.25,0.08,0.02,0.95,999.06,0.0,-34.8
2.2,4.0,1.75,3.75,5.25,8.75,10.0,4.75,8.0,3.5,5.0,3.0,2.0,3.75,-0.17,-0.05,0.95,908.51,0.7,5.5,2.75,1.5,2.75,3.0,5.0,5.0,2.25,5.5,3.5,8.5,7.75,7.25,8.5,0.14,0.02,0.95,1087.6,-0.3,-32.7
2.22,4.0,2.0,4.25,6.0,9.25,11.0,5.0,7.75,3.25,4.25,3.0,2.0,3.5,-0.17,-0.05,0.95,1017.07,1.2,9.6,2.75,1.75,2.75,3.0,5.0,5.25,2.25,5.5,4.0,8.5,8.25,7.25,8.25,0.14,0.02,0.95,1133.96,-0.5,-32.0
2.24,5.5,2.25,4.75,7.0,11.5,12.0,5.0,8.0,2.75,3.5,2.25,2.0,3.0,-0.23,-0.05,1.02,1125.62,2.0,17.8,2.5,1.75,2.5,3.0,5.0,5.5,2.25,5.5,4.0,8.5,7.75,7.25,8.25,0.08,0.02,0.95,1144.94,0.0,-32.2
2.26,6.25,3.25,4.75,8.5,13.5,12.5,5.0,8.0,2.75,3.75,2.0,2.0,2.25,-0.23,-0.05,1.08,1247.54,2.5,23.1,2.75,1.5,2.75,3.25,5.0,5.25,2.25,5.5,4.0,8.0,7.75,6.5,8.0,0.08,0.02,0.95,1131.19,-0.5,-30.2
2.28,7.0,3.5,4.75,8.75,14.5,13.0,4.5,8.0,2.0,3.75,1.75,1.75,2.25,-0.17,0.08,1.08,1337.98,2.4,26.1,2.5,1.75,2.75,3.25,5.0,5.75,2.25,5.5,4.0,7.75,7.25,6.25,7.5,0.14,0.02,0.89,1085.65,-0.3,-28.1
2.3,8.0,3.5,4.75,8.75,15.5,13.0,3.0,7.75,1.75,3.25,1.75,1.75,1.75,-0.3,0.08,1.27,1391.58,2.7,29.5,2.75,1.75,2.75,3.25,5.25,5.75,2.75,5.5,4.25,7.25,7.0,5.75,7.25,0.14,0.02,0.95,1033.8,-0.7,-25.4
2.32,8.75,3.5,4.75,8.75,15.5,12.5,3.0,7.5,1.25,2.75,1.5,1.75,1.75,-0.36,0.14,1.33,1411.11,3.3,31.8,3.75,1.75,2.75,3.25,5.25,5.75,3.0,5.5,4.5,6.75,6.5,5.25,6.25,0.14,0.02,0.95,981.18,-1.6,-20.4
2.34,9.5,3.5,4.75,8.5,15.0,11.0,1.75,7.0,1.0,2.75,1.5,1.75,1.75,-0.42,0.2,1.64,1401.82,4.0,33.0,4.5,1.75,3.25,3.25,5.75,6.25,3.5,5.25,4.75,6.5,6.0,4.25,5.5,0.08,0.02,0.95,936.74,-2.4,-13.6
2.36,9.75,3.5,4.75,7.0,13.0,9.5,1.5,6.5,1.0,2.5,1.5,1.75,1.75,-0.92,0.14,1.77,1337.96,4.8,32.8,5.0,2.25,5.0,3.75,6.75,6.25,3.5,5.25,4.75,6.0,5.75,3.75,4.75,0.14,0.02,0.95,922.86,-4.0,-5.0
2.38,9.0,3.25,4.75,5.5,9.25,8.0,1.5,5.5,1.0,0.75,1.25,1.75,1.75,-0.98,0.7,2.64,1169.06,6.5,34.6,5.75,2.0,5.25,5.5,6.75,6.25,4.0,4.75,4.5,5.25,5.0,2.5,4.25,0.14,0.02,0.95,924.33,-5.4,3.2
2.4,5.5,0.0,3.75,1.5,7.5,4.0,0.25,3.25,0.5,0.5,1.25,0.25,2.0,-1.05,0.14,2.7,836.19,5.6,29.0,6.0,2.5,5.25,5.5,7.0,6.5,4.5,4.5,4.25,5.0,4.75,2.5,3.25,0.14,0.02,0.95,939.03,-6.0,7.8
2.42,1.75,0.0,0.25,1.75,0.0,3.0,0.0,1.0,0.25,0.0,0.0,0.25,0.0,-0.86,-0.42,1.95,443.2,2.7,37.6,7.25,2.5,6.75,7.25,8.25,6.5,4.75,4.25,4.0,4.75,4.0,1.75,2.25,0.08,0.02,0.95,974.78,-7.9,18.3
2.44,2.25,0.0,0.0,1.75,0.0,4.0,0.0,1.0,0.75,0.25,1.0,0.25,1.5,0.02,-0.17,2.77,234.74,-0.1,6.7,7.75,2.75,7.0,7.75,8.25,6.5,5.0,4.0,3.5,4.0,3.75,1.25,2.5,0.14,0.02,0.95,1006.32,-8.6,22.4
2.46,0.5,0.25,0.0,1.25,1.75,3.5,0.25,0.75,0.5,1.25,1.0,1.0,1.75,-1.05,-1.48,3.02,94.63,-4.9,-11.0,8.25,3.0,7.75,9.0,9.5,6.75,5.25,3.75,3.5,4.25,3.75,1.25,2.5,0.08,0.02,1.02,1071.66,-9.0,24.9
2.48,2.0,0.5,0.0,1.75,1.75,3.0,0.0,0.5,0.5,1.0,1.0,0.25,1.5,-0.8,-1.17,1.45,28.27,0.3,11.6,9.0,3.25,8.5,10.5,9.5,7.0,5.25,3.5,3.25,4.0,2.75,1.25,2.5,0.08,0.08,1.02,1144.52,-9.8,29.4
2.5,1.25,0.5,1.0,1.75,1.25,2.75,0.5,1.0,0.25,0.0,0.75,0.25,1.5,-0.42,-0.67,0.27,4.16,2.9,16.4,9.75,3.5,8.75,11.0,11.0,6.75,5.25,3.25,2.75,3.75,2.75,1.25,1.5,0.08,0.08,0.95,1222.53,-10.5,34.4
2.52,0.5,0.5,0.0,1.25,0.0,2.75,0.0,0.0,0.5,0.0,0.0,0.25,1.5,-0.23,-0.48,-0.05,0.0,-3.7,6.2,11.0,3.5,9.25,12.0,11.0,6.5,5.25,3.25,2.75,3.75,2.75,1.25,1.25,0.08,0.14,0.95,1293.28,-11.4,36.5
2.54,1.0,0.5,2.0,1.75,1.75,2.75,0.5,1.0,0.5,0.0,1.25,0.75,1.5,-0.23,-0.42,0.14,0.96,5.1,11.6,10.0,3.5,9.25,12.5,11.5,6.25,4.75,3.25,1.75,2.25,2.75,1.0,2.25,0.08,0.14,1.08,1318.86,-11.3,37.8
2.56,1.0,0.25,0.25,1.75,1.75,2.75,0.5,1.0,0.25,0.25,0.75,0.75,1.25,-0.17,-0.48,0.58,18.91,-0.1,7.8,11.0,3.25,8.75,11.0,10.5,5.75,4.0,2.0,1.25,2.25,1.5,1.0,1.0,-0.05,0.14,1.08,1276.87,-12.7,44.9
2.58,1.25,0.25,1.5,0.25,1.75,3.0,0.5,1.0,0.25,0.0,0.5,0.25,1.5,-0.23,-0.48,0.83,59.43,1.3,15.0,11.0,3.25,9.0,9.5,9.75,5.0,2.75,2.0,1.5,2.25,2.5,0.5,1.0,0.08,0.27,1.27,1189.11,-13.2,43.8
2.6,1.25,0.5,0.25,0.0,1.75,2.75,0.5,1.0,0.25,0.0,0.75,0.75,1.5,-0.36,-0.3,0.83,89.31,-1.9,2.6,11.0,3.25,8.75,9.25,8.75,3.75,1.0,1.75,1.5,2.25,0.75,0.5,0.5,0.2,0.27,1.45,1061.39,-14.3,49.5
2.62,1.25,0.5,2.0,1.5,1.75,2.75,0.5,1.0,0.25,0.0,0.5,0.25,0.75,-0.36,-0.17,0.89,136.25,6.0,30.0,10.5,2.0,8.75,9.0,8.5,3.5,1.25,1.75,1.0,2.0,0.25,0.0,1.25,0.14,0.33,1.64,940.83,-14.3,49.6
2.64,1.0,0.5,1.0,1.75,1.25,3.0,0.5,1.0,0.25,0.0,0.5,0.25,1.5,-0.3,-0.05,1.14,167.63,1.6,17.0,10.0,2.5,7.75,6.25,7.25,1.0,1.75,0.25,1.0,1.5,0.5,0.25,0.5,0.27,0.45,1.95,780.93,-18.2,55.6
2.66,0.0,0.0,2.75,0.0,0.0,0.0,5.75,4.0,0.0,0.0,0.0,0.0,0.0,-0.3,0.08,1.39,173.22,13.6,9.7,9.0,2.0,7.75,7.5,7.0,1.5,2.25,0.0,0.5,1.25,1.5,0.0,1.5,0.52,0.64,2.45,671.06,-17.2,50.1
2.68,0.0,0.0,1.75,0.0,0.0,0.0,4.5,0.0,0.0,0.0,0.0,0.0,0.0,-0.42,0.2,1.64,132.73,35.0,42.6,8.25,1.25,6.75,3.5,5.5,0.5,2.0,0.0,0.5,1.5,0.75,0.25,0.5,0.64,0.45,2.08,524.55,-19.4,52.7
2.7,2.5,0.75,0.0,4.0,0.0,5.5,0.0,1.75,1.5,1.0,0.5,0.0,1.5,-0.61,0.39,2.08,167.84,0.0,16.9,5.25,0.5,2.75,1.5,2.5,1.25,1.25,0.0,1.0,0.5,0.25,0.25,0.0,0.52,0.27,1.89,351.71,-18.5,53.7
2.72,0.75,0.5,0.0,2.0,0.0,3.0,4.5,5.25,1.0,1.0,2.0,1.5,0.5,-0.86,0.89,2.77,202.06,0.3,-14.7,3.5,0.75,0.5,0.75,1.25,1.25,0.75,0.25,0.75,0.5,0.25,0.25,0.5,0.33,-0.42,1.7,217.18,-12.1,39.0
2.74,2.0,0.5,2.25,4.25,0.0,5.5,6.25,5.25,1.75,0.75,2.0,1.25,1.0,-0.98,2.02,3.02,283.28,5.2,5.7,2.75,1.75,0.0,3.25,1.25,1.0,0.75,0.25,1.0,0.75,0.25,1.0,0.5,0.27,-0.36,2.27,124.99,-10.9,32.1
2.76,0.0,0.75,1.5,1.75,1.25,1.5,1.5,1.0,0.25,0.0,0.5,0.75,1.5,-0.98,3.33,1.89,273.81,5.3,7.3,0.75,1.5,2.5,3.0,5.0,1.25,1.25,1.25,1.0,2.25,1.75,1.0,1.25,1.02,-1.23,2.08,121.69,-5.6,12.1
2.78,0.0,0.0,2.25,0.0,0.0,0.0,5.75,0.0,0.0,0.0,0.0,0.0,0.0,-1.11,5.14,0.64,228.23,35.0,42.7,2.25,1.5,2.5,2.75,5.0,0.0,1.25,1.75,1.0,0.75,2.0,1.0,1.25,0.83,-0.92,1.02,158.16,-9.6,19.3
2.8,0.5,0.25,1.0,1.75,1.25,2.75,0.75,1.25,0.25,1.25,0.75,1.75,1.25,2.52,7.95,-0.36,197.41,0.4,-8.5,2.75,1.5,2.5,2.75,4.75,1.0,1.25,1.5,1.0,0.5,1.5,1.0,1.5,0.27,-0.55,0.33,209.72,-9.3,23.2
2.82,0.5,0.25,1.5,1.75,1.25,2.75,1.0,1.25,0.25,1.5,1.5,2.0,1.75,-0.11,-0.98,0.39,196.23,1.7,-14.6,2.25,1.5,1.5,2.5,5.0,0.0,1.25,1.5,1.0,0.75,1.75,1.0,1.0,-0.11,-0.3,0.27,229.98,-8.7,20.2
2.84,0.5,0.5,1.75,1.5,1.25,2.75,1.0,2.0,0.25,2.5,1.5,3.5,3.75,0.33,0.45,0.33,233.21,-0.2,-31.9,2.0,1.25,1.75,2.0,4.25,1.0,1.25,0.75,1.0,2.25,1.75,1.0,1.0,-0.17,-0.23,0.45,241.84,-6.8,12.5
2.86,0.75,0.0,1.75,0.5,1.25,3.0,1.0,2.5,1.0,4.25,2.5,5.75,5.75,-0.17,0.2,2.27,298.16,-1.7,-51.4,2.0,1.5,1.75,1.25,4.25,1.75,1.0,0.5,1.0,2.25,1.5,1.0,1.25,-0.11,-0.23,0.89,247.26,-5.3,12.6
2.88,1.25,0.0,0.0,2.75,0.0,4.0,1.25,4.0,1.25,4.75,0.5,6.75,6.25,-0.92,0.83,2.58,378.0,-3.9,-50.4,2.0,1.5,1.5,1.5,3.5,0.5,1.0,0.25,1.0,2.25,1.5,1.0,1.25,0.02,-0.23,0.95,250.72,-7.5,10.0
2.9,1.25,0.0,2.25,2.75,0.0,5.0,0.5,5.0,1.75,5.0,2.75,7.5,7.75,0.02,0.02,1.14,486.86,-1.8,-47.2,2.5,1.5,1.5,1.75,3.5,1.25,1.0,0.25,1.0,2.25,1.5,1.0,1.25,-0.05,-0.11,1.33,259.15,-7.2,13.5
2.92,2.25,0.5,0.0,3.25,1.75,3.5,0.75,5.5,1.75,5.25,3.75,7.25,8.0,-0.11,0.08,0.95,582.38,-2.2,-45.3,3.0,1.5,1.0,1.25,4.25,1.25,0.75,0.75,1.0,2.25,1.5,1.25,1.0,0.02,0.02,1.39,274.37,-5.9,13.5
2.94,0.5,0.25,2.75,1.5,1.75,3.75,1.5,5.75,2.0,6.25,2.0,6.75,7.25,-0.17,0.02,0.95,636.46,-2.4,-45.5,1.5,1.5,1.0,1.25,4.25,1.25,0.5,1.0,1.0,2.25,1.5,1.0,1.25,0.14,0.27,1.58,281.01,-3.1,6.7
2.96,0.5,0.25,3.0,1.75,1.25,4.0,1.25,5.25,2.0,6.25,3.0,7.0,7.75,-0.17,-0.05,0.95,677.82,-1.8,-47.3,2.0,1.75,0.5,1.0,3.0,1.25,0.5,1.25,1.0,2.25,1.5,1.0,1.25,0.27,0.45,1.95,271.92,-3.1,3.7
2.98,2.5,1.75,3.75,3.0,0.0,5.25,1.5,5.25,3.25,7.5,3.0,7.75,8.75,-0.17,-0.05,0.95,752.9,0.4,-36.9,2.0,1.25,1.0,1.0,3.0,2.0,0.75,1.0,1.0,2.25,1.5,1.0,1.25,0.45,0.7,2.45,260.26,-3.3,4.5
3.0,2.25,0.0,2.25,3.75,0.5,5.25,3.0,5.5,3.25,6.75,4.5,7.75,7.75,-0.17,-0.05,0.95,821.3,0.1,-41.0,1.5,1.5,1.0,1.25,2.5,1.5,0.5,1.25,1.0,2.25,1.5,1.0,1.25,0.77,1.45,2.58,246.92,-3.2,1.2
3.02,1.75,0.25,3.5,3.25,1.25,5.25,1.75,5.0,3.5,6.25,5.0,7.5,8.5,-0.17,-0.05,0.95,862.95,0.4,-39.9,1.5,1.5,1.0,0.75,3.0,1.75,0.5,1.0,1.0,2.25,1.5,1.0,1.25,1.02,2.58,2.33,243.46,-2.5,2.2
3.04,2.5,0.75,3.5,3.25,3.5,5.25,3.0,5.75,4.0,6.25,4.25,7.5,7.75,-0.11,-0.05,0.95,885.68,1.1,-30.4,1.25,1.25,1.0,1.25,2.5,2.0,0.5,1.0,1.0,2.25,1.5,1.0,1.5,1.08,4.02,0.95,241.43,-2.0,-1.6
3.06,2.5,1.0,3.5,3.25,3.75,5.25,4.25,5.75,4.25,5.75,5.25,7.5,7.75,-0.11,-0.05,0.95,909.82,1.8,-29.2,1.75,1.25,0.75,0.5,2.5,2.0,0.5,0.0,1.0,2.25,1.5,1.0,1.25,-0.3,5.2,-1.11,235.36,-3.1,1.3
3.08,2.5,1.25,3.75,3.25,3.0,5.5,4.25,6.0,4.25,5.75,5.25,7.25,7.5,-0.11,-0.05,0.95,911.35,1.9,-28.5,1.5,0.75,0.5,0.75,2.5,1.0,0.5,0.0,0.75,2.25,1.5,1.0,1.25,-2.11,5.95,-0.05,219.45,-3.4,-5.2
3.1,2.5,1.75,3.75,3.25,4.25,5.75,4.75,6.0,4.5,5.75,5.25,6.75,7.0,-0.11,-0.05,0.95,919.45,2.0,-23.6,1.75,1.5,0.25,1.0,2.25,1.0,0.5,0.0,0.75,3.5,1.75,1.25,1.75,-2.3,-0.8,5.39,217.43,-2.3,-10.8
3.12,2.75,1.75,3.75,3.25,4.5,6.0,4.25,6.0,4.75,5.25,5.75,6.75,7.0,-0.11,-0.11,0.95,929.77,2.2,-22.8,1.5,0.0,0.25,0.75,2.5,1.25,0.5,0.0,1.0,5.25,2.5,2.25,2.25,-0.05,-0.3,1.95,229.58,0.6,-35.9
3.14,3.25,1.75,4.25,3.25,4.75,6.5,5.0,6.0,5.0,5.0,5.0,5.75,6.25,-0.11,-0.05,0.95,932.74,2.8,-16.6,1.25,0.0,0.0,0.0,2.5,0.75,0.5,0.0,1.0,5.25,2.75,4.0,4.5,-0.05,0.02,2.52,258.18,2.0,-56.9
3.16,4.0,1.75,4.5,3.25,5.25,6.5,5.5,6.0,5.0,5.0,5.0,5.75,6.0,-0.11,-0.05,0.95,950.33,3.4,-13.7,1.25,0.25,0.0,0.0,1.25,2.75,0.25,0.0,1.0,7.25,4.5,5.75,5.5,0.89,0.14,3.2,313.83,3.3,-62.7
3.18,4.0,1.75,4.75,3.25,4.5,6.75,5.75,6.0,5.25,4.75,5.0,3.75,5.25,-0.11,-0.05,0.95,944.5,3.8,-9.4,1.25,0.0,0.0,0.0,1.25,1.25,0.5,0.0,1.5,8.0,6.0,6.5,7.75,-0.05,0.2,1.33,396.12,2.3,-72.5
3.2,4.25,0.5,4.75,5.25,5.75,6.75,6.25,6.0,5.0,4.75,4.25,3.5,3.75,-0.11,-0.11,0.95,933.15,4.5,-3.2,1.25,0.0,0.0,0.0,1.25,3.75,0.5,2.75,2.0,8.25,7.0,6.5,8.0,0.14,0.14,1.08,513.33,4.1,-63.9
3.22,5.25,0.5,4.75,4.25,5.75,7.0,6.75,6.25,5.0,4.75,4.0,3.25,3.75,-0.11,-0.05,0.95,916.64,4.6,-1.8,1.75,0.25,0.0,0.0,1.25,3.75,1.25,4.5,2.0,8.0,7.0,6.5,8.0,0.2,0.08,0.95,618.32,3.8,-59.4
3.24,5.5,1.75,5.0,5.5,5.75,8.25,7.25,6.25,5.0,4.25,2.75,2.75,1.75,-0.11,-0.05,0.95,923.98,5.6,10.1,1.75,0.5,0.0,0.5,1.25,3.75,1.25,4.5,2.75,8.25,6.75,6.5,8.0,0.14,0.02,0.89,704.36,3.3,-56.8
3.26,5.75,2.0,6.0,7.0,8.75,8.5,7.5,6.25,4.75,3.5,3.0,2.25,3.25,-0.11,-0.05,0.95,983.74,5.7,14.0,2.25,1.75,1.25,2.0,3.25,5.0,1.75,0.0,2.5,8.5,7.25,6.25,8.5,0.14,0.02,0.95,768.58,0.0,-39.1
3.28,6.25,2.5,6.25,8.25,10.5,9.25,7.75,6.5,4.75,3.5,3.0,2.0,2.5,-0.11,-0.05,1.02,1082.64,5.9,19.2,2.75,1.75,2.5,3.25,5.0,5.75,1.75,0.0,2.75,8.5,7.0,6.5,8.0,0.2,0.02,0.89,834.66,-1.2,-28.5
3.3,7.25,3.25,6.75,8.75,11.5,9.5,8.25,6.5,4.25,2.75,2.75,2.0,2.25,-0.11,-0.05,1.02,1200.9,6.7,24.4,2.75,1.75,2.5,3.0,5.0,6.0,2.0,5.75,2.75,8.5,6.75,6.25,7.25,0.14,0.02,0.95,910.65,0.4,-27.9
3.32,8.75,3.5,7.75,11.0,13.0,10.0,8.0,6.5,4.0,2.75,1.5,2.0,2.0,-0.11,-0.05,1.02,1330.39,7.5,30.3,2.5,1.75,2.5,3.0,5.25,6.25,2.0,5.5,2.75,7.75,6.5,5.75,6.5,0.14,0.02,0.95,949.97,0.3,-25.1
3.34,9.75,3.5,6.75,11.5,14.0,10.0,7.5,6.25,3.25,2.75,2.75,1.75,2.25,-0.11,0.08,1.02,1413.67,7.3,30.5,2.75,1.5,2.75,3.25,5.25,6.25,2.25,0.0,3.0,7.75,5.75,5.25,5.75,0.14,0.02,0.95,919.33,-1.8,-19.9
3.36,11.0,3.75,7.75,11.5,15.0,10.0,7.25,6.0,2.75,2.75,1.75,1.75,1.75,-0.3,0.08,1.2,1481.5,8.1,35.2,2.75,1.5,2.75,3.25,6.75,7.0,2.25,0.0,2.75,6.75,5.5,4.0,5.5,0.2,0.02,0.95,868.04,-1.5,-12.4
3.38,12.5,4.0,8.75,11.5,15.0,10.0,6.25,6.0,2.0,2.5,1.75,1.75,1.75,-0.3,0.14,1.39,1530.87,8.8,37.8,3.25,2.25,2.75,3.75,6.75,7.0,2.5,0.0,3.0,6.5,5.0,3.5,5.25,0.2,0.02,0.95,819.91,-2.2,-6.7
3.4,13.0,3.5,8.5,9.0,14.5,9.25,5.75,5.5,1.75,2.5,1.75,1.75,1.75,-0.3,0.2,1.7,1528.83,9.0,37.7,3.75,1.75,2.75,3.75,7.0,7.5,2.75,5.75,3.0,6.0,4.75,2.75,4.0,0.14,0.08,0.95,812.77,-0.6,-4.7
3.42,13.0,4.75,7.75,8.25,12.0,8.25,4.5,5.25,1.25,2.5,1.75,1.75,1.75,-0.73,0.39,2.08,1478.58,9.5,38.6,3.75,2.0,2.75,5.5,8.25,7.75,2.75,5.75,3.25,5.25,4.5,2.5,3.5,0.14,0.02,0.95,839.73,-1.3,1.9
3.44,10.5,3.5,6.25,5.5,8.5,5.75,4.25,3.25,0.75,1.25,1.5,0.75,1.75,-0.86,0.58,2.77,1294.39,11.0,41.6,4.25,2.25,4.0,5.75,8.25,7.75,3.25,5.5,2.75,5.0,3.75,2.0,2.25,0.14,0.02,0.95,869.88,-3.0,10.3
3.46,7.25,0.75,4.25,1.75,5.5,3.75,1.75,1.5,0.25,0.0,0.5,0.25,1.0,-0.98,0.33,2.39,886.25,12.2,48.2,4.75,2.5,5.0,7.25,9.5,8.0,3.5,5.5,2.75,5.0,2.75,1.5,2.25,0.14,0.08,0.95,921.04,-3.9,17.0
3.48,3.25,0.0,0.75,0.0,0.0,2.0,0.5,0.0,0.25,0.0,0.0,0.25,0.0,-0.92,-0.23,1.95,436.08,16.4,58.8,5.5,3.25,5.25,7.25,9.75,8.25,3.5,5.5,2.5,5.0,2.0,1.25,2.25,0.14,0.08,0.95,966.22,-4.2,21.3
3.5,1.5,0.0,0.0,0.0,0.0,1.75,0.0,0.0,0.25,0.0,0.25,0.25,0.25,-0.05,-0.05,1.08,176.81,3.8,27.1,5.75,3.25,5.25,8.75,11.0,8.25,3.5,5.25,2.25,4.75,2.5,1.25,2.25,0.14,0.02,1.02,1025.93,-4.6,23.3
3.52,1.25,0.0,0.5,0.0,0.0,1.5,1.5,1.25,0.25,0.0,1.25,0.25,1.5,-0.67,-0.8,2.58,0.0,3.3,-15.9,7.25,3.0,5.25,9.5,11.5,8.5,3.5,5.0,2.0,4.75,2.5,1.25,2.25,0.14,0.08,0.95,1088.59,-5.3,25.8
3.54,2.25,0.25,0.75,1.75,1.25,2.75,1.5,1.0,0.75,1.0,0.25,0.25,0.0,-1.17,-1.23,1.52,0.0,6.0,29.4,8.25,3.5,6.5,10.5,12.5,8.0,2.75,4.5,2.0,4.25,2.5,1.25,2.25,0.14,0.08,1.02,1172.19,-6.8,30.1
3.56,2.25,0.5,1.25,1.75,1.25,2.75,1.5,1.0,0.5,0.5,1.25,0.25,1.5,-0.86,-0.98,1.08,0.0,6.1,15.6,9.0,4.25,6.75,11.0,12.5,8.5,2.75,3.25,1.75,3.75,2.5,1.25,2.25,0.08,0.14,1.02,1248.47,-7.7,34.1
3.58,2.0,0.75,2.25,3.5,1.75,5.75,1.5,0.0,2.5,1.25,1.25,1.25,1.5,-0.48,-0.61,0.39,43.6,5.4,13.8,9.75,4.75,7.0,12.0,13.5,8.25,2.25,4.5,1.5,3.75,2.5,1.25,1.25,0.08,0.14,1.02,1323.35,-7.9,36.9
3.6,2.0,0.5,2.5,2.75,1.25,2.5,1.75,1.0,0.5,0.25,0.5,0.75,1.5,-0.42,-0.42,0.14,85.79,9.6,21.9,9.5,3.75,7.5,11.0,12.5,7.5,1.75,3.25,0.0,2.25,1.5,0.0,1.25,0.14,0.2,1.08,1297.32,-9.2,46.0
3.62,3.0,0.5,1.5,0.5,0.0,3.0,0.0,5.0,1.0,0.0,0.75,1.0,1.5,-0.42,-0.3,0.33,122.61,1.8,-1.1,10.5,5.0,7.75,11.0,12.0,0.0,1.75,3.25,0.75,1.25,1.5,0.0,1.5,0.08,0.27,1.14,1205.29,-14.3,49.8
3.64,2.0,0.5,2.5,0.0,0.0,5.75,5.5,4.0,0.5,0.0,1.25,0.75,0.0,-0.42,-0.3,0.64,160.87,4.6,15.4,11.5,3.5,8.0,12.5,12.5,7.5,1.75,3.25,0.5,0.75,2.25,1.25,1.25,0.08,0.33,1.2,1181.8,-10.9,45.5
3.66,1.5,0.75,2.25,1.75,3.5,2.25,2.0,0.5,0.25,0.0,0.5,0.75,1.5,-0.42,-0.3,0.7,195.58,7.8,27.0,11.0,3.75,9.25,14.0,13.0,7.5,2.25,0.0,1.0,2.75,1.5,1.0,0.5,0.39,0.39,1.33,1195.04,-12.2,49.4
3.68,1.5,0.5,1.75,1.75,0.0,2.75,1.75,1.0,0.5,0.0,0.5,0.5,1.5,-0.48,-0.11,0.77,212.15,7.8,15.1,12.0,5.25,9.25,14.0,12.5,6.5,2.5,0.0,1.0,2.25,2.25,0.25,1.25,0.39,0.45,1.52,1244.12,-13.1,50.8
3.7,1.5,0.5,2.25,1.75,0.0,2.75,1.5,1.0,0.25,0.25,0.75,1.25,1.5,-0.42,-0.05,0.95,227.39,8.3,8.0,11.0,3.5,9.5,11.5,10.5,5.75,2.75,0.0,1.0,2.25,1.5,0.25,0.5,0.45,0.64,1.64,1196.2,-14.1,52.0
3.72,1.25,0.5,2.25,2.25,0.0,2.75,3.0,1.0,0.25,0.0,0.75,0.5,1.5,-0.42,0.08,1.14,229.57,9.7,16.9,9.25,2.25,9.25,7.75,9.5,2.75,3.5,0.0,1.0,1.0,1.75,0.25,1.5,0.58,0.77,2.89,1051.71,-16.0,48.8
3.74,1.0,0.25,2.25,2.75,0.0,2.75,2.25,1.0,0.25,0.0,1.0,1.0,1.5,-0.42,0.2,1.39,220.26,9.0,9.6,7.5,1.5,7.0,5.0,5.5,3.75,1.75,0.0,1.0,1.0,0.75,0.25,0.5,0.95,0.7,2.58,795.35,-15.7,51.4
3.76,1.25,0.5,2.25,2.75,1.25,2.75,1.75,1.0,0.25,0.0,0.75,0.75,1.5,-0.55,0.33,1.77,217.84,7.9,19.1,5.0,0.25,5.0,0.75,4.75,1.75,1.25,0.25,0.75,0.75,0.5,0.5,0.0,0.83,0.2,2.2,513.08,-16.0,47.9
3.78,1.0,0.5,2.25,2.25,0.75,2.5,1.5,1.0,0.25,0.0,0.5,0.5,1.5,-0.73,0.58,2.2,209.47,7.9,18.6,1.25,0.5,1.75,1.25,1.75,1.5,0.75,0.25,0.5,0.75,0.25,0.0,0.0,0.14,-0.05,1.7,283.38,-10.0,40.0
3.8,0.5,0.5,2.25,2.5,0.0,2.25,1.5,1.0,0.25,0.0,0.5,0.5,1.5,-0.92,1.27,2.58,196.06,8.4,13.7,1.5,0.5,0.5,0.5,1.5,1.0,0.5,0.25,0.0,0.25,0.25,0.0,0.25,0.58,-0.86,2.77,128.58,-8.0,44.5
3.82,0.75,0.75,2.25,1.75,0.75,2.5,2.0,0.75,0.25,0.25,0.5,0.25,1.5,-1.05,2.33,3.08,186.21,7.6,19.1,2.25,1.5,0.25,3.0,1.25,2.5,0.5,0.25,1.0,2.25,0.25,1.0,0.25,0.45,-1.23,2.08,58.55,-5.3,21.6
3.84,0.75,0.5,2.5,2.5,0.0,1.75,1.5,1.0,0.25,1.0,0.5,0.25,1.5,-0.92,3.89,2.39,187.2,8.7,11.0,1.25,0.5,0.0,0.75,1.25,1.25,0.5,1.5,0.25,1.25,0.25,0.25,1.0,0.58,-0.61,0.89,11.27,1.4,1.4
3.86,0.75,0.0,2.25,2.0,0.75,1.5,1.5,1.0,0.25,1.5,0.75,0.75,1.5,-0.17,5.52,-1.11,187.34,6.7,-1.6,1.25,0.25,0.0,0.5,1.25,1.0,0.5,0.25,0.25,0.75,0.25,0.25,0.0,0.33,-0.48,0.27,0.0,-4.1,26.0
3.88,0.75,0.25,2.25,1.75,0.0,2.5,1.5,1.25,0.25,1.25,1.25,1.75,1.75,4.7,7.95,-3.05,196.06,5.3,-12.1,1.25,0.25,0.0,1.0,1.25,1.25,0.5,0.0,0.25,1.25,0.25,0.0,0.0,-0.05,-0.42,0.33,0.0,-3.4,28.5
3.9,0.5,0.25,2.25,1.0,0.0,1.75,1.0,1.25,0.25,2.75,1.25,3.25,3.75,-1.67,-0.8,3.52,221.39,1.6,-42.2,1.5,0.5,0.0,0.5,1.25,1.25,0.5,0.25,0.25,0.75,0.0,0.0,0.0,-0.23,-0.3,0.52,0.0,-4.2,40.7
3.92,0.5,0.25,2.25,1.5,0.0,2.75,1.0,2.0,1.0,4.75,2.5,5.75,6.0,0.14,0.45,0.45,285.89,-0.4,-52.4,1.25,0.0,0.0,0.25,1.25,0.0,0.5,0.25,0.25,0.25,0.25,0.25,0.0,-0.11,-0.3,0.7,0.0,-11.0,29.8
3.94,0.0,0.25,0.0,2.5,0.0,4.0,1.75,4.25,1.25,5.5,3.0,7.5,6.75,-0.98,0.52,6.33,377.81,-4.2,-58.7,0.5,0.0,0.0,0.25,1.25,1.25,0.5,0.25,0.25,1.0,0.25,0.25,0.0,0.14,-0.23,0.7,0.0,2.7,8.0
3.96,0.5,0.0,2.5,1.75,1.25,3.5,0.5,5.5,1.5,5.25,4.0,7.25,8.75,0.02,0.2,1.45,510.16,-2.3,-53.0,1.0,0.5,0.0,0.5,1.25,1.0,0.5,0.25,0.25,0.75,0.25,0.0,0.5,0.2,-0.17,0.77,11.33,-1.8,20.9
3.98,0.75,0.0,0.0,0.75,2.25,3.5,1.25,4.75,0.75,3.25,2.0,6.75,7.75,-0.05,0.08,1.08,560.27,-5.3,-55.0,1.25,0.25,0.0,0.5,1.25,1.25,0.5,0.25,0.5,1.0,0.25,0.25,0.25,0.08,-0.05,0.95,52.6,-2.2,15.9
4.0,0.5,0.0,1.75,1.5,1.25,3.75,0.5,5.5,1.0,5.75,2.5,6.75,7.75,-0.17,0.02,0.95,606.37,-4.1,-52.8,1.25,0.0,0.0,0.0,1.25,1.25,0.5,0.0,0.25,0.75,0.25,0.25,0.0,0.08,0.08,1.45,74.56,-2.3,22.9
4.02,0.5,0.0,2.0,1.25,1.25,4.0,0.5,5.5,1.0,6.0,2.5,6.75,7.75,-0.17,-0.05,0.95,618.84,-4.2,-52.4,1.25,0.25,0.0,0.0,1.25,1.0,0.5,0.25,0.25,1.0,0.25,0.0,0.0,0.14,0.2,1.52,86.27,-1.9,24.6
4.04,0.5,0.0,2.25,1.75,1.25,4.0,1.25,5.75,1.0,6.0,1.5,6.75,7.75,-0.17,-0.05,0.89,632.95,-3.7,-48.8,1.25,0.0,0.0,0.5,1.25,1.0,0.5,0.0,0.25,0.5,0.25,0.25,0.0,0.2,0.33,1.83,83.24,-5.6,30.2
4.06,0.5,0.0,2.25,1.75,1.25,4.5,1.5,6.0,1.25,6.25,2.0,6.75,7.25,-0.23,-0.05,0.89,641.32,-3.6,-47.2,0.5,0.5,0.0,0.5,1.25,1.25,0.5,0.0,0.25,0.75,0.25,0.0,0.0,0.39,0.58,2.77,79.18,-0.2,29.7
4.08,0.5,0.0,2.25,1.75,1.25,5.25,1.5,6.5,1.5,6.25,2.0,6.5,7.25,-0.23,0.02,0.95,655.48,-4.1,-45.3,0.75,0.25,0.0,0.25,1.25,1.25,0.5,0.0,0.5,0.5,0.25,0.0,0.0,0.64,1.2,3.02,84.58,-1.6,29.7
4.1,0.5,0.25,2.25,2.25,1.25,5.5,1.75,6.75,1.5,6.25,1.25,6.0,7.0,-0.11,0.02,0.95,651.45,-4.1,-40.8,1.0,0.0,0.0,0.25,1.25,0.0,0.5,0.25,0.25,0.0,0.25,0.0,0.0,0.89,2.33,3.27,77.67,-11.4,42.2
4.12,0.5,0.5,2.25,3.25,1.75,6.75,1.5,6.75,2.0,7.5,1.5,6.0,7.0,-0.17,-0.05,0.95,664.63,-4.2,-36.0,1.25,0.0,0.0,0.0,1.25,0.5,0.25,0.25,0.25,1.0,0.25,0.0,0.0,1.02,3.89,1.64,74.53,-3.0,19.8
4.14,0.0,0.25,3.25,1.75,5.75,6.75,2.75,7.25,1.5,6.0,2.0,5.75,6.0,-0.17,-0.05,0.95,674.84,-3.5,-26.8,0.5,0.0,0.0,0.0,1.25,0.0,0.25,0.0,0.5,1.75,0.5,0.0,0.25,0.77,6.45,-1.23,71.8,0.8,-17.8
4.16,0.0,0.0,3.0,3.25,4.75,7.5,3.0,7.5,2.0,5.0,3.0,3.75,6.25,-0.23,0.02,0.95,680.53,-3.3,-23.3,2.0,0.5,0.0,0.5,1.0,1.75,0.0,0.0,1.0,3.5,0.25,1.25,0.0,-6.23,7.95,-1.73,107.31,-0.8,-6.4
4.18,2.5,0.25,3.75,3.25,5.25,8.5,3.75,8.0,2.0,6.25,3.0,3.5,5.25,-0.23,0.02,0.95,726.68,-1.3,-13.3,0.5,0.0,0.5,0.25,3.0,1.0,0.5,1.75,1.0,3.75,2.5,2.5,2.25,1.02,-1.23,3.39,172.96,2.2,-39.9
4.2,2.5,0.5,3.75,3.25,6.75,9.25,3.75,8.0,2.0,5.0,2.75,3.25,5.25,-0.17,0.02,0.95,781.1,-1.4,-7.9,1.25,0.0,0.0,0.25,1.25,0.0,0.25,0.0,0.75,5.5,1.5,5.25,5.0,0.33,0.83,0.83,242.3,1.9,-70.4
4.22,2.5,1.75,3.75,3.75,7.75,9.25,4.25,8.0,2.0,5.0,2.0,2.75,3.75,-0.17,0.02,0.95,842.1,-0.7,1.2,1.25,0.0,0.0,0.0,1.0,3.5,0.25,0.0,1.5,7.75,4.0,6.5,6.25,2.39,0.7,5.27,336.82,4.0,-64.8
4.24,2.5,1.75,3.75,5.25,7.75,9.75,4.25,8.0,2.0,4.75,1.5,2.0,3.75,-0.23,0.02,0.95,877.45,-0.5,5.6,2.5,1.0,2.5,3.0,5.0,5.75,1.75,5.5,3.5,9.25,8.25,8.0,8.5,-0.55,0.27,1.14,594.42,0.4,-35.8
4.26,2.25,2.0,3.75,5.25,8.75,10.0,4.5,7.75,2.0,4.5,1.5,2.0,3.5,-0.23,0.02,0.95,910.95,-0.5,7.8,1.5,1.5,2.75,2.25,5.0,5.75,2.25,5.75,3.0,9.0,8.5,7.5,8.75,-0.17,0.02,1.02,848.66,0.9,-36.9
4.28,4.0,1.75,4.75,5.5,9.25,10.0,4.75,7.5,2.0,4.0,1.5,2.0,2.5,-0.17,0.02,0.95,942.63,1.6,14.6,2.75,1.25,2.75,2.75,5.0,5.75,2.25,6.0,2.75,8.75,8.25,7.25,8.75,0.27,0.02,0.95,1065.16,0.3,-33.6
4.3,4.75,2.0,4.75,7.0,11.5,10.5,5.0,7.5,2.5,3.5,0.75,1.75,2.75,-0.17,-0.05,0.95,1006.46,2.1,20.1,2.75,1.5,2.75,3.0,5.25,6.25,2.0,6.0,2.75,8.5,7.5,6.5,8.0,0.08,0.02,0.89,1159.54,0.4,-29.4
4.32,5.75,2.25,4.75,8.5,13.0,11.0,5.5,7.5,2.25,3.5,1.5,2.0,2.0,-0.17,0.02,0.95,1104.85,3.0,23.5,2.75,1.5,2.75,2.75,5.25,6.5,2.0,5.75,2.25,7.75,6.5,5.25,7.5,0.2,0.02,0.95,1155.93,0.7,-25.6
4.34,6.25,3.0,5.25,8.75,13.5,11.0,5.75,7.25,2.0,2.75,1.5,1.75,1.75,-0.17,0.08,0.95,1198.77,3.9,28.0,2.75,2.0,2.75,3.25,5.25,7.0,1.75,0.0,2.0,7.25,5.75,4.0,6.25,0.2,0.02,0.89,1048.31,-1.1,-15.9
4.36,7.75,3.5,6.25,11.0,14.5,11.5,5.75,7.25,2.0,2.75,1.5,1.75,1.75,-0.11,0.08,1.08,1317.9,5.1,31.5,2.5,1.5,2.75,2.75,6.0,7.5,1.75,0.0,2.0,6.75,4.75,3.25,5.5,0.33,0.08,0.89,933.32,-0.4,-11.8
4.38,9.0,3.5,6.25,12.0,15.0,12.0,5.25,7.25,2.0,2.75,1.25,1.75,1.75,-0.17,0.14,1.08,1402.87,5.4,33.4,2.25,1.75,2.75,3.25,6.75,7.75,2.0,0.0,2.0,6.5,4.5,2.5,4.0,0.14,0.02,0.95,834.73,-0.7,-3.8
4.4,10.5,3.5,7.75,13.0,15.5,12.0,5.5,6.75,1.75,2.75,1.75,1.75,2.0,-0.17,0.14,1.08,1494.15,6.7,35.0,2.25,1.75,2.75,3.25,7.0,7.75,2.0,0.0,2.25,5.75,4.0,2.5,3.25,0.14,0.02,0.95,746.54,-1.2,0.2
4.42,11.5,3.5,8.5,13.0,16.5,11.5,5.5,6.5,1.5,2.75,1.5,1.75,1.75,-0.17,0.2,1.14,1561.71,7.4,37.3,3.0,1.75,2.75,3.5,7.75,8.0,2.0,0.0,2.0,5.25,3.75,1.75,3.0,0.2,0.02,0.95,687.62,-1.6,7.3
4.44,13.0,5.0,8.75,13.0,16.0,11.0,5.5,6.0,1.25,2.75,1.5,1.75,1.75,-0.42,0.27,1.39,1622.7,8.4,40.1,3.0,1.75,2.75,4.0,8.25,8.0,2.0,0.0,2.0,5.0,3.25,1.25,2.25,0.2,0.08,0.95,642.67,-2.0,13.3
4.46,14.5,5.0,9.75,13.0,15.5,9.5,5.5,6.0,1.0,2.0,1.75,1.75,1.75,-0.48,0.33,1.52,1653.43,10.0,42.2,3.75,2.0,2.75,4.5,8.5,8.5,2.0,0.0,1.75,5.0,2.5,1.25,2.25,0.27,0.08,0.95,613.06,-2.2,17.9
4.48,14.5,5.0,9.0,11.0,13.0,8.5,6.25,5.0,1.0,2.5,1.5,1.75,1.75,-0.8,0.64,2.14,1620.41,10.7,41.8,4.0,2.25,2.75,5.5,9.5,8.75,2.25,0.0,1.75,4.75,2.5,1.25,2.25,0.2,0.08,0.89,611.89,-2.7,21.1
4.5,12.0,3.5,8.75,8.0,11.0,7.5,5.75,3.25,0.75,1.25,1.25,1.75,1.75,-0.92,0.83,3.02,1484.61,11.5,42.5,4.25,2.5,2.75,5.5,9.5,9.0,2.25,0.0,1.5,4.75,2.5,1.25,2.25,0.14,0.08,0.95,649.65,-2.7,22.2
4.52,7.5,0.5,6.25,4.0,6.25,2.5,5.0,1.5,0.25,0.0,0.25,0.25,1.25,-1.48,0.58,2.64,1103.97,15.8,49.0,4.25,2.5,2.75,5.75,11.0,9.0,2.25,0.0,1.5,4.0,2.5,1.25,2.25,0.14,0.08,1.02,693.93,-2.8,25.0
4.54,3.25,0.0,3.75,0.25,2.25,2.75,0.5,0.0,0.25,0.0,0.0,0.25,0.25,-1.11,-0.17,2.33,605.23,14.9,53.7,4.25,2.75,2.75,6.0,11.0,9.0,2.25,0.0,1.5,3.75,2.25,1.25,2.25,0.2,0.08,1.02,731.99,-3.0,26.6
4.56,2.25,0.0,0.0,0.0,1.25,2.25,0.0,1.0,0.25,0.0,0.5,1.0,0.25,-0.98,-0.05,2.02,271.17,1.9,15.3,5.5,3.0,2.75,7.25,11.5,9.0,2.0,0.0,1.5,3.75,2.5,1.25,2.25,0.2,0.08,0.95,788.01,-4.0,29.1
4.58,1.0,0.0,0.0,1.75,1.75,3.5,0.5,1.0,0.25,0.0,0.5,1.75,1.5,-1.48,-1.8,3.58,98.95,-1.8,-1.5,5.75,3.0,4.0,7.5,12.5,8.75,2.0,0.0,1.5,3.75,2.5,1.25,2.25,0.14,0.14,0.89,851.16,-5.0,30.8
4.6,2.25,0.5,0.0,1.75,1.75,3.0,1.5,1.25,0.25,0.0,1.0,0.5,0.0,-0.8,-0.86,1.52,0.0,4.6,30.9,6.75,3.5,4.75,8.75,12.5,9.0,1.75,4.5,1.5,3.5,2.5,1.0,2.25,0.08,0.14,0.95,957.88,-4.5,29.3
4.62,1.0,0.25,0.0,1.75,1.75,3.0,1.5,0.25,0.25,0.0,0.5,0.75,0.25,-0.55,-0.48,0.2,0.0,2.4,26.6,7.25,3.5,5.0,9.0,12.5,9.25,1.5,3.25,1.25,3.5,2.25,1.0,1.5,0.08,0.14,0.95,1036.96,-5.4,33.9
4.64,2.0,0.5,1.0,2.75,1.75,2.75,1.5,1.25,0.25,0.0,1.75,0.25,0.0,-0.36,-0.36,-0.11,0.0,7.9,30.9,8.0,1.5,5.0,9.0,14.0,6.75,1.5,4.5,1.0,3.75,2.5,1.0,1.5,0.08,0.2,1.08,1089.8,-5.8,30.9
4.66,1.25,0.5,1.75,1.75,1.75,1.75,1.5,1.0,0.25,0.0,1.25,0.5,1.25,-0.17,-0.36,0.2,0.0,8.0,16.4,8.25,4.25,5.0,8.0,14.0,9.0,1.0,4.5,1.0,3.0,2.0,1.0,2.25,0.08,0.2,1.08,1135.03,-4.9,34.2
4.68,1.25,0.25,0.0,1.75,1.75,2.0,1.5,1.25,0.25,0.0,0.75,0.75,1.5,-0.11,-0.42,0.52,2.47,1.9,5.9,9.0,4.75,3.25,0.0,14.0,9.5,0.5,2.5,0.75,0.75,1.75,0.75,2.0,0.14,0.27,1.14,1053.41,-3.6,41.0
4.7,1.25,0.5,0.0,1.75,1.75,2.75,0.5,1.0,0.25,0.0,1.0,0.25,1.5,-0.23,-0.42,0.89,33.56,-0.1,12.6,8.25,2.75,1.75,9.5,12.5,10.0,0.5,0.0,0.5,1.5,1.5,1.0,0.75,0.08,0.33,1.2,981.12,-5.5,46.2
4.72,1.0,0.25,0.0,1.75,1.25,2.5,1.5,1.0,0.25,0.0,0.5,0.5,1.5,-0.36,-0.23,0.7,72.37,0.5,8.0,8.25,3.75,1.0,7.5,12.5,2.5,0.0,0.0,0.25,1.75,1.5,0.25,2.25,0.39,0.39,1.2,843.31,-8.1,45.6
4.74,1.25,0.25,1.0,1.5,1.25,2.75,1.5,1.0,0.25,0.5,0.5,1.25,1.5,-0.42,-0.11,0.7,125.0,3.1,3.6,7.0,2.5,0.0,6.75,12.5,9.0,0.25,0.0,0.25,1.75,1.25,0.0,0.5,0.64,0.52,2.14,753.04,-2.9,48.4
4.76,1.0,0.25,1.75,1.75,0.0,2.75,1.25,5.25,0.25,0.0,0.0,1.0,0.25,-0.55,-0.11,0.83,176.49,1.1,5.9,6.0,1.75,0.0,5.25,11.5,8.0,0.5,0.0,0.25,0.0,0.25,0.0,0.0,0.83,0.52,2.39,621.4,-3.1,57.7
4.78,1.0,0.25,1.5,1.75,1.25,2.75,1.5,1.0,0.25,0.25,1.25,0.5,1.5,-0.48,0.02,1.27,203.28,4.5,8.5,5.0,1.25,0.0,3.25,8.25,6.5,0.0,0.0,0.0,0.0,0.25,0.0,0.0,1.33,1.02,2.95,481.11,-2.7,58.6
4.8,3.0,0.25,1.75,4.5,0.75,6.0,1.25,4.25,2.25,0.5,0.0,0.0,0.0,-0.48,0.14,1.45,251.59,3.6,27.4,2.75,0.0,0.0,0.0,6.75,0.0,0.0,0.0,0.75,1.0,0.25,0.25,0.0,1.52,-0.11,2.52,306.34,-4.9,41.2
4.82,2.5,0.0,1.75,0.0,0.0,0.0,0.0,0.0,0.0,0.0,0.0,0.0,0.0,-0.55,0.33,2.27,207.72,36.4,81.8,0.0,0.5,0.0,0.0,5.0,2.0,0.25,0.0,0.25,0.5,1.5,0.0,0.0,0.2,0.08,2.2,188.44,3.9,25.8
4.84,0.75,0.25,0.0,2.5,0.0,2.75,0.0,0.0,0.25,0.25,1.5,1.25,0.0,-0.48,0.64,2.64,186.25,4.1,6.3,0.5,0.5,0.0,0.0,3.5,1.25,0.25,0.0,0.25,0.5,0.25,0.25,0.25,0.2,0.27,3.45,71.69,2.1,30.1
4.86,1.0,0.25,1.5,2.5,0.75,1.5,1.5,1.0,0.75,1.25,0.5,0.0,1.5,-0.55,1.02,2.95,167.15,6.3,8.1,0.25,0.0,0.0,0.0,2.75,0.5,0.25,0.25,0.25,1.0,0.0,0.25,0.0,0.95,-0.23,2.89,0.0,4.1,15.7
4.88,1.25,0.25,1.25,2.0,1.25,1.75,1.25,1.25,0.25,0.5,0.5,1.5,1.5,-0.8,1.64,2.95,174.9,5.5,1.7,1.0,0.0,0.0,0.0,1.5,1.25,0.25,0.0,0.25,0.75,0.0,0.0,0.0,0.64,-1.11,2.02,0.0,0.9,32.5
4.9,0.75,0.25,1.5,2.0,0.5,1.5,1.5,1.0,0.25,0.25,0.5,1.5,1.5,-1.36,1.95,1.45,176.75,7.4,-2.3,1.25,0.5,0.0,0.75,1.25,1.0,0.25,0.0,0.25,1.0,0.0,0.0,0.25,0.02,-0.48,1.39,0.0,-3.4,32.4
4.92,0.5,0.25,2.0,1.75,0.5,2.75,1.5,1.0,0.25,1.0,0.5,1.0,1.75,-1.36,3.45,0.95,192.03,3.6,-1.8,1.0,0.25,0.0,0.5,1.25,0.0,0.0,0.25,0.25,1.0,0.25,0.0,0.25,0.02,-0.05,1.2,0.0,-4.3,16.1
4.94,1.0,0.25,1.75,1.75,0.75,2.75,0.75,1.25,0.25,0.25,0.5,0.25,1.75,0.89,5.7,-0.11,192.66,3.6,10.7,1.5,1.5,0.25,1.5,4.75,1.5,0.75,1.0,0.75,2.25,0.25,1.0,1.5,0.27,0.39,1.2,39.96,-0.7,11.4
4.96,1.0,0.25,1.25,1.75,0.75,1.0,0.5,1.25,0.25,1.25,0.5,1.75,1.5,2.64,3.52,0.08,186.86,4.8,-12.6,1.75,2.0,0.0,0.75,5.0,1.25,0.5,1.5,0.75,3.25,0.25,1.0,1.5,0.64,0.77,1.39,129.65,0.9,6.8
4.98,0.5,0.25,1.75,1.75,0.0,1.5,1.25,2.5,0.25,2.75,1.5,2.5,1.75,-0.36,-0.42,0.77,201.18,2.1,-30.8,1.5,1.5,0.25,1.25,5.0,1.25,0.5,1.5,1.0,2.75,0.25,1.0,1.25,0.95,1.08,1.58,202.42,0.0,8.4
5.0,0.0,0.0,1.0,0.5,0.0,4.75,0.25,4.5,0.0,5.0,0.25,4.0,5.25,-0.3,1.08,-0.61,253.42,-9.5,-53.4,2.0,2.25,0.25,2.0,5.0,1.0,0.5,1.5,0.75,2.25,0.25,1.0,1.25,1.27,1.52,1.7,253.16,-2.4,18.1
5.02,1.25,0.25,0.0,1.75,1.25,5.75,0.0,6.25,0.25,7.75,1.25,8.25,7.75,-0.05,0.33,1.77,373.37,-7.1,-52.6,0.5,0.25,0.25,0.5,4.5,0.5,0.5,1.5,0.25,0.5,1.5,0.0,0.5,1.64,2.08,1.7,251.14,0.2,12.6
5.04,1.75,0.5,0.0,3.25,3.75,7.0,0.0,8.0,2.75,10.5,5.5,11.0,10.5,-0.23,-0.05,2.2,650.61,-4.6,-48.3,0.75,0.5,0.0,0.0,1.25,0.5,0.25,0.0,0.25,0.75,0.25,0.0,0.25,2.02,3.14,1.83,206.24,-2.0,21.8
5.06,2.5,0.25,2.5,3.25,4.25,7.5,2.75,9.0,4.0,10.5,8.75,11.0,11.5,0.33,0.08,1.27,1022.15,-1.7,-42.9,0.75,0.0,0.0,0.5,1.25,1.25,0.25,0.25,0.25,0.25,0.25,0.0,0.25,2.14,4.2,1.64,150.83,0.0,25.9
5.08,2.5,0.25,3.25,3.25,4.75,7.5,3.0,9.0,3.5,10.0,8.25,9.25,11.0,0.08,-0.05,1.08,1290.6,-1.5,-38.5,0.5,0.0,0.0,1.25,1.25,0.5,0.25,0.25,0.25,0.75,0.25,0.25,0.5,2.02,4.14,0.14,113.85,-1.9,6.6
5.1,2.5,0.25,3.75,3.25,5.0,8.25,3.0,8.75,2.75,8.5,6.0,7.5,9.75,-0.17,-0.17,0.89,1362.35,-1.6,-31.4,0.5,0.0,0.0,0.5,1.25,1.25,0.25,0.25,0.25,0.75,0.25,0.0,0.25,1.64,3.95,-0.61,89.77,2.9,13.5
5.12,3.0,0.75,4.5,3.25,5.75,9.0,3.75,8.5,2.0,7.5,4.5,5.75,7.75,-0.17,-0.05,0.89,1342.16,-0.9,-19.8,0.5,0.25,0.0,0.5,1.25,1.25,0.0,0.25,0.25,1.0,0.25,0.0,0.5,0.52,3.14,0.08,80.74,4.0,8.0
5.14,3.75,1.25,4.75,3.25,5.75,9.75,4.75,8.5,1.75,6.25,3.0,4.75,6.25,-0.23,0.02,0.89,1273.46,-0.1,-9.9,0.75,0.5,0.0,0.5,1.25,0.75,0.0,0.25,0.25,0.0,0.25,0.25,0.5,-0.48,2.33,0.52,71.4,-2.8,24.1
5.16,4.0,1.5,4.75,3.25,7.0,10.0,5.0,8.5,2.0,5.0,2.75,3.5,5.25,-0.55,0.02,0.83,1194.58,0.3,-2.0,1.0,0.5,0.0,0.5,1.25,1.25,0.0,0.0,0.0,0.5,0.25,0.0,0.25,-0.8,1.7,0.95,62.59,-1.3,36.8
5.18,5.0,1.75,5.5,4.75,7.75,11.0,5.0,8.5,2.0,4.75,1.75,3.25,4.25,-0.17,0.14,0.89,1169.65,1.4,6.9,1.25,0.0,0.0,0.5,1.25,1.25,0.0,0.0,0.0,0.5,0.25,0.0,0.5,-0.86,1.14,0.7,50.55,-1.0,26.8
5.2,5.5,1.75,5.75,5.25,7.75,11.5,5.75,8.75,2.0,4.75,2.5,3.25,3.75,-0.11,0.08,0.89,1170.45,2.1,8.3,0.75,0.25,0.0,0.5,1.25,1.25,0.25,0.0,0.25,0.75,0.25,0.0,0.5,-0.86,0.83,-0.05,57.53,0.7,17.4
5.22,5.5,1.75,6.25,5.25,9.0,12.0,5.75,9.0,2.0,4.75,2.25,3.25,3.75,-0.23,0.02,1.02,1181.14,2.0,10.0,1.25,0.5,0.0,0.5,1.25,1.25,0.0,0.0,0.25,0.5,0.25,0.0,0.25,-0.8,0.58,-0.42,68.22,-3.0,36.0
5.24,5.75,1.75,6.0,5.25,9.25,13.0,5.5,9.25,1.75,4.75,1.5,3.0,3.75,-0.3,0.08,1.02,1176.19,1.3,11.9,1.25,0.0,0.0,0.5,1.25,1.25,0.0,0.0,0.25,0.75,0.25,0.25,0.5,-0.92,0.45,-0.73,80.81,-1.1,14.8
5.26,5.75,1.75,5.5,5.25,9.5,13.5,5.0,9.25,1.5,4.75,1.5,2.0,3.75,-0.36,0.08,1.02,1151.27,0.5,13.8,1.25,0.25,0.0,0.5,1.25,1.25,0.0,0.0,0.25,0.75,0.25,0.0,0.5,-0.8,0.14,-0.92,96.18,-1.2,23.1
5.28,6.25,2.5,5.25,5.0,11.5,14.5,3.75,9.25,1.5,4.75,0.25,2.0,3.0,-0.3,0.2,1.02,1142.22,0.0,19.4,1.25,0.0,0.0,0.5,1.25,1.25,0.0,0.0,0.25,1.0,0.25,0.25,0.25,-0.98,-0.3,-0.86,102.65,-1.0,16.3
5.3,6.25,3.5,4.75,2.25,11.5,14.5,2.25,9.25,1.0,4.75,1.5,2.0,3.75,-0.36,0.27,0.95,1138.55,-1.2,15.8,1.0,0.0,0.0,0.25,1.25,1.25,0.0,0.0,0.25,0.25,0.25,0.0,0.25,-1.17,-0.11,-0.67,95.1,-0.7,30.9
5.32,7.25,3.5,4.75,3.5,11.5,15.0,0.0,9.25,1.0,4.75,1.5,2.0,3.75,-0.42,0.33,1.02,1166.46,-1.0,17.7,1.0,0.0,0.0,0.0,1.25,0.5,0.25,0.0,0.25,0.75,0.25,0.0,0.5,-2.11,0.7,-1.48,86.44,-1.6,9.9
5.34,8.0,3.5,4.75,3.5,11.5,15.5,1.75,9.0,1.0,4.25,0.25,2.0,3.5,-0.48,0.39,0.95,1187.71,-0.4,21.7,0.5,0.25,0.0,0.5,1.25,0.0,0.25,0.0,0.25,0.25,0.25,0.0,0.25,-2.8,1.89,-1.8,74.79,-6.7,28.1
5.36,8.75,4.75,4.75,3.25,12.5,15.5,0.0,8.5,1.0,4.0,1.5,2.0,2.75,-0.48,0.52,1.14,1219.4,0.1,24.8,1.25,0.0,0.0,0.5,1.25,1.25,0.25,0.0,0.25,0.5,0.25,0.0,0.5,-2.61,2.64,-1.8,77.5,-2.1,24.1
5.38,9.0,5.0,4.75,3.25,13.0,14.5,0.0,8.0,0.5,3.25,1.25,1.75,2.25,-0.48,0.52,1.33,1218.65,0.8,29.4,1.25,0.25,0.0,1.0,1.25,1.0,0.25,0.0,0.25,0.75,0.25,0.0,0.5,-2.23,2.52,-1.23,86.78,-3.9,25.5
5.4,9.0,5.0,4.75,3.25,12.0,13.5,0.0,7.5,0.25,2.75,1.25,1.75,1.75,-0.67,0.7,1.52,1182.39,1.6,31.6,0.75,0.25,0.0,0.25,1.25,0.0,0.0,0.0,0.0,0.75,0.25,0.0,0.25,-1.92,2.58,-0.86,82.55,-3.7,21.3
5.42,9.0,5.0,4.75,2.25,10.5,11.5,0.5,6.75,0.0,2.25,0.0,1.75,2.0,-0.98,0.7,1.39,1082.77,2.5,34.2,0.5,0.0,0.0,1.25,1.25,0.0,0.25,0.25,0.25,0.5,0.25,0.0,0.5,-1.55,2.2,0.52,81.63,-4.8,13.8
5.44,8.0,3.5,3.75,3.0,7.75,9.25,0.5,4.75,0.0,2.5,0.5,1.75,1.75,-0.8,0.77,1.2,923.01,3.4,31.5,0.0,0.0,0.0,0.0,1.25,0.5,0.25,0.0,0.25,0.5,0.25,0.0,0.25,-2.05,2.27,0.7,67.66,5.3,0.9
5.46,5.5,1.75,1.75,2.75,5.75,6.75,0.0,0.0,0.0,0.5,0.0,1.25,1.75,-1.92,0.64,-0.73,665.43,4.6,41.1,0.5,0.0,0.0,0.5,1.25,0.75,0.0,0.0,0.25,0.75,0.25,0.0,0.5,-1.98,2.52,0.64,66.65,1.8,7.4
5.48,4.25,1.75,0.0,2.75,1.75,6.0,0.0,3.25,0.0,0.0,0.5,1.75,1.75,1.02,1.27,-2.3,443.94,0.6,20.4,1.0,0.0,0.0,0.25,1.25,1.25,0.0,0.0,0.0,0.75,0.25,0.0,0.25,-1.67,2.39,1.2,67.72,1.4,23.8
5.5,2.5,1.75,0.0,2.5,1.75,4.0,0.25,2.75,0.0,0.0,0.5,1.75,1.75,0.45,0.89,-2.36,289.94,0.5,13.7,0.5,0.25,0.0,0.25,1.0,0.25,0.0,0.0,0.0,0.5,0.25,0.0,0.25,-1.67,2.02,1.39,65.6,-1.8,21.3
5.52,2.5,1.75,0.25,2.75,3.5,4.0,0.25,2.5,0.25,0.0,0.5,1.75,1.5,0.14,2.83,-1.36,222.47,1.3,19.9,0.5,0.0,0.0,0.5,1.0,0.5,0.0,0.0,0.0,0.25,0.25,0.0,0.5,-1.36,1.33,1.39,62.11,-0.6,16.6
5.54,2.25,1.75,2.25,2.75,2.5,4.0,0.5,2.25,0.0,1.25,0.5,1.75,1.5,-0.36,3.14,-2.36,194.07,3.7,17.3,0.25,0.0,0.0,0.5,1.25,1.0,0.0,0.0,0.25,0.75,0.25,0.25,0.25,-0.67,0.89,0.89,64.9,3.4,4.6
5.56,2.25,1.75,2.25,2.75,1.25,4.0,0.5,1.75,0.0,0.75,0.0,1.75,1.5,-0.92,2.64,-0.98,182.21,5.1,20.6,0.5,0.25,0.0,0.5,1.0,0.0,0.0,0.0,0.25,1.0,0.25,0.0,0.25,-0.3,0.33,0.7,64.39,-2.6,7.6
5.58,2.25,1.75,2.25,3.0,1.25,3.0,0.25,1.75,0.0,0.0,0.25,1.5,1.5,-1.92,2.33,-0.92,172.55,7.3,24.7,1.0,0.0,0.0,0.5,1.0,1.0,0.0,0.0,0.25,1.0,0.25,0.0,0.25,-0.23,0.08,0.52,70.92,-0.4,15.8
5.6,2.25,1.25,1.75,2.75,1.25,4.0,0.5,1.75,0.25,1.5,0.5,1.75,1.75,-1.8,1.7,-0.8,175.87,3.3,9.8,0.5,0.0,0.0,0.0,1.25,0.75,0.0,0.0,0.0,0.75,0.25,0.0,0.5,0.02,-0.11,0.27,69.11,5.0,3.8
5.62,2.25,1.25,2.25,3.0,1.75,4.0,0.5,1.5,0.0,0.75,0.5,1.75,1.5,-1.23,1.08,-0.8,191.01,5.2,18.5,0.5,0.25,0.0,0.5,1.25,1.0,0.0,0.0,0.0,0.25,0.25,0.0,0.25,0.33,-0.3,0.08,71.76,0.5,33.2
5.64,1.75,1.25,2.25,2.5,1.25,3.25,0.5,1.0,0.0,1.0,0.0,1.75,1.5,-0.92,1.02,-0.42,200.33,5.6,16.4,1.0,0.0,0.0,0.0,1.0,0.75,0.0,0.0,0.25,0.5,0.25,0.0,0.5,0.58,-0.48,-0.23,71.12,-0.7,12.8
5.66,1.75,1.0,2.25,2.75,1.75,3.25,0.5,1.5,0.25,0.75,0.5,1.75,1.5,-0.86,0.89,-0.3,220.88,5.3,13.7,1.0,0.25,0.0,0.5,1.25,0.5,0.0,0.0,0.25,0.5,0.25,0.0,0.25,0.83,-0.67,-0.48,74.22,-4.8,30.1
5.68,1.25,0.75,2.25,2.5,1.25,3.25,0.5,1.25,0.0,0.5,0.0,1.75,1.5,-1.17,1.02,0.14,228.13,4.9,13.5,1.0,0.0,0.0,1.0,1.25,1.25,0.0,0.0,0.25,0.75,0.25,0.0,0.5,0.77,-0.86,-0.55,84.9,-0.8,20.2
5.7,1.25,0.25,2.25,1.75,1.75,3.0,0.5,1.25,0.0,1.0,0.5,1.75,1.5,-0.98,1.39,0.08,234.2,3.8,4.6,0.5,0.25,0.0,0.5,1.25,1.0,0.0,0.0,0.25,0.0,0.25,0.0,0.25,0.52,-0.92,-0.3,83.98,-0.9,35.3
5.72,1.0,0.5,1.0,2.5,1.25,2.75,0.25,1.0,0.0,1.25,0.0,1.75,1.75,-0.98,1.52,0.08,221.58,1.1,0.2,1.0,0.0,0.0,0.25,1.25,0.75,0.0,0.0,0.0,1.0,0.25,0.0,0.25,0.39,-0.86,-0.23,84.88,0.0,17.7
5.74,0.75,0.5,2.25,2.75,1.75,2.75,0.5,1.25,0.0,1.25,0.5,1.75,1.5,-0.86,1.58,0.14,223.58,3.9,5.1,1.0,0.0,0.0,0.5,1.0,1.25,0.0,0.0,0.0,0.5,0.25,0.25,0.75,0.39,-0.86,-0.3,86.07,0.4,10.0
5.76,1.25,0.5,2.25,2.75,1.25,3.0,0.25,1.0,0.0,1.25,0.5,1.75,1.25,-0.55,1.08,-0.05,221.61,5.0,8.7,0.5,0.0,0.0,0.5,1.0,1.25,0.0,0.0,0.25,0.0,0.25,0.0,0.25,0.45,-0.86,-0.3,80.15,0.8,29.9
5.78,1.0,0.5,2.25,3.0,1.75,2.75,0.25,1.0,0.0,1.25,0.5,1.75,1.5,-0.48,0.77,-0.11,229.23,4.6,7.6,1.25,0.0,0.0,0.5,1.25,1.0,0.0,0.0,0.0,1.0,0.25,0.25,0.25,0.45,-0.92,-0.23,83.21,-1.5,17.9
5.8,1.25,0.5,2.25,1.5,1.75,1.75,0.5,1.0,0.0,1.0,0.5,1.75,1.5,-0.48,0.52,-0.11,225.5,6.1,3.7,1.0,0.0,0.0,0.5,1.25,1.25,0.0,0.0,0.0,0.75,0.25,0.0,0.25,0.45,-0.98,-0.11,85.32,0.5,25.5
5.82,1.0,0.5,2.25,2.5,1.75,3.0,0.25,1.0,0.0,1.0,0.5,1.5,1.5,-0.36,0.2,-0.11,227.57,4.1,9.4,0.75,0.0,0.25,0.5,1.0,1.25,0.25,0.0,0.0,0.5,0.25,0.0,0.25,0.45,-1.05,-0.05,85.94,-1.5,27.4
5.84,0.75,0.5,2.25,1.75,0.0,3.0,0.0,0.25,0.0,0.5,0.0,1.75,0.25,-0.23,-0.23,-0.11,201.66,7.8,17.9,1.0,0.0,0.0,0.5,0.5,1.25,0.25,0.0,0.0,0.75,0.25,0.0,0.25,0.39,-1.05,0.02,82.35,-0.8,20.2
5.86,0.75,0.5,2.25,2.5,1.75,2.75,0.5,1.5,0.0,0.0,0.5,0.25,1.75,-0.11,-0.67,-0.05,201.22,4.2,19.6,0.75,0.0,0.0,0.5,1.25,1.0,0.0,0.5,0.0,0.75,0.0,0.0,0.25,0.33,-1.11,0.08,81.61,3.2,20.3
5.88,1.25,0.5,2.25,2.75,1.75,2.75,0.5,1.0,0.0,0.0,0.5,1.5,1.5,-0.11,-1.05,0.2,205.91,6.6,16.4,1.25,0.0,0.0,0.5,1.0,1.25,0.0,0.0,0.0,0.5,0.25,0.0,0.5,0.33,-1.17,0.08,81.69,-1.2,25.3
5.9,0.75,0.5,2.25,2.75,1.75,3.0,0.5,1.0,0.0,0.0,0.5,1.75,1.5,-0.11,-1.36,0.52,217.31,5.4,12.4,1.0,0.0,0.0,0.5,1.25,1.25,0.0,0.0,0.0,0.5,0.25,0.0,0.5,0.27,-1.17,0.14,83.11,0.4,23.7
5.92,0.25,0.5,2.75,2.75,1.25,2.75,0.5,0.25,0.0,0.0,0.0,1.75,0.75,-0.05,-1.61,0.58,214.77,8.6,22.2,1.25,0.0,0.0,0.0,1.0,1.0,0.0,0.0,0.0,0.5,0.25,0.0,0.25,0.2,-1.11,0.2,79.48,-1.5,29.0
5.94,1.0,0.25,2.25,2.75,1.25,2.75,0.5,1.0,0.0,0.0,0.5,1.75,1.5,0.14,-1.61,0.52,217.31,6.5,10.4,0.75,0.5,0.0,0.0,1.0,0.5,0.0,0.0,0.0,0.0,0.25,0.0,0.25,0.08,-1.05,0.2,72.11,-4.6,45.1
5.96,0.75,0.5,2.25,2.75,1.25,2.75,0.25,1.0,0.0,0.0,0.5,1.5,1.5,0.27,-1.55,0.45,214.46,5.9,12.4,0.75,0.0,0.0,0.5,1.25,0.75,0.0,0.0,0.0,0.25,0.25,0.0,0.25,0.02,-0.98,0.2,66.64,-1.8,32.7
5.98,1.0,0.25,2.25,2.75,1.25,2.75,0.25,1.0,0.0,0.5,0.5,1.5,1.5,0.39,-1.36,0.33,214.9,5.5,9.4,0.75,0.0,0.0,0.5,1.25,1.0,0.0,0.0,0.0,0.5,0.25,0.0,0.25,-0.11,-0.92,0.2,66.18,0.3,26.9
6.0,0.5,0.5,2.25,2.5,1.75,2.75,0.0,1.0,0.0,0.0,0.5,1.5,1.5,0.52,-1.23,0.27,216.11,4.7,11.8,0.75,0.0,0.0,0.5,1.25,0.5,0.0,0.0,0.0,0.0,0.25,0.0,0.25,-0.23,-0.8,0.14,64.25,-4.6,40.0
6.02,0.75,0.5,2.25,2.5,1.75,2.75,0.25,1.0,0.0,0.0,0.5,1.5,1.5,0.45,-1.11,0.14,219.74,5.3,13.2,0.5,0.25,0.0,0.5,1.0,1.0,0.0,0.0,0.25,0.5,0.25,0.0,0.25,-0.36,-0.73,0.14,66.2,0.5,22.1
6.04,0.75,0.5,2.25,2.5,1.25,2.75,0.25,1.0,0.0,0.0,0.5,1.5,1.5,0.27,-1.05,0.02,219.21,5.7,11.6,1.0,0.0,0.0,0.5,1.25,0.5,0.0,0.0,0.0,0.5,0.25,0.0,0.25,-0.61,-0.61,0.08,67.93,-3.9,29.9
6.06,0.75,0.5,2.25,1.75,1.75,2.75,0.25,1.0,0.0,0.0,0.25,1.5,1.5,0.08,-0.92,-0.05,215.65,4.6,12.2,1.0,0.75,0.0,0.25,1.0,0.5,0.0,0.0,0.0,0.75,0.25,0.0,0.25,-0.67,-0.55,0.02,72.45,-4.0,32.5
6.08,0.75,0.5,1.5,2.75,1.75,2.25,0.5,1.0,0.0,0.0,0.0,0.25,1.5,-0.17,-0.86,-0.17,208.19,4.4,25.9,0.75,0.0,0.0,0.5,1.0,0.75,0.0,0.0,0.0,1.0,0.25,0.0,0.25,-0.8,-0.48,0.02,73.08,0.6,13.6
6.1,0.75,0.5,0.25,2.25,0.5,2.75,0.0,0.25,0.0,0.0,0.0,1.75,0.25,-0.36,-0.8,-0.3,180.24,3.0,17.5,0.75,0.0,0.0,0.5,1.0,0.5,0.0,0.0,0.0,0.25,0.25,0.0,0.25,-0.86,-0.42,0.02,69.27,-3.8,30.9
6.12,0.5,0.25,0.25,0.25,0.5,1.5,0.0,0.0,0.0,0.0,0.0,0.25,0.0,-0.48,-0.73,-0.36,129.68,0.5,44.1,1.0,0.0,0.0,0.25,1.25,1.25,0.0,0.0,0.0,0.75,0.25,0.0,0.25,-0.92,-0.36,0.14,72.35,1.4,23.8
6.14,1.0,0.5,1.5,2.75,1.75,2.75,0.5,1.0,0.0,0.0,0.0,1.75,1.5,-0.67,-0.67,-0.48,141.71,4.4,13.8,0.5,0.0,0.0,0.5,1.25,0.75,0.0,0.0,0.0,0.5,0.25,0.0,0.25,-0.98,-0.23,0.27,70.86,1.0,22.5
6.16,0.5,0.25,2.25,0.25,1.25,1.5,0.5,1.0,0.0,0.0,0.25,0.25,1.5,-0.8,-0.55,-0.55,133.97,5.3,11.2,0.5,0.0,0.0,0.5,1.25,1.25,0.0,0.0,0.0,0.0,0.25,0.5,0.25,-0.98,-0.17,0.33,73.99,0.6,20.0
6.18,0.5,0.25,0.0,0.25,0.5,1.5,0.0,0.0,0.0,0.0,0.0,0.25,0.0,-0.92,-0.42,-0.67,108.8,-2.4,42.8,0.5,0.0,0.0,0.0,1.25,0.5,0.0,0.0,0.0,0.5,0.25,0.0,0.25,-1.11,-0.11,0.52,67.52,2.3,16.2
6.2,0.5,0.25,0.0,0.25,0.5,1.5,0.0,0.0,0.0,0.0,0.0,1.5,0.0,-0.92,-0.3,-0.8,78.96,0.6,0.4,0.75,0.0,0.0,0.5,1.0,0.75,0.0,0.0,0.0,0.5,0.25,0.0,0.25,-1.17,0.02,0.58,66.07,-1.1,24.6
6.22,0.5,0.75,2.25,2.5,1.25,2.5,0.5,1.0,0.0,0.0,0.0,1.75,1.5,-0.86,-0.17,-0.86,109.88,5.9,12.4,0.5,0.0,0.0,0.5,1.0,1.25,0.0,0.0,0.0,0.75,0.25,0.0,0.25,-1.17,0.08,0.58,66.04,3.9,16.3
6.24,0.75,0.25,2.0,2.25,0.75,2.5,0.25,1.0,0.0,0.0,0.0,1.5,1.5,-0.67,-0.05,-0.86,134.18,5.4,8.9,0.75,0.0,0.0,0.5,1.0,1.0,0.0,0.0,0.0,0.75,0.25,0.0,0.25,-1.17,0.2,0.58,69.66,1.0,19.6
6.26,0.75,0.25,2.25,2.25,1.25,2.5,0.5,1.0,0.0,0.0,0.0,1.75,1.5,-0.55,0.02,-0.8,171.2,5.9,9.7,0.75,0.0,0.0,0.5,1.0,1.0,0.0,0.0,0.0,1.25,0.25,0.0,0.25,-1.17,0.33,0.64,73.87,2.4,10.2
6.28,0.75,0.25,2.25,2.75,1.25,2.5,0.5,1.0,0.0,0.25,0.0,1.25,1.5,-0.48,0.02,-0.73,196.05,5.9,14.2,0.5,0.0,0.0,0.5,1.0,1.25,0.0,0.0,0.25,0.75,0.25,0.0,0.25,-1.05,0.33,0.64,76.76,3.1,13.5
6.3,1.0,0.25,2.25,2.5,1.25,2.75,0.5,1.0,0.0,0.5,0.0,1.25,1.5,-0.61,-0.11,-0.67,212.48,5.3,13.5,0.5,0.0,0.0,0.5,1.25,0.75,0.0,0.0,0.25,0.75,0.25,0.25,0.25,-0.92,0.39,0.64,78.27,0.6,7.6
6.32,0.75,0.25,2.25,2.75,1.25,2.5,0.5,1.0,0.0,0.5,0.0,1.0,1.5,-0.61,-0.3,-0.55,217.59,5.4,14.8,0.5,0.0,0.0,0.25,1.25,0.75,0.0,0.0,0.0,0.75,0.25,0.0,0.25,-0.86,0.33,0.64,75.04,3.1,14.3
6.34,0.75,0.25,2.25,2.75,1.25,2.75,0.5,1.0,0.0,0.5,0.0,1.25,1.5,-0.67,-0.42,-0.36,225.36,5.0,13.0,0.25,0.0,0.0,0.0,1.25,1.25,0.0,0.0,0.0,0.0,0.25,0.0,0.25,-0.8,0.27,0.64,68.27,7.3,27.9
6.36,0.75,0.5,2.25,1.75,1.25,3.0,0.5,1.0,0.0,0.5,0.5,1.5,1.5,-0.67,-0.48,-0.17,228.67,4.1,6.7,0.25,0.25,0.0,0.75,1.0,1.25,0.0,0.0,0.0,0.5,0.25,0.0,0.25,-0.92,0.2,0.89,67.52,3.1,24.2
6.38,0.25,0.5,2.25,1.75,1.75,2.5,0.5,1.0,0.0,0.75,0.5,1.5,1.5,-0.67,-0.48,0.14,224.51,3.4,3.4,0.5,0.0,0.0,0.0,1.0,1.25,0.0,0.0,0.25,0.5,0.25,0.0,0.25,-1.11,0.08,1.02,66.3,5.0,13.3
6.4,0.75,0.25,2.25,2.5,0.5,2.5,0.25,1.0,0.0,0.75,0.0,1.5,2.0,-0.8,-0.61,0.39,225.81,4.6,1.1,1.25,0.75,0.0,0.25,1.0,0.75,0.0,0.0,0.0,1.0,0.25,0.0,0.25,-1.23,-0.05,1.02,75.32,-3.3,30.5
6.42,0.5,0.25,2.25,0.25,1.25,1.5,0.5,1.0,0.0,0.0,0.0,0.25,1.5,-0.98,-0.55,0.64,201.92,5.1,13.5,0.0,0.0,0.0,0.5,1.0,0.5,0.0,0.0,0.25,1.0,0.25,0.0,0.25,-1.11,-0.11,0.95,72.51,4.9,-5.9
6.44,0.75,0.25,1.25,2.5,0.75,2.5,0.5,1.0,0.0,0.5,0.0,1.25,1.5,-1.23,-0.3,0.52,187.29,3.0,5.9,0.5,0.0,0.0,0.25,1.25,0.75,0.0,0.0,0.25,1.0,0.25,0.0,0.25,-1.11,-0.17,1.02,73.6,2.9,6.6
6.46,0.75,0.5,2.25,2.5,1.25,2.75,0.5,1.0,0.0,0.5,0.5,1.75,1.5,-1.11,-0.05,0.39,187.56,5.3,7.0,0.5,0.0,0.0,0.0,1.0,1.0,0.0,0.0,0.0,0.75,0.25,0.0,0.25,-1.17,-0.23,1.08,66.93,5.7,9.5
6.48,0.75,0.25,2.25,2.5,1.25,2.5,0.5,1.0,0.0,0.75,0.5,1.5,1.5,-1.11,0.08,0.39,201.17,5.2,5.6,0.25,0.0,0.0,0.5,1.25,0.5,0.0,0.0,0.0,0.75,0.25,0.0,0.25,-0.98,-0.3,1.08,64.75,2.8,11.0
6.5,0.5,0.25,2.25,2.75,1.25,2.5,0.25,1.0,0.0,0.5,0.5,1.25,1.5,-1.17,0.2,0.27,208.65,5.0,8.2,0.5,0.0,0.0,0.5,1.0,1.0,0.0,0.0,0.0,0.5,0.25,0.0,0.25,-0.67,-0.36,1.02,62.85,2.1,20.9
6.52,0.75,0.25,2.25,3.25,1.25,1.75,0.25,1.0,0.0,0.25,0.5,1.5,1.5,-1.17,0.39,0.27,213.2,7.7,9.6,0.5,0.0,0.0,0.0,1.0,0.5,0.0,0.0,0.0,1.0,0.25,0.0,0.25,-0.48,-0.36,1.02,60.85,4.1,0.4
6.54,0.25,0.25,2.25,2.5,0.75,1.75,0.25,0.5,0.0,0.5,0.5,1.25,1.5,-0.98,0.45,0.39,202.63,7.0,3.8,0.5,0.0,0.0,0.5,1.0,1.0,0.0,0.0,0.0,0.75,0.25,0.0,0.25,-0.36,-0.36,1.02,63.27,2.9,15.4
6.56,0.75,0.25,2.25,2.5,1.25,2.5,0.5,1.0,0.0,0.25,0.5,1.5,1.5,-0.92,0.58,0.39,202.52,5.9,8.4,0.5,0.0,0.0,0.5,1.25,0.75,0.0,0.0,0.0,0.5,0.25,0.0,0.25,-0.17,-0.3,1.02,64.66,1.0,22.5
6.58,0.5,0.25,2.25,2.5,1.25,2.5,0.5,1.0,0.0,0.5,0.5,1.5,1.5,-0.98,0.58,0.14,203.93,5.0,5.5,0.5,0.0,0.0,0.25,1.0,0.5,0.0,0.0,0.0,0.75,0.25,0.0,0.25,0.02,-0.23,1.02,63.15,1.7,9.8
6.6,0.5,0.0,2.25,0.25,1.25,1.0,0.5,1.0,0.0,0.0,0.0,0.25,0.0,-1.11,0.58,0.08,176.81,11.0,36.4,0.5,0.0,0.0,0.25,1.0,1.0,0.0,0.0,0.0,0.75,0.25,0.0,0.25,0.2,-0.23,1.08,62.15,4.2,12.6
6.62,0.5,0.25,0.0,0.25,0.0,1.0,0.25,0.0,0.0,0.0,0.0,0.25,0.0,-1.36,0.7,-0.11,124.24,3.7,41.1,0.5,0.0,0.0,0.25,1.0,0.0,0.0,0.0,0.0,0.5,0.25,0.0,0.25,0.33,-0.23,1.08,56.24,-2.8,13.3
6.64,0.5,0.25,0.0,0.25,0.0,1.0,0.25,0.0,0.0,0.0,0.0,0.25,0.0,-1.61,0.7,-0.17,71.94,3.7,41.1,0.5,0.0,0.0,0.25,1.0,0.5,0.0,0.0,0.0,0.0,0.25,0.0,0.25,0.45,-0.23,1.08,50.93,-1.8,32.3
6.66,0.5,0.25,0.0,0.25,0.0,1.0,0.5,0.0,0.0,0.0,0.0,0.0,0.0,-1.73,0.58,-0.23,31.92,4.7,57.6,0.5,0.0,0.0,0.0,1.0,0.25,0.0,0.0,0.25,0.5,0.25,0.0,0.25,0.39,-0.17,1.14,48.32,-0.4,7.0
6.68,0.5,0.0,0.0,0.25,0.0,0.0,0.5,0.0,0.0,0.0,0.0,0.25,0.0,-1.73,0.52,-0.17,0.0,25.3,32.9,0.75,0.0,0.0,0.25,1.25,0.5,0.0,0.0,0.0,0.0,0.25,0.25,0.25,0.2,-0.05,1.2,50.45,-4.0,28.4
6.7,0.5,0.0,0.25,0.5,0.0,0.25,0.5,0.0,0.0,0.0,0.0,0.25,0.0,-1.61,0.45,-0.05,0.0,20.1,40.0,0.75,0.0,0.0,0.75,1.25,0.0,0.0,0.0,0.0,0.5,0.25,0.0,0.25,0.2,0.02,0.95,55.29,-6.2,27.2
6.72,0.5,0.0,0.0,0.25,0.0,1.0,1.0,0.0,0.0,0.0,0.0,0.25,0.0,-1.48,0.33,-0.05,0.0,7.0,32.8,0.5,0.0,0.0,0.0,1.25,0.25,0.0,0.0,0.0,0.75,0.25,0.0,0.25,0.39,0.08,0.89,56.42,1.9,8.2
6.74,0.5,0.25,0.0,0.25,0.0,1.0,1.0,0.0,0.0,0.0,0.0,0.25,0.0,-1.36,0.2,-0.05,0.0,7.6,39.2,0.5,0.0,0.0,0.5,1.0,0.5,0.0,0.0,0.0,0.5,0.25,0.0,0.25,0.52,0.08,0.83,57.77,-0.5,19.2
6.76,0.5,0.25,0.0,0.25,0.0,1.0,1.0,0.0,0.0,0.0,0.0,0.25,0.0,-1.17,0.08,-0.05,6.14,7.6,39.2,1.0,0.0,0.0,0.0,1.0,0.25,0.0,0.0,0.0,0.5,0.25,0.0,0.25,0.58,0.08,0.89,56.28,-4.4,23.1
6.78,0.5,0.25,0.0,0.25,0.0,1.0,0.5,0.0,0.0,0.0,0.0,0.25,0.0,-0.98,0.02,0.02,13.86,5.1,40.4,2.0,1.5,0.0,0.75,1.25,0.5,0.0,0.0,0.0,2.5,0.25,0.0,0.25,0.58,-0.05,0.83,86.84,-4.6,26.2
6.8,0.5,0.25,0.0,0.25,0.0,1.0,0.25,0.0,0.0,0.0,0.0,0.25,0.0,-0.8,-0.05,0.08,17.91,3.7,41.1,0.75,0.25,0.0,0.5,1.0,0.25,0.0,0.0,0.0,0.25,0.25,0.0,0.25,0.7,-0.3,0.7,86.07,-6.2,35.5
6.82,0.5,0.0,0.0,0.25,0.0,0.5,0.25,0.0,0.0,0.0,0.0,0.25,0.0,-0.67,-0.17,0.2,21.16,10.2,33.7,1.25,0.0,0.0,0.5,1.0,0.75,0.0,0.0,0.0,0.5,0.25,0.25,0.25,0.64,-0.36,0.64,92.2,-4.8,24.7
6.84,0.5,0.25,0.0,0.25,0.0,1.0,0.25,0.0,0.0,0.0,0.0,0.25,0.0,-0.61,-0.3,0.27,31.71,3.7,41.1,1.25,0.25,0.0,0.5,1.25,0.75,0.0,0.0,0.25,0.5,0.25,0.0,0.25,0.39,-0.48,0.64,89.25,-4.9,33.2
6.86,0.5,0.25,0.0,0.25,0.0,0.25,0.25,0.0,0.0,0.0,0.0,0.25,0.0,-0.61,-0.36,0.33,32.24,15.5,44.2,1.0,0.25,0.0,0.5,1.0,0.0,0.0,0.0,0.0,0.5,0.25,0.25,0.25,0.27,-0.61,0.83,85.17,-8.3,23.6
6.88,0.5,0.25,0.0,0.25,0.0,1.0,0.25,0.0,0.0,0.0,0.0,0.25,0.0,-0.55,-0.36,0.39,34.5,3.7,41.1,1.25,0.0,0.0,0.5,1.25,0.5,0.0,0.0,0.0,2.0,0.25,0.75,0.25,0.2,-0.67,0.95,90.23,-1.2,-6.0
6.9,0.5,0.25,0.0,0.25,0.0,0.5,0.0,0.0,0.0,0.0,0.0,0.25,0.0,-0.55,-0.3,0.39,32.42,9.0,44.0,1.25,0.0,0.0,0.5,1.25,0.0,0.0,0.0,0.0,0.5,0.25,0.0,1.0,-0.05,-0.61,1.39,89.11,-5.2,10.7
6.92,0.5,0.25,0.0,0.25,0.5,0.75,0.0,0.0,0.0,0.0,0.0,0.25,0.0,-0.55,-0.3,0.45,36.76,3.2,45.2,1.25,0.0,0.0,0.5,1.0,0.5,0.75,0.75,0.0,0.75,0.75,0.0,0.25,0.83,-4.05,1.95,95.36,-4.3,10.3
6.94,0.5,0.25,0.0,0.25,0.0,0.75,0.25,0.0,0.0,0.0,0.0,0.25,0.0,-0.61,-0.17,0.39,35.19,6.7,41.9,0.5,0.0,0.0,0.75,1.0,0.5,0.0,0.0,0.0,1.25,0.75,1.0,0.25,-0.67,-0.11,1.14,94.14,-1.4,-19.2
6.96,0.5,0.25,0.0,0.25,0.0,1.25,0.5,0.0,0.0,0.0,0.0,0.25,0.0,-0.55,-0.11,0.39,39.11,2.6,39.8,1.25,0.0,0.0,0.5,1.25,0.0,0.0,0.0,0.0,1.0,0.75,0.5,0.5,-0.23,0.02,1.52,96.03,-5.8,-3.3
6.98,0.5,0.25,0.0,0.25,0.0,1.0,0.5,0.0,0.0,0.0,0.0,0.0,0.0,-0.36,-0.11,0.33,38.95,4.7,57.6,1.25,0.0,0.0,0.5,1.25,1.25,0.0,0.0,0.0,1.0,0.75,0.75,0.5,-0.05,-0.05,1.52,100.91,-1.3,-0.9
7.0,0.5,0.25,0.0,0.5,0.0,1.0,0.5,0.0,0.0,0.0,0.0,0.0,0.0,-0.23,-0.05,0.52,41.39,6.0,57.6,1.0,0.0,0.0,0.5,1.25,1.25,0.0,0.0,0.0,0.75,1.25,0.5,0.25,0.39,0.08,0.52,104.04,-1.7,1.2
7.02,0.5,0.0,0.0,0.25,0.0,1.0,0.25,0.0,0.0,0.0,0.0,0.25,0.25,-0.23,-0.05,0.95,40.65,0.7,17.7,1.25,0.0,0.0,0.5,1.0,1.25,0.0,0.0,0.0,0.75,1.5,0.5,0.5,1.02,-0.23,0.02,107.72,-2.8,-4.2
7.04,0.5,0.25,0.0,0.25,0.0,1.5,0.25,0.0,0.0,0.0,0.0,0.0,0.0,-0.11,-0.17,1.14,42.61,-1.7,54.6,1.25,0.0,0.0,0.5,1.25,0.75,0.0,0.0,0.0,1.5,1.5,0.75,0.25,0.64,-0.23,0.77,116.29,-3.0,-11.1
7.06,0.5,0.25,0.0,0.25,0.0,1.5,0.0,0.0,0.0,0.0,0.0,0.25,0.0,-0.05,-0.36,1.2,44.17,-2.3,40.5,1.25,0.0,0.0,0.5,1.25,0.75,0.0,0.25,0.0,1.25,0.5,0.5,1.0,0.08,-0.23,0.83,117.34,0.0,-8.4
