time,left pressure 0[N/cm虏],left pressure 1[N/cm虏],left pressure 2[N/cm虏],left pressure 3[N/cm虏],left pressure 4[N/cm虏],left pressure 5[N/cm虏],left pressure 6[N/cm虏],left pressure 7[N/cm虏],left pressure 8[N/cm虏],left pressure 9[N/cm虏],left pressure 10[N/cm虏],left pressure 11[N/cm虏],left pressure 12[N/cm虏],left acceleration X[g],left acceleration Y[g],left acceleration Z[g],left total force[N],left center of pressure X[mm],left center of pressure Y[mm],right pressure 0[N/cm虏],right pressure 1[N/cm虏],right pressure 2[N/cm虏],right pressure 3[N/cm虏],right pressure 4[N/cm虏],right pressure 5[N/cm虏],right pressure 6[N/cm虏],right pressure 7[N/cm虏],right pressure 8[N/cm虏],right pressure 9[N/cm虏],right pressure 10[N/cm虏],right pressure 11[N/cm虏],right pressure 12[N/cm虏],right acceleration X[g],right acceleration Y[g],right acceleration Z[g],right total force[N],right center of pressure X[mm],right center of pressure Y[mm]
0.02,0.5,0.25,0.25,0.0,1.25,0.5,0.25,1.5,0.75,0.5,0.5,0.5,0.5,2.08,1.58,1.64,82.72,-0.5,-12.1,3.5,0.0,0.0,0.0,1.0,1.75,0.0,0.25,1.0,2.25,0.0,0.0,0.0,0.02,-0.3,0.95,41.94,-4.7,23.0
0.04,0.25,0.5,0.25,1.0,3.0,1.0,0.5,1.5,1.0,2.75,0.25,1.0,0.0,2.33,1.89,1.14,117.45,-2.0,-4.2,1.25,0.0,0.0,0.0,1.0,3.0,0.0,0.25,0.5,0.25,0.0,0.0,0.0,0.27,-1.11,0.7,0.0,4.8,36.6
0.06,0.5,0.5,0.0,1.25,0.75,2.5,1.5,3.0,3.0,3.5,1.5,3.75,2.75,1.64,1.89,0.89,191.27,-2.0,-42.4,0.5,0.0,0.0,0.25,1.0,2.5,0.25,1.0,0.5,0.0,0.0,0.0,0.25,0.14,-0.67,0.95,0.0,7.7,19.6
0.08,1.0,0.5,0.0,1.0,0.0,0.25,0.0,5.75,4.5,6.5,5.75,5.25,5.75,-0.05,0.27,1.02,310.22,-1.8,-64.1,0.5,0.0,0.0,1.25,1.5,2.75,0.25,0.25,1.25,2.0,0.75,0.0,0.75,-0.11,-0.42,0.7,0.0,4.0,-3.7
0.1,0.75,0.0,1.0,0.0,0.0,2.0,1.0,6.0,4.25,5.75,5.75,4.5,6.0,0.02,-0.05,0.95,435.41,-2.4,-60.9,0.25,0.0,0.0,0.0,1.0,1.75,0.25,0.25,0.5,0.0,0.0,0.0,0.0,0.02,-0.42,0.64,0.0,7.1,29.6
0.12,1.0,0.5,1.5,2.0,0.0,2.75,0.5,5.25,4.25,5.75,4.75,3.75,5.75,-0.11,0.08,0.89,541.36,-1.1,-46.9,0.0,0.0,0.0,0.0,1.0,2.0,0.25,0.25,0.25,0.25,0.0,0.0,0.0,0.2,-0.36,0.52,0.0,12.3,23.3
0.14,2.0,0.5,0.0,2.0,2.5,3.0,0.75,6.0,4.5,4.25,4.25,4.5,5.75,-0.17,0.14,0.95,609.0,-1.6,-39.2,0.0,0.0,0.0,0.0,0.0,1.5,0.25,0.25,0.25,0.0,0.0,0.0,0.0,0.33,-0.36,0.58,0.0,14.6,15.9
0.16,1.5,0.25,1.0,1.25,0.5,2.5,1.75,6.75,5.25,7.75,5.75,5.75,6.5,-0.11,0.14,0.95,687.99,-1.4,-52.7,0.0,0.0,0.0,0.0,1.0,1.0,0.25,0.25,0.5,0.0,0.0,0.0,0.0,0.45,-0.3,0.7,0.0,6.6,23.1
0.18,2.0,0.5,2.5,0.25,0.0,2.75,1.0,7.0,6.25,8.75,7.25,7.0,8.25,-0.11,0.08,0.89,796.55,-0.5,-54.8,0.0,0.0,0.0,0.0,0.5,1.25,0.25,0.25,0.5,1.75,0.0,0.0,0.0,0.58,-0.17,0.77,12.45,11.5,-19.7
0.2,2.0,0.75,1.5,0.0,1.75,1.75,1.25,7.5,6.5,8.5,7.5,6.75,8.25,-0.05,0.02,0.95,895.67,-0.9,-53.7,0.0,0.0,0.0,0.0,1.0,1.0,0.25,0.25,0.25,0.0,0.0,0.0,0.0,0.77,-0.11,0.77,22.1,8.3,28.7
0.22,0.75,0.0,0.0,0.0,1.75,1.75,2.0,7.75,6.0,8.75,8.25,6.75,8.5,-0.11,0.08,0.95,957.76,-3.0,-63.1,0.75,0.0,0.25,1.25,1.25,2.75,0.5,0.5,0.75,1.75,0.75,0.25,1.0,1.02,-0.05,0.77,76.01,2.6,-3.7
0.24,1.25,0.25,2.5,2.25,0.0,3.0,2.0,8.0,6.75,9.75,8.25,7.5,8.75,-0.11,0.08,0.95,1021.8,-0.4,-53.5,0.5,0.0,0.25,1.5,1.25,2.5,0.25,0.5,1.0,1.75,0.75,0.25,1.25,1.33,0.14,0.95,117.62,2.8,-8.5
0.26,1.25,0.5,1.0,2.25,2.25,3.25,3.25,8.25,7.0,9.5,7.75,7.0,8.0,-0.11,0.08,0.95,1049.7,-1.2,-48.4,0.5,0.0,0.5,1.25,1.25,2.75,0.5,0.5,0.75,1.75,0.75,0.25,1.25,1.64,0.33,1.02,155.14,2.7,-6.6
0.28,0.0,0.5,3.0,2.25,0.0,3.25,2.0,8.25,7.0,9.75,8.25,7.0,8.25,-0.11,0.08,0.95,1054.19,-0.8,-53.4,0.75,0.0,0.25,0.5,1.25,0.5,0.5,0.25,0.5,0.0,0.75,0.0,1.0,1.77,0.45,1.02,149.22,-5.0,2.9
0.3,1.0,0.5,2.25,2.25,1.75,3.5,2.0,8.25,7.0,9.75,8.5,7.5,9.0,-0.11,0.08,0.95,1066.01,-0.9,-50.0,0.75,0.0,0.0,1.75,0.0,2.75,0.25,0.25,0.75,0.0,0.0,0.0,0.0,1.33,1.77,1.52,137.71,-0.8,36.5
0.32,1.25,0.5,2.5,1.75,2.25,4.0,2.0,8.25,7.0,9.75,8.25,7.25,8.5,-0.11,0.08,0.95,1071.26,-1.0,-47.4,0.5,0.0,0.0,0.5,0.25,0.75,0.25,0.25,0.5,0.0,0.0,0.0,0.25,1.58,1.33,0.7,101.42,-3.3,19.9
0.34,1.25,0.5,3.0,2.25,4.5,4.0,3.0,8.25,7.0,9.25,8.25,7.0,8.25,-0.11,0.08,0.95,1094.47,-0.2,-40.5,0.0,0.0,0.75,0.0,1.5,2.75,0.25,0.25,0.5,0.5,0.25,0.0,1.0,1.08,2.39,0.7,105.23,6.3,4.3
0.36,0.75,0.5,2.5,2.25,2.5,4.0,2.5,8.25,7.0,8.75,8.25,6.5,8.25,-0.11,0.08,0.95,1074.45,-0.8,-45.4,0.5,0.0,0.0,1.75,1.0,1.25,0.25,0.25,0.5,0.5,0.75,0.0,0.0,0.89,3.27,0.45,103.5,-3.3,20.2
0.38,1.25,0.5,2.75,2.25,1.25,3.75,3.25,8.25,7.0,8.75,8.0,6.25,7.75,-0.11,0.08,0.95,1035.95,0.0,-45.1,1.5,0.0,0.0,2.25,1.25,2.25,0.0,0.75,1.25,2.25,0.75,0.25,1.25,1.58,3.58,0.45,144.07,0.3,-3.3
0.4,2.0,0.5,2.75,2.25,2.25,4.0,3.5,8.25,7.25,8.75,7.75,6.25,7.5,-0.11,0.08,0.95,995.11,0.3,-40.7,1.25,1.25,1.5,2.0,3.5,5.0,0.75,2.0,1.75,2.25,1.0,0.25,1.5,0.27,-0.11,0.95,218.05,0.5,10.8
0.42,1.75,0.75,2.75,2.25,2.5,4.0,3.5,8.25,7.25,9.25,8.25,6.25,7.25,-0.11,0.08,0.95,977.99,0.2,-40.5,2.0,1.25,1.25,3.0,5.0,5.75,0.0,3.5,3.0,3.5,1.5,0.25,2.25,0.08,0.2,0.95,311.23,1.5,4.8
0.44,2.0,0.5,3.0,2.25,2.25,4.0,3.5,8.25,7.5,9.0,8.25,6.25,7.25,-0.11,0.08,0.95,975.95,0.6,-40.4,0.75,0.5,1.75,1.25,5.0,5.25,0.0,4.5,3.5,2.25,3.0,0.5,2.25,0.08,0.14,0.95,387.96,2.4,-7.1
0.46,2.0,0.5,3.0,2.25,4.5,4.25,3.5,8.25,7.5,8.75,8.25,6.25,7.5,-0.11,0.08,0.95,991.8,0.3,-36.5,3.0,1.5,1.75,2.75,3.75,5.75,1.0,4.75,5.5,5.5,3.25,1.5,3.0,0.08,0.14,0.95,507.33,-0.4,-9.7
0.48,0.25,0.5,2.75,2.25,5.0,4.25,3.5,8.25,7.5,9.0,7.5,6.75,7.5,-0.11,0.08,0.95,996.14,-0.7,-39.8,3.25,1.0,2.75,3.0,5.0,6.0,1.5,5.75,6.25,5.75,4.5,1.75,4.0,0.08,0.14,0.95,644.07,-1.0,-11.8
0.5,0.5,0.5,2.75,2.25,1.75,4.0,3.5,8.25,7.5,9.25,7.75,6.75,7.25,-0.11,0.08,0.95,984.56,-0.3,-45.4,3.25,1.75,1.5,2.75,5.0,6.25,1.25,6.5,6.75,6.75,5.25,2.25,4.75,0.14,0.14,0.95,781.82,0.4,-17.1
0.52,1.0,0.5,2.75,2.25,2.25,4.25,3.5,8.25,7.5,9.25,8.25,7.0,8.0,-0.11,0.08,0.95,986.36,-0.2,-44.4,3.25,1.5,2.75,3.0,5.25,6.25,1.5,6.5,6.75,6.75,6.0,2.5,5.25,0.14,0.14,0.95,902.49,-0.5,-17.1
0.54,1.0,0.5,2.0,2.25,2.25,4.25,3.25,8.25,7.5,9.5,8.25,7.25,8.25,-0.11,0.08,0.95,988.49,-0.8,-46.5,3.25,1.5,2.75,3.0,5.0,6.25,1.5,6.25,6.75,6.75,6.0,2.5,5.25,0.08,0.14,0.95,975.05,-0.6,-17.3
0.56,0.75,0.5,2.25,2.25,2.25,4.25,1.0,8.25,7.25,9.25,7.75,7.75,8.25,-0.11,0.08,0.95,990.19,-1.4,-48.1,3.25,1.5,2.75,3.0,5.0,6.25,1.75,6.0,6.75,6.75,5.75,2.5,5.25,0.08,0.14,0.95,1000.88,-0.7,-16.9
0.58,0.25,0.5,2.75,2.25,1.75,4.0,1.0,8.25,7.25,9.0,7.75,7.5,8.25,-0.11,0.08,0.95,980.64,-1.2,-49.2,3.25,1.75,2.75,3.0,5.0,6.25,1.75,6.5,7.0,6.5,5.75,2.25,5.0,0.08,0.14,0.95,991.42,-0.8,-15.6
0.6,1.5,0.5,0.0,2.25,1.25,4.0,0.0,8.0,6.75,8.75,8.25,7.0,8.25,-0.11,0.08,0.95,951.45,-2.7,-53.2,3.25,1.75,2.75,3.0,5.25,6.25,2.0,6.5,7.25,6.0,6.0,2.25,4.75,0.08,0.14,0.95,977.25,-1.1,-14.5
0.62,2.0,0.5,2.5,2.25,1.75,4.0,1.5,7.5,6.25,7.75,8.0,7.0,7.5,-0.05,0.08,0.95,917.91,0.1,-43.8,3.5,1.75,2.75,3.25,5.25,6.25,2.5,6.5,7.75,5.75,5.75,2.25,4.5,0.08,0.14,0.95,953.68,-1.7,-12.8
0.64,2.0,0.5,1.5,0.0,2.25,3.25,0.25,6.75,4.75,7.0,5.75,5.25,6.5,-0.05,0.14,0.95,806.94,-2.0,-46.5,4.5,1.75,3.0,3.25,5.5,6.25,2.5,6.5,7.75,5.5,5.75,2.0,3.75,0.08,0.14,0.95,934.3,-2.6,-8.3
0.66,0.5,0.75,2.25,0.75,0.75,3.0,0.0,5.25,4.75,6.0,2.75,4.5,5.5,0.52,0.27,0.95,662.62,-2.0,-46.2,5.0,1.75,3.5,3.25,5.75,6.25,3.0,6.25,8.0,5.25,5.5,1.5,3.75,0.08,0.14,0.95,926.45,-3.4,-4.9
0.68,0.75,0.5,2.5,0.25,1.75,2.5,0.0,5.25,3.5,5.0,4.25,3.75,4.75,1.27,0.52,0.95,529.64,-1.1,-42.7,5.5,1.75,5.0,3.5,6.25,6.25,3.0,5.75,8.0,4.75,5.25,1.5,3.5,0.08,0.14,0.95,933.62,-4.9,0.0
0.7,0.25,0.5,2.5,0.5,0.0,1.75,0.75,3.5,2.75,5.0,3.0,3.0,3.75,0.77,0.83,1.08,399.49,-0.1,-47.0,5.75,2.0,5.25,5.25,6.75,6.25,3.5,5.75,8.0,4.75,5.0,1.75,3.0,0.08,0.14,0.95,952.39,-5.8,4.2
0.72,0.0,0.5,2.25,0.25,1.75,1.75,0.0,3.25,2.5,4.25,3.0,2.25,2.75,0.14,0.64,1.39,317.43,-0.9,-38.2,6.25,2.0,5.25,5.25,6.75,6.25,3.75,5.75,8.0,4.25,4.5,1.25,2.75,0.08,0.14,0.95,969.84,-6.2,7.7
0.74,0.0,0.5,2.25,0.25,1.25,0.25,0.0,3.5,1.75,2.75,2.5,1.25,2.5,-0.05,0.64,1.02,249.83,0.5,-37.8,7.0,2.0,6.75,5.5,7.0,6.5,4.0,5.5,7.75,3.75,4.5,1.75,2.25,0.08,0.14,0.95,1004.81,-7.7,11.6
0.76,0.0,0.0,0.25,0.0,0.0,0.25,0.0,2.5,1.5,2.75,1.25,1.75,0.75,0.02,0.39,0.77,171.29,-4.0,-64.4,7.75,2.0,6.75,7.25,7.75,6.5,4.5,5.25,7.5,3.25,4.0,1.25,2.25,0.08,0.14,0.95,1044.76,-8.5,17.1
0.78,0.0,0.0,0.0,0.0,0.0,0.25,0.0,1.75,1.25,2.75,1.0,0.75,0.75,0.02,0.27,0.83,92.21,-6.6,-65.6,8.0,2.25,7.5,7.25,8.25,6.75,4.5,4.75,7.0,3.25,3.5,1.0,2.25,0.08,0.14,0.95,1086.47,-8.8,20.7
0.8,0.0,0.0,0.0,0.0,1.75,0.25,0.0,1.75,1.25,1.5,1.5,0.5,0.5,-0.05,0.27,0.89,38.9,-4.0,-36.1,8.5,2.5,7.75,7.5,8.25,6.5,4.75,4.5,6.75,3.0,3.25,0.75,2.25,0.08,0.14,0.95,1114.63,-9.5,23.5
0.82,0.0,0.25,0.25,0.5,2.5,0.25,0.0,2.75,1.0,0.75,2.25,0.5,2.0,-0.17,0.14,0.83,36.81,-2.9,-30.7,8.75,2.5,8.75,9.0,9.0,6.75,4.75,3.5,6.5,2.75,3.0,0.25,2.25,0.08,0.14,0.95,1148.87,-10.5,28.5
0.84,0.75,0.0,2.25,0.0,2.25,0.25,0.0,2.75,1.0,2.0,2.0,0.5,1.5,-0.3,0.14,0.89,68.92,2.4,-19.8,9.5,2.5,8.75,9.0,9.5,6.75,4.75,3.5,6.0,3.0,2.75,0.25,2.25,0.08,0.14,0.95,1178.28,-10.5,29.9
0.86,0.25,0.0,0.0,0.0,0.0,0.25,0.0,1.5,1.0,2.0,0.5,0.5,0.5,-0.3,0.14,0.95,67.69,-6.0,-56.4,9.5,3.0,9.25,10.5,9.5,6.75,4.5,2.75,5.5,2.5,2.5,0.5,2.0,0.08,0.14,0.95,1205.77,-11.4,33.8
0.88,0.25,0.0,0.75,0.0,0.0,0.25,0.0,1.5,1.0,1.75,0.5,0.5,0.5,-0.3,0.14,0.89,69.67,-0.8,-42.7,10.5,3.0,9.25,10.5,10.5,6.75,4.5,2.0,5.25,2.75,2.25,0.5,2.25,0.08,0.2,0.95,1235.63,-11.6,35.5
0.9,0.25,0.25,0.0,0.0,0.0,0.25,0.25,1.5,0.75,1.5,0.5,0.5,0.5,-0.23,0.2,0.83,55.37,-4.4,-47.3,10.5,2.75,9.5,10.5,11.0,6.75,4.0,2.0,4.75,2.5,2.0,0.25,2.0,0.08,0.2,0.95,1247.25,-11.7,37.9
0.92,0.25,0.0,0.0,0.0,0.0,0.25,0.5,1.0,0.75,1.25,0.5,0.5,0.5,-0.23,0.27,0.83,45.74,-2.7,-52.3,10.5,2.75,9.5,11.0,11.0,6.25,3.5,2.0,3.75,2.25,2.0,0.25,1.75,0.08,0.2,0.95,1235.65,-12.1,40.3
0.94,0.25,0.25,0.0,0.0,0.0,0.25,0.25,1.5,1.0,0.75,0.5,0.5,0.5,-0.23,0.27,0.77,46.99,-2.2,-43.1,11.0,2.75,9.5,10.5,11.0,6.25,2.5,2.0,3.5,2.5,2.0,0.25,1.75,0.08,0.2,0.95,1212.65,-12.0,40.5
0.96,0.25,0.0,0.5,0.0,0.0,0.25,0.5,1.5,0.75,0.75,0.5,0.75,0.5,-0.23,0.27,0.77,57.25,1.1,-41.8,11.5,2.75,9.25,9.25,9.75,6.0,1.25,2.0,3.0,1.75,1.5,0.25,2.0,0.08,0.2,1.02,1154.01,-12.5,42.7
0.98,1.25,0.5,0.5,1.25,1.75,0.25,1.0,2.0,0.75,0.75,2.0,0.5,1.25,-0.3,0.33,0.7,106.26,4.7,-7.6,10.5,2.0,9.25,8.75,9.5,5.25,0.0,2.0,2.5,2.0,1.5,0.0,2.0,0.08,0.27,1.08,1064.16,-12.2,42.0
1.0,0.25,0.0,2.25,0.0,1.75,0.25,1.0,2.25,0.75,1.25,1.25,0.5,0.5,-0.3,0.39,0.7,138.06,5.3,-10.1,9.75,1.0,8.5,7.25,6.0,2.75,0.0,0.25,1.75,0.5,0.25,0.0,0.5,0.08,0.27,1.08,863.48,-18.3,57.0
1.02,0.25,0.0,0.0,0.0,0.0,0.25,0.5,1.5,0.75,1.25,0.5,0.5,0.5,-0.3,0.45,0.64,135.42,-3.9,-51.1,9.5,1.25,7.75,5.5,4.25,0.5,0.0,0.25,1.25,0.5,0.5,0.0,0.75,0.08,0.33,1.2,659.5,-21.5,57.7
1.04,0.25,0.0,0.25,0.0,0.0,0.25,0.5,1.0,0.75,1.25,0.0,0.5,0.5,-0.3,0.52,0.64,113.21,-1.9,-44.2,9.25,0.75,7.25,4.25,4.25,0.0,0.0,0.25,1.0,0.0,0.0,0.0,1.0,0.2,0.52,1.27,478.34,-22.8,60.9
1.06,0.25,0.0,0.5,0.0,0.0,0.25,0.25,1.5,0.75,1.0,0.5,0.5,0.5,-0.3,0.58,0.64,92.89,-0.4,-41.8,9.0,1.25,6.5,5.25,1.25,0.0,0.0,0.25,1.5,2.0,0.0,0.25,1.0,0.27,0.52,1.58,371.28,-22.1,49.2
1.08,0.0,0.0,0.0,0.0,0.0,0.25,0.5,0.75,0.5,0.25,0.0,1.75,0.5,-0.23,0.7,0.64,76.69,0.0,-71.0,8.0,1.25,5.5,3.25,2.75,2.0,0.25,0.5,1.0,2.0,1.0,0.25,1.75,0.33,0.58,1.64,321.94,-15.6,38.3
1.1,1.75,0.5,2.5,1.75,1.75,1.75,1.0,2.25,1.75,2.75,1.75,2.0,1.25,-1.86,0.08,2.58,160.73,5.4,-8.8,6.25,1.0,4.0,3.0,1.75,0.0,0.0,0.5,1.0,1.5,0.75,0.5,1.5,0.39,0.45,2.08,275.56,-17.9,34.9
1.12,0.5,0.25,2.25,1.25,2.5,1.75,0.75,3.25,1.75,4.25,2.5,2.25,1.5,-0.17,-0.86,1.08,234.92,0.7,-24.4,2.0,0.25,2.75,0.5,1.0,0.0,0.0,0.25,0.25,0.25,0.0,0.0,1.25,0.45,0.27,0.64,186.89,-18.3,33.8
1.14,0.5,0.5,2.5,1.75,0.0,1.5,0.0,3.25,2.25,3.5,3.5,3.25,3.75,-0.11,0.02,0.89,304.45,1.9,-42.0,0.75,0.0,0.0,0.5,0.0,0.25,0.0,0.25,0.75,0.0,0.0,0.0,0.5,2.27,-0.05,1.39,65.47,-8.7,4.0
1.16,1.0,0.0,1.0,1.75,2.5,1.25,1.0,3.5,3.0,4.5,3.75,2.5,3.0,-0.05,0.14,0.95,360.08,0.2,-35.3,0.5,0.0,0.25,0.5,0.0,0.0,0.0,0.25,0.0,0.25,0.0,0.0,0.5,1.33,-0.11,0.95,0.0,-8.8,2.9
1.18,1.75,0.5,1.5,1.75,1.75,1.75,1.25,4.25,3.5,5.0,4.25,3.0,4.5,-0.11,0.08,0.95,425.58,0.8,-35.9,0.5,0.0,0.0,0.5,0.25,0.5,0.0,0.25,0.5,0.0,0.5,0.0,0.5,0.7,-0.17,0.83,0.0,-3.8,-4.0
1.2,1.75,0.5,2.25,1.5,2.25,1.75,1.0,4.25,4.0,5.75,4.75,3.75,4.75,-0.11,0.08,0.95,490.93,1.3,-36.7,0.75,0.5,1.5,2.75,0.0,0.0,0.0,0.25,0.75,0.25,0.0,0.0,0.5,0.52,-0.42,0.64,0.0,-18.0,36.0
1.22,1.5,0.5,2.75,1.5,2.25,2.0,1.0,5.0,4.25,6.5,3.75,4.0,5.5,-0.11,0.08,0.95,559.79,0.4,-37.5,1.25,0.5,1.25,2.25,1.0,1.25,0.25,0.5,0.75,0.0,0.75,0.0,1.25,0.39,-0.55,0.7,0.0,-9.1,21.8
1.24,0.25,0.25,2.5,2.0,2.25,1.75,1.25,5.25,4.25,5.75,4.75,3.75,6.0,-0.11,0.08,0.95,617.82,-0.2,-42.7,0.5,0.0,0.0,0.5,1.0,0.0,0.0,0.25,0.5,0.0,0.0,0.0,1.0,0.27,-0.61,0.77,15.67,-2.3,-0.9
1.26,1.0,0.5,1.0,2.25,1.75,2.75,1.75,5.25,5.25,7.75,4.5,6.0,6.0,-0.11,0.08,0.95,685.94,-1.1,-46.4,0.25,0.0,0.0,0.5,1.0,0.0,0.0,0.25,0.5,0.0,0.0,0.0,0.25,0.33,-0.55,0.77,13.86,-3.9,19.9
1.28,2.0,0.5,1.0,2.25,2.25,2.75,2.0,6.0,6.0,8.25,7.0,6.5,7.75,-0.11,0.08,0.95,780.05,-0.4,-46.8,0.5,0.0,0.0,0.5,0.0,0.0,0.25,0.25,0.5,0.25,0.0,0.0,0.25,0.2,-0.42,0.83,0.0,-9.9,1.4
1.3,2.0,0.5,0.0,2.0,2.25,3.0,2.0,7.0,6.5,9.0,7.5,7.0,8.25,-0.11,0.08,0.95,879.18,-1.6,-50.4,0.25,0.0,0.0,0.5,0.5,0.0,0.25,0.25,0.5,0.0,0.75,0.0,1.25,0.08,-0.23,1.02,0.0,-2.6,-32.6
1.32,2.0,0.5,1.0,1.5,1.75,3.25,2.0,7.5,6.75,9.25,8.0,7.25,8.75,-0.11,0.08,0.95,969.55,-1.2,-51.1,0.0,0.0,0.0,0.5,0.5,0.0,0.25,0.25,0.5,0.0,0.0,0.0,0.25,0.02,-0.05,1.14,0.36,-4.1,3.4
1.34,1.75,0.5,0.75,2.25,2.25,4.0,1.75,7.5,6.75,9.75,8.25,7.0,9.0,-0.11,0.08,0.95,1028.88,-1.8,-49.2,0.25,0.0,0.25,0.5,1.25,0.0,0.25,0.25,0.5,1.5,0.0,0.0,0.25,0.08,0.08,1.27,35.19,-0.1,-4.0
1.36,2.0,0.5,1.0,2.25,3.0,4.0,1.5,8.0,7.0,9.75,8.5,7.0,8.75,-0.11,0.08,0.95,1083.9,-1.5,-46.6,0.5,0.25,0.0,0.5,0.25,0.0,0.25,0.25,0.25,1.0,0.0,0.25,0.0,0.2,0.27,1.33,51.48,-4.9,-0.5
1.38,2.0,0.5,1.75,2.25,5.25,4.25,2.0,8.25,7.0,9.75,7.5,6.75,8.5,-0.11,0.08,0.95,1119.16,-1.3,-39.8,0.5,0.0,0.25,0.5,1.25,0.0,0.25,0.25,0.25,0.25,0.75,0.0,0.25,0.39,0.45,1.39,62.88,-7.3,11.2
1.4,2.0,0.5,1.75,2.25,5.0,4.75,2.0,8.25,7.0,9.0,7.5,6.0,8.0,-0.11,0.08,0.95,1120.48,-1.3,-37.9,0.25,0.0,0.0,0.5,0.25,0.0,0.25,0.25,0.5,0.0,0.0,0.0,1.0,0.45,0.58,1.45,53.81,-2.6,-23.7
1.42,2.0,0.75,2.75,2.25,5.75,5.25,2.75,8.25,7.0,8.75,7.25,5.25,7.25,-0.11,0.08,0.95,1105.66,-0.6,-31.7,0.5,1.0,0.0,2.0,1.0,1.25,0.25,0.25,1.0,0.0,0.0,0.0,0.25,0.33,0.77,1.58,74.76,-5.6,39.5
1.44,2.0,0.75,2.25,2.5,5.75,6.0,3.0,8.5,7.0,7.75,6.0,4.0,6.5,-0.11,0.08,0.95,1052.16,-1.1,-27.0,0.5,0.0,0.0,0.5,0.0,0.5,0.25,0.25,0.5,0.0,0.0,0.0,0.25,0.33,1.08,1.58,63.06,-6.4,14.8
1.46,2.0,0.75,2.75,3.75,5.75,6.5,3.25,8.75,6.75,7.75,5.0,3.75,5.5,-0.11,0.08,0.95,1009.23,-0.6,-21.4,0.25,0.0,0.0,0.0,0.0,0.25,0.25,0.25,0.5,0.25,0.0,0.0,0.0,0.2,1.39,1.45,54.42,-2.8,-8.4
1.48,1.25,1.25,3.25,4.75,7.0,7.25,3.25,8.75,6.75,6.5,3.0,3.5,4.75,-0.11,0.08,0.95,969.96,-0.5,-12.9,0.5,0.0,0.0,0.5,0.25,0.25,0.25,0.25,0.25,0.0,0.0,0.0,0.25,0.14,1.83,1.2,46.8,-7.5,23.1
1.5,2.75,1.5,3.75,6.0,7.75,7.5,3.25,8.75,6.5,6.5,4.0,2.75,3.25,-0.11,0.08,0.95,970.21,1.1,-4.2,0.5,0.0,0.0,0.5,0.0,0.25,0.25,0.25,0.25,0.0,0.0,0.0,0.25,-0.23,2.45,0.08,38.42,-9.1,18.9
1.52,3.25,1.75,4.0,6.5,7.75,8.0,2.5,8.75,6.0,5.25,3.0,2.5,3.25,-0.11,0.08,0.95,969.84,1.4,1.0,0.5,0.25,0.0,0.75,0.0,0.5,0.25,0.0,0.25,0.0,0.0,0.0,0.25,-1.23,3.02,-0.05,35.17,-9.8,37.7
1.54,3.75,1.75,4.25,6.75,8.75,8.25,2.0,8.5,5.75,5.0,2.0,2.25,2.75,-0.11,0.08,0.95,982.19,1.6,6.5,1.75,1.0,0.75,1.25,1.25,2.0,0.0,0.0,0.25,2.75,0.75,0.0,1.0,-3.8,3.7,-0.36,90.86,-2.1,11.0
1.56,3.0,2.0,4.75,8.0,9.25,8.5,4.0,8.5,5.25,5.0,2.0,2.25,2.0,-0.11,0.08,0.95,1001.43,2.4,9.9,1.0,1.0,0.25,1.5,1.25,1.25,0.25,0.5,0.5,1.75,0.0,0.5,2.0,0.45,-0.73,0.45,135.51,0.0,-2.5
1.58,4.0,1.75,2.75,8.25,9.25,9.0,3.75,8.25,5.25,4.0,2.75,2.25,2.75,-0.11,0.14,0.95,1013.3,1.7,8.6,0.25,0.25,0.0,1.25,0.0,0.25,0.0,0.25,0.0,1.5,0.0,0.25,1.25,0.02,-0.11,0.89,138.56,2.7,-29.9
1.6,5.25,2.0,4.5,8.25,9.5,9.0,3.5,7.75,4.75,4.5,2.0,2.25,2.0,-0.11,0.14,0.95,1038.39,3.3,14.7,1.25,0.75,0.0,1.25,0.0,0.75,0.25,2.0,0.25,2.75,2.0,2.25,5.25,-0.92,0.52,1.39,191.17,2.4,-52.8
1.62,5.75,2.0,4.75,8.5,10.5,9.0,3.75,7.5,4.75,4.5,2.0,2.25,2.0,-0.11,0.14,0.95,1076.49,3.7,16.5,1.0,1.0,0.0,1.25,1.25,2.0,0.25,2.0,1.5,5.25,0.0,3.75,5.75,0.14,0.45,2.27,253.77,4.8,-46.8
1.64,6.25,2.0,4.75,9.25,10.5,9.0,3.75,7.25,4.25,4.25,1.75,2.25,2.25,-0.11,0.14,0.95,1117.66,4.1,18.4,0.5,0.0,0.0,0.5,1.0,0.5,0.0,2.75,1.75,6.25,1.5,3.25,6.25,0.08,0.33,1.45,313.6,6.3,-67.9
1.66,7.0,2.0,5.5,10.5,11.5,9.0,3.75,6.75,4.0,4.25,2.25,2.25,2.25,-0.11,0.14,0.95,1176.44,5.1,20.9,0.5,0.75,0.0,0.0,0.0,0.75,0.75,4.25,2.5,6.75,4.5,4.5,8.0,0.02,0.27,0.95,404.94,4.6,-71.2
1.68,7.75,2.0,5.75,9.5,12.0,9.0,3.75,6.5,3.25,4.25,2.0,2.25,2.25,-0.11,0.14,0.95,1219.01,5.2,22.7,1.75,0.25,0.0,0.0,0.0,0.75,0.75,4.75,2.75,6.75,5.0,4.25,7.5,0.02,0.14,0.95,499.39,3.3,-66.4
1.7,8.75,2.75,5.75,10.0,12.0,9.75,3.25,6.5,2.75,4.25,0.5,2.25,2.25,-0.11,0.14,0.95,1255.05,5.2,27.4,0.5,0.0,0.0,0.5,1.25,2.75,0.75,4.75,3.0,6.75,5.25,4.25,8.0,0.08,0.14,0.95,576.67,5.2,-61.7
1.72,9.5,3.75,5.75,10.5,12.0,9.5,3.0,5.75,2.5,4.25,2.0,2.25,2.0,-0.11,0.14,0.95,1290.19,6.1,28.6,1.25,1.0,1.5,1.75,1.25,3.75,0.0,5.0,3.5,8.0,5.25,5.5,8.0,0.08,0.14,0.95,663.43,2.5,-48.1
1.74,10.5,3.75,5.25,10.5,12.5,9.5,2.5,5.75,1.75,3.5,2.0,2.25,2.25,-0.11,0.2,1.02,1310.56,6.2,30.7,1.5,1.0,1.25,0.0,1.25,4.0,0.0,5.5,3.5,7.75,6.0,5.25,8.25,0.08,0.14,0.89,733.67,3.5,-52.1
1.76,11.5,5.0,5.75,0.0,14.0,9.25,2.0,5.0,1.75,2.75,0.5,2.25,2.0,-0.11,0.2,1.02,1246.36,5.4,34.4,1.75,1.0,0.5,1.25,1.5,4.5,0.0,5.75,4.25,8.25,6.25,5.5,8.5,0.08,0.14,0.95,796.46,3.5,-49.4
1.78,12.0,4.5,5.75,9.25,13.5,9.0,0.75,5.0,1.75,0.25,2.0,2.25,1.25,-0.17,0.2,1.14,1233.25,8.2,40.9,1.5,1.25,0.0,2.0,1.5,4.0,1.25,5.75,4.75,8.5,6.75,5.5,8.5,0.08,0.14,0.95,838.4,2.8,-48.9
1.8,13.5,5.5,5.75,8.0,12.5,8.25,0.0,3.5,1.5,1.0,2.0,2.0,1.5,-0.17,0.27,1.2,1199.44,9.3,43.4,1.5,1.0,0.75,1.25,1.5,5.0,1.25,6.25,5.0,8.5,6.75,5.5,8.25,0.14,0.14,0.95,880.22,3.0,-47.7
1.82,14.5,6.25,5.75,6.75,12.0,6.75,0.0,3.5,1.25,1.25,2.0,2.0,1.5,-0.17,0.27,1.2,1182.13,10.2,44.5,1.75,1.25,1.75,1.75,2.25,5.0,1.25,6.5,3.75,8.25,6.75,5.5,8.5,0.14,0.14,0.95,899.58,2.1,-41.9
1.84,14.5,6.5,5.0,6.25,8.75,6.0,0.0,1.75,1.25,1.25,2.25,1.75,1.25,-0.17,0.39,1.33,1096.1,12.1,47.4,0.0,1.25,2.0,0.5,2.5,5.0,1.75,6.5,4.5,8.5,6.75,5.5,8.0,0.08,0.14,0.95,886.44,3.2,-46.9
1.86,11.0,6.5,4.75,1.75,7.75,5.0,0.0,2.5,0.75,0.0,0.25,0.0,1.0,-0.23,0.45,1.52,913.9,11.4,58.6,1.25,1.25,2.25,2.0,3.25,5.0,2.0,6.5,0.0,8.0,6.75,5.25,8.0,0.08,0.14,0.95,857.44,2.7,-38.0
1.88,10.5,5.0,2.5,2.25,5.75,3.25,0.0,1.75,0.75,0.0,0.75,0.5,0.75,-0.42,0.58,1.83,695.47,12.7,56.7,1.5,1.25,2.5,2.0,4.75,4.75,2.0,6.5,5.5,7.75,6.75,4.5,8.0,0.08,0.14,0.95,864.35,0.9,-33.5
1.9,9.5,3.75,2.5,2.25,4.75,2.5,0.0,1.5,0.75,0.0,0.5,0.5,0.0,-0.92,0.52,2.2,498.66,14.5,60.5,1.5,1.75,2.75,2.75,4.75,4.5,2.25,6.5,5.75,7.75,6.75,4.25,7.5,0.08,0.14,0.89,868.49,0.1,-29.8
1.92,8.0,2.25,1.75,1.0,2.5,1.75,0.0,0.5,0.75,1.5,0.25,0.25,0.25,-0.92,0.64,2.14,342.5,14.9,53.5,1.75,1.75,2.75,3.0,4.5,5.0,2.5,6.5,5.75,6.75,6.75,3.25,7.0,0.08,0.14,0.95,870.94,-0.1,-25.7
1.94,6.75,0.25,1.0,0.0,2.25,0.25,0.0,1.25,0.75,1.25,0.0,1.25,0.0,-0.55,0.39,2.27,233.04,15.3,36.5,2.0,1.75,2.75,3.0,5.0,5.0,2.5,6.5,6.5,6.75,5.5,3.25,6.25,0.08,0.14,0.95,859.23,-0.4,-22.3
1.96,4.5,0.0,2.5,0.0,0.75,1.75,0.25,0.0,0.75,0.5,2.0,1.5,0.0,-0.36,-0.3,2.08,148.39,17.3,21.1,2.75,1.75,3.0,3.25,5.0,5.75,2.5,6.5,6.25,6.25,4.5,2.5,5.5,0.14,0.14,0.95,839.51,-0.8,-15.4
1.98,2.5,0.5,1.5,0.0,0.0,1.5,0.25,0.0,0.75,1.5,1.25,2.0,0.0,0.02,-0.42,1.27,77.01,11.8,-2.3,3.25,2.0,3.0,3.25,5.25,6.0,2.5,6.5,6.75,5.25,5.0,2.0,4.75,0.14,0.14,0.95,826.67,-1.6,-10.7
2.0,1.0,0.25,0.25,0.0,0.0,1.25,0.25,0.25,0.75,0.0,2.0,0.5,0.5,-0.42,-1.05,1.77,10.48,6.8,-17.8,3.25,2.5,3.0,3.25,6.0,6.0,2.75,6.5,6.75,4.75,4.5,1.75,3.75,0.14,0.14,0.95,813.82,-2.0,-5.0
2.02,1.0,0.5,0.25,0.0,0.5,0.75,0.0,0.0,0.75,0.25,0.5,0.5,0.0,-0.23,-0.8,1.33,0.0,9.1,15.0,5.5,3.0,3.5,5.25,6.75,6.0,3.0,6.25,6.75,4.0,3.25,1.75,3.25,0.14,0.14,0.95,842.13,-4.5,6.9
2.04,1.0,0.5,1.0,0.75,1.75,2.0,0.5,0.0,1.0,1.5,0.5,2.0,0.5,-0.3,-0.55,0.7,0.0,4.2,-2.5,6.75,3.25,5.25,5.5,7.0,6.25,3.0,5.75,6.5,4.25,3.0,1.5,3.0,0.08,0.14,0.95,892.51,-6.1,12.8
2.06,1.0,0.25,2.5,1.0,2.5,1.75,0.75,1.5,1.25,1.25,1.75,1.75,0.75,-0.36,-0.42,0.39,46.52,6.1,-2.7,8.0,2.75,5.25,7.25,8.25,6.75,3.0,5.75,5.75,3.5,2.25,1.0,2.75,0.08,0.2,0.95,957.69,-6.7,20.4
2.08,2.0,0.5,2.5,1.25,2.5,1.75,0.75,0.0,1.25,2.0,2.0,2.0,0.5,-0.42,-0.42,0.64,130.57,9.1,3.6,9.25,3.5,6.25,9.0,9.25,7.0,2.75,4.75,5.25,3.25,1.5,0.75,2.25,0.08,0.2,0.95,1037.56,-8.3,29.4
2.1,1.5,0.5,2.5,1.0,3.0,1.75,1.0,0.5,1.0,1.5,1.25,2.0,1.0,-0.55,-0.42,0.83,193.39,7.3,3.6,10.5,5.0,6.75,9.5,10.5,6.25,2.5,4.25,3.5,2.5,2.25,0.75,2.25,0.08,0.2,0.95,1118.85,-9.6,35.5
2.12,0.75,0.0,2.5,0.0,3.0,0.5,1.0,0.25,0.75,0.5,1.5,0.5,0.5,-0.55,-0.3,0.89,200.86,10.8,12.3,12.0,5.75,7.5,10.5,11.0,6.75,1.75,3.25,3.0,3.5,0.0,0.5,2.25,0.08,0.2,1.02,1194.53,-10.1,42.4
2.14,0.5,0.0,0.25,0.0,1.75,0.25,0.75,0.0,0.75,0.0,0.5,0.5,0.5,-0.48,-0.17,0.83,165.47,6.6,2.0,13.0,4.5,0.0,11.0,11.5,7.0,0.25,2.25,1.75,2.25,0.0,0.25,2.25,0.08,0.2,1.2,1160.93,-7.1,46.3
2.16,0.75,0.0,0.0,0.0,1.75,0.5,0.75,0.0,0.75,0.0,0.0,0.5,0.0,-0.48,-0.05,0.95,123.46,6.6,24.9,12.5,0.0,8.25,11.5,11.0,6.5,0.25,2.0,1.25,1.25,0.75,0.0,1.75,0.14,0.27,1.2,1123.83,-12.1,47.7
2.18,0.0,0.0,0.25,0.0,1.75,0.5,0.75,0.5,0.75,0.0,0.5,0.5,0.5,-0.48,0.02,1.14,93.86,1.2,-7.7,12.5,4.75,7.75,10.0,9.75,5.0,0.0,0.25,1.0,0.25,0.75,0.0,1.0,0.14,0.33,1.2,1044.63,-14.8,59.8
2.2,0.5,0.0,0.25,0.0,1.75,0.5,0.75,0.0,0.75,0.0,0.0,0.5,0.0,-0.55,0.14,1.39,74.37,7.0,23.3,13.0,4.0,7.75,9.0,8.5,3.75,0.0,0.25,0.5,0.0,0.25,0.0,1.0,0.14,0.33,1.27,954.23,-16.7,63.5
2.22,0.0,0.0,0.0,0.0,1.75,0.5,0.5,0.25,0.75,0.0,0.5,0.5,0.0,-0.55,0.27,1.64,66.53,1.0,0.3,12.0,4.0,7.75,7.25,6.75,3.0,0.0,0.25,0.75,0.75,0.0,0.0,1.0,0.08,0.45,1.58,839.83,-17.3,61.7
2.24,0.25,0.0,0.0,0.0,1.75,0.5,0.75,0.5,1.0,2.5,0.0,1.25,0.25,-0.67,0.45,1.95,79.46,-3.0,-29.6,11.0,3.25,7.5,6.0,2.75,3.0,0.0,0.25,0.5,0.75,0.0,0.0,1.0,0.45,0.64,1.95,697.4,-19.5,61.9
2.26,1.25,0.0,2.5,1.0,2.25,1.75,1.0,1.5,1.0,2.0,1.5,1.25,0.5,-0.8,0.77,2.33,131.4,5.9,-0.5,9.5,3.25,6.75,5.5,0.0,2.5,0.0,0.0,0.25,0.25,0.0,0.0,0.25,0.58,1.08,2.58,531.69,-23.5,70.6
2.28,2.0,0.0,0.25,0.0,1.75,1.75,0.75,1.25,0.75,0.5,0.25,0.5,0.5,-0.86,1.52,2.58,142.08,2.2,13.0,8.0,2.75,4.0,3.25,0.0,2.75,0.0,0.0,0.5,0.0,0.0,0.0,0.75,0.77,1.02,2.83,376.63,-20.7,66.6
2.3,0.25,0.0,0.0,0.0,1.75,1.75,0.75,1.0,1.0,2.75,0.0,0.75,0.5,-0.8,2.64,2.83,152.92,-7.1,-21.9,5.75,0.0,1.75,1.25,0.0,2.0,0.0,0.25,0.0,0.0,0.0,0.0,0.5,0.39,0.45,3.27,244.94,-20.2,63.7
2.32,0.5,0.0,0.25,0.0,1.75,0.25,1.0,1.5,0.75,2.5,1.75,1.5,1.0,-0.55,3.64,1.7,161.78,-0.6,-39.4,3.25,0.0,0.0,0.0,0.0,1.75,0.0,0.0,1.0,2.25,0.0,0.25,0.0,0.52,-1.67,1.52,124.89,-5.7,14.4
2.34,0.75,0.0,0.0,0.0,1.25,0.5,0.25,0.0,1.0,0.5,0.25,0.5,0.25,0.39,5.58,0.08,140.97,3.9,-2.2,3.25,0.0,0.5,2.75,1.25,2.75,0.0,0.25,1.0,1.5,0.75,0.25,1.25,0.77,-0.73,2.39,71.0,-5.6,17.8
2.36,0.5,0.0,0.25,0.0,1.75,0.25,0.25,0.0,0.75,0.5,0.0,0.5,0.0,2.39,7.45,-1.61,119.94,4.8,12.4,2.0,0.5,1.25,2.5,1.25,0.75,0.0,0.0,1.0,1.25,0.75,0.25,1.0,0.33,-1.42,1.58,48.76,-10.5,18.7
2.38,0.75,0.0,0.0,0.0,1.25,0.25,0.25,0.5,0.75,1.25,0.5,0.5,1.0,0.02,-2.05,-0.23,107.87,-0.7,-27.0,1.75,0.0,1.25,2.75,1.25,1.0,0.25,0.5,1.0,1.5,0.75,0.25,1.25,0.2,-0.8,0.58,66.17,-7.8,9.1
2.4,1.0,0.5,0.0,0.0,1.75,1.75,0.25,0.5,1.25,2.75,0.5,2.25,2.0,-0.17,0.7,-0.11,138.12,-2.8,-32.5,0.5,0.0,0.75,0.5,1.25,0.25,0.25,0.25,0.5,0.25,0.75,0.0,1.25,0.14,-0.67,0.33,40.18,-5.5,-4.8
2.42,0.5,0.0,2.0,0.0,1.75,1.0,0.75,0.5,0.75,2.75,2.0,2.25,5.75,0.08,0.64,1.2,193.59,-0.2,-48.9,0.5,0.0,0.0,0.5,1.0,0.0,0.25,0.25,0.5,0.0,0.0,0.0,0.25,0.02,-0.55,0.64,8.65,-7.2,25.7
2.44,0.25,0.0,2.0,0.0,2.25,1.75,0.5,2.75,1.25,0.0,2.0,2.75,6.5,-0.55,0.64,3.2,251.93,-1.3,-44.5,0.5,0.0,0.0,0.5,1.0,0.0,0.0,0.25,0.5,0.25,0.0,0.0,0.0,-0.05,-0.42,0.77,0.0,-6.1,28.7
2.46,0.5,0.5,2.5,0.0,0.0,2.5,0.0,5.25,2.5,7.5,2.75,5.25,7.0,0.2,0.52,2.27,355.4,-3.6,-57.9,0.5,0.0,0.0,0.5,1.0,1.0,0.25,0.25,0.5,0.0,0.0,0.0,0.0,0.02,-0.23,0.89,0.0,-1.4,36.5
2.48,2.0,0.5,0.0,1.0,1.75,2.25,2.0,7.0,3.5,7.25,5.75,6.0,8.25,0.02,0.27,1.02,508.96,-2.7,-53.1,0.5,0.0,0.0,0.5,0.5,0.5,0.25,0.0,0.25,1.0,0.0,0.0,0.0,0.02,0.02,1.02,0.0,-1.1,12.1
2.5,0.5,0.0,0.0,0.0,1.75,2.25,0.0,6.75,3.75,7.25,4.5,6.0,7.5,-0.11,0.14,0.95,626.65,-5.6,-63.3,0.5,0.0,0.0,0.5,0.0,0.0,0.25,0.25,0.25,0.25,0.0,0.0,0.0,-0.05,0.14,1.2,0.0,-12.9,22.1
2.52,1.0,0.5,2.5,0.0,1.75,4.0,0.0,6.75,3.75,8.75,6.0,6.5,7.5,-0.11,0.08,0.95,756.93,-2.9,-51.5,0.5,0.0,0.0,0.5,0.25,0.5,0.25,0.25,0.25,0.0,0.0,0.0,0.0,-0.05,0.33,1.39,4.77,-6.8,38.7
2.54,0.75,0.75,2.5,1.0,4.5,4.25,0.25,8.25,4.5,9.25,6.0,6.25,9.0,-0.11,0.08,0.95,883.96,-3.3,-44.1,0.5,0.0,0.0,0.25,0.25,0.0,0.25,0.25,0.25,0.0,0.0,0.0,0.0,0.02,0.45,1.52,6.16,-13.8,36.9
2.56,1.0,0.5,2.5,0.75,3.0,4.5,2.0,8.5,4.5,9.5,6.0,6.25,8.75,-0.11,0.08,0.95,979.77,-2.9,-46.1,0.25,0.0,0.0,0.25,0.0,0.25,0.25,0.0,0.5,0.0,0.0,0.0,0.0,0.08,0.64,1.77,0.0,-12.7,22.5
2.58,1.75,0.75,1.25,0.75,3.5,4.5,0.25,8.5,4.0,9.5,6.0,6.0,9.0,-0.11,0.08,0.95,1034.76,-4.1,-46.2,0.5,0.0,0.0,0.0,0.0,0.25,0.0,0.25,0.5,0.75,0.0,0.0,0.0,0.14,0.83,1.83,0.0,-0.4,-14.4
2.6,1.25,0.5,1.75,0.0,3.5,4.5,0.5,8.5,3.75,9.25,5.75,6.0,9.0,-0.11,0.08,0.95,1039.06,-4.4,-48.3,0.0,0.0,0.0,0.25,1.0,0.0,0.25,0.0,0.5,0.0,0.0,0.0,0.0,0.27,1.14,2.2,6.66,-5.2,30.1
2.62,0.25,0.5,0.25,0.0,4.25,4.75,2.0,8.5,3.75,9.5,5.75,6.0,8.5,-0.11,0.08,0.95,1006.25,-5.9,-50.5,0.0,0.0,0.0,0.0,0.0,0.5,0.25,0.0,0.25,0.0,0.0,0.0,0.0,0.45,1.58,2.45,8.2,4.6,11.7
2.64,1.5,1.0,1.75,0.25,3.75,4.5,1.0,8.5,4.5,9.25,6.0,5.75,8.25,-0.11,0.08,0.95,968.9,-3.5,-43.8,0.5,0.0,0.0,0.5,0.0,0.75,0.25,0.25,0.25,0.0,0.0,0.0,0.0,0.64,2.39,2.14,21.23,-5.1,36.3
2.66,1.5,0.75,2.75,0.0,4.75,5.0,1.0,8.5,4.5,9.0,5.75,5.25,8.25,-0.11,0.08,0.95,945.77,-3.2,-39.5,0.5,0.0,0.0,0.25,0.25,0.25,0.25,0.25,0.25,0.0,0.0,0.0,0.0,0.58,2.95,1.33,24.97,-9.1,36.6
2.68,1.75,0.5,2.5,0.0,5.75,5.25,2.0,8.75,4.5,8.75,5.5,5.25,7.75,-0.11,0.08,0.95,929.74,-3.0,-36.4,0.5,0.0,0.0,0.5,0.0,0.5,0.25,0.0,0.25,0.25,0.0,0.0,0.0,-0.98,3.95,-0.3,28.65,-8.4,32.2
2.7,0.5,0.5,2.75,0.25,5.75,5.25,1.75,8.75,4.5,8.75,5.0,4.25,7.25,-0.11,0.08,0.95,885.84,-3.9,-36.1,0.0,0.0,0.0,0.0,0.0,0.0,0.25,0.0,0.5,1.5,0.0,0.0,0.0,-3.48,5.39,-0.17,30.56,6.4,-61.0
2.72,1.25,0.5,2.75,1.25,5.75,6.0,2.5,9.0,4.5,8.75,5.0,3.75,7.0,-0.11,0.08,0.95,865.65,-3.1,-30.5,0.75,1.0,0.0,1.0,0.0,2.25,0.0,0.0,0.75,2.25,0.0,0.75,0.0,-1.11,1.33,3.33,69.29,1.4,2.6
2.74,1.0,0.5,2.75,1.75,5.75,6.25,2.0,9.0,4.75,7.75,5.0,3.75,6.5,-0.11,0.08,0.95,844.11,-2.9,-28.7,1.0,0.0,0.25,0.75,1.0,0.75,0.25,0.5,0.5,1.0,0.75,1.75,3.0,0.52,-0.17,1.89,115.28,-0.2,-39.7
2.76,1.0,0.75,2.75,1.5,5.75,7.0,2.5,9.25,4.75,8.0,4.75,3.75,5.75,-0.11,0.08,0.95,823.29,-3.1,-26.5,0.75,0.0,0.0,0.0,0.5,2.75,0.0,0.25,0.75,3.0,0.0,3.0,4.75,0.39,0.77,0.02,177.57,7.5,-59.8
2.78,0.5,0.75,2.75,2.25,5.75,7.25,2.0,9.25,5.25,7.75,4.75,3.0,5.5,-0.11,0.08,0.95,809.02,-3.3,-24.7,0.0,0.0,0.0,0.0,0.0,1.25,0.0,1.75,1.25,5.5,0.0,4.75,5.75,-0.3,0.77,3.52,245.07,8.2,-81.7
2.8,1.0,0.75,2.75,2.5,5.75,7.25,3.0,9.25,5.75,7.0,4.25,2.5,4.5,-0.11,0.08,0.95,805.84,-2.3,-19.5,0.0,0.25,0.0,0.0,0.0,0.5,0.0,3.5,3.0,6.75,3.25,6.0,7.5,0.39,0.64,1.27,340.95,5.0,-79.9
2.82,1.25,1.0,3.25,3.75,7.25,7.25,3.5,9.0,6.25,6.5,4.5,2.0,4.25,-0.11,0.08,0.95,830.03,-0.9,-12.4,0.75,1.25,0.0,1.25,0.0,2.0,0.75,4.25,3.25,7.75,5.0,6.25,8.75,0.02,0.27,1.02,482.48,3.3,-62.8
2.84,3.25,1.75,4.25,5.25,7.75,8.0,4.25,9.0,6.75,6.5,4.5,2.25,3.75,-0.11,0.08,0.89,909.77,1.4,-3.6,1.25,0.75,0.0,0.75,1.25,3.75,0.75,5.0,3.5,7.75,5.5,6.0,8.75,0.08,0.14,0.95,634.64,4.1,-56.4
2.86,4.5,1.75,4.75,6.5,8.0,8.0,4.5,9.0,6.75,5.5,4.25,2.25,3.0,-0.11,0.08,0.95,1002.05,3.0,2.6,1.25,1.0,0.0,0.0,1.25,4.0,0.75,5.25,3.75,8.0,6.0,5.75,8.5,0.08,0.14,0.95,748.02,4.4,-56.5
2.88,6.25,2.0,5.75,8.25,9.25,9.0,5.0,8.75,6.25,4.25,4.0,2.25,2.75,-0.11,0.08,0.95,1124.62,4.6,11.3,0.5,1.0,0.0,0.0,1.0,2.75,0.0,4.75,3.5,7.5,5.25,5.5,8.0,0.08,0.14,0.95,775.43,4.9,-62.2
2.9,7.75,2.0,6.5,11.0,12.0,9.0,5.25,7.75,5.0,4.25,3.0,2.25,2.5,-0.11,0.08,0.95,1266.24,5.8,19.8,0.5,1.75,0.0,0.0,1.25,4.5,0.0,5.75,4.25,8.25,5.5,6.0,8.25,0.08,0.14,0.95,804.32,5.3,-55.5
2.92,9.5,2.0,7.75,13.5,14.0,9.0,4.5,6.75,3.0,3.25,2.0,2.25,2.5,-0.11,0.14,1.02,1379.1,7.3,28.8,0.5,1.25,0.25,0.5,1.25,4.5,1.0,6.0,4.5,8.25,6.75,6.25,8.0,0.08,0.14,0.95,825.93,4.0,-54.8
2.94,10.5,0.0,9.0,13.0,13.0,7.5,3.0,5.25,2.0,4.0,2.0,1.75,2.0,-0.23,0.2,1.39,1412.87,8.8,30.7,1.25,1.25,0.5,1.75,1.25,4.5,1.25,6.0,5.0,8.25,6.75,6.0,8.0,0.08,0.14,0.95,860.66,2.6,-48.6
2.96,12.0,2.25,9.75,12.0,12.0,6.25,1.0,5.0,1.5,1.5,2.0,1.5,2.0,-0.23,0.2,1.52,1404.16,11.0,38.9,1.75,1.25,0.25,0.0,1.25,4.5,1.0,6.25,4.75,8.25,6.75,6.0,8.25,0.08,0.14,0.95,867.26,3.4,-52.2
2.98,12.5,2.25,9.75,8.25,10.5,5.25,0.0,3.25,1.25,2.25,2.0,1.0,1.5,-0.23,0.33,1.64,1319.9,12.3,41.5,1.5,1.5,1.0,0.0,1.25,5.0,1.0,6.25,5.25,8.0,6.75,5.75,8.25,0.14,0.14,0.95,869.97,2.9,-49.1
3.0,12.5,2.0,8.75,5.5,8.0,4.25,0.5,3.0,1.0,2.0,2.0,1.0,1.5,-0.36,0.52,2.2,1145.28,13.3,40.7,1.25,1.25,1.75,1.25,1.75,5.0,1.25,6.25,5.5,7.75,6.75,5.5,8.0,0.08,0.14,0.95,858.23,1.9,-44.1
3.02,9.5,0.75,6.5,5.0,6.75,2.5,0.75,1.75,0.5,1.5,1.5,1.0,0.5,-0.86,0.77,2.52,888.03,14.6,43.5,1.75,1.0,2.75,2.5,3.25,5.0,2.0,6.5,5.5,7.5,6.75,5.0,7.5,0.08,0.14,0.95,857.22,0.3,-34.5
3.04,8.0,0.5,4.75,2.25,5.0,1.75,0.5,1.25,0.5,1.0,0.5,0.5,0.5,-0.86,0.52,2.7,620.66,15.4,47.8,2.0,1.75,2.75,2.75,4.75,5.0,2.25,6.5,5.75,6.75,6.5,4.0,7.0,0.08,0.14,0.95,853.64,-0.2,-26.2
3.06,6.5,0.5,2.5,0.0,2.25,0.25,0.25,1.0,0.5,1.25,0.5,0.5,0.5,-0.61,0.39,2.89,368.19,17.0,39.9,2.0,1.75,2.75,3.25,5.0,5.75,2.5,6.5,6.25,6.25,5.75,3.0,6.0,0.08,0.14,0.95,852.39,-0.3,-20.1
3.08,4.75,0.0,2.25,0.0,4.75,2.5,0.0,1.25,1.25,1.25,2.0,1.0,0.75,-0.48,-0.92,2.52,254.11,7.4,19.0,2.25,1.75,3.0,3.0,5.0,5.75,2.5,6.5,6.25,5.5,5.25,2.5,5.25,0.14,0.14,0.95,838.27,-0.8,-16.2
3.1,3.0,0.0,1.75,0.75,0.0,2.5,0.75,0.0,1.0,1.5,2.0,0.75,1.0,-0.05,-0.86,-0.17,151.9,9.7,1.9,3.5,1.75,3.0,3.25,6.25,5.5,3.0,6.25,6.25,5.25,3.75,1.75,3.75,0.08,0.14,0.95,820.85,-2.0,-5.3
3.12,0.75,0.5,2.25,1.0,0.0,2.25,0.75,0.0,0.5,0.0,1.75,0.5,0.5,-0.67,-1.05,2.08,69.9,11.9,14.1,3.75,2.0,4.0,5.25,6.75,6.25,3.0,5.75,6.25,4.75,3.25,1.75,3.25,0.08,0.14,0.95,828.15,-3.5,2.8
3.14,0.0,0.0,1.25,0.0,0.0,0.5,0.5,0.0,0.5,0.0,0.0,0.5,0.5,-0.42,-1.17,1.33,0.0,14.1,-8.2,4.5,2.25,5.25,5.5,7.0,6.25,3.0,5.75,6.25,4.0,3.25,1.5,3.0,0.08,0.14,0.95,846.96,-5.0,8.3
3.16,0.0,0.0,0.5,0.0,0.0,0.75,0.0,0.0,0.5,0.75,0.5,0.5,0.25,-0.48,-0.86,0.7,0.0,1.0,-37.6,5.5,2.5,5.25,6.0,8.25,6.25,3.0,5.75,6.25,3.5,3.25,1.0,2.5,0.08,0.14,0.95,889.48,-5.7,14.5
3.18,0.0,0.25,1.0,0.0,0.0,0.75,0.0,0.0,0.5,0.5,0.5,0.5,0.5,-0.48,-0.73,0.27,0.0,6.0,-20.5,7.0,2.5,5.75,7.25,8.5,7.0,3.0,5.25,5.75,3.75,2.5,1.0,2.25,0.08,0.14,0.95,947.02,-6.6,20.2
3.2,0.25,0.0,0.25,0.0,0.0,0.5,0.0,0.0,0.5,1.0,0.5,0.5,0.5,-0.48,-0.61,0.33,0.0,0.0,-47.4,8.0,3.0,6.75,8.5,9.5,6.25,3.0,4.75,5.25,3.25,2.25,0.5,2.25,0.08,0.14,0.95,1013.78,-8.3,27.0
3.22,0.0,0.0,0.25,0.0,1.75,0.5,0.0,0.0,0.25,0.5,0.5,0.25,0.5,-0.36,-0.55,0.64,0.0,-2.5,-5.7,8.75,3.25,7.75,10.5,11.0,7.25,3.0,4.0,4.25,2.5,2.5,0.25,2.25,0.08,0.14,0.95,1099.86,-9.1,33.3
3.24,0.0,0.0,0.5,0.0,1.75,0.25,0.25,0.0,0.5,0.25,0.25,0.5,0.5,-0.3,-0.42,0.95,0.0,2.7,-3.3,10.0,3.5,8.0,12.0,12.5,7.25,2.5,3.5,3.0,2.5,2.0,0.25,2.25,0.08,0.2,0.95,1193.37,-9.5,38.3
3.26,0.25,0.5,0.25,0.25,1.75,1.75,0.5,0.0,0.75,2.0,0.25,1.25,0.5,-0.3,-0.3,1.02,27.34,-2.3,-11.5,11.5,3.0,8.75,13.0,12.5,6.75,1.5,2.25,2.25,2.5,0.75,0.25,2.25,0.08,0.2,1.08,1260.23,-11.0,44.0
3.28,0.0,0.25,2.5,0.0,1.75,1.75,0.75,0.0,0.75,1.5,0.5,1.0,0.5,-0.23,-0.11,1.08,83.24,5.5,1.1,13.0,0.0,9.0,14.0,14.0,0.0,1.0,2.0,1.75,2.25,0.75,0.25,1.5,0.08,0.2,1.14,1241.85,-15.2,47.6
3.3,1.0,0.0,2.5,0.0,2.25,0.25,0.75,0.25,0.5,0.25,1.5,0.5,0.75,-0.23,0.08,1.27,124.24,13.0,10.4,14.0,3.25,9.25,13.5,13.0,0.0,0.25,2.0,1.0,0.5,0.0,0.0,1.25,0.14,0.27,1.2,1200.28,-16.9,58.7
3.32,1.0,0.75,0.0,1.0,0.0,1.25,0.75,0.0,0.5,1.0,0.5,1.25,0.25,-0.23,0.27,1.45,130.54,6.1,-2.2,12.5,3.0,8.75,10.5,11.0,5.25,0.0,0.5,0.75,0.75,0.25,0.0,1.0,0.14,0.33,1.27,1112.65,-14.4,58.3
3.34,0.25,0.0,2.25,0.0,1.75,0.25,0.75,0.5,0.5,0.25,2.0,0.5,0.5,-0.3,0.33,1.77,144.26,11.5,-2.5,13.0,2.25,8.75,8.25,9.0,3.0,0.0,0.25,0.0,0.0,0.0,0.0,0.5,0.08,0.33,1.33,970.32,-18.1,66.2
3.36,0.75,0.5,0.25,1.0,1.25,1.75,0.75,1.0,0.75,0.25,1.75,1.0,0.75,-0.48,0.52,2.08,156.92,2.8,-6.0,13.0,3.75,8.75,8.25,6.25,4.5,0.0,0.25,0.5,0.0,0.0,0.25,0.0,0.14,0.45,1.52,852.21,-18.4,67.1
3.38,0.75,0.0,2.5,0.0,2.25,0.0,1.0,0.0,0.25,0.25,0.75,0.75,0.5,-0.67,0.83,2.52,160.37,15.4,17.6,11.0,3.0,8.25,7.25,4.5,2.75,0.0,0.25,0.25,0.75,0.0,0.0,1.0,0.27,0.58,2.2,717.86,-18.9,61.9
3.4,2.0,0.5,2.5,1.25,2.25,1.75,0.75,0.0,0.5,0.5,0.5,1.25,0.75,-0.86,1.45,2.7,184.98,11.2,24.8,9.0,2.25,6.75,5.25,0.25,2.75,0.25,0.0,0.5,0.5,0.0,0.0,0.25,0.7,1.27,2.83,545.92,-22.6,66.2
3.42,1.75,0.0,2.0,1.0,1.75,2.5,1.0,0.5,0.5,0.25,1.75,0.5,0.5,-0.98,2.45,3.02,199.48,8.7,18.5,7.5,1.0,3.75,3.25,0.0,2.75,0.0,0.0,0.0,0.5,0.0,0.0,0.0,0.64,0.83,2.83,366.98,-21.5,69.0
3.44,0.75,0.0,2.5,0.25,2.25,0.25,0.5,0.0,0.25,0.25,0.25,0.5,0.25,-0.55,3.45,1.14,188.97,15.2,32.6,5.75,1.25,1.75,2.75,0.0,2.75,0.25,0.25,1.0,1.5,0.0,0.25,0.25,0.45,0.02,3.14,255.95,-14.4,46.5
3.46,0.5,0.0,0.0,0.0,1.75,0.5,0.25,0.0,0.0,0.5,0.25,0.5,0.0,0.64,5.77,-0.48,148.93,0.4,14.5,3.0,0.0,1.5,1.5,1.0,2.0,0.0,0.0,0.75,0.0,0.0,0.0,0.0,0.14,-0.8,1.27,143.22,-15.0,57.4
3.48,0.75,0.0,2.5,0.0,1.75,0.75,0.75,0.0,0.75,2.0,1.75,0.5,0.5,2.7,7.64,-0.92,144.14,8.8,-4.2,1.0,0.0,0.25,1.0,0.5,1.75,0.0,0.25,0.5,0.0,0.0,0.0,0.25,0.39,0.27,1.95,39.54,-3.4,36.2
3.5,1.0,0.0,0.0,0.0,1.75,1.25,0.25,1.0,0.5,0.0,0.5,0.5,1.25,-0.05,-1.36,0.27,125.35,-1.9,-5.8,0.5,0.0,0.0,0.75,1.0,1.75,0.0,0.0,0.5,0.0,0.0,0.0,0.25,0.58,-1.17,1.95,0.0,1.9,33.6
3.52,0.5,0.0,0.0,0.0,1.75,1.5,0.75,0.25,0.5,1.25,1.25,1.25,2.75,-0.17,0.14,0.64,140.77,-3.7,-38.9,0.75,0.0,0.0,0.5,0.5,1.5,0.0,0.25,0.5,0.0,0.0,0.0,0.0,0.52,-0.98,1.02,0.0,-0.2,37.7
3.54,0.75,0.25,2.25,0.0,1.75,2.5,1.0,1.5,1.25,3.0,2.0,3.0,4.75,0.14,0.52,1.77,206.11,-0.2,-38.2,1.25,0.25,0.0,2.25,0.5,2.75,0.25,0.25,1.0,1.5,0.0,0.25,0.0,0.33,-0.61,0.64,0.0,-1.3,20.9
3.56,1.0,0.0,1.75,0.0,2.25,1.75,0.5,3.5,1.25,5.75,2.25,3.75,6.25,-0.3,0.64,2.33,288.71,-3.4,-49.7,1.5,0.25,1.0,2.25,1.25,2.75,0.5,0.5,0.25,0.0,0.5,0.0,0.25,0.14,-0.3,0.39,0.0,-6.6,40.7
3.58,0.0,0.0,0.0,0.0,0.75,3.0,0.25,6.0,3.25,8.0,3.75,6.0,7.25,-0.11,0.7,2.58,409.83,-6.8,-67.3,1.5,0.5,0.0,2.0,1.0,3.0,0.25,0.0,1.0,1.25,0.0,0.0,0.25,0.02,-0.23,0.52,49.01,-1.4,29.2
3.6,2.0,0.5,0.75,0.0,0.0,2.75,1.5,6.75,3.0,7.25,5.75,6.0,8.25,0.02,0.2,1.08,558.9,-2.9,-58.5,1.25,0.75,0.5,1.75,1.25,2.75,0.5,0.25,1.0,1.0,0.75,0.25,0.5,-0.11,-0.11,0.83,92.03,-3.2,19.4
3.62,1.75,0.75,0.0,0.75,1.75,3.0,1.0,7.25,3.75,7.25,4.0,6.0,7.25,-0.05,0.08,0.95,675.31,-3.9,-50.8,0.75,0.0,0.5,0.5,1.25,1.25,0.5,0.25,0.5,1.25,0.75,0.25,0.25,-0.11,-0.11,0.95,107.41,-2.2,2.6
3.64,0.75,0.5,0.0,0.25,1.75,2.0,0.0,7.0,4.0,7.75,5.25,6.0,7.25,-0.11,0.08,0.95,733.28,-4.6,-60.1,0.5,0.0,0.5,0.5,1.25,1.25,0.5,0.25,0.5,0.25,0.75,0.0,0.25,-0.05,0.02,0.95,109.53,-3.6,15.9
3.66,2.0,0.5,1.25,1.0,4.5,3.5,2.0,7.5,5.0,8.75,6.25,7.0,8.25,-0.11,0.08,0.95,848.71,-2.0,-44.0,0.25,0.0,0.0,0.75,0.5,1.25,0.25,0.25,0.25,0.0,0.75,0.0,0.75,-0.05,0.14,1.14,93.75,1.4,-3.2
3.68,2.0,0.75,1.5,1.0,4.75,4.0,2.0,7.5,5.0,9.0,6.5,7.0,8.5,-0.11,0.08,0.95,953.37,-2.0,-42.4,0.5,0.0,0.0,0.5,0.0,1.25,0.25,0.25,0.5,0.0,0.0,0.0,0.0,-0.11,0.2,1.27,73.12,-1.3,29.9
3.7,2.0,0.75,2.5,1.0,4.75,4.0,2.25,8.0,5.5,9.0,6.75,7.0,8.5,-0.11,0.08,0.95,1051.87,-1.2,-40.6,0.5,0.0,0.0,1.25,0.0,2.75,0.25,0.0,0.5,1.0,0.0,0.0,0.0,0.02,0.27,1.52,74.55,4.4,19.8
3.72,2.0,0.75,2.5,2.0,4.75,4.0,2.5,8.25,5.5,9.25,7.0,6.75,8.5,-0.11,0.08,0.95,1109.09,-0.9,-38.8,0.25,0.0,0.0,0.75,0.0,1.75,0.25,0.25,0.75,1.5,0.0,0.25,0.0,0.14,0.45,1.7,74.77,5.2,-9.2
3.74,2.0,0.75,2.5,2.25,5.0,4.0,2.25,8.25,5.5,8.75,7.0,6.25,8.25,-0.11,0.08,0.95,1131.59,-0.8,-36.9,0.75,0.0,0.5,0.0,1.25,1.75,0.25,0.25,1.0,1.5,0.75,0.25,1.0,0.27,0.64,2.2,94.49,1.5,-13.0
3.76,2.0,1.25,2.5,2.25,4.75,4.5,2.75,8.25,5.75,8.75,7.0,6.0,8.25,-0.11,0.08,0.95,1113.97,-0.7,-35.2,0.25,0.0,0.5,0.5,1.0,0.5,0.25,0.25,0.25,0.0,0.75,0.0,0.5,0.45,1.27,2.58,86.75,-5.4,7.4
3.78,2.0,0.5,2.5,2.25,5.5,3.25,3.0,8.25,5.75,8.75,6.75,6.0,8.0,-0.11,0.08,0.95,1073.75,-0.4,-36.3,0.5,0.0,0.0,0.5,0.25,1.25,0.25,0.25,0.0,0.0,0.0,0.0,0.0,0.58,2.02,3.02,69.39,1.0,44.2
3.8,2.0,0.5,2.75,2.25,4.25,4.25,2.75,8.25,6.0,8.75,6.75,5.75,7.5,-0.11,0.08,0.95,1036.89,-0.5,-36.2,0.25,0.0,0.0,0.0,0.0,1.25,0.0,0.0,0.25,0.0,0.0,0.0,0.0,0.45,3.14,3.83,42.7,9.5,32.2
3.82,2.0,0.75,2.5,2.5,5.75,4.5,3.25,8.25,6.25,7.75,6.5,5.25,7.0,-0.11,0.08,0.95,996.6,-0.3,-30.5,0.25,0.0,0.0,0.5,0.5,1.25,0.25,0.0,0.25,0.0,0.0,0.0,0.0,0.02,4.08,-0.23,32.77,1.6,40.9
3.84,2.0,0.5,2.75,2.5,5.75,5.25,3.5,8.25,6.25,7.75,6.0,5.0,6.5,-0.11,0.08,0.95,965.34,-0.4,-28.5,0.5,0.0,0.0,0.25,0.0,2.5,0.0,0.0,0.75,0.75,0.0,0.25,0.0,-2.36,6.58,-1.8,38.74,6.9,5.9
3.86,2.25,0.75,3.0,3.25,5.75,5.5,3.5,8.25,6.5,7.0,6.0,3.75,5.5,-0.11,0.08,0.95,936.13,0.3,-22.0,0.5,0.75,0.25,1.5,1.0,2.75,0.25,0.25,0.75,2.25,0.25,0.25,1.25,-3.67,5.7,-0.98,92.4,3.3,-1.0
3.88,2.5,0.75,3.5,2.5,5.75,6.25,3.75,8.0,6.5,6.5,5.75,3.75,4.5,-0.11,0.08,0.95,902.28,0.8,-18.8,0.75,0.25,0.25,1.0,1.25,1.75,0.25,0.5,1.0,2.5,0.0,1.75,2.25,0.58,-0.73,2.77,141.24,2.5,-28.4
3.9,3.0,0.75,3.75,2.75,5.75,6.0,4.0,8.0,6.5,5.75,5.75,3.0,4.5,-0.11,0.08,0.95,868.49,1.5,-15.4,0.5,0.0,0.0,0.0,0.0,0.0,0.0,0.25,0.5,2.5,0.0,1.75,3.5,0.39,1.02,0.33,165.62,6.0,-83.8
3.92,3.5,1.0,4.75,4.25,5.75,6.25,4.25,7.75,7.0,5.0,5.25,2.25,3.75,-0.11,0.08,0.95,867.33,3.3,-6.8,0.0,0.5,0.0,0.5,0.0,0.5,0.0,2.0,1.75,6.75,0.0,5.5,5.75,0.58,0.58,3.95,238.61,6.2,-77.3
3.94,3.75,1.5,4.75,4.75,5.75,6.25,4.25,7.5,6.75,4.75,4.75,2.25,2.75,-0.11,0.08,0.95,868.58,4.0,-1.9,0.5,1.25,0.0,1.75,0.0,4.5,0.0,4.0,3.5,7.75,4.5,6.75,8.5,0.02,0.45,1.52,373.12,4.5,-57.8
3.96,5.25,1.75,4.75,5.0,7.5,6.75,4.5,7.5,6.75,4.75,4.25,2.25,2.5,-0.11,0.08,0.95,906.55,4.4,4.1,1.25,0.25,0.0,0.0,2.5,2.75,0.0,5.75,3.5,8.25,6.75,6.0,8.75,0.08,0.27,1.02,560.11,4.5,-59.6
3.98,6.25,1.75,5.75,6.5,7.75,7.25,4.75,7.25,6.5,4.5,4.0,2.25,2.5,-0.11,0.08,0.95,970.22,5.6,9.0,0.75,1.0,0.0,0.0,0.0,2.75,0.0,5.75,3.5,7.5,5.5,6.0,8.0,0.14,0.2,0.95,689.98,4.8,-64.7
4.0,7.25,2.0,6.25,7.25,8.0,7.5,5.0,6.75,6.0,3.75,3.0,2.25,2.5,-0.11,0.08,0.95,1037.24,6.7,14.9,0.25,0.5,0.0,0.5,0.0,3.75,0.0,5.75,4.25,8.25,6.75,6.5,8.5,0.14,0.14,0.95,791.14,5.0,-65.8
4.02,8.75,2.0,7.0,8.75,9.25,7.25,5.5,6.25,5.25,3.5,3.0,2.25,1.75,-0.11,0.08,0.95,1117.14,8.2,21.6,0.5,0.0,0.5,0.0,1.0,3.5,0.25,6.5,4.0,8.25,5.25,6.0,8.0,0.08,0.14,0.95,815.57,5.3,-62.3
4.04,9.5,2.0,8.25,10.5,9.5,7.5,5.5,5.5,3.75,2.75,2.5,2.25,1.5,-0.11,0.08,0.95,1186.95,9.7,28.3,0.5,1.0,1.0,0.0,1.25,5.0,0.5,5.75,3.75,8.25,5.0,6.0,8.0,0.14,0.14,0.95,824.27,4.9,-53.8
4.06,10.5,2.25,9.75,12.5,12.0,6.75,4.5,5.0,2.5,2.75,2.0,1.5,1.5,-0.05,0.14,1.14,1274.36,10.6,35.7,1.25,1.0,0.25,0.0,1.25,4.75,0.75,6.5,4.0,8.5,6.0,6.0,8.0,0.14,0.14,0.89,834.03,4.6,-53.9
4.08,12.5,0.0,0.0,11.5,11.5,6.0,2.25,3.5,2.0,3.25,2.0,1.0,1.5,-0.17,0.14,1.39,1197.92,7.0,33.2,0.5,0.5,1.25,0.0,2.5,3.75,1.25,6.5,3.5,7.75,6.5,5.5,8.5,0.14,0.14,0.95,840.13,4.0,-53.4
4.1,14.5,3.75,10.5,10.5,8.25,5.25,2.0,3.5,1.5,1.5,1.75,0.5,1.5,-0.23,0.27,1.39,1194.01,14.6,47.0,1.5,1.25,1.25,1.75,1.25,5.0,1.0,7.0,3.75,7.75,6.0,5.0,8.25,0.14,0.14,0.95,838.11,3.0,-44.1
4.12,14.5,3.75,11.0,7.75,9.25,4.5,0.75,1.5,1.25,3.0,2.0,0.5,1.5,-0.23,0.33,1.58,1140.91,14.8,46.7,1.25,1.0,0.0,0.5,3.0,5.5,0.75,7.25,3.75,8.0,5.25,5.5,8.0,0.14,0.14,0.89,827.98,5.4,-46.4
4.14,13.5,3.5,10.5,5.75,7.25,3.0,0.25,3.0,0.75,2.75,0.75,0.75,1.25,-0.42,0.58,2.14,1059.4,15.4,46.9,1.25,0.75,0.75,1.25,1.25,5.75,1.0,7.25,4.0,7.75,5.25,5.25,8.0,0.14,0.14,0.95,805.74,4.4,-46.9
4.16,10.5,2.0,8.0,4.75,5.75,1.75,0.75,1.5,0.5,2.0,0.5,0.5,0.5,-0.67,0.64,2.33,862.47,17.1,50.9,1.5,1.5,1.75,1.5,1.25,6.0,0.25,7.25,4.25,7.75,5.25,4.25,7.5,0.14,0.14,0.95,765.0,3.4,-39.3
4.18,8.75,1.75,6.5,3.0,4.5,1.75,0.75,1.0,1.0,1.25,0.5,0.0,0.5,-0.98,0.77,2.77,654.96,17.5,52.7,1.25,2.0,1.5,1.75,2.25,6.25,1.25,7.5,4.25,7.75,4.0,3.25,7.0,0.14,0.14,0.95,730.48,3.8,-32.3
4.2,7.25,0.5,4.75,2.0,2.25,0.25,0.5,1.25,1.0,2.0,0.5,0.5,0.5,-1.05,0.58,2.83,434.1,18.3,39.0,1.5,1.75,1.5,2.25,4.25,6.25,1.25,7.75,4.25,6.75,3.25,3.0,6.25,0.14,0.14,0.95,716.85,3.4,-24.4
4.22,4.5,0.25,2.5,0.0,1.75,1.0,0.25,0.0,0.5,0.0,0.75,0.5,0.0,-0.8,-0.48,2.27,264.33,20.5,51.4,1.5,1.75,1.75,3.25,5.25,7.0,1.25,8.0,3.75,6.75,3.25,1.75,5.25,0.14,0.14,0.95,717.72,3.4,-15.7
4.24,1.25,0.0,2.25,0.0,1.25,1.0,0.25,0.0,0.75,0.25,0.5,0.25,0.5,-0.17,-0.73,0.14,132.98,13.6,24.3,1.5,1.75,2.5,3.25,6.5,7.5,1.25,8.0,3.75,6.0,1.25,1.75,4.25,0.14,0.14,0.95,714.05,3.1,-6.8
4.26,0.25,0.0,1.5,0.0,1.75,0.75,0.25,0.0,0.5,0.75,0.5,0.75,0.5,-0.98,-0.73,1.83,21.9,6.2,0.2,2.0,1.75,2.5,3.25,6.75,7.75,1.25,8.0,4.25,5.25,2.75,1.5,3.25,0.14,0.14,0.95,724.11,1.9,-4.0
4.28,0.0,0.0,1.25,0.0,1.25,0.0,0.5,0.0,0.5,0.0,0.5,0.25,0.5,-0.55,-1.05,1.2,0.0,12.4,4.8,2.0,2.0,2.25,3.25,7.25,7.75,1.0,8.0,4.0,5.25,2.25,1.0,3.0,0.14,0.14,0.95,724.39,2.4,-0.7
4.3,0.25,0.25,1.0,0.0,1.75,0.25,1.25,0.0,0.5,1.0,0.5,0.5,0.5,-0.48,-0.73,0.7,0.0,6.9,0.2,2.75,1.5,2.0,5.25,8.25,8.25,0.75,8.0,3.75,4.75,1.5,1.0,3.0,0.14,0.14,0.95,741.48,1.8,5.1
4.32,0.25,0.25,1.25,0.0,1.75,1.5,0.75,0.0,0.5,1.0,0.5,0.5,0.5,-0.48,-0.55,0.27,0.0,3.0,5.9,3.5,1.25,2.5,5.25,9.5,8.75,0.75,7.75,3.5,3.75,1.5,0.5,2.5,0.14,0.14,0.95,762.06,1.0,12.3
4.34,0.0,0.5,0.5,0.0,1.25,1.75,0.75,1.0,0.5,1.75,0.75,0.75,0.75,-0.42,-0.42,0.39,0.0,-3.9,-18.6,5.5,1.75,1.75,7.0,11.0,9.0,0.5,7.5,3.0,3.75,1.75,0.25,2.25,0.14,0.14,0.95,816.71,-0.1,19.5
4.36,0.0,0.25,2.75,0.0,2.25,0.25,1.5,1.5,0.5,2.25,2.0,1.0,0.5,-0.36,-0.3,0.64,32.18,6.2,-13.5,7.0,3.0,1.75,8.0,12.5,9.5,0.25,7.25,1.75,3.75,0.75,0.25,2.25,0.14,0.14,0.95,894.14,-0.8,27.8
4.38,0.5,0.5,2.5,0.75,2.25,1.0,1.25,1.25,0.0,1.25,2.0,0.75,0.5,-0.36,-0.3,0.83,98.14,7.3,4.2,7.75,3.75,1.75,9.0,14.0,10.5,0.0,6.5,1.0,2.75,0.75,0.25,1.75,0.14,0.14,0.95,984.26,-1.5,35.3
4.4,0.75,0.5,2.5,0.5,2.25,1.0,0.75,1.25,0.5,1.5,1.75,0.75,0.5,-0.36,-0.23,0.95,152.2,6.8,2.8,8.75,2.25,1.25,0.0,15.5,0.0,0.0,5.75,1.0,2.75,0.0,0.25,1.0,0.08,0.2,1.02,888.17,-4.0,36.0
4.42,0.0,0.0,2.5,0.0,2.25,0.25,1.5,1.0,0.25,0.25,0.5,0.5,0.5,-0.36,-0.05,0.95,161.01,10.1,11.9,9.5,4.25,0.0,0.0,16.0,11.0,0.0,0.0,0.75,0.75,0.75,0.25,1.0,0.08,0.2,1.14,829.0,-1.3,51.8
4.44,1.0,0.5,1.0,1.0,1.25,1.5,0.75,0.0,0.5,1.5,0.5,0.5,0.5,-0.3,0.08,1.14,168.22,5.4,11.8,10.5,0.0,1.0,10.0,15.5,10.5,0.0,0.0,0.5,0.75,0.75,0.0,1.0,0.2,0.27,1.2,802.95,-5.0,51.4
4.46,0.0,0.5,2.25,1.0,1.75,1.5,1.0,1.25,0.5,0.75,1.5,1.0,0.5,-0.3,0.2,1.2,179.26,6.0,1.7,10.0,4.0,0.0,9.0,15.5,8.5,0.0,1.25,0.25,0.0,1.0,0.0,1.25,0.27,0.33,1.2,828.19,-5.1,53.7
4.48,0.25,0.5,2.5,0.75,1.75,1.75,1.0,1.25,0.5,1.25,1.5,0.5,0.5,-0.36,0.33,1.52,192.11,5.5,5.2,10.5,4.25,0.0,9.0,11.5,8.25,0.0,0.0,0.25,0.0,0.0,0.0,0.0,0.2,0.39,1.27,807.18,-7.5,64.6
4.5,0.0,0.5,2.25,1.0,1.75,1.25,1.0,1.5,0.25,1.25,1.75,0.75,0.5,-0.42,0.52,1.89,201.21,5.2,-1.0,9.75,4.0,0.0,7.25,11.0,7.75,0.0,0.25,0.0,0.0,0.0,0.0,0.5,0.27,0.45,1.7,762.81,-6.7,62.5
4.52,0.75,0.5,2.25,1.0,1.75,1.75,1.0,1.5,0.5,2.0,1.75,0.5,0.5,-0.61,0.77,2.27,215.04,4.7,2.0,8.75,0.0,0.0,6.0,8.25,7.0,0.0,0.25,0.0,0.25,0.0,0.0,0.0,0.58,1.02,2.39,626.3,-6.5,60.1
4.54,0.75,0.0,2.25,0.0,1.75,0.25,1.0,0.0,0.5,0.0,0.5,0.5,0.5,-0.73,1.39,2.95,188.31,16.1,22.2,8.0,0.0,0.0,3.25,6.25,5.5,0.0,0.25,0.0,0.0,0.0,0.0,0.25,0.77,1.39,3.08,464.32,-7.1,61.0
4.56,0.75,0.0,0.25,0.0,0.0,0.25,0.75,0.25,0.25,0.25,0.25,0.5,0.25,-0.92,2.7,3.27,137.84,11.8,-11.2,5.75,1.5,0.0,1.5,3.25,2.25,0.0,0.5,0.0,0.75,0.0,0.0,0.75,0.64,0.83,3.08,317.67,-8.6,53.8
4.58,0.5,0.0,0.25,0.0,1.75,0.5,1.25,1.25,0.5,0.75,1.75,0.5,0.5,-0.92,4.02,2.45,112.92,1.8,-17.8,1.25,0.75,0.0,0.0,1.25,1.75,0.0,0.25,0.0,0.0,0.0,0.0,0.0,-0.23,0.08,0.64,186.07,-0.7,59.5
4.6,0.5,0.5,2.25,0.0,1.75,0.5,0.75,0.5,0.0,0.0,0.25,0.25,0.5,-0.17,5.33,-1.42,98.53,12.4,32.7,0.5,0.5,0.0,0.5,1.25,2.75,0.0,0.0,0.0,0.0,0.0,0.0,0.0,0.64,-0.48,2.14,71.22,5.8,52.8
4.62,0.5,0.0,0.0,0.0,1.25,1.0,0.25,0.0,0.5,1.25,1.5,0.5,0.5,4.02,7.58,-1.42,96.11,-0.9,-24.4,0.5,0.5,0.0,0.0,1.25,0.5,0.0,0.0,0.0,0.0,0.0,0.0,0.25,0.2,-1.48,2.7,0.0,-1.1,51.2
4.64,2.0,0.5,1.75,0.5,2.5,1.75,0.75,1.5,1.0,1.5,2.0,0.5,2.0,-0.48,-1.8,0.89,150.52,4.1,-2.2,0.5,0.5,0.0,0.25,1.0,0.25,0.0,0.25,0.0,0.0,0.0,0.0,0.0,0.27,-1.48,1.52,0.0,-4.8,59.6
4.66,0.5,0.0,0.25,0.0,0.5,0.75,0.25,1.25,0.5,1.25,0.5,0.5,2.0,-0.05,0.58,-0.48,153.99,-5.0,-44.0,0.5,0.5,0.0,0.5,1.25,1.5,0.0,0.25,0.0,0.0,0.0,0.0,0.0,0.45,-0.67,0.83,0.0,2.0,52.6
4.68,2.0,0.5,0.0,0.5,2.25,2.0,0.25,1.25,0.5,3.25,2.0,2.0,4.5,0.2,0.64,0.95,204.85,-2.7,-33.9,0.5,2.0,0.0,2.75,1.25,2.75,0.0,0.5,0.25,2.5,0.0,0.5,0.75,0.33,-0.36,0.52,0.0,1.6,16.1
4.7,1.5,0.25,2.0,1.0,2.25,2.25,0.75,0.5,0.75,4.25,0.75,2.0,4.75,0.89,0.45,2.52,240.82,-0.1,-26.5,0.75,1.5,0.0,2.5,1.5,2.75,0.25,0.25,0.25,1.75,0.0,0.5,0.0,0.27,-0.17,0.58,32.32,-0.2,29.1
4.72,0.0,0.0,0.75,0.0,1.75,1.75,0.25,5.25,1.5,6.5,2.0,6.0,6.5,-0.11,0.77,2.02,332.16,-6.2,-64.0,1.0,1.5,0.25,2.0,1.5,2.75,0.25,0.5,0.0,1.75,0.75,0.5,0.5,0.02,-0.05,0.64,98.72,-0.4,18.7
4.74,0.5,0.5,0.0,0.0,0.0,1.75,1.5,6.25,3.25,2.75,5.25,6.0,8.25,0.27,0.2,1.33,427.14,-3.1,-67.6,0.75,1.5,0.0,2.0,1.5,2.75,0.25,0.25,0.25,1.75,0.25,0.5,0.25,-0.05,0.14,0.83,135.18,0.5,22.8
4.76,1.25,0.5,0.0,0.0,0.5,2.5,0.0,6.0,4.25,7.0,5.75,6.25,7.25,-0.05,0.08,0.95,563.55,-3.7,-62.5,1.25,1.5,0.0,2.0,1.25,2.75,0.25,0.25,0.25,2.0,0.75,0.5,0.75,0.08,0.14,0.89,170.27,-0.3,14.3
4.78,2.0,0.75,0.0,0.0,1.75,4.0,2.0,7.5,5.25,8.75,6.75,7.0,7.5,-0.11,0.08,0.95,723.89,-3.0,-52.5,1.5,1.25,0.25,1.5,1.25,2.75,0.25,0.25,0.25,1.25,0.75,0.5,1.25,0.27,0.14,1.08,187.24,-1.2,13.6
4.8,2.0,0.5,1.0,0.0,2.25,4.0,2.25,7.5,5.5,8.75,7.0,7.25,8.25,-0.11,0.08,0.95,865.57,-2.2,-50.9,1.25,1.25,0.25,1.25,1.25,0.5,0.25,0.25,0.25,1.5,0.75,0.5,1.25,0.39,0.2,1.27,192.04,-4.5,4.4
4.82,2.0,0.5,2.25,0.0,3.0,4.25,2.75,8.0,5.75,8.75,7.5,7.5,8.5,-0.11,0.08,0.95,989.35,-1.3,-46.8,0.75,1.0,0.25,1.75,1.25,0.5,0.25,0.5,0.25,1.5,0.75,0.5,1.25,0.45,0.33,1.52,190.45,-3.0,-0.3
4.84,2.0,0.5,2.5,0.25,2.25,4.25,3.0,8.25,6.0,9.25,7.75,7.5,9.0,-0.11,0.08,0.95,1082.73,-1.1,-48.0,1.0,1.5,0.0,2.0,1.25,2.75,0.5,0.25,0.25,1.75,0.5,0.5,1.25,0.52,0.45,1.95,192.57,0.3,11.5
4.86,2.0,0.5,2.75,0.75,2.5,4.25,3.0,8.25,6.0,9.25,7.5,7.5,9.0,-0.11,0.08,0.95,1139.61,-0.8,-46.1,0.5,0.0,0.25,0.5,1.25,0.5,0.5,0.25,0.0,0.0,0.75,0.0,1.0,0.64,0.7,2.33,160.62,-3.1,2.6
4.88,1.75,0.5,3.0,0.0,1.75,4.0,1.0,8.25,5.75,9.0,7.5,7.0,8.75,-0.11,0.08,0.95,1123.45,-1.5,-49.7,0.0,0.5,0.0,0.5,1.0,0.5,0.25,0.0,0.0,0.0,0.0,0.0,0.25,0.77,1.08,2.7,117.68,-0.4,44.1
4.9,2.0,0.75,1.75,1.0,2.5,4.0,1.75,8.0,5.75,9.0,7.5,7.0,8.25,-0.11,0.08,0.95,1103.77,-1.5,-46.5,0.0,0.25,0.0,0.25,1.0,0.5,0.25,0.0,0.0,0.5,0.0,0.0,0.5,0.83,1.58,2.89,70.86,5.4,8.4
4.92,2.0,0.5,2.5,1.0,2.5,4.25,2.25,7.75,5.75,8.75,7.25,6.75,8.25,-0.11,0.08,0.95,1051.23,-0.9,-44.6,0.0,0.25,0.0,0.5,0.5,0.25,0.0,0.25,0.0,0.0,0.0,0.0,0.25,0.89,2.64,1.83,31.78,1.3,27.0
4.94,2.0,0.5,2.0,1.0,2.5,4.25,2.5,8.0,6.0,8.75,7.0,6.0,7.75,-0.11,0.08,0.95,1002.62,-1.3,-43.8,0.25,0.75,0.0,1.75,1.0,0.75,0.0,0.25,0.25,2.0,0.0,0.5,0.0,-1.11,7.64,-2.3,43.46,-0.1,8.6
4.96,2.25,0.5,2.5,2.25,3.0,5.0,2.25,8.0,6.0,7.75,7.0,5.75,7.25,-0.11,0.08,0.95,956.54,-0.4,-36.9,2.0,1.5,0.0,3.0,1.25,2.75,0.25,0.25,0.25,2.5,0.25,0.5,1.25,-2.98,6.95,0.02,107.39,-1.7,16.8
4.98,2.25,0.5,2.0,2.5,3.75,5.25,3.0,8.0,6.0,7.75,6.25,5.25,6.5,-0.11,0.08,0.95,917.25,-0.7,-33.2,0.5,1.75,1.0,3.0,1.25,2.5,0.25,0.25,0.25,1.5,0.0,0.25,0.25,-1.42,1.08,2.89,155.13,-4.0,34.3
5.0,2.25,0.75,2.75,2.5,4.75,5.5,3.75,7.75,6.25,7.25,6.0,4.25,5.75,-0.11,0.08,0.95,878.33,0.1,-26.1,2.5,1.5,0.0,3.0,0.5,2.5,0.25,0.25,0.75,1.0,0.5,0.75,1.5,1.58,-3.92,0.95,194.19,-5.5,18.6
5.02,2.5,0.75,2.75,3.25,5.5,6.0,3.75,7.75,6.25,6.5,6.0,3.75,5.5,-0.11,0.08,0.95,854.85,0.4,-21.1,2.0,1.25,0.5,1.75,1.0,2.25,0.0,0.0,0.25,1.0,0.0,0.75,1.5,-0.11,-0.42,1.7,204.0,-4.3,19.9
5.04,2.5,1.0,4.5,4.25,5.5,6.0,3.75,8.0,6.25,6.5,5.75,3.75,4.5,-0.11,0.08,0.95,867.18,2.0,-15.1,1.75,0.0,0.25,1.25,0.0,1.25,0.0,0.0,1.0,1.0,0.0,2.0,4.0,-0.23,0.77,1.02,205.24,-1.6,-39.5
5.06,2.75,1.0,4.25,4.75,5.75,6.25,4.0,8.0,6.5,5.75,5.25,3.0,4.25,-0.11,0.08,0.95,880.76,2.2,-11.0,3.25,0.0,0.5,0.5,0.0,2.5,0.0,0.25,1.0,1.25,0.75,1.5,4.5,0.14,-0.11,1.45,209.61,-1.6,-27.3
5.08,3.0,1.5,4.75,4.75,6.5,6.75,4.25,8.0,6.75,5.0,5.0,2.5,3.75,-0.11,0.08,0.95,908.23,2.8,-5.2,4.0,0.75,0.0,1.75,1.25,1.0,0.0,0.25,0.75,1.0,0.5,0.75,4.0,0.08,-0.3,0.95,223.79,-5.6,-1.6
5.1,3.75,2.0,5.0,5.75,7.75,7.25,4.25,7.75,6.75,5.0,4.5,2.25,2.5,-0.11,0.08,0.95,951.42,3.6,2.9,4.5,0.75,0.5,1.0,1.25,0.5,0.0,0.0,0.75,1.0,0.75,0.5,2.25,0.27,-0.17,0.89,232.17,-11.1,14.9
5.12,3.75,2.0,5.25,6.75,8.0,7.5,4.5,7.75,6.75,4.75,4.0,2.25,2.5,-0.11,0.08,0.95,1000.62,3.9,5.3,4.0,0.75,0.0,2.25,1.25,0.5,0.0,0.25,1.0,1.0,0.0,0.5,3.0,0.2,-0.11,0.64,233.87,-8.1,10.6
5.14,5.25,2.0,5.5,8.25,9.0,8.0,4.75,7.75,6.25,4.75,4.0,2.25,2.5,-0.11,0.08,0.95,1074.49,4.7,10.0,5.75,2.25,1.25,2.75,2.25,2.75,0.0,0.25,1.0,1.0,0.0,0.5,4.0,0.08,-0.23,0.64,269.01,-7.8,25.0
5.16,5.75,2.0,6.25,10.5,10.5,8.5,5.0,7.5,5.5,4.25,3.0,2.25,2.5,-0.11,0.08,0.95,1169.55,5.4,16.3,6.25,2.25,0.0,4.25,5.75,4.75,0.0,1.0,1.5,3.0,0.0,2.0,4.0,0.39,-0.3,0.58,348.77,-2.8,16.2
5.18,7.25,2.25,8.0,13.0,12.5,9.0,5.0,6.75,4.25,4.25,2.5,2.25,2.25,-0.11,0.08,0.95,1306.33,6.8,24.0,6.75,2.25,1.5,5.25,6.75,5.25,0.0,1.75,1.5,4.0,0.0,2.5,6.25,0.39,-0.17,0.89,485.07,-2.7,9.8
5.2,9.0,3.5,8.75,14.5,14.0,9.0,3.5,5.5,2.25,3.5,2.0,1.75,2.0,-0.11,0.14,1.08,1397.15,8.0,33.7,7.5,2.25,2.75,5.25,7.0,5.75,0.0,2.0,1.5,4.5,1.5,3.5,8.0,0.33,-0.05,1.02,661.39,-3.3,2.9
5.22,10.5,0.0,9.75,14.5,14.0,7.75,2.5,5.0,1.75,3.0,2.0,1.5,1.75,-0.23,0.14,1.33,1435.19,9.4,34.8,8.0,2.5,3.0,5.5,7.5,6.0,0.0,2.0,1.25,5.25,1.25,4.5,8.75,0.33,-0.11,1.02,834.03,-3.2,1.2
5.24,12.0,4.25,11.5,14.5,12.5,6.5,0.75,3.5,1.5,2.75,2.0,1.75,1.5,-0.17,0.2,1.39,1458.33,11.9,42.0,8.25,2.5,3.25,5.5,8.25,5.75,0.0,2.25,2.0,5.5,2.25,5.25,9.5,0.33,-0.11,1.02,981.19,-3.4,-2.4
5.26,13.5,5.0,12.5,11.5,11.0,5.25,0.75,3.25,1.25,2.75,2.0,1.5,1.5,-0.17,0.27,1.52,1437.69,13.6,44.2,8.25,2.75,4.5,6.5,8.25,6.25,0.0,2.5,2.25,5.5,2.5,5.5,10.5,0.33,-0.11,0.95,1116.8,-3.8,-2.1
5.28,14.0,4.5,12.5,9.25,9.25,3.0,0.75,2.5,1.0,1.25,2.0,0.5,1.0,-0.11,0.33,1.64,1354.5,16.8,51.6,9.0,2.5,4.75,6.5,8.25,6.5,0.0,3.0,2.25,5.5,2.25,5.25,11.0,0.33,-0.11,1.02,1219.65,-3.8,-1.6
5.3,11.5,3.75,11.5,7.25,7.75,1.75,1.5,2.0,0.5,1.5,0.5,0.5,0.5,-0.23,0.45,1.7,1165.51,18.0,54.9,9.25,3.0,4.5,6.75,8.5,6.5,0.0,2.0,2.25,5.25,0.75,4.5,9.5,0.33,-0.11,1.08,1255.2,-4.5,6.2
5.32,9.5,3.5,9.25,5.75,5.75,1.0,2.75,0.5,0.5,1.5,0.25,0.75,0.5,-0.42,0.83,2.39,911.95,19.5,55.4,9.5,2.5,5.25,5.5,8.5,6.0,0.0,0.75,1.5,2.75,2.25,3.0,8.75,0.33,-0.3,0.77,1206.98,-6.5,12.7
5.34,8.75,2.0,6.5,4.5,3.5,0.25,2.0,1.5,1.0,1.5,0.5,0.5,0.5,-0.8,0.77,2.39,656.76,19.3,48.7,9.75,3.0,5.25,7.0,7.75,6.25,0.0,0.5,2.0,3.25,0.75,1.25,6.25,0.27,-0.05,0.7,1118.77,-7.8,25.8
5.36,7.25,0.5,4.5,2.0,1.75,0.25,0.75,1.5,0.5,1.25,0.5,0.5,0.0,-0.36,0.95,3.08,414.95,20.4,47.0,9.75,3.75,6.75,8.75,8.75,6.25,0.0,2.0,1.0,2.25,0.75,0.25,5.0,0.27,2.45,0.7,1051.85,-8.9,36.0
5.38,4.5,0.0,3.75,0.0,0.0,0.0,0.25,0.0,0.5,1.0,0.5,0.0,0.0,-0.3,0.45,2.45,239.39,28.9,51.0,12.5,4.25,7.5,9.25,8.25,5.75,0.0,1.5,0.75,2.5,0.0,0.5,2.75,0.64,0.52,0.7,1006.91,-12.0,47.1
5.4,1.75,0.25,1.75,1.5,1.75,1.0,0.0,0.0,0.5,1.5,0.0,0.5,0.0,-0.61,0.83,0.39,106.95,10.7,31.6,13.0,5.0,8.75,10.5,8.25,5.75,0.0,0.75,0.75,2.5,0.75,0.75,2.25,0.02,0.27,1.7,1015.71,-13.4,49.0
5.42,1.5,0.0,1.5,0.0,0.75,1.0,0.5,0.0,0.5,1.25,0.5,0.5,0.25,-0.48,0.83,1.64,0.0,10.5,10.4,13.0,3.75,9.5,10.5,5.25,5.0,0.25,0.25,0.25,2.5,0.25,0.75,2.25,0.14,2.45,1.39,982.91,-15.7,50.5
5.44,1.0,0.0,0.5,0.0,0.0,1.0,0.0,0.0,0.5,1.25,0.0,0.5,0.5,0.33,1.2,1.02,0.0,2.8,-13.5,8.0,1.25,8.75,4.0,0.0,2.75,2.5,0.25,0.0,1.0,0.75,0.0,2.25,-0.36,3.89,1.89,768.53,-20.9,45.8
5.46,0.5,0.0,0.25,0.0,0.0,0.75,0.5,0.0,0.5,1.25,0.5,0.5,0.5,0.08,1.45,0.39,0.0,1.3,-34.4,8.0,2.5,5.25,3.75,0.0,2.75,0.0,0.25,0.25,2.0,1.0,0.5,2.0,3.33,-3.36,5.64,561.91,-16.5,39.5
5.48,1.25,0.5,0.25,0.75,0.0,1.75,0.75,0.0,0.5,2.75,0.5,1.0,1.0,-0.17,1.27,-0.3,0.0,0.6,-18.4,6.0,1.5,3.0,3.25,0.0,2.75,0.0,0.25,0.25,2.25,0.75,0.5,1.0,3.95,0.7,7.95,367.75,-13.8,35.9
5.5,0.75,0.5,3.0,0.25,0.0,1.75,0.75,1.25,0.5,2.75,2.0,1.0,0.5,-0.17,0.45,-0.8,0.0,6.3,-13.6,3.25,1.75,2.0,2.25,0.0,2.75,0.0,0.5,0.25,2.0,0.75,0.5,1.5,-1.11,1.14,0.2,258.82,-8.2,21.1
5.52,0.0,0.0,2.5,0.0,0.0,0.5,0.0,0.0,0.25,1.25,0.0,0.5,0.5,-0.11,-0.05,-0.67,9.04,12.3,-7.5,2.0,1.75,1.5,2.0,1.0,2.75,0.0,0.25,0.25,1.25,0.75,0.5,1.25,0.77,2.52,3.95,182.69,-6.1,23.6
5.54,1.25,0.25,0.25,0.0,0.0,0.5,0.5,0.5,0.25,1.25,0.5,0.5,0.5,0.02,-0.8,-0.36,33.27,4.8,-15.7,0.75,1.5,1.25,2.0,1.25,2.5,0.0,0.5,0.25,1.75,0.75,0.5,1.25,-0.8,0.2,4.2,139.26,-2.2,11.5
5.56,0.0,0.0,0.5,0.0,0.0,0.5,0.5,1.0,0.0,1.25,0.25,0.5,0.25,0.14,-0.86,-0.05,33.15,-3.6,-40.3,1.5,1.5,0.75,2.0,1.25,2.5,0.0,0.25,0.25,2.25,0.75,0.5,1.25,-1.86,-1.36,2.95,113.3,-2.2,11.8
5.58,0.0,0.0,0.25,0.0,0.75,0.25,0.5,0.0,0.5,1.25,0.0,0.5,0.0,0.33,-0.67,-0.05,34.88,0.0,-23.7,1.5,1.5,0.5,2.0,1.25,2.75,0.0,0.25,0.25,1.0,0.75,0.5,1.25,0.14,0.14,0.89,94.02,-2.7,19.3
5.6,0.25,0.0,0.5,0.0,0.0,0.5,0.75,1.0,0.0,1.0,0.5,0.5,0.5,0.45,0.02,-0.61,45.33,-0.2,-35.8,1.5,1.25,0.5,2.0,1.25,2.75,0.0,0.5,0.25,1.75,0.75,0.5,1.25,-0.17,0.27,1.39,92.96,-1.2,11.9
5.62,0.25,0.0,0.5,0.0,0.0,0.25,0.5,0.5,0.0,0.25,0.0,0.5,0.25,0.58,1.2,-1.55,46.88,6.8,-19.1,1.25,1.5,0.75,1.75,1.25,2.75,0.0,0.25,0.25,1.5,0.75,0.5,1.75,-0.11,-0.17,1.27,102.49,-1.3,10.1
5.64,0.25,0.25,0.25,0.0,0.0,0.25,0.5,1.25,0.0,0.0,0.5,0.5,0.5,0.83,2.02,-2.73,46.8,1.3,-29.6,1.25,1.25,0.5,1.75,1.25,2.75,0.0,0.25,0.25,1.5,0.75,0.5,1.25,0.2,-0.67,0.52,117.32,-1.0,12.1
5.66,0.75,0.5,0.25,0.0,0.0,0.25,0.5,1.25,0.5,0.0,0.0,0.5,0.5,0.14,2.2,-2.55,50.29,5.4,-6.1,0.0,1.25,0.5,1.75,1.25,2.75,0.0,0.25,0.25,2.5,0.75,0.5,1.5,0.52,-1.36,0.27,140.78,3.4,-4.1
5.68,1.0,0.0,0.25,0.0,0.0,0.25,0.5,1.0,0.25,0.25,0.5,0.5,0.5,0.39,1.64,-1.55,55.74,6.3,-20.0,1.0,1.5,0.5,1.75,1.25,2.75,0.0,0.0,0.25,1.0,0.75,0.5,1.5,0.89,-2.55,0.58,164.45,-1.3,14.2
5.7,2.0,0.0,0.25,0.0,0.0,0.25,0.75,1.0,0.5,0.0,0.0,0.5,0.5,0.83,0.89,-0.48,60.7,13.0,9.0,0.75,1.5,0.25,1.25,1.25,2.75,0.0,0.0,0.25,1.5,0.75,0.5,1.5,2.58,-1.55,-0.11,167.81,1.3,6.2
5.72,2.0,0.0,0.0,0.0,0.0,0.5,0.5,1.25,0.25,0.25,0.0,0.5,0.25,0.27,0.58,-0.11,64.03,8.1,8.9,0.75,1.5,0.0,1.75,1.5,2.75,0.0,0.25,0.25,1.75,0.75,0.5,1.5,4.77,-1.73,-2.98,177.62,2.0,5.8
5.74,2.0,0.0,0.25,0.0,1.25,0.25,0.5,0.25,0.0,0.25,0.25,0.5,0.25,-0.05,0.08,0.27,74.57,12.2,29.0,1.5,1.5,0.25,1.75,1.25,2.75,0.0,0.25,0.25,1.75,0.75,0.5,1.5,1.58,-2.11,-2.42,187.79,-0.5,10.4
5.76,2.0,0.0,0.25,0.0,0.5,0.25,0.5,0.25,0.25,0.25,0.25,0.5,0.5,0.27,-0.36,1.02,84.38,13.6,14.7,1.5,1.25,0.25,1.75,1.25,2.75,0.0,0.25,0.25,1.5,0.75,0.5,1.5,-1.48,-2.92,-1.98,193.59,-0.6,10.3
5.78,2.25,0.0,2.0,0.0,1.75,0.25,0.25,1.25,0.5,1.25,0.0,0.5,0.5,0.14,0.27,1.33,114.76,10.1,16.8,1.5,1.5,0.5,1.75,1.25,2.75,0.0,0.25,0.25,1.5,0.75,0.5,1.25,-3.05,-1.05,-1.17,198.33,-1.8,15.1
5.8,2.0,0.0,0.0,0.0,0.75,0.25,0.25,0.25,0.5,1.25,0.5,0.5,0.5,0.45,-0.3,1.52,119.53,6.9,-4.6,0.25,1.0,0.75,2.0,1.25,2.75,0.0,0.25,0.25,2.0,0.75,0.5,1.25,-2.55,0.14,-0.86,196.54,1.1,2.8
5.82,2.0,0.0,0.25,0.0,0.5,0.5,0.5,0.0,0.5,1.25,0.25,0.5,0.25,-0.11,-0.86,1.39,121.58,9.7,6.0,0.5,1.25,0.5,1.75,1.25,2.75,0.0,0.25,0.25,2.0,0.75,0.5,1.25,-1.48,0.52,-1.36,194.79,1.3,4.2
5.84,2.0,0.0,0.5,0.0,0.0,0.5,0.5,0.0,0.5,1.25,0.5,0.5,0.5,0.08,-0.86,1.33,113.02,11.2,-3.8,0.75,1.5,0.25,2.0,1.25,2.75,0.0,0.0,0.25,2.25,1.25,0.5,1.0,-0.92,0.7,-1.17,195.04,0.2,6.2
5.86,2.0,0.0,0.0,0.0,0.5,0.75,0.25,0.25,0.5,0.75,0.0,0.5,0.5,0.14,-0.48,1.2,107.03,6.6,7.7,1.25,1.25,0.5,2.0,1.25,2.75,0.0,0.25,0.25,1.5,0.75,0.5,0.75,-0.48,0.89,-1.11,195.44,-1.9,17.8
5.88,3.0,0.5,0.25,0.0,1.75,0.5,0.25,0.75,0.5,0.25,0.0,0.5,0.25,0.39,1.89,-1.67,113.77,10.8,37.7,1.0,1.25,0.25,2.0,1.25,2.75,0.0,0.25,0.25,2.25,0.75,0.5,0.75,-0.05,0.89,-0.73,196.73,0.3,10.3
5.9,2.0,0.0,0.0,0.0,0.75,1.0,0.0,0.5,0.5,0.25,0.0,0.5,0.5,-2.05,6.08,-4.98,110.58,5.3,15.6,0.5,1.5,0.5,2.0,1.25,2.75,0.0,0.25,0.25,1.5,0.75,0.5,0.5,0.08,0.77,-0.05,193.04,-0.6,17.6
5.92,3.0,0.5,0.25,0.0,1.75,0.75,0.25,0.25,0.5,0.0,0.5,0.5,0.75,-2.92,5.14,-4.61,125.47,10.7,30.4,0.75,1.5,0.25,1.75,1.25,2.75,0.0,0.25,0.25,2.0,0.75,0.5,0.0,0.08,1.02,-0.05,188.39,0.0,18.9
5.94,3.0,0.5,0.0,0.0,1.75,0.5,0.5,0.0,0.5,0.0,0.0,0.5,0.5,-2.17,1.58,-1.61,125.89,12.9,43.1,0.5,1.25,0.25,2.0,1.25,2.75,0.0,0.25,0.25,1.5,0.75,0.5,1.0,0.2,1.64,-0.3,183.86,0.9,9.7
5.96,2.75,0.25,1.75,0.0,1.25,0.5,0.75,1.0,0.5,0.0,2.0,0.5,0.5,-0.67,-3.67,-0.3,146.9,14.6,15.4,1.25,1.5,0.5,1.75,1.25,2.75,0.0,0.25,0.25,1.75,0.75,0.5,0.75,-0.05,1.64,-0.48,185.84,-1.5,16.8
5.98,2.0,0.25,0.0,0.0,0.0,0.25,0.25,0.0,0.5,0.5,0.0,0.5,0.25,1.2,-7.05,1.64,124.85,15.6,18.9,0.75,1.25,0.5,2.0,1.25,2.75,0.0,0.25,0.25,1.5,0.75,0.5,1.25,-0.61,1.52,-0.17,187.91,-0.1,9.9
6.0,2.0,0.25,0.25,0.0,1.75,0.25,0.5,1.0,0.5,1.25,0.5,0.5,0.0,2.7,-4.61,0.02,128.1,6.1,12.0,1.25,0.5,0.25,1.5,1.25,2.75,0.0,0.25,0.25,1.5,0.75,0.5,1.0,-0.98,1.52,-0.11,184.79,0.5,7.0
6.02,2.0,0.0,0.25,0.0,0.5,0.5,0.25,0.5,0.5,1.25,0.5,0.5,0.5,2.2,0.7,-0.86,113.49,6.6,-4.5,0.5,1.5,0.0,2.0,1.0,2.75,0.0,0.25,0.25,1.5,0.75,0.5,1.0,-1.11,1.27,-0.05,181.56,1.4,9.5
6.04,2.0,0.0,0.25,0.0,1.25,0.5,0.5,0.25,0.5,0.0,0.0,0.5,0.25,0.7,1.89,-2.05,111.0,12.1,32.3,1.75,1.25,0.25,2.0,1.0,2.75,0.25,0.25,0.25,1.75,0.75,0.5,1.25,-0.86,0.95,-0.36,186.95,-1.8,12.6
6.06,2.0,0.0,0.25,0.0,0.5,0.5,0.5,1.0,0.5,0.25,0.0,0.5,0.5,0.52,1.33,-1.55,101.66,8.5,10.4,0.0,1.25,0.25,1.5,1.25,2.75,0.25,0.25,0.25,1.5,0.75,0.5,1.0,-0.61,0.83,-0.42,181.54,2.9,4.2
6.08,1.75,0.0,0.0,0.0,1.75,0.25,0.5,1.25,0.5,0.25,0.0,0.5,0.0,0.33,0.89,-1.05,101.26,5.7,21.4,1.25,0.75,0.5,1.25,1.25,2.75,0.0,0.25,0.25,1.5,0.75,0.5,1.25,-0.36,0.7,-0.48,181.21,0.1,6.5
6.1,1.5,0.0,0.25,0.0,1.75,0.5,0.25,1.25,0.5,0.0,0.0,0.5,0.25,0.08,0.64,-0.86,100.31,4.6,19.2,0.5,1.5,0.25,1.75,1.0,2.75,0.25,0.25,0.25,1.75,0.75,0.5,1.25,-0.17,0.64,-0.42,181.41,1.2,5.6
6.12,1.25,0.0,0.0,0.0,1.25,0.25,0.25,0.5,0.25,0.0,0.0,0.5,0.5,-0.17,0.64,-0.98,88.88,5.6,13.3,0.5,1.25,0.25,2.0,1.0,2.75,0.25,0.25,0.25,2.0,0.75,0.5,0.75,-0.3,0.39,-0.67,182.47,0.9,7.9
6.14,1.0,0.0,0.25,0.0,1.75,0.5,0.25,1.0,0.25,0.0,0.0,0.5,0.5,-0.48,0.77,-0.92,89.08,2.0,12.4,1.0,1.25,0.25,1.75,1.0,2.75,0.25,0.25,0.25,1.5,0.75,0.5,1.25,-0.42,0.45,-0.86,183.73,0.0,8.7
6.16,1.0,0.0,0.25,0.0,1.25,0.5,0.25,1.0,0.5,0.0,0.0,0.5,0.5,-0.73,0.64,-0.61,82.78,3.0,6.0,1.25,1.25,0.25,1.5,1.0,2.75,0.25,0.25,0.25,1.25,0.75,0.5,1.25,-0.42,0.45,-0.98,184.49,-0.6,11.0
6.18,1.25,0.0,0.25,0.0,1.75,0.25,0.25,0.75,0.25,0.25,0.0,0.5,0.0,-0.36,0.2,0.33,83.56,6.0,24.7,1.5,1.0,0.25,0.75,1.25,2.75,0.25,0.25,0.25,1.5,0.75,0.5,1.25,-0.48,0.33,-0.92,182.65,0.4,7.1
6.2,1.0,0.0,0.0,0.0,1.75,0.25,0.5,1.25,0.25,0.25,0.5,0.5,0.25,-0.48,0.33,0.33,86.51,1.9,2.8,0.5,1.25,0.25,1.75,1.0,2.5,0.25,0.25,0.25,1.5,0.75,0.5,1.25,-0.67,0.27,-0.86,179.09,0.8,4.7
6.22,1.0,0.0,0.25,0.0,1.75,0.25,0.25,1.5,0.25,0.5,0.0,0.5,0.5,-0.8,0.77,0.08,96.85,0.2,1.4,0.75,1.5,0.25,1.75,1.0,2.5,0.25,0.25,0.25,1.5,0.75,0.5,1.25,-0.67,0.39,-0.86,180.16,-0.1,8.4
6.24,1.25,0.0,0.25,0.0,1.75,0.25,0.25,1.5,0.25,0.0,0.0,0.5,0.5,-0.92,1.27,-0.61,98.07,2.6,10.7,0.75,1.5,0.25,2.0,1.0,2.25,0.25,0.25,0.25,1.75,0.75,0.5,1.25,-0.61,0.45,-0.8,182.68,-0.5,7.3
6.26,0.75,0.0,0.25,0.0,1.75,0.25,0.25,0.75,0.25,0.5,0.0,0.5,0.5,-0.42,1.77,-0.92,98.18,1.0,2.8,1.25,1.25,0.25,1.5,1.25,2.75,0.25,0.25,0.25,1.5,0.75,0.5,1.25,-0.61,0.52,-0.86,185.78,-0.2,10.3
6.28,1.0,0.0,0.0,0.0,1.75,0.5,0.25,1.5,0.25,0.25,0.0,0.5,0.0,-0.17,1.64,-1.11,97.65,-0.4,12.9,0.0,1.5,0.25,1.5,1.25,2.75,0.25,0.25,0.25,1.75,0.75,0.5,1.25,-0.48,0.58,-0.86,184.7,3.0,2.1
6.3,1.0,0.0,0.25,0.0,0.75,0.25,0.5,0.25,0.25,0.5,0.0,0.5,0.5,0.02,1.2,-0.98,87.13,6.6,0.0,0.5,1.5,0.25,1.75,1.0,2.5,0.25,0.25,0.25,1.25,0.75,0.5,1.5,-0.42,0.64,-0.8,184.7,0.5,6.0
6.32,0.75,0.0,0.0,0.0,1.75,0.5,0.75,0.75,0.25,0.25,0.0,0.5,0.25,0.2,0.39,-0.55,84.62,1.0,11.2,0.25,1.25,0.25,1.5,1.25,2.5,0.25,0.25,0.25,2.0,0.75,0.5,1.25,-0.36,0.64,-0.73,181.16,2.5,-0.2
6.34,0.75,0.0,0.0,0.0,1.75,0.25,0.25,1.25,0.25,0.0,0.0,0.5,0.25,0.2,-0.05,-0.48,82.08,-0.1,8.8,0.25,1.25,0.25,1.5,1.0,2.75,0.25,0.25,0.25,2.0,0.5,0.5,1.5,-0.36,0.64,-0.67,179.14,3.4,-1.6
6.36,0.5,0.0,0.0,0.0,1.75,0.25,0.75,0.75,0.0,0.0,0.5,0.5,0.5,0.02,-0.23,-0.61,83.07,1.1,-0.8,0.25,1.25,0.25,1.75,1.0,2.5,0.25,0.25,0.25,1.5,0.75,0.5,1.5,-0.42,0.52,-0.48,177.23,1.8,0.5
6.38,0.75,0.0,0.0,0.0,1.25,0.25,0.25,1.25,0.0,0.25,0.25,0.5,0.25,0.08,-0.11,-1.11,79.1,-0.6,-2.2,0.25,1.0,0.25,1.25,1.0,2.5,0.25,0.25,0.25,1.5,0.75,0.5,1.5,-0.61,0.64,-0.55,172.14,3.0,-4.4
6.4,0.5,0.0,0.0,0.0,1.75,0.25,0.25,0.5,0.0,0.25,0.0,0.5,0.0,0.27,0.2,-1.17,73.57,0.0,17.7,0.25,1.25,0.25,1.25,1.25,2.5,0.25,0.25,0.25,1.5,0.75,0.5,1.25,-0.67,0.83,-0.48,169.55,2.4,1.7
6.42,0.5,0.0,0.0,0.0,1.75,0.25,0.25,1.25,0.0,0.0,0.25,0.5,0.25,0.39,0.27,-1.23,72.15,-1.8,3.1,0.5,1.25,0.5,1.5,1.0,2.0,0.25,0.25,0.25,1.5,0.75,0.5,1.25,-0.67,0.83,-0.48,167.47,-0.5,3.6
6.44,0.75,0.0,0.0,0.0,1.75,0.25,0.25,1.0,0.25,0.0,0.5,0.5,0.5,0.58,0.02,-0.8,75.35,0.8,-1.3,0.0,1.25,0.5,1.75,1.0,2.5,0.25,0.25,0.25,1.5,0.75,0.5,1.25,-0.61,0.89,-0.42,168.16,1.4,2.3
6.46,0.25,0.0,0.0,0.0,1.25,0.25,0.25,1.25,0.25,0.0,0.0,0.5,0.25,0.52,0.02,-0.55,73.02,-3.5,-6.8,0.5,1.0,0.25,1.5,1.0,2.0,0.25,0.25,0.25,1.5,0.75,0.5,1.25,-0.55,0.83,-0.48,165.0,0.6,0.0
6.48,0.5,0.0,0.0,0.0,1.75,0.25,0.25,0.5,0.25,0.25,0.5,0.5,0.25,0.52,0.02,-0.42,75.04,0.9,-0.3,0.5,1.25,0.25,1.5,1.25,2.25,0.25,0.25,0.25,1.75,0.75,0.5,1.25,-0.55,0.89,-0.55,167.93,1.1,2.5
6.5,0.5,0.0,0.0,0.0,1.75,0.0,0.25,1.25,0.0,0.25,0.0,0.5,0.25,0.58,0.08,-0.48,74.62,-2.1,1.4,1.25,1.5,0.25,1.5,1.0,2.25,0.25,0.25,0.25,2.25,0.75,0.5,1.5,-0.48,0.83,-0.55,176.74,-0.2,3.2
6.52,0.75,0.0,0.0,0.0,1.75,0.0,0.25,0.75,0.0,0.25,0.0,0.5,0.0,0.45,0.83,-0.86,72.95,2.2,17.8,0.5,1.25,0.5,1.5,1.25,2.0,0.25,0.25,0.25,1.5,0.75,0.5,1.5,-0.55,0.7,-0.36,179.96,-0.1,2.4
6.54,1.0,0.0,0.0,0.0,1.75,0.25,0.25,1.5,0.0,0.25,0.0,0.5,0.5,0.14,1.14,-1.05,79.7,-1.1,3.7,0.25,1.0,0.25,1.5,1.0,2.75,0.25,0.25,0.25,1.25,0.25,0.5,1.75,-0.55,0.64,-0.3,177.42,3.5,0.0
6.56,0.75,0.0,0.0,0.0,1.75,0.25,0.25,1.0,0.0,0.25,0.0,0.5,0.25,-0.05,0.95,-0.86,80.99,-0.6,9.3,0.75,1.0,0.25,1.25,1.0,2.0,0.25,0.25,0.25,1.5,0.75,0.5,1.5,-0.55,0.7,-0.23,172.36,0.6,-1.7
6.58,0.5,0.0,0.0,0.0,1.75,0.25,0.25,1.25,0.25,0.0,0.25,0.5,0.5,-0.17,0.83,-0.73,85.22,-1.7,-3.9,1.25,1.25,0.25,1.5,1.0,2.75,0.25,0.25,0.25,1.5,0.75,0.5,1.5,-0.55,0.77,-0.36,176.4,0.0,7.0
6.6,0.75,0.0,0.0,0.0,1.75,0.0,0.25,1.0,0.25,0.25,0.0,0.5,0.25,-0.23,0.77,-0.61,84.13,0.9,5.9,0.25,1.25,0.25,1.25,1.0,2.0,0.25,0.25,0.25,1.75,0.75,0.5,1.5,-0.61,0.95,-0.48,172.85,2.1,-5.2
6.62,0.75,0.0,0.0,0.0,1.75,0.25,0.25,1.5,0.0,0.25,0.25,0.5,0.5,-0.17,0.58,-0.48,88.81,-2.1,-2.9,0.5,1.25,0.25,1.25,1.25,2.25,0.25,0.25,0.25,1.25,0.75,0.5,1.5,-0.48,0.7,-0.23,173.52,1.2,2.1
6.64,0.75,0.0,0.0,0.0,1.75,0.25,0.0,1.5,0.25,0.25,0.0,0.5,0.25,-0.05,0.64,-0.48,89.57,-2.2,2.7,0.75,1.25,0.25,1.25,1.25,2.0,0.25,0.25,0.25,1.5,0.75,0.5,1.75,-0.55,0.7,-0.48,173.03,0.6,-0.5
6.66,2.0,0.0,0.0,1.0,1.75,0.5,0.25,1.5,0.5,1.5,1.75,0.75,0.5,0.14,0.77,-0.61,121.57,3.7,-7.1,0.0,1.25,0.25,0.75,1.25,2.0,0.25,0.25,0.25,1.5,0.5,0.5,1.5,-0.48,0.77,-0.55,165.8,3.9,-5.7
6.68,1.0,0.0,1.75,0.0,2.25,0.25,0.75,1.5,0.25,0.25,0.5,0.5,0.25,0.14,0.89,-0.73,137.74,8.6,16.6,0.25,0.75,0.25,0.5,1.0,2.25,0.25,0.25,0.25,2.25,0.75,0.5,1.25,-0.55,0.7,-0.48,158.2,5.1,-15.0
6.7,1.0,0.0,0.25,0.0,1.75,0.25,0.25,1.0,0.25,0.25,0.0,0.5,0.25,0.02,0.89,-0.86,136.23,3.0,13.1,0.0,1.5,0.25,0.5,1.25,2.25,0.25,0.25,0.0,1.75,0.75,0.5,1.25,-0.67,0.77,-0.36,153.4,4.5,-3.8
6.72,1.25,0.0,0.25,0.0,1.75,1.25,0.25,1.5,0.5,0.5,0.5,0.5,0.5,-0.05,0.83,-0.8,135.81,-0.4,2.1,0.0,1.25,0.0,1.0,1.0,2.0,0.25,0.25,0.25,2.0,0.25,0.5,0.75,-0.55,0.7,-0.48,146.01,4.7,-1.0
6.74,1.0,0.0,0.75,0.0,2.25,0.5,1.0,1.75,0.25,0.0,0.0,0.5,0.5,-0.05,0.58,-0.55,133.75,3.5,14.3,0.0,1.25,0.25,0.5,1.0,2.5,0.25,0.0,0.25,1.75,0.75,0.5,1.0,-0.92,0.64,-0.23,142.57,4.5,-4.5
6.76,2.0,0.0,0.25,0.0,1.75,1.75,0.25,1.5,0.5,1.0,0.75,0.75,0.5,-0.05,0.64,-0.48,145.87,0.6,1.8,0.0,1.0,0.25,1.0,1.0,2.75,0.25,0.0,0.25,2.0,0.75,0.5,1.25,-0.73,0.52,-0.05,146.93,4.7,-7.2
6.78,2.25,0.5,2.0,1.0,1.75,1.75,0.75,2.25,0.5,1.25,1.5,0.5,0.5,-0.05,0.58,-0.55,182.25,6.5,12.0,0.0,0.25,0.5,1.25,1.25,2.75,0.25,0.0,0.25,1.5,0.75,0.5,1.75,-0.8,0.58,-0.05,151.23,4.3,-11.6
6.8,2.25,0.0,1.75,1.0,1.75,1.75,0.75,1.5,0.5,1.25,2.0,0.75,0.75,0.08,0.52,-0.55,213.29,6.7,4.2,0.0,1.25,0.0,0.75,1.25,2.75,0.25,0.25,0.25,2.5,0.75,0.5,1.25,-0.92,0.64,0.02,157.76,6.5,-9.9
6.82,2.0,0.0,1.75,1.25,1.75,1.75,0.75,1.5,0.5,1.25,1.75,0.5,0.5,0.33,0.52,-0.36,230.14,6.7,8.8,0.0,1.25,0.25,1.0,1.25,2.75,0.25,0.25,0.25,1.75,0.75,0.5,1.5,-0.98,0.7,0.14,163.57,4.5,-4.8
6.84,0.25,0.0,1.75,0.0,1.75,0.5,0.5,1.25,0.0,0.0,0.25,0.5,0.5,0.27,0.89,-0.67,203.11,6.3,11.8,0.0,1.0,0.25,1.25,1.25,2.75,0.25,0.25,0.25,2.25,0.75,0.5,1.5,-1.23,0.83,0.2,171.58,4.9,-8.5
6.86,0.75,0.0,0.0,0.0,1.75,0.5,0.0,1.5,0.0,0.25,0.0,0.5,0.5,0.14,0.83,-0.67,164.32,-4.1,0.8,0.0,1.25,0.25,1.25,1.25,2.75,0.25,0.75,0.25,2.0,0.5,0.5,0.75,-1.67,0.89,0.33,174.21,4.5,1.9
6.88,1.75,0.0,0.0,0.0,1.25,0.25,0.0,1.25,0.0,0.25,0.5,0.5,0.5,0.02,0.89,-0.8,124.21,3.9,4.8,0.0,1.5,0.25,1.5,1.25,2.75,0.25,0.25,0.25,1.75,0.5,0.5,1.0,-2.36,1.08,0.14,177.06,3.1,6.2
6.9,1.5,0.0,0.0,0.0,0.0,0.5,0.0,1.25,0.0,0.0,0.25,0.5,1.0,-0.42,0.89,-0.92,91.76,2.0,-16.6,0.0,1.0,0.0,1.25,1.0,2.75,0.25,0.25,0.25,1.5,0.75,0.5,1.25,-1.55,0.77,0.02,173.07,5.0,-4.8
6.92,1.75,0.0,0.0,0.0,0.0,0.5,0.0,1.25,0.25,0.25,0.5,0.5,1.25,-0.17,0.83,-0.8,82.37,2.6,-21.7,0.0,1.0,0.25,1.0,1.25,2.75,0.25,0.25,0.25,1.5,0.75,0.5,1.25,-1.11,0.7,0.39,169.28,4.5,-3.2
6.94,1.25,0.0,0.0,0.0,0.0,1.0,0.0,1.25,0.25,0.25,0.5,0.5,0.5,-0.23,0.83,-0.73,74.87,0.0,-14.6,0.0,1.25,0.25,0.75,1.0,2.75,0.25,0.5,0.25,1.5,0.75,0.5,1.25,-0.36,0.39,1.27,165.03,4.9,-4.6
6.96,1.0,0.0,0.0,0.0,1.75,1.0,0.0,1.5,0.25,0.0,0.5,0.5,0.5,-0.11,0.52,-0.8,77.68,-2.1,2.3,0.0,1.25,0.25,1.25,1.25,2.75,0.25,0.25,0.25,1.5,0.5,0.5,1.5,-0.36,0.45,0.77,166.38,4.1,-0.4
6.98,1.25,0.0,0.0,0.0,1.75,1.0,0.0,1.5,0.0,0.25,0.5,0.5,0.5,0.02,0.52,-0.67,81.81,-1.8,4.0,0.25,1.25,0.25,1.25,1.25,2.75,0.25,0.25,0.25,1.5,0.75,0.5,1.25,-0.05,0.58,0.33,168.25,2.8,2.3
7.0,0.5,0.0,0.0,0.0,1.75,1.0,0.0,1.25,0.25,0.25,0.5,0.5,0.5,-0.11,0.58,-0.67,83.93,-4.6,-5.7,0.0,0.75,0.0,1.25,1.0,2.75,0.25,0.25,0.25,1.5,0.75,0.5,1.25,0.08,0.33,0.45,164.13,5.4,-7.3
7.02,1.75,0.0,0.0,0.0,1.75,0.75,0.0,1.5,0.25,0.0,0.5,0.5,0.5,-0.42,0.58,-0.73,90.32,1.9,10.1,0.0,1.25,0.25,1.25,1.25,2.75,0.25,0.25,0.25,1.5,0.75,0.5,1.0,0.02,0.2,0.45,164.07,3.3,2.9
7.04,1.0,0.0,0.0,0.0,1.75,1.25,0.0,1.5,0.25,0.0,0.0,0.5,0.5,-0.48,0.58,-0.55,97.15,-3.7,8.8,0.0,1.25,0.25,1.25,1.25,2.75,0.25,0.25,0.25,1.5,0.75,0.5,0.75,0.02,0.08,0.7,161.88,3.1,5.5
7.06,1.0,0.0,0.0,0.0,1.25,1.0,0.0,1.5,0.25,0.0,0.5,0.5,0.5,-0.67,0.83,-0.3,102.04,-2.0,-2.1,0.0,1.25,0.25,1.25,1.25,2.75,0.25,0.25,0.25,1.75,0.75,0.5,0.75,-0.11,0.02,0.95,163.32,3.4,3.7
7.08,0.0,0.0,0.0,0.0,1.25,2.0,0.0,1.25,0.25,0.0,0.25,0.5,0.25,-0.61,0.83,-0.36,102.41,-10.7,-2.9,0.0,1.25,0.25,1.25,1.0,2.75,0.25,0.25,0.25,1.75,0.75,0.5,1.25,-0.11,0.08,1.08,164.65,3.8,-2.5
7.1,0.25,0.0,0.0,0.0,0.0,0.5,0.0,1.0,0.5,0.25,0.5,0.5,0.5,-0.86,1.14,-0.36,88.85,-3.7,-47.0,0.0,1.25,0.0,1.0,1.25,2.75,0.25,0.25,0.25,1.75,0.75,0.5,1.5,0.02,0.08,1.33,167.06,5.5,-6.3
7.12,0.75,0.0,0.0,0.0,0.0,0.75,0.0,0.0,0.0,0.25,0.5,0.5,0.5,-1.05,1.64,0.08,69.82,2.2,-23.4,0.0,1.5,0.25,1.25,1.25,2.75,0.25,0.25,0.25,1.75,0.75,0.5,1.25,0.14,0.14,1.27,170.97,3.5,0.9
7.14,0.5,0.0,0.0,0.0,0.0,0.25,0.0,0.25,0.0,0.0,0.25,0.5,0.25,-0.11,2.14,0.02,48.39,5.2,-29.3,0.0,1.0,0.25,1.25,1.25,2.75,0.25,0.25,0.25,1.25,0.75,0.5,1.25,0.27,0.45,0.89,169.79,3.7,-0.1
7.16,0.5,0.0,0.0,0.0,0.0,0.25,0.0,1.0,0.0,0.25,0.5,0.5,0.25,0.14,1.58,-0.42,38.31,-1.1,-38.6,0.0,1.25,0.0,1.25,1.25,2.75,0.25,0.25,0.25,1.75,0.75,0.5,0.5,-0.11,0.77,0.64,166.9,4.1,5.1
7.18,0.5,0.0,0.0,0.0,0.75,0.5,0.0,1.25,0.0,0.25,0.25,0.5,0.5,-0.23,1.02,0.02,40.9,-4.8,-19.4,0.25,1.25,0.0,0.75,1.25,2.75,0.25,0.25,0.25,1.5,0.75,0.5,1.25,-0.48,1.2,0.39,163.62,4.7,-1.6
7.2,0.25,0.0,0.0,0.0,1.75,0.25,0.0,1.25,0.0,0.75,0.5,0.5,0.5,-0.11,0.2,0.45,55.13,-5.6,-18.9,0.5,1.25,0.0,1.25,1.25,2.75,0.25,0.25,0.25,1.75,0.75,0.5,0.5,-0.98,1.52,0.2,163.72,2.5,9.0
7.22,0.5,0.0,0.0,0.0,0.0,0.25,0.0,1.25,0.0,0.25,0.5,0.5,0.5,-0.55,-1.11,1.64,58.36,-3.0,-43.6,0.5,1.25,0.25,1.5,1.25,2.75,0.25,0.25,0.25,1.75,0.75,0.5,0.75,-1.23,1.83,0.02,168.48,1.4,8.6
7.24,0.75,0.0,0.0,0.0,1.75,0.25,0.0,1.0,0.0,0.25,0.25,0.5,0.0,0.27,-0.98,0.52,66.56,-0.2,11.0,0.0,1.25,0.25,1.25,1.25,2.75,0.25,0.25,0.25,1.75,0.75,0.5,1.25,-1.17,1.95,-0.17,172.16,3.8,-1.1
7.26,0.25,0.0,0.0,0.0,1.75,0.25,0.25,1.0,0.0,0.25,0.25,0.5,0.5,0.52,-0.73,0.77,68.93,-4.0,-8.6,0.0,1.25,0.0,1.25,1.25,2.75,0.25,0.0,0.25,1.5,0.75,0.5,1.0,-0.92,1.77,-0.23,169.34,4.0,2.5
7.28,0.0,0.0,0.0,0.0,1.75,0.25,0.25,1.25,0.0,0.25,0.25,0.5,0.25,0.02,-0.42,1.02,73.09,-6.0,-9.9,0.5,1.25,0.25,1.75,1.0,2.75,0.25,0.25,0.25,2.0,0.75,0.5,1.25,-0.86,1.58,-0.05,174.45,1.8,2.1
7.3,0.5,0.0,0.0,0.0,1.75,0.25,0.25,1.25,0.0,0.5,0.25,0.5,0.25,-0.11,-0.05,1.52,79.36,-3.0,-3.9,0.0,1.0,0.0,1.5,1.25,2.75,0.25,0.25,0.25,1.5,0.75,0.5,0.75,-0.67,1.2,0.14,169.92,4.0,3.3
7.32,2.0,0.0,0.25,0.0,2.25,0.25,0.5,1.5,0.5,0.25,0.5,0.25,0.5,3.52,7.95,-2.3,103.3,5.3,15.6,0.0,1.5,0.25,1.5,1.25,2.75,0.25,0.25,0.25,2.0,0.75,0.5,1.25,-0.48,0.83,0.33,175.06,3.3,0.6
7.34,2.75,0.5,0.25,0.0,0.0,0.25,0.5,1.5,0.5,0.5,1.75,0.5,0.5,-0.67,1.83,2.95,123.84,10.7,-2.3,0.0,1.0,0.0,1.75,1.25,2.75,0.25,0.5,0.25,1.75,0.75,0.5,1.25,-0.48,0.45,0.27,175.25,4.4,-2.8
7.36,2.0,0.0,2.5,0.5,2.25,1.75,0.75,1.5,0.5,1.5,1.75,0.75,0.5,0.77,0.02,-0.17,173.19,7.0,7.4,0.25,1.25,0.25,1.5,1.25,2.75,0.25,0.5,0.25,1.5,0.5,0.5,1.0,-0.48,0.27,0.14,177.43,2.7,6.7
7.38,0.25,0.0,2.0,0.0,1.75,0.25,0.75,1.75,0.0,0.5,0.0,0.5,0.25,-0.05,0.02,-0.17,173.6,6.3,10.8,0.5,1.25,0.25,1.5,1.25,2.75,0.25,0.25,0.25,1.75,0.75,0.5,1.5,-0.48,0.08,0.2,180.84,2.2,1.4
7.4,0.25,0.0,0.0,0.0,1.75,0.25,0.25,1.25,0.0,0.25,0.25,0.5,0.25,0.02,-0.23,0.02,154.84,-4.1,-5.0,0.5,1.25,0.25,1.5,1.0,2.75,0.25,0.5,0.25,1.5,1.0,0.5,1.5,-0.36,0.14,0.08,184.06,1.9,-0.4
7.42,1.0,0.0,0.0,0.0,1.75,0.25,0.25,1.25,0.0,0.25,0.25,0.5,0.25,0.45,0.14,-0.36,125.46,0.5,7.3,0.5,1.25,0.0,1.25,1.25,2.75,0.25,0.25,0.25,2.25,0.75,0.5,1.25,-0.3,0.14,0.02,184.91,3.7,-1.7
7.44,1.25,0.0,0.0,0.0,1.25,0.25,0.25,1.25,0.5,0.5,0.5,0.5,0.0,0.2,1.89,-0.3,108.07,3.4,1.0,0.5,1.25,0.0,1.5,1.25,2.75,0.25,0.5,0.25,2.25,0.75,0.5,1.25,-0.17,0.14,0.14,186.71,3.5,-1.2
7.46,0.5,0.0,0.0,0.0,1.75,0.25,0.25,1.25,0.5,0.5,0.5,0.5,0.0,0.2,1.2,-0.05,97.61,-0.8,-5.1,0.75,1.25,0.0,1.75,1.25,2.75,0.25,0.5,0.25,2.25,0.75,0.5,1.5,-3.05,5.27,0.08,191.85,2.7,-0.4
7.48,0.5,0.0,0.0,0.0,1.75,0.25,0.25,1.25,0.25,0.25,0.5,0.5,0.0,0.45,0.89,-0.23,92.02,-0.7,-0.4,1.0,1.5,0.0,2.0,1.0,2.75,0.25,0.5,0.25,2.25,0.25,0.5,1.25,0.2,1.33,1.58,196.17,1.6,7.8
7.5,0.75,0.0,0.0,0.0,1.25,0.5,0.25,1.25,0.0,0.25,0.5,0.5,0.25,0.52,0.52,0.14,88.23,-1.0,-3.9,1.25,1.25,0.25,1.75,1.25,2.75,0.25,0.25,0.25,1.5,0.75,0.5,1.0,-0.42,-0.11,0.39,197.64,-0.8,13.7
7.52,0.25,0.0,0.0,0.0,1.75,0.25,0.25,1.0,0.25,0.25,0.25,0.5,0.5,0.52,0.64,0.08,80.21,-3.3,-10.0,1.75,1.25,0.25,2.0,1.25,2.75,0.25,0.25,0.25,1.5,0.75,0.5,1.5,-0.67,1.02,0.45,202.15,-1.7,12.8
7.54,0.5,0.0,0.0,0.0,1.75,0.5,0.25,1.25,0.0,0.75,0.25,0.25,0.25,1.02,1.02,-0.11,76.44,-4.9,-0.9,1.75,1.25,0.25,2.0,1.0,2.75,0.25,0.25,0.25,1.75,0.75,0.5,1.25,-0.48,1.14,0.45,205.37,-1.8,12.6
7.56,0.5,0.0,0.0,0.0,1.75,0.0,0.25,1.0,0.0,0.5,0.25,0.5,0.25,0.64,0.58,0.39,70.8,-1.4,-3.9,3.25,1.5,0.25,2.0,1.0,2.75,0.25,0.0,0.25,1.5,0.75,0.5,0.0,-0.86,0.45,0.33,208.54,-7.5,36.9
7.58,0.25,0.0,0.0,0.0,1.75,0.25,0.25,1.5,0.25,0.25,0.0,0.5,0.25,0.64,0.58,0.08,70.9,-4.7,-5.0,3.5,1.5,0.25,2.0,1.0,2.5,0.25,0.25,0.25,1.25,0.75,0.5,1.0,-0.73,0.7,0.27,214.84,-6.9,28.3
7.6,0.25,0.0,0.0,0.0,1.75,0.0,0.25,1.0,0.25,0.25,0.25,0.5,0.0,0.2,1.08,-0.36,66.93,-1.1,-1.1,5.5,1.5,0.5,2.0,1.0,2.5,0.25,0.0,0.25,1.5,0.75,0.5,0.5,-0.67,0.77,0.33,228.21,-11.3,40.5
7.62,0.75,0.0,0.0,0.0,1.25,0.25,0.25,1.25,0.5,0.5,0.25,0.5,0.25,0.02,1.14,0.2,78.05,-0.1,-8.5,5.75,1.5,0.5,2.0,1.0,2.5,0.25,0.25,0.25,1.5,0.75,0.5,0.75,-0.61,0.7,0.2,241.37,-10.8,37.9
7.64,0.25,0.0,0.0,0.0,1.75,0.25,0.25,1.5,0.5,0.5,0.5,0.5,0.5,0.02,0.77,0.08,85.63,-3.7,-18.1,6.75,1.75,0.75,2.0,1.0,1.75,0.25,0.25,0.25,1.25,1.25,0.5,0.5,-0.55,0.83,0.27,255.89,-14.5,43.0
