time,left pressure 0[N/cm虏],left pressure 1[N/cm虏],left pressure 2[N/cm虏],left pressure 3[N/cm虏],left pressure 4[N/cm虏],left pressure 5[N/cm虏],left pressure 6[N/cm虏],left pressure 7[N/cm虏],left pressure 8[N/cm虏],left pressure 9[N/cm虏],left pressure 10[N/cm虏],left pressure 11[N/cm虏],left pressure 12[N/cm虏],left acceleration X[g],left acceleration Y[g],left acceleration Z[g],left total force[N],left center of pressure X[mm],left center of pressure Y[mm],right pressure 0[N/cm虏],right pressure 1[N/cm虏],right pressure 2[N/cm虏],right pressure 3[N/cm虏],right pressure 4[N/cm虏],right pressure 5[N/cm虏],right pressure 6[N/cm虏],right pressure 7[N/cm虏],right pressure 8[N/cm虏],right pressure 9[N/cm虏],right pressure 10[N/cm虏],right pressure 11[N/cm虏],right pressure 12[N/cm虏],right acceleration X[g],right acceleration Y[g],right acceleration Z[g],right total force[N],right center of pressure X[mm],right center of pressure Y[mm]
0.02,0.75,0.75,3.0,3.0,0.5,3.0,3.5,3.0,2.25,2.5,2.75,2.25,3.25,-0.11,0.02,0.95,354.58,4.6,-17.9,0.5,0.25,0.0,0.0,1.25,0.0,0.25,0.25,0.0,0.0,0.25,0.0,0.25,-0.05,-0.3,0.89,0.0,-4.4,31.4
0.04,1.75,0.75,3.75,3.25,1.25,3.0,4.25,3.25,2.75,3.5,2.75,3.25,3.5,-0.05,0.02,0.89,399.54,5.7,-15.6,0.5,0.25,0.0,0.0,1.25,0.0,0.25,0.25,0.0,0.0,0.5,0.0,0.25,0.02,-0.36,0.95,0.0,-4.9,23.5
0.06,2.0,0.75,3.75,3.25,3.0,3.5,4.5,3.25,3.5,4.5,3.5,4.75,3.75,-0.11,-0.05,0.95,484.69,4.9,-17.8,0.5,0.5,0.0,0.0,1.25,0.0,0.25,0.25,0.0,0.0,0.0,0.0,0.25,0.14,-0.23,0.89,4.8,-4.6,45.6
0.08,1.0,1.25,3.75,3.25,3.0,4.0,4.25,3.75,4.25,5.0,4.0,5.5,5.25,-0.11,-0.05,0.95,582.06,3.2,-24.7,0.5,0.25,0.0,0.5,1.25,0.0,0.25,0.25,0.25,0.0,0.0,0.0,0.25,0.27,-0.05,0.95,26.66,-6.4,37.7
0.1,2.0,1.25,4.25,3.25,1.25,4.0,4.25,4.75,4.75,5.0,5.0,5.75,6.0,-0.11,-0.05,0.95,678.24,4.0,-27.9,0.5,0.25,0.0,0.0,1.25,0.0,0.25,0.25,0.0,0.0,0.0,0.0,0.0,0.52,0.08,1.08,33.84,-5.7,55.9
0.12,2.0,1.75,4.25,2.5,0.75,3.5,5.25,5.0,4.75,5.75,5.75,5.75,6.0,-0.11,-0.05,0.95,749.0,4.2,-30.4,0.5,0.0,0.0,0.5,1.25,0.0,0.25,0.0,0.25,0.0,0.25,0.0,0.25,0.77,0.14,1.14,40.96,-8.0,30.4
0.14,2.0,0.25,4.5,3.5,3.75,4.25,5.25,5.75,5.25,6.25,6.25,6.75,7.0,-0.11,-0.11,0.95,842.55,3.0,-29.7,0.5,0.25,0.0,0.5,1.25,0.0,0.25,0.25,0.25,0.0,0.0,0.0,0.25,0.95,0.27,1.33,47.61,-6.4,37.7
0.16,2.25,2.0,4.75,3.25,3.5,5.25,5.5,5.75,5.5,6.5,6.0,6.75,6.5,-0.11,-0.11,0.95,925.24,3.3,-24.1,0.5,0.0,0.0,0.5,1.25,0.0,0.25,0.25,0.0,0.25,0.0,0.0,0.25,1.02,0.39,1.39,49.28,-3.8,30.1
0.18,2.5,1.5,3.75,3.5,4.25,5.5,5.75,6.5,5.5,6.25,6.5,7.0,6.5,-0.11,-0.11,0.95,997.24,2.6,-25.0,0.5,0.0,0.0,1.0,1.25,0.0,0.25,0.25,0.0,0.25,0.0,0.25,0.0,1.02,0.64,1.52,55.48,-7.1,34.2
0.2,2.25,1.75,4.75,3.25,5.25,6.0,6.0,6.5,5.75,6.25,6.25,6.0,7.0,-0.11,-0.11,0.95,1053.93,2.5,-21.2,0.5,0.25,0.0,0.5,1.25,0.0,0.25,0.25,0.0,0.0,0.0,0.25,0.0,0.95,0.95,1.58,56.55,-7.7,43.8
0.22,2.75,1.75,4.75,3.25,5.25,6.25,6.0,6.75,5.5,6.25,5.75,5.75,6.0,-0.11,-0.11,0.95,1082.48,2.7,-17.9,0.5,0.25,0.0,0.5,1.25,1.0,0.25,0.25,0.25,0.0,0.0,0.0,0.0,0.64,1.39,1.39,62.89,-1.1,45.8
0.24,3.75,1.75,4.75,4.75,5.25,6.75,6.25,6.75,5.5,5.0,5.75,5.0,6.0,-0.11,-0.05,0.95,1100.95,3.7,-11.8,1.25,0.0,0.0,0.75,1.25,0.25,0.25,0.25,0.25,0.0,0.0,0.0,0.25,0.14,2.14,1.45,68.75,-9.6,44.5
0.26,3.75,1.75,4.75,5.25,6.5,7.25,6.5,6.75,5.5,5.0,5.0,4.0,5.25,-0.11,-0.05,0.95,1104.46,3.6,-5.9,0.5,0.0,0.0,0.75,1.25,0.0,0.0,0.25,0.25,0.0,0.0,0.0,0.25,-0.23,2.77,1.2,69.12,-5.8,35.0
0.28,3.75,1.75,4.75,5.25,7.5,7.25,6.5,6.75,5.5,5.0,3.0,3.25,4.0,-0.11,-0.05,0.95,1085.15,3.5,0.7,0.5,0.0,0.0,0.5,1.25,1.0,0.0,0.0,0.0,0.25,0.25,0.75,0.25,-0.86,3.52,2.27,72.88,-0.1,7.8
0.3,4.0,1.75,5.0,5.5,7.5,8.0,7.0,6.75,5.5,5.0,3.0,3.25,3.75,-0.11,-0.05,0.95,1072.28,3.7,2.5,1.25,1.5,0.25,1.0,1.25,1.25,0.0,0.0,0.5,1.75,1.0,0.0,0.25,-4.05,4.89,0.33,103.87,-4.1,20.6
0.32,4.5,2.0,5.75,7.0,8.5,8.25,7.25,6.75,5.25,4.5,3.0,3.25,3.75,-0.11,-0.05,0.95,1093.58,4.6,7.2,0.5,0.25,0.0,0.5,2.25,1.25,0.0,0.0,0.5,2.5,2.0,1.0,2.25,0.45,-0.61,2.7,143.92,3.1,-32.8
0.34,5.25,2.0,6.25,7.0,9.0,8.75,7.5,6.75,4.75,3.5,2.75,2.5,3.25,-0.11,-0.05,0.95,1116.49,5.3,13.3,0.5,1.5,0.25,1.25,3.0,1.5,0.0,0.0,0.5,4.5,1.0,2.5,1.25,-0.98,0.08,1.52,199.0,1.3,-17.6
0.36,5.5,2.25,6.25,8.25,10.5,9.0,7.75,6.75,4.75,2.75,2.75,2.25,3.5,-0.11,-0.05,0.95,1162.13,5.6,16.8,2.0,1.5,0.0,0.0,3.25,3.25,0.5,0.0,1.0,6.0,3.5,4.5,4.75,0.14,0.14,1.52,282.6,2.0,-37.3
0.38,6.0,2.25,6.25,8.75,11.5,9.25,7.75,6.75,4.75,3.5,2.75,2.0,3.25,-0.11,-0.05,1.02,1213.96,5.4,18.2,2.0,1.0,0.25,1.75,3.0,1.25,0.5,0.0,1.5,6.5,4.5,5.75,6.25,0.08,0.2,1.2,379.31,-0.4,-45.7
0.4,6.25,2.75,6.25,8.75,11.5,9.5,7.75,6.75,4.5,3.5,2.0,2.0,3.25,-0.11,-0.05,1.02,1263.13,5.4,20.2,2.0,1.25,0.25,1.25,4.5,3.5,0.5,0.0,2.0,6.5,5.25,6.0,6.25,0.02,0.14,1.14,496.95,0.7,-38.3
0.42,7.0,2.75,7.25,11.0,12.5,9.75,7.75,6.75,4.25,3.0,1.25,2.0,3.0,-0.11,-0.05,0.95,1321.52,6.4,25.4,2.0,0.25,0.25,1.25,4.5,3.5,0.0,0.0,2.0,7.25,6.0,6.5,7.5,0.08,0.02,0.95,600.24,1.6,-46.5
0.44,7.75,3.5,7.75,11.0,12.5,9.75,7.75,6.75,4.0,3.25,1.25,2.0,3.0,-0.11,0.02,0.95,1370.58,6.8,26.9,2.0,1.5,1.5,0.0,5.0,3.5,0.5,3.25,1.75,7.5,6.25,6.75,7.5,0.08,0.02,0.95,703.14,1.5,-41.1
0.46,8.0,3.5,7.75,11.0,13.5,9.75,7.5,6.75,3.5,2.75,1.25,2.0,2.25,-0.11,0.02,0.95,1408.99,7.0,29.9,2.0,1.5,0.75,0.0,5.0,3.75,1.25,4.0,3.0,7.75,6.75,7.25,7.5,0.08,0.02,0.95,789.51,1.7,-42.9
0.48,8.75,3.5,7.75,11.5,14.5,10.0,7.25,6.75,3.25,2.75,2.5,2.0,2.25,-0.11,0.08,1.02,1449.91,7.1,29.7,2.0,1.5,1.0,1.25,5.0,3.75,1.5,4.5,3.0,8.25,7.5,7.5,8.25,0.08,0.02,0.95,881.67,1.2,-41.8
0.5,9.75,3.25,7.75,12.0,14.5,10.5,6.75,6.5,2.75,2.75,2.0,1.75,2.25,-0.11,0.14,0.95,1480.15,7.3,32.2,2.0,1.5,1.5,2.0,5.0,3.5,1.5,4.5,3.0,8.5,7.75,7.5,8.75,0.08,0.02,0.95,956.49,0.7,-40.7
0.52,11.0,3.5,7.5,12.5,15.0,10.5,6.0,6.75,2.75,2.75,2.0,1.75,2.25,-0.11,0.14,0.95,1513.66,7.4,33.3,2.0,1.5,1.25,2.5,5.0,4.0,1.5,5.25,3.25,8.5,7.75,7.5,8.75,0.14,0.02,0.95,1008.73,1.0,-39.6
0.54,12.0,3.5,7.25,13.0,15.5,11.0,5.5,6.75,2.25,2.75,1.5,1.75,2.0,-0.17,0.14,1.02,1536.25,7.3,35.8,2.0,1.5,1.75,2.75,5.0,5.25,1.5,5.25,3.25,8.75,7.75,7.25,8.75,0.14,0.02,0.89,1037.85,1.1,-36.7
0.56,13.0,4.0,7.75,12.5,15.5,11.5,3.75,6.75,2.0,2.75,1.5,1.75,2.25,-0.17,0.2,1.08,1559.47,7.3,36.7,2.25,1.5,1.75,3.25,5.0,5.0,1.5,5.5,3.5,8.25,7.5,7.25,8.25,0.14,0.02,0.89,1042.95,0.6,-34.6
0.58,14.5,5.0,7.0,11.5,16.0,12.0,3.5,6.5,1.75,2.75,1.5,1.75,1.5,-0.23,0.27,1.08,1576.68,7.4,39.9,2.0,1.75,2.25,3.25,5.0,5.5,1.75,5.5,3.5,8.0,7.0,6.5,8.0,0.14,0.02,0.95,1020.44,0.5,-31.3
0.6,16.0,4.75,6.25,11.5,15.5,11.5,3.0,6.5,1.5,2.75,1.25,1.75,2.0,-0.3,0.27,1.08,1578.46,7.6,40.1,2.0,1.75,2.5,3.25,5.25,5.75,2.25,5.5,3.75,7.75,6.75,6.0,7.5,0.14,0.02,0.95,982.46,0.2,-28.3
0.62,16.0,5.0,6.25,11.0,15.0,11.0,1.5,6.25,1.25,2.75,1.5,1.75,1.5,-0.3,0.33,1.14,1557.71,7.8,41.3,2.5,1.5,2.75,3.25,5.25,6.0,2.25,5.5,3.75,7.25,6.25,5.25,7.0,0.14,0.02,0.95,942.97,0.0,-24.6
0.64,16.0,5.0,6.25,8.75,14.5,10.5,1.25,6.0,1.0,2.75,1.25,1.75,2.0,-0.36,0.45,1.27,1509.71,7.6,40.6,3.0,1.75,2.75,3.5,6.5,6.5,2.75,5.5,4.0,6.5,5.5,4.25,6.0,0.14,0.02,0.95,913.64,-0.5,-15.8
0.66,14.5,4.5,5.0,6.25,13.0,9.75,0.75,5.75,0.75,2.5,1.25,1.5,1.5,-0.67,0.7,1.64,1399.14,6.9,40.4,3.25,1.75,2.75,3.5,6.75,6.75,3.0,5.5,4.25,6.0,5.25,3.75,5.25,0.14,0.02,0.95,887.56,-0.9,-11.9
0.68,11.5,4.25,3.75,4.25,9.75,9.0,0.25,5.0,0.75,2.5,1.25,1.75,1.5,-0.92,0.83,2.27,1202.65,5.7,35.8,3.75,2.0,3.0,5.0,7.0,7.0,3.25,5.5,4.0,5.0,4.25,2.5,3.75,0.14,0.02,0.95,863.72,-2.1,-0.1
0.7,9.25,3.0,4.0,3.5,7.5,7.0,0.25,3.75,0.25,1.75,1.25,0.5,1.5,-1.11,0.58,2.27,922.06,6.7,38.8,3.75,2.5,3.25,5.5,8.25,7.5,3.5,5.5,3.75,4.75,4.25,2.5,3.25,0.14,0.02,0.95,864.53,-2.4,4.6
0.72,5.75,0.0,2.5,1.75,2.25,4.0,0.0,2.75,0.25,0.25,1.25,0.0,1.5,-1.05,0.08,1.52,570.25,7.5,29.8,5.25,2.5,5.25,6.25,9.0,7.75,3.75,5.25,3.25,4.75,3.5,1.25,2.25,0.14,0.02,0.95,889.59,-4.6,16.3
0.74,3.75,1.25,1.0,1.75,0.75,1.75,0.0,1.25,0.5,2.25,0.0,1.25,0.0,-0.11,-0.48,1.27,313.03,8.4,23.8,5.5,3.0,5.25,7.5,9.5,7.75,3.75,4.75,3.25,4.75,3.25,1.5,2.25,0.14,0.08,0.95,936.43,-5.1,18.9
0.76,3.0,1.75,1.0,2.25,3.5,3.0,0.0,1.0,0.25,0.0,1.25,1.75,1.5,0.64,-1.17,2.89,192.21,5.6,22.5,6.75,3.0,5.5,8.5,11.0,8.25,3.75,4.75,2.75,4.5,3.25,2.0,2.25,0.2,0.08,1.08,1013.24,-5.6,21.9
0.78,2.25,1.75,1.25,3.0,3.75,3.0,0.0,1.25,0.25,1.25,0.75,1.75,1.5,-0.48,-1.05,2.58,133.78,3.8,18.2,7.25,3.25,5.5,9.25,12.0,8.5,3.75,4.75,2.75,4.25,2.5,1.5,2.25,0.14,0.08,1.02,1093.2,-5.7,26.1
0.8,1.0,0.25,2.0,2.5,3.5,2.5,0.25,1.25,0.25,1.25,0.75,1.25,1.5,-0.48,-0.61,1.08,105.11,3.0,9.7,8.0,3.5,6.25,11.0,12.5,8.5,3.25,4.75,2.0,3.75,2.0,1.25,2.25,0.08,0.08,1.02,1176.72,-6.6,31.2
0.82,0.75,0.25,1.0,1.25,3.0,0.5,0.5,1.0,0.0,0.0,0.0,0.0,0.5,-0.36,-0.48,0.52,54.55,5.7,38.4,8.75,4.0,6.75,11.0,14.0,0.0,2.5,4.5,2.0,4.0,2.0,1.25,2.25,0.14,0.14,1.08,1193.69,-10.4,32.8
0.84,2.0,1.0,0.5,3.25,3.75,1.75,1.5,1.25,0.25,2.25,1.25,0.25,1.5,-0.23,-0.48,0.45,73.61,3.3,15.0,9.5,4.75,6.0,11.0,14.0,8.25,2.25,4.5,1.5,3.0,2.0,1.25,2.0,0.14,0.14,1.14,1251.65,-7.1,36.6
0.86,0.75,0.25,2.25,1.25,3.5,0.5,0.75,1.25,0.25,0.0,0.0,0.25,1.0,-0.23,-0.48,0.77,58.54,7.8,29.0,0.0,4.0,6.75,0.0,13.0,7.75,1.5,4.5,1.0,0.0,2.0,0.75,2.0,0.27,0.2,1.27,1060.09,-1.3,27.9
0.88,0.75,0.25,0.25,1.5,0.5,0.5,1.5,0.75,0.25,0.0,0.0,0.25,1.25,-0.23,-0.48,0.95,46.88,7.0,8.4,9.75,3.25,6.25,9.25,10.5,7.25,1.0,3.25,1.25,1.25,1.0,0.5,0.25,0.45,0.33,1.39,994.66,-9.8,47.7
0.9,1.0,0.25,0.5,1.0,0.5,0.5,1.75,1.0,0.0,0.0,0.0,0.0,1.25,-0.17,-0.36,1.27,36.99,7.7,14.2,10.0,4.75,7.75,11.5,11.0,7.25,1.0,3.0,1.0,2.5,0.75,1.25,0.75,0.45,0.39,1.45,979.86,-10.2,45.5
0.92,0.5,0.25,0.5,1.5,0.5,0.5,1.0,0.5,0.25,0.0,0.0,0.0,1.25,-0.05,-0.11,1.27,39.72,7.2,13.1,10.5,4.75,8.0,11.0,9.5,7.0,1.5,1.5,1.0,2.0,0.75,0.25,0.75,0.52,0.64,1.83,1004.32,-12.0,51.3
0.94,0.5,0.25,0.75,1.0,0.5,0.5,0.0,1.0,0.25,0.0,0.0,0.25,1.0,-0.05,0.08,1.33,43.7,4.7,6.1,8.75,2.75,7.75,7.75,9.5,5.75,1.75,0.0,0.75,0.0,0.0,0.0,0.25,0.83,0.64,2.08,910.02,-14.0,61.2
0.96,0.5,0.25,1.75,1.25,0.75,1.75,0.25,1.0,0.5,1.75,0.0,0.25,1.0,-0.17,0.27,1.58,82.82,2.1,2.9,7.75,1.75,5.5,5.5,6.75,4.5,1.25,0.0,0.75,1.75,0.0,0.0,0.25,0.89,0.77,2.45,751.68,-12.9,54.5
0.98,2.0,1.0,2.25,1.75,0.5,1.75,0.25,1.0,0.25,2.0,1.0,0.5,1.5,-0.3,0.39,1.83,132.74,7.1,8.0,5.0,0.0,2.75,2.75,5.0,2.75,0.75,0.0,0.0,0.0,0.0,0.0,0.0,0.77,0.52,2.27,492.02,-13.3,62.9
1.0,2.0,0.75,1.75,3.0,1.25,1.75,0.25,1.25,0.25,2.25,0.75,0.25,1.5,-0.61,0.64,2.27,176.74,5.5,12.2,2.25,0.75,0.25,3.25,5.0,3.25,1.0,1.75,0.5,1.5,1.0,1.25,1.25,0.39,-0.23,1.64,329.07,-1.5,16.0
1.02,2.0,0.5,2.0,3.0,1.25,1.75,0.25,1.0,0.25,2.25,1.0,0.25,1.5,-0.73,1.2,2.52,213.47,6.3,11.1,2.0,0.5,0.25,3.25,5.0,2.5,1.0,1.75,0.75,0.75,1.0,1.25,1.0,0.77,-0.42,2.39,243.0,-2.7,17.6
1.04,2.0,0.5,2.25,2.75,1.25,1.75,1.5,1.0,0.25,2.25,0.5,0.25,1.5,-0.98,2.08,2.39,239.54,7.4,14.1,2.0,0.75,0.75,2.75,5.0,1.25,1.0,1.75,0.25,0.25,1.0,0.0,1.25,1.33,-1.61,2.64,196.51,-4.7,28.8
1.06,2.0,0.5,2.25,3.0,1.75,1.75,0.25,1.0,0.25,1.75,0.75,0.25,1.5,-1.3,3.2,1.83,252.62,7.0,17.0,0.0,0.0,0.0,1.0,1.5,1.0,0.5,0.25,0.0,0.0,0.0,0.0,0.25,1.14,-0.92,0.7,103.21,2.0,34.4
1.08,2.0,0.5,2.0,2.75,1.25,1.75,0.25,1.25,0.25,2.25,0.5,0.25,1.5,-1.3,4.14,0.7,251.47,5.7,12.1,0.0,0.25,0.0,1.0,0.25,1.0,0.5,0.25,0.25,0.0,0.0,0.25,0.25,0.33,-0.42,0.33,18.22,-1.0,17.3
1.1,2.0,0.5,2.25,2.75,0.75,1.75,1.5,1.25,0.25,2.0,0.5,0.25,1.5,-0.05,5.08,-0.86,258.25,7.8,13.3,0.0,0.5,0.0,1.0,1.25,0.75,0.5,0.25,0.0,0.0,0.0,0.25,0.25,0.08,-0.3,0.27,0.0,-1.2,32.7
1.12,1.75,0.5,2.25,2.5,1.25,1.75,1.5,1.25,0.25,2.0,0.75,1.0,1.5,0.95,4.58,-0.55,262.75,7.0,6.4,0.0,0.5,0.0,1.0,1.25,1.0,0.25,0.25,0.0,0.0,0.0,0.0,0.25,-0.11,-0.11,0.52,0.0,1.2,40.7
1.14,2.0,0.5,2.25,1.5,0.75,1.75,1.5,1.75,0.5,1.0,1.25,3.25,2.0,0.39,-1.42,1.27,266.59,7.5,-12.7,0.5,0.25,0.0,0.75,1.25,0.5,0.25,0.25,0.0,0.0,0.0,0.0,0.25,-0.17,-0.17,0.77,0.0,-3.3,43.2
1.16,2.0,0.5,1.25,2.0,0.0,1.0,0.25,2.0,1.0,2.25,2.25,5.0,3.75,1.02,0.14,0.14,283.95,4.2,-41.2,0.5,0.5,0.0,0.75,1.25,0.0,0.25,0.25,0.25,0.0,0.0,0.0,0.25,0.02,-0.17,0.83,0.0,-7.5,42.9
1.18,2.0,0.0,1.75,0.0,0.0,1.0,0.5,2.25,1.0,1.5,2.5,5.75,5.5,0.7,0.08,1.64,302.24,3.0,-57.3,0.5,0.5,0.0,0.75,1.25,0.0,0.25,0.25,0.0,0.5,0.0,0.0,0.25,0.08,-0.11,0.89,0.0,-4.5,33.8
1.2,2.0,0.0,0.25,1.25,0.0,2.0,0.5,1.5,1.75,0.0,2.75,7.0,6.5,-1.55,0.52,6.08,327.6,2.2,-58.9,0.5,0.0,0.0,0.75,1.25,1.0,0.5,0.25,0.25,0.0,0.0,0.0,0.25,0.08,-0.11,1.08,2.48,-1.4,34.4
1.22,1.0,0.25,0.0,1.25,0.0,2.25,0.75,1.5,3.0,5.25,4.0,7.5,7.5,0.2,-0.36,1.14,389.55,-1.4,-66.7,0.5,0.25,0.0,0.75,1.75,1.0,0.25,0.0,0.25,0.25,0.0,0.0,0.25,0.14,0.02,1.27,31.35,-0.7,38.0
1.24,1.5,0.0,2.25,1.75,0.5,2.5,3.5,3.5,3.5,4.75,4.0,7.5,7.25,-0.05,0.08,1.02,484.84,2.0,-49.6,0.5,0.0,0.0,0.75,1.25,0.0,0.25,0.0,0.25,0.25,0.0,0.5,0.25,0.2,0.27,1.52,36.83,-7.1,14.8
1.26,3.5,1.75,3.75,3.25,3.0,4.5,4.75,5.5,5.0,6.5,6.25,8.5,8.75,-0.11,-0.05,0.95,692.89,3.0,-30.9,0.5,0.0,0.0,0.75,1.25,0.0,0.0,0.25,0.25,0.5,0.0,0.0,0.25,0.27,0.33,2.02,46.29,-3.1,21.0
1.28,3.25,1.75,4.25,4.5,3.75,4.5,5.0,6.0,5.25,6.75,6.25,8.25,8.75,-0.11,-0.11,0.95,895.79,3.2,-27.7,0.5,0.5,0.0,0.75,1.25,0.0,0.25,0.25,0.25,0.0,0.0,0.25,0.25,0.02,1.02,2.89,57.29,-7.5,34.1
1.3,3.75,1.75,4.25,3.25,3.5,5.5,5.25,5.75,5.0,6.0,6.25,7.5,7.75,-0.11,-0.11,1.02,1046.56,3.3,-24.9,0.5,0.0,0.0,0.75,1.25,0.0,0.25,0.25,0.25,0.25,0.0,0.0,0.25,0.08,1.7,2.83,66.99,-5.3,27.6
1.32,3.75,1.75,4.25,3.25,4.75,5.25,5.25,5.75,5.0,6.25,6.25,7.25,7.25,-0.11,-0.11,0.95,1120.83,3.3,-22.5,0.5,0.25,0.0,0.75,1.25,0.5,0.25,0.0,0.25,0.0,0.0,0.0,0.25,-0.17,2.83,2.7,66.5,-5.1,43.3
1.34,3.75,1.75,4.75,3.25,4.75,6.0,5.5,5.75,4.75,5.0,5.75,6.5,6.75,-0.11,-0.11,0.95,1133.97,3.7,-17.7,0.5,0.0,0.0,0.5,1.25,0.5,0.25,0.25,0.0,0.25,0.0,0.0,0.25,-0.11,3.58,1.83,63.97,-0.5,30.6
1.36,3.75,1.75,4.75,3.25,5.0,6.0,5.5,5.5,4.75,5.0,5.5,5.75,6.0,-0.11,-0.11,0.95,1107.21,3.9,-14.7,0.5,0.0,0.0,0.5,1.25,0.5,0.0,0.25,0.25,0.0,0.0,0.0,0.25,-0.17,5.83,-0.73,62.64,-1.3,33.3
1.38,3.75,1.75,4.75,3.25,5.25,6.25,5.75,5.75,4.75,5.0,4.75,5.0,5.25,-0.11,-0.05,0.95,1067.23,3.8,-11.0,0.5,0.0,0.0,0.0,1.25,0.75,0.0,0.0,0.0,1.5,0.75,1.0,0.25,-5.67,6.45,-1.42,70.96,2.4,-25.9
1.4,4.0,1.75,4.75,3.75,5.25,6.25,6.0,5.5,4.75,4.75,3.5,3.25,3.75,-0.11,-0.05,0.95,1007.52,4.5,-2.0,0.5,0.0,0.0,0.25,1.25,0.0,0.0,1.0,0.0,1.75,1.0,1.75,1.25,1.45,-1.3,3.27,95.95,2.2,-49.1
1.42,4.5,1.75,4.75,3.25,5.0,6.25,6.25,5.0,4.75,4.75,3.75,3.25,3.75,-0.11,-0.05,0.95,945.96,5.0,-2.0,2.0,0.75,0.0,0.75,1.5,1.25,0.0,0.0,1.25,5.5,1.75,5.5,4.5,-0.42,0.27,1.02,194.59,0.4,-50.7
1.44,4.75,1.75,4.75,5.25,5.25,7.25,6.25,5.0,4.75,2.75,2.5,2.25,1.25,-0.11,-0.05,0.95,874.8,6.6,14.0,2.0,0.75,0.25,1.25,1.25,3.5,0.25,0.0,1.5,6.5,4.5,6.5,7.0,0.08,0.64,5.89,310.33,1.3,-52.2
1.46,5.25,1.75,4.75,5.25,7.5,7.5,6.5,5.5,4.75,3.5,3.0,2.75,3.25,-0.11,-0.05,0.95,867.39,5.2,8.8,2.0,0.75,1.0,2.0,2.75,3.5,0.25,0.0,2.25,8.5,7.0,7.25,8.0,0.14,0.14,1.27,491.06,0.3,-48.6
1.48,5.5,1.75,5.75,5.75,7.75,8.0,6.75,6.0,4.75,3.5,2.75,2.0,2.75,-0.11,-0.05,0.95,886.67,5.7,13.4,2.0,1.5,1.25,1.25,5.0,4.5,1.5,4.75,2.0,7.75,7.5,6.5,8.25,0.08,0.08,1.02,695.28,1.7,-38.7
1.5,5.75,2.0,6.25,7.0,8.5,8.25,7.25,6.0,4.5,3.0,2.75,2.0,2.25,-0.11,-0.05,0.95,936.93,6.5,18.0,2.0,1.5,1.5,3.0,5.0,5.5,1.5,5.5,2.75,8.5,7.5,7.5,8.5,0.14,0.02,0.95,892.7,1.4,-36.1
1.52,6.25,2.5,6.25,7.0,9.0,8.75,7.75,6.0,4.25,2.5,2.75,2.0,2.25,-0.11,-0.05,0.95,1004.67,6.7,20.6,2.0,1.75,1.75,2.75,5.0,5.5,1.5,5.5,2.75,8.5,8.0,7.75,8.75,0.14,0.02,0.95,1033.73,1.1,-36.5
1.54,7.0,3.25,6.5,8.75,11.5,9.0,8.0,6.0,4.25,2.75,2.5,2.0,2.0,-0.11,-0.05,1.02,1116.66,6.9,25.2,2.0,1.75,2.0,3.25,5.0,5.5,1.5,5.75,2.75,8.25,8.0,6.5,8.75,0.14,0.02,0.95,1113.61,1.0,-33.6
1.56,8.0,3.5,7.75,9.25,12.5,9.5,8.0,6.0,4.25,2.75,2.5,2.0,2.25,-0.11,-0.05,1.02,1242.65,7.5,27.2,2.0,1.5,0.75,2.75,5.0,5.5,1.5,5.75,3.0,8.75,7.75,7.25,8.75,0.14,0.02,0.89,1143.82,2.1,-38.2
1.58,9.5,3.5,7.75,11.0,13.0,9.75,8.0,6.0,3.5,2.75,2.25,2.0,1.75,-0.11,0.02,1.02,1357.53,8.1,31.3,1.25,1.25,0.25,1.0,3.25,6.0,1.5,6.0,2.5,7.75,6.75,6.5,7.75,0.14,0.02,0.95,1080.11,4.0,-44.2
1.6,10.5,4.0,7.75,12.0,14.5,9.75,7.5,6.0,3.0,3.25,0.0,2.0,2.0,-0.11,0.08,1.08,1445.09,7.9,35.5,2.0,1.75,1.5,3.25,4.75,5.75,1.0,5.5,2.75,8.25,6.25,6.75,8.0,0.14,0.02,0.95,1038.42,1.6,-32.9
1.62,12.5,5.0,8.0,12.5,15.0,10.5,7.25,6.0,2.75,2.75,1.0,1.75,1.75,-0.11,0.08,1.08,1533.24,8.6,38.5,2.25,1.75,1.25,3.25,5.0,5.75,1.5,5.75,2.75,7.75,5.5,6.5,7.25,0.14,0.02,0.89,973.26,1.5,-29.8
1.64,13.5,5.0,8.75,12.5,15.5,10.5,6.25,5.75,2.0,2.75,1.25,1.75,1.5,-0.23,0.14,1.27,1598.42,9.0,40.5,2.0,1.5,1.5,3.25,5.0,6.0,1.5,5.75,3.0,6.75,6.25,5.25,6.5,0.2,0.02,0.89,908.65,1.2,-27.1
1.66,14.0,5.0,8.75,11.5,15.5,9.75,5.0,5.5,1.75,2.75,1.25,1.75,1.5,-0.42,0.2,1.45,1622.94,9.3,41.2,3.0,1.75,2.75,3.25,6.25,6.5,2.25,5.75,3.25,6.5,5.5,4.25,5.5,0.14,0.02,0.95,859.43,-0.2,-15.6
1.68,15.5,5.0,8.25,11.0,14.5,9.0,4.25,5.5,1.5,2.5,1.25,1.75,1.5,-0.42,0.27,1.58,1610.17,9.9,42.5,3.0,1.75,2.75,3.5,6.75,7.0,2.75,5.75,3.25,5.75,4.5,3.0,4.5,0.14,0.02,0.95,821.87,-0.3,-8.0
1.7,14.0,5.0,7.75,7.75,11.5,8.25,4.0,5.0,0.75,2.5,1.5,1.75,1.5,-0.8,0.52,2.08,1510.96,10.0,41.1,3.75,1.75,3.0,4.5,7.0,7.25,2.75,5.5,3.25,5.0,4.5,2.5,3.75,0.14,0.08,0.95,801.23,-1.6,-1.0
1.72,12.0,4.75,6.5,5.5,9.0,6.25,3.5,3.75,1.0,0.25,1.25,1.75,1.5,-0.86,0.7,2.89,1329.94,11.5,44.1,4.5,2.5,4.75,7.25,9.5,7.75,3.25,5.5,2.75,5.0,3.25,1.0,2.25,0.2,0.08,0.95,834.3,-3.6,16.8
1.74,7.25,1.75,4.75,2.0,7.25,4.0,2.75,1.25,0.25,0.0,0.0,0.0,1.25,-1.23,0.39,2.52,928.43,11.8,52.6,5.5,3.0,5.25,7.5,10.5,8.0,3.25,5.25,2.75,4.75,3.25,1.5,2.25,0.14,0.08,1.14,906.81,-4.5,19.5
1.76,4.0,0.25,2.25,0.25,0.0,0.5,1.25,0.0,0.25,0.0,0.0,0.0,0.25,-0.92,-0.3,1.89,473.97,28.8,66.5,6.5,3.25,5.5,9.25,11.0,8.25,3.25,5.25,2.5,4.75,2.5,1.25,2.25,0.14,0.08,1.02,1004.15,-5.2,24.3
1.78,0.0,1.5,1.0,0.75,0.0,0.5,0.0,0.5,0.25,0.0,0.0,0.5,0.0,0.14,0.02,3.02,198.73,11.9,38.2,7.0,3.25,5.5,11.0,12.5,8.5,2.75,5.0,2.25,3.75,2.5,1.0,2.25,0.08,0.14,0.95,1105.94,-5.6,28.9
1.8,0.75,0.25,0.75,2.0,0.0,0.0,0.25,0.0,0.25,0.0,1.25,0.25,1.5,-1.23,-1.23,3.2,0.0,13.1,-4.4,8.25,4.0,6.75,11.0,13.5,8.75,2.5,5.25,2.0,3.25,2.5,1.5,2.25,0.08,0.14,1.02,1222.3,-6.6,31.5
1.82,0.75,0.25,1.25,1.25,0.0,0.25,0.25,0.5,0.25,0.0,0.0,0.0,0.0,-1.05,-1.11,1.58,0.0,19.8,49.5,8.75,4.75,6.75,12.5,14.0,0.0,2.25,5.25,1.75,3.5,2.25,1.25,1.0,0.14,0.2,1.08,1253.9,-11.0,36.9
1.84,0.25,0.25,1.0,1.25,0.0,0.0,1.5,0.5,0.0,0.0,0.0,0.25,0.0,-0.55,-0.73,0.45,0.0,21.0,37.2,9.5,4.75,6.75,12.5,14.5,8.75,1.5,4.75,1.5,3.5,2.25,1.25,2.0,0.14,0.2,1.08,1324.56,-7.1,36.1
1.86,0.25,0.25,1.0,0.0,0.0,0.0,1.5,0.0,0.0,0.0,0.0,0.25,0.0,-0.42,-0.55,0.08,0.0,30.6,41.6,9.0,2.5,6.75,10.5,14.0,8.0,0.5,4.75,0.75,0.5,2.25,0.75,2.0,0.14,0.27,1.2,1298.42,-7.6,39.8
1.88,0.75,0.25,1.0,0.0,0.0,0.25,1.5,0.0,0.0,1.25,0.0,1.0,0.0,-0.42,-0.48,0.14,0.0,14.3,-3.6,9.5,3.25,5.75,9.5,12.5,7.75,0.25,1.75,0.25,0.0,1.25,0.5,1.25,0.27,0.33,1.39,1198.5,-9.3,50.9
1.9,0.75,0.25,0.75,0.25,0.0,0.5,0.75,0.0,0.0,0.0,0.0,0.25,0.25,-0.48,-0.48,0.52,0.0,18.4,38.0,9.5,5.0,7.0,11.0,13.5,7.25,1.5,0.0,0.75,1.0,0.0,0.75,1.5,0.45,0.39,1.58,1119.25,-10.7,53.6
1.92,1.75,0.75,2.0,1.25,0.75,1.75,1.5,1.0,0.25,1.0,0.25,0.0,0.0,-0.55,-0.48,0.95,0.0,10.7,36.3,9.0,3.25,6.75,9.25,11.0,7.25,1.5,0.0,0.75,0.25,0.5,0.25,0.5,0.58,0.58,1.95,1002.45,-11.7,57.0
1.94,2.0,0.75,2.0,1.0,1.25,1.75,1.5,1.75,0.25,1.25,1.0,0.25,1.5,-0.55,-0.3,0.95,36.24,6.3,10.0,8.25,2.5,6.0,7.5,8.75,5.25,1.5,0.0,0.5,0.25,1.0,0.0,0.5,1.02,0.77,2.45,847.36,-13.1,56.7
1.96,2.0,0.5,2.0,2.75,0.75,1.5,1.5,1.0,0.25,1.25,1.0,0.5,1.5,-0.48,-0.05,0.89,140.65,9.3,12.6,7.0,1.5,4.0,5.25,7.0,3.5,1.0,0.0,0.25,0.25,0.25,0.0,0.25,0.95,0.58,2.83,636.44,-13.4,60.3
1.98,2.0,0.75,1.75,3.25,0.75,1.75,0.5,1.0,0.25,1.0,1.25,0.5,1.5,-0.42,0.08,1.02,210.76,8.4,14.6,2.0,0.0,0.5,0.5,5.5,1.25,0.5,0.0,0.25,0.25,0.0,0.5,0.0,0.89,-0.05,2.39,375.62,-4.9,46.9
2.0,2.0,0.5,1.75,3.25,0.75,1.5,2.25,1.0,0.25,1.25,0.75,0.75,1.5,-0.48,0.2,1.27,248.49,9.6,13.1,2.0,0.0,1.5,1.0,5.25,2.5,0.75,1.75,0.5,2.0,1.5,1.0,0.5,0.02,-0.36,1.83,251.28,-2.0,11.7
2.02,2.0,0.5,1.5,2.5,0.75,1.5,2.5,1.0,0.25,1.25,0.75,0.5,1.5,-0.55,0.33,1.64,252.59,8.9,12.1,2.0,0.75,0.75,3.25,5.25,1.0,0.75,1.75,0.75,2.0,1.0,1.0,1.0,0.27,-0.67,2.58,179.43,-3.9,15.1
2.04,2.0,0.75,1.75,2.75,0.75,1.75,2.25,1.0,0.25,1.5,0.5,0.75,1.5,-0.73,0.45,2.08,255.06,8.5,13.2,2.0,0.75,0.5,3.25,5.25,2.0,0.75,2.0,1.0,2.0,2.0,1.0,1.25,0.77,-1.55,2.58,175.94,-2.5,9.2
2.06,2.0,0.5,1.5,2.75,1.25,1.5,2.25,1.0,0.25,1.25,0.5,0.25,1.5,-1.11,0.95,2.83,254.98,8.4,17.6,2.0,0.75,0.5,3.25,5.0,1.25,0.5,1.75,0.25,1.5,1.5,0.25,1.25,0.7,-0.92,1.14,176.27,-3.2,18.5
2.08,1.0,0.25,1.25,2.75,0.75,1.75,2.0,1.0,0.25,1.25,0.5,1.25,1.25,-1.3,2.02,3.14,246.99,6.2,2.3,2.0,0.0,0.5,1.0,5.0,1.0,0.5,2.0,0.75,2.0,1.25,1.0,1.5,0.39,-0.55,0.27,175.7,-0.7,-0.2
2.1,1.5,0.5,1.75,1.25,1.25,0.75,2.0,1.0,0.25,1.25,0.5,1.25,1.75,-1.36,3.39,2.83,235.17,8.1,-0.8,1.25,0.0,0.0,0.75,1.75,1.25,1.0,0.5,0.75,2.0,0.0,1.0,0.0,0.08,-0.42,0.08,134.42,-1.4,1.3
2.12,1.75,0.5,1.75,1.75,1.25,0.75,2.0,1.0,0.25,1.25,0.5,0.75,1.5,-1.36,5.02,-0.42,223.01,9.2,8.7,0.25,0.0,0.0,1.25,1.25,1.0,0.25,0.25,0.25,0.5,0.0,0.25,0.0,-0.05,-0.23,0.33,72.77,-0.2,24.0
2.14,1.0,0.25,1.5,1.75,0.75,0.5,2.0,1.25,0.25,1.25,1.0,0.75,1.5,0.77,6.2,-2.11,206.59,7.9,-5.5,0.5,0.0,0.0,1.25,1.25,0.75,0.25,0.25,0.0,0.75,0.0,0.0,0.25,-0.17,-0.3,0.64,20.58,-0.4,24.8
2.16,1.25,0.5,2.25,1.75,0.0,1.75,1.5,1.25,0.25,2.5,1.25,2.25,2.25,2.27,3.89,-0.05,209.96,5.4,-19.4,0.5,0.25,0.0,1.25,1.25,1.0,0.25,0.25,0.25,0.25,0.0,0.0,0.25,-0.11,-0.23,0.89,9.81,-1.9,34.8
2.18,0.25,0.25,1.0,1.75,0.0,1.5,1.25,3.0,1.0,3.5,1.5,5.0,5.25,-0.11,-0.05,2.2,252.42,-1.5,-56.1,0.5,0.25,0.0,0.75,1.25,1.0,0.25,0.25,0.25,0.25,0.0,0.0,0.25,0.02,-0.17,0.95,15.43,-0.3,32.4
2.2,0.25,0.0,0.5,1.25,0.0,0.75,0.25,2.25,0.75,4.75,1.25,6.0,6.0,-0.17,0.02,1.83,293.56,-3.4,-72.6,0.5,0.25,0.0,0.75,1.25,1.0,0.25,0.25,0.25,0.25,0.0,0.0,0.25,0.02,-0.05,1.02,31.15,-0.3,32.4
2.22,0.25,0.0,2.25,3.25,0.0,3.5,1.75,4.75,1.75,7.25,1.75,8.0,7.75,-1.86,0.89,4.14,409.9,-2.0,-52.5,0.5,0.25,0.0,0.75,1.25,1.0,0.0,0.25,0.25,0.75,0.0,0.0,0.25,-0.05,0.08,1.2,43.52,1.8,22.6
2.24,0.25,0.0,2.5,1.75,0.75,2.75,0.25,6.0,1.75,0.0,3.0,7.5,8.0,0.08,-0.17,1.2,485.02,-0.4,-52.6,0.5,0.0,0.0,1.0,1.5,1.0,0.25,0.25,0.25,0.25,0.0,0.0,0.25,0.02,0.2,1.45,36.19,-0.4,31.6
2.26,1.0,0.0,2.25,1.5,0.5,4.0,3.0,5.75,1.75,7.5,3.0,7.5,8.0,-0.05,0.14,1.08,602.68,-2.3,-51.5,0.5,0.25,0.0,0.75,2.25,1.0,0.0,0.25,0.25,0.25,0.0,0.0,0.25,0.14,0.33,1.7,44.44,0.9,36.5
2.28,2.0,1.5,2.25,3.25,0.75,5.75,3.5,7.25,2.75,9.25,3.75,8.75,9.25,-0.23,-0.05,1.02,750.87,-1.5,-41.4,0.5,0.25,0.0,0.75,1.25,1.0,0.0,0.25,0.25,1.5,0.0,0.25,0.0,0.2,0.52,2.27,55.81,2.5,10.8
2.3,2.0,0.25,3.25,3.25,3.5,6.0,3.75,7.25,3.25,9.25,5.75,8.25,9.75,-0.17,-0.05,0.95,934.11,-0.9,-38.4,0.5,0.25,0.0,0.5,1.25,1.0,0.25,0.25,0.25,0.0,0.0,0.0,0.0,0.2,1.14,2.64,62.42,-1.1,45.8
2.32,2.0,0.5,3.75,3.25,5.25,6.0,4.0,7.25,3.0,8.75,5.5,8.25,9.5,-0.17,-0.05,0.95,1077.45,-0.5,-33.5,0.5,0.25,0.0,0.75,1.25,1.0,0.0,0.25,0.25,0.75,0.0,0.0,0.0,0.39,2.08,3.14,70.75,1.2,29.2
2.34,2.0,0.5,3.75,3.25,3.75,6.25,3.75,7.25,2.75,8.5,5.0,7.75,8.75,-0.17,-0.05,0.95,1141.37,-0.6,-33.7,0.5,0.0,0.0,0.5,1.25,0.75,0.25,0.25,0.25,0.75,0.0,0.25,0.0,0.7,3.39,2.7,76.46,0.5,16.3
2.36,2.0,0.25,3.75,3.25,4.25,6.25,2.75,7.25,2.75,7.5,3.75,7.25,8.25,-0.17,-0.05,0.95,1120.67,-0.9,-31.0,0.5,0.0,0.0,0.5,1.25,0.75,0.0,0.0,0.0,1.0,0.0,0.0,0.0,1.58,5.14,0.2,74.67,2.7,24.6
2.38,2.25,0.25,3.75,3.25,4.75,6.25,2.75,7.0,2.5,6.5,2.75,6.75,7.75,-0.17,-0.05,0.95,1039.5,-0.6,-26.5,0.5,0.0,0.0,0.75,1.25,0.5,0.0,0.0,0.0,1.25,0.0,0.25,0.0,-0.05,6.14,-1.42,71.93,0.6,13.4
2.4,2.25,0.25,3.75,3.25,5.0,6.5,3.5,6.75,2.5,6.5,2.0,5.75,6.75,-0.17,-0.05,0.95,949.74,-0.5,-21.6,0.5,0.0,0.0,0.5,3.0,0.5,0.0,1.0,0.75,2.0,0.75,1.0,0.25,-5.42,5.95,-0.36,100.6,2.1,-12.4
2.42,2.25,0.25,3.25,3.25,5.5,6.25,4.25,6.5,2.5,5.5,2.5,5.0,6.0,-0.17,-0.05,0.95,866.96,-0.1,-18.2,0.5,0.0,0.0,0.75,1.25,0.0,0.0,1.25,0.75,3.25,0.0,2.75,1.25,0.7,-0.8,1.52,135.42,2.6,-49.7
2.44,2.0,0.25,3.75,3.25,5.25,7.0,4.0,6.75,2.5,5.0,2.75,5.0,6.0,-0.11,-0.05,0.95,813.52,-0.1,-17.6,0.5,0.0,0.0,0.0,1.25,1.0,0.0,0.0,1.0,5.5,2.25,4.75,4.0,0.52,0.14,1.39,208.68,3.6,-70.4
2.46,2.5,0.25,3.75,3.25,5.25,7.25,4.5,6.75,2.75,5.0,2.75,3.5,5.25,-0.17,-0.05,0.95,764.64,0.2,-12.1,5.75,0.0,0.0,1.5,1.25,3.25,0.5,0.0,0.0,6.75,4.5,6.0,6.5,0.2,0.7,2.27,311.4,-1.4,-40.1
2.48,3.0,0.5,3.75,3.25,5.25,7.25,4.5,6.75,3.0,5.0,2.75,3.5,5.25,-0.17,-0.05,0.95,750.28,0.6,-10.6,2.0,1.75,0.5,3.25,2.75,5.25,0.75,4.75,2.75,8.25,7.5,7.5,7.5,0.02,0.27,1.08,524.97,1.5,-40.3
2.5,3.5,1.75,4.25,3.25,5.5,7.25,4.5,6.75,3.5,5.0,2.75,3.25,4.0,-0.17,-0.05,0.95,740.91,1.9,-3.4,2.0,1.5,2.75,3.25,5.0,5.25,1.5,5.5,2.5,8.25,8.0,6.5,8.0,-0.05,0.08,1.02,761.9,0.3,-32.2
2.52,2.0,0.5,3.0,3.5,5.25,7.75,4.75,6.75,4.0,4.75,3.0,3.25,3.75,-0.11,-0.05,0.95,718.44,0.1,-9.9,1.0,1.25,2.25,2.75,5.0,5.5,1.5,5.75,2.5,8.75,7.75,7.25,8.25,0.27,0.02,0.95,960.51,1.7,-37.7
2.54,4.25,1.75,4.75,5.25,7.25,8.25,5.5,6.75,4.25,4.75,3.0,3.25,3.75,-0.11,-0.05,0.95,786.79,3.1,3.1,2.0,1.5,0.25,3.25,2.5,5.25,1.0,5.75,2.25,8.5,7.5,7.25,8.25,0.14,0.02,0.89,1045.28,2.3,-42.6
2.56,5.0,1.75,4.75,5.25,7.75,8.5,6.0,6.75,4.25,4.75,2.5,3.0,2.25,-0.11,-0.05,0.95,855.4,3.8,8.9,2.0,1.5,1.25,1.25,5.0,5.75,1.5,6.0,2.25,8.5,7.25,6.75,8.0,0.14,0.02,0.95,1071.0,2.6,-37.5
2.58,5.25,2.0,5.0,7.0,9.0,9.0,6.5,7.0,4.5,4.25,2.75,2.25,2.75,-0.11,-0.05,0.95,968.96,4.2,12.8,1.75,1.5,1.75,3.0,5.0,6.0,1.5,6.25,2.75,8.75,7.0,6.5,8.0,0.2,0.02,0.89,1075.52,1.9,-33.7
2.6,6.0,2.75,6.25,7.0,10.5,9.75,7.25,7.25,4.25,3.75,2.75,2.0,3.5,-0.11,-0.05,0.95,1093.63,4.7,16.5,2.0,1.5,2.75,3.25,5.5,6.25,2.0,6.5,2.25,8.5,6.75,6.25,7.75,0.14,0.02,0.95,1080.06,1.1,-28.9
2.62,7.0,3.5,6.25,8.75,10.5,9.75,7.75,6.75,4.25,3.5,1.75,2.0,1.75,-0.17,-0.05,1.14,1210.19,6.2,24.7,2.0,1.75,1.5,3.25,5.25,6.5,1.5,6.5,2.5,8.0,6.25,5.5,7.5,0.2,0.02,0.95,1051.9,2.2,-28.5
2.64,8.75,3.5,6.5,11.0,13.5,10.5,8.0,7.0,4.0,3.25,2.75,2.0,2.75,-0.17,-0.05,1.08,1353.13,6.4,26.0,2.0,1.75,1.25,3.25,5.5,7.25,1.5,0.0,2.25,7.75,5.5,5.25,6.5,0.2,0.02,0.89,951.46,0.8,-23.2
2.66,9.5,3.75,7.75,12.0,14.5,10.5,8.25,6.75,3.5,2.75,2.0,2.0,2.25,-0.11,0.02,1.08,1459.37,7.4,31.1,2.25,1.5,2.75,3.5,6.75,7.5,1.75,0.0,2.25,6.75,5.25,4.25,5.5,0.2,0.02,0.95,858.57,-0.7,-12.8
2.68,11.0,5.0,8.75,13.0,15.5,10.5,7.75,6.75,2.75,2.75,1.75,1.75,2.0,-0.23,0.08,1.33,1571.37,8.2,35.8,2.0,1.75,2.75,3.5,7.0,7.75,2.25,0.0,2.25,6.25,4.5,3.0,4.75,0.2,0.08,0.95,757.58,-0.7,-6.1
2.7,12.5,3.5,9.0,13.0,13.5,9.75,7.0,6.0,2.25,2.75,0.5,1.75,1.75,-0.36,0.08,1.45,1604.24,9.4,38.6,3.0,2.0,2.75,3.5,8.0,8.0,2.25,0.0,2.0,5.5,2.75,2.5,3.75,0.2,0.08,0.95,686.96,-1.3,5.5
2.72,13.5,4.25,9.75,11.0,14.5,9.0,6.25,6.0,1.75,2.25,1.25,1.75,1.5,-0.36,0.2,1.7,1613.4,10.0,40.5,3.0,2.25,2.75,5.0,8.25,8.5,2.25,0.0,2.0,5.25,3.25,2.25,3.0,0.14,0.08,0.95,655.82,-2.0,10.4
2.74,14.0,5.0,9.0,7.75,11.5,7.25,5.25,5.25,1.0,2.5,1.25,1.75,1.5,-0.73,0.33,2.2,1530.59,11.0,41.3,3.25,2.5,3.0,5.5,9.5,8.5,2.25,0.0,2.0,5.0,2.75,1.25,2.25,0.14,0.08,0.95,663.59,-2.6,19.2
2.76,11.5,3.5,8.25,5.75,8.75,6.0,5.0,4.0,1.0,2.5,1.25,0.75,1.5,-0.8,0.58,2.89,1368.89,11.5,40.5,3.0,2.5,3.0,5.5,9.5,8.75,2.25,0.0,1.5,4.75,2.5,1.5,1.25,0.2,0.08,0.95,667.37,-2.6,22.7
2.78,7.75,1.75,6.25,2.5,5.75,3.0,3.5,3.25,0.25,0.0,0.0,0.25,1.25,-1.11,0.27,2.45,987.0,13.6,47.4,3.5,2.5,2.75,6.0,11.0,9.0,2.0,0.0,1.5,4.75,2.25,1.5,2.0,0.2,0.08,0.95,691.69,-2.2,23.1
2.8,4.5,0.25,3.75,1.75,0.75,0.5,1.0,0.75,0.25,0.0,0.0,0.25,0.25,-0.92,-0.3,2.2,554.07,23.7,56.4,3.75,3.0,2.75,7.5,11.0,9.5,1.75,0.0,1.5,4.75,2.25,1.25,2.0,0.2,0.08,1.02,727.76,-2.6,26.0
2.82,2.0,0.25,1.75,2.0,0.0,0.5,1.5,1.0,0.25,0.0,0.0,0.25,0.0,-0.3,-0.11,1.2,262.88,20.0,45.9,3.75,3.0,2.75,7.5,12.5,9.75,1.75,0.0,1.5,4.75,2.25,1.25,2.0,0.2,0.08,0.95,778.23,-2.3,26.9
2.84,1.25,0.25,1.25,1.75,0.75,0.0,1.5,1.0,0.25,0.0,0.0,0.25,0.0,-1.36,-1.23,3.08,72.55,17.5,41.3,3.75,3.0,2.75,8.5,12.5,10.0,1.5,0.0,1.5,4.75,2.25,1.25,2.0,0.14,0.14,0.95,832.72,-2.4,27.6
2.86,1.75,0.25,2.25,0.5,0.5,0.5,1.75,1.25,0.5,0.0,0.0,0.25,1.25,-1.11,-1.05,1.45,0.0,14.3,19.2,4.75,3.25,3.0,9.25,13.5,10.5,1.5,0.0,1.25,4.5,2.0,1.25,2.0,0.14,0.14,0.95,904.82,-3.0,31.3
2.88,1.25,0.0,3.5,1.75,1.75,1.75,2.5,1.25,0.75,0.0,0.25,1.5,1.5,-0.67,-0.73,0.45,0.0,11.1,12.4,5.0,3.25,3.0,9.5,14.0,10.5,1.0,0.0,0.75,2.0,2.0,0.5,2.0,0.14,0.14,0.95,940.62,-3.7,39.4
2.9,1.75,0.75,2.5,3.25,1.25,1.0,2.5,1.25,0.75,0.0,0.0,1.75,1.5,-0.3,-0.55,0.08,0.0,12.6,17.1,6.25,3.75,2.25,11.0,12.5,9.75,0.5,0.0,1.0,2.0,1.0,1.0,1.5,0.14,0.2,1.02,949.18,-4.9,42.9
2.92,2.0,0.75,3.0,2.75,0.75,1.25,2.5,1.25,0.5,0.0,0.25,1.5,0.5,-0.17,-0.48,0.2,31.32,15.5,27.0,7.0,4.25,2.75,11.0,15.5,10.0,0.75,0.0,1.0,3.25,2.0,1.25,2.0,0.14,0.27,1.08,1008.81,-4.6,38.6
2.94,2.0,0.75,2.75,2.5,0.75,1.0,2.75,1.25,0.5,0.25,0.5,0.5,1.5,-0.23,-0.48,0.7,71.52,13.7,22.3,7.0,2.5,2.75,9.25,15.5,9.0,0.5,0.0,0.0,0.25,2.0,0.25,2.0,0.2,0.33,1.14,988.96,-5.3,46.7
2.96,2.0,0.5,2.75,1.25,0.5,0.0,2.75,1.0,0.25,1.0,0.5,1.75,1.5,-0.42,-0.48,0.83,98.36,14.8,1.9,7.0,2.75,1.75,9.25,12.5,9.0,0.0,0.0,0.25,0.25,0.75,0.5,0.75,0.39,0.33,1.27,919.17,-5.5,52.5
2.98,2.0,0.75,2.5,1.75,0.75,0.25,2.75,1.25,0.25,1.25,0.5,1.75,1.5,-0.55,-0.36,0.83,139.05,12.6,3.9,7.0,3.25,1.75,9.25,13.5,8.5,0.0,0.0,0.0,1.5,1.5,0.0,1.0,0.58,0.39,1.39,857.1,-5.0,49.2
3.0,2.0,0.5,2.75,1.75,0.5,1.25,2.75,1.25,0.25,1.0,0.5,1.75,1.5,-0.48,-0.17,0.77,181.36,11.6,5.4,7.0,2.75,1.75,7.75,12.0,0.0,0.0,0.0,0.25,1.75,0.75,0.0,0.75,0.7,0.52,1.83,725.92,-10.9,53.4
3.02,2.0,0.5,2.5,1.75,0.75,1.75,2.75,1.25,0.25,0.5,0.75,1.0,1.5,-0.42,-0.11,0.95,219.01,10.9,12.9,5.5,2.25,1.25,5.75,9.75,0.0,0.5,0.0,0.0,0.0,0.0,0.25,0.5,1.27,1.08,2.83,559.0,-12.1,62.3
3.04,2.0,1.0,2.5,1.75,0.75,1.25,2.5,1.0,0.25,0.75,0.25,1.5,1.5,-0.42,0.02,1.2,237.39,11.7,13.3,3.75,1.5,0.0,3.5,7.0,5.5,0.5,0.0,0.0,0.0,0.0,0.0,0.0,1.08,0.7,2.89,400.95,-3.0,59.5
3.06,2.0,0.5,2.5,1.75,0.0,0.75,2.0,1.0,0.25,0.5,0.5,1.5,1.5,-0.48,0.2,1.58,229.91,14.0,6.6,11.0,1.5,0.0,3.0,3.25,4.5,0.25,0.0,0.75,2.75,0.0,0.5,0.0,1.08,-0.11,1.83,334.58,-10.9,51.6
3.08,2.0,0.5,2.25,1.75,0.75,1.75,2.5,1.25,0.25,0.5,0.5,1.5,1.5,-0.61,0.33,1.95,226.07,10.2,9.5,0.0,0.0,0.0,0.75,5.25,3.25,0.0,1.25,0.25,2.5,1.25,0.0,0.75,0.02,0.33,1.2,248.9,8.2,3.2
3.1,2.0,0.5,2.25,1.75,0.75,1.75,2.5,1.0,0.25,0.5,0.25,1.5,1.5,-0.8,0.52,2.83,218.55,10.6,11.7,0.5,0.5,0.0,0.75,4.25,1.75,0.0,0.75,0.25,1.25,0.0,0.25,0.0,0.2,-0.55,2.58,173.92,4.1,27.8
3.12,2.0,0.5,2.25,1.75,0.75,1.75,2.5,1.0,0.25,0.75,0.75,0.75,1.5,-0.98,1.39,2.95,216.23,10.3,13.4,2.0,1.5,0.5,1.75,5.25,3.25,0.5,1.75,0.25,0.75,1.25,0.0,1.0,1.08,-1.3,1.58,153.6,-0.7,28.3
3.14,2.0,0.5,2.25,1.75,0.75,1.75,2.5,1.0,0.25,1.25,0.5,1.25,1.5,-0.98,2.7,3.27,219.82,9.4,8.2,0.5,0.5,0.0,0.0,5.25,1.25,0.5,1.75,0.25,0.75,1.25,0.25,0.75,0.83,-0.86,0.77,121.64,3.7,9.7
3.16,2.0,0.5,2.25,2.5,0.75,1.5,2.0,1.25,0.25,0.5,0.75,1.0,1.5,-0.55,4.02,2.27,224.44,10.8,13.7,0.0,0.25,0.0,0.75,1.25,3.25,0.25,0.5,0.75,2.0,0.0,1.0,0.25,0.39,-0.48,0.39,92.1,7.8,-7.8
3.18,2.0,0.5,2.25,2.0,0.75,1.75,2.0,1.25,0.25,1.25,0.5,0.25,1.5,0.45,6.2,-0.36,224.52,8.8,15.6,0.5,0.25,0.0,0.0,1.25,1.0,0.0,0.25,0.25,1.5,0.0,0.25,0.25,0.14,-0.36,0.33,55.35,5.8,-1.2
3.2,0.25,0.25,0.25,1.75,0.0,1.0,1.25,1.0,0.25,0.5,0.0,2.0,0.0,4.58,7.95,0.83,189.8,5.9,-10.8,0.0,0.25,0.0,0.0,1.25,1.0,0.0,0.25,0.25,0.75,0.0,0.0,0.25,0.02,-0.17,0.39,20.77,9.5,7.4
3.22,1.25,0.75,2.75,1.75,0.5,1.75,1.75,3.0,0.25,2.0,1.25,2.25,3.5,-1.48,-1.11,2.08,214.24,3.7,-19.5,0.5,0.25,0.0,0.0,1.25,1.0,0.0,0.25,0.25,0.5,0.0,0.0,0.25,0.2,-0.17,0.52,0.0,4.4,21.8
3.24,0.75,0.5,2.25,2.5,0.75,1.75,1.5,3.25,0.25,2.5,2.0,5.0,5.25,1.08,0.14,0.45,260.95,1.7,-38.8,0.5,0.25,0.0,0.0,1.75,1.0,0.0,0.25,0.25,0.0,0.0,0.25,0.25,0.33,-0.17,0.77,0.0,2.3,29.1
3.26,0.25,0.0,1.75,0.75,0.0,1.75,0.25,2.5,0.0,4.75,1.25,6.0,6.0,1.08,0.27,1.58,311.28,-3.1,-65.2,0.5,0.25,0.0,0.0,1.25,1.0,0.0,0.25,0.0,0.25,0.0,0.0,0.25,0.39,-0.11,0.83,8.81,4.7,32.0
3.28,0.5,0.0,1.0,1.0,0.5,4.0,0.25,5.25,2.0,6.5,3.25,8.0,7.75,-0.36,0.83,1.77,424.75,-4.5,-60.9,0.5,0.25,0.0,0.0,1.25,1.0,0.0,0.0,0.25,0.5,0.0,0.0,0.25,0.39,-0.05,0.95,15.59,3.6,25.5
3.3,0.0,0.0,1.0,1.75,0.0,4.5,3.5,5.25,2.75,6.75,3.5,7.75,8.75,0.14,-0.05,1.08,556.79,-3.4,-58.5,0.5,0.25,0.25,0.0,1.5,1.0,0.0,0.25,0.25,0.5,0.0,0.25,0.25,0.45,0.08,1.27,26.41,1.5,19.2
3.32,0.0,0.25,2.5,2.0,0.5,4.0,4.25,5.5,2.5,7.0,3.75,7.5,8.0,0.08,0.02,1.02,669.68,-1.4,-50.7,0.5,0.0,0.0,0.0,1.25,1.0,0.0,0.25,0.0,0.5,0.0,0.25,0.25,0.58,0.33,1.45,39.81,5.6,12.7
3.34,2.0,0.5,4.25,3.25,3.5,5.5,4.75,6.5,3.25,8.0,5.75,8.25,9.5,-0.11,-0.05,0.95,840.76,0.6,-35.3,0.5,0.25,0.0,0.0,1.25,0.75,0.0,0.25,0.0,0.5,0.0,0.0,0.25,0.64,0.45,1.7,42.08,4.3,24.9
3.36,2.0,0.25,3.5,3.0,4.5,5.5,4.5,6.75,3.25,8.25,5.75,8.25,9.5,-0.11,-0.05,0.95,987.68,-0.1,-36.0,0.5,0.0,0.0,0.0,1.25,0.75,0.0,0.25,0.0,0.5,0.0,0.25,0.25,0.89,0.83,2.2,39.61,4.6,11.4
3.38,2.0,0.25,3.75,3.25,4.75,6.0,5.0,6.75,3.25,7.75,4.75,7.5,8.75,-0.11,-0.05,0.95,1078.68,0.0,-31.3,0.5,0.0,0.0,0.0,1.25,0.75,0.0,0.0,0.0,0.25,0.0,0.0,0.25,1.2,1.64,2.45,46.46,3.8,31.9
3.4,2.25,0.25,4.25,3.25,5.25,6.25,5.0,6.75,3.25,7.5,3.75,6.75,8.0,-0.17,-0.05,0.95,1099.27,0.3,-26.1,0.5,0.0,0.0,0.0,1.75,0.5,0.0,0.25,0.0,0.5,0.0,0.0,0.25,1.45,2.77,2.33,52.95,4.2,23.7
3.42,2.0,0.5,4.5,3.25,5.0,6.0,5.0,6.75,3.0,7.25,4.5,6.0,7.75,-0.17,-0.05,0.95,1085.26,0.6,-25.2,0.5,0.0,0.0,0.5,1.25,1.0,0.0,0.25,0.0,0.5,0.0,0.0,0.25,1.58,3.89,1.77,61.09,3.7,25.0
3.44,2.25,0.25,4.5,3.0,5.0,6.25,5.0,6.75,3.0,6.5,4.0,5.75,7.0,-0.17,-0.05,0.95,1030.47,0.8,-22.8,0.5,0.0,0.0,0.75,1.5,1.0,0.0,0.25,0.25,0.0,0.0,0.0,0.25,0.89,4.77,-1.23,68.67,0.4,36.0
3.46,2.0,0.0,4.5,3.0,5.25,6.5,4.5,6.25,3.0,6.25,2.5,5.5,6.0,-0.17,-0.05,0.95,944.02,0.5,-19.6,0.5,0.0,0.0,0.75,1.25,0.0,0.0,0.5,0.0,0.0,0.25,0.0,0.0,-1.42,6.08,-0.55,66.35,-5.6,38.0
3.48,2.0,0.5,4.5,3.25,5.25,7.0,5.0,6.75,3.25,6.25,3.5,5.0,6.0,-0.11,-0.05,0.95,902.59,0.6,-17.9,0.0,0.0,0.0,0.5,1.75,1.0,0.0,1.0,0.25,2.0,0.75,0.25,0.25,-2.92,0.95,1.14,85.11,7.2,-17.4
3.5,2.5,0.75,4.5,3.25,5.25,7.25,5.25,7.0,3.5,4.75,3.5,3.5,6.0,-0.11,-0.05,0.95,863.46,1.1,-12.1,0.0,0.0,0.0,0.5,1.25,1.0,0.25,1.75,0.5,3.0,2.5,3.25,1.5,-0.8,0.27,1.33,141.48,3.2,-56.7
3.52,2.25,1.25,4.75,3.25,7.0,7.25,5.25,7.25,3.25,4.75,3.0,3.0,5.0,-0.11,-0.05,0.95,838.11,1.1,-5.6,0.0,0.0,0.5,0.0,3.25,1.0,0.25,1.75,0.5,5.0,2.25,5.0,4.0,-0.11,-0.11,1.7,227.55,4.2,-56.9
3.54,3.75,1.75,4.75,5.25,7.5,8.25,5.5,7.25,4.0,5.0,3.0,3.25,3.75,-0.17,-0.05,0.95,871.42,2.6,2.1,0.75,0.0,0.0,0.75,1.25,3.25,0.0,3.25,1.5,7.0,4.75,6.25,6.25,1.02,0.83,3.08,343.21,4.7,-61.5
3.56,3.75,1.75,4.75,5.25,8.0,8.75,5.75,7.25,4.0,4.75,2.75,3.0,3.75,-0.11,-0.05,0.95,911.5,2.4,4.0,2.0,0.5,0.25,2.75,3.25,5.0,1.0,4.25,3.0,7.75,7.5,6.5,7.25,-0.23,0.08,1.33,541.34,1.9,-42.4
3.58,4.25,1.75,4.75,6.75,8.75,9.0,6.25,7.25,4.0,4.75,2.75,2.25,3.5,-0.11,-0.05,0.95,962.44,2.9,8.6,1.0,1.5,2.0,2.25,5.0,5.75,2.0,5.25,3.5,8.5,8.0,7.5,8.0,0.02,0.02,0.95,776.96,1.3,-37.8
3.6,5.25,1.75,4.75,7.0,9.0,9.5,6.5,7.25,3.75,4.5,2.75,2.0,3.5,-0.17,-0.05,0.95,1025.27,3.3,11.5,0.75,0.5,2.25,1.0,5.25,4.75,1.5,5.5,3.25,7.75,8.0,6.5,8.0,0.2,0.02,0.95,932.65,1.9,-42.0
3.62,5.5,2.25,5.75,7.25,11.5,9.75,6.5,7.25,3.75,4.0,2.75,2.0,3.5,-0.11,-0.05,1.02,1116.66,3.8,15.8,2.5,1.5,0.25,3.25,5.25,5.5,1.75,5.5,4.0,8.5,8.0,7.25,8.0,0.14,0.02,0.95,1055.41,1.3,-35.6
3.64,6.0,2.5,6.25,8.75,11.5,9.75,7.0,7.25,3.5,3.5,2.75,2.0,3.0,-0.11,-0.05,1.08,1201.05,4.9,19.6,2.5,1.75,2.75,3.25,5.25,5.75,2.25,5.5,4.0,8.0,8.0,7.0,8.0,0.14,0.02,0.95,1121.61,-0.3,-30.1
3.66,7.0,3.0,6.25,11.0,13.0,10.5,7.25,7.25,3.5,3.75,2.25,2.0,3.0,-0.11,-0.05,1.02,1319.01,5.2,23.4,3.0,1.75,2.75,3.25,5.25,6.0,2.25,5.5,4.25,7.75,7.75,6.5,7.5,0.14,0.02,0.95,1151.25,-0.6,-27.3
3.68,7.75,3.25,6.25,12.0,14.5,10.5,7.0,7.25,3.0,3.25,1.5,1.75,2.25,-0.11,0.02,1.02,1396.69,5.6,29.1,3.25,1.75,2.75,3.25,5.5,6.0,2.75,5.5,4.5,7.25,7.0,6.0,6.5,0.08,0.02,0.95,1141.44,-1.1,-23.2
3.7,8.75,3.5,6.75,13.0,15.0,11.5,6.25,7.25,2.75,2.75,2.0,2.0,2.25,-0.11,0.08,1.08,1477.6,6.0,30.7,3.25,1.75,3.25,3.5,6.5,6.25,2.75,5.5,4.25,6.5,6.5,5.25,5.5,0.08,0.02,0.95,1114.35,-1.6,-16.7
3.72,9.5,3.5,7.75,13.5,16.0,12.0,6.25,7.25,2.25,2.75,1.25,1.75,2.0,-0.17,0.14,1.14,1540.32,6.4,34.3,3.25,1.75,3.0,3.5,6.75,6.5,3.0,5.0,4.0,6.0,5.5,4.25,5.0,0.14,0.02,0.95,1044.86,-1.5,-12.1
3.74,11.0,4.25,7.75,13.0,16.0,12.0,5.0,6.75,1.75,2.75,1.25,2.0,2.0,-0.23,0.14,1.2,1588.41,6.8,36.3,3.75,1.75,2.75,3.75,6.75,6.5,3.0,4.75,4.0,5.0,4.5,2.75,3.75,0.14,0.02,0.95,947.68,-2.1,-3.4
3.76,12.5,4.75,7.75,13.0,16.5,11.0,4.75,6.75,1.5,2.75,1.25,1.75,1.5,-0.36,0.2,1.45,1615.16,7.6,39.3,3.75,2.25,3.5,5.25,7.0,7.0,3.25,4.75,4.0,5.0,4.5,2.5,3.0,0.14,0.02,0.95,888.26,-3.1,2.8
3.78,12.5,3.5,7.75,11.5,15.5,10.5,3.75,6.5,1.25,2.75,1.25,1.75,1.75,-0.42,0.33,1.64,1589.94,7.5,37.9,3.75,2.25,4.75,5.5,8.0,7.25,3.5,4.5,4.0,4.75,4.5,3.0,2.25,0.14,0.08,0.95,862.46,-4.2,6.6
3.8,12.5,5.0,7.75,11.0,13.5,9.5,4.25,6.0,1.0,2.75,1.5,1.75,1.5,-0.8,0.39,1.89,1543.83,8.5,39.4,4.0,2.5,5.25,5.75,8.25,7.25,3.75,4.5,3.5,4.75,3.75,2.25,2.25,0.14,0.02,0.95,860.17,-4.6,11.4
3.82,11.5,4.25,7.0,7.0,11.5,8.25,4.25,5.25,1.0,2.5,1.25,1.75,1.5,-1.05,0.77,2.7,1417.74,8.6,37.8,5.5,2.5,5.5,7.0,9.25,7.5,3.75,4.5,3.25,4.5,2.5,1.25,2.0,0.14,0.08,0.95,887.79,-5.4,20.7
3.84,8.75,3.0,5.75,4.0,8.5,6.0,2.75,4.0,0.25,0.25,1.0,0.25,1.5,-1.11,0.64,2.95,1142.4,9.4,44.2,5.5,3.0,5.75,7.5,9.5,7.75,3.75,4.5,2.75,3.5,2.25,1.25,2.0,0.14,0.08,1.02,920.84,-5.8,24.7
3.86,4.25,0.0,0.0,1.75,3.5,3.0,1.25,0.0,0.25,0.0,0.0,0.25,0.5,-1.17,-0.23,2.33,655.59,7.6,51.1,5.75,3.25,6.25,7.5,9.5,7.75,3.75,4.0,2.75,3.5,2.25,1.25,1.0,0.14,0.08,0.95,935.9,-6.8,28.6
3.88,0.0,0.75,0.5,2.5,0.0,3.5,0.0,1.25,0.5,1.25,0.25,1.75,1.5,-0.36,-0.11,1.02,325.88,-2.8,-12.2,7.0,3.25,6.75,9.0,11.0,7.75,3.5,4.0,2.75,3.5,2.5,1.25,1.25,0.08,0.08,0.95,989.64,-7.5,30.6
3.9,2.0,1.0,3.0,3.0,1.75,3.0,0.25,1.0,0.5,1.5,1.0,1.25,1.5,-0.36,-0.3,1.95,177.67,7.1,15.0,7.75,2.5,6.75,9.25,11.0,7.75,3.25,4.0,2.25,3.5,2.5,1.25,1.75,0.08,0.08,1.02,1040.9,-7.5,30.0
3.92,0.25,1.25,3.5,3.25,0.75,1.0,1.5,1.25,0.5,1.25,1.0,1.5,1.25,-1.17,-0.92,3.14,91.28,10.7,7.0,8.0,3.5,7.0,9.5,11.5,7.75,3.25,4.0,2.0,3.25,2.25,1.0,2.0,0.08,0.14,0.95,1100.41,-7.7,32.8
3.94,1.0,0.75,3.5,3.0,0.75,1.75,1.5,1.25,0.25,2.0,0.25,0.75,1.5,-1.36,-1.42,1.45,63.96,8.7,12.0,8.75,4.25,7.0,11.0,12.0,7.5,2.75,3.25,2.0,3.5,2.25,1.0,1.75,0.08,0.14,1.02,1160.41,-8.5,36.0
3.96,2.0,1.0,3.25,1.75,1.25,1.75,1.5,1.0,0.25,2.5,0.0,1.0,1.5,-0.73,-0.73,0.89,67.19,8.4,12.7,9.5,3.75,8.0,11.0,13.0,0.0,2.25,3.75,1.5,3.5,2.25,1.25,2.0,0.08,0.2,1.02,1171.1,-12.1,35.9
3.98,1.0,0.75,1.0,1.75,0.0,2.0,0.25,1.0,0.25,2.0,0.0,0.5,0.25,-0.3,-0.42,0.39,36.73,2.8,11.5,10.5,4.0,8.0,11.5,13.5,7.75,2.0,3.5,1.5,3.0,2.25,1.25,0.75,0.08,0.2,1.08,1228.08,-9.4,40.8
4.0,1.0,0.75,2.5,1.75,0.75,2.0,1.5,1.0,0.25,0.0,0.5,1.5,1.5,-0.17,-0.23,0.2,34.36,9.2,9.9,10.5,4.75,8.0,11.5,12.5,0.0,0.0,3.5,1.5,2.5,2.25,1.25,2.0,-0.05,0.27,1.14,1194.8,-12.9,40.2
4.02,1.0,1.0,3.0,1.5,0.75,2.0,1.25,1.25,0.0,0.5,0.0,1.25,1.5,-0.23,-0.11,0.39,55.44,8.6,14.3,11.5,5.25,8.25,12.5,12.0,7.25,1.5,3.25,1.0,0.0,2.25,1.25,2.0,0.33,0.33,1.45,1233.2,-11.3,45.9
4.04,0.75,0.5,2.5,1.75,0.75,2.0,1.25,1.25,0.25,1.0,0.75,1.25,1.5,-0.36,-0.11,0.77,97.69,6.5,1.0,11.5,5.75,8.25,11.5,12.5,7.25,1.5,3.25,1.0,1.0,1.75,1.25,1.75,0.33,0.39,1.58,1249.31,-10.8,45.9
4.06,1.25,0.5,2.5,1.75,1.25,2.0,1.5,1.25,0.25,0.0,0.25,1.0,1.5,-0.36,-0.11,1.02,141.23,8.6,16.2,11.0,4.5,8.25,11.0,11.0,6.75,1.5,3.25,0.75,0.0,1.5,1.0,1.5,0.45,0.58,2.02,1227.47,-11.7,48.2
4.08,0.75,0.75,2.5,1.0,0.75,1.75,1.5,1.25,0.25,0.0,0.25,0.75,1.5,-0.36,0.08,1.08,173.17,8.3,12.7,8.75,3.75,8.0,8.0,10.5,5.75,1.25,0.0,0.75,0.0,1.0,0.0,0.25,0.83,0.64,2.14,1074.21,-13.6,59.2
4.1,1.25,0.5,2.25,1.0,1.25,2.0,2.0,1.0,0.25,0.0,0.25,1.25,1.5,-0.48,0.2,1.27,193.49,8.5,11.9,7.75,2.5,6.5,5.5,8.0,5.75,1.0,0.0,0.25,2.0,0.25,0.25,0.25,1.02,0.89,2.64,869.41,-11.7,53.5
4.12,1.0,0.5,2.25,0.25,0.75,2.0,2.0,1.25,0.25,0.5,0.5,1.25,1.5,-0.55,0.33,1.52,184.38,6.6,-0.1,5.0,1.0,3.25,3.5,5.5,4.0,0.5,0.0,0.25,1.0,0.0,1.0,0.25,0.89,0.33,2.58,594.99,-10.1,48.0
4.14,1.75,0.5,2.5,0.75,0.75,2.0,2.0,1.0,0.25,0.0,0.5,1.5,1.5,-0.61,0.45,1.77,184.4,10.3,9.4,2.0,1.5,2.25,0.75,5.25,1.25,1.0,0.0,0.5,2.0,0.5,1.0,0.25,0.08,-0.3,0.95,370.44,-7.6,30.1
4.16,1.75,0.5,2.25,1.75,0.5,2.0,1.75,1.0,0.25,0.0,0.5,0.75,1.5,-0.86,0.77,2.2,189.77,10.4,17.6,2.0,1.75,1.25,3.25,5.25,1.0,1.0,1.5,0.75,2.75,1.25,1.25,1.25,0.02,-0.36,2.39,270.99,-4.7,13.9
4.18,1.5,1.0,2.25,2.0,0.75,2.0,2.0,1.0,0.25,0.25,0.75,0.75,1.75,-0.92,1.58,2.58,202.48,9.3,15.4,2.0,1.75,1.25,3.25,5.25,1.0,1.0,1.75,0.75,2.0,1.0,1.0,1.0,0.58,-1.23,2.89,222.6,-5.2,19.9
4.2,1.75,0.5,2.25,1.75,0.75,1.75,2.0,1.0,0.25,0.25,0.5,1.5,1.5,-0.61,2.7,3.02,209.44,10.4,10.1,1.5,1.5,0.75,3.25,5.0,0.0,0.75,0.0,0.25,0.5,0.0,0.0,1.25,1.27,-1.36,0.95,175.44,-8.2,43.4
4.22,2.0,0.5,2.25,1.75,0.75,2.0,2.0,1.0,0.25,0.0,0.5,1.25,1.5,0.14,3.77,2.02,217.29,10.7,15.3,0.0,0.75,0.25,1.0,1.75,0.0,0.25,0.25,0.25,0.25,0.0,0.25,0.25,0.7,-0.73,0.45,84.5,-5.1,31.2
4.24,1.25,0.25,2.25,0.5,0.75,0.75,2.0,0.25,0.0,0.0,0.0,0.25,1.5,1.33,5.52,0.83,190.06,14.7,22.7,0.0,0.75,0.0,1.0,1.75,0.0,0.25,0.25,0.25,0.5,0.0,0.5,0.25,0.14,-0.42,0.58,9.43,-2.9,19.0
4.26,1.25,0.5,0.25,1.25,0.0,1.25,1.25,1.0,0.5,0.0,0.0,0.75,0.25,2.45,7.83,-1.11,159.64,8.5,19.3,0.5,0.5,0.0,0.75,1.25,0.0,0.25,0.25,0.25,0.5,0.0,0.0,0.25,-0.36,-0.23,0.58,0.0,-4.9,29.9
4.28,1.25,0.5,2.25,1.75,0.75,0.0,1.5,1.5,0.5,2.75,1.5,3.0,3.25,-1.86,-1.73,3.14,183.06,6.1,-30.6,0.5,0.5,0.0,0.75,1.25,0.0,0.25,0.25,0.25,0.75,0.0,0.0,0.25,-0.36,-0.05,0.7,0.0,-3.9,24.5
4.3,1.0,0.5,2.25,0.0,0.75,0.0,1.5,3.25,0.25,3.5,1.75,3.25,4.0,0.39,0.39,0.33,223.57,1.5,-46.0,0.5,0.5,0.0,0.75,1.5,0.0,0.25,0.25,0.25,0.0,0.0,0.0,0.25,-0.11,-0.05,0.77,0.0,-6.8,43.6
4.32,0.5,0.0,0.0,3.0,0.0,3.0,0.75,2.25,1.0,4.5,0.5,5.75,6.25,1.14,0.2,2.2,288.16,-4.0,-55.3,0.5,0.0,0.0,0.75,1.25,0.0,0.25,0.25,0.25,0.5,0.0,0.0,0.25,0.02,-0.05,0.89,0.0,-4.0,21.2
4.34,1.25,0.0,1.0,3.25,2.5,3.5,1.0,4.0,2.0,5.5,2.5,6.75,8.0,0.2,0.89,2.2,401.15,-2.1,-44.1,0.5,0.25,0.0,0.75,2.25,0.0,0.25,0.25,0.25,1.0,0.0,0.25,0.25,0.08,0.02,1.2,1.75,-1.6,17.4
4.36,1.75,0.0,1.25,2.0,0.5,3.5,3.0,5.0,1.5,4.75,2.75,6.75,7.25,-0.05,-0.11,1.02,507.86,-1.1,-47.5,0.25,0.25,0.0,0.75,1.25,0.5,0.25,0.25,0.25,1.0,0.0,0.0,0.25,0.2,0.2,1.39,25.16,1.4,13.3
4.38,1.5,0.0,2.25,2.25,0.5,3.75,4.0,5.0,1.5,5.75,1.25,6.75,7.25,-0.11,0.02,0.95,585.43,-0.7,-43.1,0.5,0.25,0.0,0.75,1.25,1.0,0.25,0.25,0.25,0.75,0.0,0.0,0.25,0.39,0.33,1.58,41.62,1.0,22.7
4.4,2.75,0.0,2.25,3.75,0.5,6.0,4.0,5.5,2.5,7.5,3.0,6.75,7.75,-0.17,0.02,0.95,682.31,-0.4,-36.2,0.5,0.25,0.0,0.75,1.25,0.0,0.0,0.25,0.25,0.5,0.0,0.0,0.25,0.64,0.64,2.14,41.08,-3.7,25.8
4.42,2.5,0.0,3.75,3.0,2.25,4.25,5.25,6.75,2.0,7.75,4.5,8.0,8.75,-0.17,-0.05,0.95,801.85,0.8,-37.7,0.25,0.0,0.0,0.75,1.25,0.75,0.25,0.25,0.25,0.25,0.0,0.0,0.25,1.02,1.08,2.45,50.85,0.9,24.8
4.44,2.0,0.0,3.75,3.25,1.75,5.25,4.5,6.75,2.5,7.75,4.0,8.25,9.5,-0.17,-0.05,0.95,907.74,0.0,-39.5,0.5,0.0,0.0,0.75,1.25,0.75,0.25,0.25,0.25,0.5,0.0,0.0,0.25,1.45,1.89,2.77,63.15,0.0,23.1
4.46,1.0,0.0,3.75,3.25,3.5,5.25,4.5,6.75,2.5,7.75,3.75,8.0,9.5,-0.17,-0.05,0.95,986.98,-0.8,-38.0,0.0,0.0,0.0,0.75,1.25,1.0,0.25,0.25,0.25,0.0,0.0,0.0,0.25,1.58,2.7,2.45,69.86,3.3,27.3
4.48,1.0,0.25,3.75,3.25,3.5,5.75,4.5,7.0,2.5,7.75,3.75,7.75,8.75,-0.17,-0.05,0.95,1023.47,-0.8,-35.5,0.5,0.0,0.0,0.5,1.25,1.0,0.25,0.25,0.0,0.75,0.0,0.0,0.25,1.39,4.2,0.83,71.62,3.5,19.8
4.5,1.75,0.25,3.75,3.25,3.75,5.75,4.5,6.75,2.75,7.5,3.25,7.5,8.5,-0.17,-0.05,0.95,1008.57,-0.3,-32.3,0.5,0.0,0.0,0.75,1.5,1.0,0.0,0.25,0.0,0.5,0.0,0.0,0.25,-0.23,5.02,-0.8,74.77,2.6,28.4
4.52,2.0,0.25,3.75,3.25,4.5,6.0,4.5,7.0,2.75,7.5,4.75,7.25,8.5,-0.17,-0.05,0.95,992.02,-0.1,-31.0,0.5,0.0,0.0,0.5,1.0,0.75,0.25,0.25,0.0,0.75,0.0,0.0,0.25,-4.42,5.27,0.95,73.41,2.4,16.7
4.54,2.0,0.0,4.0,3.25,4.5,6.25,4.75,7.0,3.0,7.5,4.75,6.75,8.0,-0.11,-0.05,0.95,979.01,0.0,-29.5,0.5,0.0,0.5,0.5,4.75,0.5,0.5,0.25,0.0,1.75,0.0,0.0,0.25,-2.67,3.33,0.77,102.21,1.1,25.4
4.56,2.0,0.5,4.5,3.25,5.25,6.25,5.0,7.25,3.25,7.5,4.75,6.75,7.75,-0.11,-0.05,0.95,976.58,0.4,-26.2,0.0,0.75,0.0,0.5,1.25,0.5,0.0,1.0,0.0,4.0,1.0,1.5,0.5,1.77,-3.11,1.58,130.72,5.3,-38.7
4.58,2.0,0.5,4.5,3.25,5.25,6.75,5.25,7.25,3.5,6.5,4.25,5.75,7.25,-0.11,-0.05,0.95,956.4,0.5,-22.3,0.0,1.0,0.0,1.0,4.25,3.5,0.5,0.0,0.75,6.5,2.75,4.0,4.5,-0.92,0.33,-0.67,232.97,5.0,-38.5
4.6,2.0,0.75,4.5,3.25,5.25,7.25,5.25,7.25,3.5,6.25,4.0,5.0,7.0,-0.11,-0.05,0.95,945.23,0.4,-19.4,0.75,0.0,0.25,1.0,4.5,4.0,0.5,0.0,1.5,8.0,4.0,6.0,6.0,-0.23,0.58,7.14,346.19,3.8,-47.0
4.62,2.25,0.5,4.75,4.0,5.75,7.25,5.25,7.25,3.5,5.75,3.75,3.75,6.0,-0.11,-0.05,0.95,914.34,1.0,-13.0,1.5,0.75,0.5,2.0,4.75,5.5,1.5,5.5,2.75,8.5,6.5,6.5,8.0,0.08,0.52,1.33,569.25,3.3,-40.6
4.64,2.25,1.75,4.75,5.25,6.75,8.0,5.5,7.5,3.5,5.25,3.5,3.5,5.25,-0.17,-0.05,0.95,912.69,1.5,-4.9,3.0,1.5,2.75,3.25,5.75,6.25,2.25,5.5,3.0,8.5,7.25,6.5,7.5,0.08,0.02,0.95,805.63,0.0,-26.8
4.66,3.5,1.75,4.75,5.75,8.0,8.5,6.0,7.5,3.75,4.75,2.75,3.0,3.75,-0.17,-0.05,0.95,933.37,2.4,4.0,3.25,1.75,3.0,3.25,5.75,6.5,2.25,6.0,3.25,8.5,7.0,5.75,7.75,0.33,0.02,0.95,1008.03,0.0,-24.5
4.68,3.75,1.75,4.75,7.0,9.0,9.0,6.25,7.5,4.0,4.75,2.75,2.75,3.5,-0.11,-0.05,0.95,988.99,2.7,7.3,3.25,1.75,3.0,3.25,6.5,7.25,2.25,6.25,3.25,8.0,6.5,5.25,7.5,0.08,0.02,0.95,1127.07,0.3,-21.1
4.7,3.75,1.75,5.0,7.0,9.25,9.25,6.5,7.5,3.75,4.75,2.75,2.0,3.5,-0.17,-0.05,0.95,1035.0,2.7,9.4,3.25,1.75,2.75,3.5,6.75,7.75,2.25,6.25,3.25,7.75,5.5,4.0,6.25,0.2,0.02,0.95,1166.18,0.6,-15.5
4.72,4.5,2.0,5.75,8.75,11.5,9.75,6.75,7.5,4.0,4.25,2.75,2.0,3.5,-0.17,-0.05,0.95,1124.31,3.6,14.6,3.75,2.0,3.0,3.5,6.75,8.0,2.5,6.0,3.25,6.75,5.5,3.75,5.75,0.27,0.08,0.95,1159.94,-0.1,-11.2
4.74,5.5,2.25,6.25,10.0,12.5,9.75,7.25,7.5,4.0,4.0,2.75,2.0,2.75,-0.17,-0.05,1.08,1222.99,4.7,19.3,3.75,2.0,3.25,3.75,7.75,8.0,2.5,6.0,3.5,6.5,4.75,2.5,5.25,0.2,0.08,0.95,1131.23,-0.2,-5.4
4.76,5.75,3.0,6.25,11.5,13.0,10.5,7.5,7.5,3.75,4.25,2.75,2.0,3.0,-0.17,-0.05,1.08,1332.61,4.7,20.9,4.0,2.25,3.0,3.5,8.25,8.25,2.5,5.75,3.25,5.5,4.5,2.5,3.75,0.14,0.02,1.02,1084.52,-0.7,0.3
4.78,6.5,3.25,7.75,13.0,14.5,10.5,7.5,7.5,3.5,2.75,2.0,1.75,2.75,-0.17,-0.05,1.08,1420.67,6.1,27.6,4.75,2.25,2.75,3.5,8.25,8.25,2.25,5.5,2.75,4.75,3.5,1.25,3.0,0.14,0.02,0.95,1002.62,-1.0,8.5
4.8,7.75,3.5,7.75,14.0,14.5,10.5,6.75,7.25,2.75,2.75,1.25,2.0,3.0,-0.23,0.02,1.2,1491.31,6.4,30.1,5.5,2.25,2.25,3.5,8.25,8.0,2.25,4.75,2.75,4.75,2.75,1.25,2.25,0.2,0.08,0.95,912.44,-1.5,12.8
4.82,8.75,3.5,7.75,13.5,15.5,10.0,5.75,7.25,2.0,2.75,1.25,2.0,2.25,-0.23,0.14,1.39,1531.63,6.7,33.0,5.5,2.25,2.5,3.75,8.5,7.75,2.0,4.5,2.0,4.5,2.25,1.25,2.25,0.2,0.08,0.95,817.97,-1.7,15.8
4.84,10.0,3.5,8.0,13.0,14.5,9.75,5.0,6.75,1.75,2.75,2.25,2.0,2.25,-0.61,0.08,1.95,1543.2,7.5,32.9,5.75,2.25,2.75,3.5,8.75,7.75,1.75,4.0,2.0,3.75,2.25,1.25,2.0,0.27,0.02,1.02,749.59,-2.5,19.1
4.86,10.5,3.5,8.75,11.5,13.5,8.25,5.25,6.25,1.5,2.75,1.5,1.75,1.75,-0.67,0.33,2.58,1510.13,8.8,35.9,6.0,2.5,3.25,4.0,8.75,7.75,1.5,3.25,1.75,3.5,2.25,1.25,2.0,0.2,0.08,0.95,705.9,-3.5,22.5
4.88,10.5,3.5,8.0,7.5,11.5,7.25,5.75,5.5,1.0,2.5,1.25,1.75,1.5,-0.92,0.58,3.52,1407.0,9.3,36.4,6.75,0.75,4.25,4.0,9.0,7.75,1.25,3.25,1.5,3.5,1.75,1.25,1.25,0.14,0.14,0.89,682.83,-4.4,25.2
4.9,7.75,1.75,6.25,5.25,7.75,4.25,4.5,3.5,1.0,0.75,1.25,1.75,1.5,-0.86,0.33,3.33,1143.89,11.2,34.7,7.0,1.0,4.0,4.75,9.0,7.75,1.0,3.25,1.5,3.25,1.75,1.25,1.75,0.08,0.14,0.89,681.96,-4.5,25.4
4.92,2.75,0.25,2.75,1.75,0.5,1.0,2.0,1.0,0.25,0.0,0.0,0.25,0.75,-0.8,-0.36,2.33,656.09,17.8,39.6,7.0,1.25,2.75,5.0,9.25,7.75,1.0,3.25,1.25,3.25,1.25,1.0,1.25,0.2,0.2,0.83,673.43,-3.7,28.8
4.94,2.0,0.75,0.0,1.75,0.75,1.0,0.25,0.0,1.0,1.0,0.0,1.75,1.5,-0.42,-0.23,0.52,321.16,6.5,-2.3,8.0,2.5,3.0,5.5,9.25,7.5,1.0,2.5,1.0,2.25,1.25,0.0,0.0,0.02,0.14,1.02,668.8,-6.2,43.9
4.96,2.25,0.75,3.0,2.5,0.75,1.75,0.25,1.0,0.25,0.5,0.5,1.5,1.75,-0.42,-1.61,3.58,155.24,10.8,14.5,8.0,2.5,3.25,5.5,9.5,7.25,0.5,2.0,1.25,2.75,1.25,1.0,0.5,0.08,0.2,1.08,672.09,-6.2,38.3
4.98,2.0,0.75,3.75,3.0,0.75,1.75,0.5,0.25,0.25,0.5,1.25,1.5,1.5,-1.48,-1.67,1.7,72.16,13.6,17.2,8.5,3.25,3.0,5.5,9.5,6.5,0.5,2.0,1.25,2.5,0.0,0.0,0.75,0.2,0.2,1.2,671.96,-6.8,46.2
5.0,2.0,0.75,3.5,1.75,0.75,1.75,1.5,1.0,0.25,2.0,0.5,1.5,1.5,-1.05,-0.67,-0.05,52.06,9.9,7.6,8.75,3.0,1.75,5.5,8.25,6.25,0.0,1.5,0.75,2.0,0.75,0.0,0.25,0.27,0.2,1.27,645.59,-7.1,49.1
5.02,2.0,0.5,3.75,1.75,0.75,2.25,1.5,1.25,0.0,2.5,0.25,1.75,1.5,-0.36,-0.42,-0.17,70.97,8.3,5.1,8.5,2.5,2.75,4.5,8.25,6.25,0.25,1.25,0.75,2.25,1.25,1.0,1.0,0.33,0.33,1.33,627.22,-7.2,39.7
5.04,2.0,0.5,3.75,1.75,0.5,1.75,1.5,1.0,0.0,2.5,0.25,1.25,1.5,0.14,-0.23,0.2,81.97,9.7,7.4,7.0,1.5,0.5,3.25,7.25,0.5,0.0,0.5,0.0,1.0,1.25,0.25,0.5,0.33,0.39,1.45,504.77,-11.1,49.9
5.06,2.0,0.5,3.25,1.75,0.75,1.75,0.5,1.25,0.0,2.0,0.25,0.5,1.5,0.33,-0.23,1.02,87.3,8.3,13.3,5.75,1.5,0.0,3.0,5.25,0.0,0.0,0.0,0.25,1.0,0.0,0.25,0.0,0.14,0.39,1.45,373.46,-13.0,60.8
5.08,2.0,0.5,3.0,2.75,0.5,1.75,1.0,1.25,0.25,2.5,0.5,1.25,1.5,0.27,-0.05,0.89,117.1,8.3,5.4,5.25,0.75,0.0,1.5,5.0,0.0,0.0,0.25,0.25,0.25,0.0,0.0,0.25,-0.05,0.33,1.2,265.63,-12.8,63.4
5.1,2.0,0.5,3.0,1.75,0.75,1.75,1.0,1.25,0.25,2.0,0.75,0.75,1.5,0.02,0.14,0.39,149.97,8.3,7.6,3.25,0.75,0.0,1.0,3.0,0.0,0.0,0.25,0.25,0.0,0.0,0.0,0.25,-0.17,0.27,0.89,173.67,-12.9,63.0
5.12,2.0,0.75,3.0,1.5,0.75,1.75,1.5,1.25,0.25,1.25,1.0,1.5,1.5,-0.17,0.14,0.45,189.95,9.7,5.9,2.0,0.5,0.0,1.0,3.0,0.0,0.0,0.25,0.25,0.0,0.0,0.0,0.0,-0.3,0.33,0.89,92.45,-10.4,62.3
5.14,2.0,0.5,2.5,1.75,0.75,1.75,1.5,1.25,0.25,1.5,0.75,0.75,1.5,-0.3,0.14,0.64,219.83,8.4,8.8,0.75,0.75,0.0,1.0,1.5,0.0,0.0,0.25,0.25,0.0,0.0,0.0,0.0,-0.55,0.33,0.83,25.77,-9.5,58.7
5.16,2.0,0.5,2.25,1.5,0.75,1.75,1.0,1.0,0.25,1.5,0.5,0.5,1.5,-0.36,0.33,0.95,233.03,7.8,10.9,0.75,0.5,0.0,0.5,1.25,1.0,0.0,0.25,0.25,0.25,0.0,0.0,0.25,-1.05,0.45,0.7,0.0,-0.9,37.6
5.18,0.5,0.25,3.0,1.25,0.5,0.5,1.5,1.0,0.25,0.0,0.0,0.25,1.25,-0.3,4.52,1.58,199.2,14.6,19.1,0.5,0.5,0.0,0.0,1.5,0.0,0.0,0.25,0.0,0.5,0.0,0.0,0.25,-0.61,0.83,0.83,0.0,-0.4,30.5
5.2,0.5,0.25,2.25,1.5,0.5,0.25,0.25,1.0,0.25,0.0,0.0,0.25,1.25,-0.48,2.45,1.2,160.17,12.3,15.4,0.5,0.5,0.0,0.75,1.25,0.25,0.0,0.25,0.25,0.5,0.0,0.0,0.25,-0.36,0.7,0.95,0.0,-2.8,30.2
5.22,2.0,0.25,2.25,1.75,0.0,2.0,2.75,2.25,0.5,1.25,0.0,1.5,1.25,-0.61,5.83,1.58,166.4,8.1,3.0,0.5,0.5,0.0,0.0,1.0,0.0,0.0,0.0,0.25,0.25,0.0,0.0,0.25,-0.55,0.83,0.95,0.0,-5.0,35.2
5.24,2.0,0.75,0.0,2.25,1.25,3.25,2.75,3.0,1.0,0.25,0.0,0.25,2.25,-0.23,7.95,1.39,189.77,0.6,9.0,0.5,0.5,0.0,0.5,1.25,0.0,0.0,0.25,0.0,0.5,0.0,0.25,0.25,-0.48,1.27,0.77,0.0,-3.2,24.0
5.26,0.25,0.5,1.75,3.25,0.75,4.5,3.75,3.0,1.0,2.5,1.25,0.75,1.5,0.45,-0.17,0.83,238.0,0.9,-2.8,0.5,0.25,0.0,0.0,1.25,0.0,0.0,0.25,0.0,0.5,0.0,0.0,0.0,-0.3,1.52,0.7,0.0,-0.9,34.6
5.28,2.75,1.0,4.75,5.0,4.75,4.5,4.75,3.5,1.0,0.5,1.25,1.75,1.5,0.45,0.14,1.08,328.94,8.2,22.5,0.5,0.25,0.0,0.5,1.25,0.0,0.0,0.0,0.25,0.5,0.25,0.25,0.25,-0.11,1.58,0.27,16.38,-4.8,13.8
5.3,2.25,1.75,4.75,5.75,7.25,6.5,5.0,3.75,1.5,2.5,1.25,1.75,2.0,-0.11,0.08,1.02,474.7,4.7,19.2,0.5,0.25,0.0,0.75,1.25,0.0,0.0,0.25,0.0,0.75,0.25,0.0,0.25,0.02,1.33,-1.48,34.05,-2.5,18.2
5.32,3.75,1.75,5.25,7.0,7.5,7.25,5.0,4.25,1.5,2.5,1.25,1.75,1.5,-0.23,0.2,0.95,641.95,5.8,24.1,0.5,0.25,0.0,0.75,1.5,1.0,0.0,0.0,0.0,0.5,0.0,0.0,0.25,-0.73,1.27,-0.42,53.59,1.1,35.5
5.34,3.75,1.75,6.25,8.75,8.5,7.25,5.0,4.75,1.5,2.5,1.25,1.75,1.5,-0.3,0.27,1.14,806.88,6.4,26.0,0.5,0.0,0.0,0.5,1.25,0.0,0.0,0.0,0.0,0.5,0.0,0.0,0.25,-2.55,0.95,0.77,57.95,-2.8,27.3
5.36,4.75,1.75,6.25,8.75,9.0,7.5,4.25,4.75,1.5,2.5,1.25,1.75,1.5,-0.3,0.14,1.14,933.16,6.5,27.6,0.5,0.25,0.0,0.5,1.75,0.75,0.0,0.0,0.0,0.25,0.0,0.0,0.25,-2.67,0.95,1.08,65.54,0.3,41.6
5.38,5.5,2.0,6.25,9.0,9.5,7.25,4.0,5.0,1.5,2.5,1.25,1.75,1.5,-0.55,0.33,1.14,1023.24,6.8,28.9,0.5,0.0,0.0,0.5,1.25,1.0,0.0,0.0,0.0,0.5,0.0,0.0,0.25,-2.11,0.89,1.02,66.99,2.9,28.8
5.4,6.0,2.25,6.25,8.75,9.25,7.25,4.5,4.25,1.5,2.5,1.25,1.75,1.5,-0.8,0.52,1.14,1071.34,7.5,30.4,0.5,0.5,0.0,0.5,1.25,1.0,0.0,0.25,0.0,0.25,0.0,0.0,0.25,-1.98,0.33,1.52,71.79,1.3,38.6
5.42,6.25,2.75,6.25,7.0,9.0,6.25,5.0,3.25,1.25,2.5,1.25,1.75,1.5,-1.23,1.14,0.83,1067.6,8.5,31.8,0.5,0.25,0.0,0.5,1.5,1.0,0.25,0.0,0.0,0.5,0.0,0.0,0.25,-1.86,0.2,1.64,76.05,1.2,34.0
5.44,5.5,2.0,6.0,5.5,7.75,6.0,4.75,3.25,1.0,2.5,1.25,1.5,1.5,-1.61,2.14,0.45,988.67,8.0,29.2,0.5,0.25,0.0,0.5,1.25,1.0,0.0,0.25,0.0,0.5,0.0,0.0,0.0,-1.61,0.27,1.64,77.75,2.2,37.2
5.46,3.75,1.75,4.75,3.25,5.75,0.0,3.5,3.0,1.0,0.75,0.75,1.75,1.5,-3.55,3.02,-0.73,780.25,12.2,25.8,0.5,0.25,0.0,0.0,1.25,1.0,0.0,0.0,0.0,0.5,0.0,0.0,0.0,-1.61,0.33,1.52,73.76,4.0,39.5
5.48,2.0,0.25,3.75,1.5,2.25,0.5,1.5,1.0,0.5,0.0,1.0,1.5,1.5,-4.17,2.27,0.64,518.75,14.1,14.5,0.5,0.25,0.0,0.0,1.25,1.0,0.0,0.0,0.0,0.5,0.0,0.0,0.0,-1.48,0.2,1.2,67.63,4.0,39.5
5.5,0.75,0.25,3.5,1.5,1.25,0.25,0.5,1.0,0.75,0.0,0.5,1.5,1.25,0.14,0.89,3.83,310.04,14.0,6.7,0.5,0.0,0.0,0.25,1.25,1.0,0.0,0.0,0.0,0.25,0.0,0.0,0.0,-0.98,0.02,0.83,62.28,2.8,44.9
5.52,0.75,0.25,3.75,2.5,0.75,2.0,0.25,0.0,0.5,1.75,0.0,1.75,1.5,0.83,0.58,2.33,203.74,9.5,5.2,0.5,0.0,0.0,0.0,1.25,1.0,0.0,0.25,0.0,0.5,0.0,0.0,0.0,-0.23,-0.11,0.52,58.38,6.1,29.8
5.54,2.0,0.5,3.0,2.75,1.25,0.5,1.75,1.0,0.25,0.5,1.0,1.75,1.5,0.83,1.52,1.52,146.96,13.7,10.8,0.5,0.25,0.0,0.5,1.25,1.0,0.0,0.25,0.0,0.25,0.0,0.0,0.25,0.14,-0.36,0.45,61.7,2.1,35.0
5.56,2.0,0.5,3.0,2.0,0.75,2.0,1.5,1.0,0.25,1.0,0.5,1.75,1.5,-0.11,2.02,1.7,131.97,10.1,8.9,0.5,0.0,0.0,0.25,1.25,1.0,0.0,0.0,0.0,0.25,0.0,0.0,0.25,0.33,-0.55,0.52,61.83,3.5,33.9
5.58,0.25,0.25,2.5,0.0,0.75,0.0,1.5,1.0,0.25,0.0,0.5,1.75,1.5,0.2,1.77,2.08,94.41,12.0,-18.0,1.25,1.5,0.25,1.0,3.25,2.25,0.5,1.0,0.25,2.0,1.25,1.0,1.5,0.52,-0.67,0.58,130.63,0.5,3.1
5.6,2.0,0.5,3.0,0.0,1.25,0.25,1.5,1.25,0.0,0.0,0.5,0.0,1.5,-0.67,1.08,0.08,74.2,14.9,24.4,1.0,1.5,0.25,1.0,3.0,2.25,0.5,0.75,0.25,2.0,1.25,1.0,1.25,0.77,-0.8,0.52,181.38,0.5,3.3
5.62,0.25,0.25,1.5,0.0,0.5,0.5,1.5,0.5,0.0,0.0,0.0,0.25,0.5,-1.36,0.77,-1.36,24.31,13.3,20.9,1.5,1.5,0.25,1.0,3.75,2.25,0.5,1.0,0.25,2.0,1.25,1.0,1.25,0.89,-0.98,0.39,233.19,0.0,7.7
5.64,0.25,0.25,1.5,0.0,0.0,0.5,1.5,0.75,0.0,0.0,0.0,0.25,0.5,-1.3,0.39,-1.11,0.19,13.8,13.7,1.25,1.5,0.75,1.0,3.25,2.25,0.5,1.25,0.25,2.0,1.25,1.0,1.25,0.83,-1.05,0.27,257.56,-0.5,5.9
5.66,0.25,0.25,1.5,0.5,0.0,0.5,1.5,0.75,0.0,0.0,0.0,0.25,0.5,-1.17,-0.05,-0.23,0.0,14.1,18.1,1.25,1.5,0.75,1.0,3.25,2.25,0.5,1.25,0.25,2.0,1.25,1.0,1.25,0.7,-1.05,0.27,272.48,-0.5,5.9
5.68,0.25,0.25,0.75,0.75,0.0,0.5,0.25,0.0,0.0,0.0,0.0,0.25,0.25,-1.73,0.02,-0.23,1.14,14.7,33.2,1.25,1.5,1.5,1.0,2.5,2.25,0.25,1.0,0.5,2.25,1.25,0.5,1.25,0.58,-1.05,0.14,273.28,-2.1,8.0
5.7,0.25,0.25,1.0,0.5,0.0,0.5,1.5,0.0,0.0,0.0,0.0,0.25,0.25,-2.23,0.14,-0.36,17.27,18.9,32.5,1.5,1.5,0.25,1.0,2.25,2.25,0.5,1.25,0.25,2.0,1.25,1.5,1.25,0.45,-0.98,0.08,270.72,-0.3,-1.2
5.72,0.25,0.25,0.5,0.5,0.0,0.75,0.25,0.75,0.0,0.0,0.0,0.25,0.25,-2.36,0.58,-0.61,24.91,3.8,14.6,1.5,1.5,0.25,1.0,1.5,2.0,0.5,1.0,0.25,2.25,1.25,1.0,1.25,0.45,-0.92,0.02,260.61,-0.6,-1.9
5.74,0.25,0.25,1.0,0.0,0.0,0.75,1.25,0.0,0.0,0.0,0.0,0.25,0.5,-1.67,0.58,-0.48,25.63,13.7,18.8,1.25,1.5,0.5,1.0,2.25,2.25,0.5,1.25,0.25,2.0,1.25,1.0,1.25,0.45,-0.86,-0.05,253.43,-0.2,1.6
5.76,0.0,0.0,0.25,0.0,0.0,0.0,0.5,0.0,0.0,0.0,0.0,0.25,0.5,-1.05,0.27,0.02,9.2,10.1,-48.8,1.0,1.5,0.5,1.0,2.75,2.0,0.5,1.0,0.25,2.0,1.25,1.0,1.25,0.45,-0.8,-0.11,245.89,-0.1,2.2
5.78,0.25,0.25,0.5,0.0,0.0,0.5,0.25,0.0,0.0,0.0,0.0,0.25,0.5,-0.67,-0.11,0.02,7.71,8.2,6.4,1.25,1.5,0.75,1.0,2.5,2.25,0.5,1.0,0.25,2.0,1.25,1.0,1.25,0.39,-0.73,-0.17,241.9,-1.0,4.0
5.8,0.0,0.25,0.0,0.0,0.0,0.75,0.25,0.25,0.0,0.0,0.0,0.25,0.5,-0.42,-0.42,0.02,7.77,-8.6,-19.3,1.0,1.5,0.0,1.0,3.5,1.75,0.5,1.0,0.25,2.0,1.25,1.0,1.5,0.39,-0.67,-0.23,236.21,1.0,0.9
5.82,0.25,0.25,0.0,0.0,0.0,0.75,0.25,0.25,0.0,0.0,0.0,0.25,0.75,-0.23,-0.67,-0.11,18.1,-5.2,-17.7,1.25,1.5,0.25,1.0,2.75,2.25,0.5,1.25,0.25,2.25,1.25,1.0,1.25,0.33,-0.67,-0.23,230.13,0.7,1.3
5.84,0.25,0.5,0.25,0.25,0.0,1.75,0.25,0.75,0.0,0.0,0.0,0.25,0.5,-0.17,-0.73,-0.17,34.03,-4.9,11.2,1.25,1.5,0.25,1.0,2.75,2.25,0.5,1.0,0.25,2.0,1.25,1.25,1.25,0.14,-0.61,-0.17,230.52,0.1,1.4
5.86,1.25,0.5,1.25,1.0,0.5,1.75,0.5,1.25,0.25,0.0,0.25,0.25,1.5,-0.3,-0.8,-0.3,83.65,4.8,12.4,1.25,1.5,0.25,1.0,3.0,2.0,0.5,1.0,0.25,2.0,1.25,1.0,1.25,0.02,-0.61,0.02,229.58,0.0,3.6
5.88,0.25,0.25,2.25,0.0,0.5,1.0,0.25,0.5,0.0,0.0,0.0,0.25,1.0,-0.36,-0.73,-0.42,101.51,9.6,15.4,1.0,1.5,0.5,1.0,3.0,2.25,0.5,1.0,0.25,2.0,1.25,1.0,1.25,-0.17,-0.61,0.14,230.64,0.2,3.6
5.9,1.25,0.5,2.25,1.0,0.5,1.75,1.5,1.0,0.25,0.0,0.25,0.25,1.5,-0.42,-0.61,-0.42,139.1,9.5,18.6,1.0,1.5,0.0,1.0,1.75,1.5,0.5,1.0,0.25,2.0,1.25,1.0,1.25,-0.23,-0.61,0.27,219.99,0.1,-5.2
5.92,0.5,0.0,0.0,0.0,0.0,0.5,0.0,0.5,0.0,0.0,0.0,0.25,0.25,-0.48,-0.42,-0.42,115.48,-2.1,-6.7,1.25,1.5,0.25,1.0,2.75,1.25,0.5,1.0,0.25,2.25,1.25,1.0,1.25,-0.3,-0.67,0.52,217.81,-0.8,0.0
5.94,0.25,0.25,1.0,0.25,0.0,0.5,0.25,0.5,0.0,0.0,0.0,0.25,0.5,-0.48,-0.3,-0.36,99.87,9.6,11.6,1.0,1.5,0.25,1.0,1.75,2.0,0.5,1.0,0.25,2.0,1.25,1.0,1.5,-0.36,-0.67,0.83,212.22,0.4,-4.6
5.96,0.25,0.25,0.75,0.25,0.0,0.5,0.25,0.25,0.0,0.0,0.0,0.25,0.5,-0.42,-0.23,-0.36,71.39,9.4,11.6,1.25,1.5,0.5,1.0,2.5,1.5,0.5,1.0,0.25,2.0,1.25,1.0,1.25,-0.36,-0.67,0.89,214.26,-1.4,1.7
5.98,1.25,0.5,1.0,1.75,0.0,1.75,0.25,0.25,0.25,1.0,0.0,1.0,0.5,-0.42,-0.11,-0.3,95.19,7.4,14.3,1.0,1.5,1.0,1.0,2.25,2.0,0.5,1.0,0.25,2.0,1.25,1.0,1.25,-0.36,-0.55,0.95,216.05,-1.5,2.3
6.0,0.25,0.25,0.5,0.0,0.0,0.5,0.25,0.25,0.0,0.0,0.0,0.25,0.5,-0.36,-0.11,-0.3,81.56,5.8,2.1,1.0,1.5,0.25,1.0,2.75,1.25,0.25,1.0,0.25,2.0,1.25,1.0,1.25,-0.48,-0.36,0.95,216.16,-0.3,-0.4
6.02,0.25,0.25,1.0,0.25,0.0,0.5,0.25,0.5,0.0,0.0,0.0,0.25,0.0,-0.3,-0.17,-0.3,77.12,13.5,31.7,1.0,1.5,0.25,1.0,1.75,1.0,0.5,1.0,0.25,2.0,1.25,0.75,1.5,-0.55,-0.3,0.95,208.19,-0.9,-5.4
6.04,0.0,0.25,1.0,0.25,0.0,0.5,0.25,0.25,0.0,0.0,0.0,0.25,0.25,-0.3,-0.23,-0.36,58.57,11.9,19.8,1.0,1.5,0.25,1.0,1.75,1.0,0.25,1.25,0.25,2.0,1.25,1.0,1.25,-0.42,-0.23,0.89,200.73,-0.7,-6.2
6.06,0.25,0.25,1.0,0.25,0.0,0.5,0.25,0.0,0.0,0.0,0.0,0.25,0.0,-0.23,-0.36,-0.3,45.21,19.3,45.1,1.0,1.5,0.0,1.0,2.75,1.0,0.5,1.0,0.25,2.0,1.25,1.0,1.25,-0.17,-0.3,0.77,198.79,-0.3,-1.8
6.08,0.25,0.0,1.0,0.5,0.0,0.0,0.5,0.0,0.0,0.0,0.0,0.25,0.25,-0.17,-0.36,-0.23,32.04,24.9,26.4,1.0,1.5,0.5,1.25,2.5,1.0,0.5,1.0,0.25,2.0,1.25,1.0,1.25,-0.05,-0.48,0.7,202.18,-1.9,0.2
6.1,0.25,0.25,0.0,0.25,0.0,0.75,0.25,0.0,0.0,0.0,0.0,0.25,0.0,-0.11,-0.48,-0.17,24.93,3.1,34.7,1.5,1.5,1.75,1.0,2.75,1.25,0.5,0.75,0.25,2.0,1.25,1.0,1.25,0.02,-0.61,0.77,215.8,-5.2,8.6
6.12,0.25,0.25,0.5,0.5,0.0,0.75,0.25,0.25,0.0,0.0,0.0,0.25,0.0,-0.11,-0.48,-0.11,30.69,9.0,35.2,1.25,1.5,0.25,1.0,2.5,1.5,0.5,0.75,0.25,2.0,1.25,0.75,1.25,0.02,-0.8,0.89,218.57,-1.0,3.3
6.14,0.25,0.25,0.75,0.25,0.0,0.5,0.25,0.25,0.0,0.0,0.0,0.25,0.5,0.02,-0.48,-0.05,33.03,9.4,11.6,1.25,1.5,0.5,1.0,1.75,1.5,0.5,1.25,0.25,2.0,1.25,1.0,1.25,0.02,-1.05,1.08,219.83,-1.4,-1.8
6.16,0.25,0.25,0.75,0.25,0.0,0.5,0.25,0.25,0.0,0.0,0.0,0.25,0.0,0.02,-0.48,-0.05,42.04,13.9,35.5,1.5,1.5,0.5,1.0,2.5,1.75,0.5,1.0,0.25,2.5,1.25,0.75,1.25,-0.11,-1.11,1.33,220.93,-0.9,2.9
6.18,0.0,0.25,0.75,0.25,0.0,0.75,0.25,0.25,0.0,0.0,0.0,0.25,0.25,-0.11,-0.61,0.02,41.24,6.7,17.3,1.0,1.5,0.25,1.0,2.5,1.75,0.5,1.0,0.25,2.25,1.25,1.0,1.25,-0.11,-1.23,1.39,221.52,0.2,-1.3
6.2,0.0,0.25,0.75,0.5,0.5,0.75,0.25,0.25,0.0,0.0,0.0,0.25,0.25,-0.17,-0.67,0.14,46.51,5.9,25.8,1.0,1.5,0.25,1.0,2.75,1.75,0.5,1.0,0.25,2.0,1.25,1.0,1.25,0.02,-1.23,1.2,222.05,0.0,0.8
6.22,0.25,0.25,0.75,0.25,0.5,0.5,0.25,0.25,0.0,0.0,0.0,0.25,0.25,-0.17,-0.73,0.27,49.02,9.0,27.7,1.25,1.5,0.25,1.0,2.75,2.0,0.5,1.0,0.25,2.0,1.25,1.25,1.25,0.14,-1.23,1.02,225.75,-0.2,1.0
6.24,0.0,0.0,0.25,0.25,0.0,1.5,0.25,0.0,0.0,0.0,0.0,0.25,0.25,-0.17,-0.8,0.33,52.67,-6.0,10.4,1.25,1.5,0.25,1.0,2.25,2.0,0.5,1.0,0.25,2.0,1.25,1.0,1.25,-0.05,-1.23,1.02,226.32,-0.2,0.8
6.26,0.25,0.25,0.75,0.25,0.0,0.5,0.25,0.25,0.0,0.0,0.0,0.25,0.25,-0.3,-0.86,0.39,50.79,11.5,22.5,1.0,1.5,0.5,1.0,2.5,2.0,0.5,1.0,0.25,2.0,1.25,1.0,1.25,-0.17,-1.17,1.08,226.31,-0.2,1.3
6.28,0.25,0.25,0.5,0.25,0.5,0.5,0.25,0.25,0.0,0.0,0.0,0.25,0.25,-0.42,-0.92,0.39,50.85,6.6,25.0,1.25,1.5,0.75,1.0,2.5,2.0,0.5,1.0,0.25,2.0,1.25,1.0,1.25,-0.17,-1.05,1.02,227.24,-1.3,3.6
6.3,0.25,0.25,0.75,0.25,0.0,0.5,0.25,0.25,0.0,0.0,0.0,0.25,0.25,-0.61,-1.11,0.33,49.99,11.5,22.5,1.25,1.5,1.0,1.0,3.0,1.75,0.5,1.0,0.25,1.75,1.25,0.75,1.25,-0.17,-0.86,0.83,229.58,-2.2,8.8
6.32,0.25,0.25,0.25,0.5,0.0,0.75,0.25,0.25,0.0,0.0,0.0,0.25,0.25,-0.67,-1.11,0.27,49.49,4.3,19.8,1.25,1.5,0.25,1.0,2.25,1.5,0.5,1.0,0.25,2.0,1.25,1.0,1.25,-0.17,-0.73,0.77,224.79,-0.9,-0.2
6.34,0.0,0.25,1.0,0.25,0.0,0.75,0.25,0.25,0.0,0.0,0.0,0.25,0.5,-0.73,-1.17,0.27,51.53,7.6,11.0,1.0,1.5,0.25,1.0,2.5,2.0,0.5,1.0,0.25,2.0,1.25,1.0,1.25,-0.11,-0.61,0.64,222.51,0.3,0.3
6.36,0.25,0.25,0.75,0.25,0.0,0.75,0.25,0.5,0.0,0.0,0.0,0.25,0.25,-0.73,-1.17,0.39,52.32,6.9,18.7,1.25,1.5,0.25,1.0,2.75,1.75,0.5,1.0,0.25,2.0,1.25,1.0,1.25,-0.11,-0.48,0.7,222.32,-0.4,2.2
6.38,0.25,0.25,0.75,0.25,0.0,0.75,0.25,0.25,0.0,0.0,0.0,0.25,0.25,-0.67,-1.23,0.45,52.68,8.8,23.4,1.25,1.5,0.5,1.0,3.0,2.0,0.5,1.0,0.25,2.0,1.25,1.0,1.25,-0.11,-0.3,0.7,225.7,-0.6,4.5
6.4,0.25,0.25,0.25,0.25,0.0,0.5,0.25,0.0,0.0,0.25,0.0,0.25,0.25,-0.67,-1.36,0.39,48.31,5.7,10.2,1.0,1.5,0.0,1.0,3.25,1.5,0.5,1.0,0.0,2.0,1.25,1.0,1.25,0.02,-0.17,0.52,223.86,0.6,1.9
6.42,0.25,0.25,0.5,0.25,0.0,0.75,0.25,0.25,0.0,0.0,0.0,0.25,0.25,-0.61,-1.42,0.39,46.24,6.2,20.0,1.0,1.5,0.25,1.0,1.5,1.75,0.5,1.0,0.25,2.0,1.25,1.5,1.25,0.14,-0.17,0.39,219.25,-0.5,-8.1
6.44,0.25,0.25,0.25,0.25,0.0,0.75,0.25,0.25,0.0,0.0,0.0,0.25,0.5,-0.61,-1.36,0.39,43.9,1.5,4.5,1.0,1.5,0.25,1.0,2.25,2.25,0.5,1.0,0.25,3.0,1.25,1.0,1.25,0.2,-0.23,0.2,220.21,1.5,-4.7
6.46,0.0,0.25,0.25,0.25,0.0,0.5,0.25,0.0,0.0,0.0,0.0,0.25,0.0,-0.48,-1.3,0.33,38.2,7.9,29.9,1.5,1.5,0.25,0.75,1.5,2.25,0.5,1.0,0.25,2.0,1.25,0.75,1.25,0.2,-0.42,0.33,214.6,-0.1,0.6
6.48,0.0,0.25,0.25,0.25,0.0,0.75,0.5,0.25,0.0,0.0,0.0,0.25,0.0,-0.42,-1.05,0.2,36.12,3.2,22.5,1.0,1.5,0.25,1.0,1.75,2.0,0.5,1.0,0.25,2.0,1.25,1.0,1.25,0.14,-0.61,0.39,212.08,0.2,-2.8
6.5,0.25,0.25,0.25,0.5,0.0,1.0,0.75,0.0,0.0,0.0,0.0,0.25,0.0,-0.36,-0.86,0.14,37.45,7.9,38.6,1.0,1.5,0.5,1.0,2.5,2.0,0.5,1.0,0.25,2.0,1.25,1.0,1.25,0.14,-0.67,0.52,213.21,-0.2,1.3
6.52,0.25,0.25,0.0,0.25,0.0,0.75,0.75,0.25,0.0,0.0,0.0,0.25,0.0,-0.36,-0.73,0.02,37.54,4.0,26.1,1.0,1.5,0.5,1.0,1.75,2.0,0.5,1.0,0.25,2.0,1.25,1.0,1.25,0.2,-0.8,0.52,212.57,-0.4,-1.7
6.54,0.25,0.25,0.25,0.25,0.0,0.75,0.75,0.25,0.0,0.0,0.0,0.25,0.25,-0.3,-0.73,-0.05,40.69,5.5,16.9,1.0,1.5,0.0,0.5,2.75,1.0,0.5,1.0,0.0,0.5,1.25,0.0,1.25,0.33,-0.92,0.58,198.07,-0.6,15.3
6.56,0.25,0.25,0.25,0.25,0.0,0.25,0.75,0.0,0.0,0.0,0.0,0.0,0.5,-0.23,-0.73,0.02,38.84,11.7,19.1,1.0,1.5,0.25,1.0,1.5,2.0,0.5,0.75,0.25,2.25,1.25,1.25,1.25,0.45,-0.92,0.58,196.78,0.0,-6.3
6.58,0.0,0.25,0.25,0.25,0.0,1.0,0.75,0.0,0.0,0.0,0.0,0.25,0.25,-0.11,-0.73,0.2,39.37,2.4,16.5,1.25,1.5,0.25,1.0,2.25,1.75,0.5,0.75,0.25,2.0,1.25,1.0,1.25,0.64,-0.86,0.52,197.57,-0.8,0.9
6.6,1.75,0.25,2.25,2.0,0.5,1.75,1.5,1.0,0.0,1.25,0.25,1.5,1.5,0.08,-0.73,0.27,103.66,8.5,4.7,1.0,1.5,0.25,1.0,1.75,2.25,0.5,0.75,0.25,2.0,1.25,1.0,1.25,0.83,-0.8,0.45,201.39,0.2,-1.5
6.62,1.75,0.5,2.25,2.0,0.75,2.0,1.25,1.0,0.0,0.0,0.25,0.25,1.5,0.2,-0.73,0.27,154.06,9.9,26.7,1.25,1.5,0.25,1.0,1.75,2.0,0.5,0.75,0.25,2.0,1.25,1.0,1.25,0.95,-0.67,0.45,204.5,-0.6,-0.5
6.64,0.0,0.25,0.25,0.25,0.5,0.75,0.25,0.25,0.0,0.0,0.0,0.25,0.0,0.27,-0.67,0.27,147.89,0.5,29.0,1.0,1.5,0.5,1.0,1.75,1.75,0.5,0.5,0.25,2.0,1.25,1.0,1.25,1.02,-0.67,0.39,205.96,-1.4,-0.9
6.66,0.0,0.25,0.25,0.25,0.0,1.0,0.25,0.25,0.0,0.0,0.0,0.25,0.0,0.33,-0.61,0.33,117.88,-0.8,23.4,1.0,1.5,0.0,1.0,3.0,2.0,0.5,0.5,0.25,2.0,1.25,1.0,1.25,1.02,-0.55,0.33,209.45,0.6,2.6
6.68,0.25,0.25,0.0,0.25,0.0,0.75,0.5,0.25,0.0,0.0,0.0,0.25,0.25,0.27,-0.67,0.33,80.61,0.8,11.7,1.0,1.5,0.5,1.0,3.0,1.75,0.25,0.75,0.25,3.0,1.25,1.0,1.25,1.02,-0.42,0.27,217.31,0.4,-1.5
6.7,0.25,0.25,0.25,0.25,0.0,1.0,0.25,0.0,0.0,0.0,0.0,0.25,0.0,0.14,-0.8,0.39,53.5,4.4,37.6,1.0,1.5,0.25,1.0,1.5,2.0,0.5,0.75,0.25,2.0,1.25,1.25,1.25,0.95,-0.36,0.27,217.49,-0.3,-5.1
6.72,0.25,0.25,0.25,0.25,0.0,0.75,0.5,0.0,0.0,0.0,0.0,0.0,0.0,0.02,-0.86,0.39,37.77,8.8,56.1,1.25,1.5,0.5,1.0,2.25,2.25,0.5,0.75,0.25,2.0,1.25,1.0,1.25,0.83,-0.36,0.27,221.03,-0.7,2.9
6.74,0.25,0.25,0.5,0.25,0.5,0.75,0.25,0.0,0.0,0.0,0.0,0.25,0.25,-0.05,-0.98,0.52,41.93,6.3,30.7,1.25,1.5,0.5,1.0,2.75,2.0,0.5,0.75,0.25,2.0,1.25,1.0,1.25,0.77,-0.42,0.27,223.28,-0.9,4.2
6.76,0.25,0.25,0.25,0.5,0.0,0.75,0.5,0.25,0.0,0.0,0.0,0.25,0.25,-0.05,-0.8,0.58,41.61,5.4,20.1,1.0,1.5,0.5,1.0,1.75,2.0,0.5,0.75,0.25,2.0,1.25,1.0,1.25,0.64,-0.55,0.39,221.81,-0.7,-1.0
6.78,0.25,0.25,0.25,0.25,0.5,1.0,0.75,0.25,0.0,0.0,0.0,0.25,0.25,-0.05,-0.73,0.58,43.5,2.2,23.8,0.75,1.5,0.25,1.0,2.75,2.0,0.5,0.75,0.25,2.0,1.25,1.0,1.5,0.52,-0.61,0.45,222.13,0.9,-1.3
6.8,0.0,0.25,0.25,0.5,0.0,0.5,0.75,0.25,0.0,0.0,0.0,0.25,0.25,-0.11,-0.67,0.58,38.9,6.6,12.2,1.25,1.5,0.0,1.0,2.25,2.0,0.5,0.75,0.25,1.75,1.25,0.75,1.25,0.45,-0.55,0.58,216.02,0.0,3.6
6.82,0.25,0.25,0.25,0.25,0.0,0.5,0.5,0.25,0.0,0.0,0.0,0.25,0.0,-0.23,-0.73,0.52,31.43,9.3,29.2,1.0,1.5,0.25,1.0,1.75,1.75,0.5,0.5,0.25,3.0,1.25,1.0,1.25,0.39,-0.48,0.58,213.53,0.3,-7.0
6.84,0.0,0.25,0.25,0.25,0.0,0.75,0.75,0.0,0.0,0.0,0.0,0.25,0.0,-0.3,-0.86,0.58,21.37,7.2,30.1,1.0,1.5,0.25,1.0,1.75,2.0,0.5,1.0,0.25,2.0,1.5,1.25,1.25,0.33,-0.3,0.45,211.75,-0.1,-5.7
6.86,0.25,0.25,0.25,0.25,0.0,0.5,1.0,0.0,0.0,0.0,0.0,0.25,0.25,-0.36,-0.98,0.77,29.25,11.8,21.4,1.0,1.5,0.0,1.0,2.25,1.75,0.5,1.0,0.25,2.0,1.25,1.0,1.25,0.27,-0.3,0.33,210.94,0.6,-2.2
6.88,0.25,0.25,0.75,0.5,0.0,0.25,0.75,0.0,0.0,0.25,0.0,0.25,0.0,-0.36,-1.05,1.08,41.47,18.9,33.8,1.0,1.5,0.5,1.0,1.5,2.0,0.5,0.75,0.25,2.0,1.25,1.0,1.5,0.2,-0.36,0.39,208.89,-0.5,-4.0
6.9,0.25,0.25,0.75,0.25,0.0,0.5,0.75,0.25,0.0,0.0,0.0,0.25,0.0,-0.42,-1.11,0.95,44.87,15.5,34.8,1.0,1.5,0.0,1.0,1.75,2.0,0.25,0.75,0.25,2.0,1.25,1.0,1.0,0.2,-0.55,0.45,203.18,0.6,-1.6
6.92,0.25,0.25,0.25,0.25,0.0,0.5,0.25,0.0,0.0,0.0,0.0,0.25,0.0,-0.42,-1.05,0.83,41.67,11.3,38.5,1.0,1.5,0.0,1.0,1.0,2.0,0.25,0.75,0.25,3.0,1.25,0.75,1.25,0.27,-0.67,0.45,198.82,1.9,-10.4
6.94,0.25,0.25,0.25,0.5,0.0,0.75,0.25,0.0,0.0,0.0,0.0,0.25,0.0,-0.48,-0.98,0.89,40.16,8.5,40.2,1.0,1.5,0.25,1.0,1.5,1.5,0.25,0.5,0.25,2.0,1.25,1.0,1.25,0.33,-0.8,0.45,193.91,-0.9,-4.2
6.96,0.25,0.25,0.5,0.25,0.0,0.75,0.25,0.0,0.0,0.0,0.0,0.25,0.25,-0.61,-0.86,0.89,39.16,8.4,25.6,1.0,1.5,0.5,1.0,1.5,1.25,0.5,0.75,0.25,2.25,1.25,0.75,1.25,0.33,-0.67,0.58,191.09,-1.6,-3.4
6.98,0.0,0.25,0.25,0.25,0.0,0.75,0.75,0.25,0.0,0.0,0.0,0.25,0.0,-0.67,-0.61,0.83,37.96,4.7,22.7,1.0,1.5,0.25,1.0,1.5,1.25,0.25,0.5,0.25,2.0,1.25,0.75,1.25,0.39,-0.67,0.64,186.77,-1.2,-2.9
7.0,0.25,0.25,0.0,0.25,0.0,0.5,0.75,0.0,0.0,0.0,0.0,0.25,0.0,-0.61,-0.55,0.77,35.4,10.3,33.9,1.0,1.5,0.25,1.0,1.5,1.75,0.5,0.75,0.25,2.0,1.25,1.25,1.25,0.45,-0.55,0.77,190.33,-0.6,-5.8
7.02,0.0,0.25,0.25,0.25,0.0,0.25,0.5,0.0,0.0,0.0,0.0,0.25,0.0,-0.48,-0.55,0.7,31.03,14.7,29.1,1.0,1.5,0.5,1.0,1.5,1.5,0.5,0.5,0.25,2.0,1.25,1.0,1.25,0.45,-0.55,0.7,190.61,-1.9,-2.7
7.04,0.25,0.25,0.0,0.25,0.0,0.5,0.75,0.5,0.0,0.0,0.0,0.0,0.25,-0.48,-0.61,0.64,32.13,2.0,17.8,1.0,1.5,0.5,1.0,1.75,1.5,0.5,0.75,0.25,2.0,1.25,1.0,1.25,0.39,-0.48,0.7,195.55,-1.5,-2.2
7.06,0.25,0.25,0.25,0.25,0.0,0.75,0.75,0.0,0.0,0.0,0.0,0.25,0.0,-0.48,-0.61,0.64,33.5,10.0,36.9,1.0,1.5,0.5,1.0,1.75,1.25,0.5,0.75,0.25,2.0,1.25,1.0,1.25,0.27,-0.3,0.64,196.85,-1.9,-2.8
7.08,0.25,0.25,0.5,0.5,0.0,0.5,0.75,0.0,0.0,0.0,0.0,0.25,0.0,-0.42,-0.61,0.58,37.94,16.5,41.6,1.0,1.5,0.0,1.0,1.75,1.5,0.25,0.75,0.25,2.0,1.25,1.0,1.25,0.2,-0.17,0.7,196.79,0.1,-4.8
7.1,0.25,0.25,0.25,0.25,0.5,0.75,0.75,0.0,0.0,0.0,0.0,0.25,0.0,-0.36,-0.55,0.58,42.69,7.4,40.2,1.0,1.5,0.25,1.0,2.25,1.5,0.5,0.5,0.25,2.0,1.25,1.0,1.0,0.14,-0.17,0.64,198.17,-1.2,1.5
7.12,0.0,0.25,0.25,0.5,0.0,0.5,0.5,0.0,0.0,0.0,0.0,0.25,0.0,-0.36,-0.55,0.52,41.38,10.6,33.4,1.0,1.5,0.5,1.0,1.5,1.75,0.25,0.5,0.25,2.0,1.25,1.0,1.5,0.33,-0.05,0.52,199.19,-1.0,-4.3
7.14,0.25,0.25,0.0,0.25,0.5,0.75,0.25,0.0,0.0,0.0,0.0,0.25,0.0,-0.36,-0.61,0.45,41.62,1.6,39.2,1.0,1.5,0.5,1.0,1.75,1.5,0.5,0.5,0.25,2.0,1.25,1.0,1.5,0.33,0.14,0.45,201.63,-1.5,-3.5
7.16,0.25,0.25,0.25,0.25,0.0,0.5,0.25,0.0,0.0,0.0,0.0,0.25,0.0,-0.42,-0.55,0.45,37.86,11.3,38.5,1.0,1.5,0.5,1.0,2.25,1.25,0.25,0.75,0.0,0.5,1.25,0.0,1.25,0.27,0.02,0.45,193.77,-2.8,18.8
7.18,0.25,0.25,0.25,0.25,0.0,0.5,0.25,0.0,0.0,0.0,0.0,0.25,0.0,-0.48,-0.55,0.52,34.85,11.3,38.5,0.5,0.0,0.0,0.5,0.0,0.5,0.0,1.25,0.0,0.5,1.25,0.0,0.25,1.64,-1.92,1.89,151.91,1.0,-24.3
7.2,0.25,0.25,0.25,0.25,0.0,0.5,0.25,0.0,0.0,0.0,0.0,0.5,0.0,-0.55,-0.55,0.52,33.31,11.0,20.9,0.5,0.0,0.0,0.5,1.0,0.5,0.0,0.0,0.0,0.5,0.25,0.0,0.25,0.7,-0.48,0.7,105.17,-0.5,19.2
7.22,0.25,0.25,0.5,0.5,0.0,0.5,0.25,0.0,0.0,0.0,0.0,0.25,0.0,-0.61,-0.48,0.58,35.97,14.9,43.1,0.5,0.0,0.0,0.5,1.0,0.75,0.0,0.0,0.0,0.5,0.0,0.0,0.25,0.58,0.33,0.45,63.65,1.6,26.5
7.24,0.0,0.0,0.25,0.0,0.0,0.0,1.5,1.25,0.0,0.0,0.5,0.0,0.25,-0.61,-0.42,0.64,39.83,4.6,-26.2,1.5,1.5,0.0,1.0,1.75,1.25,0.25,0.75,0.5,2.0,1.25,1.0,1.25,0.95,0.14,0.83,93.61,-1.6,-2.7
7.26,0.0,0.0,0.0,0.0,0.0,0.0,0.0,0.0,0.0,0.0,0.0,0.0,0.0,-0.73,-0.42,0.7,27.33,0.0,0.0,1.25,1.5,0.5,1.0,2.75,1.25,0.5,0.5,0.25,2.0,1.25,1.5,1.25,1.08,0.02,0.39,139.31,-2.5,0.0
7.28,0.0,0.0,0.0,0.0,0.0,0.0,0.0,0.0,0.0,0.0,0.0,0.0,0.0,-0.67,-0.36,0.7,14.27,0.0,0.0,1.25,1.5,0.0,1.0,2.75,1.0,0.5,0.5,0.75,2.0,1.25,1.0,1.25,1.33,0.02,0.08,182.44,-1.8,-0.2
7.3,0.0,0.0,0.0,0.0,0.0,0.0,0.0,0.0,0.0,0.0,0.0,0.0,0.0,-0.48,-0.42,0.83,1.47,0.0,0.0,1.75,1.5,0.0,1.0,3.25,1.25,0.5,0.5,0.75,2.0,1.25,1.0,1.25,1.08,0.02,0.02,210.89,-2.2,5.0
7.32,0.0,0.0,0.0,0.0,0.0,0.0,0.0,0.0,0.0,0.0,0.0,0.0,0.0,-0.48,-0.42,0.89,0.0,0.0,0.0,2.0,1.5,0.25,1.0,2.5,1.25,0.25,0.25,0.75,2.0,1.25,1.0,1.25,0.7,-0.17,0.02,223.08,-3.7,5.1
7.34,0.0,0.0,0.0,0.0,0.0,1.25,0.0,0.0,1.0,0.0,0.0,0.25,0.0,-0.92,-0.8,0.95,5.51,-5.2,-10.4,1.5,1.5,0.25,1.0,1.75,1.25,0.5,0.25,0.75,2.0,1.25,1.0,1.25,0.58,-0.17,0.2,221.78,-3.3,-0.6
7.36,0.5,0.25,0.25,0.25,0.0,0.5,0.75,0.0,0.0,0.0,0.0,0.25,0.0,-0.61,-1.23,1.27,19.51,15.9,43.3,2.0,1.5,0.25,1.25,2.5,1.0,0.5,0.5,0.75,2.5,1.25,1.0,1.25,0.52,-0.17,0.33,228.61,-3.6,2.5
7.38,0.25,0.25,0.5,0.25,0.0,0.5,0.75,0.0,0.0,0.0,0.0,0.25,0.5,-0.86,-0.67,0.83,33.64,11.0,12.9,1.75,1.5,0.25,1.0,1.5,1.0,0.5,0.5,0.75,2.0,0.0,1.0,1.5,0.77,0.02,0.45,224.25,-3.1,3.2
7.4,0.25,0.25,0.0,0.5,0.0,0.5,1.0,0.0,0.0,0.0,0.0,0.25,0.0,-0.86,-0.05,0.64,38.99,12.3,36.4,1.25,1.5,0.5,1.0,1.75,1.0,0.5,0.5,0.75,2.0,0.0,1.0,1.75,1.02,0.08,0.52,222.01,-2.2,0.0
7.42,0.25,0.25,0.25,0.25,0.0,0.5,0.75,0.25,0.0,0.0,0.0,0.25,0.25,-0.67,0.2,0.02,43.24,8.1,15.3,1.75,1.5,0.5,1.0,2.5,1.0,0.5,0.5,0.75,2.0,0.25,1.0,1.75,0.77,0.14,0.52,223.54,-3.1,4.9
7.44,0.25,0.25,0.25,0.5,0.5,0.5,0.75,0.0,0.0,0.0,0.0,0.25,0.5,-0.36,-0.61,0.52,48.81,7.0,19.5,1.25,1.5,0.25,1.0,2.5,1.0,0.5,0.75,0.75,2.0,0.25,1.0,1.75,0.52,0.14,0.64,220.29,-1.1,0.2
7.46,0.25,0.5,0.5,0.5,0.0,0.5,0.75,0.0,0.0,0.0,0.0,0.25,0.25,-0.61,-0.8,0.58,53.71,13.7,33.9,1.25,1.0,0.5,0.5,2.75,0.75,0.5,0.75,0.75,2.0,1.25,1.0,2.0,0.45,0.14,0.64,215.78,-1.4,-10.3
7.48,0.25,0.25,0.5,0.25,0.0,0.5,0.75,0.0,0.0,0.0,0.0,0.25,0.25,-0.23,-0.36,0.58,55.35,13.4,25.0,0.5,0.0,0.0,0.5,1.25,0.0,0.0,0.0,0.25,1.0,0.0,0.25,0.25,0.45,0.14,0.58,162.23,-1.5,3.0
7.5,0.25,0.25,0.25,0.75,0.0,0.5,0.75,0.0,0.0,0.0,0.0,0.25,0.5,-0.3,-0.11,0.64,58.24,9.8,16.5,0.5,0.0,0.0,0.5,1.25,0.0,0.0,0.0,0.25,0.75,0.0,0.0,0.25,0.52,0.33,0.64,113.28,-2.2,15.9
7.52,0.25,0.25,0.75,0.5,0.0,0.5,0.75,0.0,0.0,0.0,0.0,0.25,0.25,-0.36,-0.3,0.83,57.71,15.8,30.7,0.5,0.0,0.0,0.5,0.0,0.0,0.0,0.0,0.25,0.75,0.5,0.25,0.0,0.52,0.27,0.7,57.97,-8.8,-19.8
