time,left pressure 0[N/cm虏],left pressure 1[N/cm虏],left pressure 2[N/cm虏],left pressure 3[N/cm虏],left pressure 4[N/cm虏],left pressure 5[N/cm虏],left pressure 6[N/cm虏],left pressure 7[N/cm虏],left pressure 8[N/cm虏],left pressure 9[N/cm虏],left pressure 10[N/cm虏],left pressure 11[N/cm虏],left pressure 12[N/cm虏],left acceleration X[g],left acceleration Y[g],left acceleration Z[g],left total force[N],left center of pressure X[mm],left center of pressure Y[mm],right pressure 0[N/cm虏],right pressure 1[N/cm虏],right pressure 2[N/cm虏],right pressure 3[N/cm虏],right pressure 4[N/cm虏],right pressure 5[N/cm虏],right pressure 6[N/cm虏],right pressure 7[N/cm虏],right pressure 8[N/cm虏],right pressure 9[N/cm虏],right pressure 10[N/cm虏],right pressure 11[N/cm虏],right pressure 12[N/cm虏],right acceleration X[g],right acceleration Y[g],right acceleration Z[g],right total force[N],right center of pressure X[mm],right center of pressure Y[mm]
0.02,5.25,1.5,2.5,3.5,5.75,6.75,6.75,6.25,5.5,6.25,5.5,6.0,6.0,-0.11,-0.05,0.95,1016.13,2.7,-15.4,7.5,2.0,4.25,5.0,5.25,5.75,2.25,1.5,2.25,2.5,0.75,1.25,0.75,0.08,0.14,0.95,543.29,-9.7,34.5
0.04,4.5,1.5,2.75,3.5,5.5,6.75,6.25,6.25,5.5,6.5,5.75,6.75,6.25,-0.11,-0.05,0.95,997.79,2.4,-18.7,7.75,2.0,6.25,5.5,7.0,5.75,4.0,3.0,4.25,3.5,2.75,1.5,1.75,-0.11,0.02,0.89,725.28,-9.3,22.4
0.06,3.75,1.5,3.5,3.5,6.25,6.5,6.25,6.25,5.5,6.5,6.0,7.25,7.0,-0.11,-0.05,0.95,1011.78,2.4,-20.2,7.75,2.25,6.25,5.0,7.0,6.25,4.5,3.75,5.0,5.25,4.0,2.25,2.75,0.02,0.02,1.02,905.61,-7.7,12.3
0.08,3.75,1.75,3.0,3.5,6.5,6.25,6.0,6.25,5.25,6.75,6.0,7.5,7.75,-0.11,-0.05,0.95,1020.71,1.9,-21.8,7.5,2.25,6.0,5.0,7.0,6.5,4.25,4.75,5.25,5.25,5.25,2.75,3.25,0.2,0.02,1.08,1069.87,-6.8,7.2
0.1,3.5,0.75,2.25,3.5,5.25,5.75,5.0,6.25,5.25,7.75,6.0,8.0,8.0,-0.11,-0.05,0.95,1017.63,1.0,-29.4,7.5,2.5,5.5,5.0,7.25,6.75,4.25,4.75,5.25,5.5,5.25,3.0,3.75,0.2,0.08,1.02,1175.7,-6.2,5.8
0.12,2.75,0.75,2.25,3.25,5.5,5.75,4.25,6.75,5.0,7.75,6.0,8.25,8.75,-0.11,-0.05,0.95,1012.38,0.0,-32.4,7.0,2.25,4.75,5.0,7.25,6.75,4.0,5.5,5.25,6.0,5.25,3.25,4.5,0.2,0.02,0.95,1232.04,-4.9,1.1
0.14,2.0,0.75,2.5,3.25,4.25,5.5,4.25,6.75,4.5,7.75,4.75,8.75,9.25,-0.11,-0.05,0.95,988.18,-0.3,-36.1,6.75,2.25,4.75,5.0,7.0,6.5,4.0,5.75,5.5,6.25,6.0,4.0,4.5,0.14,0.02,0.95,1250.27,-4.9,-2.1
0.16,2.25,0.75,1.75,3.25,4.5,5.5,3.75,6.75,4.25,8.0,5.5,8.75,9.5,-0.17,-0.05,0.95,978.75,-0.8,-37.5,6.5,2.5,5.0,4.75,7.0,6.5,4.0,5.5,5.25,6.0,5.75,4.0,5.0,0.14,0.02,0.95,1247.34,-4.8,-2.1
0.18,2.5,0.5,1.75,1.25,4.75,3.5,4.0,6.5,3.0,7.0,5.25,7.75,9.5,-0.17,-0.05,0.95,921.62,-0.8,-40.8,6.5,2.25,5.25,5.0,7.0,6.25,4.0,5.25,5.25,6.0,5.5,3.25,4.75,0.14,0.02,0.95,1225.89,-5.2,-0.1
0.2,1.75,0.5,1.0,0.75,4.25,3.5,2.0,6.25,2.75,7.75,3.5,7.5,8.0,-0.11,0.02,1.02,835.22,-3.0,-44.7,6.5,2.25,5.5,5.0,7.0,6.25,4.0,5.0,5.25,5.75,5.25,3.0,4.5,0.14,0.02,0.95,1184.8,-5.5,1.7
0.22,1.0,0.25,0.25,0.5,1.25,3.5,1.75,6.25,2.0,6.75,3.5,7.5,8.0,-0.17,-0.05,1.02,720.13,-4.6,-58.4,6.5,2.5,5.75,5.0,7.0,6.25,4.0,4.75,5.25,5.5,5.25,3.0,4.5,0.08,0.02,0.95,1136.44,-5.9,2.8
0.24,0.25,0.0,0.0,0.0,3.5,3.25,0.75,6.0,1.75,6.5,3.25,6.75,8.0,-0.23,0.02,1.08,621.33,-6.6,-57.8,6.25,2.25,5.25,5.0,7.0,6.25,4.0,4.75,5.25,6.0,5.25,3.5,4.5,0.08,0.02,0.95,1088.66,-5.3,0.1
0.26,0.0,0.0,0.0,0.0,0.75,2.25,1.5,5.0,1.25,5.25,1.25,6.75,7.75,-0.3,0.02,1.08,504.2,-6.9,-70.9,6.25,1.75,5.25,4.75,6.75,6.25,4.0,4.75,5.25,6.0,5.5,4.0,5.0,0.08,0.02,0.95,1056.72,-5.1,-3.1
0.28,0.0,0.0,0.0,0.0,0.0,2.0,0.5,4.0,1.0,5.0,1.25,5.5,7.0,-0.73,0.14,1.02,401.18,-7.9,-76.3,5.75,2.25,5.25,5.0,6.5,6.25,4.0,4.75,5.25,6.5,6.0,4.25,5.0,0.14,0.02,0.95,1034.79,-5.0,-4.5
0.3,0.0,0.0,0.0,0.0,0.0,1.5,0.75,3.5,1.0,3.25,1.25,3.5,6.25,-0.3,0.14,1.52,310.93,-7.8,-74.7,5.5,2.0,5.0,4.75,5.75,6.25,4.0,5.25,5.25,6.75,6.25,4.5,5.75,0.14,0.02,0.95,1026.07,-4.3,-9.0
0.32,0.0,0.0,0.0,0.0,0.0,1.25,1.5,2.75,1.0,1.25,0.5,2.0,5.25,-0.48,0.08,1.27,234.27,-7.3,-69.6,5.5,2.0,4.25,4.75,5.75,6.25,3.75,5.5,5.25,6.75,6.25,5.25,6.0,0.14,0.02,0.95,1024.98,-3.8,-11.6
0.34,0.0,0.0,0.25,0.0,0.0,1.25,1.25,2.25,1.0,0.75,0.75,0.25,2.0,-0.55,0.08,1.02,142.05,-5.9,-46.1,5.5,2.0,4.25,4.75,5.5,6.25,3.5,5.75,5.25,7.5,6.25,5.75,6.5,0.14,0.02,0.95,1034.37,-3.4,-14.2
0.36,0.0,0.0,0.0,0.0,0.0,1.0,1.25,1.75,0.75,0.25,0.25,0.25,1.5,0.08,1.95,0.89,54.37,-6.7,-44.6,5.25,1.75,4.25,4.75,5.5,6.25,3.5,5.75,5.25,7.75,6.75,6.0,7.25,0.14,0.02,0.95,1051.45,-3.0,-17.1
0.38,0.0,0.0,0.0,0.0,0.0,1.0,1.5,2.0,0.75,0.25,0.25,0.25,1.5,1.2,2.45,1.33,0.0,-6.4,-43.1,5.25,2.0,4.25,4.75,5.5,6.25,3.25,5.75,5.25,8.0,7.0,6.0,7.75,0.14,0.02,0.95,1074.32,-2.9,-17.8
0.4,0.0,0.0,0.0,0.25,0.0,0.25,0.5,1.5,0.75,0.25,0.75,0.25,1.25,0.64,2.08,1.45,0.0,-3.7,-54.5,5.25,1.75,4.25,4.75,5.5,6.25,3.25,6.0,5.25,8.25,7.5,6.5,8.0,0.14,0.02,0.95,1103.82,-2.7,-19.9
0.42,0.25,0.0,0.0,0.5,0.0,1.0,1.25,1.0,0.75,0.25,0.75,0.25,0.5,-0.17,1.89,0.89,0.0,1.0,-21.3,5.25,2.0,4.25,4.75,5.5,6.25,3.25,6.25,5.0,8.75,7.5,6.5,8.0,0.14,0.02,0.95,1132.9,-2.5,-19.8
0.44,0.0,0.0,0.0,0.25,0.0,1.0,1.0,1.0,0.5,0.0,0.75,0.25,0.5,-0.36,1.7,0.7,0.0,-2.0,-29.1,4.25,2.0,4.25,4.75,5.5,6.25,3.25,6.25,4.75,8.75,7.5,6.5,8.25,0.14,0.02,0.95,1143.35,-2.0,-21.7
0.46,0.0,0.0,0.0,0.5,0.0,0.75,1.5,0.25,0.25,0.0,0.0,0.25,0.25,-0.73,1.39,0.83,0.0,4.5,-0.2,3.75,1.75,4.0,4.75,5.5,5.75,3.25,6.5,4.25,8.75,7.0,6.5,8.0,0.14,0.02,0.95,1126.36,-1.6,-22.8
0.48,0.0,0.0,0.0,0.5,0.0,1.0,1.0,0.0,0.75,0.25,0.5,0.25,0.0,-0.61,1.08,1.02,0.0,4.2,-9.7,4.0,2.0,4.0,4.75,5.5,6.0,3.0,6.25,3.5,8.75,6.75,6.0,7.75,0.14,0.02,0.95,1097.11,-1.6,-20.5
0.5,0.0,0.0,0.0,0.5,0.0,1.0,1.25,0.0,1.0,0.75,0.25,1.5,0.0,-0.23,0.77,1.45,1.12,4.1,-35.7,3.0,1.75,4.0,4.5,5.5,0.0,2.5,6.25,3.0,8.25,6.25,6.0,8.0,0.14,0.02,0.95,1003.15,-3.1,-28.0
0.52,1.75,0.5,0.0,1.0,0.5,1.75,1.5,1.75,1.0,0.5,1.0,1.5,1.75,-0.11,0.58,1.52,69.56,2.8,-14.6,3.0,2.0,3.75,3.5,5.25,5.75,2.25,6.0,2.75,7.75,5.75,5.25,7.75,0.14,0.02,1.02,937.78,-0.5,-22.0
0.54,1.5,0.5,0.0,1.0,2.5,1.25,1.25,1.5,1.0,0.5,1.25,1.0,2.0,0.02,0.45,1.39,136.12,1.9,-6.7,2.0,1.5,2.5,3.25,5.25,4.25,1.75,5.75,2.25,6.25,5.0,3.5,6.75,0.14,0.08,1.08,816.48,0.4,-22.4
0.56,1.75,0.5,0.0,1.75,0.5,1.25,1.75,0.75,1.0,0.5,2.0,1.25,1.75,0.02,0.2,1.39,183.5,6.6,-12.6,2.5,1.75,1.5,2.5,3.75,0.0,1.75,5.0,1.25,3.75,3.5,1.5,5.5,0.08,0.08,1.2,636.08,-1.9,-19.3
0.58,1.5,0.5,0.25,0.75,0.5,1.25,1.5,1.75,1.0,0.25,0.5,1.5,1.5,-0.11,0.02,1.33,199.46,4.1,-12.9,2.0,0.5,1.75,0.0,4.5,3.75,1.0,4.0,1.0,0.75,2.0,1.0,1.25,0.08,0.14,1.27,434.83,-0.1,4.6
0.6,1.25,0.5,0.0,1.0,0.0,1.75,1.5,1.75,1.0,1.25,1.0,1.25,1.5,-0.11,-0.11,1.02,203.24,1.1,-21.6,1.25,0.0,0.5,0.75,1.75,2.75,0.25,2.0,1.0,3.0,1.0,0.25,0.5,0.39,0.33,1.2,276.48,3.4,-7.2
0.62,1.75,0.5,0.0,1.5,0.0,1.75,1.5,1.75,1.0,0.5,1.75,0.75,1.25,-0.23,-0.48,1.02,201.62,4.4,-8.9,2.0,0.5,1.5,1.25,2.75,2.75,1.0,2.0,1.0,2.25,2.25,0.0,1.25,-0.11,2.33,1.89,198.78,-2.3,4.1
0.64,1.75,0.5,0.25,1.0,0.5,1.0,1.25,1.0,1.0,0.5,1.25,1.5,1.5,-0.3,-0.98,0.83,199.74,6.5,-14.0,1.25,0.75,0.0,0.0,1.5,2.75,0.0,1.5,1.0,1.25,0.75,0.0,1.0,-1.23,2.45,0.95,114.75,4.5,1.1
0.66,1.75,0.5,0.0,1.75,0.0,1.5,1.25,1.5,1.0,0.25,0.5,0.75,1.5,-0.48,-1.48,0.52,196.15,4.8,-1.8,2.0,1.75,0.5,1.25,1.75,3.0,0.5,2.0,1.0,2.5,1.25,1.0,1.5,-0.48,1.7,1.02,114.9,-0.3,0.2
0.68,1.0,0.5,0.0,1.75,0.0,0.5,1.25,1.5,0.25,0.0,1.25,0.25,1.5,-0.67,-1.92,2.2,180.03,5.6,-8.2,3.0,1.0,0.75,0.0,2.5,1.5,1.0,0.5,1.0,2.5,0.75,0.25,1.0,-0.05,1.77,0.58,104.14,-4.8,12.8
0.7,1.25,0.0,0.0,0.5,0.0,1.0,0.5,0.0,0.5,0.0,0.0,0.25,0.0,-0.17,-2.92,0.45,138.33,12.2,37.8,2.0,0.5,0.25,0.25,1.75,1.5,0.5,0.5,1.0,2.0,0.75,0.0,1.0,0.14,1.83,0.27,98.1,-1.7,4.3
0.72,4.25,0.0,0.0,2.0,3.5,1.0,1.0,0.25,0.75,0.25,0.0,0.25,0.0,-1.36,-3.05,0.83,146.31,12.1,52.7,1.25,1.5,0.25,2.5,1.0,3.0,0.5,0.5,1.5,2.5,0.75,0.75,1.0,0.14,1.7,0.27,110.9,-1.4,5.0
0.74,6.0,0.5,2.75,3.25,1.25,2.5,1.5,1.0,1.75,0.25,0.5,0.25,0.25,-0.55,0.64,2.83,195.6,16.2,44.6,2.5,1.25,0.5,2.5,1.5,2.75,1.0,1.75,1.25,3.25,2.25,1.25,2.0,0.2,1.39,0.7,166.9,-2.3,-6.6
0.76,5.75,0.0,4.25,5.25,4.5,5.0,2.75,1.25,1.75,0.75,0.5,0.25,0.5,-0.42,-0.05,1.89,289.14,11.3,41.1,1.25,0.0,0.25,2.5,0.0,1.75,0.0,0.5,1.0,2.5,0.75,0.0,2.0,0.08,1.2,1.2,170.25,-0.1,-15.1
0.78,6.0,2.0,4.0,5.5,6.5,5.75,0.0,3.0,3.0,2.75,0.75,1.75,1.0,0.08,0.02,2.2,438.0,6.5,26.4,1.25,0.0,0.5,1.25,1.0,0.0,0.25,0.5,0.75,1.0,0.75,0.0,1.5,0.02,1.02,1.2,162.73,-6.2,-6.9
0.8,6.0,2.0,6.0,5.5,6.25,6.25,7.0,4.0,5.0,2.75,0.75,2.0,2.25,0.08,-0.17,1.02,653.87,8.5,20.1,1.0,0.0,0.25,0.75,1.0,1.75,0.25,0.5,0.75,1.25,0.75,0.0,1.0,0.14,0.7,1.27,146.28,0.7,-3.9
0.82,6.0,2.0,4.75,3.5,6.75,7.0,6.75,6.0,6.0,4.75,4.25,3.75,4.0,-0.05,-0.3,1.33,879.2,5.0,0.0,1.25,0.5,0.0,2.25,0.0,0.0,0.25,0.5,1.0,0.5,0.75,0.0,1.0,0.2,0.45,1.33,124.22,-10.2,5.3
0.84,5.75,2.0,4.75,3.5,6.75,6.75,5.75,6.25,5.5,5.0,5.75,5.0,5.25,-0.11,-0.17,1.14,1066.46,4.4,-6.6,1.25,0.75,1.5,1.0,1.0,1.25,0.25,0.25,0.75,1.0,0.75,0.0,1.0,0.14,0.33,1.14,123.08,-7.7,15.7
0.86,5.25,2.0,3.75,3.5,6.75,7.0,5.25,6.5,6.0,5.0,5.25,5.75,5.25,-0.17,-0.11,0.95,1186.33,3.5,-9.5,1.25,0.0,0.0,1.25,1.5,0.5,0.75,0.0,1.0,2.5,0.75,1.25,0.75,0.2,0.14,1.02,128.7,-3.5,-17.2
0.88,5.25,1.75,3.75,3.5,6.25,7.0,5.0,6.25,6.0,5.0,5.75,5.75,5.5,-0.23,-0.11,0.95,1238.41,3.5,-11.3,2.25,1.25,1.5,1.5,1.75,1.75,0.75,0.0,1.0,2.5,2.25,1.25,2.0,0.27,-0.05,0.89,182.15,-6.2,-3.1
0.9,5.0,2.0,3.75,3.5,4.75,6.75,5.0,6.25,5.5,5.0,6.0,5.75,5.75,-0.11,-0.11,0.95,1229.84,3.6,-13.7,2.25,1.25,1.5,2.25,1.75,0.5,0.75,0.0,1.0,2.5,2.25,1.25,2.0,0.2,-0.17,0.95,214.06,-8.5,-2.9
0.92,3.75,0.5,3.75,3.5,3.75,5.5,4.75,5.25,5.5,5.0,5.75,5.75,5.75,-0.11,-0.11,0.95,1144.81,3.7,-20.9,2.25,1.5,1.5,2.25,1.75,1.5,0.75,0.0,1.0,2.75,2.0,1.25,1.5,0.14,-0.48,1.2,251.26,-7.3,2.9
0.94,2.0,0.5,2.25,1.75,3.75,4.5,4.75,4.5,4.5,5.0,5.0,6.0,5.25,-0.05,-0.05,0.95,989.42,1.8,-29.8,2.5,1.25,1.5,2.25,1.75,1.75,0.75,0.25,1.0,2.5,2.0,1.25,1.75,0.14,-0.67,0.58,269.98,-6.9,2.1
0.96,3.5,0.75,0.75,3.25,3.5,5.25,3.0,4.75,4.75,5.0,3.5,6.75,5.5,-0.11,-0.05,0.95,847.66,1.0,-26.4,3.0,1.0,1.5,2.75,1.75,1.25,0.75,0.5,1.0,2.75,2.0,1.25,1.75,0.2,-0.86,0.02,282.33,-7.8,2.3
0.98,2.0,0.5,1.0,2.5,4.25,4.25,4.0,5.25,4.25,5.0,5.5,7.5,6.75,-0.11,-0.05,0.95,763.94,0.4,-35.7,4.5,1.0,1.5,2.5,1.75,2.0,0.75,0.5,1.5,2.75,2.0,0.75,1.75,0.2,-2.11,0.2,298.11,-8.5,10.1
1.0,1.5,0.5,0.0,1.75,4.25,3.5,3.0,5.25,4.0,6.25,5.75,7.75,7.75,-0.11,-0.05,0.95,721.33,-1.5,-45.1,6.25,2.0,1.5,3.5,5.25,1.75,1.0,0.0,1.5,2.5,2.0,0.75,1.75,1.14,-3.92,2.2,357.49,-9.7,27.0
1.02,1.75,0.5,0.0,1.75,3.5,3.5,2.75,5.0,3.5,6.5,5.25,8.25,8.75,-0.17,-0.05,0.95,705.21,-1.8,-48.2,8.5,2.5,4.25,6.5,5.5,4.0,0.75,0.0,1.25,2.5,2.0,1.0,1.75,0.95,1.27,2.39,471.25,-11.8,36.4
1.04,1.75,0.5,0.0,1.5,3.75,3.5,2.25,4.25,3.5,5.25,6.0,9.0,9.25,-0.17,-0.05,0.95,699.47,-1.2,-50.0,9.25,3.0,6.25,8.5,7.75,5.5,1.5,0.0,1.0,1.25,2.0,0.0,1.75,0.64,0.08,1.7,632.79,-12.6,47.1
1.06,0.75,0.0,0.0,0.5,3.5,2.25,1.5,4.25,2.75,5.75,3.5,8.25,8.75,-0.17,-0.05,1.02,649.48,-3.5,-58.9,9.25,3.25,7.25,10.0,8.0,6.0,2.5,2.0,2.25,3.0,0.75,1.25,0.75,0.33,0.27,1.64,826.47,-11.4,40.9
1.08,0.75,0.0,0.0,0.0,2.5,2.25,1.5,4.25,2.5,5.75,4.25,8.25,8.75,-0.17,-0.11,0.89,605.59,-3.6,-64.1,9.25,3.25,8.25,10.0,9.5,6.75,5.25,3.5,3.5,3.0,2.25,1.5,2.25,-0.05,0.08,1.02,1048.72,-10.3,31.4
1.1,0.5,0.0,0.0,0.0,3.5,2.25,1.25,4.0,2.5,6.0,4.5,8.75,9.5,-0.23,-0.11,0.95,587.39,-3.9,-63.7,9.0,3.0,8.25,10.0,9.5,7.25,6.25,4.75,5.5,5.5,3.0,2.0,2.75,-0.17,0.02,2.45,1275.05,-8.7,21.4
1.12,1.25,0.75,0.0,1.75,3.5,3.75,1.0,4.0,2.75,7.75,4.75,11.0,9.75,-0.23,-0.11,0.95,643.56,-2.7,-54.9,8.5,2.75,8.25,8.25,9.5,7.25,6.25,5.75,5.75,5.75,5.0,2.75,2.75,0.33,-0.05,1.27,1401.57,-8.0,14.7
1.14,0.25,0.0,0.0,0.0,5.0,2.25,3.0,4.25,2.25,6.5,5.0,9.25,9.75,-0.23,-0.11,0.95,678.24,-3.4,-59.5,8.0,2.75,7.25,6.75,8.75,7.25,5.5,5.75,5.5,5.75,5.0,2.75,3.5,0.14,0.02,1.08,1451.89,-6.9,10.9
1.16,0.5,0.0,2.25,0.0,4.75,2.0,2.75,5.5,2.0,6.0,4.0,9.25,9.75,-0.23,-0.11,0.95,720.48,-1.8,-53.4,7.5,2.5,6.25,6.25,8.5,7.0,4.75,5.75,5.25,5.75,5.0,2.5,3.75,0.14,0.08,0.95,1436.05,-6.1,8.7
1.18,0.0,0.0,0.0,0.5,2.5,1.75,0.5,4.0,2.0,6.5,4.5,9.25,9.75,-0.3,-0.17,0.95,698.67,-4.4,-70.4,6.75,2.0,5.5,4.75,7.5,6.75,4.0,5.5,5.0,5.5,5.0,2.5,3.75,0.2,0.02,0.95,1355.06,-5.3,4.8
1.2,0.25,0.0,0.0,0.5,2.25,2.25,0.25,4.0,2.0,6.5,4.0,9.25,10.0,-0.3,-0.17,0.95,666.77,-4.7,-69.6,6.25,2.0,4.75,4.75,7.25,6.5,4.0,5.0,4.75,5.75,4.75,2.75,3.5,0.14,0.02,0.95,1241.36,-5.0,3.6
1.22,0.25,0.0,0.0,0.5,2.25,2.0,0.25,4.0,1.75,5.75,5.5,9.0,11.5,-0.3,-0.11,1.08,645.52,-4.4,-71.7,6.25,2.0,4.5,4.5,7.0,6.25,4.0,4.75,4.75,5.5,5.0,3.0,4.25,0.08,0.02,0.95,1120.9,-4.9,1.0
1.24,0.0,0.0,0.0,0.25,0.0,1.75,0.5,3.75,1.75,5.75,3.5,9.0,9.75,-0.3,-0.17,1.14,604.76,-5.0,-81.4,5.75,2.0,4.25,4.5,6.75,6.0,3.75,4.75,4.75,5.75,5.0,3.0,4.5,0.08,0.02,0.95,1023.26,-4.5,-1.2
1.26,0.25,0.0,0.0,0.25,0.0,1.5,0.25,3.5,1.25,5.0,3.25,8.25,9.5,-0.3,-0.23,1.08,554.44,-5.0,-81.6,5.25,2.0,4.25,4.5,5.5,5.75,3.5,4.75,4.75,5.75,5.0,3.5,4.5,0.08,0.02,0.95,937.67,-4.5,-4.5
1.28,0.0,0.0,0.0,0.0,0.0,1.0,0.25,3.0,1.0,4.25,2.5,7.25,8.75,-0.3,-0.23,1.33,479.52,-5.5,-86.0,5.0,2.0,4.25,4.5,5.5,5.75,3.25,4.75,4.75,6.25,5.25,4.0,5.0,0.08,0.02,0.95,887.03,-4.1,-7.6
1.3,0.0,0.0,0.0,0.5,0.0,1.0,0.25,2.25,1.0,2.75,1.25,6.0,7.25,-0.42,-0.17,1.33,391.52,-5.1,-82.5,5.0,2.0,4.25,4.5,5.5,5.75,3.25,4.75,4.75,6.5,5.5,5.0,5.75,0.08,0.02,0.95,865.77,-3.8,-11.1
1.32,0.0,0.0,0.0,0.25,0.0,1.0,0.25,2.0,1.0,1.25,1.0,4.75,6.25,-0.48,-0.11,1.45,303.69,-5.0,-82.4,5.0,2.0,4.0,4.5,5.5,5.75,3.25,5.0,4.75,7.0,6.0,5.5,6.75,0.08,0.02,0.95,874.86,-3.3,-14.9
1.34,0.0,0.0,0.0,0.5,0.0,1.0,0.0,2.0,1.0,0.25,1.25,2.0,3.75,-0.17,-0.23,1.02,223.31,-5.1,-68.5,5.0,2.0,4.0,4.5,5.5,5.75,3.25,5.5,5.0,7.75,6.5,6.0,7.75,0.08,0.02,0.95,920.69,-2.8,-18.4
1.36,0.25,0.0,0.0,0.5,0.0,1.0,0.0,2.0,1.0,0.5,1.25,1.5,3.0,0.58,2.02,0.2,151.39,-4.5,-60.3,4.5,2.0,4.0,4.5,5.5,5.75,3.25,5.75,5.0,7.75,6.75,6.5,8.0,0.08,0.02,0.95,977.14,-2.5,-20.5
1.38,0.5,0.0,0.0,0.75,0.0,0.0,0.0,2.0,0.75,0.25,1.0,0.25,1.75,0.77,1.89,1.7,84.3,-1.4,-45.7,4.25,2.0,4.0,4.5,5.5,5.75,3.0,5.75,5.0,8.5,7.25,6.75,8.25,0.08,0.02,0.95,1034.81,-2.2,-22.6
1.4,0.0,0.0,0.0,0.0,0.0,0.25,0.25,1.75,1.0,0.25,1.0,0.25,2.0,0.33,1.77,1.14,39.89,-5.7,-66.5,3.75,2.0,3.75,4.5,5.25,5.75,3.0,6.0,4.75,8.75,7.5,7.5,8.75,0.14,0.02,0.95,1076.61,-1.7,-26.0
1.42,0.25,0.0,0.0,0.0,0.0,0.0,0.25,1.5,0.75,0.25,0.75,0.25,1.5,-0.23,1.58,1.08,7.54,-3.5,-61.7,3.75,2.0,4.0,4.0,5.25,5.75,3.0,6.25,4.75,8.75,7.5,7.5,9.0,0.14,0.02,0.95,1107.73,-1.6,-26.6
1.44,0.0,0.0,0.0,0.0,0.0,0.0,0.25,1.5,0.75,0.25,0.75,0.25,1.5,-0.3,1.45,0.77,0.0,-5.3,-69.0,3.75,2.0,3.0,3.75,5.25,5.75,2.5,6.25,4.5,9.25,7.5,7.75,9.0,0.14,0.02,0.95,1116.01,-0.7,-29.0
1.46,0.25,0.0,0.0,0.0,0.0,0.5,0.25,1.0,1.25,0.25,0.75,0.25,1.25,-0.42,1.02,1.08,0.0,-2.1,-51.4,3.25,2.0,2.75,3.5,5.25,5.75,2.25,6.5,4.25,9.5,7.5,8.0,9.25,0.14,0.02,0.95,1118.05,0.0,-31.4
1.48,0.5,0.0,0.0,0.0,0.0,0.25,0.25,0.25,0.75,0.25,0.75,0.25,0.75,-0.36,0.77,1.27,0.0,3.9,-43.8,3.25,2.0,2.0,3.25,5.25,5.75,2.25,6.5,3.5,9.5,7.5,8.0,9.75,0.14,0.02,0.95,1109.25,0.6,-33.3
1.5,0.0,0.0,0.0,0.0,0.0,0.25,0.25,0.5,0.5,0.25,0.75,0.25,1.5,-0.23,0.64,1.27,3.0,-4.5,-72.3,2.75,2.0,2.5,2.25,5.25,5.75,1.75,6.5,3.25,9.75,7.25,8.0,9.5,0.08,0.08,1.02,1088.28,1.1,-34.9
1.52,0.0,0.0,0.0,0.0,0.0,0.0,0.25,0.25,0.75,0.25,0.5,0.5,1.25,-0.11,0.52,1.39,12.25,-0.8,-78.9,2.0,0.5,1.0,2.25,3.5,5.0,1.5,7.0,2.25,8.75,7.25,7.5,9.5,0.08,0.02,1.08,1013.46,2.8,-45.4
1.54,0.0,0.0,0.0,0.0,0.0,0.0,3.0,4.25,0.5,0.25,0.5,0.25,1.0,-0.11,0.39,1.33,48.17,-3.5,-41.5,1.0,2.0,1.0,2.25,1.75,3.25,0.75,6.25,2.25,8.75,6.0,7.5,8.5,0.14,0.02,1.08,904.67,2.5,-48.7
1.56,0.25,0.0,0.0,0.0,0.0,1.0,0.0,0.0,2.0,0.0,0.0,0.0,0.0,-0.23,0.27,1.33,51.78,3.3,-6.7,2.0,2.0,0.0,2.25,3.25,4.0,1.0,6.0,1.25,8.75,5.0,6.0,8.5,0.2,0.08,1.2,797.12,3.7,-41.2
1.58,0.0,0.0,0.0,0.0,0.0,0.0,4.0,0.5,0.5,0.0,0.0,0.0,0.0,-0.3,0.08,1.27,54.95,20.5,4.8,1.25,1.0,0.0,0.5,2.25,3.5,1.0,6.0,1.5,7.0,5.0,4.5,8.0,0.39,0.08,1.27,672.11,5.3,-50.2
1.6,0.0,0.0,1.0,0.0,0.0,0.25,0.5,0.25,0.5,0.25,0.0,0.25,1.0,-0.36,0.02,1.2,48.71,7.3,-29.3,1.0,0.25,0.0,0.0,2.25,3.5,0.0,4.75,1.25,5.5,3.0,2.75,5.75,1.2,0.39,1.02,519.39,7.4,-48.0
1.62,0.0,0.0,0.0,0.0,0.0,0.75,0.25,0.25,1.0,1.0,0.0,1.75,1.0,-0.3,-0.11,1.14,63.47,-3.2,-68.6,1.0,0.75,0.0,1.5,1.25,0.5,0.5,3.25,1.0,4.25,2.0,0.75,3.25,0.83,0.27,1.33,355.99,3.3,-36.1
1.64,0.25,0.5,0.0,0.75,3.75,1.0,0.75,2.0,1.0,1.25,1.0,1.75,1.5,-0.48,-0.23,1.14,121.01,-2.0,-15.9,2.5,1.75,0.0,0.0,3.25,1.75,1.0,3.25,0.75,0.75,1.5,0.75,2.75,0.64,0.39,1.14,259.29,0.2,-1.8
1.66,0.0,0.25,0.0,0.5,3.75,1.0,1.0,2.0,1.0,1.25,1.25,1.75,1.75,-0.61,-0.36,1.02,172.74,-2.9,-22.9,1.25,0.25,0.0,0.75,3.0,0.5,1.0,2.5,1.0,2.5,0.75,1.5,2.75,-2.11,3.2,1.33,183.32,2.0,-25.6
1.68,0.5,0.25,0.0,0.75,3.75,1.0,0.75,2.0,1.0,1.25,1.0,1.75,1.75,-0.8,-0.48,0.77,213.86,-1.9,-17.6,2.5,1.75,1.5,0.75,1.75,1.5,1.0,2.5,1.25,3.0,2.25,1.5,2.75,-0.05,3.14,0.45,171.31,-3.2,-12.4
1.7,0.5,0.5,0.0,1.0,3.75,1.0,1.0,2.0,1.0,1.25,1.0,1.75,1.75,-0.98,-0.73,0.33,235.68,-1.1,-14.3,2.25,1.75,1.5,2.0,1.25,2.5,1.0,2.0,1.0,2.5,2.0,1.5,2.75,0.39,2.39,0.64,182.4,-3.5,-6.5
1.72,0.0,0.0,0.0,0.5,0.0,0.0,0.25,0.0,0.25,0.0,0.0,0.25,0.25,-1.11,-1.3,0.14,186.07,10.4,-22.5,2.25,1.75,1.5,0.75,1.75,3.0,0.75,2.0,1.5,1.5,1.5,1.25,3.0,0.2,2.14,0.58,203.6,-2.4,-4.2
1.74,1.5,0.0,0.0,0.0,0.0,0.75,0.25,0.25,0.25,0.25,0.5,0.25,0.0,-0.05,-2.73,2.33,137.01,10.5,16.8,2.5,1.5,1.5,2.0,1.75,2.75,1.0,2.0,1.5,2.5,1.5,1.25,1.75,0.33,1.7,0.7,223.3,-4.0,1.7
1.76,4.5,0.5,1.0,3.5,4.25,2.25,0.5,2.0,1.0,1.5,1.0,0.25,2.0,-0.86,-4.42,1.95,190.3,5.6,21.4,2.5,1.5,1.5,2.0,1.75,1.75,1.0,2.0,1.5,2.5,0.75,1.25,2.5,0.39,1.33,0.95,239.3,-4.3,-1.0
1.78,4.75,0.0,2.25,3.5,6.75,5.5,1.5,2.0,1.0,0.25,1.25,0.5,1.5,-0.86,1.77,4.02,280.97,5.1,31.0,2.5,1.25,1.25,2.0,1.75,1.5,0.75,2.0,1.5,2.5,1.25,1.25,2.25,0.39,0.89,1.2,249.57,-4.3,-3.8
1.8,0.0,1.25,2.25,5.5,7.75,7.75,1.5,3.75,1.25,0.0,0.5,0.25,0.5,-0.48,-0.11,1.33,389.22,-0.5,31.8,2.5,0.5,1.5,2.0,1.75,2.0,1.0,1.75,1.5,2.25,1.5,1.25,2.5,0.39,0.58,1.27,258.62,-4.3,-6.6
1.82,5.5,1.25,1.0,5.0,8.5,9.25,1.5,4.25,1.75,1.75,0.0,0.5,1.5,-0.17,0.02,1.45,535.56,0.5,29.9,3.0,0.25,1.25,2.25,1.75,1.75,0.75,2.0,1.5,2.25,1.0,1.25,2.0,0.45,0.27,1.2,268.99,-4.8,-2.4
1.84,5.0,1.75,3.75,5.5,10.0,9.5,4.25,5.75,3.5,3.25,1.0,1.75,1.5,-0.17,0.02,1.14,725.37,2.7,20.7,2.5,0.5,1.5,2.25,1.75,1.5,0.75,2.0,1.5,2.5,1.25,1.25,2.5,0.45,0.02,1.2,279.25,-4.3,-7.3
1.86,4.0,0.25,2.25,3.75,9.0,9.0,3.5,7.0,5.25,6.5,4.0,4.75,3.75,-0.36,-0.3,1.27,897.54,-0.1,-8.7,2.0,1.0,1.5,1.75,1.75,1.75,1.0,2.0,1.5,2.5,1.0,1.25,2.25,0.33,-0.11,1.08,282.37,-3.5,-5.9
1.88,3.5,1.75,2.25,3.5,8.5,8.75,2.25,7.75,5.25,7.5,6.0,5.75,5.5,-0.17,-0.17,1.02,1073.63,-0.6,-15.7,2.5,0.25,1.5,1.75,1.75,1.5,1.0,1.5,1.0,2.5,1.25,1.25,2.5,0.27,-0.17,1.14,276.21,-4.4,-8.6
1.9,3.5,1.5,0.25,3.5,6.75,8.0,1.5,7.5,5.0,6.5,4.75,5.75,6.25,-0.17,-0.11,1.02,1143.95,-2.0,-20.7,2.5,1.0,1.5,2.5,1.75,1.75,0.75,1.75,1.5,2.5,1.5,1.25,2.0,0.2,-0.3,1.14,278.37,-5.1,-1.5
1.92,2.75,1.25,0.0,2.5,6.75,7.0,1.75,7.5,4.0,6.25,5.0,5.0,6.0,-0.17,-0.05,0.95,1117.4,-2.9,-23.6,2.75,1.0,1.5,2.0,1.75,1.25,0.75,1.25,1.5,2.5,1.25,1.25,2.5,0.27,-0.42,1.14,275.08,-5.8,-3.6
1.94,2.25,0.5,0.0,3.25,4.25,7.0,1.5,6.25,4.25,6.5,4.75,6.0,6.25,-0.17,-0.05,0.95,1027.89,-2.8,-31.4,2.25,1.0,1.5,2.25,1.75,2.0,1.0,2.0,1.5,2.5,2.0,1.25,2.5,0.27,-0.48,1.14,284.36,-4.0,-7.1
1.96,1.75,0.5,0.0,3.5,3.75,6.25,0.5,6.75,4.0,5.75,4.0,6.75,7.0,-0.17,-0.05,0.95,944.76,-3.3,-35.7,2.25,1.5,1.5,2.0,1.75,1.75,0.75,1.5,1.25,3.0,1.5,1.25,2.5,0.27,-0.48,0.83,288.56,-4.0,-5.0
1.98,0.5,0.5,0.0,2.0,4.25,5.75,1.5,6.25,3.5,6.25,4.0,6.75,7.0,-0.11,-0.05,0.95,844.61,-4.5,-41.4,2.5,1.5,1.5,2.25,1.75,1.75,0.75,1.5,1.5,2.5,1.5,1.25,2.75,0.39,-0.55,0.7,294.47,-4.8,-3.2
2.0,0.5,0.5,0.0,0.5,3.5,3.5,0.5,6.25,2.75,5.0,4.25,6.75,7.75,-0.11,-0.05,0.95,734.74,-4.8,-52.2,2.5,1.25,1.5,1.5,1.75,1.75,0.75,1.75,1.5,2.5,1.75,1.25,2.5,0.33,-0.36,0.39,294.04,-4.3,-6.5
2.02,0.0,0.0,0.0,0.5,0.0,3.5,0.25,5.25,2.25,5.0,3.5,0.0,7.25,-0.17,-0.05,0.95,572.58,-9.8,-58.5,2.5,1.5,1.5,2.25,1.75,1.25,0.75,1.5,1.5,2.5,2.0,1.25,2.25,0.45,-0.36,0.45,295.24,-5.9,-3.1
2.04,0.5,0.0,0.0,0.5,0.0,3.25,0.25,5.25,2.0,5.75,3.5,7.5,7.75,-0.23,-0.11,0.95,499.04,-5.6,-68.9,3.5,1.0,1.5,2.25,1.75,1.75,1.0,0.5,1.5,2.5,2.0,1.25,2.25,0.33,-2.36,3.14,295.25,-7.5,1.2
2.06,0.25,0.0,0.0,0.5,0.0,2.75,0.0,5.25,2.0,6.25,3.5,8.0,8.25,-0.17,-0.11,0.95,451.17,-5.8,-72.9,5.0,1.5,1.5,2.5,3.75,1.75,1.0,0.5,1.5,2.5,2.0,1.0,2.25,0.58,-2.48,1.95,317.22,-8.2,14.3
2.08,0.5,0.0,0.0,0.75,2.25,2.5,0.0,5.25,2.0,6.5,3.5,8.25,8.75,-0.3,-0.11,1.02,469.74,-5.2,-64.3,7.0,2.5,2.0,4.5,5.5,4.0,1.0,0.0,1.5,2.5,1.0,1.25,1.75,0.89,-3.48,2.45,379.99,-8.8,32.5
2.1,0.5,0.0,0.0,0.0,0.0,2.25,0.0,5.25,2.0,6.25,3.5,8.25,9.5,-0.36,-0.11,0.95,488.75,-5.8,-76.5,7.0,1.5,4.25,6.75,7.0,5.75,1.0,0.0,1.25,1.0,0.75,0.0,1.25,0.27,0.64,1.7,471.78,-10.3,47.1
2.12,0.0,0.0,0.0,0.0,0.0,2.25,0.0,5.25,2.0,7.75,3.5,8.75,9.5,-0.23,-0.17,0.83,527.61,-6.5,-79.0,8.25,2.75,5.5,8.75,7.75,7.25,2.5,2.0,2.75,2.5,0.75,1.25,1.0,0.14,-0.05,1.52,647.49,-9.4,37.6
2.14,0.0,0.0,0.0,0.0,0.0,2.25,0.0,5.25,2.0,7.25,3.5,8.75,9.75,-0.3,-0.17,0.83,551.67,-6.4,-79.2,8.25,3.0,6.75,8.25,9.75,7.5,4.75,4.25,4.75,5.0,3.0,1.5,2.75,0.02,-0.11,1.14,897.85,-7.4,21.6
2.16,0.75,0.0,0.0,0.0,0.0,3.0,0.0,5.25,2.0,8.0,3.5,9.0,10.0,-0.3,-0.17,0.95,585.16,-6.1,-74.6,7.75,2.75,6.25,8.25,9.75,7.75,5.25,6.25,5.75,6.0,5.0,3.0,3.75,0.14,-0.3,1.33,1176.55,-6.0,10.1
2.18,0.25,0.0,0.0,0.0,0.0,1.75,0.0,5.25,1.75,7.75,3.5,10.5,10.0,-0.36,-0.17,1.02,613.18,-5.6,-81.2,7.75,2.5,6.0,6.75,9.5,8.0,4.75,6.5,5.75,6.25,5.75,2.75,4.5,0.08,-0.05,1.08,1356.5,-5.2,6.4
2.2,1.25,0.25,0.0,0.0,3.75,3.5,0.25,6.0,2.0,8.75,5.0,10.5,11.5,-0.36,-0.17,1.08,708.16,-5.1,-62.1,7.0,2.75,4.25,6.25,9.5,8.0,4.25,6.5,5.25,6.25,5.0,2.75,4.5,0.14,0.02,0.95,1414.94,-3.8,5.2
2.22,0.0,0.0,0.0,0.0,3.75,1.75,0.0,6.0,1.25,7.75,3.5,9.0,10.0,-0.36,-0.17,0.95,731.1,-6.5,-67.5,6.5,2.75,4.0,6.25,9.25,7.75,3.5,6.5,4.75,6.0,5.0,2.75,4.5,0.27,0.02,0.95,1403.98,-3.4,4.5
2.24,0.0,0.0,0.0,0.5,0.0,2.25,0.0,5.25,1.25,7.75,3.25,8.75,9.75,-0.3,-0.23,0.95,721.76,-6.7,-78.1,6.25,2.5,4.0,5.75,8.5,7.75,3.25,6.25,4.75,5.25,3.25,2.75,4.5,0.2,0.02,0.95,1341.06,-3.3,5.9
2.26,0.0,0.0,0.0,0.25,0.0,1.5,0.0,5.25,1.0,7.0,3.25,8.5,9.75,-0.36,-0.17,1.08,667.05,-6.6,-81.4,5.25,2.5,4.0,5.0,8.5,7.5,3.25,5.75,4.25,5.25,4.0,2.25,3.5,0.14,0.08,0.95,1242.77,-3.1,6.3
2.28,0.0,0.0,0.0,0.5,0.0,2.0,0.0,5.25,1.0,7.25,3.25,8.25,9.75,-0.42,-0.23,1.2,611.78,-6.8,-78.7,5.0,2.0,4.0,5.0,8.5,7.25,3.25,5.75,4.0,5.25,3.75,2.25,2.75,0.08,0.08,0.89,1126.9,-3.2,7.1
2.3,0.25,0.0,0.0,0.5,2.5,2.25,0.0,5.25,1.0,6.5,2.5,7.75,9.25,-0.42,-0.23,1.08,575.06,-6.6,-66.2,5.0,2.25,4.0,5.0,7.5,7.25,3.0,5.5,3.5,5.25,3.75,2.0,2.5,0.08,0.08,0.89,1014.7,-3.4,8.2
2.32,0.0,0.0,0.0,0.25,0.5,1.75,0.0,5.0,1.0,6.5,2.25,7.5,8.75,-0.48,-0.23,1.14,538.43,-7.2,-77.1,4.25,2.0,4.0,4.0,7.25,7.0,3.0,5.5,3.5,5.25,4.0,2.5,2.75,0.14,0.08,0.89,911.67,-2.8,3.3
2.34,0.0,0.0,0.0,0.0,0.0,1.25,0.0,4.25,0.75,5.0,1.75,6.25,7.75,-0.55,-0.23,1.27,473.84,-7.5,-81.9,3.75,2.0,4.0,3.75,7.0,7.0,3.0,5.75,3.5,6.0,4.5,2.75,4.0,0.14,0.08,0.89,846.96,-1.9,-2.9
2.36,0.0,0.0,0.0,0.0,0.0,1.25,0.0,4.0,1.0,3.75,1.0,5.0,6.75,-0.48,-0.23,1.27,388.37,-7.9,-79.7,3.5,2.0,3.75,4.25,7.0,7.25,2.75,5.75,3.5,6.75,5.0,3.75,4.5,0.14,0.02,0.95,816.21,-1.4,-7.2
2.38,0.0,0.0,0.0,0.25,0.0,1.5,0.0,3.75,1.0,2.75,1.0,2.0,5.25,-0.36,-0.23,1.08,301.19,-9.5,-69.2,3.5,2.0,3.5,4.5,7.0,7.25,2.75,6.25,3.5,7.25,5.0,4.25,5.75,0.14,0.02,0.95,828.24,-0.8,-11.0
2.4,0.0,0.0,0.0,0.5,0.0,1.0,0.0,3.0,0.75,2.75,0.75,1.75,3.75,0.83,2.64,0.83,233.96,-8.8,-67.2,3.75,2.25,3.0,4.5,7.0,7.25,2.5,6.5,4.0,7.75,5.75,5.25,6.75,0.14,0.02,0.95,883.05,-0.5,-15.4
2.42,0.0,0.0,0.0,0.5,0.0,0.75,0.0,2.25,0.75,1.5,0.75,1.75,1.75,-0.3,1.58,2.2,160.2,-6.0,-61.9,3.75,2.0,3.75,4.5,7.0,7.0,2.75,6.75,3.5,8.5,6.0,6.0,7.75,0.14,0.02,0.95,960.05,-0.6,-18.3
2.44,0.0,0.0,0.0,0.5,0.0,1.0,0.0,2.0,0.75,0.75,0.75,0.25,1.5,0.14,1.77,1.02,91.67,-8.0,-47.0,3.25,2.25,2.5,4.25,7.0,7.25,2.5,7.0,3.5,8.75,6.0,6.0,8.0,0.14,0.02,0.95,1016.5,0.6,-21.0
2.46,0.0,0.0,0.0,0.0,0.0,0.75,0.0,2.0,0.75,0.0,0.75,0.5,1.5,-0.42,1.45,1.2,47.56,-7.9,-58.1,2.75,2.0,2.75,4.5,7.0,7.25,2.25,7.25,3.5,9.0,6.5,6.5,8.25,0.14,0.02,0.95,1061.17,0.7,-23.3
2.48,0.0,0.0,0.0,0.0,0.0,0.75,0.0,1.75,0.75,0.5,0.75,0.25,1.5,-0.48,1.2,0.89,19.27,-8.9,-58.2,3.0,2.0,2.25,4.0,6.0,6.75,2.25,7.5,3.5,9.5,6.75,6.75,8.25,0.14,0.02,0.95,1077.55,1.0,-26.8
2.5,0.0,0.0,0.0,0.0,0.0,0.0,0.0,1.75,0.5,0.25,0.75,0.25,1.5,-0.55,0.95,0.95,0.98,-7.6,-71.3,3.25,2.0,1.5,3.75,5.5,7.0,2.25,7.5,3.25,9.5,6.75,7.25,9.0,0.14,0.02,0.95,1086.41,1.5,-29.7
2.52,0.0,0.0,0.0,0.0,0.0,0.0,0.0,1.0,0.5,0.5,0.75,0.25,1.0,-0.48,0.58,1.02,0.0,-5.6,-72.7,3.0,1.75,1.5,2.75,5.5,6.75,2.25,7.5,3.0,9.5,6.75,7.5,9.0,0.14,0.02,0.95,1076.03,1.9,-32.5
2.54,0.0,0.0,0.0,0.0,0.0,0.25,0.0,1.0,1.0,2.75,0.75,0.25,1.25,-0.36,0.39,1.08,9.66,-8.4,-69.1,3.0,2.0,1.5,3.0,5.25,6.75,2.0,7.5,2.75,9.5,6.75,7.5,9.0,0.14,0.02,0.95,1065.91,1.9,-32.1
2.56,0.25,0.5,0.0,1.0,3.75,1.0,0.0,2.0,0.75,2.75,1.0,0.75,1.75,-0.17,0.27,1.14,78.35,-4.8,-16.6,2.5,2.0,1.5,2.5,5.25,6.75,1.75,7.5,2.25,9.5,6.5,7.25,9.0,0.14,0.02,0.95,1037.49,2.6,-33.4
2.58,0.75,0.5,0.0,0.0,3.75,1.0,0.25,2.0,1.0,2.75,1.0,0.75,1.5,-0.17,0.14,1.2,139.81,-4.4,-16.6,2.5,2.0,1.5,3.25,5.25,6.5,1.25,7.25,2.25,9.25,6.0,6.75,9.0,0.2,0.02,0.95,999.78,2.5,-31.6
2.6,0.5,0.75,0.0,0.5,3.75,1.25,0.0,2.0,1.0,2.75,1.0,0.75,1.75,-0.17,0.02,1.14,191.42,-4.7,-15.1,2.25,1.25,1.5,2.0,4.75,6.0,1.0,6.75,1.5,8.0,6.0,6.5,9.0,0.2,0.02,0.95,927.64,3.1,-36.1
2.62,0.5,0.25,0.0,0.0,3.75,2.0,0.0,2.0,1.0,2.5,1.0,0.75,1.5,-0.3,-0.05,1.2,217.96,-6.5,-16.6,2.75,0.5,1.5,1.75,4.5,5.75,1.25,6.25,1.5,8.5,5.0,5.25,8.0,0.2,0.02,0.95,839.03,3.2,-34.5
2.64,0.25,0.5,0.0,0.25,3.75,1.0,0.25,2.0,1.0,2.75,1.0,1.25,1.5,-0.36,-0.11,1.14,231.52,-4.8,-21.7,1.25,0.25,0.0,0.0,1.75,4.25,0.75,6.25,0.75,7.0,5.0,5.25,8.0,0.2,0.02,1.02,704.82,6.5,-56.0
2.66,0.5,0.0,0.0,0.25,3.75,1.0,0.0,2.0,1.0,2.75,1.0,1.5,1.75,-0.48,-0.11,1.08,235.6,-5.0,-27.0,2.25,0.25,1.5,0.0,2.5,3.25,0.75,5.75,1.0,5.25,2.75,3.0,6.75,0.2,0.08,1.08,562.77,3.9,-38.9
2.68,0.25,0.75,0.0,0.0,3.75,1.0,0.0,2.0,0.75,1.75,1.0,0.5,1.75,-0.73,-0.11,1.02,231.92,-5.6,-14.2,2.5,1.75,1.5,1.0,3.5,3.25,1.0,4.25,1.0,4.5,3.0,3.0,5.5,0.2,0.08,1.14,459.35,1.0,-22.8
2.7,0.25,0.5,0.0,0.25,3.75,0.25,0.25,2.0,0.75,2.25,1.25,1.75,1.5,-0.86,-0.17,0.95,229.35,-3.2,-26.0,2.25,1.5,0.0,0.5,1.5,3.25,0.75,3.75,1.5,0.75,2.5,1.5,3.75,0.77,0.2,1.7,343.44,1.4,-18.7
2.72,0.25,0.5,0.0,0.75,3.75,1.0,0.5,2.0,1.0,2.25,1.0,1.5,1.5,-1.05,-0.23,0.77,230.17,-3.3,-18.5,2.25,1.25,1.5,1.75,1.75,3.0,1.0,3.5,1.5,2.5,2.0,1.5,2.75,0.39,0.27,1.39,288.93,-1.5,-9.7
2.74,0.0,0.5,0.0,0.0,3.75,1.0,1.0,2.0,0.75,0.5,1.25,1.25,1.5,-1.11,-0.23,0.45,221.3,-3.2,-15.7,2.0,1.75,1.25,1.5,2.25,3.25,1.0,2.25,1.5,2.0,2.25,1.25,2.75,0.02,1.52,1.2,253.68,-1.8,-4.8
2.76,0.0,0.0,0.0,0.0,3.75,0.0,0.0,0.0,0.5,0.0,0.5,0.25,0.0,-1.11,-0.8,0.27,178.34,-0.1,26.8,2.25,1.5,1.5,3.0,1.75,3.25,1.0,2.0,1.5,1.5,2.0,1.25,2.5,-0.48,2.14,0.95,244.78,-4.1,1.9
2.78,0.5,0.0,0.0,0.0,0.75,0.0,0.0,0.25,0.75,0.0,0.5,0.0,0.0,-0.3,-1.42,0.89,116.66,8.3,6.1,2.25,1.5,1.25,2.75,1.75,2.75,1.0,2.0,1.5,2.5,2.0,1.25,2.0,-0.55,1.7,0.95,239.7,-3.7,-0.7
2.8,2.0,0.0,0.0,0.0,0.5,0.5,0.25,0.5,0.75,0.0,0.0,0.0,0.25,-0.92,-2.55,1.58,69.08,11.8,34.6,2.25,1.25,1.5,2.0,1.75,3.0,1.0,2.0,1.25,2.25,2.0,1.25,2.5,-0.11,1.58,0.83,244.75,-3.0,-3.9
2.82,5.75,0.75,0.0,3.5,3.75,3.5,0.5,1.75,1.25,1.75,0.5,0.75,1.5,-1.3,-3.86,0.77,153.98,5.0,25.0,2.5,1.0,1.5,2.0,1.75,2.75,1.0,2.0,1.5,2.5,0.75,1.5,2.75,0.08,1.39,0.64,248.76,-2.8,-4.1
2.84,6.0,1.25,3.75,5.0,6.75,5.75,1.0,2.25,1.5,1.25,0.75,0.75,1.5,0.02,0.2,1.27,287.45,7.1,34.1,2.5,1.5,1.5,2.5,1.75,2.0,1.0,2.0,1.5,2.25,1.25,0.75,2.25,0.14,1.2,0.64,255.04,-4.8,3.6
2.86,6.0,2.0,4.75,5.5,8.5,7.0,3.0,2.5,1.75,0.0,1.0,0.25,1.5,-0.23,0.14,1.52,468.65,7.9,40.3,2.75,1.5,1.25,2.5,1.75,2.0,1.0,2.0,1.5,2.5,2.0,1.25,2.25,0.2,0.83,0.7,268.94,-4.8,-1.6
2.88,6.25,0.75,1.25,2.75,8.5,7.75,2.25,4.0,2.0,2.5,1.0,1.25,1.5,-0.3,0.08,1.45,610.94,1.5,21.8,2.5,1.25,1.5,2.25,1.75,2.5,1.0,2.0,1.5,2.75,2.0,0.5,2.25,0.14,0.58,0.89,281.78,-3.7,-0.3
2.9,6.0,2.0,4.75,5.75,9.5,8.75,5.25,5.25,2.75,2.25,1.0,1.75,1.25,-0.3,0.08,1.08,787.64,5.2,26.6,2.25,1.5,1.5,2.25,1.75,2.0,0.75,1.75,1.5,2.75,2.0,0.25,2.5,0.02,0.33,1.08,288.69,-3.8,-0.7
2.92,5.75,1.75,4.75,4.0,9.25,8.0,5.5,6.25,4.75,5.0,1.75,3.25,1.75,-0.48,0.27,1.89,931.94,4.0,11.1,2.25,1.0,1.25,2.25,2.25,2.5,0.75,1.75,1.5,3.0,1.75,1.25,2.25,-0.17,0.2,1.08,294.22,-2.7,-5.0
2.94,5.25,1.75,3.75,4.0,8.5,8.0,5.0,7.0,5.75,6.5,5.75,5.75,5.25,-0.17,-0.23,1.2,1119.49,2.4,-9.0,2.25,1.25,1.25,2.25,1.75,2.5,0.75,2.0,1.25,2.5,2.0,1.25,2.25,-0.23,0.14,1.08,298.83,-3.1,-4.5
2.96,4.0,1.25,2.75,3.5,6.75,7.5,4.25,7.0,5.75,6.5,6.75,6.5,6.0,-0.05,-0.17,1.08,1222.99,1.3,-19.0,2.25,1.25,1.5,2.25,1.75,2.5,0.0,0.25,1.25,3.0,0.75,1.25,1.0,-0.11,0.02,1.2,284.89,-5.0,8.5
2.98,3.5,1.25,1.25,3.5,5.75,7.0,3.0,7.0,5.25,6.5,6.5,6.75,7.0,-0.11,-0.11,0.95,1254.17,-0.1,-25.4,1.5,0.25,0.0,0.75,1.25,1.25,0.25,0.25,1.0,0.75,0.75,0.25,1.0,0.02,-0.05,1.14,233.9,-3.2,3.2
3.0,3.25,1.25,0.5,3.5,4.25,6.5,2.25,7.0,5.25,6.25,6.0,6.75,7.0,-0.17,-0.11,0.95,1185.64,-0.7,-29.6,1.25,0.5,0.0,0.25,1.5,1.5,0.25,0.25,0.75,1.25,0.75,0.25,1.0,0.08,-0.11,1.14,182.65,0.1,-0.3
3.02,2.25,0.75,0.75,3.25,3.75,5.5,1.75,6.25,4.75,6.25,6.0,6.75,7.0,-0.17,-0.11,0.95,1071.32,-1.0,-35.0,1.25,0.25,0.0,0.0,1.5,2.0,0.25,0.25,1.0,2.5,0.75,1.25,1.0,0.14,-0.11,1.14,146.53,2.3,-20.2
3.04,1.75,0.75,0.0,3.25,3.5,5.0,2.0,6.0,4.25,5.0,6.0,7.0,7.0,-0.11,-0.05,0.95,938.62,-1.3,-38.0,2.5,1.25,1.5,0.75,1.75,2.0,0.75,1.25,1.0,2.5,2.0,1.25,2.25,0.2,-0.11,1.14,173.78,-4.1,-6.5
3.06,1.0,0.5,0.0,1.75,4.25,3.5,3.0,5.0,3.75,6.0,5.5,7.5,7.25,-0.11,-0.05,0.95,817.17,-1.7,-45.2,2.25,1.5,1.5,1.25,1.75,2.0,0.75,1.25,1.25,3.0,2.0,1.25,2.0,0.2,-0.11,1.14,212.87,-4.0,-5.5
3.08,1.75,0.5,0.0,1.75,3.75,3.5,1.5,4.0,4.25,5.5,5.25,8.0,7.5,-0.11,-0.05,0.95,736.01,-1.1,-46.0,2.25,1.5,0.5,1.5,1.75,2.0,0.75,1.25,1.25,2.25,2.0,1.25,2.0,0.27,-0.17,1.02,245.01,-3.2,-5.5
3.1,1.75,0.5,0.0,1.75,4.25,3.25,1.5,5.25,3.5,5.75,5.5,8.75,8.75,-0.17,-0.05,0.95,710.08,-1.8,-48.1,2.5,1.5,1.5,2.0,1.75,1.5,0.75,1.5,1.5,2.5,2.0,1.25,1.0,0.33,-0.17,0.89,264.02,-6.6,3.0
3.12,1.75,0.25,0.0,0.75,4.25,3.25,1.5,5.0,3.5,6.5,6.0,9.0,9.5,-0.11,-0.11,0.95,710.95,-2.4,-52.9,2.25,1.5,1.5,2.25,1.75,1.0,0.75,1.0,1.5,2.5,2.0,1.25,1.75,0.2,-0.11,0.83,272.57,-6.9,-1.2
3.14,1.75,0.5,0.0,1.5,3.75,2.5,1.0,5.25,3.25,6.5,6.0,9.5,9.75,-0.17,-0.11,0.95,715.89,-2.0,-54.1,2.5,2.0,1.5,2.25,1.75,2.0,1.0,0.5,1.25,2.5,2.0,1.25,2.0,0.45,-0.61,0.89,283.09,-6.5,3.8
3.16,1.75,1.25,0.0,1.0,3.75,3.25,0.5,5.25,3.25,7.0,6.0,9.5,10.5,-0.17,-0.11,0.95,743.22,-2.7,-53.2,3.5,2.0,1.5,2.75,1.75,2.75,1.0,0.0,1.25,2.5,2.0,1.0,2.0,0.33,-0.92,0.52,298.19,-7.4,11.7
3.18,1.75,0.5,0.25,1.0,3.75,3.25,1.0,5.25,3.25,7.5,6.0,9.75,11.0,-0.23,-0.11,1.02,777.8,-2.7,-55.5,3.75,2.0,1.5,2.75,3.75,3.0,0.75,0.5,1.5,2.75,2.0,1.25,2.0,0.64,-1.98,1.2,337.37,-5.8,12.8
3.2,1.75,0.5,0.0,0.0,3.75,3.0,1.0,5.25,3.25,7.25,6.25,10.5,11.0,-0.17,-0.11,0.95,815.14,-2.9,-59.4,5.0,2.0,1.5,2.25,5.25,4.0,1.0,0.0,1.5,2.25,2.0,1.25,2.25,1.52,-3.3,1.39,384.26,-5.9,19.6
3.22,1.75,0.75,0.0,0.0,3.75,3.5,1.25,4.75,3.25,7.0,6.0,9.5,9.75,-0.23,-0.11,0.95,820.62,-2.8,-55.3,5.0,1.25,4.0,4.0,5.25,5.5,1.0,2.0,1.5,1.5,0.75,1.0,0.0,1.02,0.39,1.27,445.32,-8.0,36.1
3.24,0.25,0.0,0.0,0.0,3.0,1.25,0.25,4.0,2.25,5.75,5.25,9.25,9.75,-0.23,-0.17,0.95,762.36,-3.8,-70.7,5.0,2.0,4.0,4.75,7.0,6.5,3.25,3.5,4.75,6.25,2.0,3.5,2.75,0.52,-0.23,1.14,604.1,-4.2,4.7
3.26,0.25,0.0,0.0,0.0,3.0,0.75,0.25,4.0,2.0,6.0,4.75,9.25,9.75,-0.23,-0.11,1.08,697.36,-3.9,-72.1,5.25,2.25,4.0,4.25,7.0,6.75,4.0,6.0,6.25,7.75,6.75,6.0,5.75,0.08,-0.17,1.39,844.4,-3.1,-13.2
3.28,1.75,0.0,0.75,0.5,5.75,2.5,1.5,5.25,2.5,6.75,6.25,11.0,11.5,-0.23,-0.17,0.95,733.69,-2.1,-54.9,5.25,2.0,4.0,4.25,7.0,7.0,3.5,6.5,5.75,8.0,7.75,6.0,7.75,-0.05,-0.05,1.02,1089.88,-2.2,-17.3
3.3,1.5,0.0,0.0,0.5,3.75,2.75,0.5,5.0,2.5,7.5,5.5,11.0,11.5,-0.23,-0.17,0.95,769.49,-3.5,-62.5,5.25,2.5,2.5,3.25,7.0,7.25,3.0,6.5,4.75,7.75,7.0,5.75,7.5,0.14,0.02,1.02,1241.48,-0.9,-17.5
3.32,0.0,0.0,0.0,0.0,3.75,1.75,0.25,5.0,2.0,6.25,5.75,9.0,11.0,-0.3,-0.17,1.02,770.54,-4.9,-68.5,4.25,2.0,1.5,3.0,6.5,7.25,2.25,6.5,4.5,7.75,6.0,5.25,7.5,0.2,0.08,0.95,1263.19,0.6,-20.9
3.34,0.0,0.0,0.0,0.0,2.25,1.0,0.0,4.0,1.75,6.25,3.5,9.0,9.75,-0.3,-0.23,0.77,698.63,-5.1,-75.5,3.5,2.0,1.5,3.25,5.5,7.25,1.75,6.5,4.25,7.75,5.75,5.25,7.25,0.27,0.02,0.89,1196.2,1.1,-22.9
3.36,0.25,0.0,0.0,0.0,1.75,1.0,0.0,3.75,1.5,6.0,3.5,9.0,9.75,-0.36,-0.3,0.89,621.57,-4.9,-77.0,3.0,2.0,1.5,3.75,5.5,7.5,1.75,6.5,4.0,7.75,5.25,5.25,6.75,0.2,0.02,0.95,1114.86,1.3,-21.7
3.38,0.0,0.0,0.0,0.5,2.25,1.0,0.0,3.75,1.5,6.0,3.5,8.75,9.75,-0.3,-0.23,1.08,557.49,-4.9,-73.9,3.0,2.0,1.5,3.25,5.5,6.75,1.75,6.25,3.25,7.25,5.0,5.25,6.75,0.2,0.08,0.95,1032.93,1.2,-22.1
3.4,0.0,0.0,0.0,0.5,2.25,1.0,0.0,3.75,1.5,6.25,3.5,8.75,9.75,-0.3,-0.3,0.89,530.55,-4.9,-73.9,2.75,2.0,1.5,4.0,5.5,6.75,1.75,6.25,3.5,7.75,5.0,5.0,6.75,0.14,0.08,0.89,978.2,1.3,-21.7
3.42,0.0,0.0,0.0,0.5,0.5,1.25,0.0,3.5,1.25,5.25,3.0,8.25,9.5,-0.3,-0.3,0.95,502.27,-5.3,-80.6,2.75,2.0,1.5,3.75,5.5,6.75,1.25,6.25,3.0,7.75,5.0,5.25,6.75,0.14,0.02,0.89,925.03,1.6,-22.5
3.44,0.0,0.0,0.0,0.0,2.25,1.0,0.0,3.25,1.25,5.25,3.25,8.0,8.75,-0.36,-0.36,1.02,482.39,-5.1,-74.8,2.5,2.0,1.5,3.25,5.5,6.5,1.25,6.25,2.75,7.75,5.0,5.25,7.25,0.14,0.02,0.89,876.15,2.0,-24.7
3.46,0.0,0.0,0.0,0.0,1.25,1.0,0.0,2.75,1.0,4.5,2.25,7.5,8.25,-0.42,-0.3,1.2,438.71,-5.4,-79.7,2.5,2.0,1.5,3.25,5.5,6.75,1.25,6.5,3.0,8.25,5.25,5.75,7.75,0.14,0.02,0.95,844.21,2.1,-26.6
3.48,0.0,0.0,0.0,0.0,0.0,1.25,0.0,2.25,1.0,3.5,2.0,6.0,7.75,-0.48,-0.3,1.33,381.97,-6.0,-85.2,2.75,2.0,1.5,3.75,5.25,6.5,1.75,6.5,2.75,8.5,5.75,6.0,7.75,0.14,0.02,0.95,825.02,1.5,-26.7
3.5,0.0,0.0,0.0,0.0,0.0,1.0,0.0,2.25,1.0,2.75,1.0,4.75,6.25,-0.36,-0.3,1.52,310.2,-6.6,-83.9,3.0,1.5,1.5,3.25,5.5,6.75,1.75,7.0,2.75,8.75,6.0,6.0,8.25,0.14,0.02,0.95,839.57,2.0,-28.6
3.52,0.0,0.0,0.0,0.25,0.0,1.0,0.0,2.0,1.0,1.25,1.0,2.5,4.75,-0.11,-0.3,1.08,240.92,-6.7,-75.9,2.5,1.75,1.5,2.75,5.5,7.0,1.75,7.25,2.75,8.75,6.0,6.0,8.25,0.2,0.02,0.89,867.97,2.5,-29.6
3.54,0.0,0.0,0.0,0.5,0.0,1.0,0.0,2.0,1.0,1.25,1.0,1.75,3.75,0.14,3.08,0.39,185.71,-6.5,-68.1,2.5,2.0,1.5,2.75,5.25,6.5,1.75,7.25,3.0,9.0,6.0,6.5,8.25,0.2,0.02,0.95,902.36,2.2,-30.8
3.56,0.0,0.0,0.0,0.5,0.0,1.0,0.0,1.75,1.0,1.25,1.0,1.25,2.0,0.14,1.77,1.89,133.8,-5.7,-59.0,2.5,1.75,1.5,3.75,5.25,6.75,1.75,7.5,2.75,9.25,6.0,6.5,8.75,0.2,0.02,0.95,936.07,2.3,-30.4
3.58,0.25,0.0,0.0,0.5,0.0,1.0,0.0,2.0,1.0,0.75,0.75,0.25,1.75,0.2,1.83,0.89,91.24,-6.3,-44.6,2.5,1.75,1.5,3.0,5.25,6.75,1.75,7.5,2.75,9.5,6.0,6.5,9.0,0.2,0.02,0.95,959.8,2.6,-32.0
3.6,0.0,0.0,0.0,0.5,0.0,0.0,0.0,2.0,0.75,0.25,1.0,0.25,1.75,-0.42,1.52,1.02,52.46,-4.8,-60.1,2.5,1.75,1.5,2.75,5.25,6.75,1.75,7.75,2.25,9.5,6.0,6.75,9.0,0.2,0.02,0.95,975.45,2.8,-32.7
3.62,0.0,0.0,0.0,0.0,0.0,0.0,0.0,2.0,0.75,0.75,0.75,0.25,1.5,-0.55,1.14,0.95,28.76,-7.8,-69.0,2.25,1.75,1.5,3.25,5.25,6.75,1.75,7.5,2.5,9.5,6.0,6.5,9.0,0.2,0.02,0.89,983.34,2.7,-32.1
3.64,0.0,0.0,0.0,0.0,0.0,0.0,0.0,1.5,0.75,0.5,0.75,0.5,1.5,-0.48,0.89,0.95,16.41,-5.9,-73.3,2.5,1.25,1.5,2.75,5.25,6.5,1.75,0.0,2.25,9.5,6.0,6.5,9.0,0.2,0.02,0.89,922.02,1.0,-33.0
3.66,0.0,0.0,0.0,0.25,0.0,0.0,0.0,1.0,0.5,0.5,0.75,0.25,1.5,-0.3,0.58,1.08,13.12,-5.2,-69.5,2.5,1.75,1.5,2.75,5.25,6.75,1.75,0.0,2.25,9.5,6.0,6.5,8.5,0.2,0.02,0.95,863.87,0.8,-30.7
3.68,0.0,0.0,0.0,0.0,0.0,0.0,0.0,1.0,0.5,0.25,0.75,0.0,1.5,-0.11,0.45,1.39,11.36,-6.9,-75.0,2.5,2.0,1.5,2.75,5.25,6.75,1.75,0.0,2.25,8.75,6.0,6.0,8.5,0.27,0.02,0.95,801.4,0.6,-28.7
3.7,0.0,0.5,0.0,0.25,0.0,1.75,0.0,0.25,1.25,0.5,0.5,1.75,1.5,0.08,0.2,1.45,38.73,-2.9,-45.2,2.25,1.75,1.5,3.25,5.25,7.5,1.75,7.25,1.75,8.75,5.0,5.5,8.25,0.2,0.02,0.95,799.79,3.2,-27.6
3.72,0.0,0.0,0.0,0.0,0.0,0.0,0.0,0.75,0.5,0.5,0.5,0.25,1.5,0.14,0.2,1.39,46.07,-7.0,-79.4,2.25,1.75,1.5,2.75,4.75,7.5,1.5,6.5,1.5,7.75,5.0,5.25,7.75,0.27,0.02,0.89,783.77,3.1,-27.2
3.74,0.0,0.0,0.0,0.0,0.0,0.0,0.0,0.5,0.25,0.25,0.5,0.5,1.25,0.02,0.08,1.39,50.83,-5.2,-85.8,2.25,1.75,1.5,2.75,5.25,7.5,1.5,0.0,1.5,6.75,4.25,4.0,7.25,0.2,0.08,0.95,727.36,1.3,-19.6
3.76,0.0,0.5,0.0,0.0,3.75,1.0,0.0,2.0,0.75,1.0,1.0,1.5,1.75,-0.11,0.02,1.2,98.46,-5.1,-21.8,2.5,1.5,1.5,2.5,5.25,7.25,1.25,6.5,1.5,6.5,3.25,2.75,5.5,0.2,0.08,1.02,678.11,3.4,-15.9
3.78,0.5,0.5,0.0,0.0,3.5,1.0,0.0,2.0,1.0,0.75,1.0,1.5,1.75,-0.3,0.02,1.14,142.11,-3.3,-18.7,2.25,2.0,1.5,0.75,5.25,0.0,1.0,0.0,1.25,5.5,2.5,1.5,4.5,0.2,0.08,1.02,522.65,-2.5,-15.2
3.8,0.5,0.75,0.0,0.5,3.75,1.75,0.0,2.0,1.0,0.25,1.25,1.0,1.5,-0.61,-0.11,1.39,185.67,-2.8,-4.3,2.25,1.25,1.5,2.0,5.25,5.75,1.0,0.0,1.25,5.25,2.25,1.5,2.75,0.27,0.08,1.08,432.2,0.4,-0.3
3.82,0.5,0.5,0.0,0.0,3.75,0.75,0.0,2.0,0.75,1.25,1.0,0.75,1.75,-0.55,-0.05,0.27,205.01,-4.3,-14.7,1.25,0.25,0.0,1.25,2.5,5.0,0.5,0.0,1.0,3.25,1.5,0.25,1.75,0.27,0.14,1.08,307.38,4.8,-4.3
3.84,0.5,0.5,0.0,0.0,3.75,1.0,0.0,2.0,1.0,1.75,1.0,0.75,1.75,-0.73,-0.42,1.33,218.43,-4.8,-16.4,0.5,0.25,1.0,0.0,1.75,4.75,0.0,0.0,1.25,4.5,0.75,1.5,1.5,0.39,-0.05,1.14,244.31,5.9,-21.4
3.86,0.75,0.5,0.0,0.0,3.75,1.0,0.0,2.0,1.0,1.5,1.0,0.75,1.5,-0.48,-0.48,1.14,218.7,-3.7,-11.9,2.25,0.75,0.0,0.0,1.5,3.75,0.0,0.0,1.0,3.25,1.5,0.75,1.25,0.39,0.08,0.7,179.29,2.3,-7.6
3.88,0.0,0.0,0.0,0.0,0.0,0.75,0.0,0.0,1.0,0.5,0.5,0.0,0.75,-0.55,-0.73,1.14,175.1,-5.0,-50.1,2.25,1.5,1.25,1.5,1.75,3.25,0.75,0.5,1.0,3.25,2.0,0.0,1.75,0.02,0.64,0.95,174.99,-2.5,5.0
3.9,0.25,0.0,0.0,0.0,3.75,0.0,0.0,0.0,0.75,0.25,0.5,0.0,0.5,-0.73,-1.3,1.02,145.72,-0.4,17.4,2.25,1.0,0.0,2.0,1.5,3.5,0.75,0.0,1.0,2.5,0.75,1.25,0.25,-0.23,0.58,1.2,158.37,-2.5,12.1
3.92,0.5,0.25,0.0,0.0,0.0,0.25,0.0,0.0,0.5,0.0,0.5,0.25,0.5,-0.8,-1.98,1.08,94.22,7.6,-22.2,2.25,1.0,1.0,2.25,1.75,2.75,0.75,0.75,0.5,3.5,2.0,1.25,1.0,-0.05,0.77,0.83,176.78,-3.3,0.2
3.94,1.75,0.5,0.0,0.0,0.0,1.0,0.0,0.5,1.0,0.0,0.5,0.0,1.0,-1.11,-3.17,1.58,79.18,6.0,5.9,2.25,1.5,1.0,2.0,1.75,3.25,0.75,2.0,0.5,2.75,2.0,1.25,1.0,0.14,0.77,0.77,197.96,-2.3,3.0
3.96,3.5,0.0,0.0,0.75,0.0,1.0,0.0,1.5,1.0,0.0,0.75,1.5,1.5,-0.48,1.02,2.7,96.75,8.2,-7.7,2.25,1.5,0.25,2.0,1.75,3.5,0.75,2.0,1.0,3.75,2.0,1.5,0.75,0.2,0.7,0.7,229.96,-0.5,-2.9
3.98,4.5,1.5,3.75,3.5,1.25,3.5,1.0,2.25,1.75,1.25,0.75,2.5,2.25,-0.23,-0.05,1.58,209.22,9.3,13.1,0.25,0.25,1.0,0.75,1.75,1.25,0.75,2.0,0.75,3.0,2.0,1.0,0.25,0.27,0.7,0.45,222.2,0.2,-20.3
4.0,4.75,1.75,3.75,3.5,4.25,4.25,2.75,2.75,2.0,1.25,3.25,3.25,3.75,-0.17,0.08,1.45,334.89,7.2,5.0,2.25,1.5,0.0,0.5,0.25,1.25,0.0,0.5,1.0,2.25,0.75,1.25,0.25,0.27,0.7,0.39,200.09,-4.9,-0.1
4.02,5.75,1.25,4.75,3.5,6.25,4.75,2.5,2.75,1.5,2.5,2.5,4.0,4.0,-0.17,-0.05,1.2,513.32,6.7,6.8,2.25,1.5,0.25,2.0,1.75,1.5,0.75,1.5,1.0,2.75,2.0,1.25,1.0,0.2,0.64,0.39,212.79,-3.7,-1.9
4.04,5.5,1.75,0.0,3.75,5.75,5.0,5.0,2.25,2.25,0.0,3.25,4.75,5.25,-0.11,0.02,1.08,636.73,4.9,-0.7,2.25,1.5,0.0,2.0,1.75,1.75,0.75,1.5,1.0,2.5,2.0,1.5,0.75,0.08,0.58,0.45,222.38,-3.5,-1.3
4.06,5.0,1.75,5.0,3.5,5.75,5.5,5.5,3.5,2.75,2.25,3.5,5.0,5.25,-0.05,0.02,1.02,769.59,6.4,-0.7,2.25,1.75,1.25,2.0,1.75,1.5,0.75,1.25,1.0,2.5,2.0,0.75,1.5,-0.05,0.58,0.58,250.85,-5.6,3.8
4.08,5.25,1.75,4.75,3.5,6.5,5.5,6.0,2.25,3.25,3.75,2.0,5.75,6.0,-0.11,0.02,0.95,860.69,6.0,-2.2,0.5,0.25,1.25,0.5,1.75,1.25,0.75,1.25,0.5,1.0,2.0,0.0,0.75,-0.05,0.58,0.58,230.41,-3.0,-3.0
4.1,4.75,1.5,5.0,3.5,6.5,5.75,5.75,4.0,3.5,2.75,3.5,6.0,6.25,-0.11,-0.05,0.95,954.1,5.4,-5.9,1.0,0.25,0.0,0.25,1.5,0.75,0.0,0.25,0.5,0.5,0.75,0.0,0.25,0.02,0.58,0.58,183.04,-2.7,16.2
4.12,5.25,1.5,4.5,3.5,6.5,5.75,6.0,4.25,4.0,3.75,4.0,6.5,7.0,-0.05,0.02,1.14,1037.98,4.8,-9.9,1.25,0.25,0.0,0.5,1.5,1.25,0.0,0.25,0.25,0.25,0.75,0.25,0.75,0.02,0.58,0.58,129.69,-2.0,13.3
4.14,5.25,1.75,4.75,3.5,6.5,5.75,6.25,5.0,4.25,5.0,4.5,6.75,7.0,-0.11,-0.11,1.02,1107.76,4.5,-11.8,2.5,1.5,0.0,2.25,1.25,1.25,0.0,0.25,0.5,0.5,0.75,0.0,1.5,0.02,0.64,0.45,125.03,-7.3,27.8
4.16,5.25,1.25,4.5,3.5,6.5,5.75,6.25,5.25,4.25,5.0,4.75,7.0,7.0,-0.11,-0.11,1.02,1141.44,4.2,-13.7,2.5,1.75,0.0,2.25,1.5,2.75,1.0,1.25,1.0,3.0,2.0,1.25,1.75,1.83,-0.36,0.14,174.21,-2.1,-2.5
4.18,5.25,1.0,4.75,3.5,6.5,5.75,6.25,5.25,4.25,5.0,4.75,7.25,7.75,-0.11,-0.11,0.95,1146.29,4.2,-15.4,2.25,1.25,1.5,2.25,2.25,3.5,1.0,0.5,0.75,0.75,2.0,0.0,1.5,0.77,-3.36,2.45,220.88,-5.7,21.3
4.2,5.25,1.25,4.75,3.5,5.75,5.75,6.25,5.25,4.25,5.0,4.75,7.5,7.75,-0.11,-0.11,0.95,1124.63,4.3,-16.2,1.25,0.25,0.0,0.5,1.75,2.5,0.5,0.0,0.0,0.0,0.5,0.0,0.0,1.39,-2.67,1.33,207.68,-0.7,46.6
4.22,5.25,1.0,4.75,3.5,6.0,5.5,6.25,5.0,4.25,5.0,5.25,7.5,7.75,-0.11,-0.11,0.95,1088.06,4.5,-16.9,1.25,0.25,0.0,0.0,1.5,3.75,0.75,0.0,0.25,1.5,0.25,0.75,1.0,0.39,0.2,0.89,191.26,5.2,2.4
4.24,5.25,1.5,4.5,3.5,5.75,5.5,6.25,5.0,4.25,5.0,5.0,7.5,7.75,-0.11,-0.11,0.95,1061.8,4.4,-16.4,2.25,1.75,1.5,2.25,3.25,3.75,1.0,0.0,0.5,2.25,2.0,1.0,0.75,-0.05,0.27,0.83,214.29,-4.8,19.1
4.26,5.25,1.25,4.75,3.5,5.75,5.5,6.25,4.25,4.25,5.0,5.25,7.5,7.75,-0.11,-0.11,0.95,1042.57,4.8,-16.5,2.25,1.5,1.5,2.25,2.25,3.75,1.0,0.0,0.5,3.0,2.0,1.25,1.0,0.02,0.08,0.89,244.43,-4.3,10.1
4.28,4.75,1.25,4.5,3.5,5.5,5.5,6.25,4.5,4.25,5.0,4.5,7.5,7.75,-0.11,-0.11,0.95,1015.21,4.3,-17.4,2.25,1.5,1.5,2.75,1.75,3.5,1.0,0.0,0.5,2.75,2.0,1.25,0.25,0.08,0.08,0.89,277.06,-6.1,15.3
4.3,4.5,1.25,4.75,3.5,6.0,5.5,6.25,4.5,4.25,5.0,4.5,7.5,7.75,-0.11,-0.11,0.95,985.97,4.3,-16.8,2.25,1.5,1.5,2.25,1.75,3.75,1.0,0.0,0.75,2.25,2.0,1.25,1.25,0.33,0.08,0.89,297.71,-5.1,9.9
4.32,5.0,1.25,4.75,3.5,5.75,5.5,6.25,4.5,4.0,5.0,4.25,7.5,8.0,-0.11,-0.11,0.95,969.41,4.4,-16.4,2.5,1.0,1.5,0.5,2.25,4.0,1.0,0.0,0.75,1.0,2.0,0.0,1.75,0.27,-0.05,0.83,296.4,-4.1,16.2
4.34,4.75,1.0,4.5,3.5,5.75,5.5,6.75,4.75,4.25,5.0,4.5,7.5,8.0,-0.11,-0.11,0.95,959.21,4.2,-17.8,2.75,1.5,0.75,2.0,2.5,4.5,0.75,0.5,1.0,2.5,2.0,1.25,1.5,0.27,0.14,0.83,301.87,-2.3,7.9
4.36,5.0,1.25,4.5,3.5,5.75,5.5,6.75,4.75,4.0,5.0,4.5,7.5,8.0,-0.11,-0.11,0.95,954.22,4.3,-16.8,2.5,0.75,1.5,2.0,2.5,5.0,1.25,0.0,1.0,3.5,2.0,1.5,1.0,0.27,0.08,0.89,309.01,-2.7,5.3
4.38,4.75,1.25,5.0,3.5,5.25,5.5,6.75,4.75,4.0,5.0,4.5,7.75,8.25,-0.11,-0.11,0.95,954.21,4.5,-18.0,2.25,1.25,1.5,2.25,3.0,5.25,1.25,0.0,0.25,4.5,2.0,1.5,1.75,0.27,0.08,0.95,331.89,-0.9,2.9
4.4,5.0,1.25,4.75,3.5,6.25,5.5,6.75,5.0,4.0,5.0,4.5,8.0,8.5,-0.11,-0.05,0.95,970.94,4.2,-17.4,2.5,1.75,1.5,3.25,3.5,5.25,1.0,0.0,0.25,5.25,2.75,1.75,2.75,0.2,0.08,0.95,370.02,-1.1,-0.3
4.42,5.0,1.25,5.0,3.5,5.5,5.5,6.5,4.75,4.0,5.0,4.5,8.0,8.5,-0.11,-0.11,0.95,977.86,4.4,-18.1,2.25,1.75,1.5,2.25,3.5,5.5,1.0,0.0,0.75,5.25,2.5,2.25,2.75,0.2,0.08,1.02,408.15,-0.4,-4.6
4.44,4.0,0.75,4.5,3.5,5.0,5.5,6.5,4.25,3.75,5.0,4.25,7.75,8.75,-0.11,-0.11,0.95,957.51,3.7,-21.8,2.5,1.5,1.5,1.25,3.25,5.0,1.0,0.0,0.75,5.5,3.0,2.0,3.75,0.2,0.02,1.02,433.15,0.1,-12.3
4.46,3.75,1.0,5.0,3.5,5.5,5.5,6.25,4.0,3.5,5.0,4.5,7.5,8.25,-0.11,-0.11,0.95,934.61,4.0,-19.3,2.5,1.0,1.5,1.75,3.0,4.0,1.0,0.0,0.5,5.25,2.75,2.25,4.5,0.27,0.02,0.83,423.07,-0.3,-17.2
4.48,3.75,1.25,4.75,3.5,5.25,5.25,6.25,4.0,3.5,5.0,4.0,7.5,8.25,-0.11,-0.11,0.95,907.14,4.0,-19.3,3.0,1.25,1.25,2.5,2.75,3.25,0.75,0.0,0.5,5.25,3.0,2.75,5.75,1.02,-0.42,0.77,419.51,-1.1,-20.9
4.5,3.75,0.75,4.25,2.25,5.5,5.25,6.0,4.0,3.0,5.0,3.5,7.5,8.0,-0.11,-0.17,0.95,865.69,3.1,-21.6,2.5,1.25,1.25,2.0,2.5,3.25,1.0,0.0,0.25,5.5,3.25,3.75,5.5,1.08,0.08,0.7,419.72,-0.7,-27.2
4.52,3.5,0.75,3.75,2.0,5.75,4.75,5.75,4.0,2.75,5.0,3.5,7.5,8.0,-0.11,-0.11,0.95,821.53,2.7,-23.4,2.75,1.0,1.0,2.25,2.75,3.75,0.75,0.0,0.5,6.25,4.0,4.25,6.75,0.14,0.27,1.14,447.7,0.1,-32.2
4.54,3.5,0.5,3.75,2.0,3.75,4.5,5.5,4.0,2.75,4.5,3.5,7.5,7.75,-0.11,-0.05,0.95,760.72,3.2,-26.9,2.25,0.25,1.25,2.0,3.25,3.0,0.75,0.0,0.5,5.25,4.0,4.0,7.75,0.33,-0.05,1.27,463.74,0.3,-37.4
4.56,3.25,0.75,3.25,2.5,3.0,3.75,5.25,4.0,2.25,5.0,3.5,7.5,7.75,-0.11,-0.11,0.95,706.59,3.1,-29.6,3.0,0.5,1.25,2.25,3.0,3.5,0.75,0.0,1.0,5.25,4.0,4.0,7.75,0.58,-0.61,1.39,484.94,-0.4,-32.9
4.58,3.5,1.0,0.75,1.0,4.25,2.25,4.25,3.75,2.0,2.75,3.5,6.75,7.75,-0.05,0.02,0.95,622.93,1.9,-33.0,2.25,0.25,0.0,0.75,1.5,3.25,0.5,0.0,0.75,4.5,3.75,3.5,7.75,0.83,-1.67,1.89,453.15,2.7,-49.8
4.6,1.75,0.5,0.0,1.0,2.5,2.25,2.0,2.25,1.25,2.75,2.0,6.75,7.0,-0.11,0.08,0.95,510.75,-0.9,-47.7,2.5,1.25,1.25,2.0,1.75,3.0,0.75,0.0,1.0,4.25,3.25,2.75,6.25,0.83,-2.36,2.45,422.9,-1.3,-27.9
4.62,1.0,0.25,0.0,0.75,0.0,1.0,1.75,2.25,1.0,1.0,2.0,6.25,7.0,-0.11,-0.17,1.02,387.91,-0.3,-68.6,1.0,0.25,0.0,1.0,1.5,1.75,0.75,0.5,0.0,0.75,2.25,1.25,2.25,0.89,-2.92,3.27,317.21,-0.3,-22.7
4.64,0.75,0.5,0.0,0.5,2.25,0.0,1.0,2.0,1.0,2.75,1.0,6.25,6.75,-0.11,-0.11,1.08,315.77,-1.9,-62.3,0.75,0.5,1.25,0.5,1.5,1.5,0.0,0.25,0.5,1.5,0.75,0.25,0.75,1.14,0.7,3.89,237.58,-2.8,5.9
4.66,0.75,0.0,0.0,0.5,0.0,0.0,0.0,2.0,0.75,2.5,1.0,5.75,6.25,-0.48,-0.17,1.2,264.05,-2.9,-81.9,1.0,0.25,0.0,0.5,1.5,1.5,0.0,0.25,0.75,1.75,2.0,1.25,1.75,0.08,0.89,0.14,172.0,0.6,-28.8
4.68,0.5,0.0,0.0,0.5,0.0,0.25,0.0,1.75,0.75,2.0,1.0,5.75,6.25,-0.42,0.02,1.45,234.57,-3.1,-83.4,0.75,0.25,0.0,1.5,1.5,1.5,0.0,0.25,1.0,3.0,1.25,0.75,0.75,-0.11,0.45,1.77,138.8,1.0,-16.3
4.7,0.75,0.0,0.25,0.0,0.0,1.0,0.0,1.0,0.75,1.5,1.0,5.0,6.0,-1.61,-1.98,2.02,207.59,-2.8,-78.9,1.25,1.25,1.5,2.25,1.75,2.75,0.75,0.25,0.75,1.25,0.75,0.0,0.5,-0.05,-0.17,1.64,140.14,-5.9,29.3
4.72,0.25,0.0,0.0,0.0,0.0,1.0,0.0,1.0,0.5,0.5,1.0,4.75,5.25,-0.23,-0.67,-0.11,182.03,-3.7,-85.9,1.25,0.25,1.25,0.5,2.25,2.75,0.0,0.25,1.0,2.25,2.0,1.25,1.75,-0.67,-0.92,1.83,157.82,-0.8,-13.1
4.74,0.0,0.0,0.0,0.0,0.0,0.0,0.25,0.25,0.5,0.5,0.5,3.25,3.75,-1.3,-1.17,1.83,137.57,-2.3,-98.3,2.25,1.5,1.25,2.25,1.5,2.75,0.25,1.5,1.0,1.5,0.75,0.75,0.0,-0.36,-2.23,2.27,182.14,-5.7,23.9
4.76,0.0,0.25,0.0,0.0,0.0,0.0,0.25,0.0,0.25,0.25,0.5,2.5,3.75,0.02,-0.3,1.02,96.86,-2.5,-95.2,1.25,1.75,0.0,2.0,1.75,1.5,0.75,1.0,1.0,0.75,1.5,0.75,1.0,0.52,-2.67,2.14,184.39,-4.3,9.6
4.78,0.0,0.0,0.0,0.0,0.0,0.0,0.25,0.0,0.25,0.25,0.0,1.75,1.5,-1.11,-0.67,1.39,47.14,-0.6,-98.9,3.0,1.25,1.5,2.0,1.75,2.0,0.75,0.75,1.0,2.5,2.0,1.0,1.0,0.89,-1.86,0.89,213.51,-7.2,8.6
4.8,0.0,0.0,0.0,0.0,0.0,0.0,0.75,0.0,0.25,0.25,0.25,0.5,1.5,-1.61,-0.67,1.2,10.55,-1.0,-83.1,2.5,1.25,1.5,2.25,1.75,2.0,0.75,0.75,1.0,2.5,2.0,1.0,1.25,0.83,-0.55,0.33,236.4,-6.5,5.7
4.82,0.0,0.0,0.0,0.0,0.0,0.0,0.5,0.0,0.25,0.25,0.0,0.25,1.5,-0.61,-0.36,0.7,0.0,-4.7,-86.5,2.25,1.25,1.5,2.0,1.75,1.5,0.75,0.75,1.0,2.5,2.0,1.0,0.75,0.52,0.2,-0.17,257.04,-7.2,6.3
4.84,0.0,0.0,0.0,0.25,0.0,0.0,0.25,0.0,0.25,0.25,0.0,0.25,1.25,-0.86,-0.23,0.89,0.0,-3.2,-74.0,2.25,1.25,1.5,2.0,1.75,2.0,0.75,0.5,0.75,2.25,2.0,1.0,1.5,0.08,0.64,0.02,269.22,-6.2,4.5
4.86,0.0,0.0,0.0,0.0,0.0,0.0,0.25,0.0,0.25,0.25,0.0,0.25,1.25,-0.67,-0.55,0.83,0.0,-5.7,-90.0,2.25,1.5,1.5,2.25,1.75,1.75,0.75,0.75,1.0,2.75,2.0,1.0,1.25,0.02,0.14,0.39,283.76,-6.3,4.5
4.88,0.0,0.0,0.0,0.0,0.0,0.0,0.25,0.0,0.25,0.25,0.0,0.25,1.0,-0.61,-0.67,0.95,0.0,-4.7,-87.3,2.25,1.5,1.5,2.0,1.75,1.75,0.75,0.5,1.0,2.5,2.0,1.0,1.25,0.02,-0.67,0.52,282.75,-6.7,5.4
4.9,0.0,0.0,0.0,0.0,0.0,0.0,1.0,0.0,0.25,0.25,0.0,0.25,0.75,-0.67,-0.8,1.27,0.0,3.1,-63.8,1.0,0.25,0.0,1.0,1.5,1.0,0.0,0.25,0.25,1.5,0.5,0.0,0.25,-0.05,-1.17,0.83,234.29,-0.4,13.7
4.92,0.0,0.0,0.0,0.0,0.0,0.0,1.5,0.0,0.25,0.25,0.0,0.25,0.5,-0.86,-0.92,1.58,0.0,8.8,-46.8,2.75,1.5,0.0,2.25,1.5,1.75,0.25,0.5,1.0,2.5,1.5,1.25,1.75,0.02,-1.48,0.64,230.01,-4.1,0.1
4.94,1.0,0.0,0.0,0.5,2.25,0.0,1.25,1.75,0.25,0.25,1.0,0.25,1.5,-1.3,-0.8,1.58,38.66,1.4,-9.1,1.0,0.25,1.25,0.5,1.75,1.75,0.0,0.25,0.25,3.0,0.5,1.0,0.75,0.08,-1.42,0.45,198.43,-0.3,-6.9
4.96,1.0,0.0,0.25,0.75,3.5,1.0,1.25,1.0,0.75,1.25,1.0,1.75,1.5,-1.17,-0.67,1.39,110.63,1.2,-11.9,1.25,0.5,1.5,1.5,1.5,1.75,0.25,0.25,0.5,1.5,0.75,0.0,1.0,0.02,-1.17,0.45,189.52,-5.3,15.6
4.98,1.0,0.0,0.0,0.0,3.5,1.0,1.5,2.0,0.75,2.25,1.0,1.75,1.5,-1.05,-0.86,0.95,175.51,-2.1,-22.0,2.25,0.5,1.0,2.0,1.75,1.75,0.75,0.5,0.75,3.5,0.75,0.75,1.25,-0.05,-0.92,0.27,195.51,-3.7,1.4
5.0,1.0,0.0,0.0,0.5,3.0,1.0,1.25,1.25,0.75,1.5,1.0,1.75,1.5,-0.67,-1.11,0.77,209.46,-0.1,-18.8,2.25,0.75,1.25,2.0,2.25,1.75,1.0,0.5,0.75,2.5,1.5,0.25,1.0,-0.11,-0.67,0.02,215.11,-5.8,11.6
5.02,1.0,0.0,0.0,0.75,2.25,1.0,1.5,1.5,0.75,1.25,1.0,1.75,1.75,-0.17,-1.36,0.33,224.89,0.3,-22.5,2.25,1.25,1.25,1.75,2.25,1.25,1.0,0.75,1.0,2.75,1.5,0.5,1.0,-0.17,-0.61,-0.3,228.15,-6.1,8.6
5.04,1.25,0.25,0.5,1.0,3.75,1.25,1.5,1.25,0.75,1.5,1.25,1.75,1.5,0.27,-0.98,-0.3,239.84,2.0,-6.8,2.25,1.0,0.75,2.0,2.25,2.0,1.0,0.75,1.0,2.5,1.5,0.75,1.0,-0.23,-0.55,-0.3,241.97,-4.5,7.1
5.06,0.75,0.5,0.0,1.0,3.75,1.0,1.5,1.75,0.5,1.0,1.0,1.75,1.5,-0.17,-0.8,0.2,244.86,0.1,-8.3,2.25,1.5,1.25,2.0,2.25,1.5,0.75,1.25,1.0,2.25,2.0,0.75,1.5,-0.3,-0.48,-0.3,259.15,-5.5,5.0
5.08,0.5,0.5,0.0,1.5,3.75,1.0,1.5,1.0,0.5,0.75,1.5,1.75,1.75,-0.55,-0.92,0.89,250.12,1.3,-8.9,2.5,1.25,1.25,2.0,1.75,1.5,0.75,0.5,1.0,2.5,2.0,0.75,1.25,-0.3,-0.36,-0.3,262.86,-6.9,5.6
5.1,0.25,0.5,0.0,0.75,4.75,1.0,1.25,0.75,0.5,0.75,1.0,1.75,1.5,-0.8,-0.8,0.83,246.21,-0.3,-5.1,2.25,1.25,1.25,2.25,1.75,2.0,0.75,0.5,1.0,2.5,2.0,1.0,1.5,-0.36,-0.23,-0.23,270.44,-5.7,3.0
5.12,0.25,0.0,0.25,0.75,3.75,1.0,1.5,0.5,0.5,0.75,1.25,1.75,1.5,-0.86,-0.61,0.45,234.24,0.8,-13.2,1.5,0.25,1.5,0.25,1.75,0.75,0.75,0.5,0.25,0.5,2.0,0.0,1.25,-0.48,-0.05,-0.23,242.81,-8.5,5.4
5.14,0.5,0.5,0.25,1.75,3.75,1.0,1.5,0.25,0.75,0.5,1.0,1.75,1.5,-0.61,-0.55,0.2,225.48,3.5,-0.4,0.75,0.25,0.0,0.0,1.0,0.5,0.0,0.25,0.25,0.25,0.5,0.0,0.75,-0.55,0.08,-0.23,187.63,-0.5,2.7
5.16,0.75,0.5,0.25,1.75,4.5,1.0,0.25,0.5,0.5,0.75,1.0,1.75,1.5,-0.23,-0.92,0.08,221.53,1.8,1.7,0.75,0.25,0.0,0.25,0.25,0.5,0.0,0.25,0.25,1.25,0.5,0.25,0.25,-0.55,0.2,-0.36,118.05,-0.7,-13.7
5.18,0.75,0.0,0.0,1.75,2.5,1.0,1.5,0.5,0.5,0.5,1.0,1.5,1.5,-0.17,-1.17,0.02,205.28,3.2,-8.0,0.75,0.25,0.0,0.0,1.0,0.25,0.0,0.25,0.25,0.25,0.25,0.0,0.5,-0.48,0.33,-0.48,69.96,-2.3,13.2
5.2,0.75,0.5,0.5,1.75,3.75,1.0,1.25,0.5,0.25,0.75,1.25,1.5,1.75,-0.17,-1.36,-0.11,205.9,3.2,0.0,0.75,1.0,0.0,0.0,1.0,0.75,0.0,0.25,0.25,0.5,0.25,0.0,0.75,-0.48,0.45,-0.61,46.89,0.0,17.2
5.22,0.5,0.5,0.0,1.75,2.5,0.0,1.5,0.25,0.5,1.0,1.0,1.5,1.5,-0.17,-1.36,-0.05,193.61,4.6,-10.9,0.5,0.25,0.0,0.5,1.0,1.0,0.0,0.25,0.25,0.0,0.5,0.25,0.75,-0.36,0.58,-0.8,37.59,0.2,5.1
5.24,0.75,0.5,0.0,1.75,2.25,0.0,1.25,0.25,0.5,1.0,1.0,1.5,1.5,-0.17,-1.23,-0.05,184.84,5.1,-10.7,0.75,0.25,0.0,0.0,0.5,0.5,0.0,0.25,0.25,0.75,0.25,0.0,0.75,-0.36,0.58,-0.92,34.75,1.3,-8.8
5.26,0.5,0.5,0.25,1.75,3.75,0.0,1.5,0.75,0.5,0.75,1.0,1.5,1.5,-0.11,-1.05,-0.05,182.62,4.0,-2.8,0.75,0.25,0.0,0.25,1.0,0.75,0.0,0.25,0.25,1.0,0.75,0.0,0.5,-0.36,0.64,-1.11,37.76,0.6,-1.8
5.28,0.5,0.5,0.25,1.5,3.75,0.0,1.0,0.5,0.25,0.75,1.25,1.25,1.5,0.02,-0.86,-0.05,182.11,3.5,-2.6,0.5,0.25,0.0,0.0,1.5,0.5,0.0,0.25,0.25,0.75,0.75,0.25,0.5,-0.36,0.7,-1.23,42.25,1.2,-6.0
5.3,0.25,0.5,0.0,1.75,3.5,1.0,0.5,0.75,0.25,0.75,1.0,1.0,1.5,0.14,-0.61,-0.17,184.68,-0.3,-0.8,0.5,0.5,0.0,0.0,0.5,0.5,0.0,0.25,0.25,0.5,0.5,0.0,0.75,-0.42,0.64,-1.3,43.04,0.9,-8.0
5.32,0.5,0.5,0.75,1.5,3.75,0.75,0.25,1.0,0.25,0.75,1.5,1.25,1.5,0.2,-0.55,-0.23,192.7,2.2,-1.7,0.5,0.75,0.0,0.0,0.25,0.5,0.0,0.25,0.25,0.25,0.75,0.0,0.75,-0.48,0.64,-1.3,46.38,-1.5,-5.6
5.34,0.75,0.5,0.0,1.75,3.5,1.0,0.25,0.75,0.25,0.5,1.0,1.0,1.5,0.27,-0.48,-0.36,194.52,0.9,3.7,0.75,0.25,0.0,0.0,1.0,0.25,0.0,0.25,0.25,0.5,0.75,0.0,0.75,-0.48,0.58,-1.3,54.55,-1.3,-6.7
5.36,0.75,0.5,0.25,1.75,3.75,0.75,0.25,1.0,0.25,1.0,1.25,1.0,1.5,0.2,-0.42,-0.48,199.36,1.1,0.4,0.5,0.5,0.0,0.25,0.5,0.5,0.0,0.25,0.5,0.5,0.25,0.0,0.75,-0.42,0.52,-1.3,65.31,-0.1,-2.3
5.38,0.75,0.5,0.0,1.75,2.5,1.0,1.0,0.5,0.25,1.0,0.0,1.0,1.25,0.2,-0.42,-0.42,188.66,1.4,6.2,0.75,0.25,0.0,0.0,0.0,0.25,0.0,0.25,0.25,0.0,0.5,0.25,0.75,-0.42,0.33,-1.23,63.0,-5.6,-20.5
5.4,0.75,0.5,0.25,1.75,1.25,0.75,0.25,0.75,0.25,0.75,1.0,1.0,1.5,0.2,-0.42,-0.36,177.36,2.9,-9.3,0.75,0.25,0.0,0.0,1.5,0.5,0.75,0.5,0.75,2.5,0.25,0.0,0.75,-0.42,0.2,-1.23,82.21,2.8,-15.3
5.42,0.75,0.5,0.0,1.75,3.75,0.25,0.25,0.5,0.25,0.75,1.25,0.75,1.5,0.27,-0.42,-0.3,174.8,2.2,3.2,0.75,0.25,0.0,0.0,1.0,0.5,0.0,0.25,0.25,0.25,0.75,0.0,0.75,-0.36,0.08,-1.05,82.52,-1.0,-1.1
5.44,0.75,0.5,0.0,1.75,3.75,0.75,0.5,0.25,0.25,0.5,0.75,0.75,1.5,0.33,-0.36,-0.3,174.19,1.9,10.1,2.25,1.5,1.25,2.0,1.75,0.25,0.75,0.5,0.25,0.25,1.5,0.25,1.0,-0.36,-0.11,-0.92,130.38,-12.8,28.9
5.46,0.75,0.5,0.0,1.75,3.0,1.0,0.5,0.5,0.25,0.75,1.0,1.25,1.5,0.33,-0.36,-0.36,180.63,1.5,-1.1,0.5,0.25,0.0,0.0,0.25,0.25,0.0,0.25,0.25,1.0,0.5,0.0,0.75,-0.3,-0.17,-0.86,118.45,2.2,-30.3
5.48,0.75,0.5,0.0,1.0,1.75,1.0,0.75,0.75,0.25,0.75,1.0,1.0,1.5,0.39,-0.3,-0.48,173.02,0.8,-10.7,0.5,0.25,0.0,0.25,0.5,1.0,0.0,0.25,0.25,0.75,0.25,0.0,0.75,-0.3,-0.23,-0.73,114.01,4.2,-6.1
5.5,0.75,0.5,0.25,1.75,3.5,0.75,0.75,0.5,0.25,0.5,1.0,1.25,1.5,0.33,-0.23,-0.55,178.01,3.0,3.4,1.0,0.25,0.0,0.5,1.0,0.5,0.0,0.25,0.25,0.25,0.25,0.0,0.75,-0.3,-0.23,-0.67,92.5,-3.3,16.4
5.52,0.75,0.5,0.0,1.75,3.0,1.0,0.75,1.0,0.25,0.5,0.5,0.75,1.5,0.39,-0.3,-0.61,177.15,0.8,6.4,0.5,0.25,0.0,0.0,0.5,0.25,0.0,0.25,0.25,0.0,0.25,0.0,0.5,-0.3,-0.23,-0.55,74.95,-2.3,5.7
5.54,1.0,0.5,0.0,1.75,3.75,0.75,0.75,0.5,0.25,1.25,0.75,1.0,1.5,0.39,-0.36,-0.67,186.82,1.6,4.1,0.5,0.5,0.0,0.0,0.5,0.25,0.0,0.25,0.25,0.5,0.25,0.0,0.75,-0.3,-0.17,-0.48,62.36,0.3,-6.3
5.56,0.75,0.5,0.25,1.75,3.5,1.0,1.25,0.75,0.25,0.75,0.75,0.75,1.5,0.39,-0.36,-0.67,192.07,2.1,7.7,0.5,0.25,0.0,0.0,0.5,0.5,0.0,0.25,0.25,0.0,0.25,0.0,0.75,-0.3,-0.11,-0.36,54.4,0.6,-1.2
5.58,1.0,0.5,0.0,1.75,2.5,0.5,0.25,1.0,0.25,1.0,0.75,1.0,1.5,0.45,-0.36,-0.67,192.37,1.6,-2.8,0.75,0.25,0.0,0.0,0.25,0.5,0.0,0.25,0.25,0.75,0.25,0.25,0.75,-0.23,-0.05,-0.23,54.98,0.6,-19.0
5.6,1.25,0.5,0.0,1.75,3.5,0.25,0.5,0.75,0.25,1.0,1.25,0.75,1.75,0.45,-0.36,-0.67,194.64,2.7,1.2,0.5,0.25,0.0,0.0,1.5,0.25,0.0,0.25,0.25,0.0,0.5,0.25,0.75,-0.3,0.02,-0.05,56.43,-0.8,0.9
5.62,1.0,0.5,0.0,1.75,3.75,0.0,1.0,0.75,0.25,0.75,1.0,0.75,1.25,0.39,-0.3,-0.67,194.32,3.8,7.9,0.5,0.25,0.0,0.0,1.0,0.5,0.0,0.25,0.25,0.75,0.5,0.0,0.5,-0.23,0.08,0.02,60.83,2.1,-4.2
5.64,0.75,0.5,0.0,1.75,4.25,0.0,0.75,0.5,0.25,0.5,1.0,0.5,1.75,0.33,-0.3,-0.73,193.67,2.7,8.2,0.0,0.25,0.0,0.25,1.0,0.25,0.0,0.25,0.25,1.0,0.5,0.0,0.75,-0.23,0.02,0.2,60.54,5.0,-22.5
5.66,1.25,0.5,0.0,1.75,3.75,0.0,1.0,0.5,0.25,0.5,1.0,0.75,1.5,0.2,-0.3,-0.73,190.76,4.8,9.7,0.75,0.25,0.0,0.25,1.0,0.25,0.0,0.25,0.25,1.0,0.25,0.0,0.75,-0.11,-0.11,0.39,66.66,0.3,-3.6
5.68,1.25,0.5,0.0,1.75,3.75,0.0,0.75,0.5,0.25,0.5,1.0,0.5,2.0,0.14,-0.3,-0.73,191.56,3.8,7.1,0.75,0.25,0.0,0.0,1.25,0.75,0.0,0.25,0.25,0.5,0.25,0.25,0.5,-0.11,-0.3,0.45,69.39,0.8,7.1
5.7,1.25,0.5,0.25,1.75,1.25,0.0,0.5,0.75,0.25,0.75,1.0,1.25,1.5,-0.05,-0.3,-0.67,180.56,6.4,-9.4,0.75,0.25,0.0,0.0,1.5,0.5,0.0,0.25,0.25,0.0,0.25,0.5,0.5,-0.05,-0.61,0.52,80.25,-2.0,11.0
5.72,1.25,0.5,0.0,1.75,4.25,0.0,0.75,0.5,0.25,0.5,1.0,0.75,1.5,-0.23,-0.36,-0.67,183.47,4.2,11.5,0.75,0.5,0.0,0.0,1.0,1.0,0.0,0.25,0.5,2.75,0.25,1.0,0.75,0.14,-0.73,0.77,98.68,3.9,-26.6
5.74,1.0,0.5,0.0,1.75,3.5,1.0,0.75,0.75,0.25,0.5,1.25,1.0,1.75,-0.42,-0.48,-0.61,187.15,1.9,2.3,2.25,1.25,1.25,2.0,1.75,1.5,0.5,0.5,0.25,1.0,1.75,0.0,1.5,0.08,-0.8,0.7,151.69,-7.7,19.0
5.76,0.75,0.5,0.25,1.75,3.75,1.0,1.0,1.0,0.25,0.5,0.5,0.75,1.75,-0.61,-0.67,-0.55,195.27,1.2,8.4,1.0,0.25,0.0,0.0,1.0,0.5,0.0,0.25,0.25,0.75,0.25,0.0,0.5,-0.23,-1.05,0.7,147.17,-0.8,9.1
5.78,0.75,0.5,0.0,1.0,3.75,1.0,1.0,1.0,0.25,0.75,1.0,0.75,0.75,-0.73,-0.67,-0.17,193.51,0.7,9.0,0.75,0.25,0.0,0.25,1.5,1.25,0.0,0.25,0.25,2.75,0.25,1.0,0.75,-0.61,-1.36,1.39,154.49,4.6,-20.9
5.8,0.75,0.5,0.0,1.25,3.0,1.0,0.5,0.5,0.25,1.0,0.75,0.75,1.5,-0.73,-0.55,-0.05,188.67,0.0,0.7,0.5,0.25,0.0,0.0,1.5,0.75,0.0,0.25,0.25,0.5,0.25,0.25,0.75,-1.23,-1.73,1.64,128.9,3.1,0.1
5.82,1.0,0.5,0.0,1.75,3.75,1.0,1.25,0.5,0.25,0.75,1.0,0.5,1.5,-0.67,-0.3,-0.11,190.12,2.2,10.7,0.5,0.25,0.0,0.0,1.5,0.5,0.0,0.25,0.25,0.75,0.25,0.0,0.5,-1.11,-1.55,1.27,111.1,2.9,5.9
5.84,0.75,0.5,0.0,1.5,3.75,1.0,1.0,1.0,0.25,0.75,0.5,1.0,1.5,-0.55,-0.05,-0.3,190.89,0.3,4.9,0.75,0.5,0.5,0.0,1.5,0.5,0.5,0.75,0.25,0.75,1.25,0.0,1.25,-0.8,-1.36,1.02,106.58,-1.9,-7.2
5.86,1.0,0.5,0.0,1.25,3.75,0.75,1.0,1.0,0.25,0.75,1.0,0.5,0.75,-0.3,0.27,-0.42,191.94,2.0,13.6,2.25,1.25,0.0,2.0,1.5,1.25,0.5,0.5,0.25,2.75,1.75,1.0,1.25,-0.42,-1.23,1.08,154.08,-3.8,-1.2
5.88,1.0,0.5,0.5,1.75,4.25,1.0,1.0,1.0,0.25,0.75,1.0,0.25,1.5,-0.3,0.52,-0.42,201.27,2.2,14.3,2.25,1.25,1.25,1.5,1.75,0.5,0.5,0.5,0.0,0.5,1.5,0.0,1.5,-0.17,-1.73,1.2,182.57,-10.3,22.9
5.9,1.25,0.5,0.0,1.75,3.5,0.75,1.25,0.0,0.25,0.5,1.25,0.5,1.75,-0.48,0.52,-0.36,200.93,4.3,10.4,0.5,0.25,0.0,0.0,1.5,0.0,0.0,0.0,0.25,0.75,0.25,0.0,0.75,0.2,-2.36,1.64,163.21,0.6,-1.1
5.92,1.0,0.5,0.0,1.75,3.75,1.0,1.25,0.5,0.25,0.25,1.0,0.75,1.5,-0.92,0.39,-0.17,201.77,3.0,11.7,2.25,1.5,0.0,1.75,1.5,1.5,0.0,0.0,0.5,3.0,0.25,0.25,0.75,0.58,-2.55,1.7,173.97,-2.9,17.1
5.94,0.75,0.5,0.0,1.75,3.75,1.0,1.0,0.5,0.25,0.5,1.0,1.0,1.5,-1.3,0.02,-0.11,199.99,1.9,6.2,0.75,0.25,0.0,0.0,1.5,0.0,0.0,0.0,0.25,0.25,0.25,0.0,0.75,0.95,-2.48,1.64,133.58,-3.1,13.1
5.96,0.75,0.5,0.25,1.75,3.5,0.75,1.0,0.0,0.25,0.5,1.25,0.5,1.75,-1.55,-0.36,-0.11,195.17,3.6,8.1,0.5,0.5,0.0,2.5,1.5,1.5,0.0,0.0,0.5,2.25,0.5,1.0,0.75,1.14,-2.23,1.33,141.35,-0.3,-2.5
5.98,1.0,0.5,0.0,1.5,3.75,1.0,1.0,0.5,0.25,0.75,0.75,0.5,1.75,-1.48,-0.98,-0.11,193.5,1.2,8.8,0.75,1.5,0.5,1.75,1.5,0.25,0.0,0.0,0.25,0.25,0.25,0.25,0.75,1.08,-1.8,1.14,132.15,-9.3,36.1
6.0,1.0,0.5,0.25,1.0,3.75,1.0,1.0,0.5,0.25,0.75,1.25,0.75,1.5,-0.92,-1.3,-0.05,194.45,2.0,5.0,0.5,0.5,0.0,0.0,1.0,0.25,0.0,0.0,0.5,2.5,0.25,1.0,0.75,0.83,-1.48,0.89,139.55,2.5,-34.3
6.02,1.0,0.5,0.0,1.5,3.75,1.0,1.0,0.75,0.25,1.0,0.75,0.25,1.25,-0.67,-1.3,0.39,195.08,0.9,13.2,0.75,0.25,1.5,0.0,1.75,0.25,0.75,0.25,0.25,0.75,1.5,0.0,1.5,0.52,-1.11,0.58,131.81,-7.2,-4.3
6.04,0.75,0.5,0.0,1.75,3.5,1.0,0.75,1.0,0.25,0.5,1.25,0.25,1.5,-0.42,-1.23,0.52,193.84,0.8,8.3,0.5,0.5,0.0,0.0,1.5,0.5,0.5,0.25,0.0,0.5,1.25,0.0,1.25,0.2,-0.8,0.33,121.89,0.3,-10.1
6.06,1.0,0.5,0.0,1.5,3.75,1.0,0.5,1.25,0.25,1.25,0.75,0.25,1.5,-0.36,-1.23,0.58,194.96,-0.7,7.2,0.5,0.25,0.0,0.0,1.5,0.25,0.0,0.0,0.25,0.5,0.0,0.25,0.5,-0.05,-0.61,0.33,97.42,0.2,9.7
6.08,1.25,0.5,0.0,1.75,3.75,1.0,0.5,1.25,0.25,0.5,0.75,0.5,1.25,-0.36,-1.48,0.58,196.8,1.4,14.4,0.5,0.25,0.0,0.0,1.5,0.75,0.0,0.0,0.0,0.75,0.0,0.0,0.75,-0.23,-0.42,0.27,73.82,5.2,9.9
6.1,1.0,0.5,0.25,1.5,3.75,1.0,0.5,1.0,0.25,0.25,1.0,0.25,1.5,-0.73,-1.86,0.64,196.24,1.6,14.0,0.25,0.25,0.0,0.0,1.25,0.5,0.0,0.0,0.25,0.25,0.0,0.0,0.5,-0.3,-0.36,0.27,54.36,3.5,16.6
6.12,1.25,0.5,0.0,1.25,2.5,1.0,0.75,0.25,0.25,0.25,1.5,0.5,1.5,-1.42,-2.67,0.64,186.31,3.8,5.7,0.75,0.75,0.0,0.0,1.5,0.5,0.0,0.0,0.25,0.5,0.0,0.0,0.25,-0.3,-0.36,0.2,55.53,-1.9,38.0
6.14,0.75,0.5,0.0,1.5,3.75,1.0,1.25,0.5,0.25,0.25,0.5,0.25,1.5,-1.73,-2.98,0.89,181.96,1.5,17.5,0.5,0.5,0.0,2.0,1.5,2.0,0.0,0.0,0.25,2.0,0.0,0.25,0.5,-0.23,-0.36,0.2,85.99,2.3,13.4
6.16,1.25,0.5,0.0,1.75,3.75,1.0,1.0,0.0,0.25,0.5,0.75,0.5,1.25,-1.61,-2.61,0.77,179.84,3.8,20.0,2.25,1.5,1.25,2.0,1.75,1.5,0.5,0.25,0.5,2.5,1.5,0.5,1.0,-0.11,-0.36,0.2,145.73,-6.8,13.3
6.18,1.25,0.5,0.0,1.0,3.75,0.75,1.0,0.25,0.25,0.5,1.0,0.25,1.5,-1.36,-1.98,0.45,178.75,2.7,14.0,0.5,0.25,0.0,0.25,1.25,0.5,0.0,0.0,0.25,0.5,0.25,0.0,0.75,0.02,-0.42,0.33,144.66,0.9,6.3
6.2,1.0,0.5,0.0,1.75,4.25,0.75,1.25,0.5,0.25,0.5,1.0,0.75,1.5,-0.92,-1.17,0.27,187.39,2.8,11.4,2.25,1.5,0.0,2.0,1.5,1.25,0.0,0.25,0.75,2.5,0.25,0.75,0.75,0.08,-0.48,0.39,172.1,-4.3,14.4
6.22,0.75,0.5,0.0,1.5,3.75,0.75,0.75,0.75,0.25,0.25,0.5,0.75,1.5,-0.55,-0.73,0.02,186.35,1.3,10.7,0.5,0.25,1.25,0.0,1.5,0.5,0.0,0.0,0.25,0.25,0.0,0.0,0.75,0.14,-0.55,0.39,147.08,-7.4,26.5
6.24,0.5,0.5,0.25,1.5,3.75,0.75,0.75,0.25,0.25,0.5,1.0,0.5,1.5,-0.3,-0.55,-0.11,185.47,2.0,9.4,0.5,0.25,0.0,0.0,1.5,0.0,0.0,0.0,0.0,0.5,0.5,0.5,0.75,0.27,-0.61,0.39,126.92,-1.0,-10.5
6.26,1.0,0.5,0.0,1.75,3.75,0.75,1.0,0.5,0.25,0.25,0.75,0.5,1.25,-0.17,-0.48,-0.11,182.75,3.3,17.8,1.0,0.5,0.0,1.25,0.25,1.25,0.0,0.0,0.0,0.75,0.25,0.0,0.75,0.33,-0.73,0.39,101.75,-2.3,19.0
6.28,0.75,0.5,0.0,1.75,2.5,1.0,0.5,0.0,0.25,0.5,1.0,0.25,1.5,-0.05,-0.48,-0.05,173.99,2.4,9.5,0.5,0.25,0.0,1.0,1.25,0.5,0.0,0.0,0.25,0.5,0.0,0.0,0.75,0.33,-0.8,0.52,95.84,-1.2,17.9
6.3,0.75,0.5,0.0,1.75,3.75,1.0,0.25,0.5,0.25,1.0,0.5,0.5,1.25,0.02,-0.48,0.02,174.36,0.1,12.5,0.5,0.5,0.25,1.75,1.5,0.5,0.0,0.25,0.25,1.0,0.5,0.0,0.75,0.2,-0.86,0.58,101.87,-3.1,13.8
6.32,0.75,0.5,0.0,1.75,3.75,0.75,0.5,0.75,0.25,0.75,0.75,0.25,1.75,0.02,-0.48,0.02,178.0,0.2,8.8,0.75,0.25,0.0,0.75,1.5,1.0,0.0,0.25,0.25,1.25,0.25,0.25,0.5,0.2,-0.98,0.58,104.39,1.2,6.8
6.34,0.75,0.5,0.0,1.75,3.75,0.75,0.5,0.5,0.25,0.5,0.5,0.25,1.5,0.08,-0.48,-0.11,180.55,1.0,15.8,2.25,1.5,1.25,2.25,1.75,1.5,0.75,0.25,0.5,2.75,1.5,1.0,1.0,0.27,-1.05,0.64,163.09,-6.8,9.5
6.36,0.75,0.5,0.0,1.25,3.75,1.0,0.25,1.0,0.25,0.5,0.5,0.5,1.5,0.02,-0.48,-0.11,181.35,-0.9,9.5,0.75,0.25,0.0,0.5,1.5,0.25,0.0,0.0,0.25,0.25,0.25,0.0,0.75,0.27,-1.17,0.7,144.48,-3.3,18.9
6.38,0.75,0.5,0.0,1.75,3.75,1.0,0.25,0.25,0.25,0.25,0.5,0.5,1.5,-0.11,-0.48,0.02,178.86,1.1,16.5,1.0,0.25,0.0,0.75,1.25,0.25,0.0,0.0,0.25,0.5,0.25,0.0,0.25,0.27,-1.17,0.7,128.44,-6.8,31.3
6.4,1.0,0.5,0.25,1.75,3.75,1.0,0.25,0.75,0.25,0.75,0.75,0.25,1.25,-0.11,-0.42,0.14,182.14,1.5,16.4,0.5,0.25,0.0,0.25,1.25,0.25,0.0,0.0,0.25,0.25,0.25,0.25,0.5,0.27,-1.11,0.77,91.24,-2.5,9.9
6.42,0.75,0.5,0.0,1.75,3.75,0.75,0.25,0.25,0.25,0.75,1.0,0.5,2.0,-0.17,-0.42,0.14,184.73,0.7,4.2,0.5,0.25,0.0,0.5,1.5,0.25,0.0,0.0,0.25,0.0,0.25,0.0,0.25,0.2,-0.92,0.64,78.99,-4.9,36.9
6.44,0.75,0.5,0.0,1.75,3.75,0.75,0.25,1.25,0.25,0.5,0.75,0.5,1.5,-0.23,-0.61,0.27,188.56,0.0,8.5,1.75,0.75,0.0,2.25,1.25,1.5,0.0,0.0,0.5,2.25,0.25,0.75,0.75,0.2,-0.73,0.45,100.15,-3.2,10.2
6.46,1.0,0.5,0.0,1.75,3.75,0.75,0.5,0.5,0.25,0.25,0.75,0.25,1.75,-0.42,-0.86,0.33,189.32,1.9,14.8,2.25,1.5,1.25,2.0,1.75,1.5,0.75,0.25,0.5,2.5,1.75,0.75,1.25,0.08,-0.48,0.33,168.66,-6.7,8.7
6.48,1.75,0.5,0.0,1.75,3.75,0.75,0.5,0.25,0.25,0.5,0.5,0.5,1.5,-0.73,-1.11,0.39,190.83,4.0,20.5,2.25,1.5,1.25,2.0,1.75,1.5,0.75,0.25,0.5,1.75,1.5,1.25,1.5,-0.05,-0.3,0.27,219.77,-7.4,8.4
6.5,0.5,0.5,0.25,1.75,3.75,0.75,0.5,0.25,0.25,0.5,0.75,0.25,1.5,-0.98,-1.3,0.39,186.6,1.7,14.5,2.0,1.25,1.25,2.0,1.75,1.75,0.75,0.0,0.25,2.0,1.0,0.5,1.25,-0.11,-0.17,0.33,241.41,-6.6,16.3
6.52,1.0,0.5,0.0,1.5,3.75,1.0,0.5,0.0,0.25,0.25,0.75,0.25,1.5,-1.11,-1.36,0.39,182.81,2.2,19.4,2.25,1.5,1.25,2.0,1.75,1.5,0.75,0.0,0.25,2.5,1.5,0.5,1.5,-0.11,-0.11,0.39,254.51,-6.6,11.2
6.54,0.75,0.5,0.0,1.5,3.75,1.0,0.5,0.0,0.25,0.25,1.25,0.25,1.5,-1.23,-1.17,0.33,177.82,1.9,13.9,2.25,1.5,1.5,2.0,1.75,1.75,0.75,0.0,0.5,2.0,1.25,1.0,1.25,0.02,-0.11,0.45,257.13,-7.7,13.6
6.56,0.75,0.5,0.0,1.75,3.75,1.0,0.5,0.25,0.25,0.25,0.75,0.5,1.25,-1.17,-0.98,0.33,176.48,2.0,17.5,2.25,1.5,1.25,2.25,1.75,1.5,0.75,0.0,0.5,2.25,1.0,0.75,1.0,0.08,-0.23,0.52,257.68,-7.7,17.0
6.58,0.25,0.25,0.0,1.75,3.75,0.75,0.5,0.0,0.25,0.25,1.0,0.25,1.5,-1.11,-0.92,0.27,171.23,0.9,10.9,2.25,1.5,1.5,2.0,1.75,1.0,0.75,0.25,0.5,2.5,1.5,0.75,1.25,0.14,-0.42,0.64,259.67,-8.0,10.0
6.6,1.0,0.5,0.0,1.75,3.75,1.0,0.75,0.25,0.25,0.25,0.75,0.5,1.5,-0.98,-0.86,0.2,174.23,2.6,16.5,2.25,1.5,1.25,2.0,1.75,1.5,0.75,0.25,0.5,2.25,1.5,0.75,1.0,0.33,-0.61,0.7,267.64,-7.3,13.0
6.62,1.0,0.5,0.0,1.75,3.75,0.75,0.5,0.0,0.25,0.5,0.75,0.5,1.5,-0.73,-0.8,0.14,175.38,2.8,15.3,2.25,1.5,1.5,2.0,1.75,1.5,0.75,0.25,0.5,2.0,1.5,0.75,1.25,0.52,-0.8,0.77,265.65,-7.8,13.1
6.64,0.5,0.5,0.0,1.75,3.75,0.75,0.5,0.0,0.25,0.5,0.75,0.25,1.0,-0.61,-0.67,0.14,172.22,2.0,20.5,2.25,1.25,0.0,2.0,1.5,2.0,0.0,0.0,0.5,2.25,0.5,1.0,1.25,0.7,-0.92,0.89,250.65,-3.0,9.2
6.66,1.0,0.5,0.0,1.5,3.75,0.75,0.5,0.0,0.25,0.25,0.75,0.25,1.25,-0.55,-0.61,0.27,169.59,3.1,22.0,2.25,1.0,1.5,0.75,1.75,0.5,0.75,0.25,0.25,0.0,1.5,0.0,1.0,0.89,-0.8,0.77,222.29,-13.6,30.0
6.68,1.0,0.5,0.0,1.75,3.75,0.75,0.75,0.0,0.25,0.25,1.0,0.5,2.0,-0.55,-0.73,0.45,174.08,2.9,10.4,0.5,0.25,0.0,0.0,1.5,0.25,0.0,0.0,0.25,0.0,0.25,0.0,0.5,0.95,-0.48,0.58,154.93,-1.8,23.7
6.7,0.75,0.25,0.0,1.75,3.75,1.0,0.5,0.0,0.25,0.5,0.75,0.5,1.25,-0.42,-0.8,0.33,174.3,1.8,14.9,0.5,0.25,0.0,0.0,1.25,0.5,0.0,0.0,0.0,0.25,0.25,0.0,0.75,0.89,-0.17,0.45,96.76,2.0,10.9
6.72,1.0,0.5,0.0,1.5,3.75,1.0,0.5,0.25,0.25,0.25,0.75,0.5,1.5,-0.42,-0.8,0.08,177.39,1.9,15.5,0.5,0.25,0.0,0.0,1.0,0.0,0.0,0.0,0.25,0.5,0.25,0.0,0.75,0.7,0.02,0.45,50.34,-0.8,-4.7
6.74,1.0,0.5,0.0,1.5,3.75,1.0,0.5,0.25,0.25,0.5,1.75,0.5,1.5,-0.48,-0.73,0.08,184.34,2.3,7.1,0.5,0.25,0.0,0.0,1.5,0.25,0.0,0.0,0.0,0.75,0.25,0.0,0.5,0.64,-0.05,0.52,30.98,1.8,9.6
6.76,1.0,0.5,0.0,1.5,3.75,1.0,0.5,0.25,0.25,0.5,0.5,0.5,1.75,-0.55,-0.73,0.2,186.28,1.1,12.8,0.5,0.25,0.0,0.5,1.25,1.0,0.0,0.0,0.25,0.0,0.25,0.0,0.75,0.64,-0.3,0.64,26.46,0.5,20.1
6.78,0.75,0.5,0.0,1.75,3.75,0.75,0.5,0.5,0.25,0.25,1.0,0.25,1.5,-0.61,-0.73,0.27,185.7,1.8,14.1,0.5,0.25,0.0,0.0,1.5,0.5,0.0,0.0,0.0,0.25,0.25,0.0,0.75,0.64,-0.48,0.83,28.54,2.1,13.8
6.8,0.0,0.0,0.0,1.0,3.75,1.0,0.5,0.5,0.25,0.25,1.0,0.5,1.5,-0.61,-0.8,0.33,176.17,-2.4,-1.2,0.5,0.25,0.0,0.0,1.25,0.5,0.0,0.0,0.25,0.0,0.25,0.0,0.75,0.64,-0.42,0.83,28.86,0.2,13.3
6.82,0.75,0.5,0.0,1.75,3.75,1.0,0.5,0.25,0.25,0.5,0.75,0.5,1.25,-0.55,-0.73,0.2,175.74,1.6,15.6,0.25,0.25,0.0,0.5,1.5,1.0,0.0,0.0,0.25,0.0,0.0,0.0,0.5,0.45,0.02,0.58,31.88,2.4,30.9
6.84,0.25,0.5,0.0,1.75,3.75,1.0,0.5,0.5,0.25,0.75,1.0,0.25,1.5,-0.42,-0.67,0.08,174.81,-0.6,7.7,0.5,0.25,0.0,0.0,1.5,0.5,0.0,0.0,0.25,0.5,0.25,0.0,0.75,0.39,0.52,0.39,39.14,2.0,6.3
6.86,0.5,0.25,0.0,1.75,3.75,1.0,0.5,0.5,0.25,0.5,1.0,0.5,1.5,-0.42,-0.61,0.08,179.17,0.2,6.8,0.25,0.25,0.0,0.25,1.5,0.5,0.0,0.0,0.25,0.25,0.25,0.0,0.75,0.58,0.83,0.14,47.49,2.1,9.1
6.88,0.75,0.5,0.0,1.5,3.75,1.0,0.5,0.5,0.25,0.75,1.0,0.5,1.5,-0.3,-0.48,0.2,183.78,0.5,7.7,0.5,0.25,0.0,1.0,1.0,0.5,0.0,0.0,0.25,0.25,0.25,0.0,0.75,1.27,0.2,0.33,60.59,-2.8,15.9
6.9,0.75,0.5,0.0,1.75,3.75,1.0,0.5,1.0,0.25,0.5,1.0,0.25,1.0,-0.3,-0.36,0.33,186.25,0.8,15.6,0.75,0.25,0.0,0.5,1.0,0.5,0.0,0.0,0.25,0.75,0.0,0.25,0.5,1.45,-0.48,0.7,71.28,-1.7,10.7
6.92,0.75,0.5,0.0,1.75,3.5,1.0,0.25,0.75,0.25,0.5,1.25,0.5,2.0,-0.48,-0.3,0.33,189.53,0.2,2.1,0.5,0.25,0.0,0.0,0.25,0.0,0.0,0.0,0.25,1.0,0.25,0.0,0.5,0.7,0.58,0.2,68.71,-0.4,-24.2
6.94,0.75,0.5,0.0,1.75,3.75,0.75,0.25,1.0,0.25,0.75,1.0,0.75,1.75,-0.67,-0.42,0.2,194.13,0.1,2.0,0.5,0.25,0.0,0.5,0.0,0.25,0.0,0.0,0.25,0.75,0.5,0.0,0.0,0.64,0.33,0.33,59.12,-6.6,2.3
6.96,0.0,0.0,0.0,1.0,3.75,1.0,0.25,0.5,0.25,1.0,1.0,0.5,1.5,-0.86,-0.55,0.33,185.93,-3.6,-6.5,0.5,0.25,0.0,0.75,0.25,0.25,0.0,0.0,0.25,0.75,0.0,0.0,0.0,0.52,0.02,0.52,51.16,-5.9,24.4
6.98,0.75,0.5,0.0,1.25,3.75,1.0,0.25,0.75,0.25,1.0,1.0,0.5,1.25,-1.05,-0.61,0.39,184.73,-0.5,6.3,0.5,0.25,0.0,0.5,0.25,0.0,0.0,0.0,0.25,0.75,0.0,0.0,0.0,0.45,0.08,0.45,43.82,-7.4,20.0
7.0,0.75,0.5,0.0,1.5,3.75,0.75,0.5,0.75,0.25,0.5,1.0,0.5,1.5,-1.05,-0.48,0.39,183.41,0.9,7.9,0.5,0.5,0.0,0.5,0.0,0.0,0.0,0.0,0.25,0.75,0.25,0.0,0.0,0.39,0.33,0.33,40.49,-9.3,15.5
7.02,0.75,0.25,0.0,1.75,3.75,0.75,0.25,1.0,0.25,0.5,0.75,0.5,1.5,-0.92,-0.3,0.39,184.71,0.1,7.6,0.0,0.75,0.0,1.0,0.0,0.0,0.0,0.0,0.25,2.5,0.0,0.0,0.0,0.27,1.27,1.39,49.05,1.8,-13.3
7.04,0.5,0.75,0.0,0.75,3.75,0.75,0.25,1.0,0.25,0.5,1.0,0.25,1.5,-0.8,0.02,0.33,181.13,-1.4,6.0,0.5,0.5,0.0,0.0,0.0,0.25,0.0,0.25,0.25,0.75,0.75,0.0,0.5,-0.42,0.33,0.58,52.01,-1.4,-22.2
7.06,0.25,0.5,0.0,1.75,3.75,1.0,0.25,0.75,0.25,0.5,1.0,0.25,1.25,-0.86,0.2,0.27,178.91,-0.6,10.8,0.75,1.25,0.0,0.0,0.0,0.0,0.25,0.0,0.25,0.5,0.0,0.0,0.5,0.33,0.27,0.83,53.99,-9.7,28.3
7.08,1.0,0.5,0.0,1.75,3.75,1.0,0.25,0.75,0.25,0.5,1.0,0.25,1.25,-0.92,0.2,0.39,180.3,1.2,15.6,2.25,1.25,0.0,2.0,0.0,2.0,0.25,0.25,0.75,1.75,0.75,0.25,1.5,0.45,0.39,0.83,103.1,-4.1,7.8
