time,left pressure 0[N/cm虏],left pressure 1[N/cm虏],left pressure 2[N/cm虏],left pressure 3[N/cm虏],left pressure 4[N/cm虏],left pressure 5[N/cm虏],left pressure 6[N/cm虏],left pressure 7[N/cm虏],left pressure 8[N/cm虏],left pressure 9[N/cm虏],left pressure 10[N/cm虏],left pressure 11[N/cm虏],left pressure 12[N/cm虏],left acceleration X[g],left acceleration Y[g],left acceleration Z[g],left total force[N],left center of pressure X[mm],left center of pressure Y[mm],right pressure 0[N/cm虏],right pressure 1[N/cm虏],right pressure 2[N/cm虏],right pressure 3[N/cm虏],right pressure 4[N/cm虏],right pressure 5[N/cm虏],right pressure 6[N/cm虏],right pressure 7[N/cm虏],right pressure 8[N/cm虏],right pressure 9[N/cm虏],right pressure 10[N/cm虏],right pressure 11[N/cm虏],right pressure 12[N/cm虏],right acceleration X[g],right acceleration Y[g],right acceleration Z[g],right total force[N],right center of pressure X[mm],right center of pressure Y[mm]
0.02,1.25,0.0,1.75,0.0,1.25,0.0,2.0,1.5,0.0,0.0,1.5,0.0,2.25,-0.73,-3.92,1.02,169.26,8.9,-8.8,2.0,0.25,0.25,0.75,1.25,0.0,0.5,0.0,0.75,1.25,0.25,0.0,0.5,0.7,-0.05,1.02,0.0,-10.5,20.4
0.04,1.0,0.0,0.0,1.75,0.0,4.0,1.5,1.0,2.75,2.75,2.25,5.75,4.25,-0.17,-0.11,-0.98,232.9,-0.4,-49.1,1.5,0.5,0.0,0.75,1.25,0.0,0.5,0.25,0.75,1.25,0.0,0.0,0.25,0.58,0.08,0.52,0.0,-7.7,22.7
0.06,1.75,0.0,1.25,1.5,0.0,2.75,1.5,2.25,1.0,3.0,3.0,5.75,6.0,-0.11,0.14,1.2,305.3,0.7,-49.9,1.25,0.0,0.0,0.5,1.25,0.0,0.5,0.25,0.75,0.75,0.25,0.0,0.25,0.27,0.02,0.52,0.0,-8.0,15.5
0.08,1.25,0.5,1.0,1.75,0.0,2.75,1.5,3.25,1.25,3.75,3.0,6.75,6.25,-0.11,-0.05,0.95,392.52,-0.4,-52.2,1.25,0.0,0.0,0.75,1.25,0.0,0.5,0.25,0.75,0.75,0.25,0.0,0.25,-0.05,-0.23,0.7,0.0,-8.4,17.3
0.1,1.75,0.25,2.0,1.75,0.0,3.0,2.5,2.25,1.25,4.0,3.25,6.75,7.0,-0.11,0.02,1.02,484.29,1.5,-48.2,1.25,0.25,0.0,0.5,1.25,0.0,0.5,0.25,0.75,0.5,0.0,0.0,0.25,-0.11,-0.3,0.83,0.0,-9.2,27.8
0.12,0.0,0.25,2.25,0.25,1.25,2.5,1.5,3.25,1.25,4.75,3.0,7.0,6.25,-0.17,-0.05,0.95,538.68,-1.4,-56.6,1.25,0.25,0.0,0.5,1.25,1.25,0.5,0.25,0.75,1.25,0.0,0.25,0.25,-0.11,-0.36,0.77,26.76,-1.7,14.0
0.14,0.5,1.0,1.5,2.0,1.75,2.5,2.75,3.5,1.75,5.0,4.0,7.5,7.75,-0.17,-0.05,0.95,589.49,-0.2,-49.0,1.25,0.25,0.0,0.5,1.25,0.0,0.5,0.25,0.75,0.75,0.25,0.0,0.25,0.02,-0.3,0.77,53.38,-8.2,19.1
0.16,0.5,0.25,2.25,2.75,3.0,3.5,2.75,3.75,2.5,6.25,4.5,7.5,8.0,-0.11,-0.05,0.95,662.93,-0.3,-44.0,2.0,0.5,0.0,0.5,1.25,0.0,0.5,0.25,0.75,0.75,0.25,0.0,0.25,0.02,-0.3,0.89,80.5,-11.1,30.2
0.18,1.0,0.5,2.25,2.75,2.25,4.0,2.75,5.0,2.75,6.25,5.0,8.0,8.5,-0.11,-0.05,0.95,746.76,-0.4,-44.4,1.25,0.25,0.0,0.5,1.0,0.0,0.5,0.25,0.75,0.75,0.0,0.0,0.25,0.08,-0.11,1.08,86.0,-8.7,21.5
0.2,1.25,0.75,2.5,2.75,2.25,4.5,3.0,5.0,3.25,6.5,5.0,8.25,8.75,-0.11,-0.05,0.95,822.81,-0.1,-42.4,1.25,0.0,0.0,0.5,1.25,0.0,0.5,0.25,0.75,1.0,0.25,0.0,0.25,0.14,0.02,1.08,91.88,-6.9,11.6
0.22,1.5,0.75,2.25,2.75,2.25,5.0,3.0,5.5,3.5,6.5,5.25,8.0,8.75,-0.11,-0.05,0.95,884.86,-0.4,-41.4,1.25,0.0,0.0,0.5,1.25,0.0,0.5,0.0,0.75,0.75,0.25,0.0,0.25,0.2,0.14,1.2,88.59,-9.1,18.0
0.24,2.25,0.75,2.5,3.25,3.5,5.0,3.25,5.5,3.5,7.0,4.75,8.25,8.75,-0.11,-0.05,0.95,939.02,0.1,-36.1,1.25,0.0,0.0,0.5,1.25,0.0,0.5,0.25,0.75,1.0,0.25,0.0,0.25,0.27,0.33,1.39,88.02,-6.9,11.6
0.26,2.0,0.75,2.25,3.25,4.25,5.25,3.0,6.0,3.5,7.5,4.75,8.25,8.75,-0.11,-0.05,0.95,954.34,-0.6,-35.9,1.0,0.0,0.0,0.5,0.0,0.0,0.5,0.25,0.75,0.5,0.25,0.0,0.25,0.39,0.45,1.52,75.96,-12.3,1.5
0.28,2.25,1.0,3.0,3.25,3.75,5.25,3.0,6.0,3.75,7.5,4.0,8.25,8.75,-0.11,-0.05,0.95,958.59,0.0,-33.9,1.25,0.0,0.0,0.5,0.0,0.0,0.5,0.25,0.75,0.5,0.25,0.0,0.0,0.52,0.64,1.77,67.7,-15.6,15.5
0.3,2.25,0.75,2.75,3.25,4.25,5.75,3.25,6.25,4.0,7.5,5.0,7.75,8.75,-0.11,-0.05,0.95,975.77,-0.2,-33.5,1.25,0.0,0.0,0.5,0.5,0.0,0.5,0.25,0.75,0.5,0.25,0.0,0.25,0.39,0.95,1.7,63.43,-11.5,13.2
0.32,2.25,1.25,2.0,3.0,4.25,6.0,3.75,6.5,4.25,7.5,4.0,7.25,8.75,-0.11,-0.05,0.95,972.36,-0.9,-32.2,0.25,0.5,0.0,0.75,0.0,0.0,0.5,0.25,0.75,0.5,0.25,0.0,0.25,-0.11,1.45,1.95,57.95,-8.5,0.8
0.34,2.25,1.5,3.0,3.25,4.75,6.5,2.75,6.75,4.25,7.25,4.0,7.5,8.0,-0.11,-0.05,0.95,969.43,-0.4,-28.0,0.5,0.0,0.0,0.5,1.5,1.0,0.5,0.0,0.75,0.5,0.0,0.0,0.25,-0.67,2.39,1.33,64.75,-0.6,20.9
0.36,1.25,1.5,3.5,3.25,4.75,6.75,4.25,6.75,4.25,6.5,4.0,6.75,7.75,-0.11,-0.05,0.95,949.29,-0.2,-26.3,1.25,0.0,0.0,0.5,1.25,0.0,0.25,0.0,0.75,0.0,0.25,0.0,0.25,-0.61,4.14,0.7,66.74,-12.6,33.3
0.38,2.25,0.5,3.5,3.25,5.75,6.75,4.5,6.75,4.5,6.5,5.0,6.75,7.5,-0.11,-0.05,0.95,941.42,0.3,-25.4,1.25,0.0,0.0,0.5,1.25,0.5,0.0,0.0,0.25,2.0,0.25,1.0,0.25,-5.42,6.02,-1.42,84.45,-1.8,-10.6
0.4,2.25,0.5,3.5,3.25,5.75,7.5,4.5,6.75,4.5,6.25,4.75,5.75,7.0,-0.11,-0.05,0.95,928.42,0.1,-22.1,1.25,0.0,0.0,0.5,1.0,0.25,0.25,0.0,0.5,0.5,0.25,1.25,2.0,0.58,-1.23,3.45,96.67,-3.6,-28.4
0.42,2.25,0.5,3.75,3.25,5.75,7.5,4.75,7.0,4.75,6.25,4.75,5.0,6.25,-0.11,-0.05,0.95,920.88,0.3,-19.6,0.0,0.0,0.0,0.0,1.25,1.25,0.0,0.0,0.75,5.0,1.5,4.0,3.25,-0.67,0.2,1.02,163.07,5.6,-70.1
0.44,2.25,1.5,3.75,3.5,6.0,7.75,5.0,7.25,4.75,6.0,4.5,5.0,6.0,-0.11,-0.05,0.95,923.45,0.6,-15.9,0.0,0.0,0.0,0.5,1.25,1.0,0.0,0.0,0.75,6.5,4.0,5.25,5.25,-0.23,0.33,1.64,247.43,3.9,-74.6
0.46,2.5,1.75,3.75,4.25,7.0,8.5,5.25,7.25,4.75,5.0,4.0,3.5,5.25,-0.11,-0.05,0.95,930.91,0.9,-7.1,1.25,0.0,0.0,0.5,1.25,0.0,0.5,0.0,0.0,6.75,5.25,5.75,6.25,-0.23,0.2,1.2,329.98,1.3,-73.0
0.48,3.0,2.0,4.25,5.5,7.0,8.5,5.5,7.25,4.75,5.0,3.5,3.25,3.75,-0.11,-0.05,0.95,945.1,2.2,-0.2,1.25,0.0,0.0,0.0,1.25,1.25,0.0,0.0,0.0,7.5,5.75,6.0,7.5,0.08,0.08,1.08,416.39,3.3,-73.9
0.5,4.0,1.75,4.75,5.25,8.0,9.25,5.75,7.25,4.75,5.0,3.25,3.25,3.75,-0.11,-0.05,0.95,979.3,2.5,2.7,1.25,1.0,0.0,0.5,1.25,3.75,1.25,0.0,2.0,7.75,6.0,6.0,7.5,0.2,0.02,0.95,517.91,2.4,-57.0
0.52,4.0,1.75,4.75,5.5,8.75,9.25,5.75,7.25,4.25,4.75,3.0,2.25,3.75,-0.11,-0.05,0.95,1006.81,2.3,6.3,1.25,0.25,0.0,0.0,1.25,3.75,1.0,0.0,2.0,8.5,5.75,6.0,7.5,0.14,0.02,0.95,583.64,3.5,-62.5
0.54,4.75,2.0,4.75,7.0,9.25,10.0,6.0,7.5,4.25,2.75,3.0,2.0,3.5,-0.17,-0.05,0.95,1043.36,3.3,13.0,1.5,1.5,0.0,1.25,1.25,2.25,1.0,0.0,2.0,7.75,6.0,6.25,7.5,0.08,0.02,0.89,626.8,0.8,-55.6
0.56,5.5,2.5,4.75,7.0,11.5,10.5,6.25,7.5,4.0,2.75,1.75,2.0,3.0,-0.17,-0.05,1.02,1093.61,3.3,19.0,2.25,1.5,0.25,0.75,5.0,5.5,1.5,0.0,2.0,8.75,7.25,7.25,8.25,0.14,0.02,0.89,714.66,1.7,-41.4
0.58,5.75,3.5,4.75,7.75,13.0,11.0,6.25,7.5,3.75,3.75,1.5,2.0,2.25,-0.17,-0.05,1.02,1170.36,3.2,22.4,2.25,1.5,1.25,1.5,5.0,5.75,1.5,0.0,2.0,8.75,6.75,6.5,7.75,0.14,0.02,0.89,778.92,0.9,-35.3
0.6,6.5,3.5,5.0,8.75,13.5,12.0,6.25,7.5,3.25,3.25,2.0,2.0,2.5,-0.17,0.02,1.02,1261.65,3.5,24.1,2.25,1.5,0.5,1.75,5.0,5.75,1.5,0.0,2.75,8.75,7.0,6.5,8.25,0.14,0.02,0.95,835.51,1.2,-37.3
0.62,7.5,3.5,4.5,9.25,14.5,12.0,5.75,7.25,2.75,3.25,1.5,1.75,2.25,-0.11,0.08,1.02,1327.42,3.6,27.6,2.5,1.5,1.25,3.0,5.0,6.5,2.0,0.0,2.75,8.25,6.5,6.0,8.0,0.2,0.02,0.95,857.52,0.2,-29.9
0.64,8.75,3.5,5.5,9.5,15.0,12.5,4.75,7.25,2.0,2.75,2.0,1.5,1.75,-0.3,0.14,1.14,1376.26,4.3,31.5,2.25,1.5,2.0,3.25,5.75,7.0,2.25,0.0,2.75,7.75,5.75,5.25,7.5,0.2,0.02,0.95,858.85,0.0,-23.6
0.66,9.75,4.0,5.75,11.0,15.5,12.0,4.0,7.0,1.75,2.75,0.5,1.75,1.75,-0.36,0.14,1.27,1413.99,5.1,35.6,3.0,1.75,2.25,3.25,6.75,7.5,2.25,0.0,2.75,7.25,5.25,4.0,6.25,0.14,0.02,0.95,835.76,-0.7,-13.5
0.68,11.5,4.0,6.25,8.75,15.0,11.0,2.75,6.75,1.5,2.75,1.5,1.75,1.75,-0.36,0.2,1.52,1425.08,5.9,35.4,3.0,1.75,2.75,3.25,7.0,7.75,2.5,0.0,2.75,6.75,4.75,2.75,5.5,0.14,0.02,0.95,811.08,-1.1,-6.9
0.7,11.5,4.75,6.25,8.5,14.0,10.0,1.5,6.5,0.25,2.75,1.5,1.75,1.75,-0.42,0.27,1.89,1404.14,6.2,37.3,3.0,2.0,2.75,4.0,8.25,8.25,2.5,0.0,2.75,6.25,4.75,2.5,4.5,0.14,0.08,0.95,804.88,-1.5,0.0
0.72,11.5,3.75,4.75,7.0,11.5,8.5,1.75,5.5,1.0,2.5,1.5,1.75,1.75,-0.86,0.58,2.02,1318.56,6.7,35.3,3.0,2.5,2.75,5.5,8.5,8.5,2.5,0.0,2.25,5.25,3.75,2.25,3.5,0.14,0.08,0.95,792.58,-2.3,9.4
0.74,9.5,2.5,4.75,4.75,8.25,6.75,1.5,4.75,1.0,2.0,0.75,0.75,1.75,-0.73,0.52,2.58,1097.35,7.1,35.7,3.75,2.5,2.75,5.5,9.5,8.5,2.25,0.0,2.0,5.25,3.75,1.25,2.25,0.14,0.08,0.95,783.52,-2.7,17.4
0.76,5.75,0.0,2.25,1.75,5.75,3.0,0.25,2.0,0.0,0.0,0.0,0.25,0.25,-0.92,0.33,2.14,714.49,8.7,50.6,3.75,2.5,2.75,7.25,11.0,9.0,2.5,0.0,2.0,5.0,2.75,1.25,2.25,0.2,0.08,0.95,799.01,-2.8,22.4
0.78,1.5,0.25,0.75,1.25,0.75,2.75,0.0,0.0,0.0,0.0,0.0,0.25,0.25,-0.61,-0.3,1.83,360.1,5.2,47.3,4.0,2.75,2.75,7.5,11.0,9.25,2.25,0.0,1.5,5.0,2.5,1.25,2.25,0.2,0.08,1.02,812.44,-2.8,24.3
0.8,0.5,0.25,0.0,0.5,0.0,1.75,0.0,1.0,0.25,0.0,1.0,0.0,0.25,-0.11,-0.42,2.52,142.68,-2.9,1.5,4.25,3.25,2.75,8.75,12.5,9.5,2.25,0.0,1.5,4.75,2.5,1.25,2.25,0.2,0.08,1.02,850.28,-3.1,27.5
0.82,0.0,0.25,0.0,1.0,0.0,2.25,0.25,1.0,0.25,0.0,0.0,0.0,0.25,-1.17,-1.11,1.7,0.0,-8.0,16.8,5.5,3.25,3.0,9.0,12.5,9.5,2.0,0.0,1.5,4.75,2.5,0.75,1.75,0.14,0.14,0.95,896.15,-4.0,31.7
0.84,0.5,0.25,0.0,0.0,0.0,1.75,0.0,0.75,0.0,0.0,1.25,0.0,1.5,-0.86,-0.92,1.08,0.0,-6.6,-27.6,5.75,3.25,2.75,10.0,13.5,9.75,1.5,0.0,1.5,4.25,2.5,0.5,2.25,0.14,0.14,0.95,949.41,-3.9,33.0
0.86,0.5,0.75,0.0,1.0,0.75,2.5,0.0,1.0,0.25,0.0,0.0,0.0,0.25,-0.42,-0.67,0.52,0.0,-4.2,33.2,6.25,3.25,3.0,11.0,14.0,9.75,1.5,0.0,1.5,3.5,2.5,0.25,2.0,0.14,0.14,0.95,995.16,-4.7,36.9
0.88,0.0,0.25,0.0,0.75,0.75,2.5,0.25,0.0,0.25,0.0,0.0,0.25,0.0,-0.36,-0.55,0.33,0.0,-6.3,33.6,7.25,3.75,4.0,11.0,14.0,9.75,1.5,0.0,1.5,2.25,2.5,0.0,2.0,0.08,0.2,0.95,1041.31,-6.2,41.7
0.9,0.0,0.25,0.0,0.25,2.25,2.5,1.0,1.0,0.5,0.0,0.75,0.25,1.5,-0.55,-0.55,0.52,0.0,-6.1,-3.6,7.5,3.0,2.75,11.0,12.5,9.5,1.25,0.0,1.0,3.75,2.5,1.0,2.0,0.14,0.27,1.02,1050.36,-5.3,35.5
0.92,0.75,0.5,1.0,1.75,1.75,3.0,0.25,1.0,0.25,0.0,0.75,0.5,1.5,-0.73,-0.55,0.89,0.0,0.8,12.9,8.25,3.0,4.5,11.0,13.0,9.5,0.0,0.0,1.0,2.5,1.75,1.0,1.75,0.14,0.27,1.02,1055.29,-6.8,41.7
0.94,0.5,0.5,1.0,2.75,1.75,3.0,0.25,1.0,0.25,0.0,0.5,0.5,1.75,-0.73,-0.42,0.95,44.13,1.1,14.1,9.0,3.25,5.25,12.5,13.0,8.75,0.0,0.0,0.75,3.0,2.0,0.75,2.25,0.14,0.33,1.14,1074.57,-7.8,41.5
0.96,0.75,0.5,1.0,2.5,2.25,4.0,1.0,1.0,0.25,0.0,1.0,0.25,1.75,-0.61,-0.17,0.83,126.72,0.6,16.8,8.5,3.75,6.25,11.0,12.0,8.5,1.0,0.0,0.75,2.25,1.5,0.25,1.0,0.45,0.39,1.27,1063.76,-9.2,48.3
0.98,3.25,0.5,1.5,2.25,1.75,3.0,1.25,3.25,2.0,0.0,0.0,0.0,0.0,-0.55,0.08,0.95,202.85,7.1,32.9,9.0,3.25,5.5,11.0,11.5,8.0,0.0,0.0,0.5,1.25,0.25,0.25,0.75,0.45,0.45,1.45,1012.78,-9.7,54.7
1.0,1.0,0.5,0.0,1.75,0.0,2.75,2.5,1.0,0.25,0.0,1.0,0.25,1.5,-0.48,0.2,1.33,223.56,2.5,4.6,8.25,3.25,5.25,9.0,11.0,7.5,1.5,0.0,0.25,0.75,0.25,0.0,0.75,0.52,0.64,2.02,922.4,-9.9,56.4
1.02,1.0,0.5,1.0,2.5,1.75,1.5,0.5,1.0,0.25,0.0,0.5,0.25,1.5,-0.61,0.33,1.39,225.53,5.2,19.3,7.5,2.5,5.25,7.5,9.25,6.75,1.5,0.0,0.25,0.0,0.25,0.25,0.25,1.08,0.89,2.27,797.27,-11.1,58.8
1.04,1.25,0.25,1.0,2.5,1.25,2.5,0.25,1.0,0.25,0.0,0.5,0.25,1.5,-0.73,0.45,1.7,212.58,3.6,18.6,5.75,0.75,2.75,4.0,7.0,3.75,0.75,0.0,0.0,1.75,0.25,0.0,0.5,1.08,0.7,2.7,596.7,-9.0,49.6
1.06,1.0,0.5,1.0,3.5,1.75,5.5,0.25,1.0,2.5,0.0,0.5,0.0,1.5,-0.98,0.58,2.14,233.43,0.9,19.2,2.25,0.25,0.0,1.0,0.0,2.25,0.5,0.25,0.0,0.75,0.25,0.25,0.0,0.89,0.08,2.14,340.02,-5.8,35.6
1.08,0.0,0.0,0.0,0.0,0.0,0.0,0.0,0.0,0.0,0.0,0.0,0.0,0.0,-1.23,1.08,2.45,169.06,0.0,0.0,0.0,0.0,0.0,0.0,0.0,1.5,0.5,0.25,0.0,1.5,0.25,0.0,0.0,0.08,0.02,1.39,161.81,13.6,-23.7
1.1,0.0,0.0,0.0,0.0,0.0,0.0,0.0,0.0,0.0,0.0,0.0,0.0,0.0,-1.3,1.83,2.52,107.09,0.0,0.0,0.5,0.0,0.0,0.0,1.25,1.25,0.5,0.25,0.25,1.25,0.25,0.0,0.0,0.27,-0.48,2.45,8.18,4.8,7.1
1.12,1.0,0.0,0.0,0.0,0.0,0.0,0.0,0.0,0.0,0.0,0.0,1.0,0.0,-0.86,2.77,2.2,39.56,21.5,-9.2,0.0,0.0,0.0,0.5,1.0,1.25,0.5,0.25,0.25,2.0,0.25,0.0,0.0,0.89,-1.42,2.45,0.0,7.5,-8.4
1.14,0.5,0.5,0.25,1.75,1.25,1.5,2.25,1.0,0.25,0.0,0.5,0.25,1.5,0.08,4.52,1.33,49.59,3.2,8.7,0.25,0.0,0.0,0.0,2.5,1.25,0.5,0.25,0.0,0.75,0.25,0.0,0.25,0.83,-0.92,0.95,0.0,6.2,18.4
1.16,1.0,0.25,0.0,1.75,1.25,1.5,0.0,0.0,0.25,0.5,0.0,1.75,2.25,1.7,7.02,-0.86,74.19,0.8,-13.4,0.75,0.0,0.0,0.0,1.25,0.25,0.25,0.25,0.25,0.75,0.25,0.0,0.0,0.39,-0.55,0.33,0.0,-1.9,15.8
1.18,0.5,0.25,1.0,1.75,0.75,1.0,2.5,1.25,0.25,0.5,1.25,2.0,1.75,0.52,-1.73,-0.92,128.21,6.2,-18.5,1.25,0.0,0.0,0.0,1.25,0.0,0.25,0.25,0.25,1.25,0.25,0.0,0.0,0.02,-0.36,0.27,0.0,-4.6,13.3
1.2,0.0,0.0,1.75,0.0,0.75,1.0,0.0,2.25,0.0,0.25,1.75,3.25,3.75,-0.11,0.45,0.77,169.33,-0.2,-55.3,1.25,0.0,0.0,0.25,1.25,0.0,0.25,0.25,0.25,0.75,0.25,0.0,0.0,-0.11,-0.17,0.39,0.0,-7.6,25.8
1.22,0.0,0.0,0.0,0.5,0.75,2.0,0.0,1.75,0.25,2.75,1.0,5.75,6.0,-0.23,-0.11,1.45,227.69,-6.2,-72.9,1.25,0.0,0.0,0.25,1.25,0.0,0.25,0.25,0.25,1.0,0.25,0.0,0.0,-0.05,-0.23,0.64,0.0,-6.3,20.5
1.24,0.0,0.0,0.0,0.75,0.0,3.0,0.75,3.25,0.5,4.75,2.75,6.75,7.0,-0.55,0.33,3.7,303.99,-5.9,-71.6,0.75,0.0,0.0,0.5,1.25,0.0,0.25,0.25,0.25,1.25,0.25,0.0,0.0,0.14,-0.23,0.77,0.0,-3.0,9.9
1.26,0.0,0.0,1.0,1.0,0.0,5.0,0.0,4.75,2.25,6.25,3.0,8.25,7.75,-0.11,-0.05,1.52,429.38,-5.2,-62.7,1.0,0.0,0.0,0.5,1.25,0.0,0.0,0.25,0.25,1.0,0.25,0.0,0.0,0.2,-0.17,0.83,16.65,-4.8,18.5
1.28,2.25,0.5,2.25,3.0,1.75,5.0,0.25,5.75,2.5,7.25,0.0,8.0,8.75,-0.17,0.08,1.08,588.4,-2.5,-39.6,0.5,0.25,0.0,0.5,1.25,0.0,0.0,0.0,0.25,1.0,0.25,0.0,0.25,0.14,-0.05,1.02,49.02,-2.2,10.6
1.3,2.25,0.5,2.0,3.0,0.5,5.0,0.5,5.75,2.0,7.5,5.0,8.0,8.75,-0.23,0.02,0.95,741.81,-1.5,-46.2,1.25,0.0,0.0,0.5,1.5,0.0,0.0,0.25,0.25,0.75,0.0,0.0,0.25,0.2,0.08,1.33,72.98,-5.6,27.0
1.32,2.25,0.5,2.5,3.0,1.75,5.25,1.5,6.0,2.0,7.75,5.0,7.75,8.75,-0.11,-0.05,0.95,873.87,-1.2,-41.3,1.25,0.0,0.0,0.25,1.25,0.0,0.25,0.25,0.25,0.75,0.25,0.0,0.25,0.27,0.27,1.64,75.82,-6.4,18.4
1.34,2.25,1.5,2.5,1.5,2.5,6.25,1.5,6.5,2.0,7.5,5.0,7.5,8.75,-0.17,-0.05,0.89,940.91,-2.0,-38.2,1.25,0.0,0.0,0.5,1.25,0.0,0.0,0.0,0.25,1.25,0.25,0.0,0.25,0.39,0.45,1.89,77.09,-5.3,13.9
1.36,1.0,0.0,2.25,1.75,2.25,6.0,3.5,6.5,2.25,6.5,3.0,6.75,8.75,-0.17,-0.05,0.95,930.22,-3.0,-42.1,1.0,0.0,0.0,0.5,1.25,0.0,0.0,0.25,0.25,0.75,0.25,0.0,0.25,0.58,0.83,2.52,76.62,-4.9,16.4
1.38,1.0,0.0,2.25,1.75,1.25,5.25,4.0,6.0,2.75,7.5,3.0,7.5,7.25,-0.17,-0.05,0.95,889.08,-1.9,-44.7,0.75,0.0,0.0,0.5,1.25,0.0,0.0,0.0,0.25,0.5,0.25,0.0,0.25,0.77,1.77,2.7,73.0,-5.8,21.0
1.4,2.0,0.25,3.25,3.25,4.5,6.75,3.5,6.75,2.75,7.0,4.0,6.75,7.75,-0.17,-0.05,0.95,896.0,-0.8,-28.8,1.0,0.0,0.0,0.0,1.25,0.0,0.0,0.25,0.25,0.5,0.25,0.0,0.25,1.02,3.08,2.95,68.86,-4.6,16.8
1.42,2.25,0.25,3.25,3.25,5.25,6.75,4.0,6.75,3.25,6.5,3.5,6.0,7.25,-0.17,-0.05,0.95,899.55,-0.5,-24.3,1.25,0.0,0.0,0.5,1.25,0.0,0.0,0.25,0.25,1.0,1.5,0.0,1.25,1.14,4.27,1.58,80.68,-3.5,-16.7
1.44,2.25,0.0,3.5,3.25,5.5,7.0,4.0,6.75,3.25,6.0,3.25,5.75,7.0,-0.17,-0.05,0.95,901.1,-0.4,-22.4,1.5,0.0,0.0,0.5,1.0,1.25,0.75,1.25,0.75,2.25,1.5,0.5,0.25,0.14,5.95,-1.42,111.98,-0.7,-14.4
1.46,2.25,0.25,3.0,3.25,5.75,7.5,4.5,6.75,3.5,6.25,3.0,5.25,6.25,-0.17,-0.05,0.95,885.1,-0.7,-19.6,1.0,0.0,0.5,0.0,2.75,0.75,0.5,1.25,0.25,2.0,2.0,0.5,1.75,-6.17,6.45,-0.73,150.41,1.1,-21.3
1.48,2.25,0.5,3.75,3.25,5.75,7.5,4.5,7.0,3.5,5.75,2.25,5.0,6.0,-0.17,-0.05,0.95,862.7,-0.1,-15.9,0.25,0.0,0.0,0.75,1.25,1.25,0.0,0.75,0.75,5.25,1.5,3.75,1.25,0.7,-0.92,1.39,199.77,3.8,-55.1
1.5,2.5,0.5,3.75,3.25,6.5,8.0,4.75,7.0,3.5,5.0,3.0,3.5,5.25,-0.11,-0.05,0.95,837.37,0.0,-9.9,1.0,0.0,0.0,0.5,2.75,1.25,0.0,2.5,0.75,6.0,2.5,5.25,4.5,0.14,0.39,0.77,275.86,4.1,-55.3
1.52,3.25,1.75,4.0,5.0,7.5,8.5,5.0,7.0,3.5,4.75,3.0,3.25,4.75,-0.11,-0.05,0.95,864.39,1.4,-0.6,0.25,0.0,0.0,0.5,1.25,2.75,0.0,0.0,1.5,7.25,5.0,6.5,7.5,1.27,0.52,5.2,371.27,4.2,-70.9
1.54,4.0,1.75,4.25,5.25,7.75,8.5,5.0,7.0,3.5,4.75,3.0,3.25,3.75,-0.11,-0.05,0.95,903.03,2.2,3.1,1.25,0.0,0.0,0.0,1.25,3.5,0.25,4.25,2.25,8.0,7.25,7.75,8.0,-0.23,0.14,1.52,529.95,4.0,-65.0
1.56,4.0,1.75,4.75,5.25,8.0,9.25,5.25,7.0,3.5,4.75,3.0,2.0,3.75,-0.11,-0.05,0.95,947.01,2.1,6.5,2.25,1.5,1.75,1.5,5.0,5.0,1.25,5.5,2.5,8.75,8.25,8.0,8.75,-0.05,0.08,1.08,751.19,1.4,-39.9
1.58,4.5,1.75,4.75,5.75,9.25,9.5,5.5,7.0,3.5,4.25,2.5,2.0,3.0,-0.17,-0.05,0.95,987.47,2.6,11.7,2.0,1.5,1.5,2.0,5.0,5.5,1.5,5.5,2.75,8.75,8.25,7.5,8.75,0.2,0.02,0.95,939.53,1.6,-38.7
1.6,5.5,2.0,4.75,7.0,11.0,10.0,5.75,7.0,3.25,4.0,1.5,2.0,2.0,-0.11,-0.05,0.95,1043.09,3.3,19.6,2.0,1.25,2.0,2.0,5.0,5.75,1.5,5.5,2.75,8.75,7.75,7.0,8.5,0.14,0.02,0.95,1060.82,1.6,-37.0
1.62,5.75,2.5,5.75,7.5,11.5,10.0,6.0,6.75,3.25,3.5,1.25,2.0,2.25,-0.11,-0.05,1.02,1096.51,4.2,22.5,2.5,1.5,1.5,2.5,5.25,5.75,1.5,6.25,2.75,8.5,7.5,6.5,8.0,0.14,0.02,0.95,1108.55,1.6,-33.4
1.64,6.25,3.25,5.0,8.75,13.0,11.0,6.0,7.0,3.25,3.25,1.5,2.0,2.0,-0.17,0.02,0.95,1175.54,3.9,25.3,2.5,1.5,2.5,2.5,5.0,5.75,1.5,6.0,3.0,8.5,7.25,6.5,8.0,0.2,0.02,0.95,1113.8,0.8,-32.0
1.66,7.5,3.5,5.0,10.5,14.0,11.0,6.0,7.0,2.75,2.75,1.5,1.75,1.75,-0.17,0.02,1.02,1275.8,4.8,30.0,2.75,1.5,2.5,3.0,5.25,6.25,1.5,6.0,3.25,8.0,7.0,6.0,7.5,0.14,0.02,0.95,1087.53,0.6,-28.0
1.68,8.75,3.5,5.25,11.0,15.0,12.0,6.0,6.75,2.5,2.75,0.5,1.75,1.75,-0.17,0.08,1.08,1356.28,5.0,33.5,2.75,1.5,2.75,3.0,5.25,6.25,2.0,6.0,3.25,7.75,6.5,5.75,6.75,0.14,0.02,0.95,1052.07,0.2,-25.3
1.7,9.5,3.5,6.25,12.0,15.5,12.0,4.75,6.75,2.0,2.75,1.5,1.75,1.75,-0.17,0.14,1.08,1425.71,5.6,34.0,2.75,1.75,2.5,3.25,5.75,6.5,2.25,6.0,3.25,6.75,5.75,5.25,6.25,0.14,0.02,0.95,1006.46,0.1,-20.6
1.72,11.5,4.25,6.25,12.0,16.5,12.0,4.0,6.75,1.75,2.75,1.75,1.75,1.75,-0.3,0.14,1.27,1495.56,6.1,36.3,2.75,1.75,2.75,3.25,6.75,7.0,2.25,6.0,3.25,6.5,5.75,4.0,5.25,0.14,0.02,0.95,954.74,0.0,-14.5
1.74,12.5,4.5,6.75,11.0,16.0,11.0,2.75,6.5,1.5,2.75,1.5,1.75,1.75,-0.42,0.2,1.45,1528.78,6.7,37.8,3.75,1.75,2.75,3.25,6.75,7.25,2.75,5.75,3.25,6.0,4.75,3.0,4.0,0.14,0.02,0.95,892.83,-0.7,-6.4
1.76,12.5,3.5,7.5,11.0,14.5,10.0,3.5,6.0,1.0,2.75,1.0,1.75,2.0,-0.48,0.33,1.77,1517.21,7.7,38.1,3.5,2.5,2.75,5.25,7.5,7.5,2.75,5.75,3.25,5.5,4.75,2.5,3.75,0.14,0.02,0.95,867.75,-1.3,0.0
1.78,12.5,4.75,6.75,8.25,12.5,8.5,3.75,5.25,1.0,2.5,0.5,1.75,1.75,-0.98,0.64,2.14,1446.19,8.5,40.3,4.25,2.5,4.0,5.5,8.25,7.75,3.25,5.5,3.25,5.0,4.5,2.25,2.5,0.14,0.02,0.95,862.06,-3.1,7.9
1.8,10.0,3.5,6.25,5.25,9.25,6.75,2.75,3.5,0.75,2.25,0.75,1.0,1.5,-0.98,0.64,2.95,1260.51,9.1,40.3,4.25,2.5,5.25,7.25,9.5,7.75,3.25,5.5,3.0,5.0,3.75,1.75,2.25,0.14,0.02,0.95,896.76,-4.0,14.3
1.82,5.75,0.0,4.75,2.75,6.0,4.25,1.5,1.25,0.0,0.0,0.0,0.25,0.5,-1.3,0.39,2.39,850.57,11.4,51.6,4.75,3.0,5.25,7.5,9.5,8.0,3.75,5.25,2.75,5.0,2.75,1.25,2.25,0.14,0.08,1.02,940.92,-4.3,18.9
1.84,0.0,0.0,0.0,3.25,0.0,1.5,0.0,1.0,0.25,0.0,0.0,1.75,0.25,-0.92,-0.42,2.02,424.75,3.0,-2.7,5.75,3.25,5.25,9.0,11.0,8.0,3.25,4.75,2.75,4.75,2.75,1.25,1.75,0.08,0.02,0.95,1004.15,-5.1,24.1
1.86,0.0,0.0,0.25,1.75,0.0,1.5,0.0,0.75,0.25,0.0,0.5,0.25,0.25,-0.42,-0.36,2.89,179.56,0.6,7.1,6.0,3.25,5.25,9.0,11.0,8.25,3.25,4.75,2.25,4.25,2.5,1.25,2.0,0.08,0.08,0.95,1044.16,-5.2,25.6
1.88,0.5,0.25,1.0,1.75,0.0,1.5,0.0,0.0,0.25,0.0,0.0,0.25,0.75,-0.98,-1.11,2.89,0.0,8.4,26.5,7.25,3.25,6.5,11.0,12.0,8.25,3.25,4.5,2.0,4.0,2.75,1.25,2.0,0.08,0.08,0.95,1118.72,-6.7,29.4
1.9,1.0,0.75,0.0,3.25,0.75,2.75,0.0,0.0,0.25,0.0,1.0,0.5,1.5,-0.86,-0.86,1.08,0.0,2.9,16.3,7.25,3.25,6.75,11.0,12.5,8.0,2.75,4.5,2.0,4.0,2.5,1.25,2.25,0.08,0.14,0.95,1178.57,-6.6,29.6
1.92,0.5,0.5,2.25,2.75,1.75,2.75,1.5,1.0,0.25,0.0,0.75,0.25,1.5,-0.55,-0.61,0.2,0.0,6.1,21.0,8.0,3.5,6.75,11.0,13.5,8.0,2.25,4.5,1.5,2.5,2.5,0.25,2.0,0.08,0.14,1.02,1223.88,-7.2,36.5
1.94,1.0,0.75,2.25,1.75,3.0,2.75,0.5,0.75,0.25,0.0,0.0,0.25,1.5,-0.42,-0.48,0.02,0.0,4.7,30.8,8.25,3.25,6.75,11.0,14.0,8.25,2.25,4.5,1.5,2.25,2.5,0.25,1.0,0.08,0.14,1.02,1239.69,-7.5,39.2
1.96,0.5,0.5,1.0,1.75,1.75,2.75,0.25,1.0,0.25,0.0,0.5,0.25,1.75,-0.36,-0.48,0.45,6.56,0.0,12.5,8.5,4.0,6.25,12.5,12.5,7.75,1.5,4.0,1.0,1.25,1.5,0.0,1.5,0.08,0.2,1.02,1218.32,-8.3,44.4
1.98,0.5,0.75,1.0,1.75,1.75,3.0,0.25,1.0,0.25,0.0,0.75,1.0,1.5,-0.42,-0.55,0.7,39.29,0.8,8.6,9.0,4.25,6.75,12.0,12.5,8.5,0.75,4.0,0.75,2.0,1.5,1.25,2.0,0.08,0.27,1.08,1213.24,-7.8,39.8
2.0,1.0,0.5,1.0,1.5,2.25,2.75,0.25,1.0,0.25,0.0,0.75,1.75,1.5,-0.48,-0.48,0.83,79.2,2.0,4.3,9.0,4.25,6.75,11.0,12.5,8.0,0.0,4.25,1.0,0.5,2.0,1.25,2.0,0.2,0.33,1.2,1183.73,-8.2,40.9
2.02,0.75,0.5,1.0,3.0,1.75,3.0,1.25,1.0,0.25,0.0,0.75,0.5,1.5,-0.42,-0.23,0.7,129.56,3.3,17.3,10.5,5.25,7.5,13.0,14.0,8.25,0.5,0.0,1.0,0.5,2.25,0.5,1.25,0.39,0.39,1.45,1194.2,-11.0,52.2
2.04,0.75,0.5,1.0,2.75,1.75,3.0,1.25,1.0,0.25,0.0,0.5,1.0,1.5,-0.36,-0.11,0.77,178.78,3.1,13.9,10.5,4.75,6.75,11.0,12.5,7.5,0.5,0.0,0.75,0.5,0.25,0.25,0.5,0.39,0.45,1.52,1125.16,-11.6,59.2
2.06,0.0,0.5,1.0,3.0,1.75,2.75,1.25,1.0,0.25,0.0,0.5,0.5,1.5,-0.3,0.02,0.95,211.36,2.0,14.6,9.0,3.5,7.0,9.75,11.0,7.5,1.25,0.0,0.75,0.5,0.25,0.0,0.75,0.45,0.77,2.02,1027.12,-11.5,57.2
2.08,0.25,0.75,1.0,2.5,1.75,2.75,0.5,1.0,0.25,0.0,0.5,0.25,2.0,-0.36,0.08,1.2,220.89,0.7,13.2,8.0,2.5,6.75,7.5,9.5,6.5,1.5,0.0,0.25,0.5,0.0,0.25,0.25,0.83,0.95,2.58,864.55,-12.1,58.6
2.1,0.75,0.5,1.0,1.75,1.75,2.75,0.5,1.0,0.25,0.0,0.5,1.25,1.5,-0.48,0.2,1.58,212.6,1.8,7.5,5.75,1.0,4.0,4.75,7.0,3.75,0.5,0.0,0.25,0.5,0.75,0.0,0.0,0.89,0.64,2.89,638.65,-12.0,56.3
2.12,0.75,0.25,1.0,2.5,1.25,2.5,1.5,1.0,0.25,0.0,0.5,0.75,1.5,-0.73,0.45,2.39,202.77,4.0,11.3,2.25,0.0,1.25,1.25,5.25,1.25,0.5,0.0,0.0,0.5,0.25,0.25,0.0,0.89,-0.11,2.33,376.19,-7.8,49.1
2.14,0.5,0.0,1.0,0.0,1.25,0.0,1.0,1.0,0.0,0.0,0.5,2.0,1.5,-1.17,1.02,2.83,170.65,6.1,-31.3,0.25,0.5,0.0,0.0,3.0,1.25,0.5,0.0,0.25,1.0,0.25,0.0,0.0,-0.17,-0.11,1.2,201.67,3.6,28.4
2.16,0.75,0.5,1.0,0.0,0.0,0.0,1.25,1.0,2.0,0.0,0.5,0.25,1.75,-1.42,2.08,3.27,144.06,9.5,-21.3,0.0,0.5,0.0,0.0,3.0,1.25,0.25,0.0,0.25,1.0,0.25,0.0,0.0,0.39,-0.86,2.7,55.39,5.6,26.1
2.18,0.5,0.5,0.0,2.0,0.0,2.75,4.75,5.0,2.25,0.5,0.5,0.25,1.5,-1.67,3.27,2.89,167.74,-0.2,-10.1,0.0,0.5,0.0,0.0,1.75,1.25,0.25,0.0,0.25,1.0,0.25,0.0,0.0,0.77,-1.42,2.52,0.0,6.2,18.6
2.2,0.75,0.5,0.5,2.25,1.25,1.75,1.5,1.0,0.25,0.0,0.5,0.25,1.5,-1.36,4.45,1.02,171.32,3.8,13.9,0.5,0.25,0.0,0.5,1.25,1.0,0.5,0.0,0.25,0.5,0.25,0.0,0.0,0.7,-0.73,0.89,0.0,-1.5,31.2
2.22,1.0,0.25,1.0,1.75,1.75,2.75,3.0,1.25,0.25,0.75,0.75,0.25,1.5,0.83,5.7,-1.98,192.11,3.1,10.4,1.25,0.25,0.0,0.5,1.25,1.25,0.5,0.0,0.25,0.75,0.25,0.0,0.0,0.39,-0.48,0.2,0.0,-3.7,34.6
2.24,0.0,0.0,2.25,0.0,0.0,0.0,0.75,1.0,0.25,0.5,0.0,1.75,0.0,2.08,5.77,3.14,159.95,15.2,-20.4,0.5,0.75,0.0,0.75,1.25,1.25,0.25,0.25,0.25,1.0,0.25,0.0,0.0,0.14,-0.36,0.08,0.0,0.3,26.9
2.26,0.75,0.25,1.5,1.75,1.25,2.75,0.75,1.25,0.25,2.5,0.5,2.0,2.25,-1.48,-1.42,2.27,183.2,0.0,-16.3,0.75,0.25,0.25,0.5,1.25,1.25,0.0,0.25,0.25,0.75,0.25,0.25,0.0,0.14,-0.36,0.64,0.0,-1.0,22.3
2.28,0.0,0.25,2.0,0.25,1.25,1.75,0.5,2.25,0.25,2.5,0.5,3.5,3.75,0.89,0.33,1.02,203.24,-2.0,-43.8,1.25,0.5,0.0,0.5,1.25,1.0,0.0,0.25,0.25,1.0,0.25,0.0,0.0,0.02,-0.36,0.95,0.0,-2.4,30.3
2.3,0.25,0.0,0.0,0.5,1.25,2.75,0.25,2.0,0.25,4.25,0.75,5.75,6.0,0.77,0.27,1.95,264.35,-6.9,-64.3,1.25,0.0,0.0,0.5,1.25,1.25,0.0,0.25,0.25,0.75,0.25,0.0,0.0,0.14,-0.05,0.77,0.33,-1.3,28.9
2.32,0.25,0.0,0.0,0.25,0.75,2.5,0.0,4.5,1.5,5.75,3.0,7.0,7.25,0.2,0.95,2.08,349.7,-6.1,-70.3,1.0,0.0,0.0,0.5,1.25,1.25,0.25,0.25,0.25,1.25,0.25,0.0,0.0,0.2,0.08,0.77,36.19,0.7,17.8
2.34,0.5,0.0,0.0,1.5,0.0,4.75,0.0,5.0,2.0,6.5,0.0,7.5,7.75,0.2,-0.11,1.14,450.17,-7.4,-61.1,1.25,0.25,0.0,0.5,1.25,0.5,0.0,0.25,0.25,1.0,0.25,0.0,0.0,0.2,0.14,1.02,66.03,-4.1,26.8
2.36,1.25,0.25,1.5,1.5,0.75,5.0,0.25,5.25,1.25,6.5,3.5,7.5,8.0,-0.11,-0.05,0.95,566.93,-3.8,-51.6,1.25,0.0,0.0,0.5,1.25,0.0,0.0,0.25,0.25,0.75,0.25,0.25,0.0,0.27,0.2,1.33,81.32,-7.5,20.6
2.38,1.0,0.25,1.25,1.5,1.25,5.0,0.75,6.0,1.25,7.5,3.5,7.25,8.0,-0.11,-0.05,0.95,660.22,-4.6,-51.3,1.25,0.0,0.0,0.25,1.25,0.5,0.0,0.25,0.25,1.0,0.25,0.25,0.25,0.39,0.33,1.64,85.47,-2.5,9.7
2.4,0.25,0.0,1.75,0.75,0.75,5.0,0.25,6.0,1.75,7.5,3.25,7.5,8.0,-0.17,-0.05,0.95,715.67,-5.3,-57.2,0.5,0.0,0.0,0.25,1.25,0.5,0.0,0.25,0.25,0.75,0.25,0.0,0.0,0.58,0.45,2.14,77.64,1.2,14.5
2.42,1.0,0.25,1.0,1.75,0.75,5.0,0.25,6.0,2.0,7.5,3.0,6.75,7.75,-0.17,-0.05,0.89,731.08,-4.9,-51.6,1.25,0.0,0.0,0.0,1.5,0.5,0.0,0.25,0.25,0.75,0.25,0.0,0.0,0.77,1.2,2.64,76.38,-2.8,26.5
2.44,1.0,0.25,2.0,1.75,0.75,5.25,0.25,6.5,2.0,7.5,3.0,6.75,7.75,-0.23,0.02,0.95,750.32,-4.1,-48.4,1.0,0.0,0.0,0.0,1.25,0.0,0.0,0.25,0.25,1.0,0.25,0.0,0.25,0.83,2.02,2.64,70.3,-2.3,6.2
2.46,1.0,0.25,2.0,3.5,0.75,6.5,0.5,6.5,2.5,7.75,3.0,7.0,7.75,-0.17,-0.05,0.95,772.5,-3.5,-42.6,1.25,0.0,0.0,0.0,1.25,1.0,0.0,0.25,0.25,1.0,0.25,0.0,0.25,1.02,3.52,2.39,73.88,0.6,14.8
2.48,2.25,0.5,2.25,3.25,1.75,6.75,1.5,6.5,2.75,7.5,1.75,6.75,7.0,-0.17,-0.05,0.95,788.74,-2.3,-32.9,1.25,0.0,0.0,0.5,1.25,0.5,0.0,0.25,0.25,1.0,0.25,0.0,0.25,0.89,4.58,0.64,77.73,-2.9,17.2
2.5,2.25,0.0,3.0,3.25,1.25,6.75,3.5,6.75,2.25,6.25,3.5,5.5,6.25,-0.11,-0.05,0.89,773.55,-0.6,-29.8,0.5,0.0,0.0,0.5,1.25,0.0,0.0,0.25,0.25,1.0,0.25,0.0,0.25,-0.23,5.7,-1.36,76.95,-0.6,2.7
2.52,2.25,0.5,2.25,2.5,2.25,6.5,3.5,6.5,2.25,5.25,2.75,5.0,6.0,-0.17,-0.05,0.89,734.55,-1.2,-26.5,1.25,0.0,0.0,0.5,1.25,0.0,0.0,0.25,0.0,2.25,0.25,1.0,0.25,-1.98,5.7,0.33,86.43,-1.8,-15.9
2.54,2.25,0.0,2.25,2.75,4.25,7.0,3.5,6.5,2.75,6.0,1.5,3.5,5.25,-0.17,-0.05,0.95,695.0,-2.1,-18.4,1.25,1.0,0.0,0.75,3.0,1.25,0.0,1.0,0.75,4.0,1.25,1.25,0.25,1.2,-1.48,1.95,139.03,1.3,-8.5
2.56,2.25,0.0,1.75,2.5,4.5,8.0,4.75,7.25,3.5,5.25,2.75,3.5,4.5,-0.17,-0.05,0.95,675.68,-1.9,-17.3,2.0,0.0,0.0,1.5,3.0,3.25,0.5,1.75,0.75,4.25,2.5,2.5,2.25,-0.92,0.14,-0.42,217.27,2.1,-23.0
2.58,2.25,0.25,2.5,3.25,5.75,8.5,4.5,6.75,3.5,4.25,2.5,1.75,3.75,-0.11,-0.05,0.95,677.45,-1.0,-5.0,0.75,0.0,0.0,0.0,1.75,1.25,0.0,1.75,0.75,6.5,2.75,5.25,5.5,0.14,0.33,2.64,295.4,5.0,-66.8
2.6,2.25,0.75,2.25,3.75,7.5,8.5,5.0,7.25,3.5,5.0,3.0,3.25,3.75,-0.11,-0.05,0.95,722.26,-0.8,-6.2,0.0,0.0,0.0,0.0,1.25,0.0,0.0,1.75,1.25,7.75,4.75,6.25,6.5,0.52,-0.11,1.64,385.25,4.2,-80.4
2.62,4.0,1.75,4.75,5.25,7.75,9.25,5.25,7.25,3.5,4.75,3.0,3.0,3.75,-0.11,-0.05,0.95,824.32,2.2,4.2,0.75,0.0,0.0,0.5,1.25,3.5,0.25,0.0,0.0,8.25,4.75,6.5,8.0,-0.05,0.2,1.39,475.89,5.3,-68.1
2.64,4.0,1.75,4.75,5.25,8.75,9.25,5.25,7.25,3.5,4.75,2.75,2.0,3.75,-0.11,-0.05,0.95,921.04,2.0,7.3,1.25,0.25,0.0,0.0,1.25,3.75,0.5,3.25,2.0,8.25,7.0,6.75,8.0,0.14,0.08,1.08,588.27,4.1,-62.9
2.66,4.0,1.75,4.75,5.5,9.25,10.0,5.0,7.5,3.5,4.5,2.75,2.0,3.75,-0.17,-0.05,0.95,1003.63,1.6,8.4,1.25,1.5,0.0,0.5,1.75,3.75,0.5,5.5,1.75,8.25,7.5,6.5,8.75,0.14,0.02,0.95,702.17,4.2,-55.4
2.68,4.75,2.0,4.75,7.0,11.5,10.0,5.5,7.5,3.25,4.0,2.75,2.0,3.0,-0.17,-0.05,0.95,1085.23,2.6,14.9,1.25,1.5,2.0,0.75,5.0,4.5,1.25,5.75,2.5,8.75,7.75,7.25,8.75,0.14,0.02,0.89,847.98,2.2,-42.5
2.7,5.5,2.25,4.75,7.0,12.0,11.0,5.75,7.5,3.25,3.5,2.75,2.0,2.75,-0.17,-0.05,1.08,1159.76,2.8,17.8,2.75,1.5,2.25,2.75,5.0,5.75,1.5,6.0,2.75,8.75,7.5,6.5,8.75,0.14,0.02,0.95,974.99,1.0,-32.8
2.72,5.75,2.75,4.75,8.75,13.0,11.5,5.75,7.5,3.25,3.5,1.5,1.75,2.25,-0.17,-0.05,1.02,1240.29,3.0,23.3,2.0,1.25,2.5,2.75,5.0,6.0,1.5,6.0,2.75,8.5,7.0,6.5,8.0,0.2,0.02,0.95,1049.94,1.3,-32.7
2.74,7.25,3.5,4.75,11.0,14.5,12.0,5.75,7.25,2.75,3.25,1.25,1.75,2.25,-0.17,0.02,1.02,1338.0,3.9,28.5,2.75,1.75,1.75,3.0,5.25,6.25,1.75,6.0,3.0,8.0,6.75,6.0,7.75,0.14,0.02,0.95,1068.72,1.1,-28.6
2.76,8.0,3.5,5.75,11.5,15.5,12.5,5.0,7.25,2.25,2.75,1.5,1.75,2.0,-0.17,0.08,1.14,1416.19,4.5,31.4,2.75,1.75,2.75,3.0,5.5,6.5,2.25,6.0,3.0,7.75,6.25,5.5,7.0,0.14,0.02,0.95,1049.24,0.3,-23.8
2.78,9.0,3.5,6.25,12.0,16.0,12.5,4.75,7.25,2.0,2.75,1.5,1.75,1.75,-0.23,0.08,1.2,1480.24,5.0,33.4,3.0,1.75,2.75,3.25,6.5,6.5,2.25,6.0,3.25,7.0,5.75,4.5,6.25,0.2,0.08,0.95,1011.78,0.0,-17.8
2.8,10.0,3.5,6.25,11.5,16.5,12.0,3.0,6.75,1.25,2.75,1.25,1.75,1.75,-0.36,0.14,1.39,1507.53,5.2,35.6,3.0,1.75,2.75,3.25,6.75,7.0,2.25,5.75,3.25,6.75,5.5,4.0,5.5,0.08,0.02,0.95,972.44,0.0,-14.4
2.82,11.0,4.0,6.25,9.75,16.0,11.0,3.0,6.75,1.25,2.75,1.5,1.75,1.75,-0.36,0.2,1.52,1503.84,5.7,35.8,3.25,1.75,2.75,3.25,6.75,7.25,2.75,5.75,3.25,6.0,4.75,2.75,4.0,0.14,0.02,0.95,921.27,-0.4,-6.8
2.84,11.5,3.5,6.25,9.0,14.0,10.0,1.75,6.25,1.0,2.5,1.5,1.75,1.75,-0.61,0.27,1.77,1444.22,6.4,36.2,3.75,2.0,2.75,4.0,7.5,7.5,2.75,5.75,3.0,5.5,4.75,2.5,3.75,0.14,0.02,0.95,886.88,-0.9,-1.6
2.86,10.5,3.5,5.75,7.0,12.0,9.0,2.5,5.5,0.75,2.5,1.25,1.75,1.75,-0.92,0.7,2.27,1339.27,6.6,35.4,4.25,2.25,2.75,5.5,8.25,7.75,2.75,5.5,2.75,5.25,4.0,2.25,3.0,0.2,0.02,0.95,867.76,-1.7,5.9
2.88,8.25,1.75,4.75,3.25,9.0,7.0,0.75,4.25,0.75,2.0,1.25,1.75,1.75,-0.92,0.58,2.83,1088.0,5.8,29.7,4.25,2.5,3.75,6.0,9.0,7.75,3.0,5.5,2.75,5.0,3.75,1.75,2.25,0.14,0.02,0.95,868.71,-2.7,11.8
2.9,5.5,0.0,2.25,3.25,1.25,5.5,0.25,2.25,0.25,0.5,0.0,1.5,0.0,-1.17,0.14,2.39,700.43,8.0,36.2,5.75,3.0,5.25,7.5,11.0,8.25,3.25,5.25,2.25,4.75,2.75,1.25,2.25,0.14,0.08,1.02,922.85,-4.3,21.9
2.92,0.0,0.5,0.0,1.75,2.25,4.0,0.0,1.25,0.25,1.0,0.75,1.25,1.5,-0.3,-0.23,1.02,375.26,-6.3,-4.6,5.75,3.25,5.25,9.0,11.0,8.25,3.25,5.0,2.25,4.5,2.75,1.25,2.0,0.14,0.08,1.02,984.66,-4.9,24.3
2.94,0.25,0.25,1.0,1.5,1.75,3.0,0.25,1.0,0.25,0.0,0.25,0.25,1.5,-1.17,-0.86,2.64,188.59,-1.7,12.9,7.0,3.25,5.25,9.25,12.0,8.5,3.25,4.5,2.0,4.0,2.5,1.25,2.0,0.14,0.08,0.95,1057.01,-5.5,28.2
2.96,1.0,0.25,0.0,0.25,0.5,2.5,0.25,0.5,0.25,0.5,0.25,0.25,0.0,-1.05,-1.11,1.39,27.51,-3.2,21.5,7.25,3.25,6.25,11.0,12.5,8.5,3.0,4.5,2.0,4.0,2.75,1.25,2.25,0.14,0.08,0.95,1140.84,-6.2,29.0
2.98,0.0,0.25,0.0,0.25,1.75,2.75,0.75,1.0,0.25,0.0,1.0,0.25,1.5,-0.61,-0.73,0.58,0.0,-7.2,-7.4,8.25,4.25,6.75,11.0,13.5,8.5,2.75,4.5,2.0,4.0,2.5,1.25,2.25,0.08,0.14,0.95,1234.25,-6.7,31.9
3.0,1.0,0.5,2.25,1.5,1.75,3.0,0.0,1.0,0.25,0.0,1.25,0.5,1.5,-0.48,-0.48,0.2,0.0,4.4,14.6,9.0,4.75,6.75,12.5,14.0,8.5,2.25,4.5,1.5,4.0,2.5,1.25,2.25,0.08,0.14,1.02,1321.43,-7.1,34.2
3.02,0.5,0.75,2.0,1.75,1.25,3.0,0.0,0.0,0.25,0.0,0.25,1.0,1.75,-0.42,-0.3,0.27,0.0,4.4,15.2,9.5,5.0,7.5,12.5,14.0,8.75,2.25,4.5,1.5,3.0,2.5,1.25,2.0,0.08,0.2,1.08,1377.66,-7.8,37.0
3.04,0.5,0.25,1.0,1.75,1.25,2.75,0.0,0.25,0.25,0.25,0.5,1.25,1.5,-0.48,-0.3,0.52,0.0,1.4,2.1,9.0,4.25,6.75,11.5,12.5,7.5,1.0,4.75,1.0,0.5,1.75,0.25,1.5,0.02,0.27,1.08,1345.47,-8.6,44.4
3.06,0.75,0.5,2.25,1.75,2.25,2.5,0.25,1.0,0.25,0.0,0.75,0.5,1.5,-0.42,-0.23,0.7,40.7,4.8,18.1,9.0,3.5,6.75,12.5,13.5,8.0,0.0,3.25,0.75,1.5,1.25,1.0,1.25,0.14,0.33,1.33,1300.43,-8.4,44.3
3.08,0.75,0.25,2.25,1.75,1.75,1.75,0.0,0.5,0.25,0.0,0.5,1.0,1.5,-0.42,-0.17,0.77,78.66,7.2,12.8,9.75,3.75,6.75,11.0,12.5,8.0,0.75,3.25,0.0,0.5,0.75,0.5,0.75,0.45,0.33,1.39,1188.57,-9.4,51.1
3.1,1.0,0.5,2.25,2.5,1.75,1.75,0.25,1.0,0.25,0.0,0.5,1.0,1.5,-0.42,-0.05,0.89,127.8,7.7,16.5,10.5,5.25,7.75,12.5,14.0,8.25,1.25,0.0,0.75,2.25,1.75,1.0,1.5,0.39,0.39,1.45,1183.22,-10.4,48.2
3.12,0.75,0.5,2.25,2.5,1.75,2.75,0.25,1.0,0.25,0.0,0.5,1.5,1.5,-0.42,0.08,1.08,177.98,5.4,12.4,9.0,3.25,7.75,9.25,11.0,7.5,1.0,0.0,0.75,0.5,0.25,0.0,0.25,0.58,0.77,2.02,1055.75,-12.0,58.7
3.14,1.0,0.5,2.25,2.75,1.75,2.75,0.25,1.0,0.25,0.0,0.5,1.0,1.5,-0.48,0.2,1.27,217.26,6.0,18.3,7.25,2.25,5.75,7.25,9.25,6.5,1.0,0.0,0.25,0.5,0.25,0.0,0.25,0.89,1.14,2.95,884.24,-11.1,58.1
3.16,0.75,0.5,1.75,2.25,1.75,5.25,0.25,1.0,0.0,0.0,0.5,1.5,1.5,-0.61,0.33,1.58,236.74,0.2,13.9,5.25,0.5,2.75,3.25,6.75,3.75,0.5,0.0,0.0,0.0,0.25,0.25,0.0,1.02,0.45,2.77,599.36,-10.5,58.9
3.18,1.25,0.0,0.0,0.0,0.0,0.0,0.0,0.0,0.0,0.0,0.0,0.0,0.0,-0.73,0.52,2.02,180.3,34.9,97.9,2.75,0.0,0.0,0.0,5.0,1.5,0.5,0.25,0.25,0.25,0.25,0.25,0.0,0.83,-0.42,2.02,334.44,-4.0,47.3
3.2,0.5,0.0,1.0,2.5,2.5,1.5,0.25,1.0,0.25,0.0,1.25,0.5,0.0,-1.05,1.02,2.64,167.39,5.7,23.6,0.5,0.0,0.25,0.5,4.75,1.0,0.5,0.25,0.25,0.75,0.25,0.25,0.0,0.39,0.33,1.14,166.48,0.5,31.3
3.22,0.0,0.0,0.0,0.0,0.0,0.0,0.0,0.0,2.0,0.0,0.0,1.5,0.0,-1.11,2.08,3.02,106.25,10.7,-69.2,0.0,0.5,0.0,0.5,3.25,1.25,0.5,0.25,0.25,0.75,0.25,0.0,0.0,0.33,-0.73,2.7,31.64,3.4,30.5
3.24,1.0,0.5,0.0,1.75,0.0,2.75,0.0,0.0,0.25,0.5,0.0,0.25,0.0,-0.98,3.33,2.89,94.8,1.2,38.1,0.0,0.25,0.0,0.0,1.75,1.0,0.5,0.0,0.25,0.5,0.25,0.25,0.0,0.95,-1.3,1.77,0.0,3.6,16.9
3.26,0.5,0.5,3.75,1.75,1.25,2.5,1.0,1.0,0.25,2.5,2.0,0.75,1.5,-0.55,4.7,1.52,140.35,5.9,-1.3,1.25,0.25,0.0,0.75,1.5,1.25,0.25,0.25,0.25,0.75,0.25,0.0,0.25,0.83,-0.86,0.77,0.0,-2.1,28.4
3.28,0.0,0.25,2.25,1.75,1.75,1.5,0.25,1.0,0.25,1.25,0.5,1.5,1.5,1.14,7.39,-1.8,174.41,3.7,-5.7,1.25,0.25,0.0,0.5,1.25,1.25,0.25,0.25,0.25,1.25,0.25,0.0,0.25,0.33,-0.55,0.45,0.0,-0.4,18.8
3.3,0.5,0.5,2.25,1.5,0.0,2.75,0.75,1.25,0.25,2.5,1.5,2.0,1.75,0.45,-0.61,-1.23,205.61,2.4,-20.2,1.25,0.0,0.0,0.5,1.25,1.0,0.25,0.25,0.25,0.75,0.5,0.0,0.0,0.02,-0.3,0.39,0.0,-3.3,24.4
3.32,0.5,0.0,1.25,0.25,1.25,1.25,0.75,2.0,0.0,2.0,1.25,2.0,3.75,-0.3,0.33,1.33,219.46,-2.3,-43.3,1.25,0.0,0.0,0.25,1.25,0.75,0.25,0.25,0.25,0.75,0.25,0.0,0.0,-0.05,-0.17,0.45,0.0,-3.4,26.9
3.34,0.0,0.0,0.0,0.25,0.0,1.0,0.25,1.25,0.0,3.0,0.5,5.0,4.5,0.27,0.02,1.83,235.11,-6.0,-84.0,1.25,0.25,0.0,0.25,1.25,0.75,0.25,0.25,0.25,1.0,0.25,0.0,0.25,0.08,-0.17,0.64,0.0,-2.2,19.8
3.36,0.5,0.0,0.0,0.25,0.0,2.75,0.75,3.25,1.0,5.0,1.0,6.5,6.25,-1.36,0.58,6.58,283.43,-6.2,-69.9,1.0,0.25,0.25,0.0,1.25,1.0,0.25,0.25,0.25,0.75,0.25,0.25,0.25,0.2,-0.17,0.77,0.0,-1.9,16.0
3.38,0.5,0.0,1.75,1.0,2.25,3.25,0.0,5.5,1.0,6.25,3.0,6.75,7.25,-0.17,0.02,1.08,389.49,-4.2,-52.5,1.25,0.0,0.0,0.0,1.25,1.25,0.0,0.25,0.25,1.0,0.25,0.0,0.25,0.27,-0.05,0.95,35.66,1.5,15.6
3.4,0.5,0.0,0.25,1.25,1.25,4.0,0.25,5.25,1.0,6.25,0.0,6.75,7.5,-0.17,0.08,1.02,486.43,-7.5,-56.9,1.0,0.25,0.0,0.0,1.25,1.25,0.0,0.25,0.25,1.0,0.25,0.0,0.25,0.27,0.02,1.08,67.13,2.3,16.0
3.42,0.25,0.25,1.0,3.0,0.75,5.75,0.25,5.75,1.75,7.25,2.75,7.5,7.75,-0.23,0.02,0.95,613.39,-5.0,-50.2,1.25,0.25,0.0,0.0,1.25,1.25,0.25,0.25,0.25,0.5,0.25,0.0,0.25,0.33,0.14,1.33,82.94,-1.0,27.7
3.44,0.5,0.5,4.0,3.0,3.5,5.25,0.25,6.5,1.25,7.5,3.0,7.5,8.75,-0.11,-0.05,0.95,721.15,-2.4,-38.0,1.25,0.0,0.0,0.0,1.25,1.25,0.25,0.25,0.25,1.0,0.25,0.0,0.25,0.52,0.33,1.58,87.3,0.8,15.8
3.46,0.5,0.25,2.5,3.25,1.75,5.75,0.25,6.75,1.5,7.75,2.0,7.5,8.75,-0.17,-0.05,0.89,800.49,-4.1,-43.9,1.25,0.0,0.0,0.0,1.25,0.5,0.0,0.25,0.25,0.75,0.25,0.0,0.25,0.64,0.52,2.02,85.14,-2.3,17.6
3.48,1.25,0.25,2.25,3.25,1.75,6.25,0.75,7.0,1.75,7.75,3.25,7.5,8.75,-0.23,-0.05,0.89,848.82,-3.4,-42.1,1.25,0.0,0.0,0.0,1.25,1.0,0.0,0.25,0.0,0.75,0.25,0.0,0.25,0.89,0.89,2.7,83.64,0.4,21.9
3.5,1.25,0.25,2.75,2.75,4.25,6.25,2.75,7.5,1.5,8.0,4.0,7.5,8.75,-0.17,0.02,0.95,902.76,-2.7,-36.6,1.5,1.75,0.75,1.25,3.25,1.25,0.5,1.0,0.75,2.25,1.5,1.0,1.25,1.02,1.77,2.95,144.27,-3.0,4.9
3.52,0.0,0.5,2.25,2.75,4.75,6.75,2.75,7.5,2.0,7.75,3.5,7.25,8.25,-0.23,0.02,0.95,938.06,-3.9,-36.7,1.75,0.75,0.0,0.75,4.25,1.25,0.5,1.25,0.75,2.25,1.5,1.0,1.25,1.02,3.45,2.89,195.78,-0.2,-0.8
3.54,1.25,0.25,3.0,3.25,4.75,7.0,2.75,7.75,2.0,7.75,3.5,6.75,8.0,-0.17,-0.05,0.95,951.29,-2.6,-31.1,1.5,0.75,0.0,0.75,3.75,1.25,0.5,1.75,0.75,2.25,1.5,1.0,1.0,0.27,5.45,-0.86,237.18,0.3,-3.5
3.56,1.25,0.5,2.75,3.25,5.5,7.5,2.75,7.75,2.0,7.5,3.5,6.25,7.75,-0.17,-0.05,0.89,950.27,-2.9,-27.9,1.5,1.5,0.0,0.75,3.0,1.25,0.5,1.25,0.75,2.25,1.5,1.0,1.0,-3.17,7.77,-1.55,252.47,-0.8,-0.6
3.58,2.25,0.25,2.75,3.25,5.75,8.0,3.0,8.0,2.0,7.5,3.0,5.75,7.0,-0.17,-0.05,0.95,936.3,-2.5,-23.2,1.5,1.0,0.0,0.75,1.75,1.0,0.5,0.5,0.75,3.0,2.0,1.25,1.25,-4.92,5.33,0.58,251.22,-1.5,-17.6
3.6,2.25,0.5,3.0,3.25,5.75,8.5,3.5,8.0,2.0,6.5,1.5,5.0,6.25,-0.17,0.02,0.95,893.47,-2.4,-16.8,1.0,0.0,0.0,0.5,1.25,1.25,0.0,0.75,0.25,2.5,1.5,2.5,2.0,2.7,-1.61,2.83,237.39,2.1,-43.9
3.62,2.25,0.25,3.75,3.25,6.25,8.75,3.5,8.5,2.0,6.25,3.0,3.5,5.75,-0.23,-0.05,0.95,872.63,-1.9,-13.4,1.0,0.0,0.0,0.5,1.25,0.0,0.0,1.75,0.75,5.25,2.5,4.25,5.25,0.14,-0.11,-0.11,268.08,3.3,-67.6
3.64,2.25,0.5,3.75,3.75,7.75,9.25,3.5,8.5,2.0,5.0,1.5,3.25,3.75,-0.17,0.02,0.95,853.62,-1.5,-2.3,0.0,0.0,0.0,0.0,1.25,0.0,0.0,0.25,1.5,6.75,4.75,6.0,6.25,-0.92,0.64,2.45,322.13,3.0,-82.0
3.66,2.25,1.0,3.5,4.75,7.75,10.0,3.5,8.5,2.0,4.5,3.5,2.0,3.75,-0.17,0.02,0.95,847.72,-1.2,0.3,1.75,1.75,0.0,0.5,1.25,3.75,0.5,4.0,2.75,8.25,6.25,6.5,7.75,0.58,0.64,1.64,466.04,3.1,-52.7
3.68,2.25,1.75,3.25,5.25,9.0,10.0,4.0,8.25,2.0,4.75,2.5,2.0,3.75,-0.23,0.02,0.95,864.24,-1.1,4.4,2.25,1.5,1.5,2.75,5.25,5.5,1.5,5.5,3.25,8.75,8.25,7.25,8.75,0.14,0.14,1.08,697.13,1.2,-36.3
3.7,2.5,1.75,3.75,5.25,9.25,11.0,4.0,8.25,2.0,4.75,2.0,2.0,3.5,-0.23,0.02,0.95,900.41,-1.0,7.2,2.5,1.5,2.5,2.75,5.0,5.75,1.5,5.5,3.0,8.75,8.25,7.25,8.75,0.08,0.08,0.95,912.37,0.5,-34.3
3.72,3.25,1.75,3.75,5.5,11.0,11.0,3.75,8.0,2.0,4.5,1.5,2.0,2.75,-0.23,0.02,0.95,934.91,-0.5,12.7,2.75,1.5,2.5,2.0,5.0,5.75,1.5,5.5,3.0,8.5,7.75,6.5,8.25,0.2,0.02,0.89,1035.81,0.7,-32.9
3.74,4.0,1.75,4.5,7.0,12.0,12.0,2.75,8.0,2.0,4.25,0.75,2.0,2.25,-0.23,0.02,1.02,989.97,0.1,18.6,3.0,1.5,2.5,3.0,5.0,5.75,1.75,5.75,3.0,8.25,7.25,6.0,8.0,0.14,0.02,0.95,1076.5,0.3,-29.2
3.76,4.5,2.0,4.75,7.25,13.0,12.0,2.75,8.0,1.75,4.0,1.25,1.75,2.25,-0.17,0.02,0.95,1055.73,0.6,20.8,2.75,1.5,2.5,3.0,5.25,6.25,2.0,5.75,3.25,7.75,6.5,5.75,7.5,0.2,0.02,0.95,1075.14,0.4,-26.8
3.78,5.5,2.75,4.75,8.75,14.5,13.5,2.75,8.0,1.75,3.5,1.25,2.0,2.0,-0.23,0.08,1.02,1157.59,1.2,25.2,2.75,1.75,2.75,3.0,5.25,6.5,2.25,5.75,3.25,6.75,5.75,4.5,6.25,0.14,0.02,0.95,1033.96,0.0,-20.1
3.8,6.25,3.5,4.75,11.0,15.5,13.5,2.0,8.0,1.5,3.75,1.5,1.75,1.75,-0.23,0.08,1.08,1281.27,1.9,28.5,3.0,1.75,2.75,3.25,6.5,6.5,2.25,5.5,3.25,6.5,5.25,4.0,5.5,0.2,0.08,0.95,997.15,-0.2,-14.5
3.82,7.75,3.5,4.75,11.5,16.5,13.5,2.75,8.0,0.75,2.5,0.5,1.75,1.75,-0.23,0.14,1.14,1366.3,2.7,34.1,3.75,1.75,2.75,3.5,6.75,7.0,2.5,5.5,3.25,5.5,4.75,2.5,4.0,0.14,0.02,0.95,948.43,-1.0,-4.5
3.84,9.0,3.25,5.25,12.5,16.5,13.5,2.25,7.5,1.0,2.75,0.5,1.75,1.75,-0.3,0.2,1.27,1432.89,3.6,35.2,4.0,2.0,2.0,3.75,7.0,7.25,2.75,5.25,3.0,5.0,4.0,2.25,2.75,0.14,0.02,0.95,882.83,-1.0,1.6
3.86,10.5,3.5,6.25,13.0,16.5,13.0,1.75,7.25,1.0,2.75,1.5,1.75,1.75,-0.48,0.2,1.45,1491.03,4.9,35.9,4.25,2.25,3.0,5.0,8.25,7.5,2.75,4.5,3.0,5.0,3.75,2.0,2.25,0.14,0.02,0.95,839.02,-2.5,9.1
3.88,11.5,4.25,6.25,11.5,15.5,11.5,2.25,6.75,0.75,2.5,1.5,1.75,1.75,-0.61,0.33,1.83,1509.82,6.0,37.6,5.25,2.5,4.25,5.5,8.25,7.5,3.25,4.5,2.75,5.0,3.75,1.25,2.25,0.14,0.08,0.95,829.56,-4.0,14.6
3.9,11.5,4.75,6.5,8.75,13.5,10.0,3.5,6.0,0.25,2.5,1.5,1.75,1.75,-1.23,0.58,2.52,1469.98,7.0,38.1,5.75,2.5,5.25,5.5,8.25,7.5,3.25,4.5,2.75,4.75,3.0,1.25,2.25,0.14,0.08,0.95,832.4,-4.9,17.7
3.92,9.25,3.5,6.0,6.25,10.5,7.5,3.5,5.0,0.0,1.0,1.0,1.75,1.5,-1.17,0.95,3.45,1321.13,8.0,39.0,6.25,2.75,5.25,5.75,9.25,7.5,3.25,4.0,2.75,4.25,2.75,1.25,1.25,0.14,0.08,1.02,849.2,-5.8,23.8
3.94,6.25,1.75,2.25,3.5,6.0,5.5,0.0,2.25,0.0,2.5,0.0,1.5,1.0,-1.61,0.45,2.95,951.28,4.8,33.2,7.25,3.0,5.25,7.0,9.5,7.25,3.75,3.75,2.75,3.5,2.5,1.25,1.25,0.08,0.08,1.02,889.19,-7.1,28.3
3.96,0.25,0.25,0.0,2.25,1.75,2.5,0.0,1.0,0.0,0.0,0.0,0.25,0.0,-0.8,-0.23,2.02,498.16,-2.7,36.2,8.0,3.0,6.75,7.25,9.5,7.0,3.5,3.25,2.25,3.5,2.75,1.25,2.0,0.08,0.08,0.95,935.49,-8.3,29.0
3.98,0.0,0.25,0.0,1.75,1.25,3.25,0.0,0.0,0.0,0.0,0.0,0.25,0.25,-0.86,0.02,2.52,230.3,-5.8,36.2,8.25,3.0,6.75,7.5,9.5,6.5,3.25,3.25,2.0,3.0,2.0,0.75,1.25,0.08,0.08,0.95,953.8,-9.1,35.0
4.0,0.0,0.25,0.0,1.75,0.75,1.5,0.0,1.0,0.0,0.0,0.0,0.25,0.0,-1.17,-1.17,2.77,30.39,-2.6,28.5,9.0,2.75,6.75,7.5,9.5,6.5,2.5,3.0,1.5,3.25,2.5,1.25,1.25,0.02,0.14,0.95,968.97,-9.2,33.8
4.02,0.0,0.25,0.0,1.75,1.25,1.25,0.0,1.0,0.0,0.0,0.0,0.25,0.25,-1.23,-1.11,1.14,0.0,-2.4,24.9,9.25,3.25,7.0,8.75,9.5,6.5,1.75,2.5,1.5,3.0,2.25,1.25,1.25,0.02,0.14,1.02,981.82,-9.9,36.9
4.04,0.0,0.25,0.0,1.5,1.25,1.75,0.25,1.0,0.0,0.0,0.0,0.25,0.5,-0.73,-0.73,0.58,0.0,-4.4,19.2,9.75,3.25,7.0,7.25,9.5,6.5,1.5,2.0,1.5,2.5,2.0,1.25,1.25,0.02,0.2,1.08,972.14,-10.3,39.0
4.06,0.0,0.25,0.0,1.5,1.25,1.5,0.0,0.25,0.0,0.0,0.0,0.25,0.25,-0.42,-0.48,0.14,0.0,-2.2,32.4,9.75,3.75,6.75,8.0,9.75,6.5,1.25,2.0,1.0,3.0,2.0,1.0,2.0,-0.05,0.2,1.14,974.09,-9.6,38.1
4.08,0.0,0.25,0.0,1.5,0.75,0.75,0.0,0.25,0.25,1.25,0.5,1.5,1.5,-0.36,-0.36,0.08,0.0,-1.4,-34.1,9.75,3.25,5.5,6.5,10.5,6.25,0.5,1.25,0.25,0.75,2.0,0.25,2.0,0.02,0.27,1.2,918.07,-9.9,46.3
4.1,0.0,0.5,1.0,3.0,1.25,2.75,0.0,1.0,0.25,0.75,0.5,1.75,1.5,-0.42,-0.36,0.45,0.0,0.6,-2.7,9.0,4.0,2.75,7.25,9.5,6.5,0.0,1.75,0.75,1.25,1.0,0.0,0.25,0.02,0.27,1.52,833.77,-8.3,52.1
4.12,0.5,0.5,1.0,2.5,1.75,2.5,0.0,1.0,0.25,2.0,0.75,1.5,1.5,-0.36,-0.3,0.7,27.84,0.0,-5.4,9.0,3.25,4.5,7.25,9.0,0.0,0.0,1.75,0.75,0.5,0.75,0.0,0.25,0.33,0.33,1.58,710.75,-15.2,57.7
4.14,0.5,0.5,1.0,1.75,1.25,1.75,0.0,1.0,0.0,2.0,0.5,1.0,1.5,-0.42,-0.17,0.7,96.91,-0.3,-8.1,8.25,2.75,2.75,7.25,8.25,5.5,0.25,0.0,0.5,0.0,0.25,0.0,0.5,0.58,0.52,1.89,615.39,-10.7,60.5
4.16,0.5,0.25,0.0,2.5,0.0,2.5,0.0,1.25,0.25,1.0,0.5,1.5,1.25,-0.67,-0.05,0.83,143.77,-1.9,-15.0,7.25,1.75,2.75,5.5,8.0,3.75,0.5,0.0,0.25,0.5,0.5,0.0,0.25,0.89,0.77,2.83,511.47,-11.3,58.6
4.18,0.5,0.5,1.0,2.75,1.75,2.5,0.25,1.0,0.25,2.0,0.5,1.25,1.5,-0.8,0.08,1.02,192.7,0.3,-1.4,7.25,1.25,1.75,3.25,6.75,2.5,0.5,0.0,0.25,0.75,0.25,0.0,2.0,0.89,0.45,2.64,415.38,-10.1,47.8
4.2,0.5,0.5,0.75,2.75,1.25,2.75,0.25,1.0,0.25,1.75,0.5,1.75,1.5,-0.8,0.2,1.14,219.41,0.0,-6.2,3.0,0.75,0.0,0.0,5.0,1.25,0.25,0.0,0.25,0.5,0.25,0.25,0.25,0.45,0.08,2.7,286.49,-5.0,47.9
4.22,0.5,0.5,1.0,1.75,1.25,2.75,0.25,1.0,0.25,1.5,0.5,1.5,1.5,-0.86,0.33,1.39,225.17,-0.4,-6.7,1.25,0.5,0.0,0.5,2.5,1.25,0.0,0.25,0.25,0.5,0.25,0.25,0.5,-0.8,-0.61,2.02,178.82,-1.0,27.9
4.24,0.5,0.5,1.0,1.75,1.75,2.75,0.0,1.0,0.25,2.0,0.5,1.5,1.5,-0.92,0.39,1.89,229.67,-1.3,-7.0,2.5,1.5,0.0,0.0,5.0,2.5,0.5,1.25,0.75,2.25,1.5,1.0,2.0,0.45,0.08,2.77,137.94,0.7,4.1
4.26,0.5,0.5,0.75,2.0,1.75,2.75,0.25,1.0,0.25,1.5,0.5,1.5,1.5,-1.17,0.77,2.7,228.28,-0.9,-4.4,1.75,1.5,0.0,1.25,5.0,1.25,0.5,1.75,0.75,2.25,1.5,1.0,1.5,0.64,-0.8,2.39,137.71,-0.4,4.4
4.28,0.0,0.5,1.0,1.5,1.75,2.5,0.25,1.0,0.25,2.0,0.5,1.0,1.5,-1.17,1.52,3.08,220.03,-2.6,-8.4,1.5,1.5,0.0,1.5,4.5,2.25,0.5,1.75,0.75,2.25,1.5,1.0,1.5,0.2,-0.86,1.7,170.55,0.7,4.0
4.3,0.25,0.25,1.0,1.75,1.25,2.75,0.25,1.0,0.0,1.5,0.5,0.5,1.5,-0.86,2.83,3.27,206.9,-2.3,-2.1,2.0,1.5,0.0,1.0,3.5,2.75,0.5,1.75,1.0,2.25,1.5,1.0,1.75,0.2,-0.23,1.08,196.61,0.7,0.7
4.32,0.25,0.5,0.75,2.0,1.25,2.75,0.25,1.0,0.0,0.25,0.5,0.0,1.75,0.14,4.08,1.89,189.25,-1.7,10.5,2.25,1.5,0.75,1.25,5.25,2.5,0.5,1.5,0.75,2.25,1.5,1.0,1.25,0.27,0.52,0.89,230.64,-1.5,12.2
4.34,0.25,0.25,0.0,0.25,0.75,2.5,0.0,0.0,0.0,0.0,0.5,0.25,1.5,2.33,7.89,-1.17,149.06,-8.7,-6.8,1.75,1.5,0.0,1.5,5.0,1.25,0.5,1.5,0.75,2.25,1.75,1.0,1.5,0.27,1.2,0.83,240.91,-0.9,4.6
4.36,0.25,0.0,0.25,0.25,1.75,1.5,0.25,1.0,0.0,0.0,0.5,0.25,1.5,4.39,5.33,-1.92,123.92,-5.6,-7.7,1.25,0.0,0.0,0.5,1.25,1.25,0.0,0.25,0.0,0.75,0.25,0.0,0.25,0.2,1.58,0.45,193.36,-0.2,25.6
4.38,0.0,0.0,0.0,0.25,0.0,5.0,0.0,1.0,0.0,5.0,0.25,3.25,2.75,-3.67,0.08,-0.73,155.41,-11.9,-53.5,1.25,0.0,0.0,0.5,1.25,1.25,0.0,0.0,0.25,1.25,0.25,1.0,0.25,0.14,1.77,0.33,147.46,-1.2,0.3
4.4,0.25,0.25,0.0,0.25,1.25,6.25,0.25,6.0,0.0,6.75,0.0,5.25,6.75,0.83,1.2,-0.17,257.78,-11.3,-52.3,1.0,0.0,0.0,0.5,5.0,0.25,0.5,1.75,0.25,0.75,0.25,0.0,0.25,-0.05,1.83,0.33,125.76,1.2,24.2
4.42,1.5,0.5,0.25,3.0,2.5,7.5,0.0,8.0,0.5,9.75,1.25,8.25,8.75,2.7,-0.92,2.64,439.73,-7.1,-43.6,1.0,0.0,0.0,0.5,1.25,0.0,0.0,0.25,0.0,0.5,0.25,0.0,0.25,-0.3,1.95,0.58,94.27,-5.7,25.3
4.44,1.75,1.75,1.0,3.5,4.75,8.5,0.0,9.25,1.75,10.5,5.5,8.75,10.5,-0.48,0.7,1.89,751.09,-4.8,-37.9,1.25,0.0,0.0,0.5,1.25,1.25,0.0,0.0,0.0,0.5,0.25,0.25,0.25,-0.3,1.89,0.7,82.78,-2.0,27.0
4.46,2.25,1.25,2.25,3.0,5.5,8.5,1.25,9.5,3.25,10.5,6.25,9.25,10.5,-0.8,0.02,1.2,1061.87,-3.2,-36.2,0.0,0.0,0.0,0.5,1.25,0.25,0.0,0.25,0.0,0.5,0.25,0.25,0.25,-0.3,1.83,0.64,52.36,3.2,-1.4
4.48,2.25,1.25,3.5,3.0,5.75,8.75,2.75,9.5,3.25,10.5,7.25,8.75,10.5,0.08,0.08,1.14,1305.09,-2.1,-33.5,0.75,0.0,0.0,0.25,1.0,1.25,0.0,0.0,0.0,0.75,0.0,0.0,0.25,-0.36,1.77,0.39,28.94,3.9,23.4
4.5,2.25,0.75,3.75,3.25,5.75,9.5,2.75,9.75,2.75,9.75,6.5,8.0,9.75,-0.11,-0.05,1.02,1389.55,-2.4,-30.6,1.0,0.0,0.0,0.5,1.25,1.25,0.0,0.0,0.0,0.5,0.25,0.0,0.25,-0.3,1.7,0.14,22.79,-0.2,30.4
4.52,2.25,1.25,3.75,3.25,5.75,10.0,2.75,9.75,2.5,8.75,5.25,6.75,8.75,-0.23,-0.11,0.89,1396.97,-2.5,-25.2,1.25,0.0,0.0,0.5,1.25,1.25,0.0,0.0,0.25,0.75,0.25,0.0,0.25,-0.23,1.7,-0.05,35.75,-1.4,25.7
4.54,2.25,1.75,4.75,3.25,6.75,11.0,3.0,9.5,2.0,6.5,3.75,5.5,7.0,-0.42,-0.11,0.95,1359.01,-1.8,-13.7,1.25,0.0,0.0,0.5,1.25,1.0,0.0,0.0,0.0,0.75,0.25,0.0,0.25,-0.36,1.52,-0.23,46.51,-2.0,28.3
4.56,2.25,1.75,4.75,3.25,7.75,12.0,2.75,9.5,2.0,5.75,3.0,4.75,6.0,-0.3,0.08,0.95,1311.18,-2.1,-7.9,1.25,0.0,0.0,0.5,1.25,0.0,0.0,0.0,0.0,0.75,0.25,0.0,0.25,-0.55,1.39,-0.36,51.69,-7.3,27.0
4.58,2.5,1.75,4.0,3.25,8.5,12.5,2.75,9.25,2.0,5.0,3.0,3.5,5.25,-0.3,0.08,1.02,1238.12,-2.5,-2.9,0.75,0.0,0.0,0.5,1.25,0.0,0.0,0.0,0.0,0.75,0.25,0.0,0.25,-0.98,1.2,-0.36,57.19,-4.0,18.6
4.6,3.75,1.75,4.75,3.25,8.75,13.0,4.0,9.25,2.0,5.0,2.75,3.25,4.25,-0.23,0.14,1.02,1178.17,-1.1,2.8,1.25,0.0,0.0,0.5,1.25,0.0,0.0,0.0,0.0,1.0,0.25,0.0,0.25,-1.48,1.14,-0.23,66.57,-6.1,21.5
4.62,4.0,1.75,4.75,3.75,9.25,13.5,4.0,9.0,1.75,4.75,2.5,3.25,3.75,-0.36,0.14,1.02,1123.13,-0.9,6.0,0.5,0.0,0.0,0.5,1.25,0.0,0.0,0.0,0.0,0.25,0.25,0.0,0.25,-5.67,1.08,0.89,57.22,-4.9,27.6
4.64,4.0,2.5,4.75,3.25,9.25,13.5,4.0,8.75,1.5,4.75,1.75,2.25,2.75,-0.36,0.2,1.08,1059.89,-0.9,11.9,2.0,1.5,0.0,0.5,1.5,1.25,0.0,0.0,0.0,0.5,0.25,0.0,1.25,-0.42,1.95,-3.11,84.44,-4.3,33.9
4.66,4.5,1.75,4.75,3.5,9.25,13.5,2.0,8.5,1.25,4.75,1.75,2.0,3.75,-0.36,0.33,1.08,1001.75,-1.5,10.2,0.75,0.0,0.0,0.5,1.25,1.25,0.0,0.0,0.0,1.25,0.25,0.0,0.25,-3.8,1.89,-1.61,94.92,3.3,13.4
4.68,4.75,1.75,4.75,3.25,9.25,13.5,3.5,8.5,1.0,4.0,1.5,2.0,3.5,-0.36,0.39,1.08,959.56,-0.9,12.7,1.25,0.0,0.0,0.5,1.25,0.25,0.0,0.25,0.0,0.75,0.25,0.0,0.25,-3.86,2.08,-0.23,97.51,-4.6,24.0
4.7,5.5,1.75,4.75,3.25,9.25,13.5,2.5,8.0,1.0,3.75,1.25,2.0,3.25,-0.36,0.45,1.08,935.36,-0.6,15.3,0.5,0.0,0.0,0.5,1.25,0.5,0.0,0.25,0.0,0.75,0.25,0.0,0.25,-2.86,1.95,0.08,87.71,1.6,12.8
4.72,5.25,2.25,4.75,3.25,9.25,13.0,1.5,7.5,0.25,3.25,0.0,1.75,2.25,-0.48,0.52,0.95,893.75,-0.6,22.5,1.0,0.0,0.0,0.5,1.25,1.25,0.0,0.0,0.0,0.75,0.25,0.0,0.25,-2.61,1.83,0.64,84.89,0.5,25.5
4.74,5.25,2.25,4.75,3.25,8.75,12.0,0.25,7.25,0.0,2.75,0.0,1.75,2.0,-0.86,0.45,0.7,844.1,-0.3,24.1,1.25,0.0,0.0,0.5,1.0,1.25,0.0,0.0,0.0,1.25,0.25,0.0,0.25,-2.67,1.58,1.14,83.58,0.2,18.3
4.76,4.0,1.75,3.75,3.0,7.5,8.5,0.0,6.0,0.0,2.5,0.5,1.75,1.75,-3.55,0.64,-0.36,735.24,0.0,20.4,1.0,0.0,0.0,0.5,1.0,1.25,0.0,0.0,0.0,1.25,0.5,0.0,0.25,-1.86,1.52,1.14,88.18,1.2,11.1
4.78,2.25,0.75,1.0,2.75,1.75,6.0,0.0,3.25,0.0,0.0,0.0,0.0,1.5,-3.05,0.14,-0.92,506.01,-2.0,26.8,1.25,0.0,0.0,0.25,1.0,1.0,0.0,0.0,0.25,1.25,0.5,0.0,0.25,-0.92,1.33,0.7,92.72,-0.8,9.4
4.8,0.25,0.25,0.25,1.0,0.0,5.0,0.0,0.0,0.0,0.0,0.0,1.25,1.5,0.7,2.14,4.83,291.89,-8.4,-2.2,1.0,0.75,0.0,0.5,0.25,1.25,0.0,0.25,0.0,1.25,0.25,0.0,0.25,-0.3,1.2,0.52,94.08,0.2,18.1
4.82,2.25,0.5,2.25,2.5,1.75,5.0,0.0,1.0,0.0,1.0,0.0,1.75,1.5,1.02,-0.92,3.27,198.71,3.1,17.5,1.0,0.0,0.0,0.5,1.0,1.25,0.0,0.0,0.0,1.0,0.5,0.0,0.25,0.14,0.83,0.39,92.48,0.5,15.0
4.84,2.25,0.75,2.25,3.0,1.75,5.0,0.0,1.0,0.0,0.5,0.5,1.75,1.75,-0.86,2.27,-0.55,152.56,4.0,18.0,0.75,0.0,0.0,0.5,1.0,1.0,0.0,0.25,0.0,0.75,0.75,0.0,0.25,0.39,0.27,0.27,88.61,0.6,8.2
4.86,0.5,0.25,0.75,1.0,0.75,3.0,0.0,1.0,0.0,0.0,0.0,0.25,0.75,-2.36,3.64,-2.98,96.18,-3.1,20.7,1.25,0.0,0.0,0.5,1.0,1.25,0.0,0.0,0.0,0.75,0.5,0.0,0.25,0.52,-0.3,0.08,87.56,-1.6,22.6
4.88,2.25,0.5,2.25,1.0,1.75,4.0,0.0,1.75,0.0,0.5,0.5,1.75,1.75,-1.36,2.64,-1.98,107.3,2.9,9.1,1.25,0.0,0.0,0.5,1.25,1.25,0.0,0.0,0.0,1.25,0.5,0.0,0.25,0.58,-0.55,0.02,89.05,0.0,16.3
4.9,2.0,0.75,2.25,1.75,1.75,2.25,0.0,1.0,0.0,0.0,0.0,1.0,0.25,-1.61,2.08,0.58,95.23,9.7,38.7,0.5,0.0,0.0,0.5,1.0,1.25,0.0,0.0,0.0,1.25,0.5,0.0,0.25,0.58,-0.73,0.08,90.96,4.4,3.5
4.92,1.75,0.5,2.25,2.75,1.75,3.25,0.0,1.5,0.0,0.75,0.5,0.75,1.5,-1.05,1.27,0.14,118.96,4.5,18.8,1.0,0.0,0.0,0.5,1.0,1.25,0.0,0.0,0.0,1.25,0.5,0.25,0.25,0.58,-0.86,0.14,93.37,0.8,6.1
4.94,1.25,0.75,2.25,2.75,1.75,3.0,0.0,1.5,0.0,1.25,0.5,0.75,1.75,-1.48,1.45,-0.42,142.95,3.3,13.2,1.5,1.5,0.0,1.75,1.25,1.5,0.5,1.0,0.25,2.25,1.5,1.0,1.25,0.58,-0.92,0.08,137.86,-1.8,-3.2
4.96,1.25,0.75,2.0,2.0,2.25,2.5,0.0,1.0,0.0,0.0,0.0,0.5,1.75,-1.8,1.83,-0.48,168.86,4.5,25.5,2.0,1.5,0.5,0.75,1.25,1.5,0.25,1.25,0.25,2.25,1.5,1.0,1.25,0.45,-0.98,-0.05,177.25,-2.5,-3.0
4.98,0.25,0.25,2.25,0.5,1.75,3.0,0.0,1.25,0.0,0.0,0.5,0.25,1.5,-1.67,1.77,-0.55,168.15,0.2,12.2,1.5,1.5,0.0,0.75,1.75,1.5,0.5,1.0,0.25,2.25,1.5,1.0,1.5,0.39,-0.86,-0.05,209.59,-0.3,-7.2
5.0,0.25,0.25,2.25,0.5,1.25,2.5,0.0,1.0,0.0,0.0,0.5,0.75,1.5,-1.61,1.64,-0.48,166.45,2.2,4.6,1.5,1.5,0.0,0.75,1.5,1.25,0.5,1.0,0.25,2.25,1.5,1.0,1.25,0.39,-0.86,-0.05,222.07,-1.0,-7.2
5.02,0.25,0.25,0.25,0.5,2.25,2.5,0.0,1.0,0.0,0.0,0.0,0.0,0.25,-1.05,1.45,-0.23,152.48,-7.0,32.9,1.5,1.5,0.0,0.75,1.5,1.5,0.5,1.0,0.25,2.25,1.5,1.0,1.25,0.45,-0.86,-0.11,226.96,-0.6,-6.6
5.04,0.25,0.25,0.25,0.75,0.75,2.5,0.0,0.0,0.0,0.0,0.0,0.25,0.0,-0.48,1.39,0.2,116.25,-3.9,41.7,1.5,1.5,0.0,0.75,1.75,1.75,0.5,1.0,0.25,2.25,1.5,1.0,1.25,0.58,-0.86,-0.11,226.83,-0.2,-4.8
5.06,0.25,0.25,0.25,0.25,0.75,2.5,0.0,0.0,0.0,0.0,0.0,0.25,0.0,-0.11,1.08,0.52,76.47,-6.4,39.8,1.5,1.5,0.0,0.75,1.5,1.25,0.5,1.0,0.25,2.25,1.5,1.0,1.25,0.7,-0.8,-0.11,224.97,-1.0,-7.2
5.08,0.25,0.25,0.0,0.25,1.25,2.5,0.0,0.0,0.0,0.0,0.0,0.25,0.25,-0.05,0.58,0.77,60.41,-8.7,32.7,1.75,1.5,0.0,0.75,1.25,1.5,0.5,1.0,0.25,2.25,1.5,1.0,1.25,0.77,-0.86,-0.11,224.33,-1.2,-6.1
5.1,0.25,0.25,0.0,0.5,1.25,2.5,0.0,0.0,0.0,0.0,0.0,0.25,0.0,-0.17,-0.17,0.77,56.47,-7.1,41.2,1.5,1.5,0.0,1.25,1.5,1.75,0.5,1.0,0.25,2.5,1.5,1.0,1.25,0.77,-0.92,-0.11,225.41,-0.5,-4.9
5.12,0.0,0.0,0.75,1.0,0.75,2.5,0.0,0.0,0.0,0.0,0.0,0.25,0.0,-0.17,-0.67,0.89,49.1,-1.3,39.1,2.0,0.75,0.25,0.5,1.5,1.25,0.75,1.25,0.0,1.0,1.75,0.0,0.5,0.64,-0.92,0.02,209.83,-4.2,12.5
5.14,0.25,0.25,0.25,0.25,0.75,2.5,0.0,0.0,0.0,0.0,0.0,0.25,0.0,-0.3,-0.98,0.95,49.8,-6.4,39.8,1.0,0.0,0.0,0.5,1.0,1.0,0.0,0.0,0.0,0.5,0.25,0.0,0.25,0.58,-1.05,0.02,164.35,-1.6,28.8
5.16,0.25,0.25,0.0,0.25,0.75,2.5,0.0,0.5,0.0,0.0,0.0,0.25,0.25,-0.3,-1.11,0.95,49.35,-10.1,23.1,0.5,0.0,0.0,0.5,1.0,1.25,0.0,0.0,0.0,1.0,0.25,0.0,0.25,0.58,-1.05,0.08,115.9,4.5,11.6
5.18,0.75,0.25,0.25,3.0,1.25,2.0,0.0,0.0,0.0,0.0,0.0,0.25,0.0,-0.23,-1.3,0.83,71.84,5.7,51.1,1.25,0.0,0.0,0.5,1.0,1.25,0.0,0.0,0.0,1.25,0.5,0.0,0.25,0.52,-1.05,0.14,79.51,-0.1,14.5
5.2,0.25,0.25,0.0,2.75,0.5,3.0,0.0,0.0,0.0,1.0,0.0,0.75,0.0,0.02,-1.3,0.58,97.37,-1.7,21.7,1.25,0.0,0.0,0.5,1.0,1.25,0.25,0.0,0.25,2.5,0.75,1.0,0.25,0.45,-1.05,0.2,80.42,0.0,-15.8
5.22,0.25,0.25,2.25,3.0,1.75,2.25,0.0,0.0,0.0,0.0,0.0,0.25,0.0,0.2,-1.36,0.33,131.06,9.7,50.7,0.75,0.0,0.0,0.5,1.5,1.25,0.5,1.0,0.0,0.75,1.5,0.0,1.25,0.33,-0.98,0.27,91.82,2.4,-12.1
5.24,0.25,0.5,0.0,0.25,1.25,2.5,0.0,0.0,0.0,0.0,0.0,0.25,0.0,0.33,-1.3,0.14,126.6,-7.3,43.3,0.5,0.0,0.0,0.25,1.25,1.0,0.0,0.0,0.0,0.75,0.25,0.0,0.25,0.2,-0.86,0.27,84.67,4.1,15.3
5.26,0.5,0.25,0.0,0.25,0.75,2.5,0.0,1.0,0.0,0.0,0.0,0.25,1.5,0.39,-1.3,0.08,126.34,-9.7,-3.2,1.0,0.0,0.0,0.0,1.0,0.75,0.0,0.0,0.0,0.75,0.25,0.0,0.25,0.02,-0.73,0.33,69.2,0.0,18.3
5.28,0.5,0.5,2.75,2.5,1.25,3.0,0.0,1.25,0.0,0.75,0.0,0.75,1.0,0.52,-1.36,0.08,154.93,4.5,20.3,0.75,0.0,0.0,0.0,1.25,1.0,0.0,0.0,0.0,0.75,0.25,0.0,0.25,-0.17,-0.55,0.33,53.59,3.3,17.2
5.3,1.0,0.25,2.25,2.5,1.25,3.0,0.0,1.0,0.0,1.25,0.0,1.0,1.5,0.52,-1.36,0.2,188.28,3.3,11.3,0.5,0.0,0.0,0.25,1.25,1.25,0.0,0.0,0.0,0.75,0.25,0.0,0.25,-0.36,-0.23,0.39,49.13,5.1,16.3
5.32,0.5,0.25,2.25,2.25,1.75,3.0,0.0,1.0,0.0,1.25,0.0,0.5,1.5,0.52,-1.42,0.2,214.46,1.6,13.5,0.75,0.0,0.0,0.5,1.25,1.25,0.0,0.0,0.0,0.5,0.25,0.0,0.25,-0.67,0.02,0.33,52.43,1.4,27.2
5.34,0.5,0.25,2.25,1.75,1.75,2.75,0.0,1.0,0.0,0.5,0.0,0.75,1.5,0.45,-1.42,0.2,223.54,2.6,14.1,1.0,0.0,0.0,0.5,1.25,1.25,0.0,0.0,0.0,0.75,0.25,0.0,0.25,-0.67,0.08,0.27,63.82,0.5,25.5
5.36,0.5,0.25,2.25,1.75,1.25,2.75,0.0,1.0,0.0,1.25,0.0,0.25,1.5,0.33,-1.36,0.2,221.79,1.5,11.9,0.75,0.0,0.0,0.25,1.25,1.25,0.0,0.0,0.0,0.75,0.25,0.0,0.25,-0.8,0.2,0.27,72.83,3.1,20.2
5.38,0.75,0.5,2.25,2.0,1.75,3.0,0.0,1.0,0.0,1.25,0.25,0.75,1.5,0.27,-1.23,0.14,223.03,2.3,12.0,1.0,0.0,0.0,0.0,1.25,1.25,0.0,0.0,0.0,0.5,0.25,0.0,0.25,-1.05,0.27,0.45,76.1,1.7,27.3
5.4,0.5,0.5,2.25,1.75,1.25,3.0,0.0,1.0,0.0,1.0,0.25,1.25,1.5,0.14,-1.11,-0.05,221.89,2.3,5.4,1.0,0.0,0.0,0.0,1.25,1.0,0.0,0.0,0.0,1.0,0.25,0.0,0.25,-1.42,0.33,0.7,73.62,2.1,16.3
5.42,0.75,0.5,2.25,2.0,1.25,3.0,0.0,1.0,0.0,1.5,0.5,0.75,1.5,0.02,-0.98,-0.11,225.9,2.4,7.6,0.25,0.0,0.0,0.0,1.25,0.0,0.0,0.0,0.0,0.5,0.25,0.0,0.25,-1.67,0.27,0.95,59.84,2.0,5.9
5.44,0.75,0.5,1.75,1.5,1.25,3.0,0.0,1.0,0.0,1.25,0.25,0.75,1.75,-0.05,-0.8,-0.23,222.38,0.4,4.5,0.75,0.0,0.0,0.0,1.25,1.25,0.25,0.25,0.0,0.5,0.25,0.0,0.25,-1.8,0.27,1.08,60.16,3.4,20.3
5.46,0.75,0.25,2.25,2.25,1.75,2.75,0.0,1.0,0.0,1.0,0.0,1.0,1.5,-0.05,-0.61,-0.42,222.79,3.1,11.8,0.75,0.0,0.0,0.0,1.0,1.25,0.0,0.0,0.0,0.5,0.25,0.0,0.25,-1.92,0.33,1.14,60.22,3.7,21.3
5.48,1.25,0.25,2.25,2.0,1.25,2.75,0.25,1.0,0.0,1.25,0.0,0.75,1.5,-0.17,-0.48,-0.42,221.01,3.9,12.8,0.5,0.0,0.0,0.0,1.0,1.25,0.0,0.0,0.0,0.5,0.25,0.0,0.25,-1.86,0.27,1.2,64.01,6.1,16.7
5.5,0.75,0.25,2.25,2.5,1.25,3.0,0.25,1.0,0.0,1.0,0.0,0.25,1.5,-0.3,-0.42,-0.42,215.17,3.1,17.9,0.75,0.0,0.0,0.0,1.25,1.25,0.0,0.0,0.0,0.5,0.25,0.0,0.25,-1.8,0.27,1.27,64.64,3.7,23.5
5.52,0.5,0.25,2.25,2.0,1.75,2.75,0.25,1.0,0.0,1.5,0.0,0.75,1.5,-0.55,-0.23,-0.36,210.02,1.8,8.8,0.5,0.0,0.0,0.0,1.25,1.25,0.0,0.0,0.0,0.5,0.25,0.0,0.25,-1.73,0.33,1.27,65.04,5.9,19.3
5.54,0.75,0.25,2.25,2.5,1.25,2.75,0.25,1.0,0.0,1.5,0.0,0.75,1.5,-0.73,0.08,-0.36,211.91,3.1,10.2,1.25,0.0,0.0,0.25,1.25,1.25,0.0,0.0,0.0,0.5,0.25,0.0,0.25,-1.61,0.33,1.2,70.34,-0.9,32.1
5.56,0.75,0.25,2.25,2.0,1.75,2.75,0.25,1.0,0.0,1.0,0.0,0.75,1.5,-0.92,0.39,-0.36,212.46,3.0,13.2,0.75,0.0,0.0,0.0,1.0,1.25,0.0,0.0,0.0,0.75,0.25,0.0,0.25,-1.36,0.33,1.02,70.35,4.4,15.7
5.58,1.0,0.5,2.25,1.75,1.25,2.75,0.25,1.0,0.0,1.25,0.0,1.25,1.5,-0.86,0.58,-0.42,213.48,3.5,8.0,0.75,0.0,0.0,0.0,1.0,1.25,0.0,0.0,0.0,0.75,0.25,0.0,0.25,-1.05,0.27,0.89,71.55,4.4,15.7
5.6,0.75,0.25,2.25,1.5,0.75,2.75,0.5,1.0,0.0,0.75,0.25,0.5,1.5,-0.8,0.7,-0.36,203.94,3.6,10.3,0.0,0.25,0.0,0.0,1.5,1.25,0.0,0.0,0.0,0.75,0.25,0.0,0.25,-0.73,0.27,0.89,71.1,9.5,12.5
5.62,0.75,0.5,2.5,1.75,1.25,2.75,0.5,1.0,0.0,1.0,0.5,1.0,1.5,-0.8,0.77,-0.17,204.47,4.3,8.4,0.75,0.0,0.0,0.25,1.0,1.25,0.0,0.0,0.0,0.75,0.25,0.0,0.25,-0.61,0.14,0.89,72.38,3.1,18.1
5.64,0.75,0.25,2.25,2.0,1.25,2.75,0.25,1.0,0.0,0.75,0.5,1.0,1.5,-0.73,0.77,-0.11,203.69,3.9,8.0,0.5,0.0,0.0,0.0,1.0,1.0,0.0,0.0,0.0,1.0,0.25,0.0,0.25,-0.67,0.02,1.02,70.21,6.3,4.3
5.66,0.75,0.5,2.25,2.0,1.25,2.75,0.5,1.0,0.0,0.75,0.5,0.75,1.5,-0.8,0.7,0.02,206.79,4.2,11.8,1.25,0.0,0.0,0.0,1.0,1.0,0.0,0.0,0.0,0.75,0.25,0.0,0.25,-0.73,0.02,1.14,72.26,-0.6,23.2
5.68,0.75,0.25,2.25,2.0,1.75,2.75,0.25,1.0,0.0,0.5,0.5,1.0,1.5,-0.92,0.7,0.02,208.88,4.0,11.2,0.75,0.0,0.0,0.0,1.0,1.0,0.0,0.0,0.0,0.5,0.25,0.0,0.25,-0.67,0.02,1.2,67.56,2.5,20.6
5.7,0.75,0.5,2.25,2.5,1.25,2.75,0.25,1.0,0.0,1.0,0.5,0.75,1.5,-1.05,0.7,-0.11,212.76,4.1,11.8,1.0,0.25,0.0,0.5,1.0,1.25,0.0,0.0,0.0,1.5,0.25,0.0,0.25,-0.61,-0.05,1.27,77.57,1.7,14.7
5.72,0.75,0.5,2.25,2.5,1.75,2.75,0.25,1.0,0.0,0.5,0.5,1.25,1.5,-1.05,0.7,-0.11,217.86,4.6,12.3,1.25,1.0,0.0,0.75,1.5,2.0,0.75,1.0,0.25,2.25,1.5,1.0,0.5,-0.48,-0.17,1.33,121.49,0.1,-4.8
5.74,1.0,0.5,2.25,2.5,1.25,2.75,0.25,1.0,0.0,0.25,0.5,0.25,1.5,-1.17,0.58,-0.11,216.61,5.5,22.2,1.5,1.25,0.0,1.25,1.25,1.75,0.5,0.5,0.25,2.25,1.5,1.0,1.25,-0.36,-0.3,1.39,163.78,-1.3,-5.5
5.76,0.5,0.5,1.75,2.0,0.75,2.75,0.25,1.0,0.0,0.0,0.5,0.5,1.5,-1.3,0.52,-0.05,204.67,3.4,13.8,1.25,0.75,0.25,0.5,1.25,1.25,0.25,1.25,0.25,2.25,1.5,0.75,0.25,-0.17,-0.3,1.33,186.67,-0.6,-7.7
5.78,0.75,0.5,2.25,2.5,1.25,2.75,0.25,1.0,0.0,0.25,0.5,0.25,1.5,-1.17,0.45,0.02,200.8,5.0,20.9,1.25,0.25,0.25,0.5,1.5,1.25,0.75,1.0,0.25,1.5,1.5,0.0,0.5,0.02,-0.3,1.2,188.53,-1.2,0.0
5.8,0.75,0.25,2.25,2.5,1.25,2.5,0.25,1.0,0.0,0.5,0.5,0.5,1.5,-1.23,0.39,0.2,198.35,5.0,15.2,1.25,1.0,0.0,0.5,1.5,2.0,0.5,0.5,0.25,2.25,1.0,0.75,0.5,0.2,-0.36,0.89,189.72,0.7,0.0
5.82,0.75,0.25,2.25,2.5,1.25,2.75,0.25,1.0,0.0,0.75,0.5,0.5,1.5,-1.48,0.27,0.2,202.07,4.2,13.9,1.25,1.0,0.0,0.5,1.5,1.25,0.75,1.0,0.0,1.5,1.5,0.0,0.5,0.33,-0.42,0.89,181.77,-0.9,6.8
5.84,0.5,0.5,2.25,2.75,1.25,2.75,0.25,1.0,0.0,0.25,0.5,0.75,1.5,-1.8,0.02,0.2,205.83,4.9,15.8,0.75,0.0,0.0,0.25,1.5,1.0,0.0,0.0,0.0,0.5,0.25,0.0,0.25,0.33,-0.42,0.83,151.65,1.5,26.8
5.86,0.5,0.25,2.25,2.75,1.75,2.5,0.25,1.0,0.0,0.5,0.5,0.25,1.5,-1.98,-0.11,0.02,207.46,4.4,18.4,1.0,0.0,0.0,0.5,1.0,1.25,0.0,0.0,0.0,0.75,0.25,0.0,0.25,0.45,-0.48,0.7,124.51,0.3,23.9
5.88,0.75,0.5,2.25,2.75,1.25,2.75,0.5,1.0,0.0,0.0,0.5,0.75,1.5,-1.67,-0.05,0.02,209.2,5.9,18.8,0.5,0.0,0.0,0.0,1.0,1.0,0.0,0.0,0.0,0.5,0.25,0.0,0.25,0.52,-0.42,0.83,90.32,5.0,15.5
5.9,0.75,0.5,2.25,2.5,1.25,2.5,0.5,1.0,0.0,0.0,0.5,1.0,1.5,-1.42,-0.05,0.02,208.7,6.3,15.6,1.25,0.25,0.0,0.5,1.0,1.0,0.0,0.0,0.25,1.5,0.25,0.75,0.25,0.33,-0.55,0.77,83.36,-1.8,1.8
5.92,0.5,0.25,1.75,2.25,0.75,2.75,0.25,1.0,0.0,0.0,0.5,0.75,1.5,-1.23,-0.11,-0.05,199.48,3.6,10.5,2.0,0.25,0.0,0.5,1.0,1.0,0.0,0.0,0.0,0.75,0.25,0.0,0.25,0.08,-0.48,0.95,78.87,-6.5,38.2
5.94,0.5,0.25,2.25,2.5,1.25,2.5,0.25,1.0,0.0,0.0,0.5,0.5,1.5,-1.05,-0.11,-0.05,194.86,5.3,17.2,0.5,0.0,0.0,0.5,1.0,1.0,0.0,0.0,0.0,0.5,0.25,0.0,0.25,-0.11,-0.48,1.08,70.21,2.1,20.9
5.96,0.5,0.5,2.25,2.75,1.25,2.5,0.0,1.0,0.0,0.5,0.5,0.75,1.5,-0.86,-0.11,0.14,196.35,4.7,13.8,0.75,0.0,0.0,0.5,1.25,1.25,0.0,0.0,0.0,0.75,0.25,0.0,0.25,-0.11,-0.42,1.08,62.7,2.1,22.2
5.98,0.75,0.25,2.25,2.0,1.25,2.75,0.25,1.0,0.0,0.25,0.5,1.0,1.5,-0.67,-0.23,0.2,199.44,4.6,11.0,1.25,0.0,0.0,0.5,1.25,1.25,0.0,0.0,0.0,1.0,0.25,0.0,0.25,0.02,-0.36,0.89,66.2,-0.2,24.0
6.0,0.5,0.25,2.0,2.25,1.25,2.75,0.25,1.0,0.0,0.75,0.5,0.75,1.5,-0.55,-0.3,0.33,201.52,2.9,8.6,1.0,0.0,0.0,0.5,1.0,1.0,0.0,0.0,0.0,1.0,0.25,0.0,0.25,0.02,-0.3,0.83,69.17,0.0,18.5
6.02,0.75,0.25,2.25,2.25,0.75,2.75,0.0,1.0,0.0,0.75,0.5,1.0,1.5,-0.48,-0.42,0.45,200.75,4.2,6.9,1.25,0.0,0.0,0.5,1.0,1.25,0.0,0.0,0.0,0.75,0.25,0.0,0.25,0.2,-0.23,0.77,73.26,-1.1,27.1
6.04,0.5,0.25,2.25,2.25,0.75,2.75,0.0,1.0,0.0,0.5,0.5,1.25,1.5,-0.36,-0.42,0.58,199.16,4.1,4.7,1.25,0.0,0.0,0.5,1.0,1.25,0.0,0.0,0.0,1.0,0.25,0.0,0.25,0.39,-0.05,0.77,78.21,-0.4,22.5
6.06,0.75,0.5,1.0,2.5,1.25,2.75,0.0,1.0,0.0,0.75,0.5,0.75,1.25,-0.23,-0.48,0.64,195.67,1.2,10.9,1.25,0.5,0.0,0.25,1.0,1.5,0.0,0.0,0.0,1.25,0.25,0.25,0.5,0.45,0.08,0.64,90.58,0.9,13.8
6.08,0.75,0.5,0.0,2.5,0.75,2.75,0.0,0.75,0.0,0.5,0.5,1.25,1.0,-0.17,-0.48,0.77,184.85,-0.3,4.7,0.25,0.0,0.0,0.0,1.0,0.5,0.0,0.0,0.0,0.75,0.25,0.0,0.25,0.45,0.14,0.7,81.71,6.1,-0.7
6.1,0.5,0.25,1.75,2.25,0.75,2.75,0.0,1.0,0.0,0.5,0.5,1.0,1.5,-0.17,-0.48,0.83,182.34,2.7,4.7,0.5,0.0,0.0,0.5,1.0,1.0,0.0,0.0,0.0,0.5,0.25,0.0,0.25,0.33,0.2,0.83,74.98,2.1,20.9
6.12,0.5,0.25,2.0,2.0,0.75,2.75,0.0,1.0,0.0,0.5,0.5,1.0,1.5,-0.23,-0.48,0.83,180.63,3.1,4.7,0.5,0.0,0.0,0.0,1.0,0.75,0.0,0.0,0.0,0.75,0.25,0.0,0.25,0.33,0.2,0.83,62.89,4.5,7.9
6.14,0.5,0.5,2.25,2.5,1.25,2.75,0.0,1.0,0.0,0.5,0.5,0.75,1.5,-0.3,-0.55,0.83,190.31,4.1,13.4,1.0,0.0,0.0,0.5,1.25,1.25,0.0,0.0,0.0,0.75,0.25,0.0,0.25,0.27,0.08,0.83,65.96,0.5,25.5
6.16,0.75,0.25,2.25,2.5,0.75,2.5,0.0,1.0,0.0,0.5,0.5,1.0,1.5,-0.3,-0.48,0.89,195.34,5.3,8.9,1.5,0.75,0.0,0.5,1.0,0.75,1.0,0.5,0.0,0.75,1.5,0.0,1.25,0.27,-0.23,1.02,90.6,-4.5,1.7
6.18,0.75,0.5,2.25,2.25,0.75,2.75,0.0,1.0,0.0,0.5,0.5,0.75,1.5,-0.3,-0.36,1.02,198.94,4.6,12.3,1.25,0.0,0.0,0.0,1.0,0.5,0.0,0.0,0.0,0.75,0.25,0.0,0.25,0.39,-0.42,1.08,91.65,-3.3,22.0
6.2,0.75,0.5,2.25,2.5,0.75,2.75,0.0,1.0,0.0,1.25,0.5,0.5,1.5,-0.36,-0.36,1.02,202.29,3.7,10.6,1.0,0.0,0.0,0.0,1.0,0.0,0.0,0.0,0.0,0.5,0.25,0.0,0.25,0.95,-1.98,2.02,81.11,-6.4,22.3
6.22,0.5,0.5,2.25,2.5,0.75,2.75,0.0,1.0,0.0,0.5,0.5,0.75,1.5,-0.48,-0.42,1.02,203.11,4.4,11.7,1.0,0.5,0.0,0.0,1.25,0.0,0.0,0.0,0.0,0.25,0.25,0.0,0.25,-0.36,-0.05,0.39,67.42,-8.1,42.3
6.24,0.5,0.25,2.0,1.75,1.25,2.75,0.0,1.0,0.0,1.25,0.5,1.5,1.5,-0.61,-0.48,0.95,205.14,1.8,-2.3,0.75,0.0,0.0,0.5,1.25,0.0,0.0,0.0,0.0,0.75,0.75,0.25,0.25,-0.8,0.14,1.33,64.35,-5.0,1.9
6.26,0.75,0.5,2.25,2.5,0.75,2.75,0.0,1.0,0.0,0.75,0.5,0.75,1.5,-0.61,-0.55,0.95,206.54,4.5,11.5,0.5,0.0,0.0,0.5,1.25,0.5,0.0,0.0,0.0,0.75,0.5,0.5,0.25,-0.23,-0.23,1.14,64.92,-0.8,-1.3
6.28,0.75,0.25,2.25,2.5,0.75,2.75,0.0,1.0,0.0,1.25,0.5,0.5,1.5,-0.55,-0.55,1.02,208.23,3.6,9.0,1.25,0.0,0.0,0.5,1.25,0.5,0.0,0.0,0.0,0.75,0.5,0.25,0.25,-0.17,-0.11,0.95,74.02,-4.9,16.6
6.3,1.0,0.25,2.25,3.0,1.25,2.75,0.0,1.0,0.0,0.5,0.5,0.75,1.5,-0.55,-0.55,0.95,212.92,5.3,16.1,1.25,0.0,0.0,0.5,1.25,1.0,0.0,0.0,0.0,0.5,0.75,0.5,0.25,0.27,-0.05,0.52,84.86,-4.0,12.9
6.32,1.0,0.5,2.25,2.25,0.75,2.75,0.0,1.0,0.0,1.25,0.5,0.75,1.5,-0.55,-0.55,0.95,215.02,4.1,9.1,1.25,0.0,0.0,0.0,1.0,1.0,0.0,0.0,0.0,1.0,0.75,0.75,0.25,0.7,-0.11,0.33,91.95,-1.7,-5.3
6.34,0.75,0.25,2.25,2.5,0.75,2.75,0.0,1.0,0.0,1.25,0.5,0.5,1.5,-0.48,-0.48,0.95,212.81,3.6,9.0,1.25,0.0,0.0,0.5,1.25,1.25,0.0,0.0,0.0,1.0,1.0,0.75,0.5,0.7,-0.05,0.58,101.56,-1.6,-3.2
6.36,1.0,0.5,2.25,2.5,0.75,3.0,0.0,1.0,0.0,0.5,0.5,0.5,1.5,-0.36,-0.23,1.02,210.63,4.8,17.0,0.5,0.0,0.0,0.0,1.0,1.25,0.0,0.0,0.0,1.5,1.5,0.5,1.0,0.64,-0.17,0.64,107.31,4.4,-33.3
6.38,0.5,0.75,1.5,1.75,0.5,0.0,0.0,1.0,0.0,0.0,0.5,0.0,1.5,-0.23,-0.23,1.02,181.96,9.9,13.2,1.75,1.0,0.0,0.75,1.5,0.75,0.0,0.0,0.0,1.25,1.5,0.5,2.0,0.33,-0.17,0.95,130.68,-3.0,-5.4
6.4,0.0,0.0,0.0,0.0,0.0,0.0,0.0,0.0,0.0,0.0,0.0,0.0,0.0,-0.3,-0.17,0.89,114.97,0.0,0.0,0.75,0.0,0.25,0.0,2.25,1.0,0.5,0.25,0.0,1.25,1.5,0.5,1.0,0.2,-0.3,0.83,140.42,0.6,-12.9
6.42,0.0,0.0,0.0,0.0,0.0,0.0,0.5,0.0,0.0,0.0,0.0,0.0,0.0,-0.3,-0.11,0.83,48.02,32.4,27.3,1.25,0.0,0.0,0.0,1.0,1.0,0.0,0.0,0.0,1.0,1.25,0.75,1.25,0.52,-0.17,0.45,143.65,-0.2,-24.2
