time,left pressure 0[N/cm虏],left pressure 1[N/cm虏],left pressure 2[N/cm虏],left pressure 3[N/cm虏],left pressure 4[N/cm虏],left pressure 5[N/cm虏],left pressure 6[N/cm虏],left pressure 7[N/cm虏],left pressure 8[N/cm虏],left pressure 9[N/cm虏],left pressure 10[N/cm虏],left pressure 11[N/cm虏],left pressure 12[N/cm虏],left acceleration X[g],left acceleration Y[g],left acceleration Z[g],left total force[N],left center of pressure X[mm],left center of pressure Y[mm],right pressure 0[N/cm虏],right pressure 1[N/cm虏],right pressure 2[N/cm虏],right pressure 3[N/cm虏],right pressure 4[N/cm虏],right pressure 5[N/cm虏],right pressure 6[N/cm虏],right pressure 7[N/cm虏],right pressure 8[N/cm虏],right pressure 9[N/cm虏],right pressure 10[N/cm虏],right pressure 11[N/cm虏],right pressure 12[N/cm虏],right acceleration X[g],right acceleration Y[g],right acceleration Z[g],right total force[N],right center of pressure X[mm],right center of pressure Y[mm]
0.02,2.25,1.0,0.0,1.25,0.5,0.0,0.0,1.0,1.0,0.25,0.0,0.0,0.0,-0.3,0.45,0.83,96.74,13.5,43.9,2.5,0.25,1.25,0.0,2.75,0.0,0.25,1.25,0.0,0.75,0.75,0.0,0.0,-0.17,1.83,0.83,121.1,-10.3,34.9
0.04,4.75,1.0,0.0,1.0,3.0,1.0,0.0,1.0,1.0,1.0,0.25,0.25,0.0,-0.48,0.45,0.77,140.75,9.5,42.8,2.25,0.0,1.25,1.25,1.5,2.0,0.25,1.25,0.5,0.75,0.25,0.0,0.0,-0.23,1.14,0.95,43.82,-6.8,33.8
0.06,6.25,0.75,0.0,1.25,4.75,1.5,0.0,1.0,0.75,1.25,0.25,0.25,0.0,-0.42,0.39,0.83,197.51,8.9,46.8,2.0,0.25,0.5,1.25,0.0,1.0,0.25,1.25,0.25,1.0,0.25,0.0,0.0,-0.3,1.08,0.95,0.0,-8.0,25.6
0.08,7.75,1.0,0.0,2.75,1.25,2.25,0.25,1.25,1.5,0.0,0.5,0.5,0.0,-0.3,0.33,1.02,240.55,14.7,50.3,1.25,0.25,1.25,1.25,2.5,2.0,0.25,0.75,0.0,0.75,0.25,0.0,0.0,0.08,1.08,0.64,0.0,-4.2,38.6
0.1,8.5,1.0,2.25,4.0,4.75,3.5,0.25,3.0,1.5,1.5,0.25,0.75,0.0,-0.17,0.27,1.08,314.35,10.0,41.0,1.25,0.25,0.5,1.25,2.75,0.0,0.25,1.25,0.5,0.75,0.25,0.0,0.0,0.27,0.95,0.39,0.0,-5.9,29.9
0.12,9.5,2.75,4.75,4.25,7.25,5.75,2.25,3.25,2.0,0.75,2.0,0.5,1.0,0.02,0.2,1.08,475.7,10.1,39.5,1.25,0.25,0.75,0.5,2.75,0.0,0.25,1.25,0.5,0.25,0.0,0.0,0.0,0.14,0.77,0.39,9.29,-7.1,37.9
0.14,8.75,2.5,4.75,6.25,7.5,6.25,4.0,3.5,1.75,1.0,0.5,0.25,0.0,0.02,0.2,1.14,647.45,10.3,46.2,1.0,0.25,0.5,0.5,2.5,0.0,0.0,1.0,0.5,0.75,0.25,0.0,0.0,-0.05,0.7,0.58,20.51,-4.6,26.3
0.16,11.0,3.75,6.25,7.75,9.75,8.25,4.25,4.0,2.5,1.0,0.75,0.5,1.0,0.02,0.08,1.08,884.9,9.9,44.1,1.0,0.25,1.0,0.0,2.75,0.0,0.0,1.0,0.5,0.5,0.25,0.0,0.25,-0.11,0.52,0.89,42.7,-5.7,26.3
0.18,10.5,4.0,6.5,7.25,9.0,8.5,6.5,4.75,2.75,2.75,0.5,0.5,1.25,-0.11,0.08,1.14,1088.31,9.1,38.6,1.0,0.25,0.5,0.25,2.25,1.25,0.0,1.25,0.5,0.5,0.25,0.0,0.0,-0.23,0.45,1.02,69.02,-0.5,26.6
0.2,10.5,4.0,0.0,7.25,11.0,9.0,7.0,5.5,3.5,3.5,1.75,0.75,1.0,-0.23,0.02,1.02,1227.07,4.8,31.2,1.25,0.25,0.25,0.0,0.5,1.25,0.25,1.25,0.5,1.0,0.25,0.0,0.0,-0.17,0.52,0.89,82.26,-0.1,10.4
0.22,10.5,4.0,6.25,7.75,0.0,9.5,6.75,5.75,4.25,3.5,0.5,1.0,1.0,-0.17,0.02,1.02,1228.11,10.2,30.3,0.75,0.25,0.5,0.0,1.25,1.75,0.25,1.25,0.5,0.5,0.25,0.0,0.25,-0.17,0.45,0.95,96.55,2.0,14.8
0.24,10.5,4.0,6.25,7.75,13.5,9.5,7.0,6.25,4.75,3.75,2.0,1.5,1.5,-0.11,-0.05,1.02,1345.15,7.0,29.9,0.5,0.25,0.0,0.0,0.0,0.0,0.0,1.5,0.5,0.5,0.25,0.0,0.25,-0.3,0.45,1.02,84.04,2.2,-24.2
0.26,9.5,4.0,6.25,7.75,13.5,9.75,7.5,6.75,5.0,3.5,2.75,2.0,1.75,-0.17,-0.11,1.08,1420.56,6.6,26.4,0.75,0.25,0.0,0.0,0.0,0.0,0.25,1.25,0.5,0.5,0.25,0.0,0.25,-0.23,0.45,1.02,67.87,-2.0,-14.2
0.28,9.5,4.0,5.75,7.75,13.5,9.75,7.75,7.0,5.0,3.5,3.0,2.0,1.75,-0.11,-0.11,1.02,1491.33,6.4,25.7,0.5,0.25,0.0,0.0,0.0,0.0,0.0,1.25,0.5,0.5,0.25,0.0,0.5,0.02,0.45,1.02,50.03,2.0,-29.2
0.3,9.25,4.0,6.25,7.75,13.5,9.75,7.75,6.75,4.75,2.75,3.0,1.75,1.75,-0.11,-0.11,1.02,1514.02,6.8,27.5,0.75,0.25,0.0,0.0,0.0,0.25,0.25,1.25,0.5,0.5,0.25,0.0,0.25,0.14,0.45,1.02,46.57,-0.6,-11.4
0.32,9.25,4.0,6.25,7.75,13.5,9.75,7.75,6.75,4.5,2.5,2.0,1.5,1.5,-0.11,-0.05,0.95,1499.86,6.8,30.4,2.25,1.25,0.75,0.0,2.75,1.0,0.5,1.25,0.5,0.5,0.75,0.0,0.25,0.08,0.45,1.2,87.46,-6.5,34.1
0.34,9.0,4.0,6.25,7.75,13.5,9.75,7.5,6.75,4.5,0.75,2.25,1.25,1.75,-0.11,-0.05,0.95,1441.29,7.2,32.3,0.75,0.25,0.0,0.0,2.25,1.0,0.0,1.25,0.5,0.5,0.75,0.0,0.75,0.08,0.52,1.2,110.23,3.3,2.5
0.36,8.75,3.5,6.25,7.75,13.0,9.5,7.25,6.5,4.25,2.25,2.0,1.5,1.75,-0.11,-0.05,0.95,1387.66,6.8,29.6,0.5,0.25,0.0,0.0,1.25,1.25,0.0,1.25,0.5,0.5,0.25,0.0,0.25,0.02,0.7,1.14,118.89,5.8,6.0
0.38,8.75,2.5,6.0,7.75,13.0,9.5,6.75,6.5,4.0,1.75,2.25,1.0,1.75,-0.11,0.02,0.89,1339.64,6.6,30.1,0.5,0.25,0.0,0.0,1.0,1.25,0.0,0.5,0.5,0.5,0.75,0.0,0.5,0.14,0.64,1.2,108.58,3.5,-2.4
0.4,8.5,2.75,5.5,7.75,13.0,9.5,6.75,6.25,4.0,2.25,2.0,1.5,1.75,-0.11,0.02,0.89,1289.34,6.2,28.7,2.25,1.25,1.25,0.0,1.5,2.0,0.0,0.0,1.0,2.5,0.5,0.5,1.0,0.27,0.7,1.2,139.85,-4.2,9.9
0.42,7.75,2.5,5.25,7.5,13.0,9.5,6.25,6.25,4.0,3.0,2.0,0.75,1.75,-0.11,0.02,0.89,1236.67,5.4,27.9,0.75,0.25,0.5,0.0,1.75,1.25,0.25,1.25,0.75,2.5,1.75,0.25,1.0,0.33,0.7,1.14,157.77,2.2,-20.9
0.44,7.75,2.5,5.0,7.5,13.0,9.75,6.25,6.25,4.0,3.5,2.25,1.0,1.75,-0.11,0.02,0.89,1205.99,5.1,26.2,0.75,0.25,0.0,0.0,2.75,1.5,0.25,1.0,0.5,2.25,0.5,0.0,0.5,0.2,0.64,1.14,174.55,5.6,-0.4
0.46,7.5,2.5,4.75,7.5,12.5,9.75,6.25,6.75,4.5,3.5,3.0,1.75,1.75,-0.17,-0.05,0.95,1186.28,4.9,22.2,0.75,0.25,0.0,0.0,1.0,1.25,0.0,0.25,0.5,0.5,0.25,0.0,0.5,0.14,0.52,1.08,154.35,2.5,10.3
0.48,7.0,2.5,4.75,7.5,12.0,9.75,6.25,7.25,4.75,3.5,3.0,2.0,1.75,-0.17,-0.05,0.95,1162.87,4.6,20.3,0.5,0.25,0.0,0.0,2.25,1.0,0.0,0.0,0.5,0.25,0.25,0.0,0.5,0.14,0.39,0.95,133.96,2.2,22.5
0.5,6.5,2.5,4.75,7.25,11.0,9.5,6.25,7.5,5.25,4.5,4.5,2.5,2.0,-0.11,-0.05,0.95,1177.29,4.4,13.8,0.75,0.25,0.0,0.0,1.5,1.0,0.0,0.75,0.5,0.25,0.25,0.0,0.5,-0.05,0.14,0.95,107.65,2.4,13.1
0.52,6.0,2.5,4.75,6.0,11.0,9.5,5.75,7.75,5.75,5.5,4.5,3.5,3.75,-0.11,-0.05,0.95,1205.8,3.2,6.1,0.5,0.25,0.0,0.0,2.25,1.0,0.0,1.0,0.5,0.25,0.25,0.0,0.25,-0.3,0.02,1.14,98.86,4.0,18.3
0.54,5.75,2.5,4.0,6.0,9.75,9.0,5.75,8.0,5.75,6.0,5.0,5.0,4.25,-0.11,-0.11,0.95,1229.67,2.9,-0.1,0.5,0.25,0.0,0.0,0.0,0.75,0.0,0.5,0.5,0.0,0.25,0.0,0.25,-0.36,-0.11,1.2,75.56,0.0,3.5
0.56,5.25,2.5,3.75,5.25,9.0,9.0,5.0,8.0,5.75,6.75,5.5,6.0,5.5,-0.11,-0.11,1.02,1247.7,2.0,-6.8,0.5,0.25,0.0,0.0,0.0,1.0,0.0,1.25,0.5,0.0,0.25,0.0,0.25,-0.36,-0.11,1.08,60.41,4.5,-2.7
0.58,3.75,2.25,2.5,4.25,8.5,8.75,3.75,8.0,5.75,7.0,6.0,6.25,6.25,-0.11,-0.11,0.95,1222.25,0.2,-14.4,0.5,0.25,0.0,0.0,0.5,0.75,0.0,0.5,0.5,0.0,0.25,0.0,0.5,-0.3,-0.11,0.83,51.39,1.4,3.4
0.6,3.75,1.5,2.25,4.25,7.5,8.25,3.75,8.0,5.75,7.0,6.0,6.75,7.0,-0.11,-0.11,0.95,1179.86,0.1,-19.1,0.5,0.25,0.0,0.0,1.25,0.75,0.0,1.0,0.5,0.0,0.25,0.0,0.0,-0.23,-0.17,0.77,51.3,2.0,20.9
0.62,3.5,1.5,2.25,4.25,7.5,8.0,3.75,8.0,5.5,7.0,6.0,6.75,7.0,-0.11,-0.05,0.95,1133.02,0.0,-19.6,0.5,0.25,0.0,0.0,2.25,0.0,0.0,0.75,0.5,0.0,0.25,0.0,0.25,-0.23,-0.17,0.7,53.78,-0.6,22.8
0.64,3.5,1.25,2.25,4.25,7.25,8.0,3.75,8.0,5.5,7.5,6.0,7.0,7.0,-0.11,-0.05,0.95,1101.02,0.0,-21.1,0.25,0.25,0.0,0.0,0.5,0.0,0.0,1.0,0.5,0.0,0.25,0.0,0.25,-0.23,-0.17,0.77,46.62,0.7,-8.1
0.66,3.5,1.25,2.25,4.25,7.25,8.0,2.75,8.0,5.25,7.75,6.0,7.25,7.25,-0.11,-0.05,0.95,1082.15,-0.4,-22.2,0.5,0.25,0.0,0.0,1.0,0.0,0.0,0.5,0.5,0.25,0.25,0.0,0.0,-0.17,-0.23,0.89,48.14,-3.5,17.0
0.68,3.0,1.25,2.25,4.25,7.25,8.0,2.5,8.0,5.25,8.0,6.0,7.5,8.0,-0.11,-0.05,0.95,1075.62,-0.8,-24.5,0.5,0.25,0.0,0.0,1.0,0.0,0.0,0.75,0.5,0.25,0.25,0.0,0.25,-0.05,-0.23,0.77,49.26,-1.1,5.0
0.7,2.75,1.25,1.75,4.25,7.25,8.0,2.25,8.0,5.25,8.25,6.0,7.5,8.0,-0.11,-0.05,0.95,1068.07,-1.4,-25.8,0.5,0.25,0.0,0.0,0.0,0.0,0.0,0.75,0.5,0.0,0.5,0.0,0.25,0.02,-0.3,0.64,47.07,-5.4,-15.4
0.72,2.5,1.25,1.75,4.0,7.0,7.75,2.25,8.0,5.25,8.0,6.0,7.5,8.0,-0.17,-0.05,0.95,1052.93,-1.4,-26.9,0.25,0.25,0.0,0.0,0.0,0.5,0.0,1.25,0.5,0.0,0.25,0.0,0.25,-0.05,-0.3,0.77,44.24,4.7,-15.4
0.74,2.25,1.25,2.0,4.25,7.25,8.0,2.75,8.0,5.25,8.0,6.0,7.5,8.0,-0.11,-0.05,0.95,1047.33,-1.3,-26.0,1.0,0.25,0.0,0.0,0.5,1.0,0.0,0.5,0.75,0.0,1.0,0.0,0.5,-0.05,-0.42,0.89,56.21,-3.0,0.4
0.76,2.5,1.25,2.25,4.25,7.25,8.0,2.75,8.0,5.25,8.0,5.75,7.25,8.0,-0.11,-0.05,0.95,1047.85,-1.1,-24.8,1.25,0.25,0.0,0.0,1.75,1.0,0.0,1.0,0.5,0.5,0.25,0.0,0.25,0.2,2.02,0.83,77.69,0.5,20.0
0.78,2.25,1.25,2.25,4.25,7.25,8.0,4.0,8.0,5.25,8.0,5.25,6.75,7.75,-0.11,-0.05,0.95,1051.44,-1.0,-23.4,2.75,1.0,0.0,0.5,1.75,2.0,0.0,0.75,0.5,1.5,0.75,0.0,0.25,0.33,0.27,0.64,123.54,-3.0,26.5
0.8,2.75,1.25,2.25,4.25,7.25,8.0,5.25,8.0,5.25,8.0,5.25,6.75,7.75,-0.11,-0.05,0.95,1064.94,-0.5,-22.2,4.25,0.25,0.0,1.25,2.75,3.0,0.0,1.0,0.75,1.5,0.25,0.25,0.75,0.58,0.39,-0.3,178.4,-3.2,27.7
0.82,3.0,1.25,2.25,4.25,7.5,8.0,5.25,8.0,5.0,8.0,5.25,7.0,7.25,-0.11,-0.05,0.95,1080.73,-0.3,-21.1,7.5,2.0,1.0,2.0,5.5,3.5,0.0,1.5,1.0,1.5,1.5,0.25,1.0,0.83,0.64,0.89,274.07,-7.5,37.3
0.84,3.25,1.0,2.75,4.25,7.5,8.0,5.5,8.0,5.25,8.0,5.25,6.75,7.25,-0.11,-0.05,0.95,1095.88,0.0,-20.2,9.0,2.75,2.25,4.0,6.25,4.5,0.25,1.0,1.0,1.75,1.5,0.0,1.0,0.52,0.58,1.27,389.42,-9.6,44.7
0.86,2.75,1.25,2.75,4.25,7.5,7.25,6.0,8.0,4.5,7.0,5.0,6.0,7.25,-0.11,-0.05,0.95,1081.47,0.1,-18.8,10.5,3.0,3.75,4.5,7.25,5.75,0.0,1.0,0.25,3.0,1.5,0.0,1.0,0.27,0.7,1.52,554.9,-9.5,45.4
0.88,3.5,1.0,3.25,4.25,7.25,8.0,6.0,8.0,5.0,8.0,5.25,6.75,7.0,-0.11,-0.05,0.95,1093.44,0.5,-19.0,11.5,2.75,5.5,7.75,7.5,6.0,0.0,0.0,0.5,2.75,1.5,0.25,1.25,-0.11,0.33,1.33,725.25,-11.9,47.9
0.9,3.25,1.0,4.0,4.25,7.25,8.0,6.0,7.75,5.0,7.25,5.0,6.75,8.0,-0.11,-0.05,0.95,1103.21,0.8,-19.0,11.5,3.75,6.5,9.5,9.75,6.5,0.0,0.0,1.0,2.5,2.0,0.5,1.0,-0.05,0.27,1.14,907.95,-11.8,48.3
0.92,3.0,1.0,2.75,4.25,7.5,8.0,6.25,8.0,4.75,8.0,5.25,7.0,8.0,-0.11,-0.05,0.95,1118.61,-0.1,-21.5,12.5,5.0,7.5,11.5,11.0,7.25,0.0,2.75,1.75,3.0,1.75,0.5,1.0,-0.11,0.27,1.14,1129.49,-10.6,45.4
0.94,2.5,1.0,3.25,4.25,7.5,8.0,5.75,7.75,4.75,8.25,5.25,7.5,8.75,-0.11,-0.05,0.95,1133.78,-0.2,-23.5,12.5,4.5,8.25,11.5,12.5,7.75,0.25,3.25,0.5,3.0,2.25,0.5,0.25,0.14,0.27,1.27,1314.69,-10.4,47.1
0.96,2.5,1.0,3.0,4.25,7.25,7.25,5.0,8.0,4.5,9.25,5.25,8.25,9.5,-0.11,0.02,0.95,1149.36,-0.6,-27.4,12.5,5.25,8.25,12.5,14.0,8.5,2.0,4.0,2.0,3.0,2.0,0.25,1.0,0.2,0.27,1.33,1453.98,-9.7,44.4
0.98,1.5,1.0,2.25,2.5,6.5,6.0,4.0,8.0,3.5,9.25,6.0,8.25,8.75,-0.11,0.02,1.02,1113.52,-1.8,-34.6,11.5,4.5,8.25,11.5,14.5,8.5,2.25,3.75,2.5,2.75,2.25,0.25,1.0,0.14,0.2,1.2,1520.69,-9.4,42.7
1.0,0.5,0.0,0.0,0.0,5.0,5.25,1.5,7.5,2.5,9.25,5.75,8.25,9.75,-0.3,0.02,1.14,1018.07,-6.1,-53.9,12.0,5.0,8.25,13.0,14.5,8.5,3.0,4.25,2.5,1.25,2.25,0.0,1.25,0.14,0.14,1.14,1564.22,-10.0,45.4
1.02,0.0,0.0,0.0,0.0,5.0,4.0,0.75,7.25,2.25,9.0,4.5,8.25,9.75,-0.42,0.08,1.2,905.85,-6.8,-57.4,11.5,5.0,8.5,13.0,14.0,8.5,3.0,4.25,2.5,3.0,2.5,0.25,0.25,0.14,0.14,1.08,1565.54,-9.8,43.6
1.04,0.0,0.0,0.0,0.0,5.0,4.0,0.5,6.75,1.75,8.25,4.25,8.0,9.75,-0.11,0.02,1.7,799.78,-7.0,-57.4,11.5,5.0,8.0,12.5,12.5,8.5,2.5,4.25,2.0,3.0,1.5,0.5,0.0,0.08,0.14,1.02,1528.9,-9.9,45.3
1.06,0.0,0.0,1.5,1.25,5.0,4.0,1.5,6.5,1.75,8.0,4.0,7.75,9.75,-0.48,0.02,1.33,741.07,-4.7,-49.7,11.5,4.75,8.0,11.5,14.0,8.0,2.0,4.25,1.75,3.0,2.0,0.5,1.25,0.02,0.2,0.95,1482.14,-9.2,42.0
1.08,0.75,0.0,0.0,0.0,3.5,3.5,0.25,6.0,1.75,7.0,3.0,7.5,8.75,-0.48,0.02,1.45,662.12,-6.5,-58.0,10.5,4.25,7.25,11.5,13.0,8.0,1.25,4.25,1.5,2.75,2.25,0.5,1.0,0.02,0.2,0.95,1413.35,-8.7,41.4
1.1,0.0,0.25,1.25,1.25,4.75,2.75,1.0,6.25,1.5,5.25,4.25,7.0,8.5,-0.36,-0.05,1.45,617.11,-3.8,-48.7,10.5,4.0,7.0,11.5,13.0,8.0,0.75,3.75,1.0,1.25,2.0,0.25,1.5,0.08,0.2,0.89,1337.88,-9.0,44.8
1.12,1.0,0.0,0.0,1.0,4.75,4.0,0.5,4.75,1.5,3.75,2.0,5.0,6.25,-0.36,0.02,1.14,513.02,-5.4,-38.5,9.75,3.75,6.0,11.0,13.0,8.0,0.25,4.25,0.75,2.75,2.0,0.25,1.0,0.08,0.27,0.83,1240.96,-7.5,41.9
1.14,0.0,0.0,0.0,0.0,2.5,2.5,0.0,4.0,1.25,2.0,2.0,1.75,5.25,-0.11,-0.05,0.83,379.1,-8.5,-48.6,9.25,3.5,5.5,10.0,12.5,8.0,0.0,4.25,1.0,3.0,1.5,0.25,1.0,0.08,0.27,0.83,1134.66,-6.8,40.8
1.16,0.0,0.0,0.0,0.0,2.25,2.0,0.25,3.25,1.25,1.25,2.0,0.5,2.75,1.95,1.89,0.14,262.52,-7.7,-36.7,9.25,3.75,5.0,10.0,12.5,8.25,0.0,4.25,0.5,2.75,1.75,0.25,1.25,0.08,0.27,0.83,1054.35,-6.4,40.9
1.18,0.0,0.0,0.0,0.0,0.75,1.75,0.25,3.0,1.25,1.25,0.75,0.5,1.75,0.2,1.52,1.33,161.38,-9.3,-41.2,8.75,3.5,4.0,9.25,13.5,8.75,0.0,4.0,0.5,3.0,1.75,0.5,1.0,0.14,0.27,0.83,1001.19,-5.2,39.7
1.2,0.0,0.25,0.0,0.0,0.75,1.5,0.0,2.75,1.0,0.25,0.5,0.0,1.5,-0.3,0.83,1.33,72.68,-10.0,-29.1,8.5,3.75,4.0,11.0,14.5,9.25,0.0,4.25,0.25,3.0,1.75,0.5,1.0,0.14,0.27,0.83,998.55,-5.0,40.4
1.22,0.0,0.0,0.0,0.0,1.25,1.25,0.25,1.5,1.0,0.5,0.5,0.0,0.75,-0.67,0.64,1.33,15.06,-7.7,-19.2,8.5,4.25,3.75,11.5,14.5,9.75,0.0,0.0,0.5,3.0,1.25,0.25,1.0,0.14,0.27,0.83,992.07,-6.3,47.8
1.24,0.0,0.0,0.0,0.25,1.75,1.0,0.25,1.25,1.0,1.25,0.5,0.0,0.25,-0.42,0.64,0.7,0.0,-6.1,-11.4,8.5,4.5,3.75,11.5,15.0,11.0,0.0,0.0,0.75,3.0,1.5,0.25,1.0,0.14,0.27,0.83,1013.18,-5.7,46.9
1.26,0.0,0.0,0.0,0.0,0.5,0.5,0.25,1.0,1.0,1.0,0.5,0.0,0.5,-0.42,0.64,0.77,0.0,-6.0,-37.8,8.25,4.75,3.75,11.5,15.5,11.5,0.0,0.0,1.0,3.0,1.75,0.25,0.75,0.2,0.27,0.89,1041.3,-5.5,46.8
1.28,0.0,0.0,0.0,0.25,0.0,0.75,0.25,1.25,1.0,1.0,0.5,0.0,0.0,-0.3,0.52,0.95,0.0,-5.6,-32.4,8.0,4.75,4.0,11.5,16.5,11.5,0.25,0.0,0.75,3.0,1.5,0.25,1.0,0.14,0.2,0.89,1085.39,-5.3,46.9
1.3,0.0,0.0,0.0,0.0,0.5,1.0,0.25,1.0,1.0,1.0,0.5,0.25,0.0,-0.11,0.45,1.08,0.0,-6.0,-27.9,7.75,5.0,3.5,12.0,16.5,12.0,0.5,5.25,0.75,3.0,1.5,0.25,1.5,0.2,0.2,0.89,1162.73,-3.1,39.3
1.32,0.0,0.0,0.0,0.0,0.75,0.75,0.0,1.0,1.0,1.0,0.75,0.25,0.0,0.02,0.45,1.08,0.0,-5.3,-29.6,7.75,5.0,4.0,13.0,17.0,12.5,0.75,5.25,1.0,3.0,1.5,0.5,1.25,0.2,0.2,0.95,1264.17,-3.5,39.6
1.34,0.0,0.5,0.0,0.0,0.0,0.5,0.0,1.0,1.0,1.0,0.5,0.25,0.0,0.02,0.45,1.08,0.0,-3.6,-31.6,7.5,5.0,4.25,13.0,17.0,12.5,0.75,5.25,1.0,3.0,1.5,0.5,1.5,0.2,0.2,0.95,1335.78,-3.5,39.0
1.36,0.0,0.0,0.0,0.0,0.0,0.25,0.0,1.0,1.0,1.25,0.5,0.25,0.0,-0.05,0.45,1.02,23.36,-5.3,-54.0,7.5,4.75,3.75,13.0,16.5,12.5,1.25,5.25,1.0,3.0,1.75,0.5,1.75,0.2,0.14,0.95,1369.34,-3.3,37.5
1.38,0.0,0.25,0.0,0.0,0.5,0.5,0.0,1.0,1.0,1.0,0.5,0.0,0.0,-0.11,0.45,1.08,42.43,-5.1,-24.3,7.25,5.0,3.75,11.5,16.5,12.5,1.0,6.25,0.75,3.0,1.5,0.25,1.75,0.2,0.14,0.95,1375.98,-2.6,37.2
1.4,0.0,0.25,0.0,0.0,0.0,0.25,0.0,0.5,1.0,1.0,0.0,0.25,0.0,-0.11,0.39,1.27,45.18,-3.7,-39.2,6.5,4.5,3.75,11.5,16.0,12.5,1.25,6.25,0.75,3.0,1.5,0.25,1.75,0.2,0.14,0.89,1355.78,-2.3,36.0
1.42,0.0,0.0,0.0,0.0,0.75,0.25,0.0,0.75,0.75,1.0,0.5,0.25,0.0,-0.17,0.45,1.2,50.88,-4.6,-32.9,6.25,4.25,3.5,11.5,16.0,12.5,1.0,0.0,0.75,3.0,1.75,0.25,1.75,0.2,0.14,0.89,1292.24,-3.8,42.4
1.44,0.0,0.0,0.0,0.0,0.0,0.75,0.0,0.5,0.75,1.0,0.0,0.0,0.0,-0.55,0.58,1.52,47.19,-10.6,-33.7,6.25,3.5,3.75,9.5,15.5,12.0,1.0,0.0,0.5,3.0,1.5,0.25,1.75,0.2,0.14,0.89,1180.75,-3.6,41.9
1.46,0.0,0.0,0.0,0.5,0.5,0.25,0.0,1.0,0.75,0.75,0.5,0.0,0.25,-0.92,0.64,1.52,52.71,-3.5,-26.1,5.25,3.5,3.25,9.5,14.5,11.5,1.25,5.25,0.5,3.0,1.5,0.0,1.75,0.2,0.14,0.89,1102.35,-1.5,34.5
1.48,0.0,0.0,0.0,0.0,0.5,0.25,0.0,0.75,0.75,0.5,0.5,0.0,0.0,-1.11,0.7,1.39,49.39,-4.1,-28.2,5.0,3.5,3.75,8.0,14.5,11.5,1.25,5.25,0.5,2.5,1.5,0.0,1.5,0.2,0.14,0.83,1031.32,-1.4,35.4
1.5,0.0,0.0,0.0,0.0,0.5,0.0,0.0,0.75,0.75,1.0,0.5,0.0,0.0,-1.36,0.7,1.33,52.61,-4.4,-39.0,5.0,2.5,2.5,7.75,13.5,11.0,1.0,5.5,0.5,3.0,1.5,0.25,1.0,0.2,0.2,0.83,958.92,-0.5,32.6
1.52,0.0,0.0,0.0,0.0,0.5,0.0,0.0,0.75,0.75,0.5,0.5,0.0,0.0,-1.55,0.64,1.2,48.07,-2.6,-33.0,5.0,2.75,2.25,7.75,12.5,11.0,1.25,5.25,0.5,3.0,1.5,0.25,1.5,0.33,0.14,0.95,897.63,-0.5,31.3
1.54,0.25,1.0,0.0,0.0,0.5,0.0,0.0,0.75,0.75,1.25,0.5,0.0,0.25,-1.61,0.52,1.02,58.02,-0.4,-11.4,5.0,3.0,2.25,6.25,12.5,11.5,1.25,5.25,0.5,3.0,1.75,0.0,1.5,0.27,0.14,0.83,845.2,0.0,31.1
1.56,0.0,0.0,0.0,0.25,0.5,0.0,0.0,0.75,0.75,0.5,0.5,0.0,0.0,-1.73,0.45,0.83,56.05,-1.0,-25.8,5.0,2.75,2.0,6.0,12.5,12.0,1.25,5.25,0.5,3.0,1.75,0.25,1.75,0.27,0.14,0.89,816.37,0.6,29.2
1.58,0.0,0.0,0.0,0.25,0.5,0.0,0.0,0.75,0.75,1.0,0.5,0.0,0.0,-1.67,0.45,0.83,59.24,-3.0,-32.3,5.0,2.5,1.5,6.0,11.0,12.0,1.25,5.0,0.5,3.0,1.5,0.25,1.25,0.27,0.14,0.89,782.81,0.8,29.9
1.6,0.0,1.0,0.0,1.75,0.5,0.25,0.0,0.0,1.0,1.25,0.0,0.5,0.0,-1.55,0.39,0.89,72.75,5.3,9.3,5.0,2.5,2.0,6.0,11.5,11.5,1.25,5.0,0.5,2.5,1.75,0.25,1.5,0.33,0.14,0.89,770.38,0.1,30.3
1.62,0.0,0.0,0.0,0.5,4.5,0.25,0.25,0.75,1.0,1.25,0.5,0.5,0.0,-1.3,0.27,1.02,105.64,-2.0,6.7,4.25,2.0,1.75,4.0,10.5,11.0,1.0,4.0,0.5,3.0,1.5,0.25,1.5,0.27,0.2,0.95,719.38,1.4,27.4
1.64,0.0,0.0,0.0,0.0,4.5,0.0,0.25,1.0,0.75,1.0,0.5,0.25,0.0,-1.11,0.2,1.08,128.13,-3.3,8.5,2.75,1.75,1.25,3.0,9.75,9.5,1.25,0.0,0.5,1.5,1.25,0.0,0.75,0.27,0.2,0.95,608.07,0.6,38.8
1.66,0.0,0.0,0.0,0.0,5.25,0.0,0.75,0.75,0.75,0.25,0.5,0.0,0.0,-0.8,0.14,1.27,144.17,-1.2,25.6,3.5,2.25,1.0,3.0,8.75,10.5,0.0,0.0,0.5,3.0,1.5,0.0,1.25,0.14,0.27,1.08,528.2,1.8,32.6
1.68,0.0,1.0,0.0,1.0,0.0,0.0,0.0,0.0,0.75,0.0,0.0,0.0,0.0,-0.42,-0.11,1.52,121.74,14.2,47.5,2.5,2.0,1.0,0.0,7.5,0.0,0.0,0.0,0.0,1.75,1.5,0.0,1.0,-0.05,0.45,1.14,372.57,-5.0,32.9
1.7,0.0,0.0,0.0,0.0,0.0,0.0,0.0,0.5,0.5,0.75,0.0,0.0,0.0,-0.05,-0.55,1.7,88.12,-8.1,-54.5,2.0,0.25,0.0,1.5,7.5,8.0,0.0,0.0,0.0,1.25,1.5,0.0,1.0,0.2,0.33,1.27,300.06,5.2,29.7
1.72,0.0,1.0,0.25,1.25,5.0,1.25,0.0,0.75,0.75,0.25,2.0,0.25,1.0,0.45,-1.17,1.95,121.66,0.0,12.4,0.0,0.25,1.25,0.75,6.25,6.0,0.0,0.0,0.0,1.25,1.5,0.0,0.0,0.08,0.33,1.2,235.07,5.0,29.3
1.74,1.0,1.0,0.0,1.25,0.5,0.25,0.0,0.0,0.75,1.25,0.0,0.5,0.0,1.64,-1.86,2.45,123.42,8.3,19.8,2.25,1.75,1.25,1.25,5.75,6.25,0.0,2.5,0.25,0.0,1.5,0.0,0.5,0.14,2.77,0.83,231.42,0.8,34.6
1.76,0.75,1.0,0.0,1.25,0.75,0.25,0.0,0.75,0.25,0.5,1.5,0.25,1.0,0.52,4.77,-1.98,139.1,4.5,-3.0,1.0,0.25,1.0,0.0,5.75,5.0,0.25,1.25,0.0,1.25,1.25,0.0,0.25,-1.36,0.83,1.7,201.66,4.6,24.7
1.78,1.0,0.75,0.0,1.25,0.75,2.0,0.0,0.5,0.25,1.0,0.5,0.25,0.0,0.58,-0.42,0.58,136.63,0.6,22.5,2.25,1.0,1.75,1.5,4.25,4.5,0.0,0.0,0.0,1.0,1.5,0.0,0.75,-0.3,1.45,1.14,202.6,-3.0,34.2
1.8,3.0,1.0,0.0,1.5,4.75,2.75,0.0,0.75,0.25,1.0,0.25,0.25,0.0,-0.42,0.45,-0.05,179.26,2.5,43.1,2.25,0.75,0.75,1.5,2.75,0.0,0.0,0.0,0.25,0.0,1.5,0.0,0.25,0.08,1.45,0.77,157.38,-13.9,42.7
1.82,4.75,1.0,0.0,1.0,4.75,5.0,0.0,0.75,0.0,1.25,0.5,0.25,0.0,-0.55,-0.11,0.2,222.66,1.8,44.4,2.25,0.75,1.0,1.5,3.0,2.5,0.25,1.25,0.5,0.75,0.75,0.0,1.0,0.45,1.45,0.58,152.8,-3.5,26.3
1.84,6.0,2.5,0.0,3.75,4.75,7.25,0.0,0.75,0.25,1.0,0.5,0.25,0.0,-1.05,0.45,0.89,296.16,3.8,50.7,2.25,1.25,1.0,1.25,3.25,2.25,0.0,1.5,0.5,1.5,1.5,0.0,1.0,0.77,1.33,0.45,159.2,-2.8,18.8
1.86,7.75,3.0,0.25,4.25,9.0,9.75,0.0,3.0,0.75,1.75,2.0,0.5,1.25,-1.48,0.52,1.7,450.36,1.6,35.1,2.25,1.25,1.0,1.5,2.75,0.0,0.0,1.75,0.5,1.0,1.5,0.0,1.0,0.95,1.08,0.52,176.59,-7.2,18.2
1.88,8.25,4.0,1.0,6.0,10.5,10.0,0.0,4.0,1.0,2.5,2.5,0.5,1.25,-1.05,0.39,1.64,666.9,2.5,34.3,2.25,1.5,1.25,1.5,2.75,2.0,0.0,1.75,0.5,1.25,1.5,0.0,0.25,0.89,0.83,0.52,199.66,-5.0,26.4
1.9,8.75,0.0,2.5,7.75,14.0,11.5,0.0,5.0,1.0,2.75,0.0,0.5,1.25,-0.3,0.27,1.27,883.82,1.6,35.9,1.0,1.25,0.0,1.5,1.0,0.0,0.0,2.0,0.5,1.5,0.25,0.25,0.0,0.64,0.77,0.45,179.55,-2.7,12.3
1.92,9.75,4.25,0.0,9.25,14.0,11.5,1.5,6.5,1.75,2.75,1.5,1.0,0.25,0.02,0.33,1.45,1105.88,2.3,36.6,2.25,1.75,1.5,1.25,2.75,0.0,0.25,1.5,0.5,1.25,1.5,0.0,1.0,0.58,0.77,0.45,194.5,-8.4,21.1
1.94,9.5,4.0,5.25,9.5,0.0,12.5,3.0,7.0,2.5,2.75,2.0,1.5,1.5,0.08,0.14,1.14,1194.68,6.7,26.7,2.25,1.75,1.25,1.5,3.5,2.0,0.25,2.0,0.5,1.0,1.5,0.0,1.0,0.58,0.7,0.64,206.09,-4.1,23.5
1.96,9.5,4.0,5.0,9.5,15.5,13.0,5.25,7.5,3.25,3.5,2.0,2.0,1.75,-0.17,0.02,1.14,1378.33,4.2,29.3,1.0,0.5,1.0,1.25,2.5,0.0,0.25,1.75,0.0,1.75,0.25,0.0,0.25,0.45,0.7,0.7,200.33,-3.4,17.8
1.98,8.75,4.0,5.0,9.5,15.5,13.0,5.75,7.75,3.75,3.5,0.5,2.0,1.75,-0.3,-0.05,1.14,1492.65,3.9,30.0,2.25,1.75,0.0,1.5,0.25,2.0,0.0,2.0,0.0,1.5,1.5,0.25,1.0,0.45,0.77,0.77,196.95,-1.8,8.2
2.0,8.5,4.0,4.5,9.25,15.5,13.0,6.0,8.0,4.25,3.75,2.5,2.0,1.75,-0.23,0.02,1.33,1595.22,3.7,26.1,2.25,1.75,1.0,1.5,2.5,2.0,0.0,1.75,0.25,1.5,1.5,0.25,1.0,0.45,0.7,0.89,212.8,-3.6,18.0
2.02,7.75,3.75,4.5,9.25,15.0,12.0,5.5,8.25,4.25,3.75,3.0,2.0,1.75,-0.23,-0.05,1.02,1614.5,3.6,24.1,2.25,1.0,1.0,0.5,1.25,1.75,0.0,1.25,0.0,0.0,1.5,0.0,1.0,0.52,0.64,0.95,202.59,-6.3,22.8
2.04,7.25,3.0,3.75,8.0,14.5,11.5,5.5,8.0,3.75,3.5,2.75,2.0,1.75,-0.17,-0.05,0.95,1571.62,3.0,22.9,2.25,1.5,0.5,1.25,1.75,2.0,0.0,1.5,0.5,2.25,1.5,0.0,1.0,0.58,0.64,1.02,212.54,-2.0,10.4
2.06,7.0,2.75,3.0,7.5,13.5,11.5,5.0,8.0,3.25,3.5,1.5,2.0,1.75,-0.17,0.02,0.95,1470.73,2.2,23.3,2.25,1.5,2.0,1.5,2.75,2.0,0.0,1.5,0.0,2.5,1.5,0.0,1.0,0.64,0.64,1.08,227.8,-4.3,18.0
2.08,6.0,2.5,4.0,7.5,13.5,11.5,4.25,7.75,2.75,3.5,1.25,2.0,1.75,-0.17,0.02,0.89,1364.95,2.0,23.5,2.25,1.5,1.0,1.25,3.0,2.0,0.25,1.75,0.25,2.0,1.5,0.25,1.0,0.7,0.64,1.08,244.81,-2.7,14.9
2.1,5.75,2.5,3.0,6.75,13.0,10.5,3.75,7.75,2.5,3.5,0.5,2.0,1.75,-0.17,0.02,0.89,1235.37,1.3,23.1,0.5,0.25,0.0,0.0,1.25,0.0,0.0,0.75,0.0,0.25,0.75,0.0,0.0,0.77,0.58,1.08,195.39,-1.5,11.7
2.12,5.25,1.5,3.0,6.0,12.0,10.5,2.75,7.75,2.5,3.5,1.0,2.0,1.75,-0.17,0.02,0.89,1099.46,0.6,19.4,1.5,0.5,0.0,0.0,0.0,0.0,0.0,1.5,0.25,0.0,0.5,0.0,0.0,0.7,0.27,0.95,142.76,-9.3,20.2
2.14,5.25,1.0,2.75,6.0,11.0,10.5,2.75,8.0,2.5,3.5,2.0,2.0,1.75,-0.23,0.02,0.89,994.58,0.5,16.0,0.5,0.25,0.0,0.0,1.5,0.0,0.0,1.0,0.25,0.25,0.25,0.0,0.0,0.64,0.14,0.83,86.44,0.2,18.7
2.16,4.0,2.5,2.25,6.0,11.0,10.5,3.0,8.0,2.5,3.5,0.5,2.0,1.75,-0.23,0.02,0.89,912.52,-0.4,18.5,1.25,1.5,0.0,1.0,1.25,2.0,0.0,1.0,0.5,2.25,0.5,0.25,0.0,0.52,0.02,0.89,87.86,0.7,15.3
2.18,3.75,2.25,2.5,6.0,11.0,11.0,3.0,8.5,3.0,4.0,2.5,2.0,1.75,-0.23,0.02,0.89,887.17,-0.4,13.5,2.25,1.25,0.0,1.25,2.5,2.0,0.0,1.5,0.5,2.0,1.5,0.0,0.25,0.39,-0.23,0.95,128.48,-1.3,17.2
2.2,3.75,2.5,2.5,6.0,11.0,11.5,3.5,8.75,3.25,5.0,2.25,2.25,2.0,-0.23,0.02,0.95,885.54,-0.7,11.6,2.25,1.5,1.0,1.25,2.75,2.0,0.0,1.25,0.5,2.25,1.5,0.25,0.0,0.39,-0.67,0.7,187.07,-4.1,21.3
2.22,3.75,2.5,2.5,6.0,11.0,11.5,4.25,9.0,3.75,4.75,2.5,2.25,2.0,-0.17,0.02,0.95,932.42,-0.3,11.1,2.25,0.75,1.0,1.5,2.5,2.0,0.0,1.25,0.5,1.25,1.5,0.0,0.0,0.27,-0.8,0.27,209.31,-5.3,26.0
2.24,3.5,2.5,2.25,6.0,10.5,11.0,4.5,9.5,4.0,5.0,3.0,3.0,3.25,-0.17,-0.05,0.95,983.93,-0.6,4.9,2.5,1.75,1.25,1.5,2.25,2.0,0.0,1.75,0.5,1.75,1.5,0.0,0.0,0.77,-2.73,4.2,228.72,-5.5,26.6
2.26,3.5,2.5,2.25,6.0,9.75,10.5,4.25,9.5,4.25,5.75,4.25,3.5,3.75,-0.17,-0.05,0.95,1040.16,-0.4,0.0,2.5,0.75,0.75,1.25,2.25,2.0,0.0,1.5,0.5,0.0,0.25,0.0,0.0,0.02,-2.8,1.52,220.84,-6.3,45.0
2.28,3.5,2.5,2.25,6.0,10.5,10.5,3.75,9.5,4.25,7.0,4.25,3.75,4.0,-0.23,-0.05,0.95,1102.36,-0.8,-1.6,6.25,2.0,1.0,4.0,3.0,2.25,0.0,0.0,0.5,0.0,0.75,0.0,0.0,1.14,-3.48,1.64,246.54,-14.8,63.4
2.3,3.5,2.25,2.25,5.5,10.5,10.5,4.25,9.5,4.25,7.0,3.25,4.0,4.0,-0.23,-0.05,0.95,1139.06,-1.0,-1.6,8.25,0.0,5.25,8.0,2.75,6.0,0.0,0.0,1.0,1.25,0.25,0.0,0.25,-0.05,0.39,1.27,325.77,-14.2,53.0
2.32,3.5,2.25,2.25,5.0,9.0,10.5,3.5,9.5,4.25,7.0,4.0,5.0,5.0,-0.17,-0.05,0.95,1159.36,-1.2,-7.5,10.0,2.5,7.25,8.5,9.0,6.25,0.75,1.5,0.25,1.25,0.5,0.0,0.0,0.45,0.33,1.58,524.35,-12.4,55.9
2.34,3.0,1.75,2.25,4.25,8.75,9.75,3.75,9.25,3.75,7.0,4.25,5.0,5.25,-0.17,-0.05,0.95,1142.53,-1.5,-10.8,9.25,3.25,8.0,9.75,9.75,7.0,3.75,2.75,2.0,0.75,0.5,0.0,0.75,-0.17,-0.05,1.45,784.01,-11.7,49.0
2.36,2.0,1.25,2.25,4.25,8.75,9.5,3.5,8.75,3.5,7.0,4.5,5.75,5.75,-0.17,0.02,0.95,1107.54,-2.0,-15.2,10.5,3.0,9.5,10.5,12.0,7.75,6.25,3.75,3.5,3.0,2.5,1.0,1.5,-0.17,-0.11,1.02,1110.77,-10.6,35.6
2.38,2.0,1.75,1.75,2.75,8.0,8.75,2.75,8.5,3.0,8.0,3.5,6.0,5.5,-0.17,0.02,0.95,1035.83,-3.0,-18.3,9.5,3.5,9.5,11.5,12.5,8.0,7.0,5.25,5.5,3.5,3.75,1.25,2.5,0.14,-0.23,1.14,1388.02,-9.3,27.9
2.4,2.0,1.25,0.0,2.5,6.75,8.75,1.0,8.25,2.5,7.0,3.0,6.0,7.0,-0.17,0.02,0.95,934.72,-5.4,-25.5,9.25,3.5,9.5,11.0,12.0,8.25,7.0,5.75,5.5,4.5,3.75,1.25,2.75,0.27,-0.05,1.2,1545.05,-8.7,25.2
2.42,0.5,1.0,0.0,1.5,5.25,7.5,0.25,8.5,2.5,8.0,3.5,6.75,6.75,-0.17,0.02,0.95,833.67,-6.8,-37.7,8.5,3.5,8.75,9.5,11.5,8.0,6.5,5.5,5.0,3.5,3.75,1.25,2.5,0.2,0.02,1.08,1596.65,-8.5,25.7
2.44,0.25,1.0,0.0,1.75,5.0,7.25,0.75,8.25,2.0,8.0,3.25,7.0,7.5,-0.17,-0.05,0.95,762.39,-6.9,-39.6,8.5,3.5,8.0,8.0,11.5,7.75,6.0,5.25,4.5,3.25,3.25,1.25,2.25,0.2,0.08,0.95,1573.69,-8.3,26.8
2.46,1.75,0.75,0.0,0.75,5.0,7.0,0.75,8.25,1.75,8.25,4.0,7.5,8.0,-0.17,0.02,1.02,733.79,-6.1,-40.9,7.75,3.0,7.25,7.75,10.0,7.75,5.25,5.25,3.75,3.0,2.75,1.0,1.75,0.2,0.02,0.95,1480.38,-7.9,27.7
2.48,0.5,1.0,0.0,1.25,5.0,6.5,0.5,8.25,1.75,8.25,4.5,7.5,7.75,-0.17,-0.05,1.02,723.74,-6.4,-43.1,7.5,2.75,6.0,6.25,9.25,7.5,4.75,4.25,3.75,2.5,3.0,0.0,0.0,0.14,0.02,0.89,1335.22,-8.4,33.6
2.5,1.5,0.75,0.0,2.5,5.0,7.0,0.5,8.75,2.0,9.25,4.5,8.25,8.75,-0.23,0.02,1.14,764.94,-5.6,-41.1,6.5,2.5,5.75,6.0,7.75,7.25,4.0,4.75,3.5,3.0,3.0,0.75,0.0,0.14,0.08,0.89,1151.94,-7.6,27.9
2.52,0.25,1.0,0.0,2.5,5.5,6.25,0.0,8.5,1.75,9.25,4.5,7.75,9.75,-0.36,-0.05,1.2,799.87,-6.5,-44.2,6.25,2.5,5.75,5.75,8.75,6.75,4.0,4.0,3.0,2.0,2.5,0.0,1.0,0.08,0.08,0.89,973.94,-7.8,31.8
2.54,0.5,0.0,0.0,2.75,5.25,6.0,0.0,8.25,1.5,7.25,4.25,7.0,9.0,-0.67,0.08,1.33,799.74,-6.4,-43.6,6.25,1.75,4.0,4.0,7.5,6.75,3.75,3.75,3.75,3.0,2.75,1.25,1.5,0.08,0.02,0.89,824.33,-6.0,19.5
2.56,0.0,0.0,0.0,2.75,5.0,5.75,0.0,7.75,1.25,7.0,1.25,6.75,7.0,-0.48,0.14,1.89,735.94,-7.6,-40.6,5.75,2.0,4.75,4.0,7.75,6.75,4.0,4.5,4.25,4.75,3.75,1.5,1.75,0.08,0.02,0.89,756.76,-5.3,12.7
2.58,0.75,1.0,0.0,3.0,5.25,4.5,0.25,6.75,1.5,5.5,1.5,4.5,5.75,-0.8,0.2,1.45,641.58,-5.6,-28.3,5.0,2.0,4.75,4.0,7.25,6.75,4.0,5.0,4.75,5.5,4.75,2.75,2.75,0.14,0.02,0.95,747.16,-4.4,2.9
2.6,0.0,0.0,0.0,1.25,5.0,4.0,0.75,6.25,0.75,3.5,1.25,1.0,2.75,-0.67,0.14,1.33,485.18,-8.9,-19.5,5.0,2.0,4.75,4.0,7.5,6.75,4.0,5.25,5.0,6.25,5.5,4.0,4.5,0.14,0.02,0.95,790.89,-3.7,-4.3
2.62,0.0,0.25,0.0,1.25,4.75,4.0,0.0,5.75,0.75,2.75,0.75,0.5,2.0,-0.05,0.58,1.14,364.7,-9.6,-11.5,5.0,2.0,3.75,4.0,7.25,6.5,4.0,5.5,5.5,7.0,6.0,5.0,5.75,0.14,0.02,0.95,861.14,-2.9,-11.1
2.64,0.25,1.0,0.0,1.5,4.75,3.5,0.0,4.5,0.75,2.0,0.5,0.5,1.25,1.77,2.95,1.2,284.02,-7.1,1.7,5.0,2.0,4.25,4.0,6.5,6.75,3.5,6.25,5.5,7.25,6.5,5.75,6.75,0.14,0.02,0.95,953.47,-2.6,-14.9
2.66,0.0,0.0,0.0,1.25,0.5,2.75,0.0,4.0,0.75,1.25,1.0,0.25,0.25,0.39,2.33,1.33,201.91,-8.9,-17.7,5.0,2.0,4.0,4.0,6.75,6.5,3.75,6.25,5.5,7.75,6.75,6.0,7.25,0.14,0.02,0.95,1035.76,-2.4,-16.7
2.68,0.25,0.0,0.0,1.25,0.5,2.75,0.0,3.0,0.75,1.25,1.0,0.25,0.0,-0.42,1.83,0.89,128.19,-7.2,-11.1,4.0,2.0,3.75,3.5,6.5,6.5,3.5,6.25,5.5,8.0,7.0,6.25,7.75,0.14,0.02,0.95,1087.36,-1.6,-20.9
2.7,0.0,0.0,0.0,1.25,0.75,2.25,0.0,3.0,0.75,1.25,0.0,0.25,1.25,-0.61,1.45,0.89,71.49,-9.7,-19.7,3.75,2.0,2.75,3.25,6.5,6.5,3.25,6.25,5.0,8.0,7.0,6.5,7.75,0.14,0.02,0.95,1105.05,-0.7,-23.1
2.72,0.75,0.25,0.0,2.75,4.75,1.75,0.0,3.0,0.75,1.25,0.0,0.25,0.25,-0.55,0.89,0.89,78.39,-2.4,19.2,4.25,2.25,3.25,3.5,6.0,6.5,3.0,6.25,5.0,8.0,6.75,6.5,7.75,0.14,0.02,0.95,1111.76,-1.3,-21.5
2.74,0.0,0.25,0.0,1.25,4.5,3.0,0.0,1.0,0.75,1.0,0.5,0.75,0.5,-0.55,0.64,1.14,86.16,-5.3,11.2,3.5,2.0,3.0,2.25,6.0,6.5,3.0,6.25,4.5,8.0,6.5,6.5,8.0,0.14,0.02,0.95,1080.51,-0.2,-25.2
2.76,0.0,0.0,0.0,0.5,0.5,1.5,0.0,0.5,0.75,1.25,0.0,0.5,1.75,-0.36,0.39,1.14,79.5,-8.8,-39.0,3.0,2.0,2.0,3.75,6.25,6.5,3.0,6.25,4.25,8.25,6.5,6.5,8.0,0.14,0.02,0.95,1054.03,0.2,-25.2
2.78,0.25,0.25,0.0,1.25,0.0,1.5,0.0,0.75,0.75,1.25,0.75,0.5,0.0,-0.23,0.2,1.33,67.04,-1.3,-12.3,2.75,2.0,1.75,2.0,5.75,6.25,3.5,6.5,3.75,8.5,6.5,6.5,8.25,0.14,0.02,0.95,1009.97,1.1,-29.7
2.8,0.0,0.0,0.0,1.25,0.5,1.5,0.0,0.75,0.75,1.25,0.5,0.5,0.0,-0.05,0.14,1.33,55.31,-3.6,-12.5,2.5,2.0,1.5,2.0,5.75,6.25,2.25,6.75,3.5,8.75,6.5,6.5,8.25,0.14,0.02,0.95,967.66,1.9,-31.3
2.82,0.0,0.0,0.0,1.25,0.75,1.5,0.0,0.75,0.75,1.25,0.0,0.25,0.0,0.08,0.08,1.33,53.51,-5.1,-1.3,2.5,2.0,1.0,1.5,5.5,6.0,1.75,6.75,3.0,8.5,6.5,7.0,8.75,0.14,0.02,0.95,927.15,2.5,-34.8
2.84,0.0,0.0,0.0,1.25,0.5,1.5,0.0,0.75,0.75,1.25,0.5,0.25,0.0,0.02,0.02,1.2,63.41,-4.0,-8.9,2.5,2.25,1.25,1.5,5.5,6.0,1.5,7.0,2.5,9.0,6.5,7.5,9.0,0.14,0.02,1.02,911.82,2.6,-35.2
2.86,0.0,0.0,0.0,1.0,0.5,1.5,0.0,0.75,0.75,1.25,0.0,0.5,0.25,-0.11,-0.11,1.2,70.69,-5.9,-14.5,2.0,1.75,1.0,0.0,2.75,4.75,0.75,6.25,1.75,8.75,6.5,7.25,0.0,0.14,0.02,1.02,777.87,1.4,-34.4
2.88,0.25,0.0,0.0,1.25,0.5,1.5,0.0,0.75,0.75,1.25,0.5,0.5,0.25,-0.23,-0.23,1.33,81.4,-2.7,-12.4,1.5,0.25,1.0,1.0,4.5,5.75,1.0,6.5,1.25,9.0,6.0,6.75,9.0,0.2,0.02,1.08,744.42,4.8,-45.1
2.9,0.0,0.0,0.0,1.5,0.5,1.25,0.0,0.25,0.75,1.25,0.25,0.5,0.0,-0.42,-0.36,1.33,86.1,-1.5,-6.8,2.0,1.25,0.5,0.0,4.5,4.75,1.25,6.0,1.75,8.5,5.25,6.25,8.75,0.39,0.08,1.2,696.66,4.4,-43.7
2.92,0.0,0.0,0.0,1.25,0.5,1.25,0.0,0.75,0.75,1.0,0.5,0.5,0.25,-0.61,-0.36,1.08,86.89,-2.8,-15.5,2.0,0.75,0.75,0.0,3.5,4.5,1.0,6.25,1.5,8.0,4.0,6.5,9.0,0.58,0.08,2.02,682.19,4.8,-47.2
2.94,0.0,0.0,0.0,1.25,0.5,1.5,0.0,0.75,0.75,1.0,0.5,0.5,0.0,-0.8,-0.55,0.95,85.97,-3.1,-10.2,1.75,0.0,1.5,0.0,3.75,2.75,0.25,4.75,0.75,6.25,4.75,5.0,8.25,0.58,0.27,1.64,614.53,3.6,-48.2
2.96,0.0,0.0,0.0,1.25,0.0,1.5,0.0,0.75,0.75,1.0,0.0,0.5,0.0,-0.86,-0.61,0.83,81.51,-4.3,-11.1,2.25,1.25,0.5,0.0,2.75,3.75,1.0,4.0,1.75,5.5,3.75,3.75,6.75,0.89,0.33,1.7,542.44,3.3,-38.6
2.98,0.0,0.0,0.0,1.25,0.5,1.0,0.0,0.75,0.75,1.0,0.5,0.5,0.0,-0.86,-0.61,0.7,87.0,-1.6,-13.5,2.25,1.25,1.0,0.0,3.0,3.75,1.0,3.0,1.25,4.25,2.75,1.5,3.75,0.64,0.33,1.02,426.46,2.1,-19.6
3.0,0.0,0.0,0.0,1.25,0.5,1.5,0.0,0.75,0.75,1.0,0.5,0.5,0.25,-0.67,-0.55,0.77,95.77,-3.5,-13.8,2.25,0.0,1.0,0.0,3.75,3.25,1.0,2.75,0.75,3.75,2.5,1.0,1.75,-0.05,4.33,0.02,331.65,1.7,-12.3
3.02,0.0,0.25,0.0,1.5,0.75,1.5,0.0,0.75,0.75,1.25,0.5,0.25,0.0,-0.42,-0.55,0.89,103.36,-2.7,-0.6,2.25,1.25,1.0,1.25,2.75,2.0,1.0,2.0,0.75,2.75,1.25,1.25,1.25,-0.92,2.33,0.7,267.4,-2.5,1.7
3.04,0.0,0.0,0.0,0.5,0.5,0.25,0.0,0.75,0.75,1.0,0.5,0.75,0.0,-0.17,-0.48,0.7,96.66,-1.1,-36.0,2.25,1.25,0.75,1.25,2.75,3.5,1.0,2.75,1.25,2.0,3.0,0.25,2.5,-0.36,1.2,1.58,242.9,-0.2,-3.4
3.06,0.25,0.25,0.0,1.25,0.5,1.25,0.0,0.75,0.75,1.0,0.5,0.25,0.0,-0.17,-0.8,0.58,99.04,-1.0,-0.2,2.25,0.75,1.0,0.5,2.75,3.25,1.0,2.5,1.25,3.0,2.0,1.25,1.75,0.27,1.33,0.33,231.3,0.0,-8.2
3.08,1.0,1.0,0.0,1.25,0.5,1.5,0.0,0.75,0.75,1.0,0.25,0.25,0.0,-0.42,-1.92,0.45,107.31,2.3,20.5,1.0,0.0,0.0,0.0,1.75,2.0,1.0,1.75,1.0,2.5,0.25,1.25,0.25,0.39,0.95,0.52,190.92,3.9,-16.3
3.1,2.75,0.25,0.0,2.25,4.75,3.0,0.0,0.5,1.0,0.0,1.0,0.25,0.0,-1.55,-2.8,1.58,160.32,4.1,39.8,2.25,0.25,2.0,0.0,3.5,2.5,0.75,1.25,1.25,3.0,0.0,0.0,1.0,-0.05,0.58,0.89,184.13,-1.8,12.8
3.12,0.0,1.0,0.0,4.0,5.0,4.0,0.5,3.0,1.75,0.0,0.5,0.5,0.0,-0.55,0.64,2.39,222.48,-1.5,24.8,2.25,1.25,0.0,1.25,2.75,3.5,0.75,2.25,1.0,1.5,1.25,0.0,1.75,-0.11,0.52,1.08,174.34,1.1,9.0
3.14,5.5,1.75,0.0,4.5,5.75,6.25,1.5,2.25,3.0,2.25,2.0,0.75,0.25,-0.36,-0.05,1.58,334.79,3.8,25.5,0.75,0.25,0.0,0.0,2.25,2.0,0.5,1.25,1.0,1.5,0.75,0.0,0.75,-0.11,0.39,1.27,154.42,4.7,-3.2
3.16,5.5,1.5,4.75,4.25,6.75,6.5,5.75,4.75,5.25,2.75,3.0,2.25,0.25,-0.05,-0.05,0.95,531.95,7.3,16.3,2.25,0.75,0.0,1.25,2.5,3.25,0.5,1.0,1.25,3.0,0.75,1.0,0.75,-0.11,0.27,1.33,172.37,0.4,3.4
3.18,5.25,2.25,3.75,4.25,7.0,7.0,6.25,6.25,6.75,5.5,6.5,6.0,2.5,0.02,-0.3,1.39,819.78,4.8,-5.7,2.25,0.25,1.0,1.25,3.0,2.25,0.75,1.75,1.25,3.0,1.75,1.0,1.75,-0.11,0.14,1.39,205.12,-1.4,-6.5
3.2,4.5,2.25,3.75,4.25,7.5,7.25,5.0,7.0,6.75,5.5,7.25,6.0,5.0,-0.05,-0.23,1.14,1084.39,3.2,-11.3,0.5,0.0,1.0,0.0,2.75,2.75,1.0,1.75,1.25,3.0,1.5,0.75,1.5,0.02,0.02,1.45,221.76,3.3,-18.4
3.22,4.5,2.25,3.0,4.25,7.25,7.25,4.5,7.25,6.75,5.75,7.0,6.0,5.5,-0.17,-0.11,1.02,1269.0,2.5,-13.4,2.0,0.75,1.0,1.25,1.0,2.0,0.25,1.0,1.25,3.0,0.75,1.25,0.75,0.14,-0.05,1.39,226.62,-3.3,-3.8
3.24,3.5,2.25,2.25,4.25,7.25,7.25,4.25,7.0,6.5,5.75,7.25,6.25,5.75,-0.23,-0.11,0.95,1330.09,1.6,-16.6,2.25,1.25,0.75,0.0,2.75,2.25,1.0,1.5,1.25,1.5,1.5,0.0,1.5,0.14,-0.11,1.2,231.99,-2.1,8.0
3.26,3.25,2.25,2.25,4.25,6.5,7.0,4.0,6.75,6.0,5.5,6.75,6.5,6.0,-0.17,-0.11,0.95,1321.96,1.5,-18.0,2.5,0.5,0.5,0.0,1.5,2.25,1.0,1.0,1.25,3.0,1.5,1.0,1.25,0.14,-0.17,1.27,227.85,-1.6,-11.0
3.28,3.25,2.0,0.25,2.75,5.5,6.25,3.5,6.0,5.75,4.5,6.5,6.0,5.75,-0.11,-0.11,0.95,1217.33,0.4,-23.0,2.25,1.0,0.75,0.0,2.25,2.0,1.0,1.5,1.25,3.0,2.0,1.0,1.75,0.14,-0.23,1.33,235.25,-1.4,-11.0
3.3,2.75,1.5,0.0,2.75,5.25,5.75,2.75,5.5,5.25,4.75,6.25,6.0,5.5,-0.11,-0.05,0.95,1074.7,-0.1,-26.2,2.25,1.0,0.75,0.0,1.0,2.0,1.0,1.5,1.25,3.0,0.75,1.25,1.5,0.14,-0.3,1.2,238.19,-1.5,-11.9
3.32,0.75,1.5,0.0,2.5,5.0,5.75,2.75,5.25,5.0,3.5,6.0,5.75,5.5,-0.11,-0.05,0.89,917.05,-1.2,-29.8,2.25,1.25,0.75,0.0,2.75,2.25,0.75,1.5,1.25,3.0,1.5,1.0,1.25,0.14,-0.48,1.08,252.39,-1.1,-3.0
3.34,0.75,0.5,0.0,1.0,5.75,4.0,3.0,4.25,4.75,3.5,4.5,6.0,5.25,-0.11,-0.05,0.95,759.26,-1.3,-35.0,2.25,1.25,0.75,0.0,3.0,2.25,1.0,1.5,1.25,3.0,2.0,1.0,1.75,0.2,-0.67,0.89,258.27,-1.0,-6.4
3.36,1.5,1.25,0.0,1.25,5.0,4.0,2.75,5.75,4.5,3.75,6.0,7.0,6.75,-0.11,-0.05,0.95,683.32,-0.9,-37.6,2.25,1.25,1.0,0.0,2.75,2.25,1.0,1.25,1.0,2.75,2.0,0.0,1.75,0.14,-0.86,0.64,264.65,-1.5,0.7
3.38,0.0,1.0,0.0,1.25,5.0,4.0,2.25,4.75,4.25,0.0,5.25,7.25,6.5,-0.11,-0.05,0.95,588.99,-0.8,-39.3,1.0,0.25,0.0,0.0,1.0,1.5,0.5,1.0,1.0,1.0,0.25,0.0,1.0,0.39,-1.98,1.02,225.54,2.9,-6.0
3.4,0.0,0.5,0.0,1.5,4.75,4.0,1.5,4.75,4.75,6.25,5.5,8.5,7.0,-0.11,-0.05,0.95,588.36,-2.7,-48.7,1.25,0.25,0.0,0.0,2.25,2.0,0.5,1.0,1.0,1.0,0.75,0.0,0.75,-0.36,-1.73,1.27,187.99,2.1,5.4
3.42,0.0,1.25,0.0,2.5,5.0,4.0,1.75,5.75,4.5,7.0,6.5,9.0,8.75,-0.17,-0.05,0.95,639.95,-2.6,-47.1,3.25,1.75,0.0,0.0,3.0,2.75,0.25,0.0,1.0,3.0,1.0,0.75,0.0,0.45,-2.36,1.08,185.56,-2.6,19.9
3.44,0.75,0.75,0.0,2.25,5.0,4.0,1.5,5.25,4.25,8.0,6.5,9.25,9.75,-0.17,-0.05,0.95,734.75,-2.7,-49.3,2.25,0.25,1.0,2.75,3.25,3.5,1.0,1.25,0.75,1.25,1.25,0.0,0.25,1.33,-0.73,1.33,211.5,-3.8,26.8
3.46,1.25,0.75,0.0,1.75,5.0,4.0,1.5,6.5,4.25,8.0,6.5,9.0,9.75,-0.17,-0.05,0.95,817.94,-2.9,-48.6,2.25,0.5,1.0,1.5,4.5,4.5,1.25,0.0,0.0,1.5,0.0,0.75,1.0,1.08,0.27,1.7,237.98,-1.1,29.2
3.48,1.25,1.0,0.0,0.25,5.0,4.0,1.0,6.5,3.75,8.5,5.75,9.75,10.5,-0.17,-0.05,0.95,883.03,-4.0,-52.8,5.0,2.0,3.75,4.0,5.75,6.0,2.5,2.75,2.75,3.0,2.0,0.75,2.0,1.08,-0.11,0.89,353.31,-5.6,19.9
3.5,0.0,0.75,0.0,1.0,4.25,3.25,0.25,6.75,2.5,7.5,6.25,9.0,9.5,-0.17,-0.05,1.08,884.67,-4.7,-56.9,5.0,2.0,2.0,4.0,5.5,6.0,3.25,3.75,5.0,5.75,4.75,3.5,2.75,0.2,-0.36,1.7,528.33,-3.6,-3.9
3.52,0.0,0.25,0.0,0.25,3.5,3.0,0.0,6.25,2.5,8.0,4.5,8.75,9.25,-0.23,-0.05,1.08,843.05,-5.9,-62.5,5.0,2.0,3.75,4.0,5.75,6.0,4.0,5.25,5.0,7.0,6.75,5.5,5.75,0.02,0.02,1.08,778.36,-3.4,-14.4
3.54,0.0,0.25,0.0,0.0,3.5,3.0,0.0,6.25,2.25,7.75,4.5,9.0,9.75,-0.3,-0.05,0.95,798.16,-6.1,-64.0,4.5,2.0,3.75,2.75,6.25,6.5,3.5,6.0,5.5,7.75,7.25,6.0,6.75,-0.05,-0.05,1.02,997.17,-2.0,-19.5
3.56,0.0,0.5,0.0,0.0,1.75,2.5,0.0,6.25,2.0,8.0,4.5,9.0,9.75,-0.3,-0.05,1.02,753.51,-6.1,-69.6,3.75,1.5,1.0,1.75,5.75,6.5,2.25,6.25,5.0,8.0,6.75,6.0,7.75,0.2,0.02,0.95,1108.93,1.1,-29.3
3.58,0.0,0.25,0.0,0.25,2.5,2.75,0.0,6.25,1.75,8.0,4.25,8.75,9.75,-0.48,-0.11,1.08,722.53,-6.3,-66.8,3.75,1.75,1.25,1.75,5.75,6.5,2.25,6.25,5.0,8.0,6.75,6.5,8.0,0.33,-0.05,0.95,1147.74,0.9,-29.4
3.6,0.0,0.5,0.0,0.0,0.5,2.75,0.0,6.25,1.75,8.0,4.0,8.5,9.75,-0.42,-0.11,0.95,681.59,-6.7,-72.9,3.5,1.75,1.75,1.75,5.75,6.0,2.5,6.25,5.0,8.0,6.75,6.5,8.25,0.2,0.02,0.95,1151.73,0.5,-29.8
3.62,0.0,0.25,0.0,0.0,0.0,2.75,0.0,6.25,1.75,8.0,4.0,8.25,9.75,-0.42,-0.17,0.95,651.81,-7.0,-75.6,3.75,1.75,1.0,1.5,5.5,6.0,2.0,5.75,4.25,8.0,7.0,6.5,8.0,0.08,0.02,0.95,1132.41,1.0,-31.1
3.64,0.0,0.0,0.0,0.25,0.5,2.75,0.0,6.25,1.5,8.0,3.0,8.25,9.75,-0.48,-0.17,1.02,609.36,-7.5,-74.2,2.25,0.25,1.0,1.25,5.75,4.5,2.25,6.0,3.5,7.0,6.5,6.0,7.75,0.08,0.02,0.95,1045.12,1.9,-37.5
3.66,0.0,0.0,0.0,0.0,0.5,2.25,0.0,6.25,1.25,8.0,3.0,8.0,9.75,-0.48,-0.23,0.95,579.74,-7.7,-76.4,2.0,0.25,0.75,1.25,2.75,4.5,2.5,5.25,3.0,7.0,5.75,6.0,7.25,0.08,0.02,0.89,924.87,2.1,-43.8
3.68,0.0,0.75,0.0,1.0,0.5,3.5,0.0,6.25,1.75,8.0,2.75,7.75,9.0,-0.48,-0.23,0.95,572.84,-6.9,-65.3,2.0,0.25,0.5,1.25,3.75,4.5,0.25,5.0,3.0,7.0,5.5,6.0,7.75,0.08,0.02,0.95,816.11,3.2,-44.2
3.7,0.25,0.5,0.0,0.25,2.25,2.5,0.0,5.75,1.0,7.0,2.0,7.5,8.75,-0.42,-0.3,1.2,553.98,-7.1,-63.9,2.0,0.25,0.0,0.75,2.75,4.25,0.25,4.25,2.75,7.0,5.5,6.5,7.75,0.08,0.02,0.95,713.0,3.6,-50.5
3.72,0.0,0.0,0.0,0.75,0.0,2.25,0.0,5.75,1.0,6.75,2.0,6.75,8.0,-0.48,-0.23,1.33,519.09,-7.7,-73.3,2.0,0.25,0.0,0.0,2.5,4.0,0.75,4.5,2.5,7.5,5.5,6.5,7.75,0.08,0.02,0.95,633.91,3.9,-53.5
3.74,0.0,0.0,0.0,0.25,0.5,2.0,0.0,5.5,1.0,5.0,2.0,5.25,7.0,-0.42,-0.17,1.33,458.97,-8.0,-71.0,2.0,0.25,0.0,0.0,2.75,4.0,0.75,4.75,2.5,7.75,5.75,6.75,8.0,0.08,0.02,0.95,605.18,4.0,-53.6
3.76,0.0,0.25,0.0,1.25,0.5,2.0,0.0,4.75,1.0,2.5,2.0,2.25,5.25,-0.11,-0.11,1.52,370.42,-7.3,-54.9,2.0,0.25,0.0,0.0,2.5,3.5,0.5,5.0,2.25,8.0,5.75,7.5,8.5,0.08,0.02,0.95,603.64,4.0,-57.1
3.78,0.0,0.5,0.0,1.25,0.5,2.0,0.0,4.5,0.5,2.0,2.0,1.25,3.75,0.7,2.08,0.89,289.55,-7.5,-45.2,1.75,0.25,0.0,0.0,1.75,3.5,0.25,5.25,2.25,8.0,6.25,7.5,9.0,0.08,0.02,1.08,620.67,4.3,-60.9
3.8,0.0,0.75,0.0,1.0,0.5,1.0,0.0,3.0,1.0,1.75,2.0,0.75,2.0,-0.42,1.77,1.52,219.75,-4.5,-39.1,1.5,0.25,0.0,0.0,2.25,3.25,0.0,5.0,1.75,8.25,6.0,7.75,8.5,0.02,-0.05,1.02,635.43,4.6,-61.1
3.82,0.0,0.0,0.0,1.0,0.5,0.0,0.0,3.0,1.25,1.75,2.0,0.5,1.75,-0.61,1.58,1.33,159.78,-3.8,-50.9,3.0,0.25,0.0,0.5,3.25,3.5,0.25,5.25,2.5,8.75,6.75,9.25,9.75,-0.05,-0.11,1.02,693.49,2.9,-55.0
3.84,0.25,0.5,0.0,0.5,0.5,1.5,0.0,3.0,1.0,1.25,1.5,0.0,1.75,-0.73,1.2,1.52,115.95,-6.6,-31.7,2.5,1.25,1.75,1.0,2.75,4.0,1.0,5.25,1.75,8.0,6.75,8.25,11.0,0.08,-0.05,1.08,755.6,1.8,-48.6
3.86,0.0,0.0,0.0,0.75,0.5,1.0,0.0,1.75,0.75,1.25,2.0,0.5,1.5,-0.36,1.14,1.45,86.93,-4.5,-45.1,1.75,0.25,0.0,0.0,1.75,2.5,0.25,4.5,1.75,7.75,6.75,8.25,9.0,0.27,0.02,1.14,759.74,3.5,-64.4
3.88,0.0,0.5,0.0,0.0,0.5,1.5,0.0,1.0,0.75,0.0,1.5,0.5,1.0,0.27,1.08,1.83,55.78,-4.0,-29.6,2.0,0.25,0.0,0.0,1.25,2.0,0.25,3.75,1.75,7.5,6.0,8.0,9.0,0.27,-0.05,1.08,727.3,3.0,-66.2
3.9,0.0,0.0,0.0,0.0,0.5,0.25,0.0,0.75,0.75,1.25,1.0,0.5,0.5,0.7,0.83,1.77,29.47,-4.1,-53.7,2.25,0.5,0.0,0.0,2.5,2.0,0.25,3.0,1.0,7.0,6.0,7.5,9.0,0.27,-0.05,1.27,674.65,2.8,-60.4
3.92,0.0,0.0,0.0,0.0,0.5,0.25,0.0,0.75,0.75,1.0,0.75,0.5,0.25,0.7,0.64,1.89,8.83,-3.7,-48.4,1.25,0.25,0.0,0.0,2.5,2.0,0.25,2.75,1.25,6.5,5.5,6.75,8.5,0.2,-0.05,1.2,610.03,3.7,-63.4
3.94,0.0,0.0,0.0,0.0,0.5,0.25,0.0,0.75,0.75,1.0,1.0,0.5,0.25,0.27,0.27,2.02,6.22,-3.0,-49.7,0.75,0.25,0.0,0.0,2.5,2.0,0.25,0.0,1.25,5.5,4.0,6.0,8.25,0.27,-0.11,1.2,525.14,3.6,-65.5
3.96,0.0,0.25,0.0,0.0,0.0,0.0,0.0,0.75,0.75,0.5,0.75,0.5,0.0,0.27,0.2,1.64,5.05,1.1,-51.6,1.0,0.25,0.0,0.0,1.75,0.25,0.25,0.5,1.25,4.75,3.5,4.5,6.75,0.52,-0.11,1.14,427.97,2.3,-68.3
3.98,0.0,0.25,0.0,0.25,0.5,0.0,0.0,0.5,1.0,0.75,0.75,0.5,0.0,-1.98,-1.17,1.14,16.73,2.1,-33.3,0.75,0.25,0.0,0.0,1.5,0.0,0.25,0.25,1.25,3.0,2.25,2.75,5.25,0.7,-0.36,0.77,322.08,2.0,-65.4
4.0,0.0,0.0,0.0,0.0,0.5,1.5,0.0,0.5,1.25,1.5,1.25,0.25,0.0,-2.3,-3.05,-0.05,39.92,-5.3,-32.8,0.75,0.25,0.0,0.0,0.25,0.0,0.25,0.0,1.25,3.0,1.5,1.5,3.0,1.33,-1.86,1.08,229.85,1.2,-66.5
4.02,0.0,0.75,0.0,0.0,0.0,0.0,0.25,0.0,0.75,1.0,1.25,0.5,0.5,-3.86,-2.42,-1.17,51.68,3.5,-46.7,0.75,0.0,0.0,0.0,0.0,0.0,0.25,0.0,1.25,2.75,1.25,1.25,2.75,1.02,-1.92,0.02,147.43,1.4,-71.6
4.04,0.0,0.0,0.0,0.0,0.0,1.0,0.0,0.75,1.0,1.75,1.0,2.0,1.0,-5.48,-2.11,-1.17,82.5,-4.2,-67.9,0.75,0.25,0.0,0.0,0.25,0.0,0.25,0.0,1.0,2.75,1.5,1.25,2.25,0.52,-1.67,1.02,88.6,0.5,-62.6
4.06,0.0,0.0,0.0,0.0,3.0,0.0,0.25,3.0,0.0,0.0,2.5,2.0,1.0,-4.48,-1.05,6.08,118.85,-2.3,-36.6,0.5,0.25,0.0,0.0,0.25,0.0,0.25,0.0,1.0,2.5,0.75,1.0,1.75,-0.11,-1.3,1.27,45.24,1.5,-61.2
4.08,0.0,0.5,0.0,2.25,0.5,1.25,0.25,2.75,1.5,3.5,2.0,3.75,3.0,1.39,3.08,1.58,195.65,-2.3,-49.9,0.5,0.25,0.0,0.0,0.25,0.0,0.25,0.0,1.0,1.75,1.75,0.75,1.25,-0.42,-0.86,1.27,28.1,-1.8,-56.7
4.1,0.25,1.0,0.0,2.0,4.25,3.75,1.5,4.25,2.5,3.5,3.0,4.25,4.5,1.64,0.14,1.95,295.67,-3.1,-30.9,0.5,0.25,0.0,0.0,0.25,0.0,0.25,0.0,1.0,1.75,1.25,0.75,1.25,-0.23,-0.48,1.08,24.47,-1.2,-55.5
4.12,0.25,0.5,0.25,1.5,5.0,4.5,1.5,4.5,2.5,5.0,3.25,4.0,5.25,0.14,-0.17,1.08,414.2,-4.5,-33.3,0.75,0.25,0.0,0.0,0.25,0.0,0.25,0.0,1.0,1.5,2.0,0.5,1.0,-0.05,-0.17,0.89,24.58,-4.1,-48.1
4.14,0.5,0.75,0.5,0.5,5.0,5.0,2.75,4.75,2.0,5.25,3.25,5.0,5.25,-0.23,-0.17,0.64,530.59,-4.1,-33.9,0.75,0.25,0.0,0.0,0.25,0.0,0.25,0.0,1.0,1.5,1.0,0.25,1.25,0.02,0.08,0.58,26.12,-2.2,-44.0
4.16,0.25,1.0,1.0,3.25,5.0,5.75,3.25,5.75,2.5,5.5,3.5,5.25,6.25,-0.17,0.14,0.64,644.9,-2.7,-28.5,0.75,0.25,0.0,0.0,1.0,0.0,0.25,0.0,1.0,1.5,1.25,0.25,1.0,-0.05,0.2,0.33,40.47,-2.4,-31.0
4.18,0.0,0.0,1.0,3.0,1.25,6.0,3.5,6.0,2.75,5.5,4.5,6.5,7.0,0.2,0.39,1.2,721.48,-2.9,-44.7,0.5,0.25,0.0,0.0,1.0,0.0,0.25,0.0,1.0,1.5,1.25,0.25,0.75,0.08,0.27,0.39,55.21,-1.9,-32.5
4.2,0.0,1.25,1.0,2.0,4.75,5.75,2.75,6.5,3.0,7.0,4.75,7.25,7.75,0.14,0.39,1.02,816.57,-3.5,-39.3,0.5,0.25,0.0,0.0,0.5,0.0,0.25,0.0,1.0,1.25,1.5,0.0,1.0,-0.3,-0.11,1.2,67.45,-2.5,-40.6
4.22,1.25,1.25,0.0,1.75,5.0,6.25,2.0,6.75,3.0,7.0,5.0,7.5,8.0,0.02,0.14,1.27,887.99,-3.9,-38.9,0.5,0.25,0.0,0.0,2.5,0.5,0.25,0.0,1.0,1.25,1.25,0.0,1.25,-0.55,0.14,0.33,90.79,1.0,-13.3
4.24,1.25,1.25,0.0,2.25,5.0,6.75,1.5,7.0,2.75,7.0,4.5,7.75,8.75,0.14,0.14,1.27,948.3,-4.4,-38.6,0.75,0.25,0.0,0.0,1.75,1.25,0.25,0.0,1.0,1.25,1.25,0.0,0.75,-0.11,0.08,0.2,107.2,0.8,-7.3
4.26,0.75,1.25,0.0,2.25,5.25,5.5,1.5,7.0,2.25,7.0,4.5,8.25,8.75,0.14,0.08,1.14,963.79,-4.4,-41.5,2.25,1.25,0.0,1.25,1.75,2.0,0.25,0.0,1.25,3.0,1.5,0.0,0.75,0.14,-0.11,0.02,152.29,-2.5,7.6
4.28,0.5,1.25,0.0,1.25,5.25,6.0,0.75,6.75,2.25,7.0,5.25,8.25,9.0,-0.17,0.02,0.95,955.29,-5.1,-44.7,0.75,0.25,0.75,0.0,2.25,1.0,0.25,0.0,1.0,1.0,0.25,0.0,0.75,0.45,-0.17,0.14,156.37,-2.3,11.8
4.3,0.25,1.0,0.0,1.0,5.25,5.75,0.0,6.75,1.75,7.0,5.0,7.75,9.0,-0.3,-0.11,0.77,912.7,-6.1,-46.7,0.75,0.25,0.0,0.0,2.25,1.75,0.25,0.0,1.0,1.0,1.25,0.0,0.75,1.2,-0.8,0.64,162.82,1.7,0.3
4.32,0.25,0.75,0.0,2.0,5.25,4.5,0.0,6.75,1.75,7.0,4.5,7.5,8.75,-1.05,-0.48,1.02,856.16,-5.5,-46.3,0.75,0.25,0.0,0.0,2.5,1.25,1.0,0.0,1.0,1.25,0.75,0.0,0.75,1.89,-1.48,0.64,153.45,0.3,3.2
4.34,0.0,1.0,0.0,1.75,5.25,2.5,0.0,6.75,1.25,6.5,4.5,7.0,8.75,-1.61,-0.67,1.02,786.65,-5.3,-49.2,2.25,1.25,0.0,1.25,2.5,2.0,1.25,0.0,1.25,2.75,1.75,1.25,1.75,3.02,-1.86,0.77,193.22,-2.9,-3.8
4.36,0.0,1.0,0.0,1.0,1.25,4.25,0.0,6.25,1.0,3.75,3.75,6.5,8.0,-0.86,-0.42,1.02,680.67,-6.3,-56.3,2.25,1.25,0.75,1.25,2.75,2.0,1.0,0.0,1.25,3.0,2.5,1.25,1.25,3.33,-1.98,0.83,231.97,-4.5,-1.5
4.38,0.0,0.75,0.0,1.25,1.75,2.25,0.0,4.75,0.5,3.5,2.0,5.25,7.0,-0.61,-0.48,1.77,545.04,-6.2,-56.1,2.25,1.25,0.75,1.25,2.75,2.0,1.0,0.0,1.25,3.0,2.25,1.25,1.5,2.95,-2.3,1.02,269.37,-4.2,-2.0
4.4,0.0,0.0,0.0,0.0,5.0,1.5,0.0,5.0,0.75,3.5,3.0,3.75,7.0,-0.61,-0.3,1.02,440.33,-7.1,-51.1,2.25,1.25,1.0,1.25,2.75,2.0,1.0,0.0,1.25,3.0,2.25,0.75,1.5,1.95,-2.42,1.02,287.43,-4.5,1.4
4.42,0.25,1.0,0.0,0.0,4.75,2.75,0.0,3.0,0.75,3.5,2.0,0.75,3.75,-0.61,-0.36,2.52,339.54,-7.6,-23.9,0.75,0.25,0.0,0.0,1.75,1.25,0.5,0.0,0.75,1.0,0.5,0.0,0.75,1.2,-1.48,0.83,247.76,1.3,3.2
4.44,0.0,1.0,0.0,1.25,5.0,0.25,0.0,3.0,1.0,2.5,1.75,0.5,2.25,-0.67,0.77,0.58,268.06,-3.9,-14.6,0.5,0.25,0.0,0.0,2.25,1.25,0.25,0.5,0.75,1.5,0.5,1.0,0.75,0.39,-0.11,0.33,206.72,3.2,-14.3
4.46,0.0,0.0,0.0,0.0,5.0,1.75,0.0,3.0,0.75,2.75,2.0,1.25,2.0,-1.61,0.58,1.08,217.88,-7.1,-25.8,0.5,0.25,0.0,0.0,0.5,1.25,0.25,0.25,0.5,1.5,0.75,0.75,0.75,-0.3,0.77,0.02,151.73,3.2,-30.7
4.48,0.25,0.5,0.0,0.25,5.0,0.25,0.0,2.5,1.0,1.25,1.75,0.5,1.75,-2.05,0.77,0.58,175.7,-3.6,-12.8,2.25,1.25,0.0,1.25,2.5,2.0,0.75,1.0,1.0,3.0,1.75,1.0,1.5,-0.67,0.39,0.2,178.27,-1.3,-3.7
4.5,0.0,0.0,0.0,1.25,5.0,2.25,0.0,3.0,0.75,0.5,2.0,0.25,2.0,-2.55,0.27,0.2,158.85,-5.6,-7.0,0.5,0.25,0.0,0.0,0.0,0.75,0.75,0.0,0.75,1.0,0.5,0.0,0.75,-0.36,-0.42,0.08,141.1,-0.6,-25.1
4.52,0.0,0.0,0.0,0.0,2.25,0.25,0.0,2.25,0.5,1.0,0.5,0.5,0.0,-2.86,-0.42,0.89,108.57,-6.8,-16.5,0.5,0.25,0.0,0.0,0.0,1.0,0.25,0.0,0.5,0.75,0.75,0.0,0.25,-0.3,-0.86,0.27,121.13,-0.1,-12.9
4.54,0.25,1.0,0.0,1.75,3.0,2.5,0.0,2.75,0.5,1.75,2.0,1.5,1.75,-2.42,-0.67,1.45,130.8,-3.7,-14.0,2.25,1.25,0.0,1.25,0.25,1.0,0.5,0.0,0.5,1.0,1.0,0.0,0.75,-0.23,-0.73,0.27,102.28,-9.3,22.4
4.56,0.0,1.0,0.0,1.75,5.0,1.25,0.0,3.0,0.5,1.75,2.0,0.25,1.75,-1.98,-0.67,1.89,153.12,-3.9,-4.2,0.25,0.25,0.0,0.0,0.0,1.0,0.5,0.25,0.5,0.5,1.0,0.0,0.75,-0.17,-0.48,-0.05,73.98,1.8,-29.4
4.58,0.0,0.75,0.0,1.75,2.25,0.5,0.0,3.0,0.75,1.75,0.0,0.25,0.0,-1.36,-0.73,2.08,161.14,-3.9,2.9,2.25,1.25,0.0,1.25,0.0,2.0,0.5,0.25,1.0,2.25,0.5,0.75,0.75,-0.42,-0.3,-0.42,92.54,-4.1,4.7
4.6,0.0,0.0,0.0,1.25,0.75,1.0,0.0,2.0,0.5,0.75,0.0,0.0,0.0,-0.3,-0.61,1.52,134.27,-6.4,0.1,2.25,1.25,0.75,1.25,2.5,2.0,1.0,1.25,1.0,2.5,0.25,0.0,0.25,-0.67,-0.11,-0.55,142.47,-3.4,22.9
4.62,0.5,0.0,0.0,0.25,0.75,1.25,0.25,3.0,0.75,2.0,0.5,0.5,0.0,-0.05,-0.48,0.52,118.72,-7.0,-24.5,2.0,1.25,0.75,1.25,1.0,1.25,0.75,1.0,0.5,0.75,0.75,0.0,1.0,-0.86,-0.23,-0.48,174.48,-7.1,22.0
4.64,0.0,0.5,0.0,1.0,0.75,1.25,0.25,3.0,0.5,1.0,1.75,0.0,0.0,0.58,-0.8,-0.17,105.4,-4.3,-13.8,0.5,0.25,0.0,0.0,0.25,0.75,0.25,0.5,0.5,0.5,0.75,0.0,0.5,-0.67,-0.36,-0.36,152.06,0.6,-16.0
4.66,0.0,0.0,0.0,1.25,5.0,1.75,0.0,3.0,0.25,0.5,0.5,0.0,0.0,0.2,-0.98,0.39,129.86,-6.5,18.6,0.5,0.25,0.0,0.0,2.5,0.25,0.0,0.5,0.5,0.75,0.25,0.0,0.25,-0.48,-0.36,-0.3,134.33,1.7,15.1
4.68,0.0,0.25,0.0,0.5,2.5,0.75,0.0,1.0,0.0,1.0,0.25,0.5,0.0,-0.48,-1.3,0.89,125.77,-5.4,6.6,0.5,0.25,0.0,0.0,0.25,0.75,0.25,0.75,0.5,0.5,0.5,0.0,1.0,-0.42,-0.42,-0.36,97.3,3.3,-23.8
4.7,0.0,0.0,0.0,1.25,5.0,1.25,0.0,1.0,0.0,0.75,0.0,0.0,0.0,-0.61,-0.98,0.39,135.99,-5.2,32.9,0.0,0.5,0.0,0.0,0.0,1.0,0.25,0.75,0.25,1.0,0.5,0.0,0.25,-0.36,-0.48,-0.48,73.14,8.0,-21.4
4.72,0.0,0.0,0.0,0.25,1.75,0.5,0.0,1.0,0.25,1.5,0.5,0.75,0.0,-0.36,-0.98,0.08,115.57,-5.7,-20.8,0.0,0.5,0.0,0.0,0.25,1.0,0.25,1.0,0.5,0.75,0.25,0.0,0.5,-0.36,-0.55,-0.48,60.69,8.0,-17.9
4.74,0.0,0.0,0.0,0.0,0.75,0.25,0.0,0.75,0.0,1.0,0.25,0.0,1.75,0.33,-0.92,0.02,95.42,-11.9,-54.3,0.25,0.5,0.0,0.0,0.25,0.5,0.25,1.0,0.25,0.75,0.25,0.0,0.5,-0.36,-0.55,-0.36,66.68,5.2,-16.2
4.76,0.25,0.75,0.0,1.25,5.0,1.25,0.0,2.75,0.75,1.75,2.0,0.25,1.75,0.7,-0.61,-0.11,142.72,-3.8,-6.1,0.5,0.25,0.0,0.0,0.5,0.0,0.25,0.75,0.5,0.5,0.25,0.0,0.75,-0.36,-0.55,-0.36,57.05,0.1,-19.9
4.78,0.25,0.0,0.0,0.0,5.0,0.0,0.0,0.75,0.0,0.5,0.25,0.0,0.0,0.83,-0.17,0.02,137.0,-3.8,32.9,0.5,0.25,0.0,0.0,0.25,0.0,0.25,1.0,0.5,1.0,0.75,0.0,0.5,-0.36,-0.42,-0.42,51.03,0.6,-31.7
4.8,0.25,0.5,0.0,0.5,0.5,0.0,0.0,0.75,0.0,1.0,0.5,0.25,0.0,0.7,-0.11,0.14,126.93,0.2,-7.6,0.5,0.25,0.0,0.0,0.25,0.25,0.25,1.0,0.25,0.25,0.25,0.0,0.25,-0.36,-0.36,-0.48,46.1,0.4,-4.6
4.82,0.0,1.0,0.0,1.0,5.0,0.0,0.0,1.0,0.75,1.0,0.5,0.0,0.0,0.45,-0.3,0.02,135.71,-0.5,26.4,0.0,0.25,0.0,0.0,0.0,0.75,0.25,1.0,0.5,0.5,0.25,0.0,0.5,-0.36,-0.3,-0.55,38.28,8.3,-30.6
4.84,0.0,0.0,0.0,0.0,0.5,0.0,0.0,0.75,0.25,2.0,0.25,0.0,0.0,0.33,-0.42,-0.17,109.99,-10.5,-46.3,0.0,0.25,0.0,0.0,0.0,1.0,0.25,0.75,0.5,1.0,0.25,0.0,0.25,-0.3,-0.23,-0.61,39.91,9.2,-26.8
4.86,0.25,0.75,0.0,0.0,0.5,0.0,0.0,0.75,0.0,1.25,0.25,0.25,0.0,0.2,-0.61,-0.23,83.55,-2.7,-9.4,2.25,1.0,0.0,1.25,1.0,2.0,0.5,1.0,1.0,2.75,1.0,0.75,0.5,-0.3,-0.11,-0.67,106.46,-2.1,1.3
4.88,0.25,1.0,0.0,0.0,5.25,1.0,0.0,2.25,0.25,1.25,2.0,0.25,1.75,0.2,-0.67,-0.23,122.89,-4.7,-5.0,2.25,1.0,0.75,1.25,2.5,2.25,1.0,1.25,0.5,1.5,1.5,0.75,0.5,-0.3,0.02,-0.61,172.13,-4.3,14.5
4.9,0.5,1.0,0.0,0.0,0.0,0.0,0.0,2.5,0.0,0.5,2.0,0.5,1.5,0.27,-0.55,-0.42,133.95,-1.9,-42.1,2.25,1.0,0.75,1.25,2.75,2.0,0.75,1.25,1.0,2.25,1.5,0.75,0.75,-0.36,0.14,-0.48,227.66,-3.5,7.8
4.92,0.0,0.0,0.0,0.0,0.5,0.25,0.0,0.75,0.0,1.0,0.25,0.25,0.0,0.2,-0.48,-0.48,117.51,-10.0,-36.3,1.5,1.0,0.75,1.25,2.5,2.0,0.75,1.0,1.0,2.75,1.25,0.75,1.0,-0.42,0.27,-0.42,256.56,-1.7,1.1
4.94,0.25,1.0,0.0,0.0,0.5,1.5,0.0,0.75,0.75,1.25,0.0,0.5,0.0,0.08,-0.42,-0.73,101.54,-4.9,-0.3,1.25,0.5,0.75,1.25,2.5,2.25,0.75,0.75,1.0,2.5,0.5,0.75,1.5,-0.42,0.33,-0.3,265.5,-0.2,-1.1
4.96,0.25,1.0,0.0,0.0,4.75,2.5,0.0,2.0,0.75,1.25,2.0,0.75,1.75,0.02,-0.42,-0.67,147.18,-5.2,-7.2,2.25,1.0,0.75,1.25,2.5,2.0,1.0,1.0,1.0,2.75,2.0,0.75,1.0,-0.36,0.39,-0.23,272.72,-3.5,1.9
4.98,0.25,1.0,0.0,0.0,4.75,1.25,0.0,2.25,0.75,1.25,2.0,0.5,1.75,0.02,-0.3,-0.48,181.31,-4.3,-9.1,2.25,0.75,0.75,1.25,2.5,2.0,0.75,1.25,1.0,2.75,1.5,0.25,1.25,-0.3,0.52,-0.17,275.49,-2.3,3.4
5.0,0.25,1.0,0.0,0.25,5.0,1.25,0.0,2.5,0.5,1.25,2.0,0.5,1.75,0.14,-0.23,-0.67,218.49,-4.4,-7.0,2.0,0.75,0.75,1.25,2.5,2.0,0.75,1.25,1.0,2.75,1.75,0.75,1.0,-0.17,0.64,0.02,279.67,-2.4,-0.3
5.02,0.0,1.0,0.0,0.0,4.75,1.75,0.0,2.5,0.75,1.5,2.0,0.5,1.75,0.2,-0.17,-0.73,247.43,-5.7,-10.7,2.25,1.0,0.75,1.25,2.5,2.0,1.25,1.25,1.0,2.25,1.5,0.5,1.25,-0.11,0.89,0.27,279.55,-3.4,5.6
5.04,0.0,1.0,0.0,0.0,5.0,1.0,0.0,3.0,0.75,0.0,2.0,0.75,1.75,0.45,-0.23,-0.67,251.73,-4.1,-7.9,2.25,1.25,0.75,1.25,2.5,2.0,1.0,1.25,0.75,2.5,1.5,0.75,1.5,-0.11,0.89,0.52,280.36,-2.8,3.2
5.06,0.5,1.0,0.0,0.0,4.75,1.5,0.0,2.5,0.75,1.25,2.0,0.75,1.75,0.58,-0.3,-0.55,250.4,-4.0,-8.9,2.0,1.25,1.0,1.25,2.5,2.0,0.75,1.0,0.75,2.0,1.25,0.75,1.0,1.02,-1.8,1.58,271.39,-3.9,9.9
5.08,0.25,1.0,0.0,0.0,5.0,2.0,0.0,3.0,0.25,1.25,2.0,0.5,1.75,0.52,-0.17,-0.17,257.13,-6.0,-6.7,0.5,0.25,0.75,0.0,2.5,0.25,1.0,1.25,0.5,0.25,1.5,0.0,0.0,2.77,-2.86,2.58,226.18,-5.4,11.5
5.1,0.25,1.0,0.0,0.0,5.0,1.75,0.0,3.0,0.5,1.25,2.0,0.75,1.75,0.58,0.02,-0.17,259.49,-5.4,-9.1,0.5,0.25,0.0,0.0,0.0,0.0,0.5,0.0,0.25,0.0,0.25,0.0,1.0,4.14,-3.48,2.95,147.67,-7.6,-25.4
5.12,0.0,1.0,0.0,0.0,4.75,1.5,0.0,3.0,0.75,1.25,2.0,0.75,1.75,0.52,0.33,-0.23,255.42,-5.4,-12.6,1.25,0.25,0.0,0.75,1.25,1.25,0.75,0.0,0.25,0.25,0.75,0.0,0.5,3.7,-4.23,4.14,100.05,-5.3,24.9
5.14,0.0,1.0,0.0,0.0,4.75,1.5,0.0,2.75,0.5,2.5,2.0,0.25,1.5,0.27,0.64,-0.05,258.64,-6.6,-12.2,2.25,1.25,1.0,1.25,2.25,2.0,1.0,0.75,0.5,2.5,0.5,0.25,1.0,2.27,-3.42,3.27,121.23,-3.8,16.9
5.16,0.0,1.0,0.0,0.0,4.75,1.5,0.0,3.0,0.5,2.0,2.0,0.5,1.75,-0.23,0.77,0.02,255.23,-6.3,-13.6,2.0,1.25,0.75,1.25,2.25,2.0,1.0,1.0,0.5,2.75,1.0,0.25,1.25,0.77,-1.55,1.7,163.66,-2.2,8.4
5.18,0.0,1.0,0.0,0.0,5.0,1.5,0.0,3.0,0.75,1.5,2.0,0.5,1.75,-0.61,0.83,0.02,247.51,-5.8,-11.1,0.25,0.25,0.75,0.0,2.25,1.0,1.25,1.25,0.25,0.5,1.5,0.0,0.25,0.2,-0.67,1.14,169.13,-1.8,5.4
5.2,0.25,1.0,0.0,1.25,5.0,1.25,0.0,3.0,0.5,2.0,2.0,0.75,1.5,-0.67,1.02,-0.17,247.92,-3.7,-6.9,0.0,0.25,0.25,0.0,0.5,1.0,0.75,0.0,0.25,0.5,0.25,0.0,0.25,-0.11,-0.36,0.83,132.19,1.2,5.5
5.22,0.0,1.0,0.0,1.25,5.0,1.75,0.0,3.0,0.5,2.0,1.75,0.75,1.5,-1.23,-0.55,-0.55,255.19,-4.8,-6.3,0.0,0.5,0.0,0.0,0.0,0.75,0.25,0.0,0.25,0.5,0.25,0.25,0.0,-0.17,-0.17,0.7,78.25,2.2,-5.5
5.24,0.0,1.0,0.0,1.5,5.0,1.5,0.0,3.0,0.75,1.25,2.0,0.75,1.75,-4.05,-5.11,0.58,260.69,-3.6,-5.9,2.0,1.0,0.75,0.0,2.5,1.0,0.75,1.0,0.5,1.25,1.75,0.0,1.0,-0.23,0.02,0.39,90.85,-4.6,10.1
5.26,0.0,1.0,0.0,1.75,5.0,1.5,0.0,2.75,0.75,2.5,2.0,1.0,1.75,-4.92,-5.98,1.45,268.53,-3.7,-10.1,2.0,1.25,0.75,1.25,2.5,2.0,0.75,0.0,0.25,2.5,0.5,0.5,1.0,-0.36,0.14,0.27,132.57,-3.4,17.1
5.28,0.0,1.0,0.0,1.75,5.0,1.0,0.0,3.0,0.75,2.0,2.0,0.75,1.75,-3.98,-4.11,-0.36,271.18,-3.3,-8.6,0.0,0.25,0.75,0.0,2.5,0.75,0.75,0.0,0.0,0.5,0.25,0.0,0.0,-0.48,0.27,0.14,139.94,-2.3,35.8
5.3,0.0,1.0,0.0,1.5,4.75,1.75,0.0,2.5,0.75,1.25,2.0,0.75,1.75,-2.73,-1.23,-0.36,267.85,-3.5,-5.4,0.0,0.25,0.0,0.0,0.25,1.0,0.25,0.0,0.0,0.25,0.5,0.0,0.0,-0.55,0.33,-0.05,115.43,6.0,8.9
5.32,0.0,1.0,0.0,1.5,5.0,1.5,0.0,2.25,0.75,1.5,2.0,0.5,1.75,-1.61,-0.36,-0.55,263.02,-3.4,-4.1,0.0,0.25,0.0,0.0,0.0,0.75,0.25,0.0,0.0,1.0,0.25,0.0,0.0,-0.48,0.2,-0.11,77.61,9.5,-17.5
5.34,0.25,1.0,0.0,1.75,5.0,1.25,0.0,2.25,0.75,2.0,2.0,0.5,1.75,-0.98,0.14,-0.36,261.87,-2.7,-4.3,0.0,0.25,0.0,0.0,0.0,1.0,0.25,0.0,0.0,0.5,0.75,0.0,0.0,-0.17,0.02,-0.11,40.44,5.6,-12.4
5.36,0.0,1.0,0.0,1.75,5.0,1.5,0.0,2.0,0.75,1.25,2.0,0.0,1.75,0.02,0.27,-0.05,256.53,-3.0,1.2,2.0,1.25,0.75,1.25,2.25,2.0,1.0,1.0,0.5,0.5,0.75,0.0,0.75,0.2,-0.23,-0.11,78.63,-5.5,30.2
5.38,0.0,1.0,0.0,1.5,4.75,1.5,0.0,2.0,0.75,1.5,2.0,0.5,1.75,0.27,0.27,0.02,252.57,-3.2,-4.5,2.0,1.25,0.0,1.25,0.25,2.0,0.5,0.25,0.5,2.25,1.5,0.5,1.0,0.77,-0.55,0.08,122.32,-3.1,-0.2
5.4,0.0,1.0,0.0,1.25,5.0,1.25,0.0,2.25,0.5,1.25,2.0,0.5,1.75,0.2,0.33,-0.11,246.7,-3.4,-4.0,2.0,1.25,0.75,1.25,2.5,2.0,1.0,1.0,0.5,2.25,1.5,0.5,1.25,1.27,-0.73,0.27,191.43,-3.0,7.5
5.42,0.0,1.0,0.0,1.5,4.75,1.25,0.0,1.75,0.5,1.25,2.0,0.5,1.75,0.33,0.14,-0.11,240.26,-2.7,-3.0,2.0,1.25,0.75,1.25,2.5,2.0,0.75,1.0,0.5,2.5,1.5,0.5,0.75,1.52,-0.86,0.52,230.56,-3.0,9.7
5.44,0.0,1.0,0.0,0.25,4.75,1.25,0.0,2.0,0.5,1.25,2.0,0.5,1.5,0.45,-0.42,0.08,228.64,-4.5,-6.9,2.0,1.25,0.75,1.25,2.5,2.0,0.75,0.75,0.5,2.25,0.75,0.25,1.0,1.52,-0.73,0.45,250.03,-2.9,15.6
5.46,0.0,1.0,0.0,1.25,4.75,1.25,0.0,1.75,0.5,1.25,2.0,0.5,1.5,-0.05,-0.92,0.2,224.4,-2.9,-2.3,2.0,1.5,1.0,1.25,2.5,2.0,1.0,1.0,0.5,2.75,1.5,0.5,1.25,1.45,-0.55,0.39,258.96,-3.1,7.3
5.48,0.0,1.0,0.0,1.25,4.75,1.25,0.0,2.0,0.5,2.0,2.0,0.5,1.75,-0.36,-1.3,0.08,226.17,-3.8,-7.5,0.0,0.25,0.0,0.0,0.0,0.5,0.25,0.0,0.25,1.0,0.25,0.0,0.25,1.27,-0.23,0.14,198.81,6.6,-33.4
5.5,0.0,1.0,0.0,1.25,5.0,1.25,0.0,1.75,0.5,1.25,2.0,0.0,1.75,-0.67,-1.61,0.08,226.54,-3.4,0.1,2.0,1.25,0.0,1.25,0.0,2.0,0.25,0.0,0.5,2.25,0.25,0.75,0.5,0.89,-0.05,0.02,182.58,-3.5,10.0
5.52,0.0,1.0,0.0,1.25,4.75,0.25,0.0,1.5,0.5,1.25,2.0,0.5,1.75,-1.11,-1.55,0.02,223.68,-1.6,-5.7,0.0,0.25,0.75,0.0,2.5,0.75,0.75,0.5,0.25,2.75,0.25,0.5,0.0,0.45,0.02,0.02,157.13,2.4,-5.2
5.54,0.0,1.0,0.0,1.25,4.75,0.25,0.0,1.0,0.5,1.25,2.0,0.5,1.75,-1.36,-1.3,0.14,217.51,-1.1,-4.6,2.0,1.25,0.75,1.25,2.5,2.0,0.75,1.0,0.25,1.0,1.5,0.5,1.0,0.08,-0.17,0.45,183.2,-4.4,16.7
5.56,0.0,1.0,0.0,1.5,4.5,0.25,0.0,1.0,0.75,1.75,2.0,0.75,1.75,-1.42,-0.92,0.14,214.75,-0.9,-9.0,2.0,1.25,0.75,1.25,2.5,2.0,1.0,1.5,0.5,2.75,1.5,0.75,0.5,-0.05,-0.8,0.89,207.8,-2.7,7.3
5.58,0.0,1.0,0.0,1.5,4.75,0.25,0.0,1.0,0.75,1.25,2.0,0.5,1.5,-1.17,-0.55,0.02,211.67,-0.4,-2.4,2.0,1.25,0.75,1.25,2.5,2.0,1.0,1.0,0.25,2.5,1.5,0.75,1.25,0.2,-1.3,1.08,235.55,-2.7,5.3
5.6,0.0,1.0,0.0,1.5,5.0,0.25,0.0,1.25,0.75,1.25,2.0,0.5,1.75,-0.92,-0.42,-0.17,215.62,-0.9,-3.6,2.0,1.25,0.75,1.25,2.25,2.0,0.75,0.75,0.25,2.0,1.5,0.75,1.0,0.39,-1.55,1.08,237.72,-3.7,9.3
5.62,0.0,1.0,0.0,1.5,5.0,0.25,0.0,1.0,0.75,1.25,1.5,0.5,1.75,-0.67,-0.48,-0.23,215.76,-1.0,-0.8,2.0,1.25,0.75,1.25,2.5,2.0,1.0,1.0,0.5,2.75,0.75,0.75,1.0,0.52,-1.3,0.83,243.34,-2.4,8.7
5.64,0.0,0.0,0.0,0.75,0.75,0.0,0.0,0.5,0.0,1.25,2.0,0.5,1.75,-0.98,-0.86,0.02,184.1,-2.1,-55.0,2.0,1.25,0.75,1.25,2.5,1.0,0.75,1.0,0.25,0.0,1.5,0.0,1.5,0.52,-0.98,0.58,230.49,-6.9,22.1
5.66,0.0,1.0,0.0,1.5,5.0,0.25,0.0,1.0,0.75,1.25,2.0,0.5,1.5,-1.23,-1.11,0.14,186.49,-0.4,-1.3,2.0,1.0,0.0,1.25,0.0,2.0,0.25,1.0,0.5,2.5,1.5,0.75,1.0,0.45,-0.61,0.39,218.05,-1.4,-9.1
5.68,0.0,1.0,0.0,1.5,4.75,0.25,0.25,1.0,0.75,1.5,2.0,0.5,1.75,-1.17,-1.3,0.08,190.86,-0.6,-5.0,2.0,1.25,0.75,1.25,1.5,1.0,0.75,0.75,0.25,2.5,0.75,0.25,1.0,0.39,-0.42,0.27,210.69,-4.7,10.5
5.7,0.25,1.0,0.0,1.75,4.75,1.25,0.0,1.25,0.75,1.25,2.0,0.5,1.25,-1.05,-1.36,-0.05,209.94,-0.9,3.1,0.25,0.25,0.5,0.0,2.25,1.0,0.75,1.0,0.25,0.0,1.5,0.0,0.0,0.45,-0.3,0.27,180.84,-1.9,13.5
5.72,0.0,1.0,0.0,1.75,5.0,1.25,0.0,1.5,0.5,1.25,2.0,0.5,1.5,-0.8,-1.23,-0.17,223.26,-2.1,0.9,2.0,0.25,0.0,0.0,0.0,0.75,0.25,0.25,0.0,0.25,0.75,0.0,0.0,0.52,-0.3,0.2,141.39,-13.3,36.4
5.74,0.25,1.0,0.0,1.75,5.0,1.0,0.0,1.25,0.5,1.25,2.0,0.5,1.5,-0.73,-0.98,-0.42,235.5,-1.0,2.4,0.0,0.25,0.0,0.0,0.0,0.75,0.25,0.75,0.0,0.5,1.0,0.0,0.0,0.58,-0.3,0.2,82.9,5.7,-26.3
5.76,0.0,1.0,0.0,1.5,5.0,0.5,0.0,1.5,0.75,1.25,2.0,0.5,1.5,-0.36,-0.8,-0.3,235.87,-1.3,-1.9,0.5,0.25,0.0,0.0,0.0,1.0,0.25,0.25,0.25,0.5,0.25,0.0,0.0,0.64,-0.3,0.14,43.18,1.5,10.3
5.78,0.25,1.0,0.0,1.5,5.0,1.25,0.0,1.75,0.5,1.25,2.0,0.25,1.25,-0.05,-0.92,0.02,236.67,-2.1,4.1,0.0,0.25,0.0,0.0,0.0,0.75,0.25,0.25,0.25,0.25,0.25,0.0,0.0,0.7,-0.17,0.08,7.93,5.5,-1.6
5.8,0.0,1.0,0.0,1.5,5.0,1.25,0.0,2.0,0.5,1.25,2.0,0.5,1.25,0.14,-0.73,0.2,238.73,-2.6,0.5,0.0,0.25,0.0,0.0,0.0,0.75,0.25,0.75,0.25,0.25,0.5,0.0,0.25,0.77,-0.05,0.08,0.0,6.7,-22.5
5.82,0.0,1.0,0.0,1.25,5.0,1.25,0.0,2.0,0.75,1.25,2.0,0.5,1.25,0.27,-0.36,-0.11,241.05,-2.7,-0.8,0.0,0.25,0.0,0.0,0.0,0.75,0.25,0.5,0.25,0.5,0.25,0.0,0.25,0.77,-0.05,0.02,0.0,8.2,-21.2
5.84,0.25,1.0,0.0,1.25,5.0,1.5,0.0,2.25,0.5,1.25,2.0,0.5,1.75,0.45,-0.17,-0.23,246.27,-3.2,-2.2,0.5,0.25,0.0,0.0,0.0,1.0,0.25,0.25,0.25,0.5,0.25,0.0,0.0,0.7,-0.11,0.14,4.58,1.5,10.3
5.86,0.0,1.0,0.0,2.0,5.0,1.25,0.0,2.25,0.5,1.25,2.0,0.5,1.75,0.52,-0.05,-0.17,252.51,-2.6,-1.4,0.0,0.25,0.0,0.0,0.0,0.75,0.25,0.5,0.25,0.75,1.25,0.0,0.25,0.77,-0.05,0.2,15.38,4.1,-37.6
5.88,0.0,1.0,0.0,1.75,5.0,1.5,0.0,2.25,0.5,1.5,2.0,0.5,1.25,0.39,0.02,-0.05,256.18,-3.0,0.2,0.25,0.25,0.0,0.0,0.0,0.75,0.25,0.5,0.25,0.5,0.5,0.0,0.0,0.83,-0.17,0.2,24.29,2.9,-8.9
5.9,0.0,1.0,0.0,1.25,5.0,1.5,0.0,2.25,0.75,1.5,2.0,0.5,1.25,0.33,0.08,-0.05,250.92,-3.4,-1.9,0.0,0.25,0.0,0.0,0.0,1.0,0.25,0.5,0.0,0.5,0.25,0.0,0.0,0.89,-0.23,0.39,27.76,10.9,-5.6
5.92,0.0,1.0,0.0,1.5,5.0,1.25,0.0,2.25,0.75,1.25,2.0,0.5,1.5,0.2,0.14,-0.05,249.7,-2.8,-2.1,0.0,0.25,0.0,0.0,0.0,0.75,0.25,0.25,0.0,0.5,0.75,0.0,0.25,0.95,-0.3,0.39,31.08,5.9,-27.5
5.94,0.0,1.0,0.0,1.75,5.0,1.5,0.0,2.0,0.75,1.5,2.0,0.5,1.5,-0.05,0.2,-0.05,249.92,-2.7,-1.2,0.0,0.25,0.0,0.0,2.5,1.0,0.75,1.0,0.0,1.0,1.5,0.75,1.0,1.08,-0.23,0.33,73.87,4.1,-20.2
5.96,0.0,1.0,0.0,1.5,5.0,2.0,0.0,2.25,0.5,1.5,2.0,0.75,1.25,-0.17,0.14,0.02,251.91,-3.6,-1.1,2.0,0.5,0.0,0.0,0.0,0.75,0.25,0.5,0.0,0.5,0.5,0.0,0.0,1.14,-0.05,0.27,85.98,-10.3,35.6
5.98,0.0,0.0,0.0,1.25,5.0,0.0,0.0,2.25,0.0,1.0,2.0,0.25,1.5,-0.23,-0.42,0.45,236.24,-3.4,-8.5,0.75,0.25,0.0,0.0,0.0,0.75,0.25,0.75,0.0,0.0,0.5,0.0,0.25,1.14,0.02,0.27,87.2,-1.3,8.4
6.0,0.0,0.0,0.0,1.25,0.5,0.0,0.0,0.75,0.0,1.0,0.0,0.25,0.0,-0.55,-1.36,0.83,176.74,-1.4,-6.4,0.0,0.25,0.0,0.0,0.0,1.0,0.25,0.25,0.0,0.5,0.25,0.0,0.25,1.02,0.08,0.27,70.76,10.6,-12.8
6.02,0.0,0.0,0.0,1.0,0.5,0.0,0.0,0.75,0.0,1.0,0.0,0.25,0.0,-0.73,-2.17,1.02,112.38,-2.7,-11.1,0.0,0.5,0.0,0.0,0.0,1.0,0.25,0.5,0.0,0.25,0.25,0.0,1.0,0.95,-0.11,0.33,61.88,9.7,-23.0
6.04,0.0,0.75,0.0,1.5,0.0,1.75,0.0,0.75,0.5,1.25,0.0,0.5,0.0,-0.48,-2.73,1.08,74.23,-3.2,3.8,0.0,0.25,0.0,0.0,0.0,1.0,0.75,0.75,0.0,0.5,0.25,0.0,0.25,0.77,-0.36,0.33,51.86,8.4,-13.8
6.06,0.0,1.0,0.0,1.5,5.0,1.75,0.0,3.0,0.25,2.0,2.0,0.5,1.5,-0.23,-2.48,1.14,123.31,-4.7,-4.5,0.0,0.25,0.0,0.0,0.0,0.75,0.0,0.5,0.0,0.0,0.25,0.0,0.0,0.64,-0.36,0.39,43.13,10.9,7.0
6.08,0.0,1.0,0.0,1.5,5.0,1.75,0.0,3.0,0.25,2.0,2.0,0.5,1.25,0.2,-1.61,0.89,177.76,-4.6,-3.1,2.0,1.25,0.0,1.25,0.0,2.0,0.25,0.5,0.0,0.0,0.25,0.0,0.0,0.58,-0.11,0.27,68.71,-8.1,57.6
6.1,0.0,1.0,0.0,1.75,5.0,1.75,0.0,3.0,0.25,1.5,2.0,0.5,1.5,0.08,-0.98,0.58,227.84,-4.1,-1.8,0.0,0.25,0.0,0.0,0.25,1.0,0.25,0.5,0.0,0.25,0.25,0.0,0.0,0.58,0.02,0.27,63.0,9.6,7.6
6.12,0.0,1.0,0.0,1.75,5.0,1.75,0.0,3.0,0.0,1.75,2.0,0.25,1.0,-0.23,-0.42,0.39,248.66,-4.4,2.1,0.0,0.25,0.0,0.0,0.0,1.0,0.25,0.75,0.0,0.0,0.75,0.0,0.0,0.89,0.02,0.14,61.55,6.8,-8.1
6.14,0.0,1.0,0.0,1.75,4.75,1.75,0.0,3.0,0.5,1.75,2.0,0.5,1.5,-0.36,-0.17,0.2,260.15,-4.1,-4.1,0.0,0.25,0.0,0.0,0.0,1.0,0.25,0.25,0.0,0.5,1.25,0.0,0.25,1.08,0.08,0.14,52.64,4.8,-29.9
6.16,0.0,1.0,0.0,2.0,5.0,1.75,0.0,3.0,0.25,1.5,2.0,0.5,1.75,-0.8,-0.36,0.2,265.37,-3.9,-2.4,0.25,0.5,0.0,0.0,0.0,0.75,0.25,0.75,0.25,0.25,0.25,0.0,0.0,1.14,0.08,0.08,48.23,2.7,8.3
6.18,0.0,0.0,0.0,1.25,5.0,0.25,0.0,3.0,0.0,1.0,2.0,0.25,1.25,-1.05,-0.48,0.08,254.56,-4.2,-7.6,0.0,0.25,0.75,0.0,2.5,1.0,0.75,1.0,0.25,0.0,0.75,0.0,0.25,1.02,0.08,0.08,66.8,-0.5,18.5
6.2,0.0,0.0,0.0,1.0,0.5,0.25,0.0,0.75,0.0,1.0,0.0,0.25,0.0,-1.11,-0.61,0.14,200.41,-3.9,-8.3,0.0,0.25,0.0,0.0,0.0,1.0,0.25,0.25,0.25,0.5,0.75,0.0,0.25,0.7,0.08,0.2,71.01,5.8,-23.9
6.22,0.0,0.0,0.0,1.0,0.5,0.75,0.0,0.75,0.0,1.0,0.0,0.25,0.0,-1.17,-0.3,0.08,145.42,-6.0,-3.7,0.25,0.25,0.0,0.0,0.0,0.75,0.0,0.0,0.0,0.5,0.25,0.0,0.0,0.58,0.02,0.33,65.38,5.1,8.4
6.24,0.0,0.0,0.0,1.25,0.0,0.5,0.0,0.75,0.0,1.0,0.0,0.25,0.0,-0.98,-0.05,0.14,90.77,-3.8,-10.5,2.25,1.0,0.0,1.25,0.0,2.0,0.25,0.0,0.0,0.25,0.25,0.0,0.0,0.58,-0.05,0.39,77.87,-9.8,59.6
6.26,0.0,0.0,0.0,1.25,0.75,0.75,0.0,1.0,0.0,1.0,0.25,0.25,0.0,-1.23,-0.17,0.27,59.49,-4.5,-2.5,0.0,0.25,0.75,0.0,2.25,0.0,0.75,1.0,0.25,0.25,0.0,0.0,0.25,0.7,0.08,0.33,85.22,-2.5,21.9
6.28,0.0,0.0,0.0,1.0,0.0,1.0,0.0,1.25,0.0,0.5,0.0,0.25,0.0,-1.23,-0.42,0.2,33.69,-7.5,-5.1,0.5,0.25,0.0,0.0,0.0,0.0,0.25,0.0,0.25,0.0,0.25,0.0,0.25,0.83,0.14,0.45,72.04,-16.0,11.5
6.3,0.0,0.0,0.0,1.25,0.5,0.25,0.0,1.0,0.0,1.25,0.0,0.5,0.0,-1.11,-0.55,0.39,26.59,-3.4,-14.9,0.0,0.25,0.75,0.0,2.25,0.0,1.0,0.5,0.5,2.25,0.5,0.0,0.0,1.02,0.14,0.58,86.8,-0.9,-2.5
6.32,0.0,1.0,0.0,1.75,5.0,1.75,0.0,3.0,0.5,1.5,2.0,0.5,1.25,-1.17,-0.73,0.39,102.82,-3.8,-0.8,0.0,0.25,0.75,0.0,0.0,0.0,0.25,0.0,0.25,0.0,0.25,0.0,0.0,1.14,0.14,0.52,66.28,-25.8,29.3
6.34,0.0,1.0,0.0,2.0,5.0,1.75,0.0,3.0,0.5,1.25,2.0,0.5,1.25,-1.42,-1.05,0.2,169.97,-3.3,0.9,0.5,0.25,0.0,0.0,0.0,0.0,0.25,0.0,0.0,0.25,0.25,0.0,0.0,1.39,-0.11,0.33,53.93,-16.5,27.9
6.36,0.0,1.0,0.0,1.75,5.0,1.75,0.0,3.0,0.75,1.5,2.0,0.5,1.25,-1.17,-0.61,0.08,228.29,-3.6,-1.3,0.0,0.25,0.0,0.0,0.0,0.0,0.25,0.0,0.25,0.5,0.25,0.0,0.25,1.39,-0.3,0.27,33.24,-0.8,-40.0
6.38,0.25,1.0,0.0,2.0,5.0,1.5,0.0,3.0,0.75,1.25,2.0,0.5,1.25,-0.92,-0.11,0.14,259.33,-2.4,1.1,0.0,0.25,0.0,0.25,0.0,0.0,0.25,0.0,0.0,0.0,0.75,0.0,0.25,1.45,-0.55,0.27,24.66,-9.8,-24.1
6.4,0.0,1.0,0.0,2.5,5.0,1.75,0.0,3.0,0.75,2.0,2.0,0.5,1.5,-0.92,-0.11,0.2,283.74,-3.2,-2.2,0.0,0.25,0.0,0.0,0.0,0.0,0.25,0.0,0.0,0.0,0.75,0.0,0.0,1.39,-0.55,0.33,12.82,-13.5,-23.5
6.42,0.0,1.0,0.0,1.75,5.0,1.75,0.0,3.0,0.75,1.75,2.0,0.5,1.5,-1.05,-0.23,0.33,293.22,-3.8,-3.7,0.0,0.25,0.0,0.0,0.0,0.0,0.25,0.0,0.0,0.25,0.25,0.0,0.0,0.89,-0.05,0.95,6.7,-6.6,-9.6
6.44,0.5,0.75,0.0,1.25,4.25,1.75,0.0,3.0,0.75,1.25,2.0,0.75,1.25,-1.05,-0.3,0.33,294.47,-3.1,-5.0,0.0,0.25,0.0,0.0,0.25,0.0,0.25,0.0,0.0,0.0,0.25,0.0,0.0,0.27,0.45,1.2,7.8,-9.6,28.6
6.46,0.25,1.0,0.0,2.0,5.0,1.75,0.0,3.0,0.75,1.75,2.0,0.5,1.5,-0.86,-0.3,0.39,295.41,-3.1,-1.7,0.0,0.25,0.0,0.0,0.0,0.0,0.25,0.0,0.0,0.25,0.25,0.0,0.0,-0.36,0.95,0.95,3.25,-6.6,-9.6
6.48,0.25,1.0,0.0,2.5,5.0,1.75,0.0,3.0,0.75,1.25,2.0,0.5,1.25,-0.73,-0.23,0.33,293.85,-2.1,3.0,0.0,0.5,0.0,0.0,0.0,0.0,0.25,0.0,0.0,0.0,1.0,0.0,0.0,-0.36,1.14,0.77,3.81,-12.9,-11.6
6.5,0.0,1.0,0.0,1.75,5.0,1.5,0.0,2.75,0.75,1.75,2.0,0.5,1.5,-0.8,-0.36,0.45,288.75,-3.4,-3.7,0.5,0.25,0.0,0.0,0.0,0.0,0.25,0.0,0.0,0.0,0.5,0.0,0.0,-0.23,0.89,0.64,10.26,-21.5,28.5
6.52,0.25,1.0,0.0,1.75,5.0,1.75,0.0,2.5,0.75,1.5,2.0,0.5,1.5,-0.86,-0.11,0.52,282.31,-2.9,-0.6,0.0,0.25,0.0,0.0,0.0,0.0,0.25,0.0,0.0,0.0,0.25,0.0,0.0,0.14,0.45,0.58,11.63,-15.7,16.9
6.54,0.0,1.0,0.0,2.25,4.75,1.5,0.0,2.25,0.75,1.5,2.0,0.5,1.5,-0.98,-0.17,0.58,271.33,-2.4,-0.9,0.0,0.25,0.0,0.0,0.0,0.0,0.25,0.0,0.0,0.0,0.25,0.0,0.0,0.39,0.33,0.52,7.45,-15.7,16.9
6.56,0.0,0.0,0.0,1.0,1.75,0.25,0.0,1.75,0.0,1.0,0.75,0.25,0.0,-1.05,-0.48,0.64,210.98,-4.1,-6.8,0.0,0.25,0.0,0.0,0.0,0.0,0.25,0.0,0.0,0.0,0.75,0.0,0.0,0.45,0.33,0.45,12.83,-13.5,-23.5
6.58,0.0,1.0,0.0,1.25,0.0,1.5,0.0,0.75,0.75,1.25,0.0,0.5,0.0,-1.05,-0.48,0.58,159.52,-2.2,2.7,0.0,0.25,0.0,0.0,0.0,0.0,0.25,0.0,0.0,0.0,0.25,0.0,0.0,0.14,0.39,0.7,11.1,-15.7,16.9
6.6,0.0,0.75,0.0,1.75,4.75,1.25,0.0,1.5,0.75,1.25,2.0,0.75,1.75,-1.42,-0.23,0.08,158.76,-2.1,-5.2,0.0,0.25,0.0,0.0,0.0,0.0,0.5,0.0,0.0,0.0,0.25,0.0,0.0,-0.05,0.45,0.89,10.95,-18.4,18.6
6.62,0.0,1.0,0.0,1.75,4.75,0.25,0.0,1.0,0.5,1.25,2.0,0.5,1.5,-1.61,-0.48,-0.05,169.75,-0.3,-0.7,0.0,0.25,0.0,0.0,0.0,0.0,0.25,0.0,0.0,0.5,0.25,0.0,0.0,0.27,0.52,0.58,12.91,-1.6,-24.3
6.64,0.0,1.0,0.0,1.25,4.75,0.5,0.0,1.0,0.5,1.25,2.0,0.5,1.5,-2.05,-0.55,-0.11,188.02,-1.3,-2.2,0.0,0.5,0.0,0.0,0.0,0.0,0.25,0.0,0.0,0.0,0.25,0.0,0.0,0.45,0.45,0.7,14.26,-14.8,41.0
6.66,0.0,1.0,0.0,1.5,4.75,0.25,0.0,1.0,0.5,1.25,2.0,0.5,1.5,-1.73,-0.23,0.2,200.08,-0.6,-1.8,0.0,0.5,0.0,1.25,0.0,2.0,0.25,0.0,0.25,3.0,0.25,0.5,0.0,0.52,0.33,0.89,51.63,6.0,-14.6
6.68,0.0,1.0,0.0,1.25,4.75,0.25,0.0,0.75,0.5,1.25,2.0,0.5,0.5,-1.17,0.14,0.7,199.36,0.2,5.9,0.0,0.25,0.0,0.0,0.0,0.0,0.25,0.0,0.0,0.5,0.25,0.0,0.5,2.64,-2.42,2.95,53.09,3.1,-51.2
6.7,0.0,1.0,0.0,1.25,5.0,0.25,0.0,0.75,0.5,1.25,2.0,0.5,1.0,-0.73,0.33,1.08,193.81,-0.2,2.7,0.0,0.25,0.0,0.0,0.0,0.0,0.25,0.0,0.0,0.25,0.5,0.0,0.0,0.77,0.14,0.14,50.98,-7.5,-23.9
6.72,0.0,1.0,0.0,1.25,3.75,0.25,0.25,1.0,0.25,1.25,2.0,0.5,0.75,-0.36,0.2,1.14,187.92,0.0,-0.5,0.0,0.25,0.0,0.0,0.0,0.0,0.25,0.0,0.0,0.0,0.25,0.0,0.0,1.02,0.45,0.58,33.0,-15.7,16.9
6.74,0.0,1.0,0.0,1.5,5.0,0.25,0.0,0.75,0.25,1.25,2.0,0.5,0.5,-0.11,0.27,0.95,192.45,0.3,8.7,0.5,0.25,0.0,0.0,0.0,0.0,0.25,0.0,0.0,0.0,0.0,0.0,0.0,-0.17,0.27,0.95,24.25,-27.7,88.2
6.76,0.5,0.5,0.0,1.25,5.0,0.25,0.0,0.75,0.25,1.25,1.75,0.25,0.25,0.02,0.2,0.77,190.93,0.6,13.6,0.5,0.25,0.0,0.0,0.0,0.0,0.25,0.0,0.0,0.25,0.0,0.0,0.0,0.02,0.27,0.58,17.15,-17.8,50.7
6.78,0.0,1.0,0.0,1.25,5.0,0.25,0.0,0.75,0.25,1.25,2.0,0.5,1.0,0.08,0.2,0.77,198.62,-0.4,3.4,0.0,0.25,0.0,0.0,0.0,0.0,0.25,0.0,0.0,0.25,0.25,0.0,0.25,0.2,-0.3,0.95,17.37,-2.0,-32.5
6.8,0.0,1.0,0.0,1.25,5.0,0.75,0.0,1.0,0.25,1.25,2.0,0.5,0.5,0.08,0.14,0.64,206.1,-1.0,7.8,0.5,0.25,0.0,0.0,0.0,0.0,0.25,0.0,0.25,1.5,0.5,0.25,0.0,0.77,-0.92,1.02,29.89,-3.1,-33.7
6.82,0.0,1.0,0.0,1.25,5.0,0.25,0.0,0.75,0.25,1.25,2.0,0.5,0.75,0.02,0.14,0.58,203.32,-0.2,5.5,0.0,0.25,0.0,0.0,0.0,1.25,0.25,0.0,0.5,1.5,0.5,0.75,0.0,0.33,-0.3,0.7,47.39,5.3,-38.0
6.84,0.0,1.0,0.0,1.25,5.0,0.25,0.0,0.75,0.25,1.25,2.0,0.5,0.5,-0.05,0.08,0.52,196.73,0.0,7.7,0.0,0.25,1.0,0.25,2.5,1.25,0.25,0.0,0.5,2.0,0.5,0.0,0.25,0.39,-0.11,0.77,86.09,1.0,7.4
6.86,0.0,1.0,0.0,1.5,5.0,0.25,0.0,0.75,0.25,1.25,1.75,0.5,1.0,-0.17,0.08,0.64,199.56,-0.3,5.8,0.25,0.25,0.0,0.0,0.0,0.0,0.5,0.0,0.25,0.5,0.75,0.0,0.0,0.39,-0.05,1.2,80.96,-10.0,-21.4
6.88,0.0,1.0,0.0,1.25,5.0,0.25,0.0,0.75,0.0,1.25,2.0,0.5,0.75,-0.23,0.08,0.83,198.88,-0.4,6.3,0.0,0.25,0.0,0.0,0.0,0.25,0.25,0.0,0.25,0.75,0.75,0.0,0.5,0.39,-0.05,1.02,75.62,2.1,-49.3
6.9,0.0,1.0,0.0,1.75,4.75,0.25,0.0,0.75,0.0,1.25,2.0,0.5,0.25,-0.3,0.2,0.89,197.81,0.7,11.8,0.5,0.25,0.0,0.0,0.0,0.25,0.25,0.0,0.25,0.75,0.25,0.0,0.25,0.33,-0.17,0.7,56.33,-3.2,-11.7
6.92,0.5,1.0,0.0,1.25,5.0,0.25,0.0,0.75,0.25,1.25,1.75,1.0,0.5,-0.3,0.14,0.83,201.1,1.2,8.0,0.5,0.25,0.0,0.0,0.0,0.5,0.25,0.0,0.25,0.25,0.25,0.0,0.0,0.08,-0.11,0.7,50.89,-6.9,21.3
