time,left pressure 0[N/cm虏],left pressure 1[N/cm虏],left pressure 2[N/cm虏],left pressure 3[N/cm虏],left pressure 4[N/cm虏],left pressure 5[N/cm虏],left pressure 6[N/cm虏],left pressure 7[N/cm虏],left pressure 8[N/cm虏],left pressure 9[N/cm虏],left pressure 10[N/cm虏],left pressure 11[N/cm虏],left pressure 12[N/cm虏],left acceleration X[g],left acceleration Y[g],left acceleration Z[g],left total force[N],left center of pressure X[mm],left center of pressure Y[mm],right pressure 0[N/cm虏],right pressure 1[N/cm虏],right pressure 2[N/cm虏],right pressure 3[N/cm虏],right pressure 4[N/cm虏],right pressure 5[N/cm虏],right pressure 6[N/cm虏],right pressure 7[N/cm虏],right pressure 8[N/cm虏],right pressure 9[N/cm虏],right pressure 10[N/cm虏],right pressure 11[N/cm虏],right pressure 12[N/cm虏],right acceleration X[g],right acceleration Y[g],right acceleration Z[g],right total force[N],right center of pressure X[mm],right center of pressure Y[mm]
0.02,1.0,1.0,2.25,2.5,2.5,2.75,4.0,3.75,3.25,3.0,4.0,4.25,4.0,-0.11,0.02,0.95,492.95,3.4,-25.2,7.0,0.75,4.5,3.0,3.75,0.5,3.0,1.25,1.25,1.25,0.25,0.5,1.25,-0.11,0.14,1.45,431.39,-16.8,39.2
0.04,1.0,1.25,2.25,2.5,3.75,2.75,4.0,4.0,3.5,4.25,4.5,5.25,5.5,-0.11,-0.05,0.95,562.51,2.2,-29.0,5.75,0.25,4.25,2.0,1.75,0.0,3.0,0.0,1.25,0.75,0.0,0.5,0.75,-0.17,0.14,1.45,326.64,-22.9,44.8
0.06,0.75,1.25,1.75,2.5,4.25,2.75,4.0,4.0,4.0,5.0,5.0,6.0,6.25,-0.11,-0.05,0.95,638.88,1.3,-33.6,3.75,0.0,2.0,2.0,2.5,0.0,2.75,0.0,1.0,1.25,0.25,0.5,1.5,-0.17,0.14,1.39,240.45,-15.1,24.7
0.08,1.5,1.0,2.25,2.25,4.25,2.75,4.75,4.5,4.25,5.25,5.75,7.0,7.25,-0.11,-0.05,0.95,730.64,2.0,-35.5,1.5,0.25,2.0,2.0,2.25,0.25,2.5,0.0,0.75,0.25,0.0,0.25,1.25,-0.23,0.2,1.33,160.17,-14.6,30.1
0.1,1.0,1.25,2.25,2.5,3.75,2.75,4.75,5.0,4.75,6.0,5.75,7.5,7.75,-0.11,-0.05,0.95,808.57,1.4,-38.6,1.25,0.0,1.75,1.75,3.0,0.0,2.0,0.0,0.75,0.25,0.0,0.75,1.25,-0.17,0.14,1.14,109.65,-12.6,22.1
0.12,0.75,1.25,2.25,2.75,4.25,2.75,4.75,5.25,4.75,6.5,6.25,7.75,8.0,-0.11,-0.05,0.95,873.6,1.1,-39.0,1.25,0.75,1.75,1.75,1.75,0.25,2.0,0.0,0.75,0.25,0.0,0.5,1.25,1.45,-0.36,1.02,85.96,-13.9,26.4
0.14,1.0,1.25,2.25,2.75,3.75,3.0,4.75,5.25,5.0,6.5,6.25,8.25,8.75,-0.11,-0.05,0.95,928.94,1.1,-40.7,1.0,0.0,1.75,1.75,1.75,0.0,2.0,0.0,0.75,0.75,0.0,0.75,0.5,1.08,-0.3,0.89,75.93,-14.9,21.2
0.16,1.0,1.25,1.75,2.75,3.75,2.75,4.75,5.5,5.0,7.0,6.75,8.25,9.0,-0.11,-0.05,0.95,967.48,0.7,-42.8,0.75,0.0,1.75,0.5,1.5,0.0,2.0,0.0,0.75,1.0,0.0,0.5,0.5,0.27,0.02,0.64,62.84,-13.9,13.2
0.18,1.0,1.25,1.75,2.75,3.75,3.0,4.75,5.5,5.0,7.0,6.75,8.0,9.0,-0.11,-0.05,0.95,975.16,0.5,-42.2,0.5,0.0,1.5,0.75,1.5,0.0,2.0,0.0,0.75,0.75,0.0,0.25,0.5,0.14,0.08,0.58,50.1,-13.7,17.4
0.2,1.25,1.25,1.75,2.75,3.75,3.5,4.75,5.5,5.25,7.0,6.75,8.25,9.0,-0.11,-0.05,0.95,987.07,0.6,-41.3,0.5,0.75,1.75,1.0,1.25,0.0,1.75,0.0,0.5,1.25,0.0,0.75,0.75,0.14,-0.05,0.58,52.39,-12.2,11.7
0.22,1.0,1.0,2.0,2.75,4.75,3.0,4.75,5.5,5.0,6.75,6.75,8.25,9.0,-0.11,-0.05,0.95,988.2,0.7,-40.6,0.25,0.75,1.75,0.75,1.25,0.0,1.75,0.0,0.5,0.5,0.0,0.5,0.5,0.08,-0.11,0.83,57.51,-15.0,23.7
0.24,1.0,1.0,2.25,2.75,3.5,3.5,4.75,5.5,5.0,7.0,6.5,8.25,9.0,-0.11,-0.05,0.95,975.4,0.6,-41.9,0.5,0.75,1.75,0.5,1.0,0.0,1.25,0.0,0.5,0.25,0.0,0.5,0.5,0.2,-0.17,0.89,71.09,-16.8,27.0
0.26,1.0,1.0,1.75,2.75,4.5,3.25,4.75,5.5,5.0,7.25,6.5,8.0,9.0,-0.11,-0.05,0.95,957.88,0.2,-41.1,0.5,0.75,1.25,0.75,0.5,0.0,1.25,0.0,0.5,0.5,0.0,0.75,1.0,0.33,-0.11,0.83,84.52,-13.3,5.7
0.28,1.0,1.25,2.25,2.75,4.25,3.0,4.75,5.5,5.0,7.5,6.5,8.25,9.0,-0.11,-0.05,0.95,944.57,0.7,-40.8,0.0,0.75,1.75,0.75,0.5,0.0,1.25,0.0,0.5,0.5,0.0,0.5,1.0,0.33,-0.05,0.95,90.86,-13.9,7.7
0.3,0.75,1.25,1.5,2.75,4.5,3.0,4.75,5.75,5.0,7.75,6.5,8.25,9.0,-0.11,-0.05,0.95,935.52,0.0,-42.3,0.0,0.5,0.5,0.5,1.0,0.0,1.25,0.0,0.5,0.75,0.0,0.5,0.75,0.39,0.02,1.02,85.76,-6.6,-4.1
0.32,0.75,1.0,1.75,2.75,5.5,3.25,5.0,6.0,5.0,7.75,6.5,8.25,9.0,-0.11,-0.05,0.95,938.01,0.0,-40.2,0.25,0.75,0.5,0.5,0.5,0.0,1.0,0.0,0.5,0.75,0.0,0.5,1.25,0.45,0.14,1.08,84.01,-6.7,-10.8
0.34,1.0,1.0,1.75,2.75,4.75,3.25,5.0,6.0,5.25,7.75,6.75,8.25,9.0,-0.11,-0.05,0.95,942.68,0.1,-41.2,0.25,0.75,0.75,0.5,0.0,0.0,1.0,0.0,0.5,0.25,0.0,0.25,1.25,0.52,0.27,1.08,76.12,-11.5,-3.2
0.36,1.0,1.25,1.75,3.0,4.75,5.0,4.75,6.25,5.25,7.75,6.75,8.5,9.0,-0.11,-0.05,0.95,962.03,-0.3,-38.6,0.0,0.75,0.5,0.5,0.5,0.0,1.0,0.0,0.5,0.25,0.0,0.25,1.0,0.52,0.39,1.14,70.97,-8.6,0.8
0.38,1.0,1.0,2.0,2.75,4.75,3.75,4.75,6.25,5.25,7.75,6.75,8.75,9.0,-0.11,-0.05,0.95,971.35,0.0,-40.9,0.25,0.75,0.5,0.5,0.25,0.0,0.75,0.0,0.5,0.5,0.0,0.5,1.25,0.52,0.52,1.14,70.14,-7.7,-12.1
0.4,1.25,1.25,1.75,2.75,4.25,3.75,4.75,6.25,5.25,7.75,7.0,8.75,9.0,-0.11,-0.05,0.95,979.22,0.1,-41.2,0.0,0.75,0.5,0.5,0.25,0.0,1.0,0.0,0.75,0.5,0.0,0.5,1.5,0.58,0.58,1.08,73.58,-6.3,-21.1
0.42,1.0,1.25,2.25,2.75,4.5,4.0,4.75,6.25,5.25,7.75,7.0,8.5,9.0,-0.11,-0.05,0.95,982.32,0.2,-39.9,0.25,0.75,0.5,0.5,0.0,0.0,1.25,0.0,0.5,0.25,0.0,0.5,1.5,0.58,0.64,1.08,74.34,-9.4,-15.5
0.44,1.0,1.25,2.25,2.75,4.75,4.0,4.75,6.25,5.5,7.75,7.0,8.25,9.0,-0.11,-0.05,0.95,985.08,0.2,-39.2,0.0,0.75,0.75,0.5,0.25,0.0,1.0,0.0,0.5,0.75,0.0,0.25,1.25,0.39,0.77,1.14,76.06,-7.4,-11.0
0.46,1.25,1.25,2.25,2.75,6.25,4.5,5.0,6.25,5.75,7.75,7.0,8.25,9.0,-0.11,-0.05,0.95,1002.59,0.2,-35.5,0.25,0.75,0.75,0.5,0.0,0.0,1.0,0.0,0.5,0.5,0.0,0.25,1.25,0.14,0.83,1.2,77.91,-10.3,-6.6
0.48,1.75,1.5,2.25,2.75,5.75,4.75,5.0,6.25,5.75,7.75,7.0,8.25,9.0,-0.11,-0.05,0.95,1019.93,0.4,-34.6,0.0,0.75,0.5,0.5,0.0,0.0,1.0,0.0,0.5,0.75,0.0,0.25,1.25,-0.17,0.89,1.27,76.81,-6.4,-18.3
0.5,1.75,1.5,1.0,2.75,5.75,5.0,4.75,6.25,5.75,7.5,7.0,8.25,8.75,-0.11,-0.05,0.95,1023.42,-0.3,-35.9,0.25,0.75,0.5,0.5,0.25,0.0,1.0,0.0,0.5,0.25,0.0,0.25,1.0,-0.23,1.08,1.02,74.96,-10.6,2.3
0.52,1.75,1.75,2.5,2.75,5.25,5.0,5.0,6.5,5.75,7.5,7.0,7.75,8.0,-0.11,-0.05,0.95,1016.57,0.7,-32.3,0.0,0.75,0.5,0.5,0.0,0.0,0.75,0.0,0.5,0.0,0.0,0.25,1.0,-0.23,1.33,0.77,69.44,-11.2,-2.8
0.54,1.75,1.75,2.25,3.0,6.5,5.5,5.25,6.75,6.25,7.5,7.0,7.5,8.0,-0.11,-0.05,0.95,1021.63,0.4,-29.7,0.25,0.75,2.0,0.5,3.75,0.0,1.25,1.25,0.5,0.75,0.75,0.25,1.75,-0.17,1.89,0.52,116.63,-5.0,7.2
0.56,2.0,1.75,2.25,3.0,6.25,6.5,5.75,6.75,6.25,7.0,7.0,6.75,7.25,-0.11,-0.05,0.95,1016.97,0.5,-26.3,1.25,1.5,0.5,2.0,0.25,0.0,0.75,0.0,0.75,1.75,0.0,1.0,1.25,-0.61,2.45,0.02,142.52,-9.2,3.1
0.58,2.0,2.0,3.0,4.5,6.5,7.0,6.0,7.25,6.5,6.5,6.75,6.5,7.25,-0.11,-0.05,0.95,1043.77,1.2,-21.4,0.25,0.75,0.75,0.5,0.0,0.5,0.75,0.0,0.25,0.0,0.0,0.75,1.75,0.08,-0.11,-0.3,144.28,-7.1,-14.6
0.6,3.0,2.0,3.5,5.25,7.25,7.5,6.5,7.5,6.5,6.5,6.25,5.0,6.25,-0.11,-0.05,0.95,1080.38,1.9,-13.4,0.0,1.5,0.5,2.0,0.0,2.5,0.75,0.75,0.75,1.5,0.5,1.0,1.75,-0.98,-0.36,0.58,162.31,0.3,-9.0
0.62,3.75,2.0,4.25,5.5,8.5,8.5,7.0,7.75,6.5,5.25,5.75,4.25,5.25,-0.11,-0.05,1.02,1133.41,2.7,-5.3,0.5,0.75,0.5,0.25,0.25,1.25,0.75,0.75,0.5,3.0,0.5,2.25,2.5,-0.42,0.02,1.7,178.56,2.2,-45.2
0.64,5.0,2.0,5.0,7.0,10.0,9.25,7.75,7.75,6.25,4.75,4.75,3.5,4.25,-0.11,-0.05,1.02,1201.11,3.8,4.1,0.25,0.75,0.5,0.0,0.0,2.25,0.0,1.25,0.75,3.25,0.5,3.25,3.5,0.58,0.39,1.77,209.63,5.5,-55.9
0.66,5.75,0.75,5.75,8.0,11.5,9.25,8.0,7.75,5.75,4.75,4.5,3.25,4.0,-0.17,-0.11,1.14,1274.03,4.3,7.2,0.25,0.75,0.0,0.0,0.0,0.25,0.0,1.25,1.25,4.25,0.5,4.25,4.75,0.08,0.02,1.2,242.56,4.8,-76.6
0.68,6.5,2.0,6.5,8.75,12.5,10.0,8.25,7.5,5.25,4.75,4.0,2.5,3.0,-0.17,-0.05,1.08,1341.43,5.0,15.0,1.0,0.75,0.5,0.5,0.0,0.25,1.0,1.5,1.25,4.5,2.25,5.25,6.0,0.02,0.08,1.02,293.19,0.5,-66.4
0.7,7.75,2.0,7.0,10.5,14.0,10.0,7.5,7.25,4.75,4.75,2.75,2.25,2.25,-0.11,0.02,1.02,1400.46,5.8,21.7,1.25,0.75,0.5,0.5,0.25,2.75,1.25,2.25,1.75,5.5,2.5,5.25,6.75,0.08,0.02,0.95,360.32,2.8,-56.2
0.72,8.75,2.0,7.75,11.0,14.5,9.5,7.5,7.25,4.0,2.75,3.75,2.0,2.25,-0.17,0.08,1.14,1450.84,7.1,25.5,1.25,0.0,1.75,0.0,1.5,2.75,1.75,2.75,1.75,5.75,1.25,6.0,7.25,0.14,0.02,0.95,432.68,2.4,-52.9
0.74,9.5,2.25,7.75,10.5,14.0,9.25,5.75,6.25,3.25,2.75,3.0,2.0,2.25,-0.3,0.14,1.45,1461.12,7.4,28.4,2.0,1.75,1.75,1.0,1.75,5.0,2.25,4.0,2.75,7.0,5.0,5.75,8.0,0.14,0.02,0.89,564.09,1.2,-39.6
0.76,10.0,3.5,7.0,8.5,11.5,8.0,5.75,6.0,2.75,2.75,2.5,2.0,2.25,-0.3,0.2,1.52,1415.63,8.1,29.2,2.0,2.0,1.75,2.0,4.5,5.0,3.0,4.0,3.0,7.5,5.0,6.5,8.5,0.08,0.02,0.95,705.31,0.7,-33.0
0.78,9.25,2.5,6.25,6.25,9.75,6.75,5.5,5.25,1.75,2.5,1.5,2.0,2.25,-0.48,0.45,1.95,1289.34,8.2,28.8,3.25,0.75,3.0,1.75,5.5,5.0,3.0,5.25,3.25,7.5,5.75,6.5,8.5,0.14,0.02,0.95,845.73,-0.2,-30.6
0.8,7.5,2.0,4.75,3.75,7.0,4.5,4.75,4.5,1.5,0.0,1.5,0.5,2.25,-0.61,0.58,2.2,1005.19,9.5,32.8,2.25,2.25,2.75,2.0,5.5,5.75,3.0,5.25,3.25,7.5,5.25,6.5,8.5,0.14,0.02,0.95,952.41,0.4,-28.1
0.82,5.25,0.5,2.25,1.5,4.5,1.25,3.25,1.0,1.25,0.25,1.25,0.25,1.0,-0.61,0.27,1.77,639.65,13.2,35.4,2.75,1.75,2.75,2.0,5.5,6.0,3.0,5.5,3.25,7.5,5.0,6.0,8.5,0.14,0.02,0.95,1009.31,0.5,-27.1
0.84,0.75,0.0,1.0,0.5,3.5,1.75,2.5,0.25,0.75,0.25,1.0,0.25,1.0,-0.55,-0.05,1.27,340.7,4.7,15.5,2.5,2.25,4.75,2.75,6.25,6.25,3.5,6.0,3.25,7.0,5.0,5.25,7.75,0.2,0.02,0.95,1041.19,-0.9,-18.5
0.86,0.0,0.0,0.75,0.5,0.0,1.25,2.5,0.25,0.75,0.0,0.0,0.25,0.25,-0.11,-0.23,1.08,140.92,10.4,10.9,2.5,2.5,2.0,3.5,5.75,6.5,3.75,6.25,3.5,7.0,4.75,5.25,8.0,0.2,0.02,0.95,1045.47,0.6,-21.5
0.88,0.0,0.25,0.25,0.5,0.5,0.0,2.5,0.75,0.75,0.0,1.0,0.25,1.0,-0.36,-1.11,2.83,0.0,8.2,-20.7,1.75,2.5,2.0,2.0,6.5,6.25,4.0,6.25,3.25,6.0,4.5,5.0,6.25,0.14,0.02,0.95,1003.72,0.9,-19.7
0.9,0.0,0.25,0.25,0.5,0.0,0.0,2.25,0.25,0.75,0.0,0.25,0.25,0.25,-0.8,-1.23,2.33,0.0,16.3,-2.8,3.0,2.5,4.5,4.25,6.75,7.0,4.0,5.75,3.75,6.25,3.25,3.75,6.0,0.14,0.02,0.95,992.21,-1.7,-6.6
0.92,0.0,0.5,0.0,0.25,0.0,0.0,2.25,0.25,0.75,0.0,1.0,0.0,0.25,-0.67,-0.86,1.02,0.0,14.1,-10.7,3.0,2.5,4.5,4.5,8.0,7.0,4.5,6.25,3.5,5.75,3.25,2.5,5.0,0.14,0.02,0.95,975.82,-1.8,-0.3
0.94,0.0,0.25,0.0,0.25,0.0,0.0,2.5,0.0,0.75,0.0,1.25,0.25,0.25,-0.48,-0.61,0.52,0.0,16.1,-24.4,3.75,2.5,4.75,6.0,8.0,8.0,4.75,6.25,3.25,5.75,2.75,2.5,4.5,0.14,0.02,0.95,990.53,-2.4,4.7
0.96,0.0,0.25,0.25,0.25,0.0,0.0,2.5,0.5,0.75,0.0,0.5,0.25,0.5,-0.42,-0.48,0.58,0.0,12.8,-17.7,3.75,2.5,4.75,6.25,9.0,8.25,5.0,6.25,3.25,5.5,2.75,2.25,3.25,0.14,0.02,0.95,1001.05,-2.7,9.2
0.98,0.0,0.25,0.0,0.25,0.0,0.0,2.5,0.0,0.75,0.0,0.75,0.0,0.25,-0.42,-0.42,0.83,0.0,17.4,-11.0,3.75,2.5,4.75,6.75,9.25,8.25,5.0,6.25,3.25,4.75,2.75,2.0,3.0,0.14,0.02,0.95,1004.97,-3.1,11.9
1.0,0.0,0.25,0.25,0.25,0.0,0.0,2.5,0.25,0.75,0.0,1.0,0.25,0.0,-0.55,-0.36,1.02,0.0,17.6,-11.8,4.0,2.5,4.75,8.0,10.5,8.5,5.0,6.25,3.0,4.75,2.75,1.75,1.5,0.2,0.02,0.95,1016.32,-3.6,17.9
1.02,0.0,0.25,0.0,0.25,0.5,0.0,2.5,0.0,0.75,0.0,0.5,0.25,0.5,-0.55,-0.17,1.02,0.0,12.6,-10.3,4.25,3.0,5.0,8.5,11.0,8.5,5.0,6.0,2.75,4.5,2.5,1.5,2.25,0.2,0.08,1.02,1041.61,-3.9,19.8
1.04,0.0,0.25,0.0,0.0,0.0,0.0,2.5,0.0,0.75,0.0,0.75,0.25,0.5,-0.48,0.02,1.14,0.0,14.6,-29.5,5.25,3.25,5.75,9.75,12.0,8.75,5.0,6.25,2.5,4.75,2.5,1.5,3.25,0.14,0.08,0.95,1114.9,-4.3,20.7
1.06,0.0,0.25,0.0,0.25,0.0,0.0,2.75,0.0,0.75,0.0,0.5,0.0,0.0,-0.55,0.2,1.27,29.33,21.1,3.8,5.75,3.25,6.25,11.5,12.0,8.75,5.0,6.0,2.5,4.0,2.0,1.5,3.25,0.14,0.08,0.95,1191.77,-5.3,24.3
1.08,0.0,0.25,0.0,0.25,0.0,0.0,2.5,0.0,0.75,0.0,0.5,0.25,0.5,-0.55,0.27,1.58,44.12,15.1,-20.3,6.25,4.0,6.25,11.5,13.5,9.0,5.0,6.25,2.5,4.5,2.0,1.0,3.0,0.14,0.14,0.95,1284.92,-5.1,26.8
1.1,0.0,0.25,0.0,0.25,0.0,0.0,2.5,0.25,0.5,0.0,0.5,0.25,0.25,-0.67,0.39,1.83,49.74,15.1,-13.7,7.25,4.0,6.5,13.0,13.5,9.5,4.5,6.25,2.25,4.5,2.0,1.0,3.0,0.08,0.14,0.95,1356.04,-5.6,28.6
1.12,0.0,0.25,0.0,0.25,0.0,0.0,2.5,0.0,0.5,0.0,0.5,0.25,0.5,-0.8,0.52,2.45,49.77,15.3,-19.0,8.0,4.0,6.5,13.5,15.0,10.0,4.25,6.25,2.0,4.25,2.0,1.0,3.25,0.08,0.14,1.02,1422.88,-5.5,30.1
1.14,0.0,0.25,0.0,0.25,0.0,0.0,2.5,0.0,0.5,0.0,0.5,0.25,0.25,-1.05,0.95,2.64,50.5,17.6,-11.7,8.25,4.0,6.75,15.0,15.5,10.5,4.0,6.25,1.25,4.25,2.0,1.0,3.0,0.08,0.14,1.02,1475.27,-5.6,32.2
1.16,0.0,0.25,0.0,0.25,0.0,0.0,2.5,0.0,0.5,0.0,0.5,0.0,0.5,-0.86,1.77,2.2,49.34,15.8,-12.0,9.0,3.0,7.5,15.0,16.5,10.5,3.5,6.0,1.5,1.5,2.0,1.0,3.0,0.08,0.2,1.08,1509.41,-6.7,36.1
1.18,0.0,0.0,0.0,0.25,0.0,0.0,2.5,0.0,0.5,0.0,0.25,0.0,0.25,-0.55,2.77,1.95,44.14,19.7,-7.1,9.75,3.0,6.75,15.0,16.5,10.0,3.0,5.75,1.25,3.25,2.0,1.0,3.25,0.14,0.27,1.08,1527.21,-6.3,34.1
1.2,0.0,0.0,0.0,0.25,0.0,0.0,2.5,0.0,0.5,0.0,0.25,0.0,0.5,-0.05,3.89,0.14,41.29,16.5,-16.9,10.5,3.5,0.0,14.0,14.5,9.0,3.0,5.25,1.0,0.75,1.75,0.0,2.5,0.27,0.33,1.2,1439.05,-5.0,40.6
1.22,0.0,0.0,0.0,0.25,0.0,0.0,2.25,0.25,0.5,0.0,0.5,0.0,0.25,1.14,5.33,-0.67,40.06,15.2,-17.3,10.5,3.25,5.75,13.0,15.0,9.25,2.5,4.25,0.5,3.5,2.0,1.0,2.5,0.33,0.39,1.33,1396.46,-6.8,36.8
1.24,0.0,0.0,0.0,0.0,0.0,0.25,2.25,0.0,0.5,0.0,0.5,0.5,0.25,1.77,5.27,0.08,40.8,13.6,-33.1,9.75,3.0,7.0,11.5,12.5,8.25,2.75,2.75,0.75,1.5,0.25,0.5,1.5,0.39,0.52,1.45,1278.74,-9.3,46.8
1.26,0.0,0.0,0.0,0.0,0.0,0.25,2.0,0.0,0.75,0.0,1.25,1.75,1.0,-1.8,-0.8,2.45,60.49,8.3,-65.9,9.0,3.5,6.5,9.75,11.5,7.75,3.0,2.75,0.5,1.5,0.5,0.5,1.5,0.77,0.83,1.89,1146.27,-9.1,46.0
1.28,0.0,0.25,0.0,0.25,0.0,0.25,2.0,1.0,0.75,0.5,1.5,3.5,3.0,0.39,0.27,1.89,112.76,1.8,-71.9,7.75,2.5,6.25,6.25,10.5,6.5,2.5,2.75,0.25,0.0,0.5,0.25,1.5,0.7,0.83,2.64,940.85,-9.3,47.8
1.3,0.0,0.5,0.0,0.25,0.0,0.25,2.25,1.5,0.75,2.5,1.0,5.25,5.5,0.33,0.08,1.39,190.96,-1.9,-77.1,5.75,1.5,4.75,3.5,6.75,3.5,1.25,1.25,0.25,0.0,0.0,0.0,0.5,0.89,0.58,2.02,676.58,-12.0,55.5
1.32,0.75,0.25,2.25,2.25,3.75,1.75,2.5,2.25,1.75,4.0,2.0,6.75,6.25,0.14,0.08,1.45,305.22,1.5,-37.7,2.75,1.0,2.75,1.5,3.25,0.0,1.25,1.25,0.75,1.75,0.0,0.0,1.0,0.02,0.14,1.77,394.1,-11.1,29.9
1.34,0.75,0.25,0.0,2.75,0.5,2.25,2.5,4.75,1.5,4.25,4.0,6.75,7.25,-0.42,0.52,1.52,429.71,-1.7,-55.5,2.0,0.75,1.75,2.0,1.75,0.0,0.75,0.75,0.75,1.5,0.0,0.0,1.5,0.52,-1.36,3.33,223.8,-10.1,19.9
1.36,0.0,0.5,0.0,3.0,0.0,2.75,3.5,4.25,1.5,4.5,3.0,7.0,8.75,-0.05,-0.05,1.2,549.48,-2.6,-58.5,1.0,1.25,1.75,1.75,3.5,1.75,0.75,1.0,0.75,0.75,0.5,0.75,0.5,0.83,-0.92,1.58,117.02,-5.8,25.9
1.38,1.0,0.75,1.0,1.75,3.5,2.75,2.25,4.5,2.5,6.5,3.75,8.25,8.75,-0.11,0.08,1.02,671.81,-1.7,-48.3,0.5,0.0,1.5,0.75,3.75,0.25,0.75,0.25,0.5,0.25,0.0,0.25,0.5,0.45,-0.48,0.27,26.73,-7.7,32.0
1.4,1.0,1.0,0.0,2.75,4.25,3.75,2.75,5.25,3.25,7.25,4.25,8.5,8.75,-0.11,0.02,0.95,791.25,-2.4,-44.7,0.5,0.5,1.75,0.75,1.75,0.0,0.75,0.0,0.25,1.0,0.0,0.0,0.25,0.14,-0.36,0.2,0.0,-12.6,34.4
1.42,1.0,0.75,0.75,2.75,3.75,4.0,4.5,6.25,3.25,7.75,5.75,8.75,9.5,-0.11,-0.05,1.02,916.62,-1.6,-45.7,0.25,0.25,1.75,0.5,1.75,0.0,0.75,0.0,0.25,1.0,0.0,0.0,0.5,-0.05,-0.3,0.39,0.0,-10.7,23.7
1.44,1.0,1.25,0.0,2.75,3.75,4.5,4.75,6.75,3.25,7.75,5.5,8.5,9.75,-0.11,-0.05,0.95,1009.08,-2.4,-44.8,0.25,0.0,1.5,0.5,1.75,0.25,0.75,0.0,0.25,0.75,0.0,0.0,0.25,0.02,-0.3,0.7,0.0,-10.2,29.0
1.46,1.25,1.25,1.0,2.75,3.75,5.0,4.75,6.75,3.25,7.75,4.75,8.25,9.5,-0.17,-0.05,0.95,1063.52,-1.8,-40.8,0.25,0.75,1.25,0.75,1.5,0.25,0.75,0.0,0.25,1.0,0.0,0.25,0.5,0.27,-0.3,0.83,0.0,-8.5,22.2
1.48,1.0,1.25,2.0,2.75,3.75,5.0,4.75,6.75,3.25,7.75,4.75,8.25,9.0,-0.17,-0.05,0.95,1069.11,-1.2,-38.9,0.25,0.75,1.5,1.25,1.0,0.5,0.75,0.0,0.25,0.75,0.0,0.0,0.5,0.39,-0.17,0.89,0.0,-10.9,31.8
1.5,1.25,0.75,2.25,2.75,3.5,5.0,4.75,7.0,3.25,7.25,5.0,7.5,9.0,-0.17,-0.05,0.95,1040.83,-1.0,-38.5,0.25,0.0,1.5,0.75,1.25,0.25,0.75,0.0,0.0,0.5,0.0,0.0,0.5,0.33,0.02,0.95,0.0,-11.9,29.0
1.52,1.0,0.75,2.25,2.75,4.25,5.0,4.75,6.75,3.25,7.0,4.5,7.5,8.25,-0.11,-0.05,0.95,991.2,-1.0,-36.2,0.5,0.0,1.5,0.5,0.25,0.5,0.75,0.0,0.0,1.5,0.0,0.0,0.5,0.33,0.2,1.08,28.03,-9.4,7.3
1.54,1.75,0.5,2.25,2.75,5.25,5.5,5.0,7.0,3.25,6.5,4.75,6.75,8.0,-0.11,-0.05,0.95,945.42,-0.7,-31.2,0.25,0.0,1.5,0.5,0.0,0.25,0.75,0.0,0.25,0.5,0.0,0.0,0.5,0.39,0.33,1.39,44.47,-16.9,14.7
1.56,1.75,0.75,2.25,2.75,5.25,5.75,5.0,7.25,3.25,6.5,4.25,6.75,7.5,-0.11,0.02,0.95,902.51,-0.8,-29.3,0.25,0.0,0.5,0.5,0.5,0.5,0.0,0.0,0.25,1.0,0.0,0.0,0.5,0.52,0.45,1.58,49.12,-1.0,-2.4
1.58,1.75,0.5,2.25,3.0,5.0,6.5,5.0,7.25,3.25,6.5,4.0,6.0,7.0,-0.17,0.02,0.95,869.59,-1.1,-27.1,0.0,0.0,0.5,0.5,1.5,0.25,0.75,0.0,0.25,0.75,0.0,0.0,0.5,0.7,0.58,2.08,50.56,-2.7,10.1
1.6,1.75,0.0,2.25,2.75,6.5,6.5,5.0,7.5,3.25,6.5,4.0,5.75,6.75,-0.17,0.02,0.95,845.05,-1.4,-25.4,0.0,0.0,0.5,0.5,0.0,0.5,0.75,0.0,0.25,1.25,0.0,0.0,0.75,0.95,0.95,2.58,49.61,-0.5,-24.4
1.62,2.0,0.5,2.25,3.0,6.25,7.0,5.0,7.75,3.25,6.5,4.5,5.0,6.5,-0.17,0.02,0.95,829.94,-1.3,-22.4,0.25,0.0,0.5,0.5,0.5,0.25,0.5,0.0,0.25,1.0,0.0,0.0,0.5,1.08,1.77,2.45,55.49,-4.3,-2.8
1.64,1.75,0.0,2.25,3.0,6.5,7.5,5.0,7.75,3.5,6.5,3.75,4.75,5.75,-0.17,0.02,0.95,817.49,-1.7,-20.9,0.25,0.0,0.5,0.5,1.0,0.25,0.0,0.0,0.25,1.0,0.0,0.0,0.75,0.95,3.02,2.27,58.75,-0.9,-3.2
1.66,1.25,0.5,2.25,3.25,6.5,8.25,5.0,8.0,3.75,6.25,3.75,3.5,5.5,-0.17,0.02,0.95,811.33,-2.2,-17.3,0.25,0.75,0.5,0.5,0.0,0.5,0.0,0.0,0.25,0.75,0.0,0.0,0.75,0.52,4.2,0.89,60.09,-3.8,6.1
1.68,1.75,0.5,2.25,4.5,7.5,8.75,5.25,8.25,4.0,6.25,3.0,3.25,4.5,-0.17,0.02,0.95,828.19,-1.6,-10.1,0.25,0.75,0.5,0.5,0.5,1.0,0.5,0.0,0.0,1.0,0.0,0.0,0.75,-1.23,5.45,-0.92,68.13,-0.8,12.6
1.7,2.25,0.5,2.5,5.25,8.25,9.25,5.25,8.5,4.0,5.25,2.75,3.25,4.25,-0.17,0.02,0.95,860.1,-0.9,-5.1,0.25,0.75,0.5,0.5,0.0,1.25,0.0,0.0,0.5,1.5,0.0,0.25,1.25,-6.36,7.77,-1.86,79.92,1.9,-14.7
1.72,2.5,2.0,2.25,5.25,8.5,10.0,5.25,8.5,4.0,5.0,2.75,2.5,3.75,-0.17,-0.05,0.95,901.79,-0.8,0.8,0.0,0.0,0.75,0.25,0.25,0.0,0.0,1.0,0.5,2.75,0.25,2.0,1.25,1.7,-1.17,3.08,107.33,2.0,-62.2
1.74,3.25,2.25,2.5,5.5,9.75,11.0,5.5,8.5,4.0,5.0,2.5,2.0,3.25,-0.17,-0.05,0.95,961.38,-0.4,6.6,0.5,0.0,0.5,0.25,0.0,0.0,0.25,1.25,0.75,3.75,0.5,5.0,4.25,0.08,0.27,0.02,172.0,2.1,-78.4
1.76,4.25,2.25,3.25,7.0,12.5,12.0,6.0,8.5,4.0,4.75,2.0,2.0,3.0,-0.17,-0.05,1.02,1064.16,0.5,13.4,0.25,0.0,0.5,0.0,1.5,0.0,0.0,1.25,1.5,5.75,2.75,6.5,6.75,-0.8,0.45,2.2,266.47,2.9,-76.4
1.78,5.75,3.25,4.5,7.5,14.0,12.5,5.75,8.5,4.0,4.75,2.0,2.0,3.0,-0.23,-0.05,1.08,1205.26,1.7,18.3,1.25,0.75,1.5,0.0,1.75,2.75,0.75,2.75,2.5,7.0,5.0,6.5,8.25,0.14,0.58,1.58,403.99,1.9,-55.5
1.8,6.75,3.5,4.75,8.75,14.5,12.5,5.5,8.5,3.75,4.75,2.75,2.0,2.25,-0.17,0.02,1.08,1339.63,2.6,21.1,1.25,0.75,1.75,1.0,3.0,3.5,1.25,4.0,2.5,7.0,5.75,6.5,8.5,0.02,0.08,1.08,580.73,1.7,-47.2
1.82,8.0,3.5,5.0,9.0,15.5,12.5,5.5,8.25,3.25,4.25,2.75,2.0,2.25,-0.3,0.08,1.33,1430.51,3.3,24.0,1.25,0.75,1.75,1.0,2.75,3.0,1.75,4.0,2.75,7.25,5.5,6.5,8.5,0.14,0.02,0.95,718.92,1.3,-48.3
1.84,9.25,3.75,6.0,9.5,15.5,12.0,5.0,7.75,2.5,2.75,2.5,2.0,2.25,-0.3,0.14,1.45,1484.34,4.8,29.1,1.25,0.75,1.75,1.5,2.75,4.0,1.75,4.0,2.75,6.75,5.75,6.5,8.5,0.14,0.02,0.89,804.5,1.3,-45.3
1.86,10.5,3.75,6.25,7.5,15.0,10.0,4.75,7.25,2.0,2.75,2.5,1.75,2.0,-0.55,0.2,1.89,1481.55,5.9,31.0,2.5,1.75,1.75,1.5,5.25,5.25,2.75,5.25,3.0,7.25,6.5,6.5,9.25,0.14,0.02,0.95,900.83,1.0,-34.0
1.88,10.0,3.75,6.25,7.0,12.5,8.5,4.25,6.25,1.5,2.75,2.0,1.75,2.25,-0.86,0.7,2.39,1416.99,6.7,31.1,2.25,1.75,2.75,2.0,5.25,5.5,3.0,5.25,3.75,8.0,6.5,7.25,8.75,0.14,0.02,0.95,989.92,0.1,-32.5
1.9,8.25,2.75,5.5,5.25,8.75,5.75,4.75,5.25,0.75,1.25,2.25,2.0,2.0,-0.92,0.64,3.2,1235.25,8.4,29.2,2.5,2.25,3.5,2.25,5.75,5.75,3.25,5.25,3.75,7.75,6.5,6.5,8.5,0.08,0.02,0.95,1065.01,-0.5,-26.8
1.92,3.75,0.0,2.25,1.5,6.25,3.0,1.25,2.25,0.75,0.0,0.5,0.5,1.0,-1.23,0.2,2.33,814.39,5.8,32.7,2.25,2.25,4.25,2.75,6.25,6.0,3.5,5.5,3.25,6.75,5.75,5.5,8.0,0.14,0.02,0.95,1095.91,-0.9,-20.9
1.94,0.25,0.0,1.0,0.75,2.5,1.25,0.0,0.0,0.75,0.0,0.25,0.25,1.0,-0.61,-0.42,1.64,412.61,2.8,16.5,3.0,2.5,3.75,2.0,5.75,5.75,3.5,5.25,3.25,6.25,4.0,5.25,7.25,0.14,0.02,0.95,1060.81,-1.0,-17.9
1.96,0.0,0.5,0.75,0.25,3.5,0.25,1.25,0.25,0.75,0.0,0.25,0.25,0.5,-0.36,0.02,2.2,190.66,5.1,25.4,1.5,2.5,4.75,4.25,6.5,6.75,4.0,5.75,3.75,6.25,4.25,4.25,6.25,0.14,0.02,0.95,1028.14,-1.3,-11.7
1.98,0.25,0.0,0.25,0.25,3.0,1.25,1.5,0.25,0.75,0.0,0.5,0.25,0.25,-1.05,-1.3,3.02,24.32,1.9,20.8,3.75,2.5,4.75,4.5,7.5,7.25,4.5,5.75,3.75,6.0,4.0,3.25,5.25,0.14,0.02,0.95,1008.62,-2.5,-2.1
2.0,0.0,0.5,0.25,0.25,0.0,1.25,1.0,0.25,0.75,0.0,0.5,0.25,0.5,-1.05,-1.05,1.45,0.0,2.9,-4.7,3.75,2.5,4.75,5.75,8.0,7.5,5.0,5.75,3.75,5.5,3.0,2.5,4.25,0.14,0.02,0.95,1003.32,-3.0,4.8
2.02,0.0,0.5,0.5,0.25,0.0,1.25,1.25,0.0,0.75,0.0,0.25,0.25,0.5,-0.61,-0.61,0.33,0.0,6.2,4.8,3.75,2.5,4.75,6.25,8.5,7.75,5.0,5.75,3.5,5.25,2.75,2.5,3.5,0.14,0.02,0.95,1000.31,-3.2,8.1
2.04,0.0,0.0,0.0,0.25,0.0,0.75,1.25,0.0,0.5,0.0,0.75,0.25,0.25,-0.36,-0.42,0.02,0.0,6.1,-22.3,4.75,2.5,5.25,6.5,9.0,8.0,5.5,5.75,3.25,4.75,2.75,2.25,3.25,0.14,0.02,0.95,1015.76,-4.2,12.6
2.06,0.0,0.5,0.0,0.25,2.5,1.0,1.5,0.0,0.5,0.0,0.5,0.25,0.25,-0.36,-0.36,0.2,0.0,1.9,23.7,5.25,2.5,5.5,8.0,9.5,8.0,5.5,5.5,3.25,4.75,2.75,2.25,3.25,0.14,0.08,1.02,1046.26,-4.9,15.1
2.08,0.0,0.5,0.0,0.25,0.0,0.5,1.5,0.0,0.5,0.0,0.0,0.25,0.25,-0.42,-0.42,0.58,0.0,9.4,9.2,5.75,3.0,6.25,9.25,10.5,8.25,5.5,5.25,3.25,4.5,2.5,2.0,3.25,0.14,0.02,0.95,1098.42,-5.6,19.7
2.1,0.0,0.0,0.0,0.0,0.0,0.0,2.0,0.0,0.5,0.0,0.75,0.25,0.5,-0.48,-0.36,0.83,0.0,13.6,-44.7,6.25,3.0,6.5,9.75,11.0,8.25,5.5,5.25,3.25,4.5,2.5,1.75,3.0,0.08,0.08,0.95,1154.13,-6.0,21.9
2.12,0.0,0.25,0.0,0.25,0.0,0.25,2.25,0.0,0.5,0.0,0.5,0.0,0.25,-0.48,-0.23,0.89,0.0,14.6,-1.8,7.25,3.25,6.5,11.5,12.0,8.25,5.5,5.5,3.0,4.5,1.75,1.75,3.25,0.08,0.08,0.95,1238.1,-6.3,25.0
2.14,0.0,0.25,0.0,0.25,3.0,0.25,2.25,0.0,0.25,0.0,0.5,0.0,0.5,-0.42,-0.05,1.02,0.0,4.1,24.6,8.0,4.0,7.0,11.5,12.0,8.75,5.5,5.25,2.5,3.5,2.25,1.25,2.25,0.08,0.08,0.95,1302.99,-7.3,31.0
2.16,0.0,0.25,0.0,0.25,1.75,0.5,1.5,0.0,0.5,0.0,0.25,0.0,0.5,-0.36,0.14,1.08,47.9,3.0,18.2,8.25,4.0,7.5,13.0,13.5,8.75,5.0,5.25,2.25,4.0,2.5,1.25,2.75,0.08,0.14,0.95,1366.45,-7.2,30.7
2.18,0.0,0.0,0.0,0.25,0.0,0.25,2.25,0.0,0.25,0.0,0.5,0.0,0.25,-0.42,0.2,1.33,59.19,15.1,-8.4,9.0,4.0,7.5,13.5,13.5,8.75,5.0,5.25,2.5,4.25,2.0,1.0,3.0,0.02,0.14,1.02,1416.83,-7.4,31.6
2.2,0.0,0.25,0.0,0.0,2.25,0.25,2.0,0.0,0.25,0.0,0.5,0.0,0.5,-0.55,0.33,1.77,65.74,4.0,18.2,9.0,3.75,7.5,15.0,15.0,9.0,4.25,5.25,1.75,4.0,2.0,1.0,2.5,0.08,0.2,1.02,1461.05,-7.3,34.3
2.22,0.0,0.5,0.0,0.25,2.25,0.25,2.0,0.0,0.25,0.0,0.25,0.0,0.25,-0.73,0.52,2.14,72.24,5.6,34.5,10.5,4.75,8.0,15.0,15.0,8.75,4.0,5.25,1.0,4.0,2.0,1.0,2.75,0.02,0.2,1.08,1502.33,-8.0,36.6
2.24,0.0,0.5,0.0,0.25,0.0,0.25,2.0,0.0,0.25,0.0,0.5,0.0,0.25,-1.17,1.2,2.77,68.33,13.9,8.8,11.0,5.0,8.25,15.0,15.0,9.0,2.25,5.25,0.75,3.25,2.0,1.0,3.0,0.08,0.27,1.14,1530.63,-8.0,38.1
2.26,0.0,0.5,0.0,0.25,0.0,0.25,2.0,0.0,0.0,1.25,0.5,0.5,0.25,-1.3,2.64,2.95,67.42,5.1,-25.4,11.5,4.0,7.0,13.0,15.5,7.75,2.75,5.25,0.25,1.5,0.5,0.25,3.0,0.2,0.33,1.27,1491.43,-8.3,43.8
2.28,0.5,0.5,0.0,1.0,1.25,1.5,2.5,0.25,0.75,1.25,1.0,1.0,0.0,-1.36,3.64,1.39,97.74,4.5,0.0,10.0,3.0,2.75,11.5,13.5,8.0,3.0,3.5,0.75,1.5,0.5,0.75,2.5,0.33,0.39,1.39,1366.64,-6.6,41.3
2.3,0.0,0.5,1.25,1.25,3.5,1.75,2.5,1.0,0.75,1.5,2.5,1.25,2.0,-0.48,5.33,0.02,163.77,2.2,-11.3,11.0,3.25,7.5,12.5,13.5,8.25,3.0,2.25,1.0,3.25,2.0,1.0,2.5,0.39,0.52,1.58,1306.37,-9.2,39.2
2.32,0.5,0.5,1.5,0.25,3.5,0.25,2.5,1.5,0.0,0.25,1.75,0.0,1.5,1.45,6.83,-1.11,200.13,5.6,6.7,9.75,4.5,7.25,10.5,12.0,7.75,3.5,3.25,1.0,1.5,1.75,0.0,2.25,0.89,0.83,1.89,1201.24,-9.4,43.5
2.34,0.0,0.25,0.0,0.25,0.0,0.25,1.5,0.25,0.5,0.75,1.25,0.25,0.75,4.95,3.14,4.58,186.01,3.9,-42.4,7.75,2.5,6.25,6.25,9.0,6.25,2.25,2.25,0.0,0.0,0.25,0.0,1.5,0.7,0.89,3.02,989.98,-10.2,50.8
2.36,0.0,0.25,0.0,0.0,0.0,1.0,2.0,1.25,0.75,1.5,1.25,2.0,2.0,-0.36,-0.8,-0.48,179.9,-1.8,-58.9,5.25,1.25,4.75,3.25,6.5,1.25,1.25,1.25,0.5,0.0,0.0,0.0,0.5,1.08,0.52,2.27,678.27,-14.5,55.2
2.38,0.0,0.25,0.0,0.5,3.75,1.0,2.5,2.25,0.5,2.25,1.25,3.75,4.25,0.52,-0.17,1.77,214.62,-3.0,-41.9,1.75,0.75,2.0,0.5,1.5,0.5,1.0,1.25,0.5,0.0,0.0,0.0,0.0,0.33,-0.36,1.89,353.69,-14.7,47.4
2.4,0.0,0.0,0.0,0.75,0.0,1.75,1.25,2.5,1.25,5.0,1.75,6.5,6.25,1.02,0.33,1.52,283.31,-4.6,-73.9,1.25,0.75,3.0,1.75,3.75,0.75,0.75,1.25,0.75,1.5,0.0,0.0,0.5,0.02,-0.05,2.64,194.17,-8.5,31.0
2.42,0.5,0.75,1.0,1.25,3.5,3.75,3.25,5.5,1.75,6.5,4.0,7.5,8.0,0.02,0.77,1.58,441.95,-2.9,-46.6,2.25,0.75,2.5,2.0,5.5,2.75,1.25,1.25,0.75,1.5,0.5,1.0,1.5,0.89,-1.36,3.2,123.86,-4.8,21.1
2.44,0.0,0.5,0.25,0.5,3.75,2.75,1.75,5.5,2.5,6.5,4.25,6.75,7.25,-0.11,-0.11,0.95,584.49,-4.3,-53.2,1.75,1.5,2.5,1.5,5.5,0.25,1.25,1.25,0.25,1.0,0.5,0.0,0.75,1.14,-1.17,1.39,106.53,-8.5,36.7
2.46,1.0,1.25,0.0,2.75,5.75,5.0,4.5,6.25,3.0,7.75,4.75,7.75,8.75,-0.11,0.08,0.95,775.74,-2.7,-38.0,1.25,0.0,1.75,1.25,3.75,0.0,0.75,0.5,0.5,0.75,0.0,0.0,0.25,0.58,-0.48,0.39,75.84,-10.1,38.1
2.48,0.25,0.5,2.0,0.75,4.5,5.0,4.75,6.25,2.75,7.75,3.5,8.25,8.0,-0.17,-0.05,0.95,870.7,-2.7,-42.9,0.5,0.75,1.75,1.25,3.75,0.25,0.75,0.0,0.5,0.75,0.25,0.0,0.0,0.14,-0.36,0.14,50.33,-9.8,43.0
2.5,0.5,0.0,2.25,2.75,3.75,5.75,5.0,7.25,3.25,8.5,5.25,8.25,9.0,-0.11,0.02,0.95,984.99,-2.0,-42.3,0.75,0.75,1.75,0.5,3.5,0.5,0.75,0.25,0.5,0.75,0.0,0.25,0.5,-0.05,-0.17,0.45,31.55,-7.7,32.7
2.52,1.25,0.0,2.25,3.0,4.5,6.5,5.0,7.25,3.5,8.0,5.0,7.5,9.0,-0.17,-0.05,0.95,1037.97,-1.8,-36.7,0.5,0.75,1.75,1.0,3.25,0.5,0.75,0.0,0.5,1.0,0.0,0.25,0.5,-0.11,-0.17,0.58,30.85,-7.9,31.2
2.54,1.75,0.75,2.25,3.0,6.5,6.5,5.25,7.5,3.5,7.75,5.0,7.0,8.25,-0.17,-0.05,0.95,1095.82,-1.2,-29.0,0.5,0.75,1.75,1.0,3.0,1.25,0.75,0.0,0.5,0.75,0.0,0.0,0.5,0.08,-0.23,0.77,45.15,-6.7,36.5
2.56,1.75,0.75,2.25,3.25,5.5,7.0,5.25,7.5,3.5,7.75,4.5,6.75,8.0,-0.17,-0.05,0.95,1111.88,-1.4,-28.7,0.5,0.75,1.75,1.25,3.0,1.0,0.75,0.0,0.5,1.25,0.0,0.25,0.5,0.2,-0.11,0.89,88.6,-6.6,29.0
2.58,2.0,0.25,2.5,3.0,6.5,7.0,5.25,7.5,3.25,7.0,4.0,5.75,7.25,-0.17,0.02,0.95,1086.48,-1.3,-24.3,0.25,0.75,1.25,1.25,2.75,1.25,0.75,0.0,0.5,1.25,0.0,0.25,0.5,0.14,-0.05,1.02,125.17,-4.1,25.5
2.6,2.0,0.0,2.25,3.0,6.5,7.25,5.25,7.5,3.25,6.5,4.0,5.0,6.25,-0.17,-0.05,0.95,1013.51,-1.4,-21.8,0.25,0.75,0.5,0.75,2.25,1.25,0.75,0.0,0.5,1.25,0.0,0.25,0.5,0.14,0.14,1.27,137.34,-0.9,18.7
2.62,1.75,0.75,2.25,3.0,6.5,7.5,5.25,7.75,3.25,6.5,3.75,4.75,5.75,-0.17,-0.05,0.95,944.74,-1.5,-19.1,0.25,0.5,1.0,0.5,2.5,0.5,0.75,0.0,0.25,0.5,0.0,0.0,0.5,0.2,0.33,1.52,128.83,-5.8,33.4
2.64,1.75,0.75,2.5,3.75,6.5,7.5,5.25,7.75,3.25,5.75,3.75,3.5,5.25,-0.17,0.02,0.95,886.23,-1.0,-14.0,0.25,0.0,0.5,0.5,1.75,1.0,0.75,0.0,0.25,1.25,0.25,0.0,0.0,0.39,0.52,1.89,101.03,-0.9,17.7
2.66,2.25,0.5,2.5,3.25,6.75,8.0,5.25,7.75,3.25,5.0,2.5,3.25,4.25,-0.17,0.02,0.95,826.68,-1.0,-8.8,0.25,0.0,0.5,0.5,1.75,0.5,0.75,0.0,0.25,1.25,0.0,0.25,0.5,0.64,0.95,2.52,84.61,-1.4,4.8
2.68,2.5,1.5,2.5,3.0,7.25,8.5,5.25,7.75,3.25,5.0,2.0,3.0,4.0,-0.17,0.02,0.95,804.14,-1.0,-4.0,0.0,0.75,0.5,0.5,1.75,0.5,0.75,0.0,0.25,1.0,0.0,0.0,0.5,0.77,1.83,2.7,84.67,-2.0,20.3
2.7,2.5,1.75,2.5,3.75,7.75,9.0,5.25,7.75,3.25,5.0,2.75,2.5,4.0,-0.17,-0.05,0.89,797.34,-0.8,-1.7,0.25,0.0,0.5,0.5,1.25,0.25,0.75,0.0,0.25,1.5,0.0,0.0,0.5,0.95,3.02,2.77,82.4,-1.9,0.0
2.72,2.75,2.0,2.5,5.0,8.5,9.25,5.5,8.0,3.75,4.75,2.75,2.0,3.25,-0.17,0.02,0.95,830.37,0.0,3.6,0.25,0.0,1.25,0.5,0.5,0.25,0.75,0.0,0.5,1.25,0.0,0.0,0.0,1.14,4.2,1.27,73.94,-11.5,13.5
2.74,2.5,1.75,2.5,5.25,8.75,10.0,5.5,8.25,3.75,5.0,1.75,2.0,2.5,-0.17,-0.05,0.95,854.88,-0.6,6.0,0.0,0.0,1.75,0.5,1.0,0.5,0.75,0.0,0.25,1.25,0.0,0.0,0.0,0.58,5.45,-1.3,71.98,-10.0,21.3
2.76,3.5,1.75,2.5,5.25,10.0,10.5,5.75,8.25,4.0,4.75,2.75,2.0,2.25,-0.17,-0.05,0.95,909.7,0.0,8.1,0.25,0.0,0.75,0.5,0.5,0.5,0.25,0.25,0.25,1.25,1.0,0.25,0.5,-5.05,7.89,2.27,72.57,-3.6,-19.4
2.78,4.25,2.25,3.0,6.25,11.5,11.0,6.0,8.25,4.0,4.75,2.75,2.0,2.25,-0.17,-0.05,0.95,991.82,0.9,12.4,0.25,0.25,0.5,0.25,0.25,1.25,0.25,1.0,0.5,2.5,0.25,1.5,0.5,0.89,-0.42,1.83,90.96,3.2,-36.4
2.8,5.5,2.25,4.5,7.0,13.0,12.0,6.25,8.25,4.0,4.5,2.75,2.0,2.25,-0.17,-0.05,1.02,1118.12,2.1,16.9,0.25,0.75,0.75,0.0,0.0,0.25,0.25,1.25,0.25,3.0,0.75,3.0,3.25,-0.48,0.33,0.2,135.65,2.2,-64.0
2.82,6.25,2.25,4.75,8.25,14.5,12.0,6.5,8.25,4.0,4.25,2.75,2.0,2.25,-0.17,0.02,1.02,1260.43,2.7,19.6,0.5,0.75,1.5,0.0,1.5,1.25,0.5,1.25,1.25,5.0,1.5,5.25,5.5,-0.17,0.33,6.39,228.0,1.5,-55.2
2.84,7.25,3.75,5.5,9.25,15.5,12.5,6.25,8.0,3.75,3.75,2.75,2.0,2.25,-0.17,0.08,1.02,1385.46,3.7,24.4,1.25,0.75,0.75,0.5,2.25,2.75,0.75,0.0,2.0,6.25,4.0,6.5,7.0,0.2,0.52,1.27,335.35,1.1,-53.1
2.86,9.0,3.75,6.0,11.0,16.0,13.0,6.25,8.0,3.25,3.75,2.5,2.0,2.25,-0.17,0.14,1.14,1492.64,4.5,27.7,1.25,1.0,1.75,1.5,2.5,3.75,1.25,3.0,2.5,7.0,5.0,6.5,8.0,-0.05,0.08,1.08,498.25,1.2,-45.0
2.88,10.0,4.25,5.75,11.0,16.5,13.0,6.0,7.75,2.75,2.75,2.5,2.0,2.25,-0.3,0.14,1.2,1569.73,5.0,30.7,1.25,0.75,1.75,1.25,3.5,3.75,1.75,3.25,2.5,6.75,5.0,6.5,8.0,0.08,0.02,0.95,642.48,1.2,-43.4
2.9,11.5,5.0,6.25,10.5,16.5,12.0,5.25,7.5,2.5,2.75,2.5,2.0,2.25,-0.42,0.2,1.45,1618.62,5.9,32.8,1.25,0.75,1.75,1.5,3.75,3.75,2.0,4.0,3.0,7.0,5.0,6.5,8.0,0.14,0.02,0.95,754.2,1.2,-42.1
2.92,11.5,5.0,6.5,9.0,15.5,10.5,5.25,7.25,1.75,2.75,2.5,1.75,2.25,-0.42,0.27,1.64,1605.4,6.4,33.4,1.25,0.75,1.75,1.5,3.75,3.75,2.0,4.0,3.25,7.0,5.5,6.5,7.75,0.08,0.02,0.95,814.61,1.0,-42.0
2.94,12.0,4.75,6.5,8.25,14.5,9.25,5.25,6.5,1.5,2.75,2.0,1.75,2.25,-0.86,0.52,1.95,1551.33,7.2,34.7,2.5,2.25,1.75,2.0,3.75,5.0,2.0,4.5,3.75,7.75,5.5,7.25,8.0,0.14,0.02,0.95,887.09,0.3,-34.2
2.96,9.75,3.75,5.5,5.5,10.5,7.25,5.0,5.5,1.5,2.75,2.0,1.0,2.0,-0.86,0.77,3.02,1391.01,7.4,32.1,2.5,2.25,2.0,2.0,5.5,5.75,3.0,5.0,3.75,7.5,6.5,7.25,8.5,0.14,0.02,0.95,965.01,0.2,-30.7
2.98,5.75,1.25,2.5,2.25,6.75,5.0,2.75,3.25,0.75,0.0,1.5,0.25,1.0,-1.17,0.39,2.39,1002.54,6.5,35.9,2.75,2.5,3.5,2.0,5.75,5.75,3.75,5.25,4.5,7.0,6.5,6.25,8.0,0.08,0.02,0.95,1035.72,-1.2,-24.5
3.0,1.25,0.25,1.25,0.0,3.5,3.0,0.25,0.25,0.75,0.0,0.5,0.25,0.75,-0.92,-0.36,1.83,537.42,1.6,28.5,3.0,2.5,4.0,2.5,6.25,6.0,3.5,5.25,4.5,7.0,6.75,6.5,8.0,0.08,0.02,0.95,1094.14,-1.6,-22.4
3.02,1.0,0.25,0.75,0.75,3.5,2.25,1.5,0.25,0.75,0.0,0.5,0.25,0.75,0.2,0.14,1.08,260.73,3.4,27.3,1.75,2.5,4.5,3.5,6.0,6.25,4.0,5.5,4.5,7.0,5.75,5.0,7.75,0.14,0.02,0.95,1103.52,-1.2,-19.4
3.04,0.0,0.5,0.75,1.0,3.5,1.75,1.25,0.0,0.5,0.0,0.5,0.25,0.5,-0.8,-1.05,3.33,84.06,2.7,29.7,2.0,1.75,3.25,2.0,6.25,6.0,4.75,5.5,4.5,6.5,5.5,4.75,6.0,0.14,0.02,0.95,1043.44,-0.8,-20.1
3.06,0.25,0.0,0.25,0.0,3.5,0.75,0.75,0.0,0.5,0.0,0.5,0.25,0.5,-1.11,-1.23,1.45,0.0,0.8,20.3,3.75,2.5,4.75,4.25,6.5,6.75,4.75,5.25,4.5,5.75,5.0,4.0,6.0,0.14,0.02,0.95,1016.92,-3.2,-7.3
3.08,0.0,0.25,0.25,0.25,3.0,0.5,1.25,0.0,0.5,0.0,0.5,0.25,0.5,-0.67,-0.67,0.45,0.0,2.9,19.1,3.75,2.5,4.75,4.5,7.0,7.0,5.0,5.25,4.5,5.5,4.25,3.75,5.0,0.14,0.02,0.95,995.34,-3.4,-2.9
3.1,0.0,0.5,0.0,0.75,2.5,1.0,1.25,0.0,0.25,0.0,0.25,0.5,0.25,-0.42,-0.48,0.08,0.0,2.1,27.1,4.0,2.5,4.75,5.5,8.0,7.0,5.5,5.25,4.5,5.5,4.0,2.75,4.75,0.14,0.02,0.95,1005.81,-3.7,2.0
3.12,0.0,0.5,0.0,0.5,1.75,1.75,0.75,0.0,0.25,0.0,0.5,0.25,0.25,-0.3,-0.36,0.14,0.0,-1.6,24.4,5.25,2.5,5.75,6.25,8.0,7.5,5.5,5.25,4.25,4.75,3.75,2.5,3.5,0.14,0.02,0.95,1026.54,-5.3,9.8
3.14,0.0,0.5,0.0,0.25,0.75,0.25,1.25,0.0,0.5,0.0,0.5,0.25,0.0,-0.36,-0.36,0.39,0.0,9.6,14.6,5.5,2.75,6.25,6.75,9.0,7.5,5.75,5.25,3.75,4.5,3.0,2.5,3.25,0.14,0.02,0.95,1056.15,-5.7,14.2
3.16,0.0,0.25,0.0,0.5,3.0,1.25,1.25,0.0,0.25,0.0,0.5,0.25,0.25,-0.42,-0.42,0.89,0.0,0.0,27.0,5.75,3.0,6.25,8.0,9.25,7.75,6.0,5.25,3.75,4.75,2.75,2.0,3.25,0.14,0.02,1.02,1086.08,-5.9,16.9
3.18,0.0,0.25,0.0,0.0,3.5,1.0,1.25,0.0,0.25,0.0,0.5,0.0,0.25,-0.48,-0.3,0.95,0.0,-1.1,31.6,6.5,3.0,6.5,9.75,9.5,7.75,6.0,5.25,3.75,4.5,2.75,2.0,3.25,0.14,0.02,0.95,1130.44,-6.6,19.5
3.2,0.0,0.25,0.0,0.0,0.0,1.0,1.25,0.0,0.25,0.0,0.5,0.25,0.25,-0.42,-0.11,0.89,1.48,2.6,-9.0,7.25,3.5,7.5,10.0,11.0,8.0,6.25,5.25,3.5,4.5,2.75,1.75,3.25,0.08,0.08,0.95,1207.89,-7.1,23.1
3.22,0.0,0.5,0.0,0.25,0.0,0.75,1.75,0.0,0.25,0.0,0.5,0.25,0.25,-0.36,0.08,0.95,34.3,8.1,3.2,8.25,4.0,7.5,11.5,12.0,8.25,6.0,5.25,3.25,4.5,2.75,1.75,3.25,0.08,0.08,0.95,1307.9,-7.4,25.9
3.24,0.0,0.25,0.0,0.0,0.0,1.0,1.5,0.0,0.25,0.0,0.5,0.75,0.5,-0.3,0.2,1.27,44.74,3.2,-27.3,9.0,4.0,8.25,13.0,13.0,8.25,6.0,5.25,3.25,4.5,2.25,1.5,3.25,0.08,0.08,0.95,1391.41,-7.9,28.9
3.26,0.0,0.5,0.0,0.0,2.5,0.5,2.0,0.0,0.0,0.5,0.5,0.25,0.25,-0.3,0.27,1.64,56.77,2.0,18.6,9.5,4.0,8.5,13.5,13.5,8.25,5.75,5.25,2.5,4.0,2.5,0.75,3.25,0.08,0.14,1.08,1456.89,-8.2,32.0
3.28,0.0,0.25,0.0,0.25,3.0,1.0,1.75,0.0,0.0,0.5,0.5,0.0,0.25,-0.42,0.45,1.95,76.46,-0.6,25.5,10.0,4.75,8.5,14.0,14.0,8.5,5.5,4.5,2.25,3.25,1.75,1.0,2.0,0.02,0.14,1.08,1494.7,-9.1,38.1
3.3,0.0,0.25,0.0,0.25,3.0,0.75,1.75,0.0,0.0,0.0,0.5,0.25,0.25,-0.61,0.7,2.58,95.38,1.7,27.8,11.0,5.0,9.0,15.0,14.0,8.75,4.5,5.0,1.5,3.5,2.0,1.0,2.75,-0.05,0.2,1.14,1524.63,-9.0,37.6
3.32,0.0,0.5,0.0,0.25,3.0,0.75,1.5,0.0,0.0,0.0,0.5,0.25,0.25,-0.86,1.7,3.02,104.43,1.5,30.5,11.5,4.0,8.75,15.0,15.0,8.5,4.25,4.75,1.75,1.5,2.0,1.0,2.75,0.2,0.27,1.33,1535.37,-9.6,40.2
3.34,0.0,0.25,0.0,0.25,3.5,0.75,1.5,0.0,0.0,0.0,0.5,0.25,0.25,-0.98,2.64,3.02,110.1,0.7,29.9,10.0,3.0,0.0,11.5,15.0,7.75,3.0,4.0,0.75,1.25,2.0,0.75,2.75,0.33,0.33,1.39,1417.54,-4.9,37.3
3.36,0.0,0.25,0.0,0.25,2.5,1.0,2.0,0.0,0.75,0.25,0.25,0.5,0.25,-1.11,4.39,1.95,114.69,2.2,14.4,9.75,2.0,8.0,11.0,12.0,7.5,3.5,0.0,0.75,0.75,0.5,0.75,1.5,0.27,0.45,1.52,1270.83,-11.9,50.5
3.38,0.5,0.5,0.0,0.5,3.0,0.25,2.0,0.0,0.0,0.0,0.5,0.0,0.25,-0.55,6.39,-2.42,117.65,6.9,40.8,9.0,3.75,8.0,9.75,10.5,7.0,3.5,2.75,1.25,0.75,0.5,1.0,1.5,0.64,0.7,1.7,1102.24,-10.9,45.7
3.4,0.0,0.25,0.0,0.0,0.0,0.25,1.5,0.25,0.25,0.5,0.5,0.25,0.75,4.58,6.45,0.14,99.34,2.4,-41.0,8.25,2.5,7.5,6.5,9.0,6.25,3.0,2.25,0.75,0.5,0.5,0.25,1.5,0.7,1.02,3.02,919.81,-11.2,47.2
3.42,0.75,0.5,0.0,0.25,0.0,2.5,1.75,0.25,0.75,2.5,1.25,1.25,1.25,-1.17,-0.67,2.58,123.42,-1.6,-30.0,6.0,2.0,5.5,4.25,6.5,2.75,2.0,1.75,0.25,0.0,0.0,0.25,0.25,0.95,0.64,2.33,676.86,-13.8,55.4
3.44,0.25,0.5,0.0,1.0,0.0,1.75,2.0,2.0,0.75,2.75,1.5,4.25,2.25,0.58,0.58,1.95,176.24,-1.1,-51.7,3.25,1.0,2.75,0.5,4.5,0.0,1.5,1.0,0.5,0.0,0.0,0.25,0.25,0.83,-0.23,2.02,400.95,-15.0,51.2
3.46,0.5,0.5,0.0,2.25,0.0,3.0,1.75,2.25,1.0,5.0,3.0,5.25,5.5,0.95,0.14,1.64,269.02,-2.6,-53.9,2.75,1.75,4.0,2.75,3.25,2.75,1.5,1.0,0.75,1.5,0.0,1.0,1.25,0.27,0.39,1.89,273.8,-9.6,30.2
3.48,0.0,0.5,0.0,2.75,3.5,3.5,3.25,5.0,2.25,5.0,3.25,6.75,6.25,0.27,1.08,1.95,395.54,-2.7,-42.8,2.0,1.75,3.25,3.0,5.25,2.75,1.75,1.25,0.75,0.0,0.75,1.0,1.5,0.52,-0.61,3.27,205.55,-8.0,31.0
3.5,0.75,1.25,0.0,2.5,3.75,4.25,3.75,4.5,2.75,6.25,3.75,7.5,7.25,0.02,-0.17,1.02,566.25,-2.1,-40.5,1.25,1.75,3.0,2.0,5.5,0.5,1.75,1.25,0.75,0.0,0.75,1.0,0.75,1.14,-1.48,1.58,174.52,-10.2,32.3
3.52,0.75,1.5,0.0,2.75,3.75,5.0,4.5,5.5,2.75,6.5,5.0,7.5,8.25,-0.05,0.02,1.02,730.73,-2.2,-40.2,0.5,0.75,1.75,1.25,3.75,1.5,0.75,0.25,0.5,0.5,0.0,0.25,0.0,0.89,-0.73,0.83,124.3,-6.5,42.1
3.54,1.0,1.25,1.0,2.75,4.25,5.0,4.5,6.0,3.0,7.25,5.0,7.75,8.5,-0.17,-0.05,0.95,867.0,-1.6,-38.5,0.5,0.75,1.75,1.5,3.75,1.25,1.0,0.25,0.5,1.0,0.0,0.25,0.25,0.39,-0.42,0.33,89.87,-6.3,34.8
3.56,1.0,0.75,1.0,2.75,3.75,5.0,4.5,6.25,2.5,7.5,5.0,7.75,8.75,-0.11,0.02,0.95,951.74,-2.1,-41.3,0.5,0.75,1.75,1.5,3.5,1.25,1.0,0.25,0.5,0.0,0.0,0.25,0.5,0.08,-0.23,0.2,62.18,-7.9,40.6
3.58,0.75,1.0,2.25,2.75,4.75,5.0,2.5,6.25,3.0,7.75,4.75,7.75,8.75,-0.17,-0.05,0.89,1004.15,-1.8,-38.1,0.5,0.75,1.75,1.25,3.0,1.25,0.75,0.0,0.5,1.0,0.0,0.25,0.5,-0.05,-0.11,0.39,64.84,-6.5,31.4
3.6,1.25,1.0,2.25,2.75,5.75,5.0,4.5,6.75,3.25,7.75,5.0,7.5,8.75,-0.17,-0.05,0.95,1045.44,-1.1,-34.1,0.25,0.75,1.75,1.25,2.5,1.25,0.75,0.0,0.5,0.0,0.0,0.0,0.25,0.02,-0.17,0.7,61.56,-9.3,47.5
3.62,1.0,1.25,2.25,2.75,6.5,5.5,4.5,7.0,3.25,7.75,5.0,7.5,8.25,-0.17,0.02,0.95,1070.57,-1.3,-31.6,0.25,0.75,1.75,1.5,3.0,1.25,0.75,0.0,0.5,0.0,0.0,0.25,0.5,0.2,-0.17,0.89,78.74,-8.2,40.6
3.64,1.0,1.25,2.25,2.75,6.5,6.25,4.5,7.25,3.25,7.5,5.0,7.0,8.0,-0.17,-0.05,0.95,1071.85,-1.6,-29.7,0.25,0.75,1.75,1.25,2.5,1.25,0.75,0.0,0.5,0.0,0.0,1.0,0.5,0.33,-0.05,0.89,101.23,-8.7,28.9
3.66,1.75,1.0,2.25,2.75,6.5,6.5,4.5,7.25,3.25,7.25,4.75,6.75,8.0,-0.17,-0.05,0.95,1044.62,-1.4,-27.9,0.0,0.75,1.75,0.5,1.75,0.75,0.75,0.0,0.5,0.0,0.0,0.25,0.5,0.27,0.08,1.08,108.45,-10.4,34.4
3.68,1.25,1.25,2.25,2.75,6.5,7.0,4.5,7.5,3.25,6.5,4.5,6.0,7.25,-0.17,-0.05,0.95,996.33,-1.7,-24.9,0.5,0.75,1.5,0.75,2.5,1.25,0.75,0.0,0.5,0.0,0.0,0.25,0.5,0.27,0.2,1.33,115.7,-8.0,39.3
3.7,1.75,1.5,2.25,3.0,6.5,7.5,4.75,7.75,3.25,6.5,4.5,5.75,7.0,-0.17,0.02,0.95,957.78,-1.4,-21.9,0.25,0.75,1.75,0.75,1.75,1.25,0.75,0.0,0.5,0.0,0.0,0.25,0.5,0.39,0.39,1.64,105.54,-9.4,36.8
3.72,1.75,0.75,2.25,3.0,6.5,7.5,4.75,7.75,3.5,6.0,4.5,5.0,6.25,-0.17,-0.05,0.95,913.04,-1.4,-20.8,1.25,0.75,2.0,0.75,3.75,1.25,0.75,0.0,0.5,0.75,0.0,0.0,0.75,0.52,0.58,1.95,132.41,-7.6,38.1
3.74,1.75,0.5,2.25,3.0,6.5,8.5,4.75,7.75,3.75,5.75,3.75,4.75,5.5,-0.17,-0.05,0.95,880.48,-1.7,-18.0,0.0,0.75,1.25,0.5,1.25,1.25,0.75,0.0,0.5,2.5,0.0,1.25,0.75,0.7,0.77,2.52,144.76,-1.4,-10.9
3.76,2.0,1.25,2.5,3.0,6.75,8.75,5.0,8.0,3.75,5.25,3.0,3.5,5.25,-0.17,-0.05,0.95,852.87,-1.5,-11.2,1.25,1.25,0.0,1.25,1.5,1.25,0.75,0.0,0.5,2.75,0.0,0.0,1.0,1.02,1.52,2.89,162.64,-0.6,10.6
3.78,2.25,1.75,2.25,4.25,8.0,9.0,5.25,8.0,3.75,5.0,2.75,3.25,4.0,-0.17,-0.05,0.95,853.57,-0.8,-3.4,1.5,1.75,2.0,2.0,3.75,2.75,1.0,0.0,0.75,1.0,0.0,0.0,1.25,1.08,2.58,2.27,197.06,-5.8,36.5
3.8,3.0,2.0,2.5,5.25,8.5,9.75,5.25,8.0,4.0,5.0,3.0,2.0,3.0,-0.17,-0.05,0.95,877.38,0.0,4.1,0.25,0.75,0.75,0.25,0.5,1.25,0.75,0.0,0.5,0.75,0.0,0.0,1.25,1.08,4.08,1.64,177.94,-1.6,3.8
3.82,3.5,2.0,2.5,5.5,9.75,10.0,5.5,8.0,3.75,4.75,3.0,2.0,2.5,-0.17,-0.05,0.95,915.92,0.3,7.8,1.5,0.75,1.75,0.5,0.5,1.25,0.75,0.0,0.5,2.25,0.75,1.0,0.5,0.27,5.39,-0.92,178.82,-8.6,2.1
3.84,3.75,2.0,3.0,6.0,11.5,11.0,5.75,8.0,3.5,4.25,2.75,2.0,2.25,-0.17,0.02,1.02,975.56,0.5,12.5,0.25,0.75,2.0,0.75,3.75,1.25,0.75,0.0,0.5,1.0,0.0,0.25,1.0,-2.48,6.58,-0.42,175.72,-4.7,25.4
3.86,5.25,2.75,4.0,7.0,13.0,11.0,5.75,8.0,3.75,4.0,3.0,2.0,2.25,-0.17,-0.05,1.02,1077.31,2.2,17.4,0.25,0.75,1.5,0.5,1.0,2.75,0.75,0.5,0.25,3.0,1.5,1.0,0.5,-2.86,4.14,1.02,187.18,0.0,-10.5
3.88,5.75,3.5,4.5,8.0,14.5,12.0,6.0,8.0,3.5,3.0,2.75,2.0,2.25,-0.17,0.02,1.02,1203.0,2.8,22.4,0.25,0.75,0.75,0.25,0.5,0.0,0.75,1.25,0.0,2.75,0.5,1.75,0.75,3.08,-5.3,2.02,176.02,-0.7,-36.7
3.9,7.0,3.5,4.75,8.75,15.5,12.5,5.75,8.0,3.25,3.0,2.75,2.0,2.25,-0.17,0.08,1.08,1328.16,3.2,24.7,0.25,0.75,1.25,0.5,0.0,0.0,0.5,1.25,0.0,4.25,0.75,4.25,4.0,-0.3,0.58,-1.55,209.23,0.8,-63.8
3.92,7.75,3.5,3.75,10.5,16.0,13.0,5.5,7.75,3.0,3.5,2.5,2.0,2.25,-0.17,0.14,1.08,1413.8,3.0,26.0,0.5,0.75,1.25,0.5,1.5,0.5,0.5,1.25,0.75,5.75,2.25,5.75,7.0,-0.8,0.27,2.02,273.1,1.8,-61.7
3.94,9.5,4.0,6.25,11.5,16.5,13.0,5.5,7.75,2.75,3.25,2.5,1.75,2.25,-0.23,0.14,1.14,1506.93,4.8,30.3,1.5,1.5,1.25,0.5,0.5,0.0,0.75,2.0,2.0,7.25,4.0,6.5,8.75,0.64,0.08,4.52,375.7,0.3,-62.1
3.96,9.5,3.75,6.25,9.25,17.0,12.0,4.75,6.75,1.75,1.5,1.5,1.0,2.0,-0.3,0.14,1.27,1520.52,5.2,36.7,1.25,1.75,2.0,0.0,3.75,5.25,0.75,2.75,2.5,7.0,6.5,7.25,8.5,-0.05,0.33,1.2,547.17,1.7,-43.3
3.98,10.5,4.5,6.25,8.75,14.5,10.5,3.75,6.5,1.5,3.0,2.5,1.5,2.25,-0.36,0.27,1.33,1505.46,5.9,32.8,1.25,0.0,1.75,0.5,1.5,3.0,0.0,4.0,2.5,7.5,5.25,7.0,8.5,0.14,0.02,0.95,670.12,2.5,-57.9
4.0,12.5,5.25,6.25,8.75,15.5,10.5,4.0,6.75,1.5,2.75,2.0,1.75,2.25,-0.36,0.33,1.52,1492.24,6.5,35.6,1.25,0.75,1.75,1.25,3.0,3.5,1.25,4.0,2.5,7.75,5.5,6.75,8.5,0.14,0.02,0.95,763.5,1.8,-47.3
4.02,12.5,5.25,6.25,7.75,13.5,9.25,4.75,6.0,1.25,2.5,2.0,1.75,2.25,-0.73,0.64,2.02,1450.75,7.6,36.1,1.25,0.75,1.75,1.25,3.0,2.75,1.25,4.0,2.5,7.75,5.75,6.75,8.5,0.08,0.02,0.95,798.73,1.4,-48.7
4.04,10.5,4.0,5.5,4.75,10.0,6.75,4.0,5.0,0.5,0.5,2.0,0.25,2.0,-0.92,0.77,2.77,1293.37,8.8,40.9,1.25,0.75,1.75,1.25,3.5,3.75,1.75,4.25,2.5,7.5,5.0,6.5,8.5,0.14,0.02,0.95,830.94,1.9,-44.5
4.06,6.25,1.25,2.25,1.75,6.75,4.5,1.75,2.25,0.5,1.25,1.25,0.5,1.0,-1.17,0.52,2.64,909.0,6.3,34.7,2.0,2.25,2.75,2.0,5.0,5.5,2.25,5.25,3.5,7.75,6.5,7.25,9.25,0.14,0.02,0.95,902.82,0.4,-33.1
4.08,2.5,0.0,0.0,1.0,3.5,3.5,0.75,1.75,0.75,0.0,0.5,0.5,1.0,-0.92,-0.36,1.95,505.95,-0.1,21.0,2.75,1.0,1.75,1.75,3.75,5.75,2.75,5.25,3.25,7.0,6.0,6.0,8.5,0.08,0.02,0.95,930.53,1.0,-34.7
4.1,0.0,0.0,0.0,0.25,3.5,2.5,0.5,0.25,0.5,0.0,0.25,0.25,0.5,-0.36,0.7,1.14,237.56,-6.4,21.7,2.5,2.5,3.25,2.0,6.25,6.25,3.0,6.0,3.75,7.5,5.75,6.0,8.5,0.14,0.02,0.95,995.58,0.2,-24.7
4.12,0.0,0.5,0.0,0.25,1.25,2.0,1.25,0.0,0.5,0.0,0.25,0.25,0.5,-0.67,-0.42,3.27,46.53,-2.2,16.6,2.5,2.5,4.0,3.0,6.25,6.25,3.5,6.0,3.75,7.0,5.0,5.25,7.75,0.14,0.02,0.95,1016.49,-0.7,-18.9
4.14,0.25,0.5,0.0,0.25,3.0,2.0,1.5,0.0,0.5,0.0,0.5,0.25,0.5,-1.17,-1.23,2.33,0.0,-0.6,24.8,2.75,2.5,4.75,4.0,6.5,7.0,4.0,6.25,3.75,6.5,4.25,4.25,6.5,0.14,0.02,0.95,1029.98,-1.5,-10.6
4.16,0.0,0.5,0.0,0.25,3.5,1.5,1.75,0.0,0.25,0.0,0.25,0.25,0.25,-0.92,-0.8,1.33,0.0,-0.4,33.5,2.0,2.5,4.5,4.25,7.25,7.5,4.0,6.25,3.75,5.75,3.25,3.5,5.0,0.14,0.02,0.95,996.6,-1.1,-4.8
4.18,0.0,0.5,0.0,0.0,2.5,1.25,2.0,0.0,0.0,0.0,0.5,0.25,0.5,-0.61,-0.48,0.58,0.0,0.2,22.3,3.75,2.5,4.75,5.25,8.0,7.75,4.75,6.25,3.75,5.75,3.25,2.5,4.75,0.14,0.02,0.95,1002.29,-2.4,2.5
4.2,0.0,0.5,0.0,0.25,3.5,1.25,2.0,0.0,0.25,0.0,0.5,0.25,0.25,-0.42,-0.17,0.45,0.0,1.0,30.2,3.75,2.5,4.75,6.25,9.0,7.75,5.0,6.25,3.25,5.5,2.75,2.5,4.0,0.14,0.02,0.95,1008.21,-2.7,7.1
4.22,0.0,0.5,0.0,0.25,3.75,1.25,2.0,0.0,0.25,0.0,0.5,0.25,0.25,-0.42,-0.11,0.45,0.0,0.8,31.0,3.75,2.75,5.0,7.75,9.0,8.0,5.0,6.25,3.25,4.75,2.75,2.5,3.25,0.2,0.02,0.95,1038.35,-3.6,11.5
4.24,0.0,0.5,0.0,0.25,3.0,1.25,2.0,0.0,0.25,0.5,0.5,0.25,0.25,-0.61,-0.23,0.83,0.0,0.3,22.0,4.75,3.0,5.5,8.25,10.5,8.25,5.5,6.0,3.25,4.5,2.5,2.5,3.25,0.14,0.02,1.02,1083.93,-4.4,15.8
4.26,0.0,0.5,0.0,0.25,3.5,1.25,2.0,0.0,0.25,0.0,0.5,0.25,0.25,-0.73,-0.17,1.02,10.69,1.0,30.2,5.25,3.0,6.25,9.75,11.0,8.25,5.5,5.75,3.0,4.75,2.5,2.0,3.25,0.14,0.08,0.95,1147.16,-5.2,19.1
4.28,0.0,0.5,0.0,0.25,2.5,1.25,2.0,0.0,0.0,0.0,0.25,0.25,0.25,-0.8,-0.11,1.14,56.25,1.0,32.5,5.5,3.25,6.25,10.0,12.0,8.25,5.5,5.75,2.75,4.5,0.75,2.0,3.25,0.14,0.08,0.95,1193.63,-5.1,23.3
4.3,0.0,0.5,0.0,0.25,2.5,1.25,2.0,0.0,0.25,0.0,0.5,0.25,0.25,-0.8,0.02,1.27,90.49,1.7,26.3,5.75,3.75,6.5,11.5,12.0,9.0,5.0,5.75,2.5,4.5,2.5,1.75,3.25,0.08,0.08,0.95,1253.62,-5.4,23.4
4.32,0.0,0.25,0.0,0.0,2.25,1.25,2.0,0.0,0.0,0.0,0.5,0.25,0.25,-0.67,0.27,1.33,99.4,0.4,23.2,6.5,4.0,6.5,12.5,13.5,9.0,5.0,5.75,2.5,4.75,2.0,1.25,3.25,0.08,0.08,1.02,1326.73,-5.5,26.7
4.34,0.0,0.5,0.0,0.25,3.0,1.0,2.0,0.0,0.0,0.0,0.5,0.25,0.25,-0.73,0.33,1.52,106.17,1.8,30.5,7.25,3.0,7.5,12.0,13.5,9.0,5.0,5.75,1.75,4.5,2.0,1.0,3.25,0.08,0.14,1.02,1360.21,-6.1,28.1
4.36,0.0,0.5,0.0,0.0,0.75,1.0,2.0,0.0,0.0,0.0,0.75,0.25,0.25,-0.86,0.45,1.95,92.41,4.3,10.0,8.25,4.75,6.5,15.0,14.5,10.0,4.0,5.25,1.25,4.25,1.5,1.25,2.5,0.08,0.2,1.02,1414.75,-6.3,34.4
4.38,0.0,0.25,0.0,0.0,2.5,1.25,2.0,0.0,0.0,0.0,0.5,0.25,0.5,-0.92,0.52,2.39,91.34,-0.2,19.3,9.0,3.25,7.75,16.5,16.5,10.0,3.75,5.75,0.5,3.5,2.0,1.5,3.25,0.08,0.2,1.08,1480.84,-6.6,33.9
4.4,0.0,0.25,0.0,0.0,1.25,1.0,2.0,0.0,0.0,0.0,0.5,0.25,0.25,-1.05,0.83,3.02,80.61,2.5,15.0,9.0,3.25,8.5,14.5,16.5,9.5,3.5,5.25,1.0,1.5,1.5,0.75,2.0,0.14,0.27,1.08,1498.64,-7.9,40.9
4.42,0.0,0.25,0.0,0.25,2.5,1.25,1.75,0.0,0.0,0.0,0.25,0.25,0.25,-1.23,1.27,3.14,84.69,0.0,29.9,11.0,4.75,0.0,16.0,17.0,9.0,4.5,3.75,0.5,3.0,2.0,0.75,2.0,0.33,0.33,1.2,1474.16,-5.5,40.6
4.44,0.0,0.5,0.0,0.25,0.75,1.25,1.25,0.0,0.0,0.5,0.5,0.25,0.5,-1.11,4.39,1.02,78.1,-1.3,2.1,9.75,5.25,10.0,15.0,13.5,8.75,5.0,0.0,0.75,2.5,0.5,1.0,1.5,0.33,0.39,1.45,1436.77,-11.6,49.4
4.46,0.25,0.5,0.0,0.25,2.5,1.25,0.25,0.0,0.0,0.0,0.5,0.25,0.25,0.95,7.89,0.77,85.13,-1.5,31.5,9.75,5.5,10.0,15.5,13.5,8.25,6.0,2.75,0.75,2.0,0.5,0.5,1.5,0.2,0.45,1.39,1416.35,-11.1,48.3
4.48,1.75,1.0,0.0,1.75,0.0,2.75,1.0,0.0,0.75,1.25,0.75,1.5,2.0,2.64,7.33,0.33,124.86,2.8,-7.0,9.75,5.25,10.0,15.0,12.5,8.0,6.75,1.25,0.75,1.75,0.5,0.25,1.5,0.14,0.64,1.64,1380.17,-12.2,50.7
4.5,1.5,0.25,0.25,0.5,3.75,1.25,1.25,0.25,0.5,1.25,0.25,1.75,0.25,1.39,3.83,3.2,158.92,3.5,10.6,9.0,3.25,9.0,11.5,11.5,7.75,7.25,1.25,0.5,1.5,0.5,0.5,1.5,-0.11,1.14,2.08,1300.88,-11.9,48.1
4.52,1.75,0.5,1.5,1.25,3.5,2.75,1.25,2.25,1.75,0.0,3.0,2.0,2.25,-6.11,-7.98,4.2,230.52,3.9,-6.1,8.0,2.5,8.25,8.75,9.0,6.5,6.5,1.25,0.0,1.5,0.0,0.25,1.5,0.2,1.08,3.08,1105.47,-12.3,48.6
4.54,3.25,0.0,0.0,1.75,0.0,2.5,1.5,1.75,1.75,0.0,1.75,2.0,2.25,0.02,-0.42,-0.11,254.9,5.9,-13.3,5.5,1.5,6.25,5.0,6.75,4.75,4.0,0.0,0.25,0.0,0.0,0.25,0.5,0.33,0.33,2.95,800.5,-13.9,56.0
4.56,3.75,1.75,2.25,3.0,3.5,3.0,4.0,2.5,2.5,0.75,3.5,2.0,2.5,-0.23,-0.11,1.27,339.79,8.0,6.1,2.0,0.75,3.25,2.0,4.5,2.75,1.25,0.5,0.25,0.0,0.0,0.0,0.0,-0.55,1.08,0.58,470.96,-10.2,54.5
4.58,6.0,2.0,3.0,3.0,3.75,4.0,4.75,2.0,2.5,1.25,2.75,2.0,2.25,-0.17,-0.8,0.95,430.82,9.7,16.3,1.25,0.0,1.75,2.0,3.75,2.75,1.75,0.0,0.25,0.0,0.0,0.0,0.75,0.33,-0.42,3.14,262.54,-6.6,42.9
4.6,7.5,2.0,4.0,4.75,3.75,4.0,5.25,2.25,2.75,1.25,2.5,1.75,2.0,0.14,1.39,1.33,565.3,11.7,23.5,1.25,0.0,2.0,0.5,3.75,2.75,1.25,0.0,0.25,0.0,0.0,0.25,0.25,-0.23,-0.61,2.64,121.35,-6.3,45.0
4.62,8.5,2.25,6.25,5.5,4.5,4.25,6.25,2.25,2.75,2.5,2.0,1.75,2.0,-0.3,-1.23,1.14,697.52,12.6,26.8,1.25,0.0,1.75,1.75,2.25,2.0,1.25,0.0,0.25,1.0,0.0,0.25,0.5,0.08,0.64,0.89,31.94,-7.6,32.0
4.64,10.5,3.5,7.75,5.5,6.0,5.0,7.5,2.25,3.25,2.5,2.0,1.75,1.5,-0.42,-1.23,0.64,864.67,13.5,33.4,1.25,0.0,1.75,1.5,3.0,2.0,1.25,0.0,0.25,1.25,0.0,0.0,0.5,0.27,0.77,0.02,1.97,-6.2,33.6
4.66,12.0,4.75,8.75,7.0,7.0,5.0,8.5,2.25,3.25,2.5,2.5,1.75,2.0,-0.55,0.14,0.89,1047.01,14.1,35.6,1.0,0.0,1.75,1.5,2.5,1.5,1.0,0.0,0.25,1.0,0.0,0.25,0.5,0.14,0.58,-0.36,0.0,-7.6,30.5
4.68,14.0,6.5,9.5,8.75,8.25,6.5,9.25,2.25,3.5,2.5,2.5,1.75,2.0,-0.73,-0.48,0.7,1275.37,13.9,39.6,1.25,0.0,1.75,1.5,2.5,1.5,1.0,0.0,0.25,1.0,0.0,0.25,0.5,-0.05,0.33,-0.42,0.0,-8.1,31.9
4.7,16.0,7.75,10.5,9.5,8.5,6.75,10.5,0.0,3.75,2.5,2.25,1.75,2.0,-0.55,-0.23,1.08,1435.16,15.6,44.8,1.25,0.0,1.75,1.25,2.5,1.5,1.0,0.0,0.25,1.0,0.0,0.25,0.5,0.14,0.02,-0.3,7.39,-7.9,31.3
4.72,17.5,7.75,11.5,11.5,9.25,7.5,11.0,4.0,4.0,2.5,2.25,1.75,2.0,-0.23,-0.3,1.08,1598.61,14.3,42.0,1.25,0.25,1.5,1.25,2.25,2.0,1.0,0.0,0.5,1.25,0.0,0.0,0.5,0.27,-0.17,0.08,40.83,-5.9,30.9
4.74,18.5,9.0,12.5,13.0,11.0,7.5,12.0,4.0,4.25,2.5,2.5,1.75,2.0,-0.23,-0.17,1.39,1759.41,14.5,43.5,0.5,0.0,1.75,1.25,2.25,1.25,0.75,0.0,0.25,1.0,0.0,0.0,0.5,0.2,-0.17,0.14,68.6,-6.7,29.4
4.76,19.5,10.5,13.5,13.5,12.0,7.5,12.5,4.25,4.25,2.5,2.5,1.75,2.0,-0.36,-0.23,1.52,1906.06,14.7,44.9,0.5,0.25,1.75,0.5,3.0,1.25,0.75,0.0,0.25,1.25,0.0,0.25,0.5,0.14,0.08,-0.05,101.82,-4.7,25.1
4.78,19.5,10.5,13.5,13.5,12.0,7.25,13.0,4.0,4.0,2.25,2.25,1.75,2.0,-0.48,-0.05,1.7,1997.88,15.0,45.9,0.25,0.0,1.75,0.5,1.5,1.25,0.75,0.0,0.25,1.25,0.0,0.25,0.5,1.7,6.64,-6.67,117.3,-5.3,14.6
4.8,19.0,10.5,15.5,14.0,12.5,7.0,13.0,4.0,3.75,2.25,2.0,1.75,2.0,-0.73,0.2,2.14,2043.91,15.4,46.6,0.5,0.0,1.75,0.5,2.25,0.5,0.75,0.0,0.0,1.0,0.0,0.0,0.5,0.39,3.2,-2.92,123.42,-8.2,28.2
4.82,19.5,10.5,15.5,13.5,10.5,6.25,13.0,2.5,3.0,1.75,2.0,1.75,2.0,-0.98,0.39,2.58,2023.34,16.9,49.4,0.25,0.5,1.5,0.5,1.5,0.5,0.75,0.0,0.0,1.25,0.0,0.0,0.5,-1.42,-0.17,0.64,113.27,-7.1,23.2
4.84,17.5,9.0,15.0,9.5,8.5,3.5,12.0,2.25,1.75,2.0,2.0,1.75,1.5,-0.92,1.83,3.14,1885.3,18.4,49.5,0.25,0.75,1.5,0.5,1.5,0.5,0.75,0.0,0.0,1.25,0.0,0.0,0.5,0.2,0.45,-1.61,108.53,-7.3,25.8
4.86,11.5,6.5,11.5,7.0,6.0,1.75,10.5,1.75,1.0,1.5,1.5,1.5,1.75,-0.05,4.83,3.08,1598.72,18.6,46.2,0.5,0.75,1.75,0.5,1.5,0.5,0.75,0.0,0.0,1.25,0.0,0.0,0.5,1.64,-0.05,-1.61,107.45,-9.1,29.1
4.88,5.75,2.0,6.5,3.25,0.5,0.0,6.75,0.0,0.75,0.0,1.5,0.0,2.0,0.14,2.95,3.45,1065.74,24.5,42.5,0.0,1.0,1.75,0.5,1.5,0.5,0.75,0.0,0.0,1.0,0.0,0.0,0.5,0.58,-0.86,0.2,107.71,-8.5,30.7
4.9,2.25,0.0,5.25,1.0,3.5,0.25,4.75,0.0,0.75,0.0,0.25,0.0,0.25,-0.17,1.52,0.08,539.26,22.1,49.4,0.5,0.75,2.0,0.5,1.25,0.5,0.75,0.0,0.0,1.25,0.0,0.0,0.5,-0.23,-0.92,0.33,111.73,-10.5,29.3
4.92,1.75,0.5,2.25,0.5,1.75,0.75,4.75,0.0,0.75,0.0,0.5,0.0,0.25,-2.3,-0.17,4.58,231.82,19.4,42.1,0.5,0.75,1.5,0.5,1.75,0.5,0.75,0.0,0.0,1.25,0.0,0.0,0.5,-0.42,-0.23,-0.05,113.98,-7.7,29.0
4.94,1.0,0.0,2.25,1.0,0.75,0.25,4.5,0.0,0.5,0.0,0.25,0.0,0.25,-0.17,-1.86,2.83,35.33,24.1,39.9,1.25,0.5,1.75,0.5,0.5,0.5,0.75,0.0,0.0,0.75,0.0,0.0,0.5,-1.11,1.45,-1.11,111.16,-15.7,37.2
4.96,0.25,0.5,2.25,0.75,0.5,0.25,4.0,0.0,0.5,0.0,0.0,0.0,0.5,0.45,-2.17,-0.61,0.0,22.4,36.4,1.0,0.75,1.75,0.5,0.0,0.5,0.75,0.0,0.0,0.5,0.0,0.0,0.5,-1.23,2.08,-1.17,103.88,-18.0,40.7
4.98,0.5,0.5,1.25,0.5,1.75,0.25,3.75,0.0,0.5,0.0,0.25,0.0,0.25,0.08,-1.98,-0.8,0.0,16.8,38.9,1.0,0.75,1.75,0.5,0.5,0.5,0.75,0.0,0.0,1.0,0.0,0.0,0.5,-0.67,1.95,-0.92,103.74,-13.8,33.4
5.0,0.25,0.5,1.0,0.5,2.5,0.25,3.75,0.0,0.25,0.0,0.25,0.0,0.25,0.2,-2.61,1.27,0.0,13.5,40.5,0.5,0.75,1.75,0.5,0.25,0.25,0.75,0.0,0.0,1.25,0.0,0.0,0.5,-0.36,1.89,-0.67,99.53,-13.3,23.3
5.02,0.25,0.5,1.25,0.5,3.0,0.25,4.0,0.0,0.25,0.0,0.25,0.0,0.5,1.02,-3.05,2.2,0.0,12.7,37.5,0.75,0.75,1.75,0.5,0.0,0.25,0.75,0.0,0.0,1.0,0.0,0.0,0.5,-0.3,1.89,-0.55,97.93,-16.1,28.9
5.04,0.25,0.25,1.25,0.5,0.75,0.0,3.75,0.0,0.25,0.0,0.25,0.25,0.25,-0.42,-1.23,-0.3,0.0,21.6,28.4,0.0,0.75,1.75,0.0,1.0,0.5,0.75,0.0,0.0,1.25,0.0,0.0,0.5,-0.3,1.83,-0.11,96.36,-7.7,19.4
5.06,0.25,0.25,0.0,0.5,2.25,0.25,2.75,0.0,0.0,0.0,0.0,0.25,0.25,-0.11,0.08,-0.98,0.0,8.4,36.3,0.25,0.75,1.0,0.5,0.25,0.5,0.75,0.0,0.0,1.25,0.0,0.0,0.5,-0.23,1.27,0.77,91.33,-7.2,15.2
5.08,0.25,0.5,0.0,0.5,2.25,0.25,3.75,0.0,0.0,0.0,0.25,0.0,0.25,0.33,0.89,-1.48,0.0,10.4,39.6,0.25,0.75,1.75,0.5,0.0,0.5,0.75,0.0,0.0,1.25,0.0,0.25,0.5,-0.17,0.95,0.83,89.93,-11.7,14.1
5.1,0.25,0.5,0.0,0.5,3.0,0.25,3.25,0.0,0.0,0.0,0.0,0.0,0.25,-0.8,1.52,-2.3,28.96,7.9,45.9,0.0,0.75,1.75,0.5,0.5,0.25,0.75,0.0,0.0,1.25,0.0,0.25,0.5,-0.86,0.52,0.95,90.22,-10.7,13.8
5.12,0.25,0.25,0.25,0.5,3.5,0.0,3.25,0.0,0.0,0.0,0.5,0.25,0.25,-0.86,1.14,-2.23,81.85,9.0,33.2,0.0,0.75,1.75,0.5,0.0,0.5,0.75,0.0,0.0,1.0,0.0,0.25,0.5,-0.67,0.14,-0.17,90.02,-11.9,14.6
5.14,0.0,0.5,0.0,0.25,1.25,0.75,3.0,0.0,0.0,0.0,0.0,0.0,0.5,-3.92,1.77,-3.55,88.76,6.0,30.8,0.25,0.75,1.5,0.5,0.0,0.25,0.75,0.0,0.0,1.25,0.0,0.25,0.5,-0.48,-0.42,-1.42,88.34,-11.9,11.1
5.16,0.0,0.25,0.25,0.25,1.25,1.25,2.75,0.0,0.0,0.0,0.25,0.0,0.25,-4.42,2.2,-2.3,89.33,5.2,31.3,0.0,0.75,1.75,0.5,0.0,0.0,0.75,0.0,0.0,1.25,0.0,0.0,0.5,-0.73,-1.05,-2.11,85.38,-13.9,14.4
5.18,0.0,0.5,0.0,0.5,3.0,0.5,2.75,0.0,0.0,0.0,0.0,0.0,0.25,-2.42,1.2,1.64,90.7,4.9,44.3,0.25,0.75,1.75,0.5,0.25,0.25,0.75,0.0,0.0,1.25,0.0,0.0,0.5,-0.67,-1.23,-2.11,87.71,-12.4,20.3
5.2,0.25,0.5,0.0,0.5,1.25,0.25,2.75,0.0,0.0,0.0,0.25,0.25,0.0,-0.55,-0.23,1.7,84.7,12.8,37.8,0.0,1.0,1.75,0.5,0.0,0.0,0.75,0.0,0.0,1.0,0.0,0.0,0.5,-0.23,-1.05,-0.3,85.6,-15.2,22.9
5.22,0.0,0.25,0.25,0.5,4.5,0.25,3.25,0.0,0.0,0.0,0.0,0.0,0.25,1.52,-2.23,2.52,99.64,5.5,44.9,0.25,0.75,2.0,0.5,0.0,0.25,0.75,0.0,0.0,1.25,0.0,0.0,0.5,-0.42,-0.92,0.2,88.38,-14.3,20.5
5.24,0.0,0.25,0.25,0.25,0.75,0.25,3.0,0.0,0.0,0.0,0.25,0.0,0.25,3.2,-2.73,0.95,88.73,14.4,27.1,0.0,0.75,1.75,0.5,0.0,0.0,0.75,0.0,0.0,1.0,0.0,0.0,0.5,-1.11,-0.23,0.39,85.57,-15.4,18.9
5.26,0.0,0.25,0.0,0.25,3.0,0.25,3.25,0.0,0.0,0.0,0.5,0.0,0.0,2.77,-0.92,-2.17,94.41,7.4,38.3,0.0,0.75,1.75,0.5,0.0,0.0,0.75,0.0,0.0,1.25,0.0,0.0,0.5,-1.17,0.64,0.14,84.43,-13.9,14.4
5.28,0.0,0.25,0.0,0.25,1.75,0.25,3.25,0.0,0.0,0.0,0.25,0.0,0.25,2.08,0.77,-3.42,85.98,9.3,31.6,0.0,0.75,1.75,0.5,0.0,0.25,0.75,0.0,0.0,1.25,0.0,0.0,1.0,-0.8,1.45,-0.42,85.27,-10.0,4.5
5.3,0.0,0.5,0.0,0.25,2.5,0.25,3.75,0.0,0.0,0.0,0.25,0.25,0.0,0.27,1.27,-1.73,91.12,9.5,37.5,0.0,0.75,1.5,0.5,0.0,0.0,0.75,0.0,0.0,0.75,0.0,0.0,0.75,-0.36,1.89,-0.98,82.39,-14.2,14.6
5.32,0.0,0.25,0.0,0.25,1.75,0.25,3.0,0.0,0.0,0.0,0.5,0.0,0.25,-0.61,0.33,-0.92,84.17,8.8,26.5,0.0,0.75,1.75,0.25,0.0,0.25,0.75,0.0,0.0,1.0,0.0,0.0,1.0,-0.23,1.89,-0.98,82.3,-10.9,5.6
5.34,0.0,0.5,0.0,0.25,2.5,0.25,3.25,0.0,0.0,0.0,0.0,0.0,0.5,-0.42,0.27,-0.55,89.58,6.5,35.9,0.0,0.75,1.25,0.5,0.0,0.0,0.75,0.0,0.0,1.0,0.0,0.0,0.75,-0.23,1.64,-0.8,78.51,-11.3,7.3
5.36,0.0,0.25,0.25,0.25,0.0,0.25,3.25,0.0,0.0,0.0,0.25,0.0,0.25,-0.17,0.39,-0.42,75.2,20.1,19.7,0.0,0.75,0.75,0.25,0.25,0.25,0.75,0.0,0.0,0.75,0.0,0.0,0.75,-0.42,1.2,-0.61,74.07,-6.3,7.2
5.38,0.0,0.25,0.0,0.25,0.0,0.25,3.25,0.0,0.0,0.0,0.0,0.0,0.25,0.08,0.58,-0.67,62.2,19.1,24.5,0.0,0.75,1.5,0.5,0.0,0.25,0.75,0.0,0.0,1.0,0.0,0.0,0.75,-0.55,0.89,-0.55,73.91,-11.1,11.2
5.4,0.0,0.5,0.0,0.25,0.0,0.25,3.25,0.0,0.0,0.0,0.0,0.0,0.25,0.27,0.83,-0.8,47.24,18.5,31.3,0.0,0.75,1.25,0.5,0.0,0.25,0.75,0.0,0.0,0.5,0.0,0.0,1.25,-0.61,0.64,-0.48,74.42,-9.8,4.8
5.42,0.0,0.5,0.0,0.25,0.0,0.25,3.25,0.0,0.0,0.0,0.25,0.25,0.0,0.2,0.95,-0.98,40.69,19.8,23.3,0.0,0.75,1.0,0.5,0.0,0.0,0.75,0.0,0.0,0.75,0.0,0.25,0.75,-0.67,0.52,-0.36,72.66,-11.1,2.4
5.44,0.0,0.5,0.0,0.25,0.0,0.25,3.25,0.0,0.0,0.0,0.0,0.0,0.0,0.02,0.83,-0.98,37.15,21.8,45.4,0.0,0.75,1.25,0.5,0.0,0.0,0.75,0.0,0.0,1.25,0.0,0.0,0.75,-0.67,0.39,-0.36,73.66,-9.9,3.2
5.46,0.0,0.25,0.0,0.25,0.0,0.25,3.25,0.0,0.0,0.0,0.0,0.0,0.25,-0.05,0.77,-0.86,34.45,19.1,24.5,0.0,0.75,1.25,0.5,0.0,0.0,0.75,0.0,0.0,1.25,0.0,0.0,0.75,-0.67,0.45,-0.36,74.33,-9.9,3.2
5.48,0.0,0.25,0.0,0.25,0.0,0.25,3.5,0.0,0.0,0.0,0.25,0.0,0.0,-0.3,0.64,-0.67,36.84,22.1,28.5,0.0,0.75,1.75,0.5,0.0,0.0,0.75,0.0,0.0,1.0,0.0,0.0,0.75,-0.73,0.52,-0.42,77.62,-13.9,12.6
5.5,0.0,0.25,0.0,0.25,0.0,0.25,3.5,0.0,0.0,0.0,0.0,0.0,0.0,-0.36,0.39,-0.55,33.23,23.2,38.9,0.0,0.75,1.75,0.25,0.0,0.0,0.75,0.0,0.0,1.0,0.0,0.0,1.0,-0.67,0.58,-0.48,79.4,-12.4,4.3
5.52,0.0,0.5,0.0,0.25,0.0,0.25,3.25,0.0,0.0,0.0,0.25,0.25,0.0,-0.36,0.14,-0.61,36.94,19.8,23.3,0.0,1.0,0.5,0.0,1.0,0.0,0.75,0.0,0.0,1.25,0.0,0.0,0.75,-0.55,0.64,-0.55,80.82,-2.0,5.1
5.54,0.0,0.5,0.0,0.25,1.75,0.25,3.25,0.0,0.0,0.0,0.0,0.0,0.25,-0.42,0.02,-0.86,50.63,9.4,40.5,0.0,0.75,1.0,0.5,1.25,0.0,0.75,0.0,0.0,1.0,0.0,0.0,1.0,-0.55,0.7,-0.55,87.45,-5.7,11.0
5.56,0.0,0.25,0.0,0.25,0.75,0.25,3.5,0.0,0.0,0.0,0.25,0.0,0.25,-0.23,0.2,-1.05,58.9,13.9,24.8,0.0,0.75,1.5,0.5,0.0,0.0,0.75,0.0,0.0,1.0,0.0,0.0,0.5,-0.48,0.77,-0.48,85.06,-14.1,16.7
5.58,0.0,0.25,0.0,0.25,1.75,0.25,3.25,0.0,0.0,0.0,1.25,0.0,0.0,-0.11,0.27,-0.98,73.9,10.6,19.5,0.0,0.75,1.5,0.5,0.0,0.0,0.75,0.0,0.0,1.25,0.0,0.0,1.0,-0.48,0.89,-0.55,86.91,-10.1,0.6
5.6,0.0,0.25,0.25,0.25,1.25,0.25,3.25,0.0,0.0,0.0,0.0,0.0,0.25,-0.11,0.39,-0.92,78.98,12.7,36.5,0.0,0.75,1.25,0.5,0.25,0.0,0.75,0.0,0.0,1.0,0.0,0.0,1.0,-0.61,0.95,-0.55,85.01,-9.2,4.1
5.62,0.0,0.5,0.0,0.25,2.5,0.25,3.0,0.0,0.0,0.0,0.5,0.25,0.25,0.14,0.58,-0.86,91.74,7.3,27.8,0.0,0.75,1.25,0.5,0.0,0.0,0.75,0.0,0.0,0.0,0.0,1.0,1.0,-0.61,0.95,-0.61,82.48,-14.9,-5.4
5.64,0.0,0.25,0.0,0.0,1.75,0.25,3.25,0.0,0.0,0.0,0.25,0.25,0.25,0.2,0.64,-0.92,90.53,8.8,22.9,0.0,0.75,1.75,0.5,0.25,0.25,0.75,0.0,0.0,0.5,0.0,0.0,0.5,-0.67,0.95,-0.55,81.64,-15.6,31.1
5.66,0.0,0.5,0.0,0.25,1.25,0.25,3.25,0.0,0.0,0.0,0.0,0.25,0.5,0.14,0.7,-0.8,91.31,9.7,23.1,1.25,1.5,1.5,1.75,0.0,2.0,0.5,0.0,0.0,0.25,0.0,0.0,0.5,-0.61,1.2,-0.67,104.82,-11.6,51.5
5.68,0.0,0.5,0.0,0.25,1.75,0.25,3.25,0.0,0.0,0.0,0.5,0.0,0.25,0.14,0.77,-0.86,90.83,9.5,30.0,0.0,0.75,1.25,0.0,0.0,0.0,0.75,0.0,0.0,0.25,0.0,0.0,0.75,-0.55,1.33,-0.8,94.34,-16.3,17.7
5.7,0.5,0.5,0.0,0.25,0.75,0.25,3.25,0.0,0.0,0.0,0.25,0.0,0.0,0.08,0.95,-1.11,85.82,17.3,46.0,0.0,0.75,0.75,2.0,0.0,2.0,0.5,0.0,0.0,0.5,0.0,0.0,1.5,-0.61,1.52,-0.55,107.03,-1.3,13.8
5.72,0.0,0.25,0.0,0.25,0.5,0.5,3.25,0.0,0.0,0.0,0.25,0.0,0.0,-0.17,1.02,-1.23,75.69,14.2,33.2,0.25,0.75,1.75,0.5,0.25,0.0,0.5,0.0,0.0,0.75,0.0,0.0,0.5,-0.61,1.52,-0.55,97.62,-16.3,28.9
5.74,0.0,0.25,0.0,0.25,1.25,0.25,3.25,0.0,0.0,0.0,0.25,0.0,0.25,-0.36,0.89,-1.3,70.85,11.0,28.7,0.25,0.75,2.0,0.5,3.75,0.5,0.75,0.0,0.0,1.0,0.0,0.0,0.75,-0.55,1.52,-0.61,124.68,-6.2,33.5
5.76,0.0,0.25,0.0,0.25,1.75,0.25,3.25,0.0,0.0,0.25,0.25,0.25,0.25,-0.3,0.77,-1.11,73.13,8.1,20.0,0.25,0.75,1.75,0.5,0.25,0.5,0.75,0.0,0.0,0.75,0.0,0.0,0.75,-0.3,1.14,-0.8,118.45,-12.2,23.3
5.78,0.0,0.5,0.0,0.25,2.5,0.25,3.25,0.0,0.0,0.0,0.25,0.25,0.0,-0.11,0.58,-0.86,81.22,8.6,37.9,0.25,0.75,1.75,1.0,0.25,1.0,0.75,0.0,0.0,1.5,0.0,0.25,0.75,-0.3,0.95,-0.98,128.75,-7.7,12.7
5.8,0.0,0.25,0.0,0.25,1.25,0.25,3.25,0.0,0.0,0.0,0.25,0.0,0.25,0.08,0.58,-0.73,81.18,11.0,28.7,1.5,1.75,1.75,2.0,2.25,2.75,1.0,0.5,0.25,2.75,0.75,1.0,1.25,-0.23,0.64,-1.05,181.23,-3.8,12.7
5.82,0.0,0.25,0.0,0.25,1.25,0.25,3.0,0.0,0.0,0.0,0.25,0.0,0.25,0.33,0.58,-0.8,77.29,10.4,28.7,1.25,1.5,2.0,2.0,3.75,2.75,0.75,0.75,0.25,2.75,0.5,1.0,1.5,-0.23,0.39,-1.11,236.1,-2.5,13.5
5.84,0.0,0.5,0.0,0.25,3.0,0.25,3.0,0.0,0.0,0.0,0.0,0.0,0.25,0.33,0.58,-1.11,83.58,6.0,43.8,1.25,1.5,2.0,1.75,3.75,2.25,0.75,0.75,0.25,3.5,0.25,1.0,1.75,-0.23,0.27,-1.17,278.88,-1.9,8.8
5.86,0.0,0.25,0.0,0.25,0.75,0.25,3.0,0.0,0.0,0.0,0.25,0.25,0.25,0.2,0.39,-1.11,76.1,12.4,15.9,1.25,1.5,2.0,2.0,3.75,2.5,0.75,0.75,0.25,3.0,0.25,1.0,1.5,-0.3,0.2,-1.17,301.86,-2.5,13.2
5.88,0.0,0.25,0.0,0.25,0.75,0.25,3.25,0.0,0.0,0.0,0.0,0.0,0.25,0.2,0.2,-0.92,71.14,13.4,31.8,1.25,1.5,1.75,1.75,3.75,2.25,0.75,0.75,0.25,2.75,0.5,1.0,1.5,-0.36,0.14,-0.92,310.76,-2.4,11.8
5.9,0.0,0.5,0.0,0.25,1.25,0.25,2.75,0.0,0.0,0.0,0.0,0.0,0.25,0.2,0.08,-0.86,66.43,9.9,39.5,1.25,1.5,2.0,1.75,3.5,2.25,0.75,1.0,0.25,2.75,0.5,1.0,1.5,-0.42,0.08,-0.67,306.88,-2.7,11.2
5.92,0.0,0.25,0.0,0.5,1.25,0.25,2.75,0.0,0.0,0.0,0.0,0.25,0.5,0.14,0.14,-0.86,67.11,8.7,20.5,1.25,1.75,2.0,1.75,3.75,2.25,0.75,0.25,0.25,3.0,0.5,1.0,1.5,-0.3,-0.17,-0.23,307.12,-3.3,13.7
5.94,0.0,0.5,0.0,0.25,1.25,0.25,2.75,0.0,0.0,0.0,0.0,0.0,0.25,0.08,0.2,-0.86,66.75,9.9,39.5,1.25,1.5,1.75,1.5,3.75,2.5,0.75,0.5,0.25,2.75,0.5,1.0,1.5,-0.36,-0.05,-0.42,300.61,-2.2,12.1
5.96,0.0,0.25,0.0,0.25,2.5,0.0,2.75,0.0,0.0,0.0,0.0,0.0,0.0,0.08,0.2,-0.8,71.81,8.6,48.9,1.25,1.5,2.0,1.75,3.75,2.5,0.75,0.5,0.25,3.0,0.5,1.0,1.5,-0.42,0.02,-0.42,299.12,-2.6,12.2
5.98,0.0,0.5,0.0,0.25,1.75,0.0,2.75,0.0,0.0,0.0,0.25,0.0,0.5,0.14,0.14,-0.61,74.37,8.7,27.8,1.25,1.75,1.75,2.0,3.75,2.75,0.75,0.5,0.25,2.75,0.5,1.0,1.5,-0.55,0.14,-0.55,295.86,-2.4,14.6
6.0,0.0,0.5,0.0,0.25,1.75,0.0,2.75,0.0,0.0,0.0,0.25,0.0,0.5,0.14,0.14,-0.48,76.46,8.7,27.8,1.25,1.75,1.75,1.75,3.75,2.75,0.75,0.75,0.25,3.0,0.5,1.0,1.5,-0.55,0.2,-0.61,295.95,-1.8,12.3
6.02,0.0,0.5,0.0,0.25,2.25,0.25,2.75,0.0,0.0,0.0,0.0,0.0,0.0,0.14,-0.05,-0.42,79.59,8.0,50.5,1.25,1.5,1.75,2.0,3.75,2.5,0.75,0.25,0.25,3.0,0.5,1.0,1.5,-0.67,0.33,-0.73,288.08,-2.6,12.8
6.04,0.0,0.25,0.0,0.25,2.25,0.25,2.5,0.0,0.0,0.0,0.25,0.25,0.0,0.27,-0.11,-0.48,83.3,7.4,34.7,1.25,1.5,1.75,2.0,3.75,2.75,1.0,0.5,0.25,2.75,0.5,1.0,1.5,-0.73,0.39,-0.8,280.95,-2.5,13.6
6.06,0.0,0.0,0.0,0.5,1.25,0.25,2.5,0.0,0.0,0.0,0.0,0.25,0.25,0.33,-0.11,-0.61,77.65,9.2,23.7,1.25,1.5,2.0,2.75,3.75,2.5,0.75,0.5,0.25,3.0,0.5,1.0,1.5,-0.8,0.52,-0.86,283.35,-3.3,14.4
6.08,0.0,0.25,0.0,0.25,1.75,0.25,2.75,0.0,0.0,0.0,0.25,0.0,0.0,0.33,0.02,-0.86,74.65,9.4,40.3,1.25,1.5,1.75,2.0,4.5,2.25,0.75,0.5,0.25,2.75,0.5,1.0,1.5,-0.8,0.64,-0.92,284.84,-2.6,14.7
6.1,0.0,0.25,0.0,0.25,2.25,0.0,2.5,0.0,0.0,0.0,0.0,0.0,0.0,0.27,0.14,-0.86,74.36,8.7,49.2,1.25,1.5,1.75,2.0,3.75,2.75,0.75,0.5,0.25,2.75,0.5,1.0,1.75,-0.8,0.7,-0.98,285.34,-2.1,12.0
6.12,0.0,0.5,0.0,0.25,2.5,0.25,2.5,0.0,0.0,0.0,0.5,0.0,0.25,0.2,0.2,-0.92,81.52,6.2,33.7,1.25,1.5,1.75,2.0,3.75,2.0,0.75,0.25,0.25,2.75,0.5,1.0,1.5,-0.73,0.83,-1.05,280.4,-3.4,13.4
6.14,0.0,0.25,0.0,0.25,2.5,0.25,2.75,0.0,0.0,0.0,0.0,0.0,0.0,0.14,0.33,-0.92,83.56,7.1,48.2,1.25,1.5,1.75,1.75,3.5,2.25,0.75,0.25,0.25,2.75,0.5,1.0,1.5,-0.61,0.89,-1.11,273.8,-3.0,12.5
6.16,0.25,0.5,0.0,0.25,2.5,0.25,2.5,0.0,0.0,0.0,0.25,0.0,0.25,0.14,0.39,-0.98,90.98,7.2,40.8,1.25,1.5,1.75,2.0,3.75,2.5,0.75,0.5,0.25,2.75,0.5,1.0,1.5,-0.61,0.95,-1.05,271.68,-2.6,13.3
6.18,0.0,0.25,0.0,0.25,1.25,0.25,2.75,0.0,0.0,0.0,0.0,0.25,0.25,0.14,0.52,-0.98,84.14,9.6,26.4,1.25,1.5,1.75,1.75,3.75,2.75,0.75,0.25,0.25,3.0,0.5,1.0,1.5,-0.48,0.95,-0.98,271.95,-2.1,12.5
6.2,0.0,0.5,0.0,0.25,0.75,0.25,2.5,0.0,0.0,0.0,0.5,0.0,0.25,0.14,0.64,-0.92,76.02,11.3,23.2,1.25,1.5,1.75,1.75,3.75,2.25,0.75,0.25,0.25,3.0,0.0,1.0,1.5,-0.48,0.95,-0.92,269.69,-2.5,14.2
6.22,0.75,0.5,0.0,1.0,1.25,1.5,2.5,0.0,0.0,0.0,0.5,0.25,0.25,0.14,0.64,-0.92,86.64,7.4,33.7,1.25,1.75,1.75,1.75,3.75,2.5,0.75,0.25,0.0,2.75,0.5,1.0,1.5,-0.48,0.95,-0.8,269.4,-2.6,15.1
6.24,0.75,0.5,0.0,1.0,2.25,0.25,3.75,0.25,0.0,0.0,1.75,0.25,1.25,0.2,0.64,-0.92,114.11,8.8,6.8,1.25,1.5,1.75,1.75,3.75,2.75,0.75,0.0,0.25,2.75,0.5,1.75,1.5,-0.48,0.95,-0.67,271.06,-2.8,9.7
6.26,0.0,0.25,0.0,0.25,1.25,0.0,2.5,0.0,0.0,0.0,0.0,0.0,0.0,0.27,0.58,-0.98,105.25,13.1,47.6,1.25,1.5,2.0,1.75,3.5,2.5,0.75,0.0,0.25,3.0,0.5,1.0,1.75,-0.48,0.95,-0.61,271.51,-3.0,11.3
6.28,0.0,0.0,0.0,0.25,1.25,0.0,2.5,0.0,0.0,0.0,0.25,0.0,0.25,0.14,0.52,-1.05,92.61,11.0,23.1,1.25,1.5,1.75,2.0,3.75,2.0,0.75,0.0,0.25,3.0,0.5,1.0,1.5,-0.48,0.89,-0.61,270.18,-3.5,13.0
6.3,0.0,0.25,0.0,0.25,2.25,0.25,2.5,0.0,0.0,0.0,0.0,0.0,0.25,0.14,0.45,-1.11,80.66,6.0,40.0,1.25,1.5,1.75,1.75,3.75,2.5,0.75,0.0,0.25,3.0,0.5,1.0,1.5,-0.48,0.77,-0.73,269.74,-2.6,12.9
6.32,0.0,0.25,0.0,0.25,1.25,0.25,2.5,0.0,0.0,0.0,0.25,0.0,0.0,0.27,0.33,-0.8,68.25,10.7,38.6,1.25,1.75,1.75,1.75,3.75,2.5,0.75,0.0,0.25,3.0,0.5,1.0,1.5,-0.42,0.7,-0.73,270.99,-2.8,14.0
6.34,0.0,0.0,0.0,0.25,2.5,0.25,2.5,0.0,0.0,0.0,0.75,0.0,0.0,0.39,0.2,-0.67,70.08,6.8,29.3,1.25,1.75,1.75,1.5,3.75,2.75,0.75,0.0,0.0,2.75,0.5,1.0,1.5,-0.42,0.64,-0.8,270.5,-2.4,15.5
6.36,0.0,0.25,0.0,0.25,2.5,0.0,2.5,0.0,0.0,0.0,0.0,0.0,0.25,0.39,0.2,-0.55,74.19,6.8,41.0,1.25,1.5,1.75,1.75,3.75,2.75,0.75,0.0,0.25,2.75,0.5,1.0,1.5,-0.42,0.52,-0.86,271.31,-2.6,14.3
6.38,0.0,0.0,0.0,0.25,1.25,0.0,2.5,0.0,0.0,0.0,0.25,0.0,0.0,0.45,0.2,-0.61,69.4,13.0,34.0,1.25,1.5,1.75,1.75,3.75,2.5,0.75,0.0,0.25,3.0,0.5,1.0,1.5,-0.42,0.45,-0.86,270.89,-2.6,12.9
6.4,0.25,0.25,0.0,0.25,0.75,0.0,2.5,0.0,0.0,0.0,0.25,0.0,0.5,0.45,0.27,-0.67,61.16,13.2,19.0,1.25,1.75,1.75,1.5,3.75,2.5,0.75,0.25,0.0,3.0,0.5,1.0,1.5,-0.48,0.39,-0.86,270.45,-2.2,13.4
6.42,0.0,0.25,0.0,0.5,0.75,0.25,2.5,0.0,0.0,0.0,0.0,0.0,0.0,0.52,0.39,-0.67,54.12,13.8,46.4,1.25,1.5,1.75,2.0,3.75,2.75,0.75,0.5,0.0,3.0,0.5,1.0,1.5,-0.48,0.33,-0.86,273.39,-1.9,13.1
6.44,0.0,0.25,0.0,0.25,0.75,0.25,2.5,0.0,0.0,0.0,0.0,0.0,0.25,0.52,0.52,-0.8,47.62,11.2,32.3,1.25,1.5,1.75,2.0,3.75,2.5,0.5,0.5,0.25,2.75,0.5,1.0,1.5,-0.48,0.33,-0.8,275.12,-2.4,13.2
6.46,0.0,0.25,0.0,0.25,1.25,0.25,2.5,0.0,0.0,0.0,0.25,0.25,0.25,0.52,0.64,-0.86,48.05,9.0,20.5,1.25,1.5,1.75,2.0,3.75,2.5,0.75,0.25,0.0,2.75,0.5,1.0,1.5,-0.48,0.27,-0.8,274.67,-2.7,14.6
6.48,0.0,0.25,0.0,0.25,0.0,0.25,2.5,0.0,0.0,0.0,0.25,0.0,0.0,0.39,0.77,-0.92,44.21,19.9,28.8,1.25,1.5,1.75,1.5,3.75,2.0,0.75,0.0,0.0,2.75,0.5,1.0,1.5,-0.42,0.27,-0.73,268.65,-3.2,13.6
6.5,0.0,0.5,0.0,0.25,1.75,0.25,2.5,0.0,0.0,0.0,0.25,0.25,0.25,0.02,0.77,-1.11,59.76,7.8,28.4,1.25,1.75,1.75,1.5,3.75,2.25,0.75,0.25,0.0,3.0,0.5,1.0,1.5,-0.36,0.27,-0.73,267.21,-2.5,13.1
6.52,0.0,0.0,0.0,0.0,2.5,0.25,2.5,0.0,0.0,0.0,0.25,0.0,0.0,-0.11,0.89,-1.17,64.29,5.7,38.8,1.25,1.75,1.75,1.75,3.75,2.5,0.75,0.25,0.0,3.0,0.5,1.0,1.5,-0.36,0.27,-0.67,267.79,-2.4,14.0
6.54,0.0,0.25,0.0,0.25,2.5,0.25,2.5,0.0,0.0,0.0,0.5,0.0,1.0,-0.05,0.89,-1.17,80.26,3.5,13.6,1.25,1.75,1.75,2.0,3.75,2.5,0.75,0.25,0.0,2.75,0.5,1.0,1.5,-0.36,0.27,-0.61,270.6,-2.8,15.7
6.56,0.0,0.5,0.0,0.25,1.75,0.25,2.5,0.0,0.0,0.0,0.5,0.25,0.0,0.08,0.77,-0.98,85.01,9.0,30.5,1.25,1.5,1.75,1.75,3.75,2.75,0.75,0.0,0.0,3.0,0.5,1.0,1.5,-0.48,0.27,-0.48,271.77,-2.2,13.8
6.58,0.0,0.25,0.0,0.25,2.25,0.25,2.5,0.0,0.0,0.0,0.25,0.0,0.0,0.14,0.64,-0.92,87.95,7.3,42.2,1.25,1.25,1.75,2.0,3.75,2.5,0.75,0.0,0.0,2.5,0.5,1.0,1.5,-0.48,0.27,-0.42,269.86,-3.1,15.3
6.6,0.0,0.25,0.0,0.25,2.5,0.25,2.5,0.0,0.0,0.0,0.25,0.0,0.0,0.27,0.52,-0.8,88.41,6.7,42.8,1.25,1.5,1.75,1.75,3.75,2.0,0.75,0.25,0.0,3.0,0.5,1.0,1.5,-0.48,0.27,-0.42,267.23,-2.9,12.3
6.62,0.0,0.0,0.0,0.25,1.75,0.25,2.5,0.0,0.0,0.0,0.25,0.0,0.25,0.27,0.33,-0.8,84.5,7.1,27.9,1.25,1.5,2.0,1.75,3.75,2.5,0.75,0.25,0.0,3.0,0.5,1.0,1.75,-0.55,0.39,-0.42,268.71,-2.5,11.9
6.64,0.0,0.25,0.0,0.25,1.75,0.25,2.5,0.0,0.0,0.0,0.25,0.25,0.25,0.14,0.27,-0.73,82.04,7.5,24.5,1.25,1.75,1.75,1.5,3.75,2.25,0.75,0.25,0.0,2.75,0.5,1.0,1.5,-0.42,0.45,-0.48,267.93,-2.8,14.3
6.66,0.0,0.0,0.0,0.25,2.5,0.25,2.5,0.0,0.0,0.0,0.25,0.25,0.25,0.2,0.14,-0.73,83.59,5.5,25.6,1.25,1.75,1.75,1.75,3.75,2.0,0.75,0.5,0.0,2.75,0.5,1.0,1.5,-0.3,0.52,-0.55,268.63,-3.0,14.0
6.68,0.0,0.0,0.0,0.25,1.75,0.25,2.5,0.0,0.0,0.0,0.25,0.25,0.0,0.27,0.14,-0.73,80.27,8.5,28.2,1.25,1.0,1.75,1.25,3.75,2.25,0.25,0.0,0.0,2.5,0.5,1.0,1.5,-0.23,0.95,-0.92,260.66,-2.2,11.8
6.7,0.0,0.0,0.0,0.25,0.75,0.25,2.5,0.0,0.0,0.0,0.25,0.0,0.0,0.33,0.02,-0.67,68.3,13.4,30.0,1.25,1.0,2.0,1.25,3.75,2.0,0.25,0.25,0.0,2.75,0.5,1.0,1.5,-0.05,1.14,-1.36,255.29,-2.6,10.3
6.72,0.0,0.0,0.0,0.25,1.25,0.25,2.5,0.0,0.0,0.0,0.25,0.0,0.0,0.33,0.02,-0.67,60.66,10.5,34.0,1.25,1.0,1.75,1.5,3.75,2.0,0.25,0.0,0.0,2.75,0.5,1.0,1.5,-0.11,1.08,-1.11,248.73,-2.5,10.9
6.74,0.0,0.0,0.0,0.25,1.25,0.0,2.5,0.0,0.0,0.0,0.25,0.25,0.25,0.33,0.08,-0.67,53.24,10.8,14.1,1.25,1.25,1.75,1.25,3.75,2.25,0.25,0.0,0.0,2.5,0.5,1.0,1.5,-0.05,0.77,-0.98,245.55,-2.4,13.0
6.76,0.0,0.25,0.0,0.25,2.25,0.25,2.5,0.0,0.0,0.0,0.25,0.0,0.25,0.33,0.2,-0.8,60.68,6.2,34.4,1.25,1.0,2.0,1.5,3.75,2.0,0.25,0.25,0.0,2.75,0.5,1.0,1.75,-0.05,0.45,-0.8,246.58,-2.6,9.3
6.78,0.0,0.0,0.0,0.0,1.75,0.25,2.5,0.0,0.0,0.0,0.25,0.0,0.25,0.39,0.2,-0.8,62.36,6.5,25.9,1.25,1.0,2.0,1.5,3.75,2.0,0.25,0.0,0.0,2.75,0.5,1.0,1.5,-0.17,0.27,-0.55,247.68,-3.1,11.6
6.8,0.0,0.0,0.0,0.25,2.25,0.25,2.5,0.0,0.0,0.0,0.5,0.0,0.25,0.39,0.33,-0.73,72.09,6.1,25.9,1.25,1.0,2.0,1.25,3.75,2.0,0.25,0.0,0.0,2.5,0.5,1.0,1.5,-0.42,0.27,-0.55,246.68,-3.1,12.2
6.82,0.0,0.25,0.0,0.25,2.5,0.25,2.5,0.0,0.0,0.0,0.25,0.0,0.0,0.27,0.52,-1.05,76.96,6.7,42.8,1.25,1.0,1.75,1.25,3.75,2.0,0.25,0.0,0.0,2.5,0.5,1.0,1.5,-0.55,0.39,-0.61,243.58,-2.6,11.5
6.84,0.0,0.25,0.0,0.25,1.75,0.25,2.5,0.0,0.0,0.0,0.0,0.0,0.25,0.2,0.7,-1.23,77.33,7.3,38.1,1.25,1.0,1.75,1.5,3.75,1.75,0.25,0.0,0.0,2.75,0.5,1.0,1.5,-0.86,0.7,-0.86,241.8,-2.9,10.6
6.86,0.5,0.0,0.0,0.25,3.0,0.25,2.5,0.0,0.0,0.0,0.0,0.0,0.25,0.2,0.95,-1.42,85.34,6.6,43.9,1.25,1.25,1.75,1.25,3.75,1.75,0.25,0.0,0.0,2.75,0.5,1.0,1.5,-1.05,1.08,-1.11,240.95,-2.8,11.2
6.88,0.0,0.25,0.0,0.5,2.25,0.25,2.5,0.0,0.0,0.0,0.25,0.0,0.25,0.2,1.02,-1.55,88.21,6.7,35.6,1.25,1.0,1.75,1.25,3.75,1.75,0.25,0.0,0.0,2.25,0.5,1.0,1.5,-0.98,1.14,-1.05,239.38,-3.2,12.4
6.9,0.0,0.25,0.25,0.25,1.75,0.25,1.75,0.0,0.0,0.0,0.25,0.0,0.25,0.27,0.95,-1.55,86.68,7.2,34.1,1.25,1.0,1.75,1.25,3.75,1.75,0.25,0.0,0.0,2.75,0.5,1.0,1.75,-0.86,1.08,-0.98,240.36,-2.4,8.1
6.92,0.0,0.25,0.0,0.25,1.75,0.25,2.0,0.0,0.0,0.0,0.0,0.0,0.0,0.39,0.77,-1.36,79.92,7.1,49.0,1.25,1.0,1.75,1.5,3.75,2.5,0.25,0.0,0.0,2.25,0.5,1.0,1.75,-0.73,0.95,-0.8,243.99,-2.2,12.2
6.94,0.0,0.25,0.0,0.25,2.25,0.25,2.5,0.0,0.0,0.0,0.0,0.0,0.25,0.64,0.64,-1.36,79.17,6.0,40.0,1.25,1.0,1.75,1.25,3.75,2.75,0.0,0.25,0.0,2.0,0.5,1.0,1.5,-0.55,0.83,-0.8,245.37,-1.6,14.0
6.96,0.0,0.0,0.0,0.25,2.25,0.25,2.5,0.0,0.0,0.0,0.25,0.0,0.25,0.7,0.52,-1.36,76.94,5.9,31.0,1.25,1.0,2.0,1.5,3.75,2.0,0.25,0.25,0.0,3.0,0.5,1.0,1.75,-0.42,0.77,-0.73,250.68,-2.3,8.1
6.98,0.0,0.25,0.0,0.25,2.25,0.25,2.5,0.0,0.0,0.0,0.25,0.0,0.0,0.58,0.33,-1.36,78.25,7.3,42.2,1.25,1.0,1.75,1.25,3.75,2.0,0.25,0.0,0.0,2.25,0.5,1.0,1.5,-0.36,0.7,-0.67,248.26,-2.9,12.7
7.0,0.0,0.25,0.0,0.5,1.75,0.25,2.5,0.0,0.0,0.0,0.25,0.0,0.0,0.39,0.14,-1.17,77.28,9.2,41.6,1.25,1.0,1.75,1.25,3.75,2.0,0.25,0.0,0.0,2.5,0.75,1.0,1.5,-0.36,0.64,-0.67,247.28,-2.7,10.2
7.02,0.0,0.0,0.0,0.25,1.75,0.25,2.5,0.0,0.0,0.0,0.5,0.0,0.0,0.33,0.08,-1.05,75.09,8.6,30.4,1.25,1.25,1.75,1.25,3.75,1.25,0.25,0.0,0.0,3.0,0.5,1.0,1.5,-0.23,0.52,-0.67,244.41,-3.3,9.3
7.04,0.0,0.25,0.0,0.25,1.75,0.25,2.5,0.0,0.0,0.0,0.25,0.0,0.0,0.33,0.08,-0.86,71.07,8.7,40.6,1.25,1.0,1.75,1.25,3.75,1.5,0.25,0.0,0.0,3.0,0.75,1.0,1.5,-0.23,0.52,-0.8,244.28,-2.9,7.1
7.06,0.0,0.5,0.0,0.75,1.75,0.25,2.5,0.0,0.0,0.0,0.25,0.0,0.25,0.27,0.02,-0.67,74.9,8.7,37.8,1.25,1.0,1.75,1.25,3.75,2.0,0.25,0.0,0.0,2.5,0.75,1.0,1.5,-0.23,0.58,-0.8,243.82,-2.7,10.2
7.08,0.0,0.25,0.0,0.25,1.25,0.25,2.5,0.0,0.0,0.0,0.25,0.25,0.0,0.2,0.02,-0.42,71.94,10.5,29.1,1.25,1.0,1.75,1.25,3.75,1.75,0.25,0.0,0.0,2.5,0.75,1.0,1.5,-0.23,0.58,-0.86,243.39,-3.1,9.9
7.1,0.0,0.0,0.0,0.25,1.25,0.25,2.5,0.0,0.0,0.0,0.25,0.25,0.0,0.08,-0.05,-0.42,67.05,10.4,24.1,1.25,1.0,1.75,1.25,3.75,2.0,0.25,0.0,0.0,2.25,0.5,1.0,1.5,-0.23,0.52,-0.86,242.03,-2.9,12.7
