time,left pressure 0[N/cm虏],left pressure 1[N/cm虏],left pressure 2[N/cm虏],left pressure 3[N/cm虏],left pressure 4[N/cm虏],left pressure 5[N/cm虏],left pressure 6[N/cm虏],left pressure 7[N/cm虏],left pressure 8[N/cm虏],left pressure 9[N/cm虏],left pressure 10[N/cm虏],left pressure 11[N/cm虏],left pressure 12[N/cm虏],left acceleration X[g],left acceleration Y[g],left acceleration Z[g],left total force[N],left center of pressure X[mm],left center of pressure Y[mm],right pressure 0[N/cm虏],right pressure 1[N/cm虏],right pressure 2[N/cm虏],right pressure 3[N/cm虏],right pressure 4[N/cm虏],right pressure 5[N/cm虏],right pressure 6[N/cm虏],right pressure 7[N/cm虏],right pressure 8[N/cm虏],right pressure 9[N/cm虏],right pressure 10[N/cm虏],right pressure 11[N/cm虏],right pressure 12[N/cm虏],right acceleration X[g],right acceleration Y[g],right acceleration Z[g],right total force[N],right center of pressure X[mm],right center of pressure Y[mm]
0.02,1.75,0.5,2.25,1.75,0.75,1.75,2.75,1.25,0.75,2.5,1.25,2.0,2.0,-0.17,-0.23,1.33,188.6,6.9,-10.2,2.0,1.75,0.5,3.25,5.0,1.75,0.0,1.75,0.75,0.25,0.0,1.0,0.25,0.45,-0.17,0.39,149.46,-4.7,36.9
0.04,1.75,0.5,2.75,1.75,0.75,1.75,2.75,1.25,1.0,2.5,0.75,3.25,3.25,0.33,-0.3,0.83,253.89,6.5,-18.6,2.25,1.5,0.5,2.75,5.0,1.5,0.5,1.75,0.75,2.0,0.25,1.0,1.0,0.14,-0.11,0.45,164.53,-3.0,20.4
0.06,1.75,0.5,2.75,1.75,0.75,1.75,2.75,2.0,1.0,2.5,2.0,4.75,4.5,0.33,-0.05,1.02,311.03,5.2,-30.9,2.0,1.75,0.5,3.0,5.0,1.25,0.5,1.75,0.75,1.75,0.75,1.0,0.75,-0.17,-0.17,0.64,197.28,-3.8,21.3
0.08,1.75,0.5,3.0,1.5,0.0,1.75,2.0,1.0,1.25,2.0,0.0,5.5,4.5,0.08,0.08,1.2,343.07,6.4,-32.5,2.0,1.75,0.5,2.75,5.0,1.25,0.5,1.5,0.75,3.0,0.25,1.0,0.5,-0.23,-0.23,0.83,226.36,-2.8,19.6
0.1,1.5,0.25,3.0,0.75,0.75,1.25,3.25,3.0,1.0,1.25,3.0,6.0,6.0,-0.61,0.2,1.2,384.67,4.9,-43.3,2.0,1.75,0.5,2.75,5.0,0.25,0.5,1.5,0.75,1.5,1.0,1.0,0.25,-0.05,-0.23,0.83,245.88,-6.0,24.5
0.12,0.75,0.25,2.0,1.25,0.5,1.0,1.75,1.0,1.0,2.5,1.25,6.5,6.0,-0.17,-0.11,0.95,392.14,2.9,-54.5,2.0,1.75,0.5,2.5,5.0,0.5,0.5,1.25,0.75,2.0,0.25,0.75,0.25,0.02,-0.23,0.89,252.77,-5.0,28.0
0.14,1.75,0.25,2.0,2.75,0.75,2.0,3.0,1.75,1.75,4.5,3.0,6.75,7.0,-0.17,0.02,0.95,456.65,2.8,-44.5,2.0,1.75,0.5,2.75,5.0,0.5,0.5,1.25,0.75,2.0,0.0,1.0,1.25,0.02,-0.11,1.02,259.48,-4.1,20.8
0.16,1.75,0.5,3.0,3.25,0.75,2.5,1.75,3.25,2.0,5.5,3.0,7.5,7.75,-0.17,0.02,0.95,535.9,1.9,-42.7,2.0,1.75,0.25,1.5,5.0,0.0,0.5,1.5,0.75,2.0,1.25,1.0,1.25,0.14,-0.05,1.14,262.9,-3.6,10.6
0.18,1.75,0.75,3.25,3.25,3.5,3.75,2.5,3.25,2.25,5.25,3.0,7.0,8.25,-0.11,-0.05,0.95,638.91,1.3,-32.2,1.75,1.5,0.25,1.75,5.0,0.0,0.5,1.25,0.25,2.25,0.25,1.0,1.25,0.33,0.08,1.27,259.04,-2.6,14.4
0.2,1.75,1.0,3.25,3.25,1.75,3.25,2.75,5.0,2.75,6.5,3.75,8.25,8.5,-0.11,-0.05,0.95,735.72,1.2,-39.7,2.0,1.5,0.25,1.5,4.5,0.0,0.5,1.25,0.5,1.5,0.5,1.0,1.0,0.39,0.27,1.39,247.76,-4.4,17.5
0.22,1.75,1.25,3.75,3.25,2.5,4.0,3.25,5.25,2.75,7.5,3.75,8.25,9.0,-0.11,-0.05,0.95,829.65,0.8,-36.7,2.0,1.5,0.25,1.75,5.0,0.0,0.5,1.25,0.5,2.0,1.25,0.75,0.75,0.52,0.39,1.58,246.69,-4.3,16.5
0.24,1.75,1.0,3.25,3.25,3.0,4.0,2.75,6.0,3.0,7.5,4.0,8.5,9.5,-0.11,-0.05,0.95,894.82,0.0,-38.8,1.75,1.5,0.0,1.5,5.0,1.0,0.5,1.5,0.75,2.25,1.0,0.75,1.0,0.58,0.52,1.77,249.34,-1.1,12.0
0.26,1.75,0.5,3.25,3.25,3.0,4.5,4.0,6.0,3.25,7.75,0.0,8.75,9.25,-0.17,-0.05,0.95,915.67,-0.6,-36.2,2.0,1.75,0.25,1.25,5.0,0.5,0.5,1.5,0.75,2.0,0.25,1.0,1.0,0.77,0.83,1.89,248.38,-2.6,16.8
0.28,1.75,1.0,3.75,3.5,3.5,4.0,2.75,5.75,3.25,7.75,3.5,8.25,9.25,-0.17,-0.05,0.95,941.42,0.4,-35.7,2.0,1.75,0.5,1.0,5.0,1.25,0.5,1.0,0.75,2.0,1.25,1.0,0.75,0.83,1.33,1.7,253.95,-3.1,15.9
0.3,1.75,1.25,3.75,3.25,3.5,4.0,2.75,6.25,3.25,7.75,3.5,8.25,9.25,-0.17,-0.05,0.95,949.84,0.2,-35.6,0.5,0.25,0.5,0.0,5.0,0.0,0.5,1.0,0.25,0.0,0.0,0.0,0.25,0.45,1.95,1.7,217.37,-1.2,39.0
0.32,2.0,1.5,3.75,3.25,3.75,4.25,3.75,6.5,3.25,7.5,4.25,8.25,8.75,-0.11,-0.05,0.95,967.56,0.8,-32.9,0.5,0.25,0.0,1.25,1.25,0.5,0.0,0.0,0.0,0.5,0.0,0.0,0.25,-0.11,2.7,1.2,160.42,-3.2,37.0
0.34,1.5,1.25,4.5,3.25,3.75,4.5,4.25,6.5,3.25,7.5,5.5,8.25,8.75,-0.11,-0.05,0.95,979.52,1.2,-33.6,0.5,0.25,0.0,0.5,1.25,0.75,0.0,0.25,0.0,0.0,0.0,0.0,0.25,-0.73,4.08,0.39,97.34,0.0,42.2
0.36,2.0,1.75,4.0,3.5,3.75,5.25,4.0,6.75,3.5,7.5,5.0,7.5,8.75,-0.11,-0.05,0.95,990.82,0.8,-30.1,0.5,0.25,0.0,0.75,1.25,1.25,0.0,0.0,0.0,1.5,0.0,0.0,0.0,-3.61,6.27,0.02,61.96,3.9,21.4
0.38,1.75,1.25,4.0,3.25,4.25,5.25,4.0,6.75,3.5,7.5,4.75,7.5,8.5,-0.17,-0.05,0.95,974.1,0.4,-30.7,0.5,0.0,0.0,0.0,1.25,1.0,0.0,0.0,0.0,2.0,0.0,0.0,0.0,0.58,-0.3,0.39,39.92,8.5,0.8
0.4,1.75,1.5,4.0,3.25,4.75,5.75,3.75,6.75,3.5,7.5,4.0,7.5,8.25,-0.17,-0.05,0.95,956.05,0.1,-28.1,0.5,0.5,0.0,0.0,1.25,1.0,0.0,0.0,0.25,2.0,1.25,1.25,0.5,-0.3,0.27,0.95,55.7,1.7,-27.7
0.42,2.0,1.25,3.75,3.25,5.25,6.0,4.5,7.25,3.5,7.5,4.75,7.0,7.75,-0.17,-0.05,0.95,946.68,0.2,-26.5,0.5,0.25,0.0,0.0,1.25,0.0,0.0,0.0,0.75,4.5,1.5,3.75,2.25,0.14,0.08,2.02,110.96,1.9,-66.6
0.44,2.0,1.25,4.25,3.25,5.25,6.25,4.75,7.25,4.0,7.5,4.75,6.75,7.75,-0.17,-0.05,0.95,947.42,0.5,-25.2,0.5,0.0,0.0,0.5,0.0,0.0,0.0,0.0,0.0,5.5,3.5,5.25,4.75,0.64,0.14,3.33,187.3,2.2,-85.3
0.46,2.0,0.5,4.25,3.25,5.25,7.0,4.75,7.5,4.0,7.0,4.75,5.75,7.0,-0.17,-0.05,0.95,940.17,0.2,-23.3,0.75,0.5,0.0,0.0,0.0,2.0,0.0,0.0,0.75,7.0,5.5,6.0,6.25,-0.11,0.2,1.2,278.83,3.1,-74.8
0.48,2.25,0.5,4.25,3.5,5.25,7.25,5.0,7.5,4.25,6.5,4.0,5.75,6.75,-0.17,-0.05,0.95,934.72,0.5,-20.8,2.0,1.75,1.0,0.0,3.75,4.5,1.5,4.5,0.0,8.25,7.25,6.0,7.0,0.14,0.08,1.08,435.68,2.8,-41.6
0.5,1.75,0.25,4.5,4.0,6.5,8.0,5.0,7.25,4.25,5.0,1.25,3.75,5.25,-0.17,-0.05,0.95,894.76,0.2,-8.7,1.5,2.0,0.5,3.0,5.0,4.5,1.5,4.5,3.0,8.25,7.25,6.25,8.0,0.14,0.08,0.95,647.06,1.7,-36.3
0.52,2.75,0.75,3.75,4.5,6.75,8.25,5.5,7.75,4.25,6.25,2.75,3.5,5.25,-0.17,-0.05,0.95,889.03,0.3,-8.6,2.0,1.5,0.5,3.0,5.0,4.25,1.5,5.0,2.75,8.25,7.5,7.25,8.0,0.14,0.02,0.95,837.34,1.4,-38.2
0.54,3.25,0.75,4.5,5.25,7.75,9.0,5.25,8.0,4.25,5.0,2.75,3.25,5.0,-0.17,-0.05,0.95,908.43,1.1,-2.5,2.0,1.75,0.5,3.0,5.0,5.0,1.75,4.75,3.25,8.5,7.75,7.0,8.0,0.14,0.02,0.95,979.81,1.4,-36.6
0.56,3.0,1.75,4.5,5.5,8.75,9.5,5.5,8.0,4.25,5.0,2.75,3.25,3.75,-0.17,-0.05,0.95,955.8,1.3,2.4,2.25,1.5,0.5,3.0,5.0,5.5,1.75,5.5,3.25,8.75,8.0,6.5,8.75,0.14,0.02,0.95,1065.71,1.9,-36.8
0.58,4.0,1.75,4.5,7.0,9.75,9.75,5.75,8.0,4.25,4.75,2.75,2.5,3.5,-0.17,-0.05,0.95,1019.6,2.1,8.1,2.0,1.75,2.75,3.0,5.0,5.0,1.75,5.5,3.0,8.75,8.0,7.5,8.5,0.14,0.02,0.95,1114.2,0.2,-34.4
0.6,4.5,1.75,4.5,7.0,11.5,10.5,6.0,8.0,3.75,4.25,2.75,2.0,3.5,-0.17,-0.05,1.02,1091.53,2.0,12.2,2.25,1.5,0.5,3.0,5.0,5.5,1.5,5.5,2.5,8.5,7.75,7.25,8.25,0.14,0.02,0.89,1112.37,1.9,-36.8
0.62,4.75,2.5,4.5,8.75,12.5,11.5,5.75,8.0,3.5,4.75,2.5,2.0,3.25,-0.23,-0.05,1.14,1183.02,2.0,15.8,2.0,1.75,0.5,3.0,5.0,5.5,1.75,5.5,3.25,8.5,6.75,6.5,8.25,0.14,0.02,0.95,1086.47,2.1,-35.1
0.64,5.75,3.25,5.0,10.5,14.5,12.0,5.75,8.0,3.0,4.0,2.5,2.0,3.0,-0.17,0.02,1.02,1301.9,2.9,21.7,2.5,1.5,0.5,3.0,5.0,5.5,1.75,5.5,3.75,7.75,7.25,6.5,8.0,0.14,0.02,0.95,1037.95,1.4,-34.1
0.66,7.0,3.5,5.0,11.0,15.0,12.0,5.0,7.75,2.75,4.0,1.25,2.0,2.75,-0.23,0.02,1.2,1377.93,3.3,25.9,2.25,1.75,1.0,3.25,5.25,5.5,2.25,5.5,4.0,8.0,7.0,6.25,7.75,0.14,0.02,0.95,991.95,1.0,-31.5
0.68,7.75,3.5,6.0,11.0,15.5,12.0,4.5,7.75,1.75,3.25,2.0,2.0,2.0,-0.3,0.08,1.2,1435.31,4.2,29.3,2.75,1.75,2.25,3.25,5.25,6.0,2.25,5.5,4.25,7.75,6.75,5.75,7.5,0.14,0.02,0.95,956.31,0.0,-26.7
0.7,8.75,3.5,6.0,11.0,15.5,11.5,1.75,7.5,1.5,3.0,1.75,2.0,1.75,-0.3,0.14,1.33,1455.96,4.4,31.8,3.0,1.75,2.75,3.25,5.75,6.0,2.75,5.5,4.5,6.75,6.25,5.25,6.25,0.14,0.02,0.95,921.61,-0.9,-20.7
0.72,9.5,3.5,4.75,8.75,14.5,10.5,2.0,7.25,1.0,2.75,1.5,1.75,1.75,-0.42,0.2,1.64,1418.07,4.3,32.6,3.75,2.25,2.75,3.25,6.75,6.25,3.0,5.5,4.75,6.75,5.5,4.0,5.5,0.14,0.02,0.95,898.96,-1.3,-12.9
0.74,10.0,3.75,4.5,7.0,12.5,9.25,1.5,6.75,1.0,2.5,1.25,1.75,1.5,-0.8,0.33,1.83,1331.69,5.0,33.7,3.75,2.0,3.25,4.0,7.0,6.5,3.25,5.5,4.75,5.75,5.5,3.25,4.5,0.14,0.02,0.95,886.11,-2.2,-7.1
0.76,9.0,3.25,4.5,5.25,9.0,7.5,1.5,5.75,1.0,2.0,1.25,1.75,1.5,-0.86,0.7,2.33,1137.51,6.1,32.0,4.5,2.5,4.25,5.5,7.25,6.5,3.75,5.25,4.5,5.5,4.5,2.5,3.75,0.14,0.02,0.95,897.06,-3.9,2.6
0.78,5.75,0.5,4.25,1.75,7.5,5.0,0.75,4.5,0.25,0.0,1.25,0.25,1.5,-0.92,0.27,2.08,830.04,5.6,33.1,5.5,2.5,5.5,5.5,8.25,7.0,4.25,4.75,4.25,5.25,4.5,2.5,3.25,0.14,0.08,0.95,929.32,-5.2,8.3
0.8,2.25,0.5,0.0,1.0,0.0,2.5,0.0,0.25,0.0,0.0,0.0,0.0,0.0,-0.8,-0.23,1.77,431.52,6.3,61.8,6.25,3.0,5.5,7.25,8.5,7.25,4.25,4.5,4.0,4.75,4.0,1.75,2.25,0.14,0.08,0.95,971.17,-6.3,17.0
0.82,2.0,1.25,0.0,1.0,0.0,1.75,0.5,1.0,0.25,0.0,0.0,0.0,0.25,-0.11,-0.36,2.14,208.75,6.8,47.0,7.0,3.0,7.0,8.75,9.5,7.5,4.75,4.5,3.5,4.75,3.25,1.5,2.25,0.14,0.08,0.95,1041.96,-7.3,22.5
0.84,1.0,0.25,3.0,0.5,0.75,0.5,1.25,1.0,0.25,0.0,0.5,0.0,1.5,-0.61,-1.23,2.64,41.55,13.9,15.9,8.0,3.25,8.0,9.25,11.0,7.75,5.25,4.5,3.25,3.75,3.25,1.25,2.25,0.14,0.08,1.02,1133.67,-8.2,27.5
0.86,2.0,1.25,3.25,2.25,1.75,2.0,1.5,1.0,0.25,1.75,1.25,0.25,1.5,-0.92,-1.17,1.77,10.39,9.0,19.2,8.75,3.25,8.0,11.0,11.0,7.75,5.25,4.25,3.25,4.5,2.75,1.25,2.0,0.08,0.08,1.02,1227.31,-8.6,29.3
0.88,0.0,0.0,3.0,0.25,0.75,0.5,1.5,1.0,0.25,0.0,0.0,0.25,0.0,-0.61,-0.67,0.64,0.0,17.5,30.4,9.25,4.0,8.75,11.0,12.5,7.75,5.25,4.0,3.0,3.5,2.75,1.25,2.25,0.08,0.08,1.02,1313.45,-9.2,32.8
0.9,0.25,0.25,1.75,0.5,0.0,0.75,1.5,1.0,0.25,0.0,1.25,0.0,0.25,-0.42,-0.48,0.33,0.0,13.2,9.2,8.75,3.75,8.75,12.0,12.0,7.75,4.5,3.75,2.75,3.5,2.5,1.25,1.25,0.02,0.14,1.02,1346.15,-9.5,35.2
0.92,1.75,0.5,2.5,1.75,0.75,1.75,2.25,1.0,0.25,0.25,1.25,1.25,1.5,-0.3,-0.36,0.33,0.0,11.0,9.0,9.5,3.25,8.75,11.0,12.5,7.5,4.0,3.25,1.5,3.0,1.25,1.0,0.75,0.08,0.14,1.2,1333.42,-10.0,41.6
0.94,0.75,0.5,1.25,0.75,0.0,0.25,1.5,0.5,0.25,0.0,0.0,0.25,0.0,-0.42,-0.36,0.77,0.0,20.7,41.0,9.5,2.75,8.75,11.0,12.5,0.0,3.0,3.0,2.0,2.75,1.25,1.0,0.25,0.2,0.2,1.33,1235.39,-14.3,43.7
0.96,0.0,0.25,1.75,0.25,0.0,0.25,1.5,0.75,0.25,0.0,0.0,0.25,0.0,-0.48,-0.3,0.95,0.0,19.3,24.8,9.75,3.0,8.75,8.25,10.5,0.0,1.75,2.25,1.0,1.5,2.0,0.75,0.0,0.2,0.27,1.52,1067.19,-16.2,48.8
0.98,0.0,0.25,1.5,0.25,0.0,0.25,1.5,0.5,0.0,0.0,0.0,0.0,0.0,-0.42,-0.17,0.95,0.0,21.7,40.7,9.75,2.75,8.0,7.5,8.75,3.25,0.25,1.75,1.0,2.0,1.0,0.75,0.0,0.14,0.33,1.77,909.51,-14.0,49.5
1.0,0.25,0.25,1.25,1.0,0.0,0.25,1.5,0.5,0.25,0.0,0.0,0.25,0.0,-0.36,-0.05,1.2,9.04,19.5,33.3,9.5,3.0,7.25,7.5,8.5,3.0,0.5,0.5,0.75,1.25,0.0,0.25,0.0,0.39,0.45,2.08,767.13,-15.4,59.2
1.02,0.0,0.0,1.0,1.0,0.0,0.25,1.5,0.5,0.0,0.0,0.0,0.25,0.25,-0.42,0.08,1.39,29.51,16.2,18.8,8.75,2.0,7.0,5.5,6.5,1.25,1.25,0.0,0.25,1.25,0.0,0.0,0.25,0.58,0.58,2.39,616.91,-18.5,61.4
1.04,0.0,0.25,1.25,0.25,0.0,0.25,1.5,0.5,0.0,0.0,0.0,0.25,0.0,-0.48,0.2,1.64,49.01,19.5,28.5,7.25,1.5,4.5,3.25,5.25,1.5,1.25,0.0,0.0,0.25,0.0,0.0,0.25,0.77,0.45,2.08,453.38,-18.1,65.6
1.06,0.5,0.5,1.0,2.25,0.0,0.75,1.5,0.0,0.25,0.75,0.0,1.5,0.0,-0.61,0.39,1.83,67.24,13.8,13.2,3.75,0.75,1.25,1.25,5.0,0.75,0.5,0.0,0.25,0.25,0.0,0.0,0.0,0.58,0.33,2.02,291.46,-12.4,62.7
1.08,1.25,0.5,2.75,2.25,0.5,0.5,2.25,1.0,0.25,1.0,1.0,1.5,1.5,-0.8,0.52,2.33,118.26,12.5,1.3,0.75,1.5,0.0,3.25,1.75,2.5,0.25,0.25,0.25,0.25,0.0,0.0,0.25,0.14,-0.42,1.7,173.11,-3.3,48.7
1.1,1.75,0.5,3.0,1.75,0.5,0.25,2.25,1.0,0.25,0.75,0.5,1.5,1.5,-0.92,1.08,2.45,163.22,14.7,6.8,0.0,1.75,0.0,3.25,1.25,2.25,0.5,0.5,0.75,2.0,0.0,1.0,0.0,0.02,-0.36,2.27,85.09,-1.0,16.8
1.12,1.75,0.5,3.0,1.75,0.5,0.75,2.0,1.0,0.25,0.75,0.0,1.5,0.25,-0.92,2.08,2.52,200.13,16.1,22.1,0.0,0.75,0.5,0.75,5.0,1.0,1.0,0.0,0.25,0.75,0.0,0.0,0.25,0.95,-1.17,1.89,33.03,-0.5,39.2
1.14,1.75,0.5,2.25,2.25,0.0,1.0,2.0,1.0,0.25,1.0,2.0,1.5,1.5,-0.73,3.39,1.89,220.36,11.6,-3.5,1.25,1.5,0.0,0.75,5.0,1.0,1.0,1.25,0.75,2.0,1.25,1.0,0.75,0.89,-1.05,0.95,58.23,-0.9,8.7
1.16,0.25,0.0,3.0,0.5,0.5,0.25,2.0,1.0,0.0,0.0,0.0,0.0,0.5,-0.17,4.83,0.39,195.13,18.9,29.6,0.5,0.75,0.5,0.75,3.75,1.0,0.5,0.0,0.25,0.25,0.0,0.0,0.25,0.27,-0.67,0.58,53.67,-3.0,46.8
1.18,0.25,0.0,1.0,0.25,0.0,0.0,1.25,1.0,0.0,0.0,0.75,0.0,0.5,2.64,7.95,1.14,160.76,12.7,-7.5,0.0,0.75,0.0,2.5,1.25,1.0,0.5,0.0,0.5,2.0,0.0,1.0,0.25,0.02,-0.48,0.39,61.69,-1.6,3.7
1.2,1.25,0.25,1.5,2.75,0.0,1.75,1.25,1.0,0.25,2.5,1.25,2.5,1.75,-0.55,-0.61,3.45,176.23,5.2,-18.7,1.5,1.25,0.5,2.75,5.0,1.0,1.0,0.25,0.5,1.0,1.25,1.0,1.5,-0.05,-0.23,0.39,106.49,-5.1,18.2
1.22,0.0,0.25,2.25,1.0,0.0,1.0,1.5,2.25,0.25,1.25,0.25,3.25,3.5,-0.3,0.39,-0.11,197.87,2.4,-42.2,1.75,1.5,0.5,2.5,5.0,1.25,0.75,0.0,0.25,0.25,1.25,1.0,1.25,-0.11,-0.23,0.7,153.88,-6.2,27.5
1.24,0.25,0.0,1.75,0.5,0.0,1.75,1.25,3.0,0.5,2.75,1.25,5.75,5.25,-0.42,0.2,2.14,257.06,-1.2,-60.7,2.0,1.5,0.0,2.0,5.0,0.75,0.75,1.25,0.25,0.25,1.25,1.0,1.25,-0.11,-0.3,0.95,198.84,-4.5,21.7
1.26,1.75,0.5,0.75,1.75,0.0,3.0,1.5,4.5,1.5,4.5,2.75,6.75,7.25,-1.61,0.95,1.64,350.95,-1.6,-51.9,0.5,0.5,0.0,0.5,1.25,0.0,0.5,0.0,0.0,0.0,0.0,0.25,0.25,-0.05,-0.17,0.95,170.09,-9.0,42.0
1.28,1.5,0.5,3.25,2.75,0.0,3.5,1.5,4.25,2.0,5.25,2.75,7.0,8.0,0.14,-0.05,1.02,477.62,0.6,-43.7,0.5,0.75,0.0,0.5,1.25,0.5,0.5,0.25,0.0,0.0,0.0,0.0,0.25,-0.05,-0.05,1.02,136.82,-4.4,48.4
1.3,0.0,0.25,2.5,1.75,0.5,2.5,0.5,4.75,1.5,5.0,1.25,6.0,7.0,-0.11,0.02,1.02,532.85,-2.6,-52.3,0.5,0.5,0.0,0.5,1.25,1.0,0.5,0.25,0.0,0.0,0.0,0.0,0.25,-0.11,0.02,1.14,90.37,-1.1,44.1
1.32,0.5,0.25,2.25,1.75,0.0,3.0,2.75,4.75,1.75,6.25,2.75,6.75,7.5,-0.17,0.02,0.95,590.31,-1.4,-52.9,0.5,0.5,0.0,0.5,1.25,0.5,0.25,0.0,0.0,0.0,0.0,0.0,0.25,-0.05,0.14,1.33,61.23,-4.3,51.4
1.34,0.0,0.25,2.0,1.75,0.5,3.0,3.5,4.75,1.75,6.25,2.75,6.75,7.75,-0.17,-0.05,0.95,622.47,-1.9,-53.6,1.75,1.5,0.0,1.5,1.25,0.5,0.25,0.25,0.25,0.25,0.0,1.0,0.25,0.08,0.27,1.77,71.21,-10.4,37.0
1.36,0.5,0.0,2.0,2.0,0.5,3.5,3.5,4.75,2.0,6.5,2.5,7.25,7.75,-0.11,-0.05,0.95,655.32,-1.6,-51.7,1.75,1.5,0.5,1.5,5.0,1.0,0.75,1.25,0.25,1.75,1.25,1.0,1.25,0.2,0.39,2.08,143.4,-2.7,13.3
1.38,2.0,0.25,2.25,3.75,0.5,4.5,3.5,4.75,2.25,6.5,2.75,7.25,7.75,-0.17,-0.05,0.95,698.14,0.1,-39.6,1.75,1.5,0.25,1.5,5.0,1.0,0.25,1.75,0.25,2.25,1.25,1.0,1.25,0.39,0.89,2.52,203.35,-0.9,8.9
1.4,1.75,0.0,4.25,3.25,2.25,5.0,3.5,5.0,3.0,6.75,3.5,8.0,7.75,-0.11,-0.05,0.95,776.94,1.2,-35.3,2.0,1.5,0.5,1.5,4.75,1.25,0.5,1.5,0.25,2.5,1.25,1.0,1.0,0.58,1.83,2.83,252.15,-2.0,11.5
1.42,1.75,0.75,4.25,3.5,4.25,5.0,4.5,6.5,3.25,7.5,5.0,7.5,8.75,-0.17,-0.05,0.95,874.51,0.8,-31.5,1.5,1.5,0.5,1.75,5.0,0.75,0.5,1.5,0.25,2.0,1.25,1.0,1.0,0.58,2.89,2.27,270.44,-2.4,12.4
1.44,2.0,0.0,4.25,3.0,4.25,5.5,4.5,6.75,3.25,7.5,5.0,7.5,8.75,-0.11,-0.05,0.95,940.94,0.4,-33.0,1.25,1.75,0.5,1.75,4.75,0.5,0.5,0.0,0.25,2.0,1.25,1.0,1.25,0.89,3.89,-0.61,269.82,-4.0,14.1
1.46,2.25,0.0,4.25,2.75,4.75,5.75,4.5,6.75,3.5,7.5,5.0,7.5,8.5,-0.17,-0.05,0.95,996.55,0.4,-31.5,1.0,2.0,0.5,1.75,5.0,1.25,0.5,0.25,0.25,0.5,1.25,0.0,1.25,-1.11,5.14,-1.05,265.41,-3.6,31.1
1.48,1.75,0.5,4.25,3.25,5.0,6.0,4.5,6.75,3.5,7.5,5.0,7.5,8.0,-0.11,-0.05,0.95,1008.12,0.4,-29.3,1.25,1.5,0.0,1.25,1.25,1.5,0.0,0.0,0.25,2.0,0.5,1.25,1.0,-5.48,6.45,3.27,244.35,-1.6,1.8
1.5,2.25,1.25,4.25,2.75,5.0,6.25,4.5,6.75,3.75,7.5,5.0,7.0,7.75,-0.11,-0.05,0.95,1007.22,0.6,-26.3,1.0,1.5,0.0,1.0,3.25,1.25,0.5,0.25,0.25,3.25,2.0,1.5,1.0,1.33,-0.86,2.83,246.89,-0.3,-7.9
1.52,2.5,1.75,4.25,3.25,5.25,6.0,4.5,6.75,4.0,6.5,4.75,6.75,7.75,-0.17,-0.05,0.95,1009.84,1.3,-22.7,1.25,1.5,0.0,0.75,3.5,1.25,0.5,0.0,0.75,3.75,2.5,3.0,2.25,0.27,0.2,0.14,254.82,-0.5,-23.6
1.54,2.75,1.75,4.25,3.25,5.25,6.0,4.75,6.75,4.25,6.25,4.75,6.5,7.0,-0.17,-0.05,0.95,1012.44,1.7,-20.6,0.75,1.75,0.25,0.0,4.75,0.0,0.5,0.0,0.5,4.75,3.25,4.0,4.75,-0.11,0.08,1.7,287.95,0.7,-39.8
1.56,2.75,1.75,4.5,3.25,5.25,6.0,5.0,6.75,4.75,6.25,4.75,5.75,6.75,-0.11,-0.05,0.95,999.74,2.0,-18.8,2.0,1.25,0.0,0.0,4.75,1.0,0.5,0.0,1.25,6.75,4.75,6.0,6.25,0.45,0.7,2.77,360.63,0.7,-46.6
1.58,3.0,1.0,4.5,3.25,5.25,6.0,5.25,6.75,4.75,5.5,5.0,5.75,6.25,-0.11,-0.05,0.95,976.72,2.5,-18.5,2.0,1.5,0.5,0.5,5.0,2.25,0.0,0.0,1.25,7.75,5.5,6.0,7.5,0.2,0.02,1.27,457.06,1.3,-43.5
1.6,3.0,1.25,4.5,3.25,5.25,6.75,5.25,6.75,5.0,5.5,5.25,5.75,6.0,-0.11,-0.05,0.95,961.27,2.4,-17.3,0.75,1.5,0.5,0.5,1.25,3.75,1.5,0.0,1.25,7.75,6.0,6.0,6.5,0.14,0.08,0.95,524.29,1.9,-53.8
1.62,3.25,1.5,4.5,3.25,5.25,7.0,5.75,6.75,5.25,5.0,4.75,5.0,5.5,-0.11,-0.05,0.95,939.66,2.7,-13.2,2.0,1.5,0.5,1.25,1.5,4.5,1.25,0.0,1.75,7.75,5.75,6.0,7.5,0.14,0.02,0.95,588.5,1.2,-46.3
1.64,4.0,1.5,4.5,5.0,5.5,7.0,6.0,6.75,5.5,5.0,5.0,4.75,5.25,-0.11,-0.11,0.95,948.35,3.6,-9.1,2.0,1.75,0.5,1.5,5.0,3.25,2.0,0.0,1.75,8.25,6.25,6.5,7.75,0.2,0.02,0.95,652.63,0.4,-39.2
1.66,5.0,1.0,4.5,5.25,6.5,7.25,6.5,6.75,5.75,5.0,5.0,3.5,4.25,-0.11,-0.11,0.95,965.53,4.2,-3.2,0.75,1.75,0.5,2.75,3.25,5.75,1.5,0.0,2.0,8.5,6.5,6.5,8.0,0.2,0.02,0.89,712.39,1.9,-41.3
1.68,5.5,1.75,4.5,5.5,7.5,8.0,7.0,6.75,5.75,5.0,4.75,3.25,3.75,-0.11,-0.11,0.95,1015.19,4.3,1.9,2.0,1.5,0.5,3.0,3.25,5.75,1.5,0.0,1.75,8.25,5.75,6.75,8.0,0.2,0.02,0.95,754.14,1.1,-37.8
1.7,6.0,2.5,5.75,7.0,7.5,8.25,7.75,6.75,5.5,4.75,4.0,3.0,3.25,-0.11,-0.11,1.02,1078.13,5.7,8.7,1.75,1.75,0.5,2.5,5.0,5.75,1.5,0.0,1.5,8.5,7.0,6.5,7.75,0.2,0.02,0.95,790.04,1.3,-35.4
1.72,7.0,2.75,6.25,8.25,9.0,9.0,8.25,6.75,5.25,4.0,3.25,2.0,3.25,-0.11,-0.11,1.02,1162.73,6.2,16.4,0.75,1.5,0.0,0.75,3.0,5.5,1.25,0.0,1.75,9.0,6.75,6.25,8.75,0.14,0.02,0.95,782.88,3.8,-50.5
1.74,7.75,3.5,7.5,8.75,11.5,9.0,8.75,6.75,5.0,3.5,2.75,2.0,2.25,-0.11,-0.11,1.08,1270.15,7.3,23.6,0.5,1.0,0.5,3.0,5.0,6.0,1.0,0.0,2.0,8.5,7.0,6.5,7.75,0.14,0.02,0.95,773.66,2.4,-39.7
1.76,8.75,3.5,8.25,11.0,12.0,9.0,8.75,6.5,4.75,2.75,2.75,2.0,2.0,-0.17,-0.11,1.14,1362.7,8.5,27.8,2.0,1.75,0.5,3.0,2.25,6.0,1.0,0.0,2.0,8.75,6.25,6.25,8.75,0.2,0.02,0.89,755.47,1.6,-40.4
1.78,9.75,3.5,8.75,11.5,12.5,8.25,8.75,6.0,4.0,2.75,1.75,2.0,2.75,-0.17,0.02,1.02,1429.89,9.1,30.2,0.75,0.75,0.0,1.25,2.75,5.75,1.5,0.0,1.5,9.0,6.75,6.5,8.25,0.2,0.02,0.89,724.99,3.7,-51.6
1.8,9.75,1.75,8.75,10.5,11.5,7.25,8.0,4.75,2.75,2.25,1.0,1.75,1.25,-0.17,0.02,1.45,1407.07,10.5,35.5,2.0,1.5,0.25,3.0,5.5,6.5,1.25,0.0,2.0,8.5,6.25,6.0,8.0,0.2,0.02,0.89,717.99,1.9,-32.2
1.82,12.0,4.0,9.5,11.0,9.25,7.25,7.5,5.25,2.75,2.75,2.0,1.75,1.5,-0.17,0.14,1.64,1398.88,11.6,35.9,1.0,0.75,0.5,1.0,5.0,6.5,1.0,0.0,1.5,7.75,5.0,5.25,6.5,0.2,0.02,0.95,667.42,3.8,-36.6
1.84,12.5,3.5,9.5,8.75,10.5,6.0,6.25,4.75,2.0,1.25,1.75,1.75,1.5,-0.36,0.2,1.77,1342.87,12.5,39.8,2.0,1.75,0.25,3.25,5.25,7.75,1.5,0.0,2.0,7.75,5.5,4.75,6.75,0.2,0.02,0.95,662.93,2.0,-24.4
1.86,12.0,3.5,8.75,6.5,8.0,4.5,6.0,3.25,1.5,2.0,1.75,1.25,1.5,-0.55,0.45,2.02,1225.97,13.8,40.3,2.25,1.75,0.5,3.25,6.75,8.0,1.5,0.0,2.0,7.25,4.5,4.0,5.5,0.2,0.02,0.89,646.04,1.8,-14.9
1.88,9.5,2.5,7.75,5.0,6.75,1.75,5.5,3.0,1.0,0.0,1.25,0.25,1.5,-0.73,0.39,1.89,986.62,16.3,46.1,2.25,1.75,0.5,3.5,7.0,8.5,1.5,0.0,1.75,6.75,4.5,2.5,5.25,0.2,0.02,0.95,644.36,2.1,-9.1
1.9,7.0,0.0,4.5,1.75,1.75,1.25,4.5,0.0,0.75,0.0,0.25,0.25,0.25,-0.67,0.27,1.89,636.21,24.3,57.1,2.5,1.75,0.5,3.25,7.75,8.75,1.75,0.0,2.0,6.25,3.25,2.25,3.75,0.2,0.02,0.95,629.39,1.8,-0.8
1.92,3.5,0.5,2.75,1.75,0.5,0.75,3.0,0.0,0.25,0.0,0.25,0.0,0.5,-0.55,-0.11,1.7,341.89,23.6,54.2,2.25,2.0,0.5,3.25,8.25,8.75,1.5,7.25,1.75,5.75,2.25,2.0,3.5,0.2,0.02,0.95,655.85,4.4,-2.2
1.94,1.75,0.5,2.75,1.75,0.0,0.0,1.5,0.75,0.0,0.0,0.0,0.25,0.25,0.2,-0.23,1.39,158.56,24.2,48.3,2.25,2.25,0.5,4.25,8.25,9.5,1.5,0.0,1.5,5.25,2.25,1.0,2.75,0.2,0.08,0.95,634.18,2.0,12.6
1.96,1.25,0.0,2.0,1.25,0.5,1.0,1.5,0.75,0.25,0.0,0.0,0.25,0.5,-0.61,-0.92,2.39,22.24,14.9,32.3,3.0,2.5,0.5,5.25,9.5,10.5,1.5,0.0,1.5,5.0,2.25,1.25,2.25,0.2,0.08,0.95,647.84,1.1,18.4
1.98,1.0,0.25,2.0,0.75,0.5,0.75,2.75,1.0,0.25,0.0,0.0,0.25,1.0,-0.98,-1.05,1.39,0.0,13.8,20.7,3.0,2.5,0.5,5.5,11.0,10.5,1.5,6.75,1.5,5.25,2.0,1.25,2.25,0.2,0.08,0.95,705.31,3.2,12.6
2.0,1.75,0.5,2.0,0.75,0.0,0.25,2.75,0.75,0.25,0.0,0.0,0.0,1.0,-0.67,-0.67,0.45,0.0,19.7,32.0,3.25,2.5,0.5,5.5,11.5,11.5,1.5,6.5,1.25,4.75,2.25,1.25,2.25,0.27,0.08,0.95,782.45,3.2,14.6
2.02,0.5,0.5,2.0,0.5,0.0,0.75,2.5,1.0,0.25,0.0,0.25,0.0,1.0,-0.48,-0.48,0.33,0.0,13.5,16.2,3.75,2.5,0.5,7.25,12.5,11.5,1.25,6.5,1.0,4.75,1.75,1.0,2.25,0.2,0.08,1.08,865.78,2.5,18.9
2.04,0.5,0.25,2.0,0.25,0.0,1.0,2.75,0.75,0.0,0.0,0.0,0.25,1.0,-0.42,-0.36,0.45,0.0,13.5,15.0,3.75,2.5,0.5,7.25,14.0,11.5,1.25,0.0,1.0,3.5,2.0,1.0,2.25,0.2,0.14,1.02,887.88,0.4,29.2
2.06,0.75,0.25,2.0,0.75,0.0,0.0,2.75,0.75,0.0,0.0,0.0,0.0,0.75,-0.48,-0.36,0.64,0.0,21.0,28.2,5.0,3.25,0.5,8.75,13.5,11.0,1.25,0.0,0.75,4.5,0.75,1.0,1.25,0.2,0.14,1.08,905.61,-0.9,35.8
2.08,0.5,0.75,2.0,0.75,0.0,0.0,2.5,0.75,0.25,0.0,0.0,0.0,1.0,-0.55,-0.36,0.83,0.0,18.2,23.8,5.5,2.25,0.5,7.25,15.5,11.5,1.0,0.0,0.0,0.5,1.75,0.25,2.0,0.27,0.2,1.14,868.92,-1.0,43.1
2.1,0.75,0.0,2.0,1.25,0.0,0.0,2.25,0.5,0.0,0.0,0.75,0.25,1.5,-0.48,-0.23,0.89,26.3,17.3,3.4,5.5,1.75,0.0,7.5,12.5,10.0,0.0,0.0,0.25,2.5,1.25,0.0,1.0,0.39,0.2,1.2,808.43,-0.8,41.8
2.12,1.25,0.25,2.0,2.75,0.0,0.25,2.5,0.5,0.5,0.25,0.0,1.75,1.0,-0.42,-0.11,0.95,90.63,17.0,9.4,7.0,3.25,0.5,9.0,11.0,10.5,0.5,0.0,0.75,3.5,1.75,0.75,2.0,0.45,0.33,1.39,803.97,-2.7,35.8
2.14,1.75,0.5,3.25,2.25,0.75,0.5,2.75,1.0,0.25,0.25,1.0,1.75,1.25,-0.36,0.02,1.08,161.43,15.7,11.0,5.75,2.5,0.5,7.25,12.5,8.5,0.0,0.0,0.25,2.0,0.5,0.25,0.75,0.52,0.33,1.58,746.88,-2.5,47.0
2.16,1.25,0.25,3.25,2.0,0.75,0.25,2.75,1.0,0.25,1.25,1.0,1.75,1.5,-0.36,0.14,1.27,203.32,13.3,-1.2,5.75,2.25,0.0,4.25,9.5,7.5,0.25,0.0,0.25,2.0,0.0,0.0,0.75,0.89,0.45,2.02,644.57,-1.8,47.9
2.18,1.75,1.25,3.25,1.75,0.5,1.0,2.75,1.0,0.5,0.75,0.75,1.75,1.5,-0.42,0.27,1.58,234.15,13.4,9.7,4.25,1.5,0.0,2.0,7.0,6.5,0.25,0.0,0.25,0.0,0.0,0.0,0.0,0.95,0.77,2.52,481.31,-1.5,58.4
2.2,1.75,0.5,3.25,1.75,0.5,2.0,2.75,1.0,0.25,0.0,1.0,1.75,1.5,-0.55,0.33,2.02,247.57,12.7,10.2,2.0,0.75,0.0,1.5,5.75,0.0,0.25,0.0,0.0,1.25,0.0,0.25,0.0,0.89,0.14,2.08,309.74,-5.3,47.0
2.22,1.75,0.5,3.0,1.75,0.5,1.25,2.75,1.0,0.25,1.0,1.0,1.5,1.5,-0.73,0.58,2.39,252.74,12.2,5.0,0.0,0.75,0.0,0.5,5.0,3.25,0.25,0.0,0.0,2.0,0.0,1.0,0.25,0.52,-0.23,1.58,202.68,6.8,17.4
2.24,1.5,0.5,3.25,1.75,0.75,1.75,2.75,1.0,0.25,0.25,1.0,1.75,1.5,-0.8,1.33,2.64,254.26,12.2,8.1,1.5,1.5,0.0,2.5,5.25,3.5,0.5,1.75,0.75,2.0,1.25,1.25,1.0,0.14,-0.11,1.52,175.13,0.6,12.8
2.26,1.75,0.5,3.0,1.75,0.5,1.75,2.75,1.0,0.25,0.0,1.0,1.75,1.5,-0.73,2.58,2.52,253.38,12.8,9.1,1.25,1.5,0.0,2.25,5.25,3.25,0.5,1.75,0.75,2.5,0.25,1.0,1.5,0.58,-0.98,2.58,183.73,2.2,11.5
2.28,1.75,0.25,3.0,1.0,0.0,0.5,2.75,1.0,0.25,0.0,0.75,1.5,1.5,-0.3,3.64,1.45,237.34,16.7,3.9,0.25,0.5,0.25,0.75,5.0,0.75,0.0,0.75,0.25,1.25,0.0,0.25,0.25,0.95,-1.11,1.33,161.8,2.5,25.3
2.3,1.75,0.5,3.25,2.0,0.75,1.75,2.5,1.0,0.25,0.0,0.75,1.75,1.5,0.77,5.02,-0.11,236.43,12.9,12.5,0.5,0.75,0.0,1.25,1.75,1.0,0.0,0.75,0.0,1.0,0.0,0.0,0.25,0.58,-0.8,0.58,114.26,1.5,27.3
2.32,1.75,0.5,3.0,1.75,0.75,1.75,2.25,1.25,0.75,0.5,1.25,1.75,1.5,4.27,6.58,-0.86,238.37,11.0,4.0,0.5,0.5,0.0,0.5,1.5,0.75,0.0,0.25,0.0,0.5,0.0,0.0,0.25,0.14,-0.48,0.39,51.4,1.1,33.9
2.34,1.75,0.5,2.75,1.5,0.75,1.5,2.0,2.0,1.0,1.25,1.5,4.0,3.75,-1.36,-0.67,3.14,261.88,6.5,-25.0,0.5,0.5,0.0,0.5,1.25,1.0,0.0,0.75,0.0,1.0,0.0,0.25,0.25,0.08,-0.36,0.39,12.43,3.9,12.4
2.36,0.0,0.25,2.5,1.0,0.5,1.5,1.25,1.5,0.75,1.5,2.0,5.5,6.25,0.77,0.14,1.83,287.9,1.9,-54.6,0.0,0.5,0.0,0.5,1.25,0.75,0.0,0.5,0.0,1.0,0.0,0.0,0.25,0.14,-0.23,0.52,0.0,6.6,12.0
2.38,0.5,0.0,1.75,2.5,0.0,2.5,1.75,3.0,1.75,4.75,1.25,7.0,6.0,-1.23,0.64,3.64,350.51,-0.3,-52.2,0.5,0.5,0.0,0.5,1.25,0.5,0.0,0.25,0.25,1.25,0.0,0.0,0.25,0.27,-0.23,0.7,10.64,1.4,14.4
2.4,1.75,0.25,3.0,3.25,1.75,3.0,2.5,4.75,1.75,5.0,3.0,7.25,7.75,0.08,-0.11,1.2,464.05,1.2,-38.8,0.5,0.5,0.0,0.0,1.25,0.75,0.0,0.25,0.0,0.75,0.0,0.0,0.25,0.45,-0.17,0.77,23.37,4.0,23.5
2.42,0.5,0.5,3.25,3.25,2.25,3.0,2.5,3.25,2.0,5.0,3.75,7.25,7.75,-0.17,-0.05,0.95,572.09,1.3,-40.4,0.5,0.5,0.0,0.5,1.25,1.0,0.0,0.25,0.0,0.5,0.0,0.0,0.25,0.39,-0.05,0.89,37.41,2.0,32.8
2.44,1.25,0.25,3.0,2.5,0.75,2.0,3.5,4.75,1.75,5.0,3.5,7.5,8.0,-0.17,0.02,0.95,650.59,1.6,-46.8,0.5,0.5,0.0,0.5,1.25,1.0,0.0,0.25,0.0,0.25,0.0,0.25,0.0,0.33,0.08,1.14,42.07,0.0,38.9
2.46,0.5,0.25,3.0,1.75,0.75,2.5,4.75,5.0,2.25,5.75,3.0,7.25,7.75,-0.11,-0.05,0.95,688.42,0.5,-48.4,0.5,0.25,0.0,0.5,1.25,1.0,0.0,0.25,0.0,0.75,0.0,0.0,0.25,0.52,0.2,1.27,41.77,3.5,23.7
2.48,0.75,0.25,2.5,2.0,0.75,3.0,4.25,5.0,2.75,5.25,3.0,7.25,7.75,-0.11,-0.05,0.95,701.73,0.3,-47.4,0.0,0.0,0.0,0.5,1.25,1.0,0.0,0.25,0.0,0.75,0.0,0.0,0.25,0.7,0.45,1.58,38.23,8.8,10.8
2.5,1.75,0.25,1.0,2.5,0.75,3.75,4.75,5.75,3.25,5.5,3.5,7.25,7.75,-0.11,-0.05,0.95,717.61,-0.3,-45.4,0.0,0.5,0.0,0.5,1.25,1.0,0.0,0.25,0.0,1.0,0.0,0.25,0.0,0.95,0.7,2.2,52.0,5.7,15.9
2.52,1.75,0.0,4.25,3.25,4.25,5.0,4.75,5.75,3.75,7.0,3.25,8.25,7.75,-0.11,-0.05,0.95,795.7,1.2,-31.5,0.0,0.5,0.0,0.5,1.25,1.0,0.0,0.25,0.0,1.0,0.0,0.0,0.0,1.27,1.39,2.52,65.66,6.5,22.5
2.54,2.25,0.0,3.5,3.25,4.75,4.0,5.0,6.25,3.25,6.25,3.75,7.0,7.75,-0.11,-0.05,0.95,845.05,1.2,-29.8,0.5,0.25,0.0,0.5,1.25,1.0,0.0,0.25,0.0,0.5,0.0,0.25,0.0,1.33,2.2,2.14,71.69,1.6,29.4
2.56,2.0,0.0,4.5,3.25,4.75,4.0,5.25,5.75,3.5,6.25,4.25,6.75,7.25,-0.17,-0.05,0.95,880.88,2.2,-27.8,0.5,0.25,0.0,0.5,1.25,1.0,0.0,0.25,0.0,0.0,0.0,0.0,0.0,0.52,3.45,1.64,70.71,0.5,51.7
2.58,3.5,1.75,4.5,3.5,3.75,5.75,5.0,6.0,3.5,6.25,5.0,6.75,7.75,-0.11,-0.05,0.95,919.88,2.6,-22.0,0.5,0.25,0.0,0.5,1.25,0.25,0.0,0.25,0.0,0.25,0.0,0.0,0.0,-0.23,3.77,0.33,65.2,-3.0,46.1
2.6,2.5,1.75,4.5,3.75,5.75,5.75,5.5,6.75,4.25,6.5,5.5,6.75,7.75,-0.11,-0.05,0.95,975.32,2.0,-21.5,0.5,0.25,0.0,0.5,1.0,1.0,0.0,0.25,0.0,0.5,0.0,0.0,0.25,-1.17,5.2,-0.42,65.17,2.8,27.5
2.62,1.75,0.25,3.75,3.25,5.5,5.5,5.25,6.75,3.5,5.25,4.75,5.75,7.0,-0.11,-0.05,0.95,950.37,1.0,-24.0,0.0,0.0,0.0,0.5,1.25,1.0,0.0,0.25,0.0,1.75,0.0,0.0,0.0,-3.11,3.83,6.58,67.44,9.9,-0.3
2.64,1.75,0.25,2.25,3.0,3.5,5.75,5.25,6.0,3.75,5.0,2.75,5.0,6.0,-0.11,-0.05,0.95,864.24,0.0,-25.0,0.5,0.25,0.0,0.5,1.0,1.25,0.0,1.25,0.0,1.75,0.75,0.25,0.0,1.14,-1.05,2.14,85.25,5.3,-7.8
2.66,3.5,1.75,3.0,4.5,4.75,7.0,5.25,6.25,4.25,5.75,3.25,5.0,5.75,-0.11,-0.05,0.95,854.61,1.7,-12.5,0.0,0.25,0.0,0.5,1.25,1.25,0.0,1.5,0.0,3.25,0.0,1.0,0.75,-1.3,0.02,1.95,110.84,9.8,-32.6
2.68,3.25,1.75,4.75,5.0,5.75,7.0,5.75,6.75,4.25,5.0,4.0,3.5,5.75,-0.11,-0.05,0.95,871.58,2.8,-6.5,0.5,0.0,0.0,0.0,1.25,2.0,0.0,1.75,0.25,5.5,1.25,3.5,2.5,-0.17,0.33,1.64,178.39,7.3,-57.2
2.7,3.5,1.75,4.0,5.25,6.5,7.25,6.0,6.75,4.5,5.0,3.5,3.5,5.25,-0.11,-0.05,0.95,914.16,2.5,-4.3,0.5,0.5,0.0,0.5,1.25,2.25,0.25,0.0,0.25,6.5,3.75,5.5,5.25,0.02,0.45,1.64,263.91,3.8,-63.8
2.72,3.5,1.75,4.5,5.25,7.0,8.0,6.0,7.0,4.5,5.0,3.5,3.5,4.0,-0.11,-0.05,0.95,954.91,2.8,-0.6,0.5,0.5,0.0,4.5,1.25,4.5,0.5,0.0,1.5,7.5,5.5,5.75,6.5,0.02,0.14,1.2,385.12,1.9,-46.6
2.74,3.5,1.75,4.5,5.5,7.5,8.0,6.25,7.25,4.5,4.75,3.0,3.25,3.75,-0.11,-0.05,0.95,979.01,2.8,1.7,2.0,1.75,0.5,1.25,1.75,5.25,0.5,0.0,2.0,8.5,5.5,6.5,7.25,0.08,0.08,0.95,529.6,1.8,-44.7
2.76,4.0,1.75,3.0,7.0,8.25,9.0,6.5,7.25,4.5,4.75,3.0,3.25,3.5,-0.11,-0.05,0.95,996.42,2.2,4.1,2.0,1.5,0.5,2.5,5.0,5.5,1.5,5.75,2.0,8.5,7.0,6.75,8.25,0.2,0.02,0.95,728.47,2.7,-37.1
2.78,4.5,2.0,4.25,7.0,9.0,9.25,6.75,7.25,4.25,3.5,2.75,2.5,3.5,-0.11,-0.05,0.95,1028.73,3.3,10.5,2.0,1.75,0.5,3.0,2.5,6.0,1.5,5.75,2.25,8.75,7.0,6.75,8.5,0.14,0.02,0.95,875.22,2.6,-40.2
2.8,5.25,2.25,4.75,8.0,11.0,9.75,7.0,7.25,4.25,4.25,2.75,2.0,3.25,-0.11,-0.05,0.95,1102.56,3.6,14.8,2.0,1.5,0.5,3.0,5.0,6.0,1.5,6.25,2.25,8.75,7.0,6.5,8.25,0.14,0.02,0.89,994.21,2.8,-35.6
2.82,5.5,3.0,6.0,8.75,12.5,10.0,7.25,7.5,4.25,4.25,2.75,2.0,3.25,-0.17,-0.05,1.02,1207.7,4.2,17.9,2.0,1.75,0.5,3.0,5.25,6.25,1.5,6.5,2.0,8.75,6.75,6.25,8.0,0.27,0.02,0.95,1046.8,3.0,-33.4
2.84,6.5,3.5,5.75,11.0,13.5,10.5,7.0,7.5,3.75,3.5,2.5,2.0,3.0,-0.17,-0.05,1.08,1329.13,4.8,23.1,2.0,1.75,0.5,3.0,5.25,6.75,1.5,6.5,2.0,8.5,6.5,6.0,8.0,0.2,0.02,0.95,1063.64,3.2,-32.2
2.86,7.75,3.5,4.75,11.5,14.5,10.5,7.0,7.5,3.25,3.25,2.25,2.0,2.75,-0.17,0.02,1.02,1411.51,4.8,25.8,2.0,1.75,0.5,3.0,5.5,7.0,1.5,6.5,2.0,8.5,6.25,5.5,7.5,0.2,0.02,0.95,1040.63,3.4,-29.9
2.88,8.5,3.5,5.5,12.5,14.5,11.5,5.75,7.25,2.75,3.25,1.75,2.0,2.5,-0.17,0.08,1.14,1467.96,5.1,28.9,2.0,1.75,0.5,3.0,6.25,7.0,1.75,6.75,2.25,8.0,5.5,5.5,7.5,0.27,0.02,0.95,1007.38,3.4,-27.6
2.9,9.25,3.5,6.25,12.5,15.0,11.0,5.5,7.0,2.25,2.75,1.5,1.75,2.0,-0.23,0.14,1.2,1484.85,6.0,32.9,2.25,1.75,0.75,3.25,6.75,7.25,2.0,6.75,2.5,7.75,5.5,4.0,6.25,0.14,0.02,0.95,965.32,2.9,-20.9
2.92,10.5,3.5,6.25,11.5,15.0,10.5,4.0,6.75,1.75,2.75,1.5,1.75,2.0,-0.3,0.14,1.39,1484.81,6.2,34.3,2.0,1.75,1.0,3.25,6.75,7.75,2.0,6.75,2.25,7.25,4.75,4.0,5.75,0.14,0.02,0.89,910.61,3.1,-18.4
2.94,11.5,3.5,3.75,11.0,14.5,9.75,3.25,6.25,1.5,2.75,1.5,1.75,1.75,-0.42,0.2,1.64,1446.7,5.8,35.1,2.0,1.75,1.25,3.25,7.0,7.75,2.25,6.75,2.25,6.5,4.5,3.0,5.25,0.2,0.02,0.95,855.37,2.8,-13.9
2.96,11.5,3.5,5.5,8.25,13.0,9.0,3.0,5.75,1.25,2.75,1.25,1.75,1.5,-0.73,0.45,2.02,1376.1,6.9,36.2,2.75,1.75,2.0,3.25,7.5,8.0,2.25,7.0,2.25,6.5,4.0,2.5,4.0,0.2,0.02,0.95,816.28,1.9,-6.7
2.98,9.5,3.5,4.25,5.5,8.75,6.75,2.5,4.75,1.0,1.25,1.25,1.75,1.5,-0.86,0.64,2.64,1175.24,7.7,35.7,2.75,2.0,1.75,3.75,8.25,8.25,2.25,7.0,2.25,5.75,3.75,2.25,3.75,0.2,0.02,0.95,795.07,1.8,-2.5
3.0,6.0,1.75,2.75,3.25,6.75,4.25,1.5,3.0,0.25,0.0,1.25,0.25,1.5,-0.92,0.2,2.45,839.82,7.3,38.7,3.25,2.25,2.5,5.25,8.25,8.5,2.25,6.75,2.0,5.5,2.25,1.5,3.0,0.2,0.08,0.95,785.04,0.6,7.4
3.02,2.5,0.25,0.5,1.75,0.0,1.0,0.0,0.0,0.25,0.0,0.25,0.0,0.5,-0.86,-0.23,1.89,425.46,16.4,49.2,3.25,2.5,2.75,5.5,9.5,8.75,2.25,6.5,2.0,5.25,2.5,1.5,2.25,0.2,0.08,0.95,803.52,0.0,11.6
3.04,0.75,0.25,0.5,1.75,0.0,0.25,0.0,0.0,0.25,0.0,0.25,0.0,0.0,0.14,-0.23,1.39,180.86,19.6,52.5,3.25,2.5,2.75,5.5,9.75,9.25,2.25,6.5,2.0,5.0,2.5,1.5,2.25,0.2,0.08,0.95,823.94,0.2,12.4
3.06,0.5,1.0,1.0,2.0,0.0,0.0,1.25,0.0,0.25,0.0,0.0,1.25,2.25,-0.23,-0.86,2.2,0.0,11.8,-5.7,3.5,2.75,2.75,7.25,11.0,9.5,2.25,6.5,1.75,4.75,2.25,1.25,2.25,0.2,0.08,0.95,867.49,-0.2,17.1
3.08,0.0,0.25,3.0,1.75,0.75,0.25,2.0,1.0,0.25,0.0,1.25,1.25,0.0,-0.8,-0.98,2.39,0.0,17.0,11.3,3.75,3.0,2.75,7.5,12.5,10.0,2.25,6.25,1.5,4.75,2.5,1.25,2.0,0.2,0.08,0.95,923.26,-0.3,19.8
3.1,0.25,0.0,1.0,1.5,0.0,0.25,1.25,1.0,0.5,1.25,0.25,0.5,0.0,-0.8,-0.98,1.2,0.0,9.1,-3.3,3.75,3.25,2.75,7.75,12.5,10.5,2.25,6.25,1.5,4.75,2.25,1.25,2.0,0.2,0.08,0.95,978.57,-0.2,20.8
3.12,1.0,0.75,3.0,3.5,0.75,1.5,2.5,1.25,0.75,1.0,1.25,1.5,0.5,-0.61,-0.67,0.58,0.0,12.0,12.7,4.25,3.25,2.75,9.0,14.0,10.5,2.0,6.25,1.5,3.75,2.25,1.25,2.25,0.2,0.08,0.95,1039.85,-0.9,23.9
3.14,0.5,0.5,3.0,1.75,0.75,1.25,2.5,1.0,0.5,1.25,1.25,0.25,1.5,-0.42,-0.48,0.27,4.88,9.7,4.7,5.5,3.25,3.0,9.75,14.0,11.0,1.5,0.0,1.5,4.25,2.0,1.0,2.0,0.14,0.14,1.02,1059.44,-3.3,33.3
3.16,0.25,0.25,1.75,1.0,0.0,0.25,1.25,1.0,0.0,0.0,0.0,0.25,0.0,-0.42,-0.36,0.27,5.9,18.0,32.6,5.5,3.5,3.0,11.0,15.5,11.0,1.5,0.0,1.25,3.0,2.25,1.0,2.0,0.14,0.14,1.02,1084.63,-3.8,36.7
3.18,1.75,0.75,3.0,1.75,0.75,0.25,2.5,1.0,0.5,0.5,1.25,1.25,1.5,-0.42,-0.3,0.45,57.29,14.8,8.0,6.25,3.0,3.25,10.5,15.5,10.0,1.25,0.0,0.75,3.25,1.25,1.0,2.0,0.2,0.14,1.14,1074.26,-4.3,38.9
3.2,1.75,0.25,3.0,1.75,0.75,0.25,1.25,1.0,0.25,1.25,1.25,0.75,1.25,-0.42,-0.23,0.64,104.43,13.3,6.5,6.5,0.0,0.5,9.0,13.5,9.5,1.0,0.0,0.5,2.25,1.75,0.0,2.0,0.33,0.2,1.14,969.34,-2.3,37.4
3.22,1.75,0.75,3.0,1.75,0.75,0.25,2.5,1.25,0.25,2.0,0.0,0.5,0.0,-0.42,-0.17,0.77,159.37,14.8,26.0,7.0,2.5,0.5,10.5,12.5,9.75,0.0,0.0,0.0,1.75,0.75,1.0,0.75,0.33,0.27,1.2,880.35,-3.9,46.7
3.24,0.75,0.5,2.0,1.5,0.5,0.25,1.25,1.0,0.25,0.0,0.0,0.25,0.0,-0.42,-0.05,0.95,169.48,17.7,40.7,7.0,2.5,0.5,9.25,13.0,9.5,0.5,0.0,0.75,1.75,1.5,1.0,1.75,0.39,0.33,1.39,815.4,-3.6,40.2
3.26,1.75,0.75,2.75,1.0,0.0,0.75,2.25,1.0,0.0,1.25,0.5,0.5,1.25,-0.42,0.02,1.2,192.12,13.3,12.5,6.75,2.5,0.5,7.5,11.5,8.25,0.0,0.0,0.25,1.75,0.0,0.25,0.75,0.45,0.39,1.52,726.64,-3.6,50.3
3.28,1.75,0.75,3.0,1.75,0.75,1.5,2.5,1.0,0.25,0.75,1.0,1.25,1.25,-0.42,0.27,1.45,200.29,12.1,12.4,6.0,2.25,0.5,5.5,9.5,7.5,0.5,0.0,0.25,2.75,0.25,0.0,0.5,0.89,0.64,1.95,623.64,-3.0,46.5
3.3,1.75,0.5,3.0,1.75,0.5,1.5,2.5,1.0,0.25,0.75,1.0,1.0,1.25,-0.55,0.39,1.7,211.51,12.5,12.1,4.5,1.5,0.0,2.0,8.25,6.0,0.5,0.0,0.25,0.0,0.0,0.0,0.0,0.89,0.83,2.2,465.19,-2.2,58.9
3.32,1.75,0.5,3.0,2.0,0.0,1.5,2.25,1.0,0.25,2.0,0.75,1.25,1.5,-0.8,0.7,2.14,227.07,10.4,2.2,0.75,1.0,0.0,0.25,6.0,2.75,0.0,0.0,0.0,1.25,0.0,0.25,0.0,0.83,0.14,1.89,300.05,4.4,40.2
3.34,1.75,0.5,2.25,2.5,0.0,1.5,2.5,1.0,0.25,2.0,0.5,1.75,1.5,-1.11,1.45,2.7,236.81,9.4,-0.7,0.0,0.75,0.0,1.5,4.75,1.25,0.0,0.0,0.0,1.5,0.0,0.0,0.0,0.52,-0.36,1.52,182.24,3.0,36.9
3.36,1.75,0.5,2.5,1.75,0.0,0.75,2.5,1.0,0.25,2.0,1.0,1.5,1.5,-1.3,2.14,2.83,232.5,11.0,-4.7,0.5,1.75,0.25,3.0,5.25,3.5,0.5,1.75,0.75,2.0,1.25,1.5,0.25,0.08,-0.23,1.89,150.29,0.6,14.7
3.38,1.75,0.5,2.0,2.5,0.0,0.25,2.5,1.0,0.25,1.25,0.75,0.75,1.5,-1.48,3.45,1.77,226.04,13.1,5.8,2.0,1.75,0.0,3.0,5.25,3.5,0.5,1.75,0.75,2.75,1.25,1.0,0.75,0.64,-1.11,2.45,170.91,0.0,16.1
3.4,1.75,0.5,3.0,2.75,0.0,1.0,2.5,1.0,0.25,1.25,0.25,0.25,1.5,-0.73,4.58,0.14,224.76,13.4,18.4,1.5,1.75,0.5,3.0,5.25,3.25,0.5,1.75,0.75,2.0,1.25,1.25,0.75,0.89,-1.23,1.52,210.48,-1.0,16.9
3.42,0.0,0.25,3.0,0.5,0.0,0.25,2.0,1.0,0.25,0.0,0.25,0.25,1.5,1.27,6.08,-1.55,187.1,15.1,1.7,1.75,1.75,0.5,3.25,5.0,3.5,0.5,1.75,0.0,2.75,1.25,1.0,0.5,0.45,-0.61,0.52,243.96,-0.5,19.3
3.44,0.0,0.25,1.0,0.25,0.0,1.0,1.25,1.0,0.25,1.25,1.0,1.75,1.5,3.95,3.83,-0.48,167.28,1.6,-43.1,1.75,1.5,0.5,2.75,5.0,2.0,0.5,1.75,0.25,2.75,1.25,1.0,0.75,0.08,-0.36,0.33,259.02,-1.4,14.4
3.46,1.75,0.5,2.25,1.75,0.0,1.75,1.5,2.0,0.5,2.75,1.25,3.25,3.0,-0.55,-0.8,1.02,196.15,4.5,-25.9,0.5,0.5,0.25,0.5,5.0,1.0,0.5,1.75,0.0,1.0,1.25,0.25,0.25,0.02,-0.23,0.39,222.9,1.8,15.2
3.48,1.75,0.5,1.0,2.25,1.25,1.5,1.75,3.0,0.75,2.75,2.25,4.5,5.25,1.02,-0.23,1.14,258.7,1.3,-37.5,0.5,0.5,0.0,0.5,1.25,1.0,0.0,0.5,0.0,0.0,0.0,0.0,0.0,0.08,-0.17,0.58,154.0,0.6,49.4
3.5,0.25,0.0,1.0,0.5,0.0,1.25,1.0,2.25,0.25,3.25,1.25,5.0,5.5,1.08,0.39,1.64,289.85,-2.9,-68.1,0.0,0.5,0.0,0.5,1.25,1.25,0.0,0.5,0.0,0.25,0.0,0.0,0.25,0.2,-0.17,0.64,96.78,6.8,28.3
3.52,1.75,0.5,2.0,2.5,0.75,1.75,2.25,5.0,1.0,5.25,1.5,7.25,7.75,-0.8,0.83,1.77,386.42,0.0,-46.6,0.5,0.25,0.0,0.5,1.25,1.0,0.0,0.25,0.0,0.25,0.0,0.0,0.0,0.33,-0.11,0.77,52.6,1.4,44.1
3.54,1.25,0.25,3.0,1.75,0.5,3.0,1.5,5.0,1.25,5.0,2.75,7.0,7.75,0.02,0.02,1.14,481.42,-0.3,-47.8,0.0,0.5,0.0,0.5,1.25,0.75,0.0,0.25,0.0,0.0,0.0,0.25,0.0,0.33,-0.05,1.02,34.0,2.0,39.5
3.56,1.0,0.0,3.0,1.75,0.0,2.5,1.0,4.75,1.5,6.5,2.0,6.75,7.0,-0.11,0.02,1.02,556.57,-1.0,-51.7,0.25,0.5,0.0,0.5,1.25,1.0,0.0,0.25,0.0,0.0,0.0,0.0,0.0,0.27,0.08,1.2,25.99,1.7,52.1
3.58,0.5,0.25,2.0,1.75,0.5,2.75,2.5,4.75,1.5,5.75,2.75,7.5,7.25,-0.17,0.02,0.95,602.18,-1.3,-53.4,0.5,0.5,0.0,0.5,1.25,1.25,0.0,0.25,0.0,0.25,0.0,0.0,0.0,0.27,0.2,1.45,20.39,1.7,46.6
3.6,0.75,0.25,1.75,2.0,0.0,2.75,1.25,5.0,1.75,6.25,2.75,6.75,7.75,-0.11,-0.05,0.95,631.61,-2.3,-55.1,0.5,0.25,0.0,0.5,1.5,1.0,0.0,0.25,0.0,0.0,0.0,0.0,0.0,0.45,0.39,1.64,9.19,0.7,51.9
3.62,0.75,0.25,1.75,2.0,0.0,3.75,1.5,5.5,1.75,6.25,2.75,6.75,7.75,-0.11,-0.05,0.95,646.14,-2.8,-52.6,0.5,0.5,0.0,0.5,1.25,1.25,0.0,0.25,0.0,0.0,0.0,0.0,0.0,0.58,0.52,2.14,14.34,0.9,53.6
3.64,0.5,0.25,2.5,2.5,0.0,3.75,3.0,5.75,2.0,6.25,2.0,7.25,7.75,-0.17,-0.05,0.95,661.81,-1.5,-48.7,0.5,0.25,0.0,0.5,1.25,1.0,0.0,0.25,0.0,0.25,0.0,0.0,0.0,0.77,1.08,2.39,22.78,1.4,44.1
3.66,1.75,0.75,2.0,3.25,4.25,5.0,4.5,6.75,2.5,7.75,5.25,7.0,8.75,-0.11,-0.05,0.95,768.62,-1.0,-35.3,0.5,0.0,0.0,0.5,1.25,1.0,0.0,0.25,0.0,0.25,0.0,0.25,0.0,0.89,1.77,2.7,32.91,1.6,31.4
3.68,1.75,0.25,4.5,3.25,4.75,4.5,4.5,6.75,2.5,6.5,2.75,6.75,7.75,-0.17,-0.05,0.95,821.92,0.8,-27.3,0.5,0.5,0.0,0.5,1.25,1.0,0.0,0.25,0.0,0.75,0.0,0.0,0.0,0.83,2.83,2.2,49.99,2.1,34.7
3.7,1.75,0.0,4.25,2.75,2.25,6.0,3.75,6.5,3.25,7.5,2.75,7.0,7.25,-0.17,-0.05,0.95,854.69,0.0,-32.9,0.5,0.25,0.0,0.5,1.25,1.0,0.0,0.25,0.0,0.25,0.0,0.0,0.0,0.89,3.77,0.33,64.72,1.4,44.1
3.72,1.75,0.0,4.25,3.0,3.0,5.75,4.5,7.25,2.75,6.25,4.25,5.75,7.5,-0.17,-0.05,0.95,855.38,0.2,-29.7,0.5,0.25,0.0,0.5,1.25,1.0,0.0,0.25,0.0,0.75,0.0,0.0,0.0,-0.42,5.33,-1.36,74.84,2.9,31.2
3.74,1.75,0.5,2.5,3.0,4.5,5.75,4.75,6.75,2.75,6.25,2.75,5.75,7.0,-0.17,-0.05,0.95,835.56,-0.9,-26.5,1.25,0.25,0.0,0.5,1.25,1.0,0.0,0.75,0.0,0.75,0.0,0.0,0.0,-2.11,5.33,2.02,82.26,-0.4,33.2
3.76,1.75,0.25,2.25,3.25,3.5,6.0,4.5,6.75,3.0,6.25,2.75,4.75,6.0,-0.17,-0.05,0.95,776.04,-1.1,-25.5,0.5,0.0,0.0,0.5,1.25,1.0,0.0,1.0,0.0,1.75,0.0,0.0,0.0,2.02,-0.92,0.95,90.0,7.3,2.3
3.78,2.75,0.25,2.75,4.0,4.75,7.25,4.75,6.75,3.5,6.25,2.5,5.25,6.0,-0.11,-0.05,0.95,785.35,-0.1,-18.6,0.5,0.0,0.0,0.5,1.25,1.0,0.0,1.0,0.25,2.75,1.25,1.0,0.25,0.08,0.08,1.2,112.46,4.0,-30.4
3.8,2.75,1.75,2.75,5.0,5.25,8.0,5.0,6.75,3.75,6.25,2.75,4.5,5.75,-0.11,-0.05,0.95,828.64,0.2,-11.4,0.5,0.0,0.0,0.5,1.25,2.25,0.0,1.75,0.25,5.75,1.25,2.75,2.0,0.14,0.08,1.89,173.15,7.4,-49.3
3.82,1.75,0.75,4.0,3.5,6.0,7.25,5.25,6.75,3.25,4.75,2.75,3.0,3.75,-0.11,-0.05,0.95,822.14,0.8,-6.3,0.0,0.25,0.0,0.5,1.25,2.0,0.0,0.0,0.75,5.0,2.25,4.0,3.5,-0.48,0.02,1.33,231.35,4.8,-61.4
3.84,3.5,1.75,3.25,5.25,6.75,8.0,5.25,7.0,4.0,5.0,3.25,3.25,3.5,-0.11,-0.05,0.95,858.53,1.8,-0.4,0.75,0.25,0.25,0.5,1.25,3.5,0.5,0.0,1.5,6.5,3.5,5.25,6.25,-0.05,0.52,1.52,314.79,3.8,-58.7
3.86,3.5,1.75,4.25,5.5,8.25,8.75,5.75,7.5,4.0,5.0,3.0,2.75,3.75,-0.11,-0.05,0.95,906.58,1.9,3.2,2.0,1.75,0.5,2.75,3.0,3.75,1.0,3.5,2.0,7.25,5.75,5.75,6.25,0.14,0.08,1.08,458.59,1.0,-36.3
3.88,3.5,1.75,4.25,5.75,7.5,9.0,5.75,7.25,4.0,5.0,2.0,3.0,2.0,-0.17,-0.05,0.95,934.45,2.4,7.3,1.25,1.75,1.25,3.0,5.0,5.75,1.5,4.5,2.75,8.0,6.75,6.5,7.5,0.08,0.08,0.95,662.13,1.7,-33.7
3.9,3.5,1.75,4.5,7.0,9.25,9.25,6.25,7.5,4.0,4.75,2.75,2.5,2.5,-0.11,-0.05,0.95,981.09,2.6,9.4,0.75,1.75,0.5,3.25,5.0,5.0,1.5,4.5,2.75,8.5,7.0,6.0,8.0,0.14,0.02,0.95,826.29,2.5,-37.3
3.92,3.75,2.0,4.5,7.0,11.0,9.5,6.5,7.5,4.0,4.75,2.0,2.0,2.25,-0.11,-0.05,0.95,1047.12,2.4,13.9,2.0,1.75,0.75,3.0,5.0,5.25,1.5,5.5,3.0,8.75,7.0,7.0,8.25,0.14,0.02,0.95,965.13,1.9,-36.0
3.94,4.75,2.25,4.75,7.75,11.5,9.25,6.25,7.25,3.25,2.75,1.5,1.75,1.5,-0.11,-0.05,0.95,1084.9,3.9,22.9,2.25,1.75,0.5,3.0,5.0,5.75,1.5,5.5,3.25,8.75,7.5,7.25,8.5,0.14,0.02,0.95,1052.07,1.9,-36.3
3.96,4.25,2.25,4.25,8.75,12.5,10.5,6.75,7.25,3.5,3.75,2.5,2.0,3.0,-0.17,-0.05,0.95,1148.45,2.6,16.9,2.25,1.75,1.75,3.25,5.0,5.5,2.0,5.75,3.25,8.75,7.75,7.25,8.75,0.14,0.02,0.95,1110.84,0.9,-34.4
3.98,5.5,3.5,5.75,11.0,13.5,10.5,6.75,7.75,3.5,3.5,2.5,2.5,3.0,-0.17,-0.05,1.02,1275.51,4.3,21.3,2.5,1.5,1.75,3.0,5.0,5.75,2.0,5.75,3.5,8.75,8.0,7.25,8.75,0.14,0.02,0.95,1140.49,0.8,-34.7
4.0,6.0,3.5,6.0,11.5,14.5,11.0,6.75,7.5,3.5,3.5,2.5,2.0,2.75,-0.17,0.02,1.02,1373.11,4.5,24.1,2.5,1.5,1.25,3.0,5.25,5.5,2.0,5.75,3.25,8.5,7.5,7.25,8.25,0.14,0.02,0.95,1135.78,1.1,-34.3
4.02,7.0,3.5,5.5,13.0,15.0,11.5,6.25,7.5,3.0,3.5,1.5,1.75,2.75,-0.17,0.02,1.08,1445.66,4.5,27.6,2.0,1.75,1.0,3.0,5.25,5.5,2.0,5.75,3.5,8.5,7.5,7.0,8.0,0.14,0.02,0.95,1099.71,1.4,-34.5
4.04,7.75,3.5,6.0,13.0,15.5,11.5,6.0,7.25,2.75,2.75,1.75,1.5,2.25,-0.23,0.08,1.2,1494.76,5.2,31.0,2.5,1.75,1.75,3.25,5.25,5.5,2.25,5.5,3.5,8.25,7.5,6.25,8.0,0.14,0.02,0.95,1048.55,0.5,-30.6
4.06,9.25,3.5,7.25,13.5,16.0,10.5,5.25,7.25,1.75,2.75,1.5,2.0,2.0,-0.23,0.14,1.2,1531.27,6.4,33.7,2.5,1.75,1.75,3.25,5.25,6.0,2.25,5.5,3.75,7.75,7.0,6.0,7.5,0.14,0.02,0.95,995.54,0.5,-28.4
4.08,10.5,3.5,7.25,13.0,15.5,10.5,4.75,6.75,1.75,2.75,1.5,2.0,1.75,-0.3,0.2,1.52,1533.44,7.0,35.2,2.5,1.75,2.25,3.25,5.25,6.0,2.25,5.5,3.75,8.0,6.75,5.75,7.5,0.14,0.02,0.95,943.49,0.3,-27.3
4.1,11.0,3.25,6.5,11.5,14.5,9.5,3.75,6.5,1.5,2.75,1.5,1.75,1.5,-0.55,0.2,1.7,1500.35,7.1,35.9,2.75,1.75,2.5,3.25,5.5,6.0,2.25,5.5,3.75,7.75,6.5,5.5,6.5,0.14,0.02,0.95,900.24,-0.1,-23.8
4.12,11.0,3.5,7.0,8.75,12.5,8.5,3.75,5.75,1.0,2.5,1.25,1.75,1.5,-0.67,0.64,2.2,1420.47,8.0,37.0,3.0,1.75,2.75,3.25,6.25,6.25,2.5,5.5,4.0,7.0,6.25,5.0,6.25,0.14,0.02,0.95,879.99,-0.5,-19.6
4.14,9.25,3.5,5.75,6.0,9.25,7.0,3.25,4.75,1.0,2.0,1.25,1.75,1.5,-0.8,0.64,2.83,1239.61,8.1,34.9,3.25,1.75,2.75,3.25,6.75,6.5,2.75,5.5,4.25,6.5,5.5,4.25,5.5,0.14,0.02,0.95,866.49,-0.8,-14.6
4.16,5.75,1.0,3.25,3.25,7.0,4.0,1.5,3.0,0.25,0.0,0.0,0.25,1.0,-1.05,0.33,2.27,862.97,7.8,44.4,3.5,1.75,3.0,3.25,6.75,6.5,3.0,5.5,4.25,6.5,5.5,3.75,5.0,0.14,0.02,0.95,854.71,-1.2,-12.0
4.18,2.75,1.75,3.75,3.25,0.0,2.75,0.0,1.0,0.75,0.0,1.25,1.25,1.5,-0.86,-0.3,1.89,511.62,12.7,24.3,3.75,2.25,3.0,3.5,6.75,7.0,3.25,5.5,4.5,6.25,5.25,3.25,4.0,0.14,0.02,0.95,849.26,-1.7,-6.7
4.2,1.75,1.25,0.25,3.25,0.5,2.75,1.0,0.5,0.5,1.25,1.25,0.25,1.5,0.08,0.02,0.77,274.7,4.4,13.6,3.75,2.25,3.25,5.0,7.0,7.25,3.25,5.5,4.5,5.5,4.5,2.5,3.75,0.14,0.02,0.95,851.54,-2.2,-0.6
4.22,0.75,1.0,0.0,3.0,3.0,2.5,0.0,1.0,0.25,1.25,0.75,0.5,1.5,-0.61,-1.05,2.89,145.92,-1.0,12.3,3.75,2.5,3.25,5.5,8.25,7.5,3.75,5.5,4.5,5.5,4.5,2.5,3.25,0.14,0.02,0.95,875.27,-2.4,2.8
4.24,0.0,0.25,2.25,1.75,0.5,1.0,1.25,1.0,0.0,2.0,0.0,0.25,0.75,-1.17,-1.55,2.7,39.07,5.9,4.7,5.5,2.75,5.0,6.0,8.75,7.75,4.0,5.5,4.25,5.0,4.25,1.75,2.25,0.14,0.02,0.95,924.2,-4.7,12.9
4.26,0.0,0.25,2.75,1.75,0.0,1.0,0.0,1.0,0.0,0.0,0.0,0.25,0.0,-0.73,-0.8,0.77,0.0,15.0,38.0,5.75,3.0,5.5,7.25,9.5,7.75,4.25,5.25,3.75,4.75,3.5,2.0,2.25,0.14,0.08,0.95,984.39,-5.3,16.9
4.28,0.0,0.25,0.25,0.5,0.0,0.5,0.25,0.5,0.25,0.0,0.0,0.25,0.0,-0.55,-0.55,0.27,0.0,4.5,13.2,7.0,3.25,5.5,7.5,11.0,8.0,4.25,4.75,3.25,4.75,3.25,1.5,2.25,0.14,0.08,1.08,1051.96,-5.7,22.0
4.3,0.0,1.25,1.75,0.25,0.0,1.75,0.25,0.5,0.0,0.0,0.0,0.25,0.0,-0.36,-0.36,0.14,0.0,8.4,45.2,7.75,3.25,6.25,9.0,11.0,8.25,4.0,4.5,3.0,4.75,2.75,1.25,2.25,0.14,0.02,1.02,1121.3,-6.5,25.8
4.32,0.75,1.0,1.5,1.75,0.0,1.5,1.25,1.0,0.25,1.25,0.75,1.0,1.25,-0.36,-0.23,0.64,0.0,6.3,-0.9,8.25,3.25,6.75,9.5,12.0,8.25,3.75,4.5,2.75,4.25,2.5,1.25,2.0,0.08,0.08,1.02,1183.71,-7.0,29.1
4.34,0.75,0.75,2.25,1.5,0.0,1.5,1.25,1.0,0.25,0.75,0.75,0.75,1.5,-0.3,-0.11,0.89,0.0,8.4,2.4,9.0,4.25,7.0,10.0,12.5,8.25,2.75,4.5,2.75,4.0,2.25,1.75,2.25,0.08,0.14,1.08,1252.27,-7.3,30.5
4.36,1.5,1.0,3.0,1.25,0.5,1.5,1.0,1.0,0.25,1.25,1.25,0.5,1.0,-0.36,0.27,0.95,72.87,10.5,13.3,8.75,3.25,7.0,10.5,12.5,8.25,2.25,4.25,1.25,2.0,2.25,0.25,2.0,0.14,0.14,1.14,1252.58,-7.8,38.3
4.38,1.25,0.75,2.25,0.25,0.75,1.5,1.25,1.0,0.25,1.25,0.75,0.5,1.5,-0.3,0.39,1.02,129.93,6.7,2.8,10.5,4.25,6.25,9.0,12.5,7.5,1.5,3.75,1.25,3.25,2.0,0.75,1.0,0.2,0.2,1.2,1234.66,-8.3,40.2
4.4,1.75,1.0,2.75,1.75,0.0,1.5,2.0,0.5,0.25,1.25,0.75,0.25,1.5,-0.48,0.58,1.2,178.09,12.1,16.8,10.5,4.75,5.25,8.5,11.0,0.5,1.0,3.0,1.0,0.25,1.75,0.25,1.0,0.2,0.27,1.27,1086.49,-13.8,51.2
4.42,1.5,0.75,2.75,1.5,0.0,1.5,2.0,0.75,0.25,1.25,0.0,0.5,1.25,-0.55,0.77,1.45,191.38,11.5,17.1,9.0,3.5,3.25,8.0,11.0,7.5,0.0,3.25,0.75,0.25,1.25,0.25,0.25,0.33,0.33,1.33,958.01,-7.4,49.9
4.44,1.5,0.75,1.75,1.0,0.5,1.0,2.25,1.0,0.25,1.25,1.25,0.5,1.5,-0.61,0.95,1.58,200.41,8.9,1.3,8.75,3.5,4.5,7.75,11.0,7.75,0.25,3.25,1.0,0.0,0.0,0.0,0.0,0.45,0.39,1.45,845.15,-8.1,54.7
4.46,1.75,0.5,2.5,1.75,0.0,1.5,2.0,1.0,0.25,1.0,0.75,1.0,1.5,-0.73,1.2,1.7,208.14,10.9,6.3,8.0,3.0,3.75,7.5,11.0,7.75,0.75,0.0,0.75,1.5,0.5,0.25,1.75,0.7,0.7,2.39,771.79,-7.4,47.7
4.48,1.75,0.5,2.25,0.25,0.0,1.5,1.75,1.0,0.25,1.0,1.0,0.75,1.5,-0.86,1.33,1.83,208.95,9.4,-0.7,5.75,1.5,1.5,4.5,8.5,5.5,0.5,0.0,0.25,0.0,1.5,0.0,1.5,0.77,1.08,2.83,614.76,-6.3,46.2
4.5,1.75,0.5,2.75,0.0,0.0,0.5,2.0,0.25,0.25,1.0,0.5,0.75,1.5,-0.92,1.64,1.89,197.59,15.5,4.0,2.75,0.75,0.0,2.0,5.5,2.0,0.5,0.0,0.25,0.0,0.25,0.0,0.5,0.89,0.14,2.02,397.13,-5.2,51.9
4.52,1.75,0.5,2.0,0.75,0.0,0.25,2.0,1.0,0.25,1.0,0.75,1.25,1.5,-0.92,1.77,1.7,187.34,12.5,-5.7,0.0,0.75,0.0,0.5,3.25,1.25,0.5,0.25,0.25,0.0,0.0,0.0,0.25,0.08,0.14,1.83,222.73,2.4,42.5
4.54,1.75,0.5,2.5,0.0,0.0,1.0,2.0,0.75,0.25,0.75,0.75,0.5,1.5,-0.73,1.83,1.27,172.44,12.6,4.6,0.75,1.75,0.0,3.0,3.0,1.0,0.5,0.5,0.75,1.25,0.0,1.75,0.25,-0.11,0.89,1.7,113.52,-4.6,19.7
4.56,1.75,0.5,2.0,0.5,0.0,1.25,2.5,0.75,0.25,1.0,0.5,0.5,1.5,-0.17,1.83,0.77,165.24,10.8,5.5,0.75,1.5,0.25,2.0,5.25,1.0,0.75,1.75,0.75,0.0,1.25,1.25,1.75,0.39,0.33,1.7,77.75,-2.0,10.8
4.58,1.75,0.5,3.0,1.0,0.0,1.5,2.0,0.75,0.25,2.0,0.5,0.25,1.5,0.58,2.33,0.27,175.57,10.3,7.9,0.75,1.5,0.5,2.0,5.25,1.25,0.5,1.75,0.5,0.25,1.25,1.25,1.5,0.33,0.02,1.02,100.06,-1.9,12.9
4.6,1.75,0.5,2.5,0.0,0.5,1.5,1.75,1.0,0.25,1.75,0.0,1.25,1.5,1.14,2.83,0.27,182.74,7.7,-1.2,0.75,1.5,0.5,2.0,5.0,3.0,0.5,1.75,0.75,0.25,1.25,1.0,1.5,0.02,0.14,0.45,144.76,0.0,14.9
4.62,1.75,0.5,1.75,0.25,0.0,1.5,1.75,1.0,0.25,2.0,0.75,1.25,1.5,1.27,2.02,0.2,188.14,6.3,-11.5,1.25,1.5,0.5,2.0,5.0,1.0,0.5,1.75,0.5,1.5,1.25,1.0,1.0,-0.36,0.45,0.2,173.15,-2.2,13.2
4.64,1.75,0.5,2.0,1.0,0.0,0.25,1.25,0.5,0.0,0.0,0.5,0.25,1.25,0.52,1.08,0.7,169.96,18.1,22.8,2.0,1.75,0.25,1.75,5.0,1.25,0.5,1.75,0.25,2.0,1.25,1.0,1.0,-0.73,0.89,0.14,199.5,-2.0,14.7
4.66,0.0,0.25,1.0,1.25,0.0,1.0,0.75,1.0,0.25,2.5,0.0,1.75,0.25,-0.42,0.52,0.7,155.05,1.4,-25.9,1.5,1.5,0.75,0.75,5.0,1.0,0.5,1.75,0.25,2.0,1.25,1.0,0.25,-0.8,1.33,0.02,205.03,-2.1,15.2
4.68,1.75,0.5,2.0,0.0,0.0,0.5,1.5,2.5,0.0,3.0,1.5,2.0,3.75,-2.42,-0.86,-1.86,179.65,2.5,-38.6,1.75,1.75,0.5,1.25,5.0,1.25,0.5,1.75,0.0,0.0,1.25,1.0,1.25,-0.42,1.14,-0.11,217.26,-3.3,22.1
4.7,0.0,0.25,0.5,3.0,0.5,4.0,0.5,4.5,0.0,6.0,0.5,3.75,6.0,-6.73,2.08,5.83,256.45,-7.4,-45.8,1.25,1.75,0.5,1.25,5.0,2.0,0.5,1.75,0.25,1.25,1.25,1.0,1.0,-0.3,1.08,-0.11,236.49,-0.6,15.3
4.72,0.0,0.0,1.0,0.0,0.0,4.0,0.75,6.25,0.25,6.25,0.5,4.75,6.25,-0.36,-0.55,1.64,333.96,-9.3,-60.4,1.25,1.75,0.5,0.75,5.0,2.25,0.5,1.75,0.25,0.25,1.25,1.0,1.0,-0.17,0.95,0.02,255.49,-0.8,19.4
4.74,0.5,0.5,0.25,3.25,0.5,6.0,0.75,6.75,1.0,8.75,0.5,6.75,7.75,-0.23,0.14,1.58,473.9,-7.2,-48.1,1.25,1.5,0.5,0.75,4.5,2.75,0.5,1.75,0.0,0.5,1.25,1.0,1.25,-0.11,0.95,0.27,264.49,0.4,15.1
4.76,0.75,0.5,1.0,3.25,4.25,7.25,0.0,8.0,1.5,9.75,3.0,7.75,9.5,-0.05,-0.11,1.27,672.87,-6.0,-41.5,1.25,1.5,0.5,0.75,5.0,2.5,0.5,1.5,0.0,1.5,1.25,1.0,1.0,-0.11,1.14,0.39,264.39,0.6,13.7
4.78,1.75,0.75,4.0,3.25,5.0,8.0,2.75,8.75,2.75,10.0,6.0,8.5,10.5,-0.3,0.08,1.27,937.5,-2.0,-34.6,1.5,1.5,0.5,0.75,5.0,2.75,0.5,1.75,0.0,0.75,1.25,1.0,1.0,-0.17,1.27,0.45,258.68,0.1,17.9
4.8,1.0,1.0,3.75,3.25,4.75,8.0,4.25,9.25,3.25,10.5,6.25,8.5,10.5,-0.11,0.08,1.08,1167.84,-2.2,-36.0,1.5,1.5,0.5,0.75,5.0,2.75,0.5,1.75,0.25,0.25,1.25,1.0,1.25,-0.11,1.45,0.45,257.23,-0.2,17.9
4.82,1.75,0.75,4.25,3.5,5.0,8.5,4.75,9.5,2.75,9.75,6.25,8.0,10.0,-0.05,0.02,1.02,1322.83,-1.5,-31.7,1.25,1.5,0.5,0.75,4.75,2.5,0.5,1.5,0.0,2.0,1.25,1.0,1.0,0.2,1.58,0.39,258.49,1.0,10.7
4.84,1.75,0.5,4.25,3.25,6.0,9.0,4.5,9.25,2.25,8.75,5.5,6.75,9.5,-0.11,-0.05,0.95,1354.55,-2.0,-27.6,0.5,0.25,0.75,0.0,4.25,1.75,0.5,1.5,0.0,1.25,1.25,0.25,0.25,0.45,1.64,0.02,235.09,2.3,11.3
4.86,1.75,0.5,3.25,4.0,6.75,9.75,4.5,9.0,1.75,7.25,3.25,5.0,7.75,-0.23,-0.05,0.95,1312.45,-2.8,-18.6,0.5,0.25,0.0,0.5,1.25,1.0,0.0,0.25,0.0,0.25,0.0,0.0,0.25,0.52,1.45,-0.11,175.91,2.1,35.0
4.88,1.75,0.0,3.0,5.25,7.5,9.75,5.0,8.75,1.75,5.0,2.75,3.25,6.0,-0.3,-0.05,1.02,1206.68,-2.1,-8.7,0.5,0.5,0.0,0.5,1.25,0.0,0.0,0.25,0.0,0.25,0.0,0.0,0.25,0.45,1.33,-0.17,111.11,-4.1,39.7
4.9,2.0,0.5,4.0,5.25,8.0,10.5,5.25,8.5,1.5,4.75,2.5,3.25,5.0,-0.3,0.14,1.08,1114.21,-1.1,-2.4,0.5,0.0,0.0,0.5,1.75,1.0,0.0,0.25,0.0,0.25,0.0,0.0,0.25,0.27,1.27,-0.3,64.41,3.0,33.8
4.92,2.25,1.75,3.5,5.25,8.25,10.5,5.25,8.25,1.25,4.75,1.75,2.0,3.75,-0.3,0.02,1.08,1025.73,-1.1,6.0,0.5,0.0,0.0,0.5,1.25,1.0,0.0,0.0,0.0,0.25,0.0,0.0,0.25,0.7,1.02,-1.73,34.75,2.1,35.6
4.94,3.0,1.75,5.0,5.25,9.0,11.0,4.75,8.0,1.0,4.75,1.75,2.0,3.5,-0.3,0.14,1.08,986.44,0.0,10.2,0.5,0.5,0.0,0.5,1.5,1.0,0.0,0.0,0.0,0.25,0.0,0.0,0.25,1.14,0.89,-2.55,28.12,0.6,43.6
4.96,3.5,1.75,4.25,5.25,8.75,11.5,4.25,8.0,1.0,4.0,1.5,2.0,3.5,-0.3,0.27,1.08,952.49,-0.3,11.6,0.5,0.0,0.0,0.5,1.25,0.75,0.0,0.25,0.0,0.25,0.0,0.0,0.25,-0.98,1.14,-1.55,25.93,1.8,30.9
4.98,3.5,1.75,4.5,5.25,8.75,11.5,3.75,7.75,1.0,3.5,1.0,1.75,3.25,-0.36,0.33,1.2,909.33,-0.1,14.6,1.75,1.5,0.0,2.0,1.5,0.75,0.0,0.0,0.25,2.25,0.0,1.5,0.25,-1.3,1.39,-1.73,68.46,-5.6,15.0
5.0,3.5,1.75,3.75,5.25,8.75,10.5,3.0,7.5,0.75,2.75,0.5,1.75,3.0,-0.55,0.33,1.33,842.38,-0.3,16.8,1.75,1.5,0.5,1.75,2.75,1.25,0.5,1.0,0.5,2.0,1.25,1.0,1.25,-1.67,0.95,-1.61,130.49,-3.5,6.8
5.02,3.5,1.75,4.5,5.25,8.75,9.75,2.5,7.25,0.25,2.75,1.0,1.75,2.25,-1.23,0.33,1.2,790.11,0.7,19.0,0.5,0.0,0.5,0.5,3.25,1.0,0.5,1.0,0.0,0.25,0.0,0.0,0.25,-1.92,0.83,-1.42,147.5,0.6,32.8
5.04,3.5,1.75,4.25,3.5,7.75,9.0,0.0,6.25,0.25,2.5,0.75,1.75,2.0,-1.67,0.52,1.2,713.27,0.0,18.9,0.5,0.25,0.0,0.5,1.25,0.75,0.0,0.0,0.0,0.0,0.0,0.0,0.25,-2.05,0.83,-1.42,130.02,-1.1,47.7
5.06,3.5,1.75,4.25,3.25,6.75,7.0,0.0,5.5,0.25,1.0,0.5,0.25,1.5,-4.11,1.58,0.02,614.28,1.8,29.5,1.25,1.5,0.0,1.25,1.25,1.25,0.0,0.0,0.25,2.0,0.0,1.25,0.25,-1.98,0.58,-0.73,133.17,-2.9,13.0
5.08,1.5,1.0,2.25,2.5,0.0,4.0,0.0,0.25,0.25,1.25,0.0,0.75,2.0,-3.42,1.33,-0.8,411.31,4.2,15.2,0.5,0.25,0.0,0.5,1.25,1.0,0.5,1.25,0.0,2.0,1.25,1.0,0.25,-2.3,0.39,0.2,135.89,2.5,-21.9
5.1,0.5,0.25,1.75,1.5,0.5,0.25,0.0,2.25,0.0,0.0,0.0,0.25,0.75,-0.17,1.52,1.58,253.97,7.5,13.6,1.25,1.5,0.0,0.75,1.25,1.25,0.0,0.0,0.25,2.0,0.0,0.0,0.25,-2.3,0.33,0.95,144.74,-1.1,27.9
5.12,0.0,0.25,1.75,1.75,0.0,0.25,0.0,1.0,0.0,0.0,0.0,0.25,1.25,-0.11,0.2,2.08,112.48,9.9,6.3,1.0,1.5,0.0,1.0,1.25,1.25,0.0,0.0,0.25,2.0,0.0,1.25,1.0,-1.55,0.27,0.95,155.3,-0.6,1.1
5.14,0.0,0.25,1.75,1.25,0.0,0.25,0.0,1.0,0.0,0.0,0.0,0.25,0.75,-0.11,0.52,0.08,3.74,11.4,12.1,1.25,1.5,0.0,0.75,1.0,1.25,0.5,1.0,0.25,2.25,1.25,1.0,1.25,-0.61,0.08,0.7,172.82,-0.4,-10.6
5.16,0.0,0.25,1.75,1.0,0.0,1.5,0.0,1.0,0.0,0.0,0.0,0.0,1.25,0.33,1.95,-0.67,0.0,3.4,9.4,1.25,1.5,0.5,0.75,3.0,1.25,0.25,1.25,0.25,2.25,1.25,1.0,1.25,-0.17,-0.11,0.64,196.67,-0.6,0.2
5.18,0.0,0.25,1.75,2.75,0.0,0.75,0.0,2.5,0.0,0.0,0.25,0.75,1.0,0.7,2.64,-0.8,0.0,5.7,1.5,1.0,1.5,0.5,0.75,3.25,1.25,0.5,1.25,0.25,2.0,1.25,1.0,0.75,0.08,-0.17,0.64,214.32,-1.0,4.8
5.2,0.0,0.25,3.0,1.0,4.5,0.25,1.25,1.25,0.0,0.0,0.0,0.25,1.0,0.64,2.7,0.27,7.35,7.9,29.9,1.25,1.5,0.5,0.75,3.0,1.25,0.5,1.25,0.25,2.0,1.25,1.0,1.25,0.52,-0.48,0.58,228.4,-1.1,1.6
5.22,0.0,0.25,1.75,1.25,0.5,1.0,0.25,1.0,0.0,0.0,0.0,0.25,0.5,1.02,1.33,0.33,16.78,7.8,22.8,1.0,1.5,0.0,0.75,2.75,1.0,0.5,1.25,0.25,2.25,1.25,0.75,1.25,0.95,-0.73,0.39,225.48,0.6,-2.9
5.24,0.75,0.5,3.0,1.0,0.5,0.25,0.5,1.0,0.0,0.0,0.0,0.25,0.5,0.39,0.7,0.02,36.96,17.8,35.6,1.0,1.5,0.5,1.0,3.25,1.25,0.5,1.0,0.25,1.75,1.25,1.25,1.25,1.14,-0.98,0.39,231.25,-1.4,2.1
5.26,1.5,0.5,3.0,2.75,2.5,1.75,1.0,1.5,0.25,0.0,0.0,1.5,1.5,-1.17,0.77,-0.05,100.57,9.1,20.7,1.0,1.5,0.25,1.0,3.5,1.25,0.5,1.25,0.25,2.25,1.25,1.0,0.75,1.02,-1.23,0.64,238.7,-0.3,4.4
5.28,1.75,0.5,3.0,3.25,0.75,1.5,1.25,1.0,0.0,1.25,0.5,1.75,1.5,-2.61,0.52,-0.17,165.1,10.7,10.0,1.25,1.5,0.5,0.75,3.5,1.25,0.5,1.0,0.25,2.0,1.25,1.25,1.25,0.83,-1.36,0.83,243.26,-1.3,2.3
5.3,1.75,0.5,3.0,3.0,0.75,1.75,1.25,1.0,0.0,1.5,0.25,1.75,1.75,-2.3,0.08,-0.42,221.14,9.4,7.9,1.25,1.5,0.0,0.75,3.75,1.25,0.5,1.0,0.25,2.0,1.25,1.0,1.0,0.64,-1.48,0.95,239.1,-0.1,5.0
5.32,1.75,0.5,3.0,2.75,0.75,1.75,1.0,1.0,0.0,1.5,0.5,1.75,1.5,-1.8,0.02,-1.05,256.83,9.5,7.6,1.75,1.5,0.25,1.0,3.75,1.0,0.5,1.25,0.25,2.0,1.25,1.0,1.0,0.52,-1.48,0.89,242.75,-2.0,8.2
5.34,1.75,0.5,3.0,2.75,0.5,1.5,0.0,1.0,0.0,1.25,0.0,1.5,0.75,-1.42,0.39,-1.11,258.68,11.1,18.0,1.25,1.5,0.5,0.75,3.75,1.0,0.5,1.0,0.25,1.25,1.25,1.0,1.0,0.45,-1.42,0.77,236.85,-2.6,10.4
5.36,0.0,0.25,1.75,1.0,0.0,0.5,0.0,0.75,0.0,0.0,0.0,0.25,0.5,-1.05,0.58,-1.05,207.11,12.1,19.4,1.25,1.5,0.0,1.0,3.75,1.25,0.5,1.0,0.25,2.0,1.25,0.25,1.25,0.27,-1.36,0.77,231.62,0.1,9.5
5.38,0.0,0.25,1.75,0.75,0.0,0.5,0.0,1.0,0.0,0.0,0.0,0.25,0.75,-0.36,0.7,-0.73,155.42,9.3,8.6,0.5,0.0,0.0,0.5,1.25,0.75,0.0,0.0,0.0,0.25,0.0,0.0,0.25,0.2,-1.3,0.7,174.4,0.8,35.7
5.4,0.0,0.25,1.75,0.75,0.0,0.5,0.0,0.75,0.0,0.0,0.0,0.25,0.0,0.02,0.64,-0.48,102.42,14.9,32.5,0.5,0.25,0.0,0.5,1.5,1.0,0.0,0.0,0.0,0.25,0.0,0.0,0.25,0.14,-1.23,0.64,123.16,1.3,40.4
5.42,0.5,0.5,1.75,1.5,0.0,1.5,0.0,1.0,0.25,1.25,0.0,1.5,0.5,-0.11,0.52,0.02,98.85,5.7,-1.6,0.5,0.0,0.0,0.5,1.25,1.0,0.0,0.25,0.0,0.75,0.0,0.0,0.25,0.14,-1.11,0.64,74.99,4.4,19.6
5.44,0.25,0.5,2.75,2.5,0.75,0.5,0.0,0.75,0.0,0.0,1.0,0.25,1.0,-0.3,-0.05,0.08,111.61,13.3,20.7,0.5,0.5,0.0,0.5,1.25,1.0,0.0,0.0,0.0,0.5,0.0,0.0,0.25,0.08,-1.05,0.58,52.81,1.2,36.6
5.46,0.0,0.25,1.75,0.75,0.0,1.0,0.0,0.25,0.0,0.0,0.0,0.25,0.0,-0.36,-0.55,-0.11,104.87,14.5,41.0,0.5,0.0,0.0,0.5,1.75,1.0,0.0,0.0,0.0,0.25,0.0,0.0,0.25,-0.05,-0.92,0.52,41.08,2.3,37.9
5.48,1.25,0.5,1.75,3.0,0.0,1.5,0.0,1.5,0.25,1.25,0.5,1.5,1.5,-0.36,-0.8,-0.23,131.03,6.4,-1.8,0.5,0.0,0.0,0.5,1.25,0.75,0.0,0.0,0.0,0.75,0.0,0.25,0.25,-0.11,-0.8,0.45,38.91,1.9,14.8
5.5,0.0,0.25,3.0,0.75,0.75,0.25,0.25,1.0,0.0,0.0,0.0,0.25,1.0,-0.48,-0.92,-0.36,117.45,13.3,18.0,1.0,1.5,0.5,1.0,3.25,1.0,0.5,0.0,0.25,0.25,0.0,0.0,0.25,-0.23,-0.61,0.39,69.95,-6.0,53.3
5.52,0.0,0.25,1.75,1.0,0.0,0.25,0.0,1.0,0.0,0.0,0.0,0.25,0.5,-0.42,-0.92,-0.42,107.62,12.3,15.9,0.5,0.25,0.0,0.5,1.5,1.0,0.0,0.0,0.0,0.75,0.0,0.25,0.25,-0.36,-0.48,0.33,70.9,2.2,22.0
5.54,1.0,1.0,1.75,3.0,0.5,1.5,0.0,1.0,0.25,2.25,0.0,1.75,1.5,-0.23,-0.98,-0.42,138.74,5.0,-0.9,0.5,0.25,0.0,0.5,1.25,1.0,0.0,0.0,0.0,0.25,0.0,0.0,0.25,-0.42,-0.36,0.33,71.16,1.2,39.5
5.56,1.75,0.5,2.5,2.75,0.5,1.75,0.0,1.25,0.0,0.0,0.25,0.25,1.0,-0.23,-0.98,-0.36,166.57,11.2,32.9,0.5,0.25,0.0,0.5,1.25,1.0,0.0,0.0,0.0,0.0,0.0,0.0,0.25,-0.42,-0.3,0.27,60.2,0.3,46.9
5.58,0.0,0.25,1.75,1.0,0.0,1.5,0.0,1.0,0.0,0.5,0.0,1.5,1.0,-0.23,-0.98,-0.36,170.33,3.7,-12.7,0.5,0.25,0.0,0.5,1.25,1.0,0.0,0.0,0.0,0.0,0.0,0.0,0.25,-0.42,-0.23,0.27,57.72,0.3,46.9
5.6,1.75,0.5,2.75,2.75,0.75,1.75,0.0,0.75,0.0,0.0,0.5,0.25,1.5,-0.3,-0.98,-0.3,189.27,11.5,29.1,0.5,0.0,0.0,0.5,1.25,1.0,0.0,0.0,0.0,0.5,0.0,0.0,0.25,-0.42,-0.23,0.27,57.55,2.9,28.8
5.62,1.5,0.5,1.75,2.75,0.0,1.5,0.0,0.25,0.0,1.25,0.5,1.5,1.5,-0.3,-0.92,-0.3,193.98,8.8,2.9,0.5,0.0,0.0,0.5,1.5,1.0,0.0,0.0,0.0,0.5,0.0,0.0,0.25,-0.3,-0.36,0.2,68.46,3.0,30.4
5.64,1.5,0.5,3.0,2.75,0.75,1.5,0.0,1.0,0.0,1.75,0.25,1.25,1.25,-0.42,-0.86,-0.36,209.0,8.9,10.8,0.5,0.0,0.0,0.5,1.25,1.0,0.0,0.0,0.0,0.5,0.0,0.0,0.25,-0.11,-0.55,0.2,67.96,2.9,28.8
5.66,1.25,0.5,1.75,3.0,0.5,1.75,0.0,1.0,0.25,1.75,0.25,0.25,1.5,-0.48,-0.8,-0.42,211.46,5.2,10.7,0.5,0.0,0.0,0.5,1.25,1.0,0.0,0.0,0.0,0.25,0.0,0.25,0.25,0.02,-0.8,0.52,66.28,1.5,26.8
5.68,0.0,0.25,3.0,0.5,0.0,0.5,0.0,0.0,0.0,0.0,0.0,0.25,0.5,-0.42,-0.73,-0.42,181.86,22.5,34.5,0.5,0.0,0.0,0.5,1.25,1.0,0.0,0.0,0.0,0.25,0.0,0.25,0.25,-0.17,-0.48,0.52,64.61,1.5,26.8
5.7,0.25,0.5,1.75,3.0,0.5,1.5,0.0,0.5,0.25,1.25,0.0,1.5,1.25,-0.23,-0.67,-0.42,175.04,5.9,1.3,0.5,0.0,0.0,0.5,1.25,1.0,0.0,0.0,0.0,0.5,0.0,0.0,0.25,-0.86,-0.73,0.95,63.59,2.9,28.8
5.72,1.5,0.5,3.0,3.0,0.75,1.5,0.5,1.0,0.0,1.25,0.25,1.5,1.5,-0.17,-0.67,-0.42,182.73,9.7,10.7,0.5,0.0,0.0,0.5,1.25,1.0,0.0,0.0,0.0,0.5,0.0,0.0,0.25,0.33,-1.42,0.83,62.54,2.9,28.8
5.74,1.75,0.5,3.0,2.75,0.75,1.5,0.75,1.0,0.25,1.75,0.25,1.75,1.5,-0.11,-0.61,-0.42,215.01,9.4,6.4,0.5,0.0,0.0,0.5,1.25,1.0,0.0,0.0,0.0,0.5,0.0,0.0,0.0,-0.05,-1.11,2.27,60.57,2.2,38.0
5.76,0.0,0.25,3.0,0.5,0.5,0.25,0.5,1.0,0.0,0.0,0.0,0.25,0.0,-0.11,-0.61,-0.42,188.72,18.8,36.2,0.5,0.25,0.0,0.5,1.25,1.0,0.0,0.0,0.0,0.25,0.0,0.0,0.25,-1.11,-0.61,2.33,66.7,1.2,39.5
5.78,1.75,0.5,1.75,2.75,0.0,1.75,0.0,0.0,0.0,2.0,0.0,1.5,0.0,-0.05,-0.67,-0.42,181.71,10.5,19.1,0.5,0.0,0.0,0.5,0.5,1.0,0.0,0.0,0.0,0.5,0.0,0.0,0.25,-1.23,-0.05,1.58,62.63,2.9,22.3
5.8,1.75,0.5,2.25,2.75,0.75,1.5,0.25,1.0,0.0,2.25,0.5,1.5,1.5,-0.05,-0.61,-0.36,190.23,7.0,2.3,0.5,0.25,0.0,0.5,1.25,1.0,0.0,0.0,0.0,0.75,0.0,0.0,0.25,-1.3,0.02,1.08,66.26,2.8,27.1
5.82,1.75,0.5,2.75,2.75,0.75,1.5,0.25,1.0,0.0,2.0,0.25,1.5,1.25,0.02,-0.55,-0.36,209.12,8.6,8.2,0.5,0.25,0.0,0.5,1.5,1.0,0.0,0.0,0.0,0.5,0.0,0.0,0.25,-1.42,-0.17,0.83,69.58,2.1,34.2
5.84,1.25,0.5,2.5,2.75,0.75,1.5,0.0,1.0,0.0,2.25,0.75,1.5,1.5,0.02,-0.48,-0.36,222.14,6.5,-0.8,0.5,0.0,0.0,0.5,1.5,1.0,0.0,0.25,0.0,0.5,0.0,0.0,0.25,-1.42,-0.3,0.83,74.16,3.7,26.7
5.86,1.75,0.5,2.5,2.75,0.5,1.5,0.0,1.0,0.25,2.0,0.25,1.25,1.5,0.02,-0.55,-0.3,233.7,7.8,5.6,0.5,0.0,0.0,0.5,1.25,1.0,0.0,0.0,0.0,0.5,0.0,0.0,0.25,-0.98,-0.48,0.58,73.48,2.9,28.8
5.88,1.25,0.25,2.5,2.75,0.5,1.5,0.25,1.0,0.0,2.0,0.25,1.25,1.0,0.02,-0.61,-0.23,229.6,7.7,6.0,0.5,0.0,0.0,0.5,1.5,1.0,0.0,0.0,0.0,0.0,0.0,0.0,0.25,-0.36,-0.61,0.33,72.01,1.4,43.9
5.9,1.75,0.5,2.75,2.75,0.5,1.5,0.5,0.5,0.0,2.0,1.0,1.75,1.5,0.02,-0.61,-0.17,233.41,9.5,1.8,0.5,0.0,0.0,0.5,1.25,1.0,0.0,0.0,0.0,0.5,0.0,0.0,0.25,0.08,-0.86,0.33,69.61,2.9,28.8
5.92,1.75,0.75,2.25,2.75,0.5,1.5,1.0,1.0,0.0,2.25,1.25,1.5,1.25,0.02,-0.61,0.08,240.51,8.2,1.8,0.5,0.0,0.0,0.5,1.25,1.0,0.0,0.0,0.0,0.5,0.0,0.0,0.25,0.27,-1.11,0.45,68.33,2.9,28.8
5.94,1.5,0.5,2.75,2.75,0.5,1.5,1.25,1.0,0.0,2.5,0.25,1.5,1.5,-0.11,-0.67,0.27,240.9,8.0,2.5,0.5,0.0,0.0,0.25,1.25,1.0,0.0,0.0,0.0,0.5,0.0,0.0,0.25,0.64,-1.42,0.64,66.76,4.3,26.9
5.96,1.5,0.5,2.75,3.0,0.5,1.5,0.0,0.5,0.0,2.0,0.25,1.5,1.5,1.27,-2.61,1.89,237.83,8.8,6.3,0.5,0.0,0.0,0.5,1.25,1.0,0.0,0.0,0.0,0.75,0.0,0.0,0.25,0.95,-1.55,0.64,68.17,3.7,22.9
5.98,1.25,0.5,2.75,2.75,0.75,1.0,0.75,1.0,0.0,2.5,0.5,1.25,1.5,-0.36,-1.23,0.45,238.6,8.0,1.4,0.5,0.25,0.0,0.5,1.25,1.0,0.0,0.0,0.0,0.5,0.0,0.0,0.25,0.95,-1.55,0.64,69.82,2.0,32.9
6.0,1.25,0.25,2.75,2.75,0.75,1.5,0.0,1.0,0.0,2.0,0.25,1.5,1.5,-0.36,-0.73,0.02,236.04,7.2,2.0,0.5,0.0,0.0,0.5,1.25,1.0,0.0,0.25,0.0,0.5,0.0,0.0,0.25,0.77,-1.23,0.58,71.11,3.7,25.0
6.02,1.75,0.75,2.25,2.5,0.75,1.5,0.25,1.0,0.0,2.0,0.5,1.5,1.5,-0.3,-0.86,0.27,229.38,7.2,4.1,0.5,0.0,0.0,0.5,1.5,1.0,0.0,0.0,0.0,0.0,0.0,0.0,0.25,0.64,-1.05,0.27,70.05,1.4,43.9
6.04,1.75,0.5,2.25,2.75,0.75,1.5,1.0,0.5,0.0,2.0,0.5,1.5,1.0,-0.17,-0.8,0.52,224.85,9.3,9.1,0.5,0.0,0.0,0.5,1.25,1.0,0.0,0.0,0.0,0.5,0.0,0.0,0.25,0.52,-0.86,0.27,68.34,2.9,28.8
6.06,1.75,0.5,2.5,2.75,0.75,1.5,1.0,1.0,0.0,2.0,0.5,1.5,1.5,-0.55,-0.73,0.45,229.49,8.3,4.9,0.5,0.25,0.0,0.5,1.25,1.0,0.0,0.0,0.0,0.5,0.0,0.5,0.25,0.39,-0.8,0.33,71.31,0.9,18.4
6.08,1.0,0.5,2.75,2.75,0.75,1.5,1.25,1.0,0.0,2.5,1.0,1.5,1.5,-0.92,-0.73,0.2,234.53,7.2,-2.3,0.5,0.0,0.0,0.5,1.25,1.0,0.0,0.0,0.0,0.5,0.0,0.0,0.25,0.39,-0.73,0.33,71.21,2.9,28.8
6.1,1.5,0.25,2.75,3.0,0.75,1.5,1.25,1.0,0.0,2.0,0.25,1.75,2.25,-1.17,-0.8,0.02,241.01,7.6,-1.4,0.5,0.0,0.0,0.5,1.0,1.0,0.0,0.0,0.0,0.75,0.0,0.0,0.25,0.45,-0.73,0.33,70.91,3.7,20.7
6.12,1.0,0.75,2.5,2.5,0.75,1.5,1.25,1.0,0.0,2.0,0.25,1.75,1.5,-1.17,-0.86,-0.11,239.31,7.2,1.1,0.5,0.25,0.0,0.5,1.25,1.0,0.0,0.0,0.0,1.0,0.0,0.0,0.25,0.45,-0.73,0.2,73.37,3.4,21.9
6.14,1.75,0.25,2.5,2.75,0.75,0.5,1.25,1.0,0.25,2.25,0.75,1.75,2.25,-1.05,-0.92,-0.11,239.45,8.9,-7.4,0.5,0.0,0.0,0.5,1.25,1.0,0.0,0.0,0.0,0.75,0.0,0.0,0.25,0.45,-0.67,0.14,73.3,3.7,22.9
6.16,1.75,0.5,2.25,2.75,0.5,0.5,1.25,1.5,0.0,2.5,0.25,1.5,2.0,-0.8,-1.05,-0.17,236.82,7.8,-4.3,0.5,0.25,0.0,0.5,0.25,1.0,0.0,0.0,0.0,0.5,0.0,0.0,0.25,0.39,-0.67,0.08,67.19,1.6,25.6
6.18,1.75,0.5,2.75,2.75,0.75,1.5,1.25,1.0,0.0,2.0,0.5,1.5,1.5,-0.42,-0.98,0.02,239.34,8.9,5.8,0.5,0.0,0.0,0.5,1.5,1.0,0.25,0.25,0.0,1.5,0.0,0.0,0.25,0.33,-0.73,0.08,74.04,5.0,9.1
6.2,1.25,0.5,2.25,2.75,0.75,1.25,1.25,1.0,0.0,2.25,0.5,1.5,1.5,0.02,-0.98,0.27,236.51,7.3,-0.1,0.5,0.0,0.0,0.5,1.25,1.0,0.0,0.0,0.0,0.25,0.0,0.0,0.25,0.27,-0.86,0.02,71.1,2.1,35.6
6.22,1.0,0.25,2.5,2.75,0.75,1.5,0.5,1.0,0.0,2.5,0.25,1.5,1.5,0.2,-1.05,0.39,232.54,5.9,-2.3,0.25,0.0,0.0,0.25,1.25,1.0,0.0,0.0,0.0,0.5,0.0,0.0,0.25,0.27,-0.92,0.14,68.67,6.8,22.3
6.24,2.0,0.75,2.0,2.5,0.75,1.5,0.25,1.0,0.0,2.0,0.25,1.75,1.5,0.2,-1.05,0.58,229.48,7.1,4.0,0.25,0.0,0.0,0.5,0.25,1.0,0.0,0.0,0.0,0.5,0.0,0.0,0.25,0.2,-0.86,0.2,58.28,6.0,12.6
6.26,1.75,0.75,2.25,2.75,0.5,1.5,0.75,1.0,0.0,2.25,0.25,1.5,2.0,0.14,-1.11,0.64,230.34,6.9,0.9,0.5,0.0,0.0,0.5,0.5,1.0,0.0,0.0,0.0,0.25,0.0,0.0,0.25,0.14,-0.67,0.33,52.81,1.8,30.4
6.28,1.75,0.75,2.0,2.25,0.75,1.5,0.75,1.0,0.0,2.0,0.25,1.75,1.5,-0.05,-1.11,0.77,228.53,6.9,2.1,0.5,0.0,0.0,0.5,1.25,1.0,0.0,0.0,0.0,0.5,0.0,0.25,0.25,0.14,-0.48,0.39,54.26,2.3,21.0
6.3,1.5,0.5,2.25,2.75,0.75,1.5,1.0,1.0,0.0,2.0,0.5,1.5,1.0,-0.3,-0.92,0.77,226.66,8.1,6.3,0.5,0.0,0.0,0.5,1.25,1.0,0.0,0.0,0.0,0.25,0.0,0.0,0.25,0.08,-0.36,0.52,57.6,2.1,35.6
6.32,1.75,0.5,2.75,2.75,0.75,1.5,1.0,1.0,0.0,2.0,0.25,1.5,2.0,-0.42,-0.8,0.52,230.8,8.1,3.4,0.5,0.0,0.0,0.5,1.5,1.0,0.0,0.0,0.0,1.0,0.0,0.25,0.25,0.08,-0.3,0.58,68.53,3.6,13.5
6.34,1.0,0.5,2.25,2.5,0.5,1.5,1.25,1.0,0.0,2.5,0.5,1.5,1.25,-0.42,-0.67,0.2,227.95,6.5,-2.4,0.5,0.0,0.0,0.5,2.75,1.0,0.0,0.0,0.0,0.5,0.0,0.0,0.25,0.14,-0.17,0.64,80.3,3.0,36.1
6.36,0.75,0.75,2.0,2.75,0.75,1.25,1.25,1.0,0.0,2.0,0.25,1.5,1.5,-0.36,-0.61,0.02,224.59,6.4,0.0,0.5,0.0,0.0,0.5,1.25,1.0,0.0,0.25,0.0,0.25,0.0,0.25,0.25,0.27,-0.05,0.58,81.68,2.3,23.1
6.38,0.75,0.75,2.25,3.0,0.5,1.5,1.25,1.0,0.0,2.25,0.25,1.5,1.5,-0.36,-0.48,0.02,222.18,6.5,0.2,0.5,0.0,0.0,0.5,1.25,1.0,0.0,0.0,0.0,0.5,0.0,0.0,0.25,0.39,-0.17,0.58,79.52,2.9,28.8
6.4,1.0,0.25,2.25,2.5,0.5,1.5,1.25,1.0,0.0,2.25,0.25,1.5,1.5,-0.42,-0.48,0.08,218.64,6.3,-3.6,0.5,0.0,0.0,0.5,1.25,1.0,0.0,0.0,0.0,0.25,0.0,0.0,0.25,0.45,-0.36,0.52,73.91,2.1,35.6
6.42,1.5,0.5,2.25,2.75,0.75,1.5,1.25,1.0,0.0,2.25,0.25,1.75,1.5,-0.36,-0.55,0.2,222.33,7.3,1.1,0.5,0.0,0.0,0.5,1.25,1.0,0.0,0.0,0.0,0.5,0.0,0.0,0.25,0.52,-0.42,0.58,69.89,2.9,28.8
6.44,1.25,0.5,2.0,2.5,0.75,1.75,1.25,1.0,0.0,2.25,0.75,1.75,1.5,-0.3,-0.61,0.27,226.55,5.9,-3.7,0.5,0.0,0.0,0.5,1.0,1.0,0.0,0.0,0.0,0.75,0.0,0.0,0.25,0.45,-0.55,0.77,68.94,3.7,20.7
6.46,1.25,0.5,2.0,2.75,1.25,1.5,1.25,1.0,0.0,2.0,0.25,1.5,1.75,-0.23,-0.61,0.39,230.9,6.0,1.7,0.5,0.0,0.0,0.5,1.25,1.0,0.0,0.0,0.0,0.25,0.0,0.0,0.25,0.45,-0.48,0.77,68.4,2.1,35.6
6.48,0.25,0.25,2.0,3.0,0.75,1.5,1.25,1.0,0.0,2.0,0.25,1.5,1.5,-0.11,-0.73,0.39,223.98,5.0,-5.0,0.5,0.0,0.0,0.5,1.25,1.0,0.0,0.0,0.0,0.5,0.0,0.0,0.25,0.52,-0.23,0.64,68.38,2.9,28.8
6.5,1.0,0.75,2.25,2.75,1.25,0.25,1.25,1.0,0.0,0.0,0.25,0.25,1.5,0.02,-0.92,0.45,209.47,12.8,26.5,0.5,0.0,0.0,0.5,1.25,1.0,0.0,0.0,0.0,0.25,0.0,0.0,0.25,0.39,-0.23,0.64,65.84,2.1,35.6
6.52,0.0,0.25,1.0,0.5,0.0,0.25,0.0,0.0,0.0,0.0,0.0,0.25,0.25,0.14,-1.05,0.7,149.22,17.6,27.8,0.25,0.0,0.0,0.5,0.5,1.0,0.0,0.0,0.0,0.5,0.0,0.0,0.25,0.2,-1.42,0.77,58.5,5.8,16.5
6.54,0.0,0.0,1.5,0.5,0.0,0.25,0.25,0.0,0.0,0.0,0.0,0.25,0.0,0.02,-1.05,0.83,91.53,25.7,40.6,0.5,0.0,0.0,0.5,1.25,1.0,0.0,0.0,0.0,0.5,0.0,0.0,0.25,1.77,-3.05,2.14,59.16,2.9,28.8
6.56,0.25,0.25,1.0,0.5,0.0,0.25,0.0,0.0,0.0,0.0,0.0,0.25,0.0,0.02,-0.92,1.08,39.47,22.4,48.3,0.5,0.0,0.0,0.5,1.25,1.0,0.0,0.0,0.0,0.75,0.0,0.0,0.25,-0.17,1.02,0.58,60.94,3.7,22.9
6.58,0.0,0.0,0.75,0.25,0.0,0.0,0.0,0.0,0.0,0.0,0.0,0.25,0.25,0.02,-0.73,1.27,8.17,21.2,4.3,0.5,0.0,0.0,0.5,1.25,1.0,0.0,0.0,0.0,1.0,0.0,0.0,0.25,0.02,0.2,0.45,66.79,4.3,17.6
6.6,0.0,0.25,1.0,0.5,0.5,0.25,0.0,0.0,0.0,0.0,0.0,0.25,0.0,0.02,-0.48,1.27,0.0,16.2,45.3,0.5,0.0,0.0,0.5,1.25,1.0,0.0,0.0,0.0,1.25,0.0,0.0,0.5,0.7,-1.23,0.95,74.47,5.3,6.7
6.62,1.5,0.5,1.75,2.75,0.0,1.5,0.75,0.5,0.0,2.25,0.0,1.25,0.5,-0.05,-0.42,1.08,54.78,8.8,10.9,0.5,0.0,0.0,0.5,1.25,1.0,0.0,0.25,0.0,0.75,0.0,0.0,0.5,0.39,-1.17,1.27,78.64,4.9,12.8
6.64,1.25,0.5,2.0,2.75,0.75,1.5,1.25,1.0,0.0,2.25,0.25,1.5,1.5,-0.23,-0.36,1.02,122.07,6.3,0.5,0.5,0.0,0.0,0.75,1.25,1.0,0.0,0.0,0.0,0.75,0.0,0.0,0.25,0.27,0.08,0.39,79.56,2.5,24.9
6.66,1.0,0.25,2.25,2.75,0.75,1.5,1.25,1.0,0.0,2.25,0.25,1.0,1.5,-0.42,-0.42,0.95,174.26,6.3,1.9,0.5,0.0,0.0,0.5,1.25,1.0,0.0,0.0,0.0,0.75,0.0,0.0,0.25,0.27,0.08,0.27,77.51,3.7,22.9
6.68,0.0,0.0,2.25,0.5,0.5,0.25,1.25,1.0,0.0,0.0,0.25,0.25,1.5,-0.48,-0.36,0.95,171.42,10.5,-3.7,0.5,0.5,0.0,0.5,1.25,0.5,0.0,0.0,0.0,0.75,0.0,0.0,0.25,0.33,-0.36,0.64,76.41,-0.2,30.5
6.7,0.0,0.25,1.0,0.5,0.5,0.25,0.75,0.0,0.0,0.0,0.0,0.25,0.0,-0.48,-0.23,0.95,137.98,18.0,43.3,0.5,0.0,0.0,0.5,1.25,1.0,0.0,0.0,0.25,0.75,0.0,0.0,0.25,0.45,-0.48,0.7,75.87,2.8,19.6
6.72,0.0,0.75,1.25,0.75,0.0,1.5,0.25,0.0,0.0,1.0,0.0,0.25,0.0,-0.42,-0.17,0.95,108.74,5.4,26.5,0.5,0.25,0.0,0.5,1.25,1.0,0.0,0.0,0.0,0.75,0.0,0.0,0.25,0.45,-0.23,0.7,76.45,2.8,27.1
6.74,0.0,0.5,1.75,0.25,0.5,0.25,1.25,1.0,0.0,0.0,0.0,0.25,0.0,-0.36,-0.23,0.7,92.79,14.7,31.5,0.5,0.0,0.0,0.5,1.25,1.0,0.0,0.0,0.0,0.75,0.0,0.0,0.25,0.33,-0.17,0.77,75.75,3.7,22.9
6.76,0.0,0.0,2.25,0.0,0.75,0.0,2.5,2.25,0.0,0.0,1.25,0.0,0.0,-0.36,-0.23,0.64,105.48,12.7,5.3,0.5,0.0,0.0,0.5,1.25,1.25,0.0,0.0,0.0,0.5,0.0,0.0,0.25,0.27,-0.23,0.77,74.79,4.0,29.1
6.78,0.0,0.0,0.0,0.0,0.0,0.0,0.0,0.0,0.0,0.0,0.0,0.0,0.0,-0.3,-0.36,0.77,72.77,0.0,0.0,0.75,0.0,0.0,0.5,1.25,1.0,0.0,0.0,0.0,1.0,0.0,0.0,0.25,0.39,-0.05,0.64,74.78,2.4,21.4
6.8,0.0,0.0,0.0,0.0,0.0,0.0,0.0,0.0,0.0,0.0,0.0,0.0,0.0,-0.23,-0.3,0.95,40.91,0.0,0.0,0.5,0.25,0.0,0.5,1.25,1.0,0.0,0.0,0.0,0.5,0.0,0.0,0.25,0.52,0.02,0.64,73.93,2.0,32.9
6.82,0.0,0.0,0.0,0.0,0.0,0.0,0.0,0.0,0.0,0.0,0.0,0.0,0.0,-0.42,-1.48,1.64,0.64,0.0,0.0,0.75,0.0,0.0,0.75,1.25,1.0,0.0,0.0,0.0,1.0,0.0,0.25,0.25,0.64,0.02,0.64,78.21,1.0,17.1
6.84,0.0,0.0,0.0,0.0,0.0,0.0,0.75,1.75,0.0,0.5,0.25,0.25,1.5,-1.98,-2.8,3.27,3.82,-9.0,-66.9,0.75,0.0,0.0,0.75,1.25,1.0,0.0,0.0,0.25,0.75,0.25,0.0,0.25,0.7,0.02,0.64,81.86,-0.3,20.6
6.86,1.5,0.25,2.5,0.5,0.75,0.0,0.75,1.0,0.0,0.0,0.0,0.25,1.25,-0.05,0.39,0.45,35.45,16.0,23.3,0.5,0.0,0.0,0.5,1.25,1.0,0.0,0.0,0.0,0.75,0.0,0.0,0.25,0.52,0.08,0.52,80.75,3.7,22.9
6.88,0.25,0.0,2.75,0.25,0.75,0.25,1.25,1.0,0.0,0.0,0.0,0.25,1.5,-1.3,0.02,1.77,76.34,12.3,5.8,0.5,0.25,0.0,0.5,1.5,1.0,0.0,0.25,0.0,1.0,0.0,0.0,0.25,0.52,0.08,0.2,83.32,4.0,20.8
6.9,0.0,0.25,1.75,0.25,0.0,0.25,0.0,0.0,0.0,0.0,0.0,0.25,1.5,-0.92,-0.05,0.77,89.29,12.0,-8.8,0.5,0.0,0.0,0.5,1.5,1.0,0.0,0.0,0.0,1.25,0.0,0.25,0.25,0.45,0.14,0.08,84.65,4.2,9.4
6.92,0.0,0.0,1.75,0.5,0.5,0.25,0.0,0.0,0.0,0.0,0.0,0.25,1.5,-0.42,-0.17,0.89,93.05,10.4,-3.5,0.75,0.0,0.0,0.75,1.25,1.0,0.25,0.0,0.25,1.0,0.0,0.5,0.25,3.39,1.64,4.7,89.55,-0.6,9.8
6.94,0.25,0.0,1.5,0.0,0.5,3.0,3.0,0.0,0.0,0.0,0.0,0.25,1.5,-0.11,-0.3,0.7,104.01,3.3,10.3,0.5,0.25,0.0,0.5,1.25,1.0,0.0,0.0,0.25,2.0,0.0,0.0,0.25,-0.17,0.83,0.77,93.4,4.8,3.6
6.96,0.0,0.25,1.75,0.0,0.5,1.5,1.25,1.0,1.25,0.25,1.25,0.25,1.5,-0.05,-0.23,0.95,121.58,4.5,-16.0,0.75,0.25,0.0,0.75,2.5,1.0,0.0,0.0,0.25,2.25,0.0,1.0,0.25,-0.05,-0.17,1.2,113.28,1.8,1.0
6.98,0.0,0.0,1.75,0.0,0.0,0.0,1.25,1.0,1.0,1.5,3.0,1.75,0.25,-0.23,-0.05,1.08,147.98,9.5,-46.5,2.0,1.5,0.5,0.75,2.25,2.75,0.25,0.0,0.0,1.75,0.5,0.0,1.75,0.02,-0.05,1.2,153.89,-0.4,19.7
7.0,1.25,0.25,1.75,0.0,0.75,1.25,1.25,1.0,0.25,2.25,0.5,1.75,2.75,-0.48,-0.11,1.08,180.8,2.4,-28.0,0.5,1.5,0.0,1.0,1.25,1.25,0.0,0.0,0.25,2.25,0.0,0.0,0.25,0.08,0.08,1.14,162.18,1.6,20.0
7.02,1.25,1.25,2.25,0.0,0.75,0.0,2.75,1.75,0.75,0.0,1.75,0.0,2.0,-0.55,-0.11,0.95,203.02,11.7,1.1,0.5,0.0,0.0,0.75,1.75,0.75,0.25,0.0,0.0,1.0,0.25,0.75,0.25,0.2,0.08,0.89,152.97,-0.1,3.6
7.04,2.0,0.25,0.0,1.25,3.0,1.5,1.25,1.0,0.75,0.0,2.5,0.25,1.75,-0.36,-0.17,0.95,219.31,4.1,3.9,0.5,0.0,0.0,0.75,1.25,1.0,0.0,0.0,0.0,1.5,0.0,0.0,0.25,0.33,0.08,0.77,128.23,4.3,10.9
7.06,0.0,0.25,1.75,0.25,0.0,0.0,1.25,0.0,0.0,0.0,0.0,0.25,1.5,-0.42,-0.23,0.77,182.16,16.3,-6.3,0.5,0.0,0.0,0.5,1.25,0.75,0.0,0.0,0.0,1.75,0.0,0.25,0.25,0.33,0.08,0.7,106.21,4.5,-1.8
