time,left pressure 0[N/cm虏],left pressure 1[N/cm虏],left pressure 2[N/cm虏],left pressure 3[N/cm虏],left pressure 4[N/cm虏],left pressure 5[N/cm虏],left pressure 6[N/cm虏],left pressure 7[N/cm虏],left pressure 8[N/cm虏],left pressure 9[N/cm虏],left pressure 10[N/cm虏],left pressure 11[N/cm虏],left pressure 12[N/cm虏],left acceleration X[g],left acceleration Y[g],left acceleration Z[g],left total force[N],left center of pressure X[mm],left center of pressure Y[mm],right pressure 0[N/cm虏],right pressure 1[N/cm虏],right pressure 2[N/cm虏],right pressure 3[N/cm虏],right pressure 4[N/cm虏],right pressure 5[N/cm虏],right pressure 6[N/cm虏],right pressure 7[N/cm虏],right pressure 8[N/cm虏],right pressure 9[N/cm虏],right pressure 10[N/cm虏],right pressure 11[N/cm虏],right pressure 12[N/cm虏],right acceleration X[g],right acceleration Y[g],right acceleration Z[g],right total force[N],right center of pressure X[mm],right center of pressure Y[mm]
0.02,1.5,0.75,0.0,0.5,0.0,2.75,3.25,2.5,2.5,2.0,3.0,5.75,5.5,-0.11,-0.11,0.83,373.97,0.7,-51.1,3.0,0.75,3.0,2.75,3.5,0.25,0.0,0.0,0.5,0.5,0.0,0.25,0.25,2.45,-0.48,1.08,149.8,-16.5,53.3
0.04,1.75,0.75,0.25,2.0,3.5,4.0,4.5,4.5,3.5,3.5,4.0,6.75,5.5,-0.05,-0.05,0.95,490.29,0.4,-34.0,1.5,0.75,2.75,2.75,3.5,0.25,0.0,0.0,0.25,0.0,0.0,0.25,0.25,0.89,0.2,0.83,78.36,-15.4,55.1
0.06,2.25,0.75,1.0,2.5,3.5,3.75,2.0,5.0,4.25,6.0,5.75,6.75,6.75,-0.11,0.02,1.02,621.2,0.0,-37.7,1.25,0.75,2.5,2.75,3.0,0.0,0.0,0.0,0.25,0.0,0.0,0.25,0.5,0.64,0.14,0.64,40.13,-15.6,51.1
0.08,3.0,1.25,2.25,2.5,3.5,5.5,5.25,5.75,5.0,6.0,5.0,7.5,7.25,-0.17,-0.05,1.02,778.43,1.4,-29.9,1.25,0.75,2.5,2.5,2.25,0.25,0.0,0.0,0.25,0.0,0.0,0.25,0.5,0.58,-0.05,0.64,22.6,-16.2,50.3
0.1,3.0,1.5,2.25,2.75,4.25,5.25,5.5,6.0,5.25,6.75,6.25,7.5,7.25,-0.11,-0.05,1.02,913.5,1.5,-29.5,1.25,0.75,3.25,2.75,2.25,0.0,0.0,0.0,0.25,0.0,0.0,0.25,0.5,0.39,-0.23,0.7,29.07,-18.4,51.5
0.12,3.0,1.5,2.25,3.0,6.5,6.0,5.5,6.5,5.5,6.75,5.75,7.5,7.25,-0.11,-0.11,1.02,1048.02,1.0,-24.8,0.5,0.75,3.0,2.75,1.5,0.5,0.0,0.0,0.25,0.25,0.0,0.25,0.5,0.27,-0.23,0.7,47.0,-16.0,44.4
0.14,3.0,1.75,2.25,3.75,6.5,6.25,5.75,6.5,5.75,6.5,6.25,7.0,7.25,-0.11,-0.05,0.95,1150.13,1.3,-22.7,0.5,0.75,2.0,2.5,1.25,0.5,0.0,0.0,0.25,0.25,0.0,0.25,0.5,0.14,-0.17,0.7,60.68,-14.1,41.8
0.16,3.0,1.75,2.5,3.5,6.5,6.5,5.75,6.5,5.5,6.25,6.0,6.75,7.0,-0.11,-0.05,0.95,1182.94,1.3,-21.3,0.25,0.75,1.75,2.0,0.25,0.25,0.0,0.0,0.25,0.25,0.0,0.25,0.75,0.02,-0.11,0.77,62.47,-15.4,30.7
0.18,3.0,1.75,2.25,3.25,6.5,6.75,6.0,6.5,5.5,5.75,5.75,6.5,6.25,-0.11,-0.05,0.95,1171.37,1.3,-19.6,0.0,0.75,3.0,2.0,0.25,0.5,0.0,0.0,0.25,0.5,0.0,0.25,0.25,-0.05,-0.05,0.95,71.88,-18.3,39.5
0.2,3.25,1.75,2.25,3.25,6.5,7.0,5.75,6.5,5.25,5.25,5.75,5.75,6.25,-0.11,-0.05,0.95,1132.62,1.3,-17.4,0.0,0.75,1.5,2.25,1.0,0.25,0.0,0.0,0.0,0.0,0.0,0.25,0.5,-0.05,0.02,1.14,79.59,-13.9,42.9
0.22,3.25,2.0,2.5,3.25,6.5,7.0,6.0,6.5,5.5,5.25,5.75,5.0,5.5,-0.11,-0.05,0.95,1081.49,1.7,-14.3,0.0,0.75,1.75,1.75,0.0,0.25,0.0,0.0,0.0,0.0,0.0,0.25,0.5,0.08,0.08,1.14,78.05,-18.4,40.0
0.24,3.5,2.0,2.25,3.25,6.5,7.25,6.0,6.5,5.25,5.25,5.25,5.0,5.25,-0.11,-0.05,0.95,1032.99,1.5,-13.1,0.0,0.75,1.75,1.5,0.5,0.0,0.0,0.0,0.0,0.5,0.0,0.25,0.5,0.27,0.2,1.2,76.61,-15.2,31.1
0.26,4.0,2.0,2.5,3.75,6.5,7.5,6.0,6.5,5.5,4.75,4.75,3.75,4.25,-0.11,-0.05,0.95,994.9,2.2,-6.4,0.0,0.75,2.75,2.75,0.25,0.5,0.0,0.0,0.0,0.25,0.75,0.25,0.25,0.45,0.27,1.33,91.68,-18.1,36.4
0.28,4.25,2.0,2.5,3.75,6.75,7.5,6.25,6.5,5.25,5.0,5.0,3.5,4.0,-0.11,-0.05,0.95,953.68,2.3,-5.2,0.25,0.5,1.5,2.75,1.0,2.25,0.5,1.0,0.25,2.25,0.0,0.25,0.5,0.58,0.39,1.39,126.74,-1.9,13.4
0.3,4.5,2.0,3.0,4.0,6.75,8.0,6.5,6.75,5.5,4.75,4.5,3.25,3.75,-0.11,-0.05,0.95,936.19,2.7,-2.1,0.0,0.75,1.75,1.5,1.0,0.0,0.0,0.0,0.0,0.25,1.25,0.75,0.5,0.7,0.58,1.58,134.16,-13.7,11.3
0.32,4.75,1.5,3.75,4.75,6.75,8.25,6.75,7.0,5.75,4.75,4.5,3.25,3.0,-0.11,-0.05,0.95,939.78,3.5,0.1,1.0,0.25,2.75,1.5,3.25,2.0,0.25,0.5,0.25,0.0,0.5,1.5,2.0,0.89,0.95,1.83,175.62,-6.4,12.0
0.34,5.25,2.0,4.5,5.5,8.25,8.75,7.5,7.0,5.5,4.25,4.0,2.5,3.0,-0.11,-0.05,0.95,978.46,4.2,7.4,1.25,1.25,3.0,2.75,3.75,1.5,0.25,0.25,0.5,2.0,1.0,1.25,0.5,1.02,1.64,1.95,219.5,-8.4,21.9
0.36,5.75,1.75,4.75,5.75,8.5,9.0,7.75,7.0,5.5,4.5,4.0,2.0,2.25,-0.11,-0.05,0.95,1021.07,4.6,10.4,1.25,0.25,2.75,2.75,3.75,2.25,0.5,0.0,0.5,2.25,1.0,1.25,1.75,1.02,2.64,1.58,262.02,-5.5,9.4
0.38,6.25,2.0,5.5,6.25,9.0,9.0,8.0,7.0,5.25,3.5,3.75,2.0,2.25,-0.11,-0.05,0.95,1072.13,5.5,14.5,1.25,1.0,2.75,2.75,3.75,2.0,0.25,1.0,0.5,2.5,1.0,1.25,1.5,0.52,3.27,0.95,292.99,-4.9,10.4
0.4,6.75,1.75,6.25,7.0,10.0,9.5,8.5,7.25,5.5,3.75,3.5,2.0,2.0,-0.11,-0.05,1.02,1141.35,5.9,16.7,1.25,1.25,2.75,2.75,3.0,2.25,0.0,0.75,0.5,2.5,1.0,1.5,1.5,-0.55,4.45,-0.36,314.38,-5.1,9.1
0.42,7.5,2.0,6.25,8.25,10.5,9.75,8.75,7.25,5.25,4.0,2.75,2.0,2.25,-0.11,-0.05,1.02,1222.11,6.0,19.2,1.25,0.75,1.5,2.5,0.25,2.5,0.0,1.25,0.5,1.5,1.25,1.0,1.75,-4.17,6.77,-0.61,296.38,-3.6,-2.9
0.44,8.25,2.0,7.5,8.75,12.5,9.75,9.0,7.25,5.25,3.5,3.0,2.0,2.25,-0.11,-0.05,1.02,1319.95,6.8,22.2,0.0,0.5,1.25,1.25,0.5,0.75,0.0,1.0,0.25,2.75,1.0,3.0,3.5,0.14,-0.48,2.95,278.35,0.5,-49.6
0.46,9.25,3.25,7.75,11.0,14.5,10.5,9.0,7.25,5.0,3.25,1.75,2.0,2.25,-0.11,0.02,1.02,1421.32,7.1,28.2,1.25,1.5,2.75,2.5,1.25,0.5,0.0,1.25,0.75,5.0,1.5,4.75,6.0,-0.23,-0.05,0.95,307.35,-2.7,-36.5
0.48,11.0,3.5,8.5,11.5,14.5,10.5,8.75,7.25,4.75,3.5,2.75,2.0,2.25,-0.11,0.08,1.14,1526.77,7.9,28.9,0.0,0.75,1.0,0.0,0.0,0.0,0.0,2.0,1.25,5.75,0.75,6.0,7.0,0.77,0.7,3.58,337.01,3.9,-77.8
0.5,13.0,4.0,8.75,13.0,14.5,11.0,8.5,7.25,4.25,3.25,2.75,2.0,2.25,-0.17,0.14,1.08,1628.77,8.5,31.9,1.25,0.0,1.5,1.25,0.5,2.75,0.0,2.75,1.75,6.5,4.5,6.5,8.0,0.2,0.14,1.2,425.43,1.9,-59.2
0.52,15.0,4.25,9.75,13.5,15.5,10.5,8.5,7.0,3.75,2.25,2.5,2.0,2.25,-0.11,0.14,1.2,1714.51,9.8,36.1,1.25,0.75,2.75,0.0,1.5,2.75,0.0,2.75,2.25,6.5,4.5,6.75,8.0,0.08,0.08,1.02,515.54,0.8,-52.9
0.54,17.0,6.5,9.75,13.5,15.0,9.75,8.25,6.5,3.25,2.75,2.25,1.75,2.25,-0.3,0.27,1.33,1783.45,10.6,39.6,1.25,0.75,2.5,1.25,1.0,3.0,0.75,3.0,2.5,6.5,5.0,6.5,8.0,0.2,0.02,0.95,604.14,0.2,-50.1
0.56,18.0,6.5,9.75,12.0,15.0,9.0,8.0,6.5,3.0,2.75,2.75,1.5,2.0,-0.3,0.33,1.39,1812.08,11.0,40.4,2.0,0.75,2.5,2.0,1.0,3.75,0.75,3.25,3.25,6.5,5.0,6.5,8.0,0.14,0.02,0.95,656.17,-0.3,-44.3
0.58,17.5,6.5,9.75,8.25,13.5,8.5,8.0,6.0,2.25,2.25,2.0,1.75,2.0,-0.42,0.52,1.7,1764.76,11.4,41.4,1.25,0.75,4.0,3.25,5.0,4.25,1.75,4.5,3.75,6.25,6.5,6.0,8.0,0.08,0.02,0.95,752.71,-1.1,-31.1
0.6,14.0,4.5,8.75,5.5,10.0,7.25,7.75,5.25,1.5,0.5,1.25,1.75,1.0,-0.55,0.64,2.39,1583.68,12.4,43.7,1.5,0.75,2.75,2.75,4.25,5.0,2.0,4.5,3.75,7.0,6.0,6.0,8.0,0.08,0.02,0.95,822.88,0.2,-34.2
0.62,9.5,3.5,5.5,4.75,7.5,4.5,6.0,3.25,1.0,0.75,1.5,0.25,1.25,-0.92,0.52,2.45,1282.92,12.1,43.6,3.5,2.25,4.0,3.25,5.5,6.0,2.75,4.5,4.5,6.0,5.25,5.5,7.0,0.14,0.02,0.95,911.63,-2.3,-17.0
0.64,6.0,0.5,1.0,1.0,6.5,2.75,3.75,2.0,0.75,0.0,0.25,0.0,0.25,-0.98,0.33,2.08,769.89,8.9,47.5,3.75,2.5,5.0,4.75,6.25,6.25,3.25,4.25,4.5,5.75,4.5,4.25,6.0,0.14,0.02,0.95,984.44,-3.6,-6.8
0.66,2.25,0.0,1.0,0.75,0.0,2.5,3.75,0.25,0.75,0.0,0.25,0.0,0.5,-0.36,-0.36,1.27,360.24,13.3,33.6,5.0,2.5,5.25,5.0,6.25,6.5,3.75,4.25,4.5,5.25,4.5,3.0,4.75,0.14,0.02,0.95,1033.2,-4.9,1.0
0.68,2.0,0.0,1.25,0.0,3.5,1.75,2.5,0.25,0.5,0.0,0.5,1.25,0.25,-0.05,-0.23,2.7,157.39,9.1,26.3,5.75,2.5,5.25,5.25,6.75,7.0,4.25,4.25,4.5,4.5,3.5,3.0,3.75,0.14,0.02,0.95,1040.43,-5.6,7.5
0.7,0.75,0.25,1.0,0.25,3.5,2.0,2.75,0.25,0.5,0.0,0.25,0.0,0.25,-0.92,-1.17,3.27,3.43,5.4,38.5,6.0,2.5,6.25,7.0,8.0,7.0,4.75,3.75,3.75,4.5,3.25,2.25,3.25,0.14,0.02,0.95,1050.26,-6.7,15.2
0.72,1.25,0.5,0.5,0.25,3.5,1.75,3.25,0.0,0.75,0.0,0.25,0.0,0.25,-0.86,-0.8,1.33,0.0,7.2,41.2,7.25,2.5,6.75,7.25,8.25,7.0,5.25,4.0,3.75,4.25,3.25,2.0,3.25,0.14,0.02,0.95,1079.37,-7.6,18.1
0.74,1.25,0.25,0.5,0.75,3.0,2.25,3.0,0.0,0.0,0.0,0.5,0.0,0.25,-0.48,-0.55,0.33,0.0,6.2,42.8,7.75,3.0,7.0,8.75,9.0,7.5,5.5,3.75,3.75,3.75,2.75,2.0,3.0,0.14,0.02,1.02,1118.64,-8.2,23.1
0.76,1.25,0.5,0.25,0.75,3.5,1.75,2.75,0.0,0.25,0.0,0.5,0.0,0.25,-0.11,-0.36,0.27,0.0,6.2,42.9,8.25,3.25,7.75,10.5,9.75,7.25,5.75,3.75,3.25,3.75,2.75,2.0,2.5,0.08,0.08,1.02,1187.37,-9.1,27.1
0.78,1.25,0.5,0.25,0.25,3.0,1.75,2.75,0.0,0.25,0.0,0.5,0.0,0.0,-0.05,-0.36,0.52,0.0,6.7,45.6,9.0,3.25,7.75,10.5,10.0,7.0,5.75,3.25,3.25,3.5,2.5,1.5,2.25,0.08,0.08,0.95,1232.15,-9.8,30.6
0.8,1.25,0.5,0.25,0.25,2.5,2.0,3.0,0.0,0.25,0.0,0.5,0.0,0.25,-0.11,-0.36,0.95,0.0,6.3,40.4,9.75,3.25,8.75,11.5,10.5,7.0,5.5,3.0,2.75,3.25,2.5,1.5,2.5,0.02,0.14,0.95,1275.87,-10.5,33.0
0.82,1.25,0.5,0.0,0.5,2.25,1.75,2.75,0.25,0.25,0.0,0.25,0.0,0.25,-0.05,-0.3,1.08,2.57,5.7,41.2,9.75,3.75,8.75,12.0,11.5,7.0,5.5,3.0,2.5,3.25,2.25,1.5,2.25,0.02,0.14,0.95,1307.39,-10.4,35.1
0.84,1.0,0.5,0.0,0.5,0.0,1.75,2.5,0.25,0.0,0.5,0.25,0.0,0.25,-0.05,-0.23,1.02,37.16,5.9,27.6,11.0,2.5,8.75,11.5,11.5,7.0,5.25,2.25,2.0,3.0,2.5,1.5,2.25,0.02,0.2,1.02,1318.19,-11.1,36.1
0.86,1.0,0.5,0.0,0.25,0.0,1.75,2.75,0.25,0.25,0.5,0.25,0.0,0.0,-0.11,-0.05,1.08,62.94,7.1,29.5,11.5,3.25,9.0,13.0,11.5,6.25,4.75,2.0,0.0,3.0,1.25,1.5,0.5,0.02,0.2,1.02,1301.95,-12.6,46.4
0.88,1.0,0.25,0.0,0.25,0.75,1.25,2.5,0.25,0.0,0.5,0.25,0.0,0.0,-0.17,0.02,1.33,78.74,7.0,32.6,12.0,4.0,9.25,13.0,12.0,0.0,4.0,2.25,0.0,1.5,0.75,1.25,1.75,0.08,0.27,1.02,1237.61,-16.0,49.8
0.9,1.25,0.25,0.0,0.25,0.0,1.5,2.75,0.25,0.0,0.5,0.25,0.0,0.25,-0.36,0.33,1.95,81.31,8.0,25.6,13.0,4.25,9.75,13.5,11.0,6.75,3.0,2.75,0.0,1.25,2.25,1.5,1.25,0.02,0.33,1.02,1247.03,-13.1,47.3
0.92,1.0,0.5,0.0,0.25,0.0,1.25,2.75,0.25,0.25,0.5,0.5,0.5,0.25,-0.55,0.45,2.52,78.25,8.7,8.9,13.5,3.75,10.5,14.5,13.0,6.5,2.75,2.75,0.0,1.5,2.25,1.5,2.0,0.02,0.33,1.02,1298.56,-12.7,45.7
0.94,1.0,0.25,0.0,0.25,0.0,1.0,2.5,0.25,0.0,0.25,0.5,0.0,0.25,-0.8,1.14,2.7,74.36,10.5,21.4,12.0,3.75,11.0,13.5,12.0,6.25,2.25,2.25,1.25,1.25,1.0,0.5,0.75,-0.05,0.33,1.02,1308.5,-13.6,51.4
0.96,1.0,0.25,0.0,0.5,0.0,1.75,2.75,0.25,0.0,0.5,0.25,0.0,0.0,-0.92,2.14,2.83,74.91,7.1,30.6,13.0,3.25,10.5,11.5,11.5,5.75,3.5,1.75,1.25,0.0,0.75,0.75,1.5,0.02,0.39,1.14,1276.45,-14.7,52.4
0.98,1.0,0.25,0.0,0.25,0.0,2.25,2.5,0.25,0.0,0.25,0.5,0.0,0.0,-0.98,3.08,1.64,75.71,4.8,29.9,13.0,3.25,10.5,14.0,10.5,5.75,4.25,1.5,0.75,1.0,0.75,0.25,1.5,0.27,0.52,1.33,1238.45,-14.9,52.8
1.0,1.0,0.5,0.0,0.5,0.0,1.0,2.75,0.5,0.25,0.5,0.5,0.0,0.25,-0.86,4.77,0.14,81.59,9.2,17.6,12.5,4.0,9.75,12.0,10.0,5.0,5.0,1.25,0.75,1.0,0.75,0.25,1.5,0.33,0.64,1.58,1172.45,-15.2,53.2
1.02,1.0,0.5,0.0,0.5,0.0,1.75,2.5,0.5,0.25,0.75,0.5,0.25,0.25,1.02,6.77,-0.61,92.53,4.9,11.5,12.0,4.0,9.25,10.5,9.0,4.0,5.0,1.75,0.75,0.25,0.75,0.25,1.5,0.52,0.89,2.08,1088.85,-15.9,53.8
1.04,1.0,0.25,0.0,0.5,0.0,1.75,2.5,0.5,0.5,2.5,0.5,2.0,1.0,2.39,6.52,1.02,121.19,1.1,-31.0,9.5,2.5,8.75,7.0,7.75,3.75,4.5,0.0,0.5,0.0,0.0,0.25,1.25,0.77,0.83,2.39,920.81,-17.1,57.7
1.06,1.0,0.0,0.0,0.5,1.75,2.75,2.5,2.0,0.5,3.0,1.5,5.0,5.0,-0.23,0.33,1.64,206.94,-2.9,-49.0,7.25,0.0,6.75,4.0,1.75,0.25,1.0,0.0,1.0,0.0,0.0,0.25,0.5,0.83,0.77,2.39,630.57,-26.1,59.6
1.08,0.5,0.0,0.0,0.75,0.0,3.75,2.5,2.5,1.0,5.25,1.75,6.75,6.25,0.02,0.27,2.58,296.87,-4.5,-62.8,3.0,0.5,5.75,1.75,5.5,1.25,1.0,0.0,0.25,0.0,1.0,0.25,0.75,0.58,-0.23,2.14,400.05,-15.7,46.4
1.1,1.0,0.0,0.0,0.5,0.0,3.25,4.25,4.0,2.0,5.25,3.0,6.75,6.25,-0.11,0.7,2.02,404.91,-2.5,-59.3,1.25,0.5,3.0,2.25,4.25,1.25,0.0,0.5,0.5,0.5,0.0,1.25,0.0,0.89,-0.3,3.27,250.32,-10.2,36.3
1.12,2.0,0.75,0.0,2.5,3.5,5.25,3.25,4.5,3.25,6.75,4.75,7.5,8.0,-0.05,-0.11,0.95,584.85,-1.8,-40.3,0.0,0.75,2.75,2.5,3.0,1.0,0.25,0.0,0.5,0.0,0.0,0.25,0.0,1.27,-1.42,2.7,141.54,-12.3,50.0
1.14,2.25,0.0,2.25,3.0,3.75,5.25,5.0,5.25,4.0,6.75,5.75,7.5,8.0,-0.05,0.14,1.08,766.11,0.5,-35.6,1.25,0.75,1.75,2.5,1.25,2.5,0.0,0.0,0.75,0.25,0.0,0.25,0.25,0.89,-0.73,0.2,58.45,-9.3,43.4
1.16,2.5,0.0,0.0,0.75,3.5,5.0,5.0,5.75,5.0,0.0,5.0,7.5,7.25,-0.11,-0.05,1.02,830.41,0.7,-38.0,1.25,0.75,2.0,2.5,2.25,0.5,0.0,0.0,0.5,1.5,0.0,0.25,0.5,0.52,-0.55,0.14,28.42,-10.6,32.7
1.18,4.25,1.5,2.5,3.25,5.25,6.25,5.75,6.5,5.0,6.25,5.75,7.5,8.0,-0.11,-0.05,0.95,972.0,1.7,-23.9,1.0,0.5,2.25,2.25,3.75,0.5,0.0,0.0,0.25,0.0,0.0,0.25,0.5,0.08,-0.48,0.45,24.38,-11.8,48.1
1.2,3.5,1.75,2.25,3.25,6.25,6.75,5.75,6.5,5.0,7.0,5.75,7.0,7.75,-0.11,-0.05,0.95,1073.07,0.8,-22.9,1.0,1.5,2.5,2.0,1.25,0.5,0.0,0.0,0.25,0.5,0.5,0.25,0.75,-0.3,-0.42,0.89,27.86,-14.4,37.1
1.22,4.0,1.75,2.5,3.25,5.5,7.0,6.0,6.5,5.0,5.75,5.0,6.0,7.25,-0.11,-0.05,0.95,1143.81,1.5,-18.6,0.75,0.25,1.75,1.75,1.75,0.25,0.0,0.0,0.25,0.25,0.0,0.25,0.0,-0.36,-0.36,1.08,21.87,-15.4,48.7
1.24,4.0,1.75,2.5,3.25,6.5,7.25,6.0,6.5,5.0,5.5,3.25,5.25,6.25,-0.11,-0.05,0.95,1144.45,1.3,-12.6,0.5,0.25,1.75,1.5,1.0,0.0,0.0,0.0,0.25,0.25,0.0,0.25,0.25,-0.05,-0.17,0.89,18.65,-17.5,39.9
1.26,4.0,2.0,2.5,3.5,6.5,7.5,6.25,6.5,4.75,5.25,4.0,5.0,5.5,-0.11,-0.05,0.95,1127.41,1.6,-10.3,0.0,0.75,2.0,1.5,0.0,0.5,0.0,0.0,0.25,0.25,0.5,0.25,0.25,-0.11,-0.05,1.02,24.5,-16.9,29.6
1.28,4.5,2.0,2.5,4.0,6.5,8.0,6.25,6.5,4.75,4.25,3.0,3.0,4.25,-0.11,-0.05,0.95,1055.39,2.1,-0.4,0.25,0.25,2.5,1.5,1.5,0.0,0.0,0.0,0.25,0.5,0.25,0.25,0.0,-0.17,0.02,1.2,52.51,-17.2,38.9
1.3,4.5,2.0,2.75,4.5,6.75,8.0,6.5,6.5,4.75,4.25,2.75,2.5,4.0,-0.11,-0.05,0.95,992.18,2.4,2.4,1.25,0.5,1.75,1.25,3.75,0.25,0.0,0.0,0.0,1.25,0.75,1.0,0.5,0.02,0.14,1.39,107.2,-8.4,21.4
1.32,4.75,2.0,2.75,5.0,6.75,8.0,6.5,6.5,4.75,3.75,2.75,2.0,3.0,-0.11,-0.05,0.95,946.52,3.1,7.1,0.25,0.75,2.75,1.5,0.0,0.0,0.0,0.0,0.5,1.5,0.0,1.5,0.25,0.14,0.27,1.83,123.34,-15.9,4.2
1.34,4.75,2.0,3.75,5.25,8.0,8.0,6.5,6.5,4.75,4.0,2.75,2.5,2.25,-0.11,-0.05,0.95,931.74,3.8,9.7,0.5,1.5,3.0,2.75,3.75,2.0,0.0,0.0,0.5,0.25,0.0,1.25,0.0,0.33,0.39,2.14,175.26,-9.8,41.7
1.36,4.75,2.0,4.5,5.5,8.5,8.75,6.75,6.5,4.5,3.5,3.0,1.75,2.25,-0.11,-0.05,0.95,928.74,4.1,13.3,0.0,0.75,2.75,1.25,3.25,0.5,0.0,0.0,0.5,0.5,0.75,0.25,0.25,0.45,0.77,2.64,184.17,-10.7,32.9
1.38,5.75,2.0,4.5,5.5,9.0,9.0,7.25,6.5,4.5,3.5,2.75,2.0,2.25,-0.11,-0.05,0.95,962.53,4.5,15.0,1.25,1.25,1.75,2.75,0.0,2.25,0.0,0.0,0.5,1.75,0.0,1.25,0.0,0.45,1.52,2.89,196.68,-9.1,23.7
1.4,6.0,2.25,4.75,6.25,9.75,9.25,7.75,6.5,4.75,3.5,2.75,2.0,2.25,-0.11,-0.05,0.95,1017.12,4.8,16.8,1.25,1.25,1.5,2.75,0.5,2.5,0.0,0.0,0.5,2.25,0.0,1.25,0.0,0.52,2.95,2.33,199.61,-6.6,20.9
1.42,6.75,2.75,5.5,7.0,10.5,9.5,8.0,6.5,4.75,3.5,2.75,1.75,2.25,-0.11,-0.05,1.02,1075.42,5.6,20.2,1.25,1.25,2.75,1.0,3.25,0.5,0.0,0.0,0.5,2.0,0.0,1.25,0.5,0.7,4.2,1.2,213.74,-9.3,22.2
1.44,6.75,2.25,6.25,7.25,12.0,9.75,8.25,6.5,4.75,3.5,1.75,1.5,2.25,-0.11,-0.05,0.95,1156.19,5.5,22.9,1.25,1.0,2.75,1.25,3.5,2.75,0.25,0.0,0.5,2.25,1.25,1.0,0.5,0.39,5.83,-1.36,237.72,-5.4,17.6
1.46,7.5,2.0,5.5,7.0,11.5,10.5,7.75,6.25,4.5,3.5,1.75,2.5,1.75,-0.11,0.02,0.95,1213.55,5.3,22.1,1.25,1.0,3.0,2.5,3.25,2.5,0.0,1.0,0.25,3.25,1.25,1.25,1.5,-2.11,6.45,-0.73,273.27,-3.9,6.5
1.48,9.0,3.5,6.25,9.0,14.5,10.5,8.25,6.5,4.0,3.25,0.75,2.0,2.25,-0.11,0.08,1.02,1314.99,6.1,29.5,1.25,0.75,2.75,2.5,3.5,2.75,0.0,1.0,0.25,4.5,2.0,3.0,3.75,1.64,-0.23,1.2,321.53,-1.4,-16.3
1.5,11.0,3.75,7.75,11.5,15.0,11.0,8.0,6.5,3.75,3.25,1.5,1.25,2.0,-0.11,0.08,1.08,1418.64,7.5,33.9,0.5,0.0,2.75,1.25,4.5,2.5,0.0,2.5,0.25,5.5,1.5,5.75,6.75,-0.86,0.58,0.89,390.62,2.2,-39.6
1.52,12.5,5.0,8.0,11.5,15.5,11.5,7.5,6.5,3.25,3.25,0.75,2.0,2.0,-0.11,0.14,1.08,1532.02,7.8,36.2,1.5,1.75,2.75,1.75,0.25,2.5,0.0,2.75,1.25,7.75,5.0,7.0,8.25,0.33,0.33,2.02,506.47,0.0,-49.6
1.54,15.0,5.0,8.25,11.5,15.5,11.0,7.25,6.5,3.25,3.0,1.75,1.75,2.0,-0.11,0.14,1.14,1627.92,8.8,37.4,1.75,1.25,2.75,0.0,3.75,2.0,0.0,3.75,2.75,8.5,7.0,8.25,10.0,-0.05,0.52,2.08,666.94,0.6,-51.3
1.56,17.0,5.0,8.75,11.5,15.5,10.5,7.5,6.5,2.5,3.25,2.0,2.0,2.25,-0.3,0.2,1.33,1704.04,9.5,38.0,1.25,0.75,2.5,1.0,2.25,3.25,0.0,4.0,2.75,8.0,6.75,7.5,9.0,-0.11,0.2,1.14,785.39,1.2,-51.6
1.58,17.0,6.5,8.75,11.5,12.0,9.75,6.75,6.0,2.25,3.0,2.0,1.5,2.0,-0.42,0.33,1.52,1711.22,10.6,40.7,1.25,0.75,2.5,1.5,1.75,2.75,0.25,4.25,2.75,8.0,6.75,7.75,8.75,0.08,0.02,0.95,854.93,0.6,-52.2
1.6,17.0,6.5,8.75,8.75,12.5,9.0,6.5,5.75,1.75,3.25,2.0,1.25,2.0,-0.55,0.58,2.14,1674.06,10.6,41.0,3.0,1.0,2.5,3.25,1.5,3.0,0.5,5.25,3.0,8.0,6.25,6.5,8.5,0.2,0.02,0.95,892.86,-0.5,-40.7
1.62,12.0,5.0,7.75,6.75,9.75,8.0,6.25,4.5,1.5,1.25,1.75,1.75,1.0,-0.98,0.83,2.64,1512.77,10.9,41.4,1.25,2.25,3.0,2.5,2.5,4.5,0.5,5.25,3.0,7.25,4.75,6.0,8.0,0.14,0.02,0.95,886.41,0.8,-35.0
1.64,11.0,3.5,5.75,4.25,8.0,6.0,5.5,2.5,1.5,1.25,0.75,0.25,2.0,-1.17,0.52,2.58,1261.8,11.4,43.6,1.5,1.25,2.0,2.5,2.75,5.75,1.5,6.0,3.0,7.5,4.5,5.25,7.0,0.2,0.02,0.95,860.1,2.2,-33.8
1.66,5.5,0.0,2.5,0.75,4.25,3.0,4.0,0.25,0.75,0.5,0.25,0.25,0.25,-1.17,0.08,2.39,759.71,13.2,47.4,3.0,2.25,3.25,3.25,5.75,6.25,2.25,6.0,3.5,5.75,4.75,4.25,6.75,0.27,0.08,0.95,876.94,-0.6,-15.6
1.68,3.75,0.0,0.75,0.5,1.75,2.75,2.5,0.0,0.75,0.5,0.25,0.25,0.0,0.33,0.02,1.45,382.21,11.3,43.5,3.75,2.5,4.75,5.0,6.0,7.0,3.0,5.75,3.25,5.75,3.5,3.0,4.75,0.14,0.02,0.95,903.61,-2.6,-1.1
1.7,2.25,0.0,0.75,0.5,0.5,2.75,2.75,0.5,0.75,0.5,0.25,0.0,0.0,-0.67,-0.67,3.2,165.5,9.0,33.9,3.75,2.5,5.25,5.0,8.0,7.5,3.25,5.75,3.25,5.5,3.25,2.75,3.75,0.14,0.02,0.95,941.89,-2.9,4.8
1.72,1.5,0.25,0.75,0.75,0.5,2.5,3.25,0.5,0.75,0.5,0.25,0.0,0.25,-1.55,-1.3,2.95,8.47,8.2,27.8,4.25,2.5,5.25,6.75,7.75,7.75,3.5,5.5,3.25,4.5,3.0,2.25,3.25,0.2,0.02,0.95,966.0,-4.0,11.0
1.74,1.5,0.5,0.0,0.75,0.0,2.0,2.75,0.0,0.5,0.5,0.0,0.0,0.25,-0.92,-0.86,0.77,0.0,8.8,34.7,5.0,2.5,5.25,7.0,8.5,8.0,3.75,5.25,3.0,4.5,2.5,2.25,3.25,0.2,0.08,0.95,986.94,-4.3,14.1
1.76,1.25,0.5,0.25,0.75,0.5,1.5,2.5,0.25,0.5,0.5,0.25,0.0,0.25,-0.48,-0.48,0.27,0.0,8.9,29.4,5.5,2.5,5.25,8.75,9.25,8.25,4.0,5.25,2.75,4.5,2.5,2.0,3.25,0.14,0.02,1.02,1016.07,-4.7,17.3
1.78,1.25,0.5,1.0,0.75,0.0,1.0,1.5,0.25,0.5,0.5,0.5,0.0,0.0,-0.3,-0.36,0.08,0.0,14.6,32.2,6.0,2.75,6.0,8.75,10.5,8.25,4.25,5.25,2.75,4.5,1.0,1.75,3.25,0.14,0.08,0.95,1059.86,-5.1,22.2
1.8,1.25,0.5,0.0,0.75,0.0,0.25,2.25,0.0,0.25,0.5,0.25,0.0,0.25,-0.23,-0.23,0.45,0.0,16.8,30.7,6.5,3.0,6.75,10.5,11.0,8.25,4.0,5.25,2.5,4.5,2.5,1.5,3.0,0.14,0.08,0.95,1144.02,-6.0,23.7
1.82,1.25,0.5,0.0,0.75,0.0,1.75,2.75,0.0,0.25,0.5,0.25,0.0,0.25,-0.36,-0.3,0.77,0.0,8.9,31.3,7.25,3.25,6.75,10.5,12.0,8.25,4.0,5.25,2.5,4.25,2.5,1.5,3.0,0.08,0.08,0.95,1222.15,-6.2,25.6
1.84,1.25,0.5,0.0,0.5,0.0,1.75,2.5,0.25,0.25,0.5,0.25,0.0,0.0,-0.36,-0.3,0.95,0.0,8.0,33.2,8.0,3.5,6.75,12.0,12.0,8.5,4.0,5.25,2.5,3.75,2.5,1.5,2.5,0.08,0.14,0.95,1298.7,-7.0,28.9
1.86,1.25,0.5,0.25,0.25,0.0,1.75,3.0,0.0,0.25,0.5,0.0,0.0,0.25,-0.42,-0.17,1.02,0.0,9.8,34.3,8.5,4.0,7.0,12.5,13.0,8.5,4.0,5.25,2.5,3.75,2.5,1.5,2.5,0.08,0.14,0.95,1353.29,-7.2,30.5
1.88,0.5,0.25,0.25,0.25,0.0,0.75,2.5,0.0,0.0,0.5,0.25,0.0,0.25,-0.48,-0.05,1.08,27.82,11.5,18.0,9.0,4.0,7.25,14.0,13.5,8.75,3.75,5.25,1.75,3.5,2.25,1.5,2.0,0.08,0.14,1.02,1397.69,-7.6,34.1
1.9,0.25,0.5,0.25,0.25,0.0,0.25,2.5,0.0,0.0,0.75,0.5,0.0,0.25,-0.48,0.33,1.58,55.86,12.4,5.7,9.75,4.0,7.75,14.0,14.0,8.75,3.0,5.25,1.0,3.5,2.25,1.5,2.5,0.02,0.2,0.95,1430.04,-7.7,34.8
1.92,0.25,0.5,0.0,0.0,0.0,0.5,2.25,0.0,0.0,0.5,0.5,0.0,0.25,-0.55,0.45,1.89,52.11,9.2,4.7,11.0,4.5,7.75,15.0,14.5,8.75,2.75,5.25,1.0,3.25,2.25,1.5,2.5,0.02,0.2,1.02,1471.65,-8.2,36.9
1.94,0.25,0.25,0.0,0.25,0.0,0.5,2.5,0.0,0.0,0.5,0.0,0.0,0.0,-0.73,0.58,2.27,44.65,12.3,25.5,11.5,0.0,8.0,14.5,15.0,9.0,0.75,5.25,0.5,2.5,2.25,1.0,2.25,0.08,0.27,1.08,1458.18,-7.9,36.7
1.96,0.25,0.25,0.0,0.25,0.0,0.5,2.5,0.0,0.0,0.5,0.0,0.0,0.0,-1.05,0.95,3.08,38.93,12.3,25.5,11.0,3.25,7.75,13.5,14.5,8.5,0.0,5.0,0.25,1.5,2.0,0.75,2.0,0.08,0.33,1.02,1426.56,-8.4,42.2
1.98,0.5,0.5,0.0,0.25,0.0,0.5,2.5,0.0,0.0,0.5,0.25,0.0,0.0,-1.11,1.77,3.08,42.33,13.7,28.6,11.0,4.0,7.75,14.0,14.0,8.25,0.75,2.25,0.25,1.5,1.0,0.75,1.5,0.14,0.39,1.14,1366.65,-10.0,48.9
2.0,0.75,0.25,0.0,0.25,0.0,1.25,2.5,0.0,0.0,0.5,0.25,0.0,0.25,-0.98,2.77,3.08,50.03,7.6,21.3,11.0,4.5,0.0,12.0,13.5,8.25,1.0,0.0,0.75,1.5,0.0,0.75,1.5,0.33,0.45,1.27,1216.63,-6.9,52.1
2.02,0.25,0.25,0.0,0.25,0.0,0.5,2.5,0.0,0.25,0.75,0.5,0.0,0.25,-0.8,4.33,1.58,55.65,8.8,-4.4,11.0,3.25,7.25,12.0,12.0,8.0,1.0,4.0,0.5,1.5,0.75,0.75,1.75,0.39,0.45,1.39,1138.7,-9.3,44.9
2.04,0.25,0.5,0.0,0.25,0.0,0.75,2.5,0.0,0.25,0.5,0.25,0.0,0.25,0.2,5.83,-0.48,60.66,8.6,12.5,10.0,3.0,7.25,9.5,11.0,7.75,2.0,2.75,0.5,1.5,0.75,0.25,1.5,0.52,0.77,1.7,1034.06,-9.7,46.7
2.06,0.25,0.5,0.0,0.5,0.0,0.5,2.5,0.25,0.0,0.5,0.25,0.0,0.25,2.02,6.83,-0.73,61.4,9.2,14.0,9.0,2.5,6.75,8.75,9.5,6.75,1.75,1.75,0.5,1.25,0.5,0.0,1.25,0.83,1.14,2.64,927.23,-10.6,49.4
2.08,0.25,0.5,0.0,0.25,0.0,0.5,2.5,0.25,0.0,0.75,0.25,0.25,0.25,0.89,3.33,0.77,64.5,7.3,-0.5,7.0,1.5,5.5,5.0,7.75,2.75,0.75,1.25,0.25,1.0,0.25,0.0,0.0,0.95,0.7,2.7,708.22,-13.2,55.5
2.1,0.25,0.5,0.0,0.5,0.0,1.0,2.5,1.0,0.25,2.75,1.25,2.0,2.0,-2.3,-0.98,2.52,110.61,-1.0,-49.1,3.0,0.75,2.75,0.5,3.75,0.0,0.0,0.0,0.25,0.0,0.0,0.25,0.0,0.83,-0.11,2.27,410.99,-18.3,63.6
2.12,0.0,0.25,0.25,0.5,0.0,0.25,2.5,1.5,0.5,3.25,1.25,4.0,4.25,0.58,-0.36,0.52,178.19,-1.5,-70.5,3.0,1.0,2.75,2.5,3.75,0.0,0.25,0.0,0.0,1.25,0.25,0.25,0.0,-0.11,0.58,2.89,245.06,-15.4,51.4
2.14,0.25,0.0,0.0,0.5,0.0,1.75,2.0,2.25,0.75,4.5,2.0,5.75,6.25,1.45,0.27,2.08,265.27,-4.2,-72.2,2.75,1.25,3.25,2.75,2.75,0.25,0.0,0.75,0.5,2.25,0.75,0.5,1.25,0.89,-1.17,3.45,147.98,-11.3,23.5
2.16,0.25,0.25,0.0,0.75,0.0,3.0,2.75,4.25,1.5,6.0,2.75,6.75,7.25,-1.23,0.27,4.33,372.22,-4.6,-64.9,1.5,1.25,2.75,2.75,4.25,1.25,0.25,0.0,0.5,1.5,1.0,0.75,0.5,1.02,-1.23,2.2,116.88,-9.3,30.0
2.18,0.5,0.5,0.0,0.75,0.0,3.0,3.75,4.75,3.25,7.5,4.0,8.25,8.0,0.14,0.02,1.45,527.17,-3.0,-63.6,1.75,1.5,2.75,2.75,4.5,0.25,0.0,1.25,0.75,1.75,1.25,1.5,0.25,0.64,-0.48,0.7,133.77,-9.2,21.2
2.2,1.25,0.5,0.25,2.75,3.0,4.5,5.0,5.75,3.25,8.0,5.0,8.25,9.0,0.08,0.08,1.08,717.68,-2.0,-45.9,0.75,0.0,2.5,2.25,3.25,0.0,0.0,0.25,0.25,0.0,0.25,0.5,0.0,0.39,-0.36,0.02,110.25,-14.7,44.3
2.22,0.75,0.0,1.25,3.0,3.75,5.25,5.0,6.25,3.75,8.0,5.75,8.25,9.0,-0.17,-0.05,0.95,891.82,-1.7,-43.8,0.5,0.0,2.25,1.5,2.25,0.5,0.0,0.0,0.25,0.25,0.25,0.25,0.0,0.14,-0.23,0.2,72.67,-13.8,42.6
2.24,1.25,0.0,1.75,3.0,4.5,5.25,5.0,6.75,4.0,8.25,5.0,8.25,9.0,-0.11,-0.05,0.95,1028.47,-1.4,-40.0,0.5,0.5,1.75,1.5,1.0,0.25,0.0,0.0,0.0,0.5,0.0,0.25,0.5,0.08,-0.3,0.58,27.23,-13.8,35.0
2.26,0.75,0.0,2.25,1.0,3.75,5.25,5.25,7.0,3.25,7.75,3.0,7.25,8.0,-0.11,-0.05,0.95,1046.97,-2.5,-41.3,0.0,0.0,1.75,1.25,1.5,0.25,0.0,0.0,0.25,0.5,0.0,0.25,0.25,0.14,-0.36,1.02,0.0,-11.7,29.0
2.28,0.75,0.25,1.0,1.0,4.25,5.25,5.0,6.25,3.25,7.0,2.5,6.75,7.5,-0.11,-0.05,0.95,995.21,-3.3,-40.0,0.0,0.0,2.0,1.25,1.0,0.25,0.0,0.0,0.0,0.5,0.25,0.25,0.25,0.27,-0.23,0.89,1.64,-14.2,26.5
2.3,2.25,1.25,1.25,1.5,4.75,5.25,5.25,6.25,3.25,6.75,2.5,6.5,8.0,-0.17,-0.05,0.95,937.44,-1.6,-31.1,0.25,0.25,1.5,1.25,1.0,0.5,0.0,0.0,0.0,0.5,0.0,0.25,0.0,0.2,0.02,0.83,22.73,-12.7,40.4
2.32,1.25,0.5,2.25,3.25,6.5,6.75,5.5,6.5,3.25,6.25,1.25,5.75,6.5,-0.11,-0.05,0.95,895.51,-1.6,-20.6,0.25,0.0,1.25,1.25,1.25,0.25,0.0,0.0,0.0,0.75,0.0,0.25,0.25,0.14,0.14,1.02,47.66,-9.8,26.0
2.34,2.0,0.75,1.25,3.25,3.75,6.75,5.5,6.25,4.0,6.5,2.0,5.75,6.0,-0.11,-0.05,0.95,844.92,-1.2,-25.0,0.0,0.0,1.75,1.25,1.0,0.25,0.0,0.0,0.0,0.5,0.0,0.25,0.25,0.2,0.2,1.45,59.87,-13.2,29.4
2.36,2.25,0.75,2.25,3.25,4.5,7.25,5.5,6.75,4.0,5.25,2.75,5.0,6.0,-0.11,-0.05,0.95,820.27,-0.3,-19.4,0.0,0.0,1.25,1.25,0.0,0.5,0.0,0.0,0.0,0.5,0.5,0.25,0.0,0.39,0.33,1.77,46.51,-14.0,15.9
2.38,2.25,1.5,2.5,3.25,6.5,7.5,5.75,7.0,4.25,5.25,3.0,4.0,5.5,-0.11,-0.05,0.95,817.47,-0.1,-12.0,0.25,0.0,1.25,1.25,0.0,0.5,0.0,0.0,0.0,0.0,0.0,0.25,0.25,0.52,0.39,2.39,37.49,-17.8,36.1
2.4,2.75,0.75,2.75,3.75,5.75,7.75,5.5,6.5,4.0,5.25,2.0,3.5,4.25,-0.11,-0.05,0.95,794.59,0.3,-7.7,0.0,0.25,1.25,1.25,0.0,0.5,0.0,0.0,0.0,0.5,0.25,0.25,0.25,0.77,1.02,2.58,39.22,-12.6,18.4
2.42,3.0,1.5,2.5,4.75,6.75,7.75,6.0,7.25,4.25,5.25,2.75,3.25,4.0,-0.11,-0.05,0.95,808.74,0.8,-4.0,0.0,0.0,1.25,1.25,0.5,0.5,0.0,0.0,0.0,0.75,0.25,0.25,0.5,0.83,1.83,2.95,50.22,-8.3,7.8
2.44,3.75,2.0,2.5,5.25,7.75,8.5,6.25,6.75,4.5,5.25,3.75,2.25,3.5,-0.11,-0.05,0.95,846.68,1.5,1.8,0.0,0.0,1.25,0.75,0.25,0.5,0.0,0.0,0.0,0.0,0.0,0.25,0.5,1.08,3.08,2.64,58.09,-12.8,19.9
2.46,4.0,2.0,3.0,5.25,8.25,9.0,6.5,7.25,4.5,5.0,3.5,2.0,2.5,-0.11,-0.05,0.95,902.74,1.9,6.2,0.25,0.0,1.25,0.0,1.0,0.5,0.0,0.0,0.0,0.5,0.25,0.25,0.5,1.58,4.45,0.58,63.43,-7.0,8.4
2.48,4.0,2.0,4.0,5.5,9.0,9.25,6.75,7.25,4.25,4.5,2.75,2.0,2.25,-0.11,-0.05,0.95,956.88,2.5,10.5,0.0,0.0,1.5,0.0,0.0,0.75,0.0,0.0,0.0,0.5,0.0,0.25,0.0,-0.36,5.89,-1.86,56.55,-12.4,17.7
2.5,5.5,2.0,4.5,6.25,9.75,9.75,6.75,7.25,4.25,4.25,2.75,2.0,2.25,-0.17,-0.05,0.95,1034.28,3.5,14.4,0.0,0.25,1.5,0.25,1.5,0.5,0.0,0.0,0.0,1.25,0.75,0.75,0.25,-2.8,6.14,0.83,73.12,-5.7,-2.1
2.52,5.75,2.75,4.75,7.0,12.0,10.0,7.0,7.25,4.25,4.0,2.75,2.0,2.25,-0.17,-0.05,1.02,1124.56,3.8,18.2,0.25,0.5,1.0,0.5,0.0,0.0,0.0,0.75,0.0,3.0,0.5,2.25,1.5,0.52,-0.8,-0.61,104.19,-0.7,-52.3
2.54,6.25,3.5,5.0,8.0,13.0,10.5,7.25,7.25,4.25,3.5,2.75,2.0,2.25,-0.17,-0.05,1.02,1227.41,4.3,21.6,0.25,0.0,0.75,0.0,0.0,0.0,0.0,2.5,0.25,5.0,2.5,4.75,6.5,-0.92,0.33,0.45,201.45,4.5,-81.9
2.56,7.5,3.5,5.5,8.75,14.0,11.0,7.25,7.25,4.0,3.5,2.75,2.0,2.25,-0.11,0.02,1.02,1335.05,4.8,24.1,1.5,1.5,1.5,2.5,0.5,2.75,0.0,2.75,1.0,7.0,4.0,6.5,8.0,-0.17,0.33,2.45,334.8,1.1,-48.6
2.58,8.75,3.5,5.75,10.5,15.5,11.0,6.75,7.25,3.75,3.5,2.5,2.0,2.0,-0.11,0.08,1.08,1425.89,5.4,27.6,1.25,0.75,1.25,1.25,3.75,2.75,0.0,2.75,1.75,7.5,6.5,7.5,8.25,0.33,0.2,1.45,520.39,1.6,-50.3
2.6,9.25,3.75,7.0,8.75,15.0,10.5,6.25,7.0,2.75,3.0,2.5,1.25,2.25,-0.11,0.14,1.08,1466.04,6.0,30.4,1.25,0.75,2.5,1.25,1.5,3.0,0.0,4.0,2.75,8.0,7.0,7.5,8.5,-0.61,0.33,1.27,700.26,0.8,-52.8
2.62,11.5,5.0,6.0,11.5,14.0,11.5,5.75,6.5,2.75,3.5,1.25,1.75,1.25,-0.23,0.2,1.2,1506.12,6.8,35.8,1.25,0.75,2.5,1.75,2.25,3.5,0.75,4.25,2.5,8.0,7.5,7.5,8.5,-0.05,0.02,1.02,833.96,0.6,-48.7
2.64,12.5,5.0,7.25,11.5,14.5,11.0,6.0,6.75,2.5,3.5,2.0,1.75,2.25,-0.42,0.2,1.39,1550.45,7.4,34.3,2.0,1.75,2.5,2.75,2.5,5.0,1.0,5.25,3.25,8.25,6.25,8.25,8.5,0.14,0.02,0.95,941.97,0.4,-39.6
2.66,14.5,5.0,7.25,9.5,14.5,9.5,6.0,6.25,2.0,3.25,1.5,1.75,2.0,-0.42,0.33,1.64,1561.01,8.5,37.5,1.25,1.75,3.0,2.75,4.75,5.75,0.5,5.5,3.25,8.25,5.5,7.5,8.5,0.14,-0.05,0.89,1012.62,1.4,-34.2
2.68,14.5,5.0,7.75,7.25,13.0,8.5,6.0,6.0,1.5,3.25,2.0,1.75,2.0,-0.86,0.58,2.08,1529.74,9.2,36.7,1.75,1.75,4.0,2.75,5.0,5.0,1.5,4.75,2.5,7.25,6.5,6.75,8.75,0.2,0.02,0.95,1051.36,-0.4,-30.6
2.7,10.0,4.75,5.75,4.5,9.75,7.0,5.5,4.75,1.25,1.0,1.75,0.25,2.0,-0.92,0.7,3.02,1364.03,8.9,39.8,1.75,0.75,3.25,2.75,2.25,5.5,0.75,5.0,2.5,7.0,6.5,6.75,8.5,0.14,0.02,0.89,1028.5,0.5,-38.8
2.72,6.75,0.5,4.75,3.0,7.5,4.25,4.0,3.25,0.75,0.0,1.5,0.25,1.25,-1.23,0.45,2.52,1006.69,10.0,37.5,2.25,2.0,3.0,2.75,5.0,5.25,2.0,5.75,3.25,7.5,5.25,5.5,7.75,0.14,0.02,0.95,1000.32,0.2,-26.4
2.74,3.0,0.0,1.25,0.25,3.0,2.0,2.25,0.0,0.75,0.0,0.0,0.25,0.25,-1.05,-0.36,1.95,540.02,11.6,46.8,1.25,2.25,4.25,2.5,5.5,4.75,1.75,5.5,3.25,6.5,5.0,5.25,7.5,0.14,0.02,0.95,945.17,-0.4,-24.2
2.76,1.0,0.0,1.0,0.5,0.5,1.5,2.75,0.25,0.75,0.0,0.25,0.25,1.25,0.02,0.2,0.89,253.47,9.5,8.7,2.25,2.5,4.0,4.0,6.25,6.25,2.0,5.25,3.5,6.5,3.75,5.25,6.0,0.14,0.02,0.95,920.66,-1.0,-13.6
2.78,0.25,0.5,0.75,0.25,0.0,1.75,2.5,0.0,0.5,0.0,0.25,0.25,0.5,-0.86,-0.61,3.08,49.29,8.7,16.9,2.75,2.5,5.0,5.0,6.25,7.0,3.0,6.0,3.5,6.0,4.5,4.25,6.0,0.2,0.02,0.95,921.7,-2.1,-8.4
2.8,0.0,0.25,0.25,0.25,1.25,0.5,2.25,0.0,0.5,0.0,0.25,0.25,1.0,-1.42,-1.3,2.14,0.0,5.8,0.2,3.0,2.5,5.0,5.0,7.0,7.5,3.25,6.0,3.75,5.75,4.25,3.0,4.75,0.14,0.02,0.95,933.26,-2.2,-2.0
2.82,0.25,0.5,0.25,0.0,0.0,0.0,1.5,0.0,0.25,0.25,0.25,0.25,0.25,-0.92,-0.86,1.14,0.0,16.2,2.3,3.75,2.5,5.25,5.5,8.0,7.75,3.5,5.75,3.5,5.5,3.25,3.0,4.0,0.14,0.02,0.95,955.91,-2.9,4.3
2.84,0.25,0.5,0.0,0.25,0.0,0.0,1.5,0.25,0.25,0.0,0.5,0.0,0.0,-0.48,-0.55,0.39,0.0,17.1,19.5,4.25,2.5,4.75,6.75,8.75,8.25,4.0,6.0,3.25,4.75,3.0,2.25,3.25,0.14,0.02,0.95,976.28,-3.2,10.9
2.86,0.25,0.5,0.0,0.25,2.5,0.25,1.5,0.0,0.25,0.5,0.25,0.0,0.5,-0.3,-0.3,0.2,0.0,2.8,23.4,5.5,3.0,5.0,8.25,10.5,8.25,4.5,5.75,3.25,4.5,2.5,2.25,3.25,0.14,0.02,1.02,1030.61,-4.3,17.0
2.88,0.5,0.5,0.0,0.75,2.25,0.75,1.5,0.0,0.25,0.0,0.5,0.0,0.25,-0.3,-0.23,0.39,0.0,5.8,36.9,6.0,3.25,6.25,9.75,11.5,8.5,4.5,5.5,3.0,4.5,2.5,2.0,3.25,0.14,0.08,0.95,1111.5,-5.3,21.0
2.9,0.25,0.5,0.0,0.25,0.75,1.0,1.75,0.0,0.25,0.0,0.25,0.0,0.5,-0.36,-0.23,0.58,0.0,4.3,22.7,7.0,3.5,6.5,10.0,11.5,8.5,4.25,5.5,2.5,4.5,2.5,1.5,3.25,0.14,0.08,0.95,1199.59,-5.8,24.0
2.92,0.5,0.5,0.0,0.0,1.25,0.75,1.75,0.0,0.0,0.0,0.0,0.0,0.25,-0.36,-0.23,0.77,0.0,6.0,45.5,7.5,4.0,6.5,11.5,12.5,8.5,4.0,5.5,2.5,4.25,2.0,1.75,2.75,0.08,0.08,0.95,1289.99,-6.2,27.6
2.94,0.25,0.5,0.0,0.0,1.25,1.0,2.25,0.0,0.0,0.0,0.25,0.0,0.0,-0.42,-0.17,1.08,0.0,5.7,43.6,8.25,4.0,6.5,12.0,13.0,8.75,3.75,5.25,2.0,4.25,2.0,1.5,2.5,0.08,0.14,0.95,1340.6,-6.5,30.4
2.96,0.25,0.5,0.0,0.0,1.75,0.5,1.5,0.0,0.0,0.25,0.25,0.0,0.25,-0.48,-0.05,1.2,36.86,3.3,32.3,9.0,4.0,7.25,13.5,14.0,9.0,3.25,5.25,1.5,3.75,2.0,1.5,2.5,0.08,0.14,1.02,1388.27,-7.1,33.4
2.98,0.25,0.25,0.0,0.25,0.5,1.0,2.5,0.0,0.0,0.5,0.25,0.0,0.25,-0.42,0.14,1.45,63.17,5.0,16.8,9.75,4.5,7.25,13.5,15.0,9.0,2.75,5.25,1.0,3.25,2.0,1.5,2.5,0.08,0.2,1.02,1428.31,-7.2,35.8
3.0,0.25,0.25,0.0,0.0,0.0,0.75,2.25,0.0,0.0,0.5,0.5,0.0,0.25,-0.42,0.33,1.58,64.0,6.8,-0.1,11.0,0.0,7.5,15.0,15.0,9.5,2.0,5.25,1.0,1.75,2.0,1.5,2.25,0.02,0.27,1.02,1434.67,-7.9,36.2
3.02,0.0,0.25,0.0,0.0,0.0,0.75,2.5,0.0,0.0,0.5,0.25,0.0,0.25,-0.55,0.52,1.95,58.95,5.3,-0.5,9.75,3.25,5.5,13.5,16.0,8.5,2.0,4.25,1.25,1.5,1.0,0.75,1.5,0.2,0.33,1.14,1402.32,-7.4,43.2
3.04,0.25,0.5,0.0,0.25,0.0,0.75,2.5,0.0,0.0,0.5,0.0,0.0,0.0,-0.73,0.77,2.58,54.71,9.9,31.6,10.5,4.25,0.0,13.5,14.0,8.25,1.25,4.0,1.0,1.0,0.75,1.0,1.5,0.33,0.39,1.27,1315.38,-5.6,44.3
3.06,0.5,0.25,0.0,0.25,0.0,0.5,2.5,0.0,0.0,0.5,0.25,0.0,0.0,-1.11,1.45,3.39,52.8,13.7,23.3,10.5,3.25,0.0,14.0,15.0,8.0,2.0,2.0,0.75,3.0,0.0,1.5,1.5,0.33,0.45,1.33,1209.95,-5.7,43.0
3.08,0.25,0.25,0.0,0.25,0.0,0.75,2.5,0.25,0.0,0.5,0.25,0.0,0.0,-1.36,2.45,3.7,51.6,7.9,14.9,11.0,5.5,8.5,13.5,14.5,8.25,2.5,4.0,1.0,3.0,1.0,0.75,2.25,0.39,0.58,1.52,1241.35,-9.1,42.8
3.1,0.25,0.5,0.0,0.25,0.0,0.5,2.5,0.25,0.0,0.75,0.25,0.0,0.25,-1.05,4.39,1.7,53.07,7.2,5.9,9.75,4.0,8.5,10.0,12.0,7.75,3.0,3.0,0.75,2.25,0.75,0.75,1.75,0.77,0.89,2.02,1198.52,-9.8,43.8
3.12,0.25,0.25,0.0,0.75,0.0,0.0,2.5,0.25,0.0,0.5,0.5,0.0,0.25,-0.11,6.52,-2.36,56.83,13.4,3.6,7.25,2.25,7.5,6.25,9.0,5.75,1.5,1.25,0.5,1.0,0.0,0.25,0.5,0.77,1.02,3.14,1011.13,-11.5,52.4
3.14,0.25,0.5,0.0,0.25,0.0,0.0,2.5,0.25,0.0,0.5,0.0,0.0,0.0,2.52,6.45,-0.92,55.71,15.5,25.1,5.25,1.25,4.25,2.75,5.0,4.25,0.25,1.0,0.5,0.25,0.0,0.25,0.0,1.02,0.52,2.39,692.48,-11.2,54.6
3.16,0.25,0.25,0.0,0.25,0.0,1.0,2.5,0.0,0.0,1.0,0.5,1.25,0.75,1.02,-1.55,4.45,68.53,3.6,-32.0,2.75,1.25,1.25,0.0,3.75,2.75,0.0,0.75,0.75,2.25,0.0,1.0,0.5,0.33,-0.05,1.64,394.56,-2.5,22.2
3.18,0.25,0.5,0.0,0.5,0.0,0.5,2.5,0.25,0.25,2.0,1.0,3.5,2.25,0.45,0.77,-0.48,113.43,2.3,-59.5,1.75,1.25,2.75,2.0,5.5,2.75,0.25,1.0,0.75,2.0,0.75,0.75,0.5,0.45,0.2,2.45,256.73,-4.8,26.5
3.2,0.25,0.0,0.0,0.25,0.0,1.75,2.25,1.5,0.75,3.25,1.5,5.25,5.5,-0.61,-0.11,2.39,199.18,-3.4,-71.9,1.25,1.0,2.5,2.25,4.75,2.75,0.0,1.25,0.5,1.5,0.75,1.0,0.5,1.02,-1.3,3.33,182.53,-4.1,23.7
3.22,0.0,0.0,1.5,1.0,1.75,2.5,2.5,2.25,1.5,5.25,2.75,6.75,7.25,0.45,0.33,1.83,312.7,-1.7,-56.5,0.75,1.5,2.0,2.25,4.25,1.25,0.0,0.0,0.5,2.0,0.0,1.0,0.25,1.08,-1.3,1.95,144.47,-6.0,29.0
3.24,0.25,0.75,0.0,2.5,3.0,4.5,2.5,4.0,2.75,6.75,4.0,8.25,7.5,-0.17,-0.05,1.45,489.77,-3.0,-47.9,1.5,1.25,2.25,1.75,4.25,1.25,0.5,0.5,0.5,1.5,0.25,1.5,1.5,0.64,-0.55,0.7,135.12,-6.2,16.8
3.26,0.5,0.0,0.0,2.5,3.75,4.25,4.0,4.25,3.25,6.75,4.75,8.25,8.75,-0.05,0.08,1.02,676.79,-2.4,-48.9,1.5,1.75,2.0,1.5,4.25,1.25,0.5,1.25,0.25,0.25,0.75,0.5,0.5,0.27,-0.3,0.27,126.42,-7.5,35.9
3.28,1.0,0.0,1.0,3.0,3.0,4.5,5.0,5.5,3.75,7.25,5.5,7.75,7.75,-0.11,0.02,0.95,830.82,-0.9,-43.5,0.5,0.5,1.0,0.75,2.25,0.5,0.0,0.0,0.25,0.25,0.0,0.5,0.0,0.08,-0.17,0.08,73.75,-8.7,40.4
3.3,0.25,0.5,1.0,3.0,6.5,4.5,5.5,6.25,4.0,7.75,5.25,8.25,9.0,-0.17,-0.05,0.95,970.01,-1.7,-39.1,0.25,0.0,1.5,0.75,2.25,0.5,0.0,0.0,0.25,1.75,0.0,0.25,0.5,0.02,-0.05,0.27,32.78,-3.8,11.0
3.32,0.5,0.0,2.25,2.5,3.75,5.25,5.0,6.0,4.0,8.0,5.75,8.25,9.0,-0.11,-0.05,0.95,1051.68,-1.2,-43.4,0.25,0.75,1.0,1.25,1.5,0.5,0.0,0.0,0.25,1.0,0.0,0.25,0.0,-0.05,-0.17,0.7,3.9,-7.4,33.2
3.34,1.25,0.5,2.25,2.5,4.75,5.25,5.25,6.5,4.0,7.75,5.75,8.0,9.0,-0.11,-0.05,0.95,1108.84,-0.7,-38.1,0.25,0.25,1.5,0.5,1.75,0.5,0.0,0.0,0.25,0.25,0.0,0.25,0.0,0.14,-0.23,0.95,15.52,-10.9,41.6
3.36,2.5,0.75,2.25,3.0,4.75,5.25,5.25,6.5,4.0,7.0,5.25,7.5,8.0,-0.11,-0.05,0.95,1114.16,0.3,-31.4,0.25,0.0,1.25,0.75,0.5,0.5,0.0,0.0,0.0,0.75,0.0,0.25,0.0,0.27,-0.11,1.02,25.7,-11.1,25.2
3.38,2.25,1.0,2.25,3.0,5.0,5.25,5.25,6.5,4.0,6.75,5.0,6.75,7.75,-0.17,-0.05,0.95,1086.73,0.2,-29.2,0.25,0.0,0.75,0.75,1.75,0.25,0.0,0.0,0.0,0.75,0.75,0.25,0.0,0.27,0.02,1.08,42.67,-6.4,16.1
3.4,2.25,0.75,2.25,3.25,5.75,5.75,5.25,6.5,4.25,6.5,4.75,6.25,7.25,-0.11,-0.05,0.95,1033.66,0.1,-25.9,0.25,0.0,0.5,1.25,1.0,0.25,0.0,0.0,0.0,1.0,0.0,0.25,0.0,0.27,0.14,1.27,39.16,-5.8,20.6
3.42,2.75,1.25,2.5,3.25,6.5,5.75,5.75,6.5,4.0,4.5,4.5,5.0,6.25,-0.11,-0.05,0.95,970.88,1.3,-16.5,0.0,0.25,0.75,0.75,1.5,0.5,0.0,0.0,0.0,0.75,0.0,0.25,0.0,0.27,0.33,1.45,35.6,-4.0,28.4
3.44,2.25,1.75,2.25,3.25,4.5,6.75,5.5,5.5,4.5,5.25,3.5,5.0,5.75,-0.11,-0.05,0.95,893.62,0.8,-17.6,0.0,0.5,0.75,0.75,0.25,0.25,0.0,0.0,0.0,0.75,0.0,0.25,0.0,0.39,0.52,1.89,33.59,-9.3,23.1
3.46,2.75,1.75,2.25,3.75,6.5,6.75,6.0,6.25,4.75,5.25,3.5,4.25,5.5,-0.11,-0.05,0.95,857.55,1.0,-11.6,0.0,0.0,0.5,0.5,0.25,0.0,0.0,0.0,0.0,0.5,0.0,0.25,0.0,0.58,0.64,2.27,25.64,-10.6,5.8
3.48,3.25,2.0,2.5,4.5,6.75,7.25,6.25,6.25,4.75,5.25,4.25,3.5,4.5,-0.11,-0.05,0.95,853.42,1.8,-6.1,0.0,0.25,0.5,0.75,0.0,0.5,0.0,0.0,0.0,1.0,0.0,0.25,0.25,0.89,1.02,2.89,23.18,-2.4,-3.5
3.5,3.75,2.0,3.0,5.0,7.5,7.5,6.5,6.5,4.75,5.0,4.0,3.25,3.75,-0.11,-0.05,0.95,881.88,2.5,-0.8,0.0,0.0,0.5,0.5,0.25,0.25,0.0,0.0,0.0,0.5,0.0,0.25,0.25,1.02,1.89,3.02,24.3,-5.1,-3.1
3.52,4.0,2.0,4.0,5.25,7.75,7.75,6.75,6.5,5.0,4.75,4.25,2.5,3.25,-0.11,-0.05,0.95,917.67,3.5,3.3,0.25,0.0,0.5,0.0,0.25,0.5,0.0,0.0,0.0,1.0,0.0,0.25,0.25,1.08,3.02,1.95,33.19,0.3,-15.0
3.54,4.25,2.0,4.5,5.5,8.25,8.0,7.0,6.5,5.0,4.0,3.5,2.0,3.0,-0.11,-0.05,0.95,948.37,4.0,8.4,0.0,0.0,0.5,0.0,0.0,0.5,0.0,0.0,0.0,0.75,0.0,0.25,0.5,1.02,4.52,0.64,30.21,3.0,-37.2
3.56,5.5,2.0,4.5,5.5,8.5,8.5,7.5,6.5,5.0,3.5,3.75,2.0,2.75,-0.11,-0.05,0.95,985.94,4.7,11.3,0.0,0.0,0.5,0.0,0.0,0.5,0.0,0.0,0.0,0.75,0.25,0.25,0.5,-0.92,6.27,-1.86,33.16,1.8,-40.5
3.58,5.5,2.0,5.0,6.0,9.25,8.75,8.0,6.5,5.0,3.5,3.5,2.0,2.75,-0.11,-0.05,0.95,1028.87,4.9,13.2,0.0,0.0,0.75,0.0,0.0,0.5,0.0,0.0,0.0,0.75,0.0,0.25,0.0,-3.42,5.39,1.02,31.15,-4.0,-9.2
3.6,6.25,2.5,5.75,7.0,10.0,9.0,8.25,6.5,5.0,3.5,3.0,2.0,2.75,-0.11,-0.05,1.02,1101.05,5.7,17.1,0.25,0.0,0.75,0.5,0.25,0.0,0.0,0.75,0.0,2.0,0.5,1.5,1.5,1.64,-1.55,3.08,63.65,0.1,-53.7
3.62,7.0,3.5,6.25,7.5,11.5,9.25,8.5,6.75,5.0,3.5,2.75,2.0,2.25,-0.11,-0.05,1.02,1198.4,6.1,21.6,0.25,0.0,0.5,0.25,0.0,0.0,0.0,0.0,0.0,3.0,0.75,3.0,3.25,0.14,0.64,0.14,111.36,2.3,-82.0
3.64,8.0,3.5,6.25,8.75,12.5,9.5,9.0,6.75,4.75,3.5,2.5,2.0,2.5,-0.11,-0.05,1.02,1308.37,6.4,23.8,0.25,0.0,0.5,1.75,0.0,0.25,0.0,0.25,0.25,5.75,1.75,6.0,6.0,0.45,0.2,2.27,211.92,2.2,-76.2
3.66,9.5,3.5,7.75,11.5,14.5,10.0,8.75,6.75,4.75,3.5,2.5,2.0,2.0,-0.11,-0.05,1.08,1423.09,7.5,28.5,1.5,1.5,2.0,0.5,3.75,2.25,0.0,2.25,0.75,6.25,4.0,7.0,8.5,-0.55,0.14,1.27,350.52,1.2,-45.4
3.68,11.5,4.75,8.75,11.5,15.0,10.5,8.75,6.5,4.25,3.5,2.25,2.0,1.75,-0.11,0.08,1.2,1536.8,8.4,32.9,2.0,1.5,1.75,0.0,3.75,2.75,0.0,0.0,1.75,7.0,5.0,7.0,8.0,0.27,0.39,2.58,505.19,0.1,-45.5
3.7,13.0,5.0,9.75,13.5,15.5,10.0,8.75,6.25,3.5,3.0,2.0,1.5,2.0,-0.17,0.14,1.2,1639.8,9.5,37.1,1.25,0.75,1.75,0.0,1.5,0.0,0.0,1.5,1.75,6.25,3.5,6.5,8.0,0.2,0.02,1.27,589.51,0.2,-62.7
3.72,14.5,5.0,9.75,12.5,13.0,9.0,8.75,5.75,2.75,2.75,2.5,1.75,2.0,-0.23,0.2,1.45,1680.93,10.8,37.7,1.25,0.75,1.75,0.0,1.0,2.75,0.0,2.75,1.75,6.75,4.25,6.5,8.0,0.2,0.08,0.95,638.69,2.2,-57.4
3.74,15.5,6.5,10.5,13.0,13.0,8.5,8.75,5.25,2.75,3.25,1.75,1.75,1.25,-0.3,0.27,1.52,1708.77,11.8,41.7,1.25,0.25,1.75,0.0,0.0,2.75,0.0,3.0,2.0,7.0,4.5,6.5,8.25,0.08,0.02,0.95,653.11,2.5,-63.4
3.76,18.0,6.0,11.0,8.5,12.5,7.25,9.25,4.25,2.0,3.0,2.0,1.5,2.0,-0.17,0.39,1.83,1678.22,13.1,42.8,1.25,0.75,1.75,0.5,0.25,2.75,0.0,3.0,2.5,7.0,4.75,6.75,8.25,0.14,0.02,0.95,670.17,1.7,-58.9
3.78,18.0,6.5,10.5,8.25,10.5,5.25,9.5,4.25,1.5,3.0,1.75,1.75,1.75,-0.36,0.58,2.02,1616.0,14.4,43.8,1.25,0.75,1.75,0.5,1.0,2.75,0.5,3.25,2.5,7.0,5.0,6.75,8.5,0.08,0.02,0.95,692.07,1.6,-56.3
3.8,11.5,4.75,8.75,6.25,8.5,5.25,9.0,2.25,1.5,0.75,1.5,0.25,0.5,-0.73,0.64,2.52,1415.34,15.2,50.5,1.25,0.75,1.75,0.75,1.75,2.75,0.75,4.0,2.5,7.0,5.0,6.75,8.0,0.08,0.02,0.95,714.89,1.6,-52.2
3.82,8.75,2.0,6.25,1.75,4.5,1.75,7.25,0.5,0.75,0.5,0.5,0.25,0.5,-1.11,0.7,2.83,1006.86,20.1,54.2,1.25,0.75,1.75,0.5,1.25,3.0,0.75,4.0,2.5,7.0,4.75,6.5,8.0,0.14,0.02,0.95,708.52,1.9,-53.4
3.84,4.0,0.0,3.75,0.25,3.0,0.0,4.75,0.25,0.75,0.0,0.25,0.25,0.25,-0.8,-0.05,2.64,542.86,22.9,49.0,1.25,0.75,1.75,0.75,0.5,3.75,0.5,3.25,2.5,7.0,4.5,6.5,8.0,0.14,0.02,0.89,680.33,2.0,-53.8
3.86,2.25,0.0,1.0,1.0,1.25,1.5,3.75,0.0,0.75,0.0,0.25,0.0,0.25,0.33,0.58,1.27,252.47,15.8,42.5,0.5,0.75,1.75,0.75,1.25,3.75,0.75,4.0,2.75,6.75,4.75,6.5,8.0,0.14,0.02,0.95,656.8,2.6,-53.5
3.88,1.75,0.0,1.0,0.25,0.0,0.5,4.0,0.25,0.75,0.0,0.25,0.25,0.25,-1.23,-1.86,4.7,51.41,22.4,27.5,1.0,0.75,1.75,1.25,1.75,3.75,1.0,4.0,3.25,6.25,4.25,6.5,7.75,0.08,0.02,0.95,632.97,1.6,-47.8
3.9,0.5,0.0,0.5,0.0,1.25,1.25,2.5,0.0,0.0,0.25,0.5,0.0,0.25,-0.61,-0.86,1.39,0.0,7.0,24.8,1.25,0.75,1.75,1.5,2.5,4.25,1.0,4.0,3.25,6.25,4.0,6.0,7.75,0.14,0.02,0.95,625.48,1.8,-42.7
3.92,0.5,0.0,0.0,0.0,2.5,1.25,2.75,0.0,0.0,0.0,0.5,0.0,0.25,-0.67,-0.55,0.77,0.0,3.6,32.1,2.75,0.75,1.75,1.75,3.5,5.0,1.25,4.0,3.25,5.75,4.25,5.5,7.25,0.14,0.02,0.95,640.65,0.6,-32.5
3.94,0.5,0.25,0.25,0.0,1.25,0.0,2.5,0.0,0.5,0.0,0.5,0.0,0.0,-0.36,-0.61,1.27,0.0,16.2,30.7,2.75,2.25,2.75,2.0,5.25,5.75,2.0,5.0,3.75,6.0,4.75,5.5,7.25,0.14,0.02,0.95,702.11,-0.2,-22.8
3.96,0.0,0.0,0.0,0.0,2.25,0.5,2.5,0.0,0.5,0.0,0.5,0.25,0.25,0.02,-0.73,1.83,0.0,5.0,13.3,3.0,2.5,3.0,3.25,6.0,6.25,3.0,5.0,4.5,5.5,4.5,4.25,6.0,0.14,0.02,0.95,763.26,-1.4,-12.9
3.98,0.25,0.0,0.0,0.25,0.0,0.0,2.5,0.25,0.5,0.5,0.5,0.0,0.25,-0.3,-0.3,0.89,0.0,12.8,-16.4,4.0,2.5,4.5,4.5,6.5,6.5,3.5,5.0,4.5,5.5,3.75,3.0,4.75,0.14,0.02,0.95,839.8,-3.3,-1.4
4.0,0.0,0.0,0.0,0.0,0.0,1.75,2.5,0.0,0.75,0.75,0.5,0.25,0.5,-0.42,0.02,0.2,0.0,-0.2,-20.8,5.25,2.5,4.75,6.25,8.0,7.0,4.5,5.0,3.75,4.75,2.75,3.0,3.25,0.08,0.02,1.02,912.81,-4.8,10.1
4.02,0.0,0.0,0.0,0.75,0.0,1.5,2.75,0.0,0.75,0.75,0.5,0.25,0.5,-0.42,-0.42,1.02,0.0,3.4,-12.1,7.0,3.25,6.25,8.25,9.0,7.5,5.5,5.0,3.75,4.5,3.0,2.75,3.25,0.14,0.02,1.14,1032.01,-6.7,17.4
4.04,0.5,0.0,0.0,0.5,0.0,1.5,2.75,0.25,0.75,0.75,0.75,0.0,1.0,-0.8,-0.42,1.08,7.87,3.1,-14.1,8.25,4.0,7.5,10.5,10.5,7.5,5.75,5.0,2.75,4.5,2.75,2.25,3.25,0.08,0.02,1.2,1179.69,-7.8,24.4
4.06,0.0,0.25,0.0,1.0,0.0,0.75,2.75,0.25,0.5,0.75,0.5,0.25,0.5,-0.61,-0.23,1.33,57.23,6.2,-9.7,9.5,4.0,8.5,11.0,11.5,0.0,5.5,4.75,2.5,1.5,2.5,2.25,2.25,0.14,0.08,1.58,1246.91,-13.5,33.6
4.08,0.0,0.5,0.0,0.75,0.0,1.0,2.5,0.5,0.75,0.75,0.75,0.5,1.0,0.95,4.77,2.33,90.36,3.1,-21.5,11.0,4.5,8.5,11.5,12.0,6.75,4.0,3.75,0.0,1.5,2.25,1.5,2.25,0.33,0.27,2.2,1311.94,-10.8,41.4
4.1,2.0,0.0,0.0,1.5,0.0,1.25,2.5,1.0,0.75,0.25,1.25,0.5,1.0,1.7,7.95,3.58,119.44,9.0,0.1,11.0,4.0,9.25,10.5,9.0,6.25,3.0,2.75,1.25,3.25,0.75,1.5,1.5,0.39,0.39,2.77,1289.41,-11.9,41.4
4.12,3.75,0.0,0.0,1.0,0.0,1.0,2.5,1.0,0.75,0.75,1.25,0.5,1.0,1.77,7.95,2.02,149.29,11.8,7.1,8.75,2.5,9.0,6.75,7.75,2.75,4.25,0.0,0.75,0.5,0.0,0.25,0.5,0.45,0.64,4.58,1092.36,-17.9,58.6
4.14,4.0,1.25,0.0,0.75,3.5,0.25,2.5,1.0,0.75,1.25,0.75,0.0,1.25,0.33,5.45,0.2,193.98,8.7,26.8,6.0,0.0,7.0,4.25,4.25,2.25,3.0,0.75,0.5,1.0,0.0,0.25,1.0,0.89,0.58,3.7,796.4,-16.9,46.3
4.16,5.25,0.0,2.25,2.75,3.75,3.5,3.25,1.25,1.5,2.75,1.25,1.75,1.25,0.45,1.58,0.02,276.03,8.1,15.1,1.5,0.0,4.5,1.75,3.75,1.25,1.75,0.0,0.5,2.5,0.0,0.75,0.25,-0.17,1.52,2.7,491.68,-11.7,27.6
4.18,8.0,3.0,1.25,4.0,6.5,5.25,4.0,4.25,2.75,3.25,2.25,2.0,2.25,-0.67,-2.86,-0.86,443.58,5.6,17.6,1.25,0.0,1.75,1.25,1.0,0.75,0.25,0.0,0.5,0.25,1.0,0.75,0.5,0.89,3.08,2.39,266.8,-13.8,15.1
4.2,10.5,4.0,5.75,5.5,7.0,6.75,6.75,4.5,4.0,3.25,2.75,2.0,2.25,-0.42,0.64,2.08,730.15,9.5,25.1,1.0,0.0,1.75,1.25,1.5,0.5,0.0,0.0,0.5,0.75,0.0,0.75,0.25,0.64,0.27,2.27,121.12,-12.3,23.5
4.22,12.5,6.5,7.75,7.0,8.25,7.25,7.75,5.5,4.25,3.25,3.0,2.0,2.25,-0.3,-0.11,2.27,1092.8,10.5,30.4,1.25,0.5,1.75,1.25,0.25,0.5,0.0,0.0,0.5,0.5,0.0,0.5,0.25,-0.42,0.39,0.77,12.21,-17.2,33.2
4.24,14.0,7.0,8.75,7.25,8.75,7.25,8.25,5.5,4.0,2.0,2.75,2.0,2.25,-0.36,-0.17,2.52,1378.26,11.8,35.1,1.25,0.75,1.75,1.25,0.25,0.75,0.0,0.0,0.25,0.5,0.0,0.5,0.75,-0.67,1.2,0.2,0.0,-14.1,28.4
4.26,16.0,6.5,9.75,7.75,8.5,6.5,8.75,5.25,3.5,3.0,2.5,1.75,2.25,-0.23,0.02,2.2,1537.05,12.9,36.6,1.5,1.5,0.5,2.0,0.25,2.75,0.0,0.0,0.75,2.25,0.0,1.5,0.75,0.7,1.95,-2.48,0.0,-2.9,7.2
4.28,16.0,7.75,10.5,7.25,8.5,5.25,9.75,4.25,2.5,1.5,1.75,1.75,2.0,-0.36,0.89,2.2,1597.61,14.9,43.7,1.5,0.75,2.0,2.0,3.75,2.75,0.75,0.0,0.75,1.75,0.75,1.5,1.75,0.64,1.95,-0.17,33.88,-4.4,10.6
4.3,11.5,7.0,10.5,6.25,6.25,1.75,9.0,0.5,1.0,0.75,1.25,0.5,0.75,0.02,4.95,2.33,1483.18,20.1,56.7,1.0,0.75,2.0,0.75,1.5,0.75,0.0,0.0,0.5,0.0,0.0,0.25,1.0,0.14,-0.86,2.52,53.01,-12.2,33.8
4.32,5.25,0.75,4.5,1.75,0.0,0.25,5.5,0.0,0.75,0.0,0.25,0.0,0.5,-0.36,4.64,1.77,1043.4,28.7,55.8,1.0,0.75,1.75,0.75,0.0,0.75,0.0,0.0,0.25,0.75,0.0,0.5,1.5,-0.55,-1.48,1.33,58.23,-10.3,7.0
4.34,2.0,0.5,2.25,0.25,0.0,0.0,4.5,0.5,0.5,0.0,1.5,0.0,1.75,-1.55,7.64,2.7,586.14,19.6,9.0,0.0,0.5,1.5,0.25,0.25,0.75,0.0,0.0,0.25,0.25,0.0,0.5,1.0,-0.23,-0.92,0.45,47.14,-7.9,0.7
4.36,1.0,0.25,2.25,0.0,0.0,0.0,4.25,0.0,0.75,0.0,0.25,0.5,0.0,-1.23,-1.11,5.77,279.85,29.4,30.2,0.5,0.75,1.25,0.75,0.0,1.25,0.0,0.0,0.25,0.75,0.0,0.25,1.25,-0.48,-1.3,0.7,62.85,-5.3,7.3
4.38,1.25,1.0,1.75,1.0,0.0,0.0,4.0,0.0,0.75,0.0,0.5,0.0,0.0,-0.17,0.7,2.7,122.59,26.5,45.7,0.5,0.75,1.5,0.5,0.0,1.25,0.0,0.0,0.25,0.25,0.0,0.25,1.25,-0.55,-2.05,2.02,70.99,-7.8,13.7
4.4,0.25,0.5,1.5,0.0,0.0,0.5,4.0,0.0,0.25,0.5,1.25,0.75,1.25,-0.98,0.64,0.83,6.24,14.1,-14.4,1.25,0.5,1.75,0.5,0.25,1.25,0.0,0.0,0.25,0.0,0.0,0.5,1.25,-0.92,-3.67,2.52,93.79,-11.6,20.7
4.42,0.25,0.75,1.0,0.0,0.0,0.0,4.0,0.25,0.25,0.25,0.25,0.0,1.0,-0.8,-0.11,2.08,0.0,17.2,7.5,2.0,1.5,1.25,2.0,0.0,2.75,0.0,0.0,0.5,1.5,0.0,1.5,1.25,-1.05,-3.61,1.27,138.39,-6.2,13.1
4.44,0.25,0.5,1.0,1.5,1.25,0.25,3.75,0.0,0.25,0.5,0.5,0.25,0.0,-1.05,-1.17,4.64,0.0,15.8,30.2,1.75,1.5,1.75,2.0,3.75,2.75,0.0,0.0,0.5,0.0,0.75,1.5,2.0,0.27,0.95,-2.61,192.05,-5.6,21.3
4.46,1.25,0.75,1.25,2.0,3.75,1.75,4.25,0.25,0.75,2.0,1.5,1.0,1.25,-1.48,-4.36,4.77,0.0,6.4,9.2,1.25,1.5,1.75,2.0,3.75,2.75,0.0,0.0,0.5,0.0,1.25,1.5,1.5,4.45,4.39,-7.98,233.22,-5.6,20.5
4.48,1.0,0.5,2.25,1.0,3.75,0.5,4.5,1.0,0.5,0.5,1.25,0.25,1.75,-1.05,-4.17,3.77,41.48,9.5,14.0,0.25,0.5,2.0,0.75,3.75,2.0,0.0,1.25,0.5,0.0,0.0,0.25,0.5,2.95,-0.55,-3.61,234.47,-2.4,31.6
4.5,1.0,0.75,2.25,2.75,3.75,1.25,4.0,0.25,0.75,2.0,1.5,1.5,1.5,-0.23,-3.23,1.7,138.39,8.3,7.7,0.0,0.5,0.5,0.5,0.0,1.25,0.0,0.0,0.0,0.0,0.0,0.25,0.75,0.45,-1.36,-1.05,183.92,0.0,10.8
4.52,0.75,0.5,2.25,0.5,3.75,0.0,4.0,0.25,0.0,0.5,1.5,1.25,1.25,0.52,-2.8,0.33,182.64,11.5,9.3,0.5,0.75,0.75,0.75,0.0,1.25,0.0,0.0,0.0,0.0,0.0,0.25,0.75,-1.17,-2.98,-0.3,134.7,-6.7,28.5
4.54,1.25,1.25,0.25,1.0,2.5,0.75,3.5,0.0,0.75,2.0,0.25,1.5,0.25,3.2,2.77,-7.98,217.78,7.5,11.1,0.5,0.75,0.75,1.25,0.0,1.25,0.0,0.0,0.0,0.0,0.0,1.25,0.25,-3.05,-2.55,1.52,105.38,-9.7,20.1
4.56,2.0,1.5,2.25,2.5,3.0,0.75,3.75,0.25,0.75,2.0,1.75,1.25,1.5,0.83,5.2,-7.8,260.8,10.5,12.1,1.25,1.0,1.25,2.0,0.25,2.5,0.0,0.0,0.75,1.5,0.5,1.0,1.5,-2.55,-1.17,0.95,128.47,-4.6,4.0
4.58,2.0,1.25,2.25,0.75,3.5,1.5,3.5,0.5,0.75,2.0,1.5,1.0,1.5,0.83,2.02,-4.55,279.77,7.9,10.6,1.25,1.25,2.0,2.0,3.75,2.75,0.5,0.0,0.5,2.0,0.75,1.5,1.25,-1.55,-0.61,0.2,187.99,-4.2,14.4
4.6,1.75,1.25,2.0,1.75,3.75,1.75,3.5,0.5,0.5,2.0,1.5,1.5,1.5,0.27,0.14,-3.42,300.44,7.2,10.0,1.75,1.0,2.0,1.25,2.75,2.5,0.75,0.0,0.5,1.75,0.75,0.75,1.5,-1.11,-0.48,-0.05,228.04,-5.2,15.4
4.62,1.25,1.25,2.0,1.25,3.5,1.0,3.5,0.5,0.0,1.25,1.5,0.75,1.5,0.33,-0.3,-2.05,295.86,8.3,14.6,0.0,0.5,1.75,1.25,3.25,2.0,0.0,0.0,0.5,1.5,0.5,1.25,2.0,-0.61,-0.3,-0.17,239.33,-0.8,-1.9
4.64,0.25,0.5,1.75,0.5,3.5,0.0,4.0,0.75,0.0,0.5,0.5,0.25,0.0,0.52,-0.98,-0.86,263.92,11.6,31.9,0.0,0.0,1.75,0.0,3.0,0.5,0.75,0.0,0.0,0.5,0.0,0.25,1.0,-0.36,0.08,-0.23,204.23,-4.8,18.1
4.66,1.0,1.0,0.0,0.25,1.75,0.0,3.25,0.0,0.0,0.5,0.25,0.0,0.0,0.33,-1.3,-0.17,202.26,13.5,46.3,0.0,0.0,0.5,0.5,0.0,1.25,0.0,0.0,0.0,0.75,0.0,0.25,1.0,-0.17,0.2,-0.23,144.76,5.1,-22.4
4.68,0.25,0.5,0.0,0.25,1.75,0.0,3.25,0.0,0.75,1.25,0.25,0.5,0.0,0.39,-1.05,-0.05,143.66,8.1,6.0,0.0,0.0,0.5,0.25,0.0,0.5,0.0,0.0,0.0,0.5,0.0,0.5,0.75,0.14,0.33,-0.23,85.98,0.1,-37.9
4.7,0.75,0.5,1.75,0.25,3.75,0.0,3.75,0.25,0.0,0.5,1.5,0.0,1.0,0.39,-0.36,-0.23,128.62,10.9,20.2,1.25,0.5,0.75,2.0,0.5,0.75,0.0,0.0,0.0,0.0,0.25,0.5,1.25,0.64,1.52,-1.42,80.7,-10.7,22.2
4.72,0.25,0.5,0.0,0.25,0.0,0.0,3.25,0.0,0.25,1.0,0.25,0.0,0.0,0.58,0.14,-0.36,95.91,14.6,6.9,0.0,0.0,0.5,0.5,0.0,0.5,0.0,0.0,0.0,0.0,0.0,0.25,0.75,1.27,3.2,-2.67,62.97,-3.7,-13.5
4.74,0.25,0.25,0.0,0.0,0.0,0.0,3.0,0.0,0.0,0.5,0.25,0.0,0.25,0.39,0.2,-0.36,65.85,16.8,1.1,0.0,0.25,0.5,1.0,0.0,2.0,0.0,0.0,0.5,2.0,0.0,0.5,0.75,1.52,2.58,-1.17,78.02,4.5,-17.0
4.76,0.25,0.5,0.0,0.25,0.0,0.0,3.25,0.0,0.0,0.75,0.25,0.0,0.0,0.58,0.7,-0.36,38.32,16.9,15.9,0.0,0.0,0.5,0.0,0.0,0.5,0.0,0.0,0.0,0.75,0.0,0.25,0.5,0.89,2.27,-1.05,52.06,3.0,-37.2
4.78,0.25,0.5,0.0,0.25,0.0,0.0,3.25,0.0,0.0,0.5,0.25,0.25,0.25,0.7,1.08,-0.3,19.07,16.5,5.2,1.75,1.25,1.75,1.75,3.5,2.0,0.0,0.0,0.5,1.5,0.75,1.5,2.25,0.45,2.2,-0.86,122.05,-4.6,9.4
4.8,0.25,0.5,0.0,0.75,0.0,1.75,3.25,0.0,0.25,1.25,0.25,1.0,0.0,1.08,1.64,-0.8,26.45,4.7,-1.7,1.25,1.0,0.5,2.0,0.0,2.5,0.0,0.0,0.5,1.5,0.0,1.5,0.5,0.39,1.7,-0.86,137.04,-3.9,8.6
4.82,0.5,0.75,1.5,1.0,3.5,0.25,3.75,0.25,0.25,0.0,1.5,0.25,1.5,1.27,2.39,-0.98,87.83,10.1,16.5,0.0,0.25,1.25,0.25,0.0,0.0,0.0,0.0,0.0,0.25,0.0,1.5,0.5,0.2,1.2,-0.67,131.86,-14.6,-29.5
4.84,0.75,0.5,1.75,0.75,3.5,1.25,4.0,0.5,0.5,1.5,0.25,0.5,0.0,1.14,2.64,-0.98,145.58,8.1,25.3,1.25,1.0,0.5,1.75,0.0,0.5,0.0,0.0,0.0,0.25,0.25,0.5,1.75,0.08,0.95,-0.42,124.61,-9.3,10.2
4.86,0.75,0.5,1.75,1.25,3.5,0.5,3.75,0.25,0.25,2.0,1.5,1.25,1.25,0.95,2.39,-0.67,200.59,7.7,1.7,0.0,0.0,0.5,0.0,0.0,0.0,0.0,0.0,0.0,0.0,0.0,0.25,0.5,-0.23,0.39,-0.55,87.37,-11.6,-41.0
4.88,0.5,0.5,1.5,0.75,3.75,1.25,3.75,0.25,0.75,1.0,1.75,0.25,1.25,0.45,1.95,-0.3,230.76,6.5,9.3,0.75,0.0,1.75,0.0,3.5,0.0,0.0,0.0,0.0,0.5,0.5,0.25,1.5,-0.42,0.27,-0.55,99.65,-6.2,13.2
4.9,0.25,0.25,0.0,0.25,0.0,0.0,3.25,0.0,0.0,0.25,0.25,0.0,0.25,0.27,1.89,0.02,191.49,20.1,13.3,1.5,1.25,0.5,1.75,0.0,2.25,0.5,0.0,0.5,2.25,0.75,1.5,1.75,-0.67,0.08,-0.67,134.29,-3.0,-8.7
4.92,0.25,0.25,0.0,0.25,0.75,0.5,3.25,0.0,0.0,0.5,0.25,0.25,0.0,0.14,1.83,0.14,146.18,10.6,18.4,1.25,1.0,1.75,1.75,3.75,2.25,0.0,0.0,0.5,2.25,0.5,1.5,1.75,-0.92,0.02,-0.67,199.68,-2.9,7.9
4.94,0.25,0.5,0.0,0.25,0.0,0.5,3.25,0.0,0.0,0.0,0.25,0.0,0.0,0.02,1.77,0.2,94.73,18.7,39.4,1.25,1.0,1.75,1.75,3.5,2.25,0.0,0.0,0.5,2.5,0.75,1.5,1.5,-0.92,-0.23,-0.61,238.77,-3.1,6.6
4.96,0.25,0.5,0.0,0.25,0.0,0.25,3.25,0.0,0.0,0.5,0.25,0.25,0.0,-0.11,1.64,0.2,75.2,16.1,14.8,1.25,1.25,1.75,1.75,3.5,2.0,0.0,0.0,0.5,2.5,0.25,1.5,1.5,-0.42,-0.48,-0.48,267.59,-3.4,9.8
4.98,0.25,0.5,0.0,0.0,0.0,0.0,3.25,0.0,0.0,0.5,0.25,0.0,0.0,-0.11,1.33,0.45,53.12,19.6,19.8,1.25,1.0,2.0,1.75,3.25,2.0,0.0,0.0,0.5,2.25,0.75,1.5,1.5,0.02,-0.67,-0.48,273.65,-4.3,7.4
5.0,0.25,0.5,0.0,0.25,0.0,0.0,3.25,0.0,0.0,0.5,0.25,0.0,0.0,-0.17,0.95,0.45,45.38,19.4,22.8,1.25,1.0,1.75,1.75,3.25,2.0,0.0,0.0,0.5,2.5,0.75,1.5,1.25,0.27,-0.61,-0.55,273.93,-3.8,7.2
5.02,0.25,0.25,0.0,0.25,0.0,0.0,3.25,0.0,0.0,0.5,0.25,0.25,0.0,-0.23,0.39,0.52,34.04,19.1,6.9,1.25,1.0,1.75,2.0,3.5,1.75,0.0,0.0,0.5,2.25,0.75,1.5,1.5,0.27,-0.61,-0.61,269.98,-4.2,7.8
5.04,0.25,0.5,0.0,0.25,0.0,0.0,3.25,0.0,0.0,0.75,0.25,0.0,0.0,-0.17,-0.36,0.39,25.48,16.9,15.9,1.5,0.75,1.75,1.75,3.25,2.0,0.0,0.0,0.5,2.75,0.75,1.5,1.25,0.14,-0.55,-0.73,276.86,-3.8,5.9
5.06,0.25,0.25,0.0,0.0,0.0,0.0,3.25,0.0,0.0,0.75,0.25,0.0,0.25,-0.17,-0.98,0.02,20.6,14.9,-3.6,1.25,0.75,1.75,1.75,2.75,2.25,0.0,0.25,0.25,2.25,0.5,1.5,1.5,0.02,-0.36,-0.92,274.71,-3.0,5.2
5.08,0.25,0.25,0.0,0.0,0.0,0.25,3.25,0.0,0.0,0.5,0.25,0.0,0.25,-0.17,-1.61,-0.48,24.17,14.5,4.4,1.25,0.75,2.0,1.75,3.5,2.0,0.0,0.0,0.5,2.25,0.0,1.25,1.25,0.02,-0.17,-1.05,266.27,-4.0,13.8
5.1,0.25,0.25,0.0,0.0,0.5,0.0,3.25,0.0,0.0,0.5,0.25,0.25,0.25,-0.11,-1.92,-1.05,32.82,13.7,2.6,0.0,1.0,1.75,1.75,3.5,2.25,0.0,0.25,0.25,2.5,0.75,1.5,1.75,0.02,0.02,-1.05,261.06,-0.4,-0.9
5.12,0.25,0.5,0.0,0.0,0.0,0.5,3.25,0.0,0.0,0.5,0.25,0.25,0.25,0.2,-1.98,-1.05,46.93,11.8,5.2,1.5,1.25,1.75,1.75,3.5,2.0,0.0,0.0,0.5,2.75,0.75,1.25,1.75,-0.11,0.02,-1.05,257.51,-3.4,7.5
5.14,0.25,0.25,0.0,0.0,0.75,0.5,3.25,0.0,0.0,1.0,0.25,0.25,0.25,0.58,-1.92,-0.8,67.38,6.5,0.8,1.25,0.75,2.0,1.75,3.0,2.0,0.0,0.0,0.25,2.25,0.75,1.5,1.5,-0.3,-0.05,-0.92,251.33,-4.2,6.0
5.16,0.25,0.25,0.0,0.0,0.0,0.5,3.25,0.0,0.0,0.5,0.25,0.0,0.0,0.77,-1.73,-0.73,64.79,14.0,15.6,1.25,1.0,1.75,1.75,3.75,2.0,0.0,0.25,0.25,2.0,0.5,1.5,1.5,-0.3,-0.05,-0.8,250.78,-3.4,10.4
5.18,0.25,0.25,0.0,0.25,0.0,0.25,3.25,0.0,0.0,0.5,0.25,0.0,0.0,0.64,-1.48,-0.36,63.32,16.9,17.6,1.25,0.75,1.75,1.75,3.0,2.25,0.0,0.0,0.25,2.25,0.5,1.5,1.75,-0.11,0.08,-0.8,247.58,-3.0,5.0
5.2,0.25,0.5,0.0,0.25,0.0,0.5,3.25,0.0,0.0,0.25,0.25,0.0,0.0,0.27,-1.23,-0.3,59.71,16.2,31.3,1.25,1.25,1.75,1.75,3.5,2.0,0.0,0.0,0.25,2.5,0.75,1.5,1.75,0.02,0.14,-0.8,251.37,-3.2,6.6
5.22,0.25,0.25,0.0,0.25,0.5,0.5,3.25,0.0,0.0,0.5,0.25,0.25,0.0,-0.17,-0.98,-0.17,63.14,11.6,16.0,1.25,1.5,2.0,2.0,3.0,1.75,0.0,0.25,0.25,2.0,0.75,1.5,1.75,0.02,0.2,-0.92,253.04,-4.8,9.1
5.24,0.25,0.25,0.0,0.25,1.25,1.5,3.25,0.0,0.0,0.5,0.25,0.25,0.0,-0.48,-0.86,-0.17,76.41,4.2,24.1,1.25,0.75,1.75,1.75,3.25,1.75,0.0,0.25,0.25,2.0,0.5,1.5,2.0,-0.11,0.33,-0.86,252.17,-3.3,3.8
5.26,0.25,0.25,0.0,0.25,0.0,0.5,3.25,0.0,0.0,0.5,0.25,0.0,0.25,-0.61,-0.67,-0.3,76.47,12.3,10.0,1.25,1.0,2.0,1.75,3.25,2.25,0.0,0.0,0.25,2.25,0.5,1.5,2.0,-0.17,0.33,-0.8,253.32,-3.3,6.2
5.28,0.25,0.25,0.0,0.25,1.25,0.5,3.25,0.0,0.0,0.0,0.5,0.25,0.0,-0.48,-0.61,-0.48,81.44,11.7,27.3,1.75,1.25,1.75,2.0,3.5,1.75,0.0,0.0,0.25,3.0,0.75,1.5,1.5,-0.17,0.39,-0.8,258.55,-4.2,8.5
5.3,0.25,0.25,0.0,0.25,0.0,0.5,3.25,0.0,0.0,0.5,0.25,0.0,0.0,-0.11,-0.55,-0.67,73.11,14.2,18.7,1.25,0.75,1.75,1.75,3.5,1.75,0.0,0.0,0.25,2.25,0.5,1.5,1.75,-0.17,0.39,-0.86,256.25,-3.4,5.8
5.32,0.25,0.5,0.0,0.75,0.75,0.5,3.25,0.0,0.0,0.5,0.25,0.25,0.0,0.2,-0.55,-0.92,78.09,11.4,26.0,1.25,0.75,1.75,1.75,3.5,1.75,0.0,0.5,0.25,2.25,0.75,1.5,1.25,-0.17,0.45,-0.98,253.65,-3.5,6.8
5.34,0.25,0.25,0.0,0.5,0.75,0.5,3.25,0.0,0.0,0.5,0.25,0.0,0.0,0.33,-0.42,-0.92,76.45,11.1,27.4,1.75,1.0,1.75,1.75,3.0,1.75,0.0,0.0,0.5,2.75,0.75,1.5,1.5,-0.17,0.58,-1.17,252.36,-4.5,5.7
5.36,0.25,0.25,0.0,0.25,0.5,0.5,3.25,0.0,0.0,0.5,0.25,0.0,0.0,0.39,-0.36,-0.92,76.55,11.7,23.6,1.25,1.0,2.0,1.75,3.25,2.0,0.0,0.0,0.25,2.5,0.75,1.5,1.75,-0.17,0.58,-1.3,252.72,-3.7,5.3
5.38,0.25,0.5,0.0,0.25,0.75,0.5,3.0,0.0,0.0,0.25,0.25,0.0,0.0,0.33,-0.36,-0.86,74.27,11.8,35.9,2.5,1.0,1.75,1.25,3.75,2.25,0.0,0.0,0.25,2.25,1.25,1.25,1.5,-0.11,0.58,-1.23,258.98,-4.8,12.5
5.4,0.25,0.5,0.0,0.0,0.75,0.5,3.0,0.0,0.0,0.5,0.25,0.25,0.0,0.27,-0.36,-0.8,74.56,9.8,20.4,1.25,0.75,1.75,1.75,3.5,1.75,0.0,0.0,0.25,2.25,0.75,1.5,1.5,-0.23,0.52,-1.17,256.11,-3.8,6.3
5.42,0.25,0.25,0.25,0.0,0.5,0.5,3.25,0.0,0.0,0.5,0.25,0.0,0.0,0.27,-0.36,-0.8,71.2,13.1,23.8,1.5,0.75,1.75,1.75,3.25,2.0,0.0,0.0,0.25,2.0,0.75,1.5,1.5,-0.3,0.52,-1.17,252.95,-4.3,8.3
5.44,0.25,0.5,0.0,0.0,0.75,0.5,3.25,0.0,0.0,0.5,0.0,0.0,0.0,0.14,-0.23,-0.73,69.08,10.5,34.0,1.75,1.25,1.75,1.75,3.5,2.0,0.0,0.0,0.25,2.25,0.75,1.25,1.5,-0.3,0.45,-1.17,251.61,-4.4,13.1
5.46,0.25,0.25,0.0,0.0,0.75,0.5,3.25,0.0,0.0,0.5,0.25,0.0,0.0,0.14,-0.11,-0.86,67.23,10.3,23.6,1.25,0.75,1.75,1.75,3.25,1.75,0.25,0.0,0.25,2.0,0.5,1.25,1.5,-0.3,0.39,-1.11,245.89,-4.2,9.8
5.48,0.25,0.5,0.0,0.25,0.75,0.5,3.25,0.0,0.0,0.5,0.25,0.0,0.0,0.14,-0.05,-0.8,69.13,10.9,29.7,1.25,0.75,1.75,1.75,3.25,1.75,0.0,0.0,0.25,1.75,0.75,1.5,1.25,-0.42,0.33,-0.8,240.52,-4.8,9.8
5.5,0.25,0.5,0.0,0.25,1.25,0.5,3.0,0.0,0.0,0.5,0.25,0.0,0.0,0.2,0.2,-0.8,75.62,8.7,32.4,1.75,1.25,1.75,1.75,3.5,1.25,0.0,0.0,0.0,1.5,0.5,1.5,1.5,-0.48,0.33,-0.8,236.53,-6.3,16.4
5.52,0.25,0.5,0.0,0.0,0.5,0.25,3.25,0.0,0.0,0.5,0.5,0.0,0.0,0.27,0.45,-0.8,73.93,13.4,19.7,1.5,1.25,2.0,1.75,2.75,1.5,0.0,0.0,0.0,1.5,0.75,1.25,1.75,-0.73,0.39,-0.8,233.73,-6.2,12.9
5.54,0.25,0.5,0.0,0.25,0.5,0.0,3.0,0.0,0.0,0.5,0.5,0.0,0.0,0.52,0.77,-0.73,71.93,15.2,21.2,1.25,1.25,1.75,1.75,3.0,1.75,0.0,0.0,0.0,1.5,0.75,1.25,1.25,-0.67,0.33,-0.8,230.81,-5.3,15.9
5.56,0.5,0.5,0.0,0.75,1.75,1.75,4.0,0.25,0.25,1.25,1.5,0.0,1.25,0.89,1.08,-0.67,106.77,2.6,-0.4,1.5,1.25,1.75,1.75,3.5,1.25,0.0,0.25,0.0,1.5,0.5,1.5,1.5,-0.61,0.2,-0.73,231.33,-5.6,14.5
5.58,0.25,0.5,0.0,0.25,0.5,0.5,3.0,0.0,0.0,0.5,0.25,0.0,0.0,0.89,1.14,-0.86,104.17,11.2,28.1,1.25,1.25,1.75,1.75,3.25,1.5,0.0,0.0,0.0,1.5,0.75,1.25,1.5,-0.48,0.27,-0.8,230.13,-5.3,14.3
5.6,0.25,0.5,0.0,0.25,0.75,0.5,2.75,0.0,0.0,0.5,0.25,0.25,0.0,0.7,1.08,-0.92,103.68,9.6,22.3,1.25,1.5,1.75,2.0,3.0,2.0,0.0,0.0,0.0,1.5,0.75,1.5,1.5,-0.36,0.33,-0.98,233.75,-5.0,14.3
5.62,0.25,0.5,0.0,0.5,1.25,0.5,2.75,0.0,0.0,0.5,0.25,0.0,0.0,0.52,0.83,-0.8,93.45,8.6,33.8,1.5,1.25,2.0,2.0,3.5,1.25,0.0,0.0,0.0,1.5,0.75,1.5,1.5,-0.36,0.33,-1.05,237.57,-6.6,15.4
5.64,0.25,0.5,0.0,0.5,0.75,0.5,2.75,0.0,0.0,0.5,0.5,0.0,0.0,0.45,0.83,-0.73,88.59,10.1,26.1,1.25,1.25,1.75,1.75,3.25,1.25,0.0,0.25,0.0,1.5,0.25,1.5,2.0,-0.23,0.27,-1.05,239.11,-4.7,10.1
5.66,0.25,0.5,0.0,0.5,0.75,0.5,2.5,0.0,0.0,0.5,0.25,0.0,0.0,0.45,0.77,-0.73,80.58,9.5,31.5,1.25,1.5,1.75,1.75,3.75,1.25,0.0,0.0,0.0,1.5,0.75,1.5,1.75,-0.17,0.27,-1.11,241.13,-5.3,12.9
5.68,0.25,0.5,0.0,0.5,0.75,0.5,2.5,0.0,0.0,0.5,0.25,0.0,0.0,0.39,0.77,-0.8,78.84,9.5,31.5,1.75,1.25,1.75,2.0,3.25,1.5,0.0,0.25,0.0,1.5,0.75,1.5,1.5,-0.11,0.39,-1.23,243.39,-6.0,14.6
5.7,0.25,0.5,0.0,0.5,0.75,0.5,2.5,0.0,0.0,0.5,0.25,0.0,0.0,0.45,0.7,-0.8,77.07,9.5,31.5,1.25,1.5,2.0,1.75,3.25,1.5,0.0,0.25,0.25,1.5,0.75,1.5,1.75,-0.05,0.52,-1.36,247.88,-5.4,11.2
5.72,0.25,0.25,0.0,0.5,1.25,0.5,2.5,0.0,0.0,0.5,0.25,0.0,0.0,0.52,0.58,-0.67,75.09,7.8,30.5,1.5,1.25,2.0,2.0,2.75,1.5,0.0,0.0,0.0,1.5,0.75,1.25,1.5,-0.05,0.52,-1.36,244.97,-6.7,15.5
5.74,0.25,0.5,0.0,0.25,1.25,0.5,2.75,0.0,0.0,0.5,0.25,0.0,0.0,0.58,0.45,-0.61,76.26,8.2,32.5,2.25,1.25,2.0,2.0,2.5,1.25,0.0,0.0,0.0,1.5,0.75,1.25,1.5,0.02,0.39,-1.3,243.03,-8.5,18.0
5.76,0.25,0.5,0.0,0.5,0.75,0.5,2.5,0.0,0.0,0.5,0.0,0.0,0.0,0.58,0.39,-0.73,74.55,9.4,37.5,1.5,1.25,1.75,1.75,3.25,1.75,0.0,0.0,0.0,1.5,0.0,1.25,1.5,0.08,0.33,-1.17,237.99,-5.1,19.8
5.78,0.25,0.5,0.0,1.0,0.75,0.75,2.5,0.0,0.0,0.5,0.0,0.0,0.0,0.45,0.39,-0.8,75.28,8.7,39.4,1.25,1.5,2.0,2.0,3.0,1.5,0.0,0.75,0.0,1.5,0.75,1.25,1.5,0.08,0.27,-1.11,239.91,-5.3,13.9
5.8,0.25,0.5,0.0,0.25,1.75,0.5,2.75,0.0,0.0,0.5,0.25,0.0,0.0,0.39,0.33,-0.8,77.66,7.0,34.7,1.25,1.5,2.0,2.0,3.5,2.0,0.0,0.0,0.0,1.5,0.25,1.5,1.5,0.02,0.14,-1.05,242.67,-5.1,18.7
5.82,0.25,0.5,0.0,0.25,0.75,0.5,2.75,0.0,0.0,0.5,0.25,0.0,0.0,0.33,0.39,-0.8,81.95,9.7,29.8,1.75,1.25,1.75,2.0,3.0,1.5,0.0,0.0,0.0,1.5,0.75,1.25,1.75,-0.11,0.02,-0.92,244.28,-6.1,14.7
5.84,0.25,0.5,0.0,0.5,0.75,0.5,2.5,0.0,0.0,0.5,0.25,0.0,0.0,0.27,0.45,-0.92,79.47,9.5,31.5,1.25,1.25,1.75,2.0,3.0,1.75,0.0,0.0,0.0,1.5,0.5,1.25,1.75,-0.23,-0.05,-0.8,241.43,-4.9,13.9
5.86,0.25,0.25,0.0,0.5,1.25,0.5,2.5,0.0,0.0,0.5,0.25,0.0,0.0,0.14,0.45,-0.92,78.22,7.8,30.5,1.5,1.25,1.75,2.0,3.25,1.75,0.0,0.0,0.0,1.5,0.5,1.25,1.75,-0.36,-0.05,-0.86,240.82,-5.1,15.8
5.88,0.25,0.25,0.0,0.25,1.25,0.5,2.5,0.0,0.0,0.5,0.25,0.0,0.0,0.14,0.45,-0.86,77.3,7.3,29.0,1.75,1.0,1.75,2.0,2.5,1.5,0.0,0.0,0.0,1.5,0.75,1.25,1.5,-0.42,-0.11,-0.8,235.53,-6.7,13.9
5.9,0.25,0.25,0.0,0.25,1.75,0.5,2.5,0.0,0.0,0.5,0.25,0.0,0.0,0.02,0.45,-0.73,79.74,6.1,31.7,1.5,1.5,2.0,2.0,2.75,1.5,0.0,0.0,0.0,1.5,0.25,1.25,1.75,-0.48,-0.17,-0.86,233.91,-6.4,17.5
5.92,0.25,0.25,0.0,0.25,0.75,0.5,2.5,0.0,0.0,0.5,0.25,0.0,0.0,-0.05,0.27,-0.67,75.79,8.8,25.5,1.5,1.25,2.0,2.0,3.0,1.75,0.0,0.0,0.0,1.5,0.5,1.25,1.5,-0.42,-0.11,-0.98,234.39,-6.1,17.7
5.94,0.25,0.25,0.0,0.25,0.75,1.25,2.5,0.0,0.0,0.5,0.25,0.0,0.0,-0.11,0.2,-0.67,75.86,4.1,26.7,1.75,1.0,2.0,2.0,2.5,1.75,0.0,0.0,0.0,1.5,0.5,1.25,1.5,-0.36,-0.11,-0.98,233.94,-6.7,16.3
5.96,0.25,0.5,0.0,0.25,1.75,0.5,2.5,0.0,0.0,0.5,0.0,0.0,0.0,-0.05,0.77,-1.17,77.57,6.2,40.0,1.25,1.5,2.0,2.0,2.25,1.25,0.0,0.0,0.0,1.5,0.25,1.25,1.5,-0.23,-0.05,-1.17,229.09,-7.1,16.8
5.98,0.25,0.5,0.0,0.25,0.75,0.5,2.5,0.0,0.0,0.5,0.25,0.0,0.0,0.2,1.08,-1.3,76.29,9.1,29.9,1.75,1.25,2.0,2.0,2.5,1.25,0.0,0.0,0.0,1.5,0.75,1.25,1.5,0.08,0.08,-1.36,227.83,-7.7,15.7
6.0,0.25,0.5,0.0,0.0,1.25,0.5,2.5,0.0,0.0,0.5,0.0,0.0,0.0,0.2,1.2,-1.23,75.06,6.8,37.2,1.25,1.25,2.0,1.75,1.75,1.5,0.0,0.0,0.0,1.5,0.75,1.25,1.75,0.27,0.08,-1.36,221.69,-6.5,8.4
6.02,0.25,0.25,0.0,0.25,1.75,0.5,2.5,0.0,0.0,0.5,0.25,0.25,0.0,0.2,1.2,-1.17,78.06,6.2,25.2,1.75,1.0,2.0,2.0,2.25,1.75,0.0,0.25,0.0,1.5,0.75,1.5,1.5,0.2,-0.05,-1.17,223.88,-6.6,11.6
6.04,0.25,0.5,0.0,0.25,2.25,0.5,2.5,0.0,0.0,0.5,0.25,0.0,0.0,0.14,0.95,-1.05,86.08,5.5,36.7,1.25,1.5,2.0,2.0,2.25,1.25,0.0,0.0,0.0,1.75,0.25,1.25,1.5,0.2,-0.23,-1.05,222.51,-6.7,15.3
6.06,0.25,0.25,0.0,0.25,1.25,0.5,2.5,0.0,0.0,0.5,0.25,0.0,0.25,0.08,0.7,-0.86,87.04,6.2,21.6,1.75,1.25,2.0,1.75,1.5,1.5,0.0,0.0,0.0,2.0,0.75,1.5,1.75,0.27,-0.11,-1.05,224.81,-6.9,5.8
6.08,0.25,0.5,0.0,0.25,0.75,0.5,2.5,0.0,0.0,0.5,0.25,0.0,0.0,0.08,0.52,-0.73,83.29,9.1,29.9,1.25,0.5,1.75,2.25,1.5,1.25,0.0,0.0,0.0,2.0,0.0,1.5,1.5,0.02,0.08,-0.98,214.83,-6.1,4.3
6.1,0.0,0.5,0.0,0.25,1.25,0.5,2.5,0.0,0.0,0.5,0.25,0.0,0.0,0.08,0.45,-0.92,79.18,6.2,29.4,1.25,1.5,1.75,0.75,1.25,1.25,0.0,0.0,0.0,1.75,0.0,1.5,1.0,-0.48,0.33,-0.73,200.32,-6.7,10.7
6.12,0.25,0.5,0.25,0.25,2.25,0.5,2.5,0.0,0.0,0.5,0.0,0.0,0.0,0.14,0.33,-0.98,84.66,6.7,42.2,1.25,1.5,1.75,1.5,1.75,0.0,0.0,0.0,0.0,0.0,0.75,0.25,0.5,-0.67,0.33,-0.92,176.92,-15.8,45.6
6.14,0.25,0.5,0.0,0.25,0.75,0.5,2.5,0.0,0.0,0.5,0.25,0.0,0.0,0.14,0.33,-1.05,81.08,9.1,29.9,0.0,1.25,1.5,1.75,0.0,1.25,0.0,0.0,0.0,0.0,0.0,0.25,0.25,-0.98,0.33,-0.92,141.53,-12.3,49.2
6.16,0.25,0.25,0.0,0.25,1.75,0.5,2.5,0.0,0.0,0.5,0.0,0.0,0.0,0.08,0.33,-1.05,83.47,5.9,36.9,1.25,1.25,0.5,1.75,0.0,1.25,0.0,0.0,0.0,1.75,0.5,1.5,0.75,-1.17,0.39,-0.92,130.21,-5.8,0.2
6.18,0.25,0.5,0.0,0.25,0.75,0.5,2.5,0.0,0.0,0.5,0.25,0.0,0.0,0.02,0.39,-0.92,77.56,9.1,29.9,1.25,1.25,1.75,1.75,0.0,1.25,0.0,0.0,0.0,1.5,0.0,1.25,0.5,-1.3,0.45,-0.92,128.76,-10.5,18.2
6.2,0.25,0.25,0.0,0.25,1.25,0.5,2.5,0.0,0.0,0.5,0.25,0.0,0.0,-0.05,0.39,-0.92,75.89,7.3,29.0,1.25,1.25,1.75,1.75,2.25,1.25,0.0,0.0,0.0,2.0,0.75,1.5,1.25,-1.36,0.45,-0.55,158.97,-6.1,8.2
6.22,0.0,0.25,0.0,0.0,1.25,0.5,2.5,0.0,0.0,0.5,0.25,0.0,0.0,-0.05,0.45,-0.92,70.98,5.1,23.2,1.25,1.25,1.75,1.75,1.25,1.25,0.0,0.5,0.0,1.75,0.75,1.5,1.25,-1.3,0.27,-0.48,179.17,-6.4,4.4
6.24,0.0,0.25,0.0,0.0,1.25,0.5,2.5,0.0,0.0,0.5,0.25,0.0,0.0,-0.11,0.45,-0.92,68.33,5.1,23.2,1.0,1.5,1.75,1.75,1.75,1.25,0.0,0.0,0.0,2.0,0.75,1.25,0.75,-1.17,0.08,-0.3,197.13,-6.8,12.9
6.26,0.25,0.25,0.0,0.25,1.25,0.5,2.5,0.0,0.0,0.5,0.25,0.25,0.0,-0.11,0.52,-0.92,69.19,7.4,21.9,1.0,1.0,1.0,1.75,1.5,1.25,0.0,0.0,0.0,1.75,0.75,1.25,0.5,-1.05,-0.11,-0.11,192.6,-5.6,9.6
6.28,0.25,0.5,0.0,0.25,1.25,0.5,2.5,0.0,0.0,0.5,0.0,0.0,0.0,-0.17,0.52,-0.86,71.46,7.4,38.3,1.25,1.25,1.75,1.75,2.25,1.25,0.0,0.0,0.0,1.5,0.75,1.5,1.5,-0.92,-0.17,0.27,202.16,-6.5,8.9
6.3,0.25,0.25,0.0,0.25,1.25,0.5,2.5,0.0,0.0,0.5,0.25,0.0,0.0,-0.23,0.39,-0.8,74.52,7.3,29.0,1.25,1.0,0.5,1.5,0.0,0.75,0.0,0.0,0.0,1.5,0.0,1.25,0.5,-0.92,-0.05,0.45,178.22,-7.8,6.8
6.32,0.25,0.25,0.0,0.25,1.25,0.5,2.5,0.0,0.0,0.5,0.0,0.0,0.0,-0.36,0.39,-0.86,74.08,7.1,34.8,0.0,0.75,1.75,0.25,2.25,0.0,0.0,0.0,0.0,0.0,0.75,0.25,1.25,-0.86,0.02,0.45,158.59,-8.7,15.2
6.34,0.25,0.5,0.0,0.5,1.25,0.5,2.5,0.0,0.0,0.5,0.25,0.5,0.0,-0.36,0.39,-0.98,79.11,8.1,21.3,1.25,1.0,0.5,1.75,0.0,1.0,0.0,0.5,0.0,1.5,0.75,1.5,1.0,-0.73,0.2,0.45,148.25,-5.4,-7.2
6.36,0.5,0.75,1.0,0.75,3.75,1.75,3.0,0.25,0.0,1.75,1.5,1.0,1.25,-0.3,0.39,-0.98,135.92,2.9,3.4,1.25,0.75,1.75,1.5,2.5,1.25,0.0,0.0,0.0,1.5,0.75,1.25,1.25,-0.61,0.27,0.27,165.58,-6.2,9.9
6.38,0.5,0.5,1.0,0.75,3.75,1.75,3.25,0.25,0.0,1.75,1.5,1.0,1.0,-0.17,0.39,-0.98,185.01,3.3,3.9,1.25,0.75,1.75,1.25,2.75,1.25,0.0,0.0,0.0,1.5,0.75,1.25,1.25,-0.55,0.33,0.27,182.99,-5.8,9.9
6.4,0.5,0.5,1.0,1.0,3.75,1.5,3.25,0.25,0.0,1.5,1.5,0.75,1.25,-0.11,0.33,-0.92,223.3,3.9,5.6,1.25,1.0,1.75,1.25,2.75,1.25,0.0,0.0,0.0,2.0,0.75,1.25,1.5,-0.42,0.52,0.39,201.25,-4.8,6.6
6.42,0.25,0.75,1.0,1.0,3.75,1.75,3.25,0.25,0.0,1.5,1.5,1.25,1.0,-0.11,0.27,-0.86,242.9,3.6,4.4,1.25,1.0,1.75,1.25,2.75,1.25,0.0,0.0,0.0,1.5,0.75,1.25,1.25,-0.36,0.52,0.45,209.7,-5.9,11.5
6.44,0.0,0.5,0.25,0.25,1.25,0.5,2.5,0.0,0.0,0.5,0.0,0.0,0.0,-0.05,0.27,-0.8,205.95,7.7,36.6,1.25,0.75,1.75,1.0,2.5,1.25,0.0,0.0,0.0,1.75,0.75,1.5,1.0,-0.23,0.64,0.45,208.42,-5.8,6.6
6.46,0.0,0.25,0.0,0.25,1.25,0.5,2.5,0.0,0.0,0.5,0.25,0.25,0.0,-0.11,0.33,-0.86,159.61,6.0,18.0,1.25,0.75,1.75,1.25,2.5,1.25,0.0,0.25,0.0,1.75,0.75,1.5,1.5,-0.05,0.89,0.45,211.56,-4.9,2.7
6.48,0.25,0.25,0.0,0.25,1.75,0.5,2.75,0.0,0.0,0.5,0.25,0.0,0.0,-0.11,0.45,-0.8,116.77,6.7,31.6,1.25,0.75,1.75,0.75,2.5,1.25,0.0,0.25,0.0,2.0,0.75,1.5,1.25,-0.05,1.02,0.27,212.64,-4.4,1.4
6.5,0.25,0.5,0.0,0.25,0.75,0.5,2.5,0.0,0.0,0.5,0.25,0.0,0.0,-0.05,0.52,-0.8,89.72,9.1,29.9,1.25,0.0,1.75,1.25,2.25,1.25,0.0,0.0,0.0,2.5,0.75,1.5,1.5,-0.11,1.02,0.39,213.6,-4.0,-6.8
6.52,0.25,0.5,0.0,0.5,0.75,0.5,2.5,0.0,0.0,0.5,0.25,0.25,0.0,-0.05,0.58,-0.86,74.4,9.5,24.2,1.25,0.75,1.75,2.0,2.25,1.25,0.0,0.5,0.0,3.0,0.75,1.5,1.5,-0.23,0.95,0.64,223.17,-3.8,-1.9
6.54,0.25,0.5,0.0,0.25,0.75,0.5,2.5,0.0,0.0,0.5,0.25,0.25,0.0,-0.11,0.58,-0.98,66.95,9.0,22.2,1.0,0.75,1.75,1.75,1.75,1.25,0.0,0.5,0.0,2.25,0.75,1.5,1.5,-0.61,0.7,0.83,227.42,-4.3,-2.9
6.56,0.25,0.5,0.0,0.5,0.75,0.5,2.5,0.0,0.0,0.5,0.25,0.25,0.0,-0.11,0.58,-0.92,60.89,9.5,24.2,1.25,0.75,1.75,1.75,1.75,1.25,0.0,0.5,0.0,2.5,0.75,1.5,0.5,-0.73,0.7,0.77,224.14,-5.7,4.9
6.58,0.0,0.0,0.0,0.25,0.75,0.5,2.5,0.0,0.0,0.5,0.0,0.25,0.0,-0.11,0.39,-0.86,44.49,6.7,12.8,1.25,0.5,1.75,1.75,1.75,1.25,0.0,0.75,0.0,2.25,0.75,1.5,1.0,-0.8,0.77,0.7,216.95,-4.9,0.0
6.6,0.0,0.5,0.0,0.25,1.25,0.5,2.25,0.0,0.0,0.5,0.0,0.25,0.25,-0.11,0.2,-0.8,39.87,4.4,20.0,1.0,0.25,1.75,1.75,1.75,1.25,0.0,0.5,0.0,1.75,0.75,1.5,1.0,-0.86,0.77,0.58,207.21,-5.4,-0.1
6.62,0.25,0.5,0.0,0.5,1.25,0.5,2.5,0.0,0.0,0.5,0.0,0.25,0.0,-0.11,0.14,-0.8,48.56,8.0,32.2,1.25,0.5,1.75,1.75,2.25,1.25,0.0,0.75,0.0,2.25,1.0,1.5,0.5,-0.92,0.89,0.58,207.28,-5.3,4.5
6.64,0.0,0.5,0.0,0.25,1.75,0.5,2.5,0.0,0.0,0.5,0.25,0.25,0.0,-0.11,0.33,-0.73,62.22,5.3,25.6,1.25,0.0,1.75,1.75,2.25,1.25,0.0,1.0,0.0,1.75,0.75,1.5,1.5,-1.11,1.14,0.39,208.35,-4.0,-3.2
6.66,0.0,0.5,0.0,0.25,0.75,0.5,2.5,0.0,0.0,0.5,0.0,0.0,0.0,-0.05,0.2,-0.8,66.51,7.4,32.4,1.0,0.0,1.75,1.75,2.25,1.25,0.0,0.75,0.0,2.0,0.75,1.5,0.75,-1.36,1.27,0.52,208.37,-4.5,0.2
6.68,0.25,0.5,0.0,0.25,1.25,0.5,2.25,0.0,0.0,0.5,0.0,0.0,0.0,-0.05,0.2,-0.8,76.4,6.7,38.6,1.25,0.25,1.75,1.75,1.75,1.25,0.0,0.0,0.0,2.5,0.75,1.5,1.0,-1.55,1.45,0.45,205.16,-5.6,-1.1
6.7,0.0,0.25,0.0,0.25,1.25,0.5,2.0,0.0,0.0,0.5,0.0,0.0,0.0,-0.11,0.27,-0.8,70.2,3.9,31.4,1.0,0.25,1.75,1.75,1.5,1.25,0.0,1.0,0.0,3.0,0.75,1.5,1.25,-1.67,1.52,0.33,206.07,-2.8,-10.4
6.72,0.25,0.5,0.0,0.25,0.75,0.5,2.25,0.0,0.0,0.5,0.0,0.25,0.0,-0.17,0.33,-0.86,68.07,8.3,27.7,1.25,0.0,1.75,1.75,2.25,1.25,0.0,1.0,0.0,3.0,1.0,1.5,1.5,-1.48,1.33,0.33,213.48,-2.6,-9.7
6.74,0.25,0.5,0.0,0.5,3.0,0.5,3.0,0.25,0.0,0.5,0.5,0.25,0.0,-0.23,0.39,-0.92,88.86,5.3,28.7,1.25,0.75,1.75,1.75,2.25,1.25,0.0,1.25,0.0,3.0,0.75,1.5,1.5,-1.23,1.08,0.39,224.61,-2.7,-4.4
6.76,0.5,0.5,0.0,0.5,1.75,0.75,2.5,0.25,0.0,0.5,1.5,0.25,1.0,-0.36,0.45,-0.98,110.73,4.4,-0.5,1.25,1.0,1.75,1.75,2.25,1.25,0.0,1.25,0.0,2.5,1.0,1.5,1.75,-0.92,0.7,0.45,235.22,-3.2,-3.4
6.78,0.25,0.5,0.0,1.0,2.5,1.75,2.5,0.25,0.0,1.75,0.5,1.0,0.0,-0.3,0.45,-0.98,140.9,0.5,8.2,1.25,1.0,1.75,1.5,2.5,1.5,0.0,1.25,0.0,3.0,1.0,1.5,1.75,-0.55,0.33,0.45,246.86,-2.1,-4.8
6.8,0.5,0.75,1.0,1.0,3.75,2.0,2.5,0.25,0.0,1.75,1.25,1.0,1.0,-0.17,0.45,-0.92,183.48,2.5,7.4,1.25,1.0,1.75,1.25,2.75,1.75,0.0,1.25,0.0,3.0,0.75,1.75,1.5,-0.48,0.27,0.27,253.5,-1.6,-3.3
6.82,0.5,0.5,0.75,0.75,3.75,1.75,2.5,0.25,0.0,2.0,1.5,1.0,1.25,-0.17,0.39,-0.92,214.83,1.5,-0.6,1.25,1.25,1.75,0.75,3.25,1.5,0.0,1.25,0.0,3.0,1.0,1.5,1.5,-0.3,0.14,0.33,257.88,-1.5,-1.8
6.84,0.0,0.25,1.0,0.0,3.0,1.0,2.25,0.25,0.0,0.5,0.0,0.0,0.0,-0.23,0.33,-0.86,201.96,4.3,38.2,1.25,0.75,1.75,1.75,3.0,1.5,0.0,1.25,0.0,3.0,1.5,1.5,1.5,-0.23,0.2,0.27,262.69,-2.4,-4.0
6.86,0.0,0.5,0.0,0.25,1.25,0.5,2.0,0.0,0.0,0.5,0.0,0.0,0.0,-0.3,0.39,-0.86,164.1,4.4,35.6,1.25,0.75,1.75,1.5,2.75,1.5,0.0,1.25,0.0,3.0,1.25,1.5,2.25,-0.11,0.27,0.52,264.59,-1.5,-9.0
6.88,0.25,0.25,0.0,0.25,1.25,0.5,2.0,0.0,0.0,0.5,0.25,0.0,0.0,-0.36,0.39,-0.86,122.44,5.9,29.1,1.25,1.0,1.75,0.5,3.5,1.5,0.0,1.0,0.0,3.0,1.5,1.5,1.75,0.14,0.52,0.2,265.04,-1.4,-6.1
6.9,0.0,0.25,0.0,0.25,1.75,0.5,2.0,0.0,0.0,0.5,0.0,0.0,0.0,-0.36,0.45,-0.92,91.41,3.0,34.3,1.25,0.75,1.75,0.5,3.5,1.75,0.0,1.25,0.0,3.0,1.5,1.5,2.0,0.33,0.58,0.33,265.48,-0.5,-8.8
6.92,0.0,0.5,0.0,0.25,0.75,0.5,2.0,0.0,0.0,0.5,0.0,0.0,0.0,-0.3,0.45,-0.8,69.0,5.7,32.7,1.25,0.75,1.75,0.75,3.5,1.75,0.0,1.25,0.25,3.0,1.5,1.75,2.25,0.14,0.64,0.58,268.08,-0.8,-10.8
