time,left pressure 0[N/cm虏],left pressure 1[N/cm虏],left pressure 2[N/cm虏],left pressure 3[N/cm虏],left pressure 4[N/cm虏],left pressure 5[N/cm虏],left pressure 6[N/cm虏],left pressure 7[N/cm虏],left pressure 8[N/cm虏],left pressure 9[N/cm虏],left pressure 10[N/cm虏],left pressure 11[N/cm虏],left pressure 12[N/cm虏],left acceleration X[g],left acceleration Y[g],left acceleration Z[g],left total force[N],left center of pressure X[mm],left center of pressure Y[mm],right pressure 0[N/cm虏],right pressure 1[N/cm虏],right pressure 2[N/cm虏],right pressure 3[N/cm虏],right pressure 4[N/cm虏],right pressure 5[N/cm虏],right pressure 6[N/cm虏],right pressure 7[N/cm虏],right pressure 8[N/cm虏],right pressure 9[N/cm虏],right pressure 10[N/cm虏],right pressure 11[N/cm虏],right pressure 12[N/cm虏],right acceleration X[g],right acceleration Y[g],right acceleration Z[g],right total force[N],right center of pressure X[mm],right center of pressure Y[mm]
0.02,3.0,1.75,3.0,4.75,7.75,9.75,0.75,10.5,4.5,6.5,3.25,2.25,4.25,-0.11,0.14,0.95,959.71,-2.1,-4.8,2.0,1.0,0.75,1.5,1.75,4.0,0.0,5.25,3.25,8.0,6.0,7.0,8.25,-0.23,0.27,1.27,501.46,2.5,-49.3
0.04,4.25,1.0,4.25,5.75,8.0,9.75,2.5,9.75,4.5,6.5,3.5,2.25,4.0,-0.11,0.14,0.95,997.2,0.1,-0.7,2.0,1.0,0.5,1.75,3.25,4.5,0.0,5.75,4.25,8.25,6.75,7.0,8.5,0.14,0.14,0.95,701.3,2.6,-45.7
0.06,6.0,0.25,4.75,5.5,9.25,9.75,2.75,9.5,4.5,5.5,3.0,2.25,3.0,-0.11,0.14,0.95,1031.7,1.5,5.6,2.0,1.5,0.0,1.5,3.0,4.75,0.25,6.0,4.75,8.75,7.75,7.25,8.75,0.08,0.2,0.95,870.47,2.8,-47.2
0.08,6.25,1.75,4.75,6.5,9.25,9.75,3.25,9.0,4.25,5.0,3.0,2.25,2.0,-0.11,0.14,0.95,1074.56,2.7,11.9,2.0,1.5,0.0,1.25,3.5,5.0,0.0,6.25,4.75,8.75,7.5,7.25,8.75,0.08,0.14,0.95,973.74,3.1,-46.3
0.1,7.75,1.75,5.5,7.5,9.25,9.75,3.25,8.0,3.0,5.0,2.0,2.0,2.25,-0.11,0.14,0.95,1107.69,3.9,18.0,2.0,1.75,0.25,0.0,3.25,4.75,0.0,6.25,4.75,8.5,7.0,7.25,8.5,0.08,0.14,0.95,1012.51,3.3,-47.8
0.12,8.75,2.25,5.75,10.5,12.0,9.75,2.75,7.5,2.0,5.0,2.0,1.75,2.5,-0.11,0.14,1.02,1188.67,4.6,24.2,2.0,1.5,0.5,1.75,3.0,4.75,0.25,6.25,4.75,8.5,6.75,7.0,8.5,0.14,0.14,0.95,1028.04,2.5,-44.4
0.14,9.0,0.0,5.75,10.5,11.5,9.75,1.25,6.25,1.5,4.75,2.0,0.75,2.25,-0.17,0.2,1.2,1200.57,4.6,26.1,1.75,1.75,1.0,1.75,3.5,4.5,0.25,6.25,4.5,8.25,6.75,6.75,8.25,0.08,0.14,0.95,1023.39,2.2,-42.0
0.16,10.5,0.0,4.25,10.5,12.0,9.25,0.0,5.75,1.25,4.5,2.25,0.75,2.25,-0.17,0.2,1.33,1194.32,4.6,27.7,1.75,1.5,0.25,2.0,3.0,4.5,0.0,6.0,4.25,8.0,6.75,6.5,8.25,0.08,0.14,0.95,993.11,2.8,-44.4
0.18,11.5,1.25,3.0,7.25,12.0,8.25,0.0,4.75,1.25,4.25,2.0,0.5,2.5,-0.17,0.27,1.45,1124.5,4.6,29.8,1.75,1.75,1.5,1.75,3.75,5.0,0.25,6.0,4.75,8.0,6.75,6.25,8.25,0.08,0.14,0.89,971.05,1.9,-39.1
0.2,11.5,5.5,3.5,5.75,10.5,7.5,0.0,4.5,1.25,0.75,0.5,0.5,2.0,-0.36,0.45,1.58,1038.92,7.2,45.2,2.0,1.5,1.0,1.75,3.75,5.0,0.5,6.0,4.75,7.75,6.75,6.25,8.0,0.08,0.14,0.89,925.76,2.0,-39.5
0.22,10.5,5.25,2.5,4.75,9.0,6.5,0.0,3.0,1.25,2.0,0.5,0.75,2.0,-0.36,0.58,2.14,913.95,6.9,41.9,2.0,1.75,1.25,2.75,3.0,5.0,1.0,5.75,5.0,7.75,6.5,5.75,7.75,0.08,0.14,0.95,873.99,1.1,-36.6
0.24,8.75,4.0,0.0,0.0,5.75,3.0,0.0,2.75,0.5,2.75,0.5,0.0,0.5,-0.55,0.58,2.45,682.17,5.7,42.8,2.0,1.75,1.25,2.25,4.75,5.25,1.25,6.25,5.5,7.0,6.75,5.75,7.25,0.08,0.14,0.89,843.99,1.1,-32.8
0.26,7.5,2.5,1.25,0.0,5.5,2.5,0.0,2.25,0.5,2.75,0.5,0.5,0.25,-0.48,0.45,2.77,487.1,6.9,38.2,2.0,2.0,1.75,3.0,4.75,5.75,1.5,6.5,6.0,6.75,6.75,4.75,6.5,0.08,0.14,0.95,831.37,0.4,-27.0
0.28,6.75,0.0,0.0,0.0,1.75,2.0,0.0,2.0,0.5,2.0,0.5,0.5,0.0,-0.3,0.39,2.52,299.17,7.7,28.7,3.0,2.25,2.75,3.25,4.75,5.75,2.0,6.25,6.0,5.75,5.5,3.5,5.5,0.08,0.14,0.95,821.55,-1.2,-16.7
0.3,4.25,0.0,0.0,0.0,2.25,3.75,0.0,1.5,0.5,2.25,0.25,0.5,0.0,-0.3,-0.36,2.33,201.44,0.1,21.7,3.25,2.25,2.75,3.25,6.0,6.0,2.5,6.25,6.0,5.5,4.5,3.25,4.0,0.08,0.14,0.95,814.58,-1.6,-9.6
0.32,0.75,0.75,0.0,0.0,0.0,1.5,0.0,1.0,0.5,1.5,0.5,0.5,0.0,0.2,-0.92,1.08,78.05,-3.3,-10.0,4.5,2.25,3.0,5.0,6.75,6.25,2.5,6.0,6.25,4.75,3.25,2.25,3.5,0.08,0.14,0.95,824.62,-3.0,1.3
0.34,1.25,0.75,0.0,0.0,0.0,1.75,0.0,1.0,0.5,0.0,0.5,0.5,0.0,-0.05,-1.3,2.02,0.0,1.9,16.1,6.25,2.5,4.0,5.5,7.5,6.5,2.75,5.75,6.25,4.25,2.5,2.25,3.0,0.08,0.14,0.95,859.72,-4.8,9.7
0.36,1.0,0.75,0.0,0.0,0.5,1.0,0.0,0.75,0.5,1.25,0.5,0.5,0.0,-0.11,-0.92,0.64,0.0,0.3,-0.3,8.0,2.5,5.25,7.25,8.25,7.0,2.75,5.25,5.75,4.0,2.5,1.75,2.75,0.08,0.2,0.95,928.38,-6.6,17.9
0.38,1.0,0.5,0.0,0.0,1.75,1.25,0.0,0.75,0.5,0.0,0.5,0.5,0.25,-0.36,-0.73,0.45,0.0,0.7,17.3,8.75,3.0,5.75,9.0,9.25,7.0,2.75,4.25,4.75,3.5,1.5,1.25,2.5,0.14,0.2,0.95,1002.72,-7.8,27.1
0.4,1.0,0.5,0.0,0.0,1.75,0.25,0.0,0.25,0.0,1.0,0.5,0.5,0.5,-0.36,-0.73,0.45,0.0,1.5,4.0,10.5,3.25,6.75,10.5,9.5,7.0,2.5,3.25,3.5,3.25,1.0,0.75,2.5,0.08,0.2,0.95,1076.63,-9.5,35.1
0.42,0.5,0.5,0.0,0.0,0.0,0.5,0.0,0.5,0.5,1.0,0.5,0.5,0.5,-0.42,-0.67,0.7,0.0,-0.6,-30.1,11.5,3.0,7.75,12.5,11.5,7.0,1.75,2.5,2.75,3.0,0.75,0.75,2.5,0.08,0.2,1.02,1156.97,-10.3,39.9
0.44,0.75,0.5,0.0,0.0,1.75,1.75,0.0,1.0,0.5,0.75,1.5,0.75,0.5,-0.42,-0.61,0.83,0.0,-2.1,-7.9,13.0,3.0,8.75,12.5,12.0,7.0,1.25,2.0,1.75,2.75,0.75,0.75,2.75,0.08,0.2,1.08,1233.43,-11.2,43.1
0.46,0.25,0.75,0.0,0.0,1.75,0.25,0.0,0.75,0.0,0.25,0.5,0.5,0.5,-0.48,-0.36,1.02,24.87,-1.4,3.5,12.0,0.75,8.75,11.0,12.5,6.25,0.5,2.0,1.0,1.25,0.25,0.5,1.75,0.02,0.2,1.08,1211.38,-11.8,48.2
0.48,1.25,0.25,0.0,0.0,1.75,0.25,0.25,0.0,0.5,0.5,0.5,0.5,0.5,-0.55,-0.17,1.2,58.93,5.8,8.7,15.5,3.0,9.25,12.5,11.5,5.5,0.0,0.5,1.0,2.75,0.0,0.75,0.25,0.08,0.27,1.08,1211.96,-14.6,55.9
0.5,1.0,0.0,0.0,0.0,1.75,0.25,0.0,0.0,0.5,0.25,0.5,0.5,0.5,-0.55,0.02,1.27,64.47,4.6,4.0,13.0,3.0,8.75,11.0,11.0,4.5,0.0,0.0,0.75,1.25,0.0,0.25,1.25,0.14,0.33,1.14,1132.85,-14.9,57.6
0.52,0.75,0.0,0.0,0.0,1.75,0.0,0.5,0.0,0.25,0.25,0.25,0.5,0.5,-0.61,0.27,1.45,72.14,5.2,5.4,13.0,2.0,8.75,10.0,9.25,5.0,0.0,0.75,0.25,0.0,0.0,0.25,1.25,0.14,0.39,1.27,1037.81,-15.6,59.5
0.54,0.5,0.25,0.0,0.0,1.75,0.5,0.25,0.0,0.25,1.25,0.5,0.5,0.5,-0.61,0.39,1.77,76.57,-1.2,-8.3,13.0,2.25,8.75,9.0,7.25,3.25,0.0,0.25,0.0,0.0,0.0,0.25,1.0,0.14,0.45,1.52,901.33,-18.4,63.5
0.56,0.5,0.5,0.0,0.0,1.75,0.5,0.5,0.0,0.5,0.5,0.5,0.5,0.5,-0.67,0.58,2.02,87.19,2.2,3.7,11.5,1.5,7.75,7.25,4.75,2.75,0.0,0.0,0.25,1.0,0.0,0.25,1.0,0.14,0.7,1.89,747.1,-18.9,59.4
0.58,0.5,0.0,0.0,0.0,1.75,0.25,0.5,0.75,0.5,1.25,0.5,0.5,0.5,-0.8,0.77,2.45,94.4,-1.6,-17.4,10.5,2.25,7.0,7.25,1.5,3.75,0.25,0.5,1.0,2.75,0.0,0.75,1.75,0.39,1.02,2.52,623.48,-16.3,44.5
0.6,0.5,0.5,0.0,0.25,1.75,0.25,0.5,0.5,0.25,0.75,0.5,0.5,0.5,-0.67,1.58,2.45,98.13,1.2,0.2,8.0,1.25,5.5,4.0,1.0,2.75,0.0,0.0,0.25,0.75,0.0,0.0,0.75,0.77,1.08,2.64,453.51,-20.0,59.9
0.62,0.25,0.5,0.0,0.0,1.75,0.25,0.75,0.0,0.25,0.5,0.25,0.5,0.5,-0.3,2.58,2.52,95.16,1.7,4.3,6.25,0.0,2.0,3.25,0.5,0.25,0.0,0.0,0.25,0.0,0.0,0.0,0.0,0.52,0.52,3.02,295.19,-27.2,74.7
0.64,0.5,0.5,0.0,0.0,1.75,0.25,0.5,0.25,0.0,1.0,0.5,0.5,0.5,0.02,3.27,1.64,94.63,0.1,-2.1,5.5,0.5,0.0,3.0,0.0,2.25,0.0,0.0,0.75,1.5,0.0,0.75,1.5,0.45,-0.92,2.33,195.73,-10.5,26.8
0.66,0.5,0.0,0.0,0.0,1.75,0.0,0.25,0.75,0.25,1.25,0.5,0.5,0.5,0.08,4.52,-0.48,93.02,-2.0,-19.4,2.0,0.0,0.0,1.75,0.5,1.75,0.0,0.25,0.25,0.25,0.0,0.0,0.75,0.27,-0.42,-0.05,82.95,-5.5,34.0
0.68,0.5,0.0,0.25,0.0,0.0,0.0,0.5,0.75,0.25,1.25,2.0,0.5,0.75,1.2,6.33,-0.86,94.45,3.0,-54.6,1.5,0.0,0.0,1.5,0.5,1.75,0.0,0.0,0.25,0.25,0.0,0.0,0.25,0.7,-1.36,2.08,3.98,-5.3,43.4
0.7,1.0,0.25,0.0,0.0,1.75,0.75,0.75,1.25,0.5,2.75,2.0,0.5,2.0,0.89,1.33,-0.86,131.26,-2.7,-33.3,0.5,0.0,0.0,0.75,0.5,1.75,0.0,0.0,0.25,0.0,0.0,0.0,0.0,0.27,-0.98,0.83,0.0,1.8,45.3
0.72,0.5,0.25,0.0,0.0,1.75,1.75,0.25,1.0,0.5,2.75,0.5,0.5,3.75,0.02,-0.36,1.52,164.07,-8.6,-39.8,2.0,0.25,0.0,3.0,1.0,2.5,0.0,0.25,0.25,0.5,0.25,0.0,0.0,0.27,-0.73,0.52,0.0,-5.8,45.6
0.74,1.75,0.0,0.0,0.25,1.75,1.75,0.0,2.75,0.25,5.5,0.0,3.75,5.5,0.33,1.27,1.08,236.24,-6.6,-52.1,0.5,0.0,0.0,1.0,0.5,1.75,0.0,0.0,0.25,0.75,0.0,0.0,0.0,0.08,-0.55,0.58,0.0,2.9,26.8
0.76,0.75,1.0,0.25,0.0,0.0,4.0,0.25,6.0,2.0,6.0,4.0,5.0,6.5,-0.36,1.02,2.14,339.05,-5.9,-57.0,1.25,0.0,0.0,1.25,1.75,1.75,0.0,0.0,0.25,0.25,0.0,0.0,0.0,-0.36,-0.42,0.89,0.0,-2.6,49.0
0.78,0.0,0.0,0.0,0.0,0.75,3.0,0.0,7.0,4.25,8.0,6.0,6.25,7.5,0.2,0.33,1.39,499.59,-5.8,-67.1,0.5,0.0,0.0,0.5,1.0,1.5,0.0,0.0,0.25,0.0,0.0,0.0,0.0,-0.36,-0.36,1.08,0.0,2.0,46.3
0.8,1.0,0.25,0.0,2.25,2.25,4.25,0.75,7.5,5.0,9.0,7.5,6.25,8.25,-0.05,0.14,1.02,706.34,-3.7,-51.6,0.5,0.0,0.0,0.5,0.5,1.5,0.0,0.0,0.25,0.0,0.0,0.0,0.0,-0.23,-0.23,1.08,0.0,1.8,45.1
0.82,1.25,0.0,1.5,2.25,2.25,5.0,2.0,8.0,5.25,8.75,7.75,7.0,8.25,-0.11,0.14,0.95,897.47,-2.1,-47.4,0.5,0.0,0.0,0.5,0.5,1.5,0.0,0.0,0.25,0.0,0.0,0.0,0.0,-0.23,-0.11,1.08,0.0,1.8,45.1
0.84,1.75,0.0,2.75,2.5,5.75,5.25,2.5,8.0,5.5,9.0,8.25,7.0,8.25,-0.11,0.08,0.95,1075.62,-0.9,-37.3,0.5,0.0,0.0,0.5,0.25,1.5,0.0,0.0,0.25,0.25,0.0,0.0,0.0,-0.3,0.02,1.2,19.59,2.7,34.8
0.86,2.0,0.0,2.75,1.25,2.5,5.25,2.5,8.0,5.5,9.5,8.25,6.25,7.75,-0.11,0.08,0.95,1151.71,-1.2,-43.4,0.5,0.0,0.0,0.5,1.0,1.5,0.0,0.0,0.25,0.0,0.0,0.0,0.0,-0.11,0.14,1.39,34.9,2.0,46.3
0.88,2.0,0.5,2.75,2.5,1.75,5.75,2.75,8.25,5.5,8.5,7.75,5.25,6.5,-0.11,0.08,0.95,1157.47,-0.5,-37.1,0.5,0.0,0.0,0.5,0.5,1.75,0.0,0.0,0.25,0.0,0.0,0.0,0.0,-0.05,0.2,1.58,39.6,3.2,44.3
0.9,2.25,0.5,2.75,2.0,1.75,6.0,2.75,8.25,5.75,8.75,7.0,5.25,7.0,-0.11,0.08,0.95,1122.38,-0.9,-37.4,0.5,0.0,0.0,0.5,0.5,1.5,0.0,0.0,0.25,0.0,0.0,0.0,0.0,0.02,0.39,2.14,48.48,1.8,45.1
0.92,2.0,0.25,3.25,2.5,1.75,6.25,2.75,8.0,5.75,7.75,6.25,3.75,6.25,-0.11,0.08,0.95,1047.05,-0.6,-32.3,0.5,0.0,0.0,0.5,0.5,1.75,0.0,0.0,0.25,0.0,0.0,0.0,0.0,0.2,0.64,2.39,49.42,3.2,44.3
0.94,2.25,1.0,3.75,3.75,3.5,6.5,2.75,8.0,5.75,7.75,6.0,3.75,5.5,-0.11,0.08,0.95,1000.04,0.3,-22.8,0.5,0.0,0.0,0.5,0.5,1.5,0.25,0.0,0.25,0.0,0.0,0.0,0.0,0.39,1.58,2.83,49.3,0.6,44.4
0.96,2.5,1.25,4.5,4.75,5.5,6.75,3.25,8.0,5.75,6.5,5.5,2.25,4.5,-0.11,0.08,0.95,976.76,1.5,-10.8,0.5,0.0,0.0,0.5,1.0,1.5,0.0,0.0,0.25,0.0,0.0,0.0,0.0,0.45,4.45,1.52,50.01,2.0,46.3
0.98,2.25,0.75,4.75,4.75,5.75,7.0,3.25,7.75,5.75,6.5,4.75,2.25,3.75,-0.11,0.08,0.95,947.44,1.4,-9.1,0.5,0.0,0.0,0.5,0.0,1.25,0.0,0.0,0.25,0.0,0.0,0.0,0.0,0.08,2.64,0.58,49.97,-0.5,44.1
1.0,2.25,1.5,4.75,4.75,5.75,7.0,3.25,7.75,5.75,5.25,4.5,2.25,3.25,-0.11,0.08,0.95,910.75,2.1,-5.0,0.5,0.0,0.0,0.5,0.5,1.0,0.0,0.0,0.25,0.0,0.0,0.0,0.0,0.14,4.83,-0.73,47.52,-1.7,46.9
1.02,2.5,1.75,4.75,5.0,5.75,7.25,3.25,7.5,5.75,5.0,4.0,2.25,2.5,-0.11,0.08,0.95,879.4,2.5,-1.1,0.75,0.0,0.0,1.0,0.5,1.25,0.0,0.0,0.0,1.5,0.0,0.25,0.25,-2.86,6.89,-1.61,60.57,2.0,5.7
1.04,2.5,1.25,4.75,5.75,7.0,7.25,3.25,7.5,5.75,5.0,4.25,2.25,2.5,-0.11,0.08,0.95,868.33,2.5,-0.2,1.5,0.0,0.0,1.75,0.5,2.75,0.0,0.25,0.5,3.0,0.0,1.5,1.25,-2.11,4.39,0.95,108.75,2.3,-15.3
1.06,3.0,1.25,4.75,5.75,7.75,7.25,3.25,7.5,5.75,5.0,4.0,2.25,2.5,-0.11,0.08,0.95,878.44,2.7,1.6,1.25,0.0,0.25,0.25,2.25,0.25,0.25,1.25,0.25,3.0,0.75,3.25,3.25,0.27,-0.05,2.39,168.91,1.7,-46.5
1.08,3.5,1.75,4.75,6.5,7.75,7.5,3.5,7.0,6.0,5.0,4.0,1.75,2.5,-0.11,0.08,0.95,910.64,3.3,5.1,1.75,1.25,0.0,2.0,0.0,2.75,0.0,2.5,2.0,7.5,3.25,5.75,6.75,0.58,1.02,4.64,292.57,2.7,-52.8
1.1,4.0,1.25,5.5,6.5,7.75,7.25,3.75,6.75,6.0,5.0,3.75,1.25,2.5,-0.11,0.08,0.95,944.06,4.1,7.2,2.25,1.25,0.0,2.0,3.5,5.0,0.0,5.5,4.0,8.0,7.0,7.0,8.0,0.02,0.45,1.14,505.52,2.6,-43.2
1.12,5.25,1.25,5.75,6.75,7.75,7.25,4.0,6.5,6.25,4.5,3.5,1.25,2.0,-0.11,0.08,0.95,971.87,5.3,11.4,3.25,1.75,1.5,2.0,3.25,5.0,0.25,6.0,4.75,8.0,6.75,7.0,8.0,-0.05,0.2,1.02,751.24,0.7,-36.9
1.14,6.0,1.75,6.25,8.0,7.75,7.25,4.5,6.0,6.0,4.0,3.0,1.5,2.25,-0.11,0.08,0.95,1004.01,6.5,15.5,2.0,1.75,0.0,2.75,3.25,5.0,1.0,6.0,4.75,8.0,6.75,7.0,8.0,0.08,0.14,0.95,931.59,2.0,-40.7
1.16,7.0,1.75,6.5,8.75,9.25,7.5,4.75,5.75,5.75,3.75,3.0,1.5,1.5,-0.11,0.08,0.95,1055.14,7.3,20.7,2.0,2.0,1.5,2.0,4.25,5.0,1.0,6.25,4.75,8.0,7.5,6.25,7.75,0.14,0.14,0.95,1039.42,1.2,-36.0
1.18,7.75,2.25,7.75,11.0,9.25,7.75,4.75,5.5,5.25,3.75,2.0,1.25,1.25,-0.11,0.08,0.95,1120.88,8.5,27.1,2.0,1.75,1.5,2.75,4.25,5.0,1.0,6.25,5.0,8.0,7.5,6.25,7.75,0.08,0.14,0.89,1084.96,0.9,-35.4
1.2,8.75,3.0,8.75,13.0,11.5,7.5,5.0,4.75,4.25,3.5,1.25,0.75,1.5,-0.11,0.14,0.95,1221.92,9.5,34.5,2.5,2.0,1.25,3.0,4.75,5.25,1.25,6.25,5.25,7.5,6.75,5.75,7.5,0.08,0.14,0.95,1089.76,0.7,-30.7
1.22,9.5,1.5,9.75,13.0,12.0,7.25,4.25,4.25,3.0,3.5,2.0,0.5,1.25,-0.11,0.14,1.02,1295.64,10.2,36.0,3.25,2.0,1.75,2.75,4.5,5.5,1.25,6.25,5.25,7.0,6.75,4.75,6.5,0.08,0.14,0.95,1069.05,0.0,-25.6
1.24,10.5,2.25,10.5,13.5,13.0,7.0,2.5,3.0,2.0,2.75,2.0,0.75,1.0,-0.11,0.14,1.14,1334.46,11.3,41.8,3.75,2.0,2.0,3.0,4.75,5.75,1.75,6.25,5.25,6.75,6.5,4.25,5.75,0.08,0.14,0.95,1037.11,-0.7,-20.7
1.26,11.5,2.25,10.5,13.0,12.0,5.25,1.0,3.0,1.25,3.0,2.0,0.5,1.25,-0.11,0.2,1.39,1326.01,12.3,43.1,5.0,2.25,2.75,3.25,5.25,6.0,1.5,6.25,5.75,6.0,5.5,3.5,5.0,0.08,0.14,0.95,1001.16,-2.1,-11.6
1.28,12.5,2.5,11.5,13.0,12.0,5.25,0.0,2.75,1.25,2.75,2.0,0.5,1.25,-0.23,0.27,1.52,1318.01,13.0,45.1,5.75,2.25,2.75,3.25,5.75,6.25,2.25,6.0,5.75,5.5,4.75,2.75,4.25,0.08,0.14,0.95,959.72,-2.8,-5.0
1.3,12.5,3.0,10.5,9.5,8.0,3.0,0.0,1.25,1.25,2.75,1.5,0.5,0.5,-0.3,0.33,1.52,1189.99,16.2,49.7,6.75,2.25,3.75,3.25,6.0,6.25,2.25,5.5,5.75,5.25,4.5,2.25,4.0,0.08,0.14,0.95,928.81,-4.1,0.4
1.32,10.5,1.75,10.5,5.75,8.25,2.0,0.0,1.0,1.0,2.5,1.75,0.5,0.5,-0.42,0.52,2.14,1010.66,16.5,47.0,8.0,2.25,3.0,3.25,6.75,6.25,2.5,5.75,5.75,4.5,4.5,2.25,3.0,0.08,0.14,0.95,895.06,-4.7,5.3
1.34,9.5,0.75,10.5,5.5,7.5,1.5,0.75,1.0,0.5,2.25,0.5,0.5,0.5,-0.92,0.89,2.52,815.99,17.6,49.7,8.75,2.25,3.0,5.0,6.75,6.25,2.25,5.5,6.25,4.5,3.5,2.25,2.75,0.08,0.14,0.95,892.7,-5.6,9.7
1.36,7.75,0.75,8.25,4.75,5.75,1.25,0.75,0.75,0.5,1.25,0.5,0.5,0.5,-1.05,0.89,2.77,624.79,18.2,50.7,9.5,2.25,3.75,5.25,7.0,6.25,2.5,5.0,6.0,4.0,3.25,1.75,2.5,0.08,0.14,0.95,908.76,-6.8,15.2
1.38,6.25,0.5,6.0,2.25,2.25,1.75,0.75,0.75,0.5,1.25,0.5,0.0,0.5,-0.8,0.64,2.83,427.55,18.4,48.0,10.5,2.75,5.25,5.5,7.5,6.25,3.0,4.75,5.75,3.5,3.25,1.25,2.5,0.08,0.14,0.95,949.69,-8.4,21.1
1.4,3.5,0.75,3.75,1.0,1.75,0.25,0.0,1.0,0.75,2.5,0.5,0.25,0.5,-0.61,-0.8,2.89,282.72,13.8,25.8,11.0,3.0,5.25,7.25,8.0,6.25,3.0,4.0,5.25,3.0,2.75,1.0,1.25,0.08,0.14,0.95,981.56,-9.7,29.6
1.42,2.75,1.0,2.5,1.0,1.75,0.0,0.0,1.0,0.75,0.0,0.5,0.5,0.5,-0.42,-0.86,1.58,172.17,16.6,37.2,12.0,3.0,5.5,7.25,8.5,6.25,3.0,3.5,4.75,3.0,2.5,0.75,1.75,0.08,0.14,0.95,1016.8,-10.1,32.0
1.44,2.5,1.0,2.0,0.0,1.75,0.5,0.0,1.0,1.0,0.0,0.5,0.5,0.5,-0.8,-1.11,1.64,79.49,13.4,31.2,13.0,3.5,6.75,9.0,9.0,6.25,3.0,3.25,4.25,2.75,2.5,0.75,1.0,0.08,0.14,0.95,1070.69,-11.6,37.9
1.46,1.75,0.5,2.75,0.0,2.25,0.0,0.0,1.0,0.75,0.25,0.5,0.25,0.0,-0.55,-0.98,0.77,24.13,15.4,36.1,13.5,3.75,7.25,9.75,9.5,6.0,2.5,2.0,3.0,2.75,2.25,0.75,1.5,0.08,0.2,0.95,1116.8,-12.3,41.4
1.48,1.25,0.5,1.75,0.0,0.5,0.0,0.0,1.0,0.25,0.5,0.5,0.5,0.0,-0.61,-0.8,0.02,0.0,15.0,18.9,14.0,3.75,7.75,10.5,10.5,0.0,2.25,2.0,2.25,2.75,1.5,0.75,1.25,0.08,0.2,0.95,1114.05,-15.9,46.3
1.5,1.0,0.75,1.5,0.0,1.25,0.0,0.0,1.0,0.5,0.75,0.5,0.5,0.0,-0.42,-0.67,0.27,0.0,10.5,16.9,16.0,0.0,8.75,12.5,11.0,0.0,1.25,1.75,1.75,2.75,0.25,0.75,1.75,0.08,0.2,1.02,1096.1,-16.8,47.6
1.52,1.5,0.75,1.25,0.0,1.75,0.25,0.0,1.0,0.5,1.75,0.5,0.5,0.0,-0.3,-0.61,0.64,0.0,6.7,12.8,16.5,5.0,9.25,12.0,11.0,5.0,0.5,1.75,1.5,2.25,0.75,0.75,2.0,0.02,0.2,1.08,1158.14,-14.1,50.7
1.54,1.75,0.75,1.25,0.5,1.75,0.25,0.0,1.0,0.5,0.5,0.5,0.0,0.0,-0.11,-0.55,1.02,22.7,11.1,36.8,14.0,4.0,9.5,12.5,12.0,5.0,0.0,1.75,1.0,1.5,0.75,0.25,2.0,0.02,0.27,1.08,1191.15,-13.5,51.8
1.56,1.25,0.75,1.5,0.0,1.75,0.25,0.0,1.0,0.25,1.25,0.5,0.0,0.0,-0.17,-0.48,1.02,50.86,7.9,25.4,16.0,4.0,9.25,12.5,10.5,4.0,0.0,0.25,1.0,1.0,0.25,0.5,1.25,-0.05,0.27,1.08,1198.06,-16.4,59.0
1.58,1.75,0.75,1.0,0.0,1.75,0.25,0.0,1.0,0.5,1.25,0.5,0.5,0.0,-0.17,-0.3,1.08,78.33,7.8,18.2,16.0,4.0,9.25,11.0,9.75,2.75,0.0,0.25,0.75,0.5,0.0,0.75,0.75,0.08,0.33,1.14,1138.14,-18.1,62.6
1.6,1.5,0.75,1.0,0.0,1.75,0.5,0.25,1.0,0.5,0.0,0.25,0.25,0.0,-0.11,-0.11,1.27,96.01,10.0,38.5,17.0,5.0,9.5,12.5,8.75,4.75,0.0,0.25,0.75,1.5,0.0,0.75,0.75,0.14,0.39,1.27,1122.89,-16.9,60.7
1.62,1.0,0.5,0.75,0.0,1.75,0.25,0.25,1.0,0.5,0.25,0.5,0.25,0.0,-0.11,0.02,1.39,104.44,7.5,23.8,15.5,2.75,10.5,9.0,8.0,3.0,0.0,0.25,0.25,0.75,0.0,0.0,1.25,0.14,0.45,1.39,1020.18,-19.0,62.8
1.64,1.0,0.75,1.0,0.0,1.75,0.25,0.5,1.0,0.5,0.5,0.5,0.5,0.0,-0.17,0.2,1.7,112.2,8.3,20.3,14.0,3.0,9.0,8.75,5.0,2.75,0.0,0.25,0.25,0.0,0.0,0.0,0.75,0.14,0.64,1.52,894.74,-20.7,67.2
1.66,1.0,0.5,1.0,0.0,1.75,0.0,0.25,1.0,0.5,0.0,0.5,0.5,0.0,-0.3,0.39,2.14,111.92,10.5,23.6,12.0,2.25,7.75,7.25,0.5,2.75,0.25,0.0,0.25,1.0,0.0,0.0,0.0,0.52,1.02,2.45,702.23,-23.4,68.0
1.68,1.0,0.5,1.0,0.0,1.75,0.25,0.0,1.0,0.5,0.0,0.5,0.5,0.0,-0.42,0.7,2.45,111.71,9.0,23.9,9.5,2.0,6.5,5.25,0.5,2.75,0.25,0.0,0.25,0.25,0.0,0.0,0.75,0.7,1.14,2.7,519.56,-22.3,65.3
1.7,1.0,0.75,1.25,0.0,1.75,0.5,0.0,1.0,0.5,0.5,0.5,0.75,0.0,-0.48,1.7,3.02,118.64,7.7,18.0,8.0,0.75,3.0,3.25,0.5,0.0,0.0,0.0,0.25,0.0,0.0,0.75,0.75,0.27,0.64,3.2,338.57,-26.0,61.3
1.72,0.75,0.5,0.0,0.0,1.75,0.75,0.25,1.0,0.5,0.5,0.5,0.25,0.0,-0.8,2.95,3.52,116.56,0.1,14.1,5.5,0.0,1.5,1.75,3.25,0.0,0.0,0.25,0.25,0.0,0.75,0.0,0.5,0.39,-0.98,2.58,229.69,-18.3,55.2
1.74,0.75,0.75,0.5,0.0,1.75,0.5,0.5,1.0,0.5,0.5,0.5,0.25,0.0,0.02,3.89,1.14,114.26,4.4,19.8,3.25,0.0,0.0,1.5,0.5,0.5,0.0,0.0,0.25,0.0,0.25,0.0,0.0,0.33,-0.73,2.39,102.27,-20.5,66.2
1.76,1.0,0.5,0.25,0.0,1.75,0.75,0.25,1.0,0.5,0.5,0.25,0.5,0.0,0.27,6.52,-0.11,110.48,2.5,17.2,2.0,0.0,0.5,0.75,0.25,0.5,0.0,0.0,0.25,0.0,0.0,0.0,0.0,0.89,-1.36,1.95,0.0,-21.5,67.4
1.78,0.75,0.75,0.25,0.0,1.75,0.75,0.25,1.0,0.25,2.75,0.0,0.0,0.5,2.14,7.33,-1.36,119.19,-4.2,-1.7,1.75,0.0,0.0,0.0,0.5,0.25,0.0,0.0,0.25,0.0,0.0,0.0,0.0,0.39,-1.17,0.95,0.0,-19.6,70.2
1.8,1.75,0.75,2.25,2.25,4.25,1.75,0.75,2.75,1.0,3.5,1.75,1.25,3.0,-0.98,-0.3,2.27,207.84,1.8,-6.2,1.25,0.0,0.0,0.0,0.25,0.5,0.0,0.0,0.25,0.0,0.0,0.0,0.0,0.2,-0.92,0.77,0.0,-14.7,62.6
1.82,1.0,0.5,2.5,0.0,3.5,1.0,0.25,3.0,0.5,2.75,0.5,1.5,4.5,0.52,1.02,1.02,258.09,-1.1,-22.7,0.75,0.0,0.0,0.5,0.0,0.5,0.0,0.0,0.25,0.0,0.0,0.0,0.0,0.08,-0.61,0.64,0.0,-13.2,54.2
1.84,0.0,0.0,0.25,0.0,0.0,1.75,0.25,4.5,1.25,6.5,1.75,3.0,5.0,-1.17,0.7,4.08,318.19,-8.8,-68.8,1.0,0.0,0.0,0.0,0.5,0.25,0.0,0.0,0.25,0.0,0.0,0.0,0.0,-0.11,-0.36,0.89,0.0,-14.2,60.5
1.86,0.75,0.75,0.0,1.0,1.75,4.0,0.75,6.0,3.0,7.5,4.5,5.0,6.25,0.14,0.7,1.83,429.39,-5.0,-49.9,0.75,0.0,0.0,0.0,0.5,0.5,0.0,0.0,0.25,0.0,0.0,0.0,0.0,-0.3,-0.23,0.95,0.0,-7.4,53.1
1.88,1.0,0.75,0.0,2.5,2.5,4.25,0.0,6.75,3.75,7.75,5.75,5.25,6.5,-0.05,0.2,1.02,578.49,-4.0,-44.9,0.5,0.0,0.0,0.0,0.0,0.5,0.0,0.0,0.25,0.0,0.0,0.0,0.0,-0.17,-0.11,0.95,0.0,-7.2,44.0
1.9,1.0,1.0,2.75,2.25,2.25,5.0,0.75,7.5,4.25,9.25,6.0,5.25,7.25,-0.11,0.08,0.95,746.15,-2.2,-39.9,0.5,0.0,0.0,0.0,0.5,0.25,0.0,0.0,0.25,0.0,0.0,0.0,0.0,-0.05,-0.05,1.14,0.0,-7.8,49.2
1.92,1.75,0.75,2.75,2.5,2.5,5.75,2.25,8.0,4.75,9.0,6.0,5.25,7.25,-0.11,0.08,0.95,891.75,-1.5,-36.0,1.25,0.0,0.25,0.0,1.0,0.0,0.0,0.0,0.25,0.0,0.0,0.0,0.0,-0.05,0.08,1.27,0.0,-17.6,64.4
1.94,1.0,0.25,2.5,2.5,4.25,6.0,1.75,8.0,5.0,8.0,5.25,3.5,6.5,-0.11,0.14,0.95,961.16,-2.6,-31.5,0.5,0.0,0.0,0.0,1.0,0.5,0.0,0.0,0.25,0.0,0.0,0.0,0.0,-0.05,0.2,1.52,6.31,-2.0,48.7
1.96,2.0,0.75,2.5,2.5,2.25,6.75,2.0,8.5,5.25,9.25,6.0,4.25,6.5,-0.11,0.08,0.95,998.98,-2.1,-33.3,0.5,0.0,0.0,0.0,0.5,0.5,0.0,0.0,0.25,0.0,0.0,0.0,0.0,0.08,0.33,1.95,19.22,-3.7,47.1
1.98,2.0,1.0,3.75,3.5,5.75,7.0,2.75,8.5,5.25,8.5,6.0,3.75,6.5,-0.11,0.08,0.95,1045.41,-0.7,-22.1,0.5,0.25,0.0,0.0,0.25,0.5,0.0,0.0,0.25,0.0,0.0,0.0,0.0,0.2,0.58,2.27,28.25,-6.2,53.8
2.0,2.0,1.25,3.5,4.5,2.25,7.25,2.75,8.5,5.25,7.75,5.25,3.0,5.75,-0.11,0.08,0.95,1039.92,-0.3,-21.9,0.5,0.0,0.0,0.0,0.0,0.5,0.0,0.0,0.25,0.5,0.0,0.0,0.0,0.33,0.95,2.58,28.38,-0.4,8.5
2.02,2.0,1.25,3.75,4.75,5.75,7.25,2.75,8.5,5.25,7.0,5.0,1.5,5.25,-0.11,0.08,0.95,1033.07,-0.3,-12.1,0.5,0.0,0.0,0.0,0.5,0.5,0.0,0.0,0.25,0.25,0.25,0.0,0.0,0.52,1.83,2.95,30.82,-2.3,20.4
2.04,2.25,1.25,4.0,4.75,4.75,7.25,3.25,8.25,5.0,6.25,4.25,1.75,4.5,-0.11,0.08,0.95,984.72,0.5,-9.7,1.75,0.5,0.25,1.0,1.5,2.75,0.25,0.25,0.25,2.25,0.75,0.75,0.5,0.58,2.89,2.64,89.15,0.0,7.0
2.06,2.0,1.75,4.0,4.75,6.0,7.5,3.25,8.0,5.0,5.75,4.0,1.25,3.5,-0.11,0.08,0.95,956.29,0.6,-3.6,1.75,0.5,0.0,0.25,1.0,2.75,0.25,0.25,0.25,0.75,0.75,0.0,0.5,0.27,4.08,0.7,122.16,0.3,21.9
2.08,2.75,1.5,4.25,4.75,7.75,7.75,3.25,8.0,5.0,5.0,3.5,1.25,2.75,-0.11,0.08,0.95,918.33,1.2,2.6,0.5,0.0,0.0,0.0,0.5,0.5,0.0,0.0,0.25,0.0,0.0,0.0,0.0,-1.3,6.33,-0.86,114.97,-3.7,47.1
2.1,2.75,1.75,4.75,5.75,7.75,8.0,3.0,8.0,5.0,5.0,3.0,2.0,2.5,-0.11,0.08,0.95,909.03,1.8,4.3,1.75,0.5,0.0,1.75,0.25,2.75,0.0,0.75,0.5,0.5,0.0,0.25,1.25,-3.05,4.52,0.2,131.11,-0.4,16.4
2.12,3.5,1.75,4.75,6.5,7.75,8.0,3.0,7.5,4.75,5.0,3.0,1.75,2.5,-0.11,0.08,0.95,919.46,2.5,7.1,1.75,0.5,0.0,0.75,0.0,2.75,0.0,0.5,0.75,3.25,0.5,1.75,2.5,0.77,-0.05,1.02,161.03,3.1,-30.9
2.14,4.0,2.0,4.75,6.5,8.75,8.0,3.25,7.5,4.75,5.0,3.0,1.25,2.5,-0.11,0.08,0.95,943.8,2.7,10.1,1.25,0.0,0.5,0.0,2.5,2.75,0.0,2.0,0.75,4.5,0.0,1.5,5.5,-0.3,0.89,-0.42,221.97,7.7,-39.0
2.16,5.25,2.25,4.75,6.75,9.25,8.25,3.25,7.0,4.75,4.75,2.75,1.75,2.25,-0.11,0.08,0.95,982.66,3.5,13.4,0.0,0.5,0.0,1.5,0.5,2.75,0.0,2.25,1.0,7.5,2.0,5.0,7.5,1.14,0.58,3.27,310.74,6.9,-64.3
2.18,6.25,2.25,5.0,8.25,9.25,8.25,3.75,6.75,4.75,4.25,2.5,1.0,2.5,-0.11,0.08,0.95,1029.47,4.7,18.2,2.0,1.5,0.0,1.5,2.25,4.75,0.25,5.75,2.75,8.25,5.0,6.5,8.5,0.14,0.77,2.14,498.58,4.0,-46.2
2.2,7.0,2.25,6.0,10.0,9.5,8.25,4.0,6.5,4.5,4.5,2.0,1.25,2.5,-0.11,0.08,0.95,1088.78,5.8,21.2,3.25,1.75,0.0,1.5,2.25,5.0,0.0,6.25,4.25,8.75,6.5,7.75,8.75,-0.11,0.27,1.08,718.58,2.4,-44.8
2.22,7.75,2.25,6.5,10.5,10.5,8.25,4.0,5.75,3.75,3.5,1.5,1.0,2.5,-0.11,0.14,0.95,1141.94,6.7,27.1,3.25,1.75,0.5,2.25,3.0,5.0,1.0,6.5,5.25,8.75,7.75,7.75,8.75,0.02,0.2,0.95,931.99,1.1,-41.1
2.24,9.0,2.25,7.75,12.5,11.5,8.25,4.0,5.0,3.0,4.0,1.75,0.75,2.0,-0.11,0.14,0.95,1227.42,8.1,32.0,3.25,1.75,1.5,2.5,3.5,5.0,1.0,6.5,5.25,8.75,7.75,7.25,8.75,0.08,0.14,0.95,1080.04,0.5,-37.6
2.26,9.5,2.25,8.75,14.0,12.0,8.25,3.25,4.75,2.0,3.75,1.5,0.5,1.75,-0.11,0.14,1.02,1295.38,8.9,36.5,3.25,1.75,0.75,2.0,3.5,5.0,1.25,6.5,5.25,8.5,7.5,7.0,8.75,0.08,0.14,0.95,1145.0,1.1,-38.9
2.28,11.0,2.25,9.0,13.5,12.0,8.0,2.0,3.75,1.5,2.75,2.0,1.0,1.5,-0.11,0.14,1.08,1330.05,10.1,39.6,3.25,1.5,2.0,2.5,3.5,5.0,1.0,6.5,5.25,8.0,6.75,6.25,8.25,0.14,0.14,0.95,1139.65,0.3,-34.4
2.3,11.5,2.25,10.0,14.5,12.0,7.5,0.75,3.0,1.25,3.0,2.0,0.75,1.25,-0.11,0.2,1.14,1344.56,11.1,42.5,3.5,2.0,1.75,2.5,2.5,5.0,1.25,6.5,5.25,8.0,6.75,5.75,8.0,0.14,0.14,0.95,1114.75,0.1,-33.8
2.32,12.5,4.0,10.0,13.5,12.5,5.25,0.0,1.0,0.5,2.75,2.0,0.5,0.5,-0.17,0.27,1.33,1325.43,13.4,51.1,3.75,2.0,2.25,2.75,4.25,5.25,1.25,6.5,5.25,7.5,6.5,5.5,7.5,0.14,0.14,0.95,1081.2,-0.3,-27.3
2.34,11.5,2.25,9.5,7.0,9.25,3.0,0.0,0.5,0.5,2.0,0.5,0.0,0.5,-0.3,0.39,1.45,1139.15,16.1,56.3,4.5,2.0,1.75,2.75,5.0,5.25,1.25,6.25,5.25,7.0,6.0,4.75,6.5,0.08,0.14,0.95,1022.06,-0.6,-22.0
2.36,10.5,2.0,9.25,6.75,7.25,2.5,0.75,0.5,0.5,2.0,0.25,0.0,0.5,-0.86,0.83,2.08,929.82,17.2,56.0,5.5,2.25,3.0,3.0,4.75,5.75,1.75,6.0,5.25,6.75,5.5,3.75,6.0,0.08,0.14,0.95,984.4,-2.1,-14.1
2.38,9.0,1.75,8.0,3.75,5.75,0.75,0.75,0.5,0.5,2.0,0.5,0.0,0.5,-0.86,0.95,2.89,691.18,18.7,53.9,5.5,2.25,3.25,3.0,5.25,5.75,1.75,5.75,5.5,5.75,5.0,3.5,5.5,0.08,0.14,0.95,937.07,-2.7,-10.2
2.4,7.75,0.75,5.25,1.25,3.5,1.0,0.5,0.5,0.5,1.5,0.5,0.0,0.5,-0.92,0.77,2.7,469.35,18.6,51.2,6.75,2.25,3.0,3.25,5.75,6.0,2.25,5.75,5.75,5.5,4.5,2.5,4.0,0.14,0.14,0.95,896.0,-3.7,-1.7
2.42,5.75,0.5,3.75,0.0,2.25,2.75,0.25,0.0,0.75,2.25,1.0,0.5,0.5,-0.67,0.7,3.2,310.9,12.9,32.9,7.5,2.25,3.5,3.25,5.75,6.0,2.75,5.75,5.75,4.75,4.25,2.25,3.75,0.14,0.14,0.95,863.56,-4.8,2.4
2.44,2.25,0.5,2.5,0.0,1.75,2.75,0.5,0.5,0.75,1.25,0.25,0.5,0.25,-0.55,-0.8,2.08,201.67,7.7,27.5,8.0,2.25,4.0,4.5,6.5,6.25,3.0,5.75,6.5,4.25,3.5,2.25,3.25,0.08,0.14,0.95,874.81,-5.8,7.9
2.46,0.75,0.5,0.0,0.0,2.5,1.0,0.0,1.0,0.5,0.25,0.0,0.0,0.0,-0.67,-0.61,0.77,81.68,-2.1,33.8,8.75,2.5,4.75,5.25,7.0,6.25,3.25,5.25,6.25,4.25,3.25,1.75,2.5,0.08,0.14,0.95,903.92,-7.0,14.6
2.48,1.25,0.75,1.25,0.0,1.75,1.75,0.25,0.5,0.25,1.5,1.25,0.5,0.5,-0.73,-0.86,1.83,10.43,3.5,8.0,9.5,2.25,5.5,5.75,7.5,6.25,3.5,4.75,6.0,3.5,3.25,1.25,2.5,0.14,0.14,0.95,944.38,-8.2,19.4
2.5,2.5,0.75,2.5,1.25,1.75,2.0,0.75,0.5,0.5,2.25,1.25,0.5,0.5,-0.42,-0.86,0.89,16.88,8.7,18.5,10.5,2.5,6.5,7.25,8.25,6.25,3.75,4.5,5.25,3.0,3.0,1.0,2.5,0.08,0.14,0.95,1002.47,-9.5,25.5
2.52,0.0,0.25,1.75,0.25,2.5,0.5,0.75,0.5,0.25,0.5,0.5,0.25,0.0,-0.48,-0.61,0.45,6.78,7.7,25.0,11.0,2.75,7.25,8.5,8.75,6.25,4.0,3.5,4.75,3.0,2.5,1.0,2.0,0.08,0.14,0.95,1059.1,-10.7,31.0
2.54,0.0,0.75,1.25,0.0,1.75,0.25,0.0,0.5,0.25,0.0,0.5,0.5,0.25,-0.42,-0.55,0.14,0.24,7.5,19.5,12.0,3.0,7.25,9.0,9.25,6.25,3.5,3.25,4.0,2.75,2.25,0.75,1.5,0.08,0.14,0.95,1104.22,-11.3,36.3
2.56,1.0,0.25,1.5,0.0,1.75,0.25,0.0,0.25,0.25,0.5,0.5,0.5,0.5,-0.36,-0.42,0.27,4.93,10.2,16.4,13.0,3.5,8.0,10.5,9.5,0.0,3.0,2.25,2.75,2.75,0.75,0.75,1.25,0.08,0.2,0.95,1088.72,-16.1,45.5
2.58,0.75,0.5,1.25,0.0,1.25,0.25,0.0,0.0,0.25,0.0,0.5,0.5,0.0,-0.23,-0.36,0.52,13.54,15.2,33.7,14.0,2.75,8.5,11.0,10.5,5.0,2.25,2.0,2.25,2.75,0.75,0.75,1.25,0.08,0.2,1.02,1114.25,-13.4,46.2
2.6,0.0,0.5,1.25,0.0,1.25,0.25,0.0,0.0,0.25,0.0,0.25,0.0,0.0,-0.17,-0.3,0.83,10.36,12.8,47.1,14.0,3.0,8.75,12.5,11.5,0.0,1.25,2.0,1.5,2.75,0.75,0.75,1.75,0.08,0.2,1.08,1109.23,-15.7,47.7
2.62,0.75,0.5,1.25,0.0,0.5,0.25,0.0,0.5,0.25,0.75,0.5,0.5,0.5,-0.17,-0.3,0.95,32.86,9.2,0.6,16.5,4.5,8.75,11.0,12.0,6.0,0.5,2.0,1.25,2.75,0.0,0.75,2.25,0.08,0.2,1.08,1184.67,-12.7,49.8
2.64,0.75,0.5,0.75,0.0,1.75,0.25,0.25,0.25,0.5,0.0,0.25,0.5,0.25,-0.17,-0.17,1.08,53.98,9.4,25.6,17.0,4.75,8.75,12.0,12.0,5.25,0.25,1.25,1.0,2.75,0.5,0.75,1.0,0.02,0.27,1.02,1238.03,-14.1,54.0
2.66,0.25,0.25,0.25,0.0,0.75,0.5,0.25,0.5,0.25,0.5,0.25,0.25,0.5,-0.17,-0.05,1.14,57.26,-0.8,-8.7,17.5,4.75,9.25,12.5,11.5,5.25,0.0,1.0,1.0,1.75,0.0,0.75,1.75,0.08,0.33,1.08,1290.6,-14.8,55.7
2.68,0.75,0.5,0.5,0.0,0.75,0.25,0.25,0.5,0.25,0.75,0.5,0.5,0.0,-0.17,0.08,1.27,65.66,7.1,5.9,17.5,3.25,9.25,12.5,11.5,5.5,0.25,0.5,1.0,1.5,1.0,0.75,2.0,0.14,0.33,1.2,1294.99,-14.9,53.3
2.7,1.0,0.5,0.75,0.0,1.75,0.25,0.25,0.0,0.25,0.75,0.0,0.25,0.25,-0.23,0.2,1.52,73.54,8.2,30.7,17.5,3.5,9.25,10.5,9.25,5.0,0.25,0.25,0.75,1.75,0.75,0.75,1.25,0.2,0.45,1.27,1240.27,-16.3,56.2
2.72,0.75,0.25,0.25,0.0,0.75,0.25,0.25,0.5,0.25,0.0,0.25,0.25,0.0,-0.23,0.33,1.77,62.54,8.8,25.3,14.0,3.75,9.25,9.0,6.75,4.0,0.0,0.25,0.75,2.25,0.0,0.5,0.75,0.14,0.58,1.45,1099.47,-17.0,57.4
2.74,1.0,0.5,0.0,0.0,1.25,0.25,0.25,0.0,0.25,0.25,0.25,0.25,0.5,-0.42,0.45,2.39,62.88,6.2,21.1,12.0,1.75,8.25,7.25,5.25,2.75,0.0,0.25,0.25,0.0,0.0,0.0,0.75,0.52,0.83,1.89,877.67,-19.9,65.1
2.76,1.0,0.25,1.0,0.0,0.75,0.25,0.5,0.0,0.25,0.0,0.0,0.25,0.25,-0.55,0.83,3.39,68.27,17.7,40.6,10.5,2.25,6.75,5.5,1.75,2.75,0.25,0.25,0.25,0.25,0.0,0.0,0.75,0.58,1.39,2.95,652.41,-21.2,65.0
2.78,1.0,0.5,0.25,0.0,1.25,0.5,0.25,0.0,0.25,1.0,0.0,0.0,0.5,-0.86,2.33,3.45,74.6,3.1,20.5,8.5,1.5,3.25,3.25,0.5,2.75,0.0,0.0,0.25,0.75,0.0,0.0,0.5,0.58,1.02,2.89,428.69,-19.4,63.4
2.8,0.75,0.25,0.25,0.0,0.5,0.5,0.0,0.0,0.25,0.75,0.0,0.0,0.5,-0.55,3.64,1.33,68.6,2.4,9.0,6.75,0.0,0.5,2.5,1.25,0.5,0.0,0.0,0.25,0.5,0.0,0.0,0.0,0.39,-0.11,3.33,267.08,-21.8,69.9
2.82,0.25,0.25,0.5,0.0,1.75,0.5,0.25,0.0,0.5,0.5,0.0,0.0,0.25,-0.8,4.95,-0.36,73.7,2.4,25.1,5.5,0.5,0.75,3.25,3.25,2.5,0.25,0.25,0.75,1.5,0.0,0.75,1.25,0.2,-0.67,1.83,190.29,-8.8,34.3
2.84,1.75,0.5,2.5,0.0,3.0,1.0,0.5,0.75,0.5,0.75,1.5,0.0,0.5,1.02,6.2,-1.55,118.59,9.5,24.1,3.25,0.5,1.75,1.75,3.0,0.5,0.0,0.25,0.75,1.25,0.5,0.75,1.25,0.77,-0.86,2.14,128.55,-10.7,23.5
2.86,1.0,0.0,0.75,0.0,1.25,1.5,0.25,0.5,0.5,2.0,0.25,0.25,0.5,1.89,2.33,1.45,134.07,-0.8,-2.7,3.25,1.25,1.25,1.75,3.25,1.25,0.0,0.25,0.5,1.25,0.75,0.75,1.25,0.77,-1.05,1.7,109.17,-8.3,26.2
2.88,1.0,0.25,1.0,0.0,0.75,0.75,0.0,1.0,0.5,2.25,1.25,0.0,2.0,-0.3,-0.11,0.2,156.46,-0.4,-27.2,2.5,0.5,1.5,1.0,3.5,1.75,0.0,0.0,0.5,1.25,0.5,0.75,0.0,0.39,-0.8,1.08,91.99,-7.9,33.6
2.9,0.25,0.25,0.25,0.0,1.25,1.0,0.0,0.5,0.5,1.25,0.5,1.75,3.25,0.7,0.2,-0.3,166.61,-4.7,-50.6,2.25,0.75,1.25,2.0,2.5,2.5,0.25,0.5,0.75,1.25,0.75,0.75,1.25,0.14,-0.55,0.52,106.95,-5.1,17.7
2.92,0.75,0.0,0.25,0.0,0.0,1.75,2.75,1.0,0.75,4.0,0.75,3.5,5.75,-0.05,0.39,1.77,217.26,-3.7,-64.6,2.0,0.75,0.75,1.75,3.0,2.25,0.25,0.25,0.5,1.5,0.75,0.75,0.5,-0.05,-0.3,0.27,114.64,-4.3,22.3
2.94,0.0,0.5,0.5,0.0,0.0,1.75,0.25,3.0,2.0,7.5,2.0,5.25,6.5,-1.05,0.64,3.39,293.51,-6.0,-71.1,2.0,1.25,0.75,0.75,1.5,2.5,0.0,0.25,0.5,1.5,0.75,0.75,0.25,-0.17,-0.17,0.45,127.66,-4.2,21.0
2.96,0.0,0.25,1.25,1.0,1.25,3.5,0.0,7.25,3.75,8.75,7.0,7.0,8.25,0.27,0.39,1.39,487.45,-4.1,-59.6,2.0,1.0,0.75,1.75,2.25,2.0,0.0,0.5,0.5,0.0,0.75,0.0,0.0,-0.23,-0.17,0.7,138.94,-7.9,46.8
2.98,0.75,0.0,1.25,2.25,2.25,4.25,0.5,7.75,4.75,8.75,7.5,7.0,8.25,-0.11,0.14,1.02,714.21,-2.9,-51.2,0.5,0.0,0.0,0.25,0.25,0.5,0.25,0.0,0.25,0.0,0.0,0.0,0.0,-0.11,-0.23,0.83,98.09,-8.6,46.4
3.0,1.0,0.5,1.0,2.25,5.75,4.5,0.5,7.75,5.0,8.75,7.25,7.0,8.25,-0.11,0.08,0.95,929.44,-2.9,-42.2,0.5,0.0,0.0,0.5,0.0,0.5,0.0,0.0,0.25,0.0,0.0,0.0,0.0,0.02,-0.17,0.89,55.5,-10.2,48.3
3.02,1.0,0.0,2.5,2.5,4.75,5.0,1.75,7.75,5.0,8.75,7.25,7.0,8.25,-0.11,0.08,0.95,1067.54,-1.7,-40.9,0.5,0.0,0.0,0.5,0.5,0.5,0.0,0.0,0.25,0.5,0.0,0.0,0.25,0.02,-0.05,1.02,22.49,-1.3,15.6
3.04,1.75,0.25,2.5,2.25,5.25,5.25,2.25,8.0,5.0,8.75,7.25,6.75,8.25,-0.11,0.08,0.95,1151.38,-1.4,-37.5,0.5,0.0,0.0,0.5,0.0,0.5,0.0,0.0,0.25,0.25,0.0,0.0,0.25,0.02,0.08,1.27,3.57,-4.5,15.9
3.06,1.75,0.5,2.5,2.25,5.75,5.0,1.5,8.25,5.0,9.0,7.0,6.25,7.75,-0.11,0.08,0.95,1171.11,-1.6,-35.6,0.5,0.0,0.0,0.5,0.25,0.25,0.0,0.0,0.25,0.0,0.0,0.0,0.5,0.02,0.2,1.52,0.0,-6.5,14.7
3.08,1.75,0.5,2.5,2.25,5.75,5.25,1.25,8.25,5.0,8.75,7.25,6.0,7.5,-0.11,0.08,0.95,1165.24,-1.7,-34.8,0.5,0.0,0.0,0.5,1.0,0.5,0.0,0.0,0.25,0.25,0.25,0.0,0.0,0.08,0.33,1.77,0.0,-3.6,31.9
3.1,2.0,0.5,2.75,2.5,5.75,5.25,1.75,8.0,5.25,8.75,6.75,5.75,7.25,-0.11,0.08,0.95,1151.13,-1.1,-32.3,0.5,0.0,0.0,0.5,0.25,0.25,0.0,0.0,0.25,0.0,0.0,0.0,0.0,0.2,0.58,2.08,0.0,-12.4,51.0
3.12,1.5,0.5,2.5,2.5,5.75,5.75,1.75,8.0,5.25,8.5,5.75,5.25,6.75,-0.11,0.08,0.95,1095.64,-1.9,-31.0,0.5,0.0,0.0,0.5,0.5,0.25,0.0,0.0,0.25,0.0,0.0,0.0,0.5,0.27,0.7,2.7,1.42,-5.4,19.0
3.14,1.75,0.5,2.75,2.5,5.75,5.75,2.25,8.0,5.25,7.5,5.75,4.0,6.25,-0.11,0.08,0.95,1016.42,-1.3,-26.7,0.5,0.0,0.0,0.5,0.25,0.25,0.25,0.0,0.0,0.0,0.0,0.0,0.25,0.45,1.33,3.08,1.1,-10.2,39.3
3.16,1.75,0.75,3.25,3.25,5.75,6.0,2.75,8.0,5.5,7.5,5.75,3.75,5.75,-0.11,0.08,0.95,949.23,-0.4,-22.7,0.5,0.0,0.0,0.25,0.5,0.5,0.0,0.0,0.25,0.0,0.0,0.0,0.0,0.58,2.08,2.39,9.09,-5.4,48.5
3.18,1.75,1.0,4.0,4.75,5.75,6.75,2.75,8.0,5.75,6.25,5.0,2.5,4.5,-0.11,0.08,0.95,897.53,0.6,-12.7,0.5,0.0,0.0,0.0,1.0,0.5,0.0,0.0,0.25,0.0,0.0,0.0,0.0,-0.05,2.77,0.89,18.12,-2.0,48.7
3.2,2.0,1.75,4.5,4.75,5.75,7.0,3.25,8.0,6.0,6.25,4.75,2.25,4.25,-0.11,0.08,0.95,877.3,1.3,-8.8,1.5,1.25,0.0,0.5,0.5,0.5,0.0,0.0,0.0,0.0,0.0,0.0,0.5,0.08,5.58,-1.48,43.83,-11.4,59.7
3.22,2.75,1.75,4.75,5.0,7.0,7.25,3.5,7.75,6.0,5.0,4.0,2.25,2.75,-0.11,0.08,0.95,881.81,2.5,-0.1,0.5,0.5,0.5,1.75,1.0,2.75,0.0,0.0,0.25,0.0,0.0,0.0,1.75,-4.3,7.95,-0.98,89.87,1.1,19.4
3.24,2.75,1.75,4.75,6.0,7.75,7.5,3.5,7.5,5.75,4.75,3.75,2.25,2.75,-0.11,0.08,0.95,901.57,2.6,2.6,1.75,1.5,0.75,2.0,0.25,2.75,0.0,0.25,0.75,2.75,0.25,0.75,2.5,-0.73,-2.67,3.83,153.76,-1.0,-2.6
3.26,3.5,2.0,5.0,6.75,7.75,7.75,3.75,7.0,5.5,4.75,3.5,1.5,2.5,-0.11,0.08,0.95,922.82,3.4,8.0,0.5,0.0,0.25,0.0,1.0,1.25,0.0,0.25,0.25,2.75,0.75,2.25,3.25,0.58,0.45,1.45,189.76,5.3,-57.9
3.28,4.0,2.0,5.75,7.75,8.0,8.0,4.0,6.75,5.5,4.75,3.25,2.0,2.25,-0.11,0.08,0.95,963.92,4.4,10.5,1.75,0.0,0.5,0.0,0.25,0.25,0.0,1.0,0.25,2.75,0.0,2.25,6.0,0.58,0.64,0.77,224.9,3.3,-64.0
3.3,5.25,2.0,5.75,8.25,9.25,8.0,4.0,6.25,5.0,3.5,2.75,1.25,2.0,-0.11,0.08,0.95,1001.22,5.4,18.7,2.25,1.0,0.0,1.75,2.25,2.75,0.0,2.0,1.5,6.75,2.5,5.75,8.0,0.52,0.45,2.95,323.08,2.9,-46.7
3.32,6.0,2.0,6.25,10.5,10.5,8.0,4.0,5.75,4.5,3.75,0.5,1.75,2.0,-0.11,0.08,0.95,1056.54,6.1,24.8,4.5,1.5,0.0,2.75,3.0,3.0,0.25,3.75,2.75,7.75,3.25,6.5,8.5,0.33,0.52,2.39,484.41,0.7,-36.2
3.34,7.0,2.0,6.5,12.5,11.5,8.25,3.75,5.75,3.5,2.75,2.0,1.25,1.75,-0.11,0.14,0.95,1127.63,7.0,29.2,5.25,1.5,0.25,2.75,3.25,3.0,0.0,4.75,3.5,8.0,5.25,6.75,9.0,0.02,0.2,1.02,690.69,0.0,-36.4
3.36,7.25,1.5,7.75,13.0,12.0,8.25,3.25,4.5,2.25,3.5,1.5,0.75,1.75,-0.11,0.14,0.95,1184.58,7.6,33.0,4.75,1.5,0.75,2.25,2.25,4.0,0.25,4.75,3.5,8.0,5.5,6.5,8.75,0.08,0.2,1.02,841.05,0.3,-37.6
3.38,8.75,1.75,8.25,13.0,12.0,8.0,1.25,4.0,2.0,3.0,2.0,0.75,1.75,-0.11,0.14,1.08,1223.9,8.6,35.7,4.5,1.5,0.0,3.0,1.25,4.0,0.25,5.75,4.0,8.0,5.75,6.5,8.75,0.08,0.14,0.89,935.49,0.8,-40.4
3.4,9.25,3.5,0.0,14.5,13.5,8.0,0.75,3.0,1.25,2.75,1.75,0.5,1.25,-0.11,0.2,1.08,1190.62,5.2,40.5,3.5,1.5,0.0,3.0,1.25,4.25,0.25,5.75,4.25,8.25,5.75,6.5,8.75,0.08,0.14,0.95,962.18,1.6,-42.7
3.42,10.5,0.0,10.0,14.5,14.0,7.5,0.5,2.75,1.25,2.75,2.25,0.75,1.5,-0.11,0.2,1.14,1223.68,10.3,40.0,3.5,1.5,0.25,3.0,1.75,4.25,0.25,5.75,4.25,8.0,5.5,6.25,8.75,0.08,0.14,0.95,963.47,1.4,-40.5
3.44,12.0,4.0,10.0,12.5,14.0,6.5,0.0,2.0,1.0,2.25,1.5,0.5,1.25,-0.05,0.27,1.14,1248.98,11.7,48.5,3.25,1.5,0.5,3.0,1.25,4.0,0.25,5.75,4.25,8.0,5.25,6.25,8.75,0.08,0.14,0.95,945.48,1.3,-41.9
3.46,12.5,3.5,10.5,11.5,13.5,5.5,0.0,0.5,0.25,2.25,1.5,0.5,1.0,-0.17,0.33,1.33,1253.78,13.3,52.2,3.5,1.5,0.5,3.0,1.25,4.5,0.25,5.75,4.25,8.0,5.25,6.25,8.75,0.08,0.14,0.95,923.71,1.4,-40.6
3.48,11.5,3.75,9.75,9.0,9.5,4.75,0.0,0.25,0.5,2.25,0.5,0.5,0.25,-0.3,0.39,1.45,1142.66,14.9,56.0,3.25,1.5,1.0,3.0,0.0,4.0,0.25,5.75,4.25,8.0,5.25,6.0,8.5,0.08,0.14,0.89,884.28,0.9,-42.9
3.5,11.0,3.75,9.75,8.0,8.75,4.0,0.0,0.5,0.5,2.0,0.0,0.0,0.5,-0.23,0.33,1.27,1006.63,15.5,58.2,3.25,1.5,0.5,3.0,0.0,4.5,0.25,5.75,4.25,8.0,5.25,5.75,8.25,0.08,0.14,0.89,844.24,1.5,-42.5
3.52,10.5,3.5,9.75,5.75,8.0,3.0,0.0,0.5,0.25,2.0,0.5,0.0,0.5,-0.42,0.64,1.77,847.32,16.3,57.3,3.25,1.75,0.25,3.0,1.25,5.0,0.5,5.75,4.75,8.0,5.25,5.75,8.25,0.08,0.14,0.89,808.72,1.6,-38.8
3.54,8.5,2.25,8.75,5.75,5.75,1.75,0.0,0.0,0.25,2.0,0.0,0.5,0.25,-0.92,1.14,2.45,680.49,18.2,56.6,3.25,1.75,0.5,3.0,1.5,5.0,0.75,6.25,4.75,7.25,5.0,4.75,7.75,0.08,0.14,0.89,762.14,1.4,-34.8
3.56,7.25,1.25,6.5,5.0,5.75,1.0,0.0,0.5,0.25,1.25,0.0,0.25,0.5,-1.11,1.08,3.02,523.82,17.3,55.4,3.75,1.5,0.5,3.25,2.75,5.75,0.75,6.5,5.25,6.75,4.5,3.5,6.5,0.14,0.14,0.95,733.79,1.3,-25.9
3.58,6.25,0.5,5.25,0.0,0.0,0.5,0.25,0.5,0.25,1.0,0.0,0.5,0.5,-0.73,0.89,3.52,338.35,25.6,50.0,5.5,1.75,1.0,3.25,4.75,6.25,0.0,6.5,5.25,5.5,3.25,2.25,5.5,0.14,0.14,0.95,723.96,0.1,-10.5
3.6,1.75,0.0,2.5,1.25,0.0,2.25,0.0,0.5,0.5,0.25,0.25,0.5,0.0,-0.48,-0.8,2.14,204.96,13.5,34.8,6.25,2.5,1.5,5.5,6.75,7.0,1.75,6.5,4.75,4.5,3.25,2.0,4.0,0.14,0.14,0.95,765.52,-2.1,4.2
3.62,3.0,0.5,2.5,2.25,2.25,1.75,0.5,1.25,0.5,1.25,0.75,0.5,0.0,-1.17,-1.61,3.14,124.63,10.7,32.4,8.0,3.25,4.0,9.0,9.0,7.25,1.5,5.75,2.75,4.0,1.75,1.0,3.0,0.14,0.2,1.02,852.77,-5.1,24.1
3.64,1.0,0.75,2.75,2.25,3.0,2.5,0.5,1.0,0.5,2.25,1.0,0.5,0.5,-0.42,-0.42,1.95,101.24,5.1,18.0,9.5,1.5,6.0,0.0,11.5,6.75,0.75,3.5,1.0,1.5,0.0,0.0,2.5,0.02,0.27,1.45,833.01,-6.2,39.1
3.66,0.0,0.5,2.75,0.0,2.25,1.25,0.75,1.0,0.25,0.25,0.0,0.0,0.0,-0.67,-0.11,0.83,60.02,8.1,38.4,10.0,3.0,6.0,9.75,12.5,7.0,0.0,1.5,0.75,0.0,0.75,0.5,1.25,-0.48,0.39,1.77,877.9,-10.2,52.1
3.68,0.5,0.5,1.75,0.0,0.0,0.75,0.25,0.5,0.25,0.0,0.0,0.0,0.0,-0.8,-0.23,0.39,15.35,17.0,47.0,12.5,4.0,6.0,9.75,11.0,6.5,0.0,0.5,1.0,0.0,0.5,0.25,2.25,0.58,0.45,2.02,901.63,-12.0,54.5
3.7,0.0,0.5,1.75,0.0,1.75,1.0,0.25,0.25,0.25,0.0,0.0,0.25,0.25,-0.67,-0.48,0.58,0.0,7.5,35.8,10.0,2.25,5.25,5.75,6.5,5.0,0.0,0.25,0.25,1.25,0.0,0.25,1.25,0.83,0.89,3.14,813.9,-12.8,54.4
3.72,0.75,0.5,1.5,0.0,1.75,0.25,0.0,0.5,0.25,0.0,0.0,0.5,0.25,-0.48,-0.61,1.08,0.0,11.2,33.4,8.75,2.0,2.0,3.25,0.5,3.0,0.0,0.25,0.25,1.25,0.0,0.0,1.25,1.08,3.7,5.39,603.68,-15.5,54.1
3.74,0.75,0.5,1.25,0.0,1.75,0.25,0.0,0.5,0.25,0.5,0.0,0.25,0.5,-0.3,-0.23,0.02,0.0,7.3,24.2,5.5,1.0,0.0,1.25,0.5,2.75,0.0,0.0,0.25,1.0,0.0,0.0,1.0,-1.3,0.77,4.33,377.23,-9.8,46.5
3.76,0.0,0.25,1.0,0.0,1.75,0.0,0.0,1.0,0.25,0.0,0.0,0.5,0.0,-0.23,0.33,-0.23,8.98,5.2,18.5,2.25,0.5,0.0,0.75,0.0,1.25,0.0,0.0,0.0,0.75,0.0,0.0,0.0,-0.3,0.08,1.39,206.74,-10.2,53.5
3.78,0.5,0.25,2.5,0.0,2.25,0.25,0.75,1.0,0.25,0.0,0.25,0.0,0.25,0.02,-0.17,0.39,48.16,12.2,35.2,1.5,0.5,0.0,0.0,0.0,2.0,0.0,0.5,0.25,0.25,0.0,0.0,1.0,-0.23,1.39,1.45,71.43,1.9,15.7
3.8,1.75,0.25,1.0,0.0,1.75,0.25,0.5,0.0,0.25,0.0,0.0,0.0,0.0,1.52,5.45,-1.3,63.56,17.3,63.8,1.0,0.0,0.0,0.5,2.25,1.5,0.25,0.25,0.25,0.5,0.0,0.0,0.5,-1.92,-0.11,0.39,0.0,1.6,28.0
3.82,2.0,0.25,1.0,0.0,1.75,0.25,0.0,0.0,0.5,0.0,0.0,0.0,0.25,1.2,6.77,0.45,83.28,15.9,55.1,1.0,0.0,0.0,0.5,0.5,2.0,0.0,0.25,0.25,0.0,0.25,0.0,0.0,-1.23,0.33,0.08,0.0,0.4,38.5
3.84,2.75,0.25,1.25,0.0,1.75,0.25,0.25,0.0,0.5,0.5,0.25,0.5,0.5,2.45,7.39,-0.92,97.84,15.1,33.0,0.75,0.0,0.5,0.5,1.25,1.75,0.0,0.25,0.25,0.0,0.0,0.0,0.0,-0.61,0.64,0.27,0.0,-1.7,45.8
3.86,2.25,0.5,1.75,0.0,1.75,0.75,0.75,0.0,0.5,1.25,0.0,0.25,0.0,2.08,4.39,0.08,113.89,13.2,38.7,1.25,0.0,0.25,0.5,0.5,1.5,0.0,0.5,0.25,0.75,0.0,0.0,0.0,-0.55,0.2,1.58,0.0,-1.5,28.3
3.88,2.25,0.25,1.25,0.25,1.75,0.25,0.5,0.0,0.5,0.0,0.0,0.5,0.0,5.83,-7.23,3.77,124.06,18.4,50.5,1.25,0.0,0.25,0.5,0.0,1.5,0.0,0.25,0.25,0.5,0.0,0.0,0.25,-0.92,-1.11,1.95,0.0,-3.1,26.6
3.9,1.75,0.0,1.75,1.75,1.75,1.75,1.25,0.5,1.0,0.75,0.5,0.0,0.5,0.08,0.52,-3.67,159.52,9.5,27.3,0.75,0.0,0.0,0.5,0.5,1.0,0.0,0.0,0.25,0.25,0.0,0.0,0.0,-0.61,-1.8,2.7,0.0,-2.7,41.1
3.92,0.0,0.25,1.0,0.0,0.0,0.5,0.75,0.5,0.5,1.0,0.25,0.5,0.5,0.14,0.95,0.39,143.0,4.7,-24.0,0.75,0.0,0.0,0.5,0.5,0.75,0.0,0.25,0.25,0.25,0.0,0.0,0.0,0.2,-2.3,3.2,0.0,-3.1,35.5
3.94,2.25,0.0,1.0,0.0,1.75,0.5,0.5,0.0,0.5,0.5,0.0,0.5,0.5,0.39,-0.36,0.64,137.83,12.5,29.4,0.5,0.0,0.0,0.0,1.0,0.5,0.0,0.75,0.0,0.0,0.5,0.75,1.25,0.2,-2.05,3.14,8.77,3.1,-30.8
3.96,1.75,0.25,0.75,0.0,1.75,0.25,0.75,0.5,0.25,0.75,0.25,0.25,0.5,-0.17,-0.3,0.14,125.77,9.0,21.9,2.0,1.25,0.0,0.0,0.5,2.5,0.0,0.25,0.25,2.0,0.0,0.0,1.25,3.83,2.33,-1.73,69.37,2.4,11.1
3.98,1.5,0.5,1.0,0.0,1.75,0.5,0.25,0.5,0.25,1.0,0.0,0.5,0.5,-0.17,-0.36,0.08,128.96,6.9,19.5,1.75,1.5,0.5,1.75,3.0,3.0,0.0,1.5,0.25,2.0,0.5,0.75,0.75,7.95,2.27,-3.86,152.46,0.0,17.6
4.0,1.75,0.0,0.25,0.0,1.75,0.25,0.25,0.5,0.25,0.75,0.25,0.0,0.25,0.33,0.08,0.95,117.94,6.4,26.0,0.5,1.5,0.0,1.5,1.0,3.25,0.0,0.25,0.25,1.5,0.0,0.75,0.0,3.7,-0.17,-2.23,182.76,2.7,22.9
4.02,1.25,0.0,0.75,0.0,1.75,0.25,0.5,0.5,0.25,1.0,0.25,0.25,0.5,0.02,0.58,1.33,114.67,5.9,10.8,0.5,0.5,0.25,0.0,1.25,0.5,0.0,0.5,0.0,0.25,0.0,0.0,1.0,-0.61,-2.61,-0.05,168.17,1.8,11.0
4.04,1.75,0.25,0.75,0.0,1.75,0.25,0.25,0.5,0.25,0.75,0.5,0.25,0.5,-0.42,1.08,1.14,114.55,8.3,18.7,0.5,0.5,0.0,0.5,0.0,0.25,0.25,0.25,0.25,0.0,0.0,0.0,0.0,-7.42,-3.98,4.14,122.91,-12.3,50.5
4.06,1.75,0.25,0.75,0.0,1.75,0.75,0.25,0.5,0.0,0.75,0.0,0.25,0.5,-0.61,2.27,0.89,113.27,6.1,27.6,0.5,0.5,0.0,0.25,1.75,0.25,0.0,0.0,0.25,0.5,0.25,0.0,0.0,-2.92,-2.8,1.77,92.64,-2.8,36.2
4.08,1.75,0.25,0.25,0.0,1.75,0.25,0.25,0.5,0.0,0.75,0.0,0.5,0.5,-0.42,2.95,0.02,109.24,5.7,19.6,0.5,0.5,0.0,0.5,1.0,0.5,0.0,0.25,0.25,0.75,0.0,0.0,0.0,-0.8,0.52,-1.05,70.73,-0.9,29.4
4.1,1.75,0.25,0.25,0.0,1.75,0.25,0.25,0.5,0.0,0.75,0.25,0.5,0.25,-0.36,3.7,-1.05,107.24,6.6,21.2,0.5,0.5,0.0,0.25,1.0,0.5,0.0,0.0,0.25,0.25,0.0,0.0,0.0,0.14,1.52,-2.86,63.52,-3.5,47.9
4.12,2.0,0.25,0.5,0.0,1.75,0.25,0.5,0.5,0.0,0.5,0.0,0.5,0.25,-0.17,3.2,-0.73,106.61,9.9,32.2,0.5,0.5,0.0,0.25,0.5,0.5,0.0,0.25,0.0,0.75,0.0,0.0,0.25,0.58,1.89,-3.11,59.91,1.3,18.1
4.14,1.75,0.0,0.25,0.0,1.25,0.25,0.25,0.5,0.0,0.0,0.25,0.5,0.0,-0.17,2.33,0.45,94.82,12.0,34.9,2.0,1.25,0.25,1.75,2.25,0.5,0.0,0.25,0.25,0.5,0.75,0.75,1.25,1.45,1.08,-1.92,99.48,-7.5,20.9
4.16,1.75,0.25,0.25,2.25,1.75,1.5,0.5,0.5,0.0,0.5,0.25,0.25,0.25,0.02,1.83,1.52,117.53,6.4,37.2,2.0,1.25,0.5,1.75,1.25,2.75,0.25,0.75,0.25,2.0,0.75,0.75,1.25,0.77,0.33,-0.23,147.86,-1.8,9.6
4.18,2.0,1.0,0.75,1.75,1.75,1.5,0.5,0.5,0.5,2.0,0.0,0.5,0.5,0.02,0.7,1.52,146.64,5.4,22.7,1.75,1.5,0.0,1.75,1.25,2.75,0.0,0.75,0.25,2.0,0.75,0.75,1.25,-0.11,0.45,0.45,187.71,0.0,7.9
4.2,1.75,0.25,0.25,0.0,1.75,0.25,0.5,0.0,0.25,0.0,0.0,0.5,0.5,-0.23,-0.98,0.64,143.33,11.2,34.4,2.0,1.5,0.25,1.75,1.25,2.75,0.25,1.25,0.25,2.0,0.75,0.25,1.25,-0.3,0.7,0.02,214.15,-0.5,12.6
4.22,1.5,0.0,0.75,0.0,1.75,0.25,0.5,0.0,0.25,0.0,0.25,0.25,0.5,0.33,-4.05,-1.55,132.25,12.6,33.0,1.75,1.5,0.5,1.75,1.75,2.75,0.25,0.75,0.25,2.5,0.75,0.75,1.25,0.08,1.14,-0.67,233.97,-0.8,8.7
4.24,1.75,0.25,1.0,0.0,1.75,0.5,0.5,0.0,0.25,0.0,0.0,0.5,0.25,0.7,-3.98,-1.11,118.63,14.1,43.0,1.75,1.5,0.5,1.75,1.5,2.75,0.25,1.0,0.25,2.25,0.75,0.75,1.25,0.64,0.95,-1.11,249.29,-0.8,8.5
4.26,1.25,0.0,1.25,0.25,1.75,0.25,0.75,0.0,0.25,0.75,0.5,0.5,0.5,0.83,-3.42,-0.86,113.96,11.2,15.3,1.75,1.5,1.0,1.75,1.75,2.75,0.0,0.75,0.25,2.25,0.75,0.75,1.25,0.7,0.89,-0.86,258.89,-2.0,11.5
4.28,1.75,0.0,1.25,0.0,1.75,0.25,0.5,0.0,0.25,0.5,0.25,0.5,0.25,0.27,-1.73,0.08,111.32,14.0,29.7,1.5,1.25,0.25,1.75,1.25,2.75,0.0,0.75,0.25,2.25,0.25,0.75,1.25,0.52,0.64,-0.8,253.33,0.7,7.1
4.3,1.0,0.25,0.5,0.0,1.75,0.25,0.5,0.0,0.25,0.0,0.0,0.5,0.5,0.08,-0.55,-0.17,106.89,9.4,27.5,0.5,0.5,0.5,0.5,0.5,2.75,0.25,0.5,0.0,0.5,0.75,0.5,1.25,0.02,0.39,-0.67,220.17,3.1,-3.0
4.32,0.25,0.0,0.75,0.0,1.75,0.25,0.5,0.0,0.0,0.0,0.25,0.0,0.5,0.08,0.52,-0.05,92.66,6.7,27.7,0.5,0.5,0.0,0.5,1.0,1.5,0.0,0.25,0.0,0.0,0.0,0.0,0.25,-0.17,0.39,-0.73,168.03,2.6,43.4
4.34,0.75,0.25,0.75,0.0,1.75,0.25,0.25,0.0,0.25,0.0,0.25,0.25,0.25,0.45,1.77,0.02,81.12,10.4,34.7,0.5,0.5,0.0,0.25,0.25,1.5,0.0,0.0,0.0,0.0,0.0,0.0,0.5,-0.11,0.45,-0.98,111.6,3.7,34.3
4.36,0.25,0.0,1.0,0.25,1.25,0.25,0.25,0.0,0.25,0.5,0.5,0.5,0.5,0.83,2.58,-0.36,75.24,7.8,-0.9,0.5,0.5,0.0,0.25,0.25,1.25,0.0,0.25,0.0,0.0,0.0,0.0,0.0,-0.05,0.45,-1.3,62.51,1.6,53.2
4.38,1.0,0.0,0.75,0.0,1.75,0.25,0.25,0.0,0.25,0.0,0.25,0.5,0.25,0.83,2.2,-0.11,74.78,11.3,27.6,0.5,0.5,0.0,0.5,0.25,1.25,0.0,0.0,0.0,0.25,0.0,0.0,0.0,-0.05,0.33,-1.3,29.34,0.0,50.8
4.4,1.0,0.25,0.75,0.0,1.75,0.25,0.5,0.0,0.0,0.0,0.5,0.5,0.5,0.83,1.39,0.27,76.55,10.6,23.3,0.5,0.5,0.0,0.5,0.0,2.75,0.0,0.0,0.25,1.75,0.0,0.75,0.0,-0.3,0.2,-1.11,36.2,6.6,-1.1
4.42,0.5,0.25,0.75,0.0,1.75,0.25,0.25,0.0,0.25,0.0,0.25,0.25,0.25,0.45,1.08,0.39,77.55,9.2,31.7,0.5,0.5,0.0,0.5,0.25,0.75,0.0,0.0,0.0,0.0,0.0,0.0,0.0,-0.48,0.14,-1.05,29.08,-5.8,66.5
4.44,1.0,0.25,0.5,0.0,1.75,0.25,0.5,0.0,0.25,0.0,0.25,0.5,0.25,0.33,1.02,0.27,84.29,10.6,29.4,0.5,0.5,0.25,0.5,0.5,0.25,0.25,0.0,0.0,0.0,0.0,0.0,0.0,-0.55,0.02,-0.92,24.65,-14.1,68.5
4.46,0.5,0.0,0.75,0.0,1.75,0.25,0.5,0.0,0.25,0.0,0.0,0.25,0.0,0.27,1.14,0.27,77.18,11.0,42.2,0.5,0.5,0.0,0.5,0.0,0.5,0.25,0.0,0.0,0.0,0.0,0.0,0.0,-0.55,0.02,-0.92,12.92,-11.8,69.7
4.48,0.25,0.0,0.5,0.0,1.75,0.75,0.25,0.0,0.25,0.0,0.0,0.25,0.5,0.39,1.08,0.14,73.65,1.5,20.9,0.5,0.5,0.0,0.5,0.25,0.25,0.25,0.0,0.0,0.25,0.0,0.0,0.0,-0.48,0.02,-0.92,11.85,-10.5,56.2
4.5,1.25,0.0,1.0,0.0,0.5,0.25,0.5,0.0,0.0,0.0,0.25,0.25,0.25,0.33,1.02,0.2,67.77,20.5,37.2,0.5,0.5,0.0,0.5,0.0,0.5,0.0,0.0,0.0,0.25,0.25,0.0,0.0,-0.3,0.14,-0.92,13.36,-7.9,42.9
4.52,0.75,0.0,0.25,0.0,1.75,0.25,0.25,0.0,0.0,0.25,0.25,0.0,0.5,0.27,0.89,0.33,67.86,4.0,25.3,0.5,0.5,0.0,0.25,0.5,0.5,0.25,0.0,0.0,0.0,0.0,0.0,0.0,-0.17,0.33,-0.98,23.9,-7.6,67.1
4.54,0.5,0.0,0.5,0.0,1.75,0.25,0.25,0.0,0.0,0.0,0.0,0.25,0.25,0.27,0.83,0.64,65.75,6.8,36.5,0.5,0.5,0.0,0.5,0.5,1.25,0.25,0.25,0.0,0.0,0.0,0.0,0.0,-0.11,0.45,-0.98,40.46,-0.7,52.7
4.56,0.75,0.25,0.25,0.0,1.75,0.0,0.25,0.0,0.0,0.25,0.5,0.25,0.5,0.14,0.52,0.7,68.89,6.4,16.9,0.25,0.5,0.0,0.5,0.25,1.25,0.25,0.25,0.0,0.0,0.0,0.0,0.0,-0.05,0.52,-0.98,47.93,1.4,49.3
4.58,0.25,0.0,1.0,0.0,0.0,0.25,0.25,0.0,0.0,0.0,0.0,0.25,0.5,0.08,0.27,0.58,56.66,17.3,5.5,0.5,0.5,0.5,0.5,0.0,1.25,0.0,0.0,0.0,0.0,0.0,0.0,0.5,-0.05,0.52,-0.98,55.16,-4.7,38.2
4.6,0.25,0.0,0.25,0.0,0.75,0.0,0.25,0.0,0.0,0.0,0.25,0.5,0.25,0.02,0.2,0.39,47.2,9.1,-5.1,0.5,0.5,0.0,0.5,0.0,1.25,0.0,0.0,0.0,0.75,0.0,0.0,0.25,-0.05,0.45,-0.98,57.63,2.8,22.2
4.62,1.25,0.0,0.25,0.0,0.75,0.25,0.25,0.0,0.0,0.0,0.0,0.5,0.25,-0.11,0.14,0.27,43.32,13.8,30.8,0.5,0.5,0.0,0.5,0.25,1.0,0.0,0.0,0.0,0.0,0.0,0.0,0.0,-0.11,0.39,-0.92,55.31,-3.3,63.7
4.64,0.5,0.0,0.25,0.0,0.0,0.0,0.25,0.0,0.0,0.0,0.25,0.5,0.5,2.33,0.14,-1.11,36.11,14.3,-30.8,0.5,0.5,0.0,0.5,0.25,1.25,0.0,0.0,0.0,0.5,0.0,0.0,0.0,-0.11,0.33,-0.92,55.24,1.1,41.7
4.66,0.0,0.25,0.5,0.0,0.0,0.5,0.25,0.0,0.25,0.5,0.5,0.5,0.25,0.2,1.08,0.14,38.34,5.1,-26.9,0.5,0.5,0.0,0.0,0.25,1.75,0.25,0.0,0.0,0.0,0.0,0.0,0.0,-0.11,0.33,-0.92,57.12,3.9,56.4
4.68,0.75,0.0,1.0,0.25,0.0,0.25,0.75,0.5,0.25,1.25,0.5,0.5,0.5,0.52,0.45,0.14,54.77,8.5,-17.5,0.5,0.5,0.0,0.5,0.25,1.25,0.0,0.0,0.0,0.0,0.0,0.0,0.0,-0.17,0.39,-0.92,56.2,-1.3,61.4
4.7,1.0,0.0,2.5,0.75,0.5,0.75,0.75,0.5,0.25,1.25,1.75,0.5,0.5,0.83,0.58,0.14,96.93,12.1,-0.3,0.5,0.5,0.0,0.25,0.25,1.25,0.0,0.0,0.0,0.5,0.0,0.0,0.0,-0.17,0.39,-0.92,55.61,2.6,40.3
4.72,0.0,0.0,2.5,0.0,0.75,0.25,0.75,0.75,0.25,0.5,1.5,0.5,0.75,0.7,0.7,0.27,118.59,11.3,-12.6,0.5,0.5,0.0,0.5,0.25,1.5,0.25,0.0,0.0,0.0,0.0,0.0,0.0,-0.17,0.39,-0.92,56.52,-0.7,58.2
4.74,0.25,0.25,0.25,1.5,0.0,1.75,0.25,0.25,0.5,2.25,0.0,0.5,0.5,0.7,0.58,0.2,133.86,-2.6,-11.7,0.5,0.5,0.0,0.5,0.25,1.0,0.25,0.0,0.0,0.25,0.0,0.0,0.0,-0.17,0.45,-0.92,55.53,-2.9,51.1
4.76,1.75,0.5,2.25,1.0,1.75,1.75,0.25,0.5,0.25,2.25,0.5,0.5,0.5,0.52,0.45,0.33,165.31,6.6,16.9,0.5,0.5,0.0,0.5,0.25,1.0,0.25,0.0,0.0,0.0,0.0,0.0,0.0,-0.17,0.39,-0.92,53.4,-4.6,62.2
4.78,1.75,0.75,2.5,1.75,1.75,1.75,0.75,0.75,0.5,2.25,1.75,0.5,0.5,-0.05,-0.17,0.7,205.29,8.0,12.7,0.5,0.5,0.0,0.5,0.25,1.25,0.25,0.0,0.0,0.0,0.0,0.0,0.0,-0.17,0.39,-0.92,52.27,-2.5,60.1
4.8,1.75,0.5,2.5,2.25,1.75,1.75,0.75,0.5,0.5,2.25,1.5,0.5,0.5,0.33,0.27,0.52,237.55,8.6,14.8,0.5,0.5,0.0,0.25,0.25,1.5,0.0,0.0,0.0,0.0,0.0,0.0,0.0,-0.23,0.33,-0.92,51.57,2.0,59.5
4.82,2.0,0.5,2.5,2.25,1.75,1.75,0.75,0.75,0.5,1.5,1.75,0.5,1.25,0.64,0.7,0.2,262.22,8.7,12.3,0.5,0.5,0.0,0.25,0.25,1.25,0.25,0.0,0.0,0.25,0.0,0.0,0.0,-0.23,0.33,-0.98,51.43,0.2,49.2
4.84,1.5,0.5,1.75,2.0,1.75,1.0,0.75,0.75,0.25,2.25,2.0,0.5,0.5,0.89,1.45,-0.36,264.28,7.6,6.7,0.0,0.5,0.0,0.5,0.25,1.0,0.0,0.0,0.0,0.0,0.0,0.0,0.0,-0.23,0.33,-0.98,47.39,3.1,56.7
4.86,2.5,0.5,2.25,1.75,1.75,2.0,0.25,0.5,0.25,2.25,1.5,0.5,0.5,0.39,1.02,0.14,263.55,8.1,17.1,0.25,0.5,0.0,0.5,0.25,1.25,0.25,0.0,0.0,0.25,0.0,0.0,0.0,-0.23,0.39,-0.98,48.58,1.3,46.3
4.88,3.5,0.25,2.25,1.0,2.25,1.5,0.25,0.5,0.25,2.0,1.75,0.5,0.5,0.33,0.45,0.7,260.17,10.0,19.3,0.5,0.5,0.0,0.5,0.25,1.25,0.25,0.0,0.0,0.0,0.0,0.0,0.0,-0.17,0.39,-0.98,48.86,-2.5,60.1
4.9,5.25,0.5,1.25,1.25,1.75,1.75,0.0,0.5,0.5,2.0,1.5,0.5,0.5,-0.05,0.58,0.83,261.56,10.7,25.6,0.5,0.5,0.5,0.5,0.25,0.75,0.25,0.0,0.0,0.0,0.0,0.0,0.0,-0.23,0.39,-0.92,51.93,-12.1,64.1
4.92,6.0,1.0,2.25,1.25,2.5,0.25,0.25,0.5,0.25,0.0,1.5,0.5,0.5,0.2,0.83,0.89,261.16,18.9,46.8,0.5,0.5,0.0,0.5,0.25,0.75,0.25,0.0,0.0,0.0,0.0,0.0,0.0,-0.17,0.39,-0.92,50.46,-7.0,64.7
4.94,5.75,0.0,1.25,0.0,1.75,0.75,0.0,0.5,0.0,0.5,0.0,0.5,0.5,0.14,0.64,1.02,239.21,17.1,49.8,0.5,0.5,0.25,0.5,0.5,1.25,0.25,0.0,0.0,0.0,0.0,0.0,0.0,-0.17,0.39,-0.92,54.85,-4.5,59.6
4.96,6.25,0.5,0.0,0.0,1.75,1.5,0.0,0.5,0.0,0.5,0.0,0.5,0.5,0.39,0.58,1.14,219.52,12.9,51.7,0.5,0.5,0.0,0.5,0.25,1.25,0.25,0.0,0.0,0.0,0.0,0.0,0.0,-0.23,0.33,-0.98,54.8,-2.5,60.1
4.98,6.0,0.25,0.0,0.0,1.75,1.0,0.0,0.5,0.0,0.5,0.5,0.5,0.5,0.45,0.64,1.14,193.49,13.8,45.0,0.5,0.5,0.0,0.5,0.25,1.25,0.0,0.0,0.0,0.0,0.0,0.0,0.0,-0.23,0.33,-0.92,55.28,-1.3,61.4
5.0,6.25,0.0,0.0,0.25,1.75,0.75,0.0,0.5,0.25,0.75,0.5,0.5,0.25,0.39,0.64,0.89,176.68,15.1,44.4,0.25,0.5,0.0,0.5,0.5,1.25,0.25,0.0,0.0,0.0,0.0,0.0,0.0,-0.23,0.33,-0.92,55.01,0.4,56.7
5.02,6.0,0.25,0.25,0.0,1.75,0.75,0.0,0.5,0.0,0.75,0.5,0.5,0.25,0.2,0.58,0.7,167.47,15.1,46.4,0.5,0.5,0.0,0.5,0.25,1.0,0.0,0.0,0.0,0.0,0.0,0.0,0.0,-0.17,0.39,-0.92,52.88,-3.3,63.7
5.04,6.0,0.25,0.0,0.0,1.75,0.5,0.0,0.5,0.0,0.5,0.5,0.25,0.25,0.08,0.64,0.58,162.73,16.3,53.0,0.5,0.5,0.0,0.5,0.0,0.75,0.0,0.0,0.0,0.0,0.0,0.0,0.0,-0.17,0.33,-0.98,47.71,-7.0,68.2
5.06,6.0,0.25,0.0,0.25,2.25,1.0,0.25,0.75,0.25,1.0,1.5,0.5,0.5,0.14,0.64,0.64,174.71,11.5,30.1,0.5,0.5,0.0,0.5,0.0,0.5,0.25,0.0,0.0,0.0,0.0,0.0,0.0,-0.17,0.33,-0.98,42.48,-11.8,69.7
5.08,6.0,0.0,0.0,0.0,1.75,0.5,0.0,0.5,0.25,0.0,0.25,0.5,0.5,0.2,0.64,0.64,168.77,17.1,50.9,0.5,0.5,0.0,0.5,0.25,0.75,0.25,0.0,0.0,0.0,0.0,0.0,0.0,-0.17,0.33,-0.98,41.74,-7.0,64.7
5.1,6.0,0.25,2.25,0.0,2.5,1.25,0.0,0.75,0.75,1.0,1.25,0.25,0.5,0.2,0.64,0.64,194.35,14.3,36.0,0.5,0.5,0.0,0.5,0.0,0.5,0.0,0.0,0.0,0.0,0.0,0.0,0.0,-0.17,0.33,-0.98,37.47,-10.6,72.3
5.12,6.0,0.25,0.5,1.5,2.5,1.0,0.25,0.5,0.5,0.0,1.5,0.0,0.5,0.27,0.58,0.64,206.53,15.1,45.8,0.5,0.5,0.0,0.5,0.0,0.5,0.25,0.0,0.0,0.0,0.0,0.0,0.0,-0.23,0.33,-0.98,36.26,-11.8,69.7
5.14,6.25,0.0,0.25,1.5,1.75,2.0,0.0,0.5,0.5,0.75,1.75,0.25,0.5,0.33,0.58,0.58,225.16,12.0,34.4,0.5,0.5,0.0,0.5,0.25,0.25,0.0,0.0,0.0,0.0,0.0,0.0,0.0,-0.3,0.33,-0.98,34.52,-12.5,74.1
5.16,4.5,0.25,0.25,0.0,1.75,0.0,0.0,0.25,0.0,0.25,0.25,0.0,0.25,0.27,0.58,0.52,199.12,18.6,62.7,0.5,0.5,0.0,0.5,0.25,0.5,0.0,0.0,0.0,0.0,0.0,0.0,0.0,-0.3,0.33,-0.98,35.28,-8.8,69.9
5.18,3.5,0.0,0.25,0.0,1.75,0.25,0.0,0.25,0.0,0.5,0.25,0.5,0.25,0.27,0.58,0.77,173.42,13.7,40.2,0.5,0.5,0.0,0.5,0.25,2.75,0.0,0.0,0.25,2.5,0.0,0.75,0.0,-0.23,0.27,-0.98,63.84,7.3,-6.2
5.2,2.5,0.0,0.25,0.0,1.75,0.25,0.0,0.5,0.0,1.0,0.25,0.25,0.0,0.39,0.52,0.7,134.59,8.7,32.1,1.5,1.5,0.0,1.75,0.5,2.75,0.25,0.25,0.25,1.5,0.75,0.0,1.0,-0.17,0.33,-0.98,113.59,-0.9,18.4
5.22,1.75,0.25,0.25,0.0,1.75,0.25,0.0,0.0,0.0,0.0,0.25,0.5,0.5,0.27,0.52,0.7,105.97,10.2,33.2,0.5,0.5,0.0,0.5,0.25,1.25,0.0,0.0,0.0,0.0,0.0,0.0,0.0,-0.17,0.39,-0.98,112.97,-1.3,61.4
5.24,1.0,0.0,0.25,0.0,1.75,0.0,0.0,0.5,0.0,0.0,0.0,0.5,0.0,0.2,0.64,0.64,78.64,7.5,33.5,0.5,0.5,0.0,0.5,0.0,1.25,0.0,0.0,0.0,0.0,0.0,0.0,0.0,-0.17,0.39,-0.98,100.68,-1.8,62.2
5.26,0.75,0.25,0.25,0.0,1.75,0.0,0.0,0.25,0.0,0.0,0.0,0.0,0.25,0.33,0.58,0.7,59.45,6.1,48.0,0.5,0.5,0.0,0.5,0.25,1.25,0.0,0.0,0.0,0.0,0.0,0.0,0.0,-0.17,0.39,-0.98,77.79,-1.3,61.4
5.28,0.75,0.25,0.5,0.0,1.75,0.0,0.0,0.25,0.0,0.25,0.25,0.5,0.25,0.45,0.52,0.77,50.56,7.2,20.8,0.5,0.5,0.0,0.5,0.25,1.25,0.0,0.0,0.0,0.25,0.0,0.0,0.0,-0.23,0.39,-0.98,64.44,0.0,50.8
5.3,0.75,0.25,0.25,0.0,1.75,0.0,0.0,0.25,0.0,0.25,0.0,0.25,0.5,0.45,0.45,0.77,42.77,3.9,23.4,0.5,0.5,0.0,0.5,0.25,1.0,0.0,0.0,0.0,0.25,0.0,0.0,0.0,-0.23,0.39,-0.98,54.78,-1.7,52.1
5.32,1.0,0.0,0.25,0.0,1.75,0.25,0.0,0.25,0.0,0.75,0.0,0.5,0.25,0.39,0.58,0.83,48.11,2.9,14.2,0.5,0.5,0.0,0.5,0.25,1.5,0.0,0.0,0.0,0.0,0.0,0.0,0.25,-0.23,0.33,-1.05,57.42,1.4,46.8
5.34,1.75,0.5,0.25,1.25,1.75,1.75,0.25,0.25,0.5,1.75,0.0,0.0,0.25,0.45,0.64,0.83,78.5,2.5,27.3,0.5,0.5,0.0,0.5,0.0,1.5,0.0,0.0,0.0,0.0,0.0,0.0,0.25,-0.23,0.33,-1.05,56.73,1.2,46.2
5.36,1.75,0.5,2.5,1.0,2.5,1.5,0.75,0.75,0.25,2.25,1.5,0.5,0.5,0.52,0.77,0.7,141.44,7.3,13.1,1.25,1.25,0.25,1.5,0.5,2.75,0.25,0.25,0.0,1.75,0.75,0.75,1.25,-0.23,0.33,-1.05,100.15,-0.1,4.1
5.38,2.0,0.5,2.5,1.0,2.25,1.75,0.75,0.5,0.25,2.25,1.5,0.5,0.5,0.52,0.95,0.64,193.55,7.8,14.7,1.0,1.25,0.0,1.75,1.25,2.75,0.25,0.25,0.0,2.0,0.75,1.25,1.25,-0.23,0.27,-0.98,144.63,1.0,0.0
5.4,1.75,0.5,2.5,1.0,3.0,1.25,0.75,0.5,0.0,2.25,1.25,0.5,0.5,0.52,1.02,0.64,231.02,7.6,17.3,1.25,1.25,0.0,1.75,0.5,2.75,0.25,0.25,0.25,2.0,0.75,0.75,1.25,-0.23,0.27,-0.98,179.45,0.3,1.7
5.42,1.75,0.5,2.5,0.5,2.25,1.25,0.75,0.5,0.0,2.25,1.5,0.5,0.5,0.39,1.02,0.58,241.29,7.9,12.1,1.25,1.5,0.5,1.75,1.25,2.75,0.25,0.25,0.0,2.0,0.75,0.75,1.25,-0.23,0.33,-1.05,202.33,-0.8,9.5
5.44,1.0,0.5,2.5,1.0,1.75,1.75,0.75,0.5,0.0,1.25,1.75,0.75,0.5,0.27,1.08,0.39,238.94,8.1,11.1,0.5,0.5,0.5,0.5,1.25,1.5,0.0,0.0,0.0,0.0,0.0,0.0,0.0,-0.23,0.33,-0.98,178.72,-2.9,58.1
5.46,1.0,0.5,2.5,0.25,1.75,1.75,0.5,0.5,0.5,0.5,1.5,0.25,0.5,0.02,0.95,0.2,225.1,8.9,18.1,0.5,0.5,0.0,1.75,0.25,2.75,0.0,0.25,0.25,1.5,0.0,0.75,0.5,-0.3,0.33,-0.98,169.71,3.4,4.0
5.48,1.5,0.5,1.75,1.0,2.25,1.75,1.0,1.0,0.0,0.75,1.25,0.25,0.5,-0.11,0.77,0.33,219.46,6.9,22.4,0.5,0.5,0.0,1.75,0.5,2.75,0.0,0.0,0.0,1.5,0.0,1.0,0.0,-0.3,0.33,-0.98,149.77,2.5,11.7
5.5,1.25,0.0,1.75,0.25,2.25,1.5,0.75,0.5,0.0,0.5,0.75,0.5,0.5,0.14,0.7,0.27,201.42,7.1,20.6,0.5,0.5,0.0,0.5,0.5,1.5,0.0,0.0,0.0,0.0,0.0,0.0,0.0,-0.3,0.39,-0.98,122.54,0.7,58.9
5.52,1.0,0.0,1.75,0.0,2.25,1.0,0.75,0.5,0.0,0.25,0.5,0.0,0.5,0.27,0.64,0.2,177.63,8.2,29.9,0.5,0.25,0.0,0.5,0.0,1.5,0.0,0.0,0.0,0.0,0.0,0.0,0.0,-0.23,0.39,-0.92,89.16,1.4,56.2
5.54,0.25,0.0,0.25,0.0,1.75,0.25,0.25,0.5,0.0,0.0,0.0,0.5,0.25,0.33,0.58,0.2,131.72,0.5,13.5,0.5,0.25,0.0,0.5,0.25,1.75,0.0,0.0,0.0,0.0,0.0,0.0,0.0,-0.3,0.39,-0.92,64.95,3.1,54.3
5.56,1.0,0.0,0.25,0.0,1.75,0.0,0.0,0.5,0.0,0.5,0.0,0.0,0.0,0.45,0.45,0.2,91.15,4.6,37.5,0.5,0.25,0.0,0.5,0.25,1.75,0.0,0.0,0.0,0.0,0.0,0.0,0.0,-0.3,0.39,-0.92,45.92,3.1,54.3
5.58,0.5,0.0,0.25,0.0,1.75,0.25,0.25,0.25,0.0,0.0,0.25,0.5,0.25,0.45,0.39,0.27,55.39,3.9,16.1,0.5,0.25,0.0,0.5,0.0,1.5,0.0,0.0,0.0,0.0,0.0,0.0,0.0,-0.3,0.39,-0.98,29.98,1.4,56.2
5.6,0.25,0.0,0.0,0.0,1.75,0.5,0.25,0.25,0.0,0.0,0.0,0.5,0.25,0.52,0.39,0.39,36.54,-2.2,15.0,0.5,1.25,0.0,1.75,1.75,2.75,0.0,0.0,0.0,2.0,0.0,0.75,0.0,-0.3,0.39,-0.98,66.38,2.4,22.2
5.62,0.5,0.0,1.0,0.0,1.75,0.5,0.25,0.25,0.0,1.25,0.25,0.5,0.25,0.52,0.45,0.39,45.91,3.3,4.6,1.25,1.25,0.0,0.5,0.25,1.75,0.0,0.25,0.0,0.25,0.75,0.0,1.25,-0.36,0.33,-0.98,87.51,-1.2,16.0
5.64,0.5,0.0,0.25,0.0,1.75,0.5,0.25,0.25,0.0,0.75,0.0,0.5,0.0,0.52,0.52,0.39,50.32,0.2,14.0,1.25,1.5,0.0,1.75,1.75,2.75,0.25,0.25,0.0,2.0,0.75,0.75,1.25,-0.36,0.33,-0.86,142.58,0.6,9.4
5.66,0.75,0.0,0.25,0.0,1.75,0.5,0.25,0.5,0.0,0.0,0.0,0.0,0.0,0.45,0.58,0.33,53.29,3.0,47.2,1.0,1.25,0.0,1.75,1.0,2.75,0.25,0.25,0.0,2.0,0.75,0.75,1.25,-0.36,0.33,-0.86,171.04,1.3,3.0
5.68,0.25,0.0,0.25,0.0,1.75,1.0,0.25,0.5,0.0,0.0,0.25,0.5,0.0,0.39,0.7,0.27,54.59,-1.6,18.7,1.5,1.0,0.25,1.5,0.5,2.75,0.25,0.25,0.0,2.25,0.75,0.75,1.25,-0.36,0.39,-0.92,198.11,0.0,0.8
5.7,0.75,0.0,0.5,0.0,1.75,0.25,0.25,0.5,0.0,0.0,0.25,0.25,0.25,0.33,0.83,0.14,59.2,5.9,26.1,1.25,1.25,0.0,1.5,1.0,2.75,0.25,0.25,0.0,2.5,0.75,0.75,1.25,-0.36,0.39,-0.92,203.77,1.6,0.7
5.72,1.75,0.5,0.25,1.75,1.75,1.75,0.25,0.5,0.0,2.0,0.25,0.25,0.25,0.33,0.89,0.08,97.81,2.2,22.7,1.0,1.25,0.5,1.5,1.0,2.75,0.25,0.25,0.0,2.25,0.75,0.75,1.25,-0.36,0.39,-0.92,212.79,0.4,2.7
5.74,1.75,0.5,2.5,1.75,2.5,1.75,0.75,0.75,0.0,2.0,1.25,0.5,0.5,0.45,0.95,-0.11,160.59,7.5,19.0,1.25,1.25,0.0,1.75,1.75,2.75,0.25,0.25,0.0,1.5,0.75,0.75,1.25,-0.36,0.39,-0.92,218.62,0.3,10.8
5.76,1.0,0.0,2.5,0.25,2.25,0.0,0.75,0.5,0.0,0.5,1.75,0.5,0.5,0.27,0.83,-0.05,185.09,13.2,11.1,1.25,1.25,0.0,1.75,0.5,2.75,0.25,0.25,0.0,2.25,0.75,0.75,1.25,-0.36,0.39,-0.92,215.56,0.8,1.0
5.78,0.5,0.0,0.25,0.0,1.75,0.25,0.0,0.5,0.0,0.25,0.25,0.25,0.25,0.39,0.77,0.02,167.45,0.6,14.6,0.5,0.5,0.0,0.5,0.25,1.75,0.0,0.25,0.0,0.25,0.0,0.0,0.0,-0.36,0.39,-0.92,173.45,3.8,43.1
5.8,0.75,0.0,0.0,0.0,1.25,0.25,0.0,0.5,0.0,0.25,0.0,0.5,0.25,0.45,0.83,0.14,129.06,0.7,8.4,0.5,0.5,0.0,0.5,0.5,2.75,0.0,0.25,0.0,1.25,0.0,0.75,0.0,-0.3,0.39,-0.92,141.63,6.7,8.7
5.82,1.0,0.0,0.5,0.0,1.75,0.0,0.0,0.25,0.0,0.25,0.25,0.25,0.25,0.52,0.83,0.14,97.04,8.2,27.2,1.25,1.25,0.5,1.25,1.0,2.75,0.25,0.25,0.0,2.0,0.75,0.75,1.25,-0.3,0.39,-0.92,141.23,0.0,4.8
5.84,1.0,0.0,0.25,0.0,1.75,0.25,0.0,0.5,0.0,0.25,0.0,0.5,0.0,0.45,0.83,0.08,78.04,4.7,27.8,0.75,1.25,0.25,1.5,1.0,2.75,0.25,0.25,0.0,2.5,0.75,0.75,1.25,-0.36,0.39,-0.92,153.7,2.1,-1.5
5.86,0.75,0.0,0.25,0.25,1.75,0.5,0.0,0.25,0.0,0.25,0.5,0.5,0.25,0.45,0.83,0.08,76.56,3.5,13.9,0.75,1.25,0.0,1.25,2.25,2.75,0.0,0.25,0.0,2.25,0.75,0.75,1.25,-0.36,0.39,-0.92,177.04,3.4,3.0
5.88,1.0,0.0,0.25,0.0,1.75,0.25,0.0,0.5,0.0,0.25,0.25,0.5,0.25,0.39,0.83,0.02,79.5,4.1,16.1,0.75,1.25,0.0,1.25,0.5,2.75,0.25,0.25,0.0,2.25,0.75,0.75,1.25,-0.36,0.39,-0.92,180.3,3.1,-5.3
5.9,1.25,0.0,0.25,0.0,1.75,0.25,0.0,0.25,0.0,0.5,0.0,0.25,0.25,0.39,0.83,-0.05,77.02,5.1,29.0,0.75,1.25,0.25,1.25,0.5,2.75,0.25,0.25,0.0,2.25,0.75,0.75,1.25,-0.36,0.39,-0.92,182.12,2.2,-3.9
5.92,1.25,0.0,0.75,0.0,1.75,0.25,0.0,0.25,0.0,0.0,0.0,0.25,0.0,0.39,0.83,-0.11,71.16,11.9,51.2,1.0,1.25,0.5,1.25,1.0,2.75,0.25,0.25,0.0,2.5,0.75,0.75,1.25,-0.36,0.45,-0.92,182.61,1.1,0.2
5.94,1.5,0.0,0.25,0.0,1.75,0.25,0.0,0.25,0.0,0.0,0.0,0.5,0.25,0.39,0.83,-0.05,67.29,8.8,35.8,1.0,1.5,0.25,1.25,0.5,2.75,0.25,0.25,0.0,2.0,0.75,0.75,1.25,-0.36,0.39,-0.98,183.38,0.9,1.6
5.96,1.5,0.0,0.75,0.0,1.75,0.25,0.0,0.5,0.0,0.25,0.5,0.0,0.0,0.39,0.89,0.02,67.99,10.4,39.8,1.0,1.25,1.0,1.25,0.5,2.75,0.0,0.25,0.0,1.75,0.75,1.25,1.25,-0.42,0.45,-0.92,188.46,-1.4,0.1
5.98,1.75,0.0,0.25,0.0,1.75,0.25,0.0,0.5,0.0,0.25,0.25,0.5,0.0,0.39,0.83,0.02,75.31,8.8,32.0,1.0,1.25,0.25,0.75,0.5,3.0,0.25,0.25,0.0,2.0,0.75,0.75,1.25,-0.42,0.39,-0.92,186.55,2.4,-2.3
6.0,1.75,0.25,0.25,0.0,1.75,0.0,0.0,0.5,0.0,0.5,0.25,0.25,0.0,0.39,0.83,0.02,89.08,9.2,36.5,0.75,1.5,0.25,1.25,1.0,3.0,0.25,0.25,0.0,2.0,0.75,0.75,1.25,-0.42,0.45,-0.86,190.97,2.0,2.7
6.02,1.75,0.25,0.5,0.0,1.75,0.25,0.0,0.5,0.0,0.5,0.0,0.5,0.0,0.39,0.83,0.08,98.58,9.1,35.9,1.25,1.25,0.0,1.5,0.5,3.0,0.25,0.25,0.0,2.0,0.75,0.75,1.25,-0.42,0.45,-0.86,191.3,1.3,1.9
6.04,1.75,0.0,0.25,0.0,1.75,0.25,0.0,0.25,0.0,0.0,0.25,0.5,0.0,0.39,0.83,0.08,96.36,11.2,40.7,1.0,1.25,0.5,1.25,0.25,2.75,0.25,0.25,0.0,2.0,0.75,0.75,1.25,-0.42,0.52,-0.86,184.43,0.3,-0.4
6.06,1.75,0.0,0.5,0.0,1.75,0.25,0.0,0.25,0.0,0.75,0.25,0.5,0.0,0.39,0.83,0.08,97.45,9.0,27.4,0.75,1.5,0.0,1.5,1.75,2.75,0.25,0.25,0.0,1.5,0.75,0.75,1.25,-0.48,0.52,-0.8,182.87,1.6,8.5
6.08,1.75,0.0,0.0,0.0,0.0,0.25,0.0,0.0,0.0,0.5,0.0,0.5,0.25,0.39,0.83,0.02,81.74,14.3,15.1,1.0,1.25,0.0,1.25,0.5,2.75,0.25,0.25,0.0,2.0,0.75,1.0,1.25,-0.55,0.58,-0.8,180.84,1.8,-4.0
6.1,1.75,0.25,0.25,0.0,1.75,0.25,0.0,0.5,0.0,0.25,0.0,0.25,0.25,0.39,0.83,0.02,83.03,7.8,39.4,1.25,1.25,0.0,1.25,1.0,2.75,0.25,0.5,0.0,2.5,0.75,0.75,1.25,-0.55,0.58,-0.86,185.36,2.2,-1.1
6.12,1.75,0.25,0.25,0.0,1.75,0.25,0.0,0.25,0.0,0.0,0.25,0.25,0.0,0.45,0.83,0.08,81.01,11.4,50.9,0.75,1.5,0.5,1.25,1.0,3.0,0.25,0.5,0.0,2.5,0.75,0.75,1.5,-0.48,0.58,-0.8,192.4,2.3,-1.6
6.14,1.75,0.0,0.0,0.0,1.75,0.25,0.0,0.5,0.0,0.0,0.0,0.5,0.0,0.52,0.83,0.02,83.24,8.4,41.3,1.0,1.25,0.0,1.25,1.75,3.0,0.25,0.25,0.0,2.25,0.75,0.75,1.25,-0.42,0.58,-0.8,197.63,2.8,3.2
6.16,1.75,0.25,0.0,0.0,0.75,0.25,0.0,0.5,0.0,0.5,0.25,0.5,0.0,0.45,0.77,-0.05,80.13,9.0,23.2,1.0,1.25,0.25,1.25,1.25,2.75,0.25,0.5,0.0,1.75,0.75,1.0,1.25,-0.36,0.58,-0.8,197.54,1.1,1.7
6.18,1.75,0.0,0.25,0.0,1.75,0.25,0.0,0.25,0.0,0.0,0.25,0.5,0.25,0.45,0.77,-0.05,82.41,10.0,33.5,0.75,1.25,0.5,1.0,0.5,2.75,0.25,0.5,0.0,2.5,0.75,0.75,1.25,-0.36,0.58,-0.8,194.01,2.3,-5.9
6.2,1.75,0.25,0.25,0.0,1.75,0.25,0.0,0.25,0.0,0.5,0.0,0.25,0.25,0.45,0.83,0.02,84.55,7.9,37.8,0.5,1.25,0.25,1.25,1.25,3.0,0.25,0.5,0.0,2.5,0.75,0.75,1.25,-0.36,0.64,-0.8,192.85,3.8,-3.2
6.22,1.75,0.0,0.25,0.0,1.75,0.25,0.0,0.25,0.0,0.0,0.25,0.5,0.0,0.45,0.83,0.02,85.64,11.2,40.7,0.75,1.25,0.0,1.25,1.0,2.75,0.0,0.5,0.0,2.0,0.75,1.0,1.25,-0.36,0.64,-0.8,188.46,3.2,-4.2
6.24,2.0,0.25,0.5,0.0,0.5,0.25,0.0,0.5,0.0,0.0,0.25,0.25,0.25,0.52,0.83,0.08,84.13,15.7,39.4,0.75,1.5,0.25,1.0,0.5,3.0,0.0,0.25,0.0,1.75,0.75,1.0,1.25,-0.36,0.64,-0.73,183.16,2.2,-1.8
6.26,2.25,0.25,0.25,0.0,1.75,0.25,0.0,0.25,0.0,0.0,0.25,0.5,0.0,0.52,0.83,0.08,88.22,13.1,47.8,0.75,1.5,0.25,1.0,0.5,2.75,0.25,0.25,0.0,2.25,0.75,0.75,1.25,-0.36,0.7,-0.73,179.03,2.3,-3.0
6.28,2.25,0.25,1.0,0.0,1.75,0.25,0.0,0.25,0.0,0.0,0.0,0.5,0.25,0.52,0.77,-0.05,96.93,15.1,47.7,0.75,1.5,0.5,1.0,1.25,2.75,0.25,0.5,0.0,2.5,0.75,0.75,1.25,-0.36,0.7,-0.73,183.62,2.1,-0.2
6.3,2.25,0.25,0.25,0.0,0.75,0.25,0.0,0.5,0.0,0.0,0.25,0.25,0.25,0.45,0.83,-0.11,95.75,14.3,41.8,0.5,0.5,0.25,0.5,1.25,2.25,0.0,0.5,0.0,0.75,0.75,0.0,1.25,-0.3,0.77,-0.73,165.01,4.8,2.3
