time,left pressure 0[N/cm²],left pressure 1[N/cm²],left pressure 2[N/cm²],left pressure 3[N/cm²],left pressure 4[N/cm²],left pressure 5[N/cm²],left pressure 6[N/cm²],left pressure 7[N/cm²],left pressure 8[N/cm²],left pressure 9[N/cm²],left pressure 10[N/cm²],left pressure 11[N/cm²],left pressure 12[N/cm²],left acceleration X[g],left acceleration Y[g],left acceleration Z[g],left total force[N],left center of pressure X[mm],left center of pressure Y[mm],right pressure 0[N/cm²],right pressure 1[N/cm²],right pressure 2[N/cm²],right pressure 3[N/cm²],right pressure 4[N/cm²],right pressure 5[N/cm²],right pressure 6[N/cm²],right pressure 7[N/cm²],right pressure 8[N/cm²],right pressure 9[N/cm²],right pressure 10[N/cm²],right pressure 11[N/cm²],right pressure 12[N/cm²],right acceleration X[g],right acceleration Y[g],right acceleration Z[g],right total force[N],right center of pressure X[mm],right center of pressure Y[mm]
0.02,0.0,0.0,0.0,1.75,0.0,0.0,0.25,1.75,0.25,0.0,1.0,0.0,0.0,-0.17,-0.55,1.64,0.0,3.9,-8.3,1.5,1.0,5.5,3.25,7.25,6.75,5.0,5.0,0.5,1.5,2.0,0.25,1.5,0.14,0.14,0.95,768.72,-3.6,21.4
0.04,0.0,0.0,0.0,1.75,0.0,0.0,0.0,1.75,0.0,0.25,1.0,0.0,0.0,-0.36,-0.36,0.39,0.0,1.8,-11.1,1.5,1.0,4.25,4.5,7.0,6.75,4.5,4.0,0.5,0.75,0.5,0.25,0.75,0.08,0.08,1.02,677.0,-3.7,31.7
0.06,0.0,0.0,0.75,0.5,0.0,0.0,0.25,0.0,0.0,0.0,0.0,0.0,0.0,-0.48,-0.17,0.39,0.0,29.9,57.0,1.5,1.0,4.75,5.5,7.0,6.75,3.5,3.75,0.25,0.25,0.75,0.25,0.5,0.08,0.14,0.95,597.98,-4.8,35.9
0.08,1.0,0.0,0.75,1.75,0.0,0.0,0.25,0.0,0.25,0.5,1.0,0.5,0.0,-0.3,-0.17,0.95,0.0,18.3,12.4,1.75,1.0,5.5,5.5,6.25,6.75,3.75,3.25,0.25,0.25,0.5,0.25,0.5,0.08,0.14,0.95,540.85,-6.3,38.2
0.1,1.25,0.0,1.75,2.0,0.0,0.0,0.25,0.0,0.5,0.5,1.0,0.5,0.0,-0.11,-0.11,1.14,35.65,21.3,21.4,1.75,0.0,5.5,5.5,7.0,6.75,4.5,2.75,0.25,0.0,0.5,0.0,0.25,0.02,0.14,0.95,501.76,-6.8,40.9
0.12,0.25,0.0,1.5,0.5,0.0,0.0,0.25,0.0,0.25,0.75,1.25,0.75,0.0,-0.11,0.02,1.2,57.92,16.9,-16.5,2.5,0.0,5.5,5.75,7.25,6.75,4.5,2.25,0.25,0.0,0.25,0.25,0.25,0.02,0.2,0.89,484.61,-7.7,43.2
0.14,1.25,0.0,0.75,1.5,0.0,0.0,0.25,0.0,0.0,0.75,1.25,0.25,0.0,-0.23,0.27,1.27,78.14,17.9,13.7,3.5,1.0,6.75,5.75,7.5,6.0,5.0,2.25,0.0,0.0,0.5,0.25,0.5,0.02,0.2,0.89,496.17,-10.1,45.5
0.16,1.25,0.0,1.0,1.0,0.0,0.0,0.0,0.0,0.25,1.25,1.0,0.0,0.0,-0.3,0.39,1.39,90.75,16.1,10.6,3.5,1.75,7.0,7.5,8.25,6.75,5.75,2.0,0.25,0.5,0.5,0.25,0.25,0.02,0.2,0.89,538.97,-10.0,46.5
0.18,0.25,0.0,0.25,0.5,0.0,0.0,0.0,0.0,0.0,0.75,0.0,0.0,0.0,-0.3,0.58,1.83,71.65,8.6,6.9,5.25,2.0,8.0,9.25,8.5,6.75,6.25,0.75,0.0,1.5,0.0,0.75,0.0,0.02,0.2,0.89,613.94,-12.0,49.8
0.2,0.75,0.0,0.0,1.5,0.0,0.0,0.0,0.0,0.5,1.5,0.0,0.0,0.0,-0.36,0.77,2.95,68.3,7.9,6.3,4.75,1.75,8.75,9.75,9.0,0.0,7.25,2.25,0.0,0.0,1.0,0.0,1.25,0.02,0.2,0.95,662.62,-16.6,47.9
0.22,0.25,0.0,0.0,0.5,0.0,0.0,0.0,0.0,0.0,0.25,0.0,0.0,0.0,-0.36,1.33,2.95,47.4,13.1,34.0,5.25,2.0,8.75,11.0,9.5,6.75,7.0,0.75,0.0,0.0,0.5,0.25,0.5,0.02,0.27,1.02,748.41,-13.0,52.7
0.24,0.5,0.0,0.5,0.5,0.0,0.0,0.0,0.0,0.0,0.5,0.0,0.0,0.0,-0.3,2.08,2.58,39.77,18.5,34.7,5.5,2.0,9.5,11.5,9.0,6.25,7.75,0.25,0.0,0.0,0.5,0.0,0.0,0.02,0.27,1.08,810.39,-14.8,56.5
0.26,0.5,0.0,0.75,0.5,0.0,0.0,0.0,0.0,0.0,0.75,0.0,0.25,0.0,0.14,3.2,1.7,29.77,16.4,14.1,6.75,2.25,10.5,12.5,9.5,6.0,7.75,0.5,0.0,0.0,0.25,0.75,1.0,0.02,0.27,1.08,904.14,-14.9,52.5
0.28,1.0,0.25,1.25,1.25,0.0,0.0,0.0,0.0,0.25,0.5,1.0,0.25,0.5,0.39,3.95,-0.05,52.79,17.3,10.6,7.0,2.0,11.0,11.5,8.75,4.5,8.5,0.75,0.5,0.75,0.75,0.75,0.5,0.02,0.33,1.2,954.65,-16.2,50.2
0.3,0.5,0.0,1.0,1.75,0.0,0.0,0.0,0.0,0.0,0.75,1.25,0.0,0.75,0.83,4.52,-0.05,69.81,12.8,-2.9,8.0,2.75,11.0,12.5,8.5,3.0,8.75,0.75,0.5,1.5,1.0,0.75,1.5,0.02,0.39,1.33,1015.35,-16.6,47.1
0.32,0.0,0.0,0.75,0.75,0.0,0.0,0.0,0.0,0.0,0.75,0.0,0.75,0.0,1.08,4.89,-0.17,66.71,12.4,-15.0,8.0,2.5,9.75,9.25,7.0,2.0,8.0,0.75,0.5,1.5,1.25,0.75,1.25,0.14,0.58,1.64,978.32,-17.5,46.1
0.34,0.0,0.0,0.75,1.25,0.0,0.0,0.0,0.0,0.0,2.25,1.5,0.0,1.75,0.2,0.7,1.77,84.67,1.0,-46.7,8.25,1.75,9.25,5.5,6.25,1.25,7.25,0.5,0.25,0.0,0.75,0.5,1.5,0.27,0.95,2.64,865.67,-19.9,51.2
0.36,0.0,0.0,0.25,1.0,0.0,0.0,0.0,0.0,0.0,4.0,2.75,0.0,3.75,0.08,0.39,1.64,125.02,-4.9,-71.9,6.25,1.25,6.0,3.25,1.5,1.5,5.75,0.0,0.25,1.5,0.25,0.75,0.25,0.52,1.08,2.45,644.79,-21.5,48.3
0.38,0.25,0.0,0.75,1.0,0.0,0.0,0.0,0.25,0.75,6.25,4.0,3.0,4.5,-0.23,0.52,2.08,204.86,-1.5,-72.6,3.25,0.0,5.5,1.75,2.5,1.0,4.5,0.75,0.25,0.0,0.0,0.25,0.0,0.39,0.77,2.64,425.65,-21.7,52.2
0.4,0.0,0.0,0.0,1.0,0.0,0.0,0.25,2.25,0.5,5.5,5.0,3.5,5.0,-0.23,0.33,1.58,275.79,-3.6,-77.4,0.75,0.25,3.0,0.5,1.25,1.25,1.5,0.0,0.0,0.0,0.5,0.0,0.25,0.77,-0.23,2.45,252.94,-17.1,44.5
0.42,0.0,0.0,0.0,0.5,0.0,0.0,0.0,2.75,0.5,5.25,4.0,2.75,3.0,-0.17,0.14,0.95,313.75,-4.7,-76.1,0.5,0.25,2.5,0.5,1.0,1.25,0.0,0.0,0.0,1.5,0.5,0.75,0.0,0.58,-0.67,1.58,135.07,-9.5,14.5
0.44,0.0,0.0,0.75,0.5,0.0,0.0,0.25,3.5,0.75,6.75,5.25,0.0,3.0,-0.17,0.14,0.95,332.71,-4.8,-63.9,1.25,1.0,3.25,2.0,1.5,2.0,1.0,0.75,0.0,1.25,0.75,0.75,1.25,1.33,-0.8,2.27,92.0,-9.0,18.8
0.46,0.0,0.0,0.0,0.75,0.0,0.0,0.5,3.5,1.75,7.0,6.0,4.0,4.5,-0.11,0.08,0.95,372.97,-3.3,-74.5,1.25,1.0,3.25,2.0,1.5,2.0,1.0,0.75,0.0,0.0,0.75,0.75,1.5,0.45,-1.73,1.33,83.06,-10.6,24.2
0.48,0.0,0.0,0.0,2.0,0.0,0.0,0.5,4.75,1.75,6.75,5.75,2.75,4.0,-0.11,0.08,0.95,403.29,-3.3,-64.5,1.25,1.0,3.0,2.0,1.5,2.0,0.0,0.75,0.25,0.0,0.75,0.75,1.25,0.33,-0.55,1.33,96.16,-9.9,24.8
0.5,0.0,0.0,0.0,2.5,0.0,0.75,1.0,4.75,1.5,6.25,0.0,3.0,4.25,-0.11,0.08,0.95,406.48,-6.2,-56.3,1.5,1.0,3.0,2.0,1.25,2.0,0.25,0.75,0.25,0.0,0.5,0.75,1.5,0.33,-0.36,0.77,106.8,-10.3,24.7
0.52,0.0,0.0,0.0,2.5,0.0,2.0,1.0,5.0,0.0,6.0,0.0,2.5,3.75,-0.11,0.08,0.95,387.38,-8.5,-49.9,0.75,1.0,3.0,1.5,1.5,2.0,0.25,0.5,0.25,0.0,0.75,0.75,1.25,0.27,-0.23,0.64,116.53,-9.4,22.2
0.54,0.0,0.0,0.0,2.5,0.0,2.75,1.0,5.0,0.0,5.5,4.75,2.25,3.0,-0.11,0.08,0.95,379.85,-5.4,-49.3,0.75,1.0,3.0,1.75,1.5,2.0,0.25,0.75,0.25,1.0,0.75,0.75,1.25,0.14,-0.11,0.83,133.18,-7.5,15.4
0.56,0.0,0.0,0.25,2.5,0.0,3.0,1.0,5.0,0.25,4.5,3.5,2.0,2.5,-0.17,0.08,0.95,358.55,-5.3,-42.8,1.0,1.0,3.0,1.5,1.5,2.0,0.25,0.5,0.25,1.0,0.75,0.75,1.25,-0.05,-0.05,1.02,160.65,-8.1,16.8
0.58,0.0,0.25,0.0,3.0,0.0,3.75,1.0,4.75,0.0,3.75,2.75,1.25,1.75,-0.11,0.08,0.95,328.05,-6.0,-30.5,1.25,1.0,2.75,1.25,1.25,2.0,0.25,0.75,0.5,0.75,0.75,0.75,1.0,-0.05,0.08,1.08,186.16,-8.5,17.8
0.6,0.0,0.25,0.0,3.25,2.75,4.25,1.0,4.75,0.75,2.25,2.25,1.0,1.25,-0.11,0.08,0.95,310.68,-4.9,-10.8,0.75,1.0,3.0,1.75,1.5,2.0,0.25,0.75,0.25,1.0,0.75,0.75,1.25,0.02,0.2,1.2,208.06,-7.5,15.4
0.62,0.0,0.75,0.0,3.25,0.0,4.5,1.0,4.75,0.75,2.25,1.5,1.0,1.25,-0.11,0.08,0.95,286.71,-5.5,-15.2,1.25,1.0,3.0,0.5,1.5,2.0,0.0,0.75,0.25,1.5,0.75,0.75,1.5,0.08,0.27,1.52,217.98,-6.1,8.9
0.64,0.0,1.0,0.0,4.0,0.0,4.75,1.0,4.75,0.25,2.25,0.75,1.0,0.75,-0.11,0.08,0.95,273.41,-5.4,-5.1,0.75,1.0,3.0,1.25,1.5,2.0,0.0,0.5,0.25,0.0,0.75,0.75,1.25,0.08,0.39,1.83,216.25,-9.1,21.5
0.66,0.0,0.75,0.0,4.25,0.0,5.25,1.0,4.25,0.25,2.5,1.0,1.0,1.25,-0.11,0.08,1.02,267.07,-5.6,-8.1,0.5,1.0,3.0,1.0,1.25,2.0,0.25,0.75,0.25,0.0,0.5,0.75,1.25,0.14,0.52,2.2,203.14,-8.4,19.3
0.68,0.0,1.0,0.0,4.5,6.25,5.25,1.0,4.0,0.0,2.25,1.25,1.0,1.25,-0.17,0.14,0.95,292.37,-4.4,9.8,0.0,0.75,2.75,1.25,1.5,2.0,0.25,0.75,0.25,0.0,0.75,0.75,1.25,0.2,0.77,2.89,188.85,-6.6,13.6
0.7,2.75,1.0,0.0,5.25,6.5,5.75,1.0,3.5,0.0,2.25,0.5,1.0,1.25,-0.11,0.14,0.95,336.31,-1.0,21.9,1.0,0.75,2.75,0.5,1.25,2.0,0.25,0.75,0.25,0.5,0.75,0.75,1.25,0.33,1.45,3.39,184.51,-7.4,12.6
0.72,3.5,1.0,0.0,6.25,0.0,6.25,1.0,3.5,0.0,2.25,0.75,1.0,1.25,-0.17,0.14,0.95,362.89,0.9,15.5,0.5,1.0,2.25,1.0,1.5,1.75,0.25,0.75,0.0,1.25,0.75,0.75,1.25,0.27,2.2,2.58,183.86,-4.6,7.6
0.74,4.25,1.0,0.0,7.5,0.0,7.0,1.25,3.5,0.0,1.75,1.25,1.0,1.25,-0.17,0.14,0.95,389.12,2.5,20.0,0.75,0.5,2.75,0.75,1.25,2.0,0.0,0.75,0.25,1.0,0.5,0.75,1.5,-0.61,3.33,0.89,184.23,-5.4,5.9
0.76,4.25,1.0,0.0,8.0,0.0,7.0,1.5,3.5,0.0,2.5,0.5,0.75,1.25,-0.17,0.14,0.95,398.7,2.1,21.7,0.5,1.0,2.75,1.0,1.25,2.0,0.0,0.75,0.25,0.5,0.75,0.75,1.25,-1.92,4.2,0.02,185.66,-6.7,12.9
0.78,3.5,1.0,0.0,8.75,0.0,7.0,1.75,3.25,0.5,1.75,0.5,1.0,1.25,-0.17,0.2,1.02,406.98,2.7,21.8,1.0,1.0,2.5,1.0,1.5,2.0,0.0,0.75,0.0,1.5,1.0,0.75,1.25,-2.61,4.45,0.02,191.84,-5.2,8.9
0.8,0.0,1.25,0.0,9.0,0.0,7.5,1.75,2.0,0.5,2.25,0.5,0.5,0.25,-0.17,0.2,0.95,391.02,-0.5,22.4,0.5,0.5,2.0,0.5,1.25,0.5,0.0,0.0,0.0,0.0,0.25,0.75,0.5,-0.23,1.27,-0.48,165.8,-13.9,27.1
0.82,0.0,1.25,0.0,10.0,0.0,6.75,2.25,2.5,0.25,0.5,0.5,0.75,1.0,-0.17,0.2,1.02,378.18,1.4,24.4,0.75,1.0,0.5,0.5,0.0,2.0,0.0,0.25,0.25,5.25,2.5,3.5,3.5,0.2,-0.55,2.27,200.55,2.6,-54.2
0.84,0.0,1.25,0.0,10.5,0.0,0.0,2.75,2.0,0.0,0.25,0.75,1.0,1.0,-0.17,0.2,1.08,329.67,11.4,22.9,0.0,0.5,2.0,0.5,0.0,2.0,0.0,0.75,0.0,7.5,4.75,5.75,6.25,-0.36,0.45,1.39,273.36,2.2,-66.9
0.86,6.25,1.5,7.0,10.5,0.0,0.0,3.25,1.75,0.0,0.5,0.75,0.0,0.0,-0.23,0.27,1.2,354.22,23.5,55.8,0.5,1.0,1.75,1.25,1.5,2.75,0.0,2.25,0.0,8.5,7.0,5.5,7.0,-0.67,0.7,2.95,392.93,2.3,-54.1
0.88,7.0,1.25,7.0,10.0,0.0,0.0,3.5,1.75,0.0,0.5,1.25,0.0,0.0,-0.23,0.33,1.33,380.23,23.8,54.2,1.0,1.0,1.75,1.5,1.5,2.0,0.0,4.25,0.5,8.0,7.75,3.5,6.25,0.45,0.45,1.52,512.72,1.9,-48.3
0.9,7.5,1.0,6.75,8.75,0.0,0.0,3.5,1.75,0.0,0.25,0.5,0.0,0.0,-0.36,0.45,1.83,407.41,25.0,58.8,0.25,0.5,0.25,0.5,0.0,4.25,0.25,5.25,1.0,8.25,7.5,3.5,5.0,0.08,0.02,0.89,586.8,6.1,-58.3
0.92,7.75,0.0,6.25,6.25,0.0,0.0,2.75,1.5,0.0,0.0,0.5,1.0,0.0,-0.48,0.7,2.52,391.44,26.2,53.5,0.0,1.5,0.5,3.25,1.25,5.75,1.25,6.0,1.25,8.25,7.75,3.0,4.5,0.08,0.14,0.95,642.05,4.2,-37.8
0.94,7.25,0.0,4.25,4.25,0.0,0.0,2.0,1.75,0.0,0.0,0.5,0.75,0.0,-0.86,1.02,2.89,352.03,25.3,52.5,1.0,2.0,1.75,3.25,5.25,7.0,2.5,7.25,1.0,7.5,7.75,2.75,4.5,0.08,0.08,0.95,723.35,2.5,-20.4
0.96,5.5,0.0,2.5,2.5,0.0,0.0,0.75,1.75,0.0,0.25,0.25,0.5,0.0,-0.73,0.95,3.02,284.8,22.9,49.2,1.25,2.0,2.75,3.75,6.5,7.5,2.5,7.25,1.25,7.0,6.5,2.75,4.0,0.14,0.08,0.95,815.56,1.5,-12.6
0.98,0.0,0.0,2.5,2.0,0.0,0.0,0.0,1.75,0.0,0.0,0.0,0.0,0.0,-0.92,-0.3,2.7,200.81,16.3,32.7,1.25,2.0,3.25,4.5,7.0,8.0,2.5,7.25,1.0,6.0,5.0,2.25,3.0,0.14,0.08,0.95,882.75,1.1,-3.8
1.0,0.0,0.0,0.0,0.0,0.0,0.0,0.5,0.0,0.0,0.0,0.0,0.0,0.0,-0.48,-0.86,1.77,97.58,32.4,27.3,1.25,2.0,3.25,3.75,7.25,8.5,2.25,6.75,1.0,4.5,2.5,1.0,2.5,0.14,0.08,0.95,875.28,1.8,6.2
1.02,0.0,0.0,0.0,1.75,0.0,0.0,0.0,0.0,0.0,0.0,0.0,0.0,0.0,-0.61,-0.48,2.27,19.85,17.2,57.9,1.25,2.0,3.0,3.25,8.0,8.75,1.5,6.75,0.75,3.25,2.0,0.75,2.25,0.14,0.14,0.95,821.71,2.5,11.0
1.04,0.0,0.0,0.0,0.25,0.0,0.0,0.0,0.0,0.0,0.0,0.0,0.0,0.0,0.02,-1.92,0.77,0.0,17.2,57.9,0.0,1.0,1.75,3.25,7.75,8.75,1.0,6.25,0.5,1.5,0.5,0.0,1.0,0.14,0.14,0.95,693.88,5.7,19.5
1.06,0.25,0.0,0.0,2.5,0.0,0.0,0.0,0.0,0.0,0.5,0.75,0.25,0.0,-0.23,-0.48,0.95,0.0,12.8,12.6,1.25,1.25,0.5,3.25,7.0,9.25,0.5,6.0,0.0,1.25,1.5,0.0,1.25,0.14,0.14,0.95,577.06,6.1,18.8
1.08,0.5,0.0,0.0,2.5,0.0,0.0,0.0,0.0,0.0,0.75,0.75,0.0,0.0,-0.42,-0.42,0.27,0.0,12.5,18.8,0.5,0.5,0.5,3.75,7.0,9.0,0.0,5.25,0.0,2.0,1.75,0.25,1.5,0.08,0.14,0.95,487.49,7.0,12.1
1.1,1.0,0.0,0.0,0.5,0.0,0.0,0.25,0.0,0.0,0.5,0.75,0.0,0.0,-0.55,-0.23,0.33,0.0,16.2,11.5,0.0,1.0,0.5,2.25,7.25,9.25,0.0,5.25,0.0,1.0,0.5,0.0,0.5,0.08,0.14,0.95,419.33,9.1,22.7
1.12,0.0,0.0,1.5,2.0,0.0,0.0,0.0,0.0,0.0,1.25,0.5,0.5,0.25,-0.48,-0.23,0.7,0.0,13.3,0.2,0.0,0.75,0.5,2.0,7.25,9.25,0.0,4.75,0.0,0.75,0.5,0.75,0.75,0.08,0.14,0.89,377.62,9.0,18.9
1.14,0.0,0.0,0.25,2.0,0.0,0.0,0.25,0.0,0.0,1.0,0.75,0.25,0.0,-0.23,-0.17,0.95,13.24,9.9,-3.8,0.0,0.75,0.5,2.25,7.25,9.75,0.0,3.75,0.25,3.0,0.25,0.0,1.0,0.08,0.14,0.89,357.22,9.7,16.7
1.16,0.0,0.0,1.25,2.25,0.0,0.0,0.0,0.0,0.0,1.25,1.0,0.5,0.0,-0.23,0.02,1.14,45.08,13.3,-1.1,0.75,1.0,0.5,3.25,8.5,10.5,0.25,4.75,0.75,0.5,0.5,0.25,1.0,0.08,0.14,0.89,363.52,6.7,25.2
1.18,0.0,0.0,0.0,2.0,0.0,0.0,0.0,0.0,0.0,1.25,0.75,0.25,0.0,-0.3,0.14,1.2,58.3,6.1,-12.7,0.75,2.0,1.75,5.0,8.5,11.5,0.0,4.0,0.25,2.0,0.5,0.0,1.25,0.08,0.2,0.95,404.79,4.6,28.2
1.2,0.0,0.0,0.0,2.25,0.0,0.0,0.0,0.0,0.0,1.5,0.0,0.5,0.0,-0.36,0.39,1.33,72.5,4.9,-7.2,0.0,1.25,1.75,4.5,9.75,10.5,0.0,3.75,0.25,1.5,0.25,0.0,0.5,0.08,0.2,0.89,446.03,5.2,31.4
1.22,0.5,0.0,0.0,0.5,0.0,0.0,0.0,0.0,0.0,0.5,0.0,0.0,0.0,-0.3,0.45,1.77,61.56,11.7,25.6,0.25,1.25,2.75,5.5,9.5,11.0,0.0,3.75,0.0,0.0,0.75,0.0,0.5,0.08,0.2,0.95,490.28,2.8,36.7
1.24,1.25,0.0,0.0,0.5,0.0,0.0,0.0,0.0,0.0,0.5,0.0,0.0,0.0,-0.36,0.58,2.33,53.63,19.1,48.7,1.5,2.25,3.0,9.0,12.0,12.5,0.25,3.75,0.0,0.0,0.5,0.75,1.25,0.08,0.2,0.95,593.56,0.4,38.1
1.26,0.25,0.0,0.0,0.5,0.0,0.0,0.0,0.0,0.0,0.5,0.0,0.0,0.0,-0.36,0.7,2.64,34.28,7.4,12.2,1.75,2.25,3.5,9.75,12.5,12.5,1.5,3.5,0.25,1.5,1.0,0.75,1.25,0.02,0.2,0.95,720.0,-0.4,34.7
1.28,1.0,0.0,0.0,0.5,0.0,0.0,0.0,0.0,0.0,1.25,0.5,0.5,0.5,-0.42,1.02,3.2,39.33,5.8,-28.6,1.25,1.75,3.5,11.0,14.0,12.5,2.25,2.5,0.25,1.5,0.75,0.75,0.5,0.08,0.2,1.02,843.49,-1.0,38.6
1.3,0.75,0.0,0.0,1.75,0.0,0.0,0.0,0.0,0.0,1.25,0.75,0.0,0.5,-0.55,2.02,2.27,48.06,7.4,-6.1,3.0,2.75,6.25,12.5,14.0,11.5,4.0,2.5,0.25,1.5,1.5,0.75,1.25,0.08,0.27,1.02,988.93,-4.9,39.4
1.32,1.25,0.0,0.0,2.0,0.0,0.0,0.0,0.0,0.0,1.25,0.75,0.25,0.25,0.02,2.89,1.77,67.55,11.1,5.3,4.0,2.5,7.0,11.0,13.0,10.5,5.0,2.0,0.25,1.0,0.75,0.75,1.25,0.08,0.27,1.08,1070.77,-6.6,42.7
1.34,1.0,0.0,0.5,2.0,0.0,0.0,0.0,0.0,0.0,1.5,0.75,0.0,0.5,0.83,3.58,0.77,83.46,10.4,3.0,5.25,2.5,7.5,11.0,12.5,9.25,5.25,1.25,0.25,1.5,0.75,0.75,1.25,0.08,0.33,1.2,1115.33,-8.3,44.0
1.36,1.25,0.0,0.25,2.0,0.0,0.0,0.0,0.0,0.0,0.5,0.75,0.25,0.5,1.27,4.14,0.02,89.33,14.8,13.5,5.5,2.0,7.75,12.5,12.0,7.75,5.0,0.75,0.25,0.0,1.0,0.75,1.25,0.08,0.33,1.45,1099.9,-10.5,47.8
1.38,0.25,0.0,0.75,1.75,0.0,0.0,0.0,0.0,0.0,1.5,0.75,0.0,0.0,0.95,4.27,-0.17,90.47,10.5,1.5,6.75,2.25,7.0,9.0,9.75,7.25,4.5,0.75,0.25,1.5,0.75,0.75,1.25,0.33,0.58,2.08,1034.39,-10.3,45.2
1.4,0.25,0.0,0.0,1.25,0.0,0.0,0.25,0.0,0.0,1.5,1.25,1.75,0.5,0.2,-1.61,-0.67,96.46,4.9,-52.8,7.25,2.0,5.5,5.5,7.5,6.25,3.5,0.75,0.25,1.5,0.75,0.75,1.75,0.39,0.95,2.58,892.8,-10.0,41.8
1.42,0.0,0.0,0.5,0.5,0.0,0.0,0.0,0.0,0.0,1.5,0.75,3.25,1.5,0.08,-0.23,1.08,114.64,2.5,-78.4,5.75,1.25,3.25,3.25,6.0,6.0,2.25,0.75,0.25,1.5,1.25,0.75,1.5,0.58,0.95,2.83,709.38,-7.2,34.8
1.44,0.0,0.0,0.0,0.25,0.0,0.0,0.0,0.0,0.25,5.5,2.5,5.25,3.75,0.58,0.52,2.77,181.53,-3.3,-90.8,3.0,1.0,3.0,3.25,5.25,3.25,1.0,0.5,0.25,0.0,0.75,0.25,1.0,0.7,0.77,2.64,506.04,-8.9,43.1
1.46,0.0,0.0,0.25,0.5,0.0,0.0,0.0,0.0,0.0,5.75,5.25,4.75,5.25,-0.48,0.33,1.89,253.6,-2.2,-86.6,0.25,0.0,2.5,0.25,3.75,2.25,0.0,0.5,0.0,0.0,0.0,0.0,0.75,1.08,-0.42,2.45,302.41,-2.7,36.5
1.48,0.0,0.0,0.0,1.0,0.0,0.0,0.0,3.25,0.0,0.0,6.0,3.25,5.75,-0.8,0.52,2.77,294.8,-1.3,-78.3,0.25,0.5,1.75,0.5,1.25,2.75,0.0,0.0,0.0,1.5,0.25,0.75,0.25,0.83,-0.23,0.45,173.06,-1.0,14.0
1.5,0.0,0.0,0.0,2.0,0.0,0.0,0.0,3.0,0.0,6.25,5.75,0.0,4.0,-0.05,0.2,0.95,323.85,-5.1,-63.7,0.75,1.0,1.75,2.0,1.5,3.5,0.25,0.0,0.0,1.25,0.75,0.75,1.25,1.02,-0.86,1.7,97.87,-2.8,16.0
1.52,0.0,0.0,0.0,0.5,0.0,0.0,0.5,4.5,1.5,6.5,7.25,2.25,5.0,-0.11,0.14,0.95,367.6,-4.2,-73.3,0.75,1.0,1.75,1.75,1.5,3.5,0.25,0.75,0.0,1.25,0.75,0.75,1.25,0.39,-1.23,1.33,73.39,-1.6,12.6
1.54,0.0,0.0,0.0,2.5,0.0,0.0,1.0,4.75,0.75,7.0,7.5,2.5,4.5,-0.11,0.08,0.95,411.46,-2.7,-63.6,0.0,1.0,2.0,2.0,1.5,3.75,0.25,0.75,0.0,1.5,0.75,0.75,1.25,0.33,-0.36,0.89,79.07,-0.3,9.3
1.56,0.0,0.0,0.0,2.5,0.0,0.0,0.5,3.5,1.75,7.0,6.5,3.25,3.25,-0.11,0.08,0.95,443.05,-1.5,-63.3,0.0,0.75,2.0,0.25,1.75,1.5,0.25,0.0,0.0,0.0,0.0,0.0,0.25,0.52,-0.3,0.33,57.82,-7.8,50.4
1.58,0.0,0.0,0.0,2.75,0.0,1.0,1.0,4.75,1.0,6.25,6.75,0.25,3.75,-0.11,0.08,0.95,448.59,-3.8,-52.9,0.5,0.5,0.5,1.25,0.5,3.25,0.0,0.25,0.0,1.5,0.0,0.75,0.25,0.52,-0.23,0.52,46.9,3.4,11.5
1.6,0.0,0.0,0.0,1.25,0.0,1.0,1.25,4.5,2.0,5.25,5.75,2.75,2.5,-0.11,0.08,0.95,431.65,-2.5,-59.9,1.25,1.0,1.75,1.25,1.5,3.25,0.25,0.75,0.25,1.5,0.75,0.75,1.25,0.27,-0.17,0.83,73.19,-2.3,11.1
1.62,0.0,0.0,0.0,2.5,0.0,0.0,1.5,4.5,1.75,4.75,0.0,2.0,2.0,-0.11,0.08,0.95,367.93,-3.8,-47.5,0.75,1.0,1.75,1.5,1.5,3.25,0.0,0.75,0.25,1.5,0.75,0.75,1.25,0.14,-0.11,1.02,118.0,-1.4,9.1
1.64,0.0,0.0,1.25,2.75,0.0,0.0,1.5,3.75,1.5,4.0,0.0,1.25,1.75,-0.11,0.08,0.95,306.08,0.0,-33.4,0.5,1.25,1.75,1.25,1.25,3.0,0.0,0.75,0.25,1.5,0.5,0.75,1.25,0.2,0.08,0.95,159.18,-1.1,8.5
1.66,0.0,0.0,0.0,2.5,0.0,1.0,1.5,3.5,1.5,3.75,2.5,1.25,1.0,-0.11,0.08,0.95,265.75,-1.6,-39.8,1.25,1.0,1.75,0.75,1.5,3.0,0.0,0.75,0.25,1.5,0.75,0.75,1.25,0.27,0.27,1.02,190.4,-2.0,8.9
1.68,0.0,0.75,0.0,4.25,0.0,1.25,2.0,2.5,1.0,2.25,2.25,1.0,1.25,-0.11,0.08,0.95,235.82,2.2,-18.1,0.5,0.75,2.0,1.25,1.5,2.75,0.0,0.75,0.25,1.5,0.75,0.75,1.25,0.27,0.33,1.27,206.08,-1.8,5.2
1.7,0.0,0.75,0.0,4.5,0.0,1.0,1.75,2.75,0.25,2.25,1.75,1.0,1.25,-0.11,0.08,0.95,217.61,1.6,-15.7,0.5,1.0,1.75,1.0,1.5,2.5,0.0,0.75,0.25,1.5,0.75,0.75,1.25,0.2,0.39,1.64,208.88,-1.4,4.5
1.72,0.0,0.75,0.0,4.75,0.0,2.25,2.0,3.5,0.75,2.25,1.25,1.0,1.25,-0.11,0.14,0.95,219.8,-0.1,-11.3,0.5,1.0,1.75,0.5,1.5,2.5,0.0,0.75,0.25,1.5,0.75,0.75,1.25,0.27,0.45,2.08,202.04,-0.8,2.3
1.74,0.0,0.75,0.0,6.25,0.0,2.25,2.0,2.75,0.75,2.25,1.5,1.0,1.25,-0.11,0.14,0.95,225.61,1.9,-5.5,0.5,1.0,1.5,1.0,1.25,2.25,0.0,0.75,0.0,1.5,0.75,0.75,1.25,0.39,0.58,2.83,193.56,-1.0,2.5
1.76,3.25,1.0,0.0,7.25,0.0,2.25,2.5,2.75,0.75,2.25,1.5,1.0,1.25,-0.11,0.14,0.95,252.81,7.1,11.4,0.0,0.75,1.5,1.25,1.5,2.25,0.0,0.75,0.25,1.5,0.75,0.75,1.25,0.45,1.14,3.45,189.27,0.0,-1.4
1.78,3.5,1.0,0.0,7.75,0.0,2.5,2.5,3.0,0.75,2.25,1.5,1.0,1.25,-0.11,0.14,0.95,285.7,7.0,12.8,1.25,1.25,1.75,1.25,1.5,2.75,0.0,0.75,0.0,1.5,0.75,0.75,1.25,0.39,2.39,2.89,198.55,-2.9,12.6
1.8,4.5,1.0,0.0,8.0,0.0,3.75,3.25,3.0,0.75,2.25,1.5,1.0,1.25,-0.11,0.14,0.95,332.98,7.1,17.1,0.75,1.0,1.75,0.75,1.25,2.0,0.0,0.75,0.25,0.0,0.75,0.75,1.25,-0.11,3.2,0.89,193.92,-5.1,13.2
1.82,5.25,1.0,0.0,9.0,0.0,0.0,3.5,2.75,0.75,2.25,1.25,1.0,1.0,-0.11,0.14,0.95,358.63,12.9,21.3,1.0,1.0,1.75,1.0,1.5,2.25,0.25,0.75,0.0,0.0,0.5,0.25,1.5,-1.61,4.14,0.27,186.0,-4.7,22.8
1.84,0.0,1.0,0.0,9.5,0.0,0.0,3.75,2.75,0.5,2.25,1.25,0.0,1.0,-0.11,0.2,1.02,347.49,8.0,11.0,0.75,0.5,0.25,1.25,0.0,2.25,0.0,0.0,0.0,1.5,0.75,0.75,0.5,-2.61,4.77,-0.3,157.51,0.1,-2.7
1.86,0.0,1.25,0.0,10.5,0.0,0.0,4.25,2.0,0.5,0.5,1.25,0.25,1.25,-0.11,0.2,1.08,326.94,11.6,21.2,0.0,0.25,1.75,0.5,0.0,1.25,0.0,0.0,0.0,0.0,0.25,0.75,0.5,-1.73,7.14,-0.98,124.64,-10.7,9.3
1.88,6.0,1.25,0.0,11.0,0.0,0.0,4.5,1.75,0.5,0.0,1.25,0.0,1.0,-0.11,0.2,1.02,330.09,18.1,44.3,0.0,0.0,0.5,0.5,0.0,2.25,0.0,0.5,0.0,3.0,2.5,3.0,2.0,-0.17,0.14,2.14,139.26,3.6,-60.0
1.9,0.0,1.25,8.5,11.5,0.0,0.0,4.75,1.75,0.0,0.25,1.25,1.0,1.0,-0.11,0.2,0.89,360.51,20.5,34.4,0.0,1.25,0.5,0.0,0.0,2.25,0.0,0.75,0.0,7.0,3.25,4.75,4.75,0.64,0.52,1.14,211.3,5.1,-66.2
1.92,6.75,1.25,8.5,11.5,0.0,0.0,5.0,1.5,0.0,0.25,1.5,1.0,0.5,-0.17,0.27,1.14,432.71,23.8,47.5,0.0,0.25,0.25,0.0,0.0,2.0,0.0,2.25,0.25,8.5,6.75,4.75,6.0,-0.23,0.77,2.45,304.82,5.5,-75.3
1.94,7.0,1.0,9.25,11.5,0.0,0.0,5.5,1.75,0.0,0.75,1.0,1.0,0.0,-0.23,0.27,1.39,507.0,24.2,49.2,0.0,0.25,0.5,0.5,0.0,4.0,0.0,5.0,0.5,8.75,7.75,4.0,5.25,0.2,0.58,1.7,421.24,6.2,-62.3
1.96,6.75,0.0,8.75,10.5,0.0,0.0,5.5,1.75,0.0,0.5,0.75,1.0,0.0,-0.3,0.39,1.7,536.34,24.8,48.7,1.25,1.25,0.25,1.5,0.5,5.75,0.25,6.0,1.25,9.5,8.75,4.75,5.5,0.02,0.14,0.95,574.23,4.5,-48.0
1.98,7.25,0.0,7.75,6.75,0.0,0.0,5.0,0.0,0.0,0.5,0.5,0.25,0.0,-0.55,0.58,2.39,492.11,29.1,59.8,1.0,1.75,1.75,2.5,2.75,6.0,1.0,6.0,1.5,9.0,9.0,4.5,5.5,0.08,0.14,0.95,711.07,2.3,-35.3
2.0,6.5,0.0,6.25,4.5,0.0,0.0,3.5,0.0,0.0,0.0,0.75,1.0,0.0,-0.61,1.08,3.2,409.09,29.6,55.3,1.25,1.75,3.0,3.25,4.5,6.0,1.25,6.0,1.75,8.75,8.5,4.0,4.75,0.14,0.08,0.95,821.89,0.8,-25.4
2.02,4.75,0.0,4.25,3.5,0.0,0.0,2.0,0.0,0.0,0.5,0.5,0.5,0.0,-0.55,0.95,3.2,320.36,28.0,54.3,1.25,2.0,3.25,3.25,5.25,6.5,2.0,6.0,1.75,8.0,8.0,3.5,5.0,0.08,0.08,0.95,900.73,0.6,-20.9
2.04,0.0,0.0,3.25,2.5,0.0,0.0,0.5,0.0,0.0,0.0,1.0,0.0,0.0,-0.73,-0.36,2.77,230.53,26.6,40.3,2.0,2.0,3.25,3.25,5.25,6.75,2.5,6.0,1.5,7.5,6.75,3.0,4.25,0.14,0.08,0.95,938.19,0.2,-14.9
2.06,0.0,0.0,0.0,0.25,0.0,0.0,1.75,0.0,0.0,0.75,0.75,0.0,0.0,-0.42,-0.8,1.58,132.42,10.7,-28.4,1.75,2.0,3.25,3.25,6.0,7.25,2.5,6.0,1.5,6.25,6.75,2.5,3.5,0.14,0.08,0.95,934.97,0.1,-10.0
2.08,1.5,0.0,0.0,0.5,0.0,0.0,0.5,0.0,0.25,0.5,0.5,0.0,0.0,-0.67,-0.55,2.02,53.78,19.4,26.5,1.25,1.5,3.25,3.25,6.5,7.25,2.5,6.0,1.0,5.5,5.25,2.0,2.75,0.14,0.08,0.95,887.38,0.7,-5.5
2.1,1.25,0.0,2.25,2.0,0.0,0.0,0.0,0.0,1.5,1.25,1.25,0.0,0.0,-0.11,-2.48,1.45,30.44,18.6,14.0,0.75,2.25,3.25,3.25,7.0,7.75,1.75,6.0,1.0,4.25,3.25,1.25,2.25,0.14,0.08,0.95,813.23,1.5,4.2
2.12,0.0,0.0,0.0,0.25,0.0,0.0,0.25,0.0,0.0,1.25,2.0,0.0,0.0,-0.23,-0.67,1.45,0.0,2.7,-62.2,1.5,2.0,3.25,3.25,7.0,7.75,1.5,5.75,1.0,3.0,2.75,1.0,2.25,0.14,0.08,0.95,724.5,0.8,9.3
2.14,0.0,0.0,0.0,2.5,0.0,0.0,0.0,0.0,0.0,0.5,0.75,0.0,0.0,-0.42,-0.3,0.58,0.0,11.7,15.3,1.25,2.0,3.25,3.5,7.0,8.0,1.25,5.5,0.0,3.0,2.75,0.75,1.75,0.14,0.14,0.95,647.91,1.2,12.9
2.16,0.0,0.0,1.0,0.5,0.0,0.0,0.0,0.0,0.0,0.0,0.0,0.0,0.0,-0.48,-0.11,0.33,0.0,31.1,59.9,1.25,1.0,3.25,3.75,7.5,7.75,1.25,5.0,0.0,1.5,0.75,0.25,1.25,0.14,0.14,0.95,566.5,1.2,24.3
2.18,0.5,0.0,1.5,0.5,0.0,0.0,0.0,0.0,0.0,0.0,0.0,0.0,0.0,-0.36,-0.05,0.58,0.0,33.3,67.1,0.75,1.0,1.75,3.25,7.0,8.25,1.0,5.0,0.0,1.25,0.75,0.5,0.75,0.08,0.14,0.95,487.22,4.0,22.4
2.2,0.0,0.0,1.75,0.5,0.0,0.0,0.0,0.0,0.0,0.0,0.25,0.0,0.0,-0.05,-0.11,1.14,0.0,31.4,47.5,1.5,1.5,1.75,4.25,7.0,8.75,0.75,5.0,0.0,2.5,2.0,0.75,1.25,0.14,0.14,0.95,458.62,2.7,16.8
2.22,0.0,0.0,0.25,0.25,0.0,0.0,0.0,0.0,0.0,0.0,0.0,0.0,0.0,0.02,0.02,1.27,0.0,27.6,59.4,0.5,1.25,1.75,4.75,7.25,8.5,0.25,5.0,0.0,2.0,0.75,0.75,1.25,0.14,0.14,0.95,438.8,3.9,19.3
2.24,0.0,0.0,0.0,0.0,0.0,0.0,0.0,0.0,0.0,0.0,0.0,0.0,0.0,-0.11,0.27,1.33,0.0,0.0,0.0,0.75,1.25,2.0,3.25,7.75,8.75,0.25,5.0,0.75,1.5,1.75,0.25,1.75,0.08,0.14,0.95,443.96,3.8,16.6
2.26,0.0,0.0,1.0,0.25,0.0,0.0,0.0,0.0,0.0,0.0,0.0,0.0,0.0,-0.11,0.52,1.27,0.0,34.0,60.3,0.0,2.5,2.0,5.5,8.5,9.75,0.25,5.0,0.25,1.5,0.75,0.75,0.75,0.08,0.14,0.95,469.14,3.3,26.4
2.28,0.0,0.0,1.0,0.25,0.0,0.0,0.0,0.0,0.0,1.0,0.0,0.0,0.0,0.02,0.7,1.58,7.6,12.3,1.0,1.5,2.0,3.25,7.25,9.75,10.5,1.25,5.0,0.75,1.5,2.0,0.75,0.75,0.08,0.14,0.95,551.92,-0.1,27.6
2.3,1.25,0.0,1.25,2.25,0.0,0.0,0.0,0.0,0.0,1.0,1.0,0.0,0.5,0.08,0.77,2.2,46.71,16.2,17.0,3.0,1.75,3.25,8.5,9.5,10.5,1.25,4.75,0.5,1.25,0.5,0.25,1.25,0.08,0.14,0.95,630.53,-1.1,34.3
2.32,0.0,0.0,1.0,2.0,0.0,0.0,0.0,0.0,0.0,1.0,0.75,0.0,0.5,-0.11,1.02,2.89,66.32,11.2,-0.5,2.75,2.25,5.5,8.0,9.5,9.5,2.5,4.0,0.0,0.5,0.5,0.75,1.0,0.08,0.14,0.95,705.42,-4.2,38.7
2.34,0.0,0.0,1.5,2.25,0.0,0.0,0.0,0.0,0.0,0.75,0.75,0.25,0.5,0.02,2.2,2.33,86.68,14.8,5.7,3.0,2.0,6.75,8.75,11.0,9.25,3.5,4.25,0.0,0.25,0.75,0.25,0.5,0.08,0.14,1.02,775.48,-5.7,42.6
2.36,0.75,0.0,2.0,2.0,0.0,0.0,0.0,0.0,0.0,1.0,1.0,0.0,0.5,0.08,5.08,5.52,106.28,17.3,15.0,5.5,2.0,7.5,10.0,11.0,9.0,3.5,3.75,0.0,0.0,0.75,0.0,1.25,0.08,0.2,1.08,854.06,-7.8,45.4
2.38,1.25,0.0,1.5,2.25,0.0,0.0,0.0,0.0,0.0,1.0,0.75,0.0,0.5,0.95,3.45,0.45,118.67,17.1,21.6,5.5,2.0,8.25,11.5,11.0,0.0,3.75,2.5,0.0,0.0,0.5,0.25,0.25,0.08,0.2,1.08,856.8,-15.6,53.8
2.4,1.25,0.0,0.75,2.25,0.0,0.0,0.0,0.0,0.0,1.0,1.25,0.0,0.5,1.14,3.95,0.02,124.1,14.4,10.5,5.5,2.25,8.75,12.0,11.0,7.75,4.25,2.5,0.0,0.0,0.5,0.5,0.5,0.08,0.27,1.14,917.3,-10.6,49.9
2.42,0.0,0.0,1.5,2.25,0.0,0.0,0.0,0.0,0.0,0.75,0.0,0.0,0.5,0.77,4.14,-0.55,117.43,15.6,22.7,5.5,2.0,8.75,10.0,9.25,6.75,4.25,0.75,0.0,0.0,0.5,0.25,0.25,0.14,0.33,1.45,893.73,-12.7,54.4
2.44,0.25,0.0,0.25,0.5,0.0,0.0,0.0,0.0,0.0,0.75,0.0,0.75,0.0,0.45,-0.3,1.83,94.99,8.7,-27.7,5.5,2.0,8.5,7.75,8.25,5.75,4.0,1.0,0.0,1.0,1.5,0.25,1.25,0.14,0.33,1.7,855.36,-12.0,44.9
2.46,0.75,0.0,0.5,2.0,0.0,0.0,0.0,0.0,0.25,2.5,2.25,1.0,2.5,-0.42,0.45,1.95,119.76,3.4,-45.2,5.5,2.0,7.0,5.5,5.5,4.5,3.0,0.75,0.25,1.25,0.75,0.75,0.75,0.33,0.58,2.2,736.69,-13.1,44.9
2.48,0.0,0.0,0.0,0.0,0.0,0.0,0.0,0.0,0.5,3.5,3.0,1.0,2.0,-0.55,1.39,5.52,139.54,-3.7,-84.2,3.0,1.75,5.5,3.0,5.25,2.5,2.75,0.75,0.25,0.0,0.75,0.25,1.25,0.58,0.83,2.08,574.63,-12.9,43.8
2.5,0.0,0.0,0.0,0.5,0.0,0.0,0.0,0.0,0.5,4.0,3.25,1.0,2.0,-0.17,0.2,0.95,168.03,-2.9,-77.0,0.0,0.5,3.25,1.75,5.25,2.0,1.0,0.5,0.0,0.0,0.25,0.0,0.25,0.52,0.77,2.02,374.1,-7.2,46.1
2.52,0.0,0.0,0.0,0.5,0.0,0.0,0.0,0.5,0.75,4.75,3.5,1.0,1.75,-0.11,0.08,0.95,188.53,-3.4,-73.9,0.5,0.5,1.75,0.0,1.25,2.0,0.0,0.75,0.0,0.0,0.25,0.0,0.25,0.45,-0.05,1.83,224.58,-4.1,37.0
2.54,0.0,0.0,1.0,1.0,0.0,0.0,0.25,2.0,1.5,5.25,4.25,1.0,2.5,-0.17,0.14,0.95,226.79,-1.0,-59.4,0.25,0.0,0.75,0.5,1.25,2.0,0.0,0.0,0.0,0.0,0.0,0.0,0.25,0.39,-0.61,1.14,95.87,0.9,41.7
2.56,0.0,0.0,0.75,0.0,0.0,0.0,0.5,2.75,0.75,5.5,4.75,2.0,2.5,-0.11,0.08,0.95,259.12,-2.8,-70.2,0.0,0.0,0.5,0.5,1.25,2.25,0.0,0.0,0.0,0.0,0.25,0.0,0.25,0.45,0.14,0.95,0.0,5.0,32.3
2.58,0.0,0.0,0.75,2.5,0.0,0.0,0.5,3.5,0.0,6.5,5.5,2.5,3.0,-0.11,0.08,0.95,301.49,-1.6,-58.5,0.0,0.0,0.5,0.5,1.25,2.0,0.0,0.0,0.0,0.0,0.25,0.0,0.25,0.7,-0.17,1.14,0.0,4.1,32.2
2.6,0.0,0.0,1.0,1.0,0.0,0.0,0.75,3.75,0.0,6.5,5.75,2.5,3.75,-0.11,0.08,0.95,342.9,-2.7,-65.8,0.0,0.0,0.5,0.5,1.25,1.75,0.0,0.25,0.0,0.0,0.0,0.0,0.25,0.58,-0.61,1.2,0.0,4.6,33.9
2.62,0.0,0.0,0.0,2.5,0.0,0.0,1.0,4.0,0.75,6.25,6.0,2.5,3.25,-0.11,0.08,0.95,376.39,-2.2,-61.0,0.0,0.25,0.5,0.75,0.5,2.0,0.0,0.25,0.0,0.0,0.0,0.0,0.25,0.39,-0.61,1.14,0.0,3.6,35.2
2.64,0.0,0.0,0.0,2.5,0.0,1.0,1.25,4.5,0.75,6.25,5.75,2.5,0.0,-0.11,0.08,0.95,379.45,-1.6,-49.2,0.0,0.0,0.5,0.5,1.0,2.0,0.0,0.0,0.0,0.0,0.25,0.0,0.25,0.14,-0.23,1.02,0.0,4.1,30.8
2.66,0.0,0.0,0.0,2.5,0.0,0.0,1.25,4.5,1.5,5.5,5.25,2.5,3.75,-0.11,0.08,0.95,389.61,-2.1,-59.7,0.0,0.0,0.5,1.0,0.5,2.5,0.0,0.0,0.0,0.0,0.25,0.0,0.25,0.08,0.08,0.83,0.0,3.8,31.3
2.68,0.0,0.0,0.0,2.5,0.0,0.75,1.25,4.0,1.5,5.25,4.75,2.5,3.0,-0.11,0.08,0.95,382.31,-2.1,-55.4,1.25,1.0,0.5,2.0,0.0,2.5,4.0,0.75,0.0,1.25,1.25,0.75,1.25,-3.05,6.77,-7.67,41.21,-6.1,4.4
2.7,0.0,0.0,0.0,2.5,0.0,1.0,1.5,4.5,1.5,5.25,3.75,2.0,2.5,-0.11,0.08,0.95,366.74,-3.0,-50.6,1.0,1.25,1.75,1.25,1.5,2.5,0.25,0.75,0.0,1.25,0.75,0.75,1.25,-1.05,-0.3,-1.61,117.13,-3.4,12.5
2.72,0.0,0.0,0.0,2.5,0.0,1.75,1.25,4.5,1.5,4.25,2.75,2.0,2.5,-0.11,0.08,0.95,346.31,-3.8,-46.1,1.25,1.0,2.0,1.0,1.5,2.75,0.25,0.75,0.0,1.5,0.75,0.25,1.25,0.52,-0.92,2.52,178.77,-3.2,15.5
2.74,2.25,0.75,0.75,2.75,0.0,1.75,1.5,4.25,1.5,4.0,0.0,2.0,2.5,-0.11,0.08,0.95,326.49,0.6,-19.5,1.25,1.0,1.75,1.0,1.5,2.0,0.25,0.75,0.0,1.25,0.75,0.75,1.25,-1.42,2.52,0.33,209.08,-4.4,10.7
2.76,4.25,0.75,1.5,3.0,0.0,2.5,1.25,4.5,1.5,4.0,0.0,1.75,1.75,-0.11,0.08,0.95,322.85,3.7,-3.2,1.0,1.0,2.0,1.25,1.25,2.0,0.25,0.75,0.25,1.5,0.75,0.75,1.0,0.02,-0.11,0.52,223.1,-5.0,10.0
2.78,4.25,0.75,1.5,3.0,2.0,3.0,1.25,4.75,1.0,3.75,0.75,1.0,1.25,-0.11,0.14,0.95,333.8,2.9,6.0,1.0,1.0,1.75,0.5,1.5,2.25,0.25,0.75,0.25,1.5,0.75,0.75,1.25,-0.3,-0.3,1.89,221.58,-2.7,5.3
2.8,2.75,0.75,0.75,2.75,3.0,3.5,1.5,4.5,0.75,2.75,0.5,1.0,1.25,-0.11,0.14,0.95,339.2,0.0,6.4,0.5,0.75,1.75,0.0,1.5,2.0,0.25,0.75,0.25,0.75,0.75,0.75,1.25,-0.48,-0.3,0.08,210.06,-2.2,1.7
2.82,3.5,1.0,0.75,3.75,4.5,4.0,1.25,4.5,0.75,2.25,0.5,1.0,1.25,-0.11,0.08,0.95,358.14,1.2,15.9,1.0,0.5,1.75,1.0,1.5,2.0,0.25,0.75,0.5,1.5,0.75,0.75,1.25,-3.42,2.89,-7.98,209.13,-3.5,2.5
2.84,0.0,1.0,1.5,4.25,5.25,4.5,1.5,4.25,0.75,2.25,0.0,1.0,1.25,-0.11,0.14,0.95,366.48,-1.8,11.9,0.75,1.0,1.75,1.25,1.5,2.75,0.0,0.75,0.25,1.75,0.75,0.75,1.25,1.89,7.39,-1.86,212.23,-1.6,6.0
2.86,0.0,1.0,0.0,4.25,6.25,5.25,1.25,4.0,0.5,2.25,0.0,1.0,1.25,-0.17,0.08,1.08,372.94,-4.8,12.3,1.0,1.0,1.75,1.0,1.5,2.25,0.25,0.75,0.25,1.5,0.75,0.75,1.25,1.52,3.2,3.27,214.67,-3.2,7.3
2.88,0.0,1.0,2.25,4.5,0.0,5.75,1.5,3.5,0.25,2.25,0.0,1.0,1.25,-0.11,0.14,1.08,350.29,-0.8,6.9,0.5,0.75,1.75,1.25,1.5,2.0,0.25,0.75,0.25,1.5,0.75,0.75,1.25,0.39,0.02,3.33,210.56,-2.7,2.8
2.9,0.0,1.0,0.0,6.0,0.0,6.0,1.25,3.25,0.5,2.25,0.25,1.0,1.0,-0.17,0.2,1.02,325.36,-3.4,5.4,1.0,1.0,1.75,1.25,1.5,2.75,0.25,0.75,0.25,1.5,0.75,0.75,1.25,-0.11,-1.86,3.39,210.45,-2.6,9.0
2.92,0.0,0.0,2.5,4.75,0.0,5.25,1.25,1.75,0.0,0.75,0.25,0.25,0.25,-0.23,0.2,1.08,284.56,3.0,26.4,1.25,1.0,1.75,0.75,1.5,2.25,0.25,0.75,0.25,1.5,0.75,0.75,1.25,0.27,-1.3,2.64,203.81,-3.5,7.8
2.94,3.5,1.0,4.25,7.0,0.0,0.0,1.75,1.75,0.0,0.25,1.25,0.5,0.5,-0.17,0.2,0.95,277.39,20.1,40.2,1.0,1.0,1.75,1.0,1.5,2.25,0.25,0.75,0.25,0.25,0.75,0.75,1.25,0.45,-0.3,2.02,200.05,-5.1,15.3
2.96,4.5,1.0,4.5,7.75,0.0,0.0,2.0,1.75,0.0,0.0,1.25,0.0,0.0,-0.17,0.27,0.89,279.34,22.4,51.7,1.0,0.75,1.75,0.5,1.5,2.25,0.25,0.75,0.25,1.25,0.75,0.25,1.25,0.08,-0.42,-2.92,194.26,-2.6,9.6
2.98,4.25,1.0,5.5,8.0,0.0,0.0,2.0,0.5,0.0,1.0,0.0,0.0,0.0,-0.17,0.27,1.02,288.74,24.1,58.2,0.5,0.75,1.5,0.75,1.25,2.5,0.0,0.75,0.5,1.5,0.5,0.25,1.25,0.95,-0.73,-0.55,187.34,0.0,4.3
3.0,5.75,1.0,6.25,8.0,0.0,0.0,3.0,0.75,0.0,1.25,0.0,0.0,0.25,-0.17,0.39,0.83,307.9,24.1,55.9,1.25,1.0,1.75,0.75,1.25,2.75,0.25,0.75,0.0,0.75,0.5,0.0,1.25,0.39,0.77,0.33,183.01,-3.2,22.6
3.02,6.75,0.0,6.75,8.0,0.0,0.0,3.0,0.0,0.0,1.5,0.0,1.0,0.0,-0.23,0.45,1.08,331.43,25.9,52.5,1.0,1.0,1.75,0.5,1.25,2.25,0.25,0.75,0.25,1.0,0.75,0.0,1.25,-0.36,-1.23,0.64,179.7,-3.2,14.7
3.04,7.5,0.0,6.5,6.25,0.0,0.0,3.0,1.5,0.0,1.25,0.5,0.0,0.0,-0.42,0.64,1.58,347.34,24.9,53.1,1.25,0.75,1.75,0.0,1.25,2.75,0.25,0.75,0.25,1.25,0.75,0.0,1.25,-0.73,-0.05,-3.86,179.1,-1.6,11.5
3.06,7.75,0.0,5.5,3.0,0.0,0.0,2.25,1.5,0.0,0.0,0.0,0.0,0.0,-1.23,1.27,2.14,324.01,28.6,64.8,1.0,1.0,1.5,1.0,1.25,2.25,0.25,0.75,0.25,0.0,0.75,0.75,1.25,1.27,2.39,-0.86,175.7,-5.0,15.3
3.08,0.0,0.0,4.25,2.75,0.0,0.0,1.0,1.5,0.25,0.5,0.5,0.0,0.0,-1.17,1.08,2.58,268.59,19.8,29.1,1.0,1.0,1.75,0.75,1.5,2.5,0.25,0.75,0.25,1.5,0.75,0.75,1.25,1.39,-1.05,-0.48,183.32,-2.5,6.8
3.1,0.0,0.0,2.5,2.5,0.0,0.0,0.25,0.0,0.0,1.25,0.75,1.0,0.0,-0.36,0.58,2.52,203.01,17.4,6.4,0.5,1.0,1.75,0.5,1.25,2.25,0.25,0.75,0.25,0.75,0.75,0.75,1.25,0.52,-2.86,-0.73,182.18,-2.7,5.6
3.12,0.0,0.0,1.25,2.5,0.0,0.0,0.0,0.0,0.0,1.0,0.0,0.0,0.0,-0.3,0.39,2.02,130.6,16.0,31.5,1.0,1.0,1.75,0.25,1.25,2.25,0.25,0.75,0.25,0.75,0.75,0.75,1.25,0.39,-3.73,-2.92,182.46,-3.6,8.0
3.14,0.0,0.0,1.25,0.0,0.0,0.0,2.25,0.0,0.0,0.0,0.0,0.0,0.0,0.58,0.52,0.89,63.26,35.6,45.6,0.75,1.0,2.25,0.5,1.5,1.25,0.75,0.75,0.25,1.5,0.75,0.75,1.0,-3.92,-0.23,-0.61,181.96,-6.3,6.4
3.16,0.0,0.0,0.0,0.0,0.0,0.0,1.75,0.0,0.0,0.0,1.75,0.0,0.0,5.14,3.33,-0.17,15.95,17.9,-41.4,0.5,1.25,2.5,0.75,1.25,2.0,0.75,0.75,0.25,1.5,0.75,0.75,1.25,-2.98,-0.8,0.2,190.37,-5.1,6.9
3.18,0.0,0.0,0.0,0.0,0.0,0.0,0.0,0.0,0.0,0.0,0.0,0.0,0.0,1.14,4.27,-0.11,0.0,0.0,0.0,1.25,1.0,2.25,0.75,1.5,2.25,0.5,0.75,0.25,1.5,0.75,0.75,1.0,-0.05,0.14,-1.17,199.45,-5.3,12.0
3.2,0.0,0.0,0.0,0.0,0.0,0.0,0.0,0.0,0.0,0.0,0.0,0.0,0.0,-1.55,3.52,1.39,0.0,0.0,0.0,0.5,1.0,2.0,0.75,1.25,2.25,0.25,0.75,0.25,1.5,0.75,0.75,1.25,0.95,-0.05,-1.55,202.0,-2.7,3.1
3.22,0.0,0.0,1.25,0.5,0.0,0.0,0.0,0.0,0.0,0.25,0.0,0.0,0.0,-1.05,-1.92,-0.67,0.0,26.3,43.6,1.0,0.75,1.75,0.25,1.25,2.25,0.25,0.75,0.25,1.25,0.75,0.75,1.25,1.45,0.39,-1.11,197.88,-2.7,2.8
3.24,0.0,0.0,1.25,0.75,0.0,0.0,1.75,0.0,0.0,0.25,1.75,0.75,0.0,0.27,-0.98,1.14,0.0,19.8,-14.5,0.5,1.0,1.75,1.0,1.25,2.75,0.25,0.75,0.25,1.5,0.75,0.75,1.25,1.14,1.14,-0.55,196.81,-1.4,4.1
3.26,1.5,0.0,0.75,0.5,0.0,0.0,0.0,0.0,0.0,1.0,0.0,0.25,0.0,-0.55,-1.36,0.58,0.0,18.7,28.3,0.75,1.0,1.75,0.75,1.25,2.0,0.25,0.75,0.25,1.25,0.75,0.75,1.25,0.7,0.7,-0.86,192.83,-3.4,4.6
3.28,0.0,0.0,0.25,1.25,0.0,0.0,0.0,0.0,0.0,0.75,0.5,0.0,0.0,-0.73,-1.17,0.58,13.68,9.2,-0.5,0.5,1.0,1.75,0.5,1.25,2.0,0.25,0.75,0.25,1.25,0.75,0.75,1.25,0.27,0.95,-0.86,188.31,-2.5,1.7
3.3,0.0,0.0,0.0,0.5,0.0,0.0,0.25,0.0,0.0,1.25,0.0,0.0,0.0,-0.92,-1.05,0.45,23.41,-3.5,-32.1,1.0,1.25,1.75,0.5,1.25,2.0,0.25,0.75,0.25,1.5,0.75,1.0,1.25,-0.11,1.08,-0.86,189.3,-3.6,3.4
3.32,0.0,0.0,0.0,1.5,0.0,0.0,0.0,0.0,0.0,0.75,0.25,0.0,0.0,-0.8,-0.61,0.2,31.52,6.9,6.2,0.75,1.0,1.75,0.0,1.25,2.25,0.25,0.75,0.0,1.5,0.75,0.75,1.25,-0.36,0.64,-1.05,185.09,-1.4,1.0
3.34,0.0,0.0,0.0,1.75,0.0,0.0,0.0,0.0,0.0,1.0,0.0,0.5,0.0,-0.3,-0.05,-0.05,37.41,6.0,-7.1,0.5,1.0,1.75,0.75,1.25,2.25,0.25,0.75,0.25,1.0,0.75,0.75,1.25,-0.17,0.45,-1.05,184.63,-2.7,5.1
3.36,0.0,0.0,1.25,0.5,0.0,0.0,0.0,0.0,0.0,0.5,0.0,0.0,0.0,0.08,0.64,-0.61,42.22,21.8,30.7,0.75,1.0,1.75,0.5,1.25,2.0,0.25,0.75,0.25,1.5,0.75,0.75,1.25,0.02,0.77,-0.86,182.75,-2.7,2.0
3.38,0.0,0.0,1.25,1.75,0.0,0.0,0.25,0.0,0.0,0.75,0.75,0.0,0.0,-0.11,0.64,-0.92,58.13,17.1,16.2,0.5,1.0,1.75,0.5,1.25,2.25,0.25,0.75,0.25,1.5,0.75,0.75,1.25,0.02,0.64,-0.86,182.73,-1.6,0.8
3.4,0.0,0.0,1.25,1.25,0.0,0.0,0.0,0.0,0.0,0.75,0.75,0.5,0.0,0.08,0.58,-0.8,66.98,15.8,-2.5,0.5,1.0,1.75,1.0,1.25,2.75,0.25,0.75,0.25,1.5,0.75,0.75,1.25,-0.05,0.52,-0.92,186.95,-1.4,4.1
3.42,0.0,0.0,1.25,1.25,0.0,0.0,0.0,0.0,0.0,0.5,0.25,0.5,0.0,0.02,0.52,-0.67,71.79,18.5,11.3,0.5,1.0,1.75,0.5,1.25,2.5,0.25,0.75,0.25,1.25,0.5,0.75,1.25,-0.05,0.2,-1.05,187.06,-1.3,4.4
3.44,0.0,0.0,1.25,1.0,0.0,0.0,0.0,0.0,0.0,0.0,0.75,0.25,0.0,0.2,0.83,-0.67,66.51,23.3,17.2,1.0,1.0,1.75,0.5,1.25,2.0,0.25,0.75,0.0,0.75,0.75,0.75,1.25,0.02,0.14,-1.05,185.64,-4.3,9.5
3.46,0.0,0.0,0.75,0.75,0.0,0.0,0.0,0.0,0.0,0.5,0.0,0.0,0.0,1.89,2.14,-2.23,53.67,17.1,26.6,0.5,1.0,1.75,0.5,1.5,2.0,0.25,0.75,0.0,1.5,0.75,0.75,1.25,-0.05,0.2,-0.98,183.26,-1.8,2.2
3.48,1.25,0.0,1.25,1.0,0.0,0.0,0.0,0.0,0.0,0.5,0.25,0.0,0.0,2.2,3.2,-1.61,55.34,24.2,46.5,0.5,1.0,1.5,1.25,1.25,2.5,0.25,0.75,0.0,1.5,1.0,0.75,1.25,-0.17,0.39,-0.67,186.17,-1.4,2.9
3.5,0.0,0.0,1.25,1.25,0.0,0.0,0.0,0.0,0.0,0.5,0.75,0.0,0.0,0.95,1.02,-0.23,58.54,18.7,16.1,0.75,1.0,1.75,0.75,1.25,2.0,0.25,0.75,0.0,1.75,1.0,0.75,1.25,-0.23,0.45,-0.55,189.38,-2.6,1.0
3.52,0.0,0.0,1.0,1.25,0.0,0.0,0.25,0.0,0.0,0.5,0.75,0.0,0.0,0.52,0.27,0.08,63.56,17.8,13.3,0.5,1.0,1.75,0.5,1.25,2.0,0.25,0.5,0.0,1.0,0.75,0.75,1.25,-0.17,0.52,-0.42,185.02,-3.1,5.2
3.54,0.0,0.0,1.25,1.0,0.0,0.0,0.0,0.0,0.0,0.75,0.75,0.25,0.0,0.39,0.52,0.02,65.02,16.1,0.0,0.5,1.0,1.75,0.5,1.25,2.0,0.25,0.5,0.25,1.5,0.75,0.75,1.25,-0.05,0.7,-0.61,181.87,-2.5,1.0
3.56,0.0,0.0,1.0,1.25,0.0,0.0,0.25,0.0,0.0,0.5,0.5,0.25,0.0,0.39,0.95,-0.23,63.73,17.7,10.9,0.5,1.0,1.75,0.75,1.25,2.0,0.25,0.5,0.25,1.5,0.75,0.75,1.25,0.02,0.77,-0.61,180.35,-2.8,2.2
3.58,0.0,0.0,1.0,1.0,0.0,0.0,0.0,0.0,0.0,0.75,1.0,0.25,0.0,0.27,0.89,-0.17,62.58,14.4,-8.3,0.5,1.0,1.5,0.5,1.25,2.0,0.25,0.5,0.25,1.25,0.75,0.75,1.0,0.02,0.64,-0.73,175.64,-2.4,3.8
3.6,0.25,0.0,1.25,1.25,0.0,0.0,0.0,0.0,0.0,0.75,0.75,0.0,0.25,0.2,0.52,-0.36,65.8,15.8,8.2,0.75,1.0,1.5,0.5,1.25,2.0,0.25,0.75,0.0,1.5,0.75,0.75,1.25,-0.11,0.58,-0.8,175.35,-1.8,1.6
3.62,0.0,0.0,1.25,0.5,0.0,0.0,0.0,0.0,0.0,0.75,1.0,0.0,0.0,0.2,0.58,-0.48,62.65,16.1,-5.9,0.75,1.0,1.75,0.5,1.25,2.0,0.25,0.5,0.25,1.5,0.75,0.75,1.25,-0.3,0.64,-0.8,176.92,-3.1,2.8
3.64,0.0,0.0,0.75,1.0,0.0,0.0,0.0,0.0,0.0,0.5,1.0,0.0,0.0,0.27,0.7,-0.36,59.92,15.2,-0.9,0.75,1.0,1.75,0.5,1.25,2.0,0.25,0.5,0.25,0.75,0.75,0.5,1.25,-0.36,0.52,-0.92,175.04,-4.2,10.3
3.66,0.0,0.0,1.0,1.0,0.0,0.0,0.0,0.0,0.0,0.5,0.0,0.0,0.25,0.64,0.64,-0.42,54.33,16.2,20.2,0.75,1.0,1.75,0.5,1.25,2.0,0.25,0.5,0.25,1.25,0.75,0.25,1.25,-0.23,0.45,-1.17,174.69,-3.2,9.2
3.68,0.0,0.0,1.0,1.0,0.0,0.0,0.0,0.0,0.0,0.5,0.75,0.0,0.0,0.83,0.58,-0.55,52.29,17.3,9.3,0.5,0.75,1.75,0.75,1.5,2.25,0.25,0.5,0.0,1.5,0.75,0.75,1.25,-0.23,0.33,-1.42,176.7,-1.8,2.8
3.7,0.0,0.0,1.0,0.75,0.0,0.0,0.0,0.0,0.0,0.5,1.0,0.0,0.0,0.52,0.33,-0.67,50.26,16.9,-0.7,0.5,1.0,1.75,0.5,1.25,2.0,0.25,0.5,0.25,1.5,0.75,0.75,1.25,-0.3,0.45,-1.17,177.26,-2.5,1.0
3.72,0.0,0.0,0.75,1.0,0.0,0.0,0.0,0.0,0.0,0.5,1.25,0.0,0.25,0.2,-0.05,-1.55,51.4,13.0,-13.1,0.5,1.0,1.5,0.5,1.25,2.0,0.25,0.5,0.25,1.5,0.75,0.75,1.25,-0.3,0.58,-0.92,176.84,-1.7,-0.2
3.74,0.0,0.0,1.25,0.75,0.0,0.0,0.0,0.0,0.0,0.5,0.25,0.25,0.0,0.33,0.02,-1.8,51.26,19.5,13.2,1.0,1.0,1.75,0.5,1.25,2.0,0.25,0.75,0.25,1.5,0.75,0.75,1.25,-0.17,0.58,-0.86,181.81,-3.3,3.7
3.76,0.0,0.0,1.0,0.5,0.0,0.0,0.25,0.0,0.0,0.0,0.25,0.0,0.0,0.08,0.27,-0.92,44.58,28.6,40.8,0.5,1.0,1.75,0.5,1.25,2.0,0.25,0.5,0.25,1.5,0.75,0.75,1.25,-0.11,0.39,-1.05,182.59,-2.5,1.0
3.78,0.0,0.0,1.0,0.75,0.0,0.0,0.0,0.0,0.0,0.25,0.75,0.25,0.0,0.02,0.39,-0.67,42.67,19.4,2.4,1.0,1.0,1.75,0.75,1.25,2.25,0.25,0.5,0.25,1.0,0.75,0.75,1.25,-0.11,0.39,-0.98,184.9,-4.2,9.3
3.8,0.0,0.0,1.0,1.0,0.0,0.0,0.0,0.0,0.0,0.5,0.75,0.5,0.0,0.08,0.52,-0.61,46.01,16.2,-6.2,0.5,1.0,1.75,0.5,1.25,2.0,0.25,0.5,0.25,1.0,0.75,0.25,1.25,-0.23,0.33,-0.86,179.88,-3.0,9.3
3.82,0.0,0.0,1.0,0.75,0.0,0.0,0.0,0.0,0.0,0.5,0.75,0.5,0.0,0.2,0.58,-0.67,49.72,16.2,-10.9,0.5,1.0,1.75,0.75,1.25,2.0,0.25,0.75,0.25,1.5,0.75,0.75,1.0,-0.36,0.58,-0.61,181.31,-2.7,3.7
3.84,0.0,0.0,1.25,1.0,0.0,0.0,0.0,0.0,0.0,0.5,1.0,0.5,0.0,0.2,0.7,-0.8,57.28,17.2,-6.1,0.5,1.25,1.75,0.75,1.25,1.75,0.25,0.5,0.25,1.5,1.0,0.75,1.25,-0.42,0.64,-0.67,181.43,-3.6,2.1
3.86,0.0,0.0,1.25,0.5,0.0,0.0,0.0,0.0,0.25,0.5,0.0,0.5,0.0,0.2,0.7,-0.92,57.51,18.9,2.2,1.0,1.0,1.5,0.5,1.25,2.0,0.25,0.25,0.5,1.75,0.75,0.5,1.25,-0.42,0.58,-0.73,183.42,-3.0,4.1
3.88,0.0,0.0,0.75,0.5,0.0,0.0,0.0,0.0,0.25,0.5,0.5,0.5,0.0,0.2,0.64,-0.92,54.67,14.3,-20.1,0.5,1.0,1.75,0.5,1.25,2.0,0.25,0.25,0.25,1.5,1.0,1.0,1.25,-0.36,0.52,-0.86,183.93,-3.2,-1.8
3.9,0.25,0.0,1.0,0.5,0.0,0.0,0.0,0.0,0.25,0.5,0.5,0.25,0.0,0.14,0.58,-0.86,51.85,18.1,1.4,0.5,1.0,1.75,0.5,1.25,2.0,0.25,0.5,0.25,1.5,1.0,0.75,1.0,-0.36,0.58,-0.86,182.64,-3.0,1.8
3.92,0.0,0.0,1.0,0.75,0.0,0.0,0.0,0.0,0.25,0.5,0.5,0.25,0.0,0.08,0.52,-0.86,51.19,16.8,-0.8,0.5,1.0,1.75,0.5,1.25,2.0,0.25,0.25,0.25,1.5,0.75,0.75,1.25,-0.36,0.58,-0.86,179.8,-2.9,1.8
3.94,0.0,0.0,1.25,0.75,0.0,0.0,0.0,0.0,0.25,0.0,0.5,0.5,0.0,0.08,0.52,-0.86,51.73,22.8,7.0,1.0,1.0,1.75,0.75,1.25,2.25,0.25,0.0,0.25,1.25,0.75,0.75,1.25,-0.3,0.58,-0.86,180.51,-4.7,9.5
3.96,0.0,0.0,1.0,1.0,0.0,0.0,0.0,0.0,0.25,0.0,0.5,0.25,0.0,0.14,0.45,-0.86,51.65,22.2,16.3,0.75,1.0,1.75,0.75,1.25,2.0,0.25,0.25,0.5,1.25,0.75,0.5,1.25,-0.23,0.58,-0.86,180.69,-4.2,7.9
3.98,0.25,0.0,0.75,0.75,0.0,0.0,0.0,0.0,0.25,0.0,0.0,0.5,0.0,0.2,0.45,-0.92,49.02,23.1,20.2,0.5,1.0,1.75,0.5,1.25,2.0,0.25,0.25,0.25,1.5,1.0,0.25,1.25,-0.23,0.58,-0.86,178.49,-2.8,4.9
4.0,0.0,0.0,1.0,1.0,0.0,0.0,0.0,0.0,0.25,0.0,0.5,0.25,0.0,0.2,0.45,-0.98,48.11,22.2,16.3,1.0,1.0,1.5,0.5,1.25,2.0,0.25,0.0,0.25,1.5,0.75,0.75,1.25,-0.17,0.58,-0.8,177.56,-3.8,5.1
4.02,1.25,0.0,1.25,0.5,0.0,0.0,0.0,0.0,0.25,0.25,0.5,0.5,0.0,0.2,0.45,-0.92,54.63,24.2,23.2,0.75,1.0,1.75,0.5,1.25,2.0,0.25,0.0,0.25,1.25,0.75,0.75,1.25,-0.17,0.64,-0.8,175.32,-4.3,6.2
4.04,1.25,0.0,1.0,0.75,0.0,0.0,0.0,0.0,0.25,0.0,0.0,0.25,0.0,0.2,0.45,-0.92,58.16,28.4,53.4,1.0,1.0,1.5,0.5,1.25,2.0,0.25,0.25,0.25,1.25,0.75,0.75,1.25,-0.17,0.7,-0.73,175.38,-3.8,5.9
4.06,1.5,0.0,1.0,0.75,0.0,0.0,0.0,0.0,0.25,0.25,0.0,0.5,0.0,0.14,0.52,-0.86,65.43,25.0,38.5,1.0,1.0,1.75,0.5,1.25,2.0,0.25,0.0,0.25,1.5,0.75,0.75,1.25,-0.11,0.64,-0.73,175.78,-4.5,6.3
4.08,1.5,0.0,0.75,0.75,0.0,0.0,0.0,0.0,0.25,0.25,0.5,0.0,0.0,0.2,0.52,-0.86,67.68,24.4,41.8,0.5,1.0,1.25,0.5,1.25,2.0,0.25,0.25,0.25,1.5,0.75,0.75,1.25,-0.05,0.64,-0.8,173.81,-1.3,-0.7
4.1,1.5,0.0,1.0,0.5,0.0,0.0,0.0,0.0,0.25,0.0,0.75,0.25,0.0,0.27,0.58,-0.8,71.26,26.4,33.2,0.5,1.0,1.75,0.5,1.25,2.0,0.25,0.0,0.25,1.25,0.75,0.75,1.25,0.02,0.64,-0.86,172.21,-3.7,4.4
4.12,1.25,0.0,1.0,0.75,0.0,0.0,0.0,0.0,0.25,0.5,0.0,0.25,0.0,0.27,0.58,-0.8,70.55,22.9,37.1,0.5,1.0,1.75,0.75,1.25,2.0,0.25,0.0,0.25,1.5,0.75,0.75,1.25,-0.11,0.64,-0.86,172.46,-3.6,3.9
4.14,2.0,0.0,1.25,1.0,0.0,0.0,0.0,0.0,0.25,0.0,0.5,0.5,0.0,0.27,0.58,-0.8,78.85,26.7,40.7,0.75,1.0,1.75,0.5,1.25,2.0,0.25,0.0,0.5,1.5,0.75,0.75,1.25,-0.17,0.64,-0.8,174.78,-4.1,3.7
4.16,1.5,0.0,0.75,0.75,0.0,0.0,0.0,0.0,0.25,0.5,0.25,0.25,0.0,0.33,0.58,-0.8,78.77,21.9,32.6,0.5,1.0,1.25,0.5,1.25,2.0,0.25,0.0,0.25,1.0,0.75,0.75,1.25,-0.17,0.64,-0.8,170.25,-2.5,3.5
4.18,1.5,0.0,1.0,0.5,0.0,0.0,0.0,0.0,0.25,0.5,0.5,0.25,0.0,0.33,0.58,-0.73,79.78,22.5,26.8,0.5,1.25,1.75,0.5,1.25,2.0,0.25,0.0,0.5,1.25,1.0,0.75,1.25,-0.17,0.64,-0.8,172.71,-4.2,3.9
4.2,1.75,0.0,1.0,0.5,0.0,0.0,0.0,0.0,0.25,0.5,0.5,0.25,0.25,0.33,0.52,-0.73,80.32,21.2,23.0,0.5,1.0,1.75,0.5,1.25,2.0,0.25,0.0,0.25,1.5,0.75,0.75,1.25,-0.23,0.64,-0.8,172.29,-3.3,2.7
4.22,1.5,0.0,1.0,1.0,0.0,0.0,0.0,0.0,0.25,0.5,0.5,0.5,0.0,0.39,0.58,-0.92,83.16,21.3,23.4,0.5,1.0,1.75,0.75,1.25,2.0,0.25,0.0,0.25,1.5,0.75,1.0,1.25,-0.23,0.64,-0.8,175.78,-3.7,1.6
4.24,1.5,0.0,0.75,0.5,0.0,0.0,0.0,0.0,0.25,0.5,0.5,0.5,0.0,0.33,0.52,-0.86,79.91,20.8,17.1,0.75,1.0,1.75,0.5,1.25,2.0,0.25,0.25,0.25,1.5,0.75,1.0,1.25,-0.23,0.64,-0.73,178.26,-3.6,1.4
4.26,1.5,0.0,0.75,1.0,0.0,0.0,0.0,0.0,0.0,0.5,0.5,0.5,0.0,0.33,0.52,-0.8,79.13,20.9,24.6,0.75,1.0,1.5,0.5,1.25,2.0,0.25,0.0,0.25,1.5,1.0,0.75,1.25,-0.23,0.64,-0.73,179.43,-3.3,1.7
4.28,1.5,0.0,1.0,0.5,0.0,0.0,0.0,0.0,0.0,0.5,0.5,0.5,0.0,0.2,0.52,-0.8,77.0,22.3,22.8,0.5,1.0,1.5,0.5,1.25,2.0,0.25,0.0,0.25,1.5,0.75,0.75,1.0,-0.23,0.64,-0.8,175.38,-2.9,3.9
4.3,1.25,0.0,1.0,0.5,0.0,0.0,0.0,0.0,0.25,0.5,0.5,0.5,0.0,0.27,0.58,-0.8,74.4,21.1,15.4,0.5,1.0,1.5,0.75,1.25,2.0,0.25,0.0,0.25,1.5,0.75,0.75,1.25,-0.23,0.64,-0.8,173.68,-2.8,2.6
4.32,1.5,0.0,0.75,1.25,0.0,0.0,0.0,0.0,0.25,0.5,0.75,0.5,0.25,0.39,0.58,-0.8,79.26,18.3,13.1,1.0,1.0,1.5,0.5,1.25,2.0,0.25,0.0,0.25,1.5,0.75,0.75,1.25,-0.23,0.64,-0.8,174.11,-3.8,5.1
4.34,1.5,0.0,1.0,0.5,0.0,0.0,0.0,0.0,0.25,0.5,0.75,0.5,0.0,0.33,0.58,-0.86,80.44,21.2,14.9,0.5,1.0,1.75,0.5,1.25,2.0,0.25,0.0,0.25,1.5,0.75,0.75,1.25,-0.3,0.64,-0.73,173.77,-3.3,2.7
4.36,1.25,0.0,1.0,0.5,0.0,0.0,0.0,0.0,0.25,0.5,0.5,0.75,0.5,0.33,0.64,-0.92,82.2,17.1,-2.8,0.5,1.0,1.25,0.5,1.25,2.0,0.25,0.0,0.25,1.5,1.0,0.75,1.25,-0.36,0.64,-0.73,172.15,-1.9,-1.5
4.38,1.25,0.0,0.75,0.5,0.0,0.0,0.0,0.0,0.25,0.5,0.75,0.5,0.0,0.33,0.58,-0.8,77.72,19.5,7.8,0.5,1.0,1.75,0.5,1.5,2.0,0.25,0.0,0.5,1.5,0.75,0.25,1.0,-0.3,0.64,-0.73,172.01,-3.5,10.4
4.4,1.25,0.0,0.75,1.0,0.0,0.0,0.0,0.0,0.25,0.5,0.75,0.75,0.0,0.27,0.58,-0.73,79.61,18.8,7.3,0.5,1.0,1.75,0.5,1.25,2.0,0.25,0.0,0.25,2.25,0.75,0.75,1.25,-0.23,0.64,-0.73,175.09,-2.2,-1.9
4.42,1.25,0.0,1.0,0.75,0.0,0.0,0.0,0.0,0.25,0.5,0.5,0.5,0.0,0.33,0.58,-0.8,77.07,20.9,17.8,0.5,1.0,1.5,0.75,1.25,2.0,0.25,0.0,0.25,1.5,0.75,1.0,1.25,-0.17,0.64,-0.73,175.22,-3.0,0.3
4.44,1.0,0.0,0.75,0.5,0.0,0.0,0.0,0.0,0.25,0.5,0.75,0.5,0.5,0.33,0.64,-0.86,75.82,15.1,-9.4,0.5,1.0,1.5,0.5,1.25,1.75,0.25,0.0,0.25,1.5,0.75,0.75,1.25,-0.11,0.64,-0.8,173.36,-3.1,0.7
4.46,1.5,0.0,0.75,0.5,0.0,0.0,0.0,0.0,0.0,0.5,0.5,0.5,0.25,0.33,0.64,-0.8,73.62,19.3,12.9,0.75,1.0,1.5,0.5,1.25,2.0,0.25,0.0,0.25,1.5,0.75,0.75,1.25,-0.05,0.7,-0.8,172.42,-3.2,3.3
4.48,1.25,0.0,0.75,1.0,0.0,0.0,0.0,0.0,0.0,0.5,0.75,0.75,0.25,0.33,0.58,-0.73,76.16,17.5,3.6,0.5,1.0,1.75,0.5,1.25,2.0,0.25,0.0,0.25,1.25,0.75,0.75,1.0,0.02,0.64,-0.8,169.93,-4.1,7.0
4.5,1.25,0.0,0.75,0.75,0.0,0.0,0.0,0.0,0.25,0.5,0.75,0.5,0.25,0.27,0.58,-0.67,76.46,17.7,4.4,0.5,1.0,1.5,1.0,1.25,2.0,0.25,0.0,0.25,1.5,1.0,0.75,1.0,0.02,0.64,-0.86,172.16,-3.7,4.7
4.52,1.0,0.0,0.75,0.5,0.0,0.0,0.0,0.0,0.0,0.5,0.75,0.75,0.5,0.27,0.64,-0.61,75.82,15.0,-13.1,0.5,1.25,1.5,0.5,1.25,2.25,0.25,0.0,0.25,1.75,0.75,0.75,1.0,0.02,0.64,-0.86,174.07,-2.2,4.9
4.54,1.75,0.0,0.75,0.5,0.0,0.0,0.0,0.0,0.25,0.5,0.5,0.5,0.25,0.33,0.64,-0.61,76.21,19.7,14.3,0.5,1.0,1.75,0.25,1.25,2.0,0.25,0.0,0.25,1.25,0.75,1.0,1.0,-0.05,0.64,-0.86,172.56,-3.9,3.2
4.56,1.5,0.0,1.0,0.5,0.0,0.0,0.0,0.0,0.25,0.5,0.75,0.5,0.25,0.33,0.7,-0.61,77.4,19.5,8.7,0.5,1.0,1.5,0.5,1.25,2.5,0.25,0.0,0.25,1.5,0.75,1.0,1.0,-0.05,0.64,-0.8,173.29,-2.0,2.7
4.58,1.25,0.0,1.0,0.75,0.0,0.0,0.0,0.0,0.0,0.5,1.0,0.25,0.0,0.39,0.77,-0.61,77.84,20.9,17.9,0.5,1.0,1.5,0.5,1.25,2.0,0.25,0.0,0.5,1.5,0.75,0.5,1.25,-0.05,0.64,-0.8,171.94,-2.6,2.9
4.6,0.0,0.0,0.75,1.25,0.0,0.0,0.0,0.0,0.25,0.5,0.5,0.5,0.25,0.33,0.7,-0.55,73.1,13.1,-10.7,0.75,1.0,1.75,0.5,1.25,2.0,0.25,0.0,0.25,1.0,0.75,0.75,1.25,-0.11,0.64,-0.8,171.73,-4.8,8.0
4.62,0.0,0.0,0.75,0.75,0.0,0.0,0.0,0.0,0.25,0.5,0.25,0.5,0.25,0.33,0.7,-0.48,64.33,12.6,-16.9,0.5,1.25,1.5,0.75,1.25,2.0,0.25,0.0,0.25,1.5,0.75,0.75,1.0,-0.11,0.7,-0.8,171.81,-3.4,7.2
4.64,0.25,0.0,1.0,0.5,0.0,0.0,0.0,0.0,0.25,0.5,0.75,0.5,0.0,0.39,0.7,-0.48,58.01,17.0,-10.8,0.5,1.0,1.25,0.5,1.25,2.0,0.25,0.0,0.25,1.5,0.75,0.75,1.25,-0.17,0.64,-0.8,170.07,-1.7,0.0
4.66,0.25,0.0,0.75,0.25,0.0,0.0,0.0,0.0,0.25,0.5,0.75,0.5,0.25,0.45,0.77,-0.42,52.91,13.2,-28.5,0.5,1.0,1.25,0.5,0.5,2.0,0.25,0.0,0.25,2.0,1.0,0.75,1.0,-0.17,0.64,-0.8,166.24,-1.9,-6.7
4.68,0.25,0.0,1.0,0.75,0.0,0.0,0.0,0.0,0.25,0.5,0.5,0.5,0.0,0.45,0.7,-0.42,52.95,17.4,-1.9,0.5,1.0,1.5,0.5,1.25,2.0,0.25,0.0,0.25,1.5,0.75,0.75,1.25,-0.23,0.64,-0.73,165.89,-2.5,1.4
4.7,0.25,0.0,0.75,0.5,0.0,0.0,0.0,0.0,0.25,0.5,0.5,0.25,0.25,0.45,0.77,-0.42,50.37,14.0,-11.9,0.5,1.0,1.25,0.5,1.25,2.0,0.25,0.0,0.25,1.5,0.75,0.75,1.25,-0.23,0.64,-0.73,164.61,-1.7,0.0
4.72,0.0,0.0,1.0,0.5,0.0,0.0,0.0,0.0,0.25,0.5,0.75,0.5,0.25,0.58,0.77,-0.36,51.05,13.8,-24.2,0.5,1.0,1.25,0.5,1.25,2.0,0.25,0.0,0.25,1.5,0.75,0.75,1.0,-0.23,0.64,-0.8,163.88,-2.1,2.6
4.74,0.25,0.0,0.75,0.5,0.0,0.0,0.0,0.0,0.25,0.5,0.75,0.5,0.25,0.58,0.77,-0.3,51.39,13.4,-22.5,0.75,1.0,1.5,0.5,1.0,1.75,0.25,0.0,0.25,1.5,0.75,0.75,1.0,-0.23,0.58,-0.86,162.56,-4.3,4.0
4.76,1.0,0.0,0.75,0.5,0.0,0.0,0.0,0.0,0.0,0.5,0.75,0.5,0.25,0.64,0.77,-0.36,55.95,17.1,-1.5,0.5,1.0,1.5,0.5,1.25,2.0,0.25,0.0,0.25,1.25,1.0,0.75,1.25,-0.05,0.58,-0.86,164.51,-3.1,1.4
4.78,1.0,0.0,0.75,0.5,0.0,0.0,0.0,0.0,0.25,0.5,0.25,0.75,0.75,0.77,0.7,-0.3,61.76,13.7,-13.4,0.5,1.0,1.75,0.5,1.25,2.0,0.25,0.0,0.25,1.75,0.75,0.75,1.0,-0.11,0.58,-0.86,167.56,-3.3,3.5
4.8,1.25,0.0,0.75,0.75,0.0,0.0,0.0,0.0,0.25,0.5,0.5,0.5,0.5,0.77,0.7,-0.36,69.71,16.4,2.3,0.5,1.0,1.0,0.5,1.25,2.0,0.25,0.0,0.25,1.5,0.75,0.75,1.25,-0.05,0.64,-0.86,166.39,-0.9,-1.3
4.82,1.25,0.0,0.75,0.5,0.0,0.0,0.0,0.0,0.25,0.5,0.75,0.5,0.0,0.77,0.64,-0.3,73.45,19.5,7.8,0.5,1.0,1.25,0.75,1.25,2.0,0.25,0.0,0.25,2.0,0.75,0.75,1.0,-0.11,0.58,-0.86,169.09,-1.6,0.5
4.84,1.25,0.0,0.75,0.5,0.0,0.0,0.0,0.0,0.25,0.5,0.5,0.5,0.0,0.7,0.64,-0.3,74.23,20.0,12.7,0.5,1.0,1.5,0.5,1.25,2.0,0.25,0.0,0.25,1.25,0.75,1.0,1.0,-0.11,0.7,-0.92,168.19,-3.4,3.2
4.86,1.25,0.0,0.75,0.5,0.0,0.0,0.25,0.0,0.25,0.5,0.5,0.5,0.25,0.7,0.7,-0.36,74.54,18.5,6.1,0.5,1.0,1.75,0.5,1.25,2.0,0.25,0.0,0.25,1.5,0.75,0.75,1.0,0.08,0.64,-0.98,169.61,-3.7,5.2
4.88,1.0,0.0,0.75,0.5,0.0,0.0,0.0,0.0,0.25,0.5,0.5,0.5,0.0,0.7,0.7,-0.36,71.02,19.2,7.6,0.5,1.0,1.0,0.5,1.25,2.0,0.25,0.0,0.25,1.5,0.75,0.75,1.25,0.14,0.58,-0.98,167.49,-0.9,-1.3
4.9,1.25,0.0,1.0,0.5,0.0,0.0,0.0,0.0,0.25,0.75,0.5,0.75,0.25,0.64,0.7,-0.36,74.92,17.0,-1.0,0.75,1.0,1.75,0.75,0.5,2.0,0.25,0.0,0.5,1.5,0.75,1.0,1.0,0.08,0.52,-0.92,169.08,-5.4,1.2
4.92,1.25,0.0,0.75,0.5,0.0,0.0,0.0,0.0,0.25,0.5,0.5,0.5,0.5,0.58,0.7,-0.36,75.52,16.4,-0.7,0.5,1.0,1.5,0.5,1.25,2.0,0.25,0.0,0.25,1.25,0.75,0.75,1.25,0.02,0.52,-0.92,167.63,-2.9,3.1
4.94,1.25,0.0,0.75,0.5,0.0,0.0,0.25,0.0,0.25,0.5,0.25,0.75,0.0,0.58,0.7,-0.42,75.67,20.3,11.0,0.5,1.0,1.5,0.5,1.25,2.0,0.25,0.0,0.25,1.5,0.75,1.0,1.25,0.02,0.52,-0.92,169.94,-2.7,-0.9
4.96,1.0,0.0,0.75,0.5,0.0,0.0,0.0,0.0,0.25,0.75,0.25,0.75,0.25,0.58,0.7,-0.42,73.1,15.2,-5.7,0.5,1.0,1.25,0.5,1.25,2.0,0.25,0.0,0.25,1.25,0.75,0.75,1.0,-0.05,0.45,-0.92,166.95,-2.5,4.4
4.98,1.25,0.0,0.75,0.5,0.0,0.0,0.0,0.0,0.25,0.5,0.5,0.75,0.25,0.52,0.7,-0.42,72.81,17.6,-0.4,0.5,1.0,1.75,0.5,1.25,2.0,0.25,0.0,0.25,2.0,0.75,0.75,1.25,-0.17,0.39,-0.8,170.95,-2.5,-0.4
5.0,1.25,0.0,1.0,0.75,0.0,0.0,0.0,0.0,0.25,0.5,0.5,0.5,0.25,0.58,0.7,-0.42,74.15,19.1,11.2,0.5,1.0,1.5,0.5,1.25,2.0,0.25,0.0,0.25,1.5,0.75,0.25,1.25,-0.17,0.33,-0.8,168.46,-2.2,6.4
5.02,1.25,0.0,0.75,0.5,0.0,0.0,0.0,0.0,0.25,0.5,0.5,0.75,0.25,0.58,0.7,-0.42,74.57,17.6,-0.4,0.5,1.0,1.75,0.5,1.25,2.0,0.25,0.0,0.25,1.25,0.75,0.75,1.0,-0.17,0.33,-0.73,169.11,-4.1,7.0
5.04,1.25,0.0,0.75,0.5,0.0,0.0,0.0,0.0,0.25,0.5,0.25,0.75,0.25,0.58,0.7,-0.42,74.16,18.0,3.5,0.5,1.0,1.5,0.5,1.25,2.0,0.25,0.0,0.25,1.5,0.75,0.75,1.25,-0.17,0.33,-0.8,168.81,-2.5,1.4
5.06,1.0,0.0,0.75,0.5,0.0,0.0,0.0,0.0,0.0,0.5,1.0,0.5,0.0,0.58,0.7,-0.42,71.44,18.6,0.8,0.5,1.0,1.0,0.5,0.25,2.0,0.25,0.0,0.25,1.5,0.5,0.75,1.25,-0.3,0.45,-0.8,159.85,-1.1,-6.1
5.08,1.5,0.0,1.0,0.5,0.0,0.0,0.0,0.0,0.25,0.5,0.25,0.5,0.25,0.58,0.7,-0.36,71.94,20.4,17.4,0.5,1.0,1.75,0.75,0.25,2.0,0.25,0.0,0.25,1.25,0.75,1.0,1.0,-0.17,0.45,-0.92,156.55,-5.4,0.4
5.1,1.25,0.0,1.0,0.75,0.0,0.0,0.0,0.0,0.25,0.5,0.5,0.75,0.25,0.58,0.7,-0.42,74.88,18.6,5.4,0.25,1.25,0.75,0.75,0.0,2.0,0.25,0.0,0.25,1.5,0.75,0.75,1.0,-0.05,0.39,-0.86,147.04,-0.8,-6.6
5.12,1.25,0.0,1.0,0.75,0.0,0.0,0.0,0.0,0.0,0.5,0.5,0.75,0.25,0.64,0.7,-0.42,77.81,18.9,7.6,0.5,1.0,1.5,0.5,1.25,2.0,0.25,0.0,0.25,1.25,0.75,0.75,1.0,-0.05,0.39,-0.8,150.69,-3.3,5.7
5.14,1.0,0.0,0.75,0.25,0.0,0.0,0.0,0.0,0.25,0.5,0.5,0.5,0.25,0.64,0.64,-0.42,73.36,17.2,-3.3,0.5,1.0,1.75,0.75,1.25,2.0,0.25,0.0,0.5,1.5,0.75,0.75,1.0,0.02,0.45,-0.92,157.69,-4.2,5.4
5.16,1.0,0.0,0.75,0.5,0.0,0.0,0.0,0.0,0.25,0.5,0.5,0.5,0.0,0.64,0.64,-0.42,69.44,19.2,7.6,0.5,1.0,1.25,0.5,1.25,2.0,0.25,0.0,0.25,1.5,0.75,0.75,1.0,0.02,0.58,-0.98,163.1,-2.1,2.6
5.18,1.0,0.0,1.0,0.75,0.0,0.0,0.0,0.0,0.25,0.5,0.75,0.5,0.25,0.64,0.64,-0.42,70.08,17.9,2.9,0.25,1.0,1.75,0.5,1.25,2.0,0.25,0.0,0.25,1.5,0.75,0.75,1.25,0.2,0.64,-1.11,167.05,-2.7,0.8
5.2,0.25,0.0,1.0,1.0,0.0,0.0,0.0,0.0,0.25,0.5,0.5,0.75,0.25,0.64,0.64,-0.48,69.5,15.2,-10.4,0.5,1.0,1.75,0.5,1.25,2.0,0.25,0.0,0.25,1.5,0.75,0.75,1.25,0.14,0.7,-1.23,170.28,-3.3,2.7
5.22,0.0,0.0,0.75,0.5,0.0,0.0,0.0,0.0,0.25,0.5,0.75,0.75,0.25,0.7,0.7,-0.48,66.09,11.8,-35.7,0.5,1.0,0.5,0.5,1.25,2.0,0.25,0.0,0.25,1.25,0.75,0.25,1.25,0.14,0.52,-0.98,162.87,1.0,2.7
5.24,0.25,0.0,0.75,1.0,0.0,0.0,0.0,0.0,0.0,0.5,0.75,0.75,0.25,0.64,0.64,-0.42,64.7,13.7,-16.8,0.25,1.0,1.5,0.5,1.25,2.0,0.25,0.0,0.25,1.25,0.75,0.75,1.25,0.14,0.58,-1.05,162.13,-2.3,1.1
