time,left pressure 0[N/cm²],left pressure 1[N/cm²],left pressure 2[N/cm²],left pressure 3[N/cm²],left pressure 4[N/cm²],left pressure 5[N/cm²],left pressure 6[N/cm²],left pressure 7[N/cm²],left pressure 8[N/cm²],left pressure 9[N/cm²],left pressure 10[N/cm²],left pressure 11[N/cm²],left pressure 12[N/cm²],left acceleration X[g],left acceleration Y[g],left acceleration Z[g],left total force[N],left center of pressure X[mm],left center of pressure Y[mm],right pressure 0[N/cm²],right pressure 1[N/cm²],right pressure 2[N/cm²],right pressure 3[N/cm²],right pressure 4[N/cm²],right pressure 5[N/cm²],right pressure 6[N/cm²],right pressure 7[N/cm²],right pressure 8[N/cm²],right pressure 9[N/cm²],right pressure 10[N/cm²],right pressure 11[N/cm²],right pressure 12[N/cm²],right acceleration X[g],right acceleration Y[g],right acceleration Z[g],right total force[N],right center of pressure X[mm],right center of pressure Y[mm]
0.02,0.0,0.0,0.0,0.0,0.0,0.0,0.0,0.0,0.0,0.0,0.0,0.0,0.0,-0.17,0.2,1.39,0.0,0.0,0.0,0.5,0.75,2.5,3.5,7.25,7.0,5.0,5.0,0.0,3.0,0.75,0.75,1.0,0.08,0.14,0.95,477.68,1.2,15.8
0.04,0.5,0.0,0.0,0.5,0.0,0.0,2.75,1.0,0.25,1.75,1.25,0.0,1.5,-0.3,0.39,1.52,37.7,2.3,-40.8,1.75,1.0,4.0,5.5,8.25,7.75,5.5,5.5,0.0,2.0,1.25,0.75,1.75,0.08,0.14,0.95,526.38,-1.9,21.8
0.06,0.0,0.0,0.5,0.5,0.0,0.0,0.5,0.75,0.25,1.5,1.25,0.25,1.5,-0.3,0.52,1.64,73.58,-0.3,-54.8,1.0,0.75,3.5,5.5,7.75,7.0,5.25,4.25,0.0,1.25,0.75,0.0,1.0,0.08,0.14,0.95,537.2,-2.2,29.3
0.08,0.0,0.0,0.0,0.0,0.0,0.0,0.5,0.75,0.25,1.5,0.75,0.5,1.5,-0.48,0.77,2.64,99.51,-6.2,-77.1,2.0,1.75,3.75,7.5,7.75,7.75,5.75,4.25,0.0,1.5,0.75,0.25,1.0,0.08,0.14,0.95,589.57,-3.8,32.7
0.1,0.0,0.0,0.0,0.25,0.0,0.0,0.75,1.0,0.5,1.25,1.25,0.25,1.5,-0.86,1.2,3.08,111.07,-3.1,-65.2,3.0,2.25,5.5,7.75,8.25,7.75,6.25,4.25,0.0,2.0,1.25,0.75,1.75,0.08,0.2,0.95,658.45,-5.6,30.2
0.12,0.0,0.0,0.75,0.5,0.0,0.0,0.5,0.75,0.25,1.5,1.25,0.25,1.5,-0.92,1.89,2.08,119.48,1.0,-50.6,3.25,2.25,7.0,9.25,9.75,7.75,7.25,4.25,0.25,1.75,1.25,0.75,1.75,0.02,0.2,0.89,767.94,-7.0,33.0
0.14,0.0,0.0,0.75,0.5,0.0,0.0,0.5,1.0,0.25,0.5,1.25,0.75,1.5,-0.3,3.08,1.39,118.58,3.4,-50.8,4.25,2.25,8.0,9.25,10.0,7.5,7.75,4.25,0.25,1.75,1.0,0.75,1.75,0.02,0.2,0.95,873.14,-8.2,35.2
0.16,0.0,0.0,0.75,0.5,0.0,0.0,0.5,0.75,0.25,0.0,1.25,0.5,1.5,0.77,3.45,1.14,112.79,5.7,-46.7,3.5,1.5,8.75,9.25,10.0,7.0,8.5,4.25,0.25,1.5,1.0,0.75,1.0,-0.05,0.2,0.95,942.85,-9.1,36.4
0.18,0.0,0.0,0.75,0.5,0.0,0.0,0.5,1.0,0.0,1.5,1.25,0.25,1.5,1.08,3.83,0.27,115.71,0.0,-50.6,5.5,2.25,9.25,9.5,9.0,7.0,8.75,4.25,0.25,1.75,0.5,0.75,1.0,0.02,0.2,0.95,991.45,-10.5,39.6
0.2,0.0,0.0,0.75,1.0,0.0,0.0,0.5,0.75,0.0,0.0,1.25,0.25,1.5,0.52,3.83,-0.3,110.13,6.3,-34.9,6.25,2.25,11.0,11.5,10.0,5.75,9.0,3.0,0.25,0.0,1.0,0.0,1.75,0.02,0.27,1.08,1035.84,-13.4,46.1
0.22,0.75,0.0,0.0,0.5,0.0,0.0,0.0,3.75,0.25,0.0,1.25,1.25,0.0,0.7,1.45,-0.8,116.62,-0.3,-37.0,6.25,1.25,10.5,11.0,8.75,4.5,9.0,3.0,0.0,0.0,0.5,0.0,1.0,0.02,0.27,1.14,1030.11,-14.8,48.6
0.24,0.0,0.0,0.0,0.0,0.0,0.0,1.25,0.0,0.0,0.0,0.75,0.0,0.0,-0.86,-0.48,0.77,84.95,20.5,-28.9,6.75,1.75,10.5,11.0,8.25,2.5,9.25,3.0,0.0,0.0,0.0,0.0,1.0,0.02,0.33,1.2,986.5,-16.7,51.2
0.26,0.0,0.0,0.0,0.0,0.0,0.0,0.0,0.0,0.75,3.25,0.0,4.5,0.0,-0.48,0.39,1.64,98.91,-0.2,-90.4,8.0,2.5,11.0,11.0,7.75,2.5,9.5,3.0,0.25,1.5,1.0,0.75,1.0,0.02,0.39,1.27,973.76,-16.3,44.8
0.28,0.0,0.0,0.0,0.0,0.0,0.0,0.5,1.0,0.0,4.25,3.0,4.25,5.25,0.08,0.27,2.08,159.18,-4.4,-90.4,7.75,1.5,11.5,7.5,7.5,0.0,9.25,3.0,0.0,0.0,0.75,0.25,1.0,0.14,0.52,1.58,894.9,-19.7,49.6
0.3,0.0,0.0,0.0,0.0,0.0,0.0,0.0,1.0,0.25,5.25,4.5,3.25,5.25,-0.17,0.27,1.58,231.48,-4.8,-88.3,8.25,1.25,8.75,5.25,3.5,0.0,8.25,1.5,0.0,0.0,0.0,0.0,1.0,0.27,0.89,2.2,747.71,-23.5,55.9
0.32,0.0,0.0,0.0,0.25,0.0,0.0,0.0,1.75,0.0,5.75,5.75,3.5,6.0,-0.17,0.14,1.08,294.73,-4.7,-85.6,7.25,0.25,7.0,2.5,3.5,0.0,7.25,1.5,0.0,0.0,0.0,0.25,0.5,0.58,1.08,2.27,556.82,-23.6,54.4
0.34,0.0,0.0,0.0,1.25,0.0,0.0,0.25,3.75,0.25,6.25,5.75,3.75,5.5,-0.11,0.14,1.08,358.74,-4.3,-75.0,5.5,0.0,4.75,0.75,2.75,0.0,5.75,2.75,0.0,0.0,0.0,0.0,1.0,0.39,0.77,2.58,380.54,-19.4,42.5
0.36,0.0,0.0,0.0,0.0,0.0,0.0,0.0,2.75,0.0,6.25,5.75,3.75,5.25,-0.11,0.08,0.95,389.55,-5.2,-84.4,1.75,0.0,2.75,0.75,1.75,0.0,3.5,1.5,0.0,0.0,0.0,0.0,1.0,0.58,0.2,2.58,243.77,-16.3,31.4
0.38,0.0,0.0,0.0,0.0,0.0,0.0,0.25,3.5,0.5,6.25,5.75,3.75,5.25,-0.11,0.08,0.95,408.15,-5.1,-81.6,0.5,0.0,1.0,0.25,0.5,0.0,2.0,1.5,0.0,0.0,0.0,0.0,0.75,0.77,-0.73,1.83,117.5,-9.6,6.8
0.4,0.0,0.0,0.0,0.25,0.0,0.0,0.5,4.0,0.25,6.25,5.75,3.75,5.5,-0.11,0.08,0.95,421.71,-5.1,-79.6,0.25,0.0,0.5,0.0,0.0,0.0,1.25,1.5,0.0,0.0,0.0,0.0,0.75,1.02,-0.36,2.2,5.24,-3.1,-20.0
0.42,0.0,0.0,0.0,0.0,0.0,0.0,0.5,4.25,0.75,6.25,5.75,3.0,5.25,-0.11,0.08,0.95,425.67,-5.5,-78.6,0.0,0.0,0.0,0.25,0.25,0.0,1.25,1.5,0.0,0.0,0.0,0.0,0.75,0.64,-1.48,1.45,0.0,3.7,-28.0
0.44,0.0,0.0,0.0,0.0,0.0,0.0,0.5,4.25,0.75,5.25,4.75,3.5,4.0,-0.11,0.08,0.95,405.95,-4.9,-77.8,0.0,0.0,0.5,0.5,0.0,0.0,1.0,1.75,0.0,0.0,0.0,0.0,0.75,0.39,-0.8,0.77,0.0,-1.0,-19.2
0.46,0.0,0.0,0.0,0.25,0.0,1.5,0.5,4.75,1.0,5.0,4.75,2.25,4.5,-0.11,0.08,0.95,390.12,-6.6,-67.6,0.0,0.0,0.5,0.0,0.0,0.0,1.25,2.0,0.0,0.0,0.0,0.0,1.0,0.33,-0.23,0.39,0.0,2.0,-34.4
0.48,0.0,0.0,0.0,0.0,0.0,1.25,0.75,4.5,0.5,4.25,4.0,1.75,3.75,-0.11,0.08,0.95,354.89,-7.2,-67.7,0.0,0.0,0.5,0.0,0.0,0.0,1.25,1.5,0.0,0.0,0.0,0.0,0.75,0.27,-0.23,0.33,0.0,-0.9,-28.1
0.5,0.25,0.0,0.0,1.25,0.0,2.25,0.75,4.5,0.75,4.0,3.0,2.0,2.75,-0.11,0.08,0.95,316.8,-5.9,-51.1,0.0,0.0,0.5,0.0,0.0,0.0,1.0,2.0,0.0,0.0,0.0,0.0,0.75,0.02,-0.23,1.02,0.0,2.3,-31.3
0.52,0.0,0.0,0.0,2.0,0.0,2.75,0.75,4.5,0.5,3.75,2.75,1.75,2.75,-0.11,0.08,0.95,288.81,-6.4,-45.6,0.0,0.0,0.0,0.0,0.25,0.0,1.25,1.75,0.0,0.0,0.0,0.0,0.75,-0.23,-0.17,1.08,0.0,6.3,-35.4
0.54,0.25,0.0,0.0,2.0,0.0,3.5,1.0,4.5,0.0,3.75,2.25,1.75,2.5,-0.11,0.08,0.95,276.07,-7.0,-39.6,0.0,0.0,0.5,0.0,0.0,0.0,1.0,1.5,0.0,0.0,0.0,0.0,0.75,-0.23,-0.05,0.95,0.0,0.1,-30.1
0.56,0.0,0.5,0.75,2.0,0.0,4.25,1.0,4.25,0.0,2.0,2.0,1.5,2.25,-0.11,0.08,0.95,260.11,-5.2,-25.7,0.0,0.0,0.25,0.0,0.0,0.0,1.0,1.5,0.0,0.0,0.0,0.0,0.5,-0.3,0.08,1.08,2.9,2.4,-31.2
0.58,0.5,1.0,0.5,3.5,4.75,4.75,1.25,4.25,0.5,2.25,1.75,1.25,1.75,-0.11,0.14,0.95,284.37,-3.0,1.3,0.0,0.0,0.5,0.0,0.0,0.0,1.0,1.5,0.0,0.0,0.0,0.0,0.75,-0.3,0.08,1.39,22.0,0.1,-30.1
0.6,2.75,1.0,1.5,3.75,6.5,5.0,1.5,4.25,0.5,2.0,1.75,1.0,1.75,-0.11,0.14,0.95,339.72,0.7,14.6,0.0,0.0,0.25,0.0,0.0,0.0,0.75,1.5,0.0,0.0,0.0,0.0,0.75,-0.17,0.2,1.83,35.58,4.9,-40.6
0.62,2.75,1.0,2.5,5.5,7.5,5.5,2.0,4.25,0.75,2.25,1.5,1.0,1.5,-0.11,0.14,0.95,424.78,2.3,20.0,0.0,0.0,0.5,0.0,0.0,0.0,0.75,1.5,0.0,0.0,0.0,0.0,0.75,-0.11,0.33,2.02,43.6,1.4,-32.3
0.64,3.5,1.0,2.25,6.5,7.5,6.0,2.5,4.25,0.5,2.0,1.5,0.75,1.5,-0.11,0.14,0.95,515.19,2.9,24.1,0.0,0.0,0.25,0.0,0.0,0.0,0.75,0.0,0.0,0.0,0.0,0.0,0.75,-0.11,0.45,2.33,36.66,-7.8,-42.7
0.66,4.25,1.0,4.25,7.5,7.5,6.5,3.25,3.75,0.5,2.0,1.5,0.75,1.5,-0.11,0.14,1.02,612.77,5.7,28.7,0.0,0.0,0.25,0.0,0.0,0.0,0.75,0.25,0.0,0.0,0.0,0.0,0.75,-0.05,0.83,3.02,30.18,-4.1,-42.1
0.68,4.5,1.0,5.5,7.75,8.25,6.5,3.5,2.75,0.25,2.0,1.5,0.75,1.5,-0.11,0.2,1.02,690.0,7.2,32.5,0.5,0.5,0.25,0.75,0.0,0.5,0.75,0.25,0.25,0.0,0.0,0.0,1.25,0.08,2.02,2.58,40.17,-6.0,5.0
0.7,4.75,1.0,5.5,8.25,0.0,6.0,4.25,2.75,0.0,2.0,1.25,0.75,1.5,-0.17,0.2,1.02,676.87,10.9,28.8,0.25,0.25,0.25,0.75,1.5,0.75,1.25,1.5,0.25,1.5,0.75,0.75,1.5,-0.42,2.83,0.95,83.89,1.8,-22.5
0.72,4.25,1.25,2.25,9.5,0.0,6.5,4.5,2.0,0.25,1.25,1.25,0.75,1.5,-0.17,0.2,1.02,628.9,8.9,29.7,0.5,0.5,1.75,0.75,2.5,1.5,1.25,0.75,0.0,1.5,0.75,0.5,1.5,-1.73,3.64,0.08,138.82,-2.7,3.7
0.74,6.0,1.25,5.5,10.0,0.0,5.75,4.75,1.0,0.25,1.75,1.25,0.75,1.5,-0.17,0.2,1.08,598.47,13.8,36.3,0.0,0.0,1.0,0.0,2.75,0.0,1.25,2.75,0.0,1.75,0.75,0.75,1.5,-1.98,4.08,-0.36,173.76,2.5,-23.9
0.76,5.5,0.0,7.25,10.0,0.0,0.0,5.0,1.0,0.25,0.0,0.0,0.25,1.5,-0.23,0.27,1.33,529.71,24.2,48.5,0.5,0.5,0.25,0.75,0.0,1.25,0.75,2.25,0.0,1.5,1.0,0.75,1.5,-2.3,3.52,-2.23,185.64,3.2,-30.0
0.78,6.5,0.0,7.25,8.75,0.0,0.0,5.0,1.0,0.25,1.5,0.25,0.5,0.0,-0.3,0.33,1.45,479.23,24.6,49.3,0.0,0.0,0.25,0.0,0.0,1.25,0.75,0.25,0.0,3.25,0.75,2.5,1.5,-0.36,-0.8,1.08,186.38,5.1,-68.3
0.8,7.25,1.0,6.75,6.75,0.0,0.0,4.5,1.0,0.0,0.5,0.0,0.0,0.0,-0.48,0.45,2.14,417.55,26.8,62.0,0.0,0.5,1.75,0.75,2.75,1.0,1.25,3.0,0.0,6.0,2.5,4.25,3.5,-0.05,0.2,0.64,251.03,1.9,-43.8
0.82,7.25,1.0,5.5,3.75,0.0,0.0,3.5,0.0,0.0,0.5,0.5,0.5,0.0,-0.67,0.83,2.89,350.29,28.7,61.0,0.0,0.5,0.5,0.75,3.0,2.0,1.25,3.0,0.0,7.75,6.0,4.75,5.0,-0.42,0.77,2.83,342.71,3.9,-53.5
0.84,6.5,0.0,4.25,2.0,0.0,0.0,2.0,0.0,0.0,1.75,0.25,0.75,0.0,-0.73,0.83,2.95,279.17,26.4,47.8,0.0,0.0,0.25,0.5,0.0,2.0,0.75,3.5,0.25,8.25,6.25,3.5,4.5,0.7,0.52,2.89,427.2,5.6,-68.3
0.86,0.0,0.0,2.5,0.0,0.0,0.0,0.75,0.0,0.0,0.0,0.5,0.0,0.0,-0.55,0.45,3.02,173.94,33.7,38.1,0.0,0.0,0.5,0.75,0.0,2.5,1.25,5.5,0.75,7.75,7.0,3.5,4.5,0.08,0.14,0.95,505.06,5.0,-62.0
0.88,0.0,0.0,0.0,0.0,0.0,0.0,0.0,0.0,0.0,1.0,0.0,0.0,0.0,-0.86,-1.11,1.45,60.93,-15.7,-75.5,0.0,0.0,0.25,0.75,0.0,2.5,1.75,5.25,1.0,7.75,8.0,4.0,4.5,0.08,0.08,0.95,551.64,4.2,-63.4
0.9,0.0,0.0,0.0,1.0,0.0,0.0,0.5,1.25,0.0,1.5,1.25,0.0,0.0,-0.98,-0.86,0.77,0.0,-1.0,-35.4,0.25,0.25,0.5,0.75,1.25,3.75,1.75,5.5,1.25,7.5,8.0,3.5,5.25,0.08,0.08,0.95,590.62,4.3,-53.0
0.92,0.0,0.0,0.0,1.75,0.0,0.0,0.5,1.0,0.0,1.75,1.25,0.75,0.75,-0.61,-2.61,2.08,0.0,0.5,-41.8,0.5,0.25,1.0,1.25,2.75,4.75,3.25,5.5,1.5,7.5,7.0,4.0,3.75,0.08,0.08,0.95,621.06,2.8,-39.4
0.94,0.0,0.0,0.0,0.25,0.0,0.0,0.5,1.0,0.0,1.75,1.25,0.5,1.5,-0.11,-1.05,1.52,0.0,-5.4,-71.4,1.75,1.25,3.25,3.25,4.75,6.0,4.0,5.5,1.5,7.0,7.5,3.0,3.75,0.08,0.08,0.95,702.83,-0.8,-17.1
0.96,0.0,0.0,0.75,0.25,0.0,0.0,0.5,1.0,0.0,0.5,1.25,0.25,1.5,-0.36,-0.48,0.52,11.15,1.9,-51.2,0.5,0.5,3.0,2.5,5.75,5.75,4.5,5.5,1.0,5.5,5.25,2.75,3.5,0.08,0.08,0.95,725.41,0.6,-16.0
0.98,0.0,0.0,0.75,1.5,0.0,0.0,0.5,1.0,0.25,1.75,1.25,0.75,1.25,-0.61,-0.23,0.45,34.41,2.8,-39.7,1.0,1.25,3.75,3.0,6.0,6.0,5.0,6.0,1.0,4.75,5.0,2.25,2.0,0.14,0.08,0.95,745.11,-1.2,-4.4
1.0,0.0,0.0,0.75,0.5,0.0,0.0,0.5,1.0,0.25,1.25,1.25,0.75,1.5,-0.36,-0.23,0.89,53.63,1.5,-53.3,1.75,0.5,3.75,3.25,6.75,6.5,5.0,5.5,0.75,1.75,2.25,0.75,1.0,0.14,0.08,0.95,691.6,-2.2,15.9
1.02,0.0,0.0,0.75,1.0,0.0,0.0,0.5,0.75,0.0,1.5,1.25,0.75,1.5,-0.17,-0.11,1.14,71.3,2.2,-47.5,0.75,0.75,5.25,3.5,5.75,6.0,5.0,4.5,0.25,1.5,1.0,0.5,1.0,0.08,0.08,0.95,616.42,-3.9,22.4
1.04,0.0,0.0,1.0,1.25,0.0,0.0,0.5,1.0,0.0,1.25,1.25,0.5,1.5,-0.17,0.2,1.2,89.56,3.6,-37.5,1.25,0.75,3.25,3.5,6.25,6.25,5.75,4.25,0.25,1.25,0.75,0.25,0.75,0.08,0.14,0.95,527.83,-2.5,25.8
1.06,0.0,0.0,0.75,1.0,0.0,0.0,0.5,0.5,0.0,1.5,1.0,0.75,1.5,-0.3,0.33,1.33,105.05,2.6,-46.8,1.25,0.75,3.25,4.5,6.75,6.5,5.5,4.25,0.0,1.5,1.0,0.25,1.0,0.08,0.14,0.95,493.23,-2.3,25.3
1.08,0.0,0.0,0.0,1.0,0.0,0.0,0.5,1.0,0.0,1.5,1.0,0.75,1.5,-0.3,0.33,1.7,114.99,-2.6,-58.1,1.5,1.0,4.0,5.5,7.25,6.5,5.5,4.25,0.0,1.0,0.75,0.25,1.0,0.08,0.14,0.95,494.55,-3.9,30.4
1.1,0.0,0.0,0.75,0.5,0.0,0.0,0.5,1.0,0.0,1.5,0.75,0.75,1.5,-0.23,0.39,2.08,122.6,0.0,-53.1,2.0,1.0,5.5,5.5,8.0,6.75,6.0,4.25,0.0,0.5,1.0,0.25,1.5,0.08,0.14,0.95,524.16,-5.5,31.8
1.12,0.0,0.0,1.0,0.25,0.0,0.0,0.5,1.0,0.0,0.5,0.5,0.25,1.0,-0.3,0.58,2.77,106.57,4.2,-35.2,2.0,1.25,6.25,7.25,7.75,7.0,6.25,3.75,0.25,0.5,0.75,0.0,1.0,0.08,0.14,0.95,568.39,-7.1,37.3
1.14,0.0,0.0,0.75,0.25,0.0,0.0,0.5,0.5,0.0,0.0,0.75,0.5,0.75,-0.36,0.89,3.33,83.06,9.3,-38.4,4.5,2.25,8.0,9.25,9.0,7.5,7.25,4.25,0.0,0.0,1.5,0.25,1.25,0.08,0.14,0.95,676.87,-9.5,40.9
1.16,0.0,0.0,0.75,0.5,0.0,0.0,0.5,0.75,0.0,0.0,1.25,0.25,1.5,-0.05,3.33,5.7,72.86,5.2,-44.1,5.25,2.25,8.5,9.5,9.75,7.5,7.5,4.25,0.0,1.5,1.25,0.75,1.75,0.02,0.2,0.95,803.15,-9.1,36.8
1.18,0.0,0.0,0.75,1.0,0.0,0.0,0.5,1.0,0.0,0.0,1.25,0.75,1.5,0.08,2.2,1.45,76.71,5.6,-40.7,4.5,1.5,8.75,9.25,9.0,6.75,7.5,3.25,0.0,0.25,0.75,0.75,1.0,0.02,0.2,1.02,869.31,-10.9,42.3
1.2,0.0,0.0,0.25,1.0,0.0,0.0,0.5,1.0,0.0,0.0,1.25,0.5,1.5,0.52,3.02,0.95,80.57,2.6,-46.8,6.25,2.0,9.0,11.0,8.75,6.75,8.0,3.0,0.0,1.25,0.5,0.75,1.25,0.02,0.2,1.02,945.93,-11.6,43.0
1.22,0.5,0.0,0.75,1.0,0.0,0.0,0.25,0.0,0.0,0.0,1.0,0.75,1.25,1.64,3.89,0.02,79.99,12.4,-25.8,6.75,2.25,11.0,11.5,10.5,6.0,8.5,3.25,0.0,0.75,1.0,0.75,1.0,0.02,0.27,1.02,1021.91,-13.0,45.1
1.24,1.0,0.0,0.75,1.0,0.0,0.0,0.5,1.0,0.0,0.0,1.25,0.25,1.5,1.45,4.02,-0.11,87.67,9.3,-17.3,7.5,1.75,11.0,11.0,8.75,4.5,8.5,3.25,0.0,0.0,1.0,0.0,1.0,0.02,0.27,1.08,1051.08,-15.2,48.9
1.26,0.0,0.0,0.5,0.0,0.0,0.0,0.25,0.75,0.0,0.0,1.25,0.0,1.5,0.83,3.27,-1.48,79.87,0.7,-61.7,7.75,2.25,11.0,11.0,8.75,2.5,8.75,3.0,0.0,0.0,0.5,0.0,1.0,0.02,0.27,1.2,1043.82,-16.8,51.6
1.28,0.0,0.0,0.0,0.0,0.0,0.0,0.0,0.0,0.0,0.0,0.0,0.0,0.0,-1.55,-0.23,1.33,51.07,0.0,0.0,8.0,2.5,11.5,11.0,7.25,2.5,8.5,1.5,0.25,0.0,0.75,0.75,1.0,0.08,0.33,1.39,1008.71,-18.5,51.4
1.3,0.0,0.0,0.0,0.0,0.0,0.0,0.0,0.0,0.0,0.0,0.0,0.0,3.5,-0.73,0.39,1.7,46.01,-13.7,-109.9,9.25,2.75,11.5,9.0,6.25,1.75,8.75,2.5,0.25,1.5,0.75,0.75,1.5,0.2,0.52,1.7,967.37,-18.0,45.7
1.32,0.0,0.0,0.0,0.0,0.0,0.0,0.0,0.0,0.0,0.0,0.0,0.0,0.0,0.14,0.27,2.14,21.64,0.0,0.0,8.75,2.25,9.5,4.25,6.5,1.25,7.75,1.5,0.25,1.5,0.25,0.75,1.0,0.33,0.89,2.27,848.43,-18.4,47.9
1.34,0.0,0.0,0.0,0.0,0.0,0.0,0.0,0.0,0.5,4.75,0.0,3.75,5.25,-0.3,0.33,1.89,96.67,-7.6,-96.0,8.75,1.5,7.5,3.5,3.0,1.25,6.75,2.25,0.25,1.5,1.0,0.75,1.25,0.77,1.02,2.39,706.22,-18.6,40.1
1.36,0.0,0.0,0.0,1.0,0.0,0.0,0.0,1.0,0.75,7.25,5.75,4.75,5.25,-0.23,0.14,1.33,212.27,-2.9,-81.1,5.5,0.25,5.5,0.75,3.25,1.5,5.25,2.0,0.25,1.5,0.75,0.75,1.0,0.52,0.64,2.77,516.77,-15.3,30.5
1.38,0.0,0.0,1.5,0.0,0.0,0.0,0.5,1.75,0.75,6.25,7.0,3.75,6.25,-0.11,0.14,1.08,312.91,-1.2,-76.3,1.75,0.0,3.0,0.75,0.25,0.0,2.75,1.5,0.0,0.0,0.25,0.0,0.75,0.77,-0.05,2.64,304.65,-20.5,29.5
1.4,0.0,0.0,0.0,1.5,0.0,0.0,0.5,2.0,1.25,7.25,7.5,4.75,6.0,-0.11,0.14,0.95,408.94,-2.0,-76.2,0.75,0.5,3.25,1.25,3.25,0.25,2.0,2.25,0.0,0.25,1.0,0.75,1.0,0.95,-1.17,0.83,206.44,-9.7,16.2
1.42,0.0,0.0,0.5,1.75,0.0,0.0,0.5,2.75,1.5,7.25,7.5,4.0,6.0,-0.11,0.08,0.95,486.05,-1.7,-70.8,0.5,0.0,2.5,0.75,2.25,0.0,1.75,1.5,0.0,0.0,0.25,0.0,1.0,1.52,-1.42,1.52,109.67,-10.9,22.0
1.44,0.0,0.0,0.0,1.5,0.0,0.0,0.25,2.75,1.5,7.0,7.0,4.75,5.25,-0.11,0.08,0.95,519.02,-2.2,-74.5,0.5,0.0,0.25,0.5,0.25,0.0,1.25,1.5,0.0,0.0,0.0,0.0,0.75,0.77,-1.05,1.89,20.83,-4.0,-4.3
1.46,0.0,0.0,0.0,2.0,0.0,0.0,0.5,2.75,1.5,6.75,7.5,4.75,6.0,-0.11,0.08,0.95,535.99,-1.7,-72.8,0.25,0.0,0.5,0.5,0.0,0.0,1.25,1.25,0.0,0.0,0.0,0.0,0.75,0.45,-0.48,0.7,0.0,-6.3,-8.3
1.48,0.0,0.0,0.0,2.0,0.0,0.0,0.5,2.75,0.75,7.0,7.0,4.0,5.5,-0.11,0.08,0.95,531.23,-2.4,-72.0,0.0,0.0,0.0,0.0,0.0,0.0,1.25,1.5,0.0,0.0,0.0,0.0,0.5,0.39,-0.36,0.39,0.0,4.9,-37.6
1.5,0.0,0.0,0.0,2.0,0.0,0.0,0.75,2.75,1.0,6.25,6.5,3.75,5.25,-0.11,0.08,0.95,513.34,-2.0,-70.4,0.0,0.0,0.5,0.0,0.5,0.0,0.75,1.25,0.0,0.0,0.0,0.0,0.5,0.08,-0.3,1.14,0.0,-0.4,-10.2
1.52,0.0,0.0,0.75,0.0,0.0,0.0,0.75,2.75,1.25,5.75,5.75,3.5,4.5,-0.11,0.08,0.95,467.05,-2.1,-75.1,0.0,0.0,0.5,0.25,0.5,0.0,0.75,1.25,0.0,0.0,0.25,0.0,0.5,-0.17,-0.17,1.33,0.0,-2.2,-9.6
1.54,1.0,0.0,0.0,0.0,0.0,0.75,0.5,3.0,1.25,5.5,5.75,3.0,4.0,-0.11,0.08,0.95,416.43,-2.7,-68.2,0.0,0.0,1.5,0.5,0.25,0.0,1.0,1.5,0.0,0.25,0.0,0.75,0.75,-0.17,0.08,1.2,0.0,-8.1,-14.8
1.56,1.0,0.0,0.0,2.0,0.0,0.0,0.75,3.0,1.25,5.25,5.5,3.0,4.0,-0.11,0.08,0.95,379.35,-0.3,-60.0,1.25,0.5,1.5,0.75,3.0,0.0,1.5,2.75,0.0,1.5,1.0,0.75,1.25,-0.11,0.33,1.02,43.49,-3.9,-0.3
1.58,0.0,0.0,0.25,2.0,0.0,1.5,1.0,3.0,1.25,5.25,5.0,2.75,3.25,-0.11,0.08,0.95,343.55,-2.3,-56.6,1.0,0.5,1.25,1.0,2.75,0.0,1.25,2.25,0.0,1.5,1.0,0.75,1.0,-0.05,0.33,1.33,118.09,-4.0,0.0
1.6,2.5,0.0,0.0,2.0,0.0,1.5,1.25,4.0,0.75,4.5,4.5,2.75,2.75,-0.11,0.08,0.95,324.57,0.3,-40.9,0.5,0.5,2.25,0.75,3.0,0.0,1.25,2.5,0.0,1.5,0.75,0.75,1.25,-0.05,0.39,1.83,180.74,-4.3,-0.1
1.62,1.75,0.25,0.0,2.0,0.0,2.25,1.25,3.75,0.75,4.0,4.5,2.25,2.75,-0.11,0.08,0.95,312.27,-0.8,-39.2,0.75,0.5,1.5,0.75,2.5,0.0,1.25,2.0,0.0,1.5,0.75,0.5,1.0,0.08,0.52,2.14,204.05,-4.2,1.3
1.64,2.75,0.5,1.5,2.75,0.0,2.25,1.5,4.25,0.75,3.75,3.5,1.75,2.75,-0.11,0.08,0.95,311.77,2.6,-21.4,0.5,0.5,1.75,0.75,2.5,0.0,1.25,2.0,0.0,1.5,1.5,0.5,1.5,0.33,0.64,2.52,212.06,-4.0,-7.2
1.66,3.5,0.75,2.5,3.75,3.25,3.0,1.75,4.25,0.75,3.5,3.0,1.75,2.25,-0.11,0.08,0.95,348.25,4.1,-0.6,0.5,0.5,2.0,0.75,2.5,0.0,1.0,2.0,0.0,1.5,0.75,0.75,1.25,0.39,1.08,2.89,215.55,-4.5,-2.4
1.68,4.0,1.25,3.5,4.75,0.0,3.5,2.0,3.75,0.75,2.5,3.0,1.5,1.5,-0.11,0.14,0.95,376.57,8.3,7.2,0.5,0.5,1.75,0.75,3.0,0.75,1.0,2.0,0.0,1.5,0.75,0.75,1.0,0.27,1.89,2.39,223.1,-2.5,2.4
1.7,4.25,1.0,4.5,6.0,0.0,4.25,2.5,2.75,0.75,2.0,2.0,1.0,1.5,-0.11,0.14,0.95,405.91,10.4,19.1,0.5,0.5,1.75,1.0,2.75,0.75,1.25,2.25,0.0,1.5,0.75,0.75,1.25,-0.11,2.39,1.33,227.18,-2.5,0.0
1.72,4.5,0.0,5.5,7.0,6.75,4.75,2.75,2.75,0.75,2.0,1.75,0.75,1.5,-0.11,0.14,1.02,482.62,8.4,27.8,0.0,0.5,0.5,0.75,0.0,1.5,0.75,2.0,0.0,1.5,0.25,0.75,0.5,-0.61,2.83,0.64,202.41,4.1,-18.8
1.74,5.5,1.0,6.25,7.5,0.0,5.0,3.0,2.75,0.5,2.0,1.5,0.75,1.5,-0.11,0.14,1.14,521.94,12.4,28.4,0.0,0.5,1.0,0.75,3.0,0.75,1.25,2.75,0.0,1.0,0.5,0.5,1.5,-1.73,3.58,0.14,195.89,1.6,-4.2
1.76,5.25,1.0,6.25,8.25,0.0,5.0,3.25,1.5,0.25,2.0,1.5,0.75,1.5,-0.11,0.2,1.2,546.01,13.5,31.5,0.0,0.5,0.75,0.75,0.5,0.0,1.0,2.25,0.0,1.5,0.75,0.75,0.75,-1.36,3.52,0.2,166.69,-0.6,-25.6
1.78,6.5,1.25,6.5,8.75,0.0,4.5,3.5,1.25,0.25,2.0,1.25,0.75,1.5,-0.23,0.2,1.14,555.84,15.1,35.9,0.0,0.0,1.25,0.0,1.5,0.0,0.75,1.5,0.0,1.5,0.5,0.75,1.0,-0.36,1.83,-1.3,144.96,-0.4,-25.6
1.8,6.75,1.0,7.25,7.5,0.0,0.0,3.5,1.0,0.25,0.5,0.75,0.0,1.5,-0.36,0.27,1.7,516.49,23.7,48.1,0.0,0.0,0.0,0.0,0.0,0.0,0.25,1.5,0.0,5.75,1.0,2.5,4.0,1.33,-0.05,1.39,160.98,9.0,-86.1
1.82,7.25,0.75,6.75,3.75,0.0,0.0,3.5,0.25,0.25,0.0,1.25,0.5,0.0,-0.48,0.39,2.77,438.58,29.1,57.0,0.0,0.0,0.25,0.0,0.0,2.75,0.0,3.75,0.0,8.75,3.5,4.0,6.75,0.89,0.39,2.39,255.18,9.2,-72.7
1.84,6.5,0.0,4.25,2.25,0.0,0.0,2.0,0.75,0.25,1.5,0.25,0.0,0.0,-0.48,0.83,3.39,345.82,25.5,51.7,0.0,0.0,0.25,0.5,0.0,2.5,0.25,6.25,0.0,10.0,5.75,3.75,8.25,0.08,0.58,3.08,373.43,8.4,-70.5
1.86,3.25,0.0,0.0,2.0,0.0,0.0,0.0,0.0,0.0,0.5,0.0,0.0,0.0,-0.42,-0.05,2.33,237.95,23.8,67.5,0.5,0.5,0.25,0.75,0.5,5.25,0.0,7.5,0.25,10.5,5.75,3.5,8.0,0.2,0.2,1.33,532.09,8.7,-56.7
1.88,0.0,0.0,0.0,0.0,0.0,0.0,0.0,0.0,0.0,0.0,0.0,0.0,0.0,-0.67,-1.05,2.2,108.47,0.0,0.0,0.5,0.0,0.5,0.5,3.0,6.25,0.25,8.25,0.25,8.5,5.25,2.5,6.75,0.2,0.14,1.14,640.43,9.0,-44.5
1.9,0.25,0.0,0.0,0.25,0.0,0.0,0.0,0.0,0.0,0.0,0.0,0.0,0.0,-0.11,-2.86,-0.48,0.0,25.5,76.7,0.0,0.25,0.25,0.0,1.75,7.75,0.25,8.5,0.0,7.75,3.5,0.0,5.5,0.2,0.14,1.02,648.0,13.1,-39.4
1.92,0.0,0.0,1.25,0.0,0.0,0.0,0.0,0.0,0.0,0.0,0.0,0.0,0.0,-0.42,-1.11,1.27,0.0,38.2,61.0,0.0,0.75,0.25,0.0,3.5,8.75,0.25,7.75,0.0,7.5,2.5,1.5,3.75,0.2,0.14,0.95,617.73,12.0,-28.6
1.94,0.0,0.0,0.0,0.0,0.0,0.0,2.25,0.0,0.0,0.0,0.0,0.0,0.0,-0.36,-0.8,-0.11,0.0,32.4,27.3,0.5,1.5,0.25,0.75,4.25,9.5,0.75,8.25,0.0,6.75,3.0,1.5,3.75,0.2,0.14,0.95,608.47,9.9,-19.6
1.96,0.0,0.0,0.0,1.0,0.0,0.0,2.25,0.0,0.25,1.25,0.0,0.75,0.0,-0.67,-0.48,0.08,0.0,9.8,-21.8,0.5,1.25,0.5,0.75,6.0,10.0,1.0,8.25,0.25,6.5,2.25,1.0,3.5,0.2,0.14,0.95,623.19,9.8,-12.7
1.98,0.0,0.0,0.0,0.0,0.0,0.0,0.0,0.0,0.0,0.0,0.0,0.0,0.0,-0.36,-0.55,0.52,0.0,0.0,0.0,0.0,1.25,0.5,0.75,6.0,10.0,0.5,8.25,0.25,5.75,2.5,1.0,3.0,0.2,0.08,0.95,623.76,10.3,-12.2
2.0,0.0,0.0,0.0,0.0,0.0,0.0,0.0,0.0,0.0,0.0,0.0,0.0,0.0,-0.05,-0.23,0.95,0.0,0.0,0.0,0.0,1.25,0.5,0.75,6.0,10.5,0.25,8.0,0.25,5.0,1.75,0.75,2.75,0.2,0.08,0.95,612.44,11.0,-7.9
2.02,0.0,0.0,0.0,0.0,0.0,0.0,0.0,0.0,0.0,0.0,0.0,0.0,0.0,0.02,0.2,1.02,0.0,0.0,0.0,0.0,1.25,0.5,0.75,6.0,11.0,0.5,7.75,0.25,4.5,1.5,0.25,2.0,0.2,0.08,0.95,572.78,11.3,-2.0
2.04,0.0,0.0,0.0,0.0,0.0,0.0,0.0,0.0,0.0,0.0,0.0,0.0,0.0,-0.11,0.77,1.2,0.0,0.0,0.0,0.0,0.25,0.5,0.0,5.5,10.0,0.0,7.5,0.0,2.5,1.25,0.0,1.0,0.2,0.14,0.95,482.43,13.2,1.2
2.06,0.0,0.0,0.0,0.0,0.0,0.0,0.0,0.0,0.0,0.0,0.0,0.0,0.0,-0.05,1.39,1.2,0.0,0.0,0.0,0.0,1.25,0.0,0.75,5.75,11.0,0.25,7.5,0.25,3.5,0.75,0.75,2.0,0.2,0.14,0.89,438.74,12.2,-1.2
2.08,0.0,0.0,0.0,0.0,0.0,0.0,0.0,0.0,0.0,0.0,0.0,0.0,0.0,0.02,1.39,1.2,0.0,0.0,0.0,0.25,1.25,0.0,0.75,5.75,11.0,0.25,7.0,0.25,3.5,1.25,0.75,1.75,0.27,0.14,0.89,418.21,11.5,-0.2
2.1,0.0,0.0,0.0,0.0,0.0,0.0,0.0,0.0,0.0,0.0,0.0,0.0,0.0,-0.11,1.52,1.39,0.0,0.0,0.0,0.0,1.25,0.5,0.75,6.25,11.0,0.25,7.5,0.25,3.5,0.75,0.25,1.75,0.27,0.14,0.89,427.14,11.6,3.0
2.12,0.0,0.0,0.0,0.0,0.0,0.0,0.0,0.0,0.0,0.0,0.0,0.0,0.0,-0.36,1.45,1.39,0.0,0.0,0.0,0.25,1.25,0.5,0.75,5.75,11.0,0.75,7.0,0.25,3.25,0.75,0.0,1.75,0.33,0.14,0.83,433.33,11.2,5.0
2.14,0.0,0.0,0.0,0.0,0.0,0.0,0.0,0.0,0.0,0.0,0.0,0.0,0.0,-0.48,1.27,1.2,0.0,0.0,0.0,0.0,0.25,0.5,0.0,5.25,10.0,0.25,7.0,0.0,1.5,1.0,0.0,1.0,0.39,0.14,0.77,405.72,13.1,5.0
2.16,0.0,0.0,0.0,0.5,0.0,0.0,0.0,0.0,0.0,1.5,0.0,0.25,0.0,-0.67,1.14,1.27,8.08,-5.4,-48.5,0.0,0.25,0.0,0.0,4.75,10.0,0.25,7.0,0.0,2.0,0.5,0.25,1.0,0.39,0.14,0.7,367.68,14.6,1.7
2.18,0.0,0.0,0.0,0.0,0.0,0.0,0.0,0.0,0.0,0.5,0.0,0.0,0.25,-3.55,3.77,-0.11,12.46,-15.0,-87.1,0.0,0.0,0.0,0.0,4.5,9.75,0.0,7.25,0.0,2.5,0.0,0.0,1.0,0.33,0.14,0.83,330.16,15.9,0.3
2.2,0.0,0.0,0.75,0.0,0.0,0.0,0.0,0.0,0.0,0.5,0.0,0.0,0.25,-3.55,4.14,-1.36,20.03,11.8,-12.3,0.0,0.0,0.25,0.0,3.75,9.5,0.25,7.75,0.0,2.75,1.5,0.25,1.75,0.33,0.14,0.89,321.11,13.9,-10.3
2.22,0.0,0.0,0.75,0.25,0.0,0.0,0.5,0.75,0.0,1.25,1.25,0.75,1.5,0.7,0.33,-0.11,56.32,1.2,-58.7,0.0,0.0,0.0,0.0,3.25,9.5,0.5,7.75,0.0,3.5,0.5,0.25,1.0,0.27,0.14,0.89,314.99,15.4,-8.7
2.24,0.25,0.0,0.75,0.5,0.0,0.0,0.25,0.75,0.0,1.5,1.0,0.75,1.0,0.14,0.83,1.33,83.86,2.6,-46.2,0.0,0.5,0.0,0.75,3.25,10.5,0.0,7.75,0.25,4.75,1.25,0.75,2.25,0.27,0.08,0.89,342.94,13.5,-14.4
2.26,0.0,0.0,0.75,0.5,0.0,0.0,0.5,1.0,0.25,1.25,1.0,0.75,1.25,-0.36,0.64,0.64,108.67,1.7,-50.5,0.0,0.75,0.5,0.75,5.75,10.5,0.75,8.5,0.25,4.75,1.5,0.5,1.5,0.2,0.08,0.95,387.08,11.3,-4.8
2.28,0.0,0.0,0.5,0.25,0.0,0.0,0.25,1.0,0.0,1.25,0.75,0.75,1.5,-0.55,0.33,0.77,118.52,-2.4,-63.2,0.5,0.75,0.5,0.75,5.75,10.5,1.25,8.25,0.0,3.5,1.5,0.75,2.0,0.2,0.14,0.95,435.05,10.3,-2.5
2.3,1.0,0.0,0.75,0.25,0.0,0.0,0.25,0.75,0.0,1.25,1.0,0.75,1.25,-0.55,0.02,0.95,124.85,5.3,-37.1,0.5,0.25,0.25,0.5,6.0,9.25,1.0,8.0,0.25,4.5,1.5,0.75,1.75,0.2,0.08,0.95,456.11,10.8,-7.2
2.32,0.5,0.0,0.75,0.25,0.0,0.0,0.25,0.25,0.0,1.5,1.25,0.75,1.75,-0.55,-0.23,0.7,125.91,3.0,-53.7,0.0,0.0,0.5,0.0,6.0,9.25,0.75,7.75,0.25,4.5,1.5,0.75,1.75,0.2,0.14,0.89,460.05,11.8,-9.9
2.34,0.0,0.0,0.75,0.25,0.0,0.0,0.25,1.0,0.0,1.0,1.25,0.75,1.5,-0.48,-0.05,0.7,126.13,0.6,-58.8,1.25,1.25,0.5,0.75,6.5,10.5,1.25,7.75,0.25,4.5,1.5,0.75,2.25,0.14,0.14,0.89,490.93,9.0,-0.5
2.36,0.0,0.0,0.75,0.5,0.0,0.0,0.25,0.75,0.0,1.0,1.0,0.75,1.5,-0.61,-0.05,0.83,123.71,1.5,-54.2,1.75,1.25,0.5,1.0,7.5,10.5,1.25,7.5,0.25,3.5,1.5,0.75,2.0,0.14,0.08,0.95,524.87,7.8,5.5
2.38,0.0,0.0,0.75,0.5,0.0,0.0,0.5,0.75,0.0,1.25,1.25,0.75,1.5,-0.61,-0.05,0.83,122.31,1.7,-54.3,2.0,1.25,1.0,1.75,7.5,10.5,2.0,7.25,0.25,3.25,1.5,0.75,1.75,0.08,0.08,0.95,571.75,6.0,9.4
2.4,0.0,0.0,0.75,0.25,0.0,0.0,0.25,0.75,0.0,1.5,1.25,0.75,0.25,-0.36,-0.23,0.83,112.25,3.1,-49.5,3.0,2.0,2.25,2.0,7.75,9.5,2.5,6.75,0.25,3.25,1.25,0.75,1.75,0.14,0.14,0.95,613.77,2.6,15.8
2.42,0.0,0.0,0.75,0.25,0.0,0.0,0.25,1.0,0.0,1.5,1.25,0.75,0.25,-0.3,-0.11,0.64,105.58,2.3,-49.1,3.25,2.25,2.75,2.5,7.75,9.25,3.0,6.0,0.25,2.75,1.0,0.75,1.25,0.14,0.14,0.95,642.32,0.8,21.9
2.44,0.0,0.0,0.75,0.0,0.0,0.0,0.25,0.75,0.0,1.25,1.0,0.75,0.25,-0.36,0.2,0.58,91.75,3.0,-52.7,2.0,1.25,3.25,2.0,8.0,8.5,3.5,5.5,0.25,1.75,1.0,0.5,2.0,0.14,0.14,0.89,630.49,1.1,19.2
2.46,0.0,0.0,0.75,0.5,0.0,0.0,0.25,0.5,0.0,0.75,1.25,0.0,0.25,0.08,0.89,0.7,75.33,7.6,-27.8,3.5,2.0,3.25,3.25,7.75,8.0,5.0,5.5,0.5,1.5,1.25,0.0,1.5,0.08,0.14,0.95,632.45,-2.0,27.1
2.48,0.0,0.0,0.25,0.5,0.0,0.0,0.25,0.75,0.0,0.0,1.25,0.0,0.25,-0.11,1.39,0.64,59.78,6.3,-31.8,3.25,0.75,4.75,3.5,6.75,7.75,5.5,4.25,0.25,0.25,0.0,0.0,1.0,0.08,0.14,1.08,595.35,-4.7,36.7
2.5,0.0,0.0,0.25,0.25,0.0,0.0,0.5,1.0,0.0,0.0,1.25,0.75,1.25,-0.55,-0.36,0.02,60.25,1.4,-63.2,3.25,1.25,5.5,3.5,6.0,6.75,6.0,4.25,0.25,0.0,0.25,0.0,0.0,0.14,0.14,1.33,562.79,-7.5,42.1
2.52,0.0,0.0,0.0,0.0,0.0,0.0,0.5,1.0,0.0,0.5,1.25,0.75,1.5,-1.05,0.33,0.64,66.5,-3.5,-78.8,3.75,1.25,7.0,3.5,6.75,6.0,6.0,4.25,0.0,0.0,0.0,0.0,1.5,0.08,0.27,1.08,553.15,-8.5,39.0
2.54,0.5,0.0,0.0,0.25,0.0,0.0,0.0,1.0,0.0,0.25,1.25,0.5,1.5,0.14,-0.17,0.77,73.73,-0.6,-59.7,2.0,1.25,6.75,3.5,5.0,4.75,5.0,4.0,0.0,0.0,0.25,0.0,0.25,0.39,0.45,0.95,511.68,-9.6,41.1
2.56,0.0,0.0,0.0,0.25,0.0,0.0,0.0,2.0,0.0,0.5,1.25,0.5,1.5,0.2,-0.17,1.14,83.88,-6.7,-69.1,2.0,0.5,6.25,2.75,3.0,2.5,4.25,4.0,0.0,0.0,0.25,0.0,0.5,1.64,1.52,0.39,432.84,-12.1,36.3
2.58,0.0,0.0,0.0,0.25,0.0,0.0,0.0,2.75,0.0,2.25,1.25,0.75,1.5,-0.05,0.14,1.52,106.56,-8.9,-68.9,2.0,0.0,5.5,1.25,2.75,0.0,3.5,3.5,0.0,0.0,0.25,0.0,0.25,1.89,1.33,0.64,333.96,-16.3,36.0
2.6,0.25,0.0,0.0,0.25,0.0,1.0,0.0,3.25,0.0,2.25,1.25,0.75,1.5,0.02,0.14,1.27,131.71,-9.6,-54.4,1.75,0.0,5.25,0.75,1.75,0.0,3.0,3.25,0.0,0.0,0.0,0.0,0.5,1.7,0.77,0.27,260.13,-17.0,33.2
2.62,1.25,0.0,0.0,0.5,0.0,1.25,0.0,3.5,0.0,2.25,1.25,0.75,1.5,-0.11,0.14,0.95,158.18,-6.0,-38.2,1.75,0.0,4.75,0.5,2.75,0.0,2.75,3.0,0.25,0.0,0.5,0.0,0.25,0.64,-0.92,0.64,206.14,-15.4,32.4
2.64,1.0,0.75,0.0,1.25,0.0,2.75,0.25,2.75,0.0,2.0,1.25,0.75,1.5,-0.17,0.2,0.95,184.76,-4.9,-18.9,2.0,0.0,5.5,0.5,1.5,0.0,3.5,3.0,0.25,1.0,0.75,0.0,0.0,-0.61,-2.17,0.89,180.78,-17.3,26.8
2.66,2.0,1.0,0.0,1.0,4.75,3.5,0.5,2.75,0.0,2.0,1.25,0.75,1.5,-0.11,0.2,1.02,235.06,-3.2,7.4,2.0,0.0,5.5,0.5,1.75,0.0,4.0,3.25,0.0,1.25,3.5,0.75,0.75,-4.73,-7.98,7.45,195.95,-14.2,3.5
2.68,2.25,1.0,0.0,1.25,0.0,3.5,0.5,2.25,0.0,2.0,1.25,0.75,1.5,-0.17,0.2,1.08,250.44,-1.8,-4.9,2.0,0.0,5.5,0.75,1.25,0.0,5.0,3.25,0.5,2.75,3.25,2.75,0.5,-0.98,-0.92,-0.8,230.16,-13.0,-9.2
2.7,1.75,0.75,0.0,1.25,0.0,0.0,0.75,1.25,0.0,1.25,1.25,0.75,1.5,-0.17,0.2,1.2,236.64,5.8,-16.2,3.25,0.25,6.0,0.75,2.75,0.0,6.5,3.0,0.5,4.5,8.0,4.75,3.0,0.39,0.64,2.27,312.99,-10.4,-22.8
2.72,2.75,0.75,0.75,1.0,0.0,1.25,0.75,1.0,0.25,0.5,1.0,0.75,0.25,-0.23,0.2,1.02,212.01,11.8,20.7,2.0,0.25,5.5,0.75,1.0,0.75,5.25,3.0,1.0,5.5,8.75,5.5,3.75,0.58,0.2,2.33,406.67,-8.0,-36.7
2.74,0.0,0.75,1.25,1.0,0.0,0.0,0.75,1.0,0.0,0.5,1.25,0.75,0.75,-0.23,0.2,1.02,173.3,9.5,-14.1,1.75,0.25,3.25,0.75,0.0,0.0,3.0,1.75,0.75,5.75,8.75,6.25,4.5,-1.11,0.33,1.2,481.01,-6.3,-53.9
2.76,3.5,0.0,0.25,0.0,0.0,0.0,0.75,1.0,0.0,0.5,1.0,0.75,1.0,-1.11,-0.11,0.95,146.3,14.0,0.0,1.75,0.0,3.25,0.0,1.5,0.0,2.5,1.5,0.25,4.5,9.25,5.75,5.0,-0.36,0.02,0.95,510.62,-5.9,-52.6
2.78,2.75,0.0,0.0,0.0,0.0,0.0,0.5,1.0,0.25,0.0,1.0,1.25,1.25,-2.17,-0.11,0.95,124.72,11.6,-18.7,0.75,0.0,3.0,0.5,0.0,0.0,1.25,1.0,0.25,3.75,8.25,6.25,4.5,0.33,-0.05,1.2,499.28,-6.1,-63.4
2.8,0.0,0.0,0.0,0.0,0.0,0.0,0.0,0.0,0.0,0.0,0.0,0.0,0.0,-3.61,-0.11,0.89,75.7,0.0,0.0,0.0,0.0,1.0,0.25,0.0,0.0,1.25,0.25,0.25,3.5,8.25,6.25,4.25,0.14,-0.11,1.14,456.41,-3.6,-79.9
2.82,0.0,0.0,0.0,0.0,0.0,0.0,0.0,0.0,0.0,0.0,0.0,0.0,0.0,-2.92,0.7,0.39,25.2,0.0,0.0,0.5,0.0,0.5,0.75,0.0,0.0,0.25,0.0,0.25,3.0,8.0,6.25,4.75,0.2,-0.11,1.14,413.83,-3.3,-79.8
2.84,0.0,0.0,0.0,0.0,0.0,0.0,0.0,0.0,0.0,0.75,0.0,0.25,0.25,0.02,2.39,3.52,0.0,-10.4,-89.3,0.0,0.0,0.5,0.75,0.0,0.0,1.25,0.75,0.25,3.75,7.75,6.5,4.5,0.2,-0.17,1.2,391.14,-2.3,-79.7
2.86,0.0,0.0,0.0,0.0,0.0,0.0,0.5,1.0,0.0,1.75,0.5,0.5,0.25,0.33,0.95,2.27,0.0,-7.1,-67.1,1.0,0.25,0.5,0.25,0.0,0.0,1.0,0.25,0.25,1.5,7.5,5.25,4.25,0.02,-0.17,1.08,354.13,-5.4,-73.1
2.88,0.0,0.0,0.0,0.0,0.0,0.0,0.25,1.5,0.0,1.5,1.0,0.75,0.75,0.02,1.2,1.02,15.97,-6.8,-72.7,0.0,0.0,0.25,0.0,0.0,0.0,0.75,1.25,0.25,0.5,6.0,3.5,4.5,-0.23,-0.36,1.02,303.09,-1.5,-84.6
2.9,0.0,0.0,0.0,0.0,0.0,0.0,0.5,1.0,0.0,1.5,0.5,0.75,1.0,0.27,0.95,0.77,39.93,-6.9,-75.4,0.0,0.5,0.5,0.25,0.0,0.0,0.75,1.5,0.0,0.0,4.5,2.25,3.0,0.33,-0.42,0.7,246.21,-3.2,-67.3
2.92,0.0,0.0,0.0,0.25,0.0,0.0,0.5,0.75,0.0,1.5,0.75,0.75,0.25,0.52,0.33,0.58,59.65,-2.8,-63.7,0.25,0.25,1.0,0.0,1.75,0.0,0.75,1.5,0.0,0.0,2.25,0.5,1.75,0.14,-0.48,0.58,176.22,-3.4,-24.8
2.94,0.0,0.0,0.0,0.0,0.0,0.0,0.25,1.0,0.0,1.5,0.75,0.75,0.75,0.14,0.33,1.77,69.91,-6.6,-76.1,0.0,0.0,0.25,0.0,0.0,0.0,0.25,1.25,0.0,0.0,0.75,0.0,1.0,1.45,-0.55,-0.05,85.84,3.9,-58.3
2.96,0.0,0.0,0.0,0.0,0.0,0.0,0.5,0.5,0.0,1.25,0.75,0.75,0.5,-0.55,-0.23,1.45,68.51,-3.2,-75.5,0.0,0.0,0.25,0.0,0.0,0.0,0.25,1.0,0.0,0.0,0.5,0.25,0.75,0.45,-0.67,2.39,23.5,2.1,-58.4
2.98,0.0,0.0,0.5,0.0,0.0,0.0,0.25,0.75,0.0,1.25,0.75,0.75,0.5,-0.36,0.2,0.64,73.02,-0.2,-61.0,0.0,0.5,1.0,0.75,2.5,1.75,0.5,1.5,0.0,0.5,1.0,0.75,0.75,0.14,-1.17,2.77,33.87,0.5,3.5
3.0,0.25,0.0,0.75,0.25,0.0,0.0,0.5,0.75,0.0,1.5,0.75,0.75,0.25,-0.3,0.33,0.52,78.7,4.5,-39.3,0.0,0.0,0.25,0.0,0.0,0.0,0.75,1.75,0.0,0.0,1.0,0.25,1.5,-0.67,-0.67,1.95,28.68,3.1,-60.9
3.02,0.25,0.0,0.75,0.0,0.0,0.0,0.5,1.0,0.0,1.5,0.75,0.75,0.25,-0.67,0.08,0.08,87.15,2.9,-43.9,0.0,0.0,0.25,0.0,0.0,0.0,0.25,1.5,0.0,0.0,2.0,0.0,1.0,-1.23,0.14,1.64,35.67,0.9,-61.6
3.04,0.0,0.0,0.75,0.0,0.0,0.0,0.5,1.0,0.0,1.5,0.75,0.75,0.25,-0.92,0.02,-0.11,93.11,1.5,-50.2,0.0,0.0,0.25,0.0,0.0,0.0,0.25,1.25,0.0,0.0,0.25,0.0,0.0,-1.48,0.7,1.14,12.37,2.4,-25.5
3.06,0.0,0.0,0.75,0.0,0.0,0.0,0.5,0.75,0.0,1.25,0.75,0.75,0.75,-0.98,0.08,-0.05,91.64,1.7,-55.4,0.0,0.0,0.25,0.0,0.0,1.25,0.25,1.5,0.0,0.0,0.75,0.0,0.75,-1.61,0.64,0.89,9.86,9.0,-30.4
3.08,0.0,0.0,0.75,0.0,0.0,0.0,0.5,0.75,0.0,1.5,0.5,0.75,0.5,-0.98,-0.11,0.45,86.73,1.1,-52.6,0.0,0.0,0.25,0.0,0.0,0.0,0.0,1.5,0.0,0.0,0.25,0.0,0.75,-1.05,0.08,1.02,0.0,8.4,-52.5
3.1,0.0,0.0,0.75,0.0,0.0,0.0,0.5,0.75,0.0,1.25,1.0,0.0,0.75,-0.61,0.02,0.52,80.4,1.0,-47.9,0.5,0.5,0.25,1.0,0.0,1.0,1.0,1.75,0.25,0.25,1.25,0.0,1.5,-0.73,-0.67,-0.17,42.37,-0.7,-15.9
3.12,0.0,0.0,0.75,0.0,0.0,0.0,0.25,0.5,0.0,1.25,0.75,0.0,0.75,-0.36,0.33,0.08,73.92,0.6,-49.0,0.0,0.0,0.25,0.0,0.0,0.0,0.25,1.25,0.0,0.0,0.25,0.0,0.5,-0.23,-1.11,1.02,46.23,4.9,-43.7
3.14,0.0,0.0,0.75,0.0,0.0,0.0,0.5,0.75,0.0,1.25,0.5,0.0,1.0,-1.36,-1.11,0.08,71.99,-0.8,-48.5,0.0,0.0,0.25,0.0,0.0,0.0,0.25,1.5,0.0,0.0,0.0,0.0,0.25,-0.23,-1.23,0.39,48.33,7.0,-31.6
3.16,0.0,0.0,0.75,0.25,0.0,0.0,0.5,1.0,0.0,0.5,0.5,0.75,0.5,-1.42,-1.48,0.39,69.89,4.8,-40.4,0.0,0.0,0.25,0.0,0.0,0.0,0.25,1.0,0.0,0.0,0.0,0.0,0.25,0.27,-0.17,0.45,33.66,4.0,-29.4
3.18,0.0,0.0,0.75,0.0,0.0,0.0,0.5,0.75,0.0,0.5,1.0,0.25,1.25,-1.05,-0.8,0.7,71.18,2.5,-53.5,0.5,0.25,0.5,0.0,2.75,0.0,1.0,1.75,0.0,0.0,1.0,0.0,1.0,0.14,-0.3,-0.17,64.27,-1.3,3.7
3.2,0.0,0.0,0.75,0.0,0.0,0.0,0.5,0.5,0.0,1.0,0.75,0.25,0.75,-0.11,-0.17,0.7,70.05,2.9,-48.9,0.0,0.0,0.25,0.0,0.0,0.0,0.25,1.5,0.0,0.0,0.25,0.0,0.5,0.52,-0.36,0.14,56.09,6.0,-43.3
3.22,0.0,0.0,0.75,0.0,0.0,0.0,0.5,0.5,0.25,1.0,0.75,0.5,0.5,-0.05,-0.42,0.02,69.64,4.7,-48.2,0.0,0.0,0.25,0.0,2.75,0.25,0.75,1.5,0.0,0.0,0.0,0.0,0.25,0.7,-0.67,0.33,72.72,3.9,20.2
3.24,0.0,0.0,0.75,0.0,0.0,0.0,0.5,0.75,0.25,1.25,0.75,0.75,1.0,-0.67,0.08,0.45,76.04,1.4,-57.1,0.5,0.75,0.25,0.75,2.75,0.5,0.75,1.75,0.25,1.0,1.0,0.75,0.25,0.33,-0.61,0.27,111.55,-1.0,3.8
3.26,0.0,0.0,0.75,0.25,0.0,0.0,0.5,0.0,0.25,0.75,0.5,0.75,1.0,-0.55,-0.23,0.2,76.29,6.8,-50.5,0.0,0.5,0.5,0.75,2.75,0.25,0.75,2.0,0.25,0.5,1.25,0.75,1.0,0.08,-0.48,0.14,143.92,-0.2,-8.3
3.28,0.0,0.0,0.75,0.75,0.0,0.0,0.5,0.75,0.25,0.5,1.0,0.25,0.0,-0.67,-0.3,0.14,75.27,10.2,-17.2,0.25,0.5,0.5,0.75,2.75,0.0,1.0,1.5,0.25,0.5,0.5,0.0,1.25,-0.11,-0.67,0.2,160.12,-1.0,5.2
3.3,0.0,0.0,0.75,0.0,0.0,0.0,0.5,0.0,0.25,1.0,0.5,0.25,0.0,-1.11,-0.3,0.02,64.11,10.7,-31.8,0.0,0.0,0.5,0.0,2.75,0.0,1.0,1.5,0.0,0.0,0.0,0.0,0.5,-0.23,-0.8,0.45,149.94,1.2,16.1
3.32,0.0,0.0,0.75,0.0,0.0,0.0,0.5,0.5,0.25,0.5,1.0,0.5,0.0,-1.61,-0.17,-0.05,59.03,10.4,-37.7,0.0,0.0,0.25,0.0,0.0,0.0,0.25,1.5,0.25,1.25,0.0,0.75,0.0,-0.23,-0.8,0.64,124.95,5.2,-54.6
3.34,0.0,0.0,0.75,0.25,0.0,0.0,0.5,0.0,0.25,1.0,0.75,0.75,0.25,-1.48,-0.05,-0.17,57.46,9.4,-42.6,0.0,0.0,0.5,0.0,2.75,0.0,1.0,1.5,0.0,0.0,0.25,0.0,0.5,-0.36,-0.73,0.45,106.88,0.7,12.7
3.36,0.0,0.0,0.75,0.0,0.0,0.0,0.5,0.5,0.25,1.0,0.5,0.75,0.25,-1.23,0.02,-0.17,60.7,5.7,-46.5,0.5,0.25,0.5,0.75,2.75,0.0,0.75,1.75,0.25,1.5,0.25,0.75,1.5,-0.42,-0.61,0.52,128.01,0.6,-11.4
3.38,0.0,0.0,0.75,0.0,0.0,0.0,0.5,0.5,0.25,1.25,0.75,0.75,0.25,-0.98,0.02,-0.05,66.1,4.9,-49.5,0.5,0.25,0.5,0.75,2.75,0.0,0.75,1.5,0.25,1.0,1.0,0.5,1.0,-0.55,-0.48,0.45,146.25,-1.5,-5.1
3.4,0.0,0.0,0.75,0.0,0.0,0.0,0.5,0.5,0.0,1.25,0.75,0.75,0.25,-0.8,0.02,0.08,69.4,4.5,-50.1,0.5,0.5,0.5,0.75,2.75,0.0,1.0,1.5,0.25,1.25,0.75,0.75,1.0,-0.61,-0.61,0.39,164.28,-1.7,-4.7
3.42,0.0,0.0,0.75,0.0,0.0,0.0,0.5,0.25,0.0,1.0,1.0,0.75,0.25,-0.8,-0.17,0.2,69.7,7.3,-50.7,0.0,0.25,0.5,0.75,2.75,0.0,1.0,1.5,0.25,1.5,1.0,0.75,1.5,-0.61,-0.8,0.45,170.72,0.7,-18.7
3.44,0.0,0.0,0.75,0.5,0.0,0.0,0.5,0.0,0.25,1.0,0.75,0.75,0.25,-0.98,-0.23,0.2,69.37,9.8,-36.8,0.0,0.0,0.5,0.0,2.75,0.0,1.0,2.25,0.0,0.0,0.0,0.0,1.0,-0.55,-0.92,0.77,159.02,3.6,1.9
3.46,0.0,0.0,0.75,0.0,0.0,0.0,0.5,0.25,0.25,1.0,0.75,0.75,0.0,-0.98,-0.23,0.14,66.6,8.7,-44.6,0.5,0.5,0.5,0.75,2.5,0.0,0.75,1.5,0.25,1.5,0.75,0.75,1.25,-0.61,-0.73,0.77,156.18,-0.8,-10.4
3.48,0.0,0.0,0.75,0.0,0.0,0.0,0.5,0.5,0.0,1.0,0.75,0.75,0.25,-0.92,-0.17,0.2,66.06,5.6,-48.6,0.0,0.0,0.5,0.0,2.75,0.0,1.0,1.5,0.0,0.0,0.25,0.0,1.5,-0.61,-0.61,0.58,137.92,2.5,-4.1
3.5,0.0,0.0,0.75,0.0,0.0,0.0,0.5,0.5,0.0,1.0,0.75,0.75,0.25,-0.98,-0.11,0.14,67.34,5.6,-48.6,0.0,0.0,0.25,0.0,0.0,0.0,0.25,1.5,0.0,0.0,0.0,0.0,0.5,-0.67,-0.61,0.52,106.56,7.7,-40.0
3.52,0.0,0.0,0.75,0.0,0.0,0.0,0.5,0.75,0.25,1.0,0.75,0.75,0.25,-1.05,-0.11,0.14,71.06,4.8,-47.6,0.5,0.25,0.25,0.75,0.0,0.0,0.5,1.5,0.25,1.5,1.0,0.75,0.75,-0.67,-0.67,0.45,98.89,-1.4,-36.4
3.54,0.0,0.0,0.75,0.0,0.0,0.0,0.5,0.25,0.25,1.25,0.75,0.75,0.25,-1.05,-0.11,0.2,72.73,6.1,-50.1,0.0,0.0,0.25,0.0,0.0,0.0,0.25,1.5,0.0,0.0,0.0,0.0,0.5,-0.55,-0.67,0.52,71.48,7.7,-40.0
3.56,0.0,0.0,0.75,0.0,0.0,0.0,0.5,0.25,0.0,1.25,0.75,0.75,0.25,-1.05,-0.11,0.14,71.62,5.7,-50.8,0.0,0.0,0.0,0.0,0.0,0.0,0.25,1.25,0.0,0.0,0.0,0.0,0.25,-0.48,-0.67,0.64,46.83,12.6,-45.1
3.58,0.0,0.0,0.75,0.0,0.0,0.0,0.5,0.5,0.0,1.25,0.75,0.75,0.25,-1.05,-0.11,0.14,71.15,4.5,-50.1,0.0,0.0,0.25,0.0,0.0,0.0,0.25,1.25,0.0,0.0,0.0,0.0,0.5,-0.42,-0.67,0.64,21.63,6.6,-40.1
3.6,0.0,0.0,0.75,1.0,0.0,0.0,0.5,0.0,0.0,1.25,0.75,0.75,0.25,-0.98,-0.11,0.14,72.47,9.2,-28.7,0.0,0.0,0.25,0.0,0.0,0.0,0.25,1.5,0.0,0.0,0.0,0.0,0.25,-0.42,-0.67,0.64,10.76,7.0,-31.6
3.62,0.0,0.0,0.75,0.0,0.0,0.0,0.5,0.25,0.0,1.25,0.75,0.75,0.25,-0.92,-0.11,0.14,71.32,5.7,-50.8,0.0,0.0,0.0,0.0,0.0,0.0,0.25,1.5,0.0,0.0,0.0,0.0,0.25,-0.42,-0.67,0.58,4.41,13.2,-44.3
3.64,0.0,0.0,0.75,0.0,0.0,0.0,0.5,0.5,0.0,1.0,0.75,0.75,0.25,-0.92,-0.11,0.14,70.61,5.6,-48.6,0.0,0.0,0.0,0.0,0.0,0.0,0.5,1.25,0.0,0.0,0.0,0.0,0.25,-0.42,-0.67,0.58,3.89,9.5,-40.1
3.66,0.0,0.0,0.75,0.0,0.0,0.0,0.5,0.25,0.0,0.75,0.75,0.75,0.25,-0.98,-0.17,0.2,66.59,8.6,-47.5,0.0,0.0,0.25,0.0,0.0,0.0,0.25,1.5,0.0,0.0,0.0,0.0,0.5,-0.36,-0.73,0.58,10.46,7.7,-40.0
3.68,0.0,0.0,0.75,0.0,0.0,0.0,0.5,0.25,0.0,1.25,0.75,0.75,0.25,-0.98,-0.11,0.2,65.85,5.7,-50.8,0.0,0.0,0.0,0.0,0.0,0.0,0.25,1.5,0.0,0.0,0.0,0.0,0.5,-0.3,-0.67,0.64,15.46,13.2,-52.2
3.7,0.0,0.0,0.75,0.0,0.0,0.0,0.5,0.5,0.0,1.5,0.5,0.75,0.25,-0.98,-0.11,0.14,66.89,3.0,-50.1,0.0,0.0,0.25,0.0,2.5,0.0,0.75,2.0,0.0,0.0,0.0,0.0,0.25,-0.23,-0.67,0.64,39.36,4.3,12.9
3.72,0.0,0.0,0.75,0.0,0.0,0.0,0.5,0.5,0.0,1.0,0.5,0.75,0.25,-0.98,-0.11,0.14,66.13,5.3,-47.0,0.0,0.0,0.0,0.0,0.0,0.0,0.25,1.5,0.0,0.0,0.0,0.0,0.25,-0.23,-0.67,0.64,43.74,13.2,-44.3
3.74,0.0,0.0,0.75,0.0,0.0,0.0,0.5,0.5,0.0,1.25,0.5,0.75,0.25,-0.98,-0.11,0.2,66.49,4.1,-48.6,0.0,0.0,0.0,0.0,0.0,0.0,0.25,1.5,0.0,0.0,0.0,0.0,0.25,-0.17,-0.67,0.58,45.16,13.2,-44.3
3.76,0.0,0.0,1.0,0.0,0.0,0.0,0.5,0.5,0.0,1.25,0.5,0.75,0.5,-0.98,-0.11,0.14,68.81,5.0,-46.0,0.0,0.0,0.0,0.0,0.0,0.0,0.25,1.25,0.0,0.0,0.0,0.0,0.25,-0.17,-0.73,0.64,32.9,12.6,-45.1
3.78,0.0,0.0,0.75,0.0,0.0,0.0,0.5,0.5,0.0,1.25,0.5,0.75,0.25,-0.92,-0.11,0.2,69.18,4.1,-48.6,0.0,0.0,0.25,0.0,0.0,0.0,0.25,1.5,0.0,0.0,0.0,0.0,0.5,-0.23,-0.8,0.7,35.87,7.7,-40.0
3.8,0.0,0.0,0.75,0.0,0.0,0.0,0.25,0.25,0.0,1.25,0.5,0.75,0.25,-0.98,-0.11,0.2,67.3,4.6,-51.6,0.5,0.5,0.25,0.75,0.0,0.0,1.0,1.5,0.25,1.5,0.75,0.75,1.25,-0.23,-0.73,0.77,66.17,-1.5,-33.8
3.82,0.0,0.0,0.75,0.0,0.0,0.0,0.5,0.25,0.0,1.25,0.5,0.75,0.75,-0.98,-0.11,0.2,68.61,3.2,-56.2,0.0,0.5,0.5,0.5,2.5,0.0,0.75,1.5,0.25,1.5,0.75,0.75,1.0,-0.3,-0.73,0.7,107.25,0.7,-14.5
3.84,0.0,0.0,0.75,0.0,0.0,0.0,0.5,0.5,0.0,1.25,0.75,0.75,0.75,-0.98,-0.05,0.2,72.88,2.6,-56.2,0.0,0.0,0.0,0.0,0.0,0.0,0.25,1.25,0.0,0.0,0.0,0.0,0.25,-0.3,-0.67,0.7,99.91,12.6,-45.1
3.86,0.0,0.0,0.75,0.0,0.0,0.0,0.5,0.5,0.0,1.25,0.5,0.75,0.75,-0.98,-0.05,0.2,76.3,2.2,-55.3,0.25,0.5,0.0,0.75,0.0,0.0,0.25,1.25,0.25,1.5,0.0,0.75,0.25,-0.3,-0.61,0.77,99.6,1.1,-28.0
3.88,0.0,0.0,0.0,0.0,0.0,0.0,0.25,0.5,0.0,1.5,0.5,0.75,1.0,-0.98,-0.11,0.27,78.27,-6.9,-82.4,0.5,0.5,0.5,0.75,2.5,0.0,0.75,1.5,0.25,1.0,0.75,0.75,1.25,-0.3,-0.73,0.77,117.5,-1.5,-7.5
3.9,0.0,0.0,0.0,0.0,0.0,0.0,0.5,0.5,0.0,1.25,0.5,0.75,0.75,-0.98,-0.05,0.2,76.25,-4.7,-77.8,0.0,0.25,0.5,0.75,2.75,0.0,0.75,1.5,0.25,1.5,0.75,0.5,1.25,-0.3,-0.73,0.7,139.91,1.2,-13.7
3.92,0.0,0.0,0.0,0.25,0.0,0.0,0.5,0.0,0.0,0.5,0.5,0.75,0.5,-0.98,-0.05,0.2,65.43,3.3,-69.5,0.25,0.75,0.5,1.0,2.75,0.0,0.75,1.5,0.0,0.0,0.75,0.0,1.25,-0.3,-0.67,0.64,155.89,-2.2,12.1
3.94,0.0,0.0,0.0,0.0,0.0,0.0,0.5,0.5,0.0,1.25,1.0,0.75,0.75,-0.98,-0.05,0.2,66.06,-3.0,-77.5,0.5,0.25,0.5,0.0,2.25,0.0,0.75,1.5,0.0,1.5,0.75,0.0,1.5,-0.23,-0.61,0.64,162.91,2.0,-15.2
3.96,0.0,0.0,0.0,0.0,0.0,0.0,0.5,0.25,0.0,1.25,0.75,0.75,1.0,-0.98,-0.05,0.27,67.25,-3.7,-81.9,0.0,0.0,0.0,0.0,0.0,0.0,0.25,1.25,0.0,0.0,0.0,0.0,0.25,-0.23,-0.61,0.64,127.48,12.6,-45.1
3.98,0.0,0.0,0.0,0.0,0.0,0.0,0.5,0.25,0.0,1.5,0.75,0.75,0.25,-0.98,-0.05,0.27,67.55,-2.4,-75.6,0.0,0.0,0.25,0.0,0.0,0.0,0.25,1.0,0.0,0.0,0.0,0.0,0.25,-0.17,-0.67,0.7,83.73,4.0,-29.4
4.0,0.0,0.0,0.5,0.0,0.0,0.0,0.5,0.25,0.0,1.25,0.75,0.75,0.25,-0.98,-0.05,0.2,66.43,3.6,-58.0,0.0,0.0,0.0,0.0,0.0,0.0,0.25,0.75,0.0,0.0,0.0,0.0,0.5,-0.17,-0.67,0.7,43.68,11.3,-59.5
4.02,0.0,0.0,0.75,0.0,0.0,0.0,0.5,0.5,0.0,1.0,0.5,0.75,0.5,-0.98,-0.05,0.27,66.91,4.2,-50.8,0.0,0.0,0.0,0.0,0.0,0.0,0.25,1.0,0.0,0.0,0.0,0.0,0.25,-0.17,-0.61,0.7,20.01,11.9,-46.3
4.04,0.0,0.0,0.5,0.0,0.0,0.0,0.5,0.25,0.0,1.0,0.75,0.5,0.25,-0.92,-0.11,0.33,62.18,4.6,-53.0,0.0,0.0,0.0,0.0,0.0,0.0,0.25,1.25,0.0,0.0,0.0,0.0,0.5,-0.17,-0.61,0.7,7.53,12.8,-54.0
4.06,0.0,0.0,0.25,0.0,0.0,0.0,0.5,0.5,0.0,1.25,0.5,0.75,0.25,-0.92,-0.05,0.27,60.04,-0.5,-63.8,0.0,0.0,0.0,0.0,0.0,0.0,0.25,1.0,0.0,0.0,0.0,0.0,0.25,-0.17,-0.67,0.83,6.68,11.9,-46.3
4.08,0.0,0.0,0.75,0.0,0.0,0.0,0.25,0.0,0.0,1.0,0.5,0.5,0.0,-0.98,-0.05,0.2,53.48,9.5,-40.4,0.0,0.0,0.0,0.0,0.0,0.0,0.25,0.75,0.0,0.0,0.0,0.0,0.25,-0.17,-0.67,0.83,6.97,10.8,-48.0
4.1,0.0,0.0,0.75,0.0,0.0,0.0,0.5,0.0,0.0,1.25,1.0,0.75,0.75,-0.98,0.02,0.2,60.11,5.0,-59.1,0.0,0.0,0.0,0.0,0.0,0.0,0.25,0.75,0.0,0.0,0.0,0.25,0.25,-0.17,-0.61,0.83,0.0,7.2,-59.1
4.12,0.0,0.0,0.75,0.0,0.0,0.0,0.5,0.25,0.0,1.5,1.0,0.75,0.5,-0.98,0.02,0.2,67.07,3.9,-56.2,0.0,0.0,0.0,0.0,0.0,0.0,0.25,0.75,0.0,0.0,0.0,0.0,0.0,-0.17,-0.61,0.83,0.0,10.0,-29.6
4.14,0.0,0.0,0.75,0.0,0.0,0.0,0.5,0.0,0.0,1.25,0.75,0.75,0.75,-0.98,0.02,0.2,73.67,4.7,-58.2,0.0,0.0,0.0,0.0,0.0,0.0,0.25,0.75,0.0,0.0,0.0,0.0,0.0,-0.23,-0.61,0.77,0.0,10.0,-29.6
4.16,0.0,0.0,0.75,0.0,0.0,0.0,0.5,0.25,0.0,1.25,1.0,0.75,0.75,-0.98,0.02,0.27,78.66,4.0,-58.0,0.0,0.0,0.0,0.0,0.0,0.0,0.0,0.75,0.0,0.0,0.0,0.0,0.0,-0.23,-0.61,0.77,0.0,16.7,-38.8
4.18,0.0,0.0,0.75,0.0,0.0,0.0,0.5,0.5,0.0,1.25,1.0,0.75,0.75,-0.98,0.02,0.2,81.79,3.0,-57.1,0.0,0.0,0.0,0.0,0.0,0.0,0.25,0.75,0.0,0.0,0.0,0.0,0.0,-0.23,-0.61,0.7,4.03,10.0,-29.6
4.2,0.0,0.0,0.75,0.0,0.0,0.0,0.25,0.0,0.0,1.0,0.75,0.75,0.75,-0.98,0.02,0.2,79.32,5.2,-59.6,0.0,0.0,0.0,0.0,0.0,0.0,0.25,0.5,0.0,0.0,0.0,0.0,0.0,-0.23,-0.61,0.7,9.34,7.2,-26.0
4.22,0.0,0.0,0.75,0.0,0.0,0.0,0.5,0.25,0.0,1.25,1.0,0.75,0.5,-0.98,0.02,0.2,79.19,4.9,-55.2,0.0,0.0,0.0,0.0,0.0,0.0,0.25,0.75,0.0,0.0,0.0,0.0,0.0,-0.23,-0.61,0.7,9.78,10.0,-29.6
4.24,0.0,0.0,0.0,0.0,0.0,0.0,0.25,0.25,0.0,1.25,1.0,0.75,0.75,-0.98,0.02,0.2,76.66,-3.2,-82.9,0.0,0.0,0.0,0.0,0.0,0.0,0.25,0.5,0.0,0.0,0.0,0.0,0.0,-0.23,-0.61,0.7,8.78,7.2,-26.0
4.26,0.0,0.0,0.75,0.0,0.0,0.0,0.5,0.5,0.0,1.5,0.75,0.75,0.75,-0.98,0.02,0.27,80.08,1.7,-57.2,0.0,0.0,0.0,0.0,0.0,0.0,0.25,0.75,0.0,0.0,0.0,0.0,0.0,-0.23,-0.61,0.77,9.58,10.0,-29.6
4.28,0.0,0.0,0.75,0.0,0.0,0.0,0.5,0.25,0.0,1.25,1.0,0.75,0.75,-0.98,0.02,0.27,81.66,4.0,-58.0,0.0,0.0,0.0,0.0,0.0,0.0,0.25,0.25,0.0,0.0,0.0,0.0,0.0,-0.23,-0.61,0.7,7.39,0.8,-17.3
4.3,0.0,0.0,0.75,0.0,0.0,0.0,0.5,0.25,0.0,1.5,0.5,0.75,0.75,-0.98,0.02,0.27,82.29,2.2,-57.2,0.0,0.0,0.25,0.0,2.25,0.0,0.75,1.25,0.0,0.0,0.75,0.0,1.0,-0.17,-0.61,0.77,38.86,2.3,-8.2
4.32,0.0,0.0,0.75,0.0,0.0,0.0,0.5,0.0,0.0,1.25,0.75,0.75,0.75,-0.98,0.02,0.27,79.57,4.7,-58.2,0.5,0.25,0.0,0.75,0.0,0.0,0.25,1.25,0.25,1.25,1.0,0.75,1.0,-0.17,-0.61,0.77,71.3,-0.3,-42.2
4.34,0.0,0.0,0.75,0.0,0.0,0.0,0.5,0.0,0.0,1.5,0.75,0.75,0.25,-0.98,0.02,0.27,73.8,5.8,-52.9,0.75,0.5,0.5,0.75,2.25,0.5,0.75,1.25,0.25,1.5,0.5,0.75,1.25,-0.11,-0.61,0.77,122.14,-0.7,-6.0
4.36,0.0,0.0,0.75,0.0,0.0,0.0,0.25,0.0,0.0,1.5,1.0,0.75,0.5,-0.98,0.02,0.27,72.71,4.3,-59.4,0.0,0.0,0.5,0.75,1.75,0.25,0.75,1.25,0.25,1.5,0.75,0.75,1.0,-0.11,-0.61,0.83,146.17,0.8,-23.1
4.38,0.0,0.0,0.75,0.0,0.0,0.0,0.5,0.0,0.0,1.25,0.75,0.75,0.75,-0.98,0.02,0.27,72.16,4.7,-58.2,0.75,0.5,0.5,0.75,1.5,0.0,0.75,1.25,0.25,1.5,0.75,0.75,1.0,-0.17,-0.61,0.77,164.99,-2.8,-12.0
4.4,0.0,0.0,0.5,0.0,0.0,0.0,0.25,0.0,0.0,1.25,1.0,0.5,0.25,-0.98,0.02,0.27,67.62,4.2,-59.8,0.5,0.25,0.5,0.75,2.75,0.25,0.75,1.25,0.25,1.5,0.75,0.75,1.0,-0.17,-0.61,0.77,174.72,-0.6,-7.5
4.42,0.0,0.0,0.75,0.0,0.0,0.0,0.5,0.0,0.0,1.5,0.75,0.75,0.5,-0.98,0.02,0.27,68.03,4.7,-56.2,0.25,0.25,0.5,0.75,1.5,0.0,0.75,1.25,0.25,1.25,0.75,0.75,1.25,-0.17,-0.61,0.77,173.43,-1.0,-21.5
4.44,0.0,0.0,0.75,0.0,0.0,0.0,0.5,0.0,0.0,1.25,0.75,0.75,0.5,-0.98,0.02,0.27,67.46,5.9,-55.0,0.75,0.5,0.5,0.75,1.75,0.0,0.75,1.25,0.25,1.5,0.75,0.75,1.0,-0.17,-0.61,0.77,174.34,-2.6,-10.2
4.46,0.0,0.0,0.75,0.0,0.0,0.0,0.25,0.0,0.0,1.25,1.0,0.75,0.5,-0.98,0.02,0.27,68.18,5.4,-58.4,0.25,0.5,0.5,0.75,1.5,0.0,0.75,1.25,0.25,1.5,0.75,0.75,1.0,-0.17,-0.61,0.77,168.95,-1.3,-17.3
4.48,0.0,0.0,0.75,0.0,0.0,0.0,0.5,0.0,0.0,1.5,0.75,0.75,0.5,-0.98,0.02,0.2,69.26,4.7,-56.2,0.0,0.25,0.5,0.75,2.25,0.0,0.75,1.25,0.25,1.25,0.75,0.75,1.0,-0.17,-0.55,0.77,165.45,-0.2,-15.4
4.5,0.0,0.0,0.75,0.0,0.0,0.0,0.25,0.0,0.0,1.25,0.75,0.75,0.0,-0.98,0.02,0.27,65.5,7.8,-50.0,0.5,0.5,0.5,0.75,1.75,0.0,0.75,1.0,0.25,1.5,0.75,0.75,1.25,-0.17,-0.55,0.77,160.4,-2.0,-14.5
4.52,0.0,0.0,0.75,0.0,0.0,0.0,0.25,0.0,0.0,1.25,0.75,0.75,0.25,-0.98,0.02,0.27,63.44,6.3,-54.0,0.75,0.75,0.5,0.75,2.5,0.0,0.75,1.25,0.25,1.25,0.75,0.75,1.25,-0.23,-0.55,0.7,164.28,-2.4,-3.7
4.54,0.0,0.0,0.75,0.0,0.0,0.0,0.5,0.0,0.0,1.25,1.0,0.75,0.25,-0.92,0.02,0.27,63.29,7.3,-52.9,1.25,0.25,0.5,0.5,2.25,0.25,0.75,1.25,0.25,1.5,0.75,0.75,1.0,-0.23,-0.55,0.7,163.29,-2.6,-5.5
4.56,0.0,0.0,0.5,0.5,0.0,0.0,0.25,0.0,0.0,0.75,1.25,0.5,0.25,-0.92,0.02,0.33,62.35,8.9,-42.8,0.5,0.25,0.5,0.5,2.5,0.0,0.75,1.25,0.25,1.5,0.75,0.75,1.0,-0.23,-0.55,0.83,162.12,-0.8,-11.7
4.58,0.0,0.0,0.75,0.0,0.0,0.0,0.5,0.0,0.0,1.0,1.0,0.75,0.25,-0.98,0.02,0.27,62.49,8.8,-51.5,0.5,0.5,0.5,0.75,2.25,0.0,0.75,1.25,0.25,1.5,0.75,0.75,1.25,-0.17,-0.55,0.83,160.72,-1.3,-11.5
4.6,0.0,0.0,0.75,0.0,0.0,0.0,0.5,0.0,0.0,1.25,1.25,0.75,0.25,-0.98,0.02,0.27,65.24,7.5,-54.1,0.5,0.5,0.5,0.75,2.25,0.0,0.75,1.25,0.25,1.5,0.75,0.75,1.0,-0.17,-0.61,0.83,160.7,-1.6,-9.1
4.62,0.0,0.0,0.75,0.0,0.0,0.0,0.25,0.0,0.0,1.0,0.75,0.75,0.25,-0.98,0.02,0.27,63.74,7.9,-52.5,0.0,0.0,0.5,0.0,2.25,0.0,0.75,1.25,0.0,0.0,0.75,0.0,1.0,-0.11,-0.55,0.83,139.56,0.6,-5.5
4.64,0.0,0.0,0.75,0.0,0.0,0.0,0.5,0.0,0.0,1.0,1.0,0.75,0.25,-0.98,0.02,0.2,63.82,8.8,-51.5,0.0,0.0,0.5,0.0,1.75,0.0,0.75,1.25,0.0,0.0,0.75,0.0,1.0,-0.11,-0.55,0.89,117.1,0.4,-11.3
4.66,0.0,0.0,0.75,0.0,0.0,0.0,0.25,0.0,0.0,1.25,1.0,0.75,0.25,-0.98,0.02,0.27,63.45,6.6,-55.2,0.0,0.0,0.0,0.0,0.0,0.0,0.25,0.5,0.0,0.0,0.0,0.75,0.0,-0.17,-0.61,0.89,75.28,-1.5,-71.8
4.68,0.0,0.0,0.75,0.0,0.0,0.0,0.25,0.0,0.0,1.25,1.0,0.75,0.25,-0.98,0.02,0.27,64.93,6.6,-55.2,0.0,0.0,0.5,0.0,1.75,0.25,0.75,1.25,0.0,0.0,0.0,0.0,0.0,-0.23,-0.55,0.89,56.7,0.3,24.9
4.7,0.0,0.0,0.75,0.0,0.0,0.0,0.5,0.0,0.0,1.25,0.75,0.75,0.5,-0.98,0.02,0.27,66.37,5.9,-55.0,0.0,0.0,0.0,0.0,0.0,0.0,0.25,0.5,0.0,0.0,0.0,0.25,0.0,-0.23,-0.55,0.83,25.54,2.6,-50.0
4.72,0.0,0.0,1.0,0.0,0.0,0.0,0.25,0.0,0.0,0.5,0.75,0.5,0.5,-0.98,0.02,0.27,62.86,12.0,-40.6,0.0,0.0,0.0,0.0,0.0,0.0,0.5,1.0,0.0,0.0,0.0,0.25,0.5,-0.23,-0.55,0.83,15.81,6.9,-57.9
4.74,0.0,0.0,0.75,0.0,0.0,0.0,0.5,0.0,0.0,1.25,0.75,0.75,0.5,-0.98,0.02,0.27,64.67,5.9,-55.0,0.75,0.5,0.25,0.75,0.0,0.0,0.5,1.25,0.25,1.25,0.0,0.75,0.5,-0.23,-0.55,0.77,29.22,-3.7,-15.9
4.76,0.0,0.0,0.75,0.0,0.0,0.0,0.5,0.0,0.0,1.0,1.0,0.75,0.5,-0.92,0.02,0.27,64.81,7.4,-55.0,0.5,0.75,0.5,1.0,1.75,0.0,0.75,1.25,0.25,1.25,0.75,0.75,1.0,-0.17,-0.55,0.77,71.88,-3.0,-6.6
4.78,0.0,0.0,0.75,0.0,0.0,0.0,0.25,0.0,0.0,1.25,1.25,0.75,0.5,-0.92,0.02,0.27,69.51,5.7,-59.3,0.5,0.25,0.5,0.25,2.25,0.0,0.75,1.25,0.25,1.5,0.75,0.75,1.0,-0.17,-0.55,0.77,107.05,-0.5,-15.4
4.8,0.0,0.0,0.75,0.0,0.0,0.0,0.5,0.0,0.0,1.25,0.75,0.75,0.5,-0.92,0.02,0.27,70.75,5.9,-55.0,0.5,0.25,0.5,0.75,2.25,0.0,0.75,1.25,0.25,1.5,0.75,0.75,1.0,-0.11,-0.48,0.7,136.46,-1.4,-11.8
4.82,0.0,0.0,0.75,0.0,0.0,0.0,0.25,0.0,0.0,1.25,0.75,0.75,0.25,-0.92,0.02,0.27,69.4,6.3,-54.0,0.5,0.25,0.5,0.75,2.5,0.0,0.75,1.25,0.25,1.5,0.75,0.75,1.0,-0.11,-0.55,0.7,153.88,-1.2,-10.0
4.84,0.0,0.0,0.75,0.0,0.0,0.0,0.25,0.0,0.25,1.0,1.0,0.75,0.5,-0.92,0.02,0.33,69.21,7.0,-56.3,0.75,0.5,0.5,0.75,2.5,0.0,0.75,1.25,0.25,1.5,0.75,0.75,1.0,-0.11,-0.55,0.77,167.07,-2.2,-5.3
4.86,0.0,0.0,0.75,0.0,0.0,0.0,0.25,0.0,0.0,1.25,0.75,0.75,0.25,-0.92,0.02,0.33,67.11,6.3,-54.0,0.5,0.25,0.5,0.75,1.75,0.0,0.75,1.25,0.25,1.5,0.75,0.75,1.0,-0.11,-0.55,0.77,170.0,-1.6,-15.6
4.88,0.0,0.0,1.0,0.0,0.0,0.0,0.25,0.0,0.0,0.75,1.0,0.5,0.5,-0.98,0.02,0.33,64.83,10.1,-45.0,0.5,0.25,0.5,0.0,1.75,0.0,0.75,1.25,0.25,1.0,0.75,0.75,1.0,-0.05,-0.55,0.83,163.85,-1.2,-18.8
4.9,0.0,0.0,0.75,0.0,0.0,0.0,0.5,0.0,0.0,1.25,1.0,0.75,0.25,-1.05,0.02,0.33,65.0,7.3,-52.9,0.5,0.25,0.5,0.75,2.25,0.0,0.75,1.25,0.25,1.5,0.75,0.75,1.0,-0.05,-0.55,0.89,164.35,-1.4,-11.8
4.92,0.0,0.0,0.75,0.0,0.0,0.0,0.5,0.0,0.25,1.5,1.25,0.75,0.25,-1.05,0.02,0.27,70.36,6.6,-54.4,0.5,0.5,0.5,0.5,1.75,0.0,0.75,1.25,0.25,1.5,0.75,0.75,1.0,-0.05,-0.61,0.89,158.8,-1.5,-14.5
4.94,0.0,0.0,0.75,0.0,0.0,0.0,0.5,0.0,0.0,1.25,0.75,0.75,0.25,-0.98,0.02,0.27,69.8,7.1,-51.5,0.75,0.5,0.5,0.75,1.75,0.0,0.75,1.25,0.25,1.5,0.75,0.75,1.0,-0.11,-0.61,0.95,160.77,-2.6,-10.2
4.96,0.0,0.0,0.75,0.0,0.0,0.0,0.25,0.0,0.0,1.25,0.75,0.75,0.25,-0.98,0.02,0.33,68.71,6.3,-54.0,1.0,0.5,0.5,1.25,2.25,0.0,0.75,1.25,0.25,1.25,0.75,0.75,1.0,-0.11,-0.55,0.95,163.3,-4.1,-0.2
4.98,0.0,0.0,0.75,0.0,0.0,0.0,0.5,0.0,0.0,1.25,1.25,0.75,0.25,-0.98,0.02,0.33,68.21,7.5,-54.1,0.0,0.25,0.5,0.75,2.25,0.0,0.75,1.25,0.25,1.25,0.75,0.75,1.0,-0.11,-0.55,0.89,156.51,-0.2,-15.4
5.0,0.0,0.0,0.75,0.0,0.0,0.0,0.25,0.0,0.0,1.0,1.0,0.75,0.25,-0.98,0.02,0.27,65.96,8.1,-53.9,0.75,0.25,0.5,0.75,1.75,0.0,0.75,1.25,0.25,1.25,0.75,0.75,1.0,-0.17,-0.55,0.89,151.01,-2.9,-11.4
5.02,0.0,0.0,0.75,0.0,0.0,0.0,0.5,0.0,0.0,1.25,0.75,0.75,0.25,-0.92,0.02,0.27,64.92,7.1,-51.5,0.25,0.25,0.25,0.5,1.75,0.0,0.75,1.25,0.25,1.25,0.75,0.75,1.0,-0.17,-0.55,0.83,141.82,0.2,-21.2
5.04,0.0,0.0,0.75,0.0,0.0,0.0,0.5,0.0,0.25,1.0,1.0,0.5,0.25,-0.92,0.02,0.27,64.2,9.0,-47.0,0.5,0.5,0.5,0.75,2.25,0.0,0.75,1.25,0.25,1.5,0.75,0.75,1.0,-0.17,-0.55,0.77,144.39,-1.6,-9.1
5.06,0.0,0.0,0.75,0.0,0.0,0.0,0.5,0.0,0.0,1.25,1.0,0.75,0.25,-0.92,-0.05,0.33,65.55,7.3,-52.9,0.5,0.5,0.5,0.75,1.75,0.0,0.75,1.25,0.25,1.5,0.75,0.75,1.25,-0.11,-0.55,0.77,145.21,-1.5,-15.1
5.08,0.0,0.0,0.75,0.0,0.0,0.0,0.5,0.0,0.25,1.25,0.75,0.75,0.25,-0.92,0.02,0.33,65.82,7.4,-50.8,0.0,0.25,0.5,0.75,1.75,0.0,0.75,1.25,0.25,1.5,0.75,0.75,1.25,-0.11,-0.55,0.77,146.04,0.3,-23.5
5.1,0.0,0.0,0.75,0.0,0.0,0.0,0.5,0.0,0.0,1.25,0.75,0.75,0.25,-0.92,0.02,0.27,66.13,7.1,-51.5,0.5,0.75,0.5,0.75,1.5,0.0,0.75,1.25,0.25,1.25,0.75,0.75,1.0,-0.11,-0.55,0.77,146.6,-2.8,-10.1
5.12,0.0,0.0,0.75,0.0,0.0,0.0,0.25,0.0,0.25,1.25,1.0,0.75,0.25,-0.98,0.02,0.27,67.46,6.9,-54.3,0.5,0.25,0.5,0.0,1.75,0.25,0.75,1.25,0.25,1.5,0.75,0.75,1.0,-0.05,-0.55,0.7,142.38,0.2,-20.5
5.14,0.0,0.0,0.75,0.0,0.0,0.0,0.5,0.0,0.0,1.0,0.75,0.75,0.25,-0.98,0.02,0.33,64.56,8.7,-49.9,0.5,0.5,0.5,0.75,1.5,0.0,0.75,1.25,0.25,1.5,0.75,0.75,1.0,-0.05,-0.55,0.77,140.26,-2.1,-14.6
5.16,0.0,0.0,0.75,0.0,0.0,0.0,0.5,0.0,0.25,1.25,0.75,0.75,0.25,-0.92,-0.05,0.27,65.28,7.4,-50.8,0.25,0.5,0.25,0.75,2.5,0.0,0.75,1.25,0.25,1.5,0.75,0.75,1.0,-0.05,-0.61,0.77,143.64,0.0,-11.5
5.18,0.0,0.0,0.75,0.0,0.0,0.0,0.25,0.0,0.0,1.0,0.75,0.75,0.25,-0.92,0.02,0.27,63.02,7.9,-52.5,0.5,0.5,0.5,1.25,1.75,0.0,0.75,1.25,0.25,1.5,0.75,0.75,1.0,-0.11,-0.55,0.77,149.05,-2.6,-9.2
5.2,0.0,0.0,0.75,0.0,0.0,0.0,0.25,0.0,0.0,1.0,0.5,0.5,0.5,-0.92,-0.05,0.33,59.88,6.0,-51.0,0.75,0.5,0.5,0.25,1.5,0.25,0.75,1.25,0.25,1.5,0.75,0.75,1.0,-0.11,-0.55,0.77,148.9,-1.4,-14.6
5.22,0.0,0.0,0.75,0.0,0.0,0.0,0.25,0.0,0.0,1.0,0.75,0.75,0.25,-0.92,-0.05,0.33,57.34,7.9,-52.5,0.0,0.5,0.5,0.75,1.75,0.0,0.75,1.25,0.25,1.5,0.75,0.75,1.0,-0.11,-0.55,0.77,148.09,-0.3,-18.0
5.24,0.0,0.0,0.75,0.0,0.0,0.0,0.5,0.0,0.25,1.25,0.75,0.75,0.25,-0.92,-0.05,0.33,60.29,7.4,-50.8,0.5,0.25,0.5,0.5,1.75,0.0,0.75,1.25,0.25,1.5,0.75,0.75,1.0,-0.11,-0.61,0.77,144.29,-1.2,-17.6
5.26,0.0,0.0,0.75,0.0,0.0,0.0,0.5,0.0,0.25,1.0,0.75,0.75,0.0,-0.92,0.02,0.27,59.96,10.4,-45.0,0.5,0.5,0.25,0.5,1.5,0.0,0.75,1.25,0.25,1.5,0.75,0.75,1.0,-0.11,-0.61,0.77,140.24,-0.6,-18.7
