time,left pressure 0[N/cm²],left pressure 1[N/cm²],left pressure 2[N/cm²],left pressure 3[N/cm²],left pressure 4[N/cm²],left pressure 5[N/cm²],left pressure 6[N/cm²],left pressure 7[N/cm²],left pressure 8[N/cm²],left pressure 9[N/cm²],left pressure 10[N/cm²],left pressure 11[N/cm²],left pressure 12[N/cm²],left acceleration X[g],left acceleration Y[g],left acceleration Z[g],left total force[N],left center of pressure X[mm],left center of pressure Y[mm],right pressure 0[N/cm²],right pressure 1[N/cm²],right pressure 2[N/cm²],right pressure 3[N/cm²],right pressure 4[N/cm²],right pressure 5[N/cm²],right pressure 6[N/cm²],right pressure 7[N/cm²],right pressure 8[N/cm²],right pressure 9[N/cm²],right pressure 10[N/cm²],right pressure 11[N/cm²],right pressure 12[N/cm²],right acceleration X[g],right acceleration Y[g],right acceleration Z[g],right total force[N],right center of pressure X[mm],right center of pressure Y[mm]
0.02,0.0,1.0,0.0,8.75,0.0,6.5,3.5,3.25,0.25,1.0,1.25,0.0,1.25,-0.17,0.2,1.08,430.71,0.5,17.7,0.0,0.25,1.75,0.0,2.25,2.0,0.25,4.75,0.75,6.75,7.0,3.5,4.25,0.08,0.08,0.95,478.4,3.2,-52.3
0.04,5.25,1.0,6.25,9.0,0.0,0.0,3.5,1.5,0.0,0.0,1.0,0.25,0.0,-0.23,0.27,1.27,407.64,24.2,53.7,0.0,0.25,0.25,0.5,1.5,2.0,1.0,4.25,1.0,7.0,6.5,3.5,3.5,0.08,0.08,0.95,484.76,4.2,-56.6
0.06,6.0,1.0,6.5,8.0,0.0,0.0,3.5,2.0,0.0,0.75,0.0,0.25,0.0,-0.23,0.27,1.52,378.95,23.5,54.1,1.25,1.25,1.75,2.0,2.75,4.0,2.0,5.25,1.5,7.0,7.75,4.0,3.75,0.08,0.08,0.95,557.07,0.4,-32.7
0.08,6.5,1.0,6.0,6.25,0.0,0.0,3.0,1.5,0.0,1.0,0.5,0.0,0.25,-0.48,0.39,2.08,364.48,23.7,52.7,0.5,1.0,2.25,1.5,3.75,5.75,2.5,6.0,1.5,6.0,7.5,2.75,2.0,0.08,0.08,0.95,606.4,1.3,-23.5
0.1,7.25,0.75,4.75,3.5,0.0,0.0,2.0,0.0,0.0,1.25,0.5,0.25,0.25,-0.73,0.7,2.45,319.35,26.5,56.4,1.0,0.75,2.75,2.75,4.75,5.75,3.0,5.25,1.25,5.5,5.5,3.0,2.25,0.08,0.08,0.95,653.29,0.0,-14.7
0.12,6.5,0.0,2.5,2.5,0.0,0.0,1.0,0.0,0.0,0.75,0.75,0.0,0.0,-0.8,0.77,2.39,265.77,27.8,60.8,2.25,2.0,3.0,3.25,5.5,6.5,3.75,5.25,1.5,5.25,5.25,2.25,1.75,0.14,0.08,0.95,685.34,-1.5,-1.9
0.14,2.75,0.0,2.5,0.5,0.0,0.0,0.5,0.0,0.0,0.0,0.75,0.0,0.0,-0.48,0.45,2.7,186.45,32.1,58.8,3.25,2.25,5.25,5.5,7.25,6.75,5.0,5.75,1.5,3.75,4.25,1.75,2.0,0.14,0.08,0.95,760.36,-4.5,11.9
0.16,0.0,0.0,0.0,0.0,0.0,0.0,0.0,0.0,0.0,0.0,0.0,0.0,0.0,-0.67,-0.42,2.02,77.32,0.0,0.0,3.25,2.0,5.5,5.0,7.5,6.75,5.25,5.25,1.25,2.75,2.75,1.0,1.75,0.08,0.08,0.95,795.28,-5.0,19.3
0.18,0.0,0.0,0.0,0.0,0.0,0.0,0.0,0.0,0.0,0.0,0.0,0.0,0.0,-0.23,-0.92,1.33,0.0,0.0,0.0,3.25,2.0,5.5,6.25,7.5,7.0,5.75,5.0,1.0,1.5,2.5,0.5,1.25,0.14,0.14,0.95,809.92,-6.1,26.9
0.2,0.0,0.0,0.0,0.0,0.0,0.0,0.0,0.0,0.0,0.0,0.0,0.0,0.0,-0.42,-1.48,0.83,0.0,0.0,0.0,2.0,1.25,5.5,5.25,8.5,6.75,5.5,5.0,0.0,1.0,0.25,0.5,0.5,0.02,0.08,1.02,758.28,-4.9,34.4
0.22,0.0,0.0,0.0,0.0,0.0,0.0,0.0,0.0,0.0,0.0,0.0,0.0,0.0,-0.3,-0.98,1.39,0.0,0.0,0.0,2.0,1.25,5.5,5.5,7.5,6.5,4.25,3.75,0.25,1.0,0.25,0.25,0.5,0.08,0.14,0.95,689.25,-5.7,37.0
0.24,0.0,0.0,0.0,0.0,0.0,0.0,0.0,0.0,0.0,0.0,0.0,0.0,0.0,-0.23,-0.67,0.58,0.0,0.0,0.0,2.0,1.25,5.75,5.75,7.5,6.5,4.5,3.75,0.5,0.5,0.25,0.25,0.25,0.08,0.14,1.02,628.18,-6.6,39.3
0.26,0.0,0.0,0.0,0.0,0.0,0.0,0.0,0.0,0.0,0.0,0.0,0.0,0.0,-0.36,-0.3,0.64,0.0,0.0,0.0,2.5,0.0,5.75,4.5,7.75,6.5,4.25,2.5,0.25,0.0,0.25,0.0,0.25,0.02,0.14,0.95,557.72,-7.3,43.6
0.28,1.25,0.0,1.0,1.25,0.0,0.0,0.0,0.0,0.25,1.0,0.0,0.0,0.0,-0.23,-0.3,0.95,0.0,18.9,35.3,3.0,1.0,6.5,5.5,8.0,6.5,5.0,2.5,0.0,0.0,0.25,0.25,0.25,0.02,0.2,0.89,538.83,-8.9,46.0
0.3,0.0,0.0,0.0,0.0,0.0,0.0,0.0,0.0,0.0,0.0,0.0,0.0,0.0,-0.11,-0.11,1.14,0.0,0.0,0.0,3.25,1.25,7.0,7.25,8.5,6.25,4.25,2.25,0.0,0.0,0.25,0.25,0.25,0.02,0.2,0.89,541.21,-9.8,48.2
0.32,0.0,0.0,0.0,0.0,0.0,0.0,0.0,0.0,0.0,0.0,0.0,0.0,0.0,-0.17,0.02,1.2,0.0,0.0,0.0,3.25,1.25,7.0,7.75,8.5,6.25,4.5,2.25,0.25,0.75,0.25,0.75,0.5,0.02,0.2,0.89,578.34,-9.3,42.8
0.34,0.0,0.0,0.0,0.0,0.0,0.0,0.0,0.0,0.0,0.0,0.0,0.0,0.0,-0.3,0.14,1.27,0.0,0.0,0.0,4.25,1.5,8.5,9.0,9.75,4.5,6.0,2.25,0.25,0.0,0.25,0.0,0.25,0.02,0.2,0.89,626.79,-12.8,51.1
0.36,1.5,0.0,0.0,1.25,0.0,0.0,0.0,0.0,0.5,0.5,0.0,0.0,0.0,-0.3,0.33,1.77,8.58,18.8,42.1,5.0,1.75,8.75,9.25,8.75,5.25,6.0,0.75,0.0,0.0,0.25,0.0,0.25,0.02,0.27,0.89,664.73,-14.2,55.4
0.38,0.5,0.0,1.0,1.25,0.0,0.0,0.5,0.0,0.5,0.75,0.0,0.0,0.0,-0.3,0.45,1.89,38.69,18.7,26.8,5.5,2.0,9.5,11.0,9.75,5.75,6.5,2.25,0.25,0.0,0.25,0.0,0.25,0.02,0.27,0.95,740.71,-13.2,52.6
0.4,0.75,0.0,1.0,1.0,0.0,0.0,0.0,0.0,0.5,0.75,0.0,0.0,0.0,-0.42,0.64,2.45,64.88,18.9,28.9,6.75,1.25,9.5,12.5,8.75,5.75,7.25,0.75,0.25,1.0,1.0,0.75,1.25,0.02,0.27,1.02,829.24,-14.0,46.0
0.42,0.0,0.0,1.5,1.25,0.0,0.0,0.0,0.0,0.25,0.0,0.5,0.0,0.0,-0.55,1.08,3.02,72.65,25.0,34.5,7.75,2.5,11.5,13.5,9.75,4.75,8.0,1.0,0.75,0.75,1.5,0.75,1.25,0.02,0.33,1.08,962.29,-15.5,47.4
0.44,0.5,0.0,1.75,1.0,0.0,0.0,0.25,0.0,0.5,0.75,0.5,0.0,0.25,-0.42,2.08,2.64,82.7,19.0,14.5,8.0,3.0,12.0,14.0,9.75,4.25,8.25,0.75,0.5,1.0,1.5,0.75,1.25,0.02,0.33,1.08,1078.31,-16.0,48.4
0.46,1.25,0.0,1.25,1.0,0.0,0.0,0.0,0.0,0.5,0.75,0.25,0.0,0.0,0.33,4.39,3.95,86.97,21.0,31.9,7.75,2.25,11.0,11.5,8.5,1.0,8.25,0.75,0.25,0.0,1.25,0.25,1.0,0.02,0.39,1.14,1070.99,-19.3,53.2
0.48,1.25,0.0,1.25,1.5,0.0,0.0,0.5,0.0,0.75,0.75,0.0,0.25,0.25,0.77,3.77,0.39,97.76,19.3,23.8,8.0,2.25,10.5,11.0,7.5,0.0,8.0,0.5,0.25,0.0,1.25,0.25,1.25,0.02,0.45,1.33,998.44,-20.5,53.3
0.5,1.25,0.0,1.0,1.0,0.0,0.0,0.5,0.0,0.5,0.25,0.5,0.0,0.0,1.08,4.39,0.14,97.32,24.0,36.0,8.25,2.0,9.5,7.5,6.25,0.0,7.75,0.0,0.25,0.0,0.25,0.5,0.25,0.14,0.58,1.77,850.44,-22.9,60.3
0.52,1.5,0.0,0.0,0.5,0.0,0.0,0.0,0.0,0.25,1.25,0.0,0.75,0.0,0.95,4.64,-0.3,90.64,11.5,-4.4,8.25,1.25,8.0,4.0,5.5,0.0,7.25,0.0,0.0,0.0,0.25,0.0,0.25,0.2,0.95,2.39,675.61,-24.0,63.4
0.54,1.25,0.0,1.0,0.5,0.0,0.0,0.0,0.0,0.0,2.25,0.5,2.5,1.25,0.08,-0.48,2.02,110.89,6.8,-44.8,6.75,0.25,5.5,3.0,2.25,0.0,5.75,0.0,0.0,0.0,0.25,0.0,0.25,0.45,1.08,2.27,476.01,-27.0,63.0
0.56,0.0,0.0,0.0,0.25,0.0,0.0,0.0,0.0,0.0,2.5,0.0,3.75,2.5,0.45,0.27,1.39,131.88,-4.0,-95.5,4.5,0.25,3.25,1.0,1.75,0.0,3.5,0.0,0.0,0.0,0.25,0.5,0.25,0.33,0.77,2.58,311.55,-25.6,55.6
0.58,0.0,0.0,0.5,1.0,0.0,0.0,0.0,0.0,0.0,4.75,3.75,3.5,4.0,-0.55,0.39,2.33,192.0,-1.3,-78.4,0.5,0.25,2.75,0.5,1.75,0.0,1.5,0.5,0.0,0.0,0.25,0.75,0.0,0.7,-0.05,2.2,185.42,-18.5,34.0
0.6,0.0,0.0,0.25,0.5,0.0,0.0,0.0,1.5,0.75,1.75,3.75,3.0,4.25,-1.05,0.7,2.95,228.08,-1.2,-79.6,0.5,0.0,3.0,0.5,0.25,0.0,0.25,0.0,0.0,0.0,0.25,0.0,0.0,0.64,-0.17,0.2,61.07,-31.5,56.0
0.62,0.0,0.0,0.0,0.5,0.0,0.0,0.0,3.0,1.75,6.5,5.0,2.25,4.0,-0.11,0.2,0.95,285.06,-4.6,-74.4,0.5,0.0,1.75,0.5,1.25,0.0,0.0,0.5,0.0,0.0,0.25,0.0,0.25,1.14,-0.86,1.58,0.0,-15.3,37.6
0.64,0.0,0.0,0.0,1.0,0.0,0.0,0.5,4.5,1.5,6.0,6.25,0.0,3.75,-0.17,0.14,0.95,321.33,-4.8,-64.6,0.5,0.0,1.25,0.5,1.5,0.0,0.25,0.5,0.0,0.0,0.25,0.25,0.25,0.39,-0.98,1.14,0.0,-12.2,29.2
0.66,0.0,0.0,0.0,0.5,0.0,0.0,0.5,3.5,0.75,6.5,6.25,1.25,3.75,-0.17,0.08,0.95,353.3,-4.9,-72.2,0.5,0.0,0.75,0.5,0.5,0.0,0.25,0.75,0.0,0.0,0.25,0.0,0.25,0.39,-0.3,0.58,0.0,-11.6,22.0
0.68,0.0,0.0,0.0,1.75,0.0,0.0,1.0,4.5,1.75,7.0,6.75,3.0,4.0,-0.17,0.08,0.95,393.32,-2.6,-65.9,0.25,0.25,0.75,0.5,0.0,0.0,0.0,0.75,0.0,0.0,0.0,0.0,0.25,0.33,-0.23,0.27,0.0,-12.1,24.4
0.7,0.0,0.0,0.0,2.5,0.0,0.25,0.75,4.5,1.75,6.5,6.25,3.25,3.75,-0.11,0.08,0.95,429.93,-2.2,-61.8,0.0,0.25,0.5,0.5,1.0,0.0,0.25,0.75,0.0,0.0,0.25,0.0,0.25,0.27,-0.23,0.52,0.0,-4.8,20.1
0.72,0.0,0.0,0.0,1.25,0.0,1.0,1.0,4.5,1.75,5.5,5.75,2.5,3.75,-0.17,0.08,0.95,440.56,-3.6,-62.6,0.0,0.25,0.75,0.5,0.25,0.0,0.0,0.5,0.0,0.0,0.25,0.0,0.25,0.08,-0.23,0.95,0.0,-11.1,18.4
0.74,0.0,0.25,0.0,2.5,0.0,0.25,1.0,4.0,1.5,4.5,4.5,2.0,2.75,-0.17,0.08,0.95,410.49,-1.5,-53.2,0.0,0.0,0.5,0.5,0.25,0.0,0.0,0.75,0.0,0.0,0.25,0.0,0.25,-0.05,-0.11,0.95,0.0,-5.5,0.6
0.76,0.0,0.5,0.0,2.5,0.0,1.5,1.0,3.0,1.25,3.75,2.25,1.25,1.75,-0.17,0.08,0.95,353.57,-2.7,-37.4,0.0,0.0,0.5,0.5,0.5,0.0,0.0,0.5,0.25,0.0,0.0,0.0,0.25,-0.05,0.02,0.89,0.0,-6.8,13.5
0.78,0.0,0.5,0.0,2.0,0.0,2.0,1.0,3.5,0.75,2.75,1.75,1.0,1.25,-0.11,0.08,0.95,288.75,-4.3,-31.4,0.0,0.25,0.5,0.5,0.0,0.0,0.0,0.75,0.0,0.0,0.0,0.0,0.25,-0.05,0.08,1.27,7.17,-6.8,12.9
0.8,0.0,1.0,0.0,4.25,0.0,2.75,1.25,3.25,0.75,2.5,0.75,1.0,1.25,-0.11,0.14,0.95,255.92,-1.9,-10.1,0.0,0.25,0.5,0.5,0.25,0.0,0.0,0.5,0.0,0.0,0.25,0.0,0.25,-0.11,0.14,1.58,20.81,-8.3,14.2
0.82,0.0,1.0,0.0,4.5,5.5,3.25,1.25,3.25,0.0,2.25,0.5,1.0,1.25,-0.11,0.14,0.95,261.18,-2.9,10.5,0.0,0.0,0.5,0.25,0.5,0.0,0.0,0.5,0.25,0.0,0.25,0.0,0.25,-0.05,0.27,2.14,29.25,-6.1,0.8
0.84,0.0,1.0,0.0,4.5,6.0,3.25,1.25,3.0,0.0,1.25,0.5,0.75,0.25,-0.17,0.14,0.95,273.85,-1.8,23.0,0.0,0.0,0.5,0.5,0.5,0.0,0.0,0.5,0.25,0.0,0.25,0.0,0.25,0.02,0.39,2.27,35.55,-7.1,6.0
0.86,2.0,1.0,0.0,6.25,6.75,4.25,1.5,3.25,0.0,2.25,1.5,1.0,1.25,-0.11,0.14,0.95,322.33,0.4,18.6,0.0,0.25,0.5,0.25,0.0,0.0,0.0,0.5,0.25,0.0,0.0,0.0,0.25,0.02,0.58,2.77,33.38,-9.1,7.3
0.88,0.0,1.0,0.0,7.0,0.0,4.75,1.5,3.25,0.25,2.25,1.25,1.0,1.25,-0.11,0.14,0.95,326.26,-1.0,2.2,0.0,0.0,0.75,0.25,0.25,0.0,0.0,0.5,0.25,0.0,0.0,0.0,0.25,0.08,0.89,3.33,34.15,-10.4,8.8
0.9,3.75,1.0,2.25,7.75,8.0,5.0,2.0,3.25,0.75,2.25,1.25,1.0,1.25,-0.11,0.14,0.95,411.45,4.5,27.0,0.0,0.0,0.5,0.5,0.0,0.0,0.0,0.5,0.25,0.0,0.0,0.0,0.25,0.2,2.14,2.39,33.04,-9.7,2.2
0.92,3.5,1.0,0.0,8.0,0.0,5.25,2.0,3.25,0.75,2.25,1.25,1.0,1.25,-0.17,0.14,1.02,413.92,3.9,15.3,1.0,1.0,0.5,0.75,0.25,1.25,0.0,0.5,0.25,0.75,0.0,0.75,0.25,-0.36,2.52,0.77,61.38,-5.0,18.0
0.94,0.0,1.0,0.0,9.0,8.25,5.5,2.25,3.0,0.5,2.25,1.25,1.0,1.25,-0.17,0.2,0.95,479.82,-0.4,20.2,0.5,0.75,2.0,1.0,1.75,0.75,0.0,0.75,0.5,1.0,0.75,0.75,1.0,-1.61,3.45,0.77,108.96,-6.6,5.7
0.96,0.0,1.0,0.0,9.0,0.0,5.5,2.75,2.75,0.5,2.25,1.25,1.0,1.25,-0.17,0.2,1.02,444.81,1.0,8.6,0.5,1.0,2.0,0.75,1.75,1.25,0.0,0.75,0.25,0.5,0.75,0.75,1.25,-2.23,3.95,0.02,152.66,-5.7,9.5
0.98,2.5,1.25,0.0,10.0,0.0,0.0,2.75,2.5,0.5,2.25,0.25,1.0,1.25,-0.17,0.2,1.02,413.57,10.4,19.1,0.5,0.0,1.25,0.75,2.25,0.0,0.25,0.75,0.0,0.0,1.25,0.0,1.25,-1.86,5.58,-1.48,165.7,-6.7,5.9
1.0,3.25,1.25,7.5,10.5,0.0,0.0,3.25,1.75,0.5,1.75,1.0,0.0,1.0,-0.17,0.2,0.95,406.06,19.7,38.2,0.0,0.0,0.25,0.0,0.0,0.0,0.0,0.75,0.0,1.0,0.5,2.25,1.0,-0.55,0.39,1.83,155.32,1.2,-84.1
1.02,0.0,1.25,0.0,10.5,0.0,0.0,3.5,1.5,0.25,0.75,0.5,0.0,0.0,-0.17,0.2,0.95,348.08,13.6,38.3,0.0,0.25,1.5,0.0,0.0,0.0,0.0,0.75,0.5,5.25,1.5,4.25,4.5,0.52,-0.05,1.02,200.03,1.9,-75.6
1.04,0.0,1.25,7.25,11.5,0.0,0.0,3.75,1.5,0.0,0.75,0.5,0.5,0.75,-0.17,0.27,1.08,345.79,19.9,39.0,0.5,0.25,0.5,0.5,0.0,0.5,0.0,0.75,0.0,7.25,4.75,5.25,6.75,-0.8,0.58,2.7,275.43,3.2,-78.2
1.06,6.0,1.25,8.25,11.0,0.0,0.0,4.5,1.5,0.0,0.75,0.5,0.5,0.5,-0.23,0.27,1.14,370.06,23.5,50.5,0.0,0.25,0.5,0.0,0.0,0.0,0.0,2.5,0.0,8.0,7.0,5.0,6.5,0.77,0.39,2.02,369.93,4.0,-82.0
1.08,7.5,1.25,8.25,10.5,0.0,0.0,5.0,0.0,0.0,1.0,0.5,0.25,0.5,-0.3,0.33,1.33,420.23,25.8,56.6,0.75,1.0,0.5,0.0,1.0,2.0,0.0,4.25,1.0,8.75,7.75,4.75,4.75,-0.11,0.27,1.27,483.52,3.5,-59.2
1.1,7.75,0.0,8.0,9.0,0.0,0.0,5.0,1.5,0.0,1.0,0.75,0.0,0.0,-0.3,0.45,1.7,439.44,25.4,53.5,1.25,1.25,0.0,1.5,2.25,3.75,0.25,5.75,1.75,8.75,8.5,4.75,5.5,0.08,0.2,0.95,613.11,3.5,-46.8
1.12,8.25,0.0,7.25,7.25,0.0,0.0,4.5,0.0,0.0,0.75,0.5,0.0,0.0,-0.61,0.64,2.2,434.06,28.6,61.7,1.5,1.25,1.75,1.5,2.75,4.25,1.25,6.0,1.5,8.5,8.75,4.75,5.25,0.08,0.14,0.95,716.51,1.6,-39.1
1.14,7.75,0.0,4.75,4.25,0.0,0.0,3.25,1.25,0.0,1.5,0.5,0.5,0.0,-0.67,1.08,2.64,377.89,24.3,48.2,1.5,1.25,2.75,3.25,4.75,5.75,2.25,6.0,1.75,7.75,8.25,3.5,4.75,0.08,0.08,0.95,806.09,0.5,-23.9
1.16,6.5,0.0,3.75,3.25,0.0,0.0,1.75,0.0,0.0,1.75,0.5,0.0,0.0,-0.61,0.89,2.89,316.52,25.8,53.6,1.75,1.75,2.25,3.25,5.5,6.25,2.75,6.0,1.75,6.75,7.75,3.0,3.75,0.14,0.08,0.95,856.34,0.3,-16.9
1.18,0.0,0.0,3.0,0.0,0.0,0.0,0.5,0.0,0.0,0.0,0.5,0.0,0.0,-0.67,0.14,2.89,216.85,34.4,41.5,1.75,2.0,3.5,4.0,6.5,6.75,3.5,6.0,1.5,6.0,5.75,2.25,3.0,0.14,0.14,0.95,887.63,-0.7,-4.9
1.2,0.0,0.0,0.0,3.25,0.0,0.0,5.0,0.0,0.25,0.0,0.0,0.0,0.0,-0.73,-0.92,2.08,141.88,23.0,41.8,2.0,2.0,5.0,5.25,7.25,7.25,3.5,6.0,1.25,4.5,4.25,1.5,2.25,0.14,0.14,0.95,900.81,-2.3,7.7
1.22,0.0,0.0,0.0,0.0,0.0,0.0,0.0,0.0,2.5,0.0,0.0,0.5,0.0,-0.92,-0.42,1.02,55.24,11.6,-50.5,2.0,2.0,5.5,5.5,7.5,7.5,3.75,5.5,1.25,2.5,2.5,1.0,2.0,0.14,0.14,0.95,882.39,-3.4,17.9
1.24,0.0,0.0,0.0,0.5,0.0,0.0,0.0,0.0,0.0,0.75,0.5,0.0,0.0,-0.42,-1.86,1.52,0.0,1.3,-35.7,2.0,1.5,4.0,5.5,8.0,7.5,3.5,5.0,0.75,1.75,0.25,1.0,1.0,0.14,0.14,0.95,805.49,-2.3,26.9
1.26,0.0,0.0,1.0,1.25,0.0,0.0,0.0,0.0,1.25,0.0,0.0,0.25,0.0,-0.23,-0.55,1.33,0.0,20.7,16.6,2.0,2.0,5.25,5.75,8.5,7.75,3.5,4.75,0.0,1.5,1.5,0.75,1.5,0.08,0.08,0.95,743.36,-3.4,27.8
1.28,1.25,0.0,0.75,0.5,0.0,0.0,1.75,0.0,0.0,0.75,0.0,0.0,0.0,-0.36,-0.42,0.58,0.0,23.3,38.9,1.5,1.25,5.5,5.5,8.0,7.5,3.0,4.0,0.0,1.0,0.5,0.75,0.25,0.08,0.14,0.95,663.2,-4.1,34.9
1.3,1.25,0.0,0.0,0.5,0.0,0.0,0.0,0.0,0.0,1.5,0.0,0.0,0.0,-0.55,-0.23,0.52,0.0,8.2,9.7,1.75,1.25,4.5,5.5,7.75,7.25,3.0,3.75,0.0,1.5,0.25,0.0,0.25,0.08,0.14,0.95,599.15,-3.3,37.2
1.32,1.25,0.0,0.0,2.5,0.0,0.0,0.0,0.0,0.25,1.75,0.0,0.0,0.0,-0.42,-0.23,0.64,0.0,10.6,21.4,1.75,0.5,5.5,5.5,7.75,7.25,3.0,3.0,0.25,1.0,0.25,0.25,0.25,0.08,0.2,0.95,541.09,-4.9,38.1
1.34,0.0,0.0,0.0,0.5,0.0,0.0,0.0,0.0,0.0,0.75,0.0,0.0,0.0,-0.23,-0.23,1.02,0.0,-2.1,-20.6,1.75,1.25,5.5,5.5,8.25,7.5,2.75,2.5,0.5,1.25,0.25,0.75,1.0,0.08,0.2,0.89,522.19,-4.6,34.5
1.36,1.25,0.0,1.0,2.0,0.0,0.0,0.25,0.0,0.25,1.75,0.0,0.0,0.0,-0.17,-0.05,1.08,23.67,14.9,24.9,1.75,1.25,5.5,7.0,8.5,6.75,2.5,2.25,0.0,1.0,0.25,0.75,1.25,0.08,0.2,0.89,519.85,-5.5,36.8
1.38,1.25,0.0,1.5,1.75,0.0,0.0,0.0,0.0,0.25,1.75,0.0,0.0,0.0,-0.23,0.14,1.2,53.03,16.3,26.4,2.25,1.25,5.5,9.0,8.5,7.5,2.5,2.25,0.0,0.0,0.25,0.25,0.5,0.02,0.2,0.89,539.73,-6.8,46.0
1.4,0.0,0.0,1.0,1.75,0.0,0.0,0.0,0.0,0.25,1.5,0.0,0.0,0.0,-0.23,0.14,1.39,75.7,10.9,10.0,3.25,1.25,7.5,7.5,9.75,6.75,2.5,2.25,0.0,0.0,1.5,0.0,0.25,0.02,0.27,0.89,579.54,-8.9,46.3
1.42,0.5,0.0,1.5,2.0,0.0,0.0,0.0,0.0,0.25,1.5,0.0,0.5,0.0,-0.11,0.2,1.83,94.63,15.0,13.1,5.5,2.25,7.25,2.0,9.0,7.5,2.5,1.75,0.5,0.0,0.25,0.0,0.0,0.02,0.27,0.89,585.92,-9.2,53.2
1.44,1.25,0.0,1.0,2.0,0.0,0.0,0.0,0.0,0.25,1.5,0.0,0.0,0.0,-0.11,0.39,2.14,99.37,15.8,29.0,5.5,2.25,8.75,11.0,11.0,6.75,4.5,2.0,0.5,1.0,1.5,0.5,1.0,0.02,0.27,0.95,704.02,-10.7,44.1
1.46,1.25,0.0,1.0,2.0,0.0,0.0,0.0,0.0,0.25,1.5,0.0,0.25,0.0,-0.17,0.52,2.58,105.77,15.5,23.5,5.5,2.0,8.75,11.0,9.75,6.25,5.25,0.75,0.25,0.0,0.25,0.25,0.25,0.02,0.27,0.95,772.01,-13.2,54.6
1.48,2.0,0.0,1.0,2.0,0.0,0.0,0.0,0.0,0.25,1.5,0.0,0.0,0.0,-0.3,0.7,3.14,109.66,17.8,36.2,6.25,1.25,9.25,11.0,9.75,6.0,5.5,0.75,0.0,0.0,0.25,0.0,1.25,0.02,0.33,1.02,846.6,-13.4,52.5
1.5,0.25,0.0,1.25,0.5,0.0,0.0,0.0,0.0,0.5,1.5,0.5,0.0,0.0,-0.55,1.95,3.14,100.1,11.9,-8.2,6.75,2.25,9.75,12.5,9.75,6.0,6.25,0.75,0.0,0.0,0.25,0.0,0.25,0.02,0.33,1.08,890.33,-14.6,57.0
1.52,1.25,0.0,0.0,0.5,0.0,0.0,0.0,0.0,0.0,0.75,0.25,0.0,0.0,-0.05,2.45,1.27,81.06,15.1,25.9,7.5,2.75,10.5,14.0,9.75,5.5,6.75,0.5,0.5,0.0,0.25,0.75,0.25,0.02,0.33,1.14,968.8,-15.6,55.4
1.54,2.0,0.0,0.0,2.0,0.0,0.0,0.0,0.0,0.25,1.5,0.0,0.25,0.75,0.52,3.58,1.45,82.97,10.7,10.2,7.75,2.25,10.5,11.5,8.5,3.5,7.0,0.5,0.5,0.0,1.25,0.25,1.0,0.02,0.39,1.2,974.01,-17.2,52.5
1.56,1.5,0.0,0.75,1.5,0.0,0.0,0.0,0.0,0.0,1.5,0.5,0.0,0.25,1.33,4.02,0.08,84.58,13.9,16.2,8.0,2.25,10.5,10.0,7.5,2.0,7.0,0.0,0.25,0.0,0.25,0.25,0.25,0.08,0.52,1.45,925.72,-20.1,60.0
1.58,2.25,0.0,0.0,1.75,0.0,0.0,0.0,0.0,0.0,0.0,0.0,0.0,0.75,1.02,4.2,4.33,87.52,20.0,48.2,8.75,2.75,9.5,7.5,7.25,1.5,6.75,0.0,0.0,0.0,0.5,0.0,1.0,0.27,0.83,2.33,841.8,-20.0,59.4
1.6,1.25,0.0,0.0,1.25,0.0,0.0,0.0,0.0,0.0,1.5,0.5,0.0,0.5,-0.05,-0.36,-0.42,81.33,7.6,-3.2,8.25,2.0,7.25,5.5,5.5,2.0,5.75,0.75,0.5,0.0,0.75,0.0,1.25,0.64,1.08,2.39,719.55,-18.4,53.2
1.62,1.75,0.0,0.75,0.25,0.0,0.0,0.0,0.0,0.0,2.25,1.0,3.75,0.0,0.08,-0.8,1.33,103.37,10.3,-44.7,5.5,0.25,5.0,2.0,2.25,0.0,3.5,0.0,0.25,0.0,0.25,0.0,0.25,0.64,0.95,2.52,498.45,-26.2,61.8
1.64,0.0,0.0,0.0,0.75,0.0,0.0,0.25,0.75,0.0,4.25,3.25,0.0,4.0,0.14,0.52,2.14,144.52,-6.4,-75.2,2.25,0.0,2.75,1.25,1.75,0.5,1.25,0.0,0.0,0.0,0.25,0.0,0.0,0.64,0.45,2.64,302.72,-21.8,60.2
1.66,0.0,0.0,0.0,0.5,0.0,0.0,0.0,0.0,0.0,5.25,4.75,0.0,5.0,-0.05,0.39,2.2,193.57,-6.0,-82.4,1.75,0.0,2.25,0.5,1.75,0.5,0.25,0.0,0.0,1.0,0.25,0.75,0.0,0.7,-0.86,0.45,173.32,-14.8,31.2
1.68,0.0,0.0,1.0,1.25,0.0,0.0,0.0,1.75,0.0,6.5,6.5,3.75,6.0,-0.8,0.45,2.33,277.01,-1.9,-74.0,0.5,0.25,2.0,0.5,1.75,0.25,0.0,0.0,0.0,0.0,0.25,0.0,0.25,0.89,0.02,1.45,49.09,-15.5,48.9
1.7,0.0,0.0,0.0,0.0,0.0,0.0,0.0,3.75,0.75,5.25,6.5,3.0,5.25,-0.11,0.2,1.2,336.37,-4.7,-80.5,0.5,0.0,1.25,0.5,1.75,0.25,0.0,0.0,0.0,0.0,0.25,0.0,0.25,0.64,-1.42,1.27,0.0,-12.2,44.5
1.72,0.0,0.0,0.0,0.0,0.0,0.0,0.0,4.75,1.5,0.0,6.75,3.75,6.0,-0.11,0.08,1.02,375.85,-1.8,-80.4,0.5,0.0,1.25,0.5,1.25,0.0,0.0,0.0,0.0,0.0,0.25,0.0,0.25,0.39,-0.55,1.08,0.0,-16.3,43.8
1.74,0.0,0.0,0.0,0.0,0.0,0.0,0.0,4.75,1.75,8.0,7.0,3.0,5.25,-0.11,0.08,0.95,425.29,-5.3,-77.2,0.5,0.0,0.5,0.5,1.5,0.0,0.0,0.0,0.0,0.0,0.25,0.0,0.25,0.33,-0.3,0.27,0.0,-10.2,41.1
1.76,0.0,0.0,0.0,2.5,0.0,0.25,0.25,5.0,0.0,7.5,6.75,3.0,5.25,-0.11,0.08,0.95,462.89,-4.4,-66.2,0.5,0.0,0.75,0.5,1.0,0.0,0.0,0.0,0.0,0.0,0.25,0.0,0.25,0.33,-0.23,0.33,0.0,-14.6,40.5
1.78,0.0,0.0,0.0,2.5,0.0,0.25,0.25,5.0,0.25,7.0,6.25,3.25,5.0,-0.11,0.08,0.95,482.58,-4.1,-65.6,0.5,0.0,1.0,0.5,0.5,0.0,0.0,0.0,0.0,0.0,0.0,0.0,0.25,0.2,-0.23,0.89,0.0,-20.7,49.5
1.8,0.0,0.0,0.0,2.0,0.0,0.75,0.5,4.75,0.0,6.5,5.75,3.0,3.75,-0.11,0.08,0.95,472.36,-4.5,-63.4,0.5,0.0,2.75,0.5,2.25,0.0,0.0,0.0,0.0,0.0,0.25,0.0,0.25,0.02,-0.23,1.02,0.0,-17.9,49.3
1.82,0.0,0.0,0.0,1.0,0.0,1.0,0.25,4.75,0.0,6.0,4.75,2.5,3.0,-0.11,0.08,0.95,433.19,-6.2,-65.1,0.25,0.25,0.0,0.5,0.0,0.0,0.0,0.0,0.0,0.0,0.25,0.0,0.25,-0.05,0.02,0.83,0.0,-12.8,21.2
1.84,0.0,0.0,0.0,1.75,0.0,1.5,0.25,4.5,0.0,5.25,4.0,2.0,2.75,-0.11,0.08,0.95,378.83,-6.1,-56.6,0.25,0.0,0.5,0.5,0.25,0.0,0.0,0.0,0.0,0.0,0.0,0.0,0.0,0.02,0.14,0.95,0.0,-23.0,64.0
1.86,0.0,0.25,0.0,2.25,0.0,1.5,0.5,4.5,0.0,4.5,3.5,2.0,2.5,-0.11,0.08,0.95,332.14,-5.0,-49.6,1.5,0.75,2.5,1.0,2.25,2.0,0.0,0.75,0.0,0.0,1.0,0.0,1.0,0.02,0.2,1.33,75.3,-8.2,32.2
1.88,0.0,0.25,0.0,2.5,1.25,2.25,0.5,4.75,0.0,4.25,2.25,1.5,2.25,-0.11,0.08,0.95,298.34,-6.4,-34.8,0.0,0.0,2.25,0.5,2.25,0.0,0.0,0.75,0.0,0.0,0.75,0.0,1.0,0.02,0.27,1.7,107.41,-8.8,14.3
1.9,0.25,0.5,0.0,2.5,0.0,2.75,0.5,4.75,0.0,4.0,2.5,1.0,1.5,-0.11,0.08,0.95,273.55,-6.0,-31.5,0.0,0.0,0.75,0.5,0.25,0.75,0.0,0.0,0.25,0.0,0.25,0.75,0.25,0.08,0.39,1.89,109.11,-7.9,-5.5
1.92,1.25,0.75,0.0,2.5,0.0,3.5,0.5,4.5,0.0,4.0,2.0,1.0,1.5,-0.11,0.14,0.95,258.55,-4.8,-20.8,1.5,1.0,1.75,1.0,2.25,1.25,0.0,0.75,0.25,0.0,0.5,0.75,1.0,0.14,0.58,2.33,139.75,-8.2,25.9
1.94,1.0,1.0,0.0,3.0,6.25,3.5,0.5,4.75,0.0,3.75,2.25,1.25,1.5,-0.11,0.14,0.95,287.19,-3.9,-1.9,0.0,0.0,0.5,0.5,0.5,0.0,0.0,0.0,0.0,0.0,0.0,0.0,0.25,0.2,1.14,2.58,112.58,-12.4,34.3
1.96,2.0,1.0,0.5,4.25,6.25,4.0,0.75,4.75,0.5,3.75,1.5,1.25,1.25,-0.11,0.14,0.95,334.38,-1.4,7.0,1.25,0.0,0.75,0.5,0.0,0.0,0.0,0.0,0.0,0.0,0.0,0.75,0.25,0.14,1.7,2.95,93.96,-23.8,23.5
1.98,2.75,1.0,1.0,4.5,7.0,4.75,1.0,4.75,0.25,2.75,2.0,1.0,1.5,-0.11,0.14,0.95,393.53,0.0,13.3,1.5,0.0,1.75,0.75,2.25,0.75,0.0,0.75,0.25,1.0,1.0,0.75,1.25,-0.42,3.08,1.95,114.55,-6.5,3.6
2.0,3.0,1.0,1.0,4.75,7.0,4.75,1.0,4.5,0.0,2.5,1.25,1.0,1.25,-0.11,0.14,0.95,444.95,0.3,18.6,1.0,0.75,1.75,0.75,2.25,1.25,0.25,0.75,0.5,1.0,0.5,0.75,1.25,-1.17,2.95,0.7,152.02,-5.0,9.4
2.02,1.25,1.0,2.5,6.25,7.75,5.5,1.5,4.5,0.75,2.25,0.5,1.0,1.25,-0.11,0.14,0.95,499.06,0.9,21.0,1.25,1.0,1.75,1.0,1.75,1.25,0.25,0.75,0.25,1.5,1.0,0.75,1.0,-1.98,3.77,-0.23,182.78,-5.9,8.7
2.04,2.25,1.0,3.25,7.0,8.25,5.75,1.75,4.5,0.75,2.25,0.5,1.0,1.25,-0.11,0.14,1.02,554.85,2.6,24.9,0.75,1.0,1.75,0.5,1.75,0.75,0.0,0.75,0.0,2.0,1.5,1.25,1.25,-1.86,4.52,-0.48,201.5,-4.2,-9.1
2.06,0.0,1.0,3.75,8.0,8.5,5.75,2.0,4.0,0.75,2.25,1.25,1.0,1.25,-0.11,0.14,1.02,601.41,2.2,21.6,1.0,1.0,1.75,0.75,1.75,1.25,0.0,0.75,0.0,4.75,2.5,3.0,2.25,-0.17,0.08,0.33,241.42,-1.3,-31.2
2.08,3.5,1.0,0.0,8.5,8.25,5.25,2.75,3.25,0.75,2.25,0.0,1.0,1.25,-0.11,0.14,1.02,619.41,2.3,28.7,1.0,0.75,1.75,0.5,0.0,1.75,0.0,1.5,0.5,7.25,5.5,3.5,4.5,-0.05,0.7,3.52,294.48,0.8,-54.7
2.1,0.0,1.0,0.0,9.25,8.5,5.5,3.25,3.5,0.5,2.25,1.25,1.0,1.25,-0.11,0.14,1.08,613.76,-0.1,20.0,0.0,0.25,0.75,0.0,0.0,2.0,0.0,3.75,0.25,6.25,5.75,1.5,3.0,0.27,0.83,0.89,331.43,5.8,-60.6
2.12,0.0,1.0,0.0,9.5,0.0,5.0,3.5,3.0,0.5,2.25,0.0,1.0,1.0,-0.17,0.2,1.08,520.73,1.8,14.2,0.25,0.25,0.0,1.75,0.0,2.0,0.0,3.75,0.75,6.25,4.75,1.75,2.5,0.14,0.08,0.95,365.72,5.1,-52.3
2.14,0.0,1.0,7.5,10.5,0.0,3.75,3.75,2.0,0.5,1.75,0.0,1.0,1.25,-0.17,0.2,1.02,477.41,13.0,28.4,1.5,1.0,0.75,1.5,2.25,4.5,0.75,5.0,1.0,6.75,5.75,2.25,3.0,0.08,0.14,0.95,420.2,3.2,-30.2
2.16,0.0,1.0,8.0,10.5,0.0,0.0,4.25,1.75,0.5,1.0,0.0,0.0,0.0,-0.17,0.2,1.33,406.77,21.3,44.4,0.0,0.25,1.25,2.0,1.75,4.75,0.5,5.0,1.0,6.75,4.75,2.5,1.75,0.08,0.08,0.89,447.48,4.4,-33.3
2.18,4.75,1.0,8.25,9.25,0.0,0.0,4.25,1.25,0.0,0.0,0.0,0.25,0.5,-0.23,0.27,1.52,386.54,25.2,55.5,1.5,1.25,1.5,2.75,3.5,6.0,1.25,6.0,1.0,6.25,4.75,2.0,3.0,0.14,0.08,0.95,523.39,2.7,-17.2
2.2,5.5,0.0,8.0,6.25,0.0,0.0,4.25,1.5,0.0,1.25,0.75,0.25,0.0,-0.42,0.33,2.02,360.41,24.8,46.9,1.75,1.5,2.0,3.25,5.0,6.75,1.75,6.0,1.0,5.5,4.75,2.0,1.75,0.14,0.14,0.95,585.34,1.3,-6.2
2.22,2.5,0.0,5.75,4.25,0.0,0.0,2.5,0.0,0.25,1.5,0.75,0.5,0.0,-0.67,0.89,2.14,307.37,24.6,38.3,1.75,2.0,3.75,3.25,6.0,7.25,2.0,6.0,1.0,5.0,3.75,1.5,1.75,0.14,0.08,0.95,654.85,0.0,3.2
2.24,2.5,0.0,4.25,2.5,0.0,0.0,1.5,0.0,0.0,0.0,0.75,0.0,0.0,-0.36,0.58,2.02,239.01,30.2,56.8,1.75,2.0,3.0,3.25,7.0,7.75,2.0,6.0,1.0,3.75,2.75,1.25,1.5,0.14,0.08,0.95,687.72,0.7,9.3
2.26,0.0,0.0,2.75,2.5,0.0,0.0,0.5,0.5,2.25,0.0,0.5,0.0,0.0,-0.48,0.08,1.77,161.33,20.8,21.2,1.75,2.0,3.5,3.25,7.25,7.5,2.0,6.0,0.75,2.75,2.5,0.75,1.5,0.14,0.14,0.95,698.0,0.0,14.3
2.28,0.0,0.0,2.0,2.5,0.0,0.0,0.25,1.5,0.25,0.75,0.0,0.0,0.0,-0.55,-0.55,1.33,94.93,12.8,21.4,1.75,1.75,4.0,3.25,7.0,8.0,2.0,5.75,1.0,2.0,0.25,0.5,1.25,0.14,0.08,0.95,668.81,0.0,22.8
2.3,1.25,0.0,0.75,2.0,0.0,0.0,0.0,1.5,0.5,0.0,0.25,0.0,0.0,-0.55,-0.73,1.02,51.06,14.3,29.8,2.25,2.0,2.25,4.5,7.25,8.25,1.5,5.25,1.0,1.0,0.25,1.25,1.25,0.14,0.08,0.95,631.06,0.2,24.8
2.32,0.0,0.0,1.0,2.0,0.0,0.0,0.25,1.75,0.0,0.0,1.0,0.0,0.0,-0.3,-1.11,0.52,31.11,10.1,7.7,3.0,1.5,3.25,3.25,7.75,8.0,2.5,5.0,0.0,1.0,1.0,0.25,1.25,0.08,0.14,0.95,599.03,-0.9,29.1
2.34,0.0,0.0,0.0,0.25,0.0,0.0,2.0,0.0,0.25,0.0,0.0,0.0,0.0,-0.36,-0.73,1.52,0.0,26.2,21.7,2.0,1.25,3.25,4.5,7.5,7.75,2.75,4.0,0.0,0.25,0.25,0.0,0.25,0.08,0.14,0.95,561.68,-1.9,39.5
2.36,0.0,0.0,0.0,0.5,0.0,0.0,0.0,0.0,0.25,0.75,0.0,0.0,0.0,-0.05,-0.73,0.95,0.0,0.1,-23.5,3.0,0.25,3.25,5.25,7.5,7.75,2.0,3.75,0.25,0.0,0.25,0.0,0.25,0.08,0.14,0.95,524.3,-2.9,40.8
2.38,0.5,0.0,1.0,0.5,0.0,0.0,0.25,0.0,0.0,0.0,0.0,0.0,0.0,-0.05,-0.42,0.77,0.0,32.0,66.4,3.5,0.5,5.0,5.5,7.5,7.5,2.5,3.5,0.25,0.0,0.25,0.0,0.25,0.08,0.2,0.95,506.89,-5.8,43.6
2.4,0.0,0.0,0.0,0.0,0.0,0.0,0.0,0.0,0.5,0.75,0.0,0.0,0.0,7.08,7.95,-0.86,0.0,-4.6,-60.8,5.25,0.0,5.5,5.25,7.5,7.0,3.0,2.5,0.25,0.0,0.25,0.0,1.25,0.08,0.2,0.95,514.31,-7.9,43.3
2.42,0.0,0.0,0.5,2.5,0.0,0.0,0.5,0.0,0.25,1.25,0.25,0.0,0.0,1.45,1.14,2.64,0.0,11.4,13.1,6.0,2.0,6.25,6.5,7.75,6.0,2.5,2.25,0.0,0.0,0.25,0.0,0.5,0.02,0.2,1.02,540.75,-10.6,52.4
2.44,0.25,0.0,1.0,2.0,0.0,0.0,0.25,0.0,0.25,1.75,0.0,0.0,0.0,-0.67,-0.98,2.08,17.08,11.5,12.5,6.75,2.25,7.5,7.25,7.75,6.0,3.5,0.75,0.0,0.0,0.25,0.0,0.25,0.02,0.27,1.02,585.37,-13.4,57.8
2.46,0.25,0.0,1.25,2.25,0.0,0.0,0.25,0.0,0.25,1.5,0.0,0.0,0.0,0.52,0.14,-0.11,54.59,14.1,20.5,7.75,2.25,8.5,7.5,7.25,5.0,4.5,0.75,0.0,0.0,0.25,0.25,0.25,0.02,0.27,0.95,634.64,-15.7,58.0
2.48,0.0,0.0,1.0,1.75,0.0,0.0,0.25,0.0,0.5,1.75,0.0,0.0,0.25,0.45,0.95,-0.23,72.4,9.0,-1.3,8.0,2.75,8.75,7.5,7.5,3.75,4.5,0.75,0.0,0.0,0.25,0.0,0.25,-0.05,0.33,0.89,672.47,-16.9,60.3
2.5,1.0,0.0,1.0,1.75,0.0,0.0,0.0,0.0,0.5,1.75,0.0,0.0,0.0,0.08,0.77,0.14,86.5,13.6,18.0,8.75,3.5,9.0,7.75,7.25,2.0,6.0,0.75,0.0,0.0,0.25,0.0,0.25,0.02,0.33,1.08,704.23,-19.1,62.1
2.52,0.0,0.0,1.25,2.0,0.0,0.0,0.0,0.0,0.5,1.75,0.0,0.0,0.0,0.08,1.14,0.39,91.05,11.3,8.6,8.75,3.75,9.5,8.75,6.75,1.25,6.25,0.75,0.25,0.0,0.25,0.0,0.25,0.02,0.39,1.08,729.93,-20.2,62.1
2.54,0.25,0.0,1.0,0.5,0.0,0.0,0.0,0.0,0.0,0.75,0.0,0.0,0.0,0.08,1.2,0.64,79.05,17.6,23.3,9.5,4.5,9.5,7.75,5.5,0.0,6.75,0.0,0.25,0.0,0.25,0.0,0.25,-0.05,0.45,1.02,728.21,-23.2,66.2
2.56,0.0,0.0,0.75,0.5,0.0,0.0,0.0,0.0,0.5,0.75,0.0,0.0,0.25,-0.36,1.2,0.52,67.35,10.4,-9.4,10.5,4.75,9.5,7.25,4.5,0.0,7.25,0.0,0.25,0.0,0.25,0.0,0.25,0.02,0.58,1.33,720.58,-24.2,67.4
2.58,0.0,0.0,0.0,0.25,0.0,0.0,0.0,0.0,0.0,0.75,0.0,0.25,0.0,-0.48,0.77,0.2,48.67,-4.0,-54.5,10.5,5.0,9.0,7.25,2.25,0.0,7.5,0.75,0.25,0.0,0.25,0.0,1.0,-0.11,0.64,1.45,697.37,-24.3,63.1
2.6,0.0,0.0,0.0,0.5,0.0,0.0,0.25,0.0,0.0,0.0,0.5,0.0,1.0,-0.36,0.33,-7.98,37.15,1.8,-53.7,11.0,4.5,8.5,5.5,1.25,0.0,7.25,0.0,0.25,0.75,1.5,0.25,1.0,-0.36,0.7,1.45,655.69,-25.0,57.4
2.62,0.25,0.0,0.0,0.25,0.0,0.0,0.0,0.0,0.0,0.75,0.0,0.75,0.0,-0.86,7.77,-7.61,27.81,3.7,-50.4,12.0,5.25,7.0,3.25,1.75,0.5,7.0,0.75,0.5,0.75,0.75,0.25,1.25,-0.48,0.89,1.64,612.61,-23.0,57.7
2.64,0.0,0.0,1.0,1.75,0.0,0.0,0.25,0.0,0.25,1.25,0.0,0.5,0.0,-1.05,5.45,2.45,41.91,12.5,2.7,11.5,5.0,6.75,3.25,2.25,1.75,5.75,0.75,0.5,1.5,0.5,0.5,1.25,-0.17,0.52,1.14,586.5,-20.1,53.8
2.66,0.75,0.0,0.75,1.5,0.0,0.0,0.25,0.0,0.25,1.5,0.0,0.75,0.0,0.2,0.39,3.08,55.86,12.5,0.9,10.5,3.75,5.5,3.25,2.25,2.0,3.5,0.75,0.5,1.0,0.75,0.75,1.0,-0.92,0.33,-0.11,539.2,-19.2,52.3
2.68,1.0,0.0,1.0,1.75,0.0,0.0,0.25,0.0,0.25,1.5,0.0,0.5,0.0,0.45,-1.92,2.77,76.13,14.8,13.9,8.75,3.25,4.0,2.0,2.25,2.0,1.5,0.75,0.25,1.0,0.25,0.75,1.0,-0.73,0.14,-2.05,462.61,-17.1,51.9
2.7,1.25,0.0,0.0,1.5,0.0,0.0,0.0,0.0,0.25,1.5,0.0,0.75,0.0,0.83,-1.55,2.64,83.76,10.3,0.0,7.75,2.5,3.25,2.0,2.25,2.0,1.0,0.75,0.25,0.75,0.25,0.75,1.0,0.45,1.2,-3.3,384.26,-16.1,49.9
2.72,0.0,0.0,1.0,1.75,0.0,0.0,0.0,0.0,0.25,1.5,0.0,0.5,0.0,0.08,-0.55,2.83,86.99,10.7,-1.6,6.75,2.25,3.0,2.0,2.25,2.0,1.0,0.75,0.25,1.0,0.25,0.75,1.0,0.77,-0.17,-1.23,325.68,-14.8,45.8
2.74,1.5,0.0,1.25,2.0,0.0,0.0,0.25,0.0,0.25,0.75,0.0,0.5,0.0,0.14,-0.98,2.64,94.21,20.9,34.3,5.75,2.25,3.25,2.0,2.25,2.0,0.5,0.75,0.25,1.0,0.75,0.75,1.0,0.89,0.02,0.2,288.47,-13.9,41.4
2.76,1.75,0.0,2.0,1.75,0.0,0.0,0.0,0.0,0.25,0.75,0.0,0.5,0.25,1.02,5.27,-7.67,107.43,21.9,33.3,4.5,1.5,2.25,1.25,2.25,2.0,0.25,0.75,0.25,1.0,0.5,0.75,1.0,0.02,2.77,0.89,255.71,-11.0,35.2
2.78,0.0,0.0,0.75,0.25,0.0,0.0,0.0,0.0,0.5,0.0,0.0,0.5,0.25,0.45,-2.55,-1.98,92.92,17.9,-17.3,1.75,1.25,3.0,0.5,3.0,1.5,0.25,0.75,0.0,0.0,0.5,0.25,0.75,-1.73,4.7,-0.42,216.53,-10.5,41.0
2.8,0.0,0.0,0.0,1.25,0.0,0.0,0.25,0.0,0.5,1.25,0.0,0.5,0.5,-0.42,-0.48,-1.67,83.63,2.4,-34.7,1.75,0.25,0.0,0.5,2.25,0.25,0.0,0.5,0.0,0.0,0.0,0.0,0.25,0.2,5.58,2.02,143.32,-7.2,52.4
2.82,0.0,0.0,0.0,0.25,0.0,0.0,0.0,0.0,0.0,0.75,0.0,0.0,0.0,-0.86,-0.67,-0.3,54.97,-7.1,-40.9,3.25,1.25,1.75,1.25,2.75,2.0,0.25,0.75,0.0,1.0,0.5,0.75,1.0,-0.3,0.89,0.83,135.22,-8.0,30.7
2.84,0.0,0.0,0.5,0.25,0.0,0.0,0.0,0.0,0.0,1.0,0.0,0.5,0.0,0.52,-0.48,-1.61,40.13,5.6,-36.7,1.75,0.25,1.25,0.25,0.0,0.25,0.25,0.0,0.0,0.0,0.0,0.0,0.25,-0.11,-0.3,1.2,77.75,-26.9,64.6
2.86,0.0,0.0,0.0,1.25,0.0,0.0,0.0,0.0,0.5,0.75,0.0,0.5,0.25,-0.05,-1.11,-2.42,32.48,5.3,-25.0,1.5,0.25,0.5,0.25,0.0,0.5,0.25,0.0,0.0,1.0,0.0,0.0,0.0,1.02,-1.86,0.77,45.99,-13.3,37.9
2.88,0.0,0.0,0.0,1.0,0.0,0.0,0.0,0.0,0.25,0.75,0.0,0.75,0.0,-1.92,1.58,-0.67,32.22,5.6,-31.3,0.0,0.75,1.5,0.75,0.0,2.0,0.0,0.0,0.0,1.0,0.25,0.0,0.25,2.33,-1.98,-1.3,23.29,-3.4,24.4
2.9,0.0,0.0,0.25,1.0,0.0,0.0,0.0,0.0,0.5,0.75,0.25,0.75,0.0,0.2,0.77,0.7,36.37,8.8,-28.1,1.25,0.25,2.25,0.0,0.0,0.0,0.25,0.0,0.0,0.0,0.25,0.0,0.25,0.83,-1.11,-0.61,19.67,-31.1,54.5
2.92,0.0,0.0,0.5,1.0,0.0,0.0,0.0,0.0,0.5,0.75,0.0,0.5,0.0,2.27,-2.48,-0.67,39.75,11.0,-11.5,1.75,1.25,0.0,0.75,2.25,2.0,0.75,0.0,0.25,1.0,0.75,0.75,1.0,-0.55,0.02,-0.36,60.67,-2.7,17.2
2.94,0.0,0.0,0.25,1.0,0.0,0.0,0.25,0.0,0.25,0.75,0.0,0.5,0.25,2.89,-0.73,-1.8,42.6,7.5,-21.8,1.75,1.25,1.5,1.0,2.25,2.0,0.25,0.75,0.25,1.0,0.5,0.75,1.0,-0.8,0.58,-0.42,114.12,-5.2,21.1
2.96,0.0,0.0,0.25,1.0,0.0,0.0,0.5,0.0,0.25,0.75,0.0,0.5,0.0,1.2,-0.11,-1.05,41.84,10.2,-12.4,1.75,1.25,0.5,0.25,0.0,0.0,0.0,0.0,0.0,1.0,0.0,0.75,0.25,-0.86,1.14,-0.48,120.57,-14.9,26.0
2.98,0.0,0.0,0.75,1.0,0.0,0.0,0.0,0.0,0.25,0.75,0.0,0.5,0.0,-0.61,0.52,-1.17,43.98,13.0,-3.9,1.75,1.25,0.5,0.75,2.5,2.0,0.25,0.5,0.25,1.0,0.75,0.5,1.0,-0.86,1.27,-0.73,147.34,-2.6,19.8
3.0,0.0,0.0,1.0,1.0,0.0,0.0,0.0,0.0,0.25,0.75,0.0,0.75,0.5,-2.11,1.27,-0.73,52.77,11.1,-18.7,1.75,1.25,1.75,0.75,1.75,2.0,0.25,0.75,0.25,0.75,0.25,0.75,1.0,-0.8,1.02,-0.86,168.28,-6.2,23.3
3.02,0.0,0.0,1.0,1.25,0.0,0.0,0.0,0.0,0.25,0.75,0.0,0.75,0.0,-1.36,0.77,-0.3,62.24,14.6,-2.3,1.75,1.25,1.75,0.75,1.75,1.25,0.25,0.75,0.0,0.0,0.5,0.0,1.0,-0.86,0.95,-0.61,182.79,-9.4,37.4
3.04,1.0,0.0,1.0,1.0,0.0,0.0,0.0,0.0,0.25,0.75,0.0,0.5,0.25,-0.73,0.27,-0.55,70.19,17.2,13.8,0.5,0.25,0.5,0.0,0.0,0.5,0.25,0.0,0.0,0.0,0.0,0.0,0.25,-0.98,1.08,-0.17,142.81,-13.8,44.8
3.06,1.25,0.0,1.0,1.0,0.0,0.0,0.0,0.0,0.25,0.75,0.0,0.5,0.25,-0.92,0.52,-0.98,78.62,18.0,17.7,0.5,0.25,1.5,0.0,1.75,0.0,0.5,0.0,0.0,0.0,0.25,0.0,0.25,-1.05,1.08,-0.11,114.67,-15.6,46.4
3.08,0.0,0.0,1.0,1.0,0.0,0.0,0.0,0.0,0.25,0.75,0.0,0.0,0.25,-0.55,0.58,-0.98,73.25,13.5,8.7,1.75,1.25,1.75,0.25,0.0,0.0,0.0,0.5,0.0,0.0,0.75,0.0,0.75,-0.92,0.89,-0.23,102.81,-19.4,36.3
3.1,0.0,0.0,1.0,0.5,0.0,0.0,0.0,0.25,0.25,0.75,0.0,0.0,0.0,-0.23,0.64,-0.86,63.8,12.6,6.1,0.5,1.25,1.75,0.75,2.25,2.0,0.25,0.75,0.25,1.0,0.75,0.75,1.0,-0.8,0.58,-0.11,129.97,-3.1,12.7
3.12,0.0,0.0,0.0,1.0,0.0,0.0,0.0,0.25,0.25,0.75,0.0,0.5,0.25,-0.23,0.58,-0.86,55.31,1.9,-32.1,0.25,1.0,1.75,0.75,1.75,2.0,0.25,0.75,0.25,1.0,0.75,0.75,1.0,-0.8,0.95,0.45,153.72,-2.6,7.4
3.14,0.0,0.0,0.0,0.75,0.0,0.0,0.0,0.25,0.25,0.75,0.0,0.5,0.5,-0.11,0.52,-0.86,49.78,-0.6,-46.4,1.5,1.25,1.75,0.5,2.25,1.75,0.25,0.75,0.25,1.0,0.75,0.5,1.0,-1.17,1.02,0.58,184.26,-5.3,19.5
3.16,0.0,0.0,0.0,1.0,0.0,0.0,0.0,0.0,0.25,0.75,0.0,0.5,0.25,0.08,0.2,-0.98,45.55,3.6,-31.5,1.75,1.0,1.75,0.75,1.75,2.0,0.0,0.75,0.25,1.0,0.5,0.75,1.0,-1.36,1.27,0.52,192.97,-5.6,18.2
3.18,0.0,0.0,0.0,1.0,0.0,0.0,0.0,0.0,0.5,0.75,0.25,0.5,0.5,-0.17,0.08,-1.05,47.97,3.4,-40.7,1.75,1.25,1.5,0.75,2.25,2.0,0.25,0.75,0.25,1.0,0.75,0.75,1.0,-1.23,1.2,0.2,206.12,-5.0,18.8
3.2,0.0,0.0,1.0,1.0,0.0,0.0,0.25,0.0,0.25,0.75,0.0,0.5,0.5,-0.61,0.2,-0.98,53.13,11.8,-12.0,1.75,1.0,1.25,0.5,2.5,2.0,0.25,0.75,0.25,1.0,0.75,0.75,1.25,-1.05,0.95,0.02,214.15,-3.6,14.2
3.22,0.0,0.0,1.0,0.75,0.0,0.0,0.0,0.0,0.25,0.75,0.0,0.5,0.25,-0.61,0.2,-0.98,54.47,12.6,-11.4,1.75,1.25,1.25,0.5,0.0,2.0,0.0,0.5,0.25,1.0,0.75,0.75,1.0,-1.05,0.95,0.27,200.7,-6.2,9.7
3.24,0.0,0.0,0.0,0.5,0.0,0.0,0.25,0.0,0.5,0.75,0.0,0.5,0.25,-0.42,0.33,-0.98,50.32,3.0,-47.3,1.75,1.25,1.75,0.5,2.25,2.0,0.25,0.75,0.25,1.0,0.75,0.75,1.0,-0.98,0.83,0.45,207.6,-5.4,18.8
3.26,0.0,0.0,0.5,0.5,0.0,0.0,0.25,0.0,0.25,0.75,0.0,0.75,0.5,-0.3,0.45,-0.92,49.82,6.8,-40.8,1.75,1.0,1.75,0.75,2.25,2.0,0.25,0.75,0.25,1.25,0.75,0.75,1.0,-0.92,0.52,0.64,214.58,-5.1,16.5
3.28,0.0,0.0,1.0,0.75,0.0,0.0,0.0,0.0,0.25,0.5,0.0,0.75,0.5,-0.17,0.52,-0.8,50.85,12.4,-20.2,1.5,1.25,1.75,0.75,1.75,2.0,0.25,0.75,0.25,1.0,0.75,0.75,1.0,-0.36,0.45,0.33,221.02,-5.5,16.8
3.3,0.0,0.0,0.5,0.75,0.0,0.0,0.25,0.0,0.5,0.75,0.0,0.5,0.5,-0.11,0.52,-0.67,53.52,7.8,-29.0,1.75,0.75,1.5,0.75,1.75,2.0,0.25,0.75,0.25,1.25,0.75,0.75,1.0,-0.3,0.52,0.2,214.17,-4.7,12.5
3.32,0.0,0.0,1.0,1.0,0.0,0.0,0.25,0.0,0.25,0.75,0.0,0.5,0.5,0.14,0.52,-0.55,60.01,11.8,-12.0,1.75,1.0,1.5,0.75,2.25,1.75,0.25,0.75,0.25,1.25,1.25,0.75,1.0,-0.23,0.52,0.08,212.93,-5.2,12.4
3.34,0.0,0.0,1.0,0.75,0.0,0.0,0.0,0.0,0.25,0.75,0.25,0.5,0.5,0.14,0.45,-0.61,62.9,10.8,-21.4,1.5,1.0,2.25,0.5,2.25,2.0,0.25,0.75,0.25,1.0,0.75,0.75,1.0,-0.23,0.45,0.08,209.34,-6.0,17.6
3.36,0.0,0.0,1.0,0.5,0.0,0.0,0.25,0.0,0.25,0.75,0.0,0.75,0.5,0.2,0.64,-0.61,63.17,10.9,-27.5,1.75,1.25,1.75,0.5,1.5,2.0,0.25,0.75,0.25,1.25,1.5,0.75,1.0,-0.23,0.33,0.08,210.92,-5.9,10.4
3.38,0.0,0.0,1.0,0.75,0.0,0.0,0.0,0.0,0.25,0.75,0.0,0.75,0.5,0.02,0.7,-0.61,63.03,10.7,-23.6,1.75,1.0,1.75,0.5,2.5,2.0,0.25,0.75,0.25,1.25,1.5,0.75,1.0,-0.23,0.33,0.02,215.42,-5.0,12.1
3.4,0.0,0.0,1.0,0.5,0.0,0.0,0.0,0.0,0.25,0.75,0.0,0.75,0.5,-0.23,0.64,-0.61,61.8,10.2,-29.2,1.75,1.0,1.75,0.5,2.25,2.0,0.25,0.25,0.25,1.25,1.5,0.75,1.0,-0.23,0.33,-0.11,216.47,-6.0,13.1
3.42,0.0,0.0,1.0,0.5,0.0,0.0,0.0,0.5,0.25,0.75,0.0,1.0,0.25,-0.48,0.52,-0.55,62.57,8.5,-30.2,1.75,1.0,1.75,0.5,1.75,2.0,0.25,0.75,0.25,1.25,0.75,0.75,0.75,-0.36,0.39,-0.11,212.11,-5.6,16.5
3.44,0.0,0.0,1.0,0.75,0.0,0.0,0.0,0.0,0.25,0.75,0.0,1.0,0.0,-0.73,0.39,-0.8,61.59,13.9,-17.6,1.75,1.0,1.75,0.5,1.75,2.0,0.25,0.75,0.25,1.25,0.75,0.75,1.25,-0.48,0.45,-0.11,209.37,-4.9,11.9
3.46,0.0,0.0,1.0,0.5,0.0,0.0,0.0,0.0,0.0,0.75,0.0,1.0,0.0,-0.86,0.39,-1.05,59.09,13.7,-22.0,1.75,1.25,1.75,0.75,1.75,1.75,0.25,0.75,0.25,1.25,0.75,0.75,1.0,-0.55,0.58,-0.17,207.85,-6.1,16.2
3.48,0.0,0.0,1.0,1.0,0.0,0.0,0.0,0.0,0.25,0.75,0.0,1.0,0.25,-0.73,0.39,-1.36,60.63,12.4,-18.5,1.5,1.25,1.75,0.5,1.75,1.5,0.25,0.75,0.25,1.25,0.75,0.75,0.75,-0.67,0.58,-0.23,200.33,-6.3,16.0
3.5,0.0,0.0,1.0,0.75,0.0,0.0,0.0,0.0,0.25,0.75,0.0,0.75,0.25,-0.67,0.39,-1.36,59.21,12.3,-17.8,1.25,0.75,1.75,0.75,1.75,2.0,0.25,0.75,0.25,1.25,1.0,0.75,1.0,-0.73,0.58,-0.23,198.17,-4.4,8.9
3.52,0.0,0.0,1.0,0.5,0.0,0.0,0.0,0.0,0.25,0.75,0.5,0.75,0.25,-0.48,0.33,-1.11,60.31,11.8,-29.6,1.75,1.0,1.75,0.5,1.75,1.75,0.25,0.75,0.25,1.25,1.0,0.75,1.0,-0.8,0.7,-0.17,198.06,-5.9,12.2
3.54,0.0,0.0,1.0,0.5,0.0,0.0,0.0,0.0,0.0,0.75,0.5,0.0,0.25,-0.23,0.45,-0.67,55.81,12.5,-9.3,1.5,0.75,1.75,1.5,1.75,1.75,0.25,0.5,0.5,1.25,1.0,0.75,1.0,-0.92,0.83,-0.11,200.71,-6.6,12.6
3.56,0.0,0.0,1.0,0.5,0.0,0.0,0.0,0.0,0.25,0.75,0.0,0.0,0.25,0.02,0.33,-0.67,50.93,12.8,-0.4,1.5,0.75,1.5,0.5,1.75,1.5,0.25,0.5,0.25,1.0,1.25,0.75,1.0,-0.92,0.89,-0.23,194.62,-6.0,8.5
3.58,0.0,0.0,1.0,0.5,0.0,0.0,0.0,0.0,0.25,0.5,0.0,0.0,0.25,0.08,0.39,-0.73,44.7,15.6,6.8,1.5,1.25,1.5,0.5,1.75,1.75,0.25,0.75,0.5,1.0,0.75,0.75,1.0,-0.86,0.83,-0.3,193.96,-5.3,13.8
3.6,0.0,0.0,1.0,0.5,0.0,0.0,0.25,0.0,0.25,0.75,0.0,0.25,0.25,0.02,0.52,-0.92,43.93,13.2,-7.9,1.5,1.25,1.75,0.5,1.75,2.0,0.25,0.75,0.25,1.25,1.0,0.75,1.0,-0.8,0.83,-0.36,195.09,-5.0,12.8
3.62,0.0,0.0,1.0,0.5,0.0,0.0,0.0,0.0,0.25,0.75,0.0,0.5,0.25,-0.05,0.58,-0.98,44.74,12.2,-16.9,1.5,1.0,1.75,0.5,1.75,2.0,0.25,0.75,0.5,1.25,1.0,0.75,1.0,-0.86,0.83,-0.3,198.11,-5.0,10.3
3.64,0.0,0.0,1.0,0.5,0.0,0.0,0.25,0.0,0.5,0.75,0.0,0.5,0.25,-0.11,0.58,-0.92,48.94,12.9,-16.9,1.75,1.0,1.75,0.5,1.75,1.5,0.25,0.75,0.25,1.25,0.75,0.75,1.0,-0.86,0.89,-0.3,198.72,-6.3,13.4
3.66,0.0,0.0,1.0,0.5,0.0,0.0,0.0,0.0,0.25,0.75,0.0,0.5,0.5,-0.3,0.45,-0.92,51.22,10.3,-23.6,1.5,1.0,1.25,0.5,1.75,2.0,0.25,0.5,0.25,1.25,1.0,0.75,1.0,-0.86,0.95,-0.42,197.1,-4.0,10.1
3.68,0.0,0.0,1.0,0.5,0.0,0.0,0.0,0.0,0.5,0.75,0.0,0.75,0.25,-0.36,0.39,-1.11,54.51,12.0,-24.4,1.5,1.25,1.0,0.5,1.25,1.75,0.25,0.75,0.5,1.25,1.0,0.75,1.0,-0.86,1.02,-0.48,191.85,-4.0,6.6
3.7,0.0,0.0,1.0,0.5,0.0,0.0,0.0,0.0,0.25,0.75,0.0,0.5,0.25,-0.3,0.58,-0.98,53.72,12.2,-16.9,1.5,1.0,2.25,0.5,1.5,1.75,0.0,0.5,0.25,1.25,0.75,0.75,1.0,-0.92,0.83,-0.55,190.42,-6.9,14.2
3.72,0.0,0.0,1.0,0.5,0.0,0.0,0.0,0.0,0.25,0.75,0.0,0.5,0.5,-0.23,0.52,-0.86,53.59,10.3,-23.6,1.5,1.25,1.75,0.5,1.75,1.75,0.25,0.75,0.25,1.25,1.5,0.75,0.75,-0.92,0.83,-0.48,194.51,-6.0,11.6
3.74,0.0,0.0,1.0,0.5,0.0,0.0,0.0,0.0,0.25,0.75,0.25,0.5,0.0,-0.3,0.45,-0.86,52.87,14.1,-13.9,1.75,1.0,2.0,0.5,1.5,1.5,0.25,0.5,0.25,1.25,1.5,0.75,1.0,-0.86,0.83,-0.36,197.46,-7.7,9.7
3.76,0.0,0.0,1.0,0.5,0.0,0.0,0.0,0.0,0.25,0.75,0.25,0.5,0.25,-0.36,0.39,-0.86,53.75,12.1,-20.9,1.5,1.25,1.75,0.5,1.75,1.75,0.25,0.0,0.25,1.25,1.5,0.75,1.0,-0.8,0.89,-0.23,199.19,-6.9,12.1
3.78,0.0,0.0,1.0,0.5,0.0,0.0,0.0,0.0,0.25,0.75,0.0,0.5,0.25,-0.36,0.45,-0.86,53.51,12.2,-16.9,1.5,0.75,0.5,0.5,1.5,1.75,0.0,0.25,0.25,1.25,1.0,0.75,1.0,-0.73,0.89,-0.17,187.92,-2.3,3.8
3.8,0.0,0.0,1.0,0.75,0.0,0.0,0.0,0.0,0.25,0.75,0.25,0.75,0.25,-0.36,0.52,-0.8,56.82,12.2,-21.2,1.5,1.25,1.25,0.5,1.25,2.0,0.25,0.75,0.25,1.25,1.0,0.75,1.0,-0.73,1.02,-0.11,186.06,-4.1,9.0
3.82,0.0,0.0,1.0,0.5,0.0,0.0,0.0,0.0,0.25,0.75,0.5,0.5,0.25,-0.3,0.52,-0.86,57.7,12.0,-24.4,1.5,1.25,1.5,0.5,1.75,2.0,0.25,0.5,0.25,1.25,1.0,0.75,1.0,-0.67,1.02,-0.23,185.78,-4.8,12.8
3.84,0.0,0.0,1.0,0.5,0.0,0.0,0.0,0.0,0.25,0.75,0.0,0.5,0.25,-0.23,0.58,-0.86,56.24,12.2,-16.9,1.5,1.25,1.25,0.5,1.75,1.75,0.0,0.0,0.25,1.25,1.0,0.75,1.0,-0.61,1.02,-0.23,185.99,-5.2,13.3
3.86,0.0,0.0,1.0,0.5,0.0,0.0,0.25,0.0,0.25,0.75,0.5,0.75,0.25,-0.17,0.64,-0.86,58.11,12.4,-28.0,1.25,1.0,1.25,0.5,1.5,1.5,0.25,0.5,0.25,1.0,1.0,0.75,1.0,-0.61,1.02,-0.3,182.44,-5.0,8.2
3.88,0.0,0.0,1.0,0.75,0.0,0.0,0.25,0.0,0.25,0.75,0.0,0.5,0.25,-0.17,0.64,-0.8,58.03,13.2,-10.1,1.25,1.0,1.25,0.5,1.5,2.0,0.25,0.5,0.25,1.25,0.75,0.75,0.75,-0.61,0.83,-0.3,179.97,-3.8,11.7
3.9,0.0,0.0,1.0,0.75,0.0,0.0,0.25,0.0,0.25,0.75,0.0,0.75,0.25,-0.17,0.58,-0.8,59.78,13.0,-16.4,1.25,1.25,1.25,0.5,1.75,1.75,0.25,0.5,0.25,1.25,0.75,0.75,1.0,-0.55,0.7,-0.3,179.32,-3.9,11.5
3.92,0.0,0.0,1.0,1.0,0.0,0.0,0.0,0.0,0.25,0.75,0.0,0.75,0.25,-0.17,0.58,-0.73,61.33,12.7,-12.9,1.5,1.25,1.75,0.5,1.25,1.75,0.25,0.5,0.25,1.25,1.0,0.75,1.0,-0.48,0.64,-0.23,181.84,-6.3,11.6
3.94,0.0,0.0,1.25,0.5,0.0,0.0,0.0,0.0,0.25,0.75,0.0,1.0,0.25,-0.11,0.64,-0.73,62.99,13.5,-23.3,1.5,1.25,1.5,0.5,1.75,1.5,0.25,0.0,0.25,1.25,1.0,0.75,1.0,-0.42,0.64,-0.3,183.87,-6.7,14.1
3.96,0.0,0.0,1.0,0.5,0.0,0.0,0.0,0.0,0.25,0.75,0.0,0.75,0.5,-0.17,0.64,-0.8,61.78,10.2,-29.2,1.5,1.0,1.5,0.75,1.75,2.0,0.25,0.0,0.25,1.25,1.5,0.75,1.25,-0.42,0.58,-0.36,190.44,-5.5,8.5
3.98,0.0,0.0,1.0,0.75,0.0,0.0,0.25,0.0,0.25,0.75,0.5,0.75,0.25,-0.11,0.7,-0.8,63.86,12.7,-22.9,1.75,1.25,2.0,0.5,1.25,1.5,0.0,0.25,0.25,1.25,0.75,0.75,1.0,-0.42,0.58,-0.48,191.25,-8.2,16.3
4.0,0.0,0.0,1.0,0.75,0.0,0.0,0.25,0.0,0.5,0.75,0.0,0.75,0.0,-0.11,0.7,-0.73,63.31,14.7,-11.7,1.5,1.25,1.5,0.5,1.75,2.0,0.25,0.0,0.25,1.25,0.75,0.75,1.0,-0.42,0.52,-0.55,192.64,-5.5,16.5
4.02,0.0,0.0,1.0,1.25,0.0,0.0,0.0,0.0,0.25,0.75,0.0,0.75,0.25,-0.11,0.64,-0.73,65.43,12.9,-8.6,1.25,1.25,1.75,0.5,1.75,1.75,0.25,0.25,0.25,1.25,0.75,0.75,1.0,-0.48,0.58,-0.55,192.33,-5.7,14.5
4.04,0.0,0.0,1.0,0.5,0.0,0.0,0.25,0.0,0.25,0.5,0.0,1.0,0.25,-0.05,0.58,-0.73,62.38,14.3,-24.0,1.5,1.0,0.75,0.5,0.0,1.75,0.25,0.25,0.25,1.25,0.75,0.75,1.0,-0.48,0.64,-0.48,175.98,-4.7,1.3
4.06,0.0,0.0,1.0,0.5,0.0,0.0,0.0,0.0,0.25,0.75,0.0,1.0,0.25,-0.05,0.52,-0.8,61.24,11.8,-29.0,1.5,1.0,1.5,0.5,1.5,1.5,0.0,0.75,0.25,1.0,1.0,0.75,1.0,-0.55,0.7,-0.42,174.3,-5.6,9.8
4.08,0.0,0.0,1.0,0.5,0.0,0.0,0.25,0.0,0.25,0.75,0.0,1.0,0.25,0.08,0.52,-0.8,59.33,12.4,-27.3,1.5,1.25,1.5,0.5,1.75,1.75,0.25,0.0,0.25,1.25,1.0,0.75,1.0,-0.55,0.83,-0.3,176.46,-6.1,14.4
4.1,0.0,0.0,1.0,0.75,0.0,0.0,0.0,0.0,0.0,0.75,0.25,0.75,0.25,0.08,0.52,-0.8,58.21,12.3,-20.1,1.25,1.25,1.75,0.5,1.75,1.75,0.25,0.0,0.25,1.25,0.5,0.75,1.25,-0.55,0.89,-0.36,182.1,-5.7,14.7
4.12,0.0,0.0,1.0,1.0,0.0,0.0,0.0,0.0,0.25,0.75,0.5,1.0,0.25,0.08,0.52,-0.86,62.93,12.3,-24.2,1.25,1.0,1.5,0.5,1.75,1.25,0.25,0.5,0.25,1.25,0.75,0.75,1.0,-0.55,0.95,-0.3,181.7,-5.5,9.8
4.14,0.0,0.0,1.0,0.5,0.0,0.0,0.0,0.0,0.25,0.75,1.0,1.0,0.25,0.08,0.64,-0.86,67.73,11.6,-38.4,1.5,1.0,1.75,0.5,1.5,1.5,0.25,0.25,0.25,1.25,0.75,0.75,1.0,-0.55,1.02,-0.3,182.52,-6.9,13.0
4.16,0.0,0.0,1.0,0.5,0.0,0.0,0.25,0.0,0.25,0.5,0.0,0.75,0.5,0.14,0.64,-0.86,66.08,12.7,-24.2,1.5,1.25,1.5,0.5,1.75,1.75,0.25,0.0,0.25,1.25,1.25,0.75,1.0,-0.55,1.02,-0.3,184.46,-6.2,12.8
4.18,0.25,0.0,1.0,1.0,0.0,0.0,0.25,0.0,0.25,0.75,0.5,1.0,0.25,0.14,0.7,-0.86,70.56,13.8,-17.5,1.5,1.25,1.75,0.5,1.75,1.5,0.25,0.0,0.25,1.25,0.75,0.75,1.0,-0.55,1.08,-0.3,185.54,-7.2,16.7
4.2,0.0,0.0,1.0,0.5,0.0,0.0,0.0,0.0,0.25,0.75,0.5,1.0,0.25,0.08,0.7,-0.8,69.4,11.7,-34.3,1.25,1.25,1.5,0.5,1.75,1.5,0.25,0.0,0.25,1.25,0.75,0.75,1.0,-0.61,1.14,-0.36,184.86,-6.1,14.2
4.22,0.0,0.0,1.0,1.0,0.0,0.0,0.0,0.75,0.25,0.75,0.5,0.75,0.0,0.08,0.7,-0.8,73.1,9.4,-17.8,1.25,1.0,1.0,0.5,1.5,1.5,0.25,0.25,0.25,1.25,1.0,0.75,1.75,-0.67,1.08,-0.36,183.57,-3.2,-1.0
4.24,0.0,0.0,1.0,0.5,0.0,0.0,0.0,0.0,0.25,0.75,0.5,0.75,0.5,-0.05,0.64,-0.86,71.53,10.3,-34.4,1.25,1.25,1.5,0.5,1.5,1.25,0.25,0.0,0.25,1.25,1.25,0.75,1.0,-0.61,1.02,-0.23,181.21,-7.0,9.3
4.26,0.0,0.0,1.0,0.5,0.0,0.0,0.0,0.0,0.25,0.75,0.0,0.75,0.25,-0.05,0.58,-0.8,67.1,12.0,-23.4,1.25,1.25,1.5,0.5,1.75,1.75,0.25,0.0,0.25,1.25,0.25,0.75,1.25,-0.55,0.89,-0.17,180.59,-4.9,15.6
4.28,0.0,0.0,1.0,0.5,0.0,0.0,0.25,0.0,0.5,0.75,0.0,0.75,0.25,-0.05,0.58,-0.8,62.9,12.6,-22.8,1.5,1.0,1.75,0.5,1.75,1.75,0.25,0.0,0.25,1.25,0.75,0.75,1.0,-0.48,0.83,-0.17,183.29,-6.6,15.4
4.3,0.5,0.0,1.0,0.5,0.0,0.0,0.25,0.0,0.25,0.75,0.0,1.0,0.25,0.02,0.58,-0.8,62.48,14.8,-14.0,1.5,1.0,1.5,0.5,1.5,1.5,0.25,0.0,0.25,1.25,1.0,0.75,1.0,-0.55,0.89,-0.23,180.68,-6.8,11.3
4.32,0.0,0.0,1.0,0.5,0.0,0.0,0.0,0.0,0.25,0.5,0.0,1.0,0.25,-0.05,0.64,-0.86,59.05,13.7,-25.8,1.75,1.25,1.5,0.5,1.5,2.0,0.0,0.0,0.5,1.25,0.75,0.75,1.0,-0.55,0.95,-0.3,184.2,-6.1,16.0
4.34,0.0,0.0,1.0,0.5,0.0,0.0,0.25,0.0,0.25,0.75,0.25,1.0,0.5,0.08,0.7,-0.86,61.2,10.8,-34.7,1.25,1.0,1.5,0.5,1.75,1.5,0.25,0.0,0.25,1.0,0.75,0.75,1.0,-0.55,1.02,-0.48,181.01,-6.4,14.3
4.36,0.0,0.0,1.0,0.5,0.0,0.0,0.25,0.0,0.25,0.5,0.0,0.75,0.5,0.08,0.64,-0.8,58.46,12.7,-24.2,1.0,1.25,1.5,0.5,1.75,1.75,0.25,0.0,0.25,1.25,1.0,0.75,0.0,-0.55,0.83,-0.86,177.91,-6.8,22.3
4.38,0.0,0.0,1.0,0.5,0.0,0.0,0.25,0.0,0.25,0.75,0.0,0.75,0.25,0.08,0.64,-0.8,57.44,12.7,-21.7,1.25,1.25,1.25,0.5,1.5,1.25,0.0,0.25,0.25,1.25,1.0,0.75,1.0,-0.3,0.52,-0.8,173.68,-5.5,8.7
4.4,0.0,0.0,1.0,0.5,0.0,0.0,0.25,0.0,0.5,0.75,0.5,0.75,0.25,0.08,0.64,-0.8,58.97,12.4,-28.6,1.25,1.0,1.5,0.5,1.75,1.5,0.25,0.0,0.25,1.25,0.75,0.75,1.0,-0.23,0.33,-0.61,173.02,-5.9,12.4
4.42,0.0,0.0,1.0,0.5,0.0,0.0,0.25,0.0,0.25,0.75,0.0,0.75,0.25,0.14,0.64,-0.8,57.4,12.7,-21.7,1.25,1.25,1.5,0.5,1.75,1.5,0.0,0.0,0.25,1.0,0.75,0.75,1.25,-0.23,0.45,-0.48,174.34,-5.8,13.3
4.44,0.0,0.0,1.0,0.5,0.0,0.0,0.25,0.0,0.5,0.75,0.5,1.0,0.25,0.14,0.58,-0.8,62.37,12.2,-32.9,1.25,1.0,1.5,0.5,1.75,1.5,0.25,0.0,0.25,1.25,1.0,0.75,1.75,-0.23,0.58,-0.48,179.41,-4.8,3.4
4.46,0.0,0.0,1.0,0.5,0.0,0.0,0.0,0.0,0.25,0.5,0.5,0.75,0.25,0.2,0.58,-0.8,60.9,13.7,-26.6,1.25,1.25,1.5,0.5,1.75,1.5,0.25,0.0,0.5,1.25,0.0,0.75,0.75,-0.23,0.77,-0.55,178.22,-6.3,21.6
4.48,0.0,0.0,1.0,0.5,0.0,0.0,0.25,0.0,0.25,0.75,0.5,0.75,0.25,0.2,0.58,-0.86,63.12,12.4,-28.0,1.25,1.25,1.5,0.5,1.75,1.5,0.25,0.0,0.25,1.25,0.75,0.75,0.75,-0.23,0.95,-0.55,178.02,-6.5,16.9
4.5,0.0,0.0,1.0,0.5,0.0,0.0,0.25,0.0,0.25,0.75,0.5,0.75,0.25,0.2,0.58,-0.86,62.5,12.4,-28.0,1.5,1.25,1.25,0.5,1.5,1.5,0.25,0.0,0.25,1.25,0.75,0.75,1.0,-0.23,1.02,-0.48,176.04,-6.2,13.9
4.52,0.0,0.0,1.0,0.5,0.0,0.0,0.25,0.0,0.25,0.75,0.25,0.75,0.25,0.2,0.64,-0.8,61.64,12.5,-25.0,1.0,1.25,1.5,0.5,1.75,1.25,0.0,0.0,0.25,1.25,1.0,0.75,0.75,-0.23,1.08,-0.48,174.2,-6.3,12.9
4.54,0.0,0.0,1.0,0.5,0.0,0.0,0.25,0.0,0.25,0.75,1.0,0.75,0.25,0.27,0.64,-0.73,64.33,12.3,-32.9,1.25,1.0,1.25,0.5,1.25,1.25,0.0,0.0,0.25,1.25,1.0,0.75,1.0,-0.36,1.08,-0.55,169.33,-6.1,6.5
4.56,0.0,0.0,1.0,1.0,0.0,0.0,0.25,0.0,0.25,0.75,0.25,0.75,0.25,0.27,0.64,-0.73,66.85,13.1,-15.2,1.5,1.25,1.25,0.5,1.75,1.25,0.0,0.0,0.25,1.25,0.75,0.75,1.0,-0.42,0.95,-0.48,169.76,-6.2,14.3
4.58,0.0,0.0,1.0,0.75,0.0,0.0,0.25,0.0,0.25,0.75,0.25,1.0,0.5,0.33,0.64,-0.67,69.45,11.2,-29.6,1.25,1.25,0.75,0.5,1.75,1.25,0.0,0.0,0.25,1.25,0.75,0.75,1.25,-0.42,0.89,-0.42,168.44,-3.7,7.6
4.6,0.0,0.0,1.0,0.5,0.0,0.0,0.25,0.0,0.25,0.75,0.0,1.0,0.25,0.39,0.64,-0.73,67.26,12.4,-27.3,1.25,1.0,1.5,0.5,1.75,1.25,0.25,0.0,0.5,1.25,1.0,0.75,0.75,-0.48,0.77,-0.3,170.75,-7.1,11.7
4.62,0.25,0.0,1.0,0.25,0.0,0.0,0.25,0.0,0.25,0.75,0.0,1.0,0.25,0.45,0.58,-0.8,64.41,13.4,-25.5,1.25,1.25,1.0,0.5,1.75,1.0,0.25,0.0,0.25,1.25,1.0,0.75,1.0,-0.48,0.77,-0.3,169.73,-5.9,9.4
4.64,0.0,0.0,1.0,0.5,0.0,0.0,0.25,0.0,0.25,0.75,0.0,0.75,0.25,0.39,0.58,-0.8,59.67,12.7,-21.7,0.75,1.0,1.25,0.5,1.75,1.25,0.25,0.0,0.5,1.25,0.75,0.75,1.0,-0.36,0.83,-0.48,168.3,-4.7,6.1
4.66,0.25,0.0,1.0,0.5,0.0,0.0,0.25,0.0,0.25,0.75,0.0,0.75,0.25,0.27,0.58,-0.8,58.83,14.0,-14.6,1.25,1.25,1.25,0.5,1.75,1.25,0.25,0.0,0.25,1.25,1.0,0.75,0.75,-0.36,0.89,-0.55,168.43,-6.5,13.7
4.68,0.25,0.0,1.0,0.75,0.0,0.0,0.25,0.0,0.5,0.75,0.0,0.75,0.25,0.14,0.58,-0.8,60.82,14.1,-11.6,1.25,1.25,0.5,0.5,1.25,1.25,0.25,0.0,0.25,1.0,1.0,0.75,0.75,-0.3,0.89,-0.55,161.85,-5.1,9.9
4.7,0.0,0.0,1.0,0.5,0.0,0.0,0.25,0.0,0.25,0.75,0.0,0.75,0.5,0.14,0.64,-0.8,61.54,10.9,-27.5,1.25,1.0,1.25,0.5,1.5,1.0,0.0,0.0,0.25,1.25,0.75,0.75,1.0,-0.3,0.83,-0.55,160.18,-6.4,9.0
4.72,0.25,0.0,1.0,0.25,0.0,0.0,0.25,0.0,0.25,0.75,0.0,0.75,0.5,0.08,0.64,-0.8,60.88,11.9,-25.7,1.25,1.25,1.25,0.5,1.75,1.25,0.0,0.0,0.25,1.25,1.25,0.75,1.25,-0.3,0.83,-0.48,164.3,-5.4,6.6
4.74,0.0,0.0,1.0,0.5,0.0,0.0,0.25,0.0,0.25,0.75,0.0,0.75,0.5,0.08,0.64,-0.8,59.5,10.9,-27.5,1.0,1.25,1.5,0.5,1.75,1.25,0.25,0.0,0.5,1.25,1.0,0.75,0.75,-0.36,0.83,-0.48,169.97,-6.7,11.9
4.76,0.0,0.0,1.0,0.75,0.0,0.0,0.25,0.0,0.25,0.75,0.25,0.75,0.5,0.14,0.64,-0.8,61.32,11.3,-25.1,1.25,1.25,0.75,0.5,1.5,1.5,0.25,0.0,0.5,1.25,1.0,0.75,1.0,-0.42,0.83,-0.48,172.72,-4.4,7.1
4.78,0.0,0.0,1.0,1.5,0.0,0.0,0.25,0.0,0.25,1.0,0.0,1.0,0.5,0.14,0.64,-0.8,68.53,10.8,-17.1,1.25,1.0,1.5,0.5,1.75,1.25,0.25,0.0,0.5,1.25,1.25,0.75,1.5,-0.42,0.83,-0.48,179.23,-6.0,2.8
4.8,0.0,0.0,1.0,0.5,0.0,0.0,0.25,0.0,0.25,0.75,0.25,0.75,0.25,0.2,0.64,-0.8,68.3,12.5,-25.0,1.25,1.25,1.5,0.5,1.75,1.5,0.25,0.0,0.25,1.25,1.0,0.75,1.0,-0.42,0.83,-0.42,181.85,-6.1,12.5
4.82,0.0,0.0,1.0,0.5,0.0,0.0,0.0,0.0,0.25,0.75,0.0,1.0,0.25,0.2,0.58,-0.8,66.48,11.8,-29.0,1.25,1.0,1.25,0.5,1.75,1.25,0.25,0.0,0.5,1.25,0.75,0.75,1.0,-0.36,0.83,-0.48,180.87,-5.9,9.8
4.84,0.0,0.0,1.0,1.0,0.0,0.0,0.25,0.0,0.25,0.75,0.0,0.75,0.25,0.27,0.58,-0.8,64.83,13.2,-11.8,1.25,1.25,1.5,0.5,1.75,1.0,0.25,0.0,0.25,1.0,0.75,0.75,1.0,-0.3,0.89,-0.55,177.89,-7.7,15.4
4.86,0.25,0.0,1.0,1.25,0.0,0.0,0.25,0.0,0.25,0.75,0.0,0.75,0.25,0.27,0.58,-0.8,67.2,14.5,-2.4,1.25,1.25,1.25,0.5,1.75,1.0,0.25,0.0,0.5,1.0,1.25,0.75,0.75,-0.3,0.89,-0.55,176.34,-7.8,12.2
4.88,0.0,0.0,1.0,0.5,0.0,0.0,0.25,0.0,0.0,0.75,0.5,0.75,0.25,0.27,0.58,-0.8,64.99,12.4,-27.3,1.25,1.0,0.75,0.5,1.75,1.25,0.25,0.0,0.5,1.25,0.75,0.75,0.75,-0.3,0.83,-0.55,170.99,-4.8,10.2
4.9,0.25,0.0,1.0,0.5,0.0,0.0,0.25,0.0,0.5,0.75,0.25,0.75,0.25,0.27,0.64,-0.8,66.32,13.7,-19.3,1.25,1.0,1.75,0.5,1.75,1.25,0.0,0.0,0.25,1.25,0.75,0.75,0.75,-0.23,0.83,-0.55,170.4,-7.4,15.6
4.92,0.0,0.0,1.0,0.5,0.0,0.0,0.25,0.0,0.25,0.75,0.5,1.0,0.25,0.27,0.58,-0.8,66.32,12.2,-32.6,0.5,1.25,1.5,0.5,1.75,1.25,0.25,0.0,0.25,1.0,0.0,0.75,0.5,-0.3,0.83,-0.55,163.01,-5.9,23.4
4.94,0.0,0.0,1.0,1.25,0.0,0.0,0.25,0.0,0.25,0.75,0.5,1.0,0.5,0.27,0.58,-0.8,72.35,11.7,-23.2,1.5,1.25,1.25,0.5,1.75,0.75,0.25,0.0,0.5,1.25,0.75,0.75,0.75,-0.36,0.77,-0.48,162.99,-8.3,15.3
4.96,0.0,0.0,1.0,0.5,0.0,0.0,0.25,0.0,0.25,0.75,0.25,1.0,0.5,0.27,0.58,-0.8,72.09,10.8,-34.7,1.25,1.25,1.0,0.5,1.25,1.25,0.25,0.0,0.25,1.0,0.75,0.75,1.0,-0.42,0.83,-0.42,158.21,-6.2,11.5
4.98,0.0,0.0,1.0,1.0,0.0,0.0,0.25,0.0,0.25,0.75,0.5,0.75,0.5,0.27,0.58,-0.8,74.55,11.6,-23.1,1.25,1.25,1.0,0.5,1.75,1.25,0.0,0.0,0.5,1.0,0.75,0.75,1.0,-0.42,0.83,-0.42,161.5,-5.5,12.4
5.0,0.0,0.0,1.0,1.0,0.0,0.0,0.25,0.0,0.0,0.75,0.5,1.0,0.25,0.27,0.58,-0.8,73.05,12.8,-22.1,1.25,1.25,1.0,0.5,1.75,1.25,0.25,0.0,0.5,1.25,0.75,0.75,0.75,-0.36,0.83,-0.42,163.1,-5.8,13.4
5.02,0.0,0.0,1.0,0.25,0.0,0.0,0.0,0.0,0.5,0.75,0.25,1.0,0.5,0.27,0.58,-0.8,71.5,9.9,-42.4,1.25,1.25,1.0,0.5,1.75,1.0,0.25,0.0,0.25,1.25,1.0,0.75,1.0,-0.36,0.89,-0.42,165.71,-5.9,9.4
5.04,0.0,0.0,1.0,0.0,0.0,0.0,0.25,0.0,0.5,0.75,0.5,0.75,0.25,0.2,0.58,-0.8,68.18,11.8,-40.3,1.25,1.25,1.5,0.5,1.75,1.25,0.25,0.0,0.5,1.25,1.5,0.75,1.0,-0.3,0.89,-0.42,174.23,-7.0,7.8
5.06,0.25,0.0,1.0,0.5,0.0,0.0,0.25,0.0,0.25,0.75,0.5,0.75,0.25,0.2,0.58,-0.8,66.69,13.6,-21.3,0.75,1.0,1.0,0.5,1.75,1.25,0.25,0.0,0.25,1.25,1.0,0.75,1.25,-0.23,0.95,-0.42,173.5,-3.5,1.3
5.08,0.0,0.0,1.0,0.5,0.0,0.0,0.25,0.0,0.5,0.75,0.5,1.0,0.25,0.2,0.64,-0.8,66.82,12.2,-32.9,1.25,1.0,1.25,0.5,1.75,0.75,0.25,0.0,0.25,1.25,0.75,0.75,0.75,-0.23,1.02,-0.48,170.59,-7.5,12.7
5.1,0.0,0.0,1.0,0.5,0.0,0.0,0.0,0.0,0.5,0.75,0.5,0.75,0.25,0.2,0.64,-0.8,66.25,11.9,-30.1,1.25,1.25,1.0,0.5,1.0,1.0,0.0,0.0,0.25,1.25,0.75,0.75,1.0,-0.17,1.02,-0.48,162.37,-6.3,7.4
5.12,0.0,0.0,1.0,0.5,0.0,0.0,0.25,0.0,0.0,0.5,0.5,1.0,0.25,0.2,0.64,-0.8,64.34,14.0,-29.5,1.0,1.0,0.5,0.5,1.75,1.25,0.0,0.0,0.25,1.0,1.5,0.75,1.0,-0.23,0.95,-0.48,159.25,-3.3,1.3
5.14,0.0,0.0,1.0,0.5,0.0,0.0,0.25,0.0,0.25,0.75,0.5,1.0,0.5,0.2,0.64,-0.8,65.4,10.8,-36.9,1.25,1.0,1.0,0.5,1.75,1.0,0.25,0.0,0.25,1.25,0.75,0.75,1.0,-0.23,0.89,-0.48,157.7,-5.6,9.1
5.16,0.25,0.0,1.0,0.5,0.0,0.0,0.25,0.0,0.25,0.75,0.5,0.75,0.5,0.2,0.58,-0.8,66.19,12.1,-26.2,1.0,1.25,1.0,0.5,1.75,1.0,0.25,0.0,0.25,1.25,1.0,0.75,1.0,-0.23,0.89,-0.48,160.99,-5.3,7.5
5.18,0.0,0.0,1.0,0.25,0.0,0.0,0.25,0.0,0.25,0.75,0.5,0.75,0.5,0.2,0.58,-0.8,65.87,10.5,-38.5,1.0,1.0,0.75,0.5,1.0,1.0,0.25,0.0,0.25,1.25,2.0,0.75,1.0,-0.3,0.83,-0.48,159.32,-5.5,-7.1
5.2,0.0,0.0,1.25,0.25,0.0,0.0,0.25,0.0,0.25,0.75,0.5,1.0,0.5,0.27,0.58,-0.8,68.4,12.0,-36.8,1.0,1.25,0.5,0.5,1.25,1.0,0.0,0.0,0.25,1.0,1.0,0.75,1.0,-0.3,0.83,-0.48,154.19,-4.3,3.8
5.22,0.25,0.0,1.0,0.5,0.0,0.0,0.25,0.0,0.5,0.75,0.5,0.75,0.5,0.27,0.58,-0.8,70.35,12.1,-26.8,0.75,1.0,1.25,0.5,1.25,1.0,0.25,0.0,0.25,1.25,1.0,0.75,1.0,-0.36,0.83,-0.48,150.66,-5.7,1.9
5.24,0.0,0.0,1.0,0.5,0.0,0.0,0.25,0.0,0.25,0.75,0.25,1.0,0.5,0.27,0.58,-0.8,70.55,10.8,-34.7,1.25,1.25,1.25,0.5,1.75,0.75,0.25,0.0,0.25,1.0,0.75,0.75,1.0,-0.36,0.83,-0.48,152.48,-7.7,13.9
