time,left pressure 0[N/cm²],left pressure 1[N/cm²],left pressure 2[N/cm²],left pressure 3[N/cm²],left pressure 4[N/cm²],left pressure 5[N/cm²],left pressure 6[N/cm²],left pressure 7[N/cm²],left pressure 8[N/cm²],left pressure 9[N/cm²],left pressure 10[N/cm²],left pressure 11[N/cm²],left pressure 12[N/cm²],left acceleration X[g],left acceleration Y[g],left acceleration Z[g],left total force[N],left center of pressure X[mm],left center of pressure Y[mm],right pressure 0[N/cm²],right pressure 1[N/cm²],right pressure 2[N/cm²],right pressure 3[N/cm²],right pressure 4[N/cm²],right pressure 5[N/cm²],right pressure 6[N/cm²],right pressure 7[N/cm²],right pressure 8[N/cm²],right pressure 9[N/cm²],right pressure 10[N/cm²],right pressure 11[N/cm²],right pressure 12[N/cm²],right acceleration X[g],right acceleration Y[g],right acceleration Z[g],right total force[N],right center of pressure X[mm],right center of pressure Y[mm]
0.02,5.5,1.5,0.0,9.25,0.0,5.5,2.5,2.0,0.5,1.75,0.75,0.0,1.0,-0.17,0.2,1.02,501.18,7.8,35.8,1.0,0.75,1.25,1.25,3.75,0.5,0.0,1.5,0.0,2.0,1.0,0.75,1.25,0.08,1.7,2.39,214.57,-2.0,4.1
0.04,0.0,1.75,0.0,10.5,0.0,5.5,2.75,1.75,0.25,1.5,1.0,0.0,1.0,-0.17,0.2,1.02,466.62,3.3,26.2,0.75,1.0,0.75,1.25,3.75,0.5,0.0,1.5,0.25,1.0,1.0,1.0,1.25,-0.67,2.52,1.39,214.15,-1.9,5.1
0.06,0.0,2.0,0.0,10.5,0.0,4.75,3.25,1.75,0.25,1.25,1.25,0.0,1.0,-0.17,0.2,1.02,417.8,4.7,26.8,0.75,1.0,0.5,1.25,3.75,0.5,0.5,1.5,0.25,1.0,1.0,0.75,1.25,-1.3,3.08,0.58,211.98,-1.6,6.4
0.08,0.0,2.25,7.5,11.5,0.0,0.0,3.5,1.75,0.25,0.75,1.0,0.0,0.0,-0.17,0.2,1.08,399.63,20.3,45.0,0.75,1.0,0.75,1.25,3.75,0.5,0.0,1.5,0.25,1.0,1.0,0.75,1.25,-2.05,3.64,0.02,208.81,-1.8,7.1
0.1,0.0,1.75,8.0,11.5,0.0,0.0,3.5,1.75,0.0,0.0,1.25,0.0,0.0,-0.23,0.27,1.14,391.61,21.8,47.3,0.75,1.0,0.75,1.25,3.5,0.5,0.5,1.5,0.25,1.0,1.0,0.75,1.25,-1.67,3.33,0.27,206.48,-2.4,6.5
0.12,6.75,1.75,8.25,11.0,0.0,0.0,3.5,1.25,0.0,0.5,1.25,0.0,0.0,-0.23,0.27,1.33,424.88,24.5,56.4,0.0,0.0,0.5,0.0,3.25,0.0,0.0,1.5,0.0,0.25,0.0,0.25,0.25,-1.05,0.27,1.58,170.86,3.5,15.3
0.14,7.5,0.0,7.75,9.5,0.0,0.0,3.75,1.5,0.25,0.5,0.75,0.0,0.0,-0.42,0.33,1.64,438.94,25.5,55.1,0.75,1.0,0.75,1.25,0.0,0.5,0.0,1.5,0.0,2.75,1.25,1.5,1.0,0.27,-0.61,1.14,159.82,-1.8,-26.4
0.16,8.0,0.0,7.25,6.75,0.0,0.0,3.5,0.25,0.25,0.5,0.5,0.0,0.0,-0.36,0.52,1.95,420.03,28.5,61.5,0.75,1.0,1.0,1.25,1.75,0.5,0.0,1.5,0.25,5.25,2.5,4.0,2.75,0.2,0.02,1.33,200.48,0.0,-42.1
0.18,7.75,0.0,6.0,4.75,0.0,0.0,2.75,0.0,0.0,0.5,0.75,0.0,0.0,-0.42,0.77,2.52,366.46,29.5,62.9,0.0,1.0,0.5,1.25,3.25,0.5,0.0,1.75,0.25,7.75,5.0,5.0,4.0,-0.92,0.33,2.08,279.6,2.4,-52.0
0.2,7.0,0.0,4.5,3.0,0.0,0.0,1.75,0.0,0.25,0.75,0.5,0.0,0.0,-0.73,1.02,2.89,304.63,29.0,61.6,0.75,1.0,0.25,1.25,2.5,1.25,0.0,3.0,0.5,8.75,7.0,5.0,5.75,0.64,0.33,1.95,388.18,3.0,-54.9
0.22,4.0,0.0,3.0,2.5,0.0,0.0,0.5,0.0,0.0,0.5,0.5,0.0,0.0,-0.55,0.52,2.95,238.22,28.0,59.8,1.5,1.0,0.0,1.25,3.75,2.75,0.0,4.25,0.25,8.75,8.0,5.0,5.5,-0.17,0.39,1.77,522.05,3.4,-46.1
0.24,0.0,0.0,2.75,0.0,0.0,0.0,0.0,0.0,0.0,0.0,0.0,0.0,0.0,-0.67,-0.61,2.27,146.16,38.2,60.9,2.0,0.0,1.0,1.75,3.75,3.0,1.5,5.25,1.0,9.0,8.5,5.0,5.5,0.08,0.14,0.95,645.62,1.7,-43.0
0.26,0.0,0.0,0.0,0.0,0.0,0.0,0.0,0.0,0.0,0.0,0.0,0.0,0.0,-0.3,-0.48,1.39,53.89,0.0,0.0,2.0,0.25,1.75,2.25,3.5,3.25,2.75,5.5,1.5,8.75,8.5,5.0,4.75,0.08,0.08,0.95,732.58,0.1,-37.5
0.28,1.0,0.0,0.0,0.0,0.0,0.0,0.5,0.0,0.0,0.0,1.0,0.0,0.0,-0.73,-1.73,2.02,0.0,23.7,11.6,3.0,1.0,3.25,2.75,4.25,4.5,3.75,5.5,1.5,8.5,8.5,4.25,4.5,0.08,0.08,0.95,814.42,-1.6,-24.3
0.3,1.25,0.0,0.75,2.5,0.0,0.0,0.25,0.0,0.0,0.5,1.25,0.0,0.0,-0.17,-0.8,1.39,0.0,19.4,29.2,2.0,0.25,2.75,2.0,3.75,4.5,3.75,5.5,1.0,6.75,7.0,3.0,3.25,0.08,0.08,0.95,800.94,-0.6,-23.7
0.32,0.0,0.0,2.0,2.5,0.0,0.0,0.0,0.0,0.0,0.5,1.25,0.0,0.0,-0.3,-0.42,0.64,0.0,20.2,23.1,3.5,1.5,3.25,4.0,4.75,6.0,5.25,6.0,1.5,6.75,5.5,3.0,3.75,0.14,0.08,0.95,836.9,-2.1,-9.1
0.34,2.0,0.0,0.25,2.0,0.0,0.0,0.0,0.0,0.0,0.75,1.25,0.0,0.0,-0.48,-0.23,0.33,10.48,18.2,27.8,3.75,1.75,5.25,4.25,6.25,6.25,5.5,5.75,1.0,5.75,5.25,2.25,2.5,0.14,0.08,0.95,862.92,-4.1,3.0
0.36,1.25,0.0,0.0,1.75,0.0,0.0,0.0,0.0,0.0,0.0,0.75,0.0,0.0,-0.61,-0.23,0.52,11.71,21.5,44.4,3.5,1.75,5.25,5.0,7.0,6.75,5.5,5.5,1.0,4.25,3.5,1.5,2.25,0.14,0.08,0.95,885.35,-4.2,11.9
0.38,0.0,0.0,0.0,0.25,0.0,0.0,0.0,0.0,0.0,0.0,0.0,0.0,0.0,-0.42,-0.23,0.83,0.0,17.2,57.9,2.25,1.0,4.5,4.25,6.75,6.75,5.5,5.25,0.75,3.0,2.5,0.75,1.0,0.14,0.08,0.95,811.57,-3.4,17.0
0.4,0.0,0.0,0.0,0.5,0.0,0.0,0.0,0.0,0.0,0.5,0.0,0.0,0.0,-0.42,-0.05,1.08,0.0,1.1,-7.2,2.0,1.0,5.25,4.75,7.5,7.25,4.25,4.25,0.0,1.25,1.0,0.25,0.5,0.08,0.14,0.95,715.68,-4.3,32.5
0.42,0.0,0.0,0.25,0.5,0.0,0.0,0.0,0.0,0.0,0.5,0.5,0.0,0.0,-0.55,0.14,1.14,0.0,9.1,-16.0,3.25,2.0,5.0,6.0,7.75,7.75,4.75,4.25,0.0,2.5,1.0,0.25,0.5,0.08,0.14,0.95,663.1,-4.7,33.5
0.44,0.0,0.0,0.5,1.0,0.0,0.0,0.0,0.0,0.0,1.25,1.25,0.0,0.0,-0.61,0.27,1.27,11.46,7.7,-23.2,2.0,1.0,5.25,5.75,7.75,7.25,5.0,3.25,0.0,1.0,1.0,0.25,0.5,0.08,0.14,0.95,605.74,-5.5,35.9
0.46,0.0,0.0,0.0,0.25,0.0,0.0,0.0,0.0,0.0,0.5,0.0,0.0,0.0,-0.61,0.45,1.64,18.52,-4.3,-29.6,2.0,1.0,5.5,6.0,8.5,7.25,3.75,4.25,0.0,1.0,1.25,0.25,1.25,0.08,0.14,0.89,596.38,-4.4,31.5
0.48,1.75,0.0,0.0,0.5,0.0,0.0,0.25,0.0,0.0,0.75,1.25,0.0,0.0,-0.61,0.58,1.77,42.06,16.8,10.7,3.75,1.75,5.0,7.75,8.25,7.75,4.5,4.0,0.0,2.5,1.25,0.75,1.25,0.08,0.14,0.89,628.32,-5.2,30.9
0.5,1.75,0.0,0.0,1.25,0.0,0.0,0.25,0.0,0.0,0.75,1.25,0.0,0.0,-0.61,0.77,2.45,54.47,16.8,18.1,3.5,2.0,6.5,7.75,9.25,7.75,4.75,3.25,0.0,2.5,1.5,1.25,1.25,0.08,0.2,0.89,689.87,-6.4,31.5
0.52,1.0,0.0,0.25,0.25,0.0,0.0,0.25,0.0,0.0,0.5,0.0,0.0,0.0,-0.61,0.83,2.83,50.01,20.7,42.3,3.75,1.75,6.75,8.0,9.75,8.0,5.5,3.0,0.0,2.25,1.25,0.75,1.25,0.08,0.2,0.89,745.95,-6.8,34.8
0.54,1.75,0.0,0.0,1.0,0.0,0.0,0.0,0.0,0.0,0.5,1.25,0.0,0.0,-0.55,1.27,2.77,54.63,18.3,20.8,3.75,1.25,7.0,8.25,10.5,8.0,5.5,3.0,0.0,2.5,1.25,0.75,1.25,0.08,0.2,0.89,802.28,-6.7,34.2
0.56,1.0,0.0,0.5,0.5,0.0,0.0,0.0,0.0,0.0,0.5,0.25,0.0,0.0,-0.42,2.14,2.45,52.95,20.6,35.7,3.75,2.0,7.5,9.75,11.0,8.25,6.0,3.0,0.0,1.25,1.25,0.0,1.25,0.02,0.2,0.89,844.69,-7.7,40.8
0.58,0.0,0.0,1.25,1.0,0.0,0.0,0.0,0.0,0.0,0.5,0.75,0.0,0.0,0.08,2.2,1.52,57.39,18.8,13.0,5.0,2.0,7.25,11.5,12.0,8.75,6.0,3.0,0.25,2.5,1.25,0.75,1.25,0.02,0.2,0.95,929.72,-7.5,37.9
0.6,0.0,0.0,1.25,1.0,0.0,0.0,0.0,0.0,0.25,0.5,1.25,0.0,0.0,0.58,3.08,0.95,62.64,17.5,0.1,5.5,2.25,8.0,11.5,12.5,9.0,5.5,3.0,0.25,2.5,1.25,0.75,1.25,0.02,0.2,0.95,1026.8,-7.8,39.1
0.62,1.0,0.0,1.25,1.0,0.0,0.0,0.0,0.0,0.25,0.5,1.25,0.0,0.0,0.58,3.83,-0.17,76.23,20.7,17.5,5.5,2.5,8.0,12.5,13.0,9.0,6.0,1.75,0.25,1.5,1.0,0.75,1.25,0.08,0.2,1.02,1110.05,-8.8,43.6
0.64,1.5,0.0,1.25,1.0,0.0,0.0,0.0,0.0,0.0,0.5,1.25,0.0,0.0,0.7,3.52,0.02,83.75,22.3,27.0,5.25,2.0,7.5,11.5,11.0,8.5,6.5,1.5,0.25,1.25,1.25,1.0,1.0,0.08,0.27,1.08,1107.35,-9.5,42.5
0.66,0.75,0.0,1.0,0.5,0.0,0.0,0.0,0.0,0.0,0.75,1.5,0.0,0.0,-0.17,-1.8,1.95,83.73,17.2,-1.0,6.25,2.25,9.0,12.0,11.0,8.0,6.25,1.5,0.25,0.75,1.25,0.25,1.0,0.02,0.27,1.08,1092.0,-11.2,47.3
0.68,0.0,0.0,1.25,0.25,0.0,0.0,0.0,0.0,0.0,1.25,1.25,0.0,1.0,0.14,-0.11,1.52,83.93,6.5,-40.7,6.5,1.75,8.25,11.5,11.5,7.25,6.5,1.5,0.0,1.0,0.75,0.5,0.25,0.08,0.33,1.2,1049.64,-11.4,49.3
0.7,0.0,0.0,0.25,0.25,0.0,0.0,0.0,0.0,0.0,3.75,2.25,0.0,2.75,0.52,0.52,2.2,109.58,-6.4,-78.4,5.75,2.0,8.75,9.75,10.5,6.75,6.75,1.5,0.25,1.75,0.75,0.75,1.0,0.14,0.45,1.39,998.59,-11.1,43.6
0.72,0.0,0.0,0.25,1.0,0.0,0.0,0.0,0.0,0.75,5.25,4.25,2.5,5.75,-0.55,0.27,1.89,184.91,-3.0,-79.8,7.0,2.25,7.25,7.25,8.25,4.75,6.0,1.25,0.0,1.5,0.25,0.25,0.25,0.2,0.52,1.89,879.4,-13.3,51.2
0.74,0.0,0.0,0.5,1.0,0.0,0.0,0.0,1.75,0.25,0.0,5.75,2.0,5.75,-0.73,0.33,2.2,235.83,0.4,-74.8,6.0,1.25,5.5,4.25,6.75,3.0,4.75,0.0,0.0,1.0,0.0,0.75,0.25,0.33,0.95,2.33,698.5,-14.9,52.3
0.76,0.0,0.0,0.0,1.0,0.0,0.0,0.0,3.5,1.0,0.0,5.75,2.0,4.75,-0.11,0.27,1.14,275.76,-0.9,-71.7,5.5,1.5,4.25,4.0,6.5,3.25,4.0,0.5,0.25,1.5,1.0,0.75,1.25,0.27,0.83,2.14,551.16,-11.4,38.9
0.78,0.0,0.0,0.0,0.5,0.0,0.0,0.0,4.75,0.0,7.25,6.75,0.0,5.25,-0.17,0.14,1.02,318.15,-7.6,-73.1,3.75,1.0,3.25,3.25,5.75,2.5,2.5,1.0,0.0,1.75,1.0,0.75,1.0,0.52,0.83,2.45,411.69,-9.0,32.4
0.8,0.0,0.0,0.0,0.0,0.0,0.0,0.0,5.25,0.25,7.5,6.75,2.25,5.0,-0.17,0.08,0.95,370.16,-6.8,-77.4,0.75,0.75,2.25,0.75,3.0,0.5,0.75,0.0,0.0,0.25,0.0,0.0,0.25,0.64,-0.05,2.2,266.22,-12.6,52.8
0.82,0.0,0.5,0.0,2.25,0.0,0.5,0.0,5.5,0.5,7.0,6.75,1.5,5.0,-0.11,0.08,0.95,417.24,-4.9,-60.3,2.0,0.25,0.25,0.5,2.5,0.5,0.0,0.0,0.0,0.25,0.0,0.0,1.0,0.33,-0.67,0.64,144.21,-6.4,38.8
0.84,0.0,0.75,0.0,2.5,0.0,1.5,0.0,5.5,0.5,6.75,5.75,1.5,4.25,-0.17,0.08,0.95,449.47,-5.4,-52.8,0.25,0.0,0.0,0.75,2.25,0.5,0.0,0.0,0.0,0.5,0.0,0.25,0.25,0.7,-1.3,1.27,25.96,1.3,25.5
0.86,0.0,0.75,0.0,1.25,0.0,2.5,0.25,5.5,0.25,6.25,5.5,1.0,3.5,-0.17,0.08,0.95,448.74,-7.1,-51.5,1.5,0.5,0.25,1.5,2.5,2.75,0.5,0.0,0.0,1.75,0.0,1.0,0.5,0.27,-0.92,1.45,0.0,-0.4,19.3
0.88,0.0,0.75,0.0,2.0,0.0,3.0,0.0,5.5,0.0,5.0,4.0,0.5,2.25,-0.17,0.08,0.95,405.7,-7.6,-39.2,1.75,0.25,1.5,1.75,4.25,2.0,0.5,0.75,0.25,2.0,1.0,0.75,1.25,0.2,-0.55,0.58,39.52,-3.1,12.7
0.9,0.0,0.75,0.0,0.5,0.0,4.0,0.0,5.25,0.25,4.0,3.0,0.0,1.5,-0.17,0.14,0.95,350.3,-10.8,-35.1,1.5,0.75,0.25,1.5,4.25,2.0,0.5,1.0,0.25,2.25,1.0,0.75,1.25,0.39,-0.42,0.39,98.66,0.3,7.9
0.92,0.0,1.0,0.0,2.0,0.0,4.5,0.0,5.0,0.0,3.5,2.5,0.0,1.25,-0.17,0.14,0.95,301.99,-9.1,-21.1,1.75,0.5,1.5,1.5,3.75,2.0,0.5,1.25,0.0,1.25,1.0,0.75,1.25,0.33,-0.36,0.58,145.7,-3.4,15.0
0.94,1.75,1.0,0.0,1.75,0.0,5.0,0.0,5.0,0.0,3.0,2.25,0.0,1.0,-0.17,0.14,0.95,276.58,-6.2,-8.2,1.25,0.25,1.5,1.25,3.75,2.0,0.5,1.25,0.25,1.75,1.0,0.75,1.25,0.08,-0.23,0.83,175.2,-1.7,7.4
0.96,0.0,1.0,0.0,2.25,0.0,5.5,0.0,5.0,0.0,2.25,1.75,0.0,1.0,-0.17,0.14,0.95,255.7,-9.7,-10.2,1.25,0.0,1.25,1.25,3.75,2.0,0.0,1.0,0.25,1.75,1.0,0.5,1.25,-0.05,-0.05,0.83,194.06,-0.7,7.3
0.98,1.25,1.0,0.0,2.25,1.0,6.0,0.0,5.25,0.0,2.25,1.5,0.0,1.0,-0.17,0.14,0.95,259.54,-7.5,0.5,1.25,0.75,1.5,1.5,3.75,2.0,0.0,1.25,0.0,1.75,1.0,0.75,1.25,-0.05,0.14,0.95,213.58,-1.7,11.3
1.0,0.25,1.0,0.0,1.5,1.0,6.0,0.0,5.5,0.0,2.25,1.5,0.0,1.0,-0.17,0.14,0.95,254.2,-10.6,-6.7,1.25,1.0,0.25,1.25,3.5,2.0,0.0,0.5,0.25,2.0,1.0,0.75,1.0,0.08,0.2,1.45,219.33,0.2,9.2
1.02,0.0,1.0,0.0,1.25,0.0,6.5,0.0,5.5,0.0,2.25,1.5,0.0,1.0,-0.17,0.14,0.95,245.11,-12.3,-11.7,1.0,1.0,1.0,1.25,3.75,1.75,0.0,0.5,0.0,1.5,1.0,0.75,1.25,-0.05,0.33,1.77,230.64,-1.5,12.5
1.04,0.0,1.0,0.0,1.5,2.0,7.25,0.0,6.0,0.25,2.25,1.5,0.0,1.0,-0.17,0.14,0.95,254.47,-11.2,-3.7,1.25,0.75,0.5,1.25,3.75,1.25,0.0,0.5,0.25,1.75,1.0,0.75,1.25,-0.17,0.64,2.08,234.14,-1.2,7.6
1.06,0.0,1.0,0.0,1.5,2.75,7.5,0.0,6.0,0.5,2.5,1.5,0.0,1.0,-0.17,0.14,0.95,274.22,-10.8,-2.4,1.0,1.0,1.25,1.25,4.25,1.5,0.0,0.5,0.25,1.75,1.0,0.75,1.25,-0.55,1.27,2.2,234.91,-2.1,12.3
1.08,0.0,1.0,0.0,2.25,3.0,7.5,0.0,6.0,0.25,2.25,1.5,0.0,1.0,-0.17,0.14,0.95,297.02,-10.0,1.2,1.25,1.0,1.25,1.25,3.0,2.0,0.0,0.75,0.25,2.0,1.0,1.0,1.0,-0.67,2.08,2.08,231.39,-2.1,8.4
1.1,0.0,1.0,0.0,2.5,4.25,8.0,0.0,6.0,0.25,2.25,1.25,0.0,1.0,-0.17,0.14,0.95,329.09,-9.8,5.8,1.0,1.0,1.0,1.25,3.75,1.75,0.5,1.0,0.0,1.75,1.0,0.75,1.0,-0.86,1.95,-1.48,226.95,-1.3,11.7
1.12,1.0,1.25,0.0,4.0,5.25,8.0,0.0,5.75,0.5,2.0,1.5,0.0,1.0,-0.17,0.14,1.02,374.36,-6.2,13.9,1.0,0.75,1.25,1.25,3.75,1.25,0.5,1.0,0.0,2.5,1.0,0.75,1.25,-0.61,3.14,0.52,226.69,-1.4,4.6
1.14,0.0,1.25,0.0,6.25,7.5,8.0,0.0,4.75,0.25,2.0,1.25,0.0,0.75,-0.17,0.2,1.2,423.15,-5.3,21.4,0.0,0.0,0.0,0.0,0.5,0.5,0.0,0.0,0.0,0.75,0.0,0.0,0.25,-1.67,3.02,0.39,166.04,13.6,-18.4
1.16,0.0,1.0,0.0,4.75,6.25,6.75,0.5,3.5,0.25,1.25,1.25,0.0,0.5,-0.3,0.27,1.27,426.18,-4.9,23.0,0.0,0.0,0.25,0.0,0.25,0.5,0.0,0.0,0.0,0.75,0.0,0.5,0.25,-1.55,3.27,0.02,104.64,5.0,-36.5
1.18,0.0,1.25,0.0,4.5,0.0,4.25,0.25,3.25,0.0,1.25,1.0,0.0,1.0,-0.48,0.27,1.95,365.39,-4.1,8.0,0.0,0.0,0.0,0.0,0.0,0.5,0.0,0.0,0.0,2.0,1.0,1.0,0.5,-0.98,0.58,1.14,58.65,6.0,-75.5
1.2,2.5,0.0,2.0,2.5,0.0,2.0,0.0,2.5,0.0,1.5,0.0,0.0,1.0,-0.73,0.2,2.33,293.69,5.9,17.7,0.0,1.0,0.0,1.25,0.25,2.0,0.5,1.25,0.0,5.5,2.5,1.25,1.25,-0.3,0.27,1.33,100.62,5.3,-40.1
1.22,0.0,0.5,1.5,0.0,0.0,0.0,0.0,2.25,0.0,1.5,0.0,0.0,0.0,-0.92,0.52,2.58,204.03,0.7,-9.5,0.0,0.0,0.0,0.25,0.25,1.75,0.0,2.25,0.25,6.0,4.0,2.25,1.25,0.27,0.33,0.95,160.85,6.5,-63.1
1.24,0.0,0.0,1.0,0.5,0.0,0.0,0.0,0.0,0.0,0.0,0.0,0.0,0.0,-0.86,0.02,2.14,109.2,31.1,59.9,0.0,0.0,0.25,1.25,1.5,3.0,0.5,4.25,0.75,7.0,5.5,3.25,2.75,0.14,0.2,0.95,265.15,5.2,-50.5
1.26,0.0,0.0,0.0,0.0,0.0,0.0,0.0,0.0,0.0,0.0,0.0,0.0,0.0,-0.05,-1.8,0.64,19.29,0.0,0.0,0.25,0.0,0.25,1.25,2.5,3.0,0.75,5.5,1.0,7.75,6.75,3.25,3.25,0.08,0.14,0.95,362.42,4.8,-47.6
1.28,0.0,0.0,0.0,0.0,0.0,0.0,0.0,0.0,0.0,0.5,0.0,0.0,0.0,-0.86,-2.17,1.02,0.0,-15.7,-75.5,2.0,1.0,1.25,2.25,4.25,5.25,1.75,6.25,1.25,8.5,8.0,4.0,4.25,0.08,0.08,0.95,523.61,2.0,-29.9
1.3,0.0,0.0,1.25,0.75,0.0,0.0,0.0,1.75,0.0,0.25,1.25,0.0,0.0,-0.92,-2.23,0.58,0.0,8.0,-10.2,2.0,1.0,1.0,2.75,5.0,5.5,2.25,6.25,1.5,8.25,8.0,3.75,3.5,0.14,0.08,0.95,658.53,1.6,-25.6
1.32,0.0,0.0,1.25,0.5,0.0,0.0,0.0,1.75,0.25,0.5,1.25,0.0,0.0,-0.92,-1.67,0.77,0.0,6.7,-17.7,1.75,1.0,2.0,2.75,5.0,6.25,1.5,7.0,1.5,7.75,7.0,3.5,4.0,0.14,0.08,0.95,772.2,2.0,-23.2
1.34,0.0,0.0,0.0,0.5,0.0,0.0,0.0,1.25,0.0,0.5,0.75,0.0,0.0,-0.8,-1.11,0.95,0.0,-3.9,-36.9,2.0,1.25,2.0,2.75,5.5,6.25,1.5,7.0,1.0,7.0,6.25,3.0,3.25,0.14,0.08,0.95,821.0,1.9,-17.0
1.36,0.0,0.0,0.0,0.25,0.0,0.0,0.0,1.0,0.0,0.5,0.0,0.0,0.0,-0.73,-0.67,1.33,0.0,-11.4,-34.8,1.75,1.25,1.75,2.75,5.75,6.5,1.5,6.75,1.0,6.25,5.5,2.25,3.0,0.14,0.14,0.95,825.96,2.4,-13.3
1.38,0.0,0.0,0.0,0.5,0.0,0.0,0.0,1.75,0.0,0.5,1.25,0.0,0.0,-0.67,0.02,1.45,0.0,-3.8,-41.8,2.0,1.25,0.75,2.75,6.25,6.75,1.5,6.25,1.0,5.25,3.5,2.0,2.25,0.14,0.14,0.95,785.28,3.3,-6.2
1.4,0.0,0.0,1.5,0.25,0.0,0.0,0.0,0.5,0.0,0.0,0.0,0.0,0.0,-0.67,0.39,1.58,3.75,23.9,39.0,1.25,1.5,1.75,2.75,6.5,7.25,2.0,6.25,1.0,5.25,3.5,1.5,2.25,0.14,0.14,0.95,735.31,3.0,-3.4
1.42,0.0,0.0,0.0,0.25,0.0,0.0,0.0,0.0,0.0,0.0,0.0,0.0,0.0,-0.8,0.7,2.02,9.08,17.2,57.9,2.0,1.25,1.25,2.75,6.5,7.5,2.25,6.25,1.0,4.5,3.5,1.5,2.25,0.14,0.14,0.95,686.45,2.7,-1.5
1.44,0.0,0.0,0.0,0.25,0.0,0.0,0.0,0.5,0.0,0.0,0.0,0.0,0.0,-0.86,0.95,2.2,9.62,-5.1,-5.5,2.0,1.75,1.25,3.75,6.25,7.75,2.25,6.5,1.0,4.0,3.25,1.5,2.0,0.14,0.14,0.95,654.21,2.1,2.6
1.46,0.0,0.0,0.25,0.25,0.0,0.0,0.0,0.0,0.0,0.25,0.0,0.0,0.0,-0.67,1.2,2.39,11.76,13.5,15.5,2.0,1.75,1.75,4.0,7.75,8.0,2.25,7.0,1.0,4.0,3.0,0.75,1.75,0.14,0.14,0.95,648.55,2.0,8.2
1.48,0.0,0.0,1.25,0.5,0.0,0.0,0.0,0.25,0.25,0.75,1.25,0.0,0.0,0.2,1.58,2.27,28.68,13.6,-13.6,2.25,2.0,2.0,4.0,7.75,8.25,2.25,6.25,0.25,2.75,1.75,0.5,1.25,0.14,0.14,0.95,623.84,1.5,18.7
1.5,0.0,0.0,1.25,0.5,0.0,0.0,0.0,0.0,0.0,0.0,1.25,0.0,0.0,0.83,2.08,1.77,37.45,23.6,5.7,2.25,2.0,1.5,4.0,8.25,8.5,2.75,7.25,0.5,2.75,2.5,1.0,1.25,0.14,0.14,0.95,622.33,1.8,14.2
1.52,0.0,0.0,1.0,0.5,0.0,0.0,0.0,0.0,0.0,0.5,0.0,0.0,0.0,0.64,2.58,0.77,40.57,19.7,26.9,2.25,2.0,2.75,5.25,9.0,9.25,2.75,7.0,0.0,3.75,2.5,1.0,1.75,0.14,0.14,0.95,650.45,1.1,15.2
1.54,0.0,0.0,1.25,0.5,0.0,0.0,0.0,0.0,0.0,0.5,1.0,0.0,0.0,0.83,2.83,0.14,41.76,18.5,-0.6,2.25,2.0,3.25,6.0,9.25,9.75,3.25,7.0,0.0,3.25,2.0,1.0,1.5,0.14,0.14,0.95,703.47,0.3,19.3
1.56,0.0,0.0,1.25,0.5,0.0,0.0,0.0,0.0,0.0,0.5,1.25,0.0,0.0,1.27,3.08,0.33,47.64,18.0,-5.7,2.5,2.0,2.5,6.0,10.5,9.75,3.25,6.5,0.0,2.75,1.5,1.0,1.5,0.14,0.14,0.95,746.68,0.7,22.5
1.58,0.0,0.0,2.0,0.5,0.0,0.0,0.0,0.0,0.0,0.75,1.25,0.0,0.0,0.64,3.08,0.2,59.43,19.6,1.7,3.0,2.0,3.75,7.25,11.0,10.5,3.5,6.25,0.0,2.5,1.5,1.0,1.25,0.08,0.14,1.02,806.96,-0.9,26.8
1.6,0.0,0.0,1.0,0.5,0.0,0.0,0.0,0.0,0.0,1.0,1.5,0.0,1.25,-0.36,-0.48,1.08,72.32,5.8,-44.1,3.5,1.0,4.0,6.25,11.5,9.5,2.5,5.5,0.0,1.0,1.25,0.25,1.25,0.08,0.14,1.08,813.15,-1.6,32.5
1.62,0.0,0.0,0.0,0.25,0.0,0.0,0.0,0.0,0.0,2.5,2.0,1.25,2.75,-0.42,0.14,1.52,105.81,-4.7,-87.4,2.0,0.25,3.25,6.0,10.5,9.75,2.5,4.25,0.0,1.0,0.25,0.25,0.25,0.08,0.2,1.08,756.65,-0.1,36.2
1.64,0.0,0.0,0.0,0.5,0.0,0.0,0.0,0.25,0.5,6.25,3.0,0.0,4.5,-0.05,0.2,1.77,165.48,-7.9,-79.6,2.0,2.0,2.5,8.0,11.0,9.25,1.5,3.25,0.0,2.25,1.0,0.75,0.25,0.14,0.2,1.2,718.86,-0.8,34.7
1.66,0.0,0.0,1.0,0.5,0.0,0.0,0.0,1.75,0.75,7.0,6.25,2.75,5.75,-0.61,0.39,2.02,258.99,-2.8,-75.3,2.25,1.75,3.0,6.25,11.0,8.0,1.5,3.0,0.25,1.5,1.0,1.0,1.25,0.08,0.27,1.7,677.59,-1.5,31.6
1.68,0.0,0.0,0.75,0.5,0.0,0.0,0.0,3.75,1.0,0.0,7.0,2.0,5.75,-0.17,0.14,1.14,305.43,-0.1,-71.7,2.5,1.25,1.75,4.25,9.0,6.75,1.0,2.75,0.0,0.5,1.0,0.25,1.25,0.27,0.39,2.27,592.42,-0.6,34.2
1.7,0.0,0.0,1.25,0.0,0.0,0.0,0.0,4.75,1.25,7.25,7.25,2.0,5.75,-0.17,0.2,1.14,385.12,-3.9,-71.3,0.75,0.0,0.5,1.75,6.25,5.25,0.5,1.5,0.0,0.5,0.0,0.25,0.25,0.45,0.7,2.45,429.81,4.9,34.3
1.72,0.0,0.0,0.75,0.25,0.0,0.0,0.0,5.0,1.25,8.0,7.25,0.0,5.75,-0.17,0.14,1.02,427.95,-5.8,-69.6,0.0,0.0,0.25,1.25,4.75,3.0,0.25,1.5,0.0,0.25,0.0,0.0,0.25,0.83,0.45,1.83,289.72,6.5,31.6
1.74,0.0,0.0,0.25,0.0,0.0,0.0,0.0,5.0,1.0,8.0,7.0,2.25,5.75,-0.17,0.08,0.95,475.62,-6.0,-76.3,0.0,0.0,0.0,0.5,3.25,1.75,0.0,1.5,0.0,0.5,0.25,0.25,0.25,0.08,-0.23,1.77,170.04,8.4,13.6
1.76,0.0,0.0,0.0,0.5,0.0,0.0,0.0,5.0,0.0,7.75,6.75,2.0,5.0,-0.17,0.14,0.95,477.53,-6.6,-75.2,0.0,0.0,0.0,0.0,1.75,1.25,0.0,1.5,0.0,0.5,0.0,0.25,0.25,0.02,-2.17,1.08,60.48,11.9,-0.5
1.78,0.0,0.0,0.0,0.0,0.0,0.0,0.0,5.0,0.25,7.0,6.0,1.5,5.0,-0.17,0.14,0.95,462.56,-7.5,-76.9,0.0,0.0,0.0,0.0,1.75,1.25,0.5,1.5,0.0,1.0,0.0,0.25,0.25,0.33,-2.11,1.64,0.0,10.5,-5.2
1.8,0.0,0.0,0.0,0.5,0.0,0.5,0.0,4.75,0.0,7.0,5.75,1.0,4.75,-0.17,0.14,0.95,429.15,-7.8,-71.6,0.0,0.0,0.0,0.0,1.25,1.25,0.25,1.25,0.0,0.75,0.25,0.0,0.25,0.02,-0.98,0.45,0.0,11.7,-5.8
1.82,0.0,0.0,0.0,0.5,0.0,0.5,0.0,5.0,0.0,6.25,5.0,0.75,4.0,-0.17,0.14,0.95,386.65,-8.2,-69.2,0.0,0.0,0.0,0.0,1.5,0.5,0.5,1.5,0.0,0.75,0.0,0.25,0.25,0.14,-0.61,0.08,0.0,9.0,-10.5
1.84,0.0,0.0,0.0,0.0,0.0,0.0,0.0,5.0,0.25,6.25,5.0,0.75,3.75,-0.17,0.08,0.95,351.42,-8.2,-73.8,0.75,1.0,0.0,1.25,3.5,2.75,0.25,1.5,0.0,2.0,1.0,0.75,1.0,0.08,-0.48,0.39,19.37,3.8,4.8
1.86,0.0,0.0,0.0,0.0,0.0,1.25,0.0,5.25,0.75,6.25,5.0,1.0,3.75,-0.17,0.14,0.95,328.67,-8.4,-67.6,0.75,1.0,0.5,1.25,3.75,2.75,0.5,1.5,0.25,2.25,1.25,0.75,1.25,0.02,-0.36,1.02,96.43,2.3,2.9
1.88,0.0,0.0,0.0,0.5,0.0,2.0,0.0,5.5,0.75,6.25,4.75,1.0,3.5,-0.17,0.14,0.95,317.6,-8.5,-61.0,0.0,0.0,0.0,0.0,0.25,0.5,0.0,1.5,0.0,0.75,0.0,0.25,0.25,0.33,0.14,1.08,90.26,14.2,-39.4
1.9,0.0,0.0,0.0,0.5,0.0,2.75,0.0,5.25,0.75,6.25,4.5,1.25,3.75,-0.17,0.14,0.95,316.71,-8.9,-59.4,0.0,0.0,0.0,0.0,1.0,0.5,0.25,1.0,0.0,0.5,0.25,0.25,0.25,0.52,0.64,0.89,77.78,8.5,-17.2
1.92,0.0,0.5,0.0,0.5,0.0,2.75,0.0,6.0,0.75,6.5,5.25,1.5,3.5,-0.17,0.14,0.95,333.66,-8.0,-56.4,0.0,0.0,0.25,0.0,1.0,0.5,0.5,1.25,0.0,0.75,0.0,0.25,0.25,0.33,1.14,0.83,61.43,6.7,-13.0
1.94,0.0,0.5,0.0,0.0,0.0,3.25,0.0,6.0,1.0,7.0,5.5,1.5,3.75,-0.17,0.14,0.95,348.79,-8.6,-57.8,0.0,0.0,0.0,0.0,1.0,0.5,0.5,1.25,0.0,0.75,0.0,0.0,0.25,0.14,1.39,1.02,55.49,10.4,-11.8
1.96,0.0,0.5,0.0,0.0,0.0,3.25,0.0,6.0,1.0,7.0,5.75,1.5,3.75,-0.17,0.14,0.95,368.44,-8.4,-58.0,0.0,0.0,0.0,0.0,1.75,1.0,0.5,1.0,0.0,0.5,0.0,0.25,0.25,0.27,1.52,1.08,57.35,8.9,2.8
1.98,0.0,0.5,0.0,0.0,0.0,2.75,0.0,6.0,1.0,7.0,5.75,1.5,3.75,-0.17,0.14,0.95,380.55,-8.2,-59.5,0.0,0.0,0.25,0.0,0.0,1.0,0.5,1.0,0.0,0.75,1.25,0.0,0.25,7.95,7.95,2.83,65.28,4.9,-34.4
2.0,0.0,0.5,0.0,0.75,0.0,2.0,0.0,6.0,0.75,7.0,5.75,1.75,4.0,-0.17,0.14,0.95,391.58,-7.2,-59.7,0.0,0.0,0.0,0.0,1.0,0.5,0.5,0.75,0.0,0.75,0.0,0.25,0.25,-1.36,3.95,0.08,62.64,8.4,-14.6
2.02,0.0,0.5,0.0,1.25,0.0,1.75,0.0,6.0,0.75,7.0,5.75,1.5,4.0,-0.17,0.08,0.95,396.59,-6.8,-57.8,0.0,0.25,0.0,0.5,0.0,3.0,0.25,0.0,0.0,1.75,0.5,0.75,0.25,0.08,0.7,0.95,68.45,9.7,-17.6
2.04,0.0,0.5,0.0,1.0,0.0,1.25,0.0,5.75,0.75,6.75,5.5,1.75,4.0,-0.17,0.14,0.95,394.2,-6.6,-60.9,0.0,0.0,0.25,0.0,1.5,1.0,0.75,1.25,0.0,0.75,0.0,0.25,0.0,0.39,1.2,1.27,71.14,6.5,3.2
2.06,0.0,0.25,0.0,0.75,0.0,1.25,0.0,5.5,1.0,6.5,5.75,2.0,4.0,-0.17,0.14,0.95,390.51,-6.3,-64.0,0.0,0.25,0.0,0.0,0.25,2.0,0.75,1.25,0.0,1.0,0.25,0.25,0.0,0.08,-1.17,0.7,72.68,11.0,-9.8
2.08,0.0,0.25,0.0,0.75,0.0,0.5,0.0,5.0,0.0,6.5,5.75,2.0,4.0,-0.17,0.14,0.95,375.28,-6.4,-68.4,0.0,0.0,0.5,0.0,3.25,2.5,0.5,1.5,0.0,0.75,1.25,0.25,0.25,0.33,0.14,0.83,97.99,5.9,5.3
2.1,0.0,0.5,0.0,1.75,0.0,1.25,0.25,4.75,0.0,6.0,4.5,2.0,2.75,-0.17,0.08,0.95,351.38,-5.6,-54.9,0.0,0.5,0.5,1.25,0.5,2.75,0.0,1.0,0.0,1.25,0.0,0.75,0.5,0.27,0.33,0.83,122.5,5.4,0.6
2.12,0.0,0.0,0.75,1.75,0.0,1.25,0.0,4.5,0.75,6.0,4.0,1.5,3.5,-0.17,0.14,0.95,332.88,-5.0,-54.8,0.75,1.0,0.25,1.25,4.25,3.5,0.5,1.5,0.25,2.25,1.0,0.75,1.0,0.08,0.33,0.89,190.85,3.7,7.5
2.14,0.0,0.75,0.0,2.5,0.0,0.75,0.5,4.75,0.75,5.25,4.75,1.0,2.5,-0.17,0.14,0.95,314.1,-3.5,-46.8,1.0,1.0,0.5,1.25,3.75,5.0,0.75,1.5,0.25,1.5,1.0,0.75,1.25,-0.3,0.45,0.77,235.68,3.5,11.6
2.16,0.0,0.5,0.0,2.5,0.0,0.5,0.5,4.0,1.0,4.5,4.75,0.75,2.5,-0.17,0.14,0.95,294.52,-2.6,-47.9,1.0,1.0,0.5,1.25,3.75,5.75,0.25,1.5,0.0,2.0,1.0,0.75,1.0,-0.17,0.45,0.83,274.68,5.0,12.2
2.18,0.0,0.0,1.25,2.5,0.0,0.0,1.0,3.5,1.0,4.0,4.5,0.75,2.25,-0.17,0.14,0.95,278.11,1.0,-44.2,1.0,1.0,0.0,1.25,4.75,6.25,0.5,1.5,0.0,2.25,1.0,0.75,1.25,0.52,0.27,0.89,298.83,6.3,11.3
2.2,0.0,0.75,0.0,2.5,0.0,0.0,1.5,3.5,1.25,3.25,0.0,0.0,1.75,-0.11,0.14,0.95,238.91,-2.9,-27.2,0.75,1.0,0.75,1.25,5.5,6.75,0.25,1.5,0.0,1.25,1.0,0.75,1.25,0.7,0.27,0.83,323.18,5.2,18.0
2.22,0.0,0.0,0.0,2.5,0.0,0.0,1.75,3.0,0.75,2.0,3.0,0.0,1.25,-0.11,0.14,0.95,202.68,0.9,-36.0,0.75,1.0,0.5,1.25,6.25,7.25,0.0,1.5,0.25,2.0,1.0,0.75,1.25,0.2,0.39,0.83,345.21,6.3,15.7
2.24,0.0,0.0,0.0,3.0,0.0,0.0,2.25,2.5,1.25,2.25,3.0,0.0,1.0,-0.11,0.14,0.95,174.39,3.1,-30.7,1.0,1.0,0.25,1.25,6.25,7.75,0.25,1.75,0.25,2.25,1.0,0.75,1.25,0.39,0.39,0.95,364.04,6.7,14.9
2.26,0.0,0.0,0.0,3.75,0.0,0.0,2.75,1.0,0.5,1.0,1.25,0.0,0.0,-0.11,0.08,1.14,141.41,10.8,4.3,1.5,1.25,0.5,1.25,6.75,7.75,0.0,1.5,0.25,2.25,1.0,1.0,1.0,0.7,0.45,0.95,383.03,5.1,19.0
2.28,5.75,0.0,0.0,6.25,0.0,0.0,3.75,1.75,0.25,0.0,0.0,0.0,0.0,-0.23,0.14,1.27,156.95,21.1,55.8,2.0,1.75,0.5,1.25,6.5,7.5,0.25,1.5,0.0,2.25,1.0,0.75,1.0,0.77,0.45,1.08,395.47,4.1,23.1
2.3,6.0,0.0,7.75,8.0,0.0,0.0,0.0,0.0,0.0,0.0,0.0,0.0,0.0,-0.36,0.2,1.7,209.04,29.4,69.2,2.0,2.0,0.0,1.25,6.5,7.25,0.0,1.25,0.25,2.0,0.75,1.0,1.0,0.77,0.52,1.14,395.46,4.4,23.6
2.32,7.75,1.25,1.25,7.25,0.0,0.0,0.0,0.0,0.0,0.0,0.25,0.0,0.0,-0.42,0.27,1.89,242.39,25.6,75.6,2.0,2.0,0.25,1.25,6.25,6.75,0.0,0.0,0.25,2.0,0.75,0.75,1.25,0.83,0.7,1.39,380.15,3.2,26.7
2.34,8.5,1.5,7.5,5.0,0.0,0.0,2.5,0.0,0.25,0.0,0.0,0.0,0.0,-0.42,0.2,2.64,287.72,30.3,72.3,2.0,1.75,0.5,1.25,6.25,5.25,0.5,0.25,0.25,1.25,1.0,0.75,1.25,0.89,1.08,1.08,358.64,0.9,27.4
2.36,7.5,1.25,6.0,4.25,0.0,0.0,2.0,0.0,0.5,0.0,1.25,0.0,0.0,-0.3,0.33,2.77,307.92,28.9,63.1,1.0,1.0,0.5,0.0,6.25,3.0,0.25,0.0,0.0,1.75,0.75,0.75,0.25,0.89,2.39,-0.05,303.34,2.2,25.6
2.38,0.0,0.0,4.5,2.0,0.0,0.0,0.75,0.0,0.5,0.0,0.0,0.0,0.25,0.27,0.08,1.64,265.36,29.0,46.7,0.0,0.5,0.0,0.0,4.25,3.0,0.0,0.25,0.0,0.25,0.0,0.75,0.25,0.27,2.52,0.02,244.24,8.1,27.8
2.4,0.0,0.0,2.75,1.0,0.0,0.0,0.0,0.0,0.25,0.25,0.0,0.0,0.0,0.89,-0.98,0.52,195.14,28.6,46.8,0.0,0.0,0.0,0.0,1.5,1.25,0.0,0.0,0.0,0.5,0.0,0.25,0.25,-1.98,2.7,-1.17,158.43,10.6,10.1
2.42,3.5,0.0,0.0,0.25,0.0,0.0,0.0,0.0,0.0,0.0,0.0,0.0,0.0,2.45,-3.42,1.64,122.69,33.6,94.9,0.0,0.0,0.0,0.0,2.25,1.0,0.25,0.0,0.0,0.25,0.25,0.0,0.25,-0.67,2.27,1.83,85.02,7.0,24.7
2.44,0.0,0.0,0.0,0.5,0.0,0.0,0.0,0.0,0.5,0.75,0.0,0.0,0.0,0.02,-1.48,2.58,59.67,1.8,-25.6,0.0,0.0,0.0,0.0,1.25,0.75,0.25,0.0,0.0,0.25,0.0,0.25,0.25,0.2,1.39,1.7,24.3,7.3,10.0
2.46,0.0,0.0,0.25,0.75,0.0,0.0,0.0,0.0,0.0,0.5,0.0,0.0,0.0,0.02,-0.86,1.39,13.56,10.0,15.1,0.0,0.0,0.0,0.0,2.75,0.5,0.25,0.0,0.0,0.25,0.0,0.0,0.0,1.02,0.45,1.02,0.0,5.3,42.4
2.48,0.0,0.0,2.0,1.25,0.0,0.0,0.0,0.0,0.25,0.5,0.0,0.0,0.0,-0.86,-0.05,0.58,7.01,23.4,37.4,0.0,0.0,0.0,0.0,1.5,0.5,0.0,0.0,0.0,0.0,0.0,0.25,0.0,1.08,-0.36,0.58,0.0,5.8,33.2
2.5,0.0,0.0,1.0,0.5,0.0,0.0,0.25,0.0,0.25,0.5,1.25,0.0,0.0,-0.67,0.02,0.58,3.15,16.6,-11.6,0.0,0.0,0.0,0.0,1.75,0.5,0.0,0.0,0.0,0.0,0.0,0.25,0.25,1.39,0.45,-0.11,0.0,6.2,22.9
2.52,0.0,0.0,0.5,0.5,0.0,0.0,0.0,0.0,0.25,1.25,1.25,0.0,0.0,0.2,0.14,2.02,0.0,6.7,-35.6,0.0,0.0,0.0,0.0,1.75,0.5,0.25,0.0,0.0,0.0,0.0,0.0,0.25,0.27,1.08,0.89,0.0,5.9,34.6
2.54,1.5,0.0,0.25,0.75,0.0,0.0,0.5,0.0,0.25,1.25,1.0,0.0,0.0,0.58,0.58,3.02,7.11,14.3,5.4,0.0,0.0,0.0,0.0,2.5,0.5,0.25,0.0,0.0,0.75,0.0,0.0,0.0,-1.11,0.45,-0.98,0.0,6.6,27.7
2.56,2.0,0.0,0.0,0.75,0.0,0.0,0.0,0.0,0.25,0.0,1.25,0.0,0.0,0.08,1.58,3.08,21.51,23.1,31.0,0.0,0.0,0.0,0.0,1.5,0.5,0.25,0.0,0.0,0.25,0.0,0.0,0.25,-3.8,-0.67,-1.42,4.71,7.0,22.9
2.58,0.0,0.0,0.25,0.75,0.0,0.0,0.5,0.0,0.25,0.0,1.0,0.0,0.0,-0.42,2.45,2.58,20.8,17.8,-5.9,0.75,0.75,0.0,1.25,1.5,2.25,0.5,0.5,0.0,1.5,1.0,1.0,1.0,-0.48,-1.42,-0.86,66.54,1.3,-2.9
2.6,0.0,0.0,1.25,0.5,0.0,0.0,0.25,0.0,0.0,0.5,1.25,0.0,0.0,-0.48,2.83,1.58,35.59,18.5,-4.6,0.5,0.5,0.5,1.25,2.25,2.0,0.5,0.25,0.0,1.75,0.75,0.75,1.25,0.89,-0.42,-0.61,122.15,1.1,-0.4
2.62,0.0,0.0,1.5,0.5,0.0,0.0,0.25,0.0,0.25,0.5,1.0,0.0,0.0,0.2,2.7,0.33,52.92,19.8,1.9,0.25,0.75,0.5,1.25,4.25,2.0,0.5,0.25,0.0,1.75,1.0,0.75,1.0,0.89,-2.11,0.27,179.85,1.3,8.9
2.64,0.0,0.0,1.25,0.5,0.0,0.0,0.0,0.0,0.25,0.5,0.0,0.0,0.0,2.02,2.27,0.52,52.25,20.8,24.0,0.0,0.5,0.5,1.25,4.25,2.0,0.5,0.5,0.0,1.5,1.0,0.75,1.0,0.33,-0.55,0.77,209.77,2.2,6.4
2.66,0.0,0.0,0.5,0.5,0.0,0.0,0.25,0.0,0.0,0.5,0.25,0.0,0.0,3.45,1.7,0.33,45.28,14.3,4.7,0.5,0.75,0.75,1.25,4.25,1.75,0.0,0.5,0.0,1.75,1.0,0.75,1.25,0.45,-0.11,0.52,230.26,0.8,7.7
2.68,0.0,0.0,0.5,1.0,0.0,0.0,0.0,0.0,0.0,0.5,0.0,0.0,0.0,2.64,1.08,0.14,39.9,14.4,26.3,0.0,0.75,0.25,1.25,3.75,2.0,0.5,0.25,0.0,2.0,0.75,0.75,1.25,1.27,-0.3,-0.23,232.18,3.3,2.3
2.7,0.0,0.0,0.75,0.5,0.0,0.0,0.25,0.0,0.0,0.75,0.0,0.0,0.0,1.64,0.33,-0.11,33.2,14.1,11.0,0.25,0.75,0.5,1.25,4.25,1.75,0.5,0.0,0.0,1.5,1.0,0.75,1.0,2.45,0.33,-1.73,232.25,0.4,10.9
2.72,2.5,0.0,0.25,0.5,0.0,0.0,0.0,0.0,0.25,0.75,0.75,0.0,0.25,0.95,-0.23,0.08,45.82,18.8,24.5,0.0,1.0,0.5,1.25,4.25,2.0,0.25,0.25,0.0,1.5,1.0,0.75,1.0,2.27,1.33,-1.55,231.86,1.7,10.4
2.74,2.25,0.0,0.75,0.5,0.0,0.0,0.25,0.0,0.0,1.0,0.75,0.0,0.0,0.64,-0.61,0.27,62.97,20.6,29.7,0.5,1.0,1.25,1.25,3.75,1.25,0.5,0.0,0.0,1.75,0.75,0.75,1.0,0.7,1.45,-1.05,229.74,-2.8,14.1
2.76,1.75,0.0,0.5,0.5,0.0,0.0,0.0,0.0,0.25,1.0,0.75,0.0,0.0,0.7,-0.61,0.52,74.32,17.4,17.6,0.5,0.75,0.25,1.25,3.75,1.5,0.5,0.0,0.0,2.25,1.0,0.75,1.25,-0.05,1.2,-0.67,225.32,1.1,2.4
2.78,1.75,0.0,0.25,0.5,0.0,0.0,0.0,0.0,0.25,0.75,0.0,0.0,0.0,0.77,-0.36,0.7,72.54,19.7,40.9,0.5,0.75,0.0,1.25,3.5,1.25,0.5,0.25,0.0,1.75,1.0,0.75,1.0,-0.17,0.77,-0.48,214.31,0.9,4.0
2.8,0.0,0.0,0.5,0.5,0.0,0.0,0.0,0.0,0.0,0.5,0.0,0.0,0.0,0.33,0.02,0.14,58.43,13.5,15.5,0.25,0.75,0.5,1.25,3.25,1.25,0.5,0.0,0.0,2.0,1.0,0.75,1.0,-0.17,0.45,-0.17,202.83,0.0,2.7
2.82,1.75,0.0,0.0,0.5,0.0,0.0,0.0,0.0,0.0,0.5,0.25,0.0,0.0,0.14,0.14,-0.17,51.2,21.0,46.2,0.0,0.25,0.5,1.25,4.25,1.25,0.5,0.0,0.0,1.75,0.25,0.25,1.0,-0.3,0.08,-0.42,185.16,2.2,12.9
2.84,1.25,0.0,0.25,0.5,0.0,0.0,0.0,0.0,0.25,0.5,0.75,0.0,0.0,0.02,-0.11,-0.3,47.81,18.3,17.0,0.5,0.75,1.25,1.25,3.0,1.0,0.5,0.0,0.0,1.5,1.0,0.25,1.25,0.77,-0.17,-1.23,180.5,-3.5,11.6
2.86,1.0,0.0,0.5,0.5,0.0,0.0,0.0,0.0,0.0,0.5,0.5,0.0,0.0,0.02,-0.36,0.02,49.54,19.8,26.6,0.75,0.75,0.0,0.25,3.5,0.75,0.25,0.0,0.25,2.0,1.0,0.5,1.25,1.45,0.2,-1.17,172.26,1.5,-2.1
2.88,1.75,0.0,0.0,0.5,0.0,0.0,0.25,0.0,0.0,0.5,0.75,0.0,0.0,0.33,-0.61,0.27,54.15,19.9,28.8,0.0,0.75,0.5,1.25,3.75,1.0,0.75,0.75,0.25,2.0,1.0,0.75,1.0,1.02,0.14,-0.8,179.92,0.7,0.0
2.9,1.75,0.0,0.5,0.5,0.0,0.0,0.0,0.0,0.0,0.5,0.25,0.0,0.0,0.77,-0.73,0.58,56.85,23.6,48.5,0.5,0.5,0.5,1.25,3.75,1.0,0.5,0.25,0.25,1.75,1.25,0.5,1.0,0.45,0.02,-0.61,183.51,-0.8,4.8
2.92,2.0,0.0,0.5,0.5,0.0,0.0,0.0,0.0,0.0,0.5,0.0,0.0,0.0,1.14,-0.55,0.39,57.37,25.3,60.6,0.75,0.75,0.75,1.25,2.75,0.5,0.5,0.0,0.25,1.5,1.0,0.25,1.0,0.33,0.08,-0.61,181.89,-4.4,10.8
2.94,1.25,0.0,0.5,0.5,0.0,0.0,0.0,0.0,0.0,0.5,0.25,0.0,0.0,1.08,-0.17,0.39,53.5,21.8,40.6,0.75,0.75,0.5,1.25,3.0,0.5,0.75,0.0,0.25,1.75,1.0,0.25,1.25,0.58,0.33,-0.61,178.53,-3.0,6.6
2.96,1.0,0.0,0.75,0.5,0.0,0.0,0.0,0.0,0.0,0.5,0.25,0.0,0.0,0.7,-0.17,0.27,50.14,22.2,37.9,0.5,0.75,1.0,1.25,3.75,1.0,0.5,0.25,0.25,1.5,1.25,0.25,1.0,0.83,0.45,-0.67,183.12,-2.6,12.3
2.98,0.75,0.0,0.5,0.5,0.0,0.0,0.0,0.0,0.0,0.5,0.25,0.0,0.0,0.45,-0.23,0.14,46.12,19.3,29.9,0.5,0.5,0.5,1.25,4.5,0.5,0.75,0.0,0.25,2.0,0.25,0.25,1.0,0.95,0.33,-0.67,185.17,-0.8,15.0
3.0,1.0,0.0,0.25,0.5,0.0,0.0,0.0,0.0,0.0,0.75,0.0,0.0,0.0,0.39,-0.3,0.2,44.01,16.1,32.7,0.5,0.5,0.5,1.25,3.75,0.5,1.0,0.0,0.25,1.75,1.25,0.25,1.25,0.95,0.39,-0.67,188.21,-2.2,4.9
3.02,0.0,0.0,1.0,0.5,0.0,0.0,0.25,0.0,0.0,0.75,0.25,0.0,0.0,0.64,-0.42,0.33,42.94,16.1,8.0,0.5,0.75,0.5,1.25,5.0,0.5,0.75,0.0,0.25,1.5,1.0,0.25,1.0,0.77,0.33,-0.67,194.66,-2.0,16.7
3.04,0.0,0.0,1.25,0.5,0.0,0.0,0.25,0.0,0.0,1.0,0.25,0.0,0.0,0.77,-0.48,0.33,45.39,15.4,5.7,0.5,0.75,1.25,1.25,3.75,0.5,0.75,0.0,0.25,1.5,0.75,0.75,1.0,0.39,0.14,-0.8,196.69,-4.8,12.2
3.06,0.0,0.0,1.0,0.5,0.0,0.0,0.25,0.0,0.0,0.75,0.0,0.0,0.0,0.77,-0.61,0.33,42.1,16.7,16.3,0.75,0.75,0.5,1.25,2.75,0.5,1.0,0.0,0.25,2.0,0.5,0.75,1.25,0.52,0.08,-0.8,192.23,-2.9,2.5
3.08,0.0,0.0,0.75,0.5,0.0,0.0,0.0,0.0,0.0,0.75,0.0,0.0,0.0,0.64,-0.67,0.27,38.4,13.0,10.1,0.75,0.75,0.5,1.25,3.75,0.5,0.75,0.0,0.25,2.0,1.5,0.75,1.0,0.52,-0.11,-0.61,194.48,-3.0,3.2
3.1,0.0,0.0,0.75,0.5,0.0,0.0,0.25,0.0,0.0,0.75,0.0,0.0,0.0,0.58,-0.61,0.45,35.04,14.1,11.0,0.75,0.75,0.5,1.25,3.75,0.5,0.75,0.0,0.25,1.5,1.0,0.75,1.0,0.58,-0.11,-0.48,193.33,-3.5,9.2
3.12,0.0,0.0,0.5,0.5,0.0,0.0,0.0,0.0,0.0,0.75,0.0,0.0,0.0,0.58,-0.61,0.45,30.08,9.4,2.8,0.5,0.5,0.5,1.25,3.5,0.5,0.75,0.0,0.25,1.5,1.0,0.75,1.25,0.7,-0.05,-0.48,189.41,-2.5,2.2
3.14,0.0,0.0,0.75,0.5,0.0,0.0,0.0,0.0,0.0,1.0,0.25,0.0,0.0,0.58,-0.61,0.52,31.2,10.0,-6.4,0.75,0.5,0.5,1.25,3.75,0.5,0.75,0.0,0.25,1.5,1.25,0.75,0.75,0.83,0.02,-0.55,188.06,-3.8,8.2
3.16,0.0,0.0,0.5,0.5,0.0,0.0,0.0,0.0,0.0,0.75,0.25,0.0,0.0,0.58,-0.55,0.64,30.65,9.6,-6.5,1.5,1.0,0.5,1.25,3.75,0.5,0.75,0.0,0.25,1.75,1.0,0.75,1.0,0.83,0.14,-0.61,194.77,-4.8,13.7
3.18,0.0,0.0,0.5,0.5,0.0,0.0,0.0,0.0,0.0,0.75,0.25,0.0,0.0,0.33,-0.55,0.45,31.51,9.6,-6.5,1.0,0.5,0.5,1.25,3.75,0.5,0.75,0.0,0.25,1.25,1.0,0.75,1.0,0.77,0.2,-0.61,192.55,-4.2,10.7
3.2,0.0,0.0,0.5,0.5,0.0,0.0,0.25,0.0,0.0,0.75,0.25,0.0,0.0,0.45,-0.67,0.39,31.26,10.8,-4.6,0.75,0.5,0.5,1.25,3.75,0.75,0.75,0.0,0.25,1.5,1.0,0.75,1.0,0.77,0.27,-0.61,192.24,-2.8,7.8
3.22,0.0,0.0,0.5,0.5,0.0,0.0,0.0,0.0,0.0,0.75,0.5,0.0,0.0,0.83,-0.73,0.58,32.48,9.7,-13.8,0.5,0.75,0.5,1.25,3.75,1.0,0.5,0.0,0.0,1.5,1.0,0.75,1.0,0.77,0.2,-0.61,190.83,-1.5,9.2
3.24,0.0,0.0,0.25,0.5,0.0,0.0,0.0,0.0,0.0,1.0,0.0,0.0,0.0,0.83,-0.67,0.7,30.31,1.7,-16.5,0.5,0.5,0.5,1.25,3.75,1.25,0.75,0.0,0.25,1.25,1.0,1.0,1.25,0.83,0.2,-0.55,191.6,-1.5,4.3
3.26,0.0,0.0,0.25,0.5,0.0,0.0,0.0,0.0,0.0,0.75,0.0,0.0,0.0,0.52,-0.55,0.64,27.4,4.6,-6.9,0.75,1.0,0.5,1.25,3.75,0.5,0.75,0.0,0.25,1.5,1.0,0.5,1.0,0.83,0.14,-0.55,190.71,-3.5,13.2
3.28,0.0,0.0,0.5,0.5,0.0,0.0,0.25,0.0,0.0,0.5,0.25,0.0,0.0,0.33,-0.48,0.58,26.95,14.3,4.7,0.5,0.75,0.25,1.25,3.75,0.5,0.75,0.0,0.25,1.5,1.0,0.75,1.0,0.83,0.14,-0.48,189.46,-2.1,6.5
3.3,0.0,0.0,0.5,0.5,0.0,0.0,0.25,0.0,0.0,0.75,0.25,0.0,0.0,0.39,-0.55,0.52,29.03,10.8,-4.6,0.5,0.75,0.5,1.25,3.75,0.5,0.75,0.0,0.25,1.5,1.0,1.0,1.0,0.77,0.08,-0.48,189.22,-3.0,5.3
3.32,0.0,0.0,0.5,0.5,0.0,0.0,0.0,0.0,0.0,0.75,0.0,0.0,0.0,0.52,-0.61,0.58,29.46,9.4,2.8,0.5,1.0,0.5,1.25,3.75,0.5,0.75,0.0,0.25,1.5,1.0,0.75,1.25,0.7,0.08,-0.55,189.05,-2.7,7.1
3.34,0.0,0.0,0.25,0.5,0.0,0.0,0.0,0.0,0.0,0.75,0.25,0.0,0.0,0.45,-0.61,0.64,29.05,5.4,-16.2,0.5,0.75,1.0,1.25,3.75,0.5,0.75,0.0,0.25,1.25,1.0,0.75,1.0,0.7,0.08,-0.55,190.61,-4.6,11.3
3.36,0.0,0.0,0.25,0.5,0.0,0.0,0.0,0.0,0.0,0.75,0.0,0.0,0.0,0.33,-0.61,0.64,27.01,4.6,-6.9,1.0,0.75,1.5,1.25,2.75,0.5,0.75,0.0,0.25,1.25,1.0,0.75,1.0,0.7,0.14,-0.55,190.74,-7.8,12.6
3.38,0.0,0.0,0.25,0.5,0.0,0.0,0.0,0.0,0.0,0.75,0.25,0.0,0.0,0.33,-0.61,0.64,25.84,5.4,-16.2,0.5,0.75,0.5,1.25,3.75,0.5,0.75,0.0,0.25,1.5,1.0,0.75,1.25,0.77,0.14,-0.55,190.03,-2.5,5.2
3.4,0.0,0.0,0.25,0.5,0.0,0.0,0.25,0.0,0.0,1.0,0.0,0.0,0.0,0.39,-0.61,0.58,26.6,3.6,-13.7,0.75,1.0,0.5,1.25,3.75,0.5,0.5,0.0,0.25,1.25,0.75,0.75,1.25,0.83,0.14,-0.48,189.14,-3.3,11.7
3.42,0.0,0.0,0.25,0.5,0.0,0.0,0.0,0.0,0.0,0.75,0.25,0.0,0.0,0.39,-0.55,0.58,27.12,5.4,-16.2,0.75,0.75,0.5,1.25,3.5,0.5,0.5,0.0,0.25,1.5,0.75,0.75,1.25,0.83,0.14,-0.48,188.06,-2.8,7.2
3.44,0.0,0.0,0.25,0.5,0.0,0.0,0.0,0.0,0.0,0.75,0.25,0.0,0.0,0.33,-0.48,0.58,27.42,5.4,-16.2,0.5,1.0,0.5,1.25,3.75,0.5,0.75,0.0,0.25,1.5,0.75,0.75,1.25,0.83,0.14,-0.48,188.36,-2.6,8.6
3.46,0.0,0.0,0.0,0.5,0.0,0.0,0.0,0.0,0.0,0.5,0.25,0.0,0.0,0.39,-0.48,0.64,24.74,2.9,-20.3,0.5,0.75,0.75,1.25,3.5,0.5,0.5,0.0,0.25,1.5,0.25,0.75,1.25,0.83,0.14,-0.48,184.93,-2.7,9.9
3.48,0.0,0.0,0.25,0.5,0.0,0.0,0.0,0.0,0.0,1.0,0.0,0.0,0.0,0.39,-0.48,0.64,25.21,1.7,-16.5,0.5,0.75,0.5,1.25,2.75,0.5,0.75,0.0,0.25,1.5,0.75,0.75,0.75,0.83,0.14,-0.48,177.25,-3.7,7.3
3.5,0.0,0.0,0.25,0.5,0.0,0.0,0.25,0.0,0.0,0.75,0.0,0.0,0.0,0.45,-0.55,0.64,24.7,6.6,-4.4,0.75,1.0,0.25,1.25,3.75,0.5,0.75,0.0,0.25,1.25,1.5,0.75,1.0,0.83,0.14,-0.48,179.86,-3.6,8.4
3.52,0.0,0.0,0.0,0.5,0.0,0.0,0.0,0.0,0.0,0.5,0.5,0.0,0.0,0.39,-0.61,0.83,24.15,4.2,-29.1,0.75,1.0,0.5,1.25,3.75,0.5,0.75,0.0,0.25,1.5,1.0,0.75,1.0,0.83,0.2,-0.48,183.92,-3.6,10.9
3.54,0.0,0.0,0.0,0.5,0.0,0.0,0.25,0.0,0.0,0.5,0.5,0.0,0.0,0.39,-0.61,0.83,24.09,6.3,-24.9,0.75,0.75,0.5,1.25,3.5,0.5,0.75,0.0,0.25,1.5,1.25,0.75,1.25,0.83,0.2,-0.48,188.3,-3.4,4.3
3.56,0.0,0.0,0.0,0.5,0.0,0.0,0.0,0.0,0.0,0.75,0.75,0.0,0.0,0.33,-0.61,0.83,26.87,2.5,-40.5,0.5,0.75,0.5,1.25,3.75,0.5,0.75,0.0,0.25,1.0,0.75,0.75,0.5,0.83,0.2,-0.48,184.4,-4.3,18.2
3.58,0.0,0.0,0.0,0.5,0.0,0.0,0.25,0.0,0.0,0.75,0.5,0.0,0.0,0.27,-0.61,0.77,28.17,3.3,-31.7,0.5,0.75,0.5,1.25,3.25,0.5,0.5,0.0,0.25,1.5,0.75,0.75,1.0,0.77,0.14,-0.48,180.66,-2.7,6.8
3.6,0.0,0.0,0.0,0.5,0.0,0.0,0.0,0.0,0.0,0.5,0.5,0.0,0.25,0.2,-0.67,0.77,29.02,1.6,-40.9,0.5,0.75,0.5,1.25,3.0,0.5,0.5,0.0,0.25,1.5,0.25,0.75,1.25,0.77,0.14,-0.42,172.94,-2.2,6.5
3.62,0.0,0.0,0.0,0.5,0.0,0.0,0.25,0.0,0.0,0.75,0.5,0.0,0.0,0.2,-0.67,0.77,29.32,3.3,-31.7,0.5,0.75,0.5,1.25,2.75,0.5,0.75,0.25,0.25,1.5,1.0,0.75,1.0,0.77,0.14,-0.48,170.47,-3.1,2.1
3.64,0.0,0.0,0.25,0.5,0.0,0.0,0.25,0.0,0.0,0.75,0.75,0.0,0.0,0.14,-0.67,0.7,32.04,7.9,-26.1,0.75,0.5,0.25,1.25,3.25,0.5,0.5,0.0,0.25,1.5,1.0,0.75,1.0,0.77,0.14,-0.48,169.62,-2.5,3.7
3.66,0.0,0.0,0.5,0.5,0.0,0.0,0.25,0.0,0.0,0.75,0.75,0.0,0.25,0.27,-0.73,0.77,37.29,8.6,-25.8,0.75,0.75,0.5,1.25,3.5,0.5,0.5,0.0,0.25,1.0,0.75,0.75,1.0,0.77,0.14,-0.48,171.8,-4.0,13.2
3.68,0.0,0.0,0.5,0.5,0.0,0.0,0.25,0.0,0.0,0.5,0.5,0.0,0.0,0.27,-0.67,0.77,38.69,13.9,-4.3,0.5,0.75,0.5,1.25,3.75,0.5,0.5,0.0,0.25,1.5,0.25,0.75,1.25,0.77,0.14,-0.48,174.22,-1.8,9.8
3.7,0.0,0.0,1.0,0.5,0.0,0.0,0.0,0.0,0.0,0.75,0.5,0.0,0.25,0.14,-0.61,0.77,43.84,12.5,-9.3,0.5,1.0,0.25,1.25,3.25,0.5,0.5,0.0,0.25,1.5,1.25,0.75,1.25,0.77,0.14,-0.48,178.03,-2.2,2.0
3.72,0.0,0.0,0.5,0.5,0.0,0.0,0.25,0.0,0.0,0.5,0.5,0.0,0.0,0.14,-0.55,0.7,41.72,13.9,-4.3,0.5,0.75,0.5,1.25,3.25,0.5,0.5,0.0,0.25,1.25,0.75,0.75,1.0,0.77,0.14,-0.48,176.42,-3.1,8.6
3.74,0.0,0.0,0.25,0.5,0.0,0.0,0.25,0.0,0.0,0.5,0.0,0.0,0.0,0.14,-0.55,0.64,36.6,10.6,8.2,0.5,1.0,0.5,1.25,3.75,0.5,0.5,0.0,0.25,2.0,1.25,0.75,1.25,0.77,0.14,-0.48,183.34,-2.0,2.5
3.76,0.75,0.0,0.25,0.5,0.0,0.0,0.0,0.0,0.0,0.5,0.25,0.0,0.0,0.33,-0.61,0.64,35.06,17.1,26.3,0.75,0.75,0.5,1.25,3.75,0.5,0.5,0.0,0.25,2.0,1.25,0.75,1.25,0.77,0.14,-0.48,190.65,-2.3,2.3
3.78,0.75,0.0,0.25,0.5,0.0,0.0,0.25,0.0,0.25,0.5,0.25,0.0,0.0,0.45,-0.61,0.83,36.93,17.3,20.1,0.5,0.5,0.5,1.25,3.5,0.5,0.5,0.0,0.25,1.25,0.75,0.75,1.25,0.77,0.14,-0.48,189.91,-2.4,5.1
3.8,0.75,0.0,0.25,0.5,0.0,0.0,0.25,0.0,0.0,0.5,0.0,0.0,0.0,0.45,-0.55,0.83,37.46,18.7,38.1,0.5,1.0,0.5,1.25,3.5,0.5,0.75,0.0,0.25,1.25,0.5,0.75,1.25,0.77,0.14,-0.42,188.51,-2.9,10.9
3.82,0.75,0.0,0.25,0.5,0.0,0.0,0.25,0.0,0.0,0.5,0.25,0.0,0.0,0.33,-0.48,0.77,39.12,17.9,26.3,0.5,1.0,0.5,1.25,3.25,0.5,0.75,0.0,0.25,1.0,0.75,0.75,1.0,0.83,0.14,-0.42,182.8,-4.0,12.6
3.84,1.0,0.0,0.25,0.5,0.0,0.0,0.25,0.0,0.0,0.5,0.25,0.0,0.0,0.33,-0.55,0.77,41.19,19.4,32.8,0.75,0.75,0.5,1.25,1.75,0.5,0.75,0.0,0.25,1.5,0.75,0.75,1.25,0.89,0.14,-0.42,172.97,-4.4,-1.3
3.86,1.0,0.0,0.25,0.5,0.0,0.0,0.25,0.0,0.25,0.5,0.25,0.0,0.0,0.33,-0.55,0.77,43.49,18.8,26.6,0.5,1.0,0.5,1.25,3.5,0.5,0.75,0.0,0.25,1.5,0.5,0.75,1.25,0.89,0.14,-0.42,173.18,-2.6,9.2
3.88,0.0,0.0,0.25,0.5,0.0,0.0,0.25,0.0,0.0,0.5,0.25,0.0,0.0,0.27,-0.61,0.77,38.18,10.6,-4.0,0.75,0.75,0.5,1.25,3.75,0.5,0.5,0.0,0.25,1.5,1.0,0.75,1.25,0.89,0.2,-0.42,178.73,-2.9,6.7
3.9,0.0,0.0,0.25,0.5,0.0,0.0,0.25,0.0,0.0,0.5,0.0,0.0,0.0,0.2,-0.61,0.77,32.4,10.6,8.2,0.0,1.0,0.25,1.25,3.5,0.5,0.75,0.0,0.25,1.75,1.0,0.75,1.25,0.83,0.2,-0.42,181.83,-0.6,-0.1
3.92,0.0,0.0,0.25,0.5,0.0,0.0,0.25,0.0,0.0,0.5,0.0,0.0,0.0,0.27,-0.61,0.7,26.46,10.6,8.2,0.75,0.75,0.5,1.25,3.25,0.5,0.5,0.0,0.25,1.5,1.25,0.75,1.0,0.83,0.14,-0.42,183.4,-3.6,5.3
3.94,0.0,0.0,0.0,0.25,0.0,0.0,0.0,0.0,0.25,0.5,0.0,0.0,0.0,0.2,-0.55,0.7,19.87,-0.3,-31.8,0.75,0.75,0.25,1.25,3.25,0.5,0.5,0.0,0.25,1.5,0.75,0.75,1.25,0.83,0.14,-0.42,181.62,-2.2,4.9
3.96,0.0,0.0,0.0,0.25,0.0,0.0,0.0,0.0,0.0,0.25,0.0,0.0,0.0,0.14,-0.42,0.64,13.62,1.1,-7.2,0.5,0.75,0.5,1.25,3.5,0.5,0.75,0.0,0.25,1.5,1.0,0.75,0.75,0.77,0.14,-0.42,180.14,-3.4,8.9
3.98,0.0,0.0,0.0,0.25,0.0,0.0,0.0,0.0,0.0,0.25,0.0,0.0,0.0,0.08,-0.42,0.64,8.62,1.1,-7.2,0.75,0.75,0.5,1.25,3.75,0.5,0.5,0.0,0.25,1.25,1.0,0.75,1.0,0.7,0.08,-0.36,180.06,-3.6,10.7
4.0,0.0,0.0,0.0,0.25,0.0,0.0,0.0,0.0,0.0,0.5,0.0,0.0,0.0,0.14,-0.48,0.64,5.47,-4.3,-29.6,0.5,0.75,0.25,1.25,3.5,0.5,0.5,0.0,0.25,1.5,0.75,0.75,1.0,0.77,0.08,-0.36,179.74,-1.8,6.8
4.02,0.0,0.0,0.0,0.5,0.0,0.0,0.0,0.0,0.0,0.5,0.0,0.0,0.0,0.02,-0.67,0.64,6.24,1.1,-7.2,0.5,1.0,0.5,1.25,3.75,0.5,0.5,0.0,0.25,1.5,1.25,0.75,1.25,0.83,0.14,-0.36,186.16,-2.6,5.4
4.04,0.0,0.0,0.25,0.5,0.0,0.0,0.25,0.0,0.0,0.5,0.0,0.0,0.0,0.08,-0.73,0.64,10.95,10.6,8.2,0.5,1.0,0.5,1.25,3.25,0.5,0.5,0.0,0.25,1.5,0.5,0.75,1.0,0.83,0.14,-0.36,183.4,-2.8,10.5
4.06,0.0,0.0,0.25,0.5,0.0,0.0,0.25,0.0,0.0,0.75,0.0,0.0,0.0,0.08,-0.73,0.7,16.35,6.6,-4.4,0.75,1.0,0.25,1.25,2.75,0.5,0.5,0.0,0.25,1.25,1.0,0.75,1.0,0.89,0.14,-0.36,180.12,-3.7,7.2
4.08,0.0,0.0,0.0,0.0,0.0,0.0,0.25,0.0,0.0,0.5,0.0,0.0,0.0,0.02,-0.61,0.64,15.29,-6.4,-55.6,0.75,1.0,0.5,1.25,3.5,0.5,0.5,0.0,0.25,1.75,1.25,0.75,1.25,0.89,0.14,-0.36,183.74,-3.0,4.4
4.1,0.0,0.0,0.0,0.5,0.0,0.0,0.0,0.0,0.0,0.5,0.0,0.0,0.0,-0.05,-0.61,0.7,15.65,1.1,-7.2,0.75,1.0,0.5,1.25,3.5,0.5,0.5,0.0,0.25,1.5,0.75,0.75,1.25,0.83,0.14,-0.36,185.03,-3.0,9.0
4.12,0.0,0.0,0.25,0.5,0.0,0.0,0.5,0.0,0.0,0.5,0.0,0.0,0.0,-0.05,-0.67,0.7,18.59,12.3,9.7,0.75,0.75,0.25,1.25,3.5,0.5,0.5,0.0,0.25,1.25,0.5,0.75,1.25,0.83,0.14,-0.36,183.69,-2.3,9.5
4.14,0.0,0.0,0.25,0.5,0.0,0.0,0.5,0.0,0.25,0.5,0.0,0.0,0.0,0.02,-0.73,0.7,23.01,12.3,2.9,0.5,1.0,0.5,1.25,3.5,0.5,0.5,0.0,0.25,1.5,1.0,0.75,0.75,0.83,0.14,-0.36,183.54,-3.3,10.7
4.16,0.0,0.0,0.25,0.5,0.0,0.0,0.5,0.0,0.0,0.75,0.25,0.0,0.0,0.02,-0.73,0.7,28.14,8.6,-11.0,0.75,1.0,0.5,1.25,3.5,0.5,0.5,0.0,0.25,1.0,1.0,0.75,1.0,0.83,0.14,-0.36,182.98,-4.3,13.3
4.18,0.0,0.0,0.25,0.5,0.0,0.0,0.25,0.0,0.0,0.5,0.0,0.0,0.0,0.02,-0.67,0.7,29.49,10.6,8.2,0.75,0.75,0.25,1.25,3.25,0.5,0.5,0.0,0.25,1.5,1.25,0.75,1.25,0.83,0.14,-0.36,182.4,-2.6,1.8
4.2,0.0,0.0,0.25,0.5,0.0,0.0,0.25,0.0,0.0,0.5,0.0,0.0,0.0,0.02,-0.67,0.7,28.8,10.6,8.2,1.0,1.0,0.5,1.25,3.75,0.5,0.5,0.0,0.25,1.5,0.25,0.75,1.25,0.83,0.14,-0.36,185.06,-3.2,14.8
4.22,0.0,0.0,0.25,0.25,0.0,0.0,0.5,0.0,0.0,0.5,0.0,0.0,0.0,0.02,-0.67,0.7,25.38,11.3,-0.2,0.5,0.75,0.5,1.25,3.5,0.5,0.5,0.0,0.25,1.5,1.0,0.75,1.5,0.83,0.14,-0.36,186.84,-2.1,1.6
4.24,0.0,0.0,0.0,0.5,0.0,0.0,0.25,0.0,0.0,0.5,0.0,0.0,0.0,0.02,-0.67,0.7,22.3,4.4,-3.6,0.5,0.75,0.25,1.25,3.25,0.5,0.75,0.0,0.25,1.75,0.75,0.75,1.25,0.83,0.14,-0.36,185.02,-1.5,1.7
4.26,0.0,0.0,0.25,0.5,0.0,0.0,0.5,0.0,0.0,0.5,0.0,0.0,0.0,0.02,-0.61,0.7,22.13,12.3,9.7,0.5,0.75,0.25,1.25,3.0,0.5,0.5,0.0,0.25,1.5,1.0,0.75,1.0,0.83,0.14,-0.36,178.61,-2.2,2.7
4.28,0.0,0.0,0.25,0.5,0.0,0.0,0.25,0.0,0.0,0.5,0.0,0.0,0.0,0.02,-0.61,0.64,22.31,10.6,8.2,0.5,1.0,0.5,1.25,3.5,0.5,0.5,0.0,0.25,1.5,0.75,0.75,1.0,0.89,0.14,-0.36,178.63,-2.8,9.8
4.3,0.0,0.0,0.0,0.5,0.0,0.0,0.25,0.0,0.0,0.5,0.0,0.0,0.0,-0.05,-0.61,0.7,21.57,4.4,-3.6,0.75,0.75,0.25,1.25,3.0,0.5,0.5,0.0,0.25,1.75,1.0,0.75,1.25,0.89,0.14,-0.36,176.89,-2.2,0.5
4.32,0.0,0.0,0.0,0.5,0.0,0.0,0.5,0.0,0.25,0.5,0.0,0.0,0.0,-0.05,-0.67,0.7,22.47,7.8,-6.8,0.5,0.75,0.25,1.25,3.25,0.5,0.5,0.0,0.25,1.5,0.75,0.75,0.5,0.89,0.14,-0.36,172.06,-2.7,11.0
4.34,0.0,0.0,0.25,0.5,0.0,0.0,0.25,0.0,0.0,0.5,0.0,0.0,0.0,-0.05,-0.67,0.7,21.89,10.6,8.2,0.25,0.75,0.25,1.25,3.0,0.5,0.5,0.0,0.25,1.5,0.75,0.75,1.0,0.83,0.14,-0.36,168.01,-1.4,2.4
4.36,0.0,0.0,0.25,0.5,0.0,0.0,0.25,0.0,0.0,0.5,0.0,0.0,0.0,0.02,-0.67,0.7,21.84,10.6,8.2,0.5,1.0,0.25,1.25,2.75,0.5,0.5,0.0,0.25,1.25,1.0,0.75,0.75,0.83,0.14,-0.36,164.14,-3.4,8.0
4.38,0.5,0.0,0.25,0.5,0.0,0.0,0.25,0.0,0.0,0.5,0.0,0.0,0.0,0.02,-0.61,0.7,25.05,16.7,30.6,0.5,0.75,0.5,1.25,3.0,0.5,0.5,0.0,0.25,1.0,1.0,0.75,1.25,0.83,0.14,-0.36,163.05,-3.5,4.9
4.4,0.0,0.0,0.25,0.25,0.0,0.0,0.25,0.0,0.0,0.5,0.25,0.0,0.0,0.02,-0.61,0.7,25.03,9.4,-15.8,0.5,0.75,0.5,1.25,2.75,0.5,0.5,0.0,0.25,1.5,1.25,0.75,1.0,0.83,0.14,-0.36,164.54,-3.4,1.1
4.42,0.0,0.0,0.25,0.5,0.0,0.0,0.5,0.0,0.0,0.25,0.0,0.0,0.0,0.02,-0.61,0.7,24.8,17.8,26.5,0.5,0.75,0.5,1.25,3.25,0.5,0.5,0.0,0.25,1.0,1.0,0.75,1.0,0.83,0.14,-0.36,167.08,-3.7,8.7
4.44,0.75,0.0,0.25,0.5,0.0,0.0,0.25,0.0,0.0,0.5,0.0,0.0,0.0,-0.05,-0.61,0.7,28.14,18.7,38.1,0.75,0.0,0.25,1.25,3.25,0.5,0.5,0.0,0.25,1.5,0.25,0.75,1.0,0.77,0.14,-0.36,163.46,-1.5,4.5
4.46,0.25,0.0,0.25,0.5,0.0,0.0,0.5,0.0,0.0,0.0,0.0,0.0,0.0,0.02,-0.67,0.7,27.3,27.7,60.1,0.75,0.75,0.25,1.25,3.25,0.5,0.75,0.0,0.25,1.5,1.0,0.75,1.0,0.77,0.14,-0.36,167.74,-3.0,6.0
4.48,1.0,0.0,0.25,0.5,0.0,0.0,0.25,0.0,0.0,0.0,0.0,0.0,0.0,0.02,-0.67,0.77,30.14,30.2,76.6,1.25,1.0,0.5,1.25,2.75,0.5,0.5,0.0,0.25,1.25,1.0,0.75,1.0,0.83,0.14,-0.36,172.03,-5.6,11.8
4.5,0.5,0.0,0.0,0.5,0.0,0.0,0.25,0.0,0.0,0.0,0.0,0.0,0.0,0.02,-0.61,0.77,26.92,26.3,71.4,0.5,0.75,0.25,1.25,2.75,0.5,0.5,0.0,0.25,1.5,1.0,0.75,1.25,0.83,0.14,-0.36,173.03,-2.0,-1.0
4.52,1.25,0.0,0.0,0.5,0.0,0.0,0.25,0.0,0.0,0.5,0.0,0.0,0.0,-0.11,-0.61,0.7,32.07,19.8,47.6,0.75,0.5,0.5,1.25,2.75,0.5,0.5,0.0,0.25,1.25,0.75,0.75,1.0,0.83,0.14,-0.36,169.92,-3.9,6.0
4.54,1.75,0.0,0.25,0.5,0.0,0.0,0.25,0.0,0.0,0.25,0.0,0.0,0.0,-0.11,-0.67,0.7,38.38,27.2,68.3,0.5,0.75,0.5,1.25,3.0,0.5,0.5,0.0,0.25,1.5,0.75,0.75,0.75,0.83,0.14,-0.36,168.87,-3.3,8.3
4.56,0.75,0.0,0.0,0.25,0.0,0.0,0.25,0.0,0.0,0.0,0.0,0.0,0.0,-0.05,-0.67,0.77,35.6,30.4,80.4,1.0,1.0,0.5,1.25,2.5,0.5,0.5,0.0,0.25,1.5,1.0,0.75,1.0,0.83,0.2,-0.36,170.65,-4.8,7.3
4.58,1.0,0.0,0.0,0.25,0.0,0.0,0.25,0.0,0.0,0.0,0.0,0.0,0.0,0.02,-0.67,0.77,32.38,31.2,83.5,1.0,1.0,0.5,1.5,2.5,0.5,0.5,0.0,0.25,1.5,1.0,0.75,1.0,0.83,0.14,-0.36,174.11,-5.1,8.4
4.6,0.0,0.0,0.0,0.25,0.0,0.0,0.25,0.0,0.0,0.0,0.0,0.0,0.0,0.14,-0.61,0.83,21.46,21.9,48.3,0.5,0.75,0.25,1.25,2.5,0.5,0.75,0.0,0.25,1.5,0.75,0.75,0.75,0.83,0.14,-0.36,170.2,-3.1,4.7
4.62,0.25,0.0,0.0,0.25,0.0,0.0,0.0,0.0,0.0,0.0,0.0,0.0,0.0,0.14,-0.55,0.83,13.98,25.5,76.7,1.0,0.75,0.5,1.25,2.5,0.5,0.5,0.0,0.25,1.5,1.5,0.75,1.0,0.77,0.14,-0.36,172.25,-4.9,2.0
4.64,0.0,0.0,0.0,0.25,0.0,0.0,0.0,0.0,0.0,0.0,0.0,0.0,0.0,0.08,-0.61,0.83,6.56,17.2,57.9,0.75,0.75,0.5,1.25,2.75,0.5,0.5,0.0,0.25,1.25,1.0,0.75,1.0,0.77,0.14,-0.36,170.38,-4.3,6.4
4.66,0.0,0.0,0.0,0.25,0.0,0.0,0.25,0.0,0.0,0.0,0.0,0.0,0.0,0.02,-0.61,0.77,4.01,21.9,48.3,1.0,0.75,0.5,1.25,2.75,0.5,0.5,0.0,0.25,1.5,1.0,0.75,1.0,0.83,0.14,-0.36,173.12,-4.4,6.4
4.68,0.0,0.0,0.25,0.5,0.0,0.0,0.25,0.0,0.0,0.0,0.0,0.0,0.0,-0.05,-0.61,0.77,4.98,25.2,54.7,0.75,0.75,0.25,1.25,2.5,0.5,0.5,0.0,0.25,1.5,1.0,0.75,0.75,0.83,0.2,-0.36,169.47,-3.6,4.7
4.7,0.75,0.0,1.0,0.25,0.0,0.0,0.5,0.0,0.0,0.0,0.25,0.0,0.0,-0.11,-0.67,0.7,17.78,31.8,54.5,0.75,0.75,0.25,1.25,2.75,0.5,0.5,0.0,0.25,1.25,1.0,0.75,1.25,0.83,0.2,-0.36,168.68,-3.1,2.5
4.72,0.0,0.0,0.75,0.25,0.0,0.0,0.5,0.0,0.0,0.0,0.0,0.0,0.0,-0.11,-0.61,0.7,21.58,32.8,54.0,0.5,0.75,0.25,1.25,2.75,0.5,0.75,0.0,0.25,1.25,1.0,0.75,1.5,0.83,0.2,-0.36,167.74,-2.4,-1.5
4.74,0.25,0.0,0.25,0.25,0.0,0.0,0.0,0.0,0.0,0.0,0.0,0.0,0.0,-0.11,-0.61,0.7,21.68,29.9,71.3,0.75,0.75,0.25,1.25,3.0,0.5,0.5,0.0,0.25,1.75,1.0,0.75,1.25,0.83,0.2,-0.3,172.04,-2.2,0.5
4.76,0.25,0.0,0.25,0.25,0.0,0.0,0.0,0.0,0.0,0.0,0.0,0.0,0.0,-0.11,-0.67,0.7,17.09,29.9,71.3,0.5,1.0,0.5,1.25,3.0,0.5,0.5,0.0,0.25,1.5,1.25,0.75,1.5,0.89,0.2,-0.3,177.57,-2.7,-0.1
4.78,0.25,0.0,0.25,0.25,0.0,0.0,0.0,0.0,0.0,0.0,0.0,0.0,0.0,-0.11,-0.67,0.7,14.59,29.9,71.3,0.75,1.0,0.5,1.25,2.75,0.5,0.5,0.0,0.25,1.5,1.0,0.75,1.25,0.89,0.2,-0.3,180.33,-3.6,4.2
4.8,0.25,0.0,0.25,0.25,0.0,0.0,0.0,0.0,0.0,0.0,0.0,0.0,0.0,-0.11,-0.61,0.64,14.0,29.9,71.3,0.75,0.75,0.5,1.25,2.25,0.5,0.5,0.0,0.25,1.25,1.25,0.75,1.0,0.89,0.2,-0.3,176.35,-4.8,2.1
4.82,0.25,0.0,0.25,0.25,0.0,0.0,0.0,0.0,0.0,0.25,0.0,0.0,0.0,-0.11,-0.61,0.64,15.18,18.5,34.7,0.5,0.75,0.5,1.25,2.75,0.5,0.5,0.0,0.25,1.5,1.0,0.75,1.0,0.89,0.2,-0.3,173.22,-3.2,2.7
4.84,1.0,0.0,0.5,0.25,0.0,0.0,0.0,0.0,0.0,0.0,0.0,0.0,0.0,-0.05,-0.61,0.7,22.09,33.2,80.6,0.5,1.0,0.5,1.25,2.5,0.5,0.5,0.0,0.25,1.25,1.0,0.75,1.25,0.83,0.14,-0.3,170.51,-3.6,2.8
4.86,2.25,0.0,0.25,0.5,0.0,0.0,0.25,0.0,0.0,0.5,0.25,0.0,0.0,-0.05,-0.61,0.7,38.63,24.3,53.1,0.5,1.0,0.25,1.25,2.75,0.5,0.5,0.0,0.25,1.0,0.5,0.75,1.25,0.83,0.2,-0.3,165.55,-2.7,8.1
4.88,2.0,0.0,0.25,0.5,0.0,0.0,0.25,0.0,0.0,0.0,0.25,0.0,0.0,-0.05,-0.61,0.7,49.57,30.1,71.0,1.0,0.75,0.5,1.25,2.75,0.5,0.5,0.0,0.25,1.25,1.0,0.75,0.75,0.83,0.2,-0.3,166.37,-5.3,10.9
4.9,1.0,0.0,0.0,0.25,0.0,0.0,0.0,0.0,0.0,0.0,0.0,0.0,0.0,-0.05,-0.61,0.77,46.57,31.0,89.1,1.25,0.5,0.5,1.0,3.25,0.5,0.5,0.0,0.25,1.5,1.0,0.75,1.25,0.83,0.2,-0.36,171.66,-3.8,4.9
4.92,1.25,0.0,0.0,0.25,0.0,0.0,0.25,0.0,0.0,0.25,0.0,0.0,0.0,-0.05,-0.61,0.77,41.75,25.1,63.2,0.5,0.75,0.25,1.25,2.75,0.5,0.5,0.0,0.25,1.5,1.0,0.75,1.25,0.83,0.2,-0.36,172.29,-2.0,-1.0
4.94,1.5,0.0,0.0,0.25,0.0,0.0,0.25,0.0,0.0,0.25,0.0,0.0,0.0,-0.05,-0.61,0.77,37.62,26.3,67.2,0.75,1.0,0.25,1.25,2.5,0.5,0.75,0.0,0.25,1.25,1.0,0.75,1.0,0.83,0.2,-0.3,170.95,-4.2,6.2
4.96,1.5,0.0,0.0,0.25,0.0,0.0,0.25,0.0,0.0,0.0,0.0,0.0,0.0,-0.05,-0.61,0.77,36.83,32.2,87.2,0.25,0.75,0.25,1.25,3.0,0.5,0.5,0.0,0.25,1.25,1.0,0.75,0.75,0.83,0.2,-0.3,166.08,-2.3,5.1
4.98,1.25,0.0,0.0,0.25,0.0,0.0,0.25,0.0,0.0,0.0,0.0,0.0,0.0,-0.05,-0.61,0.77,35.05,31.7,85.6,0.75,1.0,0.5,1.25,2.5,0.5,0.5,0.0,0.25,1.0,1.0,0.75,1.0,0.83,0.2,-0.3,164.19,-5.1,9.1
5.0,2.0,0.0,0.0,0.25,0.0,0.0,0.25,0.0,0.0,0.0,0.0,0.0,0.0,-0.05,-0.67,0.77,38.09,32.7,89.4,1.0,1.0,0.5,1.25,2.75,0.5,0.5,0.0,0.25,1.5,0.75,0.75,1.25,0.83,0.2,-0.3,167.97,-4.1,7.6
5.02,1.75,0.0,0.0,0.25,0.0,0.0,0.25,0.0,0.0,0.0,0.0,0.0,0.0,-0.05,-0.61,0.7,38.05,32.5,88.5,0.5,0.75,0.5,1.25,3.0,0.5,0.5,0.0,0.25,1.5,1.0,0.75,1.0,0.83,0.2,-0.3,171.78,-3.0,4.0
5.04,1.25,0.0,0.0,0.25,0.0,0.0,0.25,0.0,0.0,0.0,0.0,0.0,0.0,-0.05,-0.61,0.7,35.12,31.7,85.6,0.5,1.0,0.25,1.5,2.75,0.5,0.5,0.0,0.25,1.0,1.0,0.75,1.0,0.83,0.2,-0.3,172.64,-3.8,8.4
5.06,1.25,0.0,0.0,0.25,0.0,0.0,0.25,0.0,0.0,0.0,0.0,0.0,0.0,-0.11,-0.61,0.7,31.39,31.7,85.6,0.5,1.0,0.25,1.25,2.75,0.5,0.5,0.0,0.25,1.5,1.0,0.75,1.0,0.83,0.2,-0.3,171.36,-2.6,3.6
5.08,1.5,0.0,0.0,0.25,0.0,0.0,0.25,0.0,0.0,0.0,0.0,0.0,0.0,-0.11,-0.61,0.7,29.32,32.2,87.2,1.0,1.0,0.5,1.25,2.75,0.5,0.5,0.0,0.25,1.5,0.75,0.75,1.25,0.83,0.2,-0.3,173.91,-4.1,7.6
5.1,1.5,0.0,0.0,0.25,0.0,0.0,0.25,0.0,0.0,0.0,0.0,0.0,0.0,-0.11,-0.67,0.77,28.52,32.2,87.2,0.75,1.0,0.5,1.25,2.75,0.5,0.5,0.0,0.25,1.5,1.0,0.75,1.25,0.83,0.2,-0.3,176.27,-3.6,4.2
5.12,1.75,0.0,0.0,0.5,0.0,0.0,0.25,0.0,0.0,0.0,0.0,0.0,0.0,-0.05,-0.61,0.7,34.04,30.7,84.9,0.5,0.75,0.5,1.5,2.5,0.5,0.5,0.0,0.25,1.0,1.0,0.75,1.0,0.83,0.2,-0.3,172.97,-4.6,6.3
