time,left pressure 0[N/cm²],left pressure 1[N/cm²],left pressure 2[N/cm²],left pressure 3[N/cm²],left pressure 4[N/cm²],left pressure 5[N/cm²],left pressure 6[N/cm²],left pressure 7[N/cm²],left pressure 8[N/cm²],left pressure 9[N/cm²],left pressure 10[N/cm²],left pressure 11[N/cm²],left pressure 12[N/cm²],left acceleration X[g],left acceleration Y[g],left acceleration Z[g],left total force[N],left center of pressure X[mm],left center of pressure Y[mm],right pressure 0[N/cm²],right pressure 1[N/cm²],right pressure 2[N/cm²],right pressure 3[N/cm²],right pressure 4[N/cm²],right pressure 5[N/cm²],right pressure 6[N/cm²],right pressure 7[N/cm²],right pressure 8[N/cm²],right pressure 9[N/cm²],right pressure 10[N/cm²],right pressure 11[N/cm²],right pressure 12[N/cm²],right acceleration X[g],right acceleration Y[g],right acceleration Z[g],right total force[N],right center of pressure X[mm],right center of pressure Y[mm]
0.02,0.0,0.0,0.0,2.5,0.0,0.0,0.5,3.25,1.75,7.0,5.25,0.0,4.0,-0.11,0.08,0.95,276.24,-3.8,-58.2,2.75,0.25,2.25,0.5,2.75,0.0,0.5,0.0,0.0,0.0,0.0,0.25,0.0,0.52,0.45,2.33,232.01,-20.3,64.0
0.04,0.0,0.0,0.0,0.75,0.0,0.0,0.5,2.0,1.75,5.5,7.0,0.0,5.0,-0.11,0.08,0.95,307.65,-3.3,-71.4,1.75,0.0,1.0,0.0,0.5,0.0,0.25,0.0,0.0,0.0,0.0,0.25,0.0,0.7,-0.8,1.08,100.86,-27.9,63.6
0.06,0.0,0.0,0.0,1.25,0.0,0.0,0.5,2.0,0.75,6.25,5.75,0.0,3.5,-0.11,0.08,0.95,329.06,-4.1,-66.5,0.5,0.0,1.0,0.5,1.5,0.0,0.0,0.0,0.0,0.0,0.0,0.0,0.0,1.02,-0.55,1.39,0.0,-15.7,61.6
0.08,0.0,0.0,0.0,0.0,0.0,0.0,1.0,3.25,0.0,6.75,6.25,0.0,3.25,-0.11,0.08,0.95,334.04,-6.3,-72.8,0.75,0.0,0.75,0.5,1.0,0.0,0.0,0.0,0.0,0.0,0.0,0.0,0.0,0.7,-1.61,1.58,0.0,-18.7,65.9
0.1,0.0,0.0,0.0,1.5,0.0,0.0,1.0,3.5,0.75,6.5,6.25,2.5,4.25,-0.11,0.08,0.95,358.78,-3.1,-68.5,0.5,0.0,0.5,0.5,0.5,0.0,0.0,0.0,0.0,0.0,0.0,0.25,0.0,0.33,-0.55,1.14,0.0,-19.4,47.6
0.12,0.0,0.0,1.0,2.25,0.0,0.0,1.25,2.5,0.75,6.25,5.5,2.5,3.75,-0.11,0.08,0.95,368.33,-0.2,-58.9,0.5,0.0,0.25,0.5,0.5,0.0,0.0,0.0,0.0,0.0,0.0,0.0,0.0,0.39,-0.3,0.39,0.0,-18.2,67.1
0.14,0.0,0.0,1.0,2.5,0.0,0.0,1.5,3.25,1.75,5.5,0.0,2.5,3.25,-0.11,0.08,0.95,353.34,-1.7,-49.0,0.5,0.0,0.25,0.5,0.5,0.0,0.0,0.0,0.0,0.0,0.0,0.0,0.0,0.33,-0.23,0.64,0.0,-18.2,67.1
0.16,0.0,0.0,2.5,2.5,0.0,0.0,1.75,3.0,0.75,5.25,5.0,3.0,2.75,-0.11,0.08,0.95,353.67,3.3,-47.2,0.5,0.0,0.5,0.5,0.0,0.0,0.0,0.0,0.0,0.0,0.0,0.25,0.0,0.14,-0.23,0.83,0.0,-26.9,45.6
0.18,0.0,0.0,1.0,3.0,0.0,0.0,2.0,2.75,0.75,4.25,4.0,2.5,1.75,-0.11,0.08,0.95,326.9,2.8,-45.1,0.5,0.0,0.5,0.5,0.0,0.0,0.0,0.0,0.0,0.0,0.0,0.0,0.0,-0.11,-0.17,1.14,0.0,-29.9,71.3
0.2,0.0,0.0,2.0,4.25,0.0,0.0,2.25,2.25,0.75,4.0,3.75,1.75,2.0,-0.11,0.08,0.95,310.0,5.6,-31.6,0.0,0.0,0.25,0.5,0.0,0.0,0.0,0.0,0.0,0.0,0.0,0.25,0.0,-0.17,-0.05,1.14,0.0,-20.4,18.1
0.22,0.0,0.5,3.5,4.25,0.0,0.0,2.75,3.0,0.75,3.5,3.0,1.75,1.25,-0.11,0.08,0.95,299.12,8.5,-17.1,0.0,0.0,0.5,0.25,0.5,0.0,0.0,0.0,0.0,0.0,0.0,0.0,0.0,-0.17,0.08,1.2,0.0,-16.4,57.1
0.24,0.0,0.75,3.5,4.5,0.0,0.5,3.25,2.5,0.75,2.5,2.75,1.0,1.25,-0.11,0.08,0.95,293.21,9.9,-6.3,0.0,0.0,0.25,0.25,0.0,0.0,0.0,0.0,0.0,0.0,0.0,0.25,0.0,-0.11,0.14,1.52,0.0,-21.5,4.6
0.26,0.0,1.0,4.5,6.0,0.0,0.5,3.5,3.25,0.5,2.25,2.25,0.75,1.0,-0.11,0.14,0.95,293.37,11.4,5.6,0.0,0.0,0.25,0.0,0.0,0.0,0.0,0.0,0.0,0.0,0.0,0.0,0.0,-0.11,0.27,2.02,0.0,-38.2,60.9
0.28,0.0,1.0,5.75,6.75,0.0,0.75,4.25,2.25,0.5,1.25,2.0,0.75,0.75,-0.11,0.14,0.95,305.34,15.5,18.1,0.0,0.0,0.5,0.0,0.0,0.0,0.0,0.0,0.0,0.0,0.0,0.0,0.0,-0.05,0.45,2.45,1.99,-38.2,60.9
0.3,0.0,1.0,5.5,7.5,0.0,1.25,5.0,2.0,0.75,2.25,1.5,0.75,1.0,-0.11,0.14,0.95,328.55,13.8,16.2,0.0,0.0,0.5,0.0,0.0,0.0,0.0,0.0,0.0,0.0,0.0,0.25,0.0,0.14,0.64,2.83,2.29,-28.7,5.3
0.32,5.5,1.0,0.0,8.0,0.0,1.25,5.5,1.75,0.75,1.25,1.0,0.0,1.25,-0.11,0.14,0.95,335.41,14.2,32.7,0.0,0.0,0.25,0.0,0.0,0.0,0.0,0.0,0.0,0.0,0.0,0.0,0.0,0.14,1.33,2.95,1.7,-38.2,60.9
0.34,0.0,1.0,0.0,9.0,0.0,0.0,5.75,1.5,0.75,1.0,1.25,0.5,0.5,-0.11,0.14,1.02,310.68,13.0,19.2,0.0,0.0,0.0,0.0,0.0,0.0,0.0,0.0,0.0,0.0,0.0,0.0,0.0,-0.17,2.14,1.58,0.09,0.0,0.0
0.36,0.0,1.0,0.0,9.25,0.0,0.0,6.0,1.5,0.75,2.25,1.25,0.75,0.25,-0.11,0.14,1.02,295.01,11.6,13.9,0.0,0.0,0.25,0.0,0.0,0.0,0.0,0.0,0.0,0.0,0.0,0.25,0.0,-0.86,2.89,0.64,0.7,-23.8,-22.9
0.38,0.0,1.25,7.25,10.5,0.0,0.0,6.25,1.5,0.25,0.0,1.25,0.0,0.0,-0.11,0.14,1.02,308.25,22.5,44.4,0.0,0.0,0.25,0.0,0.0,0.0,0.0,0.0,0.0,0.0,0.0,0.25,0.0,-1.61,3.45,0.14,1.37,-23.8,-22.9
0.4,0.0,1.0,0.75,10.5,0.0,0.0,6.25,1.75,0.5,0.0,1.25,0.0,0.0,-0.17,0.2,1.02,296.4,16.5,35.8,0.0,0.0,0.5,0.0,0.0,0.0,0.0,0.0,0.0,0.0,0.0,0.0,0.0,-1.86,3.83,0.02,3.65,-38.2,60.9
0.42,0.0,1.25,9.25,10.5,0.0,0.0,6.25,0.75,0.5,0.0,1.0,0.25,0.75,-0.11,0.2,0.95,334.76,23.6,42.5,0.0,0.0,0.5,0.0,0.0,0.25,0.0,0.75,0.0,0.0,0.0,0.5,0.0,-0.48,0.64,0.58,13.53,-3.0,-22.1
0.44,0.0,1.25,9.5,10.5,0.0,0.0,6.25,0.75,0.5,0.0,0.75,0.0,0.0,-0.17,0.27,1.14,357.08,25.0,49.5,0.0,0.0,0.25,0.0,0.0,0.0,0.0,0.0,0.0,1.75,0.75,1.0,1.0,0.58,-0.42,1.52,40.91,3.1,-82.7
0.46,8.0,0.0,9.5,9.25,0.0,0.0,6.0,1.0,0.25,0.5,0.75,0.75,1.0,-0.17,0.27,1.2,419.24,25.6,47.9,0.0,0.0,0.25,0.0,0.0,0.0,0.0,0.25,0.0,3.25,1.5,3.0,2.75,0.2,-0.11,1.33,101.46,3.8,-89.6
0.48,7.75,0.0,9.5,9.5,0.0,0.0,6.0,0.5,0.0,0.5,1.0,0.0,0.25,-0.23,0.33,1.33,457.35,27.5,56.1,0.0,0.25,0.5,0.0,0.0,0.0,0.0,1.25,0.0,6.5,3.75,3.75,4.5,-0.55,0.39,2.27,198.0,4.4,-81.6
0.5,7.75,0.0,9.0,8.0,0.0,0.0,6.0,0.25,0.0,0.5,0.75,0.75,0.0,-0.48,0.45,1.77,479.93,28.2,55.1,0.0,0.25,0.25,0.0,0.0,1.0,0.0,3.25,0.0,7.75,6.0,3.0,4.5,0.45,0.39,1.83,288.14,6.1,-73.9
0.52,7.75,0.0,8.0,5.5,0.0,0.0,5.5,0.0,0.0,0.0,0.5,0.5,0.25,-0.55,0.7,2.02,448.37,30.2,59.6,0.0,0.25,0.0,0.75,1.5,3.0,0.0,5.25,0.25,7.75,6.25,3.5,3.5,0.02,0.2,1.14,387.51,6.6,-55.4
0.54,0.0,0.0,6.5,4.25,0.0,0.0,4.25,0.0,0.0,0.25,0.0,0.75,0.25,-0.67,0.89,2.45,357.26,27.5,41.0,1.0,1.0,0.5,1.5,0.0,5.0,0.0,5.5,1.0,8.75,6.75,3.75,4.0,0.08,0.14,0.95,503.05,4.8,-46.6
0.56,3.0,0.0,5.5,2.5,0.0,0.0,2.75,0.0,0.0,0.0,0.25,0.25,0.0,-0.48,0.7,2.58,282.38,31.6,59.0,1.5,1.25,1.5,2.0,3.5,5.75,0.25,6.25,1.0,8.25,8.0,3.5,4.5,0.14,0.08,0.95,631.69,3.0,-31.6
0.58,0.0,0.0,3.5,2.0,0.0,0.0,1.0,0.0,0.0,0.5,0.25,0.0,0.0,-0.67,0.2,2.33,199.54,26.6,43.0,2.0,1.25,2.75,3.25,4.5,6.25,1.25,6.25,1.25,7.75,7.25,3.0,4.0,0.14,0.08,0.95,746.23,0.9,-19.9
0.6,0.25,0.0,0.0,0.5,0.0,0.0,0.5,0.0,0.0,0.0,0.0,0.0,0.0,-0.48,-0.61,1.27,100.04,25.0,59.9,2.0,1.5,3.25,3.25,5.5,7.0,1.75,6.5,1.25,6.5,6.5,3.0,2.75,0.14,0.08,0.95,831.64,0.2,-11.4
0.62,1.0,0.0,0.75,0.5,0.0,0.0,0.0,0.0,0.0,0.0,0.0,0.0,0.0,-0.86,-0.73,0.7,20.16,31.9,75.7,2.0,1.75,3.25,3.25,6.5,7.5,2.5,6.25,1.0,5.75,5.25,2.25,2.75,0.14,0.08,0.95,874.86,0.4,-4.3
0.64,0.0,0.0,1.0,0.25,0.0,0.0,0.0,0.0,0.0,0.0,0.0,0.0,0.0,-0.61,-0.8,1.64,0.0,34.0,60.3,2.25,1.75,3.5,4.25,7.25,7.75,2.75,6.25,1.0,4.5,3.5,1.25,1.75,0.14,0.08,0.95,874.63,-0.3,8.1
0.66,0.75,0.0,2.0,2.5,0.0,0.0,0.5,0.0,0.5,0.5,0.75,0.0,0.25,-0.36,-0.67,0.77,0.0,20.8,27.9,2.25,2.0,4.0,5.25,7.5,8.0,2.75,5.75,0.75,1.75,3.0,1.0,1.25,0.14,0.08,0.95,840.75,-2.2,19.7
0.68,1.25,0.0,0.0,2.0,0.0,0.0,0.0,0.0,0.0,0.25,0.5,0.0,0.25,-0.42,-0.36,0.45,0.0,17.5,35.7,2.25,2.0,4.5,5.5,7.5,8.0,3.0,5.5,0.75,2.25,2.25,1.5,1.0,0.14,0.14,0.95,804.03,-2.7,20.5
0.7,1.25,0.0,0.75,2.0,0.0,0.0,0.25,0.0,0.25,0.0,0.75,0.25,0.5,-0.3,-0.36,0.45,0.0,19.7,23.3,2.25,2.0,5.5,5.5,8.25,8.0,2.5,5.5,0.5,2.0,2.0,0.75,1.0,0.14,0.14,0.95,771.61,-3.1,25.5
0.72,0.25,0.0,1.75,0.5,0.0,0.0,0.25,0.0,0.0,0.0,0.75,0.0,0.25,0.02,-0.36,0.89,6.21,25.7,22.7,2.0,1.0,3.5,5.0,7.75,7.75,2.0,4.5,0.25,0.25,1.5,0.25,0.75,0.14,0.14,1.02,685.84,-1.9,31.2
0.74,1.0,0.0,1.5,0.5,0.0,0.0,0.25,0.0,0.0,0.0,0.75,0.0,0.25,0.14,-0.3,1.14,21.42,26.5,33.1,2.0,0.0,4.25,5.25,7.5,7.75,1.5,4.25,0.0,0.25,0.75,0.25,0.0,0.14,0.14,0.95,600.23,-2.6,36.4
0.76,0.5,0.0,1.75,1.5,0.0,0.0,0.0,0.0,0.25,0.0,0.5,0.0,0.0,0.2,-0.17,1.2,36.55,26.3,43.8,2.0,0.0,3.75,6.0,8.25,7.75,1.25,3.25,0.0,0.75,0.75,1.0,0.0,0.14,0.14,0.95,532.03,-2.6,34.4
0.78,0.75,0.0,1.5,1.75,0.0,0.0,0.0,0.0,0.25,0.0,0.75,0.0,0.0,0.2,0.08,1.2,59.96,24.9,40.5,3.25,0.0,5.5,5.5,8.25,7.75,1.25,3.0,0.0,0.0,0.0,0.75,0.25,0.14,0.2,0.89,497.68,-5.4,42.4
0.8,0.75,0.0,1.0,1.0,0.0,0.0,0.0,0.0,0.5,0.0,0.0,0.0,0.0,0.2,0.14,1.39,63.59,26.8,52.8,2.0,0.0,5.25,5.5,8.0,7.75,0.25,3.0,0.0,0.0,0.25,0.25,0.0,0.08,0.2,0.89,467.34,-3.9,43.1
0.82,0.5,0.0,1.75,1.25,0.0,0.0,0.0,0.0,0.0,0.0,0.75,0.0,0.25,0.2,0.27,1.7,73.85,24.5,32.5,2.25,0.75,5.5,6.25,8.5,7.75,0.25,3.0,0.0,0.0,0.25,0.0,0.0,0.08,0.2,0.89,471.93,-4.7,46.3
0.84,0.0,0.0,1.75,1.25,0.0,0.0,0.0,0.0,0.0,0.0,1.0,0.0,0.25,0.08,0.33,2.2,75.07,22.7,19.4,3.0,1.25,7.0,7.25,9.75,7.75,0.75,3.0,0.0,0.0,0.75,0.0,1.0,0.08,0.2,0.95,521.22,-6.3,43.6
0.86,0.0,0.0,0.75,1.25,0.0,0.0,0.0,0.0,0.25,0.0,0.0,0.0,0.5,-0.11,0.52,2.52,64.07,16.9,19.9,3.5,1.25,6.25,7.25,8.75,7.75,1.25,1.5,0.0,0.0,0.0,0.25,0.0,0.08,0.2,0.89,548.41,-7.9,52.1
0.88,0.0,0.0,1.75,1.25,0.0,0.0,0.0,0.0,0.25,0.0,0.75,0.25,0.0,-0.23,0.83,3.02,62.06,24.1,21.7,4.25,1.5,7.0,8.25,9.0,7.75,1.5,1.5,0.0,0.0,0.25,0.25,0.0,0.08,0.2,0.89,595.76,-9.1,52.7
0.9,0.0,0.0,1.5,0.25,0.0,0.0,0.0,0.0,0.25,0.0,0.25,0.25,0.0,-0.3,1.52,2.89,49.99,28.1,21.3,5.25,1.75,7.25,9.0,9.5,7.75,3.0,1.5,0.0,0.0,0.0,0.25,0.0,0.08,0.2,0.95,649.33,-10.2,54.3
0.92,0.0,0.0,0.75,0.25,0.0,0.0,0.0,0.0,0.25,0.0,0.0,0.5,0.0,-0.05,2.77,1.39,42.19,23.3,-1.0,6.75,2.75,8.0,11.5,9.75,7.75,3.5,1.5,0.0,1.0,1.0,0.75,1.0,0.08,0.27,0.95,764.6,-10.7,47.2
0.94,0.0,0.0,1.5,1.25,0.0,0.0,0.0,0.0,0.0,0.0,0.0,0.25,0.0,0.7,3.14,0.77,39.07,27.0,46.0,7.5,2.5,8.75,11.0,9.75,7.25,5.25,1.5,0.0,0.25,0.75,0.25,1.0,0.08,0.27,1.02,864.48,-12.3,51.2
0.96,0.0,0.0,1.75,1.0,0.0,0.0,0.0,0.0,0.25,0.0,1.0,0.0,0.0,1.27,3.58,0.2,46.94,24.7,21.6,7.5,2.25,9.0,11.0,9.75,7.0,5.5,1.5,0.0,0.75,0.0,0.25,0.0,0.08,0.27,1.02,947.48,-12.9,54.7
0.98,0.0,0.0,0.5,0.5,0.0,0.0,0.0,0.0,0.0,0.0,0.75,0.5,0.25,1.08,4.02,-0.05,43.99,14.8,-30.1,8.25,2.25,9.5,11.0,9.75,6.25,5.75,1.5,0.0,0.0,0.75,0.25,1.0,0.08,0.27,1.08,989.15,-13.8,52.4
1.0,1.25,0.0,1.0,0.25,0.0,0.0,0.0,0.0,0.0,0.0,0.25,0.0,0.25,0.2,-0.73,0.33,45.64,28.3,49.2,8.75,2.5,9.5,11.0,8.75,5.0,5.5,0.25,0.0,0.0,0.0,0.25,0.0,0.02,0.33,1.2,970.05,-16.6,61.0
1.02,0.0,0.0,0.25,0.5,0.0,0.0,0.0,0.0,0.0,1.75,1.5,2.0,1.75,-0.8,-0.05,1.58,74.35,0.0,-78.7,8.75,2.25,9.5,11.0,7.75,3.75,5.75,0.0,0.0,0.0,0.0,0.25,0.0,0.08,0.39,1.27,921.02,-18.3,62.1
1.04,0.0,0.0,0.75,0.5,0.0,0.0,0.25,0.0,0.0,2.25,3.0,3.0,3.75,-0.11,0.27,1.64,132.1,0.9,-79.0,9.75,3.0,9.25,7.5,6.5,2.75,5.75,1.5,0.0,0.0,0.75,0.25,1.0,0.27,0.58,1.64,859.06,-18.1,55.4
1.06,0.0,0.0,0.5,0.5,0.0,0.0,0.0,0.0,0.25,4.75,2.75,0.0,4.25,0.02,0.27,1.83,177.72,-5.6,-75.5,9.0,2.0,8.0,5.0,4.5,1.75,5.25,0.0,0.0,0.0,0.0,0.0,0.0,0.2,0.77,2.02,718.29,-22.5,67.1
1.08,0.0,0.0,0.5,1.0,0.0,0.0,0.0,0.0,0.0,4.25,4.0,1.75,3.75,-0.17,0.2,1.52,220.89,-1.6,-74.3,8.25,1.25,5.5,3.25,2.5,1.5,4.0,0.0,0.25,1.0,0.0,0.25,0.0,0.52,1.02,1.89,549.18,-22.1,60.7
1.1,0.0,0.0,1.0,0.5,0.0,0.0,0.0,0.0,1.0,4.25,5.75,0.0,4.25,-0.11,0.2,1.2,249.75,-0.3,-69.7,6.75,0.25,3.75,2.5,2.25,2.0,2.5,0.0,0.0,0.0,0.0,0.25,0.0,0.45,0.77,2.14,384.58,-21.3,65.2
1.12,0.0,0.0,1.0,1.75,0.0,0.0,0.25,0.25,0.0,6.0,5.75,0.0,3.75,-0.11,0.08,0.95,272.28,-0.8,-60.8,4.5,0.25,3.5,0.75,2.25,0.5,0.5,0.0,0.0,0.0,0.0,0.25,0.0,0.52,0.33,2.27,259.04,-23.5,67.4
1.14,0.0,0.0,0.0,2.25,0.0,0.0,0.5,1.75,0.75,7.0,6.5,0.0,3.25,-0.11,0.08,0.95,297.59,-2.7,-60.9,2.0,0.25,1.75,0.5,1.75,2.75,0.0,1.0,0.0,1.0,0.0,0.75,0.0,0.64,-0.48,1.77,161.91,-4.6,29.5
1.16,0.0,0.0,0.75,2.0,0.0,0.0,0.5,3.25,0.0,7.0,6.25,0.0,4.5,-0.11,0.08,0.95,332.3,-3.7,-60.1,1.75,0.0,1.0,0.5,0.5,0.5,0.0,0.0,0.0,0.0,0.0,0.0,0.0,0.95,-0.36,0.7,53.73,-21.9,70.8
1.18,0.0,0.0,1.0,2.0,0.0,0.0,1.0,3.25,1.5,7.0,6.25,0.0,4.5,-0.11,0.08,0.95,365.33,-2.0,-56.9,2.0,0.75,1.0,2.0,1.0,2.75,0.0,0.0,0.0,0.25,0.0,0.25,0.0,1.14,-0.8,1.95,19.46,-8.5,54.6
1.2,0.0,0.0,0.75,2.5,0.0,0.0,1.0,3.25,1.25,6.5,6.0,0.0,4.25,-0.11,0.08,0.95,381.36,-1.9,-54.7,0.75,0.0,2.25,0.5,2.5,0.5,0.0,1.25,0.0,0.0,0.5,0.0,0.0,0.45,-0.55,1.02,0.0,-9.9,37.7
1.22,0.0,0.0,0.75,2.5,0.0,0.0,1.25,3.25,1.5,6.25,6.75,0.0,3.75,-0.11,0.08,0.95,388.38,-0.9,-53.5,2.0,1.0,2.25,1.25,2.75,2.75,0.0,1.25,0.25,0.75,0.75,0.75,0.75,0.33,-0.11,0.52,53.37,-5.5,25.2
1.24,0.0,0.0,0.75,2.5,0.0,0.0,1.75,3.25,1.5,0.0,6.0,0.0,0.0,-0.11,0.08,0.95,328.35,8.6,-27.0,0.5,0.25,2.75,0.5,0.0,0.25,0.0,0.0,0.0,0.0,0.0,0.0,0.0,0.39,-0.11,0.39,40.09,-30.4,65.4
1.26,0.0,0.0,0.75,2.5,0.0,0.0,2.0,3.25,1.5,5.25,5.75,3.0,2.75,-0.11,0.08,0.95,325.58,1.3,-54.9,0.5,0.0,0.75,0.5,0.0,0.25,0.0,0.0,0.0,0.0,0.0,0.25,0.0,0.33,-0.11,0.77,23.46,-23.0,46.2
1.28,0.0,0.0,1.25,2.5,0.0,0.0,2.0,3.25,1.5,5.75,5.75,2.75,3.0,-0.11,0.08,0.95,328.25,1.5,-53.1,0.5,0.25,0.25,0.5,0.25,0.5,0.0,0.0,0.0,0.0,0.0,0.0,0.0,0.27,-0.05,1.02,0.0,-11.7,65.6
1.3,0.0,0.0,1.0,2.5,0.0,0.0,2.25,3.25,1.5,6.25,0.0,3.0,3.0,-0.11,0.08,0.95,330.05,-1.4,-49.5,0.5,0.25,1.5,0.5,0.25,0.0,0.0,0.0,0.0,0.0,0.0,0.0,0.0,0.33,0.27,0.95,0.0,-28.1,68.5
1.32,0.0,0.0,2.5,2.5,0.0,0.0,2.75,3.25,1.75,5.75,0.0,3.0,2.5,-0.11,0.08,0.95,320.04,2.3,-39.1,0.5,0.0,0.5,0.5,0.25,0.0,0.0,0.0,0.0,0.0,0.0,0.0,0.0,0.39,0.39,0.95,0.0,-24.5,68.4
1.34,0.0,0.0,2.5,2.5,0.0,0.0,2.75,3.25,1.75,5.25,0.0,2.75,0.0,-0.11,0.08,0.95,293.84,4.8,-27.9,0.5,0.25,0.5,0.5,0.0,0.0,0.0,0.0,0.0,0.0,0.0,0.0,0.0,0.45,0.45,1.33,2.02,-27.3,75.3
1.36,0.0,0.0,3.25,2.5,0.0,0.0,3.25,3.25,1.5,5.25,4.25,2.5,2.5,-0.11,0.08,0.95,298.26,5.0,-39.2,0.5,0.25,0.75,0.5,0.0,0.0,0.0,0.0,0.0,0.0,0.0,0.0,0.0,0.39,0.58,1.52,9.63,-28.7,73.5
1.38,0.0,0.0,4.25,2.5,0.0,0.0,3.5,3.25,1.5,5.25,0.0,3.0,0.0,-0.11,0.08,0.95,285.63,8.0,-20.4,0.25,0.25,0.5,0.0,0.0,0.0,0.0,0.0,0.0,0.0,0.0,0.25,0.0,0.45,0.64,1.7,5.14,-26.5,41.8
1.4,3.75,0.0,4.25,4.0,0.0,0.25,3.75,3.25,1.75,4.25,0.0,2.5,2.5,-0.11,0.08,0.95,314.71,10.6,-5.6,0.5,0.25,0.5,0.0,0.0,0.0,0.0,0.0,0.0,0.0,0.0,0.0,0.0,0.52,0.77,1.77,3.89,-31.7,82.7
1.42,0.0,0.0,0.0,4.25,0.0,0.5,4.25,3.25,1.5,4.0,0.0,1.75,1.75,-0.11,0.08,0.95,293.64,1.2,-28.3,0.5,0.25,0.5,0.0,0.0,0.0,0.0,0.0,0.0,0.0,0.0,0.0,0.0,0.58,0.77,2.02,0.0,-31.7,82.7
1.44,0.0,0.25,5.5,4.75,0.0,0.5,5.0,3.25,1.5,3.5,0.0,1.75,1.5,-0.11,0.08,0.95,308.33,10.8,-2.6,0.5,0.25,0.25,0.25,0.0,0.0,0.0,0.0,0.0,0.0,0.0,0.0,0.0,0.58,0.89,2.33,0.11,-27.2,82.0
1.46,5.5,0.75,6.75,6.25,4.0,1.0,5.0,3.25,1.5,2.25,0.0,1.25,1.25,-0.11,0.14,0.95,371.8,14.3,29.7,0.0,0.25,0.5,0.0,0.0,0.0,0.0,0.0,0.0,0.0,0.0,0.25,0.0,-0.55,1.45,1.83,0.63,-24.6,29.0
1.48,6.0,0.5,6.75,6.25,0.0,1.25,5.5,3.25,1.75,2.25,0.0,1.0,1.0,-0.11,0.14,0.95,431.57,17.3,28.4,1.25,0.75,0.5,0.0,0.0,0.0,0.0,0.0,0.0,0.0,0.0,0.25,0.0,-0.11,1.39,1.27,24.13,-26.8,72.0
1.5,5.75,0.75,7.25,7.25,4.0,1.25,5.5,4.75,0.75,2.25,1.5,0.75,1.25,-0.11,0.14,0.95,519.98,13.5,27.9,1.25,1.0,0.0,0.5,0.0,2.0,0.0,0.0,0.0,0.0,0.0,0.0,0.75,-0.3,1.52,0.95,49.73,-1.6,42.0
1.52,6.5,1.0,7.25,7.75,5.75,2.0,5.75,2.5,0.75,2.25,0.75,0.75,1.25,-0.11,0.14,1.02,603.83,14.2,36.5,1.25,1.25,0.75,0.5,2.25,0.25,0.0,1.25,0.0,0.0,0.75,0.75,1.0,-1.17,2.39,0.77,96.64,-5.9,16.2
1.54,6.5,1.0,7.5,8.0,6.25,2.0,6.0,2.5,0.75,2.25,0.0,0.75,1.25,-0.11,0.14,1.02,678.79,14.3,38.9,0.5,0.25,0.75,0.5,0.0,0.5,0.0,0.0,0.0,0.0,0.0,0.0,0.0,-1.42,2.39,0.45,95.84,-19.0,66.0
1.56,7.25,1.0,8.0,9.0,0.0,2.0,6.0,1.75,0.5,2.25,0.0,0.75,1.0,-0.11,0.14,1.08,667.51,19.4,41.2,0.0,0.25,0.25,0.0,0.0,0.0,0.0,0.0,0.0,1.5,0.0,0.75,0.0,-1.36,3.58,2.14,89.92,1.3,-55.7
1.58,0.0,1.0,8.0,9.0,0.0,1.75,6.0,1.5,0.5,2.25,0.25,0.0,0.25,-0.17,0.2,1.08,591.9,17.5,35.4,0.0,0.0,0.5,0.0,0.0,0.0,0.0,0.25,0.0,1.5,0.75,1.0,0.75,-1.42,3.02,1.08,81.39,0.4,-71.5
1.6,7.0,1.0,8.25,9.0,0.0,0.75,5.5,1.5,0.25,0.0,0.5,0.25,1.0,-0.17,0.2,1.14,537.19,23.7,51.2,0.0,0.0,0.25,0.0,0.0,0.0,0.0,1.25,0.0,5.25,1.0,2.5,3.25,0.7,-0.11,1.45,131.11,7.8,-84.3
1.62,6.75,1.0,7.75,7.75,0.0,0.5,5.0,1.5,0.0,0.0,0.75,0.0,0.0,-0.3,0.27,1.39,479.68,25.5,57.6,0.0,0.0,0.0,0.0,0.0,0.0,0.0,1.5,0.0,8.0,3.25,3.75,5.75,0.77,0.33,2.2,219.77,7.3,-87.9
1.64,0.0,1.0,8.0,7.0,0.0,0.0,4.5,0.75,0.0,0.5,1.0,0.5,0.0,-0.3,0.27,1.95,400.19,24.1,41.6,0.0,0.25,0.0,0.0,0.0,0.25,0.0,4.25,0.0,9.0,5.75,3.75,6.75,-0.05,0.45,2.52,325.33,7.2,-80.1
1.66,6.25,0.0,6.75,4.5,0.0,0.0,3.5,0.5,0.0,0.75,0.0,0.25,0.0,-0.3,0.33,2.45,345.81,28.4,58.5,0.0,0.0,0.5,0.0,0.5,2.75,0.0,6.25,0.0,9.25,6.25,4.25,6.25,0.27,0.33,1.77,452.12,7.7,-67.3
1.68,5.75,0.0,5.5,3.25,0.0,0.0,2.25,0.75,0.0,0.5,0.0,0.0,0.0,-0.23,0.7,2.95,280.76,28.5,61.4,1.0,0.0,0.5,0.0,0.0,4.25,0.0,7.0,0.0,9.25,6.25,3.25,5.75,0.14,0.08,1.14,555.62,7.8,-58.8
1.7,0.0,0.0,3.75,2.5,0.0,0.0,1.25,0.0,0.0,0.5,0.5,0.0,0.0,-0.17,0.77,2.58,195.94,26.0,40.8,1.0,0.0,0.25,0.75,2.75,5.5,0.0,7.75,0.25,10.5,8.0,4.25,6.75,0.14,0.14,1.02,680.67,7.1,-50.5
1.72,0.0,0.0,0.0,0.0,0.0,0.0,0.0,0.0,0.0,0.0,0.0,0.0,0.0,-0.48,-0.36,1.77,83.08,0.0,0.0,1.25,1.25,0.5,0.5,2.75,5.75,0.0,7.5,0.25,10.5,8.0,4.25,6.75,0.14,0.14,0.95,772.59,6.3,-45.6
1.74,0.0,0.0,0.0,0.0,0.0,0.0,0.0,0.0,0.0,0.0,0.0,0.0,0.0,-0.36,-1.23,0.2,0.0,0.0,0.0,0.5,0.75,1.0,0.5,2.5,6.0,0.0,7.75,0.5,9.0,7.75,4.0,6.25,0.14,0.08,0.95,825.04,6.4,-46.1
1.76,0.0,0.0,0.0,1.75,0.0,0.0,0.0,0.0,0.0,0.0,0.0,0.0,0.0,0.2,-1.8,1.52,0.0,17.2,57.9,1.25,0.0,0.75,0.75,2.75,6.25,0.0,7.75,0.5,9.5,7.5,3.75,6.25,0.14,0.08,0.95,842.53,6.6,-45.2
1.78,0.0,0.0,1.0,0.5,0.0,0.0,0.25,0.0,0.0,0.0,1.0,0.0,0.0,-0.11,-0.98,1.33,0.0,23.7,8.8,1.0,1.0,0.0,0.5,3.0,6.25,0.0,7.75,0.5,9.25,7.0,3.75,5.75,0.08,0.08,0.95,833.92,7.3,-43.2
1.8,0.25,0.0,0.0,0.5,0.0,0.0,0.0,0.0,0.0,0.0,0.0,0.0,0.0,-0.11,-1.11,0.7,0.0,22.6,70.2,1.0,1.0,1.0,0.75,2.25,6.0,0.0,7.75,0.5,9.0,6.75,3.5,5.75,0.08,0.08,0.95,795.75,6.2,-41.8
1.82,0.0,0.0,0.0,0.25,0.0,0.0,0.0,0.0,0.0,0.0,0.0,0.0,0.0,2.45,7.89,-6.36,0.0,17.2,57.9,0.75,0.25,0.5,0.5,2.75,6.0,0.0,7.75,0.5,9.0,6.5,3.5,5.75,0.14,0.08,0.95,746.49,7.5,-45.4
1.84,1.0,0.0,0.5,0.5,0.0,0.0,0.0,0.0,0.0,0.0,0.0,0.0,0.0,-0.67,0.64,2.08,0.0,31.1,77.6,1.0,1.25,1.0,0.5,2.25,5.5,0.0,7.75,0.25,9.0,6.25,3.75,5.75,0.14,0.08,0.95,703.63,6.3,-42.4
1.86,0.0,0.0,0.75,0.75,0.0,0.0,0.5,0.0,0.0,0.0,0.0,0.0,0.0,-0.05,-1.73,2.27,0.0,28.2,55.1,1.25,1.25,1.25,0.5,2.5,5.0,0.0,7.5,0.5,9.0,6.75,3.75,5.75,0.14,0.08,0.95,672.92,5.3,-41.6
1.88,1.5,0.0,1.0,1.0,0.0,0.0,0.25,0.0,0.25,0.75,0.25,0.25,0.25,0.45,0.64,-1.42,0.0,19.2,23.1,1.0,1.0,1.0,0.5,1.0,5.0,0.0,7.25,0.25,9.25,6.0,3.75,5.25,0.14,0.08,0.89,632.82,6.3,-46.7
1.9,1.75,0.0,1.0,0.25,0.0,0.0,0.0,0.0,0.0,0.0,0.0,0.0,0.0,0.2,0.89,-0.8,20.68,34.5,81.3,0.75,1.0,0.25,0.5,3.0,5.0,0.0,7.75,0.25,9.25,6.75,3.75,6.25,0.14,0.08,0.89,625.18,7.1,-46.0
1.92,2.0,0.0,1.5,1.25,0.0,0.0,0.25,0.0,0.0,1.0,0.5,0.0,0.5,0.08,1.33,-1.23,65.01,19.4,27.4,0.75,1.25,1.0,0.5,1.25,5.0,0.0,7.75,0.5,9.25,6.75,4.0,6.0,0.08,0.08,0.95,617.39,6.1,-47.8
1.94,1.0,0.0,1.75,0.75,0.0,0.0,0.0,0.0,0.0,0.5,0.5,0.0,0.5,0.02,1.02,-1.8,85.44,21.0,23.0,1.25,1.25,1.25,0.75,3.0,5.0,0.0,7.75,0.25,9.25,7.0,4.0,6.25,0.08,0.08,0.95,630.9,5.3,-41.3
1.96,0.25,0.0,1.5,1.25,0.0,0.0,0.0,0.0,0.0,0.5,0.0,0.0,0.0,-2.05,0.89,-1.23,91.74,22.8,43.2,1.0,0.75,1.25,0.5,2.25,5.0,0.0,7.75,0.5,9.0,7.5,4.0,6.25,0.14,0.08,0.95,644.76,5.5,-46.2
1.98,0.75,0.0,1.5,1.25,0.0,0.0,0.0,0.0,0.0,0.5,0.5,0.0,0.5,-0.17,1.27,0.27,88.89,19.0,21.3,1.0,1.25,1.0,0.5,2.5,5.0,0.0,8.0,0.5,9.0,7.25,3.75,6.0,0.14,0.08,0.95,659.64,5.7,-43.6
2.0,0.0,0.0,1.5,1.0,0.0,0.0,0.0,0.0,0.0,0.5,0.5,0.0,0.5,0.08,0.58,0.27,82.23,16.4,5.8,1.0,1.25,1.0,0.5,2.5,5.5,0.0,7.75,0.75,8.5,7.0,3.75,5.75,0.08,0.08,0.95,656.97,5.7,-41.9
2.02,0.5,0.0,1.25,0.5,0.0,0.0,0.0,0.0,0.0,0.5,0.5,0.0,0.5,0.14,0.64,0.08,76.55,17.1,6.2,0.0,0.25,1.5,0.5,2.5,5.0,0.0,7.75,0.25,7.5,6.0,3.0,5.75,0.08,0.08,0.95,625.1,7.0,-45.5
2.04,0.75,0.0,1.5,0.5,0.0,0.0,0.25,0.0,0.0,0.5,0.25,0.0,0.5,0.14,0.77,-0.11,74.06,20.3,20.2,0.25,0.25,0.5,1.0,1.0,5.75,0.0,7.25,0.25,7.25,5.75,3.0,3.75,0.08,0.08,0.95,567.49,7.7,-45.3
2.06,0.25,0.0,1.5,2.0,0.0,0.0,0.5,0.0,0.0,0.5,0.0,0.0,0.5,0.02,1.27,-0.67,78.0,18.7,29.3,0.75,1.25,0.5,0.5,3.25,6.25,0.25,7.25,1.0,7.75,5.25,3.0,2.75,0.08,0.08,0.95,531.96,6.6,-31.8
2.08,1.25,0.0,1.25,1.25,0.0,0.0,0.5,0.0,0.0,0.5,0.5,0.0,0.5,-0.23,1.7,-0.3,81.52,20.1,26.2,0.5,0.5,2.75,1.25,4.25,6.25,1.5,7.5,0.25,5.75,4.25,1.5,2.5,0.08,0.08,0.95,503.27,4.3,-17.2
2.1,1.0,0.0,1.0,0.75,0.0,0.0,0.5,0.0,0.0,0.5,0.25,0.0,0.5,-0.23,1.52,0.14,79.64,19.0,22.0,0.75,0.25,1.5,2.5,4.5,6.75,1.75,6.25,0.25,4.5,3.25,1.0,1.75,0.08,0.08,0.95,472.82,4.5,-8.0
2.12,1.0,0.0,0.75,1.0,0.0,0.0,0.25,0.0,0.0,0.5,0.0,0.0,0.5,-0.11,1.27,0.27,73.43,17.8,27.8,2.0,0.5,2.75,3.25,5.5,7.0,3.25,5.75,0.25,2.75,2.0,0.5,1.0,0.08,0.08,0.95,462.35,0.2,12.9
2.14,1.5,0.0,0.75,1.0,0.0,0.0,0.25,0.0,0.0,0.5,0.25,0.0,0.5,-0.05,1.14,0.2,72.27,19.1,29.4,3.75,1.0,3.5,5.0,6.75,7.0,4.5,5.25,0.0,1.5,1.0,0.25,0.5,0.08,0.08,1.02,478.3,-3.9,31.1
2.16,1.25,0.0,0.25,0.5,0.0,0.0,0.25,0.0,0.0,0.5,0.5,0.0,0.5,-0.05,1.27,0.2,64.02,15.1,9.1,4.5,0.0,6.0,5.5,6.75,6.75,6.0,4.25,0.0,1.5,2.0,0.25,1.0,0.14,0.14,1.08,524.61,-7.5,30.1
2.18,0.5,0.0,0.75,0.25,0.0,0.0,0.25,0.0,0.0,0.75,0.5,0.0,0.5,-0.11,1.33,0.2,60.12,12.0,-11.4,5.5,1.0,7.5,7.25,6.75,6.25,6.75,4.25,0.0,0.25,0.75,0.25,0.0,0.08,0.14,1.14,587.52,-11.3,44.5
2.2,0.0,0.0,0.75,0.25,0.0,0.0,0.25,0.0,0.0,0.75,0.0,0.25,0.0,0.14,1.08,0.45,48.88,13.1,-8.5,6.75,1.25,8.75,7.25,7.75,5.0,7.25,3.0,0.0,0.0,0.75,0.0,0.5,0.08,0.2,1.08,658.75,-13.9,49.1
2.22,0.0,0.0,0.75,1.0,0.0,0.0,0.25,0.0,0.0,0.5,0.5,0.25,0.0,0.27,0.77,0.58,44.53,16.0,2.9,8.0,1.75,9.25,7.5,6.75,3.25,7.75,3.0,0.0,0.25,0.75,0.25,0.5,0.02,0.27,0.89,713.64,-16.4,49.9
2.24,0.0,0.0,0.75,1.0,0.0,0.0,0.25,0.0,0.0,0.5,0.25,0.0,0.0,0.14,0.64,0.02,40.35,17.2,20.5,8.75,2.0,10.5,7.75,5.25,2.5,8.0,1.5,0.0,0.0,0.25,0.25,0.0,0.02,0.33,0.95,735.86,-20.6,58.5
2.26,1.0,0.0,0.75,1.0,0.0,0.0,0.25,0.0,0.0,0.75,0.5,0.0,0.0,-0.3,0.83,-0.3,47.83,18.8,26.5,9.5,2.25,11.5,7.25,4.25,0.0,8.5,1.75,0.0,0.0,0.5,0.25,0.0,0.02,0.33,1.08,735.88,-24.1,59.4
2.28,1.25,0.0,0.75,0.5,0.0,0.0,0.0,0.0,0.0,0.0,0.0,0.0,0.0,-0.11,0.77,-0.05,45.67,32.2,77.8,10.5,2.75,12.0,5.5,1.75,0.0,8.5,1.5,0.0,0.25,0.5,0.25,0.0,0.02,0.39,1.52,704.86,-26.8,61.1
2.3,0.25,0.0,0.75,1.0,0.0,0.0,0.25,0.0,0.0,0.25,0.5,0.0,0.0,0.33,0.27,-0.17,46.24,20.9,26.9,10.5,2.75,11.5,4.5,2.5,0.0,8.75,1.25,0.0,0.0,0.25,0.25,0.0,0.14,0.39,1.89,663.74,-26.9,63.4
2.32,0.75,0.0,1.25,0.5,0.0,0.0,0.0,0.0,0.0,0.5,0.5,0.0,0.0,-0.11,0.83,-1.05,47.9,22.9,29.4,10.5,2.75,9.5,3.25,0.0,0.0,8.5,1.5,0.0,0.0,0.25,0.25,0.0,-0.05,0.58,2.52,590.17,-28.9,64.0
2.34,0.5,0.0,0.75,0.75,0.0,0.0,0.25,0.0,0.0,0.5,0.0,0.0,0.0,0.64,-0.23,-0.98,47.6,20.9,39.2,9.75,2.25,8.25,2.25,2.5,0.0,8.25,1.75,0.0,0.0,0.25,0.25,0.0,0.39,0.58,2.14,527.19,-25.7,61.3
2.36,0.5,0.0,1.0,0.0,0.0,0.0,0.0,0.0,0.0,0.5,0.5,0.0,0.0,0.27,-0.11,-1.17,44.56,21.4,13.7,8.75,1.25,7.0,0.5,0.25,0.0,6.75,1.5,0.0,0.0,0.5,0.25,0.0,0.2,0.58,2.14,419.29,-29.3,60.1
2.38,0.0,0.0,0.75,0.5,0.0,0.0,0.0,0.0,0.0,0.75,0.0,0.0,0.0,-0.36,0.7,0.2,39.1,13.0,10.1,7.0,0.75,5.5,0.5,0.0,0.0,4.5,1.25,0.0,0.0,0.0,0.25,0.0,0.14,0.27,2.45,321.88,-30.0,62.7
2.4,0.75,0.0,0.75,0.75,0.0,0.0,0.0,0.0,0.0,0.75,0.75,0.0,0.25,-0.11,-0.23,-1.73,46.58,15.0,5.3,4.25,0.0,3.0,0.0,0.0,4.5,2.5,0.75,0.0,1.0,0.0,0.75,0.0,0.27,-1.05,1.27,244.46,-11.8,37.8
2.42,1.5,0.0,1.0,0.5,0.0,0.0,0.0,0.0,0.25,0.5,0.0,0.0,0.25,-0.48,-0.42,-1.3,53.88,22.5,39.0,2.25,0.0,2.25,0.0,0.0,0.25,1.0,1.25,0.0,1.5,0.25,0.0,0.0,-0.17,-1.11,-0.92,156.44,-16.0,23.1
2.44,1.5,0.0,0.75,0.75,0.0,0.0,0.0,0.0,0.0,0.75,0.75,0.0,0.25,-0.36,0.02,-2.05,65.99,18.0,19.1,2.25,0.0,2.5,0.0,0.0,0.0,0.5,1.5,0.0,0.0,0.0,0.0,0.0,-2.86,-1.3,-1.42,79.18,-24.1,48.5
2.46,0.75,0.0,1.0,1.0,0.0,0.0,0.0,0.0,0.0,0.5,0.75,0.0,0.25,-1.55,1.83,-0.36,70.4,18.4,16.6,2.0,0.25,2.0,0.0,0.0,0.0,0.25,1.25,0.0,0.0,0.0,0.0,0.0,-1.3,2.7,-0.67,21.7,-23.4,51.9
2.48,0.25,0.0,0.75,0.75,0.0,0.0,0.0,0.0,0.0,0.5,0.75,0.0,0.25,-0.55,1.2,-0.23,67.56,14.5,-1.6,2.0,0.25,1.75,0.0,0.0,0.0,0.25,1.25,0.0,0.0,0.0,0.0,0.0,-0.05,2.58,-2.36,0.0,-22.7,51.5
2.5,0.25,0.0,1.25,0.5,0.0,0.0,0.0,0.0,0.0,0.5,0.75,0.0,0.5,0.2,-1.48,-1.11,63.8,15.6,-4.6,2.0,0.25,1.75,0.0,0.0,0.0,0.25,1.5,0.0,0.0,0.0,0.0,0.0,0.39,2.52,-0.48,0.0,-20.9,47.4
2.52,0.0,0.0,1.25,0.5,0.0,0.0,0.0,0.0,0.0,0.5,0.75,0.0,0.25,0.64,-1.67,-1.8,59.52,16.6,-3.6,2.0,0.25,1.5,0.0,0.0,0.0,0.25,1.25,0.0,0.0,0.25,0.0,0.0,-0.05,1.14,0.2,0.0,-21.4,45.2
2.54,1.5,0.0,0.75,0.5,0.0,0.0,0.0,0.0,0.0,0.5,0.75,0.0,0.5,1.64,0.39,-1.05,63.15,18.1,14.7,2.0,0.25,1.5,0.0,0.0,0.0,0.0,1.25,0.0,0.0,0.0,0.0,0.0,0.39,-0.67,-0.67,0.34,-21.7,51.6
2.56,1.25,0.0,0.75,0.75,0.0,0.0,0.0,0.0,0.0,0.5,0.0,0.0,0.0,1.14,0.14,-0.92,61.4,23.5,52.4,1.75,0.25,1.75,0.0,0.0,0.0,0.0,1.5,0.0,0.0,0.0,0.0,0.0,2.64,-1.05,-0.92,15.9,-20.0,45.6
2.58,1.25,0.0,1.0,0.5,0.0,0.0,0.0,0.0,0.0,0.75,0.75,0.0,0.25,-0.55,0.77,-0.98,67.46,18.3,15.1,1.5,0.0,1.5,0.0,0.0,0.0,0.0,1.25,0.0,0.0,0.0,0.0,0.0,0.64,1.02,0.2,25.02,-20.7,43.5
2.6,0.25,0.0,0.75,0.25,0.0,0.0,0.25,0.0,0.0,0.0,0.0,0.0,0.0,-0.92,0.64,-0.86,53.27,33.2,63.7,1.5,0.0,1.5,0.0,0.0,0.0,0.0,1.25,0.0,0.0,0.0,0.0,0.0,-0.17,2.14,-0.3,39.13,-20.7,43.5
2.62,0.0,0.0,0.0,0.5,0.0,0.0,0.0,0.0,0.0,0.25,0.0,0.0,0.0,-0.61,0.64,-0.67,36.58,6.5,14.7,1.25,0.0,0.75,0.0,0.0,0.0,0.25,1.0,0.0,0.0,0.25,0.0,0.0,-0.11,2.64,-1.3,42.56,-18.2,32.5
2.64,0.5,0.0,0.5,1.0,0.0,0.0,0.0,0.0,0.0,0.5,0.0,0.0,0.25,-0.23,0.64,-0.86,29.58,15.3,25.7,2.0,1.0,2.75,0.5,2.25,1.75,0.5,1.5,0.25,1.5,1.0,0.5,0.75,-1.36,2.64,-0.92,114.17,-7.1,18.2
2.66,0.25,0.0,0.75,1.0,0.0,0.0,0.5,0.0,0.0,0.5,0.5,0.0,0.25,-0.3,0.64,-0.86,34.76,16.2,9.7,1.0,0.0,0.75,0.0,0.0,0.0,0.25,1.0,0.0,0.0,0.0,0.0,0.0,-2.42,1.7,0.39,109.57,-17.4,36.4
2.68,0.0,0.0,0.75,0.5,0.0,0.0,0.0,0.0,0.0,0.5,0.5,0.0,0.25,-0.55,0.64,-0.8,37.27,12.7,-9.9,0.75,0.0,0.5,0.0,0.0,0.0,0.0,1.0,0.0,0.0,0.25,0.0,0.0,-1.48,1.14,0.27,100.09,-12.2,17.4
2.7,0.0,0.0,0.75,0.5,0.0,0.0,0.0,0.0,0.0,0.5,0.5,0.0,0.25,-0.67,0.52,-0.8,39.84,12.7,-9.9,0.5,0.0,0.5,0.0,0.0,0.0,0.0,0.5,0.0,0.0,0.0,0.0,0.0,-0.61,0.7,-0.17,61.18,-18.6,38.9
2.72,0.25,0.0,0.75,0.5,0.0,0.0,0.25,0.0,0.0,0.5,0.5,0.0,0.25,-0.48,0.39,-0.86,41.64,15.3,0.3,1.25,0.0,0.5,0.0,0.0,0.0,0.0,0.75,0.0,0.0,0.0,0.0,0.0,-0.86,0.77,0.14,43.85,-19.7,47.9
2.74,0.0,0.0,0.75,0.25,0.0,0.0,0.0,0.0,0.0,0.5,0.75,0.0,0.25,-0.55,0.52,-0.92,38.59,12.1,-23.2,0.75,0.0,0.75,0.0,0.0,0.0,0.0,0.25,0.0,0.0,0.0,0.0,0.0,-1.05,0.58,0.45,23.87,-28.9,61.5
2.76,0.0,0.0,0.75,0.75,0.0,0.0,0.0,0.0,0.0,0.5,0.75,0.0,0.25,-0.8,0.58,-0.98,40.47,13.0,-9.2,0.75,0.0,1.0,0.0,0.0,0.0,0.0,0.5,0.0,0.0,0.0,0.0,0.0,-0.8,0.45,0.02,26.08,-24.9,50.2
2.78,0.0,0.0,0.75,0.0,0.0,0.0,0.0,0.0,0.0,0.5,0.75,0.0,0.25,-0.8,0.45,-0.98,38.31,11.5,-32.7,0.75,0.0,0.75,0.0,0.0,0.0,0.0,0.5,0.0,0.0,0.0,0.0,0.0,-0.67,0.45,-0.23,26.22,-23.1,48.8
2.8,0.0,0.0,0.75,0.5,0.0,0.0,0.0,0.0,0.0,0.5,0.75,0.0,0.25,-0.48,0.39,-0.92,40.83,12.6,-15.6,0.5,0.0,0.5,0.0,0.0,0.0,0.0,0.5,0.0,0.0,0.0,0.0,0.0,-0.67,0.58,-0.36,20.54,-18.6,38.9
2.82,1.0,0.0,0.75,0.5,0.0,0.0,0.0,0.0,0.0,0.5,0.75,0.0,0.25,-0.23,0.58,-0.8,47.02,18.2,12.9,0.75,0.25,0.5,0.0,0.0,0.0,0.0,0.25,0.0,0.0,0.25,0.0,0.0,-0.73,0.83,-0.36,19.48,-23.3,49.6
2.84,0.25,0.0,0.75,0.5,0.0,0.0,0.0,0.0,0.0,0.5,0.5,0.0,0.25,-0.3,0.64,-0.55,50.23,14.6,-0.8,0.5,0.0,0.5,0.0,0.0,0.0,0.0,0.75,0.0,0.0,0.0,0.0,0.0,-0.8,0.83,-0.48,16.92,-13.5,27.7
2.86,0.0,0.0,0.75,1.0,0.0,0.0,0.0,0.0,0.0,0.25,0.5,0.0,0.25,-0.42,0.58,-0.42,49.96,16.1,8.5,0.75,0.0,0.5,0.0,0.0,0.0,0.0,0.5,0.0,0.0,0.0,0.0,0.0,-0.8,0.77,-0.23,16.15,-20.8,46.9
2.88,0.0,0.0,0.75,0.5,0.0,0.0,0.0,0.0,0.0,0.75,0.75,0.0,0.25,-0.3,0.39,-0.36,47.22,10.2,-20.5,0.75,0.0,0.5,0.0,0.0,0.0,0.0,0.0,0.0,0.0,0.25,0.0,0.0,-0.86,1.02,-0.11,12.72,-32.1,56.0
2.9,0.0,0.0,0.75,0.0,0.0,0.0,0.0,0.0,0.0,0.5,0.75,0.0,0.0,-0.36,0.2,-0.17,41.58,14.7,-22.7,0.5,0.0,0.5,0.0,0.0,0.0,0.0,0.5,0.0,0.0,0.0,0.0,0.0,-0.73,0.95,0.02,25.28,-18.6,38.9
2.92,0.0,0.0,0.75,0.5,0.0,0.0,0.25,0.0,0.0,0.75,0.75,0.0,0.25,-0.36,0.08,0.02,42.83,11.1,-18.7,0.5,0.25,0.5,0.0,0.0,0.0,0.0,0.25,0.0,0.0,0.0,0.0,0.0,-0.48,1.02,0.08,24.78,-23.5,62.3
2.94,1.0,0.0,0.75,0.0,0.0,0.0,0.0,0.0,0.0,0.5,0.5,0.0,0.25,-0.23,0.08,0.33,43.84,19.0,12.1,0.5,0.0,0.25,0.0,0.0,0.0,0.0,0.5,0.0,0.0,0.0,0.0,0.0,-0.36,1.08,0.02,22.91,-14.5,34.3
2.96,1.0,0.0,0.75,0.5,0.0,0.0,0.0,0.0,0.0,0.5,0.75,0.0,0.25,-0.11,0.02,0.14,50.73,18.2,12.9,0.5,0.0,0.25,0.0,0.0,0.0,0.0,0.0,0.0,0.0,0.0,0.0,0.0,-0.36,1.08,-0.11,18.02,-36.1,84.7
2.98,0.0,0.0,0.75,0.5,0.0,0.0,0.25,0.0,0.0,0.5,0.5,0.5,0.0,0.08,0.08,-2.48,50.56,15.2,-16.6,2.0,0.75,0.5,0.5,0.0,1.0,0.0,0.0,0.25,1.5,0.0,0.75,0.75,-0.42,0.77,-0.17,54.04,-7.3,8.0
3.0,0.0,0.0,0.75,0.5,0.0,0.0,0.5,0.0,0.0,0.5,0.75,0.0,0.0,0.83,4.89,-3.67,49.72,16.7,-3.1,0.5,0.0,2.5,0.0,1.75,0.0,0.0,1.5,0.0,0.0,0.0,0.0,0.0,-0.42,0.7,-0.05,81.0,-12.6,38.5
3.02,0.0,0.0,0.75,1.0,0.0,0.0,0.5,0.0,0.0,0.5,0.75,0.25,0.25,0.95,-0.3,-0.17,52.09,14.2,-8.9,0.5,0.25,0.5,0.0,0.0,0.0,0.0,0.0,0.0,0.0,0.0,0.0,0.0,-0.42,0.7,-0.3,78.11,-31.7,82.7
3.04,0.0,0.0,0.75,0.75,0.0,0.0,0.25,0.0,0.0,0.5,0.75,0.25,0.5,0.52,-0.67,0.7,53.53,11.4,-21.9,0.5,0.25,0.5,0.0,0.0,0.0,0.0,0.5,0.0,0.0,0.0,0.0,0.0,-0.42,0.7,-0.48,64.75,-17.7,47.8
3.06,0.0,0.0,0.75,0.75,0.0,0.0,0.25,0.0,0.0,0.5,0.5,0.0,0.25,-0.11,-0.48,0.58,52.44,13.9,-2.3,0.5,0.25,0.5,0.0,0.0,0.0,0.0,0.0,0.0,0.0,0.0,0.0,0.0,-0.42,0.64,-0.55,44.66,-31.7,82.7
3.08,0.0,0.0,0.75,0.5,0.0,0.0,0.25,0.0,0.0,0.5,0.5,0.0,0.0,-0.3,0.58,-2.05,48.84,16.5,2.6,1.75,0.75,0.5,0.5,0.0,1.0,0.0,0.25,0.25,1.25,0.75,0.5,1.25,-0.48,0.45,-0.55,69.41,-5.5,-3.9
3.1,0.75,0.0,0.75,0.5,0.0,0.0,0.5,0.0,0.0,0.5,0.75,0.25,0.0,0.45,2.2,-2.3,51.41,19.6,8.8,0.5,0.0,2.0,0.0,2.25,0.0,0.25,1.75,0.0,0.0,0.75,0.0,1.0,-0.67,0.45,-0.42,98.49,-6.2,8.9
3.12,0.0,0.0,0.75,0.5,0.0,0.0,0.5,0.0,0.0,0.0,0.25,0.0,0.0,0.27,0.64,-0.17,43.82,27.5,36.9,0.75,0.5,2.0,0.5,2.25,1.0,0.25,1.5,0.25,1.5,0.0,0.75,0.0,-0.61,0.33,-0.3,144.29,-4.6,16.3
3.14,0.25,0.0,0.5,0.5,0.0,0.0,0.25,0.0,0.0,0.5,0.75,0.5,0.25,0.08,0.14,-0.23,46.08,12.3,-25.9,2.0,0.75,1.5,0.5,2.25,0.75,0.0,1.25,0.25,1.25,0.25,0.75,0.75,-0.55,0.39,-0.36,175.28,-6.3,16.7
3.16,0.0,0.0,0.75,1.0,0.0,0.0,0.0,0.0,0.0,0.0,0.25,0.25,0.25,-0.17,0.64,-0.98,42.36,19.0,13.2,2.0,1.0,1.75,0.5,2.25,1.0,0.25,1.5,0.25,1.0,0.0,0.75,1.0,-0.55,0.52,-0.55,200.38,-6.3,19.5
3.18,0.5,0.0,0.5,0.25,0.0,0.0,0.0,0.0,0.0,0.5,0.0,0.25,0.25,-0.48,0.95,-0.86,40.48,13.9,-0.4,2.0,1.0,1.75,0.5,2.25,0.5,0.25,1.0,0.25,1.5,0.75,0.75,0.75,-0.48,0.52,-0.61,212.19,-8.0,14.9
3.2,0.25,0.0,0.75,0.5,0.0,0.0,0.0,0.0,0.0,0.75,0.5,0.25,0.5,-0.36,0.45,-0.67,42.65,10.0,-21.7,1.75,0.75,2.0,0.5,2.25,0.75,0.25,1.5,0.25,1.5,0.5,0.25,1.0,-0.48,0.58,-0.36,218.38,-6.0,14.9
3.22,0.0,0.0,0.75,0.5,0.0,0.0,0.0,0.0,0.0,0.5,0.5,0.5,0.25,-0.23,0.33,-0.86,44.81,12.1,-26.2,2.0,1.0,0.5,0.5,0.0,0.5,0.0,1.0,0.25,1.5,1.25,0.5,1.0,-0.61,0.52,-0.3,202.06,-6.2,-5.8
3.24,0.25,0.0,0.75,0.0,0.0,0.0,0.0,0.0,0.0,0.5,0.5,0.5,0.25,-0.11,0.58,-0.92,44.61,13.1,-31.7,1.5,1.0,1.75,0.5,2.25,0.5,0.25,1.25,0.25,1.5,0.75,0.75,0.75,-0.61,0.39,-0.17,204.99,-6.5,11.0
3.26,0.25,0.0,0.75,0.5,0.0,0.0,0.0,0.0,0.0,1.0,0.5,0.5,0.25,-0.05,0.7,-0.86,47.92,9.8,-25.1,1.5,0.75,1.75,0.5,2.25,0.25,0.25,1.5,0.25,1.25,0.75,0.5,0.75,-0.55,0.45,-0.11,203.01,-6.9,11.9
3.28,0.0,0.0,0.75,0.75,0.0,0.0,0.0,0.0,0.0,0.5,0.5,0.75,0.25,-0.11,0.64,-0.73,51.51,12.2,-25.9,1.75,1.0,1.75,0.5,1.75,0.5,0.25,1.5,0.25,1.5,0.75,0.25,1.0,-1.23,0.77,-0.36,203.56,-6.5,11.9
3.3,0.0,0.0,0.75,1.0,0.0,0.0,0.0,0.0,0.0,0.75,1.0,0.75,0.25,-0.17,0.52,-0.73,59.45,10.8,-29.1,1.75,0.75,1.75,0.5,1.75,0.5,0.0,0.75,0.25,1.25,0.5,0.75,1.0,-1.92,1.45,-0.55,194.98,-8.1,11.6
3.32,0.25,0.0,0.75,0.5,0.0,0.0,0.0,0.0,0.0,0.75,0.5,0.0,0.0,-0.23,0.39,-0.73,56.82,14.5,2.5,1.5,0.75,1.75,0.5,2.25,0.5,0.25,1.0,0.0,1.25,0.75,0.75,1.0,-0.92,0.58,-0.23,189.26,-6.8,10.4
3.34,0.0,0.0,0.75,0.5,0.0,0.0,0.0,0.0,0.0,0.5,0.5,0.0,0.0,-0.36,0.45,-0.92,51.09,15.7,1.3,1.25,1.0,1.75,0.5,2.25,0.5,0.25,1.25,0.0,1.5,0.25,0.75,0.75,-0.86,0.45,-0.42,184.22,-5.7,13.7
3.36,0.25,0.0,0.75,0.5,0.0,0.0,0.0,0.0,0.0,0.75,0.75,0.0,0.0,-0.3,0.58,-0.86,47.96,14.2,-3.7,1.5,0.5,2.0,0.5,2.25,0.75,0.25,1.5,0.0,1.25,0.75,0.5,1.0,-0.8,0.33,-0.36,183.98,-5.8,10.4
3.38,0.25,0.0,0.75,0.5,0.0,0.0,0.0,0.0,0.25,1.0,0.5,0.0,0.0,-0.23,0.52,-0.73,47.02,12.0,-6.5,1.5,0.75,1.75,0.5,2.25,1.0,0.0,1.25,0.0,1.5,0.75,0.75,0.75,-0.8,0.39,-0.3,186.43,-5.0,10.8
3.4,0.25,0.0,0.75,0.5,0.0,0.0,0.0,0.0,0.0,1.0,0.5,0.0,0.0,-0.23,0.58,-0.86,47.7,12.0,-3.9,1.5,0.75,1.75,0.5,2.25,0.5,0.0,1.25,0.0,1.25,0.5,0.75,0.75,-0.98,0.58,-0.48,185.54,-6.4,13.5
3.42,0.25,0.0,0.75,0.5,0.0,0.0,0.0,0.0,0.0,0.5,0.5,0.0,0.25,-0.3,0.64,-0.8,47.06,14.6,-0.8,1.75,0.75,1.75,0.5,1.75,0.75,0.25,1.0,0.0,1.5,0.75,0.75,1.0,-0.98,0.64,-0.42,186.01,-6.8,8.7
3.44,0.0,0.0,0.75,0.75,0.0,0.0,0.0,0.0,0.0,0.5,0.5,0.0,0.0,-0.23,0.58,-0.67,44.24,15.9,7.1,1.0,1.0,1.75,0.5,2.25,0.75,0.25,1.25,0.0,0.0,0.75,0.0,1.0,-1.11,0.64,-0.3,178.86,-7.0,26.4
3.46,0.5,0.0,0.75,0.25,0.0,0.0,0.0,0.0,0.25,0.5,0.5,0.0,0.0,-0.17,0.64,-0.73,42.87,18.5,8.8,0.0,0.25,0.25,0.0,0.0,0.5,0.0,0.0,0.0,1.25,0.0,0.75,0.0,-0.98,0.64,-0.36,134.85,3.5,-39.9
3.48,0.0,0.0,0.75,0.5,0.0,0.0,0.0,0.0,0.0,0.75,0.5,0.0,0.0,-0.17,0.58,-0.86,40.38,12.6,-6.2,1.5,1.0,1.75,0.5,1.0,0.5,0.25,1.5,0.0,1.5,0.25,0.75,1.25,-0.8,0.52,-0.36,131.84,-6.1,4.0
3.5,0.25,0.0,0.75,0.5,0.0,0.0,0.0,0.0,0.0,1.0,0.75,0.0,0.0,-0.23,0.52,-0.8,42.63,11.9,-9.2,1.25,1.0,1.75,0.5,2.25,0.5,0.25,1.5,0.0,1.5,0.75,0.75,0.75,-0.73,0.45,-0.23,141.83,-5.5,9.4
3.52,1.25,0.0,0.75,0.5,0.0,0.0,0.0,0.0,0.0,0.75,0.5,0.0,0.0,-0.3,0.45,-0.86,49.16,19.7,26.6,1.25,0.75,1.75,0.5,2.25,1.0,0.25,1.0,0.0,1.0,0.75,0.75,1.0,-0.8,0.52,-0.11,162.82,-5.6,11.3
3.54,0.0,0.0,0.5,1.0,0.0,0.0,0.0,0.0,0.25,1.0,0.5,0.0,0.0,-0.36,0.45,-0.8,52.22,9.1,-8.9,1.25,1.0,1.75,0.5,2.25,1.0,0.0,0.0,0.0,1.5,0.75,0.75,1.0,-0.8,0.64,-0.17,173.99,-6.4,13.6
3.56,1.25,0.0,0.75,0.5,0.0,0.0,0.25,0.0,0.0,0.25,0.5,0.0,0.0,-0.36,0.45,-0.8,56.46,25.5,42.0,1.25,0.75,1.75,0.5,1.75,0.75,0.25,0.75,0.0,1.5,0.75,0.75,1.0,-0.73,0.64,-0.11,179.68,-6.2,6.2
3.58,0.75,0.0,0.75,0.5,0.0,0.0,0.0,0.0,0.0,0.75,0.0,0.0,0.0,-0.36,0.52,-0.8,53.88,18.6,32.5,1.25,1.0,1.75,0.5,1.5,0.5,0.0,1.25,0.25,1.25,1.5,0.75,0.75,-0.98,0.7,0.08,179.47,-7.1,2.9
3.6,0.5,0.0,0.75,0.0,0.0,0.0,0.0,0.0,0.0,0.5,0.5,0.0,0.0,-0.48,0.58,-0.73,47.35,19.4,8.3,1.25,1.0,1.75,0.5,2.25,0.75,0.25,0.75,0.0,1.25,0.0,0.75,1.0,-0.86,0.64,0.08,177.33,-6.0,17.4
3.62,1.25,0.0,0.75,0.25,0.0,0.0,0.0,0.0,0.0,0.75,0.0,0.0,0.0,-0.55,0.45,-0.73,46.06,21.3,40.6,1.0,0.75,1.75,0.5,1.75,0.5,0.25,1.0,0.0,0.75,0.75,0.75,1.0,-0.86,0.64,0.08,174.91,-7.2,8.3
3.64,1.25,0.0,0.75,0.5,0.0,0.0,0.0,0.0,0.0,0.5,0.0,0.0,0.0,-0.73,0.45,-0.73,47.3,24.1,51.9,0.75,0.75,1.75,0.5,2.25,0.5,0.25,1.25,0.0,1.5,0.25,0.75,0.75,-0.92,0.58,0.2,174.52,-4.4,8.4
3.66,1.0,0.0,0.75,0.25,0.0,0.0,0.0,0.0,0.0,1.0,0.5,0.0,0.0,-0.61,0.39,-0.67,51.34,16.2,12.0,1.25,1.0,1.75,0.5,2.25,0.5,0.25,0.5,0.0,1.25,0.75,0.75,1.0,-0.92,0.58,0.27,176.48,-7.4,12.6
3.68,0.0,0.0,0.75,0.5,0.0,0.0,0.0,0.0,0.0,0.25,0.5,0.25,0.5,-0.73,0.27,-0.73,49.69,12.5,-22.1,0.75,1.0,1.75,0.5,2.5,0.5,0.25,1.0,0.25,1.0,0.75,0.75,0.75,-0.92,0.58,0.2,180.53,-6.1,11.6
3.7,0.25,0.0,0.75,0.5,0.0,0.0,0.0,0.0,0.0,0.0,0.75,0.0,0.25,-0.61,0.39,-0.61,46.78,20.3,6.8,0.75,1.0,1.75,0.5,2.25,0.5,0.25,1.0,0.25,1.25,0.25,0.75,1.0,-0.92,0.64,0.14,181.9,-5.2,9.6
3.72,0.25,0.0,0.0,0.5,0.0,0.0,0.0,0.0,0.0,0.0,0.5,0.0,0.0,-0.73,0.39,-0.67,35.47,18.0,13.4,1.25,0.75,0.75,0.0,2.25,0.5,0.25,1.0,0.0,1.5,0.75,0.75,1.0,-0.86,0.58,0.08,170.42,-2.2,-0.4
3.74,0.0,0.0,0.0,0.5,0.0,0.0,0.0,0.0,0.0,0.0,0.5,0.0,0.0,-0.73,0.33,-0.61,24.38,14.1,-6.1,1.0,1.0,1.75,0.5,2.25,0.5,0.25,1.0,0.0,0.0,0.75,0.0,1.0,-0.8,0.45,0.08,163.95,-8.3,27.8
3.76,1.0,0.0,0.0,0.5,0.0,0.0,0.0,0.0,0.0,0.0,0.0,0.0,0.0,-0.86,0.27,-0.61,19.41,28.6,83.5,0.75,1.0,1.75,0.5,2.25,0.5,0.25,0.75,0.0,1.25,0.75,0.75,1.0,-0.86,0.39,0.14,164.64,-5.7,8.1
3.78,0.25,0.0,0.0,0.5,0.0,0.0,0.0,0.0,0.0,0.0,0.5,0.25,0.0,-0.92,0.2,-0.48,18.06,16.5,-7.1,1.0,0.75,1.75,0.5,2.25,0.5,0.25,1.0,0.0,1.25,0.5,0.75,1.0,-0.98,0.33,0.27,167.27,-5.6,8.7
3.8,0.0,0.0,0.0,0.5,0.0,0.0,0.0,0.0,0.0,0.5,0.5,0.0,0.0,-0.92,0.14,-0.48,18.14,4.2,-29.1,1.25,1.0,1.75,0.5,1.75,0.0,0.25,1.0,0.0,0.0,0.75,0.25,1.0,-1.11,0.33,0.33,162.47,-11.1,24.2
3.82,0.0,0.0,0.0,0.25,0.0,0.0,0.0,0.0,0.0,0.75,0.5,0.0,0.0,-0.98,0.14,-0.48,19.29,-1.3,-52.1,1.0,0.75,1.75,0.5,2.25,0.25,0.25,1.25,0.25,1.0,0.5,0.75,0.75,-1.11,0.27,0.2,164.28,-6.7,10.6
3.84,0.25,0.0,0.0,0.5,0.0,0.0,0.0,0.0,0.0,0.75,0.75,0.0,0.0,-0.92,0.2,-0.42,23.31,5.9,-26.0,0.0,0.25,1.75,0.0,2.25,0.0,0.25,1.25,0.25,0.5,0.0,0.75,0.0,-1.05,0.27,0.14,146.93,-6.4,13.3
3.86,0.25,0.0,0.0,0.25,0.0,0.0,0.0,0.0,0.0,0.75,0.0,0.0,0.0,-1.05,0.14,-0.42,20.76,0.7,-14.9,0.75,0.25,1.75,0.0,2.25,0.0,0.25,1.25,0.0,0.0,0.5,0.0,0.75,-1.05,0.2,0.2,135.06,-8.2,22.1
3.88,0.25,0.0,0.75,0.5,0.0,0.0,0.0,0.0,0.0,0.75,0.75,0.0,0.0,-0.92,0.08,-0.3,29.61,14.2,-3.7,0.75,1.0,0.25,0.5,0.0,0.5,0.0,1.5,0.25,0.5,0.75,1.0,1.25,-1.17,0.08,0.39,120.33,-1.7,-21.6
3.9,0.25,0.0,0.75,0.5,0.0,0.0,0.0,0.0,0.0,0.75,0.75,0.0,0.0,-0.98,0.08,-0.42,37.0,14.2,-3.7,0.75,0.75,1.75,0.5,2.25,0.5,0.25,1.0,0.0,0.25,0.5,0.75,0.75,-1.17,0.14,0.33,127.53,-7.5,17.8
3.92,0.25,0.0,0.75,0.5,0.0,0.0,0.0,0.0,0.0,0.75,1.0,0.0,0.0,-0.92,0.08,-0.48,46.61,13.9,-9.0,0.75,0.75,1.5,0.5,2.25,0.75,0.25,1.5,0.0,0.25,0.75,0.75,1.0,-1.11,0.2,0.14,139.55,-4.6,9.7
3.94,0.25,0.0,0.75,0.5,0.0,0.0,0.25,0.0,0.0,0.5,0.75,0.0,0.0,-0.86,0.08,-0.42,50.1,17.6,3.8,1.75,1.0,1.5,0.5,1.75,0.5,0.25,1.25,0.0,1.25,0.75,0.75,1.0,-0.98,0.2,0.27,159.74,-6.8,9.8
3.96,0.25,0.0,0.75,1.0,0.0,0.0,0.0,0.0,0.0,1.25,0.75,0.0,0.0,-1.05,0.08,-0.42,58.61,10.9,-4.6,1.0,1.0,1.75,0.5,2.25,0.5,0.0,1.25,0.0,1.25,0.75,0.75,1.0,-0.98,0.2,0.33,173.48,-5.1,7.7
3.98,1.0,0.0,0.75,0.5,0.0,0.0,0.0,0.0,0.0,0.75,0.75,0.0,0.25,-0.92,0.08,-0.36,63.08,16.0,7.3,1.25,1.0,1.5,0.5,2.25,0.75,0.0,1.5,0.0,1.5,0.75,0.75,1.0,-0.98,0.2,0.45,184.73,-3.7,6.3
4.0,1.0,0.0,0.75,0.5,0.0,0.0,0.0,0.0,0.0,1.0,0.5,0.0,0.25,-0.98,-0.17,-0.3,67.08,14.4,7.1,1.25,1.0,1.5,0.5,2.25,0.5,0.0,1.5,0.0,1.25,0.75,0.75,1.0,-0.98,0.33,0.52,188.82,-4.6,7.4
4.02,1.0,0.0,0.75,0.5,0.0,0.0,0.25,0.0,0.0,0.75,0.5,0.0,0.25,-0.8,-0.11,-0.23,68.98,16.9,13.1,0.75,0.75,1.75,0.5,2.25,0.5,0.0,1.25,0.0,1.0,0.5,0.75,0.75,-0.98,0.52,0.39,185.92,-5.1,10.2
4.04,1.0,0.0,0.75,0.5,0.0,0.0,0.0,0.0,0.0,0.5,0.5,0.0,0.25,-0.98,0.02,-0.3,67.48,18.7,19.0,1.25,1.0,1.5,0.5,2.25,0.5,0.0,1.0,0.0,1.0,0.75,0.75,1.0,-1.17,0.58,0.27,185.1,-5.9,11.1
4.06,0.5,0.0,0.75,1.25,0.0,0.0,0.25,0.0,0.0,0.75,0.5,0.0,0.25,-0.98,0.08,-0.42,68.12,14.9,12.1,0.75,1.25,1.25,0.5,2.25,0.5,0.0,1.25,0.25,0.25,0.75,0.75,1.0,-0.92,0.39,0.45,179.73,-5.2,12.0
4.08,0.25,0.0,0.75,0.75,0.0,0.0,0.0,0.0,0.0,0.75,0.5,0.0,0.0,-0.92,0.02,-0.36,62.36,14.7,7.3,0.75,0.5,1.75,0.5,2.25,0.5,0.0,0.5,0.25,0.75,0.75,0.75,0.75,-0.67,0.27,0.58,174.4,-7.3,10.4
4.1,0.5,0.0,0.5,1.0,0.0,0.0,0.0,0.0,0.0,0.0,0.5,0.0,0.0,-0.92,0.02,-0.42,56.09,23.5,40.2,1.0,1.0,1.75,0.5,2.25,0.25,0.0,0.25,0.0,0.75,0.75,0.75,1.25,-0.92,0.08,0.58,168.65,-8.3,12.5
4.12,1.0,0.0,0.75,0.5,0.0,0.0,0.0,0.0,0.0,0.5,0.5,0.0,0.0,-0.92,0.08,-0.42,51.61,21.3,29.4,1.25,1.0,1.5,0.5,2.25,0.25,0.0,0.25,0.0,1.5,0.75,0.75,0.75,-1.05,0.08,0.58,165.95,-7.5,12.9
4.14,0.25,0.0,0.75,0.5,0.0,0.0,0.0,0.0,0.0,0.5,0.5,0.0,0.0,-0.86,0.08,-0.48,46.44,17.5,10.3,0.75,1.0,1.75,0.5,2.25,0.25,0.25,0.25,0.0,1.0,0.75,0.75,1.0,-0.92,0.02,0.64,161.83,-7.9,11.7
4.16,0.75,0.0,0.75,1.0,0.0,0.0,0.0,0.0,0.0,0.75,0.25,0.0,0.0,-0.92,0.02,-0.36,48.73,17.9,28.8,0.0,0.75,1.75,0.75,2.25,0.25,0.0,0.25,0.25,1.5,0.75,0.75,0.75,-0.8,-0.05,0.77,157.64,-5.4,2.4
4.18,0.25,0.0,0.75,0.5,0.0,0.0,0.25,0.0,0.0,0.75,0.0,0.0,0.0,-0.92,-0.05,-0.42,44.69,16.1,19.5,0.75,0.5,1.5,0.5,1.75,0.5,0.0,0.0,0.25,1.25,0.75,0.75,0.75,-0.67,-0.11,0.89,150.19,-7.2,4.5
4.2,0.0,0.0,0.75,0.5,0.0,0.0,0.25,0.0,0.0,1.0,0.0,0.0,0.0,-0.8,0.02,-0.48,41.57,11.0,2.1,0.75,1.0,1.75,0.5,2.25,0.0,0.0,0.25,0.25,1.5,1.5,0.75,1.0,-0.67,-0.17,0.95,154.87,-7.6,1.0
4.22,0.0,0.0,0.75,0.5,0.0,0.0,0.0,0.0,0.0,1.25,0.0,0.0,0.0,-0.98,0.02,-0.42,37.86,7.4,-6.6,0.75,1.0,1.5,0.5,2.25,0.0,0.0,0.25,0.25,1.0,0.75,0.25,0.75,-0.8,-0.17,1.08,151.17,-8.2,17.9
4.24,0.25,0.0,0.75,0.5,0.0,0.0,0.25,0.0,0.0,0.75,0.0,0.0,0.0,-0.92,0.02,-0.42,36.7,16.1,19.5,0.75,0.75,1.75,0.5,2.25,0.25,0.0,0.5,0.25,0.75,0.75,0.75,0.75,-0.86,-0.17,1.08,154.11,-8.1,12.1
4.26,0.25,0.0,0.75,0.5,0.0,0.0,0.5,0.0,0.0,0.5,0.0,0.25,0.0,-0.98,0.02,-0.36,36.6,19.4,16.5,1.0,1.0,1.5,0.5,1.75,0.25,0.0,0.0,0.25,1.25,0.25,0.75,1.0,-0.67,-0.11,0.89,151.24,-8.1,11.9
4.28,0.25,0.0,0.75,0.5,0.0,0.0,0.25,0.0,0.0,1.5,0.0,0.0,0.25,-0.98,-0.05,-0.3,41.78,6.9,-11.1,1.5,0.5,1.75,0.5,2.25,0.25,0.0,0.0,0.0,1.0,0.75,0.75,0.75,-0.48,0.02,0.77,152.6,-10.4,17.3
4.3,0.25,0.0,1.0,0.5,0.0,0.0,0.5,0.0,0.0,0.75,0.0,0.0,0.25,-0.92,-0.05,-0.3,45.25,16.1,12.3,0.75,0.75,1.5,0.5,1.75,0.25,0.0,0.0,0.0,0.75,0.75,0.5,1.0,-0.48,0.08,0.83,145.36,-8.7,12.1
4.32,0.25,0.0,1.0,0.5,0.0,0.0,0.5,0.0,0.0,0.75,0.0,0.0,0.25,-0.98,-0.05,-0.3,48.73,16.1,12.3,0.75,1.0,1.5,0.5,2.25,0.0,0.25,0.0,0.0,0.75,1.5,0.25,1.0,-0.55,-0.05,0.95,146.43,-9.2,13.1
4.34,0.25,0.0,0.75,0.5,0.0,0.0,0.5,0.0,0.0,0.5,0.5,0.0,0.25,-0.98,0.02,-0.3,49.21,16.0,1.4,1.25,0.75,1.25,0.5,2.25,0.25,0.0,0.25,0.0,1.0,0.75,0.25,0.75,-0.61,-0.11,0.95,144.43,-7.7,20.3
4.36,0.25,0.0,0.75,0.5,0.0,0.0,0.5,0.0,0.0,0.75,0.5,0.0,0.0,-0.98,0.02,-0.3,49.03,15.9,4.5,0.25,0.75,1.5,0.5,2.25,0.0,0.0,0.0,0.0,1.0,0.75,0.75,0.75,-0.61,-0.05,1.02,141.28,-7.3,7.4
4.38,0.0,0.0,0.75,0.5,0.0,0.0,0.5,0.0,0.0,0.75,0.5,0.0,0.25,-0.98,0.02,-0.3,48.72,11.9,-12.3,0.75,1.0,1.5,0.5,2.25,0.5,0.0,0.25,0.0,1.0,0.5,0.75,0.75,-0.61,-0.05,0.83,144.19,-6.6,16.0
4.4,0.0,0.0,0.75,0.5,0.0,0.0,0.5,0.0,0.0,1.0,0.5,0.0,0.25,-0.98,-0.05,-0.3,49.35,9.8,-17.2,0.75,1.0,1.5,0.5,1.75,0.0,0.0,0.0,0.25,1.5,0.75,0.75,1.0,-0.73,-0.05,0.83,146.34,-7.8,3.0
4.42,0.0,0.0,1.0,0.5,0.0,0.0,0.5,0.0,0.0,0.25,0.5,0.25,0.25,-0.92,-0.05,-0.36,50.26,18.5,-3.7,0.5,1.0,1.25,0.5,2.25,0.0,0.0,0.0,0.25,1.5,0.75,0.75,1.0,-0.8,-0.05,0.89,149.06,-5.7,2.2
4.44,0.0,0.0,0.75,0.5,0.0,0.0,0.5,0.0,0.0,0.75,0.5,0.0,0.25,-0.92,-0.05,-0.36,49.74,11.9,-12.3,0.75,1.0,1.25,0.5,2.25,0.0,0.0,0.0,0.0,1.0,0.75,0.75,1.0,-0.67,-0.11,0.95,147.45,-7.4,9.6
4.46,0.25,0.0,0.75,0.5,0.0,0.0,0.5,0.0,0.0,1.0,0.5,0.25,0.25,-0.92,-0.05,-0.36,52.5,11.3,-16.1,0.5,1.0,1.5,0.5,2.25,0.0,0.0,0.0,0.0,1.25,0.25,0.75,0.75,-0.48,-0.23,0.83,146.6,-7.3,14.4
4.48,0.25,0.0,0.75,0.5,0.0,0.0,0.5,0.0,0.0,0.75,0.75,0.0,0.0,-0.92,-0.05,-0.36,52.93,15.5,-1.4,1.25,1.0,1.25,0.5,2.25,0.0,0.0,0.0,0.25,1.5,0.75,0.75,1.0,-0.48,-0.17,0.77,150.59,-7.6,8.4
4.5,0.25,0.0,0.75,1.0,0.0,0.0,0.5,0.0,0.0,1.0,0.75,0.25,0.25,-0.98,-0.05,-0.3,59.69,12.0,-10.7,0.75,1.0,1.25,0.5,2.25,0.0,0.0,0.25,0.25,0.75,0.75,0.75,1.0,-0.55,-0.17,0.64,151.28,-7.5,9.4
4.52,0.25,0.0,0.75,0.5,0.0,0.0,0.5,0.0,0.0,1.0,0.5,0.25,0.0,-0.98,0.02,-0.3,59.49,13.2,-9.2,0.75,1.25,1.25,0.5,2.25,0.0,0.0,0.0,0.25,1.0,0.75,0.75,1.0,-0.55,-0.36,0.64,153.99,-7.6,10.7
4.54,0.25,0.0,0.75,0.5,0.0,0.0,0.5,0.0,0.0,1.75,0.5,0.25,0.0,-0.98,0.02,-0.3,63.69,8.1,-20.9,1.25,0.75,1.25,0.5,1.75,0.25,0.0,0.0,0.0,1.0,0.75,0.75,1.0,-0.3,-0.42,0.7,151.69,-8.5,9.5
4.56,0.0,0.0,0.75,0.5,0.0,0.0,0.5,0.0,0.0,0.75,0.5,0.25,0.25,-0.92,-0.05,-0.3,59.69,11.7,-19.7,0.5,1.0,1.0,0.25,2.25,0.0,0.0,0.0,0.0,1.25,0.75,0.75,1.0,-0.17,-0.48,0.7,146.5,-4.9,2.2
4.58,0.25,0.0,0.75,0.5,0.0,0.0,0.5,0.0,0.0,0.75,0.75,0.0,0.25,-0.92,-0.05,-0.3,58.7,13.4,-9.3,1.0,0.75,1.75,0.5,2.25,0.0,0.0,0.0,0.0,1.0,0.75,0.75,0.75,-0.23,-0.55,0.64,145.95,-10.1,15.2
4.6,0.5,0.0,0.75,0.5,0.0,0.0,0.5,0.0,0.0,0.75,0.5,0.0,0.25,-0.98,0.02,-0.3,56.47,15.0,2.3,1.25,1.0,1.25,0.5,2.25,0.0,0.0,0.25,0.0,1.5,0.75,0.75,1.25,-0.11,-0.61,0.52,152.29,-6.5,5.7
4.62,0.25,0.0,0.75,0.5,0.0,0.0,0.5,0.0,0.0,0.5,0.5,0.25,0.25,-0.98,0.02,-0.3,54.91,15.5,-7.0,0.75,1.0,1.25,0.5,2.25,0.25,0.0,0.0,0.0,1.25,0.75,0.75,0.75,0.02,-0.67,0.58,153.08,-6.6,11.2
4.64,0.25,0.0,0.75,0.5,0.0,0.0,0.5,0.0,0.0,0.75,0.5,0.0,0.25,-0.98,0.02,-0.3,53.17,13.6,-4.4,0.75,0.75,1.5,0.0,2.25,0.5,0.0,0.0,0.0,1.0,0.75,0.75,1.0,-0.05,-0.61,0.52,152.3,-6.1,7.2
4.66,0.25,0.0,0.75,0.5,0.0,0.0,0.5,0.0,0.0,1.0,0.75,0.0,0.25,-0.98,-0.05,-0.3,54.3,11.4,-13.8,0.75,1.25,1.5,0.5,1.75,0.5,0.0,0.0,0.0,1.25,0.75,0.75,1.0,0.08,-0.67,0.58,152.86,-6.9,9.7
4.68,0.25,0.0,0.75,0.5,0.0,0.0,0.5,0.0,0.25,0.5,0.5,0.25,0.25,-0.98,0.02,-0.3,54.29,15.2,-9.2,0.75,1.0,1.5,0.5,1.75,0.0,0.0,0.0,0.0,1.5,0.75,0.75,1.0,0.14,-0.73,0.58,150.84,-7.7,4.1
4.7,0.25,0.0,1.0,0.75,0.0,0.0,0.5,0.0,0.0,0.75,0.5,0.0,0.25,-0.98,0.02,-0.3,56.01,15.5,4.2,0.75,1.0,1.5,0.5,2.25,0.0,0.0,0.0,0.0,1.25,0.75,0.75,0.75,0.14,-0.8,0.45,150.27,-8.2,11.9
4.72,0.25,0.0,0.75,0.5,0.0,0.0,0.5,0.0,0.0,1.0,0.5,0.0,0.25,-0.98,0.02,-0.3,55.97,11.5,-9.5,0.75,1.0,1.25,0.5,2.25,0.0,0.0,0.0,0.0,1.0,0.75,0.75,1.0,0.14,-0.73,0.39,148.21,-7.4,9.6
4.74,0.5,0.0,1.0,0.5,0.0,0.0,0.5,0.0,0.0,1.25,0.5,0.0,0.25,-0.98,0.02,-0.3,59.59,12.8,-3.2,0.75,1.0,0.75,0.5,2.25,0.0,0.0,0.25,0.0,0.75,0.75,0.75,1.0,0.14,-0.8,0.52,145.62,-5.6,7.8
4.76,0.5,0.0,0.75,0.5,0.0,0.0,0.5,0.0,0.0,0.5,0.5,0.25,0.25,-0.98,0.02,-0.3,59.28,16.8,0.0,0.75,1.0,1.25,0.5,2.5,0.0,0.0,0.25,0.0,1.25,0.75,0.75,1.0,0.14,-0.8,0.52,147.88,-6.0,7.6
4.78,0.5,0.0,0.75,0.5,0.0,0.0,0.5,0.0,0.0,0.75,0.5,0.0,0.25,-0.98,0.02,-0.3,58.86,15.0,2.3,0.75,1.0,0.5,0.5,2.25,0.0,0.0,0.0,0.0,1.25,0.5,0.75,1.0,0.14,-0.73,0.39,143.64,-4.0,5.1
4.8,0.0,0.0,0.75,0.5,0.0,0.0,0.5,0.0,0.25,1.25,0.5,0.0,0.5,-0.98,0.02,-0.23,59.54,6.9,-28.0,0.75,1.0,1.0,0.5,2.25,0.25,0.0,0.0,0.0,1.5,0.5,0.75,0.75,0.2,-0.73,0.33,144.13,-5.1,9.8
4.82,0.25,0.0,0.75,0.5,0.0,0.0,0.5,0.0,0.0,1.0,0.5,0.0,0.25,-0.98,0.02,-0.23,58.13,11.5,-9.5,0.75,1.0,1.25,0.5,2.25,0.0,0.0,0.25,0.0,1.5,0.75,0.75,1.0,0.2,-0.73,0.33,145.67,-5.7,4.4
4.84,0.25,0.0,0.75,0.5,0.0,0.0,0.5,0.0,0.0,0.75,0.5,0.0,0.25,-0.98,0.02,-0.23,55.78,13.6,-4.4,1.0,1.25,1.0,0.25,2.25,0.25,0.0,0.0,0.0,1.5,0.75,0.75,1.0,0.27,-0.8,0.45,150.13,-5.3,7.8
4.86,0.25,0.0,1.0,0.5,0.0,0.0,0.5,0.0,0.0,0.75,0.5,0.0,0.25,-0.98,0.02,-0.3,55.15,15.4,0.2,0.75,1.0,1.25,0.5,1.75,0.0,0.0,0.0,0.0,1.5,0.75,0.75,1.0,0.27,-0.8,0.52,149.82,-6.8,2.5
4.88,0.75,0.0,0.5,0.5,0.0,0.0,0.5,0.0,0.0,1.0,0.5,0.0,0.25,-0.98,0.02,-0.23,55.81,12.6,-0.9,1.25,1.0,1.25,0.5,2.25,0.0,0.0,0.0,0.0,1.25,0.75,0.75,1.0,0.2,-0.8,0.45,152.83,-8.1,11.6
4.9,0.75,0.0,0.75,0.5,0.0,0.0,0.5,0.0,0.0,0.5,0.5,0.0,0.25,-0.98,0.02,-0.23,55.76,18.6,14.3,0.75,1.0,1.25,0.5,1.75,0.0,0.0,0.0,0.0,1.25,0.75,0.75,1.0,0.2,-0.8,0.39,148.59,-7.4,4.6
4.92,0.5,0.0,0.75,1.0,0.0,0.0,0.5,0.0,0.0,1.0,0.5,0.0,0.25,-0.98,0.02,-0.3,60.26,13.5,4.6,1.0,1.0,1.0,0.5,2.25,0.0,0.0,0.0,0.0,1.25,0.75,0.75,1.0,0.14,-0.73,0.45,148.81,-6.7,8.2
4.94,0.5,0.0,1.0,0.5,0.0,0.0,0.5,0.0,0.25,0.75,0.5,0.0,0.5,-0.98,0.02,-0.23,63.43,14.5,-3.2,1.75,1.0,1.0,0.25,1.75,0.0,0.0,0.0,0.0,0.75,0.75,0.75,1.0,0.14,-0.8,0.52,145.48,-10.3,15.3
4.96,0.5,0.0,0.75,0.5,0.0,0.0,0.5,0.0,0.0,1.0,0.5,0.0,0.5,-0.98,0.02,-0.23,64.84,11.2,-9.7,1.0,1.0,1.0,0.5,2.25,0.0,0.0,0.0,0.0,1.25,0.75,0.75,1.0,0.2,-0.8,0.52,147.09,-6.7,8.2
4.98,0.5,0.0,0.75,0.5,0.0,0.0,0.5,0.0,0.0,0.75,0.5,0.0,0.5,-0.98,0.02,-0.23,63.23,13.0,-5.3,1.0,0.25,0.5,0.5,2.25,1.0,0.0,0.0,0.0,1.5,0.75,0.75,0.75,0.14,-0.8,0.52,145.05,-1.5,1.6
5.0,0.75,0.0,0.75,0.5,0.0,0.0,0.5,0.0,0.0,0.5,0.5,0.0,0.25,-0.98,0.02,-0.23,61.34,18.6,14.3,0.5,1.0,1.5,0.5,2.25,0.0,0.0,0.0,0.0,1.25,0.75,0.75,1.0,0.08,-0.98,0.58,146.34,-7.0,6.7
5.02,1.0,0.0,0.75,0.5,0.0,0.0,0.5,0.0,0.0,0.75,0.5,0.0,0.25,-0.98,0.02,-0.23,61.39,17.4,13.6,1.25,1.0,1.0,0.5,2.25,0.0,0.0,0.0,0.0,1.25,0.5,1.0,1.0,0.08,-1.17,0.7,148.89,-7.3,9.4
5.04,1.25,0.0,1.0,0.5,0.0,0.0,0.5,0.0,0.0,0.5,0.5,0.0,0.5,-0.98,0.02,-0.3,65.08,19.5,18.6,1.25,0.75,0.5,0.5,2.25,0.0,0.0,0.25,0.0,1.5,0.75,0.75,0.75,0.14,-1.05,0.64,147.56,-4.8,4.9
5.06,1.0,0.0,0.75,0.75,0.0,0.0,0.5,0.0,0.0,0.5,0.5,0.0,0.25,-0.98,0.02,-0.3,67.17,19.4,22.1,0.75,1.0,1.25,0.5,1.75,0.0,0.0,0.0,0.0,1.0,0.75,0.75,0.75,0.14,-0.8,0.52,142.87,-8.7,10.2
5.08,1.0,0.0,0.75,0.5,0.0,0.0,0.5,0.0,0.0,0.75,0.5,0.0,0.25,-0.98,0.02,-0.23,67.59,17.4,13.6,0.5,1.0,1.25,0.5,1.75,0.0,0.0,0.0,0.0,1.5,0.75,0.75,1.25,0.14,-0.67,0.58,141.45,-5.6,-2.7
5.1,1.0,0.0,0.75,0.75,0.0,0.0,0.5,0.0,0.0,0.5,0.5,0.0,0.25,-0.98,0.02,-0.23,66.61,19.4,22.1,1.0,0.5,1.0,0.5,2.25,0.25,0.0,0.0,0.0,1.5,0.75,0.75,0.75,0.02,-0.55,0.52,141.36,-5.6,5.0
5.12,1.0,0.0,0.75,0.5,0.0,0.0,0.5,0.0,0.0,1.25,0.5,0.0,0.25,-0.98,0.02,-0.23,67.74,13.6,3.6,1.25,0.5,0.75,0.5,2.25,0.0,0.0,0.0,0.0,1.25,0.75,0.75,1.0,0.14,-0.73,0.52,140.7,-6.2,4.0
