time,left pressure 0[N/cm²],left pressure 1[N/cm²],left pressure 2[N/cm²],left pressure 3[N/cm²],left pressure 4[N/cm²],left pressure 5[N/cm²],left pressure 6[N/cm²],left pressure 7[N/cm²],left pressure 8[N/cm²],left pressure 9[N/cm²],left pressure 10[N/cm²],left pressure 11[N/cm²],left pressure 12[N/cm²],left acceleration X[g],left acceleration Y[g],left acceleration Z[g],left total force[N],left center of pressure X[mm],left center of pressure Y[mm],right pressure 0[N/cm²],right pressure 1[N/cm²],right pressure 2[N/cm²],right pressure 3[N/cm²],right pressure 4[N/cm²],right pressure 5[N/cm²],right pressure 6[N/cm²],right pressure 7[N/cm²],right pressure 8[N/cm²],right pressure 9[N/cm²],right pressure 10[N/cm²],right pressure 11[N/cm²],right pressure 12[N/cm²],right acceleration X[g],right acceleration Y[g],right acceleration Z[g],right total force[N],right center of pressure X[mm],right center of pressure Y[mm]
0.02,0.0,0.0,0.0,0.75,0.0,0.0,0.0,3.0,0.75,6.25,6.0,0.0,3.75,-0.17,0.08,0.95,309.41,-5.6,-70.1,2.0,0.75,2.0,1.5,3.75,2.25,0.5,1.75,0.25,1.25,1.0,0.75,1.25,0.45,-0.3,0.77,152.73,-4.1,16.5
0.04,0.0,0.0,0.0,2.5,0.0,0.0,0.0,3.25,1.25,6.5,5.5,2.5,3.5,-0.17,0.08,0.95,326.5,-2.6,-63.3,1.75,1.0,2.0,1.25,4.25,2.0,0.5,1.75,0.25,1.0,1.0,0.75,1.0,0.45,-0.3,0.27,169.06,-4.2,20.0
0.06,0.0,0.0,0.0,2.5,0.0,0.0,0.25,4.5,0.75,6.0,5.5,1.25,3.5,-0.17,0.08,0.95,342.52,-3.8,-59.4,2.0,0.75,1.75,1.25,3.75,1.75,0.5,1.75,0.25,0.75,1.0,0.75,1.25,0.33,-0.3,0.7,177.37,-4.7,17.4
0.08,0.0,0.0,0.0,1.0,0.0,0.75,0.25,4.5,0.25,4.5,4.75,0.75,2.5,-0.17,0.08,0.95,322.61,-6.1,-60.2,0.75,1.0,1.75,1.0,4.25,2.0,0.0,1.75,0.25,1.0,1.0,0.75,0.75,0.08,-0.23,0.95,190.0,-1.7,16.3
0.1,0.0,0.0,0.0,0.75,0.0,0.5,0.0,3.0,0.0,4.75,4.5,1.5,2.0,-0.17,0.08,0.95,292.87,-5.3,-66.9,1.25,0.0,1.5,1.5,3.75,2.0,0.5,1.75,0.25,1.25,1.0,0.75,1.0,-0.05,-0.11,1.02,205.75,-2.0,9.7
0.12,0.0,0.25,0.0,2.25,0.0,1.5,0.25,4.5,0.0,4.0,3.25,1.5,2.25,-0.17,0.08,0.95,272.09,-5.4,-46.8,1.75,0.0,1.5,1.25,3.75,1.75,0.5,1.75,0.25,1.0,1.0,0.75,1.0,-0.11,0.02,0.95,219.41,-3.3,12.4
0.14,0.0,0.75,0.0,2.5,0.0,1.5,0.25,4.5,0.0,3.75,3.0,0.75,1.75,-0.17,0.08,0.95,252.91,-5.0,-36.3,1.25,0.75,1.75,1.25,3.75,1.25,0.0,1.75,0.25,0.25,1.0,0.75,1.0,-0.23,0.02,1.14,223.26,-4.7,18.2
0.16,0.0,0.75,0.0,2.5,0.0,2.25,0.25,4.5,0.0,3.75,3.0,1.5,1.25,-0.17,0.08,0.95,249.77,-4.9,-34.6,1.25,0.75,1.5,1.25,3.75,1.25,0.0,1.75,0.25,0.75,1.0,0.75,0.75,-0.36,0.02,1.45,225.99,-3.8,16.6
0.18,0.0,1.0,0.0,2.5,0.0,3.25,0.25,4.5,0.0,3.25,3.0,0.75,1.25,-0.17,0.08,0.95,253.0,-5.8,-25.6,1.25,1.0,1.25,1.25,3.75,1.25,0.0,1.75,0.25,0.5,1.0,0.25,1.0,-0.42,0.14,1.7,222.92,-3.2,20.8
0.2,0.0,1.0,0.0,2.5,0.0,4.0,0.5,4.5,0.0,2.25,2.5,0.75,1.25,-0.17,0.08,0.95,251.02,-6.1,-19.1,1.0,1.0,1.0,1.25,3.75,1.0,0.0,1.75,0.25,0.75,1.0,0.75,1.0,-0.42,0.27,1.89,213.72,-2.4,12.8
0.22,0.0,1.0,0.0,4.25,2.0,4.0,0.75,4.5,0.0,2.0,2.25,0.5,1.0,-0.11,0.14,0.95,259.34,-3.8,-1.5,1.0,1.0,1.0,1.25,3.75,1.0,0.0,1.75,0.25,1.0,1.0,0.75,0.75,-0.36,0.33,2.33,210.07,-2.3,13.5
0.24,0.0,1.0,0.0,4.5,3.25,5.0,1.25,4.5,0.75,2.0,2.0,0.5,1.0,-0.11,0.08,0.95,286.14,-3.6,3.3,1.0,1.0,1.0,1.25,3.75,1.0,0.0,1.75,0.25,1.5,1.0,0.75,1.0,-0.3,0.52,2.77,212.8,-1.5,8.7
0.26,4.5,1.25,1.75,6.5,5.25,5.0,2.0,4.0,0.0,2.0,1.75,0.5,1.0,-0.17,0.14,0.95,357.35,4.6,27.1,1.0,1.0,1.5,1.25,3.25,0.75,0.5,1.75,0.25,1.0,1.0,0.75,0.75,-0.23,1.2,2.89,212.39,-4.7,13.5
0.28,4.75,1.25,3.0,8.0,5.75,5.5,2.5,3.0,0.75,0.5,1.5,1.0,0.0,-0.11,0.14,1.02,445.46,8.3,37.9,1.0,1.0,0.75,1.25,3.75,1.0,0.5,1.75,0.25,1.0,1.0,0.75,1.0,-0.42,2.2,2.52,214.37,-1.9,10.8
0.3,0.0,1.25,0.0,9.0,0.0,5.75,2.75,3.0,0.5,2.0,1.5,0.5,1.0,-0.11,0.14,1.08,459.8,1.0,12.7,1.25,1.0,1.0,1.25,2.5,0.75,0.0,1.75,0.25,1.0,1.0,0.75,1.0,-0.86,2.89,1.52,209.32,-3.6,8.1
0.32,0.0,1.75,0.0,9.5,0.0,5.25,3.5,2.25,0.5,0.75,1.5,0.5,0.75,-0.17,0.2,1.08,436.83,4.0,22.6,1.0,1.0,1.0,1.25,3.5,0.5,0.25,1.5,0.25,1.5,1.0,0.75,0.75,-1.92,3.64,0.14,208.39,-3.2,10.0
0.34,0.0,2.0,7.5,10.5,0.0,5.0,3.5,1.25,0.5,1.5,1.0,0.5,0.75,-0.23,0.2,1.02,441.53,12.9,34.4,1.0,1.0,0.75,1.25,3.25,1.0,0.5,1.75,0.25,1.0,1.0,0.75,1.0,-2.23,4.33,-0.36,207.0,-2.1,9.1
0.36,0.0,2.0,8.25,10.5,0.0,0.0,3.5,1.25,0.25,0.0,0.0,0.0,0.5,-0.17,0.2,1.14,415.53,22.5,51.1,0.0,0.0,0.0,0.0,1.5,0.5,0.0,1.25,0.0,0.75,1.25,0.25,0.25,-2.55,3.7,-0.61,167.55,6.3,-24.1
0.38,7.25,1.0,7.75,10.0,0.0,0.0,4.0,1.25,0.25,1.25,0.0,0.0,0.25,-0.3,0.27,1.45,441.25,24.2,55.4,0.0,0.0,0.25,0.0,0.0,0.25,0.0,0.25,0.0,2.25,0.25,1.0,0.5,-0.05,0.45,1.08,125.31,6.4,-71.6
0.4,7.75,1.0,7.75,8.0,0.0,0.0,4.0,1.25,0.25,0.5,0.0,0.0,0.0,-0.55,0.27,2.08,444.18,26.3,60.9,0.5,1.0,0.0,1.25,0.25,0.5,0.0,1.25,0.0,6.5,2.5,3.75,2.25,0.02,0.27,0.77,159.57,2.8,-57.1
0.42,8.0,0.0,6.75,4.5,0.0,0.0,3.25,1.25,0.0,0.5,0.5,0.0,0.0,-0.55,0.64,2.77,414.12,27.7,58.8,0.5,0.0,1.5,0.0,3.0,0.5,0.0,2.0,0.0,7.5,5.5,3.75,4.0,-0.61,0.89,2.89,241.19,2.2,-54.7
0.44,7.0,0.0,5.0,2.75,0.0,0.0,2.0,1.25,0.25,0.25,1.0,0.25,0.0,-0.86,1.02,3.02,348.69,26.8,52.4,0.0,0.0,0.5,0.75,0.25,1.25,0.0,4.5,0.25,7.75,7.0,3.75,4.0,0.64,0.45,2.45,326.5,4.6,-67.2
0.46,0.0,0.0,3.5,2.5,0.0,0.0,0.5,0.0,0.0,0.0,0.75,0.0,0.0,-0.61,0.45,3.08,250.86,27.6,44.9,0.0,1.0,0.0,2.25,0.0,3.0,0.5,5.25,1.0,8.25,7.75,3.75,3.75,0.08,0.08,0.95,430.53,4.1,-53.3
0.48,0.0,0.0,0.0,0.0,0.0,0.0,0.0,0.0,0.0,0.0,0.0,0.0,0.0,-0.8,-1.11,2.58,127.43,0.0,0.0,1.0,1.0,0.0,2.25,3.0,4.5,0.5,5.5,1.5,9.0,8.0,3.75,4.0,0.08,0.14,0.95,548.89,3.8,-39.4
0.5,0.0,0.0,0.0,0.0,0.0,0.0,2.5,0.0,0.0,0.0,0.0,0.0,0.0,-0.98,-1.3,0.58,15.83,32.4,27.3,1.25,1.0,1.75,2.25,4.75,5.25,1.5,6.25,1.5,8.75,8.5,4.5,4.75,0.08,0.08,0.95,674.19,2.0,-32.2
0.52,0.0,0.0,0.0,0.0,0.0,0.0,0.0,0.0,0.0,0.0,0.0,0.0,0.0,-1.05,-2.11,2.45,0.0,0.0,0.0,0.75,0.25,0.75,2.75,3.5,5.25,1.5,6.5,1.5,8.5,8.25,4.0,4.75,0.08,0.08,0.95,752.28,3.4,-38.0
0.54,0.0,0.0,0.0,0.0,0.0,0.0,0.0,0.0,0.0,0.0,0.0,0.0,0.0,-0.36,-1.36,1.33,0.0,0.0,0.0,1.25,1.0,2.0,2.5,4.5,5.5,2.25,6.5,1.5,8.0,8.0,3.75,4.0,0.08,0.08,0.95,809.58,1.5,-27.6
0.56,0.0,0.0,0.0,0.0,0.0,0.0,0.0,0.0,0.0,0.0,0.0,0.0,0.0,-0.42,-0.73,0.77,0.0,0.0,0.0,2.0,1.25,2.0,2.75,5.0,6.0,2.25,6.5,1.0,7.0,7.0,2.75,3.0,0.08,0.08,0.95,816.45,1.1,-17.5
0.58,0.0,0.0,0.0,0.0,0.0,0.0,0.0,0.0,0.0,0.0,0.0,0.0,0.0,-0.55,-0.36,0.58,0.0,0.0,0.0,0.25,1.0,2.75,2.75,5.5,6.25,2.75,6.25,1.0,6.0,5.5,2.25,2.5,0.14,0.08,0.95,786.42,1.8,-14.1
0.6,0.0,0.0,0.0,0.0,0.0,0.0,0.0,0.0,0.0,0.0,0.0,0.0,0.0,-0.48,-0.17,0.89,0.0,0.0,0.0,1.75,1.25,3.0,2.5,5.5,6.25,2.75,6.25,1.0,4.0,4.5,1.25,2.25,0.14,0.08,0.95,736.68,0.1,-2.3
0.62,1.25,0.0,0.0,1.0,0.0,0.0,2.25,0.0,0.0,0.5,0.0,0.0,0.0,-0.3,-0.11,1.27,0.0,22.6,43.9,1.75,1.25,3.25,3.75,6.25,6.25,3.75,6.0,1.0,4.25,3.5,1.5,1.25,0.08,0.08,0.95,691.17,-1.0,4.7
0.64,1.75,0.0,0.5,1.25,0.0,0.0,0.0,0.0,0.0,0.5,0.0,0.0,0.0,-0.36,0.14,1.39,0.0,23.1,57.9,2.0,1.5,3.0,3.75,6.5,6.5,4.0,5.75,1.0,3.75,3.25,1.0,0.25,0.08,0.08,0.95,640.8,-1.5,12.1
0.66,2.25,0.0,1.0,1.0,0.0,0.0,0.0,0.0,0.0,0.5,0.0,0.0,0.0,-0.61,0.45,1.39,25.6,26.3,62.2,2.0,0.5,3.75,3.75,6.5,6.25,4.75,5.5,1.0,3.5,3.0,0.75,1.25,0.08,0.08,0.95,610.91,-2.1,9.9
0.68,1.5,0.0,0.25,1.25,0.0,0.0,0.0,0.0,0.0,1.0,0.0,0.0,0.0,-0.67,0.58,1.58,54.47,16.5,38.5,2.0,1.5,4.25,4.5,6.75,6.75,5.5,5.5,1.0,3.5,2.5,1.0,1.25,0.08,0.14,0.95,613.83,-2.9,14.4
0.7,1.5,0.0,1.25,1.0,0.0,0.0,0.0,0.0,0.0,0.5,0.0,0.0,0.0,-0.61,0.58,1.83,77.87,25.6,56.3,2.25,1.75,5.0,5.75,7.5,6.75,5.75,5.5,1.0,2.5,2.5,1.0,1.25,0.08,0.14,0.95,637.09,-4.4,19.9
0.72,0.75,0.0,0.25,0.25,0.0,0.0,0.0,0.0,0.0,0.0,0.0,0.0,0.0,-0.61,0.64,2.2,67.5,31.8,81.5,2.5,1.75,5.25,5.75,7.75,6.75,6.25,5.5,1.0,2.25,2.5,1.0,1.25,0.08,0.14,0.95,667.63,-5.0,21.3
0.74,1.5,0.0,0.0,0.25,0.0,0.0,0.0,0.0,0.0,0.0,0.0,0.0,0.0,-0.55,0.77,2.45,54.73,32.1,91.5,3.5,1.75,6.25,6.0,8.0,6.75,6.5,5.5,1.0,2.25,2.5,1.0,1.25,0.08,0.08,0.95,715.81,-6.3,23.9
0.76,0.75,0.0,0.25,0.25,0.0,0.0,0.0,0.0,0.0,0.5,0.0,0.0,0.0,-0.48,0.95,2.64,42.85,18.0,35.8,3.75,2.0,7.25,7.75,8.25,6.75,7.0,5.0,0.5,1.0,2.5,0.25,1.25,0.08,0.14,0.95,770.43,-8.3,32.4
0.78,1.5,0.0,0.25,1.0,0.0,0.0,0.0,0.0,0.0,0.5,0.0,0.0,0.0,-0.48,1.2,2.45,45.61,21.5,54.7,3.75,1.0,7.0,6.5,7.5,6.5,7.25,4.5,0.0,0.75,1.25,0.25,0.25,0.08,0.14,0.95,760.74,-9.0,38.1
0.8,1.0,0.0,0.0,1.0,0.0,0.0,0.0,0.0,0.0,0.25,0.0,0.0,0.0,-0.36,1.45,1.52,43.43,20.9,59.6,4.25,1.0,7.75,7.75,8.5,6.75,7.75,4.5,0.0,1.0,1.0,0.25,0.25,0.08,0.14,0.95,772.69,-9.5,39.8
0.82,0.0,0.0,0.5,0.25,0.0,0.0,0.0,0.0,0.0,0.0,0.0,0.0,0.0,0.02,1.52,1.39,34.71,31.1,59.9,5.0,1.0,8.0,8.0,8.0,6.75,7.75,4.25,0.0,0.75,0.75,0.25,0.25,0.08,0.14,0.95,775.48,-10.5,42.3
0.84,0.0,0.0,0.0,1.0,0.0,0.0,0.0,0.0,0.0,0.0,0.0,0.0,0.0,0.14,1.89,0.83,23.55,17.2,57.9,5.5,1.0,8.75,9.0,8.75,6.75,8.0,3.75,0.0,0.0,0.75,0.25,0.25,0.02,0.14,1.02,801.68,-11.7,46.2
0.86,0.0,0.0,0.5,1.0,0.0,0.0,0.0,0.0,0.0,0.0,0.0,0.0,0.0,0.58,2.27,0.52,15.76,24.1,58.9,6.25,1.0,9.25,8.5,8.75,6.5,7.75,3.25,0.0,0.75,0.5,0.25,0.25,0.02,0.14,1.02,820.16,-12.3,46.7
0.88,0.0,0.0,0.0,0.25,0.0,0.0,0.0,0.0,0.0,0.0,0.0,0.0,0.0,0.77,2.27,0.33,7.49,17.2,57.9,7.0,1.5,9.0,9.75,9.25,6.25,8.0,3.25,0.0,0.75,0.75,0.0,0.25,0.02,0.2,1.02,862.84,-12.6,48.3
0.9,0.0,0.0,0.5,0.5,0.0,0.0,0.0,0.0,0.0,0.0,0.0,0.0,0.0,0.2,1.83,0.45,7.45,27.6,59.4,7.0,1.75,9.75,10.0,8.75,5.5,8.0,2.0,0.0,1.5,0.5,0.75,0.25,-0.05,0.27,0.89,885.32,-13.9,47.6
0.92,0.0,0.0,1.25,0.75,0.0,0.0,0.0,0.0,0.0,0.0,0.0,0.0,0.0,-0.05,1.39,0.64,15.61,30.2,59.8,8.25,2.5,11.5,11.5,9.5,5.25,8.25,2.75,0.25,1.0,1.25,0.75,0.5,0.02,0.27,1.14,956.8,-14.7,47.4
0.94,1.0,0.0,0.5,0.5,0.0,0.0,0.0,0.0,0.0,2.0,0.0,0.0,0.5,-0.42,1.14,0.64,35.97,5.1,-12.1,8.75,2.5,11.5,11.5,9.0,3.5,8.25,1.75,0.25,0.75,1.0,0.25,1.0,0.08,0.33,1.2,993.6,-16.7,50.7
0.96,0.5,0.0,1.0,0.5,0.0,0.0,0.0,0.0,0.0,2.0,0.0,0.0,1.75,-0.3,2.2,3.08,61.5,1.4,-36.1,8.5,2.0,10.5,9.5,8.5,1.25,8.0,1.0,0.0,0.25,0.25,0.25,0.25,0.02,0.39,1.27,951.57,-19.6,57.9
0.98,0.0,0.0,0.0,0.25,0.0,0.0,0.0,0.0,0.0,3.0,0.0,4.5,4.75,0.14,0.45,2.08,125.09,-5.5,-98.2,8.75,2.0,9.5,8.0,6.5,2.0,7.5,1.75,0.25,0.5,1.25,0.75,0.5,0.02,0.52,1.45,873.92,-18.4,49.7
1.0,0.5,0.0,0.0,0.25,0.0,0.0,0.0,0.0,0.0,3.5,4.0,5.25,6.5,0.2,0.58,2.89,209.84,-1.8,-90.1,9.0,2.0,8.5,5.75,6.5,0.5,6.75,0.25,0.0,0.5,0.0,0.25,0.25,0.14,0.83,2.08,746.25,-21.5,61.3
1.02,1.5,0.0,0.75,0.5,0.0,0.0,0.0,0.0,0.25,6.25,5.25,6.0,6.5,-0.86,0.2,2.02,297.62,0.3,-75.7,8.25,1.5,5.75,4.0,3.5,0.75,6.0,0.25,0.25,0.75,0.0,0.5,0.25,0.45,1.08,2.39,591.0,-22.0,57.6
1.04,0.0,0.0,0.25,0.5,0.0,0.0,0.0,0.0,1.0,7.75,7.0,5.5,7.0,-0.11,-0.11,0.77,391.25,-2.3,-85.6,7.0,0.25,5.75,1.25,4.5,0.5,4.5,0.25,0.0,0.0,0.0,0.25,0.25,0.33,0.89,2.83,428.45,-22.8,61.4
1.06,0.5,0.0,1.0,0.25,0.0,0.0,0.5,0.25,1.75,7.0,7.25,4.25,6.5,-0.55,0.2,1.52,464.1,-0.1,-76.2,5.0,1.0,2.5,2.5,3.25,1.5,2.5,1.75,0.0,0.0,1.0,0.0,0.25,0.52,0.39,2.83,320.06,-14.4,48.4
1.08,0.0,0.0,0.0,0.5,0.0,0.0,0.0,2.75,0.0,7.75,6.75,0.0,5.0,-0.17,0.39,1.7,461.46,-6.9,-75.7,0.5,0.0,3.25,0.0,3.5,0.5,1.0,0.0,0.0,0.0,0.0,0.0,0.0,0.58,-0.73,1.95,208.09,-15.4,56.2
1.1,0.0,0.0,0.0,0.25,0.0,0.0,0.0,2.25,1.0,7.0,0.0,0.0,4.0,-0.11,0.08,0.95,389.18,-12.8,-74.6,1.5,0.0,0.75,0.0,1.25,0.5,0.25,0.5,0.0,0.0,0.0,0.0,0.0,1.2,0.14,2.39,93.08,-12.4,55.5
1.12,0.0,0.0,0.25,0.5,0.0,0.0,0.0,3.0,0.75,7.0,7.5,0.0,3.0,-0.11,0.08,0.95,359.63,-4.4,-69.2,1.0,0.0,1.25,0.0,1.25,0.5,0.5,0.0,0.0,0.25,0.0,0.0,0.0,0.39,-1.17,1.95,0.0,-15.1,54.2
1.14,0.0,0.0,0.0,2.5,0.0,0.0,0.5,2.25,1.75,6.5,7.25,0.0,0.0,-0.11,0.08,0.95,325.16,0.4,-49.9,1.0,0.0,1.0,0.0,1.0,0.5,0.75,0.5,0.0,0.0,0.0,0.0,0.25,0.33,-0.48,1.08,0.0,-12.1,41.2
1.16,0.0,0.0,0.0,1.25,0.0,0.0,0.75,2.25,1.75,6.25,7.25,0.0,0.0,-0.11,0.08,0.95,305.6,-0.2,-56.5,0.75,0.0,0.5,0.5,1.75,0.5,0.5,0.0,0.0,0.0,0.0,0.0,0.25,0.45,-0.36,0.39,0.0,-8.4,49.2
1.18,0.0,0.0,0.0,1.75,0.0,0.0,0.75,1.25,1.5,5.25,7.0,0.0,0.0,-0.11,0.08,0.95,280.11,1.8,-52.9,0.75,0.0,0.25,0.5,0.5,0.5,0.5,0.0,0.0,0.0,0.25,0.0,0.25,0.33,-0.3,0.7,0.0,-11.4,37.1
1.2,0.0,0.0,2.0,2.5,0.0,0.0,1.5,1.0,1.5,4.75,5.5,0.0,0.0,-0.11,0.08,0.95,258.66,7.3,-31.1,0.5,0.0,0.5,0.5,0.0,0.5,0.5,0.5,0.0,0.25,0.0,0.0,0.0,0.08,-0.11,1.08,0.0,-10.0,30.9
1.22,0.0,0.0,3.25,2.0,0.0,0.0,1.5,1.25,1.75,3.75,6.0,0.0,1.25,-0.11,0.14,0.95,240.47,8.6,-31.6,0.5,0.0,0.25,0.5,1.25,0.5,0.25,0.25,0.0,0.25,0.0,0.0,0.0,-0.05,0.27,1.02,0.0,-4.0,42.2
1.24,0.0,0.0,3.0,2.25,0.0,0.0,2.5,1.25,1.0,2.5,5.75,0.0,0.25,-0.11,0.14,0.95,222.84,11.9,-21.2,0.75,0.0,0.5,0.25,1.25,0.5,0.5,0.25,0.0,0.25,0.0,0.0,0.0,-0.17,0.77,0.58,0.0,-7.9,45.1
1.26,0.0,0.0,3.0,4.25,0.0,0.0,2.25,0.0,1.75,4.0,4.5,0.75,1.25,-0.11,0.08,0.95,229.73,10.8,-21.4,0.75,0.0,0.75,0.25,0.25,0.5,0.25,0.5,0.0,0.0,0.0,0.25,0.25,-0.36,0.64,0.7,4.73,-11.3,25.0
1.28,0.0,0.0,5.5,4.25,0.0,0.0,3.0,1.0,1.75,4.0,5.25,0.0,1.25,-0.11,0.08,0.95,255.69,12.9,-11.7,2.0,0.75,1.75,1.25,3.0,1.25,0.0,1.5,0.25,1.25,1.0,0.75,0.75,-0.36,0.64,1.2,91.27,-5.8,16.9
1.3,0.0,0.0,0.0,3.5,0.0,0.0,3.5,1.0,1.25,2.25,5.0,0.0,0.0,-0.11,0.14,0.95,246.22,9.0,-24.7,1.75,1.0,0.5,1.25,2.25,1.0,0.0,1.0,0.25,1.0,1.0,0.75,0.75,-0.3,0.77,1.45,145.51,-4.6,13.8
1.32,0.0,0.0,0.0,5.25,0.0,0.0,3.5,0.0,1.75,3.75,4.5,0.0,0.0,-0.11,0.14,0.95,243.67,9.2,-18.4,2.0,0.25,1.5,1.25,3.75,0.75,0.25,1.75,0.25,1.5,1.0,0.75,1.0,-0.23,1.08,1.45,208.12,-4.6,10.9
1.34,0.0,0.0,0.0,4.5,0.0,0.0,4.5,1.0,1.75,3.75,5.0,1.5,1.25,-0.11,0.14,0.95,247.75,6.8,-34.6,1.75,0.0,1.5,1.25,3.25,1.25,0.0,1.75,0.25,1.5,1.0,0.75,1.0,-0.05,1.2,1.33,232.44,-3.3,7.1
1.36,0.0,0.0,0.0,6.25,0.0,0.0,4.75,1.25,2.0,3.75,5.75,1.5,1.25,-0.11,0.14,0.95,264.8,7.7,-28.6,1.25,0.25,0.75,1.25,3.75,1.0,0.25,1.25,0.25,1.25,0.75,0.75,0.75,0.14,1.2,1.2,240.89,-2.1,11.2
1.38,0.0,0.0,0.0,6.25,0.0,0.0,5.0,1.25,2.25,3.75,5.75,1.5,1.25,-0.11,0.14,0.95,286.36,7.8,-28.4,1.75,0.75,1.5,1.25,3.25,0.75,0.5,1.5,0.25,1.25,0.75,0.75,1.25,0.27,1.08,1.2,243.35,-5.2,12.6
1.4,0.0,0.5,0.0,6.75,0.0,0.0,5.5,0.0,2.25,3.5,5.75,1.5,1.25,-0.11,0.08,0.95,306.18,9.9,-22.3,1.5,1.0,1.5,1.25,3.75,1.25,0.5,1.75,0.25,1.0,1.25,0.75,1.0,0.27,1.14,1.27,252.26,-4.3,14.6
1.42,0.0,0.75,0.0,7.5,0.0,0.0,5.75,0.0,1.0,2.75,5.5,1.5,1.25,-0.11,0.08,0.95,313.81,11.0,-14.8,1.25,1.0,1.5,1.25,3.5,1.0,0.5,1.75,0.25,1.25,0.25,0.75,0.5,0.39,1.2,1.33,253.63,-4.2,20.8
1.44,0.0,0.75,0.0,8.0,0.0,0.0,6.0,0.0,1.25,2.25,4.75,1.5,1.0,-0.11,0.14,0.95,309.74,12.1,-8.8,1.25,1.0,1.25,1.25,5.0,1.25,0.5,1.5,0.25,1.5,1.0,0.75,0.75,0.33,1.2,1.14,260.52,-2.7,17.2
1.46,0.0,0.75,0.0,8.25,0.0,0.0,6.5,0.0,1.75,2.0,4.0,0.5,1.0,-0.11,0.14,0.95,301.88,12.9,-0.7,1.25,1.0,1.5,1.25,3.75,1.0,0.5,1.5,0.25,1.25,1.0,0.75,0.75,0.2,1.33,0.89,257.04,-4.4,15.9
1.48,0.0,1.0,0.0,9.0,0.0,0.0,6.5,1.0,1.5,2.0,3.0,0.5,1.0,-0.11,0.14,1.02,301.82,11.9,4.4,1.5,1.0,1.0,1.25,3.25,1.25,0.5,1.0,0.25,1.25,1.25,0.75,0.75,0.02,1.33,0.64,248.87,-4.4,14.8
1.5,0.0,0.0,0.0,0.0,0.0,0.0,7.5,2.0,0.0,0.0,2.75,0.0,0.0,-0.17,0.14,1.02,245.8,13.5,-21.8,1.75,1.0,1.0,1.25,3.75,1.25,0.5,1.25,0.25,1.0,1.0,0.75,1.0,-0.11,1.14,0.45,239.84,-4.2,17.3
1.52,0.0,0.0,0.0,0.0,0.0,0.0,2.25,0.0,0.0,0.0,0.0,0.0,0.0,-0.23,0.14,1.02,159.89,32.4,27.3,1.25,1.0,1.0,1.25,3.5,0.75,0.5,1.5,0.25,1.25,0.5,0.75,0.25,-0.36,1.08,0.52,223.5,-4.3,20.9
1.54,0.0,0.0,0.0,0.0,0.0,0.0,3.5,0.0,0.75,0.0,0.0,0.0,0.0,-0.05,0.08,1.08,77.79,26.2,7.1,1.25,1.0,1.5,1.25,2.75,1.25,0.5,0.75,0.25,1.0,1.0,0.0,0.75,7.95,6.83,-2.42,214.3,-5.9,24.7
1.56,8.75,0.0,9.25,10.5,0.0,0.0,7.0,0.0,0.25,0.0,1.0,0.0,0.0,-0.11,0.14,1.14,184.88,28.9,60.9,0.0,0.0,0.25,0.0,1.0,0.5,0.0,0.25,0.0,0.0,0.0,0.0,0.0,0.27,-0.73,-2.86,150.83,4.1,39.3
1.58,8.5,0.0,11.0,9.0,0.0,0.0,6.25,0.0,0.0,0.0,0.0,0.0,0.0,-0.17,0.2,1.14,282.59,30.6,66.1,0.0,0.0,0.25,0.0,0.0,0.5,0.0,0.0,0.0,0.0,0.0,0.75,0.0,-1.55,2.45,0.39,88.49,-3.8,-33.9
1.6,0.0,0.0,9.5,10.5,0.0,0.0,5.75,0.0,0.0,0.0,0.0,0.0,0.0,-0.17,0.27,1.08,355.89,27.7,55.6,0.0,0.0,0.25,0.0,0.5,0.5,0.0,0.25,0.0,0.0,0.0,0.0,0.0,0.64,0.27,0.08,27.73,4.5,34.0
1.62,0.0,0.0,12.0,10.5,0.0,0.0,6.0,0.0,0.5,0.0,0.0,0.0,0.0,-0.17,0.27,1.14,394.43,28.4,54.2,0.0,0.0,0.0,0.0,0.0,2.75,0.0,0.25,0.0,1.0,0.0,0.25,0.25,-0.36,0.52,1.08,8.31,18.5,-12.0
1.64,0.0,0.0,11.5,9.0,0.0,0.0,5.0,0.0,0.25,0.0,0.0,0.0,0.0,-0.17,0.33,1.2,389.45,29.1,55.3,1.75,1.0,0.5,1.25,0.0,3.25,0.25,4.25,0.25,5.0,3.25,1.0,1.0,-0.55,2.52,2.14,99.0,3.2,-23.9
1.66,0.0,0.0,9.5,8.0,0.0,0.0,5.0,0.0,0.25,0.0,0.0,0.0,0.0,-0.17,0.45,1.27,359.06,28.8,54.7,1.5,1.0,0.75,1.25,0.25,5.0,0.5,4.5,0.25,3.75,3.25,1.0,1.75,0.08,0.02,0.95,194.75,4.1,-19.2
1.68,0.0,0.0,9.5,8.0,0.0,0.0,5.0,0.0,0.5,0.0,0.0,0.5,0.0,-0.3,0.64,1.14,340.8,28.1,49.8,0.75,0.5,0.0,0.0,0.0,6.0,0.25,4.5,0.0,1.75,1.5,0.25,0.25,0.14,0.08,0.89,233.44,12.0,-10.2
1.7,9.0,0.0,8.75,7.25,0.0,0.0,4.25,0.0,0.25,0.0,0.0,0.0,0.0,-0.05,0.58,1.39,369.62,30.7,68.0,0.25,0.0,0.25,0.0,0.0,6.25,0.0,5.25,0.25,3.5,0.75,1.0,0.25,0.14,0.2,0.89,249.28,14.0,-24.7
1.72,9.25,0.0,8.25,6.25,0.0,0.0,4.0,0.0,0.5,0.0,0.0,0.0,0.0,-0.17,0.89,1.27,389.16,30.9,68.0,1.25,0.25,0.0,1.25,0.0,6.5,0.0,6.25,0.25,3.25,0.5,0.75,0.75,0.14,0.14,0.95,262.07,10.9,-13.3
1.74,9.0,0.0,7.0,2.75,0.0,0.0,3.5,0.0,0.0,0.0,0.0,0.0,0.0,-0.23,0.83,1.2,381.9,33.4,73.1,1.75,1.0,0.25,1.25,1.5,7.5,0.25,7.25,0.25,3.75,2.0,0.75,1.25,0.14,0.08,0.89,300.25,8.0,-8.8
1.76,8.0,0.0,6.25,4.25,0.0,0.0,2.0,0.0,0.25,0.0,0.0,0.25,0.0,-0.17,0.77,1.39,351.08,31.3,69.2,1.25,0.5,0.75,1.25,3.75,7.75,0.0,7.75,0.25,4.25,2.5,1.0,1.25,0.2,0.08,0.95,368.41,7.9,-9.0
1.78,0.0,0.0,5.5,2.5,0.0,0.0,1.25,0.0,0.0,0.0,0.0,0.0,0.0,-0.23,0.39,1.27,261.8,31.6,57.8,1.25,1.0,0.5,1.25,3.75,8.0,0.0,8.25,0.25,4.25,3.0,1.0,1.25,0.14,0.08,0.95,447.08,8.0,-9.0
1.8,0.0,0.0,0.0,1.25,0.0,0.0,0.0,0.0,1.75,1.0,0.0,0.0,0.0,-0.05,-0.05,0.83,153.83,6.9,-16.4,1.25,1.0,0.5,1.25,4.25,8.5,0.0,8.75,0.25,3.75,2.5,1.0,1.25,0.27,0.08,0.89,507.33,8.4,-5.9
1.82,0.0,0.0,3.25,1.0,0.0,0.0,2.5,0.0,1.25,1.0,0.0,0.25,0.0,-0.55,0.39,1.2,97.53,23.1,18.2,1.5,1.0,0.0,1.25,4.25,9.0,0.0,8.75,0.0,3.75,2.75,1.0,1.5,0.27,0.08,0.89,530.45,9.0,-6.7
1.84,0.0,0.0,3.5,0.0,0.0,0.0,2.5,0.0,0.0,0.0,0.0,0.0,0.0,0.08,0.14,0.45,57.49,36.8,52.6,1.25,1.0,0.5,1.25,4.75,9.5,0.0,8.75,0.0,3.5,1.5,0.25,1.25,0.2,0.08,0.95,528.78,9.7,1.2
1.86,0.0,0.0,0.0,0.0,0.0,0.0,0.0,0.0,0.0,0.0,0.0,0.0,0.0,0.39,0.45,0.45,3.97,0.0,0.0,0.25,1.0,0.5,1.25,5.0,10.0,0.0,9.0,0.0,3.0,0.75,1.0,1.25,0.2,0.08,0.95,512.97,11.1,-0.5
1.88,2.25,0.0,0.0,0.75,0.0,0.0,0.0,0.0,0.0,0.5,0.0,0.0,0.0,0.7,0.27,0.27,0.0,23.3,62.9,1.25,1.25,0.5,1.25,5.75,11.0,0.0,9.0,0.0,3.5,0.75,0.75,1.75,0.27,0.08,0.95,516.82,10.1,2.9
1.9,0.0,0.0,2.75,0.25,0.0,0.0,0.0,0.0,0.0,0.0,0.0,0.0,0.0,0.95,0.2,0.27,0.0,36.5,60.7,1.25,1.25,0.25,1.25,6.25,12.0,0.0,8.75,0.0,3.5,1.25,1.0,1.25,0.39,0.08,0.95,542.54,10.2,4.2
1.92,0.0,0.0,1.25,0.5,0.0,0.0,0.0,0.0,0.0,0.25,0.0,0.0,0.0,1.08,-0.11,0.64,0.0,26.3,43.6,0.5,0.5,0.75,0.0,7.25,11.0,0.25,7.75,0.0,1.75,0.0,0.25,0.5,0.39,0.14,1.08,525.97,12.0,14.0
1.94,0.0,0.0,2.75,0.5,0.0,0.0,0.0,0.0,0.0,0.0,0.0,0.0,0.0,1.08,-0.42,0.58,0.0,35.0,60.5,1.75,1.75,0.25,1.25,7.0,12.5,0.0,6.75,0.0,2.0,0.25,0.0,0.5,0.2,0.2,1.14,515.47,9.6,22.6
1.96,0.5,0.0,1.75,0.0,0.0,0.0,0.5,0.0,0.0,0.75,0.0,0.0,0.0,1.08,-0.42,0.33,0.0,24.9,32.3,2.0,1.0,0.75,1.25,8.0,11.5,0.25,6.25,0.0,2.25,0.75,0.0,1.25,0.27,0.27,1.2,503.88,8.2,18.7
1.98,0.0,0.0,2.75,1.25,0.0,0.0,0.0,0.0,0.0,0.75,0.0,0.0,0.0,1.33,-0.55,0.7,24.17,24.3,39.2,3.0,2.0,0.5,0.0,8.0,8.5,0.0,5.25,0.0,0.75,0.75,0.25,0.25,0.27,0.33,1.2,470.47,5.4,30.3
2.0,0.0,0.0,2.75,1.25,0.0,0.0,0.0,0.0,0.0,0.75,0.0,0.0,0.0,1.14,-0.86,1.27,46.85,24.3,39.2,3.75,3.25,0.0,1.25,7.25,8.0,0.0,4.25,0.25,1.0,0.75,0.25,1.0,0.52,0.58,1.45,453.89,3.2,32.0
2.02,0.0,0.0,2.75,1.25,0.0,0.0,0.0,0.0,0.25,0.75,0.0,0.0,0.0,1.08,-1.05,1.2,73.36,23.7,35.4,5.0,3.25,0.0,1.25,7.25,7.25,0.25,3.25,0.25,0.75,1.0,0.25,0.75,0.02,0.27,1.58,440.95,0.4,37.9
2.04,1.5,0.0,2.75,1.25,0.0,0.0,0.0,0.0,0.0,1.0,0.0,0.0,0.0,1.39,-0.86,1.2,91.48,25.1,47.3,5.25,3.25,1.25,1.25,7.5,6.25,0.5,3.0,0.25,0.5,1.25,0.75,1.5,-0.23,0.45,1.2,445.34,-2.2,34.3
2.06,2.0,0.0,2.75,1.25,0.0,0.0,0.0,0.0,0.0,0.5,0.0,0.0,0.0,1.52,-0.48,1.45,102.52,28.9,60.4,3.75,1.5,0.5,0.0,6.75,3.75,0.5,2.0,0.0,0.75,1.25,0.25,0.0,-0.3,1.14,0.7,385.39,-1.5,38.3
2.08,1.75,0.0,2.75,1.0,0.0,0.0,0.0,0.0,0.0,0.75,0.0,0.0,0.25,1.14,-0.11,1.64,114.53,25.8,47.2,2.0,0.25,0.5,0.0,6.25,3.0,0.25,2.0,0.0,0.0,0.0,0.0,0.0,0.02,1.33,0.45,311.58,2.0,43.7
2.1,2.5,0.0,2.75,0.75,0.0,0.0,0.0,0.0,0.0,0.75,0.0,0.0,0.0,0.77,0.2,1.7,121.67,28.6,58.1,0.0,0.0,0.0,0.0,3.75,1.75,0.25,0.0,0.0,0.0,0.0,0.25,0.25,1.64,1.95,-1.11,213.67,7.4,35.7
2.12,2.0,0.0,2.75,1.0,0.0,0.0,0.0,0.0,0.25,0.75,0.0,0.0,0.0,1.27,0.08,1.7,121.58,27.1,51.8,0.0,0.0,0.0,0.0,2.75,1.75,0.0,1.75,0.0,0.0,0.0,0.25,0.0,0.2,3.45,-1.98,125.72,11.0,19.2
2.14,1.5,0.0,2.75,1.0,0.0,0.0,0.0,0.0,0.0,1.0,0.0,0.0,0.25,1.64,0.08,2.14,120.84,23.8,40.7,0.0,0.0,0.5,0.0,3.0,1.5,0.0,1.5,0.0,0.0,0.0,0.0,0.25,-0.11,1.7,1.77,63.61,7.3,25.0
2.16,2.0,0.0,2.75,1.0,0.0,0.0,0.0,0.0,0.0,0.5,0.0,0.0,0.0,1.33,0.27,2.14,118.54,29.4,60.5,0.0,0.0,0.25,0.0,2.5,1.0,0.0,1.5,0.0,0.0,0.0,0.0,0.0,-0.92,0.89,1.33,33.07,8.3,25.8
2.18,2.5,0.0,2.5,0.5,0.0,0.0,0.0,0.0,0.0,0.75,0.0,0.0,0.0,0.64,0.7,1.58,114.25,28.7,58.0,0.0,0.0,0.25,0.0,2.5,0.75,0.25,1.75,0.0,0.0,1.25,0.25,0.75,-1.23,0.2,0.95,25.22,4.6,-9.2
2.2,2.5,0.0,2.5,0.5,0.0,0.0,0.0,0.0,0.0,0.75,0.0,0.0,0.0,0.27,0.77,1.39,110.98,28.7,58.0,0.0,0.0,0.0,0.0,2.25,0.5,0.0,1.75,0.0,0.0,0.0,0.0,0.0,1.08,-1.67,0.14,14.47,10.1,18.1
2.22,2.25,0.0,2.0,0.75,0.0,0.0,0.0,0.0,0.0,0.75,0.0,0.0,0.0,0.27,0.45,1.45,104.83,27.0,56.1,0.0,0.0,0.0,0.0,2.5,0.75,0.0,1.25,0.0,0.0,0.0,0.0,0.0,0.95,-1.55,0.39,13.22,9.6,26.9
2.24,1.5,0.0,2.25,0.5,0.0,0.0,0.0,0.0,0.0,0.75,0.0,0.0,0.0,0.33,0.14,0.77,96.66,27.0,50.5,0.0,0.0,0.0,0.0,3.25,0.5,0.25,1.0,0.0,0.0,0.0,0.0,0.0,0.2,-0.48,0.58,11.36,6.7,33.9
2.26,1.75,0.0,2.25,0.75,0.0,0.0,0.0,0.0,0.0,0.75,0.0,0.25,0.25,0.2,0.14,0.33,93.77,24.4,39.1,0.75,1.0,0.25,1.25,2.75,2.0,0.25,1.0,0.25,1.0,0.0,0.75,1.0,0.14,-0.3,0.2,62.14,1.3,14.4
2.28,1.5,0.0,2.25,0.5,0.0,0.0,0.0,0.0,0.25,0.75,0.25,0.0,0.25,-0.11,-0.3,-0.55,90.41,23.8,34.1,0.0,0.0,0.5,0.0,4.25,0.5,0.5,1.0,0.0,0.0,0.5,0.0,0.0,0.45,0.27,0.14,86.93,1.4,31.7
2.3,1.5,0.0,2.25,0.5,0.0,0.0,0.0,0.0,0.0,0.75,0.0,0.0,0.0,-0.17,-0.92,0.27,87.33,27.0,50.5,0.0,0.0,0.25,0.0,2.5,0.5,0.5,0.5,0.0,0.0,0.0,0.0,0.0,0.52,0.27,0.64,100.33,2.5,39.8
2.32,1.5,0.0,2.25,0.5,0.0,0.0,0.0,0.0,0.0,0.5,0.0,0.0,0.0,0.14,-1.36,1.27,82.97,29.2,57.1,0.0,0.0,0.0,0.0,2.25,0.5,0.5,1.0,0.0,0.0,0.0,0.0,0.5,1.2,0.08,1.14,93.92,7.3,13.8
2.34,1.5,0.0,2.25,0.5,0.0,0.0,0.0,0.0,0.25,1.0,0.0,0.0,0.25,0.52,-1.3,1.45,83.97,22.7,34.0,0.0,0.0,0.0,0.0,2.25,0.5,0.25,0.75,0.0,1.5,0.0,0.5,0.0,1.95,0.27,1.33,90.3,7.9,-6.4
2.36,1.5,0.0,2.25,0.5,0.0,0.0,0.0,0.0,0.0,0.75,0.0,0.0,0.0,0.58,-0.55,0.64,82.38,27.0,50.5,0.75,1.0,0.5,1.25,3.75,2.0,0.5,1.75,0.25,1.75,1.0,0.5,0.5,1.52,1.27,0.52,134.85,1.0,11.8
2.38,1.5,0.0,2.0,0.5,0.0,0.0,0.0,0.0,0.0,0.5,0.0,0.0,0.0,0.7,-0.3,0.58,79.89,28.7,56.9,0.75,1.0,0.5,1.25,4.25,2.0,0.5,1.75,0.25,1.75,1.0,0.25,0.75,1.45,1.33,-0.36,183.46,1.4,13.2
2.4,1.5,0.0,2.0,0.5,0.0,0.0,0.0,0.0,0.25,0.75,0.0,0.0,0.0,0.7,-0.23,0.58,79.22,25.7,45.5,0.75,0.75,0.5,1.0,3.75,1.75,0.5,1.0,0.25,1.5,1.0,0.5,0.5,1.27,0.95,-0.55,216.64,0.1,13.3
2.42,1.25,0.0,1.75,0.5,0.0,0.0,0.0,0.0,0.0,0.75,0.25,0.0,0.0,0.52,-0.36,0.2,76.16,24.4,40.0,1.0,1.0,1.0,1.25,4.25,1.5,0.5,1.5,0.25,1.5,1.0,0.25,0.75,1.2,0.52,0.45,236.23,-1.4,17.6
2.44,1.5,0.0,1.75,0.5,0.0,0.0,0.0,0.0,0.25,1.0,0.25,0.0,0.0,-0.17,0.2,0.52,77.85,22.4,33.3,0.75,1.0,0.5,1.25,3.75,1.5,0.75,1.75,0.25,1.5,0.25,0.5,0.75,1.02,0.64,0.39,240.44,0.6,14.9
2.46,1.5,0.0,1.75,0.5,0.0,0.0,0.0,0.0,0.25,0.75,0.25,0.0,0.0,-0.36,-0.11,0.02,78.94,24.3,38.8,0.75,1.0,0.5,1.25,3.75,1.25,0.5,1.5,0.25,1.25,1.0,0.25,0.75,0.58,0.83,-0.23,236.13,-0.4,14.6
2.48,1.5,0.0,2.0,0.5,0.0,0.0,0.0,0.0,0.25,0.75,0.0,0.0,0.0,0.02,-0.3,-0.17,81.25,25.7,45.5,0.75,1.0,0.75,1.25,3.75,1.75,0.5,1.75,0.25,1.0,0.75,0.5,0.0,0.64,0.77,-0.36,230.57,-1.0,22.8
2.5,1.25,0.0,1.5,0.5,0.0,0.0,0.0,0.0,0.0,0.75,0.0,0.0,0.0,0.52,-0.42,-0.36,75.6,24.3,45.6,0.75,1.0,0.75,1.25,3.75,1.25,0.5,1.75,0.25,1.0,0.75,0.5,0.75,0.58,0.52,-0.3,228.65,-1.0,15.4
2.52,1.75,0.0,1.75,0.75,0.0,0.0,0.0,0.0,0.0,1.0,0.0,0.25,0.25,0.83,-0.61,-0.36,80.87,21.4,32.1,0.75,1.0,0.5,1.25,3.75,1.25,0.5,1.75,0.25,1.25,1.25,0.75,0.5,0.64,0.39,-0.17,231.58,-0.8,10.3
2.54,1.25,0.0,2.0,0.5,0.0,0.0,0.0,0.0,0.25,0.0,0.25,0.5,0.0,0.45,-0.86,-0.55,79.99,29.3,39.6,0.75,0.5,0.5,1.25,3.75,1.25,0.5,1.75,0.25,1.0,0.75,0.75,0.75,1.02,0.27,-0.17,227.14,-0.1,9.3
2.56,1.0,0.0,1.75,0.5,0.0,0.0,0.0,0.0,0.5,0.0,0.5,0.25,0.5,0.33,-1.17,-0.67,81.28,23.4,18.4,1.0,0.75,0.5,1.25,3.75,0.75,0.5,1.5,0.25,1.5,0.75,0.5,1.0,1.2,-0.05,0.27,220.75,-0.9,9.4
2.58,1.25,0.0,1.25,0.5,0.0,0.0,0.0,0.0,0.25,0.75,0.25,0.25,0.25,0.2,-1.17,-0.17,78.55,19.4,17.5,0.75,1.0,0.5,1.25,3.75,1.0,0.5,1.25,0.25,1.25,1.0,0.75,1.0,1.2,-0.05,0.14,213.15,-1.1,8.8
2.6,1.5,0.0,1.25,0.5,0.0,0.0,0.0,0.0,0.25,0.0,1.25,0.25,0.0,-0.11,-0.3,0.45,79.4,25.5,23.9,1.25,0.75,0.5,1.25,3.75,0.75,0.0,1.75,0.25,1.0,1.0,0.75,0.75,0.7,0.02,0.02,205.54,-1.8,11.3
2.62,1.5,0.0,1.5,0.5,0.0,0.0,0.0,0.0,0.25,0.0,0.5,0.0,0.0,-0.05,-1.67,-0.3,75.74,29.8,51.3,0.75,1.0,0.5,1.25,3.75,0.75,0.5,1.75,0.25,1.0,1.0,0.75,0.75,-0.36,0.02,-0.11,205.71,-1.4,10.3
2.64,1.5,0.0,2.0,0.5,0.0,0.0,0.0,0.0,0.25,0.0,0.75,0.0,0.0,0.2,-1.11,0.58,77.38,29.8,46.1,1.0,1.0,0.5,1.25,3.75,1.0,0.5,1.25,0.25,1.0,1.25,0.75,0.75,1.02,-0.55,-0.11,207.98,-2.4,12.3
2.66,1.5,0.0,1.75,0.5,0.0,0.0,0.0,0.0,0.25,0.0,0.5,0.0,0.0,0.33,-1.23,0.33,76.71,30.3,51.8,1.0,1.0,0.5,1.25,3.75,1.0,0.5,1.25,0.25,1.0,0.75,0.75,0.75,0.7,-0.42,0.2,206.44,-2.1,15.4
2.68,2.25,0.0,1.5,0.5,0.0,0.0,0.0,0.0,0.25,0.0,0.75,0.25,0.0,0.27,-1.05,0.33,81.19,28.7,44.2,1.0,1.0,0.5,1.25,3.75,0.75,0.5,1.0,0.25,1.0,1.0,0.75,1.25,0.64,-0.17,0.08,207.35,-2.4,10.0
2.7,1.75,0.0,1.5,0.5,0.0,0.0,0.0,0.0,0.0,0.0,0.25,0.25,0.0,0.27,-0.98,0.39,78.73,31.0,56.9,0.75,0.75,0.5,1.25,3.75,1.0,0.5,1.25,0.25,1.5,0.75,0.75,1.0,0.77,-0.11,0.02,206.82,-0.4,7.1
2.72,2.25,0.0,1.5,0.5,0.0,0.0,0.0,0.0,0.25,0.25,0.5,0.5,0.0,0.14,-0.92,0.45,84.34,26.6,37.3,1.25,0.75,0.5,1.25,3.75,0.5,0.5,0.5,0.25,1.25,1.0,0.75,0.75,0.83,-0.11,0.02,202.73,-4.2,14.2
2.74,1.75,0.0,1.25,0.5,0.0,0.0,0.0,0.0,0.25,0.0,0.0,0.25,0.5,-0.11,-0.92,0.45,81.15,25.5,39.3,1.0,1.0,0.5,1.25,3.75,0.75,0.75,1.0,0.25,1.5,0.0,0.75,1.25,1.02,-0.11,0.2,201.74,-1.4,13.0
2.76,1.75,0.0,1.25,0.5,0.0,0.0,0.0,0.0,0.0,0.5,0.0,0.25,0.0,-0.11,-0.92,0.33,77.82,26.1,48.5,1.0,0.75,0.5,1.25,3.75,0.75,0.5,1.0,0.25,1.0,0.75,0.75,0.5,1.08,-0.11,0.2,197.64,-3.0,16.9
2.78,1.75,0.0,1.5,0.5,0.0,0.0,0.0,0.0,0.0,0.25,0.5,0.25,0.0,-0.05,-0.86,0.33,76.57,27.5,43.0,1.0,1.0,0.5,1.25,3.75,0.5,0.5,0.75,0.25,1.25,0.75,0.75,0.5,1.08,-0.05,0.08,195.65,-3.7,17.5
2.8,1.75,0.0,1.25,0.5,0.0,0.0,0.0,0.0,0.0,0.25,0.75,0.25,0.25,-0.05,-0.8,0.39,77.47,23.9,28.3,1.25,1.0,0.5,1.25,3.75,0.5,0.5,0.5,0.25,1.25,1.0,0.75,0.75,0.95,-0.05,0.02,194.68,-4.4,15.8
2.82,1.75,0.0,1.25,0.5,0.0,0.0,0.0,0.0,0.0,0.5,0.25,0.0,0.0,-0.05,-0.73,0.33,75.43,26.3,50.8,1.25,0.75,0.5,1.25,3.75,0.5,0.5,0.25,0.25,1.5,1.0,0.75,0.75,0.83,-0.11,0.14,194.27,-4.3,13.5
2.84,2.0,0.0,1.25,0.5,0.0,0.0,0.0,0.0,0.0,0.25,0.5,0.25,0.25,0.02,-0.67,0.33,77.11,25.1,36.7,0.75,0.75,0.5,1.25,3.75,0.5,0.5,0.5,0.25,1.5,1.0,0.75,0.5,0.7,-0.11,0.33,191.85,-3.1,11.9
2.86,1.75,0.0,1.25,0.5,0.0,0.0,0.0,0.0,0.0,0.25,0.0,0.0,0.0,-0.05,-0.61,0.39,72.83,30.1,67.6,1.25,1.0,0.5,1.0,3.75,0.75,0.5,1.0,0.25,1.0,0.25,0.75,0.5,0.58,-0.11,0.33,190.32,-3.2,22.7
2.88,1.5,0.0,1.25,0.5,0.0,0.0,0.0,0.0,0.0,0.5,1.0,0.5,0.0,0.08,-0.61,0.52,74.77,22.0,15.5,0.75,1.0,0.5,1.25,3.75,0.5,0.25,0.25,0.25,1.5,0.75,0.75,1.25,0.58,-0.05,0.39,189.97,-2.3,8.9
2.9,1.75,0.0,1.25,0.5,0.0,0.0,0.0,0.0,0.0,0.5,0.0,0.5,0.25,0.14,-0.48,0.39,74.74,23.0,31.5,1.25,0.75,0.5,1.25,3.75,0.5,0.5,0.5,0.25,1.5,1.0,0.75,0.75,0.58,-0.05,0.39,192.26,-3.9,12.6
2.92,1.5,0.0,1.25,0.5,0.0,0.0,0.0,0.0,0.25,0.5,0.0,0.5,0.25,0.08,-0.55,0.33,76.25,21.9,24.5,1.25,0.75,0.5,1.25,3.5,0.5,0.5,0.5,0.25,1.5,1.0,0.75,1.0,0.64,-0.17,0.33,194.23,-3.7,9.4
2.94,1.75,0.0,1.25,0.5,0.0,0.0,0.0,0.0,0.25,0.5,0.5,0.5,0.25,0.02,-0.61,0.2,80.21,21.5,18.7,1.5,0.75,0.5,1.25,3.75,0.75,0.25,0.5,0.25,1.25,1.0,0.75,0.75,0.83,-0.23,0.45,197.57,-4.0,15.9
2.96,1.75,0.0,1.25,0.5,0.0,0.0,0.0,0.0,0.25,0.5,0.5,0.25,0.0,0.02,-0.55,0.33,81.3,23.9,32.0,1.0,1.0,0.5,1.25,3.75,0.5,0.25,0.5,0.25,1.5,1.0,0.75,0.75,0.83,-0.23,0.52,198.55,-3.2,12.6
2.98,1.75,0.0,1.25,0.5,0.0,0.0,0.0,0.0,0.25,0.5,0.5,0.5,0.25,-0.05,-0.55,0.45,85.15,21.5,18.7,1.0,1.0,0.5,1.25,3.5,0.5,0.5,0.75,0.25,1.5,1.5,0.75,0.25,0.7,-0.23,0.39,198.79,-4.2,12.4
3.0,1.75,0.0,1.25,0.5,0.0,0.0,0.0,0.0,0.25,0.5,0.5,0.25,0.25,-0.11,-0.61,0.52,85.56,22.1,24.9,1.0,1.0,0.5,1.25,3.75,0.75,0.5,0.25,0.25,1.25,1.0,0.75,1.0,0.7,-0.23,0.39,199.4,-3.4,13.4
3.02,1.5,0.0,1.25,0.5,0.0,0.0,0.0,0.0,0.0,0.5,0.5,0.0,0.0,-0.11,-0.61,0.45,81.39,24.9,40.9,1.25,1.0,0.5,1.25,3.25,0.5,0.5,0.25,0.25,1.5,1.0,0.75,0.75,0.77,-0.23,0.33,197.05,-4.8,13.4
3.04,1.5,0.0,1.25,0.5,0.0,0.0,0.0,0.0,0.25,0.5,0.5,0.25,0.0,-0.17,-0.61,0.39,78.85,23.4,28.7,0.25,0.75,0.5,1.25,3.75,0.5,0.5,0.25,0.25,1.25,1.0,0.75,0.5,0.83,-0.23,0.39,189.57,-2.6,11.5
3.06,1.5,0.0,1.25,0.5,0.0,0.0,0.0,0.0,0.25,0.5,0.5,0.25,0.5,-0.23,-0.61,0.45,79.34,19.7,15.0,1.5,1.0,0.5,1.25,3.75,0.75,0.5,0.25,0.25,1.25,1.0,0.75,0.75,0.83,-0.23,0.45,192.29,-4.8,18.5
3.08,1.5,0.0,1.25,0.5,0.0,0.0,0.0,0.0,0.0,0.5,0.5,0.0,0.0,-0.23,-0.61,0.64,76.26,24.9,40.9,0.75,0.75,0.5,1.0,3.25,0.5,0.5,0.75,0.25,1.25,0.25,0.75,0.25,0.7,-0.3,0.33,182.79,-3.0,18.1
3.1,1.5,0.0,1.25,0.5,0.0,0.0,0.0,0.0,0.25,0.5,1.0,0.0,0.0,-0.17,-0.86,0.7,77.49,22.9,25.4,1.0,1.0,0.5,1.25,3.5,0.5,0.5,0.25,0.25,1.5,0.75,0.75,0.75,0.7,-0.17,0.27,183.57,-3.9,14.5
3.12,1.5,0.0,1.25,1.0,0.0,0.0,0.0,0.0,0.0,0.5,0.75,0.5,0.0,-0.23,-1.05,0.77,80.1,22.1,23.6,1.25,0.75,0.5,1.25,3.75,0.5,0.5,0.0,0.25,1.5,1.0,0.75,0.75,0.58,-0.11,0.2,183.66,-4.7,14.5
3.14,1.5,0.0,1.25,0.25,0.0,0.0,0.0,0.0,0.0,0.5,1.0,0.25,0.0,-0.3,-0.92,0.52,79.75,23.0,19.8,0.0,1.0,0.5,1.25,3.75,0.5,0.5,0.0,0.25,1.5,1.0,0.75,0.75,0.83,-0.17,0.02,183.06,-1.9,8.3
3.16,1.0,0.0,1.25,0.5,0.0,0.0,0.0,0.0,0.25,0.5,0.75,0.25,0.0,-0.3,-0.8,0.58,76.94,21.5,15.8,1.25,0.75,0.5,1.25,3.5,0.5,0.5,0.25,0.25,1.75,1.0,0.75,0.5,0.89,-0.55,0.52,184.72,-4.4,13.4
3.18,1.0,0.0,1.25,0.5,0.0,0.0,0.0,0.0,0.25,0.5,0.75,0.25,0.0,-0.42,-0.48,0.64,73.71,21.5,15.8,1.0,1.0,0.5,1.25,3.5,0.75,0.0,0.5,0.25,1.5,0.75,0.75,1.0,0.89,-0.48,0.39,188.12,-2.2,11.2
3.2,1.25,0.0,1.25,0.5,0.0,0.0,0.0,0.0,0.0,0.5,1.0,0.5,0.0,-0.61,-0.42,0.39,74.19,21.4,11.6,0.75,1.0,0.5,1.25,3.5,0.5,0.5,0.25,0.25,1.5,1.0,0.75,1.0,0.7,-0.42,0.52,190.5,-3.1,8.9
3.22,1.25,0.0,1.25,0.25,0.0,0.0,0.0,0.0,0.0,0.5,0.75,0.25,0.0,-0.55,-0.42,0.52,71.24,23.1,21.0,1.25,1.0,0.5,1.25,3.25,1.0,0.5,0.25,0.25,1.5,1.0,0.75,1.25,0.45,-0.3,0.39,195.35,-3.1,9.6
3.24,1.75,0.0,1.25,0.5,0.0,0.0,0.0,0.0,0.0,0.5,0.75,0.5,0.0,-0.42,-0.48,0.58,75.7,23.1,23.5,1.25,0.75,0.5,1.0,3.25,0.5,0.75,0.75,0.25,1.5,1.0,0.75,0.5,0.33,-0.11,0.33,195.35,-4.1,11.4
3.26,1.75,0.0,1.25,0.5,0.0,0.0,0.0,0.0,0.0,0.5,1.0,0.5,0.0,-0.23,-0.42,0.7,80.11,22.6,19.0,0.75,1.0,0.5,1.25,3.5,0.5,0.5,0.25,0.25,1.25,1.0,0.75,0.75,0.52,-0.05,0.27,193.69,-3.9,13.0
3.28,1.75,0.0,1.25,0.75,0.0,0.0,0.0,0.0,0.25,0.5,0.75,0.25,0.0,-0.23,-0.36,0.7,84.57,23.0,28.4,1.0,1.0,0.5,1.25,3.5,0.5,0.5,0.0,0.25,1.5,1.0,0.75,1.0,0.58,-0.05,0.39,192.29,-4.1,11.4
3.3,1.5,0.0,1.25,0.5,0.0,0.0,0.0,0.0,0.0,0.75,0.5,0.25,0.0,-0.23,-0.36,0.77,83.35,21.9,26.7,0.75,1.0,0.5,1.25,3.25,0.5,0.5,0.25,0.25,1.5,1.0,0.75,0.75,0.45,-0.17,0.52,189.05,-3.6,10.3
3.32,0.5,0.0,1.25,0.5,0.0,0.0,0.0,0.0,0.0,0.5,1.0,0.25,0.0,-0.3,-0.3,0.77,77.48,19.8,4.0,1.25,0.75,0.5,1.25,3.75,0.5,0.5,0.5,0.25,1.75,1.0,0.75,0.5,0.45,-0.11,0.52,192.98,-3.8,13.3
3.34,0.75,0.0,1.25,0.5,0.0,0.0,0.0,0.0,0.0,0.0,1.0,0.25,0.0,-0.3,-0.42,0.64,68.89,25.6,20.6,1.0,0.75,0.5,0.5,3.75,0.5,0.5,0.25,0.25,1.0,1.0,0.75,0.5,0.52,-0.11,0.39,185.73,-4.0,15.4
3.36,2.0,0.0,1.25,0.5,0.0,0.0,0.0,0.0,0.0,0.5,1.0,0.0,0.0,-0.61,-1.48,0.77,70.99,24.5,35.1,0.75,0.75,0.5,1.25,3.75,0.5,0.5,0.0,0.25,1.0,1.0,0.75,0.5,0.64,-0.05,0.58,182.52,-4.7,17.8
3.38,2.0,0.0,1.25,0.75,0.0,0.0,0.0,0.0,0.0,0.5,1.0,0.5,0.0,-0.73,-1.3,1.14,79.71,22.8,23.9,1.0,0.75,0.5,1.0,3.75,0.5,0.5,0.0,0.25,1.5,0.5,0.75,0.25,0.83,-0.11,0.7,176.79,-4.3,21.2
3.4,1.5,0.0,1.25,0.5,0.0,0.0,0.0,0.0,0.0,0.5,0.5,0.0,0.25,-0.73,-0.42,1.45,81.2,22.7,32.1,0.75,1.0,0.5,1.25,3.75,0.5,0.5,0.0,0.25,1.0,1.25,0.75,0.75,1.2,-0.23,0.83,177.82,-4.6,15.0
3.42,1.75,0.0,1.25,0.5,0.0,0.0,0.25,0.0,0.0,0.5,0.5,0.0,0.0,-0.86,-0.48,1.45,81.18,25.6,43.4,1.25,0.5,0.5,0.75,3.5,0.75,0.5,0.25,0.25,1.0,1.0,0.75,0.5,1.14,-0.36,0.95,175.65,-4.4,15.6
3.44,1.25,0.0,1.25,0.5,0.0,0.0,0.25,0.0,0.0,0.5,0.75,0.0,0.0,-0.55,-0.67,1.14,76.58,23.8,30.9,1.0,0.75,0.5,1.25,3.5,0.5,0.5,0.0,0.25,1.5,0.75,0.75,0.5,0.95,-0.36,0.95,177.22,-4.5,16.5
3.46,0.75,0.0,1.25,0.5,0.0,0.0,0.25,0.0,0.0,0.5,0.25,0.25,0.0,-0.55,-0.55,0.95,69.23,23.0,26.8,1.0,1.0,0.5,1.25,3.75,0.5,0.5,0.0,0.25,1.5,1.0,0.75,0.75,0.83,-0.23,0.7,181.6,-4.3,14.7
3.48,0.75,0.0,1.25,0.5,0.0,0.0,0.25,0.0,0.25,0.75,0.5,0.5,0.25,-0.55,-0.3,0.89,67.92,17.2,-1.0,1.25,1.0,0.5,1.25,3.5,0.5,0.5,0.0,0.25,1.25,1.0,0.75,1.0,0.7,-0.11,0.58,186.89,-5.0,14.6
3.5,1.0,0.0,1.25,0.5,0.0,0.0,0.0,0.0,0.0,0.5,0.75,0.5,0.0,-0.3,-0.17,0.83,68.26,21.3,11.8,0.5,0.75,0.5,1.25,3.75,0.5,0.5,0.0,0.25,1.5,1.0,0.75,0.75,0.52,0.02,0.52,187.19,-2.9,9.8
3.52,1.25,0.0,1.25,0.5,0.0,0.0,0.0,0.0,0.0,0.5,1.0,0.5,0.0,-0.23,-0.11,0.83,72.71,21.4,11.6,0.75,1.0,0.5,1.25,3.75,0.5,0.5,0.0,0.25,1.5,1.0,0.75,0.5,0.45,0.02,0.64,187.75,-4.1,15.7
3.54,1.25,0.0,1.25,0.75,0.0,0.0,0.0,0.0,0.0,0.75,0.75,0.5,0.0,-0.3,-0.17,0.83,77.34,19.9,13.8,0.75,0.75,0.5,1.25,3.75,0.5,0.5,0.0,0.25,1.25,0.75,0.75,1.0,0.52,-0.05,0.7,186.41,-3.4,12.4
3.56,1.5,0.0,1.25,0.5,0.0,0.0,0.0,0.0,0.25,0.5,1.0,0.5,0.0,-0.36,-0.3,0.89,82.61,21.6,13.0,0.75,1.0,0.5,1.25,3.75,0.5,0.5,0.0,0.25,1.25,1.0,0.75,0.75,0.64,-0.17,0.7,186.4,-4.1,15.0
3.58,1.75,0.0,1.25,0.25,0.0,0.0,0.0,0.0,0.0,0.5,1.0,0.5,0.0,-0.36,-0.36,0.89,83.52,22.9,17.1,1.5,1.0,0.5,1.25,3.5,0.5,0.5,0.0,0.25,1.5,1.0,0.75,0.75,0.7,-0.23,0.64,190.85,-5.5,16.8
3.6,1.25,0.0,1.25,0.5,0.0,0.0,0.0,0.0,0.0,0.5,1.0,0.5,0.0,-0.42,-0.36,0.95,82.07,21.4,11.6,1.75,1.0,0.5,1.25,3.5,0.5,0.5,0.0,0.25,1.25,1.0,0.75,0.5,0.7,-0.23,0.64,193.61,-6.8,22.5
3.62,1.75,0.0,1.25,0.5,0.0,0.0,0.0,0.0,0.0,0.5,1.0,0.5,0.25,-0.36,-0.42,0.95,85.16,20.9,13.2,0.75,1.0,0.5,1.25,3.25,0.5,0.5,0.0,0.25,1.0,1.0,0.75,0.5,0.58,-0.17,0.7,188.45,-5.3,17.8
3.64,1.5,0.0,1.25,0.5,0.0,0.0,0.0,0.0,0.25,0.5,1.0,0.5,0.0,-0.36,-0.3,0.83,87.39,21.6,13.0,0.75,1.0,0.5,1.25,3.5,0.5,0.5,0.25,0.25,1.5,0.75,0.75,0.75,0.64,-0.11,0.64,186.49,-3.3,12.9
3.66,1.5,0.0,1.25,0.75,0.0,0.0,0.0,0.0,0.0,0.5,1.0,0.5,0.0,-0.42,-0.23,0.83,89.11,21.8,17.5,1.25,1.0,0.5,1.25,3.0,0.5,0.5,0.0,0.25,1.25,0.25,0.75,0.75,0.64,-0.05,0.64,180.62,-5.5,21.2
3.68,1.75,0.0,1.25,0.5,0.0,0.0,0.0,0.0,0.0,0.5,1.0,0.5,0.0,-0.36,-0.3,0.83,89.77,22.6,19.0,0.75,0.75,0.5,1.25,3.75,0.5,0.5,0.0,0.25,1.5,1.0,0.75,0.75,0.64,-0.05,0.64,180.73,-3.5,11.4
3.7,1.75,0.0,1.25,0.5,0.0,0.0,0.0,0.0,0.0,0.5,0.75,0.5,0.0,-0.23,-0.3,0.83,88.89,23.1,23.5,0.5,0.75,0.5,1.25,3.5,0.5,0.5,0.0,0.25,1.5,1.0,0.75,0.5,0.7,-0.05,0.58,177.35,-3.5,11.4
3.72,1.75,0.0,1.25,0.75,0.0,0.0,0.0,0.0,0.0,0.5,0.75,0.5,0.0,-0.3,-0.3,0.83,87.93,22.9,25.1,1.25,1.0,0.5,1.25,3.75,0.5,0.5,0.0,0.25,1.25,1.0,0.75,0.5,0.7,0.02,0.58,182.64,-5.6,20.5
3.74,1.25,0.0,1.25,0.5,0.0,0.0,0.0,0.0,0.25,0.5,0.75,0.5,0.0,-0.3,-0.3,0.83,85.03,21.5,13.4,0.75,1.0,0.5,1.0,3.5,0.5,0.5,0.0,0.25,1.0,1.0,0.75,0.5,0.7,0.02,0.52,179.66,-4.8,17.8
3.76,1.5,0.0,1.25,0.5,0.0,0.0,0.0,0.0,0.0,0.5,1.0,0.5,0.0,-0.3,-0.3,0.83,83.66,22.0,15.5,1.0,1.0,0.5,1.25,3.5,0.5,0.5,0.0,0.25,1.25,0.75,0.75,0.5,0.7,0.02,0.52,180.08,-5.1,20.1
3.78,1.5,0.0,1.25,0.5,0.0,0.0,0.0,0.0,0.0,0.5,0.75,0.5,0.0,-0.3,-0.23,0.83,81.14,22.6,20.0,1.25,0.75,0.5,1.25,3.75,0.5,0.5,0.0,0.25,1.25,1.0,0.75,0.25,0.7,0.02,0.58,180.19,-5.8,21.6
3.8,1.5,0.0,1.25,0.5,0.0,0.0,0.0,0.0,0.0,0.5,0.75,0.5,0.25,-0.36,-0.23,0.89,81.21,20.8,13.5,0.5,0.75,0.5,1.25,3.75,0.5,0.5,0.0,0.25,1.25,1.0,0.75,0.75,0.77,0.02,0.58,180.11,-3.3,11.6
3.82,0.75,0.0,1.25,0.5,0.0,0.0,0.0,0.0,0.0,0.5,1.0,0.5,0.25,-0.3,-0.36,0.95,78.1,18.2,-3.4,1.25,1.0,0.5,1.25,3.5,0.5,0.5,0.0,0.25,1.25,1.0,0.75,0.5,0.77,0.02,0.58,182.23,-5.8,19.7
3.84,0.5,0.0,1.25,0.5,0.0,0.0,0.0,0.0,0.0,0.5,1.0,0.5,0.0,-0.3,-0.36,0.95,73.21,19.2,-2.5,1.0,1.0,0.5,1.25,3.5,0.5,0.5,0.0,0.25,1.0,1.0,0.75,0.75,0.77,0.02,0.52,183.79,-5.3,17.5
3.86,0.5,0.0,1.25,0.5,0.0,0.0,0.0,0.0,0.0,0.5,1.0,0.5,0.0,-0.36,-0.36,0.95,67.92,19.2,-2.5,0.5,1.0,0.5,1.25,3.5,0.5,0.5,0.0,0.25,1.0,0.75,0.75,0.5,0.7,0.02,0.58,181.03,-4.4,19.0
3.88,0.0,0.0,1.25,0.5,0.0,0.0,0.0,0.0,0.0,0.5,1.0,0.5,0.0,-0.36,-0.36,0.95,61.93,17.2,-14.9,1.25,0.5,0.5,1.25,3.5,0.5,0.5,0.0,0.25,1.0,1.0,0.75,0.75,0.64,0.02,0.52,178.9,-5.5,15.5
3.9,1.0,0.0,1.25,0.5,0.0,0.0,0.0,0.0,0.0,0.5,1.0,0.5,0.0,-0.36,-0.3,0.89,63.37,20.8,7.3,1.0,0.75,0.5,1.0,3.5,0.5,0.5,0.0,0.25,1.0,1.0,0.75,0.75,0.64,0.02,0.52,177.12,-4.8,14.8
3.92,0.75,0.0,1.25,0.5,0.0,0.0,0.0,0.0,0.0,0.25,0.0,0.5,0.25,-0.36,-0.23,0.89,59.9,22.6,21.5,1.0,0.5,0.5,1.0,3.5,0.75,0.5,0.0,0.25,1.75,1.0,0.75,0.5,0.64,0.02,0.58,177.68,-3.3,10.5
3.94,0.5,0.0,1.25,0.5,0.0,0.0,0.0,0.0,0.25,0.0,0.75,0.5,0.0,-0.3,-0.3,0.83,59.21,23.9,9.5,0.75,1.0,0.5,1.0,3.5,0.5,0.5,0.0,0.25,1.25,1.0,0.75,0.5,0.64,0.02,0.58,177.27,-4.4,15.8
3.96,0.25,0.0,1.25,0.75,0.0,0.0,0.0,0.0,0.0,0.25,1.0,0.5,0.0,-0.3,-0.3,0.83,57.95,20.3,0.0,0.75,0.75,0.5,1.25,3.5,0.5,0.5,0.0,0.25,1.0,1.0,0.75,0.5,0.7,0.02,0.52,176.02,-4.9,16.9
3.98,1.5,0.0,1.25,0.5,0.0,0.0,0.0,0.0,0.0,0.5,0.75,0.5,0.0,-0.23,-0.3,0.83,64.75,22.6,20.0,0.75,1.0,0.5,1.25,3.5,0.5,0.5,0.0,0.25,1.5,1.0,0.75,0.75,0.7,0.02,0.52,179.0,-3.9,12.3
4.0,1.5,0.0,1.25,0.5,0.0,0.0,0.0,0.0,0.25,0.5,0.75,0.5,0.0,-0.23,-0.23,0.83,71.55,22.1,17.2,1.0,1.0,0.5,1.25,3.25,0.5,0.5,0.0,0.25,1.25,1.0,0.75,0.5,0.64,0.02,0.52,179.05,-5.4,17.4
4.02,0.75,0.0,1.25,0.75,0.0,0.0,0.0,0.0,0.0,0.5,1.0,0.5,0.0,-0.3,-0.3,0.83,75.93,19.9,5.7,0.75,1.0,0.5,1.25,3.5,0.5,0.5,0.0,0.25,1.25,1.0,0.75,0.75,0.64,0.02,0.52,181.16,-4.3,14.1
4.04,1.5,0.0,1.25,0.5,0.0,0.0,0.0,0.0,0.0,0.5,0.75,0.5,0.0,-0.3,-0.3,0.89,79.33,22.6,20.0,1.0,0.5,0.5,0.5,3.25,0.5,0.5,0.0,0.25,1.5,1.0,0.75,0.5,0.7,0.02,0.52,175.54,-3.8,8.5
4.06,1.75,0.0,1.25,0.5,0.0,0.0,0.0,0.0,0.0,0.5,0.75,0.5,0.0,-0.3,-0.3,0.89,82.35,23.1,23.5,0.5,1.0,0.5,1.25,3.5,0.5,0.5,0.0,0.25,1.0,1.0,0.75,0.5,0.7,0.02,0.52,173.89,-4.5,17.1
4.08,2.0,0.0,1.25,0.5,0.0,0.0,0.0,0.0,0.0,0.5,1.0,0.5,0.0,-0.36,-0.3,0.95,87.19,23.1,22.3,1.25,0.75,0.5,1.25,3.5,0.5,0.5,0.0,0.25,1.25,1.0,0.75,0.75,0.7,0.02,0.58,176.23,-5.2,15.4
4.1,1.75,0.0,1.25,0.5,0.0,0.0,0.0,0.0,0.0,0.5,0.75,0.5,0.0,-0.36,-0.3,0.95,88.52,23.1,23.5,0.5,0.75,0.5,1.25,3.5,0.5,0.5,0.0,0.25,1.5,1.0,0.75,0.5,0.7,0.02,0.52,177.4,-3.5,11.4
4.12,1.5,0.0,1.25,0.75,0.0,0.0,0.0,0.0,0.0,0.5,0.75,0.5,0.0,-0.36,-0.36,0.95,89.57,22.3,21.9,1.25,0.5,0.5,1.25,3.5,0.5,0.5,0.0,0.25,1.0,1.0,0.75,0.75,0.7,0.02,0.52,178.71,-5.5,15.5
4.14,1.5,0.0,1.25,0.5,0.0,0.0,0.0,0.0,0.0,0.5,1.0,0.5,0.0,-0.36,-0.3,0.89,87.86,22.0,15.5,0.75,0.75,0.5,1.0,3.25,0.5,0.5,0.0,0.25,1.25,1.0,0.75,0.75,0.7,0.02,0.58,176.55,-4.0,10.2
4.16,1.5,0.0,1.25,0.5,0.0,0.0,0.0,0.0,0.0,0.5,0.75,0.5,0.0,-0.36,-0.3,0.89,86.15,22.6,20.0,1.25,1.0,0.5,1.25,2.75,0.5,0.5,0.0,0.25,1.5,1.0,0.75,0.75,0.64,0.02,0.58,177.43,-5.6,12.6
4.18,1.75,0.0,1.25,1.25,0.0,0.0,0.0,0.0,0.0,0.5,1.25,0.5,0.0,-0.3,-0.23,0.83,91.43,21.5,20.2,0.75,0.5,0.5,1.25,3.0,0.5,0.5,0.0,0.25,1.25,1.0,0.75,0.5,0.64,0.02,0.58,172.16,-4.7,10.9
4.2,1.5,0.0,1.25,0.5,0.0,0.0,0.0,0.0,0.0,0.5,0.75,0.5,0.0,-0.3,-0.23,0.83,88.81,22.6,20.0,1.0,0.75,0.5,0.5,3.25,0.25,0.5,0.0,0.25,1.0,1.0,0.75,0.5,0.64,0.02,0.58,166.77,-5.5,14.2
4.22,1.75,0.0,1.25,0.25,0.0,0.0,0.0,0.0,0.25,0.5,1.0,0.5,0.0,-0.3,-0.23,0.83,88.87,22.4,14.5,0.75,1.0,0.5,1.25,3.25,0.5,0.5,0.0,0.25,1.5,1.0,0.75,0.5,0.64,0.02,0.58,167.78,-4.4,13.9
4.24,1.5,0.0,1.25,0.25,0.0,0.0,0.0,0.0,0.0,0.5,0.75,0.5,0.0,-0.3,-0.3,0.89,83.3,22.9,17.8,1.0,0.75,0.5,1.25,3.5,0.5,0.5,0.0,0.25,1.5,1.0,0.75,0.75,0.64,0.02,0.58,173.67,-4.3,12.1
4.26,1.5,0.0,1.25,0.5,0.0,0.0,0.0,0.0,0.0,0.5,1.25,0.5,0.0,-0.36,-0.36,0.89,83.73,21.5,11.4,0.75,0.75,0.5,0.75,2.5,0.5,0.5,0.0,0.25,1.5,1.0,0.75,0.5,0.7,0.08,0.58,169.49,-4.2,6.2
4.28,1.5,0.0,1.25,0.75,0.0,0.0,0.0,0.0,0.25,0.0,1.0,0.5,0.0,-0.36,-0.3,0.89,81.96,25.0,23.8,1.0,1.0,0.5,1.25,3.25,0.5,0.5,0.0,0.25,1.25,1.0,0.75,0.75,0.7,0.08,0.52,174.16,-5.0,14.7
4.3,1.5,0.0,1.25,0.5,0.0,0.0,0.0,0.0,0.0,0.5,1.0,0.5,0.0,-0.36,-0.3,0.83,82.66,22.0,15.5,1.0,1.0,0.5,1.25,3.5,0.5,0.5,0.0,0.25,1.0,1.0,0.75,0.75,0.7,0.02,0.58,176.09,-5.3,17.5
4.32,1.5,0.0,1.25,0.75,0.0,0.0,0.0,0.0,0.25,0.5,1.0,0.5,0.0,-0.36,-0.23,0.83,85.17,21.4,15.1,1.0,0.5,0.5,1.0,3.5,0.5,0.5,0.0,0.25,1.0,1.0,0.75,0.5,0.7,0.02,0.58,175.29,-5.1,15.7
4.34,1.75,0.0,1.25,0.5,0.0,0.0,0.0,0.0,0.0,0.5,1.0,0.5,0.0,-0.36,-0.23,0.83,86.62,22.6,19.0,0.75,1.0,0.5,1.25,3.25,0.5,0.5,0.0,0.25,0.75,1.25,0.75,1.0,0.7,0.02,0.58,176.89,-5.0,12.4
4.36,1.5,0.0,1.25,1.0,0.0,0.0,0.0,0.0,0.0,0.5,1.0,0.5,0.0,-0.36,-0.3,0.83,88.9,21.6,19.4,0.5,0.5,0.5,1.25,3.0,0.5,0.5,0.0,0.25,1.25,1.0,0.75,0.75,0.64,0.02,0.58,172.95,-3.6,6.2
4.38,1.75,0.0,1.25,1.0,0.0,0.0,0.0,0.0,0.0,0.5,1.0,0.5,0.0,-0.36,-0.3,0.83,91.58,22.1,22.5,0.75,0.25,0.5,1.0,2.75,0.25,0.5,0.0,0.25,1.25,1.0,0.75,0.5,0.64,0.02,0.58,164.17,-5.1,5.6
4.4,1.25,0.0,1.25,0.75,0.0,0.0,0.0,0.0,0.0,0.5,0.75,0.5,0.0,-0.36,-0.36,0.83,88.86,21.7,18.3,1.0,1.0,0.5,1.0,3.25,0.5,0.5,0.0,0.25,1.5,1.0,0.75,0.5,0.64,0.02,0.58,165.41,-4.7,14.6
4.42,1.5,0.0,1.25,0.0,0.0,0.0,0.0,0.0,0.25,0.5,1.25,0.5,0.0,-0.36,-0.3,0.83,85.43,21.5,4.3,0.75,1.0,0.5,1.0,3.25,0.5,0.5,0.0,0.25,1.0,1.0,0.75,0.5,0.64,0.02,0.58,166.81,-5.0,16.9
4.44,1.75,0.0,1.25,0.5,0.0,0.0,0.0,0.0,0.0,0.5,0.75,0.5,0.0,-0.36,-0.3,0.83,84.26,23.1,23.5,1.0,1.0,0.5,1.25,3.25,0.5,0.5,0.0,0.25,1.25,1.0,0.75,0.5,0.64,0.02,0.58,172.37,-5.4,17.4
4.46,1.75,0.0,1.25,0.5,0.0,0.0,0.0,0.0,0.0,0.5,1.0,0.5,0.0,-0.36,-0.3,0.83,84.36,22.6,19.0,1.0,0.5,0.5,1.0,3.75,0.5,0.5,0.0,0.25,1.0,1.0,0.75,0.75,0.64,0.02,0.58,173.86,-4.5,13.9
4.48,1.5,0.0,1.25,0.5,0.0,0.0,0.0,0.0,0.25,0.5,1.0,0.5,0.0,-0.36,-0.3,0.83,85.07,21.6,13.0,1.0,1.25,0.5,1.25,3.25,0.75,0.5,0.0,0.25,1.25,1.0,0.75,0.5,0.64,0.02,0.58,180.53,-5.1,19.4
4.5,1.5,0.0,1.25,0.5,0.0,0.0,0.0,0.0,0.25,0.5,1.0,0.5,0.0,-0.36,-0.3,0.83,85.66,21.6,13.0,1.0,0.75,0.5,1.0,3.0,0.25,0.5,0.0,0.25,1.25,1.0,0.75,0.5,0.7,0.02,0.52,176.71,-5.8,13.2
4.52,1.5,0.0,1.25,0.5,0.0,0.0,0.0,0.0,0.25,0.75,1.0,0.5,0.0,-0.36,-0.3,0.89,87.18,19.9,9.1,0.75,1.0,0.5,1.25,3.0,0.5,0.5,0.0,0.25,1.25,1.0,0.75,0.75,0.64,0.02,0.52,175.39,-4.7,12.1
4.54,1.0,0.0,1.25,0.5,0.0,0.0,0.0,0.0,0.0,0.25,0.75,0.5,0.0,-0.36,-0.3,0.89,80.63,23.5,17.0,1.25,0.75,0.5,1.25,2.75,0.5,0.5,0.0,0.25,1.25,1.0,0.75,0.75,0.64,0.02,0.58,174.04,-5.9,12.6
4.56,1.5,0.0,1.25,0.5,0.0,0.0,0.0,0.0,0.25,0.5,1.0,0.5,0.0,-0.3,-0.36,0.95,80.68,21.6,13.0,0.75,1.0,0.5,0.0,3.25,0.5,0.5,0.0,0.25,1.0,1.0,0.75,0.5,0.64,0.02,0.58,168.34,-3.8,12.6
4.58,1.75,0.0,1.25,0.5,0.0,0.0,0.0,0.0,0.0,0.5,0.75,0.5,0.0,-0.3,-0.36,0.89,80.03,23.1,23.5,0.75,1.0,0.5,0.5,3.0,0.0,0.5,0.0,0.25,1.5,1.0,0.75,0.5,0.64,0.02,0.58,162.58,-4.9,8.6
4.6,1.5,0.0,1.25,0.5,0.0,0.0,0.0,0.0,0.25,0.5,0.75,0.5,0.0,-0.3,-0.3,0.89,81.5,22.1,17.2,0.5,0.75,0.5,0.5,3.5,0.5,0.5,0.0,0.25,1.25,1.0,0.75,0.5,0.7,0.02,0.58,160.3,-2.9,10.0
4.62,1.5,0.0,1.25,1.0,0.0,0.0,0.0,0.0,0.0,0.5,0.75,0.5,0.0,-0.3,-0.3,0.89,83.76,22.1,23.6,1.0,0.75,0.5,0.5,3.5,0.25,0.5,0.0,0.25,1.25,1.0,0.75,0.5,0.64,0.02,0.58,160.4,-4.8,13.2
4.64,1.5,0.0,1.25,0.5,0.0,0.0,0.0,0.0,0.25,0.5,1.0,0.25,0.0,-0.23,-0.3,0.89,85.13,22.2,18.9,0.75,1.0,0.5,1.25,3.0,0.0,0.5,0.0,0.25,1.25,1.0,0.75,0.5,0.64,0.02,0.58,160.12,-6.3,14.0
4.66,2.0,0.0,1.25,0.75,0.0,0.0,0.0,0.0,0.25,0.25,1.0,0.5,0.0,-0.3,-0.3,0.89,88.66,24.0,25.5,0.5,1.0,0.5,1.25,3.0,0.5,0.5,0.0,0.25,1.25,1.0,0.75,0.5,0.64,0.02,0.58,163.56,-4.4,13.1
4.68,1.5,0.0,1.25,0.5,0.0,0.0,0.0,0.0,0.25,0.5,0.75,0.5,0.0,-0.3,-0.3,0.89,87.19,22.1,17.2,0.75,0.75,0.5,0.75,3.5,0.5,0.5,0.0,0.25,1.25,1.0,0.75,0.5,0.64,0.02,0.58,165.21,-3.9,12.9
4.7,1.25,0.0,1.25,0.5,0.0,0.0,0.0,0.0,0.0,0.5,0.75,0.5,0.0,-0.36,-0.3,0.89,84.06,22.0,16.1,0.75,1.0,0.5,1.25,3.25,0.5,0.5,0.0,0.25,1.0,1.0,0.75,0.75,0.64,0.02,0.58,169.34,-4.9,15.0
4.72,0.5,0.0,1.25,0.5,0.0,0.0,0.0,0.0,0.0,0.5,1.0,0.5,0.0,-0.36,-0.3,0.89,76.46,19.2,-2.5,0.75,1.0,0.5,0.75,3.0,0.5,0.5,0.0,0.25,1.5,1.0,0.75,0.5,0.64,0.02,0.58,169.7,-4.0,10.8
4.74,1.0,0.0,1.25,0.75,0.0,0.0,0.0,0.0,0.25,0.5,0.75,0.5,0.0,-0.36,-0.3,0.83,74.99,20.6,11.7,1.0,1.0,0.5,1.25,3.5,0.5,0.5,0.0,0.25,1.5,1.0,0.75,0.5,0.64,0.02,0.58,177.4,-4.8,16.4
4.76,1.5,0.0,1.25,0.25,0.0,0.0,0.0,0.0,0.0,0.5,1.25,0.5,0.0,-0.36,-0.23,0.83,75.44,21.8,9.1,1.0,0.5,0.5,1.25,2.75,0.5,0.5,0.0,0.25,1.25,1.0,0.75,0.5,0.64,0.02,0.58,174.19,-5.6,11.6
4.78,0.25,0.0,1.25,0.5,0.0,0.0,0.0,0.0,0.0,0.5,1.25,0.5,0.0,-0.36,-0.3,0.83,72.92,17.8,-12.2,0.75,0.5,0.5,0.25,3.5,0.5,0.5,0.0,0.25,1.0,1.0,0.75,0.75,0.58,-0.05,0.64,170.24,-3.1,7.6
4.8,0.0,0.0,1.25,0.25,0.0,0.0,0.0,0.0,0.0,0.5,0.75,0.5,0.0,-0.3,-0.3,0.89,63.46,17.7,-16.3,0.75,1.0,0.5,1.25,3.75,0.75,0.5,0.0,0.25,1.0,1.0,0.75,0.5,0.58,-0.05,0.64,173.85,-4.4,19.8
4.82,0.5,0.0,1.25,0.25,0.0,0.0,0.0,0.0,0.0,0.5,0.75,0.5,0.0,-0.3,-0.3,0.89,57.83,19.9,-2.0,0.5,1.0,0.5,1.25,3.25,0.25,0.5,0.0,0.0,1.0,1.0,0.75,0.5,0.58,0.08,0.64,170.84,-5.1,17.0
4.84,0.75,0.0,1.25,0.25,0.0,0.0,0.0,0.0,0.0,1.0,0.75,0.5,0.0,-0.36,-0.36,0.89,57.41,16.7,-5.0,0.75,1.0,0.5,1.25,3.0,0.5,0.5,0.0,0.25,1.0,1.0,0.75,0.5,0.64,0.08,0.58,170.92,-5.5,16.9
4.86,0.5,0.0,1.25,0.5,0.0,0.0,0.0,0.0,0.0,0.5,1.0,0.5,0.0,-0.3,-0.36,0.95,58.79,19.2,-2.5,0.75,0.75,0.5,1.0,2.75,0.5,0.5,0.0,0.25,1.0,1.0,0.75,0.75,0.77,0.08,0.52,166.35,-4.8,9.8
4.88,0.25,0.0,1.25,0.25,0.0,0.0,0.0,0.0,0.0,0.5,1.0,0.5,0.0,-0.3,-0.36,0.89,58.73,18.4,-13.0,0.5,0.75,0.5,1.25,3.75,0.25,0.5,0.0,0.25,1.0,1.0,0.75,0.5,0.77,0.02,0.58,167.52,-4.7,15.8
4.9,0.75,0.0,1.25,0.5,0.0,0.0,0.0,0.0,0.0,0.75,0.75,0.25,0.0,-0.3,-0.3,0.89,60.83,19.1,9.1,1.75,0.75,0.5,0.5,3.25,0.5,0.5,0.0,0.25,1.25,1.0,0.75,0.5,0.7,0.02,0.58,168.44,-6.3,17.7
4.92,0.75,0.0,1.25,0.0,0.0,0.0,0.0,0.0,0.25,0.5,0.75,0.5,0.0,-0.3,-0.3,0.89,60.89,20.5,-2.4,0.5,0.75,0.5,1.0,3.0,0.5,0.5,0.0,0.25,1.0,1.0,0.75,0.5,0.7,0.02,0.58,165.95,-4.4,12.0
4.94,0.75,0.0,1.25,0.5,0.0,0.0,0.0,0.0,0.0,0.5,1.0,0.5,0.0,-0.3,-0.3,0.83,64.09,20.0,2.6,0.75,0.75,0.5,1.0,3.0,0.5,0.5,0.0,0.25,1.25,1.0,0.75,0.5,0.64,0.02,0.58,164.86,-4.6,11.8
4.96,0.75,0.0,1.25,0.0,0.0,0.0,0.0,0.0,0.25,0.5,0.75,0.5,0.0,-0.3,-0.3,0.89,63.65,20.5,-2.4,0.75,0.75,0.5,1.0,3.0,0.5,0.5,0.0,0.25,1.5,1.0,0.75,0.5,0.64,0.02,0.64,164.35,-4.1,9.9
4.98,0.75,0.0,1.25,0.5,0.0,0.0,0.0,0.0,0.25,0.25,0.75,0.5,0.0,-0.3,-0.36,0.89,65.26,22.2,9.3,0.75,1.0,0.5,1.25,2.75,0.25,0.5,0.0,0.25,1.25,1.0,0.75,0.5,0.58,-0.05,0.7,163.9,-5.9,13.4
