time,left pressure 0[N/cm²],left pressure 1[N/cm²],left pressure 2[N/cm²],left pressure 3[N/cm²],left pressure 4[N/cm²],left pressure 5[N/cm²],left pressure 6[N/cm²],left pressure 7[N/cm²],left pressure 8[N/cm²],left pressure 9[N/cm²],left pressure 10[N/cm²],left pressure 11[N/cm²],left pressure 12[N/cm²],left acceleration X[g],left acceleration Y[g],left acceleration Z[g],left total force[N],left center of pressure X[mm],left center of pressure Y[mm],right pressure 0[N/cm²],right pressure 1[N/cm²],right pressure 2[N/cm²],right pressure 3[N/cm²],right pressure 4[N/cm²],right pressure 5[N/cm²],right pressure 6[N/cm²],right pressure 7[N/cm²],right pressure 8[N/cm²],right pressure 9[N/cm²],right pressure 10[N/cm²],right pressure 11[N/cm²],right pressure 12[N/cm²],right acceleration X[g],right acceleration Y[g],right acceleration Z[g],right total force[N],right center of pressure X[mm],right center of pressure Y[mm]
0.02,0.0,0.0,1.25,0.25,0.0,0.0,0.5,0.0,0.0,0.75,0.0,0.0,0.0,-0.3,-1.92,1.58,0.0,19.6,17.1,3.0,1.25,5.75,5.25,5.75,4.75,6.5,5.25,1.0,3.5,3.75,1.75,1.5,0.08,0.08,0.95,757.96,-6.7,11.5
0.04,0.0,0.0,0.0,0.5,0.0,0.0,0.5,0.0,0.0,0.5,0.75,0.25,0.0,-0.17,-0.67,1.33,0.0,8.4,-37.0,1.75,0.5,7.0,3.25,6.25,4.0,7.0,4.5,0.75,0.75,2.0,0.5,1.25,0.08,0.08,0.95,677.8,-8.8,23.1
0.06,0.0,0.0,0.0,0.25,0.0,0.0,0.0,0.0,0.0,0.0,0.0,0.0,0.0,-0.36,-0.3,0.64,0.0,17.2,57.9,1.25,0.5,6.5,4.0,4.75,4.0,7.0,4.0,0.25,0.75,0.75,0.25,0.0,0.08,0.14,0.95,585.1,-10.0,32.9
0.08,0.0,0.0,1.0,0.25,0.0,0.0,0.5,0.0,0.0,0.0,0.0,0.0,0.0,-0.48,-0.23,0.39,0.0,33.7,55.2,1.75,0.5,7.25,4.75,5.0,4.0,7.0,3.75,0.25,0.5,0.5,0.25,0.0,0.02,0.14,0.95,519.2,-11.5,37.5
0.1,0.0,0.0,1.0,1.75,0.0,0.0,0.5,0.0,0.0,0.25,0.5,0.25,0.0,-0.3,-0.17,0.77,0.0,20.1,22.7,2.25,0.5,6.25,5.25,5.5,4.0,7.0,3.0,0.25,0.0,0.0,0.25,0.75,0.02,0.14,0.95,474.81,-11.3,39.9
0.12,0.75,0.0,0.0,2.0,0.0,0.0,0.5,0.0,0.0,0.0,0.5,0.0,0.0,0.02,-0.11,1.02,0.0,20.8,45.4,2.0,0.5,7.0,5.25,6.0,3.75,7.0,3.25,0.25,0.25,0.0,0.25,0.75,0.02,0.14,0.95,457.56,-11.3,38.8
0.14,0.75,0.0,0.0,0.5,0.0,0.0,0.5,0.0,0.0,0.0,0.0,0.0,0.0,0.02,0.02,1.2,0.0,28.2,72.0,2.0,0.5,7.75,5.75,6.5,3.75,7.0,2.75,0.25,0.0,0.0,0.25,0.75,0.02,0.14,0.95,459.48,-12.4,41.8
0.16,0.25,0.0,0.75,0.25,0.0,0.0,0.0,0.0,0.0,0.0,0.0,0.0,0.0,-0.11,0.14,1.27,2.25,33.3,67.1,3.0,0.5,8.0,7.25,6.75,3.5,7.5,2.75,0.25,0.0,0.0,0.25,1.0,0.02,0.2,0.89,487.43,-13.3,43.0
0.18,0.0,0.0,1.0,0.75,0.0,0.0,0.5,0.0,0.25,0.0,0.0,0.0,0.0,-0.17,0.27,1.58,13.83,27.6,45.7,3.5,0.5,8.75,7.25,6.75,3.75,7.75,2.5,0.0,0.0,0.0,0.0,1.0,-0.05,0.2,0.89,514.73,-14.2,45.9
0.2,0.25,0.0,1.0,0.5,0.0,0.0,0.5,0.0,0.0,0.0,0.0,0.0,0.0,-0.17,0.33,1.83,24.1,31.7,60.4,5.25,1.5,8.25,10.5,7.0,3.25,8.25,2.25,0.0,0.75,0.0,0.25,1.0,-0.05,0.2,0.89,590.12,-14.8,47.4
0.22,0.25,0.0,1.0,0.25,0.0,0.0,0.5,0.0,0.0,0.0,0.0,0.0,0.0,-0.23,0.45,2.2,28.75,33.9,60.8,5.25,1.25,10.5,10.5,8.75,4.0,8.75,2.75,0.25,0.75,0.75,0.25,1.25,-0.05,0.2,0.95,700.61,-14.2,44.0
0.24,0.0,0.0,0.75,0.5,0.0,0.0,0.0,0.0,0.25,0.0,0.0,0.0,0.0,-0.42,0.77,2.77,31.38,26.9,44.0,6.5,2.25,10.5,12.5,8.25,3.75,9.0,1.25,0.0,0.75,0.5,0.5,2.25,-0.05,0.27,0.95,824.73,-15.5,46.1
0.26,1.0,0.0,2.0,1.75,0.0,0.0,0.5,0.0,0.25,0.5,0.25,0.0,0.0,-0.67,1.58,3.14,55.43,24.5,43.6,7.0,2.25,13.0,12.5,9.0,2.75,9.5,2.0,0.0,0.75,0.25,0.5,1.0,-0.05,0.27,1.08,944.63,-17.3,50.4
0.28,0.0,0.0,2.0,1.25,0.0,0.0,0.5,0.0,0.25,0.75,0.5,0.5,0.25,-0.73,2.89,2.7,73.75,18.2,3.8,7.75,2.5,13.5,12.5,8.25,1.5,10.0,1.25,0.25,0.75,1.25,0.5,1.5,0.02,0.27,1.14,1038.72,-18.9,48.7
0.3,1.0,0.0,0.0,1.75,0.0,0.0,0.5,0.0,0.0,1.0,0.5,0.0,0.0,1.2,4.27,0.58,84.98,13.6,20.4,8.0,2.25,14.0,12.5,7.75,0.0,10.0,1.25,0.25,0.75,0.25,0.5,1.0,-0.05,0.33,1.2,1066.21,-20.9,52.8
0.32,0.0,0.0,0.75,2.0,0.0,0.0,0.5,0.0,0.25,1.0,0.0,0.0,0.5,1.45,4.45,-0.3,86.35,11.0,6.8,8.25,2.0,14.0,10.5,6.75,0.0,10.0,1.0,0.25,0.75,0.25,0.5,1.0,0.02,0.39,1.39,1030.04,-21.9,53.0
0.34,0.0,0.0,0.75,1.75,0.0,0.0,0.5,0.0,0.0,0.75,0.5,0.75,0.75,1.08,4.2,-2.42,87.96,10.4,-17.8,8.25,1.5,13.0,7.5,4.75,0.0,9.5,1.25,0.25,0.75,0.25,0.5,1.25,0.14,0.58,1.83,931.91,-22.8,50.6
0.36,0.25,0.0,0.75,1.5,0.0,0.0,0.5,0.0,0.0,0.75,1.5,3.5,1.5,-0.92,-0.92,1.45,114.82,8.5,-54.8,8.5,1.25,9.5,3.25,3.5,0.0,8.5,1.0,0.25,0.0,0.5,0.25,0.5,0.27,0.95,2.83,756.38,-25.1,56.2
0.38,0.0,0.0,0.0,1.25,0.0,0.0,0.0,0.0,0.25,3.75,2.5,5.0,4.25,-0.23,0.45,2.08,179.96,-1.3,-83.5,5.25,0.0,7.5,2.25,1.25,0.0,6.75,0.25,0.0,0.0,0.0,0.0,0.0,0.7,1.27,2.39,526.71,-30.3,62.4
0.4,0.5,0.0,0.75,2.25,0.0,0.0,0.25,0.0,0.0,4.25,4.0,3.75,5.75,0.02,0.45,2.45,248.74,0.8,-67.0,2.75,0.0,5.5,0.75,0.25,0.0,5.0,0.0,0.0,0.5,0.0,0.5,0.0,0.52,0.52,2.77,325.49,-30.9,49.6
0.42,0.75,0.0,0.75,2.0,0.0,0.0,0.25,0.0,0.25,6.0,4.75,4.25,5.75,-0.55,0.27,1.58,310.96,0.3,-68.2,0.75,0.0,3.75,0.5,0.0,0.0,2.5,1.25,0.25,0.0,0.0,0.0,1.0,0.77,-0.36,2.52,189.46,-21.3,22.2
0.44,0.0,0.0,0.75,2.0,0.0,0.0,0.25,1.25,1.0,5.5,5.5,3.25,5.25,-0.36,0.39,2.02,361.61,-0.5,-68.1,0.5,0.0,3.0,0.5,0.0,0.0,1.25,0.75,0.0,0.0,0.0,0.0,0.0,1.08,0.14,1.64,61.82,-27.7,46.3
0.46,0.0,0.0,0.0,0.5,0.0,0.0,0.25,2.75,0.25,6.25,5.25,3.5,4.5,-0.17,0.08,0.95,385.24,-4.5,-79.2,1.25,0.5,3.25,1.75,1.0,0.0,1.75,1.25,0.25,0.75,0.0,0.25,1.5,1.27,-1.11,2.45,18.15,-14.0,19.2
0.48,0.0,0.0,0.0,0.25,0.0,0.0,0.5,2.75,0.75,6.5,5.75,3.5,4.75,-0.11,0.08,0.95,396.29,-4.2,-79.5,1.25,0.5,3.25,1.75,1.0,0.0,1.5,1.25,0.25,0.5,0.0,0.5,0.75,0.45,-1.05,0.95,12.59,-16.2,26.8
0.5,0.0,0.0,0.0,2.25,0.0,0.0,1.0,4.25,1.5,7.0,5.75,4.25,5.0,-0.17,0.08,0.95,430.26,-2.6,-67.2,1.25,0.5,3.25,1.75,1.0,0.0,1.25,1.25,0.25,0.75,0.25,0.25,1.25,0.52,-0.36,0.83,36.51,-14.2,19.9
0.52,0.0,0.0,0.0,2.5,0.0,0.75,1.0,4.75,0.0,6.75,6.5,3.25,5.0,-0.11,0.08,0.95,459.36,-3.8,-63.4,1.0,0.5,3.25,1.5,1.0,0.0,1.25,1.25,0.25,0.75,0.25,0.5,1.0,0.39,-0.3,0.52,57.46,-14.2,17.7
0.54,0.0,0.25,0.0,2.5,0.0,1.5,1.0,5.0,0.75,6.25,5.75,2.75,4.5,-0.17,0.08,0.95,475.48,-4.0,-56.7,1.25,0.5,3.25,1.5,1.0,0.0,1.25,1.25,0.25,0.75,0.25,0.5,0.75,0.2,-0.3,0.95,83.91,-15.2,21.9
0.56,0.0,0.5,0.0,1.25,0.0,3.0,1.0,5.25,0.0,5.25,4.5,2.25,3.25,-0.17,0.08,0.95,446.25,-6.6,-51.0,1.25,0.5,3.25,1.25,1.0,0.0,1.25,1.0,0.25,0.75,0.0,0.5,0.75,-0.11,-0.17,1.02,103.0,-16.0,24.5
0.58,0.0,0.5,0.0,1.25,0.0,3.5,1.0,5.0,0.0,4.0,3.0,2.0,2.5,-0.17,0.08,0.95,389.63,-7.4,-43.6,1.25,0.25,3.25,0.0,1.0,0.0,1.25,1.25,0.25,0.75,0.0,0.5,0.75,-0.11,0.02,0.95,119.93,-15.1,16.7
0.6,0.0,0.75,0.0,1.25,0.0,4.25,1.0,4.75,0.75,3.5,2.25,1.25,1.75,-0.17,0.08,0.95,329.98,-7.6,-32.4,0.5,0.5,3.0,1.25,1.0,0.0,1.0,1.5,0.25,0.75,0.25,0.25,0.75,-0.17,0.08,1.02,140.91,-12.5,16.8
0.62,0.0,0.75,0.0,2.75,0.0,3.75,1.0,4.5,0.0,1.75,1.5,1.0,1.25,-0.17,0.08,0.95,277.99,-5.7,-16.4,0.75,0.75,3.25,0.5,1.0,0.25,0.5,1.25,0.25,0.75,0.25,0.5,0.75,-0.11,0.14,1.27,155.36,-12.7,17.1
0.64,0.0,0.75,0.0,2.5,0.0,4.75,1.0,4.5,0.5,1.25,0.5,1.0,1.25,-0.11,0.08,0.95,246.02,-7.2,-10.4,0.5,0.5,3.0,0.5,1.0,0.0,0.25,1.0,0.25,0.75,0.0,0.5,0.75,-0.11,0.2,1.52,155.3,-12.9,14.9
0.66,0.0,0.75,0.0,1.5,0.0,5.0,1.0,4.5,0.25,2.0,1.5,0.75,1.25,-0.17,0.14,0.95,225.45,-8.7,-18.3,0.75,0.5,3.25,0.5,0.5,0.0,0.25,1.25,0.25,0.75,0.25,0.5,0.75,-0.05,0.27,1.89,151.67,-14.3,12.1
0.68,0.0,0.75,0.0,1.0,0.0,5.5,0.75,4.25,0.0,1.5,1.25,1.0,1.25,-0.11,0.14,0.95,212.09,-10.2,-17.8,1.0,0.5,3.0,0.5,0.5,0.0,0.5,1.25,0.25,0.75,0.25,0.5,0.75,-0.05,0.45,2.33,145.71,-14.4,13.1
0.7,0.0,1.0,0.0,3.25,0.0,6.0,0.75,3.5,0.0,2.25,0.75,1.0,1.0,-0.17,0.14,0.95,214.5,-7.2,-4.2,0.5,0.25,3.0,0.5,0.5,0.0,0.5,1.25,0.25,0.75,0.0,0.5,0.75,0.08,0.7,2.83,133.53,-13.4,8.4
0.72,0.75,1.0,0.0,4.25,0.0,6.25,1.0,3.0,0.0,2.25,1.25,0.75,1.25,-0.17,0.14,0.89,228.12,-4.2,1.9,0.25,0.25,3.0,0.5,1.0,0.5,0.25,1.25,0.25,0.5,0.25,0.5,1.0,0.2,1.2,3.2,133.59,-9.8,6.9
0.74,0.5,1.0,0.0,5.25,4.5,6.75,1.0,2.75,0.0,2.0,0.0,1.0,1.25,-0.17,0.14,0.89,265.98,-4.2,17.9,0.0,0.0,1.5,0.0,0.0,0.0,0.25,0.0,0.25,0.0,0.0,0.5,0.0,-0.36,2.52,2.33,98.68,-29.2,13.8
0.76,1.75,1.0,0.0,6.25,0.0,7.5,1.25,2.75,0.0,2.25,0.25,0.75,1.25,-0.17,0.14,0.95,292.89,-2.0,15.7,0.5,0.25,1.75,0.5,0.0,0.0,0.25,0.5,0.25,0.0,0.0,0.5,0.25,-1.17,3.52,0.95,79.45,-20.7,22.0
0.78,1.5,1.0,0.0,7.75,5.75,7.75,1.5,2.75,0.0,2.25,0.5,1.0,1.25,-0.17,0.14,1.02,362.25,-1.5,23.3,0.25,0.0,3.0,0.25,1.0,0.0,0.25,1.25,0.25,0.75,0.25,0.5,0.75,-2.05,4.14,0.02,80.33,-11.3,2.2
0.8,3.0,1.25,0.0,8.25,0.0,8.0,2.0,2.75,0.0,1.5,0.75,0.75,1.25,-0.17,0.2,1.02,394.05,1.7,24.3,0.0,0.0,3.0,0.25,1.0,0.0,0.25,1.25,0.0,0.0,0.25,0.0,1.25,-2.3,4.33,-0.05,90.01,-11.7,8.1
0.82,2.5,1.25,0.0,9.0,0.0,8.0,2.5,2.5,0.0,2.25,0.75,0.5,1.25,-0.17,0.2,1.02,426.18,1.4,23.2,0.0,0.0,0.5,0.0,1.25,0.0,0.25,1.5,0.0,0.0,0.0,0.5,0.75,-0.23,0.33,0.02,85.6,2.5,-17.6
0.84,0.0,1.25,5.5,10.0,0.0,7.75,2.75,2.0,0.25,1.5,0.75,0.5,1.25,-0.23,0.2,1.02,452.26,7.0,28.2,0.0,0.0,0.5,0.0,0.0,0.0,0.25,1.0,0.0,2.5,1.0,3.25,3.0,0.08,-0.61,1.58,118.86,3.1,-84.0
0.86,4.25,1.25,6.25,10.0,0.0,0.0,3.5,1.25,0.0,0.25,0.5,0.25,0.25,-0.23,0.2,1.02,448.15,23.3,53.2,0.0,0.0,0.5,0.0,0.0,0.0,0.25,1.25,0.0,5.75,2.75,4.5,4.5,-0.98,0.45,2.02,186.94,4.2,-85.0
0.88,5.0,1.25,6.25,10.5,0.0,0.0,4.0,1.0,0.0,0.5,0.25,0.75,1.0,-0.23,0.27,1.2,447.13,22.4,47.7,0.0,0.0,0.75,0.5,0.0,0.0,0.25,2.0,0.0,7.25,5.5,4.5,5.5,-0.36,0.58,2.58,272.34,3.2,-78.8
0.9,5.75,1.0,6.75,10.0,0.0,0.0,4.25,0.0,0.0,0.0,0.5,1.0,0.75,-0.3,0.27,1.58,437.7,25.4,52.7,0.0,0.0,0.5,1.0,0.5,0.75,0.5,4.0,0.5,7.25,7.5,3.75,4.5,0.14,0.58,2.2,361.21,3.2,-66.8
0.92,6.25,0.0,6.5,8.0,0.0,0.0,3.5,1.0,0.0,0.75,0.0,0.0,0.0,-0.48,0.39,2.14,412.25,25.9,58.1,0.0,0.0,0.0,0.0,0.5,1.5,0.5,5.25,0.75,7.5,7.0,3.75,4.25,0.14,0.2,1.02,441.4,5.7,-69.1
0.94,7.0,0.0,5.5,5.75,0.0,0.0,3.0,1.0,0.0,1.25,0.5,1.0,0.0,-0.55,0.77,2.77,376.2,24.5,46.7,1.0,0.0,1.0,1.5,1.0,4.0,1.25,6.25,1.25,7.5,7.5,4.5,4.5,0.08,0.14,0.95,541.06,3.0,-48.3
0.96,6.25,0.0,3.25,4.0,0.0,0.0,2.0,1.0,0.0,1.25,0.5,0.75,0.0,-1.11,1.2,2.95,321.3,23.0,44.5,1.25,1.25,3.25,3.25,4.75,6.0,2.5,7.0,1.25,7.75,8.0,3.5,4.5,0.14,0.08,0.95,677.06,0.7,-22.7
0.98,0.0,0.0,2.5,2.5,0.0,0.0,0.5,1.0,0.0,1.25,0.0,0.0,0.0,-0.73,0.58,3.08,238.35,14.9,23.6,1.25,1.25,3.25,3.25,6.0,6.75,3.0,7.0,1.5,6.0,7.25,3.25,3.25,0.14,0.08,0.95,795.29,0.2,-14.6
1.0,0.0,0.0,0.75,0.0,0.0,0.0,0.0,0.0,0.0,0.0,0.0,0.0,0.0,-1.05,-0.98,2.58,127.87,38.2,60.9,1.25,1.5,3.25,3.75,6.75,7.5,3.5,7.0,1.25,5.75,5.75,2.25,3.25,0.14,0.08,0.95,873.21,0.6,-7.4
1.02,0.0,0.0,0.0,0.0,0.0,0.0,0.0,0.0,0.0,0.0,0.0,0.0,0.0,-0.05,-0.8,3.08,17.92,0.0,0.0,1.0,1.25,4.0,5.0,7.0,7.75,3.5,7.0,1.0,3.75,4.0,1.0,2.75,0.14,0.08,0.95,887.13,0.0,4.0
1.04,0.0,0.0,0.0,0.0,0.0,0.0,0.0,0.0,0.0,0.0,0.0,0.0,0.0,-0.42,-1.67,1.83,0.0,0.0,0.0,1.25,1.25,3.75,5.25,8.25,8.0,3.5,6.25,1.0,2.25,2.25,0.75,2.25,0.14,0.08,0.95,860.72,-0.4,14.5
1.06,0.0,0.0,0.0,0.0,0.0,0.0,0.0,0.0,0.0,0.0,0.0,0.0,0.0,-0.23,-1.92,1.58,0.0,0.0,0.0,1.0,0.75,3.25,5.25,8.25,8.0,3.25,6.0,0.75,2.0,1.25,0.5,1.25,0.14,0.14,0.95,786.09,0.2,19.5
1.08,0.0,0.0,0.0,0.0,0.0,0.0,0.0,0.0,0.0,0.0,0.0,0.0,0.0,-0.48,-0.42,0.95,0.0,0.0,0.0,1.25,1.25,3.25,5.25,8.25,8.25,2.75,5.5,0.5,1.0,0.5,0.25,1.5,0.08,0.08,1.02,707.5,0.0,26.4
1.1,0.0,0.0,0.0,0.0,0.0,0.0,0.0,0.0,0.0,0.0,0.0,0.0,0.0,-0.55,-0.36,0.27,0.0,0.0,0.0,0.5,0.25,3.25,4.0,7.5,7.75,3.0,5.0,0.0,0.0,0.0,0.0,0.25,0.08,0.08,1.02,593.28,0.5,33.9
1.12,0.0,0.0,0.0,0.0,0.0,0.0,0.0,0.0,0.0,0.0,0.0,0.0,0.0,-0.55,-0.23,0.45,0.0,0.0,0.0,0.25,0.5,3.25,4.5,7.75,7.75,2.5,4.0,0.25,0.5,0.0,0.0,0.0,0.08,0.14,0.95,509.33,0.2,35.7
1.14,0.0,0.0,0.0,0.0,0.0,0.0,0.0,0.0,0.0,0.0,0.0,0.0,0.0,-0.36,-0.23,0.95,0.0,0.0,0.0,0.75,0.0,3.25,5.0,8.5,7.5,2.5,4.0,0.0,0.0,0.0,0.5,0.25,0.08,0.2,0.95,453.26,-0.6,35.4
1.16,0.0,0.0,0.75,0.0,0.0,0.0,0.0,0.0,0.0,0.0,0.0,0.0,0.0,-0.23,-0.05,1.08,0.0,38.2,60.9,0.5,0.0,3.25,4.25,7.75,7.25,1.0,3.0,0.0,0.0,0.0,0.0,0.25,0.02,0.2,0.89,400.75,0.1,39.1
1.18,0.0,0.0,0.0,0.0,0.0,0.0,0.0,0.0,0.0,0.0,0.0,0.0,0.0,-0.3,0.14,1.14,0.0,0.0,0.0,2.25,0.5,3.25,6.25,8.25,7.5,0.25,2.75,0.0,0.0,0.25,0.0,0.75,0.02,0.2,0.89,392.4,-2.3,41.9
1.2,0.0,0.0,0.75,0.0,0.0,0.0,0.0,0.0,0.0,0.25,0.0,0.0,0.0,-0.36,0.27,1.45,0.0,25.0,27.5,2.75,1.25,0.0,8.0,8.25,7.5,1.5,2.75,0.25,0.0,0.0,0.0,0.5,0.02,0.2,0.89,396.29,-0.8,44.2
1.22,0.0,0.0,0.0,0.25,0.0,0.0,0.0,0.0,0.0,0.5,0.0,0.0,0.0,-0.36,0.39,1.64,3.42,-4.3,-29.6,3.25,0.5,6.25,7.25,9.5,6.75,3.5,2.75,0.0,0.0,0.25,0.0,0.75,0.02,0.27,0.89,463.26,-7.6,45.1
1.24,0.0,0.0,0.0,0.25,0.0,0.0,0.0,0.0,0.0,0.5,0.0,0.0,0.0,-0.3,0.45,2.02,13.44,-4.3,-29.6,3.0,1.75,7.25,9.0,8.75,6.75,4.75,2.75,0.25,0.0,0.0,0.0,0.75,-0.05,0.27,0.89,545.81,-9.2,47.1
1.26,0.25,0.0,0.75,0.25,0.0,0.0,0.0,0.0,0.0,0.5,0.0,0.0,0.0,-0.3,0.58,2.95,20.43,19.4,26.7,5.25,1.5,8.25,10.5,9.5,6.75,5.75,2.0,0.0,0.0,0.0,0.25,0.5,-0.05,0.27,0.95,664.91,-11.7,51.3
1.28,0.25,0.0,0.0,0.25,0.0,0.0,0.0,0.0,0.0,0.5,0.0,0.0,0.0,-0.3,0.95,3.33,21.94,4.8,0.2,6.0,1.5,9.0,11.0,9.5,6.0,6.75,1.25,0.0,0.0,0.0,0.0,0.75,-0.05,0.27,0.95,764.26,-13.5,53.5
1.3,0.0,0.0,0.5,0.25,0.0,0.0,0.0,0.0,0.0,0.0,0.0,0.0,0.0,-0.36,1.83,3.33,21.66,31.1,59.9,7.75,2.25,9.5,11.0,9.25,5.75,7.25,1.25,0.0,0.0,0.0,0.0,0.5,0.02,0.33,1.02,860.28,-14.9,56.4
1.32,1.0,0.0,0.75,2.0,0.0,0.0,0.0,0.0,0.0,0.5,0.0,0.0,0.0,-0.17,3.08,2.14,40.35,21.0,51.6,7.75,2.25,10.5,13.0,9.5,5.25,7.5,1.25,0.25,0.0,0.0,0.5,0.5,0.02,0.33,1.14,949.98,-15.6,54.8
1.34,1.0,0.0,0.0,2.0,0.0,0.0,0.0,0.0,0.0,0.5,0.0,0.0,0.5,0.45,3.89,0.52,55.74,13.3,29.2,8.25,2.0,12.0,13.5,9.5,2.75,8.0,1.25,0.25,0.0,0.0,0.25,0.75,0.02,0.33,1.27,1020.09,-18.0,55.9
1.36,1.0,0.0,1.0,2.0,0.0,0.0,0.0,0.0,0.0,0.5,0.0,0.0,0.25,1.2,4.33,0.08,74.14,20.0,43.4,8.5,1.5,12.0,10.5,8.25,0.0,8.25,1.0,0.25,0.0,0.0,0.0,0.75,0.08,0.45,1.33,994.74,-21.3,58.0
1.38,1.0,0.0,0.5,2.0,0.0,0.0,0.0,0.0,0.0,0.75,0.25,0.5,0.0,1.08,4.27,-0.05,84.86,16.6,22.7,9.0,1.5,9.5,7.75,6.0,0.0,7.5,1.0,0.0,0.0,0.25,0.0,0.75,0.14,0.64,1.83,888.65,-22.1,58.6
1.4,1.0,0.0,1.5,1.75,0.0,0.0,0.0,0.0,0.0,1.25,0.75,1.25,0.5,0.89,1.52,-1.67,105.8,14.3,-6.2,8.5,1.25,8.0,4.5,4.75,0.0,6.75,0.0,0.0,0.0,0.0,0.0,0.0,0.27,1.08,2.58,715.56,-25.1,66.7
1.42,0.0,0.0,0.0,0.25,0.0,0.0,0.0,0.0,0.0,2.5,1.5,3.0,2.0,-0.42,0.14,1.58,132.25,-2.2,-90.4,7.5,0.0,5.5,3.25,1.0,0.0,5.5,0.0,0.0,0.0,0.0,0.0,0.25,0.58,1.14,2.45,498.91,-29.7,66.3
1.44,0.0,0.0,0.0,0.25,0.0,0.0,2.75,0.0,0.0,4.0,0.0,4.0,4.5,0.33,0.52,2.83,179.1,-3.0,-84.3,5.5,0.5,4.0,1.5,0.5,0.0,3.5,0.0,0.0,0.0,0.0,0.0,0.0,0.45,0.83,2.77,321.82,-31.1,71.5
1.46,0.0,0.0,0.75,0.25,0.0,0.0,0.0,0.0,0.0,4.75,3.75,4.5,5.0,-0.17,0.33,2.08,237.56,-1.6,-85.5,2.75,0.0,3.25,0.5,0.5,0.0,1.25,0.0,0.0,0.0,0.0,0.5,0.0,0.95,-0.48,2.39,192.85,-30.6,58.9
1.48,0.0,0.0,0.0,1.25,0.0,0.0,0.0,1.5,0.0,6.5,4.5,3.25,5.0,-1.11,0.52,2.89,290.13,-4.5,-78.1,0.75,0.0,3.25,0.5,1.0,0.0,1.25,1.25,0.0,0.0,0.25,0.0,0.25,0.7,-0.8,1.33,89.44,-19.2,35.4
1.5,0.0,0.0,0.0,0.25,0.0,0.0,0.0,3.75,0.75,6.25,5.75,3.0,5.0,-0.11,0.14,1.2,345.51,-5.3,-78.7,1.0,0.0,2.75,0.5,0.5,0.0,0.25,0.5,0.0,0.0,0.0,0.0,0.25,1.14,-1.05,2.64,5.51,-24.3,48.9
1.52,0.0,0.0,0.0,0.25,0.0,0.0,0.0,2.75,0.75,6.25,6.25,1.25,0.0,-0.17,0.14,1.02,344.68,-3.1,-68.5,0.25,0.0,2.0,0.5,0.5,0.0,0.25,0.25,0.0,0.0,0.0,0.0,0.0,0.33,-1.48,1.39,0.0,-24.9,54.0
1.54,0.0,0.0,0.0,2.25,0.0,0.0,0.75,4.0,0.75,7.75,6.5,3.0,5.75,-0.11,0.08,0.95,392.16,-3.7,-68.2,0.25,0.0,1.75,0.5,0.5,0.0,0.25,0.25,0.0,0.0,0.0,0.0,0.25,0.45,-0.3,1.08,0.0,-21.3,42.3
1.56,0.0,0.0,0.0,2.5,0.0,0.0,0.5,4.25,1.0,7.0,7.0,2.75,5.0,-0.11,0.08,0.95,422.17,-3.0,-65.5,0.25,0.0,2.0,0.0,0.25,0.0,0.25,0.25,0.0,0.0,0.0,0.0,0.0,0.39,-0.23,0.52,0.0,-29.0,53.3
1.58,0.0,0.25,0.0,2.25,0.0,0.75,1.0,4.5,1.75,7.0,6.25,3.25,4.75,-0.11,0.08,0.95,472.19,-3.0,-61.5,0.0,0.0,1.75,0.5,0.5,0.0,0.25,0.0,0.0,0.0,0.0,0.0,0.0,0.14,-0.17,0.64,0.0,-26.4,57.6
1.6,0.0,0.0,0.0,2.5,0.0,1.5,1.0,4.5,1.5,6.5,6.25,3.0,4.5,-0.11,0.08,0.95,487.69,-3.3,-58.8,0.0,0.0,1.5,0.5,0.0,0.0,0.0,0.0,0.0,0.0,0.0,0.0,0.25,-0.05,-0.11,1.14,0.0,-27.7,41.3
1.62,0.0,0.25,0.0,2.5,0.0,1.5,1.0,4.5,0.75,5.75,5.25,2.5,3.75,-0.11,0.08,0.95,473.14,-3.7,-54.4,0.0,0.0,1.75,0.5,0.0,0.0,0.25,0.0,0.0,0.0,0.0,0.0,0.0,-0.05,-0.05,1.08,0.0,-33.4,58.6
1.64,0.0,0.25,0.0,2.5,0.0,2.0,1.0,4.5,1.0,4.75,3.75,2.0,2.5,-0.17,0.08,0.95,415.1,-4.0,-46.1,0.0,0.0,1.25,0.5,0.0,0.0,0.25,0.0,0.0,0.0,0.0,0.0,0.25,0.02,0.2,1.08,0.0,-26.8,38.3
1.66,0.0,0.25,0.0,2.5,0.0,2.25,1.0,4.5,0.75,4.0,3.0,2.0,2.5,-0.17,0.08,0.95,361.16,-4.5,-43.4,0.0,0.0,1.5,0.25,0.0,0.0,0.25,0.0,0.0,0.0,0.0,0.0,0.0,0.08,0.2,1.2,1.38,-35.0,58.4
1.68,0.0,0.5,0.0,1.25,0.0,2.75,1.0,4.25,0.75,2.75,2.75,1.25,1.25,-0.11,0.08,0.95,299.71,-5.5,-36.5,0.0,0.0,1.0,0.25,0.0,0.0,0.0,0.0,0.0,0.0,0.0,0.0,0.0,0.08,0.27,1.58,8.17,-34.0,60.3
1.7,0.0,0.75,0.0,3.25,0.0,3.0,1.25,3.75,0.0,2.25,2.25,1.0,1.25,-0.11,0.08,0.95,263.06,-3.3,-19.0,0.0,0.0,1.25,0.5,0.0,0.0,0.0,0.0,0.0,0.0,0.0,0.0,0.0,0.08,0.33,2.02,15.05,-32.1,60.1
1.72,0.0,1.0,0.0,4.0,0.0,3.0,1.25,3.0,0.0,2.25,2.0,1.0,1.25,-0.11,0.08,0.95,237.91,-1.8,-12.4,0.0,0.0,1.0,0.0,0.0,0.0,0.25,0.0,0.0,0.0,0.0,0.0,0.0,0.14,0.45,2.45,13.5,-37.6,57.4
1.74,0.0,1.0,0.0,4.25,0.0,3.75,1.5,2.75,0.0,2.25,0.75,1.0,1.25,-0.17,0.14,0.95,225.21,-2.8,-4.6,0.0,0.0,1.0,0.5,0.0,0.0,0.25,0.0,0.0,0.0,0.0,0.0,0.0,0.08,0.7,2.95,18.08,-31.2,57.6
1.76,0.5,1.0,0.0,4.25,0.0,4.25,2.0,2.75,0.5,2.25,1.0,1.0,1.25,-0.17,0.14,0.95,227.61,-1.4,-2.5,0.0,0.0,0.5,0.5,0.0,0.0,0.25,0.0,0.0,0.0,0.0,0.0,0.0,0.14,1.02,3.45,17.74,-28.1,56.1
1.78,4.0,1.0,3.25,6.5,4.25,5.0,2.0,2.75,0.5,2.0,0.5,0.75,1.25,-0.11,0.14,0.95,285.31,6.5,29.4,0.0,0.0,0.75,0.5,0.0,0.0,0.0,0.0,0.0,0.0,0.0,0.0,0.0,0.14,2.08,2.02,18.35,-29.7,59.7
1.8,4.0,1.0,4.25,7.75,5.75,5.0,2.75,2.75,0.5,2.25,0.5,0.75,1.25,-0.11,0.14,1.02,379.69,7.4,31.6,0.0,0.0,1.75,0.5,0.5,0.25,0.0,0.0,0.0,0.0,0.0,0.5,0.75,-0.61,3.45,0.95,35.15,-14.6,9.0
1.82,4.25,1.0,0.0,9.0,0.0,5.25,3.0,2.75,0.5,2.25,1.25,1.0,1.25,-0.17,0.14,1.02,432.56,5.9,20.3,1.0,0.5,3.0,0.75,1.0,0.0,0.0,0.0,0.0,0.75,0.0,0.5,0.0,-1.8,4.02,0.27,71.56,-20.6,42.3
1.84,0.0,1.25,0.0,9.0,6.75,5.0,3.5,2.25,0.25,0.75,1.0,0.75,0.25,-0.17,0.2,1.02,462.85,2.1,31.9,0.5,0.5,2.75,0.5,1.0,0.0,0.25,1.25,0.0,0.75,0.25,0.5,0.75,-2.42,4.58,0.02,109.16,-11.3,11.1
1.86,3.75,1.25,6.0,10.0,0.0,5.5,4.25,2.0,0.25,2.0,0.5,0.75,1.0,-0.17,0.2,1.02,496.31,12.4,34.5,0.5,0.0,3.0,0.0,1.0,0.0,0.25,1.25,0.0,0.0,0.0,0.5,0.75,-1.36,3.52,0.39,128.21,-14.6,15.1
1.88,0.0,1.25,7.75,9.25,0.0,0.0,4.75,1.25,0.25,0.75,0.5,0.0,0.0,-0.17,0.2,0.95,456.3,22.4,45.3,0.0,0.0,0.5,0.0,0.0,0.0,0.25,1.25,0.0,0.0,0.75,1.0,1.5,0.45,-0.61,0.2,126.46,0.3,-67.5
1.9,6.75,1.5,8.0,11.0,0.0,0.0,5.0,1.0,0.0,0.25,0.0,0.25,0.0,-0.17,0.2,1.2,469.79,25.7,60.9,0.0,0.0,3.0,0.0,1.0,0.75,0.5,1.0,0.0,4.75,2.0,5.25,3.5,0.7,0.33,0.89,195.6,-1.5,-56.7
1.92,6.5,1.5,8.5,11.5,0.0,0.0,5.5,1.0,0.0,0.5,0.5,0.25,0.5,-0.23,0.27,1.27,492.24,24.7,54.8,0.0,0.0,0.5,0.0,0.0,0.0,0.0,1.25,0.0,7.25,4.75,6.25,6.75,-0.8,0.45,2.64,280.2,3.9,-88.0
1.94,7.0,0.0,8.25,10.5,0.0,0.0,5.75,0.0,0.25,0.75,0.0,0.0,0.0,-0.3,0.33,1.45,496.76,27.6,60.5,0.0,0.0,0.5,0.0,0.0,0.0,0.25,2.0,0.0,8.25,7.25,5.5,7.0,0.27,0.7,2.33,385.55,3.7,-84.6
1.96,7.75,0.0,8.0,9.0,0.0,0.0,5.25,0.5,0.0,0.75,0.5,0.5,0.0,-0.3,0.33,2.02,480.55,27.0,55.9,0.25,0.0,0.75,0.0,0.25,0.0,0.25,4.25,0.0,8.25,7.75,5.0,6.25,0.02,0.39,2.02,488.05,3.7,-76.7
1.98,8.0,0.0,6.75,6.0,0.0,0.0,4.75,1.0,0.0,0.75,0.5,1.0,0.0,-0.61,0.77,2.77,441.1,26.5,51.1,1.0,0.5,0.0,1.75,0.5,3.0,0.25,5.25,1.0,9.25,8.25,5.5,5.5,-0.05,0.2,0.95,600.12,3.7,-57.6
2.0,0.0,0.0,5.5,4.0,0.0,0.0,3.25,1.0,0.0,0.5,0.5,0.5,0.0,-0.92,1.27,2.95,335.73,23.3,33.3,1.25,0.5,3.25,2.0,1.0,4.0,2.0,5.5,1.25,8.75,9.5,5.5,5.75,0.08,0.08,0.95,708.72,0.0,-44.0
2.02,0.0,0.0,4.0,2.5,0.0,0.0,1.5,0.75,0.0,0.5,0.5,0.0,0.0,-0.61,0.7,3.27,236.45,22.9,34.7,1.5,0.75,3.25,3.25,3.25,4.0,3.5,5.25,1.5,8.25,9.0,5.0,5.75,0.08,0.08,0.95,807.16,-1.1,-33.1
2.04,0.0,0.0,2.5,0.0,0.0,0.0,0.0,0.0,0.0,0.0,0.0,0.0,0.0,-0.92,-0.92,2.83,127.21,38.2,61.0,2.5,0.75,5.5,3.25,3.5,4.0,5.25,5.25,1.5,7.25,8.5,4.25,4.5,0.08,0.08,0.95,878.43,-4.2,-21.2
2.06,0.0,0.0,0.0,1.0,0.0,0.0,1.75,0.0,0.0,1.25,0.0,0.5,0.0,-0.11,-1.05,1.89,47.9,8.2,-17.9,3.0,1.0,7.0,5.0,4.75,4.0,6.5,4.25,1.5,4.75,6.5,2.5,3.25,0.08,0.08,0.95,910.22,-7.6,-1.3
2.08,0.0,0.0,2.5,0.0,0.0,0.0,0.25,0.0,0.0,0.75,0.25,0.0,0.0,-0.67,-1.61,2.27,0.0,25.3,23.1,3.75,1.0,7.5,5.25,4.75,4.0,7.0,4.0,1.0,2.5,4.75,1.75,2.5,0.08,0.08,0.95,889.15,-9.9,11.6
2.1,0.0,0.0,0.5,2.25,0.0,0.0,0.25,0.0,0.0,0.5,0.25,0.0,0.0,-0.42,-1.3,1.95,0.0,15.7,30.8,3.75,1.25,8.0,4.5,5.0,4.0,7.0,2.75,1.0,2.25,2.5,1.0,1.25,0.08,0.14,0.95,819.67,-11.7,24.8
2.12,1.0,0.0,2.5,2.25,0.0,0.0,0.25,0.0,0.0,0.5,0.0,0.25,0.0,-0.36,-0.55,1.2,0.0,25.2,47.9,3.0,0.5,8.0,5.0,5.5,4.0,6.75,2.75,0.5,1.25,2.25,0.5,1.25,0.08,0.14,0.95,729.01,-11.8,28.6
2.14,0.0,0.0,2.5,2.5,0.0,0.0,0.25,0.0,0.0,0.75,0.0,0.25,0.0,-0.55,-0.3,0.27,0.0,21.8,36.1,3.75,0.0,8.0,5.25,4.25,3.25,7.0,2.75,0.25,0.0,1.0,0.25,0.5,0.08,0.14,0.95,613.62,-15.5,40.5
2.16,0.0,0.0,2.0,0.5,0.0,0.0,0.25,0.0,0.0,0.5,0.0,0.0,0.0,-0.55,-0.17,0.52,2.12,26.1,37.9,2.0,0.0,8.0,5.0,4.75,2.25,6.5,2.75,0.25,0.0,0.25,0.25,0.75,0.02,0.14,0.95,517.55,-15.0,39.3
2.18,0.0,0.0,1.25,0.5,0.0,0.0,0.0,0.0,0.0,0.5,0.25,0.0,0.0,-0.36,-0.23,0.95,1.07,20.7,20.6,2.0,0.5,8.0,5.25,4.75,3.75,6.5,2.0,0.25,0.0,0.25,0.0,0.25,0.02,0.14,0.95,455.63,-14.5,45.8
2.2,0.0,0.0,0.0,0.5,0.0,0.0,0.0,0.0,0.0,0.5,0.0,0.0,0.0,-0.17,-0.17,1.2,0.0,1.1,-7.2,2.75,0.0,8.0,5.75,5.0,3.75,6.5,1.25,0.25,0.0,0.0,0.0,0.5,0.02,0.2,0.89,420.21,-15.4,48.0
2.22,0.0,0.0,0.0,0.25,0.0,0.0,0.25,0.0,0.0,0.5,0.5,0.0,0.0,-0.23,0.08,1.27,0.0,4.2,-40.8,2.75,0.0,8.0,7.0,6.0,3.75,6.75,1.25,0.25,0.0,0.0,0.0,0.5,0.02,0.2,0.89,416.34,-14.9,48.5
2.24,0.0,0.0,0.75,2.25,0.0,0.0,0.0,0.0,0.0,1.0,0.0,0.5,0.0,-0.17,0.2,1.45,22.36,12.7,11.5,3.0,0.0,8.25,7.25,6.0,4.0,6.75,1.25,0.25,0.0,0.0,0.0,0.5,0.02,0.2,0.83,431.17,-15.0,48.9
2.26,0.0,0.0,1.5,0.25,0.0,0.0,0.0,0.0,0.0,0.5,0.0,0.0,0.0,-0.05,0.27,2.08,33.35,24.1,31.0,3.75,0.5,8.75,9.0,6.75,4.25,7.0,1.25,0.0,0.0,0.0,0.25,0.5,0.08,0.2,1.02,484.3,-15.1,50.5
2.28,0.0,0.0,0.75,0.25,0.0,0.0,0.0,0.0,0.0,0.5,0.0,0.0,0.0,-0.05,0.45,2.33,36.37,17.0,15.9,5.5,1.25,9.25,9.5,7.5,4.75,7.25,1.25,0.0,0.0,0.0,0.0,0.75,0.02,0.2,1.02,565.08,-15.2,53.1
2.3,0.0,0.0,0.75,0.25,0.0,0.0,0.0,0.0,0.0,0.5,0.0,0.0,0.0,-0.17,0.52,2.7,27.17,17.0,15.9,5.75,1.25,11.5,10.5,9.25,4.5,8.25,1.25,0.0,0.0,0.75,0.25,0.75,0.02,0.2,1.02,688.48,-15.9,51.0
2.32,0.0,0.0,2.0,2.0,0.0,0.0,0.0,0.0,0.0,0.5,0.0,0.0,0.0,-0.3,0.64,3.08,39.43,22.9,44.9,6.0,2.0,11.0,12.0,3.75,4.5,8.25,2.0,0.0,0.0,0.25,0.5,0.75,-0.05,0.2,1.02,768.01,-17.8,50.8
2.34,0.0,0.0,1.25,0.5,0.0,0.0,0.0,0.0,0.0,0.5,0.0,0.0,0.0,-0.23,3.2,2.52,37.52,21.8,30.7,6.75,1.0,11.5,11.0,8.25,4.25,8.5,1.25,0.25,0.75,0.25,0.5,0.75,0.02,0.27,0.95,854.72,-16.5,49.8
2.36,0.0,0.0,1.0,0.25,0.0,0.0,0.0,0.0,0.0,1.0,0.5,0.5,0.0,0.14,2.95,1.77,43.57,11.5,-27.1,7.75,1.5,13.5,11.5,9.25,1.5,8.75,1.25,0.0,0.0,0.5,0.25,0.75,0.02,0.27,1.2,917.79,-19.6,54.7
2.38,0.0,0.0,1.0,0.5,0.0,0.0,0.0,0.0,0.0,1.0,0.0,0.5,0.0,1.14,2.95,1.02,46.57,12.1,-12.1,8.0,2.25,12.5,11.0,7.0,0.0,8.75,0.5,0.25,0.0,0.0,0.5,0.5,0.02,0.33,1.27,926.56,-22.4,58.4
2.4,0.0,0.0,2.0,0.5,0.0,0.0,0.0,0.0,0.0,0.5,0.0,0.0,0.5,1.2,3.58,0.2,54.4,20.2,17.1,8.25,2.25,14.0,12.0,7.0,0.0,8.75,1.25,0.25,0.0,0.5,0.5,0.75,0.02,0.33,1.27,943.0,-22.0,55.2
2.42,0.5,0.0,1.75,1.75,0.0,0.0,0.0,0.0,0.0,1.25,0.0,0.5,0.5,0.89,3.64,-0.23,71.5,14.8,8.8,9.0,2.0,13.0,11.0,6.0,0.0,8.75,1.0,0.25,0.75,0.25,0.5,0.75,0.02,0.45,1.52,924.32,-22.2,54.6
2.44,0.0,0.0,1.75,0.75,0.0,0.0,0.0,0.0,0.0,1.0,0.0,0.0,0.25,0.52,2.33,0.64,75.83,16.4,13.4,8.5,0.75,11.0,5.75,1.75,0.0,7.75,0.0,0.25,0.0,0.0,0.0,0.75,-0.05,0.7,2.58,780.46,-28.3,61.2
2.46,0.0,0.0,1.5,0.25,0.0,0.0,0.0,0.0,0.0,2.5,0.0,2.5,1.25,0.58,-2.42,-4.3,99.69,3.5,-61.1,8.75,1.25,8.0,5.0,2.5,0.0,7.25,0.5,0.5,0.75,0.25,0.75,0.75,0.39,0.95,2.45,639.52,-24.2,51.9
2.48,0.5,0.0,0.5,1.5,0.0,0.0,0.0,0.0,0.0,4.0,0.0,4.25,1.75,-0.55,0.33,1.14,138.35,1.0,-63.2,7.0,0.5,7.0,3.25,1.0,0.0,5.75,0.5,0.25,0.0,0.25,0.25,0.75,0.45,0.95,2.77,468.29,-27.3,55.3
2.5,0.0,0.0,0.0,0.0,0.0,0.0,0.0,0.0,0.0,2.5,3.0,5.25,5.25,-0.17,0.7,2.77,199.53,-2.2,-98.2,4.5,0.75,3.25,2.75,0.25,0.0,3.25,0.0,0.0,0.75,0.0,0.0,0.0,0.58,-0.11,2.58,313.48,-26.9,62.3
2.52,0.0,0.0,0.0,0.25,0.0,0.0,0.0,0.0,0.0,5.5,4.0,5.25,6.25,0.45,0.39,2.45,264.33,-3.8,-92.6,1.0,0.0,3.25,1.75,0.0,0.25,1.25,0.0,0.0,0.75,0.0,0.5,0.0,0.58,-0.8,1.95,190.2,-24.2,38.4
2.54,0.0,0.0,0.0,0.25,0.0,0.0,0.0,0.0,0.5,6.5,5.75,5.5,6.25,-0.86,0.33,2.2,329.07,-2.8,-89.9,0.5,0.0,3.0,1.0,0.0,0.5,1.0,0.0,0.0,0.75,0.0,0.5,0.0,1.14,0.27,1.33,84.61,-22.0,31.2
2.56,0.0,0.0,0.75,2.0,0.0,0.0,0.0,1.0,0.75,7.75,6.0,4.75,6.0,-0.11,0.08,1.08,396.85,-1.5,-72.9,1.25,0.25,3.25,1.25,1.0,0.25,1.25,1.0,0.25,0.0,0.25,0.25,0.75,0.83,-1.23,1.83,32.88,-17.5,30.9
2.58,0.0,0.0,1.25,0.25,0.0,0.0,0.0,2.0,1.25,7.75,7.5,4.5,0.0,-0.42,0.2,1.39,422.02,1.3,-68.2,0.25,0.0,3.0,0.5,0.0,0.0,0.25,0.0,0.0,0.0,0.0,0.0,0.25,0.2,-0.55,1.39,0.0,-32.1,51.2
2.6,0.0,0.0,0.0,0.25,0.0,0.0,0.0,1.5,1.0,7.5,7.0,5.0,5.0,-0.11,0.08,1.08,448.4,-2.9,-83.6,0.5,0.0,2.75,0.0,0.25,0.25,0.25,0.0,0.25,0.0,0.0,0.25,0.0,0.08,0.08,0.89,0.0,-28.7,46.9
2.62,0.75,0.0,0.0,2.0,0.0,0.0,0.0,2.5,1.75,8.0,7.75,5.0,6.0,-0.17,0.14,1.02,489.19,-1.3,-70.3,0.5,0.0,3.25,0.5,1.0,0.0,1.25,1.25,0.25,0.0,0.25,0.0,0.75,0.02,0.58,0.2,0.0,-16.6,22.9
2.64,0.0,0.0,0.0,2.25,0.0,0.0,0.5,2.5,1.75,6.75,7.5,5.0,6.0,-0.17,0.08,0.95,518.85,-1.2,-72.0,0.0,0.0,2.75,0.5,0.25,0.0,1.0,0.0,0.25,0.0,0.0,0.0,0.25,-0.05,0.7,-0.17,0.0,-28.4,41.8
2.66,1.25,0.0,0.0,2.0,0.0,0.0,0.5,2.5,1.75,6.75,7.75,4.75,6.0,-0.11,0.08,0.95,539.07,-0.1,-66.7,0.75,0.0,2.75,0.5,0.25,0.5,1.0,0.75,0.5,0.5,0.25,0.5,0.75,-0.23,0.77,0.02,12.99,-14.9,8.4
2.68,0.0,0.0,0.0,2.25,0.0,0.0,0.5,2.75,1.5,7.0,7.0,3.75,5.0,-0.17,0.08,0.95,524.4,-1.8,-69.0,1.25,0.0,3.25,1.25,1.0,1.0,1.0,1.25,0.25,0.25,0.0,0.25,0.75,-0.36,0.89,0.33,70.33,-13.5,27.9
2.7,0.0,0.0,1.0,2.0,0.0,0.0,0.5,2.5,1.5,7.0,7.0,4.0,5.0,-0.17,0.08,0.95,498.71,-0.4,-66.3,1.25,0.25,3.25,1.0,1.0,1.0,1.0,1.25,0.25,0.5,0.25,0.5,0.75,-0.55,0.95,0.39,117.2,-12.6,21.6
2.72,0.0,0.0,1.25,2.25,0.0,0.0,0.5,2.0,1.5,6.25,6.25,3.75,5.0,-0.17,0.08,0.95,456.55,0.4,-63.6,1.25,0.5,3.25,0.75,1.0,0.5,1.0,1.25,0.25,0.75,0.25,0.5,0.75,-0.61,1.02,0.52,153.41,-13.4,20.0
2.74,0.0,0.0,1.5,2.25,0.0,0.0,0.5,2.5,0.75,6.25,4.25,3.0,5.0,-0.17,0.08,0.95,412.2,-0.8,-60.4,1.25,0.25,3.25,1.0,1.0,0.75,0.75,1.25,0.25,0.75,0.25,0.5,0.75,-0.55,1.58,0.58,178.48,-12.5,19.3
2.76,0.0,0.0,1.75,2.25,0.0,0.0,0.5,2.5,1.5,6.25,5.0,3.0,4.5,-0.11,0.08,0.95,384.36,0.3,-58.1,1.25,0.25,3.0,1.0,0.5,0.5,1.0,1.25,0.25,0.75,0.0,0.5,0.75,-0.48,1.64,-0.36,182.88,-13.8,18.3
2.78,0.0,0.0,1.25,2.25,0.0,0.0,0.75,2.75,1.5,5.5,3.75,3.0,3.75,-0.11,0.08,0.95,354.09,0.0,-57.0,1.25,0.0,3.0,1.75,1.0,0.5,0.75,1.25,0.25,0.5,0.25,0.25,0.75,-0.23,1.14,0.08,182.92,-13.7,23.8
2.8,0.0,0.0,0.0,2.0,0.0,0.75,1.0,3.0,1.0,5.25,2.75,2.5,3.5,-0.11,0.14,0.95,320.78,-3.9,-59.3,0.5,0.0,3.0,0.0,0.5,1.25,0.75,1.0,0.0,0.75,0.25,0.25,0.75,-0.11,1.33,0.27,168.75,-9.5,10.2
2.82,0.0,0.5,0.0,2.5,0.0,1.5,1.0,4.0,0.75,4.25,3.75,2.0,2.5,-0.11,0.14,0.95,296.36,-3.0,-45.7,1.25,0.0,2.75,0.5,1.0,0.75,0.75,1.0,0.0,0.0,0.5,0.75,0.75,-2.23,7.83,-1.42,166.12,-13.7,17.5
2.84,0.0,0.75,0.0,2.5,0.0,1.75,1.25,3.75,0.75,4.0,3.0,2.0,2.25,-0.11,0.14,0.95,275.47,-2.9,-40.6,1.0,0.25,3.0,0.75,1.0,0.5,0.5,1.0,0.25,0.0,0.0,0.5,0.75,1.33,1.2,-2.86,156.15,-14.9,26.2
2.86,4.0,1.0,0.0,2.5,0.0,2.75,1.25,3.75,0.75,3.75,1.5,1.25,1.5,-0.11,0.08,0.95,268.76,1.7,-6.4,0.0,0.0,3.0,0.0,1.0,0.0,0.25,0.0,0.0,0.0,0.0,0.0,0.0,2.27,3.45,-3.42,126.77,-27.1,58.0
2.88,4.0,1.0,0.0,3.5,0.0,4.0,1.0,4.25,0.0,2.25,1.0,1.0,1.25,-0.11,0.14,0.95,270.71,1.3,7.2,0.0,0.0,2.5,0.0,0.0,0.0,0.25,0.0,0.0,0.0,0.0,0.0,0.0,0.95,2.52,0.95,91.53,-38.0,59.5
2.9,0.0,1.0,2.25,4.0,1.25,4.75,1.25,3.5,0.5,2.25,1.0,1.0,1.25,-0.11,0.14,1.02,279.94,0.0,3.5,0.0,0.0,1.25,0.25,0.0,0.0,0.25,0.0,0.0,0.75,0.0,0.0,0.0,0.08,0.64,2.02,52.28,-18.9,16.6
2.92,0.0,1.0,2.25,4.25,0.25,5.25,1.5,3.0,0.0,2.25,1.25,1.0,1.25,-0.17,0.14,1.02,284.08,0.2,3.4,1.25,0.5,1.0,0.5,0.0,0.5,0.25,1.0,0.25,0.5,0.25,0.5,0.75,-0.17,-0.3,2.27,51.86,-8.9,4.7
2.94,0.0,1.0,3.5,4.5,0.0,5.25,1.25,2.5,0.0,2.25,1.5,0.75,1.25,-0.17,0.2,1.02,289.72,2.8,7.7,0.5,0.0,3.25,0.75,1.0,0.5,1.0,1.0,0.25,0.75,0.0,0.5,0.75,-0.17,-0.61,2.64,78.84,-12.7,14.2
2.96,0.0,1.0,3.25,5.25,0.0,4.75,1.5,1.5,0.5,2.25,1.25,0.75,1.25,-0.17,0.2,1.08,292.68,4.6,10.4,0.75,0.0,3.0,0.5,1.0,0.75,0.75,0.75,0.25,0.5,0.25,0.5,0.75,0.39,-0.98,2.52,109.98,-12.8,15.6
2.98,5.25,1.0,2.75,6.25,0.0,5.25,1.5,1.5,0.5,2.25,0.25,0.75,1.0,-0.17,0.2,0.95,320.86,9.3,31.6,0.0,0.0,3.0,0.5,1.0,0.0,0.75,0.75,0.25,0.5,0.25,0.0,0.0,0.45,-1.73,2.39,118.85,-17.5,28.5
3.0,6.5,1.0,5.25,7.0,0.0,0.0,1.75,1.0,0.0,1.5,0.5,0.25,0.5,-0.17,0.27,1.02,336.37,22.3,49.1,1.25,0.5,3.0,0.25,0.5,0.75,0.5,1.0,0.25,0.75,0.25,0.5,0.75,-0.36,4.2,0.02,133.66,-12.9,16.6
3.02,6.5,1.25,6.0,7.5,0.0,0.0,2.0,1.0,0.0,0.5,0.25,0.25,0.25,-0.17,0.27,1.02,355.81,24.7,58.1,1.0,0.0,3.0,0.5,0.5,1.25,0.75,1.0,0.25,0.75,0.0,0.5,0.75,-0.17,-0.98,-5.55,140.62,-11.1,14.7
3.04,7.75,1.0,6.25,7.75,0.0,0.0,2.25,0.75,0.0,1.5,0.25,0.75,0.0,-0.23,0.33,1.08,374.07,24.3,53.8,1.0,0.5,3.0,0.25,0.5,1.25,0.75,1.25,0.25,0.25,0.25,0.5,0.75,-0.11,-0.3,-2.3,152.72,-11.7,18.9
3.06,8.0,2.0,6.0,7.25,0.0,0.0,2.5,0.0,0.0,1.5,0.5,0.75,0.0,-0.23,0.39,1.14,389.12,25.0,57.0,1.0,0.5,3.0,0.5,0.5,1.5,0.5,1.0,0.25,0.5,0.25,0.25,0.75,0.27,-0.3,-0.42,160.74,-10.9,22.3
3.08,0.0,0.0,6.5,6.0,0.0,0.0,2.0,0.0,0.0,1.0,0.75,1.0,0.0,-0.36,0.52,1.64,343.08,23.7,33.5,1.25,0.5,2.75,0.5,0.5,0.75,0.5,1.25,0.25,0.75,0.25,0.25,0.75,0.02,-0.3,-1.48,167.59,-11.8,18.3
3.1,0.0,0.0,6.0,4.0,0.0,0.0,1.25,0.0,0.0,0.0,1.5,1.0,0.0,-1.23,1.2,2.33,284.91,26.2,31.0,1.25,0.5,3.0,0.5,0.5,1.25,0.25,1.0,0.25,0.75,0.25,0.0,0.75,0.45,-0.11,-2.17,171.3,-11.3,24.5
3.12,0.0,0.0,4.25,2.25,0.0,0.0,0.25,0.5,0.0,0.0,0.25,0.75,0.0,-2.67,2.39,3.39,213.21,25.5,34.4,1.25,0.5,3.0,0.5,1.0,1.25,0.25,1.25,0.25,0.25,0.25,0.5,0.75,0.33,0.08,-1.42,173.73,-11.1,23.1
3.14,0.0,0.0,2.5,2.25,0.0,0.0,0.0,0.0,0.0,0.25,0.75,0.0,0.0,-1.42,2.64,4.39,141.12,24.2,37.2,1.25,0.5,3.0,0.5,1.0,1.5,0.25,1.0,0.25,0.75,0.0,0.25,0.75,1.33,2.02,0.02,174.45,-9.8,25.4
3.16,0.0,0.0,0.0,0.0,0.0,0.0,0.0,0.0,0.0,0.0,0.0,0.0,0.0,-1.05,0.64,1.27,52.05,0.0,0.0,1.25,0.0,3.0,0.25,0.5,1.25,0.25,1.25,0.25,0.75,0.25,0.25,0.75,1.2,3.27,1.02,166.74,-10.4,14.8
3.18,0.0,0.0,0.0,0.0,0.0,0.0,6.25,4.75,2.5,0.5,0.0,0.0,0.0,-0.98,1.95,0.27,45.26,3.6,-21.9,1.25,0.25,3.0,0.75,1.0,0.5,0.25,0.5,0.25,1.0,0.25,0.25,0.75,-0.3,-1.86,-1.98,162.38,-13.7,21.8
3.2,0.0,0.0,1.5,0.5,0.0,0.0,0.0,0.0,0.0,0.5,0.0,0.0,0.0,1.33,-2.05,0.39,10.36,23.4,33.7,1.25,0.5,2.75,0.5,0.5,0.75,0.25,0.5,0.25,0.75,0.25,0.5,0.75,-0.67,-2.67,-2.55,156.49,-13.7,19.4
3.22,0.0,0.0,2.5,0.5,0.0,0.0,0.0,0.0,0.0,0.5,0.0,0.0,0.0,-0.42,0.45,1.52,3.12,27.7,41.5,1.25,0.25,1.75,0.5,0.5,1.25,0.5,0.75,0.25,0.5,0.25,0.5,0.75,-0.67,-2.55,-0.98,148.22,-9.1,14.1
3.24,0.0,0.0,0.75,0.25,0.0,0.0,0.25,0.0,0.0,0.75,0.0,0.25,0.0,0.27,-2.23,0.45,0.0,13.1,-8.5,1.0,0.0,2.75,0.0,1.0,1.0,0.75,0.25,0.25,0.75,0.25,0.5,0.75,-1.73,-0.3,-0.48,139.74,-12.3,14.9
3.26,0.0,0.0,2.0,2.25,0.0,0.0,0.0,0.0,0.0,0.75,0.0,0.75,0.0,-0.55,-1.05,-0.05,1.11,19.3,20.8,1.25,0.25,3.25,1.0,0.5,0.75,1.0,0.0,0.25,0.75,0.25,0.5,0.75,-1.61,0.64,-0.67,142.57,-17.3,24.6
3.28,0.0,0.0,1.0,2.0,0.0,0.0,0.0,0.0,0.0,1.0,0.0,0.75,0.0,-0.36,-1.3,0.39,9.09,13.6,5.4,1.25,0.5,3.25,0.5,0.5,1.0,1.0,0.0,0.0,0.75,0.25,0.5,0.75,-0.8,0.14,-0.86,145.25,-16.4,26.6
3.3,0.0,0.0,2.5,2.0,0.0,0.0,0.25,0.0,0.0,0.75,0.0,0.75,0.0,0.58,-2.73,2.02,43.08,21.2,22.7,1.25,0.25,2.5,0.5,0.5,1.25,1.0,0.5,0.25,0.5,0.25,0.5,0.75,0.08,0.45,-1.23,146.68,-12.7,19.6
3.32,0.0,0.0,1.75,1.75,0.0,0.0,0.0,0.0,0.0,0.75,0.0,0.5,0.0,-0.17,-2.61,1.08,65.19,19.0,21.4,0.5,0.25,3.0,0.5,0.5,1.25,1.0,0.5,0.25,0.75,0.25,0.25,0.75,1.45,0.27,-1.23,145.56,-11.8,16.9
3.34,0.0,0.0,1.5,1.75,0.0,0.0,0.25,0.0,0.0,0.75,0.0,0.75,0.0,1.52,4.27,-3.92,75.69,17.9,13.0,1.25,0.5,2.5,0.75,0.5,1.75,1.0,0.5,0.25,0.75,0.25,0.5,0.75,1.08,0.58,-0.8,150.61,-10.6,20.9
3.36,0.0,0.0,1.0,1.25,0.0,0.0,0.0,0.0,0.0,0.75,0.0,0.5,0.0,-0.55,-0.92,-5.36,71.94,15.2,7.6,0.75,0.25,2.75,0.5,0.5,0.5,0.75,0.5,0.25,1.0,0.25,0.5,0.75,0.39,0.52,-0.92,145.94,-13.3,10.2
3.38,0.0,0.0,0.0,1.25,0.0,0.0,0.0,0.0,0.0,0.75,0.0,0.75,0.0,-0.17,0.58,-3.3,62.42,6.1,-22.3,1.0,0.25,2.75,0.75,0.5,1.25,1.0,0.5,0.25,0.5,0.25,0.5,0.75,-0.11,0.7,-0.92,148.38,-13.0,19.8
3.4,0.0,0.0,0.0,1.75,0.0,0.0,0.0,0.0,0.0,0.75,0.25,0.75,0.0,-0.61,-0.48,-1.17,56.22,8.1,-14.1,0.75,0.5,2.75,0.5,0.5,1.25,1.0,0.25,0.25,0.25,0.0,0.75,0.75,-0.11,0.83,-0.92,145.61,-13.8,22.2
3.42,0.0,0.0,0.0,1.75,0.0,0.0,0.0,0.0,0.0,0.75,0.0,0.75,0.25,0.27,-0.67,-0.55,47.7,6.3,-16.9,0.75,0.5,2.5,1.0,0.5,0.75,1.0,0.5,0.25,0.75,0.25,0.25,0.75,0.02,0.89,-0.98,145.47,-13.0,20.2
3.44,0.0,0.0,0.0,1.75,0.0,0.0,0.25,0.0,0.0,1.0,0.0,0.75,0.0,0.27,-0.42,-0.73,53.96,7.1,-12.9,1.0,0.5,2.75,0.0,0.5,0.5,1.0,0.0,0.25,1.25,0.25,0.5,0.75,0.02,0.77,-0.92,141.01,-14.7,12.8
3.46,0.0,0.0,2.25,2.25,0.0,0.0,0.0,0.0,0.0,0.75,0.0,0.75,0.0,0.45,0.2,-0.8,68.07,20.1,22.5,1.0,0.0,3.0,0.5,0.5,0.75,1.0,0.25,0.25,0.5,0.25,0.5,0.75,-0.05,0.7,-1.23,139.07,-16.4,18.5
3.48,0.0,0.0,2.0,1.75,0.0,0.0,0.0,0.0,0.0,0.75,0.0,0.75,0.25,0.45,0.64,-1.11,78.7,18.0,11.4,1.0,0.5,3.0,0.5,0.5,0.5,1.0,0.25,0.25,0.0,0.0,0.5,0.75,0.2,0.64,-1.42,134.35,-19.3,31.4
3.5,0.0,0.0,2.25,2.0,0.0,0.0,0.0,0.0,0.0,1.0,0.0,0.0,0.0,0.27,0.77,-1.36,85.1,20.1,34.5,0.75,0.0,2.75,0.5,0.5,1.0,1.0,0.0,0.25,0.75,0.25,0.25,0.75,0.02,0.39,-1.3,130.15,-14.3,18.1
3.52,0.0,0.0,2.5,0.25,0.0,0.0,0.25,0.0,0.0,0.75,0.5,0.0,0.0,0.14,0.83,-1.11,82.33,23.9,19.6,0.5,0.5,3.0,0.5,0.5,1.25,1.0,0.0,0.25,1.75,0.5,0.5,0.75,-0.11,0.27,-1.17,138.33,-10.5,7.7
3.54,0.0,0.0,2.25,1.75,0.0,0.0,0.25,0.0,0.0,1.0,0.0,0.25,0.0,0.14,0.89,-0.73,85.13,20.0,26.7,1.0,0.5,3.0,0.5,0.5,1.25,1.0,0.0,0.25,1.0,0.25,0.25,0.75,-0.23,0.39,-0.8,144.12,-13.7,23.4
3.56,1.0,0.0,2.5,1.5,0.0,0.0,0.25,0.0,0.0,1.0,0.5,0.0,0.0,0.27,1.08,-0.61,94.05,22.6,34.4,1.0,0.5,3.0,0.5,0.5,0.5,1.0,0.25,0.25,1.0,0.25,0.25,0.75,-0.05,0.27,-0.92,147.36,-15.6,20.9
3.58,0.25,0.0,2.5,2.0,0.0,0.0,0.25,0.0,0.0,0.75,0.5,0.25,0.5,0.02,1.14,-0.92,105.42,19.2,18.1,1.0,0.5,3.0,0.5,0.5,1.25,1.0,0.0,0.25,1.0,0.25,0.25,0.75,-0.11,0.27,-0.8,149.31,-13.7,23.4
3.6,0.0,0.0,2.5,1.25,0.0,0.0,0.25,0.0,0.0,0.75,0.5,0.0,0.25,-0.11,1.08,-1.05,107.07,20.9,20.8,0.5,0.5,3.0,0.5,0.5,1.5,1.0,0.0,0.5,1.0,0.25,0.75,0.75,-0.11,0.27,-0.73,153.61,-11.6,12.4
3.62,0.0,0.0,2.5,1.5,0.0,0.0,0.25,0.0,0.0,1.0,0.25,0.0,0.5,-0.11,0.83,-0.98,106.84,18.1,16.7,1.25,0.5,3.0,0.5,0.5,1.0,1.0,0.0,0.25,1.0,0.25,0.5,0.75,0.2,0.2,-0.67,154.84,-14.9,21.6
3.64,0.0,0.0,2.0,1.25,0.0,0.0,0.25,0.0,0.0,1.0,0.0,0.5,0.5,-0.17,0.7,-0.98,99.18,15.8,3.2,0.5,0.5,2.75,0.5,0.5,0.75,1.0,0.0,0.25,1.0,0.0,0.25,0.75,0.02,0.14,-0.48,148.75,-13.9,20.3
3.66,0.0,0.0,2.25,1.25,0.0,0.0,0.25,0.0,0.0,0.75,0.0,0.0,0.25,-0.3,0.7,-1.05,90.82,20.9,28.4,0.75,0.5,3.25,0.5,1.0,1.5,1.0,0.0,0.25,1.0,0.25,0.5,0.75,-0.36,0.33,-0.42,154.53,-12.0,21.5
3.68,0.0,0.0,1.5,1.25,0.0,0.0,0.25,0.0,0.0,1.0,0.0,0.25,0.25,0.08,0.58,-0.92,81.08,15.2,9.4,1.0,0.5,2.75,0.5,1.25,1.25,1.0,0.0,0.25,1.0,0.25,0.25,0.75,-0.36,0.52,-0.48,157.13,-11.6,25.0
3.7,0.0,0.0,1.75,1.25,0.0,0.0,0.25,0.0,0.0,1.0,0.0,0.25,0.0,0.27,0.39,-0.73,74.22,18.2,19.2,0.75,0.5,2.75,0.5,1.25,1.0,1.0,0.0,0.25,1.0,0.25,0.5,0.75,-0.11,0.52,-0.61,160.18,-11.8,19.8
3.72,0.75,0.0,2.0,1.25,0.0,0.0,0.25,0.0,0.0,1.0,0.0,0.5,0.0,0.2,0.27,-0.61,77.88,20.8,25.1,0.75,0.5,3.0,0.5,1.0,1.0,1.0,0.0,0.25,1.0,0.25,0.5,0.75,-0.05,0.52,-0.67,160.02,-12.9,19.9
3.74,1.0,0.0,1.75,1.25,0.0,0.0,0.25,0.0,0.0,0.75,0.0,0.0,0.0,0.02,0.14,-0.73,79.18,23.6,45.5,0.75,0.5,3.0,0.5,0.5,1.5,1.0,0.25,0.25,1.0,0.0,0.5,1.25,-0.11,0.39,-0.73,160.92,-10.3,13.2
3.76,0.75,0.0,1.75,1.25,0.0,0.0,0.25,0.0,0.0,0.75,0.0,0.5,0.25,0.02,0.14,-0.8,83.17,20.0,21.7,1.25,0.5,2.75,0.5,0.5,1.25,1.0,0.0,0.25,0.75,0.0,0.25,0.75,-0.36,0.27,-0.8,154.72,-14.4,29.5
3.78,0.0,0.0,1.5,1.25,0.0,0.0,0.25,0.0,0.0,0.75,0.0,0.0,0.0,0.27,0.2,-0.73,74.23,19.8,31.3,0.5,0.5,3.0,0.5,0.5,1.0,1.0,0.0,0.25,0.75,0.0,0.5,0.75,-0.61,0.39,-0.8,148.6,-14.3,20.9
3.8,0.0,0.0,1.75,1.25,0.0,0.0,0.5,0.0,0.0,0.75,0.0,0.0,0.0,0.58,0.02,-0.8,69.2,21.3,33.0,0.75,0.5,2.75,0.5,0.5,1.0,1.0,0.0,0.25,1.0,0.25,0.5,0.75,-0.48,0.52,-0.92,144.72,-13.3,16.7
3.82,0.0,0.0,1.25,1.25,0.0,0.0,0.25,0.0,0.0,0.75,0.0,0.25,0.25,0.58,-0.11,-0.98,63.19,15.7,11.4,0.5,0.0,3.0,0.5,0.5,1.25,1.0,0.0,0.25,1.0,0.25,0.5,0.75,-0.17,0.52,-1.17,140.15,-12.5,11.6
3.84,0.0,0.0,1.25,1.25,0.0,0.0,0.25,0.0,0.0,0.75,0.0,0.5,0.0,0.45,-0.11,-1.11,61.93,17.2,11.6,1.0,0.25,3.0,1.0,0.5,1.25,1.0,0.0,0.25,0.75,0.25,0.5,0.75,0.08,0.39,-1.48,143.61,-14.5,22.4
3.86,0.0,0.0,0.75,1.0,0.0,0.0,0.5,0.0,0.0,1.0,0.0,0.5,0.0,0.27,0.2,-0.98,57.43,12.3,-4.4,0.5,0.25,2.75,0.5,0.5,1.25,1.0,0.0,0.25,1.0,0.25,0.25,0.75,0.02,0.45,-1.42,141.32,-11.9,16.2
3.88,0.0,0.0,1.25,1.0,0.0,0.0,0.5,0.0,0.0,0.5,0.0,0.5,0.0,0.27,0.27,-0.8,56.24,20.0,14.9,0.75,0.5,3.0,0.5,0.5,1.25,1.0,0.0,0.0,0.75,0.25,0.5,0.75,-0.36,0.58,-1.23,142.75,-13.8,22.3
3.9,0.0,0.0,1.25,1.25,0.0,0.0,0.25,0.0,0.0,0.75,0.0,0.5,0.0,0.2,0.14,-0.73,56.64,17.2,11.6,0.5,0.5,2.75,0.5,0.5,1.25,1.0,0.0,0.25,1.25,0.25,0.75,0.75,-0.36,0.77,-1.23,141.64,-11.0,9.6
3.92,0.0,0.0,1.25,1.25,0.0,0.0,0.5,0.0,0.0,0.75,0.0,0.75,0.25,-0.05,0.14,-0.8,60.56,15.4,-1.2,0.5,0.5,2.75,0.5,0.5,1.25,1.0,0.0,0.25,1.0,0.25,0.5,0.75,-0.11,0.7,-1.23,142.67,-11.8,15.1
3.94,0.0,0.0,1.0,1.0,0.0,0.0,0.5,0.0,0.0,1.0,0.0,0.75,0.0,-0.05,0.27,-0.73,61.38,13.8,-6.7,0.5,0.5,2.75,0.5,0.5,0.5,1.0,0.0,0.25,0.75,0.25,0.5,0.75,-0.11,0.58,-0.92,138.0,-15.6,16.2
3.96,0.0,0.0,1.25,1.0,0.0,0.0,0.5,0.0,0.0,1.0,0.0,0.5,0.25,0.08,0.27,-0.61,63.37,13.9,-2.9,0.5,0.5,2.75,1.0,0.5,1.25,1.0,0.0,0.25,0.5,0.25,0.25,0.75,-0.23,0.39,-0.73,138.07,-13.7,25.9
3.98,1.0,0.0,0.0,1.25,0.0,0.0,0.5,0.0,0.0,0.75,0.0,0.25,0.25,0.95,0.58,-0.8,62.68,13.3,16.4,0.5,0.5,1.75,0.5,0.5,1.5,1.0,0.0,0.25,0.5,0.25,0.5,0.75,-0.3,0.27,-0.61,132.22,-9.1,15.4
4.0,0.5,0.0,1.25,1.5,0.0,0.0,0.5,0.0,0.0,1.0,0.0,0.5,0.25,0.89,0.7,-1.17,70.29,16.0,11.9,0.5,0.5,2.75,0.5,0.5,1.0,1.0,0.0,0.25,1.5,0.25,0.5,0.75,-0.48,0.27,-0.61,136.04,-11.2,9.9
4.02,1.0,0.0,1.0,1.25,0.0,0.0,0.5,0.0,0.0,0.75,0.0,0.5,0.5,0.08,0.58,-1.17,77.29,16.6,13.0,0.25,0.25,2.75,0.5,0.5,1.0,1.0,0.0,0.25,1.0,0.25,0.5,0.75,-0.55,0.39,-0.73,133.87,-12.1,9.8
4.04,0.5,0.0,1.0,1.25,0.0,0.0,0.5,0.0,0.0,1.0,0.0,0.5,0.25,-0.05,0.64,-0.92,80.72,14.8,6.7,0.25,0.5,2.75,0.5,1.0,1.25,1.0,0.0,0.25,1.0,0.25,0.5,0.75,-0.36,0.39,-0.86,139.24,-10.3,15.4
4.06,0.75,0.0,1.0,1.25,0.0,0.0,0.75,0.0,0.0,1.25,0.0,0.75,0.25,-0.05,0.52,-0.92,85.62,14.4,2.1,0.5,0.5,2.75,0.5,0.5,1.25,1.0,0.0,0.25,0.75,0.25,0.5,0.75,-0.3,0.33,-0.86,139.27,-12.6,17.6
4.08,0.0,0.0,1.0,1.0,0.0,0.0,0.5,0.0,0.0,0.75,0.0,0.5,0.25,-0.23,0.45,-0.98,79.16,14.2,-2.4,0.5,0.5,2.75,0.5,0.5,1.25,1.0,0.0,0.25,1.0,0.25,0.5,0.75,-0.36,0.27,-0.8,141.68,-11.8,15.1
4.1,0.75,0.0,1.25,0.5,0.0,0.0,0.5,0.0,0.0,0.75,0.0,0.75,0.25,-0.3,0.33,-0.98,76.38,18.1,3.7,0.5,0.5,2.5,0.5,0.5,0.75,1.0,0.0,0.25,1.0,0.25,0.5,0.75,-0.36,0.2,-0.8,138.91,-12.9,12.7
4.12,0.0,0.0,1.25,1.25,0.0,0.0,0.25,0.0,0.0,0.75,0.0,0.75,0.25,-0.17,0.39,-0.92,71.8,14.9,-2.0,0.75,0.5,2.75,0.5,0.5,1.25,1.0,0.0,0.25,1.25,0.25,0.25,0.75,-0.36,0.2,-0.8,141.14,-11.7,18.0
4.14,0.0,0.0,1.25,1.0,0.0,0.0,0.25,0.0,0.0,1.0,0.0,0.75,0.25,-0.36,0.39,-0.98,70.65,13.1,-9.7,0.25,0.5,2.5,0.5,0.5,1.0,1.0,0.0,0.25,1.25,0.0,0.5,0.75,-0.3,0.27,-0.86,137.88,-10.6,10.9
4.16,0.25,0.0,1.0,1.25,0.0,0.0,0.5,0.0,0.0,0.75,0.0,0.75,0.5,-0.42,0.39,-0.98,71.06,13.6,-5.6,0.5,0.5,2.75,0.5,0.5,1.25,0.75,0.0,0.25,1.75,0.25,0.5,0.75,-0.23,0.33,-0.92,143.05,-9.5,8.1
4.18,0.25,0.0,1.0,1.25,0.0,0.0,0.5,0.0,0.0,1.0,0.0,0.75,0.5,-0.36,0.39,-0.98,74.33,12.1,-9.0,0.75,0.75,2.75,1.0,0.5,1.25,0.75,0.0,0.25,1.0,0.25,0.5,0.75,-0.23,0.39,-0.98,148.7,-12.4,21.1
4.2,0.25,0.0,0.75,1.25,0.0,0.0,0.25,0.0,0.0,0.75,0.0,0.75,0.25,-0.3,0.33,-0.98,71.83,13.2,-4.2,0.5,0.5,3.0,0.5,0.5,1.0,1.0,0.0,0.0,1.0,0.25,0.5,0.75,-0.23,0.33,-0.92,148.75,-13.4,17.3
4.22,0.25,0.0,0.75,1.5,0.0,0.0,0.5,0.0,0.0,0.75,0.0,0.75,0.75,-0.3,0.27,-0.92,73.17,11.1,-10.9,0.25,0.5,2.0,0.5,0.5,1.0,1.0,0.0,0.25,0.0,0.25,0.5,0.75,-0.3,0.33,-0.8,137.42,-13.2,19.5
4.24,0.5,0.0,0.75,0.75,0.0,0.0,0.5,0.0,0.0,0.75,0.0,0.75,0.5,-0.23,0.27,-0.8,69.29,12.8,-11.7,0.25,0.5,2.5,0.5,0.5,1.25,0.75,0.0,0.25,0.5,0.25,0.25,0.75,-0.36,0.33,-0.73,129.0,-11.8,20.6
4.26,0.25,0.0,0.75,1.0,0.0,0.0,0.5,0.0,0.0,0.75,0.0,0.75,0.0,-0.17,0.33,-0.86,65.91,15.4,-0.3,0.25,0.5,2.5,0.5,0.5,1.25,1.0,0.0,0.25,1.0,0.25,0.5,0.75,-0.3,0.39,-0.73,126.81,-10.4,11.6
4.28,0.25,0.0,0.75,1.25,0.0,0.0,0.5,0.0,0.0,0.75,0.0,0.75,0.25,-0.17,0.27,-0.92,64.55,13.7,-3.3,0.5,0.5,2.5,0.5,0.5,1.5,0.75,0.0,0.0,1.0,0.25,0.25,0.75,-0.23,0.45,-0.92,127.73,-9.9,19.2
4.3,0.25,0.0,0.75,1.25,0.0,0.0,0.5,0.0,0.0,0.75,0.0,0.75,0.25,-0.11,0.27,-0.86,64.57,13.7,-3.3,0.5,0.5,2.0,0.5,0.5,1.25,0.75,0.0,0.25,0.75,0.0,0.5,0.75,-0.3,0.52,-0.92,127.21,-9.8,16.1
4.32,0.0,0.0,0.75,1.0,0.0,0.0,0.25,0.0,0.0,0.75,0.0,0.75,0.5,-0.11,0.2,-0.8,63.6,9.9,-21.2,0.25,0.5,2.5,0.5,0.5,1.0,1.0,0.0,0.25,0.75,0.25,0.5,0.75,-0.36,0.58,-0.92,127.65,-12.1,13.5
4.34,0.75,0.0,0.75,0.75,0.0,0.0,0.25,0.0,0.0,0.75,0.0,0.75,0.0,-0.11,0.2,-0.67,61.68,17.1,6.6,0.25,0.5,2.25,0.5,0.5,1.25,1.0,0.0,0.25,1.0,0.25,0.75,0.75,-0.3,0.52,-0.86,128.42,-9.6,6.7
4.36,1.25,0.0,0.75,0.5,0.0,0.0,0.25,0.0,0.0,0.75,0.0,0.75,0.0,0.02,0.33,-0.73,62.01,19.1,13.8,0.25,0.25,2.5,0.5,0.5,1.0,1.0,0.0,0.25,0.75,0.25,0.5,0.75,-0.17,0.45,-0.8,125.94,-12.1,10.8
4.38,1.0,0.0,0.75,1.0,0.0,0.0,0.25,0.0,0.0,0.5,0.0,0.75,0.0,0.08,0.45,-0.86,62.87,20.1,20.0,0.25,0.5,2.25,0.5,0.5,1.25,1.0,0.0,0.25,0.75,0.25,0.5,0.75,-0.11,0.45,-0.86,126.49,-10.3,12.7
4.4,1.25,0.0,0.75,1.25,0.0,0.0,0.5,0.0,0.0,0.75,0.0,0.75,0.0,-0.05,0.58,-0.92,68.78,19.1,21.1,0.25,0.5,2.0,0.5,0.5,1.0,0.75,0.0,0.25,0.75,0.25,0.0,0.75,-0.17,0.52,-0.92,120.62,-10.2,18.4
4.42,0.75,0.0,0.75,1.25,0.0,0.0,0.25,0.0,0.0,0.75,0.0,0.75,0.25,0.02,0.58,-0.86,72.27,15.4,5.9,0.25,0.5,1.75,0.5,0.5,1.25,1.0,0.0,0.25,1.0,0.25,0.5,0.75,-0.23,0.58,-0.92,120.36,-7.8,6.8
4.44,1.0,0.0,1.0,1.25,0.0,0.0,0.25,0.0,0.0,0.75,0.0,0.75,0.0,0.02,0.58,-0.86,77.02,19.0,19.3,0.5,0.5,2.25,0.5,0.5,1.5,0.75,0.0,0.25,1.25,0.25,0.25,0.75,-0.23,0.64,-0.92,125.41,-8.4,13.7
4.46,1.5,0.0,0.75,0.75,0.0,0.0,0.25,0.0,0.0,0.75,0.0,0.75,0.0,0.08,0.58,-0.86,76.99,19.8,20.6,0.25,0.5,2.5,0.5,0.5,1.25,1.0,0.0,0.25,1.0,0.25,0.5,0.75,-0.17,0.64,-0.92,131.15,-10.4,11.6
4.48,1.0,0.0,1.0,1.25,0.0,0.0,0.25,0.0,0.0,0.75,0.0,0.75,0.25,0.08,0.64,-0.98,80.59,17.4,12.9,0.25,0.5,2.25,0.5,0.5,1.0,1.0,0.0,0.25,1.25,0.25,0.75,0.75,-0.11,0.64,-0.86,133.44,-9.7,3.7
4.5,1.0,0.0,0.75,1.25,0.0,0.0,0.0,0.0,0.0,0.75,0.0,0.75,0.0,0.08,0.77,-1.05,78.93,17.6,16.7,0.25,0.5,2.25,0.5,0.5,1.25,0.75,0.0,0.25,1.0,0.25,0.75,0.75,-0.05,0.64,-0.92,134.3,-9.3,6.4
4.52,1.5,0.0,1.25,1.5,0.0,0.0,0.25,0.0,0.0,1.0,0.0,0.75,0.0,0.2,0.83,-1.11,86.71,19.6,24.8,0.25,0.5,2.0,0.5,0.5,1.25,0.75,0.0,0.25,1.0,0.25,0.25,0.75,-0.05,0.64,-0.98,131.23,-8.3,11.9
4.54,1.25,0.0,1.25,0.5,0.0,0.0,0.25,0.0,0.0,0.75,0.0,0.75,0.0,0.2,0.89,-1.11,84.82,21.3,19.1,0.25,0.5,2.5,0.5,0.5,1.25,0.75,0.0,0.25,1.25,0.25,0.5,0.75,-0.05,0.7,-0.98,132.57,-9.4,8.9
4.56,1.25,0.0,1.25,1.0,0.0,0.0,0.25,0.0,0.0,1.0,0.0,0.75,0.0,0.14,0.95,-1.11,87.86,19.1,18.4,0.25,0.5,2.5,0.5,0.5,1.25,0.75,0.0,0.25,1.25,0.25,0.75,0.75,-0.05,0.7,-0.98,134.8,-9.4,5.7
4.58,1.0,0.0,0.75,0.5,0.0,0.0,0.25,0.0,0.0,1.0,0.0,0.75,0.0,0.14,0.95,-1.17,79.66,16.1,3.5,0.0,0.5,2.25,0.5,0.5,1.25,0.75,0.0,0.25,1.0,0.25,0.25,0.75,0.02,0.7,-0.98,132.83,-8.5,11.0
4.6,1.0,0.0,1.0,1.0,0.0,0.0,0.25,0.0,0.0,0.75,0.0,0.75,0.25,0.14,0.89,-1.05,78.35,17.4,10.5,0.25,0.5,2.25,0.5,0.5,1.25,0.75,0.0,0.25,1.0,0.25,0.25,0.75,0.02,0.7,-0.98,131.42,-9.3,13.5
4.62,0.75,0.0,1.25,1.0,0.0,0.0,0.25,0.0,0.0,0.75,0.0,0.75,0.25,0.2,0.7,-0.92,75.62,17.7,8.9,0.25,0.5,1.75,0.5,0.5,1.0,1.0,0.0,0.25,1.25,0.25,0.5,0.75,-0.05,0.64,-0.92,127.63,-7.9,3.5
4.64,0.75,0.0,0.75,1.0,0.0,0.0,0.25,0.0,0.0,1.0,0.0,0.75,0.25,0.27,0.45,-0.67,74.7,13.6,-1.3,0.0,0.5,2.5,0.5,0.5,1.25,1.0,0.0,0.25,0.75,0.25,0.5,0.75,-0.11,0.64,-0.86,127.13,-10.5,11.8
4.66,0.75,0.0,1.0,1.25,0.0,0.0,0.25,0.0,0.0,0.75,0.0,0.75,0.25,0.33,0.33,-0.61,75.52,16.6,8.8,0.0,0.5,2.25,0.5,0.5,1.5,0.75,0.0,0.25,1.25,0.25,0.5,0.75,-0.05,0.58,-0.92,127.33,-7.0,5.7
4.68,0.25,0.0,0.75,1.25,0.0,0.0,0.25,0.0,0.0,0.75,0.0,0.75,0.25,0.33,0.33,-0.61,71.68,13.2,-4.2,0.0,0.5,2.25,0.5,0.5,1.0,1.0,0.0,0.25,1.0,0.0,0.5,0.75,-0.17,0.58,-0.86,125.58,-9.8,9.4
4.7,0.25,0.0,0.5,1.25,0.0,0.0,0.25,0.0,0.0,0.75,0.0,0.75,0.5,0.33,0.27,-0.61,68.04,10.0,-14.7,0.0,0.5,2.0,0.5,0.5,1.25,0.75,0.0,0.25,1.75,0.25,0.5,0.75,-0.23,0.58,-0.8,127.35,-5.6,-1.3
4.72,0.75,0.0,0.75,1.0,0.0,0.0,0.25,0.0,0.0,0.75,0.0,0.75,0.5,0.33,0.27,-0.61,66.64,13.7,-3.3,0.0,0.5,2.0,0.5,0.5,1.25,0.75,0.0,0.25,1.0,0.25,0.5,0.75,-0.3,0.58,-0.8,125.06,-7.6,5.6
4.74,0.75,0.0,0.75,1.0,0.0,0.0,0.25,0.0,0.0,0.5,0.0,0.75,0.5,0.27,0.33,-0.73,66.63,15.3,0.7,0.25,0.5,2.0,0.5,0.5,1.0,0.75,0.0,0.25,1.0,0.25,0.5,0.75,-0.23,0.58,-0.73,124.02,-9.3,7.5
4.76,0.0,0.0,0.75,1.0,0.0,0.0,0.25,0.0,0.0,0.75,0.0,0.75,0.5,0.14,0.33,-0.8,63.3,9.9,-21.2,0.0,0.5,2.0,0.5,0.5,1.0,0.75,0.0,0.25,0.5,0.25,0.75,0.75,-0.23,0.52,-0.67,119.7,-10.1,6.3
4.78,1.0,0.0,0.75,1.25,0.0,0.0,0.25,0.0,0.0,1.0,0.0,0.75,0.5,0.08,0.33,-0.86,70.3,13.4,0.6,0.0,0.5,2.75,0.5,0.5,1.25,1.0,0.0,0.25,1.0,0.25,0.5,0.75,-0.23,0.45,-0.61,123.66,-10.6,10.7
4.8,0.75,0.0,0.75,1.25,0.0,0.0,0.5,0.0,0.0,1.0,0.0,0.75,0.25,0.14,0.45,-0.92,73.56,14.2,2.4,0.0,0.5,2.0,0.5,0.5,1.0,1.0,0.0,0.25,1.0,0.25,0.25,0.75,-0.17,0.45,-0.61,121.66,-8.9,8.9
4.82,1.0,0.0,0.75,1.0,0.0,0.0,0.25,0.0,0.0,0.75,0.0,0.75,0.25,0.2,0.52,-0.98,76.17,16.3,7.6,0.25,0.5,2.25,0.5,0.5,1.25,1.0,0.0,0.25,1.0,0.25,0.25,0.75,-0.11,0.52,-0.73,125.47,-9.6,13.7
4.84,1.0,0.0,0.75,1.0,0.0,0.0,0.25,0.0,0.0,0.75,0.0,0.75,0.5,0.33,0.7,-1.05,76.35,14.7,1.4,0.25,0.5,2.0,0.5,0.0,1.0,1.0,0.0,0.25,1.0,0.25,0.25,0.75,-0.11,0.58,-0.86,120.34,-10.7,8.2
4.86,1.0,0.0,1.0,1.25,0.0,0.0,0.25,0.0,0.0,1.0,0.0,0.75,0.5,0.33,0.89,-1.05,81.29,14.5,3.4,0.25,0.5,2.25,0.5,0.5,1.25,1.0,0.0,0.25,1.0,0.25,0.25,0.75,-0.11,0.64,-0.86,122.86,-9.6,13.7
4.88,0.75,0.0,1.0,1.0,0.0,0.0,0.25,0.0,0.0,0.75,0.0,0.75,0.25,0.2,0.89,-1.05,80.11,16.5,6.1,0.25,0.5,2.0,0.5,0.5,1.25,1.0,0.0,0.25,1.0,0.25,0.25,0.75,-0.17,0.7,-0.98,122.01,-8.7,12.2
4.9,0.25,0.0,1.0,1.25,0.0,0.0,0.25,0.0,0.0,0.75,0.0,0.75,0.5,0.33,0.77,-0.8,78.87,13.1,-6.4,0.0,0.5,2.5,0.5,0.5,1.25,1.0,0.0,0.25,0.0,0.25,0.5,0.75,-0.17,0.83,-0.98,122.36,-13.1,20.4
4.92,0.25,0.0,1.0,1.25,0.0,0.0,0.25,0.0,0.0,0.75,0.0,0.75,0.0,0.45,0.64,-0.73,74.77,16.4,6.2,0.25,0.5,1.75,0.5,0.5,1.25,1.0,0.0,0.5,1.25,0.25,0.5,0.75,-0.17,0.83,-0.92,125.02,-7.2,3.1
4.94,0.75,0.0,1.0,0.5,0.0,0.0,0.25,0.0,0.0,1.0,0.0,0.75,0.25,0.52,0.45,-0.67,71.35,14.6,-4.7,0.25,0.5,2.0,0.5,0.5,1.25,1.0,0.0,0.25,1.0,0.25,0.25,0.75,-0.23,0.83,-0.8,125.3,-8.7,12.2
4.96,0.75,0.0,1.0,1.0,0.0,0.0,0.25,0.0,0.0,0.75,0.0,0.75,0.25,0.45,0.39,-0.73,70.07,16.5,6.1,0.25,0.5,2.5,0.5,0.5,1.25,1.0,0.0,0.25,1.0,0.25,1.0,0.75,-0.23,0.83,-0.8,131.96,-10.3,5.1
4.98,1.0,0.0,1.0,0.5,0.0,0.0,0.25,0.0,0.0,0.75,0.0,0.75,0.25,0.39,0.39,-0.8,69.67,17.5,4.8,0.25,0.5,2.75,0.5,0.5,1.0,1.0,0.0,0.25,1.0,0.25,0.5,0.75,-0.23,0.83,-0.86,134.91,-12.1,12.4
5.0,1.0,0.0,0.75,1.0,0.0,0.0,0.5,0.0,0.0,1.0,0.0,0.75,0.5,0.33,0.39,-0.8,73.67,13.6,-1.5,0.25,0.5,2.5,0.5,0.5,1.25,1.0,0.0,0.25,1.0,0.25,0.5,0.75,-0.23,0.77,-0.86,138.06,-10.4,11.6
5.02,1.0,0.0,1.0,0.75,0.0,0.0,0.25,0.0,0.0,0.75,0.0,0.75,0.25,0.33,0.39,-0.8,73.14,17.4,7.8,0.25,0.5,2.25,0.5,0.5,1.0,1.0,0.0,0.25,0.75,0.25,0.75,0.75,-0.17,0.7,-0.8,135.19,-11.2,8.4
5.04,1.0,0.0,1.0,0.5,0.0,0.0,0.5,0.0,0.0,0.75,0.0,0.75,0.5,0.33,0.39,-0.86,74.6,16.1,-0.8,0.0,0.5,1.75,0.5,0.5,1.25,1.0,0.0,0.25,1.0,0.25,0.25,0.75,-0.17,0.64,-0.8,130.04,-6.9,7.9
5.06,1.0,0.0,1.25,1.25,0.0,0.0,0.5,0.0,0.0,0.75,0.0,0.75,0.5,0.39,0.33,-0.8,80.02,17.3,9.8,0.5,0.5,2.0,0.5,0.5,1.0,1.0,0.0,0.25,1.0,0.25,0.5,0.75,-0.11,0.64,-0.8,127.29,-10.3,10.3
5.08,1.0,0.0,1.0,1.0,0.0,0.0,0.5,0.0,0.0,1.0,0.0,0.75,0.5,0.39,0.33,-0.8,83.58,14.8,1.3,0.25,0.5,2.5,0.5,0.5,1.25,1.0,0.0,0.25,1.0,0.25,0.5,0.75,-0.11,0.64,-0.8,129.32,-10.4,11.6
5.1,1.0,0.0,1.25,0.5,0.0,0.0,0.5,0.0,0.0,0.75,0.0,0.75,0.5,0.45,0.39,-0.8,84.03,17.3,2.3,0.0,0.5,1.75,0.5,0.5,1.0,1.0,0.0,0.25,1.0,0.25,0.75,0.75,-0.05,0.58,-0.8,126.39,-7.9,-0.3
5.12,0.75,0.0,1.25,0.5,0.0,0.0,0.25,0.0,0.0,1.0,0.0,0.75,0.5,0.39,0.45,-0.8,82.7,14.4,-6.8,0.0,0.5,2.25,0.5,0.5,1.25,1.0,0.0,0.25,0.75,0.25,0.25,0.75,-0.05,0.58,-0.8,125.03,-9.7,14.0
5.14,0.25,0.0,1.25,1.0,0.0,0.0,0.5,0.0,0.0,0.75,0.0,0.75,0.5,0.39,0.45,-0.8,79.96,14.7,-5.5,0.0,0.5,1.75,0.5,0.5,1.0,1.0,0.0,0.25,1.0,0.25,0.75,0.75,-0.05,0.64,-0.8,121.64,-7.9,-0.3
5.16,1.0,0.0,1.0,0.5,0.0,0.0,0.25,0.0,0.0,1.0,0.0,0.75,0.5,0.45,0.52,-0.73,77.57,14.1,-5.3,0.0,0.5,1.75,0.5,0.25,0.5,1.0,0.0,0.25,1.0,0.25,0.5,0.75,0.02,0.64,-0.8,113.78,-10.5,-0.9
5.18,0.5,0.0,1.0,1.0,0.0,0.0,0.5,0.0,0.0,0.75,0.0,0.75,0.25,0.45,0.52,-0.73,74.74,16.0,1.9,0.0,0.5,1.0,0.5,0.5,1.0,1.0,0.0,0.25,1.0,0.25,0.75,0.75,0.02,0.64,-0.73,108.1,-4.6,-7.0
