time,left pressure 0[N/cm²],left pressure 1[N/cm²],left pressure 2[N/cm²],left pressure 3[N/cm²],left pressure 4[N/cm²],left pressure 5[N/cm²],left pressure 6[N/cm²],left pressure 7[N/cm²],left pressure 8[N/cm²],left pressure 9[N/cm²],left pressure 10[N/cm²],left pressure 11[N/cm²],left pressure 12[N/cm²],left acceleration X[g],left acceleration Y[g],left acceleration Z[g],left total force[N],left center of pressure X[mm],left center of pressure Y[mm],right pressure 0[N/cm²],right pressure 1[N/cm²],right pressure 2[N/cm²],right pressure 3[N/cm²],right pressure 4[N/cm²],right pressure 5[N/cm²],right pressure 6[N/cm²],right pressure 7[N/cm²],right pressure 8[N/cm²],right pressure 9[N/cm²],right pressure 10[N/cm²],right pressure 11[N/cm²],right pressure 12[N/cm²],right acceleration X[g],right acceleration Y[g],right acceleration Z[g],right total force[N],right center of pressure X[mm],right center of pressure Y[mm]
0.02,5.25,1.25,0.0,7.75,7.5,7.5,2.0,4.25,0.25,2.0,1.25,0.0,1.0,-0.17,0.2,1.02,578.96,1.6,32.1,0.0,0.0,0.5,0.0,0.0,0.5,0.5,1.0,0.0,1.0,0.0,0.25,0.25,-1.86,4.27,2.58,184.83,4.5,-31.0
0.04,0.0,1.25,2.5,8.5,0.0,7.0,2.5,3.5,0.5,2.0,1.5,0.0,1.0,-0.17,0.2,1.02,547.11,2.5,18.2,0.0,0.0,0.0,0.0,0.0,0.5,0.5,1.25,0.0,1.25,0.25,0.75,0.5,-0.92,2.52,0.27,141.48,8.8,-58.7
0.06,0.0,1.5,4.5,9.0,0.0,6.75,2.5,3.25,0.0,1.0,1.25,0.0,1.0,-0.17,0.2,1.02,510.65,6.0,27.8,0.0,0.0,0.0,0.0,0.0,0.25,0.25,1.25,0.0,2.75,1.0,1.75,1.25,0.52,-0.11,1.52,117.28,6.8,-77.9
0.08,0.0,1.25,5.25,9.0,0.0,5.5,2.75,2.5,0.25,0.75,1.25,0.0,0.5,-0.23,0.27,1.2,452.36,9.4,32.5,0.0,0.0,0.25,0.0,0.0,0.5,0.5,1.25,0.0,6.25,2.5,3.0,3.0,-0.23,0.2,1.08,160.47,6.0,-78.5
0.1,7.5,1.25,5.5,8.0,0.0,3.0,2.75,1.75,0.0,0.0,1.25,0.0,0.0,-0.23,0.27,1.45,434.55,19.8,54.9,0.0,0.0,0.0,0.0,0.0,0.5,0.25,1.5,0.25,6.75,4.25,2.75,3.75,0.08,0.45,2.02,214.45,6.0,-80.4
0.12,8.0,1.25,5.75,6.25,0.0,0.0,2.25,1.75,0.0,0.75,0.0,0.0,0.0,-0.42,0.39,1.89,397.39,24.6,60.6,0.0,0.0,0.0,0.0,0.5,0.0,0.25,2.75,0.25,7.0,5.0,3.0,2.25,0.08,0.33,1.58,262.57,4.9,-74.7
0.14,8.25,1.0,4.5,4.25,0.0,0.0,1.75,1.75,0.25,0.25,0.5,0.0,0.0,-0.48,0.58,2.39,362.01,25.1,60.1,0.0,0.0,0.0,0.0,0.5,0.5,0.5,4.0,0.0,7.5,6.25,3.0,3.25,0.02,0.08,0.95,312.24,5.7,-72.3
0.16,7.5,0.75,2.75,2.0,0.0,0.0,1.0,2.0,0.25,0.75,0.25,0.0,0.25,-0.67,0.89,2.39,298.19,22.2,52.7,0.0,0.0,0.0,1.0,1.75,2.75,0.75,4.25,0.75,7.75,6.75,3.5,3.75,0.08,0.14,0.95,381.08,5.2,-55.4
0.18,6.25,0.0,1.75,2.5,0.0,0.0,0.5,1.75,0.0,0.0,0.0,0.0,0.0,-0.42,0.45,2.64,238.65,24.2,63.0,0.0,0.0,0.25,1.25,2.25,3.0,1.5,4.75,1.0,7.75,7.25,3.5,4.0,0.08,0.08,0.95,458.79,4.3,-50.9
0.2,0.0,0.0,0.0,0.0,0.0,0.0,0.0,0.0,0.0,0.0,1.25,0.0,0.0,-0.73,-0.05,2.58,129.25,10.8,-75.4,0.25,0.0,0.5,1.25,2.25,3.0,1.5,5.25,1.0,7.75,7.25,3.5,3.25,0.08,0.08,0.95,522.63,3.7,-47.7
0.22,0.0,0.0,0.0,0.0,0.0,0.0,0.0,0.0,0.0,0.0,0.0,0.0,0.0,-0.67,-1.05,1.77,24.38,0.0,0.0,0.75,0.0,0.5,1.25,2.25,4.0,2.75,5.25,1.0,7.5,7.0,3.75,2.25,0.08,0.08,0.95,565.6,2.8,-40.8
0.24,0.0,0.0,0.0,0.0,0.0,0.0,0.0,0.0,0.0,0.0,0.0,0.0,0.0,-0.42,-1.42,0.64,0.0,0.0,0.0,2.0,1.0,3.0,3.5,5.0,5.25,3.75,5.75,1.5,7.75,7.5,3.5,3.75,0.08,0.08,0.95,670.58,-0.8,-19.4
0.26,0.0,0.0,0.0,0.0,0.0,0.0,0.0,0.0,0.0,0.0,0.0,0.0,0.0,-0.23,-1.05,2.14,0.0,0.0,0.0,2.0,1.25,3.5,4.0,5.0,5.75,4.0,5.75,1.5,7.0,6.75,3.0,3.25,0.08,0.08,0.95,758.43,-1.4,-13.2
0.28,0.0,0.0,0.0,0.0,0.0,0.0,0.0,0.0,0.0,0.0,0.0,0.0,0.0,-0.23,-0.55,0.83,0.0,0.0,0.0,2.0,1.25,3.5,4.0,5.75,6.25,4.75,5.5,1.25,6.25,5.5,2.25,3.0,0.14,0.08,0.95,814.24,-1.3,-6.6
0.3,0.0,0.0,0.0,0.0,0.0,0.0,0.0,0.0,0.0,0.0,0.0,0.0,0.0,-0.48,-0.42,0.45,0.0,0.0,0.0,2.25,1.5,4.0,4.0,6.5,6.25,4.75,5.25,1.0,5.25,4.0,1.75,2.25,0.14,0.08,0.95,816.67,-2.2,3.0
0.32,0.0,0.0,0.0,0.0,0.0,0.0,0.0,0.0,0.0,0.0,0.0,0.0,0.0,-0.42,-0.36,0.58,0.0,0.0,0.0,2.75,1.75,5.5,5.75,8.0,6.75,5.25,5.25,1.0,3.75,3.25,1.0,1.75,0.08,0.08,0.95,828.36,-4.4,16.6
0.34,0.0,0.0,0.0,0.0,0.0,0.0,0.0,0.0,0.0,0.0,0.0,0.0,0.0,-0.23,-0.3,0.89,0.0,0.0,0.0,3.0,1.75,5.5,6.0,8.0,7.0,5.5,4.75,0.75,1.75,2.5,0.25,1.75,0.14,0.14,0.95,810.21,-5.4,25.7
0.36,0.0,0.0,0.0,0.0,0.0,0.0,0.0,0.0,0.0,0.0,0.0,0.0,0.0,-0.23,-0.11,1.08,0.0,0.0,0.0,2.0,1.0,5.0,5.25,7.5,6.5,5.0,4.25,0.0,1.75,1.0,0.5,0.25,0.08,0.08,1.02,742.84,-4.9,31.2
0.38,0.0,0.0,0.0,0.0,0.0,0.0,0.0,0.0,0.0,0.0,0.0,0.0,0.0,-0.3,0.08,1.14,0.0,0.0,0.0,2.0,1.0,5.0,6.0,8.0,6.5,4.75,4.0,0.0,1.25,1.0,0.25,0.25,0.08,0.14,0.95,676.34,-5.3,34.9
0.4,0.0,0.0,0.0,0.5,0.0,0.0,0.0,0.0,0.0,0.5,0.0,0.0,0.0,-0.36,0.2,1.27,0.0,1.1,-7.2,2.25,1.0,5.25,6.0,8.0,6.75,4.5,3.25,0.0,1.25,1.0,0.25,0.25,0.08,0.14,0.95,617.51,-5.9,36.9
0.42,0.0,0.0,0.25,0.0,0.0,0.0,3.75,0.0,0.0,0.0,0.0,0.0,0.0,-0.36,0.27,1.52,3.4,33.1,31.6,2.25,1.0,5.25,6.0,8.0,6.75,4.25,3.0,0.0,1.25,1.0,0.25,0.25,0.08,0.14,0.95,581.88,-6.0,37.4
0.44,0.0,0.0,0.0,0.0,0.0,0.0,0.0,0.0,0.0,0.0,0.0,0.0,0.0,-0.36,0.39,1.83,15.02,0.0,0.0,3.0,1.0,5.75,7.0,8.25,6.75,4.75,2.75,0.25,1.25,0.75,0.25,0.25,0.08,0.2,0.89,578.74,-7.4,40.0
0.46,0.0,0.0,0.0,0.0,0.0,0.0,0.0,0.0,0.0,0.0,0.0,0.0,0.0,-0.42,0.58,2.39,12.98,0.0,0.0,4.25,2.0,7.0,8.0,9.5,6.5,5.75,2.75,0.0,1.25,0.5,0.25,0.25,0.08,0.2,0.95,623.52,-9.3,45.1
0.48,2.75,0.25,1.25,0.5,0.0,0.0,0.25,0.0,0.0,0.5,1.25,0.0,0.25,-0.48,0.95,2.95,45.98,23.3,34.4,3.75,1.25,7.25,8.0,9.25,7.0,5.5,2.75,0.25,2.5,0.75,0.75,0.5,0.02,0.2,0.89,668.68,-8.1,37.0
0.5,2.75,0.0,0.25,0.5,0.0,0.0,0.0,0.0,0.0,1.0,1.25,0.0,0.25,-0.36,1.83,2.33,71.64,17.6,17.5,5.0,1.25,7.25,9.5,9.25,7.0,5.5,1.5,0.25,1.25,0.75,0.25,0.25,0.02,0.2,0.95,721.22,-10.5,46.5
0.52,2.25,0.0,0.25,0.75,0.0,0.0,0.0,0.0,0.0,0.75,1.25,0.0,0.25,0.08,2.83,2.08,92.99,17.6,16.8,5.0,1.75,8.0,10.5,9.75,6.25,6.0,1.25,0.0,1.0,0.25,0.25,0.25,0.02,0.27,0.95,766.39,-11.8,50.4
0.54,0.0,0.0,0.0,0.5,0.0,0.0,0.0,0.0,0.0,0.75,1.25,0.0,0.25,0.52,3.52,0.95,87.59,2.4,-53.2,5.75,1.25,8.75,11.0,9.75,7.0,6.25,1.25,0.25,1.25,0.0,0.25,0.25,0.02,0.27,1.02,813.68,-12.0,50.1
0.56,2.25,0.0,1.25,0.75,0.0,0.0,0.0,0.0,0.0,1.25,1.25,0.0,0.25,0.7,4.02,0.14,99.57,18.3,16.7,6.5,1.75,8.75,11.5,9.75,6.25,6.5,1.25,0.0,0.75,0.25,0.25,0.25,0.02,0.27,1.02,853.58,-13.1,52.5
0.58,1.0,0.0,1.25,0.5,0.0,0.0,0.0,0.0,0.0,1.0,0.75,0.0,0.0,0.89,4.45,-0.17,92.22,18.5,15.6,7.0,2.0,9.25,11.5,10.5,5.25,7.0,0.0,0.25,1.0,0.0,0.25,0.5,0.02,0.33,1.08,899.23,-14.5,54.4
0.6,0.0,0.0,1.25,0.0,0.0,0.0,0.0,0.0,0.0,0.75,1.5,0.0,0.0,0.77,-0.98,0.08,85.79,15.2,-25.1,7.5,2.0,9.25,11.5,9.25,4.0,7.0,0.0,0.25,0.75,0.0,0.25,0.25,0.02,0.39,1.14,910.98,-16.4,56.8
0.62,0.0,0.0,0.25,0.25,0.0,0.0,0.0,0.0,0.0,1.75,1.25,2.0,0.0,0.83,-0.11,1.52,88.2,3.2,-75.1,8.5,2.75,9.0,11.0,8.5,3.25,7.0,1.25,0.25,1.5,1.25,1.0,1.25,0.08,0.45,1.39,927.82,-15.3,46.0
0.64,1.25,0.0,0.25,0.75,0.0,0.0,0.0,0.0,0.0,3.5,2.75,0.0,3.75,0.08,0.52,2.33,125.8,-1.2,-58.3,8.75,2.5,9.0,8.0,8.0,0.75,7.25,0.0,0.0,1.0,0.0,0.25,0.25,0.27,0.64,1.83,856.91,-19.9,59.7
0.66,1.25,0.0,0.75,0.25,0.0,0.0,0.0,0.0,0.25,5.0,4.5,0.0,4.0,-0.61,0.33,1.27,177.71,-0.6,-62.3,8.5,2.0,7.5,5.0,6.25,0.5,6.5,1.25,0.25,2.0,1.0,0.75,1.25,0.33,0.95,2.33,764.36,-17.5,43.1
0.68,0.0,0.0,0.25,1.25,0.0,0.0,0.0,2.5,0.0,0.0,6.25,1.75,4.25,-0.3,0.33,1.83,224.07,0.6,-69.8,6.5,0.5,5.0,4.0,5.75,0.5,5.75,0.0,0.25,2.75,1.25,0.75,0.5,0.52,1.02,2.2,609.09,-16.5,38.4
0.7,0.0,0.0,0.0,0.5,0.0,0.0,0.0,3.0,0.25,6.0,5.75,2.5,3.75,-0.11,0.14,1.14,275.18,-4.7,-76.8,5.5,1.0,3.25,3.5,5.0,1.25,3.75,1.0,0.25,2.0,1.0,0.75,1.0,0.33,0.83,2.52,475.9,-12.6,34.1
0.72,0.0,0.0,0.25,2.5,0.0,0.0,0.5,4.5,1.75,6.75,7.0,3.0,0.0,-0.17,0.14,0.95,320.74,0.0,-54.7,2.25,0.5,3.25,1.75,4.25,1.25,2.0,1.25,0.0,2.25,1.0,1.0,1.0,0.77,-0.17,2.33,349.99,-8.2,17.9
0.74,0.0,0.0,0.0,0.0,0.0,0.0,0.75,3.5,1.25,7.0,7.0,2.25,4.0,-0.17,0.08,0.95,368.51,-4.1,-75.8,2.0,1.0,1.5,1.75,3.75,1.75,1.0,1.25,0.0,1.75,1.0,0.75,1.0,0.89,-0.17,0.52,271.0,-4.6,18.2
0.76,0.0,0.0,2.0,2.5,0.0,0.0,1.0,3.75,1.0,6.5,6.75,2.0,3.25,-0.11,0.08,0.95,405.24,1.0,-51.7,2.0,0.75,4.0,1.25,4.75,0.5,1.25,0.25,0.0,0.75,1.0,0.25,1.25,1.08,-1.23,1.52,217.64,-12.3,33.3
0.78,0.0,0.5,1.25,2.5,0.0,0.5,1.25,4.75,1.5,5.25,6.5,1.75,3.75,-0.11,0.08,0.95,433.88,-0.1,-49.0,0.75,0.0,2.25,0.5,4.5,0.5,1.5,1.0,0.0,1.0,1.25,0.0,0.25,0.52,-0.92,1.64,163.3,-7.0,23.9
0.8,0.0,1.0,0.0,2.75,0.0,0.75,1.25,4.75,1.0,5.5,5.75,1.75,3.0,-0.11,0.08,0.95,431.63,-2.0,-47.6,2.0,0.25,1.75,1.5,3.75,1.75,1.0,1.25,0.0,2.5,1.0,0.75,1.25,0.33,-0.3,0.58,152.95,-3.5,9.4
0.82,0.0,0.75,0.0,3.25,0.0,1.25,1.5,4.5,1.5,5.0,5.25,0.75,2.5,-0.11,0.08,0.95,413.28,-1.7,-40.2,2.0,0.5,1.5,1.25,4.5,2.0,1.0,1.25,0.25,2.25,1.25,0.75,1.25,0.39,-0.23,0.33,161.33,-2.8,10.9
0.84,0.0,0.0,0.0,2.5,0.0,0.5,1.25,3.5,0.0,2.75,3.0,0.0,1.0,-0.11,0.08,0.95,337.22,-2.2,-35.4,1.25,0.25,1.75,1.5,3.0,2.0,1.0,1.25,0.25,1.5,1.0,0.25,0.5,0.33,-0.23,0.58,165.84,-4.2,17.9
0.86,0.0,0.0,0.0,2.5,0.0,0.75,1.25,3.5,0.0,2.0,2.5,0.0,0.5,-0.11,0.08,0.95,266.86,-1.8,-27.0,1.75,0.25,0.5,1.5,2.5,0.75,1.0,1.25,0.25,1.25,1.0,0.5,0.75,0.08,-0.23,0.95,156.25,-4.8,10.3
0.88,0.0,0.0,0.0,2.5,0.0,1.25,1.25,3.25,0.75,2.0,2.0,0.0,0.25,-0.11,0.08,0.95,206.17,-1.7,-21.6,0.75,0.25,0.75,1.25,2.25,0.75,0.5,1.0,0.25,1.25,0.25,0.25,0.5,-0.05,-0.11,1.02,141.73,-2.6,14.0
0.9,0.0,0.0,0.0,2.5,0.0,1.25,1.25,2.75,0.5,1.5,1.5,0.0,1.25,-0.11,0.08,0.95,165.62,-2.3,-23.7,0.75,0.0,0.5,0.75,1.0,0.5,0.75,1.0,0.0,0.75,0.25,0.0,0.5,-0.05,0.02,1.02,108.25,-3.3,9.7
0.92,0.0,0.75,0.5,4.5,0.0,1.75,1.25,2.75,0.75,0.75,1.25,0.0,0.0,-0.11,0.14,0.95,153.68,4.1,12.4,0.25,0.0,0.25,0.25,0.0,0.5,0.0,0.0,0.0,0.5,0.0,0.25,0.25,-0.11,0.08,1.14,61.3,-1.1,-10.5
0.94,3.0,1.0,1.25,4.5,0.0,2.5,1.25,2.0,0.25,1.25,1.75,0.0,0.0,-0.17,0.14,0.95,175.08,9.7,28.6,0.25,0.0,0.25,0.0,1.0,0.5,0.25,0.0,0.0,0.5,0.0,0.0,0.25,-0.17,0.08,1.45,29.47,1.3,17.9
0.96,2.5,1.0,1.5,6.25,0.0,2.5,2.0,3.25,0.75,1.0,1.0,0.0,0.25,-0.11,0.14,0.95,213.88,9.0,27.5,0.0,0.0,0.0,0.0,0.5,0.5,0.5,0.0,0.0,0.0,0.0,0.0,0.25,-0.11,0.2,1.77,2.39,5.4,16.3
0.98,5.25,1.0,4.25,6.25,3.25,4.0,2.0,3.5,0.75,2.0,1.5,0.0,1.0,-0.11,0.14,0.95,297.37,9.3,30.7,0.0,0.0,0.25,0.0,1.5,0.5,0.0,0.0,0.0,0.25,0.0,0.25,0.25,-0.11,0.33,2.08,0.0,3.7,15.5
1.0,5.25,1.0,3.0,7.25,5.0,4.75,2.0,3.25,0.75,2.0,1.25,0.0,1.0,-0.11,0.14,0.95,393.39,7.3,32.9,0.0,0.0,0.0,0.0,0.25,0.5,0.0,0.0,0.0,0.5,0.0,0.25,0.25,0.08,0.52,2.7,0.0,11.8,-34.9
1.02,5.5,1.0,3.75,8.0,6.0,5.0,2.5,3.5,0.5,2.0,1.5,0.0,1.0,-0.11,0.14,0.95,516.34,7.7,34.2,0.0,0.0,0.0,0.0,0.25,0.5,0.0,0.0,0.0,0.25,0.25,0.0,0.25,0.14,1.02,3.33,0.0,10.9,-22.4
1.04,5.75,1.25,5.0,8.75,5.75,5.0,2.75,3.25,0.5,2.0,1.5,0.0,1.0,-0.17,0.14,1.02,618.26,9.3,36.5,0.0,0.0,0.0,0.0,1.0,0.5,0.0,0.0,0.0,0.5,0.0,0.25,0.25,-0.05,2.45,2.89,0.0,9.0,-5.8
1.06,6.25,1.25,5.5,9.0,0.0,5.25,3.5,2.75,0.5,2.0,1.25,0.0,1.0,-0.17,0.2,1.02,655.45,12.8,36.4,0.0,0.0,0.5,0.0,1.0,0.5,0.25,0.0,0.0,1.0,0.0,0.0,0.25,-0.36,2.77,1.27,0.92,2.9,2.5
1.08,0.0,1.25,6.0,10.5,0.0,5.25,3.5,2.0,0.25,2.0,0.5,0.0,1.0,-0.17,0.2,1.02,622.75,10.1,31.3,1.25,0.75,1.0,1.25,1.75,1.0,0.5,1.25,0.25,1.25,1.0,0.75,1.25,-1.42,3.45,0.33,73.06,-4.0,2.0
1.1,0.0,1.5,0.0,10.5,0.0,4.75,4.25,1.75,0.25,1.5,1.25,0.0,1.0,-0.17,0.2,1.02,527.2,4.8,24.3,1.0,0.0,0.5,1.25,1.5,0.75,0.25,0.25,0.0,2.0,0.25,0.75,0.5,-2.11,3.83,0.02,112.42,-2.5,0.1
1.12,0.0,1.5,7.25,11.0,0.0,3.5,4.25,1.75,0.0,1.0,0.0,0.0,0.5,-0.17,0.2,1.02,475.41,15.1,42.6,0.0,0.0,0.5,0.0,0.25,0.25,0.0,0.0,0.0,1.0,0.0,0.25,0.25,-2.42,3.77,-0.86,112.5,1.4,-29.9
1.14,7.25,1.5,8.25,11.0,0.0,0.0,4.75,1.75,0.0,0.0,0.0,0.0,0.0,-0.23,0.27,1.2,464.17,25.4,61.6,0.0,0.0,0.25,0.0,0.0,0.5,0.0,0.0,0.0,0.75,0.25,0.75,0.5,-0.11,0.39,1.95,94.78,3.5,-60.9
1.16,8.0,1.25,8.0,10.5,0.0,0.0,5.0,0.0,0.0,0.5,0.0,0.0,0.25,-0.23,0.27,1.2,467.63,27.2,64.1,0.0,0.0,0.0,0.0,0.0,0.5,0.5,0.0,0.0,3.5,1.25,2.25,2.25,0.77,0.2,0.89,114.55,5.6,-83.5
1.18,7.75,1.25,8.25,9.25,0.0,0.0,5.0,0.0,0.25,0.75,1.25,0.0,0.0,-0.36,0.33,1.52,468.71,26.9,58.2,0.0,0.0,0.0,0.0,0.0,0.5,0.0,1.25,0.0,6.75,2.75,3.5,3.25,-0.61,0.2,2.45,176.59,6.9,-83.1
1.2,8.25,1.25,7.5,7.75,0.0,0.0,5.0,1.25,0.0,0.5,0.5,0.0,0.0,-0.55,0.45,2.08,450.01,26.3,59.9,0.0,0.0,0.25,0.0,1.25,0.5,0.0,2.25,0.25,7.25,5.25,3.0,2.25,0.52,0.27,1.89,251.77,4.6,-67.2
1.22,8.25,0.75,6.75,4.5,0.0,0.0,3.75,0.0,0.25,0.5,0.25,0.0,0.25,-0.55,0.83,2.45,389.55,29.2,63.9,0.0,0.0,0.25,0.0,1.0,0.5,0.25,4.0,0.0,7.75,6.25,3.25,3.5,0.08,0.33,1.45,327.99,5.4,-69.4
1.24,7.5,0.0,5.0,3.25,0.0,0.0,2.75,0.0,0.0,0.75,0.5,0.0,0.0,-0.86,0.95,2.64,324.3,29.6,62.9,1.25,0.0,0.0,1.25,1.5,3.0,0.0,5.25,0.75,8.0,7.5,3.0,4.75,0.02,0.08,0.95,430.34,4.8,-51.7
1.26,0.0,0.0,0.0,0.0,0.0,0.0,1.5,0.0,0.0,0.0,0.75,0.0,0.0,-0.61,0.33,2.95,204.91,21.5,-24.3,1.5,0.75,0.75,2.5,2.75,5.25,1.25,5.5,1.0,8.75,6.75,3.75,4.0,0.08,0.08,0.95,549.39,3.2,-34.1
1.28,0.0,0.0,0.0,1.5,0.0,0.0,0.0,0.0,2.25,0.0,0.0,0.0,0.0,-0.8,-0.86,1.89,103.99,14.2,1.4,1.5,1.0,1.75,2.75,5.25,5.5,2.25,6.25,1.0,8.75,7.75,3.75,4.25,0.08,0.08,0.95,679.63,1.9,-26.4
1.3,2.0,0.0,0.25,0.5,0.0,0.0,0.0,0.0,0.0,0.5,0.0,0.0,0.0,-0.86,-0.55,1.02,18.91,24.2,60.6,2.0,1.0,1.75,4.0,4.75,6.25,2.5,7.0,1.25,7.75,7.0,3.0,4.0,0.14,0.08,0.95,782.48,1.4,-20.0
1.32,1.75,0.0,1.25,0.0,0.0,0.0,0.0,0.0,0.5,0.0,0.75,0.0,0.0,-0.67,-1.98,2.02,0.0,29.0,39.7,2.0,1.5,2.5,4.0,6.5,6.75,4.5,6.5,1.0,6.75,6.25,2.5,3.25,0.14,0.08,0.95,860.72,0.1,-9.2
1.34,2.25,0.0,0.25,0.5,0.0,0.0,0.0,0.0,0.0,0.5,0.0,0.0,0.0,-0.17,-0.92,1.52,0.0,24.9,63.2,2.0,1.5,3.25,5.0,7.0,7.25,5.25,6.25,1.0,5.5,4.5,1.75,2.25,0.14,0.14,0.95,902.87,-1.0,2.1
1.36,1.75,0.0,0.0,0.5,0.0,0.0,0.25,0.0,0.0,0.5,0.0,0.0,0.0,-0.36,-0.48,0.64,0.0,22.3,56.0,2.0,1.75,5.0,6.0,8.0,7.75,5.25,6.25,1.0,4.25,3.5,1.25,1.25,0.14,0.08,0.95,929.64,-2.8,13.9
1.38,0.0,0.0,0.25,0.5,0.0,0.0,0.25,0.0,0.0,0.0,0.0,0.0,0.0,-0.55,-0.3,0.33,0.0,25.2,54.7,2.25,1.25,5.5,4.5,8.25,7.75,5.25,5.5,0.75,3.5,2.5,1.0,1.25,0.14,0.14,0.95,897.39,-3.1,17.6
1.4,1.5,0.0,0.0,0.5,0.0,0.0,0.0,0.0,0.0,0.5,0.0,0.0,0.0,-0.36,-0.3,0.7,0.0,20.6,53.4,2.25,1.0,5.75,6.0,8.25,7.75,4.75,5.25,0.25,2.0,1.25,0.25,1.25,0.14,0.08,1.02,841.47,-3.9,27.5
1.42,0.0,0.0,0.5,0.5,0.0,0.0,3.5,0.0,0.0,0.0,0.0,0.0,0.0,-0.17,-0.23,1.14,0.0,30.5,39.6,1.25,1.0,4.0,6.0,8.0,7.75,3.5,4.25,0.0,1.5,1.0,0.25,0.25,0.08,0.14,1.02,739.43,-2.3,31.9
1.44,2.0,0.0,0.25,0.25,0.0,0.0,0.0,0.0,0.0,0.5,0.0,0.0,0.0,-0.23,0.02,1.14,0.0,24.8,60.9,1.75,0.25,4.0,6.0,8.0,7.5,3.5,4.0,0.0,1.25,1.0,0.25,0.25,0.08,0.14,0.95,651.37,-2.9,32.5
1.46,2.75,0.0,1.25,1.75,0.0,0.0,0.25,0.0,0.0,0.5,1.25,0.0,0.25,-0.3,0.14,1.27,39.62,22.6,36.2,2.5,0.0,5.25,6.0,8.0,7.25,3.0,3.25,0.0,2.75,0.5,1.0,0.25,0.08,0.2,0.95,591.76,-4.2,30.0
1.48,0.0,0.0,0.25,0.5,0.0,0.0,0.25,0.0,0.0,0.5,0.5,0.0,0.0,-0.36,0.27,1.64,52.31,10.6,-13.2,2.0,1.0,5.75,5.25,9.25,7.0,3.5,2.75,0.0,1.25,1.5,0.25,1.25,0.08,0.2,0.89,566.71,-5.0,32.9
1.5,0.0,0.0,0.25,0.0,0.0,0.0,0.0,0.0,0.0,0.0,0.0,0.0,0.0,-0.36,0.39,1.83,51.53,38.2,60.9,3.75,1.75,6.75,8.0,9.25,7.25,3.75,3.0,0.0,2.75,0.75,0.75,1.25,0.02,0.2,0.89,615.44,-6.7,34.7
1.52,0.0,0.0,0.0,1.5,0.0,0.0,0.0,0.0,0.0,0.5,1.25,0.0,0.0,-0.36,0.52,2.14,39.9,9.8,-11.6,3.75,1.75,6.25,8.75,9.25,7.0,4.0,2.75,0.0,2.5,1.25,1.0,1.25,0.02,0.2,0.89,671.79,-7.0,33.9
1.54,0.0,0.0,1.25,1.5,0.0,0.0,0.0,0.0,0.0,0.5,1.25,0.0,0.0,-0.36,0.64,2.7,47.11,17.8,8.8,3.75,2.0,7.0,9.75,9.25,7.0,4.75,2.5,0.25,2.5,1.25,0.75,1.25,0.02,0.27,0.89,744.26,-8.0,35.8
1.56,0.0,0.0,1.25,1.0,0.0,0.0,0.0,0.0,0.0,0.5,1.25,0.0,0.25,-0.36,0.95,3.08,55.34,16.0,-4.2,4.75,2.0,7.5,9.75,10.5,6.25,5.5,2.0,0.25,2.0,1.25,0.75,1.25,0.02,0.27,0.89,802.24,-9.5,39.3
1.58,2.25,0.0,1.25,1.0,0.0,0.0,0.0,0.0,0.0,0.5,1.25,0.0,0.25,-0.42,1.83,2.83,79.33,22.2,29.2,5.0,2.0,8.5,11.0,9.25,7.25,5.75,1.75,0.25,1.0,1.25,0.25,0.75,0.02,0.27,0.95,852.52,-11.0,45.4
1.6,0.0,0.0,0.25,1.25,0.0,0.0,0.25,0.0,0.0,0.5,1.25,0.0,0.25,0.08,2.33,1.89,80.46,10.3,-17.1,5.75,2.25,8.25,11.0,9.75,6.75,6.0,0.5,0.25,1.5,1.25,0.25,1.25,0.02,0.27,0.95,888.41,-11.6,45.8
1.62,2.25,0.0,1.25,1.25,0.0,0.0,0.0,0.0,0.0,0.5,0.5,0.0,0.25,0.58,2.83,0.77,90.23,23.4,43.3,5.75,1.25,8.75,11.5,10.5,7.0,6.0,1.25,0.25,1.5,0.75,0.25,0.5,0.02,0.33,0.95,923.84,-11.5,47.2
1.64,0.0,0.0,1.25,1.25,0.0,0.0,0.25,0.0,0.0,0.5,0.5,0.0,0.0,1.08,3.39,0.45,79.48,19.7,22.5,6.25,2.0,9.0,11.5,11.5,6.25,6.25,0.25,0.0,0.75,0.75,0.25,0.25,0.02,0.33,1.08,949.39,-13.0,53.2
1.66,0.0,0.0,1.25,1.25,0.0,0.0,0.25,0.0,0.0,0.5,1.0,0.0,0.25,1.52,3.89,-0.17,78.66,16.8,4.1,7.0,2.0,9.5,11.5,10.0,5.25,7.0,0.0,0.0,0.75,0.0,0.25,0.25,0.08,0.33,1.08,948.18,-15.1,56.3
1.68,0.5,0.0,1.25,0.0,0.0,0.0,0.0,0.0,0.0,0.0,0.25,0.0,0.0,0.95,2.95,0.2,60.58,34.1,53.0,7.5,2.0,10.0,11.5,10.5,3.25,7.5,0.0,0.0,1.0,0.0,0.25,0.25,0.08,0.39,1.14,934.29,-16.6,56.7
1.7,2.0,0.0,1.0,1.0,0.0,0.0,0.0,0.0,0.0,2.25,1.5,0.0,0.0,-0.42,1.27,2.89,78.21,13.4,3.4,8.0,2.0,10.5,11.5,8.75,3.25,7.5,0.0,0.25,1.75,0.25,0.5,0.0,0.08,0.45,1.27,913.02,-17.4,54.3
1.72,0.0,0.0,1.25,0.75,0.0,0.0,0.0,0.0,0.0,3.0,2.0,4.0,0.0,-0.3,0.39,1.39,117.03,6.5,-62.4,8.5,2.0,9.25,8.0,7.0,1.0,7.5,0.0,0.0,0.5,0.0,0.25,0.25,0.2,0.64,1.77,819.29,-20.9,60.6
1.74,0.0,0.0,0.5,0.25,0.0,0.0,0.0,0.0,0.0,4.5,4.0,4.0,0.0,0.02,0.52,2.45,164.19,2.3,-77.9,8.5,1.75,8.0,6.0,6.0,0.5,6.75,0.0,0.0,0.75,0.0,0.25,0.25,0.2,0.95,2.2,695.82,-21.6,60.4
1.76,0.0,0.0,0.0,0.25,0.0,0.0,0.0,0.0,0.25,6.25,5.75,3.75,5.0,-0.61,0.33,1.7,235.6,-3.2,-87.8,7.75,1.0,5.75,4.0,5.0,0.5,5.75,0.0,0.0,0.75,0.0,0.25,0.25,0.45,1.2,2.39,546.45,-21.3,59.4
1.78,0.0,0.0,1.0,0.5,0.0,0.0,0.0,0.0,0.75,0.0,7.0,3.0,5.0,-0.36,0.33,1.83,269.27,5.0,-77.9,5.0,0.0,3.5,2.25,4.25,0.25,3.5,0.0,0.0,0.25,0.0,0.75,0.25,0.27,0.89,2.83,381.78,-19.9,53.5
1.8,0.0,0.0,0.0,1.25,0.0,0.0,0.0,2.75,1.0,8.0,7.5,4.0,5.0,-0.17,0.14,1.2,346.19,-3.1,-75.5,2.0,0.0,0.5,1.25,2.5,0.5,1.5,0.0,0.0,0.75,0.0,0.25,1.0,0.77,-0.11,2.52,244.21,-8.8,28.9
1.82,0.0,0.0,0.0,0.5,0.0,0.0,0.25,4.5,1.25,7.0,7.5,3.0,3.5,-0.17,0.08,0.95,391.68,-3.7,-73.0,2.0,0.0,1.75,0.5,3.75,0.5,1.5,0.0,0.0,0.75,0.0,0.25,0.25,0.27,-0.42,0.64,146.74,-11.6,43.6
1.84,0.0,0.25,0.0,1.5,0.0,0.0,0.5,4.25,1.75,7.75,8.0,3.0,5.0,-0.11,0.08,0.95,466.83,-2.9,-68.5,1.0,0.0,0.75,0.5,1.75,0.5,0.5,0.0,0.0,0.5,0.0,0.25,0.25,0.95,-0.86,1.33,48.32,-8.7,34.5
1.86,0.0,0.0,0.25,2.0,0.0,0.0,0.75,4.5,1.75,7.0,7.5,2.0,4.75,-0.11,0.08,0.95,490.46,-2.5,-64.0,1.0,0.0,0.5,1.0,0.0,0.5,0.5,0.0,0.0,0.25,0.0,0.0,0.25,0.33,-0.73,1.52,0.0,-16.1,42.7
1.88,0.0,0.0,1.25,2.5,0.0,0.0,1.0,3.75,1.75,6.25,0.0,1.5,3.75,-0.11,0.08,0.95,452.69,-3.2,-47.9,0.75,0.0,0.5,0.75,1.5,0.5,0.5,0.0,0.0,1.0,0.0,0.25,0.25,0.33,-0.3,0.52,0.0,-5.3,21.8
1.9,0.0,0.5,0.0,2.5,0.0,0.5,1.0,3.5,1.0,5.25,2.5,0.75,2.5,-0.11,0.08,0.95,384.82,-3.8,-45.2,1.0,0.0,0.5,1.25,1.75,0.5,0.5,0.0,0.0,0.5,0.25,0.25,0.0,0.52,-0.3,0.14,0.0,-9.5,37.9
1.92,0.0,0.75,2.0,2.5,0.0,1.5,0.75,3.5,1.5,4.25,4.25,0.75,2.5,-0.17,0.14,0.95,345.55,0.8,-32.5,0.75,0.0,0.5,0.5,1.5,0.5,0.25,0.0,0.0,0.0,0.0,0.25,0.25,0.52,-0.3,0.45,0.0,-8.5,40.8
1.94,0.0,1.0,0.0,2.5,0.0,1.5,0.75,3.5,1.5,3.75,4.5,0.75,1.75,-0.11,0.08,0.95,308.44,-1.5,-36.7,0.75,0.0,0.5,0.5,1.0,0.5,0.5,0.0,0.0,0.0,0.0,0.0,0.25,0.14,-0.23,0.89,0.0,-11.0,48.2
1.96,0.0,0.5,0.0,2.5,0.0,2.5,0.75,3.25,1.0,3.0,3.0,0.0,1.25,-0.11,0.08,0.95,274.69,-3.8,-26.5,0.5,0.0,1.0,0.5,1.25,0.5,0.5,0.0,0.0,0.25,0.0,0.0,0.25,0.02,-0.05,1.08,0.0,-10.5,40.9
1.98,0.0,1.0,0.0,2.5,0.0,2.75,0.75,3.5,0.75,2.25,3.0,0.0,1.0,-0.17,0.14,0.95,247.35,-3.3,-18.4,0.75,0.0,0.5,0.0,1.25,0.5,0.5,0.0,0.0,0.75,0.0,0.0,0.5,-0.05,0.27,1.08,7.85,-3.7,18.7
2.0,2.25,1.0,0.0,2.5,0.0,3.25,0.5,3.5,0.75,2.0,2.5,0.0,1.0,-0.11,0.14,0.95,230.73,0.0,-2.1,0.5,0.0,0.5,0.0,1.25,0.5,0.5,0.0,0.0,0.75,0.0,0.0,0.25,-0.05,0.45,1.02,28.25,-3.1,22.2
2.02,3.0,1.25,0.25,2.75,0.0,4.0,0.5,3.5,0.5,2.0,2.25,0.0,1.0,-0.11,0.14,0.95,233.49,0.9,6.6,0.5,0.0,0.25,0.0,1.25,0.5,0.5,0.0,0.0,0.25,0.0,0.25,0.25,-0.17,0.64,1.27,43.76,-3.6,23.9
2.04,3.75,1.25,1.0,3.25,1.25,4.0,0.5,3.5,0.75,2.0,2.25,0.0,1.0,-0.11,0.14,0.95,254.13,3.3,14.5,0.5,0.0,0.5,0.0,0.0,0.5,0.5,0.0,0.0,0.75,0.0,0.25,0.25,-0.23,0.7,1.58,46.76,-6.7,-4.2
2.06,3.5,1.25,2.0,4.0,0.0,4.5,0.5,3.5,0.75,2.0,2.25,0.0,1.0,-0.17,0.14,0.95,284.19,4.8,15.1,0.5,0.0,0.25,0.0,0.5,0.5,0.5,0.0,0.0,0.5,0.0,0.0,0.25,-0.23,0.77,1.89,41.28,-3.5,17.6
2.08,3.0,1.5,1.0,4.5,1.5,4.75,0.75,3.5,0.75,2.0,2.25,0.0,1.0,-0.11,0.14,0.95,313.77,2.6,16.3,0.25,0.0,1.0,0.0,1.25,0.5,0.25,0.0,0.0,0.75,0.0,0.25,0.25,-0.17,0.83,1.89,50.87,-5.0,15.4
2.1,4.25,1.75,2.0,4.5,3.0,5.0,1.0,3.5,0.75,2.0,2.0,0.0,1.0,-0.11,0.08,0.95,363.09,4.7,24.6,0.25,0.0,0.25,0.0,0.0,0.5,0.5,0.0,0.0,0.75,0.0,0.0,0.25,0.02,1.2,1.83,44.71,0.1,-10.7
2.12,4.0,2.25,2.25,4.5,3.75,5.0,1.25,3.5,0.75,2.0,2.0,0.0,1.0,-0.11,0.14,0.95,414.23,4.7,26.4,0.0,0.0,0.5,0.0,0.5,0.5,0.25,0.0,0.0,0.5,0.0,0.0,0.25,0.08,1.33,1.7,39.71,0.2,6.4
2.14,4.5,2.25,2.75,4.5,4.25,5.0,1.25,3.5,0.75,2.0,2.0,0.0,1.0,-0.11,0.14,0.95,463.32,5.5,28.4,0.0,0.0,0.25,0.0,0.25,0.5,0.25,0.0,0.0,0.5,0.0,0.0,0.25,0.33,1.33,1.58,31.37,4.9,-8.1
2.16,5.25,2.5,0.0,4.75,4.5,5.25,1.25,3.5,0.75,2.0,1.5,0.0,1.0,-0.11,0.14,0.95,486.27,3.0,29.7,0.0,0.0,0.25,0.0,0.0,0.5,0.25,0.0,0.0,0.5,0.0,0.0,0.0,0.27,1.27,1.45,25.21,3.6,-2.0
2.18,4.25,1.25,0.0,6.25,4.25,5.25,1.25,3.5,0.75,2.0,1.5,0.0,1.0,-0.11,0.14,0.95,494.01,2.5,25.9,0.0,0.0,0.5,0.0,0.25,0.5,0.25,0.0,0.0,0.75,0.0,0.0,0.0,-0.05,1.33,1.02,22.46,0.0,4.4
2.2,5.25,2.5,3.5,7.0,4.25,5.25,1.75,2.75,0.75,2.0,1.5,0.0,1.0,-0.17,0.14,0.95,527.54,8.0,35.7,0.0,0.0,0.25,0.0,0.0,0.5,0.25,0.0,0.0,0.25,0.0,0.25,0.25,-0.36,1.45,0.77,19.84,1.4,-24.5
2.22,4.75,2.5,0.0,8.0,0.25,5.0,2.0,2.5,0.5,2.0,1.5,0.0,0.75,-0.17,0.14,1.02,498.21,6.7,32.0,0.5,0.25,0.0,0.5,0.25,0.5,0.5,0.0,0.0,1.25,0.0,0.25,0.25,-0.42,1.52,0.58,33.52,-0.9,-2.5
2.24,0.0,2.75,0.0,8.0,0.0,4.75,2.25,1.75,0.25,1.75,0.25,0.0,0.75,-0.17,0.14,1.02,428.5,2.3,29.5,0.75,0.25,0.5,0.5,0.5,0.5,0.5,0.0,0.0,1.25,0.25,0.25,0.5,-0.36,1.45,0.2,53.72,-5.3,2.3
2.26,0.0,3.75,7.0,9.0,0.0,4.5,2.0,1.75,0.5,1.5,0.5,0.0,0.75,-0.17,0.2,1.02,409.67,11.9,39.6,0.75,0.25,0.5,0.25,1.0,0.5,0.5,0.0,0.0,1.0,0.75,0.25,0.5,-0.3,1.33,0.27,76.14,-5.3,1.8
2.28,0.0,3.75,0.0,9.0,0.0,3.25,2.5,1.75,0.0,1.5,1.25,0.0,0.5,-0.17,0.2,1.02,362.74,5.8,32.7,1.75,0.25,0.5,1.25,1.0,1.25,0.5,0.25,0.25,1.5,0.75,0.75,1.25,0.58,1.39,0.39,116.12,-4.6,-0.8
2.3,0.0,3.75,0.0,9.0,0.0,0.0,2.75,1.75,0.25,0.5,0.25,0.0,0.0,-0.17,0.27,0.95,312.54,12.7,47.9,1.25,1.0,0.75,1.25,2.25,1.0,0.5,0.0,0.25,1.75,0.75,0.75,1.0,1.45,-0.67,0.02,154.83,-4.7,10.0
2.32,8.0,3.75,0.0,9.0,0.0,0.0,3.5,1.75,0.0,0.0,0.0,0.0,0.0,-0.23,0.27,1.14,300.46,20.5,67.7,1.0,0.0,0.5,0.0,3.0,1.25,0.5,0.25,0.25,1.5,1.0,0.25,1.25,2.27,4.95,-0.61,175.7,0.7,-1.7
2.34,8.0,2.5,8.75,9.0,0.0,0.0,3.0,1.75,0.0,0.0,0.0,0.0,0.0,-0.23,0.33,1.14,340.28,25.8,64.8,0.0,0.0,0.25,0.0,0.25,0.5,0.0,0.0,0.0,1.25,0.5,0.75,0.25,-0.55,1.33,1.7,154.42,3.5,-51.6
2.36,8.0,2.5,8.75,7.75,0.0,0.0,3.5,0.0,0.0,0.5,0.5,0.0,0.0,-0.23,0.39,1.2,376.39,27.8,66.2,0.0,0.0,0.25,0.0,0.0,1.75,0.0,0.0,1.5,6.0,1.75,1.0,0.25,0.2,0.14,0.7,166.76,6.5,-57.0
2.38,8.25,2.25,8.25,7.25,0.0,0.0,3.25,0.0,0.0,0.0,0.0,0.0,0.0,-0.23,0.39,1.45,401.51,29.0,71.7,1.75,0.0,0.0,0.0,0.0,1.0,1.0,3.25,0.25,4.5,5.0,1.0,0.75,-0.23,-0.55,1.02,197.59,1.1,-46.9
2.4,9.0,1.5,7.5,4.75,0.0,0.0,3.75,0.0,0.25,0.0,0.25,0.0,0.0,-0.23,0.52,1.83,398.11,30.4,70.4,1.25,0.0,0.0,0.0,0.25,1.0,0.5,3.0,0.25,2.75,2.5,0.0,0.0,0.14,-0.05,0.89,204.27,3.4,-31.4
2.42,9.0,0.0,7.0,4.25,0.0,0.0,3.5,0.0,0.0,0.0,1.0,0.0,0.0,-0.67,0.89,1.77,369.88,31.3,65.7,1.5,0.0,0.75,0.0,0.0,5.5,0.5,3.0,0.25,2.75,1.25,0.5,0.25,0.02,0.14,0.89,221.89,7.0,-9.0
2.44,8.0,0.0,6.0,3.0,0.0,0.0,2.75,0.0,0.25,0.0,0.5,0.0,0.0,-0.86,0.95,1.95,323.74,32.0,67.9,3.0,1.0,0.75,1.5,4.25,7.5,1.25,5.5,0.25,3.5,1.25,0.25,1.25,0.14,0.14,0.83,288.92,4.4,9.3
2.46,1.5,0.0,4.5,0.0,0.0,0.0,1.5,0.0,0.0,0.0,0.75,0.0,0.0,-0.92,0.83,2.33,252.04,34.4,51.4,3.75,1.25,1.75,1.5,6.0,9.0,1.0,6.75,0.25,4.0,2.0,1.0,1.75,0.14,0.08,0.95,398.19,3.3,8.0
2.48,0.0,0.0,1.25,1.75,0.0,0.0,3.75,0.0,0.0,0.0,0.0,0.0,0.0,-0.67,0.14,2.52,170.36,28.2,47.5,3.0,1.0,0.5,1.0,7.25,9.25,1.25,7.0,0.0,2.0,0.5,0.25,0.5,0.14,0.14,0.95,486.82,6.2,20.6
2.5,0.0,0.0,0.0,1.5,0.0,0.0,0.0,0.0,1.25,1.25,1.0,0.0,0.0,-0.55,-1.8,-0.23,85.04,6.5,-24.7,3.5,1.0,1.25,1.25,7.75,11.5,0.75,6.75,0.0,2.25,0.75,0.5,1.25,0.2,0.14,0.95,576.93,5.7,19.5
2.52,2.75,0.0,1.75,2.0,0.0,0.0,0.5,0.0,0.0,0.75,1.25,0.0,0.0,-1.05,-0.17,1.58,63.42,23.5,39.3,3.25,2.0,1.0,1.25,8.5,12.5,1.0,6.25,0.0,2.75,0.75,0.25,1.5,0.08,0.14,1.08,633.98,6.1,21.4
2.54,3.5,0.0,0.0,2.0,0.0,0.0,2.5,0.0,0.0,0.5,1.25,0.0,0.0,-0.23,-0.61,0.33,54.81,23.5,41.7,3.75,1.75,1.0,1.25,9.0,13.0,0.5,6.25,0.0,2.75,1.0,0.75,1.25,0.08,0.2,0.89,683.71,5.8,21.0
2.56,3.0,0.0,1.0,1.0,0.0,0.0,0.25,0.0,0.0,0.75,1.0,0.0,0.0,0.27,-0.11,0.52,49.17,23.5,40.3,3.5,2.0,1.25,1.25,9.0,13.5,0.0,6.25,0.0,2.75,1.25,0.75,1.25,0.02,0.27,0.7,721.8,6.0,20.9
2.58,2.5,0.0,1.25,1.75,0.0,0.0,0.0,0.0,0.0,0.75,1.0,0.0,0.0,0.64,-0.05,0.7,48.74,22.4,39.5,2.25,2.25,0.5,1.25,9.0,14.0,0.0,6.25,0.0,2.75,0.75,0.75,1.25,0.14,0.27,0.89,736.24,8.2,19.7
2.6,2.25,0.0,1.25,1.5,0.0,0.0,0.0,0.0,0.0,1.0,1.25,0.0,0.0,0.64,0.02,0.7,54.82,20.5,29.0,2.25,2.0,0.5,1.75,9.5,14.0,0.0,6.25,0.0,2.75,1.0,0.75,1.25,0.2,0.2,1.14,726.7,7.8,19.6
2.62,2.75,0.0,0.75,1.5,0.0,0.0,0.25,0.0,0.0,0.75,1.0,0.0,0.0,0.52,0.14,0.64,62.16,22.0,38.9,2.25,2.0,0.5,1.25,10.0,14.0,0.0,5.5,0.25,2.75,1.0,0.25,1.25,0.33,0.27,1.14,707.22,8.0,21.8
2.64,3.0,0.0,1.25,1.5,0.0,0.0,0.0,0.0,0.0,0.75,0.75,0.0,0.0,0.52,0.2,0.58,75.83,23.8,46.5,2.25,1.0,0.5,1.25,10.5,13.0,0.0,5.25,0.0,3.0,1.0,1.0,1.25,0.33,0.27,1.02,685.48,7.9,17.8
2.66,2.0,0.0,1.25,1.75,0.0,0.0,0.0,0.0,0.25,1.0,1.0,0.0,0.0,0.58,0.39,0.89,90.81,19.9,29.0,3.75,2.75,0.5,2.0,10.5,12.5,0.0,4.25,0.0,1.0,1.25,0.25,1.25,0.14,0.33,0.77,655.57,4.5,32.4
2.68,2.0,0.0,0.75,1.5,0.0,0.0,0.25,0.0,0.0,0.5,1.0,0.0,0.0,0.7,0.52,1.2,97.99,22.1,36.7,4.0,2.75,0.0,0.0,9.0,10.5,0.0,2.75,0.0,1.25,0.0,0.0,0.25,0.27,0.45,0.77,568.51,5.2,42.1
2.7,1.75,0.0,1.0,1.5,0.0,0.0,0.0,0.0,0.25,0.5,0.75,0.0,0.0,0.83,0.7,1.33,102.74,22.1,37.0,3.75,4.5,0.25,1.25,9.25,10.0,0.0,2.75,0.0,2.0,1.0,0.0,0.25,0.7,0.7,0.95,534.2,3.0,39.8
2.72,2.0,0.0,0.25,0.5,0.0,0.0,0.25,0.0,0.0,0.5,1.25,0.0,0.0,0.7,0.64,1.27,90.16,20.8,22.9,5.5,3.5,1.0,1.25,9.0,8.5,0.0,1.25,0.25,2.25,0.0,0.25,0.25,1.14,0.89,1.27,500.0,-0.4,45.7
2.74,2.0,0.0,1.25,1.25,0.0,0.0,0.5,0.0,0.0,0.5,1.25,0.0,0.0,0.58,0.58,1.08,88.7,23.4,33.4,5.75,4.25,1.5,1.25,9.0,8.25,0.25,1.5,0.25,0.0,1.0,0.25,1.0,0.77,0.89,2.02,490.64,-2.6,47.9
2.76,2.75,0.0,1.25,1.0,0.0,0.0,0.25,0.0,0.0,0.75,1.0,0.0,0.0,0.33,0.58,0.77,90.18,23.6,39.1,5.5,3.5,1.75,1.25,8.5,7.25,0.5,1.25,0.25,1.5,1.0,0.25,1.0,0.2,1.27,1.77,477.16,-2.7,41.9
2.78,2.25,0.0,0.25,1.0,0.0,0.0,0.25,0.0,0.0,0.5,0.75,0.0,0.0,0.2,0.45,0.89,88.87,22.1,40.5,5.0,2.0,1.25,1.25,7.0,6.25,0.5,1.25,0.25,1.25,1.0,0.25,0.75,0.02,0.58,1.27,441.49,-2.5,39.5
2.8,2.0,0.0,0.25,0.75,0.0,0.0,0.0,0.0,0.0,0.5,1.25,0.0,0.0,0.14,0.14,1.33,83.58,20.3,24.8,2.5,1.0,0.5,1.25,6.25,3.25,0.25,0.0,0.0,1.5,1.0,0.75,1.0,0.2,0.95,-0.11,361.04,-1.3,27.7
2.82,2.0,0.0,0.25,1.25,0.0,0.0,0.25,0.0,0.0,0.0,1.0,0.0,0.0,0.2,-0.23,1.33,76.14,24.7,45.2,2.0,0.75,0.5,1.0,4.5,2.75,0.5,0.5,0.0,1.25,0.75,0.75,0.5,0.58,0.64,-1.55,283.19,-1.4,26.1
2.84,1.75,0.0,1.25,0.5,0.0,0.0,0.0,0.0,0.0,0.5,0.0,0.0,0.0,0.52,-0.48,0.89,68.66,27.2,58.5,1.5,0.25,0.5,1.25,5.25,3.25,0.5,1.25,0.0,1.25,0.25,0.75,0.75,-0.05,1.64,-1.17,232.72,1.7,22.0
2.86,2.0,0.0,1.25,1.0,0.0,0.0,0.25,0.0,0.0,0.75,0.75,0.0,0.0,0.95,-0.55,1.39,73.58,22.8,36.8,1.25,0.5,0.5,1.25,4.25,3.25,0.5,1.25,0.0,1.5,0.25,0.75,0.75,0.33,2.45,-0.05,198.6,2.1,18.4
2.88,2.25,0.0,1.0,0.75,0.0,0.0,0.0,0.0,0.0,0.5,0.75,0.0,0.0,0.89,-0.55,2.08,77.47,24.5,43.0,0.0,0.0,0.25,0.0,4.25,3.0,0.0,1.5,0.0,0.0,1.0,0.25,0.0,0.39,3.95,0.58,160.11,7.8,20.2
2.9,2.0,0.0,1.25,0.75,0.0,0.0,0.0,0.0,0.0,0.5,0.0,0.0,0.0,0.33,0.14,2.27,79.34,27.0,60.5,1.0,0.5,0.25,1.25,2.25,3.25,0.5,0.25,0.0,1.5,0.0,0.75,0.0,-0.61,2.7,0.7,136.54,1.8,24.4
2.92,2.0,0.0,1.25,0.5,0.0,0.0,0.0,0.0,0.0,0.5,0.5,0.0,0.0,0.02,0.64,2.83,78.73,25.9,46.6,1.0,0.0,0.5,0.0,4.25,3.0,0.5,1.25,0.0,1.0,0.75,0.25,0.5,-0.73,1.45,1.33,129.32,4.1,17.1
2.94,2.0,0.0,1.25,0.5,0.0,0.0,0.0,0.0,0.0,0.5,0.5,0.0,0.0,-0.17,1.14,2.39,77.52,25.9,46.6,0.0,0.0,0.0,0.0,2.5,1.0,0.5,0.0,0.0,0.5,0.0,0.25,0.25,-0.61,-0.36,3.83,84.3,6.4,19.7
2.96,2.0,0.0,1.25,1.0,0.0,0.0,0.25,0.0,0.0,0.5,0.5,0.0,0.0,0.14,1.52,1.58,80.12,25.2,47.2,0.0,0.0,0.0,0.0,2.5,2.5,0.5,0.0,0.0,0.5,0.0,0.25,0.0,-0.98,-4.8,3.52,60.53,9.8,28.3
2.98,2.0,0.0,0.25,0.75,0.0,0.0,0.25,0.0,0.0,0.5,0.25,0.0,0.0,1.08,1.2,1.2,73.74,23.1,50.6,0.0,0.0,0.0,0.0,2.25,3.0,0.5,0.0,0.0,0.0,0.25,0.25,0.25,0.27,-3.92,1.83,43.47,10.0,26.2
3.0,2.0,0.0,1.25,0.5,0.0,0.0,0.0,0.0,0.0,0.5,0.5,0.0,0.0,1.83,1.08,1.77,75.49,25.9,46.6,0.0,0.0,0.0,0.0,2.25,2.0,0.25,0.0,0.0,0.0,0.0,0.0,0.5,2.89,-2.55,-2.61,39.13,10.7,29.3
3.02,2.0,0.0,0.25,1.0,0.0,0.0,0.0,0.0,0.0,0.5,0.75,0.0,0.0,1.64,1.08,1.14,74.2,21.1,37.8,1.0,0.5,1.0,1.25,4.25,3.0,1.0,1.25,0.0,1.5,0.75,0.25,1.0,2.33,1.27,-1.8,104.41,0.7,17.7
3.04,1.25,0.0,0.5,0.75,0.0,0.0,0.0,0.0,0.0,0.25,0.5,0.0,0.0,0.77,1.02,0.58,67.13,23.5,42.3,0.0,0.0,0.25,0.0,2.5,1.75,0.5,0.0,0.0,0.0,0.25,0.0,0.0,-0.86,2.08,-0.67,109.97,5.1,40.7
3.06,0.0,0.0,1.25,1.0,0.0,0.0,0.0,0.0,0.0,0.5,0.5,0.0,0.0,0.33,0.83,0.14,59.38,19.4,19.5,0.0,0.0,0.25,0.0,2.25,1.75,0.5,0.0,0.0,0.5,0.0,0.0,0.25,-1.11,1.89,-1.8,110.41,7.2,27.5
3.08,2.0,0.0,1.25,1.0,0.0,0.0,0.0,0.0,0.0,0.5,0.5,0.0,0.0,-0.05,0.14,-0.11,65.24,25.0,47.7,0.75,0.25,0.25,0.25,2.5,1.25,0.5,0.0,0.0,0.5,0.0,0.0,0.25,0.77,1.64,-0.92,93.31,-0.2,39.7
3.1,2.0,0.0,1.25,0.5,0.0,0.0,0.0,0.0,0.0,0.5,0.75,0.0,0.0,-0.17,-0.36,0.08,69.9,25.2,40.5,0.0,0.0,0.0,0.0,0.5,1.25,0.5,0.0,0.0,0.5,0.0,0.0,0.0,0.45,-0.67,-0.23,70.49,11.6,16.0
3.12,1.25,0.0,1.25,0.25,0.0,0.0,0.25,0.0,0.0,0.5,0.0,0.0,0.0,0.14,-0.55,0.33,68.79,27.1,51.9,1.0,0.25,0.0,1.25,2.25,3.0,0.5,0.75,0.0,0.25,0.0,0.0,1.0,0.52,-1.05,-0.11,90.79,3.7,26.8
3.14,1.25,0.0,0.5,0.25,0.0,0.0,0.0,0.0,0.0,0.5,0.0,0.0,0.0,0.77,-0.48,0.33,59.59,23.4,50.3,0.0,0.0,0.0,0.0,2.25,0.75,0.5,0.0,0.0,0.25,0.0,0.0,0.0,0.52,-0.73,0.02,81.11,5.5,39.7
3.16,1.25,0.0,0.25,0.25,0.0,0.0,0.0,0.0,0.0,0.5,0.0,0.0,0.0,1.14,-0.36,0.39,47.34,21.6,49.0,0.0,0.0,0.25,0.0,1.0,0.5,0.5,0.0,0.0,0.5,0.0,0.0,0.0,0.52,-0.55,-0.11,74.14,1.8,23.8
3.18,1.25,0.0,0.5,0.5,0.0,0.0,0.0,0.0,0.0,0.5,0.0,0.0,0.0,1.14,-0.3,0.58,40.43,22.8,51.0,0.0,0.0,0.25,0.0,1.75,1.0,0.5,0.0,0.0,0.0,0.0,0.0,0.25,0.83,-0.17,-0.67,60.93,3.8,36.1
3.2,1.25,0.0,0.75,0.5,0.0,0.0,0.5,0.0,0.0,0.5,0.75,0.0,0.0,0.89,-0.36,0.58,44.79,22.1,26.8,0.0,0.0,0.25,0.0,1.75,0.75,0.5,0.0,0.0,0.0,0.25,0.0,0.0,0.77,0.02,-0.86,51.3,0.7,39.3
3.22,2.0,0.0,1.0,0.5,0.0,0.0,0.0,0.0,0.0,0.5,0.5,0.0,0.0,0.45,-0.36,0.58,56.52,25.2,45.7,0.0,0.0,0.25,0.0,1.5,0.75,0.75,0.0,0.0,0.0,0.0,0.0,0.25,0.64,0.27,-0.86,42.78,1.1,34.4
3.24,0.0,0.0,1.25,0.5,0.0,0.0,0.25,0.0,0.0,0.5,0.5,0.0,0.0,0.2,-0.42,0.45,56.1,20.4,12.9,1.0,0.25,0.5,1.25,3.75,2.75,1.5,0.75,0.0,1.5,0.75,0.25,0.75,0.83,0.45,-0.98,101.7,0.6,17.4
3.26,2.0,0.0,1.25,0.5,0.0,0.0,0.0,0.0,0.0,0.5,0.5,0.0,0.0,0.2,-0.55,0.39,64.91,25.9,46.6,1.25,0.25,0.5,1.25,3.75,2.75,1.25,0.25,0.0,1.75,1.0,0.25,1.25,0.7,0.52,-0.42,155.41,0.3,13.1
3.28,2.0,0.0,0.5,0.5,0.0,0.0,0.0,0.0,0.0,0.5,0.5,0.0,0.0,0.27,-0.67,0.33,65.71,23.5,43.7,1.0,0.5,0.5,1.25,3.75,2.75,1.0,0.25,0.0,1.5,1.0,0.25,1.0,0.52,0.45,-0.86,206.93,0.4,16.8
3.3,2.0,0.0,1.25,0.5,0.0,0.0,0.0,0.0,0.25,0.25,0.5,0.0,0.0,0.14,-0.8,0.27,71.68,27.4,48.6,0.5,0.0,0.5,0.0,3.75,0.5,1.25,0.5,0.0,0.5,1.0,0.0,1.25,0.08,0.27,-1.11,205.01,-0.7,7.2
3.32,2.0,0.0,0.25,0.5,0.0,0.0,0.25,0.0,0.0,0.5,0.5,0.0,0.0,-0.05,-0.86,0.33,69.12,22.7,42.0,0.0,0.0,0.25,0.0,1.75,0.5,0.5,0.0,0.0,0.5,0.0,0.0,0.0,-0.05,0.08,-0.8,166.64,2.2,31.1
3.34,2.0,0.0,0.5,0.5,0.0,0.0,0.25,0.0,0.0,0.5,0.0,0.0,0.0,0.02,-0.92,0.58,69.76,25.5,59.5,0.0,0.0,0.25,0.0,0.5,0.5,1.0,0.0,0.0,0.25,0.0,0.0,0.25,0.33,0.27,-0.8,112.68,-2.2,12.5
3.36,2.25,0.0,0.25,0.5,0.0,0.0,0.0,0.0,0.0,0.5,0.5,0.0,0.0,0.2,-0.8,0.58,68.71,23.2,45.8,0.0,0.0,0.25,0.0,0.5,0.5,0.5,0.0,0.0,0.5,0.0,0.0,0.25,0.7,0.2,-0.92,64.98,2.8,1.4
3.38,2.0,0.0,0.5,0.5,0.0,0.0,0.0,0.0,0.0,0.5,0.5,0.0,0.0,0.2,-0.73,0.58,68.24,23.5,43.7,0.0,0.0,0.0,0.0,1.5,0.5,0.5,0.0,0.0,0.25,0.0,0.0,0.0,0.7,0.14,-0.73,48.03,4.7,35.8
3.4,2.0,0.0,0.25,0.5,0.0,0.0,0.0,0.0,0.0,0.5,0.5,0.0,0.0,0.2,-0.73,0.64,65.99,22.4,42.5,0.0,0.0,0.0,0.0,1.0,0.5,0.5,0.0,0.0,0.5,0.0,0.0,0.25,0.64,0.02,-0.55,36.25,6.9,7.0
3.42,2.5,0.0,0.5,0.5,0.0,0.0,0.0,0.0,0.0,0.5,0.75,0.0,0.0,0.2,-0.8,0.77,69.02,24.0,42.9,0.0,0.0,0.0,0.0,1.25,0.5,0.5,0.0,0.0,0.0,0.0,0.0,0.0,0.7,-0.05,-0.42,27.83,3.6,46.3
3.44,2.0,0.0,1.0,0.5,0.0,0.0,0.25,0.0,0.0,0.5,0.5,0.0,0.0,0.27,-0.73,0.83,71.7,25.4,45.2,0.0,0.0,0.0,0.0,1.5,0.25,0.5,0.0,0.0,0.75,0.0,0.0,0.0,0.83,-0.05,-0.42,23.38,5.1,17.1
3.46,2.0,0.0,1.0,0.5,0.0,0.0,0.0,0.0,0.0,0.5,0.5,0.0,0.0,0.33,-0.61,0.77,74.43,25.2,45.7,0.0,0.0,0.25,0.0,1.0,0.5,0.5,0.0,0.0,0.25,0.0,0.0,0.25,0.89,0.08,-0.61,16.44,1.6,20.1
3.48,2.25,0.0,1.0,0.5,0.0,0.0,0.25,0.0,0.25,0.5,0.5,0.0,0.0,0.39,-0.55,0.7,79.31,25.2,43.6,0.0,0.0,0.0,0.0,1.0,0.5,0.5,0.0,0.0,0.5,0.0,0.0,0.25,0.83,0.2,-0.67,10.07,6.9,7.0
3.5,2.25,0.0,0.5,0.5,0.0,0.0,0.0,0.0,0.25,1.0,0.5,0.0,0.5,0.39,-0.48,0.7,82.46,16.2,16.5,1.25,0.25,0.25,1.25,1.0,2.0,0.5,0.0,0.25,1.5,0.0,0.75,0.75,0.7,0.27,-0.67,54.75,-1.3,7.8
3.52,2.25,0.0,0.5,0.5,0.0,0.0,0.0,0.0,0.0,0.5,0.5,0.0,0.0,0.39,-0.55,0.7,80.76,24.1,46.8,1.25,0.5,0.5,1.25,3.75,2.0,1.0,0.0,0.25,1.75,1.0,0.75,1.0,0.58,0.27,-0.67,125.14,-1.7,11.5
3.54,2.0,0.0,1.0,0.5,0.0,0.0,0.0,0.0,0.0,0.5,0.5,0.0,0.0,0.33,-0.55,0.7,78.97,25.2,45.7,0.0,0.0,0.5,0.0,3.75,0.5,1.0,0.0,0.0,0.25,0.25,0.0,0.5,0.64,0.2,-0.67,148.7,-0.2,29.2
3.56,2.25,0.0,1.0,0.5,0.0,0.0,0.0,0.0,0.0,0.5,0.5,0.0,0.0,0.27,-0.55,0.7,78.94,25.7,48.3,1.0,0.5,0.0,1.25,1.25,1.75,1.25,0.0,0.25,2.0,0.25,0.75,0.25,0.64,0.14,-0.61,169.1,-1.5,7.9
3.58,2.0,0.0,1.0,0.5,0.0,0.0,0.0,0.0,0.0,0.5,0.5,0.0,0.0,0.27,-0.55,0.7,77.63,25.2,45.7,1.25,0.5,0.5,1.25,3.75,2.0,1.0,0.0,0.25,1.5,0.75,0.75,1.0,0.64,0.14,-0.61,189.82,-1.8,14.4
3.6,2.0,0.0,1.25,0.5,0.0,0.0,0.0,0.0,0.0,0.5,0.25,0.0,0.0,0.33,-0.55,0.7,76.8,26.7,53.2,0.0,0.0,0.5,0.0,3.75,0.5,1.0,0.0,0.0,0.25,1.0,0.0,0.5,0.64,0.14,-0.61,178.87,-1.2,19.1
3.62,2.25,0.0,1.0,0.5,0.0,0.0,0.0,0.0,0.0,0.5,0.5,0.0,0.0,0.27,-0.55,0.7,77.56,25.7,48.3,0.0,0.0,0.25,0.0,1.0,0.5,0.5,0.0,0.0,1.0,0.0,0.75,0.25,0.64,0.14,-0.61,147.42,2.3,-20.6
3.64,2.0,0.0,1.25,0.5,0.0,0.0,0.0,0.0,0.0,0.5,0.5,0.0,0.0,0.27,-0.55,0.77,78.0,25.9,46.6,1.0,0.5,0.5,1.5,3.75,1.25,1.0,0.0,0.25,1.75,1.0,0.75,1.0,0.64,0.2,-0.61,164.53,-2.7,9.8
3.66,2.0,0.0,1.75,0.5,0.0,0.0,0.0,0.0,0.0,0.5,0.5,0.0,0.0,0.27,-0.55,0.83,80.62,27.1,48.0,1.0,0.5,0.5,1.25,3.75,1.5,1.0,0.25,0.25,1.5,1.0,0.75,1.0,0.7,0.2,-0.61,183.1,-1.9,10.0
3.68,2.0,0.0,1.0,0.5,0.0,0.0,0.0,0.0,0.0,0.5,0.5,0.0,0.0,0.27,-0.55,0.77,79.54,25.2,45.7,0.0,0.0,0.25,0.0,1.0,0.5,0.75,0.0,0.0,0.25,0.0,0.0,0.0,0.7,0.2,-0.61,151.12,-1.1,33.9
3.7,2.0,0.0,1.25,0.5,0.0,0.0,0.0,0.0,0.0,0.5,0.5,0.0,0.0,0.2,-0.55,0.77,79.63,25.9,46.6,0.0,0.0,0.25,0.0,0.25,0.5,0.75,0.0,0.0,1.25,0.0,0.75,0.25,0.77,0.27,-0.61,116.75,1.8,-40.6
3.72,2.0,0.0,1.25,0.5,0.0,0.0,0.0,0.0,0.0,0.5,0.5,0.0,0.0,0.14,-0.55,0.77,78.24,25.9,46.6,1.25,0.75,0.5,1.25,3.75,1.25,1.0,0.0,0.25,1.5,1.0,0.75,1.0,0.7,0.27,-0.61,130.77,-3.4,13.5
3.74,2.0,0.0,1.25,0.5,0.0,0.0,0.0,0.0,0.0,0.75,0.5,0.0,0.0,0.14,-0.55,0.77,79.82,23.8,40.3,1.0,0.75,0.5,1.5,3.75,1.25,1.25,0.0,0.25,1.75,1.0,0.75,1.0,0.7,0.2,-0.61,153.2,-3.1,11.5
3.76,2.0,0.0,1.25,0.5,0.0,0.0,0.0,0.0,0.0,0.5,0.5,0.0,0.0,0.2,-0.55,0.83,80.12,25.9,46.6,1.0,0.25,0.5,1.25,3.75,1.25,1.0,0.0,0.25,1.75,1.0,0.75,1.25,0.7,0.2,-0.61,183.74,-1.9,5.1
3.78,2.0,0.0,1.25,0.5,0.0,0.0,0.0,0.0,0.0,0.75,0.5,0.0,0.0,0.2,-0.55,0.89,81.09,23.8,40.3,1.5,0.25,0.5,1.25,3.75,1.0,1.0,0.0,0.25,1.5,0.75,0.75,1.0,0.7,0.2,-0.55,207.19,-3.9,12.9
3.8,2.0,0.0,1.25,0.5,0.0,0.0,0.0,0.0,0.0,0.5,0.5,0.0,0.0,0.2,-0.55,0.83,80.35,25.9,46.6,1.25,0.25,0.5,1.25,3.75,1.0,1.0,0.0,0.25,2.0,1.0,0.75,1.0,0.64,0.2,-0.61,212.38,-2.8,6.8
3.82,2.0,0.0,1.25,0.5,0.0,0.0,0.0,0.0,0.0,1.0,0.5,0.0,0.25,0.27,-0.55,0.89,83.29,20.2,27.9,1.0,1.0,0.5,1.5,3.75,0.75,1.25,0.0,0.25,2.0,1.0,0.75,1.25,0.64,0.2,-0.61,214.56,-3.5,8.8
3.84,2.0,0.0,1.25,0.5,0.0,0.0,0.0,0.0,0.0,0.5,0.5,0.0,0.0,0.27,-0.55,0.89,82.11,25.9,46.6,1.25,0.25,0.5,1.25,3.75,1.0,1.25,0.0,0.25,1.75,1.0,0.75,0.75,0.7,0.2,-0.61,218.13,-3.8,10.7
3.86,2.0,0.0,1.0,0.5,0.0,0.0,0.0,0.0,0.0,0.5,0.5,0.0,0.0,0.14,-0.48,0.83,79.92,25.2,45.7,1.0,0.75,0.5,1.25,3.75,0.75,1.25,0.0,0.25,1.5,1.0,0.75,0.75,0.7,0.2,-0.61,216.89,-4.4,13.8
3.88,2.0,0.0,1.25,0.5,0.0,0.0,0.0,0.0,0.0,0.5,0.5,0.0,0.0,0.02,-0.48,0.83,78.28,25.9,46.6,1.0,0.75,0.5,1.5,3.75,1.25,1.0,0.0,0.25,1.5,1.0,0.75,1.0,0.7,0.27,-0.61,212.58,-3.2,12.9
3.9,2.0,0.0,1.25,0.5,0.0,0.0,0.0,0.0,0.0,0.5,0.5,0.0,0.0,0.02,-0.48,0.83,77.55,25.9,46.6,1.0,0.5,0.5,1.25,3.75,1.0,1.0,0.0,0.25,2.0,1.0,0.75,1.0,0.7,0.27,-0.61,214.99,-2.5,7.0
3.92,2.0,0.0,0.25,0.5,0.0,0.0,0.25,0.0,0.25,0.75,0.5,0.0,0.0,0.14,-0.48,0.89,75.05,19.8,30.4,1.0,0.25,0.5,1.25,3.75,0.5,1.25,0.0,0.25,1.5,1.0,0.75,1.0,0.7,0.27,-0.61,213.22,-4.2,7.5
3.94,2.0,0.0,0.5,0.5,0.0,0.0,0.0,0.0,0.0,0.5,0.75,0.0,0.0,0.14,-0.55,0.89,71.88,22.7,36.7,1.5,0.75,0.5,1.25,3.75,1.0,1.0,0.0,0.25,1.5,1.0,0.75,1.0,0.64,0.27,-0.61,208.12,-4.4,14.5
3.96,2.0,0.0,0.5,0.5,0.0,0.0,0.0,0.0,0.0,0.5,0.5,0.0,0.0,0.08,-0.55,0.89,68.1,23.5,43.7,1.0,0.75,0.5,1.5,3.75,0.75,1.0,0.0,0.25,1.5,1.0,0.75,1.0,0.64,0.27,-0.61,200.1,-4.0,12.2
3.98,2.0,0.0,1.0,0.5,0.0,0.0,0.0,0.0,0.0,0.75,0.5,0.0,0.25,0.14,-0.55,0.83,70.43,21.1,31.4,1.0,0.5,0.5,1.25,3.75,0.5,1.25,0.0,0.25,1.75,1.0,0.75,1.0,0.7,0.2,-0.61,199.15,-4.0,7.7
4.0,2.0,0.0,1.0,0.5,0.0,0.0,0.0,0.0,0.0,0.5,0.5,0.0,0.25,0.2,-0.48,0.83,72.45,23.0,37.1,0.75,0.25,0.5,1.25,3.75,1.0,1.0,0.0,0.25,1.5,0.75,0.75,1.0,0.64,0.27,-0.61,194.91,-2.2,8.3
4.02,2.0,0.0,1.25,0.5,0.0,0.0,0.0,0.0,0.0,0.5,0.5,0.0,0.0,0.2,-0.42,0.77,75.63,25.9,46.6,1.0,0.25,0.5,1.25,3.75,0.75,1.25,0.0,0.25,1.75,0.75,0.75,1.25,0.64,0.27,-0.61,193.56,-2.9,5.7
4.04,2.0,0.0,1.25,0.5,0.0,0.0,0.0,0.0,0.0,0.5,0.5,0.0,0.0,0.2,-0.42,0.77,77.14,25.9,46.6,0.75,0.5,0.5,1.25,3.75,0.5,1.25,0.0,0.25,1.5,1.0,0.75,1.25,0.64,0.27,-0.61,190.71,-3.5,5.4
4.06,2.0,0.0,1.25,0.5,0.0,0.0,0.25,0.0,0.0,0.5,0.5,0.0,0.0,0.2,-0.42,0.83,78.69,26.1,46.1,1.5,0.25,0.5,1.25,3.75,0.5,1.0,0.0,0.25,1.75,0.75,0.75,1.0,0.64,0.27,-0.55,191.03,-4.5,10.5
4.08,2.0,0.0,1.25,0.5,0.0,0.0,0.0,0.0,0.0,0.5,0.5,0.0,0.0,0.14,-0.42,0.89,79.35,25.9,46.6,1.0,1.0,0.5,1.5,3.75,0.5,1.0,0.0,0.25,1.5,1.0,0.75,1.0,0.64,0.27,-0.55,195.28,-4.7,13.4
4.1,2.0,0.0,1.25,0.5,0.0,0.0,0.0,0.0,0.0,0.5,0.5,0.0,0.0,0.08,-0.48,0.89,79.7,25.9,46.6,1.0,0.75,0.5,1.25,3.75,0.5,1.0,0.0,0.25,1.5,1.0,0.75,1.5,0.7,0.27,-0.55,197.74,-3.6,6.4
4.12,2.0,0.0,1.25,0.5,0.0,0.0,0.0,0.0,0.0,0.5,0.5,0.0,0.0,0.02,-0.48,0.83,79.6,25.9,46.6,1.25,0.5,0.5,1.25,3.75,0.5,1.0,0.0,0.25,1.5,1.0,0.75,1.0,0.77,0.27,-0.55,197.33,-4.6,10.7
4.14,2.25,0.0,1.25,1.0,0.0,0.0,0.0,0.0,0.25,0.5,0.5,0.0,0.0,0.02,-0.55,0.83,85.31,24.9,46.0,1.0,1.0,0.5,1.5,3.75,0.5,1.0,0.0,0.25,1.5,1.0,0.75,1.0,0.77,0.27,-0.55,199.48,-4.7,13.4
4.16,2.0,0.0,1.25,0.5,0.0,0.0,0.0,0.0,0.0,0.5,0.5,0.0,0.0,0.02,-0.55,0.83,85.08,25.9,46.6,1.0,0.5,0.5,1.25,3.75,0.5,1.0,0.0,0.25,1.75,1.0,0.75,1.0,0.7,0.27,-0.55,198.15,-3.7,7.6
4.18,2.25,0.0,1.25,0.5,0.0,0.0,0.0,0.0,0.0,0.5,0.5,0.0,0.0,0.02,-0.55,0.83,85.79,26.3,49.0,0.75,0.5,0.5,1.25,3.75,0.5,1.0,0.0,0.25,1.5,0.75,0.75,1.0,0.7,0.27,-0.55,193.2,-3.4,9.1
4.2,2.25,0.0,1.25,0.5,0.0,0.0,0.0,0.0,0.0,0.5,0.5,0.0,0.0,-0.05,-0.55,0.83,84.26,26.3,49.0,1.25,0.5,0.5,1.25,3.75,0.5,1.0,0.0,0.25,1.75,1.0,0.75,1.0,0.7,0.27,-0.55,193.67,-4.3,9.1
4.22,2.0,0.0,1.25,0.5,0.0,0.0,0.0,0.0,0.0,0.75,0.5,0.0,0.0,-0.05,-0.55,0.77,83.19,23.8,40.3,1.5,0.75,0.5,1.25,3.75,0.5,1.0,0.0,0.25,1.5,1.0,1.0,0.5,0.7,0.27,-0.55,195.42,-6.1,16.3
4.24,2.0,0.0,1.25,0.5,0.0,0.0,0.25,0.0,0.0,0.5,0.5,0.0,0.0,-0.05,-0.55,0.77,81.98,26.1,46.1,0.5,0.75,0.5,1.25,3.75,0.5,1.0,0.0,0.25,1.5,1.0,0.75,1.25,0.7,0.27,-0.55,194.8,-2.8,5.4
4.26,2.25,0.0,1.25,0.5,0.0,0.0,0.0,0.0,0.0,0.5,0.5,0.0,0.0,0.02,-0.55,0.83,82.27,26.3,49.0,0.75,0.75,0.5,1.25,3.75,0.5,1.0,0.0,0.25,1.5,1.0,0.75,0.75,0.7,0.27,-0.55,192.56,-4.1,11.7
4.28,2.25,0.0,1.25,0.5,0.0,0.0,0.0,0.0,0.0,0.5,0.5,0.0,0.0,0.02,-0.55,0.83,82.42,26.3,49.0,1.0,0.5,0.5,1.25,3.75,0.5,1.0,0.0,0.25,1.75,1.0,0.75,0.75,0.7,0.27,-0.55,191.4,-4.1,9.9
4.3,2.0,0.0,1.25,0.5,0.0,0.0,0.25,0.0,0.0,0.75,0.5,0.0,0.0,0.02,-0.55,0.77,82.85,24.0,40.0,1.0,0.5,0.5,1.25,3.75,0.5,1.25,0.0,0.25,1.5,1.25,0.75,1.25,0.7,0.27,-0.55,192.43,-4.1,5.6
4.32,2.0,0.0,1.25,0.5,0.0,0.0,0.0,0.0,0.0,0.5,0.25,0.0,0.0,0.02,-0.55,0.77,80.48,26.7,53.2,0.0,0.0,0.5,0.0,1.75,0.5,1.25,0.0,0.0,1.0,0.25,0.25,0.5,0.7,0.27,-0.55,157.19,-0.6,-0.9
4.34,2.0,0.0,1.25,0.5,0.0,0.0,0.0,0.0,0.0,0.5,0.5,0.0,0.0,0.08,-0.55,0.77,79.15,25.9,46.6,0.0,0.0,0.5,0.0,3.75,0.0,1.0,0.0,0.0,0.0,1.0,0.0,0.75,0.7,0.27,-0.55,131.92,-2.9,16.8
4.36,2.0,0.0,1.25,0.5,0.0,0.0,0.0,0.0,0.0,0.5,0.5,0.0,0.0,0.02,-0.48,0.77,77.57,25.9,46.6,0.75,0.5,0.25,1.25,0.25,0.5,0.75,0.0,0.25,1.5,0.0,0.75,0.0,0.7,0.27,-0.55,102.54,-7.7,7.4
4.38,2.0,0.0,1.25,0.5,0.0,0.0,0.0,0.0,0.0,0.5,0.5,0.0,0.0,0.02,-0.48,0.77,77.05,25.9,46.6,0.0,0.0,0.5,0.0,0.25,0.0,0.75,0.0,0.0,0.5,0.0,0.0,0.0,0.7,0.27,-0.48,63.58,-13.5,11.3
4.4,1.5,0.0,1.25,0.5,0.0,0.0,0.25,0.0,0.0,0.5,0.5,0.0,0.0,-0.05,-0.55,0.77,75.53,25.1,40.5,0.0,0.0,0.0,0.0,0.25,0.0,0.75,0.0,0.0,0.0,0.0,0.0,0.0,0.7,0.27,-0.48,25.28,-16.4,39.0
4.42,1.5,0.0,1.25,0.5,0.0,0.0,0.0,0.0,0.0,0.5,0.5,0.0,0.0,-0.05,-0.55,0.77,72.87,24.9,40.9,0.75,0.75,0.0,1.25,0.0,0.5,0.75,0.0,0.25,1.5,0.0,0.75,0.5,0.7,0.33,-0.48,30.41,-5.5,-2.1
4.44,2.0,0.0,1.25,0.5,0.0,0.0,0.0,0.0,0.0,0.5,0.5,0.0,0.0,-0.05,-0.55,0.77,73.26,25.9,46.6,1.25,0.25,0.5,1.25,3.75,0.5,1.0,0.0,0.25,1.75,1.0,0.75,0.75,0.77,0.33,-0.48,78.42,-4.5,9.7
4.46,2.0,0.0,1.25,0.5,0.0,0.0,0.0,0.0,0.0,0.5,0.5,0.0,0.0,-0.05,-0.55,0.77,74.41,25.9,46.6,1.5,0.0,0.5,0.0,3.75,0.0,1.0,0.0,0.0,0.0,1.0,0.25,1.25,0.83,0.33,-0.48,109.61,-7.0,18.6
4.48,2.0,0.0,1.25,0.5,0.0,0.0,0.0,0.0,0.0,0.5,0.5,0.0,0.0,-0.05,-0.55,0.77,76.2,25.9,46.6,0.0,0.0,0.0,0.0,0.0,0.0,0.75,0.0,0.0,0.0,0.0,0.25,0.0,0.77,0.33,-0.55,90.09,-22.7,-28.7
4.5,0.0,0.0,1.25,0.5,0.0,0.0,0.0,0.0,0.0,0.75,0.5,0.0,0.0,-0.05,-0.55,0.83,67.03,16.9,5.1,0.0,0.0,0.25,0.0,0.25,0.0,0.75,0.0,0.0,0.5,0.0,0.0,0.25,0.77,0.33,-0.48,59.75,-5.5,-15.0
4.52,1.75,0.0,1.25,0.5,0.0,0.0,0.0,0.0,0.0,0.5,0.5,0.0,0.0,-0.05,-0.55,0.77,67.13,25.4,43.9,0.0,0.0,0.0,0.0,0.25,0.0,0.5,0.0,0.0,0.5,0.0,0.25,0.0,0.64,0.27,-0.48,24.19,-0.9,-33.6
4.54,2.0,0.0,1.25,0.5,0.0,0.0,0.0,0.0,0.0,0.5,0.5,0.0,0.0,-0.05,-0.55,0.77,68.2,25.9,46.6,0.0,0.0,0.0,0.0,0.0,0.0,0.75,0.0,0.0,0.75,0.0,0.25,0.0,0.64,0.27,-0.48,9.01,-1.5,-54.5
4.56,1.75,0.0,1.25,0.5,0.0,0.0,0.0,0.0,0.0,0.5,0.5,0.0,0.0,-0.11,-0.55,0.77,71.75,25.4,43.9,0.0,0.0,0.25,0.0,0.25,0.0,0.5,0.0,0.0,0.5,0.0,0.0,0.25,0.77,0.27,-0.48,9.99,-3.4,-18.3
4.58,2.0,0.0,1.25,0.5,0.0,0.0,0.0,0.0,0.0,0.75,0.25,0.0,0.0,-0.05,-0.55,0.83,74.72,24.5,46.3,0.0,0.0,0.25,0.0,0.0,0.0,0.5,0.0,0.0,0.25,0.0,0.0,0.0,0.77,0.27,-0.48,8.09,-18.3,4.5
4.6,2.0,0.0,1.25,0.5,0.0,0.0,0.0,0.0,0.0,0.5,0.5,0.0,0.0,-0.05,-0.55,0.77,77.46,25.9,46.6,0.0,0.0,0.0,0.0,0.0,0.0,0.75,0.0,0.0,0.75,0.0,0.0,0.25,0.7,0.27,-0.48,8.57,2.6,-54.9
4.62,2.25,0.0,1.25,0.5,0.0,0.0,0.0,0.0,0.0,0.5,0.5,0.0,0.0,-0.05,-0.55,0.83,79.92,26.3,49.0,0.0,0.0,0.0,0.0,0.25,0.75,0.75,0.0,0.0,1.5,0.0,0.25,0.25,0.7,0.27,-0.48,19.03,9.0,-35.5
4.64,2.0,0.0,0.75,0.5,0.0,0.0,0.0,0.0,0.0,0.5,0.25,0.0,0.0,-0.11,-0.55,0.77,76.19,25.2,52.2,0.0,0.0,0.0,0.0,0.0,0.0,0.75,0.0,0.0,0.0,0.0,0.0,0.25,0.7,0.33,-0.48,11.8,-13.1,-29.9
4.66,2.0,0.0,1.25,0.5,0.0,0.0,0.25,0.0,0.0,0.5,0.5,0.0,0.0,-0.05,-0.55,0.83,77.62,26.1,46.1,0.0,0.0,0.0,0.0,0.25,0.0,0.75,0.0,0.0,0.25,0.0,0.0,0.25,0.77,0.33,-0.48,5.72,-2.7,-18.8
4.68,2.0,0.0,1.25,0.5,0.0,0.0,0.0,0.0,0.0,0.5,0.5,0.0,0.0,-0.05,-0.55,0.83,77.13,25.9,46.6,0.0,0.0,0.0,0.0,0.25,0.0,0.75,0.0,0.0,0.0,0.0,0.0,0.25,0.7,0.33,-0.48,1.46,-7.8,-3.2
4.7,2.0,0.0,1.25,0.5,0.0,0.0,0.25,0.0,0.25,0.5,0.5,0.0,0.0,-0.05,-0.55,0.83,80.71,25.4,41.9,0.0,0.0,0.0,0.0,0.0,0.0,0.75,0.0,0.0,0.0,0.0,0.0,0.25,0.7,0.27,-0.48,7.19,-13.1,-29.9
4.72,2.0,0.0,1.25,0.5,0.0,0.0,0.0,0.0,0.0,0.5,0.5,0.0,0.0,-0.05,-0.55,0.83,81.27,25.9,46.6,0.0,0.0,0.0,0.0,0.0,0.0,0.75,0.0,0.0,0.75,0.0,0.0,0.25,0.7,0.27,-0.48,15.1,2.6,-54.9
4.74,2.0,0.0,1.25,0.5,0.0,0.0,0.0,0.0,0.0,0.5,0.5,0.0,0.0,-0.05,-0.55,0.83,82.24,25.9,46.6,0.0,0.0,0.25,0.0,0.25,0.5,1.0,0.0,0.25,1.25,0.0,0.25,0.25,0.7,0.27,-0.48,28.22,1.2,-28.3
4.76,2.25,0.0,1.25,0.5,0.0,0.0,0.0,0.0,0.0,0.5,0.5,0.0,0.0,-0.05,-0.55,0.83,81.06,26.3,49.0,1.0,0.25,0.5,1.25,1.25,0.5,1.5,0.0,0.25,1.5,1.0,0.75,0.5,0.7,0.33,-0.48,74.95,-7.8,0.3
4.78,2.0,0.0,1.25,0.5,0.0,0.0,0.0,0.0,0.0,0.75,0.5,0.0,0.0,-0.11,-0.55,0.83,81.41,23.8,40.3,0.75,0.5,0.5,1.25,3.75,0.5,1.25,0.0,0.25,1.5,1.0,0.75,1.0,0.7,0.33,-0.48,131.16,-3.8,7.7
4.8,2.25,0.0,1.25,0.5,0.0,0.0,0.0,0.0,0.0,0.5,0.25,0.0,0.25,-0.11,-0.55,0.83,82.47,25.0,46.8,1.75,0.75,0.5,1.25,3.75,0.5,1.25,0.0,0.25,1.5,1.0,0.75,1.0,0.7,0.33,-0.48,182.48,-6.0,15.3
4.82,2.0,0.0,1.25,0.5,0.0,0.0,0.0,0.0,0.0,0.5,0.5,0.0,0.0,-0.05,-0.55,0.83,81.48,25.9,46.6,1.0,0.5,0.5,0.5,3.75,0.5,1.0,0.0,0.25,1.75,1.0,0.75,0.75,0.7,0.27,-0.48,205.68,-3.2,6.8
4.84,2.0,0.0,1.25,0.5,0.0,0.0,0.0,0.0,0.0,0.5,0.5,0.0,0.0,-0.05,-0.55,0.83,80.65,25.9,46.6,1.0,0.75,0.5,1.25,3.75,0.5,1.0,0.0,0.25,1.75,1.0,0.75,1.0,0.7,0.27,-0.48,219.83,-3.9,9.3
4.86,2.0,0.0,1.25,0.5,0.0,0.0,0.0,0.0,0.0,0.5,0.5,0.0,0.0,-0.05,-0.55,0.77,79.46,25.9,46.6,1.25,0.5,0.5,1.25,3.75,0.5,1.0,0.0,0.25,1.5,1.0,0.75,1.0,0.77,0.27,-0.48,222.37,-4.6,10.7
4.88,2.0,0.0,1.25,0.5,0.0,0.0,0.0,0.0,0.0,0.5,0.5,0.0,0.0,-0.05,-0.55,0.77,79.2,25.9,46.6,1.0,0.25,0.5,1.0,3.25,0.5,1.0,0.0,0.25,1.5,1.0,0.75,1.0,0.77,0.33,-0.48,219.24,-4.0,4.0
4.9,2.25,0.0,1.25,0.5,0.0,0.0,0.0,0.0,0.0,0.5,0.5,0.0,0.0,-0.05,-0.55,0.77,79.54,26.3,49.0,0.75,0.75,0.5,1.25,3.75,0.5,1.0,0.0,0.25,1.5,1.0,0.75,1.0,0.7,0.33,-0.48,217.51,-3.7,9.3
4.92,2.0,0.0,1.25,0.5,0.0,0.0,0.0,0.0,0.0,0.5,0.5,0.0,0.0,-0.11,-0.55,0.77,79.42,25.9,46.6,1.25,1.0,0.5,1.25,3.75,0.0,1.0,0.0,0.25,1.5,1.0,0.75,1.0,0.77,0.33,-0.48,216.99,-5.9,13.3
4.94,2.0,0.0,1.25,0.75,0.0,0.0,0.0,0.0,0.0,0.5,0.5,0.0,0.0,-0.05,-0.55,0.77,80.65,25.4,47.2,1.25,0.75,0.5,1.25,3.5,0.5,1.0,0.0,0.25,1.5,1.0,0.75,1.25,0.7,0.27,-0.48,216.02,-4.6,9.2
4.96,2.25,0.0,1.0,0.5,0.0,0.0,0.0,0.0,0.0,0.5,0.5,0.0,0.0,-0.11,-0.55,0.77,80.04,25.7,48.3,1.25,0.5,0.5,1.25,3.25,0.5,1.25,0.0,0.25,2.0,1.0,0.75,1.25,0.7,0.27,-0.48,211.95,-4.1,3.6
4.98,2.0,0.0,1.25,0.5,0.0,0.0,0.0,0.0,0.0,0.5,0.75,0.0,0.0,-0.05,-0.55,0.77,80.62,25.2,40.5,1.0,0.5,0.5,1.5,3.25,0.5,1.0,0.0,0.25,1.5,1.0,0.75,1.0,0.7,0.27,-0.48,203.67,-4.7,8.1
5.0,2.0,0.0,1.25,0.5,0.0,0.0,0.0,0.0,0.0,0.5,0.5,0.0,0.0,-0.05,-0.55,0.77,79.49,25.9,46.6,1.0,0.25,0.5,1.0,3.75,0.0,1.0,0.0,0.25,1.5,1.0,0.75,1.0,0.7,0.27,-0.48,190.58,-4.7,5.2
5.02,2.0,0.0,1.25,0.5,0.0,0.0,0.0,0.0,0.0,0.75,0.75,0.0,0.0,-0.05,-0.55,0.77,81.53,23.2,34.9,1.0,0.75,0.5,1.25,3.0,0.5,1.0,0.0,0.25,1.5,1.0,0.75,1.0,0.7,0.33,-0.48,183.67,-4.8,7.9
5.04,2.0,0.0,1.25,0.5,0.0,0.0,0.0,0.0,0.0,0.5,0.5,0.0,0.0,-0.05,-0.55,0.77,80.75,25.9,46.6,1.25,0.5,0.5,1.25,3.5,0.5,1.0,0.0,0.25,1.5,1.0,0.75,1.0,0.7,0.33,-0.48,183.89,-4.8,9.8
5.06,2.0,0.0,1.25,0.5,0.0,0.0,0.0,0.0,0.0,0.5,0.5,0.0,0.0,-0.05,-0.55,0.77,80.53,25.9,46.6,0.5,0.75,0.5,1.25,3.5,0.5,1.0,0.0,0.25,1.5,1.0,0.75,0.75,0.7,0.33,-0.48,183.79,-3.7,9.1
5.08,2.0,0.0,1.25,0.5,0.0,0.0,0.25,0.0,0.25,0.5,0.5,0.0,0.0,-0.05,-0.55,0.83,81.14,25.4,41.9,1.0,0.5,0.5,1.0,3.25,0.5,1.0,0.0,0.25,1.75,1.0,0.75,1.25,0.77,0.33,-0.48,183.78,-3.4,2.1
5.1,2.0,0.0,1.25,0.25,0.0,0.0,0.0,0.0,0.0,0.5,0.5,0.0,0.0,-0.05,-0.55,0.77,78.91,26.4,45.9,0.75,0.75,0.5,1.25,3.25,0.5,1.0,0.0,0.25,1.5,1.0,0.75,1.0,0.7,0.33,-0.48,183.59,-4.0,7.3
5.12,2.5,0.0,0.75,0.5,0.0,0.0,0.25,0.0,0.0,0.5,0.5,0.0,0.0,-0.05,-0.55,0.77,78.85,25.6,49.6,0.75,0.5,0.5,1.25,3.0,0.5,1.0,0.0,0.25,1.5,1.0,0.75,1.25,0.7,0.33,-0.48,181.72,-3.7,1.8
5.14,2.0,0.0,1.25,0.5,0.0,0.0,0.0,0.0,0.0,0.5,0.25,0.0,0.0,-0.05,-0.55,0.77,76.87,26.7,53.2,0.5,0.5,0.5,1.25,3.0,0.5,1.0,0.0,0.25,1.5,1.0,0.75,1.0,0.7,0.33,-0.48,176.25,-3.4,2.3
5.16,2.0,0.0,1.0,0.5,0.0,0.0,0.0,0.0,0.25,0.5,0.5,0.0,0.0,-0.05,-0.55,0.77,77.05,24.5,41.2,0.75,0.25,0.5,1.25,3.0,0.25,1.0,0.0,0.25,1.5,1.0,0.75,1.0,0.7,0.33,-0.48,171.62,-4.4,1.5
5.18,2.0,0.0,1.25,0.5,0.0,0.0,0.0,0.0,0.0,0.5,0.5,0.0,0.0,-0.05,-0.55,0.77,76.65,25.9,46.6,1.0,0.5,0.5,1.25,3.25,0.5,1.0,0.0,0.25,1.5,1.0,0.75,1.0,0.7,0.33,-0.48,173.36,-4.4,7.1
5.2,2.0,0.0,1.25,0.5,0.0,0.0,0.0,0.0,0.0,0.5,0.5,0.0,0.0,-0.05,-0.55,0.77,77.51,25.9,46.6,1.25,0.5,0.5,1.25,3.25,0.5,1.0,0.0,0.25,1.75,1.0,0.5,1.0,0.7,0.33,-0.48,177.61,-4.5,9.4
5.22,2.0,0.0,1.25,0.5,0.0,0.0,0.0,0.0,0.0,0.5,0.5,0.0,0.0,-0.05,-0.55,0.77,77.65,25.9,46.6,0.0,0.0,0.0,0.0,0.25,0.0,0.75,0.0,0.0,0.0,0.0,0.25,0.25,0.77,0.33,-0.48,127.8,-8.1,-26.2
5.24,2.0,0.0,1.25,0.5,0.0,0.0,0.0,0.0,0.0,0.5,0.25,0.0,0.0,-0.05,-0.55,0.77,76.86,26.7,53.2,0.0,0.0,0.0,0.0,0.0,0.0,0.75,0.0,0.0,0.0,0.0,0.0,0.25,0.7,0.33,-0.48,73.3,-13.1,-29.9
5.26,2.0,0.0,1.25,0.5,0.0,0.0,0.0,0.0,0.25,0.5,0.5,0.0,0.0,-0.05,-0.55,0.77,78.17,25.2,42.3,0.0,0.0,0.0,0.0,0.25,0.0,0.75,0.0,0.0,0.25,0.0,0.0,0.25,0.7,0.33,-0.48,20.16,-2.7,-18.8
5.28,2.5,0.0,0.75,0.5,0.0,0.0,0.0,0.0,0.0,0.5,0.5,0.0,0.0,-0.05,-0.55,0.77,78.38,25.4,50.1,0.0,0.0,0.0,0.0,0.0,0.0,0.75,0.0,0.0,0.0,0.0,0.0,0.25,0.7,0.27,-0.48,0.0,-13.1,-29.9
5.3,2.0,0.0,1.25,0.5,0.0,0.0,0.0,0.0,0.0,0.5,0.5,0.0,0.0,-0.05,-0.55,0.83,78.81,25.9,46.6,0.0,0.0,0.0,0.0,0.0,0.0,0.75,0.0,0.0,0.0,0.0,0.0,0.25,0.7,0.27,-0.48,0.0,-13.1,-29.9
5.32,2.0,0.0,1.25,0.5,0.0,0.0,0.25,0.0,0.0,0.5,0.5,0.0,0.0,-0.05,-0.55,0.83,79.22,26.1,46.1,0.0,0.0,0.0,0.0,0.25,0.0,0.5,0.0,0.0,0.25,0.0,0.0,0.25,0.7,0.33,-0.48,0.0,0.6,-24.2
5.34,2.0,0.0,1.25,0.5,0.0,0.0,0.0,0.0,0.0,0.75,0.5,0.0,0.0,-0.05,-0.55,0.83,80.73,23.8,40.3,0.0,0.0,0.0,0.25,0.0,0.0,0.5,0.0,0.0,0.5,0.0,0.0,0.25,0.7,0.33,-0.48,0.0,-0.7,-35.2
5.36,2.0,0.0,1.25,0.5,0.0,0.0,0.0,0.0,0.0,0.5,0.75,0.0,0.0,-0.05,-0.55,0.83,81.24,25.2,40.5,1.75,1.0,0.0,1.0,0.0,0.5,1.0,0.0,0.25,1.5,1.0,0.75,1.25,0.7,0.33,-0.48,26.85,-7.6,-7.1
5.38,2.0,0.0,1.25,0.5,0.0,0.0,0.0,0.0,0.0,0.75,0.5,0.0,0.0,-0.05,-0.55,0.83,82.09,23.8,40.3,1.0,0.5,0.25,0.75,2.75,0.25,1.0,0.0,0.25,1.5,1.0,0.75,1.0,0.7,0.33,-0.48,81.14,-4.0,0.3
5.4,2.0,0.0,1.25,0.5,0.0,0.0,0.0,0.0,0.0,0.5,0.5,0.0,0.0,-0.05,-0.55,0.83,81.19,25.9,46.6,1.25,0.75,0.5,1.25,3.5,0.5,1.0,0.0,0.25,1.5,1.0,0.75,1.0,0.7,0.33,-0.48,141.49,-5.0,11.5
5.42,2.0,0.0,1.25,0.75,0.0,0.0,0.0,0.0,0.0,0.5,0.75,0.0,0.0,-0.05,-0.55,0.83,82.76,24.8,41.4,1.0,0.5,0.5,1.25,3.25,0.75,1.0,0.0,0.25,1.5,1.0,0.75,1.0,0.7,0.33,-0.48,177.69,-3.9,7.6
5.44,2.5,0.0,1.25,0.5,0.0,0.0,0.25,0.0,0.0,0.5,0.75,0.0,0.0,-0.05,-0.55,0.83,86.17,26.1,45.1,1.0,0.25,0.5,1.25,3.0,0.5,1.0,0.0,0.25,2.0,1.0,0.75,0.75,0.7,0.33,-0.48,200.26,-4.0,3.1
5.46,2.0,0.0,1.25,0.5,0.0,0.0,0.0,0.0,0.0,0.5,0.5,0.0,0.0,-0.05,-0.55,0.77,85.19,25.9,46.6,0.75,0.5,0.5,1.25,3.0,0.5,1.0,0.0,0.25,2.0,1.0,0.75,1.0,0.7,0.33,-0.48,211.6,-3.2,1.0
5.48,2.0,0.0,1.25,0.5,0.0,0.0,0.0,0.0,0.0,0.5,0.75,0.0,0.0,-0.05,-0.55,0.77,84.57,25.2,40.5,1.25,0.75,0.5,1.25,3.25,0.5,1.0,0.0,0.25,1.5,1.0,0.75,0.75,0.7,0.33,-0.48,213.82,-5.5,13.0
5.5,2.0,0.0,1.25,0.5,0.0,0.0,0.0,0.0,0.0,0.5,0.5,0.0,0.0,-0.11,-0.48,0.77,81.68,25.9,46.6,0.75,0.5,0.5,0.75,3.5,0.5,1.0,0.0,0.25,1.5,1.0,0.75,1.0,0.7,0.33,-0.48,210.92,-3.1,4.2
