time,left pressure 0[N/cm²],left pressure 1[N/cm²],left pressure 2[N/cm²],left pressure 3[N/cm²],left pressure 4[N/cm²],left pressure 5[N/cm²],left pressure 6[N/cm²],left pressure 7[N/cm²],left pressure 8[N/cm²],left pressure 9[N/cm²],left pressure 10[N/cm²],left pressure 11[N/cm²],left pressure 12[N/cm²],left acceleration X[g],left acceleration Y[g],left acceleration Z[g],left total force[N],left center of pressure X[mm],left center of pressure Y[mm],right pressure 0[N/cm²],right pressure 1[N/cm²],right pressure 2[N/cm²],right pressure 3[N/cm²],right pressure 4[N/cm²],right pressure 5[N/cm²],right pressure 6[N/cm²],right pressure 7[N/cm²],right pressure 8[N/cm²],right pressure 9[N/cm²],right pressure 10[N/cm²],right pressure 11[N/cm²],right pressure 12[N/cm²],right acceleration X[g],right acceleration Y[g],right acceleration Z[g],right total force[N],right center of pressure X[mm],right center of pressure Y[mm]
0.02,1.0,0.5,1.0,0.25,0.0,0.0,0.0,0.0,0.0,0.75,0.5,0.0,1.0,0.08,3.02,1.33,45.79,12.4,2.8,8.25,2.5,10.5,9.25,7.25,1.25,8.0,0.5,0.25,0.0,0.5,0.0,0.75,0.08,0.33,1.39,1046.25,-20.3,57.8
0.04,1.0,0.0,0.5,0.75,0.0,0.0,0.0,0.0,0.0,0.0,1.0,0.0,0.5,0.83,3.64,0.83,54.38,18.6,10.4,9.25,3.25,11.0,8.5,5.75,1.75,8.0,2.0,0.75,1.0,1.25,0.75,1.25,0.14,0.45,1.64,987.11,-18.6,46.8
0.06,0.25,0.0,0.0,0.25,0.0,0.0,0.0,0.0,0.0,0.0,0.75,0.0,0.5,0.89,4.08,0.02,51.03,7.7,-42.2,9.0,2.5,9.25,5.75,5.5,1.0,7.5,0.5,0.5,1.0,1.75,0.75,1.25,0.39,0.83,2.39,860.13,-19.8,46.6
0.08,0.5,0.0,0.0,0.75,0.0,0.0,0.0,0.0,0.0,1.75,0.5,0.0,0.75,0.7,4.02,3.7,53.14,-0.7,-38.1,8.0,1.5,7.0,3.25,2.5,1.25,6.25,0.75,0.5,1.0,1.75,0.75,1.25,0.7,1.08,2.64,691.31,-20.2,40.5
0.1,1.25,0.0,0.0,1.25,0.0,0.0,0.0,0.0,0.0,1.75,1.0,0.0,1.5,0.08,-2.05,-0.98,68.25,3.7,-27.4,4.5,1.0,5.25,2.0,2.25,1.75,3.75,0.5,0.25,1.0,1.75,0.75,1.25,0.45,0.64,2.95,505.1,-16.5,31.0
0.12,0.0,0.0,0.0,0.25,0.0,0.0,0.0,0.0,0.0,3.0,1.75,0.0,3.75,-0.42,-0.17,1.14,103.22,-8.7,-86.5,2.25,1.0,3.25,1.75,1.75,0.0,1.5,1.0,0.0,0.0,1.5,0.0,0.25,0.83,-0.42,2.64,329.26,-18.7,41.3
0.14,0.0,0.0,0.0,0.5,0.0,0.0,0.0,0.0,0.0,5.25,3.0,5.5,6.0,-0.11,0.39,1.89,196.25,-3.8,-91.7,0.75,0.0,2.0,0.5,0.0,0.5,0.25,0.5,0.0,0.0,0.25,0.0,0.0,0.89,-0.3,1.83,177.4,-21.5,44.6
0.16,0.0,0.0,0.0,0.5,0.0,0.0,0.0,0.5,0.5,5.25,5.25,5.0,6.5,-0.11,0.39,1.95,276.36,-2.9,-88.0,0.75,0.0,1.5,0.75,0.0,0.25,0.5,0.5,0.0,0.0,0.5,0.0,0.25,1.08,-1.3,1.52,44.21,-19.5,29.2
0.18,1.0,0.0,1.0,1.0,0.0,0.0,0.0,3.0,0.25,6.0,6.25,0.0,6.5,-1.11,0.39,2.2,342.97,-3.1,-62.2,1.0,0.0,0.75,0.5,0.0,0.5,0.25,0.5,0.0,0.0,0.25,0.0,0.5,0.58,-0.73,1.52,0.0,-12.6,23.0
0.2,0.0,0.0,0.0,1.5,0.0,0.0,0.0,1.25,0.75,7.25,0.0,0.0,6.5,-0.11,0.14,1.2,349.1,-10.8,-72.4,0.75,0.75,0.5,0.75,0.0,2.0,0.25,0.5,0.0,1.0,0.5,0.5,1.0,0.33,-0.42,0.58,0.0,0.0,-1.1
0.22,0.0,0.25,0.0,1.25,0.0,0.0,0.0,4.5,1.25,6.25,5.75,0.0,5.25,-0.17,0.08,1.02,369.08,-5.9,-65.5,1.25,0.25,2.75,1.25,1.75,1.75,0.25,0.75,0.0,0.75,1.5,0.75,1.25,0.39,-0.36,0.33,0.0,-7.9,9.5
0.24,0.0,0.25,0.25,0.5,0.0,0.0,0.0,5.0,1.25,7.5,6.25,0.0,6.0,-0.17,0.08,0.95,385.93,-6.8,-69.3,1.5,0.75,2.75,0.25,1.75,1.25,0.25,0.75,0.0,1.0,1.75,0.75,1.25,0.2,-0.3,0.64,40.15,-8.5,6.9
0.26,0.0,0.75,0.0,0.0,0.0,0.0,0.0,5.0,1.5,7.25,6.75,4.0,5.75,-0.17,0.08,0.95,437.18,-4.6,-74.4,1.25,1.0,2.75,0.75,1.75,1.75,0.25,0.75,0.0,1.0,1.25,0.75,1.25,0.02,-0.23,0.89,101.01,-7.4,12.5
0.28,0.0,0.75,0.0,0.25,0.0,0.25,0.0,5.0,1.5,7.0,5.75,3.0,5.25,-0.11,0.08,0.95,467.74,-5.3,-70.4,1.25,0.5,2.5,1.0,1.75,2.0,0.25,0.75,0.0,0.75,1.25,0.75,1.75,-0.05,-0.05,0.83,135.4,-6.0,6.9
0.3,0.0,0.5,0.0,1.75,0.0,0.5,0.25,5.0,1.25,6.5,0.0,3.0,4.0,-0.17,0.08,0.95,443.82,-7.4,-58.6,2.0,1.0,1.75,0.75,1.75,1.75,0.25,0.75,0.0,1.0,1.5,0.75,1.25,0.02,0.02,0.77,170.18,-6.6,11.7
0.32,0.0,0.75,0.0,0.75,0.0,1.25,0.25,5.0,1.0,5.5,3.75,2.25,3.75,-0.17,0.08,0.95,402.59,-6.3,-59.2,1.25,0.75,1.75,0.75,1.75,2.0,0.0,0.5,0.0,1.0,1.25,0.75,1.25,-0.05,0.02,1.14,188.55,-4.6,8.2
0.34,0.0,1.0,0.0,2.25,0.0,1.0,0.25,4.75,1.0,5.25,3.25,1.75,2.75,-0.17,0.14,0.95,359.22,-4.4,-46.8,1.25,0.75,1.75,0.75,1.75,1.75,0.25,0.75,0.0,1.0,1.5,0.75,1.25,-0.05,0.08,1.58,203.4,-5.0,5.6
0.36,0.0,1.0,0.0,2.25,0.0,1.25,0.25,4.75,0.75,4.25,2.75,1.75,2.5,-0.17,0.08,0.95,320.5,-4.5,-43.2,1.0,0.75,2.0,0.75,1.75,1.75,0.0,0.5,0.0,1.0,1.0,0.75,1.25,-0.05,0.27,1.77,209.21,-5.1,8.8
0.38,0.0,0.0,0.0,0.75,0.0,1.5,0.25,4.5,0.0,2.5,2.75,1.25,2.25,-0.17,0.08,0.95,272.82,-7.8,-55.2,1.25,0.5,1.75,0.5,1.75,1.75,0.25,0.5,0.0,1.0,1.5,0.75,1.25,0.02,0.39,2.14,209.0,-5.1,3.5
0.4,0.75,1.0,0.0,2.25,0.0,3.0,0.5,4.5,0.0,3.5,2.25,1.0,1.75,-0.11,0.14,0.95,256.45,-5.0,-24.8,1.25,0.75,1.75,0.75,1.75,1.75,0.25,1.25,0.0,1.5,1.0,0.5,1.0,0.08,0.52,2.64,205.3,-3.5,8.2
0.42,0.25,1.0,0.0,2.5,0.0,3.75,0.5,4.5,0.0,2.75,2.25,1.0,1.5,-0.11,0.14,0.95,243.17,-5.8,-21.4,1.25,1.0,1.75,0.75,1.75,1.5,0.25,0.5,0.5,1.0,0.75,0.75,1.0,0.02,2.02,2.89,199.72,-6.4,13.0
0.44,0.25,1.0,0.0,3.5,0.0,4.25,0.5,4.5,0.0,3.0,2.0,0.75,1.5,-0.11,0.14,0.95,246.59,-5.5,-15.2,1.5,1.0,1.75,0.75,1.75,1.25,0.25,0.5,0.5,1.25,1.25,0.5,1.0,-0.3,3.14,1.58,194.68,-7.2,11.5
0.46,1.0,1.0,1.0,4.0,0.0,4.75,0.5,4.5,0.0,2.5,2.0,1.0,1.5,-0.11,0.14,0.95,256.48,-1.8,-5.5,0.75,0.75,1.75,1.25,1.5,1.0,0.25,0.5,0.0,1.5,1.25,0.75,1.0,-1.17,3.64,0.14,185.93,-6.1,3.2
0.48,2.5,1.0,0.0,4.25,6.25,5.5,0.75,4.5,0.0,2.5,1.5,1.0,1.5,-0.11,0.14,0.95,305.46,-2.2,12.9,1.25,0.75,1.75,0.5,1.75,1.5,0.25,0.75,0.0,1.0,1.0,0.75,1.0,-2.11,4.14,0.02,183.2,-5.5,9.5
0.5,2.0,1.25,1.75,6.25,7.75,5.75,1.0,4.5,0.0,2.5,1.5,1.0,1.25,-0.11,0.14,0.95,387.18,0.4,20.3,0.75,0.75,1.75,0.5,1.75,1.5,0.25,0.5,0.0,1.5,1.25,0.5,1.0,-2.05,3.77,0.14,177.96,-4.0,4.4
0.52,1.5,1.25,1.75,7.0,8.5,6.5,1.25,4.5,0.0,2.25,1.25,1.0,1.25,-0.11,0.14,1.02,487.34,0.0,22.3,1.0,0.5,1.75,0.5,1.75,1.25,0.25,0.75,0.0,1.75,1.5,0.75,1.25,-1.42,0.77,2.77,179.64,-3.9,-4.5
0.54,2.75,1.25,3.25,7.75,0.0,7.25,1.5,4.25,0.0,2.5,1.25,1.0,1.25,-0.11,0.14,1.02,528.91,4.0,18.4,0.75,0.75,1.5,0.5,1.25,1.25,0.25,1.5,0.0,3.75,1.75,2.25,1.75,0.14,-0.92,1.02,197.9,-0.2,-30.2
0.56,0.0,1.25,0.0,8.25,0.0,7.5,1.75,3.25,0.0,2.5,0.5,0.75,1.25,-0.17,0.2,1.08,490.76,-2.6,12.1,0.5,1.0,0.75,0.5,0.0,1.25,0.0,1.25,0.25,6.0,2.75,4.75,4.5,-0.61,-0.23,1.52,248.68,2.7,-62.7
0.58,3.5,2.0,0.0,9.0,0.0,7.25,2.0,3.0,0.5,2.5,0.0,0.75,1.25,-0.17,0.2,1.02,468.56,2.6,25.5,0.75,1.0,1.5,0.5,0.25,1.5,0.0,2.0,0.5,8.25,6.25,5.25,6.25,-0.98,0.58,2.52,336.13,1.8,-61.7
0.6,0.0,1.5,0.0,8.75,0.0,6.75,2.0,2.25,0.5,1.5,0.5,0.75,1.25,-0.17,0.2,1.02,415.51,0.0,18.0,0.75,0.5,2.25,0.5,1.25,1.75,0.0,3.75,0.75,8.75,7.75,4.75,6.25,1.2,0.52,3.58,454.22,1.8,-56.3
0.62,0.0,1.75,0.0,10.0,0.0,0.0,2.0,1.75,0.0,0.0,0.5,0.25,0.25,-0.23,0.2,1.08,348.11,13.0,40.7,1.0,0.5,1.0,1.25,1.5,1.75,0.25,5.0,0.75,8.25,8.25,3.5,5.75,-0.11,0.14,1.14,555.66,2.7,-52.9
0.64,5.25,0.5,6.5,10.0,0.0,0.0,2.25,1.5,0.0,0.75,0.75,0.25,0.0,-0.3,0.27,1.2,338.99,23.1,51.2,1.75,1.25,0.25,2.0,0.0,3.75,0.0,4.75,1.5,9.0,7.75,4.75,4.5,0.08,0.14,0.95,626.88,2.5,-48.1
0.66,6.0,1.5,6.75,9.0,0.0,0.0,2.5,1.25,0.0,0.0,0.75,0.75,0.0,-0.3,0.33,1.7,346.21,24.6,55.3,1.75,1.25,1.5,2.0,2.25,4.0,1.25,4.5,1.5,9.0,9.0,4.75,5.75,0.08,0.14,0.95,701.55,1.0,-40.7
0.68,7.25,1.0,6.25,7.75,0.0,0.0,2.0,0.0,0.0,1.0,0.0,0.0,0.0,-0.42,0.45,2.14,349.78,26.7,64.9,2.0,1.25,1.5,2.25,1.75,4.0,1.5,5.75,1.75,8.75,9.25,4.75,5.0,0.08,0.08,0.95,757.65,0.6,-39.3
0.7,7.0,1.0,4.5,4.25,0.0,0.0,1.75,0.0,0.0,0.75,0.5,0.0,0.0,-0.67,0.77,2.7,316.64,27.5,64.7,2.0,1.25,3.25,3.25,2.25,4.5,3.25,5.75,2.0,8.25,8.75,4.25,5.25,0.08,0.08,0.95,816.59,-1.2,-30.1
0.72,5.5,1.0,2.75,3.75,0.0,0.0,1.0,0.0,0.0,0.25,0.5,0.0,0.0,-0.92,1.02,2.89,269.68,27.2,68.0,2.0,1.25,4.0,3.25,3.75,4.75,4.25,5.75,2.0,7.75,8.25,3.5,4.5,0.08,0.08,0.95,855.25,-2.0,-22.2
0.74,2.25,0.0,2.5,2.5,0.0,0.0,0.0,0.0,0.0,0.0,0.0,0.0,0.0,-0.67,0.45,2.89,192.86,29.7,70.5,2.0,1.25,5.5,3.25,5.25,5.75,4.5,5.5,1.75,6.75,7.5,3.0,3.5,0.08,0.08,0.95,883.09,-2.9,-11.9
0.76,0.0,0.0,0.0,0.0,0.0,0.0,0.0,1.5,0.0,0.0,0.0,0.0,0.0,-0.92,-1.11,2.33,98.28,-16.7,-38.8,2.0,1.5,5.5,4.25,2.5,5.75,5.0,5.0,1.5,5.25,5.75,2.0,3.0,0.14,0.08,0.95,839.8,-4.4,-6.0
0.78,0.0,0.0,0.0,1.25,0.0,0.0,0.0,0.0,0.0,0.0,0.0,0.0,0.0,-0.92,-0.48,1.33,25.43,17.2,57.9,2.0,1.5,6.5,5.5,5.5,5.75,5.5,4.75,1.25,3.75,4.25,1.25,1.75,0.14,0.14,0.95,802.12,-6.0,10.9
0.8,0.0,0.0,0.0,0.0,0.0,0.0,0.75,0.0,1.75,0.0,0.0,0.5,0.0,-0.55,-2.17,1.89,0.0,14.3,-43.1,2.0,1.5,7.0,4.0,5.75,5.25,6.0,4.25,1.0,2.5,3.0,0.75,0.25,0.08,0.14,0.95,720.27,-7.9,22.0
0.82,0.0,0.0,0.0,1.5,0.0,0.0,2.5,4.5,0.0,0.5,0.75,1.0,0.0,-0.3,-0.98,1.14,0.0,0.0,-26.6,2.0,0.75,6.25,5.0,6.5,5.75,6.0,3.75,0.25,1.0,2.25,0.5,0.25,0.08,0.14,0.95,645.76,-7.9,30.0
0.84,0.0,0.0,0.75,1.5,0.0,0.0,2.25,3.75,0.0,0.75,0.5,1.25,0.0,-0.42,-0.48,0.52,37.06,3.4,-21.5,2.0,0.75,6.5,5.25,5.5,5.75,5.75,3.25,0.0,1.0,1.5,0.25,1.25,0.02,0.08,1.02,579.14,-8.1,30.2
0.86,0.0,0.25,0.0,2.0,0.0,0.0,0.0,0.0,0.0,1.0,0.0,0.0,0.0,-0.67,-0.23,0.52,40.77,7.0,21.2,2.0,1.0,7.0,4.25,6.0,5.25,5.75,3.0,0.0,0.5,1.5,0.25,0.5,0.08,0.14,0.95,530.88,-9.6,35.8
0.88,0.0,0.0,0.0,0.0,0.0,0.0,0.0,0.0,1.0,0.0,0.0,0.0,0.0,-0.55,-0.23,0.64,8.99,12.1,-38.5,2.0,0.75,7.0,5.5,6.75,5.75,5.5,2.25,0.25,0.5,1.0,0.25,0.25,0.08,0.14,0.95,501.08,-9.7,40.1
0.9,0.0,0.0,0.0,0.0,0.0,0.0,3.75,0.0,2.25,0.0,0.75,0.0,0.0,-0.3,-0.17,1.08,7.05,19.6,-19.2,3.5,0.75,7.0,6.0,7.25,5.75,5.5,2.25,0.25,0.5,0.5,0.0,0.5,0.08,0.2,0.89,499.31,-10.4,44.1
0.92,0.0,0.0,0.0,0.0,0.0,0.0,2.75,0.0,2.25,0.0,0.75,0.5,0.0,-0.23,0.02,1.2,17.28,17.2,-33.4,3.5,1.0,7.25,7.0,7.25,5.75,5.5,2.25,0.25,0.5,0.25,0.0,0.75,0.08,0.2,0.89,522.35,-10.6,44.7
0.94,1.25,1.0,3.75,2.5,0.0,0.0,4.0,0.0,1.0,2.75,3.75,0.0,2.0,-0.3,0.14,1.33,118.98,14.4,-4.5,4.5,1.25,8.0,7.25,7.5,5.75,5.5,2.0,0.0,0.0,0.25,0.0,0.75,0.08,0.2,0.89,556.22,-12.1,49.2
0.96,1.0,0.0,0.25,1.25,0.0,0.0,0.0,0.0,0.25,1.25,0.0,0.0,0.0,-0.36,0.27,1.64,129.28,12.1,19.7,4.5,1.25,8.0,8.75,8.25,6.0,5.75,2.0,0.5,0.0,0.25,0.0,0.75,0.02,0.2,0.95,609.58,-11.9,48.5
0.98,1.5,0.75,1.0,2.0,0.0,0.0,0.25,0.0,0.5,1.75,0.5,0.0,0.0,-0.36,0.39,1.89,155.04,14.9,26.1,5.75,1.25,8.75,9.75,9.75,6.0,6.0,2.0,0.25,0.0,1.0,0.0,1.25,0.02,0.2,0.95,695.34,-12.2,47.1
1.0,1.0,0.75,1.0,2.25,0.0,0.0,0.25,0.0,0.75,2.5,1.25,0.0,0.25,-0.36,0.52,2.27,150.5,10.6,3.3,6.25,2.25,8.75,12.0,8.75,6.0,6.5,0.75,0.75,0.0,1.5,0.0,1.25,0.02,0.27,0.95,793.9,-13.7,48.9
1.02,1.0,0.75,0.25,2.0,0.0,0.0,0.0,0.0,0.5,1.5,0.5,0.0,0.0,-0.42,0.58,3.2,140.24,11.6,20.8,6.25,1.75,9.5,11.0,8.75,6.0,6.5,0.5,0.5,0.0,0.25,0.25,0.75,0.02,0.27,0.95,851.8,-14.5,53.1
1.04,0.25,0.0,0.0,0.0,0.0,0.0,0.0,0.0,0.0,0.75,0.5,0.0,0.0,-0.48,1.33,3.45,95.72,1.0,-47.9,7.75,2.25,10.5,11.0,8.75,4.75,6.75,0.5,0.25,0.0,0.25,0.25,0.75,0.02,0.27,1.08,902.05,-16.4,55.8
1.06,0.5,0.25,0.0,1.25,0.0,0.0,0.0,0.0,0.25,1.75,0.0,0.0,0.0,-0.17,4.33,5.39,75.02,4.3,1.3,8.0,2.25,10.5,13.0,8.75,3.25,7.0,0.5,0.25,0.0,0.5,0.25,1.0,0.08,0.33,1.14,933.77,-17.4,55.2
1.08,0.0,0.0,0.0,0.25,0.0,0.0,0.0,0.0,0.0,0.0,0.5,0.0,0.0,-0.11,2.7,1.64,44.19,13.0,-28.6,8.0,1.5,10.5,11.0,8.5,2.75,7.0,0.5,0.25,0.0,0.25,0.75,0.25,0.08,0.33,1.27,921.51,-18.5,56.1
1.1,0.5,0.0,0.0,0.25,0.0,0.0,0.0,0.0,0.0,0.0,0.0,0.0,0.25,0.52,3.64,1.08,25.18,17.5,33.0,8.5,2.25,9.5,9.25,7.5,1.0,6.75,0.25,0.25,0.0,1.5,0.25,0.5,0.14,0.45,1.58,870.7,-20.1,56.0
1.12,1.0,0.5,0.0,1.25,0.0,0.0,0.25,0.0,0.25,1.0,0.5,0.25,0.25,1.27,4.08,-0.11,31.08,11.1,8.6,9.5,2.5,9.0,7.5,5.75,1.75,6.75,0.5,0.5,1.25,1.5,0.75,1.0,0.2,0.77,2.14,814.97,-18.9,48.4
1.14,0.25,0.0,0.0,1.0,0.0,0.0,0.0,0.0,0.0,0.75,0.5,0.0,0.25,0.52,4.89,-0.23,28.35,5.8,-13.6,8.75,2.0,7.0,5.5,5.5,1.25,6.0,0.5,0.75,0.75,1.5,0.75,1.0,0.33,1.08,2.64,718.47,-18.7,47.0
1.16,0.25,0.5,0.0,1.0,0.0,0.0,0.0,0.0,0.0,1.0,1.0,0.0,1.75,-0.05,0.33,0.58,42.7,0.4,-38.0,6.75,1.25,5.5,3.25,2.75,1.75,4.5,0.5,0.5,1.0,1.5,0.75,1.0,0.39,0.83,2.77,574.88,-18.1,39.9
1.18,0.0,0.0,0.0,1.0,0.0,0.0,0.0,0.0,0.0,0.0,0.0,4.0,3.75,-0.36,0.08,1.14,74.94,0.0,-90.1,3.5,0.75,3.5,1.5,2.25,2.0,2.0,0.5,0.25,1.0,1.5,0.75,0.0,0.58,0.33,2.58,398.83,-14.4,34.4
1.2,0.0,0.0,0.0,0.25,0.0,0.0,0.0,1.25,0.5,3.25,0.0,4.25,6.0,0.45,0.64,2.39,157.26,-6.9,-92.0,2.25,0.75,2.5,1.5,1.75,1.5,0.75,0.5,0.25,1.0,0.75,0.75,0.0,0.58,-0.86,1.7,271.33,-12.4,32.4
1.22,0.0,0.0,0.0,2.25,0.0,0.0,0.0,1.5,0.0,0.0,5.25,2.25,6.0,-0.61,0.58,1.89,212.14,0.3,-70.8,2.0,0.25,2.75,1.5,1.75,1.75,0.25,0.5,0.0,1.0,1.5,0.75,1.0,0.83,-0.42,1.45,184.89,-9.8,15.9
1.24,0.0,0.0,0.0,1.5,0.0,0.0,0.0,0.0,1.25,4.75,0.0,0.0,0.0,-0.23,0.33,1.58,210.65,-4.3,-41.7,0.75,0.0,1.75,0.5,0.25,0.75,0.25,0.5,0.0,0.0,1.5,0.0,1.0,0.58,-1.92,1.52,92.64,-11.5,1.3
1.26,0.0,0.0,0.0,0.25,0.0,0.0,0.0,3.25,1.0,7.75,6.0,0.0,4.75,-0.11,0.14,1.14,264.35,-7.1,-74.5,1.0,0.0,2.0,0.5,0.25,0.75,0.25,0.5,0.0,0.0,0.25,0.0,0.5,0.2,-0.73,1.08,28.95,-16.0,33.2
1.28,0.0,0.0,0.0,0.25,0.0,0.0,0.25,4.5,2.0,7.5,7.0,0.0,4.0,-0.11,0.14,0.95,307.23,-5.7,-69.8,0.75,0.25,1.25,0.5,0.0,0.5,0.25,0.0,0.0,0.0,0.25,0.0,0.25,0.33,-0.42,0.58,0.0,-20.2,45.5
1.3,0.0,0.0,0.0,2.25,0.0,0.0,0.75,4.5,2.25,7.75,0.0,3.5,4.5,-0.11,0.14,0.95,360.73,-5.9,-62.8,0.5,0.0,1.25,0.0,0.0,0.5,0.25,0.0,0.0,0.0,0.25,0.0,0.5,0.45,-0.3,0.64,0.0,-17.4,22.1
1.32,0.0,0.0,0.0,2.0,0.0,0.0,1.0,3.75,2.25,7.25,7.0,3.75,4.5,-0.11,0.08,0.95,423.97,-1.7,-67.0,0.5,0.0,0.5,0.0,0.0,0.0,0.0,0.25,0.0,0.0,0.25,0.0,0.25,0.2,-0.17,0.89,0.0,-17.8,12.0
1.34,0.0,0.0,0.0,2.25,0.0,0.0,1.25,3.25,2.0,7.25,7.0,3.0,5.0,-0.11,0.08,0.95,472.37,-1.8,-65.9,2.0,0.75,3.0,1.25,2.25,1.5,0.0,0.75,0.0,1.5,1.0,0.75,1.0,0.08,-0.11,1.02,0.0,-8.8,18.7
1.36,0.0,0.0,0.0,2.0,0.0,0.0,1.5,3.0,1.75,6.25,6.25,2.75,4.25,-0.11,0.08,0.95,471.39,-1.4,-65.0,2.0,0.25,2.75,1.25,1.75,1.25,0.25,0.5,0.0,1.25,1.5,0.75,1.0,0.08,0.14,0.95,74.35,-10.2,13.0
1.38,0.0,0.0,1.5,2.5,0.0,0.0,1.75,1.5,1.75,6.5,6.0,2.25,3.25,-0.11,0.08,0.95,446.67,2.3,-53.5,1.25,0.0,2.75,1.25,1.75,1.75,0.0,0.5,0.0,1.0,1.5,0.75,1.0,0.08,0.27,1.27,143.61,-8.1,9.3
1.4,0.0,0.0,2.5,2.75,0.0,0.0,2.25,1.5,1.25,5.5,5.5,1.0,2.75,-0.11,0.08,0.95,400.94,4.7,-41.4,1.25,0.25,2.25,0.75,1.75,1.25,0.0,0.5,0.0,1.0,1.5,0.25,1.0,0.14,0.33,1.39,173.48,-7.7,10.8
1.42,0.0,0.75,0.75,3.5,0.0,0.0,2.0,2.5,1.5,4.75,3.75,1.0,2.0,-0.11,0.08,0.95,351.65,2.5,-35.2,1.25,0.0,2.0,1.25,1.75,1.25,0.0,0.5,0.25,1.0,1.25,0.5,1.0,0.08,0.39,1.64,189.22,-7.4,8.2
1.44,0.0,0.0,1.75,2.5,0.0,0.0,2.0,2.25,0.75,4.25,4.75,0.0,1.5,-0.11,0.08,0.95,300.51,4.1,-35.4,1.75,0.5,1.75,1.25,1.75,1.5,0.25,0.5,0.25,1.0,1.25,0.75,1.0,-0.67,1.39,4.2,194.75,-7.7,12.2
1.46,0.0,0.75,3.5,4.0,0.0,0.0,2.75,1.75,1.75,5.25,3.75,2.0,0.75,-0.11,0.08,0.95,295.32,8.7,-21.3,1.5,0.5,1.75,1.25,1.75,0.0,0.25,0.5,0.0,0.0,1.0,0.0,1.0,-0.92,1.64,2.08,187.18,-13.6,28.9
1.48,0.0,0.75,3.0,4.0,0.0,0.0,3.0,2.75,1.75,0.0,5.25,0.0,2.75,-0.11,0.08,0.95,285.75,10.8,-14.6,0.5,0.0,2.25,0.0,0.0,0.0,0.0,0.5,0.25,0.0,1.25,0.5,0.25,-0.11,2.2,1.58,163.69,-20.6,-2.9
1.5,0.0,0.0,3.0,4.25,0.0,0.0,3.25,2.75,1.5,3.75,0.0,1.75,1.5,-0.11,0.14,0.95,268.85,7.4,-15.6,0.25,0.0,2.0,0.5,1.75,1.0,0.25,0.5,0.0,0.5,1.5,0.75,1.0,-0.42,2.58,0.89,152.54,-6.2,-3.8
1.52,0.0,0.0,3.5,4.0,0.0,0.0,3.0,2.75,1.75,3.0,4.75,1.75,1.75,-0.11,0.08,0.95,273.71,9.0,-25.5,0.5,0.0,3.5,0.75,0.0,1.75,0.0,0.5,0.0,1.5,1.5,0.0,0.0,-1.17,1.33,-1.3,145.81,-11.4,12.5
1.54,0.0,1.0,4.25,6.25,0.0,0.0,4.25,2.75,1.5,4.25,4.75,2.0,1.75,-0.11,0.14,0.95,304.79,9.9,-14.4,0.0,0.0,1.25,0.25,0.0,1.25,0.25,1.0,0.0,1.0,3.75,0.25,1.25,0.52,-0.23,1.27,145.44,-2.1,-41.9
1.56,0.0,1.0,4.75,7.0,0.0,0.0,5.0,2.75,1.0,2.5,3.75,1.0,1.25,-0.11,0.14,0.95,330.03,12.9,1.1,0.25,0.0,0.5,0.5,0.0,0.0,0.25,0.5,0.5,0.25,1.5,0.0,0.25,-0.05,1.14,0.7,114.23,-10.7,-24.7
1.58,0.0,1.0,0.0,7.25,0.0,0.25,5.25,2.5,1.5,2.5,2.5,1.0,1.0,-0.11,0.14,0.95,330.87,7.9,-5.7,0.75,0.0,0.5,1.25,0.0,1.75,0.25,0.75,0.0,0.0,0.5,0.0,0.5,0.39,-0.67,0.89,91.42,-3.0,18.7
1.6,0.0,0.75,0.0,7.75,0.0,0.0,5.75,1.5,0.5,0.75,0.5,0.0,0.0,-0.11,0.14,1.02,293.58,14.3,30.3,1.5,0.5,1.75,2.0,0.0,2.0,1.0,0.5,0.0,0.0,0.25,0.0,0.25,0.02,0.2,0.89,96.85,-13.4,46.9
1.62,0.0,0.0,0.0,0.0,0.0,0.0,0.25,0.0,0.0,0.0,0.0,0.0,0.0,-0.11,0.14,1.14,194.76,32.4,27.3,3.5,0.75,3.25,3.0,1.0,2.0,1.25,0.5,0.0,0.0,0.25,0.0,0.25,0.08,0.08,1.08,145.18,-17.7,56.6
1.64,0.0,0.0,7.25,9.0,0.0,0.0,5.5,1.0,0.0,0.0,0.0,0.0,0.0,-0.17,0.14,1.2,195.22,25.1,50.4,4.75,0.5,5.5,5.0,1.75,2.25,2.0,0.5,0.5,0.0,0.25,0.0,0.25,-0.05,0.2,0.83,223.5,-19.6,55.9
1.66,0.0,0.0,2.0,10.0,0.0,0.0,6.0,1.25,0.75,0.0,0.0,0.5,1.25,-0.11,0.2,1.08,202.15,17.0,28.0,6.0,0.75,6.75,5.25,2.25,3.0,2.5,0.5,0.25,0.0,0.25,0.0,0.5,0.08,0.2,1.02,300.88,-19.3,56.8
1.68,6.25,1.0,8.75,9.0,0.0,0.0,5.5,0.0,0.5,1.0,0.0,1.0,0.0,-0.23,0.27,1.33,288.03,26.5,53.8,6.75,2.0,7.25,8.0,4.75,4.0,3.5,0.5,0.25,1.0,0.25,0.75,0.25,0.08,0.2,1.14,432.08,-16.0,52.3
1.7,6.75,0.25,9.25,8.25,0.0,0.0,5.5,0.0,0.0,0.75,0.75,0.75,0.0,-0.36,0.27,2.02,350.2,27.8,54.1,8.25,2.5,8.5,8.75,6.0,3.75,3.5,0.5,0.0,1.0,1.25,0.75,1.0,0.14,0.27,1.2,597.75,-16.2,49.7
1.72,6.5,0.0,8.0,6.25,0.0,0.0,5.5,0.0,0.25,0.25,1.25,1.0,0.75,-0.61,0.45,2.45,399.42,27.3,45.7,8.0,2.0,9.25,7.5,5.5,1.25,3.0,0.0,0.0,0.0,0.25,0.75,0.25,0.08,0.33,1.14,683.23,-21.3,60.9
1.74,5.5,0.0,6.5,4.0,0.0,0.0,4.25,0.0,0.5,0.0,0.5,0.0,0.0,-0.8,1.02,3.45,366.44,30.7,60.6,9.0,3.25,9.5,9.75,5.5,1.75,3.5,0.0,0.25,0.75,1.5,0.5,1.0,0.02,0.33,0.95,771.47,-19.3,53.7
1.76,3.0,0.0,4.5,2.5,0.0,0.0,2.25,0.0,0.0,0.25,0.25,0.0,0.0,-0.17,0.7,3.39,293.28,30.4,60.2,9.75,3.5,9.0,10.5,5.5,0.75,3.5,0.5,0.5,1.0,0.25,0.75,0.5,-0.05,0.39,0.83,821.65,-20.1,57.2
1.78,1.25,0.0,4.75,2.0,0.0,0.0,5.0,0.0,0.0,1.0,0.0,0.0,0.0,-0.17,-0.23,2.08,236.5,28.2,45.3,11.0,4.25,10.5,11.0,5.25,1.75,3.75,0.0,0.5,1.0,0.25,0.75,0.25,-0.05,0.45,0.77,893.42,-20.7,60.3
1.8,1.75,0.0,1.25,1.5,0.0,0.0,0.5,0.0,0.5,0.0,0.5,0.0,0.0,-0.55,0.33,1.33,168.99,26.7,49.1,11.5,4.75,11.5,10.5,2.5,1.0,4.5,0.5,0.5,1.0,1.25,0.75,1.0,-0.05,0.52,0.77,932.74,-22.3,55.4
1.82,1.75,0.0,1.5,2.0,0.0,0.0,0.5,0.0,0.25,0.0,0.5,0.0,0.25,-0.48,-0.36,0.58,128.45,25.3,47.3,11.0,4.0,10.5,10.5,0.5,1.25,4.5,0.0,0.25,0.0,0.25,0.5,0.25,-0.05,0.64,0.95,896.53,-25.6,65.9
1.84,1.5,0.0,1.5,0.25,0.0,0.0,0.5,0.0,0.5,0.75,0.25,0.0,0.0,-0.36,-0.3,1.33,88.07,23.7,32.2,12.0,4.25,11.0,8.75,1.75,0.0,5.0,0.0,0.25,0.0,1.25,0.0,0.25,-0.23,0.58,0.77,837.9,-26.5,66.2
1.86,1.25,0.0,2.5,2.25,0.0,0.0,0.5,0.0,0.5,1.5,0.0,0.0,0.25,-0.05,-0.61,1.14,81.7,19.4,29.5,12.0,4.75,9.5,8.5,0.0,0.0,5.5,0.0,0.5,0.0,0.25,0.0,0.0,-0.36,0.52,0.64,745.27,-28.1,71.5
1.88,0.0,0.0,0.0,2.25,0.0,0.0,0.5,0.0,0.25,0.75,0.25,0.0,0.0,0.45,-0.42,0.58,34.74,10.9,15.2,13.0,5.25,9.25,7.75,0.0,0.0,5.75,0.0,0.25,0.0,0.25,0.0,0.25,-0.42,0.58,0.52,682.66,-28.1,72.2
1.9,1.0,0.0,0.75,0.25,0.0,0.0,0.0,0.0,0.0,0.0,0.5,0.0,0.75,1.08,0.58,-0.55,16.1,19.0,10.0,14.0,5.75,8.75,8.0,1.75,1.5,5.75,0.0,0.5,1.0,0.75,0.75,0.25,-0.42,0.83,0.64,681.02,-23.4,62.7
1.92,0.0,0.0,1.0,2.25,0.0,0.0,0.25,0.0,0.5,0.75,0.5,0.5,0.0,-0.23,1.52,-1.3,6.02,15.3,6.2,14.0,5.0,8.25,7.0,0.25,0.0,5.75,0.0,0.25,0.0,0.75,0.0,1.0,-0.3,0.58,0.89,653.31,-27.0,67.6
1.94,1.0,0.0,1.75,2.25,0.0,0.0,0.5,0.0,0.25,0.75,0.25,0.5,0.0,-0.3,1.27,-1.42,30.06,20.9,29.0,14.0,5.25,7.5,5.75,1.75,0.0,5.75,0.0,0.5,1.25,0.25,0.25,0.25,-0.23,0.77,0.27,640.73,-25.1,66.6
1.96,0.0,0.0,2.0,2.0,0.0,0.0,0.5,0.0,0.5,0.75,0.25,0.5,0.0,0.7,0.95,-0.8,54.37,19.4,16.4,13.0,5.75,7.0,5.5,0.25,0.5,5.75,0.0,0.5,1.25,0.75,0.75,0.25,-0.55,0.77,0.02,611.26,-24.9,62.5
1.98,1.0,0.0,1.75,2.0,0.0,0.0,0.0,0.0,0.25,0.75,0.0,0.75,0.0,0.58,0.83,-2.36,80.36,20.6,26.5,12.5,5.75,5.75,5.5,0.25,1.25,5.0,0.0,0.5,1.0,0.5,0.75,0.5,-0.48,0.77,0.27,572.58,-23.4,62.5
2.0,0.25,0.0,2.25,1.75,0.0,0.0,0.0,0.0,0.25,0.75,0.25,0.25,0.0,-1.17,2.83,-2.73,92.01,21.2,27.0,13.0,5.5,5.5,5.25,1.5,2.0,4.25,0.0,0.5,1.0,0.25,0.75,1.0,-0.67,0.89,0.64,555.25,-21.2,60.7
2.02,1.0,0.0,0.75,1.75,0.0,0.0,0.0,0.0,0.25,0.5,0.0,0.0,0.0,-0.3,-0.17,-0.23,86.06,20.7,46.0,11.5,5.0,5.5,3.5,2.25,1.5,3.75,0.0,0.5,0.75,0.25,0.75,0.75,0.7,1.02,-0.11,526.77,-21.4,61.5
2.04,0.75,0.25,1.0,0.75,0.0,0.0,0.0,0.0,0.25,0.0,0.25,0.5,0.0,0.95,-2.86,-0.86,77.64,24.1,31.9,13.0,5.25,5.5,3.5,1.75,1.75,2.75,0.0,0.5,0.75,0.75,0.75,1.0,0.58,1.14,-0.23,522.69,-21.4,60.5
2.06,1.0,0.25,1.0,1.25,0.0,0.0,0.0,0.0,0.25,0.5,0.5,0.0,0.0,-0.86,0.14,-0.61,72.84,20.6,36.0,12.0,5.0,4.0,3.25,1.75,1.75,2.0,0.0,0.5,1.5,0.75,0.75,1.0,0.14,1.14,-0.23,500.82,-19.4,56.4
2.08,0.0,0.0,0.75,0.75,0.0,0.0,0.0,0.0,0.0,0.0,0.5,0.0,0.0,0.08,-1.05,-0.42,56.86,23.6,27.4,10.5,4.5,3.25,3.25,1.75,2.0,1.25,0.0,0.5,1.0,0.75,0.75,1.0,-0.98,0.7,0.7,463.43,-18.4,56.0
2.1,0.0,0.0,0.5,0.25,0.0,0.0,0.0,0.0,0.0,0.25,0.0,0.0,0.0,-0.17,-0.42,-2.11,37.33,19.7,26.9,8.75,3.0,3.25,0.75,1.75,1.25,0.75,0.0,0.5,0.0,0.25,0.25,0.25,-1.05,2.58,0.7,379.48,-22.3,70.3
2.12,0.0,0.0,0.75,1.0,0.0,0.0,0.0,0.25,0.5,0.75,0.0,0.25,0.0,-0.61,-0.36,-1.23,36.86,11.1,-1.3,7.0,2.0,3.0,2.0,1.75,1.25,0.0,0.0,0.25,0.0,0.0,0.0,0.25,-0.36,3.7,1.27,303.94,-21.4,72.2
2.14,0.0,0.0,1.25,1.25,0.0,0.0,0.0,0.0,0.5,0.75,0.0,0.25,0.25,-0.42,0.08,-0.98,41.42,14.8,5.3,4.5,0.75,0.0,0.75,0.0,0.0,0.0,0.0,0.25,0.0,0.5,0.0,1.0,-0.36,1.02,1.2,207.35,-21.8,49.7
2.16,1.0,0.0,0.0,0.75,0.0,0.0,0.0,0.0,0.5,0.75,0.5,0.0,0.0,-0.17,0.58,-1.05,43.46,13.2,7.1,3.5,0.75,1.0,0.5,0.0,0.0,0.0,0.0,0.25,0.0,0.25,0.0,0.0,-0.05,-0.67,1.02,124.53,-29.2,75.9
2.18,1.0,0.0,0.25,1.25,0.0,0.0,0.25,0.0,0.5,1.0,0.25,0.25,0.25,-1.3,1.02,-2.17,54.7,12.4,3.6,2.0,0.25,0.0,0.5,0.0,0.0,0.0,0.0,0.0,0.0,0.25,0.0,0.0,-0.23,-1.05,0.95,33.53,-27.7,76.2
2.2,0.5,0.0,0.0,1.25,0.0,0.0,0.0,0.0,0.0,0.0,0.5,0.0,0.0,-0.86,1.33,0.33,50.85,19.5,37.6,2.75,0.5,0.0,0.25,0.0,0.0,0.0,0.0,0.0,0.0,0.25,0.0,0.0,0.52,-0.17,-0.42,0.0,-28.8,83.4
2.22,1.25,0.0,1.5,1.25,0.0,0.0,0.0,0.25,0.5,0.75,0.5,0.5,0.25,0.45,-0.98,-0.92,68.93,17.5,11.7,2.25,0.25,0.0,0.5,0.0,0.0,0.0,0.0,0.0,0.0,0.25,0.0,0.25,1.08,0.64,-0.8,0.0,-25.0,63.5
2.24,0.0,0.0,0.5,1.25,0.0,0.0,0.0,0.75,0.25,0.75,0.5,0.5,0.0,1.14,-1.11,-1.42,71.39,6.7,-17.3,2.0,0.5,0.0,0.0,0.0,0.0,0.0,0.0,0.0,0.0,0.25,0.0,0.25,0.45,1.39,-0.36,0.0,-24.6,64.9
2.26,0.0,0.0,0.25,1.0,0.0,0.0,0.0,0.0,0.5,0.75,0.25,0.5,0.0,1.27,-0.86,-0.61,71.79,8.8,-21.9,2.0,0.25,0.0,0.0,0.0,0.0,0.0,0.0,0.0,0.0,0.25,0.0,0.25,-0.61,1.95,-0.17,0.0,-25.7,61.6
2.28,0.0,0.0,0.5,1.0,0.0,0.0,0.0,0.0,0.5,0.75,0.5,0.5,0.0,1.95,0.27,-0.67,65.71,10.9,-19.7,3.25,1.25,0.0,0.75,0.0,1.0,0.0,0.0,0.0,0.0,0.25,0.0,0.0,-0.98,2.02,-0.48,0.0,-18.5,76.8
2.3,0.0,0.0,1.0,1.5,0.0,0.0,0.0,0.0,0.5,0.75,0.5,0.0,0.0,-0.61,0.64,-1.55,66.32,15.2,9.6,2.0,0.25,1.5,0.0,0.0,0.0,0.0,0.0,0.0,0.0,0.25,0.0,0.25,-1.05,1.33,-0.36,1.61,-30.4,61.4
2.32,1.25,0.0,1.0,1.0,0.0,0.0,0.0,0.0,0.5,0.75,0.75,0.0,0.25,-1.05,0.14,-1.11,74.71,17.6,14.4,3.0,1.25,0.5,0.0,0.0,0.0,0.0,0.0,0.0,0.0,0.25,0.0,0.25,-0.67,0.77,-0.11,33.13,-26.0,75.7
2.34,0.5,0.0,1.0,1.0,0.0,0.0,0.0,0.0,0.25,0.75,0.5,0.0,0.25,-0.92,0.39,-0.86,75.57,15.5,8.9,2.0,0.25,0.5,0.5,0.0,0.75,0.0,0.0,0.25,1.0,0.25,0.5,0.0,-0.61,0.7,-0.17,58.9,-12.8,23.2
2.36,0.0,0.0,1.0,1.25,0.0,0.0,0.0,0.0,0.5,1.25,0.75,0.0,0.5,-0.48,0.89,-0.92,79.25,9.2,-16.1,3.0,1.25,1.75,0.75,1.75,1.25,0.25,0.5,0.25,1.0,1.0,0.75,1.0,-0.55,0.7,-0.23,123.75,-10.2,23.2
2.38,0.0,0.5,0.75,1.0,0.0,0.0,0.0,0.0,0.5,0.75,1.0,0.0,0.0,-0.73,0.52,-0.67,76.84,12.9,2.2,2.75,1.25,1.75,0.75,1.75,1.5,0.0,0.5,0.5,1.0,1.5,0.5,1.0,-0.67,0.64,0.14,177.34,-9.2,20.1
2.4,0.0,0.0,1.0,1.0,0.0,0.0,0.25,0.0,0.5,0.75,0.0,0.0,0.25,-0.86,0.39,-0.73,71.74,14.0,6.1,2.25,1.25,1.75,0.75,1.5,1.25,0.0,0.25,0.5,1.5,1.0,0.25,1.0,-0.86,0.52,0.58,210.31,-8.6,19.8
2.42,0.0,0.0,0.75,1.0,0.0,0.0,0.25,0.0,0.5,0.75,0.0,0.0,0.0,-0.61,0.45,-0.98,62.11,14.3,11.1,2.5,1.25,2.0,0.75,1.5,1.0,0.25,0.5,0.5,1.0,0.75,0.75,1.0,-0.92,0.45,0.7,226.1,-10.8,21.1
2.44,1.0,0.25,1.0,0.75,0.0,0.0,0.0,0.0,0.5,0.75,0.5,0.0,0.25,-0.42,0.64,-0.92,66.27,16.9,16.9,2.25,1.25,1.75,0.75,1.5,1.0,0.25,0.5,0.5,1.0,1.0,0.75,1.0,-0.98,0.95,0.7,228.33,-9.8,17.3
2.46,1.25,0.25,1.0,1.0,0.0,0.0,0.0,0.0,0.5,0.75,0.5,0.0,0.0,-0.48,0.39,-0.98,70.67,19.3,28.8,2.25,1.25,1.75,0.75,1.5,0.75,0.25,0.5,0.5,1.5,0.75,0.75,1.0,-0.92,1.14,0.52,225.8,-9.5,15.3
2.48,1.25,0.0,1.5,0.5,0.0,0.0,0.0,0.0,0.5,0.75,0.0,0.25,0.5,-0.55,0.58,-1.05,80.41,18.7,15.1,2.0,1.25,1.75,0.75,1.5,1.25,0.25,0.5,0.25,1.0,1.0,0.25,1.0,-0.67,0.95,0.39,220.45,-8.8,22.2
2.5,0.5,0.25,1.25,0.75,0.0,0.0,0.0,0.0,0.25,0.75,0.5,0.0,0.5,-0.11,0.64,-0.92,82.55,14.9,7.4,2.0,1.0,1.75,0.75,1.75,1.0,0.25,0.25,0.25,1.0,1.0,0.75,1.0,-0.48,0.77,0.52,215.81,-9.5,17.2
2.52,0.0,0.25,1.0,1.0,0.0,0.0,0.0,0.0,0.5,0.75,0.5,0.0,0.5,0.2,0.52,-0.8,79.46,11.6,-4.3,2.0,1.25,1.75,0.5,1.75,1.25,0.25,0.25,0.25,1.0,0.75,0.75,1.0,-0.36,0.89,0.64,208.74,-8.8,20.1
2.54,0.5,0.0,0.5,0.75,0.0,0.0,0.0,0.0,0.5,0.75,0.5,0.25,0.5,0.14,0.33,-0.92,72.65,10.3,-17.2,2.0,1.0,1.75,0.75,1.75,0.75,0.25,0.5,0.0,1.5,0.75,0.75,1.0,-0.3,0.95,0.52,204.83,-8.5,15.0
2.56,1.0,0.0,1.0,1.0,0.0,0.0,0.0,0.0,0.5,0.75,0.0,0.5,0.5,0.14,0.52,-0.61,74.04,15.5,5.3,2.0,0.75,1.75,0.5,1.5,1.0,0.25,0.5,0.25,1.0,0.75,0.75,1.0,-0.36,0.83,0.45,195.07,-9.0,14.4
2.58,0.0,0.0,1.0,0.5,0.0,0.0,0.25,0.0,0.5,0.75,0.5,0.25,0.0,0.08,0.27,-0.55,68.93,14.7,-11.8,2.0,1.25,1.75,0.5,1.5,1.25,0.25,0.25,0.25,1.0,1.0,0.75,1.0,-0.42,0.7,0.27,189.4,-9.1,17.5
2.6,0.0,0.0,1.0,0.75,0.0,0.0,0.0,0.0,0.25,0.75,0.5,0.5,0.0,-0.05,0.02,-0.3,65.04,14.1,-12.9,2.0,1.0,1.75,0.5,1.5,1.25,0.25,0.25,0.25,1.0,1.25,0.75,1.0,-0.48,0.52,0.14,182.74,-9.1,14.1
2.62,0.0,0.0,1.0,0.5,0.0,0.0,0.0,0.0,0.5,0.75,0.25,0.5,0.25,-0.05,-0.11,-0.17,60.23,12.1,-22.0,2.0,0.75,1.75,0.5,1.5,0.75,0.25,0.5,0.5,1.0,0.75,0.75,1.0,-0.55,0.52,0.02,181.11,-9.7,12.9
2.64,0.0,0.0,1.0,0.5,0.0,0.0,0.0,0.0,0.25,0.75,0.5,0.5,0.5,-0.05,-0.11,-0.11,59.06,10.4,-29.8,2.0,1.0,1.75,0.75,1.75,1.25,0.25,0.5,0.25,1.0,0.75,0.75,1.0,-0.67,0.52,-0.05,184.86,-8.4,18.2
2.66,0.25,0.0,1.0,0.5,0.0,0.0,0.0,0.0,0.5,0.75,0.5,0.75,0.25,-0.11,0.02,-0.3,59.7,13.0,-23.5,2.0,1.0,1.75,0.5,1.5,1.25,0.25,0.25,0.25,1.0,1.0,0.5,1.0,-0.67,0.52,-0.11,183.91,-9.0,18.4
2.68,0.75,0.0,1.0,0.5,0.0,0.0,0.0,0.0,0.5,0.75,0.25,0.5,0.25,-0.61,2.39,-1.73,62.12,15.7,-3.3,2.0,1.0,2.0,0.5,1.0,1.25,0.25,0.5,0.5,1.0,1.5,0.75,1.0,-0.61,0.39,-0.23,187.34,-9.8,9.6
2.7,0.0,0.0,1.25,0.75,0.0,0.0,0.0,0.0,0.5,0.75,0.5,1.0,0.0,-0.73,-0.11,-1.42,66.48,14.8,-20.3,2.0,1.0,1.75,0.5,0.5,1.0,0.25,0.5,0.5,1.0,1.5,0.75,1.0,-0.98,0.39,-1.05,184.06,-10.4,6.0
2.72,1.25,0.0,1.0,0.5,0.0,0.0,0.25,0.0,0.25,0.75,0.5,1.0,0.0,-0.42,0.64,-1.42,73.23,18.5,-0.2,2.0,1.0,1.75,0.5,1.75,0.5,0.25,0.25,0.5,1.5,0.75,0.5,1.0,-1.73,1.58,-1.92,184.34,-9.6,15.2
2.74,1.25,0.0,1.0,0.5,0.0,0.0,0.0,0.25,0.25,0.75,0.25,0.75,0.0,-0.61,0.64,-0.98,77.39,17.2,6.3,2.0,0.75,1.75,0.5,1.25,1.25,0.25,0.25,0.25,1.0,0.75,0.75,1.0,-1.36,1.89,-1.42,179.63,-9.2,15.0
2.76,0.25,0.0,1.0,0.75,0.0,0.0,0.0,0.0,0.5,0.75,0.5,0.75,0.25,-0.61,0.33,-0.8,78.1,13.3,-19.0,2.0,0.75,1.75,0.5,1.5,1.25,0.25,0.25,0.25,1.0,0.75,0.75,1.0,-0.36,1.02,-0.42,178.68,-8.9,15.9
2.78,1.25,0.0,1.75,0.5,0.0,0.0,0.0,0.0,0.25,0.75,0.5,1.0,0.5,-0.36,0.27,-0.67,86.59,18.0,-2.1,2.0,1.0,1.75,0.5,1.5,0.75,0.25,0.5,0.25,1.0,1.0,0.75,1.0,0.08,0.2,-0.11,178.75,-9.7,14.0
2.8,1.5,0.0,1.0,0.5,0.0,0.0,0.0,0.25,0.25,0.75,0.0,1.0,0.5,-0.11,0.39,-0.73,89.91,15.1,-2.0,2.0,1.25,1.75,0.5,1.0,1.25,0.25,0.0,0.25,1.25,0.75,0.75,1.0,0.02,-0.23,0.02,179.03,-9.7,16.9
2.82,1.25,0.0,0.75,0.25,0.0,0.0,0.25,0.0,0.5,0.75,0.5,1.0,0.5,-0.05,0.58,-0.92,92.84,14.4,-17.6,2.0,1.0,1.75,0.5,1.5,0.75,0.25,0.0,0.5,1.25,0.75,0.75,1.0,-0.36,-0.11,0.14,178.6,-10.3,15.1
2.84,1.0,0.0,1.5,0.5,0.0,0.0,0.0,0.0,0.5,0.75,0.25,0.75,0.75,0.02,0.52,-1.05,93.96,15.6,-7.4,2.0,1.0,1.75,0.5,1.5,1.25,0.25,0.25,0.25,1.0,1.0,0.75,1.0,-0.42,0.14,0.02,180.81,-9.0,15.8
2.86,0.0,0.0,1.0,0.5,0.0,0.0,0.0,0.0,0.25,0.75,0.25,0.75,0.5,-0.11,0.45,-1.11,84.72,10.3,-32.0,2.0,1.0,1.75,0.5,1.5,1.0,0.25,0.0,0.25,1.0,0.75,0.75,1.0,-0.48,0.52,-0.3,179.93,-10.2,18.5
2.88,0.0,0.0,1.0,0.5,0.0,0.0,0.0,0.0,0.25,0.75,0.25,0.75,0.5,-0.23,0.45,-0.98,74.99,10.3,-32.0,2.0,1.0,1.75,0.5,1.25,0.75,0.25,0.5,0.5,1.0,0.75,0.75,1.0,-0.73,1.14,-0.98,178.96,-10.1,13.8
2.9,0.0,0.0,1.0,0.5,0.0,0.0,0.0,0.0,0.5,0.75,0.0,1.0,0.25,-0.36,0.39,-0.86,65.82,11.8,-29.6,2.0,0.75,1.75,0.5,1.5,1.0,0.25,0.25,0.75,1.0,0.75,0.75,1.0,-0.61,1.52,-0.98,179.79,-9.7,13.4
2.92,0.0,0.0,1.0,0.5,0.0,0.0,0.25,0.0,0.25,0.75,0.25,0.75,0.25,-0.36,0.45,-0.8,60.56,12.5,-25.0,2.0,1.0,1.75,0.5,1.25,0.75,0.25,0.25,0.5,1.5,1.25,0.5,1.0,-0.23,1.27,-0.86,181.38,-9.6,10.3
2.94,0.25,0.0,1.25,0.5,0.0,0.0,0.0,0.0,0.5,0.75,0.5,0.75,0.0,-0.36,0.45,-0.8,60.09,16.0,-13.8,2.0,1.0,1.75,0.5,1.25,0.5,0.25,0.25,0.5,1.5,0.75,0.75,1.0,-0.11,0.83,-0.55,181.31,-10.2,10.8
2.96,0.0,0.0,1.5,0.25,0.0,0.0,0.0,0.0,0.5,0.75,0.5,1.0,0.0,-0.3,0.52,-0.73,61.51,15.8,-24.7,2.0,0.75,1.75,0.75,1.25,0.5,0.25,0.25,0.5,1.0,1.0,0.75,1.0,-0.23,0.64,-0.3,179.43,-11.4,11.8
2.98,0.5,0.0,1.0,0.75,0.0,0.0,0.0,0.0,0.5,0.75,0.0,1.0,0.5,-0.23,0.64,-0.8,66.62,12.9,-17.3,2.0,1.0,1.75,0.5,1.25,0.75,0.25,0.25,0.5,1.0,1.25,0.5,1.0,-0.36,0.7,-0.3,178.68,-10.7,13.9
3.0,0.25,0.0,1.0,0.5,0.0,0.0,0.0,0.0,0.5,0.75,0.75,0.75,0.5,-0.23,0.64,-0.86,69.43,11.6,-30.4,2.0,0.75,1.75,0.75,1.25,0.5,0.25,0.25,0.5,1.0,1.25,0.75,1.0,-0.55,0.83,-0.36,177.46,-11.4,10.0
3.02,0.0,0.0,1.75,0.75,0.0,0.0,0.0,0.0,0.5,0.75,0.25,1.0,0.5,-0.23,0.64,-0.73,74.7,14.5,-18.6,2.0,1.0,1.25,0.5,1.0,0.5,0.25,0.25,0.5,0.75,1.0,0.75,1.0,-0.61,0.95,-0.48,171.41,-11.1,11.3
3.04,1.25,0.0,1.0,0.25,0.0,0.0,0.25,0.0,0.5,0.75,0.5,0.75,0.75,-0.3,0.58,-0.8,81.31,14.4,-14.3,2.0,0.75,1.75,0.5,1.5,0.5,0.25,0.25,0.75,1.0,0.75,0.75,1.0,-0.55,0.95,-0.48,171.31,-11.0,12.5
3.06,1.25,0.0,1.25,0.25,0.0,0.0,0.0,0.0,0.5,0.75,0.5,0.75,0.5,-0.3,0.58,-0.73,86.47,16.4,-7.5,2.0,1.0,1.5,0.5,1.5,0.5,0.25,0.25,0.5,1.5,0.75,0.75,1.0,-0.48,0.83,-0.42,172.07,-9.3,10.7
3.08,1.25,0.0,1.0,0.5,0.0,0.0,0.0,0.0,0.25,0.75,0.5,0.75,0.5,-0.36,0.52,-0.8,88.53,15.6,-6.1,2.0,1.25,1.75,0.5,1.75,0.5,0.25,0.25,0.5,1.0,1.25,0.75,1.0,-0.42,0.77,-0.42,178.69,-10.7,14.6
3.1,1.25,0.0,1.0,0.25,0.0,0.0,0.0,0.0,0.5,0.75,0.25,0.75,0.0,-0.3,0.58,-0.86,86.56,18.8,3.4,2.0,1.0,1.5,0.5,1.5,1.0,0.25,0.25,0.5,0.75,0.75,0.75,1.0,-0.42,0.77,-0.48,179.87,-9.6,17.2
3.12,1.25,0.0,1.0,0.5,0.0,0.0,0.0,0.0,0.25,0.75,0.5,0.75,0.75,-0.23,0.58,-0.86,86.92,14.3,-10.8,2.0,1.0,1.75,0.5,1.0,0.5,0.25,0.25,0.5,1.5,0.75,1.0,1.0,-0.42,0.83,-0.48,180.4,-10.5,7.2
3.14,1.25,0.0,1.0,0.5,0.0,0.0,0.0,0.0,0.5,0.75,0.0,1.0,0.75,-0.17,0.58,-0.92,87.29,14.2,-10.8,2.0,1.0,1.5,0.5,1.5,0.5,0.25,0.25,0.5,1.0,1.0,1.0,1.0,-0.42,0.89,-0.48,178.87,-10.4,10.1
3.16,1.25,0.0,1.0,0.25,0.0,0.0,0.0,0.0,0.25,0.75,0.5,0.75,0.25,-0.17,0.58,-0.92,85.29,17.0,-4.1,2.0,1.0,1.5,0.5,1.25,0.5,0.25,0.25,0.5,1.0,0.75,0.75,1.0,-0.36,0.89,-0.55,175.19,-10.7,13.5
3.18,1.25,0.0,1.0,0.75,0.0,0.0,0.0,0.0,0.25,0.75,0.25,0.75,0.5,-0.23,0.58,-0.86,85.08,15.9,0.0,2.0,1.0,1.5,0.5,1.75,0.75,0.25,0.25,0.5,1.0,0.75,0.75,1.0,-0.36,0.89,-0.55,176.32,-9.4,15.8
3.2,1.25,0.0,1.0,0.5,0.0,0.0,0.0,0.0,0.5,0.75,0.0,0.75,0.25,-0.23,0.58,-0.8,82.53,17.4,4.3,2.0,0.75,1.75,0.5,1.75,0.5,0.25,0.25,0.5,1.5,1.25,0.75,1.0,-0.36,0.89,-0.55,180.36,-9.6,7.7
3.22,1.25,0.0,1.0,0.5,0.0,0.0,0.25,0.0,0.25,0.75,0.5,0.75,0.0,-0.23,0.58,-0.8,80.84,18.9,5.1,2.0,1.0,1.75,0.5,0.5,0.75,0.25,0.25,0.5,1.0,1.0,0.75,1.0,-0.42,0.83,-0.55,177.41,-11.8,9.9
3.24,1.0,0.0,1.0,0.5,0.0,0.0,0.0,0.0,0.5,0.75,0.25,0.75,0.0,-0.17,0.58,-0.73,77.28,17.9,1.8,2.0,1.0,1.75,0.5,1.0,0.5,0.25,0.25,0.5,1.0,1.0,1.0,1.0,-0.36,0.83,-0.55,176.31,-11.6,9.1
3.26,1.25,0.0,1.0,0.5,0.0,0.0,0.0,0.0,0.5,0.75,0.5,0.75,0.0,-0.17,0.64,-0.73,77.64,18.3,2.5,2.0,1.0,1.5,0.75,1.0,0.5,0.25,0.0,0.5,1.0,0.75,0.75,1.0,-0.36,0.83,-0.55,171.42,-11.9,14.7
3.28,1.0,0.0,1.0,0.5,0.0,0.0,0.0,0.0,0.5,0.75,0.25,0.75,0.0,-0.11,0.64,-0.8,75.44,17.9,1.8,2.0,1.0,0.75,0.5,1.25,0.5,0.25,0.25,0.5,1.0,0.75,0.75,1.0,-0.36,0.77,-0.61,164.48,-8.7,10.0
3.3,1.0,0.0,1.0,0.75,0.0,0.0,0.0,0.0,0.5,0.75,0.75,0.75,0.25,-0.11,0.64,-0.8,79.57,15.8,-7.1,2.0,1.0,1.5,0.5,1.0,0.5,0.25,0.0,0.5,1.0,1.0,0.75,1.0,-0.36,0.7,-0.61,161.02,-11.7,11.6
3.32,1.0,0.0,1.0,0.5,0.0,0.0,0.0,0.0,0.25,0.75,0.5,1.0,0.25,-0.05,0.58,-0.8,80.18,15.8,-10.6,2.0,1.0,0.25,0.5,0.25,0.5,0.25,0.25,0.5,1.0,1.25,0.75,1.0,-0.36,0.64,-0.61,151.37,-8.7,-2.6
3.34,1.0,0.0,1.0,0.5,0.0,0.0,0.0,0.0,0.25,0.75,0.25,0.75,0.5,-0.05,0.58,-0.8,80.23,14.9,-7.7,2.0,0.75,1.75,0.5,1.25,0.5,0.25,0.0,0.5,1.0,1.0,0.5,1.0,-0.36,0.58,-0.61,153.51,-12.0,14.6
3.36,1.0,0.0,1.0,0.25,0.0,0.0,0.25,0.0,0.5,0.75,0.5,1.0,0.25,-0.05,0.58,-0.8,79.34,16.0,-14.4,2.0,1.0,0.75,0.5,1.0,0.5,0.25,0.25,0.5,1.0,1.5,0.75,1.0,-0.36,0.58,-0.61,153.44,-9.2,3.1
3.38,1.25,0.0,1.0,0.5,0.0,0.0,0.0,0.0,0.25,0.75,0.0,1.0,0.25,-0.05,0.58,-0.8,78.81,17.2,0.7,2.0,0.5,1.25,0.5,1.0,0.5,0.25,0.0,0.5,1.0,1.0,0.75,1.0,-0.42,0.58,-0.61,153.82,-11.0,6.0
3.4,1.0,0.0,1.0,0.75,0.0,0.0,0.0,0.0,0.25,0.75,0.75,1.0,0.25,-0.05,0.58,-0.8,81.88,15.7,-10.2,2.0,1.0,0.75,0.5,1.0,0.5,0.25,0.0,0.5,1.0,1.0,1.0,1.0,-0.42,0.64,-0.61,153.08,-9.7,5.1
3.42,1.0,0.0,1.0,0.5,0.0,0.0,0.0,0.0,0.5,0.75,0.5,1.0,0.0,-0.05,0.58,-0.8,81.74,17.1,-7.0,2.0,1.0,1.5,0.5,1.0,0.5,0.25,0.0,0.25,1.0,0.75,0.75,1.0,-0.42,0.7,-0.61,153.46,-11.7,14.8
3.44,1.25,0.0,1.0,0.5,0.0,0.0,0.0,0.0,0.25,0.75,0.75,1.0,0.25,-0.05,0.58,-0.8,85.04,16.4,-8.9,2.0,1.0,1.5,0.5,1.0,0.5,0.25,0.25,0.5,1.0,1.25,0.5,1.0,-0.36,0.7,-0.61,157.57,-11.1,11.3
3.46,1.0,0.0,1.0,0.25,0.0,0.0,0.0,0.0,0.5,0.75,0.5,1.0,0.25,-0.11,0.58,-0.8,83.39,15.6,-15.4,2.0,0.75,1.5,0.5,1.0,0.5,0.25,0.0,0.5,1.0,1.0,0.75,1.0,-0.36,0.77,-0.61,159.98,-11.7,9.5
3.48,1.0,0.0,1.0,0.25,0.0,0.0,0.0,0.0,0.5,0.75,0.25,1.0,0.0,-0.11,0.58,-0.8,80.32,17.4,-7.1,2.0,0.75,1.75,0.5,0.5,0.5,0.25,0.0,0.5,1.0,0.75,0.5,1.0,-0.36,0.77,-0.55,158.05,-13.4,13.4
3.5,1.25,0.0,1.0,0.25,0.0,0.0,0.0,0.0,0.5,0.75,0.25,1.0,0.0,-0.17,0.64,-0.8,77.45,18.3,-2.2,2.0,0.5,1.25,0.5,1.0,0.75,0.25,0.0,0.5,1.0,1.5,0.75,1.0,-0.36,0.83,-0.55,158.99,-10.3,3.0
3.52,1.0,0.0,1.0,0.5,0.0,0.0,0.0,0.0,0.5,0.75,0.5,1.0,0.5,-0.17,0.64,-0.8,79.64,14.3,-16.3,2.0,0.75,1.75,0.5,1.0,0.5,0.25,0.25,0.5,1.0,1.0,1.0,1.0,-0.36,0.83,-0.55,162.58,-11.6,7.0
3.54,1.0,0.0,1.0,0.5,0.0,0.0,0.0,0.0,0.5,0.75,0.25,0.75,0.5,-0.17,0.64,-0.86,79.92,14.8,-9.1,2.0,0.75,1.0,0.5,1.5,0.5,0.25,0.0,0.5,1.0,0.75,0.75,1.0,-0.3,0.83,-0.55,162.69,-9.6,11.4
3.56,1.5,0.0,1.0,0.75,0.0,0.0,0.0,0.0,0.25,0.75,0.5,0.75,0.5,-0.17,0.64,-0.86,85.5,16.4,0.7,2.0,1.0,1.25,0.75,0.25,0.5,0.0,0.0,0.5,1.0,1.0,0.5,1.0,-0.3,0.89,-0.55,159.14,-12.3,10.8
3.58,1.0,0.0,1.0,0.5,0.0,0.0,0.0,0.0,0.25,0.75,0.0,1.0,0.75,-0.17,0.64,-0.86,84.92,13.4,-14.4,2.0,0.5,1.25,0.5,1.5,0.5,0.25,0.25,0.5,1.0,0.75,0.75,1.0,-0.3,0.89,-0.48,157.88,-9.6,9.3
3.6,1.5,0.0,1.0,0.25,0.0,0.0,0.0,0.25,0.25,0.75,0.5,0.75,0.25,-0.17,0.64,-0.86,85.38,16.2,-1.3,2.0,1.0,1.5,0.5,1.25,0.5,0.25,0.0,0.5,1.0,0.75,0.75,1.0,-0.3,0.95,-0.55,159.84,-11.4,14.7
3.62,0.75,0.0,1.0,0.5,0.0,0.0,0.0,0.0,0.5,0.75,0.0,1.0,0.5,-0.17,0.58,-0.8,81.54,13.7,-15.9,2.0,1.0,0.0,0.5,1.0,0.5,0.25,0.0,0.5,1.0,1.25,0.25,1.0,-0.3,0.95,-0.55,153.77,-7.4,7.6
3.64,0.75,0.0,1.0,0.5,0.0,0.0,0.0,0.0,0.5,0.75,0.5,0.75,0.25,-0.11,0.58,-0.8,79.17,15.1,-12.1,2.0,0.75,0.5,0.5,0.0,1.25,0.25,0.0,0.5,1.0,0.75,0.75,1.0,-0.3,0.95,-0.55,146.13,-7.9,2.2
3.66,0.5,0.0,1.0,0.5,0.0,0.0,0.0,0.0,0.5,0.75,0.5,0.75,0.5,-0.05,0.64,-0.8,76.71,12.7,-22.3,2.0,1.0,1.25,0.5,1.25,0.5,0.25,0.25,0.5,1.0,1.0,0.5,1.0,-0.3,0.83,-0.55,148.85,-10.1,13.2
3.68,0.0,0.0,1.0,0.25,0.0,0.0,0.0,0.0,0.5,0.75,0.0,0.75,0.5,-0.05,0.64,-0.8,69.66,9.9,-35.8,1.75,1.0,1.0,0.5,1.25,0.5,0.25,0.0,0.5,0.75,0.5,0.75,1.0,-0.3,0.77,-0.55,147.73,-10.1,14.8
3.7,1.0,0.0,1.0,0.5,0.0,0.0,0.0,0.0,0.25,0.75,0.5,0.75,0.5,-0.05,0.64,-0.8,71.33,14.7,-10.8,2.0,1.0,1.5,0.5,0.5,0.5,0.25,0.0,0.5,1.0,1.25,0.75,1.0,-0.3,0.77,-0.55,152.77,-12.5,7.4
3.72,0.75,0.0,1.0,0.5,0.0,0.0,0.0,0.0,0.5,0.75,0.5,0.75,0.5,-0.05,0.64,-0.8,72.67,13.7,-16.9,2.0,0.75,0.75,0.5,1.25,0.5,0.25,0.25,0.5,1.0,1.25,0.75,1.0,-0.3,0.77,-0.55,155.69,-8.7,4.0
3.74,1.0,0.0,1.0,0.5,0.0,0.0,0.0,0.0,0.5,0.75,0.0,0.75,0.5,-0.05,0.64,-0.8,74.9,15.0,-5.9,1.75,0.75,0.75,0.5,1.25,0.5,0.25,0.0,0.5,1.0,1.0,0.75,1.0,-0.3,0.83,-0.55,154.64,-8.7,4.8
3.76,0.75,0.0,1.0,0.5,0.0,0.0,0.0,0.5,0.5,0.75,0.5,0.75,0.75,-0.05,0.58,-0.8,79.8,10.0,-22.7,1.75,1.0,1.5,0.5,0.5,0.5,0.25,0.0,0.5,0.5,1.25,1.0,1.0,-0.3,0.83,-0.55,152.76,-13.3,6.5
3.78,1.0,0.0,1.0,0.25,0.0,0.0,0.0,0.0,0.25,0.75,0.5,0.75,0.75,-0.05,0.58,-0.8,81.21,13.2,-19.1,2.0,1.25,1.5,0.5,0.5,0.5,0.25,0.0,0.5,1.0,0.75,0.75,1.0,-0.3,0.83,-0.55,154.36,-12.6,13.5
3.8,0.75,0.0,1.0,0.5,0.0,0.0,0.0,0.0,0.5,1.0,0.0,0.75,0.75,-0.05,0.64,-0.8,81.26,11.2,-18.9,2.0,0.75,1.0,0.5,1.25,0.5,0.25,0.0,0.5,1.0,1.25,0.75,1.0,-0.3,0.89,-0.55,156.94,-10.0,6.3
3.82,0.75,0.0,1.0,0.25,0.0,0.0,0.0,0.0,0.5,0.75,0.5,0.75,0.5,-0.05,0.64,-0.8,79.3,13.5,-20.9,2.0,0.75,0.5,0.5,1.0,0.25,0.25,0.0,0.5,1.0,1.0,0.5,1.0,-0.3,0.89,-0.55,151.28,-9.7,6.4
3.84,0.5,0.0,1.0,0.5,0.0,0.0,0.0,0.0,0.25,0.75,0.5,0.75,0.75,-0.05,0.64,-0.8,77.88,11.4,-26.0,2.0,0.75,1.0,0.5,1.0,0.5,0.25,0.0,0.5,1.0,1.25,1.0,1.0,-0.3,0.83,-0.55,153.68,-10.3,2.3
3.86,0.0,0.0,1.0,0.5,0.0,0.0,0.0,0.0,0.5,0.75,0.0,0.75,0.5,-0.05,0.64,-0.8,71.7,10.4,-29.8,2.0,1.0,0.75,0.5,1.0,0.5,0.25,0.0,0.5,1.0,1.5,0.75,1.0,-0.3,0.83,-0.55,155.51,-9.8,4.1
3.88,0.75,0.0,1.0,0.5,0.0,0.0,0.0,0.0,0.25,0.75,0.25,0.75,0.5,-0.05,0.64,-0.8,70.69,13.9,-12.8,1.75,1.0,0.75,0.5,1.25,0.5,0.25,0.0,0.5,1.0,1.0,0.75,1.0,-0.3,0.83,-0.55,155.77,-8.8,7.1
3.9,1.0,0.0,1.0,0.25,0.0,0.0,0.25,0.0,0.25,0.75,0.5,0.75,1.0,-0.05,0.64,-0.8,73.95,12.4,-22.3,2.0,0.75,0.75,0.5,1.0,0.5,0.25,0.0,0.5,1.0,1.25,0.75,1.0,-0.3,0.77,-0.55,153.75,-9.7,3.6
3.92,0.5,0.0,1.0,0.5,0.0,0.0,0.0,0.0,0.25,0.75,0.5,0.75,0.5,-0.05,0.64,-0.8,74.47,12.7,-21.4,1.75,0.75,1.75,0.5,0.5,0.5,0.25,0.0,0.5,1.5,1.0,0.75,1.0,-0.3,0.77,-0.55,155.99,-11.4,2.4
3.94,1.0,0.0,1.0,0.5,0.0,0.0,0.0,0.5,0.5,0.75,0.5,1.0,0.75,-0.05,0.58,-0.8,81.91,10.8,-21.7,1.75,0.75,1.0,0.5,1.25,0.5,0.25,0.0,0.5,1.0,1.0,0.75,1.0,-0.3,0.77,-0.55,154.7,-9.4,6.2
3.96,1.0,0.0,1.0,0.5,0.0,0.0,0.0,0.0,0.5,0.75,0.0,1.0,0.5,-0.05,0.58,-0.8,83.04,14.7,-10.8,2.0,0.75,0.5,0.5,1.25,0.5,0.25,0.0,0.5,1.0,1.0,0.5,1.0,-0.3,0.77,-0.55,152.21,-8.5,8.4
3.98,1.25,0.0,1.0,0.25,0.0,0.0,0.0,0.5,0.25,0.75,0.5,1.0,0.5,-0.05,0.64,-0.8,87.48,12.5,-16.0,2.0,1.0,1.25,0.5,1.0,0.5,0.25,0.0,0.5,1.0,1.5,0.75,1.0,-0.3,0.83,-0.55,156.88,-11.1,6.7
4.0,1.0,0.0,1.0,0.5,0.0,0.0,0.0,0.0,0.25,0.75,0.5,0.75,0.75,-0.05,0.58,-0.8,86.07,13.4,-15.4,2.0,0.75,0.75,0.5,1.25,0.25,0.25,0.0,0.5,1.0,1.0,0.75,1.0,-0.3,0.83,-0.55,155.01,-10.0,6.3
4.02,1.0,0.0,1.0,0.5,0.0,0.0,0.25,0.0,0.5,0.75,0.5,0.75,0.25,-0.05,0.58,-0.86,86.89,16.4,-6.4,2.0,0.75,1.25,0.5,1.0,0.5,0.25,0.0,0.5,1.0,1.0,0.75,1.0,-0.3,0.83,-0.55,156.36,-11.1,8.3
4.04,1.25,0.0,1.0,0.5,0.0,0.0,0.0,0.0,0.25,0.75,0.5,1.0,0.75,-0.05,0.58,-0.8,87.96,14.0,-14.9,2.0,1.0,1.25,0.5,1.25,0.5,0.25,0.0,0.5,1.0,0.75,0.5,1.0,-0.23,0.89,-0.48,157.19,-10.8,16.5
4.06,1.0,0.0,1.0,0.5,0.0,0.0,0.0,0.0,0.5,0.75,0.5,0.75,0.75,-0.05,0.58,-0.86,88.97,13.3,-16.4,1.75,0.75,0.5,0.75,0.5,0.5,0.25,0.0,0.5,1.0,0.75,0.75,1.0,-0.3,0.89,-0.48,150.74,-9.2,2.1
4.08,1.25,0.0,1.0,0.5,0.0,0.0,0.0,0.0,0.5,0.75,0.0,0.75,0.5,-0.05,0.58,-0.86,87.81,15.9,-1.3,2.0,1.25,1.0,0.5,1.0,0.25,0.25,0.0,0.5,1.0,0.75,0.75,1.0,-0.3,0.95,-0.55,149.29,-11.2,12.9
4.1,1.0,0.0,1.0,0.25,0.0,0.0,0.0,0.0,0.5,0.75,0.5,0.75,0.5,-0.05,0.58,-0.8,85.09,14.5,-15.6,1.75,1.0,1.75,0.5,0.25,0.5,0.25,0.0,0.5,1.0,1.0,0.75,1.0,-0.3,0.89,-0.55,148.57,-13.2,7.3
4.12,1.25,0.25,1.0,0.5,0.0,0.0,0.0,0.0,0.25,0.75,0.5,0.5,0.5,0.02,0.58,-0.8,83.93,15.7,3.4,2.0,0.75,1.25,0.5,1.25,0.5,0.25,0.0,0.5,1.0,0.75,0.5,1.0,-0.3,0.89,-0.55,151.87,-10.7,14.4
4.14,1.25,0.0,1.0,0.25,0.0,0.0,0.0,0.0,0.25,0.75,0.25,1.0,0.5,0.02,0.58,-0.8,81.52,15.4,-11.1,2.0,0.75,1.25,0.5,1.25,0.25,0.25,0.0,0.5,1.0,0.75,0.75,1.0,-0.3,0.89,-0.55,152.9,-11.4,10.9
4.16,0.75,0.25,1.0,0.5,0.0,0.0,0.0,0.0,0.25,0.75,0.5,1.0,0.25,0.02,0.58,-0.86,81.03,14.8,-10.1,1.75,1.0,1.0,0.5,0.25,0.5,0.0,0.0,0.5,1.0,1.0,0.5,1.0,-0.3,0.83,-0.55,148.2,-10.9,5.7
4.18,1.0,0.0,1.0,0.25,0.0,0.0,0.0,0.0,0.5,0.75,0.5,0.75,0.25,0.02,0.58,-0.86,77.97,15.9,-10.7,1.75,0.75,0.75,0.5,1.0,0.5,0.25,0.0,0.25,1.0,0.75,0.5,1.0,-0.3,0.83,-0.48,142.61,-8.9,9.7
4.2,1.5,0.0,1.0,0.25,0.0,0.0,0.0,0.0,0.25,0.75,0.25,0.75,0.25,0.08,0.58,-0.86,77.53,18.2,4.1,2.0,0.75,0.75,0.5,1.25,0.5,0.25,0.0,0.25,1.0,1.0,0.75,1.0,-0.23,0.89,-0.48,141.91,-9.2,8.0
4.22,0.0,0.0,1.0,0.5,0.0,0.0,0.0,0.0,0.25,0.75,0.5,0.75,0.25,0.08,0.58,-0.86,70.31,11.8,-29.6,2.0,1.0,1.5,0.5,1.0,0.5,0.25,0.0,0.25,1.0,1.0,0.75,1.0,-0.3,0.89,-0.48,147.41,-11.7,12.8
4.24,0.5,0.0,1.0,0.5,0.0,0.0,0.25,0.0,0.25,0.75,0.5,0.75,0.25,0.08,0.58,-0.92,68.49,14.7,-15.3,1.75,0.75,1.0,0.5,1.25,0.5,0.25,0.0,0.5,1.0,0.75,0.75,1.0,-0.3,0.95,-0.48,150.92,-9.4,8.2
4.26,0.5,0.0,1.0,0.25,0.0,0.0,0.0,0.0,0.5,0.75,0.0,0.75,0.0,0.14,0.58,-0.98,62.21,16.3,-9.0,1.75,0.75,1.25,0.5,0.5,0.25,0.25,0.0,0.25,1.0,0.75,0.75,1.0,-0.36,0.95,-0.42,147.36,-12.2,5.9
4.28,0.5,0.0,1.0,0.5,0.0,0.0,0.0,0.0,0.5,0.75,0.5,1.0,0.0,0.08,0.58,-0.92,63.38,15.4,-17.4,2.0,1.0,1.0,0.5,1.0,0.0,0.0,0.0,0.25,1.0,1.25,0.75,1.0,-0.36,0.95,-0.48,146.66,-11.7,6.9
4.3,0.0,0.0,1.0,0.5,0.0,0.0,0.0,0.0,0.5,0.75,0.5,1.0,0.5,0.08,0.58,-0.92,65.5,10.3,-38.6,2.0,1.0,0.5,0.5,0.5,0.25,0.25,0.0,0.25,1.0,1.5,0.75,1.0,-0.3,0.95,-0.48,143.11,-10.6,0.0
4.32,1.25,0.0,1.0,0.5,0.0,0.0,0.0,0.0,0.25,0.75,0.5,0.75,0.5,0.02,0.58,-0.92,73.02,15.6,-6.1,1.75,1.0,0.5,0.5,0.5,0.5,0.25,0.0,0.25,1.0,1.0,0.75,1.0,-0.3,0.95,-0.55,138.21,-9.0,2.3
4.34,1.0,0.0,1.0,0.25,0.0,0.0,0.0,0.0,0.25,0.75,0.5,0.0,0.0,-0.11,0.52,-0.92,69.76,19.7,17.9,1.75,1.0,1.25,0.5,0.0,0.5,0.25,0.0,0.25,1.0,1.5,0.75,1.0,-0.3,0.95,-0.55,138.19,-12.2,0.0
4.36,1.25,0.0,1.0,0.5,0.0,0.0,0.0,0.0,0.25,0.75,0.25,0.5,0.25,-0.11,0.52,-0.86,71.42,17.8,8.4,1.75,0.75,1.5,0.5,1.25,0.5,0.5,0.0,0.25,1.0,1.0,0.75,1.0,-0.36,0.89,-0.55,145.27,-11.0,10.1
4.38,0.75,0.0,1.0,0.25,0.0,0.0,0.0,0.0,0.25,0.75,0.5,0.5,0.25,-0.05,0.52,-0.86,68.15,15.5,-9.2,1.75,0.75,1.5,0.5,0.0,0.25,0.0,0.0,0.25,1.0,1.25,0.5,1.0,-0.36,0.89,-0.48,142.41,-13.8,2.8
4.4,0.75,0.0,1.0,0.5,0.0,0.0,0.0,0.0,0.5,0.75,0.5,0.5,0.25,0.08,0.58,-0.8,69.81,15.4,-7.0,2.0,0.75,0.75,0.5,0.5,0.5,0.25,0.0,0.25,1.0,1.25,0.75,1.0,-0.36,0.83,-0.48,142.69,-10.4,1.6
4.42,1.25,0.0,1.0,0.25,0.0,0.0,0.0,0.0,0.5,0.75,0.0,0.75,0.0,0.14,0.58,-0.8,69.81,19.2,7.7,1.75,0.75,0.5,0.5,0.25,0.25,0.25,0.0,0.5,1.0,1.25,0.75,1.0,-0.36,0.77,-0.48,135.46,-10.3,-6.5
4.44,1.0,0.25,1.0,0.25,0.0,0.0,0.0,0.0,0.25,0.75,0.5,1.0,0.25,0.14,0.64,-0.86,74.77,15.6,-8.6,2.0,1.0,1.5,0.5,1.25,0.5,0.25,0.0,0.25,1.0,1.0,0.5,1.0,-0.42,0.7,-0.42,142.71,-11.4,16.7
4.46,1.5,0.25,1.0,0.0,0.0,0.0,0.0,0.0,0.25,0.75,0.25,1.0,0.25,0.08,0.64,-0.92,78.31,17.5,0.6,2.0,0.75,0.75,0.5,1.5,0.5,0.25,0.0,0.25,1.0,1.25,0.75,1.0,-0.42,0.7,-0.42,147.86,-8.9,7.3
4.48,1.0,0.0,1.0,0.5,0.0,0.0,0.0,0.0,0.25,0.75,0.5,0.75,0.5,0.08,0.64,-0.92,80.54,14.7,-10.8,1.75,1.0,1.0,0.75,0.5,0.5,0.25,0.0,0.25,1.0,0.75,0.5,1.0,-0.36,0.7,-0.42,150.43,-10.9,12.3
4.5,1.0,0.0,1.0,0.75,0.0,0.0,0.0,0.0,0.25,0.75,0.5,0.5,0.0,0.14,0.64,-0.98,80.11,18.2,8.9,1.75,1.0,0.5,0.5,0.25,0.5,0.25,0.0,0.25,1.0,1.25,0.5,1.0,-0.3,0.7,-0.48,144.46,-9.5,1.6
4.52,0.5,0.0,1.0,0.5,0.0,0.0,0.0,0.0,0.25,0.75,0.5,0.25,0.5,0.14,0.64,-0.98,74.97,13.2,-11.2,1.75,0.75,1.0,0.5,0.0,0.5,0.25,0.0,0.5,1.0,1.5,0.75,1.0,-0.23,0.7,-0.48,139.77,-11.5,-5.4
4.54,1.25,0.0,1.0,0.5,0.0,0.0,0.25,0.0,0.25,0.75,0.5,0.75,0.0,0.2,0.58,-0.92,75.35,18.9,5.1,2.0,0.75,1.0,0.5,0.25,0.25,0.25,0.0,0.25,1.0,1.0,0.75,1.0,-0.17,0.7,-0.48,135.26,-12.6,2.9
4.56,0.75,0.0,1.0,0.25,0.0,0.0,0.0,0.0,0.25,0.75,0.25,1.0,0.25,0.14,0.58,-0.86,72.46,15.0,-16.8,1.5,0.75,1.25,0.5,1.0,0.5,0.25,0.0,0.25,1.0,1.5,0.5,1.0,-0.11,0.7,-0.55,138.92,-10.0,4.1
4.58,0.25,0.0,1.0,0.5,0.0,0.0,0.25,0.0,0.25,0.75,0.5,0.75,0.5,0.08,0.58,-0.8,72.57,12.1,-26.2,1.5,0.75,0.0,0.5,1.25,0.25,0.0,0.0,0.25,1.0,0.75,0.5,1.0,-0.05,0.77,-0.48,132.79,-5.4,2.7
4.6,0.0,0.0,1.0,0.25,0.0,0.0,0.0,0.0,0.5,0.75,0.5,1.0,0.5,0.08,0.45,-0.86,70.64,9.9,-44.1,1.75,0.75,0.5,0.5,1.0,0.5,0.25,0.0,0.25,1.0,0.75,0.5,1.0,-0.05,0.77,-0.55,132.09,-8.0,8.2
4.62,0.0,0.0,1.0,1.0,0.0,0.0,0.0,0.0,0.25,0.75,0.25,1.0,0.75,0.08,0.52,-0.8,72.71,9.7,-30.5,1.75,1.0,0.5,0.5,0.5,0.5,0.25,0.0,0.5,1.0,1.0,0.75,1.0,0.02,0.77,-0.55,131.78,-9.1,1.2
4.64,0.0,0.0,1.0,0.5,0.0,0.0,0.0,0.0,0.5,0.75,0.5,1.0,0.5,0.08,0.39,-0.67,72.61,10.3,-38.6,2.0,1.0,0.5,0.5,0.5,0.25,0.25,0.0,0.5,1.0,1.0,0.5,1.0,-0.05,0.77,-0.55,132.07,-10.6,6.0
4.66,0.25,0.0,1.0,0.5,0.0,0.0,0.0,0.0,0.25,0.75,0.5,0.75,0.25,0.2,0.33,-0.55,70.24,13.1,-22.6,1.75,1.0,1.25,0.5,1.0,0.75,0.0,0.0,0.5,1.0,1.25,0.75,1.0,-0.11,0.83,-0.55,141.78,-9.6,7.0
4.68,0.0,0.0,1.0,0.5,0.0,0.0,0.0,0.0,0.5,0.75,0.5,1.0,0.25,0.33,0.39,-0.48,68.76,11.7,-34.5,1.75,1.0,1.0,0.5,1.0,0.5,0.25,0.0,0.25,1.0,1.0,0.5,1.0,-0.11,0.83,-0.55,145.45,-9.8,11.3
4.7,1.0,0.0,1.0,1.0,0.0,0.0,0.0,0.0,0.25,0.75,0.5,0.75,0.5,0.39,0.45,-0.48,74.5,14.9,-4.5,1.75,0.75,0.5,0.5,0.5,0.5,0.25,0.0,0.5,1.0,1.25,0.75,1.0,-0.11,0.89,-0.55,146.31,-9.0,-3.5
4.72,1.0,0.0,1.0,0.5,0.0,0.0,0.25,0.0,0.25,0.75,0.5,0.75,0.5,0.39,0.52,-0.61,78.7,15.1,-9.9,1.75,0.5,1.0,0.5,0.5,0.25,0.25,0.0,0.5,1.0,1.0,0.75,1.0,-0.17,0.89,-0.48,142.27,-11.4,-1.8
4.74,1.25,0.0,1.0,0.5,0.0,0.0,0.0,0.0,0.5,0.75,0.5,0.75,0.25,0.39,0.7,-0.61,83.66,16.8,-2.7,1.5,1.0,0.5,0.5,0.0,0.5,0.25,0.0,0.5,1.0,1.25,0.75,1.0,-0.17,0.89,-0.48,136.33,-9.3,-7.1
4.76,1.0,0.0,1.0,0.5,0.0,0.0,0.0,0.0,0.25,0.75,0.5,0.75,0.5,0.39,0.77,-0.55,84.4,14.7,-10.8,1.5,1.0,0.5,0.5,1.0,0.5,0.25,0.0,0.25,1.0,1.25,0.5,1.0,-0.17,0.89,-0.55,134.55,-7.6,4.1
4.78,1.25,0.0,1.0,0.5,0.0,0.0,0.0,0.0,0.25,0.75,0.5,0.75,0.5,0.39,0.77,-0.55,85.11,15.6,-6.1,1.75,0.75,1.0,0.5,0.25,0.5,0.25,0.0,0.5,1.0,0.75,0.5,1.0,-0.11,0.89,-0.55,132.56,-11.1,5.5
4.8,1.0,0.0,1.0,0.5,0.0,0.0,0.0,0.0,0.5,0.75,0.25,0.75,0.5,0.27,0.77,-0.55,84.13,14.8,-9.1,2.0,1.0,0.5,0.5,1.0,0.5,0.25,0.0,0.5,1.0,1.25,0.75,1.0,-0.11,0.89,-0.48,139.76,-9.0,4.6
4.82,1.5,0.0,1.0,0.5,0.0,0.0,0.0,0.0,0.5,0.75,0.5,0.5,0.25,0.33,0.77,-0.48,85.31,17.9,6.4,1.75,0.75,0.75,0.5,0.25,0.5,0.25,0.0,0.25,1.0,1.0,0.75,1.0,-0.05,0.89,-0.48,138.03,-10.2,-0.5
4.84,1.25,0.0,1.0,0.5,0.0,0.0,0.0,0.0,0.5,0.75,0.5,0.5,0.5,0.39,0.77,-0.36,85.73,15.7,-2.9,1.75,1.0,0.5,0.5,0.0,0.5,0.0,0.0,0.5,1.0,1.0,0.75,1.0,-0.11,0.89,-0.55,134.34,-9.6,-2.7
4.86,1.25,0.0,1.0,0.25,0.0,0.0,0.0,0.0,0.5,0.75,0.0,0.5,0.5,0.33,0.83,-0.42,82.65,16.2,1.1,1.5,0.75,1.0,0.5,0.5,0.5,0.25,0.0,0.25,1.0,1.5,0.5,1.0,-0.11,0.95,-0.55,132.19,-10.0,-0.5
4.88,1.0,0.0,1.0,0.0,0.0,0.0,0.0,0.0,0.25,0.75,0.5,0.5,0.5,0.27,0.83,-0.48,77.51,14.7,-13.3,1.5,1.0,1.25,0.5,1.25,0.0,0.0,0.0,0.5,1.0,1.0,0.75,1.0,-0.11,0.95,-0.55,137.06,-10.9,6.3
4.9,1.25,0.0,1.0,0.5,0.0,0.0,0.0,0.0,0.5,0.75,0.5,0.75,0.5,0.27,0.83,-0.48,79.19,15.4,-7.5,1.75,1.0,0.25,0.5,0.25,0.5,0.0,0.0,0.5,1.0,1.0,0.75,1.0,-0.11,0.95,-0.55,133.99,-8.3,-2.7
4.92,0.0,0.0,1.0,0.5,0.0,0.0,0.0,0.0,0.25,0.75,0.0,0.5,0.5,0.27,0.83,-0.36,69.54,10.3,-23.6,1.5,1.0,1.25,0.5,0.0,0.5,0.25,0.0,0.5,1.0,1.25,0.5,1.5,-0.11,0.95,-0.55,138.65,-10.4,-4.4
4.94,0.25,0.0,1.0,1.25,0.0,0.0,0.25,0.0,0.25,0.75,0.25,0.5,0.5,0.33,0.77,-0.3,69.73,13.1,-6.2,1.75,1.0,1.0,0.5,0.0,0.25,0.25,0.0,0.5,1.0,1.0,0.75,1.0,-0.11,1.02,-0.55,137.08,-12.5,0.4
4.96,0.75,0.0,1.0,0.5,0.0,0.0,0.0,0.0,0.25,0.75,0.25,0.5,0.25,0.27,0.77,-0.36,66.34,15.9,-1.3,1.5,0.75,0.75,0.5,0.25,0.25,0.0,0.0,0.5,1.0,0.75,0.75,1.0,-0.17,1.02,-0.55,131.7,-10.2,-3.7
4.98,1.0,0.0,1.0,0.75,0.0,0.0,0.0,0.0,0.25,0.75,0.25,1.0,0.25,0.39,1.02,-0.48,71.23,16.1,-4.2,1.5,0.75,0.5,0.5,1.25,0.5,0.0,0.0,0.5,1.0,1.5,0.75,1.25,-0.23,1.02,-0.48,135.43,-6.6,-5.7
5.0,1.5,0.0,1.0,0.5,0.0,0.0,0.0,0.0,0.25,0.75,0.0,1.0,0.25,0.77,1.45,-0.8,74.11,18.0,5.1,1.75,0.75,1.0,0.5,0.0,0.5,0.0,0.0,0.5,1.0,1.25,0.5,1.0,-0.3,1.02,-0.55,133.83,-11.3,-0.9
5.02,0.75,0.25,1.0,0.25,0.0,0.0,0.0,0.0,0.25,1.0,0.0,1.0,0.25,0.77,1.45,-0.8,75.77,13.5,-10.6,1.75,1.0,1.25,0.5,0.5,0.0,0.25,0.0,0.5,1.0,0.75,0.75,1.0,-0.3,0.95,-0.48,136.96,-13.2,6.6
5.04,0.5,0.0,1.0,0.5,0.0,0.0,0.25,0.0,0.25,0.75,0.0,0.75,0.0,0.58,1.08,-0.55,70.85,17.1,-1.5,1.25,1.0,0.75,0.5,0.5,0.25,0.25,0.0,0.5,1.0,1.5,0.75,1.25,-0.3,0.89,-0.42,136.81,-8.9,-9.7
5.06,0.75,0.0,1.0,1.0,0.0,0.0,0.0,0.0,0.25,0.75,0.0,0.5,0.0,0.33,0.77,-0.36,68.19,18.1,16.6,1.25,1.0,0.5,0.5,0.0,0.0,0.25,0.0,0.5,1.0,0.75,0.75,1.0,-0.3,0.89,-0.42,130.11,-10.4,-8.5
5.08,0.25,0.0,1.0,0.5,0.0,0.0,0.25,0.0,0.25,0.75,0.0,0.5,0.0,0.2,0.58,-0.36,61.51,16.5,-0.4,1.5,1.0,0.5,0.5,1.0,0.25,0.25,0.0,0.5,1.0,0.75,0.75,1.0,-0.36,0.83,-0.42,129.02,-8.4,3.3
5.1,1.0,0.0,1.0,0.5,0.0,0.0,0.25,0.0,0.5,0.75,0.0,0.75,0.0,0.27,0.64,-0.42,63.84,18.6,6.5,1.75,1.0,1.0,0.5,0.0,0.5,0.25,0.0,0.5,1.0,1.25,0.75,1.0,-0.3,0.77,-0.48,129.91,-11.5,-0.6
5.12,0.0,0.0,1.0,0.5,0.0,0.0,0.0,0.0,0.25,0.75,0.0,0.5,0.0,0.45,0.7,-0.48,57.23,14.4,-9.0,1.25,1.25,1.0,0.5,0.25,0.0,0.0,0.0,0.5,1.0,0.75,0.75,1.0,-0.3,0.77,-0.48,129.8,-11.4,0.7
5.14,1.0,0.0,1.0,0.25,0.0,0.0,0.25,0.0,0.25,0.75,0.0,0.5,0.0,0.58,0.83,-0.55,57.67,19.8,13.5,1.75,0.75,1.5,0.5,0.5,0.5,0.25,0.0,0.5,1.0,1.25,0.5,1.0,-0.23,0.77,-0.42,136.89,-12.1,5.8
5.16,1.5,0.0,1.0,0.5,0.0,0.0,0.25,0.0,0.25,0.75,0.0,0.5,0.0,0.52,0.83,-0.55,61.72,21.2,24.6,1.5,1.0,0.75,0.5,0.0,0.25,0.25,0.0,0.5,1.0,1.0,0.75,1.0,-0.23,0.77,-0.48,134.02,-11.1,-4.1
5.18,1.5,0.0,1.0,0.25,0.0,0.0,0.25,0.0,0.25,0.75,0.0,0.5,0.0,0.52,0.7,-0.55,64.9,21.4,22.6,1.75,0.75,1.25,0.5,0.25,0.0,0.25,0.0,0.5,1.0,0.75,0.75,1.0,-0.17,0.77,-0.48,133.81,-13.7,2.2
5.2,0.0,0.0,1.0,0.5,0.0,0.0,0.25,0.0,0.25,0.75,0.0,0.5,0.0,0.45,0.7,-0.48,60.71,15.1,-7.6,1.5,0.75,1.0,0.5,0.5,0.5,0.25,0.0,0.5,1.0,1.5,0.75,1.0,-0.17,0.77,-0.48,135.06,-10.0,-4.3
5.22,0.5,0.0,1.0,0.5,0.0,0.0,0.0,0.0,0.25,0.75,0.0,0.5,0.0,0.39,0.7,-0.55,57.57,17.1,5.1,1.25,0.75,0.5,0.5,0.0,0.25,0.0,0.0,0.5,1.0,1.0,0.75,1.0,-0.23,0.77,-0.48,127.34,-9.0,-13.7
5.24,1.0,0.0,1.0,0.0,0.0,0.0,0.25,0.0,0.25,0.75,0.0,0.5,0.0,0.39,0.77,-0.55,55.24,20.0,10.2,1.75,1.0,0.5,0.5,0.5,0.25,0.25,0.0,0.5,1.0,1.0,0.75,1.0,-0.3,0.77,-0.48,128.7,-10.0,0.3
5.26,0.75,0.0,1.0,0.5,0.0,0.0,0.25,0.0,0.25,0.75,0.0,0.5,0.0,0.39,0.77,-0.55,56.74,18.7,11.4,1.25,1.0,1.25,0.5,0.25,0.5,0.0,0.0,0.5,1.0,1.5,0.75,1.0,-0.36,0.83,-0.48,131.17,-10.4,-4.4
5.28,0.5,0.0,1.0,0.75,0.0,0.0,0.25,0.0,0.25,0.75,0.0,0.75,0.0,0.39,0.77,-0.55,60.13,17.1,2.2,1.75,0.75,0.5,0.5,1.25,0.0,0.25,0.0,0.5,1.0,1.25,0.75,1.5,-0.36,0.83,-0.48,139.38,-8.3,-5.8
5.3,0.75,0.0,1.0,0.5,0.0,0.0,0.25,0.0,0.25,0.75,0.0,0.0,0.0,0.39,0.77,-0.55,59.95,20.1,29.3,1.75,1.0,0.5,0.5,0.0,0.0,0.0,0.0,0.5,1.0,1.25,0.75,1.0,-0.36,0.83,-0.48,136.23,-11.5,-6.9
5.32,0.75,0.0,1.0,0.25,0.0,0.0,0.25,0.0,0.25,0.75,0.0,0.0,0.0,0.39,0.77,-0.55,57.39,20.4,26.8,1.25,0.75,0.5,0.5,1.0,0.0,0.25,0.0,0.5,1.0,1.0,0.75,1.0,-0.36,0.89,-0.48,133.14,-8.5,-5.2
5.34,1.25,0.0,1.0,0.25,0.0,0.0,0.25,0.0,0.25,1.0,0.0,0.0,0.0,0.33,0.77,-0.55,57.27,19.8,28.8,1.5,0.75,1.0,0.5,1.0,0.0,0.25,0.0,0.5,1.0,1.25,0.75,1.0,-0.36,0.89,-0.48,133.87,-10.8,-0.9
5.36,1.0,0.0,1.0,0.5,0.0,0.0,0.25,0.0,0.25,0.75,0.0,0.0,0.0,0.33,0.77,-0.61,58.31,21.1,33.7,1.5,1.0,1.0,0.5,0.25,0.5,0.25,0.0,0.5,1.0,1.5,0.75,1.0,-0.36,0.89,-0.48,137.18,-10.5,-3.3
5.38,0.25,0.0,1.0,0.5,0.0,0.0,0.0,0.0,0.25,0.75,0.0,0.25,0.0,0.33,0.77,-0.61,54.65,16.5,7.4,1.75,1.0,1.25,0.75,0.5,0.25,0.25,0.0,0.5,1.0,1.0,0.75,1.25,-0.3,0.89,-0.48,143.73,-11.7,3.6
5.4,0.25,0.0,1.0,0.5,0.0,0.0,0.25,0.0,0.25,0.75,0.0,0.0,0.0,0.39,0.77,-0.55,51.1,17.8,18.2,1.5,1.0,0.75,0.5,0.0,0.0,0.0,0.0,0.5,0.75,1.25,0.75,1.0,-0.3,0.89,-0.48,139.49,-12.6,-5.7
5.42,0.25,0.0,1.0,0.5,0.0,0.0,0.25,0.0,0.25,0.75,0.0,0.25,0.5,0.39,0.7,-0.55,52.0,12.7,-8.3,2.0,0.75,0.75,0.5,1.25,0.25,0.0,0.0,0.5,1.0,1.0,0.5,1.0,-0.3,0.89,-0.48,141.57,-9.8,9.0
5.44,0.0,0.0,1.0,0.25,0.0,0.0,0.25,0.0,0.25,0.75,0.0,0.0,0.25,0.45,0.7,-0.55,48.23,13.3,-4.9,1.5,1.0,1.0,0.5,0.25,0.0,0.25,0.0,0.5,1.0,1.25,0.5,1.0,-0.3,0.89,-0.48,135.9,-12.4,-0.2
5.46,0.25,0.0,1.0,0.75,0.0,0.0,0.25,0.0,0.25,0.75,0.0,0.0,0.0,0.45,0.7,-0.55,48.09,17.7,21.5,1.75,0.75,0.5,0.5,0.25,0.0,0.25,0.0,0.5,1.0,1.25,0.75,0.75,-0.23,0.89,-0.48,132.3,-12.1,-4.4
5.48,0.0,0.0,1.0,0.25,0.0,0.0,0.25,0.0,0.25,0.75,0.0,0.0,0.0,0.45,0.7,-0.55,43.46,16.2,6.2,1.0,0.75,0.5,0.5,0.25,0.0,0.25,0.0,0.5,1.0,1.0,0.75,1.0,-0.23,0.89,-0.48,120.99,-9.1,-15.4
5.5,0.75,0.0,1.0,0.25,0.0,0.0,0.25,0.0,0.25,0.75,0.0,0.0,0.0,0.39,0.7,-0.55,44.87,20.4,26.8,1.75,1.0,0.5,0.5,0.0,0.5,0.25,0.0,0.5,1.0,1.25,0.5,0.75,-0.3,0.89,-0.48,119.48,-10.7,2.1
5.52,0.25,0.0,1.0,0.5,0.0,0.0,0.25,0.0,0.25,0.75,0.0,0.25,0.0,0.39,0.7,-0.55,45.26,17.1,8.1,1.5,0.75,1.25,0.5,1.5,0.0,0.0,0.0,0.5,1.0,2.0,0.75,1.25,-0.3,0.89,-0.48,132.53,-9.9,-4.3
5.54,0.5,0.0,1.0,0.5,0.0,0.0,0.0,0.0,0.25,0.75,0.0,0.5,0.0,0.39,0.77,-0.55,50.1,17.1,5.1,1.5,1.0,1.25,0.5,0.0,0.0,0.25,0.0,0.5,1.0,1.0,0.5,1.0,-0.3,0.89,-0.48,134.65,-13.8,1.9
5.56,0.0,0.0,1.0,0.75,0.0,0.0,0.25,0.0,0.25,0.75,0.0,0.0,0.0,0.39,0.77,-0.55,49.79,16.3,15.4,1.75,1.0,0.75,0.5,0.0,0.0,0.25,0.0,0.5,1.0,0.75,0.75,1.0,-0.36,0.89,-0.48,133.32,-12.7,-0.2
5.58,0.25,0.0,1.0,0.5,0.0,0.0,0.25,0.0,0.25,1.0,0.0,0.25,0.0,0.33,0.77,-0.55,51.48,14.6,2.0,1.5,0.75,1.0,0.5,0.25,0.0,0.25,0.0,0.5,1.0,0.75,0.75,0.75,-0.36,0.89,-0.42,125.82,-13.2,1.1
5.6,0.25,0.0,1.0,0.5,0.0,0.0,0.25,0.0,0.25,0.75,0.0,0.5,0.0,0.33,0.77,-0.55,52.51,16.5,-0.4,1.5,1.0,1.25,0.5,1.0,0.25,0.0,0.0,0.5,1.0,0.75,0.5,1.0,-0.36,0.89,-0.48,129.35,-10.6,10.7
5.62,0.0,0.0,1.0,1.5,0.0,0.0,0.25,0.0,0.0,0.75,0.0,0.0,0.0,0.39,0.77,-0.55,55.37,16.8,28.9,1.75,1.0,1.25,0.5,0.0,0.0,0.25,0.0,0.5,1.0,1.25,0.75,1.0,-0.36,0.89,-0.48,130.89,-14.1,-0.7
5.64,1.75,0.0,1.0,0.25,0.0,0.0,0.25,0.0,0.25,1.0,0.0,0.25,0.0,0.39,0.77,-0.55,62.92,20.8,28.3,1.25,0.75,1.0,0.5,0.25,0.0,0.25,0.0,0.5,1.0,0.75,0.75,0.75,-0.36,0.89,-0.42,129.66,-12.5,-1.7
5.66,1.25,0.0,1.0,1.25,0.0,0.0,0.25,0.0,0.0,1.25,0.0,0.5,0.0,0.39,0.77,-0.55,74.04,17.0,19.9,1.5,1.0,1.75,0.5,0.5,0.0,0.25,0.0,0.5,1.0,0.75,0.75,1.0,-0.36,0.89,-0.42,133.43,-14.0,7.3
5.68,0.25,0.0,1.0,0.5,0.0,0.0,0.25,0.0,0.25,1.0,0.0,0.75,0.0,0.39,0.77,-0.55,74.94,13.9,-12.2,1.5,1.0,1.0,0.5,0.0,0.25,0.25,0.0,0.5,1.0,0.75,0.5,1.0,-0.3,0.89,-0.48,130.53,-12.0,3.2
5.7,0.0,0.0,1.0,0.75,0.0,0.0,0.25,0.0,0.5,0.75,0.0,0.5,0.0,0.39,0.77,-0.55,71.45,15.0,-5.0,1.0,0.75,1.0,0.5,1.0,0.5,0.25,0.0,0.5,1.0,0.75,0.5,1.0,-0.3,0.89,-0.48,131.93,-7.8,2.8
5.72,1.25,0.0,1.0,0.5,0.0,0.0,0.25,0.0,0.25,0.75,0.0,0.75,0.0,0.39,0.77,-0.55,71.51,19.8,13.6,1.25,0.75,1.0,0.5,0.25,0.0,0.25,0.0,0.5,1.0,1.5,0.75,1.5,-0.23,0.83,-0.48,131.53,-10.2,-16.7
