time,left pressure 0[N/cm²],left pressure 1[N/cm²],left pressure 2[N/cm²],left pressure 3[N/cm²],left pressure 4[N/cm²],left pressure 5[N/cm²],left pressure 6[N/cm²],left pressure 7[N/cm²],left pressure 8[N/cm²],left pressure 9[N/cm²],left pressure 10[N/cm²],left pressure 11[N/cm²],left pressure 12[N/cm²],left acceleration X[g],left acceleration Y[g],left acceleration Z[g],left total force[N],left center of pressure X[mm],left center of pressure Y[mm],right pressure 0[N/cm²],right pressure 1[N/cm²],right pressure 2[N/cm²],right pressure 3[N/cm²],right pressure 4[N/cm²],right pressure 5[N/cm²],right pressure 6[N/cm²],right pressure 7[N/cm²],right pressure 8[N/cm²],right pressure 9[N/cm²],right pressure 10[N/cm²],right pressure 11[N/cm²],right pressure 12[N/cm²],right acceleration X[g],right acceleration Y[g],right acceleration Z[g],right total force[N],right center of pressure X[mm],right center of pressure Y[mm]
0.02,0.0,0.0,0.0,1.25,0.0,0.0,0.25,1.75,0.0,0.0,1.5,0.0,0.0,-0.61,-0.67,1.89,0.0,2.7,-21.2,1.5,1.0,3.0,2.75,4.5,5.75,3.5,5.0,1.0,3.5,4.25,1.5,2.0,0.08,0.08,0.95,558.05,-1.1,-2.4
0.04,0.0,0.0,0.0,1.75,0.0,0.0,0.0,0.0,0.0,2.0,0.0,0.0,0.0,-0.3,-2.3,1.83,0.0,0.0,-11.7,2.25,1.25,3.25,3.0,5.25,6.0,4.0,5.0,1.0,1.5,3.25,0.75,1.25,0.08,0.08,0.95,535.18,-3.0,13.3
0.06,0.25,0.0,0.75,0.5,0.0,0.0,0.0,1.5,0.0,1.75,0.75,0.0,0.0,-0.3,-0.67,1.45,0.0,0.3,-26.3,1.25,1.75,4.0,3.25,5.5,6.0,4.5,4.0,1.0,1.5,2.0,0.75,1.25,0.08,0.08,0.95,519.05,-3.7,18.7
0.08,1.0,0.0,0.0,1.75,0.0,0.0,0.0,1.75,0.25,1.5,0.75,0.0,0.0,-0.36,-0.55,0.39,1.54,3.1,-6.8,2.0,1.5,5.5,5.5,6.25,6.0,5.0,3.75,0.75,1.5,2.0,0.75,1.25,0.08,0.14,0.95,536.47,-6.4,25.0
0.1,0.0,0.0,0.0,0.0,0.0,0.0,0.0,3.0,0.0,0.0,0.0,0.0,0.0,-0.42,-0.3,0.52,6.6,-16.7,-38.8,2.0,1.5,5.5,5.5,7.0,6.0,5.5,3.5,0.0,1.25,1.0,0.75,0.75,0.02,0.08,1.02,547.01,-6.7,32.3
0.12,0.0,0.0,0.0,0.0,0.0,0.0,0.0,0.0,0.0,0.0,0.0,0.0,0.0,-0.3,-0.3,0.7,0.0,0.0,0.0,2.75,2.0,5.5,5.5,7.25,6.0,5.75,4.0,0.0,0.0,1.0,0.25,1.25,0.08,0.14,1.02,559.17,-7.4,36.9
0.14,0.0,0.0,0.0,0.0,0.0,0.0,0.0,0.0,0.0,0.0,0.0,0.0,0.0,-0.11,-0.23,1.14,0.0,0.0,0.0,3.25,1.75,7.0,7.25,7.25,6.0,6.0,3.25,0.0,0.0,0.75,0.25,0.25,0.02,0.14,0.95,587.06,-10.3,44.8
0.16,0.0,0.0,0.0,0.0,0.0,0.0,0.0,0.0,0.0,0.0,0.0,0.0,0.0,-0.17,-0.05,1.2,0.0,0.0,0.0,4.0,2.0,7.25,7.25,7.5,6.0,5.5,2.5,0.0,0.0,0.75,0.25,0.25,0.02,0.2,0.95,620.91,-11.1,47.8
0.18,0.0,0.0,0.0,0.0,0.0,0.0,0.0,0.0,0.0,0.0,0.0,0.0,0.0,-0.17,0.08,1.27,0.0,0.0,0.0,3.0,2.0,8.0,7.5,8.0,6.0,6.0,2.5,0.0,0.0,0.5,0.25,0.5,0.02,0.2,0.95,652.52,-10.9,46.7
0.2,0.0,0.0,0.0,0.0,0.0,0.0,0.0,0.0,0.0,0.0,0.0,0.0,0.0,-0.23,0.2,1.7,0.0,0.0,0.0,4.5,2.25,8.5,8.75,8.5,6.0,6.5,2.25,0.0,0.25,0.75,0.25,0.5,0.02,0.2,0.95,706.9,-12.0,48.1
0.22,0.5,0.0,0.0,1.25,0.0,0.0,0.0,0.0,0.25,1.25,0.0,0.0,0.0,-0.17,0.33,1.83,4.35,6.7,5.3,5.25,2.75,8.75,11.0,8.5,6.0,7.25,2.25,0.25,1.5,0.5,0.75,0.5,0.02,0.2,0.95,789.53,-12.2,45.4
0.24,0.25,0.0,0.0,1.0,0.0,0.0,0.25,0.0,0.5,1.25,0.0,0.0,0.0,-0.23,0.52,2.52,14.56,5.2,-8.4,6.0,2.0,10.0,11.0,9.0,4.5,7.75,2.25,0.0,0.0,2.0,0.25,1.25,0.02,0.27,0.95,868.38,-14.3,45.7
0.26,1.0,0.0,0.0,1.5,0.0,0.0,0.0,0.0,0.5,0.0,0.5,0.0,0.25,-0.3,0.95,3.14,38.89,18.0,26.3,6.75,1.5,10.5,11.0,8.5,4.0,8.0,1.0,0.25,0.0,0.25,0.25,0.0,0.02,0.27,1.02,896.52,-17.1,55.9
0.28,0.0,0.0,0.0,1.25,0.0,0.0,0.0,0.0,0.25,0.5,0.0,0.0,0.25,-0.23,1.7,2.27,42.3,6.1,0.1,7.75,3.25,11.0,12.5,8.0,3.5,8.0,0.75,0.5,1.25,0.75,0.75,1.0,0.02,0.27,1.14,951.4,-16.7,49.8
0.3,0.0,0.0,0.0,1.25,0.0,0.0,0.0,0.0,0.25,0.5,0.25,0.0,0.0,0.89,2.39,-0.55,42.56,8.8,4.4,7.75,2.25,11.5,11.0,7.25,1.25,8.0,0.75,0.25,0.0,0.5,0.25,0.5,0.02,0.33,1.2,925.06,-20.4,56.8
0.32,0.0,0.0,0.0,1.0,0.0,0.0,0.0,0.0,0.0,0.5,0.25,0.0,0.5,0.95,4.08,0.83,39.63,2.4,-22.5,8.0,2.5,11.5,11.0,7.0,0.0,8.25,0.75,0.25,0.0,0.5,0.25,0.25,0.02,0.39,1.27,889.77,-21.9,58.7
0.34,0.0,0.0,0.0,1.25,0.0,0.0,0.0,0.0,0.25,1.5,0.5,0.0,0.25,1.14,5.02,-0.17,50.15,0.9,-29.4,8.5,2.0,10.5,8.5,5.25,0.0,8.0,0.75,0.5,0.0,0.5,0.75,1.0,0.08,0.52,1.45,812.74,-22.4,53.4
0.36,0.0,0.0,0.0,1.0,0.0,0.0,0.0,0.0,0.5,3.25,0.5,0.0,3.25,-0.11,-0.8,2.08,87.27,-7.8,-70.5,9.0,2.25,8.75,5.5,2.25,0.25,7.5,0.75,0.25,0.0,0.5,0.25,0.5,0.27,0.83,2.64,692.38,-25.1,59.1
0.38,0.0,0.0,0.0,2.0,0.0,0.0,0.0,0.0,0.25,4.25,2.0,4.25,2.5,0.02,0.52,1.7,153.6,-0.2,-71.9,7.25,0.75,7.0,4.5,1.5,0.0,6.25,0.5,0.25,0.0,0.0,0.25,0.25,0.64,1.14,2.45,528.93,-27.0,60.6
0.4,0.0,0.0,0.0,1.25,0.0,0.0,0.0,0.0,0.75,5.5,4.5,3.5,3.75,-0.55,0.45,2.45,225.94,-1.5,-78.1,4.5,0.5,4.75,3.0,1.5,1.75,4.5,0.5,0.25,0.0,0.5,0.25,0.25,0.52,0.77,2.52,379.46,-20.9,51.4
0.42,0.0,0.0,0.75,1.25,0.0,0.0,0.25,2.0,1.5,0.0,5.5,2.25,3.75,-0.3,0.39,2.08,264.23,3.7,-63.1,0.0,0.25,3.25,0.5,1.5,0.0,2.0,0.5,0.0,0.0,0.5,0.75,0.5,0.7,-0.11,2.45,242.5,-17.8,20.3
0.44,0.0,0.0,0.0,0.5,0.0,0.0,1.25,2.5,1.25,0.0,4.75,3.5,0.0,-0.11,0.14,0.95,266.44,6.3,-63.9,2.0,0.75,3.25,0.5,1.75,0.0,0.75,0.75,0.0,0.0,0.75,0.25,1.25,0.58,-0.8,1.02,147.97,-16.5,30.1
0.46,0.0,0.0,0.0,2.5,0.0,0.0,0.25,4.25,2.0,7.0,6.5,0.0,2.5,-0.17,0.08,0.95,296.47,-3.0,-55.2,0.5,0.25,3.25,0.5,0.5,0.0,0.25,0.75,0.0,0.0,0.0,0.25,0.25,1.27,-0.61,1.77,52.69,-22.1,38.9
0.48,0.0,0.0,0.0,1.25,0.0,0.0,0.75,4.5,1.75,6.25,6.0,0.0,2.75,-0.11,0.08,0.95,319.86,-4.1,-60.4,0.0,0.25,1.75,0.5,0.0,0.0,0.25,0.75,0.0,0.0,0.25,0.0,0.25,0.58,-1.42,1.2,0.0,-18.1,23.6
0.5,0.0,0.0,0.0,2.5,0.0,1.0,0.75,3.75,2.25,6.25,6.0,2.75,3.25,-0.11,0.08,0.95,371.87,-2.0,-57.6,0.25,0.25,1.75,0.5,0.25,0.0,0.25,0.75,0.0,0.0,0.5,0.0,0.25,0.39,-0.61,1.02,0.0,-17.2,24.0
0.52,0.0,0.0,0.0,3.5,0.0,1.0,1.5,4.25,1.75,5.25,0.0,2.25,2.5,-0.11,0.08,0.95,369.79,-3.9,-41.7,0.0,0.5,0.75,0.5,0.0,0.25,0.25,0.75,0.0,0.0,0.5,0.0,0.25,0.27,-0.23,0.58,0.0,-8.9,12.5
0.54,0.0,0.0,0.0,4.25,0.0,1.0,2.0,4.5,1.75,4.25,0.0,2.0,2.5,-0.11,0.08,0.95,358.82,-2.4,-34.9,0.25,0.5,1.25,0.5,0.0,0.0,0.25,0.75,0.25,0.0,0.5,0.25,0.25,0.2,-0.23,0.64,0.0,-15.2,11.8
0.56,0.0,0.0,0.0,5.25,0.0,2.25,2.25,4.5,1.0,3.25,0.0,1.25,1.5,-0.11,0.08,0.95,321.55,-2.1,-17.0,0.0,0.5,1.75,0.5,1.25,0.0,0.25,0.75,0.25,0.0,0.75,0.25,0.5,0.02,-0.23,0.89,0.0,-11.1,13.7
0.58,0.0,1.0,0.0,4.25,0.0,1.0,2.75,2.75,0.75,2.25,0.0,1.0,0.25,-0.11,0.08,0.95,278.7,2.9,-0.9,0.5,0.25,1.5,0.5,0.25,0.75,0.25,0.75,0.0,0.75,0.75,0.75,0.25,-0.11,-0.11,0.89,7.93,-8.5,-1.6
0.6,0.0,0.0,5.25,4.5,0.0,1.25,2.75,3.25,0.5,1.5,0.0,0.5,1.25,-0.11,0.08,0.95,263.1,11.1,11.4,0.5,0.75,1.75,0.5,1.25,0.0,0.25,0.75,0.0,0.0,0.75,0.25,0.5,-0.11,-0.05,1.02,48.57,-12.6,23.8
0.62,0.0,0.0,4.5,6.25,0.0,2.25,2.75,3.25,0.5,1.5,0.0,0.25,0.5,-0.11,0.08,1.02,261.36,10.0,20.7,0.5,0.25,1.0,0.75,0.25,1.0,0.25,0.75,0.25,1.25,0.5,0.75,0.5,-0.11,0.02,1.33,79.62,-3.7,-9.8
0.64,0.0,1.0,5.5,6.25,0.0,0.0,2.75,1.75,0.25,1.75,0.0,0.25,0.25,-0.11,0.14,1.02,265.46,17.5,31.7,1.75,1.0,2.25,0.75,1.75,1.75,0.0,0.75,0.25,1.5,0.25,0.75,0.75,-0.11,0.08,1.58,132.87,-6.8,20.1
0.66,0.0,0.0,0.0,6.25,0.0,0.0,2.75,1.75,0.0,1.25,0.25,0.25,0.5,-0.11,0.14,0.95,237.72,8.7,12.7,1.25,1.25,2.75,1.0,1.75,1.25,0.25,0.75,0.0,1.5,1.0,0.75,1.25,-0.11,0.2,1.83,178.82,-7.8,12.6
0.68,0.0,0.0,0.0,7.0,0.0,0.0,2.75,2.0,0.0,0.75,0.75,0.0,0.75,-0.11,0.2,0.95,211.23,9.3,14.4,1.0,1.5,2.75,1.5,1.75,1.25,0.25,0.75,0.0,1.5,0.75,0.75,1.25,-0.05,0.39,2.2,212.01,-7.7,15.7
0.7,4.25,0.0,0.0,8.0,0.0,0.0,2.25,1.0,0.0,0.0,0.5,0.0,0.0,-0.17,0.2,0.95,191.45,20.5,55.5,0.75,1.0,2.5,1.25,1.75,1.5,0.25,0.75,0.0,1.5,0.75,0.75,1.25,-0.05,0.64,3.02,229.29,-5.9,10.0
0.72,0.0,0.75,0.0,9.0,0.0,0.0,2.5,2.0,0.0,0.0,1.25,0.0,0.75,-0.17,0.2,0.95,193.58,11.6,26.1,1.75,1.0,2.5,0.75,1.5,1.25,0.25,0.75,0.0,1.5,1.0,0.75,1.5,0.08,1.45,3.02,236.25,-7.7,9.1
0.74,0.0,1.0,0.0,9.0,0.0,0.0,2.75,1.75,0.5,0.5,1.25,0.0,1.0,-0.11,0.2,0.89,207.37,11.0,21.1,0.5,1.0,2.5,0.75,1.5,2.0,0.25,0.75,0.0,1.5,0.75,0.75,1.25,0.08,2.7,2.33,229.76,-4.1,6.6
0.76,0.0,1.0,8.0,10.5,0.0,0.0,3.25,1.5,0.5,0.5,1.25,0.0,1.25,-0.11,0.2,0.89,268.39,20.0,34.9,0.75,1.5,2.25,1.0,1.5,1.25,0.25,0.75,0.0,1.5,0.75,0.75,1.25,-0.55,3.39,0.52,224.9,-6.0,10.2
0.78,0.0,1.0,8.5,10.5,0.0,0.0,3.5,1.5,0.5,0.5,1.0,0.25,1.0,-0.11,0.27,0.89,317.54,20.7,36.4,0.75,1.0,2.75,0.75,1.5,1.5,0.25,0.75,0.0,1.5,0.75,0.75,1.25,-1.67,4.14,-0.17,218.68,-6.3,8.2
0.8,0.0,1.0,8.75,11.5,0.0,0.0,4.0,1.5,0.0,0.5,1.25,0.0,1.0,-0.11,0.27,0.95,371.98,21.0,38.9,0.0,0.75,2.0,1.25,1.5,0.0,0.0,0.75,0.0,0.0,0.5,0.5,0.25,-2.42,4.45,-0.67,189.74,-12.5,28.2
0.82,0.0,1.25,9.0,11.5,0.0,0.0,4.25,1.5,0.25,0.25,1.0,0.75,1.25,-0.17,0.27,1.08,412.45,20.8,35.8,0.0,0.0,0.5,0.0,0.0,0.0,0.0,0.75,0.0,1.5,0.5,1.0,0.5,-0.67,0.14,0.08,147.17,1.9,-65.8
0.84,7.75,1.25,9.25,11.5,0.0,0.0,5.0,1.5,0.0,0.5,1.25,0.75,0.5,-0.17,0.27,1.08,487.11,24.3,50.1,0.0,0.5,0.5,0.0,0.0,0.0,0.0,0.75,0.0,5.5,2.5,3.75,3.75,0.02,-0.17,1.83,171.64,3.8,-79.7
0.86,7.25,1.25,9.25,11.5,0.0,0.0,5.25,0.0,0.0,0.5,0.75,0.5,0.75,-0.17,0.27,1.14,535.18,25.9,55.0,0.0,0.25,0.5,0.0,0.0,0.25,0.0,1.75,0.0,7.0,5.75,3.5,4.75,-0.73,0.83,2.64,231.16,4.1,-78.9
0.88,7.75,1.0,9.25,11.5,0.0,0.0,5.5,0.0,0.0,0.75,0.75,1.0,0.5,-0.23,0.33,1.27,583.25,25.9,53.1,0.0,0.75,1.0,0.5,1.25,2.0,0.0,3.75,0.5,7.0,6.0,3.0,3.5,0.27,0.64,1.02,301.68,3.9,-52.6
0.9,7.75,0.0,9.25,10.5,0.0,0.0,5.75,1.5,0.25,0.5,0.75,0.0,0.5,-0.3,0.39,1.58,595.13,25.5,52.4,0.25,0.25,0.0,0.5,1.0,3.5,0.25,4.75,1.0,6.75,6.75,3.0,3.25,0.08,0.14,0.95,378.27,5.7,-53.7
0.92,8.0,0.0,8.0,8.0,0.0,0.0,5.5,0.0,0.0,0.5,0.75,0.75,0.0,-0.55,0.64,2.33,553.1,28.3,56.3,1.5,1.0,0.5,1.25,1.5,4.0,1.25,5.0,1.5,6.5,6.75,3.0,2.5,0.08,0.08,0.95,452.13,2.1,-35.5
0.94,7.5,0.0,6.75,4.5,0.0,0.0,4.25,0.0,0.0,0.0,0.0,1.0,0.0,-0.61,1.02,2.77,460.15,30.7,61.2,1.25,1.25,3.25,2.75,2.75,4.5,3.0,5.0,1.75,6.75,6.75,2.75,2.75,0.08,0.08,0.95,537.55,-1.4,-21.0
0.96,5.5,0.0,5.5,3.75,0.0,0.0,2.5,0.0,0.0,0.0,0.75,0.75,0.0,-0.61,1.08,2.7,363.74,29.7,55.8,3.75,1.75,5.75,5.25,5.25,6.0,5.0,5.0,1.75,6.0,6.75,3.0,3.25,0.08,0.08,0.95,697.6,-5.1,-2.0
0.98,2.5,0.0,3.75,2.5,0.0,0.0,1.0,0.0,0.0,0.0,1.0,0.0,0.0,-0.61,0.27,2.7,265.42,29.2,54.1,4.75,2.0,7.0,6.25,6.5,6.0,6.25,5.0,1.75,4.5,6.0,2.25,2.25,0.08,0.08,0.95,865.42,-7.4,10.2
1.0,0.0,0.0,0.0,1.75,0.0,0.0,4.5,0.0,0.25,0.0,0.0,0.25,0.0,-0.61,-0.67,1.7,160.17,23.7,28.6,5.75,2.0,7.75,6.75,7.25,6.0,6.75,4.75,1.0,1.5,4.75,1.0,1.25,0.08,0.08,0.95,980.97,-9.9,26.4
1.02,2.0,0.0,2.5,2.0,0.0,0.0,0.25,0.0,0.25,1.75,1.75,0.0,0.0,-0.8,-0.23,1.39,104.67,19.1,18.8,6.0,2.25,8.75,8.0,7.0,6.0,7.0,4.0,1.0,1.75,2.5,0.75,1.25,0.08,0.14,0.95,1036.72,-11.1,33.5
1.04,1.75,0.0,0.0,0.5,0.0,0.0,0.0,0.0,0.0,0.5,0.0,0.0,0.0,-0.23,-1.8,0.83,33.96,21.9,57.3,6.0,3.0,8.75,7.5,7.25,6.0,7.25,3.5,1.0,1.25,2.5,0.75,0.75,0.08,0.14,0.95,1042.0,-11.8,37.5
1.06,2.75,0.0,0.75,2.5,0.0,0.0,0.0,0.0,0.25,1.5,1.25,0.0,0.75,-0.3,-0.73,1.08,30.14,15.1,15.5,5.75,2.0,9.0,9.0,7.25,6.0,6.75,3.0,1.0,1.5,1.75,0.75,0.25,0.02,0.08,1.02,1008.01,-12.3,40.0
1.08,1.25,0.0,0.0,1.0,0.0,0.0,0.25,0.0,0.25,0.75,0.5,0.0,0.25,-0.36,-0.42,0.64,0.0,13.6,11.5,5.5,0.0,9.25,8.0,7.25,5.25,6.75,2.5,1.0,0.5,0.75,0.75,0.25,0.02,0.14,0.95,916.35,-13.7,42.7
1.1,1.5,0.0,0.0,2.5,0.0,0.0,0.5,0.0,0.5,1.5,1.25,0.0,0.5,-0.48,-0.23,0.33,20.61,11.3,1.8,5.25,1.25,8.75,8.5,7.25,3.0,6.25,2.5,0.5,1.0,0.75,0.25,0.25,0.02,0.14,0.95,835.96,-14.8,45.8
1.12,1.25,0.0,0.0,2.25,0.0,0.0,0.25,0.0,0.25,1.25,1.25,0.25,0.5,-0.48,-0.17,0.45,24.48,10.8,-3.5,4.75,1.25,8.5,7.25,7.0,3.75,6.0,2.25,0.25,0.0,0.5,0.25,0.25,0.02,0.2,0.89,741.36,-14.7,49.3
1.14,0.0,0.0,0.0,2.5,0.0,0.0,0.0,0.0,0.25,1.5,1.25,0.25,0.25,-0.11,-0.23,0.95,41.44,5.9,-19.4,4.75,1.25,8.75,7.25,7.0,2.0,5.75,0.75,0.25,0.0,0.5,0.25,0.25,0.02,0.2,0.89,652.6,-17.8,53.7
1.16,0.0,0.0,0.0,2.5,0.0,0.0,0.0,0.0,0.5,1.5,1.25,0.5,0.5,0.02,-0.11,1.2,56.5,5.5,-26.7,4.5,1.25,8.75,7.5,6.5,2.0,5.75,0.75,0.25,0.0,0.5,0.0,0.25,0.02,0.27,0.89,577.89,-18.1,54.6
1.18,0.0,0.0,0.0,1.75,0.0,0.0,0.0,0.0,0.5,1.5,1.0,0.5,0.5,-0.05,0.08,1.2,68.51,3.7,-36.2,4.25,1.25,8.75,7.75,6.5,2.0,6.0,0.75,0.0,0.0,0.5,0.25,0.25,-0.05,0.27,0.89,526.83,-18.0,53.8
1.2,1.25,0.0,0.0,2.5,0.0,0.0,0.0,0.0,0.5,1.5,1.0,0.5,0.5,-0.11,0.14,1.33,87.71,9.8,-6.5,5.5,1.25,9.5,9.25,7.0,2.5,6.0,0.75,0.0,0.0,0.5,0.25,0.25,-0.05,0.27,0.83,525.93,-18.0,55.1
1.22,1.25,0.0,0.0,2.0,0.0,0.0,0.0,0.0,0.25,1.5,1.0,0.5,0.5,-0.05,0.27,1.7,98.9,9.1,-10.2,6.25,2.25,9.75,12.5,7.25,4.0,6.5,0.75,0.0,1.25,0.5,0.75,0.25,-0.05,0.33,0.89,607.48,-16.0,51.2
1.24,0.75,0.0,0.0,1.75,0.0,0.0,0.0,0.0,0.25,1.5,1.25,0.5,0.5,-0.05,0.33,2.08,103.9,7.0,-23.1,6.75,2.25,10.5,13.0,7.25,4.0,7.0,0.75,0.0,1.5,0.5,0.75,1.25,-0.05,0.33,0.95,718.66,-15.9,48.0
1.26,0.5,0.0,0.0,0.75,0.0,0.0,0.0,0.0,0.25,1.5,0.75,0.5,0.5,-0.11,0.52,2.77,90.79,3.0,-41.7,7.5,2.5,13.0,14.0,8.5,3.25,7.25,0.75,0.0,0.0,0.5,0.25,0.25,-0.05,0.33,0.95,838.81,-18.7,57.5
1.28,0.75,0.0,0.75,0.5,0.0,0.0,0.0,0.0,0.25,0.75,1.25,0.0,0.25,-0.36,1.08,3.39,83.11,14.3,-8.9,7.0,2.0,11.5,12.0,7.75,2.0,7.5,0.5,0.0,0.0,0.5,0.25,0.25,-0.05,0.33,1.02,874.81,-19.6,57.7
1.3,1.25,0.0,0.0,0.5,0.0,0.0,0.0,0.0,0.0,1.25,0.0,0.0,0.0,-0.61,2.39,2.83,61.57,10.2,17.0,7.5,2.0,14.0,12.5,8.5,1.5,8.25,0.75,0.0,1.0,1.25,0.75,0.25,-0.05,0.33,1.08,933.68,-19.7,52.0
1.32,1.0,0.0,0.0,1.0,0.0,0.0,0.25,0.0,0.25,0.75,0.75,0.0,0.25,0.02,3.52,1.14,58.05,12.2,1.4,8.0,2.5,14.5,14.0,8.25,1.25,8.5,0.75,0.25,1.5,1.0,0.75,0.25,0.02,0.39,1.14,990.47,-19.8,52.1
1.34,0.75,0.0,0.0,2.0,0.0,0.0,0.0,0.0,0.5,1.0,1.0,0.0,0.25,1.02,3.89,0.45,60.0,10.4,-1.0,8.75,2.5,14.5,13.5,7.25,0.0,8.75,0.75,0.5,1.5,1.0,0.75,1.0,0.02,0.45,1.27,1039.92,-20.9,50.4
1.36,1.25,0.0,0.0,2.0,0.0,0.0,0.25,0.0,0.25,1.5,0.75,0.0,0.5,1.52,4.08,-0.17,74.07,9.5,0.7,8.75,2.5,14.0,11.5,6.25,0.0,8.5,0.75,0.25,0.0,1.0,0.25,1.0,0.08,0.52,1.52,1023.15,-22.6,55.6
1.38,1.5,0.0,0.0,1.5,0.0,0.0,0.0,0.0,0.0,0.5,0.75,0.0,0.5,1.14,3.95,-2.17,77.92,14.6,16.7,8.75,2.5,10.5,7.25,2.25,0.0,7.5,0.0,0.25,1.25,0.5,0.25,0.25,0.27,0.95,2.2,882.29,-25.3,58.0
1.4,1.25,0.0,0.75,0.5,0.0,0.0,0.0,0.0,0.0,2.25,1.5,0.0,1.5,-0.23,0.08,2.08,91.87,5.0,-33.4,7.75,1.5,8.0,5.75,1.5,0.0,6.5,0.0,0.25,1.5,0.5,0.75,0.25,0.52,1.14,2.52,690.39,-24.8,52.0
1.42,0.0,0.0,1.0,0.75,0.0,0.0,0.25,0.0,0.0,4.5,2.0,2.25,3.75,-0.92,0.33,1.27,141.55,-1.7,-72.1,5.5,1.0,7.0,3.0,1.75,0.0,5.5,0.0,0.0,0.0,0.5,0.0,0.5,0.39,1.02,2.64,477.17,-27.0,59.2
1.44,0.0,0.0,0.25,0.75,0.0,0.0,0.0,0.0,0.5,6.0,4.75,4.0,5.75,-0.05,0.45,2.64,222.71,-2.7,-83.7,1.5,0.0,4.0,2.0,1.25,1.25,2.5,0.0,0.0,1.5,0.75,0.75,1.25,0.58,0.2,2.14,307.94,-14.2,17.1
1.46,0.0,0.0,0.0,0.75,0.0,0.0,0.25,3.0,0.75,4.25,5.25,0.0,5.5,-0.36,0.39,1.64,274.47,-5.7,-72.4,1.25,0.5,3.25,0.5,1.75,0.0,0.25,0.0,0.0,0.0,0.5,0.0,0.25,0.27,-0.3,0.77,182.55,-21.7,52.9
1.48,0.0,0.0,0.0,0.5,0.0,0.0,0.0,4.5,1.5,0.0,7.0,0.0,5.0,-0.05,0.2,1.27,301.73,-2.4,-69.3,1.25,0.25,3.5,0.5,1.75,0.0,0.5,0.0,0.0,0.0,0.5,0.0,0.25,0.95,-0.8,1.77,85.76,-22.6,51.4
1.5,0.0,0.0,0.0,2.0,0.0,0.0,0.0,4.75,1.75,7.75,7.0,0.0,5.0,-0.11,0.14,0.95,355.38,-5.0,-63.4,0.5,0.0,3.0,0.5,0.0,0.0,0.25,0.0,0.0,0.0,0.5,0.0,0.25,0.58,-1.3,0.95,0.0,-30.2,41.0
1.52,0.0,0.0,0.0,2.5,0.0,1.0,0.5,5.0,1.5,7.75,0.0,3.25,5.25,-0.11,0.08,0.95,385.62,-7.5,-59.8,0.5,0.5,2.75,0.5,0.5,0.0,0.25,0.0,0.0,0.0,0.25,0.0,0.25,0.39,-0.36,0.64,0.0,-25.5,51.9
1.54,0.0,0.0,0.0,2.5,0.0,0.5,0.5,5.25,1.5,7.0,0.0,3.0,5.0,-0.11,0.08,0.95,404.12,-7.2,-59.8,1.0,0.0,1.75,0.5,0.0,0.0,0.25,0.0,0.0,0.0,0.25,0.0,0.25,0.27,-0.3,0.27,0.0,-29.3,48.5
1.56,0.0,0.25,0.0,2.5,0.0,1.5,0.5,5.25,1.5,6.75,0.0,3.0,5.0,-0.11,0.08,0.95,409.82,-7.5,-54.7,0.0,0.25,1.75,0.75,0.0,0.0,0.0,0.0,0.0,0.0,0.25,0.0,0.25,0.2,-0.17,0.58,0.0,-25.3,40.1
1.58,0.0,0.0,0.0,2.25,0.0,2.25,0.5,5.25,1.25,6.25,0.0,2.75,4.25,-0.11,0.08,0.95,398.64,-8.4,-52.4,0.5,0.0,1.75,0.5,0.0,0.0,0.0,0.0,0.0,0.0,0.25,0.0,0.25,0.02,-0.23,0.83,0.0,-28.3,42.3
1.6,0.0,0.0,0.0,2.0,0.0,2.25,0.5,5.25,0.75,5.75,0.0,2.0,3.0,-0.11,0.08,0.95,365.47,-9.3,-48.1,0.5,0.5,1.75,0.5,0.0,0.0,0.0,0.0,0.0,0.0,0.25,0.25,0.25,-0.05,-0.17,0.95,0.0,-25.1,40.2
1.62,0.0,0.0,0.0,2.25,0.0,3.0,0.25,5.25,0.0,5.25,2.75,2.0,2.5,-0.11,0.08,0.95,343.01,-7.8,-46.2,0.5,0.25,1.75,0.5,0.0,0.0,0.0,0.0,0.0,0.0,0.25,0.0,0.25,-0.11,-0.05,0.95,0.0,-27.2,46.4
1.64,0.0,0.0,0.0,2.25,0.0,3.5,0.25,5.25,0.0,4.5,3.0,1.25,2.5,-0.11,0.08,0.95,317.76,-8.2,-41.7,0.0,0.0,1.5,0.25,0.0,0.0,0.0,0.0,0.0,0.0,0.5,0.0,0.25,-0.11,0.08,1.08,0.0,-25.6,17.4
1.66,0.0,0.0,0.0,2.5,0.0,3.5,0.0,5.25,0.0,4.0,2.0,1.25,1.75,-0.11,0.08,0.95,290.38,-8.6,-35.8,0.0,0.0,1.25,0.5,0.0,0.0,0.0,0.0,0.0,0.0,0.25,0.0,0.25,-0.11,0.14,1.33,11.96,-24.8,26.9
1.68,0.0,0.25,0.0,2.5,0.75,4.25,0.0,5.0,0.0,4.0,2.0,1.0,1.25,-0.11,0.14,0.95,274.21,-8.6,-25.3,0.5,0.75,1.0,0.75,0.0,0.0,0.0,0.0,0.0,0.0,0.25,0.25,0.25,-0.11,0.2,1.77,29.15,-21.1,41.1
1.7,0.0,0.5,0.0,2.5,2.5,4.75,0.0,5.25,0.0,4.0,1.75,1.0,1.5,-0.11,0.14,0.95,278.92,-8.5,-16.7,0.25,0.25,1.0,0.5,0.0,0.0,0.0,0.0,0.0,0.0,0.5,0.0,0.25,-0.05,0.33,1.89,36.09,-22.0,27.5
1.72,0.0,0.25,0.0,2.5,5.0,5.25,0.0,5.75,0.0,4.0,2.25,1.0,1.25,-0.11,0.14,0.95,297.45,-8.2,-10.2,0.0,0.5,1.25,0.5,0.0,0.0,0.0,0.0,0.0,0.0,0.5,0.25,0.25,0.02,0.45,2.33,42.54,-20.7,20.4
1.74,0.25,0.75,0.0,2.5,5.75,6.0,0.0,6.0,0.0,3.75,1.75,1.0,1.25,-0.11,0.14,0.95,329.06,-8.0,-3.1,1.0,0.25,1.25,0.25,0.0,0.0,0.0,0.0,0.25,0.0,0.25,0.0,0.25,0.14,0.7,3.02,49.68,-26.3,44.3
1.76,0.75,0.25,0.0,2.75,6.25,6.25,0.0,6.0,0.0,3.75,2.0,1.0,1.25,-0.11,0.14,0.95,370.61,-7.4,-2.0,0.0,0.25,0.75,0.25,0.0,0.0,0.0,0.0,0.0,0.0,0.5,0.0,0.25,0.2,1.52,3.45,44.73,-19.1,11.2
1.78,1.0,1.0,0.0,2.75,6.75,7.0,0.25,6.25,0.0,3.25,1.5,1.0,1.25,-0.11,0.14,0.95,409.4,-6.9,4.8,0.0,0.0,0.75,0.0,0.0,0.0,0.0,0.0,0.0,0.0,0.25,0.25,0.25,0.14,2.33,1.64,36.32,-20.3,-17.6
1.8,1.25,0.75,0.0,3.0,7.5,7.5,0.5,6.25,0.0,2.75,1.5,1.0,1.25,-0.11,0.14,0.95,446.81,-6.4,8.1,0.25,0.0,1.5,0.25,0.25,0.0,0.0,0.0,0.0,0.0,0.25,0.0,0.25,-0.98,3.08,0.7,35.84,-24.7,35.7
1.82,1.0,0.75,0.0,4.25,7.5,7.75,0.5,6.25,0.0,2.25,1.25,1.0,1.25,-0.11,0.14,0.95,479.42,-5.9,11.4,0.0,0.0,1.25,0.25,0.0,0.0,0.0,0.0,0.0,0.0,0.25,0.25,0.25,-2.17,3.7,-0.11,33.92,-23.9,8.6
1.84,2.5,1.0,0.75,4.25,8.25,8.0,0.5,6.0,0.0,2.25,1.25,1.0,1.25,-0.11,0.14,0.95,523.3,-3.3,17.6,0.0,0.0,0.5,0.25,0.0,0.0,0.0,0.0,0.0,0.0,0.0,0.0,0.25,-2.42,3.89,-0.3,27.29,-20.0,17.6
1.86,0.0,1.0,0.0,4.75,8.25,8.25,0.5,5.25,0.0,2.25,1.25,1.0,1.25,-0.11,0.14,1.02,533.11,-6.4,13.2,0.0,0.0,0.5,0.0,0.0,0.0,0.0,0.0,0.0,1.5,0.25,0.75,0.25,-2.11,1.58,2.64,34.86,-0.5,-64.5
1.88,0.0,1.0,0.0,7.75,9.0,8.25,1.0,4.5,0.0,2.25,1.25,1.0,1.25,-0.11,0.2,1.02,560.51,-3.9,18.9,0.0,0.25,0.5,0.0,0.0,0.0,0.0,0.0,0.0,0.5,0.5,1.5,0.5,0.27,-0.55,0.52,44.72,-7.0,-63.1
1.9,3.5,1.0,0.75,8.0,9.0,8.0,1.25,4.5,0.0,2.25,1.0,1.0,1.25,-0.17,0.2,1.02,600.98,0.0,26.5,0.0,0.5,0.5,0.5,0.0,0.0,0.0,0.25,0.0,5.75,2.0,3.75,2.25,0.08,-0.05,0.89,120.21,2.3,-73.4
1.92,2.25,0.75,0.0,9.0,9.0,8.0,1.5,3.25,0.25,2.25,1.25,1.0,1.25,-0.17,0.2,1.08,624.51,-0.5,25.2,1.75,1.25,2.0,1.25,2.25,2.0,0.25,1.75,0.25,7.25,5.25,3.5,4.0,-0.48,0.77,2.77,245.63,-0.4,-34.9
1.94,0.0,0.75,5.5,8.5,0.0,6.75,1.75,3.25,0.0,0.5,1.25,0.0,0.5,-0.17,0.2,1.08,556.69,7.3,30.9,0.25,0.25,0.5,1.0,0.0,2.0,0.0,3.75,0.25,7.5,6.0,3.0,4.75,0.2,0.7,2.02,345.8,5.1,-62.5
1.96,3.75,0.0,5.5,8.0,0.0,0.0,1.75,2.25,0.0,0.0,0.0,0.0,0.0,-0.23,0.27,1.33,446.37,22.9,53.7,0.0,0.25,0.0,1.0,0.0,2.75,0.0,4.0,1.0,7.5,6.5,3.0,3.25,0.08,0.14,0.95,429.21,5.6,-60.5
1.98,4.5,0.75,4.75,9.0,0.0,0.0,1.75,1.75,0.0,0.0,0.5,0.0,0.0,-0.36,0.27,1.52,364.81,22.7,55.9,1.75,1.0,0.5,2.75,0.5,4.5,0.75,5.0,1.75,8.0,6.75,3.5,3.5,0.08,0.14,0.95,524.81,2.1,-37.6
2.0,6.5,0.0,5.75,6.75,0.0,0.0,2.0,1.5,0.0,0.0,0.0,0.5,0.0,-0.36,0.33,2.02,313.64,25.9,58.0,1.25,1.0,3.25,3.25,3.75,5.0,1.75,5.25,1.5,8.0,7.75,3.75,4.75,0.08,0.14,0.95,643.2,0.0,-27.0
2.02,6.5,0.0,4.25,4.5,0.0,0.0,1.25,0.0,0.0,0.5,0.5,0.0,0.25,-0.61,0.7,2.64,273.52,27.9,61.6,1.25,1.5,3.25,3.5,5.25,6.0,2.5,5.75,1.75,7.5,7.75,3.5,4.0,0.14,0.08,0.95,763.41,0.0,-19.3
2.04,4.0,0.0,2.5,2.75,0.0,0.0,0.5,1.75,0.0,0.5,0.5,0.0,0.0,-0.86,0.95,2.83,225.54,20.9,45.5,2.0,1.5,4.0,3.75,5.5,6.25,3.0,6.0,1.75,7.0,7.75,3.25,3.75,0.14,0.08,0.95,874.91,-1.2,-14.2
2.06,1.5,0.0,2.5,2.5,0.0,0.0,0.0,0.0,0.0,0.5,0.5,0.0,0.0,-0.61,0.45,2.52,158.24,25.0,49.0,2.5,1.75,5.0,3.75,6.5,6.75,3.25,6.0,1.5,6.25,6.75,3.0,3.0,0.14,0.14,0.95,954.63,-2.2,-5.6
2.08,0.0,0.0,0.0,0.0,0.0,0.0,0.0,0.0,0.0,0.0,0.0,0.0,0.0,-0.55,-0.73,1.64,53.7,0.0,0.0,3.0,2.0,5.5,4.0,7.0,7.0,3.25,6.0,1.5,5.5,5.75,2.25,2.5,0.14,0.14,0.95,986.01,-2.9,2.0
2.1,0.0,0.0,0.0,0.0,0.0,0.0,0.0,0.0,0.0,0.0,0.0,0.0,0.0,-0.92,-0.11,1.77,0.0,0.0,0.0,2.25,1.75,5.25,4.25,7.25,7.25,2.75,6.0,1.25,4.5,5.0,1.5,2.25,0.14,0.14,0.95,958.68,-2.2,5.6
2.12,0.0,0.0,0.0,0.0,0.0,0.0,1.5,3.25,0.0,0.0,0.0,0.0,0.0,-0.42,-1.42,1.02,0.0,-7.8,-26.8,2.25,2.0,4.75,4.5,7.25,7.5,2.5,5.75,1.0,4.0,3.0,1.5,2.25,0.14,0.08,0.95,900.39,-1.7,10.5
2.14,0.0,0.0,0.0,0.0,0.0,0.0,0.0,0.0,0.0,0.0,0.0,0.0,0.0,-0.3,-0.73,1.52,0.0,0.0,0.0,2.0,2.0,4.75,5.25,7.25,7.5,2.5,5.25,1.0,3.25,2.75,1.0,2.0,0.14,0.14,0.95,823.64,-2.2,15.2
2.16,0.0,0.0,0.0,0.0,0.0,0.0,0.0,0.0,0.0,0.0,0.0,0.0,0.0,-0.36,-0.61,0.52,0.0,0.0,0.0,1.75,2.0,4.25,5.5,8.0,7.75,2.5,5.25,0.75,2.75,2.5,1.0,1.5,0.14,0.14,0.95,761.8,-1.8,18.5
2.18,0.0,0.0,0.0,0.0,0.0,0.0,0.0,0.0,0.0,0.0,0.0,0.0,0.0,-0.48,-0.3,0.39,0.0,0.0,0.0,1.75,2.0,3.75,6.0,8.0,8.0,2.5,5.0,0.25,1.5,2.5,0.75,1.25,0.14,0.14,0.95,714.33,-1.9,23.8
2.2,0.0,0.0,0.0,0.0,0.0,0.0,0.0,0.0,0.0,0.0,0.0,0.0,0.0,-0.48,-0.17,0.52,0.0,0.0,0.0,1.5,2.25,3.0,5.25,7.5,7.75,1.75,5.0,0.5,2.5,2.0,0.75,1.25,0.14,0.14,0.95,660.31,-0.3,20.4
2.22,0.0,0.0,0.0,0.0,0.0,0.0,0.0,0.0,0.0,0.0,0.0,0.0,0.0,-0.3,-0.17,0.77,0.0,0.0,0.0,1.75,2.0,3.25,5.5,8.5,8.25,1.5,5.0,0.5,1.75,1.75,0.75,1.25,0.08,0.14,0.95,619.82,-0.5,24.1
2.24,0.0,0.0,0.0,0.0,0.0,0.0,0.0,0.0,0.0,0.0,0.0,0.0,0.0,-0.23,-0.05,0.95,0.0,0.0,0.0,1.75,2.0,3.25,5.5,8.5,8.5,1.25,5.0,0.0,2.25,1.5,0.75,1.25,0.08,0.14,0.95,594.05,0.0,24.3
2.26,0.0,0.0,0.0,0.0,0.0,0.0,0.0,0.0,0.0,0.0,0.0,0.0,0.0,-0.3,0.08,1.02,0.0,0.0,0.0,1.75,2.0,2.75,5.5,8.5,9.0,1.0,5.0,0.75,2.25,1.25,1.0,1.25,0.08,0.14,0.95,589.38,0.6,22.6
2.28,0.0,0.0,0.0,0.0,0.0,0.0,0.0,0.0,0.0,0.0,0.0,0.0,0.0,-0.36,0.27,1.08,0.0,0.0,0.0,1.75,2.0,1.75,5.5,8.5,9.25,1.25,5.25,0.75,2.75,0.75,1.0,0.5,0.08,0.14,0.95,584.24,1.7,23.8
2.3,0.0,0.0,0.0,0.0,0.0,0.0,0.0,0.0,0.0,0.0,0.0,0.0,0.0,-0.36,0.45,1.39,0.0,0.0,0.0,2.0,1.5,3.5,5.5,9.0,9.25,1.5,5.25,0.25,0.5,2.0,0.25,1.0,0.14,0.14,0.95,589.71,-0.6,29.3
2.32,0.0,0.0,0.0,0.0,0.0,0.0,0.0,0.0,0.0,0.0,0.5,0.0,0.0,-0.3,0.77,1.45,0.53,10.7,-75.5,2.75,2.0,3.25,7.25,9.75,10.5,2.0,5.0,0.5,0.75,0.75,0.75,1.0,0.14,0.14,0.95,627.43,-1.1,33.3
2.34,1.5,0.0,0.75,1.0,0.0,0.0,0.0,0.0,0.25,0.0,1.0,0.0,0.0,-0.23,1.45,1.89,26.21,24.8,36.5,2.25,2.0,5.0,8.0,9.75,9.25,3.0,5.0,0.0,1.0,0.75,0.5,1.0,0.14,0.14,0.95,675.09,-3.1,34.9
2.36,1.25,0.0,0.75,1.0,0.0,0.0,0.0,0.0,0.0,0.5,0.75,0.0,0.0,-0.17,2.14,2.08,47.86,20.9,30.7,3.25,2.0,5.5,9.0,11.0,9.5,3.0,4.0,0.0,0.0,0.5,0.25,0.5,0.08,0.14,1.02,730.85,-5.0,44.1
2.38,0.0,0.0,0.0,1.75,0.0,0.0,0.0,0.0,0.25,0.5,1.0,0.0,0.0,-0.36,2.95,1.02,65.55,10.4,-3.9,3.75,1.0,7.0,9.75,11.0,9.0,3.5,3.75,0.0,0.0,0.5,0.25,0.5,0.14,0.2,1.02,779.56,-6.8,44.6
2.4,1.25,0.0,0.25,1.25,0.0,0.0,0.0,0.0,0.25,0.75,0.75,0.0,0.0,0.02,3.45,0.45,75.57,16.2,19.0,4.5,1.0,7.0,9.75,11.0,8.75,2.5,3.0,0.0,0.0,0.5,0.25,0.25,0.08,0.2,0.95,808.83,-7.6,47.7
2.42,2.0,0.0,0.75,2.75,0.0,0.0,0.25,0.0,0.25,1.0,0.5,0.25,0.0,2.2,7.95,-2.55,98.46,18.7,32.9,4.5,2.0,7.5,9.25,11.0,6.75,2.5,2.25,0.0,0.0,0.5,0.25,0.25,0.08,0.27,1.08,812.29,-9.5,50.8
2.44,0.0,0.0,1.5,0.0,0.0,0.0,0.5,0.0,0.0,0.0,1.25,0.0,0.5,1.7,2.7,2.02,93.67,20.7,-13.4,5.5,2.5,7.75,11.0,9.75,7.75,3.5,2.25,0.25,0.0,1.5,0.25,1.25,0.08,0.27,1.14,846.72,-10.0,45.9
2.46,0.0,0.0,1.5,1.25,0.0,0.0,0.5,0.0,0.75,1.0,1.25,1.0,0.0,-1.86,-1.23,5.7,105.52,14.8,-18.1,3.75,1.0,7.25,8.0,8.5,6.0,2.5,0.75,0.0,0.0,0.5,0.25,0.25,0.14,0.33,1.33,771.04,-11.1,51.9
2.48,0.75,0.0,2.0,1.5,0.0,0.0,0.75,0.0,0.5,0.0,2.25,0.25,1.25,-1.61,-4.92,1.14,119.75,17.5,-6.4,3.75,1.25,6.75,6.25,7.25,4.5,2.5,0.75,0.0,0.0,0.25,0.25,0.25,0.14,0.39,1.52,668.96,-12.4,53.4
2.5,0.0,0.0,0.75,2.0,0.0,0.0,0.5,0.0,0.75,2.0,1.25,1.0,0.25,0.02,0.39,1.02,131.38,8.3,-28.0,3.25,1.0,5.5,5.0,6.0,3.75,2.0,0.75,0.25,0.0,0.5,0.25,0.25,0.14,0.52,1.83,532.07,-12.2,50.5
2.52,0.0,0.0,0.0,2.5,0.0,0.0,3.0,0.0,0.0,0.0,1.0,0.0,0.0,-0.11,0.02,0.89,122.77,20.3,23.4,3.25,1.5,3.0,3.25,5.25,3.75,1.25,0.5,0.25,0.0,0.75,0.0,0.5,0.27,0.7,1.58,408.01,-9.2,49.7
2.54,0.0,0.0,0.0,0.25,0.0,0.0,0.0,0.0,0.75,0.75,0.0,0.0,0.0,-0.17,0.08,0.95,94.44,0.9,-39.9,1.5,0.25,2.0,3.25,2.25,2.75,0.25,0.75,0.0,0.0,0.5,0.25,0.25,0.27,0.7,1.64,287.03,-8.2,41.9
2.56,0.0,0.0,0.0,1.5,0.0,0.0,1.0,1.5,1.0,2.25,1.25,0.0,0.0,-0.17,0.14,0.95,93.63,0.8,-31.6,0.5,0.25,1.5,1.75,1.75,2.5,0.25,0.5,0.25,0.25,0.5,0.0,0.25,0.14,0.64,1.64,194.34,-4.4,33.9
2.58,0.0,0.0,0.0,2.5,0.0,0.0,1.5,2.5,1.75,3.75,2.25,0.0,0.0,-0.11,0.08,0.95,122.33,0.8,-32.6,0.25,0.0,1.5,0.5,1.75,2.0,0.0,0.25,0.25,1.5,0.5,0.75,0.25,0.2,-0.11,1.39,110.91,-1.0,4.2
2.6,0.0,0.5,1.0,4.25,0.0,0.0,2.25,3.25,0.0,4.0,3.0,0.0,1.25,-0.11,0.08,0.95,182.61,2.9,-20.9,0.0,0.0,1.0,0.5,1.25,1.25,0.0,0.25,0.0,0.0,0.5,0.0,0.25,0.2,-0.36,0.77,30.81,-2.7,26.3
2.62,0.0,0.0,0.0,4.5,0.0,0.0,2.75,2.75,2.25,4.0,2.25,0.25,0.0,-0.11,0.08,0.95,223.9,3.8,-21.6,0.0,0.0,0.5,0.5,1.5,1.25,0.0,0.0,0.0,1.0,0.25,0.0,0.25,0.39,0.02,0.89,0.0,3.7,13.3
2.64,0.0,0.0,0.0,4.25,0.0,0.0,3.5,3.0,1.5,2.25,1.0,0.5,0.0,-0.11,0.08,0.95,237.68,5.4,-11.6,0.0,0.0,0.5,0.5,1.5,0.5,0.0,0.25,0.0,0.0,0.25,0.0,0.25,0.45,-0.23,1.45,0.0,-1.7,28.6
2.66,0.0,0.5,0.0,5.25,0.0,1.0,3.75,3.25,1.25,2.75,0.0,1.0,0.0,-0.11,0.08,0.95,246.23,3.7,-2.3,0.0,0.25,0.5,0.75,1.5,1.0,0.0,0.25,0.0,0.0,0.25,0.0,0.25,0.39,-0.67,1.52,0.0,-0.8,34.3
2.68,0.0,1.0,0.0,6.0,0.0,0.0,4.25,3.25,1.75,2.25,0.0,1.0,1.25,-0.11,0.08,0.95,257.78,5.8,-4.8,0.0,0.25,0.5,0.5,1.5,0.75,0.0,0.25,0.0,0.0,0.25,8.75,0.25,0.27,-0.73,1.33,10.26,-6.2,-61.2
2.7,0.0,0.0,5.25,2.0,0.0,0.0,4.25,3.25,3.25,0.0,0.0,0.75,1.25,-0.11,0.08,0.95,264.41,15.6,1.8,0.0,0.0,2.0,0.5,1.75,1.0,0.25,0.0,0.0,0.0,0.75,0.0,1.25,-7.98,7.95,7.39,51.17,-6.9,13.4
2.72,0.0,0.0,4.0,5.5,0.0,0.0,7.25,5.5,3.0,1.75,0.0,1.5,0.0,-0.11,0.08,0.95,295.95,11.9,2.2,0.75,1.0,0.5,1.25,0.5,1.75,0.0,0.0,0.0,0.5,0.0,0.75,1.25,0.52,-1.36,0.95,83.53,-2.5,12.5
2.74,0.0,0.0,0.0,3.75,0.0,0.0,7.0,5.0,0.0,2.0,1.25,0.0,0.0,-0.11,0.08,0.95,287.76,4.7,-7.5,0.0,0.0,2.75,0.5,1.75,1.25,0.25,0.75,0.0,0.0,0.75,0.0,1.25,-0.05,-0.86,1.08,103.52,-6.9,13.7
2.76,0.0,1.25,0.0,6.25,0.0,0.0,3.0,5.0,0.5,1.0,0.0,0.0,0.25,-0.17,0.14,1.02,279.43,4.8,14.3,0.75,1.0,0.5,1.25,0.5,2.0,0.0,0.75,0.0,0.0,0.75,0.75,1.0,-0.55,1.02,-0.55,122.91,-2.4,10.1
2.78,0.0,0.5,4.25,7.5,0.0,0.0,5.0,3.5,0.75,0.5,0.0,0.0,0.0,-0.11,0.14,1.02,275.0,16.5,32.0,0.75,1.0,2.0,1.25,1.75,1.75,0.25,0.75,0.0,0.75,0.75,0.25,1.0,-0.05,0.7,-0.67,151.77,-5.6,20.8
2.8,0.0,0.75,0.0,8.0,0.0,0.0,3.75,0.0,1.75,0.0,0.0,0.0,0.0,-0.11,0.14,1.02,248.42,18.3,42.9,0.0,0.0,0.5,0.5,0.25,1.0,0.0,0.25,0.0,0.0,0.5,0.0,0.5,-0.05,1.2,0.52,131.49,0.0,1.8
2.82,0.0,1.0,0.0,7.75,0.0,0.0,5.0,1.75,0.0,0.0,0.0,0.0,0.0,-0.17,0.14,1.08,227.02,15.1,42.8,1.0,1.0,2.25,0.75,0.5,1.0,0.0,0.5,0.0,0.0,0.75,0.0,1.25,0.2,1.2,-6.67,137.48,-11.6,25.0
2.84,0.0,1.0,7.25,8.75,0.0,0.0,4.75,1.5,0.5,0.0,0.0,0.25,0.0,-0.17,0.2,1.08,248.9,23.1,47.1,1.5,1.0,2.5,0.75,1.75,2.0,0.25,0.75,0.0,1.5,0.75,0.75,1.25,1.52,7.64,-4.61,160.81,-5.9,13.2
2.86,0.0,0.5,8.0,9.0,0.0,0.0,5.0,1.5,0.0,0.25,1.25,0.5,0.0,-0.11,0.2,0.89,283.36,22.8,39.1,1.25,1.0,2.25,1.0,1.75,2.0,0.25,0.75,0.0,1.5,0.75,0.75,1.25,1.08,3.45,-2.86,190.21,-5.1,11.9
2.88,7.0,1.0,0.0,9.0,0.0,0.0,5.25,1.5,0.0,0.75,1.0,1.0,0.0,-0.11,0.27,1.02,314.71,19.7,44.6,1.25,1.0,2.25,1.0,1.5,2.0,0.25,0.75,0.0,1.5,0.75,0.75,1.25,0.64,1.7,1.83,209.45,-5.3,11.0
2.9,0.0,1.25,8.25,9.0,0.0,0.0,5.0,0.0,0.0,0.25,0.25,1.0,0.0,-0.17,0.27,1.14,334.65,25.4,48.1,1.5,1.0,2.25,0.75,1.5,2.0,0.25,0.75,0.25,1.5,0.75,0.75,1.25,0.27,0.08,2.58,220.21,-5.7,10.7
2.92,8.25,0.0,9.25,8.0,0.0,0.0,5.5,0.0,0.0,0.75,0.0,0.0,0.5,-0.17,0.39,0.89,377.92,28.6,60.2,1.25,1.25,2.5,1.0,1.75,1.5,0.25,0.75,0.25,1.5,0.75,0.75,1.25,-0.23,-1.17,2.2,223.01,-6.8,12.7
2.94,8.25,0.0,8.25,8.25,0.0,0.0,5.0,0.0,0.0,0.0,0.0,0.0,0.0,-0.17,0.39,1.02,398.6,30.1,67.4,1.5,1.0,2.25,0.75,1.75,2.0,0.25,0.75,0.25,1.25,0.75,0.75,1.25,0.33,-0.42,1.02,225.83,-5.8,13.0
2.96,9.25,0.0,9.25,8.5,0.0,0.0,6.0,0.0,0.25,0.0,0.5,0.0,0.25,-0.05,0.45,0.89,443.63,29.6,62.9,1.0,1.0,1.75,0.75,1.5,2.0,0.25,0.75,0.25,1.5,1.0,1.0,1.25,0.27,1.08,0.77,222.88,-3.6,2.4
2.98,10.0,0.0,9.25,9.0,0.0,0.0,6.5,0.0,0.0,0.0,0.5,0.0,0.5,-0.05,0.52,0.83,489.87,29.4,62.7,1.25,1.0,2.0,0.75,1.75,2.0,0.25,0.75,0.25,1.5,0.75,0.5,1.0,-0.17,2.27,-1.61,219.38,-4.7,13.6
3.0,10.0,0.0,9.0,8.0,0.0,0.0,6.5,0.0,0.0,0.0,0.5,0.5,0.25,-0.11,0.52,0.83,511.32,29.7,61.6,1.25,1.0,1.75,0.75,1.5,2.0,0.25,0.75,0.25,2.0,0.75,0.75,1.25,0.2,0.14,-0.67,216.66,-3.2,4.5
3.02,11.0,0.0,8.75,8.0,0.0,0.0,7.0,0.0,0.0,0.0,0.5,0.75,0.0,0.02,0.58,0.7,521.68,30.0,62.4,1.0,1.0,1.75,0.75,1.5,1.75,0.25,0.75,0.25,1.25,0.75,0.75,1.25,-0.23,-0.23,-1.42,209.39,-4.2,6.9
3.04,0.0,0.0,8.75,8.0,0.0,0.0,7.25,0.0,0.25,0.0,0.5,0.0,0.0,-0.05,0.77,0.83,458.63,28.2,50.1,0.75,1.0,1.75,0.75,1.5,1.75,0.0,0.75,0.25,1.25,0.75,0.75,1.25,0.33,-0.11,-0.05,203.89,-3.4,5.0
3.06,0.0,0.0,8.5,7.0,0.0,0.0,7.25,0.0,0.0,0.0,0.5,0.0,0.0,-0.05,0.89,1.08,384.27,28.8,50.7,0.75,1.0,1.75,0.5,1.75,2.0,0.0,0.75,0.25,1.0,0.75,0.75,1.25,0.02,-0.73,0.08,190.88,-2.9,7.1
3.08,0.0,0.0,7.5,6.5,0.0,0.0,7.25,0.0,0.0,0.0,0.0,0.0,0.0,0.02,0.89,0.77,310.14,29.1,53.3,0.75,1.0,1.75,0.5,1.5,2.0,0.25,0.75,0.25,1.25,0.75,0.75,1.25,-0.55,-0.48,-0.73,183.58,-2.9,4.7
3.1,0.0,0.0,7.25,5.25,0.0,0.0,7.0,0.0,0.0,0.0,0.75,1.0,0.0,0.27,1.39,1.02,273.99,28.0,38.9,1.0,1.0,1.75,0.75,1.5,2.0,0.25,0.75,0.25,1.5,0.75,0.75,1.25,-0.36,-0.05,-2.67,185.72,-3.4,5.8
3.12,0.0,0.0,6.5,4.0,0.0,0.0,6.0,0.0,0.25,0.75,0.0,0.75,0.0,-0.17,2.02,0.7,239.2,27.0,37.5,0.75,0.25,2.0,0.5,1.5,2.0,0.25,0.75,0.5,1.0,0.75,0.75,1.25,-0.17,-0.86,-3.23,182.83,-3.6,0.7
3.14,0.0,0.0,4.25,2.5,0.0,0.0,3.25,0.0,0.0,0.5,0.0,0.0,0.0,-0.05,2.27,0.08,188.61,28.1,46.7,0.75,1.0,1.75,0.75,1.5,2.0,0.25,0.75,0.5,1.25,0.75,0.25,1.0,2.27,4.95,-1.05,182.47,-3.5,11.8
3.16,0.0,0.0,3.75,2.25,0.0,0.0,1.5,0.0,0.0,0.5,0.0,0.0,0.0,0.2,1.14,0.08,131.01,27.4,47.5,1.25,1.0,1.75,0.5,1.5,2.0,0.25,0.75,0.25,1.75,0.75,0.75,1.25,0.33,0.39,1.02,185.81,-3.3,4.9
3.18,0.0,0.0,2.5,0.0,0.0,0.0,1.0,0.0,0.0,0.0,0.0,0.0,0.0,0.33,0.08,-0.11,61.66,37.3,55.7,1.25,1.0,2.0,0.5,1.5,2.0,0.25,0.75,0.5,1.5,0.75,0.75,0.75,-0.98,-3.23,-1.55,190.64,-5.2,11.0
3.2,1.25,0.0,0.0,0.25,0.0,0.0,0.0,0.0,0.0,0.0,0.0,0.5,0.0,0.89,0.52,-1.36,2.48,25.8,38.8,1.5,1.0,2.0,0.5,1.5,2.25,0.25,0.75,0.25,1.5,0.75,0.75,1.25,-1.98,-2.73,-1.42,197.92,-4.4,9.3
3.22,0.0,0.0,0.0,0.0,0.0,0.0,4.5,0.0,1.5,0.0,0.75,0.0,0.0,-0.3,0.89,0.89,0.0,21.9,-12.1,1.0,1.0,2.0,0.5,1.5,2.0,0.25,0.75,0.5,1.25,0.75,0.75,1.25,-3.23,-0.05,0.08,199.94,-4.3,6.5
3.24,0.0,0.0,1.25,0.0,0.0,0.0,0.5,0.0,2.0,0.0,0.0,0.0,0.0,0.14,0.2,0.33,0.0,23.1,2.5,1.25,1.0,2.0,0.75,1.5,2.0,0.25,0.75,0.25,1.25,0.75,0.25,1.0,-0.36,0.39,-0.98,199.66,-5.2,16.8
3.26,0.0,0.0,0.0,0.0,0.0,0.0,0.0,0.0,2.0,0.0,0.0,0.0,0.0,-0.42,0.02,0.08,0.0,12.1,-38.5,0.75,1.0,1.75,0.5,1.5,2.0,0.25,0.75,0.25,1.25,0.75,1.0,1.25,0.52,0.45,-1.11,196.42,-3.0,2.5
3.28,0.0,0.0,1.25,0.0,0.0,0.0,0.0,0.0,0.0,0.0,0.0,0.0,0.0,-0.3,-0.3,-0.36,0.0,38.2,61.0,1.0,1.0,1.75,0.5,1.5,2.0,0.25,0.75,0.25,1.5,0.75,0.75,1.25,0.95,0.14,-1.42,194.91,-3.1,4.8
3.3,0.0,0.0,2.5,1.5,0.0,0.0,0.5,0.0,0.0,0.25,0.0,0.0,0.0,0.33,-0.11,-0.48,0.0,27.9,50.8,1.0,1.0,1.75,0.5,1.5,2.0,0.25,0.75,0.5,1.5,0.75,0.75,1.25,1.02,0.2,-0.98,194.66,-3.3,4.0
3.32,0.0,0.0,1.75,1.25,0.0,0.0,4.0,0.0,2.0,0.0,1.0,0.5,0.0,0.58,0.14,-0.48,37.59,22.7,4.0,0.75,1.0,1.75,0.75,1.5,2.25,0.25,0.75,0.25,1.5,0.75,1.0,1.0,0.2,0.58,-0.61,195.7,-2.8,4.8
3.34,0.0,0.0,2.5,0.75,0.0,0.0,0.5,0.0,0.25,0.0,0.75,0.0,0.0,0.95,0.7,-0.17,57.69,28.5,31.6,1.25,1.0,1.75,0.5,1.5,2.0,0.25,0.75,0.25,1.5,0.75,0.75,1.0,0.2,0.7,-0.92,195.72,-4.0,8.6
3.36,0.0,0.0,2.5,1.0,0.0,0.0,0.5,0.0,0.5,1.25,1.0,0.0,0.0,0.89,1.02,-0.11,83.56,18.4,5.7,1.25,1.0,1.75,0.5,1.5,2.0,0.25,0.75,0.25,1.25,0.75,0.75,1.25,0.27,0.7,-0.86,195.73,-4.0,7.9
3.38,2.0,0.0,2.5,1.0,0.0,0.0,0.5,0.0,0.5,1.25,0.75,0.0,0.0,0.83,0.89,-0.42,107.33,22.4,29.1,0.75,1.0,1.75,0.75,1.5,2.0,0.25,0.75,0.5,1.5,1.0,0.75,1.25,0.33,0.7,-0.92,195.94,-3.2,2.0
3.4,0.0,0.0,1.5,1.25,0.0,0.0,0.25,0.0,0.5,1.25,1.0,0.0,0.25,0.83,1.02,-0.23,111.29,13.2,-6.9,0.75,1.0,1.75,0.5,1.5,2.0,0.25,0.75,0.25,1.75,0.75,0.75,1.25,0.14,0.58,-0.98,194.26,-2.2,1.6
3.42,1.25,0.0,0.75,1.75,0.0,0.0,0.5,0.0,0.5,1.0,1.0,0.0,0.0,0.77,0.89,0.08,115.29,17.0,16.4,0.75,1.0,1.75,0.5,1.5,2.0,0.25,0.75,0.25,1.25,0.5,0.75,1.25,0.08,0.52,-0.92,190.88,-2.8,6.2
3.44,0.0,0.0,0.75,1.25,0.0,0.0,0.25,0.0,0.25,1.25,1.0,0.0,0.25,0.52,0.7,0.2,104.88,9.3,-16.0,1.25,1.0,1.75,0.5,1.5,2.0,0.25,0.75,0.25,1.5,0.75,0.75,1.0,0.2,0.52,-1.05,190.55,-4.0,8.6
3.46,0.0,0.0,0.75,1.25,0.0,0.0,0.25,0.0,0.25,0.0,0.75,0.0,0.0,0.27,0.89,0.02,86.63,21.0,19.4,1.0,1.0,1.75,0.5,1.5,2.0,0.25,0.75,0.25,1.25,0.75,0.75,1.25,0.08,0.45,-1.05,190.15,-3.5,6.3
3.48,0.0,0.0,0.0,1.0,0.0,0.0,0.5,0.0,0.5,0.0,1.0,0.25,0.25,0.45,1.14,0.02,68.35,12.5,-24.7,1.0,1.0,1.75,0.5,1.5,2.0,0.25,0.75,0.25,1.25,0.75,0.75,1.0,-0.23,0.45,-0.92,189.42,-3.8,8.7
3.5,0.0,0.0,0.0,1.5,0.0,0.0,0.25,0.0,0.25,0.0,1.0,0.0,0.5,0.95,1.58,0.02,57.68,10.9,-13.1,1.25,1.0,1.75,0.75,1.5,2.0,0.25,0.75,0.25,1.5,0.75,0.75,1.25,-0.36,0.33,-0.92,192.65,-3.9,7.4
3.52,0.0,0.0,0.75,1.75,0.0,0.0,0.25,0.0,0.5,0.0,1.0,0.25,0.25,0.83,1.64,-0.05,56.49,17.0,1.8,1.0,1.0,1.75,0.5,1.5,2.0,0.25,0.75,0.5,1.5,0.75,0.25,1.25,-0.3,0.33,-0.92,192.55,-3.1,8.3
3.54,0.0,0.0,1.0,1.5,0.0,0.0,0.25,0.0,0.5,0.0,1.0,0.0,0.5,0.52,1.58,-0.23,57.06,16.9,1.7,1.25,0.75,1.75,0.5,1.25,2.0,0.25,0.5,0.5,1.5,0.75,0.75,1.25,-0.05,0.52,-0.86,191.67,-4.2,3.5
3.56,0.0,0.0,0.75,0.5,0.0,0.0,0.25,0.0,0.25,0.0,1.0,0.5,0.25,0.45,1.39,-0.17,54.25,16.7,-25.0,1.25,1.0,1.75,0.25,1.5,2.25,0.25,0.75,0.25,1.5,0.75,0.75,1.25,-0.05,0.52,-0.8,192.51,-3.0,5.9
3.58,0.75,0.0,0.75,0.5,0.0,0.0,0.25,0.0,0.25,0.5,1.25,0.0,0.0,0.45,1.27,-0.17,56.71,18.4,2.6,1.0,1.0,1.75,0.5,1.5,2.0,0.25,0.75,0.25,1.0,0.75,0.75,1.0,-0.05,0.33,-0.73,190.2,-4.2,10.3
3.6,0.0,0.0,1.25,0.5,0.0,0.0,0.25,0.0,0.0,0.25,1.0,0.0,0.0,0.45,1.27,-0.05,49.56,21.8,6.3,1.0,1.0,1.75,0.5,1.5,2.0,0.25,0.75,0.25,1.75,0.75,0.75,1.0,0.08,0.45,-0.67,190.72,-3.1,5.5
3.62,1.25,0.0,0.75,0.5,0.0,0.0,0.25,0.0,0.0,0.75,0.0,0.0,0.0,0.39,1.08,-0.17,48.71,21.4,41.4,1.25,1.0,1.75,0.5,1.5,2.0,0.25,0.75,0.25,1.5,0.75,1.0,1.25,0.27,0.52,-0.86,193.19,-3.8,4.3
3.64,0.0,0.0,1.25,1.25,0.0,0.0,0.5,0.0,0.25,0.75,1.0,0.0,0.25,0.2,0.89,-0.3,58.47,15.3,-1.3,1.25,1.0,1.75,0.5,1.5,2.0,0.25,0.75,0.25,1.5,0.5,0.75,1.25,0.39,0.45,-0.92,195.19,-3.6,7.9
3.66,1.25,0.0,1.5,1.5,0.0,0.0,0.25,0.0,0.5,1.0,1.0,0.0,0.5,0.08,0.58,-0.36,80.97,16.8,10.6,1.0,1.0,1.75,1.25,1.5,2.0,0.25,0.5,0.5,1.5,0.75,0.5,1.25,0.27,0.39,-0.98,198.23,-4.3,9.9
3.68,0.0,0.0,1.25,1.0,0.0,0.0,0.25,0.0,0.25,1.0,1.0,0.0,0.25,0.27,0.45,-0.11,87.86,13.2,-8.9,1.0,1.0,1.75,0.5,1.5,2.0,0.25,0.5,0.25,1.5,0.75,0.75,1.25,-0.05,0.39,-0.92,196.23,-3.5,5.6
3.7,1.75,0.0,1.25,0.5,0.0,0.0,0.25,0.0,0.25,1.0,1.0,0.0,0.5,0.39,0.33,0.08,98.29,17.4,9.1,1.0,1.0,1.75,0.5,1.5,2.0,0.25,0.5,0.25,1.5,0.75,0.25,1.0,-0.3,0.45,-0.98,191.97,-3.7,12.7
3.72,1.25,0.0,1.75,0.5,0.0,0.0,0.25,0.0,0.25,1.25,1.0,0.0,0.5,0.45,0.33,0.08,101.78,16.6,3.6,0.75,1.0,1.75,0.5,1.5,2.0,0.25,0.75,0.25,1.5,0.75,0.75,1.25,-0.3,0.45,-0.98,189.2,-2.6,3.1
3.74,0.0,0.0,1.75,1.0,0.0,0.0,0.0,0.0,0.25,0.75,0.75,0.0,0.25,0.39,0.33,0.08,96.74,17.0,4.4,0.75,1.0,1.75,0.5,1.5,2.0,0.25,0.5,0.25,1.5,0.75,0.75,1.25,-0.23,0.52,-1.11,186.88,-2.9,3.9
3.76,2.25,0.0,1.75,1.25,0.0,0.0,0.25,0.0,0.5,0.75,1.25,0.0,0.5,0.39,0.39,-0.23,108.3,20.3,20.6,1.25,1.0,1.5,0.5,1.75,1.75,0.25,0.75,0.25,1.5,1.0,0.75,1.25,-0.11,0.45,-0.98,190.06,-3.5,4.4
3.78,1.0,0.0,1.5,0.75,0.0,0.0,0.25,0.0,0.25,0.5,1.0,0.0,0.5,0.33,0.45,-0.42,106.61,19.1,10.2,0.75,1.0,1.75,0.5,1.5,2.75,0.25,0.75,0.25,1.75,0.75,0.75,1.25,-0.11,0.39,-0.98,194.56,-0.9,3.3
3.8,2.25,0.0,1.75,1.0,0.0,0.0,0.25,0.0,0.25,0.5,0.75,0.0,0.0,0.27,0.45,-0.48,112.72,25.5,42.3,1.0,1.0,1.75,0.75,1.5,2.0,0.25,0.5,0.25,1.5,0.75,1.0,1.0,-0.05,0.58,-0.92,196.18,-4.2,6.7
3.82,1.75,0.0,1.75,1.0,0.0,0.0,0.25,0.0,0.25,0.5,1.0,0.25,0.0,0.27,0.39,-0.55,110.21,23.7,28.3,1.25,1.0,1.75,0.5,1.5,2.0,0.25,0.75,0.25,1.5,1.0,0.75,1.0,-0.05,0.52,-0.92,197.38,-4.1,7.1
3.84,1.0,0.0,0.75,1.0,0.0,0.0,0.25,0.0,0.25,1.25,0.0,0.5,0.25,0.83,0.45,-1.98,103.7,13.3,3.0,1.25,1.0,1.75,0.5,1.5,2.0,0.25,0.5,0.25,1.5,0.75,0.75,1.0,-0.05,0.45,-0.92,194.88,-4.4,9.6
3.86,0.0,0.0,1.5,0.75,0.0,0.0,0.25,0.0,0.0,1.5,0.5,0.0,0.5,0.2,1.2,-1.8,91.0,10.3,-12.8,1.25,1.0,1.5,0.5,1.75,1.5,0.25,0.75,0.25,1.5,1.0,0.5,1.25,-0.05,0.39,-0.86,193.15,-3.8,6.1
3.88,0.0,0.0,1.25,1.0,0.0,0.0,0.25,0.0,0.25,1.0,1.0,0.25,0.25,-0.11,0.2,-0.98,81.85,13.0,-13.7,1.25,1.0,1.75,0.5,1.5,2.0,0.25,0.5,0.25,1.25,1.25,0.75,1.25,-0.05,0.45,-0.86,193.58,-4.7,5.8
3.9,0.0,0.0,1.5,1.0,0.0,0.0,0.25,0.0,0.5,1.25,1.0,0.25,0.25,0.2,0.02,-0.73,80.63,12.9,-14.1,0.75,1.0,1.75,0.5,1.5,2.0,0.25,0.5,0.25,1.5,0.75,0.75,1.25,-0.17,0.45,-0.8,191.63,-2.9,3.9
3.92,0.0,0.0,1.5,1.25,0.0,0.0,0.0,0.0,0.25,1.0,0.75,0.5,0.25,0.33,0.27,-0.8,81.74,13.9,-9.4,0.75,1.0,1.75,0.5,1.5,2.0,0.25,0.5,0.25,1.5,0.75,0.75,1.0,-0.23,0.52,-0.73,189.49,-3.3,6.3
3.94,0.0,0.0,1.25,1.0,0.0,0.0,0.0,0.0,0.25,0.5,0.75,0.25,0.25,0.02,0.64,-0.8,76.1,15.9,-4.2,1.25,1.0,2.0,0.5,1.75,2.5,0.25,0.5,0.25,2.75,1.0,0.75,1.0,-0.3,0.58,-0.8,199.33,-2.5,3.8
3.96,0.0,0.0,1.25,1.0,0.0,0.0,0.25,0.0,0.5,0.75,1.25,0.0,0.25,-0.3,0.7,-0.8,74.71,14.5,-10.2,1.25,1.0,1.75,0.5,1.5,2.0,0.25,0.25,0.5,1.5,1.0,0.75,1.25,-0.36,0.58,-0.8,200.15,-4.7,5.8
3.98,0.0,0.0,1.25,0.5,0.0,0.0,0.0,0.0,0.25,1.25,0.75,0.25,0.5,-0.3,0.7,-0.67,70.7,9.3,-27.8,0.75,1.0,1.75,0.5,1.5,2.0,0.25,0.25,0.25,1.5,0.75,0.75,1.25,-0.36,0.58,-0.86,197.42,-3.3,4.8
4.0,0.0,0.0,1.25,1.0,0.0,0.0,0.0,0.0,0.25,1.25,1.0,0.0,0.25,-0.11,0.77,-0.55,69.32,11.3,-13.0,1.25,1.0,1.75,0.5,1.5,2.0,0.25,0.5,0.25,1.5,0.75,0.75,1.25,-0.36,0.58,-0.86,194.21,-4.1,7.2
4.02,0.0,0.0,1.0,1.25,0.0,0.0,0.25,0.0,0.25,1.5,0.75,0.0,0.5,0.08,0.83,-0.55,73.69,8.4,-16.9,1.25,1.0,1.75,0.5,1.5,2.0,0.25,0.5,0.25,1.5,0.75,0.75,1.0,-0.3,0.58,-0.86,191.93,-4.4,9.6
4.04,0.0,0.0,1.5,0.75,0.0,0.0,0.25,0.0,0.25,1.0,0.5,0.0,0.5,0.2,0.89,-0.61,73.38,13.2,-7.4,1.0,1.0,1.5,0.75,1.5,1.75,0.25,0.5,0.25,3.0,1.25,1.0,1.0,-0.23,0.58,-0.86,196.98,-2.2,-5.6
4.06,0.0,0.0,1.5,1.0,0.0,0.0,0.25,0.0,0.25,1.25,0.75,0.0,0.25,0.2,0.89,-0.67,75.93,13.2,-5.5,0.75,1.0,1.75,0.5,1.5,2.0,0.25,0.5,0.25,1.5,1.0,1.25,1.25,-0.17,0.58,-0.86,197.67,-3.3,-1.6
4.08,0.0,0.0,1.0,1.0,0.0,0.0,0.0,0.0,0.25,1.25,0.75,0.0,0.5,0.14,0.83,-0.73,75.52,8.6,-19.0,1.0,1.0,1.75,0.5,1.5,1.75,0.25,0.0,0.25,1.5,1.0,0.75,1.25,-0.17,0.58,-0.8,195.47,-5.0,5.3
4.1,0.0,0.0,1.5,1.25,0.0,0.0,0.0,0.0,0.25,1.25,0.75,0.0,0.5,0.08,0.77,-0.73,79.0,11.7,-8.1,1.25,1.0,1.75,0.5,1.5,2.0,0.25,0.25,0.25,1.5,1.0,0.75,1.25,-0.23,0.58,-0.8,192.96,-4.6,6.6
4.12,0.0,0.0,1.5,0.75,0.0,0.0,0.0,0.0,0.25,1.25,0.75,0.0,0.25,0.08,0.7,-0.73,77.03,12.5,-9.8,0.75,1.0,1.5,0.5,1.5,2.0,0.25,0.25,0.25,1.5,0.75,0.75,1.25,-0.23,0.64,-0.8,187.08,-2.6,3.6
4.14,0.0,0.0,1.0,1.0,0.0,0.0,0.0,0.0,0.25,0.75,1.0,0.0,0.25,0.08,0.7,-0.73,73.96,12.9,-10.2,1.0,1.0,1.0,0.5,1.0,1.75,0.25,0.5,0.25,1.5,1.5,0.75,1.25,-0.23,0.64,-0.8,181.81,-2.6,-5.5
4.16,0.0,0.0,1.5,0.75,0.0,0.0,0.0,0.0,0.75,1.25,0.75,0.0,0.25,0.14,0.7,-0.67,75.23,12.5,-12.5,0.75,1.0,1.25,0.5,1.0,2.0,0.25,0.25,0.25,1.5,1.0,0.75,1.25,-0.23,0.58,-0.8,174.86,-2.3,-1.6
4.18,0.0,0.0,1.25,1.25,0.0,0.0,0.0,0.0,0.5,1.25,1.0,0.0,0.5,0.14,0.7,-0.73,79.9,10.5,-15.2,1.25,1.0,1.5,0.5,1.5,2.0,0.25,0.25,0.25,1.5,1.0,0.75,1.25,-0.23,0.64,-0.8,176.58,-3.9,5.5
4.2,0.0,0.0,1.0,0.75,0.0,0.0,0.0,0.0,0.5,0.75,0.75,0.0,0.25,0.14,0.7,-0.73,75.07,12.7,-12.4,0.75,1.0,1.5,0.5,1.5,1.75,0.25,0.25,0.25,1.5,1.25,0.75,1.25,-0.23,0.58,-0.8,178.41,-3.4,0.0
4.22,0.0,0.0,1.25,0.75,0.0,0.0,0.0,0.0,0.25,0.5,0.75,0.25,0.5,0.14,0.77,-0.73,71.88,14.1,-14.3,0.75,1.0,1.0,0.5,1.0,2.0,0.25,0.0,0.25,1.5,1.0,0.75,1.0,-0.23,0.58,-0.86,173.42,-2.3,0.2
4.24,0.0,0.0,1.5,1.0,0.0,0.0,0.0,0.0,0.25,1.0,1.0,0.0,0.5,0.14,0.77,-0.73,72.59,12.7,-11.2,1.0,1.0,1.25,0.5,1.0,1.75,0.25,0.25,0.25,1.25,0.75,0.75,1.0,-0.23,0.58,-0.86,166.76,-4.1,5.5
4.26,0.5,0.0,0.5,0.5,0.0,0.0,0.0,0.0,0.25,0.5,1.0,0.0,0.25,0.08,0.7,-0.73,65.62,13.5,-11.8,1.25,1.0,1.75,0.5,1.5,2.0,0.25,0.0,0.25,1.5,1.0,0.75,1.25,-0.23,0.58,-0.86,170.91,-5.0,7.5
4.28,0.0,0.0,1.0,0.75,0.0,0.0,0.25,0.0,0.25,0.75,0.75,0.0,0.25,0.08,0.7,-0.73,62.62,13.3,-9.6,1.0,1.0,1.75,0.5,1.5,1.75,0.25,0.25,0.25,1.5,1.0,0.75,1.25,-0.23,0.58,-0.8,175.34,-4.5,4.4
4.3,0.25,0.0,1.5,1.0,0.0,0.0,0.25,0.0,0.25,1.25,0.75,0.5,0.5,0.08,0.7,-0.73,70.6,12.5,-14.3,1.0,1.0,1.5,0.5,1.75,2.0,0.25,0.25,0.25,1.5,0.75,0.75,1.25,-0.23,0.58,-0.8,182.83,-3.1,6.5
4.32,0.25,0.0,1.0,1.0,0.0,0.0,0.25,0.0,0.25,1.0,1.25,0.25,0.5,0.08,0.7,-0.73,77.52,11.5,-19.5,0.75,1.0,1.0,0.5,1.25,1.75,0.25,0.0,0.25,1.25,1.0,1.0,1.0,-0.23,0.58,-0.8,178.31,-3.2,0.1
4.34,0.75,0.0,1.25,0.75,0.0,0.0,0.0,0.0,0.25,1.25,1.0,0.5,0.5,0.08,0.7,-0.73,86.26,12.5,-15.3,1.0,1.0,1.75,0.5,1.5,2.0,0.25,0.0,0.25,1.5,1.5,0.75,1.25,-0.23,0.64,-0.8,182.38,-4.7,2.9
4.36,1.0,0.0,1.5,0.75,0.0,0.0,0.0,0.0,0.25,1.0,0.75,0.0,0.25,0.08,0.7,-0.73,90.29,17.6,11.4,1.0,1.0,1.5,0.5,1.5,2.0,0.25,0.0,0.25,1.5,1.25,0.75,1.25,-0.23,0.64,-0.8,182.97,-3.9,3.2
4.38,0.25,0.0,1.0,0.5,0.0,0.0,0.0,0.0,0.25,0.75,1.25,0.25,0.25,0.08,0.7,-0.73,85.49,13.2,-21.5,0.75,1.0,1.25,0.5,1.5,1.75,0.25,0.0,0.25,1.5,1.25,0.75,1.0,-0.23,0.64,-0.8,182.01,-3.4,1.9
4.4,0.5,0.0,1.25,1.0,0.0,0.0,0.25,0.0,0.25,1.25,0.75,0.25,0.5,0.08,0.7,-0.73,85.05,12.5,-9.2,1.25,1.0,1.75,0.5,1.5,2.0,0.25,0.0,0.25,1.5,0.75,0.75,1.0,-0.23,0.64,-0.8,182.92,-5.3,11.5
4.42,0.75,0.0,1.5,1.0,0.0,0.0,0.0,0.0,0.5,1.0,0.75,0.25,0.25,0.08,0.7,-0.73,88.13,16.3,3.0,1.0,1.0,1.75,0.5,1.5,2.0,0.25,0.0,0.25,1.5,1.0,0.75,1.25,-0.23,0.64,-0.8,184.36,-4.4,5.8
4.44,1.0,0.0,1.0,0.5,0.0,0.0,0.0,0.0,0.25,1.25,0.75,0.25,0.5,0.08,0.7,-0.73,90.39,12.3,-10.6,0.75,1.0,1.75,0.75,1.5,2.0,0.25,0.0,0.25,1.5,1.0,0.75,1.25,-0.23,0.64,-0.8,186.88,-4.2,5.2
4.46,1.25,0.0,1.25,1.0,0.0,0.0,0.0,0.0,0.25,1.25,0.5,0.0,0.25,0.08,0.7,-0.73,91.91,16.2,14.7,1.0,1.0,1.75,0.5,1.5,1.5,0.25,0.0,0.25,1.5,0.75,0.75,1.25,-0.17,0.64,-0.86,185.27,-5.4,6.3
4.48,1.25,0.0,1.0,1.0,0.0,0.0,0.0,0.0,0.25,1.25,1.0,0.0,0.5,0.08,0.7,-0.73,94.67,13.6,0.6,0.5,1.0,1.5,0.5,1.5,2.0,0.0,0.0,0.25,1.5,1.25,1.25,1.25,-0.17,0.58,-0.8,184.38,-2.7,-4.9
4.5,1.25,0.0,1.0,1.0,0.0,0.0,0.0,0.0,0.0,1.0,1.0,0.5,0.5,0.08,0.7,-0.73,97.15,14.5,-3.5,0.75,1.0,1.5,0.5,1.5,1.25,0.25,0.0,0.25,1.5,0.75,0.75,1.25,-0.17,0.64,-0.8,176.71,-4.6,2.6
4.52,1.25,0.0,1.25,1.0,0.0,0.0,0.0,0.0,0.0,1.25,0.5,0.5,0.5,0.08,0.7,-0.73,97.47,14.5,1.8,0.75,1.0,1.5,0.5,1.5,2.0,0.25,0.0,0.25,1.25,1.0,0.75,1.0,-0.17,0.64,-0.86,174.63,-3.9,7.0
4.54,1.0,0.0,1.25,0.75,0.0,0.0,0.0,0.0,0.0,0.75,0.75,0.5,0.25,0.02,0.7,-0.73,92.62,17.6,4.0,0.75,1.0,1.25,0.5,1.75,1.75,0.25,0.0,0.25,1.5,1.0,0.75,1.25,-0.17,0.64,-0.8,173.73,-2.8,2.3
4.56,1.25,0.0,0.75,0.75,0.0,0.0,0.25,0.0,0.0,1.0,0.5,0.5,0.5,0.08,0.7,-0.8,89.21,13.9,-2.4,0.75,1.0,1.75,0.5,1.0,2.0,0.0,0.0,0.25,1.0,1.25,0.75,1.0,-0.17,0.64,-0.8,172.03,-5.4,5.7
4.58,1.25,0.0,1.25,1.0,0.0,0.0,0.0,0.0,0.0,1.25,0.5,0.5,0.25,0.08,0.7,-0.73,88.8,15.7,6.6,0.75,1.0,1.75,0.5,1.5,2.0,0.25,0.0,0.25,1.5,1.25,0.75,1.25,-0.17,0.64,-0.8,174.83,-4.0,2.6
4.6,1.25,0.0,1.0,1.0,0.0,0.0,0.0,0.0,0.0,1.0,0.75,0.5,0.25,0.08,0.7,-0.73,89.51,15.9,4.2,0.5,1.0,1.75,0.5,1.5,1.75,0.25,0.0,0.25,1.5,0.75,0.75,1.0,-0.17,0.64,-0.8,174.24,-4.1,5.8
4.62,1.25,0.0,1.0,1.25,0.0,0.0,0.0,0.0,0.0,1.25,1.0,0.5,0.5,0.08,0.7,-0.73,95.17,13.5,-3.8,0.5,1.0,0.75,0.75,1.0,2.0,0.25,0.0,0.25,1.5,1.0,0.75,1.0,-0.17,0.64,-0.8,169.37,-1.0,-1.9
4.64,0.75,0.0,1.0,1.25,0.0,0.0,0.0,0.0,0.0,0.75,0.75,0.5,0.5,0.08,0.7,-0.73,92.49,14.4,-2.7,0.75,1.0,1.75,0.5,1.0,1.75,0.25,0.0,0.25,1.5,0.75,0.25,1.25,-0.17,0.64,-0.8,164.04,-4.5,7.8
4.66,1.25,0.0,1.0,1.0,0.0,0.0,0.0,0.0,0.0,1.0,0.75,0.5,0.5,0.08,0.7,-0.73,93.35,14.6,-0.6,1.0,1.0,1.5,0.5,1.5,1.75,0.25,0.0,0.25,1.5,0.75,0.75,1.25,-0.17,0.64,-0.8,166.24,-4.1,5.7
4.68,1.25,0.0,1.0,1.0,0.0,0.0,0.0,0.0,0.0,1.0,0.5,0.25,0.25,0.08,0.7,-0.73,88.88,16.5,13.3,0.5,1.0,1.75,0.5,1.5,1.75,0.25,0.0,0.25,1.5,0.75,0.75,1.0,-0.17,0.64,-0.8,167.72,-4.1,5.8
4.7,1.25,0.0,1.0,0.5,0.0,0.0,0.0,0.0,0.0,1.25,0.75,0.25,0.75,0.08,0.7,-0.73,87.39,12.0,-9.4,0.5,1.0,1.0,0.5,1.25,1.25,0.25,0.0,0.25,1.5,1.0,0.75,1.0,-0.17,0.64,-0.8,163.67,-3.1,-2.8
4.72,1.0,0.0,0.75,1.0,0.0,0.0,0.0,0.0,0.0,1.0,0.75,0.0,0.25,0.08,0.7,-0.73,81.51,14.5,8.5,0.75,1.0,2.75,0.5,1.25,1.75,0.0,0.0,0.25,1.5,0.75,0.75,1.25,-0.17,0.64,-0.8,170.44,-6.9,8.3
4.74,0.75,0.0,1.0,1.0,0.0,0.0,0.0,0.0,0.0,1.25,0.5,0.25,0.5,0.08,0.7,-0.73,80.49,11.8,-4.3,1.0,1.0,1.75,0.5,1.5,1.5,0.25,0.0,0.25,1.25,1.0,0.75,1.0,-0.17,0.64,-0.8,172.29,-6.4,8.9
4.76,1.0,0.0,0.75,1.0,0.0,0.0,0.0,0.0,0.0,0.75,0.5,0.25,0.5,0.08,0.7,-0.73,76.87,14.4,4.6,1.0,1.0,1.0,0.5,1.5,2.0,0.25,0.0,0.25,1.25,0.75,0.75,1.25,-0.17,0.64,-0.8,173.44,-2.5,5.6
4.78,0.75,0.0,0.75,0.75,0.0,0.0,0.0,0.0,0.0,1.25,0.75,0.25,0.25,0.08,0.7,-0.73,74.74,11.4,-9.2,0.75,1.0,1.75,0.5,1.5,1.75,0.25,0.0,0.25,1.5,0.75,0.75,1.25,-0.17,0.64,-0.8,174.95,-4.3,5.1
4.8,0.25,0.0,1.0,1.0,0.0,0.0,0.0,0.0,0.0,1.0,0.75,0.5,0.5,0.08,0.7,-0.73,72.87,10.9,-18.8,0.75,1.0,1.5,0.5,0.0,1.5,0.25,0.0,0.25,1.5,1.0,0.75,1.25,-0.17,0.64,-0.8,167.16,-5.5,-7.1
4.82,1.25,0.0,1.25,1.0,0.0,0.0,0.0,0.0,0.0,1.0,0.5,0.0,0.25,0.08,0.7,-0.73,75.12,17.9,21.5,1.25,1.0,1.25,0.5,1.5,2.0,0.25,0.0,0.25,1.25,1.25,0.75,1.0,-0.23,0.64,-0.8,169.2,-4.5,7.7
4.84,1.25,0.0,0.75,1.25,0.0,0.0,0.0,0.0,0.0,0.75,0.5,0.0,0.0,0.08,0.7,-0.73,74.51,19.2,32.1,0.5,1.0,1.5,0.5,1.75,1.75,0.25,0.0,0.25,1.25,0.75,0.75,1.25,-0.23,0.64,-0.8,169.54,-3.1,5.0
4.86,1.25,0.0,0.75,1.0,0.0,0.0,0.0,0.0,0.0,1.0,0.75,0.25,0.0,0.08,0.7,-0.73,75.63,16.6,12.9,0.75,1.0,1.0,0.5,1.5,2.0,0.25,0.0,0.25,1.5,1.0,0.75,1.0,-0.17,0.64,-0.8,172.25,-2.0,2.8
4.88,1.25,0.0,1.0,0.5,0.0,0.0,0.0,0.0,0.0,1.0,1.0,0.5,0.0,0.08,0.7,-0.73,77.45,17.0,0.7,1.25,1.0,1.75,0.5,1.5,1.75,0.25,0.0,0.25,1.5,1.25,0.75,1.25,-0.17,0.64,-0.8,177.79,-5.6,5.4
4.9,1.25,0.0,1.25,1.0,0.0,0.0,0.0,0.0,0.0,1.0,0.5,0.5,0.0,0.08,0.7,-0.73,81.0,18.6,15.8,1.0,1.0,1.25,0.5,1.5,1.5,0.25,0.0,0.25,1.5,1.0,0.75,1.0,-0.17,0.64,-0.8,177.51,-4.5,4.8
4.92,1.25,0.0,1.25,1.0,0.0,0.0,0.0,0.0,0.0,0.5,0.75,0.5,0.25,0.08,0.7,-0.73,84.33,19.8,14.2,1.0,1.0,1.75,0.5,1.5,1.75,0.25,0.0,0.25,1.5,0.75,0.75,1.0,-0.17,0.64,-0.8,179.41,-5.2,9.4
4.94,1.25,0.0,0.75,1.0,0.0,0.0,0.0,0.0,0.0,1.25,0.75,0.25,0.0,0.08,0.7,-0.73,85.5,15.1,8.7,1.25,1.0,1.5,0.5,0.5,1.25,0.25,0.0,0.25,1.25,0.75,0.75,1.25,-0.17,0.64,-0.8,170.82,-7.4,3.1
4.96,1.25,0.0,0.75,0.75,0.0,0.0,0.0,0.0,0.0,1.0,0.5,0.25,0.0,0.08,0.7,-0.73,81.93,16.9,15.1,1.25,1.0,1.75,0.5,1.5,1.75,0.25,0.0,0.25,1.5,1.0,0.75,1.25,-0.17,0.64,-0.8,174.57,-5.5,7.0
4.98,1.25,0.0,1.0,1.0,0.0,0.0,0.0,0.0,0.0,1.25,0.5,0.25,0.25,0.08,0.7,-0.73,82.42,15.0,9.3,1.25,1.0,1.75,0.5,1.5,1.25,0.25,0.0,0.25,1.5,1.0,0.75,1.0,-0.17,0.64,-0.8,175.42,-7.0,8.4
5.0,1.25,0.0,1.0,0.5,0.0,0.0,0.0,0.0,0.0,1.0,0.5,0.25,0.0,0.08,0.7,-0.73,78.42,18.1,15.2,1.0,1.0,1.75,0.5,1.5,1.5,0.25,0.0,0.25,1.5,0.75,0.75,1.25,-0.17,0.64,-0.8,179.34,-5.4,6.3
5.02,1.25,0.0,1.25,1.0,0.0,0.0,0.0,0.0,0.0,0.75,0.5,0.5,0.0,0.08,0.7,-0.73,80.28,20.2,20.1,1.0,1.0,1.0,0.5,1.25,1.5,0.25,0.0,0.25,1.5,1.0,0.75,1.0,-0.17,0.64,-0.8,174.36,-3.9,2.2
