time,left pressure 0[N/cm²],left pressure 1[N/cm²],left pressure 2[N/cm²],left pressure 3[N/cm²],left pressure 4[N/cm²],left pressure 5[N/cm²],left pressure 6[N/cm²],left pressure 7[N/cm²],left pressure 8[N/cm²],left pressure 9[N/cm²],left pressure 10[N/cm²],left pressure 11[N/cm²],left pressure 12[N/cm²],left acceleration X[g],left acceleration Y[g],left acceleration Z[g],left total force[N],left center of pressure X[mm],left center of pressure Y[mm],right pressure 0[N/cm²],right pressure 1[N/cm²],right pressure 2[N/cm²],right pressure 3[N/cm²],right pressure 4[N/cm²],right pressure 5[N/cm²],right pressure 6[N/cm²],right pressure 7[N/cm²],right pressure 8[N/cm²],right pressure 9[N/cm²],right pressure 10[N/cm²],right pressure 11[N/cm²],right pressure 12[N/cm²],right acceleration X[g],right acceleration Y[g],right acceleration Z[g],right total force[N],right center of pressure X[mm],right center of pressure Y[mm]
0.02,1.5,0.0,2.0,1.0,0.0,0.0,0.25,0.75,0.5,1.25,1.5,0.0,0.75,0.08,1.27,1.2,70.44,13.7,-1.1,5.5,0.0,7.75,5.0,4.75,4.0,8.5,1.0,0.25,0.0,0.25,0.25,0.5,0.02,0.14,0.89,495.29,-17.2,49.3
0.04,1.75,0.0,2.25,1.0,0.0,0.0,0.25,0.75,0.25,0.75,1.5,0.0,0.75,0.39,0.95,1.27,88.57,16.6,8.3,5.5,0.0,7.75,5.0,5.25,4.5,8.5,1.0,0.25,0.0,0.25,0.25,0.0,0.02,0.14,0.89,473.57,-16.8,51.6
0.06,1.75,0.0,2.0,1.25,0.0,0.0,0.25,0.75,0.25,0.75,1.5,0.0,0.75,0.45,0.83,1.39,100.8,16.0,8.2,5.5,0.0,7.75,4.0,5.5,4.5,8.5,1.5,0.25,0.25,0.5,0.25,0.0,0.02,0.14,0.89,460.51,-15.9,48.3
0.08,2.25,0.0,2.0,1.0,0.0,0.0,0.25,0.75,0.5,1.25,1.5,0.5,0.75,0.39,0.95,1.58,117.09,14.9,0.3,6.25,0.5,7.5,3.25,5.25,4.5,8.5,2.5,0.75,1.5,1.5,1.75,0.75,0.08,0.14,0.95,489.11,-13.3,30.7
0.1,2.25,0.0,1.5,1.0,0.0,0.0,0.25,0.75,0.5,0.5,1.5,0.25,0.75,0.39,0.83,1.64,128.13,16.3,6.2,5.5,0.0,7.5,4.75,4.75,5.75,8.25,3.75,1.0,4.0,2.75,2.5,1.5,0.08,0.14,0.95,563.45,-9.6,14.9
0.12,2.25,0.0,2.25,1.0,0.0,0.0,0.25,0.75,0.5,0.5,1.5,0.25,0.5,0.14,0.64,1.7,144.71,18.9,13.7,4.25,0.0,7.0,3.25,4.5,4.5,7.75,4.0,1.0,4.0,3.75,2.5,2.5,0.08,0.08,0.95,618.42,-8.5,4.9
0.14,2.25,0.0,2.25,1.0,0.0,0.0,0.25,0.75,0.5,1.25,1.25,0.5,0.75,0.02,0.45,1.64,158.03,15.6,3.5,3.25,0.0,6.25,2.0,5.0,4.0,7.25,4.0,0.75,5.5,5.0,3.25,3.25,0.08,0.08,0.95,655.01,-6.1,-7.4
0.16,0.0,0.0,2.0,1.25,0.0,0.0,0.25,0.75,0.5,0.5,1.5,0.5,0.5,-0.17,0.14,1.52,152.57,13.4,-13.2,2.5,0.0,5.5,1.75,3.25,3.5,6.25,4.75,0.5,6.25,6.0,3.75,4.25,0.08,0.08,0.95,659.03,-4.4,-20.4
0.18,0.0,0.0,2.0,0.5,0.0,0.0,0.25,0.75,0.5,0.5,1.25,1.0,0.5,-0.23,-0.11,1.39,136.54,12.8,-25.6,1.75,0.0,4.75,0.5,0.5,2.75,5.0,4.25,0.0,6.75,6.0,4.5,5.0,0.08,0.08,0.95,625.4,-3.1,-38.3
0.2,0.0,0.0,1.75,0.5,0.0,0.0,0.25,0.75,0.5,0.5,1.25,0.5,0.5,-0.3,-0.3,1.39,113.67,12.1,-22.6,0.5,0.0,2.75,0.5,1.5,2.0,3.5,4.0,0.5,6.75,6.5,5.0,6.0,0.08,0.08,0.95,583.34,0.0,-51.1
0.22,0.0,0.0,2.25,1.0,0.0,0.0,0.25,0.0,0.5,0.5,1.25,0.5,0.5,-0.3,-0.42,1.27,98.63,17.7,-8.0,0.5,0.0,2.75,0.5,1.0,2.0,2.5,3.75,0.25,7.0,5.0,5.25,6.25,0.02,0.08,0.95,542.35,0.9,-54.0
0.24,0.0,0.0,2.0,1.0,0.0,0.0,0.25,0.0,0.25,1.25,1.5,0.5,0.5,-0.36,-0.55,1.02,94.19,13.5,-18.8,0.0,0.0,2.5,0.5,1.0,1.25,2.25,3.25,0.0,6.75,5.75,5.25,6.5,0.08,0.14,1.14,509.93,1.0,-60.1
0.26,0.0,0.0,2.25,0.5,0.0,0.0,0.25,0.0,0.25,1.25,1.0,0.5,0.5,-0.36,-0.73,0.77,92.71,14.4,-17.6,0.0,0.0,2.5,0.5,0.5,0.0,2.25,2.25,0.25,6.25,5.25,5.25,6.5,0.08,0.2,1.27,465.67,-0.5,-66.0
0.28,0.0,0.0,1.5,1.5,0.0,0.0,0.25,0.0,0.25,0.75,1.0,0.0,0.5,-0.3,-0.73,0.27,88.02,14.8,-1.2,0.0,0.0,1.75,0.5,0.5,0.0,2.0,1.75,0.25,5.5,2.75,4.5,6.0,0.08,0.14,1.2,399.38,0.8,-67.5
0.3,0.0,0.0,0.0,1.75,0.0,0.0,0.5,0.0,0.25,0.0,0.75,0.0,0.0,-1.48,-2.23,1.77,69.33,16.4,15.8,0.0,0.0,1.75,0.5,0.5,0.0,1.75,1.0,0.0,3.75,2.5,3.5,5.75,0.14,0.14,1.39,330.02,-0.1,-66.1
0.32,0.0,0.0,1.75,2.0,0.0,0.0,0.75,0.0,0.25,0.0,0.5,0.0,0.0,-0.92,-2.05,1.33,64.55,25.0,39.1,0.0,0.0,1.75,0.5,1.0,0.25,1.75,0.5,0.25,1.25,1.5,2.25,4.0,0.08,0.2,1.52,252.65,-3.4,-48.6
0.34,0.0,0.0,0.0,0.0,0.0,0.0,1.5,0.0,0.0,0.0,0.0,0.0,0.0,-1.98,-2.36,0.95,38.82,32.4,27.3,0.0,0.0,1.0,0.5,0.5,1.25,1.5,1.0,0.25,1.0,0.25,1.25,2.5,0.2,0.27,1.33,175.13,0.8,-36.5
0.36,5.25,0.0,4.5,3.5,0.0,0.0,4.75,0.0,0.0,0.5,0.0,0.5,0.0,-2.17,-1.8,3.2,111.67,29.2,57.3,0.0,0.0,1.5,0.5,0.25,0.0,1.75,1.0,0.25,0.25,0.25,0.5,1.5,-0.11,0.52,1.2,100.45,-8.9,-21.0
0.38,0.0,0.25,0.0,4.25,0.0,0.0,6.75,0.0,0.0,0.0,0.0,0.0,0.0,-0.36,0.14,1.89,128.7,23.2,46.8,0.5,0.0,2.75,0.75,1.25,2.0,2.0,1.0,0.25,1.25,1.25,1.25,2.5,-0.23,2.64,-0.3,94.5,-4.8,-13.9
0.4,0.0,0.0,8.25,6.75,0.0,0.0,8.25,0.75,0.0,2.0,0.0,0.0,0.0,-0.17,0.14,1.14,220.39,23.8,38.4,0.0,0.0,1.5,0.25,0.5,0.0,1.25,0.75,0.0,0.0,0.0,0.5,1.0,-1.3,1.95,1.02,56.92,-11.1,-7.6
0.42,7.25,1.0,8.75,6.75,0.0,1.25,8.5,1.0,0.0,2.0,0.75,0.75,0.5,-0.17,0.14,1.27,320.41,22.8,43.7,0.0,0.0,1.0,0.25,0.5,0.0,1.25,1.0,0.25,0.0,0.0,0.5,1.0,-0.92,1.77,0.89,39.71,-7.2,-17.3
0.44,6.75,1.0,8.75,6.75,0.0,1.75,8.5,2.5,0.75,3.0,2.0,2.5,1.75,-0.17,0.08,1.14,477.51,17.6,21.0,0.0,0.0,1.5,0.0,0.25,0.0,1.25,0.75,0.25,0.0,0.0,0.25,0.5,-0.17,1.58,0.52,7.37,-15.0,0.8
0.46,6.75,1.0,8.25,6.0,3.25,2.0,8.25,2.5,1.0,2.75,2.25,2.0,2.0,-0.11,0.08,1.02,625.22,15.3,23.1,0.0,0.0,1.0,0.0,0.5,0.0,1.0,1.0,0.0,0.0,0.0,0.5,0.75,-0.11,1.14,0.89,0.0,-6.9,-16.3
0.48,6.25,1.0,7.75,4.0,0.0,1.5,7.5,2.5,0.25,2.25,0.75,1.75,1.75,-0.11,0.08,0.95,662.93,18.1,24.8,0.0,0.0,1.25,0.25,0.25,0.0,1.0,0.5,0.0,0.0,0.0,0.25,0.75,-0.23,0.89,1.39,0.0,-13.4,-2.4
0.5,5.75,1.0,6.75,4.0,0.0,1.25,6.25,2.5,0.0,2.25,0.0,2.0,1.5,-0.11,0.08,0.95,629.25,17.6,25.3,0.0,0.0,1.0,0.25,0.5,0.0,1.0,0.75,0.0,0.0,0.25,0.25,1.0,-0.3,0.7,1.52,5.59,-7.7,-14.2
0.52,4.5,0.75,6.25,4.0,0.0,1.25,5.5,2.25,0.0,2.0,0.0,1.75,1.25,-0.11,0.08,0.95,542.88,17.3,24.8,0.0,0.0,1.0,0.25,0.0,0.0,1.25,0.75,0.25,0.0,0.25,0.25,0.5,-0.36,0.58,1.58,19.73,-13.2,-11.9
0.54,4.5,0.25,5.75,2.5,0.0,1.25,4.75,2.5,0.75,2.25,1.5,2.0,1.75,-0.11,0.08,0.95,478.86,15.0,8.4,0.0,0.0,0.75,0.0,0.5,0.0,1.0,1.0,0.0,0.0,0.25,0.25,0.5,-0.36,0.52,1.58,29.85,-6.3,-12.9
0.56,4.5,0.0,4.0,3.0,0.0,1.5,4.0,2.5,2.25,3.25,0.75,2.5,2.0,-0.11,0.08,0.95,431.13,11.5,-1.3,0.0,0.0,0.5,0.0,0.25,0.0,1.0,0.75,0.25,0.0,0.25,0.25,0.5,-0.23,0.39,1.39,35.42,-6.8,-24.5
0.58,3.5,0.0,0.0,2.75,0.0,2.0,2.75,3.25,0.0,4.0,0.25,3.5,0.0,-0.11,0.08,0.95,367.52,3.9,-11.8,0.0,0.0,0.75,0.0,0.0,0.0,1.0,0.0,0.0,0.0,0.0,0.25,0.75,0.02,0.14,1.33,32.14,-16.1,-22.8
0.6,3.0,0.0,1.5,2.0,0.0,1.25,2.75,3.25,1.0,4.75,0.0,3.25,3.75,-0.11,0.08,0.95,327.93,2.7,-29.4,0.0,0.0,0.5,0.0,0.0,0.0,1.0,0.5,0.0,0.0,0.0,0.25,0.5,0.2,-0.17,1.2,26.34,-9.7,-26.0
0.62,3.25,0.0,1.0,2.0,0.0,1.25,2.25,3.5,1.0,5.25,2.5,4.0,4.5,-0.11,0.08,0.95,323.94,2.0,-39.3,0.0,0.0,0.5,0.0,0.0,0.0,1.0,0.75,0.0,0.0,0.0,0.25,0.5,0.33,-0.36,0.89,21.7,-7.1,-27.3
0.64,3.75,0.0,0.75,2.0,0.0,1.25,1.75,4.0,1.0,5.25,2.75,4.0,4.75,-0.17,0.08,0.95,327.67,1.5,-39.4,0.0,0.0,0.5,0.0,0.25,0.0,1.0,0.75,0.0,0.0,0.0,0.25,0.5,0.39,-0.42,0.83,32.12,-6.0,-18.9
0.66,3.75,0.0,1.0,2.0,0.0,1.25,1.75,4.25,1.0,5.75,3.25,4.5,5.5,-0.11,0.14,0.95,353.98,1.3,-42.4,0.0,0.0,0.75,0.0,0.0,0.0,1.5,0.25,0.0,0.0,0.0,0.25,0.75,0.27,-0.48,0.89,34.18,-14.5,-19.9
0.68,3.5,0.0,2.25,2.0,0.0,1.25,1.0,4.25,1.25,6.25,4.0,4.5,5.75,-0.17,0.08,0.95,395.99,2.0,-41.9,0.0,0.0,0.25,0.0,0.25,0.0,1.0,0.5,0.0,0.0,0.0,0.25,1.0,0.08,-0.55,0.95,37.58,-1.4,-41.2
0.7,3.25,0.0,2.25,2.0,0.0,0.75,1.0,4.25,0.0,6.25,3.75,4.75,6.0,-0.17,0.08,0.95,431.99,1.7,-44.9,0.0,0.0,0.5,0.0,0.5,0.0,1.0,0.0,0.0,0.0,0.0,0.25,0.75,0.08,-0.67,0.77,37.82,-9.6,-14.1
0.72,2.25,0.0,2.5,2.0,0.0,0.5,0.75,4.25,0.75,6.25,4.0,5.0,6.25,-0.17,0.08,0.95,465.75,1.3,-49.8,0.0,0.0,0.0,0.0,0.0,0.0,1.0,0.0,0.0,0.0,0.0,0.25,0.5,0.14,-0.73,0.7,31.01,-8.5,-56.9
0.74,0.0,0.0,2.0,2.0,0.0,0.5,0.5,4.25,0.75,6.25,4.0,5.25,6.75,-0.17,0.08,0.95,477.34,-1.7,-63.0,0.0,0.0,0.25,0.25,0.25,0.0,1.0,0.0,0.25,1.25,0.0,0.5,0.5,0.2,-2.11,0.83,37.86,-2.5,-40.9
0.76,1.25,0.0,2.25,2.0,0.0,0.0,0.5,4.25,0.75,6.25,3.25,5.5,7.0,-0.17,0.08,0.95,484.76,0.0,-58.1,1.25,0.0,1.0,1.75,0.25,1.0,2.0,1.0,0.0,0.0,0.5,0.25,1.5,0.02,-0.98,1.33,76.97,-9.4,8.9
0.78,2.25,0.0,2.5,0.25,0.0,0.0,0.25,4.25,0.75,6.5,3.0,5.75,7.5,-0.17,0.08,1.02,485.92,-0.2,-60.7,1.25,0.25,2.5,1.5,0.5,0.0,2.75,0.0,0.0,0.0,0.0,0.25,0.75,1.64,-1.67,2.02,110.71,-23.8,40.3
0.8,0.0,0.0,2.25,1.75,0.0,0.0,0.25,3.75,0.5,7.0,3.25,5.75,7.5,-0.23,0.08,1.02,487.23,-1.9,-67.1,1.5,0.0,5.0,3.25,3.5,0.0,5.75,0.0,0.0,1.25,0.0,0.75,0.75,0.14,0.64,3.45,191.01,-18.2,34.7
0.82,0.0,0.0,1.5,1.25,0.0,0.0,0.25,2.75,0.5,6.25,4.0,6.0,7.5,-0.23,0.08,1.08,477.21,-2.1,-73.9,3.0,0.0,7.0,5.25,6.0,3.5,7.75,1.0,0.0,0.0,0.25,0.5,0.75,0.08,0.08,1.83,297.54,-14.6,44.4
0.84,2.0,0.0,1.75,2.0,0.0,0.0,0.25,2.5,0.5,7.0,3.25,6.0,8.0,-0.3,0.08,1.08,470.34,0.0,-60.9,3.75,0.0,6.75,5.25,6.0,5.75,8.5,0.0,0.0,0.0,0.0,0.0,0.75,0.02,0.02,1.45,414.38,-13.7,50.3
0.86,1.75,0.0,0.0,1.25,0.0,0.0,0.25,2.5,0.25,6.75,3.25,5.75,8.0,-0.23,0.08,1.08,449.89,-3.0,-72.4,5.25,0.5,7.75,5.5,6.75,6.5,8.75,1.0,0.0,0.0,0.0,0.25,0.5,-0.05,0.08,1.08,555.71,-13.5,50.4
0.88,1.75,0.0,0.0,1.25,0.0,0.0,0.25,2.25,0.0,6.25,3.25,5.75,8.0,-0.23,0.02,1.2,431.61,-2.8,-72.9,5.5,0.5,7.75,7.25,7.0,7.5,8.75,3.0,0.75,2.25,0.5,1.0,0.75,0.14,0.14,1.02,713.99,-10.1,35.3
0.9,1.0,0.0,0.0,1.0,0.0,0.0,0.25,1.75,0.25,5.5,3.25,4.0,7.0,-0.3,0.08,1.33,387.53,-3.6,-75.3,6.0,1.5,8.5,6.25,8.25,7.25,9.0,5.5,0.25,2.75,2.25,1.75,1.25,0.14,0.14,1.02,888.58,-8.8,27.2
0.92,1.5,0.0,0.0,1.0,0.0,0.0,0.0,1.0,0.0,4.0,2.0,2.0,6.5,-0.36,0.08,1.45,327.31,-3.6,-68.8,5.5,1.5,8.25,5.5,8.0,7.25,8.75,5.75,0.0,2.75,2.5,1.75,2.25,0.08,0.08,0.95,1011.2,-7.8,22.9
0.94,0.0,0.0,0.0,0.0,0.0,0.0,0.25,1.0,0.0,1.75,1.75,0.75,4.25,-0.3,0.08,1.45,249.24,-7.7,-88.6,4.25,0.5,7.75,3.25,7.0,6.5,8.25,5.25,0.5,1.25,1.5,0.5,1.25,0.08,0.14,0.95,999.94,-8.3,28.2
0.96,0.0,0.0,0.5,0.5,0.0,0.0,0.0,0.25,0.0,0.25,0.25,0.0,3.25,-0.23,0.14,1.39,157.46,-4.4,-68.8,3.5,0.5,6.75,3.25,6.25,6.0,8.0,5.25,0.25,1.25,0.75,0.5,1.5,0.08,0.14,0.95,909.91,-7.4,27.0
0.98,0.0,0.0,0.75,0.25,0.0,0.0,0.0,0.25,0.0,0.25,0.0,0.0,0.0,-0.23,0.27,1.08,57.87,16.9,21.9,3.0,0.0,6.75,3.25,5.25,5.75,7.5,4.5,0.25,1.0,0.75,0.5,0.75,0.08,0.14,0.95,768.0,-8.5,29.1
1.0,0.0,0.0,1.5,0.25,0.0,0.0,0.0,0.75,0.0,0.5,1.25,0.0,1.25,0.2,1.27,0.64,5.28,6.9,-34.2,2.25,0.0,5.5,2.75,4.75,4.75,7.0,4.0,0.25,1.25,0.75,0.5,0.5,0.08,0.14,0.95,626.29,-7.9,26.6
1.02,0.0,0.0,0.75,0.25,0.0,0.0,0.0,0.0,0.0,0.5,0.0,0.0,0.0,0.39,1.14,0.83,0.0,17.0,15.9,1.75,0.0,5.0,1.5,4.5,4.5,6.5,4.25,0.25,1.5,1.5,1.25,1.5,0.02,0.14,0.95,520.0,-5.8,11.8
1.04,0.0,0.0,1.0,0.25,0.0,0.0,0.0,0.0,0.0,0.5,0.0,0.0,0.25,0.14,1.08,0.89,0.0,15.8,5.8,0.5,0.0,4.0,0.5,1.25,3.5,5.75,4.75,0.5,3.0,2.25,2.5,1.75,0.08,0.08,0.95,414.43,-3.3,-17.2
1.06,0.0,0.0,0.5,0.0,0.0,0.0,0.0,0.0,0.0,0.25,0.0,0.0,0.0,0.27,1.2,0.52,0.0,20.6,16.3,0.5,0.0,2.75,0.5,1.0,2.75,5.0,5.0,0.25,4.75,2.75,3.25,3.25,0.02,0.08,0.95,360.32,-0.1,-34.9
1.08,0.0,0.0,0.0,0.0,0.0,0.0,0.0,0.0,0.0,0.0,0.0,0.0,0.5,0.33,1.2,0.77,0.0,-13.7,-109.8,0.75,0.0,2.75,0.5,1.0,2.25,4.25,5.25,0.25,6.0,4.0,4.5,4.25,0.02,0.08,0.95,351.78,0.0,-43.7
1.1,0.0,0.0,1.0,0.75,0.0,0.0,0.25,0.75,0.5,1.0,1.0,0.75,0.75,0.27,0.89,1.02,0.0,6.1,-37.8,0.0,0.0,2.5,0.5,1.0,2.0,3.25,5.25,0.5,6.5,5.0,5.5,5.75,0.02,0.08,0.95,375.21,1.4,-54.5
1.12,0.0,0.0,0.0,0.25,0.0,0.0,0.25,0.5,0.0,0.5,0.25,0.25,0.5,0.14,0.52,1.2,0.0,-4.2,-59.0,0.0,0.0,2.5,0.5,0.5,2.0,3.0,5.25,0.75,7.0,6.0,5.5,6.5,0.02,0.08,0.95,416.49,1.5,-58.3
1.14,0.0,0.0,0.75,0.5,0.0,0.0,0.25,0.75,0.25,0.5,1.5,0.25,1.0,0.08,0.39,1.27,28.03,5.1,-43.5,0.0,0.0,1.75,0.5,0.5,2.0,2.75,5.25,0.75,7.5,6.0,6.25,7.25,0.02,0.08,0.95,474.91,2.7,-63.1
1.16,1.25,0.0,0.5,0.5,0.0,0.0,0.25,0.75,0.5,0.75,1.5,0.75,0.75,0.02,0.2,1.2,62.63,9.1,-27.7,0.0,0.0,1.75,0.5,0.5,2.0,2.25,5.25,0.5,7.5,6.0,6.25,7.75,0.02,0.08,0.95,529.85,3.1,-64.4
1.18,0.0,0.0,0.75,1.0,0.0,0.0,0.25,0.75,0.5,0.5,1.5,0.5,0.75,-0.05,0.02,1.14,90.37,7.2,-34.9,0.0,0.0,1.0,0.5,0.5,2.0,2.25,5.25,0.5,7.5,6.0,6.25,7.75,0.02,0.08,0.95,568.78,3.9,-67.0
1.2,0.0,0.0,0.75,0.5,0.0,0.0,0.25,0.75,0.5,0.5,1.25,0.75,1.0,-0.11,-0.05,1.27,101.86,5.4,-47.4,0.0,0.0,1.0,0.25,0.5,2.0,2.0,5.25,0.25,7.75,5.75,6.25,8.0,0.02,0.08,0.95,586.77,4.5,-68.6
1.22,2.0,0.0,0.75,1.0,0.0,0.0,0.5,0.75,0.5,0.75,1.25,0.75,1.0,-0.23,-0.11,1.2,120.45,12.1,-10.5,0.0,0.0,1.0,0.0,0.5,1.75,1.75,5.25,0.25,8.0,5.25,6.5,8.0,0.02,0.08,0.95,594.58,4.9,-70.7
1.24,0.0,0.0,0.5,0.75,0.0,0.0,0.25,1.0,0.5,0.5,1.25,0.5,0.75,-0.36,-0.17,1.14,117.33,4.3,-41.7,0.0,0.0,1.0,0.5,0.5,1.25,1.25,5.25,0.25,8.0,5.5,6.5,8.25,0.02,0.08,0.95,599.11,4.5,-71.1
1.26,0.0,0.0,1.0,0.5,0.0,0.0,0.25,0.0,0.5,0.75,0.75,0.5,0.75,-0.42,-0.17,1.14,110.72,9.8,-35.3,0.0,0.0,1.0,0.5,0.5,1.25,1.0,5.25,0.25,8.25,5.75,6.75,8.25,0.08,0.08,0.95,602.33,4.6,-71.7
1.28,0.5,0.0,1.0,0.5,0.0,0.0,0.25,0.0,0.5,0.5,1.25,0.5,0.75,-0.55,-0.3,1.08,100.81,13.1,-25.9,0.0,0.0,0.25,1.25,0.5,2.0,1.0,5.0,0.25,8.25,6.0,6.75,9.25,0.08,0.08,0.95,615.89,5.3,-71.1
1.3,0.0,0.0,0.75,0.25,0.0,0.0,0.25,0.0,0.5,0.5,1.0,0.5,0.75,-0.48,-0.3,1.02,89.11,9.2,-46.4,0.0,0.0,0.75,0.0,0.25,1.25,1.0,4.25,0.0,8.25,6.0,7.0,8.75,0.08,0.08,1.02,603.18,4.9,-77.4
1.32,1.5,0.0,0.75,0.75,0.0,0.0,0.25,0.0,0.25,0.5,1.0,0.5,0.0,-0.36,-0.23,0.95,82.89,20.0,10.9,0.0,0.0,0.75,0.0,0.5,0.5,1.0,4.0,0.0,8.0,5.5,7.0,9.0,0.08,0.08,1.08,582.17,4.6,-79.1
1.34,1.25,0.0,0.75,0.5,0.0,0.0,0.5,0.0,0.5,0.5,0.75,0.5,0.75,-0.23,-0.17,1.02,80.01,15.2,-9.2,0.0,0.0,0.0,0.5,0.25,0.0,1.0,4.0,0.0,7.75,5.25,7.0,9.75,0.08,0.08,1.02,558.73,5.2,-83.5
1.36,0.0,0.0,0.75,1.0,0.0,0.0,0.0,0.0,0.25,0.5,0.5,0.0,0.75,-0.11,-0.17,0.95,74.9,9.7,-15.9,0.0,0.0,0.25,0.25,0.5,0.0,1.0,3.0,0.25,7.25,5.0,6.75,9.0,0.08,0.02,1.08,527.68,4.5,-82.6
1.38,0.0,0.0,0.75,1.25,0.0,0.0,0.25,0.0,0.25,0.5,0.5,0.0,0.75,-0.48,-0.3,2.14,65.8,10.8,-10.0,0.0,0.0,0.25,0.25,0.25,0.0,1.0,2.5,0.25,6.25,4.0,6.25,8.5,0.14,0.08,1.2,480.83,4.4,-84.3
1.4,0.0,0.0,0.75,2.0,0.0,0.0,0.25,0.0,0.0,0.5,0.75,0.0,0.25,0.02,-1.23,0.89,62.17,14.7,11.3,0.0,0.0,0.5,0.25,0.0,0.0,1.0,2.5,0.0,5.5,3.25,5.5,8.0,0.14,0.08,1.33,426.12,4.5,-84.1
1.42,0.0,0.0,0.75,1.25,0.0,0.0,1.25,0.0,0.0,0.25,1.25,0.0,0.5,-1.05,-2.42,1.39,63.17,15.8,-5.8,0.0,0.0,0.0,0.0,0.25,0.0,1.0,1.75,0.25,2.75,2.0,4.0,6.25,0.08,0.02,1.39,345.1,4.8,-86.5
1.44,0.0,0.0,1.25,1.75,0.0,0.0,1.75,0.0,0.0,0.0,0.0,0.0,0.0,-1.73,-2.92,2.02,62.68,27.2,52.4,0.0,0.0,0.0,0.0,0.0,0.0,1.0,1.0,0.25,1.25,0.75,2.5,5.0,0.08,0.14,1.45,260.12,5.1,-90.2
1.46,0.0,0.0,0.0,0.5,0.0,0.0,3.25,0.0,0.0,0.0,0.0,0.0,0.0,-0.42,0.33,1.33,52.14,28.5,35.0,0.0,0.0,0.25,0.0,0.0,0.0,1.0,1.0,0.0,1.25,0.5,2.25,3.5,0.08,0.14,0.83,180.23,3.7,-84.0
1.48,4.75,0.75,0.0,4.0,0.0,1.5,1.0,0.0,0.0,2.0,0.0,1.0,0.0,-0.23,0.08,1.2,111.89,13.8,38.8,0.0,0.0,0.0,0.0,0.0,0.0,1.0,1.0,0.25,1.25,0.0,2.25,2.75,0.02,1.39,0.14,111.54,4.5,-85.3
1.5,5.25,1.0,5.25,4.0,2.0,2.0,5.25,3.5,1.0,3.75,1.75,3.0,1.75,-0.05,0.39,1.02,255.72,11.0,8.1,0.0,0.0,0.0,0.0,0.0,0.0,1.0,1.0,0.0,1.0,0.5,1.5,2.5,-0.67,0.83,1.33,62.36,4.8,-83.1
1.52,5.25,1.0,5.25,4.0,1.25,2.0,5.25,4.25,1.5,3.75,3.25,3.0,3.0,-0.17,-0.05,1.02,397.22,10.0,-1.1,0.0,0.0,0.0,0.0,0.0,0.0,1.0,1.0,0.25,1.0,0.25,1.25,2.75,-0.36,0.89,0.89,38.05,5.5,-81.8
1.54,5.0,1.0,5.25,4.0,2.25,2.0,5.25,4.25,0.0,3.75,2.25,3.0,3.0,-0.11,0.08,0.95,542.86,9.4,3.2,0.0,0.0,0.25,0.0,0.0,0.0,1.0,1.0,0.0,0.5,0.5,1.75,2.5,-0.05,0.89,0.52,32.07,1.9,-79.3
1.56,3.25,0.75,5.25,4.0,2.0,2.0,5.25,4.25,0.0,3.75,2.5,3.0,3.0,-0.11,0.08,0.95,610.31,8.3,-2.5,0.0,0.0,0.25,0.0,0.0,0.0,1.0,1.0,0.0,0.5,0.0,1.0,2.25,-0.17,0.64,0.64,23.73,3.9,-74.1
1.58,4.5,1.0,4.25,4.0,1.0,1.5,5.0,4.25,0.0,3.75,2.5,3.0,3.0,-0.11,0.08,0.95,619.31,9.1,-2.8,0.0,0.0,0.0,0.0,0.0,0.0,1.0,1.0,0.0,0.0,0.25,1.0,2.25,-0.11,0.45,0.83,20.03,4.2,-81.0
1.6,4.5,0.75,4.5,4.0,0.0,1.25,4.75,4.25,0.75,3.75,2.5,3.0,3.0,-0.11,0.08,0.95,594.68,9.9,-6.1,0.0,0.0,0.0,0.0,0.0,0.0,1.0,1.0,0.25,0.25,0.25,1.0,2.0,-0.05,0.39,0.83,24.9,3.5,-77.3
1.62,4.25,0.5,4.0,3.75,0.0,1.25,4.75,3.5,1.0,3.75,2.5,3.0,3.0,-0.11,0.14,0.95,562.81,9.8,-8.7,0.0,0.0,0.0,0.0,0.0,0.0,1.0,1.0,0.0,0.25,0.25,1.0,1.75,-0.11,0.33,0.95,33.03,3.8,-77.6
1.64,3.75,0.0,4.0,3.0,0.0,1.0,4.0,3.0,0.75,3.75,2.25,3.0,3.0,-0.11,0.14,0.95,516.01,9.6,-13.5,0.0,0.0,0.0,0.0,0.0,0.0,1.0,1.0,0.0,0.0,0.0,0.75,1.5,-0.11,0.2,1.02,38.26,4.1,-73.5
1.66,3.75,0.0,2.25,1.25,0.0,2.0,3.5,2.75,2.25,2.75,1.5,3.0,3.0,-0.11,0.14,0.95,450.32,7.0,-19.5,0.5,0.0,0.0,0.5,0.0,0.0,1.0,1.0,0.0,0.0,0.0,0.75,1.5,-0.05,0.14,1.02,50.09,-2.0,-42.2
1.68,2.75,0.0,1.0,2.25,0.0,0.5,3.5,2.75,0.75,3.75,1.5,3.0,3.0,-0.11,0.14,0.95,378.63,5.1,-29.8,0.0,0.0,0.0,0.0,0.0,0.0,1.0,1.0,0.0,0.0,0.0,1.0,1.75,0.08,0.08,1.02,56.71,4.0,-77.8
1.7,3.75,0.0,1.0,2.25,0.0,0.5,3.25,3.0,0.75,4.0,1.75,3.75,3.75,-0.11,0.14,0.95,337.34,5.2,-31.1,0.0,0.0,0.0,0.0,0.0,0.0,1.0,1.0,0.25,0.0,0.5,1.0,1.5,0.2,0.14,1.08,62.71,1.1,-73.8
1.72,2.25,0.0,1.0,2.25,0.0,0.5,3.0,3.5,0.75,4.5,2.5,4.0,4.25,-0.11,0.08,0.95,310.77,2.6,-42.5,0.0,0.0,0.0,0.0,0.0,0.0,1.0,1.0,0.0,0.0,0.25,1.0,1.5,0.27,0.08,1.14,64.95,2.5,-75.8
1.74,3.0,0.0,0.0,2.25,0.0,0.5,2.75,3.75,0.75,5.25,0.0,4.25,4.5,-0.11,0.14,0.95,297.9,0.3,-42.3,0.0,0.0,0.0,0.0,0.0,0.0,1.0,1.0,0.0,0.0,0.0,0.75,1.25,0.33,0.08,1.08,62.63,3.4,-70.9
1.76,3.75,0.0,0.0,2.25,0.0,0.5,2.75,3.5,0.75,5.25,3.5,4.75,5.5,-0.11,0.14,0.95,328.04,2.0,-46.1,0.0,0.0,0.0,0.0,0.0,0.0,1.0,0.75,0.0,0.0,0.0,0.5,1.5,0.39,0.08,1.08,57.02,4.2,-73.4
1.78,3.75,0.0,0.75,2.0,0.0,0.5,2.25,3.25,1.0,5.5,3.75,5.0,5.75,-0.11,0.08,0.95,363.24,2.6,-46.4,0.0,0.0,0.0,0.0,0.0,0.0,1.0,1.0,0.0,0.0,0.0,0.75,1.5,0.39,0.14,1.02,55.87,4.1,-73.5
1.8,3.75,0.0,0.25,2.0,0.0,0.5,2.0,4.25,1.0,6.25,4.0,5.0,6.25,-0.11,0.08,0.95,406.03,0.8,-49.8,0.0,0.0,0.0,0.0,0.0,0.0,1.0,1.0,0.0,0.0,0.0,1.0,1.5,0.33,0.2,1.02,58.89,3.3,-75.8
1.82,3.0,0.0,1.0,2.0,0.0,0.5,1.75,4.25,1.0,6.25,4.25,5.0,6.25,-0.11,0.08,0.95,443.37,0.9,-50.8,0.0,0.0,2.25,0.0,0.0,0.0,1.0,1.0,0.0,0.0,0.0,0.5,1.25,0.27,0.27,0.95,67.9,-13.3,-14.4
1.84,2.75,0.0,0.75,2.0,0.0,0.5,1.75,4.25,0.75,6.25,3.75,5.25,6.25,-0.11,0.14,0.95,468.78,0.2,-52.9,0.0,0.0,0.0,0.0,0.0,0.25,0.75,0.75,0.25,0.5,0.25,1.0,1.5,0.08,0.33,2.27,75.1,4.2,-73.0
1.86,2.25,0.0,1.75,2.0,0.0,0.5,1.5,4.25,0.75,6.25,4.25,5.5,6.5,-0.11,0.14,0.95,489.28,0.9,-53.0,0.0,0.0,0.0,0.0,0.0,0.0,1.0,1.0,0.0,1.0,0.75,1.0,2.25,1.08,-4.11,3.02,90.93,4.9,-79.7
1.88,3.0,0.0,2.25,2.0,0.0,0.5,1.25,3.5,0.75,6.25,3.75,5.25,6.75,-0.11,0.08,0.95,500.0,2.1,-48.5,0.0,0.0,0.0,0.0,0.0,0.0,1.0,1.0,0.0,0.25,0.0,1.0,2.5,-0.3,-0.3,4.14,95.67,5.9,-82.4
1.9,2.75,0.0,1.75,2.0,0.0,0.0,1.0,4.25,1.0,6.25,3.5,5.0,6.75,-0.11,0.08,0.95,503.27,1.1,-51.7,0.0,0.0,0.0,0.5,0.0,0.0,1.0,1.0,0.0,0.75,0.25,1.0,2.25,-0.61,0.95,3.27,102.71,3.8,-68.8
1.92,1.5,0.0,2.0,2.0,0.0,0.25,1.0,4.25,0.75,6.25,2.75,5.0,6.5,-0.11,0.08,0.95,488.5,-0.1,-54.7,0.5,0.5,1.0,2.0,0.5,1.25,1.0,1.0,0.25,2.5,1.5,2.75,3.5,-0.11,0.27,1.27,158.19,-1.2,-37.9
1.94,0.0,0.0,1.5,0.0,0.0,0.0,1.0,4.0,0.0,0.0,3.5,0.0,6.25,-0.17,0.14,0.95,383.64,-2.7,-63.7,0.0,0.0,2.5,0.5,1.0,0.0,2.75,1.0,0.25,1.25,0.75,2.5,3.75,0.02,0.27,1.14,195.04,-5.9,-40.2
1.96,2.75,0.0,0.0,2.5,0.0,1.5,0.0,0.0,2.75,3.25,0.0,3.75,0.0,-0.17,0.14,0.95,298.66,7.2,-18.9,0.5,0.0,2.75,0.5,0.5,0.75,3.25,1.0,0.0,1.25,0.5,2.5,3.25,0.02,0.2,0.95,224.13,-7.2,-30.4
1.98,2.0,0.0,0.5,2.0,0.0,0.25,1.0,4.0,0.75,6.25,4.0,4.75,6.25,-0.11,0.14,0.95,299.54,-0.9,-58.2,0.25,0.0,2.75,0.5,0.5,1.5,4.75,1.0,0.0,1.25,0.5,3.25,3.5,-0.05,0.2,0.89,242.46,-6.4,-31.7
2.0,2.0,0.0,0.75,2.0,0.0,0.0,1.25,3.75,0.75,5.5,3.75,4.25,6.25,-0.11,0.14,0.95,318.69,0.0,-56.2,1.0,0.0,2.75,1.25,1.0,2.0,5.5,1.0,0.0,2.5,0.75,3.25,4.25,0.08,0.2,0.95,271.58,-5.4,-25.6
2.02,1.75,0.0,1.75,2.0,0.0,0.0,1.25,3.25,0.75,5.25,3.25,4.0,5.75,-0.11,0.14,0.95,348.74,1.4,-51.6,1.5,0.0,4.25,1.75,1.0,2.0,6.5,1.0,0.0,4.0,2.0,4.5,4.25,0.02,0.14,0.89,318.3,-7.5,-24.9
2.04,0.0,0.0,2.0,2.0,0.0,0.0,1.0,2.5,0.75,4.0,2.75,3.0,4.5,-0.11,0.14,0.95,336.14,1.1,-54.4,1.5,0.0,5.25,3.0,1.25,3.5,7.25,3.5,0.5,5.5,4.0,5.5,6.0,0.08,0.08,1.02,433.55,-4.8,-27.9
2.06,0.0,0.0,1.5,0.25,0.0,0.0,0.5,1.5,0.75,2.0,1.5,3.0,3.25,-0.11,0.14,0.95,284.64,1.4,-65.8,1.5,0.0,6.5,3.0,3.25,3.5,7.5,4.0,0.25,5.5,4.25,5.25,6.25,0.08,0.08,0.95,576.77,-5.0,-21.7
2.08,1.5,0.0,1.75,1.75,0.0,0.0,0.75,1.75,0.5,3.5,2.0,3.0,3.5,-0.05,0.2,1.2,251.47,4.1,-43.6,2.0,0.25,5.5,3.25,4.5,4.0,7.5,4.25,0.0,4.75,3.5,5.0,6.0,0.08,0.08,0.95,694.83,-4.3,-15.8
2.1,0.0,0.0,0.75,1.75,0.0,0.0,0.25,1.0,0.5,1.75,1.25,1.75,3.0,-0.11,0.14,1.14,203.45,1.0,-54.5,1.5,0.0,6.0,2.75,4.5,3.75,7.5,4.25,0.25,4.25,3.0,4.5,5.75,0.14,0.14,0.95,745.84,-4.6,-15.1
2.12,2.25,0.0,1.0,1.75,0.0,0.0,0.5,1.25,0.75,2.0,1.5,2.0,2.0,-0.17,0.27,1.52,186.13,7.7,-27.3,2.0,0.0,6.25,3.0,4.25,3.75,8.0,4.5,0.25,4.0,4.0,4.5,5.5,0.08,0.08,0.95,770.0,-5.6,-13.8
2.14,0.0,0.0,1.5,0.0,0.0,0.0,1.75,0.0,0.75,0.0,0.0,0.5,0.0,-0.23,0.39,1.7,123.36,27.5,9.3,2.0,0.0,6.75,2.75,5.25,4.0,8.0,4.0,0.25,3.25,2.75,4.25,4.5,0.08,0.08,0.95,754.67,-6.4,-5.6
2.16,0.0,0.0,1.25,1.25,0.0,0.0,0.25,1.0,0.5,2.0,1.0,1.5,1.75,0.08,1.2,1.2,113.19,3.1,-46.4,1.75,0.0,6.75,2.75,3.25,3.5,8.25,3.25,0.25,2.75,3.25,4.0,5.0,0.08,0.08,0.95,712.26,-7.7,-10.0
2.18,1.5,0.0,1.5,0.75,0.0,0.0,0.25,1.25,0.5,2.0,0.5,1.0,1.25,-0.05,3.45,0.08,99.74,7.2,-21.7,2.25,0.0,6.75,2.75,1.5,3.5,8.25,2.5,0.25,2.25,2.0,3.5,2.5,0.02,0.14,0.95,639.05,-11.1,0.6
2.2,0.0,0.0,1.5,0.75,0.0,0.0,0.5,0.75,0.5,1.25,0.75,1.0,0.75,0.7,3.64,0.89,84.89,7.9,-32.4,2.5,0.0,6.75,3.0,1.0,2.75,8.5,2.5,0.25,1.25,2.75,3.0,3.0,-0.23,0.08,0.83,562.35,-12.8,0.8
2.22,0.0,0.0,1.5,0.0,0.0,0.0,0.5,0.75,0.0,0.5,0.5,1.0,0.25,0.39,3.45,1.7,51.03,11.9,-29.3,3.75,0.0,6.75,3.25,1.0,3.5,8.5,2.0,0.75,2.75,2.0,3.25,2.5,0.08,0.02,1.02,511.18,-12.5,4.2
2.24,0.0,0.0,1.75,1.0,0.0,0.0,0.25,0.75,0.0,0.0,1.0,0.5,0.0,-0.36,2.95,1.95,43.93,17.9,3.2,1.75,0.0,6.75,2.25,1.0,2.0,8.5,1.0,0.25,1.25,0.75,2.75,2.0,-0.05,0.2,0.89,426.53,-16.0,8.9
2.26,0.0,0.0,1.75,1.25,0.0,0.0,0.5,0.75,0.25,0.5,1.0,1.0,0.0,-0.48,2.14,1.95,46.85,14.8,-9.7,3.25,0.0,7.25,2.75,1.0,2.0,8.75,1.25,0.25,1.25,1.5,2.5,1.5,0.02,0.08,0.95,383.81,-17.6,15.7
2.28,0.0,0.0,0.0,1.5,0.0,0.0,0.75,0.5,0.0,0.0,0.25,0.75,0.75,-7.17,-6.73,5.39,45.11,6.9,-24.7,3.0,0.0,7.75,2.25,0.5,2.0,8.75,1.0,0.25,1.0,1.25,2.25,1.75,0.02,0.14,1.08,344.98,-18.8,16.4
2.3,0.0,0.0,0.75,0.25,0.0,0.0,1.25,0.75,0.25,0.0,1.25,0.0,0.75,-1.23,-5.05,0.58,49.67,10.0,-29.5,2.75,0.0,7.75,1.75,1.25,2.0,9.0,2.0,0.25,0.0,0.25,2.0,1.0,-0.05,0.02,1.02,325.84,-19.3,26.1
2.32,0.0,0.0,1.5,0.25,0.0,0.0,0.5,0.0,0.0,0.5,1.25,0.25,0.0,1.77,2.58,-3.98,43.69,19.6,-10.1,2.5,0.0,6.75,1.25,0.5,2.0,8.25,1.0,0.25,0.0,0.75,1.5,1.25,0.02,0.2,0.95,295.66,-20.3,24.0
2.34,0.25,0.0,1.0,0.0,0.0,0.0,0.5,0.25,0.0,0.5,1.25,0.5,0.75,-0.48,3.08,1.52,51.51,10.6,-39.3,3.0,0.0,6.75,2.75,0.5,2.25,8.25,1.0,0.25,1.25,0.5,2.5,0.75,-0.05,0.08,0.83,295.22,-18.5,21.1
2.36,0.0,0.0,1.0,0.25,0.0,0.0,0.0,0.75,0.0,0.5,1.25,0.75,0.5,-0.8,2.64,2.58,55.87,7.2,-43.6,4.25,0.0,7.25,3.25,1.0,2.75,8.25,1.0,0.25,1.5,0.5,2.0,0.75,-0.05,0.2,0.77,309.77,-18.3,27.9
2.38,0.0,0.0,1.5,1.25,0.0,0.0,0.5,0.5,0.5,0.5,1.5,0.0,0.25,-0.86,-1.48,2.89,73.32,14.5,-5.9,4.25,0.0,7.5,3.25,1.25,3.5,8.75,1.75,0.25,1.25,1.0,2.0,2.25,-0.05,0.2,0.95,353.7,-15.3,19.7
2.4,0.75,0.0,0.75,1.25,0.0,0.0,0.5,0.75,0.5,0.75,1.5,1.0,0.0,0.39,-0.61,-1.36,84.05,12.1,-16.8,3.25,0.0,7.75,2.75,3.25,3.0,8.5,2.5,0.25,0.5,0.75,1.25,1.5,0.02,0.14,0.89,391.49,-14.9,27.2
2.42,0.0,0.0,0.75,1.25,0.0,0.0,0.5,0.75,0.5,1.5,1.5,0.25,0.5,0.08,-0.17,-0.11,98.03,5.5,-30.9,3.75,0.0,6.75,3.0,1.0,4.5,8.0,1.0,0.25,2.0,0.5,2.5,1.5,0.02,0.14,0.83,417.56,-13.9,19.0
2.44,0.0,0.0,1.25,1.25,0.0,0.0,0.25,0.5,0.5,1.5,1.25,0.75,0.5,-0.11,0.27,0.83,110.18,8.1,-29.1,2.5,0.0,6.75,1.25,4.75,4.5,7.25,2.5,0.25,2.25,0.75,2.5,1.75,0.02,0.14,1.08,440.94,-8.8,13.6
2.46,0.0,0.0,0.75,0.5,0.0,0.0,0.25,0.0,0.5,1.5,0.25,0.75,0.75,0.33,0.27,0.58,105.51,4.5,-45.7,1.75,0.0,5.0,0.5,1.0,4.0,5.5,2.5,0.25,3.5,2.25,2.5,2.5,0.08,0.08,1.02,419.57,-6.1,-11.4
2.48,0.0,0.0,0.75,1.0,0.0,0.0,0.25,0.75,0.5,1.75,1.25,1.0,0.5,0.08,1.02,0.2,109.58,4.2,-42.6,0.5,0.0,2.75,0.25,0.5,3.25,3.5,3.25,0.25,5.5,3.0,3.25,3.25,0.02,0.02,1.02,400.45,0.4,-39.3
2.5,0.0,0.0,0.75,0.5,0.0,0.0,0.25,0.5,0.25,0.75,0.0,1.0,0.0,0.33,0.77,0.45,92.85,8.7,-29.2,0.25,0.0,2.75,0.0,0.5,2.0,3.0,3.75,0.25,6.25,4.0,4.25,4.25,-0.05,0.27,0.95,390.34,0.6,-51.6
2.52,0.0,0.0,1.0,1.0,0.0,0.0,0.25,0.5,0.25,2.0,1.25,0.0,1.25,-0.55,-0.11,0.95,100.91,2.6,-38.4,0.0,0.0,2.0,0.25,0.0,2.0,2.25,3.25,0.0,7.0,6.0,5.25,6.0,-0.05,0.08,1.2,415.03,1.9,-64.4
2.54,0.0,0.0,1.0,0.75,0.0,0.0,0.25,0.0,0.25,2.0,1.5,2.25,2.0,-1.17,-0.11,1.52,118.6,3.6,-63.5,0.0,0.0,1.25,0.5,0.0,2.0,2.0,2.75,0.0,8.25,5.25,5.5,7.25,0.02,0.02,1.08,450.55,3.8,-69.3
2.56,0.0,0.0,0.75,0.75,0.0,0.0,0.25,0.5,0.5,2.0,1.25,2.0,2.5,-1.23,0.52,1.89,143.96,0.8,-65.7,0.0,0.0,1.0,0.5,0.0,1.5,1.75,2.5,0.0,8.0,6.25,5.5,8.0,0.52,0.14,0.95,488.05,3.6,-73.3
2.58,0.0,0.0,1.0,0.5,0.0,0.0,0.25,1.0,0.5,2.0,1.5,2.0,2.75,-1.05,0.33,1.45,165.6,0.4,-65.7,0.25,0.0,0.5,0.25,0.0,1.25,1.25,2.5,0.0,8.25,5.0,6.5,7.75,0.14,-0.23,1.2,500.42,4.4,-77.5
2.6,0.0,0.0,1.5,1.0,0.0,0.0,0.25,0.75,0.5,0.5,1.0,0.0,1.25,-0.8,-1.11,1.64,154.47,8.8,-21.1,0.25,0.0,1.0,0.5,1.0,1.25,1.75,2.5,0.0,7.75,6.5,6.25,8.25,0.27,-0.3,1.14,519.11,2.8,-69.9
2.62,0.0,0.0,0.5,1.0,0.0,0.0,0.25,0.5,0.25,0.5,0.75,0.75,0.75,0.7,0.14,1.33,130.39,6.2,-37.2,0.0,0.0,1.0,1.0,1.0,2.0,1.25,2.5,0.0,8.25,6.0,6.5,8.25,0.7,-0.42,0.7,538.3,3.7,-68.1
2.64,0.0,0.0,0.75,1.0,0.0,0.0,0.25,0.75,0.5,1.25,1.25,0.0,0.5,1.77,0.83,-0.92,106.33,5.0,-29.1,0.0,0.0,1.0,1.0,1.0,2.0,1.0,2.5,0.0,8.25,6.0,6.5,8.25,0.7,-0.48,0.58,560.23,3.8,-68.4
2.66,0.0,0.0,0.25,0.5,0.0,0.0,0.5,0.75,0.5,1.25,1.5,0.0,4.0,5.77,-4.36,-1.42,113.85,-4.4,-71.7,0.0,0.0,1.25,0.5,0.5,2.0,1.0,1.25,0.0,8.0,6.0,6.25,8.25,0.83,-1.36,0.89,558.71,3.3,-72.1
2.68,0.0,0.0,0.0,0.75,0.0,0.0,0.25,0.75,0.0,3.5,0.75,0.0,4.5,-2.86,0.58,2.45,134.89,-10.0,-76.8,0.0,0.0,1.75,0.5,1.0,0.5,1.0,1.0,0.0,7.0,5.0,5.25,7.75,0.52,-1.11,1.52,523.94,1.9,-70.6
2.7,0.0,0.0,0.5,0.25,0.0,0.0,0.0,1.25,0.0,1.75,0.0,2.5,5.5,-0.73,0.52,2.95,166.81,-6.6,-86.3,0.0,0.0,1.0,0.25,0.5,1.25,1.0,1.0,0.0,5.25,3.75,3.5,5.75,0.52,-1.11,1.45,442.93,3.4,-69.2
2.72,0.0,0.0,0.0,0.75,0.0,0.0,0.0,0.75,0.0,2.0,0.0,2.0,4.5,0.95,-0.23,0.64,177.78,-7.5,-84.8,0.0,0.0,0.0,0.0,0.0,0.0,1.0,1.0,0.0,2.25,2.5,2.5,4.25,0.14,-0.3,1.45,327.79,3.7,-87.0
2.74,0.0,0.0,0.0,0.25,0.0,0.0,0.0,0.75,0.0,2.25,0.25,2.75,4.5,0.52,-1.11,0.58,186.67,-7.3,-93.0,0.0,0.0,0.0,0.0,0.0,0.0,1.0,0.5,0.0,0.5,1.5,1.0,2.5,-0.3,-0.11,1.89,218.75,1.7,-83.9
2.76,0.0,0.0,0.0,0.5,0.0,0.0,0.0,1.0,0.0,2.25,0.25,2.0,3.5,-1.11,-2.42,1.2,176.96,-7.5,-84.4,0.25,0.0,0.25,0.5,0.0,0.0,1.0,0.25,0.0,0.0,0.25,1.25,2.25,-0.05,0.14,2.45,116.8,-3.6,-60.7
2.78,0.0,0.0,0.0,0.5,0.0,0.0,0.0,0.5,0.0,1.25,0.5,1.0,3.0,-1.92,-2.17,1.45,156.75,-6.9,-83.1,0.0,0.0,0.75,0.0,0.0,0.0,1.0,0.25,0.0,0.0,0.5,1.25,1.5,-0.3,1.08,1.89,38.68,-7.5,-61.2
2.8,0.0,0.0,0.25,0.5,0.0,0.0,0.25,0.75,0.25,1.25,0.5,0.75,1.75,-2.3,-2.17,1.77,133.59,-3.1,-64.7,0.0,0.0,0.0,0.0,0.0,0.0,1.0,1.0,0.0,0.5,0.75,1.0,1.75,0.39,0.89,1.77,1.67,3.1,-77.3
2.82,0.0,0.0,0.0,0.5,0.0,0.0,0.0,0.25,0.25,1.0,0.75,0.5,1.75,-0.92,0.52,0.77,110.47,-4.0,-73.6,0.0,0.0,0.5,0.0,0.0,0.0,1.0,0.5,0.0,0.0,0.0,1.0,1.5,0.7,0.7,1.39,0.0,-3.6,-62.9
2.84,0.0,0.0,0.0,0.25,0.0,0.0,0.25,0.25,0.25,1.25,0.0,0.5,1.25,-0.17,1.39,0.64,89.39,-6.5,-74.4,0.0,0.0,0.0,0.0,0.0,0.0,1.0,0.0,0.0,0.0,0.25,1.0,1.5,0.45,0.14,0.39,0.0,-1.7,-87.1
2.86,0.0,0.0,0.75,1.0,0.0,0.0,0.25,0.75,0.0,1.25,0.25,0.0,1.25,0.52,1.2,0.7,75.38,0.7,-31.4,0.0,0.0,0.75,0.0,0.0,0.0,1.0,0.0,0.0,0.0,0.25,1.0,1.5,0.39,-0.05,0.39,0.0,-8.7,-58.7
2.88,0.0,0.0,0.75,0.5,0.0,0.0,0.25,0.0,0.25,1.0,0.0,0.0,1.0,0.33,1.02,2.08,57.33,4.2,-31.8,0.0,0.0,0.25,0.0,0.0,0.0,1.0,0.25,0.0,0.0,0.0,0.5,1.25,0.45,-0.3,0.33,0.0,-2.8,-63.8
2.9,0.0,0.0,0.75,0.25,0.0,0.0,0.25,0.0,0.25,1.0,0.5,0.5,1.0,-0.42,0.58,1.83,49.09,4.7,-50.7,0.0,0.0,2.0,0.5,0.5,0.75,1.0,0.25,0.25,0.75,0.0,0.75,1.25,0.52,-0.55,0.58,4.44,-8.0,-9.8
2.92,0.0,0.0,0.75,0.5,0.0,0.0,0.25,0.0,0.25,1.0,0.75,0.5,1.0,-0.73,0.64,0.39,47.52,5.6,-46.1,0.0,0.0,0.0,0.0,0.0,0.0,1.0,0.0,0.0,0.0,0.0,0.75,1.0,0.45,-0.67,0.58,16.0,-3.5,-80.7
2.94,2.0,0.0,0.75,0.5,0.0,0.0,0.5,0.0,0.25,1.0,0.5,0.0,0.5,-0.8,0.27,0.33,56.78,17.2,15.6,0.25,0.0,0.0,0.0,0.0,1.75,1.5,1.0,0.25,1.25,0.5,1.75,1.0,0.45,-0.73,0.33,63.06,3.9,-46.0
2.96,2.25,0.0,0.75,0.5,0.0,0.0,0.25,0.0,0.25,1.0,0.5,0.0,1.0,-0.8,-0.17,0.45,69.98,15.0,8.2,0.0,0.0,2.25,0.75,0.5,0.5,1.25,1.0,0.25,1.75,0.5,1.75,2.25,0.52,-0.55,0.27,111.23,-4.6,-33.5
2.98,2.25,0.0,0.75,0.5,0.0,0.0,0.25,0.0,0.25,1.0,0.0,0.0,1.0,-0.8,-0.67,0.45,79.33,15.3,15.2,0.5,0.0,2.5,0.5,0.5,0.5,1.5,1.0,0.25,1.25,0.75,1.75,2.25,0.58,-0.55,0.27,154.11,-7.3,-27.2
3.0,2.0,0.0,0.75,0.5,0.0,0.0,0.25,0.0,0.25,1.0,0.5,0.0,1.0,-0.86,-0.86,0.64,88.21,14.2,4.7,0.0,0.0,2.0,0.0,0.0,0.0,1.0,0.5,0.0,0.0,0.0,0.5,1.0,0.58,-0.61,0.27,142.06,-16.7,-10.6
3.02,2.25,0.0,0.5,0.5,0.0,0.0,0.25,0.0,0.5,1.0,0.25,0.0,0.75,-0.67,-0.92,0.45,92.57,15.3,12.6,0.0,0.0,0.25,0.0,0.0,0.25,1.0,0.25,0.0,0.0,0.0,0.75,0.75,0.39,-0.61,0.52,114.65,-4.3,-50.9
3.04,2.25,0.0,0.0,0.75,0.0,0.0,0.25,0.0,0.25,1.0,0.5,0.0,1.0,-0.55,-0.8,0.33,93.97,12.0,3.4,0.0,0.0,0.0,0.25,0.0,0.5,1.0,1.0,0.25,1.25,0.5,1.75,1.75,0.33,-0.73,0.52,106.54,3.6,-67.7
3.06,2.0,0.0,0.75,0.5,0.0,0.0,0.25,0.0,0.25,0.75,0.75,0.0,1.25,-0.55,-0.92,0.39,96.76,14.1,0.1,0.0,0.0,2.25,1.25,0.5,1.25,1.25,1.0,0.25,1.25,0.75,1.75,2.0,0.27,-0.55,0.45,130.33,-4.8,-23.8
3.08,0.0,0.0,0.75,0.75,0.0,0.0,0.5,0.0,0.25,0.75,0.25,0.0,1.0,-0.42,-0.92,0.39,86.97,7.5,-24.2,0.0,0.0,2.5,0.5,0.5,0.5,1.0,1.0,0.25,0.0,0.5,0.5,2.25,0.27,-0.67,0.45,143.67,-8.1,-15.9
3.1,0.75,0.0,0.75,0.25,0.0,0.0,0.25,0.0,0.25,0.75,0.75,0.0,0.75,-0.42,-0.98,0.45,78.27,11.7,-16.4,0.5,0.0,0.0,1.0,0.0,0.75,1.0,1.0,0.25,0.75,0.75,1.5,1.75,0.27,-0.61,0.39,151.91,-0.5,-43.3
3.12,0.0,0.0,0.75,0.75,0.0,0.0,0.25,0.0,0.25,0.75,0.5,0.0,1.0,-0.42,-1.48,0.45,69.02,6.9,-28.6,0.0,0.0,2.0,0.25,0.5,0.5,1.25,1.0,0.25,1.5,0.5,1.75,2.0,0.27,-0.55,0.39,157.8,-4.1,-37.3
3.14,1.75,0.0,0.5,0.5,0.0,0.0,0.25,0.0,0.25,0.75,0.75,0.0,0.75,-0.23,-1.55,0.95,69.66,14.8,3.6,0.25,0.0,2.25,0.75,1.0,0.0,1.25,1.0,0.25,1.5,0.5,1.0,1.75,0.27,-0.61,0.33,157.98,-7.0,-19.5
3.16,2.25,0.0,0.0,0.25,0.0,0.0,0.25,0.0,0.0,0.5,0.5,0.0,0.75,-0.17,-0.67,0.27,66.73,16.2,15.3,0.0,0.0,0.0,0.0,0.0,0.0,1.0,0.0,0.0,0.0,0.0,0.5,1.0,0.27,-0.55,0.33,121.39,-2.9,-77.1
3.18,2.25,0.0,0.75,0.5,0.0,0.0,0.25,0.0,0.25,0.5,0.75,0.0,0.75,-0.17,-0.48,0.27,75.12,18.8,17.2,0.0,0.0,0.25,0.5,0.0,0.5,1.0,0.75,0.25,1.25,0.75,1.5,1.5,0.33,-0.61,0.33,111.04,0.7,-57.6
3.2,2.25,0.0,0.25,0.5,0.0,0.0,0.5,0.0,0.25,0.5,0.0,0.0,0.75,-0.23,-0.36,0.7,75.3,18.2,27.1,0.25,0.25,2.0,0.75,1.0,0.5,1.25,1.0,0.25,1.5,0.5,1.5,1.75,0.33,-0.55,0.27,122.11,-5.3,-20.3
3.22,2.25,0.0,0.75,0.5,0.0,0.0,0.25,0.0,0.25,0.5,0.25,0.0,0.75,-0.36,-0.42,0.77,80.12,19.5,25.7,0.0,0.0,2.0,0.5,0.5,0.25,1.0,1.0,0.25,1.25,0.5,1.75,1.75,0.39,-0.61,0.27,140.16,-5.6,-34.6
3.24,1.25,0.0,0.75,0.5,0.0,0.0,0.25,0.0,0.25,0.5,0.75,0.0,0.5,-0.3,-0.42,0.39,76.93,17.3,7.9,0.0,0.0,2.25,0.5,0.5,0.5,1.25,1.0,0.25,1.25,0.5,1.5,1.75,0.45,-0.61,0.27,155.72,-6.0,-28.4
3.26,2.0,0.0,0.75,0.5,0.0,0.0,0.25,0.0,0.25,0.5,0.75,0.0,0.25,-0.23,-0.42,0.2,79.05,21.3,26.5,0.0,0.0,1.75,1.25,0.5,0.0,1.0,1.0,0.25,1.25,0.5,1.5,1.5,0.39,-0.61,0.2,157.7,-6.7,-27.7
3.28,2.25,0.0,0.75,1.0,0.0,0.0,0.25,0.0,0.25,0.75,0.75,0.0,0.5,-0.3,-0.36,0.2,86.0,18.6,22.1,0.0,0.0,0.0,0.0,0.0,0.0,1.0,0.0,0.0,0.0,0.0,0.5,0.75,0.39,-0.55,0.14,112.6,-5.3,-72.2
3.3,1.5,0.0,0.75,0.5,0.0,0.0,0.25,0.0,0.25,0.75,0.75,0.0,0.5,-0.3,-0.42,0.33,87.25,16.5,7.9,0.0,0.0,0.0,0.0,0.0,0.0,1.0,0.0,0.0,0.0,0.0,0.5,0.75,0.39,-0.55,0.27,69.43,-5.3,-72.2
3.32,1.5,0.0,0.75,0.5,0.0,0.0,0.5,0.0,0.5,0.75,1.25,0.0,0.75,-0.3,-0.55,0.39,93.41,14.9,-5.0,0.0,0.0,2.0,0.0,0.0,0.0,1.0,0.0,0.0,0.0,0.0,0.75,0.75,0.39,-0.61,0.27,48.45,-22.2,-6.9
3.34,1.25,0.0,0.75,0.75,0.0,0.0,0.25,0.0,0.25,0.5,0.25,0.0,0.75,-0.36,-0.61,0.45,87.34,16.2,12.9,0.25,0.0,2.0,0.5,0.5,0.0,1.25,1.0,0.25,1.5,0.75,1.0,1.5,0.45,-0.61,0.27,70.76,-7.1,-26.9
3.36,2.25,0.0,0.75,0.5,0.0,0.0,0.25,0.0,0.25,0.5,0.75,0.0,0.5,-0.3,-0.67,0.39,87.96,20.3,23.1,0.25,0.0,1.75,0.5,0.5,0.0,1.0,1.0,0.25,1.25,0.75,1.25,1.75,0.45,-0.55,0.27,97.9,-6.1,-32.8
3.38,1.5,0.0,0.75,0.25,0.0,0.0,0.25,0.0,0.25,0.5,0.75,0.0,0.5,-0.36,-0.8,0.45,80.44,18.2,9.6,0.0,0.0,1.75,1.0,0.5,0.0,1.0,1.0,0.25,1.25,0.5,1.25,1.75,0.45,-0.55,0.33,127.84,-5.9,-30.1
3.4,2.25,0.0,0.75,0.75,0.0,0.0,0.25,0.0,0.25,0.75,0.5,0.0,0.75,-0.48,-1.17,0.52,86.23,17.6,18.8,0.0,0.0,1.75,0.5,0.5,0.0,1.25,1.0,0.25,1.25,0.5,1.5,1.75,0.45,-0.48,0.33,143.21,-5.7,-36.1
3.42,2.25,0.0,0.75,0.5,0.0,0.0,0.25,0.0,0.5,0.75,0.0,0.0,1.0,-0.42,-1.05,0.52,87.57,16.6,16.8,0.0,0.0,1.75,0.5,0.5,0.0,1.0,1.0,0.25,1.25,0.5,1.5,1.75,0.45,-0.48,0.33,142.09,-5.3,-36.9
3.44,2.25,0.0,0.75,0.5,0.0,0.0,0.25,0.0,0.25,0.75,0.5,0.0,0.5,-0.42,-0.86,0.45,91.22,19.1,23.0,0.5,0.0,1.75,0.75,1.0,0.0,1.0,1.0,0.25,1.25,0.5,1.25,1.5,0.45,-0.55,0.39,145.05,-6.9,-20.0
3.46,2.0,0.0,0.75,0.5,0.0,0.0,0.25,0.0,0.25,0.75,0.75,0.0,0.75,-0.36,-0.67,0.52,91.6,16.6,9.9,0.25,0.0,2.0,0.5,0.5,0.0,1.0,1.0,0.25,1.0,0.5,1.25,1.5,0.45,-0.55,0.39,146.76,-8.0,-25.9
3.48,2.25,0.0,0.75,0.75,0.0,0.0,0.25,0.0,0.25,0.5,0.5,0.0,0.5,-0.36,-0.55,0.45,91.96,20.6,29.1,0.25,0.0,1.5,0.5,0.5,0.0,1.0,1.0,0.25,1.25,0.5,1.25,1.5,0.45,-0.55,0.33,147.43,-5.6,-32.2
3.5,1.25,0.0,0.75,0.5,0.0,0.0,0.25,0.0,0.25,0.5,0.75,0.0,0.75,-0.36,-0.48,0.45,85.86,15.6,1.6,1.25,0.0,2.0,0.25,0.5,0.0,1.0,1.0,0.25,1.25,0.5,1.25,1.5,0.45,-0.55,0.33,152.32,-9.6,-18.0
3.52,1.75,0.0,0.75,0.25,0.0,0.0,0.5,0.0,0.25,0.75,0.75,0.0,1.0,-0.36,-0.48,0.52,84.85,14.8,-0.9,0.25,0.0,1.5,0.5,0.5,0.25,1.0,1.0,0.25,1.25,0.5,1.25,1.75,0.52,-0.55,0.45,154.94,-4.4,-32.6
3.54,2.25,0.0,0.75,0.5,0.0,0.0,0.25,0.0,0.25,0.75,0.75,0.0,0.5,-0.42,-0.67,0.64,87.18,18.7,18.9,0.0,0.0,1.75,0.5,0.5,0.0,1.0,1.0,0.25,1.5,0.5,1.5,1.5,0.52,-0.67,0.58,151.39,-5.3,-35.9
3.56,1.5,0.0,0.75,0.5,0.0,0.0,0.25,0.0,0.25,0.5,0.75,0.0,0.75,-0.42,-0.86,0.7,85.26,16.5,6.0,0.5,0.25,1.75,0.5,0.5,0.0,1.0,1.0,0.25,1.25,0.75,1.25,1.75,0.52,-0.67,0.52,148.13,-6.9,-26.6
3.58,1.5,0.0,0.75,0.5,0.0,0.0,0.25,0.0,0.25,0.5,0.75,0.0,1.0,-0.42,-0.86,0.7,84.92,15.1,0.4,0.5,0.0,1.5,0.0,0.5,0.0,1.0,1.0,0.0,0.0,0.5,0.5,1.75,0.52,-0.61,0.45,130.12,-8.3,-21.0
3.6,1.0,0.0,0.75,1.0,0.0,0.0,0.25,0.0,0.5,0.75,0.75,0.0,0.75,-0.48,-0.73,0.52,84.37,13.4,-2.2,0.5,0.0,1.75,0.5,0.5,0.0,1.0,1.0,0.25,1.75,0.5,1.25,1.5,0.52,-0.86,0.45,131.61,-6.1,-28.9
3.62,1.0,0.0,0.75,0.5,0.0,0.0,0.25,0.0,0.5,0.5,0.5,0.0,0.5,-0.48,-0.61,0.45,78.79,16.4,5.1,0.0,0.0,2.0,0.5,0.5,0.25,1.0,1.0,0.25,1.25,0.5,1.25,1.5,0.64,-1.05,0.45,130.8,-5.9,-28.7
3.64,0.0,0.0,0.75,0.5,0.0,0.0,0.25,0.0,0.25,0.75,0.5,0.0,0.75,-0.42,-0.61,0.45,68.0,7.7,-29.1,0.5,0.0,1.25,0.5,0.5,0.25,1.0,1.0,0.25,1.25,0.5,1.25,1.5,0.64,-0.98,0.45,134.15,-4.7,-29.8
3.66,0.75,0.0,0.75,0.25,0.0,0.0,0.25,0.0,0.25,0.5,0.5,0.0,0.75,-0.42,-0.55,0.52,61.23,13.5,-8.9,0.0,0.0,1.5,0.5,0.5,0.0,1.0,1.0,0.25,1.0,0.5,1.25,1.75,0.45,-0.67,0.45,132.82,-4.9,-36.6
3.68,0.0,0.0,0.75,0.5,0.0,0.0,0.25,0.0,0.25,0.5,1.0,0.0,0.25,-0.48,-0.55,0.58,53.73,13.1,-20.0,0.0,0.0,1.5,0.75,0.5,0.0,1.0,1.0,0.25,1.25,0.5,1.25,1.5,0.52,-0.55,0.39,133.63,-5.2,-32.9
3.7,0.0,0.0,0.75,0.25,0.0,0.0,0.25,0.0,0.25,0.5,0.75,0.0,0.0,-0.42,-0.55,0.58,45.2,15.5,-13.9,0.5,0.25,1.75,0.0,0.0,0.25,1.0,0.0,0.25,1.25,0.0,1.25,0.75,0.45,-0.48,0.45,121.48,-12.2,-18.2
3.72,0.75,0.0,0.75,0.5,0.0,0.0,0.25,0.0,0.25,0.5,0.75,0.75,0.0,-0.36,-0.73,0.64,48.55,17.6,-8.0,0.0,0.0,1.75,0.75,0.5,0.0,1.0,1.0,0.25,1.5,0.5,1.25,1.75,0.45,-0.48,0.45,125.37,-5.0,-33.5
3.74,1.5,0.0,0.75,0.25,0.0,0.0,0.25,0.0,0.5,0.5,0.75,0.75,0.25,-0.36,-0.86,0.7,58.54,18.2,-3.6,0.5,0.0,1.75,0.75,1.0,0.0,1.0,1.0,0.25,1.5,0.5,1.0,1.5,0.45,-0.55,0.52,132.18,-6.3,-19.2
3.76,1.25,0.0,0.75,0.75,0.0,0.0,0.25,0.0,0.25,0.5,0.75,1.0,0.0,-0.3,-0.92,0.77,68.61,18.7,-0.2,0.5,0.0,1.75,0.5,0.5,0.0,1.0,1.0,0.25,1.25,0.75,1.25,1.5,0.45,-0.73,0.52,139.83,-7.3,-27.7
3.78,1.25,0.0,0.75,0.5,0.0,0.0,0.25,0.0,0.25,0.5,0.75,0.75,0.0,-0.3,-0.67,0.7,74.24,19.3,2.2,0.0,0.0,1.75,0.5,0.5,0.0,1.0,1.0,0.25,1.25,0.5,1.25,1.5,0.45,-0.8,0.52,140.28,-5.8,-32.9
3.8,1.25,0.0,0.75,0.5,0.0,0.0,0.25,0.0,0.5,0.5,0.75,0.75,0.5,-0.36,-0.61,0.7,80.86,15.9,-9.9,0.0,0.0,1.75,0.5,0.5,0.0,1.0,1.0,0.0,1.25,0.5,1.0,1.5,0.45,-0.8,0.52,137.01,-5.5,-30.5
3.82,1.5,0.0,0.75,0.5,0.0,0.0,0.25,0.0,0.5,0.5,0.75,0.75,0.0,-0.42,-0.61,0.7,82.89,19.7,4.5,0.5,0.0,1.5,1.0,0.5,0.0,1.0,1.0,0.25,1.25,0.5,1.25,1.5,0.45,-0.73,0.58,137.93,-6.9,-24.3
3.84,1.5,0.0,0.75,0.5,0.0,0.0,0.25,0.0,0.5,0.5,0.75,1.0,0.0,-0.36,-0.67,0.64,86.3,19.2,-0.5,0.0,0.0,1.75,0.5,0.5,0.0,1.0,1.0,0.25,2.25,0.5,1.25,1.5,0.45,-0.55,0.52,139.26,-3.7,-37.1
3.86,1.5,0.0,0.75,0.25,0.0,0.0,0.25,0.0,0.5,0.5,0.75,0.75,0.0,-0.36,-0.67,0.64,86.96,19.8,1.8,0.0,0.0,1.75,0.5,0.5,0.0,1.0,1.0,0.25,1.25,0.5,1.0,1.5,0.45,-0.61,0.52,139.09,-5.7,-30.7
3.88,1.0,0.0,0.75,0.5,0.0,0.0,0.25,0.0,0.25,0.5,1.0,1.0,0.0,-0.36,-0.67,0.64,86.21,17.7,-11.3,0.25,0.0,2.0,0.5,1.0,0.25,1.0,1.0,0.25,1.25,0.5,1.0,1.5,0.39,-0.61,0.45,143.33,-6.0,-19.2
3.9,1.25,0.0,0.75,0.25,0.0,0.0,0.25,0.0,0.5,0.5,0.75,0.75,0.0,-0.36,-0.67,0.64,82.46,19.1,-2.8,0.0,0.25,1.75,0.5,0.5,0.0,1.0,1.0,0.0,1.25,0.5,1.25,1.5,0.39,-0.73,0.45,140.36,-5.8,-29.0
3.92,0.0,0.0,0.5,0.5,0.0,0.0,0.25,0.0,0.25,0.5,0.75,0.75,0.0,-0.36,-0.61,0.64,72.18,12.5,-35.2,0.0,0.0,1.75,1.25,0.5,0.0,1.0,1.0,0.25,1.0,0.5,1.0,1.5,0.39,-0.73,0.52,139.69,-7.2,-22.1
3.94,1.5,0.0,0.0,0.5,0.0,0.0,0.25,0.0,0.25,0.5,0.75,0.75,0.25,-0.36,-0.61,0.7,68.35,15.0,-9.1,0.5,0.0,2.25,0.5,0.5,0.5,1.0,1.0,0.25,1.25,0.5,1.0,1.5,0.39,-0.67,0.39,142.37,-7.3,-17.4
3.96,1.25,0.0,0.75,0.25,0.0,0.0,0.25,0.0,0.5,0.5,0.75,0.75,0.0,-0.36,-0.61,0.7,66.19,19.1,-2.8,0.25,0.0,1.5,0.5,0.5,0.0,1.0,1.0,0.25,1.5,0.5,1.25,1.5,0.39,-0.67,0.39,140.34,-5.0,-33.3
3.98,1.25,0.0,0.75,0.25,0.0,0.0,0.25,0.0,0.5,0.5,0.75,0.75,0.25,-0.36,-0.61,0.64,69.64,17.4,-8.3,0.25,0.0,1.75,0.75,0.5,0.0,1.0,1.0,0.0,1.25,0.5,1.25,1.5,0.45,-0.67,0.45,139.25,-6.7,-26.9
4.0,2.0,0.0,0.75,0.5,0.0,0.0,0.25,0.0,0.5,0.5,0.75,0.75,0.0,-0.36,-0.61,0.64,77.6,20.9,12.1,0.5,0.0,1.75,1.0,0.5,0.5,1.0,1.0,0.25,1.0,0.5,1.25,1.5,0.45,-0.67,0.45,142.82,-6.9,-18.3
4.02,1.25,0.0,0.5,0.5,0.0,0.0,0.25,0.0,0.5,0.5,0.75,0.5,0.25,-0.36,-0.61,0.64,79.26,16.7,-3.1,0.25,0.0,2.0,0.75,0.5,0.0,1.0,1.0,0.25,1.25,0.5,1.25,1.5,0.45,-0.67,0.45,143.8,-7.6,-24.9
4.04,0.0,0.0,0.75,0.5,0.0,0.0,0.25,0.0,0.25,0.5,0.75,0.75,0.0,-0.36,-0.61,0.64,71.65,14.3,-28.4,0.25,0.0,1.25,0.5,0.5,0.0,1.0,1.0,0.25,1.0,0.5,1.0,1.5,0.39,-0.67,0.45,137.37,-5.1,-31.4
4.06,0.0,0.0,0.75,0.5,0.0,0.0,0.25,0.0,0.5,0.5,0.5,0.75,0.0,-0.36,-0.61,0.64,63.0,14.4,-25.9,0.5,0.0,2.0,0.5,0.5,0.0,1.0,1.0,0.25,1.25,0.5,1.25,1.5,0.39,-0.67,0.45,136.81,-8.0,-24.2
4.08,0.0,0.0,0.5,0.5,0.0,0.0,0.25,0.0,0.25,0.5,0.75,0.75,0.25,-0.42,-0.55,0.64,57.03,10.6,-40.5,0.25,0.25,1.75,0.5,0.5,0.0,1.0,1.0,0.25,1.5,0.5,1.25,1.5,0.45,-0.67,0.45,137.26,-6.1,-27.4
4.1,0.0,0.0,0.5,0.25,0.0,0.0,0.25,0.0,0.5,0.5,0.75,0.5,0.0,-0.42,-0.55,0.64,51.42,12.3,-37.3,0.0,0.0,1.75,0.5,0.5,0.0,1.0,1.0,0.25,0.0,0.5,0.75,1.5,0.45,-0.67,0.45,128.74,-9.2,-20.5
4.12,0.0,0.0,0.75,0.25,0.0,0.0,0.25,0.0,0.5,0.5,0.5,0.5,0.0,-0.42,-0.55,0.64,47.89,14.6,-26.3,0.5,0.0,2.0,0.5,0.5,0.0,1.0,1.0,0.25,1.25,0.5,1.25,1.5,0.45,-0.67,0.52,130.36,-8.0,-24.2
4.14,0.5,0.0,0.25,0.75,0.0,0.0,0.25,0.0,0.5,0.5,1.0,0.5,0.25,-0.42,-0.55,0.64,52.1,12.2,-23.6,0.0,0.0,1.75,0.5,0.5,0.0,1.0,1.0,0.25,1.25,0.5,1.25,1.5,0.39,-0.67,0.45,130.36,-5.8,-32.9
4.16,0.0,0.0,0.75,0.5,0.0,0.0,0.25,0.0,0.5,0.5,0.75,0.5,0.25,-0.42,-0.55,0.7,54.13,12.6,-29.2,0.25,0.0,1.75,0.5,0.5,0.0,1.0,1.0,0.25,0.75,0.5,1.0,1.5,0.39,-0.73,0.45,129.0,-7.7,-24.6
4.18,0.0,0.0,0.75,0.5,0.0,0.0,0.25,0.0,0.25,0.5,0.5,0.75,0.0,-0.36,-0.55,0.77,52.49,14.5,-25.0,0.25,0.0,1.5,0.5,0.5,0.5,1.0,1.0,0.25,1.5,0.5,1.25,1.5,0.39,-0.67,0.52,131.73,-3.7,-30.1
4.2,1.0,0.0,0.75,0.25,0.0,0.0,0.25,0.0,0.5,0.5,0.75,0.75,0.0,-0.3,-0.48,0.83,57.26,18.2,-8.0,0.0,0.0,1.5,0.25,0.5,0.0,1.0,1.0,0.25,1.25,0.5,1.25,1.5,0.39,-0.67,0.52,132.0,-4.5,-38.4
4.22,0.0,0.0,0.75,0.25,0.0,0.0,0.25,0.0,0.5,0.5,0.75,0.75,0.0,-0.3,-0.48,0.83,56.83,13.9,-35.3,0.0,0.0,1.25,1.0,0.5,0.0,1.0,1.0,0.25,1.5,0.5,1.0,1.5,0.39,-0.67,0.45,132.36,-3.9,-32.0
4.24,0.0,0.0,0.75,0.5,0.0,0.0,0.25,0.0,0.5,0.5,0.75,0.75,0.0,-0.3,-0.48,0.83,57.93,14.1,-29.0,0.0,0.0,1.75,0.5,0.5,0.0,1.0,1.0,0.25,1.5,0.5,0.75,1.5,0.39,-0.67,0.45,130.04,-5.0,-29.8
4.26,0.0,0.0,0.75,0.5,0.0,0.0,0.25,0.0,0.25,0.5,0.75,0.75,0.0,-0.3,-0.48,0.83,57.58,14.3,-28.4,0.0,0.0,1.75,0.5,1.0,0.0,1.0,1.0,0.25,1.0,0.5,1.25,1.5,0.39,-0.67,0.45,133.12,-5.8,-26.5
4.28,0.0,0.0,0.75,0.5,0.0,0.0,0.25,0.0,0.5,0.5,0.75,0.5,0.0,-0.3,-0.48,0.83,57.89,14.5,-23.5,0.25,0.0,1.75,0.5,0.5,0.0,1.0,1.0,0.0,1.5,0.5,1.0,1.5,0.39,-0.67,0.52,132.88,-5.7,-28.4
4.3,0.0,0.0,0.75,0.25,0.0,0.0,0.25,0.0,0.25,0.5,0.75,0.75,0.0,-0.3,-0.48,0.83,55.01,14.1,-35.1,0.25,0.0,1.5,0.5,0.5,0.0,1.0,1.0,0.25,1.25,0.5,1.25,1.5,0.39,-0.67,0.45,133.06,-5.6,-32.2
4.32,0.0,0.0,0.75,1.0,0.0,0.0,0.25,0.0,0.5,0.5,0.75,0.5,0.0,-0.36,-0.42,0.83,57.8,14.8,-13.2,0.0,0.0,1.75,0.5,0.5,0.0,1.0,1.0,0.25,1.25,0.5,1.0,1.5,0.39,-0.67,0.45,132.39,-5.7,-30.7
4.34,0.0,0.0,0.75,0.25,0.0,0.0,0.25,0.0,0.25,0.5,0.75,0.5,0.0,-0.36,-0.48,0.77,54.93,14.5,-29.1,0.0,0.0,1.75,0.5,0.5,0.0,1.0,1.0,0.0,1.25,0.5,1.0,1.5,0.39,-0.67,0.45,130.84,-5.5,-30.5
4.36,0.0,0.0,0.75,0.5,0.0,0.0,0.25,0.0,0.5,0.5,0.5,0.5,0.0,-0.42,-0.48,0.77,53.49,14.8,-19.8,0.0,0.0,1.5,0.5,0.5,0.0,1.0,0.75,0.25,0.75,0.5,1.0,1.5,0.39,-0.67,0.45,123.53,-6.7,-30.6
4.38,0.0,0.0,0.75,0.5,0.0,0.0,0.25,0.0,0.25,0.5,0.75,0.5,0.0,-0.42,-0.42,0.77,50.68,14.7,-22.4,0.25,0.0,1.75,0.5,0.5,0.0,1.0,0.75,0.25,1.25,0.5,1.0,1.5,0.45,-0.67,0.45,123.58,-7.1,-27.1
4.4,0.0,0.0,0.5,0.5,0.0,0.0,0.25,0.0,0.25,0.5,0.75,0.5,0.0,-0.48,-0.42,0.77,49.33,12.7,-29.3,0.25,0.25,1.25,0.5,0.5,0.0,1.0,0.75,0.25,1.0,0.5,1.25,1.5,0.45,-0.67,0.45,122.91,-6.1,-29.6
4.42,0.0,0.0,0.75,0.5,0.0,0.0,0.25,0.0,0.25,0.5,0.75,0.5,0.0,-0.55,-0.48,0.77,48.82,14.7,-22.4,0.0,0.0,1.5,0.5,0.5,0.0,1.0,1.0,0.25,0.5,0.5,1.0,1.5,0.45,-0.61,0.39,119.9,-6.7,-29.5
4.44,1.25,0.0,0.75,0.25,0.0,0.0,0.25,0.0,0.25,0.5,0.75,0.75,0.0,-0.48,-0.48,0.77,55.64,19.4,-0.9,0.25,0.0,1.5,0.5,0.5,0.0,1.0,1.0,0.25,1.5,0.5,0.5,1.5,0.45,-0.67,0.45,120.81,-4.7,-26.7
4.46,0.0,0.0,0.0,0.5,0.0,0.0,0.25,0.0,0.25,0.5,0.75,0.75,0.0,-0.42,-0.42,0.7,54.9,7.8,-52.5,0.25,0.0,1.5,0.75,0.5,0.0,1.0,0.75,0.25,1.25,0.5,1.25,1.5,0.45,-0.67,0.58,123.72,-6.6,-29.4
4.48,1.25,0.0,0.75,0.25,0.0,0.0,0.25,0.0,0.0,0.5,0.75,0.5,0.25,-0.42,-0.42,0.64,60.3,18.5,1.0,0.25,0.0,1.75,0.25,0.5,0.0,1.0,0.75,0.25,1.25,0.5,0.75,1.5,0.45,-0.61,0.58,123.52,-6.7,-27.3
4.5,1.5,0.0,0.75,0.5,0.0,0.0,0.25,0.0,0.25,0.5,0.75,0.25,0.5,-0.42,-0.36,0.64,67.53,17.7,6.3,0.0,0.0,1.75,0.5,0.5,0.0,1.0,0.75,0.25,1.5,0.5,1.0,1.5,0.45,-0.55,0.58,125.76,-5.7,-31.7
4.52,1.25,0.0,0.75,0.5,0.0,0.0,0.25,0.0,0.25,0.5,0.75,0.5,0.5,-0.42,-0.36,0.7,75.18,16.5,-3.6,0.25,0.0,1.5,0.5,0.5,0.25,1.0,0.5,0.25,1.0,0.5,1.25,1.5,0.45,-0.67,0.52,126.0,-6.7,-28.7
4.54,0.75,0.0,0.75,0.25,0.0,0.0,0.25,0.0,0.25,0.5,0.75,0.25,0.5,-0.42,-0.36,0.77,74.43,14.8,-12.6,0.0,0.0,1.75,0.5,0.5,0.0,1.0,0.75,0.25,1.5,0.5,1.0,1.5,0.39,-0.67,0.52,127.9,-5.7,-31.7
4.56,1.25,0.0,0.75,0.5,0.0,0.0,0.25,0.0,0.25,0.5,0.75,0.25,0.5,-0.42,-0.3,0.7,76.8,16.9,1.8,0.0,0.0,1.5,0.5,0.5,0.25,1.0,0.75,0.25,1.5,0.5,1.25,1.5,0.33,-0.67,0.64,130.41,-4.1,-34.8
4.58,0.75,0.0,0.75,0.25,0.0,0.0,0.25,0.0,0.5,0.5,0.75,0.5,0.5,-0.48,-0.36,0.7,75.66,14.3,-19.3,0.0,0.0,1.5,0.5,0.5,0.0,1.0,0.75,0.25,1.0,0.5,1.25,1.5,0.27,-0.55,0.58,130.07,-6.1,-34.3
4.6,0.0,0.0,0.75,0.25,0.0,0.0,0.25,0.0,0.25,0.25,0.75,0.5,0.0,-0.55,-0.48,0.77,65.61,17.1,-25.1,0.0,0.0,1.75,0.75,0.5,0.0,1.0,0.5,0.25,1.0,0.5,1.0,1.5,0.39,-0.55,0.52,127.98,-8.0,-26.1
4.62,0.0,0.0,0.75,0.5,0.0,0.0,0.25,0.0,0.25,0.5,0.75,0.5,0.0,-0.61,-0.48,0.95,58.85,14.7,-22.4,0.0,0.0,2.0,0.5,0.5,0.0,1.0,0.5,0.25,1.0,0.5,1.0,1.5,0.39,-0.61,0.52,124.67,-8.7,-26.1
4.64,0.0,0.0,0.75,0.25,0.0,0.0,0.25,0.0,0.25,0.5,0.75,0.5,0.0,-0.55,-0.48,1.02,51.83,14.5,-29.1,0.0,0.0,1.5,0.75,0.5,0.0,1.0,0.5,0.25,1.25,0.5,1.0,1.5,0.39,-0.67,0.52,123.43,-6.4,-30.3
4.66,0.0,0.0,0.75,0.25,0.0,0.0,0.25,0.0,0.25,0.5,0.75,0.5,0.5,-0.48,-0.42,0.89,50.69,10.5,-40.6,0.0,0.0,1.75,0.5,0.5,0.0,1.0,0.75,0.5,1.25,0.5,1.0,1.5,0.39,-0.67,0.52,124.99,-6.5,-30.7
4.68,0.0,0.0,1.0,0.5,0.0,0.0,0.25,0.0,0.25,0.5,0.75,0.75,0.0,-0.48,-0.36,0.83,51.37,15.9,-22.5,0.0,0.0,1.75,0.5,0.5,0.5,1.0,0.5,0.25,1.25,0.5,1.0,1.5,0.39,-0.61,0.52,126.11,-5.4,-26.8
4.7,0.0,0.0,0.75,0.25,0.0,0.0,0.25,0.0,0.25,0.5,0.75,0.5,0.0,-0.48,-0.36,0.77,51.1,14.5,-29.1,0.0,0.0,1.5,0.5,0.5,0.0,1.0,0.5,0.25,0.5,0.5,1.0,1.5,0.45,-0.61,0.52,120.79,-8.3,-28.8
4.72,0.0,0.0,0.75,0.25,0.0,0.0,0.25,0.0,0.25,0.5,0.5,0.5,0.25,-0.48,-0.36,0.77,47.7,12.4,-32.2,0.0,0.0,2.0,0.5,0.5,0.0,1.0,0.25,0.25,1.25,0.5,1.0,1.5,0.39,-0.67,0.52,119.9,-8.7,-27.2
4.74,0.0,0.0,0.75,0.25,0.0,0.0,0.25,0.0,0.25,0.5,0.5,0.75,0.5,-0.48,-0.42,0.83,48.4,10.4,-43.0,0.0,0.0,1.5,0.5,0.5,0.0,1.0,0.25,0.0,1.25,0.5,1.25,1.5,0.39,-0.73,0.45,116.67,-6.7,-35.2
4.76,0.0,0.0,0.75,0.25,0.0,0.0,0.25,0.0,0.25,0.5,0.75,0.75,0.25,-0.55,-0.48,0.83,50.85,12.1,-40.4,0.25,0.0,1.25,0.5,0.5,0.0,1.0,0.5,0.0,1.25,0.5,1.0,1.5,0.33,-0.73,0.52,115.93,-5.7,-32.1
4.78,0.75,0.0,0.75,0.25,0.0,0.0,0.25,0.0,0.25,0.5,0.75,0.75,0.5,-0.55,-0.55,0.89,58.18,14.1,-23.2,0.5,0.0,1.25,0.5,0.5,0.5,1.0,0.5,0.25,1.5,0.5,1.0,1.5,0.33,-0.67,0.45,119.84,-4.5,-26.7
4.8,0.5,0.0,0.0,0.25,0.0,0.0,0.25,0.0,0.0,0.5,0.75,0.75,0.5,-0.55,-0.48,0.83,58.43,7.2,-50.0,0.0,0.0,2.0,0.5,0.5,0.0,1.0,0.5,0.25,1.0,0.5,1.0,1.5,0.33,-0.73,0.45,121.81,-8.7,-26.1
4.82,0.0,0.0,0.75,0.25,0.0,0.0,0.25,0.0,0.25,0.5,0.75,0.75,0.5,-0.55,-0.42,0.77,61.69,10.4,-45.0,0.0,0.0,1.5,0.5,0.5,0.0,1.0,0.5,0.0,1.0,0.5,1.0,1.5,0.27,-0.73,0.52,120.19,-6.6,-31.6
4.84,0.5,0.0,0.75,0.0,0.0,0.0,0.25,0.0,0.0,0.0,0.75,0.0,0.25,-0.55,-0.42,0.77,54.12,23.1,5.5,0.25,0.0,1.75,0.5,0.5,0.0,1.0,0.0,0.25,1.0,0.5,1.0,1.5,0.2,-0.73,0.52,117.42,-10.1,-24.5
4.86,0.0,0.0,0.0,0.25,0.0,0.0,0.25,0.0,0.0,0.0,0.0,0.0,0.0,-0.61,-0.42,0.83,36.21,21.9,48.3,0.0,0.0,1.5,0.5,0.5,0.0,1.0,0.25,0.0,1.5,0.5,1.0,1.5,0.2,-0.8,0.52,115.97,-5.9,-34.1
4.88,0.0,0.0,0.25,0.25,0.0,0.0,0.0,0.0,0.0,0.0,0.0,0.0,0.0,-0.61,-0.48,0.83,19.74,27.6,59.4,0.25,0.0,1.75,0.75,0.5,0.0,1.0,0.5,0.25,1.25,0.5,1.0,1.5,0.27,-0.67,0.52,119.42,-8.1,-24.3
4.9,0.0,0.0,0.0,0.25,0.0,0.0,0.0,0.0,0.5,0.5,0.0,1.0,0.0,-0.61,-0.48,0.77,17.9,5.1,-67.0,0.25,0.0,1.5,0.5,0.5,0.0,1.0,0.5,0.25,1.0,0.5,1.0,1.5,0.27,-0.73,0.52,119.91,-7.5,-28.1
4.92,0.5,0.0,0.75,0.75,0.0,0.0,0.25,0.0,0.25,0.5,0.25,0.75,0.5,-0.55,-0.48,0.77,32.31,13.8,-14.2,0.0,0.0,1.5,1.0,0.5,0.0,1.0,0.0,0.25,1.25,0.5,1.0,1.5,0.33,-0.8,0.52,121.27,-8.2,-26.9
4.94,0.75,0.0,0.75,0.25,0.0,0.0,0.25,0.0,0.25,0.5,0.5,0.75,0.5,-0.55,-0.48,0.7,48.13,14.3,-20.3,0.5,0.0,1.25,1.0,0.5,0.0,1.0,0.25,0.25,1.25,0.5,1.0,1.5,0.33,-0.73,0.45,122.96,-8.0,-23.1
4.96,1.0,0.0,0.75,0.25,0.0,0.0,0.25,0.0,0.25,0.5,0.75,0.5,0.5,-0.48,-0.42,0.64,61.75,15.5,-12.3,0.25,0.0,1.5,0.5,0.5,0.25,1.0,0.0,0.25,1.25,0.5,0.75,1.5,0.33,-0.61,0.45,120.13,-7.4,-24.4
4.98,0.5,0.0,0.75,1.0,0.0,0.0,0.25,0.0,0.25,0.5,0.5,0.75,0.5,-0.42,-0.42,0.64,70.05,13.8,-13.3,0.0,0.0,1.5,0.5,0.5,0.0,1.0,0.0,0.25,2.0,0.5,1.0,1.5,0.33,-0.73,0.52,121.6,-5.5,-36.6
5.0,0.75,0.0,0.75,0.25,0.0,0.0,0.25,0.0,0.25,0.5,0.75,0.5,0.5,-0.42,-0.42,0.64,71.97,14.4,-18.2,0.5,0.0,1.0,0.5,0.5,0.0,1.0,0.0,0.25,1.25,0.5,1.25,1.5,0.33,-0.73,0.45,119.58,-7.2,-33.6
5.02,0.75,0.0,0.75,0.25,0.0,0.0,0.25,0.0,0.25,0.25,0.5,0.75,0.25,-0.36,-0.48,0.58,69.76,18.2,-10.6,0.5,0.0,1.75,0.5,0.5,0.0,1.0,0.0,0.25,1.5,0.5,1.0,1.5,0.33,-0.73,0.39,121.64,-9.3,-24.1
5.04,0.5,0.0,0.25,0.0,0.0,0.0,0.25,0.0,0.25,0.5,0.75,0.75,0.5,-0.36,-0.48,0.58,67.57,9.1,-49.1,0.0,0.0,1.75,0.5,0.5,0.0,1.0,0.25,0.25,1.0,0.5,1.25,1.5,0.33,-0.73,0.45,121.3,-8.5,-31.0
5.06,0.75,0.0,0.75,0.25,0.0,0.0,0.25,0.0,0.25,0.75,0.75,0.75,0.5,-0.36,-0.55,0.64,70.47,12.6,-25.9,0.25,0.0,1.75,0.5,0.5,0.0,1.0,0.0,0.25,1.5,0.5,1.0,1.5,0.33,-0.67,0.39,122.54,-8.6,-27.5
5.08,0.5,0.0,0.75,0.25,0.0,0.0,0.25,0.0,0.25,0.5,0.75,0.5,0.5,-0.3,-0.55,0.64,70.8,13.3,-24.8,0.5,0.0,1.75,0.5,0.5,0.0,1.0,0.0,0.0,1.25,0.5,1.0,1.5,0.33,-0.73,0.45,120.89,-9.9,-22.1
5.1,1.25,0.0,0.75,0.5,0.0,0.0,0.25,0.0,0.25,0.5,0.75,0.75,0.5,-0.36,-0.55,0.58,77.67,16.1,-8.5,0.0,0.0,1.5,0.5,0.5,0.0,1.0,0.0,0.25,1.25,0.5,1.0,1.5,0.33,-0.73,0.52,118.03,-7.5,-32.8
5.12,0.75,0.0,0.75,0.25,0.0,0.0,0.25,0.0,0.0,0.0,0.75,0.25,0.5,-0.36,-0.55,0.7,70.31,19.5,-1.3,0.25,0.0,1.75,0.5,0.5,0.0,1.0,0.0,0.25,1.0,0.5,0.5,1.5,0.33,-0.73,0.52,113.75,-10.2,-18.7
5.14,0.0,0.0,0.5,0.0,0.0,0.0,0.0,0.0,0.0,0.0,0.0,0.0,0.0,-0.42,-0.55,0.7,48.3,38.2,60.9,0.25,0.0,1.75,0.5,0.5,0.0,1.0,0.0,0.25,1.25,0.5,1.0,1.5,0.33,-0.8,0.45,114.16,-9.3,-26.0
5.16,1.25,0.0,0.0,0.25,0.0,0.0,0.0,0.0,0.0,0.0,0.0,0.0,0.75,-0.42,-0.48,0.64,35.07,15.7,20.2,0.5,0.0,1.25,0.0,0.5,0.0,1.0,0.0,0.25,1.5,0.5,1.25,1.25,0.27,-0.8,0.33,112.91,-7.5,-35.5
