time,left pressure 0[N/cm²],left pressure 1[N/cm²],left pressure 2[N/cm²],left pressure 3[N/cm²],left pressure 4[N/cm²],left pressure 5[N/cm²],left pressure 6[N/cm²],left pressure 7[N/cm²],left pressure 8[N/cm²],left pressure 9[N/cm²],left pressure 10[N/cm²],left pressure 11[N/cm²],left pressure 12[N/cm²],left acceleration X[g],left acceleration Y[g],left acceleration Z[g],left total force[N],left center of pressure X[mm],left center of pressure Y[mm],right pressure 0[N/cm²],right pressure 1[N/cm²],right pressure 2[N/cm²],right pressure 3[N/cm²],right pressure 4[N/cm²],right pressure 5[N/cm²],right pressure 6[N/cm²],right pressure 7[N/cm²],right pressure 8[N/cm²],right pressure 9[N/cm²],right pressure 10[N/cm²],right pressure 11[N/cm²],right pressure 12[N/cm²],right acceleration X[g],right acceleration Y[g],right acceleration Z[g],right total force[N],right center of pressure X[mm],right center of pressure Y[mm]
0.02,0.0,0.0,1.0,0.5,0.0,0.0,0.0,0.0,0.5,0.75,0.5,0.0,0.0,0.02,0.52,0.64,45.81,14.5,-5.8,3.5,1.75,6.0,7.0,6.5,5.75,8.0,5.25,0.75,5.5,5.5,1.25,4.75,0.08,0.08,0.95,854.05,-5.3,4.6
0.04,0.0,0.0,1.0,0.5,0.0,0.0,0.0,0.0,0.5,0.75,1.25,0.5,0.0,0.02,0.58,0.64,51.03,13.3,-28.5,3.75,1.0,7.0,7.0,6.25,5.75,8.75,4.0,0.25,4.0,3.25,0.75,3.0,0.08,0.08,1.08,853.29,-7.7,17.0
0.06,0.0,0.0,1.0,0.25,0.0,0.0,0.0,0.0,0.5,0.75,1.25,0.0,0.0,-0.11,0.52,0.95,51.75,13.6,-23.7,2.75,1.0,8.5,7.5,7.0,4.25,9.0,3.5,0.25,2.75,2.0,0.75,2.25,0.08,0.14,1.14,817.75,-10.2,24.8
0.08,0.0,0.0,1.0,0.25,0.0,0.0,0.0,0.25,0.5,1.25,1.0,0.0,0.0,-0.23,1.14,0.64,56.84,8.5,-27.8,5.5,1.25,8.75,7.75,7.0,3.75,9.5,3.25,0.25,1.75,2.0,0.75,2.25,0.02,0.14,1.2,795.36,-12.7,31.5
0.1,0.0,0.0,1.0,0.0,0.0,0.0,0.0,0.0,0.5,0.75,0.0,0.5,1.0,0.08,1.64,0.14,57.89,6.3,-47.5,6.0,1.25,9.5,8.0,6.0,2.0,9.5,2.25,0.5,2.5,2.0,0.75,2.0,0.02,0.2,1.08,768.48,-15.2,32.4
0.12,0.0,0.0,1.0,0.0,0.0,0.0,0.0,0.0,0.5,1.5,1.5,1.0,1.25,-0.48,0.14,1.77,77.08,4.2,-63.6,6.25,1.25,9.5,7.0,4.25,0.0,9.25,2.0,0.0,2.0,2.0,0.5,2.25,0.08,0.27,1.45,714.01,-18.3,33.5
0.14,0.0,0.0,1.0,0.25,0.0,0.0,0.0,0.25,0.5,2.25,1.5,0.75,1.75,-0.67,0.27,1.52,101.18,0.9,-61.5,6.25,1.0,9.25,5.5,1.5,0.0,9.0,2.0,0.25,1.25,2.0,0.75,1.75,0.14,0.33,1.58,629.42,-21.2,32.9
0.16,0.0,0.0,1.0,0.5,0.0,0.0,0.0,1.0,0.75,3.75,1.5,1.0,2.5,-0.3,0.45,2.14,143.54,-2.4,-62.9,6.25,0.5,8.5,3.25,0.0,0.0,8.25,0.5,0.0,1.5,1.75,0.75,1.75,0.39,0.64,2.14,508.52,-24.4,32.0
0.18,0.0,0.0,0.75,0.75,0.0,0.0,0.0,1.0,0.75,3.5,2.25,1.25,2.5,-0.17,0.02,0.77,177.51,-1.5,-64.3,3.75,0.0,6.5,1.75,0.0,0.0,7.25,0.5,0.25,0.25,1.0,0.75,1.5,0.52,0.7,2.27,369.1,-25.7,29.3
0.2,0.0,0.0,0.75,0.25,0.0,0.0,0.0,1.0,1.0,4.75,2.75,1.5,0.0,-0.11,0.14,1.08,197.37,-0.2,-61.9,2.0,0.0,3.25,0.5,0.0,0.0,5.25,1.5,0.25,1.5,1.0,0.75,1.25,0.33,0.45,2.52,259.85,-16.3,0.5
0.22,0.0,0.0,0.0,0.25,0.0,0.0,0.25,1.5,0.0,0.0,0.0,0.0,2.5,-0.17,0.08,0.95,171.18,-11.6,-72.4,0.5,0.0,2.0,0.0,0.0,0.0,3.0,1.75,0.0,1.5,1.0,0.0,1.25,0.39,-0.23,2.08,158.06,-8.6,-19.5
0.24,0.25,0.0,0.0,0.5,0.0,0.0,0.5,1.0,1.5,6.5,3.75,3.0,4.0,-0.11,0.08,0.95,218.6,-3.2,-76.3,0.5,0.0,0.75,0.0,0.0,0.0,1.25,2.0,0.5,1.5,0.75,0.75,0.75,0.45,-0.42,1.39,69.28,-2.2,-39.9
0.26,0.0,0.0,1.0,0.5,0.0,0.0,0.5,4.25,1.25,6.75,5.25,3.75,5.0,-0.17,0.08,0.95,284.98,-3.1,-70.8,0.0,0.0,0.5,0.0,0.0,0.0,1.0,1.25,0.0,1.5,1.0,0.25,1.0,1.08,-1.17,1.27,7.85,1.7,-55.2
0.28,0.0,0.0,1.0,0.25,0.0,0.0,0.5,4.25,1.5,7.25,5.75,4.0,5.25,-0.17,0.08,0.95,372.37,-3.1,-72.5,0.0,0.0,0.5,0.0,0.0,0.0,0.5,1.0,0.0,0.75,1.0,0.0,0.25,0.7,-0.92,1.14,0.0,-1.5,-42.5
0.3,0.0,0.0,0.0,0.25,0.0,0.0,0.5,4.75,1.5,7.25,5.25,4.0,5.25,-0.17,0.08,0.95,438.39,-5.1,-76.7,0.0,0.0,0.5,0.0,0.0,0.0,0.5,1.0,0.25,1.25,0.75,0.0,1.0,0.33,-0.55,0.58,0.0,2.4,-54.4
0.32,0.0,0.0,0.0,0.25,0.0,0.0,0.5,4.75,1.5,6.5,5.5,4.0,5.25,-0.17,0.08,0.95,475.16,-4.7,-76.7,0.0,0.0,0.5,0.0,0.0,0.0,0.5,1.75,0.25,1.25,1.0,0.25,1.25,0.27,-0.36,0.39,0.0,3.6,-57.7
0.34,0.0,0.0,0.75,1.75,0.0,0.75,0.5,5.0,1.25,6.75,5.5,3.75,5.25,-0.17,0.08,0.95,489.03,-3.4,-63.6,0.0,0.0,0.5,0.25,0.0,0.0,0.25,0.75,0.25,1.5,0.75,0.25,1.25,0.27,-0.3,0.77,0.0,2.2,-57.5
0.36,0.0,0.0,1.0,2.0,0.0,0.0,0.5,5.0,1.25,7.0,5.25,3.25,5.0,-0.17,0.08,0.95,484.95,-2.7,-62.6,0.0,0.0,0.5,0.0,0.0,0.0,0.25,0.5,0.25,2.0,0.75,0.0,1.25,0.08,-0.23,0.95,4.42,4.2,-63.3
0.38,0.0,0.0,0.25,2.0,0.0,0.75,0.5,5.0,1.25,6.5,4.5,3.0,4.75,-0.17,0.08,0.95,474.4,-4.4,-62.2,0.0,0.0,0.5,0.0,0.0,0.0,0.25,0.75,0.25,1.25,0.75,0.25,1.25,0.08,-0.05,1.02,26.71,2.5,-62.5
0.4,0.0,0.0,0.0,2.0,0.0,0.75,0.5,5.0,1.0,6.5,4.5,3.0,4.0,-0.17,0.08,0.95,450.05,-4.7,-62.2,0.0,0.0,0.5,0.0,0.0,0.0,0.25,0.5,0.25,1.5,0.75,0.0,1.25,0.08,0.14,0.95,44.47,3.0,-62.0
0.42,0.25,0.0,0.0,1.75,0.0,0.0,0.5,5.0,0.75,5.75,3.75,3.0,3.75,-0.11,0.08,0.95,412.48,-4.3,-63.7,1.0,0.5,0.5,1.25,1.25,1.25,0.75,2.0,0.25,3.5,2.0,0.75,2.25,0.08,0.33,1.08,115.66,1.6,-26.8
0.44,0.25,0.0,0.0,1.5,0.0,1.25,0.5,5.0,0.75,5.5,3.75,2.75,3.75,-0.11,0.08,0.95,382.49,-5.4,-59.7,1.0,0.5,1.5,0.5,1.25,1.75,0.5,2.0,0.5,2.25,2.0,0.75,2.25,-0.11,0.45,1.33,172.55,-0.3,-20.6
0.46,0.0,0.0,0.0,2.0,0.0,1.75,0.5,5.0,1.0,5.5,2.75,2.25,2.75,-0.11,0.08,0.95,348.75,-6.1,-52.6,1.0,0.25,1.75,0.0,1.0,0.0,0.5,2.0,0.0,1.0,2.0,0.0,2.25,-0.11,0.45,1.58,198.09,-4.1,-22.2
0.48,0.0,0.0,0.0,2.0,0.0,2.25,0.5,5.25,0.75,5.5,1.75,2.0,2.75,-0.11,0.08,0.95,310.42,-7.7,-49.1,0.0,0.0,0.25,0.0,0.0,0.0,0.25,0.5,0.0,0.75,0.75,0.25,1.25,-0.11,0.52,1.77,169.32,3.6,-72.1
0.5,0.0,0.0,0.0,2.0,0.0,3.25,0.5,5.25,0.75,4.75,3.0,2.0,2.5,-0.11,0.08,0.95,294.99,-7.0,-45.7,1.0,0.5,1.25,0.5,0.0,1.75,0.25,0.5,0.0,1.5,2.0,0.75,2.25,0.08,1.02,2.2,166.49,-2.2,-25.3
0.52,0.0,0.5,0.0,2.0,0.0,3.75,0.5,5.75,0.75,4.25,2.75,2.0,2.5,-0.11,0.08,0.95,292.66,-7.1,-40.0,1.25,0.5,1.75,0.5,1.0,1.75,0.5,2.0,0.0,2.0,2.0,1.0,2.25,0.02,1.64,2.02,180.41,-1.5,-18.9
0.54,0.0,0.5,0.0,2.0,5.0,4.5,0.5,5.75,0.75,4.25,2.25,1.25,2.25,-0.11,0.08,0.95,312.7,-7.4,-16.8,1.0,0.5,0.5,1.0,1.0,1.5,0.25,2.0,0.25,3.0,2.0,0.75,1.25,-0.48,2.2,1.2,199.97,1.5,-22.4
0.56,1.0,1.0,0.0,2.25,6.5,5.25,0.5,6.0,0.75,4.25,2.25,1.25,1.75,-0.11,0.08,0.95,354.73,-5.7,-5.2,0.0,0.0,1.75,0.0,0.25,0.0,0.25,0.5,0.25,1.5,0.75,0.75,1.25,-1.3,2.58,0.89,185.36,-5.5,-40.4
0.58,1.25,1.25,0.0,3.0,7.5,6.25,0.75,6.0,0.75,3.0,2.25,1.0,1.5,-0.11,0.14,0.95,405.17,-4.8,4.8,1.0,0.5,1.75,0.5,0.5,1.5,0.25,2.0,0.0,1.75,2.0,0.75,2.25,-1.48,2.89,0.45,194.27,-1.4,-22.3
0.6,2.0,1.0,0.75,4.0,8.25,6.75,0.75,5.75,0.5,2.75,2.0,1.0,1.5,-0.11,0.14,0.95,471.66,-2.9,11.6,1.0,0.5,1.75,0.5,1.25,1.75,0.5,2.0,0.25,2.0,2.0,0.75,2.25,-1.3,3.02,0.02,200.78,-0.9,-18.2
0.62,1.25,1.0,1.0,5.25,8.25,7.5,1.25,5.5,0.75,2.5,1.5,1.0,1.5,-0.11,0.14,0.95,529.4,-2.7,14.1,0.75,0.5,1.0,0.5,0.0,0.0,0.25,2.0,0.0,2.75,2.0,1.75,2.25,-0.23,0.33,1.33,206.2,-0.8,-48.5
0.64,2.0,1.0,1.0,6.0,8.75,7.75,1.5,5.0,0.5,2.5,1.5,1.0,1.5,-0.11,0.14,1.08,581.06,-1.6,18.1,0.75,0.5,1.5,0.5,0.0,0.0,0.25,2.0,0.5,5.25,3.0,3.25,4.0,-0.23,-0.23,1.08,242.76,0.1,-59.4
0.66,1.5,1.0,0.0,7.0,0.0,7.75,2.0,4.25,0.5,2.5,1.25,1.0,1.25,-0.17,0.2,1.02,538.59,-1.6,7.8,1.0,0.5,1.0,0.5,0.0,0.0,0.25,2.0,0.75,6.75,5.0,5.25,5.5,-0.61,0.2,0.83,299.09,0.6,-68.4
0.68,0.0,1.0,0.0,7.75,0.0,8.0,2.25,3.25,0.75,2.5,0.75,1.0,1.25,-0.17,0.2,1.08,480.26,-2.6,7.7,1.0,0.5,1.25,0.5,1.25,2.0,0.25,2.25,1.0,7.75,6.75,5.0,6.5,-0.05,0.45,2.33,398.97,1.9,-58.1
0.7,3.5,1.0,0.0,8.75,0.0,7.75,2.75,2.75,0.5,2.5,0.5,1.0,1.25,-0.17,0.2,1.08,441.28,2.5,20.8,0.75,0.75,1.25,0.5,1.5,0.0,0.25,3.75,1.0,8.25,7.5,5.0,6.25,0.27,0.39,2.39,504.05,1.5,-61.3
0.72,4.25,1.25,5.75,8.75,0.0,7.0,2.75,2.5,0.5,0.5,1.0,1.0,0.25,-0.17,0.27,1.08,449.08,11.8,38.4,0.75,1.0,0.75,0.75,1.5,2.0,0.5,5.0,1.25,7.75,8.0,5.0,6.0,-0.11,0.14,0.95,596.74,2.6,-55.1
0.74,5.5,1.0,5.25,8.25,0.0,0.0,2.75,1.5,0.0,1.0,1.25,1.0,0.0,-0.23,0.27,1.33,421.25,21.8,43.3,0.0,1.0,1.0,1.5,1.5,3.25,0.25,5.75,1.25,8.25,8.5,5.0,5.5,0.08,0.14,0.95,654.65,3.4,-52.2
0.76,0.0,1.0,4.0,7.25,0.0,0.0,2.5,0.0,0.25,0.75,0.0,0.25,0.25,-0.3,0.33,1.7,347.64,21.3,45.5,1.0,1.0,1.5,1.75,1.5,4.0,1.25,5.75,1.25,8.5,8.5,3.75,6.0,0.08,0.08,0.95,704.09,2.5,-44.1
0.78,0.0,1.0,4.0,4.0,0.0,0.0,1.75,0.0,0.5,0.0,0.0,0.0,0.75,-0.42,0.58,2.7,261.41,23.1,45.0,0.75,1.25,0.5,2.0,1.5,5.5,1.25,5.75,1.0,7.75,7.5,3.25,4.75,0.08,0.08,0.95,714.83,4.1,-39.3
0.8,0.0,0.75,2.75,2.75,0.0,0.0,1.0,0.0,0.5,0.0,0.0,0.0,0.0,-0.61,0.83,2.77,168.54,25.3,54.9,0.25,0.25,0.5,0.5,1.5,5.75,1.5,6.5,0.0,7.5,6.75,3.0,4.25,0.08,0.08,0.95,683.81,6.8,-45.9
0.82,3.75,0.0,1.75,2.0,0.0,0.0,0.5,0.0,0.25,0.25,0.25,0.0,0.0,-0.36,0.7,2.89,103.46,28.2,63.7,1.5,0.75,0.5,3.25,1.75,6.25,2.0,6.75,1.0,7.5,6.5,3.5,5.0,0.08,0.08,0.95,672.69,3.6,-33.4
0.84,0.0,0.0,1.0,1.75,0.0,0.0,0.0,0.0,0.0,0.0,0.25,1.25,0.0,-0.73,0.08,2.77,43.08,19.4,3.2,1.25,1.25,3.0,3.25,5.25,6.5,2.5,7.0,0.5,6.5,6.25,2.75,4.5,0.14,0.08,0.95,696.43,1.5,-17.1
0.86,0.0,0.0,0.0,0.0,0.0,0.0,0.0,0.0,2.25,0.0,0.0,0.0,0.0,-0.48,-0.92,1.89,0.41,12.2,-38.5,0.5,1.25,3.0,3.25,6.25,7.5,3.0,6.75,0.0,5.5,5.25,2.25,3.75,0.14,0.08,0.95,715.44,2.2,-10.6
0.88,0.0,0.0,0.0,0.0,0.0,0.0,2.5,0.0,1.0,0.0,0.0,0.0,0.0,-0.42,-1.05,1.45,0.0,23.2,-2.4,2.0,1.5,3.25,3.25,7.0,7.75,3.0,6.5,0.0,4.25,3.75,1.5,3.25,0.14,0.08,0.95,716.61,0.9,1.7
0.9,0.0,0.0,0.0,0.0,0.0,0.0,0.0,0.0,0.0,0.0,0.0,0.0,0.0,-0.23,-1.3,1.89,0.0,0.0,0.0,2.0,1.75,3.0,5.0,7.25,8.0,3.0,6.25,0.75,4.0,3.25,1.0,2.75,0.14,0.14,0.95,718.25,0.2,7.7
0.92,0.0,0.0,0.0,0.0,0.0,0.0,0.0,0.0,0.0,0.0,0.0,0.0,0.0,-0.23,-0.55,0.89,0.0,0.0,0.0,1.25,1.75,3.0,4.0,7.5,7.75,2.5,5.75,0.25,1.5,2.75,1.0,1.5,0.08,0.08,0.95,670.96,0.0,16.0
0.94,0.0,0.0,0.0,0.0,0.0,0.0,0.0,0.0,0.0,0.0,0.0,0.0,0.0,-0.55,-0.42,0.33,0.0,0.0,0.0,0.75,0.5,1.75,4.5,7.75,7.75,3.0,4.75,0.0,1.5,1.5,0.25,1.25,0.14,0.14,1.02,598.02,2.0,20.0
0.96,0.0,0.0,0.0,0.0,0.0,0.0,1.5,0.0,0.0,0.0,0.0,0.0,0.0,-0.61,-0.36,0.52,0.0,32.4,27.3,0.5,0.25,1.75,4.0,7.25,8.25,1.5,4.5,0.0,1.5,1.0,0.25,1.5,0.08,0.14,0.95,518.96,4.0,18.5
0.98,0.0,0.0,0.0,0.0,0.0,0.0,2.25,0.0,0.5,0.0,0.0,0.0,0.0,-0.42,-0.36,0.89,0.0,26.0,6.6,1.5,0.5,2.0,4.5,7.25,8.0,1.5,3.75,0.0,1.25,0.75,0.25,1.25,0.08,0.14,0.95,466.35,1.5,26.0
1.0,0.0,0.0,0.25,0.25,0.0,0.0,0.25,1.0,0.0,1.0,0.0,0.0,0.0,-0.23,-0.17,1.08,0.0,-5.4,-30.3,0.75,0.0,3.0,4.5,7.75,8.0,2.25,3.5,0.0,1.25,0.75,0.25,1.25,0.08,0.2,0.95,438.77,0.8,25.4
1.02,0.0,0.0,0.0,0.25,0.0,0.0,0.0,0.0,0.0,0.0,0.0,0.0,0.0,-0.3,0.08,1.08,0.0,17.2,57.9,1.25,1.0,3.25,5.5,8.0,7.75,2.5,3.5,0.0,1.25,0.75,0.0,1.25,0.08,0.2,0.95,450.92,-0.9,30.8
1.04,0.0,0.0,0.0,0.0,0.0,0.0,0.0,0.0,0.0,0.0,0.0,0.0,0.0,-0.36,0.2,1.2,0.0,0.0,0.0,2.0,1.0,4.0,7.25,8.5,7.5,3.5,3.5,0.0,0.75,0.75,0.25,1.25,0.02,0.2,0.89,490.32,-3.7,34.5
1.06,0.0,0.0,0.0,0.25,0.0,0.0,0.0,0.25,0.0,1.0,0.0,0.0,0.0,-0.42,0.27,1.52,3.15,-10.1,-46.3,4.0,2.25,5.5,10.0,8.5,8.0,4.25,2.25,0.5,1.5,0.75,1.0,1.25,0.02,0.27,0.89,582.75,-7.3,38.1
1.08,1.0,0.0,0.0,0.25,0.0,0.0,0.0,0.75,0.0,1.25,0.0,0.0,0.0,-0.42,0.33,1.83,22.27,1.5,-5.3,3.75,1.25,7.25,9.25,9.0,7.0,5.75,2.0,0.5,1.25,1.0,0.25,1.25,0.02,0.27,0.95,666.71,-9.2,39.8
1.1,0.5,0.0,0.0,0.25,0.0,0.0,0.0,0.75,0.0,0.75,0.0,0.0,0.0,-0.42,0.45,2.45,32.65,-1.5,-11.1,5.25,0.5,8.5,11.0,9.25,6.75,6.5,2.0,0.5,0.75,0.75,0.25,1.25,0.02,0.27,1.02,767.46,-11.3,43.4
1.12,0.5,0.0,0.0,0.25,0.0,0.0,0.0,0.75,0.0,1.0,0.0,0.0,0.0,-0.42,0.58,2.77,41.32,-3.0,-17.6,6.25,2.0,9.25,11.0,9.0,6.0,7.0,2.0,0.25,0.75,0.75,0.25,1.25,0.02,0.33,1.08,850.15,-12.8,46.5
1.14,0.5,0.0,0.75,0.25,0.0,0.0,0.0,0.0,0.0,0.75,0.0,0.0,0.0,-0.55,1.2,3.2,44.5,17.1,22.7,7.0,2.25,9.75,11.0,8.75,4.25,7.75,1.0,0.5,1.0,0.75,0.0,1.25,0.02,0.33,1.14,910.05,-15.1,49.2
1.16,0.75,0.0,0.5,0.25,0.0,0.0,0.0,0.0,0.0,1.0,0.0,0.0,0.0,-0.48,2.27,2.58,44.77,13.3,15.9,8.0,1.25,10.5,11.0,8.5,1.75,8.25,0.5,0.25,1.5,0.75,0.25,1.25,0.02,0.33,1.14,934.68,-17.8,49.1
1.18,1.0,0.0,0.0,0.25,0.0,0.0,0.0,0.25,0.0,0.75,0.25,0.0,0.25,0.33,3.2,1.77,44.77,7.5,-2.3,8.5,2.0,11.0,11.0,7.25,1.75,8.25,0.5,0.25,0.5,0.75,0.0,1.25,0.02,0.45,1.33,934.6,-19.4,53.6
1.2,0.75,0.0,0.0,0.25,0.0,0.0,0.0,0.25,0.0,0.0,0.25,0.0,0.25,1.14,3.95,0.58,40.68,13.9,16.0,9.5,3.0,11.5,7.5,7.25,0.0,8.25,0.5,0.5,1.0,2.0,0.75,2.25,0.14,0.58,1.77,920.85,-19.9,45.3
1.22,0.25,0.0,0.0,0.25,0.0,0.0,0.0,0.0,0.0,0.0,0.0,0.0,0.25,0.89,4.27,-0.23,31.13,12.1,12.9,9.5,2.25,8.75,5.75,4.25,1.25,7.25,0.5,0.25,1.0,0.75,0.75,1.25,0.2,0.95,2.39,822.48,-20.6,49.9
1.24,0.0,0.0,0.0,0.0,0.0,0.0,0.0,0.75,0.0,0.0,0.5,0.0,0.5,0.64,4.33,1.08,28.16,-8.2,-69.8,7.75,0.25,6.75,2.25,3.5,0.0,6.25,0.5,0.25,1.5,2.0,0.0,1.5,0.64,1.14,2.77,657.03,-20.8,38.3
1.26,0.0,0.0,0.0,0.5,0.0,0.0,0.0,0.0,0.25,0.75,0.5,0.0,0.0,0.02,1.02,2.45,28.56,2.7,-36.1,5.0,0.0,3.25,1.0,1.5,0.0,3.0,0.5,0.0,0.5,0.75,0.25,0.5,0.39,0.83,2.83,423.45,-22.8,44.7
1.28,0.0,0.0,0.0,0.0,0.0,0.0,0.0,0.0,0.75,3.5,2.25,0.5,0.0,-0.55,0.14,1.02,59.35,-2.6,-74.0,2.0,0.0,0.25,0.5,0.25,0.75,1.25,0.5,0.25,0.75,0.75,0.25,1.0,1.02,-0.48,2.33,247.66,-8.4,0.5
1.3,0.0,0.0,0.0,0.5,0.0,0.0,0.0,0.0,0.25,6.5,3.0,5.25,5.25,-0.17,0.33,2.27,163.88,-4.1,-89.2,2.25,0.5,0.0,1.25,1.75,2.0,1.0,1.25,0.75,0.0,1.5,0.25,1.75,0.52,-0.11,-0.11,140.95,-3.5,7.7
1.32,0.0,0.0,0.0,0.0,0.0,0.0,0.0,0.75,0.5,0.0,5.75,4.75,6.25,-0.17,0.27,1.83,235.98,0.4,-94.3,1.0,0.0,1.0,0.25,0.0,0.75,0.25,0.5,0.0,0.5,0.75,0.0,1.25,1.2,-0.73,2.02,43.75,-6.3,-9.3
1.34,0.0,0.0,0.0,0.0,0.0,0.0,0.0,1.0,0.75,7.25,5.75,4.0,6.0,-0.55,0.27,1.7,315.82,-4.4,-87.0,0.75,0.0,1.25,0.5,0.0,1.0,0.25,0.5,0.0,0.25,0.75,0.0,0.75,0.27,-1.36,1.33,0.0,-8.5,5.9
1.36,0.0,0.0,0.0,0.25,0.0,0.0,0.0,2.5,0.75,7.25,6.75,3.75,5.25,-0.11,0.2,1.27,378.37,-4.2,-81.5,0.75,0.0,0.5,0.5,0.0,1.0,0.25,0.5,0.0,0.0,0.75,0.0,1.25,0.33,-0.3,1.02,0.0,-3.2,-9.3
1.38,0.0,0.0,0.0,0.25,0.0,0.0,0.0,3.75,1.5,8.0,6.75,5.0,5.25,-0.11,0.14,1.02,452.22,-4.1,-79.7,2.0,0.5,0.5,1.25,0.0,2.0,0.25,0.5,0.0,1.25,0.75,1.0,2.0,0.45,-0.23,0.27,0.0,-2.9,-8.1
1.4,0.0,0.0,0.0,1.0,0.0,0.0,0.0,4.25,1.75,8.0,7.25,5.0,5.75,-0.11,0.08,1.02,511.34,-3.6,-75.9,2.0,0.5,3.25,1.25,1.5,2.0,0.5,1.0,0.0,1.25,2.0,0.75,2.0,0.52,-0.05,0.39,44.79,-8.0,5.0
1.42,0.0,0.0,0.0,0.25,0.0,0.0,0.0,5.0,1.25,8.0,7.0,4.25,6.0,-0.11,0.08,0.95,553.53,-5.1,-78.4,2.0,0.25,2.0,1.5,1.75,2.0,0.25,1.5,0.25,1.25,2.0,0.75,2.25,0.2,-0.17,0.95,118.02,-4.6,-2.4
1.44,0.0,0.0,0.0,1.75,0.0,1.0,0.0,5.0,0.5,7.25,6.25,3.75,5.25,-0.11,0.08,0.95,559.92,-5.1,-67.8,2.0,0.5,0.75,1.25,1.5,2.0,0.25,1.25,0.5,1.5,2.0,0.75,2.25,-0.05,-0.05,1.2,170.58,-2.1,-8.8
1.46,0.0,0.0,0.0,1.25,0.0,0.75,0.0,5.0,0.75,6.5,5.75,3.0,4.75,-0.11,0.14,0.95,527.5,-5.4,-68.5,2.0,0.5,1.75,0.75,1.25,2.0,0.25,1.25,0.25,1.25,2.0,0.75,2.0,0.02,0.14,1.08,205.16,-4.5,-4.5
1.48,0.0,0.0,0.0,0.75,0.0,1.0,0.0,5.0,0.0,6.5,4.5,2.75,4.0,-0.11,0.14,0.95,468.67,-7.3,-69.1,1.25,0.5,1.75,0.75,1.5,2.0,0.25,1.0,0.0,1.75,2.0,0.75,2.0,0.02,0.27,1.08,222.91,-2.5,-9.2
1.5,0.0,0.0,0.0,0.25,0.0,1.25,0.0,5.0,0.25,5.5,3.75,2.0,3.25,-0.17,0.14,0.95,394.64,-8.4,-67.3,1.25,0.5,1.75,0.5,1.5,2.0,0.25,1.5,0.0,1.25,2.0,0.75,2.0,0.02,0.27,1.39,231.1,-2.2,-9.2
1.52,0.0,0.0,0.0,0.25,0.0,2.0,0.0,5.0,0.0,5.5,3.0,2.0,2.75,-0.17,0.14,0.95,336.25,-9.7,-62.7,1.5,0.5,1.75,0.75,1.75,2.0,0.25,0.75,0.0,1.25,2.0,0.75,1.75,0.08,0.27,1.95,232.01,-4.1,-1.9
1.54,0.25,0.0,0.0,0.0,0.0,2.75,0.0,5.25,0.0,5.0,2.25,1.75,2.5,-0.17,0.14,0.95,289.47,-10.9,-56.6,1.5,0.5,1.5,0.5,1.5,2.0,0.25,1.25,0.25,1.25,2.0,0.75,2.0,0.08,0.39,2.39,228.88,-2.6,-8.7
1.56,0.0,0.0,0.0,0.5,0.0,3.5,0.0,5.5,0.0,4.25,1.75,1.5,2.25,-0.17,0.14,0.95,266.05,-11.8,-49.1,1.25,0.5,1.25,0.5,2.25,2.0,0.25,1.25,0.25,1.25,2.0,0.75,2.0,0.14,0.7,3.08,231.75,-1.2,-8.0
1.58,0.25,0.0,0.0,1.0,0.0,4.25,0.0,5.75,0.0,4.25,2.25,1.25,1.75,-0.17,0.14,0.95,249.88,-10.6,-40.1,1.25,0.5,1.75,0.5,1.5,2.0,0.25,0.75,0.25,1.25,2.0,0.75,2.0,0.2,1.33,3.33,224.83,-3.4,-8.2
1.6,0.25,0.0,0.0,2.0,0.0,5.25,0.0,6.0,0.0,4.25,1.25,1.0,1.75,-0.17,0.14,0.95,245.29,-11.1,-29.6,1.25,0.5,1.75,0.75,1.5,2.0,0.25,1.25,0.0,1.5,2.0,0.75,1.75,0.14,2.33,2.58,219.29,-2.8,-6.9
1.62,0.0,0.5,0.0,2.0,5.0,6.0,0.0,6.25,0.0,4.25,1.5,1.0,1.75,-0.11,0.14,0.95,274.07,-9.6,-10.5,1.5,0.0,1.75,0.5,1.0,2.0,0.25,1.5,0.0,1.25,1.75,0.75,1.75,-0.92,3.08,1.02,205.22,-2.8,-11.0
1.64,0.0,0.75,0.0,2.0,7.25,6.75,0.0,6.25,0.0,3.75,0.5,1.0,1.5,-0.11,0.14,0.95,314.36,-9.7,0.7,0.0,0.0,0.5,0.0,0.0,0.5,0.0,0.5,0.0,0.0,0.75,0.0,1.25,-2.3,3.95,0.08,150.91,2.6,-48.0
1.66,1.25,1.0,0.0,2.25,7.75,7.25,0.0,6.25,0.0,2.75,1.5,1.0,1.5,-0.11,0.14,0.95,376.04,-7.0,6.8,1.25,0.5,0.5,0.75,0.0,2.0,0.25,1.25,0.25,1.25,2.0,0.75,2.0,-2.42,4.33,-0.11,142.7,-0.2,-23.7
1.68,1.5,1.0,0.0,4.0,8.25,7.75,0.5,6.0,0.0,2.5,1.5,1.0,1.5,-0.11,0.14,0.95,443.07,-5.3,12.1,1.0,0.0,1.0,0.5,0.0,1.25,0.0,0.5,0.0,0.0,0.75,0.75,1.0,-1.23,3.14,5.77,111.96,-6.9,-6.6
1.7,1.5,1.0,0.0,6.0,8.75,8.0,0.5,5.25,0.25,2.5,1.25,1.0,1.5,-0.11,0.14,1.02,514.36,-3.9,16.5,1.0,0.5,1.75,0.5,0.0,2.0,0.25,1.5,0.0,2.25,2.5,1.25,2.5,0.52,-0.05,0.77,143.08,-1.2,-30.4
1.72,0.0,1.0,0.0,7.0,9.25,8.0,0.75,4.75,0.25,2.5,0.5,0.75,1.25,-0.11,0.2,1.08,556.36,-4.8,19.5,1.0,0.5,0.0,0.5,0.25,2.0,0.25,1.25,0.0,6.25,3.25,4.75,5.0,0.33,-0.11,0.52,214.54,4.2,-64.0
1.74,1.75,1.0,0.0,7.75,9.0,8.25,1.0,4.25,0.5,2.5,0.25,1.0,1.25,-0.17,0.2,1.08,596.29,-2.4,23.6,1.5,0.0,0.25,0.0,0.0,0.5,0.25,1.75,0.0,7.75,6.0,5.75,6.75,-0.98,0.64,2.77,307.1,2.6,-76.4
1.76,1.25,1.0,0.0,8.0,0.0,8.0,1.25,2.75,0.5,1.75,1.25,0.25,1.25,-0.17,0.2,1.08,534.74,-0.9,17.2,1.0,0.5,1.75,0.75,0.0,2.0,0.25,4.75,1.0,9.25,8.75,5.5,6.5,0.77,0.58,2.95,448.02,1.9,-60.7
1.78,2.5,0.5,2.25,8.0,0.0,0.0,1.0,1.75,0.0,1.5,1.0,0.5,1.25,-0.17,0.27,1.2,435.9,14.0,23.4,0.0,0.75,0.5,1.5,0.0,4.0,0.25,5.75,1.0,8.5,9.25,5.25,5.5,-0.23,0.2,1.27,579.38,4.2,-58.4
1.8,4.25,1.0,4.25,7.75,0.0,0.0,1.0,2.0,0.0,1.0,1.0,1.0,0.75,-0.48,0.27,1.77,368.77,18.3,34.6,0.5,0.25,0.0,0.5,0.0,4.0,0.25,4.75,1.5,8.75,9.0,4.75,5.25,0.14,0.14,0.95,657.6,4.9,-62.6
1.82,4.25,0.5,4.25,6.0,0.0,0.0,0.5,1.5,0.0,0.75,1.25,1.0,0.0,-0.55,0.45,2.39,312.8,20.8,38.3,0.75,0.5,0.75,2.0,1.5,5.5,0.5,5.5,1.75,8.75,9.25,4.75,5.0,0.08,0.14,0.95,720.12,3.4,-46.4
1.84,0.0,1.0,2.5,4.0,0.0,0.0,0.5,0.0,0.0,0.75,0.75,1.0,0.0,-0.73,0.83,3.02,245.1,18.6,27.3,0.75,0.5,2.25,2.0,2.25,5.0,1.5,5.75,2.25,9.25,9.25,4.75,4.75,0.08,0.08,0.95,778.06,1.6,-41.1
1.86,0.0,0.0,0.0,2.0,0.0,0.0,0.0,0.0,0.0,0.0,0.5,0.0,0.0,-0.73,0.83,3.39,144.95,15.9,32.8,0.75,0.5,1.75,0.5,1.25,4.5,1.25,5.5,2.25,9.0,8.75,5.0,4.25,0.08,0.08,0.95,795.55,2.3,-48.3
1.88,0.0,0.0,0.75,2.0,0.0,0.0,0.0,1.0,0.0,0.25,0.0,0.0,0.0,-0.86,0.33,2.89,59.65,10.9,26.9,1.75,0.25,2.5,0.5,3.75,4.25,1.5,5.75,1.5,8.5,9.25,4.5,4.0,0.08,0.08,0.95,806.57,0.9,-37.6
1.9,0.0,0.0,0.0,0.0,0.0,0.0,3.0,5.0,1.25,0.0,0.0,0.0,0.0,-0.92,-1.8,2.45,9.75,-2.9,-26.3,1.5,1.25,2.0,2.0,1.75,5.5,1.25,5.75,1.75,8.0,8.5,3.5,4.0,0.08,0.08,0.95,774.98,1.3,-33.4
1.92,0.0,0.0,0.75,0.25,0.0,0.0,0.0,1.0,0.0,0.75,0.0,0.75,0.0,-0.92,-1.61,2.58,0.0,3.4,-32.6,1.5,1.0,1.75,2.0,2.25,5.75,1.25,5.75,1.5,7.5,7.75,3.75,4.5,0.14,0.08,0.95,743.14,2.0,-33.3
1.94,0.0,0.0,0.0,0.25,0.0,0.0,0.0,1.5,0.0,0.0,0.0,0.0,0.0,-0.17,-1.05,0.83,0.0,-11.7,-24.4,0.5,0.5,1.25,0.5,1.75,5.5,1.25,5.5,1.25,6.25,6.25,2.5,3.25,0.14,0.08,0.95,636.96,4.4,-37.3
1.96,0.0,0.0,0.5,0.0,0.0,0.0,0.0,1.0,0.0,0.75,0.0,0.0,0.0,-0.48,-0.42,0.45,0.0,-3.9,-28.2,0.75,0.75,0.5,0.75,1.75,5.5,1.0,5.25,1.5,6.25,6.0,2.25,3.0,0.14,0.08,0.95,547.43,4.9,-35.7
1.98,0.0,0.0,0.0,0.0,0.0,0.0,0.0,1.0,0.0,0.0,0.75,0.0,0.0,-0.73,-0.3,0.33,0.0,-5.1,-54.2,0.0,0.5,0.0,1.5,1.75,4.75,0.25,4.75,1.0,5.5,5.25,1.5,2.75,0.08,0.08,0.95,445.95,6.6,-37.1
2.0,0.0,0.0,0.25,0.0,0.0,0.0,0.0,1.0,0.0,0.75,0.0,0.0,0.0,-0.61,-0.3,0.52,0.0,-9.3,-39.7,0.0,0.25,0.0,0.5,2.25,5.75,0.25,5.0,1.0,5.25,5.0,1.5,3.75,0.08,0.08,0.95,389.16,8.5,-39.4
2.02,0.0,0.0,0.5,1.0,0.0,0.0,0.0,1.0,0.5,0.75,0.0,0.0,0.0,-0.42,-0.3,0.95,0.0,3.9,-5.8,1.25,1.25,1.25,2.0,4.5,6.0,1.0,5.75,1.0,5.0,5.75,1.25,3.25,0.08,0.08,0.95,398.94,3.2,-16.2
2.04,0.0,0.0,0.0,1.25,0.0,0.0,0.0,1.0,0.5,0.75,0.5,0.0,0.25,-0.23,-0.11,1.2,8.59,0.3,-24.0,1.25,1.25,0.5,2.25,3.25,6.75,0.75,5.75,1.25,5.5,5.5,2.5,3.25,0.14,0.14,0.95,430.15,4.1,-22.5
2.06,0.0,0.0,0.0,0.5,0.0,0.0,0.0,0.0,0.5,0.75,0.25,0.0,0.75,-0.42,0.33,1.14,27.41,-1.6,-53.3,0.5,1.0,0.5,1.75,3.75,7.25,1.25,5.75,1.25,5.5,5.0,2.25,3.0,0.14,0.14,0.95,454.15,5.4,-22.7
2.08,0.0,0.0,0.0,0.25,0.0,0.0,0.0,1.0,0.0,1.25,0.0,0.0,1.0,-0.61,0.58,1.14,46.78,-12.9,-65.2,1.25,0.5,1.0,3.25,5.25,7.5,1.25,5.75,1.5,3.75,4.25,2.25,2.25,0.14,0.08,0.95,481.67,3.0,-9.2
2.1,0.0,0.0,0.0,0.0,0.0,0.0,0.0,0.75,0.0,0.5,0.0,0.0,0.25,-0.48,0.95,1.14,43.48,-15.9,-63.1,2.0,2.0,1.75,3.25,6.25,7.5,2.5,5.75,1.0,2.75,5.0,0.75,1.5,0.14,0.08,0.95,520.98,0.4,6.5
2.12,0.0,0.0,0.0,0.0,0.0,0.0,0.0,0.75,0.0,0.75,0.0,0.0,0.25,-0.36,1.2,1.33,34.87,-15.8,-64.8,2.5,1.5,4.0,5.5,7.25,7.75,3.25,5.25,0.0,1.25,3.25,0.75,1.0,0.14,0.08,0.95,563.79,-3.1,23.0
2.14,0.0,0.0,0.0,0.0,0.0,0.0,0.0,0.75,0.0,0.25,0.0,0.0,0.25,-0.23,2.2,2.2,24.82,-15.9,-60.6,3.75,1.5,5.5,7.25,8.25,8.0,4.5,4.75,0.75,1.25,2.0,0.75,1.0,0.14,0.14,1.02,647.27,-5.7,30.4
2.16,0.0,0.0,0.25,0.25,0.0,0.0,0.25,1.0,0.25,1.0,0.0,0.0,0.25,0.39,2.33,1.95,33.97,-4.7,-37.5,4.5,1.5,6.75,7.25,8.5,7.75,4.5,3.75,0.25,1.25,2.0,0.75,1.0,0.08,0.14,1.14,727.51,-7.5,34.4
2.18,1.0,0.0,0.0,0.25,0.0,0.0,0.0,1.0,0.0,1.0,0.0,0.0,0.0,0.14,2.95,1.27,39.89,1.4,-2.4,5.0,1.0,7.75,7.5,8.5,7.5,4.5,3.5,0.5,0.5,1.0,0.5,0.5,0.08,0.14,1.2,785.56,-9.3,41.4
2.2,0.0,0.0,0.0,0.0,0.0,0.0,0.25,1.0,0.0,1.0,0.0,0.0,0.25,0.27,3.08,-0.11,42.63,-13.5,-58.6,5.5,1.5,7.75,8.75,8.5,0.0,4.5,2.5,0.25,0.5,0.75,0.25,1.25,0.02,0.2,1.14,767.12,-15.6,45.7
2.22,0.0,0.0,0.25,2.0,0.0,0.0,0.0,1.0,0.0,0.0,0.0,0.0,0.0,3.58,7.95,-0.92,47.96,8.6,29.3,5.75,0.75,8.25,7.5,8.25,5.0,5.25,3.0,0.5,0.0,0.75,0.5,1.25,0.14,0.27,1.39,762.4,-12.1,42.6
2.24,0.0,0.0,0.0,0.75,0.0,0.0,0.5,0.25,0.0,0.0,0.0,0.0,0.0,1.39,3.95,-3.17,38.89,13.3,33.2,6.0,1.25,8.75,6.25,7.25,3.25,4.5,2.25,0.25,0.0,2.0,0.25,2.0,0.33,0.33,1.95,724.27,-14.0,40.2
2.26,0.0,0.0,0.0,0.25,0.0,0.0,0.0,0.75,0.5,1.25,0.0,1.0,0.0,-0.23,1.39,1.95,44.54,-3.4,-63.1,5.75,1.0,5.5,5.0,3.5,2.0,3.0,0.75,0.5,0.0,0.75,0.25,1.25,0.33,0.58,2.2,603.94,-17.1,47.0
2.28,1.25,0.0,0.0,0.0,0.0,0.0,0.0,1.0,0.0,0.0,2.25,0.0,0.25,0.02,0.45,1.33,52.65,9.5,-25.4,4.5,1.25,3.0,3.25,1.5,2.0,1.75,2.0,1.0,1.25,0.75,0.75,1.25,0.39,0.7,2.58,469.37,-11.6,26.3
2.3,0.0,0.0,0.0,1.0,0.0,0.0,1.5,0.0,0.5,0.75,2.25,0.0,0.0,-0.05,0.33,0.95,68.09,11.3,-30.7,1.25,0.0,1.0,0.5,1.5,2.0,1.25,1.0,0.25,0.0,0.75,0.25,1.0,0.45,0.58,2.52,301.12,-4.1,13.4
2.32,0.0,0.0,0.0,0.5,0.0,0.0,0.75,1.0,1.0,1.75,0.25,0.0,0.0,-0.11,0.08,0.95,75.75,-1.8,-38.4,0.5,0.0,0.5,0.5,0.0,2.0,0.0,0.5,0.25,0.0,0.75,0.0,0.25,0.52,-0.3,1.83,173.09,-0.1,11.6
2.34,0.75,0.0,0.0,0.75,0.0,0.0,1.5,2.0,0.75,2.0,1.25,0.25,0.25,-0.17,0.08,0.95,100.89,1.9,-31.2,2.0,0.0,2.0,0.5,1.5,1.75,0.0,2.0,0.0,0.0,2.0,0.25,1.5,0.08,-0.17,0.89,97.1,-5.7,4.9
2.36,0.0,0.0,0.0,2.5,0.0,1.5,1.5,1.25,0.75,2.5,0.5,0.5,0.5,-0.11,0.08,0.95,127.76,-1.1,-18.0,0.0,0.0,1.0,0.5,0.0,1.25,0.0,0.75,0.0,0.0,0.5,0.25,1.25,0.33,0.08,0.83,26.72,0.2,-18.3
2.38,5.25,1.0,0.0,5.5,0.0,3.25,2.0,2.75,1.0,2.5,0.5,1.0,1.25,-0.11,0.08,0.95,217.68,6.7,17.2,1.75,0.0,0.25,0.5,0.0,2.0,0.5,1.5,0.75,1.25,2.0,0.75,1.75,0.39,-0.17,1.39,27.11,-0.6,-26.3
2.4,5.0,1.75,0.0,6.0,0.0,4.25,2.0,2.75,0.75,2.5,0.0,1.0,1.25,-0.11,0.08,1.02,289.23,5.7,22.6,1.5,0.75,1.5,1.25,1.5,2.0,0.25,1.5,0.0,1.25,2.0,0.75,2.0,0.33,-0.8,1.64,60.8,-3.0,-3.8
2.42,4.5,1.0,0.0,6.0,0.0,3.25,1.5,0.0,0.0,1.0,0.0,0.0,0.0,-0.17,0.08,1.08,317.02,12.6,56.7,1.5,0.5,0.5,1.0,1.5,2.0,0.25,1.0,0.25,1.25,2.0,0.75,1.5,0.2,-0.92,1.2,97.81,-1.5,-7.1
2.44,0.0,2.5,0.0,7.0,0.0,0.0,1.75,2.5,0.0,1.25,1.0,1.0,1.0,-0.17,0.14,1.14,315.64,7.3,12.3,1.25,0.5,2.75,0.75,1.25,2.0,0.0,1.75,0.5,1.25,2.0,0.75,1.5,-0.05,-0.05,0.77,134.13,-5.1,-3.2
2.46,6.0,1.25,0.0,7.0,0.0,0.0,1.25,1.0,0.0,0.75,0.0,0.0,0.0,-0.17,0.2,1.02,298.81,19.8,61.6,1.25,0.75,1.75,0.5,1.25,1.75,0.0,0.5,0.25,1.0,0.75,0.25,1.75,-0.42,0.64,0.39,143.77,-4.2,6.7
2.48,0.0,2.5,0.0,7.5,0.0,0.0,1.5,1.0,0.0,0.0,0.0,0.5,0.0,-0.17,0.2,0.95,270.75,14.1,50.3,0.0,0.0,0.5,0.0,0.0,1.0,0.25,0.5,0.25,0.0,0.75,0.25,1.0,-0.23,1.14,-0.05,120.16,1.7,-36.3
2.5,0.0,2.25,0.0,8.75,0.0,0.0,1.75,1.0,0.5,0.75,0.75,1.0,0.75,-0.17,0.27,0.95,261.19,11.5,24.6,0.0,0.0,0.5,0.0,0.0,1.0,0.0,0.5,0.0,0.0,1.0,0.25,0.75,0.14,1.39,-0.42,91.7,2.0,-35.7
2.52,0.0,2.5,0.0,8.75,0.0,0.0,1.5,1.0,0.5,0.75,0.0,1.0,0.0,-0.23,0.27,0.95,254.98,12.7,37.0,0.0,0.0,0.25,0.0,0.0,0.75,0.0,0.75,0.25,0.0,0.75,0.0,1.0,-0.17,3.58,-1.48,65.23,5.9,-44.8
2.54,2.75,2.5,7.25,8.75,0.0,0.0,2.0,1.0,0.5,0.0,0.5,0.25,0.5,-0.17,0.33,0.83,292.23,23.0,52.6,0.0,0.0,0.0,0.0,0.0,0.75,0.0,0.25,0.25,0.0,0.0,0.0,0.75,-0.48,2.45,-3.11,44.03,14.1,-40.4
2.56,8.0,2.5,7.5,8.75,0.0,0.0,2.0,1.0,0.5,1.5,0.5,1.0,0.0,-0.11,0.39,0.83,360.48,23.4,52.4,1.0,0.5,1.0,0.75,1.0,2.0,0.25,1.5,0.0,1.25,2.0,0.75,1.75,-1.23,2.02,-4.23,84.49,-0.5,-14.5
2.58,8.25,2.5,7.25,8.0,0.0,0.0,2.25,0.0,0.25,0.5,0.0,0.0,0.0,-0.11,0.39,0.89,410.48,27.2,69.1,1.25,0.5,1.75,0.75,1.25,2.0,0.25,1.5,0.0,1.25,2.0,0.75,1.75,1.77,4.45,-2.67,130.19,-2.9,-7.5
2.6,8.25,0.0,7.0,8.0,0.0,0.0,2.75,0.0,0.25,0.0,0.0,0.0,0.0,-0.11,0.45,0.89,420.47,29.5,68.6,1.0,0.5,1.0,0.75,1.25,2.0,0.25,1.25,0.0,1.25,2.0,0.75,1.75,1.2,2.02,0.02,172.56,-0.7,-12.6
2.62,9.0,1.5,7.5,8.75,0.0,0.0,2.75,0.0,0.5,0.0,0.0,0.5,0.5,-0.05,0.45,0.7,432.86,27.4,63.4,1.25,0.5,0.75,0.75,1.0,2.0,0.25,1.0,0.0,1.5,2.0,0.75,1.75,0.33,-0.05,1.33,184.67,-0.7,-14.2
2.64,9.25,2.5,7.5,8.75,0.0,0.0,3.25,0.0,0.5,0.0,0.0,0.25,0.5,-0.11,0.52,0.64,457.87,27.1,66.0,1.0,0.5,1.75,0.5,0.5,2.0,0.5,1.0,0.0,1.25,2.0,0.75,1.75,-0.3,-1.05,1.83,191.62,-3.4,-13.2
2.66,9.75,0.0,8.0,8.75,0.0,0.0,3.25,0.0,0.5,1.5,0.0,0.25,0.75,-0.17,0.52,0.95,485.15,26.2,55.4,1.25,0.5,1.5,0.75,0.25,2.0,0.25,0.5,0.0,1.25,2.0,0.75,1.5,-0.36,-1.23,2.45,190.21,-4.7,-10.0
2.68,10.0,2.25,7.75,8.75,0.0,0.0,3.25,0.0,0.25,1.5,0.0,0.5,0.5,0.02,0.58,0.83,514.6,25.5,59.4,1.25,0.75,1.0,0.75,1.5,2.0,0.5,0.75,0.25,1.25,2.0,0.75,1.5,0.27,-1.17,1.89,197.48,-2.8,-4.8
2.7,10.5,3.25,7.25,7.75,0.0,0.0,3.25,0.0,0.0,1.5,0.5,0.0,0.5,0.2,0.58,0.95,533.0,25.4,62.5,1.0,0.5,1.25,0.5,1.25,2.0,1.0,1.0,0.0,1.5,2.0,0.75,1.5,0.14,1.27,-3.48,208.16,-2.2,-10.4
2.72,10.5,3.75,6.75,7.5,0.0,0.0,2.75,0.0,0.0,1.25,0.0,1.0,0.75,0.14,0.64,0.77,538.58,24.8,60.0,1.0,0.75,1.0,0.5,1.25,2.0,1.0,1.0,0.0,1.25,1.75,0.75,0.5,0.2,3.52,-4.42,210.26,-3.2,1.3
2.74,10.5,3.75,0.0,7.0,0.0,0.0,2.75,0.0,0.0,0.5,0.0,1.0,0.25,-0.17,0.64,0.64,475.0,23.1,67.6,1.25,0.75,1.5,0.5,1.75,2.0,0.5,0.75,0.0,1.25,2.0,0.75,1.75,0.39,0.64,-0.23,212.74,-3.2,-3.7
2.76,10.5,0.0,6.25,6.25,0.0,0.0,2.25,0.0,0.0,0.75,0.0,1.0,0.0,-0.36,0.7,0.45,426.61,28.6,62.2,1.25,0.5,1.0,0.75,1.5,2.0,0.5,1.0,0.25,1.25,1.75,0.75,1.75,0.02,-1.48,1.2,210.74,-1.8,-8.0
2.78,10.5,0.0,6.0,6.0,0.0,0.0,2.0,0.0,0.0,0.75,0.25,0.25,0.0,-0.42,0.7,0.52,374.93,29.0,66.3,1.25,0.5,1.75,0.5,1.5,2.0,1.0,0.5,0.5,1.5,2.0,0.75,1.5,-0.17,0.64,-1.17,211.38,-4.8,-4.9
2.8,10.5,0.0,5.25,4.25,0.0,0.0,1.75,0.0,0.0,0.75,0.25,0.5,0.0,-0.3,0.77,0.77,341.18,29.5,65.5,1.0,0.5,2.0,0.75,1.0,2.0,0.75,0.5,0.25,1.25,2.0,0.75,1.5,-0.55,1.7,-1.48,202.9,-5.5,-5.1
2.82,0.0,0.0,4.5,4.25,0.0,0.0,1.5,0.0,0.0,1.5,0.5,1.0,0.0,-0.05,0.7,0.52,277.06,20.9,23.5,1.0,0.5,0.75,0.5,1.0,2.0,0.5,0.5,0.25,1.25,2.0,0.75,1.5,-0.48,0.89,-0.55,195.39,-1.6,-13.7
2.84,10.5,0.0,4.25,3.75,0.0,0.0,0.75,0.0,0.25,1.5,0.0,0.0,0.0,-0.05,0.83,0.64,261.78,28.1,66.3,1.25,0.0,1.5,0.0,1.5,0.5,0.25,0.0,0.0,0.0,1.5,0.5,1.5,-0.23,0.14,-1.11,170.96,-10.1,-1.5
2.86,10.0,0.0,3.75,4.0,0.0,0.0,0.5,0.0,0.0,1.5,0.5,0.0,0.0,-0.17,0.89,0.64,244.58,27.3,63.6,1.0,0.5,1.0,0.5,1.0,2.0,0.25,0.75,0.25,1.25,1.0,0.75,1.5,1.45,1.52,-0.11,161.98,-0.9,-7.9
2.88,0.0,0.0,2.75,3.75,0.0,0.0,0.5,0.0,0.25,1.5,0.5,0.0,0.25,-0.3,0.83,0.64,201.14,17.3,23.0,1.0,0.5,0.75,0.5,1.25,2.0,0.25,0.75,0.25,1.25,2.0,0.75,1.5,1.2,3.2,0.58,160.88,-0.8,-13.0
2.9,9.5,0.0,2.5,2.75,0.0,0.0,0.0,0.0,0.25,1.0,0.75,0.0,0.25,-0.48,0.89,0.64,195.02,27.1,61.8,1.25,0.75,1.5,0.5,1.5,2.0,0.5,0.25,0.0,1.25,2.0,0.75,0.75,-0.36,1.14,-2.42,169.85,-5.5,4.8
2.92,10.0,0.0,2.5,2.25,0.0,0.0,0.0,0.0,0.25,1.0,0.0,0.0,0.25,-0.73,1.27,0.39,190.47,28.5,69.3,1.0,0.5,1.25,0.75,0.5,2.0,0.75,0.5,0.25,1.5,2.0,0.75,1.0,-0.23,-2.36,-0.42,173.07,-4.3,-9.0
2.94,9.5,0.0,2.5,2.25,0.0,0.0,0.0,0.0,0.0,0.75,0.0,0.0,0.25,-0.8,0.89,0.33,196.62,29.3,72.7,1.0,0.5,1.0,0.5,1.5,2.0,1.0,0.5,0.5,1.25,2.0,0.75,1.25,-1.05,-1.98,0.64,181.04,-3.1,-7.2
2.96,9.25,0.0,2.25,2.0,0.0,0.0,0.0,0.0,0.0,0.75,0.5,0.0,0.25,-0.36,0.83,0.33,199.17,28.6,67.8,0.75,0.5,1.5,0.5,0.5,2.0,0.75,0.75,0.75,1.25,2.0,0.75,1.25,-2.3,0.02,-0.3,181.1,-4.0,-13.4
2.98,9.25,0.0,1.75,2.0,0.0,0.0,0.0,0.0,0.0,1.0,0.5,0.0,0.25,-0.05,0.7,0.39,209.09,27.5,65.5,1.0,0.5,1.75,0.75,2.25,1.5,1.0,0.5,0.5,1.0,2.0,0.75,1.25,-0.8,1.64,-1.42,189.38,-6.0,1.0
3.0,8.75,0.0,1.0,2.5,0.0,0.0,0.0,0.0,0.0,0.0,0.5,0.5,0.0,-0.11,0.83,0.27,200.08,29.6,72.1,1.0,0.25,0.5,0.5,0.5,1.75,0.5,0.5,0.25,1.0,2.0,0.75,1.5,0.58,-0.36,-1.17,179.61,-1.6,-21.5
3.02,8.75,0.0,1.5,2.0,0.0,0.0,0.0,0.0,0.0,0.0,0.5,0.0,0.25,-0.11,0.89,0.2,194.98,30.5,75.7,1.0,0.25,1.5,0.5,1.0,1.75,0.25,0.75,0.25,1.0,2.0,0.75,1.75,0.33,0.02,-0.42,180.25,-3.4,-13.9
3.04,8.25,0.0,1.0,2.0,0.0,0.0,0.0,0.0,0.0,0.75,0.5,0.0,0.25,0.08,0.77,0.39,193.19,27.1,66.2,1.0,0.5,1.25,0.5,1.0,1.75,0.5,0.0,0.25,1.25,2.0,0.75,1.5,0.14,0.39,-0.17,175.66,-4.4,-10.4
3.06,8.25,0.0,0.0,2.0,0.0,0.0,0.0,0.0,0.0,1.0,0.5,0.25,0.0,0.2,0.7,0.45,188.71,25.7,63.8,1.0,0.25,1.0,0.5,1.25,1.5,0.25,1.0,0.25,1.0,2.25,0.75,1.75,0.2,0.89,-0.3,179.01,-2.1,-18.0
3.08,6.75,0.0,1.0,0.25,0.0,0.0,0.0,0.0,0.0,1.5,0.5,0.0,0.0,0.33,0.64,0.83,167.51,25.6,56.9,1.25,0.5,1.25,0.5,1.0,1.75,0.25,0.75,0.25,1.0,2.0,0.75,1.5,-0.05,1.33,-0.73,179.78,-3.8,-9.1
3.1,7.75,0.0,1.0,2.0,0.0,0.0,0.0,0.0,0.0,1.5,0.0,0.25,0.0,-0.05,0.89,0.64,170.76,25.3,62.0,1.25,0.25,1.25,0.5,1.25,1.75,0.5,0.25,0.25,1.0,2.0,0.75,1.5,-0.11,1.64,-0.92,178.6,-4.6,-8.4
3.12,7.75,0.0,1.0,2.0,0.0,0.0,0.0,0.0,0.0,1.75,0.0,0.0,0.0,-0.05,1.02,0.52,176.48,24.8,62.7,1.25,0.25,1.75,0.5,1.25,1.75,0.5,0.75,0.25,1.0,1.75,0.75,1.25,-0.05,1.64,-1.05,180.07,-5.4,-3.5
3.14,7.25,0.0,1.0,2.0,0.0,0.0,0.0,0.0,0.0,1.5,0.0,0.5,0.0,-0.05,0.95,0.45,175.48,24.6,57.0,1.25,0.25,1.0,0.5,1.5,1.5,0.25,0.5,0.25,1.0,2.0,0.5,1.25,-0.05,1.27,-0.8,176.29,-3.8,-5.9
3.16,6.75,1.25,1.0,1.25,0.0,0.0,0.0,0.0,0.0,1.5,0.0,0.0,0.0,-0.05,0.89,0.52,177.91,24.0,67.3,1.0,0.5,0.75,0.5,1.0,1.75,0.25,0.5,0.25,1.0,2.0,0.75,1.25,0.02,0.95,-0.61,172.03,-2.5,-11.6
3.18,6.5,1.25,1.0,2.0,0.0,0.0,0.0,0.0,0.0,1.5,0.0,0.25,0.0,0.02,0.95,0.39,183.45,23.1,62.5,1.0,0.5,1.0,0.5,1.0,1.75,0.25,1.0,0.25,1.0,1.25,0.75,1.25,0.02,0.58,-0.73,166.83,-1.9,-7.1
3.2,0.0,1.0,1.0,2.0,0.0,0.0,0.0,0.0,0.0,1.75,0.0,0.0,0.0,0.02,1.02,0.45,152.89,10.3,26.0,1.0,0.25,0.5,0.5,1.25,1.75,0.25,0.5,0.25,1.0,1.75,0.5,1.0,-0.11,0.52,-0.61,160.05,-1.2,-8.1
3.22,2.5,1.0,1.0,2.0,0.0,0.0,0.0,0.0,0.0,1.5,0.0,0.5,0.5,0.14,1.08,0.45,140.43,15.9,32.2,0.5,0.25,1.25,0.5,1.0,1.75,0.25,0.5,0.25,1.0,2.0,0.75,1.0,-0.23,0.7,-0.48,156.26,-2.9,-13.1
3.24,0.0,0.0,1.0,2.0,0.0,0.0,0.0,0.0,0.0,1.25,0.0,0.0,0.5,0.14,1.14,0.52,106.46,9.9,6.7,1.25,0.25,1.5,0.5,1.0,1.5,0.25,0.75,0.25,1.0,1.25,0.75,1.5,-0.23,0.64,-0.48,159.89,-4.5,-6.7
3.26,0.0,0.0,1.0,1.75,0.0,0.0,0.0,0.0,0.0,1.25,0.0,0.0,0.0,0.14,1.14,0.39,81.86,12.4,18.1,1.0,0.5,0.75,0.5,0.5,1.75,0.25,0.75,0.5,1.0,2.25,0.75,1.25,-0.17,0.64,-0.67,160.28,-2.7,-17.4
3.28,0.0,0.0,1.0,1.25,0.0,0.0,0.0,0.0,0.0,1.25,0.0,0.25,0.0,0.02,1.08,0.2,56.27,11.5,4.3,1.25,0.5,0.75,0.5,1.0,1.75,0.25,0.5,0.5,1.0,2.0,0.75,1.5,-0.23,0.64,-0.73,165.17,-3.0,-12.1
3.3,0.0,0.0,0.0,0.75,0.0,0.0,0.0,0.0,0.0,1.25,0.0,0.5,0.25,0.02,1.02,0.2,39.7,-1.8,-47.2,1.25,0.75,1.0,0.75,1.5,1.75,0.25,0.5,0.5,1.0,2.0,0.75,1.25,-0.3,0.7,-0.48,174.43,-4.2,-2.4
3.32,0.25,0.0,0.0,0.25,0.0,0.0,3.0,0.0,0.0,0.75,0.0,0.0,0.0,0.02,1.08,0.45,25.11,17.6,7.7,1.5,0.5,0.75,0.5,1.0,1.5,0.25,0.5,0.25,1.0,2.0,0.75,1.5,-0.23,0.7,-0.36,176.19,-3.9,-10.3
3.34,1.25,0.0,0.0,0.25,0.0,0.0,0.0,0.0,0.0,1.25,0.0,0.25,0.0,-0.3,1.08,0.39,16.44,9.5,2.6,0.75,0.5,0.75,0.75,1.25,1.75,0.25,0.5,0.25,1.0,1.75,0.75,1.25,-0.11,0.83,-0.3,174.71,-1.8,-9.2
3.36,1.0,0.0,0.0,1.0,0.0,0.0,0.0,0.0,1.25,1.5,0.0,1.25,0.0,-0.3,0.89,0.33,32.05,8.9,-24.3,1.0,0.25,1.25,0.5,0.5,1.25,0.25,0.5,0.25,1.0,2.0,0.5,1.25,0.08,0.95,-0.36,165.69,-5.3,-14.1
3.38,2.0,0.0,0.0,1.0,0.0,0.0,1.5,0.0,0.0,1.5,0.0,0.75,0.0,-0.17,1.08,0.27,49.7,15.2,11.5,1.0,0.5,0.75,0.0,0.5,1.25,0.25,0.5,0.5,1.0,2.0,0.75,1.25,0.08,1.14,-0.61,156.9,-3.5,-21.8
3.4,0.75,0.0,1.25,0.0,0.0,0.0,1.75,0.0,0.0,0.0,0.0,0.0,0.25,-0.23,1.08,0.33,53.93,31.6,45.9,1.25,0.5,1.0,0.5,0.5,1.5,0.25,0.5,0.75,1.0,2.0,0.75,1.25,-0.17,1.39,-0.92,156.06,-5.2,-13.1
3.42,0.0,0.0,0.0,0.25,0.0,0.0,0.0,0.0,0.0,1.25,0.0,0.0,0.0,-0.17,1.02,0.27,44.1,-10.0,-52.4,1.0,0.25,1.25,0.5,0.5,1.25,0.25,0.5,0.5,1.25,2.0,0.75,1.5,-0.3,1.39,-0.92,157.18,-4.7,-20.2
3.44,0.0,0.0,0.0,0.25,0.0,0.0,0.0,0.0,0.0,1.5,0.0,0.0,0.25,0.02,1.08,0.2,37.21,-11.1,-62.5,1.0,0.5,0.75,0.5,0.5,1.25,0.25,0.5,0.75,1.75,2.0,0.75,1.25,-0.42,1.08,-0.61,161.06,-3.0,-22.0
3.46,1.0,0.0,0.0,0.5,0.0,0.0,0.0,0.0,0.0,1.25,0.0,0.0,0.25,0.14,1.08,0.14,31.83,6.2,-0.3,1.0,0.25,1.5,0.5,0.5,1.5,0.25,0.5,0.75,1.0,2.0,0.75,1.25,-0.42,0.58,-0.23,162.66,-5.9,-14.5
3.48,1.0,0.0,0.0,0.25,0.0,0.0,0.0,0.0,0.0,0.75,0.0,0.0,0.5,0.2,1.02,0.14,34.28,7.4,-2.7,1.0,0.5,1.5,0.75,1.25,1.75,0.25,0.5,0.5,1.5,2.0,0.75,1.25,-0.36,0.2,-0.3,173.12,-4.2,-7.5
3.5,0.25,0.0,0.0,0.0,0.0,0.0,0.0,0.0,0.0,0.25,0.0,0.0,0.0,0.39,0.89,-0.11,25.64,8.7,8.1,1.0,0.25,0.75,0.5,0.5,1.5,0.25,0.5,0.25,1.5,2.0,0.5,1.25,-0.42,0.14,-0.67,168.0,-2.1,-19.6
3.52,1.0,0.0,0.0,0.25,0.0,0.0,0.0,0.0,0.0,0.75,0.0,0.0,0.0,0.39,0.95,-0.36,24.57,13.0,25.6,1.25,0.5,1.25,0.5,0.25,1.5,0.25,0.5,0.5,1.0,2.0,0.5,1.25,-0.55,0.39,-0.86,165.92,-5.9,-10.4
3.54,1.25,0.0,0.0,0.0,0.0,0.0,0.0,0.0,0.0,0.0,0.0,0.0,0.0,0.02,0.2,-0.42,18.71,34.9,97.9,1.0,0.5,1.5,0.5,1.25,1.25,0.25,0.5,0.5,1.0,2.0,0.75,1.25,-0.61,0.52,-0.98,166.91,-5.8,-7.8
3.56,1.0,0.0,0.0,0.25,0.0,0.0,0.0,0.0,0.0,0.75,0.0,0.0,0.0,0.14,0.52,-0.55,19.91,13.0,25.6,1.0,0.5,0.75,0.5,1.25,1.5,0.25,0.5,0.25,1.25,2.0,0.5,1.25,-0.55,0.52,-0.8,168.53,-2.3,-10.1
3.58,0.75,0.0,0.0,0.25,0.0,0.0,0.0,0.0,0.0,0.75,0.0,0.0,0.0,0.27,0.83,-0.55,19.23,10.0,15.7,1.0,0.5,0.75,0.5,0.5,1.75,0.25,0.5,0.25,1.0,2.0,0.75,1.25,-0.36,0.52,-0.55,165.55,-2.8,-15.1
3.6,1.25,0.0,0.0,0.25,0.0,0.0,0.0,0.0,0.0,0.75,0.0,0.0,0.0,0.33,1.08,-0.55,23.8,15.4,33.3,1.0,0.5,1.0,0.5,0.5,1.5,0.25,0.5,0.5,1.0,2.0,0.75,1.25,-0.42,0.58,-0.55,163.98,-4.4,-14.9
3.62,0.5,0.0,0.0,0.25,0.0,0.0,0.0,0.0,0.0,0.75,0.0,0.0,0.0,0.33,1.14,-0.55,24.03,6.1,2.8,1.25,0.5,1.0,0.5,1.25,1.75,0.25,0.5,0.25,1.5,2.0,0.25,1.25,-0.48,0.7,-0.61,167.06,-2.7,-5.0
3.64,0.5,0.0,0.0,0.25,0.0,0.0,0.0,0.0,0.0,0.75,0.0,0.0,0.0,0.33,1.14,-0.55,25.93,6.1,2.8,1.0,0.25,0.75,0.5,1.0,1.75,0.25,0.5,0.25,1.0,2.0,0.75,1.25,-0.48,0.77,-0.67,164.06,-2.2,-14.1
3.66,0.5,0.0,0.0,0.25,0.0,0.0,0.0,0.0,0.0,0.75,0.0,0.0,0.0,0.27,1.02,-0.48,24.58,6.1,2.8,1.0,0.5,1.0,0.5,0.5,1.75,0.25,0.5,0.75,1.25,2.0,0.75,1.25,-0.42,0.7,-0.61,166.74,-3.6,-15.7
3.68,0.5,0.0,0.0,0.25,0.0,0.0,0.0,0.0,0.0,0.75,0.25,0.0,0.0,0.2,0.83,-0.42,24.02,6.7,-8.1,1.25,0.25,0.75,0.5,0.5,1.75,0.25,0.5,0.5,1.0,2.0,0.75,1.5,-0.42,0.83,-0.48,164.69,-3.1,-18.0
3.7,1.0,0.0,0.5,0.25,0.0,0.0,0.0,0.0,0.0,0.75,0.0,0.0,0.25,0.14,0.83,-0.36,30.63,15.2,19.5,1.0,0.5,0.75,0.5,0.5,1.75,0.25,0.5,0.75,1.0,2.0,0.75,1.25,-0.36,0.89,-0.48,163.57,-3.2,-16.1
3.72,0.25,0.0,0.0,0.25,0.0,0.0,0.0,0.0,0.0,0.75,0.0,0.0,0.25,0.14,0.83,-0.42,31.01,-1.7,-31.2,1.25,0.25,1.0,0.5,1.25,1.75,0.25,0.5,0.75,1.0,2.0,0.75,1.25,-0.42,0.89,-0.48,167.04,-3.9,-9.9
3.74,1.0,0.0,0.0,0.25,0.0,0.0,0.0,0.0,0.0,0.75,0.0,0.0,0.25,0.14,0.89,-0.48,34.98,9.9,9.8,0.75,0.5,1.0,0.5,1.25,1.5,0.25,0.5,0.75,1.0,2.0,0.5,1.25,-0.42,0.83,-0.55,170.56,-3.3,-10.5
3.76,0.75,0.0,0.0,0.25,0.0,0.0,0.0,0.0,0.0,0.75,0.0,0.25,0.25,0.14,0.89,-0.48,33.72,7.1,-12.8,1.0,0.5,0.5,0.5,1.0,1.5,0.25,0.5,0.75,1.0,2.0,0.5,1.25,-0.42,0.83,-0.55,168.43,-2.5,-13.2
3.78,0.25,0.0,0.0,0.25,0.0,0.0,0.0,0.0,0.0,0.75,0.0,0.0,0.25,0.2,0.95,-0.42,31.52,-1.7,-31.2,1.0,0.5,1.0,0.5,0.5,1.75,0.25,0.5,0.75,1.0,2.0,0.5,1.25,-0.42,0.77,-0.48,165.87,-3.9,-12.3
3.8,0.25,0.0,0.0,0.25,0.0,0.0,0.0,0.0,0.0,0.75,0.0,0.0,0.25,0.2,0.89,-0.42,27.38,-1.7,-31.2,1.0,0.5,0.75,0.5,0.5,1.75,0.25,0.5,0.5,1.0,2.0,0.75,1.25,-0.36,0.77,-0.55,163.42,-3.0,-15.6
3.82,0.25,0.0,0.0,0.25,0.0,0.0,0.0,0.0,0.0,0.75,0.0,0.0,0.0,0.27,0.89,-0.42,23.75,0.7,-14.9,1.0,0.5,1.0,0.5,0.25,1.25,0.25,0.5,0.75,1.0,2.0,0.75,1.25,-0.36,0.77,-0.55,159.56,-5.4,-18.3
3.84,0.25,0.0,0.0,0.25,0.0,0.0,0.0,0.0,0.0,0.75,0.0,0.25,0.0,0.27,0.89,-0.42,22.05,2.0,-30.7,1.0,0.25,0.5,0.5,0.25,1.75,0.25,0.5,0.75,1.0,1.75,0.75,1.25,-0.3,0.77,-0.55,153.55,-2.1,-21.5
3.86,0.25,0.0,0.0,0.25,0.0,0.0,0.0,0.0,0.0,0.75,0.0,0.0,0.25,0.27,0.89,-0.42,21.61,-1.7,-31.2,1.25,0.5,0.5,0.5,0.0,1.5,0.25,0.5,0.75,1.0,1.75,0.5,1.25,-0.3,0.83,-0.55,148.09,-3.7,-16.9
3.88,0.5,0.0,0.75,0.25,0.0,0.0,0.0,0.0,0.0,0.75,0.0,0.25,0.0,0.27,0.89,-0.42,28.0,16.3,9.5,1.0,0.5,0.75,0.5,0.0,1.75,0.25,0.5,0.75,1.0,2.0,0.75,1.25,-0.3,0.89,-0.55,147.65,-3.6,-19.9
3.9,0.5,0.0,0.75,0.25,0.0,0.0,0.0,0.0,0.0,0.75,0.0,0.0,0.0,0.27,0.89,-0.42,32.28,17.1,22.7,1.0,0.25,1.75,0.5,1.25,1.5,0.25,0.5,0.75,1.0,2.0,0.75,1.25,-0.3,0.89,-0.48,158.01,-5.9,-8.4
3.92,0.25,0.0,0.75,0.25,0.0,0.0,0.0,0.0,0.0,0.75,0.0,0.0,0.0,0.27,0.89,-0.42,34.61,15.0,14.0,1.0,0.5,0.5,0.5,1.0,1.5,0.25,0.5,0.5,1.0,2.0,0.75,1.25,-0.3,0.89,-0.55,161.54,-2.4,-14.8
3.94,0.25,0.0,1.0,0.25,0.0,0.0,0.0,0.0,0.0,0.75,0.0,0.0,0.25,0.2,0.89,-0.42,37.33,14.5,6.2,1.0,0.5,0.75,0.5,0.25,1.5,0.25,0.25,0.75,1.0,2.0,0.75,1.25,-0.3,0.95,-0.55,160.76,-4.4,-18.6
3.96,0.5,0.0,1.0,0.25,0.0,0.0,0.0,0.0,0.0,0.75,0.0,0.0,0.0,0.2,0.83,-0.42,40.74,19.3,26.7,1.0,0.5,0.75,0.5,0.0,1.25,0.25,0.5,0.75,1.0,1.5,0.5,1.25,-0.3,0.89,-0.55,151.59,-4.4,-17.4
3.98,1.25,0.0,1.0,0.25,0.0,0.0,0.0,0.0,0.0,0.75,0.0,0.0,0.0,0.2,0.83,-0.42,46.75,22.7,42.2,1.0,0.5,0.5,0.5,0.25,1.75,0.25,0.5,0.75,1.0,1.75,0.75,1.25,-0.23,0.83,-0.55,149.07,-2.3,-18.5
4.0,1.25,0.0,1.0,0.25,0.0,0.0,0.0,0.0,0.0,0.75,0.0,0.0,0.0,0.2,0.83,-0.42,52.6,22.7,42.2,1.0,0.5,1.25,0.5,1.0,1.75,0.25,0.5,0.5,1.25,2.0,0.75,1.25,-0.17,0.83,-0.55,156.51,-3.8,-10.4
4.02,1.25,0.0,1.0,0.25,0.0,0.0,0.0,0.0,0.0,0.75,0.0,0.0,0.0,0.2,0.83,-0.42,57.76,22.7,42.2,1.25,0.5,1.5,0.5,1.5,1.5,0.25,0.75,0.75,1.0,2.0,0.75,1.75,-0.11,0.77,-0.61,174.08,-4.6,-8.9
4.04,0.25,0.0,1.0,0.25,0.0,0.0,0.0,0.0,0.0,0.75,0.0,0.0,0.0,0.27,0.83,-0.36,53.58,17.7,19.3,1.0,0.5,1.0,0.5,0.0,1.75,0.25,0.5,0.75,1.0,1.75,0.75,1.25,-0.11,0.83,-0.55,174.95,-4.2,-16.7
4.06,0.25,0.0,1.0,0.25,0.0,0.0,0.0,0.0,0.0,0.75,0.0,0.0,0.0,0.27,0.77,-0.3,48.68,17.7,19.3,1.25,0.5,0.75,0.5,0.5,1.25,0.25,0.75,0.75,1.0,2.0,0.5,1.75,-0.11,0.83,-0.55,175.33,-3.6,-18.5
4.08,0.25,0.0,1.0,0.25,0.0,0.0,0.0,0.0,0.0,0.75,0.0,0.0,0.0,0.33,0.83,-0.3,42.91,17.7,19.3,1.0,0.25,0.5,0.5,1.0,1.75,0.25,0.5,0.75,1.0,1.75,0.75,1.25,-0.11,0.83,-0.61,168.71,-1.7,-15.6
4.1,0.75,0.0,1.0,0.25,0.0,0.0,0.0,0.0,0.0,1.0,0.0,0.25,0.25,0.39,0.95,-0.3,46.02,14.6,4.3,1.25,0.25,0.75,0.5,0.5,1.5,0.25,0.5,0.75,1.0,1.75,0.75,1.25,-0.11,0.89,-0.61,163.03,-4.1,-16.1
4.12,0.5,0.0,0.0,0.5,0.0,0.0,0.0,0.0,0.0,0.75,0.0,0.5,0.0,0.39,0.95,-0.3,42.45,8.0,-15.7,1.25,0.25,1.0,0.5,1.0,1.5,0.25,0.5,0.5,1.0,1.75,0.75,1.25,-0.17,0.83,-0.61,160.92,-4.3,-10.4
4.14,1.25,0.0,1.0,0.25,0.0,0.0,0.0,0.0,0.0,0.75,0.0,0.0,0.0,0.33,0.95,-0.23,47.77,22.7,42.2,1.0,0.25,1.0,0.5,0.0,1.25,0.25,1.25,0.75,1.0,2.0,0.75,1.5,-0.17,0.83,-0.61,160.46,-3.5,-26.3
4.16,1.25,0.0,0.0,0.25,0.0,0.0,0.0,0.0,0.0,0.75,0.0,0.5,0.0,0.33,0.95,-0.17,46.08,14.1,6.7,1.0,0.5,0.75,0.5,1.25,1.5,0.25,0.5,0.75,1.0,2.0,0.75,1.5,-0.17,0.77,-0.55,166.92,-2.9,-14.1
4.18,0.5,0.0,0.0,0.25,0.0,0.0,0.0,0.0,0.0,0.75,0.0,0.75,0.0,0.27,0.95,-0.11,42.57,7.0,-34.9,1.0,0.25,0.5,0.5,0.0,1.5,0.25,0.25,0.5,1.0,2.0,0.5,1.25,-0.17,0.83,-0.48,156.55,-3.2,-23.4
4.2,0.5,0.0,0.75,0.25,0.0,0.0,0.0,0.0,0.0,0.75,0.0,0.5,0.0,0.27,1.02,-0.17,40.58,15.6,-1.2,1.5,0.75,1.0,0.5,0.5,1.75,0.25,0.5,0.25,1.0,2.0,0.5,1.25,-0.17,0.83,-0.48,159.19,-5.0,-4.2
4.22,0.25,0.0,1.0,0.25,0.0,0.0,0.0,0.0,0.0,0.75,0.0,0.75,0.0,0.27,1.08,-0.17,41.67,15.5,-12.5,1.25,0.25,0.75,0.5,0.25,1.5,0.0,0.25,0.25,1.0,1.75,0.5,1.5,-0.17,0.89,-0.48,148.56,-3.5,-17.1
4.24,1.25,0.0,1.0,0.25,0.0,0.0,0.0,0.0,0.0,0.75,0.0,0.75,0.0,0.2,1.14,-0.17,49.88,20.1,13.5,1.0,0.5,1.0,0.5,1.0,1.5,0.25,0.5,0.5,1.0,1.5,0.5,1.25,-0.23,0.89,-0.48,150.57,-3.6,-6.4
4.26,1.25,0.0,1.0,0.25,0.0,0.0,0.0,0.0,0.0,0.75,0.0,0.5,0.0,0.2,1.08,-0.11,56.38,20.8,21.8,0.75,0.5,1.0,0.5,0.5,1.25,0.25,0.5,0.5,1.0,2.0,0.75,1.75,-0.17,0.95,-0.55,150.87,-3.5,-22.7
4.28,1.25,0.0,0.25,0.5,0.0,0.0,0.0,0.0,0.0,0.75,0.0,0.75,0.0,0.2,1.08,-0.11,60.44,15.8,6.3,1.0,0.5,0.5,0.5,0.5,1.75,0.25,0.5,0.75,1.0,2.0,0.75,1.5,-0.11,0.95,-0.55,157.93,-2.0,-20.0
4.3,1.25,0.0,0.0,0.25,0.0,0.0,0.0,0.0,0.0,0.75,0.0,0.75,0.0,0.27,1.08,-0.11,56.92,13.7,-3.1,1.0,0.5,0.5,0.5,1.0,1.5,0.25,0.25,0.75,1.0,2.0,0.75,1.25,-0.05,0.89,-0.55,158.61,-3.1,-14.8
4.32,1.25,0.0,1.0,0.25,0.0,0.0,0.0,0.0,0.0,0.75,0.0,0.5,0.0,0.27,0.95,-0.11,57.76,20.8,21.8,1.0,0.5,0.75,0.5,1.0,1.5,0.25,0.25,0.75,1.0,1.5,0.75,1.25,-0.05,0.83,-0.55,159.82,-3.5,-10.3
4.34,1.25,0.0,0.25,0.25,0.0,0.0,0.0,0.0,0.0,0.75,0.0,0.75,0.0,0.27,0.95,-0.05,54.92,15.7,2.0,1.0,0.5,1.0,0.5,1.0,0.75,0.25,0.5,0.75,1.0,1.75,0.75,1.75,-0.05,0.83,-0.55,161.56,-4.9,-17.9
4.36,1.25,0.0,0.75,0.25,0.0,0.0,0.0,0.0,0.0,0.75,0.0,0.75,0.0,0.33,0.89,-0.05,58.08,18.8,10.2,0.75,0.5,0.5,0.5,0.5,1.5,0.25,0.5,0.75,1.0,1.75,0.75,1.25,-0.11,0.83,-0.55,157.18,-2.0,-20.4
4.38,1.25,0.0,0.0,0.25,0.0,0.0,0.0,0.0,0.0,0.75,0.0,0.75,0.0,0.33,0.89,-0.05,54.25,13.7,-3.1,1.0,0.5,0.5,0.5,0.5,1.25,0.25,0.5,0.75,1.0,2.0,0.5,1.5,-0.11,0.83,-0.55,155.34,-3.0,-20.3
4.4,1.25,0.0,1.0,0.25,0.0,0.0,0.0,0.0,0.0,0.75,0.0,0.75,0.25,0.33,0.89,-0.05,59.71,18.0,6.0,1.0,0.5,0.5,0.5,0.5,1.5,0.25,0.5,0.75,1.0,1.75,0.75,1.25,-0.11,0.83,-0.55,152.8,-2.8,-17.7
4.42,1.25,0.0,0.25,0.25,0.0,0.0,0.0,0.0,0.0,0.75,0.0,0.75,0.25,0.27,0.89,0.02,57.99,13.5,-6.3,1.0,0.25,0.75,0.5,0.25,1.25,0.25,1.0,0.75,1.0,2.0,0.75,1.75,-0.11,0.89,-0.55,155.88,-2.6,-27.9
4.44,1.25,0.0,0.25,0.25,0.0,0.0,0.0,0.0,0.0,1.0,0.0,0.75,0.25,0.27,0.89,-0.05,58.65,11.5,-11.0,0.75,0.25,0.75,0.5,1.0,1.25,0.25,0.5,0.75,1.0,1.25,0.75,1.75,-0.11,0.89,-0.55,154.11,-1.8,-20.3
4.46,1.25,0.0,1.0,0.25,0.0,0.0,0.0,0.0,0.0,0.75,0.0,0.75,0.5,0.33,0.89,0.02,61.88,16.2,-0.6,1.0,0.25,0.5,0.5,1.0,1.5,0.25,0.25,0.75,1.0,2.0,0.75,1.0,-0.11,0.89,-0.55,155.35,-3.2,-15.3
4.48,1.0,0.0,1.5,0.25,0.0,0.0,0.0,0.0,0.0,0.75,0.0,1.0,0.25,0.33,0.89,0.08,67.51,18.9,1.3,1.25,0.25,0.75,0.5,0.5,1.25,0.25,0.5,0.75,1.0,2.25,0.75,1.5,-0.05,0.89,-0.48,156.06,-4.5,-21.9
4.5,0.5,0.0,1.0,0.25,0.0,0.0,0.0,0.0,0.0,1.0,0.0,1.0,0.25,0.33,0.89,0.08,68.15,12.4,-22.2,1.0,0.5,0.75,0.5,0.25,1.25,0.25,0.5,0.75,1.0,1.5,0.75,1.25,-0.05,0.89,-0.55,152.68,-4.3,-17.6
4.52,1.0,0.0,1.0,0.25,0.0,0.0,0.0,0.0,0.0,0.75,0.0,1.0,0.5,0.39,0.89,0.14,70.37,14.8,-11.8,1.0,0.5,0.75,0.5,0.25,1.5,0.25,1.0,0.5,1.0,1.75,0.5,1.75,-0.05,0.89,-0.55,153.85,-1.7,-20.5
4.54,0.25,0.0,1.0,0.25,0.0,0.0,0.0,0.0,0.0,0.75,0.0,1.0,0.0,0.45,0.95,0.14,64.24,15.0,-19.9,1.0,0.5,1.0,0.5,0.25,1.25,0.0,0.5,0.75,1.0,1.5,0.75,1.5,-0.05,0.89,-0.55,152.14,-4.3,-18.5
4.56,0.25,0.0,1.0,0.25,0.0,0.0,0.0,0.0,0.0,0.75,0.0,0.75,0.5,0.39,0.95,0.2,59.31,11.2,-26.6,1.0,0.5,0.75,0.5,1.0,1.5,0.25,0.5,0.75,1.0,1.5,0.75,1.75,-0.05,0.83,-0.55,157.9,-2.3,-15.3
4.58,0.75,0.0,0.0,0.25,0.0,0.0,0.0,0.0,0.0,1.0,0.0,0.75,0.5,0.45,0.95,0.14,54.26,3.9,-40.4,1.25,0.5,0.5,0.5,0.5,1.75,0.25,0.5,0.75,1.0,2.0,0.75,1.5,-0.05,0.83,-0.55,161.11,-2.7,-17.6
4.6,0.75,0.0,1.0,0.25,0.0,0.0,0.0,0.0,0.0,1.0,0.0,1.0,0.25,0.39,0.95,0.14,56.79,13.6,-15.6,1.25,0.75,0.5,0.5,0.5,1.25,0.25,0.5,0.75,1.0,2.0,0.75,1.25,-0.05,0.83,-0.55,163.85,-4.4,-14.9
4.62,1.0,0.0,1.0,0.25,0.0,0.0,0.0,0.0,0.0,0.75,0.0,0.75,0.25,0.33,0.89,0.14,58.79,17.0,0.6,1.0,0.25,0.75,0.5,0.25,1.75,0.25,0.5,0.5,1.0,1.75,0.75,1.25,-0.11,0.83,-0.55,159.06,-2.8,-19.0
4.64,1.25,0.0,1.0,0.25,0.0,0.0,0.0,0.0,0.0,0.75,0.0,1.0,0.25,0.33,0.95,0.14,63.5,17.5,-0.4,1.0,0.25,0.5,0.5,1.25,1.25,0.25,0.5,0.75,1.0,1.5,0.75,1.5,-0.11,0.83,-0.55,157.66,-2.0,-16.8
4.66,1.25,0.0,1.0,0.5,0.0,0.0,0.0,0.0,0.0,0.75,0.0,1.0,0.0,0.33,0.95,0.14,67.71,19.3,9.2,1.0,0.25,0.75,0.5,0.25,1.5,0.25,0.5,0.75,1.0,1.75,0.75,1.25,-0.11,0.77,-0.55,152.89,-3.6,-20.7
4.68,1.25,0.0,1.0,0.25,0.0,0.0,0.0,0.0,0.0,0.75,0.0,0.75,0.25,0.33,0.95,0.14,68.71,18.0,6.0,0.75,0.5,0.5,0.5,1.5,1.25,0.25,0.5,0.75,1.0,1.75,0.75,1.25,-0.17,0.83,-0.48,155.76,-2.0,-13.9
4.7,1.25,0.0,1.0,0.25,0.0,0.0,0.0,0.0,0.0,0.75,0.0,0.5,0.25,0.33,0.89,0.2,67.2,18.6,13.2,1.0,0.5,0.75,0.5,0.5,1.25,0.25,0.5,0.75,1.0,1.5,0.5,1.25,-0.11,0.89,-0.55,152.84,-3.9,-13.3
4.72,0.75,0.0,1.0,0.25,0.0,0.0,0.0,0.0,0.0,1.0,0.0,0.25,0.5,0.39,0.95,0.14,64.55,12.7,-3.4,1.0,0.5,0.5,0.5,1.25,1.75,0.25,0.25,0.5,1.0,2.0,0.5,1.25,-0.05,0.95,-0.61,156.48,-2.0,-9.4
4.74,1.0,0.0,1.0,0.25,0.0,0.0,0.0,0.0,0.0,0.75,0.0,0.5,0.0,0.39,0.89,0.2,61.74,19.9,16.7,1.0,0.5,0.5,0.5,0.25,1.25,0.25,0.5,0.75,1.0,2.0,0.75,1.5,-0.05,0.89,-0.55,154.29,-3.3,-24.4
4.76,1.5,0.0,1.0,0.25,0.0,0.0,0.0,0.0,0.0,0.75,0.0,0.75,0.5,0.39,0.83,0.14,65.02,17.1,4.2,1.5,0.75,0.5,0.5,1.0,1.25,0.25,0.5,0.75,1.0,2.0,0.5,1.25,-0.05,0.83,-0.55,159.34,-4.5,-7.2
4.78,1.25,0.0,1.0,0.25,0.0,0.0,0.0,0.0,0.0,0.75,0.0,0.5,0.5,0.39,0.83,0.14,67.23,16.6,5.7,1.0,0.5,1.0,0.5,0.25,1.75,0.0,0.5,0.5,1.0,1.75,0.5,1.75,-0.05,0.83,-0.48,158.93,-2.6,-17.1
4.8,1.0,0.0,1.0,0.25,0.0,0.0,0.0,0.0,0.0,0.75,0.0,0.5,0.5,0.33,0.77,0.14,67.32,15.5,0.3,0.75,0.5,0.5,0.5,1.0,1.25,0.25,0.5,0.5,1.0,2.0,0.75,1.5,-0.05,0.89,-0.55,159.22,-1.9,-20.5
4.82,0.5,0.0,1.0,0.25,0.0,0.0,0.0,0.0,0.0,0.75,0.0,0.75,0.25,0.39,0.83,0.2,62.69,14.6,-12.3,1.0,0.5,0.75,0.5,1.0,1.25,0.25,0.5,0.25,1.0,2.0,0.75,1.25,-0.11,0.89,-0.55,158.65,-3.6,-13.6
4.84,1.0,0.0,1.0,0.25,0.0,0.0,0.0,0.0,0.0,0.75,0.0,0.75,0.5,0.45,0.89,0.2,62.02,15.2,-6.0,1.0,0.25,1.0,0.5,0.25,1.25,0.25,0.5,0.5,1.0,1.5,0.75,1.5,-0.11,0.89,-0.55,154.64,-4.3,-20.4
4.86,1.0,0.0,1.0,0.25,0.0,0.0,0.0,0.0,0.0,0.75,0.0,0.25,0.5,0.45,0.89,0.27,59.82,16.0,7.7,0.75,0.25,0.5,0.5,0.0,1.25,0.25,0.5,0.75,1.0,2.25,0.75,1.5,-0.11,0.83,-0.48,150.5,-2.7,-34.0
4.88,0.25,0.0,1.0,0.25,0.0,0.0,0.0,0.0,0.0,0.75,0.0,0.5,0.25,0.45,0.89,0.27,55.16,13.6,-12.7,1.0,0.25,0.75,0.5,0.25,1.25,0.25,0.5,0.75,1.0,2.0,0.75,1.25,-0.11,0.83,-0.55,147.1,-4.4,-23.2
4.9,0.25,0.0,1.0,0.25,0.0,0.0,0.0,0.0,0.0,0.75,0.0,0.5,0.25,0.39,0.89,0.2,50.75,13.6,-12.7,1.0,0.5,1.0,0.5,0.0,1.25,0.25,0.5,0.5,1.0,2.0,0.75,2.0,-0.17,0.83,-0.55,149.41,-4.1,-26.2
4.92,1.0,0.0,1.0,0.25,0.0,0.0,0.0,0.0,0.0,0.75,0.0,0.5,0.25,0.39,0.95,0.2,51.6,17.6,7.9,1.0,0.5,0.5,0.5,0.25,1.25,0.25,0.25,0.75,1.0,1.5,0.75,1.25,-0.17,0.89,-0.55,145.09,-3.9,-19.2
4.94,1.0,0.0,1.0,0.5,0.0,0.0,0.0,0.0,0.0,0.75,0.0,0.5,0.5,0.39,0.95,0.2,56.11,15.6,3.9,0.5,0.25,0.5,0.5,0.5,1.5,0.25,0.5,0.5,1.0,2.0,0.75,1.25,-0.17,0.89,-0.55,143.35,-0.9,-27.2
4.96,0.5,0.0,1.0,0.25,0.0,0.0,0.0,0.0,0.0,0.75,0.0,0.5,0.5,0.33,0.89,0.2,56.94,13.0,-12.5,1.0,0.25,0.5,0.5,1.0,1.25,0.25,0.5,0.5,1.0,2.0,0.5,1.5,-0.17,0.89,-0.55,143.93,-2.2,-18.7
4.98,0.25,0.0,1.0,0.25,0.0,0.0,0.0,0.0,0.0,0.75,0.0,0.75,0.5,0.39,0.89,0.2,56.45,11.2,-26.6,1.0,0.5,1.0,0.5,0.5,1.25,0.0,0.5,0.75,1.0,2.0,0.75,1.75,-0.17,0.83,-0.55,150.47,-4.0,-21.1
5.0,0.0,0.0,1.0,0.25,0.0,0.0,0.0,0.0,0.0,0.75,0.0,0.75,0.25,0.39,0.89,0.2,51.4,11.5,-29.1,1.0,0.25,0.5,0.5,0.25,1.25,0.25,0.25,0.75,1.0,2.0,0.75,1.5,-0.11,0.83,-0.55,149.17,-3.5,-27.2
5.02,0.25,0.0,1.0,0.25,0.0,0.0,0.0,0.0,0.0,0.75,0.0,1.0,0.25,0.39,0.83,0.2,50.65,12.9,-26.4,1.25,0.5,0.5,0.5,0.5,1.25,0.25,0.5,0.75,1.0,2.0,0.75,1.25,-0.05,0.89,-0.55,153.02,-4.2,-17.7
5.04,0.75,0.0,1.0,0.25,0.0,0.0,0.0,0.0,0.0,0.75,0.0,0.75,0.25,0.39,0.83,0.2,52.15,15.9,-5.4,1.0,0.75,0.5,0.5,0.5,1.0,0.25,0.5,0.75,1.0,2.0,0.75,1.25,-0.05,0.83,-0.55,152.81,-4.3,-18.5
5.06,0.75,0.0,1.0,0.25,0.0,0.0,0.0,0.0,0.0,0.75,0.0,1.0,0.25,0.39,0.83,0.2,56.43,15.5,-11.9,1.0,0.75,0.5,0.75,0.25,1.5,0.25,0.5,0.75,1.25,2.0,0.75,1.5,-0.11,0.83,-0.55,157.75,-2.9,-19.7
5.08,0.25,0.0,1.0,0.25,0.0,0.0,0.0,0.0,0.0,0.75,0.0,0.75,0.25,0.39,0.89,0.2,55.38,13.2,-20.1,1.0,0.5,0.5,0.5,1.0,1.25,0.25,0.5,0.75,1.0,2.0,0.75,1.5,-0.17,0.83,-0.55,161.31,-2.8,-18.5
5.1,0.25,0.0,1.0,0.25,0.0,0.0,0.0,0.0,0.0,0.75,0.0,1.0,0.25,0.39,0.89,0.2,55.46,12.9,-26.4,1.25,0.5,0.5,0.5,0.25,1.0,0.25,0.5,0.5,1.0,1.75,0.75,1.25,-0.17,0.89,-0.55,157.57,-4.7,-19.1
5.12,0.25,0.0,1.0,0.25,0.0,0.0,0.0,0.0,0.0,0.75,0.0,1.0,0.25,0.33,0.89,0.2,54.19,12.9,-26.4,1.0,0.5,0.5,0.5,0.25,1.75,0.25,0.5,0.75,1.0,2.0,0.5,1.25,-0.17,0.89,-0.55,155.04,-2.4,-17.7
5.14,1.0,0.0,1.0,0.25,0.0,0.0,0.0,0.0,0.0,0.75,0.0,1.0,0.25,0.39,0.89,0.2,57.48,16.5,-5.8,1.0,0.5,0.5,0.5,1.0,1.25,0.25,0.5,0.75,1.0,2.0,0.75,1.25,-0.11,0.89,-0.55,155.24,-3.2,-16.4
