time,left pressure 0[N/cm²],left pressure 1[N/cm²],left pressure 2[N/cm²],left pressure 3[N/cm²],left pressure 4[N/cm²],left pressure 5[N/cm²],left pressure 6[N/cm²],left pressure 7[N/cm²],left pressure 8[N/cm²],left pressure 9[N/cm²],left pressure 10[N/cm²],left pressure 11[N/cm²],left pressure 12[N/cm²],left acceleration X[g],left acceleration Y[g],left acceleration Z[g],left total force[N],left center of pressure X[mm],left center of pressure Y[mm],right pressure 0[N/cm²],right pressure 1[N/cm²],right pressure 2[N/cm²],right pressure 3[N/cm²],right pressure 4[N/cm²],right pressure 5[N/cm²],right pressure 6[N/cm²],right pressure 7[N/cm²],right pressure 8[N/cm²],right pressure 9[N/cm²],right pressure 10[N/cm²],right pressure 11[N/cm²],right pressure 12[N/cm²],right acceleration X[g],right acceleration Y[g],right acceleration Z[g],right total force[N],right center of pressure X[mm],right center of pressure Y[mm]
0.02,0.0,0.0,0.0,0.0,0.0,0.0,0.0,1.25,0.0,4.25,2.25,5.0,7.25,-0.3,0.02,1.08,345.02,-6.0,-94.4,2.0,1.75,5.75,5.25,7.75,7.25,7.25,5.5,0.75,3.25,1.5,1.25,2.0,0.08,0.33,1.08,630.24,-4.1,18.3
0.04,0.0,0.0,0.0,0.5,0.0,0.0,0.0,1.25,0.5,3.5,0.75,4.5,7.0,-0.23,0.02,1.14,304.1,-6.1,-90.2,2.0,1.0,5.25,3.25,6.75,6.75,7.0,6.0,0.75,4.0,2.0,1.25,2.5,0.08,0.08,0.95,740.85,-2.6,8.9
0.06,0.0,0.0,0.0,0.0,0.0,0.0,0.5,1.5,0.25,1.5,1.5,3.75,5.5,-0.23,0.02,1.39,260.53,-4.6,-91.8,0.75,0.75,5.0,3.25,6.25,7.25,6.0,6.0,0.75,5.25,2.75,2.25,2.25,0.08,0.14,0.95,807.9,-0.9,0.0
0.08,0.0,0.0,0.0,1.0,0.0,0.0,0.0,0.0,1.5,1.5,0.5,0.0,4.25,-0.11,0.02,1.27,197.61,-4.7,-70.5,1.25,1.5,3.0,3.25,7.0,6.75,5.0,6.0,0.75,5.25,2.0,2.25,1.25,0.08,0.14,0.95,806.54,0.2,4.0
0.1,0.0,0.0,0.0,1.25,0.0,0.0,0.25,1.0,0.0,0.5,0.0,2.0,3.0,0.02,0.02,1.02,137.83,-2.8,-69.3,0.0,1.0,3.0,2.0,6.25,6.25,3.5,6.5,0.75,4.25,3.25,1.5,3.75,0.08,0.08,0.95,767.16,2.6,-9.2
0.12,0.0,0.0,0.0,0.75,0.0,0.0,0.25,1.0,0.75,0.5,0.0,0.0,2.0,0.39,3.77,0.64,81.33,-5.0,-54.3,0.75,0.75,2.0,0.5,5.75,6.0,2.75,6.0,0.25,5.0,2.0,2.25,4.25,0.08,0.14,0.95,693.54,4.8,-16.1
0.14,1.0,0.0,0.0,1.0,0.0,0.0,0.0,0.0,0.0,0.5,0.0,0.75,1.5,0.7,2.45,1.64,41.56,5.9,-28.7,0.75,0.75,1.0,1.25,3.0,5.5,2.25,6.75,0.25,5.5,3.25,2.75,5.0,0.08,0.08,0.95,630.88,5.6,-30.0
0.16,1.5,0.0,0.0,1.0,0.0,0.0,0.25,1.25,0.0,0.5,0.5,1.0,0.0,0.64,2.14,1.27,21.98,9.6,-5.3,0.0,0.0,1.0,0.5,1.5,5.0,1.25,6.0,0.25,6.25,2.5,2.75,4.5,0.08,0.08,0.95,539.72,8.2,-43.4
0.18,0.25,0.0,0.0,1.0,0.0,0.0,0.25,1.25,0.0,0.75,1.25,0.25,0.0,0.08,1.83,0.83,11.84,2.5,-28.1,0.0,0.0,0.25,0.5,1.0,4.5,1.0,6.5,0.25,6.5,2.75,3.0,5.0,0.02,0.08,0.95,466.79,9.4,-51.4
0.2,1.5,0.0,0.0,1.0,0.0,0.0,0.25,1.25,0.0,0.5,1.0,1.0,0.0,0.02,1.02,1.27,19.94,9.7,-10.7,0.0,0.0,0.0,0.5,1.0,4.5,1.0,6.75,0.25,7.25,2.75,3.5,5.75,0.08,0.08,0.95,425.27,9.8,-55.0
0.22,0.0,0.0,0.0,1.0,0.0,0.0,0.25,1.25,0.0,0.5,0.75,0.5,1.5,0.08,0.58,1.14,28.05,-2.7,-53.0,0.0,0.0,0.0,0.5,0.5,4.25,0.75,6.75,0.0,7.5,3.0,4.0,6.25,0.08,0.08,0.95,414.12,9.8,-60.0
0.24,0.0,0.0,0.0,1.25,0.0,0.0,0.0,0.0,0.5,0.75,0.0,1.5,0.0,0.14,0.2,1.14,32.35,7.4,-40.4,0.0,0.0,0.0,0.5,0.5,3.75,1.0,6.75,0.0,8.0,3.5,4.5,7.0,0.08,0.08,0.95,427.47,9.1,-63.2
0.26,1.5,0.0,0.0,1.0,0.0,0.0,0.25,1.25,0.0,0.75,0.5,0.25,1.25,0.2,0.02,1.2,48.69,4.2,-16.5,0.0,0.0,0.0,0.5,1.25,3.5,0.5,6.75,0.0,8.25,3.25,5.25,7.25,0.08,0.08,0.95,451.86,9.0,-62.9
0.28,0.0,0.0,0.0,1.25,0.0,0.0,0.25,0.5,0.75,0.0,0.0,1.25,0.75,0.27,-0.11,1.02,54.84,5.8,-40.6,0.0,0.0,0.0,0.5,0.5,2.75,0.75,6.75,0.0,9.25,3.5,5.25,8.0,0.08,0.08,0.95,490.94,8.9,-68.7
0.3,0.0,0.0,0.0,0.25,0.0,0.0,0.5,0.75,0.0,0.75,0.25,0.75,0.75,0.14,-0.11,0.89,60.38,-3.5,-66.2,0.0,0.0,0.0,0.5,2.25,2.0,0.5,6.75,0.0,8.5,4.25,5.25,8.75,0.14,0.08,0.95,528.39,8.0,-65.3
0.32,1.5,0.0,0.0,1.0,0.0,0.0,0.25,1.25,0.0,0.5,0.5,0.5,1.5,-0.05,-0.17,0.89,75.1,4.4,-21.3,0.0,0.0,0.0,0.0,0.5,2.0,0.75,7.0,0.0,8.5,4.5,5.5,8.25,0.14,0.02,0.89,551.37,8.3,-72.9
0.34,1.5,0.0,0.75,0.5,0.0,0.0,0.25,1.25,0.0,0.5,0.5,0.25,0.5,-0.23,-0.23,0.95,83.07,10.8,1.9,0.0,0.25,0.0,0.5,0.5,3.5,0.25,6.75,0.25,9.5,3.75,6.0,8.5,0.14,0.02,0.89,582.36,8.7,-67.5
0.36,1.25,0.0,0.0,0.5,0.0,0.0,0.25,1.0,0.0,0.75,0.5,0.25,0.75,-0.36,-0.23,1.02,85.52,4.3,-19.0,0.0,0.0,0.0,0.0,0.5,2.0,0.0,6.25,0.0,8.75,4.0,5.5,8.5,0.14,0.08,1.02,580.03,8.9,-74.8
0.38,0.5,0.0,0.0,0.75,0.0,0.0,0.25,1.0,0.0,0.5,0.5,0.25,0.5,-0.48,-0.17,1.08,77.64,2.3,-24.8,0.0,0.0,0.0,0.5,0.5,2.0,0.0,6.0,0.0,8.75,4.5,6.0,8.75,0.2,0.02,0.95,584.09,8.0,-73.9
0.4,1.25,0.0,0.75,1.0,0.0,0.0,0.25,1.25,0.0,0.5,0.75,0.5,0.5,-0.55,-0.11,1.08,83.18,10.4,-4.0,0.0,0.0,0.0,0.0,0.5,2.75,1.0,6.0,0.25,9.75,3.75,6.5,9.25,0.2,0.02,1.02,594.68,8.4,-73.2
0.42,0.5,0.0,0.75,0.75,0.0,0.0,0.25,1.0,0.0,0.75,0.75,0.25,0.5,-0.48,-0.05,1.02,81.84,7.0,-17.1,0.0,0.25,0.0,0.0,1.75,3.25,0.0,6.0,0.0,8.75,5.0,6.0,11.0,0.2,0.02,1.02,622.23,8.5,-69.1
0.44,0.0,0.0,0.75,0.25,0.0,0.0,0.5,0.5,0.0,0.75,0.25,0.5,1.0,-0.42,-0.05,1.02,78.54,3.3,-45.0,0.0,0.0,0.0,0.75,0.5,2.0,1.0,5.5,0.0,8.5,5.0,6.0,11.0,0.2,-0.05,0.95,631.48,7.3,-74.4
0.46,1.0,0.0,0.75,0.75,0.0,0.0,0.25,0.75,0.0,0.5,0.25,0.25,0.75,-0.17,-0.11,1.02,78.29,10.4,-1.9,0.5,0.5,0.0,1.5,0.5,2.0,0.0,5.0,0.0,9.0,3.0,6.25,10.5,0.27,0.02,1.02,627.87,7.2,-68.8
0.48,0.25,0.0,0.75,1.25,0.0,0.0,0.25,1.25,0.0,0.5,0.0,0.25,0.75,-0.11,-0.11,0.7,78.49,5.1,-9.4,0.0,0.0,0.0,0.25,0.5,1.25,0.0,3.75,0.0,7.75,2.75,5.75,9.0,0.27,0.02,1.14,568.03,8.2,-79.9
0.5,0.0,0.0,0.0,0.25,0.0,0.0,0.5,1.0,0.0,0.5,0.5,0.0,0.25,-0.23,-0.23,0.64,64.68,-3.8,-43.6,0.0,0.0,0.0,0.0,0.25,1.25,0.0,4.0,0.0,7.25,2.25,5.25,8.5,0.27,0.02,1.27,499.21,8.9,-81.2
0.52,2.5,0.0,0.75,2.0,0.0,0.0,0.75,1.0,0.0,0.5,0.5,0.0,0.0,-0.8,-1.36,0.52,82.79,18.4,38.9,0.0,0.0,0.0,0.0,0.0,1.0,0.0,3.75,0.0,6.25,2.0,4.25,8.0,0.33,0.02,1.27,420.76,9.3,-82.9
0.54,0.0,0.0,1.25,2.25,0.0,0.0,1.75,0.75,0.0,0.0,0.5,0.0,0.0,-1.11,-3.73,2.39,87.85,19.1,30.1,0.0,0.0,0.0,0.0,0.0,1.0,0.0,2.5,0.0,4.25,0.75,3.0,6.75,0.27,-0.05,1.39,339.61,10.4,-83.4
0.56,0.0,0.25,3.25,3.75,0.0,0.0,4.0,0.0,0.0,0.5,0.0,0.0,0.0,-0.55,0.45,2.33,118.45,25.4,47.4,0.0,0.0,0.0,0.0,0.0,0.5,0.0,2.25,0.0,2.0,0.25,1.25,4.25,0.33,0.14,1.7,252.37,11.9,-81.0
0.58,0.0,0.75,0.0,3.75,0.0,0.0,1.5,0.0,0.0,0.5,0.0,0.0,0.0,-0.17,0.08,1.33,119.93,15.6,48.2,0.0,0.0,0.0,0.0,0.25,1.0,0.25,2.5,0.0,1.25,0.75,1.25,3.5,0.2,1.02,0.45,178.72,10.3,-68.1
0.6,0.0,1.0,0.0,2.75,0.0,0.75,5.75,2.75,1.75,4.0,0.5,3.5,2.0,0.08,0.14,1.27,191.67,2.5,-34.3,0.0,0.0,0.0,0.0,0.0,0.0,0.5,2.25,0.0,1.25,0.0,1.25,2.5,0.02,1.14,0.52,107.7,9.7,-78.6
0.62,4.5,1.0,2.75,3.75,0.0,0.5,5.5,4.25,1.75,5.25,4.5,4.25,4.5,-0.17,-0.23,1.02,303.34,7.5,-23.4,0.0,0.0,0.0,0.0,0.0,0.0,0.5,2.25,0.0,1.5,0.75,2.25,2.75,-0.48,0.7,1.2,73.74,6.6,-82.3
0.64,4.75,1.0,4.25,3.75,0.0,0.75,5.75,4.25,1.5,5.25,3.75,4.25,4.5,-0.11,0.14,0.95,442.21,8.6,-18.0,0.0,0.0,1.0,0.5,1.0,2.0,0.75,2.5,0.25,2.5,0.75,2.0,3.25,-0.11,0.89,0.89,90.05,5.2,-43.4
0.66,4.75,1.0,4.25,3.75,0.0,0.75,5.75,4.25,1.5,5.25,3.75,4.25,5.0,-0.11,0.14,0.95,571.34,8.4,-19.2,0.0,0.0,1.0,0.5,1.0,2.0,0.75,2.5,0.25,2.5,0.75,1.75,2.75,-0.11,0.77,0.52,118.73,5.2,-40.1
0.68,4.5,1.0,4.5,3.75,0.0,0.25,5.25,3.75,1.5,5.25,4.0,4.5,5.5,-0.11,0.08,0.95,643.52,8.7,-22.0,0.0,0.25,1.25,0.5,1.0,2.0,0.75,2.25,0.25,1.75,0.75,1.75,2.75,-0.3,0.52,0.77,144.66,3.4,-34.3
0.7,4.0,0.75,4.25,2.25,0.0,0.0,4.75,3.25,1.25,5.25,3.75,4.75,5.5,-0.11,0.08,0.95,645.09,8.1,-28.9,0.0,0.0,1.25,0.5,0.5,2.0,1.0,2.25,0.25,1.5,0.75,1.5,2.75,-0.17,0.39,0.77,157.59,3.4,-37.8
0.72,3.75,0.0,0.0,2.0,0.0,0.0,4.25,3.0,1.25,5.25,3.0,5.0,5.5,-0.11,0.14,0.95,591.51,3.4,-46.5,0.0,0.0,1.25,0.5,0.5,2.0,1.0,2.25,0.25,2.25,0.75,1.75,2.25,-0.17,0.33,0.83,170.89,3.4,-38.5
0.74,3.0,0.0,0.0,2.0,0.0,0.0,3.25,3.0,0.5,4.0,3.5,0.0,5.5,-0.11,0.14,0.95,493.37,1.5,-38.1,0.25,0.0,1.25,0.5,1.0,2.0,1.0,2.25,0.25,2.0,0.5,1.25,2.75,-0.17,0.27,0.89,178.65,3.6,-31.5
0.76,0.0,0.0,0.0,2.0,0.0,0.0,5.25,2.0,0.5,4.0,0.0,4.75,0.0,-0.11,0.14,0.95,375.3,4.3,-45.9,0.0,0.25,1.25,0.75,1.0,2.0,1.0,2.25,0.25,1.5,0.5,1.25,2.75,-0.11,0.14,1.02,189.7,3.2,-28.1
0.78,0.0,0.0,1.75,2.0,0.0,0.0,1.5,2.75,0.75,4.75,3.25,5.25,6.25,-0.11,0.14,0.95,352.33,0.3,-63.6,0.25,0.25,1.25,0.5,0.5,1.75,0.75,2.25,0.25,1.5,0.75,1.25,2.75,-0.11,0.08,1.02,198.22,2.6,-33.4
0.8,0.0,0.0,2.25,0.0,0.0,0.0,1.0,1.0,0.75,5.25,2.25,5.25,1.25,-0.17,0.14,1.08,301.54,3.5,-64.3,0.0,0.25,1.25,0.5,0.5,1.75,1.0,2.25,0.25,1.5,0.5,1.25,2.75,-0.05,0.02,1.08,200.08,3.2,-34.4
0.82,0.0,0.0,1.25,1.75,0.0,0.0,1.0,2.5,0.0,5.0,3.0,5.75,7.0,-0.17,0.08,0.95,318.65,-1.5,-71.1,0.0,0.0,1.25,0.5,0.5,2.0,1.0,2.25,0.25,1.5,1.25,1.25,2.5,0.08,-0.05,1.2,197.73,2.9,-36.5
0.84,0.0,0.0,1.0,1.25,0.0,0.0,0.75,2.5,0.5,5.25,3.25,6.25,7.25,-0.17,0.08,0.95,322.57,-2.0,-75.7,0.0,0.0,1.0,0.0,0.5,0.0,1.0,2.25,0.0,1.0,0.75,0.5,2.0,0.2,0.02,1.2,174.42,1.9,-45.4
0.86,0.0,0.0,0.0,1.75,0.0,0.0,0.5,2.75,0.5,5.75,4.0,6.25,7.5,-0.17,0.08,0.95,352.42,-3.4,-78.6,0.0,0.0,0.0,0.0,0.0,0.0,0.5,1.0,0.0,0.5,0.0,0.5,1.5,0.33,0.02,1.14,128.28,8.8,-77.8
0.88,0.0,0.0,0.0,1.75,0.0,0.0,0.5,2.5,0.5,6.25,4.25,6.5,8.0,-0.17,0.08,0.95,380.68,-3.5,-79.6,0.0,0.0,0.0,0.0,0.0,0.0,0.5,1.0,0.0,0.75,0.0,0.25,1.5,0.39,0.02,1.2,83.6,10.5,-75.5
0.9,1.5,0.0,0.75,1.25,0.0,0.0,0.5,2.75,0.5,6.25,3.5,6.75,8.25,-0.17,0.02,0.89,418.28,-1.5,-70.9,0.5,0.5,0.0,0.5,0.5,1.5,1.0,2.25,0.25,1.5,0.75,1.0,2.5,0.45,0.02,1.2,95.69,5.2,-35.6
0.92,2.25,0.25,0.5,1.5,0.0,0.0,0.25,2.25,0.5,7.0,4.5,7.0,8.5,-0.23,0.02,0.95,462.62,-0.7,-67.8,0.0,0.0,0.0,0.25,1.0,0.0,1.0,2.25,0.25,1.0,0.5,0.75,1.75,0.39,0.08,1.02,101.11,5.5,-47.2
0.94,1.0,0.0,0.5,1.25,0.0,0.0,1.0,2.5,0.25,6.25,3.25,6.75,8.75,-0.23,0.02,1.02,482.03,-2.4,-74.9,0.0,0.0,1.0,0.5,1.0,1.25,0.75,2.25,0.25,1.25,0.75,1.25,2.25,0.27,0.14,0.89,131.76,3.0,-35.1
0.96,0.0,0.0,0.75,1.25,0.0,0.0,0.25,2.75,0.0,6.25,4.0,6.75,9.0,-0.23,0.08,1.02,498.53,-3.6,-80.5,0.25,0.0,1.0,0.5,0.5,1.25,0.75,2.25,0.25,1.25,0.25,0.5,2.25,0.77,-0.11,1.33,141.08,3.7,-30.0
0.98,0.0,0.0,0.0,0.75,0.0,0.0,0.25,2.5,0.0,6.5,3.75,6.75,9.25,-0.23,0.02,1.02,495.58,-5.3,-87.2,0.0,0.0,0.0,0.0,0.0,0.0,1.0,2.25,0.0,0.0,0.5,0.25,1.25,0.2,-0.17,0.95,123.37,6.8,-58.8
1.0,0.0,0.0,0.0,1.25,0.0,0.0,0.25,2.25,0.0,5.75,3.25,6.5,9.25,-0.23,0.02,1.02,477.19,-4.9,-85.3,0.0,0.0,0.0,0.0,0.0,0.0,0.5,0.75,0.0,0.0,0.0,0.25,1.25,0.27,-0.48,0.89,85.67,8.0,-75.7
1.02,0.0,0.0,0.0,0.0,0.0,0.0,0.25,3.0,0.0,5.25,3.25,6.25,9.25,-0.23,-0.05,0.89,444.15,-6.2,-90.8,0.0,0.0,0.0,0.5,0.0,1.25,0.5,0.75,0.0,1.0,0.0,1.0,1.5,0.77,-2.86,3.2,73.74,8.1,-49.1
1.04,0.0,0.0,0.0,0.25,0.0,0.0,0.25,1.25,0.0,6.25,2.5,6.75,8.0,-0.3,-0.05,0.95,417.49,-5.4,-92.1,1.0,0.5,0.0,1.75,0.0,2.0,1.0,1.0,0.0,3.0,1.0,2.0,3.0,0.58,0.64,-0.23,118.38,2.2,-36.3
1.06,0.0,0.5,0.0,0.5,0.0,0.0,0.25,2.0,0.0,5.75,3.25,7.0,9.25,-0.3,-0.05,1.02,403.18,-4.8,-86.7,0.0,0.0,1.0,0.5,0.25,2.0,2.0,1.0,0.0,1.5,0.5,2.5,2.75,0.02,0.58,1.2,155.34,1.2,-44.1
1.08,0.0,0.0,0.25,0.0,0.0,0.0,0.0,0.75,0.0,6.25,2.25,6.5,9.0,-0.3,-0.05,1.08,386.08,-5.8,-94.5,0.0,0.0,2.0,0.5,0.5,2.0,3.0,2.25,0.0,2.75,0.5,3.0,3.75,0.02,0.08,1.27,214.68,0.6,-42.1
1.1,0.0,0.0,0.0,1.0,0.0,0.0,0.25,1.25,0.0,5.25,3.25,6.0,8.0,-0.17,-0.11,0.95,374.04,-4.2,-87.1,0.0,0.0,2.75,1.25,1.0,3.5,4.75,2.5,0.0,4.25,1.5,4.0,5.0,0.02,0.08,1.02,280.74,0.1,-37.0
1.12,0.0,0.0,0.0,1.75,0.0,0.0,0.0,1.0,0.0,5.25,1.75,6.25,8.0,-0.36,-0.11,1.02,355.81,-4.4,-84.3,1.0,0.0,5.0,1.5,4.75,3.5,5.5,3.75,0.0,5.5,2.75,4.75,6.25,0.08,0.08,0.95,394.05,-1.9,-24.0
1.14,0.0,0.0,0.0,1.25,0.0,0.0,0.25,1.25,0.0,4.5,2.5,5.75,8.0,-0.42,-0.05,1.2,341.65,-4.2,-85.9,2.0,0.0,2.75,0.75,1.25,4.25,5.5,5.0,0.25,5.75,3.5,5.75,6.75,0.08,0.08,0.95,508.49,0.0,-39.3
1.16,0.25,0.0,0.0,1.0,0.0,0.0,0.25,1.5,0.0,4.5,1.75,5.0,7.0,-0.36,-0.05,1.27,318.37,-4.7,-83.5,2.0,0.5,4.0,2.0,4.75,4.5,5.5,5.25,0.0,6.75,5.0,6.0,8.0,0.08,0.08,0.95,671.35,-0.6,-29.2
1.18,0.0,0.0,0.0,1.0,0.0,0.0,0.25,0.75,0.0,2.5,0.75,4.25,6.25,-0.3,-0.11,1.27,283.04,-4.5,-87.3,1.0,0.75,2.75,2.0,4.75,4.5,4.75,5.5,0.25,7.0,5.0,6.0,8.0,0.08,0.08,0.95,774.45,1.2,-33.9
1.2,0.0,0.0,0.0,1.0,0.0,0.0,0.25,1.25,0.0,3.75,0.75,0.0,4.0,-0.23,-0.05,1.27,230.29,-9.6,-70.3,0.25,0.5,2.75,1.25,4.75,4.5,4.25,5.25,0.5,7.0,5.0,6.0,8.0,0.08,0.08,0.95,838.63,2.1,-38.3
1.22,0.5,0.0,0.0,0.75,0.0,0.0,0.25,1.25,0.0,1.25,0.0,0.0,3.25,-0.23,-0.05,0.7,162.13,-7.3,-57.6,0.5,0.0,2.5,0.5,4.5,3.5,3.75,5.25,0.25,6.25,5.0,5.25,8.0,0.08,0.08,0.95,827.0,2.4,-42.2
1.24,0.5,0.0,0.0,0.5,0.0,0.0,0.25,1.0,0.0,1.25,0.0,2.0,2.25,0.33,1.45,0.77,109.59,-2.7,-68.7,0.0,0.0,1.75,0.5,1.0,3.25,3.75,5.0,0.25,6.0,3.75,5.25,8.0,0.08,0.08,0.95,757.0,3.8,-55.9
1.26,1.5,0.0,0.0,0.75,0.0,0.0,0.25,1.0,0.0,1.25,0.5,2.0,2.0,0.08,0.64,0.89,81.84,2.7,-47.1,0.0,0.0,2.5,0.5,1.0,3.25,4.25,4.25,0.25,6.0,3.25,5.25,7.25,0.08,0.14,0.89,667.13,2.3,-51.8
1.28,1.25,0.0,0.0,0.25,0.0,0.0,0.25,1.0,0.0,1.25,0.75,1.75,2.0,0.02,0.64,0.89,72.6,0.9,-56.7,0.0,0.0,2.5,0.5,1.0,3.25,5.0,4.0,0.25,5.75,3.0,5.25,7.0,0.08,0.08,0.95,588.43,1.8,-50.3
1.3,1.5,0.0,0.0,1.0,0.0,0.0,0.25,1.25,0.0,1.25,1.0,1.25,2.0,0.08,0.64,0.7,74.88,2.5,-40.4,0.5,0.0,2.75,1.25,1.0,3.5,6.0,3.75,0.25,5.75,3.25,5.25,6.25,0.08,0.08,0.95,545.0,0.0,-42.7
1.32,1.5,0.0,0.0,1.0,0.0,0.0,0.25,1.0,0.25,1.25,0.5,1.25,1.75,0.02,0.64,0.83,79.23,3.3,-36.3,0.75,0.0,4.5,1.0,1.0,3.25,6.5,3.75,0.25,5.5,3.25,5.25,6.5,0.08,0.08,0.95,515.94,-2.3,-37.9
1.34,0.25,0.0,0.0,0.25,0.0,0.0,0.25,0.5,0.0,0.75,0.75,0.0,1.75,0.14,0.89,0.83,62.83,-4.6,-65.4,1.0,0.0,5.0,1.5,1.0,3.25,7.25,4.0,0.25,5.5,4.75,5.25,7.25,0.08,0.08,0.95,521.49,-3.2,-36.8
1.36,1.0,0.0,0.75,0.5,0.0,0.0,0.25,1.0,0.0,1.0,0.75,1.0,1.75,0.27,1.02,1.02,65.34,4.4,-38.6,1.25,0.0,5.25,1.5,0.5,3.0,7.5,3.75,0.25,4.25,3.0,4.25,6.0,0.08,0.08,0.95,494.47,-4.9,-29.3
1.38,0.0,0.0,0.0,1.0,0.0,0.0,0.25,1.0,0.25,0.75,0.5,0.75,1.75,0.14,1.02,1.2,65.49,-2.6,-57.6,2.0,0.0,6.5,2.75,0.5,2.25,7.75,2.5,0.0,2.75,2.25,3.75,4.0,0.02,0.14,1.02,462.84,-10.7,-11.1
1.4,0.0,0.0,0.25,0.5,0.0,0.0,0.25,0.5,0.25,0.0,0.75,0.0,1.75,-0.05,1.08,1.27,64.55,0.1,-55.6,1.5,0.0,6.75,1.0,0.5,2.0,8.0,3.5,0.0,1.25,1.25,2.75,4.0,0.08,0.2,1.08,400.13,-11.0,-8.8
1.42,0.0,0.0,0.0,0.25,0.0,0.0,1.75,0.0,0.25,0.5,0.0,0.0,0.0,-0.11,0.89,1.08,49.35,14.5,-4.9,2.25,0.0,6.75,0.75,0.5,0.0,8.5,2.25,0.0,1.25,0.5,0.0,2.5,0.02,0.02,1.02,338.41,-18.8,15.0
1.44,1.5,0.0,0.5,1.0,0.0,0.0,0.5,0.0,0.5,1.0,0.75,0.0,0.0,-2.8,-7.92,2.7,55.82,17.0,15.9,1.25,0.0,6.75,0.5,0.5,0.0,7.75,1.5,0.0,1.25,0.5,1.5,1.75,0.02,0.2,0.95,285.23,-19.7,7.7
1.46,0.0,0.0,0.0,0.0,0.0,0.0,0.5,0.75,0.25,0.5,1.0,0.0,0.0,-1.36,-5.55,2.2,44.45,0.2,-52.8,2.25,0.0,6.75,1.0,0.5,1.75,7.25,1.75,0.25,1.5,0.25,2.25,1.75,-0.11,0.02,0.77,271.15,-16.0,9.3
1.48,0.0,0.0,0.0,0.25,0.0,0.0,0.5,0.0,0.5,0.5,0.0,0.0,0.0,0.33,0.52,-1.98,31.01,6.9,-23.4,1.25,0.0,6.5,0.5,0.5,1.0,7.0,0.75,0.0,1.0,0.25,1.25,1.75,-0.11,0.27,0.77,250.27,-19.2,13.6
1.5,0.0,0.0,0.5,0.5,0.0,0.0,0.5,0.0,0.5,0.5,1.0,1.25,0.0,-0.17,1.39,-0.8,34.39,12.5,-44.2,1.75,0.0,5.25,0.5,0.25,1.0,6.5,1.75,0.0,1.0,0.25,0.75,1.75,-0.05,0.2,0.7,232.8,-16.6,12.1
1.52,0.0,0.0,0.0,0.0,0.0,0.0,0.5,0.0,0.25,0.0,1.0,0.0,1.0,-0.73,0.89,0.89,33.04,2.8,-76.1,0.75,0.0,5.25,0.5,0.25,1.75,6.5,1.0,0.0,1.25,0.5,1.25,1.75,-0.17,0.39,0.58,215.45,-14.7,4.6
1.54,0.0,0.0,0.0,1.0,0.0,0.0,0.5,0.0,0.25,0.75,0.75,0.0,0.0,1.52,3.08,2.2,34.45,8.2,-17.8,2.25,0.0,5.25,0.75,0.5,1.75,6.75,2.0,0.0,1.25,0.75,2.0,1.75,-0.05,0.14,0.77,222.78,-14.2,5.2
1.56,0.0,0.0,0.0,1.0,0.0,0.0,0.5,0.0,0.0,0.5,0.0,0.5,0.0,0.52,0.7,1.2,32.11,9.7,-11.0,1.75,0.0,6.0,2.0,0.5,2.0,7.0,2.25,0.25,2.5,1.75,3.0,2.5,-0.05,0.08,1.2,256.9,-11.7,-6.3
1.58,0.0,0.0,0.5,1.25,0.0,0.0,1.0,0.0,0.25,0.0,0.0,0.0,0.0,-0.92,1.27,0.52,35.47,23.8,43.4,3.25,0.25,6.75,1.75,1.0,3.5,6.75,2.75,0.25,4.25,3.0,3.0,3.75,0.08,0.08,1.08,331.33,-8.9,-7.9
1.6,0.0,0.0,0.0,1.25,0.0,0.0,1.0,0.0,0.5,2.0,0.75,0.0,0.0,-0.36,0.33,1.33,43.87,4.0,-27.1,2.25,0.25,5.25,1.5,1.0,3.5,5.75,2.75,0.5,6.0,4.5,3.5,4.0,-0.05,0.14,0.83,414.06,-5.5,-22.2
1.62,0.0,0.0,0.0,0.5,0.0,0.0,0.5,1.25,0.0,1.25,0.75,0.0,0.0,-0.17,-0.05,1.27,54.17,-4.0,-40.3,2.5,0.0,4.0,0.0,1.0,2.0,4.0,3.75,0.0,6.0,6.25,4.25,5.5,0.02,0.08,1.02,488.03,-3.3,-39.9
1.64,0.0,0.0,0.0,0.0,0.0,0.0,0.5,1.25,0.0,0.5,0.25,1.5,2.5,-0.11,0.2,0.95,79.3,-6.4,-86.5,1.5,0.0,2.75,0.5,0.0,2.25,2.0,2.5,0.0,7.25,6.0,5.25,5.0,0.02,0.14,0.95,518.04,-0.9,-52.8
1.66,0.0,0.0,0.0,0.25,0.0,0.0,0.25,1.25,0.0,2.25,1.0,2.5,2.25,-0.11,0.14,1.02,114.66,-4.8,-82.9,0.75,0.75,1.0,2.0,0.0,2.25,2.0,2.25,0.0,7.5,6.5,5.5,5.75,0.08,0.08,1.02,537.6,0.7,-55.5
1.68,1.75,0.0,0.0,0.5,0.0,0.0,0.25,1.25,0.0,3.0,1.0,2.25,4.25,-0.17,0.14,1.14,162.72,-1.9,-62.4,1.25,0.5,1.0,1.75,1.25,2.0,2.0,2.5,0.25,7.75,7.75,6.0,7.25,0.14,0.08,1.08,571.57,0.6,-55.4
1.7,0.0,0.0,0.0,0.5,0.0,0.0,0.25,1.25,0.0,4.5,1.5,3.5,5.5,-0.3,0.08,1.02,218.76,-6.4,-86.4,0.0,0.0,1.0,0.5,0.0,0.0,1.0,2.25,0.0,7.5,6.75,6.0,6.75,0.02,0.14,1.33,560.01,2.0,-78.7
1.72,0.0,0.0,0.5,0.5,0.0,0.0,0.25,1.25,1.25,3.0,1.0,4.0,6.25,-0.3,0.08,0.95,260.99,-3.4,-81.8,0.0,0.0,0.5,0.0,0.0,0.0,1.0,1.75,0.0,7.75,6.75,6.0,7.75,0.33,-0.36,0.77,551.61,3.2,-85.0
1.74,0.0,0.0,0.0,1.75,0.0,0.0,3.5,5.25,0.0,4.0,1.25,0.0,6.25,-0.17,0.02,1.27,290.07,-6.8,-56.4,0.0,0.0,0.0,0.0,0.0,1.25,1.0,1.25,0.0,7.5,6.5,6.0,7.25,0.2,0.02,0.95,517.03,4.3,-83.3
1.76,0.0,0.0,0.0,0.5,0.0,0.0,0.25,1.25,0.0,4.0,1.75,0.25,6.25,-0.23,0.02,1.14,288.14,-9.7,-82.6,0.5,0.0,0.0,1.75,0.0,1.5,1.0,0.75,0.0,7.5,6.0,5.5,7.25,0.33,-0.3,1.14,490.14,2.8,-71.8
1.78,0.0,0.0,0.0,1.75,0.0,0.0,0.0,0.0,0.0,3.75,0.75,4.5,6.25,-0.36,-0.05,0.89,290.06,-3.9,-83.0,0.5,0.0,0.0,0.0,0.0,2.0,0.5,0.75,0.25,8.0,5.5,5.25,7.0,0.52,-0.61,0.89,454.07,5.0,-78.1
1.8,0.0,0.0,0.0,0.75,0.0,0.0,0.0,0.0,0.0,5.25,0.75,5.75,7.0,-0.36,-0.11,0.7,297.64,-5.5,-92.7,0.0,0.0,0.0,0.0,0.0,0.5,0.5,0.75,0.0,6.5,5.0,5.25,6.25,0.39,-0.86,1.33,406.39,4.3,-87.6
1.82,0.0,0.0,0.0,0.75,0.0,0.0,0.0,1.0,0.0,5.25,2.5,5.25,7.5,-0.36,-0.17,0.95,323.93,-5.3,-89.0,0.0,0.0,2.25,0.5,0.5,2.0,1.0,0.75,0.25,6.25,3.5,4.0,5.75,0.39,-1.36,1.2,372.54,1.8,-59.8
1.84,0.0,0.0,0.0,0.0,0.0,0.0,0.0,0.0,0.0,5.25,1.5,5.25,6.75,-0.42,-0.36,1.02,328.75,-6.1,-97.6,0.0,0.0,0.75,0.5,0.5,2.0,1.0,0.75,0.25,5.25,3.0,2.25,5.0,0.33,-0.86,1.27,324.41,4.9,-61.6
1.86,0.0,0.0,0.0,0.5,0.0,0.0,0.0,0.5,0.0,3.75,0.75,3.75,6.25,-0.8,-0.67,1.27,310.64,-6.7,-92.1,0.0,0.0,1.5,0.75,0.5,0.0,1.0,0.75,0.0,2.5,1.5,2.0,3.75,0.39,-0.17,1.39,265.51,-1.0,-56.4
1.88,0.0,0.0,0.0,0.25,0.0,0.0,0.0,0.0,0.0,3.5,0.75,3.25,5.25,-1.11,-2.36,1.58,274.73,-6.7,-95.4,0.0,0.0,0.0,0.5,0.0,1.25,0.5,0.75,0.25,2.25,0.5,2.25,1.75,0.52,-0.3,2.08,197.43,5.6,-62.9
1.9,0.0,0.0,0.0,0.0,0.0,0.0,0.0,0.0,0.0,2.0,0.75,0.0,4.0,-1.17,-2.48,2.27,212.13,-11.6,-96.1,0.0,0.25,1.75,0.75,0.0,1.75,1.0,0.75,0.25,2.0,0.5,2.0,1.75,0.58,0.7,2.58,146.58,-1.6,-32.0
1.92,0.0,0.0,0.0,0.5,0.0,0.0,0.0,0.0,0.25,1.25,0.0,0.0,2.25,-1.11,-1.86,2.27,141.03,-9.0,-75.6,0.0,0.0,1.25,0.75,0.5,1.25,1.0,1.0,0.25,2.0,1.5,2.25,2.75,-0.11,0.95,1.52,127.63,0.0,-46.7
1.94,0.0,0.0,0.75,0.5,0.0,0.0,0.25,0.0,0.0,1.0,0.5,0.0,2.0,-1.23,0.52,2.2,84.17,0.7,-51.9,0.0,0.0,1.5,0.25,0.5,2.0,1.0,0.75,0.25,1.5,1.25,2.0,2.5,0.08,0.77,1.27,129.12,0.2,-40.4
1.96,0.0,0.0,0.0,0.0,0.0,0.0,0.25,0.0,0.0,0.5,0.75,0.0,2.0,0.45,1.39,0.89,44.86,-7.1,-92.6,0.0,0.0,2.0,0.5,0.5,1.5,1.0,1.0,0.25,1.5,1.0,2.0,2.5,0.27,0.64,1.45,135.21,-1.8,-36.5
1.98,0.0,0.0,0.75,0.0,0.0,0.0,0.0,0.0,0.25,1.75,0.0,0.0,0.75,0.39,1.2,0.64,21.67,-1.5,-50.6,0.0,0.0,0.0,0.5,0.0,1.25,0.75,0.75,0.25,0.5,0.25,0.75,1.75,0.27,-0.11,1.08,107.9,6.1,-46.3
2.0,0.0,0.0,0.0,0.0,0.0,0.0,0.0,0.0,0.0,1.0,0.0,0.25,0.0,0.08,0.77,1.14,0.0,-10.8,-82.3,0.0,0.0,1.75,0.0,0.5,0.0,1.0,1.0,0.0,0.75,0.75,0.75,1.25,0.2,-0.3,0.95,85.58,-6.9,-29.8
2.02,0.0,0.0,0.0,0.75,0.0,0.0,0.25,0.0,0.0,0.75,0.5,0.0,0.0,-0.3,0.27,1.52,0.0,5.0,-20.7,0.0,0.0,0.0,0.0,0.0,0.0,1.0,1.25,0.0,0.0,0.75,0.5,2.25,0.39,-0.3,0.64,60.3,4.7,-75.8
2.04,0.0,0.0,1.0,0.5,0.0,0.0,0.25,0.0,0.0,1.0,0.5,0.0,1.0,-0.55,-0.17,1.2,0.0,6.6,-30.7,0.0,0.0,0.0,0.0,0.0,0.0,0.75,0.75,0.0,0.0,0.25,0.75,1.5,0.64,-0.3,0.52,44.64,3.5,-79.4
2.06,0.0,0.0,0.75,0.5,0.0,0.0,0.25,0.0,0.25,0.75,0.5,0.0,0.5,-0.8,-0.17,0.77,0.0,9.3,-23.0,0.0,0.0,0.0,0.0,0.0,0.0,0.75,0.75,0.0,0.0,0.0,0.75,1.0,0.64,-0.48,0.58,28.89,2.9,-74.3
2.08,0.0,0.0,0.75,0.25,0.0,0.0,0.25,0.0,0.0,0.75,0.5,0.0,1.25,-0.86,-0.3,0.58,14.09,3.7,-46.0,0.0,0.0,0.0,0.0,0.0,0.0,0.75,0.75,0.0,0.0,0.0,0.75,1.25,0.7,-0.55,0.77,27.84,3.8,-77.2
2.1,0.0,0.0,0.75,0.25,0.0,0.0,0.25,0.0,0.0,0.5,0.5,0.0,1.0,-0.8,-0.36,0.77,26.88,6.7,-38.4,0.0,0.0,0.0,0.0,0.0,0.0,0.75,0.75,0.0,0.0,0.0,0.75,1.25,0.7,-0.67,0.45,28.14,3.8,-77.2
2.12,0.0,0.0,0.75,0.5,0.0,0.0,0.25,0.0,0.25,0.75,0.0,0.0,0.0,-0.73,-0.67,0.58,33.1,13.9,6.0,0.0,0.0,0.0,0.0,0.0,0.0,0.75,0.75,0.0,0.0,0.0,0.5,1.0,0.52,-0.42,0.45,23.91,4.0,-70.9
2.14,0.75,0.0,0.75,0.25,0.0,0.0,0.25,0.0,0.25,0.75,0.5,0.0,0.0,-0.86,-0.73,0.52,41.8,17.6,9.4,0.0,0.0,0.0,0.0,0.0,0.0,0.75,0.75,0.0,0.0,0.0,0.5,1.0,0.45,-0.55,0.33,19.94,4.0,-70.9
2.16,1.75,0.0,0.75,0.25,0.0,0.0,0.5,0.0,0.0,0.5,0.5,0.0,0.0,-0.73,-0.73,0.33,50.85,24.7,39.6,0.0,0.0,0.0,0.0,0.0,0.0,0.5,0.75,0.0,0.0,0.0,0.5,1.0,0.39,-0.48,0.39,18.56,5.7,-75.6
2.18,0.5,0.0,0.75,0.5,0.0,0.0,0.25,0.0,0.25,0.75,0.75,0.25,0.0,-0.61,-0.73,0.39,56.59,15.5,-5.6,0.0,0.25,0.0,0.5,0.0,1.25,0.75,0.75,0.25,1.25,0.0,1.25,1.25,0.33,-0.55,0.58,46.04,5.4,-42.9
2.2,1.5,0.0,1.0,0.25,0.0,0.0,0.25,0.0,0.25,1.0,0.5,0.25,0.5,-0.55,-0.73,0.33,69.58,15.9,2.4,0.0,0.0,1.75,0.5,0.5,1.0,1.0,1.0,0.25,1.25,0.5,1.25,1.75,0.2,-0.73,0.52,86.98,-2.7,-28.7
2.22,0.5,0.0,0.75,0.25,0.0,0.0,0.25,0.0,0.0,0.75,0.5,0.0,0.5,-0.48,-0.86,0.39,68.45,12.0,-11.4,0.0,0.0,1.25,0.5,0.5,0.75,1.0,0.75,0.25,1.25,0.25,1.25,2.0,0.08,-0.61,0.27,122.09,-1.2,-35.9
2.24,0.0,0.0,0.75,0.5,0.0,0.0,0.25,0.0,0.0,0.5,0.5,0.25,0.5,-0.42,-0.8,0.45,64.58,11.0,-24.4,0.0,0.0,0.0,0.0,0.0,0.0,0.75,0.75,0.0,1.0,0.5,1.25,1.0,0.02,-0.67,0.08,122.42,2.9,-78.3
2.26,0.0,0.0,0.75,0.75,0.0,0.0,0.25,0.0,0.0,0.75,0.5,0.0,0.5,-0.3,-0.8,0.52,57.0,9.7,-15.7,0.0,0.25,1.25,0.0,1.0,0.5,1.0,0.75,0.25,1.25,0.5,1.25,1.75,0.08,-0.67,0.02,133.66,-1.6,-32.7
2.28,0.0,0.0,0.75,0.5,0.0,0.0,0.25,0.0,0.0,0.5,0.5,0.0,1.25,-0.17,-0.67,0.33,54.83,6.0,-36.6,0.0,0.25,1.25,0.5,0.5,0.75,1.0,0.75,0.25,1.25,0.5,1.25,2.0,0.08,-0.61,0.02,140.41,-1.8,-33.4
2.3,0.0,0.0,0.75,0.5,0.0,0.0,0.25,0.0,0.0,0.75,0.5,0.0,1.25,-0.11,-0.61,0.14,56.87,4.6,-39.0,0.0,0.25,1.25,0.5,0.5,0.5,1.0,0.75,0.25,1.25,0.5,1.25,1.75,0.02,-0.55,0.08,147.75,-2.8,-33.0
2.32,0.0,0.0,0.75,0.25,0.0,0.0,0.25,0.0,0.25,0.5,0.5,0.0,1.25,-0.11,-0.61,0.08,58.53,5.6,-43.4,0.25,0.25,1.5,0.5,0.5,0.25,1.0,0.75,0.25,1.25,0.5,1.25,1.75,0.02,-0.42,-0.05,152.0,-5.2,-28.9
2.34,0.0,0.0,0.75,1.0,0.0,0.0,0.25,0.0,0.25,0.75,0.5,0.0,1.25,-0.11,-0.61,0.08,64.37,6.4,-28.2,0.0,0.5,1.5,0.5,0.5,0.0,1.0,0.75,0.25,1.25,0.5,1.25,1.75,0.08,-0.42,-0.11,153.84,-5.3,-30.2
2.36,0.0,0.0,0.75,0.25,0.0,0.0,0.25,0.0,0.0,0.75,0.5,0.0,1.0,-0.11,-0.48,0.08,61.66,5.0,-41.1,0.0,0.0,1.75,0.75,0.5,0.25,1.0,1.0,0.25,1.25,0.75,1.25,1.75,0.02,-0.36,-0.23,154.67,-5.0,-31.9
2.38,0.0,0.0,0.75,0.5,0.0,0.0,0.25,0.0,0.0,0.75,0.5,0.0,1.0,-0.11,-0.42,0.08,59.48,5.9,-34.1,0.0,0.0,0.0,0.5,0.0,0.0,0.5,0.75,0.0,0.0,0.0,0.5,1.5,-0.05,-0.3,-0.11,124.61,3.5,-60.9
2.4,0.0,0.0,0.75,0.25,0.0,0.0,0.25,0.0,0.25,0.75,0.5,0.0,0.0,-0.11,-0.42,0.02,51.18,13.0,-14.1,0.0,0.0,0.0,0.0,0.0,0.0,0.5,0.75,0.0,0.0,0.0,0.5,1.0,0.08,-0.42,0.2,91.03,5.7,-75.6
2.42,0.0,0.0,0.75,0.5,0.0,0.0,0.25,0.0,0.25,0.75,0.5,0.0,0.25,-0.11,-0.36,-0.11,48.49,11.2,-15.9,0.0,0.0,0.0,0.0,0.0,0.0,0.5,0.75,0.0,0.0,0.0,0.25,1.0,0.02,-0.36,0.14,53.67,7.3,-71.8
2.44,0.0,0.0,0.75,0.25,0.0,0.0,0.25,0.0,0.25,0.5,0.5,0.0,1.0,-0.17,-0.36,-0.05,47.14,7.0,-38.4,0.0,0.0,0.0,0.0,0.0,0.0,0.5,0.75,0.0,0.0,0.0,0.25,1.0,-0.05,-0.17,0.14,32.61,7.3,-71.8
2.46,0.0,0.0,0.75,0.5,0.0,0.0,0.25,0.0,0.25,0.75,0.5,0.0,1.0,-0.17,-0.36,0.14,52.98,6.3,-34.4,0.0,0.0,0.0,0.0,0.0,0.0,0.5,0.75,0.0,0.0,0.0,0.25,1.0,0.14,-0.11,0.2,22.91,7.3,-71.8
2.48,1.0,0.0,0.75,0.25,0.0,0.0,0.25,0.0,0.25,0.5,0.5,0.0,0.5,-0.17,-0.3,0.2,56.59,16.6,4.3,0.0,0.0,0.0,0.0,0.0,0.0,0.5,0.75,0.0,0.0,0.0,0.5,0.75,0.2,-0.05,0.2,21.51,4.8,-71.7
2.5,0.5,0.0,0.75,0.5,0.0,0.0,0.25,0.0,0.0,0.5,0.5,0.0,0.5,-0.17,-0.17,0.33,56.7,14.5,-1.3,0.0,0.0,0.0,0.0,0.0,0.0,0.5,0.75,0.0,0.0,0.0,0.25,1.0,0.27,0.02,0.2,17.44,7.3,-71.8
2.52,1.0,0.0,0.5,1.0,0.0,0.0,0.25,0.0,0.0,0.5,0.5,0.0,0.5,-0.17,-0.11,0.27,59.92,15.7,13.5,0.0,0.0,0.0,0.5,0.0,0.5,1.0,1.25,0.25,1.25,0.5,1.25,1.75,0.39,-0.11,0.33,48.33,4.1,-59.8
2.54,0.0,0.0,0.75,0.5,0.0,0.0,0.25,0.0,0.0,0.5,0.5,0.0,1.0,-0.23,-0.11,0.39,57.5,7.5,-31.1,0.0,0.25,1.5,0.5,0.5,0.25,1.0,0.75,0.25,1.25,0.5,1.25,1.75,0.45,-0.23,0.39,83.44,-4.4,-32.1
2.56,1.5,0.0,0.75,0.25,0.0,0.0,0.25,0.0,0.0,0.75,0.0,0.25,0.5,-1.23,-4.36,0.89,60.84,17.2,15.2,0.0,0.0,1.5,0.0,0.5,0.0,1.0,0.75,0.25,1.25,0.5,0.0,1.75,0.45,-0.11,0.58,104.33,-3.3,-32.1
2.58,0.0,0.0,0.75,0.25,0.0,0.0,0.25,0.0,0.25,0.5,0.5,0.75,0.25,-0.98,-3.73,1.2,58.17,12.2,-37.9,0.0,0.0,0.0,0.5,0.0,1.0,0.75,1.0,0.25,1.25,0.75,1.25,1.75,2.58,-5.42,2.45,121.51,4.9,-56.7
2.6,1.5,0.0,0.75,0.25,0.0,0.0,0.25,0.0,0.25,0.5,0.5,0.25,1.0,-0.11,-1.36,-0.55,67.05,14.9,-4.2,0.0,0.0,1.25,0.0,0.0,0.0,1.0,0.75,0.0,0.0,0.0,0.75,1.0,1.58,-4.23,0.52,110.44,-10.4,-30.8
2.62,1.75,0.0,0.75,0.5,0.0,0.0,0.25,0.0,0.25,0.5,0.5,0.25,0.5,-0.3,-0.42,0.08,73.22,18.8,14.4,0.0,0.0,0.0,0.0,0.0,0.0,0.5,0.75,0.0,0.0,0.0,0.25,0.75,0.02,-0.98,-0.55,89.23,6.5,-67.0
2.64,2.25,0.0,0.0,0.25,0.0,0.0,0.25,0.0,0.0,0.5,0.5,0.25,1.0,-0.3,-0.17,0.52,78.59,14.2,1.9,0.0,0.0,0.0,0.0,0.0,0.0,0.5,0.75,0.0,0.0,0.0,0.25,0.75,0.83,-0.42,0.77,62.41,6.5,-67.0
2.66,2.0,0.0,0.75,0.25,0.0,0.0,0.25,0.0,0.0,0.5,0.5,0.5,1.25,-0.48,-0.17,0.58,84.45,15.1,-3.7,0.0,0.0,0.0,0.0,0.0,0.0,0.5,0.5,0.0,0.0,0.0,0.0,0.75,0.64,-0.42,0.7,42.43,7.4,-64.6
2.68,1.75,0.0,0.25,0.25,0.0,0.0,0.25,0.0,0.0,0.5,0.5,0.25,1.25,-0.48,-0.73,0.77,83.57,11.9,-10.2,0.0,0.0,0.0,0.0,0.0,0.0,0.5,0.75,0.0,0.0,0.0,0.25,0.75,0.45,0.08,0.45,31.17,6.5,-67.0
2.7,2.25,0.0,0.75,0.25,0.0,0.0,0.25,0.0,0.25,0.5,0.25,0.25,1.0,-0.48,-1.05,0.52,86.72,17.6,11.8,0.0,0.0,0.0,0.0,0.0,0.75,0.5,0.75,0.25,1.25,0.0,1.25,1.0,0.45,0.08,0.14,46.0,7.4,-64.3
2.72,2.25,0.0,0.75,0.5,0.0,0.0,0.25,0.0,0.0,0.5,0.0,0.25,0.5,-0.42,-1.05,0.39,85.26,21.6,34.4,0.0,0.0,0.5,0.5,0.0,1.0,0.5,0.75,0.25,0.25,0.25,0.5,1.0,0.64,-0.8,0.58,58.01,1.0,-27.3
2.74,2.0,0.0,0.75,0.25,0.0,0.0,0.25,0.0,0.25,0.5,0.5,0.25,0.5,-0.36,-0.86,0.2,86.05,19.7,16.0,0.0,0.0,1.5,0.5,0.5,0.75,1.0,0.75,0.25,0.0,0.5,1.25,1.75,0.58,-0.67,0.33,82.74,-5.6,-25.9
2.76,2.25,0.0,0.75,0.25,0.0,0.0,0.25,0.0,0.25,0.5,0.5,0.5,0.5,-0.36,-0.73,0.2,86.57,19.8,13.8,0.0,0.0,1.75,0.5,0.5,0.75,1.0,1.0,0.25,1.5,0.0,1.25,1.0,0.58,-0.55,0.39,102.33,-3.8,-22.2
2.78,2.25,0.0,0.75,0.25,0.0,0.0,0.25,0.0,0.25,0.5,0.5,0.25,0.75,-0.42,-0.61,0.33,88.9,18.7,13.6,0.0,0.0,1.25,0.5,0.25,1.0,1.0,1.0,0.25,1.5,0.75,1.5,1.75,0.58,-0.48,0.39,130.05,-1.0,-39.7
2.8,2.25,0.0,0.75,0.5,0.0,0.0,0.25,0.0,0.0,0.5,0.5,0.25,0.5,-0.42,-0.67,0.45,88.73,20.6,24.3,0.0,0.0,1.0,0.5,1.0,1.0,1.25,1.0,0.25,1.5,0.75,1.25,1.75,0.58,-0.55,0.52,149.99,0.0,-32.2
2.82,2.0,0.0,0.75,0.75,0.0,0.0,0.25,0.0,0.25,0.5,0.5,0.75,0.5,-0.42,-0.8,0.45,91.84,18.6,9.3,0.0,0.0,1.5,0.5,0.25,1.0,1.25,1.0,0.25,1.5,0.75,1.5,1.75,0.58,-0.61,0.58,164.22,-2.2,-36.5
2.84,2.0,0.0,0.75,0.25,0.0,0.0,0.25,0.0,0.0,0.5,0.5,0.25,0.5,-0.48,-0.86,0.39,87.1,20.0,18.9,0.0,0.0,2.0,0.5,1.0,0.5,1.0,1.0,0.25,1.5,0.75,1.25,1.75,0.64,-0.61,0.52,174.67,-4.0,-27.1
2.86,2.0,0.0,0.75,0.0,0.0,0.0,0.25,0.0,0.25,0.5,0.5,0.25,0.5,-0.48,-0.86,0.39,83.33,19.8,13.7,0.0,0.0,1.25,0.5,0.0,0.5,1.0,0.75,0.25,1.5,0.75,1.25,1.75,0.64,-0.61,0.45,170.85,-2.6,-44.6
2.88,2.0,0.0,0.75,0.75,0.0,0.0,0.25,0.0,0.0,0.5,0.5,0.25,0.5,-0.55,-0.8,0.45,82.23,19.8,22.7,0.0,0.0,1.75,0.5,0.0,1.0,1.0,1.0,0.25,1.5,0.75,1.25,1.75,0.58,-0.55,0.39,168.45,-2.8,-35.5
2.9,2.25,0.0,0.75,0.5,0.0,0.0,0.25,0.0,0.0,0.5,0.5,0.5,0.25,-0.61,-0.67,0.58,82.5,21.7,24.5,0.0,0.0,1.75,0.0,0.5,0.0,1.0,0.75,0.0,0.0,0.0,0.25,0.75,0.58,-0.55,0.39,138.99,-13.3,2.7
2.92,2.0,0.0,0.75,0.5,0.0,0.0,0.25,0.0,0.25,0.5,0.75,0.5,0.5,-0.61,-0.67,0.58,86.1,18.7,8.7,0.0,0.0,0.0,0.0,0.0,0.0,0.5,0.75,0.0,0.0,0.0,0.25,1.0,0.52,-0.61,0.33,100.28,7.3,-71.8
2.94,2.0,0.0,1.0,0.5,0.0,0.0,0.25,0.0,0.0,0.5,0.5,0.5,0.5,-0.55,-0.73,0.52,87.68,20.3,16.9,0.0,0.0,0.0,0.0,0.0,0.0,0.5,0.75,0.0,0.25,0.0,0.5,1.0,0.52,-0.61,0.33,63.74,6.6,-75.6
2.96,2.25,0.0,1.0,0.5,0.0,0.0,0.25,0.0,0.25,0.5,0.5,0.25,0.0,-0.55,-0.73,0.45,88.83,24.4,36.3,0.0,0.25,0.0,0.75,0.0,0.75,0.75,0.75,0.25,1.5,0.0,1.25,1.0,0.52,-0.61,0.39,63.1,3.4,-43.1
2.98,2.0,0.0,0.75,0.25,0.0,0.0,0.25,0.0,0.25,0.5,0.0,0.25,0.5,-0.48,-0.73,0.45,83.43,20.6,25.8,0.0,0.0,2.0,0.5,0.5,0.75,1.0,0.75,0.25,1.5,0.75,1.25,1.75,0.52,-0.61,0.39,86.72,-4.3,-29.8
3.0,2.25,0.0,1.0,0.5,0.0,0.0,0.25,0.0,0.0,0.5,0.5,0.25,0.5,-0.48,-0.73,0.39,83.98,21.4,26.0,0.0,0.0,1.0,0.5,0.5,0.75,1.0,0.75,0.25,1.5,0.5,1.25,1.75,0.52,-0.55,0.39,111.14,-0.4,-38.6
3.02,2.25,0.0,1.0,0.5,0.0,0.0,0.25,0.0,0.25,0.5,0.5,0.25,0.5,-0.55,-0.73,0.45,86.23,21.0,23.2,0.0,0.0,1.25,0.5,0.5,1.0,1.0,0.75,0.25,1.5,0.75,1.25,1.75,0.45,-0.61,0.39,131.53,-1.1,-35.3
3.04,2.25,0.0,0.75,0.25,0.0,0.0,0.25,0.0,0.25,0.5,0.5,0.25,0.5,-0.55,-0.73,0.39,87.18,20.3,19.7,0.25,0.0,1.5,0.0,0.5,1.5,1.0,0.75,0.25,1.5,0.5,1.5,1.75,0.45,-0.61,0.45,142.84,-0.8,-32.3
3.06,2.25,0.0,1.0,0.5,0.0,0.0,0.25,0.0,0.25,0.5,0.5,0.25,0.5,-0.55,-0.73,0.39,89.83,21.0,23.2,0.0,0.0,1.75,0.0,1.0,0.0,1.0,1.0,0.0,0.0,0.75,0.5,1.75,0.45,-0.61,0.45,135.77,-6.8,-21.6
3.08,2.25,0.0,0.75,0.75,0.0,0.0,0.25,0.0,0.25,0.5,0.5,0.25,0.5,-0.55,-0.73,0.39,92.34,20.1,23.1,0.0,0.0,0.0,0.0,0.0,0.0,0.5,0.75,0.0,0.0,0.0,0.5,1.0,0.52,-0.61,0.45,105.1,5.7,-75.6
3.1,2.25,0.0,1.0,0.25,0.0,0.0,0.25,0.0,0.25,0.5,0.5,0.25,0.5,-0.55,-0.73,0.39,91.85,21.2,21.6,0.0,0.0,0.0,0.0,0.0,0.0,0.5,0.75,0.0,0.0,0.0,0.25,1.0,0.52,-0.61,0.45,75.26,7.3,-71.8
3.12,2.25,0.0,0.75,0.5,0.0,0.0,0.25,0.0,0.0,0.5,0.5,0.25,0.5,-0.48,-0.73,0.39,89.29,20.6,24.3,0.0,0.0,0.0,0.0,0.0,0.0,0.5,0.75,0.0,0.25,0.0,0.25,1.0,0.52,-0.61,0.52,51.6,8.2,-72.2
3.14,2.25,0.0,0.75,0.0,0.0,0.0,0.25,0.0,0.25,0.5,0.5,0.25,0.5,-0.48,-0.73,0.39,85.92,20.5,17.7,0.0,0.0,0.0,0.0,0.0,0.0,0.5,0.75,0.0,0.0,0.0,0.25,1.25,0.52,-0.61,0.45,41.45,8.0,-75.7
3.16,2.25,0.0,0.75,0.0,0.0,0.0,0.25,0.0,0.5,0.5,0.75,0.25,0.5,-0.48,-0.73,0.45,84.84,19.7,11.0,0.0,0.0,0.0,0.0,0.0,0.0,0.75,0.75,0.0,0.0,0.0,0.25,1.0,0.52,-0.61,0.45,33.78,5.3,-66.9
3.18,2.25,0.0,1.0,0.0,0.0,0.0,0.25,0.0,0.25,0.5,0.75,0.5,0.5,-0.48,-0.73,0.45,86.14,20.4,10.1,0.0,0.0,0.0,0.5,0.0,0.25,0.5,0.75,0.25,0.75,0.0,0.5,1.0,0.52,-0.61,0.39,37.77,4.6,-51.0
3.2,2.25,0.0,1.0,0.5,0.0,0.0,0.25,0.0,0.25,0.5,0.5,0.75,0.5,-0.48,-0.73,0.45,91.41,20.0,12.7,0.0,0.0,0.5,0.5,0.0,0.25,1.0,0.75,0.0,1.5,0.75,0.75,1.5,0.52,-0.61,0.39,55.73,0.5,-52.1
3.22,2.25,0.0,0.75,0.25,0.0,0.0,0.25,0.0,0.25,0.5,0.5,1.0,0.5,-0.48,-0.73,0.45,93.87,18.9,3.6,0.0,0.0,0.25,0.5,0.0,0.0,1.0,0.75,0.25,2.0,0.5,0.5,1.5,0.52,-0.61,0.45,74.84,2.6,-57.7
3.24,2.25,0.0,0.75,0.25,0.0,0.0,0.25,0.0,0.25,0.5,0.5,1.25,0.5,-0.48,-0.73,0.52,95.7,18.5,-0.9,0.0,0.0,0.5,0.0,0.0,0.0,1.0,0.75,0.25,1.5,0.75,0.75,1.25,0.52,-0.61,0.45,90.89,0.1,-61.6
3.26,2.25,0.0,0.75,0.5,0.0,0.0,0.25,0.0,0.0,0.5,0.75,1.25,0.5,-0.48,-0.73,0.52,97.91,18.4,0.1,0.0,0.0,0.75,0.0,0.0,0.25,1.0,0.75,0.25,1.25,0.5,0.5,1.0,0.52,-0.61,0.39,95.25,-1.0,-46.8
3.28,2.25,0.0,0.75,0.5,0.0,0.0,0.25,0.0,0.25,0.5,0.5,1.0,0.5,-0.48,-0.73,0.52,99.21,18.8,5.8,0.0,0.0,0.5,0.0,0.0,0.0,1.0,0.75,0.25,0.0,0.75,0.25,1.25,0.52,-0.61,0.39,89.36,-4.2,-51.1
3.3,2.25,0.0,0.75,0.75,0.0,0.0,0.25,0.0,0.25,0.5,0.75,1.0,0.5,-0.48,-0.73,0.52,101.94,18.5,4.9,0.0,0.0,0.0,0.0,0.0,0.0,1.0,0.75,0.0,0.0,0.5,0.25,1.0,0.45,-0.61,0.45,77.63,1.2,-64.5
3.32,2.25,0.0,0.5,0.0,0.0,0.0,0.25,0.0,0.25,0.5,0.5,1.0,0.5,-0.48,-0.73,0.45,97.78,18.1,-1.6,0.0,0.0,0.0,0.0,0.0,0.0,0.5,0.75,0.0,0.5,0.0,0.5,1.0,0.52,-0.61,0.45,67.8,7.4,-75.6
3.34,2.25,0.0,1.0,0.5,0.0,0.0,0.25,0.0,0.25,0.5,0.5,0.75,0.5,-0.48,-0.73,0.45,98.55,20.0,12.7,0.0,0.0,0.0,0.0,0.0,0.0,1.0,0.75,0.25,0.25,0.5,0.75,1.0,0.45,-0.61,0.45,63.66,0.0,-69.2
3.36,2.25,0.0,0.75,0.75,0.0,0.0,0.25,0.0,0.25,0.5,0.5,0.75,0.5,-0.48,-0.73,0.45,97.89,19.2,12.6,0.0,0.0,0.0,0.0,0.0,0.0,0.75,0.75,0.0,0.0,0.0,0.25,1.0,0.45,-0.61,0.45,53.65,5.3,-66.9
3.38,2.25,0.0,0.75,0.5,0.0,0.0,0.25,0.0,0.25,0.5,0.5,0.25,0.5,-0.55,-0.73,0.45,95.74,20.2,21.5,0.0,0.0,0.25,0.5,0.5,0.0,1.0,0.75,0.25,0.0,0.75,0.25,1.5,0.52,-0.61,0.45,60.86,-2.2,-37.4
3.4,2.25,0.0,0.75,0.25,0.0,0.0,0.25,0.0,0.5,0.5,0.75,0.75,0.5,-0.55,-0.73,0.45,95.1,18.7,3.3,0.0,0.0,0.0,0.0,0.0,0.0,0.5,0.75,0.0,0.75,0.0,0.25,0.75,0.52,-0.61,0.45,53.8,9.0,-69.3
3.42,2.25,0.0,1.0,0.5,0.0,0.0,0.25,0.0,0.25,0.5,0.5,0.75,0.5,-0.55,-0.73,0.45,95.82,20.0,12.7,0.0,0.0,0.0,0.0,0.0,0.0,0.75,0.75,0.0,0.0,0.0,0.25,1.0,0.45,-0.61,0.45,46.41,5.3,-66.9
3.44,2.25,0.0,0.75,0.25,0.0,0.0,0.25,0.0,0.25,0.5,0.5,0.25,0.5,-0.48,-0.73,0.45,91.97,20.3,19.7,0.0,0.0,0.0,0.0,0.0,0.0,0.5,0.5,0.0,0.0,0.0,0.25,1.0,0.52,-0.61,0.45,34.54,6.2,-75.9
3.46,2.25,0.0,1.0,0.25,0.0,0.0,0.25,0.0,0.25,0.75,0.5,0.25,0.5,-0.48,-0.73,0.39,90.88,19.6,17.4,0.0,0.0,0.0,0.0,0.0,0.0,0.5,0.5,0.0,0.0,0.0,0.25,0.75,0.52,-0.61,0.45,28.96,5.1,-71.0
3.48,2.5,0.0,0.75,0.75,0.0,0.0,0.25,0.0,0.25,0.5,0.5,0.25,0.5,-0.48,-0.73,0.45,91.54,20.6,26.0,0.0,0.0,0.0,0.0,0.0,0.0,0.5,0.5,0.0,0.0,0.0,0.25,0.75,0.45,-0.61,0.45,24.54,5.1,-71.0
3.5,2.25,0.0,0.75,0.5,0.0,0.0,0.25,0.0,0.25,0.5,0.5,0.25,0.5,-0.48,-0.73,0.45,90.44,20.2,21.5,0.0,0.0,0.0,0.0,0.0,0.0,0.5,0.5,0.0,0.0,0.0,0.25,1.0,0.52,-0.61,0.45,25.73,6.2,-75.9
3.52,2.25,0.0,1.0,0.25,0.0,0.0,0.25,0.0,0.25,0.5,0.75,0.25,0.5,-0.48,-0.73,0.45,90.57,20.7,17.5,0.0,0.0,0.0,0.0,0.0,0.0,0.75,0.75,0.0,0.0,0.25,0.5,1.0,0.52,-0.61,0.45,33.46,2.7,-71.3
3.54,2.25,0.0,0.75,0.25,0.0,0.0,0.25,0.0,0.25,0.5,0.5,0.25,0.5,-0.48,-0.73,0.45,88.07,20.3,19.7,0.0,0.0,0.0,0.5,0.0,0.0,1.0,0.75,0.25,0.75,0.0,0.25,1.0,0.52,-0.61,0.45,44.81,2.1,-47.7
3.56,2.25,0.0,0.75,0.5,0.0,0.0,0.25,0.0,0.25,0.5,0.5,0.25,0.5,-0.55,-0.73,0.45,87.89,20.2,21.5,0.0,0.0,0.5,0.5,0.5,0.5,1.25,0.75,0.25,1.25,0.5,1.25,1.75,0.45,-0.61,0.45,77.65,0.2,-44.7
3.58,2.25,0.0,0.75,0.25,0.0,0.0,0.25,0.0,0.25,0.5,0.75,0.25,0.5,-0.48,-0.73,0.45,85.83,19.9,15.5,0.0,0.0,1.25,0.5,0.5,0.25,1.0,0.75,0.25,2.0,0.5,1.25,1.75,0.45,-0.67,0.45,110.68,-1.7,-41.5
3.6,2.25,0.0,0.75,0.25,0.0,0.0,0.25,0.0,0.25,0.5,0.5,0.25,0.5,-0.48,-0.73,0.45,85.19,20.3,19.7,0.0,0.0,1.25,0.5,0.5,0.5,1.0,0.75,0.25,1.75,0.5,1.0,1.75,0.45,-0.61,0.45,136.44,-1.4,-36.8
3.62,2.25,0.0,0.75,0.0,0.0,0.0,0.25,0.0,0.0,1.0,0.75,0.25,0.5,-0.48,-0.73,0.45,85.01,17.1,7.6,0.0,0.0,1.25,0.25,0.5,0.0,1.0,0.75,0.25,1.5,0.5,1.25,1.5,0.45,-0.61,0.45,145.02,-3.5,-42.6
3.64,2.25,0.0,0.75,0.5,0.0,0.0,0.25,0.0,0.25,0.5,0.5,0.25,0.5,-0.48,-0.73,0.39,85.32,20.2,21.5,0.0,0.0,1.0,0.5,0.5,0.75,1.0,0.75,0.25,1.5,0.5,1.5,1.5,0.45,-0.67,0.45,152.95,-1.0,-38.6
3.66,2.25,0.0,0.75,0.5,0.0,0.0,0.25,0.0,0.25,0.5,0.5,0.25,0.5,-0.48,-0.73,0.45,86.42,20.2,21.5,0.0,0.25,1.5,0.25,0.5,1.0,1.0,0.75,0.25,1.5,0.75,1.25,1.5,0.45,-0.67,0.45,156.55,-2.3,-29.9
3.68,2.25,0.0,0.75,0.25,0.0,0.0,0.25,0.0,0.25,0.5,0.5,0.25,0.5,-0.48,-0.73,0.45,86.16,20.3,19.7,0.0,0.0,1.25,0.5,0.5,0.5,1.0,0.75,0.0,1.75,0.5,1.25,1.75,0.45,-0.61,0.45,158.03,-1.3,-38.7
3.7,2.25,0.0,0.75,0.25,0.0,0.0,0.25,0.0,0.25,0.5,0.5,0.25,0.5,-0.48,-0.73,0.39,84.96,20.3,19.7,0.0,0.0,1.0,0.5,0.5,1.25,0.75,0.75,0.25,1.0,0.5,1.25,1.5,0.45,-0.61,0.45,155.56,-0.1,-31.6
3.72,2.25,0.0,0.75,0.5,0.0,0.0,0.25,0.0,0.25,0.5,0.5,0.25,0.5,-0.48,-0.73,0.39,85.47,20.2,21.5,0.0,0.25,1.0,0.5,0.5,0.25,1.0,0.75,0.25,1.5,0.75,1.0,1.5,0.45,-0.67,0.45,150.82,-2.5,-35.5
3.74,2.25,0.0,0.75,0.5,0.0,0.0,0.25,0.0,0.25,0.5,0.75,0.5,0.5,-0.55,-0.73,0.39,88.87,19.3,12.1,0.0,0.25,1.5,1.0,0.5,0.0,1.0,0.75,0.25,1.5,0.5,1.25,1.5,0.45,-0.67,0.45,147.4,-5.7,-27.9
3.76,2.25,0.0,0.75,0.5,0.0,0.0,0.25,0.0,0.5,0.5,0.5,0.5,0.5,-0.55,-0.73,0.45,92.0,19.4,13.6,0.25,0.0,1.25,0.5,0.5,0.5,0.75,0.75,0.25,1.75,0.5,1.25,1.75,0.45,-0.67,0.45,145.61,-2.0,-36.3
3.78,2.25,0.0,0.75,0.75,0.0,0.0,0.25,0.0,0.0,1.0,0.5,0.5,0.5,-0.55,-0.73,0.45,96.21,17.1,12.4,0.0,0.0,1.0,0.5,0.5,1.25,1.0,0.75,0.25,1.5,0.5,0.75,1.5,0.45,-0.67,0.45,140.67,0.8,-28.9
3.8,2.75,0.0,0.75,0.0,0.0,0.0,0.5,0.0,0.25,0.5,0.5,0.5,0.5,-0.55,-0.73,0.45,96.54,21.4,18.8,0.25,0.0,1.5,0.5,0.5,0.0,1.0,0.75,0.25,1.5,0.5,1.25,1.75,0.45,-0.61,0.45,137.53,-5.1,-35.3
3.82,2.25,0.0,0.75,0.75,0.0,0.0,0.25,0.0,0.25,0.5,0.5,0.5,0.5,-0.55,-0.73,0.45,97.35,19.6,17.6,0.0,0.0,1.25,0.5,0.5,0.25,1.0,0.75,0.25,2.25,0.5,1.0,1.75,0.45,-0.67,0.45,138.55,-1.1,-40.6
3.84,2.25,0.0,0.75,0.5,0.0,0.0,0.25,0.0,0.25,0.5,0.5,0.5,0.5,-0.55,-0.73,0.45,95.73,19.7,15.8,0.0,0.0,1.25,0.5,0.5,1.0,1.0,0.75,0.25,1.25,0.5,1.25,1.75,0.45,-0.67,0.39,139.96,-1.3,-33.2
3.86,2.25,0.0,0.75,0.25,0.0,0.0,0.25,0.0,0.25,0.5,0.5,0.5,0.5,-0.55,-0.73,0.45,93.06,19.8,13.8,0.25,0.0,1.5,0.5,0.5,0.25,1.0,0.75,0.25,1.5,0.5,1.25,1.75,0.45,-0.67,0.45,140.97,-4.4,-33.6
3.88,2.25,0.0,0.75,0.25,0.0,0.0,0.25,0.0,0.25,0.5,0.5,0.5,0.5,-0.48,-0.73,0.45,90.36,19.8,13.8,0.0,0.0,1.25,0.5,0.5,0.5,1.0,0.75,0.25,1.5,0.5,1.25,1.75,0.45,-0.67,0.45,140.22,-2.0,-37.7
3.9,2.25,0.0,0.75,0.5,0.0,0.0,0.25,0.0,0.25,0.5,0.5,0.25,0.5,-0.48,-0.73,0.39,89.07,20.2,21.5,0.0,0.0,1.5,0.5,0.5,0.25,1.0,0.75,0.25,1.25,0.5,1.0,1.5,0.45,-0.67,0.45,135.53,-4.6,-31.4
3.92,2.25,0.0,1.0,0.5,0.0,0.0,0.25,0.0,0.25,0.5,0.5,0.25,0.5,-0.48,-0.73,0.39,89.87,21.0,23.2,0.0,0.0,1.25,0.5,0.5,0.0,1.0,0.75,0.25,1.5,0.5,1.0,1.5,0.45,-0.67,0.39,130.85,-3.7,-37.4
3.94,2.25,0.0,0.75,1.0,0.0,0.0,0.25,0.0,0.25,1.0,0.5,0.25,0.5,-0.48,-0.73,0.39,94.47,17.2,17.0,0.0,0.25,1.5,0.5,0.5,0.0,1.0,0.75,0.25,1.5,0.5,1.25,1.5,0.45,-0.67,0.39,129.89,-5.1,-32.8
3.96,2.25,0.0,0.75,0.5,0.0,0.0,0.25,0.0,0.25,0.5,0.0,0.25,0.5,-0.55,-0.73,0.39,91.45,21.1,30.8,0.0,0.0,1.25,0.5,0.5,0.0,1.0,0.75,0.25,1.5,0.5,1.0,1.5,0.45,-0.67,0.45,126.93,-3.7,-37.4
3.98,2.25,0.0,0.75,0.5,0.0,0.0,0.25,0.0,0.25,0.5,0.5,0.25,0.5,-0.55,-0.73,0.45,90.29,20.2,21.5,0.25,0.0,1.5,0.5,0.5,0.0,1.0,0.75,0.25,2.0,0.5,1.25,1.5,0.45,-0.67,0.45,130.75,-4.5,-35.4
4.0,2.25,0.0,0.75,0.5,0.0,0.0,0.25,0.0,0.25,0.5,0.5,0.25,0.5,-0.55,-0.73,0.39,87.93,20.2,21.5,0.0,0.0,1.25,0.5,0.5,0.0,1.0,0.75,0.25,1.5,0.5,1.25,1.75,0.45,-0.67,0.45,131.83,-3.4,-41.6
4.02,2.25,0.0,0.75,0.25,0.0,0.0,0.25,0.0,0.25,0.5,0.5,0.25,0.5,-0.55,-0.73,0.39,86.11,20.3,19.7,0.0,0.0,1.25,0.25,0.5,0.25,1.0,0.75,0.25,2.0,0.5,1.0,1.75,0.45,-0.67,0.45,134.91,-1.1,-42.5
4.04,2.25,0.0,0.75,0.0,0.0,0.0,0.25,0.0,0.25,0.5,0.5,0.5,0.5,-0.55,-0.73,0.39,84.16,20.0,11.6,0.0,0.0,1.25,0.5,0.5,0.0,1.0,0.75,0.25,1.5,0.5,1.25,1.5,0.45,-0.67,0.45,132.25,-3.9,-39.5
4.06,2.25,0.0,0.75,0.25,0.0,0.0,0.25,0.0,0.25,0.5,0.5,0.25,0.5,-0.55,-0.73,0.45,83.57,20.3,19.7,0.0,0.0,1.25,0.5,0.5,0.0,1.0,0.75,0.25,1.5,0.5,1.25,1.5,0.45,-0.67,0.39,130.95,-3.9,-39.5
4.08,2.25,0.0,0.75,0.25,0.0,0.0,0.25,0.0,0.25,0.5,0.5,0.5,0.5,-0.48,-0.73,0.45,84.36,19.8,13.8,0.0,0.0,1.25,0.5,0.5,0.0,1.0,0.75,0.25,0.75,0.5,1.25,1.5,0.45,-0.67,0.45,125.23,-5.7,-36.1
4.1,2.25,0.0,0.75,0.25,0.0,0.0,0.25,0.0,0.25,0.5,0.5,0.75,0.5,-0.48,-0.73,0.45,86.12,19.3,8.5,0.0,0.0,1.25,0.5,0.5,0.0,1.0,0.75,0.25,1.5,0.5,1.5,1.75,0.45,-0.67,0.39,127.95,-3.5,-43.4
4.12,2.25,0.0,0.75,0.5,0.0,0.0,0.25,0.0,0.25,0.0,0.0,0.75,0.75,-0.48,-0.73,0.45,86.08,21.7,20.8,0.0,0.0,1.0,0.5,0.5,0.25,1.0,0.75,0.25,1.5,0.5,1.25,1.5,0.45,-0.67,0.45,128.15,-2.1,-40.5
