time,left pressure 0[N/cm²],left pressure 1[N/cm²],left pressure 2[N/cm²],left pressure 3[N/cm²],left pressure 4[N/cm²],left pressure 5[N/cm²],left pressure 6[N/cm²],left pressure 7[N/cm²],left pressure 8[N/cm²],left pressure 9[N/cm²],left pressure 10[N/cm²],left pressure 11[N/cm²],left pressure 12[N/cm²],left acceleration X[g],left acceleration Y[g],left acceleration Z[g],left total force[N],left center of pressure X[mm],left center of pressure Y[mm],right pressure 0[N/cm²],right pressure 1[N/cm²],right pressure 2[N/cm²],right pressure 3[N/cm²],right pressure 4[N/cm²],right pressure 5[N/cm²],right pressure 6[N/cm²],right pressure 7[N/cm²],right pressure 8[N/cm²],right pressure 9[N/cm²],right pressure 10[N/cm²],right pressure 11[N/cm²],right pressure 12[N/cm²],right acceleration X[g],right acceleration Y[g],right acceleration Z[g],right total force[N],right center of pressure X[mm],right center of pressure Y[mm]
0.02,0.0,0.0,1.25,1.25,0.0,0.0,0.0,0.0,0.0,0.75,0.0,0.0,0.5,0.95,3.64,0.89,46.62,13.7,10.6,4.5,1.75,8.0,9.75,10.5,7.75,6.25,3.0,0.25,0.75,1.25,0.25,0.25,0.08,0.2,1.02,806.35,-9.5,44.3
0.04,0.0,0.0,0.5,1.0,0.0,0.0,0.0,0.0,0.25,0.75,0.0,0.0,0.25,1.33,3.89,0.14,48.8,9.0,-0.8,5.5,2.0,9.25,11.5,12.0,7.25,7.5,3.25,0.0,0.75,1.25,0.25,1.25,0.02,0.2,1.02,935.98,-10.4,43.7
0.06,0.0,0.0,0.0,1.0,0.0,0.0,0.0,0.0,0.0,1.25,0.5,0.0,0.0,0.77,4.39,-0.86,49.78,1.2,-25.2,6.25,2.0,9.0,11.5,9.75,6.75,7.25,2.5,0.0,0.75,0.25,0.25,0.25,0.02,0.27,1.08,996.57,-12.3,50.1
0.08,0.25,0.0,0.0,0.5,0.0,0.0,0.0,0.0,0.0,2.25,1.25,0.75,0.0,0.39,-1.23,2.14,59.92,0.3,-58.4,7.0,2.5,9.5,11.5,9.5,5.25,7.5,1.5,0.0,0.75,0.25,0.5,0.25,0.02,0.33,1.27,1031.82,-14.4,52.6
0.1,0.0,0.0,0.0,0.0,0.0,0.0,0.0,0.0,0.0,2.75,1.75,2.75,0.0,-0.3,0.14,1.02,87.28,0.0,-88.5,7.0,2.0,9.25,9.75,8.75,3.0,7.75,1.5,0.25,0.0,0.25,0.5,0.25,0.08,0.33,1.39,973.78,-16.7,54.1
0.12,0.0,0.0,1.25,0.25,0.0,0.0,0.0,0.0,0.0,3.25,2.5,3.25,4.75,-0.17,0.33,2.02,154.64,-0.6,-79.9,8.0,2.25,9.5,8.5,8.0,3.0,7.75,1.5,0.25,1.5,1.0,0.5,1.0,0.2,0.45,1.77,925.71,-15.9,46.8
0.14,1.0,0.0,1.0,1.25,0.0,0.0,0.0,0.0,0.5,5.75,3.5,4.0,4.0,-0.42,0.2,1.39,229.82,1.2,-65.1,7.5,1.5,8.0,4.5,6.5,3.0,6.75,1.25,0.0,2.0,0.0,0.75,0.25,0.33,0.83,2.39,796.29,-15.9,48.0
0.16,1.75,0.0,1.0,0.5,0.0,0.0,0.0,0.0,0.25,0.0,4.75,2.0,4.25,-0.42,0.2,1.89,257.0,8.0,-55.7,7.0,1.5,5.75,4.0,5.5,2.75,5.75,1.25,0.25,2.0,1.25,1.0,1.25,0.58,1.02,2.33,682.94,-13.8,36.5
0.18,0.0,0.0,0.0,0.0,0.0,0.0,0.0,0.0,0.0,0.0,5.5,2.5,3.75,-0.11,0.14,1.14,257.85,2.2,-94.2,3.75,0.25,3.75,1.5,4.5,0.5,3.75,1.5,0.0,0.5,1.0,0.25,0.0,0.39,0.7,2.52,476.89,-15.6,42.3
0.2,0.0,0.0,0.0,1.25,0.0,0.0,0.0,3.25,0.0,6.25,5.75,2.5,4.0,-0.17,0.08,0.95,285.82,-4.5,-72.5,0.75,0.0,0.25,0.5,1.75,0.0,1.25,1.5,0.0,0.75,0.25,0.25,0.25,0.7,0.02,2.45,281.07,-2.8,7.1
0.22,0.0,0.0,0.0,0.5,0.0,0.0,0.0,3.5,1.5,6.5,5.75,2.25,4.25,-0.17,0.08,0.95,320.57,-4.7,-74.4,0.25,0.0,2.75,0.0,3.25,0.5,0.5,0.0,0.0,0.25,0.0,0.0,0.25,0.52,-0.92,1.27,146.79,-11.6,46.2
0.24,0.0,0.0,0.0,0.75,0.0,0.0,0.25,4.25,1.5,6.25,5.5,2.0,3.0,-0.17,0.08,0.95,354.41,-4.3,-68.9,0.0,0.0,0.5,0.25,1.25,0.5,0.5,0.0,0.0,0.0,0.25,0.25,0.25,1.08,-1.11,1.52,14.7,-4.8,19.7
0.26,0.0,0.0,0.0,2.0,0.0,0.0,0.75,4.75,1.5,7.0,6.5,2.75,5.0,-0.11,0.08,0.95,406.21,-3.4,-66.3,0.0,0.0,0.5,0.25,0.5,0.5,0.0,0.0,0.0,0.0,0.25,0.25,0.25,0.58,-1.36,1.64,0.0,-4.9,7.6
0.28,0.0,0.0,0.0,2.0,0.0,0.0,0.5,4.5,1.25,6.25,5.75,2.25,3.0,-0.17,0.08,0.95,418.56,-3.0,-62.3,0.0,0.0,1.25,0.25,1.5,0.5,0.0,0.0,0.0,0.0,0.0,0.0,0.25,0.33,-0.48,0.95,0.0,-8.4,43.4
0.3,0.0,0.0,0.0,1.75,0.0,0.5,0.5,4.5,1.5,5.25,4.5,1.75,2.5,-0.17,0.08,0.95,396.32,-3.7,-58.0,0.0,0.0,1.25,0.5,0.25,0.5,0.0,1.0,0.0,0.0,0.0,0.25,0.25,0.45,-0.36,0.27,0.0,-6.9,11.2
0.32,0.0,0.25,0.0,2.0,0.0,0.5,0.75,4.5,0.75,4.5,4.5,1.25,2.5,-0.17,0.08,0.95,358.06,-3.5,-53.0,0.0,0.0,0.5,0.75,1.25,0.5,0.5,1.25,0.0,0.0,0.0,0.0,0.25,0.33,-0.23,0.45,0.0,-0.1,20.1
0.34,0.0,0.25,0.0,2.5,0.0,1.5,0.75,4.5,0.0,3.75,3.5,1.25,2.25,-0.17,0.08,0.95,319.15,-4.5,-43.7,0.0,0.0,0.25,0.5,0.5,0.5,0.0,1.0,0.0,0.0,0.0,0.0,0.75,0.02,-0.23,1.02,0.0,5.8,-8.4
0.36,0.0,0.5,0.0,2.5,0.0,2.25,0.75,4.5,0.0,3.0,3.0,0.25,1.25,-0.11,0.08,0.95,277.4,-5.2,-28.7,0.0,0.0,0.5,0.25,1.0,0.5,0.0,0.75,0.0,0.0,0.0,0.25,0.25,-0.17,-0.17,1.08,0.0,1.1,10.9
0.38,0.0,1.0,0.0,2.5,0.0,2.5,0.75,4.25,0.0,2.25,2.25,0.25,1.25,-0.11,0.08,0.95,249.83,-5.0,-19.5,0.0,0.0,0.25,0.0,2.25,0.5,0.0,0.5,0.0,0.5,0.0,0.25,0.25,-0.17,-0.05,1.14,0.0,5.6,12.0
0.4,0.0,0.75,0.0,3.0,0.0,3.25,1.0,3.25,0.0,2.25,1.75,0.25,1.0,-0.17,0.14,0.95,230.88,-4.6,-11.8,0.0,0.0,0.0,0.0,0.25,0.5,0.0,0.75,0.0,0.0,0.0,0.25,0.25,-0.23,0.08,1.33,4.58,12.7,-26.3
0.42,0.5,0.5,0.0,3.5,0.0,3.0,1.0,3.5,0.0,2.25,2.0,0.25,1.0,-0.17,0.14,0.95,216.2,-2.8,-10.2,0.0,0.0,0.25,0.5,1.0,0.5,0.0,1.25,0.0,0.25,0.25,0.0,0.25,-0.3,0.14,1.52,37.36,4.8,2.3
0.44,1.5,0.75,0.0,3.75,0.25,4.0,1.0,3.25,0.75,1.75,1.75,0.25,0.25,-0.11,0.14,0.95,213.84,0.0,6.9,0.0,0.0,0.25,0.0,0.5,0.5,0.0,0.75,0.0,0.0,0.0,0.0,0.25,-0.23,0.27,1.83,42.61,8.1,2.3
0.46,3.5,1.0,0.25,4.25,3.25,4.5,1.25,3.5,0.75,2.0,1.5,0.25,1.0,-0.11,0.14,0.95,257.82,1.7,18.5,1.0,1.0,0.25,1.25,0.0,1.25,0.25,1.5,0.25,1.5,0.75,0.75,1.0,-0.17,0.39,2.39,83.5,-0.9,-9.6
0.48,0.0,1.25,1.5,6.0,4.75,4.5,1.5,3.5,0.75,2.0,1.5,0.25,1.0,-0.11,0.14,0.95,303.38,0.4,16.7,0.75,1.0,0.75,1.25,3.0,0.5,0.5,1.5,0.25,1.0,1.25,0.75,1.25,0.02,0.7,2.77,136.25,-2.8,3.1
0.5,0.0,1.25,3.25,6.25,5.0,5.25,2.0,3.25,0.75,2.0,1.5,0.25,1.0,-0.11,0.14,0.95,366.78,2.6,20.8,0.75,1.0,1.0,1.25,2.25,1.0,0.25,1.5,0.25,1.0,1.0,0.75,1.25,0.14,1.27,3.08,180.16,-2.5,3.2
0.52,0.0,1.25,0.0,8.0,5.75,5.75,2.25,3.25,0.5,2.0,1.5,0.25,1.0,-0.11,0.14,1.02,417.65,-0.8,20.3,0.75,1.0,0.5,1.25,3.5,1.0,0.5,1.5,0.25,1.25,1.0,0.75,1.0,-0.05,1.89,2.27,208.87,-0.9,7.1
0.54,0.0,1.75,0.0,8.5,5.75,5.75,2.75,3.25,0.5,2.0,1.25,0.25,1.0,-0.11,0.2,1.02,461.3,-0.1,22.9,0.0,0.0,0.5,0.0,3.25,0.5,0.5,1.0,0.0,0.75,0.25,0.25,0.0,-0.92,2.77,1.33,194.31,2.6,15.8
0.56,0.0,1.75,0.0,9.0,0.0,5.75,3.25,2.5,0.5,2.0,1.25,0.25,1.0,-0.17,0.2,1.08,441.7,1.7,17.6,1.0,1.0,1.0,1.25,3.25,1.25,0.5,1.5,0.25,1.25,1.0,0.75,1.0,-1.86,3.64,0.2,207.04,-2.4,9.8
0.58,0.0,1.5,0.0,9.0,0.0,5.0,3.5,1.75,0.0,1.25,0.75,0.25,1.0,-0.17,0.2,1.02,400.72,3.3,24.5,0.0,0.0,0.5,0.0,2.5,0.25,0.5,1.5,0.25,0.5,1.0,0.0,1.0,-2.05,3.95,-0.11,182.33,2.6,-11.1
0.6,0.0,2.0,0.0,10.5,0.0,4.25,4.0,1.5,0.25,0.5,0.0,0.0,1.0,-0.23,0.2,1.14,364.9,6.3,36.4,0.0,0.0,0.25,0.0,1.5,0.5,0.0,0.75,0.0,0.25,0.5,0.25,0.0,-2.42,3.58,-0.92,151.86,3.7,3.0
0.62,0.0,2.25,7.75,10.5,0.0,0.0,4.25,1.5,0.25,0.0,0.0,0.25,0.0,-0.23,0.27,1.2,356.18,22.5,51.8,0.0,0.0,0.25,0.0,1.0,0.5,0.0,1.0,0.0,2.25,1.0,1.0,0.25,0.08,0.2,1.95,126.85,5.5,-44.2
0.64,7.5,0.75,8.0,9.25,0.0,0.0,4.25,1.5,0.0,0.5,0.0,0.0,0.0,-0.3,0.33,1.58,379.19,25.8,60.0,0.0,0.0,0.0,0.0,0.0,0.5,0.0,1.5,0.0,5.0,1.5,3.0,1.25,0.58,0.08,0.89,147.36,7.0,-78.6
0.66,7.75,0.0,7.75,7.75,0.0,0.0,4.5,1.5,0.0,0.5,0.0,0.0,0.0,-0.48,0.39,1.95,394.2,26.7,59.2,0.75,1.0,0.5,0.25,2.5,0.5,0.0,2.5,0.25,7.75,5.75,4.75,4.75,-0.8,0.64,2.7,246.98,2.6,-56.4
0.68,8.0,0.0,7.0,4.75,0.0,0.0,3.75,1.5,0.0,0.5,0.5,0.25,0.0,-0.48,0.64,2.45,385.01,27.1,55.7,0.0,0.0,0.25,0.0,0.25,0.25,0.0,3.5,0.0,7.5,5.75,3.5,4.0,0.83,0.52,3.33,311.44,5.5,-76.8
0.7,7.0,0.0,5.25,2.75,0.0,0.0,2.75,1.5,0.0,1.0,0.0,0.0,0.0,-0.92,1.08,2.89,335.48,26.1,55.7,0.5,0.0,0.0,1.0,2.5,3.0,0.0,4.0,1.0,7.75,6.5,3.75,3.75,-0.17,0.2,0.95,405.17,4.9,-51.0
0.72,0.0,0.0,3.0,1.75,0.0,0.0,1.0,0.0,0.0,0.0,0.0,0.0,0.0,-0.67,0.39,3.02,240.71,30.6,56.9,0.0,0.25,0.25,1.25,2.5,3.0,0.5,5.25,1.0,8.25,8.25,3.75,4.25,0.08,0.14,0.95,494.39,4.6,-51.6
0.74,0.0,0.0,2.75,0.0,0.0,0.0,4.25,0.0,0.0,0.0,0.0,0.25,0.0,-0.86,-0.36,2.83,148.82,34.5,39.3,0.0,0.0,0.5,1.25,1.25,3.25,1.5,5.5,1.0,8.25,8.0,3.75,4.25,0.08,0.14,0.95,567.89,4.3,-54.2
0.76,4.75,0.0,0.0,0.0,0.0,0.0,3.0,0.0,0.0,0.0,1.25,0.0,0.0,-0.36,-1.05,1.64,84.48,30.3,53.9,0.25,0.0,0.5,1.25,2.75,4.25,2.5,6.0,1.25,8.25,8.75,3.75,4.0,0.08,0.08,0.89,630.41,3.7,-45.8
0.78,1.75,0.0,0.0,1.25,0.0,0.0,3.75,0.0,2.25,1.0,0.0,0.0,0.0,-0.73,-2.36,2.27,61.32,18.7,15.5,2.0,1.25,0.75,2.75,3.25,5.25,2.5,5.75,1.5,8.5,8.0,4.25,4.0,0.08,0.08,0.95,708.18,1.5,-30.8
0.8,1.5,0.0,0.75,0.25,0.0,0.0,0.0,0.0,0.0,0.5,0.0,0.0,0.0,-0.36,-0.92,1.39,34.84,25.6,55.0,1.5,1.25,3.0,4.0,4.75,6.0,3.25,6.25,1.5,7.75,7.75,3.75,4.25,0.08,0.08,0.95,792.59,0.0,-20.7
0.82,1.5,0.0,1.0,0.5,0.0,0.0,0.25,0.0,0.0,0.0,0.0,0.0,0.0,-0.42,-0.55,0.45,16.26,32.9,75.9,2.0,1.5,3.25,4.0,5.5,6.25,3.75,6.25,1.5,7.25,7.0,3.0,4.0,0.08,0.08,0.95,865.07,-0.5,-14.2
0.84,2.5,0.0,0.25,1.0,0.0,0.0,0.0,0.0,0.0,0.0,0.0,0.0,0.0,-0.55,-0.36,0.33,0.0,30.1,83.7,2.0,1.75,3.25,4.0,6.25,6.25,3.75,6.25,1.0,6.25,5.75,2.5,2.25,0.08,0.08,0.95,884.7,-0.9,-5.0
0.86,1.75,0.0,1.25,1.5,0.0,0.0,0.25,0.0,0.0,0.25,0.0,0.0,0.0,-0.48,-0.3,0.64,0.0,27.4,64.5,2.0,1.75,3.25,4.0,6.25,6.25,3.75,6.0,1.0,5.25,5.25,2.25,2.25,0.14,0.08,0.95,853.44,-1.2,-2.1
0.88,2.0,0.0,0.25,1.5,0.0,0.0,0.5,0.0,0.0,0.5,0.0,0.0,0.0,-0.36,-0.3,1.08,3.22,23.0,58.2,1.75,1.75,3.0,4.0,6.25,6.5,3.75,5.75,1.0,4.25,3.0,1.5,1.75,0.08,0.08,0.95,775.82,-0.7,5.8
0.9,2.0,0.0,0.25,1.25,0.0,0.0,0.0,0.0,0.0,0.5,0.0,0.0,0.25,-0.3,-0.05,1.27,23.1,20.5,49.6,2.0,1.75,3.0,4.0,6.5,6.75,3.5,5.5,1.0,3.75,3.0,1.0,1.75,0.08,0.08,0.95,704.49,-0.9,9.3
0.92,1.0,0.0,1.0,0.5,0.0,0.0,0.0,0.0,0.0,0.5,0.0,0.0,0.0,-0.3,0.2,1.33,32.51,24.5,49.1,2.0,1.75,3.25,4.0,7.0,7.0,3.75,5.5,0.75,2.25,2.75,1.0,1.75,0.08,0.14,0.95,660.68,-1.5,14.3
0.94,1.25,0.0,0.5,0.5,0.0,0.0,0.0,0.0,0.0,0.5,0.0,0.0,0.0,-0.36,0.33,1.45,39.04,22.8,51.0,0.75,1.0,2.25,4.0,6.25,6.75,3.75,4.75,0.25,1.0,1.5,0.5,0.5,0.08,0.14,0.95,568.18,-0.2,22.3
0.96,0.0,0.0,1.25,0.5,0.0,0.0,0.0,0.0,0.0,0.5,0.0,0.0,0.0,-0.36,0.45,1.7,41.1,21.8,30.7,1.0,1.0,2.75,4.0,7.0,6.75,4.25,4.75,0.25,1.0,1.0,0.25,0.25,0.08,0.14,0.95,503.46,-1.0,27.8
0.98,1.75,0.0,0.25,0.5,0.0,0.0,0.0,0.0,0.0,0.5,0.0,0.0,0.0,-0.42,0.64,1.83,38.51,23.3,57.6,1.0,1.0,3.25,5.0,7.0,7.0,4.75,4.0,0.0,1.0,1.0,0.25,0.5,0.08,0.14,0.95,462.13,-2.4,30.1
1.0,0.0,0.0,0.25,1.25,0.0,0.0,0.0,0.0,0.0,1.0,0.25,0.0,0.25,-0.61,0.7,2.64,37.12,5.1,-9.9,1.5,1.0,5.0,6.0,8.0,7.25,5.5,4.25,0.0,0.75,1.25,0.25,0.25,0.08,0.14,0.95,474.44,-4.9,34.3
1.02,2.0,0.0,1.25,0.5,0.0,0.0,0.0,0.0,0.0,0.5,0.5,0.0,0.0,-0.73,1.77,3.02,51.75,25.9,46.6,2.25,1.25,5.5,6.75,8.0,7.5,6.0,4.75,0.0,1.0,0.75,0.5,0.5,0.02,0.14,0.95,518.25,-5.5,34.5
1.04,0.0,0.0,1.25,1.0,0.0,0.0,0.0,0.0,0.0,0.5,0.5,0.0,0.0,-0.55,2.64,2.33,57.1,19.4,19.5,3.0,1.25,6.75,7.75,8.75,7.75,6.5,4.25,0.0,0.75,0.25,0.25,0.0,0.02,0.14,0.95,590.78,-7.5,42.1
1.06,0.0,0.0,1.5,0.5,0.0,0.0,0.0,0.0,0.0,0.75,0.25,0.0,0.0,0.14,2.77,1.77,56.14,19.2,16.2,3.75,1.75,7.25,8.75,9.25,7.75,7.0,4.25,0.0,0.75,1.0,0.25,0.25,0.08,0.14,0.95,682.72,-8.4,41.6
1.08,2.0,0.0,1.25,1.25,0.0,0.0,0.0,0.0,0.0,0.5,0.0,0.0,0.0,0.7,2.83,1.02,63.48,26.0,60.3,5.0,1.75,8.0,9.5,9.25,7.75,7.25,3.75,0.0,0.75,0.75,0.25,0.25,0.08,0.14,1.02,773.94,-9.9,44.6
1.1,1.25,0.0,1.0,1.5,0.0,0.0,0.0,0.0,0.0,0.5,0.0,0.0,0.0,0.64,3.52,0.08,68.1,23.2,53.9,5.75,1.75,8.75,10.5,9.75,7.25,7.0,2.5,0.25,0.75,0.75,0.25,0.25,0.08,0.2,1.08,856.85,-11.5,47.6
1.12,0.0,0.0,1.25,0.5,0.0,0.0,0.0,0.0,0.0,0.5,0.0,0.0,0.0,0.58,3.39,-0.11,62.2,21.8,30.7,6.25,1.75,9.5,11.5,9.5,6.5,7.75,2.75,0.25,0.25,0.25,0.5,0.25,0.02,0.2,1.02,925.63,-12.9,49.6
1.14,0.25,0.0,1.25,0.0,0.0,0.0,0.0,0.0,0.0,0.5,0.0,0.0,0.0,0.27,4.39,3.14,52.28,24.5,31.4,7.0,1.75,9.5,11.5,9.25,6.0,7.5,2.0,0.0,0.25,1.25,0.25,0.25,0.02,0.27,0.95,966.81,-14.0,50.5
1.16,2.0,0.0,1.25,0.5,0.0,0.0,0.0,0.0,0.0,1.5,0.5,0.0,0.0,0.14,1.39,1.7,63.02,18.5,25.0,7.0,1.5,10.5,11.5,9.0,4.25,7.25,1.5,0.0,0.25,0.0,0.25,0.0,0.02,0.27,1.27,966.3,-16.3,55.7
1.18,2.0,0.0,0.25,1.0,0.0,0.0,0.25,0.0,0.0,3.75,2.25,3.75,0.0,-0.48,0.2,1.2,110.45,7.3,-45.9,7.0,1.75,10.5,9.5,8.0,2.75,7.5,1.0,0.25,0.25,0.25,0.25,0.25,0.08,0.33,1.39,922.1,-18.0,55.4
1.2,0.0,0.0,0.0,0.25,0.0,0.0,0.0,0.0,0.0,4.25,2.25,1.25,5.0,-0.17,0.45,2.39,162.78,-7.5,-89.6,7.5,1.25,9.25,6.75,6.5,0.5,7.25,1.25,0.0,0.5,0.0,0.75,0.25,0.14,0.45,1.95,804.84,-20.4,54.2
1.22,0.0,0.0,0.0,0.0,0.0,0.0,0.0,0.0,0.0,5.75,4.75,0.0,5.5,-0.11,0.33,2.14,216.92,-7.3,-87.6,8.0,2.0,8.25,4.25,4.5,0.5,7.0,2.0,0.0,0.75,1.25,0.5,1.25,0.33,0.83,2.27,686.67,-19.4,44.9
1.24,0.75,0.0,0.0,1.25,0.0,0.0,0.0,0.5,0.5,0.0,5.75,2.5,5.0,-0.73,0.27,1.7,247.8,3.4,-71.1,7.0,1.25,5.5,4.0,4.5,2.0,5.75,1.25,0.0,1.75,1.0,1.0,0.75,0.58,1.2,2.33,565.87,-15.7,39.8
1.26,0.0,0.0,0.0,1.0,0.0,0.0,0.0,2.75,0.0,0.0,6.5,0.0,5.0,-0.17,0.14,1.2,260.42,-2.0,-71.3,3.5,0.25,4.75,1.25,4.5,0.5,4.25,1.25,0.0,0.5,0.0,0.25,0.5,0.33,0.7,2.77,409.01,-16.6,45.1
1.28,0.0,0.0,0.0,0.5,0.0,0.0,0.0,3.75,0.75,7.0,0.0,0.0,5.0,-0.17,0.14,1.02,270.58,-13.1,-72.1,0.5,0.0,1.75,0.25,1.5,2.0,1.5,0.5,0.0,0.25,0.0,0.25,0.75,0.7,-0.23,2.33,261.72,-5.0,22.8
1.3,0.0,0.0,0.0,1.0,0.0,0.0,0.25,4.5,1.25,7.75,6.5,2.75,5.0,-0.17,0.08,0.95,327.12,-4.8,-72.3,0.75,0.0,3.0,0.0,4.5,0.5,0.5,0.25,0.0,0.5,0.25,0.0,0.25,0.45,-0.61,1.02,156.48,-9.9,42.3
1.32,0.0,0.0,0.0,0.5,0.0,0.75,0.0,4.75,0.75,7.0,6.25,2.5,5.0,-0.17,0.08,0.95,378.37,-6.2,-72.3,0.5,0.0,0.5,0.25,0.25,0.5,0.5,0.0,0.0,0.0,0.25,0.0,0.25,1.02,-1.11,1.58,31.05,-12.9,30.5
1.34,0.0,0.5,1.25,2.25,0.0,1.25,0.25,5.0,0.5,6.25,5.75,2.25,3.5,-0.11,0.08,0.95,425.76,-2.5,-50.2,0.5,0.0,0.5,1.0,1.0,0.5,0.0,0.0,0.0,0.5,0.25,0.25,0.25,0.58,-1.11,1.52,0.0,-6.7,21.2
1.36,0.0,0.0,0.0,0.75,0.0,1.25,0.25,4.75,0.75,4.75,4.5,0.5,2.5,-0.17,0.08,0.95,397.58,-7.0,-58.1,0.0,0.0,0.5,0.5,0.5,0.5,0.0,0.25,0.0,0.25,0.25,0.0,0.5,0.33,-0.42,0.58,0.0,-1.0,1.6
1.38,0.0,0.0,0.0,0.5,0.0,2.5,0.25,4.5,0.0,4.0,3.0,0.25,1.5,-0.17,0.08,0.95,342.26,-10.3,-48.0,0.0,0.0,0.25,0.5,0.25,0.5,0.25,0.5,0.0,0.25,0.0,0.0,0.25,0.39,-0.36,0.39,0.0,1.8,5.3
1.4,0.0,0.5,0.0,2.25,0.0,3.0,0.25,4.5,0.25,3.0,3.0,0.5,1.25,-0.17,0.08,0.95,287.94,-6.3,-29.4,0.0,0.0,0.5,0.5,0.25,0.5,0.5,0.5,0.0,0.25,0.0,0.25,0.25,0.2,-0.42,0.58,0.0,-3.3,1.8
1.42,0.0,0.75,0.0,0.5,0.0,3.25,0.25,4.5,0.0,4.0,2.75,0.25,1.25,-0.17,0.08,0.95,255.79,-10.0,-36.7,0.0,0.0,0.5,0.5,0.5,0.5,0.5,0.5,0.0,0.0,0.0,0.25,0.25,-0.17,-0.36,1.02,0.0,-4.2,12.1
1.44,0.0,0.75,0.0,2.5,0.0,4.0,0.5,4.5,0.25,3.75,2.5,0.25,1.25,-0.17,0.08,0.95,249.0,-7.2,-22.9,0.0,0.0,0.5,0.0,0.5,0.5,0.5,0.0,0.0,0.25,0.25,0.75,0.0,-0.36,-0.23,1.14,0.0,-6.5,-11.1
1.46,1.25,1.0,0.0,2.5,0.0,4.5,0.25,4.5,0.0,3.0,2.25,0.0,1.25,-0.11,0.08,0.95,251.23,-5.5,-9.4,0.0,0.0,0.25,0.0,0.25,0.5,0.0,0.25,0.0,0.25,0.0,0.0,0.0,-0.36,0.08,1.08,0.0,6.6,12.3
1.48,1.25,0.75,0.0,2.25,0.0,4.0,0.5,4.5,0.25,3.0,2.25,0.25,1.25,-0.17,0.14,0.95,255.22,-5.0,-14.2,0.0,0.0,0.25,0.0,0.25,0.5,0.0,0.25,0.0,0.0,0.0,0.25,0.5,-0.36,0.2,1.08,0.0,5.3,-22.7
1.5,1.75,1.0,0.0,2.5,0.0,5.25,0.5,4.75,0.75,2.25,2.0,0.25,1.25,-0.17,0.14,0.95,261.91,-4.1,-4.9,1.0,1.0,0.25,1.25,0.5,1.0,0.0,1.25,0.25,1.5,0.25,1.0,0.25,-0.42,0.39,1.52,44.08,-2.1,2.2
1.52,2.0,1.0,0.0,2.5,0.0,5.5,0.5,4.75,0.5,2.75,2.0,0.25,1.0,-0.17,0.14,0.95,267.38,-4.3,-3.4,1.25,1.0,1.25,1.25,3.75,1.0,0.0,1.25,0.25,1.25,0.0,0.75,0.75,-0.42,0.52,1.7,120.21,-3.3,22.0
1.54,1.0,1.0,0.0,2.5,0.75,5.75,0.5,5.0,0.5,2.5,2.0,0.25,1.0,-0.17,0.14,0.95,272.98,-6.1,-4.7,1.0,1.0,1.0,1.25,3.75,0.75,0.25,1.5,0.25,1.5,0.75,0.75,1.25,-0.3,0.7,1.64,180.77,-2.0,8.5
1.56,0.0,1.0,0.0,2.5,2.0,6.0,0.5,5.0,0.5,2.5,1.75,0.0,1.0,-0.17,0.14,0.95,285.02,-8.1,-2.9,1.0,1.0,1.25,1.25,3.75,0.5,0.5,1.5,0.25,1.5,1.0,0.75,0.75,-0.17,0.89,1.64,223.97,-3.9,11.8
1.58,0.0,1.0,0.0,2.5,2.25,6.75,0.5,4.75,0.75,2.25,1.5,0.25,1.0,-0.17,0.14,0.95,297.87,-8.1,-0.6,1.25,1.0,1.5,1.25,3.75,0.5,0.5,1.5,0.25,1.5,0.75,0.75,1.0,-0.05,1.08,1.64,244.22,-4.5,13.2
1.6,2.0,1.0,0.0,3.0,3.25,7.25,0.5,4.75,0.5,2.0,1.5,0.25,1.0,-0.17,0.14,0.95,329.79,-4.8,11.3,1.75,1.0,1.25,1.25,3.75,1.0,0.5,1.75,0.25,1.5,1.25,0.75,1.25,0.14,1.27,1.64,259.47,-3.7,10.3
1.62,1.75,1.0,0.0,3.0,5.0,7.5,0.5,4.5,0.5,2.0,1.5,0.25,1.0,-0.17,0.14,0.95,361.73,-5.1,14.2,1.0,1.0,1.25,1.25,3.75,1.25,0.5,1.5,0.25,1.0,1.25,0.75,1.25,0.27,1.45,1.58,263.41,-2.9,10.3
1.64,3.5,1.25,0.0,3.25,5.0,6.75,0.5,4.5,0.0,1.25,1.25,0.0,1.0,-0.17,0.14,1.02,386.99,-2.2,24.8,1.25,1.0,1.25,1.25,3.0,1.0,0.5,1.5,0.25,1.25,1.0,0.75,1.0,0.2,1.58,1.39,261.04,-4.0,10.8
1.66,0.0,0.75,0.0,2.5,5.0,6.75,0.5,4.5,0.0,1.0,0.75,0.25,0.0,-0.17,0.14,0.95,372.65,-8.2,19.2,0.75,1.0,0.5,1.25,3.25,0.75,0.5,1.5,0.25,1.0,1.0,0.75,1.0,-0.05,1.45,1.14,249.07,-1.7,7.1
1.68,0.0,1.25,0.0,4.0,6.0,6.75,0.5,3.25,0.0,0.75,0.25,0.0,0.0,-0.17,0.14,1.02,357.67,-5.8,32.8,1.0,1.0,1.25,1.25,3.75,0.5,0.5,1.0,0.25,1.25,0.25,0.75,1.25,-0.42,1.39,0.77,239.26,-4.0,15.1
1.7,0.0,1.0,0.0,6.0,3.5,7.0,1.0,3.25,0.0,1.0,0.75,0.0,1.0,-0.17,0.2,1.02,343.17,-4.2,22.5,1.0,1.0,1.25,1.25,3.25,1.0,0.5,1.5,0.25,1.5,1.0,0.75,0.75,-0.86,1.52,0.33,232.33,-3.4,10.9
1.72,2.25,2.0,0.25,6.25,3.5,6.0,0.5,3.25,0.0,0.25,0.0,0.0,0.0,-0.17,0.2,1.02,342.59,1.1,44.0,1.0,1.0,0.5,1.25,3.5,1.0,0.75,1.5,0.25,1.5,1.0,0.75,1.0,-0.42,1.52,0.02,226.16,-1.4,7.2
1.74,0.0,2.0,0.0,6.75,0.0,5.5,1.0,1.5,0.0,0.75,0.0,0.0,0.0,-0.17,0.2,1.02,306.92,0.4,40.3,1.0,0.75,0.75,1.25,3.75,1.0,0.5,1.0,0.25,0.75,1.5,0.75,1.0,4.64,6.14,0.27,216.96,-3.3,10.4
1.76,0.0,2.5,5.0,8.0,0.0,4.25,1.5,1.75,0.0,1.0,0.0,0.0,0.0,-0.17,0.2,1.08,310.03,11.0,45.2,1.25,1.0,0.5,1.25,2.75,0.75,0.5,1.5,0.25,1.25,1.0,0.75,0.75,0.58,-0.73,-2.11,207.38,-3.0,8.9
1.78,0.0,2.5,7.0,8.0,0.0,0.0,2.25,1.75,0.0,1.0,0.0,0.0,0.5,-0.17,0.27,1.02,303.27,19.3,44.8,1.25,1.0,0.5,1.25,2.5,1.5,0.5,1.5,0.0,0.0,1.0,0.0,1.0,0.27,6.14,2.39,195.23,-2.7,23.9
1.8,7.75,1.75,7.75,7.0,0.0,0.0,2.75,1.5,0.0,0.0,0.0,0.0,0.0,-0.23,0.33,1.2,334.84,26.6,65.3,0.5,0.0,0.0,0.0,0.0,1.0,0.25,1.5,0.0,0.75,0.0,0.25,0.0,-0.55,0.7,3.08,145.12,8.9,-15.1
1.82,8.5,2.5,8.25,7.75,0.0,0.0,3.5,0.0,0.0,0.0,0.0,0.0,0.0,-0.23,0.39,1.27,368.59,28.7,71.7,0.0,0.0,0.0,0.0,0.0,3.0,0.0,1.75,0.0,1.5,1.0,0.25,0.25,-1.42,0.45,2.2,114.38,14.3,-28.2
1.84,8.25,0.0,7.75,5.75,0.0,0.0,4.25,0.0,0.0,0.0,0.0,0.0,0.0,-0.17,0.45,1.2,376.78,31.3,69.3,0.25,0.0,0.0,0.0,0.0,4.5,0.0,3.0,0.0,0.75,0.25,0.25,0.25,0.14,0.08,1.02,97.52,16.7,-8.8
1.86,9.25,0.0,8.0,4.5,0.0,0.0,4.25,1.5,0.25,0.0,0.5,0.0,0.0,-0.3,0.7,1.64,381.11,28.9,60.8,1.25,0.25,0.0,0.0,1.75,6.75,0.5,3.0,0.0,0.75,0.0,0.0,0.25,0.27,0.02,0.95,129.67,11.8,19.2
1.88,9.5,0.0,6.75,4.0,0.0,0.0,3.75,0.0,0.25,0.0,0.5,0.0,0.0,-0.67,1.02,1.64,364.25,31.7,68.2,2.0,1.25,0.25,0.0,3.75,8.25,0.75,4.25,0.0,2.0,1.0,0.75,0.5,0.08,0.2,1.08,206.66,7.4,12.5
1.9,9.0,0.0,5.75,2.5,0.0,0.0,2.75,0.0,0.25,0.0,0.0,0.25,0.0,-0.98,1.27,2.02,335.09,32.7,71.1,2.25,1.75,1.75,0.25,6.75,9.25,0.5,3.0,0.0,1.75,0.75,0.75,0.5,0.08,0.2,1.2,291.96,4.0,26.7
1.92,0.0,0.0,3.75,2.5,0.0,0.0,1.75,0.0,0.0,0.0,0.75,0.0,0.0,-0.86,0.83,2.52,256.46,28.3,44.1,2.0,1.0,0.75,1.25,7.5,9.25,0.5,3.0,0.0,0.75,1.0,0.0,0.25,0.02,0.2,1.14,359.51,5.2,32.6
1.94,0.0,0.0,0.0,0.0,0.0,0.0,0.25,0.0,0.0,0.0,0.0,0.0,0.0,-0.48,0.33,2.33,152.2,32.4,27.3,3.75,2.0,1.75,1.25,8.0,11.0,0.5,3.0,0.0,2.0,1.0,0.5,1.0,-0.11,0.33,0.83,451.12,2.8,29.9
1.96,0.0,0.0,0.0,0.25,0.0,0.0,0.0,0.0,0.0,0.0,0.0,0.0,0.0,-0.61,-0.67,-1.61,46.67,17.2,57.9,3.75,2.5,2.0,1.25,8.0,11.0,0.5,2.25,0.0,2.0,0.0,1.0,1.0,0.52,0.33,0.95,520.69,2.2,33.5
1.98,0.0,0.0,0.0,1.25,0.0,0.0,0.5,0.0,0.0,1.25,0.0,0.0,0.0,-1.67,0.2,2.39,0.0,3.8,-4.2,5.0,3.25,0.5,1.25,7.5,11.0,0.5,2.0,0.0,1.75,0.75,1.0,1.0,0.52,0.33,0.45,573.87,1.9,34.6
2.0,2.25,0.0,0.0,1.0,0.0,0.0,0.0,0.0,0.0,0.0,0.0,0.0,0.0,-0.42,-0.17,0.14,0.0,29.0,84.5,5.5,3.5,1.75,1.25,8.0,10.5,0.5,1.5,0.0,1.25,0.5,0.25,1.25,0.27,0.52,0.58,605.29,-0.3,42.3
2.02,2.25,0.0,0.0,1.25,0.0,0.0,0.0,0.0,0.0,0.5,0.5,0.0,0.0,0.39,0.58,0.14,0.0,21.2,47.1,5.75,3.5,1.5,1.25,7.75,9.75,0.25,1.5,0.0,1.75,1.0,0.75,1.0,0.33,0.52,0.52,624.93,-0.8,38.5
2.04,2.0,0.0,0.25,1.0,0.0,0.0,0.0,0.0,0.0,1.25,0.25,0.0,0.0,0.83,0.39,-0.05,0.0,16.3,31.3,6.0,4.25,1.75,1.25,8.0,9.75,0.5,1.5,0.25,1.5,1.0,0.75,0.75,0.39,0.52,0.52,637.86,-1.8,41.6
2.06,0.0,0.0,0.5,0.0,0.0,0.0,0.0,0.0,0.0,0.0,0.0,0.0,0.0,0.95,0.2,0.08,0.0,38.2,60.9,6.5,4.5,0.75,1.25,8.0,9.75,0.25,1.5,0.25,1.5,1.0,1.0,0.75,0.39,0.64,0.95,631.34,-1.3,41.2
2.08,0.0,0.0,0.0,0.0,0.0,0.0,0.0,0.0,0.0,0.0,0.0,0.0,0.0,0.89,-0.17,0.27,0.0,0.0,0.0,5.75,3.5,0.25,1.25,8.0,9.25,0.0,0.5,0.0,0.5,1.0,0.75,1.0,0.7,0.64,1.08,590.52,-0.6,44.6
2.1,0.0,0.0,0.0,0.0,0.0,0.0,0.0,0.0,0.0,0.0,0.0,0.0,0.0,1.08,-0.23,0.52,0.0,0.0,0.0,7.0,4.25,0.5,1.25,8.0,8.75,0.25,0.5,0.25,1.25,1.25,1.0,0.5,0.95,0.64,0.89,561.23,-2.8,45.0
2.12,2.75,0.0,0.0,1.0,0.0,0.0,0.0,0.0,0.0,1.0,0.0,0.0,0.0,1.39,0.02,0.39,0.0,19.9,51.2,6.75,3.5,0.75,1.25,8.0,7.75,0.5,0.75,0.25,0.5,0.5,0.75,0.0,0.64,0.83,0.95,513.35,-3.8,52.4
2.14,2.75,0.0,0.0,1.5,0.0,0.0,0.25,0.0,0.0,0.75,0.0,0.0,0.0,1.45,0.33,0.58,29.45,21.7,57.6,6.25,3.0,1.75,1.25,7.5,7.25,0.5,0.0,0.25,1.25,1.0,0.75,1.0,0.45,0.95,0.89,486.72,-4.4,43.5
2.16,2.5,0.0,1.25,1.0,0.0,0.0,0.0,0.0,0.0,0.75,0.0,0.0,0.0,1.2,0.45,0.95,73.21,25.3,57.3,6.0,2.0,1.75,1.25,6.5,6.25,0.5,0.0,0.25,1.0,1.0,0.75,0.0,-0.11,1.39,0.39,438.25,-6.0,47.7
2.18,2.0,0.0,0.75,0.75,0.0,0.0,0.0,0.0,0.0,0.75,0.0,0.0,0.0,0.58,0.77,0.83,86.7,23.1,52.3,3.75,1.0,1.0,1.25,5.75,5.25,0.5,0.0,0.0,0.75,1.0,0.75,0.5,0.33,2.58,-0.42,371.07,-3.1,39.0
2.2,2.0,0.0,0.75,1.0,0.0,0.0,0.0,0.0,0.0,0.25,0.0,0.0,0.0,0.08,0.83,0.7,84.78,27.6,68.9,2.0,0.75,0.5,1.25,4.25,4.0,0.5,0.0,0.0,1.0,1.0,0.75,0.5,0.64,3.33,-0.17,296.16,-1.0,28.7
2.22,2.0,0.0,0.75,1.0,0.0,0.0,0.0,0.0,0.0,0.5,0.0,0.0,0.0,-0.05,0.83,0.2,78.21,25.0,60.3,1.25,0.75,0.5,1.25,3.75,4.25,0.5,0.5,0.0,0.5,0.75,0.75,0.5,0.2,1.95,3.2,242.22,0.9,27.5
2.24,2.5,0.0,1.25,0.5,0.0,0.0,0.0,0.0,0.0,0.5,0.0,0.0,0.0,0.14,1.64,0.14,79.19,28.4,64.4,1.5,0.5,0.5,1.25,3.75,3.5,0.5,0.25,0.25,1.25,1.0,0.75,0.75,0.83,-0.73,3.14,202.23,0.0,18.5
2.26,1.25,0.0,1.25,1.0,0.0,0.0,0.0,0.0,0.0,0.5,0.25,0.0,0.0,0.77,2.14,0.7,79.58,24.2,46.5,0.0,0.0,0.5,1.0,3.75,3.0,0.5,0.25,0.0,0.0,1.0,0.0,0.75,0.45,-2.17,1.08,159.28,3.4,23.7
2.28,0.0,0.0,0.25,0.5,0.0,0.0,0.0,0.0,0.0,0.5,0.0,0.0,0.0,0.27,2.45,-0.05,64.25,8.5,6.4,0.0,0.0,0.25,0.0,1.5,2.75,0.5,0.0,0.0,0.0,0.25,0.0,0.5,0.45,-2.61,1.27,103.7,9.3,23.0
2.3,3.0,0.0,0.25,0.5,0.0,0.0,0.0,0.0,0.0,0.75,0.0,0.0,0.0,-0.61,2.27,-0.23,67.37,24.2,60.8,0.0,0.0,0.25,0.0,1.75,3.0,0.5,1.25,0.0,0.5,0.0,0.0,0.0,0.77,-0.42,-1.3,65.72,11.6,19.8
2.32,0.0,0.0,1.0,0.5,0.0,0.0,0.0,0.0,0.0,0.75,0.0,0.0,0.0,-0.48,2.14,-1.11,53.19,15.9,15.8,1.0,0.0,0.25,0.0,2.5,2.75,0.5,0.0,0.0,1.5,0.0,0.75,0.0,-0.11,2.14,-2.8,53.94,3.8,17.6
2.34,0.0,0.0,1.25,0.75,0.0,0.0,0.0,0.0,0.0,0.25,0.25,0.0,0.0,1.64,3.58,-0.67,46.89,23.9,33.8,1.0,0.75,0.5,0.0,3.0,2.75,0.5,1.0,0.0,1.75,1.0,0.0,0.5,-0.86,2.27,-0.86,76.08,3.2,14.0
2.36,2.0,0.0,1.25,0.5,0.0,0.0,0.0,0.0,0.0,0.5,0.0,0.0,0.0,1.89,2.64,-0.67,47.35,27.7,60.7,0.0,0.0,0.5,0.0,3.75,2.0,0.5,1.0,0.0,0.25,1.0,0.0,0.0,-0.23,1.77,-0.11,92.18,4.3,22.1
2.38,2.0,0.0,0.75,0.5,0.0,0.0,0.0,0.0,0.0,1.0,0.0,0.0,0.0,-0.67,1.58,-1.61,56.24,21.1,44.3,0.5,0.0,0.25,0.0,1.5,2.25,0.5,0.0,0.0,0.0,0.0,0.0,0.25,0.2,0.7,-0.42,86.64,4.7,40.3
2.4,2.25,0.0,0.0,0.5,0.0,0.0,0.0,0.0,0.0,0.75,0.0,0.0,0.0,-1.42,0.58,-0.67,58.52,20.9,53.1,0.0,0.0,0.0,0.0,1.75,2.0,0.5,0.0,0.0,0.0,0.0,0.0,0.0,0.45,0.02,-0.11,69.32,10.1,43.1
2.42,0.0,0.0,0.0,0.5,0.0,0.0,0.0,0.0,0.0,0.5,0.0,0.0,0.0,-1.42,-0.17,0.2,45.56,1.1,-7.2,0.0,0.0,0.25,0.0,1.25,1.75,0.5,0.0,0.0,0.0,0.0,0.0,0.0,0.7,-0.05,-0.11,51.04,6.9,43.3
2.44,2.25,0.0,0.25,0.5,0.0,0.0,0.0,0.0,0.0,0.75,0.25,0.0,0.0,-0.11,0.08,0.45,48.38,21.4,45.6,0.0,0.0,0.25,0.0,1.25,1.75,0.5,0.0,0.0,0.0,0.0,0.0,0.0,0.2,0.7,-0.48,40.03,6.9,43.3
2.46,2.5,0.0,0.5,0.5,0.0,0.0,0.0,0.0,0.0,0.5,0.0,0.0,0.0,1.14,0.27,0.77,50.74,26.4,65.1,0.0,0.0,0.25,0.0,1.5,1.25,0.5,0.0,0.0,0.0,0.0,0.0,0.0,0.45,1.33,-0.8,35.42,4.4,45.5
2.48,2.5,0.0,0.75,0.5,0.0,0.0,0.0,0.0,0.0,0.75,0.0,0.0,0.0,2.08,0.02,1.2,62.62,24.7,56.9,0.0,0.0,0.25,0.0,1.25,1.25,0.5,0.0,0.0,0.0,0.0,0.0,0.0,0.52,1.02,-0.73,35.94,4.5,44.7
2.5,2.0,0.0,0.25,0.5,0.0,0.0,0.0,0.0,0.0,1.0,0.0,0.0,0.0,1.7,-0.17,0.95,66.97,18.7,42.0,0.0,0.0,0.25,0.0,1.75,1.0,0.5,0.0,0.0,0.25,0.0,0.0,0.25,0.33,0.33,0.02,43.15,4.5,29.1
2.52,2.5,0.0,1.0,0.5,0.0,0.0,0.0,0.0,0.0,0.25,0.0,0.0,0.0,1.27,-0.17,0.7,73.67,30.5,73.1,0.0,0.0,0.25,0.0,1.5,1.0,0.5,0.0,0.0,0.0,0.0,0.0,0.0,0.83,0.64,-0.17,43.43,3.0,46.3
2.54,2.5,0.0,1.25,0.5,0.0,0.0,0.0,0.0,0.0,0.5,0.0,0.0,0.0,1.2,0.08,0.58,74.81,28.4,64.4,0.0,0.0,0.25,0.0,1.25,0.75,0.5,0.0,0.0,0.0,0.0,0.25,0.0,0.77,0.83,-0.61,38.11,0.3,33.2
2.56,2.25,0.0,1.0,0.5,0.0,0.0,0.0,0.0,0.0,0.5,0.0,0.0,0.0,1.02,0.08,0.7,77.28,27.4,62.8,0.0,0.0,0.25,0.0,1.5,0.5,0.5,0.0,0.0,0.0,0.0,0.0,0.0,0.7,0.7,-0.86,33.18,-0.3,48.5
2.58,2.25,0.0,1.75,0.5,0.0,0.0,0.0,0.0,0.0,0.5,0.0,0.0,0.0,1.02,-0.05,0.64,81.43,29.1,62.5,0.0,0.0,0.25,0.0,1.25,0.5,0.5,0.0,0.0,0.0,0.0,0.0,0.25,0.45,0.77,-0.67,31.98,0.5,32.7
2.6,2.0,0.0,1.25,0.5,0.0,0.0,0.25,0.0,0.0,0.5,0.0,0.0,0.0,0.95,0.14,0.52,80.43,27.8,59.8,0.0,0.0,0.0,0.0,1.25,0.5,0.5,0.0,0.0,0.0,0.0,0.25,0.25,0.52,0.95,-0.42,36.08,3.4,16.7
2.62,2.0,0.0,1.0,0.5,0.0,0.0,0.0,0.0,0.0,0.5,0.5,0.0,0.0,1.02,0.14,0.58,81.02,25.2,45.7,0.0,0.0,0.0,0.0,1.25,0.75,0.5,0.0,0.0,0.0,0.0,0.0,0.25,0.77,0.7,-0.17,39.75,6.3,30.1
2.64,2.0,0.0,1.25,0.5,0.0,0.0,0.0,0.0,0.0,0.5,0.5,0.0,0.0,1.14,0.2,0.45,81.28,25.9,46.6,0.0,0.0,0.25,0.0,1.25,0.5,0.5,0.0,0.0,0.0,0.0,0.0,0.0,0.83,0.45,-0.11,39.8,-0.8,47.9
2.66,2.0,0.0,1.25,0.5,0.0,0.0,0.0,0.0,0.0,0.25,0.5,0.0,0.0,0.95,0.2,0.33,80.93,28.3,53.5,0.0,0.0,0.0,0.0,0.5,0.5,0.5,0.0,0.0,0.0,0.0,0.25,0.0,0.64,0.33,-0.17,33.74,1.7,17.1
2.68,2.0,0.0,1.0,0.5,0.0,0.0,0.0,0.0,0.0,0.5,0.5,0.0,0.0,0.7,0.33,0.33,77.0,25.2,45.7,0.0,0.0,0.0,0.0,1.25,0.5,0.5,0.0,0.0,0.25,0.0,0.25,0.25,0.14,0.7,-0.05,35.45,4.4,8.7
2.7,2.0,0.0,1.25,0.5,0.0,0.0,0.0,0.0,0.0,0.5,0.5,0.0,0.0,0.7,0.39,0.45,77.41,25.9,46.6,0.0,0.0,0.25,0.0,0.5,0.75,0.5,0.0,0.0,0.5,0.0,0.0,0.25,0.08,0.89,-0.3,35.46,4.6,4.4
2.72,2.0,0.0,1.25,0.5,0.0,0.0,0.0,0.0,0.0,0.5,0.5,0.0,0.0,0.83,0.7,0.33,78.04,25.9,46.6,0.0,0.0,0.25,0.0,1.0,0.5,0.5,0.0,0.0,0.0,0.0,0.0,0.0,0.45,1.02,-0.55,36.16,-1.4,47.1
2.74,2.0,0.0,1.25,0.5,0.0,0.0,0.25,0.0,0.0,0.25,0.5,0.5,0.0,0.77,0.7,0.45,80.49,26.4,36.7,0.0,0.0,0.0,0.0,0.5,0.5,0.5,0.0,0.0,0.0,0.0,0.25,0.25,0.58,0.89,-0.61,32.35,3.4,-1.0
2.76,2.0,0.0,1.25,0.5,0.0,0.0,0.0,0.0,0.0,0.5,0.5,0.0,0.0,0.83,0.7,0.45,80.07,25.9,46.6,0.0,0.0,0.25,0.0,1.0,0.5,0.5,0.0,0.0,0.25,0.0,0.0,0.0,0.64,0.95,-0.48,34.32,0.3,34.2
2.78,2.0,0.0,1.0,0.5,0.0,0.0,0.0,0.0,0.0,0.5,0.5,0.0,0.0,0.77,0.7,0.39,78.56,25.2,45.7,0.0,0.0,0.0,0.0,1.0,0.75,0.5,0.0,0.0,0.5,0.0,0.25,0.0,0.64,1.02,-0.48,37.21,6.2,9.6
2.8,2.0,0.0,1.25,0.5,0.0,0.0,0.0,0.0,0.0,0.25,0.5,0.0,0.0,0.7,0.64,0.33,77.02,28.3,53.5,0.0,0.0,0.25,0.0,0.25,0.25,0.5,0.0,0.0,0.25,0.0,0.0,0.0,0.58,0.95,-0.48,32.68,-5.7,21.1
2.82,2.0,0.0,1.0,0.5,0.0,0.0,0.0,0.0,0.0,0.5,0.5,0.0,0.0,0.52,0.33,0.39,75.07,25.2,45.7,0.0,0.0,0.25,0.0,1.5,0.5,0.5,0.0,0.0,0.0,0.0,0.0,0.0,0.27,0.95,-0.42,36.9,-0.3,48.5
2.84,2.0,0.0,0.75,0.5,0.0,0.0,0.0,0.0,0.0,0.5,0.5,0.0,0.0,0.64,0.14,0.39,73.15,24.4,44.8,0.0,0.0,0.25,0.0,1.5,0.5,0.5,0.0,0.0,0.5,0.0,0.0,0.25,0.14,0.89,-0.36,43.13,2.9,18.8
2.86,2.25,0.0,1.25,0.5,0.0,0.0,0.0,0.0,0.0,0.5,0.5,0.0,0.0,0.77,0.14,0.39,75.55,26.3,49.0,0.0,0.0,0.25,0.0,1.5,0.5,0.5,0.0,0.0,0.25,0.0,0.25,0.25,0.39,0.77,-0.36,50.77,1.2,16.4
2.88,2.0,0.0,1.5,0.5,0.0,0.0,0.0,0.0,0.0,0.5,0.5,0.0,0.0,0.7,0.14,0.45,78.16,26.6,47.3,0.0,0.0,0.25,0.0,1.0,0.5,0.5,0.0,0.0,0.25,0.0,0.0,0.25,0.58,0.7,-0.36,51.45,1.6,20.1
2.9,2.0,0.0,1.25,0.5,0.0,0.0,0.0,0.0,0.0,0.5,0.5,0.0,0.0,0.77,0.08,0.52,79.76,25.9,46.6,0.0,0.0,0.25,0.0,1.5,0.5,0.5,0.0,0.0,0.75,0.0,0.0,0.25,0.64,0.58,-0.23,56.71,3.8,12.4
2.92,2.0,0.0,1.25,0.5,0.0,0.0,0.0,0.0,0.0,0.5,0.5,0.0,0.0,0.95,-0.05,0.45,79.8,25.9,46.6,0.0,0.25,0.25,0.0,1.0,0.5,0.5,0.0,0.0,0.25,0.0,0.0,0.25,0.7,0.52,-0.3,54.0,0.4,27.1
2.94,1.75,0.0,1.0,0.5,0.0,0.0,0.0,0.0,0.0,0.0,0.5,0.0,0.0,0.89,-0.11,0.52,74.09,30.1,58.9,0.0,0.0,0.25,0.0,1.25,1.0,0.5,0.0,0.0,0.75,0.0,0.25,0.25,0.77,0.58,-0.23,59.77,5.2,4.7
2.96,1.5,0.0,1.25,0.5,0.0,0.0,0.0,0.0,0.0,0.5,0.5,0.0,0.0,0.95,-0.05,0.58,71.05,24.9,40.9,0.0,0.0,0.25,0.0,1.75,0.5,0.5,0.0,0.0,0.5,0.0,0.0,0.0,0.83,0.58,-0.3,61.28,2.2,31.1
2.98,2.0,0.0,1.5,0.5,0.0,0.0,0.0,0.0,0.0,0.5,0.5,0.0,0.0,0.95,-0.05,0.58,72.91,26.6,47.3,0.0,0.0,0.25,0.0,1.25,0.5,0.5,0.0,0.25,1.25,0.0,0.75,0.25,0.77,0.52,-0.3,69.16,2.3,-20.0
3.0,1.75,0.0,1.25,0.5,0.0,0.0,0.0,0.0,0.0,0.5,0.5,0.0,0.0,0.95,-0.11,0.64,74.39,25.4,43.9,0.5,0.5,0.5,1.25,3.75,1.5,0.5,0.25,0.25,1.25,0.75,0.75,0.75,0.64,0.45,-0.3,115.41,-0.7,12.1
3.02,2.0,0.0,1.5,0.5,0.0,0.0,0.0,0.0,0.0,0.5,0.0,0.0,0.0,0.95,-0.17,0.7,76.1,28.3,60.7,0.75,0.5,0.5,1.25,3.75,2.0,0.5,0.25,0.25,1.0,1.0,0.75,0.5,0.39,0.45,-0.3,159.32,-1.2,16.9
3.04,2.0,0.0,1.25,0.5,0.0,0.0,0.0,0.0,0.0,0.5,0.5,0.0,0.0,0.89,-0.11,0.58,77.12,25.9,46.6,1.25,0.75,0.5,1.25,3.75,1.5,0.75,0.0,0.25,1.5,1.0,0.75,0.75,0.33,0.52,-0.42,199.2,-3.0,15.9
3.06,1.25,0.0,1.5,0.5,0.0,0.0,0.0,0.0,0.0,0.5,0.5,0.0,0.0,0.89,-0.11,0.52,75.14,25.2,38.9,0.75,0.5,0.5,1.0,3.75,1.25,0.5,0.25,0.25,1.25,1.0,0.75,1.0,0.45,0.64,-0.55,213.95,-1.3,8.3
3.08,1.5,0.0,1.0,0.5,0.0,0.0,0.0,0.0,0.0,0.25,0.5,0.0,0.0,0.95,-0.17,0.58,69.9,26.7,47.3,0.5,0.25,0.5,1.25,3.75,1.25,0.75,0.25,0.25,1.5,1.0,0.75,1.0,0.33,0.7,-0.36,220.58,-0.7,4.5
3.1,1.5,0.0,1.25,0.5,0.0,0.0,0.0,0.0,0.0,0.5,0.25,0.0,0.0,0.83,-0.23,0.58,66.68,25.8,48.0,0.75,0.75,0.5,1.25,3.75,1.25,0.5,0.0,0.25,1.5,1.0,0.75,1.0,0.64,0.64,-0.36,220.45,-1.8,10.3
3.12,2.0,0.0,1.5,0.5,0.0,0.0,0.0,0.0,0.0,0.5,0.25,0.0,0.0,0.83,-0.23,0.58,69.61,27.4,53.7,1.0,0.75,0.5,1.25,3.75,1.75,0.5,0.0,0.25,1.5,1.0,0.75,1.0,0.89,0.64,-0.42,224.37,-1.5,12.5
3.14,2.0,0.0,0.75,0.5,0.0,0.0,0.0,0.0,0.0,0.5,0.0,0.0,0.0,0.77,-0.17,0.58,68.01,26.2,60.7,0.5,1.0,0.5,1.25,3.75,1.5,0.5,0.0,0.25,1.75,1.0,0.75,0.75,1.08,0.52,-0.42,225.19,-1.0,11.6
3.16,2.0,0.0,0.5,0.5,0.0,0.0,0.0,0.0,0.0,0.25,0.5,0.0,0.0,0.64,-0.11,0.52,66.47,26.2,51.9,1.25,0.5,0.5,1.25,3.75,1.5,0.5,0.25,0.25,1.5,1.0,0.75,0.75,0.89,0.45,-0.3,225.72,-2.3,13.3
3.18,1.25,0.0,1.25,0.5,0.0,0.0,0.0,0.0,0.0,0.5,0.5,0.0,0.0,0.58,-0.17,0.52,65.09,24.3,37.5,0.0,0.0,0.5,0.0,3.75,0.5,0.5,0.0,0.0,0.0,0.0,0.0,0.25,0.58,0.58,-0.23,188.14,0.2,44.3
3.2,2.0,0.0,1.25,0.5,0.0,0.0,0.0,0.0,0.0,0.5,0.5,0.0,0.0,0.58,-0.23,0.52,68.02,25.9,46.6,0.0,0.0,0.0,0.0,0.25,0.25,0.5,0.0,0.0,0.0,0.0,0.0,0.0,0.45,0.77,-0.3,123.42,-1.8,39.3
3.22,2.0,0.0,0.75,0.5,0.0,0.0,0.0,0.0,0.0,0.5,0.5,0.0,0.0,0.58,-0.17,0.52,68.49,24.4,44.8,0.0,0.0,0.25,0.0,1.0,0.5,0.5,0.0,0.0,0.0,0.0,0.0,0.0,0.58,0.77,-0.48,62.49,-1.4,47.1
3.24,2.0,0.0,1.0,0.5,0.0,0.0,0.0,0.0,0.0,0.5,0.5,0.0,0.0,0.58,-0.23,0.52,72.08,25.2,45.7,0.0,0.0,0.0,0.0,1.0,0.5,0.5,0.0,0.0,0.5,0.0,0.0,0.0,0.77,0.64,-0.42,18.62,6.2,19.7
3.26,2.0,0.0,1.0,0.5,0.0,0.0,0.0,0.0,0.0,0.5,0.25,0.0,0.0,0.52,-0.3,0.58,72.16,26.0,52.8,0.0,0.25,0.0,0.0,1.0,0.5,0.5,0.0,0.0,0.75,0.0,0.0,0.0,0.64,0.45,-0.23,6.02,5.3,18.5
3.28,2.0,0.0,1.0,0.5,0.0,0.0,0.0,0.0,0.0,0.5,0.5,0.0,0.0,0.64,-0.48,0.45,73.35,25.2,45.7,0.0,0.0,0.25,0.0,1.5,0.5,0.75,0.0,0.0,0.5,0.25,0.25,0.25,0.52,0.33,-0.17,12.61,0.3,5.6
3.3,2.0,0.0,1.0,0.5,0.0,0.0,0.0,0.0,0.0,0.5,0.5,0.0,0.0,0.83,-0.55,0.39,74.07,25.2,45.7,0.0,0.25,0.25,0.0,1.75,0.5,0.75,0.0,0.25,0.75,0.5,0.0,0.25,0.45,0.33,-0.17,29.81,0.0,8.7
3.32,2.0,0.0,0.25,0.5,0.0,0.0,0.25,0.0,0.0,0.5,0.25,0.0,0.0,0.89,-0.48,0.45,70.19,23.6,50.1,0.0,0.5,0.5,0.0,1.75,0.5,1.0,0.0,0.25,0.75,0.25,0.25,0.5,0.52,0.45,-0.23,46.27,-2.2,8.6
3.34,2.0,0.0,1.0,0.5,0.0,0.0,0.0,0.0,0.0,0.5,0.25,0.0,0.0,0.83,-0.42,0.58,69.38,26.0,52.8,0.5,0.25,0.5,1.25,3.75,1.0,0.75,0.0,0.25,1.5,1.0,0.25,1.0,0.64,0.52,-0.23,93.46,-1.2,9.5
3.36,2.0,0.0,1.0,0.5,0.0,0.0,0.0,0.0,0.0,0.5,0.0,0.0,0.0,0.77,-0.3,0.64,67.56,27.0,60.7,1.0,0.5,0.5,1.25,3.75,0.75,0.75,0.0,0.25,1.5,1.0,0.25,0.5,0.7,0.52,-0.23,135.24,-3.9,19.4
3.38,2.0,0.0,1.0,0.5,0.0,0.0,0.0,0.0,0.0,0.5,0.25,0.0,0.0,0.83,-0.23,0.7,69.47,26.0,52.8,0.75,0.75,0.5,1.25,3.75,1.25,0.75,0.0,0.25,1.5,1.0,0.5,1.25,0.7,0.58,-0.23,176.7,-1.7,10.4
3.4,2.0,0.0,1.25,0.5,0.0,0.0,0.0,0.0,0.0,0.5,0.25,0.0,0.0,0.83,-0.17,0.64,71.18,26.7,53.2,0.75,0.75,0.5,1.25,3.75,1.25,1.0,0.0,0.25,2.0,1.25,0.25,1.0,0.77,0.58,-0.23,204.27,-1.6,10.3
3.42,2.0,0.0,1.0,0.5,0.0,0.0,0.0,0.0,0.0,0.25,0.25,0.0,0.0,0.77,-0.23,0.58,70.65,28.7,61.0,0.5,0.25,0.5,1.25,3.5,1.25,1.0,0.0,0.25,1.5,1.0,0.25,0.75,0.7,0.64,-0.17,216.25,-1.5,11.7
3.44,2.0,0.0,1.0,0.5,0.0,0.0,0.0,0.0,0.0,0.5,0.25,0.0,0.0,0.52,-0.23,0.52,70.42,26.0,52.8,0.75,0.75,0.5,1.25,3.75,1.0,0.75,0.0,0.25,1.5,1.0,0.25,1.0,0.7,0.77,-0.23,218.95,-2.3,14.7
3.46,1.75,0.0,1.0,0.5,0.0,0.0,0.0,0.0,0.0,0.5,0.25,0.0,0.0,0.58,-0.36,0.52,69.0,25.5,50.1,0.75,0.75,0.5,1.25,3.75,0.75,0.75,0.0,0.25,1.25,1.0,0.5,0.75,0.7,0.83,-0.3,213.38,-3.6,16.2
3.48,2.0,0.0,1.0,0.5,0.0,0.0,0.0,0.0,0.0,0.5,0.25,0.0,0.0,0.64,-0.42,0.52,69.34,26.0,52.8,0.0,0.75,0.5,1.25,3.75,1.25,0.75,0.0,0.25,1.5,1.0,0.25,0.75,0.64,0.83,-0.36,208.97,-0.3,12.9
3.5,2.0,0.0,1.5,0.5,0.0,0.0,0.0,0.0,0.0,0.5,0.25,0.0,0.0,0.58,-0.48,0.52,72.59,27.4,53.7,1.25,0.25,0.5,1.0,3.75,1.5,0.75,0.0,0.25,1.25,1.0,0.25,1.0,0.64,0.83,-0.3,205.6,-2.2,15.9
3.52,0.0,0.0,1.25,0.5,0.0,0.0,0.0,0.0,0.0,0.5,0.25,0.0,0.0,0.52,-0.48,0.64,63.37,20.7,20.6,0.5,0.5,0.5,1.25,3.75,1.0,0.75,0.0,0.25,1.5,1.0,0.25,0.75,0.64,0.77,-0.17,199.99,-1.8,13.9
3.54,0.0,0.0,1.0,0.5,0.0,0.0,0.0,0.0,0.0,0.25,0.25,0.0,0.0,0.45,-0.48,0.52,51.7,23.0,27.3,0.25,0.5,0.5,1.25,3.5,1.25,0.75,0.0,0.25,1.5,1.0,0.25,0.75,0.64,0.64,-0.17,192.36,-0.8,11.7
3.56,2.5,0.0,1.25,0.5,0.0,0.0,0.0,0.0,0.0,0.5,0.25,0.0,0.0,0.52,-0.48,0.58,57.04,27.5,57.5,1.25,0.5,0.5,0.5,3.75,1.0,0.75,0.0,0.25,1.5,1.0,0.75,1.0,0.64,0.58,-0.11,187.98,-2.6,8.5
3.58,2.25,0.0,1.25,0.5,0.0,0.0,0.25,0.0,0.0,0.5,0.0,0.0,0.0,0.58,-0.48,0.58,63.19,28.2,61.7,0.5,0.25,0.5,1.25,3.75,1.25,1.0,0.0,0.25,1.25,1.0,0.75,1.0,0.58,0.58,-0.11,184.11,-1.7,7.1
3.6,2.25,0.0,1.0,0.5,0.0,0.0,0.0,0.0,0.0,0.5,0.0,0.0,0.0,0.58,-0.48,0.58,69.96,27.4,62.8,0.5,0.5,0.5,1.25,3.75,1.0,1.0,0.0,0.25,1.75,1.0,0.75,0.75,0.58,0.64,-0.17,186.42,-2.0,7.6
3.62,2.0,0.0,1.25,0.5,0.0,0.0,0.0,0.0,0.0,0.5,0.25,0.0,0.0,0.64,-0.48,0.58,74.09,26.7,53.2,1.0,0.75,0.5,1.25,3.75,1.25,0.75,0.0,0.25,1.5,1.0,0.75,0.75,0.58,0.7,-0.17,191.4,-2.9,14.2
3.64,2.0,0.0,1.0,0.5,0.0,0.0,0.0,0.0,0.0,0.25,0.25,0.0,0.0,0.58,-0.48,0.64,73.55,28.7,61.0,0.75,0.75,0.5,1.5,3.75,1.0,1.0,0.0,0.25,1.25,1.0,0.75,1.0,0.58,0.7,-0.11,196.4,-3.4,12.7
3.66,2.25,0.0,1.25,0.5,0.0,0.0,0.0,0.0,0.0,0.5,0.0,0.0,0.0,0.58,-0.48,0.58,73.89,28.0,62.7,0.5,0.0,0.5,1.25,3.75,1.25,0.75,0.0,0.25,1.5,1.0,0.75,0.75,0.58,0.7,-0.17,194.43,-1.1,5.8
3.68,2.25,0.0,1.25,0.5,0.0,0.0,0.0,0.0,0.0,0.25,0.0,0.0,0.0,0.58,-0.48,0.64,73.59,30.7,71.0,0.75,0.5,0.5,1.25,3.75,1.0,0.75,0.0,0.25,1.75,1.0,0.75,1.0,0.64,0.77,-0.17,194.47,-2.0,6.8
3.7,2.0,0.0,1.25,0.5,0.0,0.0,0.0,0.0,0.0,0.25,0.0,0.0,0.0,0.58,-0.48,0.64,73.7,30.4,69.4,0.75,0.25,0.5,1.25,3.75,1.0,1.0,0.0,0.25,1.5,1.0,0.75,0.75,0.64,0.7,-0.17,192.14,-2.7,9.0
3.72,2.0,0.0,1.25,0.5,0.0,0.0,0.0,0.0,0.0,0.5,0.0,0.0,0.0,0.45,-0.48,0.64,73.31,27.7,60.7,1.25,0.5,0.5,0.5,3.75,0.75,1.0,0.0,0.25,1.5,1.0,0.75,0.75,0.64,0.7,-0.17,189.89,-3.7,10.7
3.74,2.0,0.0,0.5,0.5,0.0,0.0,0.0,0.0,0.0,0.25,0.0,0.0,0.0,0.45,-0.48,0.64,67.95,28.5,71.4,1.0,0.5,0.5,1.25,3.75,0.75,1.0,0.0,0.25,1.25,1.0,0.75,0.75,0.64,0.7,-0.17,188.64,-4.4,13.7
3.76,2.0,0.0,1.0,0.5,0.0,0.0,0.0,0.0,0.0,0.5,0.0,0.0,0.0,0.45,-0.48,0.58,67.94,27.0,60.7,0.75,0.75,0.5,1.25,3.75,0.75,1.0,0.0,0.25,1.5,1.0,0.75,0.75,0.64,0.7,-0.17,190.36,-3.6,12.1
3.78,2.0,0.0,0.5,0.5,0.0,0.0,0.0,0.0,0.0,0.5,0.0,0.0,0.0,0.52,-0.48,0.64,62.48,25.3,60.6,0.75,0.75,0.5,1.25,3.75,0.75,1.0,0.0,0.25,1.5,1.0,0.75,0.75,0.64,0.7,-0.11,191.13,-3.6,12.1
3.8,2.0,0.0,0.75,0.5,0.0,0.0,0.0,0.0,0.0,0.5,0.0,0.0,0.0,0.45,-0.48,0.64,60.22,26.2,60.7,0.5,0.75,0.5,1.5,3.75,0.5,0.75,0.0,0.25,1.0,1.0,0.75,1.0,0.58,0.64,-0.11,188.91,-3.9,11.9
3.82,2.0,0.0,0.75,0.5,0.0,0.0,0.0,0.0,0.0,0.5,0.0,0.0,0.0,0.45,-0.48,0.64,60.17,26.2,60.7,0.5,0.0,0.5,1.25,3.75,1.25,1.0,0.0,0.25,1.25,1.0,0.75,0.75,0.58,0.7,-0.11,185.87,-1.8,7.7
3.84,1.5,0.0,1.25,0.5,0.0,0.0,0.0,0.0,0.0,0.5,0.0,0.0,0.0,0.45,-0.48,0.58,61.52,26.7,56.0,0.5,0.5,0.5,1.5,3.75,0.75,1.0,0.0,0.0,1.0,1.0,0.75,1.0,0.58,0.7,-0.11,182.88,-3.3,11.7
3.86,1.75,0.0,1.0,0.5,0.0,0.0,0.0,0.0,0.0,0.5,0.0,0.0,0.0,0.52,-0.55,0.64,61.59,26.5,58.3,0.5,0.5,0.5,1.25,3.75,0.5,1.0,0.0,0.25,1.5,1.0,0.75,0.5,0.64,0.7,-0.17,179.84,-3.7,10.8
3.88,1.75,0.0,1.25,0.5,0.0,0.0,0.0,0.0,0.0,0.5,0.25,0.0,0.0,0.52,-0.55,0.64,64.82,26.3,50.8,1.25,0.75,0.5,1.0,3.75,0.5,1.0,0.0,0.25,1.5,1.0,0.75,0.75,0.64,0.7,-0.17,183.41,-4.9,13.9
3.9,2.0,0.0,1.0,0.5,0.0,0.0,0.0,0.0,0.0,0.5,0.5,0.0,0.0,0.45,-0.55,0.7,68.35,25.2,45.7,0.5,0.5,0.5,1.25,3.75,0.5,1.0,0.0,0.25,1.25,1.0,0.75,0.75,0.58,0.7,-0.17,182.59,-3.7,10.0
3.92,2.0,0.0,1.0,0.5,0.0,0.0,0.25,0.0,0.0,0.5,0.0,0.0,0.0,0.39,-0.55,0.7,70.51,27.1,59.7,0.5,0.5,0.5,1.25,3.75,0.5,1.0,0.0,0.25,1.5,1.0,0.75,0.75,0.58,0.7,-0.11,182.31,-3.3,8.3
3.94,2.0,0.0,1.0,0.5,0.0,0.0,0.0,0.0,0.0,0.5,0.5,0.0,0.0,0.45,-0.55,0.64,73.17,25.2,45.7,0.5,0.5,0.5,0.0,3.75,0.75,1.0,0.0,0.25,2.0,1.0,0.75,1.0,0.58,0.7,-0.17,178.87,-0.1,-2.5
3.96,2.0,0.0,1.25,0.5,0.0,0.0,0.0,0.0,0.0,0.5,0.0,0.0,0.0,0.52,-0.55,0.64,73.85,27.7,60.7,0.5,0.75,0.5,1.25,3.75,0.75,1.0,0.0,0.25,1.25,1.0,0.75,0.5,0.58,0.7,-0.17,179.4,-3.7,14.9
3.98,2.0,0.0,1.25,0.5,0.0,0.0,0.0,0.0,0.0,0.5,0.5,0.0,0.0,0.52,-0.55,0.64,76.87,25.9,46.6,1.25,1.0,0.5,1.25,3.75,0.5,1.0,0.0,0.25,1.5,1.0,0.75,0.75,0.58,0.7,-0.11,185.14,-5.3,16.4
4.0,2.0,0.0,1.0,0.5,0.0,0.0,0.0,0.0,0.0,0.5,0.25,0.0,0.0,0.39,-0.55,0.64,75.59,26.0,52.8,0.5,0.5,0.5,1.25,3.75,1.25,1.0,0.0,0.25,1.5,1.0,0.75,0.75,0.58,0.7,-0.11,189.38,-1.9,9.7
4.02,2.0,0.0,1.0,0.5,0.0,0.0,0.0,0.0,0.0,0.5,0.5,0.0,0.0,0.33,-0.55,0.64,76.5,25.2,45.7,1.25,0.5,0.5,1.25,3.75,0.5,1.0,0.0,0.25,1.5,1.0,0.75,0.75,0.64,0.7,-0.11,193.09,-5.0,13.1
4.04,2.0,0.0,1.0,0.5,0.0,0.0,0.0,0.0,0.0,0.5,0.5,0.0,0.0,0.45,-0.55,0.64,75.69,25.2,45.7,0.25,1.0,0.5,1.0,3.75,0.5,1.0,0.0,0.25,1.5,1.0,0.75,1.0,0.64,0.64,-0.11,191.85,-2.5,6.9
4.06,2.0,0.0,1.0,0.5,0.0,0.0,0.0,0.0,0.0,0.5,0.25,0.0,0.0,0.45,-0.55,0.7,74.6,26.0,52.8,0.5,0.5,0.5,1.0,3.75,0.5,1.0,0.0,0.25,1.5,1.0,0.75,0.75,0.64,0.64,-0.11,187.53,-3.0,7.2
4.08,2.0,0.0,1.25,0.5,0.0,0.0,0.0,0.0,0.0,0.25,0.5,0.0,0.0,0.39,-0.55,0.7,74.63,28.3,53.5,0.75,0.5,0.5,0.75,3.75,1.0,1.0,0.0,0.25,1.5,1.0,0.75,0.75,0.64,0.7,-0.11,184.69,-2.3,8.9
4.1,2.0,0.0,1.25,0.5,0.0,0.0,0.25,0.0,0.0,0.5,0.5,0.0,0.0,0.33,-0.48,0.64,76.62,26.1,46.1,1.0,0.75,0.5,1.25,3.75,0.5,0.75,0.0,0.25,1.25,1.0,0.75,1.0,0.64,0.7,-0.11,186.05,-4.4,12.4
4.12,2.0,0.0,1.25,0.5,0.0,0.0,0.0,0.0,0.0,0.5,0.5,0.0,0.0,0.33,-0.48,0.64,77.9,25.9,46.6,0.5,0.75,0.5,1.25,3.75,0.5,1.0,0.0,0.25,1.5,1.0,0.75,0.75,0.64,0.7,-0.11,186.42,-3.5,10.1
4.14,2.0,0.0,1.25,0.5,0.0,0.0,0.0,0.0,0.0,0.5,0.0,0.0,0.0,0.39,-0.48,0.64,76.8,27.7,60.7,0.75,0.0,0.5,1.5,3.75,0.5,1.0,0.0,0.25,1.25,1.0,0.75,1.0,0.64,0.7,-0.11,185.89,-3.8,6.5
4.16,2.0,0.0,1.0,0.5,0.0,0.0,0.0,0.0,0.0,0.5,0.5,0.0,0.0,0.45,-0.48,0.64,76.08,25.2,45.7,0.75,0.5,0.5,1.0,3.75,1.0,1.0,0.0,0.25,1.5,1.0,0.75,1.0,0.64,0.7,-0.11,187.14,-2.3,7.5
4.18,2.0,0.0,1.0,0.5,0.0,0.0,0.0,0.0,0.0,0.25,0.25,0.0,0.0,0.39,-0.55,0.64,72.45,28.7,61.0,0.25,0.5,0.5,1.25,3.75,0.5,1.0,0.0,0.25,1.5,1.0,0.75,0.75,0.64,0.7,-0.11,183.88,-2.7,6.6
4.2,2.0,0.0,0.75,0.5,0.0,0.0,0.0,0.0,0.0,0.5,0.5,0.0,0.0,0.33,-0.48,0.64,70.67,24.4,44.8,1.25,0.75,0.5,1.25,3.75,0.5,0.75,0.0,0.25,1.25,1.0,0.75,1.0,0.64,0.7,-0.11,186.37,-4.9,13.9
4.22,2.0,0.0,1.25,0.5,0.0,0.0,0.0,0.0,0.0,0.5,0.25,0.0,0.0,0.39,-0.48,0.64,71.07,26.7,53.2,0.5,0.5,0.5,1.25,3.75,0.5,1.0,0.0,0.25,1.5,1.0,0.75,0.75,0.64,0.7,-0.11,184.34,-3.3,8.3
4.24,2.0,0.0,0.5,0.5,0.0,0.0,0.0,0.0,0.0,0.5,0.5,0.0,0.0,0.39,-0.55,0.7,69.6,23.5,43.7,0.5,0.5,0.5,0.75,3.75,0.0,0.75,0.0,0.25,1.75,1.0,0.75,0.75,0.64,0.7,-0.05,180.39,-3.0,2.9
4.26,2.0,0.0,1.0,0.5,0.0,0.0,0.25,0.0,0.0,0.5,0.25,0.0,0.0,0.33,-0.55,0.64,70.16,26.2,52.1,0.75,0.5,0.5,1.5,3.25,0.5,1.0,0.0,0.25,1.0,1.0,0.75,0.75,0.58,0.7,-0.05,176.38,-5.4,12.5
4.28,2.0,0.0,1.25,0.5,0.0,0.0,0.0,0.0,0.0,0.5,0.0,0.0,0.0,0.33,-0.48,0.64,70.19,27.7,60.7,0.0,0.25,0.5,0.75,3.75,1.0,1.0,0.0,0.25,1.25,1.0,0.75,1.0,0.58,0.7,-0.05,172.41,-0.2,0.6
4.3,1.25,0.0,1.0,0.5,0.0,0.0,0.0,0.0,0.0,0.5,0.0,0.0,0.0,0.33,-0.48,0.64,65.22,25.2,52.6,0.25,0.75,0.5,1.25,3.75,0.75,1.0,0.0,0.25,1.5,1.0,0.75,1.0,0.58,0.7,-0.05,176.14,-2.1,6.6
4.32,1.25,0.0,1.0,0.5,0.0,0.0,0.0,0.0,0.0,0.5,0.25,0.0,0.0,0.27,-0.42,0.64,60.76,24.2,43.7,0.5,0.5,0.5,1.25,3.75,0.5,1.0,0.0,0.25,1.25,1.0,0.75,1.0,0.58,0.7,-0.05,177.62,-3.3,7.5
4.34,1.25,0.0,1.0,0.5,0.0,0.0,0.0,0.0,0.0,0.5,0.0,0.0,0.0,0.27,-0.48,0.64,56.19,25.2,52.6,0.25,0.5,0.5,1.0,3.75,0.5,0.75,0.0,0.25,1.25,1.0,0.75,0.75,0.58,0.7,-0.05,176.64,-2.5,7.0
4.36,1.75,0.0,0.75,0.5,0.0,0.0,0.0,0.0,0.0,0.5,0.5,0.0,0.0,0.27,-0.48,0.64,57.69,23.7,41.6,0.5,0.75,0.5,1.0,3.75,0.5,1.0,0.0,0.25,1.5,1.0,0.75,0.75,0.58,0.7,-0.11,177.64,-3.2,9.1
4.38,2.0,0.0,1.0,0.5,0.0,0.0,0.0,0.0,0.0,0.5,0.0,0.0,0.0,0.39,-0.48,0.7,60.4,27.0,60.7,1.0,0.5,0.5,1.25,3.75,0.5,1.0,0.0,0.25,1.25,1.0,0.75,0.75,0.58,0.7,-0.05,179.88,-4.9,13.3
4.4,1.75,0.0,1.25,0.5,0.0,0.0,0.0,0.0,0.0,0.5,0.25,0.0,0.0,0.45,-0.48,0.77,65.26,26.3,50.8,0.0,0.75,0.5,1.25,3.75,0.5,1.0,0.0,0.25,1.5,1.0,0.75,0.75,0.58,0.7,-0.05,180.0,-2.3,6.8
4.42,1.75,0.0,1.0,0.5,0.0,0.0,0.0,0.0,0.0,0.5,0.0,0.0,0.0,0.39,-0.48,0.77,65.85,26.5,58.3,0.75,0.5,0.5,0.75,3.5,0.5,0.75,0.0,0.25,1.5,1.0,0.75,0.75,0.58,0.7,-0.05,178.18,-3.2,6.5
4.44,2.0,0.0,1.25,0.5,0.0,0.0,0.0,0.0,0.0,0.5,0.0,0.0,0.0,0.33,-0.55,0.7,68.22,27.7,60.7,0.5,0.75,0.5,0.5,3.75,0.75,0.75,0.0,0.25,1.5,1.0,0.75,0.75,0.58,0.7,-0.05,176.86,-1.8,7.3
4.46,2.0,0.0,1.0,0.5,0.0,0.0,0.0,0.0,0.0,0.5,0.0,0.0,0.0,0.39,-0.55,0.7,68.08,27.0,60.7,0.5,0.75,0.5,1.25,3.75,0.5,1.0,0.0,0.25,1.25,1.0,0.75,0.75,0.64,0.7,-0.05,178.69,-3.9,11.9
4.48,1.75,0.0,1.0,0.5,0.0,0.0,0.0,0.0,0.0,0.5,0.0,0.0,0.0,0.33,-0.48,0.77,67.58,26.5,58.3,1.25,0.5,0.5,1.25,3.75,0.5,1.0,0.0,0.25,1.25,1.0,0.75,1.0,0.64,0.7,-0.05,184.01,-5.0,12.4
4.5,1.75,0.0,0.5,0.5,0.0,0.0,0.0,0.0,0.0,0.5,0.0,0.0,0.0,0.27,-0.55,0.77,62.89,24.5,57.9,0.5,0.25,0.5,0.5,3.75,0.5,0.75,0.0,0.25,1.5,1.0,0.75,0.5,0.64,0.7,-0.05,178.41,-2.2,5.2
4.52,1.75,0.0,0.0,0.5,0.0,0.0,0.0,0.0,0.0,0.5,0.25,0.0,0.0,0.2,-0.48,0.7,57.57,21.0,46.2,1.0,0.75,0.5,0.75,3.5,0.5,1.0,0.0,0.25,1.0,1.0,0.75,0.75,0.58,0.7,-0.05,177.2,-5.1,14.1
4.54,2.0,0.0,0.75,0.5,0.0,0.0,0.0,0.0,0.0,0.5,0.5,0.0,0.0,0.2,-0.48,0.7,60.02,24.4,44.8,0.0,0.75,0.5,1.25,3.75,0.5,0.75,0.0,0.0,1.25,1.0,0.75,1.0,0.64,0.7,-0.05,173.13,-1.8,6.7
4.56,2.0,0.0,0.25,0.5,0.0,0.0,0.0,0.0,0.0,0.5,0.5,0.0,0.0,0.2,-0.48,0.7,59.79,22.4,42.5,0.5,0.75,0.5,1.25,3.5,0.5,1.0,0.0,0.25,1.25,1.0,0.75,1.0,0.64,0.7,-0.05,175.94,-3.7,8.4
4.58,2.0,0.0,0.25,0.5,0.0,0.0,0.0,0.0,0.0,0.25,0.0,0.0,0.0,0.2,-0.55,0.77,57.83,27.6,72.4,1.0,0.75,0.5,1.25,3.75,0.5,0.75,0.0,0.25,1.5,1.0,0.75,1.0,0.64,0.7,-0.05,182.2,-4.0,10.7
4.6,2.0,0.0,0.25,0.5,0.0,0.0,0.0,0.0,0.0,0.5,0.5,0.0,0.0,0.27,-0.55,0.77,57.32,22.4,42.5,0.5,0.5,0.5,1.25,3.75,0.25,1.0,0.0,0.25,1.5,1.0,0.75,0.75,0.58,0.7,-0.05,183.36,-3.8,7.8
4.62,1.75,0.0,0.25,0.5,0.0,0.0,0.0,0.0,0.0,0.5,0.25,0.0,0.0,0.27,-0.48,0.77,55.05,22.4,47.4,0.75,1.0,0.5,1.25,3.75,0.25,1.0,0.0,0.25,1.25,1.0,0.75,0.75,0.64,0.7,0.02,186.15,-5.1,14.8
4.64,2.0,0.0,0.25,0.5,0.0,0.0,0.0,0.0,0.0,0.5,0.0,0.0,0.0,0.33,-0.48,0.77,53.83,24.2,60.6,0.75,1.25,0.5,1.25,3.5,0.5,1.0,0.0,0.25,1.5,1.0,0.75,1.0,0.64,0.7,-0.05,189.88,-4.2,11.9
4.66,1.75,0.0,0.25,0.5,0.0,0.0,0.0,0.0,0.0,0.5,0.0,0.0,0.0,0.33,-0.48,0.77,51.68,23.3,57.6,0.25,0.0,0.5,1.25,3.5,0.5,0.75,0.0,0.25,1.5,1.0,0.75,1.0,0.64,0.7,-0.05,184.39,-1.7,-1.5
4.68,1.75,0.0,0.5,0.5,0.0,0.0,0.0,0.0,0.0,0.5,0.0,0.0,0.0,0.33,-0.48,0.83,52.0,24.5,57.9,0.75,0.0,0.5,1.25,3.5,0.25,1.0,0.0,0.25,1.5,1.0,0.75,0.75,0.64,0.7,-0.05,178.66,-4.2,4.4
4.7,1.75,0.0,0.5,0.5,0.0,0.0,0.0,0.0,0.0,0.5,0.0,0.0,0.0,0.33,-0.48,0.77,52.32,24.5,57.9,0.5,0.75,0.5,1.25,3.25,0.0,1.0,0.0,0.25,2.0,1.0,0.75,0.75,0.64,0.7,-0.05,175.29,-4.1,3.6
4.72,1.75,0.0,0.5,0.5,0.0,0.0,0.0,0.0,0.0,0.5,0.0,0.0,0.0,0.33,-0.42,0.77,53.53,24.5,57.9,0.5,0.5,0.5,1.25,3.75,0.5,1.0,0.0,0.0,1.0,1.0,0.75,0.75,0.64,0.7,-0.05,173.68,-3.9,12.9
4.74,1.5,0.0,0.75,0.5,0.0,0.0,0.0,0.0,0.0,0.5,0.0,0.0,0.0,0.27,-0.42,0.77,54.37,24.9,55.2,0.5,0.75,0.5,1.25,3.5,0.5,1.0,0.0,0.25,1.5,1.0,0.75,0.5,0.64,0.7,-0.05,175.49,-4.0,11.7
4.76,1.5,0.0,1.25,0.5,0.0,0.0,0.0,0.0,0.0,0.5,0.0,0.0,0.0,0.27,-0.42,0.77,57.55,26.7,56.0,0.5,0.75,0.5,0.0,3.5,0.25,1.0,0.0,0.25,1.0,1.0,0.75,0.75,0.58,0.7,-0.05,167.68,-3.5,6.5
4.78,1.75,0.0,1.0,0.5,0.0,0.0,0.0,0.0,0.0,0.5,0.0,0.0,0.0,0.27,-0.42,0.77,59.81,26.5,58.3,0.5,0.75,0.5,1.25,3.5,0.5,1.0,0.0,0.25,1.0,1.0,0.75,1.0,0.58,0.7,-0.05,169.42,-4.1,10.1
4.8,1.25,0.0,1.25,0.5,0.0,0.0,0.0,0.0,0.0,0.5,0.0,0.0,0.0,0.27,-0.42,0.77,61.8,26.2,53.2,0.75,0.75,0.5,0.75,3.5,0.5,1.0,0.0,0.25,1.5,1.0,0.75,0.5,0.58,0.7,0.02,168.36,-4.1,11.3
4.82,1.5,0.0,1.25,0.5,0.0,0.0,0.0,0.0,0.0,0.5,0.0,0.0,0.0,0.27,-0.42,0.77,63.66,26.7,56.0,0.5,0.75,0.5,1.25,3.5,0.5,1.0,0.0,0.25,1.5,1.0,0.75,0.75,0.64,0.7,-0.05,173.58,-3.7,9.1
4.84,0.5,0.0,1.25,0.5,0.0,0.0,0.0,0.0,0.0,0.25,0.0,0.0,0.0,0.33,-0.42,1.33,57.27,27.9,53.6,0.25,0.75,0.5,0.5,3.5,0.5,1.0,0.0,0.25,1.5,1.0,0.75,0.75,0.64,0.7,-0.05,172.25,-2.1,3.9
