time,left pressure 0[N/cm²],left pressure 1[N/cm²],left pressure 2[N/cm²],left pressure 3[N/cm²],left pressure 4[N/cm²],left pressure 5[N/cm²],left pressure 6[N/cm²],left pressure 7[N/cm²],left pressure 8[N/cm²],left pressure 9[N/cm²],left pressure 10[N/cm²],left pressure 11[N/cm²],left pressure 12[N/cm²],left acceleration X[g],left acceleration Y[g],left acceleration Z[g],left total force[N],left center of pressure X[mm],left center of pressure Y[mm],right pressure 0[N/cm²],right pressure 1[N/cm²],right pressure 2[N/cm²],right pressure 3[N/cm²],right pressure 4[N/cm²],right pressure 5[N/cm²],right pressure 6[N/cm²],right pressure 7[N/cm²],right pressure 8[N/cm²],right pressure 9[N/cm²],right pressure 10[N/cm²],right pressure 11[N/cm²],right pressure 12[N/cm²],right acceleration X[g],right acceleration Y[g],right acceleration Z[g],right total force[N],right center of pressure X[mm],right center of pressure Y[mm]
0.02,0.0,0.0,0.5,0.0,0.0,0.0,0.0,0.0,0.0,0.5,0.0,0.0,0.0,-0.3,-0.36,1.08,46.28,11.6,-6.2,6.0,0.5,6.75,3.25,5.0,6.0,6.0,6.0,0.5,7.75,5.75,3.5,4.5,0.08,0.14,0.95,932.2,-4.8,-5.9
0.04,0.0,0.0,0.75,0.25,0.0,0.0,0.0,0.0,0.0,0.5,0.0,0.0,0.0,-0.42,-0.61,1.08,34.8,17.0,15.9,4.5,0.5,5.25,0.5,4.75,4.25,3.5,6.0,1.0,7.75,6.75,3.25,5.75,0.08,0.02,0.95,898.16,-2.3,-20.2
0.06,0.5,0.0,0.75,0.25,0.0,0.0,0.0,0.0,0.0,1.25,0.25,0.25,0.0,-0.42,-0.73,1.08,35.41,10.9,-9.8,1.25,0.0,2.75,0.75,1.25,3.25,2.5,5.5,0.25,7.75,6.5,3.75,5.5,0.02,0.2,1.08,779.06,1.5,-44.5
0.08,1.0,0.0,1.0,0.25,0.0,0.0,0.5,0.75,0.25,1.5,1.5,0.0,0.5,-0.36,-0.86,0.95,60.68,8.6,-20.5,1.0,0.0,1.75,0.5,0.5,2.0,2.0,4.25,0.25,8.25,5.5,4.5,6.0,0.27,0.27,1.64,648.83,2.5,-56.9
0.1,0.0,0.0,1.0,1.0,0.0,0.0,0.5,0.75,0.0,1.5,0.75,0.0,0.5,-0.48,-1.17,1.02,79.2,5.1,-21.3,1.25,0.0,1.75,1.5,1.25,3.5,1.5,3.25,0.0,7.0,5.0,3.75,7.0,0.08,0.33,1.89,548.16,2.7,-47.0
0.12,0.0,0.0,1.25,1.25,0.0,0.0,0.5,0.0,0.0,0.25,0.25,0.0,0.0,-0.42,-1.17,0.95,82.03,23.5,37.1,1.25,0.0,3.5,1.25,1.0,3.25,2.0,3.0,0.0,4.25,3.25,2.25,6.25,0.2,0.2,1.77,449.51,-0.2,-33.7
0.14,0.0,0.0,0.0,2.0,0.0,0.0,0.25,0.0,0.0,0.5,0.5,0.0,0.0,-0.55,-1.55,0.45,73.33,11.6,15.7,0.5,0.0,0.75,1.25,0.25,2.0,1.25,3.0,0.25,1.5,1.75,1.25,3.0,0.08,0.33,1.2,324.38,2.4,-35.9
0.16,4.0,0.0,1.75,2.75,0.0,0.0,1.75,0.75,0.0,1.25,0.0,0.0,0.0,-1.86,-3.05,1.52,108.96,21.6,48.1,0.0,0.0,2.25,0.5,0.5,2.0,1.75,3.0,0.0,0.0,1.5,0.5,1.5,-0.36,0.77,0.77,228.79,-2.2,-12.6
0.18,0.0,0.0,5.25,5.25,0.0,0.0,3.5,0.0,0.0,0.75,1.0,0.0,0.0,-2.23,0.95,2.64,156.11,24.7,39.4,0.0,0.0,1.5,0.0,0.25,2.0,1.25,1.75,0.0,0.25,0.25,0.5,1.0,-0.3,3.77,-1.11,119.28,0.7,-10.1
0.2,0.0,0.75,6.75,6.0,0.0,0.0,5.5,0.0,0.0,0.0,0.0,0.0,0.0,-0.61,0.2,1.7,213.51,28.1,56.2,0.0,0.0,0.5,0.5,1.0,0.75,1.25,1.5,0.0,0.0,0.25,0.25,1.0,-1.3,2.27,1.33,29.97,0.9,-8.0
0.22,0.0,1.25,0.0,7.5,0.0,0.0,6.75,0.75,0.0,0.0,0.25,0.0,0.0,-0.23,0.14,1.52,238.05,18.4,46.6,0.0,0.0,1.25,0.5,0.5,1.5,1.25,1.5,0.0,0.0,0.25,0.0,1.0,-0.11,1.77,1.02,0.0,-0.9,2.0
0.24,0.0,0.0,0.0,2.0,0.0,2.75,5.0,0.0,0.5,2.0,0.0,0.75,0.0,-0.11,0.08,1.08,230.86,3.4,2.2,0.0,0.0,0.75,0.25,0.5,1.5,1.25,1.5,0.0,0.0,0.25,0.25,1.0,0.2,1.64,0.52,0.0,2.3,-8.8
0.26,8.0,1.0,8.5,7.75,4.0,1.75,7.75,2.5,1.75,2.75,2.0,1.0,1.25,-0.17,0.02,1.02,367.69,16.4,31.6,0.5,0.0,2.0,0.75,1.5,2.0,1.0,3.0,0.25,1.5,0.75,1.0,1.75,-0.11,1.2,1.02,28.64,0.2,-13.6
0.28,7.75,1.25,8.0,7.0,3.0,1.5,7.25,2.5,1.5,2.25,2.25,0.75,1.25,-0.11,0.08,0.95,514.11,17.0,32.1,0.5,0.0,2.75,0.25,1.0,1.75,1.25,2.75,0.0,0.75,0.5,0.75,1.75,-0.3,0.95,1.27,78.13,-2.6,-8.2
0.3,7.25,1.0,7.5,5.75,0.0,1.5,6.5,2.5,1.0,2.25,2.5,0.75,1.25,-0.11,0.08,0.95,632.13,18.4,27.7,0.25,0.0,0.5,0.75,0.5,2.0,1.25,2.75,0.0,1.5,0.5,0.75,1.75,-0.3,0.89,1.39,115.14,5.6,-27.3
0.32,6.75,1.0,6.75,3.0,0.0,1.25,5.75,2.25,0.75,2.25,0.0,0.75,1.25,-0.11,0.08,0.95,614.76,18.8,32.5,0.0,0.0,2.75,0.5,1.0,2.0,1.25,2.75,0.5,1.5,0.5,1.25,1.25,-0.3,0.77,1.7,143.68,-1.6,-14.0
0.34,0.0,0.0,0.0,0.0,0.0,0.0,4.75,2.25,0.0,0.0,1.75,0.0,1.0,-0.11,0.08,0.95,435.05,5.5,-36.6,0.5,0.25,2.5,0.5,1.0,2.0,1.25,2.75,0.25,2.0,0.75,0.75,1.5,-0.05,0.58,1.77,172.13,-1.1,-11.1
0.36,5.25,0.75,0.0,2.0,0.0,1.25,3.25,2.25,0.75,2.25,1.5,0.75,1.0,-0.11,0.08,0.95,333.26,9.7,8.9,0.0,0.0,2.5,0.0,1.0,1.0,1.25,2.5,0.0,0.0,0.5,0.0,1.5,0.08,0.45,1.64,174.95,-3.5,-3.6
0.38,4.5,0.5,0.0,2.0,0.0,0.75,2.0,2.5,0.75,2.75,2.5,0.75,1.25,-0.11,0.08,0.95,270.63,7.5,-5.5,0.0,0.0,0.0,0.25,0.0,1.0,0.25,1.5,0.0,0.0,0.0,0.0,1.0,0.27,0.33,1.33,146.75,13.6,-31.3
0.4,4.0,0.0,1.0,2.25,0.0,1.25,1.5,3.0,0.75,4.0,0.0,1.5,1.5,-0.11,0.08,0.95,261.02,4.7,-7.8,0.0,0.0,0.5,0.0,0.0,0.75,0.25,1.5,0.0,0.0,0.0,0.0,0.75,0.39,0.08,1.2,106.89,7.8,-23.3
0.42,3.5,0.0,0.5,2.0,0.0,1.25,1.0,4.25,0.75,4.75,0.75,1.75,2.25,-0.17,0.08,0.95,260.4,0.6,-23.8,0.0,0.0,0.25,0.0,0.0,0.75,0.25,1.5,0.0,0.0,0.0,0.0,0.75,0.45,-0.17,1.14,68.94,11.3,-29.7
0.44,0.0,0.0,0.0,2.0,0.0,1.25,0.75,4.5,0.75,5.25,2.5,2.5,3.5,-0.17,0.08,0.95,276.29,-5.7,-56.5,0.25,0.25,2.25,0.5,1.0,2.0,1.0,2.0,0.25,1.5,0.5,0.75,1.5,0.33,-0.48,1.2,96.61,-1.0,-9.6
0.46,0.0,0.0,0.75,1.75,0.0,0.75,0.75,4.75,0.75,6.25,3.75,3.0,4.0,-0.17,0.08,0.95,294.62,-3.9,-59.3,0.0,0.0,1.75,0.0,1.0,0.75,0.25,1.5,0.0,0.0,0.0,0.0,0.75,0.14,-0.73,1.14,95.84,-2.8,9.2
0.48,0.0,0.0,1.25,2.0,0.0,0.75,0.5,5.0,0.5,6.25,3.25,3.0,5.0,-0.17,0.08,0.95,312.08,-3.9,-57.9,0.0,0.0,0.25,0.25,0.0,1.0,0.25,1.5,0.0,0.0,0.0,0.5,0.75,-0.11,-0.98,0.7,90.54,7.9,-30.1
0.5,0.0,0.0,1.0,1.75,0.0,0.75,0.5,5.0,0.75,6.75,4.0,3.75,5.5,-0.17,0.08,0.95,335.47,-4.0,-62.8,0.0,0.0,0.5,0.5,0.25,2.0,1.25,1.5,0.25,1.5,0.25,0.75,1.0,-0.3,-2.36,0.83,88.34,5.1,-26.0
0.52,0.0,0.0,0.75,2.0,0.0,0.0,0.5,5.0,0.0,7.0,4.75,4.0,6.0,-0.17,0.08,0.95,381.97,-4.0,-67.3,0.0,0.0,2.25,0.5,1.0,0.75,1.25,1.5,0.25,1.5,0.25,0.75,0.75,0.33,-2.42,1.52,106.72,-4.8,-8.9
0.54,1.25,0.0,1.5,1.25,0.0,0.0,0.5,5.0,0.75,7.0,4.75,4.0,6.5,-0.17,0.08,1.02,435.17,-1.8,-61.3,1.25,0.5,3.0,1.75,1.0,2.0,1.25,1.5,0.25,0.0,0.25,0.0,1.25,1.52,-2.55,0.7,143.35,-9.7,27.7
0.56,0.0,0.0,1.0,1.0,0.0,0.0,0.5,4.75,0.5,7.5,4.0,4.25,6.5,-0.17,0.08,1.02,465.86,-4.6,-71.4,2.25,0.5,5.25,5.25,0.5,2.0,4.5,1.5,0.0,1.25,0.25,1.0,1.25,-0.67,0.77,2.14,220.61,-15.1,27.2
0.58,0.0,0.0,1.25,1.0,0.0,0.0,0.5,4.25,0.75,7.0,0.0,4.75,7.0,-0.23,0.08,1.14,463.08,-5.8,-71.2,4.0,1.5,7.0,7.25,5.25,4.25,6.25,1.5,0.25,1.5,0.25,1.0,1.25,0.2,-0.05,2.52,354.85,-12.5,38.3
0.6,0.0,0.0,0.75,1.25,0.0,0.0,0.0,4.0,0.0,7.0,0.0,4.75,7.25,-0.36,0.08,1.08,422.22,-7.3,-75.1,5.0,2.25,7.75,7.5,8.25,7.25,7.0,1.5,0.25,1.25,0.25,0.75,1.5,0.2,0.27,1.89,562.3,-10.3,42.2
0.62,0.0,0.0,0.75,0.75,0.0,0.0,0.0,2.5,0.0,7.0,0.0,4.0,6.75,-0.17,0.08,1.27,380.18,-7.6,-78.8,5.25,2.0,8.0,7.5,9.25,7.75,0.0,2.75,0.0,0.25,0.25,0.75,1.0,0.14,0.14,1.39,740.16,-8.4,46.0
0.64,0.0,0.0,0.0,0.0,0.0,0.0,0.5,2.5,0.0,6.0,0.0,5.0,7.0,-0.36,0.08,1.27,345.95,-8.7,-89.9,5.5,2.0,7.75,7.25,9.5,8.0,8.5,4.25,0.25,2.25,0.25,0.75,1.25,0.14,0.2,1.02,907.11,-8.3,36.8
0.66,0.0,0.0,0.0,0.5,0.0,0.0,0.0,1.25,0.0,5.75,2.5,3.25,6.5,-0.36,0.02,1.33,312.85,-7.0,-86.8,5.25,3.0,8.25,7.5,9.5,8.5,8.75,6.25,0.25,3.25,1.75,1.0,1.75,0.14,0.2,1.08,1056.69,-7.0,29.1
0.68,0.0,0.0,1.0,0.25,0.0,0.0,0.0,0.75,0.0,3.5,2.25,1.75,3.5,-0.36,0.02,1.58,264.04,-2.6,-74.0,5.25,3.0,7.75,7.25,9.25,8.5,8.75,6.75,0.5,3.0,1.75,1.0,2.0,0.08,0.08,1.02,1160.65,-6.6,27.7
0.7,0.0,0.0,0.0,0.75,0.0,0.0,0.0,0.75,0.0,2.0,0.75,0.0,0.0,-0.3,0.14,1.58,177.9,-5.3,-44.4,3.75,1.5,7.5,6.25,9.25,8.0,8.0,5.75,0.0,1.25,0.0,0.25,1.0,0.14,0.08,0.95,1142.6,-6.8,36.7
0.72,0.0,0.0,0.0,0.25,0.0,0.0,0.0,0.5,0.0,0.5,0.0,0.0,0.0,-0.11,0.14,1.27,77.79,-9.3,-33.2,3.0,1.5,6.75,5.5,8.25,7.75,7.5,5.5,0.25,0.25,0.25,0.25,1.0,0.08,0.14,1.02,1044.31,-6.6,36.4
0.74,0.25,0.0,0.0,0.0,0.0,0.0,0.0,0.75,0.0,2.0,0.0,0.0,1.0,0.08,1.52,0.58,10.11,-12.4,-67.3,1.5,1.25,5.0,4.0,8.0,7.75,7.0,5.5,0.0,0.0,0.25,0.0,1.0,0.08,0.14,0.95,873.39,-3.6,33.9
0.76,0.0,0.0,1.0,0.25,0.0,0.0,0.5,0.75,0.25,0.25,0.0,0.0,1.5,0.58,2.52,0.52,0.0,3.9,-33.0,1.0,1.0,5.25,3.25,8.25,7.5,6.0,4.25,0.25,0.0,0.0,0.25,0.75,0.08,0.14,0.89,718.21,-3.7,35.3
0.78,0.0,0.0,0.75,0.25,0.0,0.0,0.0,0.0,0.5,2.0,0.0,0.25,0.5,0.27,1.64,1.27,0.0,0.8,-44.6,0.25,0.5,3.0,3.25,7.0,7.5,5.0,4.25,0.25,0.0,0.0,0.25,0.75,0.08,0.14,0.89,565.01,-0.1,30.1
0.8,1.25,0.0,1.25,0.25,0.0,0.0,0.5,0.75,0.25,2.25,0.0,0.25,0.75,0.45,1.45,1.14,3.43,6.7,-14.7,0.0,0.5,2.75,3.25,6.75,7.75,4.0,4.0,0.25,0.0,0.0,0.0,0.0,0.08,0.14,0.89,447.35,0.7,34.8
0.82,0.0,0.0,0.75,0.5,0.0,0.0,0.5,0.75,0.0,1.75,0.25,0.5,1.0,0.14,1.33,0.77,22.16,-0.1,-45.3,0.25,0.5,2.25,3.25,6.5,7.75,3.25,3.75,0.25,0.0,0.0,0.25,0.0,0.08,0.14,0.89,364.66,1.3,34.1
0.84,0.0,0.0,1.25,0.25,0.0,0.0,0.5,0.75,0.5,2.0,0.75,0.0,0.0,0.08,1.08,0.83,34.46,5.4,-26.7,0.75,1.0,3.25,3.25,7.75,8.75,2.5,4.25,0.25,0.5,0.25,0.75,1.25,0.08,0.2,0.89,355.66,1.1,26.7
0.86,0.0,0.0,1.25,0.5,0.0,0.0,0.5,0.75,0.25,1.5,0.75,0.0,0.75,0.14,0.83,1.02,46.57,4.9,-29.1,0.25,1.0,2.5,2.75,8.0,9.0,2.5,4.75,0.25,1.5,0.25,0.75,1.0,0.14,0.14,0.89,365.85,3.5,21.8
0.88,0.0,0.0,1.0,0.5,0.0,0.0,0.5,0.75,0.5,1.0,0.75,0.0,0.5,0.08,0.64,1.33,54.9,6.5,-25.6,0.5,0.75,2.5,2.0,7.0,9.0,2.25,6.25,0.25,1.5,0.25,0.75,1.0,0.14,0.14,0.95,379.34,4.6,17.1
0.9,0.0,0.0,1.0,1.25,0.0,0.0,0.5,0.0,0.25,2.0,0.75,0.0,0.5,0.02,0.52,1.52,68.57,6.9,-20.8,0.0,0.75,2.5,1.25,6.75,8.5,1.75,7.5,0.0,2.5,0.5,0.5,1.5,0.2,0.14,0.95,390.95,6.7,8.3
0.92,0.0,0.0,1.25,0.5,0.0,0.0,0.5,0.75,0.25,1.5,0.0,0.0,0.25,-0.23,0.33,1.45,78.49,6.1,-13.4,0.25,0.75,0.5,1.75,5.25,8.75,1.0,8.25,0.0,6.25,0.5,1.75,1.75,0.14,0.08,1.02,418.25,9.9,-9.8
0.94,0.0,0.0,1.0,0.25,0.0,0.0,0.5,0.75,0.25,1.75,0.75,0.0,0.5,-0.42,0.14,1.27,88.04,2.7,-35.8,0.25,0.5,2.25,1.5,6.0,8.5,1.25,9.25,0.0,8.0,3.75,3.0,4.5,0.08,0.08,0.95,509.19,6.8,-22.7
0.96,0.0,0.0,1.0,0.25,0.0,0.0,0.25,0.75,0.25,2.0,0.75,0.0,0.75,-0.48,-0.11,1.2,89.34,0.6,-42.0,0.0,0.0,0.5,0.5,5.0,7.5,0.25,9.5,0.0,7.75,4.0,2.5,5.5,0.08,0.08,1.02,566.04,10.2,-35.2
0.98,0.0,0.0,1.0,0.25,0.0,0.0,0.25,0.75,0.25,1.75,0.75,0.0,0.25,-0.48,-0.23,1.27,84.96,2.9,-33.5,0.0,0.0,0.5,0.25,1.75,7.0,0.25,9.0,0.0,8.0,2.75,2.75,5.75,0.08,0.08,1.02,590.45,11.4,-45.4
1.0,0.0,0.0,1.0,0.5,0.0,0.0,0.25,0.75,0.5,2.0,0.75,0.0,0.0,-0.48,-0.48,1.33,84.21,3.9,-27.9,0.0,0.0,0.75,0.75,0.5,6.5,0.25,9.0,0.0,8.0,2.75,3.0,6.25,0.2,0.08,1.02,581.03,10.8,-49.4
1.02,0.0,0.0,1.0,1.0,0.0,0.0,0.5,0.75,0.25,2.0,0.75,0.0,0.5,-0.48,-0.55,1.39,87.23,3.8,-26.0,0.0,0.0,0.5,0.5,1.5,6.0,0.25,8.5,0.0,8.25,2.75,3.5,6.25,0.27,0.08,1.02,569.25,10.6,-49.9
1.04,1.75,0.0,1.0,0.25,0.0,0.0,0.25,0.75,0.25,1.5,0.75,0.0,0.5,-0.48,-0.55,1.33,92.94,10.7,-3.2,0.25,0.5,0.0,0.5,1.0,5.75,0.25,7.75,0.25,8.25,3.75,4.0,6.75,0.27,0.02,0.95,561.24,9.7,-52.9
1.06,1.0,0.0,1.0,0.75,0.0,0.0,0.5,0.75,0.5,1.5,0.75,0.0,1.0,-0.61,-0.48,1.14,102.84,7.6,-16.4,0.0,0.5,0.5,0.75,2.25,5.0,0.25,7.75,0.0,8.0,3.0,3.5,7.75,0.33,0.08,1.02,562.31,9.5,-49.5
1.08,0.0,0.0,0.75,0.5,0.0,0.0,0.5,0.75,0.5,2.0,0.75,0.0,1.0,-0.55,-0.36,0.95,106.41,0.3,-43.3,0.25,0.5,1.25,0.75,2.25,4.25,0.25,7.0,0.25,7.5,2.75,3.5,7.5,0.2,0.08,1.2,555.46,7.7,-47.2
1.1,0.0,0.0,1.0,1.0,0.0,0.0,0.5,0.75,0.25,1.25,0.75,0.0,1.0,-0.42,-0.17,0.7,104.8,4.7,-27.0,0.25,0.5,1.25,0.75,1.5,4.25,0.25,6.25,0.25,7.25,2.75,3.5,7.25,0.33,0.02,1.02,537.06,7.6,-49.1
1.12,0.0,0.0,0.75,0.0,0.0,0.0,0.5,0.0,0.5,0.75,0.75,0.0,0.0,-0.48,-0.48,0.52,84.9,13.2,-25.7,0.0,0.5,1.0,0.75,1.75,4.0,0.25,6.0,0.25,6.25,2.5,3.0,6.75,0.27,-0.05,1.14,498.63,8.1,-47.9
1.14,0.0,0.0,0.5,1.5,0.0,0.0,0.5,0.0,0.0,1.0,0.0,0.0,0.0,-0.17,-1.48,0.45,68.85,11.6,16.0,0.0,0.5,1.5,0.75,2.5,3.5,0.25,5.5,0.25,5.5,2.0,2.5,6.0,0.27,-0.05,1.2,448.83,7.0,-41.1
1.16,0.0,0.0,0.0,2.0,0.0,0.0,1.5,0.0,0.0,1.0,0.75,0.0,0.0,-0.8,-3.3,1.89,61.74,11.3,2.3,0.0,0.0,0.5,0.5,0.5,2.0,0.25,4.5,0.0,1.75,0.25,0.75,3.25,0.33,-0.05,1.27,330.78,10.7,-43.2
1.18,0.0,0.5,3.5,4.0,0.0,0.0,3.0,0.0,0.0,0.5,0.5,0.0,0.0,-1.23,-1.17,3.08,97.48,24.2,44.5,0.0,0.5,1.0,0.5,1.5,3.0,0.5,4.5,0.25,1.75,1.25,0.75,2.75,0.33,0.14,1.64,262.86,6.9,-25.3
1.2,0.0,0.0,0.0,3.5,0.0,0.0,4.5,0.75,0.0,0.0,0.75,0.0,0.0,-0.23,0.27,1.33,112.52,17.5,25.6,0.25,0.25,0.5,0.5,1.25,2.0,0.5,4.25,0.0,1.25,0.75,0.75,2.75,0.14,1.89,0.7,202.73,7.7,-30.0
1.22,4.0,1.0,0.0,6.0,0.0,2.75,1.25,0.0,0.0,2.25,0.0,0.75,0.0,-0.23,0.08,1.14,177.26,10.6,39.7,0.25,0.25,1.5,0.5,2.75,2.25,0.75,4.25,0.25,1.5,0.5,0.75,2.25,-0.3,1.95,0.83,184.34,4.4,-13.2
1.24,5.5,1.0,5.5,5.0,3.5,1.5,6.25,4.25,1.75,5.25,2.5,3.0,2.5,0.08,-0.36,1.2,324.55,9.7,4.0,0.0,0.5,1.5,0.75,1.75,2.0,1.0,4.25,0.25,1.5,0.25,1.0,2.0,-0.92,1.14,1.02,168.88,3.8,-16.0
1.26,4.5,1.0,6.0,4.75,1.5,1.5,6.5,4.75,1.75,5.25,3.75,3.0,3.75,-0.17,-0.17,1.02,493.46,9.2,-5.9,0.0,0.0,0.0,0.0,0.5,1.75,0.25,3.0,0.0,0.25,0.0,0.0,1.0,-0.17,1.27,0.77,126.35,15.7,-23.8
1.28,4.5,1.0,6.0,4.5,0.0,1.25,6.5,4.25,1.5,4.75,0.0,3.0,3.75,-0.11,0.08,0.95,610.99,10.5,-1.1,0.0,0.0,0.0,0.0,0.25,1.75,0.25,3.0,0.0,0.0,0.0,0.25,1.0,-0.05,0.95,0.52,78.27,15.3,-28.6
1.3,5.5,1.0,6.0,4.75,0.0,1.25,6.5,4.25,1.75,4.25,4.0,3.0,3.75,-0.11,0.08,0.95,686.17,11.4,-4.7,0.25,0.5,1.75,0.5,1.5,2.0,0.75,3.25,0.25,1.5,0.25,0.75,1.0,-0.17,0.64,0.77,79.13,1.7,-5.7
1.32,3.5,0.75,6.25,4.0,0.0,0.5,6.25,3.5,1.5,3.25,2.75,3.0,2.5,-0.11,0.08,0.95,663.62,13.2,-3.4,0.0,0.0,0.0,0.0,2.25,1.25,0.25,2.75,0.25,1.5,0.0,0.5,1.0,-0.05,0.45,1.02,80.74,10.8,-21.5
1.34,4.0,0.5,0.0,4.0,0.0,0.0,6.0,2.5,1.5,3.75,2.5,2.25,3.5,-0.11,0.08,0.95,573.63,7.9,-19.1,0.25,0.25,0.75,0.5,1.25,2.0,0.75,3.0,0.25,1.5,0.5,0.75,1.75,0.08,0.33,1.02,111.49,5.2,-20.9
1.36,3.0,0.0,0.0,3.25,0.0,0.0,5.5,2.5,1.25,4.0,2.5,1.75,3.5,-0.11,0.14,0.95,473.83,5.9,-27.6,0.0,0.5,1.5,0.5,1.0,2.0,0.75,3.0,0.25,1.5,0.5,0.75,1.75,0.08,0.27,1.08,140.04,3.2,-17.7
1.38,3.0,0.0,0.0,2.75,0.0,0.0,5.0,2.5,0.75,4.0,2.5,1.75,2.5,-0.11,0.14,0.95,388.46,6.1,-26.1,0.25,0.5,1.0,0.5,1.0,2.0,0.75,3.0,0.25,1.5,0.5,0.75,1.75,0.14,0.14,1.2,165.22,4.1,-18.7
1.4,3.0,0.0,0.0,2.5,0.0,0.0,4.75,2.25,1.25,3.5,0.75,1.75,2.5,-0.11,0.14,0.95,319.3,6.4,-22.3,0.0,0.25,1.25,0.5,1.5,2.0,1.0,3.25,0.25,1.5,0.5,1.0,1.75,0.2,0.02,1.33,183.85,3.9,-19.9
1.42,3.0,0.0,1.25,2.5,0.0,0.0,4.5,2.25,1.0,4.0,2.5,2.25,2.75,-0.11,0.14,0.95,288.93,7.6,-25.5,0.25,0.5,0.0,0.5,0.5,2.0,0.75,3.25,0.25,1.5,0.5,0.75,1.75,0.27,0.02,1.27,181.18,8.0,-29.3
1.44,4.0,0.0,1.5,2.25,0.0,0.0,4.25,2.5,1.25,4.0,3.25,3.0,3.5,-0.11,0.14,0.95,288.29,8.0,-27.8,0.25,0.5,1.0,0.5,1.25,2.0,0.75,3.0,0.25,1.5,0.25,0.75,1.75,0.33,-0.05,1.2,186.63,4.4,-16.1
1.46,3.25,0.0,2.0,2.25,0.0,0.0,4.25,2.5,1.25,5.25,3.25,3.0,4.5,-0.11,0.14,0.95,295.67,6.1,-34.2,0.0,0.0,1.0,0.0,0.5,0.75,0.75,3.0,0.0,0.0,0.25,0.25,1.0,0.45,-0.3,1.2,158.82,3.7,-20.4
1.48,4.0,0.0,1.5,2.5,0.0,0.0,3.75,2.5,1.25,5.25,3.5,4.0,5.0,-0.11,0.08,0.95,316.09,5.9,-36.5,0.25,0.25,0.25,0.5,0.25,2.0,0.25,3.0,0.25,1.5,0.75,1.0,2.5,0.2,2.64,5.45,165.71,7.8,-40.3
1.5,4.0,0.0,0.75,2.25,0.0,0.0,3.5,2.5,1.5,5.75,0.0,4.0,5.75,-0.11,0.08,0.95,339.79,3.3,-38.3,0.5,0.5,1.75,0.5,1.0,2.0,0.75,3.0,0.25,1.5,0.25,0.75,1.75,2.02,0.27,0.64,176.88,1.4,-11.5
1.52,4.0,0.0,1.0,2.0,0.0,0.0,3.5,3.0,1.25,6.25,5.0,4.5,6.25,-0.11,0.08,0.95,387.82,3.7,-46.1,0.25,0.25,1.0,0.5,1.5,2.0,0.75,3.0,0.25,1.5,0.5,0.75,1.75,0.52,0.52,1.45,187.28,4.4,-17.8
1.54,2.5,0.0,0.75,2.25,0.0,0.0,3.0,2.75,1.5,6.25,5.25,4.75,6.5,-0.11,0.08,0.95,425.19,2.2,-53.7,0.25,0.25,1.0,0.5,0.0,2.0,0.25,2.75,0.25,1.0,0.75,0.75,1.0,1.2,1.95,-1.48,175.72,3.6,-22.0
1.56,0.0,0.0,0.75,2.0,0.0,0.0,2.75,3.0,0.75,6.5,5.5,4.75,6.5,-0.11,0.08,0.95,463.49,-0.8,-66.9,0.25,0.25,1.5,0.5,1.0,2.0,0.75,3.25,0.0,3.25,1.0,2.25,3.25,0.89,0.2,1.64,207.16,4.0,-39.3
1.58,0.0,0.0,1.5,2.0,0.0,0.0,2.0,2.5,1.0,6.0,4.0,4.75,6.5,-0.11,0.08,0.95,467.68,-0.1,-64.4,0.25,0.25,1.5,0.5,1.0,2.0,0.75,4.0,0.0,5.75,1.75,3.75,5.5,0.02,-0.17,0.95,261.74,5.2,-53.7
1.6,0.0,0.0,1.75,2.0,0.0,0.0,1.5,2.5,1.0,6.25,4.5,4.75,6.5,-0.11,0.14,0.95,464.66,0.0,-64.3,0.25,0.5,0.75,0.5,1.0,2.0,0.75,4.25,0.0,7.75,2.75,6.0,8.25,-0.61,-0.05,0.95,357.03,6.0,-65.1
1.62,0.0,0.0,2.5,2.0,0.0,0.0,1.25,2.5,1.0,6.5,4.0,5.0,7.0,-0.11,0.08,0.95,459.53,0.2,-62.6,0.0,0.5,1.5,0.5,0.5,2.0,0.75,5.5,0.25,8.75,4.0,7.0,9.75,0.33,0.08,0.95,495.32,5.3,-67.7
1.64,2.5,0.0,0.75,1.25,0.0,0.0,1.0,2.5,0.0,6.75,0.0,5.5,7.25,-0.23,0.14,1.58,431.37,-1.9,-61.4,0.25,0.5,0.75,0.5,2.5,2.0,1.0,5.75,0.0,9.5,3.5,7.0,9.75,0.08,0.02,1.02,626.76,6.2,-62.4
1.66,0.0,0.0,1.5,1.5,0.0,0.0,0.75,1.75,0.5,5.75,2.75,5.0,7.25,-0.23,0.2,1.27,405.74,-1.7,-71.2,0.25,0.5,1.25,0.5,1.25,2.0,0.75,5.5,0.0,8.25,4.0,6.0,11.0,0.02,0.14,1.33,703.92,5.9,-65.4
1.68,0.0,0.0,0.75,1.75,0.0,0.0,0.75,1.0,0.75,4.25,0.0,2.0,6.5,-0.3,0.27,1.52,339.55,-4.2,-66.8,0.25,0.0,0.75,0.5,1.25,2.0,0.75,5.5,0.25,6.0,2.5,4.25,8.75,0.58,0.14,1.27,674.98,7.1,-63.1
1.7,0.0,0.0,1.25,0.0,0.0,0.0,4.0,4.5,0.5,2.0,0.0,0.0,2.75,-0.3,0.08,1.39,268.03,-2.1,-40.2,0.25,0.25,1.25,0.5,0.25,2.0,0.75,4.25,0.0,3.25,0.75,3.0,5.75,2.2,0.7,0.2,555.29,6.0,-54.4
1.72,0.0,0.0,0.75,0.0,0.0,0.0,0.0,0.0,0.0,0.0,0.0,0.75,0.0,-1.55,-0.11,1.14,154.83,23.8,-22.9,0.25,0.0,1.25,0.5,1.25,2.0,1.0,3.25,0.25,3.0,0.75,2.25,4.5,2.02,0.45,-0.73,421.06,5.0,-44.3
1.74,0.0,0.0,0.75,1.5,0.0,0.0,0.0,0.0,0.0,0.0,0.0,0.0,0.0,-1.17,-1.61,0.7,59.73,24.1,58.9,0.25,0.5,1.0,0.5,1.5,2.25,0.75,3.0,0.25,2.5,0.5,1.5,4.25,-5.3,-1.48,1.7,327.46,5.7,-35.1
1.76,0.0,0.0,0.0,0.25,0.0,0.0,0.0,0.0,0.0,0.5,0.0,0.0,0.0,0.08,-2.11,1.39,0.0,-4.3,-29.6,0.0,0.0,0.5,0.5,0.0,3.25,1.0,3.0,0.25,3.0,0.0,2.25,2.5,0.77,0.7,1.64,267.18,8.6,-44.8
1.78,0.0,0.0,0.0,0.0,0.0,0.0,0.25,0.0,0.5,2.25,0.25,0.0,1.0,-0.55,-1.3,2.33,0.0,-8.9,-76.6,0.0,0.0,1.5,0.5,3.25,6.0,1.25,4.0,0.0,1.5,0.25,1.0,2.75,0.33,0.2,1.64,249.26,7.9,-7.9
1.8,0.0,0.0,1.0,1.0,0.0,0.0,0.5,0.75,0.5,1.75,1.25,0.0,1.25,0.02,1.33,1.2,0.0,3.4,-36.2,1.25,0.75,3.75,2.0,4.25,6.25,3.0,5.25,0.0,1.5,0.75,0.75,2.25,0.39,0.14,1.14,276.63,0.0,11.1
1.82,0.0,0.0,0.75,1.0,0.0,0.0,0.5,0.75,0.25,1.25,1.5,0.0,1.25,0.39,3.89,0.64,6.11,3.4,-38.2,3.75,0.75,5.0,2.0,5.25,6.0,4.25,4.25,0.0,2.0,0.75,1.5,3.0,0.02,0.02,1.08,340.56,-4.2,15.0
1.84,0.0,0.0,1.0,1.25,0.0,0.0,0.5,0.75,0.75,2.25,1.25,0.0,1.25,0.89,3.45,0.83,38.0,2.9,-35.7,5.25,0.75,6.0,2.0,5.25,5.25,4.5,4.25,0.0,2.25,0.75,1.5,3.0,0.2,0.14,0.89,420.5,-6.7,18.3
1.86,0.0,0.0,1.0,0.25,0.0,0.0,0.5,0.75,0.0,0.75,0.75,0.0,1.0,1.89,2.58,0.39,42.26,4.3,-35.3,5.25,0.75,5.5,1.75,4.5,5.25,4.25,4.25,0.0,2.25,1.5,1.25,3.25,0.08,0.2,0.45,489.76,-6.3,14.8
1.88,0.0,0.0,0.75,0.5,0.0,0.0,0.5,0.75,0.5,1.25,0.5,0.0,1.0,1.39,1.14,-0.05,52.83,2.0,-37.5,5.75,0.75,6.0,2.0,5.25,6.0,4.75,4.25,0.5,4.5,1.75,2.5,2.75,-0.55,0.27,0.7,576.15,-5.8,9.9
1.9,0.0,0.0,0.75,0.25,0.0,0.0,0.5,0.75,0.0,0.75,0.75,0.0,1.0,0.89,-1.11,-0.3,52.33,2.4,-40.8,5.25,0.75,6.25,1.75,4.5,6.0,4.5,4.5,0.25,4.25,3.25,2.25,3.75,0.02,0.02,1.27,643.21,-5.3,3.8
1.92,0.0,0.0,0.0,0.25,0.0,0.0,0.5,0.0,0.0,0.75,0.0,0.0,0.0,0.14,-1.92,0.14,46.85,0.3,-27.9,4.75,0.75,5.5,1.25,4.5,6.25,3.0,4.5,0.0,5.5,3.0,2.75,3.75,0.08,0.14,0.83,695.54,-3.1,-1.8
1.94,0.0,0.0,0.0,0.75,0.0,0.0,0.5,0.0,0.0,0.75,0.0,0.0,0.25,0.02,-1.36,-0.17,40.53,2.9,-16.1,3.75,0.5,5.25,0.5,4.75,6.25,2.25,5.0,0.25,7.0,4.75,3.0,4.5,0.08,0.08,0.95,731.99,-1.0,-13.5
1.96,0.0,0.0,0.75,0.25,0.0,0.0,0.5,0.75,0.0,2.25,0.0,0.0,2.25,-0.73,-2.23,-1.11,62.36,-5.7,-58.3,2.75,0.25,3.0,0.5,1.75,6.0,1.25,5.5,0.0,8.25,6.0,3.5,5.25,0.08,0.14,0.95,718.24,2.2,-33.3
1.98,0.0,0.0,0.75,0.5,0.0,0.0,0.25,0.0,0.25,2.25,0.25,0.75,2.75,-1.36,-0.55,0.77,85.16,-2.5,-65.9,1.25,0.0,2.5,0.5,2.25,4.25,1.25,5.5,0.0,8.75,6.5,4.0,5.75,-0.05,0.02,1.2,692.76,3.3,-43.9
2.0,0.0,0.0,0.0,1.0,0.0,0.0,0.0,0.25,0.5,2.25,0.0,0.0,1.75,-0.92,1.27,0.95,96.99,-6.8,-57.4,0.25,0.0,1.25,0.5,1.0,4.0,0.5,5.25,0.0,9.5,7.0,4.25,6.25,0.2,0.02,0.95,653.43,5.8,-57.7
2.02,0.0,0.0,1.0,1.0,0.0,0.0,0.25,0.0,0.25,2.25,0.5,1.0,2.5,-1.92,1.39,0.45,114.35,0.8,-55.0,0.25,0.0,0.25,0.0,1.25,2.75,0.0,4.25,0.0,8.5,6.75,3.5,6.75,0.14,-0.05,1.14,589.9,7.1,-65.4
2.04,0.0,0.0,0.0,1.0,0.0,0.0,0.5,0.75,0.0,1.75,1.5,1.0,3.5,-1.55,-0.3,3.27,132.91,-3.9,-72.0,0.25,0.0,0.75,0.5,1.5,3.25,0.25,4.25,0.0,9.0,6.5,4.25,6.75,0.52,-0.73,1.33,549.78,6.1,-60.4
2.06,0.0,0.0,0.0,0.5,0.0,0.0,0.5,0.75,0.0,3.75,1.5,1.25,3.75,-0.55,0.27,2.33,161.77,-6.8,-80.0,0.0,0.0,0.75,0.5,1.75,3.0,0.0,3.0,0.0,8.0,5.5,3.5,6.75,1.39,-2.17,1.89,500.14,6.5,-60.3
2.08,0.0,0.0,0.75,0.5,0.0,0.0,0.5,0.75,0.25,3.75,1.75,1.25,3.75,-1.67,0.27,1.45,188.5,-3.4,-70.8,0.0,0.0,0.5,0.5,0.5,3.0,0.0,3.0,0.0,6.75,4.75,2.25,6.0,1.77,-3.05,2.7,438.0,7.6,-62.7
2.1,0.0,0.0,0.75,0.75,0.0,0.0,0.5,0.75,0.0,2.25,0.75,0.0,3.5,-0.86,-0.67,2.08,191.81,-4.2,-60.3,0.25,0.0,0.0,0.5,0.5,2.0,0.25,2.75,0.0,3.25,2.75,0.5,3.25,1.27,-1.92,3.45,329.58,8.4,-51.9
2.12,0.0,0.0,0.0,0.0,0.0,0.0,0.5,0.0,0.0,1.0,0.0,0.0,0.75,1.02,0.77,2.27,149.71,-9.2,-76.4,0.0,0.0,1.0,0.0,0.5,2.0,0.25,1.5,0.0,1.5,0.25,1.0,2.5,0.89,-1.3,2.77,231.82,7.1,-40.3
2.14,0.0,0.0,0.75,0.5,0.0,0.0,0.5,0.75,0.25,2.0,1.0,0.0,1.25,0.7,0.45,-0.55,125.58,-0.2,-47.1,0.0,0.0,1.75,0.5,1.0,2.0,0.25,2.0,0.25,1.5,0.25,0.75,2.0,-0.98,3.08,3.02,154.35,3.1,-20.9
2.16,0.75,0.0,0.75,0.75,0.0,0.0,0.5,0.75,0.0,1.75,0.75,0.0,1.25,-1.55,-0.8,-0.05,106.03,3.6,-27.0,0.0,0.0,1.5,0.0,1.25,0.0,0.25,0.75,1.25,2.25,0.25,0.0,1.75,-1.11,2.7,1.2,93.07,-0.3,-30.6
2.18,0.0,0.0,0.25,0.25,0.0,0.0,0.5,0.5,0.25,1.75,0.0,0.25,0.5,-2.05,0.7,1.58,86.51,-3.8,-51.6,0.0,0.0,1.75,0.0,0.0,0.25,3.25,3.5,0.0,0.5,0.75,0.75,1.75,-0.61,2.64,0.39,70.14,-3.4,-31.9
2.2,0.0,0.0,1.0,0.25,0.0,0.0,0.5,0.0,0.5,1.0,0.75,0.25,0.5,-1.61,0.95,2.77,71.0,9.9,-32.9,0.0,0.25,0.0,0.5,0.0,2.0,0.25,2.5,0.0,0.5,1.0,0.75,3.0,0.2,0.95,0.83,67.89,9.6,-47.7
2.22,0.0,0.0,0.75,0.75,0.0,0.0,0.5,0.25,0.75,1.75,0.75,0.0,1.0,-1.23,-0.61,1.52,72.3,3.4,-38.0,0.0,0.0,1.25,0.5,1.0,2.0,1.0,2.5,0.25,1.5,1.0,1.25,3.0,0.58,-0.61,1.02,94.31,3.8,-34.9
2.24,0.0,0.0,0.75,0.75,0.0,0.0,0.5,0.0,0.25,1.75,0.5,0.0,1.0,-0.3,-0.67,0.39,68.49,3.2,-36.2,0.0,0.0,1.25,0.0,1.0,0.0,0.75,3.0,0.0,0.25,1.0,0.75,3.0,0.89,-0.67,-0.11,101.09,2.0,-44.1
2.26,0.0,0.0,1.0,0.75,0.0,0.0,0.5,0.0,0.5,0.75,0.5,0.25,1.0,0.58,-0.8,1.39,63.11,9.5,-27.2,0.0,0.0,0.0,0.5,0.0,2.0,0.5,1.5,0.25,1.5,0.0,1.0,2.25,0.89,-0.61,-0.23,105.46,10.3,-48.1
2.28,0.0,0.0,1.0,0.5,0.0,0.0,0.5,0.0,0.25,1.25,0.75,0.25,1.0,1.52,-0.61,2.14,63.58,6.7,-37.6,0.25,0.25,1.0,0.5,0.5,2.0,0.25,1.5,0.25,1.5,0.5,1.0,2.0,0.45,-0.73,0.08,110.22,3.6,-27.4
2.3,0.0,0.0,0.75,0.5,0.0,0.0,0.5,0.0,0.25,1.25,0.0,0.0,1.0,0.2,-0.3,1.7,58.49,3.8,-32.7,0.0,0.0,0.5,0.25,0.0,0.75,0.5,1.5,0.0,0.25,0.0,0.75,1.75,0.27,-0.8,0.39,100.07,5.2,-46.4
2.32,0.0,0.0,0.75,0.5,0.0,0.0,0.5,0.0,0.5,1.25,0.75,0.0,1.0,-0.8,0.33,0.95,62.34,5.2,-39.2,0.0,0.25,0.75,0.5,0.5,2.0,1.0,2.0,0.25,1.5,0.5,1.0,2.5,0.39,-0.61,0.77,123.96,5.1,-33.9
2.34,0.0,0.0,0.5,0.25,0.0,0.0,0.5,0.0,0.25,1.25,0.75,0.0,0.5,-0.73,0.45,0.64,63.32,4.2,-43.2,0.25,0.0,1.75,0.5,1.0,2.0,0.75,2.75,0.25,1.5,0.75,1.0,2.5,0.27,-0.48,0.39,156.48,2.3,-25.5
2.36,0.0,0.0,1.0,0.5,0.0,0.0,0.5,0.0,0.25,1.75,0.75,0.0,0.5,-0.8,0.33,0.39,69.7,6.4,-30.4,0.0,0.0,1.5,0.5,1.25,2.0,1.0,2.75,0.25,1.5,0.75,1.0,2.5,0.2,-0.3,-0.17,184.71,3.3,-27.0
2.38,1.75,0.0,0.75,0.5,0.0,0.0,0.5,0.0,0.25,1.5,0.0,0.0,0.25,-1.05,0.08,0.27,69.77,15.3,17.9,0.0,0.0,1.5,0.5,0.5,2.0,0.75,3.0,0.25,0.5,0.5,0.75,2.25,0.14,-0.36,-0.42,187.54,3.3,-25.1
2.4,1.75,0.0,0.75,0.5,0.0,0.0,0.5,0.0,0.0,1.5,0.5,0.0,0.75,-1.11,0.27,0.45,80.06,12.5,1.5,0.0,0.0,0.5,0.5,0.5,2.0,1.0,2.0,0.25,1.5,0.5,1.0,2.0,0.14,-0.86,-0.42,184.86,6.1,-35.6
2.42,1.75,0.0,1.25,0.5,0.0,0.0,0.5,0.0,0.0,1.5,0.5,0.0,0.25,-0.8,0.08,0.27,88.53,17.1,16.3,0.0,0.0,1.25,0.0,1.0,0.0,1.0,2.25,0.0,0.0,0.75,0.75,2.5,0.27,-1.05,0.2,164.71,-0.2,-38.3
2.44,1.25,0.0,1.0,0.0,0.0,0.0,0.5,0.0,0.0,0.5,0.5,0.0,1.0,-0.36,-0.3,-0.11,84.8,16.0,-0.8,0.0,0.0,0.0,0.0,0.0,0.0,0.25,1.25,0.0,0.0,0.0,0.5,1.25,0.33,-1.48,0.58,121.09,9.6,-76.5
2.46,0.0,0.0,1.25,0.0,0.0,0.0,0.5,0.0,0.0,0.0,0.5,0.0,1.0,0.08,-1.05,-0.61,71.05,15.8,-21.2,0.0,0.0,0.0,0.0,0.0,0.0,0.5,1.75,0.0,0.0,0.0,0.75,1.5,0.27,-1.23,-0.05,89.31,8.4,-73.1
2.48,0.0,0.0,0.75,0.5,0.0,0.0,0.5,0.0,0.0,0.5,0.0,0.0,1.0,0.27,-1.36,-0.36,58.49,7.9,-21.8,0.0,0.0,0.0,0.0,0.0,0.0,0.25,1.75,0.0,0.0,0.0,0.75,1.25,0.39,-0.98,-0.05,66.52,9.3,-73.8
2.5,0.0,0.0,1.0,0.25,0.0,0.0,0.5,0.0,0.0,0.5,0.75,0.0,1.0,0.08,-1.61,0.14,52.59,9.9,-32.0,0.0,0.0,0.25,0.0,0.0,0.0,0.25,1.5,0.0,0.0,0.0,0.75,1.25,0.45,-0.8,0.14,54.3,5.7,-67.1
2.52,0.0,0.0,0.75,0.0,0.0,0.0,0.5,0.0,0.25,1.0,0.75,0.0,1.0,-0.17,-1.42,0.52,53.32,4.5,-49.6,0.0,0.0,0.0,0.0,0.0,0.0,0.25,1.75,0.0,0.0,0.0,0.75,1.25,0.39,-0.73,0.45,46.34,9.3,-73.8
2.54,0.0,0.0,1.0,0.25,0.0,0.0,0.5,0.0,0.25,0.75,0.75,0.0,1.0,-0.42,-1.11,0.64,57.98,8.5,-34.9,0.0,0.0,0.0,0.0,0.0,0.0,0.25,1.5,0.0,0.0,0.0,0.75,1.25,0.52,-0.67,0.64,44.84,8.8,-76.2
2.56,0.0,0.0,0.75,0.25,0.0,0.0,0.5,0.0,0.0,0.75,0.75,0.0,1.0,-0.48,-0.8,0.52,58.67,6.2,-41.2,0.0,0.0,0.25,0.0,0.0,0.0,0.0,1.5,0.0,0.0,0.0,0.75,1.0,0.45,-0.61,0.2,36.24,6.4,-67.2
2.58,0.0,0.0,0.75,0.5,0.0,0.0,0.5,0.0,0.0,0.75,0.75,0.0,1.0,-0.55,-0.55,0.45,59.45,7.0,-34.7,0.0,0.0,1.0,0.0,1.0,0.0,1.0,2.75,0.0,0.0,0.5,0.75,2.25,0.45,-0.42,-0.17,61.91,1.6,-38.1
2.6,0.0,0.0,1.0,0.5,0.0,0.0,0.5,0.0,0.25,1.0,0.75,0.0,1.0,-0.55,-0.36,0.27,61.56,7.7,-31.9,0.0,0.0,0.0,0.0,0.0,0.0,0.25,1.5,0.0,0.0,0.0,0.75,1.0,0.45,-0.42,-0.17,62.92,8.4,-73.6
2.62,0.0,0.0,1.0,0.5,0.0,0.0,0.5,0.0,0.0,1.0,0.5,0.0,1.0,-0.48,-0.36,0.02,62.53,7.3,-29.1,0.0,0.0,0.0,0.0,0.0,0.0,0.0,1.25,0.0,0.0,0.0,0.75,1.0,0.45,-0.48,0.02,63.99,9.4,-80.5
2.64,0.0,0.0,0.75,0.5,0.0,0.0,0.5,0.0,0.25,1.5,0.0,0.0,1.0,-0.42,-0.55,0.02,64.59,2.7,-35.2,0.0,0.0,0.0,0.0,0.0,0.0,0.25,1.5,0.0,0.0,0.0,0.75,1.0,0.39,-0.55,0.33,56.99,8.4,-73.6
2.66,0.0,0.0,1.0,0.5,0.0,0.0,0.5,0.0,0.25,1.25,0.0,0.0,1.0,-0.3,-0.48,0.14,65.81,5.8,-27.1,0.0,0.0,1.5,0.0,1.25,0.0,0.75,2.5,0.0,0.0,0.5,0.75,1.0,0.2,-0.48,0.2,78.85,-2.6,-18.1
2.68,1.0,0.0,0.75,0.5,0.0,0.0,0.5,0.0,0.25,0.5,0.0,0.0,1.0,-0.3,-0.48,0.14,68.31,14.1,3.5,0.0,0.0,0.0,0.25,0.0,0.25,0.25,1.5,0.25,0.0,0.0,0.75,1.25,0.08,-0.3,0.02,81.51,6.8,-60.1
2.7,1.25,0.0,1.0,0.25,0.0,0.0,0.5,0.0,0.25,0.5,0.0,0.0,1.0,-0.36,-0.55,0.14,70.33,16.4,8.5,0.0,0.0,0.0,0.0,0.0,0.0,0.25,1.5,0.0,0.0,0.0,0.75,1.0,0.08,-0.3,0.14,79.31,8.4,-73.6
2.72,1.5,0.0,0.75,0.75,0.0,0.0,0.5,0.0,0.25,0.5,0.5,0.0,1.0,-0.36,-0.55,0.2,76.63,15.7,7.1,0.0,0.0,0.0,0.0,0.0,0.0,0.25,1.0,0.0,0.0,0.0,0.75,1.5,0.27,-0.48,0.33,71.09,8.0,-84.2
2.74,1.75,0.0,0.5,0.5,0.0,0.0,0.5,0.0,0.25,0.5,0.5,0.0,1.0,-0.36,-0.55,0.39,80.39,15.4,6.0,0.0,0.25,0.0,0.5,0.0,1.5,0.5,2.5,0.25,1.5,0.5,0.75,2.0,0.33,-0.67,0.27,96.02,9.1,-45.5
2.76,0.0,0.0,1.0,1.0,0.0,0.0,0.5,0.0,0.25,1.25,0.5,0.0,1.0,-0.3,-0.61,0.45,83.09,7.4,-23.2,0.0,0.0,0.0,0.0,0.0,0.0,0.25,1.5,0.0,0.0,0.25,0.75,1.0,0.27,-0.55,0.02,88.92,7.1,-73.7
2.78,0.75,0.0,1.0,0.25,0.0,0.0,0.5,0.0,0.25,1.25,0.75,0.0,1.0,-0.23,-0.55,0.52,84.57,9.7,-21.6,0.0,0.25,1.75,0.5,1.75,1.25,1.0,2.25,0.25,1.5,0.25,0.75,2.0,0.2,-0.23,0.2,131.55,1.0,-15.7
2.8,0.75,0.0,1.0,0.5,0.0,0.0,0.5,0.0,0.25,1.0,0.75,0.0,1.0,-0.17,-0.67,0.39,85.73,11.2,-15.4,0.0,0.0,0.0,0.0,0.0,0.0,0.25,1.75,0.0,0.0,0.0,0.75,1.5,0.14,-0.11,0.33,118.52,9.6,-76.0
2.82,0.0,0.0,1.0,0.25,0.0,0.0,0.5,0.0,0.0,1.0,0.0,0.0,1.0,-0.3,-1.42,0.27,75.77,6.1,-29.2,0.0,0.0,0.0,0.0,0.0,0.0,0.25,1.25,0.0,0.0,0.0,0.75,1.0,0.77,-2.36,0.27,104.38,7.8,-76.4
2.84,0.75,0.0,0.5,0.5,0.0,0.0,0.25,0.0,0.25,0.75,0.0,0.0,1.0,-0.36,-1.55,0.64,68.63,8.8,-11.7,0.0,0.0,0.0,0.0,0.0,0.0,0.25,1.5,0.0,0.0,0.0,0.75,1.0,0.77,-2.55,0.7,80.18,8.4,-73.6
2.86,1.5,0.0,1.0,0.5,0.0,0.0,0.5,0.0,0.0,1.5,0.5,0.0,1.0,-0.42,-1.23,0.7,74.84,11.7,-4.2,0.0,0.0,0.0,0.0,0.0,0.0,0.25,1.5,0.0,0.0,0.0,0.5,1.0,0.64,-1.11,0.58,65.33,9.8,-70.7
2.88,1.5,0.0,0.75,0.5,0.0,0.0,0.5,0.0,0.0,1.5,0.0,0.5,1.0,-0.36,-0.92,0.64,81.67,10.4,-10.0,0.0,0.0,0.25,0.0,0.0,0.0,0.25,1.25,0.0,0.0,0.0,0.5,1.0,0.58,-0.48,0.77,51.33,5.3,-62.5
2.9,1.75,0.0,1.0,0.5,0.0,0.0,0.5,0.0,0.0,1.5,0.0,0.25,1.0,-0.17,-0.55,0.77,90.65,12.5,0.9,0.0,0.0,0.0,0.0,0.0,0.0,0.25,1.25,0.0,0.0,0.0,0.5,1.0,0.2,-0.05,0.14,45.17,9.2,-73.5
2.92,1.75,0.0,1.0,0.5,0.0,0.0,0.5,0.0,0.25,1.5,0.25,0.0,1.0,-0.05,-0.36,0.52,97.08,12.6,0.8,0.0,0.0,0.0,0.0,0.0,0.0,0.25,1.75,0.0,0.0,0.0,0.5,0.75,0.39,-0.3,0.14,47.25,10.0,-65.0
2.94,1.75,0.0,1.5,0.25,0.0,0.0,0.5,0.0,0.0,1.25,0.0,0.25,1.0,-0.17,-0.55,0.33,99.96,15.6,6.6,0.0,0.0,0.25,0.0,0.0,0.0,0.5,1.5,0.0,0.0,0.0,0.75,1.0,0.58,-0.8,0.58,47.22,3.9,-61.2
2.96,1.75,0.0,0.75,0.25,0.0,0.0,0.5,0.0,0.0,1.5,0.5,0.5,1.0,-0.36,-0.8,0.52,99.9,11.0,-13.8,0.0,0.0,0.0,0.5,0.0,1.75,0.25,1.5,0.25,1.5,0.25,0.75,1.75,0.64,-1.17,0.52,71.79,10.3,-46.7
2.98,2.0,0.0,0.75,0.25,0.0,0.0,0.5,0.0,0.0,1.5,0.0,0.75,1.0,-0.36,-0.8,0.77,101.04,11.8,-8.8,0.0,0.0,0.0,0.0,0.0,1.0,0.5,2.25,0.25,1.5,0.0,0.75,1.75,0.58,-0.92,0.27,92.09,11.6,-58.4
3.0,2.25,0.0,0.75,0.25,0.0,0.0,0.25,0.0,0.0,1.25,0.0,0.0,1.0,-0.36,-0.8,0.83,98.32,14.0,11.4,0.0,0.0,1.25,0.5,1.0,1.5,1.0,2.0,0.25,1.5,0.5,0.75,1.0,0.45,-0.61,0.2,127.54,1.7,-18.3
3.02,2.25,0.0,1.0,0.25,0.0,0.0,0.5,0.0,0.0,1.75,0.0,0.25,1.0,-0.42,-0.67,0.77,100.52,12.8,2.6,0.0,0.0,1.5,0.0,0.25,0.0,0.25,1.25,0.0,0.0,0.0,0.75,1.0,0.39,-0.48,0.27,117.97,-6.7,-26.2
3.04,2.25,0.0,1.25,0.25,0.0,0.0,0.5,0.0,0.0,1.5,0.0,0.25,1.0,-0.36,-0.67,0.7,103.1,14.9,7.8,0.0,0.0,1.75,0.0,1.0,0.0,1.0,1.5,0.0,0.0,0.0,0.5,1.25,0.45,-0.61,0.45,123.02,-6.2,-10.2
3.06,2.25,0.0,0.75,0.5,0.0,0.0,0.25,0.0,0.0,1.5,0.0,0.75,1.0,-0.36,-0.61,0.77,106.59,12.5,-3.2,0.0,0.0,0.0,0.0,0.0,0.0,1.25,2.0,0.0,0.0,0.0,0.75,1.0,0.45,-0.73,0.45,102.6,4.9,-58.5
3.08,2.5,0.0,0.75,0.25,0.0,0.0,0.5,0.0,0.0,1.5,0.0,0.75,1.0,-0.42,-0.61,0.83,106.88,13.4,-1.6,0.0,0.0,0.0,0.0,0.0,0.0,0.0,1.5,0.0,0.0,0.0,0.75,1.25,0.45,-0.8,0.39,87.67,10.2,-79.7
3.1,2.25,0.0,1.0,0.5,0.0,0.0,0.5,0.0,0.0,1.75,0.0,0.0,1.0,-0.42,-0.67,0.83,106.14,13.2,8.9,0.0,0.0,0.0,0.0,0.0,0.0,0.25,1.5,0.0,0.0,0.0,0.5,1.0,0.39,-0.67,0.39,70.44,9.8,-70.7
3.12,2.25,0.0,1.25,0.25,0.0,0.0,0.5,0.0,0.0,1.5,0.0,0.5,1.0,-0.48,-0.61,0.77,107.12,14.7,3.5,0.0,0.0,1.5,0.5,0.25,1.75,0.75,1.5,0.25,1.5,0.25,0.25,1.75,0.39,-0.61,0.39,93.02,2.4,-22.0
3.14,2.25,0.0,0.75,0.25,0.0,0.0,0.5,0.0,0.0,1.5,0.0,0.75,1.0,-0.48,-0.55,0.7,105.62,12.6,-5.0,0.0,0.0,0.0,0.0,0.0,0.0,0.25,1.5,0.0,0.0,0.0,0.5,1.0,0.45,-0.61,0.58,82.57,9.8,-70.7
3.16,2.25,0.0,1.0,0.25,0.0,0.0,0.5,0.0,0.0,1.5,0.25,0.75,1.0,-0.48,-0.55,0.7,107.22,13.5,-5.1,0.0,0.0,0.0,0.0,0.0,0.0,0.25,1.25,0.0,0.0,0.0,0.5,1.25,0.45,-0.67,0.64,74.84,9.6,-76.5
3.18,2.5,0.0,0.75,0.5,0.0,0.0,0.5,0.0,0.0,1.25,0.25,0.75,0.75,-0.48,-0.48,0.7,107.61,15.5,4.8,0.0,0.0,1.25,0.0,0.0,0.0,0.75,1.0,0.0,0.0,0.25,0.5,1.75,0.45,-0.67,0.58,66.67,-5.1,-42.6
3.2,2.5,0.0,1.25,0.25,0.0,0.0,0.25,0.0,0.0,1.5,0.0,0.75,1.0,-0.55,-0.55,0.7,110.18,14.8,2.3,0.0,0.0,0.0,0.0,0.0,0.0,0.25,1.25,0.0,0.0,0.0,0.75,1.25,0.45,-0.67,0.45,57.57,8.2,-78.9
3.22,2.5,0.0,0.75,0.25,0.0,0.0,0.0,0.0,0.0,1.5,0.5,0.75,1.0,-0.55,-0.61,0.77,110.4,12.6,-7.5,0.0,0.0,0.0,0.0,0.0,0.0,0.25,1.5,0.0,0.0,0.0,0.5,0.75,0.45,-0.61,0.39,49.61,9.5,-67.2
3.24,2.25,0.0,1.0,0.25,0.0,0.0,0.5,0.0,0.0,1.25,0.0,0.5,1.0,-0.55,-0.61,0.77,107.79,14.9,4.3,0.0,0.0,0.0,0.0,0.0,0.0,0.25,1.5,0.0,0.0,0.0,0.5,1.0,0.39,-0.61,0.33,47.54,9.8,-70.7
3.26,2.5,0.0,0.75,0.25,0.0,0.0,0.25,0.0,0.0,1.5,0.0,0.75,1.0,-0.48,-0.55,0.64,105.01,13.1,-2.1,0.0,0.0,1.5,0.0,1.25,0.0,0.75,1.5,0.0,1.5,0.25,1.0,1.0,0.45,-0.61,0.58,76.19,-1.6,-26.7
3.28,2.5,0.0,0.75,0.25,0.0,0.0,0.5,0.0,0.0,1.5,0.0,0.75,1.0,-0.42,-0.42,0.64,104.14,13.4,-1.6,0.0,0.0,1.25,0.0,0.0,0.0,0.25,1.5,0.0,0.0,0.0,0.75,1.0,0.45,-0.67,0.7,77.65,-4.3,-36.6
3.3,2.25,0.0,1.25,0.25,0.0,0.0,0.25,0.0,0.0,1.5,0.25,0.75,1.0,-0.42,-0.42,0.52,106.33,14.1,-3.3,0.0,0.0,0.0,0.0,0.0,0.0,0.25,1.0,0.0,1.5,0.0,1.0,1.0,0.39,-0.61,0.52,86.03,8.9,-79.9
3.32,2.5,0.0,1.0,0.25,0.0,0.0,0.5,0.0,0.0,1.25,0.0,0.75,1.0,-0.36,-0.48,0.52,106.92,15.4,3.4,0.0,0.0,1.25,0.5,0.5,1.25,1.0,1.75,0.25,1.5,0.0,1.0,1.75,0.39,-0.55,0.45,108.13,2.0,-29.4
3.34,2.0,0.0,0.75,0.25,0.0,0.0,0.0,0.0,0.0,1.25,0.25,0.75,1.0,-0.36,-0.48,0.58,103.3,12.1,-10.1,0.0,0.25,1.5,0.5,0.5,1.75,0.75,1.5,0.25,1.5,0.25,0.75,1.75,0.33,-0.55,0.39,132.01,1.6,-21.1
3.36,2.25,0.0,0.75,0.25,0.0,0.0,0.5,0.0,0.0,1.25,0.0,0.75,1.0,-0.36,-0.48,0.64,100.17,13.7,-2.3,0.0,0.25,1.75,0.5,0.5,1.75,0.75,1.25,0.25,1.5,0.5,0.75,1.75,0.39,-0.55,0.52,151.96,0.1,-20.0
3.38,2.25,0.0,1.5,0.25,0.0,0.0,0.5,0.0,0.0,1.25,0.25,0.75,1.0,-0.42,-0.55,0.52,102.93,16.2,1.8,0.25,0.25,1.25,0.5,0.5,1.75,1.0,1.5,0.25,1.5,0.0,1.0,1.75,0.45,-0.61,0.7,169.66,1.4,-20.8
3.4,2.25,0.0,0.75,0.25,0.0,0.0,0.25,0.0,0.0,1.5,0.0,0.25,1.0,-0.42,-0.48,0.7,99.84,12.5,2.8,0.0,0.0,1.25,0.5,0.5,1.75,0.75,2.0,0.25,1.5,0.25,1.0,1.75,0.52,-0.67,0.83,175.94,3.3,-28.6
3.42,2.25,0.0,0.75,0.25,0.0,0.0,0.5,0.0,0.0,1.25,0.75,0.5,1.0,-0.48,-0.48,0.64,101.68,13.6,-6.1,0.25,0.25,1.5,0.5,0.25,1.75,0.5,2.0,0.25,1.5,0.25,1.0,1.75,0.45,-0.61,0.77,176.78,1.6,-23.8
3.44,2.25,0.0,1.0,0.25,0.0,0.0,0.5,0.0,0.0,1.25,0.5,0.5,1.0,-0.55,-0.48,0.83,102.27,14.6,-1.2,0.0,0.25,1.25,0.5,1.0,2.0,1.0,1.5,0.25,1.5,0.5,0.75,1.75,0.45,-0.48,0.52,180.75,2.4,-18.8
3.46,2.5,0.0,1.25,0.25,0.0,0.0,0.5,0.0,0.0,1.5,0.75,0.5,1.0,-0.55,-0.55,0.83,109.28,14.9,-0.9,0.25,0.0,1.25,0.5,0.5,1.75,0.75,2.0,0.25,1.5,0.0,0.75,1.75,0.45,-0.48,0.33,178.47,3.0,-23.0
3.48,2.5,0.0,0.75,0.25,0.0,0.0,0.5,0.0,0.0,1.25,0.5,0.5,1.0,-0.55,-0.48,0.89,109.45,14.4,-0.2,0.0,0.25,1.25,0.5,0.5,1.5,0.75,2.0,0.25,1.5,0.5,0.75,1.5,0.45,-0.48,0.45,173.73,2.2,-24.2
3.5,2.25,0.0,0.75,0.25,0.0,0.0,0.5,0.0,0.25,1.25,0.5,0.5,1.0,-0.48,-0.48,0.89,109.63,13.6,-4.9,0.0,0.25,1.25,0.5,0.5,1.5,1.0,1.75,0.25,1.5,0.25,1.0,1.75,0.52,-0.48,0.52,167.7,1.8,-26.1
3.52,2.25,0.0,0.75,0.5,0.0,0.0,0.25,0.0,0.25,1.25,0.5,0.5,1.0,-0.48,-0.48,0.95,108.24,13.5,-3.1,0.0,0.25,1.5,0.5,2.25,1.25,0.75,2.0,0.25,1.5,0.0,0.75,1.75,0.52,-0.48,0.64,175.04,1.9,-11.0
3.54,2.5,0.0,1.5,0.5,0.0,0.0,0.5,0.0,0.25,1.25,0.75,0.5,1.0,-0.48,-0.55,0.89,114.97,16.5,3.9,0.0,0.25,1.0,0.5,0.5,1.75,0.75,1.75,0.25,1.5,0.5,0.75,1.75,0.52,-0.48,0.52,169.19,3.5,-26.6
3.56,2.5,0.0,1.25,0.5,0.0,0.0,0.5,0.0,0.25,1.25,0.75,0.5,1.0,-0.42,-0.48,0.77,120.45,15.8,2.1,0.25,0.25,1.25,0.5,0.5,1.5,0.75,1.5,0.25,1.5,0.25,1.0,1.75,0.52,-0.48,0.52,164.08,1.0,-23.7
3.58,2.5,0.0,0.75,0.25,0.0,0.0,0.5,0.0,0.0,1.25,0.75,0.5,1.0,-0.42,-0.42,0.77,120.56,14.3,-2.7,0.25,0.5,1.25,0.5,1.75,2.0,0.75,1.5,0.25,1.5,0.5,0.75,1.75,0.45,-0.42,0.52,170.28,1.8,-10.0
3.6,2.5,0.0,1.0,0.25,0.0,0.0,0.5,0.0,0.25,1.25,0.5,0.0,1.0,-0.42,-0.42,0.7,116.55,15.6,8.6,0.0,0.0,1.5,0.5,0.5,1.25,0.75,1.5,0.25,1.5,0.25,0.75,1.75,0.52,-0.42,0.64,163.77,1.0,-26.7
3.62,2.5,0.0,1.25,0.75,0.0,0.0,0.5,0.0,0.25,1.25,1.0,0.0,1.0,-0.42,-0.42,0.64,118.1,16.2,8.4,0.0,0.25,0.0,0.5,0.0,1.5,0.75,1.5,0.0,1.5,0.75,1.0,1.75,0.58,-0.48,0.64,154.93,7.1,-46.2
3.64,2.5,0.0,1.25,0.25,0.0,0.0,0.5,0.0,0.25,1.0,0.75,0.0,1.0,-0.48,-0.42,0.7,116.43,17.4,10.6,0.0,0.25,1.5,0.5,0.5,1.25,0.75,1.5,0.25,1.5,0.5,0.75,1.75,0.58,-0.42,0.7,149.72,0.4,-24.8
3.66,2.5,0.0,1.0,0.5,0.0,0.0,0.25,0.0,0.25,1.25,0.75,0.25,1.0,-0.48,-0.42,0.77,116.56,15.0,3.4,0.0,0.0,1.25,0.75,0.5,1.5,0.75,1.25,0.25,1.5,0.5,0.75,1.75,0.58,-0.42,0.7,146.88,1.3,-26.2
3.68,2.5,0.0,0.75,0.5,0.0,0.0,0.5,0.0,0.25,1.25,0.75,0.25,1.0,-0.55,-0.42,0.77,115.28,14.5,1.8,0.0,0.25,1.0,0.75,0.5,1.25,0.75,1.25,0.25,1.5,0.5,0.75,1.75,0.58,-0.36,0.64,144.47,1.5,-26.7
3.7,2.5,0.0,0.0,0.25,0.0,0.0,0.25,0.0,0.25,1.25,0.75,0.0,1.0,-0.55,-0.42,0.77,107.15,11.2,-4.1,0.25,0.0,1.25,0.5,0.5,1.75,0.75,1.5,0.25,1.5,0.5,0.75,1.75,0.58,-0.36,0.7,147.83,1.8,-24.6
3.72,2.5,0.0,0.75,0.25,0.0,0.0,0.0,0.0,0.25,1.0,0.75,0.0,1.0,-0.55,-0.42,0.77,101.97,15.1,5.9,0.25,0.0,1.25,0.5,0.5,1.25,0.5,1.25,0.25,1.5,0.75,0.75,1.75,0.64,-0.42,0.7,147.54,0.6,-28.7
3.74,2.5,0.0,0.75,0.25,0.0,0.0,0.5,0.0,0.25,1.0,0.75,0.0,1.0,-0.55,-0.42,0.77,98.74,15.8,6.7,0.0,0.0,1.25,0.5,0.5,1.25,0.5,1.5,0.0,2.0,0.5,0.75,1.75,0.7,-0.42,0.7,146.83,3.1,-32.7
3.76,2.5,0.0,0.25,0.5,0.0,0.0,0.5,0.0,0.25,1.25,1.0,0.0,1.0,-0.55,-0.42,0.77,99.0,12.8,-1.3,0.0,0.25,1.25,0.5,0.5,1.25,0.75,1.5,0.25,1.5,0.5,1.0,1.75,0.64,-0.36,0.64,147.14,1.1,-28.8
3.78,2.5,0.0,0.75,0.5,0.0,0.0,0.5,0.0,0.25,1.25,0.75,0.0,1.0,-0.55,-0.42,0.77,101.34,14.7,5.6,0.25,0.0,1.25,0.5,0.5,1.75,0.5,1.5,0.25,1.5,0.5,1.0,1.75,0.52,-0.36,0.64,151.39,1.9,-27.1
3.8,2.5,0.0,1.0,0.25,0.0,0.0,0.5,0.0,0.25,1.0,0.75,0.0,1.0,-0.61,-0.42,0.7,104.45,16.6,8.7,0.25,0.5,1.5,0.5,0.5,1.5,0.75,1.25,0.25,1.5,0.5,0.75,1.75,0.45,-0.36,0.64,154.74,-0.5,-17.8
3.82,2.5,0.0,1.0,0.25,0.0,0.0,0.5,0.0,0.25,1.0,0.75,0.0,1.0,-0.61,-0.36,0.7,106.15,16.6,8.7,0.25,0.5,1.0,0.5,0.5,1.25,0.75,1.25,0.25,1.5,0.5,0.75,1.75,0.45,-0.42,0.7,154.16,0.8,-22.9
3.84,2.5,0.0,1.0,0.25,0.0,0.0,0.25,0.0,0.25,0.5,0.5,0.0,1.0,-0.48,-0.42,0.7,101.87,19.2,18.7,0.0,0.5,1.5,0.5,0.5,1.75,0.75,1.5,0.25,1.5,0.5,1.0,1.75,0.39,-0.42,0.77,160.92,0.8,-21.5
3.86,2.5,0.0,0.5,0.5,0.0,0.0,0.5,0.0,0.25,0.5,0.75,0.0,1.0,-0.48,-0.42,0.7,98.35,17.5,13.3,0.0,0.25,1.25,0.5,0.0,1.25,0.5,1.25,0.25,1.5,0.5,0.75,1.75,0.39,-0.42,0.7,154.07,1.2,-32.2
3.88,2.5,0.0,0.75,0.25,0.0,0.0,0.0,0.0,0.25,0.75,0.25,0.25,1.0,-0.48,-0.42,0.77,94.93,16.6,11.1,0.0,0.0,0.75,0.5,0.0,1.0,0.5,1.25,0.25,1.5,0.75,0.75,1.75,0.39,-0.42,0.7,145.85,3.0,-44.5
3.9,2.5,0.0,0.75,0.25,0.0,0.0,0.5,0.0,0.25,0.75,0.75,0.0,1.0,-0.42,-0.42,0.77,95.09,17.0,9.9,0.25,0.25,0.5,0.5,0.5,1.25,0.5,0.75,0.25,1.5,0.5,0.75,1.75,0.39,-0.42,0.64,137.15,2.9,-30.9
3.92,2.5,0.0,1.0,0.5,0.0,0.0,0.25,0.0,0.25,0.75,0.75,0.0,1.0,-0.48,-0.42,0.77,98.51,17.5,13.4,0.0,0.0,1.25,0.5,0.5,1.75,0.5,1.5,0.0,1.5,0.0,0.75,1.5,0.39,-0.42,0.58,134.31,3.8,-23.0
3.94,2.5,0.0,0.75,0.5,0.0,0.0,0.0,0.0,0.5,0.75,0.75,0.25,1.0,-0.48,-0.42,0.77,102.88,16.0,5.0,0.0,0.25,1.25,0.5,0.5,1.5,0.5,1.25,0.25,1.5,0.5,0.75,2.0,0.45,-0.42,0.58,137.24,2.1,-27.9
3.96,2.5,0.0,1.0,0.25,0.0,0.0,0.5,0.0,0.25,1.0,0.75,0.0,1.0,-0.55,-0.42,0.77,105.03,16.6,8.7,0.5,0.0,1.5,0.5,0.5,1.5,0.5,1.25,0.25,1.5,0.75,0.75,1.75,0.45,-0.36,0.58,145.14,-0.5,-22.6
3.98,2.5,0.0,1.0,0.25,0.0,0.0,0.25,0.0,0.25,0.75,0.75,0.0,1.0,-0.55,-0.42,0.77,104.59,17.6,11.6,0.25,0.5,1.5,0.5,0.5,1.25,0.25,1.5,0.25,1.5,0.5,0.75,1.75,0.52,-0.36,0.52,151.53,0.0,-20.4
4.0,2.5,0.0,1.25,0.25,0.0,0.0,0.25,0.0,0.25,0.5,0.75,0.0,1.0,-0.55,-0.42,0.7,103.94,19.7,16.9,0.25,0.25,1.25,0.5,0.5,1.25,0.25,1.5,0.25,1.5,0.25,0.75,1.25,0.52,-0.36,0.58,149.48,0.9,-19.6
4.02,2.5,0.0,0.75,0.25,0.0,0.0,0.25,0.0,0.25,0.5,0.75,0.0,1.0,-0.55,-0.42,0.7,100.16,18.1,13.1,0.0,0.25,1.25,0.5,0.5,1.25,0.25,1.25,0.25,1.5,0.75,0.75,1.5,0.58,-0.42,0.58,146.66,1.1,-26.9
4.04,2.5,0.0,0.75,0.5,0.0,0.0,0.0,0.0,0.25,0.5,0.75,0.0,1.0,-0.55,-0.42,0.7,98.56,17.8,14.7,0.5,0.25,1.25,0.5,0.5,1.0,0.25,1.5,0.25,1.5,0.5,0.75,1.75,0.52,-0.42,0.58,145.81,0.0,-24.0
4.06,2.5,0.0,0.25,0.5,0.0,0.0,0.5,0.0,0.0,0.5,0.75,0.0,1.0,-0.48,-0.42,0.7,94.34,16.7,13.4,0.0,0.0,1.25,0.5,0.5,1.25,0.75,1.5,0.25,1.5,0.25,0.75,1.75,0.52,-0.36,0.58,145.03,2.0,-29.0
4.08,2.5,0.0,1.0,0.25,0.0,0.0,0.25,0.0,0.5,0.75,0.75,0.0,1.0,-0.48,-0.42,0.7,97.44,17.4,9.8,0.0,0.0,1.25,0.5,0.5,1.5,0.25,1.5,0.25,1.5,0.25,0.75,1.75,0.45,-0.36,0.64,144.58,3.3,-28.8
4.1,2.5,0.0,1.0,0.25,0.0,0.0,0.25,0.0,0.0,0.5,0.5,0.0,1.0,-0.48,-0.42,0.7,95.19,19.5,21.2,0.0,0.25,1.5,0.5,0.5,1.5,0.5,1.25,0.25,1.5,0.25,1.0,1.75,0.45,-0.36,0.64,148.25,0.9,-24.6
4.12,2.5,0.0,0.75,0.5,0.0,0.0,0.25,0.0,0.25,0.5,0.75,0.25,1.0,-0.48,-0.42,0.7,97.74,17.7,10.2,0.0,0.25,1.0,0.5,0.5,1.0,0.25,1.25,0.25,1.5,0.5,0.75,1.5,0.45,-0.36,0.64,143.95,2.0,-29.7
4.14,2.75,0.0,1.0,0.25,0.0,0.0,0.5,0.0,0.5,0.5,0.5,0.0,1.0,-0.48,-0.42,0.7,99.16,19.8,19.5,0.0,0.25,1.25,0.5,0.5,1.0,0.75,1.5,0.25,1.5,0.25,0.75,2.0,0.39,-0.36,0.64,143.83,1.4,-29.2
4.16,2.5,0.0,0.75,0.25,0.0,0.0,0.5,0.0,0.25,0.5,0.5,0.25,0.5,-0.55,-0.42,0.7,96.85,21.2,23.1,0.0,0.25,1.25,0.5,0.5,1.25,0.25,1.25,0.25,1.5,0.5,0.75,1.5,0.39,-0.36,0.64,140.57,1.4,-25.7
4.18,2.5,0.0,0.75,0.25,0.0,0.0,0.25,0.0,0.25,0.5,0.75,0.25,1.0,-0.55,-0.42,0.7,96.34,17.7,8.2,0.0,0.0,1.25,0.5,0.5,1.0,0.25,1.25,0.25,1.5,0.5,0.75,1.75,0.39,-0.36,0.7,139.03,1.6,-32.9
4.2,2.5,0.0,0.75,0.25,0.0,0.0,0.25,0.0,0.25,0.5,0.75,0.25,1.0,-0.55,-0.42,0.77,95.91,17.7,8.2,0.25,0.0,1.5,0.5,0.5,1.75,0.25,1.25,0.25,1.5,0.25,0.75,2.0,0.45,-0.36,0.7,142.21,1.8,-24.2
4.22,2.5,0.0,0.75,0.25,0.0,0.0,0.5,0.0,0.25,0.5,0.75,0.5,1.0,-0.55,-0.48,0.77,98.51,17.6,4.1,0.0,0.25,1.5,0.5,0.5,1.25,0.5,1.25,0.25,1.25,0.5,0.75,1.5,0.45,-0.36,0.77,143.4,-0.3,-21.6
4.24,2.5,0.0,0.75,0.25,0.0,0.0,0.25,0.0,0.25,1.0,0.75,0.5,1.0,-0.55,-0.42,0.77,101.83,15.0,-1.9,0.0,0.25,1.25,0.5,0.5,1.25,0.5,1.25,0.25,1.5,0.75,0.75,1.75,0.45,-0.36,0.7,146.34,1.0,-28.4
4.26,2.5,0.0,1.0,0.25,0.0,0.0,0.25,0.0,0.25,0.5,0.5,0.5,1.0,-0.48,-0.42,0.7,103.88,18.4,8.9,0.0,0.25,1.5,0.75,0.5,1.5,0.5,1.25,0.25,1.5,0.5,0.75,1.75,0.52,-0.36,0.64,149.33,0.4,-21.8
4.28,2.5,0.0,1.25,0.25,0.0,0.0,0.5,0.0,0.25,0.75,0.75,0.5,1.0,-0.48,-0.42,0.7,108.26,17.9,5.4,0.0,0.0,1.5,0.5,0.25,1.25,0.75,1.5,0.25,1.5,0.5,0.75,1.75,0.52,-0.36,0.7,149.83,0.6,-30.2
4.3,2.5,0.0,0.75,0.25,0.0,0.0,0.0,0.0,0.25,1.0,0.75,0.5,1.0,-0.42,-0.42,0.7,108.47,14.7,-2.4,0.0,0.0,1.25,0.5,0.5,1.25,0.5,1.5,0.25,1.5,0.25,0.75,1.5,0.52,-0.36,0.7,146.55,2.1,-27.5
4.32,2.5,0.0,1.0,0.25,0.0,0.0,0.5,0.0,0.25,0.5,0.5,0.5,1.0,-0.42,-0.42,0.7,107.75,18.7,9.2,0.0,0.25,1.0,0.5,0.5,1.25,0.5,1.0,0.25,1.5,0.5,0.75,1.25,0.52,-0.36,0.64,140.43,1.3,-24.8
4.34,2.5,0.0,0.75,0.25,0.0,0.0,0.25,0.0,0.25,0.5,0.75,0.75,1.0,-0.48,-0.42,0.7,106.56,17.0,-0.4,0.0,0.5,1.0,0.5,0.5,1.25,0.75,1.25,0.25,1.5,0.25,0.75,1.75,0.52,-0.3,0.64,139.25,1.9,-24.4
4.36,2.5,0.0,1.25,0.25,0.0,0.0,0.25,0.0,0.25,0.75,0.75,0.5,1.0,-0.48,-0.42,0.7,108.27,17.7,5.0,0.5,0.0,1.5,0.5,0.5,1.0,0.5,1.25,0.25,1.5,0.5,0.75,2.0,0.45,-0.3,0.64,142.33,-1.0,-26.0
4.38,2.5,0.0,1.0,0.25,0.0,0.0,0.5,0.0,0.5,0.75,0.75,0.5,0.75,-0.55,-0.42,0.7,109.58,18.2,6.0,0.25,0.0,1.25,0.5,0.5,1.25,0.75,1.5,0.25,1.5,0.5,0.75,1.75,0.45,-0.3,0.64,145.41,0.8,-27.2
4.4,2.5,0.0,0.75,0.25,0.0,0.0,0.25,0.0,0.25,0.75,0.75,0.5,1.0,-0.48,-0.42,0.7,109.44,16.1,0.7,0.0,0.0,1.5,0.5,0.5,1.25,0.5,1.25,0.25,1.5,0.5,1.0,1.5,0.45,-0.3,0.64,146.93,0.1,-28.2
4.42,2.5,0.0,0.75,0.25,0.0,0.0,0.25,0.0,0.25,0.5,0.75,0.25,1.0,-0.48,-0.42,0.7,105.33,17.7,8.2,0.25,0.0,1.0,0.5,0.5,1.0,0.75,1.25,0.25,1.5,0.5,0.75,1.75,0.45,-0.3,0.64,144.97,0.9,-30.8
4.44,2.5,0.0,0.75,0.25,0.0,0.0,0.25,0.0,0.25,0.5,0.75,0.0,1.0,-0.48,-0.42,0.7,100.3,18.1,13.1,0.0,0.0,1.5,0.5,0.5,0.75,0.5,1.0,0.25,1.5,0.75,0.75,1.75,0.45,-0.36,0.64,141.79,-1.0,-32.2
4.46,2.5,0.0,0.75,0.25,0.0,0.0,0.25,0.0,0.25,0.5,0.5,0.25,0.75,-0.48,-0.42,0.7,94.8,19.4,17.0,0.0,0.0,1.5,0.5,0.5,1.25,0.5,1.25,0.25,1.5,0.5,0.75,1.25,0.45,-0.36,0.64,139.52,0.0,-23.8
4.48,2.5,0.0,0.75,0.5,0.0,0.0,0.0,0.0,0.25,0.5,0.75,0.0,1.0,-0.48,-0.42,0.7,93.22,17.8,14.7,0.25,0.25,1.25,0.5,0.5,1.25,0.75,1.25,0.25,1.5,1.0,0.75,1.75,0.45,-0.3,0.64,143.95,-0.3,-26.1
4.5,2.5,0.0,0.75,0.5,0.0,0.0,0.25,0.0,0.25,0.5,0.75,0.0,1.0,-0.48,-0.42,0.7,93.91,18.0,15.0,0.25,0.25,1.25,0.5,0.5,1.0,0.5,1.25,0.25,1.5,0.5,0.75,1.5,0.39,-0.3,0.7,144.15,-0.3,-23.6
4.52,2.5,0.0,0.75,0.25,0.0,0.0,0.5,0.0,0.25,0.5,0.75,0.0,0.75,-0.48,-0.42,0.7,93.16,19.8,18.8,0.0,0.0,1.5,0.5,0.5,1.25,0.75,1.25,0.25,1.25,0.75,0.75,1.75,0.39,-0.3,0.64,146.71,-0.2,-27.5
4.54,2.5,0.0,0.75,0.5,0.0,0.0,0.0,0.0,0.25,0.25,0.5,0.25,1.0,-0.48,-0.42,0.7,93.03,19.1,17.0,0.0,0.25,1.25,0.5,0.5,1.0,0.5,1.25,0.25,1.5,0.5,0.75,1.5,0.39,-0.3,0.64,143.83,0.5,-26.6
4.56,2.5,0.0,0.75,0.25,0.0,0.0,0.5,0.0,0.0,0.25,0.0,0.0,0.75,-0.48,-0.36,0.7,86.44,23.5,41.8,0.0,0.25,1.25,0.5,0.5,1.0,0.5,1.25,0.25,1.5,0.5,0.75,1.75,0.52,-0.3,0.7,142.7,0.8,-28.7
4.58,2.5,0.0,1.0,0.25,0.0,0.0,0.5,0.0,0.0,0.25,0.0,0.0,1.0,-0.48,-0.36,0.7,83.05,22.4,35.1,0.0,0.0,1.25,0.5,0.5,1.25,0.75,1.0,0.25,1.25,0.75,0.75,1.5,0.52,-0.23,0.77,138.28,0.0,-27.4
4.6,2.5,0.0,1.0,0.25,0.0,0.0,0.5,0.0,0.0,0.0,0.0,0.25,1.0,-0.48,-0.36,0.77,80.14,23.6,33.5,0.0,0.25,1.0,0.5,0.5,1.25,0.75,1.25,0.25,1.5,0.5,0.75,1.75,0.58,-0.3,0.77,139.13,2.0,-28.9
4.62,2.5,0.0,0.75,0.25,0.0,0.0,0.5,0.0,0.25,0.0,0.0,0.0,0.75,-0.48,-0.36,0.77,78.24,25.0,43.8,0.25,0.0,1.25,0.5,0.5,1.25,0.75,1.25,0.25,1.5,0.5,0.75,1.5,0.52,-0.3,0.89,140.11,0.1,-24.8
4.64,2.5,0.0,0.75,0.75,0.0,0.0,0.5,0.0,0.0,0.25,0.0,0.0,1.0,-0.48,-0.36,0.83,80.62,21.1,36.1,1.0,0.75,1.25,0.5,0.5,0.75,0.5,1.25,0.25,1.5,0.5,0.75,1.75,0.52,-0.3,0.89,147.93,-3.2,-13.4
4.66,2.5,0.0,0.75,0.5,0.0,0.0,0.5,0.0,0.0,0.5,0.0,0.0,1.0,-0.55,-0.36,0.83,82.88,19.6,29.9,0.0,0.0,1.25,0.5,0.5,1.0,0.75,1.0,0.25,1.5,0.5,1.0,1.25,0.45,-0.3,0.83,144.84,-0.5,-29.0
4.68,2.5,0.0,1.25,0.5,0.0,0.0,0.5,0.0,0.0,0.5,0.0,0.0,0.75,-0.55,-0.36,0.89,86.95,22.8,39.1,0.25,0.0,1.25,0.5,0.5,0.75,0.75,1.25,0.25,1.5,0.5,0.75,1.75,0.39,-0.3,0.89,144.05,-0.5,-29.9
4.7,2.5,0.0,0.75,0.25,0.0,0.0,0.5,0.0,0.0,0.5,0.0,0.0,0.75,-0.55,-0.36,0.89,85.13,21.5,35.7,0.0,0.0,1.0,0.5,0.5,1.0,0.5,1.25,0.25,1.5,0.5,0.75,1.5,0.33,-0.3,0.83,138.05,1.9,-32.6
4.72,2.5,0.0,0.75,0.25,0.0,0.0,0.25,0.0,0.0,0.25,0.0,0.0,1.0,-0.55,-0.36,0.89,82.73,21.3,33.9,0.25,0.5,1.25,0.75,0.5,1.25,0.25,1.25,0.25,1.25,0.5,0.75,1.75,0.27,-0.3,0.83,141.1,-0.1,-18.7
4.74,2.5,0.0,0.75,0.25,0.0,0.0,0.5,0.0,0.0,0.25,0.0,0.0,1.0,-0.48,-0.3,0.89,80.15,21.5,33.8,0.25,0.25,1.25,0.5,0.5,0.75,0.5,1.25,0.25,1.5,0.25,0.75,1.25,0.27,-0.3,0.83,138.22,-1.0,-21.3
4.76,2.5,0.0,0.75,0.5,0.0,0.0,0.25,0.0,0.0,0.0,0.0,0.0,0.75,-0.42,-0.3,0.83,78.01,25.1,49.6,0.25,0.0,1.25,0.5,0.5,0.75,0.5,1.25,0.25,1.5,0.5,0.75,2.25,0.33,-0.3,0.77,142.27,0.5,-34.7
4.78,2.5,0.0,0.75,0.5,0.0,0.0,0.5,0.0,0.0,0.0,0.0,0.0,1.0,-0.48,-0.3,0.83,78.43,23.2,40.6,0.5,0.0,1.25,0.5,0.5,1.0,0.5,1.25,0.25,1.5,0.5,0.75,1.5,0.33,-0.23,0.77,141.84,-0.8,-23.9
4.8,2.5,0.0,1.0,0.25,0.0,0.0,0.25,0.0,0.0,0.0,0.0,0.0,1.0,-0.42,-0.3,0.83,78.93,24.1,41.1,0.0,0.25,1.25,0.5,0.5,0.75,0.5,1.25,0.25,1.5,0.5,0.75,1.75,0.33,-0.23,0.77,141.6,0.3,-30.3
4.82,2.5,0.0,0.75,0.5,0.0,0.0,0.25,0.0,0.0,0.0,0.0,0.0,1.0,-0.48,-0.3,0.83,78.89,23.0,41.0,0.0,0.25,1.25,0.5,0.5,0.75,0.5,1.5,0.25,1.25,0.5,0.75,1.25,0.33,-0.23,0.77,137.37,-0.3,-24.8
4.84,2.5,0.0,1.0,0.25,0.0,0.0,0.5,0.0,0.0,0.0,0.0,0.0,1.0,-0.48,-0.3,0.83,79.24,24.3,40.8,0.0,0.5,1.25,0.5,0.5,0.75,0.5,1.25,0.25,1.5,0.5,0.75,1.5,0.39,-0.23,0.83,136.48,-0.3,-24.7
4.86,2.5,0.0,0.75,0.5,0.0,0.0,0.25,0.0,0.0,0.0,0.0,0.0,0.75,-0.55,-0.3,0.77,78.18,25.1,49.6,0.25,0.25,1.25,0.5,0.5,1.0,0.75,1.25,0.25,1.5,0.5,0.75,1.75,0.39,-0.3,0.83,138.54,-0.3,-25.2
4.88,2.5,0.0,1.25,0.5,0.0,0.0,0.5,0.0,0.0,0.0,0.0,0.0,0.75,-0.48,-0.3,0.77,80.15,26.6,50.2,0.5,0.25,1.0,0.25,0.5,1.25,0.5,1.25,0.25,1.5,0.5,0.75,1.5,0.39,-0.3,0.83,139.82,0.8,-23.7
4.9,2.5,0.0,0.75,0.25,0.0,0.0,0.5,0.0,0.0,0.25,0.0,0.0,0.5,-0.48,-0.3,0.77,78.22,25.7,50.7,0.25,0.25,1.25,0.5,0.5,0.75,0.5,1.25,0.25,1.5,0.5,0.75,1.75,0.39,-0.23,0.77,142.31,-0.5,-27.2
4.92,2.5,0.0,0.75,0.5,0.0,0.0,0.25,0.0,0.0,0.0,0.0,0.0,1.0,-0.55,-0.3,0.77,78.93,23.0,41.0,0.0,0.25,1.25,0.5,0.5,0.75,0.5,1.25,0.25,1.25,0.5,0.75,1.5,0.39,-0.3,0.77,138.55,-0.4,-26.8
4.94,2.5,0.0,0.75,0.25,0.0,0.0,0.25,0.0,0.0,0.25,0.0,0.0,0.75,-0.55,-0.3,0.77,77.44,23.3,42.1,0.0,0.25,1.0,0.5,0.5,0.75,0.5,1.25,0.25,1.5,0.5,0.75,1.75,0.39,-0.23,0.77,137.01,1.3,-32.8
4.96,2.5,0.0,1.0,0.5,0.0,0.0,0.5,0.0,0.0,0.0,0.0,0.0,1.0,-0.55,-0.3,0.77,80.26,24.0,41.7,0.25,0.5,1.0,0.5,0.5,0.75,0.5,1.25,0.25,1.25,0.5,1.0,1.75,0.39,-0.23,0.7,136.46,-0.4,-27.1
4.98,2.5,0.0,0.75,0.5,0.0,0.0,0.5,0.0,0.0,0.25,0.0,0.0,0.75,-0.55,-0.3,0.77,80.72,23.2,42.6,0.5,0.25,1.25,0.5,0.5,1.25,0.25,1.25,0.25,1.5,0.5,0.75,1.5,0.39,-0.23,0.77,140.94,-0.1,-20.1
5.0,2.5,0.0,0.75,0.5,0.0,0.0,0.25,0.0,0.0,0.25,0.0,0.0,1.0,-0.55,-0.3,0.77,82.71,21.1,35.2,0.0,0.5,1.25,0.5,0.5,0.5,0.5,1.25,0.25,1.5,0.5,0.75,1.5,0.39,-0.23,0.77,139.69,-0.9,-26.2
5.02,2.5,0.0,0.75,0.5,0.0,0.0,0.25,0.0,0.0,0.0,0.0,0.0,0.5,-0.55,-0.3,0.77,79.63,27.4,59.2,0.0,0.25,1.25,0.5,0.5,0.75,0.5,1.25,0.25,1.5,0.5,0.75,1.75,0.39,-0.23,0.77,140.47,0.3,-30.3
5.04,2.5,0.0,1.25,0.5,0.0,0.0,0.25,0.0,0.0,0.0,0.0,0.0,0.75,-0.55,-0.3,0.77,81.09,26.4,50.7,0.25,0.25,1.0,0.5,0.5,0.75,0.25,1.25,0.25,1.25,0.25,0.75,2.25,0.45,-0.23,0.77,139.23,1.5,-32.3
5.06,2.5,0.0,0.75,0.5,0.0,0.0,0.5,0.0,0.0,0.0,0.0,0.0,1.0,-0.55,-0.3,0.77,80.72,23.2,40.6,0.25,0.0,1.25,0.5,0.5,0.75,0.5,1.25,0.25,1.5,0.75,0.75,2.0,0.45,-0.23,0.77,141.71,0.0,-33.7
5.08,2.5,0.0,0.75,0.25,0.0,0.0,0.5,0.0,0.0,0.0,0.0,0.0,1.0,-0.55,-0.3,0.77,80.24,23.5,39.7,0.0,0.25,1.5,0.5,0.5,1.0,0.75,1.25,0.25,1.5,0.25,0.75,1.5,0.45,-0.23,0.77,141.36,-0.6,-22.4
5.1,2.5,0.0,0.75,0.5,0.0,0.0,0.5,0.0,0.0,0.0,0.0,0.0,0.0,-0.48,-0.3,0.77,76.15,33.0,80.7,0.0,0.25,1.0,0.5,0.5,0.75,0.5,1.25,0.25,1.5,0.5,0.75,1.5,0.45,-0.23,0.77,139.21,1.0,-30.6
5.12,2.5,0.0,0.75,0.25,0.0,0.0,0.5,0.0,0.0,0.0,0.0,0.0,0.75,-0.48,-0.3,0.77,74.03,25.7,48.5,0.0,0.0,1.25,0.5,0.5,0.5,0.5,1.25,0.25,1.5,0.5,0.75,1.75,0.39,-0.23,0.77,137.08,0.1,-35.6
5.14,2.5,0.0,0.75,0.5,0.0,0.0,0.5,0.0,0.0,0.25,0.0,0.0,0.5,-0.48,-0.3,0.77,74.29,25.2,51.1,0.0,0.5,1.25,0.5,0.5,0.75,0.75,1.25,0.25,1.5,0.5,0.75,1.75,0.39,-0.23,0.77,138.08,-0.3,-26.2
5.16,2.5,0.0,0.75,0.5,0.0,0.0,0.25,0.0,0.0,0.0,0.0,0.0,1.0,-0.48,-0.3,0.77,75.68,23.0,41.0,0.5,0.0,1.25,0.5,0.5,0.75,0.75,1.25,0.25,1.5,0.5,0.75,1.5,0.39,-0.23,0.77,138.75,-1.7,-24.7
5.18,2.75,0.0,1.0,0.5,0.0,0.0,0.5,0.0,0.0,0.0,0.0,0.0,0.5,-0.55,-0.3,0.77,78.93,28.5,60.4,0.0,0.25,1.25,0.5,0.5,0.75,0.75,1.25,0.25,1.5,0.5,0.75,1.5,0.39,-0.23,0.77,138.25,-0.4,-27.4
