time,left pressure 0[N/cm²],left pressure 1[N/cm²],left pressure 2[N/cm²],left pressure 3[N/cm²],left pressure 4[N/cm²],left pressure 5[N/cm²],left pressure 6[N/cm²],left pressure 7[N/cm²],left pressure 8[N/cm²],left pressure 9[N/cm²],left pressure 10[N/cm²],left pressure 11[N/cm²],left pressure 12[N/cm²],left acceleration X[g],left acceleration Y[g],left acceleration Z[g],left total force[N],left center of pressure X[mm],left center of pressure Y[mm],right pressure 0[N/cm²],right pressure 1[N/cm²],right pressure 2[N/cm²],right pressure 3[N/cm²],right pressure 4[N/cm²],right pressure 5[N/cm²],right pressure 6[N/cm²],right pressure 7[N/cm²],right pressure 8[N/cm²],right pressure 9[N/cm²],right pressure 10[N/cm²],right pressure 11[N/cm²],right pressure 12[N/cm²],right acceleration X[g],right acceleration Y[g],right acceleration Z[g],right total force[N],right center of pressure X[mm],right center of pressure Y[mm]
0.02,7.75,0.0,7.25,7.5,0.0,0.0,5.0,0.0,0.0,0.75,0.75,0.0,0.0,-0.42,0.39,2.08,393.39,28.2,59.5,1.25,0.75,1.5,2.25,3.0,4.0,1.5,6.0,1.5,7.5,8.25,3.0,2.5,0.08,0.08,0.95,582.09,1.1,-31.0
0.04,8.0,0.0,6.5,3.75,0.0,0.0,3.75,1.25,0.0,0.75,0.75,0.0,0.0,-0.67,0.7,2.58,370.62,27.3,55.5,0.5,0.5,1.75,3.0,1.25,5.75,1.25,5.75,1.75,7.75,7.25,3.5,3.0,0.08,0.08,0.95,622.88,2.2,-34.5
0.06,7.25,0.0,4.25,2.75,0.0,0.0,2.5,0.0,0.0,0.5,0.5,0.0,0.0,-0.86,0.89,2.52,311.62,30.2,65.0,1.25,1.25,3.25,3.25,4.75,5.75,2.25,6.0,1.5,6.5,7.5,3.25,3.5,0.08,0.08,0.95,689.62,-0.1,-18.8
0.08,0.0,0.0,3.0,2.5,0.0,0.0,1.25,0.0,0.0,0.0,0.0,0.0,0.25,-0.61,0.39,2.89,228.72,27.3,49.9,1.0,1.25,2.0,3.25,4.75,5.75,2.25,6.0,1.5,6.5,6.0,2.25,1.0,0.08,0.08,0.95,690.99,0.8,-12.3
0.1,2.75,0.0,2.0,2.25,0.0,0.0,0.0,0.0,0.0,1.25,0.0,0.0,0.0,-0.86,-0.55,2.02,167.22,23.0,50.8,1.75,1.5,3.25,3.25,5.0,6.25,2.5,6.0,1.5,5.75,5.75,2.0,2.25,0.14,0.08,0.95,703.56,-0.4,-7.8
0.12,0.25,0.0,0.0,0.0,0.0,0.0,0.0,0.0,0.0,0.25,0.75,0.0,0.0,-0.3,-0.86,1.14,79.84,9.9,-42.0,0.5,1.5,3.25,3.25,5.75,6.5,2.5,6.0,1.0,4.5,5.0,1.75,1.75,0.14,0.08,0.95,673.32,0.4,-3.9
0.14,1.25,0.0,0.0,1.75,0.0,0.0,0.0,0.0,0.0,0.75,1.25,0.5,0.0,-0.61,-1.61,1.52,38.13,14.3,3.2,1.5,1.5,3.25,3.25,6.0,6.75,2.5,5.5,1.0,3.25,4.0,1.25,1.5,0.08,0.08,0.95,645.9,-0.6,5.3
0.16,1.25,0.0,2.25,2.5,0.0,0.0,0.25,0.0,0.0,0.0,1.25,0.25,0.25,-0.42,-0.92,1.77,28.23,23.9,33.2,1.5,1.75,3.25,4.0,6.75,6.75,2.5,5.25,1.0,2.5,2.75,0.75,1.75,0.08,0.08,0.95,619.7,-0.8,12.9
0.18,0.0,0.0,0.0,1.0,0.0,0.0,0.5,0.0,0.5,0.0,1.25,0.5,0.0,-0.3,-0.61,0.52,16.17,14.1,-28.0,2.5,1.5,3.5,5.25,7.0,7.0,3.0,5.0,0.5,1.0,2.75,0.5,1.25,0.08,0.08,0.95,611.08,-3.1,23.2
0.2,0.0,0.0,2.25,1.75,0.0,0.0,0.25,0.0,0.25,0.0,1.0,0.0,0.25,-0.42,-0.3,0.33,11.17,23.3,24.3,1.25,0.75,3.25,3.5,6.75,6.75,2.75,5.0,0.25,1.0,2.5,0.5,0.75,0.08,0.14,0.95,561.89,-1.0,19.7
0.22,0.0,0.0,1.0,0.5,0.0,0.0,0.0,0.0,0.0,0.0,0.0,0.0,0.0,-0.3,-0.23,0.52,0.0,31.1,59.9,1.25,0.75,4.5,5.25,8.25,7.25,3.5,4.0,0.25,1.0,1.0,0.25,0.5,0.08,0.08,0.95,539.77,-3.0,31.9
0.24,0.0,0.0,1.0,0.5,0.0,0.0,0.0,0.0,0.0,0.0,0.0,0.0,0.0,-0.11,-0.23,1.02,0.0,31.1,59.9,2.0,1.0,5.5,5.5,7.25,7.5,3.5,4.0,0.0,1.0,0.5,0.25,0.25,0.08,0.08,0.95,527.71,-4.8,36.7
0.26,0.25,0.0,1.0,0.25,0.0,0.0,0.0,0.0,0.0,0.5,0.0,0.0,0.0,0.02,-0.17,1.14,0.0,21.8,31.1,3.75,1.75,5.75,8.0,8.25,8.0,4.5,5.0,0.75,1.25,1.75,0.5,1.0,0.08,0.14,0.95,600.39,-6.0,32.2
0.28,0.25,0.0,1.0,2.0,0.0,0.0,0.0,0.0,0.25,0.5,0.0,0.5,0.0,-0.05,0.02,1.14,10.16,18.0,22.8,3.0,1.5,7.0,7.5,8.5,7.75,3.75,3.75,0.25,0.25,0.5,0.0,0.25,0.08,0.14,0.95,639.64,-7.4,44.0
0.3,1.25,0.0,2.5,2.25,0.0,0.0,0.25,0.0,0.25,1.0,1.25,0.0,0.25,-0.05,0.14,1.27,61.33,20.2,23.0,3.75,1.25,7.0,9.0,8.5,7.75,4.0,3.75,0.5,0.0,0.25,0.0,0.25,0.08,0.14,0.95,692.89,-8.4,45.8
0.32,1.0,0.0,2.25,0.0,0.0,0.0,0.25,0.0,0.0,0.75,1.25,0.0,0.25,-0.05,0.2,1.77,87.48,22.0,10.6,5.0,0.75,8.0,9.25,9.5,7.75,5.0,3.75,0.0,0.0,0.25,0.0,0.0,0.08,0.14,1.02,739.44,-9.7,48.6
0.34,1.25,0.0,0.75,0.5,0.0,0.0,0.0,0.0,0.0,0.5,0.0,0.0,0.0,-0.11,0.33,1.89,85.53,24.1,51.9,5.75,1.25,8.75,9.25,9.5,7.5,5.75,2.5,0.0,0.0,0.25,0.0,0.25,0.08,0.2,1.02,783.92,-11.4,51.3
0.36,0.75,0.0,0.75,2.0,0.0,0.0,0.0,0.0,0.25,0.75,0.75,0.5,0.0,-0.23,0.64,2.45,87.92,16.1,10.6,7.25,2.25,8.75,12.5,9.5,0.0,5.5,2.5,0.0,1.0,1.5,0.0,0.5,0.02,0.2,1.02,825.42,-16.6,50.1
0.38,1.25,0.0,0.75,1.0,0.0,0.0,0.0,0.0,0.25,1.25,0.0,0.75,0.0,-0.36,1.14,3.33,80.88,14.9,6.9,7.0,1.5,9.25,11.5,9.5,6.25,6.0,1.0,0.0,0.75,0.25,0.75,0.0,0.02,0.27,1.02,873.23,-13.8,52.6
0.4,1.75,0.0,0.75,2.0,0.0,0.0,0.0,0.0,0.0,0.5,0.25,0.0,0.0,-0.3,2.27,2.64,83.99,22.4,51.9,8.25,2.0,9.5,12.5,10.0,5.75,6.0,2.0,0.5,1.25,1.5,0.75,1.0,0.08,0.27,1.2,958.42,-13.2,45.3
0.42,0.75,0.0,1.5,1.75,0.0,0.0,0.0,0.0,0.25,0.75,1.25,1.0,0.5,0.39,3.95,0.77,101.6,15.5,-6.9,7.75,1.5,10.5,10.5,8.25,3.75,6.75,1.0,0.25,0.0,0.25,0.25,0.0,0.08,0.33,1.33,946.33,-17.6,57.2
0.44,1.25,0.0,2.25,1.5,0.0,0.0,0.0,0.0,0.25,1.25,1.25,1.0,0.25,0.95,3.83,0.95,120.74,17.5,1.5,7.75,2.0,9.5,7.75,7.0,1.75,6.25,0.75,0.25,0.0,0.25,0.0,0.25,0.14,0.39,1.77,870.87,-19.6,59.5
0.46,1.25,0.0,1.0,1.75,0.0,0.0,0.25,0.0,0.25,1.5,0.25,0.25,0.0,1.08,4.7,0.52,124.42,15.6,18.4,8.5,1.0,8.75,5.25,6.0,2.0,6.0,0.75,0.25,1.0,1.0,0.75,0.0,0.27,0.77,2.14,748.19,-19.2,51.2
0.48,1.25,0.0,2.25,1.5,0.0,0.0,0.0,0.0,0.25,0.75,1.25,0.0,0.25,1.02,4.7,-0.17,126.72,20.9,21.3,7.75,0.25,7.0,2.75,5.0,0.75,5.0,0.75,0.25,0.0,0.75,0.0,1.0,0.52,0.89,2.33,588.86,-20.8,52.4
0.5,1.75,0.0,2.25,0.5,0.0,0.0,0.0,0.0,0.0,2.0,1.5,3.0,1.25,0.27,0.39,1.27,143.81,12.1,-32.6,5.25,0.75,3.5,3.25,1.25,1.75,3.0,0.5,0.25,1.0,0.25,0.75,1.0,0.45,0.77,2.52,416.15,-16.9,39.4
0.52,0.0,0.0,1.0,0.5,0.0,0.0,0.0,0.0,0.0,3.0,2.0,3.25,2.75,0.33,0.27,1.39,168.16,0.9,-75.3,1.25,0.0,3.0,2.5,1.25,0.0,1.25,0.75,0.0,0.0,0.0,0.5,1.0,0.64,0.2,2.39,276.84,-17.5,31.3
0.54,0.5,0.0,0.75,1.25,0.0,0.0,0.25,0.0,0.5,5.0,3.5,4.0,5.0,-0.23,0.33,2.14,227.24,0.0,-71.7,1.25,0.5,1.75,1.5,0.0,1.75,0.25,0.75,0.0,1.0,0.25,0.5,0.0,0.64,-0.92,0.45,168.35,-9.4,26.6
0.56,0.0,0.0,1.0,0.5,0.0,0.0,0.0,2.25,0.75,4.5,3.75,2.5,4.25,-0.23,0.39,1.14,270.26,-2.5,-71.1,1.25,0.0,3.25,0.5,1.25,1.0,0.25,0.75,0.0,0.0,0.75,0.0,1.0,0.83,-0.61,0.89,80.47,-13.5,26.3
0.58,0.0,0.0,1.0,1.75,0.0,0.0,0.25,4.5,0.75,6.75,5.75,0.0,5.0,-0.17,0.14,1.02,324.31,-4.2,-59.4,0.25,0.0,1.75,0.5,0.0,0.5,0.0,0.0,0.0,0.0,0.25,0.0,0.0,0.58,-1.36,1.52,0.0,-23.8,49.1
0.6,0.0,0.0,0.0,2.5,0.0,0.0,0.5,4.5,0.75,7.25,6.25,3.25,5.0,-0.17,0.08,0.95,381.67,-3.4,-66.1,0.25,0.0,1.25,0.5,0.25,0.5,0.0,0.0,0.0,0.0,0.25,0.0,0.0,0.2,-0.48,1.14,0.0,-18.8,47.5
0.62,0.0,0.0,0.0,2.0,0.0,0.0,0.5,4.75,0.5,7.0,6.25,3.0,5.0,-0.17,0.08,0.95,431.32,-4.1,-67.9,0.25,0.0,0.75,0.0,0.0,0.25,0.0,0.0,0.0,0.0,0.25,0.0,0.0,0.33,-0.23,0.27,0.0,-23.5,40.2
0.64,0.0,0.0,1.0,2.5,0.0,0.75,0.5,5.0,0.75,6.75,0.0,3.25,5.0,-0.17,0.08,0.95,435.24,-5.7,-55.2,0.25,0.0,0.75,0.5,0.0,0.25,0.0,0.0,0.0,0.0,0.25,0.0,0.0,0.39,-0.23,0.45,0.0,-21.9,44.8
0.66,0.0,0.0,0.0,2.5,0.0,1.5,0.5,5.0,0.75,6.5,5.25,2.75,4.5,-0.17,0.08,0.95,444.84,-4.8,-58.6,0.0,0.0,0.5,0.5,0.0,1.25,0.0,0.25,0.0,0.0,0.25,0.0,0.0,0.2,-0.3,0.7,0.0,0.0,27.3
0.68,0.0,0.0,0.0,2.5,0.0,1.75,0.5,5.25,1.25,6.25,5.25,2.0,2.75,-0.17,0.08,0.95,431.48,-4.5,-52.3,0.0,0.0,0.75,0.5,0.0,1.0,0.0,0.25,0.0,1.25,0.25,0.75,0.0,0.02,-0.17,0.95,0.0,-0.5,-20.0
0.7,0.0,0.0,0.0,2.5,0.0,2.25,0.5,5.25,1.0,5.5,4.75,2.75,2.75,-0.17,0.08,0.95,419.47,-4.5,-51.5,0.0,0.0,0.5,0.75,0.0,1.0,0.0,0.25,0.0,0.0,0.25,0.0,0.0,-0.05,-0.11,1.02,0.0,-3.6,29.6
0.72,0.0,0.0,0.0,1.0,0.0,2.75,0.5,5.25,0.75,5.0,3.75,2.0,2.5,-0.17,0.08,0.95,383.82,-7.3,-53.3,0.0,0.0,0.5,0.5,0.0,0.5,0.0,0.25,0.0,0.0,0.25,0.0,0.0,-0.05,0.02,1.08,0.0,-8.1,24.9
0.74,0.0,0.0,0.0,2.5,0.0,3.0,0.5,5.0,0.75,3.75,3.0,2.0,2.5,-0.17,0.08,0.95,350.77,-5.8,-42.9,0.0,0.0,2.75,0.5,1.0,0.0,0.25,0.75,0.0,0.0,0.75,0.0,1.0,-0.11,0.14,1.45,36.38,-13.8,9.9
0.76,0.0,0.0,0.0,1.75,0.0,3.5,0.75,5.0,1.0,4.0,3.0,1.75,2.0,-0.17,0.08,0.95,316.19,-6.6,-42.4,0.0,0.0,0.5,0.5,0.0,0.5,0.0,0.5,0.0,0.0,0.25,0.0,0.0,-0.05,0.2,1.58,44.38,-5.3,17.8
0.78,0.0,0.0,0.0,2.5,1.75,3.5,1.0,5.0,0.5,4.0,2.75,2.0,1.5,-0.17,0.08,0.95,297.34,-5.6,-29.7,0.75,0.5,0.5,1.0,0.0,1.75,0.0,0.75,0.25,1.0,0.25,0.5,0.0,0.02,0.33,2.02,72.63,-1.7,11.2
0.8,0.0,0.5,0.0,3.0,2.25,3.5,1.0,4.5,0.0,3.75,2.5,1.5,1.25,-0.17,0.08,0.95,290.49,-5.1,-19.0,0.0,0.0,0.5,0.25,0.0,0.0,0.0,0.5,0.0,0.0,0.0,0.0,0.0,0.08,0.45,2.39,59.21,-12.3,21.2
0.82,0.0,0.75,0.0,4.25,0.0,4.0,1.0,4.5,0.5,3.25,2.25,1.5,1.25,-0.11,0.08,0.95,282.9,-3.7,-19.0,0.0,0.0,2.5,0.25,0.0,0.5,0.0,0.5,0.0,0.0,0.25,0.0,0.0,0.14,0.7,3.08,69.94,-21.3,37.1
0.84,0.0,1.0,0.0,4.25,4.75,4.25,1.25,4.5,0.0,2.25,2.25,1.25,1.25,-0.11,0.08,0.95,296.94,-3.5,0.7,0.0,0.75,0.5,1.0,0.0,1.75,0.0,0.25,0.0,0.75,0.0,0.75,0.0,0.2,1.52,2.95,71.75,0.0,13.3
0.86,0.0,1.0,0.0,4.5,6.25,5.0,1.5,4.5,0.75,2.25,2.0,1.25,1.25,-0.11,0.14,0.95,333.55,-3.3,4.8,0.75,0.5,1.75,0.5,0.0,2.0,0.0,0.5,0.0,1.0,0.25,0.75,0.0,-0.67,2.02,1.2,96.91,-6.4,16.3
0.88,3.5,1.0,0.0,6.25,7.0,5.25,1.75,4.5,0.75,2.25,1.5,1.25,1.25,-0.11,0.14,0.95,400.66,0.9,18.3,0.75,0.75,2.0,1.0,1.0,1.5,0.25,0.75,0.0,1.25,0.75,0.75,1.0,-0.73,3.08,0.83,131.71,-5.6,6.0
0.9,3.5,1.0,0.0,7.0,7.25,5.75,2.0,4.25,0.75,2.0,1.0,1.0,1.25,-0.11,0.14,0.95,468.58,1.1,22.8,0.75,0.75,2.5,1.0,1.0,1.75,0.0,0.75,0.0,1.0,0.75,0.75,0.75,-1.86,3.95,0.02,163.01,-7.1,13.0
0.92,4.5,1.0,0.0,8.0,7.5,6.0,2.75,3.5,0.5,2.25,0.5,0.75,1.25,-0.11,0.14,1.02,538.2,2.4,29.1,0.75,1.0,1.75,1.25,1.0,1.5,0.0,0.75,0.0,1.0,0.75,0.75,1.0,-2.73,4.45,-0.17,182.76,-5.5,9.6
0.94,4.0,1.0,0.0,8.5,0.0,6.0,3.25,3.0,0.5,1.75,1.0,1.0,1.25,-0.11,0.14,1.02,521.49,5.0,21.3,0.75,0.75,1.75,0.75,1.0,1.25,0.0,1.0,0.0,1.75,1.75,1.5,1.0,-0.05,-0.98,0.58,196.97,-4.4,-12.9
0.96,0.0,1.0,5.75,8.25,0.0,6.25,3.5,3.0,0.5,2.0,0.0,1.0,1.25,-0.17,0.2,1.02,503.6,7.2,21.7,0.5,0.75,1.75,1.0,1.0,1.25,0.0,1.0,0.25,4.75,2.5,3.5,3.0,0.64,-0.05,1.08,238.62,-0.4,-42.7
0.98,0.0,1.0,0.0,9.25,0.0,6.25,4.0,3.0,0.5,2.25,0.0,1.0,0.75,-0.17,0.2,1.02,441.72,0.9,16.0,0.5,0.75,1.75,0.75,1.0,1.5,0.0,1.25,0.0,7.25,4.75,4.5,5.0,-0.8,0.27,1.27,302.12,1.4,-55.3
1.0,0.0,1.0,0.0,9.0,0.0,0.0,4.25,2.25,0.25,1.75,0.25,0.25,0.25,-0.17,0.2,1.08,360.99,10.3,22.9,0.5,0.75,1.75,1.25,1.25,1.75,0.0,2.5,0.75,8.25,6.5,4.0,5.75,0.14,0.52,2.52,403.99,1.8,-53.2
1.02,0.0,1.0,7.5,10.5,0.0,0.0,5.0,1.5,0.0,0.25,0.5,0.75,0.25,-0.23,0.27,1.08,335.58,21.8,41.4,0.0,0.0,1.75,0.5,0.0,1.75,0.25,4.0,0.5,7.5,6.5,3.25,3.75,0.02,0.33,1.39,466.15,3.0,-60.9
1.04,6.5,1.0,8.0,10.5,0.0,0.0,5.0,1.25,0.5,0.75,0.5,0.75,0.0,-0.23,0.27,1.33,363.19,24.4,51.1,0.0,0.0,0.0,0.25,1.0,2.75,0.25,5.0,0.75,8.0,7.25,3.5,3.75,0.08,0.2,0.95,517.55,6.2,-61.8
1.06,6.5,1.0,8.0,9.0,0.0,0.0,5.0,0.0,0.0,1.0,0.75,0.5,0.0,-0.36,0.33,1.7,388.93,26.4,55.3,1.25,0.75,1.25,2.0,1.25,4.0,1.0,5.25,1.5,8.75,8.75,4.5,5.0,0.08,0.14,0.95,592.24,1.9,-45.0
1.08,7.25,0.0,7.25,7.25,0.0,0.0,4.5,1.25,0.0,1.0,0.5,0.5,0.0,-0.42,0.45,2.14,394.27,25.5,51.5,1.25,0.75,3.0,2.0,1.5,4.5,1.25,5.75,1.75,8.25,8.75,4.25,4.5,0.08,0.08,0.95,667.73,0.3,-37.8
1.1,7.25,0.0,6.25,4.5,0.0,0.0,3.5,1.25,0.0,0.75,0.25,0.0,0.0,-0.61,0.77,2.64,364.31,26.9,57.2,1.25,0.75,3.25,3.25,2.25,4.5,2.5,5.5,1.75,8.25,8.5,4.0,4.5,0.08,0.08,0.95,740.6,-0.6,-31.8
1.12,5.75,0.0,4.25,2.75,0.0,0.0,2.0,0.0,0.0,1.0,0.25,0.0,0.0,-0.61,0.83,2.89,295.49,28.5,60.1,1.5,1.0,3.25,3.25,3.5,5.75,3.0,5.25,1.75,7.5,8.0,3.0,3.75,0.08,0.08,0.95,783.62,-0.6,-22.2
1.14,0.0,0.0,2.5,2.5,0.0,0.0,1.0,0.0,0.0,0.0,0.75,0.0,0.0,-0.61,0.39,2.77,209.51,26.0,41.7,2.25,1.5,4.25,3.25,5.0,6.0,3.5,5.25,1.5,6.5,7.5,2.75,3.25,0.08,0.14,0.95,820.97,-2.1,-11.6
1.16,0.0,0.0,1.5,0.0,0.0,0.0,0.5,0.0,0.0,0.25,1.25,0.0,0.0,-0.86,-0.86,1.77,117.1,23.4,-2.9,2.0,1.5,5.25,4.0,5.0,6.0,4.25,5.25,1.5,5.25,5.75,2.0,2.5,0.14,0.08,0.95,817.48,-3.5,-2.3
1.18,1.0,0.0,1.5,2.25,0.0,0.0,0.0,0.0,0.25,0.0,0.0,0.25,0.0,-0.92,-0.42,2.14,59.79,25.8,53.5,3.0,1.5,5.5,5.0,5.5,6.0,4.5,5.0,1.25,4.0,5.0,1.25,1.75,0.14,0.14,0.95,805.59,-5.2,8.9
1.2,0.0,0.0,0.0,2.5,0.0,0.0,0.0,0.0,0.25,1.0,0.0,0.5,0.0,-0.36,-1.98,1.58,18.32,8.4,2.7,3.0,1.5,5.5,5.5,6.0,6.0,4.75,5.0,1.25,2.75,4.0,1.0,1.5,0.08,0.14,0.95,774.43,-5.9,15.4
1.22,1.5,0.0,0.0,2.5,0.0,0.0,0.25,0.0,0.5,0.5,1.25,0.25,0.5,-0.36,-0.67,1.33,22.44,14.6,8.4,3.0,1.75,6.75,5.5,6.75,6.25,5.0,4.25,1.0,1.5,2.75,0.75,1.0,0.08,0.14,0.95,743.85,-7.6,26.5
1.24,0.0,0.0,1.25,2.5,0.0,0.0,0.25,0.0,0.25,0.5,1.25,0.25,0.0,-0.36,-0.48,0.45,25.51,17.4,10.8,3.0,1.5,6.5,6.25,5.75,6.0,5.25,4.0,1.0,0.75,2.75,0.75,1.0,0.08,0.14,0.95,706.92,-8.7,27.8
1.26,0.0,0.0,0.0,2.25,0.0,0.0,0.0,0.0,0.25,0.0,1.25,0.0,0.25,-0.48,-0.3,0.45,11.55,13.0,1.8,3.0,0.75,7.0,5.75,6.75,6.25,5.0,3.75,0.0,2.0,1.25,0.75,0.25,0.08,0.14,0.95,672.01,-7.9,32.4
1.28,0.0,0.0,2.5,0.5,0.0,0.0,0.0,0.0,0.0,0.5,1.5,0.0,0.0,-0.42,-0.3,0.7,7.98,22.8,7.9,3.0,0.75,7.0,6.25,6.75,6.25,4.5,3.25,0.0,0.5,0.25,0.0,0.0,0.08,0.14,0.95,614.48,-9.2,44.7
1.3,0.0,0.0,1.0,0.5,0.0,0.0,0.25,0.0,0.0,0.5,0.75,0.0,0.0,-0.17,-0.3,1.2,6.74,18.0,1.3,3.0,0.75,7.0,7.25,7.0,6.25,4.25,2.5,0.0,0.0,0.25,0.25,0.0,0.08,0.14,0.95,570.35,-10.1,47.5
1.32,1.75,0.0,2.5,2.5,0.0,0.0,0.0,0.0,0.25,1.0,1.25,0.25,0.0,-0.11,-0.11,1.2,50.33,21.3,27.7,4.0,1.0,7.5,8.0,7.5,6.75,5.25,2.5,0.0,0.0,0.5,0.0,0.0,0.02,0.14,0.95,573.57,-10.9,49.2
1.34,2.0,0.0,2.25,2.0,0.0,0.0,0.0,0.0,0.5,0.5,1.25,1.0,0.0,-0.11,0.08,1.14,91.08,22.1,19.8,5.0,0.75,8.0,9.0,8.25,6.5,5.5,2.5,0.5,0.0,0.5,0.25,0.0,0.02,0.2,0.95,613.24,-11.8,48.6
1.36,0.0,0.0,2.5,0.5,0.0,0.0,0.25,0.0,0.0,0.5,0.25,0.0,0.0,-0.11,0.2,1.39,103.71,26.8,33.9,5.25,1.0,8.5,9.0,8.25,6.5,5.5,2.5,0.25,0.0,0.25,0.0,0.25,0.02,0.2,0.95,661.41,-12.1,50.3
1.38,0.0,0.0,0.75,0.5,0.0,0.0,0.0,0.0,0.0,0.5,0.0,0.0,0.0,-0.11,0.2,1.7,86.74,17.1,22.0,5.5,1.5,8.75,9.0,8.5,6.5,5.5,2.5,0.25,0.0,0.25,0.0,0.25,0.02,0.2,0.95,709.74,-12.3,51.2
1.4,0.25,0.0,0.75,0.5,0.0,0.0,0.0,0.0,0.0,0.5,0.0,0.0,0.0,-0.17,0.27,2.2,60.33,19.1,30.7,6.25,1.75,8.75,9.25,9.25,6.0,4.75,1.0,0.0,0.0,0.25,0.0,0.0,0.02,0.2,0.95,741.94,-13.6,56.9
1.42,0.0,0.0,1.0,1.75,0.0,0.0,0.25,0.0,0.25,0.75,1.25,0.5,0.5,-0.3,0.58,2.83,56.98,12.3,-15.5,6.75,1.75,8.0,11.0,9.25,5.75,6.75,0.75,0.0,0.0,0.25,0.0,0.0,0.02,0.27,0.95,774.19,-14.3,57.3
1.44,0.0,0.0,0.75,1.75,0.0,0.0,0.0,0.0,0.25,1.0,0.0,0.75,0.0,-0.48,1.27,3.33,58.45,11.9,-2.9,7.5,1.0,9.5,11.0,9.0,5.75,5.75,0.75,0.0,0.0,0.25,0.0,0.0,0.02,0.27,1.02,802.28,-15.3,57.6
1.46,1.25,0.0,2.25,1.75,0.0,0.0,0.25,0.0,0.25,1.5,1.0,0.5,0.5,0.39,1.64,-1.3,91.1,16.6,6.3,8.25,2.5,10.5,12.5,8.5,5.75,5.5,0.75,0.25,0.0,1.5,0.5,0.0,0.02,0.33,1.08,872.04,-15.9,54.6
1.48,1.0,0.0,1.75,2.25,0.0,0.0,0.0,0.0,0.25,1.25,1.0,1.0,0.5,0.2,3.64,0.95,115.15,15.2,-0.5,8.5,2.5,10.5,12.0,8.25,4.5,6.25,0.75,0.25,0.0,0.25,0.5,0.0,0.02,0.33,1.2,911.77,-17.2,58.0
1.5,1.0,0.0,2.5,2.0,0.0,0.0,0.0,0.0,0.25,0.75,0.75,0.5,0.5,0.89,4.2,0.08,132.04,19.6,16.5,7.75,1.75,9.5,10.0,7.0,2.5,6.0,1.0,0.5,0.0,0.75,0.0,0.5,0.08,0.45,1.39,883.65,-18.3,55.4
1.52,1.25,0.0,2.25,0.5,0.0,0.0,0.0,0.0,0.0,0.25,1.25,0.0,0.25,1.2,4.77,-0.17,122.92,25.1,25.7,7.75,1.5,8.75,7.25,5.25,0.75,5.75,0.0,0.25,0.0,0.5,0.75,0.5,0.27,0.58,1.83,771.44,-21.9,56.6
1.54,1.0,0.0,2.0,0.5,0.0,0.0,0.0,0.0,0.0,1.0,0.25,1.25,0.0,0.58,0.45,0.27,113.76,19.7,2.8,8.25,1.75,8.0,5.5,5.0,1.75,5.25,0.75,0.5,1.0,0.75,0.75,0.75,0.39,0.95,2.33,668.06,-18.7,48.9
1.56,0.0,0.0,1.25,1.25,0.0,0.0,0.0,0.0,0.0,2.5,2.0,3.75,2.0,0.27,-0.11,1.14,136.84,4.5,-63.6,6.0,0.25,6.5,3.25,4.25,0.0,4.0,0.75,0.0,0.0,0.25,0.0,0.0,0.45,0.95,2.08,498.81,-23.1,60.8
1.58,0.0,0.0,2.25,1.75,0.0,0.0,0.0,0.0,0.0,5.25,3.5,3.5,4.25,-0.05,0.39,1.89,204.15,2.1,-61.4,3.0,0.0,3.25,1.25,1.0,0.0,2.25,0.75,0.0,0.0,0.75,0.0,1.0,0.39,0.77,2.27,328.08,-21.3,36.7
1.6,0.0,0.0,1.25,0.0,0.0,0.0,0.0,2.75,0.0,3.5,5.5,3.75,5.0,-1.17,0.52,2.58,270.4,-1.4,-76.8,1.5,0.0,3.0,0.5,1.0,0.0,0.25,0.0,0.0,0.0,0.25,0.0,1.0,0.7,-0.3,1.83,199.06,-21.8,38.3
1.62,0.0,0.0,1.5,0.5,0.0,0.0,0.25,3.0,0.75,6.25,5.25,1.5,4.5,-0.05,0.27,1.33,321.6,-2.6,-66.1,0.5,0.0,2.75,0.5,1.0,0.0,0.0,0.0,0.0,0.0,0.25,0.0,0.0,0.45,-0.98,1.08,77.94,-25.3,55.9
1.64,0.0,0.0,1.25,1.5,0.0,0.0,0.0,3.0,1.5,7.0,5.25,1.25,3.5,-0.11,0.08,0.95,356.28,-2.0,-59.7,0.75,0.0,1.75,0.5,0.0,0.5,0.0,0.0,0.0,0.0,0.25,0.0,0.0,0.83,-1.67,1.14,0.0,-25.2,55.2
1.66,0.0,0.0,0.0,2.25,0.0,0.0,0.25,3.0,1.0,6.25,5.75,0.0,3.75,-0.11,0.08,0.95,360.44,-3.8,-60.1,0.5,0.0,1.75,1.0,0.0,0.5,0.0,0.0,0.0,0.0,0.25,0.0,0.0,0.52,-0.92,1.2,0.0,-23.6,53.1
1.68,0.0,0.0,0.0,2.5,0.0,0.0,0.5,3.75,0.75,7.0,5.75,0.0,4.5,-0.11,0.08,0.95,367.87,-4.6,-60.0,0.5,0.0,1.5,0.5,0.0,0.25,0.0,0.0,0.0,0.0,0.25,0.0,0.0,0.27,-0.48,0.7,0.0,-27.1,53.1
1.7,0.0,0.0,0.0,2.5,0.0,0.75,1.0,4.5,1.75,6.5,6.25,3.25,3.5,-0.11,0.08,0.95,392.83,-2.2,-59.5,0.25,0.0,1.25,0.5,0.0,0.5,0.0,0.0,0.0,0.0,0.25,0.25,0.0,0.33,-0.36,0.52,0.0,-20.1,33.9
1.72,0.0,0.0,0.0,1.5,0.0,0.75,1.0,4.5,1.75,6.25,5.75,3.0,3.25,-0.11,0.08,0.95,412.41,-3.1,-62.6,0.25,0.0,1.25,0.5,0.0,0.25,0.0,0.0,0.0,0.0,0.25,0.0,0.0,0.27,-0.23,0.58,0.0,-25.2,48.1
1.74,0.0,0.0,0.0,1.75,0.0,1.5,1.25,4.5,1.75,5.25,5.75,2.5,2.5,-0.11,0.08,0.95,415.33,-2.7,-55.6,0.25,0.0,1.0,0.5,0.0,0.0,0.0,0.0,0.0,0.0,0.0,0.0,0.0,0.14,-0.17,0.83,0.0,-31.6,64.9
1.76,0.0,0.5,1.0,3.5,0.0,2.25,1.25,4.5,1.5,5.0,3.75,2.25,2.5,-0.11,0.08,0.95,404.31,-1.1,-36.4,0.0,0.0,1.0,0.5,0.0,1.0,0.0,0.0,0.0,0.0,0.25,0.0,0.0,0.08,-0.11,0.95,0.0,-10.7,39.0
1.78,0.0,0.75,2.25,4.25,0.0,2.75,1.5,4.5,1.5,4.0,2.25,2.0,1.75,-0.11,0.08,0.95,383.12,1.3,-19.8,1.5,0.75,1.75,1.5,0.25,1.75,0.0,0.75,0.25,0.75,0.75,0.75,1.0,0.08,-0.05,1.08,27.91,-8.0,12.0
1.8,0.0,0.75,0.0,4.5,0.0,3.0,1.5,4.5,0.0,2.75,1.5,1.25,1.25,-0.11,0.08,0.95,332.81,-2.9,-14.9,1.25,0.25,2.75,0.75,1.25,1.25,0.25,0.75,0.0,0.0,0.5,0.0,0.75,0.14,0.02,1.52,94.25,-12.2,33.5
1.82,0.0,1.0,0.0,4.75,4.25,3.5,1.75,4.25,0.75,2.25,0.0,1.25,1.25,-0.11,0.08,0.95,317.83,-2.8,5.9,1.25,0.75,2.75,0.25,1.0,1.5,0.25,0.75,0.25,1.0,0.75,0.75,1.0,0.14,0.14,1.95,152.81,-8.6,10.4
1.84,0.0,1.0,0.5,5.25,5.75,4.0,2.0,3.5,0.5,2.25,2.0,1.0,1.25,-0.11,0.08,0.95,331.37,-0.8,8.3,1.25,0.75,2.75,1.75,1.0,1.25,0.25,0.75,0.25,1.0,0.75,0.5,1.0,0.27,0.27,2.33,186.14,-10.2,17.9
1.86,1.0,1.0,1.0,6.25,6.25,4.25,2.0,3.25,0.25,2.25,0.0,1.0,1.25,-0.11,0.08,0.95,361.75,0.5,21.1,1.25,0.75,2.75,1.25,1.25,0.0,0.25,0.75,0.0,0.0,0.75,0.0,1.0,0.39,0.64,2.83,194.51,-15.9,31.8
1.88,4.0,1.0,0.0,6.5,0.0,4.25,2.0,3.0,0.0,2.25,0.0,1.0,1.25,-0.11,0.14,0.95,360.26,4.3,20.2,1.25,0.75,2.5,0.75,1.0,1.75,0.0,0.25,0.25,1.25,0.75,0.75,1.0,-1.42,0.58,1.02,199.5,-8.1,11.9
1.9,4.5,1.0,0.0,7.5,6.75,4.75,2.25,3.0,0.25,2.25,0.5,1.0,1.25,-0.11,0.14,0.95,406.88,3.3,28.3,1.25,0.75,0.5,0.75,0.0,1.75,0.0,0.0,0.25,1.0,0.75,0.0,1.0,-0.55,2.95,1.52,180.96,-3.4,8.9
1.92,4.5,1.0,0.0,8.0,7.5,4.5,2.5,3.0,0.75,2.25,0.25,1.0,1.25,-0.11,0.14,0.95,451.75,3.7,29.1,1.25,0.5,2.0,1.0,1.25,1.25,0.0,0.75,0.0,1.0,0.5,0.75,0.0,-0.8,3.33,0.27,178.33,-9.2,23.6
1.94,4.75,1.0,0.0,8.5,7.5,4.75,2.5,2.75,0.75,2.25,0.25,1.0,1.0,-0.11,0.14,0.95,506.62,4.1,31.4,0.0,0.0,0.5,0.5,0.0,0.0,0.0,0.5,0.25,0.0,0.25,0.0,0.0,-2.05,4.14,0.02,129.86,-12.8,7.1
1.96,0.0,1.0,0.0,9.0,0.0,5.25,2.75,3.0,0.5,2.25,0.5,1.0,1.25,-0.11,0.14,1.02,470.14,0.8,10.3,0.0,0.0,0.5,0.25,0.0,0.0,0.0,0.75,0.25,2.0,1.75,0.75,1.0,-2.17,4.39,-0.11,118.63,0.8,-64.3
1.98,0.0,1.0,0.0,9.0,0.0,4.75,2.75,2.5,0.5,2.25,0.0,0.75,1.25,-0.11,0.2,1.02,417.55,1.4,13.9,0.0,0.0,0.75,0.5,0.0,0.5,0.0,0.75,0.0,3.25,2.75,1.25,1.75,-0.55,-0.11,2.2,125.08,1.8,-62.4
2.0,0.0,1.0,0.0,10.5,0.0,5.25,3.0,2.25,0.5,2.25,0.0,1.0,1.0,-0.11,0.2,1.02,370.0,2.4,17.6,1.25,0.75,0.5,0.75,1.0,0.0,0.0,2.5,0.0,5.75,4.0,2.0,3.5,0.08,0.27,1.27,193.19,1.9,-50.1
2.02,0.0,1.0,0.0,9.75,0.0,0.0,3.5,1.75,0.0,0.5,0.5,0.75,0.0,-0.17,0.2,0.95,306.93,13.2,31.4,0.0,0.0,0.5,0.0,0.0,1.75,0.25,2.75,0.0,6.25,3.75,1.25,2.25,0.39,0.39,1.58,233.01,7.5,-62.4
2.04,0.0,1.0,0.0,9.25,0.0,0.0,3.75,1.5,0.0,0.0,0.25,0.25,0.75,-0.17,0.2,1.02,265.75,13.5,34.2,0.25,0.0,0.0,0.5,0.0,1.75,0.0,4.0,0.75,6.75,4.25,2.25,1.75,0.08,0.2,1.14,282.16,6.5,-60.6
2.06,0.0,0.75,0.0,9.25,0.0,0.0,4.0,1.5,0.25,0.0,0.0,0.25,0.0,-0.17,0.2,1.2,223.31,15.2,41.4,0.25,0.0,0.0,0.5,0.25,0.0,0.0,5.0,1.0,6.5,6.5,2.25,3.0,0.08,0.14,0.95,321.83,4.4,-68.1
2.08,5.5,1.0,7.5,10.5,0.0,0.0,4.0,1.5,0.0,0.75,0.5,1.0,0.5,-0.23,0.27,1.33,269.29,22.8,46.6,0.25,0.0,0.5,0.5,1.0,4.0,0.25,5.25,1.25,8.0,5.75,3.5,3.0,0.08,0.14,0.95,388.81,6.0,-52.1
2.1,6.25,1.0,7.75,8.75,0.0,0.0,3.75,0.0,0.0,0.75,0.5,1.0,0.0,-0.36,0.33,1.83,306.34,26.4,54.8,1.25,0.75,2.75,1.75,1.25,4.5,1.0,6.0,1.5,8.25,7.75,3.5,3.75,0.08,0.08,0.95,501.47,1.1,-36.4
2.12,5.75,0.0,7.0,6.25,0.0,0.0,3.25,0.0,0.0,0.5,0.5,1.0,0.0,-0.36,0.39,2.14,334.74,27.9,53.1,1.25,0.75,2.25,2.0,1.25,4.5,1.0,6.0,1.5,8.5,7.75,3.5,4.5,0.08,0.08,0.95,609.7,1.7,-38.5
2.14,5.5,0.0,5.5,4.25,0.0,0.0,2.0,1.25,0.0,1.0,0.0,0.0,0.0,-0.48,0.83,2.27,307.39,25.3,54.6,0.25,0.0,1.0,0.5,1.0,4.0,1.0,6.0,1.0,7.5,6.75,2.75,3.75,0.08,0.08,0.95,639.72,5.2,-49.8
2.16,0.0,0.0,3.5,3.25,0.0,0.0,1.25,0.0,0.0,1.0,0.5,0.0,0.25,-0.36,0.83,2.27,247.81,21.6,31.3,0.25,0.25,1.25,1.0,1.0,4.0,0.5,5.5,1.25,7.25,6.75,2.75,3.75,0.08,0.08,0.95,625.45,4.3,-46.7
2.18,0.0,0.0,0.0,0.0,0.0,0.0,3.75,0.0,0.0,0.0,0.25,0.0,0.0,-0.48,0.39,2.02,152.62,29.8,15.1,0.25,0.0,1.0,0.5,1.0,3.75,0.5,5.25,1.0,6.5,6.5,2.5,3.25,0.08,0.08,0.95,572.59,4.8,-48.8
2.2,0.0,0.0,0.25,0.0,0.0,0.0,0.0,0.0,0.0,0.0,0.0,0.0,0.0,-0.55,-0.42,1.7,62.51,38.2,60.9,0.25,0.0,0.75,0.5,1.0,4.0,0.25,5.25,0.5,5.75,6.0,2.25,3.0,0.08,0.08,0.95,502.86,5.8,-47.4
2.22,0.0,0.0,1.0,0.0,0.0,0.0,0.0,0.0,0.0,0.0,0.0,0.0,0.0,-0.42,-1.92,0.39,0.0,38.2,60.9,0.25,0.0,1.25,1.0,1.0,4.0,0.75,5.25,0.5,6.25,5.75,2.0,3.0,0.08,0.08,0.95,453.9,4.8,-42.9
2.24,0.0,0.0,0.0,0.5,0.0,0.0,0.0,0.0,0.0,0.0,0.0,0.0,0.0,-0.55,-1.23,2.14,0.0,17.2,57.9,1.25,1.0,1.75,2.0,1.25,5.5,1.25,5.25,0.75,6.0,5.0,2.5,2.25,0.08,0.08,0.95,441.83,2.1,-24.5
2.26,1.25,0.0,2.0,2.5,0.0,0.0,0.0,0.0,0.0,0.5,0.0,0.0,0.0,-0.11,-0.92,0.7,0.0,24.7,55.7,0.25,0.5,3.25,2.0,5.0,6.0,1.25,6.0,0.75,6.0,4.5,2.5,1.75,0.08,0.08,0.95,472.92,2.3,-15.0
2.28,1.75,0.0,2.5,2.5,0.0,0.0,0.25,0.0,0.25,1.25,1.0,0.0,0.0,-0.42,-0.48,0.33,25.71,21.0,31.3,1.25,1.5,3.25,3.25,5.5,6.75,2.5,6.0,0.75,5.0,5.0,2.25,1.75,0.08,0.08,0.95,528.96,0.0,-4.2
2.3,0.0,0.0,2.25,2.5,0.0,0.0,0.25,0.0,0.25,1.0,1.0,0.0,0.0,-0.55,-0.48,0.64,49.79,18.6,18.9,2.0,1.5,3.75,5.0,6.75,7.0,3.5,6.0,0.0,4.0,4.25,2.25,1.75,0.08,0.08,0.95,601.07,-1.6,5.8
2.32,1.25,0.0,2.75,2.5,0.0,0.0,0.0,0.0,0.25,1.0,1.0,0.0,0.0,-0.3,-0.42,0.77,69.46,21.7,31.7,3.0,1.5,5.25,5.5,7.0,7.5,4.5,6.0,0.75,3.0,3.5,1.0,1.0,0.08,0.08,0.95,669.32,-4.1,17.8
2.34,0.0,0.0,2.75,0.5,0.0,0.0,0.0,0.0,0.0,0.75,1.0,0.0,0.0,-0.23,-0.3,1.14,76.41,22.8,14.4,3.0,1.5,5.75,7.25,8.25,7.75,5.25,5.25,0.25,2.0,2.75,1.0,1.0,0.14,0.14,0.95,733.93,-5.3,25.6
2.36,0.0,0.0,2.25,0.25,0.0,0.0,0.25,0.0,0.0,0.75,0.75,0.0,0.0,-0.11,0.39,1.02,76.44,22.3,11.5,2.75,1.0,6.0,7.25,8.0,7.5,5.75,4.0,0.0,0.75,0.75,0.0,0.0,0.02,0.08,1.02,741.27,-7.0,40.9
2.38,0.0,0.0,1.5,0.5,0.0,0.0,0.0,0.0,0.0,0.5,0.0,0.0,0.0,-0.17,0.45,1.39,63.57,23.4,33.7,3.0,0.0,7.0,7.5,8.25,7.5,6.0,3.75,0.0,0.5,0.5,0.0,0.0,0.08,0.14,1.14,737.5,-8.1,42.2
2.4,0.0,0.0,1.0,0.75,0.0,0.0,0.0,0.0,0.5,1.25,0.25,0.25,0.0,-0.11,0.77,1.64,67.18,10.9,-12.5,4.0,0.75,8.0,9.0,8.5,5.75,0.0,2.5,0.25,0.0,0.5,0.0,0.25,0.08,0.14,1.14,708.41,-10.3,49.6
2.42,1.0,0.0,1.0,2.5,0.0,0.0,0.0,0.0,0.0,0.25,1.25,0.0,0.0,0.33,1.02,1.95,78.4,20.9,32.3,5.25,0.75,8.25,9.0,8.25,5.5,5.5,1.5,0.0,0.0,0.5,0.25,0.0,0.08,0.2,1.33,708.49,-13.5,52.2
2.44,0.0,0.0,0.75,0.5,0.0,0.0,0.0,0.0,0.0,0.0,0.0,0.0,0.0,-0.05,1.27,1.83,62.78,29.7,59.7,5.25,0.75,8.0,7.25,7.0,2.0,5.5,0.75,0.25,0.0,0.25,0.25,0.25,0.33,0.27,1.83,655.88,-17.6,54.5
2.46,2.75,0.0,2.0,0.25,0.0,0.0,4.0,0.0,0.5,1.0,0.0,0.25,0.0,1.45,5.27,2.58,85.96,26.6,37.7,5.75,0.75,7.25,5.0,5.0,1.75,5.0,0.75,0.25,0.0,0.5,0.0,0.25,0.39,0.45,2.27,574.66,-19.2,55.5
2.48,0.0,0.0,0.5,2.5,0.0,0.0,0.0,0.0,0.25,1.0,0.75,0.0,0.5,0.39,1.2,1.77,84.12,9.4,-2.3,5.25,0.0,5.5,3.0,1.25,1.25,4.0,0.75,0.25,0.5,0.25,0.5,0.0,0.39,0.83,2.89,430.97,-22.5,50.1
2.5,0.0,0.0,1.0,2.5,0.0,0.0,0.0,0.0,0.0,0.5,0.75,0.0,0.5,-0.05,-1.11,0.83,86.53,14.3,12.1,3.25,0.75,3.25,3.0,1.25,1.75,2.5,1.0,0.25,1.5,1.75,0.75,0.5,0.27,0.39,2.83,327.37,-13.5,24.5
2.52,0.0,0.0,1.25,0.5,0.0,0.0,0.0,0.0,0.0,0.0,0.0,0.0,0.0,-0.73,-2.11,1.02,63.85,32.1,60.1,1.0,0.5,3.25,2.0,1.25,1.0,1.25,1.0,0.0,0.0,1.5,0.0,0.0,0.33,-0.55,2.33,232.05,-15.8,36.1
2.54,0.0,0.0,0.0,1.25,0.0,0.0,0.0,0.0,0.75,1.75,1.0,0.0,0.0,0.02,0.02,0.58,65.12,3.0,-33.1,0.0,0.0,1.75,0.5,0.0,0.5,0.25,0.75,0.0,0.0,0.25,0.0,0.0,0.33,-1.17,1.08,124.75,-15.6,28.7
2.56,0.0,0.0,1.5,4.25,0.0,0.0,0.5,1.0,0.0,2.25,1.25,1.0,0.0,0.02,-0.05,1.14,96.74,9.6,-4.3,0.25,0.0,1.75,0.5,0.0,0.5,0.25,0.75,0.0,0.0,0.25,0.0,0.0,0.58,-0.17,0.95,32.75,-16.7,32.6
2.58,0.0,0.75,3.5,4.5,0.0,0.0,1.5,3.0,1.0,2.25,1.5,1.0,1.0,-0.17,0.08,1.02,172.84,9.6,-3.4,0.0,0.0,1.25,0.5,0.0,0.5,0.25,0.75,0.0,0.0,0.25,0.0,0.0,0.7,0.08,1.89,0.0,-12.1,23.8
2.6,0.0,1.0,5.0,7.0,0.0,0.0,1.75,2.5,1.5,2.25,1.5,1.0,1.0,-0.11,0.08,0.95,252.52,13.0,8.6,0.0,0.0,0.5,0.5,0.0,0.5,0.25,0.0,0.0,0.0,0.0,0.0,0.0,0.58,-1.11,1.39,0.0,-13.3,49.7
2.62,0.0,1.0,6.75,8.0,0.0,0.0,2.0,2.0,0.0,2.25,1.5,1.0,1.0,-0.17,0.08,1.14,314.16,15.8,18.2,0.0,0.0,0.5,0.5,0.0,0.75,0.25,0.75,0.0,0.0,0.25,0.0,0.0,-0.05,-0.73,1.14,0.0,-2.2,14.6
2.64,0.0,0.0,0.0,0.0,0.0,0.0,0.0,0.0,0.0,0.5,0.0,0.0,0.0,-0.11,0.08,1.2,255.55,-15.7,-75.5,0.0,0.0,0.5,0.25,0.0,0.5,0.0,0.0,0.0,0.0,0.25,0.0,0.25,-0.11,0.39,0.64,0.0,-7.1,9.2
2.66,0.0,0.5,0.0,8.0,0.0,0.0,2.0,0.5,0.0,0.0,0.0,0.0,0.0,-0.11,0.14,1.08,223.54,16.7,52.4,0.0,0.0,1.0,0.5,0.0,1.25,0.25,0.75,0.0,0.0,0.25,0.0,0.0,-1.8,4.02,-7.98,0.0,-3.9,23.2
2.68,0.0,0.0,0.0,8.0,0.0,0.0,2.5,1.25,0.25,0.25,0.0,0.0,0.0,-0.17,0.2,1.14,185.46,14.2,38.9,0.0,0.0,0.5,0.5,0.0,0.5,0.25,0.75,0.0,0.0,0.25,0.0,0.0,2.64,7.95,-4.3,0.0,-4.5,12.8
2.7,0.0,0.0,9.0,10.0,0.0,0.0,2.75,0.0,0.5,0.5,0.5,1.0,0.0,-0.17,0.2,1.14,235.83,25.0,42.7,0.25,0.0,0.25,0.5,0.0,0.5,0.25,0.75,0.0,0.0,0.25,0.0,0.0,1.89,4.33,3.02,0.0,-3.9,15.7
2.72,0.0,0.0,9.25,10.5,0.0,0.0,2.75,0.0,0.25,1.0,0.5,0.0,0.0,-0.17,0.27,1.08,284.22,24.9,48.0,0.0,0.0,0.5,0.5,0.0,0.5,0.25,0.75,0.0,1.0,0.25,0.25,0.0,0.77,0.58,4.64,9.7,0.4,-17.8
2.74,8.75,0.0,9.5,10.5,0.0,0.0,2.5,0.0,0.25,0.5,0.75,0.0,0.25,-0.11,0.33,0.95,384.38,27.8,60.7,0.0,0.0,0.5,0.5,0.0,0.5,0.25,0.75,0.0,0.0,0.0,0.0,0.0,0.45,-3.8,3.52,20.98,-3.8,21.8
2.76,8.0,0.0,9.75,8.0,0.0,0.0,3.0,0.0,0.0,0.0,0.25,0.0,0.25,-0.11,0.39,0.95,432.07,30.0,65.4,0.0,0.0,0.25,0.5,0.0,0.5,0.0,0.75,0.0,0.0,0.25,0.0,0.0,0.89,-1.23,2.89,32.4,0.8,6.5
2.78,8.5,0.0,8.5,9.75,0.0,0.0,2.75,0.0,0.0,1.25,1.0,0.0,0.0,-0.05,0.52,0.7,471.39,27.0,58.1,0.0,0.0,0.5,0.5,0.0,0.75,0.25,0.75,0.0,0.0,0.25,0.25,0.0,0.52,-0.61,2.7,41.82,-2.7,4.6
2.8,10.0,0.0,9.25,9.5,0.0,0.0,3.5,0.0,0.25,1.25,0.5,0.0,0.0,-0.11,0.52,0.83,492.87,27.8,60.8,1.25,0.75,1.25,0.75,0.0,1.75,1.0,1.0,0.25,1.0,0.5,0.0,0.5,-0.36,-1.36,-0.3,79.63,-6.3,17.8
2.82,11.0,0.0,9.25,9.0,0.0,0.0,3.5,0.0,0.0,0.5,0.0,0.0,0.0,0.14,0.52,0.64,511.39,29.7,68.1,0.0,0.0,1.0,0.5,0.0,1.75,0.25,0.75,0.0,0.0,0.5,0.0,0.0,-2.17,7.14,-7.98,88.52,-1.5,19.1
2.84,9.25,0.0,8.75,9.0,0.0,0.0,3.5,0.0,0.0,0.0,0.5,1.0,0.0,0.08,0.64,0.7,515.35,29.0,60.9,1.25,0.75,2.25,0.75,1.25,1.75,0.5,1.0,0.0,1.0,0.75,0.75,0.75,1.83,-1.11,0.7,136.83,-7.0,14.4
2.86,11.0,0.0,8.75,8.75,0.0,0.0,4.25,0.0,0.0,0.25,0.0,0.25,0.0,0.02,0.64,0.7,526.17,29.9,67.6,1.0,0.75,1.75,0.75,1.25,1.75,0.25,1.0,0.0,1.0,0.75,0.75,1.0,0.45,0.14,0.27,162.49,-4.5,8.0
2.88,0.0,0.0,8.25,6.5,0.0,0.0,3.75,0.0,0.0,0.0,0.0,0.0,0.0,0.08,0.77,0.77,442.87,29.2,56.2,1.0,0.75,2.0,0.75,1.0,1.75,0.25,0.75,0.0,0.75,1.25,0.5,1.0,-0.55,-1.48,0.64,186.62,-6.4,9.8
2.9,0.0,0.0,6.75,4.75,0.0,0.0,4.5,0.0,0.0,0.0,0.0,0.0,0.0,0.27,0.83,0.95,335.17,29.9,54.7,1.25,0.75,2.25,0.5,1.0,1.75,0.25,1.0,0.0,1.0,0.75,0.5,0.75,-0.86,0.45,-2.98,193.0,-6.8,14.9
2.92,0.0,0.0,0.0,6.25,0.0,0.0,3.75,0.0,0.0,0.0,0.0,0.0,0.0,0.08,1.02,1.02,233.82,20.4,51.3,1.0,0.75,2.25,0.5,1.0,1.75,0.25,0.75,0.25,1.25,0.75,0.0,1.0,1.27,2.89,0.02,198.52,-5.8,13.9
2.94,0.0,0.0,0.0,4.5,0.0,0.0,3.25,0.0,0.0,0.0,0.0,0.0,0.0,0.2,1.2,0.95,142.83,20.9,50.3,1.25,0.75,1.75,0.75,1.0,1.75,0.25,0.75,0.25,1.5,0.75,0.25,1.0,0.45,0.33,-0.17,198.26,-4.8,10.0
2.96,0.0,0.0,4.5,1.75,0.0,0.0,1.25,0.0,0.0,0.0,0.0,0.0,0.0,-0.17,1.33,0.39,79.72,32.3,57.3,1.25,0.75,2.0,0.75,1.0,1.75,0.25,0.75,0.25,1.0,0.75,0.25,1.0,-0.36,-1.92,0.08,196.38,-6.4,14.8
2.98,0.0,0.0,4.25,3.0,0.0,0.0,0.75,0.0,0.25,0.0,0.0,1.0,0.0,-0.42,1.14,-0.05,58.47,26.8,37.2,1.25,0.75,1.75,0.75,1.0,1.75,0.25,0.75,0.25,1.0,0.75,0.25,1.0,-0.67,-3.55,-1.86,195.13,-5.7,13.8
3.0,0.0,0.0,3.75,2.5,0.0,0.0,0.25,0.0,0.0,1.0,0.0,1.0,0.0,-0.17,0.95,-0.3,57.43,22.0,23.9,1.0,0.75,2.75,0.75,1.0,1.75,0.25,0.75,0.25,0.75,0.5,0.0,1.0,-2.17,-1.05,-0.3,191.08,-8.3,22.8
3.02,5.0,0.0,3.0,2.5,0.0,0.0,0.0,0.0,0.0,1.5,0.0,0.75,0.0,0.45,1.52,-0.55,83.63,24.5,47.6,1.25,0.75,1.75,0.5,1.25,1.75,0.75,0.75,0.25,1.0,0.75,1.0,0.75,-2.86,0.02,-1.23,187.84,-6.4,9.1
3.04,0.0,0.0,2.25,1.0,0.0,0.0,0.0,0.0,0.0,0.0,0.0,0.0,0.0,0.7,1.2,-0.3,60.07,31.7,60.0,1.0,0.75,2.25,0.5,1.0,1.75,0.75,0.75,0.25,1.0,0.75,0.75,1.0,-0.3,-0.05,-1.42,184.17,-6.9,8.4
3.06,0.0,0.0,0.0,2.25,0.0,0.0,0.0,0.0,0.0,1.0,0.0,0.0,0.0,1.08,0.95,-0.3,40.87,7.3,18.1,1.0,0.75,1.75,0.5,1.0,1.75,0.25,0.75,0.25,1.0,0.75,0.25,1.0,0.52,-0.05,-1.17,179.54,-4.8,10.9
3.08,0.0,0.0,0.0,0.5,0.0,0.0,0.0,0.0,0.0,0.5,0.0,0.0,0.0,-0.3,-0.11,0.77,3.14,1.1,-7.2,1.0,0.75,1.75,0.75,1.0,1.75,0.25,0.75,0.25,1.0,0.75,0.5,1.0,0.58,0.2,-1.17,171.95,-5.2,9.4
3.1,0.0,0.0,0.0,2.0,0.0,0.0,0.0,0.0,0.0,0.25,0.5,0.0,0.0,-0.11,-0.8,0.45,0.0,13.1,23.2,1.25,0.75,1.75,0.75,1.25,1.75,0.0,0.75,0.25,1.0,0.75,0.5,1.0,0.89,0.77,-0.61,172.47,-5.3,12.0
3.12,0.0,0.0,1.25,0.0,0.0,0.0,0.0,0.0,0.0,0.75,0.0,0.0,0.0,-0.11,-0.11,0.08,2.79,18.4,10.7,1.0,0.75,1.75,0.5,1.0,1.75,0.25,0.75,0.25,1.0,0.75,0.5,1.0,1.39,1.33,-0.73,170.68,-4.9,8.2
3.14,0.0,0.0,0.75,0.5,0.0,0.0,0.0,0.0,0.0,0.5,0.0,0.0,0.0,0.08,0.45,-0.36,8.9,17.1,22.0,0.75,0.75,1.5,0.75,1.25,1.75,0.25,0.75,0.25,1.0,0.75,0.5,1.0,0.77,1.45,-1.05,169.31,-3.6,7.5
3.16,0.0,0.0,1.5,0.5,0.0,0.0,0.0,0.0,0.0,0.5,0.0,0.0,0.0,0.39,0.58,-0.11,16.7,23.4,33.7,0.75,0.75,0.5,0.5,1.25,1.75,0.25,0.75,0.25,1.0,0.75,0.75,0.75,-0.17,1.02,-0.98,161.45,-0.2,0.8
3.18,0.0,0.0,2.5,0.75,0.0,0.0,0.25,0.0,0.0,0.5,0.75,1.0,0.0,0.33,0.58,-0.05,35.98,21.8,0.6,1.25,0.75,1.75,0.5,1.0,1.5,0.25,0.75,0.25,1.0,0.75,0.5,1.0,-0.55,0.58,-0.92,160.68,-6.1,9.6
3.2,0.0,0.0,2.5,1.0,0.0,0.0,0.0,0.0,0.0,0.75,0.5,1.0,0.0,0.52,1.08,0.2,53.46,20.3,2.6,1.0,0.75,1.5,0.5,0.5,1.75,0.25,0.75,0.25,1.25,0.75,0.75,1.0,-0.48,0.64,-0.8,158.03,-4.2,0.0
3.22,0.0,0.0,2.5,0.75,0.0,0.0,0.25,0.0,0.0,0.5,0.75,1.0,0.0,0.83,1.58,0.27,69.31,21.8,0.6,1.25,0.75,1.75,0.5,1.0,1.75,0.25,0.75,0.25,1.25,0.75,0.75,0.75,-0.23,0.64,-0.86,163.28,-5.6,8.3
3.24,0.0,0.0,2.25,1.0,0.0,0.0,0.25,0.0,0.0,0.5,0.75,1.0,0.0,0.77,1.83,0.2,80.89,20.9,0.6,0.75,0.75,1.75,0.5,1.0,1.75,0.25,0.75,0.25,1.0,0.75,0.5,1.0,-0.05,0.45,-0.67,163.18,-4.3,6.3
3.26,0.0,0.0,1.75,1.25,0.0,0.0,0.0,0.0,0.0,0.25,0.25,1.0,0.0,0.39,1.58,0.08,82.28,21.5,8.5,1.0,0.75,1.75,0.75,1.0,1.75,0.25,0.75,0.25,1.0,0.75,0.5,0.75,-0.3,0.2,-1.17,165.76,-5.6,12.1
3.28,0.0,0.0,1.5,1.0,0.0,0.0,0.0,0.0,0.0,0.0,0.25,1.0,0.0,0.27,1.39,0.02,82.82,23.1,7.1,1.0,0.75,1.75,0.5,1.0,1.75,0.25,0.75,0.25,1.0,0.75,0.5,1.0,-0.48,0.14,-0.86,165.9,-4.9,8.2
3.3,0.0,0.0,1.75,1.5,0.0,0.0,0.0,0.0,0.0,0.0,0.75,1.0,0.75,0.2,1.08,-0.05,85.43,17.4,-8.1,1.25,0.75,1.75,0.5,1.0,1.75,0.25,0.75,0.25,1.0,0.75,0.75,1.0,-0.48,0.27,-0.48,169.27,-5.6,7.5
3.32,0.0,0.0,1.25,1.25,0.0,0.0,0.0,0.0,0.0,0.0,0.25,1.0,0.0,0.33,1.2,0.2,80.01,21.7,7.0,0.75,0.75,1.75,0.5,1.0,1.75,0.25,0.75,0.25,1.0,0.75,0.75,0.75,-0.23,0.64,-0.36,167.54,-4.8,6.4
3.34,0.0,0.0,1.25,1.25,0.0,0.0,0.0,0.0,0.0,0.0,0.75,0.5,0.0,0.45,1.08,0.33,74.24,22.0,11.7,1.0,0.75,1.75,0.5,1.0,1.75,0.25,0.75,0.25,1.0,0.5,0.5,1.0,0.14,0.64,-0.67,167.0,-4.8,10.1
3.36,0.0,0.0,0.75,1.5,0.0,0.0,0.0,0.0,0.0,0.25,0.0,0.75,0.0,0.45,1.02,0.45,65.54,17.7,11.1,1.0,0.75,1.5,0.5,1.25,1.75,0.25,0.75,0.25,1.0,0.75,0.5,1.0,0.27,0.45,-0.98,167.18,-3.9,8.2
3.38,0.0,0.0,0.75,1.75,0.0,0.0,0.0,0.0,0.25,0.0,0.0,0.75,0.0,0.39,0.95,0.33,60.3,19.6,17.1,1.25,0.75,1.25,0.5,0.5,1.75,0.25,0.75,0.25,1.0,1.0,0.5,1.0,0.14,0.7,-0.8,164.16,-4.5,3.3
3.4,0.0,0.0,1.25,1.5,0.0,0.0,0.0,0.0,0.0,0.5,1.0,0.5,0.0,0.39,0.89,0.27,60.33,17.2,0.8,1.0,0.75,1.75,0.5,1.25,1.75,0.25,0.75,0.25,1.0,0.75,0.5,1.0,-0.05,0.64,-0.42,166.35,-4.7,9.4
3.42,1.25,0.0,1.0,1.75,0.0,0.0,0.0,0.0,0.0,0.25,0.5,0.5,0.0,0.39,1.27,0.33,67.54,22.3,32.9,1.25,0.75,1.75,0.5,1.0,1.75,0.25,0.75,0.25,1.0,0.75,0.75,1.0,-0.48,0.64,-0.36,168.0,-5.6,7.5
3.44,0.0,0.0,2.0,1.25,0.0,0.0,0.0,0.0,0.0,0.25,0.25,0.75,0.0,0.52,1.27,0.27,72.72,23.1,17.8,1.0,0.75,1.5,0.5,1.0,1.75,0.25,0.75,0.25,1.0,0.75,0.5,1.0,-0.8,0.52,-0.48,168.06,-4.1,7.0
3.46,0.0,0.0,2.5,1.25,0.0,0.0,0.0,0.0,0.0,0.25,1.0,0.75,0.0,0.45,1.14,0.14,81.73,22.9,10.0,1.25,0.75,1.25,0.75,0.5,1.75,0.25,0.75,0.25,1.0,0.5,0.5,1.0,-0.86,0.45,-0.61,163.59,-4.6,8.3
3.48,0.0,0.0,2.0,1.75,0.0,0.0,0.0,0.0,0.0,0.25,0.5,0.5,0.0,0.2,1.08,0.08,84.53,22.6,23.7,1.0,0.75,1.5,0.5,0.5,1.75,0.25,0.75,0.25,1.0,0.75,0.5,0.75,-0.73,0.33,-0.98,158.63,-5.0,7.3
3.5,1.75,0.0,2.5,1.5,0.0,0.0,0.25,0.0,0.0,0.5,0.75,0.5,0.25,0.14,0.95,-0.3,102.15,23.8,29.9,1.25,0.75,0.75,0.5,0.25,1.75,0.25,0.75,0.25,1.0,0.75,0.75,1.0,-0.61,0.14,-1.36,151.37,-2.9,-2.1
3.52,0.0,0.0,2.5,1.75,0.0,0.0,0.25,0.0,0.0,0.25,0.75,0.5,0.25,0.27,0.89,-0.05,106.3,22.1,17.5,1.25,0.75,1.75,0.5,1.0,1.75,0.25,0.75,0.25,1.0,0.75,0.5,1.0,-0.61,0.14,-1.3,155.13,-5.5,10.1
3.54,0.0,0.0,2.5,1.75,0.0,0.0,0.0,0.0,0.0,0.0,0.5,0.5,0.0,0.58,0.45,-0.3,106.39,25.9,31.9,1.25,0.75,1.0,0.5,1.0,1.75,0.25,0.75,0.25,1.0,0.75,0.5,1.0,-0.73,0.33,-0.98,156.45,-3.1,6.4
3.56,1.25,0.0,2.5,1.25,0.0,0.0,0.0,0.0,0.0,0.5,0.5,0.75,0.0,0.39,0.64,-0.61,109.22,24.4,28.1,1.25,0.75,1.5,0.5,1.0,1.75,0.25,0.75,0.25,1.0,0.75,0.5,1.0,-0.55,0.39,-0.92,162.1,-4.8,8.9
3.58,1.5,0.0,2.5,1.25,0.0,0.0,0.0,0.0,0.25,0.5,0.5,0.75,0.0,0.08,0.27,-0.73,113.75,24.3,28.1,0.75,0.75,1.0,0.5,1.25,1.75,0.5,0.75,0.25,1.0,0.75,0.5,1.0,-0.42,0.39,-0.92,161.05,-1.9,3.9
3.6,2.0,0.0,2.5,1.25,0.0,0.0,0.0,0.0,0.25,0.75,0.0,0.75,0.0,-0.17,0.08,-0.61,119.7,24.5,35.7,1.25,0.75,1.25,0.5,0.0,1.75,0.25,1.0,0.25,1.0,0.75,0.75,1.0,-0.3,0.39,-0.86,158.45,-4.4,-1.4
3.62,2.0,0.0,2.5,1.0,0.0,0.0,0.0,0.0,0.0,0.75,0.75,0.75,0.0,0.08,-0.17,-0.55,124.68,23.9,26.8,0.75,0.75,1.75,0.5,1.0,1.75,0.25,0.75,0.25,1.0,0.75,0.5,1.0,-0.36,0.58,-0.8,158.4,-4.3,6.3
3.64,1.25,0.0,2.5,1.25,0.0,0.0,0.0,0.0,0.0,0.5,0.0,0.0,0.0,0.39,0.27,-0.86,118.06,27.7,55.7,0.75,0.75,1.5,0.5,1.25,1.75,0.25,0.75,0.25,1.0,0.5,0.5,1.0,-0.36,0.64,-0.73,158.48,-3.1,8.1
3.66,1.75,0.0,2.5,1.25,0.0,0.0,0.0,0.0,0.0,0.5,0.5,1.0,0.0,0.27,0.52,-0.92,118.18,24.6,27.9,0.5,0.75,1.75,0.5,0.5,1.75,0.25,0.75,0.25,1.0,0.75,0.5,1.0,-0.3,0.58,-0.73,157.1,-4.0,1.6
3.68,1.75,0.0,2.5,1.25,0.0,0.0,0.0,0.0,0.0,0.75,0.75,0.5,0.0,0.02,0.2,-0.67,118.09,23.8,30.2,0.75,0.75,1.5,0.5,1.0,1.75,0.25,0.75,0.25,1.0,0.75,0.75,1.0,-0.3,0.58,-0.86,159.16,-3.6,2.4
3.7,1.75,0.0,2.5,1.25,0.0,0.0,0.25,0.0,0.0,0.5,0.0,0.0,0.25,0.33,0.27,-0.8,115.81,26.7,51.6,0.5,0.75,1.75,0.5,1.0,1.75,0.25,0.75,0.25,1.0,0.75,0.75,1.0,-0.3,0.52,-0.92,160.74,-3.7,1.8
3.72,1.75,0.0,2.5,1.5,0.0,0.0,0.25,0.0,0.0,0.5,0.75,1.0,0.0,0.58,0.39,-0.92,120.27,24.0,25.7,1.0,0.75,1.75,0.5,1.0,1.75,0.25,0.75,0.25,1.0,0.75,0.5,1.0,-0.3,0.52,-0.86,163.73,-4.9,8.2
3.74,1.5,0.0,2.5,1.25,0.0,0.0,0.25,0.0,0.0,0.5,0.5,1.0,0.0,0.52,0.39,-1.17,119.96,24.4,25.6,0.75,0.75,1.75,0.5,1.0,1.75,0.25,0.75,0.25,1.0,0.5,0.5,0.75,-0.36,0.58,-0.8,162.49,-4.6,11.1
3.76,1.75,0.0,2.5,1.25,0.0,0.0,0.0,0.0,0.25,0.5,0.25,1.0,0.0,0.27,0.52,-1.36,122.74,24.6,29.0,1.0,0.75,1.75,0.5,1.0,1.75,0.25,0.75,0.25,1.0,0.5,0.5,1.0,-0.3,0.58,-0.86,163.08,-4.8,10.1
3.78,1.5,0.0,2.5,1.25,0.0,0.0,0.0,0.0,0.0,0.5,0.25,1.0,0.0,0.14,0.45,-1.11,119.2,24.7,29.1,1.0,0.75,1.75,0.5,0.25,1.75,0.0,0.75,0.25,1.0,0.75,0.75,1.0,-0.23,0.52,-0.86,160.65,-5.4,1.5
3.8,1.75,0.0,2.5,1.75,0.0,0.0,0.0,0.0,0.25,0.5,0.5,1.0,0.0,0.2,0.45,-0.8,122.7,23.7,27.8,0.75,0.75,1.75,0.5,0.0,1.75,0.25,0.75,0.25,1.0,0.75,0.5,1.0,-0.23,0.58,-0.8,155.54,-5.2,0.8
3.82,1.75,0.0,2.5,1.5,0.0,0.0,0.0,0.0,0.0,0.5,0.5,1.0,0.0,0.14,0.58,-0.73,123.07,24.3,28.9,0.5,0.75,1.5,0.5,0.5,1.75,0.25,0.75,0.25,1.0,0.75,0.5,1.0,-0.23,0.52,-0.8,151.28,-3.1,0.0
3.84,1.75,0.0,2.5,1.75,0.0,0.0,0.0,0.0,0.0,0.5,0.5,1.0,0.0,0.14,0.7,-0.67,126.64,24.1,29.8,1.25,0.75,1.0,0.5,0.25,1.75,0.0,0.75,0.25,1.0,0.75,0.5,1.0,-0.17,0.58,-0.86,147.12,-3.4,1.9
3.86,2.0,0.0,2.25,1.5,0.0,0.0,0.25,0.0,0.0,0.5,0.5,1.0,0.0,0.2,0.7,-0.67,127.64,24.3,29.9,0.75,0.75,1.75,0.5,0.5,1.75,0.25,0.75,0.25,1.0,0.75,0.5,1.0,-0.11,0.64,-0.86,147.59,-4.7,3.7
3.88,1.5,0.0,2.25,1.5,0.0,0.0,0.25,0.0,0.0,0.5,1.25,1.0,0.0,0.33,0.7,-0.73,129.14,22.5,16.5,0.75,0.75,1.5,0.5,0.5,1.75,0.25,0.75,0.25,0.75,0.75,0.75,1.0,-0.05,0.64,-0.86,148.25,-4.4,1.4
3.9,1.5,0.0,2.5,0.5,0.0,0.0,0.25,0.0,0.0,0.5,0.75,1.0,0.0,0.33,0.7,-0.73,121.17,24.7,18.4,1.0,0.75,1.75,0.5,1.0,1.75,0.25,0.75,0.25,1.0,0.75,0.5,1.0,0.02,0.64,-0.86,155.36,-4.9,8.2
3.92,1.5,0.0,2.5,1.5,0.0,0.0,0.25,0.0,0.0,0.5,0.25,1.0,0.0,0.33,0.58,-0.8,119.22,24.6,30.1,1.0,0.75,1.75,0.5,1.0,1.75,0.25,0.75,0.25,1.0,0.75,0.5,1.0,-0.05,0.64,-0.8,159.96,-4.9,8.2
3.94,1.75,0.0,2.5,1.0,0.0,0.0,0.25,0.0,0.0,0.5,0.5,1.0,0.0,0.33,0.58,-0.8,116.86,25.0,26.8,0.75,0.75,2.0,0.5,1.5,1.75,0.25,0.75,0.25,1.0,0.75,0.5,1.0,-0.05,0.64,-0.8,167.92,-4.6,9.8
3.96,1.5,0.0,2.0,1.25,0.0,0.0,0.25,0.0,0.25,0.5,0.75,0.75,0.0,0.33,0.52,-0.8,114.34,23.0,22.2,0.75,0.75,1.75,0.75,0.5,1.75,0.25,0.5,0.25,1.0,0.75,0.5,1.0,-0.11,0.64,-0.8,166.26,-5.5,6.1
3.98,1.75,0.0,2.0,1.25,0.0,0.0,0.25,0.0,0.0,0.5,0.5,0.75,0.0,0.39,0.52,-0.8,112.26,24.2,30.4,1.0,0.75,1.25,0.5,1.25,1.75,0.25,0.5,0.25,1.0,0.5,1.0,1.0,-0.11,0.64,-0.8,166.99,-3.7,4.5
4.0,1.75,0.0,2.25,1.25,0.0,0.0,0.25,0.0,0.25,0.5,0.75,0.75,0.0,0.39,0.52,-0.73,113.95,23.9,25.8,0.5,0.75,1.75,0.5,1.0,1.75,0.25,0.75,0.25,1.0,0.75,0.5,1.0,-0.11,0.64,-0.8,164.03,-3.6,4.4
4.02,1.75,0.0,2.5,1.5,0.0,0.0,0.0,0.0,0.0,0.5,0.75,1.0,0.0,0.39,0.58,-0.73,117.61,23.9,25.7,1.25,0.75,1.5,0.5,1.0,1.75,0.25,0.75,0.25,1.0,0.75,0.75,0.75,-0.17,0.64,-0.8,166.05,-5.3,9.0
4.04,2.25,0.0,2.5,1.25,0.0,0.0,0.5,0.0,0.0,0.5,0.75,1.0,0.0,0.39,0.58,-0.73,123.55,25.0,28.8,1.25,0.75,0.5,0.5,1.0,1.75,0.0,0.75,0.25,1.0,0.75,0.75,1.0,-0.17,0.64,-0.8,162.46,-1.2,0.6
4.06,2.0,0.0,2.5,1.5,0.0,0.0,0.25,0.0,0.0,0.5,0.75,1.0,0.0,0.33,0.58,-0.73,129.06,24.3,27.8,0.75,0.75,1.75,0.5,1.0,1.75,0.25,0.5,0.25,1.0,0.75,0.5,1.0,-0.17,0.64,-0.8,162.16,-4.8,7.4
4.08,1.75,0.0,2.5,1.75,0.0,0.0,0.25,0.0,0.0,0.25,0.5,1.0,0.25,0.33,0.58,-0.73,131.47,24.2,28.6,1.0,0.75,1.25,0.5,1.0,1.75,0.25,0.75,0.25,1.0,0.75,0.5,1.0,-0.17,0.64,-0.8,160.26,-3.3,5.7
4.1,2.0,0.0,2.25,1.25,0.0,0.0,0.25,0.0,0.0,0.75,0.75,1.0,0.0,0.27,0.58,-0.8,131.38,22.9,22.5,1.0,0.75,1.5,0.5,1.25,1.75,0.25,0.75,0.25,1.0,0.5,0.5,0.75,-0.17,0.64,-0.8,160.28,-4.2,12.9
4.12,2.25,0.0,2.25,1.25,0.0,0.0,0.25,0.0,0.0,0.75,0.25,1.0,0.25,0.27,0.58,-0.8,130.99,22.8,26.4,1.0,0.75,1.75,0.5,1.0,1.75,0.25,0.5,0.25,1.0,0.75,0.75,0.75,-0.17,0.64,-0.8,161.14,-5.9,9.4
4.14,2.0,0.0,2.5,1.0,0.0,0.0,0.25,0.0,0.0,0.5,0.5,1.0,0.25,0.2,0.64,-0.8,129.52,24.0,24.4,0.75,0.75,1.5,0.5,1.0,1.75,0.25,0.75,0.25,1.0,1.0,0.75,1.0,-0.23,0.64,-0.8,162.53,-3.7,0.7
4.16,1.5,0.0,2.5,1.25,0.0,0.0,0.25,0.0,0.0,0.5,0.75,1.0,0.0,0.27,0.58,-0.8,126.23,23.9,22.4,0.5,0.75,1.75,0.5,0.25,1.75,0.25,0.75,0.25,0.75,0.75,0.5,1.0,-0.23,0.64,-0.8,156.79,-4.7,2.0
4.18,2.0,0.0,2.25,1.25,0.0,0.0,0.25,0.0,0.25,1.0,0.5,1.0,0.0,0.27,0.58,-0.8,127.33,21.8,20.6,1.0,0.75,1.75,0.5,1.5,1.75,0.5,0.75,0.25,1.0,0.75,0.75,1.0,-0.23,0.58,-0.8,163.43,-4.9,8.2
4.2,2.25,0.0,2.5,1.0,0.0,0.0,0.25,0.0,0.0,0.5,0.5,1.0,0.25,0.2,0.58,-0.8,127.7,24.3,26.5,1.0,0.75,1.0,0.5,1.0,1.75,0.5,0.5,0.25,1.0,0.75,0.5,1.0,-0.23,0.58,-0.8,161.16,-3.3,5.7
4.22,2.25,0.0,2.25,1.5,0.0,0.0,0.25,0.0,0.0,0.75,0.5,1.0,0.25,0.14,0.58,-0.86,130.71,22.3,24.4,0.75,0.75,1.5,0.5,0.5,1.75,0.25,0.75,0.25,1.0,0.75,0.75,1.0,-0.11,0.64,-0.86,160.11,-4.0,-0.3
4.24,2.5,0.0,2.25,1.25,0.0,0.0,0.5,0.0,0.0,0.75,0.5,1.0,0.0,0.2,0.58,-0.8,131.88,24.0,29.6,1.0,0.75,1.25,0.5,0.25,1.75,0.25,0.5,0.25,1.0,0.5,0.75,1.0,-0.05,0.64,-0.8,152.7,-4.4,1.6
4.26,2.25,0.0,2.0,1.25,0.0,0.0,0.5,0.0,0.0,0.5,0.5,1.0,0.0,0.39,0.58,-0.8,129.63,24.5,29.9,1.0,0.75,1.5,0.5,1.0,1.75,0.25,0.75,0.25,0.75,0.75,0.75,0.75,-0.05,0.64,-0.86,153.85,-5.1,9.0
4.28,2.0,0.0,2.25,1.25,0.0,0.0,0.25,0.0,0.25,0.75,1.0,1.0,0.0,0.39,0.58,-0.73,130.09,22.2,18.0,1.25,0.75,1.0,0.5,1.0,1.75,0.25,0.75,0.25,0.75,0.75,0.5,1.0,0.02,0.64,-0.86,153.23,-3.6,8.4
4.3,2.25,0.0,2.25,1.0,0.0,0.0,0.25,0.0,0.0,0.5,1.0,1.0,0.0,0.39,0.58,-0.73,128.72,24.3,23.7,1.25,0.75,1.5,0.5,0.5,1.75,0.25,0.5,0.25,1.0,0.75,0.5,0.75,0.02,0.64,-0.86,153.45,-6.2,10.6
4.32,2.25,0.0,2.5,1.5,0.0,0.0,0.25,0.0,0.0,0.5,0.75,0.75,0.0,0.39,0.58,-0.73,130.65,25.1,33.8,1.25,0.75,1.75,0.5,1.0,1.75,0.25,0.75,0.25,1.0,0.5,0.75,0.75,-0.05,0.64,-0.86,158.31,-5.9,12.0
4.34,2.0,0.0,2.25,1.75,0.0,0.0,0.25,0.0,0.25,0.5,0.5,0.75,0.25,0.45,0.58,-0.73,131.45,23.0,28.6,0.5,0.75,1.5,0.5,1.0,1.75,0.25,0.0,0.25,0.75,0.75,0.5,1.0,-0.05,0.64,-0.8,153.98,-4.8,8.3
4.36,2.25,0.0,2.5,0.75,0.0,0.0,0.25,0.0,0.25,0.75,0.5,0.75,0.0,0.39,0.58,-0.73,130.14,24.6,29.0,0.5,0.75,0.75,0.5,1.25,1.75,0.25,0.75,0.25,1.0,0.75,0.75,1.0,-0.11,0.64,-0.8,152.72,-0.1,-2.6
4.38,2.0,0.0,2.0,1.5,0.0,0.0,0.25,0.0,0.25,0.75,0.0,0.75,0.0,0.39,0.58,-0.73,125.77,23.5,34.5,0.5,0.75,1.75,0.5,1.0,1.75,0.25,0.75,0.25,1.0,0.75,0.5,0.75,-0.17,0.64,-0.8,152.27,-4.0,7.2
4.4,2.25,0.0,2.0,1.25,0.0,0.0,0.25,0.0,0.0,0.75,0.5,0.75,0.0,0.33,0.58,-0.73,122.37,23.6,31.0,0.5,0.75,1.5,0.75,1.0,1.75,0.0,0.25,0.25,1.0,0.75,0.75,1.0,-0.17,0.64,-0.8,153.83,-3.9,3.4
4.42,1.75,0.0,2.25,1.0,0.0,0.0,0.25,0.0,0.0,0.75,0.5,0.75,0.0,0.33,0.58,-0.73,117.02,23.6,26.7,0.5,0.75,1.5,0.5,1.0,1.75,0.25,0.0,0.25,1.0,0.75,0.5,1.0,-0.17,0.64,-0.8,150.38,-4.3,6.2
4.44,2.25,0.0,2.25,1.25,0.0,0.0,0.25,0.0,0.0,0.75,0.5,0.75,0.0,0.33,0.58,-0.73,117.86,24.1,32.0,0.5,0.75,1.5,0.5,1.0,1.75,0.25,0.75,0.25,1.0,0.75,0.5,0.75,-0.17,0.64,-0.8,152.32,-3.2,5.8
4.46,2.0,0.0,2.25,1.0,0.0,0.0,0.25,0.0,0.0,1.0,0.25,1.0,0.0,0.27,0.58,-0.8,117.47,22.6,24.3,0.5,0.75,1.75,0.75,1.25,1.75,0.25,0.5,0.25,1.0,0.75,0.5,1.0,-0.17,0.64,-0.8,156.21,-4.2,7.9
4.48,1.75,0.0,2.0,1.0,0.0,0.0,0.5,0.0,0.25,1.0,0.5,0.75,0.0,0.27,0.58,-0.8,117.76,21.5,20.0,0.5,0.75,1.75,0.5,0.5,1.75,0.25,0.5,0.25,1.0,0.75,0.5,1.0,-0.11,0.64,-0.8,154.53,-4.5,2.6
4.5,2.25,0.0,2.25,1.25,0.0,0.0,0.25,0.0,0.0,0.75,0.25,0.75,0.25,0.33,0.58,-0.8,119.45,23.2,30.7,1.25,0.75,1.75,0.5,1.0,1.5,0.25,0.75,0.25,1.0,0.75,0.75,1.0,-0.11,0.64,-0.8,160.01,-6.2,7.0
4.52,2.0,0.0,2.0,1.25,0.0,0.0,0.5,0.0,0.25,1.0,0.5,0.5,0.0,0.27,0.58,-0.8,119.97,22.2,27.8,0.5,0.75,1.5,0.5,1.0,1.5,0.25,0.5,0.25,1.0,0.75,0.5,0.75,-0.11,0.64,-0.86,156.61,-4.3,6.3
4.54,2.0,0.0,2.25,1.25,0.0,0.0,0.25,0.0,0.0,0.75,0.0,0.75,0.0,0.33,0.58,-0.8,118.58,24.6,37.2,0.5,0.75,0.5,0.5,0.5,1.75,0.0,0.75,0.25,1.0,0.75,0.5,1.0,-0.05,0.64,-0.86,148.44,1.3,-7.4
4.56,2.25,0.0,1.5,1.25,0.0,0.0,0.25,0.0,0.0,0.75,0.75,1.0,0.0,0.33,0.58,-0.8,117.78,21.7,20.9,0.5,0.75,1.75,0.5,1.5,1.5,0.25,0.5,0.25,1.0,0.75,0.75,0.75,-0.05,0.64,-0.8,148.97,-4.8,7.4
4.58,2.0,0.0,2.25,1.5,0.0,0.0,0.5,0.0,0.0,0.75,0.75,0.75,0.0,0.39,0.58,-0.73,121.62,23.3,27.7,0.5,0.75,1.0,0.5,1.0,1.75,0.25,0.5,0.25,1.0,0.75,0.75,0.75,-0.11,0.64,-0.8,147.65,-2.0,1.1
4.6,2.0,0.0,2.25,1.0,0.0,0.0,0.5,0.0,0.0,1.0,0.5,1.0,0.0,0.39,0.58,-0.73,123.92,22.4,21.3,0.5,0.75,1.75,0.5,1.0,1.75,0.25,0.0,0.25,1.0,0.75,0.5,1.0,-0.11,0.64,-0.8,148.71,-5.1,7.6
4.62,2.0,0.0,2.0,1.25,0.0,0.0,0.5,0.0,0.0,0.75,0.5,0.75,0.0,0.33,0.58,-0.73,123.8,23.4,28.9,0.5,0.75,1.75,0.5,1.25,1.75,0.0,0.75,0.25,1.0,0.75,0.5,0.75,-0.11,0.64,-0.8,151.8,-3.5,8.2
4.64,1.75,0.0,2.5,1.0,0.0,0.0,0.5,0.0,0.0,1.0,0.75,0.75,0.0,0.33,0.58,-0.8,124.42,22.6,21.5,0.5,0.75,1.75,0.5,0.25,1.75,0.25,0.5,0.25,1.0,0.75,0.5,1.0,-0.17,0.64,-0.8,151.0,-4.8,1.0
4.66,1.75,0.0,2.25,0.25,0.0,0.0,0.5,0.0,0.25,1.0,0.5,1.0,0.0,0.33,0.58,-0.8,120.19,22.2,12.8,0.5,0.75,1.75,0.75,1.0,1.75,0.25,0.25,0.25,1.0,0.75,0.5,0.75,-0.17,0.64,-0.8,151.69,-5.4,10.7
4.68,2.25,0.0,2.25,0.5,0.0,0.0,0.5,0.0,0.25,0.5,0.5,0.75,0.0,0.33,0.58,-0.8,116.95,25.9,30.4,0.5,0.75,1.5,0.5,0.0,1.5,0.25,0.0,0.25,1.0,0.0,0.5,0.75,-0.11,0.64,-0.8,137.7,-6.3,10.0
4.7,2.0,0.0,2.0,1.5,0.0,0.0,0.5,0.0,0.0,0.5,0.5,0.75,0.0,0.33,0.58,-0.8,116.54,24.5,33.4,1.25,0.75,0.5,0.5,1.25,1.75,0.0,0.25,0.25,0.75,0.5,0.5,1.0,-0.11,0.64,-0.8,136.13,-2.0,11.3
4.72,2.0,0.0,2.0,1.5,0.0,0.0,0.5,0.0,0.0,0.5,0.5,0.5,0.0,0.33,0.58,-0.8,116.53,25.0,38.3,0.5,0.75,1.75,0.5,1.0,1.75,0.0,0.25,0.25,1.0,0.75,0.5,1.0,-0.11,0.64,-0.8,137.64,-4.3,6.2
4.74,2.0,0.0,2.0,1.25,0.0,0.0,0.25,0.0,0.0,0.75,0.5,0.5,0.0,0.33,0.58,-0.8,115.23,23.7,33.8,0.75,0.75,1.75,0.75,1.0,1.5,0.25,0.0,0.25,1.0,0.5,0.75,1.0,-0.11,0.64,-0.8,144.71,-6.7,9.4
4.76,2.25,0.0,1.75,1.0,0.0,0.0,0.5,0.0,0.0,1.0,0.0,1.0,0.0,0.33,0.58,-0.8,114.72,22.4,27.5,0.5,0.75,1.5,0.5,1.0,1.75,0.25,0.25,0.25,1.0,0.75,0.5,0.75,-0.05,0.64,-0.8,148.32,-4.2,8.1
4.78,2.0,0.0,1.0,1.0,0.0,0.0,0.25,0.0,0.0,0.75,0.5,1.0,0.0,0.33,0.58,-0.8,108.86,20.4,17.0,0.75,0.5,1.25,0.5,0.25,1.75,0.25,0.25,0.25,1.0,0.75,0.5,1.0,-0.05,0.64,-0.86,144.93,-4.0,-1.5
4.8,2.0,0.0,1.5,1.25,0.0,0.0,0.25,0.0,0.0,0.5,0.5,0.75,0.0,0.33,0.58,-0.8,105.13,23.5,30.4,0.5,0.75,1.5,0.75,0.5,1.5,0.25,0.5,0.25,1.0,0.75,0.5,1.0,-0.05,0.64,-0.86,142.2,-4.6,1.8
4.82,2.0,0.0,2.25,1.25,0.0,0.0,0.25,0.0,0.0,0.5,0.75,1.0,0.0,0.33,0.58,-0.8,108.77,24.1,25.7,0.25,0.75,1.75,0.5,1.0,1.75,0.25,0.5,0.25,0.75,0.75,0.5,1.0,-0.05,0.64,-0.86,143.42,-3.9,5.3
4.84,2.0,0.0,2.5,1.25,0.0,0.0,0.5,0.0,0.0,0.75,0.5,1.0,0.0,0.33,0.58,-0.8,117.04,23.9,26.7,0.75,0.75,1.75,0.5,1.25,1.75,0.25,0.25,0.25,1.0,0.0,0.5,0.75,-0.05,0.64,-0.8,146.39,-5.1,19.2
4.86,2.0,0.0,2.0,1.5,0.0,0.0,0.5,0.0,0.0,0.75,0.5,0.75,0.0,0.33,0.58,-0.8,122.1,23.2,29.9,0.5,0.75,1.5,0.5,1.0,1.75,0.25,0.5,0.25,1.0,0.75,0.75,1.0,-0.11,0.64,-0.8,151.1,-3.4,1.3
4.88,2.25,0.0,1.75,0.5,0.0,0.0,0.25,0.0,0.25,0.75,0.5,0.75,0.0,0.33,0.58,-0.8,119.65,23.4,24.2,0.75,0.75,1.25,0.5,1.0,1.75,0.25,0.25,0.25,1.0,0.5,0.5,1.0,-0.11,0.64,-0.8,152.44,-3.4,7.8
4.9,1.75,0.0,2.25,1.25,0.0,0.0,0.25,0.0,0.0,0.75,0.5,1.0,0.0,0.27,0.58,-0.8,119.81,22.9,23.3,1.0,0.75,1.75,0.5,1.0,1.75,0.25,0.0,0.25,0.75,0.75,0.5,0.75,-0.11,0.64,-0.8,153.33,-7.5,17.0
4.92,1.5,0.0,2.25,1.25,0.0,0.0,0.5,0.0,0.0,0.75,0.5,1.0,0.0,0.27,0.58,-0.8,117.75,22.7,21.1,1.0,0.75,1.75,0.5,1.0,1.5,0.25,0.25,0.25,0.75,0.25,0.5,0.75,-0.11,0.64,-0.8,151.82,-7.5,19.8
4.94,1.5,0.0,2.0,0.75,0.0,0.0,0.25,0.0,0.0,0.75,0.25,1.0,0.0,0.27,0.58,-0.8,112.26,22.8,20.0,0.75,0.75,1.5,0.5,1.0,1.75,0.25,0.0,0.25,1.0,0.75,0.75,0.75,-0.11,0.64,-0.8,150.27,-5.6,8.4
4.96,1.75,0.0,1.75,1.25,0.0,0.0,0.5,0.0,0.0,1.0,0.5,1.0,0.0,0.2,0.58,-0.8,113.01,20.7,17.5,1.25,0.75,1.75,0.5,0.5,1.75,0.25,0.25,0.25,1.0,0.75,0.75,1.0,-0.11,0.64,-0.8,152.73,-7.1,7.2
4.98,1.5,0.0,2.0,1.25,0.0,0.0,0.5,0.0,0.0,0.75,0.0,1.0,0.0,0.2,0.58,-0.8,110.73,22.9,26.5,0.75,0.75,1.25,0.5,1.0,1.5,0.0,0.0,0.25,1.0,0.75,0.5,1.0,-0.11,0.64,-0.8,150.52,-4.4,6.0
5.0,1.5,0.0,2.0,1.25,0.0,0.0,0.5,0.0,0.0,0.75,0.0,1.0,0.0,0.2,0.58,-0.86,109.7,22.9,26.5,0.5,0.75,1.75,0.5,1.0,1.5,0.25,0.0,0.25,0.75,0.5,0.5,1.0,-0.05,0.64,-0.8,148.1,-6.3,11.3
5.02,1.5,0.0,2.25,1.25,0.0,0.0,0.5,0.0,0.0,0.75,0.25,1.0,0.0,0.2,0.58,-0.8,110.41,23.1,24.3,0.5,0.75,1.75,0.5,1.0,1.75,0.25,0.0,0.25,0.75,0.75,0.75,0.75,-0.05,0.64,-0.8,146.49,-6.3,9.8
5.04,1.0,0.0,2.0,1.25,0.0,0.0,0.5,0.0,0.0,0.5,0.25,1.0,0.0,0.2,0.58,-0.8,106.31,23.1,21.3,0.5,0.75,1.0,0.5,1.25,1.75,0.25,0.25,0.25,1.0,0.5,0.5,0.75,0.02,0.64,-0.86,143.14,-1.9,8.8
5.06,1.5,0.0,2.0,1.25,0.0,0.0,0.25,0.0,0.0,0.75,0.5,1.0,0.0,0.2,0.58,-0.8,106.25,21.9,19.5,1.0,0.75,1.0,0.5,0.0,1.75,0.25,0.25,0.25,1.0,0.5,0.5,1.0,0.02,0.64,-0.86,137.13,-4.1,2.5
5.08,1.5,0.0,1.75,1.25,0.0,0.0,0.5,0.0,0.0,0.75,0.5,1.0,0.0,0.27,0.58,-0.8,106.24,21.5,18.1,0.75,0.75,1.5,0.5,0.5,1.75,0.0,0.25,0.25,1.0,0.75,0.75,1.0,-0.05,0.64,-0.86,138.23,-4.7,1.2
5.1,1.5,0.0,1.75,0.5,0.0,0.0,0.5,0.0,0.0,0.75,0.5,1.0,0.0,0.27,0.58,-0.8,104.2,22.1,13.1,0.75,0.75,1.5,0.5,1.25,1.75,0.25,0.0,0.25,1.0,0.75,0.75,0.75,-0.05,0.64,-0.8,142.69,-5.3,9.7
5.12,1.75,0.0,2.0,1.0,0.0,0.0,0.25,0.0,0.0,0.5,0.5,1.0,0.0,0.27,0.58,-0.8,104.71,24.0,24.2,0.5,0.75,1.25,0.5,1.0,1.75,0.0,0.0,0.25,1.0,0.25,0.75,1.0,-0.11,0.58,-0.8,142.7,-2.7,5.5
5.14,1.5,0.0,2.0,1.25,0.0,0.0,0.25,0.0,0.0,0.5,0.5,1.0,0.0,0.27,0.58,-0.8,105.07,23.3,23.0,1.0,0.75,1.75,0.5,1.0,1.75,0.25,0.25,0.25,1.0,0.5,0.75,0.5,-0.11,0.58,-0.8,147.44,-6.9,15.6
5.16,1.5,0.0,1.75,1.0,0.0,0.0,0.5,0.0,0.0,0.75,0.5,1.0,0.0,0.27,0.58,-0.8,105.97,21.7,16.6,0.75,0.75,1.5,0.75,0.25,1.75,0.0,0.0,0.25,1.0,0.75,0.75,0.75,-0.11,0.58,-0.8,145.47,-6.4,5.4
5.18,1.25,0.0,1.75,0.75,0.0,0.0,0.5,0.0,0.0,0.75,0.5,1.0,0.0,0.27,0.58,-0.8,103.38,21.4,11.8,0.5,0.75,1.5,0.5,0.5,1.5,0.0,0.0,0.25,1.0,0.25,0.5,0.75,-0.17,0.58,-0.8,138.25,-5.4,10.3
5.2,1.25,0.0,2.0,1.0,0.0,0.0,0.5,0.0,0.0,0.5,0.5,1.0,0.0,0.27,0.58,-0.8,102.02,23.3,19.0,0.5,0.75,1.75,0.5,1.0,1.75,0.25,0.0,0.25,1.0,1.0,0.75,0.75,-0.17,0.58,-0.8,140.39,-5.8,5.7
5.22,1.25,0.0,2.0,0.5,0.0,0.0,0.5,0.0,0.0,0.5,0.5,1.0,0.0,0.27,0.58,-0.8,98.33,23.9,15.6,0.5,0.75,1.25,0.5,0.5,1.5,0.25,0.25,0.25,1.0,0.75,0.5,0.75,-0.17,0.58,-0.8,137.64,-4.4,2.8
5.24,1.5,0.0,1.75,1.5,0.0,0.0,0.5,0.0,0.0,0.75,0.5,1.0,0.0,0.27,0.58,-0.8,102.49,21.4,19.6,0.5,0.75,1.5,0.5,1.75,1.75,0.0,0.0,0.25,1.0,0.5,0.5,0.75,-0.05,0.58,-0.86,142.99,-3.6,15.0
5.26,1.25,0.0,2.0,1.25,0.0,0.0,0.5,0.0,0.0,0.5,0.5,1.0,0.0,0.27,0.58,-0.8,104.18,23.1,20.5,1.0,0.75,1.5,0.5,1.0,1.75,0.25,0.0,0.25,1.0,0.75,0.5,0.75,0.02,0.58,-0.86,145.77,-6.2,13.5
5.28,1.0,0.0,2.0,1.25,0.0,0.0,0.5,0.0,0.0,0.5,0.5,1.0,0.0,0.27,0.58,-0.8,106.02,22.7,17.7,0.5,0.75,1.5,0.5,1.0,1.5,0.25,0.0,0.25,1.0,0.5,0.75,0.75,0.08,0.58,-0.86,147.16,-5.4,7.7
5.3,1.25,0.0,1.75,0.5,0.0,0.0,0.5,0.0,0.0,1.0,0.75,1.0,0.0,0.27,0.58,-0.8,103.33,19.7,3.3,0.75,0.75,1.75,0.5,1.0,1.75,0.25,0.0,0.25,1.0,0.5,0.5,0.75,0.08,0.58,-0.86,147.34,-6.2,14.9
5.32,1.25,0.0,2.0,0.75,0.0,0.0,0.5,0.0,0.0,0.75,0.75,1.0,0.0,0.27,0.58,-0.8,103.64,21.7,10.5,0.5,0.75,1.5,0.75,1.0,1.5,0.0,0.25,0.25,1.0,0.75,0.5,1.0,0.08,0.58,-0.86,147.27,-4.4,5.5
5.34,1.5,0.0,2.0,0.75,0.0,0.0,0.5,0.0,0.0,0.75,0.5,1.0,0.0,0.27,0.58,-0.8,103.93,22.5,16.7,0.75,0.75,1.5,0.5,1.25,1.5,0.0,0.0,0.25,1.0,0.75,0.5,0.75,0.08,0.58,-0.86,147.8,-5.6,12.0
5.36,1.5,0.0,2.0,0.25,0.0,0.0,0.5,0.0,0.0,1.0,0.5,1.0,0.0,0.27,0.58,-0.8,102.74,21.5,9.8,0.5,0.75,1.5,0.5,1.0,1.5,0.25,0.0,0.25,1.0,1.5,0.5,1.0,0.08,0.58,-0.86,150.08,-5.3,-0.2
5.38,1.5,0.0,2.0,1.25,0.0,0.0,0.5,0.0,0.0,0.75,0.75,1.0,0.0,0.27,0.58,-0.8,108.08,21.8,16.6,0.75,0.75,1.5,0.5,1.0,1.75,0.25,0.0,0.25,1.0,0.75,0.75,1.0,0.02,0.58,-0.86,152.16,-5.1,5.5
5.4,1.0,0.0,1.5,1.0,0.0,0.0,0.5,0.0,0.0,1.5,0.75,1.0,0.0,0.33,0.58,-0.8,108.92,15.8,-3.5,0.75,0.75,1.0,0.5,1.0,1.75,0.0,0.0,0.25,1.0,0.25,0.5,1.0,0.02,0.58,-0.86,148.39,-2.4,9.6
