time,left pressure 0[N/cm²],left pressure 1[N/cm²],left pressure 2[N/cm²],left pressure 3[N/cm²],left pressure 4[N/cm²],left pressure 5[N/cm²],left pressure 6[N/cm²],left pressure 7[N/cm²],left pressure 8[N/cm²],left pressure 9[N/cm²],left pressure 10[N/cm²],left pressure 11[N/cm²],left pressure 12[N/cm²],left acceleration X[g],left acceleration Y[g],left acceleration Z[g],left total force[N],left center of pressure X[mm],left center of pressure Y[mm],right pressure 0[N/cm²],right pressure 1[N/cm²],right pressure 2[N/cm²],right pressure 3[N/cm²],right pressure 4[N/cm²],right pressure 5[N/cm²],right pressure 6[N/cm²],right pressure 7[N/cm²],right pressure 8[N/cm²],right pressure 9[N/cm²],right pressure 10[N/cm²],right pressure 11[N/cm²],right pressure 12[N/cm²],right acceleration X[g],right acceleration Y[g],right acceleration Z[g],right total force[N],right center of pressure X[mm],right center of pressure Y[mm]
0.02,0.0,0.0,1.25,0.5,0.0,0.0,0.0,0.5,0.0,0.0,0.25,0.0,0.0,-0.17,0.14,0.95,44.98,20.5,27.8,0.75,1.25,1.25,0.5,0.25,1.25,0.25,1.0,0.25,0.5,1.5,0.75,0.25,0.02,0.14,0.95,156.18,-7.5,6.0
0.04,0.0,0.0,1.25,0.5,0.0,0.0,0.0,0.25,0.0,0.0,0.0,0.0,0.0,-0.17,0.08,0.95,41.04,26.2,48.1,0.75,1.75,1.5,1.5,0.5,2.0,0.25,1.0,0.5,0.75,1.0,0.5,0.25,0.02,0.14,0.95,162.67,-6.6,21.4
0.06,0.0,0.0,1.25,0.5,0.0,0.0,0.0,0.5,0.0,0.0,0.5,0.0,0.0,-0.17,0.08,0.95,41.18,19.7,18.9,0.75,1.75,1.25,0.75,0.0,1.5,0.0,1.0,0.25,1.0,1.25,0.75,0.5,0.02,0.14,0.95,160.68,-5.6,6.1
0.08,0.0,0.0,1.5,0.5,0.0,0.0,0.0,0.25,0.0,0.0,0.75,0.0,0.0,-0.17,0.08,0.95,43.72,23.5,19.7,0.75,1.75,1.5,1.0,0.5,1.25,0.0,1.0,0.0,0.0,1.5,0.75,0.25,0.02,0.14,0.95,161.75,-9.4,20.8
0.1,0.0,0.0,1.25,0.5,0.0,0.0,0.0,0.25,0.0,0.0,0.75,0.0,0.0,-0.17,0.08,0.95,45.77,22.2,15.9,1.0,1.75,1.25,0.75,0.0,1.75,0.0,1.0,0.25,0.25,1.25,0.5,0.25,0.02,0.14,0.95,157.36,-7.7,21.0
0.12,0.0,0.0,1.25,0.5,0.0,0.0,0.0,0.25,0.0,0.0,0.75,0.0,0.0,-0.17,0.08,0.95,46.85,22.2,15.9,0.75,1.5,1.25,0.75,0.25,0.25,0.0,1.0,0.25,0.75,1.5,0.75,0.25,0.02,0.14,0.95,150.25,-10.0,4.7
0.14,0.0,0.0,1.5,0.5,0.0,0.0,0.0,0.25,0.0,0.0,0.75,0.0,0.0,-0.17,0.08,0.95,47.96,23.5,19.7,0.75,1.75,1.5,1.0,0.25,1.25,0.0,1.0,0.0,1.0,1.5,0.75,0.25,0.02,0.14,0.95,151.62,-7.5,11.2
0.16,0.0,0.0,1.5,0.5,0.0,0.0,0.0,0.25,0.0,0.0,0.75,0.0,0.0,-0.17,0.14,0.95,48.81,23.5,19.7,0.75,1.75,1.25,1.25,0.5,1.25,0.25,1.0,0.25,0.0,1.5,1.0,0.25,0.02,0.14,0.95,155.24,-9.2,16.5
0.18,0.0,0.0,1.25,0.5,0.0,0.0,0.0,0.5,0.0,0.25,0.25,0.0,0.0,-0.17,0.08,0.95,48.23,17.3,18.6,0.0,1.75,1.5,0.5,0.5,1.5,0.0,1.0,0.25,0.5,1.0,0.75,0.25,0.02,0.14,0.95,154.65,-5.0,11.7
0.2,0.0,0.0,1.25,0.5,0.0,0.0,0.0,0.0,0.0,0.0,0.5,0.0,0.0,-0.17,0.08,0.95,45.47,27.6,31.5,0.75,1.5,1.5,1.0,0.25,1.0,0.0,1.0,0.25,1.25,1.5,0.75,0.25,0.02,0.14,0.95,157.03,-7.6,5.5
0.22,0.0,0.0,1.5,0.5,0.0,0.0,0.0,0.5,0.0,0.0,0.75,0.0,0.0,-0.17,0.14,0.95,47.63,20.5,15.2,0.75,1.75,1.5,1.0,0.25,1.75,0.0,1.0,0.25,0.0,1.5,0.75,0.25,0.02,0.14,0.95,159.27,-8.4,19.1
0.24,0.0,0.0,1.25,0.5,0.0,0.0,0.0,0.25,0.0,0.0,0.75,0.0,0.0,-0.17,0.08,0.95,46.93,22.2,15.9,0.75,1.75,1.5,1.0,0.25,1.5,0.25,1.0,0.0,0.0,1.5,0.75,0.5,0.02,0.14,0.95,161.3,-8.7,17.1
0.26,0.0,0.0,1.25,0.5,0.0,0.0,0.0,0.25,0.0,0.0,0.75,0.0,0.0,-0.17,0.08,0.95,47.49,22.2,15.9,1.25,2.0,1.75,1.0,0.25,1.5,0.0,1.0,0.25,0.5,1.0,0.75,0.25,0.02,0.14,0.95,166.44,-9.7,24.6
0.28,0.0,0.0,1.25,0.5,0.0,0.0,0.0,0.25,0.0,0.0,0.75,0.0,0.0,-0.17,0.08,0.95,46.64,22.2,15.9,0.25,1.75,1.5,1.25,0.5,2.5,0.0,1.0,0.25,0.5,1.0,0.5,0.25,0.02,0.14,0.95,169.62,-4.1,21.3
0.3,0.0,0.0,1.25,0.5,0.0,0.0,0.25,0.25,0.0,0.0,0.5,0.0,0.0,-0.17,0.14,0.95,45.36,23.7,24.7,0.75,1.5,1.5,0.5,0.25,1.25,0.0,1.0,0.25,0.75,1.25,0.75,0.25,0.02,0.14,0.95,166.69,-7.4,9.5
0.32,0.0,0.0,1.25,0.5,0.0,0.0,0.0,0.25,0.0,0.0,0.75,0.0,0.0,-0.17,0.14,0.95,44.64,22.2,15.9,0.75,1.75,1.25,0.75,0.25,2.0,0.0,1.0,0.25,1.0,1.5,0.75,0.25,0.02,0.14,0.95,167.85,-4.8,9.3
0.34,0.0,0.0,1.25,0.5,0.0,0.0,0.0,0.25,0.0,0.25,0.75,0.0,0.0,-0.17,0.14,0.95,46.03,19.1,8.3,0.75,1.75,1.75,0.75,0.5,1.75,0.0,1.0,0.25,0.75,1.5,0.75,0.25,0.02,0.14,0.95,170.76,-7.0,14.0
0.36,0.0,0.0,1.0,0.5,0.0,0.0,0.25,0.0,0.0,0.0,0.25,0.0,0.0,-0.17,0.14,0.95,41.75,28.6,40.8,0.75,1.5,1.75,1.25,0.5,1.25,0.0,1.0,0.5,1.0,1.0,0.75,0.25,0.02,0.14,0.95,173.81,-8.0,13.9
0.38,0.0,0.0,1.25,0.5,0.0,0.0,0.25,0.25,0.0,0.0,0.75,0.0,0.0,-0.17,0.08,0.95,42.58,22.6,16.3,1.25,1.75,1.25,0.75,0.5,1.75,0.0,1.0,0.25,1.25,1.5,0.75,0.25,0.02,0.14,0.95,177.52,-5.8,11.5
0.4,0.0,0.0,1.25,0.5,0.0,0.0,0.0,0.25,0.0,0.0,0.5,0.0,0.0,-0.17,0.08,0.95,41.49,23.3,24.6,1.0,1.5,1.0,1.0,0.25,1.0,0.25,1.0,0.25,1.0,1.5,0.75,0.25,0.02,0.14,0.95,174.06,-7.5,7.0
0.42,0.0,0.0,1.25,0.5,0.0,0.0,0.0,0.25,0.0,0.0,0.5,0.0,0.0,-0.17,0.08,0.95,42.27,23.3,24.6,0.75,1.75,1.5,0.75,0.5,2.0,0.0,1.0,0.25,0.5,1.5,0.75,0.25,0.02,0.14,0.95,174.06,-6.2,15.3
0.44,0.0,0.0,1.25,0.5,0.0,0.0,0.0,0.0,0.0,0.0,0.5,0.0,0.0,-0.17,0.14,0.95,40.42,27.6,31.5,1.0,1.75,1.5,1.25,0.5,1.5,0.0,1.0,0.25,0.5,1.5,0.5,0.25,0.02,0.14,0.95,172.17,-8.4,20.8
0.46,0.0,0.0,1.25,0.5,0.0,0.0,0.0,0.0,0.0,0.0,0.5,0.0,0.0,-0.17,0.14,0.95,39.08,27.6,31.5,0.5,1.5,1.5,1.25,0.25,1.75,0.0,1.0,0.25,1.0,1.5,0.75,0.25,0.02,0.14,0.95,173.03,-5.9,8.4
0.48,0.0,0.0,1.25,0.5,0.0,0.0,0.25,0.25,0.0,0.0,0.5,0.0,0.0,-0.17,0.08,0.95,40.05,23.7,24.7,0.75,1.5,1.5,0.5,0.25,0.75,0.25,1.0,0.25,0.75,1.5,0.75,0.25,0.02,0.14,0.95,164.95,-9.3,6.5
0.5,0.0,0.0,1.0,0.5,0.0,0.0,0.25,0.25,0.0,0.0,0.5,0.0,0.25,-0.17,0.14,0.95,40.87,18.6,8.2,0.75,1.75,1.5,0.5,0.5,2.0,0.0,1.0,0.0,1.0,1.25,0.75,0.25,0.02,0.14,0.95,164.49,-4.7,13.4
0.52,0.0,0.0,0.5,0.5,0.0,0.0,0.0,0.0,0.0,0.0,1.0,0.0,0.0,-0.17,0.08,0.95,38.25,19.5,-5.6,0.75,1.75,1.25,1.25,0.0,1.25,0.0,1.0,0.25,0.0,1.5,1.0,0.25,0.02,0.14,0.95,159.51,-9.7,14.3
0.54,0.0,0.0,1.25,0.5,0.0,0.0,0.25,0.25,0.0,0.0,0.5,0.0,0.0,-0.11,0.14,0.95,39.49,23.7,24.7,1.0,1.5,1.0,0.75,0.5,1.75,0.0,1.0,0.25,0.5,1.25,0.75,0.25,0.02,0.14,0.95,158.66,-5.7,14.5
0.56,0.0,0.0,1.25,0.5,0.0,0.0,0.0,0.5,0.0,0.0,0.75,0.0,0.0,-0.17,0.08,0.95,42.2,19.0,11.4,0.5,1.75,1.5,0.75,0.25,1.5,0.0,1.0,0.25,1.0,1.5,0.75,0.25,0.02,0.14,0.95,157.8,-6.1,7.6
0.58,0.0,0.0,1.25,0.5,0.0,0.0,0.25,0.25,0.0,0.0,0.75,0.0,0.0,-0.17,0.08,0.95,45.32,22.6,16.3,0.75,1.25,1.5,1.25,0.25,1.75,0.0,1.0,0.25,0.75,1.0,0.75,0.25,0.02,0.14,0.95,159.28,-6.6,13.9
0.6,0.0,0.0,1.25,0.5,0.0,0.0,0.0,0.25,0.0,0.0,0.5,0.0,0.0,-0.17,0.14,0.95,45.94,23.3,24.6,0.75,1.75,1.5,0.5,0.25,1.5,0.25,1.0,0.0,1.0,1.5,0.75,0.25,0.02,0.14,0.95,160.1,-6.6,9.6
0.62,0.0,0.0,1.25,0.5,0.0,0.0,0.25,0.25,0.0,0.0,0.5,0.0,0.0,-0.17,0.08,0.95,45.57,23.7,24.7,0.5,1.75,1.5,0.5,0.5,1.75,0.0,1.0,0.25,0.25,1.25,1.0,0.25,0.02,0.14,0.95,159.58,-6.4,13.3
0.64,0.0,0.0,1.5,0.5,0.0,0.0,0.0,0.5,0.0,0.0,0.5,0.0,0.0,-0.17,0.08,0.95,47.23,21.2,22.4,0.5,1.5,1.5,0.25,0.25,1.25,0.0,1.0,0.25,0.5,1.5,0.75,0.25,0.02,0.14,0.95,154.33,-7.2,6.1
0.66,0.0,0.0,1.5,0.5,0.0,0.0,0.0,0.5,0.0,0.0,0.75,0.0,0.0,-0.17,0.08,0.95,50.05,20.5,15.2,0.5,1.5,1.5,0.5,0.5,1.0,0.0,1.0,0.25,0.75,1.0,0.75,0.25,0.02,0.14,0.95,148.19,-7.1,10.2
0.68,0.0,0.0,1.0,0.5,0.0,0.0,0.0,0.5,0.0,0.0,0.25,0.0,0.0,-0.17,0.08,0.95,47.72,18.5,24.1,0.75,1.75,1.25,0.5,0.5,2.0,0.0,1.0,0.25,0.25,1.0,0.75,0.25,0.02,0.14,0.95,148.22,-5.4,19.6
0.7,0.0,0.0,1.5,0.5,0.0,0.0,0.0,0.25,0.0,0.0,0.75,0.0,0.0,-0.17,0.08,0.95,48.74,23.5,19.7,1.0,1.75,1.25,0.0,0.25,1.25,0.0,1.0,0.25,0.0,0.75,0.75,0.25,0.02,0.14,0.95,142.24,-8.7,22.5
0.72,0.0,0.0,1.25,0.5,0.0,0.0,0.0,0.0,0.0,0.0,0.75,0.0,0.0,-0.17,0.14,0.95,45.78,26.0,21.2,0.5,1.75,0.75,0.75,0.5,2.0,0.25,1.0,0.25,1.0,1.25,0.5,0.25,0.02,0.14,0.95,147.23,-2.3,11.0
0.74,0.0,0.0,1.25,0.5,0.0,0.0,0.0,0.25,0.0,0.0,0.5,0.0,0.0,-0.17,0.08,0.95,44.78,23.3,24.6,0.75,1.5,1.5,1.0,0.25,1.25,0.0,1.0,0.25,0.75,1.0,0.75,0.25,0.02,0.14,0.95,148.51,-7.9,14.0
0.76,0.0,0.0,1.25,0.5,0.0,0.0,0.0,0.25,0.0,0.0,0.75,0.0,0.0,-0.17,0.08,0.95,44.25,22.2,15.9,1.0,1.5,1.5,1.0,0.5,1.25,0.25,1.0,0.0,1.25,1.25,0.75,0.25,0.02,0.14,0.95,158.38,-7.3,12.1
0.78,0.0,0.0,1.25,0.5,0.0,0.0,0.25,0.25,0.0,0.0,0.75,0.0,0.0,-0.17,0.14,0.95,44.98,22.6,16.3,0.5,1.75,1.5,1.0,0.5,1.25,0.0,1.0,0.25,0.0,1.25,0.75,0.25,0.02,0.14,0.95,158.23,-8.9,19.8
0.8,0.0,0.0,1.5,0.5,0.0,0.0,0.0,0.25,0.0,0.0,0.5,0.0,0.0,-0.17,0.08,0.95,45.57,24.6,27.9,0.75,1.5,1.5,0.75,0.25,1.25,0.0,1.0,0.25,0.25,1.25,0.25,0.25,0.02,0.14,0.95,155.19,-8.9,21.9
0.82,0.0,0.0,1.25,0.5,0.0,0.0,0.0,0.25,0.0,0.0,0.5,0.0,0.0,-0.17,0.08,0.95,44.9,23.3,24.6,1.0,1.5,1.75,0.5,0.5,1.25,0.0,1.0,0.25,0.75,1.5,0.75,0.25,0.02,0.14,0.95,157.0,-8.5,11.9
0.84,0.0,0.0,0.75,0.5,0.0,0.0,0.0,0.25,0.0,0.0,0.5,0.0,0.0,-0.17,0.08,0.95,40.85,19.5,15.3,0.75,1.75,1.5,0.75,0.5,2.5,0.0,1.0,0.25,0.25,1.5,0.75,0.25,0.02,0.14,0.95,163.87,-5.5,18.0
0.86,0.0,0.0,1.25,0.5,0.0,0.0,0.0,0.0,0.0,0.0,0.5,0.0,0.0,-0.17,0.08,0.95,38.16,27.6,31.5,0.5,1.75,1.25,0.5,0.5,1.25,0.0,1.0,0.25,0.0,1.5,0.75,0.25,0.02,0.14,0.95,161.51,-7.6,14.2
0.88,0.0,0.0,1.5,0.5,0.0,0.0,0.25,0.25,0.0,0.0,0.5,0.0,0.0,-0.17,0.08,0.95,39.87,25.0,27.9,1.0,1.75,1.0,1.25,0.5,1.5,0.25,1.0,0.25,0.5,1.5,0.75,0.25,0.02,0.14,0.95,166.86,-7.3,16.2
0.9,0.0,0.0,1.5,0.5,0.0,0.0,0.0,0.25,0.0,0.0,0.5,0.0,0.0,-0.17,0.08,0.95,42.68,24.6,27.9,0.75,1.75,1.5,0.75,0.5,1.25,0.0,1.0,0.5,0.75,1.25,0.75,0.25,0.02,0.14,0.95,166.93,-7.6,12.8
0.92,0.0,0.0,1.25,0.5,0.0,0.0,0.0,0.25,0.0,0.0,0.5,0.0,0.0,-0.17,0.08,0.95,44.2,23.3,24.6,1.0,1.75,1.5,0.75,0.5,2.0,0.25,1.0,0.25,0.0,1.5,0.75,0.25,0.02,0.14,0.95,170.45,-8.0,21.1
0.94,0.0,0.0,1.25,0.5,0.0,0.0,0.25,0.25,0.0,0.0,0.5,0.0,0.0,-0.17,0.08,0.95,44.3,23.7,24.7,0.75,1.75,1.25,1.25,0.25,1.75,0.0,1.0,0.25,0.0,1.25,0.5,0.25,0.02,0.14,0.95,167.5,-7.8,24.4
0.96,0.0,0.0,1.25,0.5,0.0,0.0,0.0,0.0,0.0,0.0,0.75,0.0,0.0,-0.17,0.08,0.95,43.56,26.0,21.2,0.75,1.75,1.25,1.0,0.5,1.5,0.0,1.0,0.25,0.5,1.0,0.75,0.25,0.02,0.14,0.95,165.47,-6.8,18.6
0.98,0.0,0.0,1.25,0.5,0.0,0.0,0.0,0.25,0.0,0.0,1.0,0.0,0.0,-0.17,0.08,0.95,44.87,21.3,8.6,0.75,1.75,1.25,1.0,0.5,1.25,0.0,1.0,0.0,1.0,1.5,0.75,0.25,0.02,0.14,0.95,164.38,-6.5,11.1
1.0,0.0,0.0,0.25,0.5,0.0,0.0,0.0,0.0,0.0,0.0,0.5,0.0,0.0,-0.17,0.14,0.95,36.66,19.0,7.5,0.75,1.5,1.25,1.0,0.5,1.25,0.0,1.0,0.25,0.75,1.25,0.75,0.25,0.02,0.14,0.95,162.34,-6.9,11.9
1.02,0.0,0.0,1.25,0.5,0.0,0.0,0.0,0.25,0.0,0.0,0.5,0.0,0.0,-0.17,0.08,0.95,37.2,23.3,24.6,1.0,1.75,1.5,1.0,0.25,1.5,0.0,1.0,0.25,1.0,1.0,0.75,0.25,0.02,0.14,0.95,165.64,-7.4,16.1
1.04,0.0,0.0,1.25,0.5,0.0,0.0,0.25,0.5,0.0,0.0,0.75,0.0,0.0,-0.17,0.08,0.95,40.02,19.5,12.0,1.0,1.75,1.75,0.75,0.25,1.5,0.0,1.0,0.25,0.0,1.25,0.75,0.25,0.02,0.14,0.95,164.48,-10.1,22.8
1.06,0.0,0.0,1.25,0.5,0.0,0.0,0.0,0.25,0.0,0.0,0.5,0.0,0.0,-0.17,0.08,0.95,42.76,23.3,24.6,1.0,1.75,1.5,1.0,0.5,1.75,0.0,1.0,0.25,0.75,0.75,0.75,0.25,0.02,0.14,0.95,166.55,-6.9,21.4
1.08,0.0,0.0,1.5,0.5,0.0,0.0,0.0,0.5,0.0,0.0,0.5,0.0,0.0,-0.17,0.08,0.95,46.47,21.2,22.4,1.0,1.75,1.75,1.25,0.25,1.75,0.0,1.0,0.25,0.25,1.5,0.75,0.25,0.02,0.14,0.95,170.35,-9.3,20.4
1.1,0.0,0.0,1.5,0.5,0.0,0.0,0.0,0.5,0.0,0.0,0.5,0.0,0.0,-0.17,0.08,0.95,48.7,21.2,22.4,0.75,1.75,1.75,1.0,0.5,1.75,0.0,1.0,0.25,0.75,1.25,0.75,0.25,0.02,0.14,0.95,175.64,-7.2,16.8
1.12,0.0,0.0,1.5,0.5,0.0,0.0,0.0,0.5,0.0,0.0,0.75,0.0,0.0,-0.17,0.08,0.95,51.24,20.5,15.2,0.75,1.75,1.25,1.0,0.5,1.25,0.0,1.0,0.25,0.75,1.25,0.75,0.25,0.02,0.14,0.95,172.29,-7.0,13.9
1.14,0.0,0.0,1.25,0.5,0.0,0.0,0.25,0.0,0.0,0.0,0.25,0.0,0.0,-0.17,0.08,0.95,47.35,29.8,43.1,1.0,1.75,1.25,1.0,0.25,1.5,0.0,1.0,0.25,0.75,1.25,0.25,0.25,0.02,0.14,0.95,168.87,-7.2,21.0
1.16,0.0,0.0,0.5,0.5,0.0,0.0,0.0,0.5,0.0,0.0,0.75,0.0,0.0,-0.17,0.08,0.95,43.8,12.4,-5.5,0.75,1.75,1.5,1.0,0.5,1.5,0.0,1.0,0.25,0.5,1.5,0.25,0.25,0.02,0.14,0.95,165.92,-7.6,21.3
1.18,0.0,0.0,1.25,0.5,0.0,0.0,0.0,0.0,0.0,0.0,0.75,0.0,0.0,-0.17,0.08,0.95,41.18,26.0,21.2,0.75,1.75,1.0,1.75,0.25,2.0,0.0,1.0,0.25,0.5,1.25,0.75,0.25,0.02,0.14,0.95,167.98,-5.9,18.1
1.2,0.0,0.0,1.25,0.5,0.0,0.0,0.0,0.25,0.0,0.0,0.5,0.0,0.0,-0.17,0.08,0.95,40.73,23.3,24.6,0.5,1.75,1.5,0.75,0.5,1.5,0.0,1.0,0.25,0.75,1.25,0.75,0.25,0.02,0.14,0.95,166.62,-6.2,12.6
1.22,0.0,0.0,1.25,0.5,0.0,0.0,0.0,0.0,0.0,0.0,0.75,0.0,0.0,-0.17,0.08,0.95,41.12,26.0,21.2,1.0,1.75,1.0,1.0,0.5,1.5,0.0,1.0,0.25,0.75,1.0,0.75,0.25,0.02,0.14,0.95,166.12,-6.1,17.1
1.24,0.0,0.0,1.25,0.5,0.0,0.0,0.25,0.25,0.0,0.0,0.75,0.0,0.0,-0.17,0.08,0.95,44.22,22.6,16.3,0.75,1.75,1.5,0.75,0.5,1.75,0.0,1.0,0.25,0.75,1.25,0.5,0.25,0.02,0.14,0.95,165.76,-6.2,17.6
1.26,0.0,0.0,1.5,0.5,0.0,0.0,0.0,0.5,0.0,0.0,0.75,0.0,0.0,-0.17,0.08,0.95,46.95,20.5,15.2,0.5,1.75,1.25,0.75,0.5,1.75,0.0,1.0,0.25,0.0,1.0,0.75,0.5,0.02,0.14,0.95,160.7,-5.8,17.4
1.28,0.0,0.0,1.25,0.5,0.0,0.0,0.0,0.25,0.0,0.0,0.5,0.0,0.0,-0.17,0.08,0.95,46.14,23.3,24.6,0.75,1.75,1.5,0.5,0.5,2.0,0.0,1.0,0.0,1.0,1.5,0.5,0.25,0.02,0.14,0.95,162.18,-4.8,14.2
1.3,0.0,0.0,1.25,0.5,0.0,0.0,0.0,0.25,0.0,0.0,0.75,0.0,0.0,-0.17,0.08,0.95,46.61,22.2,15.9,0.75,1.75,1.5,0.75,0.25,2.0,0.0,1.0,0.25,0.0,1.5,0.75,0.25,0.02,0.14,0.95,161.17,-7.5,18.5
1.32,0.0,0.0,0.5,0.5,0.0,0.0,0.0,0.25,0.0,0.0,0.75,0.0,0.0,-0.17,0.08,0.95,40.89,16.0,-1.3,0.75,1.75,1.5,0.75,0.5,1.75,0.0,1.0,0.25,0.5,1.25,0.75,0.25,0.02,0.14,0.95,163.62,-6.7,16.9
1.34,0.0,0.0,1.25,0.5,0.0,0.0,0.0,0.25,0.0,0.0,0.5,0.0,0.0,-0.17,0.08,0.95,40.22,23.3,24.6,1.0,1.75,1.5,0.75,0.25,1.75,0.0,1.0,0.25,0.75,1.0,0.75,0.5,0.02,0.14,0.95,165.65,-6.5,14.6
1.36,0.0,0.0,1.5,0.5,0.0,0.0,0.0,0.5,0.0,0.0,0.5,0.0,0.0,-0.17,0.08,0.95,42.43,21.2,22.4,0.75,1.75,1.25,0.5,0.25,1.75,0.0,1.0,0.25,0.25,1.0,0.75,0.25,0.02,0.14,0.95,161.66,-6.4,18.2
1.38,0.0,0.0,1.25,0.5,0.0,0.0,0.0,0.25,0.0,0.0,0.75,0.0,0.0,-0.17,0.08,0.95,45.43,22.2,15.9,0.75,1.75,1.5,1.25,0.5,1.25,0.25,1.0,0.25,0.0,1.75,0.75,0.25,0.02,0.14,0.95,162.91,-9.9,18.3
1.4,0.0,0.0,1.25,0.5,0.0,0.0,0.25,0.25,0.0,0.0,0.75,0.0,0.0,-0.17,0.14,0.95,47.13,22.6,16.3,0.75,1.75,1.25,1.25,0.5,2.0,0.25,1.0,0.25,0.0,1.0,1.0,0.25,0.02,0.14,0.95,163.88,-7.1,21.6
1.42,0.0,0.0,1.25,0.5,0.0,0.0,0.0,0.25,0.0,0.0,0.5,0.0,0.0,-0.17,0.08,0.95,45.81,23.3,24.6,0.75,1.75,1.0,1.0,0.5,1.75,0.0,1.0,0.25,0.75,1.5,0.75,0.25,0.02,0.14,0.95,167.01,-5.1,11.8
1.44,0.0,0.0,1.25,0.5,0.0,0.0,0.0,0.25,0.0,0.0,0.5,0.0,0.0,-0.17,0.08,0.95,44.4,23.3,24.6,1.0,1.75,1.0,1.25,0.5,1.75,0.0,1.0,0.25,1.0,1.5,0.75,0.25,0.02,0.14,0.95,172.44,-5.5,12.6
1.46,0.0,0.0,1.5,0.5,0.0,0.0,0.25,0.25,0.0,0.0,0.75,0.0,0.0,-0.17,0.08,0.95,45.91,23.9,20.0,0.75,1.75,0.75,1.25,0.25,1.75,0.0,1.0,0.25,0.5,1.5,0.75,0.25,0.02,0.14,0.95,171.01,-5.3,12.6
1.48,0.0,0.0,0.5,0.5,0.0,0.0,0.0,0.25,0.0,0.0,0.5,0.0,0.0,-0.17,0.08,0.95,40.38,16.7,8.7,0.75,1.75,1.75,1.0,0.25,1.75,0.0,1.0,0.25,1.25,1.5,0.5,0.25,0.02,0.14,0.95,174.28,-6.5,12.8
1.5,0.0,0.0,1.25,0.5,0.0,0.0,0.25,0.5,0.0,0.0,0.5,0.0,0.0,-0.17,0.08,0.95,42.3,20.2,19.2,0.75,1.75,1.25,0.75,0.5,2.0,0.0,1.0,0.25,0.75,1.5,0.75,0.25,0.02,0.14,0.95,173.85,-5.0,12.3
1.52,0.0,0.0,1.5,0.5,0.0,0.0,0.0,0.25,0.0,0.0,0.75,0.0,0.0,-0.17,0.08,0.95,44.33,23.5,19.7,0.75,1.75,1.5,1.0,0.5,1.5,0.0,1.0,0.5,0.75,1.0,0.75,0.25,0.02,0.14,0.95,173.92,-7.1,16.2
1.54,0.0,0.0,1.5,0.5,0.0,0.0,0.0,0.25,0.0,0.0,0.75,0.0,0.0,-0.17,0.08,0.95,47.86,23.5,19.7,0.5,1.75,1.25,1.0,0.5,1.25,0.0,1.0,0.0,0.75,1.25,0.75,0.5,0.02,0.14,0.95,169.07,-5.8,10.3
1.56,0.0,0.0,1.25,0.5,0.0,0.0,0.0,0.0,0.0,0.0,0.75,0.0,0.0,-0.17,0.08,0.95,46.87,26.0,21.2,0.75,1.75,1.25,0.75,0.25,1.75,0.25,1.0,0.25,0.5,1.5,0.75,0.25,0.02,0.14,0.95,166.49,-6.6,12.9
1.58,0.0,0.0,1.5,0.5,0.0,0.0,0.0,0.0,0.0,0.0,0.75,0.0,0.0,-0.17,0.08,0.95,46.76,27.1,24.9,0.5,1.75,1.5,1.25,0.5,1.75,0.0,1.0,0.25,0.25,1.25,0.25,0.25,0.02,0.14,0.95,163.5,-7.1,25.3
1.6,0.0,0.0,1.5,0.5,0.0,0.0,0.0,0.5,0.0,0.0,0.5,0.0,0.0,-0.17,0.14,0.95,47.17,21.2,22.4,0.75,1.75,1.25,1.0,0.5,2.0,0.0,1.0,0.25,1.0,1.5,0.75,0.25,0.02,0.14,0.95,168.28,-4.8,11.4
1.62,0.0,0.0,1.25,0.75,0.0,0.0,0.0,0.25,0.0,0.0,0.75,0.0,0.0,-0.17,0.08,0.95,48.67,21.7,19.5,1.0,1.75,1.75,0.5,0.25,2.0,0.0,1.0,0.25,1.25,1.5,0.75,0.25,0.02,0.14,0.95,172.64,-6.1,10.4
1.64,0.0,0.0,1.25,0.5,0.0,0.0,0.0,0.0,0.0,0.0,0.5,0.0,0.0,-0.17,0.08,0.95,46.17,27.6,31.5,0.75,1.75,1.0,1.0,0.25,1.25,0.25,1.0,0.25,0.0,1.0,0.5,0.25,0.02,0.14,0.95,164.9,-8.5,24.6
1.66,0.0,0.0,1.25,0.5,0.0,0.0,0.0,0.5,0.0,0.0,0.75,0.0,0.0,-0.17,0.08,0.95,47.24,19.0,11.4,0.75,1.75,1.25,1.0,0.5,1.5,0.0,1.0,0.25,0.75,1.5,0.75,0.25,0.02,0.14,0.95,164.64,-6.5,12.4
1.68,0.0,0.0,1.25,0.5,0.0,0.0,0.0,0.25,0.0,0.0,0.5,0.0,0.0,-0.17,0.08,0.95,44.92,23.3,24.6,0.75,1.75,0.75,1.25,0.5,1.75,0.0,1.0,0.25,0.5,1.25,0.75,0.25,0.02,0.14,0.95,161.02,-5.0,15.7
1.7,0.0,0.0,1.25,0.5,0.0,0.0,0.25,0.25,0.0,0.0,0.5,0.0,0.0,-0.17,0.14,0.95,44.54,23.7,24.7,0.75,1.75,1.25,0.75,0.5,1.75,0.0,1.0,0.25,1.25,1.25,0.5,0.5,0.02,0.14,0.95,165.19,-4.1,9.8
1.72,0.0,0.0,1.25,0.5,0.0,0.0,0.0,0.25,0.0,0.0,0.75,0.0,0.0,-0.17,0.08,0.95,44.8,22.2,15.9,0.5,1.75,1.25,1.0,0.5,1.25,0.0,1.0,0.25,1.25,1.25,0.75,0.25,0.02,0.14,0.95,164.66,-5.4,8.1
1.74,0.0,0.0,1.5,0.5,0.0,0.0,0.0,0.25,0.0,0.0,0.5,0.0,0.0,-0.17,0.08,0.95,44.88,24.6,27.9,0.75,1.75,1.25,0.5,0.5,2.0,0.0,1.0,0.25,0.25,1.5,0.75,0.25,0.02,0.14,0.95,166.05,-5.7,15.3
1.76,0.0,0.0,1.25,0.5,0.0,0.0,0.0,0.25,0.0,0.0,0.5,0.0,0.0,-0.17,0.14,0.95,43.86,23.3,24.6,0.5,1.75,1.5,1.0,0.5,2.0,0.0,1.0,0.25,0.25,1.0,0.75,0.25,0.02,0.14,0.95,164.96,-6.2,20.7
1.78,0.0,0.25,1.25,0.25,0.0,0.0,0.0,0.5,0.0,0.0,0.5,0.0,0.0,-0.17,0.08,0.95,44.57,19.3,22.6,0.75,1.75,1.5,1.0,0.5,2.0,0.0,1.0,0.25,0.5,1.5,0.75,0.25,0.02,0.14,0.95,168.63,-6.4,16.2
1.8,0.0,0.25,1.0,0.75,0.0,0.0,0.0,0.0,0.0,0.0,0.5,0.0,0.0,-0.17,0.08,0.95,44.14,24.0,38.0,1.0,1.75,1.0,1.0,0.5,1.5,0.0,1.0,0.0,0.5,1.5,0.5,0.25,0.02,0.14,0.95,166.47,-6.7,19.3
1.82,0.0,0.0,1.25,0.5,0.0,0.0,0.25,0.25,0.0,0.0,0.5,0.0,0.0,-0.17,0.08,0.95,43.8,23.7,24.7,0.75,1.75,0.75,0.5,0.25,2.0,0.0,1.0,0.25,0.75,1.0,0.75,0.25,0.02,0.14,0.95,161.39,-2.9,11.6
1.84,0.0,0.0,1.25,0.5,0.0,0.0,0.0,0.25,0.0,0.0,0.75,0.0,0.0,-0.17,0.14,0.95,44.02,22.2,15.9,0.75,1.75,1.5,1.0,0.25,2.0,0.0,1.0,0.25,1.25,1.5,0.75,0.25,0.02,0.14,0.95,165.75,-5.3,9.7
1.86,0.0,0.0,1.25,0.5,0.0,0.0,0.0,0.25,0.0,0.0,0.5,0.0,0.0,-0.17,0.08,0.95,43.77,23.3,24.6,0.75,1.75,1.5,0.75,0.25,2.0,0.0,1.0,0.25,0.75,1.25,0.5,0.25,0.02,0.14,0.95,166.65,-5.8,17.0
1.88,0.0,0.0,1.25,0.5,0.0,0.0,0.0,0.5,0.0,0.0,0.5,0.0,0.0,-0.17,0.08,0.95,44.65,19.7,18.9,0.5,1.75,1.0,0.75,0.5,1.0,0.0,1.0,0.25,1.0,0.75,0.5,0.25,0.02,0.14,0.95,161.3,-5.1,14.3
1.9,0.0,0.0,1.25,0.5,0.0,0.0,0.25,0.25,0.0,0.0,0.75,0.0,0.0,-0.17,0.14,0.95,45.24,22.6,16.3,0.75,1.75,1.5,1.25,0.25,1.5,0.0,1.0,0.25,0.5,1.5,0.75,0.25,0.02,0.14,0.95,161.05,-8.2,15.5
1.92,0.0,0.0,1.25,0.5,0.0,0.0,0.0,0.25,0.0,0.0,0.5,0.0,0.0,-0.17,0.08,0.95,44.95,23.3,24.6,0.5,1.75,1.5,0.5,0.25,1.25,0.0,1.0,0.25,0.0,1.25,0.75,0.25,0.02,0.14,0.95,153.57,-8.8,16.6
1.94,0.0,0.0,1.25,0.25,0.0,0.0,0.0,0.25,0.0,0.0,0.5,0.0,0.0,-0.17,0.14,0.95,42.28,24.0,20.7,0.75,1.75,1.5,0.75,0.25,1.25,0.0,1.0,0.25,0.25,1.0,0.75,0.25,0.02,0.14,0.95,150.39,-8.9,19.6
1.96,0.0,0.0,0.75,0.5,0.0,0.0,0.0,0.25,0.0,0.0,0.75,0.0,0.0,-0.17,0.14,0.95,39.37,18.5,5.6,0.75,1.75,1.25,0.5,0.0,1.0,0.0,1.0,0.25,0.0,1.0,0.75,0.25,0.02,0.14,0.95,140.92,-9.8,18.4
1.98,0.0,0.0,1.25,0.5,0.0,0.0,0.25,0.25,0.0,0.0,0.75,0.0,0.0,-0.17,0.08,0.95,40.86,22.6,16.3,0.75,1.5,1.0,0.25,0.25,1.0,0.0,1.0,0.25,0.0,1.5,0.75,0.25,0.02,0.14,0.95,134.72,-8.3,9.3
2.0,0.0,0.0,1.5,0.5,0.0,0.0,0.25,0.0,0.0,0.0,0.75,0.0,0.0,-0.17,0.08,0.95,43.38,27.4,25.0,0.5,1.75,1.25,0.5,0.5,1.0,0.0,1.0,0.0,0.25,0.75,0.75,0.25,0.02,0.14,0.89,128.44,-7.4,20.2
2.02,0.0,0.0,1.25,0.5,0.0,0.0,0.0,0.0,0.0,0.0,0.5,0.0,0.0,-0.17,0.08,0.95,42.89,27.6,31.5,0.75,1.75,1.5,0.25,0.0,0.75,0.0,0.75,0.0,0.0,0.75,0.75,0.25,0.02,0.14,0.89,121.49,-12.4,24.8
2.04,0.0,0.0,1.25,0.5,0.0,0.0,0.0,0.25,0.0,0.0,0.5,0.0,0.0,-0.17,0.14,0.95,42.89,23.3,24.6,0.75,1.75,0.5,0.5,0.5,0.5,0.0,0.75,0.0,0.25,0.75,0.75,0.25,0.02,0.14,0.95,116.03,-7.8,19.5
2.06,0.0,0.0,1.25,0.5,0.0,0.0,0.0,0.25,0.0,0.0,0.75,0.0,0.0,-0.11,0.08,0.95,43.13,22.2,15.9,0.5,1.5,1.25,0.75,0.0,0.25,0.0,1.0,0.25,1.0,0.75,0.75,0.25,0.02,0.14,0.95,114.61,-9.0,5.0
2.08,0.0,0.0,1.25,0.5,0.0,0.0,0.0,0.25,0.0,0.0,0.5,0.0,0.0,-0.11,0.14,0.95,42.74,23.3,24.6,0.5,1.5,1.0,0.25,0.25,0.25,0.0,0.5,0.25,0.75,0.75,0.5,0.25,0.02,0.14,0.95,107.72,-9.5,11.3
2.1,0.0,0.0,0.75,0.75,0.0,0.0,0.0,0.5,0.0,0.0,0.5,0.0,0.0,-0.17,0.14,0.95,42.43,15.7,14.4,0.5,1.5,1.5,0.5,0.0,0.25,0.0,0.25,0.0,1.5,1.0,0.75,0.25,0.02,0.14,0.95,110.38,-10.4,3.1
2.12,0.0,0.0,0.75,0.5,0.0,0.0,0.0,0.0,0.0,0.0,0.0,0.0,0.0,-0.17,0.08,0.95,35.59,29.7,59.7,0.75,1.5,1.0,0.25,0.0,0.0,0.0,0.25,0.0,0.75,0.75,0.75,0.25,0.02,0.14,0.95,103.85,-13.2,10.8
2.14,0.0,0.0,0.75,0.5,0.0,0.0,0.0,0.25,0.0,0.0,0.5,0.0,0.0,-0.17,0.08,0.95,32.88,19.5,15.3,0.5,1.75,1.25,0.0,0.0,0.0,0.0,0.0,0.0,0.0,0.75,0.75,0.25,0.02,0.14,0.95,94.22,-18.7,26.0
2.16,0.0,0.0,0.75,0.5,0.0,0.0,0.0,0.5,0.0,0.0,0.5,0.0,0.0,-0.17,0.08,0.95,31.85,15.5,9.4,0.75,1.75,1.25,0.5,0.5,0.0,0.0,0.25,0.0,0.0,1.0,0.75,0.25,0.02,0.14,0.95,95.56,-15.8,27.2
2.18,0.0,0.0,0.5,0.5,0.0,0.0,0.0,0.0,0.0,0.0,0.5,0.0,0.0,-0.17,0.08,0.95,29.23,22.2,16.5,0.5,1.75,1.0,0.0,0.25,0.0,0.0,0.0,0.0,0.0,0.75,0.5,0.25,0.02,0.14,0.95,88.46,-17.0,32.5
2.2,0.0,0.0,0.5,0.5,0.0,0.0,0.0,0.0,0.0,0.0,0.5,0.0,0.0,-0.17,0.08,0.95,26.35,22.2,16.5,0.5,1.75,1.0,0.25,0.0,0.0,0.0,0.0,0.0,0.0,0.75,0.75,0.25,0.02,0.14,0.95,85.72,-17.7,25.9
2.22,0.0,0.0,0.75,0.5,0.0,0.0,0.0,0.0,0.0,0.0,0.5,0.0,0.0,-0.17,0.08,0.95,25.2,24.6,22.9,0.5,1.75,1.25,0.5,0.25,0.0,0.0,0.0,0.0,0.0,0.75,0.75,0.25,0.08,0.14,0.95,85.59,-17.5,30.1
2.24,0.0,0.0,0.75,0.5,0.0,0.0,0.0,0.0,0.0,0.0,0.25,0.0,0.0,-0.17,0.08,0.95,24.23,26.7,38.4,0.75,1.5,1.0,0.5,0.25,0.0,0.0,0.0,0.0,0.0,1.0,0.75,0.25,0.02,0.14,0.95,88.34,-17.3,24.2
2.26,0.0,0.0,0.75,0.25,0.0,0.0,0.0,0.0,0.0,0.0,0.25,0.25,0.0,-0.17,0.08,0.95,23.52,25.5,10.9,0.75,1.75,0.5,0.5,0.0,0.0,0.0,0.0,0.0,0.25,1.0,0.5,0.25,0.02,0.14,0.95,87.88,-15.1,24.3
2.28,0.0,0.0,0.75,0.5,0.0,0.0,0.0,0.0,0.0,0.0,0.0,0.0,0.0,-0.17,0.08,0.95,22.17,29.7,59.7,0.5,1.75,1.25,0.5,0.0,0.0,0.0,0.0,0.0,0.25,0.75,1.0,0.25,0.02,0.14,0.95,91.31,-16.8,19.3
2.3,0.0,0.0,0.5,0.5,0.0,0.0,0.0,0.0,0.0,0.0,0.25,0.0,0.0,-0.17,0.08,0.95,20.89,24.4,33.9,0.5,1.25,1.25,0.5,0.25,0.0,0.0,0.0,0.0,0.75,0.75,0.5,0.25,0.02,0.14,0.89,92.63,-14.2,16.9
2.32,0.0,0.0,0.75,0.5,0.0,0.0,0.0,0.0,0.0,0.0,0.25,0.0,0.0,-0.17,0.08,0.95,21.64,26.7,38.4,0.5,1.75,1.0,0.5,0.0,0.0,0.0,0.0,0.0,1.25,0.75,0.75,0.25,0.02,0.14,0.89,97.97,-11.5,8.5
2.34,0.0,0.0,0.75,0.5,0.0,0.0,0.0,0.0,0.0,0.0,0.25,0.0,0.0,-0.17,0.08,0.95,23.05,26.7,38.4,0.0,0.75,1.25,0.0,0.25,0.0,0.0,0.0,0.0,0.0,0.0,0.0,0.0,0.02,0.14,0.95,79.54,-24.7,72.5
2.36,0.0,0.0,1.25,0.5,0.0,0.0,0.0,0.0,0.0,0.0,0.25,0.0,0.0,-0.17,0.08,0.95,28.04,29.6,44.1,0.0,0.75,0.0,0.0,0.0,0.0,0.0,0.0,0.0,0.0,0.0,0.0,0.0,0.02,0.14,0.95,54.54,-12.6,98.9
2.38,0.0,0.0,1.0,0.5,0.0,0.0,0.0,0.0,0.0,0.0,0.0,0.0,0.0,-0.17,0.08,0.95,28.37,31.1,59.9,0.0,1.25,0.25,0.0,0.0,0.0,0.0,0.0,0.0,0.0,0.0,0.5,0.0,0.02,0.14,0.95,34.37,-14.9,43.3
2.4,0.0,0.0,0.75,0.5,0.0,0.0,0.0,0.0,0.0,0.0,0.0,0.0,0.0,-0.17,0.08,0.95,27.59,29.7,59.7,0.5,1.75,1.25,0.5,0.25,0.0,0.0,0.5,0.25,0.0,1.5,0.0,0.25,0.02,0.08,0.95,49.86,-15.1,26.6
2.42,0.0,0.0,0.75,0.25,0.0,0.0,0.0,0.0,0.0,0.25,0.0,0.0,0.0,-0.17,0.08,0.95,25.4,23.4,33.7,0.0,0.75,1.25,0.0,0.0,0.0,0.0,1.0,0.0,0.5,1.5,0.75,0.25,0.02,0.14,0.95,65.72,-8.8,-23.4
2.44,0.0,0.0,0.5,0.5,0.0,0.0,0.0,0.0,0.0,0.0,0.0,0.0,0.0,-0.17,0.08,0.95,21.98,27.6,59.4,0.75,1.75,1.5,0.5,0.0,0.0,0.0,1.0,0.25,1.5,2.0,1.0,0.25,0.02,0.14,0.95,105.16,-9.9,-6.9
2.46,0.0,0.0,0.25,0.5,0.0,0.0,0.0,0.0,0.0,0.25,0.0,0.0,0.0,-0.17,0.08,0.95,18.94,14.4,26.3,0.75,1.75,0.5,0.5,0.25,0.0,0.0,1.0,0.5,1.5,2.0,1.0,0.5,0.02,0.14,0.95,129.98,-6.1,-15.4
2.48,0.0,0.0,0.0,0.5,0.0,0.0,0.0,0.0,0.0,0.25,0.0,0.25,0.0,-0.17,0.08,0.95,16.92,7.1,-15.5,0.0,0.75,0.25,0.0,0.0,0.0,0.0,1.0,0.25,1.5,2.0,0.75,0.25,0.02,0.08,0.95,134.19,-0.9,-48.4
2.5,0.0,0.0,0.75,0.5,0.0,0.0,0.0,0.0,0.0,0.25,0.0,0.5,0.0,-0.17,0.08,0.95,21.59,19.1,1.9,0.0,0.75,0.0,0.0,0.0,0.0,0.0,1.0,0.5,1.5,2.0,0.75,0.25,0.02,0.08,0.95,127.65,0.0,-52.3
2.52,0.0,0.0,0.25,0.5,0.0,0.0,0.0,0.0,0.0,0.75,0.0,0.75,0.0,-0.17,0.08,0.95,27.22,6.0,-40.6,0.0,0.75,0.0,0.0,0.0,0.0,0.0,1.25,0.5,2.75,3.0,2.5,0.5,0.02,0.08,0.95,144.28,0.1,-66.9
2.54,0.0,0.0,0.75,0.5,0.0,0.0,0.0,0.0,0.0,1.0,0.25,0.75,0.0,-0.17,0.08,0.95,37.72,9.7,-29.9,0.0,1.75,0.0,1.0,0.0,1.0,0.25,2.5,0.75,5.25,4.0,2.5,1.25,0.02,0.08,0.95,199.56,2.2,-47.5
2.56,0.0,0.0,0.75,0.5,0.0,0.0,0.0,0.0,0.5,1.75,0.5,0.75,0.5,-0.17,0.08,0.95,57.08,4.1,-47.0,0.0,0.75,1.5,0.0,0.5,0.0,0.25,2.5,0.5,4.25,6.0,2.25,2.5,0.02,0.08,0.95,253.48,-0.7,-57.4
2.58,0.0,0.0,1.0,1.0,0.0,0.0,0.0,0.0,0.5,1.75,2.0,1.25,1.0,-0.17,0.08,0.95,90.91,6.3,-49.6,0.25,1.25,0.0,0.0,0.0,0.5,0.0,2.5,1.0,5.75,5.25,3.75,1.5,0.02,0.08,0.95,298.24,1.8,-63.2
2.6,0.0,0.0,1.25,0.75,0.0,0.0,0.0,0.0,0.5,2.0,0.0,1.75,1.25,-0.17,0.08,0.95,113.52,4.6,-49.8,0.75,1.75,1.75,1.25,0.0,0.75,0.0,2.75,1.0,6.25,5.75,3.5,2.25,0.02,0.08,0.95,349.0,-1.7,-43.9
2.62,0.0,0.0,1.25,0.5,0.0,0.0,0.0,0.0,0.5,2.75,3.0,2.0,1.75,-0.17,0.08,0.95,151.99,3.8,-64.1,0.0,0.75,1.75,0.0,0.0,0.0,0.0,2.5,0.5,5.5,6.0,3.0,2.25,0.02,0.08,0.95,359.72,-0.6,-61.5
2.64,0.0,0.0,1.25,0.5,0.0,0.0,0.0,0.0,0.75,3.25,3.5,2.25,2.25,-0.17,0.08,0.95,187.37,2.9,-67.0,0.0,0.75,0.0,0.0,0.0,0.0,0.0,2.5,0.5,5.5,6.0,3.25,2.5,0.02,0.08,0.95,356.26,2.7,-73.3
2.66,0.0,0.0,0.75,0.5,0.0,0.0,0.0,0.5,0.75,3.5,3.75,3.0,2.25,-0.11,0.08,0.95,221.41,1.2,-72.9,0.0,0.75,0.0,0.0,0.5,0.0,0.0,2.5,0.5,5.5,6.0,3.5,3.0,0.02,0.08,0.95,352.29,2.8,-71.2
2.68,0.0,0.0,0.0,0.5,0.0,0.0,0.0,0.0,0.75,3.5,3.25,3.0,2.5,-0.17,0.08,0.95,237.05,-0.8,-82.4,0.0,1.0,0.0,0.0,0.0,0.0,0.0,2.5,0.5,5.75,6.0,3.25,2.75,0.02,0.08,0.95,345.67,2.8,-71.7
2.7,0.0,0.0,0.75,0.5,0.0,0.0,0.0,0.5,0.75,3.5,4.5,3.0,2.5,-0.17,0.08,0.95,254.0,1.4,-73.6,0.5,1.75,0.5,0.25,0.25,0.75,0.0,3.75,1.25,6.25,7.25,3.75,4.0,0.02,0.08,0.95,377.53,1.5,-57.9
2.72,0.0,0.0,1.0,0.5,0.0,0.0,0.25,0.5,0.75,3.25,4.75,3.0,2.5,-0.17,0.08,0.95,262.24,2.6,-70.7,0.75,1.75,1.0,0.0,0.5,0.0,0.0,3.5,1.25,7.0,7.25,4.5,4.0,0.02,0.08,0.95,416.78,0.3,-58.6
2.74,0.0,0.0,0.75,0.75,0.0,0.0,0.25,0.0,0.75,3.5,4.0,3.0,2.25,-0.17,0.08,0.95,262.48,2.4,-71.0,0.5,1.75,1.25,1.0,0.5,0.5,0.0,3.75,1.25,7.25,7.25,4.5,4.0,0.02,0.08,0.95,462.11,0.2,-53.8
2.76,0.0,0.0,1.0,0.5,0.0,0.0,0.0,0.5,0.75,3.5,4.5,3.0,2.5,-0.17,0.08,0.95,263.74,1.9,-71.4,0.75,1.75,1.5,0.5,0.5,0.75,0.0,4.0,1.25,7.0,7.5,4.5,4.25,0.02,0.08,0.95,486.19,0.1,-53.3
2.78,0.0,0.0,1.25,0.5,0.0,0.0,0.25,0.0,0.75,3.5,0.0,3.0,2.25,-0.17,0.08,0.95,241.79,0.9,-66.5,0.5,1.75,1.0,1.0,0.5,0.5,0.0,4.0,1.0,7.0,7.25,4.5,4.25,0.02,0.08,0.95,495.8,0.7,-55.0
2.8,0.0,0.0,0.75,0.5,0.0,0.0,0.25,0.0,0.75,3.5,0.0,3.0,1.75,-0.17,0.08,0.95,214.83,-0.1,-70.6,0.5,1.75,1.5,1.0,0.0,0.75,0.0,4.0,1.0,7.0,7.5,4.5,4.75,0.02,0.08,0.95,503.41,0.4,-55.4
2.82,0.0,0.0,0.25,0.5,0.0,0.0,0.25,0.0,0.75,0.0,0.0,0.75,2.0,-0.17,0.08,0.95,157.47,2.2,-64.6,0.5,1.75,1.25,1.0,0.5,0.75,0.0,4.0,1.25,7.0,7.5,4.75,4.75,0.02,0.08,0.95,510.74,0.5,-54.7
2.84,0.0,0.0,0.5,0.5,0.0,0.0,0.5,0.0,0.5,2.5,0.0,2.0,1.5,-0.17,0.08,0.95,128.49,0.0,-67.6,0.5,1.75,1.25,0.75,0.5,1.0,0.0,4.0,1.25,7.0,7.75,4.75,4.75,0.02,0.08,0.95,519.09,0.7,-55.1
2.86,0.0,0.0,0.0,0.5,0.0,0.0,0.5,0.0,0.0,1.75,0.0,2.0,1.5,-0.17,0.08,0.95,94.74,-2.3,-79.9,0.75,1.75,1.0,1.0,0.5,1.0,0.0,4.25,1.25,7.5,7.75,4.75,4.75,0.02,0.08,0.95,533.36,1.0,-54.3
2.88,0.0,0.0,0.0,0.5,0.0,0.0,0.5,0.0,0.0,1.75,2.75,1.0,0.25,-0.17,0.08,0.95,84.84,3.6,-67.4,0.5,1.75,1.0,1.25,0.5,1.0,0.0,4.5,1.25,7.5,7.75,4.5,4.75,0.08,0.08,0.95,538.57,1.2,-54.0
2.9,0.0,0.0,0.0,0.75,0.0,0.0,0.0,0.0,0.0,1.25,1.75,0.75,0.0,-0.17,0.08,0.95,66.02,4.2,-57.8,0.5,1.75,1.0,1.0,1.25,1.0,0.0,5.25,1.25,7.5,7.75,4.5,4.75,0.08,0.08,0.95,544.55,1.7,-52.0
2.92,0.0,0.0,0.0,0.25,0.0,0.0,0.5,0.0,0.25,0.75,0.75,0.0,0.0,-0.11,0.08,0.95,42.68,5.0,-44.6,0.5,1.75,1.0,1.25,1.75,1.5,0.0,5.25,1.25,7.75,7.75,4.5,4.75,0.08,0.08,0.95,553.17,2.0,-48.8
2.94,0.0,0.0,0.25,0.75,0.0,0.0,1.0,0.0,0.25,0.25,0.25,0.0,0.0,-0.17,0.08,0.95,18.2,17.9,12.2,1.0,1.75,1.5,0.75,1.0,2.0,0.25,5.25,1.25,7.75,7.5,4.5,4.75,0.08,0.08,0.95,555.86,1.5,-47.9
2.96,0.0,0.0,0.25,1.0,0.0,0.0,1.25,0.0,0.0,0.0,0.25,0.0,0.0,-0.17,0.08,1.02,4.44,23.2,34.7,0.5,1.75,0.5,1.75,1.0,2.0,0.25,5.5,1.25,7.75,7.5,4.5,4.75,0.08,0.08,0.95,561.13,2.5,-49.6
2.98,0.0,0.0,0.5,0.5,0.0,0.0,1.0,0.0,0.0,0.25,0.0,0.0,0.0,-0.23,0.14,1.14,0.0,22.8,31.6,0.5,1.75,1.5,1.75,1.75,2.25,0.25,6.0,1.25,7.75,7.5,4.25,4.75,0.08,0.08,0.95,573.15,1.9,-43.7
3.0,0.0,0.0,1.25,0.25,0.0,0.0,1.0,0.0,0.0,0.0,0.0,0.0,0.0,-0.36,0.27,1.27,2.56,34.1,52.6,0.75,1.75,1.75,1.75,2.5,2.5,0.5,6.25,1.25,7.5,7.25,4.0,4.75,0.08,0.08,0.95,587.16,1.6,-38.9
3.02,0.0,0.0,0.75,0.25,0.0,0.0,0.5,0.0,0.0,0.0,0.25,0.0,0.0,-0.23,0.08,1.52,7.87,29.3,33.3,0.75,1.75,1.75,1.75,2.75,4.0,0.5,6.25,1.0,7.5,7.25,3.75,4.75,0.08,0.08,0.95,603.85,2.5,-35.5
3.04,0.0,0.0,0.0,0.0,0.0,0.0,0.0,0.0,0.0,0.0,0.0,0.0,0.0,-0.23,-0.05,1.2,0.85,0.0,0.0,0.75,1.75,1.75,1.75,2.25,4.25,0.5,7.0,1.0,7.75,7.0,3.75,4.75,0.08,0.08,0.95,617.39,3.0,-36.4
3.06,0.0,0.0,0.0,0.0,0.0,0.0,0.0,0.0,0.0,0.0,0.0,0.0,0.0,-0.92,-0.67,0.64,0.0,0.0,0.0,0.75,1.75,2.0,2.0,3.0,4.5,0.5,7.0,1.25,7.75,7.25,3.5,4.75,0.08,0.08,0.95,635.49,2.6,-33.1
3.08,0.0,0.0,0.0,0.25,0.0,0.0,0.0,0.0,0.0,0.0,0.0,0.0,0.0,-1.05,-0.73,0.77,0.0,17.2,57.9,1.0,1.75,1.0,2.0,3.5,4.5,0.5,7.0,1.25,8.0,7.25,3.75,4.75,0.08,0.08,0.95,649.86,3.4,-34.0
3.1,0.0,0.0,0.0,0.5,0.0,0.0,0.0,0.0,0.0,0.25,0.0,0.0,0.0,-0.61,-0.92,0.7,0.0,6.5,14.7,0.75,1.75,1.5,2.0,3.75,4.75,0.5,7.5,1.25,7.75,7.25,3.75,4.75,0.08,0.08,0.95,665.27,3.3,-32.6
3.12,0.0,0.0,0.5,0.5,0.0,0.0,0.0,0.0,0.0,0.0,0.0,0.0,0.0,-0.3,-0.98,0.89,0.0,27.6,59.4,0.75,2.0,1.25,2.0,3.25,5.0,0.5,7.5,1.25,7.5,7.0,3.5,4.75,0.08,0.08,0.95,668.13,3.6,-32.3
3.14,0.0,0.0,0.5,0.5,0.0,0.0,0.25,0.0,0.0,0.25,0.0,0.0,0.0,-0.17,-0.98,0.95,9.48,20.3,32.7,0.75,2.0,1.25,2.0,4.5,5.5,0.5,7.5,1.25,7.5,6.75,3.5,4.25,0.08,0.08,0.95,669.88,3.7,-27.9
3.16,0.0,0.0,0.0,0.5,0.0,0.0,0.0,0.0,0.0,0.0,0.0,0.0,0.0,-0.11,-0.86,1.02,11.79,17.2,57.9,1.0,1.75,1.25,2.0,4.25,5.5,0.5,7.5,1.25,7.5,6.75,3.5,4.25,0.08,0.08,0.95,666.18,3.6,-28.5
3.18,0.0,0.0,0.0,0.25,0.0,0.0,0.0,0.0,0.0,0.0,0.0,0.0,0.0,-0.11,-0.73,1.08,8.76,17.2,57.9,0.75,1.75,1.75,2.0,4.25,5.75,0.5,7.5,1.25,7.25,6.75,3.5,4.0,0.08,0.08,0.95,663.34,3.3,-27.1
3.2,0.0,0.0,0.0,0.5,0.0,0.0,0.0,0.0,0.0,0.0,0.0,0.0,0.0,-0.17,-0.55,1.2,6.67,17.2,57.9,0.75,2.5,0.5,2.0,4.5,6.0,0.5,7.5,1.25,7.0,6.5,3.5,4.0,0.08,0.08,0.95,656.05,4.3,-26.2
3.22,0.0,0.0,0.0,0.25,0.0,0.0,0.0,0.0,0.0,0.5,0.0,0.0,0.0,-0.23,-0.42,1.39,7.18,-4.3,-29.6,1.0,2.25,2.0,2.0,5.25,6.0,0.75,7.5,1.25,7.0,6.0,3.5,4.0,0.08,0.08,0.95,664.02,2.9,-21.4
3.24,0.0,0.0,0.0,0.5,0.0,0.0,0.25,0.0,0.0,0.0,0.0,0.0,0.0,-0.23,-0.23,1.39,8.51,20.0,52.2,1.0,2.5,2.0,2.5,5.5,6.5,1.25,7.5,1.25,6.75,6.0,3.0,3.25,0.08,0.08,0.95,676.67,2.5,-16.1
3.26,0.0,0.0,0.5,0.5,0.0,0.0,0.0,0.0,0.0,0.0,0.0,0.0,0.0,-0.23,0.02,1.39,13.52,27.6,59.4,1.25,2.5,2.75,3.75,6.5,7.0,2.25,7.25,1.25,6.0,5.5,2.5,3.0,0.08,0.08,0.95,708.27,1.0,-7.2
3.28,0.0,0.0,0.75,0.5,0.0,0.0,0.0,0.0,0.0,0.0,0.0,0.0,0.0,-0.23,0.27,1.45,18.98,29.7,59.7,2.25,2.5,4.25,4.5,7.0,7.25,3.75,7.0,1.25,5.25,5.0,2.25,2.25,0.08,0.14,0.95,754.35,-1.5,2.5
3.3,0.0,0.0,0.0,0.25,0.0,0.0,0.0,0.0,0.0,0.25,0.0,0.0,0.0,-0.11,0.45,1.27,16.71,1.1,-7.2,3.25,2.5,5.25,6.75,8.0,7.75,5.75,6.25,0.75,3.0,3.25,1.0,1.25,0.08,0.14,0.95,801.19,-4.5,21.3
3.32,0.0,0.0,0.5,0.5,0.0,0.0,0.0,0.0,0.0,0.0,0.0,0.0,0.0,-0.05,0.58,1.2,17.09,27.6,59.4,3.75,2.5,7.25,7.75,8.0,7.25,7.5,4.75,0.25,1.0,1.75,0.5,0.25,0.02,0.08,1.08,822.96,-8.7,37.5
3.34,0.0,0.0,0.75,0.0,0.0,0.0,0.25,0.0,0.0,0.0,0.0,0.0,0.0,0.02,0.64,1.2,15.81,37.5,56.4,4.5,2.25,8.0,8.25,8.25,7.0,7.5,4.0,0.0,0.5,1.5,0.5,0.25,0.02,0.14,1.14,834.08,-10.3,41.9
3.36,0.0,0.0,0.75,0.25,0.0,0.0,0.0,0.0,0.0,0.5,0.0,0.0,0.0,0.2,0.83,1.02,19.52,17.0,15.9,5.25,2.25,8.75,8.5,8.25,6.0,8.0,2.75,0.0,0.0,0.75,0.25,0.25,0.02,0.2,1.08,826.49,-12.9,49.1
3.38,0.0,0.0,0.5,0.25,0.0,0.0,0.0,0.0,0.0,0.25,0.0,0.0,0.0,0.27,1.14,0.64,19.84,19.7,26.9,6.25,2.5,9.25,8.75,8.25,5.0,8.0,2.5,0.0,0.0,0.75,0.25,0.25,0.02,0.2,1.08,823.24,-14.4,51.2
3.4,0.0,0.0,0.0,0.25,0.0,0.0,0.0,0.0,0.0,0.0,0.0,0.0,0.0,0.08,1.45,0.52,16.93,17.2,57.9,6.5,0.75,9.25,8.25,7.75,2.25,7.5,1.5,0.0,0.0,0.75,0.25,0.25,0.02,0.27,1.27,772.42,-17.7,52.6
3.42,0.0,0.0,0.0,0.25,0.0,0.0,0.0,0.0,0.0,0.0,0.0,0.0,0.0,0.33,1.52,0.39,11.46,17.2,57.9,6.75,1.75,9.5,7.75,6.25,0.0,7.5,1.0,0.0,0.0,0.25,0.0,0.25,0.08,0.33,1.39,702.62,-21.7,59.0
3.44,0.0,0.0,0.0,0.5,0.0,0.0,0.0,0.0,0.0,0.0,0.0,0.0,0.0,0.52,1.83,-1.73,8.09,17.2,57.9,7.0,1.75,8.75,5.75,4.75,0.0,7.25,1.0,0.0,0.0,0.25,0.25,0.0,0.2,0.39,1.64,605.43,-23.1,59.7
3.46,0.0,0.0,0.0,0.5,0.0,0.0,0.0,0.0,0.0,1.0,0.0,0.25,0.0,-0.23,-0.48,0.58,13.54,-2.5,-40.8,6.5,1.75,7.75,3.5,2.25,0.0,6.5,0.75,0.0,0.0,0.25,0.0,0.0,0.2,0.64,2.02,484.19,-26.1,62.8
3.48,0.0,0.0,0.0,0.5,0.0,0.0,0.0,0.0,0.0,1.75,0.25,1.0,0.5,-0.61,0.2,1.58,34.16,-3.4,-71.0,5.5,1.0,5.75,2.0,0.25,0.0,5.5,0.75,0.0,0.0,0.0,0.0,0.0,0.33,0.83,2.14,353.19,-29.5,64.1
3.5,0.0,0.0,0.25,0.25,0.0,0.0,0.0,0.0,0.0,2.25,2.75,1.75,1.75,-0.3,0.33,1.77,82.54,-0.1,-81.2,3.5,0.75,4.5,1.25,0.0,0.0,3.75,1.0,0.0,0.0,0.0,0.0,0.0,0.2,0.7,2.08,250.2,-28.5,59.8
3.52,0.0,0.0,0.0,0.5,0.0,0.0,0.25,0.0,0.0,4.0,3.75,1.0,2.5,-0.17,0.27,1.52,137.68,-3.1,-78.9,0.25,0.0,2.75,0.0,0.0,0.0,1.5,0.5,0.0,0.0,0.0,0.0,0.0,0.27,0.39,2.08,128.91,-30.7,45.7
3.54,0.0,0.0,0.0,0.0,0.0,0.0,0.0,0.0,0.75,1.25,0.25,0.0,0.0,-0.11,0.14,0.95,130.07,-3.5,-63.2,1.75,0.0,2.0,1.25,0.0,0.5,0.0,0.0,0.0,1.0,0.0,0.5,0.0,0.52,-0.42,1.52,43.74,-19.5,35.4
3.56,0.0,0.0,0.0,0.5,0.0,0.0,2.5,1.25,0.0,5.0,4.5,1.75,2.5,-0.17,0.14,0.95,182.07,-1.4,-70.0,1.25,0.0,2.75,0.0,0.5,0.0,0.5,0.0,0.0,1.0,1.75,0.75,0.5,0.83,-0.42,1.14,0.0,-17.9,-1.9
3.58,0.0,0.5,0.0,0.5,0.0,0.0,0.0,1.5,0.0,6.0,4.5,3.0,3.5,-0.17,0.08,0.95,230.1,-4.0,-76.0,1.25,0.75,2.75,0.5,0.5,0.0,0.5,0.0,0.0,1.25,1.5,0.25,0.25,0.77,-1.11,1.33,0.18,-18.0,18.4
3.6,0.0,0.0,0.0,0.25,0.0,0.0,0.0,2.25,0.0,5.5,5.0,2.0,3.5,-0.11,0.08,0.95,275.11,-5.3,-79.5,0.0,0.75,1.25,0.0,0.0,0.0,0.0,0.0,0.0,0.0,0.0,0.0,0.0,0.27,-0.55,1.14,0.0,-28.6,75.2
3.62,0.0,0.0,0.0,0.5,0.0,0.0,0.5,2.25,0.25,5.75,5.5,2.0,4.75,-0.11,0.08,0.95,311.04,-4.7,-77.8,0.0,0.75,0.5,0.0,0.0,0.0,0.0,0.0,0.0,0.0,0.0,0.0,0.0,0.2,-0.42,0.52,0.0,-22.8,83.7
3.64,0.0,0.0,0.0,0.5,0.0,0.0,0.25,3.0,0.75,6.5,5.75,3.0,4.75,-0.11,0.08,0.95,356.45,-4.5,-77.6,0.0,0.75,0.5,0.0,0.25,0.0,0.0,0.0,0.0,0.0,0.25,0.0,0.0,0.33,-0.3,0.39,0.0,-17.0,57.7
3.66,0.0,0.0,0.0,0.5,0.0,0.0,0.25,3.75,0.75,6.5,5.75,3.0,4.75,-0.11,0.08,0.95,383.93,-4.9,-76.4,0.0,0.75,1.0,0.0,0.0,0.0,0.0,0.0,0.0,0.0,0.0,0.0,0.0,0.33,-0.3,0.52,0.0,-27.2,77.2
3.68,0.0,0.0,0.0,0.5,0.0,0.0,0.0,4.0,0.5,6.25,5.75,3.0,4.75,-0.11,0.08,0.95,398.17,-5.2,-76.9,0.0,0.75,0.5,0.0,0.0,0.0,0.0,0.0,0.0,0.0,0.0,0.0,0.0,0.2,-0.3,0.77,0.0,-22.8,83.7
3.7,0.0,0.0,0.0,0.5,0.0,0.0,0.25,4.5,0.0,6.25,5.5,2.25,4.75,-0.17,0.08,0.95,400.4,-6.3,-75.4,0.0,0.75,1.0,0.0,0.0,0.0,0.0,0.0,0.0,0.0,0.0,0.0,0.0,0.14,-0.11,0.89,0.0,-27.2,77.2
3.72,0.0,0.0,0.0,0.5,0.0,0.25,0.25,4.75,0.0,6.0,4.0,2.25,2.75,-0.17,0.08,0.95,374.45,-6.9,-70.2,0.0,0.75,0.5,0.0,0.0,0.0,0.0,0.0,0.0,0.0,0.0,0.0,0.0,0.14,0.02,0.89,0.0,-22.8,83.7
3.74,0.0,0.0,0.0,0.5,0.0,1.25,0.25,4.25,0.25,6.0,4.5,2.0,3.5,-0.11,0.08,0.95,353.71,-7.2,-67.2,0.0,0.75,0.5,0.0,0.0,0.0,0.0,0.0,0.0,0.0,0.0,0.0,0.0,0.08,0.08,0.95,2.46,-22.8,83.7
3.76,0.0,0.25,0.0,0.75,0.0,1.75,0.25,5.0,0.0,5.0,4.0,2.0,3.0,-0.11,0.08,0.95,333.88,-7.4,-59.3,0.0,0.75,0.5,0.0,0.0,0.0,0.0,0.0,0.0,0.0,0.0,0.0,0.0,0.14,0.2,1.27,8.39,-22.8,83.7
3.78,0.0,0.25,0.0,1.0,0.0,2.5,0.0,5.0,0.0,5.0,3.0,1.75,2.5,-0.11,0.08,0.95,317.49,-8.7,-52.5,0.0,0.75,0.0,0.0,0.0,0.0,0.0,0.0,0.0,0.0,0.0,0.0,0.0,0.14,0.33,1.58,3.94,-12.6,98.9
3.8,0.0,0.5,0.0,0.75,0.0,3.0,0.0,5.0,0.25,4.0,3.0,1.25,2.25,-0.11,0.14,0.95,288.65,-8.9,-46.5,0.0,0.75,1.25,0.0,0.0,0.0,0.0,0.0,0.0,0.0,0.0,0.0,0.0,0.14,0.33,1.7,11.24,-28.6,75.2
3.82,0.0,1.0,0.0,1.75,0.75,3.75,0.25,5.25,0.25,3.75,2.75,0.75,1.75,-0.11,0.14,0.95,278.79,-7.7,-27.3,0.0,0.75,0.0,0.0,0.0,0.0,0.0,0.0,0.0,0.0,0.0,0.0,0.0,0.2,0.52,1.89,13.26,-12.6,98.9
3.84,0.0,1.0,0.0,2.5,1.25,4.5,0.25,5.5,0.5,3.5,2.5,0.75,1.25,-0.11,0.14,0.95,278.75,-7.1,-18.0,0.0,0.75,0.5,0.0,0.0,0.0,0.0,0.0,0.0,0.0,0.0,0.0,0.0,0.27,0.77,2.2,22.02,-22.8,83.7
3.86,0.0,1.0,0.0,2.5,1.5,4.5,0.5,5.25,0.5,2.75,2.25,0.5,1.0,-0.11,0.14,0.95,276.99,-6.7,-11.9,0.0,0.75,0.25,0.0,0.0,0.0,0.0,0.0,0.0,0.0,0.0,0.0,0.0,0.14,1.27,2.14,19.77,-19.0,89.4
3.88,0.0,1.0,0.0,2.5,2.25,5.0,0.5,5.5,0.5,3.0,2.0,0.75,1.0,-0.11,0.14,0.95,284.96,-7.1,-10.0,0.0,0.75,0.0,0.0,0.0,0.0,0.0,0.0,0.0,0.0,0.0,0.0,0.0,0.02,1.64,2.02,17.46,-12.6,98.9
3.9,0.0,1.0,0.0,2.5,3.25,5.0,0.5,5.25,0.75,2.0,2.0,0.75,1.0,-0.11,0.14,0.95,293.69,-6.3,-4.2,0.0,0.75,0.0,0.0,0.0,0.0,0.0,0.0,0.0,0.0,0.0,0.0,0.0,-0.23,1.83,1.45,14.6,-12.6,98.9
3.92,0.25,1.0,0.0,3.25,4.25,5.25,1.0,5.0,0.75,1.75,2.0,0.75,1.0,-0.11,0.14,0.95,314.13,-4.7,2.7,0.0,0.75,0.0,0.0,0.0,0.0,0.0,0.0,0.0,0.0,0.0,0.0,0.0,-0.48,1.95,0.89,13.69,-12.6,98.9
3.94,0.75,1.25,0.0,4.25,5.0,5.75,1.25,5.0,0.5,1.75,1.5,0.75,1.0,-0.11,0.14,0.95,345.12,-3.6,10.9,0.0,0.75,0.0,0.0,0.0,0.0,0.0,0.0,0.0,0.0,0.0,0.0,0.0,-1.05,2.52,0.27,12.75,-12.6,98.9
3.96,1.25,1.25,0.0,4.5,5.5,5.75,1.75,4.5,0.5,1.75,1.25,0.5,0.5,-0.11,0.14,0.95,374.84,-2.3,18.6,0.0,0.75,0.25,0.0,0.0,0.0,0.0,0.0,0.0,0.0,0.0,0.0,0.0,-1.3,2.64,0.14,14.37,-19.0,89.4
3.98,1.75,1.25,0.0,6.25,6.0,6.0,2.0,4.25,0.5,1.75,1.25,0.5,0.5,-0.11,0.14,0.95,410.45,-0.5,23.2,0.0,0.75,0.5,0.0,0.0,0.0,0.0,0.0,0.0,0.0,0.0,0.0,0.0,-1.11,3.52,-0.48,17.58,-22.8,83.7
4.0,3.0,1.25,4.0,7.0,6.25,6.25,2.75,4.0,0.25,1.25,1.25,0.0,0.25,-0.11,0.14,1.02,476.65,5.6,35.8,0.0,0.5,0.5,0.0,0.0,0.0,0.0,0.0,0.0,0.0,0.0,0.5,0.0,0.2,-0.11,0.95,21.05,-20.0,18.2
4.02,3.5,1.75,4.5,7.75,7.0,6.5,3.25,3.25,0.0,0.75,0.0,0.0,0.25,-0.11,0.2,1.02,542.56,7.0,45.5,0.0,0.75,0.5,0.0,0.0,0.0,0.0,0.0,0.0,2.5,1.75,1.75,1.0,0.77,0.2,1.27,62.46,-1.1,-62.1
4.04,4.5,1.5,0.0,8.0,6.75,6.25,3.5,2.25,0.0,0.25,0.0,0.0,0.0,-0.11,0.2,1.02,555.28,5.0,50.2,0.0,0.25,0.75,0.0,0.0,0.0,0.0,0.75,0.0,5.75,3.0,2.75,2.5,-0.48,0.39,2.39,139.68,3.1,-75.7
4.06,0.0,1.75,6.75,8.75,0.0,6.0,4.0,2.25,0.0,0.25,0.0,0.0,0.0,-0.17,0.2,1.02,519.61,12.0,45.4,0.0,0.0,0.0,0.0,0.0,0.0,0.0,1.5,0.0,5.75,4.75,2.0,2.0,0.45,0.52,2.58,206.16,4.8,-80.7
4.08,5.5,1.25,6.0,0.0,0.0,0.0,4.25,1.75,0.0,0.0,0.0,0.0,0.0,-0.17,0.2,1.02,404.91,28.6,60.7,0.0,0.0,0.25,0.0,0.0,0.0,0.0,2.5,0.5,5.75,5.0,2.0,2.0,-0.11,0.14,1.02,257.23,4.1,-75.1
4.1,0.0,2.0,6.5,8.25,0.0,4.5,4.25,0.75,0.0,0.0,0.0,0.0,0.0,-0.17,0.27,1.14,361.23,15.8,52.5,0.0,1.0,0.0,0.0,0.0,0.0,0.0,2.75,0.5,6.25,5.5,2.25,1.75,0.08,0.14,0.95,290.77,3.6,-67.4
4.12,6.0,1.0,0.0,8.75,0.0,0.0,4.25,0.5,0.0,0.0,0.0,0.0,0.0,-0.23,0.27,1.27,302.57,23.1,66.4,0.5,0.75,0.5,0.0,0.0,0.0,0.25,3.0,0.75,7.0,6.75,2.75,3.75,0.08,0.14,0.95,340.55,2.3,-67.3
4.14,0.0,1.25,7.25,7.75,0.0,0.0,4.25,0.5,0.0,0.0,0.5,0.0,0.0,-0.23,0.33,1.52,286.94,25.3,52.9,0.5,0.0,0.5,0.0,0.0,0.75,0.5,4.0,0.25,7.5,7.25,3.5,3.0,0.08,0.14,0.95,385.74,3.2,-68.7
4.16,7.0,0.75,7.0,4.5,0.0,0.0,3.5,0.0,0.0,0.0,0.25,0.0,0.0,-0.36,0.45,1.95,277.36,30.8,68.8,0.75,0.0,0.75,0.0,0.5,1.5,0.5,4.25,1.0,7.5,7.75,3.5,3.25,0.08,0.08,0.95,444.82,2.7,-61.2
4.18,7.25,0.0,5.75,2.5,0.0,0.0,2.75,0.0,0.0,0.0,0.25,0.0,0.0,-0.42,0.7,2.33,261.63,32.8,70.7,0.75,0.75,1.5,0.5,1.0,2.0,0.5,5.25,1.0,7.75,8.25,3.5,3.5,0.08,0.08,0.95,509.59,1.8,-50.3
4.2,5.75,0.0,4.25,2.5,0.0,0.0,1.75,0.0,0.0,0.0,0.5,0.0,0.0,-0.55,0.77,2.52,229.41,31.6,67.9,1.0,1.0,1.5,0.75,0.5,2.25,0.25,5.25,0.75,7.5,8.0,3.5,3.5,0.08,0.08,0.95,550.73,1.6,-48.5
4.22,3.5,0.0,2.5,0.0,0.0,0.0,0.5,0.0,0.0,0.0,0.25,0.0,0.0,-0.48,0.39,2.45,162.87,35.3,73.5,0.75,0.75,1.75,1.25,0.5,2.25,1.0,5.25,0.75,7.5,7.5,3.5,3.5,0.08,0.08,0.95,570.14,1.2,-47.1
4.24,0.0,0.0,0.75,0.0,0.0,0.0,0.0,0.0,0.0,0.0,0.0,0.0,0.0,-0.67,-0.61,1.89,74.01,38.2,60.9,0.75,1.25,2.75,1.5,0.5,3.75,1.75,6.25,1.0,7.0,7.25,2.75,3.0,0.08,0.08,0.95,578.77,0.6,-34.9
4.26,0.0,0.0,0.0,0.0,0.0,0.0,0.0,0.0,0.0,0.0,0.0,0.0,0.0,-0.23,-0.8,0.95,0.0,0.0,0.0,1.0,1.5,2.25,2.0,1.75,4.5,1.5,6.0,1.0,6.25,6.75,2.5,2.25,0.14,0.08,0.95,570.89,0.7,-25.5
4.28,0.0,0.0,0.0,0.0,0.0,0.0,0.0,0.0,0.0,0.0,0.0,0.0,0.0,-0.67,-1.23,1.52,0.0,0.0,0.0,0.75,1.5,1.75,2.0,4.25,5.25,1.5,6.0,1.0,5.5,5.5,2.0,1.75,0.14,0.08,0.95,564.01,2.1,-15.6
4.3,0.0,0.0,0.0,0.0,0.0,0.0,0.0,0.0,0.0,0.0,0.0,0.0,0.0,-0.11,-0.98,1.64,0.0,0.0,0.0,1.0,1.5,2.5,2.0,4.5,6.0,1.75,6.0,1.0,4.5,4.25,1.5,1.25,0.14,0.14,0.95,557.6,1.4,-5.6
4.32,0.0,0.0,0.0,0.0,0.0,0.0,0.0,0.0,0.0,0.0,0.0,0.0,0.0,-0.11,-0.48,0.95,0.0,0.0,0.0,2.0,2.5,3.25,4.0,5.0,6.5,1.75,5.75,0.5,3.0,4.0,0.75,1.5,0.14,0.14,0.95,572.1,-1.3,10.3
4.34,0.0,0.0,0.0,0.0,0.0,0.0,0.0,0.0,0.0,0.0,0.0,0.0,0.0,-0.42,-0.3,0.45,0.0,0.0,0.0,1.0,1.75,2.5,2.75,4.75,7.0,1.5,5.5,0.0,1.5,2.25,0.5,0.5,0.14,0.14,0.95,528.0,1.2,17.0
4.36,0.0,0.0,0.0,0.0,0.0,0.0,0.0,0.0,0.0,0.0,0.0,0.0,0.0,-0.48,-0.17,0.52,0.0,0.0,0.0,1.0,1.75,2.75,3.25,6.0,7.25,1.25,5.5,0.0,1.5,2.0,0.5,0.25,0.14,0.14,0.95,500.2,0.9,21.3
4.38,0.0,0.0,0.0,0.0,0.0,0.0,0.0,0.0,0.0,0.0,0.0,0.0,0.0,-0.3,-0.11,0.7,0.0,0.0,0.0,1.0,1.75,2.5,3.25,6.5,7.75,1.5,5.25,0.0,1.25,1.75,0.25,0.25,0.14,0.14,0.95,471.15,1.4,24.7
4.4,0.0,0.0,1.5,0.5,0.0,0.0,0.0,0.0,0.0,0.0,0.75,0.0,0.0,-0.11,-0.11,1.08,0.0,27.1,24.9,1.0,1.75,2.75,4.0,7.0,8.0,1.25,5.5,0.0,1.0,1.25,0.25,0.25,0.14,0.14,0.95,467.36,1.1,27.9
4.42,0.0,0.0,1.25,0.5,0.0,0.0,0.0,0.0,0.0,0.0,0.5,0.0,0.0,-0.17,0.08,1.27,0.0,27.6,31.5,0.75,1.75,2.25,4.5,7.75,8.5,1.25,5.25,0.0,0.5,0.75,0.25,0.25,0.08,0.14,0.95,466.51,1.9,31.6
4.44,0.0,0.0,2.0,0.5,0.0,0.0,0.0,0.0,0.0,0.0,0.5,0.0,0.0,-0.3,0.33,1.2,24.15,30.3,38.9,1.0,1.75,2.5,4.5,8.25,8.75,1.0,5.25,0.0,0.0,0.75,0.0,0.25,0.08,0.14,0.95,480.77,1.5,35.2
4.46,0.0,0.0,2.0,0.5,0.0,0.0,0.0,0.0,0.0,0.0,0.5,0.0,0.0,-0.3,0.52,1.33,46.12,30.3,38.9,1.5,2.0,2.75,5.5,8.5,9.0,1.5,5.25,0.0,0.0,0.5,0.75,1.0,0.14,0.14,0.95,511.77,0.2,32.3
4.48,0.0,0.0,1.25,0.5,0.0,0.0,0.0,0.0,0.0,0.0,0.5,0.0,0.0,-0.3,0.58,1.52,54.12,27.6,31.5,1.0,2.0,2.75,6.25,9.25,9.5,1.5,5.0,0.0,0.0,0.75,0.0,0.25,0.08,0.14,0.95,540.56,0.4,37.9
4.5,0.0,0.0,0.75,0.75,0.0,0.0,0.0,0.0,0.0,0.0,0.5,0.0,0.0,-0.36,0.7,2.02,50.54,23.6,27.4,2.0,2.25,3.5,7.0,9.5,9.5,1.5,4.25,0.0,0.0,0.75,0.0,0.0,0.08,0.14,0.95,583.43,-1.8,42.9
4.52,0.0,0.0,1.25,0.5,0.0,0.0,0.0,0.0,0.0,0.0,0.5,0.0,0.0,-0.73,0.83,2.64,47.69,27.6,31.5,2.25,2.5,5.0,8.25,10.0,9.75,1.75,4.0,0.0,0.0,0.5,0.0,0.5,0.08,0.2,0.95,642.75,-3.5,43.9
4.54,0.0,0.0,0.0,0.25,0.0,0.0,0.0,0.0,0.0,0.0,0.0,0.0,0.0,-0.8,1.08,2.7,34.19,17.2,57.9,3.75,2.5,5.5,8.5,11.0,9.5,2.0,3.25,0.0,0.0,0.0,0.25,0.0,0.08,0.2,0.95,708.53,-5.4,49.5
4.56,0.0,0.0,1.5,0.5,0.0,0.0,0.0,0.0,0.0,0.0,0.5,0.0,0.0,-0.55,1.83,1.89,35.33,28.7,34.4,5.0,3.25,6.75,11.5,11.0,10.0,3.25,2.5,0.5,1.5,0.25,0.75,0.0,0.08,0.27,1.02,826.43,-7.4,46.7
4.58,0.0,0.0,1.25,0.25,0.0,0.0,0.0,0.0,0.0,0.0,0.75,0.0,0.0,0.14,2.08,1.64,34.75,27.0,17.0,5.5,2.5,7.0,10.5,12.5,8.25,4.0,1.75,0.0,0.0,0.25,0.0,0.0,0.08,0.27,1.02,903.76,-9.3,54.5
4.6,0.0,0.0,1.75,0.5,0.0,0.0,0.0,0.0,0.0,0.0,0.5,0.0,0.0,0.64,2.39,1.45,41.24,29.6,36.9,7.0,3.0,7.75,12.0,12.5,8.75,4.75,2.0,0.25,1.25,1.25,0.5,0.0,0.02,0.33,1.08,1012.47,-9.8,48.8
4.62,0.0,0.0,1.5,0.5,0.0,0.0,0.0,0.0,0.0,0.0,0.5,0.0,0.0,0.64,2.83,0.33,42.07,28.7,34.4,7.5,3.5,8.25,12.0,11.5,7.75,4.75,1.75,0.0,1.25,1.5,0.75,0.5,0.08,0.33,1.2,1078.0,-10.9,48.1
4.64,0.0,0.0,1.75,0.5,0.0,0.0,0.0,0.0,0.0,0.0,0.5,0.0,0.0,0.64,3.08,-0.05,44.56,29.6,36.9,6.75,2.5,7.25,8.5,9.25,6.5,4.75,0.25,0.0,0.0,0.75,0.0,0.0,0.14,0.45,1.39,1013.56,-13.0,57.8
4.66,0.0,0.0,0.75,0.5,0.0,0.0,0.0,0.0,0.0,0.0,0.5,0.0,0.0,0.77,2.52,0.27,39.85,24.6,22.9,7.0,2.5,5.25,6.25,7.5,5.25,3.5,0.0,0.0,0.0,0.0,0.0,0.0,0.14,0.58,1.77,854.75,-13.5,62.7
4.68,0.0,0.0,1.25,0.5,0.0,0.0,0.0,0.0,0.0,0.0,1.25,0.25,0.0,0.33,-1.92,2.45,42.97,22.5,-3.0,6.75,2.0,4.0,4.5,6.0,4.25,2.5,0.0,0.0,0.0,0.0,0.0,0.0,0.2,0.95,2.27,658.65,-13.9,64.2
4.7,0.0,0.0,1.75,0.5,0.0,0.0,0.0,0.0,0.0,1.0,0.75,1.25,0.0,-0.3,0.14,1.2,56.37,15.3,-23.9,5.0,1.5,2.75,2.0,4.5,2.25,1.0,0.0,0.0,0.0,0.0,0.0,0.0,0.27,0.83,2.2,447.69,-14.6,66.9
4.72,0.0,0.0,0.5,0.5,0.0,0.0,0.0,0.0,0.0,1.75,2.75,3.0,2.5,-0.05,0.27,1.64,106.8,1.9,-80.1,2.25,1.0,1.5,1.5,1.0,0.0,0.0,0.0,0.0,0.0,0.0,0.0,0.0,0.52,0.77,2.2,269.05,-22.8,74.9
4.74,0.0,0.0,0.75,0.5,0.0,0.0,0.0,0.0,0.0,4.75,3.0,3.0,3.0,0.08,0.33,1.95,168.47,-1.3,-77.7,1.0,0.0,0.75,0.0,0.5,0.0,0.0,0.0,0.0,0.0,0.0,0.0,0.0,0.58,0.02,2.08,118.55,-26.4,74.1
4.76,0.0,0.0,1.25,0.5,0.0,0.0,0.0,0.0,0.0,0.0,4.75,2.75,4.25,-0.48,0.27,1.52,209.81,5.3,-75.4,2.0,1.5,2.75,2.0,2.75,0.0,0.0,1.75,0.0,1.0,0.75,0.5,0.0,0.27,-0.42,0.83,60.03,-11.9,35.3
4.78,0.0,0.0,0.0,0.25,0.0,0.0,0.0,0.0,1.5,5.75,0.0,2.5,0.25,-0.17,0.2,1.39,218.12,-4.8,-75.9,1.75,1.5,2.75,2.0,2.5,0.0,0.0,0.75,0.0,1.25,1.5,0.75,0.25,0.52,-1.11,1.27,47.46,-12.8,27.0
4.8,0.0,0.0,0.0,0.25,0.0,0.0,0.0,0.5,1.0,5.75,5.25,2.0,3.5,-0.17,0.08,0.95,246.74,-3.2,-81.1,1.25,1.25,2.75,2.0,1.75,1.75,0.0,0.75,0.0,1.25,1.0,0.5,0.25,0.14,-0.48,1.39,71.62,-9.2,28.4
4.82,0.0,0.0,0.0,0.5,0.0,0.0,0.25,1.0,1.0,6.0,6.0,2.25,3.25,-0.11,0.08,0.95,274.47,-2.4,-77.3,1.25,1.75,2.75,2.0,1.75,1.5,0.0,1.0,0.0,1.25,1.25,0.25,0.25,0.14,-0.3,0.58,101.43,-9.4,30.2
4.84,0.0,0.0,0.0,2.5,0.0,0.0,0.5,1.0,1.75,6.25,6.5,3.0,3.5,-0.11,0.08,0.95,320.56,0.1,-65.4,1.0,1.25,2.75,2.0,2.25,1.25,0.0,1.0,0.0,1.0,1.5,0.5,0.25,0.39,-0.23,0.39,122.02,-9.3,25.4
4.86,0.0,0.0,0.0,0.5,0.0,0.0,1.25,0.75,0.0,5.25,5.75,2.0,2.5,-0.11,0.08,0.95,325.62,-1.3,-75.3,1.0,1.5,2.75,2.0,1.75,1.25,0.0,1.0,0.0,1.25,1.25,0.5,0.25,0.33,-0.23,0.64,142.39,-9.4,25.6
4.88,0.0,0.0,0.0,1.5,0.0,0.0,2.0,0.5,1.0,5.0,5.5,1.75,2.25,-0.11,0.08,0.95,323.41,1.3,-63.3,1.25,1.75,2.75,2.0,1.0,0.75,0.0,0.75,0.0,0.75,1.5,0.0,0.25,0.33,-0.17,0.83,163.08,-13.5,34.6
4.9,0.0,0.0,0.0,2.5,0.0,0.0,2.75,0.5,1.0,4.5,5.25,1.25,2.0,-0.11,0.08,0.95,299.5,3.1,-52.2,1.0,1.5,2.75,1.75,1.25,0.5,0.0,0.5,0.0,0.75,1.25,0.25,0.25,0.27,-0.05,0.95,174.66,-13.9,32.7
4.92,0.0,0.0,3.25,2.5,0.0,0.0,3.5,0.5,1.0,3.75,4.5,1.0,1.25,-0.11,0.08,0.95,285.52,10.7,-26.5,0.0,0.75,2.25,0.0,1.0,0.0,0.0,0.75,0.0,0.0,1.25,0.0,0.25,0.27,0.2,0.83,153.7,-14.1,20.2
4.94,0.0,0.0,4.0,2.5,0.0,0.0,4.0,0.5,0.75,3.5,4.0,0.5,1.0,-0.11,0.08,0.95,271.64,12.9,-16.8,0.0,0.75,0.5,0.0,0.0,0.0,0.0,0.0,0.0,0.0,0.0,0.0,0.0,0.27,0.27,0.95,108.96,-22.8,83.7
4.96,0.0,0.0,5.25,2.5,0.0,0.0,4.5,0.25,1.0,3.25,3.75,0.75,1.0,-0.11,0.08,0.95,268.02,15.4,-11.0,1.25,1.75,1.5,2.0,2.25,0.0,0.0,1.0,0.0,1.0,1.25,0.5,0.5,0.2,0.33,1.33,124.83,-9.5,24.6
4.98,0.0,0.0,5.0,2.5,0.0,0.0,5.0,0.0,1.0,2.0,2.75,0.0,0.0,-0.11,0.08,0.95,253.56,20.8,8.9,1.25,1.75,1.5,1.5,0.5,0.0,0.0,0.75,0.0,1.0,1.0,0.5,0.25,0.14,0.45,1.64,124.78,-12.9,24.5
5.0,0.0,0.0,5.5,4.5,0.0,0.0,5.5,0.5,1.25,3.25,3.75,0.75,0.5,-0.11,0.08,0.95,268.08,16.5,-1.5,0.25,0.75,2.0,0.0,1.0,0.0,0.0,0.75,0.0,0.0,1.5,0.0,0.25,0.08,0.58,1.77,115.19,-13.8,17.9
5.02,0.0,0.0,6.75,3.0,0.0,0.0,5.75,0.5,0.75,1.75,2.75,0.0,0.0,-0.11,0.08,0.95,264.47,22.2,16.2,0.0,0.75,0.5,0.0,0.0,0.0,0.0,0.0,0.0,0.0,0.0,0.0,0.0,0.08,0.7,1.95,77.47,-22.8,83.7
5.04,0.0,0.0,5.75,4.25,0.0,0.0,5.5,0.0,0.75,2.0,1.75,0.25,0.0,-0.11,0.08,0.95,259.14,21.8,20.1,0.0,0.75,0.5,0.0,0.0,0.0,0.0,0.0,0.0,0.0,0.0,0.0,0.0,0.14,1.2,2.27,41.28,-22.8,83.7
5.06,0.0,0.0,6.25,4.25,0.0,0.0,5.75,0.0,0.75,1.25,3.0,0.0,0.0,-0.11,0.08,0.95,255.15,23.3,20.6,0.0,0.75,0.0,0.0,0.0,0.0,0.0,0.0,0.0,0.0,0.0,0.0,0.0,0.14,1.64,2.14,0.31,-12.6,98.9
5.08,0.0,0.75,7.25,6.25,0.0,0.0,6.5,0.75,1.0,1.75,3.0,0.75,0.5,-0.11,0.08,0.95,282.9,20.0,17.1,0.0,0.5,0.0,0.0,0.0,0.0,0.0,0.0,0.0,0.0,0.0,0.0,0.0,-0.05,2.02,1.83,0.0,-12.6,98.9
5.1,0.0,1.0,7.75,6.5,0.0,0.0,6.5,0.5,1.0,1.75,1.5,0.5,0.25,-0.11,0.14,0.95,308.67,21.7,28.1,0.0,0.75,0.0,0.0,0.0,0.0,0.0,0.0,0.0,0.75,0.0,0.5,0.0,-0.36,2.2,1.14,0.0,-1.1,-17.1
5.12,0.0,1.0,8.25,7.25,0.0,0.0,7.0,0.5,0.75,1.5,1.25,0.0,0.0,-0.11,0.14,0.95,335.92,23.2,36.8,1.0,1.75,1.5,1.25,0.25,0.0,0.0,0.5,0.0,1.0,0.75,0.5,0.25,-0.8,2.58,0.58,35.99,-13.6,25.1
5.14,0.0,0.25,8.0,8.0,0.0,0.25,7.0,0.25,0.75,1.5,1.25,0.0,0.0,-0.11,0.14,0.95,349.2,23.1,36.0,1.0,1.5,2.5,1.25,0.5,0.0,0.0,0.25,0.0,0.75,0.0,0.75,0.25,-1.3,3.39,0.14,82.39,-17.7,37.0
5.16,4.0,1.0,8.25,8.25,0.0,1.25,7.25,0.5,0.75,1.0,0.25,0.0,0.0,-0.11,0.14,0.95,381.06,23.7,50.9,0.0,0.75,0.0,0.0,0.0,0.0,0.0,0.0,0.0,0.0,0.0,0.0,0.0,-1.23,3.08,0.14,78.47,-12.6,98.9
5.18,0.0,0.0,9.0,0.0,0.0,0.0,5.0,0.0,0.0,0.0,0.0,0.0,0.0,-0.11,0.14,1.02,318.55,37.0,54.0,0.0,0.75,0.0,0.0,0.0,0.0,0.0,0.0,0.0,0.0,0.0,0.5,0.0,-0.36,1.02,1.02,58.28,-11.1,17.2
5.2,0.0,1.25,2.5,9.25,0.0,0.0,6.75,0.5,0.5,0.0,0.25,0.0,0.0,-0.11,0.14,1.02,293.95,21.4,48.6,0.0,0.75,0.0,0.0,0.0,0.0,0.0,0.0,0.0,1.5,1.5,1.25,0.25,0.77,-0.11,1.39,47.83,-1.7,-59.5
5.22,0.0,1.25,9.5,10.5,0.0,0.0,7.5,0.0,0.25,0.0,0.25,0.0,0.0,-0.11,0.14,1.02,300.22,26.8,54.7,0.0,0.75,0.25,0.0,0.0,0.0,0.0,0.25,0.0,4.5,3.25,2.25,1.5,-0.36,0.27,1.64,103.19,1.7,-71.6
5.24,0.0,1.0,9.25,10.5,0.0,0.0,7.5,0.0,0.0,0.0,0.25,0.0,0.0,-0.17,0.2,1.08,325.77,27.0,55.1,0.0,0.75,0.0,0.0,0.0,0.0,0.0,1.0,0.0,5.5,4.0,2.0,2.0,0.02,0.45,1.89,169.35,4.0,-73.3
5.26,7.25,1.25,9.75,10.5,0.0,0.0,7.0,0.0,0.0,0.0,0.0,0.0,0.0,-0.17,0.2,1.08,390.89,28.8,65.6,0.0,0.0,0.0,0.0,0.0,1.0,0.0,2.5,0.5,6.25,5.25,2.25,1.5,0.02,0.39,1.02,239.92,5.3,-71.1
5.28,6.75,1.25,0.0,9.0,0.0,0.0,6.5,0.0,0.0,0.0,0.0,0.0,0.0,-0.17,0.27,1.02,381.61,24.8,68.3,0.5,0.25,0.25,0.0,0.0,1.25,0.0,3.0,0.5,6.5,5.75,2.5,1.75,0.08,0.14,0.95,288.29,3.9,-63.1
5.3,6.5,0.0,9.75,7.5,0.0,0.0,6.75,0.0,0.0,0.0,0.25,0.0,0.0,-0.23,0.27,1.39,394.77,30.5,63.1,0.75,0.75,1.0,0.25,0.0,2.0,0.5,4.0,0.5,7.0,6.75,3.0,2.0,0.08,0.14,0.95,347.29,2.1,-52.0
5.32,5.75,0.0,9.25,8.0,0.0,0.0,6.0,0.0,0.0,0.0,0.0,0.0,0.0,-0.23,0.33,1.58,377.44,30.2,63.8,0.5,0.5,1.0,0.75,0.0,2.0,0.5,4.25,1.0,7.5,7.5,3.25,2.75,0.08,0.08,0.95,405.52,2.2,-55.1
5.34,7.5,0.0,9.0,6.25,0.0,0.0,6.0,0.0,0.0,0.0,0.25,0.0,0.0,-0.3,0.39,1.83,386.23,31.1,65.1,2.0,1.75,4.0,2.0,2.5,4.5,0.75,5.25,1.25,7.25,8.5,3.25,4.0,0.08,0.08,0.95,531.67,-1.3,-25.3
5.36,0.0,0.0,8.0,4.25,0.0,0.0,5.25,0.0,0.0,0.0,0.25,0.0,0.0,-0.36,0.64,2.2,329.95,30.8,52.4,2.0,1.75,3.0,3.25,5.0,4.5,2.0,5.75,1.25,8.0,8.25,3.5,3.75,0.08,0.08,0.95,668.42,-0.7,-20.5
5.38,5.75,0.0,7.0,2.75,0.0,0.0,4.0,0.0,0.0,0.0,0.25,0.0,0.0,-0.36,0.77,2.27,297.99,32.8,66.2,2.0,2.25,4.0,3.25,4.25,5.25,1.75,6.0,1.0,7.5,8.25,3.5,3.25,0.08,0.08,0.95,794.73,-1.4,-16.8
5.4,3.25,0.0,5.75,2.5,0.0,0.0,2.25,0.0,0.0,0.0,0.5,0.0,0.0,-0.3,0.45,2.52,250.33,31.8,61.1,2.0,1.75,4.5,4.0,4.25,6.0,3.0,6.0,1.0,7.0,7.25,2.75,2.25,0.08,0.08,0.95,867.75,-2.1,-9.9
5.42,0.0,0.0,4.25,0.0,0.0,0.0,0.0,0.0,0.0,0.0,0.0,0.0,0.0,-0.61,-0.36,1.89,181.89,38.2,60.9,1.25,1.75,5.25,4.5,5.5,6.0,2.75,5.75,0.25,4.75,6.5,1.5,2.25,0.08,0.08,0.95,869.78,-2.6,-0.4
5.44,0.0,0.0,0.0,1.5,0.0,0.0,4.25,0.0,2.5,0.0,0.0,0.0,0.0,-0.17,-0.73,0.52,107.66,20.2,8.4,3.0,2.0,3.5,3.5,4.75,6.75,3.0,5.5,1.0,3.25,4.75,0.75,1.0,0.14,0.08,0.95,805.84,-2.8,10.1
5.46,0.75,0.0,0.0,0.0,0.0,0.0,0.0,0.0,2.0,0.0,0.0,0.0,0.0,-0.61,-0.86,2.14,35.23,18.1,-2.8,1.25,1.75,4.5,4.5,5.75,7.25,3.5,5.5,0.75,3.25,3.75,1.0,1.5,0.14,0.14,0.95,751.1,-2.0,10.2
5.48,0.0,0.0,0.25,1.5,0.0,0.0,4.25,0.0,2.5,0.0,0.0,0.5,0.0,0.08,-0.92,1.33,17.35,20.1,1.8,3.0,2.5,4.5,4.75,6.5,7.75,3.25,5.5,0.75,2.75,3.0,1.0,1.0,0.14,0.14,0.95,730.69,-3.3,19.9
