time,left pressure 0[N/cm²],left pressure 1[N/cm²],left pressure 2[N/cm²],left pressure 3[N/cm²],left pressure 4[N/cm²],left pressure 5[N/cm²],left pressure 6[N/cm²],left pressure 7[N/cm²],left pressure 8[N/cm²],left pressure 9[N/cm²],left pressure 10[N/cm²],left pressure 11[N/cm²],left pressure 12[N/cm²],left acceleration X[g],left acceleration Y[g],left acceleration Z[g],left total force[N],left center of pressure X[mm],left center of pressure Y[mm],right pressure 0[N/cm²],right pressure 1[N/cm²],right pressure 2[N/cm²],right pressure 3[N/cm²],right pressure 4[N/cm²],right pressure 5[N/cm²],right pressure 6[N/cm²],right pressure 7[N/cm²],right pressure 8[N/cm²],right pressure 9[N/cm²],right pressure 10[N/cm²],right pressure 11[N/cm²],right pressure 12[N/cm²],right acceleration X[g],right acceleration Y[g],right acceleration Z[g],right total force[N],right center of pressure X[mm],right center of pressure Y[mm]
0.02,0.0,0.0,2.25,0.5,0.0,0.0,0.25,0.0,0.0,0.25,0.0,0.0,0.25,-0.17,0.14,0.95,57.43,27.1,36.8,0.25,1.75,0.5,1.25,0.25,1.0,0.25,1.0,0.5,1.5,1.0,0.75,0.25,0.02,0.14,0.95,148.93,-3.3,0.5
0.04,0.0,0.0,2.25,0.5,0.0,0.0,0.25,0.0,0.0,0.25,0.25,0.0,0.25,-0.17,0.14,0.95,59.05,26.0,29.5,0.0,1.75,0.5,1.25,0.25,1.0,0.25,1.0,0.5,1.25,1.0,1.0,0.25,0.02,0.14,0.95,149.93,-3.1,-2.6
0.06,0.0,0.0,2.25,0.5,0.0,0.0,0.25,0.0,0.0,0.25,0.0,0.0,0.25,-0.17,0.08,0.95,59.34,27.1,36.8,0.25,1.75,0.0,1.5,0.25,1.0,0.5,0.75,0.5,1.25,0.5,1.0,0.25,0.02,0.14,0.95,144.96,-2.9,3.2
0.08,0.0,0.0,2.25,0.5,0.0,0.0,0.25,0.0,0.0,0.25,0.0,0.0,0.25,-0.17,0.08,0.95,59.67,27.1,36.8,0.25,1.75,0.5,1.75,0.5,1.0,0.25,1.0,0.75,1.5,1.0,1.0,0.25,0.02,0.14,0.95,152.59,-4.0,1.2
0.1,0.0,0.0,2.25,0.5,0.0,0.0,0.25,0.0,0.0,0.25,0.0,0.0,0.25,-0.17,0.14,0.95,59.16,27.1,36.8,0.25,1.75,0.25,1.25,0.25,1.0,0.25,1.0,0.5,1.5,1.0,0.75,0.25,0.02,0.14,0.95,151.48,-2.4,-1.0
0.12,0.0,0.0,2.25,0.5,0.0,0.0,0.25,0.0,0.0,0.5,0.0,0.0,0.25,-0.17,0.14,0.95,59.91,24.2,29.2,0.0,1.75,0.5,1.5,0.5,1.0,0.5,1.0,0.5,1.0,1.5,1.0,0.25,0.02,0.14,0.95,156.64,-4.4,-0.8
0.14,0.0,0.0,2.25,0.75,0.0,0.0,0.25,0.0,0.0,0.25,0.25,0.0,0.25,-0.17,0.08,0.95,62.36,25.4,31.3,0.25,1.75,0.5,1.5,0.5,1.0,0.5,0.75,0.5,1.5,0.75,1.0,0.25,0.02,0.14,0.95,156.65,-4.2,3.7
0.16,0.0,0.0,2.25,0.5,0.0,0.0,0.25,0.0,0.0,0.25,0.0,0.0,0.0,-0.17,0.08,0.95,60.97,30.4,48.6,0.0,1.75,0.5,1.75,0.25,1.25,0.25,1.0,0.5,0.75,1.5,1.0,0.25,0.02,0.14,0.95,159.16,-4.5,1.2
0.18,0.0,0.0,2.25,0.5,0.0,0.0,0.0,0.0,0.0,0.25,0.25,0.0,0.25,-0.17,0.14,0.95,60.62,25.8,29.5,0.5,1.75,0.25,1.25,0.25,1.0,0.5,1.0,0.5,1.25,1.75,1.0,0.25,0.02,0.14,0.95,160.11,-4.5,-4.3
0.2,0.0,0.0,2.25,0.5,0.0,0.0,0.25,0.0,0.0,0.25,0.0,0.0,0.25,-0.17,0.14,0.95,59.13,27.1,36.8,0.5,1.75,0.0,1.25,0.0,1.25,0.5,1.0,0.5,1.5,1.25,1.0,0.5,0.02,0.14,0.95,160.29,-2.1,-7.5
0.22,0.0,0.0,2.25,0.5,0.0,0.0,0.25,0.0,0.0,0.25,0.25,0.0,0.25,-0.17,0.14,0.95,59.9,26.0,29.5,0.25,1.75,0.25,1.25,0.5,1.0,0.5,1.0,0.5,1.5,1.5,1.0,0.0,0.02,0.14,0.95,161.5,-3.4,-2.5
0.24,0.0,0.0,2.25,0.5,0.0,0.0,0.25,0.0,0.0,0.25,0.0,0.0,0.25,-0.17,0.14,0.95,59.17,27.1,36.8,0.25,1.75,0.5,1.25,0.5,1.0,0.5,1.0,0.5,0.75,1.5,0.75,0.5,0.02,0.14,0.95,159.82,-4.7,1.5
0.26,0.0,0.0,2.0,0.5,0.0,0.0,0.25,0.0,0.0,0.25,0.25,0.0,0.0,-0.17,0.08,0.95,57.57,28.3,38.2,0.5,1.75,0.5,1.25,0.25,1.0,0.5,1.0,0.5,1.25,0.75,1.0,0.25,0.02,0.14,0.95,158.32,-4.7,4.0
0.28,0.0,0.0,2.25,0.5,0.0,0.0,0.25,0.0,0.25,0.25,0.0,0.0,0.25,-0.17,0.14,0.95,58.23,26.1,31.8,0.25,1.75,0.5,1.25,0.25,1.0,0.5,1.0,0.75,1.5,1.0,1.0,0.25,0.02,0.14,0.95,158.3,-3.9,-2.6
0.3,0.0,0.0,2.25,0.5,0.0,0.0,0.25,0.0,0.0,0.5,0.0,0.0,0.0,-0.17,0.14,0.95,58.06,27.0,39.6,0.25,1.75,0.25,1.25,0.5,1.0,0.25,0.25,0.5,1.0,1.0,1.0,0.25,0.02,0.14,0.95,151.55,-4.9,4.8
0.32,0.0,0.0,2.25,0.5,0.0,0.0,0.25,0.0,0.0,0.25,0.0,0.0,0.25,-0.17,0.14,0.95,58.33,27.1,36.8,0.25,1.75,0.25,1.25,0.5,1.0,0.5,0.75,0.75,1.0,1.75,1.0,0.25,0.02,0.14,0.95,151.83,-4.8,-3.3
0.34,0.0,0.0,2.25,0.5,0.0,0.0,0.25,0.0,0.0,0.25,0.0,0.0,0.0,-0.17,0.14,0.95,56.89,30.4,48.6,0.0,1.75,0.25,1.25,0.5,1.25,0.5,1.0,0.5,1.25,1.5,1.0,0.5,0.02,0.14,0.95,154.46,-1.9,-7.1
0.36,0.0,0.0,2.25,0.5,0.0,0.0,0.25,0.0,0.0,0.25,0.0,0.0,0.25,-0.17,0.14,0.95,56.92,27.1,36.8,0.0,1.75,0.25,0.75,0.0,1.25,0.25,1.0,0.75,1.5,1.5,0.75,0.5,0.02,0.14,0.95,152.92,-0.6,-14.3
0.38,0.0,0.0,2.25,0.5,0.0,0.0,0.0,0.0,0.0,0.25,0.0,0.0,0.25,-0.17,0.14,0.95,56.13,26.9,37.1,0.5,1.5,0.25,1.25,0.25,1.25,0.25,1.0,0.5,1.5,1.25,1.0,0.25,0.02,0.14,0.95,153.75,-2.6,-4.7
0.4,0.0,0.0,2.0,0.5,0.0,0.0,0.25,0.0,0.0,0.25,0.0,0.0,0.0,-0.17,0.14,0.95,54.44,29.7,47.5,0.25,1.75,0.25,1.25,0.5,1.25,0.5,1.0,0.5,1.25,1.5,1.0,0.25,0.02,0.14,0.95,156.37,-2.9,-2.5
0.42,0.0,0.0,2.25,0.5,0.0,0.0,0.0,0.0,0.0,0.25,0.0,0.0,0.0,-0.17,0.14,0.95,52.97,30.3,49.4,0.25,1.75,0.25,1.25,0.25,1.0,0.5,1.0,0.5,1.5,1.0,1.0,0.5,0.02,0.14,0.95,156.62,-2.5,-5.9
0.44,0.0,0.0,2.25,0.5,0.0,0.0,0.0,0.0,0.0,0.25,0.0,0.0,0.25,-0.17,0.14,0.95,53.16,26.9,37.1,0.25,1.75,0.0,1.25,0.25,1.25,0.5,1.0,0.5,1.5,1.0,1.0,0.0,0.02,0.14,0.95,154.43,-1.8,-1.3
0.46,0.0,0.0,2.0,0.5,0.0,0.0,0.0,0.0,0.0,0.0,0.0,0.0,0.25,-0.17,0.14,0.95,51.21,29.6,44.9,0.5,1.75,0.25,1.25,0.25,1.0,0.5,1.0,0.5,1.25,1.25,1.0,0.25,0.02,0.14,0.95,154.52,-4.2,-1.0
0.48,0.0,0.0,2.25,0.5,0.0,0.0,0.25,0.0,0.0,0.25,0.0,0.0,0.25,-0.17,0.14,0.95,53.2,27.1,36.8,0.5,1.75,0.25,1.5,0.25,1.25,0.5,1.0,0.5,1.25,1.5,0.75,0.5,0.02,0.14,0.95,158.05,-3.6,-0.6
0.5,0.0,0.0,2.25,0.5,0.0,0.0,0.25,0.0,0.0,0.25,0.0,0.0,0.25,-0.17,0.14,0.95,54.76,27.1,36.8,0.25,1.75,0.0,1.25,0.5,1.0,0.75,1.0,0.5,0.75,0.75,1.0,0.25,0.02,0.14,0.95,153.89,-3.4,4.6
0.52,0.0,0.0,2.25,0.5,0.0,0.0,0.25,0.0,0.0,0.25,0.0,0.0,0.25,-0.17,0.14,0.95,56.47,27.1,36.8,0.25,1.75,0.0,1.25,0.25,1.0,0.5,1.0,0.5,1.25,1.5,1.0,0.5,0.02,0.14,0.95,154.0,-2.4,-9.1
0.54,0.0,0.0,2.0,0.5,0.0,0.0,0.25,0.0,0.0,0.25,0.25,0.0,0.25,-0.17,0.14,0.95,57.23,25.1,27.1,0.0,1.75,0.5,1.25,0.0,1.0,0.25,1.0,0.5,1.5,1.75,1.0,0.25,0.02,0.14,0.95,153.44,-3.4,-10.8
0.56,0.0,0.0,2.0,0.5,0.0,0.0,0.25,0.0,0.0,0.25,0.0,0.0,0.25,-0.17,0.14,0.95,56.67,26.2,34.9,0.0,1.75,0.5,1.5,0.25,1.25,0.5,1.0,0.5,1.5,1.25,0.75,0.5,0.02,0.14,0.95,155.94,-2.4,-3.4
0.58,0.0,0.0,2.0,0.5,0.0,0.0,0.25,0.0,0.0,0.25,0.0,0.0,0.25,-0.17,0.14,0.95,55.52,26.2,34.9,0.5,1.75,0.0,1.25,0.5,1.25,0.25,1.0,0.5,1.5,1.25,1.0,0.25,0.02,0.14,0.95,158.18,-1.8,-2.3
0.6,0.0,0.0,2.0,0.5,0.0,0.0,0.0,0.0,0.0,0.25,0.0,0.0,0.25,-0.17,0.08,0.95,53.69,26.0,35.1,0.0,1.75,0.0,1.5,0.25,1.0,0.25,0.75,0.5,1.5,0.75,1.0,0.0,0.02,0.14,0.95,153.49,-1.9,-0.5
0.62,0.0,0.0,1.25,0.5,0.0,0.0,0.25,0.0,0.0,0.0,0.0,0.0,0.25,-0.17,0.14,0.95,47.76,26.8,38.3,0.0,1.5,0.5,2.0,0.0,1.25,0.25,1.0,0.75,1.5,1.0,0.75,0.0,0.02,0.14,0.95,152.16,-3.6,1.3
0.64,0.0,0.0,2.0,0.5,0.0,0.0,0.0,0.0,0.0,0.25,0.0,0.0,0.25,-0.17,0.14,0.95,47.42,26.0,35.1,0.25,1.75,0.25,1.25,0.25,1.5,0.5,1.0,0.5,1.5,1.5,1.0,0.25,0.02,0.14,0.95,154.35,-2.1,-4.8
0.66,0.0,0.0,2.0,0.5,0.0,0.0,0.25,0.0,0.0,0.25,0.0,0.0,0.25,-0.17,0.14,0.95,47.89,26.2,34.9,0.25,1.75,0.25,1.75,0.5,1.0,0.25,1.0,0.5,0.75,1.0,1.0,0.25,0.02,0.14,0.95,155.81,-4.4,6.3
0.68,0.0,0.0,1.75,0.5,0.0,0.0,0.25,0.0,0.0,0.25,0.0,0.0,0.25,-0.17,0.14,0.95,48.83,25.2,32.6,0.0,1.75,0.25,1.25,0.25,1.25,0.25,1.0,0.5,1.25,1.25,0.75,0.25,0.02,0.14,0.95,153.9,-1.6,-2.4
0.7,0.0,0.0,2.0,0.5,0.0,0.0,0.0,0.0,0.0,0.25,0.0,0.0,0.25,-0.17,0.08,0.95,49.94,26.0,35.1,0.5,1.75,0.0,1.5,0.25,1.25,0.5,1.0,0.5,1.25,1.5,1.0,0.25,0.02,0.14,0.95,156.05,-3.3,-1.9
0.72,0.0,0.0,1.75,0.5,0.0,0.0,0.25,0.0,0.0,0.25,0.0,0.0,0.25,-0.17,0.14,0.95,49.47,25.2,32.6,0.25,1.75,0.25,2.0,0.5,1.25,0.75,1.0,0.5,1.5,0.75,0.75,0.25,0.02,0.14,0.95,159.8,-3.2,7.4
0.74,0.0,0.0,1.75,0.5,0.0,0.0,0.25,0.0,0.0,0.25,0.0,0.0,0.25,-0.17,0.14,0.95,49.04,25.2,32.6,0.25,1.75,0.5,1.5,0.5,1.25,0.25,0.5,0.5,1.5,1.75,1.0,0.25,0.02,0.14,0.95,164.91,-4.3,-1.6
0.76,0.0,0.0,1.75,0.5,0.0,0.0,0.25,0.0,0.0,0.25,0.0,0.0,0.25,-0.17,0.14,0.95,48.57,25.2,32.6,0.25,1.75,0.5,1.5,0.25,1.25,0.5,1.0,0.5,1.25,1.75,1.0,0.25,0.02,0.14,0.95,168.12,-4.3,-2.7
0.78,0.0,0.0,1.25,0.5,0.0,0.0,0.25,0.0,0.0,0.5,0.0,0.0,0.5,-0.17,0.14,0.95,48.22,16.0,6.0,0.25,1.75,0.5,1.25,0.25,1.25,0.25,1.0,0.25,1.5,1.5,1.0,0.25,0.02,0.14,0.95,167.47,-3.0,-3.7
0.8,0.0,0.0,1.75,0.5,0.0,0.0,0.25,0.0,0.0,0.5,0.0,0.0,0.25,-0.17,0.14,0.95,49.69,22.0,24.1,0.0,1.5,0.5,1.5,0.25,1.75,0.25,1.0,0.5,1.5,1.5,1.0,0.0,0.02,0.14,0.95,166.39,-1.9,-3.5
0.82,0.0,0.0,1.75,0.5,0.0,0.0,0.0,0.0,0.0,0.25,0.0,0.0,0.25,-0.17,0.14,0.95,49.19,24.9,32.8,0.25,1.75,0.25,1.25,0.25,1.75,0.5,1.0,0.5,1.5,1.5,1.0,0.5,0.02,0.14,0.95,168.05,-1.3,-6.3
0.84,0.0,0.0,1.5,0.5,0.0,0.0,0.25,0.0,0.0,0.25,0.0,0.0,0.25,-0.17,0.14,0.95,48.23,23.9,29.9,0.25,1.75,0.0,1.25,0.25,1.25,0.25,1.0,0.5,1.25,0.75,1.0,0.75,0.02,0.14,0.95,163.56,-0.4,-6.3
0.86,0.0,0.0,1.5,0.5,0.0,0.0,0.25,0.0,0.0,0.25,0.0,0.0,0.0,-0.17,0.08,0.95,45.51,27.9,44.6,0.25,1.75,0.0,1.25,0.25,1.5,0.25,1.0,0.5,1.5,1.0,1.0,0.25,0.02,0.14,0.95,158.96,-0.5,-3.5
0.88,0.0,0.0,1.5,0.5,0.0,0.0,0.0,0.0,0.0,0.25,0.0,0.0,0.25,-0.17,0.14,0.95,42.96,23.5,30.0,0.5,1.75,0.5,1.25,0.5,1.0,0.5,1.0,0.5,1.5,1.75,0.75,0.5,0.02,0.14,0.95,161.5,-4.1,-3.0
0.9,0.0,0.0,1.5,0.5,0.0,0.0,0.0,0.0,0.0,0.25,0.0,0.0,0.25,-0.17,0.14,0.95,41.72,23.5,30.0,1.25,1.5,0.25,1.0,0.25,1.25,0.25,1.0,0.5,1.25,1.25,1.0,0.25,0.02,0.14,0.95,162.15,-4.8,2.0
0.92,0.0,0.0,1.5,0.5,0.0,0.0,0.0,0.0,0.0,0.25,0.0,0.0,0.25,-0.17,0.08,0.95,41.68,23.5,30.0,0.25,1.25,0.25,1.5,0.5,1.5,0.5,1.5,0.5,1.25,1.5,1.0,0.25,0.02,0.14,0.95,164.88,-1.4,-6.5
0.94,0.0,0.0,1.25,0.75,0.0,0.0,0.0,0.0,0.0,0.25,0.0,0.0,0.25,-0.17,0.14,0.95,41.67,21.4,29.7,0.0,1.25,0.0,1.5,0.5,1.25,0.5,1.0,0.5,1.0,0.75,1.0,0.25,0.02,0.14,0.95,155.93,-0.9,-3.1
0.96,0.0,0.0,1.5,0.5,0.0,0.0,0.0,0.0,0.0,0.25,0.0,0.0,0.25,-0.17,0.14,0.95,41.87,23.5,30.0,0.0,1.5,0.0,1.25,0.5,1.25,0.5,1.0,0.5,1.25,1.5,1.0,0.25,0.02,0.14,0.95,152.43,-1.1,-8.9
0.98,0.0,0.0,1.5,0.5,0.0,0.0,0.0,0.0,0.0,0.25,0.0,0.0,0.25,-0.17,0.14,0.95,41.89,23.5,30.0,0.0,1.75,0.0,1.25,0.25,1.25,0.25,1.0,0.5,1.25,1.25,1.0,0.5,0.02,0.14,0.95,147.21,-0.5,-9.4
1.0,0.0,0.0,1.5,0.5,0.0,0.0,0.25,0.0,0.0,0.25,0.0,0.0,0.25,-0.17,0.14,0.95,42.66,23.9,29.9,0.0,1.5,0.25,1.75,0.5,1.25,0.25,1.0,0.75,1.25,1.0,0.75,0.25,0.02,0.14,0.95,149.07,-2.1,0.4
1.02,0.0,0.0,1.5,0.5,0.0,0.0,0.0,0.0,0.0,0.25,0.0,0.0,0.25,-0.17,0.14,0.95,42.82,23.5,30.0,0.25,1.5,0.25,1.25,0.5,1.25,0.5,1.0,0.5,1.25,1.25,1.0,0.25,0.02,0.14,0.95,150.84,-2.5,-3.3
1.04,0.0,0.0,1.5,0.5,0.0,0.0,0.0,0.0,0.0,0.25,0.0,0.0,0.25,-0.17,0.08,0.95,42.87,23.5,30.0,0.75,2.0,0.5,1.25,0.25,1.25,0.25,1.0,0.5,1.25,1.5,1.0,0.25,0.02,0.14,0.95,158.77,-5.0,3.4
1.06,0.0,0.0,1.5,0.5,0.0,0.0,0.0,0.0,0.0,0.25,0.0,0.0,0.25,-0.17,0.14,0.95,43.11,23.5,30.0,0.25,1.5,0.5,1.0,0.25,1.25,0.25,1.0,0.5,1.5,1.5,1.0,0.5,0.02,0.14,0.95,160.25,-2.2,-10.9
1.08,0.0,0.0,1.5,0.5,0.0,0.0,0.25,0.0,0.0,0.25,0.0,0.0,0.25,-0.17,0.14,0.95,43.91,23.9,29.9,0.0,1.5,0.25,1.5,0.5,1.25,0.5,1.0,0.5,1.25,1.5,1.0,0.25,0.02,0.14,0.95,161.85,-2.3,-5.7
1.1,0.0,0.0,1.25,0.5,0.0,0.0,0.25,0.0,0.25,0.25,0.0,0.0,0.25,-0.17,0.08,0.95,44.24,21.5,20.6,0.25,1.5,0.0,1.5,0.25,1.5,0.25,1.0,0.5,1.5,1.5,1.0,0.25,0.02,0.14,0.95,160.13,-1.0,-7.7
1.12,0.0,0.0,1.5,0.5,0.0,0.0,0.0,0.0,0.0,0.25,0.0,0.0,0.25,-0.17,0.14,0.95,44.08,23.5,30.0,0.0,1.75,0.0,1.25,0.5,1.0,0.25,1.0,0.5,1.25,1.0,1.0,0.25,0.02,0.14,0.95,154.25,-1.1,-4.3
1.14,0.0,0.0,1.5,0.5,0.0,0.0,0.0,0.0,0.0,0.25,0.0,0.0,0.25,-0.17,0.08,0.95,43.76,23.5,30.0,0.25,1.75,0.5,1.5,0.5,1.0,0.25,1.0,0.5,1.25,1.0,0.75,0.75,0.02,0.14,0.95,156.12,-3.1,-0.1
1.16,0.0,0.0,1.5,0.5,0.0,0.0,0.0,0.0,0.0,0.25,0.0,0.0,0.25,-0.17,0.14,0.95,43.4,23.5,30.0,0.25,1.5,0.5,1.25,0.25,1.25,0.5,1.0,0.5,1.5,1.25,1.0,0.25,0.02,0.14,0.95,156.63,-3.1,-5.0
1.18,0.0,0.0,1.5,0.5,0.0,0.0,0.0,0.0,0.0,0.25,0.0,0.0,0.25,-0.17,0.14,0.95,43.15,23.5,30.0,0.0,1.75,0.25,1.5,0.25,1.5,0.25,1.0,0.5,1.25,0.75,1.0,0.25,0.02,0.14,0.95,157.21,-1.2,0.7
1.2,0.0,0.0,1.5,0.5,0.0,0.0,0.0,0.0,0.0,0.25,0.0,0.0,0.25,-0.17,0.14,0.95,43.05,23.5,30.0,0.0,1.0,0.0,1.0,0.25,1.0,0.5,1.0,0.75,1.5,1.5,1.0,0.25,0.02,0.14,0.95,149.36,-0.6,-22.1
1.22,0.0,0.0,1.5,0.5,0.0,0.0,0.0,0.0,0.0,0.25,0.0,0.0,0.25,-0.17,0.08,0.95,43.03,23.5,30.0,0.25,1.75,0.25,1.5,0.25,1.25,0.25,1.0,0.5,1.0,0.75,1.0,0.5,0.02,0.14,0.95,148.1,-2.6,1.3
1.24,0.0,0.0,1.5,0.5,0.0,0.0,0.0,0.0,0.0,0.25,0.0,0.0,0.25,-0.17,0.14,0.95,42.97,23.5,30.0,0.0,1.5,0.0,1.25,0.25,1.0,0.25,1.0,0.5,1.5,1.5,1.0,0.25,0.02,0.14,0.95,144.06,-1.0,-13.9
1.26,0.0,0.0,1.0,0.25,0.0,0.0,0.25,0.0,0.0,0.25,0.0,0.0,0.25,-0.17,0.14,0.95,39.07,21.0,17.7,0.0,1.75,0.5,1.25,0.25,1.0,0.5,1.0,0.5,1.5,1.5,1.0,0.25,0.02,0.14,0.95,147.83,-3.4,-7.2
1.28,0.0,0.0,1.5,0.5,0.0,0.0,0.25,0.0,0.0,0.25,0.0,0.0,0.25,-0.17,0.14,0.95,40.01,23.9,29.9,0.5,1.5,0.25,1.25,0.25,1.25,0.0,1.0,0.5,1.25,1.5,0.75,0.25,0.02,0.14,0.95,148.92,-2.7,-2.5
1.3,0.0,0.0,1.5,0.5,0.0,0.0,0.25,0.0,0.0,0.25,0.0,0.0,0.25,-0.17,0.14,0.95,40.9,23.9,29.9,0.25,1.75,0.0,1.25,0.5,1.25,0.25,1.0,0.5,1.25,1.5,0.75,0.25,0.02,0.14,0.95,152.62,-1.6,-1.9
1.32,0.0,0.0,1.75,0.5,0.0,0.0,0.0,0.0,0.0,0.25,0.0,0.0,0.25,-0.17,0.14,0.95,44.01,24.9,32.8,0.5,1.75,0.25,1.5,0.5,1.25,0.25,1.0,0.5,1.25,1.0,0.75,0.25,0.02,0.14,0.95,155.07,-3.1,6.5
1.34,0.0,0.0,1.75,0.5,0.0,0.0,0.0,0.0,0.0,0.25,0.0,0.0,0.25,-0.17,0.14,0.95,46.06,24.9,32.8,0.5,1.5,0.25,1.25,0.25,1.0,0.25,1.0,0.5,0.75,1.25,1.0,0.0,0.02,0.14,0.95,151.45,-5.2,2.8
1.36,0.0,0.0,1.5,0.5,0.0,0.0,0.0,0.0,0.0,0.25,0.0,0.0,0.25,-0.17,0.14,0.95,46.32,23.5,30.0,0.0,1.5,0.0,1.0,0.25,1.25,0.25,1.0,0.75,1.5,1.25,1.0,0.25,0.02,0.14,0.95,148.71,0.0,-13.8
1.38,0.0,0.0,1.75,0.5,0.0,0.0,0.0,0.0,0.0,0.25,0.0,0.0,0.25,-0.17,0.08,0.95,46.79,24.9,32.8,0.25,1.75,0.0,1.5,0.5,1.25,0.25,1.0,0.5,1.25,1.25,1.0,0.25,0.02,0.14,0.95,149.47,-1.9,-1.3
1.4,0.0,0.0,1.5,0.5,0.0,0.0,0.0,0.0,0.0,0.25,0.0,0.0,0.25,-0.17,0.14,0.95,45.55,23.5,30.0,0.0,1.75,0.0,1.5,0.25,1.0,0.25,1.0,0.5,1.25,1.5,1.0,0.25,0.02,0.14,0.95,150.39,-2.1,-7.7
1.42,0.0,0.0,1.5,0.25,0.0,0.0,0.0,0.0,0.0,0.25,0.0,0.0,0.25,-0.17,0.14,0.95,43.44,24.2,26.8,0.5,1.75,0.5,1.25,0.5,1.0,0.25,1.0,0.5,1.0,1.25,0.75,0.0,0.02,0.14,0.95,152.66,-5.3,8.9
1.44,0.0,0.0,1.5,0.5,0.0,0.0,0.0,0.0,0.0,0.25,0.0,0.0,0.0,-0.17,0.14,0.95,41.49,27.7,45.5,1.25,1.75,0.0,0.75,0.25,1.75,0.5,1.0,0.5,1.5,1.5,0.75,0.25,0.02,0.14,0.95,158.92,-2.6,2.2
1.46,0.0,0.0,1.5,0.5,0.0,0.0,0.25,0.0,0.0,0.25,0.0,0.0,0.25,-0.17,0.08,0.95,42.09,23.9,29.9,0.25,1.75,0.25,1.25,0.25,1.25,0.5,1.0,0.75,1.25,1.25,0.75,0.25,0.02,0.14,0.95,159.37,-3.0,-0.7
1.48,0.0,0.0,1.5,0.5,0.0,0.0,0.25,0.0,0.0,0.25,0.0,0.0,0.25,-0.17,0.14,0.95,43.13,23.9,29.9,0.5,1.75,0.0,1.0,0.5,1.25,0.25,1.0,0.5,1.5,1.0,1.0,0.0,0.02,0.14,0.95,157.92,-1.6,0.5
1.5,0.0,0.0,1.5,0.5,0.0,0.0,0.0,0.0,0.0,0.25,0.0,0.0,0.25,-0.17,0.14,0.95,43.8,23.5,30.0,0.25,1.75,0.0,1.25,0.25,1.25,0.25,1.0,0.5,1.25,1.5,1.0,0.25,0.02,0.14,0.95,155.39,-1.9,-6.0
1.52,0.0,0.0,1.5,0.5,0.0,0.0,0.25,0.0,0.0,0.25,0.0,0.0,0.25,-0.17,0.08,0.95,43.92,23.9,29.9,0.5,1.75,0.25,1.5,0.5,1.0,0.25,1.0,0.5,1.5,0.75,0.75,0.75,0.02,0.14,0.95,157.59,-2.3,0.4
1.54,0.0,0.0,1.75,0.5,0.0,0.0,0.0,0.0,0.0,0.25,0.0,0.0,0.25,-0.17,0.14,0.95,45.14,24.9,32.8,1.25,1.75,0.25,1.0,0.25,1.25,0.25,1.0,0.5,1.5,1.5,1.0,0.25,0.02,0.14,0.95,162.2,-4.6,0.8
1.56,0.0,0.0,1.75,0.5,0.0,0.0,0.25,0.0,0.0,0.25,0.0,0.0,0.0,-0.17,0.14,0.95,45.75,28.9,46.2,0.25,1.75,0.25,1.5,0.25,1.25,0.25,1.0,0.5,1.25,1.25,1.0,0.25,0.02,0.14,0.95,163.31,-2.9,-1.3
1.58,0.0,0.0,1.0,0.25,0.0,0.0,0.0,0.0,0.0,1.0,0.0,0.0,0.25,-0.17,0.08,0.95,44.32,9.6,-10.1,0.5,1.75,0.0,1.25,0.25,2.0,0.25,1.0,0.5,1.0,1.5,1.0,0.0,0.02,0.14,0.95,164.77,-1.7,2.8
1.6,0.0,0.0,1.5,0.5,0.0,0.0,0.0,0.0,0.0,0.25,0.0,0.0,0.25,-0.17,0.14,0.95,43.85,23.5,30.0,0.0,1.25,0.25,1.75,0.25,1.25,0.25,1.0,0.5,1.5,1.5,1.0,0.0,0.02,0.14,0.95,160.23,-2.2,-7.8
1.62,0.0,0.0,1.5,0.5,0.0,0.0,0.0,0.0,0.0,0.25,0.0,0.0,0.25,-0.17,0.08,0.95,42.98,23.5,30.0,0.0,1.75,0.5,1.25,0.5,1.0,0.25,1.0,0.5,1.0,1.25,1.0,0.25,0.02,0.14,0.95,156.26,-3.6,-0.9
1.64,0.0,0.0,1.5,0.5,0.0,0.0,0.0,0.0,0.0,0.25,0.0,0.0,0.25,-0.17,0.14,0.95,43.16,23.5,30.0,0.0,1.75,0.0,1.25,0.25,1.25,0.25,1.0,0.75,1.5,1.25,1.0,0.25,0.02,0.14,0.95,153.48,-0.7,-9.2
1.66,0.0,0.0,1.5,0.5,0.0,0.0,0.0,0.0,0.0,0.25,0.0,0.0,0.25,-0.17,0.08,0.95,43.2,23.5,30.0,0.0,1.75,0.5,2.0,0.25,1.5,0.25,1.0,0.5,1.5,1.75,0.75,0.0,0.02,0.14,0.95,158.85,-3.3,1.4
1.68,0.0,0.0,1.5,0.5,0.0,0.0,0.0,0.0,0.0,0.25,0.0,0.0,0.25,-0.17,0.14,0.95,43.11,23.5,30.0,0.5,1.75,0.25,1.5,0.25,1.25,0.25,1.0,0.5,1.25,1.5,1.0,0.0,0.02,0.14,0.95,160.56,-4.2,1.7
1.7,0.0,0.0,1.5,0.5,0.0,0.0,0.0,0.0,0.0,0.25,0.0,0.0,0.25,-0.17,0.14,0.95,42.77,23.5,30.0,0.0,1.0,0.25,1.5,0.5,1.5,0.25,1.0,0.5,1.25,1.0,0.75,0.25,0.02,0.14,0.95,157.4,-0.2,-4.5
1.72,0.0,0.0,1.5,0.5,0.0,0.0,0.25,0.0,0.0,0.25,0.0,0.0,0.25,-0.17,0.14,0.95,43.42,23.9,29.9,0.0,1.75,0.0,1.5,0.25,1.0,0.5,1.0,0.5,1.5,1.75,1.0,0.25,0.02,0.14,0.95,156.01,-2.2,-10.4
1.74,0.0,0.0,1.5,0.5,0.0,0.0,0.0,0.0,0.0,0.25,0.0,0.0,0.25,-0.17,0.14,0.95,43.46,23.5,30.0,0.25,1.5,0.0,1.25,0.25,1.25,0.25,1.0,0.75,1.0,1.0,0.75,0.25,0.02,0.14,0.95,148.59,-1.7,-1.6
1.76,0.0,0.0,1.5,0.5,0.0,0.0,0.0,0.0,0.0,0.25,0.0,0.0,0.25,-0.17,0.08,0.95,43.34,23.5,30.0,0.25,1.25,0.0,1.25,0.25,1.25,0.25,1.0,0.5,1.0,1.5,1.0,0.25,0.02,0.14,0.95,143.77,-1.8,-9.8
1.78,0.0,0.0,1.5,0.5,0.0,0.0,0.25,0.0,0.0,0.25,0.0,0.0,0.25,-0.17,0.14,0.95,43.81,23.9,29.9,0.25,1.75,0.0,1.0,0.25,1.0,0.0,1.0,0.5,1.0,1.5,0.75,0.25,0.02,0.14,0.95,138.86,-2.0,-4.6
1.8,0.0,0.0,1.75,0.5,0.0,0.0,0.0,0.0,0.0,0.25,0.0,0.0,0.25,-0.17,0.08,0.95,45.42,24.9,32.8,0.75,1.75,0.0,0.5,0.25,2.0,0.25,1.0,0.5,1.25,1.5,1.0,0.25,0.02,0.14,0.95,144.73,-0.6,-3.5
1.82,0.0,0.0,1.5,0.5,0.0,0.0,0.0,0.0,0.0,0.25,0.0,0.0,0.25,-0.17,0.08,0.95,45.33,23.5,30.0,0.0,1.5,0.25,1.25,0.25,1.25,0.0,1.0,0.5,1.5,1.5,1.0,0.25,0.02,0.14,0.95,146.14,-1.0,-11.4
1.84,0.0,0.0,1.5,0.5,0.0,0.0,0.0,0.0,0.0,0.25,0.0,0.0,0.25,-0.17,0.14,0.95,44.74,23.5,30.0,0.25,1.75,0.25,1.5,0.5,1.25,0.25,1.0,0.5,1.5,1.25,1.0,0.25,0.02,0.14,0.95,154.34,-2.3,-1.5
1.86,0.0,0.0,1.5,0.5,0.0,0.0,0.0,0.0,0.0,0.25,0.0,0.0,0.25,-0.17,0.08,0.95,43.94,23.5,30.0,0.25,1.75,0.25,1.25,0.0,1.25,0.5,1.0,0.5,1.0,1.5,1.0,0.25,0.02,0.14,0.95,154.48,-3.7,-3.9
1.88,0.0,0.0,1.75,0.5,0.0,0.0,0.0,0.0,0.0,0.25,0.0,0.0,0.25,-0.17,0.14,0.95,44.96,24.9,32.8,0.25,1.75,0.25,1.5,0.25,1.25,0.25,1.0,0.5,1.0,1.25,0.75,0.25,0.02,0.14,0.95,154.64,-3.2,3.1
1.9,0.0,0.0,2.0,0.5,0.0,0.0,0.0,0.0,0.0,0.25,0.0,0.0,0.25,-0.17,0.08,0.95,47.58,26.0,35.1,0.5,1.75,0.0,1.0,0.25,1.25,0.25,1.0,0.5,0.75,1.75,1.0,0.25,0.02,0.14,0.95,151.52,-3.3,-3.5
1.92,0.0,0.0,1.25,0.5,0.0,0.0,0.0,0.0,0.0,0.25,0.0,0.0,0.25,-0.17,0.08,0.95,45.69,21.9,26.5,0.5,1.75,0.0,1.25,0.5,1.25,0.5,1.0,0.5,1.25,1.5,1.0,0.25,0.02,0.14,0.95,155.96,-2.8,-1.9
1.94,0.0,0.0,1.75,0.5,0.0,0.0,0.0,0.0,0.0,0.25,0.0,0.0,0.25,-0.17,0.14,0.95,46.4,24.9,32.8,0.5,1.5,0.25,1.25,0.25,1.25,0.25,1.0,0.75,1.25,1.5,0.75,0.25,0.02,0.14,0.95,157.55,-3.3,-3.0
1.96,0.0,0.0,1.5,0.5,0.0,0.0,0.25,0.0,0.0,0.25,0.0,0.0,0.25,-0.17,0.14,0.95,45.31,23.9,29.9,0.0,1.75,0.25,1.0,0.25,1.5,0.5,1.0,0.5,1.5,1.5,1.0,0.25,0.02,0.14,0.95,159.06,-1.0,-8.6
1.98,0.0,0.0,1.5,0.5,0.0,0.0,0.0,0.0,0.0,0.25,0.0,0.0,0.25,-0.17,0.08,0.95,44.87,23.5,30.0,0.25,1.75,0.0,1.0,0.5,1.25,0.25,1.0,0.5,1.25,1.0,1.0,0.25,0.02,0.14,0.95,156.53,-0.9,-2.6
2.0,0.0,0.0,1.5,0.5,0.0,0.0,0.0,0.0,0.0,0.25,0.0,0.0,0.25,-0.17,0.08,0.95,43.77,23.5,30.0,0.0,1.75,0.0,1.75,0.25,1.25,0.25,1.0,0.5,1.5,1.75,1.0,0.25,0.02,0.14,0.95,158.2,-1.7,-8.2
2.02,0.0,0.0,1.75,0.5,0.0,0.0,0.25,0.0,0.0,0.25,0.0,0.0,0.25,-0.17,0.14,0.95,45.64,25.2,32.6,0.0,1.5,0.0,1.5,0.5,1.25,0.5,1.0,0.5,1.25,1.25,1.0,0.25,0.02,0.14,0.95,155.57,-1.2,-5.7
2.04,0.0,0.0,1.75,0.5,0.0,0.0,0.25,0.0,0.0,0.25,0.0,0.0,0.25,-0.17,0.08,0.95,47.2,25.2,32.6,0.0,1.25,0.0,1.25,0.5,1.25,0.25,1.0,0.5,1.5,1.25,1.0,0.25,0.02,0.14,0.95,151.98,0.2,-12.2
2.06,0.0,0.0,1.5,0.5,0.0,0.0,0.0,0.0,0.0,0.25,0.0,0.0,0.25,-0.17,0.14,0.95,46.79,23.5,30.0,0.0,1.75,0.0,1.25,0.5,1.25,0.25,1.0,0.5,1.0,1.0,1.0,0.25,0.02,0.14,0.95,148.3,-0.9,-1.5
2.08,0.0,0.0,1.5,0.5,0.0,0.0,0.0,0.0,0.0,0.25,0.0,0.0,0.25,-0.17,0.14,0.95,45.63,23.5,30.0,0.25,1.75,0.0,1.0,0.25,1.0,0.25,1.0,0.5,1.25,1.25,0.75,0.75,0.02,0.14,0.95,145.53,-0.9,-9.8
2.1,0.0,0.0,1.5,0.5,0.0,0.0,0.0,0.0,0.0,0.25,0.0,0.0,0.25,-0.17,0.14,0.95,44.03,23.5,30.0,0.0,1.25,0.0,1.25,0.5,1.25,0.25,1.0,0.5,1.5,1.5,1.0,0.25,0.02,0.14,0.95,145.35,0.0,-13.7
2.12,0.0,0.0,1.5,0.5,0.0,0.0,0.0,0.0,0.0,0.25,0.0,0.0,0.25,-0.17,0.08,0.95,42.91,23.5,30.0,0.0,1.75,0.0,1.25,0.25,1.0,0.0,1.0,0.5,0.75,1.5,1.0,0.25,0.02,0.14,0.95,142.04,-2.2,-6.3
2.14,0.0,0.0,1.5,0.5,0.0,0.0,0.0,0.0,0.0,0.25,0.0,0.0,0.25,-0.17,0.14,0.95,42.59,23.5,30.0,0.25,1.75,0.0,1.0,0.25,0.75,0.25,1.0,0.5,0.5,1.25,0.75,0.25,0.02,0.14,0.95,135.79,-3.9,0.9
2.16,0.0,0.0,1.5,0.5,0.0,0.0,0.0,0.0,0.0,0.25,0.0,0.0,0.25,-0.17,0.14,0.95,43.09,23.5,30.0,0.0,1.5,0.0,1.25,0.25,0.5,0.25,0.75,0.5,1.25,1.25,1.0,0.25,0.02,0.14,0.95,129.61,-3.0,-12.3
2.18,0.0,0.0,1.5,0.5,0.0,0.0,0.0,0.0,0.0,0.25,0.0,0.0,0.25,-0.17,0.08,0.95,42.64,23.5,30.0,0.0,1.75,0.0,1.0,0.25,0.5,0.25,0.5,0.5,1.0,1.0,1.0,0.25,0.02,0.14,0.95,122.72,-3.8,-6.3
2.2,0.0,0.0,1.5,0.5,0.0,0.0,0.25,0.0,0.0,0.25,0.0,0.0,0.25,-0.17,0.14,0.95,43.38,23.9,29.9,0.0,1.75,0.0,1.0,0.25,0.0,0.0,0.25,0.5,1.0,0.75,1.0,0.25,0.02,0.14,0.95,112.7,-5.6,-6.0
2.22,0.0,0.0,1.25,0.5,0.0,0.0,0.0,0.0,0.0,0.25,0.0,0.0,0.0,-0.17,0.14,0.95,40.62,26.3,43.6,0.25,1.75,0.0,0.75,0.25,0.5,0.0,0.25,0.5,0.75,0.75,0.75,0.25,0.02,0.14,0.95,105.08,-4.9,4.1
2.24,0.0,0.0,1.5,0.5,0.0,0.0,0.0,0.0,0.0,0.25,0.0,0.0,0.25,-0.17,0.14,0.95,40.64,23.5,30.0,1.25,1.75,0.0,1.0,0.25,0.25,0.0,0.0,0.5,1.25,0.75,1.0,0.25,0.02,0.14,0.95,107.02,-9.0,8.6
2.26,0.0,0.0,1.5,0.5,0.0,0.0,0.0,0.0,0.0,0.25,0.0,0.0,0.25,-0.17,0.08,0.95,40.41,23.5,30.0,0.0,1.75,0.0,1.25,0.0,0.5,0.0,0.0,0.5,1.0,0.75,1.0,0.25,0.02,0.14,0.95,105.58,-5.3,-2.3
2.28,0.0,0.0,1.5,0.5,0.0,0.0,0.0,0.0,0.0,0.25,0.0,0.0,0.25,-0.17,0.08,0.95,41.74,23.5,30.0,0.0,1.75,0.0,1.0,0.0,0.0,0.0,0.0,0.25,0.75,0.75,1.0,0.25,0.02,0.14,0.95,99.14,-7.7,-3.2
2.3,0.0,0.0,1.75,0.5,0.0,0.0,0.0,0.0,0.0,0.25,0.0,0.0,0.25,-0.17,0.08,0.95,44.09,24.9,32.8,0.25,1.5,0.0,0.5,0.25,0.0,0.0,0.0,0.25,0.5,0.75,1.0,0.25,0.02,0.14,0.95,88.61,-8.2,-3.3
2.32,0.0,0.0,1.75,0.5,0.0,0.0,0.0,0.0,0.0,0.25,0.0,0.0,0.25,-0.17,0.08,0.95,46.1,24.9,32.8,0.0,1.5,0.0,0.75,0.0,0.0,0.0,0.0,0.25,0.75,0.75,1.0,0.25,0.02,0.14,0.95,79.52,-7.0,-11.2
2.34,0.0,0.0,0.75,0.5,0.0,0.0,0.0,0.0,0.0,0.25,0.0,0.0,0.0,-0.17,0.08,0.95,40.1,22.4,37.8,0.5,1.75,0.0,0.75,0.25,0.0,0.0,0.0,0.25,1.0,1.0,1.0,0.25,0.02,0.14,0.95,81.86,-8.0,-1.5
2.36,0.0,0.0,0.25,0.5,0.0,0.0,0.0,0.0,0.0,0.5,0.0,0.0,0.0,-0.17,0.08,0.95,31.96,8.5,6.4,0.0,1.75,0.0,0.75,0.25,0.0,0.0,0.0,0.25,0.75,0.75,0.75,0.25,0.02,0.14,0.95,82.34,-6.6,1.5
2.38,0.0,0.0,1.5,0.5,0.0,0.0,0.0,0.0,0.0,0.25,0.0,0.0,0.25,-0.17,0.08,0.95,32.07,23.5,30.0,0.0,1.5,0.25,0.5,0.0,0.0,0.0,0.0,0.5,1.0,1.0,1.0,0.25,0.02,0.14,0.95,85.73,-7.3,-17.5
2.4,0.0,0.0,1.0,0.5,0.0,0.0,0.0,0.0,0.0,0.25,0.0,0.0,0.25,-0.17,0.08,0.95,31.39,19.8,22.3,0.0,1.75,0.0,0.5,0.25,0.5,0.0,0.0,0.25,0.5,0.75,1.0,0.25,0.02,0.14,0.89,85.42,-4.8,0.1
2.42,0.0,0.0,1.0,0.5,0.0,0.0,0.0,0.0,0.0,0.25,0.0,0.0,0.25,-0.17,0.14,0.95,32.8,19.8,22.3,0.0,1.5,0.0,0.75,0.25,0.0,0.0,0.0,0.25,0.5,1.0,0.75,0.25,0.02,0.14,0.89,83.87,-7.6,-3.0
2.44,0.0,0.0,1.25,0.5,0.0,0.0,0.0,0.0,0.0,0.25,0.0,0.0,0.25,-0.17,0.14,0.95,34.65,21.9,26.5,0.5,1.75,0.25,2.0,0.0,0.0,0.0,0.0,0.25,0.0,1.0,1.0,0.25,0.02,0.14,0.89,91.81,-14.6,19.9
2.46,0.0,0.0,1.0,0.5,0.0,0.0,0.0,0.0,0.0,0.25,0.0,0.0,0.25,-0.23,0.14,0.95,34.97,19.8,22.3,0.0,1.75,0.0,1.0,0.0,0.0,0.0,0.0,0.25,0.75,1.0,1.0,0.25,0.02,0.14,0.89,92.9,-7.8,-6.1
2.48,0.0,0.0,1.5,0.5,0.0,0.0,0.0,0.0,0.0,0.25,0.0,0.0,0.25,-0.3,0.14,0.95,36.71,23.5,30.0,1.25,1.5,0.0,0.5,0.25,0.0,0.0,0.0,0.25,0.75,1.0,0.75,0.25,0.02,0.14,0.95,97.94,-11.2,9.8
2.5,0.0,0.0,1.25,0.5,0.0,0.0,0.0,0.0,0.0,0.25,0.0,0.0,0.25,-0.3,0.14,0.95,37.62,21.9,26.5,0.0,1.75,0.0,0.75,0.0,0.5,0.0,0.0,0.25,0.5,1.0,1.0,0.25,0.08,0.08,1.02,97.73,-6.0,-2.9
2.52,0.0,0.0,1.0,0.5,0.0,0.0,0.0,0.0,0.0,0.25,0.0,0.0,0.25,-0.23,0.14,0.95,37.47,19.8,22.3,0.0,1.75,0.0,1.0,0.25,0.0,0.0,0.0,0.25,0.25,0.75,0.75,0.25,0.02,0.14,0.95,95.24,-9.2,11.4
2.54,0.0,0.0,0.75,0.5,0.0,0.0,0.0,0.0,0.0,0.25,0.0,0.0,0.25,-0.11,0.08,0.95,34.43,17.2,16.7,0.0,1.5,0.0,0.25,0.25,0.0,0.0,0.0,0.25,1.0,0.75,0.75,0.25,0.02,0.14,0.95,87.35,-4.1,-13.0
2.56,0.0,0.0,1.5,0.5,0.0,0.0,0.0,0.0,0.0,0.25,0.0,0.0,0.25,-0.05,0.08,0.95,37.11,23.5,30.0,0.25,1.75,0.0,1.5,0.0,0.0,0.0,0.0,0.25,0.75,0.75,1.0,0.25,0.02,0.14,0.95,90.06,-9.4,5.1
2.58,0.0,0.0,1.5,0.5,0.0,0.0,0.0,0.0,0.0,0.25,0.0,0.0,0.25,-0.17,0.08,0.95,40.03,23.5,30.0,0.0,1.75,0.25,1.0,0.5,0.25,0.0,0.0,0.25,1.25,0.75,1.0,0.25,0.02,0.14,0.95,97.35,-5.3,-0.2
2.6,0.0,0.0,1.5,0.5,0.0,0.0,0.0,0.0,0.0,0.25,0.0,0.0,0.25,-0.23,0.14,0.89,42.5,23.5,30.0,0.25,1.75,0.0,0.75,0.25,0.0,0.0,0.0,0.25,1.25,1.5,1.0,0.25,0.02,0.14,0.95,105.85,-6.5,-12.1
2.62,0.0,0.0,1.5,0.5,0.0,0.0,0.0,0.0,0.0,0.25,0.0,0.0,0.25,-0.23,0.08,0.89,43.24,23.5,30.0,0.0,1.0,0.0,0.5,0.25,0.0,0.0,0.0,0.75,1.5,2.0,1.0,0.25,0.02,0.14,0.95,110.7,-4.5,-38.1
2.64,0.0,0.0,1.5,0.5,0.0,0.0,0.0,0.0,0.0,0.25,0.0,0.0,0.25,-0.11,0.08,0.95,44.54,23.5,30.0,0.5,1.75,0.0,0.75,0.0,0.5,0.0,1.0,0.5,1.5,2.0,1.25,0.25,0.02,0.14,0.95,124.98,-3.6,-19.6
2.66,0.0,0.0,1.5,0.5,0.0,0.0,0.0,0.0,0.0,0.25,0.5,0.0,0.25,-0.05,0.08,1.02,46.62,21.5,13.3,0.5,1.75,0.25,1.0,0.25,0.0,0.0,1.0,0.5,2.25,2.0,1.0,0.5,0.02,0.14,0.95,141.13,-3.8,-20.2
2.68,0.0,0.0,1.25,0.5,0.0,0.0,0.0,0.0,0.0,0.5,0.5,0.0,0.25,0.14,0.02,1.02,48.23,17.0,2.0,0.75,1.5,0.0,0.5,0.0,0.5,0.0,1.0,0.5,3.25,2.75,1.5,0.75,0.02,0.08,0.95,164.2,-0.9,-37.5
2.7,0.0,0.0,0.0,0.5,0.0,0.0,0.0,0.0,0.0,1.0,0.25,0.0,0.25,-0.17,0.08,0.89,44.51,-3.7,-45.3,0.5,1.75,0.0,1.0,0.25,1.0,0.0,1.25,0.5,4.25,3.25,2.25,1.25,0.02,0.08,0.95,201.86,0.6,-39.5
2.72,0.0,0.0,0.25,0.5,0.0,0.0,0.0,0.0,0.0,1.25,1.25,0.75,0.5,-0.23,0.08,0.89,54.34,2.6,-61.7,0.25,1.75,0.0,1.25,0.5,0.75,0.25,2.5,0.75,4.75,4.0,2.25,1.25,0.02,0.08,0.95,242.07,1.2,-41.1
2.74,0.0,0.0,0.75,0.5,0.0,0.0,0.0,0.0,0.0,1.75,1.5,0.75,1.25,-0.17,0.08,0.95,74.62,2.4,-59.3,0.25,1.75,0.0,1.0,0.5,1.25,0.0,2.5,0.25,5.5,4.5,2.75,1.5,0.02,0.08,0.95,278.08,2.5,-45.4
2.76,0.0,0.0,0.0,0.5,0.0,0.0,0.0,0.0,0.0,2.0,0.5,1.5,1.5,-0.17,0.08,0.95,93.47,-4.1,-81.2,0.5,1.5,0.25,1.25,0.5,1.0,0.0,2.5,0.75,5.75,5.0,3.0,2.25,0.02,0.08,0.95,313.44,1.3,-47.6
2.78,0.0,0.0,0.0,0.5,0.0,0.0,0.0,0.0,0.25,3.25,2.25,2.0,2.5,-0.17,0.08,0.95,132.17,-3.0,-82.7,0.5,1.5,0.25,1.25,0.5,0.75,0.0,2.75,0.75,6.25,5.75,3.0,3.0,0.02,0.08,0.95,351.6,1.5,-51.4
2.8,0.0,0.0,0.0,0.5,0.0,0.0,0.0,0.0,0.25,3.75,0.0,2.75,2.75,-0.17,0.08,0.95,158.02,-6.0,-86.6,0.0,1.75,0.0,1.25,0.5,1.0,0.25,3.25,0.75,6.5,6.0,3.25,2.75,0.02,0.08,0.95,380.57,2.5,-52.7
2.82,0.0,0.0,0.75,0.5,0.0,0.0,0.0,0.0,0.5,3.75,4.0,3.0,3.75,-0.17,0.08,0.95,206.2,0.0,-78.0,0.25,1.75,0.25,1.0,0.5,1.25,0.25,3.25,0.75,6.5,6.0,3.5,3.0,0.02,0.08,0.95,404.04,2.2,-51.7
2.84,0.0,0.0,0.5,0.75,0.0,0.0,0.0,0.0,0.5,4.5,4.5,3.75,3.75,-0.17,0.08,0.95,246.95,-0.2,-79.2,0.5,1.5,0.0,0.5,0.5,1.25,0.0,3.25,0.75,6.5,6.0,3.5,3.0,0.02,0.08,0.95,415.89,2.9,-55.4
2.86,0.0,0.0,0.0,0.5,0.0,0.0,0.0,0.0,0.5,5.0,5.25,3.0,4.5,-0.17,0.08,0.95,282.15,-2.4,-84.7,0.0,1.75,0.25,1.75,0.25,1.75,0.25,3.5,0.75,6.5,6.0,3.5,3.0,0.02,0.08,0.95,425.31,2.4,-49.5
2.88,0.0,0.0,0.0,0.5,0.0,0.0,0.0,0.0,0.5,4.75,5.5,3.5,4.5,-0.17,0.08,0.95,303.25,-1.8,-85.4,0.25,1.25,0.25,1.25,0.5,1.0,0.0,3.0,1.0,6.5,6.0,3.75,3.25,0.02,0.08,0.95,422.18,2.0,-55.6
2.9,0.0,0.0,0.0,0.5,0.0,0.0,0.0,0.0,0.5,4.75,5.5,3.75,4.5,-0.17,0.08,0.95,319.63,-1.6,-85.7,0.0,1.75,0.0,0.75,0.5,1.0,0.0,3.25,0.75,6.5,6.0,3.75,3.0,0.02,0.08,0.95,414.31,2.9,-56.7
2.92,0.0,0.0,0.0,0.5,0.0,0.0,0.0,0.0,0.5,4.5,5.5,4.0,4.5,-0.17,0.08,0.95,325.55,-1.3,-86.1,0.25,1.75,0.0,1.25,0.5,1.0,0.0,3.25,0.75,6.5,6.0,3.75,3.0,0.02,0.08,0.95,404.44,2.2,-53.3
2.94,0.0,0.0,1.0,0.5,0.0,0.0,0.0,0.0,0.5,4.5,5.25,3.0,5.0,-0.17,0.08,0.95,324.91,-0.2,-78.0,0.25,1.75,0.0,1.25,0.5,1.0,0.25,3.75,1.0,7.0,6.25,3.75,3.25,0.02,0.08,0.95,405.22,2.4,-53.6
2.96,0.0,0.0,0.0,0.5,0.0,0.0,0.0,0.0,0.5,4.25,4.5,3.75,4.5,-0.17,0.08,0.95,313.46,-1.9,-86.5,0.5,1.75,0.25,0.75,0.5,1.5,0.25,4.0,1.0,7.0,6.75,3.75,3.75,0.02,0.08,0.95,417.29,2.6,-53.2
2.98,0.0,0.0,0.0,0.5,0.0,0.0,0.0,0.0,0.5,3.75,4.75,3.5,4.5,-0.17,0.08,0.95,298.94,-1.5,-86.4,0.25,1.75,0.0,1.25,0.5,1.0,0.5,4.0,1.0,7.25,6.75,4.25,4.0,0.08,0.08,0.95,434.97,2.4,-55.9
3.0,0.0,0.0,0.0,0.5,0.0,0.0,0.0,0.0,0.25,4.0,4.5,3.0,4.25,-0.17,0.08,0.95,283.67,-2.2,-86.0,0.0,1.75,0.0,1.25,0.5,1.5,0.25,4.0,1.0,7.5,7.25,4.0,4.0,0.08,0.08,0.95,451.81,3.1,-56.1
3.02,0.0,0.0,0.0,0.5,0.0,0.0,0.0,0.0,0.5,3.5,0.0,3.0,4.0,-0.17,0.08,0.95,248.56,-6.0,-88.9,0.0,1.75,0.25,1.5,0.5,1.25,0.5,4.0,1.0,7.25,7.25,4.25,4.25,0.08,0.08,0.95,466.02,2.3,-55.3
3.04,0.0,0.0,0.5,0.5,0.0,0.0,0.0,0.0,0.5,3.5,0.0,3.0,3.75,-0.17,0.08,0.89,217.69,-3.9,-81.9,0.25,1.75,0.0,1.5,0.5,2.0,0.5,4.25,1.0,7.75,7.5,4.5,4.25,0.08,0.08,0.95,485.8,2.8,-54.0
3.06,0.0,0.0,1.5,0.5,0.0,0.0,0.0,0.0,0.5,3.25,0.0,2.75,3.5,-0.17,0.02,0.83,188.16,-0.1,-68.8,0.25,1.75,0.0,1.5,1.0,2.0,0.5,4.25,1.0,7.5,7.5,3.75,4.25,0.08,0.08,0.95,496.65,3.0,-50.9
3.08,0.0,0.0,1.5,0.5,0.0,0.0,0.0,0.0,0.0,2.0,0.0,2.0,0.0,-0.23,0.02,0.89,141.27,8.9,-40.4,0.25,1.75,0.0,1.75,0.5,2.0,0.5,4.75,1.0,7.5,7.5,4.25,4.25,0.08,0.08,0.95,509.33,2.9,-52.4
3.1,0.0,0.0,0.0,0.5,0.0,0.0,0.0,0.0,0.0,1.75,0.0,1.25,0.0,-0.11,0.14,1.02,90.55,-2.1,-67.7,0.25,1.75,0.5,1.5,1.0,2.0,0.5,5.25,1.25,7.5,7.5,4.5,4.25,0.08,0.08,0.95,523.99,2.5,-50.1
3.12,0.0,0.0,1.25,0.0,0.0,0.0,0.5,0.0,0.0,1.75,1.5,0.75,0.0,-0.17,0.14,0.95,56.66,9.4,-43.5,0.0,1.75,0.0,1.5,0.5,2.0,0.5,5.25,1.25,7.75,7.5,4.25,4.25,0.08,0.08,0.95,531.49,3.4,-54.1
3.14,0.0,0.0,1.5,0.5,0.0,0.0,0.5,0.0,0.0,1.0,0.25,0.0,0.25,-0.17,0.08,0.95,30.04,15.5,2.3,0.25,1.75,0.25,1.75,1.0,2.0,0.5,5.25,1.25,7.75,7.5,4.75,4.5,0.08,0.08,0.95,544.53,2.7,-51.1
3.16,0.0,0.0,1.75,1.0,0.0,0.0,0.5,0.0,0.25,0.0,0.0,0.0,0.25,-0.17,0.08,0.95,17.65,26.2,38.7,0.25,1.75,0.25,1.75,1.25,2.0,0.5,5.25,1.25,8.0,7.75,4.75,4.75,0.08,0.08,0.95,557.43,2.8,-51.0
3.18,0.0,0.0,2.25,1.0,0.0,0.0,0.75,0.0,0.25,0.0,0.0,0.0,0.0,-0.17,0.08,1.14,17.78,30.5,50.9,0.25,1.75,0.25,1.75,1.75,2.0,0.75,5.25,1.25,8.0,8.0,5.0,4.75,0.08,0.08,0.95,574.44,2.5,-49.8
3.2,0.0,0.0,2.25,1.25,0.0,0.0,1.0,0.0,0.0,0.0,0.25,0.0,0.0,-0.23,0.14,1.2,25.75,29.7,48.7,0.25,1.75,0.5,1.75,0.5,2.0,0.75,5.25,1.25,8.0,8.25,5.0,4.75,0.08,0.08,0.95,581.86,2.1,-53.0
3.22,0.0,0.0,2.5,1.0,0.0,0.0,0.5,0.0,0.0,0.0,0.0,0.0,0.0,-0.17,0.14,1.2,30.35,32.2,58.0,0.5,1.75,0.0,1.75,1.25,2.0,0.5,5.75,1.25,8.5,8.5,5.0,4.75,0.08,0.08,0.95,596.5,2.8,-51.8
3.24,0.0,0.0,1.75,1.0,0.0,0.0,0.5,0.0,0.0,0.25,0.0,0.0,0.0,-0.17,0.2,1.27,34.99,27.2,47.3,0.5,1.75,0.0,2.0,1.0,2.0,0.75,6.0,1.25,8.5,8.5,5.25,5.25,0.08,0.08,0.95,611.99,2.7,-52.6
3.26,0.0,0.0,2.5,0.5,0.0,0.0,0.5,0.0,0.0,0.25,0.0,0.0,0.0,-0.23,0.27,1.27,41.63,31.0,48.7,0.25,1.75,0.25,1.75,0.25,2.25,0.5,6.0,1.25,8.75,8.5,5.5,5.5,0.08,0.08,0.95,625.87,3.1,-56.2
3.28,0.0,0.0,1.25,0.5,0.0,0.0,0.25,0.0,0.0,0.25,0.0,0.0,0.0,-0.23,0.27,1.39,35.94,26.7,42.7,0.5,2.0,0.5,1.5,1.5,2.25,0.75,6.25,1.25,8.75,8.5,5.5,5.5,0.08,0.08,0.95,645.26,2.7,-50.5
3.3,0.0,0.0,1.5,0.5,0.0,0.0,0.5,0.0,0.0,0.25,0.0,0.0,0.0,-0.17,0.27,1.27,36.33,28.1,43.8,0.0,1.75,0.0,1.5,1.5,2.5,0.75,6.25,1.25,9.0,8.5,5.75,5.75,0.08,0.08,0.95,662.14,3.8,-54.7
3.32,0.0,0.0,1.5,0.5,0.0,0.0,0.0,0.0,0.0,0.25,0.0,0.0,0.0,-0.42,-0.36,0.83,37.73,27.7,45.5,0.25,1.75,0.5,1.75,1.75,2.5,1.0,6.5,1.25,9.0,8.5,5.75,5.75,0.08,0.08,0.95,680.04,3.0,-50.9
3.34,0.0,0.0,1.75,0.5,0.0,0.0,0.0,0.0,0.0,0.25,0.0,0.0,0.0,-0.67,-0.86,0.7,38.28,28.7,47.1,0.25,1.75,0.25,2.0,1.5,2.75,1.0,6.75,1.25,8.75,8.5,5.5,5.75,0.08,0.08,0.95,688.47,3.3,-50.7
3.36,0.0,0.0,1.5,0.5,0.0,0.0,0.0,0.0,0.0,0.25,0.0,0.0,0.0,-0.73,-0.86,0.83,35.47,27.7,45.5,0.25,1.75,0.5,2.0,2.5,2.75,1.0,6.75,1.5,8.75,8.5,5.5,5.5,0.08,0.08,0.95,701.0,2.9,-47.1
3.38,0.0,0.0,1.25,0.5,0.0,0.0,0.25,0.0,0.0,0.25,0.0,0.0,0.0,-0.48,-1.05,0.83,35.59,26.7,42.7,0.5,1.75,0.5,2.0,2.5,3.5,0.75,7.0,1.5,8.5,8.25,5.25,5.25,0.08,0.08,0.95,702.88,3.2,-44.3
3.4,0.0,0.0,1.75,0.0,0.0,0.0,0.0,0.0,0.0,0.0,0.25,0.0,0.0,-0.3,-0.92,1.02,32.84,35.0,44.8,0.5,2.25,0.5,2.0,3.0,4.0,1.25,7.0,1.5,8.5,8.5,5.25,5.5,0.08,0.08,0.95,716.6,3.0,-41.1
3.42,0.0,0.0,0.5,0.25,0.0,0.0,0.0,0.0,0.0,0.0,0.0,0.0,0.0,-0.23,-0.8,1.2,23.34,31.1,59.9,0.5,2.25,0.5,2.0,3.75,4.5,1.0,7.0,1.5,8.25,8.25,5.0,5.25,0.08,0.08,0.95,724.61,3.3,-37.8
3.44,0.0,0.0,0.5,0.25,0.0,0.0,0.0,0.0,0.0,0.0,0.0,0.0,0.0,-0.17,-0.55,1.27,15.74,31.1,59.9,1.25,2.5,0.5,2.0,4.25,4.5,1.25,7.0,2.0,8.0,8.0,5.0,4.75,0.08,0.08,0.95,734.93,2.4,-33.0
3.46,0.0,0.0,1.0,0.5,0.0,0.0,0.25,0.0,0.0,0.25,0.0,0.0,0.0,-0.11,-0.3,1.27,16.87,25.1,40.3,1.25,2.5,0.5,2.0,4.25,5.25,1.5,7.0,1.5,8.0,7.75,5.0,5.0,0.08,0.08,0.95,738.5,2.8,-32.0
3.48,0.0,0.0,1.5,0.5,0.0,0.0,0.25,0.0,0.0,0.25,0.0,0.0,0.0,-0.11,-0.05,1.39,24.13,27.9,44.6,1.5,2.5,0.5,3.0,4.75,6.0,2.0,7.0,1.75,7.5,7.5,4.0,4.25,0.08,0.08,0.95,741.56,2.3,-24.2
3.5,0.0,0.0,2.0,0.5,0.0,0.0,0.0,0.0,0.0,0.25,0.0,0.0,0.0,-0.17,0.14,1.33,34.31,29.6,48.3,2.0,2.5,0.5,4.0,6.0,6.5,2.25,7.0,1.5,7.0,6.75,3.75,3.5,0.08,0.08,0.95,753.41,1.7,-15.8
3.52,0.0,0.0,1.75,0.5,0.0,0.0,0.0,0.0,0.0,0.25,0.0,0.0,0.0,-0.17,0.33,1.33,41.72,28.7,47.1,2.0,2.5,1.75,4.5,6.75,7.0,3.25,7.0,1.25,5.75,5.75,3.0,2.5,0.08,0.08,0.95,764.88,0.3,-5.3
3.54,0.0,0.0,1.75,0.25,0.0,0.0,0.25,0.0,0.0,0.0,0.0,0.0,0.0,-0.3,0.52,1.33,42.81,35.4,58.7,2.75,2.5,3.25,6.25,8.0,7.75,2.75,6.25,0.75,4.5,4.0,1.75,1.75,0.08,0.14,0.95,783.97,-1.4,11.1
3.56,0.0,0.0,0.75,0.25,0.0,0.0,0.0,0.0,0.0,0.0,0.0,0.0,0.0,-0.3,0.77,1.27,34.66,32.9,60.2,3.5,2.75,3.75,6.75,8.25,8.0,4.25,6.0,0.25,3.25,4.0,1.5,1.25,0.08,0.14,0.95,804.11,-3.2,18.8
3.58,0.0,0.0,1.5,0.5,0.0,0.0,0.0,0.0,0.0,0.25,0.0,0.0,0.0,-0.23,0.95,0.89,34.29,27.7,45.5,3.0,2.5,5.5,6.25,9.25,7.75,5.25,5.25,0.25,1.5,2.75,0.75,1.25,0.14,0.14,1.02,808.1,-4.9,27.9
3.6,0.0,0.0,1.75,0.5,0.0,0.0,0.0,0.0,0.0,0.25,0.0,0.0,0.0,0.02,1.27,0.77,36.72,28.7,47.1,3.5,2.0,5.5,7.5,8.5,7.75,5.75,4.0,0.5,1.5,2.0,0.5,0.0,0.08,0.14,1.2,790.18,-6.8,35.7
3.62,0.0,0.0,2.0,0.5,0.0,0.0,0.0,0.0,0.0,0.25,0.0,0.0,0.0,0.2,1.45,0.77,43.39,29.6,48.3,3.5,2.0,6.25,8.0,8.5,6.0,5.75,2.5,0.25,0.0,1.5,0.75,0.25,0.08,0.2,1.14,747.48,-10.0,42.9
3.64,0.0,0.0,1.75,0.5,0.0,0.0,0.0,0.0,0.0,0.0,0.0,0.0,0.0,0.2,1.7,0.83,45.55,33.5,60.3,5.25,2.5,6.75,8.5,8.5,6.0,5.0,2.5,0.75,1.5,2.0,1.0,0.5,0.02,0.2,1.27,748.13,-10.2,38.6
3.66,0.0,0.0,2.0,0.5,0.0,0.0,0.0,0.0,0.0,0.25,0.0,0.0,0.25,0.08,2.52,-0.67,50.53,26.0,35.1,5.0,2.25,7.0,7.25,8.25,2.75,5.25,2.0,0.0,0.0,2.0,0.75,0.0,0.14,0.33,1.58,701.34,-14.1,46.8
3.68,0.0,0.0,0.0,0.5,0.0,0.0,0.0,0.0,0.0,1.5,1.25,1.25,0.25,-0.23,-0.48,0.58,61.19,1.2,-71.6,4.5,1.75,5.0,4.5,4.75,0.5,4.25,1.0,0.0,0.0,0.75,0.25,0.0,0.27,0.45,1.83,569.27,-18.5,55.0
3.7,0.0,0.0,0.25,0.5,0.0,0.0,0.0,0.0,0.0,3.75,2.25,2.0,2.0,0.14,0.39,2.08,105.57,-2.5,-78.6,3.0,1.75,2.0,4.25,2.75,0.75,3.25,1.0,0.5,1.75,0.75,0.75,0.0,0.27,0.64,2.33,416.29,-12.9,35.0
3.72,0.0,0.0,0.25,0.25,0.0,0.0,0.0,0.0,0.5,3.75,3.75,2.0,2.75,-0.17,0.39,1.7,157.69,-1.5,-81.3,1.5,0.75,0.5,1.5,3.5,0.0,2.0,0.5,0.25,0.5,0.75,0.25,0.0,0.33,0.58,2.08,273.83,-10.4,37.4
3.74,0.0,0.0,1.5,0.25,0.0,0.0,0.0,0.0,0.5,3.5,3.0,2.0,2.0,-0.11,0.14,1.02,194.94,2.7,-65.7,0.0,0.0,0.25,0.0,2.5,0.0,1.0,0.75,0.0,0.75,2.0,0.0,0.25,0.39,0.64,2.2,154.06,-1.2,-10.4
3.76,0.0,0.0,0.0,0.25,0.0,0.0,3.0,0.0,0.75,3.75,0.25,1.5,1.5,-0.11,0.08,0.95,200.44,-0.4,-64.3,0.0,0.0,0.0,0.0,0.0,0.0,0.0,0.5,0.0,0.0,0.25,0.25,0.0,0.45,-0.3,1.27,22.67,3.6,-65.6
3.78,0.0,0.0,1.5,0.5,0.0,0.0,0.5,0.0,1.0,5.0,5.75,2.0,2.5,-0.11,0.08,0.95,234.06,2.8,-65.4,0.0,0.75,0.0,0.0,0.0,0.0,0.0,0.0,0.0,0.25,0.75,0.25,0.0,0.95,-0.73,0.45,0.0,-7.9,-12.2
3.8,0.0,0.0,2.25,1.75,0.0,0.0,0.5,1.75,1.5,5.0,6.25,2.25,4.25,-0.11,0.08,0.95,282.37,2.5,-56.6,0.0,0.5,0.0,0.0,0.0,0.0,0.0,0.0,0.0,0.0,0.25,0.25,0.0,0.89,-0.86,1.58,0.0,-11.2,5.4
3.82,0.0,0.0,2.0,2.0,0.0,0.0,0.75,2.5,1.0,5.5,5.5,2.5,4.0,-0.11,0.08,0.95,333.83,1.3,-55.8,0.0,0.75,0.0,0.0,0.0,0.0,0.0,0.0,0.0,0.5,0.5,0.0,0.0,0.33,-0.92,0.83,0.0,-4.0,1.2
3.84,0.0,0.0,1.5,1.25,0.0,0.0,0.75,3.75,1.0,6.0,6.0,3.0,4.25,-0.11,0.08,0.95,385.04,-0.8,-62.8,0.0,0.75,0.0,0.0,0.0,0.0,0.0,0.0,0.25,0.5,0.25,0.25,0.0,0.45,-0.55,0.52,0.0,-4.8,-8.1
3.86,0.0,0.0,0.5,2.0,0.0,0.0,1.0,3.5,0.75,6.0,5.75,2.5,4.25,-0.11,0.08,0.95,409.94,-1.9,-63.1,0.0,0.75,0.0,0.0,0.0,0.0,0.0,0.0,0.0,0.5,0.25,0.25,0.0,0.58,-0.61,0.58,0.0,-3.8,-3.8
3.88,0.0,0.0,0.75,2.0,0.0,0.0,0.75,3.5,0.75,5.25,5.75,2.25,3.75,-0.11,0.08,0.95,407.24,-1.1,-60.4,0.0,0.75,0.0,0.0,0.0,0.0,0.0,0.0,0.25,0.0,0.0,0.0,0.0,0.45,-0.55,0.89,0.0,-12.5,65.6
3.9,0.0,0.0,0.0,2.0,0.0,0.0,0.75,3.5,0.5,5.5,5.5,2.0,3.75,-0.11,0.08,0.95,387.07,-2.9,-64.1,0.0,0.75,0.0,0.0,0.0,0.0,0.0,0.0,0.0,0.0,0.0,0.0,0.0,0.33,-0.42,1.14,0.0,-12.6,98.9
3.92,0.0,0.5,1.25,2.0,0.0,0.0,0.5,3.5,0.75,5.0,4.75,2.0,3.75,-0.11,0.08,0.95,369.79,-0.5,-53.4,0.0,0.75,0.0,0.0,0.0,0.0,0.0,0.0,0.0,0.0,0.0,0.0,0.0,0.27,-0.23,1.14,0.0,-12.6,98.9
3.94,0.0,0.5,1.5,1.0,0.0,0.0,0.75,4.0,0.75,3.75,4.0,2.0,2.5,-0.11,0.08,0.95,336.8,0.1,-51.2,0.0,0.75,0.0,0.0,0.0,0.0,0.0,0.0,0.0,0.25,0.0,0.0,0.0,0.2,-0.05,1.2,0.0,-5.6,56.3
3.96,0.0,0.5,1.0,2.25,0.0,0.0,1.0,4.5,0.75,4.75,4.0,2.25,2.75,-0.11,0.08,0.95,325.65,-0.6,-49.2,0.0,0.75,0.0,0.0,0.0,0.0,0.0,0.0,0.0,0.0,0.0,0.0,0.0,0.14,0.08,1.33,0.0,-12.6,98.9
3.98,0.0,0.5,0.5,2.5,0.0,1.25,0.5,4.5,0.75,4.0,3.75,1.5,2.5,-0.11,0.08,0.95,310.17,-2.7,-42.9,0.0,1.0,0.0,0.0,0.0,0.0,0.0,0.0,0.0,0.0,0.0,0.25,0.0,0.14,0.27,1.64,11.27,-11.8,58.3
4.0,0.0,1.0,1.0,2.5,0.0,1.75,0.75,4.75,0.75,3.75,3.0,1.25,2.5,-0.11,0.08,0.95,299.68,-2.2,-33.1,0.0,0.75,0.0,0.0,0.0,0.0,0.0,0.0,0.0,0.0,0.0,0.25,0.0,0.08,0.33,1.83,17.07,-11.7,48.1
4.02,0.0,1.0,0.0,2.5,0.0,2.25,0.75,4.75,0.75,3.75,3.0,0.75,1.75,-0.11,0.08,0.95,280.04,-4.5,-31.6,0.0,0.75,0.0,0.0,0.0,0.0,0.0,0.0,0.0,0.0,0.0,0.0,0.0,0.08,0.45,1.95,15.89,-12.6,98.9
4.04,0.0,1.0,0.0,2.5,0.0,2.75,1.0,4.75,0.75,3.5,2.75,0.75,1.5,-0.11,0.08,0.95,267.52,-4.7,-27.7,0.0,0.75,0.0,0.0,0.0,0.0,0.0,0.0,0.0,0.0,0.0,0.25,0.0,0.08,0.64,2.14,15.95,-11.7,48.1
4.06,0.0,1.0,0.0,2.75,0.0,3.75,1.0,5.0,0.5,2.75,2.25,0.75,1.25,-0.11,0.08,0.95,258.72,-5.4,-19.9,0.0,0.75,0.0,0.0,0.0,0.0,0.0,0.0,0.0,0.0,0.0,0.0,0.0,0.2,1.14,2.52,14.4,-12.6,98.9
4.08,0.0,1.0,0.0,3.25,0.0,4.5,1.25,5.0,0.75,2.0,2.25,0.75,1.25,-0.11,0.08,0.95,258.54,-4.7,-14.1,0.0,0.75,0.0,0.0,0.0,0.0,0.0,0.0,0.0,0.0,0.0,0.25,0.0,0.14,1.52,2.2,15.09,-11.7,48.1
4.1,0.0,1.0,1.5,4.25,4.75,5.0,1.25,5.0,0.5,1.75,1.5,0.25,1.25,-0.11,0.08,0.95,291.54,-2.2,10.7,0.0,0.75,0.0,0.0,0.0,0.0,0.0,0.0,0.0,0.0,0.0,0.0,0.0,-0.48,2.08,1.45,15.07,-12.6,98.9
4.12,1.5,1.25,1.5,4.5,3.5,5.5,1.5,4.75,0.5,2.0,1.5,0.0,1.0,-0.11,0.14,0.95,332.16,-0.2,16.3,0.0,0.75,0.0,0.0,0.0,0.0,0.0,0.0,0.0,0.0,0.0,0.0,0.0,-0.73,2.7,0.64,15.5,-12.6,98.9
4.14,1.5,1.25,2.75,6.25,6.25,6.0,1.5,4.75,0.25,1.75,1.75,0.0,1.0,-0.11,0.14,0.95,403.79,1.5,24.1,0.0,0.75,0.0,0.0,0.0,0.0,0.0,0.0,0.0,0.0,0.0,0.25,0.0,-1.23,3.2,0.02,15.93,-11.7,48.1
4.16,2.25,1.25,0.0,6.25,6.5,6.25,2.0,4.75,0.0,1.75,1.25,0.0,0.75,-0.11,0.14,0.95,453.7,-0.9,25.9,0.0,0.75,0.0,0.0,0.0,0.0,0.0,0.0,0.0,0.25,0.0,0.25,0.0,-1.48,3.27,-1.48,17.79,-6.3,23.8
4.18,2.25,1.25,0.0,7.5,0.0,6.75,2.0,3.75,0.0,1.0,1.25,0.0,0.5,-0.11,0.14,1.02,444.83,1.4,26.4,0.0,0.75,0.0,0.0,0.0,0.0,0.0,0.0,0.0,1.25,0.75,1.0,0.0,-1.36,3.52,-0.23,33.26,-1.8,-48.5
4.2,2.25,1.25,0.0,8.0,0.0,6.75,2.0,3.5,0.0,1.0,1.25,0.0,0.5,-0.11,0.2,1.02,411.33,2.0,27.7,0.0,1.0,0.0,0.0,0.0,0.0,0.0,0.0,0.0,4.75,2.0,3.0,1.25,-0.11,0.39,1.77,95.53,2.6,-72.7
4.22,3.5,1.5,0.0,8.0,0.0,6.75,2.0,3.0,0.0,0.5,1.0,0.0,0.25,-0.17,0.2,1.02,385.58,4.4,37.4,0.0,0.0,0.0,0.0,0.0,0.0,0.0,0.0,0.0,6.75,4.25,3.75,4.0,-0.42,0.45,2.7,185.68,4.5,-89.9
4.24,0.0,2.25,5.5,9.0,0.0,6.75,2.25,2.0,0.0,0.0,0.75,0.0,0.25,-0.17,0.2,1.02,385.17,9.6,43.3,0.0,0.0,0.0,0.0,0.0,0.0,0.0,1.0,0.5,7.25,6.25,3.75,3.75,0.08,0.33,1.64,269.1,3.5,-84.7
4.26,4.75,2.0,6.0,9.0,0.0,6.5,2.5,1.75,0.5,0.0,0.75,0.0,0.0,-0.17,0.2,1.02,418.9,14.2,51.2,0.0,0.5,0.0,0.0,0.0,0.0,0.0,2.5,1.0,7.5,6.75,3.25,3.0,-0.17,0.39,0.95,336.42,3.4,-75.4
4.28,5.25,2.25,6.5,9.0,0.0,0.0,2.75,1.75,0.0,0.0,0.75,0.0,0.0,-0.23,0.27,1.14,427.65,23.5,58.1,0.0,1.0,0.0,0.75,0.0,0.0,1.0,2.75,1.5,8.0,8.0,4.5,3.0,0.08,0.14,0.95,408.89,1.0,-67.8
4.3,5.5,2.0,6.5,9.0,0.0,0.0,2.75,0.5,0.0,0.25,0.25,0.0,0.0,-0.23,0.27,1.2,416.43,25.6,64.0,2.5,1.75,1.25,2.25,0.25,2.5,2.0,4.0,2.0,9.0,9.25,5.0,4.25,0.08,0.14,0.95,537.45,-1.4,-41.8
4.32,6.25,1.25,7.0,8.0,0.0,0.0,2.75,0.25,0.0,0.0,0.0,0.0,0.0,-0.17,0.33,1.45,385.18,27.9,67.9,1.25,1.5,1.75,2.0,0.0,2.0,2.75,4.0,2.0,8.25,9.0,4.0,3.5,0.08,0.08,0.95,620.84,-1.7,-43.2
4.34,6.25,0.0,6.5,6.25,0.0,0.0,2.75,0.0,0.0,0.0,0.5,0.0,0.0,-0.23,0.39,1.7,343.43,29.7,65.0,1.5,1.5,1.75,2.0,0.0,2.5,3.25,4.0,1.75,8.0,9.0,3.5,3.25,0.08,0.08,0.95,676.52,-1.9,-39.7
4.36,6.25,0.0,5.5,3.5,0.0,0.0,2.0,0.0,0.0,0.0,0.0,0.0,0.0,-0.36,0.64,2.2,291.9,31.9,71.6,2.5,2.25,4.5,3.5,4.25,4.5,4.5,5.25,2.25,8.0,9.0,4.0,4.0,0.08,0.08,0.95,788.18,-3.4,-18.0
4.38,4.25,0.0,0.0,2.75,0.0,0.0,1.0,0.0,0.0,0.0,0.0,0.0,0.0,-0.42,0.83,2.39,220.06,27.8,77.5,2.75,2.5,5.5,4.0,4.25,4.5,5.0,5.25,2.25,7.5,9.0,3.5,3.75,0.08,0.08,0.95,888.32,-4.6,-13.0
4.4,1.5,0.0,3.0,2.5,0.0,0.0,0.5,0.0,0.0,0.0,0.25,0.0,0.0,-0.3,0.83,2.52,158.45,29.3,61.3,3.0,2.5,5.5,4.5,4.25,4.5,5.0,4.75,2.0,7.0,8.5,3.0,3.25,0.08,0.08,0.95,955.87,-5.3,-8.7
4.42,0.0,0.0,2.25,0.0,0.0,0.0,0.0,0.0,0.0,0.0,0.0,0.0,0.0,-0.86,-0.17,2.2,77.6,38.2,61.0,3.0,2.75,5.5,5.0,4.5,4.75,5.0,4.25,1.0,5.75,7.5,2.75,2.25,0.08,0.08,0.95,957.37,-6.1,-0.7
4.44,0.0,0.0,0.0,0.0,0.0,0.0,0.0,0.0,0.0,0.0,0.0,0.0,0.0,-0.05,-0.55,2.39,2.55,0.0,0.0,4.0,3.0,5.5,4.5,4.75,5.5,5.25,4.0,1.0,4.5,5.75,1.5,1.5,0.08,0.08,0.95,912.25,-6.9,11.2
4.46,0.0,0.0,0.0,0.0,0.0,0.0,0.0,0.0,0.0,0.0,0.0,0.0,0.0,-0.23,-1.3,0.89,0.0,0.0,0.0,4.0,2.75,5.75,5.0,5.5,5.5,5.0,4.0,1.0,3.0,4.25,1.0,1.25,0.08,0.08,0.95,839.51,-7.6,19.8
4.48,0.0,0.0,0.0,0.0,0.0,0.0,0.0,0.0,0.0,0.0,0.0,0.0,0.0,-0.17,-1.23,1.7,0.0,0.0,0.0,4.0,2.5,6.25,5.5,6.25,5.75,4.5,2.75,1.0,2.25,3.25,1.0,1.0,0.08,0.14,0.95,778.76,-8.7,27.0
4.5,0.0,0.0,0.0,0.0,0.0,0.0,0.0,0.0,0.0,0.0,0.0,0.0,0.0,-0.17,-0.36,1.02,0.0,0.0,0.0,4.0,2.5,6.25,6.25,6.5,6.0,5.25,2.75,1.0,2.25,3.25,1.0,0.5,0.08,0.14,0.95,745.3,-9.1,29.3
4.52,0.0,0.0,0.0,0.0,0.0,0.0,0.0,0.0,0.0,0.0,0.0,0.0,0.0,-0.42,-0.23,0.33,0.0,0.0,0.0,4.0,2.5,6.75,6.5,6.75,6.0,4.25,2.5,0.75,2.0,2.5,1.0,0.25,0.08,0.14,0.89,712.9,-9.5,33.9
4.54,0.0,0.0,0.0,0.0,0.0,0.0,0.0,0.0,0.0,0.0,0.0,0.0,0.0,-0.55,-0.17,0.33,0.0,0.0,0.0,4.0,2.5,7.0,6.5,7.25,6.0,5.0,2.5,0.25,2.0,2.0,1.0,0.5,0.08,0.14,0.95,694.9,-9.5,35.4
4.56,0.0,0.0,0.0,0.0,0.0,0.0,0.0,0.0,0.0,0.0,0.0,0.0,0.0,-0.36,-0.23,0.7,0.0,0.0,0.0,4.0,2.5,7.0,7.0,8.0,6.5,5.0,2.5,0.5,1.5,2.0,0.75,0.5,0.08,0.14,0.95,700.25,-9.3,37.5
4.58,0.0,0.0,0.0,0.5,0.0,0.0,0.0,0.0,0.0,0.25,0.0,0.0,0.0,-0.11,-0.23,1.14,0.0,6.5,14.7,4.0,2.5,7.0,8.25,8.25,7.0,5.25,1.5,0.25,0.25,1.5,0.25,0.0,0.08,0.14,0.89,692.93,-10.7,48.1
4.6,0.0,0.0,1.5,0.0,0.0,0.0,0.0,0.0,0.25,0.0,0.5,0.0,0.0,-0.11,-0.05,1.14,0.0,29.6,21.1,3.0,1.75,6.5,6.75,7.75,6.75,5.0,1.25,0.25,0.0,0.75,0.25,0.0,0.08,0.14,0.95,640.05,-10.1,49.0
4.62,0.0,0.0,1.25,0.5,0.0,0.0,0.0,0.0,0.0,0.0,0.5,0.0,0.0,-0.23,0.2,1.08,13.49,27.6,31.5,4.0,2.0,7.0,8.25,8.0,7.25,5.25,1.25,0.25,0.25,0.75,0.25,0.0,0.08,0.14,0.95,636.13,-10.7,49.9
4.64,0.0,0.0,0.75,0.25,0.0,0.0,0.0,0.0,0.0,0.0,0.0,0.0,0.0,-0.23,0.33,1.2,22.25,32.9,60.2,4.0,2.25,7.25,8.25,8.25,7.75,5.75,1.25,0.25,1.5,0.75,1.0,0.0,0.08,0.14,0.95,657.92,-9.8,44.1
4.66,0.0,0.0,0.75,0.25,0.0,0.0,0.0,0.0,0.0,0.0,0.0,0.0,0.0,-0.17,0.39,1.39,28.18,32.9,60.2,5.75,3.0,8.25,11.5,9.25,7.75,6.25,1.25,0.25,1.5,2.0,1.0,0.5,0.08,0.14,0.95,763.1,-11.2,43.7
4.68,0.0,0.0,0.25,0.5,0.0,0.0,0.0,0.0,0.0,0.0,0.0,0.0,0.0,-0.11,0.39,1.64,24.97,24.1,58.9,5.75,2.5,8.75,10.0,10.5,7.5,6.5,1.25,0.0,1.5,1.5,1.0,0.0,0.08,0.2,1.02,851.21,-11.3,46.0
4.7,0.0,0.0,0.0,0.25,0.0,0.0,0.0,0.0,0.0,0.0,0.0,0.0,0.0,-0.3,0.58,1.95,17.35,17.2,57.9,6.0,2.5,9.5,11.5,11.0,6.75,6.75,1.0,0.0,0.75,0.75,0.0,0.0,0.02,0.2,1.02,930.85,-12.8,53.5
4.72,0.0,0.0,0.75,0.25,0.0,0.0,0.0,0.0,0.0,0.0,0.0,0.0,0.0,-0.42,0.95,2.27,16.26,32.9,60.2,6.5,2.5,9.5,11.5,9.25,7.0,7.0,1.0,0.0,1.5,0.75,0.75,0.0,0.02,0.2,1.02,963.59,-13.1,49.7
4.74,0.0,0.0,0.25,0.25,0.0,0.0,0.0,0.0,0.0,0.0,0.0,0.0,0.0,-0.42,1.7,2.27,13.84,27.6,59.4,7.25,2.5,11.0,12.0,9.25,5.5,7.25,0.0,0.0,0.0,0.75,0.25,0.0,0.02,0.27,0.95,970.31,-16.5,57.8
4.76,0.0,0.0,0.25,1.0,0.0,0.0,0.0,0.0,0.0,0.0,0.0,0.0,0.0,-0.36,2.27,2.14,17.22,21.3,58.5,7.5,2.5,11.0,11.5,8.75,4.0,7.25,0.0,0.75,1.5,0.25,0.75,0.0,0.08,0.33,1.27,962.46,-16.9,53.2
4.78,0.0,0.0,1.0,0.25,0.0,0.0,0.0,0.0,0.0,0.0,0.5,0.0,0.0,0.33,2.89,1.02,21.37,27.6,23.3,7.25,2.5,11.0,10.5,8.0,2.0,7.0,0.0,0.0,0.0,1.0,0.25,0.0,0.02,0.33,1.27,909.51,-19.8,59.0
4.8,0.0,0.0,1.5,0.5,0.0,0.0,0.0,0.0,0.0,0.0,0.0,0.0,0.0,0.58,3.52,0.39,28.42,32.9,60.2,8.0,2.5,9.5,8.5,7.0,1.0,7.25,0.0,0.75,1.0,0.0,0.5,0.25,0.14,0.45,1.52,833.5,-20.1,56.5
4.82,0.0,0.0,1.5,0.5,0.0,0.0,0.0,0.0,0.0,0.0,0.5,0.0,0.0,0.52,3.52,-0.17,34.86,28.7,34.4,7.75,3.0,8.0,7.5,4.25,1.0,6.5,0.0,0.75,1.5,0.75,1.0,0.25,0.2,0.77,2.2,732.55,-20.3,50.9
4.84,0.0,0.0,1.5,0.0,0.0,0.0,0.0,0.0,0.0,0.0,0.0,0.0,0.0,0.77,3.33,-1.23,34.92,38.2,60.9,6.0,1.75,6.75,4.5,1.0,0.0,5.75,0.0,0.0,0.0,0.0,0.25,0.0,0.45,0.95,2.33,549.47,-28.1,66.0
4.86,0.0,0.0,1.5,0.5,0.0,0.0,0.0,0.0,0.0,0.0,0.5,0.0,0.0,0.33,-0.8,0.2,40.05,28.7,34.4,4.25,1.0,3.5,2.5,0.5,0.0,4.25,0.0,0.25,0.0,0.0,0.25,0.0,0.45,0.89,2.33,355.62,-28.2,63.6
4.88,0.0,0.0,1.0,0.25,0.0,0.0,0.0,0.0,0.0,1.25,2.0,1.25,1.5,-0.05,0.2,1.83,70.04,4.8,-64.5,2.75,1.75,2.25,3.0,0.0,0.5,2.25,0.0,0.0,0.75,0.0,0.5,0.0,0.52,0.45,2.52,229.16,-21.5,54.4
4.9,0.0,0.0,0.0,0.25,0.0,0.0,0.0,0.0,0.0,2.5,2.25,2.0,2.0,-0.3,0.45,2.14,109.09,-2.4,-87.0,0.75,0.0,2.75,0.5,0.5,0.25,0.0,0.0,0.25,0.25,1.25,0.25,0.25,0.58,-0.92,1.83,106.35,-20.5,19.0
4.92,0.0,0.0,0.75,0.75,0.0,0.0,0.0,0.0,0.0,0.0,3.0,1.75,2.75,-0.8,0.45,2.08,140.17,5.6,-69.6,0.25,0.25,0.5,0.0,0.0,0.0,0.0,0.0,0.0,0.0,0.0,0.0,0.0,1.14,-0.36,1.77,0.0,-30.9,79.2
4.94,0.0,0.0,0.0,0.0,0.0,0.0,0.0,0.0,0.0,0.0,0.5,0.0,0.0,-0.11,0.14,1.02,114.93,10.7,-75.5,0.0,0.75,0.5,0.0,0.0,0.0,0.0,0.0,0.0,0.0,0.0,0.0,0.0,0.64,-1.05,1.89,0.0,-22.8,83.7
4.96,0.0,0.0,0.0,0.5,0.0,0.0,0.5,0.5,0.25,5.0,5.75,0.0,1.25,-0.17,0.14,0.95,148.08,-1.8,-69.6,0.0,0.75,0.5,0.0,0.0,0.0,0.0,0.0,0.0,0.0,0.0,0.0,0.0,0.33,-0.55,0.7,0.0,-22.8,83.7
4.98,0.0,0.0,0.5,0.0,0.0,0.0,0.5,3.25,0.0,5.5,5.5,0.0,2.25,-0.11,0.08,0.95,189.84,-5.1,-67.6,0.0,0.75,0.5,0.0,0.0,0.0,0.0,0.0,0.0,0.0,0.0,0.0,0.0,0.45,-0.42,0.45,0.0,-22.8,83.7
5.0,0.0,0.0,0.75,1.5,0.0,0.0,0.75,3.5,0.0,6.0,5.75,0.0,3.0,-0.11,0.08,0.95,250.69,-3.2,-57.5,0.0,0.0,0.5,0.0,0.0,0.0,0.0,0.0,0.0,0.0,0.0,0.0,0.0,0.45,-0.36,0.52,0.0,-38.2,60.9
5.02,0.0,0.75,0.0,2.5,0.0,0.0,1.0,4.5,0.75,6.0,6.0,2.0,3.75,-0.11,0.08,0.95,313.25,-2.3,-55.8,0.0,0.0,0.5,0.0,0.0,0.0,0.0,0.0,0.0,0.0,0.0,0.0,0.0,0.14,-0.23,0.89,0.0,-38.2,60.9
5.04,0.0,1.0,0.0,0.0,0.0,0.75,1.0,3.75,0.0,4.75,5.75,1.0,2.75,-0.11,0.08,0.95,341.08,-4.7,-59.9,0.0,0.0,0.5,0.0,0.0,0.0,0.0,0.0,0.0,0.0,0.0,0.0,0.0,0.08,-0.17,0.95,0.0,-38.2,60.9
5.06,0.0,0.0,0.0,0.5,0.0,2.0,0.75,4.5,0.0,3.5,4.0,0.75,1.5,-0.11,0.08,0.95,327.18,-7.4,-51.8,0.0,0.25,0.25,0.0,0.0,0.0,0.0,0.0,0.0,0.0,0.0,0.0,0.0,0.02,-0.05,0.95,0.0,-25.4,79.9
5.08,0.0,0.0,0.0,1.25,0.0,3.5,0.75,4.0,0.0,3.25,3.0,0.75,1.25,-0.11,0.08,0.95,296.31,-8.1,-37.5,0.0,0.75,0.5,0.0,0.0,0.0,0.0,0.0,0.0,0.0,0.0,0.0,0.0,-0.05,0.08,1.02,0.0,-22.8,83.7
5.1,0.0,0.75,0.0,4.25,0.0,4.0,1.0,4.75,0.0,2.25,2.0,0.75,0.75,-0.11,0.08,0.95,285.74,-4.1,-9.5,0.0,0.5,0.25,0.0,0.0,0.0,0.0,0.0,0.0,0.0,0.0,0.0,0.0,-0.05,0.08,1.33,0.0,-21.1,86.2
5.12,0.0,1.25,0.0,4.0,0.0,4.5,1.25,4.5,0.0,1.75,1.25,0.0,0.5,-0.11,0.08,0.95,274.16,-4.7,4.2,0.0,0.5,0.0,0.0,0.0,0.0,0.0,0.0,0.0,0.0,0.0,0.0,0.0,-0.05,0.33,1.64,0.0,-12.6,98.9
5.14,0.0,1.25,0.0,4.25,0.0,4.75,1.25,3.75,0.0,1.75,0.5,0.0,0.25,-0.11,0.08,0.95,268.73,-4.6,12.4,0.25,0.75,0.0,0.0,0.0,0.0,0.0,0.0,0.0,0.0,0.0,0.0,0.0,-0.05,0.52,1.95,8.25,-17.7,98.6
5.16,0.0,1.25,0.0,4.5,0.0,5.0,1.0,3.5,0.0,1.5,1.5,0.0,0.25,-0.17,0.14,1.02,265.68,-3.6,10.4,0.0,0.75,0.0,0.0,0.0,0.0,0.0,0.0,0.0,0.0,0.0,0.0,0.0,0.02,0.52,2.33,14.0,-12.6,98.9
5.18,0.0,0.25,0.0,4.0,0.0,4.5,0.75,2.25,0.0,0.25,1.25,0.0,0.25,-0.11,0.14,0.95,240.86,-3.2,15.1,0.0,0.75,0.0,0.0,0.0,0.0,0.0,0.0,0.0,0.0,0.0,0.25,0.0,-0.05,0.83,2.83,15.21,-11.7,48.1
5.2,0.75,0.75,0.0,4.5,0.0,5.0,0.5,1.75,0.0,1.25,0.25,0.0,0.25,-0.17,0.14,0.95,216.08,-2.3,25.7,0.0,0.75,0.0,0.0,0.0,0.0,0.0,0.0,0.0,0.0,0.0,0.25,0.0,-0.05,1.45,2.77,16.58,-11.7,48.1
5.22,0.75,1.25,0.0,6.25,0.0,5.25,1.0,2.75,0.0,0.75,0.0,0.0,0.25,-0.17,0.14,0.95,216.35,-0.3,31.9,0.0,0.75,0.0,0.0,0.0,0.0,0.0,0.0,0.0,0.0,0.0,0.0,0.0,-0.17,2.27,2.14,17.17,-12.6,98.9
5.24,0.0,0.5,0.0,5.25,0.0,5.5,1.0,2.25,0.0,0.25,1.0,0.0,0.0,-0.17,0.2,0.89,214.95,-2.2,25.1,0.0,0.75,0.0,0.0,0.0,0.0,0.0,0.0,0.0,0.0,0.0,0.0,0.0,-0.73,2.95,0.83,16.85,-12.6,98.9
5.26,0.0,0.75,0.0,6.25,0.0,5.5,0.5,1.75,0.0,0.25,0.0,0.0,0.0,-0.17,0.2,0.95,215.46,-1.4,37.4,0.0,0.75,0.0,0.0,0.0,0.0,0.0,0.0,0.0,0.0,0.0,0.0,0.0,-1.3,3.45,0.2,15.86,-12.6,98.9
5.28,0.0,1.25,0.0,6.5,0.0,5.75,1.0,2.0,0.0,0.75,0.75,0.0,0.0,-0.17,0.2,0.95,230.09,-0.7,30.3,0.0,0.75,0.0,0.0,0.0,0.0,0.0,0.0,0.0,0.0,0.0,0.25,0.0,-1.61,3.64,0.08,16.31,-11.7,48.1
5.3,2.0,1.25,0.0,8.0,0.0,0.0,1.25,1.75,0.0,0.5,1.0,0.0,0.25,-0.17,0.2,0.95,232.91,13.7,38.7,0.0,0.75,0.0,0.0,0.0,0.0,0.0,0.0,0.0,0.0,0.75,0.75,0.0,-1.48,3.83,0.27,22.56,-10.7,-26.7
5.32,0.0,1.75,0.0,9.0,0.0,0.0,1.5,2.0,0.0,0.25,0.75,0.0,0.25,-0.17,0.2,0.95,230.42,11.5,37.1,0.0,0.75,0.0,0.0,0.0,0.0,0.0,0.0,0.0,1.5,1.75,2.25,0.25,-0.05,0.27,1.58,54.44,-3.2,-67.8
5.34,0.0,2.0,0.0,10.0,0.0,6.75,1.75,1.75,0.0,0.25,0.0,0.0,0.25,-0.17,0.2,1.02,256.71,2.3,42.5,0.0,0.75,0.0,0.0,0.0,0.0,0.0,0.0,0.0,5.75,3.25,3.75,2.25,-0.17,0.27,0.95,135.43,2.8,-80.1
5.36,0.0,2.0,0.0,10.5,0.0,0.0,2.0,1.75,0.0,0.25,0.0,0.0,0.25,-0.17,0.2,0.95,259.95,12.8,46.2,0.0,0.75,0.0,0.0,0.0,0.0,0.0,0.5,0.25,6.5,5.25,3.0,3.0,-0.23,0.58,2.45,216.14,3.0,-77.9
5.38,0.0,0.0,7.25,10.5,0.0,0.0,2.0,0.5,0.0,0.0,0.0,0.0,0.0,-0.17,0.2,1.02,277.36,24.9,55.1,0.0,0.75,0.0,0.0,0.0,0.0,0.0,1.5,0.0,6.75,6.0,2.5,1.5,0.45,0.45,2.33,271.22,3.0,-72.7
5.4,4.5,1.75,0.0,11.0,0.0,0.0,2.5,0.0,0.0,0.0,0.0,0.0,0.0,-0.23,0.27,1.14,281.58,21.7,68.8,1.25,1.25,0.0,0.25,0.0,1.25,0.0,2.75,1.0,7.0,7.5,3.0,2.75,0.02,0.08,0.95,338.27,1.5,-56.4
5.42,5.0,0.25,3.75,10.5,0.0,0.0,3.0,0.0,0.0,0.0,0.0,0.0,0.0,-0.3,0.27,1.27,298.86,25.9,65.6,0.0,0.75,0.0,2.0,0.0,2.75,1.0,3.5,1.5,8.0,7.5,3.75,2.25,0.02,0.14,0.95,410.37,2.6,-53.0
5.44,6.75,0.0,7.25,10.5,0.0,0.0,2.75,0.0,0.0,0.0,0.0,0.0,0.25,-0.3,0.33,1.52,331.69,27.8,65.1,0.25,1.0,1.75,2.0,0.5,2.0,2.0,4.25,1.0,7.25,8.75,3.5,4.0,0.08,0.08,0.95,502.48,-0.1,-47.0
5.46,6.25,0.0,7.25,8.0,0.0,0.0,2.75,0.0,0.0,0.0,0.0,0.0,0.0,-0.3,0.45,1.77,350.68,29.4,67.3,1.0,1.25,0.5,2.0,0.5,2.75,2.0,4.25,1.5,7.25,8.5,3.0,2.5,0.08,0.08,0.95,557.88,0.3,-41.5
5.48,7.0,0.0,6.0,5.75,0.0,0.0,2.0,0.0,0.0,0.0,0.25,0.0,0.0,-0.55,0.77,2.39,348.22,30.2,68.8,2.75,1.5,2.5,4.0,1.0,4.5,2.25,4.25,1.75,8.0,8.25,3.75,2.25,0.08,0.08,0.95,640.54,-2.7,-23.4
