time,left pressure 0[N/cm²],left pressure 1[N/cm²],left pressure 2[N/cm²],left pressure 3[N/cm²],left pressure 4[N/cm²],left pressure 5[N/cm²],left pressure 6[N/cm²],left pressure 7[N/cm²],left pressure 8[N/cm²],left pressure 9[N/cm²],left pressure 10[N/cm²],left pressure 11[N/cm²],left pressure 12[N/cm²],left acceleration X[g],left acceleration Y[g],left acceleration Z[g],left total force[N],left center of pressure X[mm],left center of pressure Y[mm],right pressure 0[N/cm²],right pressure 1[N/cm²],right pressure 2[N/cm²],right pressure 3[N/cm²],right pressure 4[N/cm²],right pressure 5[N/cm²],right pressure 6[N/cm²],right pressure 7[N/cm²],right pressure 8[N/cm²],right pressure 9[N/cm²],right pressure 10[N/cm²],right pressure 11[N/cm²],right pressure 12[N/cm²],right acceleration X[g],right acceleration Y[g],right acceleration Z[g],right total force[N],right center of pressure X[mm],right center of pressure Y[mm]
0.02,1.75,0.0,1.5,0.5,0.0,0.0,0.0,0.0,0.0,0.25,0.5,0.0,0.0,-0.17,0.08,0.95,83.74,28.5,51.6,1.25,0.5,0.25,1.25,0.25,2.25,0.5,1.5,0.75,1.5,2.0,0.75,0.25,0.02,0.14,0.95,174.87,-1.7,-8.3
0.04,1.75,0.0,1.5,0.5,0.0,0.0,0.0,0.0,0.0,0.5,0.75,0.0,0.0,-0.17,0.08,0.95,83.87,25.4,38.9,0.25,0.5,0.25,1.25,0.25,1.75,0.75,1.5,0.75,1.5,2.0,1.0,0.25,0.02,0.14,0.95,170.97,-0.5,-20.4
0.06,1.75,0.0,1.5,0.5,0.0,0.0,0.0,0.0,0.0,0.0,0.75,0.0,0.0,-0.17,0.08,0.95,79.9,30.0,51.8,0.5,0.5,0.25,1.25,0.25,2.0,0.5,1.5,0.75,1.5,2.0,1.0,0.25,0.02,0.14,0.95,170.45,-0.4,-17.5
0.08,1.5,0.0,1.75,0.5,0.0,0.0,0.0,0.0,0.0,0.5,0.75,0.0,0.0,-0.17,0.08,0.95,79.98,25.6,37.3,1.25,0.5,0.25,1.0,0.5,2.0,0.5,1.25,0.75,1.5,1.25,1.0,0.5,0.02,0.14,0.95,168.94,-1.4,-8.7
0.1,1.25,0.0,1.25,0.5,0.0,0.0,0.0,0.0,0.0,0.0,0.75,0.0,0.0,-0.17,0.08,0.95,74.44,28.8,45.4,0.5,0.5,0.25,1.25,0.25,2.0,0.5,1.5,0.75,1.5,2.0,0.75,0.0,0.02,0.14,0.95,167.37,-0.5,-13.4
0.12,0.75,0.0,1.5,0.5,0.0,0.0,0.0,0.0,0.0,0.25,0.75,0.0,0.0,-0.17,0.14,0.95,69.05,25.7,31.8,0.5,0.5,0.25,1.25,0.5,1.75,0.75,1.5,0.75,1.5,2.0,0.75,0.5,0.02,0.14,0.95,167.5,-0.6,-16.5
0.14,0.0,0.0,1.5,1.0,0.0,0.0,0.0,0.0,0.0,0.25,0.75,0.0,0.0,-0.17,0.08,0.95,61.95,22.7,22.7,0.75,0.5,0.25,1.25,0.5,2.0,0.5,1.75,0.75,1.75,2.0,0.75,0.25,0.02,0.14,0.95,170.83,-0.1,-13.5
0.16,0.75,0.0,1.5,0.5,0.0,0.0,0.0,0.0,0.0,0.0,0.75,0.0,0.0,-0.17,0.08,0.95,58.46,28.7,39.5,1.25,0.5,0.25,1.25,0.25,1.75,0.5,1.25,0.75,1.5,2.0,1.0,0.25,0.02,0.14,0.95,173.58,-3.2,-11.4
0.18,0.75,0.0,1.0,0.5,0.0,0.0,0.0,0.0,0.0,0.25,0.75,0.0,0.0,-0.17,0.08,0.95,53.76,23.7,27.2,1.0,0.5,0.25,1.25,0.5,2.25,0.5,1.75,0.75,1.5,2.0,0.75,1.0,0.02,0.14,0.95,181.6,0.1,-15.1
0.2,0.75,0.0,1.0,0.5,0.0,0.0,0.0,0.0,0.0,0.5,0.75,0.0,0.0,-0.17,0.08,0.95,51.37,20.9,19.8,0.75,0.5,0.25,1.25,0.5,1.75,0.5,1.5,0.75,1.5,1.25,0.75,0.25,0.02,0.14,0.95,177.5,-0.7,-8.6
0.22,0.5,0.0,1.5,0.5,0.0,0.0,0.0,0.0,0.0,0.25,0.75,0.0,0.0,-0.17,0.14,0.95,51.48,25.1,27.4,1.25,0.5,0.25,1.25,0.25,2.25,0.5,1.5,0.75,1.75,2.0,1.0,0.25,0.02,0.14,0.95,181.42,-1.5,-11.5
0.24,0.25,0.0,1.25,0.5,0.0,0.0,0.0,0.0,0.0,0.25,1.0,0.0,0.0,-0.17,0.08,0.95,50.67,22.3,12.1,0.5,0.5,0.25,1.25,0.5,2.0,0.5,1.75,0.75,1.5,2.0,0.75,0.5,0.02,0.14,0.95,179.37,0.4,-16.4
0.26,0.0,0.0,1.25,0.5,0.0,0.0,0.0,0.0,0.0,0.0,0.75,0.0,0.0,-0.17,0.14,0.95,46.38,26.0,21.2,1.0,0.5,0.25,1.25,0.25,2.0,0.75,1.5,0.75,1.5,2.0,1.0,0.25,0.02,0.14,0.95,180.41,-2.0,-12.8
0.28,0.0,0.0,1.5,0.5,0.0,0.0,0.0,0.0,0.0,0.25,1.0,0.0,0.0,-0.17,0.08,0.95,45.83,22.7,9.9,1.25,0.5,0.25,1.25,0.25,2.0,0.75,1.75,0.75,1.5,2.0,0.75,0.25,0.02,0.14,0.95,181.37,-2.1,-9.4
0.3,0.0,0.0,1.25,0.5,0.0,0.0,0.0,0.0,0.0,0.75,0.75,0.0,0.0,-0.17,0.08,0.95,46.09,16.5,-0.8,1.0,0.5,0.25,1.25,0.25,2.25,0.75,1.5,0.75,1.5,2.0,1.0,0.25,0.02,0.14,0.95,182.62,-1.5,-11.9
0.32,0.0,0.0,1.5,0.5,0.0,0.0,0.0,0.0,0.0,0.5,0.5,0.0,0.0,-0.17,0.08,0.95,46.99,21.4,16.4,0.25,0.5,0.25,1.25,0.25,2.0,0.5,1.75,0.75,1.5,1.75,0.75,0.0,0.02,0.14,0.95,175.79,0.7,-15.0
0.34,0.25,0.0,1.25,1.0,0.0,0.0,0.0,0.0,0.0,0.5,0.75,0.0,0.0,-0.17,0.08,0.95,52.47,19.8,18.2,1.0,0.5,0.25,1.25,0.5,2.0,0.5,1.75,0.75,1.5,1.5,0.75,0.0,0.02,0.14,0.95,173.36,-1.0,-5.4
0.36,0.25,0.0,1.25,0.5,0.0,0.0,0.0,0.0,0.0,0.25,0.75,0.0,0.0,-0.17,0.08,0.95,52.38,23.3,19.1,1.25,0.25,0.25,1.25,0.5,2.0,0.5,1.75,0.75,1.5,2.0,1.0,0.25,0.02,0.14,0.95,174.34,-1.6,-12.4
0.38,0.25,0.0,1.5,0.25,0.0,0.0,0.0,0.0,0.0,0.25,0.75,0.0,0.0,-0.17,0.08,0.95,51.85,25.1,19.4,1.0,0.75,0.25,1.0,0.25,1.75,0.75,1.25,0.75,1.5,2.0,0.75,0.25,0.02,0.14,0.95,172.85,-2.6,-10.2
0.4,0.25,0.0,1.5,0.5,0.0,0.0,0.0,0.0,0.0,0.5,0.75,0.0,0.0,-0.17,0.08,0.95,52.7,21.6,15.5,0.75,0.5,0.25,1.25,0.25,2.0,0.5,1.5,0.75,1.5,1.0,1.0,0.5,0.02,0.14,0.95,170.23,0.0,-12.3
0.42,0.25,0.0,1.5,0.5,0.0,0.0,0.0,0.0,0.0,0.5,0.75,0.0,0.0,-0.17,0.08,0.95,54.75,21.6,15.5,1.25,0.5,0.25,1.0,0.25,2.0,0.5,1.75,0.75,1.5,2.0,1.0,0.25,0.02,0.14,0.95,171.82,-1.6,-13.1
0.44,0.5,0.0,1.25,0.5,0.0,0.0,0.0,0.0,0.0,0.25,1.0,0.0,0.0,-0.17,0.08,0.95,56.11,23.2,17.8,1.0,0.5,0.25,1.25,0.25,2.0,0.5,1.25,0.75,1.75,2.0,0.75,0.25,0.02,0.14,0.95,172.77,-1.6,-11.9
0.46,0.75,0.0,1.5,0.5,0.0,0.0,0.0,0.0,0.0,0.25,0.75,0.0,0.0,-0.17,0.08,0.95,59.32,25.7,31.8,1.0,0.25,0.25,1.25,0.5,2.0,0.5,1.5,0.75,1.5,2.0,0.75,0.25,0.02,0.14,0.95,172.62,-1.2,-12.0
0.48,0.75,0.0,1.5,1.25,0.0,0.0,0.0,0.0,0.0,0.0,0.75,0.0,0.0,-0.17,0.08,0.95,65.4,26.6,42.9,1.25,0.5,0.25,1.0,0.25,2.0,0.5,1.5,0.75,1.5,1.25,0.75,0.25,0.02,0.14,0.95,170.63,-1.3,-6.4
0.5,0.25,0.0,1.25,0.5,0.0,0.0,0.0,0.0,0.0,0.0,0.75,0.0,0.0,-0.17,0.08,0.95,61.08,26.8,27.7,1.0,0.5,0.25,1.25,0.5,1.75,0.5,1.75,0.75,1.5,2.0,1.0,0.75,0.02,0.14,0.95,175.46,-1.1,-16.8
0.52,0.75,0.0,1.5,0.5,0.0,0.0,0.0,0.0,0.0,1.0,0.75,0.0,0.0,-0.17,0.08,0.95,64.86,18.8,13.9,1.25,0.5,0.25,1.25,0.5,2.0,0.5,1.25,0.75,1.5,2.0,1.0,0.25,0.02,0.14,0.95,177.51,-2.6,-9.1
0.54,0.75,0.0,1.5,0.75,0.0,0.0,0.0,0.0,0.25,0.25,0.75,0.0,0.0,-0.17,0.08,0.95,66.74,24.4,29.3,1.0,0.5,0.25,1.25,0.5,2.25,0.5,2.0,0.75,1.5,2.0,1.0,0.25,0.02,0.14,0.95,184.37,-0.5,-11.8
0.56,0.75,0.0,1.5,0.0,0.0,0.0,0.0,0.0,0.0,0.25,0.75,0.0,0.0,-0.17,0.08,0.95,64.77,27.1,27.6,0.75,0.25,0.25,0.5,0.5,2.0,0.75,1.25,0.75,1.5,2.0,1.0,0.25,0.02,0.14,0.95,178.77,-0.3,-20.3
0.58,0.75,0.0,1.5,0.5,0.0,0.0,0.0,0.0,0.0,0.5,0.75,0.0,0.0,-0.17,0.08,0.95,64.59,23.1,25.1,0.75,0.5,0.25,1.25,0.25,2.0,0.75,1.75,0.75,1.5,1.5,0.75,0.0,0.02,0.14,0.95,174.06,-0.8,-8.7
0.6,0.75,0.0,1.5,0.5,0.0,0.0,0.0,0.0,0.0,0.25,0.75,0.0,0.0,-0.17,0.08,0.95,64.41,25.7,31.8,0.75,0.5,0.25,1.25,0.5,2.5,0.5,1.5,0.75,1.5,1.25,0.75,0.25,0.02,0.14,0.95,170.22,0.6,-6.0
0.62,0.75,0.0,1.5,0.5,0.0,0.0,0.0,0.0,0.0,0.5,0.75,0.0,0.0,-0.17,0.08,0.95,64.98,23.1,25.1,1.0,0.5,0.25,1.25,0.25,2.0,0.75,1.5,0.75,1.5,2.0,1.0,0.0,0.02,0.14,0.95,171.86,-2.3,-10.7
0.64,0.75,0.0,1.5,0.5,0.0,0.0,0.0,0.0,0.0,0.25,0.75,0.0,0.0,-0.17,0.08,0.95,63.66,25.7,31.8,0.5,0.0,0.25,1.25,0.25,2.25,0.5,1.5,0.75,1.5,2.0,1.0,0.25,0.02,0.14,0.95,169.5,0.5,-21.7
0.66,0.75,0.0,1.75,0.5,0.0,0.0,0.0,0.0,0.0,0.25,0.75,0.0,0.0,-0.17,0.08,0.95,65.52,26.5,33.7,1.25,0.5,0.25,1.25,0.25,2.0,0.5,1.5,0.75,1.5,2.0,0.75,0.0,0.02,0.14,0.95,170.91,-2.5,-7.0
0.68,0.75,0.0,1.25,0.5,0.0,0.0,0.0,0.0,0.0,0.25,0.75,0.0,0.0,-0.17,0.08,0.95,62.78,24.8,29.7,0.5,0.5,0.25,1.25,0.5,2.5,0.5,1.75,0.75,1.5,2.0,1.0,0.25,0.02,0.14,0.95,174.87,0.8,-14.5
0.7,1.0,0.0,1.0,0.5,0.0,0.0,0.0,0.0,0.0,0.5,0.75,0.0,0.0,-0.17,0.08,0.95,61.61,21.8,24.7,0.5,0.75,0.25,1.25,0.5,2.25,0.5,1.5,0.75,1.5,2.0,1.0,0.25,0.02,0.14,0.95,177.87,-0.1,-12.6
0.72,1.25,0.0,1.5,0.5,0.0,0.0,0.0,0.0,0.0,0.25,0.75,0.0,0.0,-0.17,0.08,0.95,63.8,26.8,39.2,1.0,0.0,0.25,1.25,0.5,2.0,0.75,1.75,0.75,1.5,2.0,0.75,0.25,0.02,0.14,0.95,178.25,-0.9,-14.5
0.74,1.0,0.0,1.5,0.5,0.0,0.0,0.0,0.0,0.0,0.0,0.75,0.0,0.0,-0.17,0.08,0.95,64.81,29.1,43.2,1.0,0.5,0.0,1.25,0.5,2.5,0.5,2.0,0.75,1.5,1.75,0.75,0.0,0.02,0.14,0.95,179.31,0.7,-7.3
0.76,1.25,0.0,1.5,0.5,0.0,0.0,0.0,0.0,0.0,0.25,0.75,0.0,0.0,-0.17,0.08,0.95,66.56,26.8,39.2,0.75,0.25,0.25,1.25,0.5,2.5,0.5,1.75,0.75,1.5,2.0,0.75,0.25,0.02,0.14,0.95,180.2,0.6,-12.8
0.78,1.75,0.0,1.5,0.5,0.0,0.0,0.0,0.0,0.0,0.25,0.75,0.0,0.0,-0.17,0.08,0.95,71.74,27.6,45.0,0.5,0.75,0.25,1.0,0.25,2.0,0.5,1.25,0.75,1.5,2.0,1.0,0.25,0.02,0.14,0.95,176.46,-0.7,-16.2
0.8,1.0,0.0,1.5,0.5,0.0,0.0,0.0,0.0,0.0,0.25,0.75,0.0,0.0,-0.17,0.08,0.95,72.4,26.3,35.7,1.25,0.5,0.25,1.25,0.5,2.0,0.5,1.75,0.75,1.5,2.0,1.0,0.25,0.02,0.14,0.95,180.74,-1.8,-10.2
0.82,1.0,0.0,0.75,0.5,0.0,0.0,0.0,0.0,0.0,0.25,0.75,0.0,0.0,-0.17,0.08,0.95,66.26,23.4,29.6,0.5,0.5,0.25,1.25,0.25,2.25,0.5,2.0,0.75,1.5,2.0,0.75,0.5,0.02,0.14,0.95,180.13,1.1,-17.5
0.84,1.25,0.0,1.0,0.5,0.0,0.0,0.0,0.0,0.0,0.25,0.75,0.0,0.0,-0.17,0.08,0.95,63.32,25.2,36.1,0.5,0.5,0.25,1.25,0.5,2.0,0.5,1.25,0.75,1.5,1.5,1.0,0.25,0.02,0.14,0.95,176.15,-0.2,-12.8
0.86,1.25,0.0,1.5,0.5,0.0,0.0,0.25,0.0,0.0,0.25,0.5,0.0,0.25,-0.17,0.08,0.95,64.61,25.4,36.4,1.0,0.5,0.25,1.25,0.5,2.0,0.5,1.5,0.75,1.75,2.0,1.0,0.0,0.02,0.14,0.95,176.49,-1.6,-10.9
0.88,1.5,0.0,1.5,0.5,0.0,0.0,0.0,0.0,0.0,0.25,0.5,0.0,0.0,-0.17,0.08,0.95,67.37,28.1,49.0,1.25,0.25,0.25,0.75,0.5,2.0,0.5,1.5,0.75,1.5,2.0,0.75,0.5,0.02,0.14,0.95,174.99,-0.8,-15.0
0.9,1.0,0.0,1.25,0.5,0.0,0.0,0.0,0.0,0.0,0.25,0.75,0.0,0.0,-0.17,0.08,0.95,67.15,25.5,34.0,1.0,0.5,0.25,1.25,0.25,2.25,0.5,1.5,0.75,1.5,1.75,1.0,0.25,0.02,0.14,0.95,175.03,-1.1,-11.0
0.92,1.0,0.0,1.5,0.5,0.0,0.0,0.0,0.0,0.0,0.25,0.75,0.0,0.0,-0.17,0.08,0.95,67.59,26.3,35.7,0.5,0.5,0.25,1.0,0.25,2.75,0.5,1.75,0.75,1.5,1.75,1.0,0.25,0.02,0.14,0.95,174.57,1.7,-15.5
0.94,1.25,0.0,1.75,0.25,0.0,0.0,0.0,0.0,0.0,0.5,0.75,0.0,0.0,-0.17,0.08,0.95,68.66,25.6,32.9,0.5,0.5,0.25,1.25,0.5,2.5,0.5,1.5,0.75,1.5,1.5,1.0,0.0,0.02,0.14,0.95,174.5,0.6,-9.4
0.96,1.0,0.0,1.5,0.5,0.0,0.0,0.0,0.0,0.0,0.25,0.75,0.0,0.0,-0.17,0.08,0.95,67.81,26.3,35.7,1.25,0.5,0.25,1.25,0.25,1.75,0.5,1.25,0.75,1.5,2.0,1.0,0.25,0.02,0.14,0.95,173.64,-3.2,-11.4
0.98,1.0,0.0,1.5,0.5,0.0,0.0,0.0,0.0,0.0,0.25,0.75,0.0,0.0,-0.17,0.08,0.95,67.95,26.3,35.7,1.0,0.5,0.25,1.25,0.25,1.75,0.5,1.5,0.75,1.5,2.0,1.0,0.25,0.02,0.14,0.95,172.8,-2.2,-14.1
1.0,1.5,0.0,1.25,0.5,0.0,0.0,0.0,0.0,0.0,0.0,0.5,0.0,0.0,-0.17,0.08,0.95,66.11,30.4,56.6,0.75,0.5,0.25,1.25,0.25,2.0,0.5,1.5,0.75,1.5,2.0,0.75,0.25,0.02,0.14,0.95,171.98,-0.9,-13.3
1.02,1.25,0.0,1.5,0.5,0.0,0.0,0.0,0.0,0.25,0.25,0.5,0.0,0.0,-0.17,0.08,0.95,67.34,26.8,41.2,0.5,0.5,0.25,1.25,0.5,2.0,0.5,1.25,0.75,1.5,2.0,1.0,1.0,0.02,0.14,0.95,174.03,0.1,-21.1
1.04,1.5,0.0,1.25,0.75,0.0,0.0,0.0,0.0,0.0,0.25,0.75,0.0,0.0,-0.17,0.08,0.95,70.38,26.0,42.1,0.5,0.5,0.25,1.25,0.25,2.25,0.5,1.5,0.75,1.5,1.75,1.0,0.25,0.02,0.14,0.95,172.3,0.2,-15.3
1.06,1.0,0.0,1.25,0.5,0.0,0.0,0.0,0.0,0.0,0.0,0.5,0.0,0.0,-0.17,0.08,0.95,66.83,29.7,50.7,1.0,0.5,0.25,1.25,0.25,2.75,0.5,1.75,0.75,1.5,2.0,0.75,0.25,0.02,0.14,0.95,178.01,0.0,-9.3
1.08,1.5,0.0,1.25,0.5,0.0,0.0,0.0,0.0,0.0,0.25,0.75,0.0,0.0,-0.17,0.08,0.95,67.0,26.5,41.1,1.75,0.75,0.25,1.25,0.5,2.5,0.5,1.5,0.75,1.5,2.0,0.75,0.25,0.02,0.14,0.95,186.25,-2.5,-0.7
1.1,1.25,0.0,1.5,0.5,0.0,0.0,0.0,0.0,0.0,0.25,1.0,0.0,0.0,-0.17,0.08,0.95,67.88,25.9,32.9,0.5,0.5,0.25,1.25,1.0,2.25,0.5,1.5,0.75,1.5,2.0,1.0,0.5,0.02,0.14,0.95,189.95,0.4,-13.7
1.12,1.25,0.0,1.5,0.5,0.0,0.0,0.0,0.0,0.0,0.25,0.75,0.0,0.0,-0.17,0.08,0.95,69.98,26.8,39.2,0.75,0.5,0.25,1.25,0.5,2.0,0.5,1.5,0.75,1.5,1.25,1.0,0.0,0.02,0.14,0.95,184.8,-0.7,-7.6
1.14,1.25,0.0,1.0,0.5,0.0,0.0,0.0,0.0,0.0,0.0,0.75,0.0,0.0,-0.17,0.08,0.95,66.84,28.1,44.2,0.5,0.5,0.25,1.25,0.25,2.0,0.5,1.25,0.75,1.5,2.0,0.75,0.25,0.02,0.14,0.95,176.74,-0.6,-15.0
1.16,1.0,0.0,1.25,0.5,0.0,0.0,0.0,0.0,0.0,0.5,0.75,0.0,0.0,-0.11,0.08,0.95,65.74,22.9,27.1,0.5,0.5,0.25,1.25,0.25,1.75,0.5,1.5,0.75,1.5,1.75,1.0,0.25,0.02,0.14,0.95,168.91,-0.7,-17.4
1.18,1.25,0.0,1.5,0.5,0.0,0.0,0.0,0.0,0.0,0.25,1.0,0.0,0.0,-0.17,0.08,0.95,66.92,25.9,32.9,0.75,0.5,0.25,1.25,0.5,2.0,0.5,1.25,0.75,1.5,2.0,1.0,0.25,0.02,0.14,0.95,167.8,-1.3,-13.2
1.2,1.0,0.0,1.5,1.0,0.0,0.0,0.0,0.0,0.0,0.25,0.75,0.0,0.0,-0.17,0.08,0.95,70.36,25.2,38.3,0.5,0.5,0.25,1.25,0.25,2.5,0.5,1.5,0.75,1.5,1.75,0.75,0.0,0.02,0.14,0.95,166.93,0.5,-10.2
1.22,1.25,0.0,1.5,0.5,0.0,0.0,0.0,0.0,0.0,0.0,0.75,0.0,0.0,-0.17,0.08,0.95,70.78,29.4,46.4,1.25,0.5,0.25,1.25,0.5,2.0,0.75,1.5,0.75,1.5,2.0,0.75,0.25,0.02,0.14,0.95,173.0,-2.3,-7.4
1.24,1.75,0.0,1.5,1.0,0.0,0.0,0.0,0.0,0.0,0.0,0.75,0.0,0.0,-0.17,0.08,0.95,76.17,28.7,52.5,1.0,0.5,0.25,1.25,0.5,2.0,0.5,1.75,0.75,1.5,2.0,1.0,0.25,0.02,0.14,0.95,177.19,-1.2,-12.2
1.26,1.25,0.0,1.5,0.5,0.0,0.0,0.0,0.0,0.0,0.5,0.5,0.0,0.0,-0.17,0.08,0.95,75.06,25.2,38.9,1.25,0.5,0.25,1.25,0.5,2.0,0.5,1.25,0.75,1.5,2.0,0.75,0.25,0.02,0.14,0.95,179.1,-2.4,-7.1
1.28,1.25,0.0,1.5,0.5,0.0,0.0,0.0,0.0,0.0,0.25,0.75,0.0,0.0,-0.17,0.08,0.95,74.73,26.8,39.2,0.75,0.5,0.25,1.25,0.5,2.0,0.5,1.25,0.75,1.5,1.5,1.0,0.5,0.02,0.14,0.95,176.88,-0.6,-12.7
1.3,1.5,0.0,1.25,0.5,0.0,0.0,0.0,0.0,0.0,0.25,0.5,0.0,0.0,-0.17,0.14,0.95,72.03,27.5,48.2,1.0,0.5,0.25,1.0,0.25,2.25,0.5,1.5,0.75,1.5,2.0,0.75,0.25,0.02,0.14,0.95,174.5,-0.7,-11.8
1.32,1.25,0.0,1.5,0.5,0.0,0.0,0.0,0.0,0.0,0.25,0.75,0.0,0.0,-0.17,0.08,0.95,70.64,26.8,39.2,1.25,0.5,0.25,1.0,0.5,2.5,0.5,1.25,0.75,1.5,2.0,1.0,0.25,0.02,0.14,0.95,176.7,-1.3,-8.9
1.34,1.25,0.0,1.25,0.5,0.0,0.0,0.0,0.0,0.0,0.25,0.75,0.0,0.0,-0.17,0.08,0.95,68.27,26.0,37.7,0.5,0.25,0.25,1.25,0.5,2.0,0.5,1.25,0.75,1.75,2.0,1.0,0.25,0.02,0.14,0.95,175.88,-0.1,-19.1
1.36,1.5,0.0,1.25,0.5,0.0,0.0,0.0,0.0,0.0,0.25,0.5,0.0,0.0,-0.17,0.08,0.95,67.92,27.5,48.2,0.75,0.5,0.25,0.75,0.25,2.0,0.25,1.5,0.25,1.5,2.0,1.0,0.25,0.02,0.14,0.95,171.32,0.4,-18.2
1.38,1.0,0.0,1.5,0.5,0.0,0.0,0.0,0.0,0.0,0.5,0.75,0.0,0.0,-0.17,0.08,0.95,68.25,23.8,29.1,0.5,0.5,0.25,1.25,0.25,2.25,0.5,1.5,0.5,1.5,1.75,0.75,0.25,0.02,0.14,0.95,166.81,0.6,-12.8
1.4,0.75,0.0,0.5,0.5,0.0,0.0,0.0,0.0,0.0,0.75,0.75,0.0,0.0,-0.17,0.08,0.95,61.71,15.3,5.8,0.5,0.5,0.0,1.25,0.5,2.0,0.5,1.25,0.5,1.5,2.0,1.0,0.25,0.02,0.14,0.95,163.11,0.3,-16.6
1.42,0.0,0.0,1.0,0.5,0.0,0.0,0.0,0.5,0.0,0.25,0.75,0.0,0.0,-0.17,0.08,0.95,54.76,14.5,0.0,0.75,0.5,0.25,1.25,0.5,2.0,0.5,1.5,0.75,1.5,2.0,1.0,0.25,0.02,0.14,0.95,165.89,-1.0,-13.7
1.44,0.5,0.0,1.0,0.5,0.0,0.0,0.0,0.0,0.0,0.25,0.75,0.0,0.0,-0.17,0.08,0.95,49.11,22.9,21.7,1.0,0.5,0.25,1.25,0.25,2.0,0.5,1.25,0.75,1.5,2.0,0.75,0.25,0.02,0.14,0.95,167.87,-1.9,-10.6
1.46,0.0,0.0,1.0,0.5,0.0,0.0,0.0,0.0,0.0,0.25,0.75,0.0,0.0,-0.17,0.14,0.95,43.22,20.6,7.6,0.5,0.5,0.25,1.25,0.25,2.25,0.5,1.5,0.75,1.5,2.0,0.75,0.25,0.02,0.14,0.95,169.4,0.1,-14.6
1.48,0.75,0.0,0.75,0.5,0.0,0.0,0.0,0.25,0.0,0.25,0.75,0.0,0.0,-0.17,0.08,0.95,42.78,19.4,19.4,0.75,0.5,0.25,1.25,0.25,2.25,0.5,1.25,0.75,1.5,2.0,0.75,0.25,0.02,0.14,0.95,169.64,-0.8,-11.8
1.5,0.0,0.0,1.0,0.5,0.0,0.0,0.0,0.0,0.0,0.25,0.75,0.0,0.0,-0.17,0.08,0.95,40.83,20.6,7.6,0.75,0.5,0.0,1.25,1.25,2.5,0.5,1.5,0.75,1.5,2.0,0.75,0.25,0.02,0.14,0.95,176.82,0.9,-7.2
1.52,0.0,0.0,1.0,0.5,0.0,0.0,0.0,0.0,0.0,0.25,0.75,0.0,0.0,-0.17,0.08,0.95,39.5,20.6,7.6,0.5,0.5,0.0,1.25,0.5,2.0,0.5,1.25,0.75,1.5,2.0,1.0,0.25,0.02,0.14,0.95,175.19,0.1,-17.0
1.54,0.75,0.0,1.0,0.5,0.0,0.0,0.0,0.0,0.0,0.25,0.75,0.0,0.0,-0.17,0.14,0.95,41.66,23.7,27.2,0.5,0.5,0.25,1.25,0.25,2.0,0.75,1.5,0.75,1.5,1.75,0.75,0.25,0.02,0.14,0.95,173.28,-0.3,-13.8
1.56,0.75,0.0,1.0,0.5,0.0,0.0,0.0,0.0,0.0,0.25,0.75,0.0,0.0,-0.17,0.08,0.95,45.14,23.7,27.2,1.0,0.5,0.0,1.25,0.25,2.0,0.25,1.5,0.75,1.5,1.5,0.75,0.25,0.02,0.14,0.95,168.42,0.0,-10.5
1.58,1.0,0.0,1.0,0.5,0.0,0.0,0.0,0.25,0.0,0.25,0.75,0.0,0.0,-0.17,0.08,0.95,51.49,21.7,27.2,0.5,0.5,0.0,1.0,0.25,2.0,0.5,1.25,0.75,1.5,1.75,1.0,0.25,0.02,0.14,0.95,163.74,0.6,-19.4
1.6,1.0,0.0,1.0,0.5,0.0,0.0,0.0,0.0,0.0,0.25,0.75,0.0,0.0,-0.17,0.08,0.95,55.26,24.5,32.0,0.5,0.5,0.25,1.25,0.5,2.0,0.5,1.75,0.75,1.5,1.5,1.0,0.0,0.02,0.14,0.95,163.21,0.1,-11.8
1.62,1.0,0.0,0.75,0.5,0.0,0.0,0.0,0.0,0.0,0.5,0.75,0.0,0.0,-0.17,0.08,0.95,58.02,20.6,22.0,0.5,0.5,0.25,1.25,0.25,1.5,0.5,1.25,0.75,1.5,2.0,0.75,0.0,0.02,0.14,0.95,159.03,-2.0,-14.9
1.64,1.25,0.0,1.25,0.5,0.0,0.0,0.0,0.0,0.0,0.25,0.75,0.0,0.0,-0.17,0.08,0.95,62.31,26.0,37.7,1.0,0.5,0.25,1.25,0.25,1.5,0.5,1.25,0.75,1.5,1.75,1.0,0.0,0.02,0.14,0.95,159.02,-3.3,-11.0
1.66,1.5,0.0,1.25,0.5,0.0,0.0,0.0,0.0,0.0,0.5,0.75,0.0,0.0,-0.17,0.08,0.95,68.06,24.1,34.5,1.0,0.5,0.25,0.75,0.25,1.25,0.5,1.25,0.75,1.5,1.75,0.75,0.5,0.02,0.14,0.95,154.73,-2.3,-17.9
1.68,1.0,0.0,1.75,0.5,0.0,0.0,0.0,0.0,0.0,0.25,0.75,0.0,0.0,-0.17,0.08,0.95,72.04,27.0,37.2,0.5,0.25,0.25,1.0,0.25,1.5,0.5,1.0,0.75,1.5,1.75,0.75,0.25,0.02,0.14,0.95,149.8,-1.2,-20.2
1.7,0.75,0.0,1.0,0.5,0.0,0.0,0.0,0.0,0.0,0.0,0.75,0.0,0.0,-0.17,0.08,0.95,67.69,27.1,35.8,0.5,0.5,0.25,1.25,0.25,1.25,0.5,1.0,0.75,1.5,1.75,0.75,0.25,0.02,0.14,0.95,145.62,-2.4,-16.4
1.72,0.0,0.0,0.0,0.5,0.0,0.0,0.0,0.0,0.0,0.0,0.0,0.0,0.0,-0.17,0.14,0.95,47.66,17.2,57.9,1.0,0.5,0.25,1.25,0.25,1.25,0.25,1.0,0.75,1.5,2.25,0.75,0.25,0.02,0.14,0.95,147.37,-3.8,-14.7
1.74,0.5,0.0,1.5,0.5,0.0,0.0,0.0,0.0,0.0,0.0,0.0,0.0,0.0,-0.17,0.14,0.95,40.73,33.3,67.1,0.5,0.5,0.25,1.25,0.25,1.25,0.5,1.0,0.75,1.5,2.0,0.75,0.25,0.02,0.14,0.89,147.59,-2.6,-17.8
1.76,0.0,0.0,0.25,0.5,0.0,0.0,0.0,0.0,1.25,0.0,0.5,0.0,0.0,-0.17,0.14,0.95,33.74,15.6,-15.2,0.75,0.25,0.0,1.25,0.25,1.25,0.25,1.0,0.75,1.5,1.5,0.75,0.25,0.02,0.14,0.89,145.63,-1.4,-17.9
1.78,0.0,0.0,0.75,0.5,0.0,0.0,0.0,0.0,0.0,0.0,0.5,0.0,0.0,-0.11,0.14,0.95,30.5,24.6,22.9,0.5,0.75,0.25,0.75,0.25,1.0,0.25,1.0,0.75,1.5,1.75,0.75,0.25,0.02,0.14,0.89,141.73,-2.1,-19.2
1.8,0.0,0.0,0.25,0.5,0.0,0.0,0.0,0.0,0.0,0.25,0.5,0.0,0.0,-0.11,0.14,0.95,25.58,13.3,-6.1,1.25,0.5,0.25,1.25,0.25,1.25,0.5,1.0,0.75,1.5,1.5,0.75,0.25,0.02,0.14,0.89,144.05,-4.4,-7.6
1.82,0.0,0.0,0.0,0.5,0.0,0.0,0.0,0.0,0.0,0.25,0.5,0.0,0.0,-0.17,0.14,0.95,20.46,8.1,-19.9,0.75,0.5,0.25,1.25,0.25,1.25,0.5,1.0,0.75,1.5,2.0,0.75,0.25,0.02,0.14,0.89,146.92,-3.3,-15.3
1.84,0.0,0.0,0.0,0.5,0.0,0.0,0.0,0.0,0.0,0.25,0.25,0.0,0.0,-0.17,0.14,0.89,13.95,7.5,-6.7,1.25,0.25,0.25,0.25,0.25,1.25,0.5,1.0,0.75,1.5,1.75,0.75,0.25,0.02,0.14,0.89,145.43,-2.9,-19.3
1.86,0.0,0.0,0.0,0.5,0.0,0.0,0.0,0.0,0.0,0.25,0.25,0.0,0.0,-0.23,0.2,0.95,9.69,7.5,-6.7,1.0,0.5,0.25,0.5,0.25,1.25,0.25,1.0,0.75,1.5,1.5,1.0,0.25,0.02,0.14,0.89,144.47,-2.4,-18.4
1.88,0.0,0.0,0.0,0.5,0.0,0.0,0.0,0.0,0.0,0.0,0.5,0.0,0.0,-0.23,0.14,0.95,8.13,14.1,-6.1,1.25,0.5,0.25,0.75,0.25,0.75,0.25,1.0,0.75,1.5,1.5,1.0,0.25,0.02,0.14,0.89,142.05,-4.8,-16.1
1.9,0.0,0.0,0.0,0.5,0.0,0.0,0.0,0.0,0.0,0.25,0.25,0.0,0.0,-0.23,0.08,0.95,8.35,7.5,-6.7,0.5,0.5,0.0,1.25,0.25,1.25,0.5,1.0,0.75,1.5,1.75,0.75,0.25,0.02,0.14,0.89,141.82,-1.5,-18.5
1.92,0.0,0.0,0.0,0.5,0.0,0.0,0.0,0.0,0.0,0.25,0.25,0.0,0.0,-0.23,0.14,0.77,10.08,7.5,-6.7,0.75,0.75,0.25,1.25,0.25,1.25,0.25,1.0,0.75,1.5,2.0,0.75,0.25,0.08,0.14,1.02,146.68,-3.2,-13.0
1.94,0.0,0.0,0.0,0.5,0.0,0.0,0.0,0.0,0.0,0.25,0.25,0.0,0.0,-0.23,0.08,0.77,12.4,7.5,-6.7,0.5,0.25,0.25,0.0,0.25,1.0,0.5,1.0,0.75,1.5,2.0,0.75,0.25,0.02,0.14,0.95,141.14,-0.8,-34.2
1.96,0.0,0.0,0.0,0.5,0.0,0.0,0.0,0.0,0.0,0.5,0.25,0.25,0.0,-0.17,0.08,0.77,16.41,3.9,-34.9,0.5,0.5,0.25,0.25,0.25,1.25,0.5,1.0,0.75,1.5,2.0,1.0,0.25,0.02,0.14,0.95,139.48,-1.2,-28.4
1.98,0.0,0.0,0.0,0.5,0.0,0.0,0.0,0.0,0.0,0.25,0.0,0.0,0.0,-0.05,0.08,1.27,13.81,6.5,14.7,0.0,0.25,0.25,0.75,0.25,0.0,0.5,0.0,0.75,1.5,1.0,0.75,0.0,0.02,0.14,0.95,119.24,-6.2,-32.5
2.0,0.0,0.0,0.25,0.5,0.0,0.0,0.0,0.0,0.0,0.25,0.5,0.0,0.0,-0.11,0.02,0.95,17.76,13.3,-6.1,0.0,0.0,0.0,0.0,0.0,0.0,0.5,1.0,0.0,0.0,1.75,0.75,0.0,0.02,0.14,0.95,94.03,-4.3,-65.7
2.02,0.0,0.0,0.5,0.5,0.0,0.0,0.0,0.0,0.0,0.25,0.5,0.0,0.0,-0.05,0.14,1.14,21.99,16.9,3.5,0.0,0.25,0.25,0.0,0.25,0.0,0.5,1.0,0.0,0.0,1.75,0.0,0.25,0.02,0.14,0.95,68.51,-4.4,-32.9
2.04,0.0,0.0,0.5,0.5,0.0,0.0,0.0,0.0,0.0,0.25,0.5,0.0,0.0,-0.11,0.14,0.95,26.45,16.9,3.5,0.0,0.0,0.0,0.0,0.0,0.0,0.25,0.25,0.0,0.0,0.0,0.0,0.0,0.02,0.08,0.95,33.59,0.8,-17.3
2.06,0.0,0.0,0.75,0.5,0.0,0.0,0.0,0.0,0.0,0.25,0.5,0.0,0.0,-0.17,0.08,0.89,30.67,19.6,10.8,0.0,0.0,0.0,0.0,0.0,1.0,0.25,0.25,0.75,1.5,0.0,0.75,0.0,0.02,0.08,0.95,29.83,6.9,-46.0
2.08,0.0,0.0,0.75,0.5,0.0,0.0,0.0,0.0,0.0,0.25,0.5,0.0,0.0,-0.17,0.08,0.95,33.83,19.6,10.8,0.5,0.5,0.25,1.25,0.0,1.25,0.5,1.0,0.75,1.5,2.0,0.75,0.25,0.02,0.14,0.95,61.75,-2.8,-19.8
2.1,0.0,0.0,0.25,0.5,0.0,0.0,0.0,0.0,0.0,0.25,0.75,0.0,0.0,-0.11,0.08,0.95,33.55,12.9,-15.7,0.75,0.25,0.25,0.75,0.0,1.0,0.5,1.0,0.75,1.75,2.0,1.0,0.25,0.02,0.14,0.95,96.34,-2.8,-29.3
2.12,0.0,0.0,0.25,0.5,0.0,0.0,0.0,0.0,0.0,0.75,0.75,0.0,0.0,-0.17,0.08,0.95,34.76,6.6,-28.9,0.75,0.5,0.0,0.5,0.25,1.25,0.5,1.0,0.0,2.75,2.0,1.0,0.25,0.02,0.14,0.95,125.72,1.3,-30.6
2.14,0.0,0.0,0.0,0.5,0.0,0.0,0.0,0.0,0.0,1.5,0.75,0.0,0.0,-0.17,0.08,0.95,39.21,-2.4,-50.0,0.5,0.5,0.25,1.25,0.25,1.25,0.5,1.0,0.0,1.5,2.5,1.25,0.5,0.02,0.08,0.95,145.51,-2.2,-25.3
2.16,0.0,0.0,0.0,0.5,0.0,0.0,0.0,0.0,0.0,0.0,0.75,0.0,0.5,-0.17,0.08,0.89,37.93,5.5,-45.9,1.25,0.25,0.25,1.25,0.25,1.25,0.5,2.0,0.75,4.0,3.25,1.75,1.0,0.02,0.08,0.95,186.79,-0.2,-37.8
2.18,0.0,0.0,0.0,0.5,0.0,0.0,0.0,0.0,0.25,1.0,2.25,0.25,1.25,-0.17,0.08,0.95,58.31,0.8,-70.7,0.75,0.75,0.25,0.25,0.5,0.75,0.75,2.5,0.75,4.75,4.25,2.25,1.25,0.02,0.08,0.95,229.27,0.9,-48.8
2.2,0.0,0.0,0.0,0.25,0.0,0.0,0.25,0.0,0.5,0.75,2.25,0.25,1.25,-0.17,0.08,0.95,74.76,2.0,-73.1,1.25,0.5,0.25,0.75,0.25,1.25,0.5,2.5,0.75,5.75,5.0,3.0,1.5,0.02,0.08,0.95,278.27,0.6,-49.7
2.22,0.0,0.0,0.25,0.5,0.0,0.0,0.0,0.5,0.5,0.0,3.0,1.5,2.5,-0.17,0.08,0.95,109.68,2.9,-75.2,1.5,0.5,0.25,0.5,0.25,1.25,0.5,2.5,0.75,6.25,5.75,3.0,2.25,0.02,0.08,0.95,324.79,0.8,-52.6
2.24,0.0,0.0,0.5,0.5,0.0,0.0,0.0,0.0,0.5,3.75,4.25,2.0,2.75,-0.17,0.08,0.95,161.25,0.0,-76.0,0.75,0.5,0.0,1.25,0.0,1.25,0.5,2.5,0.75,6.5,6.0,3.5,3.0,0.02,0.08,0.95,368.03,1.8,-58.8
2.26,0.0,0.0,0.0,0.5,0.0,0.0,0.0,0.0,0.5,4.5,4.75,2.25,3.75,-0.17,0.08,0.95,214.36,-2.4,-82.9,0.5,0.75,0.25,0.25,0.5,1.25,0.25,2.5,1.0,6.75,6.25,3.75,3.25,0.02,0.08,0.95,397.18,2.5,-61.1
2.28,0.0,0.0,0.75,0.5,0.0,0.0,0.0,0.75,0.75,4.25,5.5,3.0,3.75,-0.17,0.08,0.95,262.05,0.0,-75.7,0.5,0.5,0.25,0.5,0.25,1.25,0.5,2.5,1.0,7.0,6.75,3.75,3.5,0.02,0.08,0.95,422.81,2.3,-63.1
2.3,0.0,0.0,0.25,0.5,0.0,0.0,0.0,2.25,0.5,5.0,5.75,2.5,4.5,-0.17,0.08,0.95,299.7,-3.4,-77.3,1.0,0.5,0.0,0.75,0.25,1.25,0.5,2.5,1.0,7.0,6.75,3.75,3.75,0.02,0.08,0.89,435.47,1.9,-60.9
2.32,0.0,0.0,1.0,0.5,0.0,0.0,0.0,2.25,0.75,5.0,5.75,3.0,4.75,-0.17,0.08,0.95,339.23,-1.7,-73.3,0.5,0.5,0.0,0.0,0.25,1.25,0.5,2.5,0.75,7.0,6.75,3.75,4.0,0.02,0.08,0.95,436.24,3.4,-67.7
2.34,0.0,0.0,1.0,0.5,0.0,0.0,0.0,0.75,0.75,5.0,5.5,3.25,4.75,-0.17,0.08,0.95,355.84,-0.6,-76.1,0.5,0.5,0.25,0.5,0.5,1.25,0.5,2.5,1.0,7.0,6.75,4.0,4.0,0.02,0.08,0.95,441.84,2.4,-63.2
2.36,0.0,0.0,0.5,0.5,0.0,0.0,0.0,0.0,0.75,5.0,4.75,3.0,3.75,-0.17,0.08,0.95,346.23,-0.9,-79.2,1.25,0.25,0.25,0.5,0.25,1.25,0.5,2.5,0.75,7.0,6.75,4.25,4.0,0.02,0.08,0.89,440.65,1.6,-62.5
2.38,0.0,0.0,0.0,0.5,0.0,0.0,0.0,0.25,0.5,5.0,5.0,3.0,4.25,-0.17,0.08,0.95,331.03,-2.6,-83.9,0.25,0.75,0.25,0.75,0.5,1.25,0.75,2.5,1.0,7.0,6.75,4.25,4.25,0.02,0.08,0.89,440.99,2.2,-62.4
2.4,0.0,0.0,1.0,0.5,0.0,0.0,0.0,0.0,0.5,4.5,1.25,3.0,4.0,-0.17,0.08,0.95,295.52,-2.2,-76.5,0.0,0.5,0.25,0.0,0.5,0.0,1.0,2.75,0.75,6.5,7.0,3.75,4.5,0.02,0.08,0.95,422.86,2.4,-72.1
2.42,0.0,0.0,0.0,0.5,0.0,0.0,0.0,0.0,0.5,3.75,0.0,3.0,3.75,-0.17,0.02,0.89,257.93,-6.0,-88.1,0.0,0.0,0.0,1.5,0.0,1.25,0.25,2.5,0.75,7.0,6.0,3.75,3.25,0.02,0.08,0.95,401.1,3.4,-66.7
2.44,0.0,0.0,0.0,0.25,0.0,0.0,0.0,0.0,0.5,3.5,3.25,1.25,2.5,-0.17,0.08,1.02,220.56,-3.0,-82.4,1.0,0.75,0.5,0.5,1.25,0.25,1.25,4.0,1.25,7.75,7.25,4.5,4.75,0.02,0.08,0.95,423.03,1.3,-58.5
2.46,0.0,0.0,0.0,0.25,0.0,0.0,0.0,0.0,0.0,1.75,0.0,1.5,2.5,-0.17,0.08,0.95,164.86,-7.4,-92.7,0.0,0.0,0.5,0.0,0.5,0.75,1.5,4.0,0.75,8.0,7.5,3.75,4.75,0.02,0.08,0.95,435.68,3.6,-69.9
2.48,0.0,0.0,0.0,0.5,0.0,0.0,0.25,0.0,0.0,2.0,1.5,2.0,2.5,-0.17,0.08,0.95,130.7,-2.3,-84.1,0.0,0.0,0.0,0.0,0.0,0.75,0.25,4.0,0.75,7.5,6.75,3.75,4.25,0.02,0.08,0.95,434.83,5.2,-76.0
2.5,0.0,0.0,0.0,0.5,0.0,0.0,0.0,0.0,0.0,1.75,1.5,1.5,2.25,-0.17,0.08,1.02,103.11,-2.8,-83.6,1.0,0.25,0.25,1.25,1.0,1.5,1.25,4.25,1.25,8.5,8.0,5.0,5.0,0.02,0.08,0.95,474.01,2.1,-58.6
2.52,0.0,0.0,0.5,0.5,0.0,0.0,0.0,0.0,0.0,1.75,0.0,0.75,1.25,-0.17,0.08,1.02,75.6,-2.0,-60.9,1.25,0.5,0.25,1.25,1.25,1.75,0.75,5.25,1.0,8.0,8.0,3.75,5.5,0.08,0.08,0.95,509.1,2.9,-54.1
2.54,1.75,0.0,0.75,0.5,0.0,0.0,0.0,0.0,0.0,0.5,0.5,0.5,1.25,-0.17,0.08,1.02,55.55,14.0,-5.7,0.0,0.0,0.0,1.25,0.0,1.25,0.25,4.75,0.75,8.0,7.25,4.75,4.75,0.08,0.08,0.95,518.07,4.4,-69.7
2.56,1.75,0.0,0.25,0.5,0.0,0.0,0.0,0.0,0.0,1.0,0.5,0.0,0.5,-0.3,0.02,1.14,39.81,13.2,8.4,1.0,1.0,0.25,1.25,1.25,3.25,1.0,5.75,1.25,8.75,8.0,5.0,5.25,0.08,0.08,0.95,563.03,3.4,-51.3
2.58,2.75,0.0,0.25,0.25,0.0,0.0,0.0,0.0,0.0,0.0,0.0,0.0,0.0,-0.48,-0.05,1.14,29.0,33.7,91.4,1.75,0.75,0.25,0.5,1.25,2.0,1.25,6.0,0.75,8.0,8.0,3.75,5.0,0.08,0.08,0.95,575.11,2.9,-51.5
2.6,2.5,0.0,0.5,0.25,0.0,0.0,0.0,0.0,0.0,0.5,0.0,0.0,0.0,-0.48,-0.42,1.14,25.93,27.1,65.7,1.5,0.25,0.25,1.25,2.25,3.0,1.0,6.0,1.25,9.0,8.25,5.0,5.5,0.08,0.08,0.95,617.64,3.3,-50.6
2.62,2.75,0.0,0.25,0.5,0.0,0.0,0.0,0.0,0.0,0.25,0.25,0.0,0.0,-0.92,-0.36,0.7,30.25,27.9,67.7,0.5,0.25,0.25,0.5,2.25,3.25,1.0,6.0,1.25,8.5,6.75,4.5,5.0,0.08,0.08,0.95,616.92,5.1,-53.0
2.64,2.75,0.0,1.25,0.5,0.0,0.0,0.0,0.0,0.0,0.25,0.5,0.0,0.0,-0.61,-0.67,0.83,46.22,29.2,59.6,1.0,0.5,0.0,0.25,0.0,3.75,0.5,6.25,1.25,8.75,6.75,5.0,5.25,0.08,0.08,0.95,620.87,5.5,-59.5
2.66,2.5,0.0,1.0,0.5,0.0,0.0,0.0,0.0,0.0,0.25,0.5,0.0,0.0,-0.42,-0.8,0.77,57.12,28.4,57.6,0.5,0.5,0.25,0.75,2.75,3.75,1.0,7.0,1.25,9.0,7.75,4.75,5.5,0.08,0.08,0.95,631.03,5.1,-50.6
2.68,2.5,0.0,1.0,0.5,0.0,0.0,0.0,0.0,0.0,0.25,0.5,0.0,0.0,-0.36,-0.98,1.02,66.33,28.4,57.6,0.75,1.0,0.25,1.25,2.5,4.0,1.0,7.5,1.25,9.0,7.5,4.0,5.5,0.08,0.08,0.95,645.99,5.0,-45.8
2.7,1.75,0.0,1.0,0.5,0.0,0.0,0.0,0.0,0.0,0.25,0.0,0.0,0.0,-0.05,-0.98,1.14,65.66,29.5,68.1,0.75,0.75,0.0,1.25,1.25,5.0,1.0,7.5,1.25,8.75,7.5,4.25,5.5,0.08,0.08,0.95,663.47,5.6,-49.0
2.72,0.75,0.0,1.0,0.5,0.0,0.0,0.0,0.0,0.0,0.25,0.0,0.0,0.0,0.14,-0.8,0.95,54.58,27.5,57.0,0.75,1.0,0.25,1.25,3.75,5.75,1.0,7.75,1.25,8.75,7.5,4.0,5.0,0.14,0.08,0.95,683.32,5.5,-39.1
2.74,0.0,0.0,1.0,0.5,0.0,0.0,0.0,0.0,0.0,0.25,0.0,0.0,0.0,0.14,-0.67,0.89,42.53,24.6,41.1,0.5,0.75,0.25,1.0,3.75,5.75,1.0,7.75,1.25,8.5,7.25,3.75,4.75,0.08,0.08,0.95,680.61,6.0,-40.0
2.76,1.5,0.0,1.5,0.5,0.0,0.0,0.0,0.0,0.0,0.25,0.0,0.0,0.25,0.02,-0.48,1.08,47.2,27.5,53.9,1.0,0.75,0.25,0.0,4.25,6.0,0.75,8.25,1.25,8.25,6.75,3.75,4.75,0.14,0.08,0.95,678.73,6.5,-38.8
2.78,1.0,0.0,1.25,0.5,0.0,0.0,0.0,0.0,0.0,0.25,0.0,0.0,0.0,-0.11,-0.36,1.08,46.58,29.0,60.5,0.75,1.0,0.25,0.75,4.25,6.25,0.5,8.25,1.0,8.0,6.75,3.75,4.5,0.14,0.08,0.95,671.29,6.4,-36.3
2.8,1.25,0.0,2.0,0.5,0.0,0.0,0.0,0.0,0.0,0.25,0.25,0.0,0.0,-0.3,-0.3,1.52,57.53,30.0,54.9,1.5,0.5,0.25,1.25,4.25,6.25,1.25,8.25,1.25,8.0,6.25,3.25,4.0,0.14,0.08,0.95,656.27,5.5,-32.2
2.82,0.75,0.0,1.25,0.5,0.0,0.0,0.0,0.0,0.0,0.25,0.0,0.0,0.0,-0.23,-0.3,1.64,55.29,28.5,57.4,1.0,1.5,0.25,1.25,4.5,7.0,1.25,8.25,1.0,7.5,6.0,3.0,3.75,0.14,0.08,0.95,645.74,5.9,-27.4
2.84,0.0,0.0,2.0,0.5,0.0,0.0,0.0,0.0,0.0,0.25,0.0,0.0,0.0,-0.05,0.02,1.08,52.81,29.6,48.3,1.25,1.25,0.25,1.25,4.75,7.5,1.25,8.25,1.0,7.0,5.75,3.0,3.0,0.14,0.08,0.95,629.97,5.8,-24.1
2.86,0.75,0.0,1.0,0.5,0.0,0.0,0.0,0.0,0.0,0.25,0.0,0.0,0.0,-0.05,0.2,0.89,45.15,27.5,57.0,1.25,1.25,0.5,2.25,5.75,7.75,1.25,8.25,1.25,6.75,5.25,2.25,3.0,0.14,0.08,0.95,635.38,5.3,-17.5
2.88,0.75,0.0,0.5,0.5,0.0,0.0,0.0,0.0,0.0,0.25,0.0,0.0,0.0,0.02,0.33,0.83,38.5,24.7,56.0,1.25,1.5,0.25,3.25,6.5,8.25,1.5,8.25,1.25,6.25,4.5,2.0,2.25,0.14,0.08,0.95,641.79,5.1,-10.1
2.9,0.75,0.0,1.0,0.5,0.0,0.0,0.0,0.0,0.0,0.25,0.0,0.0,0.0,-0.05,0.39,1.08,37.49,27.5,57.0,1.75,1.5,0.5,4.5,8.0,8.5,2.5,7.75,1.0,4.75,4.0,1.5,1.75,0.14,0.14,0.95,659.65,3.3,1.4
2.92,1.0,0.0,1.5,0.5,0.0,0.0,0.0,0.0,0.0,0.25,0.0,0.0,0.0,-0.11,0.45,1.14,42.85,29.7,60.5,1.25,1.75,3.0,6.5,9.0,9.25,4.5,7.0,1.0,4.25,3.25,1.0,1.25,0.14,0.14,0.95,712.69,0.2,12.9
2.94,0.75,0.0,1.0,0.5,0.0,0.0,0.0,0.0,0.0,0.25,0.0,0.0,0.0,0.02,0.58,0.83,45.18,27.5,57.0,2.0,1.25,3.25,7.5,9.25,9.0,5.5,6.5,0.75,1.75,2.75,1.0,1.25,0.02,0.08,1.08,752.3,-1.8,20.7
2.96,1.0,0.0,1.0,0.5,0.0,0.0,0.0,0.0,0.0,0.25,0.0,0.0,0.0,0.02,0.89,0.64,47.21,28.1,60.5,3.25,1.5,5.5,7.5,9.25,8.75,5.5,5.25,0.25,1.75,1.5,0.5,0.25,0.08,0.14,1.08,781.42,-4.9,33.3
2.98,1.25,0.0,1.75,0.5,0.0,0.0,0.0,0.0,0.0,0.25,0.0,0.0,0.0,-0.05,1.08,0.58,52.76,30.7,62.9,2.75,1.25,5.5,7.75,9.25,8.5,5.75,4.25,0.5,1.5,1.5,0.25,0.25,0.08,0.2,1.08,783.51,-5.4,34.9
3.0,0.0,0.0,0.75,0.5,0.0,0.0,0.0,0.0,0.0,0.25,0.25,0.0,0.0,-0.17,2.52,1.83,44.83,20.8,22.5,4.0,1.25,6.5,8.25,9.25,7.5,6.0,4.0,0.25,1.5,0.75,0.25,0.25,0.08,0.2,1.08,785.66,-7.6,39.7
3.02,0.0,0.0,0.0,0.5,0.0,0.0,0.0,0.0,0.0,0.0,0.0,0.0,0.0,0.14,2.45,0.2,32.17,17.2,57.9,4.25,0.75,6.75,8.0,9.5,6.5,6.0,2.5,0.25,1.25,1.0,0.25,0.0,0.08,0.2,1.2,763.49,-9.4,43.0
3.04,0.0,0.0,0.0,0.5,0.0,0.0,0.0,0.0,0.0,1.75,0.75,0.75,1.25,-0.11,-0.55,1.2,45.07,-4.2,-75.4,5.0,0.75,7.0,7.75,8.25,5.75,5.75,2.25,0.25,0.75,0.75,0.25,0.25,0.14,0.33,1.39,733.06,-11.2,45.3
3.06,0.0,0.0,0.0,0.25,0.0,0.0,0.0,0.0,0.25,3.25,2.5,1.25,2.5,-0.23,0.27,1.64,90.95,-4.1,-84.2,5.25,0.5,5.75,5.75,6.75,3.75,5.5,1.5,0.25,1.5,0.75,0.25,0.0,0.2,0.39,1.83,651.41,-12.6,44.6
3.08,0.0,0.0,0.0,0.5,0.0,0.0,0.0,0.0,0.25,3.0,3.0,1.25,2.5,-0.11,0.27,1.39,135.03,-2.6,-80.4,5.5,0.75,3.25,2.75,4.75,1.25,4.5,1.0,0.0,1.0,0.5,0.25,0.0,0.27,0.58,2.33,506.75,-15.4,49.1
3.1,0.0,0.0,0.0,0.0,0.0,0.0,0.0,0.0,0.0,0.0,3.0,0.5,2.5,-0.11,0.14,1.14,146.27,0.0,-93.1,4.5,0.0,0.5,2.0,2.75,1.25,3.0,1.0,0.0,0.25,0.75,0.25,0.0,0.39,0.7,1.89,345.02,-13.5,45.4
3.12,0.0,0.0,0.0,0.0,0.0,0.0,0.0,0.0,0.0,2.75,0.0,1.75,0.0,-0.11,0.14,0.95,135.06,-6.1,-88.8,1.5,0.0,0.25,1.25,0.5,0.0,1.0,1.0,0.0,0.0,0.5,0.25,0.0,0.33,0.64,2.33,204.84,-14.8,29.5
3.14,0.0,0.0,0.0,0.75,0.0,0.0,0.25,2.0,1.25,5.0,4.0,2.25,1.5,-0.11,0.08,0.95,174.43,-2.3,-69.1,0.0,0.0,0.0,0.0,0.25,1.25,0.25,1.0,0.75,1.75,0.5,0.75,0.0,0.45,0.14,2.02,85.72,7.5,-41.0
3.16,0.0,0.0,0.0,0.25,0.0,0.0,0.5,2.75,0.75,5.0,6.25,2.25,3.25,-0.11,0.08,0.95,230.46,-3.1,-75.7,1.25,0.5,0.25,0.5,2.75,1.25,0.25,0.75,0.75,1.75,2.0,0.75,0.5,0.64,-1.42,0.77,39.19,-1.6,-3.6
3.18,0.0,0.75,0.0,1.0,0.0,0.0,0.75,3.5,1.0,6.25,6.75,0.0,3.0,-0.11,0.08,0.95,286.87,-3.4,-59.0,0.0,0.0,0.5,0.0,2.25,1.0,0.5,1.0,0.0,1.0,2.0,0.0,0.5,0.89,-1.42,1.77,17.75,2.4,-12.2
3.2,0.0,0.75,0.0,1.75,0.0,0.0,0.75,3.25,1.5,6.25,6.5,2.5,3.75,-0.11,0.08,0.95,348.07,-1.6,-61.5,0.0,0.0,0.0,0.0,0.0,0.5,0.25,1.0,0.25,0.25,0.25,0.0,0.0,0.33,-0.67,0.95,0.0,9.4,-28.3
3.22,0.0,0.75,0.0,1.5,0.0,0.0,0.75,4.75,0.75,6.25,5.75,3.0,4.0,-0.11,0.08,0.95,393.21,-3.3,-62.9,0.0,0.0,0.0,0.0,0.0,0.5,0.25,1.0,0.25,1.25,0.25,0.0,0.0,0.33,-0.42,0.52,0.0,11.3,-42.5
3.24,0.0,0.0,0.0,0.5,0.0,0.0,1.0,4.0,0.25,5.25,5.75,2.0,3.75,-0.11,0.08,0.95,394.93,-4.4,-72.1,0.0,0.0,0.0,0.0,0.0,0.0,0.25,1.0,0.25,0.0,0.25,0.0,0.0,0.45,-0.3,0.33,0.0,4.5,-39.3
3.26,0.0,0.25,0.0,1.0,0.0,0.0,0.75,4.5,0.25,5.0,5.75,2.0,3.75,-0.11,0.08,0.95,385.19,-4.0,-66.9,0.0,0.0,0.0,0.0,0.0,0.25,0.25,1.0,0.0,0.5,0.75,0.0,0.0,0.39,-0.3,0.52,0.0,7.1,-46.5
3.28,0.0,0.75,0.0,2.5,0.0,1.25,1.0,4.75,1.25,5.25,5.5,2.0,3.75,-0.11,0.08,0.95,385.76,-2.9,-50.6,0.0,0.0,0.0,0.0,0.0,0.25,0.25,1.0,0.25,0.75,0.5,0.0,0.0,0.14,-0.23,1.02,0.0,7.7,-45.8
3.3,0.0,1.0,0.75,2.5,0.0,2.0,1.0,4.75,1.0,5.0,4.25,2.0,2.5,-0.11,0.08,0.95,380.58,-2.2,-39.4,0.0,0.0,0.0,0.0,0.0,0.75,0.25,1.0,0.0,0.0,0.0,0.0,0.0,0.08,-0.11,1.08,0.0,15.9,-6.2
3.32,0.0,1.0,0.5,2.5,0.0,2.0,0.75,5.0,1.0,4.25,3.75,1.5,2.5,-0.11,0.08,0.95,371.12,-3.0,-37.5,0.0,0.0,0.0,0.0,0.0,0.0,0.25,1.0,0.0,0.0,0.25,0.0,0.0,0.08,0.02,1.08,0.0,7.5,-39.5
3.34,0.0,1.0,0.0,2.5,0.0,2.5,0.5,4.75,0.75,3.75,3.0,1.0,2.0,-0.11,0.08,0.95,344.35,-4.9,-33.1,0.0,0.0,0.0,0.0,0.0,0.5,0.25,1.0,0.0,0.25,0.0,0.0,0.0,0.08,0.14,1.27,2.37,15.0,-20.8
3.36,0.0,1.0,0.0,2.5,0.0,3.0,0.25,4.75,0.0,3.5,3.0,0.75,1.25,-0.11,0.08,0.95,303.15,-5.9,-27.1,0.0,0.0,0.0,0.0,0.0,0.0,0.25,1.0,0.0,0.0,0.25,0.0,0.0,0.08,0.27,1.39,6.97,7.5,-39.5
3.38,0.0,1.0,1.0,2.5,0.0,3.25,0.5,4.75,0.75,2.75,2.25,0.75,1.25,-0.11,0.08,0.95,273.13,-3.2,-18.6,0.0,0.0,0.0,0.0,0.0,0.0,0.25,1.0,0.0,0.0,0.25,0.0,0.0,0.08,0.45,1.52,4.27,7.5,-39.5
3.4,0.0,1.0,0.0,2.5,0.0,4.25,0.5,4.75,0.75,2.25,1.5,0.5,1.25,-0.11,0.14,0.95,253.55,-6.8,-15.4,0.0,0.0,0.0,0.0,0.0,0.0,0.25,1.0,0.0,0.0,0.0,0.0,0.0,0.14,0.58,1.89,2.28,11.5,-31.7
3.42,1.75,1.0,0.25,2.5,0.0,4.75,1.0,5.0,0.75,2.0,2.0,0.5,1.25,-0.11,0.14,0.95,256.8,-2.7,-5.4,0.0,0.0,0.0,0.0,0.0,0.0,0.25,1.0,0.25,0.25,0.25,0.0,0.0,0.14,0.7,2.33,14.33,6.0,-44.2
3.44,0.0,1.0,1.75,3.75,2.25,5.25,1.0,5.0,0.75,1.75,2.0,0.25,1.25,-0.11,0.14,0.95,277.37,-2.0,3.5,0.0,0.0,0.0,0.0,0.0,0.0,0.25,1.0,0.25,0.25,0.0,0.0,0.0,0.14,1.14,2.39,20.89,8.5,-39.5
3.46,1.75,1.25,0.75,4.25,2.5,5.5,1.0,5.0,0.75,1.75,1.5,0.0,1.0,-0.11,0.14,0.95,307.41,-1.2,13.4,0.0,0.0,0.0,0.0,0.0,0.0,0.25,1.0,0.0,1.0,0.25,0.0,0.0,0.02,1.58,1.77,27.18,11.0,-54.7
3.48,4.5,1.25,1.75,4.5,4.25,6.25,1.25,5.0,0.5,1.75,1.5,0.0,0.75,-0.11,0.14,0.95,369.73,2.4,26.2,0.0,0.0,0.0,0.0,0.0,0.25,0.25,1.0,0.0,0.0,0.0,0.0,0.0,-0.42,2.14,1.27,26.87,13.5,-20.2
3.5,5.0,1.25,2.75,6.25,5.5,6.5,2.0,4.75,0.5,1.75,1.0,0.0,0.75,-0.11,0.14,0.95,448.88,4.5,32.4,0.0,0.0,0.0,0.0,0.0,0.0,0.25,1.0,0.25,0.0,0.0,0.0,0.0,-0.98,2.58,0.52,25.02,7.2,-32.9
3.52,5.5,1.25,4.25,7.25,6.25,7.25,2.0,4.5,0.5,1.75,1.25,0.0,0.5,-0.11,0.14,1.02,551.25,6.0,36.0,0.0,0.0,0.0,0.0,0.0,0.0,0.25,1.0,0.25,0.5,0.0,0.0,0.0,-1.17,3.02,-0.17,25.26,9.5,-44.3
3.54,5.5,1.5,4.75,8.0,6.75,7.25,2.5,4.25,0.25,1.5,1.25,0.0,0.25,-0.11,0.14,1.02,644.92,7.0,39.6,0.0,0.0,0.0,0.0,0.0,0.0,0.25,1.0,0.0,0.25,0.0,0.0,0.0,-1.17,2.83,0.02,24.9,12.2,-39.7
3.56,0.0,2.0,5.25,8.5,0.0,7.75,2.75,4.0,0.0,1.25,0.5,0.0,0.25,-0.11,0.2,1.02,626.44,5.6,32.9,0.0,0.0,0.0,0.0,0.0,0.0,0.25,1.0,0.0,0.0,0.25,0.25,0.0,-1.11,3.77,-0.36,25.57,5.0,-50.3
3.58,0.0,2.0,6.0,9.0,0.0,7.5,3.25,3.25,0.0,1.0,0.5,0.0,0.0,-0.17,0.2,1.02,583.66,7.9,37.7,0.0,0.0,0.0,0.0,0.0,0.0,0.25,1.0,0.0,1.75,1.0,1.5,0.25,0.02,0.45,1.2,50.2,3.6,-77.4
3.6,0.0,2.25,6.75,9.25,0.0,7.25,3.25,1.5,0.0,0.5,0.0,0.0,0.0,-0.17,0.2,1.02,517.67,10.9,47.5,0.0,0.0,0.0,0.0,0.0,0.0,0.25,1.0,0.0,6.0,3.25,2.75,2.0,-0.36,0.14,1.02,127.02,5.1,-83.1
3.62,0.0,1.5,6.25,9.25,0.0,0.0,3.5,2.25,0.0,0.0,0.0,0.0,0.0,-0.23,0.27,1.2,428.8,20.7,49.3,0.0,0.0,0.0,0.0,0.0,0.0,0.25,1.0,0.25,7.0,5.25,3.0,2.5,-0.05,0.58,2.39,209.02,3.8,-82.4
3.64,7.25,2.0,7.0,9.0,0.0,0.0,3.5,1.5,0.0,0.0,0.75,0.0,0.0,-0.23,0.27,1.33,407.35,25.1,60.7,0.0,0.0,0.0,0.0,0.0,1.0,0.25,2.5,0.75,7.75,6.75,3.0,3.0,0.77,0.52,2.14,289.88,4.7,-74.4
3.66,8.0,1.0,7.0,7.75,0.0,0.0,3.0,1.5,0.0,0.25,0.5,0.0,0.0,-0.36,0.39,1.7,389.67,25.9,60.6,0.0,0.0,0.0,0.0,0.0,1.25,0.25,4.0,1.25,8.0,7.5,3.0,3.0,0.02,0.14,0.95,367.43,4.9,-71.0
3.68,8.25,0.0,6.0,4.5,0.0,0.0,2.75,1.25,0.0,0.25,0.25,0.0,0.0,-0.3,0.58,2.14,358.2,28.0,62.5,0.0,0.25,0.0,0.5,0.25,1.25,1.0,4.25,1.5,8.25,8.0,3.5,3.0,0.08,0.14,0.95,443.62,3.5,-65.3
3.7,7.25,0.0,0.25,2.5,0.0,0.0,1.75,0.0,0.0,0.0,0.0,0.0,0.0,-0.48,0.83,2.52,274.22,30.4,81.3,0.0,0.25,0.0,0.75,0.25,3.5,1.25,5.25,2.0,8.25,8.5,3.75,3.25,0.08,0.14,0.95,521.2,4.3,-57.9
3.72,0.0,0.0,2.0,0.0,0.0,0.0,0.5,0.75,0.0,0.0,0.0,0.0,0.0,-0.36,0.89,2.7,166.07,24.2,33.8,0.25,0.25,0.0,1.25,0.25,3.25,1.25,5.25,2.0,8.25,8.75,3.75,3.25,0.08,0.08,0.95,582.04,3.6,-55.9
3.74,0.0,0.0,0.0,0.0,0.0,0.0,0.0,0.0,0.0,0.0,0.0,0.0,0.0,-0.67,0.39,2.58,38.23,0.0,0.0,0.5,0.5,0.25,1.25,0.5,3.5,1.5,5.25,1.75,8.25,8.5,3.75,3.25,0.08,0.08,0.95,622.78,3.1,-51.4
3.76,0.0,0.0,0.0,0.0,0.0,0.0,3.0,0.0,2.25,0.0,1.25,0.0,0.0,-0.8,-0.86,2.08,0.0,17.8,-28.2,0.5,0.5,0.25,1.25,0.5,3.25,2.0,5.25,1.75,8.0,8.5,3.25,3.0,0.08,0.08,0.95,631.11,2.8,-50.1
3.78,0.0,0.0,0.0,0.25,0.0,0.0,0.0,0.0,0.0,0.0,0.25,0.0,0.0,-0.8,-0.55,0.7,0.0,14.1,-6.1,0.25,0.25,0.5,1.25,0.5,3.75,2.0,5.25,1.75,7.5,8.25,3.0,2.25,0.08,0.08,0.95,613.43,2.9,-48.0
3.8,0.0,0.0,0.0,1.5,0.0,0.0,0.0,0.0,0.5,0.0,0.0,0.0,0.0,-0.42,-1.61,2.02,0.0,16.0,34.8,1.75,1.25,0.5,2.5,3.75,4.75,2.5,5.5,2.0,7.75,8.5,3.5,3.25,0.08,0.08,0.95,638.95,1.2,-29.2
3.82,0.0,0.0,0.0,0.25,0.0,0.0,3.25,0.0,2.25,0.0,0.75,0.5,0.0,-0.11,-0.86,1.2,0.0,17.9,-26.0,1.25,1.25,2.75,2.5,1.0,5.0,2.5,5.25,1.25,7.25,7.25,2.25,2.0,0.08,0.08,0.95,619.04,-0.4,-24.4
3.84,0.0,0.0,0.0,0.0,0.0,0.0,3.75,0.0,2.25,0.0,0.5,0.25,0.0,-0.3,-0.42,0.58,0.0,19.5,-21.1,0.5,1.0,1.25,1.25,1.25,3.75,3.25,5.25,0.0,5.75,7.5,3.0,2.25,0.08,0.08,0.95,572.67,1.1,-35.8
3.86,0.0,0.0,0.0,0.75,0.0,0.0,4.0,0.0,2.25,0.0,0.75,0.5,0.0,-0.42,-0.23,0.39,4.52,18.7,-15.8,2.5,0.25,1.75,1.5,1.25,4.0,3.25,5.0,1.25,5.25,7.0,2.25,1.25,0.08,0.08,0.95,517.71,-1.8,-24.1
3.88,0.0,0.0,0.0,0.25,0.0,0.0,4.0,0.0,0.0,0.0,0.25,0.0,0.0,-0.23,-0.23,0.64,4.66,28.5,20.4,2.5,0.5,3.25,2.0,2.75,5.5,3.75,5.25,1.5,5.75,5.75,2.25,2.0,0.08,0.08,0.95,513.29,-1.7,-14.3
3.9,0.0,0.0,0.0,1.25,0.0,0.0,4.0,0.0,1.75,0.0,0.5,0.0,0.0,0.02,-0.23,1.02,32.24,20.3,4.6,2.5,1.25,3.25,4.0,3.25,5.75,3.25,4.75,1.5,4.75,4.5,2.25,1.5,0.08,0.08,0.95,524.82,-2.9,-2.7
3.92,0.0,0.0,0.0,0.25,0.0,0.0,0.0,0.0,0.0,0.0,0.0,0.0,0.0,-0.05,-0.11,1.2,26.13,17.2,57.9,2.5,1.25,3.75,4.0,5.0,5.75,4.5,5.25,1.5,4.5,5.25,1.75,1.25,0.08,0.08,0.95,572.68,-3.5,1.6
3.94,0.0,0.0,0.0,0.5,0.0,0.0,0.0,0.0,0.0,0.0,0.75,0.0,0.0,-0.11,0.08,1.33,31.47,13.4,-19.5,2.5,1.5,5.5,5.25,6.25,6.5,5.0,5.25,1.5,3.75,4.5,1.5,1.25,0.08,0.08,0.95,642.02,-4.9,10.9
3.96,0.0,0.0,0.0,0.5,0.0,0.0,0.0,0.0,0.0,0.0,0.5,0.0,0.0,-0.17,0.27,1.45,22.59,14.1,-6.1,3.5,1.5,5.75,6.5,6.75,6.5,5.5,5.0,1.5,3.5,4.25,1.0,1.25,0.08,0.08,0.95,717.48,-6.1,16.8
3.98,0.0,0.0,0.0,0.25,0.0,0.0,0.0,0.0,0.0,0.0,0.0,0.0,0.0,-0.17,0.52,1.7,13.34,17.2,57.9,4.0,1.5,7.0,7.75,8.0,7.0,6.0,4.25,1.0,1.5,3.25,0.75,1.0,0.08,0.14,0.95,782.6,-8.2,29.0
4.0,0.0,0.0,0.0,0.25,0.0,0.0,0.0,0.0,0.0,0.0,0.0,0.0,0.0,-0.17,0.7,1.89,1.0,17.2,57.9,5.0,1.75,7.0,8.25,8.25,7.25,6.25,4.0,1.25,1.5,3.25,0.75,0.75,0.08,0.14,0.95,845.82,-8.9,31.6
4.02,0.0,0.0,0.0,0.5,0.0,0.0,0.0,0.0,0.0,0.0,0.0,0.0,0.0,-0.3,0.77,2.58,0.38,17.2,57.9,4.25,1.25,7.75,8.0,8.0,6.75,6.5,4.0,0.75,0.5,2.0,0.5,0.25,0.02,0.14,1.02,855.17,-10.0,38.0
4.04,0.0,0.0,0.0,0.5,0.0,0.0,0.0,0.0,0.0,0.0,0.25,0.0,0.0,-0.48,1.08,2.64,0.0,15.1,15.7,5.25,1.5,8.25,9.25,8.25,7.0,6.75,3.75,0.75,1.0,2.0,0.0,0.5,0.08,0.14,1.02,874.24,-10.5,40.1
4.06,0.0,0.0,0.25,0.5,0.0,0.0,0.0,0.0,0.0,0.0,0.0,0.0,0.0,-0.55,2.08,2.27,0.0,24.1,58.9,5.75,1.5,8.75,9.5,8.75,6.5,6.75,2.75,0.5,1.25,2.0,0.0,0.0,0.08,0.14,1.08,892.52,-11.8,43.9
4.08,0.0,0.0,0.5,0.5,0.0,0.0,0.0,0.0,0.0,0.25,0.25,0.0,0.0,0.08,3.02,1.33,5.34,17.9,16.0,6.5,1.75,9.25,11.0,9.25,5.75,6.75,2.5,0.5,0.75,1.25,0.0,0.0,0.08,0.2,1.08,921.34,-13.3,48.8
4.1,0.0,0.0,0.75,0.5,0.0,0.0,0.0,0.0,0.0,0.25,0.5,0.0,0.0,0.83,3.64,0.33,14.85,19.6,10.8,7.0,1.5,9.5,11.0,9.0,5.5,6.75,1.5,0.5,0.75,0.75,0.25,0.0,0.02,0.27,1.02,920.94,-14.4,51.2
4.12,1.75,0.0,1.0,0.5,0.0,0.0,0.0,0.0,0.0,0.0,0.5,0.0,0.0,0.27,4.64,-0.3,36.02,30.1,58.9,7.25,0.5,10.5,11.0,8.25,3.75,6.75,1.0,0.25,0.25,1.0,0.25,0.0,0.02,0.27,1.08,891.19,-17.3,53.2
4.14,0.0,0.0,0.0,0.5,0.0,0.0,0.0,0.0,0.0,0.25,0.0,0.0,0.0,0.39,0.39,0.14,33.36,6.5,14.7,8.0,2.0,10.5,10.5,8.0,3.0,6.5,1.0,0.75,0.0,1.0,0.75,0.0,0.02,0.33,1.33,867.4,-18.1,53.7
4.16,0.0,0.0,0.0,0.25,0.0,0.0,0.5,0.0,0.0,2.25,0.75,2.0,0.0,-0.55,-0.23,1.14,60.83,0.4,-77.1,8.0,1.5,9.5,8.75,6.5,1.25,6.25,1.0,0.25,0.5,2.0,0.0,0.5,0.14,0.39,1.52,795.45,-19.3,51.2
4.18,0.0,0.0,0.0,0.5,0.0,0.0,0.0,0.0,0.5,4.25,1.25,3.0,0.0,-0.23,0.33,1.52,98.75,-1.2,-77.0,7.0,1.0,9.25,6.25,4.75,1.0,6.0,1.0,0.75,1.5,1.0,0.0,0.25,0.27,0.64,1.95,693.58,-19.9,48.7
4.2,1.5,0.0,0.75,0.5,0.0,0.0,0.0,0.0,0.25,5.25,3.5,3.0,5.0,-0.23,0.27,1.77,186.03,0.0,-68.0,5.75,0.5,6.25,4.0,3.0,1.0,5.5,1.0,0.25,0.0,0.5,0.25,0.0,0.27,0.95,2.39,531.34,-21.8,54.4
4.22,0.0,0.0,0.0,0.5,0.0,0.0,0.0,0.0,0.0,0.0,0.0,2.25,3.0,-0.48,0.33,1.58,190.04,-2.2,-94.8,3.0,0.0,3.25,1.75,0.5,0.0,3.5,1.0,0.25,0.75,0.5,0.0,0.0,0.33,0.77,2.52,344.04,-22.7,40.8
4.24,0.0,0.0,0.0,0.0,0.0,0.0,0.0,0.0,0.75,6.25,5.5,2.0,0.0,-0.11,0.14,1.2,222.99,-0.9,-78.3,2.5,0.5,2.0,2.5,0.0,1.25,1.5,1.0,0.75,1.75,2.0,0.75,0.0,0.45,0.39,2.45,236.74,-12.8,12.1
4.26,0.0,0.0,0.0,0.0,0.0,0.0,0.25,3.5,0.25,6.5,5.75,3.0,4.75,-0.17,0.14,0.95,269.96,-5.6,-80.5,1.25,0.0,2.5,1.25,2.5,1.25,0.5,1.0,0.75,0.75,1.5,0.25,0.0,0.52,-0.86,1.52,155.0,-9.6,21.2
4.28,0.0,0.0,0.0,1.25,0.0,0.0,0.5,4.75,0.25,7.0,7.0,3.0,5.0,-0.17,0.08,0.95,343.07,-4.4,-71.8,2.25,0.5,0.75,1.25,0.25,1.25,0.5,1.0,0.25,1.0,1.5,0.0,0.0,0.77,-0.42,1.2,92.33,-9.7,20.6
4.3,0.0,0.5,0.0,2.25,0.0,0.0,0.5,4.75,0.75,7.0,6.25,3.0,5.0,-0.11,0.08,0.95,411.69,-3.5,-63.7,0.5,0.0,0.25,0.0,0.0,0.0,0.25,1.0,0.25,0.0,0.75,0.0,0.0,0.58,-0.98,1.7,13.48,-8.5,-13.6
4.32,0.0,0.5,0.0,2.25,0.0,0.0,0.5,4.75,0.75,7.0,6.75,2.25,4.25,-0.11,0.08,0.95,463.86,-3.3,-61.4,0.0,0.0,0.5,0.0,0.0,0.0,0.25,1.0,0.25,0.25,0.75,0.0,0.0,0.14,-0.55,0.58,0.0,-4.8,-30.5
4.34,0.0,0.75,0.0,1.0,0.0,1.5,0.5,5.0,0.75,6.25,6.0,2.0,3.75,-0.11,0.08,0.95,469.69,-5.2,-58.3,0.25,0.0,0.25,0.0,0.0,0.0,0.25,1.0,0.0,0.75,0.75,0.25,0.0,0.33,-0.23,0.33,0.0,-1.0,-40.6
4.36,0.0,0.75,0.25,2.5,0.0,1.5,0.5,5.0,0.75,6.0,5.5,2.0,3.75,-0.11,0.08,0.95,455.14,-3.7,-50.3,0.25,0.0,0.25,0.0,0.0,0.25,0.25,1.0,0.25,0.5,0.25,0.0,0.0,0.39,-0.23,0.33,0.0,0.8,-19.2
4.38,0.0,1.0,0.0,2.5,0.0,1.5,0.5,5.0,0.5,5.0,4.5,1.5,2.5,-0.11,0.08,0.95,416.55,-4.0,-43.6,0.0,0.0,0.25,0.0,0.0,0.0,0.25,1.0,0.0,0.0,0.5,0.0,0.0,0.27,-0.23,0.52,0.0,-1.1,-30.2
4.4,0.0,1.0,0.0,2.5,0.0,2.5,0.5,4.5,0.0,4.75,4.25,0.75,2.5,-0.11,0.08,0.95,374.7,-5.3,-37.8,0.0,0.0,0.25,0.0,0.0,0.0,0.25,0.5,0.0,0.0,0.5,0.0,0.0,0.08,-0.23,1.02,0.0,-7.7,-27.1
4.42,0.0,1.0,0.0,2.5,0.0,2.75,0.5,4.75,0.0,3.75,3.25,1.0,1.5,-0.11,0.08,0.95,327.83,-5.3,-30.7,0.0,0.0,0.25,0.0,0.0,0.0,0.25,1.0,0.0,0.0,0.5,0.0,0.0,0.02,-0.11,1.02,0.0,-1.1,-30.2
4.44,0.0,1.0,0.0,2.5,0.0,3.25,0.5,4.75,0.0,3.5,3.25,0.75,1.5,-0.11,0.08,0.95,293.87,-5.7,-27.7,0.25,0.0,0.25,0.0,0.0,0.0,0.25,1.0,0.25,0.0,0.25,0.25,0.0,-0.05,0.02,1.02,0.0,-5.5,-22.1
4.46,0.0,1.0,0.0,2.5,0.0,3.25,0.5,5.0,0.25,3.25,2.75,0.75,1.25,-0.11,0.08,0.95,275.95,-5.8,-25.2,0.0,0.0,0.0,0.0,0.0,0.0,0.25,1.0,0.0,0.0,0.25,0.0,0.0,-0.05,0.08,1.14,0.0,7.5,-39.5
4.48,0.0,1.0,0.0,2.5,0.0,4.0,0.5,5.0,0.75,2.5,2.0,0.5,1.25,-0.11,0.08,0.95,253.73,-6.4,-18.5,0.0,0.0,0.0,0.0,0.0,0.0,0.25,0.75,0.0,0.0,0.5,0.0,0.0,-0.11,0.14,1.45,0.0,2.5,-46.0
4.5,0.0,1.0,0.0,2.5,0.0,4.75,0.75,4.75,0.75,2.0,1.25,0.0,1.25,-0.11,0.08,0.95,236.2,-7.5,-9.7,0.0,0.0,0.0,0.0,0.0,0.5,0.25,1.0,0.0,0.0,0.25,0.0,0.0,-0.11,0.2,1.89,5.16,11.5,-20.5
4.52,0.0,1.0,0.0,4.25,0.0,5.0,1.0,4.5,0.75,1.75,1.5,0.0,1.25,-0.11,0.08,0.95,237.4,-4.8,-2.5,0.0,0.0,0.0,0.0,0.0,0.0,0.25,0.75,0.0,0.0,0.25,0.0,0.0,-0.17,0.33,2.14,11.55,5.4,-39.6
4.54,0.0,0.0,0.0,1.0,0.0,4.25,1.5,4.75,0.75,0.0,2.0,0.0,0.0,-0.11,0.08,0.95,213.42,-7.6,-10.7,0.0,0.0,0.0,0.0,0.0,0.0,0.25,0.25,0.0,0.5,0.25,0.0,0.0,-0.23,0.45,2.95,16.89,5.0,-56.1
4.56,2.0,0.0,0.0,2.75,0.0,5.75,0.0,0.0,1.25,0.0,0.0,0.0,0.0,-0.11,0.14,0.95,190.75,0.5,42.6,0.0,0.0,0.0,0.0,0.25,0.0,0.0,0.5,0.0,0.0,0.25,0.0,0.0,-0.05,1.02,3.02,14.58,6.5,-21.4
4.58,4.5,1.25,3.5,7.25,5.25,5.75,2.0,4.0,0.25,1.75,1.25,0.0,0.25,-0.11,0.14,0.95,276.95,6.4,36.0,0.0,0.0,0.0,0.0,0.0,0.0,0.25,0.75,0.0,0.0,0.5,0.0,0.0,0.02,2.02,1.89,15.57,2.5,-46.0
4.6,3.75,1.25,4.5,6.5,6.25,6.25,2.75,3.25,0.0,1.25,0.0,0.0,0.0,-0.11,0.14,1.02,367.59,6.9,44.0,0.0,0.0,0.0,0.0,0.0,0.0,0.25,0.75,0.5,0.0,0.25,0.25,0.0,-0.48,2.77,0.64,20.18,-1.1,-48.7
4.62,5.75,1.5,5.75,8.5,0.0,6.25,3.0,4.0,0.0,1.5,1.0,0.0,0.5,-0.11,0.14,1.02,483.55,11.4,38.7,1.25,0.25,0.5,0.0,1.0,0.0,0.5,1.0,0.25,0.0,1.75,0.0,0.25,-1.55,3.2,0.39,51.18,-10.5,5.3
4.64,6.0,1.5,6.5,9.0,0.0,6.75,3.25,3.5,0.0,1.25,0.0,0.0,0.0,-0.11,0.14,1.02,554.68,12.8,46.8,0.0,0.0,0.25,0.0,0.25,0.0,0.5,1.0,0.0,0.0,2.0,0.0,0.25,-1.73,3.45,0.08,63.9,-4.3,-44.0
4.66,0.0,1.75,7.0,9.25,0.0,4.75,3.5,2.75,0.0,0.75,0.0,0.0,0.0,-0.17,0.2,1.02,544.77,12.6,42.8,0.0,0.0,0.0,0.0,0.0,0.0,0.25,1.0,0.0,0.0,0.75,0.0,0.0,-1.42,3.2,-0.92,62.49,2.7,-48.9
4.68,0.0,1.75,7.5,10.5,0.0,5.75,3.5,2.25,0.0,0.5,0.0,0.0,0.0,-0.17,0.2,0.95,514.82,12.9,45.8,0.0,0.0,0.0,0.0,0.0,0.0,0.25,1.0,0.0,1.5,0.75,1.0,0.0,-0.11,-0.86,1.89,66.7,4.5,-72.0
4.7,0.0,1.5,7.0,10.5,0.0,0.0,3.5,2.25,0.0,0.0,0.0,0.0,0.0,-0.17,0.2,1.08,449.25,21.1,50.1,0.0,0.0,0.0,0.0,0.0,0.0,0.25,1.0,0.0,4.5,2.25,2.75,1.25,0.14,-0.11,1.27,114.33,4.5,-83.0
4.72,7.25,1.5,7.0,10.5,0.0,0.0,3.25,2.25,0.0,0.0,0.0,0.0,0.0,-0.23,0.27,1.14,450.84,24.2,60.9,0.0,0.0,0.0,0.0,0.0,0.0,0.25,1.0,0.0,6.75,4.5,3.25,3.0,-0.67,0.52,2.39,190.85,4.6,-84.5
4.74,7.25,1.25,7.75,8.0,0.0,0.0,3.5,1.75,0.0,0.25,0.25,0.0,0.0,-0.23,0.27,1.39,435.85,25.6,60.1,0.0,0.0,0.0,0.0,0.0,0.0,0.25,2.5,0.5,7.0,6.25,3.0,3.0,0.52,0.27,1.52,267.35,4.1,-79.3
4.76,7.75,0.0,7.25,7.5,0.0,0.0,3.5,1.5,0.0,0.25,1.25,0.0,0.0,-0.42,0.39,1.95,430.83,26.2,55.0,0.0,0.75,0.0,1.25,0.25,2.75,0.25,4.0,1.25,7.75,6.75,2.75,2.25,-0.17,0.27,0.95,351.11,4.5,-53.1
4.78,7.75,0.0,6.25,4.5,0.0,0.0,2.75,0.75,0.0,0.0,0.25,0.0,0.0,-0.55,0.64,2.39,380.5,29.6,65.8,0.0,0.0,0.0,0.75,0.0,2.0,0.25,5.25,1.25,7.75,7.5,3.0,3.0,0.08,0.14,0.95,424.63,5.2,-63.8
4.8,6.5,0.0,5.25,2.5,0.0,0.0,1.5,0.0,0.0,0.25,0.0,0.0,0.0,-0.73,1.02,2.45,304.82,32.1,71.4,0.25,0.0,0.0,1.25,0.25,3.5,1.25,5.25,1.5,8.75,7.75,3.5,2.75,0.08,0.14,0.95,502.86,4.5,-55.3
4.82,0.0,0.0,3.5,2.5,0.0,0.0,0.5,0.5,0.0,0.0,0.5,0.0,0.0,-0.48,0.52,2.77,205.94,25.2,43.2,0.5,0.75,0.75,1.25,0.5,3.75,2.5,6.0,2.0,8.0,8.25,3.0,2.25,0.08,0.08,0.95,562.85,2.3,-44.0
4.84,0.0,0.0,0.0,0.0,0.0,0.0,0.0,0.0,0.0,0.0,0.0,0.0,0.0,-0.67,-0.36,2.33,93.11,0.0,0.0,2.25,1.0,1.75,2.75,4.25,5.75,2.75,6.0,1.75,8.0,8.5,3.5,3.25,0.08,0.08,0.95,669.52,0.4,-23.9
4.86,0.0,0.0,0.0,0.0,0.0,0.0,4.75,0.0,0.0,0.0,0.0,0.0,0.0,-0.36,-0.73,1.33,8.55,32.4,27.3,2.5,1.25,3.0,3.75,4.75,6.0,3.5,6.25,2.0,7.25,8.0,3.0,3.0,0.14,0.08,0.95,771.59,-1.2,-15.3
4.88,0.0,0.0,0.0,0.0,0.0,0.0,3.25,0.0,0.25,0.0,0.0,0.0,0.0,-0.42,-1.55,0.7,0.0,29.6,18.3,2.5,1.25,3.25,4.0,5.5,6.5,3.75,6.25,1.75,7.0,7.5,2.5,1.5,0.08,0.08,0.95,856.31,-1.5,-8.2
