time,left pressure 0[N/cm²],left pressure 1[N/cm²],left pressure 2[N/cm²],left pressure 3[N/cm²],left pressure 4[N/cm²],left pressure 5[N/cm²],left pressure 6[N/cm²],left pressure 7[N/cm²],left pressure 8[N/cm²],left pressure 9[N/cm²],left pressure 10[N/cm²],left pressure 11[N/cm²],left pressure 12[N/cm²],left acceleration X[g],left acceleration Y[g],left acceleration Z[g],left total force[N],left center of pressure X[mm],left center of pressure Y[mm],right pressure 0[N/cm²],right pressure 1[N/cm²],right pressure 2[N/cm²],right pressure 3[N/cm²],right pressure 4[N/cm²],right pressure 5[N/cm²],right pressure 6[N/cm²],right pressure 7[N/cm²],right pressure 8[N/cm²],right pressure 9[N/cm²],right pressure 10[N/cm²],right pressure 11[N/cm²],right pressure 12[N/cm²],right acceleration X[g],right acceleration Y[g],right acceleration Z[g],right total force[N],right center of pressure X[mm],right center of pressure Y[mm]
0.02,0.0,1.25,0.0,8.0,7.75,8.75,0.5,3.5,0.0,0.75,0.75,0.0,0.0,-0.23,0.2,1.08,500.55,-3.5,35.3,0.0,0.0,0.0,0.0,0.0,0.75,0.25,2.5,0.0,8.0,6.0,3.75,4.0,-0.92,0.58,2.33,243.83,5.6,-79.0
0.04,0.0,1.75,3.5,8.0,0.0,8.25,0.25,2.25,0.0,0.75,1.0,0.0,0.0,-0.17,0.27,1.2,447.6,3.5,36.4,0.25,0.0,0.0,0.0,0.0,1.25,0.25,4.0,0.75,8.0,6.75,3.75,4.0,0.95,0.39,1.2,338.29,5.2,-72.4
0.06,0.0,1.25,3.5,8.0,0.0,7.0,0.0,2.0,0.0,0.0,0.75,0.0,0.0,-0.42,0.27,1.52,386.4,5.3,40.9,2.0,0.0,0.0,0.5,0.0,3.75,0.25,5.25,0.75,8.25,7.25,3.0,3.25,-0.11,0.27,1.14,436.51,4.6,-51.8
0.08,0.0,1.25,3.5,6.25,0.0,0.0,0.0,2.0,0.0,0.0,0.5,0.0,0.0,-0.42,0.33,1.89,296.84,17.1,43.9,3.75,0.5,0.25,2.25,0.5,5.5,1.5,6.0,1.0,8.75,7.5,3.75,2.5,0.08,0.14,0.95,548.34,1.6,-32.9
0.1,5.5,0.25,2.0,4.25,0.0,0.0,0.0,2.0,0.0,0.25,0.5,0.0,0.0,-0.3,0.52,2.52,246.71,20.9,53.1,3.25,0.5,3.0,2.75,4.25,5.75,3.5,6.75,2.0,8.25,8.5,3.25,3.75,0.14,0.08,0.95,694.91,-0.7,-21.6
0.12,5.0,0.0,1.75,2.0,0.0,0.0,0.0,2.0,0.0,0.0,0.0,0.0,0.0,-0.42,0.77,2.58,186.29,22.2,57.8,5.25,1.25,4.5,3.5,4.5,5.75,4.75,6.25,1.5,7.5,7.5,3.0,3.25,0.08,0.08,0.95,836.44,-3.8,-8.5
0.14,0.0,0.0,0.0,0.0,0.0,0.0,0.0,0.0,0.0,0.0,0.0,0.0,0.0,-0.61,0.58,2.39,91.41,0.0,0.0,5.0,1.0,5.5,4.0,4.75,6.0,6.0,6.0,1.5,7.0,6.75,2.25,2.25,0.08,0.08,0.95,943.42,-5.0,-1.7
0.16,0.0,0.0,0.0,0.5,0.0,0.0,0.0,0.25,0.0,0.0,0.0,0.0,0.0,-0.48,-0.48,1.64,3.68,6.2,26.6,5.25,1.25,7.0,4.0,4.75,6.25,6.5,6.0,1.0,5.5,5.75,1.75,1.5,0.14,0.08,0.95,993.63,-6.7,7.5
0.18,0.0,0.0,0.0,0.0,0.0,0.0,0.0,0.0,0.0,0.0,0.0,0.0,0.0,-0.3,-0.73,0.33,0.0,0.0,0.0,5.75,0.75,7.0,5.0,5.5,6.25,7.0,5.25,1.0,4.75,4.0,1.0,1.25,0.08,0.08,0.95,997.9,-7.7,16.2
0.2,0.0,0.0,0.0,0.0,0.0,0.0,0.0,0.0,0.0,0.0,0.0,0.0,0.0,-0.42,-1.23,1.58,0.0,0.0,0.0,6.0,1.0,8.0,5.75,5.5,6.25,7.25,5.25,0.75,3.25,2.25,1.0,1.25,0.08,0.08,0.95,962.41,-9.3,24.7
0.22,0.0,0.0,0.0,0.0,0.0,0.0,0.0,0.0,0.0,0.0,0.0,0.0,0.0,0.02,-0.73,1.08,0.0,0.0,0.0,6.0,0.75,7.25,5.75,5.25,5.75,7.5,4.5,0.0,3.25,2.0,0.25,1.25,0.02,0.08,0.95,894.64,-9.6,28.2
0.24,0.0,0.0,0.0,0.0,0.0,0.0,0.0,0.0,0.0,0.0,0.0,0.0,0.0,-0.3,-0.42,0.58,0.0,0.0,0.0,5.5,0.25,8.0,5.0,4.25,5.0,7.5,4.25,0.25,1.5,1.5,0.25,0.0,0.08,0.14,0.95,786.52,-12.7,35.9
0.26,0.0,0.0,0.0,0.0,0.0,0.0,0.0,0.0,0.0,0.0,0.0,0.0,0.0,-0.67,-0.3,0.52,0.0,0.0,0.0,5.75,0.5,8.75,6.0,4.75,5.75,8.0,4.0,0.5,3.25,2.5,0.25,0.25,0.02,0.14,0.89,742.19,-11.6,30.3
0.28,0.0,0.0,0.0,3.25,0.0,0.0,0.0,0.0,1.5,0.0,0.0,0.0,0.0,-0.55,-0.3,0.64,0.0,15.6,28.6,5.75,0.0,8.25,5.25,4.25,4.75,8.0,2.75,0.25,1.5,1.75,0.25,0.0,0.08,0.14,0.89,668.62,-14.5,38.3
0.3,0.0,0.0,0.0,0.0,0.0,0.0,0.0,0.0,0.0,0.0,0.0,0.0,0.0,-0.55,-0.05,0.7,0.0,0.0,0.0,6.25,0.0,9.25,5.75,5.25,5.0,8.5,4.0,0.75,1.5,2.0,0.75,0.5,0.08,0.14,0.89,662.29,-13.4,33.2
0.32,0.0,0.0,0.0,0.75,0.0,0.0,0.0,0.0,0.0,0.25,0.0,0.0,0.0,-0.8,0.14,0.7,0.0,9.2,25.6,6.0,0.75,8.75,7.75,4.75,6.0,8.5,2.75,0.75,1.75,1.5,0.75,0.0,0.08,0.14,0.89,658.06,-13.6,38.6
0.34,0.0,0.0,0.0,0.25,0.0,0.0,5.5,0.0,0.0,0.0,0.0,0.0,0.0,-1.05,0.39,0.7,10.15,31.0,30.1,6.5,1.0,9.5,7.5,6.5,6.0,8.75,4.0,0.25,1.25,2.0,0.25,0.5,0.08,0.14,0.89,704.45,-12.8,39.1
0.36,0.0,0.0,0.0,3.0,0.0,0.0,0.0,0.0,0.0,0.25,1.75,0.0,0.0,-1.11,0.52,0.95,44.17,13.4,6.9,6.75,1.0,9.25,7.75,7.25,7.25,8.5,4.0,0.5,2.0,2.0,1.0,0.5,0.08,0.14,0.89,769.18,-11.3,35.5
0.38,0.0,0.0,0.0,0.25,0.0,0.0,0.0,0.0,0.0,0.0,0.0,0.0,0.0,-1.11,0.58,1.2,44.74,17.2,57.9,6.75,1.5,8.75,8.0,8.0,7.75,8.0,4.0,0.25,2.25,2.0,0.25,0.5,0.14,0.14,0.95,842.77,-10.4,38.1
0.4,1.5,0.0,0.5,0.25,0.0,0.0,0.0,0.0,0.0,0.0,0.5,0.0,0.0,-1.3,0.7,1.27,49.93,29.4,55.2,5.75,0.5,8.75,6.75,8.25,8.0,7.75,4.25,0.25,3.0,1.5,0.75,0.0,0.14,0.14,0.95,874.25,-9.2,34.5
0.42,1.5,0.0,1.75,0.5,0.0,0.0,0.0,0.0,0.0,0.25,0.5,0.0,0.0,-1.61,0.83,1.2,58.79,28.7,49.7,5.75,1.25,7.5,7.75,8.25,9.25,7.25,5.25,0.5,2.25,2.0,0.75,0.75,0.08,0.14,0.89,908.52,-7.5,32.1
0.44,2.25,0.0,0.75,0.75,0.0,0.0,0.0,0.0,0.0,0.5,0.5,0.0,0.0,-1.8,0.95,1.08,70.95,24.5,48.2,5.25,1.5,6.5,7.25,9.25,10.0,6.75,5.5,0.5,2.75,2.0,0.75,1.0,0.08,0.14,0.95,934.62,-5.5,29.7
0.46,2.25,0.0,0.75,1.0,0.0,0.0,0.0,0.0,0.0,0.25,0.25,0.0,0.0,-1.92,0.95,0.95,79.4,27.1,62.6,4.5,1.25,7.0,5.75,9.25,11.0,6.5,6.0,0.25,3.0,2.0,0.75,0.5,0.14,0.14,0.95,949.52,-4.4,28.6
0.48,2.25,0.0,1.75,0.5,0.0,0.0,0.0,0.0,0.0,0.25,0.5,0.0,0.0,-1.73,0.95,1.08,89.62,29.6,56.2,4.5,0.75,6.5,5.75,9.25,10.5,6.5,6.25,0.0,1.5,2.0,0.25,1.0,0.14,0.14,0.95,930.95,-4.5,30.5
0.5,2.5,0.0,1.75,0.5,0.0,0.0,0.0,0.0,0.0,0.25,0.5,0.0,0.0,-1.17,1.14,1.2,94.76,29.8,58.0,3.75,1.0,5.5,6.25,8.25,12.0,5.75,6.25,0.25,3.25,0.0,0.75,0.25,0.14,0.14,0.95,891.45,-2.2,30.0
0.52,0.0,0.0,1.75,0.5,0.0,0.0,0.0,0.0,0.0,0.25,0.5,0.0,0.0,-0.67,1.27,1.02,82.52,25.9,27.7,3.5,1.5,5.5,6.0,10.0,12.5,5.75,6.75,0.25,3.0,0.5,1.0,1.25,0.14,0.14,0.95,890.25,-1.4,26.8
0.54,2.75,0.0,1.75,0.75,0.0,0.0,0.0,0.0,0.0,0.25,0.25,0.0,0.0,-0.92,1.45,0.58,91.13,30.2,65.4,2.75,1.25,3.5,6.0,9.25,12.5,5.5,6.25,0.0,1.5,0.0,0.25,0.25,0.14,0.14,0.95,826.39,0.0,33.9
0.56,0.0,0.0,1.75,0.5,0.0,0.0,0.0,0.0,0.0,0.25,0.25,0.0,0.0,-1.17,1.52,0.45,76.03,27.2,36.5,2.0,0.25,3.25,4.75,10.0,12.0,5.0,6.5,0.0,1.5,2.0,0.0,0.5,0.14,0.14,0.95,772.39,1.2,26.0
0.58,0.0,0.0,1.75,0.5,0.0,0.0,0.0,0.0,0.0,0.25,0.25,0.0,0.0,-0.92,1.45,0.39,65.84,27.2,36.5,1.5,0.5,3.25,4.0,9.25,12.0,4.5,6.0,0.25,1.5,0.0,0.25,0.25,0.14,0.14,0.95,688.82,2.1,29.6
0.6,0.0,0.0,1.75,0.5,0.0,0.0,0.0,0.0,0.0,0.5,0.25,0.0,0.0,-0.48,1.33,0.39,55.19,23.7,27.4,1.75,0.0,3.0,4.0,10.5,12.0,4.0,6.0,0.0,1.5,0.75,0.25,0.0,0.14,0.14,0.95,638.8,2.4,29.2
0.62,0.0,0.0,1.75,0.5,0.0,0.0,0.0,0.0,0.0,0.0,0.0,0.0,0.0,-0.67,0.95,0.45,50.02,33.5,60.3,1.75,0.25,3.0,4.0,8.5,11.5,3.5,6.0,0.0,1.5,0.0,0.25,0.0,0.33,0.2,0.95,582.85,2.4,30.1
0.64,2.0,0.0,1.0,0.25,0.0,0.0,0.0,0.0,0.0,0.0,0.0,0.0,0.0,-1.3,1.89,1.2,45.36,34.5,82.5,1.25,0.25,3.25,4.0,9.25,11.0,3.0,5.25,0.0,1.25,0.0,0.25,0.0,0.45,0.2,0.89,549.52,2.2,32.1
0.66,0.0,0.0,0.0,0.25,0.0,0.0,0.0,0.25,0.0,0.0,0.5,0.0,0.0,0.02,0.27,0.02,31.37,5.5,-31.1,1.75,0.0,1.75,3.75,8.25,9.75,2.5,4.25,0.0,1.0,0.0,0.25,0.0,0.45,0.27,0.89,488.28,2.8,33.1
0.68,0.0,0.0,0.0,1.25,0.0,0.0,0.0,1.75,0.0,0.0,0.5,0.0,0.0,-0.73,-0.48,1.33,35.66,-0.4,-8.0,1.25,0.0,0.75,3.0,7.5,8.5,1.25,4.0,0.25,0.25,0.0,0.25,0.0,0.58,0.27,0.89,413.42,4.9,32.6
0.7,0.0,0.0,0.0,0.0,0.0,0.0,0.0,4.75,0.0,0.0,0.0,0.0,0.0,-1.17,-0.48,1.27,44.05,-16.7,-38.7,1.25,0.0,1.25,2.0,6.5,7.75,1.25,4.0,0.0,0.25,0.0,0.0,0.0,0.7,0.27,0.83,348.26,4.8,33.3
0.72,0.0,0.0,0.0,0.5,0.0,4.5,0.0,2.0,0.0,0.0,0.0,0.0,0.0,-0.55,0.2,0.64,69.15,-17.9,14.4,0.5,0.0,0.5,1.25,4.75,6.25,1.25,3.0,0.0,0.0,0.0,0.25,0.0,0.83,0.27,0.89,277.96,7.0,29.7
0.74,0.0,0.0,0.0,1.25,0.0,5.75,0.0,6.0,1.75,1.5,0.5,1.0,0.0,-0.11,0.2,1.08,139.25,-10.9,-17.0,0.0,0.0,0.25,0.5,3.75,4.75,0.75,2.5,0.0,0.0,0.0,0.25,0.0,0.77,0.58,0.95,209.73,9.9,24.9
0.76,0.0,0.0,0.0,0.0,0.0,5.75,3.0,6.5,0.5,3.25,3.25,0.75,0.5,-0.11,0.08,1.02,213.57,-9.2,-31.0,0.5,0.0,0.25,0.0,1.75,3.25,0.25,2.5,0.25,0.0,0.0,0.0,0.25,0.64,0.64,0.89,134.03,9.9,15.9
0.78,0.0,0.25,0.0,2.0,0.0,5.5,0.5,6.25,0.0,3.75,1.5,0.75,1.25,-0.17,0.08,0.95,265.25,-10.8,-24.8,0.25,0.0,0.0,0.0,1.0,3.75,0.0,2.5,0.0,0.0,0.0,0.0,0.0,-0.3,0.58,1.2,77.66,15.9,14.6
0.8,1.25,1.0,0.0,2.5,0.0,5.5,0.5,6.25,0.0,3.75,2.25,0.75,1.25,-0.17,0.08,0.95,309.39,-6.6,-14.7,0.25,0.0,0.0,0.0,0.5,3.75,0.25,2.5,0.0,0.0,0.0,0.0,0.0,0.52,1.33,0.77,34.48,16.1,11.5
0.82,0.0,1.0,0.0,2.25,0.0,5.5,0.25,6.25,0.0,3.75,2.25,0.75,1.25,-0.17,0.08,0.95,332.36,-9.2,-21.5,0.0,0.0,0.25,0.0,0.25,3.75,0.25,2.0,0.0,0.0,0.0,0.25,0.0,0.64,1.2,0.27,13.26,15.4,7.7
0.84,0.0,0.0,0.0,0.0,0.0,0.0,0.0,0.0,0.0,0.0,0.0,0.0,0.0,-0.17,0.08,0.95,252.38,0.0,0.0,0.5,0.0,0.25,0.0,0.5,4.25,0.25,1.5,0.25,0.5,0.25,0.0,0.0,0.89,0.89,0.33,15.31,11.4,13.7
0.86,0.0,0.5,0.0,1.25,0.0,5.75,2.0,6.25,0.0,3.75,0.0,0.75,0.0,-0.17,0.08,0.95,243.99,-11.6,-14.2,0.5,0.0,0.5,0.0,1.25,3.0,1.25,2.75,0.0,0.0,1.0,0.25,0.0,0.89,0.58,0.58,39.34,4.8,6.1
0.88,0.0,0.75,0.0,1.25,0.0,5.5,2.25,6.5,0.5,3.5,2.25,1.0,1.5,-0.17,0.08,0.95,251.61,-8.4,-26.3,0.0,0.0,0.25,0.0,0.25,3.0,0.5,1.25,0.0,0.0,0.0,0.0,0.0,0.45,-0.05,0.89,39.89,14.2,17.6
0.9,0.0,1.0,0.0,1.5,0.0,5.5,0.0,6.25,0.0,3.75,2.25,0.75,1.25,-0.17,0.08,0.95,279.88,-10.4,-24.6,0.5,0.0,0.25,1.25,0.0,3.75,0.5,1.25,0.75,1.5,0.0,0.75,0.0,0.14,-0.23,1.02,70.29,5.3,-0.7
0.92,0.0,1.0,0.0,1.75,0.0,5.5,0.0,6.25,0.0,4.5,2.25,0.75,1.75,-0.17,0.08,0.95,296.73,-10.3,-27.2,1.25,0.75,0.5,1.5,2.75,3.75,1.25,2.5,0.75,1.5,2.0,1.0,0.5,-0.05,-0.3,1.02,141.36,0.4,3.5
0.94,0.0,1.0,0.0,1.5,0.0,5.5,0.0,6.25,0.0,3.75,2.5,0.75,1.75,-0.17,0.08,0.95,309.52,-10.3,-27.1,0.25,0.0,0.5,0.0,0.0,2.0,0.25,1.0,0.25,0.0,0.25,0.0,0.0,-0.17,-0.42,0.95,135.48,5.3,13.0
0.96,0.0,1.0,0.0,1.75,0.0,5.5,0.0,6.5,0.0,4.25,2.25,0.75,1.5,-0.17,0.08,0.95,304.29,-10.3,-25.9,0.0,0.0,0.25,0.0,0.0,1.25,0.25,1.25,0.0,0.0,0.0,0.0,0.0,-0.23,-0.42,0.89,116.93,12.2,3.8
0.98,0.0,1.0,0.75,2.25,0.0,5.75,0.0,6.5,0.0,4.25,2.0,0.75,1.5,-0.17,0.08,0.95,300.61,-8.5,-20.3,0.0,0.0,0.25,0.0,0.0,2.0,0.25,1.0,0.0,0.0,0.0,0.0,0.0,-0.17,-0.36,0.83,80.88,14.1,13.6
1.0,0.0,1.0,0.0,2.25,0.0,6.0,0.25,6.5,0.0,4.5,2.25,0.75,1.5,-0.17,0.08,0.95,310.52,-9.8,-23.2,0.0,0.0,0.25,0.0,0.0,1.5,0.5,1.0,0.0,0.0,0.0,0.0,0.0,-0.05,-0.3,1.02,55.74,10.8,10.9
1.02,0.0,1.0,0.5,2.25,0.5,6.0,0.25,6.5,0.0,4.25,3.0,0.75,1.5,-0.11,0.08,0.95,326.55,-8.1,-20.8,0.0,0.0,0.25,0.0,0.0,1.5,0.25,1.0,0.25,0.25,0.0,0.0,0.0,0.14,-0.23,1.2,37.61,11.0,0.0
1.04,0.0,1.0,0.0,2.0,0.5,5.75,0.25,6.25,0.25,4.5,3.0,0.75,1.75,-0.17,0.08,0.95,335.2,-9.0,-25.2,0.25,0.0,0.25,0.75,0.0,3.25,0.5,1.0,0.75,0.0,0.0,0.25,0.0,0.02,-0.11,1.08,56.26,5.5,15.3
1.06,0.0,1.0,0.0,2.5,0.75,5.5,0.5,6.25,0.25,4.75,3.0,1.0,2.25,-0.11,0.08,0.95,352.29,-8.1,-25.9,0.5,0.0,0.5,0.0,0.0,1.25,0.5,1.0,0.0,0.0,0.0,0.25,0.0,0.08,0.08,1.02,57.53,-0.6,15.8
1.08,0.0,1.25,0.0,2.5,0.5,5.0,0.5,6.25,1.0,5.0,3.5,1.25,2.25,-0.11,0.08,0.95,368.55,-6.8,-28.8,0.0,0.0,0.25,0.0,0.0,1.75,0.75,1.0,0.0,0.25,1.0,0.0,0.5,0.08,0.08,0.95,59.51,6.7,-21.0
1.1,0.0,1.0,0.0,2.0,0.0,4.75,0.75,6.0,1.5,5.0,4.25,2.0,2.5,-0.11,0.08,0.95,368.96,-6.0,-37.5,1.25,0.75,0.25,1.25,0.0,2.0,1.25,1.75,0.25,0.0,0.0,0.0,0.0,0.08,0.2,0.89,77.94,-4.1,35.7
1.12,0.0,1.0,1.0,2.5,0.0,4.25,1.25,5.5,1.75,5.25,0.0,2.0,2.5,-0.11,0.08,0.95,362.56,-5.5,-26.8,1.25,0.0,0.25,1.25,0.0,3.25,0.5,1.0,0.75,1.5,0.0,0.75,0.0,0.2,0.27,0.83,107.83,1.3,5.4
1.14,0.0,1.0,1.25,2.5,0.0,3.0,1.25,5.5,1.75,5.25,0.0,2.0,2.5,-0.11,0.08,0.95,352.79,-4.3,-28.8,0.0,0.0,0.5,0.0,0.0,1.25,0.5,1.0,0.0,0.0,0.0,0.0,0.0,0.27,0.27,0.7,92.48,5.5,13.4
1.16,0.0,1.0,1.75,2.0,0.0,3.5,1.75,5.25,1.75,5.5,0.0,2.0,3.25,-0.11,0.08,0.95,344.69,-4.1,-29.8,0.25,0.75,0.5,0.0,0.5,2.75,1.5,1.0,0.75,1.5,0.75,0.75,0.5,0.27,0.27,0.7,116.48,2.2,-9.7
1.18,0.0,1.0,1.75,2.5,0.0,2.75,1.75,4.75,1.75,6.0,0.0,2.0,3.5,-0.11,0.08,0.95,342.12,-3.3,-31.2,0.0,0.0,0.5,0.0,1.0,1.5,0.5,1.0,0.75,0.5,0.0,0.0,0.0,0.83,-0.36,0.89,117.91,4.3,7.7
1.2,0.0,1.0,2.75,2.5,0.0,2.5,2.0,4.75,1.75,6.0,4.75,2.0,3.75,-0.11,0.08,0.95,369.17,0.1,-35.4,0.0,0.25,0.25,0.75,0.0,2.25,0.75,1.0,0.75,1.5,0.0,0.75,0.0,0.14,-0.48,0.7,123.83,4.5,-12.0
1.22,0.0,1.0,3.5,2.5,0.0,0.0,2.0,4.75,1.75,6.0,5.25,2.25,3.75,-0.11,0.08,0.95,392.96,3.0,-39.4,1.25,0.5,0.5,1.25,0.5,2.75,1.5,2.25,0.75,1.0,2.0,0.25,0.25,0.52,-0.05,1.02,149.91,-1.9,1.3
1.24,0.0,0.0,2.5,0.0,0.0,0.0,2.0,4.25,0.0,0.0,5.5,0.0,3.75,-0.11,0.08,0.95,348.75,3.7,-47.6,0.5,0.0,0.0,0.0,0.0,2.0,1.25,2.5,0.75,3.0,2.0,0.75,0.25,0.02,0.08,1.02,173.0,5.2,-39.7
1.26,0.0,0.0,0.0,1.0,0.0,1.25,0.0,0.0,1.75,6.25,0.0,3.0,0.0,-0.11,0.08,0.95,284.29,-4.5,-58.0,1.25,0.0,0.25,0.25,0.5,2.75,1.25,4.0,0.75,5.25,4.25,2.0,1.0,0.08,0.08,1.02,230.7,3.5,-41.6
1.28,0.0,0.0,0.25,0.5,0.0,0.0,2.0,4.25,1.0,5.0,5.5,2.0,3.5,-0.11,0.08,0.95,269.83,-2.7,-66.6,1.25,0.0,0.25,1.25,0.5,4.0,2.25,4.0,1.0,4.75,4.25,1.25,1.25,0.08,0.08,0.95,276.07,2.9,-30.3
1.3,0.0,0.0,1.0,0.5,0.0,0.0,1.25,2.75,0.75,3.75,4.75,0.75,2.5,-0.11,0.08,0.95,247.33,-0.4,-58.9,2.0,0.0,0.25,0.75,1.5,4.0,2.5,4.25,1.0,5.75,4.5,1.5,1.25,0.08,0.08,0.95,331.87,2.5,-27.8
1.32,0.0,0.0,0.75,0.5,0.0,0.0,1.0,2.0,0.5,2.75,3.0,0.0,2.5,-0.17,0.08,0.95,221.61,-1.6,-57.2,2.75,1.0,1.75,2.0,3.75,5.5,2.75,5.25,1.5,7.0,6.5,3.0,3.0,0.08,0.08,0.95,447.99,0.2,-20.2
1.34,0.0,0.0,0.0,0.5,0.0,0.0,1.0,2.75,0.0,1.75,3.0,0.0,2.0,-0.17,0.02,0.95,187.09,-4.3,-61.2,2.5,0.25,2.75,1.5,4.5,5.25,3.5,5.25,1.5,7.0,6.75,3.0,3.25,0.08,0.14,0.95,571.32,-0.3,-21.2
1.36,0.0,0.0,1.0,0.25,0.0,0.0,0.5,2.0,0.0,0.75,1.25,0.0,0.25,-0.3,-0.36,0.95,131.91,2.7,-29.4,2.5,1.0,2.5,2.25,4.25,5.75,3.5,5.25,1.5,7.5,6.75,3.25,3.25,0.08,0.08,0.95,690.25,-0.2,-19.4
1.38,0.0,0.0,0.75,0.75,0.0,0.0,0.25,2.0,0.5,1.75,0.75,0.0,0.0,-0.61,0.27,0.89,81.51,0.0,-28.2,2.5,0.75,1.75,1.75,4.25,5.5,3.0,5.5,1.25,7.5,7.5,3.5,4.0,0.08,0.08,0.95,756.14,0.8,-25.5
1.4,0.0,0.0,1.25,0.5,0.0,0.0,0.5,2.0,0.0,0.5,1.0,0.0,0.0,-0.42,0.58,0.89,44.82,6.3,-13.2,1.25,0.0,1.5,1.25,1.0,3.75,2.0,5.25,0.75,7.25,6.25,3.0,4.0,0.08,0.08,0.95,719.36,2.4,-42.2
1.42,0.0,0.0,0.0,1.0,0.0,0.0,0.0,1.25,0.0,0.0,0.0,0.0,0.25,-0.05,0.7,0.89,16.03,-2.5,-6.2,0.5,0.0,0.25,0.0,0.5,3.5,1.25,5.25,1.0,7.0,6.25,3.0,3.25,0.08,0.08,0.95,635.48,5.5,-55.1
1.44,0.0,0.0,1.0,0.25,0.0,0.0,0.0,2.0,0.0,0.25,0.75,0.0,0.0,0.27,0.7,0.95,2.96,3.3,-17.1,0.5,0.0,0.25,0.0,0.25,3.5,1.25,5.25,0.75,7.0,6.75,3.0,3.5,0.08,0.08,0.95,552.8,5.5,-57.1
1.46,0.0,0.25,1.25,0.75,0.0,0.0,0.25,1.5,0.0,0.25,0.25,0.0,0.0,0.33,0.33,0.95,9.63,9.7,12.9,2.5,0.0,0.25,0.0,0.25,3.75,1.25,5.0,1.0,7.25,6.5,3.25,3.75,0.08,0.08,0.95,506.63,3.3,-48.6
1.48,0.0,0.0,0.0,0.25,0.0,0.0,0.0,2.0,0.0,0.25,1.5,0.0,0.0,0.08,-0.11,1.02,22.87,-4.3,-48.1,0.25,0.0,0.5,0.0,0.25,1.5,1.25,4.75,0.75,7.5,6.25,3.0,3.75,0.02,0.08,0.95,461.83,4.6,-64.0
1.5,0.0,0.0,0.75,0.75,0.0,0.0,0.5,2.0,0.0,1.0,1.5,0.0,0.0,-0.11,-0.61,1.02,35.24,2.7,-26.1,0.0,0.0,0.5,0.0,0.0,1.25,1.25,4.25,0.75,7.0,6.25,3.0,3.5,0.02,0.08,0.95,416.79,4.3,-67.4
1.52,0.0,0.0,1.75,0.25,0.0,0.0,0.25,2.0,0.0,0.25,2.0,0.0,0.5,-0.23,0.08,0.95,49.71,7.8,-24.8,0.25,0.0,0.25,0.0,0.0,2.5,1.25,4.0,1.0,7.25,6.75,3.25,4.0,0.02,0.08,0.95,395.64,4.8,-64.4
1.54,0.0,0.0,0.75,1.25,0.0,0.0,0.5,2.0,0.0,0.25,1.5,0.0,0.75,-0.11,0.14,0.95,73.7,4.0,-23.7,0.25,0.0,0.25,0.0,0.0,0.0,1.25,4.0,1.0,7.25,6.75,3.25,4.25,0.02,0.08,0.95,372.93,3.3,-73.3
1.56,0.0,0.0,0.0,0.25,0.0,0.0,0.0,1.5,0.0,0.25,1.0,0.0,0.0,-0.11,0.14,0.95,70.66,-4.7,-45.3,0.25,0.0,0.25,0.0,0.0,0.0,1.25,4.0,0.75,6.75,6.75,3.0,4.25,0.02,0.08,0.95,352.49,3.3,-73.3
1.58,0.0,0.25,0.0,0.25,0.0,0.0,0.0,1.5,0.0,0.25,1.0,0.0,0.25,-0.11,0.14,0.95,65.77,-4.1,-39.4,0.0,0.0,0.25,0.0,0.0,0.0,1.25,4.0,0.75,7.0,6.25,3.0,4.0,0.02,0.08,0.95,344.81,4.0,-74.4
1.6,0.0,0.0,0.0,0.25,0.0,0.0,0.0,1.5,0.0,0.5,1.25,0.0,0.0,-0.11,0.14,0.95,58.59,-4.4,-49.5,0.25,0.0,0.25,0.0,0.0,0.5,1.25,4.0,0.75,7.25,6.0,3.0,3.75,0.02,0.08,0.89,343.24,4.1,-70.6
1.62,0.0,0.0,0.0,1.25,0.0,0.0,0.25,1.5,0.0,1.75,1.25,0.0,0.0,-0.17,0.14,0.95,65.55,-2.2,-34.3,0.25,0.0,0.25,0.0,0.0,0.5,1.25,4.0,0.75,7.0,6.0,3.0,3.75,0.02,0.08,0.95,344.78,4.0,-70.5
1.64,0.0,0.0,1.0,0.0,0.0,0.0,0.0,0.0,0.0,0.0,0.0,0.0,0.0,-0.11,0.08,0.95,51.31,38.2,60.9,0.25,0.0,0.25,0.0,0.0,1.0,1.25,4.0,0.75,7.0,6.0,3.0,3.75,0.02,0.08,0.95,353.84,4.3,-68.7
1.66,0.0,0.0,0.0,0.0,0.0,0.0,0.0,0.0,0.0,0.0,0.0,0.0,0.0,-0.17,0.14,0.95,33.66,0.0,0.0,1.5,0.25,0.25,1.25,0.0,1.5,1.25,4.0,1.0,6.75,6.0,2.5,3.25,0.02,0.08,0.95,362.34,1.7,-51.1
1.68,0.0,0.0,0.25,0.5,0.0,0.0,1.0,2.0,0.0,1.75,1.5,0.0,0.25,-0.11,0.14,0.95,45.66,-2.1,-42.9,1.5,0.5,0.25,1.25,0.0,1.5,1.5,4.0,1.0,7.5,6.0,3.25,3.25,0.02,0.08,0.95,376.86,1.5,-51.6
1.7,0.0,1.0,0.5,1.75,0.0,0.0,0.25,2.0,0.25,2.25,2.0,0.0,1.25,-0.17,0.14,0.95,85.46,0.4,-26.8,0.0,0.0,0.25,0.0,0.0,1.5,1.75,4.0,0.75,6.5,6.0,2.5,3.0,0.02,0.08,0.95,369.82,4.5,-65.2
1.72,0.0,0.0,0.75,0.5,0.0,0.0,0.25,2.0,0.0,3.5,2.25,0.75,1.25,-0.11,0.08,0.95,129.65,-3.0,-58.3,1.75,0.75,0.25,0.0,0.0,3.0,1.5,4.0,1.0,7.25,5.5,2.5,3.0,0.08,0.08,0.95,377.8,3.2,-47.2
1.74,0.0,1.0,0.5,1.25,0.0,0.0,0.5,3.0,0.0,2.0,3.0,0.25,1.25,-0.11,0.08,0.95,164.64,-0.2,-35.0,2.0,0.5,0.25,1.25,0.5,3.25,2.25,4.5,1.0,6.5,6.5,2.25,4.0,0.08,0.08,0.95,394.74,2.0,-41.6
1.76,0.0,1.0,0.75,1.5,0.0,0.0,0.5,2.75,0.0,2.25,2.25,0.75,1.0,-0.17,0.14,0.95,185.74,0.9,-30.9,1.75,0.5,0.25,1.25,0.0,3.5,2.5,4.25,1.0,7.0,6.0,3.0,3.75,0.08,0.08,0.95,417.44,2.2,-44.5
1.78,0.0,1.0,0.0,1.75,0.0,0.0,0.75,2.75,0.0,3.0,3.0,0.0,1.25,-0.11,0.08,0.95,198.0,-1.7,-36.1,1.75,0.5,0.5,1.25,2.25,3.75,2.25,4.25,1.25,7.0,6.0,3.0,3.25,0.08,0.08,0.95,449.3,2.0,-35.3
1.8,0.0,0.75,0.0,1.5,0.0,0.0,0.75,2.0,0.0,1.75,2.25,0.0,1.0,-0.17,0.08,0.95,189.89,-0.3,-32.0,1.25,0.5,0.75,1.25,2.5,3.25,2.25,4.25,1.0,7.0,6.0,3.0,3.25,0.02,0.08,0.95,470.09,2.0,-36.6
1.82,0.0,0.0,0.5,0.5,0.0,0.5,0.5,2.0,0.75,3.5,2.5,0.75,1.0,-0.11,0.08,0.95,193.3,-2.8,-54.4,1.25,0.75,0.5,1.25,2.25,2.75,2.0,4.25,0.75,6.75,6.0,2.75,3.25,0.02,0.08,0.95,472.26,2.1,-37.4
1.84,0.0,0.0,0.25,0.5,0.0,0.0,0.5,2.0,0.25,1.75,2.5,0.0,1.0,-0.11,0.14,0.95,176.94,-2.2,-54.6,1.5,0.25,0.5,0.0,2.25,1.25,1.75,4.0,0.75,5.5,6.0,2.75,2.25,0.02,0.08,0.95,435.65,0.9,-42.8
1.86,0.0,0.0,0.0,0.5,0.0,0.0,0.5,2.0,0.0,2.25,3.0,0.5,1.25,-0.11,0.14,0.95,172.28,-3.5,-64.5,0.5,0.0,0.5,0.0,0.0,1.25,1.25,4.0,0.5,5.5,4.25,1.25,1.75,0.02,0.08,0.95,368.86,4.4,-55.2
1.88,0.0,0.0,0.75,0.25,0.0,0.0,0.25,2.0,0.25,2.25,3.0,1.0,1.25,-0.11,0.08,0.95,170.67,-0.4,-61.0,0.0,0.0,0.0,0.0,0.0,0.75,1.25,3.25,0.75,4.75,4.25,1.25,1.5,0.02,0.08,0.95,301.21,4.8,-64.2
1.9,0.0,1.0,0.25,1.25,0.0,0.0,0.5,2.5,0.5,3.5,3.25,1.5,3.0,-0.11,0.08,0.95,198.42,-1.9,-53.9,0.0,0.0,0.0,0.0,0.0,0.5,1.25,3.0,0.75,4.75,4.0,1.0,1.25,0.02,0.08,0.95,253.84,4.7,-64.5
1.92,0.0,0.75,1.0,0.5,0.0,0.0,0.25,3.0,0.5,3.75,4.5,1.5,2.5,-0.17,0.08,0.95,223.25,-0.8,-56.3,0.0,0.25,0.0,0.0,0.0,1.0,1.25,2.75,0.5,3.5,3.25,1.0,1.25,0.02,0.08,0.95,212.81,4.9,-57.5
1.94,0.0,0.75,0.75,0.5,0.0,0.0,0.25,2.75,0.5,3.25,4.0,1.25,2.5,-0.17,0.08,0.95,241.55,-1.3,-56.5,0.25,0.0,0.0,0.0,0.0,0.75,1.25,2.5,0.75,5.0,3.25,1.75,1.25,0.02,0.08,0.95,197.33,4.2,-63.3
1.96,0.0,1.0,0.75,0.5,0.0,0.0,0.25,2.25,0.25,1.75,3.75,0.75,2.5,-0.17,0.08,0.95,237.95,0.2,-50.2,0.25,0.25,0.0,1.0,0.0,1.25,1.0,2.5,0.75,4.75,2.5,1.0,0.5,0.02,0.08,0.95,181.43,4.0,-44.3
1.98,0.0,0.5,0.0,0.5,0.0,0.0,0.5,2.5,0.5,1.5,3.25,0.75,2.25,-0.17,0.08,0.95,221.69,-2.2,-59.7,1.25,0.5,0.5,0.5,0.5,2.0,1.25,2.75,1.0,4.25,3.25,1.0,1.25,0.02,0.14,0.95,190.34,1.3,-32.0
2.0,0.0,0.25,0.75,0.5,0.0,0.0,0.0,2.0,0.25,2.25,3.0,0.75,1.5,-0.11,0.08,0.95,200.25,-0.6,-55.5,1.25,0.25,0.0,1.0,0.0,2.0,1.0,2.5,0.75,3.5,2.5,1.0,0.75,0.02,0.14,0.95,186.56,1.8,-31.0
2.02,0.0,0.0,0.75,0.5,0.0,0.0,0.0,2.0,0.0,2.0,2.25,0.0,1.25,-0.11,0.08,0.95,173.15,-2.3,-52.1,1.25,0.5,0.0,1.25,0.0,1.5,0.75,2.5,1.0,3.0,3.25,1.0,1.25,0.02,0.08,0.95,192.59,0.1,-33.0
2.04,0.0,0.0,0.0,0.5,0.0,0.0,0.0,2.0,0.0,1.75,2.25,0.0,1.25,-0.17,0.08,0.95,150.46,-5.9,-62.7,1.25,0.25,0.0,0.75,0.0,1.5,0.75,2.5,0.75,3.5,3.25,1.0,1.25,0.02,0.08,0.95,195.06,1.6,-39.2
2.06,0.0,0.25,0.75,0.5,0.0,0.0,0.5,2.0,0.0,1.0,1.75,0.0,1.25,-0.17,0.08,0.95,127.53,0.1,-40.2,0.0,0.0,0.5,0.0,1.0,0.5,1.25,1.5,0.75,3.25,2.0,1.0,0.25,0.02,0.08,0.95,183.94,1.4,-42.9
2.08,0.0,0.0,0.75,0.5,0.0,0.0,0.0,2.0,0.0,1.75,1.5,0.0,0.75,-0.17,0.08,0.95,112.06,-2.3,-44.9,1.25,0.75,0.0,1.0,0.0,1.75,0.75,1.5,0.5,0.5,2.0,0.25,1.25,0.02,0.08,0.95,170.83,-1.9,-10.2
2.1,0.0,0.0,1.75,0.5,0.0,0.0,0.0,2.0,0.0,1.25,0.75,0.0,0.5,-0.17,0.08,0.95,94.27,3.7,-21.0,0.0,0.0,0.0,0.0,0.0,1.25,0.5,1.25,0.5,1.5,2.0,0.25,0.25,0.02,0.08,0.95,142.09,5.3,-47.2
2.12,1.0,0.0,1.75,0.5,0.0,0.0,0.0,1.75,0.0,0.0,0.5,0.0,0.0,-0.17,0.08,0.95,78.05,15.7,23.1,1.0,0.5,0.0,1.0,0.0,1.75,0.75,1.25,0.75,1.5,1.75,0.25,0.25,0.02,0.08,0.95,131.22,-1.2,-10.2
2.14,1.5,0.0,1.75,0.5,0.0,0.0,0.0,1.75,0.0,0.25,1.25,0.0,0.0,-0.17,0.08,0.95,72.87,15.3,14.3,0.0,0.0,0.25,0.0,0.5,1.0,1.25,1.25,0.5,1.25,1.75,0.25,0.25,0.02,0.14,0.95,110.76,1.5,-33.0
2.16,1.75,0.0,1.75,0.5,0.0,0.0,0.0,1.75,0.0,0.25,1.25,0.0,0.0,-0.17,0.08,0.95,78.06,16.0,17.0,0.0,0.0,0.0,0.0,0.0,0.75,0.5,1.25,0.25,1.5,1.75,0.25,0.25,0.02,0.14,0.95,97.39,5.3,-52.7
2.18,0.0,0.0,1.75,0.5,0.0,0.0,0.0,2.0,0.0,0.25,1.0,0.0,0.0,-0.17,0.08,0.95,78.97,9.1,-5.2,0.0,0.0,0.0,0.0,0.0,0.75,0.75,1.25,0.5,1.5,1.75,0.25,0.0,0.02,0.08,0.95,81.43,3.6,-48.3
2.2,1.5,0.0,1.5,0.5,0.0,0.0,0.0,1.75,0.0,1.25,1.25,0.0,0.0,-0.17,0.08,0.95,90.34,10.5,1.0,0.0,0.0,0.0,0.0,0.0,0.5,0.5,1.25,0.5,1.5,1.5,0.25,0.0,0.02,0.08,0.95,71.8,4.1,-52.1
2.22,1.75,0.0,1.5,0.5,0.0,0.0,0.0,1.5,0.0,0.75,1.0,0.0,0.0,-0.17,0.08,0.95,95.46,14.2,13.9,0.0,0.0,0.0,0.0,0.0,1.5,0.5,1.25,0.5,0.25,1.0,0.25,0.0,0.02,0.08,0.95,58.09,6.3,-27.1
2.24,0.75,0.0,0.75,0.5,0.0,0.0,0.0,1.5,0.0,0.75,1.0,0.0,0.0,-0.17,0.08,0.95,91.99,7.0,-8.0,0.0,0.0,0.0,0.0,0.0,0.25,0.5,1.0,0.25,1.5,1.5,0.25,0.0,0.02,0.08,0.95,56.05,3.4,-57.6
2.26,0.0,0.0,0.75,0.5,0.0,0.0,0.0,1.75,0.0,0.75,1.0,0.0,0.0,-0.17,0.08,0.95,83.41,1.6,-25.2,0.0,0.0,0.0,0.0,0.0,1.0,0.5,1.0,0.25,0.25,1.0,0.0,0.0,0.02,0.08,0.95,46.61,5.7,-27.8
2.28,1.5,0.0,0.75,0.5,0.0,0.0,0.0,2.0,0.0,1.0,0.5,0.0,0.0,-0.17,0.08,0.95,83.57,7.0,4.0,0.0,0.0,0.0,0.0,0.0,0.0,0.75,1.25,0.25,1.25,1.25,0.25,0.0,0.02,0.14,0.95,49.01,2.3,-57.2
2.3,1.5,0.0,1.0,0.5,0.0,0.0,0.25,1.75,0.0,1.0,0.75,0.0,0.0,-0.17,0.08,0.95,87.08,9.7,5.3,0.0,0.0,0.0,0.0,0.0,0.5,0.5,1.0,0.75,1.5,1.25,1.0,0.0,0.02,0.14,0.95,62.85,2.0,-58.2
2.32,1.25,0.0,1.0,0.5,0.0,0.0,0.0,0.25,0.0,1.0,0.0,0.0,0.0,-0.17,0.08,0.95,80.95,17.4,30.7,0.0,0.0,0.0,1.25,0.0,1.75,0.5,1.0,0.75,2.25,0.75,0.0,0.0,0.02,0.14,0.95,83.17,5.4,-19.3
2.34,0.0,0.0,0.75,0.25,0.0,0.0,0.0,1.0,0.0,0.25,1.0,0.0,0.0,-0.17,0.08,0.95,69.4,7.3,-21.0,0.0,0.0,0.0,0.0,0.0,0.25,0.5,1.0,0.25,0.0,1.0,0.0,0.0,0.02,0.14,0.95,74.76,0.3,-39.7
2.36,0.0,0.0,0.0,0.25,0.0,0.0,0.0,0.25,0.0,0.25,0.0,0.0,0.0,-0.17,0.08,0.95,42.73,-4.7,-17.6,0.0,0.0,0.0,0.0,0.0,0.0,0.5,1.0,0.5,2.75,0.75,1.0,0.0,0.02,0.14,0.95,82.18,4.7,-68.1
2.38,0.0,0.0,0.0,0.5,0.0,0.0,0.25,1.5,0.0,1.0,1.0,0.0,0.0,-0.17,0.08,0.95,37.62,-4.2,-42.1,1.25,0.5,0.5,1.25,0.5,1.25,1.25,1.5,0.75,2.25,2.0,1.0,0.5,0.02,0.14,0.95,121.81,-3.7,-15.1
2.4,0.0,0.0,0.25,0.5,0.0,0.0,0.25,0.5,0.0,0.75,0.75,0.0,0.0,-0.17,0.08,0.95,31.51,3.6,-28.3,1.25,0.5,0.0,1.25,0.0,2.0,0.5,1.0,0.75,2.0,0.75,1.0,0.0,0.02,0.14,0.95,146.84,-1.1,-6.6
2.42,0.0,0.0,0.75,0.5,0.0,0.0,0.0,1.25,0.0,0.5,0.75,0.0,0.0,-0.17,0.08,0.95,40.14,4.6,-16.8,0.0,0.0,0.5,0.0,0.5,0.5,1.25,1.5,0.25,0.25,2.0,0.25,0.5,0.02,0.14,0.95,147.52,-2.3,-32.3
2.44,0.0,0.0,0.75,0.5,0.0,0.0,0.0,1.5,0.0,0.75,0.75,0.0,0.0,-0.17,0.08,0.95,45.38,2.2,-21.5,0.0,0.0,0.0,0.0,0.0,0.0,0.5,1.0,0.25,0.25,0.75,0.0,0.0,0.02,0.14,0.95,117.38,0.8,-46.8
2.46,0.0,0.0,0.75,0.5,0.0,0.0,0.0,1.25,0.0,1.0,1.0,0.0,0.0,-0.17,0.08,0.95,55.24,2.7,-26.5,0.0,0.0,0.0,0.0,0.0,0.0,0.5,1.0,0.25,0.75,0.75,0.25,0.0,0.02,0.14,0.95,87.02,2.4,-56.2
2.48,0.0,0.0,0.25,0.5,0.0,0.0,0.0,0.75,0.0,0.75,0.75,0.0,0.0,-0.17,0.08,0.95,53.07,0.7,-31.4,0.0,0.0,0.0,0.0,0.0,0.5,0.5,1.0,0.25,0.5,0.75,0.0,0.0,0.02,0.14,0.95,58.28,5.2,-37.1
2.5,0.0,0.0,1.0,0.5,0.0,0.0,0.0,0.5,0.0,0.5,0.75,0.0,0.0,-0.17,0.08,0.95,51.33,12.2,-5.7,1.25,0.5,0.0,0.5,0.0,0.75,0.5,1.0,0.75,2.0,0.75,1.0,0.0,0.02,0.14,0.95,75.5,-2.9,-18.1
2.52,0.0,0.0,1.0,1.0,0.0,0.0,0.0,1.0,0.0,0.5,1.0,0.0,0.0,-0.17,0.08,0.95,55.15,9.5,-5.7,0.0,0.0,0.25,0.0,0.0,0.0,0.5,1.0,0.25,0.0,0.75,0.0,0.0,0.02,0.14,0.95,63.9,-4.7,-32.7
2.54,1.25,0.0,1.25,0.5,0.0,0.0,0.0,1.0,0.0,0.75,0.75,0.0,0.0,-0.17,0.08,0.95,67.83,14.3,13.3,0.0,0.0,0.0,0.0,0.0,0.0,0.5,1.0,0.25,1.25,0.75,0.25,0.0,0.02,0.14,0.95,63.31,4.2,-58.8
2.56,0.0,0.0,1.25,0.5,0.0,0.0,0.0,0.5,0.0,0.5,0.75,0.0,0.0,-0.17,0.08,0.95,70.47,14.1,-0.8,0.0,0.0,0.0,0.0,0.0,0.5,0.5,1.0,0.75,2.25,0.75,0.75,0.0,0.02,0.14,0.95,66.61,5.1,-56.9
2.58,0.0,0.0,1.0,0.5,0.0,0.0,0.0,0.75,0.0,0.75,0.75,0.0,0.0,-0.17,0.08,0.95,70.48,8.4,-12.5,1.25,0.5,0.25,1.25,0.5,1.25,1.25,1.5,0.75,2.5,2.0,0.75,0.25,0.02,0.14,0.95,111.58,-2.9,-14.1
2.6,0.0,0.0,1.0,0.5,0.0,0.0,0.0,0.5,0.0,0.25,0.5,0.0,0.0,-0.17,0.08,0.95,61.11,14.8,6.5,1.25,0.5,0.25,1.0,0.5,0.5,1.25,1.5,0.25,0.25,2.0,0.0,0.5,0.02,0.14,0.95,126.48,-7.6,1.7
2.62,0.0,0.0,0.0,0.5,0.0,0.0,0.0,0.5,0.0,0.5,0.5,0.0,0.0,-0.17,0.08,0.95,46.39,-1.0,-31.5,0.0,0.0,0.0,0.0,0.0,1.25,0.25,1.0,0.75,1.75,0.75,1.0,0.0,0.02,0.14,0.95,131.1,6.4,-49.1
2.64,0.0,0.0,0.75,0.5,0.0,0.0,0.0,0.75,0.0,0.25,0.5,0.0,0.0,-0.17,0.14,0.95,40.96,9.8,-2.5,1.25,0.5,0.25,1.25,0.5,1.25,1.25,1.25,0.75,1.5,2.0,0.25,0.5,0.02,0.14,0.95,151.46,-4.3,-6.4
2.66,0.0,0.0,0.75,0.5,0.0,0.0,0.0,0.5,0.0,0.75,0.5,0.0,0.0,-0.17,0.08,0.95,39.52,7.7,-11.6,1.25,0.5,0.25,1.25,0.5,1.25,1.25,1.25,0.75,1.75,2.0,1.0,0.5,0.02,0.14,0.95,170.04,-4.1,-13.8
2.68,0.0,0.0,0.75,0.25,0.0,0.0,0.0,0.5,0.0,0.75,0.5,0.0,0.0,-0.17,0.08,0.95,39.52,6.9,-18.1,1.25,0.5,0.25,1.25,0.5,1.25,1.25,1.25,0.5,2.0,2.0,0.75,0.25,0.02,0.14,0.95,184.88,-3.8,-10.6
2.7,0.0,0.0,0.75,0.5,0.0,0.0,0.0,0.5,0.0,0.5,0.5,0.0,0.0,-0.17,0.08,0.95,40.09,9.9,-5.8,1.25,0.5,0.25,1.25,1.0,1.25,1.25,1.25,0.75,1.75,2.0,0.75,0.5,0.02,0.14,0.95,195.96,-3.7,-9.0
2.72,0.0,0.0,1.0,0.5,0.0,0.0,0.0,0.5,0.0,0.25,0.5,0.0,0.0,-0.17,0.08,0.95,41.29,14.8,6.5,1.25,0.5,0.25,1.25,1.0,1.0,1.25,1.25,0.75,2.25,2.0,0.5,0.5,0.02,0.14,0.95,202.68,-3.3,-10.4
2.74,0.0,0.0,0.75,0.5,0.0,0.0,0.0,0.5,0.0,0.25,0.75,0.0,0.0,-0.17,0.08,0.95,40.04,12.3,-5.6,1.25,0.5,0.25,1.25,0.25,1.25,1.25,1.25,0.75,1.5,2.0,1.0,0.5,0.02,0.14,0.95,198.18,-4.7,-14.1
2.76,0.0,0.0,0.75,0.5,0.0,0.0,0.0,0.5,0.0,0.25,0.75,0.0,0.0,-0.17,0.08,0.95,39.27,12.3,-5.6,1.25,0.5,0.5,1.25,0.25,1.25,1.25,1.25,0.75,1.5,2.0,0.75,0.5,0.02,0.14,0.95,196.63,-5.3,-10.6
2.78,0.0,0.0,1.0,0.5,0.0,0.0,0.0,0.5,0.0,0.25,1.0,0.0,0.0,-0.17,0.08,0.95,43.04,14.2,-5.5,1.25,0.5,0.5,1.0,0.25,1.25,1.25,1.25,0.75,0.75,2.0,0.75,0.5,0.02,0.14,0.95,186.09,-6.5,-7.8
2.8,0.0,0.0,1.25,0.5,0.0,0.0,0.0,0.5,0.0,0.25,0.75,0.0,0.0,-0.17,0.08,0.95,48.3,16.3,4.7,0.0,0.0,0.5,0.0,0.5,0.0,1.25,1.5,0.25,0.0,2.0,0.0,0.0,0.02,0.14,0.95,148.62,-6.6,-25.1
2.82,0.0,0.0,1.0,0.5,0.0,0.0,0.0,0.75,0.0,0.25,0.75,0.0,0.0,-0.17,0.08,0.95,51.23,12.1,-2.9,0.0,0.0,0.0,0.0,0.0,0.25,0.5,1.0,0.25,0.0,0.75,0.0,0.0,0.02,0.14,0.95,99.47,1.4,-36.1
2.84,0.0,0.0,0.25,1.0,0.0,0.0,0.0,0.5,0.0,0.25,0.75,0.0,0.0,-0.17,0.08,0.95,50.68,8.4,-6.0,1.25,0.5,0.0,1.25,1.0,1.25,1.0,1.25,0.75,1.75,2.0,1.0,0.5,0.02,0.14,0.95,112.92,-2.9,-12.6
2.86,0.0,0.0,0.75,0.5,0.0,0.0,0.0,0.5,0.0,0.5,1.0,0.0,0.0,-0.17,0.08,0.95,51.08,10.0,-16.1,1.25,0.5,0.25,1.25,0.5,0.5,1.25,1.25,0.25,0.0,2.0,0.25,0.5,0.02,0.14,0.95,115.39,-9.2,3.5
2.88,0.0,0.0,1.0,0.5,0.0,0.0,0.0,0.5,0.0,0.25,0.75,0.0,0.0,-0.17,0.08,0.95,49.22,14.5,0.0,0.0,0.0,0.0,0.0,0.0,0.0,0.5,1.0,0.5,1.5,0.75,1.0,0.0,0.02,0.14,0.95,106.3,1.9,-66.3
2.9,0.0,0.0,0.5,0.5,0.0,0.0,0.0,0.75,0.0,0.25,1.0,0.0,0.0,-0.17,0.08,0.95,48.53,7.5,-19.7,1.25,0.5,0.5,1.25,0.5,1.25,1.25,1.25,0.75,1.75,2.0,0.75,0.5,0.02,0.14,0.95,127.89,-4.7,-10.4
2.92,0.0,0.0,0.5,0.5,0.0,0.0,0.25,0.5,0.0,0.25,0.75,0.0,0.0,-0.17,0.08,0.95,46.1,10.6,-10.6,1.25,0.25,0.25,0.0,0.25,0.0,1.25,1.25,0.25,0.5,2.0,0.25,0.5,0.02,0.14,0.95,121.18,-8.6,-19.0
2.94,0.0,0.0,0.75,0.5,0.0,0.0,0.0,0.5,0.0,0.5,0.75,0.0,0.0,-0.17,0.08,0.95,45.89,9.9,-11.4,0.0,0.0,0.0,0.0,0.0,0.75,0.5,1.0,0.25,0.25,0.75,0.0,0.0,0.02,0.14,0.95,94.63,5.7,-28.8
2.96,0.0,0.0,0.75,0.5,0.0,0.0,0.0,0.25,0.0,0.25,0.75,0.0,0.0,-0.17,0.08,0.95,43.13,15.1,-2.3,0.0,0.0,0.0,0.0,0.0,0.5,0.5,1.0,0.25,0.0,0.75,0.0,0.0,0.02,0.14,0.95,62.99,3.3,-29.9
2.98,0.0,0.0,0.75,0.5,0.0,0.0,0.0,0.5,0.0,0.5,0.75,0.0,0.0,-0.17,0.14,0.95,43.92,9.9,-11.4,0.0,0.0,0.0,0.0,0.0,0.25,0.5,1.0,0.25,0.5,0.75,0.0,0.0,0.02,0.14,0.95,44.84,3.8,-42.8
3.0,0.0,0.0,0.25,0.5,0.0,0.0,0.0,0.5,0.0,0.5,0.75,0.0,0.0,-0.17,0.08,0.95,41.26,4.1,-26.2,0.0,0.0,0.0,0.0,0.0,0.25,0.5,1.0,0.25,0.0,0.5,0.0,0.0,0.02,0.14,0.95,26.59,2.8,-31.8
3.02,0.0,0.0,0.5,0.5,0.0,0.0,0.25,0.5,0.0,0.25,1.0,0.0,0.0,-0.17,0.08,0.95,41.7,10.6,-16.1,1.25,0.5,0.0,1.25,0.25,1.25,0.5,1.0,0.75,1.5,0.5,0.25,0.0,0.02,0.14,0.95,58.15,-2.9,6.7
3.04,0.0,0.0,1.0,0.5,0.0,0.0,0.0,0.5,0.0,0.25,0.75,0.0,0.0,-0.17,0.14,0.95,43.0,14.5,0.0,1.25,0.5,0.25,1.25,0.5,1.25,1.25,1.25,0.75,0.5,2.0,0.0,0.25,0.02,0.14,0.95,99.34,-6.5,5.3
3.06,0.0,0.0,1.0,0.5,0.0,0.0,0.0,0.5,0.0,0.25,0.75,0.0,0.0,-0.17,0.14,0.95,45.52,14.5,0.0,1.25,0.5,0.0,1.25,0.0,1.0,0.75,1.25,1.0,1.75,2.0,0.75,0.5,0.02,0.14,0.95,133.88,-3.8,-19.1
3.08,0.0,0.0,1.0,0.5,0.0,0.0,0.0,0.5,0.0,0.75,1.0,0.0,0.0,-0.17,0.08,0.95,50.78,10.2,-14.8,1.25,0.5,0.25,1.25,0.5,1.25,1.25,1.25,0.75,1.5,2.0,0.75,0.25,0.02,0.14,0.95,154.63,-4.8,-8.4
3.1,0.0,0.0,1.0,0.5,0.0,0.0,0.0,0.75,0.0,0.5,1.0,0.0,0.0,-0.17,0.08,0.95,54.93,10.1,-12.4,1.25,0.5,0.25,1.25,0.5,1.25,1.25,1.25,0.75,1.5,2.0,1.0,0.5,0.02,0.14,0.95,177.11,-4.5,-12.5
3.12,0.0,0.0,1.0,0.5,0.0,0.0,0.25,0.5,0.0,0.5,1.0,0.0,0.0,-0.17,0.08,0.95,58.06,12.7,-9.2,1.25,0.5,0.25,1.25,0.25,1.25,1.25,1.25,0.75,1.75,2.0,0.75,0.25,0.02,0.14,0.95,185.18,-4.6,-11.3
3.14,0.0,0.0,1.0,0.5,0.0,0.0,0.0,0.5,0.0,0.25,1.0,0.0,0.0,-0.17,0.08,0.95,57.43,14.2,-5.5,1.25,0.5,0.25,1.25,0.25,1.25,1.25,1.25,0.75,1.5,2.0,1.0,0.5,0.02,0.14,0.95,187.71,-4.7,-14.1
3.16,0.0,0.0,0.5,0.5,0.0,0.0,0.0,0.5,0.0,0.5,0.75,0.0,0.0,-0.17,0.08,0.95,53.25,7.3,-18.1,1.25,0.5,0.25,1.25,0.5,1.25,1.25,1.25,0.75,1.5,2.0,1.0,0.25,0.02,0.14,0.95,195.51,-4.9,-10.5
3.18,0.0,0.0,0.75,0.5,0.0,0.0,0.0,0.5,0.0,0.25,1.0,0.0,0.0,-0.17,0.08,0.95,49.97,12.1,-11.2,1.25,0.5,0.5,1.25,0.5,1.0,1.25,1.25,0.75,1.5,2.0,1.0,0.25,0.02,0.14,0.95,197.98,-6.1,-9.9
3.2,0.0,0.0,1.0,0.5,0.0,0.0,0.0,0.5,0.0,0.25,1.0,0.0,0.0,-0.17,0.08,0.95,49.53,14.2,-5.5,1.25,0.5,0.25,1.25,1.0,1.25,1.25,1.5,0.75,1.5,2.0,1.0,0.25,0.02,0.14,0.95,199.65,-4.1,-8.2
3.22,0.0,0.0,0.75,0.5,0.0,0.0,0.0,0.5,0.0,0.25,1.0,0.0,0.0,-0.17,0.08,0.95,48.67,12.1,-11.2,1.25,0.5,0.25,1.25,0.5,1.25,1.25,1.25,0.75,1.75,2.0,0.75,0.25,0.02,0.14,0.95,195.97,-4.4,-9.8
3.24,0.0,0.0,0.75,0.5,0.0,0.0,0.0,0.5,0.0,0.25,0.75,0.0,0.0,-0.17,0.08,0.95,47.28,12.3,-5.6,1.25,0.5,0.5,1.25,0.25,1.25,1.25,1.5,0.75,1.5,2.0,0.75,0.5,0.02,0.14,0.95,191.83,-4.9,-11.1
3.26,0.0,0.0,1.0,0.5,0.0,0.0,0.0,0.5,0.0,0.25,1.0,0.0,0.0,-0.17,0.08,0.95,47.7,14.2,-5.5,1.25,0.5,0.5,1.25,0.25,1.25,1.25,1.25,0.75,1.25,2.0,0.75,0.25,0.02,0.14,0.95,181.24,-6.2,-7.0
3.28,0.0,0.0,1.0,0.5,0.0,0.0,0.0,0.5,0.0,0.5,1.25,0.0,0.0,-0.17,0.08,0.95,50.62,12.0,-14.7,1.25,0.5,0.5,1.25,0.5,1.75,1.25,1.25,0.75,1.75,2.0,0.75,0.25,0.02,0.14,0.95,181.88,-4.1,-6.8
3.3,0.0,0.0,1.0,0.5,0.0,0.0,0.0,0.25,0.0,0.25,1.0,0.0,0.0,-0.17,0.08,0.95,50.31,16.8,-2.8,1.25,0.5,0.25,1.25,0.5,1.25,1.25,1.25,0.75,1.75,2.0,1.0,0.25,0.02,0.14,0.95,180.39,-4.5,-11.8
3.32,0.0,0.0,0.5,0.5,0.0,0.0,0.0,0.5,0.0,1.0,1.25,0.0,0.0,-0.17,0.08,0.95,53.08,4.7,-33.2,1.25,0.5,0.25,1.25,0.25,1.25,1.25,1.25,0.75,1.5,2.0,0.75,0.25,0.02,0.14,0.95,177.7,-5.0,-10.0
3.34,0.0,0.0,1.0,0.5,0.0,0.0,0.0,0.25,0.0,0.25,1.0,0.0,0.0,-0.17,0.08,0.95,51.79,16.8,-2.8,1.25,0.5,0.5,1.25,0.25,1.25,1.25,1.25,0.75,1.5,2.0,0.75,0.25,0.02,0.14,0.95,175.28,-5.7,-8.5
3.36,0.0,0.0,1.0,0.5,0.0,0.0,0.0,0.25,0.0,0.25,1.25,0.0,0.0,-0.17,0.08,0.95,52.14,16.3,-8.2,1.25,0.5,0.5,1.25,0.5,1.25,1.25,1.25,0.75,1.75,2.0,0.75,0.25,0.02,0.14,0.95,176.1,-5.1,-8.4
3.38,0.0,0.0,1.0,0.5,0.0,0.0,0.0,0.25,0.0,0.5,0.75,0.0,0.0,-0.17,0.08,0.95,50.4,14.5,-3.0,1.25,0.5,0.5,1.25,0.25,1.25,1.25,1.25,0.75,2.0,2.0,1.0,0.25,0.02,0.14,0.95,177.59,-5.0,-13.1
3.4,0.0,0.0,1.0,0.5,0.0,0.0,0.0,0.25,0.0,0.25,1.0,0.0,0.0,-0.17,0.14,0.95,49.9,16.8,-2.8,1.25,0.5,0.25,1.25,0.25,1.25,1.25,1.25,0.75,1.75,2.0,0.75,0.5,0.02,0.14,0.95,177.46,-4.2,-13.4
3.42,0.0,0.0,1.0,0.5,0.0,0.0,0.0,0.25,0.0,0.25,0.75,0.0,0.0,-0.17,0.14,0.95,47.17,17.3,3.5,1.25,0.5,0.25,1.25,0.5,1.25,1.25,1.25,0.75,1.75,2.0,1.0,0.25,0.02,0.14,0.95,178.47,-4.5,-11.8
3.44,0.0,0.0,1.0,0.5,0.0,0.0,0.0,0.25,0.0,0.25,1.0,0.0,0.0,-0.17,0.08,0.95,46.71,16.8,-2.8,1.25,0.5,0.25,1.25,0.5,1.25,1.25,1.25,0.75,1.5,2.0,0.75,0.25,0.02,0.14,0.95,176.41,-4.8,-8.4
3.46,0.0,0.0,1.0,0.5,0.0,0.0,0.0,0.25,0.0,0.25,0.75,0.0,0.0,-0.17,0.08,0.95,45.52,17.3,3.5,0.0,0.0,0.5,0.0,0.25,0.0,1.25,1.25,0.5,0.5,2.0,0.25,0.25,0.02,0.14,0.95,148.51,-5.7,-40.0
3.48,0.0,0.25,0.5,0.5,0.0,0.0,0.0,0.25,0.0,0.5,1.0,0.0,0.0,-0.17,0.08,0.95,45.48,10.0,-11.0,0.0,0.0,0.0,0.0,0.0,0.0,0.75,1.0,0.25,0.0,0.75,0.0,0.0,0.02,0.14,0.95,102.19,-2.4,-40.0
3.5,0.0,0.0,1.0,0.5,0.0,0.0,0.0,0.25,0.0,0.25,1.0,0.0,0.0,-0.17,0.08,0.95,45.35,16.8,-2.8,0.0,0.0,0.0,0.0,0.25,0.25,0.5,1.0,0.25,0.0,0.75,0.0,0.0,0.02,0.14,0.95,59.44,1.6,-26.6
3.52,0.0,0.0,1.0,0.5,0.0,0.0,0.0,0.25,0.0,0.25,0.75,0.0,0.0,-0.17,0.08,0.95,44.91,17.3,3.5,0.0,0.0,0.0,0.0,0.0,0.0,0.5,1.0,0.5,0.0,0.75,0.25,0.0,0.02,0.14,0.95,29.71,-2.6,-49.2
3.54,0.0,0.0,1.0,0.5,0.0,0.0,0.0,0.25,0.0,0.25,0.75,0.0,0.0,-0.17,0.08,0.95,44.68,17.3,3.5,0.0,0.0,0.0,0.0,0.0,0.25,0.5,1.0,0.25,0.25,0.75,0.25,0.0,0.02,0.14,0.95,17.88,1.7,-45.7
3.56,0.0,0.0,1.0,0.5,0.0,0.0,0.0,0.25,0.0,0.25,1.0,0.0,0.0,-0.17,0.08,0.95,45.01,16.8,-2.8,0.0,0.0,0.0,0.0,0.0,0.5,0.5,1.0,0.25,0.0,0.75,0.0,0.0,0.02,0.14,0.95,14.0,3.3,-29.9
3.58,0.0,0.0,1.0,0.5,0.0,0.0,0.0,0.25,0.0,0.25,0.75,0.0,0.0,-0.17,0.08,0.95,45.12,17.3,3.5,0.0,0.0,0.0,0.0,0.0,0.25,0.5,1.0,0.25,0.25,0.5,0.25,0.0,0.02,0.14,0.95,13.77,2.9,-43.0
3.6,0.0,0.0,1.0,0.5,0.0,0.0,0.0,0.25,0.0,0.25,1.0,0.0,0.0,-0.17,0.08,0.95,45.94,16.8,-2.8,0.0,0.0,0.0,0.0,0.0,0.0,0.5,1.0,0.25,0.0,0.75,0.0,0.0,0.02,0.14,0.95,10.17,-0.8,-43.6
3.62,0.0,0.0,1.0,0.5,0.0,0.0,0.0,0.25,0.0,0.25,1.0,0.0,0.0,-0.17,0.08,0.95,46.81,16.8,-2.8,0.0,0.0,0.0,0.0,0.0,0.0,0.5,1.0,0.25,0.0,0.75,0.25,0.0,0.02,0.14,0.95,11.36,-1.6,-50.3
3.64,0.0,0.0,0.75,1.0,0.0,0.0,0.0,0.25,0.0,0.25,0.75,0.0,0.0,-0.17,0.14,0.95,48.06,15.5,8.0,0.0,0.0,0.0,0.0,0.0,0.25,0.5,1.0,0.25,0.5,0.5,0.0,0.0,0.02,0.14,0.95,15.86,5.1,-39.9
3.66,0.0,0.0,1.0,0.5,0.0,0.0,0.0,0.25,0.0,0.25,1.0,0.0,0.0,-0.17,0.08,0.95,48.35,16.8,-2.8,0.0,0.0,0.0,0.0,0.0,0.0,0.5,1.0,0.5,0.0,0.75,0.25,0.0,0.02,0.14,0.95,23.0,-2.6,-49.2
3.68,0.0,0.0,1.0,0.5,0.0,0.0,0.0,0.25,0.0,0.25,1.0,0.0,0.0,-0.17,0.08,0.95,48.47,16.8,-2.8,0.0,0.0,0.0,0.0,0.0,0.25,0.75,1.0,0.5,0.25,0.75,0.5,0.0,0.02,0.14,0.95,36.17,-1.0,-47.2
3.7,0.0,0.0,1.25,0.5,0.0,0.0,0.0,0.25,0.0,0.5,1.0,0.0,0.0,-0.17,0.08,0.95,51.15,16.0,-3.3,0.0,0.0,0.0,0.0,0.0,0.5,0.5,1.0,0.5,0.25,0.75,0.25,0.0,0.02,0.14,0.95,48.47,2.2,-39.7
3.72,0.0,0.0,1.25,0.5,0.0,0.0,0.0,0.25,0.0,0.25,1.0,0.0,0.0,-0.17,0.08,0.95,52.26,18.4,2.1,0.0,0.0,0.0,0.0,0.0,0.25,0.25,1.0,0.25,0.25,0.75,0.0,0.0,0.02,0.14,0.95,50.45,4.4,-42.9
3.74,0.0,0.0,1.25,0.5,0.0,0.0,0.0,0.25,0.0,0.25,0.75,0.0,0.0,-0.17,0.08,0.95,52.34,19.1,8.3,0.0,0.0,0.0,0.0,0.0,0.25,0.25,1.0,0.25,0.0,0.75,0.25,0.0,0.02,0.14,0.95,47.17,2.0,-46.2
3.76,0.0,0.0,1.5,0.5,0.0,0.0,0.0,0.25,0.0,0.25,1.0,0.0,0.0,-0.17,0.08,0.95,54.19,19.9,6.4,0.0,0.0,0.0,0.0,0.0,0.0,0.75,1.0,0.5,0.0,0.75,0.25,0.0,0.02,0.14,0.95,45.38,-3.8,-46.0
3.78,0.0,0.0,1.5,0.5,0.0,0.0,0.0,0.25,0.0,0.25,0.75,0.0,0.0,-0.17,0.08,0.95,54.49,20.6,12.4,0.0,0.0,0.0,0.0,0.0,0.0,0.5,1.0,0.5,0.25,0.75,0.0,0.0,0.02,0.14,0.95,44.12,-0.3,-46.1
3.8,0.0,0.25,1.25,0.75,0.0,0.0,0.0,0.25,0.0,0.25,1.25,0.0,0.0,-0.17,0.08,0.95,58.69,17.5,7.3,0.0,0.0,0.0,0.0,0.0,0.5,0.75,1.25,0.5,0.25,0.5,0.25,0.0,0.02,0.14,0.95,48.2,2.9,-34.9
3.82,0.0,0.0,1.25,0.5,0.0,0.0,0.0,0.25,0.0,0.25,0.75,0.0,0.0,-0.17,0.08,0.95,56.83,19.1,8.3,1.25,0.5,0.0,1.25,0.0,1.25,0.5,1.0,0.75,1.5,0.75,1.0,0.25,0.02,0.14,0.95,83.8,-3.3,-8.8
3.84,0.0,0.0,1.25,0.5,0.0,0.0,0.0,0.25,0.0,0.25,0.75,0.0,0.0,-0.17,0.08,0.95,55.02,19.1,8.3,1.25,0.75,0.5,1.25,0.25,1.25,1.25,1.25,0.75,1.75,2.0,0.75,0.5,0.02,0.14,0.95,130.36,-5.1,-9.6
3.86,0.0,0.0,1.25,0.5,0.0,0.0,0.0,0.25,0.0,0.25,1.0,0.0,0.0,-0.17,0.08,0.95,52.76,18.4,2.1,1.25,0.5,0.5,1.25,1.0,1.25,1.25,1.25,0.75,1.75,2.0,0.75,0.25,0.02,0.14,0.95,170.86,-4.7,-5.6
3.88,0.0,0.0,1.5,0.5,0.0,0.0,0.0,0.25,0.0,0.25,1.0,0.0,0.0,-0.17,0.08,0.95,53.68,19.9,6.4,1.25,0.75,0.0,1.25,1.0,1.25,1.25,1.25,0.75,2.0,2.0,1.0,0.25,0.02,0.14,0.95,196.99,-3.3,-9.4
3.9,0.0,0.0,1.5,0.5,0.0,0.0,0.0,0.25,0.0,0.25,0.5,0.0,0.0,-0.17,0.08,0.95,52.55,21.3,19.4,1.25,0.5,0.5,1.25,1.0,1.25,1.25,1.25,0.75,1.75,2.0,0.75,0.25,0.02,0.14,0.95,209.6,-4.7,-5.6
3.92,0.0,0.0,1.25,0.5,0.0,0.0,0.0,0.25,0.0,0.25,0.75,0.0,0.0,-0.17,0.08,0.95,51.54,19.1,8.3,1.25,0.75,0.25,1.25,0.5,1.25,1.25,1.25,0.75,1.75,2.0,1.0,0.25,0.02,0.14,0.95,211.23,-4.7,-9.6
3.94,0.0,0.0,1.5,0.5,0.0,0.0,0.0,0.25,0.0,0.5,0.75,0.0,0.0,-0.17,0.08,0.95,52.5,18.0,6.2,1.25,0.75,0.5,1.25,0.5,1.25,1.25,1.25,0.75,1.5,2.0,1.0,0.5,0.02,0.14,0.95,211.46,-5.3,-8.9
3.96,0.0,0.0,1.25,1.0,0.0,0.0,0.0,0.25,0.0,0.75,0.5,0.0,0.0,-0.17,0.08,0.95,55.57,14.8,9.4,1.25,0.75,0.5,1.25,0.5,1.25,1.25,1.25,0.75,1.5,2.0,0.75,0.5,0.02,0.14,0.95,210.37,-5.3,-6.9
3.98,0.0,0.0,1.25,0.5,0.0,0.0,0.0,0.25,0.0,0.25,0.75,0.0,0.0,-0.17,0.08,0.95,54.34,19.1,8.3,1.25,0.5,0.0,1.25,2.25,1.25,1.25,1.25,0.75,1.5,2.0,0.75,0.25,0.02,0.14,0.95,212.63,-3.0,-0.6
4.0,0.0,0.0,1.75,0.5,0.0,0.0,0.0,0.25,0.0,0.25,0.75,0.0,0.0,-0.17,0.08,0.95,55.56,21.8,16.0,1.25,0.5,0.25,1.25,0.5,1.25,1.25,1.25,0.75,1.75,2.0,0.75,0.25,0.02,0.14,0.95,205.81,-4.4,-9.8
4.02,0.0,0.0,1.75,0.5,0.0,0.0,0.0,0.25,0.0,0.25,0.75,0.0,0.0,-0.17,0.08,0.95,56.16,21.8,16.0,1.25,0.5,0.0,1.25,0.25,1.25,1.25,1.25,0.75,1.75,2.0,0.75,0.25,0.02,0.14,0.95,195.86,-3.9,-12.9
4.04,0.0,0.0,1.5,0.5,0.0,0.0,0.0,0.25,0.0,0.25,0.5,0.0,0.0,-0.17,0.08,0.95,54.53,21.3,19.4,1.25,0.5,0.5,1.25,0.25,1.25,1.25,1.25,0.75,1.75,2.0,0.75,0.25,0.02,0.14,0.95,185.31,-5.3,-9.8
4.06,0.0,0.0,1.25,0.5,0.0,0.0,0.0,0.25,0.0,0.25,1.0,0.0,0.0,-0.17,0.08,0.95,54.0,18.4,2.1,1.25,0.5,0.75,1.25,1.0,1.25,1.0,1.25,0.75,1.5,2.0,1.0,0.5,0.02,0.14,0.95,182.17,-5.2,-7.3
4.08,0.0,0.0,1.5,0.75,0.0,0.0,0.0,0.25,0.0,0.25,1.0,0.0,0.0,-0.17,0.08,0.95,56.02,19.7,10.0,1.25,0.5,0.25,1.25,0.5,1.25,1.25,1.25,0.75,2.5,2.0,1.0,0.25,0.02,0.14,0.95,182.58,-3.4,-15.4
4.1,0.0,0.0,1.5,0.5,0.0,0.0,0.0,0.25,0.0,0.25,0.75,0.0,0.0,-0.17,0.08,0.95,55.41,20.6,12.4,1.25,0.5,0.5,1.25,0.5,1.25,1.25,1.25,0.75,1.75,2.0,1.0,0.25,0.02,0.14,0.95,184.45,-5.2,-10.3
4.12,0.0,0.0,1.25,1.0,0.0,0.0,0.0,0.0,0.0,0.5,0.5,0.0,0.0,-0.17,0.08,0.95,55.44,19.4,19.5,1.25,0.75,0.25,1.25,0.25,1.25,1.25,1.25,0.75,1.5,2.0,1.0,0.5,0.02,0.14,0.95,183.13,-4.9,-11.8
4.14,0.0,0.0,1.0,0.5,0.0,0.0,0.0,0.25,0.0,0.25,0.75,0.0,0.0,-0.17,0.08,0.95,51.78,17.3,3.5,1.25,0.5,0.0,1.25,1.75,1.25,1.25,1.25,0.75,2.0,2.0,1.0,0.25,0.02,0.14,0.95,187.76,-2.7,-7.5
4.16,0.0,0.0,1.25,0.5,0.0,0.0,0.0,0.25,0.0,0.25,1.0,0.0,0.0,-0.17,0.08,0.95,50.79,18.4,2.1,1.25,0.75,0.25,1.25,0.5,1.25,1.0,1.25,0.75,1.75,2.0,0.75,0.25,0.02,0.14,0.95,185.24,-4.3,-7.9
4.18,0.0,0.0,1.0,0.5,0.0,0.0,0.0,0.25,0.0,0.25,0.75,0.0,0.0,-0.17,0.08,0.95,46.78,17.3,3.5,1.25,0.5,0.25,1.25,0.5,1.25,1.25,1.25,0.75,1.5,2.0,1.0,0.5,0.02,0.14,0.95,184.02,-4.5,-12.5
4.2,0.0,0.0,1.25,0.5,0.0,0.0,0.0,0.0,0.0,0.25,0.75,0.0,0.0,-0.17,0.08,0.95,45.61,22.3,12.6,1.25,0.5,0.25,1.25,0.5,1.25,1.25,1.25,0.75,1.5,2.0,1.0,0.25,0.02,0.14,0.95,180.3,-4.9,-10.5
4.22,0.0,0.0,1.5,0.5,0.0,0.0,0.0,0.0,0.0,0.25,0.75,0.0,0.0,-0.17,0.08,0.95,46.0,23.6,16.6,1.25,0.5,0.0,1.25,1.0,1.25,1.25,1.25,0.75,1.5,2.0,0.75,0.25,0.02,0.14,0.95,178.64,-3.7,-7.0
4.24,0.0,0.0,1.0,0.5,0.0,0.0,0.0,0.0,0.0,0.25,0.75,0.0,0.0,-0.17,0.08,0.95,43.54,20.6,7.6,1.25,0.5,0.0,1.25,1.25,1.25,1.25,1.25,0.75,1.5,2.0,1.0,0.25,0.02,0.14,0.95,180.32,-3.7,-7.6
4.26,0.0,0.0,1.25,0.5,0.0,0.0,0.0,0.0,0.0,0.25,1.0,0.0,0.0,-0.17,0.08,0.95,44.41,21.4,5.5,1.25,0.5,0.75,1.25,1.25,1.25,1.25,1.25,0.75,1.5,2.0,1.0,0.25,0.02,0.14,0.95,186.11,-5.6,-3.7
4.28,0.0,0.0,1.25,0.75,0.0,0.0,0.0,0.0,0.0,0.0,0.5,0.0,0.0,-0.17,0.08,0.95,43.27,26.6,34.2,1.25,0.5,0.5,1.25,0.5,1.25,1.25,1.25,0.75,1.5,2.0,0.75,0.25,0.02,0.14,0.95,184.47,-5.5,-7.0
4.3,0.0,0.0,1.0,0.5,0.0,0.0,0.0,0.25,0.0,0.25,1.25,0.0,0.0,-0.17,0.08,0.95,45.51,16.3,-8.2,1.0,0.5,0.0,1.25,0.5,1.25,1.25,1.25,0.75,1.5,2.0,1.0,0.5,0.02,0.14,0.95,180.21,-3.2,-16.2
4.32,0.0,0.0,1.0,0.5,0.0,0.0,0.0,0.0,0.0,0.25,0.75,0.0,0.0,-0.17,0.08,0.95,43.34,20.6,7.6,1.25,0.75,0.0,1.25,0.25,1.25,1.25,1.25,0.75,1.5,2.0,1.0,0.25,0.02,0.08,0.95,175.77,-4.6,-11.2
4.34,0.0,0.0,1.0,0.5,0.0,0.0,0.0,0.25,0.0,0.25,0.75,0.0,0.0,-0.17,0.08,0.95,44.19,17.3,3.5,1.25,0.5,0.0,1.25,1.5,1.25,1.25,1.25,0.75,1.5,2.0,1.0,0.5,0.02,0.14,0.95,179.35,-3.2,-8.3
4.36,0.0,0.0,1.25,0.5,0.0,0.0,0.0,0.0,0.0,0.25,0.75,0.0,0.0,-0.17,0.08,0.95,43.71,22.3,12.6,1.0,0.75,0.25,1.25,0.25,1.25,1.25,1.25,0.75,1.75,2.0,1.0,0.25,0.02,0.14,0.95,177.98,-4.3,-13.1
4.38,0.0,0.0,1.5,0.5,0.0,0.0,0.0,0.0,0.0,0.25,0.75,0.0,0.0,-0.17,0.08,0.95,46.06,23.6,16.6,1.25,0.75,0.25,1.25,0.5,1.25,1.25,1.25,0.75,1.5,2.0,1.0,0.5,0.02,0.14,0.95,180.58,-4.7,-10.3
4.4,0.0,0.0,1.5,0.5,0.0,0.0,0.0,0.0,0.0,0.25,0.75,0.0,0.0,-0.17,0.08,0.95,47.43,23.6,16.6,1.25,0.75,0.0,1.25,0.5,1.25,1.25,1.25,0.75,1.5,2.0,0.75,0.5,0.02,0.14,0.95,179.97,-3.9,-9.8
4.42,0.0,0.0,1.25,0.5,0.0,0.0,0.0,0.25,0.0,0.25,0.75,0.0,0.0,-0.17,0.08,0.95,49.21,19.1,8.3,1.0,0.75,0.25,1.25,1.75,1.25,1.25,1.25,0.75,1.5,2.0,1.0,0.25,0.02,0.14,0.95,185.88,-3.7,-3.5
4.44,0.0,0.0,1.25,0.25,0.0,0.0,0.0,0.0,0.0,0.0,0.5,0.0,0.0,-0.17,0.08,0.95,44.49,29.0,28.1,1.25,0.5,0.5,1.25,0.5,1.25,1.25,1.25,0.75,1.5,2.0,1.0,0.25,0.02,0.14,0.95,184.43,-5.6,-9.0
4.46,0.0,0.0,1.25,0.5,0.0,0.0,0.0,0.25,0.0,0.25,1.0,0.0,0.0,-0.17,0.08,0.95,45.98,18.4,2.1,1.25,0.5,0.25,1.25,0.5,1.25,1.25,1.25,0.75,1.75,2.0,0.75,0.25,0.02,0.14,0.95,183.21,-4.4,-9.8
4.48,0.0,0.0,1.25,0.5,0.0,0.0,0.0,0.25,0.0,0.25,0.75,0.0,0.0,-0.17,0.14,0.95,46.48,19.1,8.3,1.0,0.5,0.0,1.25,0.25,1.25,1.25,1.25,0.75,1.5,2.0,1.0,0.5,0.02,0.14,0.95,176.49,-3.4,-18.0
4.5,0.0,0.0,1.25,0.5,0.0,0.0,0.0,0.25,0.0,0.25,0.75,0.0,0.0,-0.17,0.08,0.95,48.28,19.1,8.3,1.25,0.5,1.25,1.25,1.5,1.25,1.25,1.25,0.75,1.5,2.0,1.0,0.25,0.02,0.14,0.95,185.4,-6.6,-0.3
4.52,0.0,0.0,1.25,0.5,0.0,0.0,0.0,0.0,0.0,0.25,0.75,0.0,0.0,-0.17,0.08,0.95,47.84,22.3,12.6,1.0,0.5,0.25,1.0,0.25,1.25,1.25,1.25,0.75,1.5,2.0,1.0,0.5,0.02,0.14,0.95,181.15,-3.8,-17.9
4.54,0.0,0.0,1.5,0.5,0.0,0.0,0.0,0.25,0.0,0.25,0.75,0.0,0.0,-0.17,0.08,0.95,50.09,20.6,12.4,1.25,0.75,0.25,1.25,0.5,1.25,1.25,1.25,0.75,1.75,2.0,1.0,0.25,0.02,0.14,0.95,183.76,-4.7,-9.6
4.56,0.0,0.0,1.0,0.5,0.0,0.0,0.0,0.25,0.0,0.25,0.5,0.0,0.0,-0.17,0.08,0.95,47.41,17.9,11.0,1.0,0.5,0.25,1.25,0.5,1.25,1.25,1.25,0.75,1.5,2.0,1.0,0.25,0.02,0.14,0.95,178.17,-4.3,-12.6
4.58,0.0,0.0,1.25,0.5,0.0,0.0,0.0,0.25,0.0,0.25,0.75,0.0,0.0,-0.17,0.08,0.95,47.62,19.1,8.3,1.25,0.5,0.0,1.25,0.25,1.25,1.25,1.25,0.75,1.5,2.0,1.0,0.5,0.02,0.14,0.95,175.09,-4.0,-15.7
4.6,0.0,0.0,1.25,1.0,0.0,0.0,0.0,0.0,0.0,0.5,0.0,0.0,0.0,-0.17,0.08,0.95,47.07,20.9,35.7,1.25,0.75,0.0,1.25,1.25,1.25,1.0,1.25,0.75,1.75,2.0,1.0,0.5,0.02,0.14,0.95,178.91,-2.9,-9.1
4.62,0.0,0.0,1.5,0.5,0.0,0.0,0.0,0.25,0.0,0.25,0.5,0.0,0.0,-0.17,0.08,0.95,48.43,21.3,19.4,1.0,0.5,0.5,1.25,0.5,1.25,1.25,1.25,0.75,1.75,2.0,1.0,0.5,0.02,0.14,0.95,180.91,-4.3,-14.3
4.64,0.0,0.0,1.25,0.5,0.0,0.0,0.0,0.0,0.0,0.25,0.75,0.0,0.0,-0.17,0.08,0.95,47.56,22.3,12.6,1.0,0.75,0.0,1.25,0.25,1.25,1.25,1.5,0.75,1.75,2.0,0.75,0.25,0.02,0.14,0.95,179.75,-3.0,-13.2
4.66,0.0,0.0,1.25,0.5,0.0,0.0,0.0,0.0,0.0,0.25,0.75,0.0,0.0,-0.17,0.08,0.95,47.27,22.3,12.6,1.25,0.5,0.25,1.25,0.0,1.25,1.25,1.25,0.75,1.75,2.0,0.75,0.25,0.02,0.14,0.95,174.37,-4.8,-12.9
4.68,0.0,0.0,1.5,0.5,0.0,0.0,0.0,0.0,0.0,0.25,0.75,0.0,0.0,-0.17,0.08,0.95,47.83,23.6,16.6,1.25,0.5,1.25,1.25,1.5,1.25,1.0,1.25,0.75,1.5,2.0,0.75,0.5,0.02,0.14,0.95,184.34,-6.0,-0.6
4.7,0.0,0.0,1.25,0.5,0.0,0.0,0.0,0.0,0.0,0.25,0.5,0.0,0.0,-0.17,0.08,0.95,45.06,23.4,20.9,1.25,0.5,0.25,1.25,0.5,1.25,1.25,1.0,0.75,1.5,2.0,0.75,0.25,0.02,0.14,0.95,180.78,-5.3,-7.8
4.72,0.0,0.0,1.5,0.5,0.0,0.0,0.0,0.0,0.0,0.25,0.5,0.0,0.0,-0.17,0.08,0.95,45.41,24.7,24.6,1.0,0.5,0.25,1.25,0.5,1.25,1.25,1.25,0.75,1.5,2.0,1.0,0.25,0.02,0.14,0.95,179.92,-4.3,-12.6
4.74,0.0,0.0,1.5,0.5,0.0,0.0,0.0,0.0,0.0,0.25,0.5,0.0,0.0,-0.17,0.08,0.95,45.26,24.7,24.6,1.25,0.5,0.5,1.25,0.25,1.25,1.25,1.25,0.75,1.75,1.75,1.0,0.25,0.02,0.14,0.95,175.87,-5.3,-10.6
4.76,0.0,0.0,1.25,0.5,0.0,0.0,0.0,0.0,0.0,0.25,0.75,0.0,0.25,-0.17,0.08,0.95,46.6,19.2,2.2,1.25,0.5,0.75,1.25,1.25,1.25,1.0,1.25,0.75,1.5,2.0,1.0,0.25,0.02,0.14,0.95,183.06,-5.4,-4.0
4.78,0.0,0.0,1.5,0.5,0.0,0.0,0.0,0.0,0.0,0.25,0.75,0.0,0.0,-0.17,0.08,0.95,47.59,23.6,16.6,1.25,0.75,0.5,1.25,1.0,1.25,1.0,1.25,0.75,1.5,2.0,0.75,0.25,0.02,0.14,0.95,184.58,-5.0,-2.5
4.8,0.0,0.0,1.25,0.5,0.0,0.0,0.0,0.0,0.0,0.25,0.75,0.0,0.0,-0.17,0.08,0.95,47.81,22.3,12.6,1.25,0.5,0.0,1.25,0.5,1.25,1.25,1.25,0.75,1.5,2.0,1.0,0.25,0.02,0.14,0.95,183.66,-4.2,-12.0
4.82,0.0,0.0,1.5,0.5,0.0,0.0,0.0,0.0,0.0,0.25,0.75,0.0,0.0,-0.17,0.08,0.95,48.22,23.6,16.6,1.25,0.5,0.25,1.25,0.25,1.25,1.25,1.25,0.75,1.5,2.0,1.0,0.25,0.02,0.14,0.95,179.51,-5.1,-12.0
4.84,0.0,0.0,1.5,0.5,0.0,0.0,0.0,0.0,0.0,0.25,0.75,0.0,0.0,-0.17,0.08,0.95,48.72,23.6,16.6,1.25,0.5,0.75,1.25,1.0,1.25,1.0,1.25,0.75,1.5,2.0,1.0,0.25,0.02,0.14,0.95,180.51,-5.6,-5.3
4.86,0.0,0.0,1.75,0.5,0.0,0.0,0.0,0.0,0.0,0.25,0.5,0.0,0.0,-0.17,0.08,0.95,49.97,25.9,27.7,1.25,0.5,0.25,1.25,0.25,1.25,1.0,1.25,0.75,1.5,2.0,1.0,0.25,0.02,0.14,0.95,177.51,-4.8,-12.4
4.88,0.0,0.0,1.75,0.5,0.0,0.0,0.0,0.0,0.0,0.25,0.75,0.0,0.0,-0.17,0.08,0.95,52.05,24.8,20.1,1.0,0.75,0.25,1.25,0.5,1.25,1.25,1.25,0.75,1.5,2.0,1.0,0.5,0.02,0.14,0.95,178.7,-4.1,-12.3
4.9,0.0,0.0,1.5,0.5,0.0,0.0,0.0,0.0,0.0,0.25,1.0,0.0,0.0,-0.17,0.08,0.95,53.34,22.7,9.9,1.25,0.5,0.5,1.25,0.5,1.25,1.0,1.25,0.75,1.5,2.0,0.75,0.25,0.02,0.14,0.95,176.71,-5.3,-7.3
4.92,0.0,0.0,1.25,0.5,0.0,0.0,0.0,0.0,0.0,0.25,0.75,0.0,0.25,-0.17,0.08,0.95,52.49,19.2,2.2,1.25,0.5,0.0,1.25,1.5,1.25,1.25,1.25,0.75,1.5,2.0,1.0,0.5,0.02,0.14,0.95,181.08,-3.2,-8.3
4.94,0.0,0.0,1.25,0.5,0.0,0.0,0.0,0.0,0.0,0.25,0.5,0.0,0.0,-0.17,0.08,0.95,49.18,23.4,20.9,1.25,0.5,0.5,1.25,1.0,1.25,1.0,1.0,0.75,1.5,2.0,0.75,0.25,0.02,0.14,0.95,182.65,-5.3,-3.9
4.96,0.0,0.0,1.5,0.5,0.0,0.0,0.0,0.0,0.0,0.25,1.0,0.0,0.0,-0.17,0.08,0.95,49.35,22.7,9.9,1.25,0.75,0.25,1.25,0.5,1.25,1.25,1.25,0.75,1.5,2.0,0.75,0.5,0.02,0.14,0.95,183.3,-4.6,-8.3
4.98,0.0,0.0,1.25,0.5,0.0,0.0,0.0,0.0,0.0,0.25,0.75,0.0,0.0,-0.17,0.08,0.95,47.41,22.3,12.6,1.25,0.5,0.25,1.25,1.0,1.25,1.25,1.25,0.75,1.75,2.0,0.75,0.25,0.02,0.14,0.95,183.13,-4.1,-7.0
5.0,0.0,0.0,1.75,0.5,0.0,0.0,0.0,0.0,0.0,0.25,0.75,0.0,0.0,-0.17,0.08,0.95,49.82,24.8,20.1,1.0,0.5,0.5,1.25,0.5,1.25,1.25,1.25,0.75,1.5,2.0,0.75,0.25,0.02,0.14,0.95,179.7,-5.0,-9.0
5.02,0.0,0.0,1.5,0.5,0.0,0.0,0.0,0.0,0.0,0.25,0.5,0.0,0.0,-0.17,0.08,0.95,48.79,24.7,24.6,1.25,0.75,0.25,1.25,0.5,1.25,1.0,1.25,0.75,1.5,2.0,0.75,0.25,0.02,0.14,0.95,178.36,-4.7,-6.5
5.04,0.0,0.0,1.75,0.5,0.0,0.0,0.0,0.0,0.0,0.25,0.5,0.0,0.0,-0.17,0.08,0.95,50.08,25.9,27.7,1.25,0.75,0.0,1.25,1.0,1.25,1.25,1.5,0.75,1.5,2.0,1.0,0.25,0.02,0.14,0.95,181.12,-3.6,-7.5
5.06,0.0,0.0,1.25,0.5,0.0,0.0,0.0,0.0,0.0,0.25,0.5,0.0,0.0,-0.17,0.14,0.95,46.5,23.4,20.9,1.25,0.5,0.0,1.25,0.25,1.25,1.0,1.5,0.75,1.5,1.5,1.0,0.25,0.02,0.14,0.95,175.91,-3.3,-12.0
5.08,0.0,0.0,1.25,0.5,0.0,0.0,0.0,0.0,0.0,0.0,0.75,0.0,0.0,-0.17,0.08,0.95,44.36,26.0,21.2,1.0,0.5,0.5,1.25,1.75,1.25,1.25,1.25,0.75,1.5,2.0,0.75,0.5,0.02,0.14,0.95,182.06,-3.7,-4.3
5.1,0.0,0.0,1.5,0.5,0.0,0.0,0.0,0.0,0.0,0.25,0.5,0.0,0.0,-0.17,0.08,0.95,43.42,24.7,24.6,1.25,0.5,0.25,1.25,0.0,1.25,1.25,1.5,0.75,1.5,2.0,0.75,0.25,0.02,0.14,0.95,178.27,-4.8,-12.2
5.12,0.0,0.0,1.5,0.5,0.0,0.0,0.0,0.0,0.0,0.25,0.75,0.0,0.0,-0.17,0.08,0.95,45.03,23.6,16.6,0.75,0.75,0.25,1.25,0.5,1.25,1.0,1.0,0.75,1.5,2.0,1.0,0.5,0.02,0.14,0.95,176.49,-3.7,-14.3
5.14,0.0,0.0,1.5,0.5,0.0,0.0,0.0,0.0,0.0,0.25,0.75,0.0,0.0,-0.17,0.08,0.95,47.14,23.6,16.6,1.25,0.5,0.0,1.25,0.5,1.25,1.25,1.25,0.75,1.5,2.0,1.0,0.25,0.02,0.14,0.95,172.25,-4.2,-12.0
5.16,0.0,0.0,1.5,0.5,0.0,0.0,0.0,0.0,0.0,0.25,0.75,0.0,0.0,-0.17,0.08,0.95,49.0,23.6,16.6,1.25,0.75,0.0,1.25,1.5,1.25,1.0,1.25,0.75,1.75,2.0,1.0,0.5,0.02,0.14,0.95,179.81,-2.8,-7.8
5.18,0.0,0.0,1.5,0.5,0.0,0.0,0.0,0.0,0.0,0.25,0.75,0.0,0.0,-0.17,0.08,0.95,49.87,23.6,16.6,1.25,0.5,0.5,0.75,1.25,1.25,1.0,1.25,0.75,1.5,2.0,1.0,0.25,0.02,0.14,0.95,182.33,-4.3,-7.9
5.2,0.0,0.0,1.5,0.5,0.0,0.0,0.0,0.0,0.0,0.25,0.75,0.0,0.0,-0.17,0.08,0.95,49.63,23.6,16.6,1.25,0.5,0.5,1.25,1.25,1.25,1.25,1.5,0.75,1.5,2.0,0.75,0.25,0.02,0.14,0.95,188.69,-4.5,-3.7
5.22,0.0,0.0,1.5,0.5,0.0,0.0,0.0,0.0,0.0,0.25,0.75,0.0,0.0,-0.17,0.08,0.95,50.0,23.6,16.6,1.0,0.5,0.25,1.25,1.25,1.25,1.25,1.25,0.75,1.5,2.0,1.0,0.5,0.02,0.14,0.95,189.98,-3.5,-10.1
5.24,0.0,0.0,1.5,0.5,0.0,0.0,0.0,0.0,0.0,0.25,1.0,0.0,0.0,-0.17,0.08,0.95,51.1,22.7,9.9,1.25,0.5,0.25,1.25,0.25,1.25,1.25,1.25,0.75,1.75,1.75,1.0,0.0,0.02,0.14,0.95,184.89,-5.0,-9.9
5.26,0.0,0.0,1.5,0.5,0.0,0.0,0.0,0.0,0.0,0.25,0.5,0.0,0.0,-0.17,0.08,0.95,50.38,24.7,24.6,1.25,0.5,0.25,1.25,0.25,1.25,1.25,1.25,0.75,1.5,2.0,0.75,0.5,0.02,0.14,0.95,178.77,-4.6,-12.1
5.28,0.0,0.0,1.25,0.5,0.0,0.0,0.0,0.0,0.0,0.25,0.75,0.0,0.0,-0.17,0.08,0.95,48.83,22.3,12.6,1.0,0.5,0.25,1.25,0.5,1.25,1.25,1.25,0.75,1.5,2.0,1.0,0.25,0.02,0.14,0.95,174.32,-4.3,-12.6
5.3,0.0,0.0,1.5,0.5,0.0,0.0,0.0,0.0,0.0,0.25,0.5,0.0,0.0,-0.17,0.08,0.95,47.63,24.7,24.6,1.25,0.5,0.25,1.25,0.25,1.25,1.25,1.25,0.75,1.75,1.75,1.0,0.25,0.02,0.14,0.95,172.83,-4.6,-12.1
5.32,0.0,0.0,1.5,0.5,0.0,0.0,0.0,0.0,0.0,0.25,0.75,0.0,0.0,-0.17,0.08,0.95,47.72,23.6,16.6,1.25,0.5,0.25,1.0,0.25,1.25,1.25,1.25,0.75,1.5,2.0,1.0,0.25,0.02,0.14,0.95,169.35,-4.8,-13.6
5.34,0.0,0.0,1.5,0.5,0.0,0.0,0.0,0.0,0.0,0.25,0.75,0.0,0.0,-0.17,0.08,0.95,48.02,23.6,16.6,1.25,0.5,0.25,1.0,0.5,1.25,1.25,1.25,0.75,1.5,2.0,0.75,0.25,0.02,0.14,0.95,169.82,-4.6,-9.9
5.36,0.0,0.0,1.25,0.5,0.0,0.0,0.0,0.25,0.0,0.25,0.75,0.0,0.0,-0.17,0.08,0.95,48.63,19.1,8.3,1.25,0.75,0.25,1.0,0.5,1.25,1.25,1.25,0.75,1.5,2.0,0.75,0.25,0.02,0.14,0.95,169.49,-4.7,-7.6
5.38,0.0,0.0,1.25,0.5,0.0,0.0,0.0,0.25,0.0,0.25,0.5,0.0,0.0,-0.17,0.08,0.95,47.8,19.8,15.6,1.0,0.5,0.25,1.25,0.25,1.25,1.25,1.25,0.75,1.75,2.0,0.75,0.5,0.02,0.14,0.95,168.87,-3.6,-15.6
5.4,0.0,0.0,1.25,0.5,0.0,0.0,0.0,0.0,0.0,0.0,0.5,0.0,0.25,-0.17,0.08,0.95,45.37,23.5,17.2,1.25,0.75,0.25,0.75,0.5,1.25,1.25,1.25,0.75,2.0,2.0,1.0,0.25,0.02,0.14,0.95,171.01,-3.7,-13.7
5.42,0.0,0.0,1.25,0.5,0.0,0.0,0.0,0.0,0.0,0.25,0.0,0.0,0.0,-0.17,0.08,0.95,40.82,26.3,43.6,1.25,0.5,0.25,1.25,0.5,1.25,1.25,1.25,0.5,1.5,2.0,1.0,0.5,0.02,0.14,0.95,173.45,-4.4,-12.0
5.44,0.0,0.0,1.25,0.5,0.0,0.0,0.0,0.0,0.0,0.25,0.5,0.0,0.0,-0.17,0.08,0.95,39.42,23.4,20.9,0.75,0.5,0.25,1.25,0.5,1.25,1.25,1.0,0.75,1.5,2.0,0.75,0.25,0.02,0.14,0.95,170.62,-4.1,-12.2
5.46,0.0,0.0,1.25,0.5,0.0,0.0,0.0,0.0,0.0,0.25,0.75,0.0,0.0,-0.17,0.08,0.95,40.08,22.3,12.6,1.0,0.5,0.25,1.25,0.5,1.25,1.25,1.25,0.75,1.0,2.0,0.75,0.25,0.02,0.14,0.95,168.09,-5.1,-7.7
5.48,0.0,0.0,1.0,0.5,0.0,0.0,0.0,0.25,0.0,0.25,0.75,0.0,0.0,-0.17,0.08,0.95,41.69,17.3,3.5,0.75,0.5,0.25,1.25,0.5,1.25,1.25,1.25,0.75,1.5,2.0,1.0,0.25,0.02,0.14,0.95,167.49,-3.7,-14.8
5.5,0.0,0.0,1.0,0.5,0.0,0.0,0.0,0.0,0.0,0.25,0.5,0.0,0.0,-0.17,0.08,0.95,40.81,21.7,16.4,1.25,0.5,0.25,1.25,0.5,1.25,1.25,1.25,0.75,1.0,2.0,1.0,0.25,0.02,0.14,0.95,167.66,-5.8,-7.7
5.52,0.0,0.0,1.0,0.5,0.0,0.0,0.0,0.0,0.0,0.25,0.75,0.0,0.0,-0.17,0.08,0.95,40.36,20.6,7.6,1.25,0.75,0.0,1.25,0.25,1.25,1.25,1.25,0.75,1.5,2.0,1.0,0.25,0.02,0.14,0.95,169.42,-4.6,-11.2
5.54,0.0,0.0,1.0,0.5,0.0,0.0,0.0,0.0,0.0,0.25,0.5,0.0,0.0,-0.17,0.08,0.95,38.18,21.7,16.4,1.25,0.75,0.5,1.25,0.5,1.25,1.0,1.25,0.75,1.5,2.0,1.0,0.25,0.02,0.14,0.95,174.73,-5.5,-7.2
5.56,0.0,0.0,1.0,0.5,0.0,0.0,0.0,0.0,0.0,0.25,0.5,0.0,0.0,-0.17,0.08,0.95,36.99,21.7,16.4,1.0,0.5,0.5,1.25,1.5,1.25,1.25,1.25,0.75,1.5,2.0,0.75,0.5,0.02,0.14,0.95,182.61,-3.9,-5.6
5.58,0.0,0.0,1.0,0.5,0.0,0.0,0.0,0.0,0.0,0.25,0.0,0.0,0.25,-0.17,0.08,0.95,35.22,19.8,22.3,1.0,0.75,0.25,1.25,0.25,1.25,1.25,1.25,0.75,1.75,2.0,0.75,0.25,0.02,0.14,0.95,182.02,-4.2,-11.1
5.6,0.0,0.0,1.0,0.5,0.0,0.0,0.0,0.0,0.0,0.25,0.5,0.0,0.0,-0.17,0.08,0.95,35.48,21.7,16.4,1.25,0.5,0.25,1.25,0.5,1.25,1.0,0.5,0.75,1.5,2.0,0.75,0.25,0.02,0.14,0.95,176.82,-6.0,-6.8
5.62,0.0,0.0,1.0,0.5,0.0,0.0,0.0,0.0,0.0,0.25,0.5,0.0,0.0,-0.17,0.08,0.95,35.7,21.7,16.4,1.25,0.5,1.0,1.25,1.25,1.25,1.0,1.25,0.75,1.5,2.0,1.0,0.5,0.02,0.14,0.95,183.3,-5.7,-4.8
