time,left pressure 0[N/cm²],left pressure 1[N/cm²],left pressure 2[N/cm²],left pressure 3[N/cm²],left pressure 4[N/cm²],left pressure 5[N/cm²],left pressure 6[N/cm²],left pressure 7[N/cm²],left pressure 8[N/cm²],left pressure 9[N/cm²],left pressure 10[N/cm²],left pressure 11[N/cm²],left pressure 12[N/cm²],left acceleration X[g],left acceleration Y[g],left acceleration Z[g],left total force[N],left center of pressure X[mm],left center of pressure Y[mm],right pressure 0[N/cm²],right pressure 1[N/cm²],right pressure 2[N/cm²],right pressure 3[N/cm²],right pressure 4[N/cm²],right pressure 5[N/cm²],right pressure 6[N/cm²],right pressure 7[N/cm²],right pressure 8[N/cm²],right pressure 9[N/cm²],right pressure 10[N/cm²],right pressure 11[N/cm²],right pressure 12[N/cm²],right acceleration X[g],right acceleration Y[g],right acceleration Z[g],right total force[N],right center of pressure X[mm],right center of pressure Y[mm]
0.02,8.25,0.0,10.0,7.75,0.0,0.0,6.5,0.0,0.0,0.25,0.0,0.0,0.0,-0.23,0.45,1.64,456.7,30.5,65.0,3.75,1.75,3.5,3.5,4.25,5.25,2.75,6.0,1.75,7.75,8.25,3.5,4.25,0.14,0.08,0.95,697.59,-2.0,-16.8
0.04,8.0,0.0,0.0,4.25,0.0,0.0,6.0,0.0,0.0,0.0,0.0,0.0,0.0,-0.36,0.7,2.2,393.9,29.1,72.1,3.0,2.5,5.5,4.5,4.75,6.0,3.75,5.25,1.5,6.5,7.75,2.75,3.0,0.14,0.08,0.95,842.23,-4.1,-4.9
0.06,6.5,0.0,7.0,4.0,0.0,0.0,5.0,0.0,0.0,0.0,0.0,0.0,0.0,-0.48,0.89,2.58,346.98,32.1,67.5,5.0,2.5,5.75,5.0,4.75,6.0,5.25,5.25,0.5,3.5,5.0,1.0,1.5,0.14,0.08,0.95,920.31,-7.1,16.4
0.08,0.0,0.0,5.25,0.5,0.0,0.0,3.5,0.0,0.0,0.0,0.0,0.0,0.0,-0.3,0.77,2.64,252.0,35.5,53.3,4.5,1.75,7.0,5.25,6.0,6.0,5.75,5.25,0.25,1.5,3.25,0.5,0.25,0.14,0.08,0.95,919.42,-8.9,29.8
0.1,0.0,0.0,4.0,2.0,0.0,0.0,1.25,0.0,0.0,0.0,0.5,0.0,0.0,-0.55,0.27,2.64,182.3,29.9,48.2,5.5,1.5,7.5,6.25,6.5,7.0,6.5,4.25,0.75,2.5,2.0,0.5,0.25,0.14,0.08,0.95,907.36,-9.3,33.2
0.12,0.0,0.0,2.75,0.0,0.0,0.0,0.0,0.0,0.0,0.0,0.0,0.0,0.0,-0.48,-0.92,1.64,87.88,38.2,60.9,5.5,2.5,8.75,8.0,8.0,6.75,6.5,4.5,0.75,1.75,2.0,0.75,1.25,0.14,0.14,1.02,934.62,-9.8,34.4
0.14,0.0,0.0,0.0,0.0,0.0,0.0,0.0,0.0,0.0,0.0,0.0,0.0,0.0,-0.67,-0.98,0.7,15.83,0.0,0.0,5.75,2.0,8.25,6.75,8.0,6.0,6.0,4.25,0.0,1.25,1.5,0.0,0.25,0.14,0.14,1.02,917.14,-10.7,42.2
0.16,0.0,0.0,0.0,0.25,0.0,0.0,0.5,0.0,0.0,0.0,0.0,0.0,0.0,-0.17,-1.11,2.02,0.0,24.4,43.3,5.0,1.75,8.0,6.5,7.25,6.0,5.5,3.75,0.0,0.75,0.75,0.0,0.25,0.08,0.14,0.95,860.39,-10.8,44.8
0.18,0.0,0.0,0.0,0.0,0.0,0.0,4.25,0.0,2.75,0.0,0.0,0.0,0.0,-0.05,-0.73,0.83,0.0,20.8,-10.3,5.0,1.75,8.0,6.75,7.25,6.0,5.5,3.75,0.0,0.0,1.25,0.0,0.0,0.08,0.14,0.95,790.8,-11.5,46.6
0.2,0.0,0.0,2.5,0.5,0.0,0.0,0.5,0.0,0.0,0.0,0.0,0.0,0.0,-0.36,-0.42,0.39,0.0,34.5,58.1,5.5,1.5,8.75,6.75,7.5,4.0,4.5,2.75,0.0,0.0,0.75,0.0,0.0,0.08,0.2,0.89,718.79,-14.2,51.5
0.22,0.0,0.0,0.0,0.5,0.0,0.0,0.0,0.0,0.0,0.0,0.0,0.0,0.0,-0.36,-0.42,0.58,0.0,17.2,57.9,5.25,1.75,7.75,6.75,7.25,4.25,4.75,2.0,0.0,0.0,0.25,0.0,0.0,0.08,0.2,0.89,648.46,-14.0,54.4
0.24,0.0,0.0,2.5,0.25,0.0,0.0,0.5,0.0,0.0,0.0,0.25,0.0,0.0,-0.11,-0.36,0.83,0.0,34.2,48.3,5.25,1.5,7.75,7.0,7.25,3.25,2.75,1.25,0.0,0.0,0.0,0.0,0.0,0.02,0.2,0.89,581.66,-15.2,58.2
0.26,0.0,0.0,1.5,0.25,0.0,0.0,0.25,0.0,0.0,0.0,0.0,0.0,0.0,0.08,-0.3,1.08,0.0,35.0,58.4,5.75,1.5,8.75,8.25,7.25,4.5,3.75,1.25,0.0,0.0,0.25,0.0,0.0,0.02,0.27,0.89,566.66,-15.2,56.9
0.28,0.0,0.0,1.5,0.25,0.0,0.0,0.25,0.0,0.0,0.0,0.25,0.0,0.0,0.08,-0.11,1.14,3.38,32.3,43.5,6.5,2.0,8.75,8.25,7.75,4.5,4.25,1.25,0.0,0.0,0.0,0.0,0.25,0.02,0.27,0.89,585.71,-15.1,57.6
0.3,0.0,0.0,1.75,0.5,0.0,0.0,0.0,0.0,0.0,0.0,0.0,0.0,0.0,0.08,0.2,1.33,11.64,33.5,60.3,6.25,1.5,9.25,9.0,8.0,4.75,4.75,1.0,0.0,0.0,0.25,0.0,0.0,0.02,0.27,0.89,625.97,-15.5,57.4
0.32,0.0,0.0,1.75,0.75,0.0,0.0,0.0,0.0,0.0,0.0,0.0,0.0,0.0,0.08,0.33,1.52,33.42,31.8,60.0,6.5,2.0,9.25,9.75,8.0,4.75,5.5,1.0,0.0,0.0,0.25,0.0,0.25,0.02,0.27,0.89,669.58,-15.5,56.9
0.34,0.0,0.0,1.75,0.5,0.0,0.0,0.25,0.0,0.0,0.0,0.25,0.0,0.0,0.02,0.52,1.64,39.54,31.4,46.6,7.25,2.25,9.5,10.0,8.25,4.0,5.5,1.0,0.0,0.25,0.25,0.0,0.0,0.02,0.27,0.95,708.25,-16.4,58.3
0.36,0.0,0.0,2.25,0.5,0.0,0.0,0.0,0.0,0.0,0.0,0.0,0.0,0.0,-0.05,0.64,2.39,48.09,34.4,60.4,7.25,2.5,10.5,11.5,8.5,4.0,6.0,1.0,0.0,0.0,0.0,0.0,0.0,0.02,0.27,0.95,760.34,-17.0,59.7
0.38,0.0,0.0,2.25,0.5,0.0,0.0,0.25,0.0,0.0,0.0,0.0,0.0,0.0,-0.17,0.83,2.83,52.43,34.3,59.0,7.75,2.25,11.0,11.5,8.75,5.0,6.75,1.0,0.0,0.0,0.25,0.25,0.0,0.02,0.33,1.02,831.35,-16.6,57.7
0.4,0.0,0.0,2.5,0.5,0.0,0.0,0.25,0.0,0.0,0.0,0.25,0.0,0.0,-0.36,1.33,2.89,54.67,32.9,49.8,8.25,2.5,11.5,11.5,8.75,4.5,7.0,1.0,0.0,0.0,0.0,0.0,0.0,0.02,0.33,1.02,891.82,-17.4,59.9
0.42,0.0,0.0,1.5,0.5,0.0,0.0,0.0,0.0,0.0,0.0,0.25,0.0,0.0,-0.36,1.89,2.2,49.45,30.6,45.9,8.75,2.25,11.5,11.5,8.25,2.75,7.0,1.0,0.0,0.0,0.0,0.0,0.0,0.02,0.33,1.08,914.75,-19.1,60.9
0.44,0.0,0.0,1.5,0.5,0.0,0.0,0.0,0.0,0.0,0.0,0.25,0.0,0.0,0.08,2.33,1.45,48.06,30.6,45.9,9.0,2.5,12.5,11.5,8.25,2.0,7.25,0.5,0.0,0.5,0.0,0.0,0.0,0.02,0.33,1.08,929.57,-20.2,61.2
0.46,0.0,0.0,2.25,0.5,0.0,0.0,0.0,0.0,0.0,0.0,0.25,0.0,0.0,0.45,2.64,0.89,49.39,32.5,49.7,8.75,2.5,12.5,11.5,7.75,1.5,7.25,0.0,0.0,0.0,0.0,0.0,0.0,0.02,0.39,1.14,912.88,-21.5,63.8
0.48,0.0,0.0,1.5,0.5,0.0,0.0,0.0,0.0,0.0,0.0,0.25,0.0,0.0,0.7,3.2,0.14,44.72,30.6,45.9,8.5,1.75,11.5,11.0,6.5,1.0,7.25,0.0,0.0,0.0,0.0,0.0,0.0,0.08,0.45,1.33,858.29,-22.6,63.8
0.5,0.0,0.0,1.5,0.5,0.0,0.0,0.0,0.0,0.0,0.0,0.0,0.0,0.0,0.83,3.2,-0.11,42.69,32.9,60.2,8.5,2.0,11.5,7.0,6.5,0.5,7.25,1.0,0.5,1.0,1.5,0.75,0.25,0.2,0.7,1.64,798.6,-20.8,50.1
0.52,0.0,0.0,1.5,0.5,0.0,0.0,0.25,0.0,0.0,0.0,0.0,0.0,0.0,0.14,4.64,0.02,39.65,32.9,58.4,8.5,1.75,8.75,4.75,4.5,0.0,7.0,1.25,0.0,0.25,1.0,0.25,0.5,0.2,0.95,1.89,684.21,-22.6,54.6
0.54,0.0,0.0,2.5,0.5,0.0,0.0,0.0,0.0,0.0,0.0,0.25,0.0,0.25,-0.11,0.45,1.14,45.48,29.6,39.1,6.75,1.25,7.0,4.75,1.0,0.25,5.5,0.0,0.0,0.0,0.0,0.0,0.0,0.33,0.95,2.02,521.27,-28.3,67.8
0.56,0.0,0.0,2.5,0.5,0.0,0.0,0.0,0.0,0.0,1.0,1.25,1.75,1.5,-0.55,0.14,1.08,75.95,11.5,-39.6,5.5,0.5,5.5,2.0,0.5,0.0,3.25,0.0,0.0,0.0,0.0,0.25,0.0,0.14,0.83,2.27,351.16,-31.0,67.5
0.58,0.0,0.0,0.0,0.25,0.0,0.0,0.0,0.0,0.0,4.0,3.25,3.75,2.75,0.08,0.27,2.08,139.94,-2.1,-89.1,3.75,1.5,4.75,2.0,2.5,0.0,2.0,0.5,0.0,0.0,1.0,0.0,0.25,0.58,0.14,1.95,258.1,-21.8,55.4
0.6,0.0,0.0,1.25,0.5,0.0,0.0,0.0,0.0,0.25,5.5,5.25,4.0,5.0,-0.42,0.33,1.83,226.56,-0.2,-78.2,1.25,0.0,3.0,0.25,0.0,0.0,0.0,0.0,0.0,0.0,0.0,0.0,0.0,0.33,-0.42,0.52,133.52,-36.2,70.3
0.62,0.0,0.0,2.0,0.5,0.0,0.0,0.25,0.0,0.75,6.0,5.75,4.0,4.0,-0.42,0.33,1.83,291.51,1.9,-70.6,1.25,0.25,2.75,0.25,0.0,0.0,0.0,0.0,0.0,0.0,0.0,0.0,0.0,0.77,-0.67,1.33,38.25,-34.7,72.5
0.64,0.0,0.0,2.5,0.5,0.0,0.0,0.0,2.5,0.5,6.0,6.5,2.75,4.5,-0.17,0.14,1.14,355.01,0.2,-64.7,1.25,0.25,3.0,0.0,0.0,0.0,0.0,0.0,0.0,0.0,0.0,0.0,0.0,0.45,-0.42,1.2,0.0,-35.9,72.7
0.66,0.0,0.0,0.0,0.25,0.0,0.0,0.0,2.75,0.0,0.0,6.5,0.0,4.75,-0.11,0.14,1.02,339.46,-2.8,-77.7,1.25,0.25,2.75,0.0,0.0,0.25,0.0,0.0,0.0,0.0,0.0,0.0,0.0,0.33,-0.3,0.39,0.0,-32.7,71.3
0.68,0.0,0.0,0.0,0.25,0.0,0.0,0.0,2.5,1.5,6.75,6.25,3.0,3.5,-0.11,0.08,0.95,356.14,-3.5,-77.4,1.25,0.0,2.75,0.0,0.0,0.5,0.0,0.0,0.0,0.0,0.0,0.0,0.0,0.33,-0.23,0.45,0.0,-30.9,67.7
0.7,0.0,0.0,0.0,0.5,0.0,0.0,0.5,4.25,0.75,6.75,7.0,3.0,4.75,-0.11,0.08,0.95,376.11,-4.3,-75.2,1.0,0.0,2.75,0.0,0.0,0.0,0.0,0.0,0.0,0.0,0.0,0.0,0.0,0.2,-0.23,0.7,0.0,-37.4,70.1
0.72,0.0,0.0,0.0,2.0,0.0,0.75,0.5,4.25,1.0,6.0,6.25,2.75,3.75,-0.17,0.08,0.95,406.17,-3.3,-62.6,1.25,0.25,2.75,0.0,0.0,0.0,0.0,0.0,0.0,0.0,0.0,0.0,0.0,0.08,-0.23,0.7,0.0,-35.8,73.4
0.74,0.0,0.25,0.0,1.5,0.0,1.25,0.5,4.25,0.75,6.0,5.75,2.0,3.5,-0.17,0.08,0.95,412.8,-4.6,-59.7,1.25,0.5,2.75,0.0,0.0,0.0,0.0,0.0,0.0,0.0,0.0,0.0,0.0,0.08,-0.17,0.64,0.0,-34.5,74.8
0.76,0.0,0.25,0.0,1.0,0.0,1.5,0.5,4.25,0.75,4.75,5.0,1.75,2.5,-0.17,0.08,0.95,389.58,-4.9,-57.2,1.25,0.25,2.75,0.0,0.0,0.0,0.0,0.0,0.0,0.0,0.0,0.0,0.0,0.02,-0.05,0.89,11.79,-35.8,73.4
0.78,0.0,0.5,1.5,1.75,0.0,2.25,0.5,4.25,0.5,4.0,4.5,1.25,2.25,-0.11,0.08,0.95,355.57,-1.9,-38.2,1.25,0.5,2.5,0.25,0.0,0.0,0.0,0.0,0.0,0.0,0.0,0.0,0.0,-0.05,0.02,1.08,38.27,-33.2,74.6
0.8,0.0,0.75,0.0,1.25,0.0,2.75,0.5,4.5,0.0,3.5,3.0,0.75,1.5,-0.11,0.14,0.95,299.74,-7.3,-36.5,1.25,0.5,2.75,0.0,0.0,0.0,0.0,0.0,0.0,0.0,0.0,0.0,0.0,-0.05,0.14,1.33,55.53,-34.5,74.8
0.82,0.0,0.5,0.0,1.25,0.0,3.75,0.5,4.75,0.25,3.25,3.0,0.75,1.0,-0.11,0.14,0.95,269.47,-7.9,-32.3,1.25,0.5,2.75,0.0,0.0,0.0,0.0,0.0,0.0,0.0,0.0,0.0,0.0,-0.05,0.33,1.64,65.84,-34.5,74.8
0.84,0.0,1.0,0.0,2.5,0.75,4.25,0.5,4.75,0.75,3.0,3.0,0.75,1.0,-0.11,0.14,0.95,258.51,-5.5,-18.6,1.25,0.5,2.5,0.0,0.0,0.0,0.0,0.0,0.0,0.0,0.0,0.0,0.0,-0.11,0.39,1.77,77.5,-34.2,75.7
0.86,0.0,1.0,0.0,2.5,0.75,4.5,0.5,4.75,0.75,3.25,2.75,0.75,1.0,-0.11,0.14,0.95,262.84,-6.0,-18.1,1.25,0.5,2.75,0.0,0.0,0.0,0.0,0.0,0.0,0.0,0.0,0.0,0.0,-0.42,0.64,2.14,78.2,-34.5,74.8
0.88,0.0,1.0,0.0,2.5,1.75,5.0,0.5,5.0,0.75,3.0,2.75,0.75,1.0,-0.11,0.14,0.95,276.74,-6.2,-13.2,1.25,0.75,2.5,0.0,0.0,0.0,0.0,0.0,0.0,0.0,0.0,0.0,0.0,-0.55,0.95,2.27,78.62,-33.0,77.0
0.9,0.0,1.0,1.5,2.5,2.25,5.0,0.5,5.0,0.75,2.5,2.75,0.75,1.0,-0.11,0.14,0.95,296.48,-3.3,-5.9,1.0,0.5,2.5,0.0,0.0,0.0,0.0,0.0,0.0,0.0,0.0,0.0,0.0,-0.61,1.27,2.2,76.54,-34.2,74.4
0.92,0.75,1.25,0.0,2.5,2.5,5.0,0.5,5.0,0.75,1.75,2.75,0.75,1.0,-0.11,0.14,0.95,301.68,-4.3,-3.2,1.25,0.75,2.0,0.0,0.0,0.0,0.0,0.0,0.0,0.0,0.0,0.0,0.0,-1.05,1.33,1.89,74.42,-32.3,79.1
0.94,0.0,1.0,0.0,3.0,3.5,5.0,1.0,4.75,0.75,1.75,2.25,0.75,1.0,-0.11,0.14,0.95,310.69,-4.9,-1.1,1.25,0.5,1.75,0.0,0.0,0.0,0.0,0.0,0.0,0.0,0.0,0.0,0.0,-1.67,1.08,1.33,69.28,-33.3,78.9
0.96,0.0,1.0,2.5,4.5,4.25,5.0,1.25,4.25,1.0,1.5,2.0,0.5,0.75,-0.11,0.14,0.95,340.03,0.6,13.0,1.5,0.75,1.75,0.0,0.0,0.0,0.0,0.0,0.0,0.0,0.0,0.0,0.0,-1.61,1.83,0.2,67.48,-32.1,81.3
0.98,0.0,1.25,4.25,6.25,6.0,5.0,2.0,4.25,0.75,1.5,1.5,0.0,0.25,-0.11,0.14,0.95,391.06,3.7,26.8,1.0,0.75,1.75,0.0,0.0,0.0,0.0,0.0,0.0,0.0,0.0,0.0,0.0,-1.67,2.2,0.2,63.9,-31.7,79.1
1.0,0.0,1.25,5.5,7.25,6.25,5.0,2.75,3.0,0.5,0.75,1.25,0.0,0.25,-0.11,0.14,1.02,449.59,6.7,35.3,1.0,0.5,1.75,1.0,0.0,0.0,0.0,0.0,0.0,0.0,0.0,0.0,0.0,-2.42,2.83,2.52,67.13,-29.3,72.8
1.02,4.5,1.25,0.0,8.0,6.25,5.0,3.25,2.5,0.5,1.0,1.25,0.0,0.0,-0.11,0.14,1.08,491.19,5.7,40.8,0.5,0.75,1.5,0.0,0.0,0.0,0.0,0.0,0.0,0.5,0.0,0.5,0.0,-1.42,1.77,0.95,64.85,-21.6,32.8
1.04,4.5,1.5,0.0,9.0,0.0,5.0,3.5,2.5,0.5,0.5,1.25,0.0,0.0,-0.11,0.14,1.08,474.01,9.2,40.8,0.75,0.75,1.25,0.0,0.0,0.0,0.0,0.5,0.0,3.0,1.75,1.75,0.25,0.08,-0.11,1.14,94.27,-5.8,-37.1
1.06,6.0,1.5,0.0,8.0,0.0,4.75,4.25,2.5,0.25,0.0,1.25,0.0,0.0,-0.11,0.2,1.08,439.0,11.4,46.0,0.75,0.25,1.75,0.0,0.0,0.0,0.0,1.0,0.0,6.5,3.25,2.75,2.0,-0.17,0.27,2.64,163.3,-0.4,-59.8
1.08,5.25,1.25,7.5,8.25,0.0,4.5,1.0,0.0,0.0,0.25,0.0,0.0,0.0,-0.17,0.2,1.08,414.08,19.8,62.3,0.75,0.75,1.5,0.0,0.0,0.0,0.0,2.5,0.5,6.5,5.25,2.75,2.5,0.33,0.52,2.77,241.69,0.0,-58.2
1.1,0.0,1.25,7.5,8.5,0.0,3.0,3.75,0.75,1.0,0.0,0.0,0.0,0.0,-0.17,0.27,1.02,386.75,18.8,49.1,1.25,0.5,1.5,0.0,0.0,0.0,0.0,4.0,0.25,7.0,6.5,2.75,2.25,-0.17,0.2,0.95,308.83,0.2,-56.7
1.12,5.25,1.25,8.5,8.0,0.0,0.0,4.25,0.75,0.0,0.0,0.25,0.0,0.0,-0.17,0.27,1.14,381.24,27.4,62.0,2.0,0.0,2.25,0.0,0.0,1.5,0.5,4.25,0.75,7.25,6.0,2.75,2.5,0.08,0.08,0.95,376.96,-0.1,-47.4
1.14,4.5,0.5,8.0,7.25,0.0,0.0,3.5,0.75,0.0,0.0,0.25,0.0,0.0,-0.36,0.27,1.77,361.28,27.7,60.4,2.5,1.0,1.75,0.5,0.0,2.0,0.5,5.25,0.75,6.5,6.0,2.75,2.25,0.08,0.14,0.95,429.77,-0.3,-37.6
1.16,5.75,0.75,7.25,4.5,0.0,0.0,3.0,0.75,0.0,0.0,0.75,0.0,0.0,-0.23,0.27,2.08,337.4,28.5,60.5,3.75,0.75,3.75,1.0,0.0,2.5,1.5,5.25,1.0,6.5,6.0,2.5,2.25,0.08,0.08,0.95,482.3,-3.9,-24.8
1.18,5.25,0.0,6.0,3.25,0.0,0.0,2.25,0.75,0.25,0.0,0.5,0.0,0.0,-0.23,0.64,2.58,291.11,29.1,59.1,5.25,1.75,5.0,2.25,0.5,4.5,3.25,5.25,1.0,7.0,6.75,2.75,3.25,0.08,0.08,0.95,586.25,-5.3,-13.0
1.2,3.0,0.0,4.5,0.5,0.0,0.0,1.25,0.0,0.0,0.0,0.0,0.0,0.25,-0.42,0.64,2.33,225.17,34.0,65.2,5.25,1.75,6.75,3.0,4.25,4.5,5.0,6.0,1.0,6.75,6.5,2.75,3.0,0.08,0.08,0.95,731.43,-6.1,-2.9
1.22,0.0,0.0,0.0,0.0,0.0,0.0,0.0,0.0,0.5,0.0,0.0,0.0,0.0,-0.23,0.45,2.27,117.88,12.1,-38.5,5.5,2.0,7.0,3.25,4.25,4.75,5.5,6.0,1.0,6.5,6.0,2.5,2.25,0.08,0.08,0.95,857.96,-6.8,1.9
1.24,0.0,0.0,0.0,0.0,0.0,0.0,0.0,0.0,2.25,0.0,0.0,0.0,0.0,-0.36,-0.73,1.77,31.68,12.2,-38.5,5.25,1.75,7.25,3.25,4.25,4.75,6.25,5.5,1.0,5.75,5.5,2.25,2.25,0.08,0.08,0.95,926.41,-7.5,4.2
1.26,0.0,0.0,0.0,0.0,0.0,0.0,4.0,0.0,0.0,0.0,0.0,0.0,0.0,-0.36,-1.3,0.2,0.0,32.4,27.3,5.75,1.75,7.75,4.5,4.25,4.5,6.5,5.25,1.0,4.5,4.75,1.75,1.25,0.08,0.08,0.95,937.57,-9.6,13.7
1.28,0.0,0.0,0.0,0.25,0.0,0.0,0.0,0.0,1.25,0.0,0.0,0.0,0.0,-0.61,-0.8,1.95,0.0,13.0,-21.6,5.75,1.75,8.0,3.5,4.25,4.5,7.25,5.25,1.0,4.5,4.25,1.25,1.25,0.08,0.08,0.95,902.55,-9.7,15.3
1.3,0.0,0.0,0.0,0.5,0.0,0.0,4.0,0.0,0.0,0.0,0.5,0.0,0.0,-0.23,-0.67,0.7,0.0,26.1,15.8,6.25,1.75,8.25,4.5,4.25,4.75,7.5,5.25,1.0,3.75,4.25,1.25,1.25,0.08,0.08,0.95,875.5,-10.5,18.6
1.32,0.0,0.0,0.0,0.0,0.0,0.0,3.5,0.0,2.5,0.0,0.5,0.0,0.0,-0.55,-0.55,0.64,0.0,19.3,-18.5,6.25,1.75,8.75,4.5,4.25,4.75,7.75,5.25,0.75,3.5,4.0,1.25,1.25,0.08,0.14,0.95,860.83,-11.0,20.3
1.34,0.0,0.0,1.75,1.25,0.0,0.0,0.0,0.0,0.0,0.0,1.0,0.0,0.0,-0.67,-0.55,0.7,0.0,24.9,27.6,6.25,1.75,8.75,5.0,4.25,4.75,8.0,5.25,0.5,3.25,3.5,1.25,1.25,0.08,0.14,0.95,850.99,-11.2,22.4
1.36,0.0,0.0,0.5,0.25,0.0,0.0,0.0,0.0,0.0,0.0,0.0,0.0,0.0,-0.8,-0.36,0.89,0.0,31.1,59.9,6.25,2.0,9.0,5.0,4.25,5.5,8.0,5.25,1.0,3.25,3.75,1.0,0.75,0.08,0.08,0.95,845.35,-11.2,24.0
1.38,0.0,0.0,0.0,0.0,0.0,0.0,4.0,0.0,1.25,0.0,0.75,0.0,0.0,-0.92,-0.23,1.02,0.52,21.9,-12.8,6.5,1.75,9.25,5.25,4.25,5.25,8.25,5.25,1.0,3.25,3.25,1.0,1.0,0.08,0.08,0.95,838.28,-11.5,24.6
1.4,0.0,0.0,0.0,0.25,0.0,0.0,4.0,0.0,0.0,0.0,0.5,0.0,0.0,-0.98,0.02,1.14,10.22,26.9,11.6,6.25,2.0,9.25,5.5,4.5,5.5,8.5,5.25,1.0,2.75,3.25,1.25,0.75,0.08,0.08,0.95,829.67,-11.6,26.0
1.42,0.0,0.0,0.0,0.25,0.0,0.0,0.25,0.0,0.0,0.0,0.75,0.0,0.0,-1.23,0.33,1.08,17.93,14.6,-32.8,6.5,2.0,9.25,6.0,4.75,5.75,8.5,5.25,1.25,3.25,3.25,1.25,1.0,0.08,0.14,0.95,833.52,-11.2,24.9
1.44,0.0,0.0,0.0,0.5,0.0,0.0,0.0,0.0,0.0,0.0,0.5,0.0,0.0,-1.48,0.52,1.27,21.94,14.1,-6.1,6.25,1.25,9.25,6.25,4.75,5.75,8.75,5.25,1.0,2.75,3.25,1.25,1.25,0.08,0.08,0.95,837.88,-11.3,24.3
1.46,0.0,0.0,0.0,0.25,0.0,0.0,0.0,0.0,0.0,0.0,0.25,0.0,0.0,-1.67,0.58,1.33,19.25,14.1,-6.1,6.5,2.0,9.25,6.5,4.75,6.25,8.75,5.25,0.75,3.0,3.25,1.0,1.25,0.08,0.08,0.95,860.07,-11.0,26.3
1.48,0.0,0.0,0.0,0.5,0.0,0.0,0.0,0.0,0.0,0.0,0.75,0.0,0.0,-1.86,0.83,1.27,12.67,13.4,-19.5,6.25,2.0,9.25,6.5,5.75,6.75,8.75,5.25,0.75,1.75,3.25,1.0,1.25,0.08,0.14,0.95,877.5,-10.9,29.0
1.5,0.0,0.0,0.5,0.5,0.0,0.0,0.0,0.0,0.0,0.0,0.5,0.0,0.0,-1.98,0.95,1.33,12.79,22.2,16.5,6.25,2.0,9.25,7.25,6.5,7.25,8.75,5.25,0.75,1.75,3.25,1.0,1.0,0.08,0.14,0.95,906.43,-10.6,30.5
1.52,0.0,0.0,0.75,0.5,0.0,0.0,0.0,0.0,0.0,0.0,0.75,0.0,0.0,-1.92,1.08,1.27,19.09,22.9,11.1,6.25,2.0,9.25,6.75,6.5,7.75,8.5,6.0,0.25,2.5,2.75,1.0,1.25,0.08,0.14,0.95,929.23,-9.4,28.8
1.54,0.0,0.0,0.5,0.25,0.0,0.0,0.0,0.0,0.0,0.0,0.0,0.0,0.0,-1.8,1.27,0.89,15.87,31.1,59.9,6.25,2.0,9.0,6.75,6.75,7.75,8.25,6.0,0.5,1.75,3.25,0.5,1.25,0.08,0.14,0.95,942.85,-9.5,30.2
1.56,0.0,0.0,0.5,0.5,0.0,0.0,0.0,0.0,0.0,0.0,0.5,0.0,0.0,-1.8,1.33,0.64,17.53,22.2,16.5,5.75,2.0,8.75,6.5,6.5,8.0,8.0,6.0,0.0,1.5,2.25,0.75,0.75,0.14,0.14,0.95,926.13,-9.3,33.0
1.58,0.0,0.0,0.75,0.5,0.0,0.0,0.0,0.0,0.0,0.0,0.5,0.0,0.0,-1.67,1.39,0.58,20.74,24.6,22.9,5.75,2.0,8.5,6.25,6.5,8.0,7.25,5.25,0.5,1.5,2.25,1.0,0.5,0.14,0.14,0.95,896.19,-9.5,33.1
1.6,0.0,0.0,0.75,0.5,0.0,0.0,0.0,0.0,0.0,0.0,0.5,0.0,0.0,-1.05,1.7,0.7,25.73,24.6,22.9,5.0,1.0,8.0,4.5,6.5,7.5,7.0,5.25,0.25,0.75,2.0,0.5,0.25,0.33,0.27,1.02,817.46,-9.2,34.5
1.62,0.0,0.0,1.5,0.75,0.0,0.0,0.0,0.0,0.0,0.0,0.5,0.0,0.0,-2.73,2.39,0.27,32.92,27.6,36.6,3.75,1.0,7.25,4.5,4.75,7.5,6.0,4.25,0.25,0.0,0.75,0.0,0.0,0.39,0.27,1.02,700.37,-9.4,41.6
1.64,0.0,0.0,0.0,2.0,0.0,0.0,0.25,0.0,0.0,0.0,0.25,0.0,0.0,-1.17,2.95,0.27,40.65,17.3,43.2,3.75,0.0,5.75,2.75,4.25,6.0,3.0,4.0,0.0,0.0,0.25,0.0,0.0,0.33,0.27,1.02,546.03,-8.2,41.7
1.66,0.0,0.0,1.5,0.5,0.0,0.0,0.5,0.0,3.75,0.0,0.25,0.0,0.0,-1.42,0.89,-0.23,65.13,19.7,-4.7,3.5,0.0,4.0,2.0,1.25,4.5,2.25,4.0,0.0,0.0,0.0,0.0,0.0,0.52,0.33,1.02,385.5,-8.5,38.9
1.68,0.0,0.0,1.5,0.0,0.0,0.0,0.0,0.0,0.0,0.0,0.0,0.0,0.0,-0.11,-0.05,1.33,59.49,38.2,60.9,2.5,0.25,4.5,0.75,1.25,3.25,1.0,2.5,0.0,0.0,0.0,0.0,0.0,0.7,0.39,1.08,271.66,-11.2,43.8
1.7,0.0,0.0,0.0,0.0,0.0,4.25,2.5,0.0,0.0,0.0,0.0,0.0,0.0,-0.23,0.27,0.83,73.95,-10.1,32.5,2.25,0.25,4.0,0.0,0.0,1.25,0.5,2.5,0.0,0.0,0.25,0.0,0.0,0.83,0.39,0.95,172.72,-16.5,38.9
1.72,0.0,0.0,0.0,0.5,0.0,3.0,0.75,1.5,0.0,1.0,0.5,0.0,0.0,-0.11,0.2,0.95,84.9,-11.9,-5.0,1.5,0.0,3.0,0.0,0.0,2.0,0.0,2.5,0.0,0.0,0.75,0.0,0.0,0.52,0.45,1.02,92.74,-9.3,24.8
1.74,0.0,1.0,0.0,2.5,0.75,4.5,0.75,4.5,0.75,3.25,2.25,0.75,1.0,-0.11,0.08,1.02,169.8,-6.1,-16.3,1.0,0.25,2.5,0.0,0.0,1.75,0.75,2.5,0.0,0.0,0.25,0.0,0.0,0.33,0.39,0.89,34.51,-8.0,26.4
1.76,0.0,0.75,0.0,2.0,0.0,3.75,0.5,5.0,0.75,3.5,3.0,0.75,1.0,-0.17,0.08,0.95,228.9,-6.4,-28.0,1.25,0.25,2.75,0.0,0.0,0.25,0.0,2.0,0.0,0.0,0.0,0.0,0.0,0.27,0.08,0.77,0.0,-17.4,37.4
1.78,0.0,0.5,0.0,1.0,0.0,3.0,0.0,5.5,0.75,4.75,3.0,1.25,2.0,-0.17,0.08,0.95,284.19,-8.5,-45.1,1.25,0.25,2.75,0.0,0.0,1.0,0.0,1.5,0.0,0.5,0.5,0.0,0.0,0.52,0.27,0.7,0.0,-13.4,27.6
1.8,0.0,0.0,1.25,1.0,0.0,2.75,0.25,5.75,0.75,4.75,3.5,1.75,2.25,-0.17,0.08,0.95,320.91,-5.4,-45.5,1.25,0.0,2.75,0.0,0.0,0.0,0.5,1.5,0.0,0.0,0.0,0.0,0.0,0.2,0.39,0.64,0.0,-22.9,41.0
1.82,0.0,0.0,0.0,0.75,0.0,2.75,0.0,5.25,0.5,4.75,3.5,1.75,2.25,-0.17,0.08,0.95,339.02,-8.5,-53.8,1.25,0.75,2.75,0.0,0.0,2.0,0.5,1.0,0.0,0.5,0.25,0.75,0.0,0.14,0.52,0.58,14.25,-11.5,27.4
1.84,0.0,0.0,0.0,1.0,0.0,2.25,0.25,5.25,0.75,4.75,3.0,2.0,2.5,-0.17,0.08,0.95,342.22,-7.7,-54.6,2.25,1.5,3.0,1.75,0.5,2.0,0.75,2.25,0.25,1.0,2.0,0.75,0.25,0.14,0.45,0.64,94.26,-10.2,18.4
1.86,0.0,0.0,0.0,1.75,0.0,2.0,0.25,5.0,0.0,4.75,3.25,2.0,2.5,-0.17,0.08,0.95,338.55,-7.0,-52.4,2.25,1.5,3.5,1.5,1.0,1.75,0.75,1.75,0.25,1.75,1.75,0.75,0.5,0.08,0.33,0.7,171.07,-10.2,17.2
1.88,0.0,0.0,2.25,1.5,0.0,2.0,0.25,5.0,0.75,4.75,3.75,2.0,2.5,-0.17,0.08,0.95,347.3,-2.0,-42.9,2.25,1.5,3.0,1.75,1.25,1.25,0.75,1.5,0.25,1.5,2.0,0.25,0.5,-0.05,0.27,0.95,224.0,-11.0,21.1
1.9,0.0,0.0,0.5,1.25,0.0,2.0,0.25,5.0,0.75,4.75,4.5,2.0,2.5,-0.11,0.08,0.95,346.95,-5.0,-53.2,2.25,1.5,3.25,1.75,0.25,1.5,0.75,1.75,0.5,0.25,1.25,0.75,0.5,-0.11,0.2,1.02,246.58,-13.6,25.6
1.92,0.0,0.25,0.0,1.5,0.0,2.0,0.25,5.25,0.75,5.0,4.0,2.0,2.5,-0.11,0.08,0.95,349.33,-6.1,-52.4,2.0,1.75,3.0,1.25,0.5,0.75,0.75,1.25,0.0,1.0,1.75,0.25,0.5,-0.17,0.14,1.02,247.45,-13.8,24.6
1.94,0.0,0.0,0.0,1.5,0.0,2.0,0.25,5.75,0.75,5.25,4.5,2.0,2.75,-0.17,0.08,0.95,346.89,-6.3,-55.0,2.0,1.5,3.0,1.5,0.5,1.0,0.5,1.25,0.25,1.0,1.75,0.75,0.25,-0.17,0.08,1.02,242.73,-13.4,20.8
1.96,0.0,0.5,0.75,1.75,0.0,2.75,0.25,5.75,1.0,6.0,4.5,2.0,3.25,-0.17,0.08,0.95,358.25,-5.2,-47.1,2.0,1.25,3.0,1.0,0.5,0.0,0.5,1.25,0.0,0.0,1.75,0.5,0.25,-0.11,0.08,1.02,225.44,-18.7,28.6
1.98,0.0,0.5,1.5,2.0,0.0,2.75,0.25,5.75,1.0,6.0,4.5,2.0,3.5,-0.17,0.08,0.95,370.07,-3.9,-43.9,1.25,1.0,3.25,0.0,0.5,0.0,0.75,1.25,0.0,0.5,0.25,0.0,0.0,0.02,0.02,0.95,197.96,-19.5,42.0
2.0,0.0,0.5,1.0,2.0,0.0,2.75,0.25,5.75,1.0,6.0,4.5,2.0,3.5,-0.17,0.08,0.95,387.75,-4.7,-45.8,1.25,1.25,2.75,0.25,0.25,0.5,0.75,1.25,0.25,1.5,0.75,0.5,0.5,0.08,-0.05,0.95,181.49,-11.7,11.7
2.02,0.0,0.75,0.5,2.25,0.0,3.0,0.5,6.0,0.25,6.0,4.5,2.0,3.5,-0.11,0.08,0.95,395.12,-5.6,-44.6,0.5,0.75,2.0,0.0,0.0,0.0,0.25,1.0,0.0,0.0,0.0,0.0,0.0,0.08,-0.11,0.95,136.5,-20.8,48.0
2.04,0.0,0.75,0.5,2.25,0.0,3.25,0.5,6.0,0.75,5.75,4.5,2.0,3.5,-0.11,0.08,0.95,398.68,-5.4,-43.6,0.5,0.75,2.5,0.0,0.0,0.0,0.25,0.75,0.0,0.0,0.0,0.0,0.0,0.14,-0.11,0.95,101.33,-24.7,54.1
2.06,0.0,1.0,1.0,2.5,0.5,3.25,0.5,6.0,1.0,5.75,4.25,2.0,3.25,-0.11,0.08,0.95,405.02,-4.2,-37.1,0.75,0.75,2.0,0.0,0.0,0.0,0.25,1.0,0.0,0.0,0.0,0.0,0.0,0.14,-0.11,0.95,65.0,-21.5,50.5
2.08,0.0,1.0,0.5,2.5,0.0,3.25,0.5,6.0,1.0,5.75,4.0,2.0,3.0,-0.17,0.08,0.95,401.29,-5.0,-39.7,1.25,1.0,1.75,0.0,0.25,0.0,0.5,1.25,0.0,0.0,0.75,0.75,0.0,0.14,-0.17,0.89,60.09,-16.9,22.4
2.1,0.0,0.5,0.25,2.5,0.0,3.0,0.5,5.75,0.75,6.0,4.0,2.0,3.5,-0.11,0.08,0.95,396.18,-5.8,-45.3,1.0,0.75,3.0,0.0,0.25,0.0,0.75,1.25,0.0,0.0,1.0,0.0,0.25,0.2,-0.23,0.89,70.68,-19.8,29.2
2.12,0.0,0.75,0.5,2.5,0.0,3.25,0.5,6.0,1.0,6.0,4.5,2.0,3.5,-0.11,0.08,0.95,395.59,-5.1,-43.0,1.25,1.0,1.75,0.0,0.0,0.0,0.5,1.0,0.0,0.25,0.0,0.0,0.0,0.2,-0.3,0.7,77.32,-20.0,50.1
2.14,0.0,1.0,0.75,2.5,0.0,3.0,0.5,6.0,1.0,6.0,4.5,2.0,3.5,-0.11,0.08,0.95,398.09,-4.5,-41.5,1.25,1.25,3.0,0.0,0.25,0.0,0.75,1.25,0.25,0.25,1.25,0.5,0.25,0.08,-0.23,0.77,101.58,-17.9,20.6
2.16,0.0,0.75,0.5,2.25,0.0,2.75,0.5,6.0,1.0,6.0,4.5,2.0,3.75,-0.11,0.14,0.95,398.1,-5.1,-45.7,1.25,1.5,3.0,0.25,0.25,0.0,0.5,1.25,0.5,1.0,1.75,0.75,0.25,0.14,-0.17,1.14,128.87,-15.0,9.2
2.18,0.0,0.5,1.0,1.75,0.0,2.5,0.25,6.0,1.0,6.5,4.75,2.75,4.25,-0.11,0.14,0.95,405.44,-4.8,-51.0,1.25,1.75,2.75,1.0,0.5,0.0,0.5,1.0,0.25,0.75,1.5,0.25,0.25,-0.05,-0.17,1.02,155.03,-15.8,25.2
2.2,0.0,0.0,2.25,1.0,0.0,2.0,0.0,6.0,1.0,6.75,5.0,3.0,4.75,-0.17,0.14,0.95,417.03,-3.7,-55.0,1.25,1.25,2.75,1.25,0.5,0.0,0.5,1.0,0.0,0.75,1.75,0.75,0.25,0.02,-0.11,1.08,174.81,-15.7,16.3
2.22,0.0,0.0,1.75,0.75,0.0,0.5,0.0,5.75,1.0,7.0,5.25,3.25,5.0,-0.17,0.14,0.95,424.88,-3.6,-63.5,1.25,1.75,3.0,0.0,0.25,0.0,0.75,1.25,0.0,0.0,2.0,0.0,0.25,1.08,0.27,4.58,179.95,-18.6,27.9
2.24,0.0,0.0,0.0,0.5,0.0,0.0,0.0,5.75,1.0,7.5,5.75,4.0,5.75,-0.17,0.14,1.02,435.64,-5.9,-76.2,1.0,1.0,3.5,0.0,0.25,0.0,0.5,1.0,0.0,0.0,0.25,0.0,0.0,0.14,0.27,1.02,164.94,-24.0,51.5
2.26,0.0,0.0,0.0,1.0,0.0,0.0,0.0,5.0,0.5,7.75,0.0,4.5,6.25,-0.17,0.08,0.89,411.62,-9.1,-76.8,0.75,0.75,1.75,0.0,0.0,0.0,0.5,0.5,0.0,0.0,0.0,0.0,0.0,0.02,0.08,1.02,134.43,-25.5,60.3
2.28,0.0,0.0,0.75,0.5,0.0,0.0,0.0,5.0,1.0,7.75,6.25,4.75,6.5,-0.11,0.08,0.89,430.89,-4.2,-75.4,1.25,0.75,1.25,0.0,0.0,0.0,0.5,1.0,0.0,0.0,0.75,0.0,0.0,0.02,0.14,0.95,107.78,-19.0,35.1
2.3,0.0,0.25,1.5,0.5,0.0,0.0,0.0,4.75,1.0,7.75,6.5,4.75,6.5,-0.17,0.08,0.95,451.01,-2.9,-71.2,1.25,0.75,2.0,0.0,0.0,0.0,0.5,1.0,0.0,0.25,1.25,0.25,0.0,0.02,0.14,0.95,96.18,-18.9,21.1
2.32,0.0,0.0,1.25,0.5,0.0,0.0,0.25,4.75,1.0,8.0,0.0,4.75,6.5,-0.23,0.08,0.95,442.9,-6.6,-72.6,1.25,0.75,3.25,0.0,1.0,0.0,1.25,1.5,0.0,1.25,1.25,0.25,0.0,0.02,0.08,0.95,116.57,-14.6,17.9
2.34,0.0,0.0,0.5,0.5,0.0,0.0,0.25,4.25,1.0,7.75,6.5,5.5,7.0,-0.17,0.14,1.02,461.35,-3.9,-78.2,1.25,0.75,2.75,0.0,0.0,0.0,0.5,1.0,0.0,0.0,1.5,0.0,0.0,0.02,0.14,0.95,121.65,-22.1,29.7
2.36,0.0,0.0,0.25,0.5,0.0,0.0,0.25,4.0,0.75,7.75,6.75,5.5,7.0,-0.17,0.08,0.95,471.67,-4.1,-79.9,1.25,1.0,2.5,0.0,0.0,0.25,0.75,1.0,0.0,1.0,2.0,0.0,0.0,0.02,0.14,0.95,133.83,-15.8,14.0
2.38,0.0,0.0,0.75,0.5,0.0,0.0,0.25,3.25,1.0,7.5,6.25,4.75,7.0,-0.17,0.08,0.89,476.51,-3.5,-77.6,1.25,1.0,2.0,0.0,0.25,0.0,1.75,1.25,0.25,1.25,1.75,0.0,0.0,0.02,0.14,0.95,134.53,-14.2,10.1
2.4,0.0,0.0,0.5,0.5,0.0,0.0,0.25,2.75,1.25,7.5,0.0,4.75,6.5,-0.36,0.14,0.95,428.68,-6.9,-79.3,2.5,1.75,3.0,1.75,0.25,2.0,1.75,2.75,0.5,2.5,2.75,0.75,0.5,0.08,0.14,0.95,195.12,-8.5,6.9
2.42,0.0,0.0,0.75,0.75,0.0,0.0,0.25,2.75,0.5,7.0,0.0,4.75,6.5,-0.42,0.14,0.95,385.45,-6.5,-77.6,2.75,1.75,3.75,2.0,0.5,2.0,1.75,2.75,0.75,3.25,3.25,1.0,0.75,0.02,0.08,0.95,258.77,-8.8,3.6
2.44,0.0,0.0,0.75,0.5,0.0,0.0,0.25,2.5,0.5,7.0,4.75,4.0,6.25,-0.17,0.14,0.95,362.49,-4.0,-77.7,1.25,1.0,3.25,0.0,0.5,0.5,2.0,2.75,0.5,1.75,3.25,1.0,1.25,0.02,0.08,0.95,284.45,-8.7,-14.0
2.46,0.0,0.0,0.5,0.5,0.0,0.0,0.25,2.5,1.0,6.0,5.5,4.0,6.5,0.02,0.08,0.95,357.54,-3.3,-78.7,1.25,1.0,2.75,0.0,0.0,0.0,1.5,1.5,0.25,2.5,2.5,0.75,0.25,0.02,0.08,0.95,274.92,-11.4,-10.4
2.48,0.0,0.0,1.25,0.5,0.0,0.0,0.25,2.5,0.5,6.75,5.5,4.0,6.0,0.2,0.08,0.95,364.28,-2.6,-74.8,2.75,1.75,3.0,2.0,0.5,2.25,2.25,2.75,0.5,4.0,4.0,1.5,1.25,0.02,0.08,0.95,301.9,-6.8,-5.6
2.5,0.0,0.0,1.5,0.5,0.0,0.0,0.25,2.5,0.5,6.75,5.75,4.0,6.25,0.02,0.08,0.95,375.41,-2.2,-73.8,3.0,1.75,3.5,2.0,0.5,1.25,2.25,2.75,0.75,4.0,4.0,1.5,1.25,0.02,0.08,0.95,332.07,-8.7,-5.1
2.52,0.0,0.0,0.75,0.5,0.0,0.0,0.25,2.5,1.0,6.75,5.5,4.5,6.0,-0.23,0.08,1.02,377.7,-2.9,-77.3,1.25,0.75,2.75,0.0,0.0,0.0,1.5,2.5,0.25,3.5,3.25,1.0,1.0,0.02,0.08,0.95,317.16,-6.9,-26.4
2.54,0.0,0.0,1.0,0.5,0.0,0.0,0.5,2.0,0.5,6.25,5.0,4.0,5.75,-0.36,0.08,0.95,369.96,-2.4,-76.0,1.25,1.0,2.75,0.0,0.0,0.0,1.5,2.5,0.5,3.25,3.5,1.0,1.25,0.02,0.08,0.95,295.7,-7.1,-26.0
2.56,0.0,0.0,0.0,0.75,0.0,0.0,0.0,2.0,0.25,6.0,4.5,3.5,5.75,-0.67,0.14,0.89,353.07,-5.0,-81.4,1.25,1.0,2.75,0.0,0.0,0.0,1.5,2.5,0.25,3.5,3.5,0.75,1.0,0.02,0.08,0.95,269.69,-7.0,-24.0
2.58,0.0,0.0,0.0,0.5,0.0,0.0,0.0,1.75,0.0,5.5,4.75,3.0,5.5,-0.67,0.14,0.83,323.68,-5.1,-83.2,1.5,1.0,2.75,0.0,0.0,0.0,1.5,2.5,0.75,4.5,3.25,1.25,1.0,0.02,0.08,0.95,256.48,-6.3,-27.2
2.6,0.0,0.0,0.0,0.5,0.0,0.0,0.0,1.75,0.0,5.0,3.25,2.5,3.5,-0.61,0.27,0.89,286.76,-5.5,-80.0,1.75,1.0,4.0,0.75,0.5,0.0,2.75,2.75,0.75,4.75,4.5,2.0,2.0,0.02,0.08,0.95,273.41,-7.9,-24.5
2.62,0.0,0.0,0.0,0.5,0.0,0.0,0.0,1.75,0.0,4.0,3.0,1.75,3.25,-0.61,0.39,0.89,252.13,-5.7,-78.3,3.0,1.0,3.75,0.0,1.5,0.75,2.75,2.5,1.0,5.75,4.0,1.25,1.25,0.02,0.08,0.95,302.31,-7.1,-13.8
2.64,0.0,0.0,0.0,0.5,0.0,0.0,0.0,1.5,0.0,3.5,2.75,1.25,2.75,-0.42,0.45,0.83,214.42,-5.7,-76.7,1.25,1.0,3.25,0.0,0.5,1.0,2.75,3.75,0.5,5.25,4.75,1.75,1.5,0.08,0.08,0.95,320.61,-4.1,-29.0
2.66,0.0,0.0,0.0,0.5,0.0,0.0,0.0,1.5,0.0,3.25,2.75,1.25,2.5,-0.11,0.45,0.89,180.18,-5.3,-76.0,1.25,1.0,2.75,0.0,0.0,1.25,1.5,3.25,0.5,5.5,4.75,2.25,1.75,0.08,0.08,0.95,331.22,-2.7,-36.3
2.68,0.0,0.0,0.75,0.5,0.0,0.0,0.0,1.75,0.0,3.5,2.5,1.5,2.5,0.27,0.2,0.89,160.69,-3.1,-67.8,1.25,0.75,3.25,0.0,0.5,1.0,1.75,4.0,0.5,5.5,5.25,2.0,2.5,0.08,0.08,0.95,347.82,-2.6,-36.4
2.7,0.0,0.0,0.0,0.5,0.0,0.0,0.0,2.0,0.0,3.5,2.75,1.75,2.5,0.77,-0.17,1.14,157.19,-5.4,-75.8,2.25,1.75,3.25,2.0,0.5,2.25,1.75,4.0,1.0,5.75,6.0,2.5,3.0,0.02,0.08,0.95,384.39,-3.8,-24.0
2.72,0.0,0.0,0.0,0.5,0.0,0.0,0.0,1.75,0.0,3.5,2.75,2.0,3.5,0.95,-0.11,1.14,166.12,-5.5,-79.6,2.25,1.75,3.0,2.0,0.5,2.0,1.5,4.0,1.0,6.75,6.0,3.0,3.25,0.08,0.08,0.95,424.12,-3.0,-28.4
2.74,0.0,0.0,1.25,0.5,0.0,0.0,0.0,1.5,0.25,3.75,3.25,2.0,3.25,-0.36,0.14,0.95,182.61,-1.0,-67.5,2.0,1.75,3.25,1.5,1.25,1.75,1.25,4.0,1.0,7.0,6.25,3.5,3.75,0.02,0.14,0.95,486.38,-2.6,-31.2
2.76,0.0,0.0,0.0,0.5,0.0,0.0,0.0,1.75,0.5,4.5,2.75,2.0,2.5,-0.11,0.08,1.2,194.98,-5.0,-75.8,0.75,1.25,3.75,0.0,1.0,0.0,1.5,4.25,0.5,6.5,6.75,3.0,4.25,0.02,0.08,0.95,508.58,-2.3,-44.5
2.78,0.0,0.0,0.0,0.5,0.0,0.0,0.25,2.0,0.5,3.5,3.0,0.0,2.25,-0.11,0.2,1.08,191.83,-5.9,-67.5,0.75,0.75,1.75,0.0,0.0,0.0,0.5,4.0,0.5,6.75,6.0,3.25,3.5,0.02,0.08,0.95,478.72,0.5,-58.8
2.8,0.0,0.0,0.0,0.0,0.0,0.0,0.0,0.0,0.0,0.0,0.0,0.0,0.0,-0.17,0.14,0.95,126.99,0.0,0.0,0.75,1.0,1.75,0.0,0.0,0.0,0.5,4.0,0.5,7.0,6.0,3.25,4.0,0.08,0.08,0.95,444.35,0.7,-58.4
2.82,0.0,0.0,0.0,0.25,0.0,0.0,0.0,0.0,0.0,3.25,0.0,0.0,1.5,-0.17,0.14,0.95,89.61,-13.3,-79.0,0.75,0.75,1.75,0.0,0.0,0.0,0.5,4.0,0.5,7.0,6.0,3.5,4.0,0.08,0.08,0.89,416.13,0.8,-60.3
2.84,0.0,0.0,0.25,0.5,0.0,0.0,0.5,2.0,0.0,3.5,0.0,0.0,2.5,-0.11,0.14,0.95,80.65,-10.6,-62.9,0.5,0.75,1.0,0.0,0.0,0.0,0.5,4.0,0.5,7.0,6.5,3.5,4.25,0.02,0.14,0.95,401.0,2.0,-65.6
2.86,0.0,0.0,0.0,0.5,0.0,0.0,0.25,1.5,0.0,4.25,3.0,2.0,3.0,-0.17,0.14,0.95,127.45,-5.0,-78.0,0.5,0.75,0.75,0.0,0.0,0.0,0.25,3.75,0.5,7.25,6.75,3.75,4.5,0.02,0.08,0.95,399.97,2.4,-68.4
2.88,0.0,0.0,0.0,0.5,0.0,0.0,0.5,1.5,0.0,4.75,3.75,2.0,3.5,-0.17,0.08,0.95,179.62,-4.6,-78.1,0.75,0.75,1.5,0.0,0.0,0.0,0.25,4.0,0.5,7.0,6.75,3.5,4.75,0.02,0.08,0.95,405.88,1.3,-63.4
2.9,0.0,0.0,0.75,0.5,0.0,0.0,0.5,1.5,0.25,4.5,3.75,1.75,3.5,-0.17,0.14,0.95,222.97,-2.4,-70.7,0.0,0.75,1.5,0.0,0.0,0.0,0.5,4.0,0.5,7.0,6.75,3.5,4.5,0.02,0.08,0.95,402.32,1.9,-66.5
2.92,0.25,0.0,0.5,0.5,0.0,0.0,0.25,1.0,0.25,4.75,3.5,2.0,3.25,-0.17,0.14,0.95,240.86,-2.4,-72.0,0.0,0.75,0.75,0.0,0.0,0.0,0.25,3.5,0.5,7.0,6.75,3.5,4.5,0.02,0.08,0.89,391.26,2.9,-71.0
2.94,0.0,0.0,0.25,0.5,0.0,0.0,0.5,1.25,0.25,4.75,4.5,3.0,3.5,-0.17,0.08,0.95,257.43,-2.2,-77.7,0.0,0.75,0.5,0.0,0.0,0.0,0.0,3.75,0.5,7.0,6.75,3.5,4.5,0.02,0.08,0.95,381.22,3.6,-72.4
2.96,0.0,0.0,0.0,0.5,0.0,0.0,0.5,1.75,0.0,4.75,4.5,3.0,3.0,-0.11,0.08,0.89,266.96,-3.1,-78.3,0.5,1.0,1.25,0.0,0.0,0.0,0.25,4.0,0.5,7.0,6.75,3.5,4.25,0.02,0.08,0.95,382.05,1.6,-63.5
2.98,0.0,0.0,0.0,0.5,0.0,0.0,0.5,1.25,0.0,4.75,4.5,3.0,3.25,-0.17,0.14,0.95,275.52,-2.9,-79.9,1.5,1.5,1.5,1.25,0.0,1.0,0.5,4.0,0.75,7.5,7.5,3.5,4.5,0.02,0.08,0.95,409.41,-0.1,-48.8
3.0,0.0,0.0,1.0,0.5,0.0,0.0,0.5,1.75,0.0,4.5,4.5,3.0,3.75,-0.17,0.14,0.95,287.26,-1.2,-72.1,0.75,1.0,0.75,0.0,0.0,0.0,0.25,3.75,0.5,6.5,6.0,2.75,3.0,0.02,0.08,0.95,394.84,1.7,-60.5
3.02,0.0,0.0,0.0,0.5,0.0,0.0,0.5,1.75,0.0,4.0,4.5,3.0,3.75,-0.17,0.14,0.95,291.99,-3.0,-79.8,0.75,0.75,1.75,0.0,0.0,0.0,0.5,3.75,0.5,6.5,6.0,2.75,3.0,0.02,0.14,0.95,382.97,0.1,-56.8
3.04,0.0,0.0,0.5,0.0,0.0,0.0,0.0,0.0,0.0,0.0,0.0,0.0,0.0,-0.17,0.14,0.95,220.26,38.2,60.9,0.5,1.0,1.25,0.0,0.0,0.0,0.5,3.75,0.5,6.5,6.0,3.0,3.0,0.02,0.08,0.95,359.4,1.0,-59.5
3.06,0.0,0.0,0.0,0.0,0.0,0.0,0.0,0.0,0.0,0.0,0.0,2.75,0.0,-0.11,0.14,0.95,140.7,8.8,-109.8,0.5,1.0,1.25,0.0,0.0,0.0,0.5,3.75,0.5,6.5,6.0,2.75,3.0,0.02,0.08,0.95,346.93,1.1,-59.0
3.08,0.25,0.0,1.0,0.5,0.0,0.0,0.75,2.0,0.75,4.75,4.5,3.0,3.75,-0.11,0.14,0.95,156.18,-0.4,-68.1,0.5,0.75,1.5,0.0,0.0,0.0,0.5,3.25,0.5,5.75,5.75,2.5,2.5,0.02,0.08,0.95,326.48,0.0,-57.5
3.1,0.0,0.0,0.0,0.5,0.0,0.0,1.0,2.25,1.0,4.75,4.25,3.0,3.5,-0.11,0.14,0.95,197.85,-2.7,-74.9,0.75,1.0,1.75,0.0,0.0,0.0,0.5,2.75,0.5,5.0,4.75,2.0,2.25,0.02,0.08,0.95,302.66,-1.4,-49.5
3.12,0.0,0.0,1.5,1.0,0.0,0.0,1.0,2.25,0.75,5.0,4.5,3.0,3.5,-0.11,0.14,0.95,254.77,0.4,-62.6,1.0,1.0,2.0,0.0,0.0,0.25,0.5,2.75,0.75,4.0,4.25,1.75,1.25,0.02,0.08,0.95,276.77,-3.6,-39.0
3.14,0.0,0.0,0.75,1.0,0.0,0.0,1.0,2.25,0.75,4.75,4.5,3.0,3.5,-0.11,0.14,0.95,286.8,-0.7,-67.0,1.25,0.75,1.0,0.0,0.0,0.0,0.5,2.75,0.5,3.5,3.75,1.25,1.25,0.02,0.14,0.95,243.98,-2.1,-42.3
3.16,0.0,0.0,0.5,1.0,0.0,0.0,1.0,2.5,0.75,4.75,4.75,3.0,3.5,-0.11,0.14,0.95,303.42,-1.2,-68.3,1.25,0.75,2.25,0.0,0.0,0.0,0.75,2.5,0.5,3.0,3.25,1.0,1.0,0.02,0.14,0.95,215.01,-6.1,-29.1
3.18,0.0,0.25,0.0,1.5,0.0,0.0,1.25,2.5,0.75,5.0,4.5,3.0,3.5,-0.11,0.14,0.95,303.63,-1.7,-65.8,1.25,0.75,2.75,0.0,0.0,0.5,1.0,2.5,0.5,3.0,3.25,0.75,0.75,0.02,0.14,0.95,197.06,-6.7,-21.6
3.2,0.0,0.5,0.0,2.0,0.0,0.0,1.25,2.5,0.0,4.75,4.75,2.25,3.5,-0.11,0.14,0.95,306.39,-1.6,-60.0,1.25,0.75,2.0,0.0,0.0,0.75,1.0,2.5,0.5,3.0,3.25,0.75,0.5,0.02,0.08,0.95,185.62,-5.0,-23.4
3.22,0.0,1.0,0.75,2.25,0.0,0.0,1.5,2.5,0.5,4.75,4.0,2.0,2.75,-0.11,0.14,0.95,307.55,0.7,-46.5,1.25,1.0,2.5,0.0,0.0,0.5,1.0,2.5,0.5,2.0,3.25,0.75,0.5,0.02,0.08,0.95,180.95,-8.1,-15.9
3.24,0.75,1.0,1.25,2.0,0.0,0.25,1.25,3.25,0.0,4.75,4.25,2.0,3.0,-0.11,0.14,0.95,313.04,1.1,-41.4,1.25,0.75,2.75,0.0,0.0,1.0,1.0,2.5,0.5,1.75,3.0,0.75,0.5,0.02,0.08,0.95,184.55,-7.9,-13.0
3.26,0.0,0.75,1.5,1.75,0.0,0.5,1.25,2.75,0.75,4.75,4.25,2.0,2.5,-0.11,0.14,0.95,317.4,1.0,-45.0,1.25,1.75,2.75,2.0,0.0,1.0,0.5,3.0,0.5,3.25,2.5,0.5,1.25,0.08,0.08,0.95,206.15,-5.5,-6.6
3.28,0.0,0.75,1.25,1.5,0.0,0.5,1.0,2.75,0.75,4.75,3.0,2.0,2.5,-0.11,0.14,0.95,313.11,-0.3,-46.2,2.5,1.0,3.25,0.0,0.0,1.0,1.5,3.25,0.5,1.5,2.25,1.0,0.25,0.08,0.08,0.95,216.39,-10.6,1.5
3.3,0.0,0.75,1.5,1.5,0.0,0.5,1.0,2.75,0.75,4.75,4.0,1.75,2.5,-0.11,0.14,0.95,296.11,0.5,-45.5,1.25,0.75,2.5,0.0,0.0,2.25,0.5,2.5,0.75,3.0,2.0,0.75,0.25,0.08,0.08,0.95,222.66,-3.2,-11.3
3.32,1.5,1.0,1.0,1.25,0.0,0.75,1.0,3.25,0.75,3.75,3.75,1.75,2.25,-0.11,0.14,0.95,280.24,1.9,-34.7,1.25,1.0,2.75,0.0,1.5,1.75,1.5,2.75,0.5,2.25,2.0,0.5,0.25,0.08,0.14,0.95,229.24,-5.0,1.9
3.34,0.0,1.0,1.25,1.25,0.0,0.75,1.0,3.5,0.25,3.5,3.0,1.25,2.25,-0.11,0.14,0.95,268.37,-0.8,-39.2,1.25,2.0,2.75,2.0,0.0,2.25,0.75,2.5,0.25,1.5,2.0,0.25,0.0,0.02,0.14,0.95,235.91,-7.9,17.6
3.36,0.0,1.0,0.5,1.25,0.0,1.0,1.0,3.25,0.0,3.25,3.0,0.75,1.5,-0.11,0.14,0.95,246.82,-2.4,-36.7,2.0,1.0,3.75,0.0,1.5,2.0,1.25,2.5,0.25,1.0,2.0,0.0,0.25,0.02,0.14,0.95,240.84,-9.4,19.9
3.38,0.0,0.75,1.5,1.25,0.0,1.25,1.0,2.75,0.0,3.25,2.75,0.75,1.25,-0.11,0.14,0.95,227.63,0.0,-29.8,2.75,1.75,2.75,2.0,0.0,2.0,1.5,2.75,0.5,2.25,3.0,0.5,0.75,0.08,0.14,0.95,262.11,-8.6,7.1
3.4,0.0,0.75,1.25,1.25,0.0,0.75,0.75,2.75,0.0,3.25,2.5,0.75,1.25,-0.11,0.14,0.95,208.05,-0.3,-33.1,1.25,1.0,3.0,0.5,1.25,2.25,1.5,2.5,0.75,1.75,2.0,1.0,0.25,0.02,0.14,0.95,266.33,-6.3,3.4
3.42,0.0,1.0,1.5,1.5,0.0,0.75,0.75,2.75,0.0,2.5,2.25,0.75,1.0,-0.11,0.14,0.95,193.74,1.7,-23.1,1.25,1.0,3.0,0.0,1.5,1.5,1.25,2.5,0.5,0.75,2.5,0.0,0.25,0.02,0.14,0.95,257.39,-8.2,11.5
3.44,0.0,0.75,1.5,1.75,0.0,1.25,0.75,2.5,0.0,2.0,2.0,0.75,1.0,-0.11,0.14,0.95,184.05,1.8,-18.8,2.5,1.75,1.75,2.0,0.25,2.25,1.0,2.75,0.75,2.0,2.5,1.0,0.75,0.02,0.14,0.95,262.44,-6.3,3.7
3.46,0.0,0.5,1.5,1.5,0.0,1.25,0.75,2.5,0.0,1.75,2.0,0.5,1.0,-0.11,0.14,0.95,173.65,1.4,-19.9,2.5,1.75,3.5,2.0,1.0,2.0,1.25,2.5,0.5,1.75,2.25,0.75,0.75,0.02,0.14,0.95,274.78,-9.4,14.2
3.48,0.0,0.25,1.5,1.0,0.0,1.25,0.75,2.5,0.0,1.75,2.0,0.0,1.0,-0.11,0.14,0.95,159.85,0.2,-22.2,2.0,1.75,3.0,1.75,1.0,2.0,1.0,2.5,0.5,1.75,2.5,0.75,0.75,0.02,0.14,0.95,283.08,-7.9,9.5
3.5,0.0,0.5,1.5,1.0,0.0,1.25,0.75,2.5,0.0,1.75,2.0,0.0,1.0,-0.11,0.14,0.95,152.47,0.4,-19.5,2.25,1.75,3.0,1.5,1.5,2.0,1.0,2.5,0.5,1.75,2.25,0.75,0.75,0.02,0.14,0.95,289.31,-7.7,12.0
3.52,0.0,0.25,1.25,1.0,0.0,0.75,0.75,2.5,0.0,1.75,2.0,0.0,1.0,-0.11,0.14,0.95,143.87,0.3,-26.6,2.0,1.0,3.0,1.75,1.75,2.0,0.75,2.5,0.5,1.75,2.25,0.25,0.5,0.02,0.14,0.95,290.01,-7.3,13.4
3.54,0.0,0.0,1.5,1.0,0.0,0.5,0.75,2.5,0.0,2.5,2.0,0.0,0.75,-0.11,0.14,0.95,140.33,0.6,-30.1,2.0,1.75,3.0,1.75,0.0,2.0,0.5,2.5,0.5,2.0,2.25,0.75,0.5,0.02,0.14,0.95,282.37,-8.2,8.1
3.56,0.0,0.0,1.5,0.75,0.0,0.5,0.5,2.0,0.0,1.5,1.0,0.0,0.5,-0.11,0.14,0.95,126.31,1.9,-19.7,1.0,1.0,2.75,1.25,0.5,2.0,0.5,2.5,0.5,1.5,2.0,0.75,0.5,0.02,0.14,0.95,262.72,-6.0,1.8
3.58,0.0,0.0,0.75,0.5,0.0,0.5,0.5,2.5,0.0,1.5,2.0,0.0,0.5,-0.11,0.14,0.95,119.59,-1.9,-36.9,1.25,1.75,2.5,1.25,0.5,2.0,0.5,2.5,0.5,1.5,2.0,0.75,0.5,0.02,0.08,0.95,251.16,-6.2,6.5
3.6,0.0,0.0,1.75,0.5,0.0,0.0,0.5,2.25,0.25,1.5,1.75,0.0,0.25,-0.11,0.14,0.95,111.62,4.9,-25.7,1.0,0.75,2.0,1.25,0.25,1.75,0.5,2.5,0.5,1.5,0.75,0.75,0.0,0.02,0.08,0.95,224.64,-5.1,6.1
3.62,0.0,0.0,1.75,0.5,0.0,0.0,0.5,2.25,0.0,1.5,1.5,0.0,0.25,-0.11,0.14,0.95,106.72,4.5,-23.8,1.25,1.5,0.5,1.5,0.0,1.5,0.25,2.5,0.5,1.5,2.0,0.0,0.5,0.02,0.14,0.95,203.72,-2.4,0.7
3.64,0.0,0.0,2.25,0.5,0.0,0.0,0.5,2.0,0.0,1.5,1.5,0.0,0.25,-0.11,0.14,0.95,105.89,7.2,-18.1,1.25,1.75,2.75,0.75,0.5,1.5,0.75,2.75,0.5,1.5,2.0,0.75,0.5,0.02,0.14,0.95,204.8,-7.0,4.5
3.66,0.0,0.0,1.75,0.5,0.0,0.0,0.5,1.75,0.5,1.5,1.25,0.0,0.5,-0.11,0.14,0.95,105.93,5.5,-25.0,1.5,1.75,2.75,1.25,0.5,1.0,0.5,2.5,0.5,1.75,2.0,0.5,0.5,0.02,0.14,0.95,211.09,-8.4,7.6
3.68,0.0,0.0,1.5,0.5,0.0,0.0,0.5,1.75,0.25,1.5,1.5,0.0,0.25,-0.11,0.14,0.95,104.06,5.0,-26.2,1.25,1.75,2.75,1.0,0.5,1.0,0.5,2.5,0.5,1.5,2.0,0.75,0.5,0.02,0.14,0.95,214.49,-8.2,5.0
3.7,0.0,0.0,0.0,0.5,0.0,0.0,0.25,1.75,0.25,1.5,1.25,0.0,0.25,-0.11,0.14,0.95,94.85,-4.9,-49.3,1.25,1.5,2.25,1.25,0.5,1.25,0.5,2.5,0.5,1.5,1.5,0.75,0.5,0.02,0.14,0.95,215.76,-6.8,5.4
3.72,0.0,0.0,0.0,0.25,0.0,0.0,0.0,0.25,0.0,0.0,0.25,0.0,0.0,-0.11,0.14,0.95,61.33,3.8,-16.9,1.25,1.75,2.25,0.75,1.25,1.0,0.5,2.5,0.5,1.5,2.0,0.75,0.5,0.02,0.14,0.95,219.94,-6.5,4.9
3.74,0.0,0.0,0.0,0.25,0.0,0.0,0.0,0.75,0.0,0.0,0.5,0.0,0.0,-0.11,0.14,0.95,33.31,-1.9,-33.7,1.5,1.5,0.5,0.5,0.0,1.0,0.0,1.25,0.5,1.5,0.75,0.75,0.0,0.02,0.14,0.95,192.23,-5.3,6.9
3.76,0.0,0.0,0.5,0.5,0.0,0.0,0.25,1.0,0.25,1.0,1.25,0.0,0.0,-0.17,0.14,0.95,28.48,3.5,-32.5,1.25,1.75,2.75,0.75,0.5,1.0,0.5,2.0,0.5,1.5,2.0,0.75,0.75,0.02,0.14,0.95,196.39,-8.5,3.6
3.78,0.0,0.0,1.25,0.5,0.0,0.0,0.25,1.0,0.25,1.0,1.25,0.0,0.0,-0.11,0.14,0.95,39.83,8.4,-19.1,1.25,1.25,3.0,1.0,0.25,1.0,0.75,2.5,0.5,1.5,2.0,0.75,0.5,0.02,0.14,0.95,200.43,-9.0,2.1
3.8,0.0,0.0,0.5,0.5,0.0,0.0,0.25,1.0,0.0,0.5,1.25,0.0,0.0,-0.11,0.14,0.95,47.84,5.4,-26.5,1.25,1.25,1.0,1.0,0.0,1.0,0.0,1.25,0.5,1.5,0.75,0.75,0.0,0.02,0.14,0.95,189.91,-6.7,7.8
3.82,0.0,0.0,0.0,0.5,0.0,0.0,0.0,0.75,0.25,0.25,1.25,0.0,0.0,-0.17,0.14,0.95,47.28,2.8,-39.7,1.25,1.75,2.25,1.0,1.0,1.0,0.25,1.75,0.5,1.5,2.0,0.75,0.5,0.02,0.14,0.95,196.38,-7.8,6.9
3.84,0.0,0.0,0.25,0.5,0.0,0.0,0.25,0.75,0.0,0.5,1.25,0.0,0.0,-0.17,0.14,0.95,43.94,4.5,-32.3,1.25,1.5,2.75,0.75,0.0,1.0,0.25,1.75,0.5,1.5,2.0,0.75,0.5,0.02,0.14,0.95,198.68,-9.6,2.5
3.86,0.0,0.0,0.75,0.5,0.0,0.0,0.25,0.75,0.0,0.0,1.25,0.0,0.0,-0.17,0.08,0.95,40.67,12.7,-11.7,1.25,1.25,2.25,0.0,0.25,0.0,0.5,1.5,0.0,0.0,2.0,0.0,0.5,0.02,0.14,0.95,179.56,-15.2,15.5
3.88,0.0,0.0,0.5,0.5,0.0,0.0,0.0,0.75,0.0,1.0,1.25,0.0,0.0,-0.17,0.14,0.95,44.52,3.3,-33.5,0.0,0.75,0.75,0.0,0.0,0.0,0.25,1.25,0.0,0.0,0.75,0.0,0.0,0.02,0.14,0.95,128.4,-8.2,6.4
3.9,0.0,0.0,0.0,0.25,0.0,0.0,0.0,0.5,0.0,0.0,0.25,0.0,0.0,-0.11,0.14,0.95,35.33,-1.2,-22.4,1.25,1.5,2.25,0.5,0.25,1.0,0.5,1.75,0.5,1.5,2.0,0.5,0.5,0.02,0.14,0.95,136.05,-8.3,2.6
3.92,0.0,0.0,0.0,0.25,0.0,0.0,0.0,0.5,0.0,0.0,0.0,0.0,0.0,-0.17,0.08,0.95,25.89,-5.1,-5.5,1.25,1.75,1.75,0.5,0.25,1.0,0.5,1.5,0.5,1.5,2.0,0.75,0.5,0.02,0.14,0.95,145.92,-7.7,0.9
3.94,0.0,0.0,1.5,0.5,0.0,0.0,0.0,0.75,0.0,0.5,0.0,0.0,0.0,-0.17,0.14,0.95,30.31,14.3,17.3,1.25,1.75,2.75,0.5,0.25,0.75,0.75,1.25,0.5,1.5,2.0,0.5,0.5,0.02,0.14,0.95,172.25,-11.1,7.7
3.96,0.0,0.0,0.0,0.5,0.0,0.0,0.25,0.75,0.0,0.0,1.25,0.0,0.0,-0.17,0.08,0.95,34.18,5.1,-33.3,1.25,1.0,2.75,0.0,1.5,1.0,0.75,1.25,0.5,1.5,1.75,0.5,0.5,0.02,0.14,0.95,189.88,-8.8,7.4
3.98,0.0,0.0,0.0,0.5,0.0,0.0,0.25,0.75,0.0,0.0,1.25,0.0,0.0,-0.17,0.08,0.95,35.69,5.1,-33.3,1.25,1.75,2.75,0.5,0.25,0.25,0.5,1.25,0.5,1.5,2.0,0.75,0.5,0.02,0.14,0.95,201.01,-12.1,4.4
4.0,0.0,0.0,0.5,0.25,0.0,0.0,0.25,0.75,0.0,0.5,0.0,0.0,0.0,-0.17,0.08,0.95,33.06,3.5,-7.9,1.25,1.75,1.5,1.0,0.25,0.5,0.5,1.25,0.5,1.5,2.0,0.5,0.25,0.02,0.14,0.95,192.17,-9.6,6.0
4.02,0.0,0.0,0.5,0.5,0.0,0.0,0.25,0.75,0.0,0.5,1.0,0.0,0.0,-0.17,0.08,0.95,39.04,6.6,-22.1,1.25,1.75,3.0,0.5,0.5,0.25,0.25,1.5,0.5,1.5,0.75,0.5,0.25,0.02,0.14,0.95,190.33,-12.2,18.0
4.04,0.0,0.0,0.0,0.5,0.0,0.0,0.0,0.75,0.0,0.5,0.75,0.0,0.0,-0.17,0.08,0.95,39.07,-1.4,-36.5,1.25,1.75,2.5,0.75,1.0,0.5,0.5,1.25,0.5,1.5,2.0,0.5,0.5,0.02,0.14,0.95,199.1,-10.3,9.8
4.06,0.0,0.0,0.0,0.5,0.0,0.0,0.0,0.75,0.0,0.0,1.0,0.0,0.0,-0.17,0.08,0.95,38.89,3.0,-32.0,1.25,1.5,3.0,0.5,0.5,0.5,0.5,1.25,0.5,1.5,2.0,0.5,0.25,0.02,0.14,0.95,199.87,-12.2,9.5
4.08,0.0,0.0,0.0,0.25,0.0,0.0,0.0,0.0,0.0,0.0,0.0,0.0,0.0,-0.17,0.14,0.95,26.22,17.2,57.9,1.25,1.5,2.75,1.0,1.0,0.25,0.25,1.25,0.5,1.25,2.0,0.75,0.25,0.02,0.14,0.95,207.88,-12.1,11.0
4.1,0.0,0.0,0.0,0.25,0.0,0.0,0.0,0.25,0.0,0.25,0.0,0.0,0.0,-0.17,0.14,0.95,17.68,-4.7,-17.6,1.25,1.75,2.75,0.5,0.5,0.25,0.25,1.5,0.5,1.5,2.0,0.75,0.5,0.02,0.14,0.95,211.41,-11.1,4.5
4.12,0.0,0.0,0.25,0.25,0.0,0.0,0.0,0.0,0.0,0.0,0.0,0.0,0.0,-0.17,0.14,0.95,9.28,27.6,59.4,1.25,1.5,2.75,1.0,0.5,0.0,0.5,1.25,0.5,1.5,2.0,0.5,0.25,0.02,0.14,0.95,208.32,-13.1,9.6
4.14,0.0,0.0,0.0,0.5,0.0,0.0,0.25,0.5,0.0,0.0,0.0,0.0,0.0,-0.17,0.14,0.95,10.77,3.9,12.4,1.25,1.75,2.75,0.75,0.25,0.5,0.5,1.25,0.5,1.5,1.75,0.75,0.5,0.02,0.14,0.95,199.89,-11.6,7.3
4.16,0.0,0.0,1.5,0.5,0.0,0.0,0.0,0.75,0.0,0.0,1.25,0.0,0.0,-0.17,0.08,0.95,26.72,17.0,1.0,1.25,1.75,2.25,0.5,1.25,0.25,0.5,1.25,0.5,1.5,2.0,0.5,0.5,0.02,0.14,0.95,200.67,-9.9,8.5
4.18,0.0,0.0,1.25,0.5,0.0,0.0,0.25,0.75,0.0,0.25,1.25,0.0,0.0,-0.17,0.08,0.95,42.68,14.1,-6.5,1.25,1.5,2.75,1.0,0.0,0.25,0.5,1.5,0.5,1.5,2.0,0.75,0.5,0.02,0.14,0.95,200.46,-12.1,2.9
4.2,0.0,0.0,1.25,0.5,0.0,0.0,0.25,0.75,0.0,0.0,1.0,0.0,0.0,-0.17,0.08,0.95,55.93,16.4,2.7,1.25,1.75,2.25,1.0,0.5,0.5,0.5,1.5,0.5,1.5,2.0,0.5,0.5,0.02,0.14,0.95,202.15,-10.0,7.1
4.22,0.0,0.0,1.5,0.5,0.0,0.0,0.25,0.75,0.0,0.0,0.5,0.0,0.0,-0.17,0.14,0.95,60.65,18.9,18.1,1.25,1.5,2.5,0.75,0.25,0.75,0.5,1.25,0.25,0.0,1.75,0.0,0.25,0.02,0.14,0.95,190.88,-14.8,28.0
4.24,0.0,0.0,0.0,0.25,0.0,0.0,0.0,0.0,0.0,0.0,0.0,0.0,0.0,-0.17,0.14,0.95,44.68,17.2,57.9,0.5,1.0,0.25,0.0,0.0,0.0,0.25,1.25,0.5,0.25,0.75,0.0,0.25,0.02,0.14,0.95,150.15,-5.8,-0.5
4.26,0.0,0.0,0.5,0.25,0.0,0.0,0.0,0.0,0.0,0.0,0.0,0.0,0.0,-0.17,0.14,0.95,30.18,31.1,59.9,1.25,1.75,1.75,1.25,0.5,1.0,0.5,1.25,0.5,1.5,2.0,0.5,0.5,0.02,0.14,0.95,153.69,-8.4,7.8
4.28,0.0,0.0,0.75,0.25,0.0,0.0,0.0,0.0,0.0,0.0,0.0,0.0,0.0,-0.17,0.14,0.95,20.43,32.9,60.2,1.25,1.5,2.5,1.25,0.25,0.75,0.5,1.25,0.5,1.5,1.75,0.75,0.5,0.02,0.14,0.95,162.1,-10.7,7.0
4.3,0.0,0.0,0.0,0.25,0.0,0.0,0.0,0.0,0.0,0.0,0.0,0.0,0.0,-0.17,0.14,0.95,13.28,17.2,57.9,1.25,1.75,2.0,1.25,0.5,0.5,0.5,1.25,0.5,1.5,2.0,0.5,0.25,0.02,0.14,0.95,181.86,-10.5,10.1
4.32,0.0,0.0,0.0,0.25,0.0,0.0,0.0,0.0,0.0,0.0,0.0,0.0,0.0,-0.17,0.14,0.95,8.0,17.2,57.9,1.25,1.75,2.5,1.0,0.5,0.5,0.5,1.25,0.5,1.5,2.0,0.5,0.25,0.02,0.14,0.95,192.87,-11.4,11.1
4.34,0.0,0.0,0.0,0.25,0.0,0.0,0.0,0.0,0.0,0.0,0.0,0.0,0.0,-0.17,0.14,0.95,3.13,17.2,57.9,1.25,1.5,2.75,0.75,1.5,0.75,0.5,1.25,0.5,1.5,1.75,0.75,0.5,0.02,0.14,0.95,207.54,-9.6,10.6
4.36,0.0,0.0,0.25,0.25,0.0,0.0,0.0,0.0,0.0,0.0,0.0,0.0,0.0,-0.17,0.08,0.95,0.94,27.6,59.4,1.25,1.75,2.25,0.5,1.5,0.5,0.5,1.25,0.0,0.0,2.0,0.0,0.5,0.02,0.14,0.95,200.68,-12.1,27.4
4.38,0.0,0.0,0.5,0.25,0.0,0.0,0.0,0.0,0.0,0.0,0.0,0.0,0.0,-0.17,0.14,0.95,0.31,31.1,59.9,0.0,1.0,0.75,0.0,0.5,0.0,0.5,1.5,0.0,0.0,2.0,0.0,0.25,0.02,0.14,0.95,166.3,-6.4,-7.2
4.4,0.0,0.0,0.5,0.25,0.0,0.0,0.0,0.0,0.0,0.0,0.0,0.0,0.0,-0.17,0.14,0.95,1.75,31.1,59.9,1.25,1.75,0.75,1.25,0.0,0.75,0.0,1.0,0.25,1.5,0.25,0.5,0.25,0.02,0.14,0.95,149.74,-6.9,18.6
4.42,0.0,0.0,0.5,0.25,0.0,0.0,0.0,0.0,0.0,0.0,0.0,0.0,0.0,-0.17,0.14,0.95,5.6,31.1,59.9,1.0,1.0,2.75,0.0,0.0,0.25,0.0,0.5,0.25,0.25,0.75,0.0,0.0,0.02,0.14,0.95,124.31,-21.7,40.2
4.44,0.0,0.0,1.5,0.5,0.0,0.0,0.25,0.75,0.0,0.0,0.75,0.0,0.0,-0.17,0.14,0.95,25.08,18.3,11.9,1.25,1.5,2.0,1.0,0.5,0.75,0.5,1.25,0.25,1.5,2.0,0.5,0.25,0.02,0.14,0.95,141.85,-9.7,8.8
4.46,0.0,0.0,1.25,0.5,0.0,0.0,0.25,0.75,0.0,0.0,0.75,0.0,0.0,-0.17,0.08,0.95,41.06,16.8,8.2,1.25,1.75,3.25,1.0,0.5,1.0,0.25,1.0,0.5,1.5,2.0,0.5,0.25,0.02,0.14,0.95,168.82,-12.0,15.2
4.48,0.0,0.0,1.0,0.5,0.0,0.0,0.25,0.75,0.0,0.0,1.0,0.0,0.0,-0.17,0.08,0.95,55.42,14.7,-1.6,1.25,1.75,2.75,1.25,0.25,0.75,0.5,1.25,0.5,1.5,1.75,0.5,0.25,0.02,0.14,0.95,193.9,-11.8,13.9
4.5,0.0,0.0,0.75,0.5,0.0,0.0,0.25,0.75,0.0,0.25,1.0,0.0,0.0,-0.17,0.08,0.95,59.82,10.7,-11.9,1.25,1.75,3.0,1.0,1.0,0.75,0.5,1.0,0.5,1.5,1.75,0.5,0.25,0.02,0.14,0.95,202.58,-11.7,17.2
4.52,0.0,0.0,1.0,0.5,0.0,0.0,0.25,0.5,0.0,0.0,0.0,0.0,0.0,-0.17,0.08,0.95,56.69,20.2,35.4,1.25,1.75,2.75,0.5,0.5,1.0,0.5,0.5,0.5,0.0,1.5,0.25,0.5,0.02,0.14,0.95,198.22,-15.3,29.5
4.54,0.0,0.0,1.0,0.5,0.0,0.0,0.25,0.75,0.0,0.0,1.0,0.0,0.0,-0.17,0.08,0.95,57.2,14.7,-1.6,1.25,1.0,2.0,0.0,0.25,0.25,0.5,0.75,0.5,1.0,2.0,0.5,0.25,0.02,0.14,0.95,182.03,-13.4,1.9
4.56,0.0,0.0,0.75,0.5,0.0,0.0,0.25,0.75,0.0,0.0,1.0,0.0,0.0,-0.17,0.14,0.95,55.86,12.8,-6.8,1.25,1.5,2.25,1.25,1.25,0.75,0.5,1.25,0.5,1.5,2.0,0.5,0.25,0.02,0.14,0.95,186.79,-9.6,12.4
4.58,0.0,0.0,0.75,0.5,0.0,0.0,0.25,0.75,0.0,0.0,1.0,0.0,0.0,-0.17,0.08,0.95,56.62,12.8,-6.8,1.25,1.75,2.75,0.5,0.5,1.0,0.5,1.25,0.5,1.25,2.0,0.5,0.25,0.02,0.14,0.95,194.0,-11.0,12.6
4.6,0.0,0.0,1.0,0.5,0.0,0.0,0.25,0.75,0.0,0.0,1.0,0.0,0.0,-0.17,0.14,0.95,56.79,14.7,-1.6,1.25,1.75,2.75,0.75,1.0,1.0,0.25,1.0,0.5,1.5,2.0,0.5,0.5,0.02,0.14,0.95,210.4,-10.0,12.2
4.62,0.0,0.0,1.0,0.5,0.0,0.0,0.25,0.75,0.0,0.0,0.75,0.0,0.0,-0.17,0.14,0.95,56.16,15.1,3.9,1.25,1.75,2.0,1.0,0.5,1.0,0.5,1.5,0.5,1.5,1.5,0.5,0.25,0.02,0.14,0.95,214.13,-8.7,12.2
4.64,0.0,0.0,1.0,1.0,0.0,0.0,0.25,0.75,0.0,0.0,1.25,0.0,0.0,-0.17,0.14,0.95,59.81,14.8,1.5,1.25,1.75,2.75,1.25,1.25,1.0,0.5,1.25,0.5,1.5,2.0,0.75,0.25,0.02,0.14,0.95,221.7,-10.1,13.8
4.66,0.0,0.0,0.75,0.5,0.0,0.0,0.0,0.75,0.0,0.0,1.25,0.0,0.0,-0.17,0.14,0.95,57.21,11.9,-13.2,1.25,1.75,2.25,1.25,1.0,1.0,0.5,1.0,0.5,1.5,2.0,0.5,0.25,0.02,0.14,0.95,219.79,-9.8,14.3
4.68,0.0,0.0,1.25,0.25,0.0,0.0,0.5,0.75,0.0,0.0,1.25,0.0,0.0,-0.17,0.14,0.95,57.54,16.5,-5.3,1.25,1.75,2.75,1.0,1.25,1.25,0.5,1.25,0.5,1.5,2.0,0.75,0.25,0.02,0.14,0.95,222.99,-9.5,13.4
4.7,0.0,0.0,1.0,0.5,0.0,0.0,0.5,0.75,0.0,0.0,1.0,0.0,0.0,-0.17,0.14,0.95,57.08,15.4,-0.7,1.25,1.75,2.0,1.0,0.25,1.0,0.5,1.0,0.5,1.5,1.5,0.75,0.25,0.02,0.14,0.95,214.32,-10.0,10.9
4.72,0.0,0.0,1.0,0.5,0.0,0.0,0.25,0.75,0.0,0.0,1.0,0.0,0.0,-0.17,0.14,0.95,57.03,14.7,-1.6,1.25,1.75,2.75,1.25,1.5,1.0,0.5,1.25,0.5,1.25,2.0,0.75,0.5,0.02,0.14,0.95,222.2,-9.9,13.9
4.74,0.0,0.0,1.0,0.5,0.0,0.0,0.25,0.75,0.0,0.0,1.0,0.0,0.0,-0.17,0.14,0.95,55.85,14.7,-1.6,1.25,1.75,2.75,1.0,0.25,1.0,0.5,1.0,0.5,1.25,2.0,0.75,0.25,0.02,0.14,0.95,216.66,-12.0,12.2
4.76,0.0,0.0,1.25,0.5,0.0,0.0,0.25,0.75,0.0,0.0,1.0,0.0,0.0,-0.17,0.08,0.95,57.11,16.4,2.7,1.25,1.75,2.75,1.25,1.0,1.0,0.5,1.0,0.5,1.5,1.75,0.5,0.25,0.02,0.14,0.95,220.95,-10.8,17.4
4.78,0.0,0.0,1.0,0.5,0.0,0.0,0.25,0.75,0.0,0.0,0.75,0.0,0.0,-0.17,0.08,0.95,54.49,15.1,3.9,1.25,1.75,2.75,0.75,0.5,1.0,0.25,1.25,0.5,1.5,2.0,0.75,0.25,0.02,0.14,0.95,215.92,-10.5,9.7
4.8,0.0,0.0,1.25,0.25,0.0,0.0,0.25,0.75,0.0,0.0,1.25,0.0,0.0,-0.17,0.08,0.95,55.32,16.0,-6.4,1.25,1.75,2.25,0.75,0.5,1.0,0.0,1.0,0.5,1.25,1.75,0.75,0.25,0.02,0.14,0.95,206.41,-10.2,11.6
4.82,0.0,0.0,0.75,0.5,0.0,0.0,0.25,0.75,0.0,0.0,1.0,0.0,0.0,-0.17,0.08,0.95,52.9,12.8,-6.8,1.25,1.75,2.25,1.25,0.25,1.0,0.25,0.5,0.5,1.5,2.0,0.75,0.25,0.02,0.14,0.95,199.84,-11.5,11.4
4.84,0.0,0.0,1.25,0.5,0.0,0.0,0.25,0.75,0.0,0.0,1.0,0.0,0.0,-0.17,0.14,0.95,54.19,16.4,2.7,1.25,1.75,3.25,1.25,1.0,1.0,0.25,1.0,0.5,1.25,2.0,0.75,0.25,0.02,0.14,0.95,204.94,-11.9,16.8
4.86,0.0,0.0,0.75,0.5,0.0,0.0,0.25,0.75,0.0,0.25,1.0,0.0,0.0,-0.17,0.08,0.95,53.14,10.7,-11.9,1.25,1.75,2.25,1.0,0.0,1.25,0.25,1.25,0.5,1.5,1.5,0.75,0.5,0.02,0.14,0.95,203.27,-9.1,8.0
4.88,0.0,0.0,1.0,0.5,0.0,0.0,0.25,0.75,0.0,0.0,0.75,0.0,0.0,-0.17,0.08,0.95,52.21,15.1,3.9,1.25,1.75,2.75,1.25,1.25,1.0,0.5,1.25,0.5,1.5,1.75,0.5,0.5,0.02,0.14,0.95,211.02,-9.7,15.1
4.9,0.0,0.0,1.0,0.5,0.0,0.0,0.25,0.75,0.0,0.0,1.0,0.0,0.0,-0.17,0.14,0.95,52.44,14.7,-1.6,1.25,1.75,2.75,1.0,0.5,1.0,0.25,0.75,0.5,1.5,1.5,0.75,0.25,0.02,0.14,0.95,209.02,-11.6,15.4
4.92,0.0,0.0,1.0,0.5,0.0,0.0,0.25,0.75,0.0,0.0,0.75,0.0,0.0,-0.17,0.14,0.95,51.18,15.1,3.9,1.25,1.75,2.5,1.5,0.5,1.0,0.5,1.25,0.5,1.25,1.75,0.75,0.25,0.02,0.14,0.95,211.09,-10.9,14.4
4.94,0.0,0.0,1.0,0.5,0.0,0.0,0.0,0.75,0.0,0.0,1.0,0.0,0.0,-0.17,0.08,0.95,51.14,14.1,-2.7,1.25,1.75,2.75,1.0,1.25,1.0,0.25,1.0,0.5,1.5,2.0,0.75,0.5,0.02,0.14,0.95,214.34,-9.8,11.7
4.96,0.0,0.25,1.25,0.5,0.0,0.0,0.25,0.75,0.0,0.0,1.0,0.0,0.0,-0.17,0.08,0.95,54.76,16.2,9.0,1.25,1.75,2.5,1.25,0.5,1.0,0.25,0.5,0.5,1.5,2.0,0.75,0.25,0.02,0.14,0.95,211.78,-11.7,13.2
4.98,0.0,0.0,1.0,0.5,0.0,0.0,0.0,0.75,0.0,0.0,1.0,0.0,0.25,-0.17,0.14,0.95,55.83,12.1,-10.5,1.25,1.75,2.75,1.25,0.25,1.0,0.5,1.0,0.5,1.5,1.25,0.75,0.25,0.02,0.14,0.95,210.01,-11.7,16.1
5.0,0.0,0.0,1.25,0.5,0.0,0.0,0.0,0.75,0.0,0.0,1.0,0.0,0.0,-0.17,0.08,0.95,56.86,15.9,1.8,1.25,1.75,2.25,0.75,0.25,1.0,0.5,1.0,0.5,1.5,1.5,0.75,0.25,0.02,0.14,0.95,201.95,-10.4,11.0
5.02,0.0,0.0,1.25,0.5,0.0,0.0,0.25,0.75,0.0,0.0,1.25,0.0,0.0,-0.17,0.08,0.95,58.75,16.1,-2.1,1.25,1.75,2.25,1.25,0.0,1.0,0.5,1.25,0.5,1.25,1.75,0.75,0.5,0.02,0.14,0.95,199.66,-10.5,8.7
5.04,0.0,0.0,1.25,0.5,0.0,0.0,0.0,0.5,0.0,0.0,1.0,0.0,0.0,-0.17,0.08,0.95,57.22,18.4,4.9,1.25,1.75,2.5,1.0,0.5,1.0,0.25,1.0,0.5,1.5,1.25,0.75,0.5,0.02,0.14,0.95,197.52,-10.1,12.8
5.06,0.0,0.0,1.5,0.5,0.0,0.0,0.25,0.75,0.0,0.0,0.75,0.0,0.0,-0.17,0.08,0.95,58.06,18.3,11.9,1.25,1.75,3.0,1.0,1.0,1.25,0.25,1.25,0.5,1.0,1.75,0.75,0.5,0.02,0.14,0.95,204.79,-10.4,15.5
5.08,0.0,0.0,1.25,0.5,0.0,0.0,0.25,0.75,0.0,0.0,1.0,0.0,0.0,-0.17,0.08,0.95,57.86,16.4,2.7,1.25,1.75,2.0,1.0,0.0,1.0,0.25,1.0,0.5,1.25,1.75,0.75,0.25,0.02,0.14,0.95,198.77,-10.6,9.8
5.1,0.0,0.0,1.5,0.5,0.0,0.0,0.25,0.5,0.0,0.0,0.75,0.0,0.0,-0.17,0.14,0.95,58.06,20.9,15.7,1.25,1.75,2.0,0.75,1.25,1.25,0.5,1.25,0.5,1.5,2.0,0.5,0.25,0.02,0.14,0.95,204.01,-7.8,12.1
5.12,0.0,0.0,1.25,0.5,0.0,0.0,0.25,0.75,0.0,0.0,1.0,0.0,0.0,-0.11,0.08,0.95,57.97,16.4,2.7,1.25,1.75,2.75,1.0,0.25,1.25,0.25,1.25,0.5,1.25,1.5,0.5,0.25,0.02,0.14,0.95,200.39,-10.8,16.9
5.14,0.0,0.0,0.75,0.75,0.0,0.0,0.0,0.5,0.0,0.0,1.0,0.0,0.0,-0.17,0.08,0.95,54.68,14.9,0.0,1.25,1.75,2.75,1.0,0.5,1.0,0.5,1.25,0.5,1.25,1.75,0.75,0.0,0.02,0.14,0.95,203.74,-11.7,15.9
5.16,0.0,0.0,1.25,0.5,0.0,0.0,0.25,0.75,0.0,0.0,1.0,0.0,0.0,-0.17,0.08,0.95,55.12,16.4,2.7,1.25,1.75,2.75,1.25,0.5,1.0,0.25,1.0,0.5,1.5,2.0,0.75,0.25,0.02,0.14,0.95,205.58,-11.2,12.2
5.18,0.0,0.0,1.5,0.5,0.0,0.0,0.0,0.75,0.0,0.0,1.25,0.0,0.0,-0.17,0.08,0.95,57.08,17.0,1.0,1.25,1.75,2.0,1.0,0.25,1.25,0.25,1.25,0.5,1.0,1.75,0.75,0.25,0.02,0.14,0.95,203.18,-9.6,11.9
5.2,0.0,0.0,1.25,0.5,0.0,0.0,0.25,0.75,0.0,0.0,1.0,0.0,0.0,-0.17,0.14,0.95,58.3,16.4,2.7,1.25,1.75,2.25,0.75,1.0,1.0,0.25,1.25,0.5,1.5,1.75,0.75,0.25,0.02,0.14,0.95,205.01,-8.9,11.1
5.22,0.0,0.0,1.0,0.5,0.0,0.0,0.0,0.75,0.0,0.0,1.0,0.0,0.0,-0.17,0.08,0.95,57.03,14.1,-2.7,1.25,1.75,2.75,1.5,0.25,1.0,0.5,0.75,0.5,1.5,1.5,0.75,0.5,0.02,0.14,0.95,205.42,-11.8,14.0
5.24,0.0,0.0,1.25,0.5,0.0,0.0,0.25,0.75,0.0,0.0,1.0,0.0,0.0,-0.17,0.08,0.95,56.92,16.4,2.7,1.25,1.75,2.75,1.0,1.0,1.0,0.5,1.25,0.5,1.25,2.0,0.5,0.25,0.02,0.14,0.95,210.66,-10.7,15.8
5.26,0.0,0.0,1.0,0.5,0.0,0.0,0.25,0.75,0.0,0.0,1.25,0.0,0.0,-0.17,0.08,0.95,56.21,14.5,-6.6,1.25,1.75,2.25,1.0,0.25,1.0,0.5,1.25,0.5,1.5,1.5,0.75,0.0,0.02,0.14,0.95,206.08,-10.5,13.3
5.28,0.0,0.0,1.0,0.5,0.0,0.0,0.25,0.75,0.0,0.0,1.0,0.0,0.0,-0.17,0.14,0.95,55.5,14.7,-1.6,1.25,1.75,3.25,1.0,0.5,1.0,0.25,1.25,0.5,1.5,2.0,0.75,0.25,0.02,0.14,0.95,210.96,-11.5,12.3
5.3,0.0,0.0,0.75,0.75,0.0,0.0,0.0,0.25,0.0,0.0,1.0,0.0,0.0,-0.17,0.08,0.95,51.29,17.7,3.5,1.25,1.75,3.5,1.25,0.5,1.0,0.5,1.0,0.5,1.5,1.5,0.75,0.25,0.02,0.14,0.95,213.56,-12.7,17.7
5.32,0.0,0.0,1.25,0.5,0.0,0.0,0.0,0.75,0.0,0.0,1.0,0.0,0.0,-0.17,0.08,0.95,51.88,15.9,1.8,1.25,1.75,2.75,1.25,0.25,1.25,0.5,1.0,0.5,1.5,1.75,0.75,0.25,0.02,0.14,0.95,216.21,-11.1,13.4
5.34,0.0,0.0,1.0,0.5,0.0,0.0,0.0,0.75,0.0,0.0,1.0,0.0,0.0,-0.17,0.08,0.95,50.81,14.1,-2.7,1.25,1.75,1.75,1.25,1.0,1.0,0.5,1.25,0.5,1.5,1.5,0.75,0.25,0.02,0.14,0.95,212.82,-8.3,12.6
5.36,0.0,0.0,1.25,0.5,0.0,0.0,0.25,0.75,0.0,0.0,0.75,0.0,0.0,-0.17,0.08,0.95,52.19,16.8,8.2,1.25,1.75,2.5,1.25,1.0,1.0,0.25,1.25,0.5,1.25,1.5,0.75,0.5,0.02,0.14,0.95,213.95,-9.7,14.4
5.38,0.0,0.0,1.0,0.5,0.0,0.0,0.25,0.75,0.0,0.0,1.25,0.0,0.0,-0.17,0.08,0.95,53.84,14.5,-6.6,1.25,1.75,2.5,1.0,0.25,1.0,0.5,1.0,0.5,1.25,0.5,0.5,0.25,0.02,0.14,0.95,202.63,-11.7,24.3
5.4,0.0,0.0,1.25,0.5,0.0,0.0,0.25,0.75,0.0,0.0,1.0,0.0,0.0,-0.17,0.08,0.95,55.45,16.4,2.7,1.25,1.75,2.0,1.25,0.5,1.0,0.25,1.25,0.5,1.5,1.75,0.75,0.25,0.02,0.14,0.95,200.26,-9.2,10.1
5.42,0.0,0.0,1.25,0.5,0.0,0.0,0.25,0.75,0.0,0.0,1.0,0.0,0.0,-0.17,0.08,0.95,56.61,16.4,2.7,1.25,1.75,2.75,1.25,0.25,1.25,0.0,1.25,0.5,1.5,1.5,0.5,0.5,0.02,0.14,0.95,200.67,-9.8,13.6
5.44,0.0,0.0,1.25,0.5,0.0,0.0,0.25,0.75,0.0,0.0,1.0,0.0,0.0,-0.17,0.14,0.95,57.98,16.4,2.7,1.25,1.75,2.5,1.25,0.0,1.0,0.25,0.25,0.5,1.25,1.5,0.75,0.25,0.02,0.14,0.95,195.1,-13.5,17.6
5.46,0.0,0.25,0.75,0.5,0.0,0.0,0.0,0.0,0.0,0.0,0.75,0.0,0.0,-0.17,0.08,0.95,51.68,21.7,21.1,1.0,1.75,2.75,1.0,0.0,1.0,0.5,1.25,0.5,1.5,1.5,0.75,0.0,0.02,0.14,0.95,192.85,-11.4,12.8
5.48,0.0,0.0,1.25,0.5,0.0,0.0,0.25,0.75,0.0,0.0,0.75,0.0,0.0,-0.17,0.08,0.95,50.97,16.8,8.2,1.25,1.75,2.75,1.25,1.0,1.0,0.5,1.0,0.5,1.5,2.0,0.75,0.25,0.02,0.14,0.95,200.85,-10.8,13.9
5.5,0.0,0.0,1.25,0.5,0.0,0.0,0.25,0.5,0.0,0.0,1.0,0.0,0.0,-0.17,0.08,0.95,50.63,18.9,5.7,1.25,1.75,1.75,1.25,0.25,1.25,0.25,1.25,0.5,1.25,1.5,0.75,0.5,0.02,0.14,0.95,200.74,-8.3,9.5
5.52,0.0,0.0,1.0,0.5,0.0,0.0,0.0,0.75,0.0,0.0,1.0,0.0,0.0,-0.17,0.08,0.95,51.88,14.1,-2.7,1.25,1.75,2.5,1.25,1.5,1.25,0.5,1.25,0.5,1.0,1.5,0.75,0.5,0.02,0.14,0.95,208.92,-9.3,17.7
5.54,0.0,0.0,1.0,0.5,0.0,0.0,0.25,0.75,0.0,0.0,1.0,0.0,0.0,-0.17,0.08,0.95,52.61,14.7,-1.6,1.25,1.75,2.5,1.0,0.5,1.25,0.5,1.25,0.5,1.5,1.75,0.75,0.0,0.02,0.14,0.95,210.41,-10.1,13.8
5.56,0.0,0.0,1.25,0.5,0.0,0.0,0.25,0.75,0.0,0.0,1.0,0.0,0.0,-0.17,0.08,0.95,54.48,16.4,2.7,1.25,1.75,1.75,1.25,1.25,1.0,0.5,1.25,0.5,1.5,2.0,0.75,0.5,0.02,0.14,0.95,215.99,-7.8,8.5
5.58,0.0,0.0,1.25,0.5,0.0,0.0,0.25,0.75,0.0,0.0,1.0,0.0,0.0,-0.17,0.08,0.95,56.03,16.4,2.7,1.25,1.75,2.5,1.25,0.25,1.0,0.5,1.25,0.5,1.5,1.75,0.75,0.25,0.02,0.14,0.95,213.4,-10.7,11.2
5.6,0.0,0.25,1.25,0.5,0.0,0.0,0.25,0.75,0.0,0.0,1.0,0.0,0.0,-0.17,0.14,0.95,58.7,16.2,9.0,1.25,1.75,2.25,0.75,0.5,1.25,0.25,1.25,0.5,1.25,1.5,0.75,0.25,0.02,0.14,0.95,209.59,-9.3,12.8
5.62,0.0,0.0,1.25,0.0,0.0,0.0,0.0,0.25,0.0,0.0,0.75,0.0,0.0,-0.17,0.08,0.95,52.19,23.3,6.1,1.25,1.75,2.75,1.25,0.25,1.25,0.25,1.0,0.5,1.5,1.5,0.75,0.25,0.02,0.14,0.95,208.03,-10.9,14.8
5.64,0.0,0.0,1.25,0.5,0.0,0.0,0.25,0.75,0.0,0.0,0.75,0.0,0.0,-0.17,0.08,0.95,51.99,16.8,8.2,1.25,1.75,2.5,1.25,0.25,1.25,0.5,1.0,0.5,1.25,0.75,0.75,0.25,0.02,0.14,0.95,201.58,-11.1,20.7
5.66,0.0,0.0,1.25,0.5,0.0,0.0,0.25,0.5,0.0,0.0,1.25,0.0,0.0,-0.17,0.08,0.95,52.09,18.3,0.3,1.25,1.75,2.5,1.0,0.25,1.0,0.5,1.0,0.5,1.5,0.75,0.75,0.25,0.02,0.14,0.95,196.93,-11.1,17.8
5.68,0.0,0.0,1.25,0.5,0.0,0.0,0.25,0.5,0.0,0.0,0.75,0.0,0.0,-0.17,0.08,0.95,53.01,19.5,12.0,1.25,1.75,2.25,0.75,0.5,1.25,0.5,1.25,0.5,1.5,1.75,0.75,0.25,0.02,0.14,0.95,197.3,-9.1,9.8
5.7,0.0,0.0,1.25,0.5,0.0,0.0,0.25,0.5,0.0,0.0,1.0,0.0,0.0,-0.17,0.08,0.95,54.09,18.9,5.7,1.25,1.75,1.75,1.25,0.25,1.25,0.25,1.0,0.5,1.5,1.75,0.5,0.25,0.02,0.14,0.95,194.08,-8.8,11.8
5.72,0.0,0.0,1.25,0.5,0.0,0.0,0.25,0.75,0.0,0.0,1.0,0.0,0.0,-0.17,0.08,0.95,55.2,16.4,2.7,1.25,1.75,2.25,1.0,0.25,1.0,0.5,1.25,0.5,1.5,2.0,0.75,0.25,0.02,0.14,0.95,195.37,-10.0,7.9
5.74,0.0,0.0,1.25,0.5,0.0,0.0,0.25,0.75,0.0,0.0,1.0,0.0,0.0,-0.17,0.14,0.95,56.53,16.4,2.7,1.25,1.75,2.25,1.25,0.5,1.25,0.5,1.0,0.5,1.0,1.25,0.75,0.0,0.02,0.14,0.95,194.92,-11.2,21.5
5.76,0.0,0.0,1.5,0.5,0.0,0.0,0.25,0.75,0.0,0.0,1.25,0.0,0.0,-0.17,0.08,0.95,60.05,17.4,1.7,1.25,1.75,2.25,1.25,0.5,1.25,0.5,1.25,0.5,1.5,1.75,0.75,0.5,0.02,0.14,0.95,200.43,-8.9,9.5
5.78,0.0,0.0,1.25,0.5,0.0,0.0,0.25,0.5,0.0,0.0,0.5,0.0,0.0,-0.17,0.08,0.95,57.17,20.2,19.2,1.25,1.75,1.75,1.0,0.5,1.25,0.5,1.25,0.5,1.25,2.0,0.75,0.25,0.02,0.14,0.95,201.14,-8.6,8.9
5.8,0.0,0.0,1.25,0.5,0.0,0.0,0.25,0.5,0.0,0.0,0.5,0.0,0.0,-0.17,0.08,0.95,53.94,20.2,19.2,1.25,1.75,1.75,1.25,1.0,1.0,0.5,1.0,0.5,1.5,1.25,0.75,0.25,0.02,0.14,0.95,202.36,-8.7,15.1
5.82,0.0,0.0,1.5,0.5,0.0,0.0,0.25,0.5,0.0,0.0,1.25,0.0,0.0,-0.17,0.08,0.95,54.92,19.6,4.3,1.25,1.75,2.25,1.0,0.25,1.25,0.5,1.0,0.5,1.5,1.5,0.75,0.5,0.02,0.14,0.95,201.87,-9.5,10.0
5.84,0.0,0.0,1.5,0.5,0.0,0.0,0.25,0.5,0.0,0.0,1.0,0.0,0.0,-0.17,0.08,0.95,56.61,20.2,9.6,1.25,1.75,2.5,1.25,0.25,1.25,0.5,1.0,0.5,1.25,1.5,0.75,0.25,0.02,0.14,0.95,202.47,-11.1,15.6
5.86,0.0,0.0,1.5,0.5,0.0,0.0,0.0,0.75,0.0,0.0,1.0,0.0,0.0,-0.17,0.08,0.95,59.7,17.4,5.9,1.25,1.75,1.75,1.25,0.5,1.0,0.5,1.25,0.5,1.5,1.75,0.75,0.25,0.02,0.14,0.95,201.57,-8.8,9.3
5.88,0.0,0.0,1.5,0.5,0.0,0.0,0.25,0.75,0.0,0.0,1.0,0.0,0.0,-0.17,0.08,0.95,60.92,17.8,6.5,1.25,1.75,2.25,0.75,0.0,1.0,0.25,0.5,0.5,1.5,1.75,0.75,0.25,0.02,0.14,0.95,195.83,-11.6,10.1
5.9,0.0,0.0,1.25,0.5,0.0,0.0,0.25,0.75,0.0,0.0,1.0,0.0,0.0,-0.17,0.08,0.95,61.0,16.4,2.7,1.25,1.75,2.75,1.25,1.25,1.25,0.5,1.25,0.5,1.25,2.0,0.75,0.25,0.02,0.14,0.95,206.0,-10.0,15.5
5.92,0.0,0.0,1.25,0.5,0.0,0.0,0.25,0.5,0.0,0.0,1.0,0.0,0.0,-0.11,0.08,0.95,58.86,18.9,5.7,1.25,1.75,1.75,1.0,0.5,1.25,0.5,1.0,0.5,1.25,1.75,0.75,0.25,0.02,0.14,0.95,202.76,-9.0,11.3
5.94,0.0,0.0,1.25,0.0,0.0,0.0,0.25,0.5,0.0,0.0,0.5,0.0,0.0,-0.17,0.08,0.95,51.19,20.9,10.8,1.0,1.75,2.25,1.25,1.25,1.25,0.5,1.5,0.5,1.5,1.75,0.75,0.5,0.02,0.14,0.95,213.2,-7.5,9.8
5.96,0.0,0.0,1.25,0.5,0.0,0.0,0.25,0.5,0.0,0.0,1.0,0.0,0.0,-0.17,0.08,0.95,50.0,18.9,5.7,1.25,1.75,1.75,0.75,0.25,1.25,0.25,0.5,0.5,1.5,1.75,0.75,0.5,0.02,0.14,0.95,203.98,-9.0,7.0
5.98,0.0,0.0,1.25,0.5,0.0,0.0,0.25,0.5,0.0,0.25,0.75,0.0,0.0,-0.17,0.08,0.95,49.59,16.9,5.5,1.25,1.75,2.0,1.25,0.25,1.25,0.5,1.75,0.5,1.5,1.0,0.75,0.0,0.02,0.14,0.95,203.27,-8.5,14.9
6.0,0.0,0.0,1.0,0.5,0.0,0.0,0.25,0.75,0.0,0.0,1.0,0.0,0.0,-0.17,0.08,0.95,51.44,14.7,-1.6,1.25,1.75,2.25,1.25,0.5,1.0,0.25,1.0,0.5,1.5,1.5,0.75,0.5,0.02,0.14,0.95,198.82,-9.7,11.2
6.02,0.0,0.0,1.25,0.5,0.0,0.0,0.25,0.5,0.0,0.0,0.75,0.0,0.0,-0.17,0.08,0.95,52.03,19.5,12.0,1.25,1.75,2.25,1.0,1.25,1.25,0.25,1.25,0.5,1.25,2.0,0.75,0.25,0.02,0.14,0.95,206.33,-8.7,13.1
6.04,0.0,0.0,1.25,0.5,0.0,0.0,0.25,0.75,0.0,0.0,1.0,0.0,0.0,-0.17,0.08,0.95,53.86,16.4,2.7,1.25,1.75,2.5,1.0,0.5,1.0,0.5,1.25,0.5,1.5,1.5,0.75,0.25,0.02,0.14,0.95,207.34,-10.2,12.7
6.06,0.0,0.0,1.25,0.5,0.0,0.0,0.0,0.75,0.0,0.0,0.75,0.0,0.0,-0.17,0.08,0.95,52.68,16.2,7.5,1.25,1.75,2.25,1.5,1.0,1.25,0.5,1.0,0.5,1.5,1.25,0.75,0.25,0.02,0.14,0.95,211.9,-9.4,17.8
6.08,0.0,0.0,1.25,0.5,0.0,0.0,0.25,0.75,0.0,0.0,1.0,0.0,0.0,-0.17,0.14,0.95,54.66,16.4,2.7,1.25,1.75,2.5,1.0,0.5,1.25,0.5,1.0,0.5,1.0,1.5,0.75,0.5,0.02,0.14,0.95,209.56,-10.7,14.9
6.1,0.0,0.0,1.25,0.5,0.0,0.0,0.0,0.0,0.0,0.0,0.5,0.0,0.0,-0.17,0.08,0.95,49.28,27.6,31.5,1.25,1.75,2.25,1.0,0.5,1.0,0.5,1.0,0.5,1.25,1.5,0.75,0.25,0.02,0.14,0.95,205.05,-10.7,14.4
6.12,0.0,0.0,1.25,0.5,0.0,0.0,0.25,0.5,0.0,0.0,1.0,0.0,0.0,-0.17,0.08,0.95,50.2,18.9,5.7,1.25,1.75,2.25,1.25,0.25,1.0,0.5,1.0,0.5,1.5,1.75,0.75,0.25,0.02,0.14,0.95,201.69,-10.6,11.2
6.14,0.0,0.0,1.25,0.5,0.0,0.0,0.25,0.5,0.0,0.0,1.0,0.0,0.0,-0.17,0.08,0.95,50.49,18.9,5.7,1.25,1.75,1.5,1.25,1.25,1.25,0.25,1.0,0.5,1.25,2.0,0.75,0.25,0.02,0.14,0.95,201.22,-7.7,12.2
6.16,0.0,0.0,1.25,0.5,0.0,0.0,0.25,0.75,0.0,0.0,1.0,0.0,0.0,-0.17,0.08,0.95,54.33,16.4,2.7,1.25,1.75,2.25,1.5,0.25,1.25,0.25,0.5,0.5,1.5,1.75,0.75,0.5,0.02,0.14,0.95,203.04,-10.5,11.9
6.18,0.0,0.0,1.25,0.5,0.0,0.0,0.25,0.5,0.0,0.0,0.75,0.0,0.0,-0.17,0.08,0.95,54.23,19.5,12.0,1.25,1.75,2.25,1.25,0.5,1.0,0.5,1.0,0.5,1.5,1.25,0.75,0.25,0.02,0.14,0.95,201.84,-10.3,15.2
6.2,0.0,0.0,1.25,0.5,0.0,0.0,0.25,0.5,0.0,0.0,1.0,0.0,0.0,-0.17,0.08,0.95,54.44,18.9,5.7,1.0,1.75,2.5,1.25,0.5,1.25,0.25,1.0,0.5,1.5,2.0,0.75,0.5,0.02,0.14,0.95,206.3,-9.3,8.2
