time,left pressure 0[N/cm²],left pressure 1[N/cm²],left pressure 2[N/cm²],left pressure 3[N/cm²],left pressure 4[N/cm²],left pressure 5[N/cm²],left pressure 6[N/cm²],left pressure 7[N/cm²],left pressure 8[N/cm²],left pressure 9[N/cm²],left pressure 10[N/cm²],left pressure 11[N/cm²],left pressure 12[N/cm²],left acceleration X[g],left acceleration Y[g],left acceleration Z[g],left total force[N],left center of pressure X[mm],left center of pressure Y[mm],right pressure 0[N/cm²],right pressure 1[N/cm²],right pressure 2[N/cm²],right pressure 3[N/cm²],right pressure 4[N/cm²],right pressure 5[N/cm²],right pressure 6[N/cm²],right pressure 7[N/cm²],right pressure 8[N/cm²],right pressure 9[N/cm²],right pressure 10[N/cm²],right pressure 11[N/cm²],right pressure 12[N/cm²],right acceleration X[g],right acceleration Y[g],right acceleration Z[g],right total force[N],right center of pressure X[mm],right center of pressure Y[mm]
0.02,0.0,0.0,1.25,0.5,0.0,0.0,0.0,0.0,0.0,0.0,0.5,0.0,0.25,0.95,4.02,-0.23,30.93,23.5,17.2,7.0,2.0,7.0,8.25,8.75,6.0,5.25,1.0,0.0,0.0,0.25,0.25,0.0,0.2,0.7,2.14,958.33,-13.2,56.5
0.04,0.0,0.0,1.0,0.25,0.0,0.0,0.0,0.0,0.0,0.0,0.0,0.0,0.0,0.95,4.64,-0.48,32.73,34.0,60.3,7.5,2.25,4.0,6.5,6.5,6.0,4.25,1.0,0.75,1.5,0.0,1.0,0.0,0.39,1.14,2.52,819.45,-11.0,48.4
0.06,0.0,0.0,1.0,0.25,0.0,0.0,0.0,0.0,0.0,0.25,0.0,2.0,0.75,0.77,0.64,1.27,45.91,10.9,-56.7,5.25,0.75,1.75,3.5,4.75,4.25,2.5,0.0,0.0,1.0,0.25,0.25,0.0,0.45,1.02,2.27,599.4,-9.9,52.3
0.08,0.0,0.0,0.0,0.5,0.0,0.0,0.0,0.0,0.25,3.25,2.25,3.25,2.75,0.27,0.45,2.14,105.34,-2.0,-86.0,2.75,1.25,0.5,2.0,3.5,2.75,1.0,0.25,0.0,0.0,0.0,0.25,0.0,0.7,0.89,2.33,382.04,-7.2,57.6
0.1,0.0,0.0,0.25,0.25,0.0,0.0,0.0,0.0,0.0,2.75,3.0,2.0,2.75,-0.48,0.52,2.7,150.73,-1.6,-84.2,0.0,0.0,0.25,0.5,0.5,0.0,0.0,0.5,0.0,0.0,0.0,0.0,0.0,0.77,-0.36,2.39,194.43,-4.6,30.9
0.12,0.0,0.0,0.0,0.0,0.0,0.0,0.0,0.0,0.0,0.0,4.0,1.75,2.5,-0.23,0.27,1.7,172.64,2.6,-93.6,0.25,0.25,0.0,0.75,0.0,2.25,0.0,0.0,0.0,0.0,0.0,0.0,0.0,0.77,-0.3,0.95,41.2,6.9,48.8
0.14,0.0,0.0,0.25,0.0,0.0,0.0,0.0,0.0,0.0,5.0,0.0,1.5,2.5,-0.11,0.14,1.02,180.54,-9.7,-86.7,0.0,0.25,0.0,0.5,1.0,2.25,0.0,0.0,0.0,0.0,0.0,0.25,0.0,1.08,-1.86,1.89,0.0,8.8,37.7
0.16,0.0,0.0,0.0,1.25,0.0,0.0,0.25,1.75,1.0,6.25,5.75,1.5,2.5,-0.11,0.14,0.95,227.19,-2.5,-68.1,0.0,0.5,0.0,0.0,0.5,2.25,0.0,0.0,0.0,0.0,0.0,0.0,0.0,0.33,-0.61,1.08,0.0,13.6,47.9
0.18,0.0,0.0,0.0,0.5,0.0,0.0,0.5,2.5,0.75,5.5,5.5,2.0,2.75,-0.11,0.08,0.95,264.12,-3.3,-73.0,0.0,0.25,0.0,0.0,0.5,2.25,0.0,0.25,0.0,0.0,0.0,0.0,0.0,0.33,-0.36,0.77,0.0,16.0,37.1
0.2,0.0,0.0,0.0,1.5,0.0,0.0,1.5,3.5,0.75,5.0,6.5,1.5,3.75,-0.11,0.08,0.95,311.03,-2.1,-64.4,0.0,0.0,0.0,0.0,0.25,2.25,0.0,0.5,0.0,0.0,0.0,0.25,0.0,0.27,-0.23,0.58,0.0,17.6,13.0
0.22,0.0,0.0,0.0,1.25,0.0,0.0,1.75,3.5,0.5,4.75,5.5,0.75,2.75,-0.11,0.08,0.95,328.62,-2.6,-61.1,1.25,0.5,0.0,2.0,0.0,2.75,0.0,1.25,0.0,1.5,0.0,1.0,0.0,0.14,-0.23,0.77,0.0,1.1,10.2
0.24,0.0,0.0,1.5,1.25,0.0,0.5,2.0,3.0,0.0,3.5,3.5,0.75,1.5,-0.11,0.08,0.95,311.63,1.1,-41.0,0.0,0.25,0.5,0.0,0.25,2.0,0.0,1.5,0.0,0.0,0.75,0.25,0.0,-0.05,-0.17,0.95,0.0,6.7,-0.6
0.26,0.0,1.0,0.0,2.5,0.0,0.5,2.25,3.0,0.0,2.0,3.25,0.0,1.25,-0.11,0.08,0.95,276.87,1.1,-23.7,0.0,0.0,0.0,0.0,0.0,1.75,0.0,1.0,0.0,0.0,0.0,0.25,0.0,-0.05,-0.05,1.08,0.53,18.0,-3.3
0.28,0.0,0.0,0.0,3.75,0.0,0.5,2.75,2.5,0.0,1.75,2.25,0.0,0.25,-0.11,0.08,0.95,239.78,4.0,-11.4,0.0,0.25,0.0,0.0,0.25,1.75,0.0,1.0,0.0,0.0,0.25,0.25,0.0,0.08,0.14,1.08,17.08,12.8,3.5
0.3,0.0,1.0,0.0,4.75,0.0,1.25,3.0,1.75,0.0,0.25,1.25,0.0,0.25,-0.11,0.08,0.95,208.66,7.8,21.7,0.0,0.0,0.0,0.0,0.5,1.5,0.0,1.25,0.0,0.75,0.0,0.25,0.0,0.14,0.27,1.39,40.52,15.2,-12.5
0.32,0.0,0.0,5.5,4.5,0.0,0.0,3.5,1.75,0.0,0.25,0.5,0.0,0.0,-0.11,0.08,1.02,199.75,22.3,37.2,0.0,0.25,0.0,0.0,0.0,1.75,0.0,1.25,0.0,0.0,0.0,0.0,0.0,0.2,0.33,1.64,48.5,17.5,10.5
0.34,0.0,1.0,0.0,6.5,0.0,0.0,3.5,1.75,0.0,0.25,1.25,0.0,0.25,-0.17,0.14,1.02,197.23,12.3,25.8,0.0,0.25,0.0,0.0,0.0,1.75,0.0,1.0,0.0,0.0,0.0,0.25,0.0,0.27,0.52,1.83,55.76,15.5,4.9
0.36,0.0,0.0,0.0,6.25,0.0,0.0,5.5,1.75,0.0,0.75,0.0,0.0,0.25,-0.11,0.14,0.95,189.73,12.8,25.0,0.0,0.0,0.0,0.0,0.0,1.5,0.0,1.0,0.0,0.0,0.0,0.25,0.0,0.27,0.7,2.52,48.77,17.6,-6.6
0.38,0.0,1.25,7.25,8.0,0.0,0.0,4.25,1.75,0.25,0.0,0.5,0.0,0.0,-0.11,0.14,0.95,222.89,22.6,46.6,0.0,0.0,0.0,0.0,0.0,1.25,0.0,0.75,0.0,0.0,0.25,0.0,0.0,0.33,1.14,3.14,39.54,17.0,-3.2
0.4,0.0,1.25,7.5,8.0,0.0,0.0,4.25,2.0,0.0,0.25,1.5,0.0,0.25,-0.11,0.14,0.95,258.29,21.2,38.7,0.0,0.25,0.0,0.0,0.0,1.5,0.0,1.25,0.0,0.0,0.0,0.25,0.0,0.39,2.33,2.45,38.31,15.1,-0.6
0.42,0.0,1.25,7.0,9.0,0.0,0.0,4.25,0.75,0.0,0.0,1.25,0.0,0.0,-0.11,0.2,0.95,291.98,23.7,47.8,1.0,0.25,0.0,0.0,0.0,1.25,0.0,0.75,0.0,0.0,0.0,0.25,0.0,0.02,3.08,1.33,40.76,0.4,29.9
0.44,0.0,1.0,8.25,8.0,0.0,0.0,4.5,1.5,0.0,0.0,0.0,0.0,0.25,-0.11,0.2,0.95,313.95,23.9,49.4,0.0,0.25,0.0,0.0,0.0,1.25,0.0,1.25,0.0,0.0,2.0,0.25,0.5,-0.98,3.45,0.39,53.9,5.3,-39.5
0.46,0.0,1.25,8.5,9.25,0.0,0.0,4.0,0.5,0.0,0.0,0.0,0.0,0.0,-0.11,0.2,0.95,333.14,25.8,56.6,0.0,0.0,0.0,0.0,0.5,1.25,0.0,0.75,0.0,0.0,0.0,0.25,0.0,-2.05,4.14,-0.11,50.89,14.2,5.3
0.48,0.0,1.25,8.75,9.25,0.0,0.0,4.5,0.25,0.0,0.0,0.0,0.0,0.0,-0.11,0.2,0.95,341.1,26.5,57.4,0.0,0.25,0.5,0.0,0.0,1.25,0.0,1.25,0.0,0.25,0.75,0.25,0.0,-2.36,3.95,-0.73,62.8,4.2,-11.8
0.5,0.0,1.25,8.75,10.5,0.0,0.0,5.0,0.25,0.0,0.0,0.0,0.0,0.0,-0.11,0.2,0.89,353.41,26.0,57.2,0.0,0.25,0.0,0.0,0.25,1.25,0.0,1.25,0.0,0.0,0.75,1.0,0.25,-0.48,-0.73,0.7,67.68,6.5,-32.2
0.52,1.5,1.25,8.25,11.0,0.0,0.0,5.25,0.5,0.0,0.0,0.0,0.0,0.0,-0.11,0.27,0.95,372.79,25.7,58.2,0.0,0.25,0.0,0.0,0.0,1.25,0.0,1.25,0.0,6.5,3.0,3.75,3.0,1.08,0.2,1.08,151.65,6.5,-76.2
0.54,4.5,1.0,0.0,11.5,0.0,0.0,5.5,0.0,0.0,0.0,0.0,0.0,0.25,-0.17,0.27,1.08,358.24,22.2,62.2,0.0,0.0,0.0,0.0,0.0,1.25,0.0,1.75,0.75,7.75,6.25,3.75,4.75,-0.23,0.83,3.2,251.82,5.2,-78.3
0.56,7.0,0.0,8.75,11.5,0.0,0.0,5.75,0.0,0.0,0.25,0.0,0.0,0.0,-0.17,0.27,1.14,392.12,28.3,63.5,0.0,0.0,0.0,0.0,0.0,2.25,0.0,4.25,0.75,8.0,7.5,3.25,3.5,0.33,0.45,2.02,351.42,6.1,-69.3
0.58,7.0,0.0,9.75,11.5,0.0,0.0,6.0,0.0,0.0,0.25,0.0,0.0,0.25,-0.17,0.33,1.2,432.03,28.3,61.9,0.25,0.0,0.0,1.25,0.0,4.5,0.0,5.0,1.0,8.0,7.75,3.0,3.25,0.08,0.14,0.95,450.39,6.0,-55.1
0.6,7.0,0.0,9.75,9.25,0.0,0.0,6.0,0.25,0.0,0.25,0.0,0.0,0.0,-0.17,0.33,1.39,461.2,29.1,62.8,1.5,0.25,0.75,2.0,2.25,5.25,1.25,5.25,1.25,7.5,7.75,3.0,3.75,0.08,0.08,0.95,554.0,2.9,-36.0
0.62,7.5,0.0,9.25,9.0,0.0,0.0,6.0,0.0,0.0,0.25,0.5,0.0,0.0,-0.23,0.45,1.64,463.81,29.3,62.0,1.5,1.25,1.0,4.5,2.75,6.0,2.25,5.5,1.5,7.75,7.5,3.0,2.5,0.08,0.14,0.95,645.91,0.9,-22.2
0.64,7.5,0.0,8.0,6.25,0.0,0.0,5.0,0.0,0.0,0.25,0.5,0.0,0.0,-0.36,0.7,2.39,438.63,30.1,63.3,2.75,2.25,3.75,4.5,5.75,6.5,4.0,6.25,1.5,6.75,7.5,2.75,2.5,0.14,0.08,0.95,781.72,-2.2,-6.0
0.66,6.75,0.0,7.0,4.25,0.0,0.0,3.5,0.0,0.0,0.0,0.0,0.0,0.0,-0.67,1.14,2.52,380.48,31.9,69.2,4.0,2.25,5.5,4.75,6.5,7.0,4.5,6.0,1.25,5.5,6.0,2.0,2.0,0.14,0.08,0.95,903.94,-4.2,6.0
0.68,4.5,0.0,5.75,2.0,0.0,0.0,2.0,0.0,0.0,0.25,0.5,0.0,0.0,-0.36,0.64,2.83,302.23,31.7,62.1,4.0,2.25,5.75,6.25,7.5,7.5,4.75,5.5,1.25,3.5,3.75,1.25,1.0,0.14,0.08,0.95,980.03,-5.4,20.0
0.7,0.0,0.0,3.75,0.0,0.0,0.0,0.0,0.0,0.0,0.0,0.0,0.0,0.0,-0.67,-0.23,2.58,208.08,38.2,61.0,4.0,2.25,6.0,7.0,8.25,7.75,4.75,5.25,1.0,3.0,2.25,1.0,0.5,0.14,0.14,0.95,1001.64,-5.8,27.5
0.72,0.0,0.0,3.25,0.0,0.0,0.0,0.0,0.0,0.0,0.0,0.0,0.0,0.0,-0.55,-0.98,1.27,112.6,38.2,61.0,4.0,2.25,6.25,7.75,8.5,8.0,4.25,5.25,0.5,1.5,2.0,0.25,0.75,0.08,0.08,1.02,980.04,-6.2,33.9
0.74,0.0,0.0,0.0,0.0,0.0,0.0,0.0,0.0,0.0,0.0,0.0,0.0,0.0,-0.23,-1.67,2.08,13.32,0.0,0.0,2.75,0.75,5.5,6.25,8.0,7.75,3.25,4.25,0.0,1.5,0.25,0.25,0.25,0.14,0.14,0.95,866.43,-4.6,37.0
0.76,0.0,0.0,1.25,0.0,0.0,0.0,2.25,0.0,1.25,0.0,0.0,0.0,0.0,-0.17,-1.11,2.14,0.0,27.5,16.7,2.75,1.25,5.5,6.5,9.25,7.75,2.5,4.0,0.0,1.0,0.0,0.25,0.25,0.08,0.14,0.95,765.91,-4.6,41.1
0.78,0.0,0.0,3.5,1.75,0.0,0.0,0.0,0.0,0.0,0.25,0.75,0.0,0.0,-0.23,-0.67,1.08,0.0,27.0,39.3,2.75,1.5,5.75,6.25,8.25,7.5,1.25,2.75,0.0,0.5,0.25,0.25,0.0,0.14,0.2,0.95,669.74,-6.0,45.8
0.8,0.0,0.0,1.5,0.0,0.0,0.0,4.0,0.0,0.0,0.0,0.75,0.0,0.0,-0.42,-0.3,0.58,0.0,30.8,21.9,3.0,1.5,4.25,6.75,8.25,7.5,2.25,2.75,0.25,0.0,0.75,0.25,0.0,0.08,0.2,0.89,609.64,-5.7,45.0
0.82,0.0,0.0,2.5,0.25,0.0,0.0,0.0,0.0,1.5,0.0,0.5,0.0,0.0,-0.42,-0.17,0.52,0.0,26.3,16.3,3.5,1.5,5.0,7.5,8.25,7.0,1.25,2.5,0.0,0.0,0.75,0.25,0.0,0.08,0.2,0.89,567.62,-7.1,47.7
0.84,0.0,0.0,0.0,0.0,0.0,0.0,4.0,0.0,2.25,0.0,0.75,0.0,0.0,-0.3,-0.23,0.83,3.24,19.9,-18.1,5.0,2.25,5.5,9.75,8.25,7.0,2.25,1.5,0.0,1.25,0.75,0.75,0.0,0.02,0.27,0.89,588.44,-9.1,47.3
0.86,0.0,0.0,0.25,0.75,0.0,0.0,4.0,0.0,0.0,0.0,0.5,0.0,0.0,-0.17,-0.23,1.2,10.91,26.3,22.4,5.25,2.25,6.25,8.25,8.5,7.0,3.0,2.75,0.0,0.25,0.75,0.25,0.0,0.02,0.27,0.89,612.89,-9.4,49.5
0.88,0.0,0.0,1.25,0.5,0.0,0.0,3.75,0.0,0.0,0.0,0.0,0.0,0.0,-0.11,-0.11,1.45,23.13,32.2,43.8,4.0,1.5,7.0,9.5,8.25,7.0,2.0,1.25,0.25,0.0,0.75,0.25,0.0,0.02,0.27,0.89,626.54,-10.4,51.3
0.9,0.0,0.0,2.5,1.25,0.0,0.0,0.0,0.0,0.0,0.0,1.0,0.0,0.0,0.02,0.2,1.7,45.18,27.1,32.9,5.25,1.75,7.75,10.0,9.0,7.0,3.25,1.25,0.0,0.0,0.5,0.25,0.0,0.02,0.27,0.89,664.35,-11.6,53.9
0.92,0.0,0.0,2.75,0.5,0.0,0.0,3.5,0.0,1.0,0.0,0.75,0.0,0.0,0.14,0.33,1.77,75.27,28.4,23.1,5.75,2.0,8.0,11.0,9.25,7.0,3.75,1.25,0.25,0.0,0.5,0.25,0.0,0.02,0.33,0.89,715.22,-12.1,54.0
0.94,0.0,0.0,1.75,1.5,0.0,0.0,0.0,0.0,2.25,0.0,0.75,0.25,0.0,0.08,0.52,1.95,97.12,20.2,5.0,5.75,2.5,9.5,13.0,9.5,7.0,4.25,1.0,0.0,0.0,2.0,0.75,0.0,0.02,0.33,0.95,805.23,-13.1,50.6
0.96,0.0,0.0,1.75,1.5,0.0,0.0,3.75,0.0,2.25,0.0,0.75,0.25,0.0,-0.11,0.7,2.45,116.29,22.8,9.8,7.0,3.0,9.5,15.0,9.25,6.5,5.5,1.25,0.75,1.5,0.25,1.0,0.0,0.02,0.33,1.08,922.91,-13.4,50.3
0.98,0.0,0.0,1.75,0.5,0.0,0.0,4.5,0.0,0.0,0.0,1.0,0.0,0.0,-0.36,1.08,3.14,114.19,29.0,23.1,7.5,2.25,11.0,13.5,9.25,5.25,6.0,1.0,0.0,0.0,0.25,0.25,0.0,0.02,0.39,1.08,996.79,-16.1,57.6
1.0,0.0,0.0,1.0,0.0,0.0,0.0,4.0,0.0,0.0,0.0,1.0,0.0,0.0,-0.36,1.77,2.52,97.59,28.6,10.7,8.0,2.25,11.0,13.5,9.25,4.75,6.25,0.5,0.25,0.25,0.5,0.25,0.0,0.02,0.39,1.08,1026.5,-16.7,57.3
1.02,0.0,0.0,1.0,0.25,0.0,0.0,3.5,0.0,0.0,0.0,0.0,0.0,0.0,0.39,2.58,1.58,75.69,33.1,41.7,8.0,2.25,12.0,12.0,9.25,2.5,6.5,0.0,0.0,0.0,0.25,0.25,0.0,0.02,0.52,1.33,999.21,-19.3,61.0
1.04,0.0,0.0,1.5,0.5,0.0,0.0,0.0,0.0,0.0,0.0,0.25,0.0,0.0,0.89,3.14,0.95,58.53,30.6,45.9,8.25,2.25,9.5,10.5,6.5,3.25,6.5,0.0,0.75,0.0,0.25,0.25,0.0,0.14,0.64,1.7,918.56,-19.2,59.8
1.06,0.0,0.0,1.5,0.25,0.0,0.0,0.25,0.0,0.0,0.0,0.25,0.0,0.0,0.83,3.64,-0.05,43.1,32.3,43.5,8.0,1.5,8.0,6.25,4.5,2.25,6.0,0.0,0.0,0.0,0.5,0.25,0.0,0.33,1.08,2.2,758.17,-21.4,61.3
1.08,0.0,0.0,1.5,0.5,0.0,0.0,0.0,0.0,0.0,0.0,0.0,0.0,0.0,0.7,4.2,-0.23,34.65,32.9,60.2,6.25,1.0,5.5,4.75,2.5,1.5,4.5,0.0,0.0,0.0,0.25,0.0,0.0,0.45,1.2,2.39,559.69,-22.7,64.0
1.1,0.0,0.0,0.5,0.5,0.0,0.0,0.0,0.0,0.0,0.0,0.0,0.0,0.0,0.64,0.89,0.39,24.05,27.6,59.4,3.25,0.25,3.0,2.0,4.5,2.0,3.0,1.25,0.75,0.0,2.0,0.25,0.25,0.45,0.83,2.45,391.95,-12.0,34.3
1.12,0.0,0.0,0.75,0.25,0.0,0.0,0.0,0.0,0.0,0.5,1.25,2.25,0.0,-0.3,-0.48,1.52,36.61,11.8,-62.7,1.5,0.0,2.25,1.25,3.75,0.0,1.0,0.0,0.0,0.0,0.0,0.25,0.0,0.77,-0.17,1.83,252.07,-16.2,56.6
1.14,0.0,0.0,0.0,0.25,0.0,0.0,0.0,0.0,0.0,3.0,3.0,3.0,3.75,-0.11,0.45,1.64,99.01,-2.8,-90.9,0.5,0.0,0.0,1.0,0.0,1.25,0.0,0.0,0.0,0.0,0.0,0.25,0.0,0.45,0.14,0.45,110.83,-3.2,40.5
1.16,0.0,0.0,0.0,0.5,0.0,0.0,0.0,0.0,0.25,0.0,0.0,0.0,5.0,-0.23,0.45,2.39,117.39,-9.8,-92.0,0.5,0.0,0.5,0.75,0.0,1.25,0.0,0.0,0.0,0.0,0.0,0.25,0.0,0.83,-1.05,1.45,0.0,-7.7,42.4
1.18,0.0,0.0,1.5,0.5,0.0,0.0,0.0,0.0,0.0,0.0,5.75,0.0,4.0,-0.23,0.39,1.89,156.83,6.1,-63.6,0.5,0.25,0.5,0.75,0.25,1.25,0.0,0.0,0.0,0.0,0.0,0.25,0.0,0.39,-0.55,1.33,0.0,-7.2,47.1
1.2,0.0,0.0,0.0,0.5,0.0,0.0,0.0,2.75,0.75,6.5,0.0,0.0,3.0,-0.11,0.14,0.95,183.74,-12.6,-68.7,0.25,0.25,0.5,0.75,0.0,1.25,0.0,0.0,0.0,0.0,0.0,0.25,0.0,0.33,-0.23,0.52,0.0,-6.1,42.9
1.22,0.0,0.0,0.0,1.75,0.0,0.0,0.25,4.5,1.0,7.0,6.25,2.5,4.75,-0.11,0.08,0.95,271.8,-4.2,-68.1,0.5,0.25,0.5,0.5,0.0,1.25,0.0,0.0,0.0,0.0,0.0,0.25,0.0,0.39,-0.23,0.2,0.0,-7.3,45.7
1.24,0.0,0.75,0.0,2.5,0.0,0.0,0.5,4.25,1.0,7.0,7.0,2.0,4.0,-0.11,0.08,0.95,343.29,-2.5,-58.4,0.0,0.0,0.0,0.0,0.0,1.25,0.0,0.0,0.0,0.0,0.0,0.0,0.0,0.33,-0.3,0.64,0.0,22.9,34.0
1.26,0.0,1.0,0.0,2.5,0.0,2.0,0.5,4.5,1.75,6.25,6.75,2.0,3.75,-0.11,0.08,0.95,424.9,-3.0,-49.7,0.0,0.25,0.5,0.0,0.25,1.25,0.0,0.0,0.0,0.0,0.0,0.25,0.0,0.08,-0.3,0.89,0.0,1.1,34.2
1.28,0.0,1.0,0.0,1.0,0.0,2.5,0.75,4.75,1.0,5.5,5.75,1.75,2.75,-0.11,0.08,0.95,445.99,-4.9,-49.9,0.25,0.25,0.5,0.25,0.0,1.25,0.0,0.0,0.0,0.0,0.0,0.25,0.0,-0.05,-0.17,0.83,0.0,-4.0,40.0
1.3,0.0,0.0,0.0,2.0,0.0,2.75,0.5,3.75,0.75,4.5,3.75,1.0,1.5,-0.11,0.08,0.95,406.01,-5.6,-42.3,0.25,0.25,0.5,0.25,0.0,1.25,0.0,0.0,0.0,0.0,0.0,0.0,0.0,-0.05,0.02,0.77,0.0,-3.5,55.2
1.32,0.0,0.75,0.0,2.5,0.0,3.0,0.5,3.5,0.5,2.25,3.0,0.0,1.25,-0.11,0.08,0.95,341.8,-4.5,-20.9,0.25,0.25,0.5,0.5,0.0,1.25,0.0,0.0,0.0,0.0,0.0,0.0,0.0,-0.05,0.08,0.95,0.0,-4.8,55.4
1.34,0.0,0.0,0.0,2.5,0.0,2.75,0.5,3.75,0.0,1.75,2.25,0.0,0.25,-0.11,0.08,0.95,278.57,-5.7,-16.7,0.0,0.25,0.25,0.0,0.0,1.0,0.0,0.0,0.0,0.0,0.0,0.0,0.0,-0.11,0.08,1.33,11.75,5.8,50.3
1.36,0.0,0.0,0.0,1.75,0.0,3.0,0.5,3.25,0.0,2.0,2.0,0.0,1.25,-0.11,0.08,0.95,232.25,-8.0,-26.5,0.0,0.25,0.25,0.0,0.0,1.25,0.0,0.0,0.0,0.0,0.0,0.0,0.0,-0.11,0.2,1.58,24.37,8.2,48.0
1.38,0.0,1.0,0.0,2.5,0.0,3.75,0.75,3.75,0.75,1.75,1.5,0.0,0.75,-0.11,0.08,0.95,210.69,-5.4,-7.2,1.25,1.0,0.5,1.25,0.0,1.25,0.0,1.25,0.0,0.0,1.5,0.25,0.0,-0.17,0.33,1.83,62.71,-8.0,21.8
1.4,0.0,1.0,0.0,4.0,0.0,4.5,0.75,3.5,0.75,1.75,2.25,0.0,0.5,-0.11,0.08,0.95,219.41,-3.3,-0.9,0.0,0.25,0.5,0.0,1.25,1.0,0.0,1.25,0.0,0.0,2.0,0.0,0.5,-0.3,0.58,2.58,84.58,1.5,-12.3
1.42,0.25,1.0,1.5,4.25,0.75,4.5,0.75,3.5,0.75,1.75,2.0,0.0,0.5,-0.11,0.14,0.95,236.41,0.2,8.4,0.0,0.25,0.25,0.0,0.5,1.25,0.0,0.0,0.0,0.0,0.0,0.0,0.0,-0.55,1.08,2.58,83.06,6.9,49.4
1.44,0.5,1.25,2.5,4.5,0.0,5.0,0.75,3.5,0.75,1.75,2.0,0.0,0.5,-0.11,0.14,0.95,257.8,2.3,12.1,1.25,1.0,0.25,0.5,0.0,1.0,0.0,0.0,0.0,1.5,0.0,0.75,0.0,-0.8,1.52,2.58,91.05,-5.5,16.0
1.46,1.5,1.25,3.25,4.5,5.75,5.25,1.0,3.75,0.75,1.75,1.75,0.0,0.5,-0.11,0.14,0.95,307.99,2.6,25.2,1.25,1.25,0.5,2.0,1.0,2.25,0.0,1.25,0.25,1.5,1.75,1.0,0.25,-1.23,2.02,2.14,135.25,-2.9,6.4
1.48,1.5,1.25,4.25,6.0,5.5,5.75,1.0,3.75,0.75,1.75,1.5,0.0,0.5,-0.11,0.14,0.95,381.12,4.0,28.4,0.0,0.25,0.5,0.0,1.0,1.25,0.0,0.0,0.25,1.5,0.0,1.0,0.0,-1.55,2.52,1.14,135.7,3.3,-12.4
1.5,0.0,1.25,4.0,6.25,6.5,6.0,1.0,4.0,0.5,1.75,1.5,0.0,0.5,-0.11,0.14,0.95,453.67,1.9,26.4,0.0,0.25,0.5,0.0,0.5,1.25,0.0,1.25,0.0,0.0,1.5,0.25,0.5,-1.67,2.89,0.2,133.23,2.6,-18.9
1.52,0.0,1.25,4.0,6.25,7.5,6.75,1.0,4.25,0.5,2.0,1.25,0.0,0.25,-0.11,0.14,0.95,518.91,1.1,27.9,0.0,0.25,0.0,0.0,0.0,1.0,0.0,0.0,0.0,0.25,0.0,0.5,0.0,-2.86,4.33,2.83,98.93,9.1,-8.1
1.54,0.75,1.25,4.0,7.0,7.75,6.75,1.0,4.25,0.5,1.5,0.25,0.0,0.25,-0.11,0.14,0.95,564.89,2.0,34.4,0.0,0.25,0.0,0.0,0.0,0.25,0.0,0.75,0.0,0.25,0.75,0.75,0.0,-1.17,0.77,0.52,74.76,1.4,-50.9
1.56,0.0,1.5,0.0,7.75,7.75,7.5,1.0,3.75,0.25,1.0,1.25,0.0,0.25,-0.11,0.14,1.02,564.6,-2.5,30.8,0.0,0.0,0.0,0.0,0.0,0.5,0.0,2.0,0.0,5.0,1.75,3.0,2.25,0.14,-0.3,0.89,117.46,7.5,-79.4
1.58,1.25,1.5,0.0,8.0,0.0,7.5,1.25,3.5,0.0,1.0,1.25,0.0,0.25,-0.11,0.14,1.02,501.16,-0.1,27.4,0.0,0.25,0.25,0.0,0.0,1.25,0.0,1.25,0.0,7.5,6.0,4.0,3.75,-0.42,0.52,2.52,215.57,4.4,-76.0
1.6,2.5,1.5,0.0,8.5,0.0,7.5,1.25,3.5,0.0,0.75,0.5,0.0,0.25,-0.11,0.14,1.08,441.97,1.6,35.2,0.0,0.25,0.0,0.0,0.0,0.0,0.0,2.75,0.75,8.0,7.25,3.75,3.25,0.27,0.39,2.14,298.56,3.7,-78.2
1.62,0.0,1.5,0.0,9.25,0.0,7.25,1.5,2.25,0.0,0.5,0.0,0.0,0.5,-0.17,0.2,1.08,374.1,0.0,35.6,0.25,0.0,0.0,0.0,0.0,0.0,0.0,4.0,0.75,8.0,7.25,3.5,3.25,-0.11,0.14,1.2,372.51,4.2,-76.2
1.64,0.0,1.5,0.0,9.75,0.0,6.5,1.5,2.0,0.0,0.25,0.0,0.0,0.0,-0.17,0.2,1.02,328.74,1.9,42.0,1.25,0.0,0.0,1.0,0.0,2.25,0.25,5.0,1.25,7.75,7.5,3.0,3.0,0.08,0.08,0.95,443.08,3.5,-56.3
1.66,3.25,0.5,6.5,9.0,0.0,5.5,1.25,1.75,0.0,0.0,0.0,0.0,0.0,-0.23,0.2,1.2,327.82,14.7,52.4,2.25,0.25,0.0,1.75,0.0,3.25,1.25,5.25,1.0,7.5,7.5,3.0,2.75,0.08,0.14,0.95,495.6,2.0,-44.3
1.68,3.75,1.25,6.5,9.0,0.0,0.0,1.5,0.25,0.0,0.0,0.75,0.0,0.0,-0.36,0.27,1.77,317.72,25.8,61.0,3.0,0.25,2.5,2.0,0.5,4.5,3.5,5.25,1.0,7.0,7.0,2.25,2.25,0.08,0.08,0.95,540.09,-1.7,-25.3
1.7,4.5,0.0,6.5,7.75,0.0,0.0,1.5,0.25,0.0,0.25,0.5,0.0,0.25,-0.42,0.33,2.08,301.7,26.6,57.9,3.5,1.25,3.75,4.0,1.75,5.25,5.25,5.25,1.5,6.25,6.25,2.0,1.5,0.08,0.08,0.95,618.11,-4.6,-6.8
1.72,4.0,0.0,5.5,4.5,0.0,0.0,1.25,0.0,0.0,0.0,0.5,0.0,0.0,-0.48,0.52,2.83,266.69,29.8,63.4,4.0,0.75,5.5,3.25,3.25,4.75,6.5,5.5,1.25,4.75,6.0,1.0,2.0,0.08,0.08,0.95,697.48,-6.4,0.6
1.74,0.0,0.0,4.0,3.0,0.0,0.0,1.75,0.25,0.0,0.25,0.0,0.0,0.0,-0.67,0.89,2.7,207.01,26.8,49.7,5.75,1.5,7.0,4.75,3.0,6.0,7.0,5.25,1.25,4.75,4.5,1.5,1.25,0.08,0.08,0.95,783.41,-8.6,12.6
1.76,1.0,0.0,3.25,2.5,0.0,0.0,0.25,0.0,0.0,0.0,0.5,0.0,0.0,-0.48,0.45,2.64,141.11,28.6,55.1,5.75,1.75,8.0,5.25,4.75,6.0,7.25,5.25,1.0,3.25,4.0,1.0,1.25,0.08,0.08,0.95,850.84,-9.5,21.0
1.78,0.0,0.0,0.0,3.0,0.0,0.0,0.0,0.0,1.75,1.0,0.0,0.0,0.0,-0.48,-0.98,2.02,84.99,10.1,6.7,5.75,2.0,8.0,6.25,5.25,6.0,7.25,4.25,0.75,2.75,3.0,1.0,0.75,0.08,0.08,0.95,882.15,-10.6,28.2
1.8,0.0,0.0,2.5,3.0,0.0,0.0,4.25,0.0,2.25,0.0,2.75,0.0,0.0,-0.73,-0.8,0.89,92.13,21.7,8.5,5.75,1.5,8.5,6.25,5.5,6.25,7.5,4.25,0.75,2.0,2.25,0.25,0.5,0.14,0.14,0.95,867.73,-11.2,34.1
1.82,0.0,0.0,1.5,0.5,0.0,0.0,0.0,0.0,0.0,0.0,0.0,0.0,0.0,-0.73,-1.3,1.58,56.55,32.9,60.2,6.25,1.75,8.75,6.5,5.75,6.25,7.5,4.0,0.75,1.0,2.0,0.25,0.5,0.08,0.14,0.95,852.54,-12.2,38.7
1.84,0.0,0.0,0.0,3.25,0.0,0.0,0.0,0.0,0.0,1.25,0.0,0.0,0.0,-0.17,-0.92,0.77,43.3,8.3,22.0,6.25,1.25,8.75,6.75,5.75,6.5,7.75,4.0,0.5,1.5,2.0,0.75,0.5,0.08,0.14,0.95,843.34,-11.8,35.8
1.86,0.0,0.0,0.0,0.0,0.0,0.0,0.0,0.0,2.25,0.0,1.25,0.0,0.0,-0.42,-0.61,0.52,15.21,11.7,-51.6,5.75,0.5,8.75,6.25,6.25,6.0,8.0,3.75,0.25,0.0,2.0,0.25,0.5,0.08,0.14,0.95,806.89,-12.8,40.2
1.88,0.0,0.0,1.5,1.25,0.0,0.0,0.0,0.0,0.0,0.0,0.0,0.0,0.0,-0.8,-0.42,0.39,2.42,28.6,59.5,5.25,1.0,9.25,6.25,5.0,6.5,7.75,2.75,0.25,0.0,1.5,0.25,0.0,0.08,0.14,0.89,756.54,-14.1,45.1
1.9,0.0,0.0,1.5,1.0,0.0,0.0,0.0,0.0,0.0,0.0,0.75,0.0,0.0,-0.67,-0.3,0.64,0.0,25.6,30.1,5.5,1.0,8.75,6.75,6.75,6.0,8.25,2.75,0.5,0.25,2.0,0.25,0.0,0.08,0.14,0.89,730.04,-13.4,43.3
1.92,0.0,0.0,2.25,0.25,0.0,0.0,0.0,0.0,0.0,0.0,0.0,0.0,0.0,-0.55,-0.17,1.02,3.2,36.1,60.6,5.75,1.25,9.25,7.5,7.0,6.25,8.25,2.75,0.5,0.25,2.0,0.25,0.0,0.08,0.2,0.95,728.3,-13.6,44.3
1.94,0.0,0.0,1.0,0.5,0.0,0.0,0.0,0.0,0.0,0.0,0.0,0.0,0.0,-0.73,0.02,1.14,5.58,31.1,59.9,5.75,1.25,8.75,8.25,6.5,6.75,8.25,2.0,0.5,0.25,0.25,0.25,0.0,0.08,0.2,0.95,721.91,-13.8,50.0
1.96,0.0,0.0,0.25,0.25,0.0,0.0,0.0,0.0,0.0,0.0,0.0,0.0,0.0,-0.98,0.33,1.02,2.1,27.6,59.4,5.5,1.25,9.0,8.25,6.5,0.0,8.25,1.5,0.5,0.0,0.0,0.25,0.0,0.08,0.2,0.89,672.65,-20.6,55.2
1.98,0.0,0.0,0.5,0.25,0.0,0.0,0.0,0.0,0.0,0.0,0.5,0.0,0.0,-1.3,0.7,0.89,3.2,23.3,7.9,5.5,1.25,9.25,8.5,6.75,6.5,8.25,1.5,0.25,0.0,0.5,0.25,0.0,0.08,0.2,0.89,669.16,-14.6,51.5
2.0,0.0,0.0,1.5,1.25,0.0,0.0,0.25,0.0,0.0,0.0,0.5,0.0,0.0,-1.61,0.77,1.27,14.25,26.2,39.5,6.5,1.0,9.5,9.5,7.25,6.75,8.25,1.5,0.25,0.0,0.75,0.25,0.0,0.08,0.2,0.95,690.82,-14.7,51.6
2.02,0.0,0.0,1.5,0.5,0.0,0.0,0.0,0.0,0.0,0.0,0.5,0.0,0.0,-1.73,0.83,1.27,23.16,28.7,34.4,6.5,1.25,11.0,9.75,8.25,6.5,8.5,1.5,0.0,0.0,0.75,0.25,0.0,0.08,0.27,0.89,753.64,-15.3,52.7
2.04,0.0,0.0,1.5,0.5,0.0,0.0,0.0,0.0,0.0,0.0,0.5,0.0,0.0,-1.8,0.95,1.2,30.79,28.7,34.4,6.75,1.0,9.75,9.75,7.5,7.0,8.0,1.5,0.0,0.5,0.75,0.25,0.0,0.08,0.27,0.95,796.22,-14.3,51.1
2.06,0.0,0.0,1.5,0.5,0.0,0.0,0.0,0.0,0.0,0.0,0.5,0.0,0.0,-1.73,1.14,1.02,41.46,28.7,34.4,7.0,1.25,10.5,10.0,7.0,7.0,7.75,2.0,0.0,0.25,0.5,0.25,0.0,0.08,0.33,0.95,834.06,-14.8,52.1
2.08,0.0,0.0,2.25,0.5,0.0,0.0,0.0,0.0,0.0,0.0,0.5,0.0,0.0,-1.61,1.14,0.89,45.51,30.9,40.6,7.25,1.25,11.0,10.0,7.5,6.5,8.0,1.75,0.0,0.0,0.75,0.25,0.0,0.14,0.39,0.89,852.86,-15.6,53.0
2.1,0.0,0.0,1.5,0.5,0.0,0.0,0.0,0.0,0.0,0.0,0.5,0.0,0.0,-1.42,1.14,0.7,45.99,28.7,34.4,7.5,0.75,11.0,10.0,6.75,6.0,7.75,1.75,0.0,0.0,0.75,0.25,0.0,0.27,0.52,0.89,854.57,-16.4,52.9
2.12,0.0,0.0,1.25,0.5,0.0,0.0,0.0,0.0,0.0,0.0,0.0,0.0,0.0,-1.3,1.2,0.7,43.17,32.1,60.1,7.75,1.5,12.0,10.0,6.5,6.25,8.0,2.75,0.75,0.0,1.5,1.0,0.25,0.45,0.64,0.83,888.1,-15.8,46.2
2.14,0.0,0.0,1.5,0.5,0.0,0.0,0.0,0.0,0.0,0.0,0.75,0.0,0.0,-0.98,1.39,0.64,43.81,27.1,24.9,7.75,0.5,11.0,9.5,5.5,5.5,7.75,2.5,0.25,0.25,1.75,0.25,0.25,0.45,0.58,0.89,871.43,-16.5,47.2
2.16,0.0,0.0,0.5,0.5,0.0,0.0,0.0,0.0,0.0,0.0,0.0,0.0,0.0,-0.86,1.33,0.52,35.6,27.6,59.4,8.0,0.5,11.0,8.25,4.5,4.5,7.0,1.25,0.0,1.5,0.0,0.75,0.0,0.39,0.45,0.89,822.8,-18.2,50.7
2.18,0.0,0.0,0.75,0.5,0.0,0.0,0.0,0.0,0.0,0.0,0.5,0.0,0.0,-0.86,1.08,0.39,32.81,24.6,22.9,8.0,0.5,11.0,7.75,4.25,3.75,7.0,1.5,0.0,0.25,0.0,0.75,0.0,0.2,0.33,0.89,751.07,-19.8,54.1
2.2,0.0,0.0,1.75,0.5,0.0,0.0,0.0,0.0,0.0,0.0,0.5,0.0,0.0,-0.98,0.58,0.64,35.12,29.6,36.9,7.5,0.5,10.5,6.0,1.25,2.75,6.75,1.25,0.0,0.25,0.0,0.25,0.0,0.2,0.33,0.83,638.38,-23.5,57.0
2.22,0.0,0.0,1.75,0.25,0.0,0.0,0.0,0.0,0.0,0.0,0.0,0.0,0.0,-1.55,0.77,0.08,35.31,35.6,60.6,7.0,0.25,10.5,6.25,2.75,3.0,6.25,1.25,0.0,1.5,1.5,0.75,0.25,0.39,0.45,0.77,566.99,-19.6,43.5
2.24,0.0,0.0,0.25,0.5,0.0,0.0,0.0,0.0,0.0,0.0,0.5,0.0,0.0,-0.92,-0.11,0.2,29.38,19.0,7.5,7.0,1.25,8.25,4.5,0.0,2.5,4.5,1.25,0.75,1.5,0.0,0.75,0.0,0.52,0.52,0.83,474.53,-21.4,47.8
2.26,0.0,0.0,1.25,0.5,0.0,0.0,0.0,0.0,0.0,0.0,0.0,0.0,0.0,-1.36,0.08,0.45,29.18,32.1,60.1,4.25,0.0,7.0,2.0,0.0,1.25,3.25,0.5,0.0,0.0,0.0,0.25,0.0,0.33,0.45,1.08,355.22,-27.9,58.8
2.28,0.0,0.0,1.0,2.5,0.0,0.0,0.0,0.0,0.0,0.0,0.5,0.0,0.0,-1.3,0.02,0.7,41.29,21.7,43.0,2.75,0.25,5.0,0.75,0.0,1.0,1.5,0.0,0.0,0.0,0.0,0.25,0.0,0.27,0.08,0.95,244.09,-28.8,61.9
2.3,0.0,0.0,1.5,2.5,0.0,0.0,0.0,0.25,0.0,0.0,0.5,0.0,0.0,-0.92,0.02,0.89,57.94,21.4,40.7,2.0,0.0,2.75,0.75,0.0,0.5,0.0,0.0,0.0,0.0,0.0,0.25,0.0,-0.05,0.45,1.08,129.45,-28.8,62.8
2.32,0.0,0.0,0.5,2.5,0.0,0.0,0.0,0.5,0.0,0.0,0.0,0.0,0.0,-0.3,0.27,0.89,66.88,15.5,45.0,1.5,0.25,2.0,0.5,0.0,0.5,0.0,0.0,0.0,0.0,0.0,0.25,0.0,0.45,0.58,0.83,30.06,-26.5,61.9
2.34,0.0,1.0,0.0,1.75,0.0,1.75,0.0,0.5,0.0,0.0,0.0,0.0,0.25,-0.05,0.2,1.14,80.71,-0.9,41.1,1.25,0.25,1.75,0.5,0.0,0.25,0.0,0.0,0.0,0.0,0.0,0.25,0.0,0.2,0.52,0.77,0.0,-28.0,61.5
2.36,0.0,0.0,0.0,0.5,0.0,8.25,3.5,5.25,0.5,0.5,0.0,0.25,0.0,-0.11,0.2,1.2,142.22,-12.3,3.2,1.25,0.25,0.5,0.5,0.0,1.0,0.0,0.0,0.0,0.0,0.0,0.0,0.0,-0.05,0.27,0.95,0.0,-15.0,68.5
2.38,0.0,1.25,0.0,2.5,0.0,8.0,0.0,6.5,0.0,1.75,0.0,0.0,0.0,-0.3,0.08,1.02,208.14,-12.5,7.7,1.0,0.25,1.5,0.25,0.0,0.5,0.25,0.0,0.0,0.0,0.0,0.25,0.0,-0.05,0.33,0.83,0.0,-24.7,56.8
2.4,0.0,1.0,0.0,2.25,4.75,7.75,0.0,6.25,0.0,1.75,0.0,0.0,0.25,-0.23,0.14,0.95,280.32,-10.9,15.5,1.0,0.5,0.5,0.0,0.0,0.25,0.25,0.0,0.0,0.0,0.0,0.25,0.0,-0.05,0.27,0.83,0.0,-23.1,61.4
2.42,0.0,0.75,0.0,1.25,3.25,8.25,0.0,6.5,1.0,1.25,0.5,0.0,0.25,-0.23,0.08,0.95,324.22,-11.8,7.3,1.5,0.5,0.5,0.0,0.0,0.5,0.25,0.25,0.0,0.0,0.25,0.0,0.0,-0.17,0.08,0.95,0.0,-18.9,60.0
2.44,0.0,1.0,1.0,1.0,3.25,7.5,0.0,7.0,0.0,2.0,1.25,0.0,0.75,-0.17,0.08,0.95,361.24,-10.0,2.7,0.5,0.25,0.5,0.25,0.0,0.5,0.0,0.0,0.0,0.0,0.0,0.25,0.0,-0.42,-0.05,0.89,0.0,-15.8,47.9
2.46,0.0,0.5,0.75,0.5,0.0,7.0,0.0,7.0,0.0,1.75,1.25,0.0,0.5,-0.17,0.14,0.95,345.03,-12.9,-10.4,0.5,0.25,0.5,0.0,0.0,0.25,0.0,0.0,0.0,0.0,0.0,0.0,0.0,-0.48,-0.05,0.95,0.0,-22.9,75.0
2.48,0.0,1.0,0.0,0.5,0.0,6.75,0.0,7.0,0.0,2.0,1.25,0.0,0.5,-0.17,0.14,0.95,323.48,-14.3,-11.8,0.5,0.25,0.5,0.0,1.5,0.5,0.75,0.0,0.0,0.0,0.25,0.25,0.0,-0.42,-0.11,0.83,0.38,-9.1,40.9
2.5,0.0,1.0,0.0,0.5,0.0,6.75,0.0,7.0,0.0,2.0,0.5,0.0,0.5,-0.23,0.14,0.89,294.76,-15.3,-9.2,0.5,0.25,0.5,0.0,0.0,0.25,0.0,0.0,0.0,0.0,0.0,0.0,0.0,-0.36,-0.11,0.95,16.14,-22.9,75.0
2.52,0.0,0.75,0.0,0.5,0.0,6.5,0.0,7.0,0.0,2.0,1.25,0.0,0.75,-0.23,0.14,0.89,280.15,-14.5,-15.3,0.25,0.25,0.5,0.0,0.0,0.25,0.0,0.0,0.0,0.5,0.0,0.25,0.0,-0.3,-0.23,1.14,25.32,-10.0,11.4
2.54,0.0,1.0,0.75,0.5,0.0,6.5,0.0,7.0,0.0,2.25,1.25,0.0,1.0,-0.17,0.14,0.95,274.77,-12.1,-12.8,0.25,0.5,0.25,0.0,0.0,0.5,0.0,0.0,0.75,1.5,0.0,0.0,0.0,-0.23,-0.17,1.08,34.97,0.2,-9.7
2.56,0.0,1.0,1.0,0.75,0.0,6.25,0.0,7.25,0.0,3.0,0.75,0.0,1.25,-0.17,0.14,0.95,276.73,-11.7,-13.9,0.25,0.25,0.5,0.0,0.0,0.0,0.75,1.25,0.0,0.0,1.75,0.25,0.0,-0.11,-0.11,0.95,48.11,-9.2,-25.0
2.58,0.0,1.0,1.25,0.75,0.0,6.0,0.0,7.25,0.0,3.5,1.5,0.0,1.25,-0.23,0.14,0.95,279.62,-10.4,-16.9,0.25,0.25,0.5,1.25,0.0,2.0,0.0,0.0,0.75,0.0,0.0,0.0,0.5,-0.11,-0.17,0.89,65.13,-2.2,24.7
2.6,0.0,0.75,0.5,0.5,0.0,5.75,0.0,7.5,0.0,3.5,1.25,0.5,1.25,-0.23,0.14,0.89,274.03,-12.5,-24.4,1.5,1.25,0.5,0.0,0.0,0.25,1.0,1.25,0.0,0.0,1.75,0.0,0.0,-0.11,-0.11,0.77,87.43,-13.4,20.5
2.62,0.0,0.25,0.0,0.5,0.0,5.75,0.0,7.5,0.0,3.75,1.5,0.75,1.25,-0.23,0.14,0.95,272.36,-13.9,-31.8,0.0,0.25,0.5,0.0,0.0,0.25,0.0,0.0,0.0,0.0,0.0,0.0,0.0,-0.17,-0.05,0.95,73.32,-17.4,64.4
2.64,0.0,0.75,0.0,0.5,0.0,5.5,0.0,7.5,0.0,5.0,1.5,0.75,1.75,-0.23,0.14,0.95,277.32,-13.3,-33.6,0.25,0.25,0.5,0.0,0.0,0.0,0.0,0.0,0.0,0.0,0.0,0.0,0.0,-0.17,-0.05,1.14,54.97,-30.9,79.2
2.66,0.0,0.75,0.0,0.5,0.0,5.0,0.0,7.75,0.0,5.0,2.25,0.75,2.5,-0.17,0.14,0.95,291.61,-12.4,-38.7,1.25,1.25,0.5,0.0,0.0,0.25,1.0,1.25,0.0,0.0,1.5,0.0,0.25,0.02,-0.11,1.02,62.99,-11.7,16.2
2.68,0.0,0.75,0.0,0.5,0.0,5.0,0.0,7.5,0.0,5.0,2.25,0.75,2.5,-0.17,0.14,0.95,304.56,-12.4,-38.7,0.25,0.25,0.5,0.0,0.0,0.0,0.0,0.0,0.0,0.0,0.0,0.0,0.0,0.08,-0.05,0.77,50.15,-30.9,79.2
2.7,0.0,0.5,0.0,0.5,0.0,4.5,0.0,7.5,0.0,5.25,2.25,1.25,2.75,-0.23,0.08,0.95,321.67,-12.1,-44.1,1.25,1.25,0.5,2.0,0.0,0.0,0.5,1.0,0.0,0.0,1.75,0.25,0.25,0.08,0.02,0.64,81.45,-14.2,21.0
2.72,0.0,0.5,0.0,0.5,0.0,4.0,0.0,7.5,0.0,6.0,3.0,1.75,3.25,-0.23,0.08,0.95,339.27,-11.0,-49.8,1.25,1.25,0.75,2.0,0.5,1.75,1.0,1.25,0.5,1.5,1.75,0.75,0.25,0.14,0.08,0.7,130.23,-5.8,6.5
2.74,0.0,0.0,0.0,0.5,0.0,3.25,0.0,7.25,0.0,6.0,3.0,2.0,3.75,-0.17,0.08,0.95,350.99,-10.9,-57.1,0.25,0.25,0.5,0.0,0.0,0.0,0.0,0.0,0.0,0.0,0.0,0.0,0.0,0.14,0.14,0.77,117.65,-30.9,79.2
2.76,0.0,0.0,0.0,0.5,0.0,3.0,0.0,7.25,0.25,6.25,3.0,2.0,4.25,-0.17,0.08,0.95,363.02,-10.7,-58.9,0.5,0.5,0.5,0.0,0.25,0.25,0.75,0.0,0.0,0.0,0.5,0.0,0.0,0.64,-0.36,1.2,97.23,-18.5,43.6
2.78,0.0,0.0,0.0,0.75,0.0,2.25,0.0,7.0,0.25,6.25,3.5,2.5,4.5,-0.17,0.08,0.95,373.29,-9.3,-62.1,0.75,0.5,0.5,0.75,0.25,1.25,0.75,0.0,0.5,0.25,0.5,0.25,0.0,-0.05,-0.05,1.33,83.31,-9.8,27.5
2.8,0.0,0.0,0.0,0.5,0.0,2.0,0.0,7.0,0.25,6.25,4.0,3.0,5.25,-0.17,0.08,0.95,388.55,-8.9,-66.4,1.25,1.25,1.25,2.0,0.5,1.5,1.0,1.25,0.75,1.5,2.0,0.75,0.25,-0.48,0.27,1.52,127.95,-7.6,5.9
2.82,0.0,0.0,1.25,0.5,0.0,2.0,0.0,6.5,0.5,6.75,4.5,3.25,5.25,-0.17,0.08,0.95,410.14,-6.3,-61.9,1.25,1.25,1.0,2.0,0.5,1.25,1.0,1.0,0.75,1.5,2.0,0.75,0.25,0.02,0.39,0.7,165.67,-7.9,5.2
2.84,0.0,0.0,1.0,0.5,0.0,1.25,0.0,6.5,0.5,6.5,4.75,3.75,5.75,-0.17,0.08,0.95,433.38,-5.9,-66.8,1.75,1.25,1.75,2.0,0.5,1.75,1.0,1.0,0.5,1.5,1.5,0.75,0.25,0.08,0.33,0.95,210.85,-9.2,15.2
2.86,0.0,0.0,1.25,0.5,0.0,1.5,0.0,6.0,0.5,6.25,4.75,3.25,5.5,-0.17,0.08,0.89,440.53,-5.6,-64.1,0.25,0.25,0.5,0.25,0.0,0.25,1.0,1.0,0.0,0.0,1.75,0.0,0.0,-0.05,0.2,1.08,187.29,-10.1,-10.8
2.88,0.0,0.0,1.5,0.5,0.0,1.25,0.0,5.5,0.75,6.0,5.5,3.0,5.0,-0.17,0.14,1.02,435.03,-4.2,-63.0,1.0,0.5,1.75,0.75,0.5,1.25,1.0,0.0,0.0,0.0,0.75,0.25,0.0,0.02,0.2,1.08,163.06,-16.3,41.3
2.9,0.0,0.0,0.0,0.5,0.0,0.5,0.0,5.25,0.75,6.25,5.5,3.25,5.25,-0.17,0.08,0.95,420.45,-6.1,-73.8,0.5,0.5,0.5,0.0,0.0,1.5,0.75,1.25,0.0,0.0,1.25,0.25,0.0,0.02,0.14,1.08,122.94,-2.6,3.1
2.92,0.0,1.25,1.5,1.0,0.0,0.25,0.0,5.0,0.75,6.25,5.75,4.0,5.25,-0.11,0.08,0.95,424.1,-2.0,-59.7,0.25,0.0,0.0,0.0,0.25,1.25,1.0,1.25,0.0,0.0,2.0,0.0,0.0,0.02,0.14,1.02,104.05,0.8,-19.1
2.94,0.0,0.0,1.75,1.25,0.0,0.5,0.5,4.75,0.75,6.25,5.25,4.0,5.25,-0.17,0.14,0.95,423.88,-2.1,-62.9,1.0,0.5,0.0,0.0,0.0,2.0,1.0,0.5,0.5,0.0,0.75,0.25,0.0,0.08,0.14,1.02,86.82,-3.3,17.1
2.96,0.0,0.5,0.0,1.5,0.0,0.5,0.5,4.75,1.0,6.25,0.0,4.0,4.5,-0.17,0.14,0.95,390.39,-6.9,-63.0,1.0,0.5,0.0,0.75,0.0,2.25,1.0,1.25,0.5,1.5,2.0,0.5,0.0,0.08,0.14,0.95,108.61,-0.6,-10.2
2.98,0.0,0.5,0.5,2.0,0.0,0.5,0.5,4.75,1.0,6.0,0.0,3.5,4.5,-0.11,0.14,0.95,359.81,-5.7,-56.5,0.5,0.5,0.0,0.75,0.0,2.25,1.0,1.5,0.75,1.5,2.0,0.25,0.0,0.08,0.08,0.95,131.36,1.2,-14.1
3.0,0.0,0.25,0.75,1.0,0.0,0.0,0.5,4.5,1.0,5.5,2.25,3.5,4.5,-0.17,0.14,0.95,332.45,-4.2,-65.4,0.5,0.5,0.5,0.5,0.0,2.25,1.0,1.5,0.75,2.0,2.0,0.75,0.0,0.08,0.14,0.95,145.76,0.1,-19.2
3.02,0.0,0.75,0.0,1.25,0.0,0.0,0.5,4.5,0.75,5.25,4.75,3.5,5.0,-0.11,0.08,0.95,329.2,-3.7,-66.6,0.5,0.5,0.5,0.5,0.0,2.25,1.0,2.0,0.75,2.5,3.0,0.75,0.25,0.08,0.14,0.95,162.88,0.7,-27.6
3.04,0.0,0.0,0.75,0.0,0.0,0.75,0.5,3.75,2.75,5.0,4.5,3.0,4.5,-0.17,0.08,0.95,329.41,-3.0,-68.2,0.25,0.5,0.5,0.25,0.0,2.25,1.0,2.75,0.75,3.25,3.25,1.0,0.25,0.08,0.08,0.95,183.82,2.8,-36.0
3.06,0.0,0.0,1.25,0.0,0.0,0.0,0.5,3.75,0.0,0.0,4.0,0.0,1.75,-0.17,0.14,0.95,272.43,1.0,-50.3,0.25,0.5,0.5,0.25,0.0,2.25,1.0,2.75,0.75,3.25,3.25,1.0,0.5,0.08,0.08,0.95,206.1,3.0,-37.2
3.08,0.0,0.25,0.0,1.0,0.0,0.0,0.0,0.0,0.75,5.0,0.0,2.75,0.0,-0.17,0.14,0.95,213.9,-2.4,-63.4,1.25,1.25,0.0,0.25,0.0,2.75,1.25,2.75,1.0,4.75,3.75,2.25,0.5,0.08,0.08,0.95,243.52,1.6,-34.5
3.1,0.0,0.0,0.5,1.25,0.0,0.0,0.75,3.5,0.5,4.5,4.0,3.0,4.0,-0.17,0.14,0.95,209.34,-2.6,-66.9,0.0,0.5,0.75,0.0,2.25,2.25,1.0,3.25,0.75,3.5,4.25,1.0,1.0,0.08,0.08,0.95,270.04,3.3,-31.2
3.12,0.0,0.25,1.25,1.0,0.0,0.0,1.0,3.5,0.75,4.75,0.0,3.0,3.75,-0.17,0.14,0.95,214.38,-3.4,-58.0,0.0,0.5,0.0,0.0,0.0,2.25,1.0,2.75,0.75,3.5,4.25,1.25,1.25,0.08,0.08,0.95,274.39,4.8,-50.8
3.14,0.0,0.0,1.0,1.25,0.0,0.0,1.0,3.5,0.75,4.5,3.75,3.0,3.0,-0.11,0.14,0.95,243.42,-0.9,-60.8,0.0,0.5,1.0,0.0,1.0,2.25,0.75,2.75,0.75,3.75,4.0,1.0,1.0,0.08,0.08,0.95,275.06,2.9,-36.8
3.16,0.0,0.0,1.5,0.0,0.0,0.0,1.0,3.5,0.0,0.0,4.0,0.0,3.0,-0.11,0.08,0.95,226.1,1.2,-52.8,0.0,0.5,0.25,0.0,0.0,2.25,0.5,2.75,0.5,3.25,4.0,1.25,1.25,0.08,0.14,0.95,265.17,5.0,-49.6
3.18,0.0,0.0,0.0,0.0,0.0,0.0,0.0,0.0,0.0,0.0,0.0,0.0,0.0,-0.17,0.14,0.95,150.53,0.0,0.0,0.0,0.25,0.5,0.0,0.0,2.0,0.25,2.75,0.75,3.5,4.0,1.0,0.75,0.08,0.08,0.95,251.54,4.4,-49.4
3.2,0.5,0.0,1.0,1.25,0.0,0.0,3.75,5.0,2.5,4.25,0.0,3.75,3.0,-0.11,0.14,0.95,172.85,0.2,-48.6,0.0,0.5,0.5,0.0,0.0,2.25,0.5,2.75,0.75,3.25,3.75,1.0,0.75,0.08,0.08,0.95,238.22,4.2,-44.2
3.22,0.25,0.5,1.5,1.5,0.0,0.0,1.25,2.75,2.25,4.25,0.0,3.75,0.0,-0.11,0.08,0.95,179.96,3.8,-37.1,1.25,1.25,0.5,2.0,0.25,2.75,1.0,2.75,0.75,4.75,5.0,2.25,1.75,0.08,0.08,0.95,267.03,-0.1,-30.9
3.24,0.0,0.5,2.0,1.25,0.0,0.0,3.25,5.0,2.25,4.25,5.5,4.0,2.75,-0.11,0.14,0.95,263.44,3.0,-50.1,1.5,1.25,0.75,2.0,0.5,2.5,1.0,2.0,0.75,4.75,4.25,2.0,1.25,0.08,0.08,0.95,285.28,-1.4,-24.2
3.26,0.0,0.0,2.25,0.0,0.0,0.0,3.75,5.0,0.0,0.0,5.75,3.25,0.0,-0.11,0.08,0.95,273.05,8.4,-43.4,0.25,0.5,0.75,0.0,0.5,2.25,1.25,2.75,0.75,2.5,4.0,1.0,0.75,0.02,0.14,0.95,278.49,1.4,-34.6
3.28,0.0,0.25,1.75,1.25,0.0,0.0,1.5,2.5,0.75,5.0,5.75,3.0,3.75,-0.11,0.14,0.95,318.38,1.6,-58.3,1.5,1.5,0.5,2.0,0.0,2.75,0.5,1.5,1.0,3.5,3.25,1.75,0.25,0.02,0.08,0.95,272.27,-2.5,-14.3
3.3,0.0,0.5,1.5,1.25,0.0,0.0,1.75,2.5,0.75,5.0,5.75,3.0,0.0,-0.11,0.14,0.95,310.46,4.3,-47.9,1.75,1.5,0.5,2.0,0.25,2.75,1.25,2.75,1.0,3.5,4.0,1.75,0.5,0.02,0.14,0.95,274.39,-2.3,-16.0
3.32,0.0,0.25,2.25,2.0,0.0,0.0,2.0,2.25,0.75,4.75,5.5,3.0,2.5,-0.17,0.14,0.95,322.21,4.3,-48.3,1.5,1.5,1.0,2.0,0.5,2.75,1.25,2.75,0.75,3.25,4.0,1.25,1.25,0.02,0.08,0.95,281.57,-2.1,-14.8
3.34,0.0,0.5,2.5,1.5,0.0,0.0,2.25,2.0,0.75,4.75,5.5,3.0,2.75,-0.17,0.14,0.95,321.11,4.6,-48.3,1.5,1.25,0.75,2.0,0.5,2.75,1.25,2.75,0.75,3.5,3.75,1.0,1.25,0.02,0.14,0.95,290.54,-1.2,-15.9
3.36,0.0,0.0,2.75,0.5,0.0,0.0,2.75,2.25,1.0,3.75,5.75,3.0,2.75,-0.11,0.14,0.95,333.58,5.3,-53.3,1.25,1.0,0.75,2.0,0.5,2.5,1.0,2.75,0.75,2.75,3.25,1.0,0.5,0.02,0.14,0.95,288.42,-1.7,-12.2
3.38,0.0,0.0,2.75,0.5,0.0,0.0,2.5,1.75,0.25,3.5,5.75,2.0,2.75,-0.11,0.14,0.95,322.4,5.5,-51.6,0.0,0.25,0.0,0.0,0.25,2.0,1.25,2.5,0.25,0.75,2.0,0.5,0.0,0.02,0.14,0.95,238.91,5.2,-27.0
3.4,0.0,0.0,1.75,1.25,0.0,0.0,2.25,1.25,0.0,3.75,4.5,2.0,1.5,-0.11,0.08,0.95,297.4,5.2,-48.8,1.25,1.25,0.25,2.0,0.25,2.5,0.75,1.25,0.75,2.0,2.0,1.0,0.5,0.02,0.14,0.95,214.67,-2.5,-3.6
3.42,0.0,0.75,0.75,0.75,0.0,0.0,1.75,1.0,0.0,3.25,4.25,1.0,0.0,-0.11,0.14,0.95,254.09,5.2,-40.8,0.0,0.5,0.5,2.0,0.5,2.5,1.0,1.75,0.75,2.0,2.5,1.0,0.5,0.02,0.14,0.95,192.62,0.1,-17.8
3.44,0.0,0.5,1.5,0.25,0.0,0.0,1.25,1.25,0.0,2.0,3.75,1.25,1.25,-0.11,0.14,0.95,200.88,5.6,-46.6,1.25,1.0,0.0,0.0,0.0,1.25,1.0,1.75,0.25,0.0,2.5,0.25,0.5,0.02,0.14,0.95,164.5,-4.1,-8.2
3.46,0.0,0.25,1.5,1.0,0.0,0.0,1.25,1.75,0.0,2.5,4.5,1.0,0.0,-0.11,0.14,0.95,175.81,6.6,-38.1,1.25,0.5,0.75,1.75,0.5,2.5,1.0,1.5,0.75,1.5,2.25,0.25,0.5,0.02,0.14,0.95,161.5,-3.2,-0.3
3.48,0.5,0.0,0.0,0.25,0.0,0.0,1.0,1.25,0.0,1.25,3.0,0.75,0.25,-0.17,0.14,0.95,135.18,3.9,-52.3,1.0,1.25,0.5,2.0,0.5,2.25,1.0,1.5,0.75,1.75,2.0,1.0,0.0,0.02,0.14,0.95,173.62,-3.7,0.9
3.5,0.0,0.0,0.0,0.5,0.0,0.0,0.5,0.25,0.5,2.0,2.25,0.75,0.0,-0.17,0.14,0.95,108.87,2.6,-60.5,0.0,0.25,0.0,0.0,0.25,1.25,1.0,1.75,0.25,0.0,2.25,0.25,0.0,0.02,0.14,0.95,148.04,1.4,-26.3
3.52,0.0,0.0,1.5,0.5,0.0,0.0,0.5,1.75,0.0,2.0,3.0,0.0,0.75,-0.17,0.14,0.95,92.33,3.6,-40.2,0.0,0.5,0.0,0.0,0.0,1.25,0.0,1.25,0.75,0.0,1.25,0.25,0.0,0.02,0.14,0.95,106.55,3.3,-20.3
3.54,0.0,0.0,1.5,0.0,0.0,0.0,0.5,1.75,0.0,0.0,3.0,0.25,0.75,-0.17,0.14,0.95,81.92,8.1,-40.0,0.0,0.25,0.0,0.0,0.0,1.25,0.0,1.25,0.25,0.5,1.0,0.25,0.0,0.02,0.14,0.95,68.34,7.9,-28.0
3.56,0.0,0.0,1.25,0.5,0.0,0.0,0.5,1.75,0.0,1.75,2.75,0.0,1.25,-0.17,0.08,0.95,87.0,2.1,-44.9,0.0,0.25,0.0,0.0,0.0,1.25,0.0,1.25,0.0,0.0,1.0,0.25,0.0,0.02,0.14,0.95,41.23,8.2,-21.2
3.58,0.0,0.0,1.5,0.5,0.0,0.0,0.5,1.75,0.0,1.75,2.25,0.75,0.75,-0.17,0.14,0.95,97.44,4.0,-42.1,0.0,0.5,0.0,0.0,0.0,1.25,0.0,1.25,0.25,0.0,0.75,0.25,0.0,0.02,0.14,0.95,30.12,6.8,-11.7
3.6,0.0,0.0,0.5,0.5,0.0,0.0,3.0,0.0,0.5,1.5,0.0,0.5,0.0,-0.17,0.14,0.95,88.19,12.5,-17.2,1.25,1.25,0.0,0.0,0.0,1.0,0.0,1.0,0.25,0.0,0.75,0.25,0.0,0.02,0.14,0.95,44.02,-5.6,25.5
3.62,0.0,0.0,1.5,0.5,0.0,0.0,0.5,0.0,0.0,1.75,2.25,0.25,0.75,-0.17,0.08,0.95,87.74,8.7,-38.2,1.25,1.25,0.0,2.0,0.0,2.25,1.0,1.25,0.75,1.5,2.0,1.0,0.25,0.02,0.14,0.95,99.43,-3.6,-1.8
3.64,0.0,0.0,2.25,0.5,0.0,0.0,0.5,0.0,0.0,1.5,2.25,0.0,0.25,-0.17,0.08,0.95,86.86,14.5,-18.2,1.75,1.25,0.5,2.0,0.25,2.25,0.5,1.25,0.75,1.5,2.0,1.0,0.5,0.02,0.14,0.95,145.4,-4.9,2.1
3.66,0.0,0.0,1.25,0.5,0.0,0.0,0.25,0.0,0.0,1.25,2.0,0.0,0.5,-0.17,0.14,0.95,84.86,10.0,-32.8,1.25,1.25,1.0,2.0,0.5,2.0,0.5,1.25,0.75,1.5,1.75,1.0,0.25,0.02,0.14,0.95,188.11,-5.6,4.9
3.68,0.0,0.0,1.0,0.25,0.0,0.0,0.0,0.0,0.0,0.25,1.0,0.0,0.0,-0.17,0.14,0.95,63.49,20.1,-5.5,1.25,1.25,0.5,2.0,0.25,2.25,0.5,1.25,0.75,1.5,2.0,1.0,0.5,0.02,0.14,0.95,211.41,-3.9,-0.9
3.7,0.0,0.0,0.75,0.5,0.0,0.0,0.25,0.0,0.0,0.25,1.5,0.0,0.25,-0.17,0.08,0.95,51.98,15.0,-22.5,1.25,1.25,0.5,2.0,0.5,2.25,0.5,1.25,0.5,1.5,2.0,1.0,0.25,0.02,0.14,0.95,218.97,-4.0,2.7
3.72,0.0,0.0,1.5,0.5,0.0,0.0,0.25,0.0,0.0,0.25,0.75,0.0,0.0,-0.17,0.08,0.95,42.59,24.0,17.1,1.25,1.25,0.5,2.0,0.0,2.25,0.5,1.25,0.5,1.5,2.0,1.0,0.25,0.02,0.14,0.95,221.46,-4.3,0.6
3.74,0.0,0.0,0.25,0.0,0.0,0.0,0.25,0.0,0.0,0.0,1.25,0.0,0.25,-0.17,0.08,0.95,29.32,12.6,-54.5,0.0,0.75,0.0,2.0,0.0,2.0,0.0,0.0,0.5,1.5,0.25,1.0,0.0,0.02,0.14,0.95,200.4,0.4,0.3
3.76,0.0,0.0,2.0,0.0,0.0,0.0,0.0,0.0,0.0,1.0,0.75,0.0,0.25,-0.17,0.08,0.95,31.38,16.6,-8.1,1.25,1.25,0.5,2.0,0.25,2.0,0.25,1.25,0.5,1.5,2.0,1.0,0.25,0.02,0.14,0.95,200.31,-4.3,0.9
3.78,0.0,0.0,1.75,1.0,0.0,0.0,0.5,0.0,1.25,0.75,1.25,0.25,0.25,-0.17,0.14,0.95,53.06,16.1,-10.9,0.5,0.25,0.5,1.75,0.25,2.0,0.25,1.25,0.0,1.5,1.5,0.75,0.25,0.08,0.08,0.95,183.73,-0.4,-8.4
3.8,0.0,0.0,2.75,1.25,0.0,0.0,2.25,1.25,1.0,0.5,1.75,0.0,0.0,-0.17,0.08,0.95,88.43,17.3,2.6,0.0,1.25,0.5,1.0,0.5,1.75,0.25,1.25,0.0,0.0,2.0,0.25,0.25,0.08,0.08,0.89,169.58,-1.8,6.7
3.82,0.0,0.0,0.75,0.5,0.0,0.0,0.0,0.0,0.0,0.25,1.25,0.0,0.25,-0.17,0.08,0.89,85.57,14.6,-20.2,0.0,0.25,0.0,0.0,0.0,0.0,0.0,0.0,0.0,0.0,0.5,0.25,0.0,0.14,0.14,0.95,110.59,-10.7,-38.6
3.84,0.0,0.0,2.25,0.5,0.0,0.0,0.0,0.0,0.0,1.0,1.25,0.0,0.0,-0.17,0.08,0.89,89.83,18.8,0.9,0.0,0.25,0.0,0.0,0.0,0.0,0.0,0.0,0.0,0.0,0.0,0.25,0.0,0.27,0.08,1.02,54.0,-10.7,-3.5
3.86,0.0,0.0,2.25,0.5,0.0,0.0,0.25,0.0,0.0,0.5,1.25,0.0,0.25,-0.17,0.08,0.95,79.3,20.9,3.5,0.0,0.25,0.0,0.0,0.0,0.0,0.0,0.0,0.0,0.0,0.25,0.0,0.0,0.2,0.08,0.89,0.0,-11.7,14.5
3.88,0.0,0.0,2.25,0.5,0.0,0.0,0.25,0.0,0.0,0.75,1.25,0.0,0.25,-0.17,0.08,0.95,80.52,19.1,-0.2,0.0,0.25,0.0,0.0,0.0,0.0,0.0,0.0,0.0,0.0,0.5,0.0,0.0,0.08,0.2,1.08,0.0,-11.4,-14.8
3.9,0.0,0.0,2.5,0.5,0.0,0.0,0.0,0.0,0.0,0.0,1.25,0.0,0.25,-0.17,0.08,1.02,79.11,25.6,14.8,0.0,0.25,0.0,0.0,0.0,0.0,0.0,0.0,0.0,0.0,0.0,0.25,0.0,0.08,0.14,0.95,0.0,-10.7,-3.5
3.92,0.0,0.0,1.5,0.5,0.0,0.0,0.0,0.0,0.0,0.25,1.5,0.0,0.25,-0.23,0.08,0.95,78.25,18.9,-8.0,0.0,0.25,0.0,0.0,0.0,0.0,0.0,0.0,0.0,0.0,0.25,0.25,0.0,-0.05,0.14,0.95,0.0,-10.7,-26.7
3.94,0.0,0.0,1.5,0.5,0.0,0.0,0.0,0.0,0.0,0.75,1.25,0.0,0.25,-0.23,0.08,0.89,72.54,15.3,-12.0,0.0,0.25,0.0,0.0,0.0,0.0,0.0,0.0,0.0,0.0,0.25,0.25,0.0,-0.11,0.14,0.89,0.0,-10.7,-26.7
3.96,0.0,0.0,2.0,0.5,0.0,0.0,0.0,0.0,0.0,0.75,1.25,0.0,0.25,-0.17,0.08,0.89,70.22,17.8,-4.2,0.0,0.0,0.0,0.0,0.0,0.0,0.0,0.0,0.0,0.0,0.0,0.25,0.0,-0.17,0.14,1.02,0.0,-8.8,-109.9
3.98,0.0,0.0,1.75,0.5,0.0,0.0,0.25,0.0,0.0,0.75,1.25,0.0,0.25,-0.11,0.08,0.89,69.75,17.0,-7.0,0.0,0.25,0.0,0.0,0.0,0.0,0.25,1.25,0.0,0.0,2.0,0.0,0.25,-0.23,0.14,0.95,0.0,-0.9,-50.8
4.0,0.0,0.0,1.5,0.25,0.0,0.0,0.0,0.0,0.0,0.25,1.25,0.0,0.25,-0.11,0.08,0.95,61.92,19.6,-8.2,0.0,0.25,0.0,0.0,0.0,0.0,0.0,0.0,0.0,0.0,1.5,0.5,0.25,0.08,0.14,0.95,11.14,-8.0,-67.7
4.02,0.0,0.0,0.75,0.5,0.0,0.0,0.0,0.0,0.0,0.25,0.75,0.0,0.0,-0.11,0.08,0.83,49.1,18.7,1.6,0.0,0.25,0.0,0.0,0.0,0.0,0.0,0.0,0.0,0.0,0.5,0.25,0.0,0.14,0.14,0.89,21.37,-10.7,-38.6
4.04,0.0,0.0,0.75,0.5,0.0,0.0,0.0,0.0,0.0,0.25,0.5,0.0,0.0,0.45,0.08,1.02,37.98,19.6,10.8,1.0,1.25,0.0,1.25,0.25,1.25,1.0,1.25,0.75,1.5,2.0,1.0,0.25,0.08,0.08,0.89,82.1,-4.0,-9.0
4.06,0.0,0.0,0.75,0.5,0.0,0.0,0.0,0.0,0.0,0.25,0.75,0.0,0.25,-0.17,0.02,0.77,35.55,15.4,-9.7,0.0,0.25,0.5,0.0,0.0,0.0,0.0,0.0,0.0,0.0,0.0,0.25,0.0,0.08,0.08,0.89,79.79,-24.6,29.0
4.08,0.0,0.0,0.5,0.5,0.0,0.0,0.0,0.0,0.0,0.25,0.5,0.0,0.0,-0.17,0.08,1.08,27.0,16.9,3.5,1.25,1.25,0.0,0.0,0.0,0.25,0.0,0.0,0.5,0.0,0.5,0.25,0.0,-0.11,0.14,1.02,87.61,-16.6,42.6
4.1,0.0,0.0,0.75,0.5,0.0,0.0,0.0,0.0,0.0,0.25,1.0,0.0,0.25,-0.17,0.02,1.08,29.04,15.0,-15.4,0.0,0.25,0.0,0.0,0.0,0.0,0.0,0.0,0.0,0.0,0.5,0.25,0.0,-0.05,0.02,0.95,59.63,-10.7,-38.6
4.12,0.0,0.0,0.5,0.25,0.0,0.0,0.0,0.0,0.0,0.0,0.0,0.0,0.0,-0.17,0.02,1.08,21.24,31.1,59.9,0.0,0.5,0.0,0.0,0.0,0.0,0.0,0.0,0.0,0.0,0.0,0.25,0.0,0.02,0.14,0.95,44.5,-11.3,31.0
4.14,0.0,0.0,0.5,0.25,0.0,0.0,0.0,0.0,0.0,0.0,0.0,0.0,0.0,-0.3,0.08,0.89,15.52,31.1,59.9,0.0,0.25,0.0,0.0,0.0,0.0,0.0,0.0,0.0,0.0,0.25,0.25,0.0,0.02,0.14,0.95,21.52,-10.7,-26.7
4.16,0.0,0.0,0.25,0.25,0.0,0.0,0.0,0.0,0.0,0.0,0.0,0.0,0.0,-0.23,0.08,0.77,6.92,27.6,59.4,0.0,0.25,0.0,0.0,0.0,0.0,0.0,0.0,0.0,0.0,0.0,0.25,0.0,0.02,0.14,0.95,13.8,-10.7,-3.5
4.18,0.0,0.0,0.5,0.5,0.0,0.0,0.0,0.0,0.0,0.25,0.0,0.0,0.0,-0.17,0.08,0.77,6.89,19.2,33.2,0.0,0.25,0.0,0.0,0.0,0.0,0.0,0.0,0.0,0.0,0.0,0.25,0.0,0.02,0.14,0.95,7.1,-10.7,-3.5
4.2,0.0,0.0,0.75,0.25,0.0,0.0,0.0,0.0,0.0,0.0,1.0,0.0,0.25,-0.11,0.08,0.7,13.11,18.1,-17.3,0.0,0.5,0.0,0.0,0.0,0.25,0.0,0.0,0.0,0.0,0.0,0.75,0.25,0.02,0.14,0.95,7.9,-2.3,-29.1
4.22,0.0,0.0,0.0,0.25,0.0,0.0,0.0,0.0,0.0,0.0,0.0,0.0,0.0,-0.11,0.08,0.7,11.66,17.2,57.9,0.0,0.25,0.0,0.0,0.0,0.0,0.0,0.0,0.0,0.0,0.0,0.25,0.0,0.02,0.14,0.95,3.57,-10.7,-3.5
4.24,0.0,0.0,0.75,0.5,0.0,0.0,0.0,0.0,0.0,0.25,0.75,0.0,0.25,0.64,1.02,1.2,21.86,15.4,-9.7,0.0,0.5,0.0,0.0,0.0,0.25,0.0,0.0,0.0,0.0,0.0,0.25,0.0,0.02,0.14,0.95,5.69,-3.3,31.7
4.26,0.0,0.0,0.75,0.5,0.0,0.0,0.25,0.0,0.0,0.25,0.75,0.0,0.25,0.08,0.14,0.89,28.86,16.1,-8.0,0.0,0.5,0.0,0.0,0.0,0.75,0.0,0.0,0.0,0.0,0.75,0.25,0.0,0.02,0.14,0.95,11.42,-0.1,-3.1
4.28,0.0,0.0,1.0,0.5,0.0,0.0,0.0,0.0,0.0,0.25,0.5,0.0,0.25,-0.11,0.08,0.83,36.55,18.1,3.7,1.0,1.25,0.5,2.0,0.5,1.25,0.25,1.25,0.5,1.5,1.75,0.75,0.25,0.02,0.14,0.95,73.45,-4.9,2.1
4.3,0.0,0.0,0.5,0.5,0.0,0.0,0.25,0.0,0.0,0.25,0.0,0.0,0.25,-0.17,0.14,1.02,35.5,15.0,10.7,1.25,1.25,0.5,1.5,0.5,1.75,0.25,1.25,0.5,1.5,1.75,1.0,0.0,0.02,0.14,0.95,137.4,-4.4,2.8
4.32,0.0,0.0,1.0,0.5,0.0,0.0,0.5,0.0,0.0,0.25,0.0,0.0,0.0,-0.17,0.14,0.95,37.56,25.5,39.5,0.0,0.5,0.0,0.0,0.0,0.25,0.0,0.0,0.0,0.0,0.25,0.25,0.0,0.02,0.14,0.95,128.34,-4.7,10.8
4.34,0.0,0.0,1.0,0.5,0.0,0.0,0.5,0.0,0.0,0.25,0.0,0.0,0.25,-0.17,0.14,0.95,37.58,21.1,22.8,0.0,0.5,0.0,0.0,0.0,0.0,0.0,0.0,0.0,0.0,0.25,0.0,0.0,0.02,0.14,0.95,99.85,-12.0,43.2
4.36,0.0,0.0,1.25,0.5,0.0,0.0,0.0,0.0,0.0,0.25,0.0,0.0,0.25,-0.17,0.14,0.95,40.28,21.9,26.5,0.0,0.25,0.0,0.0,0.0,0.25,0.0,0.0,0.0,0.0,0.25,0.25,0.0,0.02,0.14,0.95,58.7,-2.7,-12.1
4.38,0.0,0.0,0.5,0.5,0.0,0.0,0.0,0.0,0.0,0.25,0.0,0.0,0.25,-0.17,0.14,0.95,36.83,13.7,9.4,0.0,0.25,0.0,0.0,0.0,0.25,0.0,0.0,0.0,0.0,0.0,0.0,0.0,0.02,0.14,0.95,28.26,4.3,67.9
4.4,0.0,0.0,0.0,0.5,0.0,0.0,0.0,0.0,0.0,0.75,0.0,0.0,0.25,-0.17,0.14,0.95,32.64,-4.1,-35.6,0.0,0.5,0.0,0.0,0.0,0.5,0.0,0.0,0.0,0.0,0.25,0.25,0.0,0.02,0.14,0.95,17.09,-0.3,14.5
4.42,0.0,0.0,0.0,0.5,0.0,0.0,0.25,0.0,0.0,0.25,0.0,0.0,0.0,-0.17,0.14,0.95,24.06,10.0,16.4,0.0,0.25,0.0,0.0,0.0,0.25,0.0,0.0,0.0,0.0,0.25,0.25,0.0,0.02,0.14,0.95,16.04,-2.7,-12.1
4.44,0.0,0.0,0.0,0.5,0.0,0.0,0.5,0.0,0.0,0.25,0.5,0.0,0.0,-0.17,0.14,0.95,21.05,12.0,-12.3,0.0,0.5,0.0,0.0,0.0,0.5,0.0,0.0,0.0,0.0,0.0,0.0,0.0,0.02,0.14,0.95,13.29,4.3,67.9
4.46,0.0,0.0,1.5,0.5,0.0,0.0,0.0,0.0,0.0,0.25,0.5,0.0,0.25,-0.17,0.14,0.95,29.46,21.5,13.3,0.0,0.5,0.0,0.0,0.0,0.25,0.0,0.0,0.0,0.0,0.25,0.25,0.0,0.02,0.14,0.95,8.92,-4.7,10.8
4.48,0.0,0.0,0.0,0.5,0.0,0.0,0.25,0.0,0.0,0.25,0.75,0.0,0.25,-0.17,0.14,0.95,30.12,7.0,-36.4,0.0,0.5,0.0,0.0,0.0,0.5,0.0,0.0,0.0,0.0,0.25,0.25,0.0,0.02,0.14,0.95,7.1,-0.3,14.5
4.5,0.0,0.0,1.5,0.5,0.0,0.0,0.0,0.0,0.0,0.25,0.5,0.0,0.25,-0.17,0.14,0.95,39.24,21.5,13.3,1.25,1.25,0.25,2.0,0.25,2.25,0.75,1.25,0.75,1.5,2.0,1.0,0.5,0.02,0.14,0.95,75.74,-3.5,-1.7
4.52,0.0,0.0,0.75,0.25,0.0,0.0,0.5,0.0,0.0,0.25,0.25,0.0,0.0,-0.17,0.14,0.95,37.43,22.9,17.9,1.25,1.25,0.5,1.5,0.25,2.0,0.25,1.25,0.75,1.5,2.0,1.0,0.25,0.02,0.14,0.95,130.64,-4.0,-1.9
4.54,0.0,0.0,0.0,0.5,0.0,0.0,0.5,0.0,0.0,0.25,0.5,0.0,0.0,-0.17,0.14,0.95,34.36,12.0,-12.3,1.25,1.25,0.5,2.0,0.25,2.25,0.25,1.25,0.75,1.5,2.0,1.0,0.25,0.02,0.14,0.95,190.11,-4.0,0.8
4.56,0.0,0.0,0.0,0.25,0.0,0.0,0.0,0.0,0.0,0.0,0.0,0.0,0.0,-0.17,0.14,0.95,21.09,17.2,57.9,1.25,1.25,0.5,1.5,0.25,2.25,0.25,1.25,0.5,1.5,2.0,1.0,0.25,0.02,0.14,0.95,218.99,-3.3,-0.6
4.58,0.0,0.0,0.0,0.25,0.0,0.0,0.0,0.0,0.0,0.25,0.0,0.0,0.0,-0.17,0.14,0.95,13.42,1.1,-7.2,1.25,1.25,0.5,1.75,0.5,2.25,0.25,1.25,0.75,1.5,2.0,0.75,0.25,0.02,0.14,0.95,231.31,-3.5,2.8
4.6,0.0,0.0,0.0,0.25,0.0,0.0,0.0,0.0,0.0,0.0,0.0,0.0,0.0,-0.17,0.14,0.95,5.98,17.2,57.9,1.0,1.25,0.5,1.75,0.25,2.25,0.25,1.25,0.75,1.5,2.0,0.75,0.25,0.02,0.14,0.95,228.89,-3.1,0.0
4.62,0.0,0.0,0.0,0.25,0.0,0.0,0.0,0.0,0.0,0.25,0.0,0.0,0.0,-0.17,0.14,0.95,4.29,1.1,-7.2,1.0,1.25,0.25,2.0,1.25,2.0,0.25,1.25,0.75,1.5,1.75,1.0,0.25,0.02,0.14,0.95,232.18,-2.6,3.1
4.64,0.0,0.0,0.0,0.25,0.0,0.0,0.0,0.0,0.0,0.25,0.0,0.0,0.0,-0.17,0.14,0.95,3.26,1.1,-7.2,1.25,1.25,0.5,2.0,0.5,2.25,0.25,1.25,0.75,1.5,2.0,1.0,0.25,0.02,0.14,0.95,234.07,-3.9,1.8
4.66,0.0,0.0,0.0,0.25,0.0,0.0,0.0,0.0,0.0,0.25,0.0,0.0,0.0,-0.17,0.14,0.95,3.31,1.1,-7.2,1.25,1.25,0.5,1.25,0.25,2.25,0.25,1.25,0.75,1.5,2.0,0.75,0.5,0.02,0.14,0.95,229.76,-2.8,-2.5
4.68,0.0,0.0,0.0,0.25,0.0,0.0,0.25,0.0,0.0,0.0,0.75,0.0,0.0,-0.17,0.14,0.95,5.57,14.6,-32.8,1.25,1.25,0.5,2.0,0.5,2.25,0.25,1.25,0.75,1.5,2.0,0.75,0.25,0.02,0.14,0.95,226.14,-3.8,3.8
4.7,0.0,0.0,0.0,0.5,0.0,0.0,0.25,0.0,0.0,0.25,0.0,0.0,0.0,-0.17,0.14,0.95,7.29,10.0,16.4,1.0,1.25,0.5,0.75,0.25,2.0,0.25,1.25,0.75,1.5,2.0,1.0,0.25,0.02,0.14,0.95,211.82,-2.6,-7.5
4.72,0.0,0.0,0.5,0.5,0.0,0.0,0.25,0.0,0.0,0.25,0.0,0.0,0.0,-0.17,0.14,0.95,14.03,20.3,32.7,1.0,1.25,0.5,1.5,0.25,2.0,0.5,1.25,0.75,1.5,2.0,1.0,0.25,0.02,0.14,0.95,201.58,-3.7,-3.4
4.74,0.0,0.0,0.25,0.5,0.0,0.0,0.0,0.0,0.0,0.25,0.0,0.0,0.0,-0.17,0.14,0.95,15.84,14.4,26.3,0.0,0.25,0.5,0.0,0.5,0.5,0.25,1.25,0.0,0.0,2.0,0.25,0.25,0.02,0.14,0.95,153.09,-2.2,-25.3
4.76,0.0,0.0,0.0,0.25,0.0,0.0,0.25,0.0,0.0,0.25,0.0,0.0,0.0,-0.17,0.14,0.95,16.51,7.0,-0.6,0.75,1.25,0.0,1.75,0.0,2.25,0.25,1.25,0.75,1.5,2.0,1.0,0.25,0.02,0.14,0.95,153.63,-1.4,-7.5
4.78,0.0,0.0,0.0,0.25,0.0,0.0,0.0,0.0,0.0,0.0,0.0,0.0,0.0,-0.17,0.14,0.95,12.64,17.2,57.9,0.0,0.25,0.5,0.0,0.5,0.75,0.5,1.25,0.0,0.0,2.0,0.0,0.0,0.02,0.14,0.95,117.61,-2.2,-13.8
4.8,0.0,0.0,0.0,0.5,0.0,0.0,0.0,0.0,0.0,0.25,0.0,0.0,0.0,-0.17,0.14,0.95,12.23,6.5,14.7,1.25,1.25,0.5,1.75,0.25,2.25,0.5,1.25,0.75,1.5,2.0,1.0,0.25,0.02,0.14,0.95,142.22,-4.0,0.0
4.82,0.0,0.0,0.5,0.5,0.0,0.0,0.25,0.0,0.0,0.25,0.0,0.0,0.25,-0.17,0.14,0.95,16.56,15.0,10.7,1.0,0.25,0.5,0.0,0.5,1.0,0.25,1.25,0.0,0.0,2.0,0.0,0.25,0.02,0.14,0.95,122.36,-4.7,-1.2
4.84,0.0,0.0,0.25,0.5,0.0,0.0,0.25,0.0,0.0,0.25,0.0,0.0,0.25,-0.17,0.14,0.95,20.59,10.8,1.5,0.0,0.25,0.0,0.0,0.0,1.0,0.0,0.5,0.0,0.0,0.0,0.75,0.0,0.02,0.14,0.95,95.94,8.2,-17.8
4.86,0.0,0.0,0.25,0.25,0.0,0.0,0.25,0.0,0.0,0.5,0.0,0.0,0.25,-0.17,0.14,0.95,23.42,4.9,-22.8,0.0,0.25,0.0,0.0,0.0,0.75,0.0,0.5,0.0,1.5,0.0,1.0,0.0,0.02,0.14,0.95,61.75,9.1,-48.5
4.88,0.0,0.0,0.0,0.5,0.0,0.0,0.5,0.0,0.0,0.25,0.0,0.0,0.25,-0.17,0.14,0.95,23.51,7.3,-8.0,1.25,1.25,0.5,1.75,0.25,2.25,0.25,1.25,0.75,1.5,2.0,0.75,0.25,0.02,0.14,0.95,95.3,-3.7,1.7
4.9,0.0,0.0,0.75,0.5,0.0,0.0,0.5,0.0,0.0,0.25,0.0,0.0,0.0,-0.17,0.14,0.95,26.18,23.7,36.4,1.25,1.25,0.5,1.75,0.25,2.25,0.25,1.25,0.75,1.5,2.0,0.75,0.25,0.02,0.14,0.95,133.58,-3.7,1.7
4.92,0.0,0.0,0.0,0.25,0.0,0.0,0.0,0.0,0.0,0.25,0.0,0.0,0.0,-0.17,0.14,0.95,20.38,1.1,-7.2,1.25,1.5,0.5,1.5,0.5,2.25,0.25,1.25,0.75,1.5,2.0,1.0,0.25,0.02,0.14,0.95,175.55,-3.5,1.5
4.94,0.0,0.0,0.0,0.25,0.0,0.0,0.0,0.0,0.0,0.25,0.0,0.0,0.0,-0.17,0.14,0.95,16.22,1.1,-7.2,0.5,1.25,0.5,2.0,0.0,2.25,0.25,1.25,0.5,1.5,1.5,1.0,0.0,0.08,0.14,0.95,193.02,-2.4,0.1
4.96,0.0,0.0,0.0,0.25,0.0,0.0,0.0,0.0,0.0,0.25,0.0,0.0,0.0,-0.17,0.14,0.95,11.03,1.1,-7.2,1.0,0.5,0.5,0.0,0.5,1.25,0.25,1.25,0.75,1.5,0.0,1.0,0.0,0.02,0.14,0.95,179.1,-0.8,-6.1
4.98,0.0,0.0,0.0,0.5,0.0,0.0,0.0,0.0,0.0,0.25,0.0,0.0,0.0,-0.17,0.14,0.95,10.5,6.5,14.7,0.75,1.25,0.5,1.5,0.25,2.25,0.0,1.25,0.5,1.5,1.75,1.0,0.25,0.08,0.14,0.95,178.7,-1.8,-3.1
5.0,0.0,0.0,0.0,0.25,0.0,0.0,0.0,0.0,0.0,0.25,0.0,0.0,0.0,-0.17,0.14,0.95,8.74,1.1,-7.2,0.0,1.25,0.5,1.5,0.5,2.25,0.25,1.25,0.5,1.5,1.5,1.0,0.25,0.08,0.14,0.95,173.8,0.0,-5.8
5.02,0.0,0.0,0.0,0.25,0.0,0.0,0.0,0.0,0.0,0.0,0.0,0.0,0.0,-0.17,0.14,0.95,6.88,17.2,57.9,1.25,1.25,0.5,0.25,0.25,1.25,0.0,1.25,0.0,0.75,2.0,0.75,0.0,0.08,0.14,0.95,171.57,-5.1,1.1
5.04,0.0,0.0,0.0,0.25,0.0,0.0,0.0,0.0,0.0,0.0,0.0,0.0,0.0,-0.17,0.14,0.95,4.05,17.2,57.9,0.0,0.25,0.5,0.0,0.25,1.0,1.0,1.5,0.0,0.0,2.0,0.25,0.5,0.08,0.14,0.95,145.58,-1.0,-25.5
5.06,0.0,0.0,0.0,0.25,0.0,0.0,0.0,0.0,0.0,0.25,0.0,0.0,0.0,-0.17,0.14,0.95,3.1,1.1,-7.2,0.0,0.25,0.0,0.0,0.25,1.25,0.0,1.25,0.0,0.0,1.75,0.25,0.0,0.08,0.14,0.95,120.56,5.1,-24.8
5.08,0.0,0.0,0.0,0.5,0.0,0.0,0.0,0.0,0.0,0.25,0.0,0.0,0.0,-0.17,0.14,0.95,5.54,6.5,14.7,1.25,0.75,0.5,0.0,0.25,2.0,0.25,1.5,0.5,1.5,1.75,0.75,0.5,0.08,0.14,0.95,121.63,-0.4,-13.5
5.1,0.0,0.0,0.0,0.25,0.0,0.0,0.5,0.0,0.0,0.25,0.0,0.0,0.0,-0.17,0.14,0.95,8.04,11.0,3.7,0.5,0.5,0.0,0.0,1.5,1.25,0.5,1.5,0.75,1.5,2.0,1.0,0.0,0.08,0.14,0.95,123.52,1.1,-20.2
5.12,0.0,0.0,0.0,0.5,0.0,0.0,0.25,0.0,0.0,0.0,0.0,0.0,0.0,-0.17,0.14,0.95,9.92,20.0,52.2,0.75,1.25,0.5,1.75,0.5,2.5,0.25,1.25,0.5,1.5,1.0,1.0,0.0,0.08,0.14,0.89,145.12,-1.6,6.7
5.14,0.0,0.0,1.25,0.5,0.0,0.0,0.5,0.0,0.0,0.25,0.0,0.0,0.0,-0.17,0.14,0.95,20.71,27.0,41.9,1.25,1.25,0.5,1.75,0.5,2.25,0.25,1.25,0.75,1.5,2.0,0.75,0.25,0.08,0.14,0.95,171.39,-3.5,2.8
5.16,0.0,0.0,1.5,0.5,0.0,0.0,0.5,0.0,0.0,0.25,0.5,0.0,0.25,-0.23,0.2,0.95,36.11,22.3,14.3,0.25,0.5,0.5,0.0,0.5,1.5,0.25,1.5,0.0,0.25,2.0,0.25,0.25,0.08,0.14,0.95,162.15,0.7,-12.0
5.18,0.0,0.0,0.5,0.5,0.0,0.0,0.5,0.0,0.0,0.25,0.5,0.0,0.25,-0.23,0.2,1.02,42.68,15.0,-6.7,0.0,0.5,0.0,0.0,0.25,1.25,0.0,1.25,0.0,0.0,0.25,0.5,0.0,0.08,0.14,0.95,128.89,8.9,-3.6
5.2,0.0,0.0,1.25,0.25,0.0,0.0,0.0,0.0,0.0,0.0,0.25,0.0,0.25,-0.23,0.2,1.08,44.69,25.8,23.0,1.25,1.25,0.5,1.75,0.5,2.25,0.0,1.25,0.5,1.5,1.75,1.0,0.25,0.08,0.14,0.95,140.75,-3.1,2.6
5.22,0.0,0.0,0.5,0.5,0.0,0.0,0.0,0.0,0.0,0.25,0.0,0.0,0.25,-0.17,0.14,1.02,39.99,13.7,9.4,1.25,1.25,0.5,1.25,0.5,2.25,0.0,1.5,0.0,0.0,1.5,0.25,0.25,0.08,0.14,0.95,143.64,-3.6,21.9
5.24,0.0,0.0,1.5,0.5,0.0,0.0,0.0,0.0,0.0,0.25,0.0,0.0,0.25,-0.42,0.27,0.95,41.47,23.5,30.0,0.0,0.25,0.0,0.0,0.0,1.25,0.0,0.75,0.25,0.5,0.0,0.25,0.0,0.08,0.14,0.95,122.66,12.2,-11.9
5.26,0.0,0.0,0.5,0.5,0.0,0.0,0.25,0.0,0.0,0.25,0.0,0.0,0.0,-0.36,0.14,0.77,36.29,20.3,32.7,1.0,1.25,0.25,1.75,0.0,2.5,0.0,1.5,0.75,1.5,2.0,0.75,0.25,0.08,0.14,0.95,144.58,-1.5,-2.6
5.28,0.0,0.0,0.5,0.5,0.0,0.0,0.25,0.0,0.0,0.25,0.0,0.0,0.25,-0.17,0.08,0.83,34.8,15.0,10.7,0.5,0.5,0.5,0.75,0.25,2.5,0.75,1.5,0.75,1.5,2.0,0.75,0.25,0.02,0.14,0.95,154.17,0.2,-14.7
5.3,0.0,0.0,1.5,0.5,0.0,0.0,0.0,0.0,0.0,0.25,0.0,0.0,0.25,-0.17,0.02,0.89,36.75,23.5,30.0,1.25,1.25,0.5,1.5,0.5,2.25,0.0,1.5,0.5,1.5,2.0,0.75,0.25,0.08,0.14,0.95,174.92,-2.5,1.5
5.32,0.0,0.0,1.5,0.5,0.0,0.0,0.0,0.0,0.0,0.25,0.0,0.0,0.25,-0.11,0.02,0.83,40.02,23.5,30.0,0.0,0.5,0.5,0.0,0.25,1.25,0.25,1.25,0.75,0.5,1.75,0.25,0.25,0.08,0.14,0.95,154.46,0.0,-21.4
5.34,0.0,0.0,0.0,0.5,0.0,0.0,0.0,0.0,0.0,0.25,0.0,0.0,0.25,-0.05,-0.05,0.83,33.39,1.5,-16.3,1.25,1.25,0.25,1.5,0.25,2.0,0.75,1.5,0.0,0.0,2.0,0.25,0.5,0.08,0.14,0.95,162.07,-4.7,13.6
5.36,0.0,0.0,0.75,0.5,0.0,0.0,0.0,0.0,0.0,0.25,0.0,0.25,0.25,0.02,0.02,0.7,31.79,16.2,1.4,0.0,0.5,0.0,0.0,0.0,1.25,0.0,1.25,0.25,0.5,0.0,0.5,0.0,0.08,0.14,0.95,121.33,10.0,-14.1
5.38,0.0,0.0,0.75,0.5,0.0,0.0,0.0,0.0,0.0,0.25,0.0,0.0,0.25,0.08,0.02,1.95,27.76,17.2,16.7,1.0,1.25,0.0,1.75,0.0,2.25,0.0,1.25,0.5,1.5,0.0,0.75,0.0,0.08,0.14,0.95,127.59,0.0,13.2
5.4,0.0,0.0,1.0,0.5,0.0,0.0,0.0,0.0,0.0,0.25,0.0,0.0,0.25,0.08,0.27,1.39,29.26,19.8,22.3,0.0,1.25,0.5,2.0,0.5,2.0,0.25,1.5,0.5,1.5,1.75,1.0,0.0,0.08,0.14,0.95,144.41,-1.1,-3.8
5.42,0.0,0.0,0.75,0.5,0.0,0.0,0.0,0.0,0.0,0.25,0.5,0.0,0.25,-0.11,0.14,1.02,32.37,15.8,-2.7,1.25,1.25,0.5,1.25,1.0,2.25,0.0,1.25,0.5,1.5,1.75,1.0,0.0,0.08,0.14,0.95,171.82,-2.6,4.8
5.44,0.0,0.0,0.5,0.5,0.0,0.0,0.0,0.0,0.0,0.25,0.0,0.0,0.25,-0.17,0.14,0.95,31.64,13.7,9.4,1.25,1.25,0.25,1.5,0.5,2.25,0.25,1.25,0.75,1.5,2.0,1.0,0.25,0.08,0.14,0.95,185.23,-2.7,-1.3
5.46,0.0,0.0,0.0,0.5,0.0,0.0,0.0,0.0,0.0,0.25,0.0,0.0,0.25,-0.17,0.14,0.95,25.95,1.5,-16.3,1.25,1.25,0.5,1.25,0.5,2.25,0.25,1.25,0.5,1.5,2.0,1.0,0.25,0.08,0.14,0.95,200.72,-2.9,-0.6
5.48,0.0,0.0,0.0,0.5,0.0,0.0,0.0,0.0,0.0,0.0,0.0,0.0,0.25,-0.17,0.14,0.95,18.35,7.0,2.6,1.25,1.25,0.5,1.75,0.5,2.25,0.25,1.5,0.5,1.5,2.0,1.0,0.25,0.08,0.14,0.95,208.8,-3.1,0.8
5.5,0.0,0.0,0.0,0.5,0.0,0.0,0.25,0.0,0.0,0.25,0.0,0.0,0.25,-0.17,0.14,0.95,15.79,4.7,-11.7,0.75,1.25,0.5,1.75,0.5,2.25,0.25,1.25,0.75,1.5,2.0,1.0,0.25,0.08,0.14,0.95,203.96,-2.6,-2.4
5.52,0.0,0.0,0.0,0.5,0.0,0.0,0.0,0.0,0.0,0.0,0.0,0.0,0.25,-0.17,0.14,0.95,11.84,7.0,2.6,1.0,1.25,0.5,1.5,0.25,2.25,0.25,1.25,0.75,1.5,2.0,0.75,0.25,0.02,0.14,0.95,205.6,-2.8,-1.0
5.54,0.0,0.0,0.0,0.5,0.0,0.0,0.25,0.0,0.0,0.25,0.0,0.0,0.25,-0.17,0.14,0.95,12.1,4.7,-11.7,1.25,1.25,0.5,1.25,0.5,2.25,0.25,1.5,0.75,1.5,2.0,1.0,0.25,0.08,0.14,0.95,207.51,-2.7,-1.9
5.56,0.0,0.0,0.0,0.5,0.0,0.0,0.25,0.0,0.0,0.25,0.0,0.0,0.25,-0.17,0.14,0.95,13.51,4.7,-11.7,0.75,1.0,0.5,1.25,0.25,2.25,0.25,1.75,0.75,1.5,2.0,0.75,0.5,0.08,0.14,0.95,207.27,-0.8,-9.4
5.58,0.0,0.0,0.0,0.25,0.0,0.0,0.0,0.0,0.0,0.0,0.0,0.0,0.0,-0.17,0.14,0.95,10.75,17.2,57.9,1.0,1.25,0.5,1.75,0.25,2.25,0.0,1.5,0.75,1.5,2.0,1.0,0.25,0.08,0.14,0.95,205.34,-2.6,-2.8
5.6,0.0,0.0,0.0,0.5,0.0,0.0,0.0,0.0,0.0,0.25,0.0,0.0,0.0,-0.17,0.14,0.95,8.72,6.5,14.7,1.25,1.25,0.5,1.75,0.5,2.25,0.25,1.5,0.75,1.5,2.0,1.0,0.25,0.08,0.14,0.95,208.89,-3.3,0.1
5.62,0.0,0.0,0.0,0.25,0.0,0.0,0.0,0.0,0.0,0.0,0.0,0.0,0.0,-0.17,0.14,0.95,5.25,17.2,57.9,1.25,1.25,0.5,2.0,0.5,2.25,0.25,1.5,0.75,1.5,2.0,1.0,0.25,0.08,0.14,0.95,208.33,-3.5,1.1
5.64,0.0,0.0,0.0,0.25,0.0,0.0,0.0,0.0,0.0,0.25,0.0,0.0,0.0,-0.17,0.14,0.95,4.65,1.1,-7.2,1.25,1.25,0.5,1.5,0.25,2.25,0.25,1.5,0.75,1.5,1.75,1.0,0.25,0.08,0.14,0.95,205.54,-3.0,-0.7
5.66,0.0,0.0,1.0,0.5,0.0,0.0,0.25,0.0,0.0,0.25,0.0,0.0,0.25,-0.17,0.14,0.95,14.29,20.5,22.5,0.75,1.25,0.5,1.25,0.5,2.25,0.0,1.5,0.75,1.5,1.75,1.0,0.25,0.08,0.14,0.95,200.59,-1.2,-4.4
5.68,0.0,0.0,0.0,0.5,0.0,0.0,0.25,0.0,0.25,0.25,0.0,0.0,0.25,-0.17,0.14,0.95,20.04,6.0,-16.5,0.75,1.25,0.5,1.25,0.5,2.25,0.25,1.5,0.75,1.5,2.0,1.0,0.25,0.08,0.14,0.95,196.55,-1.6,-5.4
5.7,0.0,0.0,0.0,0.5,0.0,0.0,0.5,0.0,0.0,0.25,0.0,0.0,0.25,-0.17,0.14,0.95,23.65,7.3,-8.0,0.75,1.0,0.5,1.25,0.25,2.5,0.0,1.5,0.75,1.5,1.75,1.0,0.25,0.08,0.14,0.95,190.6,-0.6,-7.1
5.72,0.0,0.0,0.75,0.5,0.0,0.0,0.0,0.0,0.0,0.25,0.0,0.0,0.25,-0.17,0.14,0.95,26.57,17.2,16.7,1.5,0.75,0.5,0.75,0.5,2.25,0.25,1.5,0.75,1.5,2.0,0.75,0.25,0.08,0.14,0.95,187.31,-2.2,-4.5
5.74,0.0,0.0,1.5,0.5,0.0,0.0,0.25,0.0,0.0,0.25,0.0,0.0,0.25,-0.17,0.14,0.95,34.48,23.9,29.9,0.75,1.25,0.5,1.5,0.25,2.25,0.25,1.5,0.75,1.5,2.0,1.0,0.25,0.08,0.14,0.95,188.15,-2.0,-5.4
5.76,0.0,0.0,0.75,0.5,0.0,0.0,0.25,0.0,0.0,0.25,0.0,0.0,0.25,-0.17,0.14,0.95,36.59,18.2,17.4,0.75,1.25,0.5,1.25,0.5,2.25,0.25,1.5,0.75,1.5,2.0,1.0,0.25,0.08,0.14,0.95,189.92,-1.6,-5.4
5.78,0.0,0.0,0.0,0.5,0.0,0.0,0.25,0.0,0.0,0.25,0.0,0.0,0.25,-0.17,0.14,0.95,33.58,4.7,-11.7,1.25,1.25,0.5,1.5,0.5,2.25,0.25,1.5,0.75,1.5,2.0,0.75,0.25,0.08,0.14,0.95,193.69,-2.9,1.0
5.8,0.0,0.0,0.0,0.5,0.0,0.0,0.25,0.0,0.0,0.25,0.0,0.0,0.25,-0.17,0.14,0.95,28.73,4.7,-11.7,1.0,1.25,0.5,1.25,0.5,2.25,0.25,1.5,0.75,1.5,1.75,1.0,0.25,0.08,0.14,0.95,195.01,-2.0,-2.3
5.82,0.0,0.0,0.0,0.5,0.0,0.0,0.25,0.0,0.0,0.25,0.0,0.0,0.25,-0.17,0.14,0.95,23.88,4.7,-11.7,1.0,1.25,0.5,1.75,0.25,2.25,0.25,1.5,0.75,1.5,2.0,1.0,0.25,0.08,0.14,0.95,197.07,-2.9,-2.5
5.84,0.0,0.0,0.75,0.5,0.0,0.0,0.25,0.0,0.0,0.5,0.0,0.0,0.25,-0.17,0.14,0.95,26.02,14.2,6.7,0.5,1.25,0.5,1.5,0.25,2.25,0.0,1.5,0.75,1.5,1.75,1.0,0.25,0.08,0.14,0.95,192.96,-1.0,-6.3
5.86,0.0,0.0,1.0,0.5,0.0,0.0,0.0,0.0,0.0,0.25,0.0,0.0,0.25,-0.17,0.14,0.95,29.83,19.8,22.3,1.0,1.0,0.5,1.25,0.25,2.25,0.25,1.5,0.5,1.5,2.0,1.0,0.25,0.08,0.14,0.95,190.6,-1.9,-6.3
5.88,0.0,0.0,1.25,0.5,0.0,0.0,0.25,0.0,0.0,0.25,0.0,0.0,0.25,-0.17,0.14,0.95,35.67,22.4,26.6,1.25,0.75,0.5,1.0,1.25,2.25,0.25,1.5,0.75,1.5,2.0,1.0,0.25,0.08,0.14,0.95,193.27,-1.7,-3.3
5.9,0.0,0.0,1.5,0.5,0.0,0.0,0.25,0.0,0.0,0.25,0.0,0.0,0.25,-0.17,0.14,0.95,40.06,23.9,29.9,0.75,1.25,0.5,1.5,0.25,2.25,0.25,1.5,0.75,1.5,1.75,1.0,0.25,0.08,0.14,0.95,193.29,-1.9,-4.1
5.92,0.0,0.0,1.25,0.5,0.0,0.0,0.25,0.0,0.0,0.25,0.0,0.0,0.25,-0.17,0.14,0.95,43.33,22.4,26.6,1.0,1.25,0.5,1.5,0.25,2.25,0.25,1.5,0.75,1.5,1.75,1.0,0.25,0.08,0.14,0.95,194.4,-2.5,-2.4
5.94,0.0,0.0,1.25,0.5,0.0,0.0,0.25,0.0,0.0,0.25,0.0,0.0,0.25,-0.17,0.14,0.95,43.79,22.4,26.6,0.5,1.25,0.5,1.25,0.25,2.25,0.25,1.5,0.75,1.5,2.0,1.0,0.25,0.08,0.14,0.95,191.91,-1.1,-8.5
5.96,0.0,0.0,0.5,0.5,0.0,0.0,0.25,0.0,0.0,0.25,0.0,0.0,0.25,-0.17,0.14,0.95,38.57,15.0,10.7,1.0,1.25,0.5,1.5,0.25,2.25,0.25,1.5,0.75,1.5,1.75,1.0,0.25,0.08,0.14,0.95,192.1,-2.5,-2.4
5.98,0.0,0.0,0.5,0.5,0.0,0.0,0.0,0.0,0.0,0.25,0.0,0.0,0.25,-0.17,0.14,0.95,33.49,13.7,9.4,1.0,1.25,0.5,1.5,0.25,2.25,0.25,1.5,0.75,1.5,2.0,1.0,0.25,0.08,0.14,0.95,192.3,-2.6,-3.7
6.0,0.0,0.0,0.25,0.5,0.0,0.0,0.0,0.0,0.0,0.25,0.0,0.0,0.25,-0.17,0.14,0.95,28.06,8.8,-0.8,1.25,1.25,0.5,1.5,0.25,2.25,0.25,1.5,0.75,1.5,2.0,0.75,0.25,0.08,0.14,0.95,194.86,-3.0,0.0
6.02,0.0,0.0,0.0,0.5,0.0,0.0,0.25,0.0,0.0,0.25,0.0,0.0,0.25,-0.17,0.14,0.95,23.42,4.7,-11.7,1.0,1.25,0.5,1.25,0.5,2.5,0.25,1.5,0.75,1.5,1.75,1.0,0.25,0.08,0.14,0.95,196.57,-1.6,-1.7
6.04,0.0,0.0,0.0,0.5,0.0,0.0,0.0,0.0,0.0,0.25,0.0,0.0,0.25,-0.17,0.14,0.95,18.44,1.5,-16.3,1.0,1.0,0.0,0.75,0.25,2.0,0.25,1.75,0.75,1.5,1.75,1.0,0.25,0.08,0.14,0.95,189.33,0.1,-12.7
6.06,0.0,0.0,0.0,0.5,0.0,0.0,0.0,0.0,0.0,0.25,0.0,0.0,0.25,-0.17,0.14,0.95,15.09,1.5,-16.3,0.75,1.25,0.5,1.75,0.25,2.25,0.0,1.5,0.75,1.5,2.0,1.0,0.25,0.08,0.14,0.95,189.63,-2.1,-4.5
6.08,0.0,0.0,0.0,0.5,0.0,0.0,0.25,0.0,0.0,0.25,0.0,0.0,0.25,-0.17,0.14,0.95,13.18,4.7,-11.7,1.0,1.25,0.5,1.25,0.25,2.25,0.0,1.5,0.75,1.5,2.0,1.0,0.25,0.08,0.14,0.95,188.78,-2.0,-5.1
6.1,0.0,0.0,0.0,0.5,0.0,0.0,0.0,0.0,0.0,0.25,0.0,0.0,0.25,-0.17,0.14,0.95,12.32,1.5,-16.3,1.0,1.25,0.5,1.25,0.25,2.25,0.25,1.5,0.75,1.5,2.0,1.0,0.25,0.08,0.14,0.95,190.93,-2.3,-4.9
6.12,0.0,0.0,0.0,0.5,0.0,0.0,0.0,0.0,0.0,0.25,0.0,0.0,0.25,-0.17,0.14,0.95,11.95,1.5,-16.3,0.75,1.25,0.5,1.25,0.25,2.25,0.25,1.5,0.75,1.5,2.0,1.0,0.25,0.08,0.14,0.95,190.26,-1.7,-6.7
6.14,0.0,0.0,0.0,0.5,0.0,0.0,0.25,0.0,0.0,0.25,0.0,0.0,0.25,-0.17,0.14,0.95,12.76,4.7,-11.7,1.0,1.25,0.5,1.5,0.25,2.25,0.25,1.5,0.75,1.5,2.0,1.0,0.25,0.08,0.14,0.95,193.72,-2.6,-3.7
6.16,0.0,0.0,0.25,0.25,0.0,0.0,0.25,0.0,0.0,0.75,0.0,0.0,0.25,-0.17,0.14,0.95,16.82,1.7,-30.8,1.0,1.25,0.5,1.5,0.5,2.25,0.0,1.5,0.75,1.5,1.75,1.0,0.25,0.08,0.14,0.95,194.61,-2.1,-1.5
6.18,0.0,0.0,0.0,0.5,0.0,0.0,0.0,0.0,0.0,0.25,0.0,0.0,0.0,-0.17,0.14,0.95,16.15,6.5,14.7,0.5,1.25,0.5,1.5,0.25,1.75,0.25,1.5,0.75,1.5,2.0,1.0,0.25,0.08,0.14,0.95,191.71,-2.4,-8.7
6.2,0.0,0.0,0.0,0.5,0.0,0.0,0.0,0.0,0.0,0.25,0.0,0.0,0.25,-0.17,0.14,0.95,16.92,1.5,-16.3,0.5,1.0,0.25,1.0,0.25,2.0,0.25,1.75,0.75,1.5,1.5,1.0,0.25,0.08,0.14,0.95,183.25,0.5,-12.6
6.22,0.0,0.0,0.0,0.5,0.0,0.0,0.0,0.0,0.0,0.25,0.0,0.0,0.25,-0.17,0.14,0.95,15.95,1.5,-16.3,1.0,1.25,0.5,1.5,0.5,2.25,0.25,1.5,0.75,1.5,2.0,1.0,0.25,0.08,0.14,0.95,186.34,-2.5,-2.5
6.24,0.0,0.0,0.0,0.5,0.0,0.0,0.25,0.0,0.0,0.25,0.0,0.0,0.25,-0.17,0.14,0.95,16.74,4.7,-11.7,1.0,1.25,0.5,1.25,0.25,2.25,0.25,1.25,0.75,1.5,1.75,1.0,0.25,0.08,0.14,0.95,186.01,-2.5,-2.9
6.26,0.0,0.0,0.0,0.5,0.0,0.0,0.25,0.0,0.0,0.25,0.0,0.0,0.25,-0.17,0.14,0.95,17.18,4.7,-11.7,0.75,1.25,0.5,1.25,0.25,2.25,0.25,1.5,0.75,1.5,1.75,1.0,0.25,0.08,0.14,0.95,188.23,-1.6,-5.4
6.28,0.0,0.0,0.0,0.5,0.0,0.0,0.0,0.0,0.0,0.25,0.0,0.0,0.25,-0.17,0.14,0.95,17.43,1.5,-16.3,0.75,1.25,0.5,1.5,0.25,2.25,0.25,1.5,0.75,1.5,2.0,1.0,0.25,0.08,0.14,0.95,190.46,-2.0,-5.4
6.3,0.0,0.0,0.0,0.5,0.0,0.0,0.0,0.0,0.0,0.25,0.0,0.0,0.25,-0.17,0.14,0.95,17.02,1.5,-16.3,1.0,1.25,0.5,1.5,0.25,2.25,0.25,1.5,0.75,1.5,2.0,0.75,0.25,0.08,0.14,0.95,191.7,-2.5,-1.7
