time,left pressure 0[N/cm²],left pressure 1[N/cm²],left pressure 2[N/cm²],left pressure 3[N/cm²],left pressure 4[N/cm²],left pressure 5[N/cm²],left pressure 6[N/cm²],left pressure 7[N/cm²],left pressure 8[N/cm²],left pressure 9[N/cm²],left pressure 10[N/cm²],left pressure 11[N/cm²],left pressure 12[N/cm²],left acceleration X[g],left acceleration Y[g],left acceleration Z[g],left total force[N],left center of pressure X[mm],left center of pressure Y[mm],right pressure 0[N/cm²],right pressure 1[N/cm²],right pressure 2[N/cm²],right pressure 3[N/cm²],right pressure 4[N/cm²],right pressure 5[N/cm²],right pressure 6[N/cm²],right pressure 7[N/cm²],right pressure 8[N/cm²],right pressure 9[N/cm²],right pressure 10[N/cm²],right pressure 11[N/cm²],right pressure 12[N/cm²],right acceleration X[g],right acceleration Y[g],right acceleration Z[g],right total force[N],right center of pressure X[mm],right center of pressure Y[mm]
0.02,2.75,1.25,4.5,6.25,7.0,4.25,2.25,4.0,0.75,1.75,2.25,0.0,0.75,-0.11,0.08,0.95,511.48,6.3,28.5,0.25,0.0,0.25,0.0,0.0,1.5,0.25,0.25,0.0,0.0,0.0,0.0,0.0,-0.55,2.2,0.7,48.72,6.4,35.3
0.04,3.5,1.25,5.25,6.5,7.0,4.75,2.5,4.0,0.75,1.75,2.25,0.0,0.25,-0.11,0.14,0.95,561.1,7.5,32.4,0.25,0.0,0.75,0.0,0.5,1.75,0.5,0.25,0.0,1.25,0.0,1.0,0.0,-0.86,2.58,0.33,63.98,1.5,-8.3
0.06,5.5,1.25,5.25,7.25,7.75,5.25,2.75,3.75,0.75,1.75,1.25,0.0,0.25,-0.11,0.14,0.95,628.49,8.5,39.1,1.75,1.0,0.5,1.5,1.75,2.5,0.25,1.25,0.0,1.5,1.75,1.0,0.25,-1.42,2.83,0.08,123.05,-2.6,9.9
0.08,6.0,1.25,5.25,7.75,7.75,5.75,2.5,3.75,0.5,1.75,1.25,0.0,0.25,-0.11,0.14,1.02,685.8,8.4,40.4,1.25,1.0,0.75,1.75,1.25,1.5,0.25,1.25,0.0,0.0,0.0,0.25,0.0,-1.23,2.39,0.39,151.49,-6.7,45.5
0.1,2.75,1.25,5.75,8.0,7.75,6.0,2.75,3.75,0.5,1.25,1.25,0.0,0.25,-0.11,0.14,1.02,715.26,7.1,37.8,0.0,0.0,0.5,0.0,0.0,1.25,0.0,1.0,0.0,0.0,0.25,0.25,0.0,-0.36,1.58,-0.98,139.72,6.0,-3.9
0.12,0.0,1.25,6.0,8.25,0.0,6.25,2.75,3.5,0.0,1.25,1.0,0.0,0.25,-0.11,0.14,1.02,633.3,8.1,31.0,0.0,0.0,0.0,0.0,0.0,1.25,0.0,1.25,0.0,1.5,1.25,1.0,0.0,0.14,0.02,1.64,125.75,8.0,-52.5
0.14,0.0,1.25,7.0,9.0,0.0,6.5,2.75,3.0,0.0,1.0,0.0,0.0,0.0,-0.17,0.2,1.02,545.77,9.8,39.7,0.0,0.0,0.0,0.0,0.0,1.25,0.0,1.25,0.0,5.5,2.0,3.0,1.75,0.27,-0.11,0.89,156.76,7.6,-74.7
0.16,0.0,1.25,7.0,9.25,0.0,6.5,2.75,2.25,0.0,0.0,0.0,0.0,0.0,-0.17,0.2,1.02,459.69,11.5,46.1,0.0,0.0,0.0,0.0,0.0,1.75,0.0,1.5,0.0,7.5,6.0,3.75,4.0,-1.05,0.45,2.39,235.78,5.8,-76.8
0.18,0.0,1.25,7.0,8.25,0.0,0.0,2.75,2.0,0.25,0.0,0.5,0.0,0.0,-0.17,0.2,1.02,373.21,21.6,46.2,0.0,0.0,0.0,0.0,0.0,2.0,0.25,2.75,0.5,8.0,6.75,3.25,3.75,0.64,0.39,2.58,314.86,5.9,-71.9
0.2,7.0,1.25,7.0,9.25,0.0,0.0,2.5,2.0,0.0,0.0,0.25,0.0,0.0,-0.23,0.27,1.2,352.47,24.6,60.5,0.0,0.0,0.5,0.5,0.0,2.5,0.0,4.5,1.0,8.0,7.0,3.0,2.75,-0.17,0.33,1.45,396.94,5.2,-61.9
0.22,7.0,1.25,7.25,8.75,0.0,0.0,2.5,1.25,0.0,0.0,0.75,0.0,0.0,-0.23,0.27,1.33,350.56,25.8,60.9,1.25,0.0,1.75,1.5,0.0,3.75,1.75,4.25,0.5,7.75,7.0,3.0,2.75,0.08,0.14,0.95,467.87,1.2,-42.9
0.24,7.0,1.25,6.25,6.5,0.0,0.0,2.25,1.75,0.0,0.0,0.5,0.0,0.0,-0.3,0.33,1.7,345.11,25.4,60.6,1.25,0.25,0.75,2.5,0.25,4.5,3.0,5.25,1.75,8.25,7.0,3.75,2.5,0.08,0.14,0.95,536.91,1.4,-39.8
0.26,0.0,0.0,0.0,0.0,0.0,0.0,0.0,0.0,1.75,0.0,0.0,0.25,0.0,-0.67,-0.3,0.89,229.45,11.7,-47.5,3.0,1.0,3.5,3.25,2.75,5.0,5.25,5.25,1.5,8.0,8.25,2.5,3.25,0.08,0.14,0.95,644.94,-2.7,-18.3
0.28,0.0,0.0,0.0,0.25,0.0,0.0,0.0,0.0,0.0,0.0,0.0,0.0,0.0,-0.48,-1.11,1.52,109.53,17.2,57.9,4.75,1.0,5.75,4.0,2.75,5.25,5.75,4.75,1.75,7.0,6.75,2.25,2.0,0.08,0.08,0.95,748.89,-6.4,-3.7
0.3,0.0,0.0,0.75,0.25,0.0,0.0,0.0,0.0,0.0,0.0,0.0,0.0,0.0,0.08,-0.73,1.2,0.0,32.9,60.2,4.5,0.75,6.0,4.25,0.5,5.75,6.25,4.5,1.75,7.0,7.0,2.75,1.5,0.08,0.08,0.95,816.19,-7.2,-6.7
0.32,0.0,0.0,0.25,0.25,0.0,0.0,0.0,0.0,0.0,0.0,0.0,0.0,0.0,-0.11,-0.55,0.89,0.0,27.6,59.4,4.75,1.0,6.0,4.5,4.25,5.75,7.0,5.25,1.5,6.25,6.0,2.25,1.75,0.08,0.08,0.95,884.96,-6.4,2.1
0.34,0.0,0.0,0.75,0.25,0.0,0.0,0.0,0.0,0.0,0.0,0.0,0.0,0.0,-0.42,-0.36,0.52,0.0,32.9,60.2,5.5,0.75,8.0,4.5,4.25,5.75,7.5,4.25,1.5,5.5,5.25,1.5,1.75,0.08,0.08,0.95,915.78,-8.8,9.8
0.36,0.0,0.0,1.0,0.5,0.0,0.0,0.0,0.0,0.0,0.0,0.0,0.0,0.0,-0.61,-0.17,0.39,0.0,31.1,59.9,5.75,1.0,8.25,5.25,4.25,5.75,7.75,4.25,1.5,3.75,4.0,1.0,1.5,0.08,0.08,0.95,908.35,-10.2,18.6
0.38,0.0,0.0,1.5,1.0,0.0,0.0,0.0,0.0,0.0,0.0,0.0,0.0,0.0,-0.55,-0.05,0.39,0.0,29.7,59.7,6.5,1.25,8.75,5.75,4.25,5.5,8.0,4.25,1.5,3.0,2.5,1.0,1.0,0.08,0.08,0.95,883.03,-11.8,26.4
0.4,0.0,0.0,1.25,1.0,0.0,0.0,0.0,0.0,0.0,0.0,0.0,0.0,0.0,-0.48,-0.05,0.7,0.0,28.8,59.6,6.5,1.25,9.0,6.25,4.25,5.75,8.25,3.5,1.25,2.75,3.0,1.0,0.75,0.02,0.08,0.95,862.43,-12.6,28.5
0.42,0.0,0.0,1.0,0.5,0.0,0.0,0.0,0.0,0.0,0.0,0.0,0.0,0.0,-0.55,0.08,0.89,0.0,31.1,59.9,7.0,1.0,9.5,6.25,4.5,5.5,8.75,3.0,1.0,2.0,3.25,1.0,0.25,0.14,0.14,0.95,842.09,-14.2,32.8
0.44,0.0,0.0,1.0,0.75,0.0,0.0,0.0,0.0,0.0,0.0,0.0,0.0,0.0,-0.67,0.27,0.95,0.0,29.1,59.6,7.25,1.0,10.0,6.75,4.5,5.25,8.75,3.0,1.0,1.5,2.5,1.0,0.5,0.08,0.14,0.95,824.74,-15.0,35.7
0.46,0.0,0.0,2.0,1.0,0.0,0.0,0.25,0.0,0.0,0.0,0.0,0.0,0.0,-0.8,0.58,0.89,0.0,31.2,58.7,7.25,1.0,11.0,7.5,4.25,5.0,9.0,2.5,1.0,1.5,2.5,1.0,0.0,0.08,0.14,0.95,812.97,-16.5,38.7
0.48,0.0,0.0,1.25,0.5,0.0,0.0,0.0,0.0,0.0,0.0,0.0,0.0,0.0,-0.92,0.7,1.02,18.24,32.1,60.1,7.5,1.25,11.0,8.0,4.25,5.0,9.0,2.75,1.0,1.5,2.25,0.75,0.25,0.08,0.14,0.95,808.86,-16.3,39.6
0.5,0.0,0.0,2.0,0.5,0.0,0.0,0.0,0.0,0.0,0.0,0.0,0.0,0.0,-1.05,0.7,1.27,46.35,34.0,60.3,7.25,1.25,12.0,8.0,4.75,4.75,9.5,2.75,1.0,1.5,2.0,1.0,0.25,0.02,0.14,0.95,816.08,-16.7,39.7
0.52,2.0,0.0,1.75,0.5,0.0,0.0,0.0,0.0,0.0,0.0,0.0,0.0,0.0,-1.23,0.77,1.33,58.35,34.1,77.0,7.75,1.0,12.0,8.25,4.75,0.0,9.5,2.5,1.0,1.5,1.75,1.0,0.5,0.02,0.14,0.89,800.61,-20.7,40.8
0.54,0.0,0.0,2.0,0.5,0.0,0.0,0.0,0.0,0.0,0.0,0.0,0.0,0.0,-1.48,0.89,1.27,58.44,34.0,60.3,8.0,1.25,12.0,8.5,4.75,0.0,9.5,2.0,1.0,1.5,2.0,1.0,0.25,0.08,0.14,0.95,786.89,-21.2,42.6
0.56,0.0,0.0,2.0,0.25,0.0,0.0,0.0,0.0,0.0,0.0,0.0,0.0,0.0,-1.67,0.95,1.2,55.65,35.9,60.6,8.25,1.0,12.0,8.0,4.75,2.5,9.5,1.5,0.75,0.0,2.0,0.25,0.0,0.08,0.2,0.95,758.67,-21.2,50.4
0.58,0.0,0.0,2.0,0.5,0.0,0.0,0.0,0.0,0.0,0.0,0.0,0.0,0.0,-1.73,1.02,1.02,51.12,34.0,60.3,7.25,0.5,11.0,8.0,4.25,4.75,9.25,1.25,0.75,0.0,0.75,0.25,0.0,0.02,0.14,0.89,728.23,-19.2,51.7
0.6,0.0,0.0,2.0,0.5,0.0,0.0,0.0,0.0,0.0,0.0,0.0,0.0,0.0,-1.67,1.02,0.89,48.12,34.0,60.3,7.25,0.75,12.0,8.25,5.75,5.25,9.5,1.5,0.5,0.0,1.25,0.25,0.0,0.02,0.14,0.89,734.11,-18.2,50.8
0.62,0.0,0.0,2.0,0.5,0.0,0.0,0.25,0.0,0.0,0.0,0.0,0.0,0.0,-1.48,0.95,0.89,46.36,33.9,58.9,8.25,1.75,11.0,9.75,4.75,5.75,9.0,2.25,0.75,0.0,0.75,0.75,0.0,0.08,0.2,0.95,764.34,-17.4,50.4
0.64,0.0,0.0,1.25,0.5,0.0,0.0,0.25,0.0,0.0,0.0,0.5,0.0,0.0,-1.3,0.95,0.89,45.52,27.9,31.3,7.5,1.0,12.0,9.0,7.25,6.5,9.0,2.75,0.5,0.0,0.0,0.25,0.0,0.02,0.2,0.89,810.29,-15.8,51.9
0.66,0.0,0.0,0.5,0.25,0.0,0.0,0.0,0.0,0.0,0.0,0.0,0.0,0.0,-1.11,1.02,0.77,35.14,31.1,59.9,7.75,1.0,9.75,9.5,6.75,7.0,8.75,1.75,0.25,0.0,0.25,0.25,0.0,0.02,0.2,0.89,825.49,-15.3,53.3
0.68,0.0,0.0,0.0,0.25,0.0,0.0,0.0,0.0,0.0,0.0,0.0,0.0,0.0,-1.17,1.14,0.89,20.07,17.2,57.9,7.5,1.0,10.0,9.75,7.75,7.5,8.5,2.25,0.0,1.5,0.25,1.0,0.0,0.08,0.2,1.02,859.24,-13.3,46.8
0.7,0.0,0.0,0.0,0.5,0.0,0.0,0.0,0.0,0.0,0.0,0.0,0.0,0.0,-1.11,1.27,0.89,8.61,17.2,57.9,8.25,1.75,11.0,11.5,8.25,8.0,8.25,2.75,0.0,1.5,1.75,0.5,0.0,0.08,0.2,0.95,928.44,-13.4,46.3
0.72,0.0,0.0,0.0,0.5,0.0,0.0,0.0,0.0,0.0,0.0,0.0,0.0,0.0,-0.86,1.2,0.52,3.35,17.2,57.9,7.5,1.0,9.25,11.5,9.25,8.25,7.75,3.0,0.75,1.5,1.75,1.0,0.0,0.08,0.2,0.95,989.19,-11.6,42.0
0.74,0.0,0.0,0.25,0.5,0.0,0.0,0.0,0.0,0.0,0.0,0.0,0.0,0.0,-0.73,1.33,0.39,1.83,24.1,58.9,8.0,2.0,11.0,11.5,9.25,8.5,7.5,3.0,0.75,1.5,1.75,1.0,0.25,0.02,0.2,0.95,1071.04,-12.3,43.2
0.76,0.0,0.0,1.0,0.5,0.0,0.0,0.0,0.0,0.0,0.0,0.0,0.0,0.0,-0.67,1.27,0.45,7.91,31.1,59.9,7.75,1.75,11.0,10.5,9.25,8.75,7.5,3.0,0.75,1.5,1.5,1.0,0.25,0.02,0.27,0.95,1116.21,-12.0,43.0
0.78,0.0,0.0,0.0,0.5,0.0,0.0,0.0,0.0,0.0,0.0,0.0,0.0,0.0,-0.55,1.08,0.58,9.52,17.2,57.9,7.5,2.0,9.75,11.5,9.25,8.75,7.25,3.0,0.75,1.5,1.5,1.0,0.25,0.08,0.33,0.89,1135.09,-11.4,42.9
0.8,0.0,0.0,0.25,0.5,0.0,0.0,0.0,0.0,0.0,0.0,0.0,0.0,0.0,-0.48,0.89,0.58,10.11,24.1,58.9,7.25,2.0,9.5,11.5,9.5,8.75,7.0,2.75,0.75,1.5,1.5,0.75,0.25,0.14,0.33,0.89,1124.16,-11.2,43.7
0.82,0.0,0.0,1.0,0.5,0.0,0.0,0.25,0.0,0.0,0.0,0.0,0.0,0.0,-0.61,0.83,0.45,14.4,31.2,57.6,7.0,2.0,9.5,11.5,9.75,8.25,6.75,2.75,0.75,1.5,1.25,1.0,0.75,0.2,0.39,0.89,1111.92,-11.1,42.2
0.84,0.0,0.0,1.0,0.5,0.0,0.0,0.0,0.0,0.0,0.0,0.0,0.0,0.0,-0.67,0.7,0.39,19.61,31.1,59.9,6.25,1.75,9.25,11.5,9.5,8.25,6.75,2.5,0.75,1.5,1.5,1.0,0.0,0.27,0.45,0.89,1072.77,-11.2,43.0
0.86,0.0,0.0,0.75,0.5,0.0,0.0,0.0,0.0,0.0,0.0,0.0,0.0,0.0,-0.55,0.52,0.33,22.84,29.7,59.7,6.5,1.75,9.0,11.5,9.25,8.0,6.25,1.75,0.75,1.5,1.0,1.0,0.25,0.2,0.45,0.83,1030.03,-11.6,44.6
0.88,0.0,0.0,1.0,0.5,0.0,0.0,0.0,0.0,0.0,0.0,0.0,0.0,0.0,0.08,-0.11,0.14,26.99,31.1,59.9,6.75,1.75,9.0,10.5,9.25,7.75,6.0,1.5,0.75,1.5,1.0,1.0,0.0,0.2,0.45,0.83,981.78,-11.9,45.7
0.9,1.5,0.0,0.0,0.25,0.0,0.0,0.0,0.0,0.0,0.0,0.0,0.0,0.0,-0.48,0.45,0.02,30.88,32.1,91.5,6.25,1.25,8.75,9.5,8.25,7.25,5.5,1.25,0.75,0.0,0.75,0.75,0.25,0.27,0.45,0.83,898.29,-12.9,49.1
0.92,0.0,0.0,0.25,0.5,0.0,0.0,0.0,0.25,0.0,0.0,0.0,0.0,0.0,-0.98,0.02,1.02,27.82,14.2,35.2,6.5,1.0,8.0,6.25,8.0,6.5,4.5,1.25,0.5,1.5,1.25,0.25,0.0,0.2,0.39,0.95,788.52,-11.9,46.2
0.94,0.0,0.0,0.0,0.5,0.0,0.0,0.0,0.25,0.0,0.0,0.0,0.0,0.0,-0.92,0.2,1.02,22.82,6.2,26.6,5.75,0.25,6.5,4.5,6.0,5.0,3.75,1.0,0.25,1.5,1.5,0.75,0.0,0.39,0.45,0.95,640.74,-12.4,41.2
0.96,0.0,0.0,0.75,2.5,0.0,0.0,0.0,1.5,0.0,0.0,0.0,0.0,0.0,-0.3,0.27,1.14,41.8,10.1,28.7,5.75,1.25,5.75,5.0,5.25,5.25,2.25,1.25,0.25,0.0,0.0,0.25,0.0,0.45,0.52,1.02,518.21,-12.8,55.4
0.98,0.0,0.0,0.0,1.75,0.0,6.0,0.0,4.75,0.0,0.0,1.0,0.0,0.0,-0.17,0.2,1.02,102.21,-12.6,3.1,4.25,1.0,5.25,4.25,3.5,3.75,1.5,1.25,0.0,0.25,1.5,0.25,0.25,0.52,0.52,0.95,397.57,-13.2,45.1
1.0,0.0,0.75,0.0,2.0,0.0,6.75,0.5,3.5,0.0,0.25,0.0,0.0,0.0,-0.17,0.14,1.2,156.98,-11.7,20.1,3.5,1.0,3.5,4.0,1.5,2.75,1.25,0.0,0.0,0.0,0.0,0.25,0.0,0.45,0.58,0.95,295.48,-17.0,61.0
1.02,0.0,0.0,0.0,0.0,0.0,5.75,0.0,0.0,0.5,0.75,0.0,0.0,0.0,-0.17,0.14,1.2,168.04,-19.4,16.3,1.25,0.0,2.5,1.75,0.5,2.75,0.5,0.0,0.0,0.0,0.0,0.25,0.0,0.45,0.52,0.95,193.32,-12.9,51.5
1.04,0.0,1.0,0.0,0.5,3.75,6.25,0.0,4.25,0.0,0.25,0.0,0.0,0.0,-0.17,0.14,1.08,204.99,-12.4,23.4,2.0,0.0,1.75,1.25,0.25,2.5,0.25,0.0,0.0,0.0,0.0,0.25,0.0,0.27,0.2,0.89,96.34,-13.5,55.0
1.06,0.0,1.0,0.0,2.0,6.25,6.5,0.25,5.5,0.0,1.75,0.25,0.0,0.25,-0.23,0.14,0.95,259.44,-9.5,17.6,1.25,0.0,1.25,0.75,0.0,2.5,0.0,0.25,0.0,0.0,0.0,0.25,0.0,-0.17,0.33,0.77,13.76,-7.8,46.2
1.08,0.0,0.0,0.0,1.25,5.5,6.25,0.25,6.5,1.25,2.5,0.0,0.5,0.5,-0.17,0.08,0.95,309.78,-10.6,0.8,1.25,0.25,0.75,0.5,0.0,2.5,0.0,0.0,0.0,0.0,0.0,0.0,0.0,0.45,0.2,0.52,0.0,-5.6,58.5
1.1,0.0,1.0,0.0,2.25,4.25,6.25,0.25,6.5,0.5,2.5,2.25,0.25,1.25,-0.17,0.08,0.95,365.78,-8.2,-3.1,1.0,0.0,0.75,0.5,0.25,2.25,0.25,0.0,0.0,0.0,0.0,0.25,0.0,0.45,0.39,0.52,0.0,-5.5,46.4
1.12,0.0,1.0,0.0,2.25,4.0,6.25,0.5,6.5,0.5,2.0,2.25,0.0,1.25,-0.17,0.08,0.95,396.78,-8.1,-1.2,1.25,0.0,0.0,0.25,0.0,2.25,0.25,0.0,0.0,0.0,0.0,0.0,0.0,0.52,0.33,0.52,0.0,-0.1,55.8
1.14,0.0,1.0,0.0,2.5,0.75,6.25,0.5,6.5,0.5,2.5,2.25,0.0,1.0,-0.17,0.08,0.95,390.83,-8.7,-9.8,1.0,0.0,0.25,0.25,0.0,2.25,0.25,0.0,0.0,0.0,0.0,0.25,0.0,0.39,0.27,0.7,0.0,-1.1,43.2
1.16,0.0,1.0,0.0,2.5,3.75,6.25,0.5,6.25,0.0,2.25,2.0,0.0,1.0,-0.17,0.08,0.95,384.4,-8.4,0.8,1.25,0.0,0.75,0.25,0.0,2.0,0.25,0.0,0.0,0.0,0.0,0.25,0.0,0.02,0.08,0.89,0.0,-8.4,48.6
1.18,0.0,1.0,0.0,2.5,4.0,6.25,0.5,6.25,0.0,2.25,2.25,0.5,1.25,-0.17,0.08,0.95,382.38,-7.9,-2.3,1.0,0.25,0.5,0.0,0.0,1.5,0.25,0.75,0.0,0.0,0.5,0.0,0.0,-0.3,0.02,0.95,0.0,-4.4,29.9
1.2,0.0,1.0,0.0,2.5,4.75,6.0,0.5,6.25,0.75,2.0,2.25,0.5,0.75,-0.17,0.08,0.95,384.33,-6.9,0.7,1.0,0.0,0.5,0.0,0.0,1.25,0.25,0.0,0.0,0.0,0.75,0.0,0.0,-0.67,-0.17,1.08,7.24,-10.6,32.0
1.22,0.0,1.0,0.75,2.5,0.0,6.0,0.5,6.25,0.75,2.0,2.25,0.0,0.5,-0.17,0.08,0.95,358.21,-6.5,-6.4,0.75,0.0,0.0,0.0,0.0,1.25,0.25,0.0,0.0,0.0,0.0,0.0,0.0,-0.73,-0.17,1.08,15.23,-0.6,56.0
1.24,0.0,1.0,0.75,2.5,5.75,6.0,1.0,6.0,0.75,2.0,2.25,0.25,0.75,-0.11,0.08,0.95,372.37,-5.3,5.9,2.5,1.0,1.0,1.5,0.0,2.75,1.0,1.5,0.5,1.5,1.75,0.75,0.5,-0.55,-0.11,0.95,93.92,-5.9,8.3
1.26,0.0,1.0,0.5,2.5,6.0,5.75,1.0,5.75,0.75,2.5,0.75,0.5,0.75,-0.11,0.08,0.95,373.96,-6.3,7.8,2.0,0.5,1.75,0.0,1.25,1.25,1.25,1.25,0.25,1.25,1.0,0.5,0.0,-0.36,-0.05,0.95,139.18,-9.0,17.0
1.28,0.0,1.0,0.25,2.5,5.75,5.75,1.0,5.5,1.0,2.5,2.0,0.75,1.0,-0.11,0.08,0.95,379.0,-5.7,1.4,2.0,0.0,2.0,0.0,0.25,2.0,0.25,0.0,0.25,0.5,0.75,0.75,0.5,-0.23,-0.05,1.02,163.83,-11.8,16.8
1.3,0.0,1.0,0.0,3.0,6.5,5.75,1.25,5.75,1.0,2.25,1.75,0.5,1.0,-0.11,0.08,0.95,385.94,-5.8,5.3,2.0,0.5,0.75,1.25,0.25,2.5,1.25,1.25,0.5,1.5,2.0,0.75,0.25,-0.11,-0.05,1.02,186.87,-5.3,2.2
1.32,0.0,1.25,0.0,2.75,6.25,5.25,1.25,5.5,1.0,3.0,2.25,0.5,1.0,-0.11,0.08,0.95,398.69,-5.4,1.8,2.0,1.0,1.75,1.75,1.25,2.75,1.25,1.25,0.25,1.25,1.25,0.75,0.25,-0.05,-0.11,1.08,214.42,-6.9,20.4
1.34,4.0,1.25,0.0,3.25,6.25,4.75,1.75,5.5,1.5,3.0,2.25,0.75,1.0,-0.11,0.08,0.95,432.6,0.0,11.3,0.75,0.75,2.0,2.0,1.0,2.75,0.25,0.0,0.75,1.5,0.0,0.75,0.0,-0.17,-0.05,1.02,219.12,-6.5,25.7
1.36,5.0,1.25,0.0,3.25,6.25,4.25,2.0,5.25,1.5,3.5,0.0,0.75,1.25,-0.11,0.08,0.95,461.04,0.5,17.2,0.75,1.0,1.0,1.75,0.0,2.75,0.25,0.0,0.0,0.0,0.0,0.0,0.0,-0.11,0.02,1.02,200.43,-7.2,59.0
1.38,0.0,1.25,0.0,3.25,6.25,3.75,2.75,4.75,1.75,3.5,0.0,0.75,1.25,-0.11,0.08,0.95,453.39,-3.8,4.5,1.5,0.75,0.5,0.0,0.0,1.25,0.5,0.0,0.0,0.0,0.0,0.0,0.0,-0.05,0.02,0.95,160.28,-14.4,71.0
1.4,0.0,1.0,0.0,4.0,0.0,3.0,3.0,4.75,1.75,3.5,0.0,0.75,1.25,-0.11,0.08,0.95,387.31,-2.6,-11.9,0.75,0.0,0.5,0.0,0.0,1.0,0.25,0.0,0.25,0.0,0.0,0.0,0.0,-0.05,0.02,0.95,107.53,-11.6,49.8
1.42,0.0,1.25,4.5,4.25,0.0,2.5,3.5,4.75,1.75,3.5,4.0,1.25,1.25,-0.11,0.08,0.95,375.76,6.2,-9.4,0.5,0.0,0.5,0.0,0.0,1.25,1.0,1.0,0.25,0.0,0.75,0.0,0.0,0.02,-0.05,0.89,75.34,-4.0,5.9
1.44,0.0,1.0,5.5,4.25,0.0,2.25,4.0,4.5,2.0,3.25,4.0,1.0,1.25,-0.11,0.08,0.95,372.99,8.0,-6.7,1.75,0.25,0.5,0.0,0.25,1.25,1.25,1.5,0.75,1.25,1.25,0.75,0.0,0.08,-0.05,0.89,86.43,-5.5,-6.5
1.46,0.0,1.0,6.25,4.0,0.0,2.25,4.25,4.5,2.0,3.5,0.0,1.5,1.5,-0.11,0.08,0.95,380.62,8.1,0.5,2.0,0.25,1.75,1.5,1.0,2.5,1.25,1.25,0.75,1.25,1.75,0.75,0.25,0.14,-0.11,0.83,134.49,-7.4,10.1
1.48,0.0,1.0,5.75,4.25,0.0,1.75,4.5,4.0,2.0,3.75,0.0,1.5,1.75,-0.11,0.08,0.95,375.3,8.3,-1.4,2.0,1.0,1.75,1.75,1.75,2.5,1.25,1.25,0.75,1.5,1.5,0.75,0.25,0.14,-0.05,0.83,183.39,-6.9,16.9
1.5,0.0,1.0,5.75,4.25,0.0,1.5,4.75,4.0,2.0,3.75,0.0,0.75,2.0,-0.11,0.08,0.95,370.87,8.4,0.3,1.75,1.0,1.75,1.75,0.5,2.5,1.25,1.25,0.75,1.25,1.5,0.5,0.25,0.14,-0.05,0.89,217.77,-7.7,15.8
1.52,0.0,1.0,6.0,4.25,0.0,1.5,5.0,3.75,2.25,3.75,0.0,1.25,2.0,-0.11,0.08,0.95,363.18,9.1,-0.9,1.25,1.0,1.5,1.75,1.25,2.5,1.25,1.25,0.75,1.25,1.5,0.75,0.25,0.14,0.02,0.77,233.45,-5.8,12.7
1.54,0.0,0.0,5.5,2.75,0.0,1.0,5.0,3.75,2.25,3.75,0.0,1.75,2.25,-0.11,0.08,0.95,344.23,8.2,-13.6,0.0,0.25,0.5,0.0,0.5,0.5,0.25,0.0,0.25,0.0,1.25,0.0,0.25,0.2,-0.17,0.45,182.37,-7.2,-5.9
1.56,0.0,1.0,5.5,4.25,0.0,1.25,5.0,3.75,2.25,3.75,0.0,1.5,2.5,-0.11,0.08,0.95,347.19,8.4,-5.2,0.0,0.0,0.5,0.0,0.0,0.75,0.75,0.5,0.25,0.0,0.0,0.0,0.0,-0.8,0.2,0.77,126.48,-4.1,15.6
1.58,0.0,1.0,5.5,4.25,0.0,1.0,5.0,3.75,2.0,4.5,0.0,1.5,2.5,-0.11,0.08,0.95,349.41,8.0,-7.1,0.0,0.5,0.5,0.0,0.0,1.25,1.25,0.0,0.25,0.0,0.0,0.0,0.0,0.14,0.08,1.14,78.78,-7.0,42.3
1.6,0.0,1.0,5.75,4.0,0.0,0.5,4.75,3.75,1.75,3.75,0.0,1.25,2.5,-0.11,0.08,0.95,353.77,9.2,-4.8,1.5,0.25,1.75,1.25,0.0,2.5,1.25,0.0,0.25,0.0,0.0,0.0,0.0,0.52,0.58,0.52,84.21,-14.0,54.6
1.62,0.0,1.0,5.5,4.25,0.0,1.0,4.5,3.75,2.25,5.0,5.25,1.75,2.5,-0.11,0.08,0.95,386.38,7.9,-19.3,1.5,0.5,0.5,1.75,0.25,2.75,2.5,1.5,0.75,1.5,2.0,1.0,0.5,0.14,0.14,1.27,130.47,-4.3,-3.1
1.64,0.0,1.0,5.75,4.0,0.0,0.25,4.25,3.75,2.0,5.0,5.5,1.75,2.5,-0.11,0.08,0.95,410.54,8.6,-20.8,2.25,0.75,3.5,1.75,1.0,0.0,3.5,1.5,0.25,3.25,4.0,1.75,0.5,0.14,0.08,1.02,205.67,-12.5,-6.1
1.66,0.0,0.0,5.25,2.5,0.0,0.0,3.5,2.25,1.5,3.75,4.75,1.0,2.0,-0.11,0.08,0.95,382.26,10.3,-23.4,2.75,0.0,3.5,2.0,1.25,0.5,3.5,2.75,0.25,1.75,3.0,1.0,1.0,0.02,0.08,0.95,255.27,-11.9,1.9
1.68,0.0,0.0,4.0,2.75,0.0,0.25,3.5,3.75,1.75,5.0,4.5,2.0,2.5,-0.11,0.14,0.95,371.17,5.8,-33.4,2.0,0.75,0.75,1.25,0.0,3.25,2.5,1.5,0.0,1.5,2.5,0.75,0.25,0.08,0.14,0.95,260.59,-4.9,3.5
1.7,0.0,0.0,5.25,2.5,0.0,0.0,3.0,3.75,1.25,5.0,5.5,2.0,3.0,-0.11,0.14,0.95,367.03,6.8,-33.8,1.25,0.5,0.75,0.5,0.25,2.75,2.5,2.5,0.5,2.75,3.0,0.75,0.25,0.08,0.08,0.95,255.2,-1.1,-16.3
1.72,0.0,0.75,3.5,2.5,0.0,0.5,2.75,3.5,1.25,5.5,5.75,2.0,3.75,-0.11,0.08,0.95,375.02,3.9,-38.1,1.5,0.25,0.75,1.5,0.0,4.25,2.75,2.75,0.75,2.75,2.75,0.75,0.25,0.08,0.08,0.95,256.85,-0.5,-9.3
1.74,0.0,0.0,0.0,0.5,0.0,0.0,2.0,2.25,1.0,4.25,4.5,1.75,2.5,-0.11,0.08,0.95,332.79,-1.4,-67.6,2.0,0.5,2.25,0.75,0.5,5.0,3.5,3.0,1.25,3.0,3.0,0.75,0.25,0.08,0.08,0.95,282.2,-2.9,-2.6
1.76,0.0,0.0,1.75,0.5,0.0,0.0,1.5,2.0,0.75,4.0,4.5,1.5,2.5,-0.11,0.14,0.95,296.98,2.1,-56.2,3.75,1.25,3.75,3.25,2.5,5.25,4.5,4.25,0.75,2.5,3.75,1.25,0.25,0.08,0.08,0.95,363.64,-6.8,13.4
1.78,0.0,0.0,0.0,0.5,0.0,0.0,1.0,2.0,0.75,3.75,4.5,1.75,2.5,-0.17,0.14,0.95,259.04,-1.9,-71.0,4.5,1.25,3.75,4.0,4.25,5.75,5.0,4.25,1.25,3.5,3.5,1.0,1.25,0.08,0.08,0.95,491.13,-5.7,13.3
1.8,0.0,0.0,1.0,0.5,0.0,0.0,0.5,2.0,1.0,5.0,4.0,1.25,2.5,-0.17,0.08,0.95,236.32,-1.5,-63.2,4.25,1.0,4.25,4.25,4.25,5.75,5.25,4.25,1.0,3.0,3.25,1.0,1.25,0.08,0.14,0.95,591.63,-6.3,15.2
1.82,0.0,0.0,1.0,1.75,0.0,0.0,1.0,2.25,1.0,3.75,4.75,1.5,3.75,-0.23,0.08,0.95,236.21,0.5,-57.2,4.5,1.0,5.25,4.5,4.5,6.0,5.5,4.25,1.25,3.0,3.25,1.0,0.5,0.08,0.14,0.95,660.07,-7.5,19.4
1.84,0.0,0.0,1.5,1.25,0.0,0.0,0.75,1.75,0.75,4.75,4.5,1.5,2.5,-0.61,0.08,0.89,240.76,1.2,-55.6,4.5,1.25,5.75,4.5,4.75,6.0,5.75,4.25,1.25,3.0,3.0,1.0,1.25,0.08,0.14,0.95,700.19,-7.5,18.9
1.86,0.0,0.0,0.5,1.25,0.0,0.0,0.5,2.0,0.75,4.0,4.5,1.75,2.5,-0.48,0.14,0.89,238.39,-0.5,-62.7,4.25,1.75,5.75,4.5,4.75,6.0,6.0,4.25,1.25,3.25,3.25,1.25,1.0,0.08,0.14,0.95,725.01,-7.5,18.4
1.88,0.0,0.0,2.0,1.0,0.0,0.0,0.75,1.75,0.5,3.75,4.0,1.75,2.5,-0.3,0.14,0.95,236.46,2.7,-53.2,4.5,1.5,5.75,4.5,4.75,6.0,6.0,4.25,1.5,3.75,3.75,1.5,1.0,0.08,0.08,0.95,749.76,-7.5,15.3
1.9,0.0,0.0,1.0,1.0,0.0,0.0,0.5,2.0,0.5,3.5,3.0,1.0,2.5,-0.17,0.14,0.89,225.33,-0.8,-56.9,4.5,1.75,5.75,4.5,4.75,6.25,6.25,4.25,1.5,4.5,4.0,1.5,1.25,0.08,0.08,0.95,784.93,-6.9,13.3
1.92,0.0,0.0,1.0,1.0,0.0,0.0,0.5,2.0,0.5,3.25,3.0,0.75,2.5,-0.17,0.2,0.89,207.74,-0.7,-55.7,4.0,1.75,5.75,4.5,5.25,6.25,6.25,4.25,1.25,4.0,4.0,1.5,1.25,0.08,0.08,0.95,801.56,-6.7,14.2
1.94,0.0,0.0,1.25,0.25,0.0,0.0,0.5,2.0,0.0,2.0,3.0,0.0,2.5,-0.11,0.14,0.89,184.08,-0.6,-55.9,3.75,1.5,5.75,4.25,4.75,6.25,6.0,4.25,1.5,4.25,4.0,1.5,1.25,0.08,0.14,0.95,788.64,-6.5,11.8
1.96,0.0,0.0,0.5,0.25,0.0,0.0,0.5,2.0,0.0,2.0,3.0,0.0,1.75,0.02,0.14,1.02,163.24,-2.7,-60.9,3.75,1.5,5.75,4.25,5.25,6.25,6.0,4.5,1.5,4.5,4.0,1.75,1.0,0.08,0.08,0.95,771.85,-6.2,11.6
1.98,0.0,0.0,1.0,0.25,0.0,0.0,0.5,2.0,0.0,2.0,2.5,0.0,1.25,0.02,0.14,0.95,145.46,-0.5,-50.6,4.5,1.25,5.75,4.0,5.25,6.25,5.75,4.5,1.5,4.5,4.0,1.5,1.25,0.08,0.08,0.95,751.32,-6.4,12.1
2.0,0.0,0.0,0.75,0.25,0.0,0.0,0.5,2.0,0.0,1.75,2.75,0.0,1.25,-0.05,0.14,0.95,127.8,-0.9,-53.8,3.75,1.75,5.25,4.25,5.0,6.25,5.5,4.75,1.5,4.5,4.0,1.75,1.25,0.08,0.08,0.95,729.54,-5.6,10.3
2.02,0.0,0.0,0.0,1.0,0.0,0.0,0.0,1.0,0.5,3.5,1.25,0.5,1.0,-0.05,0.08,0.95,116.99,-5.0,-59.3,3.0,1.75,4.75,4.0,4.75,6.25,5.25,4.5,1.5,4.5,4.0,1.5,1.25,0.08,0.08,0.95,702.16,-4.8,8.6
2.04,0.0,0.0,1.0,0.75,0.0,0.0,0.0,0.5,0.5,3.5,1.5,0.0,1.25,0.08,0.08,0.95,111.51,-0.7,-49.2,2.5,1.5,3.75,3.5,4.75,6.0,4.5,5.0,1.5,4.75,4.25,1.5,1.25,0.08,0.08,0.95,667.59,-3.1,3.5
2.06,0.0,0.0,0.75,0.75,0.0,0.0,0.25,2.0,0.25,3.0,2.5,0.25,1.25,0.08,0.14,1.02,120.23,-1.8,-52.3,2.0,1.25,3.75,1.75,4.75,5.75,3.5,5.25,1.25,3.5,4.75,1.0,1.25,0.08,0.08,0.95,603.97,-2.2,1.6
2.08,0.0,0.0,0.75,0.25,0.0,0.0,0.25,2.0,0.0,2.25,2.5,0.0,1.5,-0.05,0.08,0.95,125.47,-2.7,-57.0,1.25,0.75,0.75,1.5,2.25,5.5,2.5,4.25,1.0,4.5,4.0,1.0,0.25,0.08,0.08,0.95,489.95,2.2,-10.4
2.1,0.0,0.0,0.75,0.75,0.0,0.0,0.25,1.75,0.5,3.25,2.75,0.0,1.25,-0.17,0.14,0.95,138.97,-1.4,-52.0,0.5,0.5,0.75,0.5,0.5,5.0,1.0,4.25,1.0,4.75,4.0,1.0,0.5,0.08,0.08,0.95,375.68,5.2,-27.3
2.12,0.0,0.0,0.0,0.25,0.0,0.0,0.25,2.0,0.0,2.0,1.5,0.0,1.25,-0.11,0.14,0.95,130.19,-8.2,-64.7,0.5,0.25,0.75,1.25,0.25,4.5,1.5,5.0,1.0,5.25,4.0,1.0,1.0,0.08,0.08,0.95,306.75,4.8,-30.5
2.14,0.0,0.0,0.0,0.75,0.0,0.0,0.0,1.75,0.25,3.5,3.0,0.25,1.75,-0.17,0.08,0.95,145.29,-5.2,-65.9,0.25,0.0,0.5,0.5,0.5,4.25,1.25,4.75,0.75,5.5,4.0,1.25,1.25,0.08,0.08,0.95,272.12,6.6,-38.9
2.16,0.0,0.0,1.0,0.25,0.0,0.0,0.0,0.25,0.0,3.75,1.75,0.0,1.25,-0.17,0.08,0.95,138.91,-2.2,-58.5,2.0,0.0,0.5,1.75,1.5,2.75,1.25,4.75,0.75,6.0,4.0,2.75,1.75,0.08,0.08,0.95,276.34,1.8,-32.3
2.18,0.0,0.0,0.75,0.5,0.0,0.0,0.25,2.0,0.25,2.75,3.0,0.5,2.5,-0.17,0.08,0.95,160.88,-2.4,-62.2,1.0,0.0,0.5,0.0,0.0,0.0,0.25,5.25,0.75,6.25,4.5,2.0,3.0,0.08,0.08,0.95,275.91,4.2,-63.0
2.2,0.0,0.0,1.0,0.5,0.0,0.0,0.25,1.75,0.25,3.0,3.0,0.75,1.75,-0.17,0.08,0.95,171.39,-0.6,-58.3,0.25,0.5,0.5,0.25,0.0,0.0,1.0,5.0,0.75,7.0,5.0,3.0,2.25,0.08,0.08,0.95,285.21,3.3,-62.9
2.22,0.0,0.0,0.75,0.5,0.0,0.0,0.0,1.75,0.25,2.75,2.75,0.25,1.75,-0.3,0.14,0.95,178.49,-2.2,-58.9,2.25,1.0,1.25,2.0,0.0,2.75,0.5,5.5,1.0,7.5,6.0,3.0,4.0,0.08,0.08,0.95,329.71,1.2,-39.5
2.24,0.0,0.0,1.0,0.75,0.0,0.0,0.25,2.0,0.5,3.0,2.75,0.25,2.25,-0.36,0.08,0.89,184.38,-1.4,-54.8,2.25,0.25,0.0,0.75,2.5,2.5,1.25,5.5,0.75,7.0,6.0,2.25,4.0,0.08,0.08,0.95,374.49,3.5,-40.0
2.26,0.0,0.0,1.75,0.5,0.0,0.0,0.25,1.75,0.25,2.75,3.0,0.75,2.5,-0.17,0.14,1.02,192.51,1.1,-54.0,1.25,0.75,0.5,1.25,0.5,2.75,1.25,5.5,0.75,7.0,5.75,2.75,3.25,0.08,0.08,0.95,410.45,3.2,-43.9
2.28,0.0,0.0,0.75,0.5,0.0,0.0,0.0,1.5,0.25,3.0,2.5,0.75,2.5,-0.17,0.14,0.95,193.44,-2.8,-64.8,2.0,0.75,0.75,1.5,0.5,4.75,1.5,5.5,1.0,7.0,5.75,3.0,3.25,0.08,0.08,0.95,449.85,2.7,-35.8
2.3,0.0,0.0,1.0,0.5,0.0,0.0,0.0,2.0,0.25,3.0,2.5,0.5,2.5,-0.42,0.14,0.77,193.61,-2.7,-60.2,1.75,1.0,1.75,1.75,2.75,4.75,2.5,5.5,1.25,7.5,6.5,3.0,3.75,0.08,0.14,0.95,512.77,1.3,-28.6
2.32,0.0,0.0,1.0,0.5,0.0,0.0,0.0,2.0,0.25,3.25,2.25,0.5,2.25,-0.17,0.02,0.58,193.16,-3.0,-59.2,1.25,0.25,1.25,2.0,2.75,2.5,1.5,5.25,1.25,7.5,6.0,3.0,4.0,0.08,0.08,0.95,543.64,1.8,-37.5
2.34,0.0,0.0,1.0,0.5,0.0,0.0,0.0,2.0,0.0,3.5,2.5,0.0,1.75,0.7,0.02,1.27,186.7,-3.4,-55.8,1.5,0.75,1.75,1.75,2.5,2.5,1.5,5.25,1.25,7.75,6.75,3.5,4.0,0.08,0.08,0.95,573.6,0.7,-36.8
2.36,0.0,0.0,0.0,0.5,0.0,0.0,0.5,2.0,0.0,2.75,2.25,0.0,2.25,-0.36,0.14,0.89,176.99,-6.8,-66.6,1.75,1.0,1.75,1.5,2.25,3.25,1.25,5.25,1.25,7.75,6.75,3.25,4.0,0.08,0.08,0.95,582.41,1.1,-34.9
2.38,0.0,0.0,0.0,0.0,0.0,0.0,0.5,0.0,0.0,0.0,0.0,0.0,0.0,-0.11,0.08,0.95,116.27,32.4,27.3,0.25,0.0,1.25,0.0,1.75,2.75,1.25,4.5,1.0,7.25,5.75,2.5,3.0,0.08,0.08,0.95,535.39,4.1,-48.2
2.4,0.0,0.0,0.0,0.0,0.0,0.0,0.0,0.0,0.0,0.0,0.0,0.0,0.0,-0.11,0.14,0.95,58.43,0.0,0.0,0.25,0.5,0.5,0.0,0.0,2.5,1.25,4.25,1.0,7.0,5.75,2.75,3.0,0.02,0.14,0.95,471.02,4.5,-57.0
2.42,0.0,0.0,0.0,1.0,0.0,0.0,4.75,5.0,0.0,1.75,2.5,0.0,0.0,-0.17,0.14,0.95,66.67,0.5,-30.8,0.0,0.75,0.5,0.0,0.0,3.25,1.0,5.0,0.75,7.0,6.5,2.75,3.0,0.02,0.08,0.95,428.62,5.3,-55.2
2.44,0.0,0.0,1.0,0.5,0.0,0.0,1.5,2.0,0.0,2.0,2.0,0.0,0.0,-0.17,0.08,0.95,78.6,3.3,-31.9,1.5,0.75,0.75,1.75,1.25,3.5,1.25,5.25,1.0,7.75,6.75,3.5,4.25,0.02,0.08,0.95,442.01,2.5,-41.8
2.46,0.0,0.0,1.25,0.5,0.0,0.0,1.25,0.5,0.0,2.5,2.5,0.0,0.5,-0.11,0.14,0.95,101.49,5.8,-38.6,2.0,1.0,0.75,1.25,1.5,4.0,1.25,5.5,1.0,7.5,6.0,3.25,4.25,0.08,0.08,0.89,462.91,2.8,-37.5
2.48,0.0,0.0,1.0,0.5,0.0,0.0,1.5,0.5,0.0,3.75,3.0,0.0,0.5,-0.11,0.14,0.95,118.36,2.8,-46.8,1.5,1.0,1.0,1.75,0.0,3.25,0.5,4.25,1.0,7.25,5.0,3.25,3.0,0.08,0.08,0.95,465.56,1.9,-40.0
2.5,0.0,0.0,1.0,0.5,0.0,0.0,1.25,0.5,0.25,2.75,3.0,0.25,1.25,-0.11,0.14,0.95,133.51,3.4,-51.0,1.25,1.0,1.0,1.75,1.75,2.75,1.25,4.75,1.0,7.25,6.0,3.0,4.0,0.02,0.08,0.95,470.86,1.9,-38.4
2.52,0.0,0.0,1.5,0.5,0.0,0.0,1.0,0.0,0.25,3.5,3.0,0.75,0.0,-0.11,0.14,0.95,138.48,7.0,-43.9,1.5,1.0,1.0,1.75,1.75,3.75,1.5,4.5,1.25,7.0,6.0,3.0,3.25,0.02,0.08,0.95,462.62,1.6,-33.6
2.54,0.0,0.0,0.75,0.5,0.0,0.0,0.75,1.0,1.0,4.5,3.25,2.0,1.0,-0.11,0.08,0.95,169.47,0.8,-62.8,0.0,0.25,1.5,1.75,0.5,3.75,1.25,4.25,1.25,6.75,4.5,3.0,2.25,0.02,0.08,0.95,432.79,2.9,-40.9
2.56,0.0,0.5,2.25,2.25,0.0,0.0,1.5,2.0,0.75,4.75,4.0,2.0,2.5,-0.11,0.14,0.95,225.12,3.8,-41.6,1.5,1.25,1.75,1.75,1.75,2.5,2.0,4.25,0.75,5.5,5.5,1.75,3.0,0.08,0.08,0.95,416.8,-0.5,-26.1
2.58,0.0,0.0,1.5,0.5,0.0,0.0,1.25,1.0,0.75,3.75,3.0,1.25,2.5,-0.11,0.14,0.95,245.3,1.8,-57.0,1.75,1.0,2.0,2.0,2.25,4.5,2.0,4.25,1.0,6.25,5.0,2.25,3.0,0.08,0.08,0.95,425.72,0.4,-22.2
2.6,0.0,0.0,0.0,1.0,0.0,0.0,2.0,1.75,0.75,4.75,3.25,2.5,2.5,-0.11,0.14,0.95,268.35,-1.4,-66.5,0.75,0.25,1.5,0.5,2.25,3.0,2.25,4.25,0.75,5.75,5.0,1.0,2.25,0.08,0.14,0.95,400.6,2.3,-30.7
2.62,0.0,0.25,0.5,1.25,0.0,0.0,1.0,2.0,1.0,5.0,4.25,0.0,2.5,-0.17,0.08,0.95,273.69,-1.7,-54.5,0.5,0.25,0.5,0.0,2.5,2.75,2.5,4.25,0.75,3.25,4.0,0.75,0.75,0.08,0.14,0.95,354.22,3.0,-24.0
2.64,0.0,0.5,0.75,2.0,0.0,0.0,1.5,2.25,1.25,3.5,4.0,1.0,1.0,-0.11,0.08,0.95,267.65,3.1,-39.7,0.25,0.25,0.5,0.5,0.0,4.5,1.5,3.5,0.75,3.25,2.5,1.5,0.25,0.08,0.14,0.95,290.84,5.4,-28.0
2.66,0.0,0.0,0.75,1.75,0.0,0.0,1.25,2.0,1.0,3.75,4.5,2.0,1.25,-0.11,0.14,0.95,259.82,2.6,-52.2,0.25,0.25,1.0,0.5,0.0,4.5,1.25,3.25,0.75,3.25,2.0,1.0,0.25,0.08,0.14,0.95,242.27,5.1,-22.0
2.68,0.0,0.25,1.25,2.5,0.0,0.0,1.75,2.0,1.0,3.5,3.5,1.25,1.75,-0.11,0.14,0.95,262.67,3.9,-38.5,1.5,1.0,1.75,2.25,2.75,4.75,1.75,4.25,1.0,1.5,2.75,0.5,1.0,0.08,0.14,0.95,245.07,-0.8,5.6
2.7,0.0,1.0,3.5,2.5,0.0,0.0,2.25,2.0,0.75,3.5,3.0,1.0,1.25,-0.11,0.14,0.95,266.72,8.8,-17.0,0.25,0.25,0.5,0.0,0.25,3.0,1.25,2.75,0.75,1.5,2.0,0.5,0.25,0.08,0.14,0.95,212.18,4.3,-21.7
2.72,0.0,1.0,0.0,2.5,0.0,0.0,2.5,2.0,0.75,3.0,3.0,0.75,1.25,-0.11,0.14,0.95,251.93,2.9,-31.4,0.0,0.25,0.5,0.0,0.0,3.75,1.25,2.75,0.75,1.0,2.0,0.25,0.25,0.08,0.14,0.95,187.75,6.0,-18.4
2.74,0.0,1.0,1.0,2.5,0.0,0.0,2.5,1.75,0.75,3.0,3.0,0.75,1.25,-0.11,0.14,0.95,241.51,5.4,-25.5,0.0,0.0,0.5,0.0,0.0,2.5,1.25,2.75,0.75,1.5,1.75,0.25,0.0,0.08,0.08,0.95,138.98,5.2,-26.4
2.76,0.0,1.0,2.0,2.5,0.0,0.0,2.5,2.0,0.75,3.0,3.0,0.75,1.25,-0.11,0.14,0.95,232.89,7.0,-20.6,0.25,0.25,0.5,0.0,0.0,2.25,1.25,2.75,0.75,1.5,1.75,0.25,0.0,0.08,0.14,0.95,115.59,3.5,-22.0
2.78,0.0,0.75,2.0,0.5,0.0,0.0,2.0,1.75,0.75,2.75,2.75,0.75,1.25,-0.11,0.14,0.95,215.71,5.8,-32.9,0.0,0.0,0.5,0.0,0.0,2.75,1.25,2.75,0.75,1.25,1.75,0.75,0.0,0.08,0.08,0.95,101.72,4.7,-27.8
2.8,0.0,0.5,1.5,2.0,0.0,0.0,1.25,1.75,0.75,3.0,2.5,0.5,0.75,-0.11,0.14,0.95,201.38,5.2,-25.9,1.25,1.0,1.0,1.5,1.5,4.0,1.25,3.0,1.0,2.75,2.0,1.0,0.5,0.08,0.14,0.95,155.81,0.5,-3.1
2.82,0.0,0.0,1.5,0.5,0.0,0.0,1.25,1.0,0.0,1.75,1.75,0.0,0.25,-0.17,0.14,0.95,165.77,7.8,-25.2,1.25,1.0,0.75,1.25,1.25,4.0,1.25,3.0,1.0,2.75,2.0,1.0,0.5,0.08,0.08,0.95,202.26,1.2,-5.5
2.84,0.0,0.5,0.5,1.25,0.0,0.0,1.0,1.75,0.5,2.0,2.5,0.0,1.25,-0.11,0.14,0.95,146.08,1.6,-36.2,1.25,1.0,0.75,1.75,1.0,3.75,1.25,2.75,1.0,2.75,2.0,1.0,0.5,0.08,0.14,0.95,244.77,0.2,-4.7
2.86,0.0,0.0,0.5,0.25,0.0,0.0,0.5,0.25,0.5,1.75,1.5,0.0,0.0,-0.11,0.14,0.95,104.31,4.4,-43.8,1.25,1.0,0.75,1.75,1.25,3.5,1.25,2.75,0.75,2.5,2.0,1.0,0.0,0.02,0.08,0.95,262.18,-0.3,-0.1
2.88,0.0,0.0,2.0,0.5,0.0,0.0,1.25,0.5,0.25,2.0,1.5,0.0,0.5,-0.11,0.14,0.95,93.08,10.0,-22.0,1.25,0.25,0.75,1.5,0.5,3.25,1.25,2.75,0.75,2.0,2.0,1.0,0.5,0.02,0.08,0.95,259.8,-0.1,-9.9
2.9,0.0,0.0,1.0,0.75,0.0,0.0,0.75,2.0,0.5,1.75,2.25,0.0,0.25,-0.11,0.14,0.95,87.04,3.3,-34.2,1.5,0.75,0.75,0.0,1.0,2.75,1.25,1.75,0.75,0.25,2.0,0.0,0.5,0.02,0.14,0.95,233.45,-2.7,8.7
2.92,0.0,0.0,2.0,1.0,0.0,0.0,0.5,2.5,0.5,2.0,1.75,0.0,0.25,-0.11,0.14,0.95,102.54,5.0,-22.3,0.5,0.75,0.5,1.75,0.0,2.75,0.75,2.0,0.75,1.5,0.75,0.75,0.0,0.02,0.14,0.95,208.48,0.3,0.1
2.94,0.0,0.0,1.5,0.5,0.0,0.0,0.5,1.75,0.25,1.75,1.5,0.0,0.25,-0.11,0.14,0.95,101.77,4.4,-27.8,1.25,1.0,1.0,1.5,0.5,2.75,1.5,2.75,0.25,0.75,2.0,0.25,0.25,0.02,0.08,0.95,210.56,-3.1,9.0
2.96,0.0,0.0,1.25,0.5,0.0,0.0,0.5,1.25,0.5,1.5,1.5,0.0,0.0,-0.11,0.14,0.95,99.75,6.4,-25.9,1.5,0.75,0.75,1.75,0.0,2.5,1.25,2.75,0.75,1.5,2.0,1.0,0.25,0.02,0.08,0.95,212.3,-3.1,-4.2
2.98,0.0,0.5,1.0,1.25,0.0,0.0,0.75,1.5,0.5,1.5,1.5,0.0,0.0,-0.17,0.14,0.95,98.41,6.5,-12.3,1.0,0.75,0.75,1.25,0.25,2.5,1.25,2.75,0.75,1.5,2.0,1.0,0.25,0.02,0.14,0.95,214.83,-1.6,-8.4
3.0,0.0,0.25,1.0,1.0,0.0,0.0,0.75,2.0,0.5,0.25,1.25,0.0,0.0,-0.11,0.14,0.95,93.26,8.1,-7.2,1.25,1.0,0.75,1.25,0.5,3.0,1.25,2.75,1.0,1.5,2.0,0.75,0.5,0.02,0.14,0.95,220.76,-1.2,-3.5
3.02,0.0,0.0,0.5,0.5,0.0,0.0,0.5,1.75,0.5,0.5,0.5,0.0,0.0,-0.11,0.14,0.95,83.87,2.3,-20.6,1.25,0.25,1.0,0.0,0.5,1.75,1.25,2.75,0.5,1.5,2.0,1.0,0.5,0.02,0.14,0.95,207.29,-1.6,-18.1
3.04,0.0,0.0,0.75,0.5,0.0,0.0,0.25,1.5,0.5,0.75,1.25,0.0,0.0,-0.11,0.14,0.95,77.94,4.5,-26.9,0.0,0.0,0.5,0.0,0.0,1.5,0.5,1.25,0.5,0.0,0.5,0.25,0.0,0.02,0.14,0.95,153.26,2.6,-9.7
3.06,0.25,0.0,0.75,0.5,0.0,0.0,0.5,1.0,0.5,1.0,1.25,0.0,0.0,-0.11,0.14,0.95,75.95,7.5,-21.5,0.0,0.25,0.0,0.0,0.0,2.25,0.25,1.25,0.5,0.0,0.75,0.25,0.0,0.02,0.14,0.95,108.93,8.8,-9.2
3.08,0.0,0.0,1.0,0.5,0.0,0.0,0.5,1.0,0.25,1.0,1.5,0.0,0.0,-0.11,0.14,0.95,72.17,7.7,-24.3,0.0,0.0,0.0,0.0,0.0,1.25,0.25,1.25,0.5,0.0,0.75,0.25,0.0,0.02,0.14,0.95,65.42,6.9,-26.4
3.1,0.0,0.0,1.5,0.5,0.0,0.0,0.5,1.0,0.25,1.25,1.75,0.0,0.0,-0.11,0.14,0.95,79.88,9.3,-21.4,0.0,0.5,0.0,0.0,0.0,2.5,0.5,1.25,0.5,0.0,0.75,0.25,0.0,0.02,0.14,0.95,52.92,7.6,-1.9
3.12,0.0,0.0,2.0,0.5,0.0,0.0,0.25,1.0,0.25,1.0,0.5,0.0,0.25,-0.17,0.14,0.95,80.13,11.2,-5.1,0.0,0.25,0.5,0.0,0.0,1.5,0.25,1.25,0.25,0.5,0.5,0.0,0.0,0.02,0.14,0.95,46.56,5.4,-4.9
3.14,0.0,0.0,1.75,0.5,0.0,0.0,0.25,0.5,0.25,1.0,1.25,0.0,0.0,-0.17,0.08,0.95,79.59,13.6,-9.6,0.0,0.0,0.0,0.0,0.0,1.25,0.25,1.25,0.25,0.0,0.75,0.0,0.0,0.02,0.14,0.95,42.93,9.4,-19.6
3.16,0.0,0.0,1.75,0.5,0.0,0.0,0.25,0.75,0.25,1.0,1.25,0.0,0.0,-0.17,0.14,0.95,79.68,12.3,-10.9,0.0,0.25,0.5,0.0,0.0,2.5,0.5,1.25,0.75,1.5,0.5,0.75,0.0,0.02,0.14,0.95,55.81,5.8,-20.3
3.18,0.0,0.0,0.5,0.5,0.0,0.0,0.25,1.0,0.0,0.75,1.25,0.0,0.0,-0.17,0.14,0.95,74.08,4.1,-29.5,1.25,1.0,0.5,1.75,0.0,2.75,0.5,1.25,0.75,1.5,0.25,0.75,0.0,0.02,0.14,0.95,91.41,-2.2,13.3
3.2,0.0,0.0,0.75,0.25,0.0,0.0,0.0,0.25,0.0,0.25,0.0,0.0,0.0,-0.11,0.14,0.95,54.61,16.9,21.9,1.25,1.0,1.0,1.75,0.25,2.5,1.25,1.5,0.5,0.0,2.0,0.75,0.5,0.02,0.14,0.95,137.0,-6.7,10.0
3.22,0.0,0.0,0.0,0.5,0.0,0.0,0.25,0.75,0.0,0.5,1.25,0.0,0.0,-0.17,0.14,0.95,44.17,1.7,-40.1,1.5,1.5,0.5,2.0,0.25,2.5,1.25,1.5,0.75,1.5,1.75,0.75,0.25,0.02,0.14,0.95,181.13,-4.6,7.6
3.24,0.0,0.0,0.25,0.25,0.0,0.0,0.0,0.0,0.0,0.25,0.0,0.0,0.0,-0.17,0.14,0.95,27.08,13.5,15.5,2.0,1.0,1.0,1.75,0.0,2.75,1.25,1.5,0.75,1.5,2.0,0.75,0.5,0.02,0.14,0.95,213.98,-5.6,4.6
3.26,0.0,0.0,0.0,0.25,0.0,0.0,0.0,0.25,0.0,0.25,0.0,0.0,0.0,-0.11,0.14,0.95,15.57,-4.7,-17.6,1.25,1.25,0.75,0.0,0.25,1.5,1.25,1.5,0.25,0.0,1.75,0.5,0.25,0.02,0.14,0.95,210.74,-7.1,9.3
3.28,0.0,0.0,0.0,0.25,0.0,0.0,0.0,0.0,0.0,0.25,0.0,0.0,0.0,-0.17,0.14,0.95,2.47,1.1,-7.2,1.25,1.0,0.75,1.75,0.25,2.5,1.25,1.25,1.0,1.25,1.75,0.75,0.25,0.02,0.14,0.95,218.13,-5.0,4.4
3.3,0.0,0.0,0.0,0.25,0.0,0.0,0.0,0.0,0.0,0.25,0.0,0.0,0.0,-0.17,0.14,0.95,0.0,1.1,-7.2,1.25,1.0,0.75,1.25,0.25,2.25,1.25,1.25,0.75,1.5,2.0,0.75,0.25,0.02,0.14,0.89,213.54,-4.6,-0.2
3.32,0.0,0.0,0.0,0.25,0.0,0.0,0.0,0.25,0.0,0.25,0.0,0.0,0.0,-0.17,0.14,0.95,0.0,-4.7,-17.6,1.25,1.0,0.75,1.0,0.0,1.25,1.0,1.5,0.0,0.0,1.75,0.75,0.5,0.02,0.14,0.89,201.44,-8.1,5.2
3.34,0.0,0.0,0.0,0.5,0.0,0.0,0.0,0.0,0.0,0.25,0.0,0.0,0.0,-0.17,0.14,0.95,0.0,6.5,14.7,1.25,1.0,0.75,1.5,0.25,2.0,1.25,1.25,0.75,1.25,1.75,0.75,0.5,0.02,0.14,0.95,199.17,-5.3,0.9
3.36,0.0,0.25,0.0,0.5,0.0,0.0,0.25,0.5,0.0,0.25,1.0,0.0,0.0,-0.17,0.14,0.95,8.19,5.4,-19.9,1.25,1.0,0.75,1.75,0.5,2.5,1.25,1.5,0.75,1.25,1.75,0.75,0.25,0.02,0.14,0.95,204.78,-4.4,5.3
3.38,0.0,0.0,0.25,0.5,0.0,0.0,0.0,0.25,0.0,0.25,0.25,0.0,0.0,-0.17,0.14,0.95,14.25,8.7,-0.5,1.25,1.0,0.75,1.75,0.25,2.5,1.25,1.25,0.75,1.25,1.75,0.75,0.25,0.02,0.14,0.95,207.24,-4.9,5.1
3.4,0.0,0.0,0.0,0.5,0.0,0.0,0.25,0.5,0.0,0.25,1.0,0.0,0.0,-0.17,0.08,0.95,24.65,4.6,-32.9,1.25,1.0,0.75,2.25,0.25,2.5,1.25,1.25,0.75,1.5,1.75,1.0,0.25,0.02,0.14,0.95,208.89,-5.0,3.7
3.42,0.0,0.0,0.0,0.5,0.0,0.0,0.0,0.5,0.0,0.25,0.75,0.0,0.0,-0.17,0.14,0.95,29.57,2.2,-31.3,1.25,0.75,0.75,2.0,0.5,2.0,1.25,1.25,0.5,1.0,1.75,0.75,0.25,0.02,0.14,0.95,205.23,-6.0,6.7
3.44,0.0,0.0,0.0,0.5,0.0,0.0,0.25,0.5,0.0,0.25,0.25,0.0,0.0,-0.17,0.08,0.95,31.8,1.9,-14.0,1.25,1.0,0.75,1.5,0.25,2.5,1.25,1.25,0.75,1.5,1.5,0.75,0.25,0.02,0.14,0.95,202.6,-4.2,4.1
3.46,0.0,0.0,0.25,1.0,0.0,0.0,0.25,0.5,0.0,0.25,1.0,0.0,0.0,-0.17,0.08,0.95,37.77,9.5,-10.0,1.25,1.0,0.75,1.75,0.25,2.5,1.25,1.25,0.75,1.5,1.75,0.75,0.25,0.02,0.14,0.95,201.39,-4.5,3.7
3.48,0.0,0.0,0.0,1.0,0.0,0.0,0.25,0.5,0.0,0.25,1.0,0.0,0.0,-0.11,0.08,0.95,44.54,6.9,-16.4,1.75,1.0,0.5,1.75,0.5,2.25,1.25,1.25,0.75,1.0,1.5,0.75,0.25,0.02,0.14,0.95,203.47,-5.9,10.6
3.5,0.0,0.0,0.0,0.25,0.0,0.0,0.25,0.5,0.0,0.0,1.0,0.0,0.0,-0.17,0.08,0.95,43.66,5.6,-40.0,1.25,0.75,0.75,1.75,0.5,2.5,1.25,1.25,0.75,1.5,1.75,0.75,0.25,0.02,0.14,0.95,207.18,-4.2,3.0
3.52,0.0,0.0,0.25,0.5,0.0,0.0,0.25,0.5,0.0,0.75,0.75,0.0,0.0,-0.17,0.08,0.95,45.04,3.6,-28.3,1.25,1.0,0.75,1.75,0.0,2.0,1.25,1.25,0.5,1.5,1.75,0.75,0.25,0.02,0.14,0.95,201.36,-5.5,2.3
3.54,0.0,0.0,1.0,0.5,0.0,0.0,0.25,0.5,0.0,0.75,0.75,0.0,0.0,-0.17,0.08,0.95,50.06,10.9,-9.4,1.25,1.0,0.75,1.5,0.5,2.25,1.25,1.25,0.75,0.5,1.75,1.0,0.25,0.02,0.14,0.95,199.58,-6.2,7.0
3.56,0.0,0.0,1.0,0.5,0.0,0.0,0.25,0.25,0.0,0.0,0.75,0.0,0.0,-0.17,0.14,0.95,50.03,21.1,12.0,1.25,1.0,0.75,1.5,0.25,2.75,1.25,1.25,0.75,1.25,1.75,0.75,0.25,0.02,0.14,0.95,199.29,-4.2,4.6
3.58,0.0,0.0,0.0,0.5,0.0,0.0,0.0,0.25,0.0,0.25,0.0,0.0,0.0,-0.17,0.08,0.95,40.32,0.8,1.7,1.25,1.0,0.75,1.5,0.5,1.25,1.25,1.25,0.75,1.5,1.75,1.0,0.25,0.02,0.14,0.95,194.61,-6.6,-1.0
3.6,0.0,0.0,1.0,0.5,0.0,0.0,0.25,0.25,0.0,0.25,1.25,0.0,0.0,-0.17,0.08,0.95,42.31,16.9,-6.9,1.25,1.0,0.75,1.75,0.5,2.5,1.0,1.25,0.75,1.5,1.5,1.0,0.25,0.02,0.14,0.95,197.96,-4.1,3.9
3.62,0.0,0.0,0.25,0.5,0.0,0.0,0.25,0.25,0.0,0.25,0.75,0.0,0.0,-0.17,0.14,0.95,38.42,10.5,-16.0,1.25,1.0,0.5,1.75,0.5,2.25,1.25,1.25,0.75,1.0,1.75,1.0,0.25,0.02,0.14,0.95,198.89,-5.0,4.0
3.64,0.0,0.0,1.0,0.5,0.0,0.0,0.25,0.25,0.0,0.25,0.75,0.0,0.0,-0.17,0.08,0.95,41.65,17.9,4.4,1.25,1.0,0.75,1.75,0.25,2.25,1.25,1.25,0.75,1.0,1.5,0.5,0.25,0.02,0.14,0.95,197.12,-5.6,9.8
3.66,0.0,0.0,0.5,0.5,0.0,0.0,0.25,0.5,0.0,0.25,0.25,0.0,0.0,-0.17,0.14,0.95,39.43,10.6,3.9,2.0,1.25,0.75,1.75,0.25,2.25,1.25,1.25,0.75,1.5,1.75,0.75,0.25,0.02,0.14,0.95,202.97,-6.5,9.3
3.68,0.0,0.0,1.0,0.25,0.0,0.0,0.0,0.0,0.0,0.0,0.0,0.0,0.0,-0.17,0.08,0.95,34.71,34.0,60.3,1.25,0.75,0.75,2.0,0.25,2.25,1.0,1.25,0.75,1.5,1.75,0.75,0.25,0.02,0.14,0.95,202.69,-4.8,2.2
3.7,0.0,0.0,0.25,0.25,0.0,0.0,0.25,0.25,0.0,0.25,0.75,0.0,0.0,-0.17,0.14,0.95,28.55,9.6,-26.4,1.25,1.0,0.75,1.25,0.25,2.5,1.0,1.25,0.75,1.5,1.75,0.75,0.25,0.02,0.14,0.95,201.84,-3.8,1.4
3.72,0.0,0.0,0.75,0.5,0.0,0.0,0.25,0.25,0.0,0.25,0.0,0.0,0.0,-0.17,0.08,0.95,27.65,17.9,27.2,1.25,1.0,0.5,1.75,0.25,2.25,1.0,1.25,0.75,1.25,1.75,0.75,0.25,0.02,0.14,0.95,198.56,-4.5,3.3
3.74,0.0,0.0,1.0,0.5,0.0,0.0,0.25,0.25,0.0,0.25,1.0,0.0,0.0,-0.17,0.14,0.95,34.7,17.3,-1.6,1.25,1.0,0.75,1.75,0.5,2.25,1.0,1.25,0.75,1.0,1.75,0.75,0.25,0.02,0.14,0.95,198.11,-5.3,6.9
3.76,0.0,0.0,0.0,0.5,0.0,0.0,0.0,0.0,0.0,0.25,0.0,0.0,0.0,-0.17,0.08,0.95,27.67,6.5,14.7,1.25,1.0,0.75,1.75,0.25,2.25,1.0,1.25,0.75,1.5,1.75,1.0,0.25,0.02,0.14,0.95,199.01,-4.8,1.0
3.78,0.0,0.0,1.0,0.5,0.0,0.0,0.0,0.0,0.0,0.25,0.5,0.0,0.0,-0.17,0.08,0.95,30.85,21.7,16.4,1.25,1.0,0.75,1.75,0.5,2.25,1.0,1.25,0.75,0.0,1.75,0.75,0.25,0.02,0.14,0.95,195.47,-7.0,13.4
3.8,0.0,0.0,1.25,0.5,0.0,0.0,0.25,0.25,0.0,0.25,0.75,0.0,0.0,-0.17,0.08,0.95,36.43,19.6,9.0,1.25,1.0,0.5,1.75,0.25,2.5,1.0,1.25,0.75,1.5,1.75,1.0,0.5,0.02,0.14,0.95,198.19,-3.4,-1.4
3.82,0.0,0.0,1.25,0.5,0.0,0.0,0.25,0.25,0.0,0.25,1.75,0.0,0.0,-0.17,0.08,0.95,48.9,17.5,-10.7,1.25,1.0,0.5,1.75,0.25,2.25,1.0,1.25,0.75,0.5,1.75,1.0,0.25,0.02,0.14,0.95,194.31,-5.8,5.8
3.84,0.0,0.0,1.0,0.5,0.0,0.0,0.25,0.25,0.0,0.25,1.25,0.0,0.0,-0.17,0.08,0.95,53.07,16.9,-6.9,1.0,1.0,0.5,1.5,0.25,2.5,1.0,1.25,0.75,1.0,1.75,0.75,0.25,0.02,0.14,0.95,191.17,-3.6,2.6
3.86,0.0,0.0,1.0,0.5,0.0,0.0,0.25,0.25,0.0,0.25,1.0,0.0,0.0,-0.17,0.14,0.95,57.29,17.3,-1.6,1.25,1.0,0.5,1.5,0.5,2.5,1.0,1.25,0.75,1.5,1.75,0.75,0.25,0.02,0.14,0.95,192.25,-3.3,2.5
3.88,0.0,0.0,0.0,0.25,0.0,0.0,0.0,0.0,0.0,0.0,0.0,0.0,0.0,-0.17,0.08,0.95,40.52,17.2,57.9,1.25,1.0,0.5,1.75,0.25,2.5,1.0,1.25,0.75,0.75,1.75,0.75,0.25,0.02,0.14,0.95,191.97,-4.8,6.9
3.9,1.0,0.0,0.0,0.25,0.0,0.0,0.0,0.0,0.0,0.25,0.0,0.0,0.0,-0.17,0.08,0.95,32.12,23.0,60.6,1.25,1.0,0.75,1.75,0.25,2.5,1.25,1.25,0.75,1.5,1.5,0.75,0.25,0.02,0.14,0.95,194.8,-4.4,5.1
3.92,1.5,0.0,0.0,0.0,0.0,0.0,0.0,0.0,0.0,0.25,0.0,0.0,0.0,-0.17,0.14,0.95,25.87,27.3,71.6,1.25,1.0,0.75,1.75,1.0,2.5,1.0,1.25,0.75,1.5,1.5,0.75,0.25,0.02,0.14,0.95,202.08,-3.7,7.7
3.94,0.0,0.0,0.0,0.5,0.0,0.0,0.25,0.25,0.0,0.25,0.0,0.0,0.0,-0.17,0.14,0.95,21.88,4.1,4.4,1.25,1.0,1.5,1.75,0.0,2.5,1.0,1.25,0.75,1.5,1.5,0.75,0.25,0.02,0.14,0.95,206.74,-6.2,6.9
3.96,0.0,0.0,0.75,1.25,0.0,0.0,0.25,0.0,0.0,0.5,0.75,0.0,0.0,-0.17,0.14,0.95,31.55,16.3,9.8,1.25,1.0,0.5,1.75,1.0,2.5,0.75,1.0,0.75,1.5,1.75,0.75,0.25,0.02,0.14,0.95,208.8,-3.4,6.0
3.98,0.0,0.0,0.0,0.5,0.0,0.0,0.0,0.0,0.0,0.25,0.0,0.0,0.0,-0.17,0.14,0.95,26.62,6.5,14.7,1.25,1.0,1.5,1.75,0.5,2.5,1.0,1.0,0.75,1.5,1.5,0.75,0.25,0.02,0.14,0.95,211.19,-6.2,9.5
4.0,0.0,0.0,0.5,0.5,0.0,0.0,0.0,0.25,0.0,0.25,0.75,0.0,0.0,-0.17,0.14,0.95,30.73,12.5,-9.5,1.25,1.0,0.5,1.75,0.5,2.5,1.0,1.0,0.75,1.5,1.25,0.75,0.25,0.02,0.14,0.95,207.37,-3.6,7.1
4.02,0.0,0.0,0.0,0.5,0.0,0.0,0.5,0.25,0.0,0.25,1.0,0.0,0.0,-0.17,0.14,0.95,27.28,8.5,-29.0,1.25,1.0,0.5,1.75,0.25,2.5,1.0,1.25,0.75,1.5,1.5,0.75,0.25,0.02,0.14,0.95,204.16,-3.5,3.8
4.04,0.0,0.0,0.0,0.5,0.0,0.0,0.0,0.25,0.0,0.25,0.5,0.0,0.0,-0.17,0.08,0.95,26.17,4.0,-23.0,1.25,1.0,0.5,1.75,0.5,2.5,1.0,1.25,0.75,1.5,2.0,1.0,0.25,0.02,0.14,0.95,204.16,-3.7,0.3
4.06,0.0,0.0,0.75,0.5,0.0,0.0,0.25,0.25,0.0,0.25,0.25,0.0,0.0,-0.17,0.08,0.95,27.47,17.1,15.6,1.75,1.0,0.5,1.75,0.5,2.25,1.0,1.25,0.75,1.5,1.5,0.75,0.0,0.02,0.14,0.95,204.54,-5.2,9.6
4.08,0.0,0.0,0.75,0.5,0.0,0.0,0.25,0.25,0.0,0.25,0.5,0.0,0.0,-0.17,0.14,0.95,32.71,16.4,6.4,1.5,1.0,0.5,1.75,0.5,2.5,1.0,1.25,0.75,1.5,1.5,1.0,0.5,0.02,0.14,0.95,206.68,-3.7,2.4
4.1,0.0,0.0,0.75,0.5,0.0,0.0,0.0,0.25,0.0,0.25,0.25,0.0,0.0,-0.17,0.08,0.95,35.53,16.2,15.0,1.0,0.75,0.5,2.0,0.5,2.5,1.0,1.25,0.75,1.5,1.5,0.75,0.25,0.02,0.14,0.95,203.81,-2.9,2.5
4.12,0.0,0.0,1.0,0.5,0.0,0.0,0.25,0.25,0.0,0.25,0.5,0.0,0.0,-0.17,0.14,0.95,40.27,18.5,11.7,1.0,0.75,0.5,1.75,0.5,2.5,1.0,1.25,0.75,1.5,1.5,0.75,0.25,0.02,0.14,0.95,200.52,-2.7,1.4
4.14,0.0,0.0,1.0,0.5,0.0,0.0,0.0,0.25,0.0,0.25,1.0,0.0,0.0,-0.11,0.14,0.95,43.62,16.8,-2.8,1.25,1.0,0.5,1.25,0.5,2.5,1.0,1.25,0.75,1.5,1.5,0.75,0.25,0.02,0.14,0.95,195.31,-2.9,2.8
4.16,0.0,0.0,1.0,0.5,0.0,0.0,0.25,0.25,0.0,0.25,1.25,0.0,0.25,-0.17,0.14,0.95,50.11,14.7,-14.2,1.25,1.0,0.5,1.75,0.25,2.25,1.0,1.25,0.75,1.5,1.5,0.75,0.25,0.02,0.14,0.95,192.85,-4.0,3.3
4.18,0.0,0.0,0.75,0.5,0.0,0.0,0.0,0.25,0.0,0.25,0.75,0.0,0.0,-0.17,0.14,0.95,49.52,15.1,-2.3,1.25,1.0,0.5,1.75,0.25,2.75,1.0,1.25,0.75,1.25,1.5,0.75,0.25,0.02,0.14,0.95,193.24,-3.4,5.8
4.2,0.0,0.0,0.25,0.5,0.0,0.0,0.0,0.25,0.0,0.25,0.75,0.0,0.0,-0.17,0.08,0.95,44.43,9.2,-18.6,1.25,1.0,0.5,1.25,0.25,2.5,0.5,1.25,0.75,0.0,1.75,1.0,0.25,0.02,0.14,0.95,186.55,-5.1,7.0
4.22,0.0,0.25,0.25,0.5,0.0,0.0,0.25,0.25,0.0,0.25,1.0,0.0,0.0,-0.17,0.14,0.95,43.33,10.7,-10.2,1.25,1.0,0.5,1.75,0.5,2.5,0.75,1.25,0.75,1.25,1.5,0.75,0.25,0.02,0.14,0.95,188.16,-3.5,6.1
4.24,0.0,0.0,0.0,0.5,0.0,0.0,0.25,0.5,0.0,0.25,0.75,0.0,0.0,-0.17,0.14,0.95,37.81,3.9,-28.0,1.25,1.0,0.5,1.75,0.5,2.5,0.75,1.25,0.75,1.5,1.5,0.75,0.25,0.02,0.14,0.95,190.5,-3.1,4.7
4.26,0.0,0.0,0.0,0.5,0.0,0.0,0.0,0.25,0.0,0.25,1.0,0.0,0.0,-0.17,0.08,0.95,35.14,5.6,-35.8,1.25,1.0,0.5,1.75,0.25,2.5,0.75,1.25,0.75,1.5,1.75,1.0,0.25,0.02,0.14,0.95,194.76,-3.5,0.2
4.28,1.0,0.0,0.0,0.5,0.0,0.0,0.25,0.75,0.0,0.25,1.0,0.0,0.0,-0.17,0.08,0.95,41.63,11.1,1.1,1.25,1.0,0.75,1.75,0.5,2.5,0.75,1.25,0.75,1.0,1.75,0.75,0.25,0.02,0.14,0.95,197.1,-4.6,7.2
4.3,0.5,0.0,0.25,0.5,0.0,0.0,0.25,0.25,0.0,0.25,1.0,0.0,0.25,-0.17,0.14,0.95,44.96,12.2,-11.2,1.25,1.0,0.5,1.75,0.25,3.0,1.0,1.25,0.75,1.5,1.75,1.0,0.25,0.02,0.14,0.95,202.78,-2.9,1.5
4.32,0.0,0.0,0.25,1.0,0.0,0.0,0.0,0.5,0.0,0.25,1.0,0.0,0.0,-0.17,0.14,0.95,47.97,8.6,-11.5,1.25,1.0,0.5,1.75,0.25,2.5,0.75,1.25,0.75,1.5,1.5,0.75,0.25,0.02,0.14,0.95,201.49,-3.3,3.6
4.34,0.0,0.0,0.25,0.5,0.0,0.0,0.0,0.25,0.0,0.25,1.0,0.0,0.25,-0.17,0.14,0.95,45.7,7.0,-33.4,1.25,1.0,0.5,1.75,0.5,2.5,1.0,1.25,0.75,1.5,1.5,1.0,0.25,0.02,0.14,0.95,203.4,-3.5,2.8
4.36,0.0,0.0,0.75,0.5,0.0,0.0,0.0,0.5,0.0,0.25,0.75,0.0,0.25,-0.17,0.14,0.95,45.7,10.0,-14.5,1.25,1.0,0.5,1.75,0.5,2.5,1.0,1.25,0.75,1.0,1.5,0.75,0.25,0.02,0.14,0.95,201.11,-4.1,7.9
4.38,0.0,0.0,0.5,0.5,0.0,0.0,0.0,0.25,0.0,0.25,0.75,0.0,0.0,-0.17,0.14,0.95,41.14,12.5,-9.5,1.25,1.0,0.5,1.5,0.5,2.5,1.0,1.25,0.75,1.5,1.5,1.0,0.25,0.02,0.14,0.95,201.23,-3.2,1.8
4.4,0.0,0.0,0.5,1.0,0.0,0.0,0.25,0.25,0.0,0.25,1.0,0.0,0.0,-0.17,0.14,0.95,44.07,13.9,-2.0,1.25,1.0,0.5,1.75,0.5,2.5,1.0,1.25,0.75,1.5,1.5,1.0,0.25,0.02,0.14,0.95,201.75,-3.5,2.8
4.42,0.0,0.0,0.75,0.5,0.0,0.0,0.0,0.25,0.0,0.25,0.75,0.0,0.0,-0.17,0.08,0.95,43.76,15.1,-2.3,1.25,1.0,0.5,1.75,0.5,2.5,1.0,1.25,0.75,1.25,1.5,0.75,0.25,0.02,0.14,0.95,201.73,-3.7,6.3
4.44,0.0,0.0,0.5,0.5,0.0,0.0,0.0,0.25,0.0,0.25,1.0,0.0,0.0,-0.17,0.14,0.95,43.27,12.3,-15.9,1.0,1.0,0.5,1.75,0.25,2.5,1.0,1.25,0.75,1.5,1.5,0.75,0.25,0.02,0.14,0.95,199.69,-3.0,2.2
4.46,0.0,0.0,0.25,0.5,0.0,0.0,0.0,0.25,0.0,0.25,1.0,0.0,0.0,-0.17,0.08,0.95,39.0,9.4,-24.7,1.25,1.0,0.75,1.75,0.5,2.5,1.0,1.25,0.75,1.0,1.5,0.75,0.25,0.02,0.14,0.95,197.79,-4.8,8.9
4.48,0.0,0.0,0.25,0.5,0.0,0.0,0.0,0.25,0.0,0.25,1.0,0.0,0.0,-0.17,0.14,0.95,36.66,9.4,-24.7,1.25,1.0,0.5,1.75,0.5,2.5,1.0,1.25,0.75,1.25,1.75,1.0,0.25,0.02,0.14,0.95,198.98,-4.0,2.9
4.5,0.0,0.0,0.25,1.0,0.0,0.0,0.0,0.25,0.0,0.25,1.25,0.0,0.0,-0.17,0.08,0.95,38.07,10.8,-14.4,1.25,1.0,0.5,1.75,0.25,2.5,1.0,1.25,0.75,1.5,1.5,0.75,0.25,0.02,0.14,0.95,198.55,-3.5,3.8
4.52,1.0,0.0,0.0,1.0,0.0,0.0,0.25,0.25,0.0,0.5,0.75,0.0,0.0,-0.17,0.14,0.95,44.28,14.0,14.8,1.25,1.0,0.5,1.75,0.5,2.5,1.0,1.25,0.75,0.75,1.5,1.0,0.25,0.02,0.14,0.95,197.7,-4.6,7.2
4.54,1.75,0.0,0.0,0.5,0.0,0.0,0.0,0.25,0.0,0.25,1.0,0.0,0.0,-0.17,0.14,0.95,52.65,18.8,24.4,1.25,1.0,0.5,1.75,0.25,2.5,0.75,1.25,0.75,1.5,1.5,0.75,0.25,0.02,0.14,0.95,196.32,-3.3,3.6
4.56,1.0,0.0,0.0,0.5,0.0,0.0,0.0,0.25,0.0,0.25,0.5,0.0,0.25,-0.17,0.14,0.95,53.01,13.0,10.4,1.25,1.0,0.5,1.75,0.5,2.5,0.75,1.25,0.5,1.25,1.75,0.75,0.25,0.02,0.14,0.95,196.06,-3.5,5.5
4.58,0.75,0.0,0.0,0.75,0.0,0.0,0.0,0.25,0.0,0.25,1.25,0.0,0.0,-0.17,0.14,0.95,53.63,13.4,-1.8,1.25,1.0,0.5,1.75,0.25,2.5,1.0,1.25,0.75,0.25,1.75,1.0,0.25,0.02,0.14,0.95,192.66,-5.7,7.9
4.6,0.75,0.0,0.0,0.5,0.0,0.0,0.0,0.25,0.0,0.25,0.75,0.0,0.5,-0.17,0.14,0.95,50.45,8.8,-13.8,1.0,1.0,0.5,1.75,0.25,2.5,0.75,1.25,0.75,1.25,1.5,0.75,0.25,0.02,0.14,0.95,190.93,-3.1,3.5
4.62,0.25,0.0,0.0,0.5,0.0,0.0,0.25,0.5,0.0,0.25,1.25,0.0,0.0,-0.17,0.14,0.95,48.28,7.6,-25.7,1.25,1.0,0.5,1.75,0.25,2.5,1.0,1.25,0.75,1.5,1.5,1.0,0.25,0.02,0.14,0.95,192.37,-3.6,1.8
4.64,0.0,0.0,0.0,0.5,0.0,0.0,0.0,0.25,0.0,0.25,1.0,0.0,0.0,-0.17,0.08,0.95,41.5,5.6,-35.8,1.25,1.0,0.5,1.75,0.5,2.5,0.75,1.25,0.75,1.5,1.75,1.0,0.25,0.02,0.14,0.95,196.56,-3.4,1.3
4.66,0.0,0.0,0.0,0.5,0.0,0.0,0.0,0.25,0.0,0.25,1.0,0.0,0.0,-0.17,0.14,0.95,37.17,5.6,-35.8,1.25,1.0,0.5,1.75,0.25,2.5,1.0,1.25,0.75,0.5,1.5,1.0,0.25,0.02,0.14,0.95,195.52,-5.1,7.8
4.68,0.0,0.0,0.0,0.5,0.0,0.0,0.25,0.25,0.0,0.25,0.5,0.0,0.25,-0.17,0.14,0.95,31.78,3.4,-31.7,1.25,1.0,0.5,1.75,0.5,2.5,0.75,1.25,0.75,1.5,1.5,1.0,0.25,0.02,0.14,0.95,198.14,-3.2,2.6
4.7,0.0,0.25,0.0,0.75,0.0,0.0,0.25,0.25,0.0,0.25,0.75,0.0,0.0,-0.17,0.14,0.95,31.55,8.5,-3.7,1.25,1.0,0.5,1.75,0.25,2.5,1.0,1.25,0.75,0.75,1.25,1.0,0.25,0.02,0.14,0.95,194.34,-4.6,7.8
4.72,0.0,0.0,0.0,0.5,0.0,0.0,0.0,0.25,0.0,0.25,1.25,0.0,0.0,-0.17,0.08,0.95,31.18,6.2,-40.1,1.25,1.0,0.5,1.75,0.25,2.5,0.75,1.25,0.75,1.5,1.5,0.75,0.25,0.02,0.14,0.95,194.49,-3.3,3.6
4.74,0.0,0.0,0.0,0.5,0.0,0.0,0.0,0.25,0.0,0.25,1.0,0.0,0.0,-0.17,0.14,0.95,30.17,5.6,-35.8,1.25,1.0,0.25,1.75,0.25,2.5,0.75,1.25,0.75,1.5,1.75,0.75,0.25,0.02,0.14,0.95,193.79,-2.8,1.1
4.76,0.0,0.0,0.25,0.75,0.0,0.0,0.0,0.25,0.0,0.25,1.25,0.0,0.0,-0.17,0.14,0.95,32.87,10.2,-21.3,1.25,1.0,0.5,1.75,0.0,2.5,0.75,1.25,0.75,0.0,1.5,1.0,0.25,0.02,0.14,0.95,188.87,-6.0,10.0
4.78,0.0,0.0,0.0,0.5,0.0,0.0,0.0,0.25,0.0,0.25,1.25,0.0,0.0,-0.17,0.14,0.95,33.69,6.2,-40.1,1.25,1.0,0.5,1.75,2.25,2.5,1.0,1.25,0.75,1.0,1.5,0.75,0.25,0.02,0.14,0.95,199.05,-3.1,13.8
4.8,0.0,0.0,0.0,0.75,0.0,0.0,0.0,0.25,0.0,0.25,1.25,0.0,0.0,-0.17,0.08,0.95,36.12,7.3,-29.8,1.25,1.0,0.5,1.75,0.25,2.5,1.0,1.25,0.75,1.5,1.5,0.75,0.25,0.02,0.14,0.95,199.88,-3.5,3.8
4.82,0.0,0.25,0.0,0.5,0.0,0.0,0.0,0.25,0.0,0.25,1.0,0.0,0.0,-0.17,0.08,0.95,35.38,6.4,-20.3,1.25,1.0,0.5,1.75,0.5,2.5,0.75,1.25,0.75,1.5,1.75,0.75,0.25,0.02,0.14,0.95,204.32,-3.3,3.3
4.84,0.0,0.0,0.25,0.5,0.0,0.0,0.0,0.25,0.0,0.25,1.0,0.0,0.0,-0.17,0.14,0.95,35.74,9.4,-24.7,1.25,1.0,0.75,1.5,1.25,2.0,0.75,1.25,1.0,1.5,1.5,0.5,0.25,0.02,0.14,0.95,204.28,-4.1,8.0
4.86,0.0,0.0,0.25,0.5,0.0,0.0,0.0,0.25,0.0,0.25,1.0,0.0,0.0,-0.17,0.08,0.95,35.17,9.4,-24.7,1.25,1.0,1.0,1.75,1.25,2.5,0.75,1.25,0.75,0.75,1.5,0.75,0.25,0.02,0.14,0.95,207.59,-5.0,13.8
4.88,0.0,0.0,0.25,0.5,0.0,0.0,0.0,0.25,0.0,0.25,1.0,0.0,0.0,-0.17,0.14,0.95,35.37,9.4,-24.7,1.25,1.0,0.5,1.75,0.5,2.5,1.0,1.25,0.75,1.0,1.75,0.75,0.25,0.02,0.14,0.95,205.03,-4.2,6.4
4.9,0.0,0.0,0.5,0.5,0.0,0.0,0.0,0.25,0.0,0.25,1.0,0.0,0.0,-0.17,0.14,0.95,36.53,12.3,-15.9,1.25,1.0,0.5,1.75,0.5,2.5,1.0,1.25,0.75,1.5,1.75,0.75,0.25,0.02,0.14,0.95,205.98,-3.5,3.5
4.92,0.0,0.0,0.25,0.5,0.0,0.0,0.0,0.25,0.0,0.25,1.0,0.0,0.0,-0.17,0.14,0.95,36.09,9.4,-24.7,1.25,1.0,0.5,1.75,0.25,2.5,0.75,1.25,0.75,1.5,1.75,1.25,0.25,0.02,0.14,0.95,204.98,-3.6,-1.6
4.94,0.0,0.0,0.25,0.5,0.0,0.0,0.0,0.25,0.0,0.25,1.0,0.0,0.0,-0.17,0.08,0.95,35.55,9.4,-24.7,1.25,1.0,0.5,1.75,0.5,2.25,0.75,1.25,0.75,1.5,1.75,0.75,0.25,0.02,0.14,0.95,203.68,-3.7,2.8
4.96,0.0,0.0,0.25,0.5,0.0,0.0,0.0,0.25,0.0,0.25,1.0,0.0,0.0,-0.17,0.14,0.95,34.95,9.4,-24.7,1.25,1.0,0.75,1.5,0.25,2.5,0.75,1.25,0.75,0.75,1.25,1.0,0.25,0.02,0.14,0.95,197.49,-4.8,7.6
4.98,0.0,0.0,0.25,0.5,0.0,0.0,0.25,0.25,0.0,0.25,0.75,0.0,0.0,-0.17,0.14,0.95,34.09,10.5,-16.0,1.25,1.0,0.5,1.5,0.25,2.5,0.75,1.25,0.75,1.5,1.5,0.5,0.25,0.02,0.14,0.95,193.26,-2.9,4.7
5.0,0.0,0.0,0.25,0.5,0.0,0.0,0.25,0.25,0.0,0.25,0.75,0.0,0.0,-0.17,0.08,0.95,32.99,10.5,-16.0,1.25,1.0,0.5,1.75,0.25,2.5,0.75,1.25,0.75,1.25,1.5,1.0,0.25,0.02,0.14,0.95,191.41,-3.7,3.0
5.02,0.0,0.0,0.25,0.5,0.0,0.0,0.0,0.25,0.0,0.25,1.0,0.0,0.0,-0.17,0.14,0.95,33.48,9.4,-24.7,1.25,1.0,0.5,1.75,0.5,2.5,0.75,1.25,0.75,1.5,1.5,1.0,0.25,0.02,0.14,0.95,192.43,-3.2,2.6
5.04,0.0,0.0,0.25,0.5,0.0,0.0,0.25,0.25,0.0,0.25,1.25,0.0,0.0,-0.17,0.14,0.95,35.59,10.6,-27.0,1.25,1.0,0.5,1.75,0.5,2.5,0.75,1.25,0.75,1.5,1.75,0.75,0.25,0.02,0.14,0.95,197.14,-3.3,3.3
5.06,0.0,0.0,0.25,0.5,0.0,0.0,0.0,0.25,0.0,1.0,1.25,0.0,0.0,-0.17,0.14,0.95,41.68,3.7,-40.2,1.25,1.0,0.5,1.75,1.0,2.5,1.0,1.25,0.75,0.5,1.5,0.75,0.25,0.02,0.14,0.95,198.36,-4.5,12.9
5.08,0.0,0.0,0.25,0.5,0.0,0.0,0.0,0.25,0.0,0.25,0.75,0.0,0.0,-0.17,0.14,0.95,40.15,9.2,-18.6,1.25,1.0,0.0,1.75,1.75,2.5,1.0,1.25,0.75,1.5,1.5,0.75,0.25,0.02,0.14,0.95,203.8,-1.5,7.7
5.1,0.0,0.0,0.25,0.5,0.0,0.0,0.0,0.25,0.0,0.25,1.0,0.0,0.0,-0.17,0.14,0.95,39.09,9.4,-24.7,1.25,1.0,0.5,1.5,0.25,2.5,0.75,1.25,0.75,1.5,1.75,1.0,0.25,0.02,0.14,0.95,202.61,-3.3,-0.8
5.12,0.0,0.0,0.5,0.5,0.0,0.0,0.0,0.25,0.0,0.25,1.0,0.0,0.0,-0.17,0.14,0.95,37.81,12.3,-15.9,1.25,1.0,0.5,1.75,0.5,2.25,1.0,1.25,0.75,1.5,1.75,0.75,0.25,0.02,0.14,0.95,203.35,-4.0,3.0
5.14,0.0,0.0,0.25,1.0,0.0,0.0,0.0,0.25,0.0,0.25,1.25,0.0,0.0,-0.17,0.14,0.95,40.84,10.8,-14.4,1.25,1.0,0.75,1.5,0.25,2.5,1.0,1.25,0.75,1.5,1.75,0.75,0.25,0.02,0.14,0.95,201.45,-4.1,2.5
5.16,0.0,0.0,0.0,0.5,0.0,0.0,0.0,0.25,0.0,0.25,1.0,0.0,0.0,-0.17,0.14,0.95,38.61,5.6,-35.8,0.75,1.0,0.25,1.75,0.5,2.5,1.0,1.25,0.75,1.0,1.5,0.75,0.25,0.02,0.14,0.95,196.4,-2.3,3.5
5.18,0.0,0.0,0.0,0.5,0.0,0.0,0.0,0.25,0.0,0.25,1.25,0.0,0.0,-0.17,0.14,0.95,38.29,6.2,-40.1,1.25,1.0,0.5,1.75,0.5,2.5,0.75,1.25,0.75,1.5,1.5,0.75,0.25,0.02,0.14,0.95,196.14,-3.1,4.7
5.2,0.0,0.0,0.0,0.5,0.0,0.0,0.0,0.25,0.0,0.25,0.75,0.0,0.0,-0.17,0.14,0.95,33.5,4.9,-30.3,1.25,1.0,0.5,1.75,0.5,2.25,0.75,1.25,0.75,1.5,1.75,1.0,0.25,0.02,0.14,0.95,197.44,-3.8,0.8
5.22,0.0,0.0,0.0,0.5,0.0,0.0,0.0,0.25,0.0,0.25,1.0,0.0,0.0,-0.17,0.14,0.95,31.39,5.6,-35.8,1.25,1.0,1.0,1.5,1.5,2.5,1.0,1.25,0.75,1.5,1.75,1.0,0.25,0.02,0.14,0.95,207.74,-4.0,6.3
5.24,0.0,0.0,0.0,0.5,0.0,0.0,0.25,0.25,0.0,0.25,1.0,0.0,0.0,-0.17,0.14,0.95,30.0,7.2,-32.2,1.25,1.0,0.5,1.75,0.25,2.5,1.0,1.25,0.75,1.25,1.5,0.75,0.25,0.02,0.14,0.95,205.47,-3.9,5.3
5.26,0.0,0.0,0.25,1.25,0.0,0.0,0.0,0.25,0.0,0.75,1.0,0.0,0.0,-0.17,0.14,0.95,38.31,7.5,-13.5,1.25,1.0,0.5,1.75,0.25,2.5,1.0,1.25,0.75,1.25,1.75,0.75,0.25,0.02,0.14,0.95,204.48,-4.0,3.9
