time,left pressure 0[N/cm²],left pressure 1[N/cm²],left pressure 2[N/cm²],left pressure 3[N/cm²],left pressure 4[N/cm²],left pressure 5[N/cm²],left pressure 6[N/cm²],left pressure 7[N/cm²],left pressure 8[N/cm²],left pressure 9[N/cm²],left pressure 10[N/cm²],left pressure 11[N/cm²],left pressure 12[N/cm²],left acceleration X[g],left acceleration Y[g],left acceleration Z[g],left total force[N],left center of pressure X[mm],left center of pressure Y[mm],right pressure 0[N/cm²],right pressure 1[N/cm²],right pressure 2[N/cm²],right pressure 3[N/cm²],right pressure 4[N/cm²],right pressure 5[N/cm²],right pressure 6[N/cm²],right pressure 7[N/cm²],right pressure 8[N/cm²],right pressure 9[N/cm²],right pressure 10[N/cm²],right pressure 11[N/cm²],right pressure 12[N/cm²],right acceleration X[g],right acceleration Y[g],right acceleration Z[g],right total force[N],right center of pressure X[mm],right center of pressure Y[mm]
0.02,0.0,1.0,0.0,3.0,0.0,2.5,1.25,3.25,0.75,3.25,3.0,0.75,1.0,-0.11,0.08,0.95,257.07,-2.1,-22.7,0.5,0.25,1.5,0.0,0.0,0.5,0.0,0.0,0.0,0.0,0.0,0.0,0.0,0.02,0.7,2.02,42.44,-24.7,66.2
0.04,0.0,1.0,0.0,4.0,0.0,3.0,1.25,3.25,0.75,2.5,3.0,0.75,1.0,-0.11,0.08,0.95,258.04,-1.0,-15.1,0.5,0.5,1.5,0.5,0.0,0.25,0.0,0.0,0.0,0.0,0.0,0.0,0.0,0.14,0.83,2.2,47.3,-26.0,69.7
0.06,0.0,1.0,0.0,4.25,0.0,3.75,1.25,3.25,0.75,1.75,2.75,0.75,1.0,-0.11,0.08,0.95,248.57,-1.2,-9.3,0.5,0.5,1.75,0.0,0.0,0.5,0.0,0.0,0.0,0.0,0.0,0.0,0.0,0.02,1.14,2.2,50.18,-24.8,68.3
0.08,1.5,1.0,0.0,4.25,4.25,4.25,1.5,3.5,0.75,1.75,2.75,0.75,0.5,-0.11,0.08,0.95,277.15,0.1,10.6,1.25,0.25,1.75,0.0,0.0,0.0,0.0,0.0,0.0,0.0,0.0,0.0,0.0,-0.05,1.39,1.95,52.83,-35.0,77.3
0.1,0.0,1.25,0.0,4.5,5.0,4.5,1.75,3.5,0.75,1.75,2.0,0.25,0.25,-0.11,0.08,0.95,296.7,-1.9,15.0,0.0,0.5,1.25,0.0,0.0,0.25,0.0,0.0,0.0,0.0,0.0,0.0,0.0,-0.3,1.58,1.58,48.14,-24.7,67.4
0.12,1.75,1.25,4.25,6.0,5.5,5.0,1.75,3.5,0.75,1.75,2.0,0.0,0.25,-0.11,0.14,0.95,369.55,5.5,28.8,0.5,1.5,1.5,1.75,0.0,2.0,0.0,0.0,0.25,1.5,0.0,0.75,0.0,-0.73,1.95,0.64,84.94,-7.0,26.4
0.14,0.0,1.25,3.75,6.25,6.25,5.0,1.75,3.25,0.75,1.5,1.25,0.0,0.25,-0.11,0.14,0.95,416.22,3.5,29.4,0.0,0.75,1.5,1.75,0.0,1.5,0.0,0.0,0.25,1.25,0.0,0.75,0.0,-1.23,2.58,0.2,106.72,-7.4,17.8
0.16,2.0,1.25,5.5,7.0,6.25,5.5,2.0,2.5,0.5,1.0,1.25,0.0,0.25,-0.11,0.14,0.95,487.13,7.7,38.8,2.0,1.5,2.75,1.75,1.25,1.75,0.25,1.0,0.25,1.25,1.5,0.75,0.25,-1.36,2.58,0.14,169.52,-10.5,23.9
0.18,3.25,1.25,4.5,7.75,7.0,5.75,2.0,2.25,0.5,1.0,0.25,0.0,0.25,-0.11,0.14,1.02,532.35,7.5,44.5,1.25,0.75,2.5,1.25,1.25,2.0,0.0,1.0,0.25,0.75,1.75,0.25,0.5,-0.92,2.58,0.33,199.7,-8.1,18.2
0.2,3.25,1.25,3.75,8.0,6.75,6.25,2.0,2.25,0.25,1.0,1.25,0.0,0.0,-0.11,0.14,1.02,569.25,6.8,42.4,0.25,0.25,0.75,0.0,0.0,0.0,0.0,0.0,0.0,0.0,0.25,0.75,0.0,-0.23,-0.05,1.2,171.98,-22.3,-2.0
0.22,3.5,1.5,0.0,8.25,0.0,6.25,2.5,2.0,0.25,0.75,1.25,0.0,0.0,-0.11,0.14,1.02,511.92,6.3,39.2,0.0,0.5,0.5,0.0,0.0,0.5,0.0,1.0,0.0,2.75,1.5,1.5,0.0,0.58,0.02,1.02,153.4,1.9,-51.4
0.24,0.75,2.0,0.0,9.0,0.0,6.25,2.5,1.5,0.25,0.75,1.0,0.0,0.0,-0.11,0.2,1.02,439.16,4.0,37.5,0.25,0.25,0.5,0.0,0.0,0.5,0.0,1.0,0.0,6.5,3.25,3.5,2.25,0.27,0.33,1.08,186.27,3.6,-72.9
0.26,2.75,2.0,0.0,9.0,0.0,6.25,2.75,0.75,0.0,0.75,1.0,0.0,0.0,-0.17,0.2,1.02,381.43,7.2,45.4,0.25,0.25,0.5,0.0,0.0,1.25,0.0,1.5,0.75,8.0,6.25,3.5,3.25,-0.42,0.52,1.83,259.47,3.4,-70.2
0.28,5.0,2.25,7.0,9.0,0.0,6.0,2.5,0.75,0.0,0.75,0.75,0.0,0.0,-0.17,0.2,0.95,394.21,16.0,53.7,0.5,0.0,0.75,0.0,0.0,1.25,0.0,4.0,0.5,7.75,7.0,3.0,2.5,0.33,0.33,1.83,330.0,3.6,-64.7
0.3,5.25,1.75,7.25,9.25,0.0,0.0,2.5,0.5,0.0,0.25,0.75,0.0,0.0,-0.17,0.27,1.08,389.36,25.6,60.8,1.5,0.0,1.5,0.0,0.0,2.0,0.0,4.25,1.0,7.5,7.5,3.0,3.0,0.02,0.14,0.95,408.76,1.6,-54.6
0.32,5.75,1.75,7.0,9.5,0.0,1.5,2.5,0.5,0.0,0.0,0.5,0.0,0.0,-0.23,0.27,1.2,399.27,23.6,62.4,3.25,0.5,1.75,1.0,0.0,2.75,1.0,5.0,1.25,7.5,7.5,2.75,2.75,0.08,0.14,0.95,479.32,-0.9,-37.3
0.34,5.75,1.25,7.25,8.75,0.0,0.0,2.5,0.0,0.0,0.0,0.75,0.0,0.0,-0.23,0.33,1.45,382.56,27.5,64.1,3.0,0.75,4.0,1.75,0.5,3.5,2.75,4.75,1.25,7.0,7.0,2.25,2.25,0.08,0.08,0.95,534.11,-3.8,-22.6
0.36,5.75,0.0,7.0,7.0,0.0,0.0,2.0,0.0,0.0,0.0,0.0,0.0,0.0,-0.3,0.33,1.7,343.8,29.7,67.8,4.0,1.0,5.25,2.0,0.5,4.0,4.0,4.75,1.25,6.5,6.75,2.25,1.5,0.08,0.08,0.95,586.07,-6.3,-12.1
0.38,5.5,0.0,5.75,4.25,0.0,0.0,1.75,0.0,0.0,0.0,0.25,0.0,0.0,-0.42,0.58,2.08,291.73,30.9,67.9,4.5,0.75,6.75,3.25,0.5,4.5,5.5,4.25,1.5,6.5,6.0,2.75,1.25,0.08,0.08,0.95,654.16,-8.5,-5.2
0.4,0.0,0.0,4.25,3.0,0.0,0.0,1.0,0.0,0.0,0.0,0.0,0.0,0.0,-0.42,0.83,2.27,219.62,29.6,57.7,6.0,1.75,7.75,4.5,3.75,4.5,6.5,4.25,1.0,5.5,6.25,2.25,1.75,0.08,0.08,0.95,757.87,-9.6,8.1
0.42,1.75,0.0,4.0,2.5,0.0,0.0,0.5,0.0,0.0,0.0,0.5,0.0,0.0,-0.23,0.7,2.39,161.51,30.0,58.5,6.25,1.75,8.75,4.5,4.25,4.5,7.0,4.0,1.0,4.5,5.5,1.25,1.5,0.08,0.08,0.95,846.62,-11.0,16.1
0.44,0.0,0.0,3.0,0.0,0.0,0.0,0.0,0.0,0.0,0.0,0.0,0.0,0.0,-0.55,0.14,1.95,85.5,38.2,60.9,6.5,1.75,9.0,4.5,4.25,5.0,7.5,4.0,1.0,3.0,4.0,0.75,1.5,0.08,0.08,0.95,895.53,-11.9,23.7
0.46,0.0,0.0,0.0,0.0,0.0,0.0,0.0,0.0,0.0,0.0,0.0,0.0,0.0,-0.23,-0.8,1.02,21.49,0.0,0.0,7.25,1.75,9.25,4.75,3.75,5.0,7.75,3.75,1.0,1.5,3.5,0.75,0.75,0.08,0.08,0.95,875.12,-14.1,31.6
0.48,0.0,0.0,0.0,0.0,0.0,0.0,0.0,0.0,1.0,0.0,0.0,0.0,0.0,-0.05,-1.11,1.58,0.0,12.1,-38.5,7.25,1.75,9.5,5.25,4.25,4.5,8.0,2.75,0.75,1.75,3.25,0.75,0.75,0.08,0.14,0.95,839.7,-15.0,34.1
0.5,0.5,0.0,0.0,1.25,0.0,0.0,1.25,0.0,0.5,0.0,0.0,0.0,0.0,0.08,-0.67,0.89,0.0,22.4,41.4,7.5,1.5,10.5,6.25,4.25,4.5,8.25,2.75,0.75,1.5,3.25,0.75,0.25,0.08,0.14,1.02,819.26,-16.2,37.3
0.52,0.0,0.0,0.0,0.0,0.0,0.0,4.5,0.0,0.75,0.0,0.0,0.0,0.0,-0.05,-0.61,0.58,0.0,27.2,10.5,7.75,1.75,10.5,6.25,4.25,4.5,8.5,2.5,0.5,1.5,3.0,0.75,0.75,0.08,0.14,0.95,815.4,-16.2,37.6
0.54,0.0,0.0,0.0,0.0,0.0,0.0,4.5,0.0,0.75,0.0,0.0,0.0,0.0,-0.48,-0.42,0.33,0.0,27.2,10.5,7.5,1.75,11.5,6.5,4.25,4.5,8.5,2.5,0.5,1.5,2.5,0.75,0.5,0.08,0.14,0.95,816.96,-16.8,39.8
0.56,0.0,0.0,0.5,0.0,0.0,0.0,0.0,0.0,0.75,0.0,0.0,0.0,0.0,-0.55,-0.36,0.45,0.0,22.9,2.2,7.5,1.5,11.5,7.0,2.25,0.0,8.5,2.0,0.25,0.0,2.0,0.0,0.5,0.08,0.14,0.95,747.06,-24.3,49.7
0.58,0.0,0.0,0.0,0.0,0.0,0.0,3.5,0.0,1.5,0.0,0.0,0.0,0.0,-0.3,-0.11,0.7,0.0,22.9,-3.5,7.5,0.5,10.5,7.25,2.25,0.0,8.5,1.25,0.5,0.0,2.0,0.0,0.5,0.02,0.14,0.95,664.71,-24.9,49.3
0.6,0.0,0.0,1.25,0.5,0.0,0.0,0.25,0.0,0.0,0.0,0.5,0.0,0.0,-0.36,0.14,0.7,0.0,27.9,31.3,7.5,1.75,11.0,7.5,3.25,0.0,9.0,1.5,0.0,1.25,2.0,0.5,0.25,0.02,0.2,0.89,617.68,-22.6,46.9
0.62,0.0,0.0,0.5,0.25,0.0,0.0,0.0,0.0,0.0,0.0,0.0,0.0,0.0,-0.55,0.33,0.7,6.99,31.1,59.9,8.25,0.75,12.5,6.75,4.25,0.0,9.0,1.75,0.0,0.0,2.0,0.0,0.5,0.08,0.2,0.95,601.15,-23.9,51.0
0.64,0.0,0.0,1.25,0.25,0.0,0.0,0.0,0.0,0.0,0.0,0.0,0.0,0.0,-0.67,0.52,1.08,16.53,34.7,60.4,7.5,1.25,12.5,7.25,4.75,0.0,8.75,1.25,0.25,0.0,1.25,0.0,0.25,0.08,0.2,0.95,603.24,-24.0,54.8
0.66,0.0,0.0,1.5,0.25,0.0,0.0,0.0,0.0,0.0,0.0,0.0,0.0,0.0,-0.67,0.58,1.2,20.4,35.2,60.5,7.75,1.25,11.5,7.75,3.5,2.25,8.75,1.0,0.25,0.0,0.75,0.0,0.0,0.02,0.2,0.89,614.9,-22.7,57.0
0.68,0.0,0.0,0.5,0.5,0.0,0.0,0.0,0.0,0.0,0.0,0.0,0.0,0.0,-0.98,0.58,1.2,23.88,27.6,59.4,7.75,1.0,11.5,8.25,3.75,2.0,8.75,1.0,0.25,0.0,0.75,0.75,0.0,0.02,0.2,0.89,627.54,-22.6,53.9
0.7,0.0,0.0,0.0,0.5,0.0,0.0,0.0,0.0,0.0,0.0,0.0,0.0,0.0,-1.36,0.64,1.2,18.9,17.2,57.9,8.0,1.0,11.5,8.5,4.5,0.0,9.0,1.25,0.5,0.0,2.0,0.0,0.25,0.02,0.2,0.89,635.78,-23.5,52.1
0.72,0.0,0.0,1.75,0.5,0.0,0.0,0.0,0.0,0.0,0.0,0.5,0.0,0.0,-1.55,0.77,1.27,25.06,29.6,36.9,7.75,0.25,12.5,9.0,4.5,4.0,9.0,1.0,0.25,0.0,0.75,0.0,0.0,0.02,0.2,0.89,663.03,-20.8,55.2
0.74,0.0,0.0,1.0,0.25,0.0,0.0,0.0,0.0,0.0,0.0,0.0,0.0,0.0,-1.55,0.89,1.14,22.73,34.0,60.3,7.75,1.25,12.5,9.75,4.75,2.25,8.75,1.0,0.25,0.0,0.75,0.0,0.0,0.02,0.2,0.95,692.82,-22.0,57.0
0.76,0.0,0.0,0.25,0.25,0.0,0.0,0.0,0.0,0.0,0.0,0.0,0.0,0.0,-1.48,0.95,1.08,19.52,27.6,59.4,8.25,1.75,12.5,11.5,4.75,4.5,8.75,1.0,0.5,1.5,0.75,0.25,0.0,0.08,0.27,0.95,768.63,-18.8,51.8
0.78,0.0,0.0,0.75,0.5,0.0,0.0,0.0,0.0,0.0,0.0,0.0,0.0,0.0,-1.3,0.95,1.02,18.46,29.7,59.7,8.5,1.5,12.5,10.0,4.75,2.75,9.0,1.25,0.0,0.0,0.75,0.25,0.0,0.08,0.33,0.89,800.24,-21.5,56.7
0.8,0.0,0.0,1.75,0.25,0.0,0.0,0.25,0.0,0.0,0.0,0.5,0.0,0.0,-1.11,0.95,0.95,26.78,30.9,34.4,7.5,1.0,12.5,10.0,4.75,4.5,9.0,2.5,0.0,0.0,0.75,0.25,0.0,0.14,0.33,0.89,834.95,-18.8,52.2
0.82,0.0,0.0,0.0,0.5,0.0,0.0,0.0,0.0,0.0,0.0,0.0,0.0,0.0,-0.98,1.02,0.7,20.94,17.2,57.9,7.75,0.5,13.0,10.5,4.75,3.5,9.0,1.5,0.5,0.75,2.0,0.75,0.0,0.14,0.39,0.95,843.73,-19.8,46.8
0.84,0.0,0.0,0.0,0.5,0.0,0.0,0.0,0.0,0.0,0.0,0.0,0.0,0.0,-0.8,1.2,0.89,18.5,17.2,57.9,8.25,1.0,14.0,10.0,4.5,2.75,9.0,2.25,0.5,1.5,1.25,0.5,0.0,0.2,0.45,0.89,858.24,-20.1,47.6
0.86,0.0,0.0,0.75,0.5,0.0,0.0,0.0,0.0,0.0,0.0,0.75,0.0,0.0,-0.67,1.2,0.83,21.76,22.9,11.1,8.5,1.25,14.0,10.0,5.0,4.0,9.0,2.25,0.5,0.5,2.0,0.75,0.25,0.2,0.45,0.83,888.49,-19.2,47.0
0.88,0.0,0.0,1.5,0.5,0.0,0.0,0.0,0.0,0.0,0.0,0.5,0.0,0.0,-0.67,1.14,0.64,28.3,28.7,34.4,8.25,1.5,15.0,11.5,4.75,4.25,8.75,2.5,0.5,1.5,0.0,0.5,0.0,0.08,0.33,0.89,929.99,-19.0,50.6
0.9,0.0,0.0,1.5,0.5,0.0,0.0,0.0,0.0,0.0,0.0,0.5,0.0,0.0,-0.73,1.02,0.58,36.05,28.7,34.4,7.75,1.0,15.5,9.25,4.75,2.75,9.0,2.0,0.5,1.5,2.0,0.75,0.0,-0.05,0.2,0.89,938.15,-20.4,45.4
0.92,0.0,0.0,1.5,0.5,0.0,0.0,0.0,0.0,0.0,0.0,0.5,0.0,0.0,-0.67,0.89,0.58,43.25,28.7,34.4,8.0,1.0,13.5,10.5,2.25,3.25,8.5,1.0,0.5,1.25,0.5,0.75,0.0,-0.17,0.14,1.02,887.95,-21.8,50.9
0.94,0.0,0.0,1.5,0.5,0.0,0.0,0.0,0.0,0.0,0.0,0.75,0.0,0.0,-0.67,0.7,0.7,47.38,27.1,24.9,7.75,1.0,13.0,9.75,3.25,2.25,8.25,1.0,0.5,1.5,0.25,0.75,0.0,-0.17,0.2,0.95,822.66,-21.8,50.9
0.96,0.0,0.0,0.75,0.25,0.0,0.0,0.25,0.0,0.0,0.0,0.5,0.0,0.0,-0.61,0.45,0.52,41.2,26.3,17.7,7.75,0.75,16.0,8.25,3.75,1.25,8.25,1.0,0.0,0.0,0.75,0.25,0.0,-0.17,0.27,0.89,759.81,-25.1,57.2
0.98,0.0,0.0,0.75,0.5,0.0,0.0,0.0,0.0,0.0,0.0,0.5,0.0,0.0,-0.55,0.39,0.52,38.51,24.6,22.9,8.0,1.0,13.5,9.0,0.5,2.0,8.0,1.0,0.0,1.25,0.0,0.75,0.0,-0.17,0.33,1.02,693.9,-24.7,53.7
1.0,0.0,0.0,1.5,0.5,0.0,0.0,0.0,0.0,0.0,0.0,0.75,0.0,0.0,-0.55,0.27,0.27,40.21,27.1,24.9,7.75,1.0,13.0,7.25,0.25,1.0,7.75,0.75,0.0,0.0,0.25,0.25,0.0,-0.17,0.33,0.95,611.28,-28.2,60.4
1.02,0.0,0.0,1.5,1.0,0.0,0.0,0.0,0.0,0.0,0.0,0.5,0.0,0.0,-0.86,0.2,0.64,44.75,26.7,38.4,7.75,1.0,12.5,7.0,0.0,0.75,7.5,0.75,0.25,1.0,0.0,0.75,0.0,-0.05,0.45,0.89,553.08,-27.2,54.8
1.04,0.0,0.0,1.5,0.25,0.0,0.0,0.0,0.0,0.0,0.0,0.5,0.0,0.0,-0.67,0.02,0.64,45.35,30.0,31.7,7.5,0.75,13.0,7.0,0.25,0.5,7.25,0.5,0.0,0.75,2.0,0.75,0.25,-0.05,0.45,0.83,512.47,-27.0,48.6
1.06,0.0,0.0,0.75,1.75,0.0,0.0,0.0,0.0,0.0,0.0,0.0,0.0,0.0,-0.73,-0.05,1.02,48.66,23.4,58.8,7.0,0.5,11.5,5.5,0.0,0.0,7.0,0.0,0.0,0.0,0.0,0.0,0.0,-0.11,0.39,0.89,443.1,-32.0,65.6
1.08,0.0,0.0,0.0,1.75,0.0,0.0,0.0,0.0,0.0,0.0,0.25,0.0,0.0,-0.42,0.14,1.02,43.98,16.4,42.3,6.75,0.0,10.5,4.5,0.0,0.0,6.75,0.0,0.0,0.0,0.25,0.0,0.0,-0.17,0.39,0.89,381.42,-32.5,64.0
1.1,0.0,0.0,0.0,0.0,0.0,0.0,0.0,0.5,0.0,0.0,0.0,0.0,0.0,-0.17,0.2,1.14,29.8,-16.7,-38.7,6.75,0.5,9.5,4.25,0.0,0.0,6.5,0.0,0.0,0.0,0.0,0.0,0.0,-0.17,0.45,1.08,331.64,-32.2,66.5
1.12,0.0,0.0,0.0,0.25,0.0,5.5,0.0,0.0,0.0,0.5,0.5,0.0,0.0,-0.17,0.14,1.08,51.31,-18.1,18.3,5.5,0.0,9.0,3.75,0.0,0.0,5.75,0.0,0.0,0.0,0.0,0.0,0.0,-0.05,0.52,1.02,290.26,-32.7,65.0
1.14,0.0,0.75,0.0,1.25,0.0,5.75,0.0,2.25,0.0,1.25,0.0,0.0,0.0,-0.17,0.14,1.08,97.18,-13.5,14.1,5.5,0.75,8.0,4.5,0.0,1.0,4.75,0.0,0.25,1.5,0.25,0.75,0.0,0.08,0.52,0.77,282.81,-25.2,49.4
1.16,0.0,0.0,0.25,1.0,0.0,5.0,0.25,0.0,0.0,1.75,0.0,0.0,0.0,-0.23,0.08,1.02,124.81,-13.1,13.7,3.0,0.0,7.75,2.25,0.5,1.25,4.0,1.0,0.25,0.0,2.0,0.5,0.25,0.2,0.45,0.7,269.03,-23.3,35.8
1.18,0.0,0.0,0.0,0.5,0.0,4.5,0.0,5.25,0.5,2.75,1.75,0.75,0.5,-0.17,0.08,1.02,176.18,-12.0,-32.1,0.5,0.0,5.5,0.75,0.0,0.0,1.5,0.0,0.0,0.0,0.0,0.0,0.0,0.2,0.33,0.7,206.94,-35.3,59.7
1.2,0.0,0.0,1.5,0.5,0.0,3.5,0.0,5.75,0.25,3.5,2.0,0.75,1.0,-0.17,0.08,0.95,219.75,-7.6,-32.3,0.5,0.0,5.25,0.5,0.0,0.0,0.5,0.0,0.0,0.0,0.0,0.25,0.0,0.14,0.27,0.95,136.1,-35.2,55.9
1.22,0.0,0.0,1.5,0.5,0.0,2.5,0.0,5.75,0.5,3.75,1.5,1.25,1.25,-0.17,0.08,0.95,253.02,-6.8,-38.4,1.75,0.0,4.75,0.5,0.0,0.0,0.5,0.0,0.0,0.0,0.0,0.0,0.0,0.27,0.52,0.83,79.68,-35.8,67.9
1.24,0.0,0.0,0.0,0.5,0.0,2.0,0.0,5.75,0.5,4.25,2.0,1.75,1.75,-0.17,0.08,0.95,273.26,-9.7,-54.6,2.5,0.25,4.0,0.25,0.0,0.0,0.0,0.0,0.0,0.0,0.0,0.0,0.0,0.2,0.64,0.77,50.45,-35.4,74.6
1.26,0.0,0.0,2.5,0.5,0.0,2.25,0.0,5.75,0.5,5.0,0.0,2.0,2.25,-0.23,0.08,0.89,292.26,-5.9,-40.1,1.5,0.0,3.5,0.5,0.0,0.0,0.0,0.0,0.0,0.0,0.0,0.0,0.0,-0.05,0.7,0.83,31.42,-35.4,70.0
1.28,0.0,0.0,2.25,1.25,0.0,2.0,0.0,5.75,0.75,4.75,0.0,2.0,2.25,-0.17,0.08,0.95,302.93,-5.1,-38.0,1.25,0.75,3.0,0.0,0.0,0.0,0.0,0.0,0.0,0.0,0.0,0.25,0.0,-0.42,0.58,0.89,29.71,-32.4,66.6
1.3,0.0,0.0,2.5,0.75,0.0,1.75,0.0,5.25,0.75,5.0,0.0,2.75,2.5,-0.17,0.08,0.95,311.77,-4.4,-43.8,1.5,1.25,2.75,2.0,0.0,0.5,0.75,1.0,0.5,1.25,1.75,0.75,0.25,-0.42,0.52,1.02,77.21,-14.5,13.9
1.32,0.0,0.0,2.25,1.0,0.0,1.25,0.25,5.25,1.0,5.0,0.0,3.0,2.5,-0.17,0.08,0.95,317.55,-3.7,-45.8,1.75,0.5,4.5,0.0,0.5,0.0,0.5,1.0,0.0,0.0,1.5,0.75,0.25,-0.36,0.39,0.95,103.3,-22.5,24.6
1.34,0.0,0.0,2.0,1.25,0.0,1.25,0.5,5.0,0.75,5.25,0.0,3.0,3.25,-0.11,0.08,0.95,320.74,-4.2,-48.2,0.5,0.25,2.75,0.0,0.0,0.0,0.0,0.0,0.0,0.0,0.0,0.0,0.0,-0.23,0.33,0.95,93.65,-36.0,68.5
1.36,0.0,0.0,2.25,2.0,0.0,0.5,0.5,5.0,0.75,5.0,0.0,3.0,3.5,-0.17,0.08,0.95,317.75,-2.4,-46.2,0.5,0.0,3.0,0.0,0.0,0.0,0.0,0.0,0.0,0.0,0.0,0.0,0.0,-0.17,0.2,0.95,73.11,-37.8,65.8
1.38,0.0,0.0,1.5,2.5,0.0,0.5,0.75,4.5,0.75,5.0,0.0,3.75,3.5,-0.11,0.08,0.95,317.88,-2.4,-49.3,0.25,0.25,2.75,0.0,0.0,0.0,0.0,0.0,0.0,0.0,0.0,0.0,0.0,-0.17,0.02,1.08,49.56,-36.0,66.5
1.4,0.0,0.0,1.5,2.5,0.0,0.5,1.0,4.0,1.5,5.25,0.0,4.0,3.5,-0.11,0.08,0.95,322.09,-1.5,-49.8,0.5,0.5,2.75,0.0,0.0,0.25,0.0,0.0,0.0,0.0,0.0,0.0,0.0,-0.05,-0.17,1.02,47.38,-31.0,68.5
1.42,0.0,0.0,1.5,2.5,0.0,0.5,1.25,4.0,1.5,5.25,0.0,3.5,3.5,-0.11,0.08,0.95,317.83,-1.6,-48.1,0.5,0.0,2.75,0.0,0.0,0.25,0.0,0.0,0.0,0.0,0.0,0.25,0.0,0.02,-0.3,1.02,52.93,-32.1,52.6
1.44,0.0,0.0,2.0,2.5,0.0,0.5,1.25,4.0,1.75,5.0,0.0,3.25,3.5,-0.11,0.08,0.95,317.31,-0.5,-44.6,2.0,0.5,2.75,0.0,0.0,0.0,0.0,0.0,0.0,0.0,0.0,0.0,0.0,0.02,-0.36,0.89,64.98,-34.5,77.9
1.46,0.0,0.0,2.5,2.5,0.0,0.0,2.0,3.25,1.75,5.0,5.25,3.75,3.5,-0.11,0.08,0.95,341.85,3.5,-49.9,0.5,0.5,2.75,0.25,0.0,0.0,0.0,0.0,0.0,0.0,0.0,0.0,0.0,0.14,-0.36,0.89,64.68,-33.3,69.8
1.48,0.0,0.0,3.25,2.5,0.0,0.5,2.5,2.5,1.75,5.5,5.5,4.0,3.5,-0.11,0.08,0.95,370.64,4.5,-46.5,0.5,1.0,2.75,0.0,0.0,0.0,0.0,0.0,0.0,0.0,0.0,0.25,0.0,0.39,-0.42,0.95,67.63,-30.5,64.0
1.5,0.0,0.0,4.0,2.5,0.0,0.25,2.75,2.5,1.75,5.75,5.75,4.0,3.5,-0.11,0.08,0.95,401.49,5.5,-44.6,0.75,0.75,2.75,0.0,0.0,0.0,0.0,0.0,0.0,0.0,0.0,0.0,0.0,0.39,-0.42,1.14,66.64,-33.1,73.8
1.52,0.0,0.0,3.25,2.5,0.0,0.0,2.75,2.25,1.75,6.0,6.0,4.0,3.75,-0.11,0.08,0.95,425.09,4.8,-49.0,0.25,0.75,2.75,0.0,0.0,0.0,0.0,0.0,0.0,0.0,0.0,0.0,0.0,0.2,-0.3,1.02,62.97,-32.9,70.8
1.54,1.5,0.0,5.0,2.5,0.0,0.0,2.5,2.25,1.75,6.0,0.0,4.0,3.75,-0.11,0.08,0.95,414.09,7.1,-29.5,0.5,0.25,2.75,0.0,0.0,0.0,0.0,0.0,0.0,0.0,0.0,0.0,0.0,0.08,-0.17,0.89,56.21,-36.0,68.5
1.56,0.0,0.0,4.25,2.5,0.0,0.0,2.25,2.25,1.75,6.25,6.5,4.0,4.25,-0.11,0.08,0.95,428.63,5.3,-47.6,0.5,0.25,2.75,0.0,0.0,0.0,0.0,0.0,0.0,0.0,0.0,0.0,0.0,0.08,-0.11,0.77,60.27,-36.0,68.5
1.58,0.0,0.0,4.5,2.25,0.0,0.0,2.0,2.25,1.75,6.75,7.0,4.25,4.75,-0.11,0.08,0.95,450.51,4.9,-50.0,0.5,0.25,2.75,0.0,0.0,0.0,0.0,0.0,0.0,0.0,0.0,0.0,0.0,-0.05,0.02,1.02,64.07,-36.0,68.5
1.6,0.0,0.0,3.75,2.0,0.0,0.0,1.75,2.25,1.75,6.75,7.0,4.5,5.0,-0.11,0.08,0.95,478.19,3.8,-54.6,0.25,0.5,2.75,0.0,0.0,0.0,0.0,0.0,0.0,0.0,0.0,0.0,0.0,-0.3,-0.42,1.58,62.2,-34.3,68.8
1.62,0.0,0.0,3.75,2.25,0.0,0.0,1.25,2.25,1.75,6.75,7.0,4.75,5.0,-0.11,0.08,0.95,495.47,3.7,-54.7,1.75,1.0,2.75,1.5,0.0,0.0,0.25,1.0,0.25,1.5,2.0,0.75,0.0,-0.05,-0.73,1.33,107.28,-15.8,11.0
1.64,0.0,0.0,3.0,2.0,0.0,0.0,1.0,2.25,1.75,7.0,6.5,4.75,5.5,-0.11,0.08,0.95,501.72,2.2,-59.3,2.0,1.5,2.75,2.0,0.5,0.5,0.5,1.0,0.25,1.5,2.0,1.25,0.5,-0.05,0.02,0.7,163.07,-13.1,11.3
1.66,0.0,0.0,2.75,1.5,0.0,0.0,1.0,2.25,1.75,7.0,7.5,4.75,5.75,-0.17,0.08,0.95,502.56,1.8,-62.8,2.0,1.75,3.5,2.0,0.0,0.25,0.5,0.0,0.5,2.75,2.0,2.5,0.25,0.27,0.14,1.64,217.18,-15.0,2.4
1.68,0.0,0.0,2.75,1.5,0.0,0.0,1.0,2.25,1.75,6.5,7.5,4.75,5.75,-0.11,0.08,0.95,495.53,2.1,-62.7,2.25,1.5,4.25,1.25,0.5,0.5,0.5,0.0,0.5,4.25,5.0,2.25,1.25,0.02,0.08,0.95,270.2,-11.4,-14.2
1.7,0.0,0.0,2.5,1.25,0.0,0.0,0.75,2.25,1.5,6.5,7.25,4.75,5.75,-0.11,0.08,0.95,484.01,1.4,-65.1,1.25,0.75,2.75,0.75,0.0,0.0,0.5,1.0,0.75,6.25,4.75,3.0,3.25,0.02,0.14,0.95,315.21,-4.2,-47.1
1.72,0.0,0.0,2.5,1.75,0.0,0.0,0.75,2.0,1.5,6.25,7.0,4.0,5.0,-0.11,0.08,0.95,462.67,2.1,-60.7,0.75,0.5,3.5,0.0,0.5,0.0,0.75,1.0,0.5,6.0,5.75,3.5,3.0,0.02,0.14,0.95,354.26,-4.8,-50.1
1.74,0.0,0.25,2.75,0.5,0.0,0.0,0.5,2.0,1.25,5.75,6.75,4.0,4.75,-0.11,0.08,0.95,432.62,2.0,-63.4,0.0,0.25,2.75,0.0,0.0,0.0,0.0,1.0,0.5,7.0,6.75,4.75,4.75,0.02,0.08,0.89,395.43,-1.3,-69.8
1.76,0.0,0.0,2.5,2.25,0.0,0.0,0.75,1.5,1.0,5.0,5.25,3.0,4.25,-0.17,0.08,0.95,388.49,3.1,-54.0,0.5,0.5,2.75,0.0,0.0,0.0,0.0,1.25,0.5,7.75,7.5,5.5,5.75,0.02,0.08,1.02,454.92,-1.2,-68.3
1.78,0.0,0.0,1.75,2.25,0.0,0.0,0.5,0.75,0.75,3.5,0.0,2.0,2.5,-0.17,0.08,0.95,301.84,2.9,-40.8,0.5,0.5,2.75,0.0,0.0,0.0,0.0,1.25,0.5,7.75,8.25,5.75,6.5,0.02,0.08,1.02,511.3,-1.1,-69.7
1.8,0.0,0.0,2.5,1.0,0.0,0.0,0.5,0.5,0.0,2.5,0.0,1.25,1.5,-0.17,0.08,0.95,218.84,6.8,-30.0,0.5,0.75,2.75,0.0,0.0,0.0,0.0,1.25,0.5,8.0,8.5,5.75,7.0,0.08,0.08,0.95,558.05,-0.9,-69.1
1.82,0.0,0.0,2.0,0.5,0.0,0.0,0.5,0.0,0.0,1.0,0.0,0.0,0.5,-0.11,0.08,0.95,118.95,16.7,6.9,0.5,0.5,2.75,0.0,0.0,0.0,0.0,1.0,0.5,8.0,8.0,5.75,7.0,0.08,0.02,0.83,578.18,-0.8,-70.5
1.84,0.0,0.0,0.0,1.75,0.0,0.0,0.5,0.0,0.0,1.75,0.0,0.25,0.0,0.14,-0.11,1.02,41.8,3.4,-11.4,1.0,0.75,4.25,0.0,1.75,0.0,0.0,1.25,1.0,8.5,8.5,6.0,7.25,0.02,0.02,0.89,611.43,-2.4,-56.3
1.86,0.0,0.0,0.5,1.25,0.0,0.0,0.75,0.5,0.0,1.5,0.25,0.0,0.5,-0.05,0.14,1.02,0.0,3.5,-18.3,2.75,0.25,4.5,0.0,2.25,0.0,0.75,2.75,0.0,7.5,8.5,5.75,7.75,0.02,0.08,0.95,635.23,-3.2,-49.0
1.88,0.0,0.0,1.25,0.5,0.0,0.0,0.75,0.5,0.0,1.0,1.25,0.0,0.25,0.08,0.14,0.95,0.0,10.7,-18.6,0.5,0.75,2.75,0.0,0.0,0.0,0.0,1.0,0.0,7.25,7.25,5.5,6.5,0.02,0.02,0.95,601.03,-1.1,-68.4
1.9,0.0,0.0,1.25,0.5,0.0,0.0,0.75,0.0,0.0,1.0,1.25,0.0,0.0,0.02,0.2,0.95,0.0,15.3,-11.0,0.5,0.5,3.0,0.0,0.5,0.0,0.0,1.0,0.0,7.25,6.75,5.0,6.25,0.02,0.02,0.89,551.23,-1.1,-65.3
1.92,0.0,0.0,1.5,0.5,0.0,0.0,0.75,0.0,0.0,0.75,1.0,0.0,0.0,0.02,0.2,0.95,0.0,18.9,1.1,0.5,1.25,2.75,0.0,0.0,0.0,0.0,1.0,0.0,7.0,6.5,5.25,6.0,0.08,-0.05,0.89,492.34,-1.4,-64.3
1.94,0.0,0.0,1.5,0.75,0.0,0.0,0.75,0.0,0.25,0.75,1.25,0.0,0.0,-0.11,0.14,0.89,0.0,18.0,-1.6,0.5,0.5,2.75,0.0,0.0,0.0,0.0,1.0,0.0,7.0,6.25,5.25,6.0,0.02,0.08,1.02,449.81,-1.0,-68.5
1.96,0.0,0.0,0.75,0.25,0.0,0.0,0.75,0.0,0.0,0.25,1.25,0.0,0.0,-0.17,0.02,0.89,0.0,19.2,-13.3,0.5,0.75,2.75,0.0,0.0,0.0,0.0,0.75,0.0,7.0,6.5,5.25,6.0,0.08,0.02,0.89,421.62,-1.4,-67.4
1.98,0.0,0.0,0.0,0.25,0.0,0.0,0.5,0.0,0.0,0.25,0.25,0.0,0.0,-0.23,0.02,0.89,0.0,11.0,-15.5,0.5,0.5,2.75,0.0,0.0,0.0,0.0,0.25,0.0,7.0,6.0,5.25,6.0,-0.05,0.14,1.02,401.03,-1.4,-69.3
2.0,0.0,0.0,0.0,0.5,0.0,0.0,0.5,0.0,0.25,1.0,0.0,0.0,0.0,-0.3,0.08,0.83,0.65,2.0,-23.9,0.5,0.75,2.75,0.0,0.0,0.0,0.0,0.0,0.0,7.25,6.25,5.5,6.5,0.33,-0.11,0.45,394.11,-1.4,-69.2
2.02,0.0,0.0,2.25,0.5,0.0,0.0,1.0,0.0,0.5,1.75,1.0,0.0,0.25,-0.8,0.52,0.7,37.67,14.5,-9.9,0.5,0.75,2.75,0.0,0.0,0.0,0.0,0.0,0.0,7.25,6.75,5.75,6.75,0.2,0.02,1.14,395.6,-1.5,-70.0
2.04,0.0,0.0,0.0,0.25,0.0,0.0,0.5,0.0,0.5,2.0,1.25,0.0,1.0,-0.3,0.02,0.95,61.21,-2.7,-67.4,0.5,0.75,2.25,0.0,0.0,0.0,0.0,0.25,0.0,7.25,6.75,5.75,7.0,0.08,0.08,1.08,403.75,-0.6,-72.3
2.06,0.0,0.0,0.0,0.0,0.0,0.0,0.0,0.0,0.0,1.5,1.0,0.0,0.75,-0.23,0.27,1.14,71.37,-7.3,-83.6,0.5,0.75,2.75,0.0,0.0,0.0,0.0,0.25,0.0,7.25,6.75,6.0,7.0,0.08,-0.05,0.77,416.1,-1.3,-70.4
2.08,0.0,0.0,0.0,0.25,0.0,0.0,0.0,0.0,0.0,1.75,1.25,0.0,1.0,-0.11,0.02,0.58,73.94,-5.6,-75.6,2.0,1.5,2.75,0.5,0.0,1.0,0.0,0.5,0.0,7.5,6.75,5.75,7.0,-0.11,-0.11,0.64,440.24,-2.1,-54.8
2.1,0.0,0.0,0.0,0.25,0.0,0.0,0.0,0.0,0.0,1.75,1.25,0.75,1.25,-0.17,-0.05,0.64,78.52,-3.9,-82.1,0.5,0.75,2.75,0.0,0.5,0.0,0.0,1.5,0.75,8.0,7.25,6.25,6.5,0.08,0.14,1.27,471.39,-0.8,-66.4
2.12,0.0,0.0,0.0,0.25,0.0,0.0,0.0,0.0,0.0,1.0,2.0,1.25,2.25,-0.17,0.08,0.95,93.07,-1.6,-88.4,0.5,0.75,2.75,0.0,0.5,0.0,0.0,1.25,0.5,7.25,7.75,5.5,7.25,0.08,0.02,0.95,497.32,-0.9,-66.8
2.14,0.0,0.0,0.5,0.5,0.0,0.0,0.5,0.0,0.0,3.0,3.0,3.0,3.75,-0.17,-0.11,0.58,146.72,-0.4,-80.5,3.0,1.75,2.75,1.5,0.0,0.75,0.0,1.0,1.0,8.0,6.75,6.0,6.0,0.02,0.02,0.64,520.95,-3.8,-46.0
2.16,0.0,0.0,1.75,0.5,0.0,0.0,0.25,0.0,0.5,3.75,4.0,3.25,4.75,-0.11,-0.05,0.77,211.8,1.7,-71.9,1.75,1.5,3.0,2.25,1.75,1.0,0.5,2.5,1.0,8.25,8.25,5.75,6.75,0.2,0.08,1.2,571.4,-2.2,-44.4
2.18,0.0,0.0,1.5,0.5,0.0,0.0,0.5,0.25,0.5,4.25,4.5,3.0,4.75,-0.23,0.08,1.08,264.17,0.8,-72.3,0.5,0.5,3.0,0.0,0.25,0.0,0.0,1.25,0.25,7.5,7.25,4.75,5.5,-0.05,0.2,1.2,543.82,-1.4,-64.8
2.2,0.0,0.0,1.75,0.5,0.0,0.0,0.5,0.5,0.75,4.75,4.5,2.75,4.75,-0.36,-0.05,0.77,299.27,0.7,-69.4,0.5,0.5,2.5,0.0,0.0,0.0,0.0,2.0,0.25,7.25,7.0,4.75,5.5,0.08,0.14,1.08,509.96,-0.4,-67.3
2.22,0.0,0.0,1.25,0.0,0.0,0.0,0.25,0.25,0.75,3.75,4.5,2.5,0.0,-0.11,0.14,1.27,288.59,5.2,-64.8,0.5,0.75,2.25,0.0,0.0,0.0,0.0,1.5,0.25,7.25,6.75,4.25,5.0,0.02,0.08,0.95,454.1,-0.5,-65.8
2.24,0.0,0.0,1.25,0.0,0.0,0.0,1.5,2.25,0.0,4.5,1.0,2.25,0.0,-0.17,0.2,0.95,260.97,-0.4,-54.1,0.5,0.25,2.75,0.0,0.0,0.0,0.0,1.5,0.25,7.0,6.5,3.75,4.75,0.08,0.02,0.83,409.35,-1.1,-65.2
2.26,0.0,0.0,1.5,1.25,0.0,0.0,3.5,0.0,2.75,2.25,3.0,1.5,2.25,-0.17,0.14,0.95,243.36,9.0,-42.9,0.5,0.5,2.5,0.0,0.0,0.5,0.0,1.25,0.25,6.25,6.0,3.5,4.5,0.08,0.08,0.89,370.85,-0.9,-61.8
2.28,0.0,0.0,0.0,0.25,0.0,0.0,1.0,0.0,0.5,4.25,3.0,1.25,2.5,-0.11,0.14,0.95,228.65,-2.7,-77.8,0.5,0.75,2.5,0.0,0.0,0.0,0.0,1.25,0.5,7.0,5.25,3.75,3.75,0.08,0.08,0.89,348.74,-1.3,-60.8
2.3,0.0,0.0,0.0,0.5,0.0,0.0,1.0,0.0,0.5,3.5,3.75,1.75,3.0,-0.11,0.14,0.95,225.07,-0.8,-77.6,1.5,1.5,2.75,1.25,0.5,0.5,0.5,2.5,0.5,6.0,6.0,3.5,4.0,0.08,0.08,0.95,350.27,-3.2,-40.6
2.32,0.0,0.0,1.5,2.0,0.0,0.0,1.25,0.5,0.5,3.5,3.75,1.75,3.0,-0.11,0.08,0.95,231.32,4.0,-50.9,1.75,1.5,2.75,1.75,0.5,1.0,0.5,2.25,0.5,5.0,5.0,3.0,3.25,0.02,0.14,0.95,342.18,-4.3,-30.9
2.34,0.0,0.0,1.75,2.5,0.0,0.0,1.75,0.75,0.75,4.25,3.0,2.0,2.25,-0.11,0.08,0.95,240.37,4.8,-43.1,2.0,1.75,2.75,1.25,0.5,1.25,0.5,1.5,0.5,4.5,4.25,2.5,2.5,0.02,0.14,0.95,328.24,-5.4,-23.3
2.36,0.0,0.25,1.5,2.5,0.0,0.25,2.0,0.5,0.75,4.0,3.5,2.0,2.5,-0.11,0.14,0.95,246.22,4.7,-42.6,1.75,1.25,2.75,1.0,0.5,1.0,0.5,1.25,0.5,4.25,4.25,2.25,2.25,0.02,0.14,0.95,301.43,-5.8,-26.2
2.38,0.0,0.0,1.5,0.75,0.0,0.0,2.0,0.5,0.5,3.5,3.0,0.75,2.5,-0.11,0.14,0.95,231.82,3.5,-51.4,1.75,1.75,2.75,1.25,0.5,1.0,0.5,1.25,0.5,3.75,3.75,2.25,1.75,0.02,0.14,0.95,282.65,-6.9,-18.2
2.4,0.0,0.0,0.0,0.5,0.0,0.5,1.5,0.5,0.0,2.25,2.0,0.75,1.25,-0.11,0.14,0.95,195.81,-1.4,-58.4,1.75,1.5,2.75,1.5,0.5,1.25,0.5,1.25,0.25,3.25,3.5,1.75,1.75,0.02,0.14,0.95,266.77,-7.0,-13.8
2.42,0.0,1.0,0.75,2.5,0.0,0.5,1.5,1.0,0.75,3.5,3.0,0.75,1.75,-0.11,0.14,0.95,191.08,3.1,-30.3,1.75,1.75,2.75,1.5,0.5,1.0,0.5,1.25,0.5,3.5,3.25,1.75,1.25,0.02,0.14,0.95,264.69,-7.6,-10.9
2.44,0.0,0.0,0.0,0.5,0.0,0.5,1.25,0.5,0.0,1.75,1.5,0.0,0.5,-0.11,0.14,0.95,150.2,-1.6,-43.8,1.75,1.5,2.75,1.75,0.5,1.5,0.5,1.25,0.5,3.0,3.25,1.25,1.25,0.02,0.14,0.95,259.57,-7.5,-6.4
2.46,0.0,0.0,1.5,0.75,0.0,0.5,1.25,0.5,0.0,1.5,1.25,0.0,0.0,-0.11,0.14,0.95,128.54,9.4,-7.8,0.5,0.5,2.75,0.0,0.5,0.0,0.5,1.25,0.0,1.5,3.25,0.75,1.25,0.02,0.14,0.95,225.16,-9.1,-25.1
2.48,0.0,0.0,1.5,0.5,0.0,1.25,1.75,0.75,0.0,0.75,2.0,0.0,1.0,-0.11,0.14,0.95,106.1,5.9,-18.3,0.5,0.5,2.5,0.0,0.0,0.0,0.0,1.0,0.0,1.0,2.0,1.0,0.5,0.02,0.14,0.95,176.86,-12.3,-19.1
2.5,0.0,0.0,1.0,0.5,0.0,1.25,1.0,0.5,0.0,0.5,1.0,0.0,0.0,-0.11,0.14,0.95,84.21,6.0,3.1,0.5,0.75,2.5,0.0,0.0,0.0,0.0,1.0,0.25,0.75,2.0,0.25,0.25,0.02,0.14,0.95,127.62,-14.3,-3.3
2.52,0.0,0.0,1.0,0.5,0.0,2.0,1.0,0.5,0.0,1.75,0.75,0.0,0.0,-0.11,0.14,0.95,75.57,-1.0,-5.1,0.5,0.25,1.75,0.0,0.0,0.0,0.0,1.0,0.0,1.0,2.0,0.75,0.25,0.02,0.14,0.95,88.8,-10.7,-25.3
2.54,0.0,0.0,1.0,1.75,0.0,1.75,0.75,0.0,0.0,1.75,0.0,0.0,0.0,-0.17,0.14,0.95,71.54,2.6,15.5,0.5,0.75,1.75,0.0,0.0,0.0,0.0,1.0,0.0,1.0,2.0,0.75,0.25,0.02,0.14,0.95,69.43,-10.8,-17.3
2.56,0.0,0.0,1.25,0.5,0.0,1.25,0.75,1.0,0.0,0.25,0.25,0.0,0.0,-0.17,0.14,0.95,64.41,5.1,17.1,0.0,0.75,1.75,0.0,0.0,0.0,0.0,1.0,0.25,1.0,2.0,0.5,0.25,0.02,0.14,0.95,66.84,-9.4,-22.1
2.58,0.0,1.0,1.0,2.5,0.0,0.0,1.0,0.75,0.0,0.0,1.25,0.0,0.0,-0.11,0.14,0.95,70.73,15.9,29.3,0.5,0.5,1.5,0.0,0.0,0.0,0.0,1.0,0.0,0.0,2.0,0.5,0.25,0.02,0.14,0.95,63.2,-13.9,-12.3
2.6,0.0,0.0,1.5,1.75,0.0,0.0,1.0,0.5,0.0,0.25,0.25,0.0,0.0,-0.17,0.14,0.95,70.03,19.8,32.3,0.5,0.5,1.75,0.0,0.0,0.0,0.0,1.0,0.0,0.75,1.75,0.75,0.25,0.02,0.14,0.95,63.49,-11.7,-17.5
2.62,0.0,0.0,1.5,0.5,0.0,0.0,1.0,0.5,0.0,0.0,1.25,0.0,0.0,-0.11,0.14,0.95,69.59,20.7,6.3,0.5,1.25,1.75,0.0,0.0,0.0,0.0,1.0,0.0,0.5,1.75,0.25,0.25,0.02,0.14,0.95,67.72,-12.9,3.1
2.64,0.0,0.5,0.75,0.5,0.0,0.0,0.5,0.0,0.0,0.25,1.0,0.0,0.0,-0.11,0.14,0.95,58.28,18.1,13.1,0.5,0.75,1.75,0.0,0.0,0.0,0.0,1.0,0.0,0.5,1.5,0.5,0.25,0.02,0.14,0.95,72.88,-12.8,-5.4
2.66,0.0,0.5,1.0,1.25,0.0,0.0,0.75,0.5,0.0,0.0,0.25,0.0,0.0,-0.11,0.14,0.95,52.87,18.7,40.9,0.5,0.5,1.75,0.0,0.0,0.0,0.0,1.0,0.0,0.0,1.0,0.75,0.25,0.02,0.14,0.95,73.91,-15.3,-2.6
2.68,0.0,0.0,1.5,1.25,0.0,0.0,0.5,0.0,0.25,0.25,0.25,0.0,0.0,-0.11,0.14,0.95,55.74,23.7,33.9,0.5,0.75,1.75,0.0,0.0,0.0,0.0,0.25,0.0,0.0,1.0,0.25,0.0,0.02,0.14,0.95,71.86,-22.9,27.0
2.7,0.0,0.0,1.75,1.25,0.0,0.0,0.5,0.0,0.0,1.0,0.5,0.0,0.25,-0.17,0.14,0.95,60.99,16.7,10.1,0.5,0.75,1.5,0.0,0.0,0.0,0.0,0.0,0.0,0.25,1.25,0.25,0.25,0.02,0.14,0.95,72.68,-19.5,10.6
2.72,0.0,0.0,1.75,0.5,0.0,0.0,0.75,0.25,0.5,1.0,0.5,0.0,0.0,-0.17,0.14,0.95,65.67,16.4,1.8,0.5,0.75,1.75,0.0,0.0,0.0,0.0,0.0,0.0,0.0,0.75,0.25,0.25,0.02,0.14,0.95,67.84,-23.7,28.4
2.74,0.0,0.0,1.5,0.5,0.0,0.0,0.75,0.25,0.0,0.0,1.25,0.0,0.0,-0.11,0.14,0.95,66.62,22.8,8.5,0.25,0.5,1.75,0.0,0.0,0.0,0.0,0.0,0.0,0.25,0.75,0.25,0.25,0.02,0.14,0.95,62.84,-21.3,13.5
2.76,0.0,0.0,1.5,0.25,0.0,0.0,0.5,0.0,0.0,0.0,0.0,0.0,0.0,-0.11,0.14,0.95,53.09,34.9,56.6,0.0,0.5,1.75,0.0,0.0,0.0,0.0,0.0,0.0,0.0,0.75,0.25,0.0,0.02,0.14,0.95,55.88,-25.9,23.9
2.78,0.0,0.0,1.25,0.5,0.0,0.0,0.5,0.0,0.5,0.75,1.25,0.0,0.0,-0.11,0.14,0.95,53.74,16.2,-11.4,0.5,0.5,1.75,0.0,0.0,0.0,0.0,0.0,0.0,0.0,0.75,0.25,0.25,0.02,0.14,0.95,54.16,-24.4,23.9
2.8,0.0,0.0,1.5,0.5,0.0,0.0,0.75,0.0,0.5,0.25,1.25,0.0,0.0,-0.11,0.14,0.95,55.93,21.6,1.1,0.5,0.75,1.5,0.0,0.0,0.0,0.0,0.0,0.0,0.0,0.75,0.25,0.25,0.02,0.14,0.95,54.4,-22.8,26.4
2.82,0.0,0.0,0.5,0.75,0.0,0.0,0.5,0.0,0.0,0.0,1.25,0.0,0.0,-0.11,0.08,0.95,52.08,19.6,-2.8,0.25,0.75,1.75,0.0,0.0,0.0,0.0,0.0,0.0,0.25,0.75,0.25,0.0,0.02,0.14,0.95,56.79,-23.0,26.8
2.84,0.0,0.0,1.5,0.5,0.0,0.0,0.5,0.0,0.25,0.5,1.25,0.0,0.0,-0.11,0.08,0.95,57.93,19.7,-1.7,0.5,0.75,1.5,0.0,0.0,0.0,0.0,0.0,0.0,0.0,0.75,0.0,0.0,0.02,0.14,0.95,55.63,-26.5,46.0
2.86,0.0,0.0,1.5,0.5,0.0,0.0,0.5,0.0,0.5,1.0,1.0,0.0,0.0,-0.11,0.08,0.95,63.42,16.0,-7.6,0.5,0.75,1.75,0.0,0.0,0.0,0.0,0.0,0.0,0.0,0.75,0.0,0.0,0.02,0.14,0.95,57.21,-27.3,47.0
2.88,0.0,0.0,0.75,0.5,0.0,0.0,0.75,0.0,0.5,0.0,1.0,0.0,0.0,-0.11,0.08,0.95,60.14,21.4,-1.5,0.5,0.5,1.5,0.0,0.0,0.0,0.0,0.0,0.0,0.0,0.75,0.25,0.0,0.02,0.14,0.95,56.62,-26.2,31.0
2.9,0.0,0.0,0.5,0.25,0.0,0.0,0.25,0.0,0.0,0.0,0.0,0.0,0.0,-0.11,0.08,0.95,43.38,31.3,55.6,0.25,0.25,0.5,0.0,0.0,0.0,0.0,0.0,0.0,0.0,0.75,0.25,0.0,0.02,0.14,0.95,47.73,-20.7,-1.1
2.92,0.0,0.0,0.5,0.25,0.0,0.0,0.25,0.0,0.0,0.0,0.0,0.0,0.0,-0.11,0.08,0.95,28.27,31.3,55.6,0.5,0.5,2.75,0.0,0.0,0.0,0.0,0.0,0.0,0.5,0.75,0.25,0.0,0.02,0.14,0.95,58.21,-25.2,28.2
2.94,0.0,0.0,0.5,0.5,0.0,0.0,0.0,0.0,0.0,0.0,0.0,0.0,0.0,-0.17,0.08,0.95,15.56,27.6,59.4,0.5,0.5,1.75,0.0,0.0,0.0,0.0,0.0,0.25,0.0,0.75,0.25,0.0,0.02,0.14,0.95,60.83,-26.1,28.7
2.96,0.0,0.0,0.5,0.25,0.0,0.0,0.25,0.0,0.0,0.0,0.25,0.0,0.0,-0.17,0.08,0.95,10.7,26.9,27.7,1.5,1.5,1.75,0.75,0.0,0.5,0.0,1.0,0.5,1.5,2.0,0.75,0.5,0.02,0.14,0.95,108.08,-10.3,0.4
2.98,0.0,0.0,1.5,0.25,0.0,0.0,0.0,0.0,0.0,0.0,0.0,0.0,0.0,-0.17,0.08,0.95,15.12,35.2,60.5,0.25,0.75,2.75,0.0,0.5,0.0,0.5,0.0,0.0,0.0,0.5,0.0,0.0,0.02,0.14,0.95,112.62,-26.7,53.1
3.0,0.0,0.0,0.75,0.25,0.0,0.0,0.0,0.0,0.0,0.0,0.0,0.0,0.0,-0.17,0.08,0.95,15.35,32.9,60.2,0.5,0.75,1.75,0.0,0.0,1.0,0.0,0.0,0.5,0.0,0.75,0.75,0.0,0.02,0.14,0.95,119.98,-15.7,18.2
3.02,0.0,0.0,0.25,0.25,0.0,0.0,0.25,0.0,0.0,0.0,0.0,0.0,0.0,-0.17,0.08,0.95,10.68,28.5,53.4,1.5,1.25,2.75,0.5,0.5,0.75,0.5,1.0,0.5,0.75,2.0,0.25,0.5,0.02,0.14,0.95,142.08,-13.2,14.7
3.04,0.0,0.0,0.0,0.25,0.0,0.0,0.0,0.0,0.0,0.0,0.0,0.0,0.0,-0.17,0.08,0.95,4.58,17.2,57.9,0.25,1.0,1.25,0.0,0.0,0.0,0.0,0.0,0.0,0.25,0.5,0.0,0.0,0.02,0.14,0.95,124.21,-21.8,45.0
3.06,0.0,0.0,0.0,0.25,0.0,0.0,0.25,0.0,0.0,0.0,0.0,0.0,0.0,-0.17,0.08,0.95,1.43,21.9,48.3,1.25,1.5,1.5,0.75,0.0,0.5,0.5,1.25,0.5,1.0,2.0,0.75,0.5,0.02,0.14,0.95,144.71,-10.2,0.1
3.08,0.0,0.0,0.0,0.25,0.0,0.0,0.0,0.0,0.0,0.0,0.0,0.0,0.0,-0.17,0.08,0.95,0.0,17.2,57.9,1.5,1.5,2.75,0.75,0.5,0.5,0.0,1.0,0.5,1.5,2.0,0.75,0.5,0.02,0.14,0.95,167.58,-11.8,7.2
3.1,0.0,0.0,0.0,0.25,0.0,0.0,0.0,0.0,0.0,0.0,0.0,0.0,0.0,-0.17,0.08,0.95,0.0,17.2,57.9,1.25,1.5,2.75,0.75,0.25,0.75,0.0,1.0,0.5,1.25,2.0,0.75,0.5,0.02,0.14,0.95,194.37,-11.6,6.6
3.12,0.0,0.0,0.0,0.5,0.0,0.0,0.0,0.0,0.0,0.0,0.0,0.0,0.0,-0.17,0.08,0.95,2.14,17.2,57.9,1.25,1.5,2.75,0.75,0.5,1.25,0.0,1.0,0.5,1.5,2.0,1.0,0.5,0.02,0.14,0.95,210.47,-9.7,5.0
3.14,0.0,0.0,0.75,0.5,0.0,0.0,0.25,0.0,0.0,0.0,0.5,0.0,0.0,-0.17,0.08,0.95,13.11,25.1,23.2,1.25,1.5,2.75,0.75,0.5,0.5,0.0,1.0,0.5,1.0,2.0,0.75,0.5,0.02,0.14,0.95,217.35,-12.5,8.7
3.16,0.0,0.0,1.25,0.5,0.0,0.0,0.25,0.0,0.0,0.0,0.5,0.0,0.0,-0.17,0.08,0.95,24.52,27.9,31.3,1.25,1.5,2.75,1.0,0.5,0.5,0.0,1.0,0.5,1.25,2.0,0.75,0.5,0.02,0.14,0.95,216.2,-12.0,8.1
3.18,0.0,0.0,1.0,0.5,0.0,0.0,0.25,0.0,0.0,0.25,0.75,0.0,0.0,-0.17,0.08,0.95,35.41,21.2,8.5,0.5,0.75,2.75,0.0,0.5,1.25,0.5,1.0,0.5,0.5,2.0,0.0,0.5,0.02,0.14,0.95,199.01,-10.3,7.0
3.2,0.0,0.0,1.25,0.25,0.0,0.0,0.25,0.0,0.0,0.0,0.0,0.0,0.0,-0.17,0.08,0.95,37.94,34.5,58.1,0.25,0.75,0.75,0.0,0.0,0.0,0.0,0.0,0.0,0.0,0.25,0.0,0.0,0.02,0.14,0.95,145.68,-24.7,63.4
3.22,0.0,0.0,0.5,0.25,0.0,0.0,0.0,0.0,0.0,0.0,0.0,0.0,0.0,-0.17,0.08,0.95,32.22,31.1,59.9,0.25,0.75,0.75,0.0,0.0,0.0,0.0,0.0,0.0,0.0,0.25,0.0,0.0,0.02,0.14,0.95,96.75,-24.7,63.4
3.24,0.0,0.0,0.5,0.25,0.0,0.0,0.25,0.0,0.0,0.0,0.5,0.0,0.0,-0.17,0.08,0.95,28.59,24.1,9.6,0.25,0.5,1.25,0.0,0.0,0.0,0.0,0.0,0.0,0.5,0.25,0.0,0.0,0.02,0.14,0.95,51.93,-21.1,34.6
3.26,0.0,0.0,0.75,0.25,0.0,0.0,0.0,0.0,0.0,0.0,0.0,0.0,0.0,-0.17,0.08,0.95,24.17,32.9,60.2,0.25,0.75,1.5,0.0,0.0,0.0,0.0,0.0,0.0,0.0,0.25,0.0,0.0,0.02,0.14,0.95,27.93,-28.5,62.7
3.28,0.0,0.0,0.75,0.5,0.0,0.0,0.0,0.0,0.0,0.0,0.0,0.0,0.0,-0.17,0.08,0.95,23.94,29.7,59.7,0.5,0.75,1.0,0.0,0.0,0.0,0.0,0.0,0.0,0.0,0.5,0.0,0.0,0.02,0.14,0.95,22.35,-25.6,53.9
3.3,0.0,0.0,0.5,0.25,0.0,0.0,0.0,0.0,0.0,0.0,0.0,0.0,0.0,-0.17,0.08,0.95,20.52,31.1,59.9,0.25,0.75,0.5,0.0,0.0,0.0,0.0,0.0,0.0,0.0,0.75,0.0,0.0,0.02,0.14,0.95,11.32,-20.2,33.8
3.32,0.0,0.0,0.75,0.25,0.0,0.0,0.0,0.0,0.0,0.0,0.0,0.0,0.0,-0.17,0.08,0.95,19.62,32.9,60.2,0.25,0.75,0.75,0.0,0.0,0.0,0.0,0.0,0.0,0.0,0.25,0.0,0.0,0.02,0.14,0.95,5.99,-24.7,63.4
3.34,0.0,0.0,0.75,0.25,0.0,0.0,0.0,0.0,0.0,0.0,0.0,0.0,0.0,-0.17,0.08,0.95,17.28,32.9,60.2,0.25,0.75,1.25,0.0,0.0,0.0,0.0,0.0,0.0,0.0,0.25,0.0,0.0,0.02,0.14,0.95,6.61,-27.5,62.9
3.36,0.0,0.0,1.5,0.25,0.0,0.0,0.0,0.0,0.0,0.0,0.0,0.0,0.0,-0.11,0.08,0.95,20.82,35.2,60.5,0.5,0.75,1.5,0.0,0.0,0.0,0.0,0.0,0.0,0.0,0.5,0.0,0.0,0.02,0.14,0.95,15.44,-27.6,55.0
3.38,0.0,0.0,1.5,0.25,0.0,0.0,0.25,0.0,0.0,0.0,0.0,0.0,0.0,-0.17,0.08,0.95,24.75,35.0,58.4,0.0,0.75,1.0,0.0,0.0,0.0,0.0,0.0,0.0,0.0,0.25,0.0,0.0,0.02,0.14,0.95,20.63,-25.3,59.1
3.4,0.0,0.0,1.25,0.25,0.0,0.0,0.25,0.0,0.0,0.0,0.0,0.0,0.0,-0.17,0.08,0.95,28.39,34.5,58.1,0.25,0.75,1.0,0.0,0.0,0.0,0.0,0.0,0.0,0.0,0.25,0.0,0.0,0.02,0.14,0.95,27.29,-26.3,63.1
3.42,0.0,0.0,0.75,0.25,0.0,0.0,0.0,0.0,0.0,0.0,0.0,0.0,0.0,-0.17,0.08,0.95,26.69,32.9,60.2,0.0,0.75,2.0,0.0,0.0,0.0,0.0,0.0,0.0,0.0,0.0,0.0,0.0,0.02,0.14,0.95,37.7,-31.2,71.3
3.44,0.0,0.0,1.0,0.25,0.0,0.0,0.0,0.0,0.0,0.0,0.0,0.0,0.0,-0.17,0.08,0.95,25.93,34.0,60.3,0.0,0.75,1.0,0.0,0.0,0.0,0.0,0.0,0.0,0.0,0.0,0.25,0.0,0.02,0.14,0.95,42.39,-25.0,54.6
3.46,0.0,0.0,1.0,0.25,0.0,0.0,0.0,0.0,0.0,0.0,0.0,0.0,0.0,-0.17,0.08,0.95,24.28,34.0,60.3,0.0,0.75,1.25,0.0,0.0,0.0,0.0,0.0,0.0,0.0,0.25,0.0,0.0,0.02,0.14,0.95,40.99,-26.7,59.3
3.48,0.0,0.0,0.75,0.25,0.0,0.0,0.0,0.0,0.0,0.0,0.0,0.0,0.0,-0.17,0.08,0.95,21.75,32.9,60.2,0.0,0.75,1.25,0.0,0.0,0.0,0.0,0.0,0.0,0.0,0.0,0.0,0.0,0.02,0.14,0.95,38.41,-28.6,75.2
3.5,0.0,0.0,2.25,0.5,0.0,0.0,0.25,0.0,0.0,0.0,0.5,0.0,0.0,-0.17,0.08,0.95,34.45,31.0,40.1,0.25,0.75,1.0,0.0,0.0,0.0,0.0,0.0,0.0,0.0,0.25,0.0,0.0,0.02,0.14,0.95,38.59,-26.3,63.1
3.52,0.0,0.0,2.25,0.5,0.0,0.0,0.5,0.0,0.0,0.0,0.0,0.0,0.0,-0.17,0.08,0.95,44.44,34.2,57.8,0.0,0.5,0.5,0.0,0.0,0.0,0.0,0.0,0.0,0.0,0.25,0.25,0.0,0.02,0.14,0.95,33.22,-20.4,24.2
3.54,0.0,0.0,1.25,0.5,0.0,0.0,0.0,0.0,0.0,0.0,0.0,0.0,0.0,-0.17,0.08,0.95,46.44,32.1,60.1,0.25,0.75,0.75,0.0,0.0,0.0,0.0,0.0,0.0,0.25,0.0,0.0,0.0,0.02,0.14,0.95,33.25,-21.4,62.8
3.56,0.0,0.0,2.25,0.5,0.0,0.0,0.25,0.0,0.0,0.0,0.5,0.0,0.0,-0.17,0.08,0.95,52.0,31.0,40.1,0.0,0.75,0.75,0.0,0.0,0.5,0.0,0.0,0.0,0.0,0.0,0.0,0.0,0.02,0.14,0.95,32.21,-14.1,69.2
3.58,0.0,0.0,2.25,0.5,0.0,0.0,0.5,0.0,0.0,0.0,0.5,0.0,0.0,-0.17,0.08,0.95,56.54,31.0,39.7,0.25,0.75,0.5,0.0,0.0,0.0,0.0,0.0,0.0,0.0,0.75,0.0,0.0,0.02,0.14,0.95,33.45,-20.2,33.8
3.6,0.0,0.0,1.5,0.25,0.0,0.0,0.5,0.0,0.0,0.25,0.0,0.0,0.0,-0.17,0.08,0.95,53.7,29.3,42.2,0.0,0.75,1.0,0.0,0.0,0.0,0.0,0.0,0.0,0.0,0.0,0.0,0.0,0.02,0.14,0.95,32.83,-27.2,77.2
3.62,0.0,0.0,1.5,0.5,0.0,0.0,0.5,0.0,0.0,0.0,0.5,0.0,0.0,-0.17,0.14,0.95,52.9,29.0,33.8,0.25,0.5,0.5,0.0,0.0,0.5,0.0,0.0,0.0,0.0,0.25,0.25,0.0,0.02,0.14,0.95,35.2,-12.7,34.0
3.64,0.0,0.0,2.25,0.5,0.0,0.0,0.5,0.0,0.0,0.0,0.5,0.0,0.0,-0.17,0.08,0.95,56.67,31.0,39.7,0.0,0.75,0.5,0.0,0.0,0.0,0.0,0.0,0.0,0.0,0.5,0.0,0.0,0.02,0.14,0.95,32.73,-19.5,40.2
3.66,0.0,0.0,2.25,0.5,0.0,0.0,0.5,0.0,0.25,0.0,0.0,0.0,0.0,-0.17,0.08,0.95,58.96,32.6,50.7,0.0,0.75,0.75,0.0,0.0,0.0,0.0,0.0,0.0,0.0,0.0,0.0,0.0,0.02,0.14,0.95,30.42,-25.4,79.9
3.68,0.0,0.0,2.25,0.5,0.0,0.0,0.5,0.0,0.0,0.0,0.25,0.0,0.0,-0.17,0.14,0.95,60.23,32.5,48.1,0.25,0.75,0.75,0.0,0.0,0.0,0.0,0.0,0.0,0.0,0.0,0.0,0.0,0.02,0.14,0.95,30.35,-26.6,82.3
3.7,0.0,0.0,1.5,0.5,0.0,0.0,0.25,0.0,0.0,0.0,0.0,0.0,0.0,-0.17,0.08,0.95,54.63,32.9,58.4,0.25,0.75,1.0,0.0,0.0,0.0,0.0,0.0,0.0,0.0,0.25,0.0,0.0,0.02,0.14,0.95,33.09,-26.3,63.1
3.72,0.0,0.0,2.25,0.5,0.0,0.0,0.5,0.0,0.0,0.0,0.5,0.0,0.0,-0.17,0.08,0.95,55.29,31.0,39.7,0.25,0.75,0.5,0.0,0.0,0.0,0.0,0.0,0.0,0.0,0.5,0.0,0.0,0.02,0.14,0.95,34.39,-21.3,46.9
3.74,0.0,0.0,2.25,0.5,0.0,0.0,0.5,0.0,0.0,0.0,0.75,0.0,0.0,-0.17,0.08,0.95,55.6,29.7,32.4,0.0,0.75,0.75,0.0,0.0,0.0,0.0,0.0,0.0,0.0,0.5,0.0,0.0,0.02,0.14,0.95,35.54,-21.9,42.9
3.76,0.0,0.0,2.25,0.5,0.0,0.0,0.5,0.0,0.0,0.0,0.5,0.0,0.0,-0.17,0.08,0.95,59.85,31.0,39.7,0.25,0.75,1.25,0.0,0.0,0.0,0.0,0.0,0.0,0.5,0.25,0.75,0.0,0.02,0.14,0.95,44.98,-18.1,10.5
3.78,0.0,0.0,2.25,0.5,0.0,0.0,0.25,0.0,0.0,0.0,0.75,0.0,0.0,-0.17,0.08,0.95,62.44,29.6,32.5,1.25,1.5,2.75,0.75,0.25,1.0,0.25,1.0,0.5,1.5,2.0,1.25,0.25,0.02,0.14,0.95,106.49,-11.1,3.8
3.8,0.0,0.0,1.25,0.25,0.0,0.0,0.25,0.0,0.0,0.0,0.0,0.0,0.0,-0.17,0.14,0.95,51.67,34.5,58.1,1.5,1.75,2.75,0.75,0.25,1.0,0.0,1.0,0.5,1.0,2.0,0.75,0.5,0.02,0.14,0.95,158.8,-12.0,11.9
3.82,0.0,0.0,1.0,0.25,0.0,0.0,0.25,0.0,0.0,0.0,0.0,0.0,0.0,-0.17,0.08,0.95,40.21,33.8,57.5,1.0,1.75,2.75,0.5,0.5,1.0,0.0,1.0,0.5,1.5,2.0,0.75,0.5,0.02,0.14,0.95,200.91,-9.8,5.8
3.84,0.0,0.0,1.25,0.25,0.0,0.0,0.25,0.0,0.0,0.0,0.0,0.0,0.0,-0.17,0.14,0.95,31.03,34.5,58.1,1.25,1.75,2.75,1.0,0.5,0.5,0.0,1.0,0.5,1.25,2.0,1.0,0.25,0.02,0.14,0.95,221.04,-12.5,9.9
3.86,0.0,0.0,1.25,0.25,0.0,0.0,0.25,0.0,0.0,0.0,0.0,0.0,0.0,-0.17,0.08,0.95,25.73,34.5,58.1,1.25,1.5,2.75,1.0,0.5,1.0,0.0,1.0,0.5,1.5,2.0,0.75,0.25,0.02,0.14,0.95,230.82,-10.8,9.7
3.88,0.0,0.0,1.25,0.25,0.0,0.0,0.25,0.0,0.0,0.0,0.0,0.0,0.0,-0.17,0.08,0.95,23.43,34.5,58.1,1.25,1.5,2.75,1.0,0.25,1.0,0.0,1.0,0.5,1.5,2.0,1.0,0.25,0.02,0.14,0.95,231.48,-11.1,6.6
3.9,0.0,0.0,1.5,0.25,0.0,0.0,0.25,0.0,0.0,0.0,0.0,0.0,0.0,-0.17,0.08,0.95,25.56,35.0,58.4,1.5,1.75,2.25,1.25,0.5,1.0,0.0,1.0,0.25,1.0,2.0,0.75,0.5,0.02,0.14,0.95,231.55,-10.9,13.5
3.92,0.0,0.0,1.25,0.25,0.0,0.0,0.25,0.0,0.0,0.0,0.0,0.0,0.0,-0.17,0.14,0.95,25.83,34.5,58.1,1.25,1.75,2.75,0.75,0.5,1.0,0.0,1.0,0.5,0.75,1.75,0.5,0.5,0.02,0.14,0.95,227.93,-11.8,16.8
3.94,0.0,0.0,1.25,0.25,0.0,0.0,0.25,0.0,0.0,0.0,0.0,0.0,0.0,-0.17,0.08,0.95,25.67,34.5,58.1,1.25,1.5,2.75,1.0,0.5,0.75,0.0,1.0,0.5,1.25,2.0,1.0,0.25,0.02,0.14,0.95,224.35,-11.9,8.6
3.96,0.0,0.0,0.75,0.25,0.0,0.0,0.25,0.0,0.0,0.0,0.0,0.0,0.0,-0.17,0.08,0.95,21.08,32.8,56.8,1.5,1.5,2.75,1.0,0.5,0.75,0.0,1.0,0.5,1.5,2.0,0.75,0.25,0.02,0.14,0.95,220.98,-11.8,10.7
3.98,0.0,0.0,1.0,0.25,0.0,0.0,0.25,0.0,0.0,0.0,0.0,0.0,0.0,-0.17,0.08,0.95,20.37,33.8,57.5,1.25,1.5,2.75,1.25,0.5,1.25,0.0,1.0,0.25,1.5,2.0,0.75,0.25,0.02,0.14,0.95,218.24,-10.4,11.8
4.0,0.0,0.0,0.75,0.5,0.0,0.0,0.25,0.0,0.0,0.0,0.75,0.0,0.0,-0.17,0.08,0.95,23.85,23.4,12.0,1.0,1.75,2.75,1.0,0.5,1.25,0.0,1.0,0.5,0.75,2.0,0.75,0.5,0.02,0.14,0.95,211.49,-10.9,12.7
4.02,0.0,0.0,1.75,0.5,0.0,0.0,0.5,0.0,0.0,0.0,0.5,0.0,0.0,-0.17,0.14,0.95,34.52,29.8,36.1,1.25,1.5,2.75,1.0,0.5,0.75,0.0,1.0,0.5,1.5,1.75,1.0,0.25,0.02,0.14,0.95,203.81,-11.4,8.6
4.04,0.0,0.0,1.75,0.5,0.0,0.0,0.5,0.0,0.0,0.0,0.75,0.0,0.0,-0.17,0.08,0.95,45.95,28.4,27.9,1.25,1.5,2.75,1.25,0.5,1.0,0.0,1.0,0.5,0.5,2.0,0.75,0.25,0.02,0.14,0.95,201.14,-13.0,17.0
4.06,0.0,0.0,1.75,0.5,0.0,0.0,0.5,0.0,0.0,0.0,0.75,0.0,0.0,-0.17,0.14,0.95,53.63,28.4,27.9,1.25,1.5,2.5,1.0,0.25,1.25,0.0,1.0,0.25,1.5,2.0,0.75,0.25,0.02,0.14,0.95,198.83,-10.0,9.1
4.08,0.0,0.0,2.0,0.5,0.0,0.0,0.5,0.0,0.0,0.0,1.0,0.0,0.0,-0.17,0.08,0.95,60.09,27.9,23.5,0.75,1.5,2.5,1.0,0.25,1.0,0.0,1.0,0.5,1.75,2.0,1.0,0.5,0.02,0.14,0.95,197.37,-8.8,-1.0
4.1,0.0,0.0,1.75,0.5,0.0,0.0,0.5,0.0,0.0,0.0,0.75,0.0,0.0,-0.17,0.08,0.95,61.54,28.4,27.9,1.0,1.75,2.75,1.25,0.25,1.25,0.0,1.0,0.5,1.5,2.0,0.75,0.25,0.02,0.14,0.95,200.33,-10.3,10.2
4.12,0.0,0.0,1.75,0.5,0.0,0.0,0.5,0.0,0.0,0.0,0.75,0.0,0.0,-0.17,0.14,0.95,61.72,28.4,27.9,0.75,1.75,2.75,1.25,0.5,1.25,0.25,1.0,0.5,1.5,1.75,1.0,0.25,0.02,0.14,0.95,204.2,-9.8,9.2
4.14,0.0,0.0,1.75,0.5,0.0,0.0,0.5,0.0,0.0,0.0,0.75,0.0,0.0,-0.17,0.14,0.95,60.72,28.4,27.9,1.0,1.75,2.75,1.25,0.5,1.0,0.0,1.0,0.5,1.0,2.0,0.75,0.25,0.02,0.14,0.95,205.47,-11.5,13.8
4.16,0.0,0.0,1.75,0.5,0.0,0.0,0.5,0.0,0.0,0.0,0.75,0.0,0.0,-0.17,0.08,0.95,60.44,28.4,27.9,1.0,1.75,2.75,0.75,0.5,1.25,0.0,1.0,0.5,1.5,2.0,0.75,0.25,0.02,0.14,0.95,205.89,-9.8,9.3
4.18,0.0,0.0,1.75,0.5,0.0,0.0,0.25,0.0,0.0,0.0,0.75,0.0,0.0,-0.17,0.08,0.95,58.85,28.2,27.9,1.0,1.5,2.75,1.0,0.5,1.25,0.0,1.0,0.5,1.5,2.0,1.0,0.5,0.02,0.14,0.95,206.54,-9.4,4.5
4.2,0.0,0.0,1.75,0.5,0.0,0.0,0.5,0.0,0.0,0.25,0.75,0.0,0.0,-0.11,0.08,0.95,59.43,25.3,20.6,1.25,1.75,2.5,0.75,1.0,1.25,0.0,1.0,0.5,1.5,2.0,1.0,0.5,0.02,0.14,0.95,210.37,-8.8,7.5
4.22,0.0,0.0,1.5,0.5,0.0,0.0,0.25,0.0,0.0,0.0,0.0,0.0,0.0,-0.17,0.08,0.95,52.31,32.9,58.4,1.25,1.75,3.0,0.75,1.0,1.25,0.0,1.0,0.5,1.5,2.0,1.0,0.5,0.02,0.14,0.95,216.65,-9.7,9.3
4.24,0.0,0.0,1.5,0.5,0.0,0.0,0.25,0.0,0.0,0.0,0.0,0.0,0.0,-0.17,0.08,0.95,45.58,32.9,58.4,0.5,1.5,2.75,1.25,0.5,1.25,0.25,1.0,0.5,1.5,2.0,1.0,0.25,0.02,0.14,0.95,216.03,-9.4,4.7
4.26,0.0,0.0,1.75,0.5,0.0,0.0,0.5,0.0,0.0,0.0,0.75,0.0,0.0,-0.17,0.14,0.95,44.81,28.4,27.9,0.75,1.75,1.75,1.25,0.5,1.25,0.0,1.25,0.5,1.5,2.0,1.0,0.25,0.02,0.14,0.95,211.69,-7.0,2.8
4.28,0.0,0.0,1.5,0.5,0.0,0.0,0.5,0.0,0.0,0.0,0.75,0.0,0.0,-0.17,0.08,0.95,45.73,27.6,25.1,1.25,1.75,2.75,1.0,0.25,1.25,0.25,1.25,0.5,1.5,1.5,1.0,0.25,0.02,0.14,0.95,209.09,-10.3,10.9
4.3,0.0,0.0,1.5,1.0,0.0,0.0,0.5,0.0,0.0,0.0,0.75,0.0,0.0,-0.11,0.08,0.95,50.71,26.0,29.9,0.75,1.5,2.75,1.25,0.5,1.25,0.0,1.5,0.5,1.5,1.75,1.0,0.25,0.02,0.14,0.95,208.2,-8.7,5.8
4.32,0.0,0.0,0.75,0.5,0.0,0.0,0.25,0.0,0.0,0.0,0.5,0.0,0.0,-0.17,0.08,0.95,45.09,25.1,23.2,0.5,1.75,2.75,0.75,0.5,1.25,0.0,1.0,0.5,1.5,2.25,1.0,0.5,0.02,0.14,0.95,207.07,-8.5,0.8
4.34,0.0,0.0,1.0,0.5,0.0,0.0,0.5,0.0,0.0,0.0,0.75,0.0,0.0,-0.17,0.08,0.95,43.3,25.4,17.8,0.5,1.75,2.75,0.75,0.5,1.25,0.0,1.0,0.5,1.5,1.5,0.75,0.25,0.02,0.14,0.95,201.83,-8.9,9.3
4.36,0.0,0.0,1.0,0.5,0.0,0.0,0.5,0.0,0.0,0.0,0.75,0.0,0.0,-0.17,0.08,0.95,39.17,25.4,17.8,0.5,1.75,2.75,0.75,0.5,1.25,0.25,1.0,0.5,1.5,1.5,1.0,0.5,0.02,0.14,0.95,199.26,-8.6,5.1
4.38,0.0,0.0,1.0,0.5,0.0,0.0,0.5,0.0,0.0,0.0,0.75,0.0,0.0,-0.17,0.08,0.95,38.94,25.4,17.8,1.0,1.5,2.75,1.25,0.5,1.25,0.25,1.0,0.5,1.5,2.0,1.0,0.25,0.02,0.14,0.95,201.11,-10.2,7.6
4.4,0.0,0.0,1.25,0.5,0.0,0.0,0.5,0.0,0.0,0.0,1.0,0.0,0.0,-0.17,0.08,0.95,41.51,25.3,14.0,1.25,1.5,2.75,1.25,0.5,1.25,0.25,1.0,0.5,1.5,2.0,0.75,0.25,0.02,0.14,0.95,204.76,-10.6,11.1
4.42,0.0,0.0,1.25,0.5,0.0,0.0,0.5,0.0,0.0,0.0,0.75,0.0,0.0,-0.17,0.08,0.95,43.9,26.6,21.8,1.25,1.75,2.75,1.25,0.5,1.0,0.25,1.0,0.5,1.5,1.75,1.0,0.5,0.02,0.14,0.95,209.62,-10.7,9.5
4.44,0.0,0.0,1.25,0.5,0.0,0.0,0.25,0.0,0.0,0.0,0.75,0.0,0.0,-0.17,0.08,0.95,44.71,26.3,21.5,0.5,1.5,2.75,1.0,0.5,1.25,0.0,1.0,0.5,1.5,2.0,1.0,0.25,0.02,0.14,0.95,207.73,-9.0,3.5
4.46,0.0,0.0,1.0,0.25,0.0,0.0,0.25,0.0,0.0,0.0,0.75,0.0,0.0,-0.17,0.14,0.95,41.62,26.0,12.3,1.5,1.5,2.75,0.75,0.5,1.25,0.0,1.0,0.5,1.5,2.0,1.0,0.25,0.02,0.14,0.95,208.51,-10.5,8.6
4.48,0.0,0.0,0.75,0.5,0.0,0.0,0.5,0.0,0.0,0.0,0.5,0.0,0.0,-0.17,0.14,0.95,37.41,25.5,23.4,0.75,1.75,2.75,1.25,0.5,2.0,0.0,1.0,0.5,1.25,2.0,1.0,0.5,0.02,0.14,0.95,212.01,-8.1,8.2
4.5,0.0,0.0,1.0,0.5,0.0,0.0,0.25,0.0,0.0,0.0,0.75,0.0,0.0,-0.17,0.08,0.95,35.3,25.0,17.3,0.75,1.5,2.75,1.0,0.25,1.25,0.0,1.0,0.5,1.25,2.0,0.75,0.25,0.02,0.14,0.95,207.42,-10.2,7.6
4.52,0.0,0.0,1.25,0.5,0.0,0.0,0.25,0.0,0.0,0.0,1.0,0.0,0.0,-0.17,0.14,0.95,38.66,25.0,13.4,0.5,1.5,2.75,1.25,0.25,1.0,0.25,1.0,0.5,0.75,1.75,1.0,0.25,0.02,0.14,0.95,199.85,-11.7,9.3
4.54,0.0,0.0,1.25,0.5,0.0,0.0,0.5,0.0,0.0,0.0,0.75,0.0,0.0,-0.17,0.08,0.95,42.02,26.6,21.8,0.75,1.5,2.75,1.0,0.5,1.25,0.0,1.0,0.25,1.0,2.0,0.5,0.25,0.02,0.14,0.95,193.33,-10.4,13.5
4.56,0.0,0.0,1.25,0.5,0.0,0.0,0.25,0.0,0.0,0.0,1.0,0.0,0.0,-0.17,0.08,0.95,46.13,25.0,13.4,0.5,1.75,2.75,1.25,0.5,1.25,0.25,1.0,0.5,1.5,2.0,0.75,0.25,0.02,0.14,0.95,195.03,-9.4,8.4
4.58,0.0,0.0,1.5,0.5,0.0,0.0,0.25,0.0,0.0,0.0,0.75,0.0,0.0,-0.17,0.08,0.95,47.39,27.4,25.0,0.75,1.75,2.75,1.0,0.5,1.25,0.0,1.0,0.5,1.25,2.0,1.0,0.5,0.02,0.14,0.95,198.27,-9.5,6.1
4.6,0.0,0.0,1.5,0.5,0.0,0.0,0.5,0.0,0.0,0.0,1.0,0.0,0.0,-0.17,0.08,0.95,50.18,26.3,17.7,1.0,1.75,2.75,1.0,0.5,1.25,0.25,1.0,0.5,1.5,2.0,1.0,0.25,0.02,0.14,0.95,204.14,-10.1,8.3
4.62,0.0,0.0,1.25,0.5,0.0,0.0,0.5,0.0,0.0,0.0,0.75,0.0,0.0,-0.17,0.08,0.95,49.61,26.6,21.8,0.5,1.5,2.75,1.0,0.5,1.0,0.0,1.0,0.5,1.5,2.0,1.0,0.25,0.02,0.14,0.95,202.68,-9.6,2.9
4.64,0.0,0.0,0.75,0.5,0.0,0.0,0.25,0.0,0.0,0.0,0.75,0.0,0.0,-0.17,0.08,0.95,45.28,23.4,12.0,0.75,1.5,2.75,1.0,0.5,1.25,0.0,1.0,0.5,1.75,2.0,0.75,0.25,0.02,0.14,0.95,202.86,-9.0,5.6
4.66,0.0,0.0,1.0,0.5,0.0,0.0,0.5,0.0,0.0,0.0,1.0,0.0,0.0,-0.17,0.08,0.95,44.29,24.1,9.6,1.0,1.75,2.75,0.75,0.25,1.25,0.0,1.0,0.25,1.75,1.75,1.0,0.5,0.02,0.14,0.95,201.46,-9.1,4.9
4.68,0.0,0.0,0.75,0.5,0.0,0.0,0.5,0.0,0.0,0.0,0.75,0.0,0.0,-0.17,0.08,0.95,41.02,23.9,12.9,0.5,1.75,2.75,1.0,0.25,1.0,0.0,1.0,0.5,1.0,1.75,1.0,0.25,0.02,0.14,0.95,197.35,-10.9,8.3
4.7,0.0,0.0,1.0,0.5,0.0,0.0,0.25,0.0,0.0,0.0,0.75,0.0,0.0,-0.17,0.08,0.95,40.24,25.0,17.3,0.5,1.5,2.75,0.75,0.25,1.25,0.0,1.0,0.5,1.5,2.0,1.0,0.25,0.02,0.14,0.95,193.82,-9.1,1.3
4.72,0.0,0.0,0.75,0.5,0.0,0.0,0.25,0.0,0.0,0.0,0.75,0.0,0.0,-0.17,0.14,0.95,37.31,23.4,12.0,1.0,1.5,2.25,1.25,0.5,1.25,0.0,1.0,0.5,1.5,2.0,1.0,0.25,0.02,0.14,0.95,195.54,-8.9,5.5
4.74,0.0,0.0,0.75,0.5,0.0,0.0,0.25,0.0,0.0,0.0,0.75,0.0,0.0,-0.17,0.14,0.95,35.42,23.4,12.0,0.5,1.75,3.25,1.0,0.25,1.25,0.25,1.0,0.5,1.5,2.0,1.0,0.25,0.02,0.14,0.95,201.07,-10.6,6.4
4.76,0.0,0.0,0.5,0.5,0.0,0.0,0.5,0.0,0.0,0.0,0.75,0.0,0.0,-0.17,0.08,0.95,32.41,22.1,6.7,0.5,1.75,2.75,1.25,1.0,1.25,0.0,1.0,0.25,1.5,2.0,1.0,0.25,0.02,0.14,0.95,206.28,-8.7,8.8
4.78,0.0,0.0,0.25,1.25,0.0,0.0,0.25,0.0,0.0,0.0,1.0,0.0,0.0,-0.17,0.14,0.95,34.74,17.5,8.1,0.5,1.75,2.75,1.0,0.5,1.25,0.0,1.0,0.5,1.5,1.75,1.0,0.25,0.02,0.14,0.95,206.22,-9.0,6.6
4.8,0.0,0.0,0.5,0.5,0.0,0.0,0.25,0.0,0.0,0.0,1.25,0.0,0.0,-0.17,0.08,0.95,35.15,19.2,-11.1,0.75,1.75,2.75,1.0,0.5,1.25,0.0,1.0,0.5,1.5,2.0,1.0,0.25,0.02,0.14,0.95,206.53,-9.5,6.7
4.82,0.0,0.0,0.5,0.5,0.0,0.0,0.25,0.0,0.0,0.0,0.75,0.0,0.0,-0.17,0.08,0.95,33.82,21.4,5.4,0.75,1.75,2.25,1.0,0.5,1.25,0.0,1.0,0.5,1.5,2.0,0.75,0.25,0.02,0.14,0.95,202.92,-8.4,6.8
4.84,0.0,0.0,1.5,0.5,0.0,0.0,0.25,0.0,0.0,0.0,1.0,0.0,0.0,-0.17,0.08,0.95,39.07,26.1,17.3,1.0,1.75,1.5,1.0,0.5,1.25,0.0,1.0,0.25,1.5,2.0,1.0,0.25,0.02,0.14,0.95,198.11,-7.1,3.9
4.86,0.0,0.0,1.5,0.5,0.0,0.0,0.25,0.0,0.0,0.0,0.75,0.0,0.0,-0.11,0.08,0.95,43.47,27.4,25.0,0.5,1.75,2.75,1.0,0.5,1.25,0.0,1.0,0.5,1.5,2.0,1.0,0.25,0.02,0.14,0.95,198.62,-9.1,5.2
4.88,0.0,0.0,1.25,0.5,0.0,0.0,0.25,0.0,0.0,0.0,0.75,0.0,0.0,-0.17,0.08,0.95,46.2,26.3,21.5,0.75,1.75,2.75,1.25,0.25,1.25,0.25,1.0,0.5,1.5,1.75,1.25,0.5,0.02,0.14,0.95,202.17,-9.6,4.2
4.9,0.0,0.0,1.0,0.5,0.0,0.0,0.25,0.0,0.0,0.0,0.75,0.0,0.0,-0.17,0.08,0.95,44.72,25.0,17.3,0.75,1.75,2.5,1.0,0.5,1.25,0.0,1.0,0.5,1.5,2.0,1.0,0.25,0.02,0.14,0.95,204.35,-9.0,5.7
4.92,0.0,0.0,0.75,0.5,0.0,0.0,0.25,0.0,0.0,0.0,0.75,0.0,0.0,-0.17,0.14,0.95,42.06,23.4,12.0,1.0,1.75,2.5,1.25,1.25,1.25,0.0,1.0,0.5,1.5,2.0,1.0,0.5,0.02,0.14,0.95,212.89,-8.4,8.7
4.94,0.0,0.0,0.75,1.0,0.0,0.0,0.25,0.0,0.0,0.0,0.75,0.0,0.0,-0.17,0.08,0.95,41.46,22.2,21.0,0.5,1.75,1.75,1.0,1.0,1.25,0.0,1.0,0.25,1.25,1.75,1.0,0.25,0.02,0.14,0.95,206.54,-6.6,6.8
4.96,0.0,0.0,0.25,0.5,0.0,0.0,0.25,0.0,0.0,0.0,0.75,0.0,0.0,-0.17,0.08,0.95,35.98,18.8,-3.3,0.5,1.75,2.75,0.75,0.5,1.25,0.0,1.0,0.5,1.0,2.0,1.0,0.25,0.02,0.14,0.95,201.93,-9.8,7.2
4.98,0.0,0.0,0.75,0.5,0.0,0.0,0.25,0.0,0.0,0.0,0.75,0.0,0.0,-0.17,0.08,0.95,34.99,23.4,12.0,0.5,1.75,2.75,0.75,0.5,1.25,0.0,1.0,0.5,1.5,1.75,0.75,0.25,0.02,0.14,0.95,195.75,-8.9,7.8
5.0,0.0,0.0,0.5,0.5,0.0,0.0,0.25,0.0,0.0,0.0,0.75,0.0,0.0,-0.17,0.08,0.95,31.59,21.4,5.4,0.5,1.5,2.5,0.75,0.5,1.25,0.0,1.0,0.5,1.25,2.0,1.0,0.5,0.02,0.14,0.95,193.48,-8.3,0.6
5.02,0.0,0.0,0.75,0.5,0.0,0.0,0.25,0.0,0.0,0.0,1.0,0.0,0.0,-0.17,0.08,0.95,32.89,22.1,3.2,0.75,1.75,2.75,1.0,0.5,1.25,0.0,1.0,0.5,1.5,2.0,1.0,0.25,0.02,0.14,0.95,196.72,-9.5,6.7
5.04,0.0,0.0,0.75,0.5,0.0,0.0,0.25,0.0,0.0,0.0,1.0,0.0,0.0,-0.17,0.08,0.95,34.1,22.1,3.2,0.5,1.5,2.0,1.25,0.0,1.25,0.0,1.0,0.5,1.5,1.75,0.75,0.25,0.02,0.14,0.95,191.51,-7.9,2.5
5.06,0.0,0.0,0.75,0.5,0.0,0.0,0.25,0.0,0.0,0.0,0.75,0.0,0.0,-0.17,0.08,0.95,34.97,23.4,12.0,1.0,1.75,2.75,1.25,0.25,1.25,0.0,1.0,0.5,1.5,2.0,1.0,0.25,0.02,0.14,0.95,197.59,-10.3,8.2
5.08,0.0,0.0,0.75,0.5,0.0,0.0,0.25,0.0,0.0,0.0,0.75,0.0,0.0,-0.17,0.14,0.95,34.01,23.4,12.0,0.5,1.5,2.75,1.0,0.5,1.25,0.0,1.0,0.5,1.5,2.0,1.0,0.25,0.02,0.14,0.95,196.97,-9.0,3.5
5.1,0.0,0.0,0.75,1.25,0.0,0.0,0.25,0.0,0.0,0.0,0.75,0.0,0.0,-0.17,0.14,0.95,38.88,21.7,24.3,0.5,1.75,2.0,1.25,1.25,1.25,0.0,1.0,0.5,1.5,2.0,1.0,0.5,0.02,0.14,0.95,202.77,-6.5,4.1
5.12,0.0,0.0,0.25,0.5,0.0,0.0,0.25,0.0,0.0,0.0,0.75,0.0,0.0,-0.17,0.14,0.95,35.69,18.8,-3.3,0.5,1.75,2.75,1.25,1.25,1.25,0.0,1.0,0.5,1.5,2.0,0.75,0.5,0.02,0.14,0.95,208.59,-8.1,8.8
5.14,0.0,0.0,0.5,0.5,0.0,0.0,0.25,0.0,0.0,0.0,0.75,0.0,0.0,-0.11,0.08,0.95,34.26,21.4,5.4,0.5,1.75,2.75,1.25,0.5,1.25,0.25,1.0,0.5,1.5,2.0,0.75,0.25,0.02,0.14,0.95,211.35,-9.4,8.4
5.16,0.0,0.0,0.5,0.5,0.0,0.0,0.25,0.0,0.0,0.0,1.0,0.0,0.0,-0.17,0.14,0.95,32.52,20.2,-3.7,0.75,1.75,2.75,1.0,0.25,1.25,0.0,1.0,0.5,1.25,2.0,1.0,0.25,0.02,0.14,0.95,208.82,-10.2,7.2
5.18,0.0,0.0,0.5,0.5,0.0,0.0,0.25,0.0,0.0,0.0,0.75,0.0,0.0,-0.17,0.08,0.95,31.4,21.4,5.4,0.5,1.75,2.25,0.75,0.25,1.25,0.0,1.0,0.5,1.5,2.0,1.0,0.25,0.02,0.14,0.95,202.9,-8.0,0.9
5.2,0.0,0.0,0.5,0.5,0.0,0.0,0.5,0.0,0.0,0.0,0.75,0.0,0.0,-0.17,0.14,0.95,31.56,22.1,6.7,0.75,1.5,2.5,0.75,0.5,1.25,0.25,1.0,0.5,1.5,1.75,1.0,0.25,0.02,0.14,0.95,198.15,-8.9,4.6
5.22,0.0,0.0,0.75,0.5,0.0,0.0,0.25,0.0,0.0,0.0,1.0,0.0,0.0,-0.17,0.08,0.95,33.52,22.1,3.2,0.75,1.75,2.25,0.75,1.0,1.0,0.0,1.0,0.5,1.5,1.75,1.0,0.25,0.02,0.14,0.95,195.8,-8.3,6.7
5.24,0.0,0.0,0.75,0.5,0.0,0.0,0.25,0.0,0.0,0.0,0.75,0.0,0.0,-0.17,0.08,0.95,34.56,23.4,12.0,0.75,1.75,2.75,1.25,0.5,1.25,0.0,1.0,0.5,1.5,2.0,1.0,0.25,0.02,0.14,0.95,200.58,-9.6,7.6
5.26,0.0,0.0,0.75,0.75,0.0,0.0,0.25,0.0,0.0,0.0,0.5,0.0,0.0,-0.17,0.14,0.95,35.08,24.1,27.4,1.25,1.75,2.25,0.5,0.5,1.25,0.0,1.0,0.5,1.5,2.0,0.75,0.25,0.02,0.14,0.95,200.22,-9.0,8.0
5.28,0.0,0.0,1.0,0.5,0.0,0.0,0.25,0.0,0.0,0.0,1.0,0.0,0.0,-0.17,0.14,0.95,38.0,23.7,8.8,0.5,1.75,2.75,1.25,0.25,1.25,0.0,1.0,0.5,1.5,2.0,1.0,0.5,0.02,0.14,0.95,203.51,-9.1,3.1
5.3,0.0,0.0,0.75,0.5,0.0,0.0,0.25,0.0,0.0,0.0,0.75,0.0,0.0,-0.11,0.08,0.95,37.95,23.4,12.0,0.5,1.5,1.75,1.0,0.25,1.25,0.0,1.0,0.5,1.5,2.0,1.0,0.25,0.02,0.14,0.95,194.3,-6.9,-2.3
5.32,0.0,0.0,0.75,0.5,0.0,0.0,0.25,0.0,0.0,0.0,0.75,0.0,0.0,-0.17,0.08,0.95,37.35,23.4,12.0,0.5,1.75,2.0,1.25,1.25,1.25,0.0,1.0,0.5,1.5,2.0,1.0,0.25,0.02,0.14,0.95,197.55,-6.9,6.1
5.34,0.0,0.0,1.0,0.5,0.0,0.0,0.25,0.0,0.0,0.0,0.5,0.0,0.0,-0.17,0.14,0.95,36.59,26.6,27.7,0.5,1.75,2.75,1.0,0.5,0.75,0.0,1.0,0.5,1.5,1.75,1.0,0.25,0.02,0.14,0.95,194.36,-10.2,5.7
5.36,0.0,0.0,0.75,0.5,0.0,0.0,0.25,0.0,0.0,0.0,0.5,0.0,0.0,-0.17,0.08,0.95,35.78,25.1,23.2,0.5,1.75,2.5,0.75,0.5,1.25,0.5,0.75,0.5,1.5,1.5,1.0,0.25,0.02,0.14,0.95,194.4,-9.2,7.3
5.38,0.0,0.0,0.75,0.5,0.0,0.0,0.25,0.0,0.0,0.0,0.75,0.0,0.0,-0.17,0.08,0.95,34.77,23.4,12.0,0.5,1.75,2.75,0.75,0.0,1.25,0.0,1.0,0.5,1.5,2.0,1.0,0.25,0.02,0.14,0.95,192.93,-9.5,2.1
5.4,0.0,0.0,0.75,0.5,0.0,0.0,0.25,0.0,0.0,0.0,1.0,0.0,0.0,-0.17,0.08,0.95,35.63,22.1,3.2,0.75,1.5,2.0,1.0,1.25,1.25,0.0,1.0,0.5,1.5,1.75,1.0,0.25,0.02,0.14,0.95,195.82,-7.0,6.3
5.42,0.0,0.0,1.0,0.5,0.0,0.0,0.25,0.0,0.0,0.0,0.75,0.0,0.0,-0.17,0.14,0.95,37.47,25.0,17.3,0.75,1.75,2.75,1.25,0.25,1.25,0.0,1.0,0.5,1.5,2.0,0.75,0.25,0.02,0.14,0.95,198.61,-9.9,8.8
5.44,0.0,0.0,0.75,0.5,0.0,0.0,0.25,0.0,0.0,0.0,0.75,0.0,0.25,-0.17,0.08,0.95,38.15,19.4,-0.9,0.5,1.75,2.75,0.75,0.25,1.25,0.25,1.0,0.5,1.5,2.0,1.0,0.25,0.02,0.14,0.95,199.06,-9.4,3.4
5.46,0.0,0.0,1.0,0.5,0.0,0.0,0.25,0.0,0.0,0.0,0.75,0.0,0.0,-0.17,0.08,0.95,38.99,25.0,17.3,0.5,1.75,2.0,0.5,0.25,1.25,0.0,1.0,0.5,1.5,1.75,1.0,0.25,0.02,0.14,0.95,192.69,-7.1,0.0
5.48,0.0,0.0,1.0,0.5,0.0,0.0,0.25,0.0,0.0,0.0,0.75,0.0,0.0,-0.17,0.08,0.95,39.55,25.0,17.3,0.5,1.75,2.5,0.75,1.25,1.25,0.25,1.0,0.5,1.5,2.0,1.0,0.25,0.02,0.14,0.95,196.34,-7.9,6.3
5.5,0.0,0.0,0.75,0.5,0.0,0.0,0.25,0.0,0.0,0.0,0.75,0.0,0.0,-0.17,0.08,0.95,38.14,23.4,12.0,0.75,1.5,2.0,1.25,0.0,1.25,0.0,1.0,0.5,1.25,2.0,0.75,0.25,0.02,0.14,0.95,191.39,-8.9,4.3
5.52,0.0,0.0,0.75,0.5,0.0,0.0,0.25,0.0,0.0,0.0,1.0,0.0,0.0,-0.17,0.08,0.95,37.99,22.1,3.2,0.5,1.75,2.75,1.25,0.5,1.25,0.0,1.0,0.5,1.5,2.0,1.0,0.25,0.02,0.14,0.95,197.15,-9.2,6.2
5.54,0.0,0.0,0.75,0.5,0.0,0.0,0.25,0.0,0.0,0.0,1.0,0.0,0.0,-0.17,0.08,0.95,38.31,22.1,3.2,0.5,1.5,2.25,1.0,0.25,1.25,0.25,1.0,0.5,1.5,1.75,1.0,0.25,0.02,0.14,0.95,194.12,-8.3,1.8
5.56,0.0,0.0,0.75,0.25,0.0,0.0,0.25,0.0,0.0,0.0,1.0,0.0,0.0,-0.17,0.14,0.95,37.02,22.8,-3.5,0.5,1.75,2.5,1.0,0.5,1.25,0.0,1.0,0.5,1.5,2.0,1.0,0.5,0.02,0.14,0.95,197.55,-8.1,2.1
5.58,0.0,0.0,0.75,0.25,0.0,0.0,0.25,0.0,0.0,0.0,0.75,0.0,0.0,-0.17,0.08,0.95,34.46,24.3,5.7,0.5,1.75,2.75,1.0,0.5,1.25,0.0,1.0,0.5,1.5,2.0,1.0,0.25,0.02,0.14,0.95,199.11,-9.1,5.2
5.6,0.0,0.0,0.75,0.5,0.0,0.0,0.25,0.0,0.0,0.0,0.75,0.0,0.0,-0.17,0.14,0.95,33.81,23.4,12.0,0.5,1.75,3.0,1.0,1.25,1.25,0.0,1.0,0.5,1.5,2.0,1.0,0.25,0.02,0.14,0.95,207.85,-8.9,8.9
5.62,0.0,0.0,0.75,0.5,0.0,0.0,0.25,0.0,0.0,0.0,1.0,0.0,0.0,-0.17,0.08,0.95,34.36,22.1,3.2,0.5,1.5,2.75,1.0,0.25,1.25,0.25,1.0,0.5,1.5,2.0,1.0,0.25,0.02,0.14,0.95,206.35,-9.5,2.6
5.64,0.0,0.0,0.75,0.5,0.0,0.0,0.25,0.0,0.0,0.0,0.5,0.0,0.0,-0.17,0.08,0.95,33.38,25.1,23.2,0.5,1.75,2.75,0.75,0.25,1.25,0.0,1.0,0.5,1.5,2.0,0.75,0.25,0.02,0.14,0.95,203.42,-9.2,5.3
5.66,0.0,0.0,0.75,0.5,0.0,0.0,0.25,0.0,0.0,0.0,0.75,0.0,0.0,-0.17,0.08,0.95,33.84,23.4,12.0,0.5,1.75,2.75,0.75,1.25,1.25,0.0,1.0,0.5,1.5,2.0,1.0,0.5,0.02,0.14,0.95,205.88,-7.8,5.1
5.68,0.0,0.0,0.75,0.5,0.0,0.0,0.25,0.0,0.0,0.0,0.75,0.0,0.0,-0.17,0.08,0.95,33.84,23.4,12.0,0.75,1.5,2.0,1.25,0.5,1.25,0.0,1.0,0.5,1.5,2.0,1.0,0.25,0.02,0.14,0.95,203.49,-7.9,2.9
5.7,0.0,0.0,0.75,0.5,0.0,0.0,0.5,0.0,0.0,0.0,0.75,0.0,0.0,-0.17,0.14,0.95,34.79,23.9,12.9,0.5,1.5,2.75,1.25,0.0,1.25,0.25,1.0,0.5,1.5,2.0,1.0,0.25,0.02,0.14,0.95,202.28,-9.9,2.6
5.72,0.0,0.0,0.75,0.75,0.0,0.0,0.25,0.0,0.0,0.25,0.75,0.0,0.0,-0.17,0.08,0.95,37.7,19.1,8.3,0.5,1.75,2.5,0.75,0.5,1.25,0.0,1.0,0.5,1.5,2.0,1.0,0.25,0.02,0.14,0.95,198.58,-8.4,3.1
5.74,0.0,0.0,0.5,0.75,0.0,0.0,0.25,0.0,0.0,0.0,0.75,0.0,0.0,-0.17,0.08,0.95,38.03,20.9,11.8,0.5,1.5,2.0,1.0,0.5,1.25,0.0,1.0,0.5,1.5,2.0,1.0,0.25,0.02,0.14,0.95,195.67,-7.3,0.1
5.76,0.0,0.0,0.75,0.5,0.0,0.0,0.5,0.0,0.0,0.0,0.75,0.0,0.0,-0.17,0.08,0.95,38.21,23.9,12.9,0.5,1.75,2.5,1.0,1.0,1.25,0.0,1.0,0.5,1.5,2.0,1.0,0.25,0.02,0.14,0.95,197.03,-8.0,6.2
5.78,0.0,0.0,0.75,0.5,0.0,0.0,0.25,0.0,0.0,0.0,0.75,0.0,0.0,-0.17,0.08,0.95,36.98,23.4,12.0,0.75,1.75,2.5,0.75,1.0,1.25,0.25,1.0,0.5,1.5,2.0,1.0,0.25,0.02,0.14,0.95,201.7,-8.5,6.9
5.8,0.0,0.0,0.75,0.5,0.0,0.0,0.5,0.0,0.0,0.0,0.75,0.0,0.0,-0.17,0.08,0.95,37.16,23.9,12.9,0.5,1.5,2.5,1.0,0.25,1.25,0.0,1.0,0.5,1.5,2.0,1.0,0.25,0.02,0.14,0.95,199.88,-8.7,1.3
