time,left pressure 0[N/cm²],left pressure 1[N/cm²],left pressure 2[N/cm²],left pressure 3[N/cm²],left pressure 4[N/cm²],left pressure 5[N/cm²],left pressure 6[N/cm²],left pressure 7[N/cm²],left pressure 8[N/cm²],left pressure 9[N/cm²],left pressure 10[N/cm²],left pressure 11[N/cm²],left pressure 12[N/cm²],left acceleration X[g],left acceleration Y[g],left acceleration Z[g],left total force[N],left center of pressure X[mm],left center of pressure Y[mm],right pressure 0[N/cm²],right pressure 1[N/cm²],right pressure 2[N/cm²],right pressure 3[N/cm²],right pressure 4[N/cm²],right pressure 5[N/cm²],right pressure 6[N/cm²],right pressure 7[N/cm²],right pressure 8[N/cm²],right pressure 9[N/cm²],right pressure 10[N/cm²],right pressure 11[N/cm²],right pressure 12[N/cm²],right acceleration X[g],right acceleration Y[g],right acceleration Z[g],right total force[N],right center of pressure X[mm],right center of pressure Y[mm]
0.02,5.5,1.25,0.0,6.5,0.0,0.0,0.75,1.75,0.0,0.0,0.0,0.0,0.0,-0.11,0.2,0.95,206.59,19.2,62.9,6.5,0.75,5.75,4.25,5.5,4.5,4.75,1.25,0.25,0.25,0.25,0.25,0.0,0.08,0.2,0.95,520.1,-14.3,53.0
0.04,5.25,0.75,0.0,4.5,0.0,0.0,0.5,0.25,0.0,0.25,0.0,0.0,0.0,-0.17,0.2,0.95,192.39,23.5,72.5,6.5,1.0,5.75,4.5,5.75,4.5,5.0,1.25,0.25,0.0,0.75,0.25,0.0,0.02,0.2,0.95,527.43,-14.4,52.4
0.06,0.0,0.0,6.0,4.5,0.0,0.0,0.75,1.75,0.0,0.25,0.25,0.0,0.0,-0.17,0.2,0.95,186.7,22.1,41.1,6.75,0.75,5.75,4.75,6.25,5.0,5.0,1.25,0.25,0.0,0.25,0.25,0.0,0.08,0.2,0.95,530.77,-13.8,54.0
0.08,5.0,1.0,4.5,6.25,0.0,0.0,0.5,0.25,0.0,0.25,0.0,0.0,0.0,-0.17,0.2,0.95,207.17,26.4,68.0,7.0,0.75,6.0,5.0,6.5,5.0,5.0,1.25,0.25,0.0,0.25,0.0,0.0,0.08,0.2,0.89,536.0,-14.0,55.5
0.1,0.0,1.0,5.0,6.25,0.0,0.0,0.5,1.25,0.0,0.25,0.0,0.0,0.0,-0.17,0.2,0.95,214.89,21.1,50.7,7.0,0.75,6.25,4.75,6.5,5.25,5.0,1.25,0.25,0.75,0.25,0.25,0.0,0.02,0.2,0.89,540.44,-13.3,51.5
0.12,0.0,0.0,3.75,6.25,0.0,0.0,0.5,0.25,0.0,0.25,0.0,0.0,0.0,-0.17,0.2,0.95,209.22,23.3,53.1,7.0,1.0,6.0,5.5,6.5,5.25,5.0,1.25,0.25,0.0,0.25,0.0,0.0,0.08,0.2,0.89,543.58,-13.8,55.7
0.14,0.0,0.0,4.75,3.75,0.0,0.0,0.25,0.25,0.0,0.0,0.0,0.0,0.0,-0.17,0.27,0.89,182.73,27.7,56.5,7.0,0.75,6.25,5.5,6.5,5.5,5.0,1.25,0.25,0.5,0.25,0.25,0.0,0.08,0.2,0.89,560.49,-13.3,52.4
0.16,0.0,1.25,2.75,4.5,0.0,0.0,0.5,0.5,0.0,0.0,0.0,0.0,0.0,-0.17,0.27,0.89,160.73,21.4,58.5,7.25,1.0,6.5,6.0,6.5,5.5,5.0,1.25,0.25,0.0,0.0,0.25,0.0,0.08,0.2,0.89,574.17,-14.1,55.7
0.18,0.0,0.0,3.75,4.25,0.0,0.0,0.0,0.25,0.0,0.0,0.0,0.0,0.0,-0.17,0.27,0.89,137.62,25.7,56.4,7.25,1.0,6.5,6.0,7.0,5.75,5.0,1.0,0.25,0.0,0.25,0.25,0.0,0.08,0.2,0.89,593.91,-13.8,55.3
0.2,0.0,0.0,3.5,4.25,0.0,0.0,0.0,0.25,0.0,0.0,0.0,0.0,0.0,-0.17,0.27,0.89,127.41,25.3,56.3,7.25,1.5,7.0,6.0,7.25,5.75,5.25,1.25,0.25,1.0,0.0,0.25,0.0,0.08,0.2,0.89,622.5,-13.1,52.8
0.22,0.0,0.0,4.25,4.25,0.0,0.0,0.0,0.25,0.0,0.0,0.0,0.0,0.0,-0.17,0.27,0.89,127.74,26.4,56.7,7.25,1.5,7.0,6.0,7.25,5.75,5.5,1.0,0.25,0.0,0.25,0.0,0.0,0.08,0.2,0.89,634.37,-14.1,56.8
0.24,0.0,0.0,4.0,4.0,0.0,0.0,0.0,0.25,0.0,0.0,0.0,0.0,0.0,-0.17,0.27,0.89,126.19,26.3,56.5,7.5,1.5,7.0,6.25,7.5,6.0,5.5,1.0,0.25,0.0,0.0,0.25,0.0,0.08,0.2,0.89,648.2,-13.9,56.6
0.26,0.0,0.0,3.75,3.0,0.0,0.0,0.0,0.25,0.0,0.0,0.0,0.0,0.0,-0.17,0.27,0.89,117.95,27.2,56.2,7.5,1.5,7.0,6.25,7.5,6.25,5.5,1.0,0.5,0.0,0.0,0.25,0.0,0.08,0.2,0.89,657.58,-13.7,55.9
0.28,0.0,1.0,4.0,4.5,0.0,0.0,0.0,0.25,0.0,0.0,0.5,0.0,0.0,-0.17,0.27,0.89,130.46,23.8,54.7,7.75,1.75,7.0,6.25,7.5,6.0,5.5,1.0,0.25,0.5,0.0,0.25,0.0,0.08,0.2,0.95,667.15,-13.6,55.5
0.3,0.0,0.0,5.0,2.75,0.0,0.0,0.0,0.25,0.0,0.25,0.5,0.0,0.0,-0.17,0.27,0.89,130.56,27.0,46.1,8.25,2.5,7.0,8.0,7.75,6.0,5.75,1.25,0.75,1.75,0.0,1.0,0.0,0.08,0.2,0.89,712.56,-12.9,49.2
0.32,0.0,0.0,3.25,2.5,0.0,0.0,0.0,0.25,0.0,0.0,0.0,0.0,0.0,-0.17,0.27,0.89,120.6,27.1,55.6,8.25,2.5,8.0,8.0,8.25,6.25,6.25,1.25,0.75,1.5,1.75,1.0,0.25,0.08,0.2,0.95,779.64,-13.1,45.1
0.34,0.0,1.0,3.75,4.25,0.0,0.0,0.0,0.25,0.0,0.0,0.5,0.0,0.0,-0.17,0.27,0.89,133.27,23.6,54.4,8.25,2.5,8.0,8.0,8.25,6.25,6.5,1.25,0.75,1.5,1.75,0.75,0.25,0.08,0.2,0.95,839.55,-13.2,45.8
0.36,0.0,1.0,3.5,4.25,0.0,0.0,0.0,0.5,0.0,0.25,0.5,0.0,0.0,-0.17,0.27,0.89,145.37,21.3,48.9,8.25,2.25,8.0,7.5,8.25,6.0,6.5,1.25,0.75,1.5,1.75,1.0,0.25,0.08,0.2,0.89,871.76,-13.3,44.7
0.38,0.0,0.0,3.0,2.5,0.0,0.0,0.0,0.5,0.0,0.0,0.25,0.0,0.0,-0.17,0.27,0.95,137.25,24.4,46.8,8.0,2.5,8.0,8.0,8.25,6.0,6.5,1.25,0.75,1.5,1.75,0.75,0.25,0.08,0.2,0.89,885.3,-13.2,45.6
0.4,0.0,0.0,3.75,4.25,0.0,0.0,0.0,0.5,0.0,0.0,0.0,0.0,0.0,-0.17,0.27,0.95,137.92,24.5,53.7,8.0,2.25,8.0,8.0,8.25,6.0,6.5,1.25,0.75,1.5,1.75,1.0,0.25,0.08,0.2,0.95,883.4,-13.2,44.6
0.42,0.0,1.0,2.75,4.25,0.0,0.0,0.0,0.5,0.0,0.25,0.0,0.0,0.0,-0.17,0.27,0.89,139.74,20.4,54.5,8.0,2.25,8.0,7.75,8.25,6.0,6.75,1.25,0.75,1.0,1.75,1.0,0.5,0.08,0.2,0.95,875.81,-13.4,44.8
0.44,0.0,1.0,3.0,4.25,0.0,0.0,0.0,0.5,0.0,0.25,0.25,0.0,0.0,-0.17,0.27,0.95,145.34,20.7,51.4,8.0,2.25,8.0,8.0,8.25,6.0,6.75,1.25,1.0,1.5,1.75,1.0,0.25,0.08,0.2,0.95,874.28,-13.2,44.1
0.46,0.0,1.0,3.25,5.0,0.0,0.0,0.0,0.5,0.0,0.25,0.0,0.0,0.0,-0.17,0.27,0.95,153.67,21.1,55.1,7.25,1.25,8.0,6.25,8.25,5.75,6.75,1.25,0.5,0.0,0.25,0.0,0.0,0.08,0.2,0.89,815.64,-14.3,55.0
0.48,0.0,1.0,3.5,4.25,0.0,0.0,0.0,1.0,0.0,0.25,0.0,0.0,0.0,-0.17,0.27,0.95,163.36,20.0,50.4,7.0,1.75,7.25,6.25,7.75,6.0,6.5,1.25,0.5,0.0,0.0,0.25,0.0,0.08,0.2,0.95,751.74,-13.7,55.0
0.5,0.0,1.0,3.5,4.25,0.0,0.0,0.0,0.75,0.0,0.25,0.25,0.0,0.0,-0.17,0.27,0.95,167.49,20.6,49.7,7.75,2.25,7.25,8.25,7.75,6.5,6.5,1.25,1.0,1.5,0.5,0.75,0.0,0.08,0.2,0.95,736.71,-12.8,48.1
0.52,0.0,1.0,3.5,4.25,0.0,0.0,0.0,1.0,0.0,0.25,0.0,0.0,0.0,-0.17,0.27,0.95,167.57,20.0,50.4,7.75,2.25,8.0,8.0,8.25,6.5,6.75,1.5,1.0,1.25,1.75,0.75,0.25,0.08,0.14,0.95,758.58,-12.8,44.7
0.54,0.0,1.0,2.75,4.25,0.0,0.0,0.0,0.75,0.0,0.25,0.0,0.0,0.0,-0.17,0.27,0.95,165.51,19.4,52.0,7.75,2.25,8.0,8.25,8.25,6.5,7.0,1.5,0.75,1.5,1.75,1.0,0.25,0.08,0.14,0.95,792.99,-12.7,43.8
0.56,0.0,0.5,2.75,3.0,0.0,0.0,0.0,1.5,0.0,0.25,0.0,0.0,0.0,-0.17,0.27,0.89,155.0,16.9,39.8,7.75,2.25,8.0,8.25,8.25,6.75,7.0,1.75,0.75,0.75,1.75,1.0,0.25,0.08,0.14,0.95,825.73,-12.8,45.1
0.58,0.0,1.0,2.75,3.0,0.0,0.0,0.0,0.75,0.0,0.25,0.0,0.0,0.0,-0.17,0.27,0.95,141.9,19.8,51.0,7.5,2.0,8.0,8.25,8.5,6.75,7.0,2.0,0.75,0.75,1.75,1.0,0.25,0.08,0.14,0.95,846.85,-12.5,44.2
0.6,0.0,0.0,2.0,2.75,0.0,0.0,0.0,0.25,0.0,0.25,0.0,0.0,0.0,-0.17,0.2,0.89,121.11,22.1,48.4,7.5,2.0,8.0,8.25,8.5,6.75,7.0,2.5,0.75,1.5,1.75,0.75,0.25,0.08,0.14,0.95,858.57,-11.9,42.5
0.62,0.0,0.75,2.75,4.25,0.0,0.0,0.0,1.0,0.0,0.25,0.0,0.0,0.0,-0.17,0.2,0.89,125.5,18.6,48.2,7.25,1.75,8.0,8.25,8.5,6.75,7.0,2.5,0.75,1.75,1.75,1.0,0.25,0.08,0.14,0.95,866.64,-11.6,40.7
0.64,0.0,1.0,0.0,4.25,0.0,0.0,0.0,0.75,0.0,0.25,0.0,0.0,0.0,-0.17,0.2,0.89,113.0,11.2,48.1,7.25,1.75,8.0,8.25,8.75,6.75,7.25,2.75,1.0,1.75,1.75,0.75,0.25,0.08,0.14,0.95,881.27,-11.5,40.7
0.66,0.0,1.0,0.0,3.75,0.0,0.0,0.0,0.75,0.0,0.25,0.0,0.0,0.0,-0.17,0.2,0.89,106.65,10.7,47.2,7.25,1.75,8.25,8.25,9.0,6.75,7.5,2.75,1.0,1.75,1.75,0.75,0.25,0.08,0.14,0.95,897.27,-11.5,40.8
0.68,0.0,1.0,0.0,3.75,0.0,0.0,0.0,0.5,0.0,0.25,0.0,0.0,0.0,-0.17,0.2,0.95,94.51,11.9,51.0,7.25,1.75,8.25,8.25,9.0,7.0,7.5,2.75,1.0,1.5,1.75,0.75,0.25,0.08,0.14,0.95,910.75,-11.5,41.3
0.7,0.0,1.0,0.0,3.5,0.0,0.0,0.0,0.5,0.0,0.25,0.0,0.0,0.0,-0.17,0.2,0.89,86.85,11.7,50.6,7.25,1.75,8.5,8.75,9.0,7.0,7.5,2.75,1.0,1.75,1.75,1.0,0.25,0.02,0.14,0.95,930.5,-11.6,40.4
0.72,0.0,1.0,0.0,3.0,0.0,0.0,0.0,0.75,0.0,0.25,0.0,0.0,0.0,-0.17,0.2,0.95,78.98,9.7,45.6,7.5,1.75,8.75,9.0,9.0,7.0,8.0,3.0,0.5,1.25,1.75,0.5,0.25,0.08,0.14,0.95,934.55,-12.0,43.5
0.74,0.0,1.0,0.0,2.75,0.0,0.0,0.0,0.75,0.0,0.0,0.0,0.0,0.0,-0.17,0.2,0.95,73.5,10.7,51.4,7.25,2.25,8.0,9.25,8.0,7.0,7.75,3.5,0.75,1.75,2.0,1.0,0.5,0.08,0.14,0.95,934.83,-11.2,38.7
0.76,0.0,0.0,0.0,3.25,0.0,0.0,0.0,0.75,0.0,0.25,0.0,0.0,0.0,-0.17,0.2,0.95,68.92,9.5,33.8,7.25,1.75,8.75,9.75,8.0,7.0,8.0,2.75,1.0,2.25,1.75,1.0,0.0,0.08,0.14,0.95,939.26,-12.1,40.1
0.78,0.0,0.75,0.0,2.5,0.0,0.0,0.0,0.75,0.0,0.25,0.0,0.0,0.0,-0.17,0.2,0.95,65.79,8.7,41.0,6.75,0.75,8.75,7.75,8.0,7.0,8.25,2.75,0.5,1.5,1.75,0.5,0.0,0.08,0.14,0.95,905.07,-12.1,41.6
0.8,0.0,1.0,0.0,2.5,0.0,0.0,0.0,0.5,0.0,0.25,0.0,0.0,0.0,-0.17,0.2,0.95,64.97,10.3,48.9,6.75,0.75,8.25,8.0,8.0,6.75,8.5,3.0,1.0,0.75,1.75,0.5,0.0,0.08,0.14,0.95,868.65,-12.4,42.0
0.82,0.0,0.75,0.0,2.5,0.0,0.0,0.0,0.5,0.0,0.25,0.25,0.0,0.0,-0.17,0.2,0.95,64.75,10.2,39.1,6.75,0.75,8.5,8.0,8.0,6.5,8.5,3.0,1.0,1.25,2.0,0.25,0.0,0.08,0.14,0.95,836.86,-12.4,41.2
0.84,0.0,0.5,2.0,2.5,0.0,0.0,0.0,0.25,0.0,0.25,0.0,0.0,0.0,-0.23,0.14,0.95,73.83,21.4,52.6,6.5,0.75,8.75,8.0,8.0,6.5,8.75,3.0,1.0,1.5,2.0,1.0,0.0,0.08,0.14,0.95,826.79,-12.3,38.3
0.86,0.0,0.0,2.0,0.75,0.0,0.0,0.0,0.5,0.0,0.0,0.0,0.0,0.0,-0.3,0.02,0.95,66.45,25.1,45.3,6.5,0.75,8.75,8.0,8.0,6.5,8.75,2.75,1.0,1.5,2.0,0.25,0.0,0.08,0.14,0.95,819.25,-12.5,40.8
0.88,0.0,0.0,2.0,1.75,0.0,0.0,0.0,0.25,0.0,0.0,0.0,0.0,0.0,-0.23,0.08,1.08,68.88,25.6,53.6,6.75,0.75,8.75,8.0,7.75,6.5,9.0,2.75,1.0,1.5,2.0,0.75,0.0,0.08,0.14,0.95,821.46,-12.7,39.5
0.9,0.0,0.0,2.0,1.5,0.0,0.0,0.0,0.25,0.0,0.25,0.0,0.0,0.0,-0.05,0.08,1.02,65.77,23.6,45.5,6.5,0.75,8.75,8.0,8.0,6.25,9.0,2.75,1.25,0.75,2.0,0.5,0.0,0.08,0.14,0.95,815.35,-13.1,41.4
0.92,0.0,0.0,2.0,1.0,0.0,0.0,0.0,0.25,0.0,0.25,0.0,0.0,0.0,0.45,0.27,0.95,63.36,24.6,43.7,6.5,0.75,9.0,8.0,7.75,6.0,9.25,2.75,1.0,0.5,2.0,0.25,0.0,0.08,0.14,0.95,804.66,-13.7,43.2
0.94,0.0,0.0,2.0,1.0,0.0,0.0,0.0,0.0,0.0,0.0,0.0,0.0,0.25,0.45,0.33,1.08,59.05,27.7,46.9,6.75,0.75,9.25,8.25,7.75,6.0,9.5,2.75,1.0,0.5,2.0,0.25,0.0,0.08,0.14,0.95,801.56,-14.0,43.5
0.96,0.0,0.0,2.0,1.0,0.0,0.0,0.0,0.0,0.0,0.25,0.75,0.0,0.0,0.27,0.58,0.89,60.45,24.6,27.5,7.0,0.75,9.5,8.25,7.5,6.0,9.5,2.5,1.0,1.25,2.0,0.0,0.0,0.08,0.14,0.95,807.13,-14.0,43.2
0.98,0.0,0.0,2.0,1.0,0.0,0.0,0.0,0.0,0.0,0.0,0.75,0.0,0.0,0.14,0.64,0.83,60.72,27.3,34.2,7.0,0.75,9.5,8.25,7.5,6.0,10.0,1.5,1.0,1.0,1.5,0.25,0.0,0.02,0.08,0.95,808.04,-14.9,45.8
1.0,0.0,0.0,2.0,0.5,0.0,0.0,0.25,0.0,0.0,0.0,0.0,0.0,0.0,0.02,0.64,0.89,55.45,33.9,58.9,7.25,0.75,9.75,8.25,5.75,5.5,10.5,1.25,0.75,1.25,1.75,0.0,0.0,0.02,0.14,0.95,795.2,-16.4,46.2
1.02,0.0,0.0,1.5,0.75,0.0,0.0,0.0,0.0,0.0,0.25,0.5,0.0,0.0,-0.05,0.7,0.89,51.57,24.1,27.5,7.25,0.75,11.0,8.25,6.5,4.5,10.5,1.25,0.75,0.5,1.0,0.25,0.0,0.02,0.14,0.95,785.82,-17.9,49.9
1.04,0.0,0.0,1.5,0.75,0.0,0.0,0.0,0.0,0.0,0.25,0.5,0.0,0.0,-0.17,0.64,0.77,47.97,24.1,27.5,7.25,0.5,11.0,8.25,6.5,4.5,10.5,1.25,1.0,0.5,1.5,0.0,0.0,0.08,0.14,0.95,773.08,-17.9,48.8
1.06,0.0,0.0,1.25,0.75,0.0,0.0,0.0,0.0,0.0,0.25,0.25,0.0,0.0,-0.23,0.58,0.83,43.71,23.9,33.8,7.25,0.25,11.0,8.0,6.0,4.0,10.5,0.75,0.75,1.5,0.75,0.0,0.0,0.02,0.14,0.95,752.4,-18.4,49.2
1.08,0.0,0.0,2.0,0.75,0.0,0.0,0.0,0.0,0.0,0.25,0.5,0.0,0.0,-0.36,0.45,0.83,46.52,26.1,32.3,7.25,0.0,11.0,8.0,5.0,3.5,10.5,1.0,0.75,0.25,1.0,0.25,0.0,0.14,0.2,0.89,721.06,-20.1,50.5
1.1,0.0,0.0,2.0,1.25,0.0,0.0,0.0,0.0,0.0,0.5,0.0,0.0,0.0,-0.36,0.33,0.83,53.9,24.1,42.2,7.5,0.0,11.5,7.5,4.75,2.75,10.5,0.75,0.75,1.0,0.75,0.0,0.0,-0.05,0.14,0.95,690.48,-21.0,51.0
1.12,0.0,0.0,2.0,0.5,0.0,0.0,0.0,0.0,0.0,0.0,0.5,0.0,0.0,-0.67,0.14,0.7,54.27,30.3,38.9,7.25,0.0,11.0,6.0,4.25,2.0,10.5,0.0,0.75,0.0,0.25,0.0,0.0,-0.05,0.14,0.95,628.39,-24.0,57.4
1.14,0.0,0.0,1.75,1.25,0.0,0.0,0.0,0.0,0.0,0.25,0.5,0.0,0.0,-0.61,-0.42,0.7,58.17,24.1,33.8,7.25,0.0,11.0,5.0,3.0,2.0,10.0,0.25,0.75,0.5,0.5,0.0,0.0,0.08,0.2,1.08,568.57,-24.3,54.3
1.16,0.0,0.0,2.0,1.25,0.0,0.0,0.5,0.0,0.0,0.0,1.0,0.0,0.0,-0.36,-0.05,0.95,64.85,26.1,29.4,7.0,0.0,11.0,4.25,2.25,2.0,9.5,0.0,0.75,0.0,0.0,0.0,0.0,0.08,0.2,1.14,501.78,-26.2,58.8
1.18,0.0,0.0,2.0,1.75,0.0,0.0,1.0,0.0,0.0,0.0,0.0,0.0,0.0,0.08,0.02,0.7,70.69,28.8,56.0,6.75,0.0,11.0,4.0,2.25,2.0,9.0,0.0,0.75,0.0,0.0,0.0,0.0,0.02,0.2,1.27,453.07,-26.2,58.7
1.2,0.0,0.0,1.75,0.5,0.0,0.0,1.0,0.0,0.0,0.0,0.75,0.0,0.0,-0.23,0.02,0.95,69.15,28.7,27.9,5.75,0.0,9.5,3.0,1.25,1.75,8.75,0.0,0.75,0.0,0.25,0.0,0.0,-0.05,0.14,1.45,393.48,-27.1,56.6
1.22,0.0,0.0,0.75,0.0,0.0,0.0,1.25,0.0,0.0,0.0,2.25,0.0,0.0,-0.17,0.14,0.95,65.78,20.4,-28.4,5.25,0.0,8.5,2.0,0.5,2.0,8.0,0.0,0.25,0.25,0.0,0.0,0.0,-0.11,0.02,1.52,341.53,-27.5,57.9
1.24,0.0,0.0,1.75,0.5,0.0,0.0,2.0,0.0,0.25,0.75,1.5,0.0,0.0,-0.11,0.08,0.95,73.16,20.2,-1.6,4.0,0.0,8.0,1.5,0.5,2.0,7.25,0.0,0.25,0.0,0.0,0.0,0.0,-0.23,0.2,1.7,289.25,-27.5,57.7
1.26,0.0,0.0,0.0,0.0,0.0,0.0,0.0,0.0,0.0,0.0,0.0,0.0,0.0,-0.11,0.08,0.95,49.81,0.0,0.0,2.75,0.0,6.25,1.5,0.5,2.0,6.25,0.0,0.25,0.0,0.0,0.0,0.0,-0.23,-0.11,1.08,242.42,-25.6,55.4
1.28,0.0,0.0,0.0,0.0,0.0,0.0,3.25,0.5,0.75,1.5,0.0,0.0,0.25,-0.11,0.08,0.95,53.58,5.2,-32.2,2.5,0.0,5.0,1.5,0.5,2.0,5.0,0.0,0.25,0.0,0.0,0.25,0.0,1.58,-0.42,0.27,199.39,-23.8,52.5
1.3,0.0,1.0,0.0,0.5,0.0,0.0,3.5,2.0,1.0,1.75,2.0,0.0,0.0,-0.11,0.08,0.95,81.02,4.8,-21.7,2.25,0.0,4.0,1.5,1.0,2.0,4.25,0.0,0.0,0.0,0.0,0.0,0.0,1.83,0.08,0.45,165.25,-21.5,56.7
1.32,0.0,0.0,0.0,2.25,0.0,0.0,3.25,1.75,0.75,2.0,2.5,0.0,0.25,-0.11,0.08,0.95,118.67,5.5,-25.2,2.0,0.0,3.25,1.5,0.5,2.0,3.5,0.0,0.0,0.0,0.0,0.5,0.0,0.52,0.33,0.52,138.41,-20.4,49.4
1.34,0.0,1.0,0.0,4.25,0.0,0.75,3.25,3.75,1.75,3.5,2.25,0.75,0.5,-0.11,0.08,0.95,188.6,2.4,-17.4,1.75,0.0,2.75,1.25,1.0,2.0,3.5,1.25,0.0,0.0,1.0,0.25,0.25,0.27,0.52,0.64,130.73,-13.8,30.5
1.36,0.0,0.0,0.0,1.75,0.0,0.25,3.75,3.75,0.0,3.25,3.0,0.25,1.25,-0.11,0.08,0.95,222.8,-0.8,-40.2,1.75,0.0,1.0,1.25,1.0,2.0,2.5,0.0,0.0,0.25,0.0,0.25,0.0,0.27,0.27,0.89,113.06,-12.5,47.2
1.38,0.0,1.0,5.0,4.5,0.0,1.5,3.5,3.75,0.0,3.5,3.5,0.75,1.25,-0.11,0.08,0.95,285.8,8.2,-3.9,1.25,0.0,2.0,1.0,0.5,2.0,2.5,0.0,0.25,0.0,0.0,0.0,0.0,0.33,0.2,0.89,98.94,-16.4,51.2
1.4,0.0,1.0,5.25,4.5,0.0,2.25,3.5,4.5,0.75,3.5,3.5,0.75,1.25,-0.11,0.08,0.95,341.43,7.2,-4.2,1.25,0.0,1.75,0.5,1.0,2.0,2.5,0.0,0.25,0.0,0.0,0.25,0.0,0.39,0.27,0.89,87.66,-14.0,45.7
1.42,0.0,1.0,5.25,4.5,1.75,2.75,3.25,4.5,0.75,2.75,3.25,0.75,1.25,-0.11,0.08,0.95,406.63,6.5,2.3,1.25,0.0,1.75,0.5,0.25,1.75,2.5,0.0,0.25,0.0,0.0,0.25,0.0,0.45,0.33,0.89,80.55,-17.4,45.2
1.44,0.0,1.0,4.75,4.5,0.0,3.0,2.25,4.75,1.0,3.5,3.0,0.75,1.25,-0.11,0.08,0.95,438.16,5.1,-4.5,1.25,0.0,1.75,0.0,0.5,1.5,2.25,0.0,0.25,0.0,0.0,0.0,0.0,0.58,0.45,0.95,76.33,-18.0,51.4
1.46,0.0,1.0,0.0,4.25,0.0,3.25,2.0,4.75,0.75,3.5,2.75,0.75,1.25,-0.11,0.08,0.95,419.56,-2.4,-17.7,2.75,0.25,1.5,1.5,0.25,2.25,2.5,1.25,0.75,0.0,1.5,0.0,0.0,0.77,0.52,0.89,111.1,-13.2,30.4
1.48,0.0,1.0,0.0,4.25,0.0,3.5,1.75,4.75,1.0,3.5,2.75,0.75,1.25,-0.11,0.08,0.95,387.15,-2.7,-17.6,2.5,0.75,3.0,1.5,3.5,2.25,2.5,1.25,0.75,1.5,1.75,0.75,0.25,0.89,0.64,0.77,182.69,-9.3,22.4
1.5,0.0,1.0,0.0,3.5,0.0,4.0,1.25,5.0,1.0,3.5,3.0,0.75,1.25,-0.11,0.08,0.95,358.09,-4.1,-20.4,1.25,0.0,3.0,0.0,2.75,2.0,2.5,1.25,0.25,0.0,1.75,0.0,0.25,0.95,0.77,0.64,212.02,-10.0,25.4
1.52,0.0,1.0,0.0,2.75,0.0,4.25,1.0,5.25,1.0,3.5,3.0,0.75,1.25,-0.11,0.08,0.95,332.93,-5.3,-22.9,2.25,0.0,1.25,0.0,0.5,1.5,2.0,0.0,0.25,0.0,0.0,0.0,0.0,0.77,0.95,0.64,197.22,-18.6,57.7
1.54,0.0,1.0,0.0,2.5,3.25,4.5,1.0,5.5,1.0,3.75,3.0,0.75,1.25,-0.11,0.08,0.95,334.96,-5.6,-13.3,1.25,0.0,3.25,0.0,3.25,1.75,2.5,1.25,0.0,0.0,0.0,0.25,0.0,0.52,1.08,0.77,192.15,-10.9,42.2
1.56,0.0,1.0,0.0,2.5,0.0,4.75,0.5,6.0,0.75,3.75,3.0,0.75,1.25,-0.11,0.08,0.95,325.04,-7.0,-24.1,2.75,0.75,4.0,1.5,3.25,2.0,2.25,1.25,0.75,0.5,0.0,0.75,0.0,0.33,1.14,0.89,215.85,-13.1,40.4
1.58,0.0,0.0,1.25,2.5,0.0,4.5,0.5,6.25,0.0,3.5,3.0,0.0,1.0,-0.11,0.08,0.95,306.71,-6.2,-20.7,2.5,0.25,0.5,0.0,1.75,1.0,2.25,1.25,0.25,0.0,1.75,0.75,0.25,0.2,1.14,0.89,210.6,-10.1,14.0
1.6,0.0,0.0,1.0,0.5,0.0,4.75,0.0,6.0,0.0,3.5,1.75,0.0,1.0,-0.11,0.08,0.95,277.05,-11.2,-26.9,2.5,0.0,2.5,0.0,3.25,1.75,2.25,0.0,0.25,0.5,0.0,0.0,0.0,0.08,1.08,0.7,216.7,-13.1,51.4
1.62,0.0,1.0,0.75,2.25,0.75,5.25,0.25,6.25,0.0,5.0,2.25,0.75,1.25,-0.17,0.08,0.95,276.07,-7.8,-19.6,1.25,0.0,0.5,0.0,0.0,1.25,1.5,0.0,0.0,0.0,0.0,0.0,0.0,0.27,1.02,0.64,168.16,-15.8,57.4
1.64,0.0,1.0,1.0,2.25,0.0,5.5,0.5,6.5,0.0,4.75,3.0,0.0,1.25,-0.17,0.08,0.95,282.59,-7.4,-19.2,2.5,0.5,0.5,1.5,0.25,2.0,2.25,1.25,0.25,1.5,1.25,0.5,0.25,0.2,0.89,0.58,164.47,-7.4,12.6
1.66,0.0,0.75,1.0,2.0,0.0,5.75,0.25,6.75,0.0,4.75,3.0,0.75,1.25,-0.17,0.08,0.95,300.6,-7.8,-23.7,1.25,0.0,0.5,0.0,1.0,1.0,1.5,0.0,0.0,0.0,0.0,0.0,0.0,-1.8,1.2,0.83,118.94,-12.9,57.6
1.68,0.0,0.5,1.0,1.75,0.0,5.75,0.25,7.0,0.25,4.75,3.0,0.75,1.25,-0.17,0.08,0.95,316.76,-8.1,-26.0,1.25,0.0,0.5,0.0,0.25,1.0,1.5,0.0,0.25,0.0,0.0,0.0,0.0,0.39,0.64,0.52,94.73,-16.5,52.4
1.7,0.0,0.5,0.0,1.25,0.0,5.75,0.25,7.0,0.0,3.75,2.0,0.75,0.5,-0.17,0.08,0.95,308.33,-11.6,-24.5,1.25,0.0,0.75,0.0,0.5,1.0,1.75,0.0,0.25,0.25,0.0,0.0,0.0,0.39,0.2,0.7,62.61,-15.2,45.6
1.72,0.0,0.0,0.0,1.0,0.0,5.5,0.0,7.0,0.0,3.5,2.75,0.75,1.25,-0.17,0.08,0.95,293.39,-11.9,-33.7,1.25,0.0,0.5,0.0,0.25,1.0,2.0,0.0,0.0,0.0,0.0,0.0,0.0,0.39,0.08,0.7,47.98,-17.8,56.6
1.74,0.0,0.0,0.0,0.5,0.0,5.75,0.0,7.25,0.0,3.75,2.5,0.75,1.25,-0.17,0.02,0.95,281.95,-13.1,-35.2,1.25,0.0,1.5,0.5,0.25,1.75,2.5,1.25,0.25,0.0,1.75,0.25,0.0,0.2,-0.3,0.77,75.45,-11.3,13.2
1.76,0.0,0.5,0.0,1.0,0.0,5.25,0.0,7.25,0.0,4.75,2.5,0.25,1.25,-0.17,0.08,0.95,280.47,-12.2,-31.6,1.25,0.0,0.75,0.5,0.5,1.75,1.75,0.5,0.25,0.0,0.0,0.0,0.0,0.2,0.14,0.89,84.72,-9.7,43.4
1.78,0.0,0.0,0.0,1.0,0.0,5.75,0.0,7.0,0.25,4.25,2.25,0.0,1.25,-0.17,0.08,0.95,276.4,-13.1,-30.8,1.25,0.0,0.5,0.5,0.5,2.0,1.25,1.25,0.25,0.0,0.0,0.25,0.0,0.08,0.14,0.95,93.3,-4.0,28.8
1.8,0.0,0.0,0.0,1.0,0.0,5.0,0.25,7.0,0.25,3.75,2.25,0.0,1.25,-0.17,0.08,0.95,274.76,-12.4,-31.7,1.25,0.0,1.5,0.75,1.0,2.0,1.5,1.5,0.25,1.5,0.5,0.25,0.0,0.02,0.08,1.08,115.13,-4.5,13.7
1.82,0.0,0.0,1.75,0.75,0.0,4.75,0.0,7.0,0.25,4.0,2.25,0.0,1.25,-0.17,0.08,0.95,273.5,-8.7,-26.6,2.5,0.5,2.0,1.75,3.75,3.75,1.5,4.0,0.75,3.75,2.5,1.25,1.25,0.02,0.14,1.08,221.87,-1.0,-1.5
1.84,0.0,0.0,0.0,0.5,0.0,4.25,0.0,7.0,0.25,4.75,2.25,0.0,1.25,-0.17,0.08,0.95,267.82,-13.3,-38.9,2.25,0.0,0.5,0.5,0.25,2.25,1.25,5.25,0.5,5.25,3.0,0.75,0.5,0.08,0.08,0.95,267.47,2.8,-28.4
1.86,0.0,0.0,0.0,0.5,0.0,4.75,0.0,6.5,0.25,5.0,1.75,0.5,1.25,-0.17,0.08,0.95,262.26,-13.5,-38.5,1.25,0.0,0.25,0.25,1.0,2.75,0.75,5.25,0.25,6.0,2.25,1.0,1.25,0.14,0.08,0.95,309.03,7.4,-35.6
1.88,0.0,0.0,0.0,0.5,0.0,4.25,0.25,6.75,0.0,4.75,2.25,0.25,1.25,-0.17,0.14,0.95,260.66,-13.0,-39.4,1.25,0.0,0.25,0.0,1.25,3.25,0.75,6.25,0.5,6.75,2.75,1.25,2.25,0.14,0.08,0.89,336.84,8.0,-40.0
1.9,0.0,0.0,0.0,1.0,0.0,3.0,0.5,6.5,0.0,3.5,2.0,0.0,1.25,-0.17,0.14,0.95,250.87,-11.5,-36.9,2.0,0.0,0.5,0.5,4.5,2.75,1.25,7.0,0.25,8.0,4.0,2.5,4.5,0.27,0.08,0.89,418.65,5.4,-35.4
1.92,0.0,0.0,0.0,0.25,0.0,0.0,0.25,6.0,0.0,2.0,1.75,0.0,1.25,-0.17,0.08,0.95,220.31,-10.8,-55.8,0.5,0.0,0.5,0.0,0.5,3.25,0.5,7.0,0.5,7.5,3.5,2.0,4.0,0.27,0.02,0.83,451.36,8.8,-53.3
1.94,0.0,0.0,0.0,0.5,0.0,0.0,0.0,5.75,0.0,2.0,1.5,0.0,1.0,-0.17,0.08,0.95,189.01,-10.9,-52.6,2.25,0.5,0.25,1.5,4.25,4.5,1.0,7.75,0.75,8.75,5.0,3.0,5.5,0.14,0.08,0.95,559.68,5.3,-33.9
1.96,0.0,0.0,1.0,0.5,0.0,0.0,0.0,5.25,0.0,0.5,1.5,0.0,0.5,-0.17,0.08,0.95,150.63,-4.2,-33.9,1.75,0.75,1.0,1.5,4.25,4.5,1.25,8.0,0.75,8.75,5.0,3.0,5.75,0.2,0.08,0.89,640.57,4.9,-33.2
1.98,0.0,0.0,1.5,0.5,0.0,0.0,0.0,4.75,0.0,0.0,0.5,0.0,0.25,-0.11,-0.05,1.02,117.01,-1.3,-16.4,2.0,0.75,1.0,1.5,3.25,5.0,1.0,8.25,0.75,9.0,5.0,3.0,6.0,0.27,0.02,0.83,708.56,5.1,-34.8
2.0,0.0,0.0,0.0,0.25,0.0,0.0,0.0,3.75,0.0,0.0,0.0,0.0,0.0,0.27,-0.11,1.27,75.82,-14.5,-32.4,2.25,0.75,1.5,1.5,4.25,5.5,0.5,8.25,0.75,9.0,5.25,3.0,6.0,0.2,0.08,0.95,751.31,4.7,-30.9
2.02,0.0,0.0,0.0,0.5,0.0,0.0,0.0,3.0,0.0,0.0,0.75,0.0,0.0,0.2,0.27,1.08,48.41,-7.8,-33.1,2.5,0.75,0.75,1.5,3.75,6.0,0.25,8.5,0.75,9.0,6.0,3.25,5.75,0.14,0.08,0.95,777.05,5.2,-33.0
2.04,0.0,0.0,2.0,0.5,0.0,0.0,0.0,3.0,0.0,0.0,0.0,0.0,0.0,0.64,0.89,0.83,36.19,6.7,7.0,2.25,0.75,0.0,1.5,4.25,6.0,1.5,8.5,1.0,9.0,6.0,3.5,5.75,0.08,0.14,1.02,780.93,5.4,-33.7
2.06,0.0,0.25,0.0,0.5,0.0,0.0,0.0,2.0,0.0,0.0,0.0,0.0,0.0,-0.05,0.95,0.95,19.46,-7.6,-7.7,2.5,0.75,2.0,1.75,4.25,6.0,1.5,8.25,1.0,9.0,6.5,3.0,5.5,0.08,0.14,0.95,782.71,3.3,-28.1
2.08,0.0,0.0,1.0,0.5,0.0,0.0,0.0,2.25,0.0,0.0,0.0,0.0,0.0,-0.11,0.95,0.77,18.07,2.8,1.5,2.75,0.75,2.25,2.0,4.25,6.0,2.5,8.25,0.0,9.0,6.75,3.25,5.5,0.08,0.08,0.95,804.41,2.6,-26.6
2.1,0.0,0.0,1.0,0.25,0.0,0.0,0.0,3.0,0.0,0.0,1.25,0.0,0.0,-0.23,1.08,0.83,26.35,1.2,-23.5,2.75,0.75,3.25,2.5,4.5,6.0,2.75,7.75,1.25,8.75,6.75,4.0,5.0,0.08,0.08,0.95,822.14,0.8,-23.9
2.12,0.0,0.0,0.5,0.0,0.0,0.0,0.0,2.5,0.0,0.0,0.75,0.0,0.0,-0.3,1.08,0.77,31.38,-3.8,-32.1,3.25,0.75,3.25,2.75,4.5,6.0,3.5,7.75,1.5,8.5,6.5,3.0,4.75,0.08,0.08,0.95,829.03,0.3,-19.7
2.14,0.0,0.0,1.0,0.5,0.0,0.0,0.0,2.25,0.0,0.25,0.75,0.0,0.0,-0.36,1.02,0.77,43.18,3.0,-14.1,4.0,0.75,3.5,3.0,4.75,6.0,4.5,7.75,1.5,8.25,6.5,3.0,4.75,0.08,0.08,0.95,845.01,-0.7,-16.5
2.16,0.0,0.0,0.75,0.5,0.0,0.0,0.0,1.75,0.0,0.0,0.0,0.0,0.0,-0.3,0.95,0.83,45.23,3.0,3.1,4.0,0.75,3.5,3.0,4.75,6.0,5.0,7.25,1.5,8.25,6.75,3.25,4.5,0.08,0.08,0.95,859.61,-1.1,-16.4
2.18,0.0,0.0,0.0,0.25,0.0,0.0,0.0,0.25,0.0,0.0,0.0,0.0,0.0,-0.3,0.77,1.02,30.7,0.6,10.6,4.0,0.75,3.75,3.25,4.75,6.0,5.5,7.25,1.5,8.5,6.75,3.25,4.5,0.08,0.08,0.95,864.06,-1.4,-15.7
2.2,0.0,0.0,0.0,0.25,0.0,0.0,0.0,0.25,0.0,0.0,0.0,0.0,0.0,-0.36,0.58,1.02,15.24,0.6,10.6,4.0,0.75,4.75,3.0,4.75,6.0,5.5,7.0,1.5,8.75,6.75,3.5,4.75,0.08,0.08,0.95,881.84,-1.9,-15.7
2.22,0.0,0.0,0.0,0.25,0.0,0.0,0.0,0.0,0.0,0.0,0.0,0.0,0.0,-0.42,0.58,0.77,3.43,17.2,57.9,4.0,0.75,4.5,3.25,4.75,6.0,5.75,7.0,1.5,9.0,6.75,3.5,4.75,0.08,0.08,0.95,898.23,-1.8,-15.9
2.24,0.0,0.0,1.0,0.5,0.0,0.0,0.0,0.0,0.0,0.25,0.5,0.0,0.0,-0.42,0.27,0.95,9.03,21.7,16.4,4.0,0.75,4.0,3.25,4.5,6.0,5.5,7.0,1.5,9.0,7.25,3.75,4.75,0.08,0.08,0.95,904.31,-1.6,-17.9
2.26,0.0,0.0,0.75,0.5,0.0,0.0,0.0,0.0,0.0,0.25,0.5,0.0,0.0,-0.42,0.2,0.95,13.47,19.6,10.8,3.25,0.75,3.5,2.75,4.5,6.0,5.0,7.25,1.5,9.25,7.5,3.75,5.0,0.08,0.08,0.95,896.02,-0.4,-21.8
2.28,0.0,0.0,1.0,0.5,0.0,0.0,0.0,0.0,0.0,0.25,0.75,0.0,0.0,-0.48,0.08,1.08,24.12,20.6,7.6,2.75,0.75,3.25,2.25,4.25,6.0,4.25,7.5,1.5,9.75,8.0,4.0,5.5,0.08,0.08,0.95,880.95,0.5,-26.7
2.3,0.0,0.0,1.0,0.5,0.0,0.0,0.0,0.0,0.0,0.25,0.75,0.0,0.0,-0.42,-0.11,1.02,31.38,20.6,7.6,2.75,0.75,3.0,2.0,4.25,6.0,3.5,7.75,1.5,9.75,8.25,4.25,5.75,0.08,0.08,0.95,867.03,1.0,-28.8
2.32,0.0,0.0,0.0,0.5,0.0,0.0,0.0,0.0,0.0,0.25,0.75,0.0,0.0,-0.42,-0.11,0.95,28.19,8.6,-28.9,2.5,0.75,2.75,1.75,4.25,5.75,3.0,7.75,1.5,10.5,8.25,4.25,6.0,0.08,0.08,0.95,859.23,1.7,-31.6
2.34,0.0,0.0,1.5,0.5,0.0,0.0,0.0,0.0,0.0,0.25,0.75,0.0,0.0,-0.55,-0.23,0.95,33.42,23.6,16.6,2.5,0.75,2.25,1.75,4.25,5.75,2.5,7.75,1.5,10.5,8.25,4.5,6.0,0.08,0.08,0.95,852.34,2.1,-33.0
2.36,0.0,0.0,1.0,0.5,0.0,0.0,0.0,0.0,0.0,0.25,0.5,0.0,0.0,-0.61,-0.3,0.89,36.01,21.7,16.4,2.5,0.75,0.75,1.75,4.25,5.25,2.5,7.5,1.5,10.5,8.25,4.5,6.25,0.08,0.08,0.95,839.53,3.1,-36.6
2.38,0.0,0.0,1.0,0.5,0.0,0.0,0.0,0.0,0.0,0.25,0.75,0.0,0.25,-0.48,-0.3,0.89,41.6,17.5,-3.1,1.25,0.0,0.75,0.5,1.5,4.5,1.5,7.0,1.0,9.75,7.5,4.25,5.5,0.08,0.08,0.95,763.14,5.0,-50.6
2.4,0.0,0.0,2.0,0.5,0.0,0.0,0.0,0.0,0.0,0.25,0.75,0.0,0.0,-0.36,-0.23,0.83,50.67,25.7,23.1,1.25,0.0,2.0,0.0,0.5,4.5,0.25,7.0,0.75,9.5,7.5,3.75,5.5,0.08,0.08,0.95,683.78,4.7,-51.7
2.42,0.0,0.0,1.0,0.5,0.0,0.0,0.0,0.0,0.0,0.25,0.75,0.0,0.0,-0.36,-0.17,0.95,52.91,20.6,7.6,1.25,0.0,0.5,0.0,1.75,4.5,1.25,7.0,0.5,9.5,7.5,3.75,5.75,0.08,0.08,0.95,618.84,5.9,-51.8
2.44,0.0,0.0,1.5,0.5,0.0,0.0,0.0,0.0,0.0,0.25,0.75,0.0,0.0,-0.3,-0.11,1.02,53.52,23.6,16.6,2.25,0.75,0.75,1.5,3.0,4.5,1.5,7.5,1.25,10.5,7.5,4.25,5.75,0.08,0.08,0.95,624.12,3.7,-40.2
2.46,0.0,0.0,2.0,0.5,0.0,0.0,0.0,0.0,0.0,0.25,0.75,0.0,0.0,-0.3,-0.05,1.02,55.36,25.7,23.1,2.5,0.75,1.25,1.5,3.5,4.5,1.5,7.25,1.0,10.5,7.5,4.25,5.5,0.08,0.08,0.95,648.28,3.0,-37.1
2.48,0.0,0.0,1.5,0.5,0.0,0.0,0.0,0.0,0.0,0.25,0.75,0.0,0.0,-0.3,0.02,0.95,54.56,23.6,16.6,2.0,0.75,1.25,1.5,3.5,4.0,1.25,7.0,1.0,9.0,7.75,4.0,6.0,0.08,0.08,0.95,671.35,2.9,-38.7
2.5,0.0,0.0,2.0,0.5,0.0,0.0,0.0,0.0,0.0,0.0,0.5,0.0,0.0,-0.17,0.02,0.89,54.96,30.3,38.9,2.0,0.75,0.5,1.5,0.5,2.75,1.25,6.25,1.0,9.75,6.75,3.5,5.0,0.08,0.08,0.95,636.13,3.3,-47.7
2.52,0.0,0.0,1.75,0.5,0.0,0.0,0.0,0.0,0.0,0.25,0.75,0.0,0.0,-0.11,0.02,0.83,55.47,24.8,20.1,2.0,0.75,0.0,1.5,0.5,2.25,1.25,6.25,1.0,8.75,6.5,3.0,4.75,0.08,0.08,0.95,576.75,3.5,-48.0
2.54,0.0,0.0,1.0,0.5,0.0,0.0,0.0,0.0,0.0,0.25,0.25,0.0,0.0,0.02,-0.11,0.83,49.37,23.0,27.3,1.75,0.75,0.5,1.5,2.5,3.75,1.5,6.25,1.0,8.5,6.5,3.0,5.25,0.08,0.08,0.95,543.97,3.7,-39.5
2.56,0.0,0.0,1.5,0.5,0.0,0.0,0.0,0.0,0.0,0.25,0.5,0.0,0.0,1.27,-1.11,2.39,47.26,24.7,24.6,2.0,0.75,1.0,1.5,1.75,2.0,1.0,5.5,0.75,7.5,4.0,1.5,3.0,0.08,0.14,0.95,470.64,2.5,-31.5
2.58,0.0,0.0,2.0,0.5,0.0,0.0,0.25,0.25,0.5,2.0,0.75,0.0,1.25,-0.73,0.33,2.58,67.23,7.0,-29.0,0.5,0.0,1.25,0.0,1.25,0.0,1.75,5.25,0.5,5.75,4.0,1.0,2.25,0.08,0.08,0.89,383.53,2.8,-47.9
2.6,0.0,0.0,2.0,1.0,0.0,0.0,0.5,0.75,0.5,2.0,0.0,0.5,1.25,-0.17,-0.11,0.77,93.3,6.3,-24.1,0.25,0.0,0.5,0.0,0.25,2.0,0.75,4.25,0.25,4.75,2.0,0.75,1.25,0.08,0.08,0.89,291.61,8.3,-45.9
2.62,0.0,0.0,1.75,0.25,0.0,0.0,0.5,1.0,0.0,0.0,0.0,0.0,1.25,-0.17,0.14,0.95,97.53,10.2,-10.5,0.5,0.25,0.25,0.0,0.5,2.25,1.5,4.25,0.25,4.75,2.75,0.75,1.25,0.14,0.14,0.83,240.35,6.7,-40.7
2.64,0.0,0.0,1.0,0.75,0.0,0.0,1.0,1.75,0.0,2.75,2.25,0.0,1.0,-0.17,0.14,0.95,121.87,0.5,-43.1,1.5,0.75,0.75,1.5,2.25,2.5,1.5,4.25,0.75,4.5,2.0,1.0,1.25,0.02,0.33,0.83,220.54,1.8,-14.1
2.66,0.0,0.0,0.0,2.0,0.0,0.0,0.5,2.0,0.75,3.5,3.75,1.75,0.75,-0.17,0.14,0.95,162.81,0.5,-53.8,1.25,0.75,0.5,1.5,1.75,3.25,1.5,4.25,0.75,3.5,2.25,1.0,1.25,-0.17,0.08,1.27,221.39,2.5,-14.3
2.68,0.0,0.5,0.5,1.25,0.0,0.0,1.0,3.75,0.75,5.0,4.25,2.0,3.75,-0.17,0.08,0.95,232.89,-2.6,-59.8,1.75,0.5,0.75,1.5,2.5,2.75,1.5,4.0,0.75,3.5,2.0,1.0,1.25,-0.05,0.02,0.95,234.11,1.1,-10.0
2.7,0.0,0.0,1.25,2.0,0.0,0.25,1.0,3.75,1.0,5.25,4.5,2.25,4.25,-0.11,0.08,0.95,294.23,-1.2,-56.4,1.75,0.5,1.0,1.5,1.5,2.75,1.5,4.0,0.75,3.25,2.0,1.0,1.25,0.02,0.02,0.95,242.14,0.4,-11.8
2.72,0.0,0.5,2.0,2.0,0.0,0.75,1.0,3.75,0.75,5.0,4.75,2.0,3.75,-0.17,0.08,0.95,352.02,0.1,-46.7,1.5,0.75,0.5,1.5,2.5,3.25,1.5,4.0,0.75,3.25,2.0,1.0,1.25,0.02,0.02,0.95,254.6,2.0,-9.1
2.74,0.0,1.0,2.0,1.5,0.0,1.0,1.0,4.0,1.0,5.25,4.75,2.25,3.75,-0.17,0.14,0.95,388.28,-0.3,-46.0,1.75,0.75,1.0,1.5,2.5,3.25,1.5,4.0,0.75,3.25,2.0,1.0,1.25,0.14,0.02,0.95,267.94,0.8,-6.5
2.76,0.0,1.0,2.0,2.25,0.0,1.25,1.5,4.75,0.0,5.0,4.0,2.25,2.5,-0.11,0.14,0.95,396.64,-0.1,-37.1,1.25,0.75,0.5,1.5,1.25,3.25,1.5,3.75,0.75,3.25,2.0,1.0,1.25,0.02,0.02,0.95,270.89,2.2,-14.2
2.78,0.0,1.0,1.0,2.5,0.0,1.5,1.25,4.5,0.5,5.0,5.25,2.0,3.75,-0.17,0.08,0.95,406.72,-1.5,-44.0,1.5,0.75,1.25,1.5,2.75,3.25,1.25,3.75,0.75,3.25,2.0,1.0,1.25,0.02,0.14,0.95,283.54,0.8,-5.9
2.8,0.0,1.0,1.5,2.5,0.0,1.5,1.5,4.25,0.75,5.0,5.25,2.0,3.5,-0.11,0.08,0.95,408.82,-0.3,-41.1,2.0,0.75,1.25,1.5,2.5,3.25,1.5,4.0,0.75,1.75,2.0,1.0,1.25,0.02,0.08,0.95,295.34,-0.9,-0.2
2.82,0.0,1.25,0.0,2.25,0.0,1.75,1.75,4.5,0.75,3.75,4.75,2.0,2.5,-0.11,0.14,0.95,392.1,-1.9,-40.8,1.5,0.25,0.25,0.0,0.25,2.25,1.75,2.75,0.5,1.75,1.25,0.25,0.25,0.02,0.14,0.95,263.45,1.3,-9.7
2.84,0.0,1.0,0.0,2.5,0.0,1.25,2.0,4.0,1.5,4.5,4.75,2.0,2.5,-0.11,0.14,0.95,378.0,-1.0,-43.3,0.25,0.0,0.5,0.0,0.25,2.0,1.25,2.75,0.25,2.75,1.25,0.25,0.25,0.02,0.08,0.95,218.87,6.5,-29.1
2.86,0.0,1.0,0.0,2.5,0.0,1.5,2.0,4.0,1.0,4.75,4.75,2.0,2.5,-0.11,0.14,0.95,361.99,-1.6,-43.0,0.25,0.0,0.25,0.0,2.25,2.0,1.0,2.75,0.25,3.0,1.5,0.5,0.25,0.02,0.08,0.95,181.92,6.7,-20.4
2.88,0.0,0.75,0.0,2.0,0.0,1.75,2.0,3.75,1.0,4.0,4.5,2.0,2.5,-0.11,0.14,0.95,337.27,-1.9,-44.7,0.0,0.0,0.0,0.0,0.25,2.0,1.25,2.75,0.25,3.0,1.5,0.5,0.25,0.02,0.08,0.95,151.87,8.9,-39.9
2.9,0.0,1.0,2.0,2.5,0.0,1.5,1.75,4.5,1.25,3.75,4.5,2.0,2.5,-0.11,0.14,0.95,328.02,1.5,-33.5,0.25,0.0,0.0,0.0,0.0,2.0,1.75,3.0,0.25,3.0,1.5,0.75,0.5,0.02,0.08,0.95,143.77,7.3,-41.1
2.92,0.0,1.0,0.0,2.5,0.0,1.5,1.75,4.0,1.25,3.75,4.0,1.5,2.5,-0.11,0.14,0.95,310.3,-1.6,-39.4,0.25,0.0,0.0,0.0,0.0,2.0,1.0,2.75,0.25,2.75,1.5,0.25,0.25,0.02,0.08,0.95,134.8,8.8,-37.7
2.94,0.0,1.0,0.0,2.5,0.0,1.5,2.0,3.75,1.0,3.5,4.0,1.25,2.0,-0.11,0.14,0.95,295.2,-1.1,-36.1,0.0,0.0,0.5,0.0,0.25,2.0,1.25,2.75,0.5,2.5,1.5,0.5,0.5,0.02,0.08,0.95,134.52,6.2,-35.4
2.96,0.0,1.25,1.75,2.5,0.0,1.5,2.0,3.75,1.0,3.5,3.75,1.0,1.5,-0.11,0.14,0.95,284.69,2.2,-23.8,0.25,0.0,0.5,0.0,0.0,2.0,1.25,2.5,0.5,2.75,1.5,0.25,0.5,0.02,0.08,0.95,129.39,5.7,-34.1
2.98,0.0,1.25,0.0,2.5,0.0,1.5,2.0,3.75,1.0,3.25,3.5,1.0,1.25,-0.11,0.14,0.95,269.94,-0.7,-29.1,0.25,0.0,0.5,0.0,0.25,2.0,1.25,2.75,0.5,2.75,1.75,0.5,0.5,0.02,0.14,0.95,137.96,5.2,-34.5
3.0,0.0,1.0,0.0,2.5,0.0,1.5,2.0,3.75,0.75,3.25,3.0,0.75,1.25,-0.11,0.14,0.95,254.5,-1.4,-28.5,0.25,0.0,0.0,0.0,0.0,2.0,1.25,2.75,0.5,3.25,1.75,0.5,0.5,0.02,0.08,0.95,147.14,7.6,-42.5
3.02,0.0,1.0,0.0,2.5,0.0,0.25,1.75,3.75,0.75,3.25,3.0,1.0,1.25,-0.11,0.14,0.95,238.31,-0.1,-34.2,0.25,0.0,0.5,0.0,0.25,2.0,1.25,2.5,0.5,3.0,2.0,0.75,0.25,0.02,0.14,0.95,156.91,4.4,-36.0
3.04,0.0,1.0,0.0,2.5,0.0,0.25,1.5,3.75,0.75,3.5,3.0,1.0,1.25,-0.11,0.14,0.95,230.37,-0.5,-35.2,0.25,0.0,0.0,0.0,0.0,2.0,1.25,2.5,0.5,3.25,1.75,0.5,0.5,0.02,0.08,0.95,165.35,7.4,-42.5
3.06,0.0,1.0,0.0,2.5,0.0,1.0,1.25,3.75,1.0,3.5,3.25,1.25,1.25,-0.11,0.14,0.95,231.49,-1.1,-34.5,0.25,0.0,0.0,0.0,0.0,2.0,1.25,2.75,0.5,3.25,2.0,0.5,0.5,0.02,0.08,0.95,176.21,7.2,-43.1
3.08,0.0,1.0,1.75,2.25,0.0,1.0,1.0,3.75,0.0,3.5,3.5,1.0,1.25,-0.11,0.14,0.95,234.77,1.3,-26.7,0.25,0.0,0.25,0.0,0.0,2.0,1.0,2.5,0.5,3.25,1.5,0.5,0.5,0.02,0.08,0.95,174.09,7.2,-40.3
3.1,0.0,1.0,0.0,1.75,0.0,1.0,0.75,3.5,0.0,3.0,2.25,0.75,1.25,-0.11,0.14,0.95,223.11,-3.9,-33.5,0.25,0.0,0.25,0.0,0.25,2.0,1.25,2.5,0.5,3.0,1.75,0.5,0.25,0.02,0.08,0.95,171.69,6.0,-35.7
3.12,0.0,1.0,1.0,1.75,0.0,1.0,0.5,3.75,0.25,2.25,2.0,0.75,1.25,-0.11,0.14,0.95,211.76,-0.9,-25.1,0.25,0.0,0.0,0.0,0.0,2.25,1.0,2.5,0.75,3.75,1.25,1.0,0.25,0.02,0.08,0.95,174.88,8.0,-43.0
3.14,0.0,1.0,1.0,1.0,0.0,0.75,0.5,3.0,0.5,2.0,1.5,0.75,1.25,-0.17,0.14,0.95,189.98,-0.6,-27.8,1.25,0.75,0.5,1.5,1.75,2.5,1.5,2.75,0.75,3.75,2.0,1.0,1.25,0.02,0.08,0.95,211.36,1.1,-14.2
3.16,0.0,0.0,1.0,1.0,0.0,0.5,0.5,3.25,0.0,2.0,2.0,0.25,1.25,-0.17,0.14,0.95,172.91,-2.2,-38.7,0.5,0.75,1.5,1.5,1.5,2.0,1.25,2.75,0.75,3.5,2.0,1.0,1.25,0.02,0.14,0.95,240.47,-0.1,-15.9
3.18,0.0,0.0,0.0,0.25,0.0,0.0,0.5,3.0,0.0,1.75,1.75,0.0,1.25,-0.17,0.14,0.95,145.65,-7.8,-60.2,1.25,0.5,0.5,1.5,0.0,2.25,1.25,2.5,0.75,3.25,2.0,1.0,1.25,0.02,0.08,0.95,253.45,0.4,-22.7
3.2,0.0,0.0,1.0,0.5,0.0,0.0,0.5,3.0,0.0,1.75,1.5,0.0,1.0,-0.17,0.14,0.95,128.29,-2.2,-41.1,0.25,0.0,0.5,0.0,1.25,1.75,1.25,2.5,0.25,1.5,2.0,0.25,1.25,0.02,0.08,0.95,234.76,4.3,-27.1
3.22,0.0,0.0,1.0,0.5,0.0,0.0,0.5,2.5,0.0,1.75,0.75,0.0,0.5,-0.17,0.14,0.95,107.16,-1.7,-33.0,0.0,0.0,0.0,0.0,0.0,1.25,0.75,1.75,0.25,1.5,1.0,0.25,0.25,0.02,0.08,0.95,188.54,8.6,-41.3
3.24,0.0,0.0,1.0,0.25,0.0,0.0,0.25,2.5,0.0,0.25,0.75,0.0,0.25,-0.17,0.14,0.95,82.6,1.2,-22.8,1.25,0.75,0.0,1.5,0.0,2.0,1.25,2.5,0.75,3.25,2.0,1.0,1.5,0.02,0.08,0.95,186.09,1.2,-25.5
3.26,0.0,0.0,1.0,0.25,0.0,0.0,0.25,2.25,0.0,1.75,0.25,0.0,0.0,-0.17,0.14,0.95,64.86,-2.6,-27.6,1.25,0.75,0.5,1.5,1.25,2.0,1.25,2.5,0.75,3.25,1.5,1.0,1.0,0.02,0.14,0.95,200.53,0.2,-12.9
3.28,0.0,0.0,1.0,0.5,0.0,0.0,0.25,2.0,0.0,1.5,0.5,0.0,0.25,-0.17,0.14,0.95,55.51,-0.5,-26.9,0.0,0.0,0.5,0.0,1.75,1.5,1.25,2.5,0.25,1.5,2.0,0.25,1.0,0.02,0.08,0.95,202.04,4.4,-25.1
3.3,0.0,0.0,0.75,0.75,0.0,0.0,0.25,2.25,0.0,1.5,0.0,0.0,0.0,-0.17,0.14,0.95,51.62,-2.6,-19.2,1.5,0.75,0.5,1.5,1.0,2.0,1.25,2.5,0.75,3.25,2.0,0.75,1.0,0.02,0.14,0.95,220.27,-0.4,-12.8
3.32,0.0,0.0,2.0,0.75,0.0,0.0,0.0,2.0,0.0,1.5,1.25,0.0,0.25,-0.17,0.14,0.95,66.23,5.7,-17.8,1.5,0.5,0.5,1.5,1.25,1.75,1.0,1.0,0.25,1.5,0.75,0.25,0.25,0.02,0.14,0.95,206.73,-3.8,16.0
3.34,0.0,0.0,0.25,0.5,0.0,0.0,0.25,2.0,0.0,1.25,0.5,0.0,0.25,-0.17,0.14,0.95,68.67,-5.8,-38.3,0.0,0.0,0.5,0.0,0.0,1.0,1.0,1.0,0.25,1.5,0.5,0.25,0.0,0.02,0.14,0.95,162.69,3.0,-27.4
3.36,0.0,0.0,1.0,0.5,0.0,0.0,0.0,1.5,0.0,1.0,0.0,0.0,0.0,-0.17,0.14,0.95,63.9,1.8,-10.0,0.25,0.25,0.0,0.0,0.0,0.5,1.0,1.0,0.25,1.25,0.75,0.25,0.0,0.02,0.14,0.95,109.95,1.4,-29.9
3.38,0.0,0.0,2.0,0.75,0.0,0.0,0.25,2.0,0.0,0.75,0.5,0.0,0.0,-0.17,0.14,0.95,68.74,9.0,0.5,0.0,0.0,0.0,0.0,0.0,0.25,0.75,1.0,0.25,1.25,0.75,0.25,0.0,0.02,0.14,0.95,68.25,4.2,-50.8
3.4,0.0,0.0,1.75,0.5,0.0,0.0,0.25,2.0,0.0,1.0,0.5,0.0,0.25,-0.17,0.14,0.95,75.81,5.5,-12.0,0.0,0.0,0.0,0.0,0.0,1.0,0.75,1.0,0.75,2.75,0.5,0.75,0.0,0.02,0.08,0.95,62.59,6.9,-50.0
3.42,0.0,0.0,2.0,0.5,0.0,0.0,0.0,2.0,0.0,0.75,0.5,0.0,0.0,-0.17,0.14,0.95,82.81,8.2,-2.5,1.25,0.75,0.75,1.5,1.25,2.0,1.25,1.25,0.75,2.25,1.75,0.75,0.75,0.02,0.14,0.95,113.8,-2.9,-3.4
3.44,0.0,0.0,2.0,0.5,0.0,0.0,0.25,2.0,0.0,0.75,0.5,0.0,0.0,-0.17,0.14,0.95,87.58,8.6,-1.9,1.25,0.75,0.5,1.25,0.5,2.0,1.25,1.25,0.5,2.0,1.75,0.75,0.5,0.02,0.14,0.95,155.21,-2.8,-5.5
3.46,0.0,0.0,1.75,0.25,0.0,0.0,0.0,0.75,0.25,0.25,0.0,0.0,0.0,-0.17,0.14,0.95,79.18,18.1,20.4,1.25,0.75,1.5,1.5,1.0,2.0,1.25,1.0,0.75,2.0,1.75,0.75,0.75,0.14,0.14,0.95,192.05,-5.3,0.3
3.48,0.0,0.0,1.0,1.0,0.0,0.0,0.0,0.75,0.0,1.0,0.0,0.0,0.0,-0.17,0.14,0.95,70.02,7.6,4.9,1.5,0.75,0.5,1.5,2.5,2.0,1.0,1.25,0.75,1.75,1.75,1.0,0.5,0.14,0.14,0.95,209.46,-2.9,3.9
3.5,0.0,0.0,1.75,0.5,0.0,0.0,0.5,2.25,0.0,0.0,0.0,0.0,0.0,-0.17,0.14,0.95,65.82,9.9,12.3,1.25,0.75,0.75,1.5,1.5,2.0,1.5,1.25,0.5,1.75,1.25,0.75,0.5,0.08,0.2,0.89,220.45,-3.5,5.2
3.52,0.0,0.0,1.25,0.25,0.0,0.0,0.0,0.5,0.0,0.0,0.0,0.0,0.0,-0.17,0.14,0.95,53.0,22.1,36.2,1.25,0.75,0.5,1.25,0.5,2.0,1.25,1.25,0.75,1.5,0.25,0.75,0.25,0.08,0.33,0.89,211.94,-3.2,7.8
3.54,0.0,0.0,1.75,0.5,0.0,0.0,0.25,2.0,0.25,0.5,0.5,0.0,0.0,-0.17,0.14,0.95,60.94,8.5,-3.1,0.5,0.25,0.0,0.5,0.0,2.25,1.25,0.75,0.75,1.5,0.75,0.75,0.0,0.02,0.33,0.89,184.26,1.5,-13.9
3.56,0.0,0.0,1.75,0.5,0.0,0.0,0.5,2.0,0.0,0.75,1.25,0.0,0.0,-0.17,0.08,0.95,71.96,8.1,-12.0,1.25,0.75,0.75,1.25,0.5,2.0,1.5,0.75,0.75,1.5,1.5,1.0,0.5,-0.05,0.27,0.83,185.95,-5.4,-1.3
3.58,0.0,0.0,1.0,0.75,0.0,0.0,0.25,2.0,0.0,0.5,1.0,0.0,0.0,-0.17,0.14,0.95,82.27,4.7,-14.2,1.25,0.75,0.5,1.25,1.0,2.0,1.25,1.0,0.75,1.5,1.25,0.75,0.25,0.02,0.2,0.77,187.04,-3.8,4.5
3.6,0.0,0.0,1.25,0.5,0.0,0.0,0.25,1.75,0.0,0.5,1.25,0.0,0.0,-0.17,0.14,0.95,84.02,7.0,-15.7,1.25,0.75,0.5,1.25,0.5,2.0,1.25,1.0,0.75,1.5,1.5,0.75,0.25,0.08,0.2,1.33,190.13,-4.3,0.7
3.62,0.0,0.0,2.0,0.5,0.0,0.0,0.5,2.0,0.0,0.75,1.25,0.0,0.0,-0.17,0.14,0.95,90.79,9.3,-9.3,1.25,0.75,1.25,1.25,1.5,2.0,1.25,1.0,0.75,1.5,1.5,0.75,0.5,0.33,0.14,0.83,198.46,-5.2,6.1
3.64,0.0,0.0,1.75,0.25,0.0,0.0,0.25,1.75,0.0,0.25,1.25,0.0,0.0,-0.17,0.14,0.95,90.05,10.5,-9.2,1.25,0.75,0.5,1.25,1.25,2.0,1.0,1.0,0.75,1.5,1.5,0.75,0.5,0.02,0.02,1.02,197.43,-3.2,1.7
3.66,0.0,0.0,1.0,0.25,0.0,0.0,0.0,0.25,0.0,0.25,0.0,0.0,0.0,-0.17,0.08,0.95,71.75,19.9,27.5,1.25,0.75,0.5,1.25,0.5,2.0,1.5,1.25,0.75,1.5,1.0,0.75,0.5,0.02,0.08,0.95,190.09,-3.5,0.8
3.68,0.0,0.0,1.0,0.5,0.0,0.0,0.0,0.25,0.0,0.5,0.0,0.0,0.0,-0.17,0.14,0.95,56.34,15.7,19.8,1.25,0.75,0.5,1.5,1.0,2.0,1.25,0.75,0.75,1.5,1.25,0.75,0.5,0.02,0.08,0.95,189.17,-4.2,4.1
3.7,0.0,0.0,2.0,0.75,0.0,0.0,0.25,1.75,0.0,0.25,1.25,0.0,0.0,-0.11,0.08,0.95,63.35,12.3,-0.6,1.25,0.75,0.5,1.25,1.0,2.0,1.25,1.0,0.75,1.5,0.75,0.75,0.25,0.02,0.02,0.95,185.39,-3.6,7.6
3.72,0.0,0.0,2.0,0.5,0.0,0.0,0.25,1.5,0.0,0.25,1.25,0.0,0.0,-0.17,0.08,0.95,70.83,13.3,-1.6,1.25,0.75,0.5,1.5,1.25,2.0,1.5,1.0,0.75,1.5,1.5,0.75,0.25,0.08,0.02,0.95,189.81,-4.3,5.3
3.74,0.0,0.0,2.0,0.75,0.0,0.0,0.25,1.25,0.0,0.75,1.0,0.0,0.0,-0.17,0.08,0.95,83.05,12.4,-0.6,1.25,0.75,0.5,1.5,0.5,2.0,1.25,1.0,0.75,1.5,1.5,0.75,0.5,0.08,-0.05,0.95,192.43,-4.2,-0.2
3.76,0.0,0.0,2.0,0.25,0.0,0.0,0.5,0.25,0.0,0.25,0.0,0.0,0.0,-0.11,0.14,0.95,77.11,27.1,38.7,1.25,0.75,0.5,1.5,1.5,2.0,1.25,0.5,0.75,1.5,1.0,0.75,0.0,0.08,0.02,0.95,195.19,-4.8,13.4
3.78,0.0,0.0,1.0,0.5,0.0,0.0,0.0,0.25,0.0,0.25,0.0,0.0,0.0,-0.17,0.14,0.95,59.13,19.6,31.4,1.25,0.75,0.5,1.25,1.0,1.75,1.25,1.0,0.75,1.5,1.5,0.75,0.0,0.08,0.02,0.89,191.67,-4.8,4.8
3.8,0.0,0.0,2.0,0.5,0.0,0.0,0.25,1.25,0.25,0.25,0.75,0.0,0.0,-0.17,0.14,0.95,57.8,15.0,5.3,1.25,0.75,0.75,1.25,1.25,2.0,1.25,1.0,0.75,1.5,1.75,0.75,0.25,0.08,0.08,0.89,191.68,-4.6,3.8
3.82,0.0,0.0,0.5,0.0,0.0,0.0,0.0,0.5,0.0,0.25,0.0,0.0,0.0,-0.17,0.14,0.95,42.66,5.8,-5.4,1.25,0.75,0.5,1.25,1.0,2.0,1.25,0.75,0.75,1.5,1.25,0.75,0.5,0.08,0.14,0.89,190.26,-3.9,3.1
3.84,0.0,0.0,2.0,0.5,0.0,0.0,0.25,0.75,0.0,0.25,1.0,0.0,0.0,-0.17,0.14,0.95,51.33,18.3,8.1,1.25,0.75,0.5,1.25,0.5,1.75,1.25,1.0,0.75,1.5,1.5,0.75,0.25,0.08,0.2,0.89,187.06,-4.8,0.1
3.86,0.0,0.0,1.75,0.5,0.0,0.0,0.25,0.5,0.0,0.25,1.0,0.0,0.0,-0.11,0.14,0.95,53.89,19.2,7.7,1.25,0.75,0.5,1.25,1.0,2.0,1.25,1.0,0.75,1.5,1.5,0.75,0.25,0.08,0.14,0.89,185.95,-4.0,3.0
3.88,0.0,0.0,1.0,0.5,0.0,0.0,0.0,0.25,0.0,0.25,0.0,0.0,0.0,-0.17,0.14,0.95,52.68,19.6,31.4,1.25,0.75,0.75,1.5,0.5,2.0,1.25,1.25,0.75,1.5,1.5,0.75,0.5,0.08,0.14,0.89,189.23,-4.5,0.1
3.9,0.0,0.0,2.0,0.5,0.0,0.0,0.25,1.25,0.0,0.25,0.75,0.0,0.0,-0.17,0.14,0.95,59.28,15.1,7.5,1.25,0.75,0.5,1.5,1.0,1.75,1.25,0.5,0.75,1.5,1.25,1.0,0.25,0.08,0.2,0.89,188.66,-5.5,4.5
3.92,0.0,0.0,1.0,0.5,0.0,0.0,0.25,1.5,0.0,0.25,1.0,0.0,0.0,-0.17,0.14,0.95,60.68,7.6,-12.2,1.25,0.75,0.5,1.25,1.5,1.75,1.25,0.0,0.75,1.5,1.0,0.75,0.5,0.08,0.14,0.89,186.02,-5.2,9.0
3.94,0.0,0.0,2.0,0.5,0.0,0.0,0.5,0.25,0.0,0.25,0.0,0.0,0.0,-0.17,0.14,0.95,59.19,26.3,40.3,1.25,0.75,0.5,1.5,1.5,2.0,1.25,1.0,0.75,1.5,1.25,0.75,0.25,0.02,0.14,0.89,189.81,-3.8,7.6
3.96,0.0,0.25,2.0,1.0,0.0,0.0,0.25,1.0,0.25,0.75,1.25,0.0,0.0,-0.17,0.14,0.95,74.71,13.6,2.8,1.25,0.75,0.5,1.5,0.25,2.0,1.25,0.25,0.75,1.5,1.5,0.75,0.5,0.02,0.14,0.95,184.53,-5.7,0.8
3.98,0.0,0.0,2.0,0.75,0.0,0.0,0.25,1.25,0.0,0.5,1.5,0.0,0.0,-0.17,0.14,0.95,87.43,13.4,-3.4,1.25,0.75,0.5,1.25,0.5,2.0,1.25,0.75,0.75,1.5,1.5,0.75,0.25,0.02,0.14,0.95,182.94,-4.7,1.5
4.0,0.0,0.0,2.0,0.5,0.0,0.0,0.25,1.0,0.0,0.5,1.0,0.0,0.0,-0.17,0.08,0.95,93.41,14.9,1.8,1.25,0.75,0.5,1.5,0.5,2.0,1.25,1.0,0.75,1.5,1.5,0.75,0.0,0.02,0.02,0.89,181.05,-4.9,4.2
4.02,0.0,0.0,2.0,0.5,0.0,0.0,0.25,0.75,0.0,0.25,1.25,0.0,0.0,-0.17,0.08,0.95,90.89,17.9,4.0,1.75,0.75,0.5,1.5,0.5,2.0,1.25,0.75,0.75,1.5,0.5,0.75,0.25,0.02,0.14,0.95,179.77,-5.7,12.7
4.04,0.0,0.0,1.75,0.5,0.0,0.0,0.25,1.0,0.0,0.25,1.25,0.0,0.0,-0.17,0.08,0.95,86.52,15.1,-1.1,1.25,0.75,0.5,1.5,1.75,2.0,1.25,1.0,0.75,1.5,1.5,0.75,0.5,0.02,0.14,0.95,188.32,-3.5,5.0
4.06,0.0,0.0,2.0,0.5,0.0,0.0,0.25,0.75,0.0,0.25,1.0,0.0,0.0,-0.17,0.14,0.95,82.95,18.3,8.1,0.0,0.0,0.5,0.0,0.0,0.5,0.75,0.0,0.75,1.5,0.0,0.75,0.0,0.02,0.14,0.95,151.41,-2.9,-38.4
4.08,0.0,0.0,1.75,0.5,0.0,0.0,0.25,0.75,0.0,0.25,1.0,0.0,0.0,-0.17,0.14,0.95,76.31,17.1,5.0,0.0,0.0,1.0,0.0,1.25,0.5,1.25,1.0,0.25,0.0,1.5,0.0,0.0,0.02,0.14,0.89,124.23,-7.2,2.3
4.1,0.0,0.0,2.0,0.5,0.0,0.0,0.25,1.0,0.0,0.25,0.75,0.0,0.0,-0.11,0.08,0.95,76.26,16.8,9.9,0.0,0.0,0.5,0.0,0.0,0.5,0.75,0.0,0.25,0.0,0.0,0.0,0.0,0.02,0.14,0.95,68.99,-14.7,30.0
4.12,0.0,0.0,2.0,0.5,0.0,0.0,0.25,1.0,0.0,0.25,0.5,0.0,0.0,-0.17,0.08,0.95,74.48,17.1,14.6,1.25,0.75,0.0,1.5,0.25,2.0,1.25,1.0,0.75,1.5,1.25,0.75,0.25,0.02,0.14,0.95,88.0,-3.2,-0.3
4.14,0.0,0.25,1.25,0.75,0.0,0.0,0.25,1.0,0.0,0.25,0.0,0.0,0.0,-0.17,0.08,1.14,67.55,13.3,25.7,0.25,0.0,0.5,0.0,2.25,0.25,1.25,1.0,0.25,0.0,0.25,0.25,0.0,0.02,0.14,0.95,80.75,-4.1,20.9
4.16,0.0,0.0,1.75,0.75,0.0,0.0,0.25,0.5,0.0,0.25,0.25,0.0,0.0,-0.17,0.08,1.14,63.46,20.7,27.6,1.25,0.5,0.0,1.25,0.0,2.0,0.75,0.75,0.75,1.5,0.25,0.75,0.0,0.02,0.08,0.95,106.6,-2.2,4.7
4.18,0.0,0.0,1.0,1.0,0.0,0.0,0.25,0.0,0.0,0.0,0.0,0.0,0.0,-0.17,0.14,1.14,51.54,27.9,57.6,1.25,0.75,0.5,1.5,1.5,2.0,1.25,1.25,0.75,1.75,1.5,0.75,0.25,0.02,0.14,0.95,139.4,-3.2,4.0
4.2,0.0,0.0,2.0,0.5,0.0,0.0,0.0,0.0,0.0,0.0,0.0,0.0,0.0,-0.17,0.14,1.08,42.95,34.0,60.3,1.25,0.75,0.5,1.25,1.0,2.0,1.25,1.0,0.75,1.75,1.75,0.75,0.25,0.02,0.14,0.95,169.99,-3.7,0.2
4.22,0.0,0.0,1.0,0.25,0.0,0.0,0.0,0.0,0.0,0.0,0.5,0.0,0.0,-0.23,-0.11,0.83,33.58,27.6,23.3,0.0,0.0,0.5,0.0,0.0,1.0,0.75,1.0,0.25,0.0,0.0,0.0,0.0,0.02,0.14,0.95,140.16,1.3,8.2
4.24,0.0,0.0,1.0,0.25,0.0,0.0,0.0,0.0,0.0,0.0,0.0,0.0,0.0,-0.42,0.08,1.2,26.0,34.0,60.3,0.0,0.0,0.0,0.0,0.0,1.0,1.0,0.75,0.5,0.25,0.25,0.0,0.0,0.02,0.14,0.95,105.1,4.4,-12.6
4.26,0.0,0.0,1.0,0.25,0.0,0.0,0.0,0.0,0.0,0.0,0.0,0.0,0.0,-0.05,-0.3,0.89,18.74,34.0,60.3,1.25,0.75,0.0,1.5,0.25,2.0,1.25,1.0,0.75,1.5,0.75,0.75,0.25,0.02,0.14,0.95,109.76,-2.8,2.8
4.28,0.0,0.0,1.0,0.25,0.0,0.0,0.0,0.0,0.0,0.0,0.0,0.0,0.0,-0.23,-0.05,0.58,15.11,34.0,60.3,1.25,0.75,0.5,1.5,0.5,2.0,1.75,1.25,0.75,1.5,1.5,0.75,0.25,0.02,0.14,0.95,137.2,-4.7,1.6
4.3,0.0,0.0,1.0,0.25,0.0,0.0,0.0,0.0,0.0,0.0,0.0,0.0,0.0,-0.17,0.02,0.52,13.4,34.0,60.3,0.0,0.0,0.0,0.0,0.0,1.0,0.75,0.75,0.75,1.5,0.0,1.0,0.0,0.02,0.14,0.95,137.76,5.3,-45.0
4.32,0.0,0.0,1.0,0.25,0.0,0.0,0.0,0.0,0.0,0.0,0.0,0.0,0.0,0.02,0.02,0.52,13.38,34.0,60.3,1.25,0.0,0.5,0.0,0.5,1.0,1.25,1.0,0.25,0.0,1.5,0.25,0.25,0.02,0.14,0.95,132.86,-8.1,1.6
4.34,0.0,0.0,1.0,0.25,0.0,0.0,0.0,0.0,0.0,0.0,0.0,0.0,0.0,0.02,0.02,0.45,14.16,34.0,60.3,0.0,0.0,0.0,0.0,0.0,0.75,0.75,0.5,0.25,0.0,0.75,0.25,0.0,0.02,0.14,0.95,95.13,0.0,-27.6
4.36,0.0,0.0,1.0,0.25,0.0,0.0,0.0,0.0,0.0,0.0,0.0,0.0,0.0,0.02,0.08,0.33,15.47,34.0,60.3,1.25,0.75,0.0,1.5,0.0,2.0,0.75,1.0,0.75,1.5,0.25,0.75,0.0,0.02,0.14,0.95,96.08,-2.4,7.5
4.38,0.0,0.0,0.0,0.25,0.0,0.0,0.0,0.0,0.0,0.25,0.0,0.0,0.0,-2.55,0.08,5.77,12.03,1.1,-7.2,1.25,0.75,0.5,1.5,1.75,2.0,1.25,1.25,0.75,1.75,1.5,0.75,0.25,0.02,0.14,0.95,133.49,-3.1,4.9
4.4,0.0,0.0,0.5,0.25,0.0,0.0,0.0,0.0,0.0,0.0,0.0,0.0,0.0,0.08,0.08,0.83,10.71,31.1,59.9,1.25,0.75,0.5,1.25,0.5,2.0,1.25,1.25,0.75,1.75,1.5,1.0,0.5,0.02,0.14,0.95,169.04,-3.3,-5.5
4.42,0.0,0.0,0.25,0.25,0.0,0.0,0.0,0.0,0.0,0.25,0.0,0.0,0.0,-0.17,0.08,0.89,9.65,13.5,15.5,1.25,0.75,0.5,1.5,1.25,2.0,1.25,1.0,0.75,1.5,1.25,1.0,0.0,0.02,0.14,0.95,191.86,-4.4,6.7
4.44,0.0,0.0,0.0,0.25,0.0,0.0,0.0,0.0,0.0,0.0,0.0,0.0,0.0,-0.17,0.08,0.95,6.59,17.2,57.9,1.25,0.75,0.5,1.5,1.0,2.0,1.25,1.0,0.75,1.5,1.5,0.75,0.25,0.02,0.14,0.95,206.05,-4.2,4.1
4.46,0.0,0.0,0.0,0.25,0.0,0.0,0.0,0.0,0.0,0.0,0.0,0.0,0.0,-0.17,0.08,0.95,4.68,17.2,57.9,1.25,0.75,0.5,1.5,0.5,2.0,1.25,1.0,0.75,1.5,1.5,1.0,0.25,0.02,0.14,0.95,210.97,-4.7,-0.2
4.48,0.0,0.0,0.25,0.25,0.0,0.0,0.0,0.0,0.0,0.0,0.0,0.0,0.0,-0.17,0.08,0.95,4.52,27.6,59.4,1.25,0.75,0.5,1.5,1.5,2.0,1.25,1.5,0.75,1.5,1.75,0.75,0.0,0.02,0.14,0.95,210.91,-3.6,5.3
4.5,0.0,0.0,1.25,0.25,0.0,0.0,0.0,0.0,0.0,0.0,1.25,0.0,0.0,-0.17,0.14,0.95,17.1,24.2,0.8,1.25,0.75,0.5,1.5,1.0,2.0,1.25,1.0,0.75,1.5,1.5,0.75,0.0,0.02,0.14,0.95,206.88,-4.6,6.3
4.52,0.0,0.0,0.25,0.5,0.0,0.0,0.0,0.0,0.0,0.25,0.0,0.0,0.0,-0.17,0.08,0.95,19.82,14.4,26.3,1.25,0.75,0.5,1.5,1.0,2.0,1.25,1.0,0.75,1.5,1.5,0.75,0.25,0.02,0.14,0.95,209.65,-4.2,4.1
4.54,0.0,0.0,1.0,0.5,0.0,0.0,0.0,0.0,0.0,0.25,1.0,0.0,0.0,-0.17,0.08,0.95,31.96,19.8,0.4,1.25,0.75,0.5,1.25,1.0,2.0,1.25,1.0,0.75,1.75,1.75,1.0,0.25,0.02,0.14,0.95,212.62,-3.8,-1.7
4.56,0.0,0.0,0.25,0.5,0.0,0.0,0.0,0.0,0.0,0.5,1.0,0.0,0.0,-0.17,0.14,0.95,35.12,9.5,-28.8,1.75,0.75,0.5,1.5,1.0,2.0,1.25,0.75,0.75,1.5,1.75,1.0,0.25,0.02,0.14,0.95,211.77,-5.8,4.6
4.58,0.0,0.0,0.5,0.5,0.0,0.0,0.0,0.0,0.0,0.5,1.0,0.0,0.0,-0.17,0.08,0.95,40.48,12.4,-19.5,1.25,0.75,0.5,1.5,1.25,2.0,1.25,1.0,0.75,1.75,1.25,0.75,0.25,0.02,0.14,0.95,208.85,-3.6,5.1
4.6,0.0,0.0,0.75,0.5,0.0,0.0,0.0,0.0,0.0,0.5,1.25,0.0,0.0,-0.17,0.08,0.95,44.34,14.5,-17.1,1.25,0.75,0.5,1.25,0.5,2.0,1.25,1.0,0.75,1.5,1.75,0.75,0.25,0.02,0.14,0.95,197.31,-4.4,-0.7
4.62,0.0,0.0,0.75,0.75,0.0,0.0,0.0,0.0,0.0,0.75,0.75,0.0,0.25,-0.17,0.08,0.95,51.06,10.8,-14.3,1.5,0.75,0.5,1.5,0.5,2.0,1.25,1.0,0.75,1.75,1.5,1.0,0.25,0.02,0.14,0.95,193.44,-4.8,0.0
4.64,0.0,0.0,0.75,0.5,0.0,0.0,0.0,0.0,0.0,0.5,1.0,0.0,0.0,-0.17,0.08,0.95,51.95,14.8,-12.0,1.25,0.75,0.5,1.5,1.0,2.0,1.25,1.25,0.75,1.75,1.0,1.0,0.5,0.02,0.14,0.95,194.79,-3.0,0.5
4.66,0.0,0.0,1.0,0.5,0.0,0.0,0.25,0.0,0.0,0.5,1.0,0.0,0.0,-0.17,0.08,0.95,54.07,17.4,-4.5,1.25,0.75,0.5,1.25,1.25,2.0,1.25,1.0,0.75,1.5,1.5,1.0,0.0,0.02,0.14,0.95,194.99,-4.2,4.2
4.68,0.0,0.0,1.0,0.5,0.0,0.0,0.0,0.0,0.0,0.5,1.0,0.0,0.0,-0.17,0.08,0.95,54.15,16.8,-5.8,1.25,0.75,0.5,1.25,1.0,2.0,1.25,1.0,0.75,1.5,1.5,1.0,0.25,0.02,0.14,0.95,194.73,-4.1,0.9
4.7,0.0,0.0,1.0,0.5,0.0,0.0,0.0,0.0,0.0,0.5,1.25,0.0,0.0,-0.17,0.08,0.95,54.42,16.4,-11.0,1.5,0.75,0.5,1.5,1.0,2.0,1.25,1.0,0.75,1.5,2.0,0.75,0.5,0.02,0.14,0.95,198.32,-4.6,0.9
4.72,0.0,0.0,1.0,0.5,0.0,0.0,0.0,0.0,0.0,0.5,1.25,0.0,0.0,-0.17,0.08,0.95,53.75,16.4,-11.0,1.25,0.75,0.5,1.5,1.75,2.0,1.25,1.25,0.75,1.5,2.0,0.75,0.25,0.02,0.14,0.95,203.84,-3.6,3.7
4.74,0.0,0.0,1.0,0.5,0.0,0.0,0.0,0.0,0.0,0.5,1.25,0.0,0.0,-0.17,0.08,0.95,53.34,16.4,-11.0,1.25,0.75,0.5,1.25,1.0,2.0,1.25,1.0,0.75,1.5,1.25,0.75,0.0,0.02,0.14,0.95,200.36,-4.2,6.8
4.76,0.0,0.0,1.25,0.5,0.0,0.0,0.0,0.0,0.25,0.75,1.0,0.0,0.0,-0.17,0.14,0.95,56.84,15.8,-8.0,1.25,0.75,0.5,1.5,1.0,2.0,1.25,1.0,0.75,1.5,1.5,1.0,0.25,0.02,0.14,0.95,199.19,-4.3,2.0
4.78,0.0,0.0,1.0,1.0,0.0,0.0,0.0,0.0,0.0,0.5,0.5,0.0,0.0,-0.17,0.08,0.95,54.98,17.9,16.0,1.5,0.75,0.5,1.5,0.5,2.0,1.25,1.0,0.75,1.5,1.75,0.75,0.25,0.02,0.14,0.95,194.84,-5.2,2.1
4.8,0.0,0.0,1.0,0.5,0.0,0.0,0.0,0.0,0.0,0.25,1.0,0.0,0.0,-0.17,0.08,0.95,52.56,19.8,0.4,1.25,0.75,0.5,1.5,1.0,2.0,1.25,1.25,0.75,1.5,0.75,0.75,0.5,0.02,0.14,0.95,193.06,-3.1,5.4
4.82,0.0,0.0,1.25,0.5,0.0,0.0,0.0,0.0,0.0,0.25,1.0,0.0,0.0,-0.17,0.14,0.95,50.04,21.4,5.5,1.25,0.75,0.5,1.5,1.0,2.0,1.25,1.0,0.75,1.5,1.25,0.75,0.0,0.02,0.14,0.95,190.61,-4.5,7.9
4.84,0.0,0.0,1.25,0.5,0.0,0.0,0.25,0.0,0.0,0.25,1.0,0.0,0.0,-0.17,0.14,0.95,49.16,21.8,6.3,1.25,0.75,0.5,1.5,0.5,2.0,1.25,1.0,0.75,1.5,1.5,0.75,0.25,0.02,0.14,0.95,189.08,-4.6,1.9
4.86,0.0,0.0,1.0,0.5,0.0,0.0,0.0,0.0,0.0,0.25,1.25,0.0,0.0,-0.17,0.08,0.95,48.36,19.1,-5.6,1.5,0.75,0.5,1.25,1.0,2.0,1.25,1.0,0.75,1.5,1.75,1.0,0.25,0.02,0.14,0.95,190.66,-4.7,1.2
4.88,0.0,0.0,1.0,0.5,0.0,0.0,0.0,0.0,0.0,0.25,1.0,0.0,0.0,-0.17,0.14,0.95,47.17,19.8,0.4,1.25,0.75,0.5,1.25,1.0,2.0,1.25,1.0,0.75,1.5,1.5,0.75,0.5,0.02,0.14,0.95,190.99,-3.6,0.8
4.9,0.0,0.0,1.25,0.5,0.0,0.0,0.0,0.0,0.0,0.25,1.25,0.0,0.0,-0.17,0.14,0.95,48.08,20.6,-0.4,1.25,0.75,0.5,1.25,1.0,2.0,1.25,1.25,0.75,1.5,1.25,1.0,0.0,0.02,0.14,0.95,191.67,-3.9,3.8
4.92,0.0,0.0,1.25,0.5,0.0,0.0,0.0,0.0,0.0,0.25,1.0,0.25,0.0,-0.17,0.14,0.95,49.02,20.4,-3.1,1.5,0.75,0.5,1.5,1.5,2.0,1.25,1.0,0.75,1.5,1.5,1.0,0.25,0.02,0.14,0.95,196.6,-4.5,5.6
4.94,0.0,0.0,1.25,0.5,0.0,0.0,0.0,0.0,0.25,0.25,0.75,0.0,0.25,-0.17,0.08,0.95,50.44,18.7,-0.8,1.25,0.75,0.5,1.5,1.0,2.0,1.25,1.0,0.75,1.5,1.75,0.75,0.25,0.02,0.14,0.95,197.35,-4.3,2.7
4.96,0.0,0.0,1.5,0.5,0.0,0.0,0.0,0.0,0.0,0.5,1.0,0.0,0.0,-0.17,0.14,0.95,52.97,20.0,3.8,1.25,0.75,0.5,1.5,1.25,2.0,1.25,1.0,0.75,1.5,1.75,0.75,0.25,0.02,0.14,0.95,200.03,-4.2,3.7
4.98,0.0,0.0,1.5,0.5,0.0,0.0,0.0,0.0,0.0,0.25,1.0,0.0,0.0,-0.17,0.14,0.95,53.86,22.7,9.9,1.25,0.75,0.5,1.5,0.5,2.0,1.25,1.0,0.75,1.5,0.25,1.0,0.5,0.02,0.14,0.95,193.92,-3.6,4.9
5.0,0.0,0.0,1.25,0.5,0.0,0.0,0.0,0.0,0.0,0.25,1.0,0.0,0.0,-0.17,0.14,0.95,52.57,21.4,5.5,1.25,0.75,0.5,1.5,1.0,2.0,1.0,1.0,0.75,1.5,1.5,0.75,0.25,0.02,0.14,0.95,192.12,-4.0,3.9
5.02,0.0,0.0,1.5,0.5,0.0,0.0,0.0,0.0,0.0,0.25,1.0,0.0,0.0,-0.17,0.14,0.95,52.98,22.7,9.9,1.25,0.75,0.5,1.5,1.0,2.0,1.25,1.0,0.75,1.5,1.25,1.0,0.25,0.02,0.14,0.95,190.52,-4.2,3.4
5.04,0.0,0.0,1.5,0.5,0.0,0.0,0.0,0.0,0.0,0.25,1.0,0.0,0.0,-0.17,0.14,0.95,53.1,22.7,9.9,1.5,0.75,0.5,1.5,0.5,2.0,1.25,1.0,0.75,1.5,1.5,0.75,0.0,0.02,0.14,0.95,189.78,-5.5,5.9
5.06,0.0,0.0,1.5,0.5,0.0,0.0,0.0,0.0,0.0,0.25,1.0,0.0,0.0,-0.17,0.08,0.95,53.21,22.7,9.9,1.25,0.25,0.5,1.5,0.5,2.0,1.25,1.0,0.75,1.5,1.5,0.75,0.5,0.02,0.14,0.95,186.42,-3.9,-4.3
5.08,0.0,0.0,1.75,0.5,0.0,0.0,0.0,0.0,0.0,0.5,0.75,0.0,0.0,-0.17,0.08,0.95,55.04,21.9,13.4,0.0,0.75,0.5,1.25,1.0,2.0,1.25,1.0,0.75,1.5,1.5,0.75,0.25,0.02,0.14,0.95,180.44,-0.9,-6.1
5.1,0.0,0.0,1.75,0.5,0.0,0.0,0.0,0.0,0.25,0.25,0.75,0.0,0.0,-0.17,0.08,0.95,56.91,23.9,16.0,1.25,0.75,0.5,1.25,1.0,2.0,1.25,1.0,0.75,1.5,1.5,1.0,0.25,0.02,0.14,0.95,181.45,-4.1,0.9
5.12,0.0,0.0,1.75,0.5,0.0,0.0,0.0,0.0,0.25,0.5,1.0,0.0,0.0,-0.17,0.14,0.95,60.33,20.6,4.9,1.25,0.75,0.5,1.5,0.5,2.0,1.25,1.0,0.75,1.5,1.25,0.75,0.25,0.02,0.14,0.95,180.79,-4.5,3.4
5.14,0.0,0.0,1.75,0.5,0.0,0.0,0.0,0.0,0.0,0.25,1.0,0.0,0.0,-0.17,0.14,0.95,60.27,23.8,13.6,1.5,0.75,0.5,1.25,0.5,2.0,1.25,1.0,0.75,1.5,1.75,0.75,0.25,0.02,0.14,0.95,183.87,-5.0,1.0
5.16,0.0,0.0,1.75,0.5,0.0,0.0,0.0,0.0,0.0,0.25,1.0,0.0,0.0,-0.17,0.14,0.95,60.38,23.8,13.6,1.5,0.75,0.5,1.25,0.5,2.0,1.25,1.0,0.75,1.5,1.75,1.0,0.25,0.02,0.14,0.95,185.7,-5.0,-1.0
5.18,0.0,0.0,1.75,0.5,0.0,0.0,0.0,0.0,0.0,0.5,1.0,0.0,0.0,-0.17,0.08,0.95,60.43,21.2,7.7,1.25,0.75,0.5,1.5,0.5,2.0,1.25,1.0,0.75,1.75,1.75,0.75,0.25,0.02,0.14,0.95,189.19,-4.3,-0.9
5.2,0.0,0.0,1.75,0.5,0.0,0.0,0.0,0.0,0.0,0.5,1.0,0.0,0.0,-0.17,0.14,0.95,60.94,21.2,7.7,1.25,0.75,0.5,1.5,0.5,2.0,1.25,0.75,0.75,1.5,1.75,0.75,0.25,0.02,0.14,0.95,188.56,-5.1,1.2
5.22,0.0,0.0,1.75,0.5,0.0,0.0,0.0,0.0,0.0,0.5,1.0,0.0,0.0,-0.17,0.08,0.95,61.67,21.2,7.7,1.25,0.75,0.5,1.5,0.5,2.0,1.25,1.0,0.75,1.5,1.0,0.75,0.25,0.02,0.14,0.95,186.71,-4.3,4.9
5.24,0.0,0.0,1.75,0.5,0.0,0.0,0.0,0.0,0.0,0.75,1.0,0.0,0.0,-0.17,0.14,0.95,63.29,18.9,2.5,1.5,0.75,0.5,1.25,1.0,2.0,1.25,1.0,0.75,1.5,1.5,1.0,0.25,0.02,0.14,0.95,188.75,-4.6,2.6
5.26,0.0,0.0,1.75,0.5,0.0,0.0,0.0,0.0,0.0,0.5,1.0,0.0,0.0,-0.17,0.08,0.95,63.06,21.2,7.7,1.0,0.75,0.5,1.5,0.5,2.0,1.25,1.0,0.75,1.5,1.5,0.75,0.25,0.02,0.14,0.95,187.02,-4.0,0.1
5.28,0.0,0.0,1.75,0.5,0.0,0.0,0.0,0.0,0.0,0.25,1.0,0.0,0.0,-0.17,0.14,0.95,61.5,23.8,13.6,1.25,0.75,0.5,1.25,0.5,2.0,1.25,1.0,0.75,1.5,1.5,1.0,0.0,0.02,0.14,0.95,186.58,-4.8,0.8
5.3,0.0,0.0,1.75,0.5,0.0,0.0,0.0,0.0,0.0,0.25,1.25,0.0,0.0,-0.17,0.14,0.95,60.75,23.0,7.9,1.5,0.75,0.5,1.5,0.5,2.0,1.25,1.0,0.75,1.5,1.5,1.0,0.25,0.02,0.14,0.95,187.87,-5.2,1.5
5.32,0.0,0.0,1.75,0.5,0.0,0.0,0.0,0.0,0.0,0.25,1.25,0.0,0.0,-0.17,0.08,0.95,60.22,23.0,7.9,2.0,0.75,0.5,1.5,1.0,2.0,1.25,1.0,0.75,1.5,1.75,0.75,0.5,0.02,0.14,0.95,195.82,-5.5,5.3
5.34,0.0,0.0,1.75,0.5,0.0,0.0,0.0,0.0,0.0,0.25,1.0,0.0,0.0,-0.17,0.08,0.95,59.18,23.8,13.6,1.25,0.75,0.5,1.25,0.5,2.0,1.25,1.0,0.75,1.5,1.75,0.75,0.25,0.02,0.14,0.95,193.82,-4.4,-0.7
5.36,0.0,0.0,1.75,0.5,0.0,0.0,0.0,0.0,0.0,0.5,1.0,0.0,0.0,-0.17,0.08,0.95,59.38,21.2,7.7,1.25,0.75,0.5,1.5,1.0,2.0,1.25,1.0,0.75,1.5,1.75,1.0,0.25,0.02,0.14,0.95,197.78,-4.4,0.7
5.38,0.0,0.0,1.75,0.5,0.0,0.0,0.0,0.0,0.0,0.25,1.0,0.0,0.0,-0.17,0.08,0.95,58.84,23.8,13.6,1.25,0.5,0.5,1.25,1.0,2.0,1.25,1.0,0.75,1.5,1.5,0.75,0.5,0.02,0.14,0.95,194.76,-3.5,-1.0
5.4,0.0,0.0,1.75,0.5,0.0,0.0,0.0,0.0,0.0,0.5,1.25,0.0,0.0,-0.17,0.08,0.95,60.34,20.6,2.7,2.25,0.75,0.5,1.75,0.5,2.0,1.25,1.0,0.75,1.5,1.5,0.75,0.25,0.02,0.14,0.95,198.17,-6.8,9.3
5.42,0.0,0.0,1.75,0.5,0.0,0.0,0.0,0.0,0.0,0.75,1.25,0.0,0.0,-0.17,0.14,0.95,62.67,18.5,-1.8,1.25,0.75,0.5,1.25,0.5,2.0,1.25,1.0,0.75,1.5,1.5,0.75,0.0,0.02,0.14,0.95,192.12,-4.7,3.0
5.44,0.0,0.0,1.75,0.5,0.0,0.0,0.0,0.0,0.0,0.25,1.0,0.0,0.0,-0.17,0.14,0.95,62.04,23.8,13.6,1.25,0.75,0.5,1.25,1.0,2.0,1.25,1.0,0.75,1.5,1.5,0.75,0.25,0.02,0.14,0.95,192.34,-4.0,3.0
5.46,0.0,0.0,1.75,0.5,0.0,0.0,0.0,0.0,0.0,0.25,0.75,0.0,0.0,-0.17,0.08,0.95,59.43,24.8,20.1,2.0,0.75,0.5,1.25,1.25,2.0,1.25,1.0,0.75,1.5,1.5,1.0,0.0,0.02,0.14,0.95,194.89,-5.8,8.8
5.48,0.0,0.0,1.75,0.5,0.0,0.0,0.0,0.0,0.0,0.25,1.0,0.0,0.0,-0.17,0.14,0.95,57.53,23.8,13.6,1.0,0.5,0.5,1.25,1.25,2.0,1.25,1.0,0.75,1.5,1.5,0.75,0.25,0.02,0.14,0.95,193.24,-3.1,0.5
5.5,0.0,0.0,1.75,0.5,0.0,0.0,0.0,0.0,0.0,0.25,1.25,0.0,0.0,-0.17,0.08,0.95,57.81,23.0,7.9,1.25,0.75,0.5,1.5,1.0,2.0,1.25,1.0,0.75,1.5,1.5,1.0,0.25,0.02,0.14,0.95,195.35,-4.3,2.0
5.52,0.0,0.0,1.75,0.5,0.0,0.0,0.0,0.0,0.0,0.25,1.0,0.0,0.0,-0.17,0.14,0.95,57.54,23.8,13.6,1.25,0.75,0.5,1.5,1.0,2.0,1.25,1.0,0.75,1.5,1.5,0.75,0.75,0.02,0.14,0.95,196.36,-3.6,0.0
5.54,0.0,0.0,1.75,0.5,0.0,0.0,0.0,0.0,0.0,0.5,1.25,0.0,0.0,-0.17,0.14,0.95,59.9,20.6,2.7,1.25,0.75,0.5,1.5,1.25,2.0,1.25,1.0,0.75,1.5,1.75,0.75,0.25,0.02,0.14,0.95,198.26,-4.2,3.7
5.56,0.0,0.0,1.75,0.5,0.0,0.0,0.0,0.0,0.0,0.5,1.25,0.0,0.0,-0.17,0.14,0.95,61.79,20.6,2.7,0.5,0.75,0.5,1.5,1.25,2.0,1.25,1.0,0.75,1.5,1.5,0.75,0.5,0.02,0.14,0.95,195.71,-2.1,-1.9
5.58,0.0,0.0,1.75,0.5,0.0,0.0,0.0,0.0,0.25,0.25,1.0,0.0,0.25,-0.17,0.08,0.95,63.47,20.7,2.5,1.75,0.5,0.5,1.25,0.5,2.0,1.25,1.0,0.75,1.5,1.75,1.0,0.25,0.02,0.14,0.95,195.23,-5.4,-1.2
5.6,0.0,0.0,1.75,0.5,0.0,0.0,0.0,0.0,0.0,0.25,1.0,0.0,0.0,-0.17,0.08,0.95,61.72,23.8,13.6,1.25,0.75,0.5,1.5,0.5,2.0,1.25,1.0,0.75,1.5,1.75,1.0,0.25,0.02,0.14,0.95,192.48,-4.8,-1.5
5.62,0.0,0.0,1.75,0.5,0.0,0.0,0.0,0.0,0.0,0.25,1.0,0.0,0.0,-0.17,0.14,0.95,60.17,23.8,13.6,1.25,0.75,0.5,1.5,1.0,2.0,1.25,1.0,0.75,1.5,1.75,1.0,1.25,0.02,0.14,0.95,198.01,-3.2,-6.9
5.64,0.0,0.0,1.75,0.5,0.0,0.0,0.0,0.0,0.0,0.5,1.0,0.0,0.0,-0.17,0.08,0.95,59.21,21.2,7.7,1.25,0.75,0.5,1.5,1.25,2.0,1.25,1.0,0.75,1.5,1.5,0.75,0.25,0.02,0.14,0.95,199.14,-4.1,5.1
5.66,0.0,0.0,1.75,0.5,0.0,0.0,0.0,0.0,0.0,0.25,1.25,0.0,0.0,-0.17,0.08,0.95,59.52,23.0,7.9,1.5,0.75,0.5,1.5,1.0,2.0,1.25,1.0,0.75,1.5,1.5,0.75,0.75,0.02,0.14,0.95,203.18,-4.1,1.5
5.68,0.0,0.0,1.75,0.5,0.0,0.0,0.0,0.0,0.0,0.25,1.25,0.0,0.0,-0.17,0.14,0.95,60.58,23.0,7.9,1.0,0.75,0.5,1.5,1.0,2.0,1.25,1.0,0.75,1.5,1.5,0.75,0.5,0.02,0.14,0.95,199.75,-3.3,0.3
5.7,0.0,0.0,1.75,0.5,0.0,0.0,0.0,0.0,0.0,0.25,1.0,0.0,0.0,-0.17,0.14,0.95,59.79,23.8,13.6,1.25,0.75,0.5,1.5,0.5,2.0,1.25,1.0,0.75,1.5,1.5,0.75,0.25,0.02,0.14,0.95,194.79,-4.6,1.9
5.72,0.0,0.0,1.75,0.5,0.0,0.0,0.0,0.0,0.0,0.25,1.25,0.0,0.0,-0.17,0.08,0.95,59.68,23.0,7.9,1.25,0.75,0.5,1.5,1.0,2.0,1.25,1.0,0.75,1.5,0.75,0.75,0.0,0.02,0.14,0.95,189.12,-4.2,11.1
5.74,0.0,0.0,1.75,0.5,0.0,0.0,0.0,0.0,0.25,0.25,1.0,0.25,0.0,-0.17,0.14,0.95,60.64,22.2,2.8,1.25,0.75,0.5,1.5,1.0,2.0,1.25,1.0,0.75,1.5,1.5,0.75,0.5,0.02,0.14,0.95,189.22,-3.9,1.9
5.76,0.0,0.0,1.75,0.5,0.0,0.0,0.0,0.0,0.0,0.5,1.25,0.0,0.0,-0.17,0.08,0.95,62.2,20.6,2.7,1.25,1.0,0.5,1.5,0.5,2.0,1.25,1.0,0.75,1.5,1.5,1.0,0.25,0.02,0.14,0.95,189.61,-4.8,1.7
5.78,0.0,0.0,1.75,0.5,0.0,0.0,0.0,0.0,0.0,0.25,1.25,0.0,0.0,-0.17,0.08,0.95,62.08,23.0,7.9,1.25,0.75,0.5,1.5,1.0,2.0,1.25,1.0,0.75,1.5,1.75,0.75,0.25,0.02,0.14,0.95,192.8,-4.3,2.7
5.8,0.0,0.0,1.75,0.5,0.0,0.0,0.0,0.0,0.0,0.25,1.25,0.0,0.0,-0.17,0.08,0.95,61.92,23.0,7.9,1.25,0.75,0.5,1.5,1.0,2.0,1.25,1.0,0.75,1.5,1.5,0.75,0.75,0.02,0.14,0.95,195.87,-3.6,0.0
5.82,0.0,0.0,1.75,0.5,0.0,0.0,0.0,0.0,0.0,0.25,1.0,0.0,0.0,-0.17,0.14,0.95,60.27,23.8,13.6,1.25,0.75,0.5,1.5,1.0,2.0,1.25,1.0,0.75,1.5,1.5,0.75,0.25,0.02,0.14,0.95,195.98,-4.2,4.1
5.84,0.0,0.0,1.75,0.5,0.0,0.0,0.25,0.0,0.0,0.5,0.75,0.0,0.0,-0.17,0.08,0.95,59.69,22.2,13.8,0.5,0.5,0.5,1.5,0.5,2.0,1.25,1.0,0.75,1.5,1.5,0.75,0.25,0.02,0.14,0.95,187.28,-2.6,-5.8
5.86,0.0,0.0,1.75,0.5,0.0,0.0,0.0,0.0,0.0,0.25,1.0,0.0,0.0,-0.17,0.08,0.95,58.32,23.8,13.6,1.25,0.25,0.5,1.25,1.0,2.0,1.25,1.0,0.75,1.5,1.75,0.75,0.25,0.02,0.14,0.95,183.66,-3.8,-2.2
5.88,0.0,0.0,1.75,0.5,0.0,0.0,0.0,0.0,0.0,0.5,1.0,0.0,0.0,-0.17,0.08,0.95,58.79,21.2,7.7,1.25,0.75,0.5,1.5,1.0,2.0,1.25,1.0,0.75,1.5,1.5,1.0,0.25,0.02,0.14,0.95,185.86,-4.3,2.0
5.9,0.0,0.0,1.75,1.0,0.0,0.0,0.0,0.0,0.0,0.25,1.25,0.0,0.0,-0.17,0.08,0.95,62.33,22.3,13.9,1.25,0.75,0.5,1.5,0.5,2.0,1.25,1.0,0.75,1.5,1.75,1.0,0.5,0.02,0.14,0.95,189.2,-4.4,-3.6
5.92,0.0,0.0,1.5,0.5,0.0,0.0,0.0,0.0,0.0,0.25,1.0,0.0,0.0,-0.17,0.08,0.95,60.22,22.7,9.9,1.25,0.75,0.5,1.5,1.0,2.0,1.25,1.0,0.75,1.5,1.75,1.0,0.25,0.02,0.14,0.95,194.59,-4.4,0.7
5.94,0.0,0.0,1.75,0.5,0.0,0.0,0.0,0.0,0.0,0.5,1.0,0.0,0.0,-0.17,0.14,0.95,60.51,21.2,7.7,1.75,0.5,0.5,1.5,1.0,2.0,1.25,1.0,0.75,1.5,1.75,0.75,0.25,0.02,0.14,0.95,198.39,-5.2,4.1
5.96,0.0,0.0,1.75,0.5,0.0,0.0,0.0,0.0,0.0,0.25,0.75,0.0,0.0,-0.17,0.08,0.95,57.08,24.8,20.1,1.5,0.75,0.5,1.5,1.0,2.0,1.25,1.0,0.75,1.5,1.75,0.75,0.25,0.02,0.14,0.95,200.15,-4.9,4.3
5.98,0.0,0.0,1.75,0.5,0.0,0.0,0.0,0.0,0.0,0.25,1.0,0.0,0.0,-0.17,0.08,0.95,56.58,23.8,13.6,1.25,0.75,0.5,1.25,1.0,2.0,1.25,1.0,0.75,1.5,1.75,0.75,0.5,0.02,0.14,0.95,198.78,-3.8,-0.4
6.0,0.0,0.0,1.75,0.5,0.0,0.0,0.0,0.0,0.0,0.25,1.25,0.0,0.0,-0.17,0.08,0.95,56.94,23.0,7.9,1.25,1.0,0.5,0.5,1.0,1.75,1.25,0.75,0.75,1.75,1.75,1.0,0.25,0.02,0.14,0.95,194.85,-4.1,-3.3
6.02,0.0,0.0,1.75,0.5,0.0,0.0,0.0,0.0,0.0,0.25,1.25,0.0,0.0,-0.17,0.08,0.95,58.86,23.0,7.9,1.25,0.75,0.5,1.25,0.5,2.0,1.25,1.0,0.75,1.5,1.25,0.75,0.5,0.02,0.14,0.95,189.49,-3.8,0.0
6.04,0.0,0.0,1.75,0.5,0.0,0.0,0.0,0.0,0.0,0.5,1.25,0.0,0.0,-0.17,0.08,0.95,61.07,20.6,2.7,1.75,0.75,0.5,1.5,0.5,2.0,1.25,1.0,0.75,1.5,1.75,0.75,0.0,0.02,0.14,0.95,188.83,-6.1,6.0
6.06,0.0,0.0,1.75,0.75,0.0,0.0,0.0,0.0,0.0,0.5,1.25,0.0,0.0,-0.17,0.08,0.95,64.3,20.4,6.1,0.5,0.75,0.5,1.25,1.0,2.0,1.25,1.0,0.75,1.5,1.5,0.75,0.5,0.02,0.14,0.95,186.55,-1.9,-4.4
6.08,0.0,0.0,1.75,0.5,0.0,0.0,0.0,0.0,0.0,0.25,0.75,0.0,0.0,-0.17,0.14,0.95,61.93,24.8,20.1,1.25,0.75,0.5,1.5,0.5,2.0,1.25,1.0,0.75,1.5,1.5,1.0,0.25,0.02,0.14,0.95,187.41,-4.7,-0.2
6.1,0.0,0.0,1.75,0.5,0.0,0.0,0.0,0.0,0.0,0.5,1.0,0.0,0.0,-0.17,0.08,0.95,61.38,21.2,7.7,1.25,0.75,0.5,1.5,0.5,2.0,1.25,1.0,0.75,1.5,1.5,1.0,0.25,0.02,0.14,0.95,186.21,-4.7,-0.2
6.12,0.0,0.0,1.75,0.5,0.0,0.0,0.0,0.0,0.0,0.5,1.0,0.0,0.0,-0.17,0.08,0.95,60.09,21.2,7.7,1.25,0.5,0.5,1.5,0.5,2.0,1.0,1.0,0.75,1.5,1.5,1.0,0.25,0.02,0.14,0.95,184.58,-4.2,-2.4
6.14,0.0,0.0,1.75,0.5,0.0,0.0,0.0,0.0,0.0,0.25,1.0,0.0,0.0,-0.17,0.08,0.95,59.22,23.8,13.6,1.25,0.5,0.5,1.75,0.5,2.0,1.25,1.0,0.75,1.5,1.5,1.0,0.25,0.02,0.14,0.95,184.72,-4.7,-1.0
6.16,0.0,0.0,1.75,0.5,0.0,0.0,0.0,0.0,0.0,0.5,1.25,0.0,0.0,-0.17,0.08,0.95,61.05,20.6,2.7,1.25,0.75,0.5,1.25,1.0,2.0,1.25,1.0,0.75,1.5,1.75,1.0,0.25,0.02,0.14,0.95,187.75,-4.2,-0.3
6.18,0.0,0.0,1.75,0.5,0.0,0.0,0.0,0.0,0.0,0.5,1.0,0.0,0.0,-0.17,0.14,0.95,61.19,21.2,7.7,1.25,0.75,0.5,1.5,1.0,2.0,1.25,1.0,0.75,1.5,1.75,0.75,0.25,0.02,0.14,0.95,191.7,-4.3,2.7
6.2,0.0,0.0,1.75,0.5,0.0,0.0,0.0,0.0,0.0,0.25,1.0,0.0,0.0,-0.17,0.08,0.95,60.48,23.8,13.6,1.25,0.5,0.5,1.5,0.5,2.0,1.0,1.0,0.75,1.5,1.75,1.0,0.25,0.02,0.14,0.95,191.3,-4.4,-3.8
6.22,0.0,0.0,1.75,0.5,0.0,0.0,0.0,0.0,0.0,0.5,1.0,0.0,0.0,-0.17,0.08,0.95,59.78,21.2,7.7,1.25,0.75,0.5,1.25,0.5,2.0,1.0,1.0,0.75,1.5,1.5,0.75,0.25,0.02,0.14,0.95,188.59,-4.0,0.4
6.24,0.0,0.0,1.75,0.5,0.0,0.0,0.0,0.0,0.0,0.5,1.0,0.0,0.0,-0.17,0.08,0.95,59.7,21.2,7.7,0.75,0.75,0.5,1.25,1.0,2.25,1.0,1.0,0.75,1.5,1.5,1.0,0.25,0.02,0.14,0.95,187.33,-2.2,-2.1
6.26,0.0,0.0,1.75,0.5,0.0,0.0,0.25,0.0,0.0,0.25,1.0,0.0,0.0,-0.17,0.08,0.95,59.41,24.1,14.0,1.25,0.75,0.5,1.5,1.0,2.0,1.25,1.0,0.75,1.5,1.5,1.0,0.25,0.02,0.14,0.95,189.48,-4.3,2.0
6.28,0.0,0.0,1.75,0.5,0.0,0.0,0.0,0.0,0.0,0.25,1.0,0.0,0.0,-0.17,0.08,0.95,58.47,23.8,13.6,1.0,0.75,0.5,1.5,0.5,2.0,1.25,1.0,0.75,1.5,1.75,0.75,0.25,0.02,0.14,0.95,188.67,-4.1,-1.2
6.3,0.0,0.0,1.75,0.5,0.0,0.0,0.0,0.0,0.0,0.25,1.0,0.0,0.0,-0.17,0.08,0.95,57.93,23.8,13.6,1.25,0.75,0.5,1.5,1.0,2.0,1.25,1.0,0.75,1.5,1.25,0.75,0.25,0.02,0.14,0.95,190.79,-4.1,5.6
6.32,0.0,0.0,1.75,0.5,0.0,0.0,0.0,0.0,0.0,0.25,1.0,0.0,0.0,-0.17,0.14,0.95,57.63,23.8,13.6,1.5,0.75,0.5,0.5,0.5,2.0,1.25,1.0,0.75,1.5,1.75,1.0,0.25,0.02,0.14,0.95,186.9,-4.3,-4.7
6.34,0.0,0.0,1.75,0.5,0.0,0.0,0.0,0.0,0.0,0.25,1.0,0.0,0.0,-0.17,0.14,0.95,56.84,23.8,13.6,1.25,0.75,0.5,1.5,1.0,2.0,1.25,1.0,0.75,1.5,1.75,0.75,0.25,0.02,0.14,0.95,189.65,-4.3,2.7
6.36,0.0,0.0,1.25,0.5,0.0,0.0,0.0,0.0,0.0,0.75,1.0,0.0,0.0,-0.17,0.08,0.95,56.08,16.1,-5.9,1.0,0.75,0.5,1.5,1.0,2.0,1.0,1.0,0.75,1.5,1.75,0.75,0.25,0.02,0.14,0.95,189.93,-3.6,0.8
6.38,0.0,0.0,1.75,0.5,0.0,0.0,0.0,0.0,0.0,0.5,1.0,0.0,0.0,-0.17,0.08,0.95,57.33,21.2,7.7,1.25,1.0,0.5,1.5,0.5,2.0,1.25,1.0,0.75,1.5,1.75,1.0,0.25,0.02,0.14,0.95,192.92,-4.9,0.3
6.4,0.0,0.0,1.75,0.5,0.0,0.0,0.0,0.0,0.0,0.25,1.0,0.0,0.0,-0.17,0.14,0.95,57.1,23.8,13.6,1.25,0.5,0.5,1.5,1.0,2.0,1.25,1.0,0.75,1.5,1.75,0.75,0.5,0.02,0.14,0.95,194.28,-3.8,-1.2
6.42,0.0,0.0,1.75,0.5,0.0,0.0,0.0,0.0,0.0,0.25,1.0,0.0,0.0,-0.17,0.14,0.95,57.57,23.8,13.6,1.25,0.75,0.5,1.0,1.0,2.25,1.25,1.0,0.75,1.5,1.5,0.75,0.5,0.02,0.14,0.95,195.17,-2.9,0.3
6.44,0.0,0.0,1.75,0.5,0.0,0.0,0.0,0.0,0.0,0.25,1.0,0.0,0.0,-0.17,0.08,0.95,57.33,23.8,13.6,1.25,0.75,0.5,0.0,0.5,2.0,1.0,1.0,0.75,1.5,1.5,0.75,0.25,0.02,0.14,0.95,184.65,-2.5,-6.2
6.46,0.0,0.0,1.75,0.5,0.0,0.0,0.0,0.0,0.0,0.25,1.0,0.0,0.0,-0.17,0.14,0.95,57.14,23.8,13.6,1.25,0.75,0.5,1.5,0.5,2.0,1.25,1.0,0.75,1.5,1.75,1.0,0.25,0.02,0.14,0.95,184.21,-4.8,-1.5
6.48,0.0,0.0,1.75,0.5,0.0,0.0,0.0,0.0,0.0,0.25,1.25,0.0,0.0,-0.17,0.08,0.95,58.17,23.0,7.9,1.0,0.75,0.5,1.5,0.5,2.0,1.25,1.0,0.75,1.5,1.5,0.75,0.5,0.02,0.14,0.95,181.64,-3.6,-2.0
6.5,0.0,0.0,1.75,0.5,0.0,0.0,0.0,0.0,0.0,0.25,1.0,0.0,0.0,-0.17,0.08,0.95,58.27,23.8,13.6,1.5,0.25,0.5,1.25,0.5,2.0,1.25,1.0,0.75,1.5,1.5,1.0,0.25,0.02,0.14,0.95,181.81,-4.6,-3.6
6.52,0.0,0.0,2.0,1.0,0.0,0.0,0.0,0.0,0.0,0.25,1.0,0.0,0.0,-0.17,0.08,0.95,62.92,23.9,21.8,1.25,0.75,0.5,1.5,0.5,2.0,1.25,1.0,0.75,1.5,1.5,0.75,0.25,0.02,0.14,0.95,182.86,-4.6,1.9
6.54,0.0,0.0,1.75,0.5,0.0,0.0,0.0,0.0,0.0,0.5,1.25,0.0,0.0,-0.17,0.08,0.95,64.35,20.6,2.7,1.25,0.75,0.5,1.5,0.5,2.0,1.25,1.0,0.75,1.5,1.5,1.0,0.25,0.02,0.14,0.95,184.99,-4.7,-0.2
6.56,0.0,0.0,1.75,0.5,0.0,0.0,0.0,0.0,0.0,0.25,1.25,0.0,0.0,-0.17,0.14,0.95,64.73,23.0,7.9,1.25,0.5,0.5,1.5,0.5,2.0,1.0,1.0,0.75,1.5,1.0,0.75,0.25,0.02,0.14,0.95,181.51,-3.9,2.7
6.58,0.0,0.0,1.75,0.5,0.0,0.0,0.0,0.0,0.0,0.25,1.0,0.0,0.0,-0.17,0.08,0.95,62.28,23.8,13.6,0.75,0.75,0.5,1.25,0.5,2.0,1.0,1.0,0.75,1.5,1.75,1.0,0.25,0.02,0.14,0.95,178.92,-3.1,-6.8
6.6,0.0,0.0,1.75,0.5,0.0,0.0,0.0,0.0,0.0,0.25,1.0,0.0,0.0,-0.17,0.08,0.95,60.22,23.8,13.6,1.25,0.75,0.5,1.75,0.5,2.25,1.25,1.0,0.75,1.5,1.5,1.0,0.25,0.02,0.14,0.95,183.49,-4.4,1.5
6.62,0.0,0.0,1.75,0.5,0.0,0.0,0.0,0.0,0.0,0.25,1.0,0.0,0.0,-0.17,0.14,0.95,58.11,23.8,13.6,1.0,0.5,0.5,1.25,0.5,2.0,1.0,1.0,0.75,1.5,1.5,1.0,0.25,0.02,0.14,0.95,181.58,-3.4,-5.7
6.64,0.0,0.0,1.75,0.5,0.0,0.0,0.0,0.0,0.0,0.25,1.0,0.0,0.0,-0.17,0.08,0.95,57.51,23.8,13.6,1.25,0.75,0.5,1.5,0.5,2.0,1.25,1.0,0.75,1.5,1.5,0.75,0.25,0.02,0.14,0.95,183.83,-4.6,1.9
6.66,0.0,0.0,1.75,0.5,0.0,0.0,0.0,0.0,0.0,0.25,0.75,0.0,0.0,-0.17,0.14,0.95,56.1,24.8,20.1,1.25,0.75,0.5,1.5,0.5,2.0,1.0,1.0,0.75,1.5,1.75,0.75,0.25,0.02,0.14,0.95,185.17,-4.4,0.2
