time,left pressure 0[N/cm²],left pressure 1[N/cm²],left pressure 2[N/cm²],left pressure 3[N/cm²],left pressure 4[N/cm²],left pressure 5[N/cm²],left pressure 6[N/cm²],left pressure 7[N/cm²],left pressure 8[N/cm²],left pressure 9[N/cm²],left pressure 10[N/cm²],left pressure 11[N/cm²],left pressure 12[N/cm²],left acceleration X[g],left acceleration Y[g],left acceleration Z[g],left total force[N],left center of pressure X[mm],left center of pressure Y[mm],right pressure 0[N/cm²],right pressure 1[N/cm²],right pressure 2[N/cm²],right pressure 3[N/cm²],right pressure 4[N/cm²],right pressure 5[N/cm²],right pressure 6[N/cm²],right pressure 7[N/cm²],right pressure 8[N/cm²],right pressure 9[N/cm²],right pressure 10[N/cm²],right pressure 11[N/cm²],right pressure 12[N/cm²],right acceleration X[g],right acceleration Y[g],right acceleration Z[g],right total force[N],right center of pressure X[mm],right center of pressure Y[mm]
0.02,8.0,0.0,7.0,4.5,0.0,0.0,5.0,0.0,0.0,0.0,0.0,0.0,0.0,-0.42,1.02,2.52,436.24,31.9,69.2,2.0,0.5,0.5,2.25,1.5,5.75,1.0,6.75,1.5,9.0,8.75,3.5,5.0,0.08,0.08,0.95,620.06,3.5,-40.0
0.04,7.25,0.0,6.25,3.25,0.0,0.0,4.0,0.0,0.0,0.25,0.0,0.0,0.0,-0.36,0.89,2.77,360.15,31.9,68.4,2.0,0.5,0.5,2.75,4.5,6.5,1.75,6.75,1.25,8.25,8.5,3.25,3.5,0.14,0.08,0.95,717.79,3.0,-27.6
0.06,0.0,0.0,5.0,2.5,0.0,0.0,1.75,0.0,0.0,0.25,0.0,0.0,0.0,-0.36,0.52,2.77,262.98,29.9,53.0,2.0,0.5,0.25,2.5,4.25,6.5,1.0,6.75,1.0,7.0,5.75,1.75,3.25,0.14,0.08,0.95,745.68,4.6,-21.8
0.08,0.0,0.0,4.0,0.75,0.0,0.0,0.5,0.0,0.0,0.0,0.0,0.0,0.0,-0.73,-0.86,2.02,170.14,34.8,58.9,2.0,0.5,0.5,4.0,5.25,7.5,3.0,7.0,1.0,6.0,6.25,2.25,2.0,0.14,0.08,0.95,762.14,2.4,-12.5
0.1,2.75,0.0,0.0,2.0,0.0,0.0,4.75,0.0,0.0,0.25,0.0,0.0,0.0,-0.8,-0.36,1.02,94.84,27.2,57.8,2.0,1.5,2.75,4.5,6.5,8.0,2.75,6.25,1.0,5.5,5.0,1.5,1.5,0.14,0.08,0.95,788.61,0.3,1.7
0.12,0.75,0.0,0.0,0.5,0.0,0.0,4.75,0.0,1.5,0.25,0.0,0.0,0.0,-0.48,-1.55,1.77,38.43,23.2,16.2,1.75,1.25,3.25,5.5,8.0,8.25,3.25,6.25,1.0,4.25,3.75,1.0,1.5,0.14,0.08,0.95,802.61,-0.1,9.8
0.14,3.0,0.0,0.0,0.5,0.0,0.0,0.0,0.0,0.0,0.0,0.0,0.0,0.0,-0.11,-0.92,1.02,0.0,32.1,91.5,2.5,1.5,3.25,5.25,8.25,8.0,3.25,6.0,0.0,1.5,3.25,0.25,1.5,0.14,0.14,0.95,782.67,-1.3,21.3
0.16,2.75,0.0,0.0,1.75,0.0,0.0,0.5,0.0,0.0,0.0,0.0,0.0,0.0,-0.23,-0.48,0.64,0.0,27.8,78.4,1.5,0.25,2.75,5.25,8.0,8.0,3.0,5.25,0.0,1.5,2.0,0.25,0.25,0.14,0.14,0.95,708.54,-0.1,24.7
0.18,2.75,0.0,2.25,1.25,0.0,0.0,2.5,0.0,0.0,0.0,0.0,0.0,0.0,-0.36,-0.3,0.39,2.27,32.4,67.8,1.5,0.25,3.0,5.75,8.0,8.75,2.25,5.0,0.0,1.5,1.75,0.25,0.25,0.08,0.14,0.95,635.7,0.0,26.6
0.2,2.75,0.0,2.75,1.75,0.0,0.0,0.25,0.0,0.0,0.0,0.0,0.0,0.0,-0.05,-0.23,0.95,27.66,31.7,72.5,1.25,0.0,3.0,6.0,8.25,8.25,2.25,4.25,0.0,1.5,1.0,0.25,0.25,0.14,0.14,0.95,568.26,-0.1,29.4
0.22,0.0,0.0,1.75,1.25,0.0,0.0,0.0,0.0,0.0,0.0,0.0,0.0,0.0,0.02,-0.11,1.08,31.64,29.4,59.6,1.25,0.5,3.0,5.75,8.25,8.25,2.25,4.0,0.75,1.5,1.0,0.75,0.25,0.14,0.14,0.89,537.51,-0.7,27.4
0.24,2.25,0.0,1.75,1.5,0.0,0.0,0.25,0.0,0.0,0.0,0.0,0.0,0.0,-0.05,0.02,1.14,48.36,31.0,73.2,1.25,0.0,3.25,6.0,8.5,8.25,2.25,3.75,0.5,1.5,1.0,0.25,0.0,0.08,0.2,0.95,515.18,-0.9,30.8
0.26,0.0,0.0,2.5,1.25,0.0,0.0,0.0,0.0,0.0,0.0,0.25,0.0,0.0,-0.05,0.14,1.33,51.89,29.9,52.0,1.75,0.25,3.25,6.75,8.75,8.25,2.25,3.75,0.25,1.25,0.75,0.25,0.25,0.08,0.2,0.89,516.02,-1.5,33.7
0.28,2.75,0.0,1.5,1.0,0.0,0.0,0.0,0.0,0.0,0.0,0.0,0.0,0.0,0.02,0.2,1.52,66.16,32.3,78.7,1.25,0.25,3.25,7.5,9.25,8.25,2.25,2.5,0.0,1.5,0.75,0.25,0.25,0.08,0.2,0.89,520.19,-1.8,35.9
0.3,2.75,0.0,1.75,1.25,0.0,0.0,0.0,0.0,0.0,0.0,0.0,0.0,0.0,0.02,0.39,1.64,82.05,31.9,76.9,2.5,0.25,5.25,8.0,9.25,8.0,2.25,2.5,0.25,1.0,0.75,0.25,0.0,0.08,0.2,0.89,549.05,-5.3,41.1
0.32,0.0,0.0,1.25,1.25,0.0,0.0,0.0,0.0,0.0,0.0,0.0,0.0,0.0,0.08,0.58,1.89,75.19,27.6,59.4,3.75,0.5,5.75,9.5,9.25,8.0,2.25,2.5,0.25,1.25,0.75,0.25,0.0,0.02,0.2,0.89,592.57,-6.9,43.1
0.34,0.0,0.0,1.25,1.0,0.0,0.0,0.0,0.0,0.0,0.25,0.0,0.0,0.0,-0.05,0.7,2.89,60.27,24.5,46.5,5.25,0.75,7.0,9.75,10.0,8.0,3.25,2.5,0.25,0.75,0.75,0.25,0.25,0.02,0.27,0.89,669.84,-8.8,46.0
0.36,0.0,0.0,1.75,0.75,0.0,0.0,0.0,0.0,0.0,0.0,0.0,0.0,0.0,0.02,1.08,3.2,48.02,31.8,60.0,5.0,1.25,8.0,11.0,10.5,8.0,4.0,2.25,0.25,0.75,1.0,0.25,0.0,0.08,0.27,0.95,764.31,-9.8,47.5
0.38,0.0,0.0,1.25,1.0,0.0,0.0,0.0,0.0,0.0,0.25,0.0,0.0,0.0,0.08,1.95,2.02,40.04,24.5,46.5,6.75,2.25,8.5,13.0,11.0,8.25,5.25,2.25,0.75,1.5,1.5,0.75,0.25,0.08,0.27,1.02,912.42,-10.6,44.8
0.4,0.25,0.0,0.75,0.75,0.0,0.0,0.0,0.0,0.0,0.25,0.0,0.0,0.0,0.33,2.95,1.52,30.16,23.1,47.2,7.0,2.25,9.5,14.5,11.5,8.0,5.5,2.5,0.75,0.0,2.0,0.25,0.5,0.02,0.27,1.02,1052.48,-11.7,47.9
0.42,0.0,0.0,1.75,1.0,0.0,0.0,0.0,0.0,0.0,0.0,0.0,0.0,0.0,0.7,3.14,0.77,31.51,30.5,59.8,7.75,2.25,10.0,14.5,12.0,7.5,5.75,2.25,0.75,1.5,0.75,0.75,0.25,0.02,0.33,1.08,1170.6,-11.9,47.8
0.44,0.0,0.0,0.75,1.0,0.0,0.0,0.0,0.0,0.0,0.0,0.0,0.0,0.0,0.89,3.39,0.2,29.6,26.1,59.2,8.0,2.5,10.5,13.5,11.5,6.5,5.75,2.0,0.25,1.5,2.0,0.5,0.5,0.08,0.33,1.14,1233.38,-12.8,47.0
0.46,0.0,0.0,0.75,0.25,0.0,0.0,0.0,0.0,0.0,0.0,0.0,0.0,0.0,0.89,4.14,1.77,24.58,32.9,60.2,7.5,2.25,9.25,11.5,9.25,5.75,5.75,1.75,0.0,0.5,2.0,1.0,0.5,0.08,0.39,1.27,1186.52,-13.7,47.0
0.48,0.0,0.0,0.75,0.5,0.0,0.0,0.0,0.0,0.0,0.0,0.5,0.5,0.0,0.77,2.95,0.08,21.16,21.1,-6.0,8.0,2.0,8.75,9.75,8.0,5.0,5.5,0.75,0.75,1.25,2.0,0.75,0.0,0.2,0.52,1.58,1079.6,-14.9,47.7
0.5,0.0,0.0,0.0,0.25,0.0,0.0,0.0,0.0,0.0,0.5,0.25,2.25,1.0,0.2,-0.23,1.33,37.63,1.1,-93.6,8.75,1.75,7.75,7.5,7.75,4.0,5.75,1.0,0.75,1.5,1.75,0.75,0.5,0.14,0.7,2.14,948.44,-14.9,45.4
0.52,0.0,0.0,0.0,0.5,0.0,0.0,0.0,0.0,0.0,1.5,1.75,2.75,2.5,0.14,0.45,2.08,81.05,-0.7,-87.9,7.75,1.5,5.5,5.0,6.0,3.75,4.75,1.0,0.75,1.5,2.0,1.0,0.25,0.39,1.02,2.02,786.21,-14.0,41.1
0.54,0.0,0.0,0.0,0.75,0.0,0.0,0.0,0.0,0.0,3.5,5.0,2.25,2.5,-0.36,0.27,1.83,145.89,-0.3,-79.8,5.75,0.5,3.25,4.0,4.75,3.75,3.25,1.0,0.75,1.5,1.5,0.75,0.0,0.33,0.83,2.33,597.64,-11.4,37.6
0.56,0.0,0.0,1.25,0.0,0.0,0.0,0.0,0.0,0.25,0.0,5.0,0.0,2.75,-0.73,0.52,1.39,172.82,7.1,-66.0,4.0,0.5,3.0,2.5,4.25,3.75,1.25,1.0,0.75,1.5,0.0,0.0,0.25,0.58,0.27,2.2,419.04,-8.3,42.1
0.58,0.0,0.0,0.0,0.5,0.0,0.0,2.5,0.0,0.75,5.25,0.0,1.5,0.0,-0.11,0.14,1.02,181.38,-1.3,-57.1,2.5,0.0,0.5,1.25,0.25,2.5,1.0,0.0,0.0,0.0,2.0,0.25,0.0,0.52,-0.73,1.27,256.25,-11.3,28.6
0.6,0.0,0.0,0.0,0.5,0.0,0.0,0.25,2.0,0.75,6.0,5.75,1.25,2.75,-0.11,0.08,0.95,222.22,-3.8,-73.2,1.25,0.5,0.25,1.25,0.25,3.75,0.0,0.0,0.75,1.5,0.25,0.75,0.0,0.83,-0.3,1.2,137.02,0.7,14.6
0.62,0.0,0.0,0.0,0.5,0.0,0.0,0.75,2.75,1.0,6.25,7.0,1.0,4.0,-0.11,0.08,0.95,272.85,-3.7,-72.4,2.25,0.5,1.5,1.25,4.25,3.75,0.25,0.0,0.75,1.75,2.0,0.75,0.25,0.64,-1.05,1.39,92.92,-3.7,20.3
0.64,0.0,0.0,0.25,0.0,0.0,0.0,1.25,3.5,1.75,6.75,7.0,1.5,3.75,-0.17,0.08,0.95,330.49,-3.2,-71.3,0.5,0.5,1.5,1.25,3.75,3.75,1.0,1.0,0.5,1.75,2.0,0.75,0.75,0.27,-0.36,0.7,99.38,-0.1,6.8
0.66,0.0,0.0,1.25,0.5,0.0,0.0,1.25,4.0,1.25,5.75,6.75,0.75,3.0,-0.11,0.08,0.95,367.37,-1.2,-60.0,2.0,0.5,1.25,1.25,3.75,3.75,1.0,1.5,0.0,1.75,1.75,0.75,0.25,0.39,-0.23,0.33,132.85,-1.6,16.8
0.68,0.0,0.25,0.0,2.5,0.0,0.0,2.0,2.75,1.0,5.0,7.0,1.0,3.0,-0.11,0.08,0.95,381.67,0.2,-54.5,1.75,0.0,1.0,1.25,3.0,3.75,0.75,1.0,0.25,1.5,2.0,0.75,0.25,0.27,-0.17,0.83,154.31,-1.4,11.5
0.7,0.0,0.0,0.75,2.0,0.0,0.0,1.75,3.25,0.25,5.0,5.75,0.75,2.25,-0.11,0.08,0.95,361.32,-0.1,-51.7,1.5,0.25,0.75,0.25,2.75,3.25,0.75,1.0,0.25,1.5,2.0,0.25,0.25,0.14,-0.17,0.95,160.88,0.0,10.0
0.72,0.0,0.0,1.0,2.5,0.0,0.0,2.0,2.25,0.0,3.75,3.5,1.0,1.25,-0.11,0.08,0.95,314.96,2.8,-39.0,1.75,0.5,0.5,1.25,3.0,3.75,1.0,1.0,0.25,1.75,1.75,0.75,0.5,0.02,0.08,0.89,171.47,-0.3,10.9
0.74,0.0,0.0,2.75,2.5,0.0,0.0,2.0,2.25,0.75,4.25,4.5,0.75,1.75,-0.11,0.08,0.95,292.61,5.7,-33.8,2.0,0.5,0.5,1.25,2.75,3.5,1.0,1.0,0.0,1.5,2.0,0.75,0.25,-0.05,0.2,0.89,187.16,-1.6,13.7
0.76,0.0,0.0,3.25,2.5,0.0,0.0,2.5,3.25,1.0,3.75,5.0,1.0,1.25,-0.11,0.08,0.95,284.23,6.9,-30.3,2.0,0.5,0.5,1.25,2.5,3.5,0.75,1.0,0.5,1.75,2.0,1.0,0.5,-0.05,0.2,1.08,213.06,-1.4,6.6
0.78,0.0,0.75,1.75,3.75,0.0,0.0,3.0,1.75,1.5,3.5,4.25,0.5,1.25,-0.11,0.08,0.95,280.64,7.6,-21.5,1.75,0.5,0.5,1.25,2.5,3.5,1.0,1.25,0.5,1.5,2.0,0.25,0.25,-0.05,0.27,1.33,227.81,-1.0,13.2
0.8,0.0,1.0,3.75,4.25,0.0,1.5,2.75,3.25,1.5,3.25,2.0,0.0,0.25,-0.11,0.08,0.95,288.16,7.9,3.4,1.75,0.5,0.5,1.25,2.25,3.5,0.75,1.0,0.5,1.5,2.0,1.0,0.25,-0.05,0.39,1.64,237.4,-1.5,7.6
0.82,0.0,1.0,2.5,4.25,0.0,1.5,3.25,2.0,1.5,2.25,2.5,0.75,1.0,-0.11,0.08,0.95,283.94,8.3,-3.5,2.0,0.5,0.5,1.25,2.25,3.25,1.0,1.0,0.75,1.25,2.0,0.75,0.25,0.02,0.45,2.02,239.37,-2.9,11.0
0.84,0.0,1.0,0.0,4.5,0.0,2.0,3.5,2.75,1.5,2.0,3.25,0.75,1.0,-0.11,0.08,0.95,273.17,3.5,-12.8,1.5,0.5,0.5,1.25,2.25,3.25,1.0,1.0,0.5,1.5,2.0,0.75,0.5,-0.05,0.58,2.52,231.35,-1.2,6.0
0.86,0.0,1.0,4.0,6.25,0.0,2.0,4.25,3.0,1.5,2.0,3.0,0.5,0.25,-0.11,0.08,0.95,288.43,10.6,8.7,1.25,0.5,0.5,1.25,2.25,3.25,0.75,1.0,0.75,1.75,2.0,0.75,0.5,-0.23,1.08,2.58,224.17,-0.4,2.5
0.88,0.0,1.25,0.0,6.25,0.0,2.25,4.5,2.75,1.0,1.75,2.25,0.0,0.75,-0.11,0.14,0.95,288.36,4.9,5.4,1.5,0.5,0.75,1.25,1.75,3.0,1.0,1.25,0.5,1.5,1.75,0.75,0.5,-0.55,1.39,2.39,222.11,-1.9,5.2
0.9,6.0,1.0,7.0,7.25,0.0,2.75,4.75,2.75,1.0,1.75,2.25,0.0,0.25,-0.11,0.14,0.95,358.08,17.1,35.3,1.25,0.5,1.25,0.0,1.0,1.5,0.75,1.0,0.0,0.25,2.0,0.0,0.25,-0.86,1.89,1.83,194.48,-7.3,14.0
0.92,6.0,1.0,7.0,8.0,0.0,3.0,5.0,2.5,0.75,1.75,0.5,0.0,0.5,-0.11,0.14,0.95,417.91,17.3,41.4,1.75,0.5,0.25,1.25,0.0,3.25,0.0,0.75,0.5,1.5,0.25,0.75,0.0,-1.17,2.52,0.7,174.07,-0.4,13.8
0.94,6.5,1.25,7.75,8.0,3.0,3.0,5.5,2.25,0.75,1.75,1.5,0.0,0.25,-0.11,0.14,0.95,525.44,16.4,42.5,1.25,0.5,0.5,1.25,2.5,2.75,0.75,1.25,0.5,1.75,2.0,0.75,0.25,-1.55,2.83,0.2,178.01,-0.8,4.4
0.96,5.0,0.0,7.75,3.5,0.0,0.0,5.75,4.75,0.0,0.0,0.5,0.0,0.25,-0.11,0.14,0.95,497.3,22.1,40.0,1.0,0.5,0.5,1.25,1.5,3.25,0.75,1.0,0.5,1.5,1.5,0.75,0.5,-1.8,2.83,0.27,182.29,0.1,2.6
0.98,0.0,1.25,8.25,9.0,0.0,3.25,6.0,2.5,0.75,1.25,0.0,0.0,0.0,-0.11,0.14,1.02,487.66,15.9,38.9,0.0,0.0,0.5,0.0,1.75,1.25,0.0,0.75,0.0,0.25,0.25,0.25,0.0,-2.11,2.89,-0.48,151.73,4.9,16.5
1.0,0.0,1.25,9.0,9.75,0.0,2.25,6.0,2.0,0.25,1.0,0.0,0.0,0.0,-0.11,0.14,1.02,450.35,18.7,43.8,0.0,0.0,0.0,0.0,0.0,1.25,0.0,0.75,0.0,1.5,0.75,0.75,0.0,-0.17,-0.23,1.08,115.28,9.9,-48.7
1.02,8.0,1.25,9.0,10.5,0.0,2.25,6.0,2.0,0.0,1.0,0.0,0.0,0.0,-0.11,0.2,1.08,495.96,22.0,55.6,0.0,0.0,0.0,0.0,0.0,1.0,0.0,0.75,0.0,2.75,1.75,1.5,0.25,0.77,0.08,1.02,95.4,6.2,-66.5
1.04,0.0,1.25,9.0,10.5,0.0,0.0,5.75,1.75,0.0,0.0,0.25,0.0,0.0,-0.17,0.2,1.02,466.62,23.6,50.1,0.0,0.0,0.0,0.0,0.0,1.0,0.0,1.0,0.0,7.0,3.25,3.5,2.25,0.08,0.2,2.27,144.76,6.4,-78.8
1.06,8.25,1.25,9.0,10.5,0.0,0.0,5.5,1.5,0.0,0.0,0.0,0.0,0.0,-0.17,0.27,0.95,498.45,26.6,62.8,0.0,0.0,0.0,0.0,0.0,1.0,0.0,2.5,0.5,7.75,6.0,3.5,3.75,-0.17,0.33,1.58,229.85,5.5,-77.0
1.08,8.25,1.25,9.0,10.0,0.0,0.0,5.25,0.5,0.0,0.25,0.0,0.0,0.0,-0.23,0.27,1.33,490.31,27.8,65.1,0.0,0.0,0.0,0.0,0.0,1.5,0.0,3.75,0.75,8.0,6.75,3.0,3.25,0.33,0.33,1.39,307.33,6.0,-71.6
1.1,8.0,1.0,9.0,8.0,0.0,0.0,5.0,0.25,0.0,0.25,0.0,0.0,0.0,-0.23,0.33,1.45,473.87,29.0,66.1,1.0,0.0,0.25,1.25,0.0,3.5,0.0,5.0,1.25,8.0,7.0,3.0,3.25,0.02,0.2,0.95,394.8,4.5,-53.0
1.12,7.75,0.0,7.75,6.0,0.0,0.0,5.0,0.25,0.0,0.25,0.0,0.0,0.0,-0.42,0.39,2.02,421.58,30.1,65.4,2.0,0.0,0.5,2.0,2.5,5.0,2.0,5.25,1.5,8.75,7.5,3.0,3.25,0.08,0.08,0.95,504.63,2.7,-35.3
1.14,8.0,0.0,6.5,3.75,0.0,0.0,3.75,0.0,0.0,0.25,0.25,0.0,0.0,-0.36,0.58,2.2,358.3,31.5,67.6,2.0,0.0,0.5,1.25,0.25,4.0,2.25,5.0,1.5,7.75,7.5,2.75,3.0,0.08,0.08,0.95,560.16,1.9,-43.1
1.16,6.25,0.0,6.0,2.5,0.0,0.0,2.75,0.25,0.0,0.0,0.25,0.0,0.0,-0.42,0.77,2.52,295.61,32.0,67.3,3.0,0.0,2.0,1.5,0.5,4.0,4.0,5.0,1.25,7.5,7.25,2.75,2.5,0.08,0.08,0.95,593.34,-1.4,-31.4
1.18,5.5,0.0,5.0,0.5,0.0,0.0,1.0,0.0,0.0,0.0,0.5,0.0,0.0,-0.3,0.39,2.58,236.33,34.5,69.9,2.0,0.0,3.5,1.75,0.5,4.75,5.5,5.25,1.25,7.0,6.75,2.0,2.25,0.08,0.08,0.95,602.95,-2.2,-24.9
1.2,4.5,0.0,0.0,1.75,0.0,0.0,1.0,0.0,2.25,0.0,0.0,0.0,0.0,-0.55,-0.55,1.95,179.58,25.3,50.9,3.0,0.0,5.0,2.0,1.5,5.5,5.75,5.0,1.25,7.0,6.0,2.25,1.5,0.08,0.08,0.95,636.35,-4.1,-13.3
1.22,0.0,0.0,0.0,1.25,0.0,0.0,5.25,0.0,0.0,0.0,0.0,0.0,0.0,-0.3,-0.8,0.45,96.11,27.1,37.8,4.0,0.5,6.25,4.5,4.25,5.75,6.5,5.25,1.25,6.5,6.0,1.25,1.0,0.08,0.08,0.95,712.07,-6.2,3.7
1.24,0.75,0.0,0.0,2.0,0.0,0.0,0.0,0.0,0.0,0.0,0.0,0.0,0.0,-0.73,-0.98,1.58,28.11,21.6,67.9,3.5,0.5,6.75,3.0,4.75,5.75,6.75,5.25,1.0,4.75,5.0,1.5,1.5,0.08,0.08,0.95,754.35,-6.3,5.2
1.26,2.75,0.0,0.0,0.5,0.0,0.0,0.0,0.0,0.0,0.0,0.0,0.0,0.0,-0.05,-0.8,0.95,0.0,31.9,91.1,4.0,1.25,5.75,4.0,4.5,6.25,6.5,5.25,0.75,3.25,4.0,1.0,1.25,0.08,0.08,0.95,763.8,-6.6,14.3
1.28,0.0,0.0,0.75,1.0,0.0,0.0,0.25,0.0,0.0,0.25,0.0,0.0,0.0,-0.11,-0.55,0.77,0.0,21.7,42.0,4.25,0.25,5.75,4.5,6.25,7.5,5.75,5.25,1.0,4.25,3.25,1.0,0.5,0.08,0.08,0.95,758.03,-5.2,16.6
1.3,3.5,0.0,1.75,2.0,0.0,0.0,0.25,0.0,0.0,0.25,0.0,0.0,0.25,-0.55,-0.42,0.45,0.0,27.6,65.0,4.5,1.25,5.75,4.75,6.75,7.75,5.5,5.25,1.0,2.25,2.0,0.25,0.0,0.14,0.14,0.95,744.05,-6.2,29.9
1.32,1.75,0.0,1.25,0.5,0.0,0.0,0.25,0.0,0.0,0.25,0.0,0.0,0.0,-0.73,-0.42,0.52,0.0,30.2,66.3,3.75,0.75,5.5,4.5,7.5,8.0,5.25,5.25,0.5,1.5,2.5,0.0,0.25,0.14,0.08,0.95,721.43,-5.2,29.5
1.34,0.0,0.0,1.75,0.5,0.0,0.0,0.0,0.0,0.0,0.0,0.0,0.0,0.0,-0.55,-0.3,0.83,7.74,33.5,60.3,3.75,0.5,3.5,4.0,6.5,8.0,4.5,5.25,0.25,3.25,1.75,0.25,0.25,0.14,0.14,0.95,674.33,-2.3,23.3
1.36,2.25,0.0,2.5,0.25,0.0,0.0,0.0,0.0,0.0,0.0,0.0,0.0,0.0,-0.42,-0.11,0.95,23.36,35.7,76.5,4.75,1.5,3.5,5.75,8.0,9.25,4.5,5.25,0.5,3.0,2.0,1.0,0.5,0.14,0.14,0.95,690.88,-3.1,26.0
1.38,1.0,0.0,1.75,0.25,0.0,0.0,0.5,0.0,0.0,0.0,0.25,0.0,0.0,-0.48,0.08,0.95,32.56,33.5,58.8,5.0,1.75,5.5,6.0,8.75,9.25,4.25,5.25,0.75,3.0,2.0,1.0,0.5,0.14,0.14,0.95,740.59,-4.6,28.4
1.4,1.0,0.0,0.75,1.5,0.0,0.0,0.25,0.0,0.0,0.0,0.5,0.0,0.0,-0.73,0.39,1.02,44.1,25.3,50.5,5.5,1.5,5.5,6.25,9.25,10.0,4.25,5.25,0.75,3.0,2.0,1.0,0.25,0.14,0.14,0.95,805.09,-4.5,29.8
1.42,0.0,0.0,0.75,1.0,0.0,0.0,0.0,0.0,0.0,0.0,0.0,0.0,0.0,-0.8,0.58,1.27,42.28,26.1,59.2,4.5,1.5,4.75,6.5,9.25,9.75,4.25,5.25,0.25,3.25,2.0,1.0,0.25,0.14,0.14,0.95,836.59,-3.5,28.3
1.44,0.0,0.0,0.0,0.5,0.0,0.0,0.0,0.0,0.0,0.0,0.25,0.0,0.0,-0.86,0.58,1.58,34.1,15.1,15.7,5.25,1.75,5.5,7.0,9.75,11.0,4.25,5.25,0.0,3.25,2.0,1.0,0.5,0.14,0.14,0.95,877.85,-3.8,30.3
1.46,0.0,0.0,0.75,1.0,0.0,0.0,0.25,0.0,0.0,0.0,0.25,0.0,0.0,-1.48,0.64,1.52,29.02,24.7,42.5,5.25,0.75,4.0,6.0,9.25,11.0,4.25,5.0,0.5,3.0,2.0,1.0,0.75,0.14,0.14,0.95,866.37,-2.6,26.7
1.48,0.0,0.0,0.0,1.0,0.0,0.0,0.0,0.0,0.0,0.0,0.0,0.0,0.0,-2.05,0.89,1.33,19.56,17.2,57.9,5.5,1.75,5.5,7.75,11.0,11.0,4.25,5.0,0.25,2.5,2.0,1.0,0.25,0.08,0.14,0.95,909.01,-4.4,33.6
1.5,2.0,0.0,1.5,0.75,0.0,0.0,0.0,0.0,0.0,0.0,0.0,0.0,0.0,-1.98,1.08,1.14,34.36,32.8,76.8,4.25,0.5,5.5,5.75,9.25,11.5,4.0,4.0,0.5,2.5,0.75,0.25,0.0,0.08,0.2,0.95,868.34,-3.2,35.3
1.52,0.0,0.0,0.75,1.25,0.0,0.0,0.0,0.0,0.0,0.0,0.0,0.0,0.0,-1.73,1.14,1.14,34.65,25.0,59.0,5.25,2.0,5.5,7.75,9.25,11.5,4.0,4.25,0.75,2.25,0.75,1.0,0.0,0.08,0.2,0.95,877.96,-4.7,36.9
1.54,2.75,0.0,0.75,1.0,0.0,0.0,0.0,0.0,0.0,0.0,0.0,0.0,0.0,-1.42,1.2,0.83,50.48,31.3,81.8,5.75,2.0,6.0,7.75,11.0,10.5,4.25,5.0,0.0,1.25,2.0,0.25,0.5,0.08,0.2,0.95,888.84,-5.4,38.5
1.56,0.0,0.0,0.5,0.5,0.0,0.0,0.0,0.0,0.0,0.0,0.25,0.0,0.0,-0.73,1.45,0.45,44.17,24.4,33.9,6.0,1.25,5.5,6.25,10.5,10.0,4.0,4.25,0.0,1.5,0.75,0.25,0.0,0.08,0.2,0.89,874.43,-5.3,41.8
1.58,0.0,0.0,0.75,1.0,0.0,0.0,0.0,0.0,0.0,0.0,0.0,0.0,0.0,-0.61,1.27,0.45,41.21,26.1,59.2,5.25,0.5,5.5,6.0,9.25,10.0,3.25,4.25,0.25,0.75,0.75,0.25,0.5,0.08,0.2,0.95,818.11,-4.9,39.4
1.6,0.0,0.0,0.5,0.75,0.0,0.0,0.0,0.0,0.0,0.0,0.0,0.0,0.0,-0.73,1.02,0.39,27.44,25.5,59.1,5.5,0.75,5.5,6.5,9.25,10.0,3.0,3.75,0.0,1.5,0.75,0.25,0.0,0.08,0.2,0.95,761.28,-5.2,41.4
1.62,1.5,0.0,0.75,1.0,0.0,0.0,0.0,0.0,0.0,0.0,0.0,0.0,0.0,-0.86,0.83,0.39,37.12,29.9,76.0,5.5,0.5,4.75,6.0,9.25,9.75,2.5,3.75,0.0,1.5,0.75,0.25,0.0,0.08,0.27,1.02,707.89,-4.4,40.6
1.64,2.75,0.0,0.0,0.75,0.0,0.0,0.0,0.0,0.0,0.0,0.0,0.0,0.0,-3.98,0.45,0.2,45.81,30.8,88.5,6.0,2.0,5.5,7.25,9.75,10.0,2.75,4.0,0.75,2.0,1.0,0.25,0.5,0.08,0.33,0.95,724.82,-5.3,39.0
1.66,2.75,0.0,2.0,2.0,0.0,0.0,0.0,0.0,0.0,0.0,0.0,0.0,0.0,-0.11,0.33,0.58,77.54,30.4,74.1,6.25,1.75,5.25,7.5,9.25,8.5,2.25,2.5,0.75,1.75,2.0,1.0,0.25,0.45,0.52,0.89,738.43,-7.1,38.2
1.68,2.5,0.0,2.25,2.5,0.0,0.0,0.25,0.0,0.0,0.0,0.0,0.0,0.0,-1.8,0.52,0.7,103.78,29.6,71.0,6.0,1.5,5.5,6.0,8.0,7.75,1.25,2.5,0.5,1.5,1.5,0.25,0.25,0.58,0.58,0.89,714.95,-7.4,41.6
1.7,0.0,0.0,1.25,3.75,0.0,0.0,0.25,0.0,0.0,0.25,0.0,0.0,0.0,-1.61,0.2,0.58,112.59,20.9,51.9,5.5,0.0,3.25,3.25,6.5,6.5,0.75,2.5,0.0,0.0,0.0,0.5,0.0,0.7,0.64,0.83,589.69,-6.0,47.5
1.72,0.0,0.0,2.25,4.5,0.0,0.0,0.5,0.0,0.0,0.25,0.0,0.0,0.0,-0.48,0.2,1.45,123.85,23.0,53.4,5.75,0.0,4.25,2.75,4.75,6.0,0.25,2.0,0.0,0.5,0.0,0.75,0.0,0.83,0.52,0.83,466.79,-8.3,46.1
1.74,0.0,0.0,0.0,2.25,0.0,0.0,0.5,0.25,0.0,0.0,0.0,0.0,0.0,-0.3,0.27,1.14,102.79,15.4,46.8,5.75,0.0,3.0,2.0,4.5,5.25,0.25,1.5,0.0,1.0,0.0,0.25,0.0,0.64,0.52,0.83,362.65,-7.4,47.7
1.76,0.0,0.0,0.0,4.5,0.0,6.25,1.0,0.5,0.0,0.25,0.0,0.0,0.0,-0.17,0.2,1.02,133.55,-4.2,37.9,4.75,0.25,3.25,2.25,3.25,3.5,0.0,2.5,0.5,0.25,2.0,0.0,0.0,0.64,0.45,1.02,297.06,-9.7,36.8
1.78,0.0,0.0,0.0,5.25,0.0,0.5,0.75,2.0,0.0,0.0,0.0,0.0,0.0,-0.17,0.14,1.08,138.29,7.4,32.0,2.5,0.0,0.5,0.5,1.0,2.75,0.0,1.0,0.25,0.0,0.25,0.25,0.0,0.58,0.45,1.02,212.05,-4.3,39.1
1.8,0.0,0.5,0.0,3.25,0.0,1.25,1.25,3.0,0.0,0.25,0.0,0.0,0.0,-0.11,0.08,1.14,155.95,0.3,18.9,2.0,0.0,0.25,0.5,0.25,3.25,0.0,1.0,0.0,0.0,0.5,0.0,0.0,0.52,0.08,0.95,135.13,-0.1,36.5
1.82,0.0,1.25,0.0,4.0,6.0,7.5,1.5,4.75,0.0,0.5,0.75,0.0,0.5,-0.17,0.08,1.02,235.26,-5.9,25.0,1.0,0.0,0.0,0.5,0.25,2.0,0.0,1.0,0.0,0.25,0.0,0.0,0.0,0.52,0.2,0.77,43.89,4.7,29.4
1.84,0.0,1.0,0.0,4.0,5.75,7.75,1.5,4.75,0.0,1.75,1.5,0.0,0.25,-0.17,0.08,0.95,305.85,-6.2,18.3,0.75,0.0,0.0,0.25,0.5,1.75,0.0,1.0,0.0,0.0,0.25,0.25,0.0,0.83,0.64,0.52,0.0,4.8,18.5
1.86,0.0,1.25,0.0,4.5,5.75,7.5,1.5,4.75,0.0,1.75,1.5,0.0,0.25,-0.17,0.08,0.95,380.16,-5.5,19.6,0.0,0.0,0.25,0.0,0.5,2.75,0.0,1.0,0.0,1.25,0.5,0.5,0.0,0.83,0.45,0.39,0.0,11.7,-13.3
1.88,0.0,1.0,0.0,4.25,3.75,7.0,1.5,4.75,0.0,1.75,2.0,0.0,0.25,-0.11,0.08,0.95,408.46,-5.5,13.4,0.0,0.0,0.25,0.0,0.5,1.75,0.0,0.75,0.0,0.0,0.5,0.25,0.0,0.39,0.52,0.95,0.0,8.8,2.5
1.9,0.0,1.25,2.5,4.5,0.0,6.5,1.75,4.75,0.0,1.75,2.25,0.0,0.25,-0.11,0.08,0.95,409.65,-0.1,11.4,0.0,0.0,0.25,0.0,0.25,2.0,0.0,0.75,0.0,0.25,0.25,0.0,0.0,0.08,0.33,0.89,0.0,13.1,7.9
1.92,0.0,1.0,3.0,4.5,0.0,6.0,1.75,4.75,0.0,1.75,1.75,0.0,0.5,-0.11,0.08,0.95,388.9,0.5,11.5,0.0,0.0,0.25,0.0,0.25,1.75,0.0,0.75,0.0,0.0,0.0,0.0,0.0,-0.05,0.27,0.89,0.0,14.0,19.8
1.94,0.0,1.0,1.75,4.25,0.0,5.5,2.0,4.5,0.0,1.75,1.5,0.0,0.25,-0.11,0.08,0.95,363.38,-0.9,10.6,0.0,0.0,0.25,0.0,0.25,1.5,0.0,0.75,0.0,0.0,0.25,0.0,0.0,-0.36,0.02,0.89,0.0,11.3,10.8
1.96,0.0,1.0,1.75,4.0,0.0,5.25,2.0,4.0,0.25,1.75,0.25,0.0,0.5,-0.11,0.08,0.95,334.7,-1.2,14.1,0.0,0.0,0.25,0.0,0.0,3.75,0.0,0.75,0.75,0.0,0.25,1.0,0.0,-0.55,-0.11,1.08,9.34,9.7,-7.4
1.98,0.0,1.0,2.5,4.75,0.0,4.75,2.5,3.75,1.25,1.75,2.0,0.0,0.25,-0.11,0.08,0.95,325.2,3.2,10.0,0.5,0.0,0.25,1.25,0.0,3.5,0.25,0.75,0.75,1.5,0.75,0.75,0.0,-0.42,0.02,1.08,58.91,3.5,-5.4
2.0,0.0,1.25,2.75,4.5,0.0,4.75,2.75,3.75,1.5,2.0,0.0,0.25,0.5,-0.11,0.08,0.95,312.92,2.8,14.3,2.0,0.5,0.5,1.0,3.25,3.75,1.0,1.25,0.75,1.5,2.0,0.75,0.25,-0.3,0.08,1.02,146.51,-1.1,11.8
2.02,0.0,1.25,2.75,5.25,0.0,4.25,3.0,3.75,1.5,2.0,0.0,0.5,0.5,-0.11,0.08,0.95,314.28,4.0,14.1,2.0,0.5,0.5,1.25,3.0,3.5,1.0,1.25,0.5,1.0,2.0,0.75,0.25,-0.23,-0.05,1.08,211.36,-2.0,14.7
2.04,0.0,1.5,3.75,6.25,0.0,4.0,3.5,3.75,1.75,2.0,1.25,0.5,1.0,-0.11,0.08,0.95,327.84,6.4,11.5,2.0,0.25,0.5,1.25,3.25,3.25,1.0,1.25,0.75,1.5,1.75,0.75,0.5,-0.3,-0.11,1.2,251.51,-1.4,10.0
2.06,0.0,1.25,5.0,6.25,0.0,3.5,3.5,3.75,1.75,2.0,0.0,0.75,0.75,-0.11,0.08,0.95,335.27,8.4,16.6,2.0,0.25,0.5,1.25,3.0,3.25,1.0,1.25,0.75,1.5,2.0,0.75,0.25,-0.36,-0.17,1.2,267.88,-1.9,9.9
2.08,0.0,1.25,5.0,6.25,0.0,3.5,3.5,3.75,1.75,2.25,0.0,0.75,1.0,-0.11,0.08,0.95,354.16,8.0,14.6,1.75,0.25,0.5,1.25,2.75,3.25,1.0,1.0,0.5,1.5,2.0,0.75,0.25,-0.17,-0.17,1.14,270.28,-1.6,9.3
2.1,0.0,1.25,5.5,5.75,0.0,3.5,3.75,3.75,1.75,2.75,0.0,0.75,1.25,-0.11,0.08,0.95,370.09,7.8,12.0,2.0,0.5,0.5,1.25,2.75,3.25,1.0,1.25,0.75,1.75,1.75,0.25,0.5,0.08,-0.23,1.02,269.34,-1.3,12.1
2.12,0.0,1.25,5.25,6.0,0.0,2.25,4.0,3.75,1.75,3.25,0.0,0.75,1.25,-0.11,0.08,0.95,380.44,8.6,9.5,1.5,0.25,0.5,1.25,2.75,3.25,1.0,1.0,0.5,1.75,1.75,0.75,0.25,0.39,-0.3,0.83,265.93,-0.7,8.0
2.14,0.0,1.0,5.75,5.75,0.0,2.25,4.25,3.25,1.75,3.5,0.0,1.0,1.25,-0.11,0.08,0.95,383.85,9.4,8.3,0.5,0.0,0.5,0.0,2.75,1.25,1.0,0.75,0.25,0.75,0.0,0.0,0.0,0.64,-0.36,0.39,228.11,0.9,27.1
2.16,0.0,1.0,5.75,4.75,0.0,0.0,4.25,3.75,1.75,3.5,0.0,1.25,1.25,-0.11,0.08,0.95,372.66,11.2,2.0,0.25,0.0,0.5,0.0,1.5,1.25,0.5,0.75,0.75,1.5,0.25,0.75,0.0,0.52,-0.23,0.33,185.93,1.9,-9.7
2.18,0.0,1.0,6.0,4.5,0.0,0.0,4.25,3.75,1.75,3.75,0.0,1.5,1.5,-0.11,0.08,0.95,365.04,10.9,-0.8,2.0,0.25,0.5,1.25,1.5,3.25,1.25,1.25,0.75,1.25,2.0,0.75,0.25,2.52,-1.05,0.58,180.1,-3.0,6.5
2.2,0.0,0.75,6.0,4.25,0.0,0.0,4.0,3.5,2.0,3.75,4.5,1.75,1.75,-0.11,0.08,0.95,370.43,10.8,-14.7,1.25,0.0,1.75,0.5,1.75,1.5,2.25,1.0,0.0,0.0,2.0,0.0,0.25,1.02,-1.11,1.2,167.64,-10.2,20.3
2.22,0.0,0.75,5.5,4.25,0.0,0.0,3.5,3.25,1.0,4.0,5.5,2.0,2.25,-0.11,0.08,0.95,376.91,9.7,-20.2,0.75,0.0,0.5,0.75,0.0,0.75,2.25,0.75,0.0,0.25,0.5,0.0,0.0,-1.17,-1.23,-0.55,135.92,-12.3,21.7
2.24,0.0,0.0,5.25,3.75,0.0,0.25,3.25,3.0,1.75,4.25,5.75,2.0,1.75,-0.11,0.08,0.95,380.42,9.3,-24.8,1.0,0.25,1.75,0.0,2.5,4.0,2.25,0.75,0.25,3.0,0.75,0.25,0.0,0.39,0.45,1.52,152.16,0.1,12.2
2.26,0.0,0.0,2.75,2.25,0.0,0.0,2.25,2.0,1.25,3.5,4.75,1.25,1.5,-0.11,0.08,0.95,340.07,7.3,-34.5,1.25,0.0,1.75,1.0,0.5,3.25,4.0,0.75,0.75,4.5,2.5,1.0,0.25,0.14,0.33,0.77,186.4,-3.8,-12.7
2.28,0.0,0.0,1.75,1.25,0.0,0.0,1.75,2.0,1.0,3.75,4.75,1.5,2.25,-0.11,0.08,0.95,298.01,3.6,-50.0,1.25,0.0,1.75,1.25,0.5,3.25,4.25,2.0,1.0,5.75,5.0,1.5,1.5,0.08,0.08,1.02,248.59,-2.2,-28.5
2.3,2.0,0.0,2.5,0.5,0.0,0.0,1.25,1.75,0.75,3.75,4.75,1.5,1.75,-0.17,0.08,0.95,268.03,7.6,-35.6,2.0,0.5,1.75,2.0,0.5,4.5,4.25,2.75,1.25,7.0,6.0,2.5,3.25,0.08,0.08,0.95,333.94,-1.1,-29.7
2.32,0.0,0.0,1.75,1.0,0.0,0.0,1.0,2.0,0.75,3.5,4.5,0.5,2.5,-0.23,0.08,0.95,243.78,2.3,-50.1,1.0,0.0,1.75,1.25,0.5,3.75,4.0,3.75,1.0,6.5,5.25,1.5,2.25,0.08,0.08,0.95,394.73,0.4,-32.9
2.34,1.75,0.0,1.75,0.5,0.0,0.0,0.5,0.5,0.25,1.25,4.0,0.75,1.5,-0.8,0.02,0.83,205.72,11.7,-29.1,0.75,0.0,1.5,1.25,0.5,3.75,3.25,3.75,0.75,6.25,5.25,1.75,2.5,0.08,0.08,0.95,429.03,1.4,-36.4
2.36,2.0,0.0,0.0,0.5,0.0,0.0,0.25,0.25,0.0,0.0,3.0,0.0,1.25,-1.61,0.33,0.95,152.26,12.6,-22.1,0.75,0.0,0.5,1.25,0.5,3.75,3.0,3.75,0.75,6.25,5.25,2.25,2.75,0.08,0.08,0.95,437.1,2.9,-42.1
2.38,2.0,0.0,0.0,1.75,0.0,0.0,0.5,1.75,0.75,0.0,3.25,0.5,1.0,-0.8,0.64,0.77,122.2,9.7,-18.5,0.5,0.0,0.5,0.0,0.5,3.5,2.75,3.75,1.0,6.5,5.25,2.25,3.0,0.08,0.08,0.95,437.42,4.2,-49.8
2.4,2.5,0.25,1.0,1.5,0.0,0.0,0.5,1.75,0.5,2.75,3.0,0.0,1.5,-0.17,0.64,0.95,123.82,6.9,-18.0,0.5,0.0,0.5,0.5,0.5,3.75,2.25,3.75,0.75,6.5,5.25,2.25,3.0,0.08,0.08,0.95,424.16,4.5,-47.8
2.42,1.5,0.0,0.0,1.0,0.0,0.0,0.5,2.0,0.5,3.0,3.0,0.0,1.75,0.2,0.52,0.95,133.07,0.5,-41.6,0.5,0.25,0.5,1.25,0.25,3.5,2.0,3.75,1.0,7.5,5.5,3.0,3.0,0.08,0.08,0.95,430.45,3.6,-48.3
2.44,0.0,0.0,1.75,0.5,0.0,0.0,0.5,0.25,0.5,2.75,1.5,1.0,1.0,0.45,0.33,1.02,129.83,5.7,-44.2,0.5,0.0,0.25,1.0,0.5,3.75,1.75,3.75,1.25,7.75,5.25,3.0,3.25,0.08,0.08,0.95,444.42,4.7,-50.5
2.46,2.75,0.0,0.75,0.75,0.0,0.0,0.0,0.75,0.5,2.75,2.5,1.0,1.75,0.52,0.14,0.95,142.05,7.0,-30.1,0.5,0.0,0.25,0.5,0.25,4.25,1.25,3.75,0.75,6.75,5.75,2.25,3.25,0.08,0.08,0.95,435.16,5.7,-51.0
2.48,2.5,0.0,0.75,1.25,0.0,0.0,0.25,2.0,0.5,2.5,2.75,0.75,2.0,0.52,0.02,0.83,158.5,5.2,-29.3,1.25,0.0,0.25,1.75,0.0,4.5,1.75,4.25,1.0,7.75,6.75,3.0,4.75,0.08,0.08,0.95,451.95,3.8,-48.7
2.5,2.25,0.0,1.25,1.75,0.0,0.0,0.25,1.0,0.5,2.25,2.75,0.75,2.0,0.45,-0.05,0.77,177.3,8.1,-23.5,1.25,0.5,0.5,1.75,2.75,3.75,1.25,4.0,0.75,7.0,5.5,2.25,3.75,0.08,0.08,0.95,455.98,3.3,-34.0
2.52,3.0,0.25,1.0,1.0,0.0,0.0,0.5,2.0,0.5,3.0,3.0,0.75,1.5,-0.17,0.27,1.33,196.03,6.7,-22.6,0.0,0.25,0.25,0.0,0.25,3.0,1.0,3.75,0.5,6.75,5.25,2.25,3.0,0.08,0.08,0.95,421.28,6.5,-57.8
2.54,2.5,0.5,0.75,1.25,0.0,0.0,0.5,2.0,0.5,2.75,3.0,0.75,1.5,-0.17,0.08,0.95,209.25,6.0,-23.4,0.0,0.0,0.5,0.0,0.25,2.25,1.0,3.75,0.75,6.5,5.25,2.5,3.0,0.08,0.08,0.95,384.33,5.4,-61.0
2.56,2.0,0.0,0.75,0.0,0.0,0.0,0.5,2.0,0.0,1.5,3.0,0.0,1.75,-0.17,0.08,1.02,200.3,4.7,-33.5,1.25,0.5,0.25,1.0,0.0,3.75,1.0,3.75,0.75,6.0,5.0,2.25,4.0,0.08,0.08,0.95,373.66,4.2,-45.8
2.58,0.0,0.0,0.0,0.0,0.0,0.0,0.0,0.0,0.0,0.0,0.0,0.0,0.0,-0.11,0.08,0.95,138.36,0.0,0.0,0.0,0.0,0.25,0.0,0.0,2.25,1.0,3.75,1.0,7.25,4.5,1.5,2.75,0.08,0.08,0.95,347.85,7.0,-60.9
2.6,0.0,0.0,0.0,0.0,0.0,0.0,0.0,0.0,0.0,0.0,0.0,0.0,0.0,-0.17,0.14,0.95,71.41,0.0,0.0,0.0,0.0,0.0,0.0,0.0,3.5,1.0,3.75,0.75,6.0,4.25,1.0,2.25,0.08,0.08,0.95,321.17,8.6,-54.1
2.62,2.25,0.0,0.0,0.5,0.0,0.0,0.0,0.0,0.0,1.25,0.0,0.0,0.0,-0.17,0.14,0.95,28.26,16.2,36.5,0.5,0.0,0.25,0.0,0.0,3.75,1.0,3.75,0.75,6.25,4.0,2.25,1.5,0.02,0.08,0.95,304.62,6.5,-50.0
2.64,0.0,0.0,0.0,0.5,0.0,0.0,0.5,0.25,0.0,0.5,0.5,0.0,0.0,-0.17,0.14,0.95,4.13,4.9,-23.5,0.5,0.0,0.5,0.5,3.25,5.0,1.75,3.75,1.0,6.5,3.75,2.25,2.25,0.08,0.08,0.95,318.1,5.7,-31.6
2.66,0.0,0.0,0.5,0.5,0.0,0.0,0.0,0.0,0.0,0.25,0.0,0.0,0.0,-0.11,0.14,0.95,0.0,19.2,33.2,2.0,0.5,1.25,1.5,3.25,5.0,1.75,3.75,0.75,5.75,3.5,2.25,2.25,0.08,0.08,0.95,346.85,1.9,-17.5
2.68,0.0,0.0,1.25,0.25,0.0,0.0,1.0,0.25,0.0,0.0,0.0,0.0,0.0,-0.11,0.08,0.95,0.0,28.5,42.6,2.0,0.5,1.5,2.25,3.0,5.0,2.25,3.75,1.0,5.5,4.25,1.75,1.5,0.08,0.14,0.95,383.71,0.3,-12.9
2.7,0.0,0.0,0.0,1.0,0.0,0.0,0.0,0.0,1.0,0.75,0.0,0.5,0.0,-0.11,0.14,0.95,1.3,6.9,-27.0,2.25,0.5,2.75,2.75,3.75,5.25,4.25,3.75,1.0,5.5,4.25,1.75,1.75,0.08,0.08,0.95,438.6,-1.9,-6.5
2.72,0.0,0.0,0.0,2.0,0.0,0.0,5.25,2.25,0.25,1.0,0.0,0.0,0.0,-0.11,0.14,0.95,33.65,8.2,2.2,1.25,0.0,1.75,1.25,0.5,5.5,4.25,3.0,1.0,4.0,3.25,0.75,0.5,0.08,0.14,0.95,404.94,-0.4,-10.9
2.74,0.0,0.0,2.5,0.25,0.0,0.0,2.0,1.25,0.0,0.25,1.25,0.0,0.0,-0.11,0.14,0.95,60.27,18.8,6.1,2.25,0.5,3.25,3.75,4.5,5.5,5.25,3.75,1.0,5.0,4.25,1.5,1.25,0.08,0.08,0.95,458.98,-3.3,0.9
2.76,0.0,0.25,1.5,2.0,0.0,0.0,1.75,0.25,0.0,0.0,0.0,0.0,0.0,-0.11,0.08,0.95,78.31,24.3,51.0,2.75,0.5,3.25,4.0,4.25,5.75,5.5,3.75,1.0,4.75,4.25,1.25,1.25,0.08,0.08,0.95,500.47,-3.8,3.4
2.78,0.0,0.0,2.5,1.5,0.0,0.0,2.25,0.75,0.25,1.0,0.0,0.0,0.0,-0.17,0.14,0.95,97.04,18.7,22.6,2.5,0.75,4.0,4.0,4.25,5.5,5.75,3.75,1.0,5.25,4.0,1.5,0.5,0.08,0.14,0.95,559.51,-4.7,5.5
2.8,0.0,0.0,2.5,1.0,0.0,0.0,2.75,1.5,0.0,0.5,1.25,0.0,0.0,-0.11,0.14,0.95,117.84,17.0,8.1,2.25,0.0,3.0,1.25,1.25,5.0,5.5,4.0,0.75,4.75,5.25,1.0,1.75,0.08,0.08,0.95,536.16,-2.8,-13.8
2.82,0.0,0.0,2.0,0.75,0.0,0.0,2.5,1.0,0.0,0.25,1.5,0.0,0.0,-0.11,0.14,0.95,126.73,18.7,5.4,1.0,0.0,3.25,1.25,4.25,5.75,4.75,4.25,1.25,6.0,4.5,2.25,0.75,0.08,0.08,0.95,540.36,-0.6,-11.9
2.84,0.0,0.0,1.75,2.25,0.0,0.0,2.5,1.75,0.75,2.0,2.25,0.0,0.0,-0.11,0.14,0.95,148.85,9.9,-11.0,2.0,0.5,3.0,2.5,3.75,5.75,4.0,4.25,1.25,6.0,5.25,2.25,1.75,0.08,0.08,0.95,538.51,-1.4,-11.1
2.86,0.0,0.25,2.5,2.5,0.0,0.0,2.0,1.5,0.75,1.75,2.25,0.5,0.0,-0.11,0.14,0.95,171.38,12.4,-5.9,2.0,0.5,1.5,2.0,2.75,5.75,3.0,5.0,1.0,5.0,5.5,2.25,1.5,0.08,0.08,0.95,521.85,0.4,-16.1
2.88,1.5,0.0,1.75,1.5,0.0,0.0,2.0,1.5,1.0,1.75,2.25,0.0,0.0,-0.11,0.08,0.95,189.45,13.0,-2.3,1.25,0.5,0.25,1.5,4.25,5.75,2.25,5.0,0.75,4.75,5.5,1.25,1.5,0.08,0.08,0.95,493.26,3.6,-16.0
2.9,2.25,0.0,1.75,1.75,0.0,0.0,1.25,0.25,0.75,0.75,2.25,0.0,0.0,-0.11,0.08,0.95,189.43,20.4,17.4,0.5,0.0,1.25,0.5,1.25,3.75,1.25,4.75,0.75,4.75,4.25,1.0,1.25,0.08,0.08,0.95,415.69,4.1,-31.1
2.92,2.25,0.0,1.25,1.0,0.0,0.0,1.75,2.0,0.75,0.5,0.0,0.0,0.0,-0.11,0.08,0.95,176.35,15.9,26.3,1.25,0.0,0.75,0.25,0.25,1.25,1.0,3.75,0.75,4.0,3.25,0.75,0.25,0.08,0.08,0.95,323.07,1.0,-34.4
2.94,2.0,0.0,1.75,1.5,0.0,0.0,1.25,1.25,0.75,0.25,2.25,0.0,0.0,-0.11,0.08,0.95,166.95,18.3,13.6,0.0,0.0,0.25,0.0,0.25,1.25,1.0,3.75,0.75,3.5,3.25,0.75,0.25,0.08,0.08,0.95,248.32,5.1,-48.9
2.96,0.0,0.0,1.0,1.0,0.0,0.0,1.25,1.5,1.0,0.5,2.25,0.75,0.5,-0.11,0.08,0.95,152.24,8.6,-32.6,0.0,0.0,0.0,0.0,0.0,1.25,1.0,3.25,0.75,3.25,2.5,1.25,0.25,0.08,0.08,0.95,193.22,5.8,-54.1
2.98,0.0,0.0,1.75,0.5,0.0,0.0,1.0,1.5,0.25,0.0,2.25,0.0,0.0,-0.11,0.14,0.95,136.89,14.1,-11.7,0.0,0.0,0.25,0.0,0.0,0.5,1.0,2.5,0.5,3.25,2.25,0.75,0.25,0.08,0.08,0.95,136.3,4.3,-55.6
3.0,2.75,0.0,1.75,1.25,0.0,0.0,0.75,1.25,0.75,0.75,2.25,0.25,0.0,-0.11,0.14,0.95,143.1,17.4,10.8,1.0,0.0,0.0,0.0,0.0,1.25,1.0,2.5,0.75,2.0,2.0,0.25,0.0,0.08,0.08,0.95,103.59,2.0,-30.4
3.02,0.0,0.25,1.75,0.5,0.0,0.0,0.5,1.5,0.5,1.5,2.0,0.0,0.0,-0.11,0.08,0.95,133.34,8.1,-19.9,0.0,0.0,0.0,0.0,0.0,1.75,0.75,2.5,0.75,1.75,2.0,0.25,0.25,0.08,0.08,0.95,84.35,7.0,-41.6
3.04,1.0,0.25,1.75,1.5,0.0,0.0,0.5,1.25,0.5,1.25,1.75,0.0,0.25,-0.17,0.08,0.95,137.5,12.2,0.6,0.0,0.0,0.0,0.0,0.0,1.25,0.75,2.5,0.75,1.5,2.75,0.25,0.5,0.02,0.14,0.95,78.21,4.9,-48.8
3.06,1.75,0.0,0.75,1.25,0.0,0.0,0.5,1.0,0.5,1.25,1.5,0.0,0.0,-0.17,0.08,0.95,129.28,12.5,3.3,0.0,0.0,0.0,0.0,0.25,3.75,0.5,2.5,0.75,3.75,2.0,0.25,0.0,0.02,0.14,0.95,89.52,10.7,-33.1
3.08,0.5,0.0,1.75,1.0,0.0,0.0,0.5,1.0,0.5,1.0,1.5,0.0,0.0,-0.11,0.14,0.95,120.53,13.3,-2.6,0.0,0.0,0.0,0.0,0.0,1.75,0.25,2.5,0.75,1.5,2.5,0.25,0.0,0.08,0.14,0.95,92.73,6.7,-42.4
3.1,1.75,0.0,0.75,0.75,0.0,0.0,0.5,1.25,0.5,1.0,1.25,0.0,0.0,-0.11,0.14,0.95,111.22,12.2,3.3,0.0,0.0,0.0,0.0,0.0,1.75,0.0,2.5,0.75,1.5,1.5,0.25,0.0,0.02,0.08,0.95,97.88,9.4,-39.4
3.12,1.75,0.0,0.75,0.75,0.0,0.0,0.5,1.5,0.25,0.5,1.25,0.0,0.0,-0.17,0.14,0.95,106.84,13.2,9.0,0.0,0.0,0.0,0.5,0.0,3.75,0.0,2.5,0.75,3.5,1.25,1.0,0.0,0.08,0.08,0.95,120.83,10.6,-33.7
3.14,1.5,0.0,1.25,1.0,0.0,0.0,0.5,1.25,0.25,1.0,0.75,0.0,0.0,-0.17,0.08,0.95,106.17,13.6,13.1,0.0,0.0,0.0,0.0,0.0,2.5,0.0,2.25,0.25,1.5,0.75,0.0,0.0,0.02,0.14,0.95,118.59,14.7,-26.0
3.16,0.0,0.5,1.75,0.5,0.0,0.0,0.5,1.5,0.0,1.0,0.5,0.0,0.0,-0.17,0.08,0.95,99.65,9.3,4.5,0.0,0.0,0.0,0.0,0.0,2.5,0.0,2.0,0.5,0.0,0.75,0.0,0.0,0.08,0.14,0.95,107.92,13.2,-12.7
3.18,0.0,0.0,1.75,1.0,0.0,0.0,0.5,1.5,0.0,1.0,0.25,0.0,0.0,-0.11,0.14,1.02,93.14,9.6,4.3,0.0,0.0,0.0,0.0,0.0,1.75,0.0,1.25,0.75,1.5,0.75,0.25,0.0,0.02,0.14,0.95,92.15,10.3,-35.3
3.2,0.0,0.0,1.0,1.25,0.0,0.0,0.5,1.25,0.25,0.25,0.5,0.0,0.0,-0.17,0.14,0.95,82.89,11.0,6.6,0.0,0.0,0.0,0.0,0.0,1.5,0.0,1.5,0.5,1.25,0.75,0.0,0.0,0.02,0.14,0.95,80.68,11.7,-33.0
3.22,0.0,0.0,1.25,0.5,0.0,0.0,0.25,1.5,0.0,0.5,0.5,0.0,0.0,-0.17,0.08,0.95,72.16,7.7,-4.6,0.0,0.0,0.0,0.0,0.0,1.25,0.0,1.25,0.5,0.75,1.0,0.0,0.0,0.02,0.14,0.95,68.09,9.3,-33.8
3.24,0.0,0.0,1.0,1.25,0.0,0.0,0.25,1.25,0.0,0.0,0.5,0.0,0.0,-0.17,0.08,0.95,60.83,11.9,13.5,0.0,0.0,0.0,0.0,0.0,1.75,0.0,1.25,0.5,1.0,0.75,0.5,0.0,0.02,0.14,0.95,66.88,10.0,-34.9
3.26,0.0,0.25,0.0,0.25,0.0,0.0,0.25,1.25,0.0,0.25,0.5,0.0,0.0,-0.17,0.08,0.95,49.17,-3.0,-22.8,0.0,0.0,0.5,0.0,0.0,1.5,0.0,1.0,0.75,0.5,0.75,0.0,0.0,0.02,0.14,0.95,63.57,4.1,-16.3
3.28,0.0,0.0,0.5,0.75,0.0,0.0,0.25,1.0,0.25,0.25,0.5,0.0,0.0,-0.17,0.08,0.95,42.26,7.2,-6.9,0.0,0.0,0.0,0.0,0.0,1.25,0.0,1.0,0.75,0.25,0.75,0.0,0.0,0.02,0.14,0.95,55.06,7.9,-25.8
3.3,0.0,0.0,0.75,0.5,0.0,0.0,0.25,0.75,0.0,0.75,1.0,0.0,0.0,-0.17,0.08,0.95,41.78,7.3,-20.1,0.0,0.0,0.0,0.0,0.0,1.25,0.0,0.75,0.25,0.5,0.75,0.0,0.0,0.02,0.14,0.95,45.81,10.7,-26.7
3.32,0.0,0.0,1.5,1.0,0.0,0.0,0.25,0.75,0.0,0.75,0.5,0.0,0.0,-0.17,0.08,0.95,50.08,13.1,7.6,0.0,0.0,0.0,0.0,0.0,1.25,0.0,1.0,0.5,0.25,0.75,0.25,0.0,0.02,0.14,0.95,45.38,8.1,-30.4
3.34,0.0,0.0,1.75,0.5,0.0,0.0,0.25,0.5,0.0,0.25,1.0,0.0,0.0,-0.17,0.08,0.95,54.69,19.2,7.7,0.0,0.0,0.0,0.0,0.25,1.75,0.0,1.0,0.75,1.0,2.0,0.25,0.5,0.02,0.14,0.95,63.22,6.2,-40.8
3.36,0.0,0.0,1.0,1.25,0.0,0.0,0.25,0.5,0.0,0.5,0.75,0.0,0.0,-0.17,0.08,0.95,59.87,13.7,7.1,1.0,0.0,0.5,0.0,0.5,1.25,1.0,1.0,0.75,1.75,0.75,1.0,0.0,0.02,0.14,0.95,88.48,-2.2,-17.5
3.38,0.0,0.0,1.0,0.5,0.0,0.0,0.25,0.5,0.0,0.0,1.0,0.0,0.0,-0.17,0.08,0.95,55.78,17.3,1.2,0.0,0.0,0.0,0.0,0.0,1.0,0.0,0.75,0.5,0.25,0.75,0.0,0.0,0.02,0.14,0.95,88.61,7.6,-28.3
3.4,0.0,0.0,0.75,0.25,0.0,0.0,0.25,0.5,0.0,0.25,0.5,0.0,0.0,-0.17,0.08,0.95,48.37,12.9,-3.8,0.0,0.0,0.0,0.0,0.0,1.25,0.0,0.75,0.5,0.25,0.75,0.0,0.0,0.02,0.14,0.95,78.41,8.7,-24.0
3.42,0.0,0.0,0.75,0.5,0.0,0.0,0.0,0.5,0.0,0.5,0.5,0.0,0.0,-0.17,0.08,0.95,42.77,9.9,-5.8,0.0,0.0,0.0,0.0,0.0,1.25,0.0,0.75,0.25,0.25,0.75,0.0,0.0,0.02,0.14,0.95,60.28,10.3,-22.8
3.44,0.0,0.0,1.0,1.0,0.0,0.0,0.25,0.25,0.0,0.25,0.75,0.0,0.0,-0.17,0.08,0.95,44.54,17.8,12.6,0.0,0.0,0.0,0.0,0.0,1.25,0.0,0.75,0.25,0.0,0.75,0.5,0.0,0.02,0.14,0.95,51.47,7.1,-31.7
3.46,1.0,0.0,0.75,0.5,0.0,0.0,0.25,0.25,0.0,0.25,0.5,0.0,0.0,-0.17,0.08,0.95,48.17,21.6,32.0,0.0,0.0,0.0,0.0,0.0,1.25,0.0,0.75,0.25,0.25,0.75,0.25,0.0,0.02,0.14,0.95,46.59,8.9,-29.2
3.48,0.0,0.0,0.75,0.5,0.0,0.0,0.0,0.25,0.0,0.0,0.5,0.0,0.0,-0.17,0.08,0.95,44.36,19.5,15.3,0.0,0.0,0.0,0.0,0.0,1.25,0.0,0.75,0.25,0.25,0.75,0.25,0.0,0.02,0.14,0.95,47.76,8.9,-29.2
3.5,0.0,0.0,0.0,0.5,0.0,0.0,0.0,0.0,0.0,0.25,0.75,0.0,0.0,-0.17,0.08,0.95,36.31,8.6,-28.9,0.0,0.0,0.0,0.0,0.0,1.25,0.0,0.75,0.25,1.0,0.75,0.0,0.0,0.02,0.14,0.95,51.23,11.3,-32.9
3.52,0.0,0.0,0.75,0.5,0.0,0.0,0.0,0.0,0.0,0.25,0.5,0.0,0.0,-0.17,0.08,0.95,29.16,19.6,10.8,0.0,0.0,0.0,0.0,0.25,1.25,0.0,0.5,0.25,0.0,0.75,0.0,0.0,0.02,0.14,0.95,48.23,8.6,-9.5
3.54,0.0,0.0,0.75,0.5,0.0,0.0,0.25,0.0,0.0,0.25,0.5,0.0,0.0,-0.17,0.08,0.95,26.16,20.3,11.7,0.0,0.0,0.0,0.0,0.0,1.25,0.0,0.75,0.25,0.5,0.75,0.25,0.0,0.02,0.14,0.95,48.58,9.4,-32.3
3.56,0.0,0.0,1.0,0.5,0.0,0.0,0.0,0.0,0.25,0.0,0.5,0.0,0.0,-0.17,0.08,0.95,27.74,24.8,20.6,0.0,0.0,0.0,0.0,0.0,1.25,0.0,0.75,0.25,0.25,0.75,0.0,0.0,0.02,0.14,0.95,44.63,10.3,-22.8
3.58,0.0,0.0,1.0,0.25,0.0,0.0,0.0,0.0,0.0,0.25,0.0,0.0,0.0,-0.17,0.08,0.95,27.36,25.9,38.3,0.0,0.0,0.0,0.0,0.0,1.25,0.0,0.75,0.25,0.25,0.5,0.0,0.0,0.02,0.14,0.95,41.55,12.1,-18.4
3.6,0.0,0.0,1.75,0.5,0.0,0.0,0.0,0.0,0.0,0.0,0.0,0.0,0.0,-0.17,0.08,0.95,31.49,33.5,60.3,0.0,0.0,0.0,0.0,0.0,1.25,0.0,0.75,0.25,0.25,0.75,0.25,0.0,0.02,0.14,0.95,44.02,8.9,-29.2
3.62,2.25,0.0,1.75,0.5,0.0,0.0,0.25,0.0,0.0,0.5,0.0,0.0,0.0,-0.17,0.08,0.95,50.75,29.2,61.7,0.0,0.0,0.0,0.0,0.0,1.25,0.0,0.75,0.25,0.0,0.5,0.0,0.0,0.02,0.14,0.95,46.32,11.7,-13.1
3.64,0.0,0.0,1.5,0.75,0.0,0.0,0.0,0.0,0.0,0.75,0.0,0.0,0.0,-0.17,0.08,0.95,56.31,19.7,26.9,0.0,0.0,0.0,0.0,0.0,1.25,0.0,0.75,0.25,0.0,0.5,0.0,0.0,0.02,0.14,0.95,43.77,11.7,-13.1
3.66,0.0,0.0,1.0,1.25,0.0,0.0,0.0,0.0,0.0,0.25,0.0,0.0,0.0,-0.17,0.08,0.95,57.35,22.4,46.2,0.0,0.0,0.0,0.0,0.0,1.0,0.0,0.75,0.0,0.25,0.75,0.0,0.0,0.02,0.14,0.95,41.06,11.3,-26.4
3.68,0.0,0.0,1.25,0.25,0.0,0.0,0.0,0.0,0.0,0.25,0.0,0.0,0.0,-0.17,0.14,0.95,48.0,27.7,41.5,0.0,0.0,0.0,0.0,0.0,1.25,0.0,0.75,0.25,0.0,0.25,0.25,0.0,0.02,0.14,0.95,39.81,11.9,-16.4
3.7,0.0,0.0,1.0,0.5,0.0,0.0,0.0,0.0,0.0,0.0,0.0,0.0,0.0,-0.17,0.14,0.95,39.65,31.1,59.9,0.0,0.0,0.0,0.0,0.0,1.25,0.0,0.75,0.25,1.25,0.5,0.25,0.0,0.02,0.14,0.95,47.08,11.7,-37.6
3.72,0.0,0.0,0.75,0.5,0.0,0.0,0.0,0.0,0.0,0.25,0.0,0.0,0.0,-0.17,0.14,0.95,31.69,22.4,37.8,0.0,0.0,0.0,0.0,0.25,1.25,0.0,0.75,0.25,0.0,0.75,0.0,0.0,0.02,0.14,0.95,49.48,9.3,-11.8
3.74,3.0,0.0,1.75,0.5,0.0,0.0,0.25,0.0,0.0,0.25,0.0,0.0,0.0,-0.17,0.14,0.95,52.62,32.0,72.5,0.0,0.0,0.0,0.0,0.0,1.25,0.0,0.75,0.25,0.75,0.25,0.0,0.0,0.02,0.14,0.95,51.3,14.4,-23.1
3.76,2.75,0.0,1.75,0.25,0.0,0.0,0.0,0.0,0.0,0.25,0.0,0.0,0.0,-0.17,0.08,0.95,68.83,32.6,73.2,0.0,0.0,0.0,0.0,0.0,1.25,0.0,0.75,0.25,0.25,0.75,0.0,0.0,0.02,0.14,0.95,50.47,10.3,-22.8
3.78,2.75,0.0,0.75,1.25,0.0,0.0,0.25,0.0,0.0,0.0,0.0,0.0,0.0,-0.17,0.08,0.95,83.83,30.5,79.1,0.0,0.0,0.0,0.0,0.0,1.25,0.0,0.75,0.25,0.75,0.25,0.0,0.0,0.02,0.14,0.95,49.53,14.4,-23.1
3.8,2.25,0.0,0.75,0.25,0.0,0.0,0.0,0.0,0.0,0.0,0.0,0.0,0.0,-0.11,0.14,0.95,80.15,34.3,85.4,0.0,0.0,0.0,0.0,0.0,1.25,0.0,0.75,0.25,0.0,0.75,0.0,0.0,0.02,0.14,0.95,47.63,9.9,-18.3
3.82,0.0,0.0,0.75,0.25,0.0,0.0,0.0,0.0,0.0,0.0,0.0,0.0,0.0,-0.11,0.14,0.95,60.94,32.9,60.2,0.0,0.0,0.0,0.0,0.0,1.25,0.0,0.75,0.25,0.0,0.75,0.0,0.0,0.02,0.14,0.95,46.67,9.9,-18.3
3.84,0.0,0.0,0.75,0.0,0.0,0.0,0.0,0.0,0.0,0.0,0.0,0.0,0.0,-0.11,0.08,0.95,36.46,38.2,60.9,0.0,0.0,0.0,0.0,0.0,1.25,0.0,0.75,0.25,0.0,0.75,0.0,0.0,0.02,0.14,0.95,45.71,9.9,-18.3
3.86,0.0,0.0,0.75,1.0,0.0,0.0,0.0,0.0,0.0,0.0,0.0,0.0,0.0,-0.17,0.14,0.95,25.14,26.1,59.2,0.0,0.0,0.0,0.0,0.0,1.25,0.0,0.75,0.25,0.0,0.75,0.0,0.0,0.02,0.14,0.95,45.35,9.9,-18.3
3.88,0.0,0.0,0.75,0.5,0.0,0.0,0.25,0.0,0.0,0.5,0.0,0.0,0.0,-0.17,0.08,0.95,24.91,18.0,22.4,0.0,0.0,0.0,0.0,0.0,1.25,0.75,1.0,0.25,0.5,2.0,0.5,0.5,0.02,0.14,0.95,63.4,3.0,-47.0
3.9,0.0,0.0,0.75,0.75,0.0,0.0,0.0,0.0,0.0,0.5,0.0,0.0,0.0,-0.17,0.14,0.95,27.46,17.1,26.6,0.0,0.0,0.25,0.0,0.0,1.25,0.25,0.5,0.25,0.0,0.5,0.0,0.0,0.02,0.14,0.95,61.45,4.8,-2.2
3.92,0.0,0.0,0.75,0.5,0.0,0.0,0.0,0.0,0.0,0.25,0.0,0.0,0.0,-0.17,0.14,0.95,26.93,22.4,37.8,1.0,0.5,0.75,1.25,1.25,2.75,1.0,1.0,0.75,0.75,2.0,0.0,0.25,0.02,0.14,0.95,112.08,-3.1,11.4
3.94,0.0,0.0,0.75,1.0,0.0,0.0,0.25,0.0,0.0,0.5,0.0,0.0,0.0,-0.11,0.08,0.95,29.27,17.8,30.0,0.0,0.0,0.0,0.0,0.0,1.25,0.0,0.75,0.5,0.0,0.75,0.0,0.0,0.02,0.14,0.95,101.56,8.1,-19.9
3.96,0.0,0.0,0.75,0.5,0.0,0.0,0.25,0.0,0.0,0.25,0.0,0.0,0.0,-0.17,0.14,0.95,25.09,23.1,37.1,0.0,0.0,0.0,0.0,1.0,1.25,1.0,1.0,0.25,0.0,1.5,0.0,0.0,0.02,0.14,0.95,108.36,2.4,-7.7
3.98,0.0,0.0,0.75,1.0,0.0,0.0,0.25,0.0,0.0,0.75,0.0,0.0,0.0,-0.17,0.08,0.95,27.92,14.7,20.2,0.0,0.0,0.0,0.0,0.0,1.25,0.0,0.75,0.5,0.75,0.75,0.25,0.0,0.02,0.14,0.95,87.9,8.5,-35.3
4.0,0.0,0.0,0.75,0.5,0.0,0.0,0.0,0.0,0.0,0.5,0.0,0.0,0.0,-0.17,0.08,0.95,28.96,17.1,22.0,0.0,0.0,0.0,0.5,0.0,2.25,0.0,0.75,0.75,0.5,1.5,0.25,0.0,0.02,0.14,0.95,91.98,5.2,-20.4
4.02,0.0,0.0,0.75,0.5,0.0,0.0,0.0,0.0,0.0,0.25,0.0,0.0,0.0,-0.17,0.14,0.95,29.87,22.4,37.8,0.0,0.0,0.0,0.0,0.0,1.25,0.0,0.75,0.25,0.0,0.25,0.25,0.0,0.02,0.14,0.95,71.88,11.9,-16.4
4.04,0.0,0.0,0.5,0.5,0.0,0.0,0.0,0.0,0.0,0.25,0.0,0.0,0.0,-0.17,0.14,0.95,27.57,19.2,33.2,0.0,0.0,0.0,0.0,0.0,1.25,0.0,0.75,0.25,0.0,0.5,0.25,0.0,0.02,0.14,0.95,63.78,10.0,-21.3
4.06,0.0,0.0,0.75,0.25,0.0,0.0,0.25,0.0,0.0,0.25,0.0,0.0,0.0,-0.17,0.14,0.95,26.53,24.2,33.2,0.75,0.0,0.0,1.0,0.5,2.25,0.5,1.0,0.75,0.75,1.25,0.25,0.25,0.02,0.14,0.95,83.21,0.9,-3.5
4.08,0.0,0.0,0.75,0.5,0.0,0.0,0.0,0.0,0.0,0.25,0.0,0.0,0.0,-0.17,0.08,0.95,24.55,22.4,37.8,0.0,0.0,0.0,0.25,0.0,1.25,0.0,0.75,0.75,0.75,0.75,0.75,0.0,0.02,0.14,0.95,84.61,4.5,-37.9
4.1,0.0,0.0,0.5,0.5,0.0,0.0,0.25,0.0,0.0,1.0,0.25,0.0,0.0,-0.17,0.08,0.95,27.74,8.1,-11.9,1.0,0.5,0.0,1.25,0.5,3.25,1.0,1.25,0.75,1.5,2.0,0.75,0.5,0.02,0.14,0.95,129.43,0.7,-7.9
4.12,0.0,0.0,0.0,0.75,0.0,0.0,0.25,0.0,0.0,0.25,0.0,0.0,0.0,-0.17,0.08,0.95,25.77,11.6,25.8,0.75,0.5,0.5,1.25,0.5,2.75,1.0,1.25,0.75,1.5,2.0,0.75,0.5,0.02,0.14,0.95,159.76,-0.9,-8.6
4.14,0.75,0.0,0.75,0.5,0.0,0.0,0.25,0.0,0.0,0.25,0.0,0.0,0.0,-0.17,0.14,0.95,31.11,26.6,55.0,1.0,0.5,0.5,1.25,0.5,2.75,1.0,1.25,0.75,1.5,2.0,0.75,0.25,0.02,0.14,0.95,190.68,-1.8,-4.8
4.16,1.25,0.0,0.75,0.5,0.0,0.0,0.0,0.0,0.0,0.25,0.0,0.0,0.0,-0.17,0.08,0.95,36.95,27.8,63.6,1.0,0.5,0.5,1.25,1.5,3.0,1.0,1.25,0.75,1.5,2.0,1.0,0.25,0.02,0.14,0.95,206.95,-1.1,-1.4
4.18,1.0,0.0,0.75,1.25,0.0,0.0,0.25,0.0,0.0,0.0,0.0,0.0,0.0,-0.17,0.14,0.95,45.99,28.2,69.4,0.75,0.5,0.0,1.25,1.0,2.75,1.0,1.25,0.5,2.5,2.0,1.0,0.25,0.02,0.14,0.95,222.98,1.5,-12.7
4.2,0.75,0.0,0.75,0.5,0.0,0.0,0.25,0.0,0.0,0.5,0.0,0.0,0.0,-0.17,0.14,0.95,49.24,22.5,42.6,0.75,0.5,0.25,1.25,0.5,3.25,1.0,1.25,0.75,1.5,2.0,0.75,0.25,0.02,0.14,0.95,221.32,0.3,-6.5
4.22,1.0,0.0,0.75,1.0,0.0,0.0,0.25,0.0,0.0,0.5,0.0,0.0,0.0,-0.17,0.14,0.95,55.17,22.6,48.8,0.75,0.5,0.5,1.25,1.25,3.0,1.0,1.25,0.75,1.5,2.0,0.75,0.5,0.02,0.14,0.95,222.79,-0.2,-4.2
4.24,1.5,0.0,1.5,0.5,0.0,0.0,0.25,0.0,0.0,0.75,0.5,0.0,0.0,-0.17,0.08,0.95,66.66,23.7,35.6,1.0,0.5,0.5,1.25,0.5,3.25,1.0,1.25,0.75,1.75,2.0,0.75,0.5,0.02,0.14,0.95,222.92,-0.4,-6.6
4.26,1.75,0.0,1.75,0.5,0.0,0.0,0.25,0.0,0.0,0.5,0.25,0.0,0.0,-0.11,0.08,0.95,77.3,27.7,51.3,1.0,0.5,0.5,1.25,0.5,3.25,1.0,1.25,0.75,1.5,2.0,0.75,0.5,0.02,0.14,0.95,222.15,-0.6,-5.4
4.28,1.75,0.0,1.75,0.5,0.0,0.0,0.25,0.0,0.25,1.0,0.5,0.0,0.0,-0.17,0.08,0.95,90.14,22.6,31.2,1.0,0.5,0.5,1.25,0.5,2.75,1.0,1.25,0.75,1.5,2.0,0.5,0.5,0.02,0.14,0.95,214.25,-1.3,-4.8
4.3,1.75,0.0,1.5,0.5,0.0,0.0,0.25,0.0,0.0,0.25,0.5,0.0,0.0,-0.17,0.08,0.95,92.47,28.6,50.9,1.0,0.5,0.5,1.25,1.25,2.75,1.0,1.25,0.75,2.0,2.0,0.75,0.25,0.02,0.14,0.95,211.17,-0.9,-3.7
4.32,1.75,0.0,1.75,0.5,0.0,0.0,0.0,0.0,0.0,0.25,0.5,0.0,0.0,-0.17,0.08,0.95,92.73,29.0,52.1,1.0,0.5,0.25,1.25,1.0,2.75,1.0,1.25,0.75,1.5,2.0,0.75,0.25,0.02,0.14,0.95,206.41,-0.9,-3.5
4.34,1.75,0.0,1.75,0.5,0.0,0.0,0.25,0.0,0.0,0.0,0.5,0.0,0.0,-0.17,0.14,0.95,89.0,31.6,58.4,1.0,0.5,0.5,1.25,1.25,2.75,1.0,1.25,0.75,1.5,2.0,0.75,0.25,0.02,0.14,0.95,202.01,-1.4,-1.2
4.36,1.75,0.0,1.5,0.5,0.0,0.0,0.25,0.0,0.25,0.25,0.5,0.0,0.0,-0.17,0.14,0.95,88.24,27.8,46.3,0.75,0.5,0.5,1.25,1.25,3.25,1.0,1.25,0.75,1.5,2.0,0.75,0.25,0.02,0.14,0.95,203.28,-0.1,-1.7
4.38,1.75,0.0,1.75,1.0,0.0,0.0,0.25,0.0,0.0,0.5,0.5,0.0,0.0,-0.17,0.14,0.95,90.27,26.0,46.4,0.75,0.5,0.0,1.25,1.75,2.75,1.0,1.25,0.75,1.5,2.0,1.5,0.5,0.02,0.14,0.95,206.8,0.3,-10.0
4.4,1.75,0.0,1.5,0.5,0.0,0.0,0.25,0.0,0.0,0.25,0.5,0.0,0.0,-0.17,0.08,0.95,88.35,28.6,50.9,1.0,0.5,0.25,1.25,0.5,3.0,1.0,1.25,0.75,1.25,2.0,0.75,0.25,0.02,0.14,0.95,200.88,-0.9,-4.0
4.42,1.75,0.0,1.75,0.5,0.0,0.0,0.0,0.0,0.0,0.75,0.5,0.0,0.0,-0.17,0.08,0.95,89.16,24.7,39.8,0.0,0.0,0.5,0.0,0.5,1.25,1.0,1.0,0.75,0.75,1.25,0.25,0.0,0.02,0.14,0.95,167.69,-0.3,-18.9
4.44,1.75,0.0,1.75,0.5,0.0,0.0,0.0,0.0,0.0,0.25,0.5,0.0,0.0,-0.17,0.08,0.95,85.87,29.0,52.1,0.75,0.5,0.5,1.25,0.5,2.75,1.0,1.25,0.75,1.5,2.0,1.0,0.25,0.02,0.14,0.95,164.67,-1.3,-8.5
4.46,1.75,0.0,1.5,0.5,0.0,0.0,0.25,0.0,0.0,0.75,0.5,0.0,0.0,-0.17,0.08,0.95,84.46,24.2,38.4,1.0,0.5,0.25,1.25,1.5,2.75,1.0,1.0,0.75,1.5,2.0,1.0,0.25,0.02,0.14,0.95,168.29,-1.1,-2.5
4.48,1.75,0.0,1.5,0.5,0.0,0.0,0.0,0.0,0.25,0.5,0.5,0.0,0.0,-0.17,0.08,0.95,81.96,25.4,40.6,1.0,0.5,0.25,1.25,1.25,2.75,1.0,1.0,0.75,1.5,2.0,0.75,0.25,0.02,0.14,0.95,182.18,-1.1,-1.7
4.5,1.75,0.0,1.75,0.5,0.0,0.0,0.25,0.0,0.0,0.25,0.5,0.0,0.0,-0.17,0.14,0.95,82.03,29.1,51.5,1.0,0.5,0.25,1.25,0.5,2.75,1.0,1.25,0.75,1.5,2.0,0.75,0.25,0.02,0.14,0.95,187.46,-1.0,-6.1
4.52,1.5,0.0,1.5,0.5,0.0,0.0,0.25,0.0,0.0,0.25,0.5,0.0,0.0,-0.17,0.08,0.95,78.56,28.3,48.4,0.75,0.5,0.5,1.25,1.25,2.75,1.0,1.25,0.75,1.5,1.75,0.75,0.5,0.02,0.14,0.95,194.93,-0.4,-3.6
4.54,1.75,0.0,1.75,0.75,0.0,0.0,0.25,0.0,0.0,0.25,0.5,0.0,0.0,-0.17,0.08,0.95,80.79,28.5,51.8,0.75,0.5,0.5,1.25,0.5,2.75,1.0,1.25,0.75,1.5,2.0,0.75,0.25,0.02,0.14,0.95,191.12,-1.2,-6.6
4.56,1.75,0.0,1.5,0.5,0.0,0.0,0.25,0.0,0.0,1.25,0.5,0.0,0.0,-0.17,0.08,0.95,83.52,20.6,28.2,1.0,0.5,0.0,1.25,1.75,2.75,1.0,1.0,0.75,1.75,2.0,1.0,0.25,0.02,0.14,0.95,196.09,-0.1,-3.7
4.58,2.0,0.0,1.75,0.5,0.0,0.0,0.25,0.0,0.0,0.25,0.5,0.0,0.0,-0.17,0.08,0.95,85.55,29.4,53.6,1.0,0.5,0.25,1.25,1.0,2.75,1.0,1.0,0.75,1.5,2.0,0.75,0.25,0.02,0.14,0.95,196.42,-1.2,-2.9
4.6,2.0,0.0,1.75,0.5,0.0,0.0,0.25,0.0,0.0,0.75,0.5,0.0,0.0,-0.17,0.08,0.95,88.6,25.3,42.0,1.0,0.5,0.5,1.25,1.0,2.75,1.0,1.25,0.75,1.5,2.0,0.75,0.25,0.02,0.14,0.95,200.14,-1.5,-2.4
4.62,2.0,0.0,1.5,0.5,0.0,0.0,0.25,0.0,0.0,0.25,0.5,0.0,0.0,-0.17,0.08,0.95,86.96,28.9,53.2,0.75,0.5,0.75,1.25,1.0,2.75,1.0,1.0,0.75,1.75,2.0,0.75,0.25,0.02,0.14,0.95,201.35,-1.7,-3.5
4.64,1.75,0.0,1.5,0.5,0.0,0.0,0.25,0.0,0.0,0.25,0.5,0.0,0.0,-0.17,0.08,0.95,84.35,28.6,50.9,1.0,0.5,0.5,1.25,1.75,3.0,1.0,1.25,0.75,1.5,2.0,1.0,0.25,0.02,0.14,0.95,210.38,-1.0,-0.4
4.66,1.75,0.0,1.75,0.5,0.0,0.0,0.25,0.0,0.0,0.75,0.5,0.0,0.0,-0.17,0.14,0.95,83.88,24.9,39.5,1.0,0.5,1.5,1.25,1.75,2.75,1.0,1.25,0.75,1.5,2.0,0.25,0.25,0.02,0.14,0.95,217.5,-3.5,8.5
4.68,1.75,0.0,1.75,0.5,0.0,0.0,0.25,0.0,0.0,0.25,0.5,0.0,0.0,-0.17,0.08,0.95,83.19,29.1,51.5,0.75,0.5,0.5,1.25,0.5,2.75,1.0,1.25,0.75,1.5,2.0,1.0,0.25,0.02,0.14,0.95,208.93,-1.3,-8.5
4.7,1.75,0.0,1.5,0.5,0.0,0.0,0.0,0.0,0.0,0.25,0.5,0.0,0.0,-0.17,0.08,0.95,80.62,28.5,51.6,0.75,0.5,0.0,1.25,0.5,2.75,1.0,1.0,0.75,1.5,2.0,0.75,0.25,0.02,0.14,0.95,198.53,0.0,-8.8
4.72,2.0,0.0,1.5,0.5,0.0,0.0,0.25,0.0,0.0,0.75,0.5,0.0,0.0,-0.17,0.08,0.95,82.34,24.7,41.0,1.0,0.5,0.5,1.25,1.0,3.0,1.0,1.25,0.75,1.5,2.0,0.75,0.25,0.02,0.14,0.95,196.29,-1.1,-1.7
4.74,2.0,0.0,1.5,0.5,0.0,0.0,0.25,0.0,0.25,0.25,0.5,0.0,0.0,-0.17,0.14,0.95,83.2,28.1,48.7,0.75,0.5,0.25,1.25,1.75,2.75,1.0,1.25,0.75,1.5,2.0,1.0,0.25,0.02,0.14,0.95,197.9,-0.2,-3.6
4.76,2.0,0.0,1.5,0.5,0.0,0.0,0.0,0.0,0.0,0.5,0.5,0.0,0.0,-0.17,0.08,0.95,83.51,26.6,47.3,1.0,0.5,0.25,1.25,1.0,2.75,1.0,1.0,0.75,1.75,2.0,1.0,0.25,0.02,0.14,0.95,198.91,-1.0,-6.1
4.78,2.0,0.0,1.25,0.5,0.0,0.0,0.0,0.0,0.0,0.0,0.5,0.0,0.0,-0.17,0.08,0.95,78.81,30.9,61.2,1.0,0.5,0.5,1.25,1.25,3.0,1.0,1.25,0.75,1.5,2.0,0.75,0.25,0.02,0.14,0.95,203.09,-1.0,-0.6
4.8,2.0,0.0,1.25,0.5,0.0,0.0,0.0,0.0,0.0,0.25,0.5,0.0,0.0,-0.17,0.08,0.95,76.42,28.3,53.5,1.0,0.5,0.5,1.25,1.5,3.0,1.0,1.25,0.75,1.5,2.0,0.75,0.25,0.02,0.14,0.95,205.94,-1.0,0.3
4.82,1.75,0.0,1.5,0.5,0.0,0.0,0.0,0.0,0.0,0.25,0.5,0.0,0.0,-0.17,0.08,0.95,74.07,28.5,51.6,0.75,0.5,0.25,1.25,0.5,2.75,1.0,1.0,0.75,1.75,2.0,0.75,0.25,0.02,0.14,0.95,199.63,-0.4,-8.7
4.84,1.75,0.0,1.0,0.5,0.0,0.0,0.0,0.0,0.0,0.5,0.5,0.0,0.0,-0.17,0.14,0.95,71.63,24.6,42.8,0.75,0.5,0.5,1.25,2.25,2.75,1.0,1.0,0.75,1.75,2.0,1.0,0.25,0.02,0.14,0.95,204.08,-0.7,-0.9
4.86,1.75,0.0,1.0,0.5,0.0,0.0,0.0,0.0,0.0,0.75,0.5,0.0,0.0,-0.17,0.08,0.95,71.56,22.4,36.1,0.75,0.5,0.25,1.25,1.0,3.0,1.0,1.0,0.75,1.5,2.0,1.0,0.25,0.02,0.14,0.95,200.61,-0.3,-5.9
4.88,1.75,0.0,1.5,0.5,0.0,0.0,0.25,0.0,0.0,0.5,0.5,0.0,0.0,-0.17,0.08,0.95,73.72,26.3,44.4,0.75,0.5,0.5,1.25,1.0,2.75,1.0,1.0,0.75,1.75,2.0,1.0,0.25,0.02,0.14,0.95,200.64,-1.1,-6.6
4.9,1.75,0.0,1.0,0.5,0.0,0.0,0.25,0.0,0.0,0.5,0.5,0.0,0.0,-0.17,0.08,0.95,72.88,24.9,42.4,1.0,0.5,0.5,1.25,0.5,2.75,1.0,1.25,0.75,1.5,2.0,1.0,0.5,0.02,0.14,0.95,198.31,-1.6,-8.6
4.92,1.75,0.0,1.0,0.75,0.0,0.0,0.25,0.0,0.25,0.25,0.5,0.0,0.0,-0.17,0.08,0.95,74.25,26.0,45.4,0.75,0.5,0.5,1.25,1.25,2.75,1.0,1.0,0.75,1.5,2.0,0.75,0.25,0.02,0.14,0.95,199.39,-1.2,-2.2
4.94,1.75,0.0,1.0,0.5,0.0,0.0,0.25,0.0,0.0,0.25,0.5,0.0,0.0,-0.17,0.08,0.95,71.89,27.4,49.7,1.0,0.5,0.5,1.25,0.5,2.75,0.75,1.0,0.75,1.5,2.0,0.75,0.25,0.02,0.14,0.95,193.74,-1.8,-4.4
4.96,1.75,0.0,0.25,0.5,0.0,0.0,0.0,0.0,0.25,0.25,0.5,0.0,0.0,-0.17,0.08,0.95,65.77,23.6,41.5,0.75,0.5,0.5,1.25,0.5,2.75,1.0,1.5,0.75,1.5,2.0,1.0,0.5,0.02,0.14,0.95,192.13,-0.7,-10.9
4.98,1.75,0.0,0.25,0.5,0.0,0.0,0.25,0.0,0.25,0.25,0.5,0.0,0.0,-0.17,0.08,0.95,61.07,23.9,41.0,0.75,0.5,0.5,1.25,0.0,2.75,1.0,0.75,0.75,1.5,2.0,0.75,0.25,0.02,0.14,0.95,184.57,-2.1,-8.2
5.0,1.75,0.0,0.75,0.5,0.0,0.0,0.25,0.0,0.0,0.25,0.5,0.0,0.0,-0.17,0.08,0.95,59.87,26.6,48.9,1.0,0.5,0.5,1.25,0.5,2.75,1.0,1.25,0.75,1.75,2.0,1.0,0.25,0.02,0.14,0.95,186.69,-1.6,-7.9
5.02,1.75,0.0,0.0,0.5,0.0,0.0,0.25,0.0,0.0,0.25,0.5,0.0,0.0,-0.17,0.08,0.95,55.84,23.6,45.8,0.75,0.5,0.25,1.25,1.25,2.75,1.0,1.25,0.75,1.75,2.0,1.0,0.5,0.02,0.14,0.95,190.51,0.1,-9.0
5.04,1.75,0.0,0.25,0.5,0.0,0.0,0.25,0.0,0.0,0.5,0.5,0.0,0.0,-0.17,0.08,0.95,55.03,21.9,38.3,1.0,0.5,0.0,1.25,1.0,2.75,0.75,1.0,0.75,1.5,2.0,0.75,0.25,0.02,0.14,0.95,191.67,-0.2,-4.4
5.06,2.0,0.0,0.0,0.5,0.0,0.0,0.25,0.0,0.0,1.0,0.5,0.0,0.0,-0.17,0.08,0.95,56.91,16.9,26.1,0.75,0.5,0.5,1.25,0.5,2.5,1.0,1.0,0.75,1.5,2.0,0.75,0.25,0.02,0.14,0.95,188.99,-2.0,-6.7
5.08,1.75,0.0,0.5,0.5,0.0,0.0,0.25,0.0,0.25,0.25,0.5,0.0,0.0,-0.17,0.14,0.95,59.1,24.9,42.4,1.0,0.5,0.25,1.25,1.5,2.75,1.0,1.0,0.75,1.5,2.0,1.0,0.25,0.02,0.14,0.95,191.48,-1.1,-2.5
5.1,1.75,0.0,0.5,0.5,0.0,0.0,0.25,0.0,0.0,0.25,0.5,0.0,0.0,-0.17,0.08,0.95,59.15,25.8,48.0,0.75,0.5,0.25,1.25,0.5,2.5,1.0,1.0,0.75,1.5,2.0,0.75,0.25,0.02,0.14,0.95,187.51,-1.2,-8.1
5.12,1.75,0.0,0.0,0.5,0.0,0.0,0.25,0.0,0.0,0.25,0.5,0.0,0.0,-0.17,0.08,0.95,56.2,23.6,45.8,1.0,0.5,0.5,1.25,0.25,2.75,1.0,1.0,0.75,1.5,2.0,1.0,0.25,0.02,0.14,0.95,186.75,-2.4,-7.4
5.14,1.75,0.0,0.25,0.5,0.0,0.0,0.25,0.0,0.0,0.75,0.5,0.0,0.0,-0.17,0.08,0.95,57.28,19.4,30.7,1.0,0.5,0.5,1.25,0.5,2.75,1.0,1.0,0.75,1.5,2.0,0.75,0.25,0.02,0.14,0.95,186.0,-2.1,-4.1
5.16,1.75,0.0,0.75,0.5,0.0,0.0,0.0,0.0,0.0,0.25,0.5,0.0,0.0,-0.17,0.08,0.95,58.02,26.4,49.6,0.75,0.5,1.5,1.25,1.75,2.5,0.75,1.25,0.75,1.5,2.0,1.0,0.5,0.02,0.14,0.95,199.15,-3.2,-0.8
5.18,1.75,0.0,0.75,0.5,0.0,0.0,0.25,0.0,0.0,0.25,0.5,0.0,0.0,-0.17,0.08,0.95,61.52,26.6,48.9,0.75,0.5,0.25,1.25,1.5,2.75,0.75,1.0,0.75,1.5,2.0,0.75,0.25,0.02,0.14,0.95,200.87,-0.1,-2.5
5.2,1.75,0.0,0.75,0.5,0.0,0.0,0.25,0.0,0.0,0.5,0.5,0.0,0.0,-0.17,0.08,0.95,64.94,24.0,41.2,1.0,0.5,0.25,1.25,0.25,2.75,1.0,1.0,0.75,1.5,1.5,0.75,0.25,0.02,0.14,0.95,196.01,-1.1,-4.0
5.22,1.75,0.0,0.5,0.5,0.0,0.0,0.25,0.0,0.0,0.25,0.5,0.0,0.0,-0.17,0.08,0.95,64.54,25.8,48.0,1.0,0.5,0.25,1.25,1.75,2.75,0.75,1.25,0.75,1.5,2.0,1.0,0.5,0.02,0.14,0.95,199.59,-0.2,-4.1
5.24,1.75,0.0,0.0,0.5,0.0,0.0,0.25,0.0,0.0,0.5,0.5,0.0,0.0,-0.17,0.08,0.95,61.37,20.6,36.5,1.0,0.5,0.0,1.25,1.25,2.75,0.75,1.0,0.75,1.5,2.0,1.0,0.5,0.02,0.14,0.95,197.33,0.0,-7.1
5.26,1.75,0.0,0.75,0.5,0.0,0.0,0.25,0.0,0.0,0.25,0.5,0.0,0.0,-0.17,0.08,0.95,61.63,26.6,48.9,1.0,0.5,0.25,1.25,2.25,2.5,0.5,1.25,0.75,1.5,2.0,0.75,0.25,0.02,0.14,0.95,203.02,-0.3,0.9
5.28,2.0,0.0,0.75,0.5,0.0,0.0,0.0,0.0,0.0,0.5,0.5,0.0,0.0,-0.17,0.14,0.95,63.78,24.4,44.8,1.0,0.5,0.25,1.25,0.5,2.5,1.0,1.0,0.75,1.5,2.0,1.0,0.25,0.02,0.14,0.95,198.91,-2.0,-8.2
5.3,1.75,0.0,0.75,0.5,0.0,0.0,0.25,0.0,0.0,0.5,0.5,0.25,0.0,-0.17,0.08,0.95,67.28,23.1,32.4,1.0,0.5,0.5,1.25,0.25,2.75,1.0,1.0,0.75,1.75,2.0,1.0,0.25,0.02,0.14,0.95,196.97,-2.0,-8.7
5.32,1.75,0.0,0.75,0.5,0.0,0.0,0.0,0.0,0.0,0.5,0.5,0.0,0.0,-0.17,0.08,0.95,68.82,23.7,41.6,0.75,0.5,1.0,1.25,1.25,2.75,1.0,1.0,0.75,1.5,2.0,0.75,0.25,0.02,0.14,0.95,195.93,-2.5,0.0
5.34,1.75,0.0,0.5,0.5,0.0,0.0,0.25,0.0,0.25,0.25,0.5,0.0,0.0,-0.17,0.08,0.95,68.4,24.9,42.4,1.0,0.5,0.5,1.25,1.25,2.5,0.75,1.5,0.75,1.5,2.0,0.75,0.25,0.02,0.14,0.95,199.0,-1.3,-2.7
5.36,1.75,0.0,0.25,0.75,0.0,0.0,0.0,0.0,0.0,0.5,0.5,0.0,0.0,-0.11,0.14,0.95,65.88,21.2,40.1,1.0,0.5,0.25,1.25,1.0,2.75,1.0,1.0,0.75,1.75,2.0,0.75,0.5,0.02,0.14,0.95,199.49,-0.6,-6.2
5.38,1.75,0.0,0.75,0.5,0.0,0.0,0.25,0.0,0.0,0.25,0.5,0.0,0.0,-0.17,0.08,0.95,64.18,26.6,48.9,1.0,0.5,0.5,1.25,1.0,2.5,1.0,1.0,0.75,1.75,2.0,0.75,0.5,0.02,0.14,0.95,199.53,-1.7,-5.6
5.4,1.75,0.0,0.75,0.5,0.0,0.0,0.25,0.0,0.0,0.25,0.5,0.0,0.0,-0.17,0.08,0.95,63.88,26.6,48.9,0.75,0.5,0.0,1.25,1.75,2.75,0.75,1.0,0.75,1.75,2.0,0.75,0.25,0.02,0.14,0.95,198.8,0.8,-3.8
5.42,1.75,0.0,1.0,0.5,0.0,0.0,0.0,0.0,0.0,0.5,0.5,0.0,0.0,-0.17,0.08,0.95,66.25,24.6,42.8,1.0,0.5,0.5,1.25,0.0,2.5,1.0,1.25,0.75,1.75,2.0,1.0,0.25,0.02,0.14,0.95,195.1,-2.2,-11.4
5.44,1.75,0.0,0.75,0.5,0.0,0.0,0.25,0.0,0.0,0.5,0.5,0.0,0.0,-0.17,0.08,0.95,67.53,24.0,41.2,1.0,0.5,0.25,1.25,1.5,2.75,0.75,1.5,0.75,1.5,2.0,0.75,0.25,0.02,0.14,0.95,197.58,-0.1,-2.1
5.46,1.75,0.0,1.0,0.5,0.0,0.0,0.0,0.0,0.0,0.5,0.5,0.0,0.0,-0.17,0.08,0.95,69.66,24.6,42.8,0.75,0.5,0.5,1.25,1.5,2.5,1.0,1.0,0.75,1.5,2.0,0.75,0.5,0.02,0.14,0.95,197.09,-1.2,-3.6
5.48,1.75,0.0,0.75,0.5,0.0,0.0,0.25,0.0,0.0,0.25,0.5,0.0,0.0,-0.17,0.08,0.95,68.27,26.6,48.9,0.75,0.5,0.5,1.25,1.75,2.75,0.75,1.0,0.75,1.5,2.0,1.0,0.5,0.02,0.14,0.95,202.95,-0.6,-4.0
5.5,1.75,0.0,1.0,0.5,0.0,0.0,0.0,0.0,0.0,0.5,0.5,0.0,0.0,-0.17,0.08,0.95,68.51,24.6,42.8,0.75,0.5,0.0,1.25,0.5,2.5,0.75,1.5,0.75,1.5,2.0,0.75,0.25,0.02,0.14,0.95,195.83,0.5,-11.1
5.52,1.75,0.0,1.25,0.5,0.0,0.0,0.25,0.0,0.0,0.5,0.5,0.0,0.0,-0.17,0.08,0.95,70.92,25.6,43.4,1.0,0.5,0.5,1.25,1.25,2.5,0.75,1.5,0.75,1.5,2.0,0.75,0.25,0.02,0.14,0.95,198.08,-1.3,-2.7
5.54,1.75,0.0,0.75,0.5,0.0,0.0,0.25,0.0,0.0,0.75,0.5,0.0,0.0,-0.17,0.08,0.95,72.4,21.7,34.4,0.75,0.5,0.5,1.25,1.0,2.75,0.75,1.0,0.75,1.75,2.0,1.0,0.25,0.02,0.14,0.95,194.91,-0.9,-6.9
