time,left pressure 0[N/cm虏],left pressure 1[N/cm虏],left pressure 2[N/cm虏],left pressure 3[N/cm虏],left pressure 4[N/cm虏],left pressure 5[N/cm虏],left pressure 6[N/cm虏],left pressure 7[N/cm虏],left pressure 8[N/cm虏],left pressure 9[N/cm虏],left pressure 10[N/cm虏],left pressure 11[N/cm虏],left pressure 12[N/cm虏],left acceleration X[g],left acceleration Y[g],left acceleration Z[g],left total force[N],left center of pressure X[mm],left center of pressure Y[mm],right pressure 0[N/cm虏],right pressure 1[N/cm虏],right pressure 2[N/cm虏],right pressure 3[N/cm虏],right pressure 4[N/cm虏],right pressure 5[N/cm虏],right pressure 6[N/cm虏],right pressure 7[N/cm虏],right pressure 8[N/cm虏],right pressure 9[N/cm虏],right pressure 10[N/cm虏],right pressure 11[N/cm虏],right pressure 12[N/cm虏],right acceleration X[g],right acceleration Y[g],right acceleration Z[g],right total force[N],right center of pressure X[mm],right center of pressure Y[mm]
0.02,9.75,2.75,7.5,10.5,10.5,1.5,0.0,0.0,0.25,0.5,0.0,0.75,0.5,-0.11,0.27,1.08,813.05,16.4,60.3,6.0,1.5,5.25,4.5,6.0,6.75,4.5,5.0,3.5,6.0,6.25,3.75,3.0,0.08,0.14,0.95,1040.59,-5.4,-0.5
0.04,9.0,2.75,7.0,7.5,9.25,0.0,0.0,0.0,0.25,0.5,0.0,0.25,0.0,-0.17,0.33,1.27,741.8,18.4,65.6,5.0,1.25,4.0,3.75,6.0,6.5,4.25,5.75,3.75,6.75,6.25,4.25,4.25,0.08,0.14,0.95,1085.83,-3.2,-9.6
0.06,9.0,2.25,5.75,7.75,9.0,1.75,0.0,0.0,0.5,0.0,0.0,0.25,0.0,-0.3,0.39,1.27,666.3,16.6,65.2,3.75,1.25,2.75,3.0,5.25,6.25,4.25,5.75,3.5,7.25,7.0,5.5,5.5,0.02,0.14,0.95,1085.22,-1.4,-20.8
0.08,8.5,1.25,3.5,6.75,9.0,0.25,0.0,0.0,0.75,0.0,0.0,0.25,0.0,-0.42,0.52,1.39,571.96,16.6,64.7,1.75,1.0,2.75,1.5,4.75,6.0,0.5,6.25,3.75,8.25,7.5,6.5,6.5,0.02,0.14,0.95,1054.17,1.3,-34.7
0.1,8.0,1.25,1.0,4.5,7.5,0.0,0.0,0.0,0.25,0.0,0.0,0.25,0.0,-0.36,0.64,1.77,447.78,15.8,68.5,1.25,1.0,1.5,0.0,2.5,5.75,3.0,6.5,3.75,8.75,8.25,7.5,8.0,0.08,0.08,0.95,1019.01,2.4,-47.9
0.12,8.0,1.25,0.5,3.75,6.5,0.0,0.0,0.0,0.5,0.0,0.0,0.0,0.0,-0.3,0.45,1.45,349.06,16.3,70.7,1.25,0.5,0.75,0.0,1.25,5.25,2.75,6.5,3.25,9.0,8.75,8.5,8.75,0.02,0.08,0.95,978.88,3.0,-56.9
0.14,6.25,1.25,0.0,2.5,5.25,0.0,0.0,0.0,0.5,0.0,0.0,0.0,0.0,-0.23,0.45,1.45,266.69,15.4,70.8,1.5,0.0,1.25,1.25,1.25,5.25,2.5,6.5,3.0,9.5,9.0,9.0,9.0,0.02,0.08,0.95,962.25,2.3,-55.1
0.16,5.5,1.25,0.0,1.0,5.25,0.0,0.0,0.0,0.25,0.0,0.0,0.0,0.0,-0.23,0.45,1.33,202.36,14.2,72.9,0.0,0.75,0.25,0.75,1.25,3.5,2.0,6.5,2.5,9.75,9.0,10.0,9.5,0.02,0.08,0.95,934.68,3.6,-65.0
0.18,3.5,0.5,0.0,1.0,5.5,0.5,0.0,0.0,0.0,0.0,0.0,0.25,0.0,-0.3,0.45,1.2,144.72,9.1,63.8,0.0,0.75,0.0,1.25,1.25,3.0,2.0,6.0,2.25,9.75,9.0,10.0,9.5,0.02,0.08,0.89,910.3,3.4,-65.6
0.2,1.25,0.0,0.25,0.0,2.25,0.0,0.0,0.0,0.0,0.0,0.0,0.5,0.0,-0.11,0.14,0.45,73.78,10.2,47.4,1.0,0.5,0.0,0.75,1.25,4.0,1.75,6.0,0.0,9.75,9.0,9.75,9.75,0.02,0.08,0.89,880.08,4.2,-64.3
0.22,0.0,0.0,0.25,0.0,0.75,0.0,0.0,0.0,0.0,0.75,0.0,0.5,0.0,-0.48,-2.86,0.89,0.0,-0.1,-20.6,1.25,0.75,0.0,0.75,1.25,4.0,1.75,6.25,2.0,9.75,8.5,9.75,10.5,0.02,0.08,0.95,875.85,3.7,-62.4
0.24,0.5,0.0,1.5,1.0,3.5,0.5,0.0,0.0,0.0,0.25,0.5,0.5,0.0,-0.48,-1.11,1.89,0.0,8.5,36.6,1.25,1.25,0.5,1.0,1.25,4.0,1.75,6.5,2.5,9.75,8.5,9.75,9.5,0.02,0.08,0.95,880.86,2.8,-58.0
0.26,0.0,0.0,0.5,0.0,4.75,0.0,0.0,0.0,0.0,0.0,0.5,0.5,0.0,-0.42,-0.55,0.7,0.0,1.6,33.5,1.25,0.5,0.25,1.5,1.25,5.0,1.75,6.5,2.25,10.0,8.5,9.75,9.75,0.02,0.08,0.95,902.17,3.5,-58.5
0.28,0.5,0.0,1.25,1.0,0.5,0.0,0.0,0.0,0.0,0.5,0.0,0.25,0.0,-0.61,-0.55,0.64,2.86,18.4,36.5,1.25,1.0,0.5,1.25,1.25,5.0,1.75,6.75,2.5,10.0,8.5,9.75,9.5,0.02,0.08,0.95,923.62,3.2,-56.7
0.3,0.5,0.0,0.75,0.75,4.25,0.0,0.0,0.0,0.0,1.25,0.5,0.5,0.25,-0.67,-0.48,0.77,36.02,3.1,19.8,1.0,1.0,0.0,1.25,1.25,5.25,1.75,7.25,2.5,10.0,8.25,10.0,9.5,0.02,0.08,0.95,940.9,3.9,-58.0
0.32,0.75,0.0,1.5,0.0,5.25,1.0,0.0,0.0,0.0,0.5,0.0,0.75,0.0,-0.61,-0.3,0.95,77.87,3.8,38.0,1.25,1.0,0.5,1.5,1.25,5.25,1.75,7.25,2.5,10.5,8.5,9.0,9.5,0.08,0.08,0.89,950.51,3.6,-55.2
0.34,0.75,0.0,0.25,0.75,0.5,0.0,0.0,0.0,0.0,0.0,0.0,0.0,0.0,-0.61,-0.05,1.02,69.85,19.7,69.2,1.0,1.25,0.0,2.25,1.25,5.75,2.0,7.5,2.5,10.0,8.5,9.0,9.5,0.08,0.08,0.95,957.41,3.8,-53.5
0.36,0.5,0.0,0.25,0.0,3.5,0.25,0.0,0.0,0.0,0.0,0.5,0.25,0.25,-0.67,0.2,1.02,74.42,1.8,32.3,0.5,1.25,0.0,2.75,2.25,6.25,2.5,7.75,2.75,9.5,8.5,8.0,9.5,0.08,0.08,0.95,965.27,4.0,-49.4
0.38,0.5,0.0,1.75,0.75,2.25,1.0,0.0,0.0,0.5,0.5,0.0,0.25,0.0,-0.73,0.33,1.08,86.51,8.7,36.7,1.0,1.5,0.0,2.75,4.75,6.75,3.0,8.0,2.75,9.25,8.25,7.75,8.75,0.08,0.08,0.95,981.81,3.6,-40.9
0.4,0.75,0.0,1.5,0.75,1.75,1.0,0.0,0.0,0.0,1.25,0.5,0.25,0.25,-0.8,0.45,1.2,104.06,6.4,19.6,1.25,1.5,1.75,3.0,5.0,7.25,3.5,8.0,2.5,9.0,7.5,7.0,8.25,0.08,0.08,0.95,995.53,2.4,-34.0
0.42,0.75,0.0,1.25,0.25,3.0,0.0,0.0,0.0,0.0,0.75,0.5,0.5,0.25,-0.73,0.64,1.39,116.64,7.9,22.3,0.0,1.5,1.75,3.25,5.75,7.5,4.0,8.0,2.75,8.25,7.5,6.0,7.75,0.08,0.14,0.95,990.41,2.9,-32.0
0.44,0.5,0.0,1.75,0.75,2.25,1.0,0.0,0.0,0.0,1.0,0.5,0.25,0.5,-0.67,0.77,1.58,135.28,6.0,19.9,0.0,1.5,2.75,5.0,6.5,8.0,4.5,8.0,2.5,7.75,6.75,5.0,6.5,0.08,0.14,0.95,980.83,1.7,-22.4
0.46,0.5,0.0,1.25,0.75,2.5,1.0,0.0,0.0,0.0,1.25,0.5,0.75,0.25,-0.55,1.02,1.52,139.65,4.0,12.6,2.5,2.0,3.25,5.5,7.75,8.25,4.75,7.75,2.75,6.75,6.25,3.75,5.5,0.08,0.14,0.95,991.42,-0.2,-9.5
0.48,0.75,0.0,1.0,0.75,2.25,1.0,0.0,0.0,0.0,0.0,0.5,0.5,0.25,-0.48,1.08,1.52,130.98,7.3,31.3,3.75,2.5,5.0,7.25,8.5,8.5,5.25,7.25,2.25,6.0,5.25,2.5,4.0,0.08,0.14,0.95,1027.22,-2.7,4.3
0.5,0.5,0.0,0.25,0.75,0.75,0.0,0.0,0.0,0.0,0.0,0.5,0.0,0.25,-0.36,1.2,1.14,106.87,12.3,28.3,5.25,3.0,5.75,9.25,9.25,8.75,5.75,6.75,1.75,5.0,4.25,2.5,3.75,0.02,0.14,0.95,1093.15,-4.4,13.3
0.52,0.5,0.0,0.5,0.75,0.5,0.25,0.0,0.0,0.25,0.5,0.5,0.5,0.0,0.14,1.14,1.08,86.56,10.9,5.3,6.5,3.0,7.0,11.0,11.0,9.0,6.0,5.75,1.75,4.0,4.25,2.5,2.75,0.02,0.14,0.95,1186.39,-6.4,21.5
0.54,0.0,0.0,1.0,0.0,3.5,0.0,0.0,0.0,0.0,2.0,0.5,0.25,0.25,0.64,1.27,1.02,85.36,-0.1,4.5,8.25,3.75,7.75,12.5,11.5,9.0,5.5,4.5,1.0,3.75,3.5,2.0,2.5,0.02,0.14,1.02,1281.34,-7.9,29.6
0.56,0.5,0.0,1.0,0.0,3.75,0.0,0.0,0.0,0.0,0.0,0.0,0.25,0.0,1.14,1.39,0.89,90.76,7.1,51.5,9.0,3.75,7.5,12.0,11.5,8.5,5.5,3.25,0.0,3.5,3.25,1.5,1.5,0.02,0.2,1.08,1310.14,-9.0,36.0
0.58,0.0,0.0,0.5,0.75,0.5,0.25,0.0,0.0,0.0,1.5,0.0,0.5,0.0,1.2,1.89,0.45,88.13,1.6,-12.6,10.0,4.5,0.0,11.5,11.5,7.75,3.0,2.0,1.0,2.0,2.25,1.5,1.25,0.02,0.2,1.27,1225.0,-6.7,40.2
0.6,0.5,0.0,1.0,0.25,3.0,0.0,0.0,0.0,0.0,0.0,0.5,0.0,0.25,0.89,2.08,0.08,85.71,8.4,40.9,11.0,5.0,8.25,12.5,11.0,6.25,1.5,1.75,0.75,2.5,3.25,1.25,1.25,0.02,0.33,1.2,1203.42,-11.7,43.1
0.62,0.25,0.0,1.0,0.0,0.0,0.0,0.0,0.0,0.0,0.25,0.0,0.0,0.0,2.02,2.33,2.39,59.19,28.8,44.1,11.0,4.5,7.75,10.0,9.5,0.0,0.25,1.75,0.75,2.75,3.25,1.0,1.75,0.14,0.39,1.39,1088.15,-14.8,41.3
0.64,0.0,0.0,0.25,0.0,0.0,0.5,0.0,0.0,0.5,0.5,0.0,0.25,0.25,-0.48,-0.23,1.52,41.45,-1.8,-36.1,11.0,3.5,5.75,7.25,7.0,0.0,0.0,1.75,1.0,2.25,3.25,1.25,2.25,0.27,0.52,1.64,949.57,-14.7,35.8
0.66,0.75,0.0,1.0,0.0,0.75,1.0,0.0,0.0,0.5,3.25,1.25,3.5,2.75,0.33,-0.05,0.95,96.11,0.0,-56.6,9.5,2.25,3.0,3.25,5.0,0.0,0.0,1.75,1.0,2.25,3.25,1.0,1.75,0.39,0.77,2.27,725.82,-13.4,28.2
0.68,0.0,0.0,1.0,0.0,5.0,0.0,0.0,0.0,0.0,3.75,1.5,4.75,4.25,0.7,0.58,2.83,179.99,-1.9,-48.2,8.0,2.25,1.5,3.25,1.5,0.0,0.0,1.75,0.75,2.25,2.25,1.25,1.5,0.2,0.52,2.08,509.8,-13.7,23.2
0.7,0.75,1.0,1.75,0.0,0.0,0.0,0.0,3.5,1.5,5.25,4.25,6.0,5.25,-0.11,0.7,1.14,284.92,0.2,-63.8,6.5,1.25,0.0,3.0,1.25,0.0,0.0,1.75,1.0,2.25,2.75,1.0,1.5,0.08,0.45,1.83,335.0,-10.9,10.1
0.72,0.5,0.0,0.75,0.75,0.0,0.25,0.0,3.75,1.5,3.75,5.75,7.0,5.75,-0.05,0.02,1.14,378.84,-0.2,-73.2,3.75,0.25,0.0,3.0,1.75,0.0,0.25,1.5,0.75,2.5,0.0,1.0,1.5,0.39,0.14,1.64,225.2,-6.6,6.5
0.74,0.5,1.0,0.75,0.0,3.5,1.0,0.0,3.75,1.5,6.75,6.25,6.75,6.75,-0.05,0.08,0.95,507.0,-2.4,-57.1,1.5,1.25,0.5,1.0,1.25,3.25,0.0,1.25,1.0,2.25,2.0,1.25,1.25,0.58,-0.42,1.58,154.92,0.1,-8.0
0.76,0.25,1.25,0.75,0.25,5.0,2.0,0.0,3.75,2.0,1.0,6.0,7.0,6.0,-0.11,0.02,0.95,562.17,-0.5,-44.3,1.25,0.5,0.0,0.0,2.5,3.5,0.0,1.0,1.25,2.5,1.5,1.0,1.0,0.39,-0.8,0.89,106.21,4.2,-10.8
0.78,0.5,1.0,2.25,0.25,3.75,2.25,1.0,4.5,2.0,6.75,6.25,7.0,7.0,-0.11,0.08,0.95,652.88,-1.2,-48.3,1.25,0.5,0.25,0.5,1.25,3.25,0.5,1.25,1.0,2.5,2.25,1.0,1.25,0.39,-0.86,2.45,92.14,2.1,-17.7
0.8,0.75,0.75,1.75,1.0,2.5,3.5,1.0,5.25,2.0,0.0,6.5,7.5,7.25,-0.11,0.02,0.89,677.13,0.4,-45.5,1.25,0.5,0.5,1.0,1.25,3.25,0.75,1.5,1.25,2.25,2.25,1.0,1.5,0.02,-0.61,1.14,102.99,0.7,-15.1
0.82,0.75,1.25,2.0,1.5,3.75,3.5,0.25,5.25,2.5,7.5,7.0,7.75,7.5,-0.11,0.02,0.95,769.02,-1.5,-45.4,1.25,0.25,0.0,0.75,1.25,3.5,0.75,1.75,1.25,2.25,1.75,1.0,0.25,0.2,-0.48,0.52,115.03,2.4,-10.6
0.84,0.0,1.25,1.0,2.25,5.25,3.75,0.25,6.25,3.0,8.0,7.25,8.25,8.25,-0.05,0.02,0.95,853.66,-2.9,-46.0,1.25,0.0,1.25,0.5,1.25,3.25,1.5,1.75,1.25,2.5,0.25,1.0,0.75,0.45,-0.42,0.7,125.44,0.3,-5.8
0.86,0.0,1.0,0.0,3.0,5.0,4.5,0.25,6.25,3.5,8.0,8.0,8.25,8.25,-0.05,0.02,0.95,948.05,-3.4,-47.0,0.75,0.25,1.0,0.0,1.25,3.25,1.75,1.5,1.25,2.25,2.25,1.0,1.25,0.39,-0.42,0.95,153.64,0.6,-19.6
0.88,0.5,0.25,0.0,3.5,5.25,4.75,0.0,7.0,3.75,8.5,8.0,8.25,8.25,-0.11,0.02,0.95,1002.58,-3.5,-46.3,1.5,0.25,0.5,0.0,1.25,3.25,1.75,1.5,1.25,2.25,2.5,1.0,1.25,0.33,-0.23,0.95,181.77,0.2,-18.0
0.9,0.0,0.75,0.0,2.5,5.25,4.5,0.75,7.0,4.5,8.5,8.0,7.75,8.25,-0.11,0.02,0.95,1018.68,-3.6,-47.2,1.25,0.25,0.25,0.0,1.25,3.25,1.75,1.75,1.0,2.25,2.75,1.0,1.25,0.33,0.02,0.95,203.73,1.5,-21.6
0.92,0.5,1.25,3.0,3.75,5.5,5.75,3.5,7.25,4.5,8.5,7.75,7.5,6.5,-0.05,0.02,0.95,1043.84,-0.2,-32.0,1.25,0.0,0.75,0.0,1.25,3.25,1.75,1.5,1.25,2.25,2.25,1.0,1.25,0.33,0.14,1.02,217.16,0.4,-19.3
0.94,1.25,1.25,3.25,3.75,6.75,5.5,3.75,7.0,4.5,7.25,7.25,7.25,7.0,-0.05,0.02,0.95,1050.34,0.4,-27.6,1.25,0.25,1.25,0.0,1.25,3.75,1.75,1.75,1.0,2.5,2.25,1.0,1.25,0.33,0.27,1.08,230.29,0.3,-14.8
0.96,2.0,1.25,4.25,5.0,7.25,5.75,4.25,7.0,4.5,7.25,7.0,7.0,6.0,-0.05,0.02,0.95,1086.91,1.8,-20.4,1.25,0.0,1.25,0.0,1.25,3.25,1.75,1.75,1.25,2.75,2.5,1.0,1.25,0.33,0.33,1.2,238.94,-0.1,-19.6
0.98,2.25,1.25,4.5,5.0,7.5,6.25,3.5,7.0,4.5,6.25,6.5,6.0,5.5,-0.05,0.02,0.95,1091.17,1.9,-15.9,1.0,0.0,1.0,0.0,1.25,3.0,1.75,1.5,1.25,1.75,2.25,1.0,1.25,0.33,0.52,1.45,235.01,-0.4,-18.8
1.0,2.25,1.25,5.25,6.25,7.75,6.25,3.5,6.75,4.5,5.75,5.75,5.25,4.5,-0.05,0.08,0.95,1095.73,2.9,-9.3,0.75,0.5,0.75,0.0,1.25,3.25,1.75,1.25,1.25,2.25,2.5,1.0,1.25,0.39,0.64,1.64,233.13,0.6,-19.5
1.02,2.25,1.25,5.25,7.5,8.0,7.0,5.0,6.5,4.5,5.25,5.25,5.0,4.0,-0.05,0.08,0.95,1086.48,3.5,-4.5,1.25,0.0,1.5,0.0,1.25,2.75,1.75,1.5,1.0,2.25,2.25,1.0,1.25,0.45,0.7,1.77,229.69,-1.7,-16.9
1.04,2.75,1.25,5.5,9.0,8.75,7.0,5.25,6.25,4.25,4.5,4.25,3.75,2.75,-0.05,0.08,0.95,1081.86,4.6,5.1,1.0,0.0,1.5,0.0,1.25,3.0,1.75,1.25,1.25,1.75,2.25,1.0,1.25,0.39,0.89,1.83,226.5,-1.8,-16.0
1.06,3.25,1.5,6.5,9.25,9.0,7.0,5.5,6.0,4.25,4.25,4.0,3.5,2.25,-0.05,0.08,0.95,1074.3,5.7,9.7,0.5,0.5,1.5,0.5,0.0,3.0,1.75,1.25,1.0,2.25,2.25,1.0,1.25,0.27,1.27,1.95,222.28,-1.5,-21.1
1.08,3.5,1.5,7.25,11.5,9.25,7.25,5.75,5.5,3.75,4.25,4.0,2.25,1.5,-0.05,0.08,0.95,1089.67,6.8,17.0,1.0,0.25,1.5,0.25,1.0,3.0,1.75,1.25,1.25,2.5,2.25,1.0,1.5,-0.17,1.89,2.14,225.66,-1.3,-18.2
1.1,4.0,2.25,8.0,13.5,11.5,7.25,6.0,5.25,3.5,3.75,3.0,2.0,1.5,-0.05,0.08,0.95,1150.98,7.5,24.3,1.25,0.0,1.5,1.25,0.5,3.25,1.75,1.25,1.0,2.25,2.25,1.0,1.5,-0.61,2.45,1.58,229.75,-2.5,-14.5
1.12,4.25,2.5,8.25,13.5,11.5,7.5,5.5,4.25,2.75,2.75,2.0,2.0,0.5,-0.05,0.08,0.95,1175.31,8.5,31.7,1.25,0.25,1.25,0.5,1.0,3.0,1.75,1.5,1.25,2.25,2.25,1.0,1.25,-1.05,3.27,0.08,234.28,-1.7,-14.8
1.14,5.5,2.75,9.0,15.0,13.5,7.75,5.5,4.0,2.0,2.0,1.75,2.0,0.25,-0.05,0.08,0.95,1232.82,9.4,37.7,0.75,0.25,0.75,0.25,1.0,3.0,1.75,1.0,1.0,2.25,2.25,1.0,1.5,-1.86,4.27,-0.42,229.59,0.5,-22.3
1.16,5.75,2.75,9.5,16.5,14.0,8.0,6.25,3.75,1.75,2.0,0.5,2.0,0.5,-0.05,0.14,0.95,1283.89,9.7,40.5,1.0,0.5,0.5,1.0,1.0,2.75,1.25,1.5,1.0,2.5,2.0,1.25,1.5,-3.17,4.7,1.83,229.12,0.5,-19.6
1.18,6.25,2.75,9.5,15.5,14.5,7.75,6.0,3.0,1.25,2.0,0.0,1.75,0.5,-0.05,0.14,1.02,1311.71,10.0,43.5,1.0,0.25,0.5,0.0,1.25,3.25,0.75,1.75,1.25,3.5,2.5,3.0,3.25,0.08,-0.3,0.14,248.01,3.2,-42.0
1.2,6.75,2.75,0.0,15.5,15.5,7.0,6.0,1.75,0.75,0.0,0.5,0.5,1.0,-0.11,0.14,1.08,1217.7,6.8,48.8,0.5,0.0,0.5,0.0,0.5,3.0,0.75,1.75,1.25,6.0,2.25,5.5,5.75,0.14,-0.11,0.39,294.55,5.0,-64.8
1.22,6.5,2.75,9.5,15.0,14.0,6.25,5.5,1.5,0.5,0.0,0.5,1.25,0.25,-0.11,0.14,1.08,1174.66,12.4,51.3,1.25,0.25,0.5,1.5,0.0,0.0,1.25,3.25,1.75,8.0,6.25,6.5,7.75,0.27,0.95,5.08,397.31,0.9,-68.1
1.24,8.5,2.75,11.5,16.0,15.0,6.25,5.5,1.0,1.25,0.0,0.5,0.75,0.5,-0.11,0.2,1.08,1181.28,13.7,53.3,0.0,0.5,0.25,0.0,0.5,5.75,2.5,5.75,2.0,9.0,7.5,7.75,7.0,-0.3,0.64,1.33,558.0,5.0,-60.8
1.26,8.5,1.25,12.5,17.0,15.5,3.75,4.75,0.25,0.5,0.0,0.25,0.25,0.5,-0.11,0.2,1.14,1191.11,15.6,57.0,1.25,0.0,0.0,1.75,3.0,6.0,1.75,6.25,1.25,9.0,8.75,7.5,8.5,0.02,0.14,1.08,737.75,4.3,-51.1
1.28,10.5,2.75,11.5,6.75,13.0,2.5,3.75,0.0,1.0,0.0,0.0,0.75,0.5,-0.17,0.27,1.27,1099.66,17.3,59.0,0.0,0.25,1.0,1.5,2.25,5.75,1.75,6.5,1.75,8.75,8.25,7.25,8.25,0.14,0.14,0.95,862.47,4.3,-53.0
1.3,9.75,2.0,12.5,13.0,13.0,1.0,2.25,0.0,0.5,0.0,0.25,0.5,0.0,-0.23,0.33,1.27,1031.14,18.7,61.5,1.25,0.75,1.5,2.0,2.25,6.0,1.75,6.5,1.75,8.5,7.75,7.25,8.25,0.14,0.08,0.95,943.01,2.8,-45.6
1.32,10.5,1.75,12.0,11.5,10.5,0.25,0.75,0.0,0.5,0.0,0.0,0.25,0.5,-0.3,0.39,1.45,912.58,20.2,63.0,1.25,0.75,1.25,2.0,1.5,6.0,3.0,6.25,2.0,8.5,7.5,6.5,8.25,0.08,0.08,0.89,962.07,2.7,-45.8
1.34,9.0,1.25,9.25,7.5,7.5,1.0,0.0,0.0,0.5,0.0,0.0,0.25,0.25,-0.36,0.64,1.7,744.61,20.2,63.8,0.75,1.0,1.5,2.25,2.5,6.0,3.0,6.5,2.0,8.75,7.5,6.5,8.25,0.08,0.08,0.95,974.48,2.8,-43.4
1.36,8.0,1.25,8.0,5.5,7.25,0.0,0.0,0.0,0.5,0.0,0.0,0.25,0.0,-0.67,0.95,2.52,582.54,21.0,65.7,1.5,1.5,1.5,2.0,3.0,6.25,3.0,6.5,2.25,8.5,7.5,6.5,8.0,0.08,0.08,0.95,978.28,2.2,-39.0
1.38,6.25,1.25,4.75,3.75,5.25,0.0,0.0,0.0,0.5,0.0,0.0,0.0,0.0,-0.86,0.58,2.33,407.48,20.4,67.9,1.25,1.0,1.75,3.0,4.75,6.5,3.0,6.75,2.5,8.25,7.5,6.25,8.0,0.08,0.08,0.95,993.96,2.1,-34.7
1.4,4.25,0.0,2.75,0.0,5.25,0.0,0.0,0.0,1.0,0.5,0.0,0.5,0.0,-0.55,0.45,2.27,273.43,15.8,50.8,1.5,1.0,1.75,3.0,4.75,7.25,3.0,7.0,2.5,8.25,7.5,5.75,7.5,0.08,0.08,0.95,990.18,2.2,-32.1
1.42,1.5,0.0,3.0,0.0,5.0,0.0,0.0,0.0,0.5,0.0,0.5,0.5,0.25,-0.92,-0.42,1.89,170.75,13.3,41.3,2.0,0.75,2.75,3.0,5.0,7.25,3.0,7.25,3.0,8.25,7.25,5.75,7.5,0.08,0.08,0.95,986.23,1.3,-29.6
1.44,0.0,0.0,1.75,0.0,0.75,0.0,0.0,0.0,0.5,0.0,0.0,0.25,0.0,-0.8,0.08,2.39,50.88,21.7,32.2,1.75,1.5,2.75,4.25,6.5,7.5,3.0,7.25,3.0,7.75,7.0,5.25,6.5,0.08,0.08,0.95,983.51,0.9,-21.7
1.46,0.0,0.0,1.5,0.0,0.75,0.0,0.0,0.0,0.5,0.0,0.0,0.0,0.0,-0.98,-1.55,1.14,0.0,21.4,41.8,1.25,1.25,2.75,5.0,6.75,7.75,4.0,7.25,3.0,7.25,6.75,5.0,6.25,0.08,0.14,0.95,978.82,0.7,-19.8
1.48,0.25,0.0,1.75,0.0,0.5,0.0,0.0,0.0,0.5,0.0,0.0,0.0,0.0,-0.73,-0.42,1.08,0.0,26.1,46.5,2.25,1.5,3.0,5.75,7.75,8.0,4.0,7.0,3.0,6.75,6.25,3.75,5.5,0.08,0.14,0.95,986.71,-0.1,-11.0
1.5,0.75,1.0,3.0,1.0,3.0,1.0,0.0,0.0,0.5,0.0,1.0,0.5,0.25,-0.48,-0.36,0.33,0.0,12.6,37.0,2.75,1.75,5.25,7.75,9.0,8.25,4.5,6.5,2.5,5.25,5.25,2.5,4.0,0.08,0.14,0.95,1014.23,-2.7,4.0
1.52,0.0,0.0,3.0,0.0,5.25,0.0,0.0,0.0,0.5,0.0,0.5,0.0,0.0,-0.42,-0.3,0.27,0.0,10.7,45.1,3.0,2.0,5.25,8.25,9.5,8.25,4.5,6.0,2.25,4.75,4.5,2.5,3.25,0.08,0.14,0.95,1037.75,-3.3,9.1
1.54,0.5,0.0,0.75,0.0,0.5,0.0,0.0,0.0,0.5,0.0,0.0,0.0,0.0,-0.42,-0.23,0.52,0.0,21.6,45.3,4.0,2.0,5.5,9.25,9.75,8.25,4.0,5.75,2.0,4.0,4.5,2.25,2.5,0.08,0.14,0.95,1055.04,-4.4,14.9
1.56,0.0,0.25,0.75,0.5,0.75,1.0,0.0,0.0,0.5,0.0,0.0,0.0,0.0,-0.42,-0.23,0.77,0.0,6.0,42.1,4.25,2.75,6.25,10.5,11.0,8.5,4.5,5.25,1.75,3.75,4.25,2.0,2.5,0.08,0.14,0.95,1095.6,-5.3,20.2
1.58,0.0,0.0,0.75,0.0,0.5,0.0,0.0,0.0,0.25,0.0,0.0,0.25,0.0,-0.48,-0.11,0.89,0.0,17.8,22.3,5.25,2.75,6.75,11.5,11.0,8.5,4.75,4.75,1.5,3.75,3.75,1.5,2.5,0.02,0.14,0.95,1137.27,-6.3,24.5
1.6,0.0,0.0,1.0,0.0,0.5,0.0,0.0,0.0,0.0,0.0,0.0,0.25,0.0,-0.48,0.02,1.02,0.0,21.3,35.7,5.75,2.75,7.0,12.0,12.5,8.5,4.75,4.5,1.25,3.75,3.5,1.25,2.25,0.02,0.14,0.95,1189.21,-6.5,27.9
1.62,0.0,0.0,1.0,0.0,0.0,0.0,0.0,0.0,0.25,0.0,0.0,0.0,0.0,-0.42,0.2,1.14,0.0,33.2,41.7,6.0,3.25,7.75,13.0,12.5,8.5,4.75,3.25,1.25,3.5,3.25,1.0,2.0,0.02,0.14,0.95,1232.34,-7.7,32.4
1.64,0.5,0.75,0.75,0.75,0.5,1.0,0.0,0.0,0.5,0.75,0.0,0.25,0.0,-0.3,0.27,1.2,29.8,7.2,30.1,7.0,3.0,8.25,14.0,12.5,8.5,4.75,3.25,1.0,3.5,3.25,1.0,2.25,0.02,0.14,0.95,1282.82,-8.3,33.3
1.66,0.5,0.25,0.75,1.0,4.75,1.0,0.0,0.5,0.5,0.5,0.5,0.75,0.5,-0.23,0.45,1.39,90.23,1.7,20.7,7.75,3.5,8.75,13.5,12.5,8.25,4.5,2.0,0.75,3.5,3.25,1.0,1.25,-0.05,0.2,0.95,1301.32,-9.6,38.1
1.68,0.75,0.75,2.25,0.75,4.25,1.0,0.0,0.5,0.5,0.5,0.5,0.75,0.25,-0.23,0.58,1.52,150.54,7.2,30.1,8.5,3.75,9.0,14.5,13.5,8.25,3.0,1.75,0.5,2.5,3.25,1.0,1.5,-0.05,0.2,1.02,1320.09,-10.0,41.2
1.7,0.5,0.75,2.0,1.0,3.0,1.0,0.0,0.25,0.25,0.0,0.5,0.75,0.25,-0.36,0.64,1.77,176.85,9.0,33.5,8.75,3.75,9.5,14.0,14.0,8.0,4.0,1.75,0.75,3.0,3.25,1.0,1.5,-0.05,0.2,1.02,1340.12,-10.2,40.4
1.72,0.5,0.5,2.25,0.75,3.0,1.0,0.0,0.0,0.5,0.5,0.5,0.5,0.5,-0.48,0.77,2.02,186.19,8.4,27.0,10.0,0.0,10.5,16.0,13.5,7.5,0.0,1.75,0.0,2.25,2.5,1.0,1.5,-0.05,0.27,1.02,1326.64,-11.1,42.6
1.74,0.0,0.0,2.0,0.0,0.75,0.0,0.0,0.0,0.0,0.0,0.0,0.25,0.0,-0.48,1.14,2.27,146.3,24.6,45.5,10.0,5.0,11.0,15.0,12.5,0.0,3.5,1.75,0.0,1.5,2.5,1.0,1.25,0.02,0.33,1.08,1290.6,-16.2,49.2
1.76,0.5,0.75,1.75,0.0,0.5,0.0,0.0,0.0,0.25,0.0,0.0,0.25,0.0,0.14,1.58,2.02,119.4,23.9,54.9,11.0,4.75,11.5,15.5,12.5,6.25,1.75,1.75,0.75,1.25,2.5,1.0,1.5,0.02,0.33,1.14,1305.39,-13.2,47.8
1.78,0.0,0.0,0.25,0.0,0.5,0.0,0.0,0.0,0.0,0.0,0.0,0.25,0.0,1.08,2.27,1.52,77.08,9.3,17.8,11.0,4.5,10.5,14.0,11.0,4.0,0.75,1.25,0.75,0.0,3.0,1.0,1.5,0.08,0.39,1.2,1255.05,-15.0,49.7
1.8,0.0,0.0,0.75,0.0,0.5,0.0,0.0,0.0,0.0,0.0,0.0,0.5,0.0,1.7,2.64,1.14,50.19,17.3,12.7,11.0,0.0,10.5,12.0,9.5,3.75,0.0,1.0,0.75,0.0,3.0,1.0,1.5,0.2,0.45,1.33,1132.67,-15.9,45.8
1.82,0.5,0.75,2.0,0.75,2.25,0.75,0.0,0.0,0.5,0.0,0.0,0.25,0.0,1.89,3.33,0.33,67.03,12.5,50.4,10.5,4.5,8.75,9.0,7.5,5.0,0.0,1.0,1.0,0.0,3.25,1.0,1.5,0.33,0.64,1.64,1005.7,-14.6,47.2
1.84,0.0,0.0,1.75,0.0,0.5,0.0,0.0,0.0,0.0,0.0,0.0,0.0,0.0,2.14,3.89,-0.11,59.41,28.1,59.1,9.0,3.0,4.25,6.25,6.0,4.5,0.0,1.0,1.0,0.0,2.75,1.0,1.5,0.77,1.33,2.77,807.65,-12.3,42.5
1.86,0.0,0.0,0.5,0.0,0.5,0.0,0.0,0.0,0.25,0.5,0.0,0.25,0.0,-0.05,0.33,0.14,48.41,7.2,-5.8,7.5,1.75,2.75,5.25,4.75,2.0,0.0,0.75,0.75,0.5,3.0,1.0,1.5,0.45,0.83,2.95,601.34,-13.0,35.0
1.88,0.0,0.0,1.0,0.0,2.25,0.0,0.0,0.0,0.0,0.5,0.0,3.5,2.75,-0.11,-1.3,2.08,70.87,1.4,-50.6,4.75,1.5,1.5,2.0,2.25,2.0,0.0,0.0,1.0,1.75,2.0,1.0,1.5,0.52,0.2,2.33,390.11,-9.9,19.2
1.9,0.0,0.0,0.75,0.0,0.5,0.25,0.0,1.75,0.5,4.5,2.0,6.5,7.25,0.45,0.08,0.52,178.13,-3.9,-83.3,1.75,1.0,2.75,2.75,2.25,0.0,0.0,1.0,1.0,2.0,2.25,1.25,1.5,1.02,-0.55,2.08,271.61,-9.8,2.1
1.92,0.5,0.0,1.0,0.0,2.5,0.0,0.0,3.75,1.25,8.25,5.75,8.25,8.25,-0.17,0.7,3.77,331.36,-2.8,-70.3,1.5,0.5,2.75,2.0,2.75,1.25,0.75,1.0,1.25,1.75,2.25,0.25,1.5,1.08,-0.05,1.83,191.0,-7.6,6.2
1.94,0.5,0.0,1.75,0.0,3.5,1.0,0.0,5.5,2.0,8.25,7.0,8.25,8.5,0.08,0.52,1.33,543.6,-2.5,-61.6,1.25,0.5,2.75,1.0,2.75,0.0,0.75,1.25,1.25,2.25,2.25,1.0,1.5,0.89,-1.42,1.27,145.01,-7.8,-7.0
1.96,0.5,1.0,0.75,0.25,0.0,2.5,0.0,6.25,2.5,8.75,8.0,9.0,9.75,-0.05,0.08,1.02,753.18,-3.6,-68.8,1.25,0.5,2.75,0.5,2.5,0.5,1.0,1.0,0.75,2.0,2.25,1.0,1.25,0.39,-0.48,1.27,122.42,-7.9,-4.7
1.98,0.5,1.25,0.0,0.75,5.25,3.5,0.0,6.75,2.5,6.0,8.0,8.75,9.25,-0.11,0.02,0.95,904.25,-3.7,-51.6,1.5,0.5,2.5,0.5,2.25,0.5,1.25,1.25,0.75,0.75,2.25,0.25,1.25,0.27,-0.42,0.14,105.38,-9.7,5.3
2.0,0.0,1.0,0.0,1.75,5.25,4.0,0.0,6.25,2.5,7.75,7.75,8.25,9.0,-0.11,0.02,0.95,988.86,-4.2,-50.7,1.25,1.0,1.5,1.0,2.5,2.5,1.5,1.25,1.25,2.5,2.25,1.0,1.25,0.39,-0.23,0.14,122.61,-2.9,-3.6
2.02,0.5,1.25,0.0,2.5,4.75,4.5,0.0,6.75,2.75,8.5,7.5,8.25,9.0,-0.11,0.08,0.95,1046.46,-3.9,-47.7,1.25,0.25,1.5,0.0,1.25,2.75,1.5,1.0,1.25,2.25,2.25,1.0,1.25,0.45,-0.3,0.39,138.64,-2.3,-15.1
2.04,0.75,0.75,1.5,2.75,5.25,5.0,0.0,7.0,2.75,8.0,7.25,8.25,8.75,-0.11,0.08,0.95,1081.28,-2.8,-42.7,1.25,0.75,1.75,0.0,1.25,2.0,1.5,1.0,1.0,2.25,2.25,1.0,1.25,0.52,-0.3,0.89,160.46,-4.2,-12.1
2.06,0.75,0.25,2.75,3.25,3.5,5.5,2.0,7.25,3.0,7.75,7.0,7.75,8.25,-0.11,0.02,0.95,1090.27,-1.5,-40.9,1.25,1.25,1.5,0.5,1.25,2.75,1.75,1.25,1.0,2.25,2.25,1.0,1.25,0.45,-0.17,0.95,182.74,-3.1,-6.3
2.08,0.0,0.25,3.0,3.5,5.25,5.5,2.0,7.5,3.0,7.75,7.25,7.75,8.25,-0.11,0.08,0.95,1100.23,-1.7,-38.6,1.0,1.25,1.75,0.5,1.25,3.0,1.75,1.0,1.0,2.25,2.25,1.0,1.75,0.45,0.14,0.89,213.35,-2.7,-8.5
2.1,0.0,1.0,3.0,3.75,4.5,5.75,2.5,7.5,3.5,7.5,7.0,7.0,7.5,-0.11,0.08,0.95,1070.05,-1.2,-35.1,0.75,1.5,1.75,0.75,1.25,3.0,1.5,1.25,1.25,2.25,2.25,1.0,1.25,0.52,0.33,0.83,234.87,-2.8,-5.8
2.12,1.0,1.0,3.0,2.25,5.25,5.75,2.5,7.5,3.75,7.5,6.75,7.0,7.25,-0.11,0.02,0.95,1022.39,-1.1,-33.7,1.0,1.5,1.75,0.5,1.25,3.0,1.75,1.0,1.0,2.25,2.25,1.0,1.25,0.45,0.45,1.08,249.28,-3.3,-4.3
2.14,1.25,1.25,3.25,3.75,5.5,6.0,3.5,7.5,3.75,7.25,6.5,6.0,6.5,-0.05,0.08,0.95,971.36,-0.1,-26.1,1.25,1.0,1.75,1.25,1.25,2.25,1.75,1.0,1.0,2.25,2.0,1.0,1.25,0.39,0.58,1.39,252.48,-5.0,-3.7
2.16,1.75,1.25,3.25,5.5,7.5,6.5,3.75,7.5,3.75,6.0,5.75,5.75,5.75,-0.05,0.08,0.95,960.6,0.7,-16.4,1.25,1.0,1.75,0.75,1.25,2.5,1.75,1.0,1.25,2.25,0.25,1.0,1.25,0.39,0.7,1.58,245.38,-3.7,1.6
2.18,2.0,1.25,4.25,6.5,5.75,7.0,4.0,7.25,3.75,6.0,5.0,5.0,5.5,-0.05,0.08,0.95,959.5,1.6,-12.9,1.75,1.0,1.75,1.25,1.25,3.25,1.75,0.75,1.0,2.25,0.25,1.0,1.25,0.52,0.89,1.77,244.98,-4.0,8.3
2.2,2.25,1.25,5.25,7.25,7.5,7.0,4.25,7.0,3.75,5.75,4.75,3.75,4.5,-0.05,0.08,0.95,980.4,2.6,-4.2,1.0,0.5,1.75,0.5,1.25,2.75,1.75,1.0,1.0,2.0,0.25,1.0,1.25,0.7,1.27,2.2,233.75,-2.4,-1.6
2.22,2.25,1.25,5.25,8.75,9.0,7.25,4.25,7.0,3.75,5.25,4.0,3.5,3.25,-0.05,0.08,0.95,1005.86,3.1,2.9,1.0,0.75,1.75,1.25,1.25,3.0,1.75,1.0,1.25,2.25,1.0,1.0,1.25,0.83,1.83,1.95,234.96,-3.1,-1.6
2.24,2.75,1.25,5.5,9.5,9.25,7.5,4.25,6.75,3.5,3.5,3.0,2.25,2.75,-0.05,0.08,0.95,1012.25,4.0,12.0,1.25,0.5,1.75,0.5,1.25,3.0,1.5,1.0,1.0,2.25,2.0,1.0,1.25,0.58,2.45,1.77,232.34,-2.9,-8.2
2.26,3.25,1.75,5.75,12.0,10.5,7.75,4.75,5.75,3.0,3.0,3.0,2.25,1.75,-0.05,0.08,0.95,1037.04,5.6,20.4,1.0,0.75,1.75,1.0,1.25,2.75,1.25,0.75,1.0,2.25,2.25,1.0,1.25,-0.8,2.64,0.7,238.33,-3.5,-7.4
2.28,3.25,2.25,6.5,13.5,12.5,8.0,3.0,5.75,2.5,2.75,2.0,2.0,1.5,-0.05,0.08,0.95,1080.62,5.5,26.7,1.25,0.75,1.5,0.25,1.25,3.0,1.25,0.75,1.0,2.25,2.25,1.0,1.25,-1.42,3.2,0.33,235.86,-2.5,-9.4
2.3,4.25,2.5,7.25,12.0,13.5,8.0,1.0,5.25,2.0,2.25,1.75,2.0,1.5,-0.05,0.08,0.95,1117.06,5.8,30.3,1.75,0.5,1.5,0.75,1.25,3.25,1.0,0.75,1.0,2.25,1.5,1.0,1.25,-2.55,4.89,0.14,235.41,-2.7,-2.9
2.32,5.0,2.75,8.25,15.0,14.5,8.0,3.5,4.0,1.5,2.0,0.5,2.0,1.0,-0.05,0.14,0.95,1177.11,7.9,38.3,1.25,0.75,0.5,0.5,1.0,3.25,0.75,1.75,0.5,2.0,2.0,2.0,1.75,-3.05,4.33,-0.05,233.87,1.3,-21.1
2.34,4.75,1.5,8.0,13.5,14.5,7.5,2.5,3.75,1.0,0.5,0.0,0.5,0.25,-0.05,0.14,0.95,1153.06,8.3,46.7,2.0,0.0,0.25,0.0,0.0,2.75,0.0,1.75,1.0,5.0,3.25,5.0,4.0,0.08,-0.48,3.02,267.89,2.3,-58.0
2.36,5.5,1.5,8.0,14.0,13.5,7.5,3.75,1.75,0.5,1.75,0.0,0.25,0.25,-0.05,0.14,1.02,1114.2,9.5,48.8,0.0,0.0,1.25,0.0,0.0,2.0,0.75,2.0,1.25,7.0,4.5,5.75,6.0,-0.8,1.02,2.89,327.33,3.2,-71.1
2.38,5.75,1.5,8.25,16.5,14.0,7.25,3.75,0.0,0.75,1.75,0.0,0.0,0.5,-0.05,0.2,1.02,1077.8,10.7,51.6,0.0,0.25,1.25,0.0,0.0,4.0,1.75,4.75,1.5,8.25,6.75,7.25,7.0,0.02,0.77,1.45,454.1,3.8,-64.5
2.4,7.25,2.75,9.0,15.0,15.0,7.0,3.75,0.25,0.5,0.75,0.5,0.0,0.75,-0.11,0.2,1.08,1086.63,11.6,54.1,0.5,0.5,1.75,0.0,0.25,6.0,0.0,6.25,0.0,8.75,8.5,7.25,8.25,0.02,0.2,1.02,610.42,5.1,-59.4
2.42,7.75,2.75,10.5,16.5,16.0,5.75,3.0,1.5,0.5,2.0,0.5,1.0,0.5,-0.11,0.2,1.08,1154.33,11.7,49.3,1.25,0.5,1.75,0.5,2.5,6.0,1.25,6.5,2.25,8.5,8.25,7.25,8.25,0.14,0.08,0.95,773.44,3.2,-48.7
2.44,9.0,2.5,10.5,15.5,14.5,4.75,2.0,1.5,0.5,1.75,0.5,1.0,0.5,-0.11,0.2,1.08,1193.5,12.9,50.6,1.25,0.5,1.75,1.25,1.5,6.0,1.75,6.5,2.25,8.5,8.25,7.25,8.25,0.14,0.08,0.95,885.69,2.7,-49.0
2.46,9.0,2.75,11.0,12.5,14.0,2.25,1.0,0.0,0.5,1.5,0.25,0.5,0.25,-0.17,0.27,1.27,1151.27,15.4,56.9,0.0,0.75,2.0,1.75,2.25,6.0,1.75,6.5,2.25,8.25,8.5,6.75,8.25,0.08,0.08,0.95,950.07,3.1,-47.7
2.48,9.5,1.25,11.0,0.0,11.5,1.0,0.0,0.0,0.5,0.75,0.0,0.25,0.25,-0.23,0.33,1.33,924.47,18.3,61.3,1.25,1.25,1.75,2.5,3.0,6.25,2.25,6.5,2.0,8.25,8.25,6.5,8.0,0.08,0.08,0.89,985.33,2.1,-39.6
2.5,9.0,1.5,10.0,10.0,9.0,0.25,0.0,0.0,0.5,0.0,0.0,0.0,0.25,-0.3,0.45,1.52,762.69,20.1,64.7,0.0,1.25,2.5,2.25,4.5,6.25,1.75,6.5,2.5,8.25,8.25,6.5,7.75,0.08,0.08,0.95,1005.84,2.4,-38.6
2.52,9.75,2.5,9.0,9.0,9.0,1.0,0.0,0.75,0.5,0.5,0.5,0.0,0.5,-0.48,0.77,2.08,658.03,17.8,59.9,1.25,1.25,2.5,2.0,4.75,6.5,3.0,6.5,3.0,8.0,8.0,6.0,7.5,0.08,0.08,0.95,1016.26,1.4,-33.7
2.54,7.25,1.25,5.25,5.5,6.5,0.0,0.0,0.0,0.5,0.0,0.0,0.0,0.0,-0.73,1.02,2.77,518.55,19.8,67.4,1.5,1.5,2.75,3.25,5.0,7.0,3.0,6.75,3.0,7.75,7.5,5.75,6.75,0.08,0.08,0.95,1014.55,0.8,-27.5
2.56,5.5,1.0,3.0,3.75,5.25,0.0,0.0,0.0,0.75,1.0,0.0,0.5,0.0,-0.67,0.33,2.45,383.66,16.5,55.2,1.5,1.5,2.75,3.25,5.25,7.25,3.5,6.75,3.0,7.5,7.25,5.25,6.5,0.08,0.08,0.95,997.19,0.8,-25.3
2.58,4.25,1.25,3.0,3.5,5.75,1.0,0.0,0.0,0.5,0.25,0.5,0.75,0.5,-0.67,0.14,2.45,297.61,13.5,49.4,1.75,1.5,2.75,3.75,6.25,7.5,4.0,7.0,3.0,7.25,7.0,5.0,6.25,0.08,0.08,0.95,980.46,0.6,-21.1
2.6,1.75,1.25,3.0,1.75,5.25,0.0,0.0,0.0,0.0,0.5,0.75,0.5,0.0,-0.98,-0.8,1.14,218.0,13.2,48.5,1.75,1.5,3.0,5.25,7.0,7.75,4.0,6.75,3.0,7.0,6.75,4.5,5.5,0.08,0.08,0.95,975.9,0.0,-15.3
2.62,0.0,1.25,3.0,1.75,5.25,0.0,0.0,0.0,0.5,0.5,0.5,0.5,0.5,-1.05,-1.11,2.39,151.19,9.9,36.7,1.75,1.5,3.5,5.5,7.25,7.75,4.5,6.5,3.25,6.5,6.75,3.75,5.5,0.08,0.08,0.95,975.8,-0.6,-12.2
2.64,0.0,0.0,3.0,0.0,5.25,0.0,0.0,0.0,0.0,0.0,0.5,0.0,0.5,-0.98,-1.17,1.33,90.77,9.4,41.3,2.0,1.75,4.5,7.0,8.25,7.75,4.75,6.5,3.0,6.0,6.25,3.25,4.25,0.08,0.08,0.95,997.15,-2.0,-3.4
2.66,0.0,0.0,0.75,0.0,1.25,0.0,0.0,0.0,0.0,0.0,0.0,0.5,0.0,-0.67,-0.55,0.7,12.61,10.7,25.7,2.75,1.75,5.25,8.25,8.5,8.0,5.0,6.25,3.0,5.25,5.75,2.5,3.75,0.08,0.08,0.95,1026.2,-3.3,3.7
2.68,0.0,0.0,0.75,0.0,1.25,1.0,0.0,0.0,0.25,1.0,0.0,0.5,0.0,-0.48,-0.48,0.27,0.0,-1.0,3.4,3.25,2.25,6.0,8.75,9.25,8.0,5.25,5.75,2.5,4.5,5.25,2.5,3.0,0.08,0.14,0.95,1060.12,-4.6,10.4
2.7,0.25,0.0,3.0,0.5,5.5,0.0,0.0,0.5,0.0,0.0,0.0,0.25,0.0,-0.48,-0.36,0.39,0.0,9.8,48.8,5.0,2.5,6.75,10.5,9.5,8.0,5.5,5.5,2.25,4.0,4.5,2.0,2.5,0.02,0.14,0.95,1105.97,-6.3,18.8
2.72,0.25,0.0,2.75,0.25,0.5,1.0,0.0,0.0,0.5,1.5,0.0,0.5,0.0,-0.42,-0.36,0.89,16.94,11.5,11.8,5.0,3.0,7.0,11.0,11.0,8.0,5.5,4.75,1.75,3.5,4.25,1.75,2.25,0.02,0.14,0.95,1149.31,-6.8,23.8
2.74,0.5,1.0,1.25,1.25,3.0,1.0,0.0,0.0,0.5,1.25,0.75,0.5,0.0,-0.42,-0.17,1.02,55.32,5.8,25.8,5.75,3.0,7.75,12.0,11.0,8.25,4.75,4.0,1.75,3.5,3.5,1.5,2.25,0.02,0.14,0.95,1190.89,-7.6,27.7
2.76,0.25,0.75,3.0,1.25,5.25,1.0,0.0,0.0,0.5,1.25,0.5,0.5,0.25,-0.42,0.02,1.02,114.77,7.1,31.6,6.75,3.0,8.25,12.5,11.5,8.25,5.5,3.25,0.75,3.5,3.5,1.0,2.25,0.02,0.14,0.95,1226.39,-8.5,32.0
2.78,0.5,0.5,2.25,1.0,3.5,1.0,0.0,0.0,0.0,0.5,0.5,0.5,0.5,-0.42,0.14,1.02,152.96,7.8,31.9,7.0,3.0,8.75,13.0,12.5,8.0,5.0,3.25,0.75,3.5,3.25,1.0,1.5,0.02,0.14,0.95,1260.39,-8.9,35.0
2.8,0.25,0.75,2.0,1.25,4.75,1.0,0.0,0.0,0.25,0.5,0.5,0.5,0.25,-0.3,0.27,1.33,174.05,6.3,35.9,7.75,3.25,8.75,13.0,12.5,8.0,5.0,2.0,0.75,3.5,3.25,1.0,1.25,0.02,0.14,0.95,1278.04,-9.7,37.7
2.82,0.0,0.75,2.0,1.0,3.75,1.0,0.0,0.0,0.0,0.5,0.5,0.5,0.25,-0.23,0.39,1.52,176.37,6.3,33.9,8.25,3.0,9.0,14.5,12.5,8.0,5.0,2.0,0.75,3.0,3.25,1.0,1.5,-0.05,0.2,0.95,1300.75,-10.2,38.7
2.84,0.25,0.5,2.25,1.0,3.5,1.0,0.0,0.0,0.0,1.0,0.5,0.5,0.5,-0.23,0.58,1.7,183.77,6.3,25.9,9.0,3.5,9.25,14.5,13.5,7.75,0.0,1.75,1.0,2.75,2.75,1.0,1.5,-0.05,0.2,1.02,1308.39,-9.9,41.6
2.86,0.25,0.75,2.25,0.75,3.0,1.0,0.0,1.0,0.25,1.5,0.5,0.5,0.25,-0.36,0.7,1.89,186.39,4.4,17.8,9.0,0.0,0.0,15.5,13.0,7.25,0.0,1.75,1.0,1.75,1.5,1.0,1.5,-0.05,0.2,1.02,1182.73,-5.9,39.5
2.88,0.0,0.0,1.75,0.5,2.25,0.25,0.0,0.5,0.0,2.0,0.5,0.5,0.5,-0.55,1.02,2.58,178.87,2.9,-3.3,10.0,4.5,11.0,15.5,13.0,7.25,3.0,1.5,1.0,2.25,3.25,1.0,1.25,-0.05,0.27,1.02,1229.95,-12.1,44.3
2.9,0.0,0.25,1.75,0.0,1.75,0.0,0.0,0.5,0.0,0.75,0.5,0.75,0.25,-0.36,1.52,2.27,156.54,7.8,3.0,11.5,5.25,11.5,15.5,12.5,6.25,1.75,1.5,0.25,2.25,2.0,1.0,1.5,0.02,0.33,1.08,1268.69,-13.1,48.5
2.92,0.5,0.75,1.75,1.0,4.75,1.0,0.0,0.0,0.25,1.25,0.5,0.5,0.25,0.02,2.33,2.33,159.92,4.7,29.8,11.0,5.5,11.0,15.5,12.5,5.5,0.5,0.75,0.5,1.5,3.25,1.0,1.5,0.08,0.39,1.14,1323.56,-13.5,48.4
2.94,0.0,0.5,1.75,1.0,1.25,1.0,0.0,0.0,0.25,1.75,0.5,0.75,0.5,1.14,2.95,1.64,148.6,4.9,1.5,11.0,4.5,10.5,14.0,11.0,4.0,0.0,0.75,1.0,1.75,3.0,1.0,1.5,0.08,0.39,1.2,1295.44,-14.3,46.8
2.96,0.0,1.0,1.75,0.75,5.0,1.0,0.0,0.0,0.5,1.75,0.5,0.75,0.5,1.7,3.27,0.7,173.44,2.6,19.0,11.0,4.75,9.25,12.5,9.25,5.0,0.0,0.5,0.75,1.5,3.25,1.0,1.25,0.2,0.45,1.2,1221.98,-14.1,47.4
2.98,0.5,0.75,1.5,0.75,5.0,1.0,0.0,0.0,0.5,1.75,0.5,1.0,0.5,2.08,3.95,0.02,186.55,2.9,17.2,10.0,4.0,7.75,8.75,7.25,5.0,0.0,0.25,0.25,2.0,3.25,1.0,1.25,0.45,0.89,1.7,1045.78,-13.5,44.3
3.0,0.5,0.75,1.5,0.75,5.0,1.0,0.0,0.0,0.0,0.25,0.5,1.0,0.25,2.02,3.89,-0.17,196.0,5.2,33.4,9.0,3.0,3.0,5.5,5.75,3.75,0.0,0.5,0.5,0.0,3.0,0.25,1.5,0.89,1.45,3.27,798.47,-12.6,46.1
3.02,0.75,0.75,1.0,0.75,4.75,1.0,0.0,1.0,0.5,1.0,0.5,2.0,1.0,-0.3,0.95,-0.55,209.52,1.8,4.9,6.25,1.5,1.5,3.75,5.0,3.25,0.0,0.5,0.25,0.0,3.25,1.0,1.5,0.33,0.52,2.77,561.3,-9.8,32.5
3.04,0.75,1.0,1.0,0.75,4.25,1.0,0.0,1.5,0.5,2.0,1.5,3.75,4.25,-0.61,-1.98,0.77,244.1,-0.3,-28.4,4.75,1.5,1.5,1.5,1.0,3.5,0.0,0.25,0.75,1.5,2.75,1.0,1.25,0.58,0.02,2.52,360.6,-8.7,16.3
3.06,0.0,1.0,1.25,0.75,5.0,1.0,0.0,1.75,0.75,4.5,2.75,6.0,6.75,0.58,0.52,0.89,315.94,-2.1,-45.9,1.25,1.0,0.0,2.5,0.0,3.25,0.75,1.0,0.75,0.0,2.25,0.25,1.25,0.89,-0.55,1.95,226.09,-2.9,5.9
3.08,0.25,1.25,1.25,0.0,0.75,1.75,0.0,3.25,1.25,7.75,4.25,7.75,7.5,-0.11,0.77,1.33,423.82,-3.2,-65.5,0.75,0.5,1.5,3.25,3.25,2.75,0.75,1.0,0.75,0.75,2.25,1.0,1.25,1.33,-0.8,2.2,159.38,-4.2,8.6
3.1,0.5,1.25,0.75,0.0,5.25,1.25,0.0,6.25,2.0,7.5,7.0,8.0,9.25,-0.05,0.45,1.27,606.04,-3.4,-54.8,1.25,0.5,0.0,3.0,3.0,3.0,0.75,0.75,1.0,2.25,2.25,1.0,1.25,0.77,-1.36,1.39,130.43,-0.7,-0.6
3.12,0.5,1.25,1.0,0.0,0.0,2.5,0.0,6.75,2.25,8.75,7.25,8.25,9.25,0.02,0.08,1.02,750.01,-3.9,-66.5,2.0,0.5,1.0,3.0,2.25,1.75,0.75,1.0,1.0,2.25,2.0,1.0,1.25,0.2,-0.36,0.83,117.53,-5.2,2.0
3.14,0.5,1.0,1.0,2.0,5.25,4.0,0.0,7.0,2.25,8.5,7.5,8.25,9.25,-0.11,0.02,0.95,897.65,-3.5,-47.3,0.75,0.75,1.25,2.0,1.75,2.5,0.75,1.0,1.0,2.25,2.25,1.0,1.0,0.2,-0.42,0.2,122.88,-2.6,-4.9
3.16,0.25,1.0,1.0,2.0,4.75,4.5,0.0,5.75,2.5,0.0,7.25,8.25,9.0,-0.11,0.02,0.95,901.51,-1.3,-43.1,1.5,1.0,1.75,0.75,2.25,2.5,0.75,0.75,1.0,2.25,2.25,1.0,1.25,0.33,-0.3,0.2,142.21,-3.8,-1.4
3.18,0.0,1.25,1.0,2.25,4.75,5.0,0.0,6.25,2.5,8.5,7.0,8.25,9.0,-0.11,0.08,0.95,961.1,-3.8,-46.6,1.25,1.0,1.75,1.0,1.5,2.5,1.0,0.75,1.0,2.25,2.25,1.0,1.25,0.45,-0.3,0.45,157.76,-4.1,-4.3
3.2,0.5,0.0,2.25,2.75,5.25,5.5,0.0,7.0,2.75,8.5,7.0,8.5,8.75,-0.11,0.08,0.95,991.24,-2.9,-43.6,2.0,0.25,1.5,0.5,1.5,2.5,1.0,1.0,1.25,2.25,2.25,1.0,1.25,0.45,-0.3,0.89,176.91,-3.9,-8.5
3.22,0.0,0.0,3.0,3.25,5.25,5.75,2.25,7.0,3.0,8.25,6.5,7.75,8.25,-0.11,0.08,0.95,1038.06,-2.0,-39.1,1.25,0.5,1.5,1.25,2.5,2.0,1.0,0.5,1.0,2.25,2.25,1.0,1.25,0.39,-0.17,0.95,201.86,-4.1,-4.1
3.24,0.75,0.0,3.0,3.75,5.25,5.75,2.25,7.5,3.0,8.25,6.75,7.5,8.25,-0.11,0.08,0.95,1060.88,-1.5,-36.5,1.25,0.5,1.25,0.5,1.5,2.5,1.25,0.5,1.0,2.25,2.25,1.0,1.25,0.39,0.14,0.95,216.35,-2.9,-10.9
3.26,0.5,0.0,3.0,3.75,5.5,5.75,2.25,7.5,3.5,7.5,6.5,7.0,7.5,-0.11,0.08,0.95,1047.62,-1.4,-34.4,1.25,1.0,1.5,0.0,1.5,3.0,1.0,0.75,1.0,1.75,2.25,1.0,1.25,0.33,0.33,1.02,224.31,-2.6,-6.0
3.28,0.75,0.0,3.0,3.5,5.5,5.75,2.75,7.5,3.75,7.25,6.5,6.75,7.0,-0.11,0.08,0.95,1006.22,-1.0,-32.9,1.25,0.75,1.5,0.5,1.25,2.5,1.25,0.5,1.0,2.25,2.25,1.0,1.25,0.27,0.45,1.27,226.71,-3.7,-9.2
3.3,0.5,0.5,3.0,3.75,7.25,6.75,3.0,7.5,3.75,7.25,6.0,6.0,6.5,-0.11,0.08,0.95,965.54,-1.4,-26.0,1.25,0.75,1.5,0.75,1.25,2.75,1.25,0.5,1.0,2.25,2.25,1.0,1.25,0.2,0.58,1.52,229.37,-3.5,-7.5
3.32,1.25,1.25,3.75,5.5,5.5,7.0,3.5,7.25,3.75,6.0,5.0,5.25,5.5,-0.11,0.08,0.95,937.28,0.6,-17.0,1.25,0.5,1.5,0.5,1.25,2.75,1.25,0.5,1.0,2.25,2.25,1.0,1.25,0.2,0.7,1.7,223.77,-3.2,-10.2
3.34,1.75,1.25,4.5,7.25,7.25,7.0,3.75,7.0,3.75,5.75,5.0,3.75,4.5,-0.05,0.08,0.95,938.7,1.9,-6.4,1.0,0.75,1.5,1.0,1.25,2.5,1.25,0.5,1.0,2.25,2.5,1.0,1.25,0.39,0.83,1.89,226.81,-3.8,-9.5
3.36,1.75,1.25,5.25,7.75,8.5,7.5,4.25,7.0,3.75,5.0,4.0,3.25,3.75,-0.05,0.08,0.95,961.53,2.5,0.7,1.5,0.75,1.5,0.5,1.25,2.25,1.25,0.75,1.0,2.25,2.25,1.0,1.25,0.52,1.14,2.45,227.8,-4.2,-8.7
3.38,2.25,1.5,5.0,9.0,9.0,7.5,4.25,6.5,3.25,4.5,3.75,2.25,2.75,-0.11,0.08,0.95,977.21,3.3,8.6,1.25,0.75,1.5,0.5,1.25,2.75,1.25,0.75,1.0,2.25,2.25,1.0,1.25,0.27,2.02,2.64,230.38,-3.0,-9.0
3.4,3.0,1.5,5.5,11.5,10.5,7.75,4.25,6.25,3.0,4.25,3.0,2.25,2.0,-0.05,0.08,0.95,1023.48,4.4,16.4,2.0,0.5,1.5,0.5,1.25,3.0,1.25,0.75,1.0,2.25,2.25,1.0,1.0,-0.42,2.77,2.14,233.43,-4.1,-4.2
3.42,3.25,2.0,6.5,12.0,11.5,7.75,3.75,5.75,3.0,4.0,2.75,2.0,1.5,-0.05,0.08,0.95,1059.94,5.3,21.6,1.25,0.0,1.5,0.75,1.25,2.75,1.0,0.75,1.0,1.5,2.25,1.0,1.25,-1.05,3.39,0.64,229.58,-3.5,-10.3
3.44,4.25,2.5,7.0,13.5,13.0,8.0,2.5,5.25,2.25,2.0,1.75,2.0,1.5,-0.05,0.08,0.95,1114.68,6.4,30.7,1.25,0.5,1.25,0.0,1.25,2.75,0.75,0.75,1.0,2.25,2.25,1.0,1.25,-1.86,4.08,-0.36,225.03,-1.4,-14.7
3.46,4.25,2.75,8.0,15.0,13.5,8.0,3.75,4.75,2.0,2.0,1.75,2.0,1.25,-0.05,0.14,0.95,1183.43,7.5,33.4,1.25,0.25,1.75,0.0,1.25,2.25,0.75,0.5,1.0,2.25,2.25,1.0,1.25,-2.92,4.77,0.02,217.78,-3.5,-15.1
3.48,4.75,2.75,8.25,15.0,14.0,8.0,3.75,3.75,1.75,1.75,1.25,1.75,1.25,-0.05,0.14,0.95,1232.54,8.1,37.2,1.25,0.5,1.5,0.5,1.25,3.0,0.75,0.75,1.0,2.25,2.25,1.5,1.25,-2.73,2.2,-0.17,222.23,-2.3,-13.4
3.5,5.5,2.75,9.0,16.5,14.5,8.0,3.75,3.75,1.25,2.0,1.25,1.5,1.25,-0.05,0.14,0.95,1293.27,8.7,39.2,1.25,0.5,1.25,0.75,0.25,0.5,0.0,0.25,1.0,3.75,2.25,3.75,3.0,0.77,-2.36,1.77,233.69,-3.3,-49.9
3.52,5.75,2.5,9.25,16.5,15.5,8.0,4.75,2.25,1.25,2.0,0.75,1.75,0.75,-0.05,0.14,0.95,1321.39,9.5,42.4,0.0,0.0,0.0,0.0,0.0,2.5,0.0,0.25,1.25,6.25,2.25,5.0,5.5,-0.05,0.02,-0.05,270.47,6.6,-77.7
3.54,6.5,2.5,9.5,18.0,15.5,8.0,4.75,1.75,1.0,2.0,0.5,1.25,1.0,-0.11,0.2,1.02,1349.71,10.1,45.1,0.0,0.0,0.0,0.75,0.0,4.75,0.75,3.25,1.5,8.5,4.25,7.0,6.75,-0.05,1.02,4.83,363.95,6.4,-66.5
3.56,6.5,2.0,10.5,16.5,16.0,7.25,3.5,1.75,0.5,0.5,0.5,0.25,1.0,-0.11,0.2,1.08,1336.55,11.0,50.5,0.25,0.0,1.25,1.75,0.0,5.75,0.0,6.5,1.75,9.25,8.5,7.75,8.0,-0.11,0.64,1.2,545.3,4.4,-59.4
3.58,7.75,2.25,11.0,18.5,16.0,6.25,3.25,1.0,0.5,1.75,0.0,1.0,0.5,-0.11,0.2,1.08,1339.1,12.2,51.1,1.25,1.25,1.75,1.0,2.75,6.0,1.5,6.75,1.75,9.0,8.0,7.25,8.0,0.02,0.14,0.95,740.32,3.0,-44.9
3.6,9.0,2.5,11.0,17.5,15.5,4.5,3.5,1.0,0.5,2.0,0.0,0.5,0.5,-0.11,0.2,1.08,1323.2,13.4,53.0,0.5,1.5,1.75,2.0,1.5,5.25,1.25,6.75,2.0,9.0,7.5,6.75,8.5,0.14,0.08,0.95,880.7,3.1,-47.6
3.62,9.0,1.25,12.5,16.5,14.0,2.5,2.5,0.0,0.5,2.0,0.5,0.75,0.5,-0.17,0.27,1.14,1273.95,15.8,52.7,0.0,1.25,1.75,2.0,2.5,6.25,1.0,6.75,2.0,8.75,7.5,6.5,8.25,0.14,0.08,0.95,955.38,3.9,-45.4
3.64,9.0,2.75,12.0,13.5,12.0,1.75,1.0,1.25,0.5,0.5,0.5,0.25,0.75,-0.23,0.33,1.39,1158.25,16.5,56.2,0.25,1.5,2.0,2.75,3.25,6.25,1.75,7.0,1.75,8.75,7.5,6.5,8.25,0.14,0.08,0.89,993.56,3.1,-40.3
3.66,11.0,2.0,11.0,12.0,9.5,1.0,0.0,0.0,0.5,0.0,0.0,0.25,0.5,-0.36,0.45,1.52,1002.23,19.7,63.6,1.25,1.0,0.5,3.0,4.75,7.0,1.5,7.25,1.75,8.75,7.5,6.5,8.25,0.08,0.08,0.95,1019.31,4.0,-38.0
3.68,9.75,2.75,9.0,10.0,8.25,0.0,0.0,0.0,0.5,0.0,0.0,0.25,0.5,-0.55,0.64,1.64,824.65,20.2,64.7,1.25,0.75,1.5,3.0,4.75,7.0,0.0,7.25,2.25,8.25,7.5,5.75,8.0,0.08,0.08,0.95,1025.04,3.7,-36.1
3.7,7.5,1.0,6.5,5.75,6.75,0.0,0.0,0.0,0.5,0.0,0.0,0.5,0.0,-0.67,1.14,2.89,604.45,20.3,63.9,1.25,1.25,1.5,3.25,5.0,7.5,2.0,7.25,2.25,8.25,7.0,5.5,7.5,0.08,0.08,0.95,1021.56,3.1,-31.2
3.72,5.75,1.0,5.25,3.75,6.75,0.25,0.0,0.0,0.5,1.25,0.5,0.5,0.25,-0.8,0.7,2.45,434.47,16.3,51.4,1.25,1.5,1.75,4.0,5.5,7.75,3.0,7.25,2.25,7.75,6.75,5.0,6.75,0.14,0.08,0.95,1000.07,2.3,-25.3
3.74,1.0,0.0,1.75,0.0,4.25,0.0,0.0,0.0,0.0,0.0,0.0,0.0,0.0,-0.98,-0.61,2.2,249.02,11.1,60.6,1.25,1.5,2.75,4.5,6.75,7.75,3.75,7.25,2.5,7.25,6.25,4.25,6.5,0.08,0.08,0.95,987.15,1.3,-18.8
3.76,0.0,1.0,2.0,0.75,3.5,0.0,0.0,0.0,0.0,0.0,0.0,0.0,0.0,-1.05,-0.17,2.7,117.61,11.6,61.7,0.75,1.75,2.75,5.25,7.0,8.0,4.0,7.25,2.5,7.25,6.25,3.75,5.75,0.08,0.14,0.95,968.88,1.2,-15.6
3.78,0.0,0.0,0.75,0.0,3.0,0.0,0.0,0.0,0.0,0.0,0.0,0.25,0.0,-1.23,-1.36,1.08,0.0,4.5,45.7,1.25,1.75,3.0,4.75,8.0,8.25,4.0,7.0,2.5,6.5,6.25,3.25,5.5,0.08,0.14,0.95,953.86,0.8,-11.6
3.8,0.0,0.0,0.75,0.0,1.75,0.0,0.0,0.0,0.0,0.25,0.0,0.0,0.0,-0.8,-0.48,0.83,0.0,6.2,44.8,2.25,1.75,4.0,7.0,8.25,8.25,4.0,7.0,2.25,6.0,5.25,2.5,4.25,0.08,0.14,0.95,958.76,-1.0,-0.9
3.82,0.0,0.0,0.75,0.0,2.25,0.0,0.0,0.0,0.0,0.0,0.0,0.0,0.0,-0.42,-0.42,0.14,0.0,6.2,55.2,3.5,1.75,5.25,8.0,9.0,8.25,4.5,6.5,2.25,5.25,4.75,2.5,3.75,0.08,0.14,0.95,996.78,-3.1,6.5
3.84,0.5,0.75,2.5,1.0,4.75,1.0,0.0,0.0,0.25,1.75,1.0,0.5,0.5,-0.42,-0.3,0.27,0.0,5.6,22.2,3.75,2.25,5.25,8.5,9.5,8.5,4.0,6.25,1.75,4.25,4.5,2.25,2.5,0.08,0.14,0.95,1024.69,-3.7,13.5
3.86,0.5,1.0,3.0,1.75,5.25,1.0,0.0,0.0,0.25,1.75,0.75,0.5,0.25,-0.48,-0.3,0.7,28.55,7.1,30.7,4.0,2.25,5.5,9.75,9.75,8.5,4.5,5.75,1.75,4.0,4.5,2.0,2.25,0.08,0.14,0.95,1052.97,-4.6,16.9
3.88,0.5,1.0,3.0,2.0,5.25,1.0,0.0,0.0,0.5,1.25,0.5,0.75,0.25,-0.55,-0.3,0.89,116.43,8.0,32.7,5.0,3.0,6.0,11.0,11.0,8.5,4.5,5.25,1.5,3.75,4.0,1.25,2.25,0.08,0.14,0.95,1094.7,-5.6,24.0
3.9,0.5,1.0,3.0,1.25,5.25,1.0,0.0,0.0,0.5,1.75,0.5,0.75,0.25,-0.61,-0.05,0.95,174.45,6.9,28.3,5.75,3.0,6.75,11.5,11.0,8.75,4.5,4.75,1.25,3.75,3.5,1.25,2.25,0.02,0.14,0.95,1141.16,-6.4,26.9
3.92,0.5,1.0,3.0,1.25,5.25,1.0,0.0,0.0,0.5,1.25,0.5,0.75,0.5,-0.61,0.2,0.89,211.26,7.2,29.3,5.75,3.0,7.0,12.0,12.0,8.5,4.0,4.5,1.0,3.5,3.25,1.0,1.5,0.02,0.14,0.95,1177.32,-6.8,31.0
3.94,0.5,1.25,3.0,1.5,5.25,1.0,0.0,0.0,0.25,1.75,0.5,0.5,0.25,-0.55,0.39,1.02,235.21,7.0,32.9,6.25,3.0,7.5,13.0,12.5,8.75,4.25,3.25,1.25,3.5,3.25,1.0,1.25,0.02,0.14,0.95,1214.45,-7.7,33.9
3.96,0.5,0.75,2.75,1.25,5.25,1.0,0.0,0.0,0.25,1.75,0.5,0.75,0.5,-0.48,0.45,1.27,247.91,5.9,25.4,6.25,3.0,7.75,13.0,12.5,8.75,4.5,2.75,1.25,3.5,3.25,1.0,1.25,0.02,0.2,0.95,1235.91,-8.1,34.5
3.98,0.5,0.0,2.25,0.0,5.0,1.25,0.0,0.0,0.0,0.0,0.5,0.25,0.5,-0.42,0.64,1.52,241.35,5.3,37.8,7.5,3.25,8.75,13.0,12.5,8.5,4.0,2.0,1.0,3.5,3.25,1.0,1.25,-0.05,0.2,0.95,1256.71,-9.3,37.3
4.0,0.75,0.75,1.75,0.75,4.75,1.0,0.0,0.0,0.25,1.25,0.5,0.75,0.5,-0.48,0.77,1.64,230.39,4.7,25.3,8.25,3.75,8.75,14.5,13.5,8.25,4.5,2.0,1.0,2.5,3.25,1.0,1.25,-0.05,0.2,0.95,1298.41,-10.0,40.6
4.02,0.5,0.75,0.75,1.0,1.75,0.5,0.0,0.0,0.5,1.75,0.0,0.75,0.0,-0.67,1.02,2.2,196.29,4.8,14.1,8.75,4.0,9.25,15.5,14.0,8.25,4.0,1.75,1.0,2.5,2.75,1.0,1.5,-0.05,0.27,1.02,1338.51,-10.3,42.1
4.04,0.5,0.75,2.0,0.75,5.25,1.0,0.0,0.0,0.5,1.75,0.25,0.5,0.5,-0.73,1.45,2.58,195.58,3.7,25.3,9.0,0.0,10.5,16.0,12.5,7.5,4.0,1.75,0.0,1.75,2.5,1.0,1.5,-0.05,0.27,1.02,1326.19,-11.8,42.1
4.06,0.5,0.75,1.75,1.0,5.0,1.0,0.0,0.0,0.25,1.75,0.5,0.75,0.5,0.02,1.89,2.39,191.73,3.6,21.8,10.0,4.5,10.5,16.0,13.0,7.25,3.0,1.75,0.5,2.25,0.0,1.0,1.5,0.02,0.33,1.08,1336.07,-11.9,49.3
4.08,0.5,1.0,1.75,1.0,0.75,1.0,0.0,0.0,0.5,1.75,0.25,0.75,0.5,1.45,2.64,1.95,174.97,7.3,8.9,11.0,5.25,11.5,15.0,12.5,6.0,1.75,1.0,0.0,2.25,2.25,1.0,2.0,0.08,0.33,1.08,1340.23,-13.1,47.5
4.1,0.75,0.75,1.75,0.75,5.25,1.0,0.0,0.0,0.5,0.75,0.5,0.75,0.5,2.14,2.77,1.27,180.32,5.2,28.9,11.0,4.75,11.5,15.5,11.0,5.25,0.5,1.0,0.75,2.25,2.5,1.0,1.25,0.08,0.39,1.2,1331.26,-14.0,47.7
4.12,0.75,0.75,1.0,1.0,5.25,1.0,0.0,0.0,0.5,1.5,0.5,0.5,0.5,2.02,3.45,0.27,186.33,2.4,24.5,11.0,4.75,10.5,14.0,9.5,5.0,0.0,0.0,0.75,2.25,3.25,1.0,1.25,0.14,0.52,1.27,1276.88,-14.5,47.2
4.14,0.75,0.5,1.25,0.0,5.0,0.0,0.0,0.0,0.0,0.0,0.5,0.25,0.5,2.27,3.95,-0.23,176.02,6.4,40.6,11.0,4.0,9.0,10.5,8.25,5.25,0.0,0.5,0.75,2.25,2.75,1.0,1.25,0.33,0.7,1.58,1158.15,-13.8,45.5
4.16,0.5,0.25,0.5,1.25,3.0,0.25,0.0,0.0,0.5,1.0,0.5,0.75,0.5,0.7,1.27,-0.73,160.21,4.2,10.8,9.5,3.0,6.0,6.75,6.75,4.5,0.0,0.5,0.75,2.0,3.0,1.0,1.25,0.83,1.33,2.64,953.23,-12.6,40.5
4.18,0.75,0.5,1.0,1.0,5.0,1.0,0.0,0.5,0.5,2.0,1.0,3.0,2.5,-0.3,-1.05,1.7,190.91,0.8,-14.7,7.75,2.0,2.75,5.25,5.0,3.75,0.0,0.25,0.75,0.0,3.25,1.0,1.25,0.52,0.95,3.27,702.55,-12.3,39.1
4.2,0.25,0.0,1.0,0.0,5.0,0.0,0.0,1.5,0.25,1.75,1.5,4.25,5.5,0.02,-0.17,0.7,233.11,-2.0,-45.7,5.0,1.5,1.75,3.25,2.5,3.0,0.0,0.25,0.75,0.0,2.25,1.0,1.25,0.45,0.27,2.14,455.81,-11.3,31.6
4.22,0.0,0.0,0.5,0.0,0.75,1.0,0.0,1.75,1.0,7.0,2.5,7.0,6.5,-0.48,0.95,4.7,305.33,-4.8,-78.4,2.5,0.0,1.0,2.75,3.0,3.25,0.5,0.5,0.75,0.0,2.25,0.0,1.5,1.08,-0.61,2.27,287.22,-5.5,20.7
4.24,0.5,0.0,1.0,0.75,3.75,3.0,0.25,5.25,3.0,8.0,7.0,8.25,8.25,0.02,0.89,1.52,478.99,-3.1,-56.4,1.25,0.0,0.0,2.75,0.5,3.25,0.0,0.0,0.75,1.75,2.0,1.0,1.25,1.14,-0.3,2.08,171.85,-0.8,-9.7
4.26,0.0,1.25,0.0,2.5,1.75,3.75,0.5,6.0,2.75,6.5,7.75,8.25,9.0,0.02,0.08,1.08,664.42,-3.2,-56.1,1.75,1.0,0.0,0.5,2.75,3.75,0.75,0.75,1.0,2.25,2.0,1.0,1.25,0.89,-1.48,1.14,114.3,1.3,-2.2
4.28,0.0,1.0,0.0,2.25,1.25,3.75,0.0,5.25,2.5,8.5,7.25,8.25,9.0,-0.05,0.02,0.95,804.23,-4.1,-60.1,1.25,0.5,2.5,0.5,2.5,3.0,0.75,0.75,1.0,2.25,2.25,1.0,1.25,0.45,-0.8,0.83,100.26,-3.6,-1.9
4.3,0.5,0.75,0.75,2.5,0.75,4.0,0.0,6.25,2.5,7.75,7.0,8.25,9.0,-0.11,0.08,0.95,886.53,-3.3,-57.1,1.75,0.5,2.75,0.75,2.75,3.0,1.0,0.75,1.0,2.25,2.0,1.0,1.25,0.27,-0.48,0.33,115.52,-4.9,3.6
4.32,0.5,1.25,1.0,2.5,2.5,3.5,0.0,6.75,2.75,8.0,7.0,8.25,9.0,-0.11,0.08,0.95,944.54,-2.9,-51.5,1.25,0.75,2.5,0.5,3.0,3.0,1.0,0.75,1.0,2.25,2.25,1.0,0.75,0.39,-0.3,0.2,137.56,-4.2,3.9
4.34,1.0,1.25,2.0,2.75,3.0,4.5,0.0,6.25,3.0,8.25,7.25,8.25,9.0,-0.11,0.08,0.95,979.61,-1.9,-45.5,1.25,0.5,2.5,0.0,2.75,2.75,1.0,0.75,1.0,2.25,2.25,1.0,1.25,0.45,-0.3,0.45,160.43,-3.7,-3.0
4.36,1.0,1.0,3.0,3.25,4.75,4.5,0.0,7.0,3.0,7.75,7.5,8.25,9.0,-0.11,0.08,0.95,1035.7,-1.1,-39.9,1.25,0.75,1.75,0.0,2.25,3.0,1.0,0.75,1.0,2.25,1.5,1.0,1.25,0.45,-0.3,0.83,174.32,-1.8,-2.7
4.38,1.25,0.0,2.75,3.5,5.25,4.75,2.25,7.0,3.5,8.5,7.5,8.25,8.75,-0.05,0.02,0.95,1090.57,-0.8,-39.5,1.25,0.75,1.5,0.0,1.75,1.0,1.25,0.75,1.0,2.25,2.0,1.0,1.0,0.33,-0.17,0.95,179.48,-5.3,-10.9
4.4,1.25,0.0,3.0,3.5,5.25,5.0,2.25,7.0,3.75,8.5,7.25,8.25,8.25,-0.11,0.08,0.95,1108.16,-0.7,-38.1,1.0,1.25,1.75,0.0,2.25,0.75,1.0,0.75,1.0,2.25,2.25,1.0,1.0,0.33,0.02,0.95,192.61,-5.6,-7.3
4.42,0.25,0.75,3.0,3.75,5.25,5.5,2.5,7.0,3.75,8.0,7.0,7.5,8.25,-0.11,0.02,0.95,1087.65,-1.1,-36.0,1.25,1.0,1.75,0.0,2.25,1.25,1.0,0.75,1.0,2.25,2.25,1.0,1.0,0.33,0.27,1.02,205.88,-5.1,-6.3
4.44,1.25,1.0,3.0,1.0,5.5,5.5,3.0,7.0,3.75,7.5,7.0,7.5,7.5,-0.11,0.02,0.95,1039.64,-1.0,-35.9,1.25,0.75,1.75,1.0,1.5,1.25,1.25,0.75,1.0,2.25,2.25,1.0,1.25,0.33,0.39,1.27,218.62,-6.1,-8.4
4.46,2.25,1.25,3.75,3.75,5.75,4.0,3.5,7.0,4.0,7.25,6.75,7.0,6.75,-0.05,0.08,0.95,991.74,1.6,-26.8,1.25,1.0,1.5,0.5,1.25,2.75,1.25,0.5,1.0,2.25,2.25,1.0,1.0,0.27,0.52,1.52,225.26,-3.7,-5.4
4.48,1.75,1.0,4.75,4.5,6.0,6.0,4.5,6.75,4.25,6.75,6.5,6.0,6.25,-0.05,0.08,0.95,966.96,1.8,-20.7,1.25,1.0,1.5,1.0,1.25,0.75,1.0,0.75,1.0,2.25,2.25,1.0,1.25,0.27,0.64,1.7,223.97,-6.5,-10.4
4.5,2.25,1.25,5.25,5.5,7.25,5.75,4.75,6.5,4.5,6.0,6.25,5.5,5.5,-0.05,0.08,0.95,989.51,3.1,-13.3,1.5,1.0,1.5,0.5,1.5,2.0,1.25,0.75,1.0,2.25,2.25,1.0,1.25,0.39,0.77,1.89,223.3,-4.6,-6.6
4.52,3.0,1.25,5.25,6.5,7.5,5.75,5.0,6.25,4.25,5.75,5.5,5.25,4.5,-0.05,0.08,0.95,1011.29,4.0,-7.5,1.25,0.5,1.75,0.0,1.25,1.25,1.25,0.5,1.0,2.25,2.25,1.0,1.25,0.58,1.14,2.52,214.67,-5.8,-15.6
4.54,3.25,1.25,5.75,7.5,7.5,6.25,5.5,6.25,4.25,4.5,4.25,3.75,3.75,-0.05,0.08,0.95,1015.1,4.9,1.4,1.0,0.5,1.5,0.5,1.25,2.75,1.25,0.75,1.0,2.25,2.25,1.0,1.25,0.58,1.64,2.27,216.71,-2.4,-12.2
4.56,3.75,1.25,6.5,9.0,8.0,6.75,5.75,5.75,3.75,4.25,3.0,3.5,2.0,-0.05,0.08,0.95,1010.25,6.2,11.3,1.5,0.75,1.75,0.5,1.25,3.0,1.0,0.5,1.0,2.25,2.25,1.0,1.25,0.33,2.33,2.02,222.92,-3.7,-5.8
4.58,4.25,1.5,7.5,11.5,8.5,6.75,6.25,5.25,3.75,3.5,3.25,2.25,1.75,-0.05,0.08,0.95,1028.23,7.9,19.4,1.25,0.5,1.75,1.25,1.25,3.0,1.0,0.5,1.0,2.25,2.25,1.0,1.25,-0.17,2.77,1.14,233.36,-3.8,-5.8
4.6,4.25,1.5,8.25,12.0,9.25,7.0,6.75,5.25,3.25,2.75,2.0,2.25,1.25,-0.05,0.08,0.95,1050.51,8.6,25.1,1.25,0.5,1.5,1.0,1.25,3.0,1.0,0.5,1.0,1.5,2.25,1.0,1.25,-1.11,3.27,0.02,235.76,-3.9,-4.7
4.62,5.5,1.75,9.0,13.5,10.0,6.75,7.0,4.25,2.75,2.0,1.75,2.0,1.5,-0.05,0.08,0.95,1096.53,10.1,31.2,1.25,0.5,1.5,0.5,1.25,2.75,0.75,0.75,1.0,2.25,2.25,1.0,1.25,-2.17,4.83,1.89,236.02,-2.5,-11.2
4.64,5.75,2.0,9.75,15.0,11.5,6.75,6.75,3.75,2.0,2.0,1.75,2.0,0.75,-0.05,0.08,0.95,1157.74,10.8,36.1,1.25,0.0,1.5,0.75,1.25,3.5,0.75,0.75,1.0,2.0,2.0,1.0,1.25,-2.11,2.89,-0.11,232.0,-1.5,-9.7
4.66,6.25,2.75,10.0,16.0,13.5,6.75,7.25,2.75,1.75,2.0,1.5,2.0,1.0,-0.05,0.14,0.95,1243.73,11.0,39.2,0.75,0.75,1.25,0.5,1.25,0.75,0.25,1.0,1.0,2.0,3.25,2.5,2.75,0.39,-0.11,1.58,235.34,-3.1,-38.3
4.68,7.25,2.75,11.0,16.5,13.5,6.75,7.25,1.75,1.25,0.75,1.5,2.0,1.0,-0.05,0.14,1.02,1308.04,12.6,44.1,0.0,0.0,0.0,0.0,0.25,2.0,0.0,0.25,0.75,3.75,2.25,2.75,4.25,-0.3,0.27,0.64,239.06,6.8,-73.2
4.7,7.75,2.75,1.5,15.5,14.0,6.25,7.25,1.75,1.0,1.0,1.0,1.5,1.25,-0.11,0.14,1.02,1258.33,8.6,43.1,0.0,0.5,1.75,0.75,1.25,4.0,1.25,3.25,0.75,8.25,4.0,6.5,6.5,0.33,1.27,7.77,329.94,3.9,-54.6
4.72,8.25,2.75,11.5,18.5,14.0,5.25,7.25,1.75,1.0,0.75,0.0,1.0,0.5,-0.05,0.14,1.08,1286.57,14.1,51.5,1.25,1.25,2.75,3.0,2.25,5.5,0.0,6.25,2.5,9.0,8.5,7.25,8.25,-0.17,0.64,1.27,536.45,1.5,-42.3
4.74,9.25,2.75,12.0,16.5,13.5,3.0,6.75,0.5,1.0,2.0,0.0,1.25,0.25,-0.11,0.2,1.08,1269.72,15.8,52.0,1.25,1.25,2.75,3.0,4.75,6.25,1.25,6.5,2.0,9.0,8.5,6.75,8.25,0.02,0.2,1.02,779.69,1.7,-35.7
4.76,9.75,1.75,12.5,17.0,14.5,2.25,6.75,0.0,0.5,1.75,1.0,0.75,0.5,-0.11,0.2,1.14,1287.48,16.5,52.5,1.25,1.25,2.75,3.0,4.75,6.25,2.75,6.5,2.25,9.0,7.75,6.5,8.25,0.14,0.14,0.95,970.65,1.5,-34.2
4.78,11.0,2.75,14.0,16.0,13.5,1.0,5.75,1.5,1.0,0.75,0.75,0.25,0.5,-0.17,0.27,1.27,1286.53,17.9,55.4,1.75,1.0,2.75,3.0,4.25,6.25,2.0,6.5,2.25,8.75,8.0,6.5,8.25,0.08,0.08,0.95,1070.39,1.3,-34.9
4.8,11.5,2.75,13.0,15.0,11.0,1.75,4.25,0.75,1.0,2.0,0.5,0.5,1.0,-0.3,0.39,1.39,1259.57,17.6,52.8,1.25,1.5,2.75,3.0,4.25,6.25,3.0,6.5,2.25,9.0,8.0,6.5,8.25,0.14,0.08,0.95,1106.98,1.3,-34.5
4.82,11.5,2.75,12.0,11.5,9.0,0.25,3.0,0.75,0.75,2.0,0.0,1.0,0.5,-0.48,0.58,1.52,1132.46,19.3,54.7,1.25,1.5,2.75,3.0,4.75,6.25,3.0,6.5,2.5,9.0,8.25,6.5,8.25,0.08,0.08,0.95,1118.61,1.2,-33.9
4.84,10.5,2.5,10.0,7.5,7.5,0.0,2.0,0.5,0.75,1.25,0.25,1.5,0.5,-0.48,0.83,2.39,942.13,19.9,53.6,2.0,1.5,2.75,3.0,4.75,6.25,3.0,6.5,2.5,9.0,8.5,6.5,8.25,0.08,0.14,0.95,1133.76,0.7,-32.6
4.86,9.0,1.75,8.0,5.5,6.75,0.0,1.25,0.25,0.5,0.75,0.5,1.25,0.5,-0.86,0.95,2.83,726.42,19.9,53.8,1.25,1.5,2.75,3.0,4.75,6.25,3.0,6.5,2.5,8.75,8.25,6.5,8.25,0.02,0.08,0.95,1127.99,1.1,-33.7
4.88,6.5,1.25,5.5,3.75,5.75,0.25,0.0,0.75,0.5,0.5,0.5,0.75,0.5,-0.61,0.39,2.45,511.12,17.4,51.1,1.5,1.25,2.25,3.0,4.75,6.25,3.0,6.5,2.5,8.75,8.0,6.5,8.25,0.08,0.08,0.95,1100.87,1.4,-34.4
4.9,4.25,1.25,4.25,0.0,5.25,0.25,0.0,0.0,0.5,0.25,0.5,0.5,0.5,-0.98,0.27,2.64,331.73,16.5,51.1,1.5,1.0,2.25,3.0,4.75,6.25,3.0,6.5,2.5,8.75,8.0,6.5,8.0,0.08,0.08,0.95,1056.38,1.4,-34.6
4.92,1.25,1.25,3.25,2.25,5.25,1.0,0.0,0.0,0.5,0.5,0.5,1.25,0.5,-0.98,-0.36,1.45,237.19,10.3,35.4,1.25,1.25,2.5,3.0,5.0,6.5,3.25,6.5,3.0,8.75,8.0,6.5,8.0,0.08,0.08,0.95,1015.45,1.3,-33.4
4.94,1.5,1.25,3.0,2.25,5.25,0.5,0.0,0.0,0.25,0.5,0.5,1.25,0.5,-1.48,-0.73,2.58,172.75,11.1,37.0,2.0,1.5,2.75,3.0,5.0,6.75,3.5,6.5,3.0,8.5,8.0,6.5,8.0,0.08,0.08,0.95,974.04,0.6,-30.5
4.96,1.25,1.25,3.25,2.0,5.25,0.75,0.0,0.0,0.5,1.75,0.0,1.0,0.75,-1.23,-1.11,0.77,136.3,8.6,30.5,2.25,1.5,2.75,3.25,5.5,7.0,4.0,6.5,3.0,8.25,8.0,6.25,7.75,0.08,0.08,0.95,961.05,0.3,-27.7
4.98,1.25,1.0,3.0,2.25,5.25,1.0,0.0,0.0,0.5,0.75,0.5,1.0,0.5,-0.73,-0.3,0.33,130.18,9.6,34.6,2.5,1.25,3.0,3.25,6.0,7.0,4.0,6.5,3.0,8.0,8.0,5.75,7.5,0.08,0.14,0.95,967.06,0.1,-25.5
5.0,0.75,1.25,3.0,1.75,5.25,1.0,0.0,0.0,0.5,0.75,0.5,0.75,0.5,-0.42,-0.36,0.14,132.9,8.7,35.3,2.5,1.25,3.0,3.5,6.5,7.25,4.0,6.5,3.0,7.5,7.5,5.75,6.75,0.08,0.14,0.95,969.52,0.0,-22.4
5.02,1.0,1.0,3.0,1.75,5.25,1.0,0.0,0.0,0.5,1.0,0.5,1.0,0.25,-0.3,-0.17,0.27,142.68,9.0,33.6,3.0,1.5,4.25,5.25,6.75,7.25,4.5,6.0,3.25,7.25,7.5,5.25,6.25,0.02,0.14,0.95,994.24,-1.9,-15.1
5.04,1.0,1.25,3.0,2.25,5.25,1.0,0.0,0.0,0.5,0.75,0.5,1.25,0.5,-0.3,-0.17,0.7,166.48,9.3,32.7,3.25,1.5,5.25,5.25,7.0,7.25,4.5,5.75,3.5,6.75,7.0,4.5,5.5,0.02,0.14,0.95,1012.39,-2.8,-10.1
5.06,0.75,1.25,3.0,1.75,5.25,1.0,0.0,0.0,0.5,0.75,0.5,1.0,0.5,-0.36,-0.17,1.02,190.69,8.7,33.2,3.75,1.25,5.25,5.5,7.25,7.5,5.0,5.75,3.5,6.0,6.75,3.75,4.5,0.02,0.14,0.95,1023.49,-3.5,-5.1
5.08,0.75,1.0,3.0,1.75,5.25,1.0,0.0,0.0,0.0,0.75,0.5,0.75,0.5,-0.36,0.14,1.02,208.37,8.5,36.5,4.25,1.75,5.5,7.0,8.25,7.5,5.25,5.5,3.5,5.75,6.25,3.25,4.0,0.02,0.14,0.95,1046.82,-4.3,1.7
5.1,0.75,1.25,3.0,1.75,5.0,1.0,0.0,0.0,0.0,1.0,0.5,0.75,0.5,-0.23,0.39,0.95,221.5,8.4,35.5,5.25,1.25,6.75,7.25,8.25,7.75,5.75,5.25,3.25,4.75,6.0,2.5,3.25,0.02,0.14,0.95,1065.29,-5.9,8.3
5.12,1.0,0.0,3.0,0.75,5.25,1.25,0.0,0.0,0.0,1.25,0.5,0.75,0.0,-0.11,0.45,1.08,222.69,7.5,32.8,5.75,1.75,7.0,9.0,9.5,7.75,6.0,4.75,3.0,4.0,5.25,2.5,3.0,0.02,0.14,0.95,1101.32,-6.9,14.9
5.14,0.75,1.0,2.5,1.0,5.25,1.0,0.0,0.0,0.0,1.0,0.5,0.5,0.5,0.02,0.52,1.33,222.05,6.6,35.1,6.0,2.0,7.75,9.25,9.5,7.75,6.0,4.5,3.0,3.75,4.5,2.0,2.5,0.02,0.14,0.95,1126.33,-7.7,19.7
5.16,0.75,1.0,2.5,1.0,5.25,1.0,0.0,0.0,0.0,0.5,0.5,0.0,0.5,-0.05,0.64,1.39,213.02,7.4,44.3,6.25,1.75,8.0,10.5,10.5,8.0,6.25,3.75,2.5,3.75,4.5,1.75,2.25,0.02,0.14,0.95,1160.03,-8.1,23.2
5.18,0.5,0.0,0.75,0.0,0.75,0.0,0.0,0.0,0.0,0.0,0.0,0.5,0.0,-0.11,0.77,1.64,153.98,18.2,32.5,7.0,2.5,8.75,11.0,11.0,8.0,6.5,3.25,1.75,3.5,4.0,1.0,2.25,0.02,0.14,0.95,1190.28,-9.0,29.4
5.2,0.75,0.75,3.0,1.25,5.25,1.0,0.0,0.0,0.0,1.25,0.5,0.5,0.5,-0.11,0.95,1.83,160.93,7.4,33.5,7.5,3.0,9.25,12.0,11.5,8.0,6.5,2.5,1.75,3.5,3.25,1.0,1.75,0.02,0.14,0.95,1229.22,-9.8,34.1
5.22,0.5,0.0,2.0,1.0,5.25,1.0,0.0,0.0,0.0,1.25,0.5,0.5,0.5,-0.11,1.27,1.83,159.61,4.0,26.0,7.75,3.0,9.25,12.5,12.0,7.75,6.25,2.0,1.5,2.5,3.25,1.0,1.5,-0.05,0.14,1.02,1250.6,-10.6,37.6
5.24,0.75,0.0,3.0,0.0,4.75,0.0,0.0,0.0,0.0,0.25,0.5,0.25,0.5,0.02,1.45,1.64,167.56,11.2,38.1,8.0,2.25,9.25,12.0,12.0,7.25,5.75,1.75,1.0,2.25,3.25,1.0,1.25,0.02,0.2,1.08,1236.76,-11.1,38.8
5.26,0.5,0.0,0.75,0.0,0.5,0.25,0.0,0.0,0.0,0.0,0.0,0.5,0.0,0.2,1.95,1.39,120.07,16.8,30.2,8.0,1.25,9.0,9.75,9.5,6.5,4.0,0.25,1.25,2.25,1.25,1.0,1.0,0.02,0.27,1.14,1118.15,-12.4,42.8
5.28,0.5,0.0,0.75,0.25,0.75,0.0,0.0,0.0,0.0,0.0,0.0,0.5,0.25,0.39,2.95,-0.05,81.14,15.5,22.9,7.75,1.75,9.0,9.25,9.5,5.75,2.0,1.75,1.25,2.25,2.5,0.5,1.25,0.14,0.27,1.52,1014.36,-11.5,39.2
5.3,0.0,0.0,0.75,0.25,1.25,1.0,0.0,0.0,0.0,1.25,0.0,0.75,0.0,0.89,2.7,0.14,49.32,-0.9,-0.8,7.25,0.0,8.25,5.5,6.25,4.75,0.0,0.25,0.75,0.75,2.25,0.25,0.5,0.33,0.39,1.7,799.5,-14.6,45.7
5.32,0.0,0.0,0.5,0.0,1.25,0.25,0.0,0.0,0.0,0.75,0.0,0.0,0.25,1.33,2.77,0.08,29.81,-1.8,9.9,6.25,0.25,7.0,3.5,3.0,0.0,0.0,0.25,0.75,0.75,2.0,0.25,0.5,0.58,0.58,1.89,561.83,-21.8,44.5
5.34,0.0,0.0,0.5,0.0,0.75,0.0,0.0,0.0,0.0,0.5,0.0,1.5,0.5,1.14,3.33,-0.67,29.0,3.9,-46.3,5.0,0.5,3.75,2.75,1.25,0.0,0.0,0.25,1.0,2.25,2.0,1.0,0.5,0.39,0.64,1.89,359.65,-17.6,22.5
5.36,0.0,0.0,0.5,0.25,0.5,0.75,0.0,1.0,0.0,5.5,0.75,0.0,5.25,-1.11,0.33,0.39,94.13,-11.1,-68.1,3.5,1.25,1.0,3.0,3.75,0.0,0.25,0.0,1.0,2.25,0.75,1.0,0.5,0.58,0.45,1.58,248.57,-10.7,26.7
5.38,1.75,1.25,2.0,1.0,3.5,4.0,0.0,6.0,2.5,8.25,5.25,7.75,6.5,-0.48,0.39,1.27,290.95,-1.9,-41.9,1.75,1.0,0.5,3.0,2.25,0.0,0.75,1.5,1.0,0.5,2.0,1.0,1.25,0.14,-0.67,1.27,166.3,-8.3,5.6
5.4,1.25,1.0,1.75,0.0,0.0,4.0,0.0,6.75,2.0,7.25,7.25,7.0,8.25,0.08,-0.11,1.27,490.44,-3.1,-57.5,1.25,1.5,0.0,3.0,2.75,3.25,0.75,1.5,0.75,1.75,0.0,1.0,1.25,0.64,-0.73,1.45,132.07,0.3,14.1
5.42,1.75,1.25,2.25,2.25,0.5,5.0,0.0,6.25,2.0,6.0,6.0,5.5,6.5,-0.05,-0.05,0.89,677.65,-1.3,-39.6,1.5,1.0,1.5,2.75,2.25,3.0,0.0,1.5,1.0,2.25,2.25,1.0,1.25,0.64,-0.55,0.64,136.67,-2.9,2.5
5.44,2.25,0.0,0.0,1.75,5.25,5.75,1.0,6.0,2.5,6.0,5.0,5.25,5.5,-0.11,0.27,0.89,753.75,-3.6,-32.6,1.25,1.5,1.0,2.5,2.25,3.0,0.0,1.5,1.0,0.25,2.25,1.0,1.25,0.58,-0.17,0.27,144.94,-3.6,9.8
5.46,4.25,0.0,3.5,3.75,5.25,6.25,1.75,6.75,3.5,6.75,5.25,5.25,5.5,-0.11,0.08,0.89,864.07,1.1,-19.2,1.0,1.0,1.75,2.0,1.25,2.75,0.0,1.25,1.0,1.0,2.25,1.0,1.25,0.58,0.08,0.14,152.83,-4.3,0.7
5.48,4.25,0.0,5.0,4.25,0.0,7.0,2.5,7.0,4.25,7.0,6.0,4.0,5.5,-0.05,0.08,0.95,915.92,2.6,-22.5,2.0,1.0,1.75,2.0,1.25,2.0,0.25,1.5,1.0,1.75,2.25,1.0,1.25,0.33,0.27,0.2,171.05,-5.9,0.9
5.5,5.75,0.25,5.25,5.5,5.75,7.5,3.25,7.5,3.75,6.0,5.75,3.75,5.0,0.02,0.08,1.02,1045.74,3.3,-6.7,1.0,1.25,2.0,1.75,1.25,2.75,0.75,1.25,1.0,1.5,2.25,1.0,1.25,-0.17,0.52,0.33,191.95,-4.7,0.6
5.52,6.25,0.75,4.5,5.75,7.5,7.25,3.75,7.0,3.25,5.5,3.5,2.5,3.75,-0.05,0.08,0.95,1109.94,3.4,4.3,1.25,1.25,1.75,1.75,1.25,0.5,0.75,1.0,1.0,1.75,2.25,1.0,1.25,-0.8,0.77,0.39,201.2,-8.2,-3.7
5.54,7.25,0.5,6.5,7.5,9.0,8.0,4.25,6.25,2.25,4.25,1.75,2.0,2.25,-0.05,0.14,0.95,1160.31,5.8,19.7,1.25,0.25,1.5,1.75,1.25,2.25,0.75,1.25,1.0,1.25,2.5,1.0,1.25,-1.3,1.08,0.7,218.87,-4.8,-6.7
5.56,7.75,0.5,7.5,9.0,9.25,8.0,4.25,5.25,1.75,4.0,1.5,2.0,1.5,-0.05,0.14,0.95,1167.24,7.4,26.0,1.25,1.0,1.75,1.25,1.25,2.5,0.75,1.0,1.0,2.0,2.25,1.0,1.25,-1.67,1.33,0.83,231.12,-4.2,-4.0
5.58,8.5,0.5,6.25,12.0,9.25,7.5,3.75,4.25,1.0,2.0,0.25,1.0,0.5,-0.05,0.14,0.95,1125.32,9.3,40.5,1.25,1.0,1.75,1.25,1.5,2.0,1.0,1.0,1.0,2.25,2.25,1.0,1.25,-1.42,1.33,0.39,237.28,-4.7,-4.9
5.6,8.0,0.0,7.75,9.5,9.25,7.0,3.5,1.75,0.5,2.25,0.5,1.25,0.25,-0.05,0.14,1.02,1018.37,11.0,42.8,1.25,0.75,1.75,0.75,1.25,1.75,1.0,1.0,1.0,2.25,2.25,1.0,1.25,-0.98,0.89,0.33,235.54,-4.8,-10.0
5.62,9.75,1.25,9.0,12.5,11.5,7.75,2.5,3.5,0.75,2.0,0.5,1.25,0.5,-0.11,0.2,1.02,1018.33,10.6,44.2,0.5,1.0,1.5,1.0,1.25,1.0,1.0,1.0,1.0,2.25,2.25,1.0,1.25,-1.05,0.58,0.45,228.23,-4.4,-15.1
5.64,9.75,2.75,9.0,13.5,11.5,6.5,0.0,1.75,0.5,2.0,0.5,0.75,0.5,-0.05,0.27,1.08,1051.85,11.8,50.4,1.0,0.75,1.5,1.25,1.25,0.5,1.0,0.75,1.0,2.25,2.25,1.0,1.25,-1.23,0.64,0.52,216.81,-6.6,-13.4
5.66,10.5,2.75,9.0,13.0,11.5,6.5,0.0,1.75,0.5,2.0,0.5,0.25,0.5,-0.05,0.27,1.08,1092.34,12.0,52.2,1.25,1.0,1.75,1.0,1.25,0.0,1.0,1.25,1.0,0.75,2.25,1.0,1.25,-1.36,0.64,0.39,205.69,-10.0,-5.6
5.68,10.5,2.75,9.0,12.0,9.25,4.5,0.0,1.75,0.5,1.25,0.5,0.0,0.0,-0.11,0.27,1.02,1043.23,14.5,56.7,1.25,0.5,1.5,0.75,1.25,0.0,1.0,1.0,1.0,1.25,2.25,1.0,1.25,-1.3,0.33,0.27,196.69,-8.8,-13.9
5.7,10.5,2.5,8.25,9.25,8.25,0.0,0.0,1.75,0.5,2.0,0.25,0.25,0.0,-0.11,0.33,1.02,919.48,17.5,56.2,1.25,0.25,1.75,1.25,1.25,0.0,1.0,1.25,1.0,0.0,2.25,1.0,1.25,-1.36,-0.48,0.33,188.26,-11.5,-6.4
5.72,11.0,3.25,7.5,9.0,9.0,2.25,0.0,1.5,0.5,2.0,0.5,0.0,0.25,-0.11,0.39,1.02,828.19,15.1,55.9,1.25,0.5,1.75,0.5,1.25,2.75,1.0,0.5,1.0,0.25,2.25,1.0,1.0,-1.48,-0.98,0.45,188.14,-6.5,1.4
5.74,10.5,3.25,5.5,7.5,9.0,2.25,0.0,0.0,0.5,2.0,0.5,1.0,0.0,-0.17,0.45,1.08,727.97,14.8,55.6,1.25,0.5,1.75,0.75,1.25,0.5,1.0,0.75,1.0,2.0,2.5,1.0,1.25,-1.86,-1.17,0.7,192.58,-7.6,-14.8
5.76,10.5,2.5,3.25,5.5,8.5,1.25,0.0,0.0,0.5,1.75,0.5,1.0,0.5,-0.23,0.45,1.02,636.78,14.3,53.4,0.5,0.5,1.5,0.5,1.25,0.0,1.0,0.5,1.0,2.0,2.25,1.0,1.25,-2.05,-1.05,0.77,188.71,-6.8,-24.1
5.78,10.5,2.5,2.75,3.75,7.5,1.75,0.0,0.0,0.0,1.75,0.5,0.5,0.25,-0.3,0.58,0.77,534.94,14.2,58.0,1.25,0.25,1.25,1.5,1.25,0.0,1.0,0.75,1.0,2.25,2.25,1.0,1.25,-1.61,-1.05,0.83,190.57,-7.5,-17.2
5.8,8.75,2.75,2.25,0.0,7.5,0.25,0.0,0.0,0.0,0.25,0.5,0.0,0.25,-0.48,0.64,0.39,410.97,16.0,69.3,1.25,0.25,1.25,0.5,1.25,0.0,1.0,0.75,1.0,2.0,2.5,1.0,1.0,-1.11,-0.8,0.64,185.42,-7.6,-21.2
5.82,9.0,3.25,0.5,2.25,5.75,1.5,0.0,0.0,0.25,0.75,0.0,0.5,0.25,-1.05,1.08,-0.05,337.17,13.6,64.5,1.25,0.5,1.75,0.5,1.25,0.0,1.0,0.5,1.0,2.0,2.25,1.0,1.25,-0.42,-0.55,0.52,187.06,-8.8,-16.3
5.84,7.25,2.75,1.0,3.0,5.5,1.5,0.0,0.0,0.5,1.75,0.0,0.75,0.25,-1.17,1.33,-0.67,289.76,11.8,53.0,1.25,0.5,1.5,0.5,1.25,0.0,1.0,0.5,1.0,1.75,2.5,1.0,1.25,-0.3,-0.17,0.64,186.98,-8.7,-17.8
5.86,6.5,2.5,1.25,1.0,5.0,0.5,0.0,0.0,0.25,1.75,0.5,0.75,0.25,-0.92,0.64,0.58,254.39,12.8,49.4,1.25,0.25,1.5,0.5,1.25,3.0,1.0,0.5,1.0,2.0,2.25,1.0,1.0,-0.86,0.08,0.89,200.12,-3.0,-9.0
5.88,4.25,0.0,0.75,0.0,5.25,0.0,0.0,1.0,0.0,0.0,0.25,0.25,0.25,-1.8,1.83,-0.61,201.63,10.5,51.5,1.0,0.75,1.5,0.5,1.25,2.75,0.75,0.5,1.0,1.75,2.25,1.0,1.25,-1.73,0.27,1.52,209.49,-3.0,-8.5
5.9,2.5,1.25,1.0,0.0,4.75,1.0,0.0,0.0,0.0,1.0,0.5,0.5,0.0,-2.55,2.45,-1.23,159.94,6.9,44.2,1.0,0.75,1.5,0.75,1.25,0.0,1.0,0.5,1.0,2.25,2.25,1.0,1.25,-1.98,-0.17,2.02,211.05,-7.6,-17.2
5.92,0.75,0.0,2.0,0.0,0.0,0.0,0.0,0.0,0.0,0.0,0.0,0.0,0.0,-1.61,2.02,1.7,75.84,37.4,70.3,1.25,1.25,1.5,1.0,1.25,2.5,1.0,0.5,1.0,1.5,2.25,1.0,1.25,-1.86,-0.3,1.77,220.91,-5.1,-1.0
5.94,0.5,0.0,0.0,0.0,0.0,0.0,0.0,0.0,0.0,0.0,0.0,0.0,0.0,-0.11,2.14,0.14,0.0,34.9,97.9,1.25,0.5,1.5,0.75,1.25,2.25,1.0,0.5,1.0,2.0,2.25,1.0,1.25,-1.36,-0.36,0.83,223.31,-4.3,-9.7
5.96,0.5,0.0,0.0,0.0,0.0,0.0,0.0,0.0,0.0,0.0,0.0,0.0,0.0,-0.55,1.52,0.27,0.0,34.9,97.9,1.0,1.0,1.25,0.75,1.25,2.75,1.0,0.5,1.0,2.0,2.25,1.0,1.0,-0.55,-0.42,0.14,227.63,-3.0,-6.0
5.98,0.5,0.0,0.0,0.0,0.5,0.0,0.0,0.0,0.0,0.0,0.0,0.0,0.0,-1.05,1.14,1.02,0.0,13.7,73.3,1.5,1.0,1.5,0.75,1.25,2.75,1.0,0.5,1.0,2.0,2.25,1.0,1.25,-0.23,-0.55,-0.17,233.87,-4.2,-3.8
6.0,0.5,0.0,0.0,0.0,0.0,0.0,0.0,0.0,0.0,0.0,0.0,0.0,0.0,-0.8,0.45,1.2,0.0,34.9,97.9,1.0,0.5,1.0,0.5,1.25,0.5,1.0,0.5,1.0,2.25,2.5,1.0,1.25,-0.36,-0.73,0.39,225.32,-5.2,-23.0
6.02,0.5,0.0,0.75,0.0,0.0,0.0,0.0,0.0,0.0,0.0,0.0,0.0,0.0,-1.17,-0.23,1.08,0.0,37.0,74.9,1.5,0.0,1.25,0.5,1.0,0.5,1.0,0.5,1.0,1.75,2.25,1.0,1.25,-0.48,-0.17,0.7,209.55,-7.6,-20.5
6.04,0.5,0.0,0.0,0.0,0.5,0.0,0.0,0.0,0.0,0.0,0.0,0.0,0.0,-1.98,-0.42,1.02,0.0,13.7,73.3,1.25,0.5,1.5,0.75,1.0,1.25,1.0,0.5,1.0,2.25,2.5,1.0,1.0,-0.55,0.39,0.33,203.64,-6.2,-14.1
6.06,0.75,0.75,1.0,0.0,2.5,0.25,0.0,0.0,0.5,0.5,0.0,0.25,0.0,-1.17,-0.61,0.39,0.0,8.5,41.6,1.25,0.0,1.5,0.75,1.0,2.75,1.0,0.5,1.0,2.0,2.5,1.0,1.25,-0.67,0.64,0.45,205.97,-3.4,-14.0
6.08,0.5,0.75,1.0,0.0,2.25,0.0,0.0,0.0,0.5,0.25,0.5,0.5,0.0,-0.48,-0.8,-0.42,26.49,10.4,29.6,1.0,0.75,1.5,0.75,0.5,2.75,0.75,0.5,1.0,2.25,2.5,1.0,1.0,-0.73,0.64,0.39,210.45,-3.4,-12.4
6.1,0.75,1.0,1.25,0.0,1.25,0.0,0.0,0.0,0.5,0.5,0.25,0.25,0.0,-0.61,-0.67,-0.61,66.95,14.2,37.6,0.75,0.75,1.0,0.75,0.5,2.75,0.75,0.5,1.0,2.25,2.5,1.0,1.0,-0.67,0.64,0.27,211.07,-1.7,-16.6
6.12,1.0,1.0,2.25,0.0,0.75,0.0,0.0,0.0,0.5,0.5,0.5,0.25,0.25,-0.73,-0.36,-0.73,97.03,18.7,32.5,1.25,0.5,1.25,0.25,1.0,3.0,1.0,0.5,1.0,2.25,2.5,1.0,1.0,-0.48,0.39,0.33,214.9,-2.3,-12.7
6.14,0.75,1.0,2.0,0.5,0.75,0.0,0.0,0.0,0.5,0.5,0.5,0.5,0.25,-0.67,0.02,-0.73,115.68,17.0,26.5,1.25,0.75,1.5,0.75,1.0,3.0,0.75,0.5,1.0,2.25,2.5,1.0,1.25,-0.42,-0.23,0.52,221.08,-3.0,-9.4
6.16,1.0,1.0,1.75,0.0,0.75,0.0,0.0,0.0,0.5,0.5,0.5,0.5,0.25,-0.48,0.02,-0.48,128.07,16.9,25.2,1.25,0.75,1.5,0.5,1.25,3.0,0.75,0.25,1.0,2.25,2.5,1.0,1.0,-0.11,-0.61,-0.3,224.78,-3.2,-7.4
6.18,1.0,1.0,2.25,0.0,1.25,0.25,0.0,0.0,0.5,0.0,0.5,0.5,0.25,-0.23,-0.11,-0.17,134.9,17.7,36.6,0.75,0.75,1.25,0.5,1.0,2.75,1.25,0.25,1.0,2.0,2.0,0.75,1.0,0.39,-1.73,-0.3,221.88,-2.6,-8.1
6.2,1.0,1.0,2.5,0.0,2.25,0.0,0.0,0.0,0.5,0.5,0.5,0.5,0.25,-0.11,0.08,-0.3,146.57,14.9,33.4,1.0,0.5,1.25,0.5,0.0,3.0,1.0,0.25,1.0,1.75,2.75,0.75,0.75,0.33,-2.36,-0.11,212.46,-3.8,-13.5
6.22,0.75,0.75,2.0,0.0,0.5,0.0,0.0,0.0,0.5,0.5,0.5,0.5,0.25,-0.17,0.08,-0.48,139.3,18.2,19.7,1.25,0.5,1.25,0.5,0.5,3.0,1.0,0.25,1.0,2.0,2.25,0.75,0.5,0.39,-1.92,-0.17,204.8,-3.8,-6.1
6.24,1.0,0.75,0.75,0.0,1.25,0.0,0.0,0.0,0.25,0.5,0.5,0.5,0.5,-0.23,0.08,-0.61,129.51,10.5,15.8,0.5,0.5,1.25,0.5,1.0,3.0,1.0,0.25,1.0,1.75,2.25,0.75,0.5,0.2,-1.36,0.08,199.35,-2.2,-7.7
6.26,0.75,1.0,1.5,0.0,0.0,0.0,0.0,0.25,0.5,0.5,0.5,0.5,0.25,-0.3,-0.05,-0.48,113.25,16.8,13.7,1.25,0.5,1.5,0.5,1.0,3.0,1.0,0.25,1.0,1.75,2.0,0.75,0.75,0.08,-0.92,0.14,199.73,-4.0,-2.1
6.28,1.0,1.0,2.25,0.0,1.25,0.25,0.0,0.25,0.0,0.75,0.5,0.5,0.25,-0.42,-0.17,-0.36,114.39,13.9,28.5,1.25,0.5,1.25,0.75,1.25,3.0,0.75,0.25,1.0,1.75,2.0,0.75,0.5,-0.11,-0.67,0.39,200.6,-3.6,0.5
6.3,1.0,1.25,1.75,0.0,1.25,1.0,0.0,0.5,0.0,0.5,0.5,0.5,0.25,-0.55,-0.36,-0.3,118.21,9.4,30.2,1.0,0.5,1.25,0.25,1.25,2.75,0.75,0.25,1.0,2.0,2.0,0.75,0.75,-0.3,-0.67,0.52,200.59,-2.3,-7.0
6.32,1.0,1.25,2.0,0.0,1.75,1.0,0.0,0.5,0.0,0.25,0.5,0.5,0.25,-0.48,-0.42,-0.3,134.2,10.0,35.4,0.75,0.75,1.0,0.5,1.25,2.75,0.75,0.25,1.0,2.0,2.5,0.75,0.5,-0.61,-0.55,0.39,200.36,-2.2,-7.3
6.34,0.75,1.0,2.25,0.0,1.75,1.0,0.0,0.5,0.0,0.25,0.5,0.5,0.25,-0.36,-0.3,-0.42,142.58,10.1,32.7,0.75,0.5,1.25,0.5,1.25,2.25,0.75,0.25,1.0,1.5,2.25,0.75,0.75,-0.55,-0.8,0.33,195.78,-3.8,-7.7
6.36,0.75,0.75,1.75,0.0,1.75,1.0,0.0,0.0,0.0,0.25,0.75,0.5,0.25,-0.36,-0.23,-0.55,140.87,10.0,29.9,1.0,0.5,1.0,0.75,1.25,2.75,0.75,0.25,1.0,1.75,2.0,0.75,1.0,-0.55,-1.17,0.33,195.61,-2.3,-6.5
6.38,0.75,1.0,2.0,0.0,2.25,1.0,0.0,0.0,0.0,0.0,0.5,0.5,0.25,-0.23,-0.17,-0.61,140.25,10.7,40.6,1.0,0.75,1.25,0.5,1.25,2.75,0.75,0.25,1.0,0.25,2.0,0.75,0.75,-0.55,-1.23,0.27,191.05,-5.3,5.6
6.4,1.25,1.0,1.5,0.0,0.0,1.0,0.0,0.0,0.0,0.5,0.5,0.5,0.25,-0.17,-0.17,-0.55,127.81,13.9,28.8,1.0,0.75,1.25,0.5,1.25,2.75,0.75,0.25,1.0,1.25,2.0,0.75,1.0,-0.55,-1.23,0.2,194.94,-3.5,-2.1
6.42,1.0,1.0,1.75,0.0,0.5,1.0,0.0,0.5,0.25,0.5,0.5,0.5,0.25,-0.23,-0.23,-0.55,124.03,10.8,23.2,1.0,1.0,1.25,0.5,1.25,3.0,0.75,0.25,1.0,1.75,2.0,0.75,0.75,-0.36,-1.05,0.2,200.79,-2.9,-0.4
6.44,0.75,0.75,1.75,0.0,0.75,1.0,0.0,0.5,0.5,0.5,0.5,0.5,0.25,-0.3,-0.23,-0.55,120.72,9.5,17.6,0.75,0.5,1.0,0.5,1.25,3.0,0.75,0.25,1.0,1.5,2.0,0.75,0.5,-0.23,-0.8,0.27,199.95,-1.9,-3.6
6.46,0.75,0.75,2.0,0.0,1.25,1.0,0.0,0.25,0.5,0.5,0.5,0.5,0.25,-0.3,-0.17,-0.55,127.25,10.3,23.1,0.75,0.75,1.25,0.5,1.0,3.0,0.75,0.25,1.0,1.75,2.0,0.75,0.5,-0.3,-0.48,0.2,198.96,-2.6,-3.0
6.48,0.75,0.75,1.75,0.25,2.5,1.0,0.0,0.25,0.5,0.5,0.5,0.5,0.25,-0.11,-0.17,-0.55,136.72,7.7,27.5,0.75,0.75,0.5,0.5,1.25,3.0,0.75,0.25,1.0,2.0,2.0,0.75,0.5,-0.36,-0.3,0.14,195.93,-0.1,-6.8
6.5,0.75,1.0,2.0,0.25,3.0,1.0,0.0,0.25,0.25,0.5,0.5,0.5,0.25,0.02,-0.23,-0.36,150.52,7.9,32.9,0.75,0.75,1.25,0.5,1.25,3.0,0.75,0.25,1.0,1.5,2.0,0.75,0.75,-0.36,-0.23,0.2,196.62,-2.5,-2.5
6.52,0.75,0.75,1.75,0.25,3.5,0.75,0.0,0.25,0.0,0.5,0.5,0.5,0.25,0.08,-0.23,-0.36,157.98,7.0,33.4,0.75,0.75,1.0,0.75,0.5,3.0,0.75,0.25,1.0,1.75,2.0,0.75,0.5,-0.42,-0.23,0.33,193.73,-2.4,-5.5
6.54,0.75,0.75,1.75,0.5,4.25,0.25,0.0,0.25,0.5,0.5,0.5,0.5,0.25,0.14,-0.23,-0.3,168.87,7.9,32.4,0.75,0.5,0.25,0.75,1.75,3.0,0.75,0.0,1.0,1.75,2.0,0.75,0.5,-0.48,-0.11,0.33,193.72,0.0,-4.4
6.56,0.75,0.25,1.5,0.0,1.75,1.25,0.0,0.0,0.25,0.5,0.5,0.5,0.25,0.2,-0.23,-0.11,157.53,7.0,22.1,0.75,0.5,0.5,0.5,0.0,3.0,0.75,0.5,1.0,1.75,2.0,0.75,0.5,-0.55,-0.05,0.33,184.26,-0.2,-15.7
6.58,0.75,0.5,1.75,0.25,3.5,1.0,0.0,0.25,0.5,0.5,0.5,0.5,0.25,0.27,-0.23,0.02,161.28,6.4,28.6,0.75,0.5,1.0,0.5,1.75,3.0,0.75,0.25,1.0,2.0,2.0,0.75,0.5,-0.61,0.02,0.39,188.98,-1.1,-3.8
6.6,0.75,0.5,1.75,0.25,3.5,1.0,0.0,0.5,0.25,0.5,0.5,0.5,0.25,0.33,-0.17,0.08,162.34,5.7,28.5,0.75,0.5,1.25,0.5,1.25,3.0,1.0,0.75,1.0,1.75,2.0,0.75,0.5,-0.67,0.08,0.45,192.86,-1.9,-4.7
6.62,0.75,0.75,2.0,0.0,4.25,1.0,0.0,0.25,0.25,0.75,0.5,0.5,0.25,0.2,-0.17,0.14,174.16,5.7,31.2,0.75,0.5,1.0,0.5,1.5,3.0,0.75,0.25,1.0,2.0,2.0,0.75,0.5,-0.73,-0.36,0.64,199.04,-1.2,-5.0
6.64,0.75,0.5,1.75,0.0,2.5,1.0,0.0,0.25,0.25,1.0,0.5,0.5,0.25,0.08,-0.23,0.2,170.46,6.0,21.0,0.75,0.5,0.75,0.5,1.25,3.0,0.75,0.0,1.0,2.0,1.75,0.75,0.5,-0.73,-0.92,0.95,196.12,-0.7,-5.7
6.66,0.75,0.75,2.0,0.0,2.5,1.0,0.0,0.5,0.0,0.75,0.5,0.5,0.25,-0.73,0.02,0.83,167.0,6.8,26.6,0.75,0.5,1.0,0.75,1.25,3.0,0.75,0.25,1.0,2.0,2.25,0.75,0.75,-0.61,-1.55,1.02,199.63,-1.5,-8.1
6.68,0.75,1.0,2.0,0.0,3.0,1.0,0.0,0.25,0.0,1.75,0.5,0.5,0.25,-1.86,0.45,1.39,166.56,5.0,22.0,0.75,0.75,1.0,0.5,1.25,3.0,0.75,0.25,1.0,2.0,2.0,0.75,0.5,-0.48,-2.05,1.02,200.19,-1.5,-4.3
6.7,0.5,1.0,1.75,0.0,2.25,0.0,0.0,0.25,0.5,1.0,0.5,0.25,0.25,-4.23,0.83,2.33,155.23,9.2,23.2,1.0,0.5,0.75,0.5,1.25,3.0,0.75,0.5,1.0,2.0,2.25,0.75,0.75,-0.36,-2.17,0.95,202.93,-0.7,-9.3
6.72,0.5,1.25,1.0,1.0,0.5,0.0,0.0,0.25,0.5,0.0,0.5,0.0,0.25,-5.48,0.14,1.39,133.1,15.5,39.7,1.0,0.5,0.75,0.75,1.25,3.0,0.75,0.25,1.0,2.0,2.0,0.75,0.25,-0.17,-1.8,0.83,202.66,-1.7,-2.6
6.74,0.75,1.0,1.75,0.75,0.0,0.0,0.0,0.25,0.25,0.0,0.5,0.25,0.25,-4.23,0.27,1.02,111.33,21.1,36.9,0.5,0.5,0.5,0.5,1.25,3.0,0.75,0.25,1.0,1.75,2.0,0.75,0.25,-0.11,-1.23,0.64,196.4,0.1,-7.4
6.76,0.75,0.75,1.75,0.75,1.25,0.0,0.0,0.25,0.25,0.0,0.25,0.25,0.25,-3.17,0.7,0.14,100.4,16.5,42.1,0.5,0.25,1.0,1.0,1.0,3.0,0.75,0.25,1.0,2.0,2.0,0.75,0.25,-0.11,-0.8,0.58,192.74,-1.5,-6.9
6.78,0.75,0.5,1.75,0.75,1.25,0.0,0.0,0.5,0.25,0.5,0.5,0.25,0.25,-2.73,0.7,-0.05,98.49,13.2,25.8,0.5,0.5,0.75,0.75,1.25,3.0,0.75,0.0,1.0,2.0,2.25,0.75,0.25,-0.17,-0.55,0.64,189.73,-1.1,-6.7
6.8,0.75,1.0,2.0,0.75,0.75,0.0,0.0,0.5,0.25,1.0,0.5,0.25,0.25,-1.86,0.77,-0.11,107.52,13.4,23.4,0.75,0.5,1.25,0.5,1.0,3.0,0.75,0.0,1.0,2.0,2.0,0.75,0.5,-0.3,-0.48,0.58,190.57,-2.4,-5.6
6.82,0.75,0.75,2.0,0.75,0.75,0.25,0.0,0.5,0.25,1.25,0.5,0.25,0.25,-0.92,0.58,-0.05,113.68,11.5,18.4,0.75,0.5,1.0,0.75,0.5,3.0,0.75,0.25,1.0,2.0,2.0,0.75,1.25,-0.42,-0.48,0.58,190.92,-1.0,-14.5
6.84,0.75,0.75,1.75,0.75,0.75,0.5,0.0,0.5,0.25,1.75,0.25,0.5,0.25,-0.3,0.45,0.02,121.7,8.2,11.3,0.5,0.5,0.75,0.75,1.0,3.0,0.75,0.0,1.0,1.75,2.0,0.75,0.25,-0.48,-0.61,0.64,188.44,-1.3,-5.4
6.86,0.75,0.75,1.75,0.75,1.25,0.25,0.0,0.5,0.25,1.25,0.25,0.5,0.25,0.14,0.27,0.2,126.7,9.7,18.4,1.25,0.75,0.75,0.5,1.25,3.0,0.75,0.25,1.0,2.0,2.25,0.75,0.5,-0.55,-0.73,0.58,193.95,-2.1,-3.4
6.88,0.75,0.25,1.75,0.75,0.75,0.25,0.0,0.25,0.0,1.5,0.25,0.5,0.25,0.39,0.02,0.2,124.94,10.5,10.7,1.25,0.75,1.25,1.5,1.25,3.0,0.75,0.25,1.0,1.75,2.0,0.75,0.25,-0.48,-0.8,0.52,202.97,-4.7,7.0
6.9,0.75,0.5,1.75,0.75,0.75,0.25,0.0,0.75,0.0,1.75,0.25,0.5,0.25,0.2,-0.17,-0.05,125.19,8.1,7.9,0.75,0.75,1.0,1.25,1.25,3.0,0.75,0.25,1.0,2.0,2.0,0.75,0.25,-0.42,-0.92,0.58,208.35,-2.6,0.8
6.92,0.75,0.5,1.75,0.75,1.25,0.0,0.0,0.5,0.0,1.75,0.25,0.5,0.25,0.14,-0.23,0.02,126.46,8.9,11.7,0.75,0.75,1.0,0.75,1.25,3.0,0.75,0.25,1.0,2.0,2.0,0.75,0.25,-0.3,-0.98,0.64,209.54,-2.1,-1.2
6.94,0.75,0.5,1.75,0.75,0.75,0.25,0.0,0.5,0.0,1.75,0.5,0.5,0.25,-0.05,-0.3,0.08,131.03,8.9,6.9,1.0,0.75,1.25,0.5,1.25,3.0,0.75,0.25,1.0,2.0,2.0,0.75,0.25,-0.17,-0.86,0.58,209.41,-3.0,0.3
6.96,0.75,0.5,1.75,0.75,1.75,0.75,0.0,0.5,0.0,1.75,0.25,0.5,0.25,-0.23,-0.3,0.14,140.15,5.9,15.8,0.75,0.75,0.5,0.5,1.0,3.0,0.75,0.25,1.0,2.0,2.0,0.75,0.5,-0.11,-0.73,0.52,203.28,-0.2,-8.1
6.98,0.75,0.25,1.75,0.75,1.25,0.75,0.0,0.5,0.0,1.25,0.5,0.5,0.25,-0.67,-0.23,0.33,140.83,7.7,13.5,0.75,0.5,0.75,0.5,1.25,3.0,0.75,0.25,1.0,2.0,2.0,0.75,0.5,-0.05,-0.67,0.52,199.13,-0.6,-7.5
7.0,0.75,0.75,1.75,0.75,1.25,0.75,0.0,0.5,0.0,1.75,0.5,0.5,0.25,-1.05,-0.23,0.39,144.97,6.8,13.5,0.75,0.75,1.0,0.5,1.25,3.0,0.75,0.25,1.0,2.0,2.0,0.75,0.25,0.02,-0.67,0.52,196.89,-1.8,-2.3
7.02,0.75,0.5,1.5,0.0,0.0,0.5,0.0,0.5,0.0,1.75,0.25,0.5,0.25,-1.67,0.02,0.14,129.93,7.2,-3.5,2.0,0.75,1.25,0.75,1.0,3.0,0.75,0.25,1.0,2.0,2.0,0.75,0.25,0.08,-0.67,0.52,204.1,-5.3,6.3
7.04,0.75,0.5,1.75,0.75,0.0,0.75,0.0,0.25,0.0,1.75,0.5,0.5,0.25,-1.98,0.08,0.02,123.9,9.2,4.8,1.0,0.5,1.0,0.5,1.25,3.0,1.0,0.0,1.0,2.0,2.0,0.75,0.0,0.2,-0.73,0.52,202.18,-3.1,0.4
7.06,0.75,0.5,1.5,0.75,1.25,0.75,0.0,0.5,0.0,1.75,0.25,0.5,0.25,-1.92,0.02,0.14,122.88,5.6,12.0,0.75,0.75,0.75,0.75,1.25,3.0,0.75,0.25,1.0,2.0,2.0,0.75,0.0,0.33,-0.8,0.52,201.27,-1.7,-0.3
7.08,0.75,0.75,2.0,0.75,1.25,0.25,0.0,0.5,0.0,1.75,0.25,0.5,0.25,-1.67,-0.05,0.2,130.27,9.0,16.1,1.0,0.75,1.0,0.5,1.25,2.75,0.75,0.0,0.75,2.0,2.25,0.75,0.25,0.39,-0.92,0.58,197.39,-3.1,-1.2
7.1,0.75,0.75,1.75,0.75,0.5,0.25,0.0,0.75,0.0,1.75,0.5,0.5,0.25,-1.42,-0.11,0.2,133.33,8.7,6.8,1.0,0.5,0.5,0.5,1.0,3.0,0.75,0.25,0.75,1.5,2.25,0.75,0.25,0.39,-0.92,0.52,189.09,-1.5,-4.2
7.12,0.75,1.0,1.75,0.75,1.25,0.5,0.0,0.5,0.0,1.75,0.5,0.5,0.25,-1.17,-0.11,0.2,141.64,7.6,15.2,0.75,0.75,0.75,0.5,1.0,3.0,1.0,0.25,1.0,2.0,2.0,0.75,0.25,0.39,-0.92,0.52,186.95,-1.5,-4.5
7.14,0.75,0.75,1.75,0.75,0.75,0.25,0.0,0.5,0.0,1.75,0.5,0.5,0.25,-0.92,-0.11,0.14,139.35,9.0,9.7,0.75,1.0,1.0,0.75,0.5,3.0,1.0,0.25,0.75,1.75,2.25,0.75,0.25,0.39,-0.86,0.45,187.7,-3.2,-1.9
7.16,0.75,0.5,1.5,0.75,1.25,0.25,0.0,0.75,0.0,1.75,0.5,0.5,0.25,-0.8,-0.05,0.14,138.74,6.6,7.1,0.75,0.75,0.75,0.5,0.5,3.0,0.75,0.0,1.0,2.0,2.0,0.75,0.75,0.27,-0.73,0.45,187.07,-1.1,-10.9
7.18,0.75,0.75,1.75,0.75,0.75,0.0,0.0,0.5,0.0,1.5,0.0,0.75,0.0,-0.67,-0.05,0.14,131.46,11.5,17.2,1.0,0.5,0.5,0.5,0.5,3.0,1.0,0.25,1.0,2.0,2.0,0.75,0.5,0.27,-0.67,0.39,184.49,-1.0,-10.8
7.2,0.75,0.75,1.5,0.75,0.75,0.5,0.0,0.0,0.0,1.75,0.25,0.5,0.25,-0.67,-0.11,0.14,127.06,8.7,14.4,0.75,1.0,1.0,0.75,0.5,3.0,1.0,0.25,1.0,2.0,2.0,0.75,0.5,0.27,-0.67,0.39,188.19,-2.6,-4.6
7.22,0.75,0.75,2.0,0.75,0.75,1.0,0.0,0.5,0.0,1.75,0.5,0.5,0.25,-0.67,-0.11,0.14,132.06,7.5,12.8,1.25,0.5,1.0,0.75,0.25,3.0,1.0,0.0,0.75,2.0,2.0,0.75,0.5,0.2,-0.73,0.39,187.07,-3.6,-5.0
7.24,0.75,0.75,1.75,0.75,1.25,1.0,0.0,0.75,0.0,1.75,0.5,0.5,0.25,-0.73,-0.17,0.14,141.41,5.5,12.6,0.75,0.75,1.25,0.75,0.5,3.0,1.0,0.0,0.75,1.75,2.0,0.75,0.5,0.27,-0.73,0.39,187.51,-3.6,-2.7
7.26,0.75,0.75,1.75,0.75,1.25,1.0,0.0,0.75,0.0,1.75,0.5,0.5,0.25,-0.86,-0.11,0.14,151.48,5.5,12.6,0.75,0.75,0.5,0.75,0.5,3.0,0.75,0.25,0.75,2.0,2.0,0.75,1.0,0.33,-0.8,0.39,186.78,0.0,-12.9
7.28,0.75,0.5,2.0,0.75,1.25,1.0,0.0,0.75,0.0,1.75,0.25,0.5,0.25,-0.92,-0.11,0.14,154.24,6.0,13.8,0.75,0.75,1.0,0.75,1.0,3.0,1.0,0.0,0.75,2.0,2.25,0.75,0.25,0.33,-0.86,0.45,190.98,-2.8,-2.1
7.3,0.75,1.0,1.75,0.75,1.25,1.0,0.0,0.75,0.0,1.75,0.5,0.5,0.25,-0.98,-0.17,0.14,157.56,5.7,14.8,1.0,0.5,0.5,0.75,1.0,3.0,0.75,0.0,0.75,2.0,2.0,0.75,0.5,0.33,-0.86,0.52,189.76,-1.0,-5.8
7.32,0.75,0.5,1.75,0.75,1.75,1.0,0.0,0.5,0.0,1.75,0.5,0.5,0.25,-1.05,-0.17,0.14,158.51,5.4,14.0,1.25,0.5,0.75,0.75,1.25,3.0,1.0,0.0,1.0,2.0,2.25,0.75,0.75,0.27,-0.86,0.52,196.92,-2.4,-5.1
7.34,0.75,0.75,1.75,0.75,1.25,1.0,0.0,0.25,0.0,1.75,0.0,0.5,0.25,-1.05,-0.17,0.14,155.3,6.4,20.1,1.0,0.75,0.75,1.25,1.25,3.0,0.75,0.0,0.75,2.0,2.0,0.75,0.5,0.2,-0.8,0.45,201.8,-2.4,0.7
7.36,0.75,0.75,1.75,0.75,0.75,0.25,0.0,0.0,0.0,1.75,0.0,0.5,0.0,-1.05,-0.23,0.14,142.42,11.5,22.6,1.0,0.75,1.0,0.5,1.25,3.0,1.0,0.0,0.75,2.0,2.25,0.75,0.5,0.2,-0.73,0.52,204.81,-2.6,-2.4
7.38,0.75,0.75,1.75,0.75,1.75,0.5,0.0,0.5,0.0,1.75,0.25,0.5,0.25,-1.05,-0.23,0.14,142.75,6.8,17.5,0.75,0.75,0.75,0.75,1.25,3.0,0.75,0.25,0.75,1.75,2.0,0.75,0.5,0.2,-0.73,0.45,203.25,-1.2,-2.4
7.4,0.75,0.5,1.75,0.75,0.75,0.5,0.0,0.5,0.0,1.75,0.25,0.5,0.25,-1.05,-0.23,0.14,135.83,8.0,10.1,1.0,0.5,1.25,0.5,1.0,3.0,1.0,0.25,0.75,2.0,2.25,0.75,1.0,0.14,-0.73,0.45,205.34,-2.3,-8.5
7.42,0.75,0.5,1.5,0.75,1.25,0.25,0.0,0.5,0.0,1.75,0.5,0.5,0.25,-0.98,-0.17,0.08,135.11,7.3,8.4,1.25,0.5,1.0,0.75,1.25,3.0,1.0,0.0,0.75,2.0,2.0,0.75,0.5,0.14,-0.73,0.52,204.8,-3.1,-0.2
7.44,0.75,0.75,1.75,0.75,1.75,0.25,0.0,0.25,0.0,1.75,0.25,0.5,0.25,-0.92,-0.17,0.08,135.22,8.2,18.6,0.5,0.5,0.75,0.5,1.25,3.0,0.75,0.0,0.75,2.0,2.0,0.75,0.5,0.14,-0.73,0.52,198.69,-0.1,-8.2
7.46,0.75,0.75,1.75,0.75,1.75,0.25,0.0,0.5,0.0,1.75,0.5,0.5,0.25,-0.92,-0.11,0.08,139.43,7.6,14.8,1.75,0.5,0.75,0.5,1.25,3.0,1.0,0.0,0.75,2.0,2.5,0.75,0.5,0.14,-0.8,0.52,201.5,-3.5,-1.7
7.48,0.75,0.75,1.75,0.75,1.75,0.25,0.0,0.5,0.0,1.75,0.25,0.5,0.25,-0.86,-0.11,0.08,142.07,7.5,17.1,0.75,0.5,0.75,0.75,1.0,3.0,0.75,0.0,0.75,2.0,2.0,0.75,0.5,0.14,-0.86,0.52,196.17,-1.1,-6.4
7.5,0.75,1.0,1.25,0.75,0.75,0.5,0.0,0.25,0.0,1.25,0.0,0.5,0.25,-0.86,-0.11,0.08,134.7,8.6,22.9,0.75,0.5,0.5,0.75,1.25,2.25,1.0,0.0,0.5,0.25,2.0,0.75,0.5,0.14,-0.8,0.52,182.49,-4.6,3.5
7.52,0.75,0.75,1.75,0.75,1.25,0.75,0.0,1.0,0.0,1.75,0.0,0.5,0.25,-0.86,-0.11,0.08,137.73,5.3,15.2,1.25,0.75,1.0,0.75,1.0,3.0,0.75,0.0,0.75,2.0,2.25,0.75,0.5,0.14,-0.8,0.52,184.29,-3.3,-1.0
7.54,0.75,1.0,1.75,0.75,1.25,0.25,0.0,0.5,0.0,1.75,0.25,0.5,0.25,-0.86,-0.17,0.14,137.2,8.3,17.1,1.0,0.5,0.5,0.75,1.0,3.0,1.0,0.0,0.75,2.0,2.0,0.0,0.5,0.14,-0.73,0.52,180.86,-0.8,0.6
7.56,0.75,0.75,1.75,0.75,0.75,0.5,0.0,0.75,0.0,1.75,0.5,0.5,0.25,-0.86,-0.17,0.14,140.07,7.5,9.0,1.5,0.25,1.0,0.5,1.0,3.0,0.75,0.0,0.75,1.75,2.0,0.75,0.5,0.2,-0.73,0.45,183.78,-3.4,-1.6
7.58,0.75,0.75,1.25,0.75,1.75,0.25,0.0,0.75,0.0,1.75,0.25,0.5,0.25,-0.92,-0.17,0.08,142.05,5.1,13.2,0.75,0.75,1.25,0.75,1.25,3.0,1.0,0.0,0.75,2.0,2.0,0.75,0.5,0.27,-0.67,0.39,189.65,-2.8,-0.5
7.6,0.75,0.5,1.75,0.75,1.25,0.25,0.0,0.5,0.0,1.75,0.5,0.5,0.25,-0.92,-0.23,0.02,142.05,8.1,9.9,1.0,0.5,1.25,0.75,1.25,3.0,1.0,0.0,0.75,1.75,2.0,0.75,1.0,0.27,-0.67,0.39,198.1,-2.9,-3.3
7.62,0.75,1.0,1.75,0.75,1.75,0.5,0.0,0.25,0.0,1.75,0.5,0.5,0.25,-0.98,-0.3,0.02,144.79,7.6,18.8,0.25,0.0,0.5,0.5,1.25,1.75,0.75,0.0,0.5,0.25,2.25,0.0,0.5,0.33,-0.67,0.39,174.64,-3.0,-3.7
7.64,0.75,0.5,2.0,0.75,1.75,0.5,0.0,0.5,0.0,1.75,0.5,0.5,0.25,-0.98,-0.3,0.08,149.06,7.5,14.3,1.0,0.5,0.5,0.75,1.25,2.75,1.0,0.25,0.75,1.75,2.0,0.75,0.25,0.39,-0.73,0.39,173.25,-1.9,-2.1
7.66,0.75,0.75,1.25,0.75,2.25,0.25,0.0,0.5,0.0,1.25,0.0,0.75,0.25,-0.98,-0.3,0.08,148.95,6.3,21.0,1.0,0.0,0.5,1.0,1.25,2.75,1.0,0.0,0.75,2.0,2.0,0.75,0.25,0.39,-0.73,0.45,170.27,-1.8,-5.7
7.68,0.75,0.75,1.5,0.75,1.25,0.25,0.0,0.5,0.0,1.75,0.0,0.5,0.25,-0.98,-0.23,0.08,143.03,7.2,15.9,0.5,0.0,1.5,0.5,1.0,1.75,1.0,0.0,0.5,2.0,2.0,0.75,0.0,0.45,-0.73,0.45,168.32,-5.5,-8.7
7.7,0.75,0.75,1.75,0.75,1.25,0.25,0.0,0.5,0.0,1.75,0.25,0.5,0.25,-0.98,-0.17,0.14,139.97,8.2,14.8,1.0,0.25,0.5,0.5,1.25,2.0,1.0,0.0,0.75,1.75,2.0,0.75,0.0,0.45,-0.73,0.39,164.03,-3.6,-4.9
7.72,0.75,0.75,1.75,0.75,1.25,0.5,0.0,0.25,0.0,1.75,0.5,0.5,0.25,-0.92,-0.17,0.14,139.07,8.2,14.3,0.0,0.5,0.5,1.25,1.25,3.0,1.0,0.0,0.75,1.5,2.0,0.0,0.5,0.39,-0.73,0.39,166.96,0.5,0.0
7.74,0.75,1.0,1.5,0.75,1.25,0.75,0.0,0.5,0.0,1.75,0.5,0.5,0.25,-0.98,-0.17,0.14,142.63,6.1,14.5,0.75,0.5,0.0,0.75,1.0,3.0,1.5,0.0,0.75,2.0,2.25,0.75,0.5,0.39,-0.73,0.39,170.96,0.0,-10.8
7.76,0.75,0.5,1.5,0.75,1.75,0.5,0.0,0.5,0.0,1.75,0.25,0.5,0.25,-0.98,-0.17,0.08,142.55,5.7,14.1,0.75,0.5,1.0,0.75,1.25,3.0,0.75,0.0,0.75,2.0,2.0,0.75,1.25,0.45,-0.73,0.39,180.28,-0.9,-9.5
7.78,0.75,0.75,1.75,0.75,1.75,0.75,0.0,0.5,0.0,1.75,0.25,0.5,0.25,-0.98,-0.17,0.08,147.83,6.1,17.9,0.5,0.5,1.0,0.75,1.25,2.75,1.0,0.0,0.75,2.0,2.25,0.75,0.5,0.45,-0.86,0.33,189.6,-2.0,-7.2
7.8,0.75,0.5,1.5,0.75,2.25,0.75,0.0,0.75,0.0,1.75,0.5,0.5,0.25,-0.98,-0.17,0.08,153.05,4.2,13.4,1.25,0.75,1.0,0.75,1.25,3.0,1.0,0.0,0.5,2.0,2.25,0.75,0.5,0.52,-1.05,0.14,198.94,-3.2,0.9
7.82,0.75,0.5,1.5,0.75,1.75,0.25,0.0,0.75,0.0,1.5,0.0,0.0,0.0,-0.98,-0.17,0.08,146.6,6.8,28.9,1.25,0.25,1.0,0.5,1.0,2.75,1.25,0.0,0.5,2.0,2.0,0.75,1.0,0.64,-1.23,0.08,199.76,-2.7,-8.2
7.84,0.75,0.75,1.75,0.75,1.75,0.25,0.0,0.25,0.0,1.75,0.5,0.5,0.25,-0.92,-0.23,0.08,145.91,8.2,16.2,0.5,0.0,1.0,0.25,1.0,1.75,1.25,0.0,0.5,0.25,1.5,0.0,0.0,0.58,-1.23,0.14,175.6,-7.5,15.0
7.86,0.75,1.0,1.75,0.75,1.75,0.5,0.0,0.25,0.0,1.75,0.5,0.5,0.25,-0.92,-0.23,0.08,146.37,7.6,18.8,0.75,0.5,0.0,0.75,0.25,3.0,0.75,0.0,0.5,1.75,1.0,0.75,0.0,0.45,-1.17,0.33,159.03,1.4,-2.0
7.88,0.5,0.5,1.75,0.75,1.75,1.0,0.0,0.25,0.0,1.75,0.5,0.5,0.25,-0.86,-0.23,0.02,149.02,5.2,13.4,1.0,0.5,1.0,0.5,1.25,3.0,1.0,0.0,0.75,2.0,1.75,0.75,1.0,0.2,-0.8,0.45,160.47,-1.5,-5.7
7.9,0.75,0.75,1.75,0.75,1.25,1.0,0.0,0.75,0.0,1.75,0.25,0.5,0.25,-0.8,-0.23,0.02,151.58,5.4,14.8,1.25,0.5,0.5,0.75,1.0,3.0,1.0,0.0,0.75,2.0,2.0,0.75,0.75,0.2,-0.42,0.64,173.44,-1.6,-5.7
7.92,0.75,0.75,1.75,0.75,1.75,0.5,0.0,0.25,0.0,1.75,0.25,0.5,0.25,-0.8,-0.23,0.02,151.91,7.4,19.0,0.0,0.25,0.75,0.5,1.0,3.0,1.5,0.5,0.75,2.0,2.25,0.75,0.5,0.08,-0.17,0.64,183.05,0.8,-17.0
7.94,0.75,0.75,1.5,0.75,2.25,0.5,0.0,0.5,0.0,1.75,0.5,0.5,0.5,-0.73,-0.17,0.08,154.87,5.1,13.2,1.0,0.5,0.75,0.75,1.25,3.0,1.0,0.0,0.75,1.75,2.0,0.5,0.75,0.02,-0.05,0.58,190.46,-1.8,-1.8
7.96,0.75,1.0,1.5,0.75,1.25,0.75,0.0,0.5,0.0,1.75,0.5,0.5,0.25,-0.8,-0.23,0.08,152.84,6.1,14.5,0.75,0.5,0.0,0.5,1.25,2.75,1.0,0.0,0.75,2.0,1.0,0.75,0.5,0.02,0.08,0.52,181.99,1.8,-5.5
7.98,0.75,1.0,1.25,0.75,1.75,1.0,0.0,0.5,0.0,1.25,0.5,0.25,0.25,-0.86,-0.23,0.2,152.05,5.0,24.0,0.5,0.0,0.0,0.5,0.0,1.75,0.75,0.0,0.5,0.25,1.0,0.0,0.5,0.08,0.14,0.45,144.51,-0.8,-4.8
8.0,0.75,0.5,1.75,0.75,2.25,0.75,0.0,0.25,0.0,1.75,0.0,0.5,0.25,-0.98,-0.23,0.2,151.49,5.8,21.6,1.25,0.0,0.75,0.5,1.0,3.0,0.75,0.0,0.5,2.0,2.0,0.75,1.0,0.14,0.14,0.39,146.49,-0.8,-11.6
8.02,0.75,0.75,1.0,0.75,1.75,1.0,0.0,0.25,0.0,1.75,0.5,0.5,0.25,-1.05,-0.3,0.27,149.1,3.5,13.9,0.0,0.5,1.0,0.5,1.25,2.75,1.0,0.0,0.75,2.0,2.25,0.75,0.75,0.2,0.08,0.52,153.99,-0.2,-14.4
8.04,0.75,0.5,1.75,0.75,1.25,0.25,0.0,0.5,0.0,1.75,0.5,0.5,0.25,-1.11,-0.3,0.27,144.72,8.1,9.9,0.75,0.5,0.75,0.75,1.0,3.0,1.25,0.0,0.5,2.0,2.0,0.75,1.0,0.2,0.02,0.64,173.71,-0.9,-9.1
8.06,0.75,0.75,1.5,0.75,0.75,1.0,0.0,0.25,0.0,1.75,0.5,0.5,0.25,-1.17,-0.3,0.27,140.98,6.4,11.5,1.25,0.5,1.0,0.75,1.0,3.0,1.0,0.0,0.5,2.0,2.0,0.75,0.5,0.27,-0.11,0.83,188.31,-3.0,-0.7
8.08,0.75,0.75,1.5,0.75,1.25,1.0,0.0,0.5,0.0,1.75,0.5,0.5,0.25,-1.11,-0.23,0.2,140.25,5.2,12.7,0.5,0.5,0.75,0.75,1.0,3.0,1.0,0.0,0.5,2.0,2.0,0.75,0.75,0.33,-0.23,0.83,196.36,-0.3,-9.4
8.1,0.75,0.75,1.25,0.75,1.25,1.0,0.0,0.25,0.0,1.75,0.25,0.5,0.25,-0.98,-0.17,0.14,138.01,4.7,15.1,1.0,0.25,0.5,0.5,1.0,3.0,1.25,0.0,0.75,2.0,2.25,0.75,1.0,0.39,-0.48,0.77,193.07,-0.6,-13.7
8.12,0.75,1.0,1.75,0.75,1.25,1.0,0.0,0.5,0.0,1.75,0.5,0.5,0.25,-0.92,-0.17,0.14,143.97,6.2,16.1,0.75,0.5,1.0,0.5,1.25,3.0,1.25,0.0,0.5,2.0,2.0,0.75,0.75,0.45,-0.61,0.95,191.44,-1.5,-5.8
8.14,0.75,1.0,1.5,0.75,0.75,1.0,0.0,0.5,0.0,1.75,0.25,0.75,0.5,-0.8,-0.17,0.14,144.98,5.4,8.3,0.75,0.5,1.0,0.5,1.25,3.0,1.0,0.25,0.5,1.75,2.5,0.75,0.75,0.58,-0.67,1.08,196.9,-1.5,-7.9
8.16,1.0,0.75,1.5,0.75,1.25,1.0,0.0,0.25,0.0,1.75,0.0,0.5,0.25,-0.73,-0.17,0.14,145.38,6.3,20.9,0.75,0.5,0.75,0.75,1.0,2.75,1.0,0.25,0.75,2.0,2.25,0.75,0.75,0.77,-0.61,1.2,199.38,-1.4,-10.5
8.18,0.75,0.75,1.75,0.75,1.75,1.0,0.0,0.25,0.0,1.75,0.5,0.5,0.25,-0.73,-0.17,0.2,148.17,6.1,17.5,0.75,0.5,1.0,0.75,1.0,3.0,1.0,0.0,0.5,1.75,2.0,0.75,0.5,0.95,-0.48,1.14,198.59,-2.3,-2.8
8.2,0.75,0.5,1.5,0.75,1.25,1.0,0.0,0.25,0.0,1.75,0.5,0.5,0.25,-0.73,-0.17,0.27,146.92,5.6,11.7,0.5,0.25,1.0,0.5,1.25,3.0,1.0,0.0,0.5,1.75,2.0,0.75,0.75,0.83,-0.48,1.08,195.93,-0.7,-8.8
8.22,0.75,0.75,1.25,0.75,1.75,0.75,0.0,0.25,0.0,1.75,0.5,0.5,0.25,-0.73,-0.17,0.2,146.9,5.1,14.7,0.5,0.25,1.0,0.5,1.0,3.0,1.25,0.0,0.5,2.0,2.0,0.75,0.75,0.77,-0.42,0.95,191.67,-0.8,-11.2
8.24,0.75,0.75,1.5,0.75,1.25,0.5,0.0,0.25,0.0,1.75,0.0,0.5,0.25,-0.86,-0.11,0.2,140.97,7.1,18.1,0.75,0.5,0.75,0.75,1.0,3.0,1.0,0.0,0.5,2.0,2.0,0.75,0.5,0.83,-0.23,0.7,184.27,-1.2,-5.4
8.26,0.75,0.75,1.5,0.75,1.75,0.75,0.0,0.5,0.0,1.75,0.5,0.5,0.25,-0.92,-0.11,0.2,144.73,5.4,14.5,1.0,0.5,1.25,0.75,1.0,3.0,1.0,0.0,0.5,2.0,2.0,0.75,0.75,0.64,-0.17,0.7,188.55,-2.8,-3.2
8.28,0.5,0.75,1.5,0.75,1.75,1.0,0.0,0.5,0.0,1.75,0.5,0.5,0.25,-0.92,-0.17,0.2,146.85,4.0,13.1,1.0,0.5,1.0,0.75,1.0,2.75,1.25,0.0,0.5,2.0,2.0,0.75,0.5,0.52,-0.17,0.7,190.32,-3.2,-2.7
8.3,0.75,1.0,1.75,0.75,1.25,1.0,0.0,0.25,0.0,1.5,0.5,0.75,0.25,-0.98,-0.17,0.27,150.75,7.4,16.6,0.0,0.5,1.0,0.5,1.25,3.0,1.0,0.0,0.5,1.75,2.0,0.75,0.5,0.39,-0.17,0.77,187.09,0.0,-8.5
8.32,0.75,0.75,1.25,0.75,1.25,1.0,0.0,0.25,0.0,1.75,0.0,0.5,0.25,-0.86,-0.11,0.33,146.05,4.5,17.7,0.5,0.5,1.25,0.5,1.25,3.0,1.0,0.0,0.5,2.0,2.0,0.75,0.5,0.33,-0.11,0.7,187.07,-1.6,-4.6
8.34,0.75,0.75,1.25,0.75,1.25,1.0,0.0,0.0,0.0,1.75,0.25,0.5,0.25,-0.8,-0.11,0.39,141.63,5.3,16.7,0.75,0.5,1.0,0.75,1.25,3.0,1.0,0.0,0.5,2.0,2.0,0.75,0.5,0.33,-0.05,0.7,187.64,-1.8,-2.9
8.36,0.75,0.75,1.25,0.75,1.75,1.0,0.0,0.25,0.0,1.75,0.25,0.5,0.25,-0.67,-0.17,0.39,139.82,4.2,17.5,1.0,0.5,0.5,0.5,1.0,2.75,1.0,0.0,0.5,1.75,2.0,0.75,1.25,0.33,-0.11,0.83,186.78,-0.6,-11.8
8.38,0.75,0.75,1.5,0.75,1.75,1.0,0.0,0.25,0.0,1.75,0.25,0.5,0.25,-0.67,-0.17,0.39,142.84,5.1,18.6,0.75,0.5,0.5,0.75,1.0,3.0,1.0,0.0,0.5,2.0,2.0,0.75,0.5,0.52,-0.11,0.77,185.41,-0.4,-6.8
8.4,0.75,0.75,1.25,0.75,2.5,0.5,0.0,0.25,0.0,1.75,0.5,0.5,0.25,-0.8,-0.23,0.52,148.31,5.0,17.6,1.25,0.5,0.75,0.5,0.5,3.0,1.0,0.0,0.5,1.75,2.25,0.75,0.5,0.52,-0.05,0.7,183.79,-2.8,-5.6
8.42,0.75,1.0,1.5,0.75,1.75,0.0,0.0,0.25,0.0,1.75,0.25,0.5,0.25,-0.92,-0.3,0.58,147.5,8.2,19.3,0.25,0.0,1.0,0.5,1.0,3.0,1.0,0.0,0.5,1.75,2.0,0.75,0.5,0.58,-0.05,0.58,177.53,-0.2,-12.6
8.44,0.75,0.5,1.25,0.75,1.75,0.75,0.0,0.0,0.0,1.75,0.0,0.5,0.25,-1.05,-0.36,0.58,143.65,5.1,18.8,0.75,0.5,1.0,0.75,1.25,3.0,0.75,0.0,0.5,2.0,2.0,0.75,0.5,0.64,-0.05,0.64,180.19,-1.5,-3.2
8.46,0.75,0.75,1.25,0.75,2.5,0.0,0.0,0.0,0.0,1.75,0.25,0.75,0.25,-1.17,-0.36,0.45,141.65,6.9,17.3,0.75,0.5,1.0,0.75,1.25,2.75,0.75,0.0,0.5,2.0,2.0,0.75,0.5,0.58,0.08,0.64,182.44,-2.0,-3.8
8.48,0.75,0.75,1.75,0.75,3.5,0.25,0.0,0.25,0.0,1.75,0.25,0.5,0.25,-1.17,-0.23,0.45,151.65,6.1,24.8,1.25,0.5,1.0,0.75,1.0,3.0,1.0,0.0,0.5,2.0,2.0,0.75,0.5,0.33,0.14,0.64,188.76,-3.0,-0.7
8.5,0.75,0.75,1.0,0.75,3.5,0.25,0.0,0.25,0.0,1.0,0.5,0.5,0.25,-1.17,-0.17,0.27,155.48,5.4,27.1,1.0,0.5,0.25,0.75,1.25,2.75,0.75,0.0,0.5,2.0,2.0,0.75,1.0,0.2,0.14,0.83,189.19,0.1,-10.0
8.52,0.75,0.75,1.0,0.75,2.25,0.25,0.0,0.0,0.0,1.0,0.5,0.5,0.25,-1.05,-0.11,0.27,151.56,7.6,24.5,0.5,0.5,1.0,1.25,1.25,2.75,0.75,0.0,0.5,1.75,2.0,0.75,0.5,0.27,-0.11,0.89,191.44,-2.3,-1.8
8.54,0.75,0.5,1.0,0.75,3.5,0.0,0.0,0.0,0.0,1.75,0.25,0.5,0.25,-0.92,-0.05,0.27,150.99,4.7,21.4,0.75,0.5,0.75,0.75,0.5,2.75,0.75,0.0,0.5,2.0,2.0,0.75,0.5,0.39,-0.11,1.08,185.04,-1.6,-9.4
8.56,0.75,0.75,1.0,0.75,3.75,0.5,0.0,0.0,0.0,1.75,0.25,0.5,0.25,-0.86,-0.05,0.39,155.23,3.5,24.7,1.25,0.25,0.5,0.0,1.0,2.75,0.75,0.0,0.75,1.75,2.0,0.0,0.0,0.58,-0.05,0.95,173.27,-1.3,2.3
8.58,0.75,0.5,1.0,0.75,3.75,0.0,0.0,0.25,0.0,0.75,0.0,0.5,0.25,-0.67,-0.05,0.45,152.73,5.9,34.0,1.0,0.5,0.5,0.75,0.25,3.0,0.75,0.0,0.5,2.0,2.0,0.75,0.5,0.64,-0.05,0.83,168.57,-1.1,-9.5
8.6,0.75,0.75,1.0,0.75,3.5,0.25,0.0,0.25,0.0,0.5,0.0,0.5,0.25,-0.67,0.02,0.45,150.72,6.3,38.3,0.75,0.5,0.5,0.75,1.0,2.75,0.75,0.0,0.5,1.75,2.0,0.75,0.5,0.52,0.2,0.64,167.9,-0.9,-6.5
8.62,0.5,0.5,1.0,0.75,3.75,0.0,0.0,0.0,0.0,1.0,0.25,1.25,0.25,-0.73,-0.23,0.64,150.39,5.6,18.0,1.25,0.5,0.5,0.75,1.0,3.0,0.75,0.0,0.5,2.0,2.0,0.75,0.5,0.52,0.2,0.64,174.35,-1.4,-3.3
8.64,0.75,0.5,1.0,0.75,3.5,0.25,0.0,0.25,0.0,0.5,0.0,0.5,0.25,-0.73,-0.11,0.64,146.43,6.1,36.5,0.75,0.5,0.25,0.5,1.0,3.0,0.75,0.0,0.5,2.0,1.75,0.75,0.5,0.33,0.14,0.52,174.21,1.2,-8.6
8.66,0.75,0.75,1.0,0.75,3.5,1.0,0.0,0.0,0.0,1.0,0.0,0.5,0.25,-0.73,-0.05,0.64,149.48,3.7,34.2,0.75,0.5,0.5,0.5,0.5,3.0,0.5,0.0,0.5,2.0,1.75,0.75,0.25,-0.05,0.08,0.58,170.71,0.2,-8.3
