time,left pressure 0[N/cm虏],left pressure 1[N/cm虏],left pressure 2[N/cm虏],left pressure 3[N/cm虏],left pressure 4[N/cm虏],left pressure 5[N/cm虏],left pressure 6[N/cm虏],left pressure 7[N/cm虏],left pressure 8[N/cm虏],left pressure 9[N/cm虏],left pressure 10[N/cm虏],left pressure 11[N/cm虏],left pressure 12[N/cm虏],left acceleration X[g],left acceleration Y[g],left acceleration Z[g],left total force[N],left center of pressure X[mm],left center of pressure Y[mm],right pressure 0[N/cm虏],right pressure 1[N/cm虏],right pressure 2[N/cm虏],right pressure 3[N/cm虏],right pressure 4[N/cm虏],right pressure 5[N/cm虏],right pressure 6[N/cm虏],right pressure 7[N/cm虏],right pressure 8[N/cm虏],right pressure 9[N/cm虏],right pressure 10[N/cm虏],right pressure 11[N/cm虏],right pressure 12[N/cm虏],right acceleration X[g],right acceleration Y[g],right acceleration Z[g],right total force[N],right center of pressure X[mm],right center of pressure Y[mm]
0.02,2.25,1.75,1.0,3.5,2.5,2.25,0.0,1.5,1.5,2.0,1.0,1.75,2.25,0.27,0.89,0.64,307.99,4.0,4.3,3.75,0.25,2.75,3.0,1.5,0.0,0.0,1.5,1.5,2.25,0.25,1.75,0.0,0.45,0.33,1.64,175.17,-13.8,17.1
0.04,2.5,1.75,0.75,2.5,3.0,2.25,0.0,1.75,1.5,1.25,1.25,1.5,2.75,0.33,1.14,0.58,305.55,3.2,3.3,2.5,0.5,4.25,1.75,3.0,0.75,0.0,2.0,1.5,1.75,2.75,1.5,0.25,0.64,-0.11,1.58,152.32,-11.1,8.8
0.06,2.25,1.75,1.0,3.5,2.5,2.0,0.0,1.75,1.75,2.0,1.25,2.0,2.75,0.02,2.89,0.2,309.34,3.9,-1.1,2.25,0.5,2.75,1.5,3.0,0.75,0.0,2.0,1.5,1.5,2.75,1.75,0.0,1.08,-0.86,1.7,146.46,-9.3,4.3
0.08,2.25,1.75,1.0,2.25,2.25,1.75,0.0,1.0,1.5,2.25,2.25,6.0,5.5,-0.48,-0.23,0.89,340.04,3.1,-30.8,0.75,0.5,1.25,1.0,1.75,0.0,0.0,2.0,1.25,0.75,1.5,0.5,0.0,0.77,-0.3,1.45,117.14,-7.0,1.8
0.1,2.0,1.75,1.0,2.5,2.25,2.5,0.0,1.25,2.25,5.25,3.5,7.5,7.5,-0.48,0.2,2.33,416.44,0.7,-41.9,0.75,0.0,1.75,1.75,1.25,0.0,0.0,2.0,1.25,0.5,2.75,0.5,0.75,0.45,-0.17,0.7,91.35,-8.6,-10.5
0.12,1.75,1.0,1.0,1.25,1.25,3.0,0.0,3.0,2.75,7.0,5.5,8.25,7.5,-0.05,0.45,2.08,526.72,-0.9,-53.8,1.0,0.75,1.75,2.25,0.5,0.5,0.0,1.75,1.25,1.75,0.75,1.75,0.0,0.39,-0.17,0.52,79.87,-8.5,-2.2
0.14,2.25,1.75,1.0,1.0,2.5,3.0,0.0,4.5,2.75,6.75,6.25,7.5,8.75,-0.05,0.14,1.08,653.6,-1.2,-47.6,2.0,1.5,2.0,1.5,1.5,0.75,0.25,2.25,1.5,2.0,2.0,1.5,0.75,0.39,-0.23,0.7,127.46,-7.4,-0.8
0.16,2.25,1.5,0.0,1.75,0.5,2.25,0.0,5.0,2.25,6.75,5.5,7.5,7.75,-0.05,0.02,0.95,711.35,-1.7,-54.0,2.0,0.75,2.75,0.5,3.25,0.0,0.0,2.0,1.0,0.25,2.25,0.5,0.75,0.33,-0.23,0.95,165.14,-10.4,13.7
0.18,1.25,2.75,0.0,3.75,0.75,3.75,0.0,4.75,3.0,7.0,5.5,8.25,7.5,-0.11,0.08,0.95,753.71,-1.4,-45.3,2.0,1.0,3.25,1.5,3.0,0.0,0.0,2.0,1.0,0.25,2.0,0.5,0.75,0.27,-0.11,0.95,209.73,-11.9,19.4
0.2,0.5,2.0,0.0,3.75,2.25,4.0,0.0,5.75,3.5,8.0,6.75,9.0,9.25,-0.11,0.08,0.95,824.46,-2.6,-49.7,0.5,0.0,2.0,1.75,0.25,1.0,0.0,2.0,1.25,1.5,0.75,0.75,0.25,0.2,0.02,0.83,204.62,-6.0,-6.4
0.22,0.25,1.25,0.0,3.0,2.5,5.0,0.0,5.25,4.0,8.25,7.25,9.0,9.25,-0.11,0.08,0.95,897.99,-3.3,-52.3,0.5,0.0,2.0,1.0,1.25,0.25,0.0,2.0,1.5,1.5,2.0,1.5,0.5,0.2,0.14,0.83,200.16,-6.4,-20.9
0.24,1.25,2.0,0.0,4.5,3.5,5.25,0.0,5.75,4.25,8.75,7.75,9.0,9.5,-0.05,0.08,0.95,991.26,-2.1,-43.5,0.5,0.0,2.75,2.0,3.0,0.75,0.0,2.0,1.25,1.75,2.75,1.25,0.75,0.2,0.2,1.02,210.5,-6.0,-6.7
0.26,0.5,2.5,1.0,3.5,6.0,5.5,0.0,6.75,4.25,7.75,8.0,9.0,9.5,-0.05,0.08,0.95,1069.69,-2.2,-38.8,2.0,0.5,2.75,1.25,3.0,1.25,0.0,2.0,1.25,1.75,2.75,1.25,0.75,0.2,0.33,1.2,236.69,-7.0,1.3
0.28,1.25,1.75,1.0,4.5,6.0,5.75,1.0,6.75,4.5,8.5,8.0,9.0,9.25,-0.11,0.08,0.95,1137.75,-1.5,-36.9,1.75,1.0,2.5,2.0,3.0,0.75,0.0,2.0,1.25,2.0,2.75,1.0,0.75,0.2,0.52,1.33,262.64,-7.2,3.7
0.3,1.25,1.5,1.0,4.0,6.0,6.0,1.5,7.5,4.5,8.0,7.75,8.75,9.25,-0.11,0.08,0.95,1161.63,-1.8,-37.0,1.25,0.0,2.75,2.0,3.0,2.0,0.0,2.0,1.25,1.5,2.75,1.25,0.75,0.27,0.58,1.39,282.5,-5.6,-0.1
0.32,2.0,1.5,0.5,5.5,6.0,6.75,1.5,7.5,4.5,8.5,6.75,8.25,9.0,-0.11,0.08,0.95,1168.46,-1.9,-32.3,1.5,0.25,2.5,1.5,3.0,1.25,0.0,2.0,1.25,1.5,2.75,1.25,0.75,0.27,0.64,1.52,288.87,-6.3,-1.2
0.34,0.75,1.5,1.0,5.25,6.25,7.0,1.5,8.0,4.5,8.25,6.75,8.25,8.5,-0.11,0.08,0.95,1151.74,-2.3,-32.9,2.0,0.0,2.75,1.25,3.0,1.75,0.0,2.0,1.25,1.5,2.75,1.25,0.75,0.39,0.77,1.58,285.63,-6.5,0.6
0.36,1.0,1.25,0.25,5.5,6.5,7.0,1.5,8.0,4.5,8.0,6.25,7.5,8.0,-0.11,0.08,0.95,1119.12,-2.7,-31.4,1.75,0.0,2.75,1.5,2.75,2.25,0.0,2.0,1.25,1.5,3.0,1.25,0.75,0.45,0.89,1.64,284.67,-5.8,-0.6
0.38,0.5,1.5,1.0,4.75,6.5,7.5,1.5,8.0,4.5,8.0,6.0,6.75,7.5,-0.11,0.08,0.95,1077.06,-2.9,-29.6,1.25,0.0,2.5,1.25,3.0,2.0,0.0,2.0,1.25,1.5,2.5,1.25,0.75,0.33,1.14,1.64,280.09,-4.6,-2.3
0.4,1.5,2.0,2.0,6.0,7.5,7.75,1.5,8.0,4.5,7.0,5.5,6.0,6.75,-0.11,0.08,0.95,1060.55,-1.2,-19.1,2.0,0.0,2.75,1.5,3.0,2.0,0.0,2.0,1.25,1.5,2.5,1.0,0.75,0.14,1.64,1.64,282.92,-6.2,3.9
0.42,2.25,1.75,2.25,6.75,8.0,8.0,1.5,8.0,4.5,7.0,4.75,5.75,6.0,-0.11,0.08,0.95,1049.1,-0.7,-14.3,1.75,0.0,2.5,1.5,2.75,2.0,0.0,2.0,1.25,1.5,2.75,1.25,1.0,-0.3,2.14,1.58,282.27,-5.4,-2.2
0.44,2.5,2.0,2.0,7.25,8.75,8.5,1.5,7.75,4.25,6.25,4.5,5.0,5.5,-0.11,0.08,0.95,1046.48,-0.6,-9.0,2.0,0.0,2.75,1.75,2.75,2.0,0.0,2.0,1.25,1.75,2.5,1.25,0.75,-1.11,2.33,0.83,285.6,-6.2,1.6
0.46,2.25,1.75,1.25,7.5,9.5,8.5,1.5,7.75,4.0,5.75,4.25,5.0,5.0,-0.11,0.08,0.95,1037.87,-1.0,-7.9,2.0,0.0,2.75,1.25,2.5,2.0,0.0,2.0,1.25,1.5,2.5,1.25,1.0,-2.11,3.27,0.45,279.8,-6.1,-1.0
0.48,2.5,2.0,2.0,9.25,9.5,8.75,2.0,7.5,4.5,5.75,4.25,3.75,4.75,-0.11,0.08,0.95,1045.79,0.1,-2.0,1.75,0.75,2.75,1.75,2.75,1.75,0.0,2.0,1.25,1.5,2.75,1.75,0.75,-2.17,3.89,-0.48,281.27,-6.8,1.2
0.5,2.75,3.25,3.25,9.25,12.0,9.25,2.25,7.5,4.5,5.25,3.5,3.5,4.25,-0.11,0.08,0.95,1093.66,0.9,6.2,2.0,0.75,2.5,1.5,2.75,1.0,0.0,2.0,1.25,3.0,3.0,2.0,1.5,0.14,0.33,-0.42,288.6,-5.5,-10.5
0.52,3.25,2.75,3.5,11.5,12.0,9.5,2.25,7.25,4.25,5.0,3.5,3.25,4.0,-0.11,0.08,0.95,1160.32,1.8,9.4,0.25,0.5,2.5,1.5,2.75,1.0,0.0,2.25,1.25,4.75,2.5,4.75,4.5,0.33,-0.92,1.7,321.91,-0.5,-40.6
0.54,3.75,3.0,4.0,12.0,14.0,9.25,1.5,6.75,3.75,4.5,3.5,3.25,3.25,-0.11,0.08,0.95,1236.35,2.5,14.7,1.0,0.5,1.5,0.0,2.75,2.5,0.0,1.75,1.5,6.5,4.25,6.0,7.75,-0.36,0.39,0.95,393.56,2.5,-54.2
0.56,4.0,3.25,4.75,13.5,14.0,9.75,0.5,6.75,3.75,3.75,3.25,3.0,3.25,-0.11,0.08,0.95,1305.07,3.1,18.3,0.0,0.0,0.5,1.25,1.25,0.0,0.0,4.75,1.75,8.25,6.75,7.25,7.75,-0.11,0.89,3.64,501.08,3.1,-71.7
0.58,4.75,3.5,5.5,14.0,14.5,9.75,0.5,6.0,3.0,2.25,3.0,3.0,3.0,-0.11,0.08,0.95,1339.96,4.3,24.0,1.25,1.0,2.0,1.5,2.75,5.0,0.0,6.75,2.25,9.25,8.75,8.25,9.0,0.08,0.27,1.27,692.49,2.6,-49.0
0.6,5.5,4.5,6.25,15.0,15.0,9.75,3.0,5.75,3.0,2.75,2.5,2.5,3.0,-0.11,0.14,0.95,1390.92,5.4,27.8,1.75,1.0,1.5,1.75,2.75,3.5,0.0,7.5,1.75,9.0,8.5,7.75,9.0,0.08,0.14,0.95,844.01,2.5,-49.6
0.62,6.25,4.5,7.0,15.5,16.0,9.75,3.0,4.75,2.5,2.5,2.25,1.75,3.0,-0.11,0.14,0.95,1433.36,6.2,32.4,1.5,0.5,2.5,1.25,3.0,5.5,0.0,7.5,1.5,8.75,8.25,7.75,9.0,0.14,0.08,0.95,965.94,2.9,-47.1
0.64,7.0,4.5,7.75,17.0,16.0,9.5,1.5,4.5,2.25,2.25,2.25,2.25,3.0,-0.11,0.2,1.02,1477.67,7.0,33.7,0.0,0.5,2.5,1.5,2.75,5.25,0.25,7.5,0.75,8.75,8.0,7.75,8.75,0.14,0.08,0.95,1000.11,3.9,-50.7
0.66,7.75,5.5,9.0,17.5,16.0,9.25,1.75,3.25,2.0,2.75,2.25,2.0,3.0,-0.11,0.2,1.02,1520.98,8.1,36.6,0.75,1.0,1.25,0.75,3.0,5.5,0.5,7.5,2.0,8.75,7.75,7.25,8.25,0.08,0.08,0.89,1004.25,4.3,-49.0
0.68,6.5,4.75,9.0,17.5,15.5,8.5,1.5,3.0,1.25,2.0,1.25,2.0,2.25,-0.11,0.2,1.02,1511.53,8.5,39.9,0.0,1.25,1.0,1.5,3.0,5.75,0.25,7.5,1.75,8.5,7.75,7.0,8.25,0.08,0.08,0.95,977.08,4.8,-48.6
0.7,9.5,6.0,10.0,17.5,16.5,8.25,1.25,2.75,1.5,2.0,1.75,2.0,2.0,-0.17,0.2,1.08,1529.78,9.9,43.1,1.5,1.0,2.75,2.0,3.25,6.25,0.5,7.5,2.0,8.5,7.75,6.75,8.25,0.08,0.08,0.95,977.05,2.4,-39.7
0.72,10.5,4.0,10.5,15.5,16.0,6.0,0.5,1.0,1.75,2.0,1.5,1.5,2.0,-0.17,0.27,1.08,1483.25,11.6,45.2,1.75,1.25,2.75,2.0,3.25,6.0,0.75,7.75,2.25,8.5,7.5,6.25,7.75,0.08,0.08,0.95,967.0,2.1,-37.3
0.74,10.0,6.0,11.0,11.0,14.0,5.5,0.0,1.0,1.75,0.5,1.0,1.5,1.25,-0.17,0.33,1.14,1399.8,12.9,51.0,2.0,1.25,2.75,2.25,3.75,6.25,1.25,7.75,2.25,8.25,7.5,6.0,7.75,0.08,0.08,0.95,957.25,1.8,-34.4
0.76,10.5,6.0,10.5,0.0,12.5,4.25,0.0,1.0,1.5,2.0,1.0,1.5,1.25,-0.23,0.33,1.2,1199.09,12.5,47.0,2.0,1.75,3.0,3.75,5.75,7.0,0.5,7.75,2.25,8.0,7.0,5.5,7.0,0.08,0.08,0.95,949.28,1.5,-24.8
0.78,10.5,6.0,9.5,12.0,10.0,2.5,0.0,1.0,1.5,1.25,1.0,1.0,1.25,-0.23,0.45,1.39,1063.88,15.2,52.0,2.0,1.25,4.0,3.75,6.0,7.25,0.0,8.0,3.0,7.75,6.75,5.5,6.75,0.08,0.14,0.95,947.74,1.0,-23.5
0.8,9.75,4.75,7.75,8.0,8.25,1.75,0.0,1.0,1.75,1.0,1.0,1.5,1.25,-0.36,0.7,2.14,884.6,15.4,48.0,2.0,2.25,4.0,4.0,6.5,7.75,0.75,8.0,3.0,7.5,6.75,4.5,6.5,0.08,0.14,0.95,959.64,0.8,-17.8
0.82,8.75,4.5,3.75,6.0,6.5,1.5,0.0,0.75,1.5,1.25,0.75,1.0,1.25,-0.67,1.02,2.58,708.84,13.7,47.4,2.0,2.0,5.0,5.75,7.75,7.75,1.0,7.75,3.25,6.75,6.5,4.25,5.75,0.08,0.14,0.95,989.49,-0.5,-11.0
0.84,7.25,3.5,1.0,5.0,6.0,1.5,0.0,0.75,1.5,1.5,1.0,1.25,1.25,-0.67,0.45,2.2,527.22,10.6,38.9,2.25,2.0,5.0,6.25,7.75,7.75,0.0,7.75,3.0,6.5,5.5,3.25,4.5,0.08,0.14,0.95,1009.98,-0.6,-5.4
0.86,5.5,2.75,0.5,3.75,5.75,2.25,0.0,0.5,1.5,0.0,0.75,0.0,1.5,-0.48,0.64,2.45,376.03,8.9,45.9,2.0,2.0,5.25,7.75,8.75,8.0,2.0,7.5,2.75,5.25,5.0,3.0,4.25,0.08,0.14,0.95,1030.7,-1.6,0.7
0.88,1.75,2.25,0.0,0.0,0.75,1.75,0.0,0.0,1.0,1.0,0.75,1.75,1.25,-1.05,-0.23,2.33,230.31,3.9,-0.6,3.75,2.25,5.75,9.0,9.0,8.0,1.5,7.5,2.5,4.75,4.5,2.0,3.0,0.08,0.14,0.95,1049.56,-3.2,10.6
0.9,2.25,2.5,0.75,0.0,4.5,1.75,0.0,0.5,0.0,0.25,1.25,0.25,1.5,-0.98,-0.36,2.27,142.12,3.8,32.1,3.5,2.5,6.75,9.75,10.0,8.25,2.75,6.5,1.75,4.5,4.0,2.0,2.5,0.08,0.14,0.95,1076.32,-4.3,16.3
0.92,0.75,1.5,0.75,0.0,2.5,1.75,0.0,0.0,0.5,1.5,0.25,0.25,1.25,-0.86,-1.48,1.14,62.58,-0.3,14.1,4.0,2.5,6.75,11.0,11.0,8.5,2.75,6.0,1.75,3.5,4.0,2.0,2.5,0.08,0.14,0.95,1110.27,-5.0,20.2
0.94,0.25,1.5,0.75,1.0,2.5,1.75,0.0,0.0,0.5,1.75,0.0,0.5,1.25,-0.67,-0.36,1.02,28.68,-0.5,12.1,5.75,2.75,7.5,11.5,11.5,8.5,3.0,5.75,1.75,3.25,3.0,2.0,1.75,0.02,0.14,0.95,1156.67,-6.5,26.8
0.96,0.5,1.5,0.75,0.0,2.5,0.25,0.0,0.0,1.0,0.75,0.25,0.25,1.25,-0.48,-0.42,0.27,9.5,4.0,13.4,6.75,3.0,7.75,12.5,11.5,8.5,3.0,4.75,1.25,3.25,3.0,1.75,1.5,0.02,0.14,0.95,1201.46,-7.5,31.1
0.98,0.75,1.5,0.75,0.0,2.5,0.5,0.0,0.0,1.25,0.0,0.75,0.5,1.25,-0.48,-0.3,0.39,20.67,6.2,13.9,6.0,2.0,8.5,11.0,13.0,7.75,2.75,4.25,1.25,1.5,3.0,0.75,1.5,0.02,0.2,0.95,1191.6,-8.1,35.2
1.0,2.0,2.25,1.25,1.0,5.5,2.0,0.0,0.5,1.5,1.75,1.25,1.75,2.5,-0.48,-0.36,0.64,104.34,3.0,7.6,7.75,2.5,8.25,11.5,11.5,7.75,2.5,3.5,1.25,1.5,3.0,0.5,1.25,-0.05,0.2,1.02,1167.05,-9.4,39.0
1.02,2.25,1.75,1.25,3.75,4.5,1.75,0.0,0.5,1.5,1.25,1.0,1.5,2.25,-0.55,-0.3,0.95,178.93,5.8,15.1,8.0,1.0,8.25,13.0,11.5,7.75,1.5,2.5,1.0,0.0,0.75,0.5,0.75,-0.05,0.2,1.02,1095.94,-10.7,48.6
1.04,2.25,2.0,1.0,3.5,5.0,2.0,0.0,0.5,1.5,2.25,1.25,1.75,2.5,-0.67,-0.11,1.02,261.58,4.0,9.4,8.5,3.25,0.0,13.5,11.5,6.75,1.5,2.25,1.0,1.0,0.75,0.5,0.75,-0.05,0.27,1.02,995.11,-6.8,47.6
1.06,2.0,1.75,1.25,3.25,3.5,2.25,0.0,0.5,1.75,1.25,1.25,2.0,2.0,-0.8,0.14,0.89,298.05,5.5,9.0,9.25,4.0,9.25,13.5,11.5,6.0,0.0,2.0,1.0,0.0,0.75,0.5,0.75,-0.05,0.33,1.02,981.06,-12.7,53.8
1.08,2.25,1.75,1.0,2.75,3.75,1.75,0.0,0.75,1.5,2.0,1.0,1.75,2.5,-0.73,0.33,1.02,323.88,4.1,5.0,9.75,4.25,9.25,13.0,11.0,5.25,0.0,2.0,0.5,0.0,1.75,0.0,0.75,0.02,0.33,1.02,983.13,-13.4,54.5
1.1,2.25,1.75,1.0,3.75,3.5,1.75,0.0,0.5,1.5,2.0,1.5,1.75,2.25,-0.67,0.39,1.2,334.23,5.3,6.8,11.5,6.25,9.25,15.5,10.5,5.5,0.0,2.0,0.0,0.0,1.75,0.25,0.75,0.02,0.39,1.08,1051.12,-14.1,57.2
1.12,2.25,1.75,1.0,3.75,3.5,1.75,0.0,0.5,1.25,2.0,1.0,2.0,2.5,-0.61,0.58,1.45,344.21,5.0,6.5,11.5,6.0,9.5,14.5,10.5,5.0,0.0,2.0,0.0,1.5,2.75,1.0,0.75,0.08,0.45,1.2,1113.19,-13.6,50.4
1.14,2.25,1.75,1.0,3.75,3.5,1.75,0.0,0.5,1.25,1.25,1.25,1.75,2.25,-0.61,0.77,1.64,339.47,5.9,10.9,11.0,5.25,8.75,11.5,9.0,0.0,0.0,2.0,0.0,1.75,2.75,0.75,0.75,0.2,0.58,1.33,1074.29,-16.5,50.2
1.16,2.25,1.75,1.0,3.75,3.5,1.75,0.0,0.5,1.5,1.0,1.0,1.5,2.25,-0.73,0.89,1.95,335.68,6.1,13.6,10.5,4.25,6.0,8.0,7.75,3.25,0.0,2.0,0.75,1.5,2.75,1.0,0.75,0.58,1.02,1.83,961.05,-13.3,45.0
1.18,2.25,2.0,1.0,3.75,3.5,1.75,0.0,0.5,1.5,0.75,1.0,1.75,2.75,-0.86,1.27,2.33,329.4,6.0,11.4,9.0,2.75,2.75,6.0,5.0,3.25,0.0,0.5,1.0,1.5,2.75,0.75,0.75,0.7,1.39,3.45,757.83,-12.6,41.6
1.2,2.25,1.75,1.5,3.25,3.0,1.75,0.0,0.5,1.5,1.25,1.25,1.5,2.75,-0.92,1.83,2.08,320.4,6.2,7.9,7.5,2.25,2.5,4.5,1.25,0.0,0.0,2.0,1.0,1.5,2.75,0.0,0.75,0.2,0.64,3.02,541.0,-16.2,34.9
1.22,2.25,1.75,1.0,3.75,2.5,1.25,0.0,0.0,1.5,1.0,1.0,1.75,2.5,0.27,2.52,1.83,300.31,7.7,9.1,2.25,0.25,2.0,1.75,2.75,0.0,0.0,0.5,0.25,0.0,1.25,0.25,0.0,0.58,0.2,2.64,320.33,-16.0,41.7
1.24,2.25,1.75,1.0,3.25,3.5,2.25,0.0,0.5,1.5,1.25,1.0,1.5,2.75,1.64,2.89,1.7,292.91,4.6,9.3,2.25,0.75,0.75,2.0,1.75,0.0,0.0,0.75,1.25,1.5,1.5,0.5,0.75,0.02,0.02,1.83,206.0,-9.3,8.5
1.26,2.25,1.75,1.0,3.75,3.0,2.0,0.0,1.0,1.5,1.25,1.75,1.5,2.5,1.89,3.2,0.58,296.28,5.3,6.7,2.0,1.5,1.75,2.5,2.5,1.5,0.0,1.25,1.0,1.5,1.75,0.5,0.5,1.14,-1.23,2.02,143.29,-7.5,19.4
1.28,2.25,1.75,1.0,3.75,3.5,2.25,0.0,0.75,1.25,1.25,1.25,1.75,2.75,2.02,3.83,0.14,304.43,4.7,8.2,0.25,0.75,1.75,1.75,3.25,1.0,0.0,1.25,1.25,1.75,0.75,1.0,0.0,0.58,-1.23,1.58,107.93,-4.4,10.2
1.3,1.75,1.75,1.0,2.25,3.5,1.75,0.0,1.0,1.75,0.25,1.25,2.0,2.75,1.64,3.64,0.08,300.97,4.6,3.0,2.0,0.5,2.5,1.75,3.25,1.25,0.0,2.0,0.75,0.25,0.75,0.5,0.75,0.14,-0.42,0.77,101.35,-8.1,25.0
1.32,2.25,1.75,1.0,1.0,3.0,1.75,0.0,1.75,1.75,2.5,1.5,3.75,3.5,-0.17,0.58,0.02,310.17,2.1,-18.8,0.5,0.0,1.0,0.5,1.75,0.0,0.0,1.25,0.75,0.0,0.75,0.5,0.0,0.33,-0.36,0.2,57.94,-8.0,8.3
1.34,2.25,1.75,1.0,1.75,2.5,1.75,0.0,2.25,1.75,3.75,2.5,5.75,6.25,0.52,-0.48,1.58,350.95,0.9,-35.4,0.25,0.0,0.0,0.25,1.75,0.75,0.0,1.0,0.75,0.25,0.0,0.5,0.25,0.45,-0.3,0.27,13.58,3.5,0.2
1.36,0.75,1.75,1.0,2.5,2.5,2.5,0.0,1.75,2.25,7.0,4.25,7.75,8.5,0.7,0.58,1.45,451.77,-1.1,-48.9,0.0,0.0,0.5,0.5,1.25,0.0,0.0,1.25,0.75,0.5,0.0,0.5,0.25,0.45,-0.3,0.58,0.0,-0.8,-10.2
1.38,0.5,2.0,1.0,1.25,5.0,3.0,0.0,4.75,3.25,9.25,6.5,9.5,10.5,-0.23,0.7,1.89,648.25,-2.8,-50.8,1.25,0.5,0.75,1.5,3.25,0.0,0.0,2.0,1.25,0.75,1.0,0.5,0.75,0.39,-0.3,0.83,34.22,-4.6,7.8
1.4,2.25,2.0,1.0,0.0,2.5,3.75,0.0,6.5,3.5,9.0,8.25,9.5,10.5,0.27,0.02,1.33,842.42,-2.3,-53.4,0.75,0.25,0.0,0.5,2.75,0.0,0.0,1.25,0.75,0.25,0.5,0.5,0.25,0.33,-0.11,0.95,59.39,-2.0,9.7
1.42,0.0,2.25,0.0,4.0,3.75,4.25,0.0,5.75,4.25,8.5,7.5,9.0,9.75,-0.11,0.02,0.95,990.1,-2.7,-47.3,1.5,1.0,0.0,1.5,1.25,0.0,0.0,1.25,1.0,0.25,0.0,0.5,0.75,0.33,0.14,0.95,100.8,-7.0,17.6
1.44,2.0,2.5,0.25,5.0,1.25,5.5,0.25,7.0,4.5,7.5,7.75,9.0,10.0,-0.11,0.08,0.95,1082.53,-1.3,-42.8,0.25,0.0,0.0,0.0,1.0,0.0,0.0,1.0,0.75,0.25,0.0,0.5,0.0,0.39,0.33,1.08,88.7,0.7,-14.4
1.46,1.0,1.5,1.0,5.0,5.0,5.5,1.0,7.0,5.25,8.5,8.5,9.0,9.5,-0.11,0.08,0.95,1165.44,-1.3,-39.5,0.5,0.0,0.0,0.0,0.25,0.0,0.0,1.0,0.75,0.25,0.75,0.5,0.0,0.39,0.52,1.27,73.54,-4.0,-33.8
1.48,1.0,1.25,2.0,5.25,5.75,6.0,1.5,7.5,5.5,7.25,9.0,9.0,9.25,-0.05,0.08,0.95,1226.48,-0.5,-35.6,0.75,0.25,0.0,1.25,1.25,0.5,0.0,0.75,1.25,1.75,0.25,1.0,0.0,0.33,0.58,1.58,70.56,-2.3,-7.9
1.5,2.25,1.75,3.0,5.75,6.0,6.0,1.75,7.5,5.75,8.0,8.5,8.75,9.25,-0.05,0.02,0.95,1295.86,0.6,-30.0,1.5,0.5,1.25,1.25,3.0,0.0,0.0,2.0,1.25,1.5,0.75,1.0,0.75,0.33,0.77,1.83,118.16,-5.2,2.6
1.52,2.5,2.5,3.25,5.75,6.25,6.25,2.25,7.5,5.5,8.0,8.0,8.0,8.5,-0.05,0.02,0.95,1323.44,0.9,-25.3,1.5,0.0,0.0,0.75,0.5,0.0,0.0,2.0,0.75,0.25,0.75,0.5,0.75,0.52,1.14,2.39,132.77,-4.3,-13.6
1.54,2.25,1.75,3.0,5.75,6.5,6.75,2.75,6.75,5.25,7.25,6.75,7.0,7.5,-0.11,0.02,0.95,1300.37,0.7,-22.4,0.25,0.0,0.25,0.25,0.25,0.0,0.0,2.0,0.75,0.0,0.75,0.5,0.75,0.77,1.89,2.52,129.82,0.2,-40.0
1.56,2.25,1.5,3.5,7.25,6.5,6.75,2.5,7.0,5.25,6.75,6.25,6.25,6.75,-0.11,0.08,0.95,1238.01,1.3,-17.8,1.25,0.0,1.0,0.5,1.25,0.5,0.0,0.75,0.75,1.75,0.75,0.5,0.75,0.77,2.64,1.89,134.87,-4.4,-8.4
1.58,3.0,2.5,3.5,7.25,7.75,6.75,2.75,6.5,4.75,5.75,5.5,5.75,5.5,-0.11,0.08,0.95,1169.36,2.3,-8.9,1.75,0.0,1.0,0.5,0.0,0.0,0.0,0.75,0.5,0.25,0.5,0.5,0.25,-0.23,3.95,1.77,116.34,-17.1,11.2
1.6,3.25,2.25,3.25,7.5,7.75,6.5,2.75,6.5,4.5,5.25,5.25,5.0,5.0,-0.11,0.08,0.95,1100.91,2.5,-6.2,0.0,0.25,0.5,0.5,0.0,0.0,0.0,0.75,0.75,0.0,0.75,0.5,0.25,-1.11,4.08,-0.23,92.89,-8.7,-25.3
1.62,3.5,3.0,4.25,9.0,8.0,7.0,3.0,6.25,4.5,4.5,4.5,4.0,4.5,-0.11,0.08,0.95,1068.32,3.7,2.6,0.0,0.25,0.0,0.0,0.0,1.0,0.0,0.75,0.75,0.0,0.75,0.5,0.5,-2.55,5.2,-0.05,73.88,3.7,-37.4
1.64,4.0,3.0,4.5,9.25,8.25,7.25,2.5,5.75,4.5,4.0,4.0,3.5,4.0,-0.11,0.08,0.95,1055.36,4.2,7.2,1.5,0.75,1.75,1.25,3.25,1.25,0.0,2.0,1.0,2.0,2.75,2.5,1.5,-3.23,4.89,-0.48,154.13,-3.9,-12.2
1.66,4.0,3.0,5.0,10.0,9.5,7.75,2.5,5.75,4.0,3.75,3.5,3.25,3.25,-0.11,0.08,0.95,1060.63,4.5,12.6,0.25,0.0,2.5,0.0,3.0,0.0,0.0,2.0,1.25,5.25,3.25,5.5,5.5,0.08,-0.23,1.08,252.0,0.0,-55.6
1.68,4.5,3.0,5.5,12.5,9.5,7.75,1.5,5.75,3.25,3.75,3.5,3.0,3.25,-0.11,0.08,0.95,1079.33,5.1,16.2,1.25,1.0,0.0,0.5,0.5,1.0,0.0,3.5,1.75,7.5,6.5,6.75,7.75,-1.05,1.02,3.02,390.92,2.5,-67.1
1.7,4.75,3.0,5.25,13.5,12.0,8.25,1.5,5.25,3.75,2.25,2.5,2.5,2.75,-0.11,0.08,0.95,1115.05,5.4,23.8,0.75,1.5,1.75,1.75,0.0,5.25,0.0,5.75,2.75,8.5,8.25,8.5,8.5,0.14,0.77,1.39,609.83,2.3,-53.9
1.72,5.5,3.0,6.75,15.0,12.5,8.5,1.75,4.75,3.25,1.5,2.0,2.0,3.0,-0.11,0.08,0.95,1171.71,6.8,29.5,1.25,0.75,1.25,0.75,3.25,5.75,0.0,7.5,2.25,8.5,9.25,7.75,8.5,-0.11,0.27,1.14,817.29,3.7,-49.2
1.74,6.25,3.0,7.5,15.5,14.0,8.5,3.5,4.75,3.0,2.5,2.0,2.5,3.0,-0.11,0.14,0.95,1268.2,7.2,29.1,0.5,1.0,2.5,1.5,3.25,6.0,0.25,7.5,2.25,9.0,8.5,7.75,8.25,0.08,0.08,0.95,977.19,3.1,-45.6
1.76,6.75,4.0,8.0,15.0,12.0,8.0,3.0,3.0,2.25,1.5,1.0,2.0,2.75,-0.11,0.14,0.95,1302.16,9.0,36.6,0.5,1.0,2.5,1.75,3.25,5.75,0.25,7.5,2.5,8.5,7.75,7.0,8.0,0.14,0.08,0.95,1060.91,3.0,-43.6
1.78,7.0,4.5,9.0,14.5,15.0,7.75,2.5,3.0,2.25,2.0,0.0,1.75,2.0,-0.11,0.14,1.02,1334.7,8.9,41.1,0.75,1.0,2.75,2.25,3.25,6.0,0.5,7.5,2.5,8.5,8.0,6.75,8.0,0.08,0.08,0.89,1094.42,2.5,-41.1
1.8,7.25,3.25,8.75,16.5,14.0,7.75,0.25,2.5,2.0,2.25,1.0,1.75,2.0,-0.11,0.14,1.02,1334.94,9.0,39.5,0.5,1.25,2.75,2.75,3.75,5.75,0.75,7.5,2.75,8.0,8.25,6.5,7.75,0.08,0.08,0.95,1088.23,2.0,-38.6
1.82,8.75,4.25,10.0,18.5,14.0,7.75,1.5,2.75,2.25,3.5,1.25,2.0,3.0,-0.11,0.2,1.08,1397.52,9.6,37.1,0.5,0.25,2.75,3.25,5.25,6.5,0.5,7.5,3.0,7.75,7.75,6.25,7.0,0.08,0.08,0.95,1078.97,2.3,-35.0
1.84,9.5,4.5,11.0,17.0,15.5,6.25,2.5,2.75,1.25,2.0,1.25,1.75,3.0,-0.11,0.2,1.08,1440.44,11.0,41.6,1.25,1.0,3.75,3.75,6.0,6.75,1.5,7.5,3.0,7.0,7.25,5.5,6.5,0.08,0.08,0.95,1061.83,0.7,-24.9
1.86,9.5,4.0,11.0,14.5,14.0,6.0,1.0,1.0,1.0,1.25,1.0,1.75,1.5,-0.11,0.2,1.08,1420.78,12.5,47.8,2.0,1.25,4.0,3.75,6.0,7.25,2.0,7.0,3.25,6.5,6.5,4.5,5.5,0.08,0.08,0.95,1023.7,-0.1,-17.8
1.88,10.0,6.0,11.0,0.0,13.0,4.75,0.25,1.0,1.5,1.25,1.0,2.0,2.25,-0.17,0.27,1.14,1282.01,12.0,43.9,2.0,2.0,5.0,4.0,7.25,7.25,2.5,6.75,3.25,6.0,6.0,4.0,4.5,0.08,0.08,0.95,986.95,-1.3,-9.3
1.9,11.0,5.0,12.0,14.0,14.0,1.75,0.0,1.75,1.5,1.0,1.0,0.5,1.5,-0.23,0.33,1.33,1209.46,15.1,52.4,2.25,2.0,5.25,5.75,7.75,7.5,2.75,6.5,3.25,5.5,5.75,3.25,4.25,0.08,0.08,0.95,974.52,-2.1,-3.2
1.92,10.5,4.5,9.75,12.5,9.25,1.75,0.0,0.75,1.5,1.25,1.25,1.5,1.25,-0.36,0.45,1.52,1073.33,16.2,49.4,1.75,2.0,6.5,6.0,8.0,7.75,2.75,6.5,3.25,4.75,5.25,3.25,3.5,0.08,0.14,0.95,967.32,-2.9,0.7
1.94,9.5,4.5,8.25,8.75,8.0,1.75,0.0,0.5,1.5,1.25,1.0,1.5,1.25,-0.55,0.89,2.08,942.18,15.8,48.4,3.0,2.0,6.75,7.75,8.75,7.75,3.75,6.25,3.25,4.75,5.0,2.75,2.75,0.02,0.14,0.95,989.2,-4.4,8.0
1.96,8.25,4.5,5.0,6.0,6.5,0.75,0.0,0.75,1.5,0.75,1.0,1.5,1.25,-0.92,1.14,2.83,749.04,15.2,46.3,5.0,2.0,7.75,9.25,9.25,7.75,4.25,5.75,2.75,3.5,4.5,2.0,2.0,0.02,0.14,0.95,1035.79,-6.8,18.8
1.98,7.25,3.0,1.25,5.5,5.75,1.25,0.0,1.5,1.5,0.75,1.25,1.5,3.0,-0.8,0.45,2.52,576.43,9.9,29.5,5.25,2.25,8.5,9.75,10.0,7.75,4.75,5.25,2.5,3.25,4.0,2.0,1.75,0.02,0.14,0.95,1090.99,-7.6,22.9
2.0,4.75,1.5,3.0,0.0,6.25,0.25,0.0,0.5,0.5,0.0,2.0,0.75,2.0,-0.8,0.45,2.89,383.48,11.7,30.4,6.75,2.5,9.0,11.0,10.5,7.75,5.25,4.75,1.75,3.25,3.25,2.0,1.5,0.02,0.14,0.95,1152.96,-8.8,28.6
2.02,0.0,1.5,1.75,1.0,2.5,0.0,0.0,0.0,1.0,2.0,0.0,0.25,1.0,-1.17,-1.11,2.58,234.17,5.6,12.8,3.0,2.5,9.25,11.5,10.5,7.5,5.25,3.75,1.75,3.0,3.25,1.75,1.5,0.02,0.14,0.95,1158.71,-8.1,27.2
2.04,0.0,1.5,1.5,1.0,1.25,0.0,0.0,0.0,1.0,0.75,1.25,0.5,2.25,-1.8,-1.92,1.27,115.32,6.8,-9.6,7.75,2.5,10.5,10.5,11.5,7.5,4.5,3.5,1.5,2.5,3.0,1.75,1.75,-0.05,0.14,0.95,1193.43,-10.2,33.5
2.06,0.5,1.5,0.0,0.0,0.75,1.5,0.0,0.0,1.5,0.75,0.0,0.25,1.25,-1.3,-0.98,0.95,8.52,-1.0,1.3,0.0,2.75,11.0,11.5,11.0,7.25,4.5,3.5,1.25,2.25,2.75,1.5,1.25,-0.05,0.2,1.02,1143.08,-8.1,29.5
2.08,0.5,1.25,0.0,0.75,2.5,0.0,0.0,0.0,1.25,0.5,0.5,0.75,1.25,-0.61,-0.73,0.33,0.0,3.9,2.9,9.25,3.5,0.0,12.0,11.0,7.25,3.75,3.0,1.25,1.75,2.75,1.25,1.0,-0.05,0.2,1.02,1082.3,-6.7,37.6
2.1,2.0,1.75,0.0,3.75,2.5,2.25,0.0,0.0,0.5,1.0,1.25,0.5,2.25,-0.42,-0.55,0.58,21.91,4.0,17.7,9.0,2.75,11.5,11.5,11.5,5.5,2.75,2.5,0.75,0.0,0.25,0.5,0.75,-0.05,0.2,0.95,1045.92,-13.9,53.0
2.12,1.25,1.5,0.75,2.25,2.5,1.75,0.0,0.0,0.5,1.0,0.0,0.5,1.25,-0.3,-0.55,0.77,61.34,4.4,27.1,9.5,3.75,11.5,12.5,10.0,5.5,2.75,0.0,1.25,0.25,0.5,0.5,0.0,-0.05,0.27,1.02,1024.04,-16.2,58.5
2.14,2.25,2.0,1.0,3.75,4.75,1.75,0.0,0.0,1.5,2.25,1.25,1.75,2.5,-0.23,-0.48,0.95,146.37,4.9,10.1,10.5,4.75,11.0,12.5,9.25,3.75,1.75,2.0,1.0,0.0,2.0,0.5,0.75,-0.05,0.27,1.02,1027.98,-16.0,53.1
2.16,2.0,1.75,1.0,3.75,4.75,1.75,0.0,0.0,1.5,2.0,1.5,1.75,2.0,-0.23,-0.3,0.95,217.79,5.2,10.8,11.5,5.0,11.5,12.0,9.25,2.5,0.5,2.0,0.75,0.0,2.0,0.5,0.75,-0.05,0.33,1.08,1029.93,-17.1,55.0
2.18,2.25,1.75,0.75,3.75,4.75,1.75,0.0,0.0,1.5,2.0,1.0,1.75,2.25,-0.3,-0.11,1.02,274.65,4.8,11.6,11.5,5.25,11.5,12.0,8.75,3.25,0.0,2.0,1.0,0.0,1.75,0.5,0.5,0.02,0.33,1.08,1031.78,-16.8,55.9
2.2,2.25,1.75,1.0,3.75,5.0,1.75,0.0,0.25,1.5,2.0,1.25,1.75,2.25,-0.23,0.02,1.2,309.75,4.9,11.2,11.0,5.25,13.0,11.5,8.75,2.75,0.0,2.0,0.75,0.0,2.25,0.5,0.75,0.08,0.45,1.2,1028.58,-17.4,54.5
2.22,2.25,1.75,1.0,3.75,4.5,2.0,0.0,0.5,1.5,2.25,1.75,1.75,2.75,-0.17,0.14,1.58,346.83,4.2,5.3,11.5,4.25,10.5,9.25,6.25,1.75,0.0,1.75,0.75,0.5,1.75,0.5,0.5,0.14,0.52,1.39,952.72,-18.6,55.2
2.24,2.25,1.75,1.0,3.75,4.25,2.25,0.0,0.5,1.5,2.0,1.5,1.5,2.25,-0.11,0.39,1.7,366.8,4.5,10.1,12.5,4.5,9.25,7.25,4.75,3.25,0.0,1.0,1.25,1.5,2.75,1.25,0.75,0.39,0.89,1.95,883.72,-17.4,47.5
2.26,2.25,1.75,1.5,3.75,4.5,2.0,0.0,0.0,1.5,2.0,1.25,1.75,2.75,-0.17,0.52,1.95,378.25,5.3,9.6,10.5,3.25,7.5,5.75,4.5,3.25,0.0,0.0,1.25,1.75,2.75,1.0,0.75,0.77,1.39,2.95,766.67,-16.7,45.0
2.28,2.25,1.75,1.75,3.75,3.0,1.75,0.0,0.0,1.5,1.0,1.25,2.0,2.75,-0.36,0.64,2.33,366.85,7.6,9.0,8.5,1.5,5.0,4.0,3.0,1.25,0.0,1.25,1.25,1.5,2.75,1.25,0.75,0.83,0.77,3.08,608.57,-16.4,33.6
2.3,2.25,1.75,1.0,3.75,4.75,2.25,0.0,0.0,1.5,1.75,1.0,1.75,2.75,-0.36,1.08,2.64,361.99,4.5,10.9,4.5,1.75,1.5,3.0,0.0,2.0,0.0,1.0,1.25,1.5,1.25,1.5,0.0,0.83,0.45,2.39,410.84,-12.6,25.0
2.32,2.25,1.75,1.0,3.75,4.25,1.75,0.0,0.0,1.5,0.0,1.25,1.75,2.75,0.02,2.08,2.58,340.65,6.9,15.1,2.5,0.25,3.5,1.75,3.25,2.5,0.0,2.0,1.25,1.75,2.5,1.0,0.75,1.02,-0.86,2.7,302.42,-7.1,9.7
2.34,2.25,1.75,1.0,3.75,3.75,2.25,0.0,0.0,1.5,1.75,1.0,1.75,2.75,1.45,3.2,1.39,329.72,4.8,8.9,1.0,0.0,2.5,1.0,3.25,0.0,0.0,2.0,0.75,0.0,1.25,0.5,0.0,1.52,-1.23,2.7,198.52,-10.1,20.2
2.36,2.25,1.75,1.0,3.75,3.0,2.5,0.0,1.0,1.5,1.5,1.25,1.75,2.5,1.58,3.7,0.89,323.04,4.4,6.8,0.5,0.5,1.25,1.25,1.25,0.0,0.0,1.25,0.75,0.0,0.0,0.5,0.0,0.77,-0.92,1.58,102.79,-10.9,26.2
2.38,2.25,1.75,1.0,3.75,3.75,2.0,0.0,1.0,0.75,1.25,1.25,2.0,2.75,2.14,4.39,-0.11,315.78,4.5,7.8,2.5,1.5,2.75,2.25,3.0,1.25,0.0,2.0,1.25,1.0,0.75,1.25,0.75,0.45,-0.3,0.52,95.73,-8.9,21.2
2.4,2.25,1.75,1.25,3.5,3.75,2.0,0.0,0.75,1.5,2.5,1.75,2.0,3.0,2.64,4.89,-0.36,325.89,4.1,0.4,2.0,0.75,2.75,1.25,3.25,0.0,0.0,2.0,0.75,0.0,1.5,0.5,0.75,0.58,-0.36,0.02,98.46,-11.1,22.1
2.42,2.25,1.5,1.0,2.5,3.5,2.25,0.0,0.0,1.75,2.0,2.0,4.75,4.25,-0.36,-0.3,0.14,339.14,3.8,-17.7,2.0,1.0,2.5,1.75,3.25,0.5,0.0,2.0,1.25,1.5,1.5,1.0,0.75,0.52,-0.36,0.33,135.9,-8.0,11.4
2.44,2.25,1.75,0.75,2.25,3.5,1.75,0.0,1.5,1.75,4.5,3.25,7.25,6.0,-0.42,-0.55,1.77,390.94,1.4,-35.9,2.0,1.0,2.75,1.5,3.25,0.5,0.0,2.0,1.25,1.5,0.75,1.0,0.75,0.33,-0.36,0.83,163.41,-8.2,14.8
2.46,0.0,1.75,1.0,2.0,3.0,2.0,0.0,2.75,2.25,8.0,5.25,9.0,9.25,0.02,0.77,1.64,513.83,-2.0,-55.4,2.0,0.75,2.75,2.0,3.25,1.0,0.0,2.0,1.25,1.75,1.5,1.0,0.75,0.33,-0.3,0.83,205.12,-7.4,11.0
2.48,2.25,1.75,0.0,1.75,0.0,2.25,0.0,5.75,3.75,8.0,7.75,8.5,9.25,0.02,0.89,1.64,664.52,-1.4,-58.0,2.0,1.0,2.75,2.0,3.0,1.0,0.0,2.0,1.25,1.75,0.75,0.5,0.75,0.39,-0.11,0.77,221.64,-7.5,17.9
2.5,0.0,1.5,0.0,3.75,3.0,4.25,0.0,6.25,4.5,7.75,7.75,8.75,9.25,0.08,0.02,1.02,824.62,-2.8,-50.1,0.5,0.25,1.5,0.75,3.25,0.5,0.0,1.75,0.75,0.25,1.25,0.5,0.0,0.39,0.02,0.89,213.72,-5.3,14.2
2.52,0.75,2.25,1.0,5.25,5.0,4.5,0.0,6.75,4.75,0.0,7.75,9.0,9.25,-0.05,0.02,0.95,919.49,0.7,-33.4,0.5,0.25,1.5,0.25,1.25,0.0,0.0,0.25,1.0,0.5,0.75,0.5,0.0,0.39,0.45,1.33,180.06,-13.0,9.0
2.54,2.25,0.75,2.0,5.25,3.75,6.0,1.0,7.25,5.25,7.0,8.25,8.75,9.25,-0.11,0.08,0.95,1039.77,-0.1,-36.8,0.5,0.25,2.0,0.25,1.5,0.0,0.0,0.5,0.75,0.0,0.75,0.5,0.0,0.33,0.58,1.45,142.11,-15.1,20.3
2.56,2.0,1.75,3.25,6.0,6.0,6.25,1.75,7.5,5.75,8.0,8.0,8.25,8.5,-0.11,0.08,0.95,1152.37,0.6,-27.9,0.25,0.0,1.5,0.5,1.0,0.0,0.0,0.25,0.75,0.0,0.75,0.5,0.0,0.33,0.7,1.64,99.95,-15.7,10.8
2.58,2.5,2.5,3.75,6.0,6.0,6.75,2.5,7.75,5.75,7.5,8.0,8.25,8.5,-0.05,0.02,0.95,1269.0,1.3,-24.3,0.5,0.25,1.5,0.0,1.0,0.0,0.0,0.25,0.75,0.25,0.5,0.5,0.0,0.39,0.83,2.02,80.62,-15.1,14.0
2.6,3.0,2.0,4.0,7.25,6.5,6.75,3.0,7.5,5.75,7.0,7.75,7.0,7.5,-0.05,0.02,0.95,1329.18,2.1,-18.7,0.75,0.25,2.0,0.5,0.5,0.5,0.0,0.25,0.75,0.25,0.75,0.5,0.0,0.64,1.2,2.52,72.46,-16.4,18.5
2.62,2.25,2.25,3.75,7.25,7.25,6.75,3.0,7.25,5.25,5.5,6.5,5.75,6.5,-0.05,0.02,0.95,1325.07,1.9,-13.3,0.25,0.25,2.25,0.5,1.0,0.0,0.0,0.5,0.75,0.0,0.75,0.5,0.0,0.89,2.08,2.89,64.99,-17.0,17.9
2.64,3.0,2.75,4.5,9.0,7.75,7.25,2.25,6.5,4.75,5.5,4.5,5.0,5.0,-0.11,0.08,0.95,1292.7,3.0,-2.3,0.5,0.25,1.5,0.0,0.0,0.5,0.0,0.5,0.75,0.0,0.0,0.5,0.0,0.95,2.7,1.89,57.6,-16.3,17.6
2.66,2.25,1.75,5.25,7.75,8.0,7.75,1.75,5.75,4.0,3.5,3.25,3.5,3.25,-0.11,0.08,0.95,1165.54,3.2,5.6,0.5,0.25,1.25,0.0,0.25,0.0,0.0,0.5,0.75,0.0,0.5,0.5,0.0,-0.11,3.27,-0.3,46.89,-17.2,5.7
2.68,3.75,3.0,5.25,9.25,9.5,7.0,0.5,5.5,3.5,3.5,2.5,2.75,2.25,-0.11,0.08,0.95,1075.38,4.5,17.0,0.0,0.25,1.25,0.0,0.5,0.5,0.0,0.5,0.75,0.0,0.0,0.5,0.0,-0.67,3.39,0.52,40.59,-10.3,11.2
2.7,4.0,3.0,5.25,12.0,9.5,7.75,1.0,5.5,3.5,1.0,2.5,3.0,2.25,-0.11,0.08,0.95,1019.49,5.8,22.7,0.5,0.75,1.5,1.0,0.0,0.75,0.0,0.5,1.0,1.5,0.75,1.0,0.0,-2.48,4.39,0.58,65.61,-9.0,-3.6
2.72,4.0,1.75,5.5,12.0,9.75,7.25,0.25,4.5,3.0,2.5,2.0,2.75,1.5,-0.05,0.08,0.95,984.32,5.8,23.4,1.5,1.0,2.75,1.25,3.0,2.0,0.0,1.75,1.0,1.75,1.5,1.25,0.75,-2.86,5.39,0.7,149.01,-5.5,8.4
2.74,4.0,2.0,5.5,12.0,12.0,7.5,0.0,4.25,2.25,2.25,1.25,2.0,1.75,-0.05,0.08,0.95,964.36,5.2,28.9,1.75,1.0,2.5,1.25,3.0,0.0,0.0,1.75,1.0,3.25,3.0,2.75,1.75,-0.23,0.27,0.14,232.44,-6.0,-16.5
2.76,5.5,3.25,3.75,15.0,11.5,8.25,0.5,4.5,2.75,3.5,0.0,2.5,2.5,-0.11,0.14,0.95,1001.38,4.8,28.6,1.25,0.25,2.75,0.0,1.25,0.0,0.0,1.5,1.25,4.75,2.0,5.5,4.5,0.02,-0.42,0.7,299.29,-2.7,-52.7
2.78,5.5,3.0,5.25,14.5,13.0,8.25,1.5,4.5,2.5,3.0,1.5,2.0,3.0,-0.11,0.14,0.95,1060.58,5.5,28.2,0.75,0.75,2.0,1.0,3.25,0.5,0.0,3.75,1.25,8.5,6.75,7.5,9.0,-0.73,0.95,2.77,457.34,1.3,-57.4
2.8,6.0,3.25,7.75,15.5,15.0,8.5,0.25,3.5,2.25,3.5,2.0,1.75,3.0,-0.11,0.14,0.95,1176.06,6.6,31.4,1.25,1.25,1.75,1.0,2.75,5.0,0.0,5.5,1.75,10.0,8.25,9.0,9.5,0.14,0.89,1.58,685.38,2.9,-51.6
2.82,6.25,3.5,0.0,17.0,16.0,8.5,0.5,3.25,2.25,2.25,2.0,2.0,3.0,-0.11,0.14,0.95,1230.38,3.6,31.1,1.25,0.75,3.5,2.0,3.0,5.5,0.0,7.75,2.25,9.75,9.5,8.5,9.5,-0.17,0.27,1.14,933.05,1.9,-46.1
2.84,6.75,4.5,8.25,15.5,15.5,7.75,0.75,3.0,1.5,3.0,1.75,2.0,3.0,-0.11,0.14,0.95,1319.22,7.7,35.3,1.5,0.75,2.75,1.25,3.25,6.0,0.0,7.75,2.0,9.5,8.25,7.75,8.5,0.14,0.08,0.95,1083.56,2.9,-44.5
2.86,7.75,4.5,8.75,18.5,16.0,8.25,0.25,2.75,1.5,3.5,1.5,2.0,2.75,-0.11,0.2,0.95,1393.76,8.2,37.5,1.0,1.25,1.25,2.25,3.0,6.0,0.0,7.5,2.25,9.25,8.5,7.75,9.0,0.14,0.08,0.95,1163.12,3.6,-46.4
2.88,8.5,4.5,10.0,19.0,16.5,8.25,1.5,2.5,1.5,3.5,2.0,2.25,3.0,-0.11,0.2,1.02,1489.91,9.0,37.2,1.25,1.0,1.5,1.5,1.0,6.5,0.0,7.75,2.0,9.0,8.5,7.25,9.0,0.14,0.08,0.95,1146.85,4.0,-50.2
2.9,9.0,4.5,10.5,18.0,16.0,7.75,1.75,2.5,1.5,3.5,1.25,2.0,3.0,-0.11,0.2,1.02,1551.85,9.6,38.8,1.5,0.75,2.75,1.25,1.25,6.25,0.0,7.75,2.5,8.75,8.25,7.0,8.5,0.08,0.14,0.95,1109.18,2.8,-46.9
2.92,8.75,4.5,11.0,18.0,16.0,6.25,0.25,2.75,1.5,2.0,1.0,1.75,3.0,-0.11,0.2,1.08,1563.76,10.4,41.7,1.75,1.25,2.5,1.75,3.0,6.5,0.0,7.5,2.0,8.5,7.75,6.25,8.25,0.08,0.08,0.95,1063.09,2.8,-39.3
2.94,10.5,4.0,11.0,15.5,14.0,4.75,0.0,0.5,1.0,1.75,0.5,1.5,1.5,-0.11,0.27,1.08,1487.26,13.4,50.1,1.75,1.5,2.5,2.25,3.25,6.75,0.25,7.5,2.25,8.0,7.5,5.5,7.75,0.08,0.08,0.95,1011.54,2.5,-34.8
2.96,10.0,6.0,11.0,17.0,14.0,5.5,0.0,1.0,1.5,2.25,0.75,1.75,2.0,-0.11,0.27,1.08,1445.82,12.3,47.1,1.5,1.0,2.75,2.5,4.75,7.25,0.25,7.5,2.5,7.5,6.75,5.0,6.75,0.14,0.08,0.95,949.94,2.6,-29.5
2.98,10.5,5.75,11.0,17.0,13.5,3.25,0.0,1.0,1.5,2.0,1.75,2.0,2.5,-0.17,0.39,1.2,1398.95,13.5,44.8,3.25,1.0,2.75,3.25,5.5,7.25,0.5,7.25,2.0,7.5,6.0,4.5,6.0,0.14,0.08,0.95,906.24,1.4,-20.7
3.0,11.5,5.25,11.0,13.5,13.5,2.5,0.0,1.5,2.0,1.25,1.0,1.0,1.25,-0.23,0.45,1.33,1341.15,14.7,51.2,2.25,2.0,3.5,3.25,6.0,7.5,1.5,7.25,2.75,7.0,5.75,4.0,5.75,0.08,0.14,0.95,876.67,0.8,-16.5
3.02,10.5,4.75,8.5,9.5,9.0,1.75,0.0,1.0,1.5,1.25,1.0,1.0,1.25,-0.42,0.64,1.58,1154.85,15.6,50.6,2.25,1.75,4.25,4.0,7.5,7.75,1.5,7.5,2.5,6.5,5.75,3.25,5.0,0.08,0.14,0.95,862.3,0.2,-9.9
3.04,9.5,4.5,5.75,7.25,7.25,2.0,0.0,0.25,1.5,1.0,1.0,1.0,1.25,-0.8,1.2,2.33,915.1,15.1,50.2,2.75,1.25,5.0,5.25,7.75,7.75,1.5,7.25,2.25,6.0,5.25,3.25,4.5,0.08,0.14,0.95,877.07,-0.9,-5.1
3.06,8.0,4.0,3.25,6.0,6.5,2.0,0.0,0.0,1.75,0.75,0.5,1.5,2.0,-0.8,0.89,3.14,679.72,12.9,43.7,3.0,2.25,5.0,6.0,8.75,8.0,1.5,7.25,2.75,5.25,5.0,3.0,3.5,0.08,0.14,0.95,916.94,-1.7,2.1
3.08,6.0,3.25,1.0,6.0,6.0,2.0,0.0,0.75,1.5,2.25,0.25,1.75,1.0,-0.67,0.45,2.64,488.33,9.0,35.7,3.0,2.0,5.25,7.5,9.0,8.0,1.75,6.75,2.5,4.75,4.5,2.5,2.75,0.08,0.14,0.95,950.89,-2.6,7.7
3.1,3.5,3.0,1.0,3.0,2.25,0.0,0.0,0.0,1.5,2.0,0.0,1.5,1.25,-1.05,-0.11,2.83,317.65,11.3,25.6,5.25,2.0,6.5,7.75,10.0,8.0,2.25,6.5,2.5,4.25,4.25,2.0,2.5,0.08,0.14,0.95,1002.37,-4.6,15.4
3.12,2.75,1.5,1.75,2.5,5.75,0.0,0.0,0.0,1.5,1.25,1.25,1.75,1.25,-1.3,-0.11,2.27,240.32,9.5,20.1,5.5,1.75,6.75,9.5,10.5,8.25,3.25,5.75,2.0,3.5,4.0,2.0,2.0,0.02,0.14,0.95,1051.39,-5.8,20.7
3.14,1.0,2.25,1.0,0.0,4.25,2.0,0.0,0.0,1.5,1.5,0.75,2.0,1.0,-1.3,-1.67,1.08,168.02,2.6,8.6,6.5,2.5,7.75,10.5,11.0,8.0,3.25,5.5,1.75,3.5,3.25,2.0,1.75,0.02,0.14,0.95,1117.26,-7.0,26.1
3.16,2.0,1.75,1.0,1.0,4.5,1.75,0.0,0.0,1.5,2.25,1.25,1.75,1.0,-0.98,-0.61,1.14,144.39,4.3,9.7,6.75,2.5,8.0,11.0,11.5,8.0,3.75,4.5,1.75,3.25,3.0,1.75,1.75,0.02,0.14,0.95,1167.59,-7.8,29.2
3.18,0.25,1.5,1.0,2.0,2.5,0.0,0.0,0.0,1.25,0.75,1.25,1.0,2.0,-0.48,-0.48,0.08,106.31,6.4,-1.1,7.75,2.75,8.75,11.0,11.5,8.0,3.75,3.75,1.25,3.25,3.0,1.75,1.5,0.02,0.2,0.95,1211.58,-8.8,32.5
3.2,0.0,1.5,1.0,0.0,2.5,1.75,0.0,0.0,1.5,1.5,2.0,1.75,1.5,-0.42,-0.36,0.33,92.35,1.3,-16.3,8.25,2.5,9.0,11.5,12.5,8.0,3.0,3.25,1.25,3.25,3.0,1.5,1.25,0.02,0.2,0.95,1241.03,-9.1,35.0
3.22,1.25,1.75,1.0,2.5,4.25,1.75,0.0,0.0,1.5,2.0,2.0,2.0,2.0,-0.36,-0.42,0.58,128.88,4.0,1.2,9.25,3.5,9.25,13.0,13.0,8.0,2.5,3.25,1.25,0.0,2.75,0.5,1.0,-0.05,0.2,1.02,1260.73,-10.9,46.0
3.24,1.25,1.75,1.0,2.5,3.0,1.75,0.0,0.0,1.5,2.0,1.0,2.0,1.75,-0.36,-0.36,0.83,169.42,4.4,2.5,9.0,2.5,9.0,11.0,11.5,7.25,1.5,0.0,1.0,0.0,0.75,0.5,0.0,-0.05,0.2,1.02,1165.59,-13.2,57.0
3.26,1.25,1.75,1.0,3.75,3.0,1.75,0.0,0.0,1.25,2.25,1.75,2.0,2.0,-0.42,-0.23,0.89,220.86,4.8,1.5,9.25,3.5,0.0,14.0,11.5,7.25,1.0,1.75,0.75,0.25,0.5,0.5,0.75,-0.05,0.27,1.02,1047.38,-7.4,52.2
3.28,1.0,1.75,1.25,3.75,3.5,1.75,0.0,0.0,1.25,2.0,0.5,2.0,2.0,-0.48,-0.05,1.02,249.67,4.6,7.9,10.0,3.0,9.75,12.5,11.5,0.0,0.0,1.75,0.75,0.0,1.0,0.5,0.75,0.02,0.33,1.08,952.82,-17.0,55.8
3.3,1.25,1.75,1.0,3.75,3.75,1.75,0.0,0.0,1.25,2.25,1.5,2.0,2.25,-0.48,0.14,1.14,276.64,4.3,3.0,10.5,4.75,9.25,12.5,11.5,5.5,0.0,1.75,0.5,0.0,0.75,0.5,0.75,0.08,0.33,1.08,948.75,-13.4,56.4
3.32,1.5,1.75,1.0,3.75,3.5,1.5,0.0,0.5,1.5,2.0,1.0,2.0,2.0,-0.42,0.39,1.39,290.29,4.9,5.5,10.5,5.5,9.25,14.0,10.0,5.5,0.0,1.5,0.5,1.75,0.75,1.0,0.75,0.08,0.39,1.2,989.37,-13.3,52.4
3.34,1.75,1.75,1.0,3.75,3.0,1.75,0.0,0.5,1.5,1.5,1.25,2.0,1.75,-0.3,0.52,1.58,302.71,5.9,7.8,12.0,4.75,9.75,12.5,9.25,3.25,0.0,1.75,1.0,1.5,2.5,0.5,0.75,0.14,0.45,1.2,1027.12,-15.3,50.6
3.36,1.5,1.75,1.0,3.75,3.0,2.0,0.0,0.5,1.5,2.0,1.5,2.0,2.0,-0.48,0.89,2.2,307.03,4.6,3.2,11.0,5.0,8.0,9.75,7.75,1.0,0.0,1.75,0.75,1.75,2.5,1.0,0.75,0.27,0.7,1.64,975.95,-16.1,48.1
3.38,0.5,1.5,1.0,1.25,2.5,1.75,0.0,0.75,1.25,1.75,1.25,2.0,2.0,-0.73,1.45,2.83,290.0,1.5,-10.9,9.0,2.75,5.0,5.75,6.0,3.25,0.0,1.75,0.75,1.5,2.25,0.5,0.75,0.77,1.45,3.58,814.17,-12.8,43.3
3.4,0.5,1.5,1.0,1.25,3.5,2.25,0.0,0.0,1.5,2.0,0.5,2.0,1.0,-0.55,2.39,1.89,272.42,1.7,2.8,7.0,2.0,2.5,3.75,3.75,1.25,0.0,1.75,1.0,1.75,2.5,0.75,0.75,0.39,0.64,2.95,597.4,-12.2,31.4
3.42,1.0,1.5,0.5,1.25,2.25,1.25,0.0,0.0,1.0,0.75,0.0,1.5,1.0,0.39,2.7,0.2,236.62,4.7,12.9,2.0,0.5,0.75,2.0,3.0,0.75,0.0,1.0,0.75,0.0,0.75,0.25,0.0,0.7,-0.17,2.64,351.92,-9.2,38.1
3.44,2.25,1.75,0.25,3.75,2.25,1.75,0.0,0.5,1.5,1.25,1.0,2.0,2.0,0.89,2.89,1.08,237.73,5.6,6.5,2.0,1.25,0.0,2.75,1.75,2.0,0.0,1.0,1.25,0.0,1.5,0.5,0.75,0.77,-1.42,2.2,226.54,-5.9,21.1
3.46,2.25,1.75,1.0,3.75,4.25,2.0,0.0,0.75,1.5,1.75,1.25,2.0,2.5,2.14,3.52,0.33,260.57,4.6,7.5,0.5,0.25,0.0,1.25,2.75,1.0,0.0,1.0,0.5,1.5,1.5,0.75,0.5,1.02,-2.11,1.39,122.64,0.7,-5.8
3.48,2.25,1.75,1.0,3.75,3.75,2.0,0.0,0.5,1.5,1.25,1.75,2.0,2.75,3.7,5.39,1.77,293.11,5.3,5.7,1.5,1.25,0.0,2.0,3.25,2.5,0.0,1.75,1.25,1.5,2.0,1.0,0.75,0.2,-1.17,1.33,111.87,-0.8,5.1
3.5,2.25,1.75,1.0,1.25,3.0,1.75,0.0,0.0,1.5,2.0,1.25,3.0,2.75,0.89,1.08,0.89,300.77,4.4,-7.9,0.75,0.25,1.0,1.25,3.25,1.0,0.0,1.75,0.75,0.0,2.0,0.5,0.0,0.33,-0.98,0.39,83.74,-4.6,13.0
3.52,2.25,1.75,1.0,2.5,3.0,1.75,0.0,0.5,1.5,2.25,2.0,5.25,5.25,-0.23,-0.67,3.08,331.38,3.3,-24.3,0.5,0.25,0.0,1.0,2.5,0.75,0.0,0.25,0.75,0.0,0.75,0.5,0.0,0.52,-0.92,0.64,49.41,-3.8,21.5
3.54,0.0,1.75,1.0,3.5,3.0,3.0,0.0,1.25,2.0,5.25,4.0,7.5,7.75,0.52,0.64,1.2,407.79,-0.7,-43.6,2.0,1.0,0.75,1.25,1.5,1.0,0.0,0.5,1.25,0.0,0.75,1.0,0.75,0.27,-0.67,1.14,32.7,-9.7,18.2
3.56,0.25,1.5,0.25,1.75,2.5,4.0,0.0,5.0,4.0,9.0,6.75,9.25,8.5,0.02,0.52,1.7,583.42,-3.2,-54.9,2.0,1.0,2.5,2.0,3.25,0.5,0.0,1.75,1.25,0.0,0.75,1.0,0.75,0.14,-0.36,1.14,70.83,-10.5,24.0
3.58,0.0,2.0,1.75,2.0,3.5,4.25,0.0,7.0,4.25,9.25,8.5,8.75,9.25,0.14,0.08,1.02,802.81,-2.4,-48.6,0.0,0.25,2.75,0.5,3.0,0.0,0.0,0.25,0.75,0.0,0.75,0.5,0.0,0.33,-0.05,0.83,84.43,-13.5,28.6
3.6,0.0,1.5,0.25,1.0,4.5,4.25,0.0,6.5,3.75,6.75,7.75,8.25,9.25,-0.05,0.08,0.95,941.1,-3.8,-51.1,2.75,0.75,1.25,1.5,1.25,1.25,0.0,0.5,1.25,1.0,0.75,1.0,0.0,0.52,0.2,0.77,126.78,-11.4,23.2
3.62,1.75,1.5,1.0,4.25,3.0,5.25,0.0,7.25,4.0,7.0,8.25,8.5,10.0,-0.17,0.08,0.95,1058.79,-1.5,-42.5,0.25,0.25,1.0,0.5,1.25,0.5,0.0,0.5,0.75,0.0,0.75,0.5,0.0,0.2,0.33,1.08,121.67,-8.8,12.0
3.64,2.0,2.25,0.75,2.5,2.25,5.5,0.0,6.75,4.0,8.25,7.25,9.0,8.75,-0.11,0.02,0.95,1085.58,-2.0,-44.0,1.75,1.0,0.5,1.25,1.25,2.0,0.0,0.5,1.25,0.25,0.0,1.0,0.0,0.14,0.33,1.45,138.33,-7.0,29.2
3.66,1.25,2.5,0.75,2.5,4.25,5.25,0.25,7.25,3.75,7.5,7.75,8.25,8.75,-0.11,0.02,0.95,1099.67,-2.3,-40.5,2.0,0.75,2.5,1.25,3.25,1.5,0.0,1.75,1.0,0.0,2.0,0.5,1.0,0.14,0.45,1.52,176.06,-8.1,17.9
3.68,2.75,3.0,1.5,3.5,3.0,5.5,1.5,5.0,4.5,7.0,7.25,9.0,8.75,-0.11,0.02,0.95,1083.93,0.5,-34.8,0.5,0.5,1.5,0.0,2.75,1.0,0.0,1.75,0.75,0.0,0.75,0.5,0.5,0.14,0.64,1.52,181.38,-3.1,12.0
3.7,2.5,3.0,2.75,2.75,2.5,4.5,0.25,5.25,3.75,8.0,7.5,8.25,9.25,-0.11,0.02,0.95,1073.15,0.4,-37.6,1.75,0.25,0.5,0.25,3.0,1.5,0.0,1.25,1.25,3.0,0.75,2.25,1.25,0.27,0.77,1.02,207.34,0.1,-17.2
3.72,1.5,1.5,0.75,1.0,2.25,4.25,0.25,5.75,3.75,7.75,6.75,8.25,8.5,-0.11,0.02,0.95,1005.36,-2.4,-50.3,0.5,1.0,2.25,1.25,2.75,2.0,0.0,2.0,1.5,3.25,3.0,2.25,2.25,-1.98,7.14,0.33,245.64,-1.6,-20.5
3.74,2.5,1.5,1.0,1.0,2.25,4.5,0.25,6.5,4.0,7.25,7.75,7.5,8.25,-0.11,0.02,0.95,944.05,-1.6,-45.8,1.25,0.0,1.25,1.0,2.75,0.0,0.0,1.75,1.25,0.75,3.0,2.0,1.5,-0.92,4.58,0.95,259.36,-5.8,-21.1
3.76,2.5,2.75,1.75,3.75,4.5,5.5,0.5,5.75,4.5,8.0,6.5,8.25,8.75,-0.11,0.02,0.95,927.57,-0.3,-32.5,1.25,0.0,2.5,0.0,3.0,0.75,0.0,1.75,0.75,1.5,2.5,1.25,1.0,-0.11,1.14,1.14,259.66,-5.4,-9.6
3.78,2.5,2.75,1.75,4.25,5.0,5.5,1.0,6.0,5.0,8.0,6.75,7.5,8.5,-0.11,0.02,0.95,932.65,-0.1,-29.8,1.25,0.0,2.5,0.25,3.25,0.5,0.0,1.0,0.75,0.0,0.0,0.75,0.0,-2.61,7.64,1.33,229.38,-11.1,33.0
3.8,2.0,2.5,2.25,4.75,5.75,5.5,1.25,6.0,5.25,8.0,6.75,7.5,8.5,-0.11,0.02,0.95,962.04,0.0,-28.6,2.5,1.0,2.5,1.25,3.0,2.5,0.0,1.75,1.25,1.5,1.5,1.25,1.25,-0.48,2.64,-0.17,246.96,-5.6,9.9
3.82,2.25,2.75,1.0,5.0,2.25,6.0,1.5,6.75,5.5,8.0,8.0,8.25,8.5,-0.11,0.02,0.95,995.13,-0.1,-35.6,4.25,1.25,3.0,2.25,0.25,3.25,0.0,0.75,1.25,1.75,0.75,1.0,1.25,-0.05,-0.61,1.08,264.2,-10.4,21.4
3.84,0.25,3.0,3.25,5.25,6.25,6.25,2.25,6.75,5.75,7.5,7.75,7.75,7.75,-0.11,0.02,0.95,1042.42,0.3,-26.8,6.25,1.25,5.25,3.75,3.25,3.0,0.0,1.75,1.25,1.5,2.5,1.25,0.75,0.64,0.58,1.33,337.65,-12.7,28.8
3.86,1.5,3.0,3.5,5.25,6.5,6.25,2.75,6.75,5.75,7.0,7.5,7.5,7.5,-0.05,0.02,0.95,1071.71,1.2,-22.8,8.25,2.75,5.75,3.75,3.0,2.0,0.0,0.5,1.25,1.5,0.75,1.0,0.75,0.08,0.58,1.2,405.73,-16.9,45.8
3.88,2.25,3.0,3.5,5.75,6.5,6.5,3.0,6.5,5.75,6.75,7.25,6.75,6.75,-0.05,0.02,0.95,1105.57,1.8,-18.4,8.75,3.0,6.5,1.25,0.25,0.75,0.0,1.75,0.75,0.0,0.75,0.5,0.25,0.02,0.39,1.52,425.2,-23.7,57.5
3.9,1.5,2.75,4.5,6.5,7.75,6.75,3.75,6.0,5.75,5.75,6.25,6.0,6.0,-0.05,0.02,0.95,1122.26,2.5,-12.2,9.25,4.25,5.75,1.25,0.0,1.0,0.0,0.25,0.75,0.0,0.75,0.5,0.25,0.14,0.52,1.83,410.2,-25.2,66.4
3.92,1.0,3.0,5.5,7.5,8.0,7.0,4.5,5.75,5.75,5.25,5.5,5.0,5.0,-0.05,0.02,0.95,1129.29,3.4,-5.5,9.25,3.0,4.0,1.25,0.0,0.75,0.0,1.0,0.5,0.0,1.75,0.5,0.75,-0.05,0.58,2.08,383.23,-22.6,52.7
3.94,4.25,3.0,6.5,9.25,9.25,7.25,5.0,5.75,5.5,4.5,4.25,3.5,4.25,-0.11,0.02,0.95,1169.15,5.6,8.3,9.5,2.75,1.25,1.25,0.0,0.75,0.0,0.25,0.5,1.5,0.75,1.0,0.0,0.14,0.52,1.95,339.4,-20.9,53.8
3.96,5.25,3.0,8.0,12.0,9.5,7.25,4.75,4.75,4.5,3.75,2.25,3.5,3.25,-0.11,0.08,0.95,1212.49,7.7,19.0,9.0,3.25,1.0,1.25,0.0,0.5,0.0,1.5,1.0,1.5,2.0,1.0,1.0,-0.17,0.95,1.39,321.17,-16.2,32.4
3.98,5.5,3.5,9.0,12.5,12.0,6.75,6.0,3.0,3.75,2.75,1.25,2.0,3.5,-0.05,0.08,0.95,1249.07,9.0,29.0,7.5,1.75,0.0,1.25,0.0,0.75,0.0,0.0,0.75,1.5,1.0,1.0,0.75,-0.42,1.52,0.89,290.91,-16.9,35.1
4.0,5.75,3.5,10.0,13.0,11.5,6.75,6.25,2.75,2.25,2.5,2.0,2.0,2.0,-0.05,0.08,1.08,1258.48,10.4,33.8,6.25,1.75,0.75,1.0,0.0,2.0,0.0,1.75,1.0,0.0,2.75,0.5,0.75,-0.05,0.08,0.2,273.13,-13.1,26.4
4.02,7.5,3.5,10.0,14.0,12.5,6.25,6.25,0.75,2.25,0.5,2.5,1.75,3.0,-0.17,0.14,1.27,1273.77,12.3,38.9,2.0,1.0,0.0,0.0,0.0,0.5,0.0,1.75,0.75,0.0,2.5,1.0,0.75,-0.73,-0.17,-1.48,217.05,-7.1,-17.1
4.04,8.75,4.25,10.5,12.5,11.0,4.5,5.0,1.0,2.25,0.5,1.0,2.0,1.5,-0.11,0.14,1.2,1232.87,14.4,45.5,2.0,0.25,1.0,0.0,0.0,0.5,0.0,0.0,0.75,0.0,1.0,0.75,0.0,-0.67,-0.73,-2.11,149.29,-20.2,17.0
4.06,10.5,5.25,11.0,12.5,9.5,3.75,3.0,2.25,2.25,1.75,2.25,1.75,3.25,-0.17,0.2,1.2,1233.0,13.8,38.5,0.75,0.25,1.0,0.0,0.0,0.75,0.0,0.0,0.75,0.0,0.75,0.5,0.0,-1.42,1.2,-1.48,78.83,-15.5,9.2
4.08,11.5,6.0,12.0,12.5,9.5,2.25,1.5,2.25,2.25,1.0,2.25,2.0,3.0,-0.17,0.27,1.33,1230.77,15.4,41.8,0.25,0.5,1.0,0.0,0.0,1.0,0.0,0.0,0.75,0.0,0.0,0.5,0.0,-0.11,0.95,-1.48,27.12,-11.6,21.6
4.1,12.0,6.0,11.5,9.5,8.5,2.5,0.25,1.75,2.25,1.75,2.0,2.0,3.0,-0.23,0.33,1.33,1203.72,15.2,40.9,0.5,0.25,1.25,0.0,0.0,0.75,0.0,0.0,0.75,0.0,0.75,0.5,0.0,-0.3,1.33,-1.11,8.62,-15.7,7.6
4.12,12.5,6.25,11.0,7.75,8.0,2.5,0.0,1.0,2.25,2.25,2.0,2.0,3.0,-0.23,0.45,1.27,1149.16,15.3,40.8,0.75,0.5,1.5,0.0,0.0,0.75,0.0,0.25,0.5,0.25,0.25,0.5,0.25,-0.36,1.77,-0.67,15.24,-13.8,16.3
4.14,12.5,7.25,9.25,7.25,7.25,2.75,0.0,1.0,2.25,2.25,2.0,2.0,3.0,-0.23,0.45,1.14,1082.71,14.7,40.8,0.25,0.25,0.5,0.0,0.0,0.5,0.0,0.0,0.75,0.0,0.75,0.5,0.0,-0.36,1.77,-0.23,11.88,-12.0,-12.2
4.16,11.5,7.25,7.5,6.0,6.5,2.25,0.0,2.0,2.0,1.0,2.0,1.75,2.25,-0.05,0.58,1.02,974.29,14.7,43.1,1.25,0.0,0.25,0.0,0.0,0.75,0.0,0.0,0.5,0.25,0.75,0.5,0.0,-0.23,1.64,0.64,14.89,-11.9,1.6
4.18,9.5,6.0,5.5,5.75,6.25,1.75,0.0,0.5,1.75,0.5,1.25,2.0,1.5,-0.05,0.58,0.89,817.77,15.3,46.7,0.25,0.5,0.25,0.0,0.0,0.5,0.0,0.0,0.5,0.0,0.75,0.5,0.0,0.2,1.64,0.95,12.89,-10.0,-7.1
4.2,8.75,6.75,1.75,5.75,5.0,2.5,0.0,0.75,2.25,1.25,1.5,1.75,1.5,-0.11,0.64,0.83,679.5,11.9,41.3,0.0,0.5,0.25,0.0,0.25,0.75,0.0,0.0,0.75,0.0,0.75,0.5,0.0,0.52,1.45,1.14,16.91,-5.4,-8.4
4.22,9.25,6.0,0.75,5.25,4.25,1.75,0.0,0.75,1.75,1.0,2.0,2.25,3.0,-0.36,0.83,0.83,567.11,11.4,32.3,0.5,0.5,0.0,0.0,0.25,0.75,0.0,0.25,0.5,0.0,0.75,0.25,0.0,0.39,1.02,0.77,27.46,-4.7,6.9
4.24,8.25,5.75,1.0,5.0,6.0,2.5,0.0,0.75,2.25,1.75,2.0,2.0,2.75,-0.48,0.95,1.02,514.69,9.4,30.3,0.0,0.25,1.0,0.0,0.5,0.75,0.0,0.25,0.75,0.0,0.5,0.5,0.0,-0.55,-0.55,-2.3,41.68,-8.5,3.0
4.26,7.0,4.5,0.75,3.75,5.75,1.75,0.0,0.5,2.25,1.5,2.25,2.0,3.0,-0.48,0.95,1.14,462.23,8.9,23.7,0.0,0.25,0.75,0.0,0.5,1.0,0.0,0.25,0.75,0.25,0.75,0.5,0.0,-1.61,-1.92,-2.17,60.46,-4.4,-6.1
4.28,4.25,3.0,0.0,0.0,2.5,1.75,0.0,0.5,1.5,0.0,1.0,0.5,1.25,-0.48,0.58,1.08,340.6,8.4,34.2,0.0,0.25,1.25,0.0,0.5,0.75,0.0,0.25,0.75,0.25,0.75,0.5,0.0,-1.61,-1.3,-0.86,72.74,-8.9,-1.4
4.3,2.75,2.5,0.0,1.0,2.25,1.75,0.0,0.5,1.0,0.0,0.25,1.0,0.0,0.08,-0.55,0.89,236.96,8.2,43.8,0.0,0.25,1.0,0.0,0.25,0.75,0.0,0.25,0.75,0.25,0.75,0.5,0.0,-1.05,-1.73,-1.23,76.6,-8.1,-8.1
4.32,2.5,2.75,0.25,3.75,2.25,3.25,0.0,0.5,1.5,0.0,0.75,1.25,1.25,-0.48,0.14,1.02,181.19,6.2,28.9,0.5,0.25,1.5,0.0,0.5,0.5,0.0,0.25,0.75,0.25,0.5,0.5,0.0,-0.67,-0.98,-1.23,82.29,-13.8,11.5
4.34,2.5,2.25,0.25,3.75,3.75,3.0,0.0,1.0,1.5,2.25,1.5,1.75,2.5,1.02,1.39,0.64,192.23,2.6,6.8,0.5,0.25,1.25,0.0,1.25,0.75,0.0,0.25,0.75,0.25,0.75,0.5,0.0,-0.23,0.33,-0.3,91.27,-9.2,12.7
4.36,2.5,1.75,1.25,3.5,3.75,3.25,0.0,1.0,1.5,0.0,1.75,1.75,2.75,0.52,1.58,0.64,223.34,5.0,12.2,0.5,0.5,1.25,0.0,1.5,1.25,0.0,0.5,0.75,0.75,0.75,0.5,0.0,-0.17,1.95,0.39,109.53,-4.8,11.2
4.38,2.5,1.5,1.25,3.5,4.25,3.25,0.0,1.0,1.5,2.25,1.25,1.75,2.25,0.14,1.33,0.45,265.29,3.3,8.8,0.75,0.25,1.75,0.0,2.25,1.0,0.0,0.5,0.75,0.5,0.75,0.5,0.0,-0.42,2.02,0.27,130.53,-7.7,19.4
4.4,2.25,1.25,1.25,1.0,3.75,3.0,0.0,0.75,1.5,1.0,1.5,1.75,2.0,0.39,0.89,-0.42,272.31,3.3,5.2,0.5,0.5,1.25,0.5,2.25,1.0,0.0,0.75,0.75,0.5,0.75,0.5,0.0,-0.42,2.2,0.2,146.5,-5.4,18.0
4.42,2.5,1.5,1.0,0.75,3.0,3.0,0.0,1.0,1.5,1.0,2.0,1.75,2.25,0.7,1.08,-0.55,269.82,3.1,0.4,0.75,0.25,1.25,1.25,1.5,1.5,0.0,0.75,0.75,0.75,0.75,0.5,0.0,-0.55,2.08,-0.17,159.27,-5.7,16.3
4.44,2.5,1.75,1.0,1.5,3.0,2.5,0.0,1.0,1.5,1.0,1.5,1.75,2.5,1.08,1.2,-0.8,263.26,3.9,3.3,0.75,0.25,2.25,1.0,2.25,1.25,0.0,1.0,0.75,1.25,1.0,0.5,0.0,-0.48,2.2,0.08,176.63,-6.8,14.8
4.46,1.5,1.75,1.0,2.5,2.5,2.5,0.0,1.0,1.5,1.0,1.25,1.75,3.0,1.27,1.33,-0.61,265.12,2.9,-1.2,0.25,0.25,2.75,0.5,1.5,0.75,0.0,1.25,0.75,0.5,1.5,0.5,0.0,0.14,1.64,0.27,180.88,-9.9,8.3
4.48,2.25,1.25,1.0,1.0,3.0,2.0,0.0,1.0,1.5,1.0,1.0,1.5,2.75,1.33,0.77,-0.61,262.68,3.2,-0.6,1.25,0.25,2.5,1.25,2.5,2.25,0.0,1.25,1.0,1.75,1.25,0.75,0.5,0.27,1.27,0.33,209.12,-4.9,9.0
4.5,2.0,1.5,1.0,1.25,3.5,3.0,0.0,1.5,1.5,2.0,1.25,1.25,3.0,2.27,-0.3,-0.17,280.3,0.5,-1.9,1.0,1.25,2.75,1.0,3.0,2.0,0.0,1.75,0.75,1.75,2.0,1.0,0.75,0.33,0.77,0.45,240.37,-4.7,6.8
4.52,2.25,1.5,1.0,0.75,2.5,2.25,0.0,1.25,1.5,2.0,1.5,1.75,3.0,2.58,-0.61,0.39,288.08,1.9,-9.4,1.25,0.75,2.5,1.25,3.0,2.0,0.0,1.5,0.75,1.5,0.75,1.0,0.0,-0.23,-0.8,-0.86,258.38,-5.6,18.6
4.54,2.25,1.25,1.25,1.75,2.5,2.5,0.0,1.0,1.5,2.25,1.5,1.75,3.0,1.95,-0.36,0.02,289.98,2.7,-6.7,1.25,0.5,2.75,0.75,3.0,2.0,0.0,1.75,0.75,1.5,1.25,1.0,0.25,-0.67,-1.11,-1.3,266.14,-5.2,11.4
4.56,2.25,2.0,1.0,0.25,2.5,1.5,0.0,1.25,1.5,1.5,1.75,1.75,2.75,1.27,-0.11,-0.3,277.29,3.4,-7.8,2.0,0.75,2.75,1.25,3.0,1.25,0.0,1.75,0.75,1.5,0.75,1.0,0.0,-0.8,-1.23,-1.23,267.07,-8.1,21.0
4.58,2.25,1.25,1.5,1.0,2.5,1.5,0.0,1.25,1.0,1.25,1.25,1.5,2.75,0.58,0.27,-0.55,268.01,4.3,-2.8,1.25,0.75,2.75,1.25,3.0,2.0,0.0,1.5,0.75,1.5,1.0,1.0,0.0,-0.8,-1.55,0.14,264.47,-6.2,17.9
4.6,2.25,1.5,1.25,1.75,2.5,1.75,0.0,1.0,1.25,2.25,1.75,1.75,2.75,0.39,0.14,-0.73,269.92,3.8,-5.9,1.25,0.75,2.75,1.25,3.0,1.0,0.0,1.5,0.75,1.75,0.75,1.25,0.0,-0.3,-1.17,0.39,258.05,-7.5,15.0
4.62,2.25,1.5,1.5,1.0,2.5,2.0,0.0,1.25,1.5,2.0,1.25,2.0,2.75,0.64,0.33,-1.11,274.47,3.4,-6.6,2.5,1.0,2.5,0.75,3.0,0.5,0.0,1.75,0.75,0.5,1.0,1.0,0.0,0.2,-0.42,0.14,252.08,-11.2,26.7
4.64,2.25,1.25,1.0,1.0,2.5,2.0,0.0,1.25,1.5,1.75,1.25,1.75,2.75,0.39,0.33,-0.92,277.69,2.6,-7.5,1.5,0.5,2.5,1.25,3.0,0.5,0.0,1.5,0.75,1.5,0.75,0.75,0.0,0.52,0.45,-0.17,241.72,-8.6,19.1
4.66,2.25,1.5,1.25,1.25,3.0,2.0,0.0,1.25,1.5,1.25,1.75,1.75,2.75,0.27,0.33,-0.86,281.14,3.7,-3.0,1.5,1.0,2.5,1.25,3.0,1.0,0.0,1.75,0.75,1.5,1.5,1.0,0.75,0.45,2.39,-0.98,242.73,-6.6,9.8
4.68,2.25,1.25,1.0,1.0,2.5,2.25,0.0,1.25,1.5,1.75,1.25,1.75,3.0,0.33,0.33,-0.48,280.03,2.1,-8.3,1.5,0.75,2.5,1.0,3.0,0.75,0.0,1.5,0.75,1.5,2.0,0.75,0.0,-0.23,6.95,-2.17,238.91,-8.2,13.0
4.7,2.25,1.5,1.25,1.0,2.5,2.0,0.0,1.0,1.5,2.0,1.5,2.25,2.75,0.14,0.77,0.33,281.7,3.4,-9.0,1.25,0.25,2.5,0.25,0.25,0.0,0.0,0.0,0.5,0.25,0.75,0.5,0.0,0.7,4.95,-0.42,196.92,-24.6,27.6
4.72,2.25,1.5,1.5,0.0,2.5,2.0,0.0,1.0,1.5,2.0,1.25,1.75,3.0,-0.3,0.77,1.02,277.98,2.7,-9.5,1.25,0.5,1.5,1.25,3.0,1.0,0.0,1.25,0.75,1.5,1.25,1.0,0.25,0.14,2.45,-0.55,186.57,-5.2,9.0
4.74,2.25,1.25,1.75,0.0,2.5,2.5,0.0,1.0,1.5,2.0,1.25,1.75,2.75,-0.48,0.27,1.14,275.67,2.6,-7.8,1.25,1.0,2.5,1.25,3.0,1.25,0.0,1.5,0.75,1.5,0.75,1.0,0.75,-0.67,1.02,-0.3,192.03,-6.0,13.3
4.76,2.25,1.25,1.75,0.0,2.25,2.0,0.0,1.0,1.5,2.0,1.75,1.75,3.0,-0.17,0.02,0.64,273.52,3.2,-12.4,1.5,0.5,2.75,1.25,3.0,2.75,0.0,1.5,0.75,1.5,0.75,1.0,1.0,-0.48,-0.11,0.2,220.54,-4.2,12.5
4.78,2.25,1.5,1.0,1.0,2.25,2.0,0.0,1.75,1.5,2.0,1.25,1.75,2.5,0.08,-0.23,0.08,274.02,2.3,-7.4,1.25,1.0,2.75,1.25,3.0,2.0,0.0,1.5,0.75,1.5,1.25,1.0,0.75,-0.36,-0.36,0.02,239.65,-5.5,12.4
4.8,2.25,1.5,1.25,1.25,2.5,2.25,0.0,1.0,1.5,1.5,1.25,1.75,2.75,0.14,-0.55,-0.48,276.46,3.5,-2.9,1.25,0.75,2.5,0.75,3.0,1.5,0.0,1.5,0.75,1.5,0.75,1.0,0.0,-0.23,-0.23,-0.3,245.21,-6.1,16.8
4.82,2.25,1.5,1.0,1.0,2.5,2.0,0.0,1.25,1.5,1.0,1.25,1.75,2.25,-0.05,-0.55,-0.55,272.54,3.8,-0.8,1.5,1.0,2.5,1.25,3.0,1.75,0.0,1.5,0.75,1.5,0.75,1.0,0.0,-0.3,0.08,-0.48,245.19,-6.5,20.7
4.84,2.25,1.25,1.0,1.0,2.5,2.25,0.0,1.0,1.25,0.75,1.25,1.75,2.0,0.64,-0.17,-0.92,263.99,4.1,1.7,1.0,0.75,2.75,1.25,3.0,1.25,0.0,1.25,0.75,1.5,0.75,1.0,0.75,-0.36,0.52,-0.55,240.18,-6.3,12.3
4.86,2.25,1.5,1.25,1.0,2.5,2.25,0.0,1.25,1.5,0.5,1.25,1.75,2.25,1.33,-0.05,-1.11,261.03,4.5,2.3,1.5,0.25,2.5,1.25,3.0,1.75,0.0,1.25,0.75,1.75,0.75,1.0,0.0,-0.55,0.89,-0.48,239.04,-6.2,16.3
4.88,2.25,1.25,1.25,1.0,2.5,2.5,0.0,1.0,1.5,0.5,0.75,1.75,2.25,1.02,-0.42,-0.86,257.23,4.1,3.9,1.5,1.0,2.75,1.0,3.0,1.5,0.0,1.5,0.75,1.75,1.25,0.75,0.25,-0.67,1.14,-0.3,242.32,-6.7,16.4
4.9,2.0,1.5,1.0,1.0,2.5,1.75,0.0,1.0,1.5,0.5,0.75,1.75,2.25,0.64,-0.67,-0.42,251.11,4.4,2.0,1.25,0.75,2.5,1.0,3.0,1.75,0.0,1.5,0.75,1.5,0.75,1.0,0.75,-0.73,1.14,-0.23,243.99,-4.9,11.9
4.92,2.25,1.75,1.0,2.25,2.5,1.75,0.0,1.25,1.5,1.0,1.25,1.75,2.75,1.2,-0.36,-0.3,260.48,4.6,0.9,1.25,1.0,2.5,1.0,3.0,2.0,0.0,1.25,0.75,1.5,1.75,0.75,0.5,-0.73,1.08,-0.23,249.83,-5.5,12.9
4.94,2.25,1.25,1.0,1.5,2.5,1.75,0.0,1.0,1.5,1.0,1.25,1.75,2.75,1.7,0.02,-0.17,262.97,4.2,-3.3,1.25,0.75,2.5,0.0,3.0,2.0,0.0,1.25,0.75,0.0,0.5,0.25,0.0,-0.67,0.89,-0.17,234.53,-7.1,36.2
4.96,2.25,1.75,1.0,2.0,2.5,1.75,0.0,1.0,1.5,1.0,1.25,1.75,2.5,2.58,0.95,-0.17,270.39,5.0,2.0,0.0,0.25,2.0,1.0,0.0,2.0,0.0,0.0,0.5,0.0,0.75,0.5,0.0,-0.67,0.77,-0.11,185.46,-10.7,21.1
4.98,2.5,1.25,1.0,1.25,2.5,1.75,0.0,1.0,1.5,1.0,1.25,1.75,2.75,2.89,1.7,-0.23,269.47,4.4,-2.9,1.5,1.0,2.0,1.25,0.0,0.75,0.0,0.0,0.5,0.0,0.75,0.5,0.0,-0.55,0.7,-0.11,147.01,-20.1,40.8
5.0,2.25,1.5,1.0,1.25,3.0,1.5,0.0,1.0,1.5,0.25,1.25,1.75,2.75,2.02,1.39,-0.3,268.78,5.0,1.1,1.25,0.0,2.75,1.0,3.0,2.0,0.0,1.5,0.75,1.5,1.5,1.0,0.0,-0.55,0.7,-0.05,158.47,-5.8,10.7
5.02,1.75,1.0,1.0,1.75,2.5,1.75,0.0,1.0,1.5,1.0,1.25,1.75,2.5,0.95,0.83,-0.36,263.37,3.8,-4.9,1.5,1.0,2.75,0.0,3.0,0.75,0.0,1.5,0.75,1.5,1.75,1.0,0.25,-0.55,0.7,-0.05,181.65,-7.8,9.6
5.04,2.5,1.25,1.0,1.0,3.0,1.75,0.0,1.5,1.5,1.0,1.0,1.75,2.75,0.39,0.52,-0.3,265.97,3.4,-2.1,0.25,0.0,2.5,0.0,3.0,0.75,0.0,1.25,0.5,0.25,2.0,1.0,0.75,-0.61,0.83,-0.11,192.15,-6.2,-2.8
5.06,2.25,1.0,1.0,1.5,3.0,1.5,0.0,1.5,1.5,1.0,1.25,1.75,2.75,0.27,0.39,-0.23,269.17,3.7,-4.3,0.75,0.5,2.75,0.75,3.0,1.75,0.0,1.25,0.75,1.5,2.0,1.0,0.75,-0.67,0.89,-0.17,210.72,-5.0,2.8
5.08,2.0,1.5,1.0,1.25,3.0,2.0,0.0,1.0,1.5,1.0,1.25,1.75,2.75,0.2,0.33,-0.17,272.55,3.3,-1.9,1.25,0.5,2.5,1.0,3.0,2.0,0.0,0.0,0.75,1.5,1.5,1.0,0.75,-0.67,0.89,-0.23,218.26,-6.7,11.6
5.1,2.25,1.25,1.0,1.75,3.0,1.5,0.0,1.0,1.25,1.0,1.0,1.75,2.75,0.27,0.33,-0.17,272.35,4.3,0.0,1.0,1.0,2.5,1.0,3.0,2.0,0.0,1.0,0.75,1.5,1.5,1.0,0.5,-0.61,0.89,-0.3,229.3,-5.4,11.9
5.12,2.25,1.5,1.0,1.25,2.5,1.25,0.0,1.0,1.25,1.25,1.0,1.75,2.5,0.33,0.27,-0.23,267.8,4.6,-1.8,1.25,1.0,2.5,1.25,3.0,2.0,0.0,1.0,0.75,1.5,1.25,1.0,0.25,-0.55,0.83,-0.3,237.92,-6.2,16.9
5.14,2.0,1.5,1.0,1.5,2.5,1.75,0.0,1.0,1.5,1.75,1.0,1.75,2.5,0.45,0.27,-0.42,266.45,3.4,-3.6,1.25,1.0,2.5,1.25,3.0,2.0,0.0,1.25,0.75,1.5,0.75,1.0,0.25,-0.55,0.83,-0.3,247.66,-5.7,18.7
5.16,2.25,1.75,1.0,2.5,2.5,1.75,0.0,0.75,1.5,1.0,1.25,1.75,2.25,0.7,0.39,-0.55,268.01,5.8,5.4,1.25,1.0,2.5,1.25,3.0,2.0,0.0,1.25,0.75,1.5,0.75,0.75,0.0,-0.61,0.77,-0.3,249.41,-6.0,22.6
5.18,2.25,1.25,1.0,1.0,2.5,0.0,0.0,0.75,0.75,0.0,1.25,1.25,2.0,0.89,0.52,-0.67,249.91,9.0,6.9,1.25,0.25,2.75,1.0,2.75,2.0,0.0,1.5,0.75,1.5,1.75,0.75,0.0,-0.61,0.77,-0.23,251.08,-6.1,11.9
5.2,2.25,1.25,1.0,1.5,2.5,1.75,0.0,1.0,1.0,0.75,1.0,1.75,2.75,1.02,0.58,-0.67,247.57,4.2,-0.5,1.25,1.0,2.5,1.25,3.0,2.0,0.0,1.5,0.75,1.5,1.25,0.75,0.0,-0.61,0.77,-0.17,252.71,-5.8,19.0
5.22,2.25,1.75,1.0,2.0,2.25,2.0,0.0,0.5,1.5,1.0,1.25,1.75,2.75,1.02,0.58,-0.48,251.05,5.1,1.3,1.25,1.0,2.5,1.25,3.0,1.75,0.0,1.25,0.75,1.5,1.0,1.0,0.0,-0.67,0.77,-0.17,247.25,-6.5,19.1
5.24,2.0,1.5,1.0,1.5,2.5,1.75,0.0,0.5,1.5,1.0,0.75,1.75,1.0,0.89,0.52,-0.36,249.33,6.2,11.1,1.5,0.75,2.75,1.0,3.0,2.0,0.0,1.0,0.75,1.5,1.75,1.0,0.0,-0.67,0.77,-0.23,245.12,-7.2,16.1
5.26,2.25,1.5,1.0,2.5,3.0,1.75,0.0,1.0,1.5,1.0,1.25,1.75,2.5,0.83,0.45,-0.23,261.49,4.9,3.6,1.5,1.25,2.75,1.25,3.0,2.0,0.0,1.0,0.75,1.5,2.0,1.0,0.0,-0.61,0.83,-0.3,251.66,-7.6,17.8
5.28,2.0,1.5,1.0,1.0,2.5,1.5,0.0,1.0,1.5,0.75,1.25,1.75,2.75,0.77,0.45,-0.17,261.15,4.2,-4.4,1.25,0.75,2.5,1.25,3.0,1.75,0.0,1.0,0.75,1.5,2.0,1.0,0.0,-0.61,0.89,-0.36,251.99,-7.0,13.4
5.3,2.25,1.25,1.0,1.75,3.0,1.75,0.0,1.0,1.25,0.75,1.25,1.75,2.75,0.77,0.39,-0.17,266.93,4.3,0.3,1.25,0.75,2.5,1.0,3.0,1.75,0.0,1.5,0.75,1.5,2.0,1.0,0.0,-0.55,0.89,-0.36,248.8,-6.2,11.2
5.32,2.25,1.5,1.0,1.25,1.75,1.5,0.0,1.0,1.0,0.5,1.25,1.75,2.5,0.77,0.39,-0.17,256.82,5.5,-1.4,2.0,0.75,2.5,1.0,3.0,1.75,0.0,1.0,0.75,1.5,2.0,1.0,0.0,-0.55,0.83,-0.36,248.5,-8.0,16.1
5.34,2.0,1.0,1.0,1.25,2.5,1.75,0.0,1.25,1.5,0.75,1.25,1.75,2.5,0.77,0.39,-0.3,256.8,3.8,-4.9,1.0,0.5,2.5,1.25,3.0,1.75,0.0,1.0,0.75,1.5,2.0,1.0,0.0,-0.55,0.83,-0.3,244.08,-6.5,10.9
5.36,2.25,1.75,1.0,2.0,2.5,1.75,0.0,0.75,1.5,0.5,1.0,1.75,2.75,0.89,0.45,-0.36,258.23,5.4,4.0,1.25,1.0,2.5,1.0,3.0,1.5,0.0,1.5,0.75,1.5,2.0,0.75,0.0,-0.55,0.83,-0.3,242.77,-6.6,14.0
5.38,2.25,1.0,1.0,1.5,2.5,1.75,0.0,1.0,1.5,0.5,1.25,1.75,2.5,0.89,0.45,-0.42,258.79,4.9,-1.3,1.25,1.0,2.5,1.0,3.0,1.25,0.0,1.25,0.75,1.5,2.25,0.75,0.0,-0.61,0.77,-0.3,241.18,-7.4,13.2
5.4,2.25,1.5,1.0,1.75,2.5,1.75,0.0,1.0,1.25,0.25,1.25,1.75,2.5,0.83,0.45,-0.42,261.38,5.4,3.5,1.5,0.75,2.5,1.25,3.0,1.5,0.0,1.25,0.75,1.5,2.0,0.75,0.75,-0.61,0.77,-0.23,244.36,-6.5,9.9
5.42,2.25,1.5,1.0,1.25,2.5,1.25,0.0,0.75,1.25,0.5,1.25,1.75,2.5,0.83,0.45,-0.36,259.09,5.8,0.7,2.0,0.75,2.75,1.0,3.0,1.5,0.0,1.0,0.75,1.5,2.0,1.0,0.75,-0.61,0.77,-0.23,248.33,-7.9,11.2
5.44,2.25,1.5,1.0,1.75,3.0,1.75,0.0,0.75,1.25,0.25,1.0,1.75,2.5,0.83,0.39,-0.36,257.5,5.4,6.6,1.25,1.0,2.75,1.25,2.75,1.5,0.0,1.0,0.75,1.5,2.0,0.75,0.75,-0.61,0.77,-0.23,249.82,-7.2,10.7
5.46,2.0,1.75,1.0,2.0,2.5,1.75,0.0,1.0,1.5,0.5,1.0,1.75,2.5,0.83,0.39,-0.3,258.97,5.1,3.8,1.25,0.75,2.5,0.75,3.0,1.5,0.0,1.0,0.75,1.5,2.25,0.75,0.75,-0.61,0.77,-0.23,247.6,-6.2,6.7
5.48,2.0,1.25,1.0,1.75,2.5,1.75,0.0,1.0,1.25,0.5,1.0,1.75,2.75,0.77,0.39,-0.3,260.6,4.3,-0.4,1.25,0.75,2.75,1.25,3.0,1.75,0.0,1.0,0.75,1.5,2.0,1.0,0.75,-0.61,0.77,-0.23,248.19,-6.6,8.8
5.5,2.25,1.5,1.0,1.25,2.5,1.0,0.0,0.75,1.0,0.75,1.0,1.75,2.25,0.77,0.45,-0.36,253.13,6.0,2.4,1.0,1.0,2.75,1.25,3.0,1.5,0.0,1.0,0.75,1.5,2.0,0.75,0.75,-0.61,0.77,-0.3,247.69,-6.6,10.3
5.52,2.25,1.5,1.0,1.75,2.5,1.75,0.0,1.0,1.25,0.5,1.25,1.75,2.25,0.77,0.45,-0.36,255.17,5.4,4.0,1.25,0.5,2.5,1.25,2.75,1.5,0.0,1.0,0.75,1.5,2.0,1.0,0.75,-0.61,0.77,-0.23,246.23,-6.6,5.6
5.54,2.0,1.25,1.0,1.75,2.5,1.75,0.0,0.75,1.5,1.0,1.0,1.75,2.25,0.83,0.52,-0.3,254.14,4.7,0.5,1.5,0.75,2.5,1.0,3.0,1.5,0.0,1.25,0.75,1.5,2.0,0.75,0.5,-0.61,0.7,-0.23,245.16,-6.7,10.9
5.56,2.0,1.75,1.0,2.25,2.5,1.75,0.0,1.0,1.5,0.75,1.0,1.75,2.5,0.77,0.58,-0.36,261.89,5.0,3.5,0.75,1.0,2.5,1.25,2.75,1.25,0.0,1.25,0.75,1.5,2.0,1.0,0.0,-0.61,0.7,-0.23,240.44,-7.0,10.2
5.58,0.75,1.25,1.0,1.75,1.75,0.5,0.0,0.5,1.25,1.0,0.0,1.75,1.25,0.7,0.58,-0.36,238.96,6.3,1.1,1.25,0.5,2.75,1.0,2.75,1.0,0.0,1.0,0.75,1.5,2.0,1.0,0.25,-0.61,0.7,-0.23,235.27,-8.4,8.4
5.6,2.25,1.5,1.0,1.25,2.5,1.25,0.0,1.0,1.25,1.0,1.0,1.75,2.5,0.7,0.58,-0.42,239.65,4.9,-0.8,1.25,1.0,2.5,1.0,3.0,1.25,0.0,1.0,0.75,1.5,2.0,1.0,0.0,-0.61,0.77,-0.23,232.63,-7.8,13.4
5.62,2.25,1.5,0.75,1.75,2.25,1.75,0.0,0.5,1.0,0.5,0.25,1.75,1.25,0.64,0.58,-0.48,228.56,6.5,16.6,1.0,1.0,2.5,1.0,3.0,1.25,0.0,1.25,0.75,1.5,2.0,1.0,0.0,-0.61,0.89,-0.23,232.27,-7.0,11.4
5.64,2.25,1.75,1.0,2.25,2.25,1.75,0.0,0.75,1.5,1.25,0.25,1.75,1.0,0.64,0.58,-0.48,236.56,6.6,15.3,0.75,1.0,2.5,1.25,3.0,1.25,0.0,1.0,0.75,1.5,2.0,0.75,0.0,-0.61,0.95,-0.23,230.67,-7.1,13.6
5.66,2.25,1.25,1.0,1.5,2.5,1.75,0.0,1.0,1.25,1.25,1.0,1.75,2.25,0.64,0.58,-0.48,242.9,4.2,0.0,1.75,0.75,2.5,1.25,3.0,1.0,0.0,1.0,0.75,1.5,2.0,0.75,0.75,-0.61,0.95,-0.23,234.66,-8.0,11.1
5.68,2.25,1.75,1.0,1.25,2.5,1.25,0.0,0.75,1.25,1.25,1.0,1.75,2.0,0.64,0.52,-0.48,250.19,5.5,3.0,1.0,0.75,2.5,1.0,3.0,0.75,0.0,1.0,0.75,1.5,2.0,0.75,0.25,-0.55,0.95,-0.3,231.62,-7.9,10.1
5.7,2.25,1.5,1.0,2.0,2.5,1.75,0.0,0.75,1.25,1.0,1.25,1.75,2.25,0.7,0.52,-0.42,256.86,5.3,3.3,1.5,0.75,2.5,1.25,3.0,0.5,0.0,1.0,0.75,1.5,2.0,1.0,0.75,-0.48,0.95,-0.36,233.29,-8.5,7.5
5.72,2.5,1.5,1.0,2.75,2.5,3.5,0.0,1.75,2.5,2.0,1.25,2.5,1.5,0.7,0.52,-0.42,283.94,3.4,1.2,1.25,0.75,2.5,1.25,3.0,0.5,0.0,1.0,0.75,1.5,2.0,1.0,1.0,-0.42,0.89,-0.36,233.0,-7.8,4.5
5.74,0.0,0.0,0.25,0.0,0.0,4.0,3.0,0.0,1.75,1.25,0.0,1.75,0.0,0.7,0.52,-0.42,250.44,-1.2,-16.5,1.25,0.75,2.5,1.25,3.0,0.75,0.0,1.0,0.5,1.5,2.0,0.75,0.25,-0.42,0.89,-0.36,232.53,-8.3,12.9
5.76,0.0,0.0,1.25,0.0,3.0,0.0,1.0,5.0,0.0,0.0,2.5,0.0,0.0,0.7,0.52,-0.42,223.88,-0.3,-7.8,0.75,1.0,2.5,1.0,3.0,0.5,0.0,1.0,0.75,1.5,2.0,1.0,0.5,-0.42,0.83,-0.23,229.93,-7.7,6.1
5.78,2.25,1.25,2.25,1.25,2.5,1.75,0.75,2.0,1.25,1.25,1.25,2.5,1.75,0.7,0.52,-0.36,230.2,6.2,-0.4,2.0,1.0,2.5,1.25,2.75,1.0,0.0,1.0,0.5,1.5,2.0,0.75,0.0,-0.48,0.77,-0.17,231.7,-9.6,19.3
5.8,2.25,1.5,1.0,1.0,2.5,1.75,0.0,0.75,1.25,0.0,1.0,1.0,2.25,0.7,0.58,-0.36,232.94,5.6,10.8,1.25,1.0,2.5,1.25,3.0,0.75,0.0,0.75,0.75,1.5,2.0,0.75,0.0,-0.55,0.77,-0.23,231.06,-9.2,16.3
5.82,2.5,1.5,1.0,1.75,0.5,1.75,0.0,2.0,1.25,1.0,1.25,1.0,1.25,0.7,0.58,-0.42,239.52,6.1,5.7,1.0,1.0,2.5,1.25,3.0,0.5,0.0,0.5,0.5,1.5,2.0,0.75,0.75,-0.55,0.83,-0.3,228.95,-8.6,10.3
5.84,0.0,0.0,1.5,0.0,3.75,0.0,2.25,5.0,0.0,0.0,2.5,0.0,0.0,0.7,0.58,-0.42,226.93,1.5,-1.4,1.25,0.75,2.5,1.25,2.75,0.5,0.0,0.5,0.5,1.5,2.0,1.0,0.75,-0.61,0.89,-0.3,225.73,-9.1,7.5
5.86,0.0,0.0,0.0,0.0,0.0,0.0,0.0,0.0,1.0,0.0,0.0,1.0,0.0,0.7,0.64,-0.42,162.94,10.5,-74.3,2.0,0.5,2.75,0.75,2.75,0.75,0.0,0.5,0.75,1.5,2.0,0.75,0.25,-0.61,0.89,-0.23,223.87,-10.7,14.7
5.88,2.25,1.5,1.0,2.25,2.25,1.75,0.0,0.75,1.0,0.5,1.25,1.75,2.0,0.64,0.64,-0.42,168.58,6.3,7.5,1.0,0.75,2.5,1.25,3.0,1.0,0.0,0.75,0.75,1.5,2.0,0.75,0.0,-0.61,0.95,-0.23,222.8,-8.3,14.0
5.9,2.25,1.5,1.0,2.25,3.0,2.5,0.0,1.0,1.0,1.5,1.0,1.75,2.25,0.64,0.58,-0.48,199.56,3.4,5.4,2.0,1.0,2.5,1.25,3.0,1.5,0.0,0.5,0.75,1.5,2.25,0.75,0.25,-0.61,0.95,-0.3,231.24,-9.0,17.9
5.92,2.25,1.5,0.75,1.75,1.25,1.75,0.0,0.5,1.25,1.0,1.0,1.5,2.25,0.64,0.58,-0.48,228.41,5.6,0.7,1.5,0.75,2.5,1.25,3.0,1.0,0.0,0.5,0.75,1.5,2.0,0.75,0.25,-0.55,0.95,-0.3,233.96,-9.1,15.2
5.94,2.25,1.25,1.0,1.75,2.5,1.75,0.0,0.75,1.0,1.0,1.0,1.75,2.25,0.58,0.58,-0.48,245.68,4.9,2.8,0.75,0.75,2.5,1.25,3.0,1.25,0.0,0.5,0.75,1.5,2.0,0.75,0.0,-0.48,0.89,-0.23,231.8,-7.8,13.9
5.96,2.25,1.25,1.0,1.25,2.5,1.5,0.0,0.75,0.75,0.75,1.0,1.75,2.5,0.58,0.58,-0.48,252.48,4.8,0.7,1.25,1.0,2.5,1.25,3.0,1.0,0.0,0.25,0.5,1.5,2.0,0.75,0.0,-0.48,0.95,-0.3,228.08,-9.5,19.2
5.98,2.25,1.25,1.0,2.25,2.5,1.75,0.0,1.0,1.0,0.5,1.25,1.75,2.25,0.64,0.58,-0.48,261.79,5.5,4.8,1.25,1.0,2.5,1.25,3.0,1.25,0.0,0.25,0.75,1.5,2.0,1.0,0.0,-0.48,0.95,-0.36,228.29,-9.1,16.6
6.0,2.25,1.25,1.0,2.0,2.5,1.75,0.0,1.0,1.25,0.5,1.25,1.75,2.5,0.64,0.58,-0.48,259.71,5.2,2.0,1.5,1.0,2.5,1.25,3.0,1.0,0.0,0.5,0.5,1.5,2.0,0.75,0.25,-0.48,0.89,-0.36,228.78,-9.1,17.4
6.02,2.25,1.5,1.0,2.0,2.5,1.75,0.0,0.75,1.25,1.75,1.0,1.5,2.25,0.64,0.58,-0.48,267.4,4.4,2.7,1.25,0.75,2.5,1.25,3.0,1.0,0.0,0.5,0.75,1.5,2.0,0.75,0.75,-0.48,0.83,-0.23,231.12,-8.0,10.1
6.04,2.25,1.5,1.0,1.75,2.5,1.75,0.0,0.5,1.25,1.25,0.75,1.75,1.0,0.64,0.58,-0.48,268.65,6.4,12.4,1.5,0.75,2.5,1.25,2.75,1.0,0.0,0.25,0.5,1.5,2.0,0.75,0.25,-0.55,0.77,-0.23,229.8,-9.7,16.3
6.06,2.25,1.75,1.0,1.75,2.5,1.75,0.0,1.0,1.0,1.0,1.0,1.75,2.25,0.64,0.58,-0.55,271.43,4.8,4.8,1.25,0.75,2.5,1.25,3.0,1.25,0.0,0.5,0.5,1.5,2.0,0.75,0.75,-0.61,0.77,-0.23,230.86,-7.5,11.2
6.08,2.25,1.5,1.0,1.25,2.5,1.75,0.0,1.0,1.25,0.5,1.0,1.75,2.25,0.58,0.58,-0.55,268.52,5.0,3.5,0.75,1.0,2.5,1.25,3.0,1.25,0.0,0.5,0.5,1.5,2.5,1.0,0.5,-0.61,0.83,-0.23,231.73,-7.3,7.7
6.1,2.25,1.5,1.0,1.25,2.5,1.75,0.0,0.75,1.25,1.25,1.25,1.75,2.25,0.58,0.58,-0.55,268.28,4.5,0.0,1.25,1.0,2.5,1.25,3.0,1.25,0.0,0.25,0.75,1.5,2.0,1.0,0.75,-0.67,0.77,-0.17,235.1,-8.0,10.8
6.12,2.25,1.5,1.0,2.0,2.5,1.5,0.0,1.0,1.25,0.75,1.25,1.0,2.75,0.58,0.58,-0.55,258.13,5.0,4.7,0.25,0.75,2.5,1.25,3.0,1.25,0.0,0.25,0.5,1.5,2.0,0.75,0.75,-0.67,0.83,-0.17,230.09,-6.2,6.7
6.14,2.25,1.5,1.0,2.25,2.5,1.75,0.0,0.75,1.0,1.25,1.25,1.0,2.25,0.58,0.58,-0.55,260.79,5.0,7.9,0.75,0.25,2.5,1.0,2.75,1.0,0.0,0.5,0.5,1.5,2.0,0.75,0.25,-0.67,0.83,-0.17,220.52,-7.8,7.5
