time,left pressure 0[N/cm虏],left pressure 1[N/cm虏],left pressure 2[N/cm虏],left pressure 3[N/cm虏],left pressure 4[N/cm虏],left pressure 5[N/cm虏],left pressure 6[N/cm虏],left pressure 7[N/cm虏],left pressure 8[N/cm虏],left pressure 9[N/cm虏],left pressure 10[N/cm虏],left pressure 11[N/cm虏],left pressure 12[N/cm虏],left acceleration X[g],left acceleration Y[g],left acceleration Z[g],left total force[N],left center of pressure X[mm],left center of pressure Y[mm],right pressure 0[N/cm虏],right pressure 1[N/cm虏],right pressure 2[N/cm虏],right pressure 3[N/cm虏],right pressure 4[N/cm虏],right pressure 5[N/cm虏],right pressure 6[N/cm虏],right pressure 7[N/cm虏],right pressure 8[N/cm虏],right pressure 9[N/cm虏],right pressure 10[N/cm虏],right pressure 11[N/cm虏],right pressure 12[N/cm虏],right acceleration X[g],right acceleration Y[g],right acceleration Z[g],right total force[N],right center of pressure X[mm],right center of pressure Y[mm]
0.02,1.0,0.0,1.75,1.25,2.5,1.0,0.0,0.25,0.75,0.5,0.75,0.5,0.25,0.52,1.14,0.45,192.13,9.0,23.0,10.5,4.75,11.5,15.5,12.0,0.0,1.75,1.0,1.0,0.0,1.5,0.75,0.0,0.02,0.33,1.14,1073.98,-18.4,58.4
0.04,0.75,0.0,2.0,0.75,2.5,0.0,0.0,0.0,0.75,1.75,1.25,2.0,0.5,0.02,-0.42,0.27,189.46,8.9,-10.4,10.5,4.5,11.5,14.0,11.0,0.0,0.5,1.25,1.0,0.5,2.0,0.75,1.0,0.14,0.39,0.95,1037.2,-17.7,53.2
0.06,0.25,0.0,1.5,1.0,2.5,1.0,0.0,0.0,1.0,4.25,1.75,3.5,4.25,0.14,-0.36,0.58,224.83,-0.5,-45.9,10.5,4.5,9.5,11.0,8.25,0.0,0.0,1.0,1.0,1.75,1.25,0.75,0.75,0.14,0.52,1.39,946.23,-17.7,52.6
0.08,0.75,0.5,0.5,0.25,0.0,2.5,1.5,3.25,2.0,6.0,5.75,6.75,6.5,0.2,1.08,1.08,315.5,-2.0,-64.7,9.5,3.5,8.75,9.0,6.75,0.0,0.0,1.0,1.0,0.25,1.25,0.0,0.5,0.2,0.7,1.83,809.9,-19.5,58.4
0.1,0.5,0.0,1.75,2.0,2.5,2.5,0.0,4.0,2.0,4.25,5.75,6.75,6.5,0.02,0.02,1.02,437.26,-0.6,-49.8,8.25,2.75,5.25,7.25,1.0,2.5,0.0,0.25,1.0,1.75,1.0,0.75,0.25,0.45,0.95,2.08,613.58,-18.0,49.4
0.12,1.0,0.75,2.0,1.0,2.5,3.5,0.0,4.0,2.0,5.25,5.25,6.5,6.5,-0.11,0.02,0.89,558.88,-1.2,-45.3,5.75,1.5,5.25,5.5,2.75,0.5,0.0,0.25,0.75,0.25,1.75,0.0,0.5,0.27,0.7,1.89,425.95,-20.0,51.0
0.14,1.0,0.5,2.0,2.0,2.5,3.75,2.0,4.0,2.0,6.0,5.5,6.75,6.5,-0.11,0.08,0.89,649.19,-0.3,-42.7,4.0,0.75,1.5,3.25,1.5,2.75,0.0,0.0,0.75,0.5,0.0,0.0,0.0,0.14,0.45,1.64,275.13,-12.9,56.4
0.16,0.25,0.5,2.0,2.0,2.5,3.25,2.0,4.25,2.25,7.25,6.0,7.5,7.25,-0.11,0.08,0.95,721.61,-1.0,-49.0,1.75,0.0,1.25,2.25,1.5,0.0,0.0,0.0,0.5,0.25,0.25,0.0,0.0,0.45,0.08,1.58,150.39,-18.2,51.4
0.18,0.25,0.5,2.0,1.75,2.5,3.25,2.5,4.25,2.75,7.25,6.75,8.0,7.5,-0.11,0.08,0.95,778.87,-0.6,-50.4,0.5,0.25,1.0,1.75,4.5,0.75,0.25,0.0,0.75,0.5,0.75,0.0,0.0,0.64,-0.61,1.45,67.21,-6.0,36.6
0.2,1.0,0.25,2.0,0.25,3.0,3.75,2.5,5.5,3.0,7.5,7.0,8.25,8.25,-0.05,0.08,0.95,845.66,-1.5,-51.6,0.5,0.0,1.25,1.25,1.0,1.0,0.5,0.0,0.25,0.5,0.75,0.0,0.0,0.89,-1.3,1.45,0.0,-10.6,28.8
0.22,1.0,0.75,2.0,1.75,2.5,4.0,0.75,6.0,3.5,8.25,7.75,8.25,8.25,-0.05,0.08,0.95,912.35,-1.5,-49.4,1.25,1.0,1.25,3.0,1.0,3.75,0.75,1.0,1.0,0.75,2.0,0.0,0.0,0.77,-0.55,1.83,25.79,-5.4,23.8
0.24,1.25,0.0,2.0,3.75,3.0,4.75,0.75,6.25,4.0,8.5,8.0,8.25,8.25,-0.05,0.08,0.95,977.04,-1.1,-45.0,0.25,0.25,1.25,0.0,1.0,4.0,0.75,0.0,1.0,0.5,0.75,0.0,0.0,0.39,-0.3,0.52,15.59,0.6,21.1
0.26,2.0,0.75,2.25,3.5,3.75,5.0,1.25,6.5,4.25,8.5,8.0,8.25,8.25,-0.11,0.08,0.95,1033.02,-0.4,-39.6,1.25,1.0,1.25,2.0,0.5,3.75,1.0,1.5,1.0,1.5,2.0,0.75,0.0,0.45,-0.23,0.52,70.83,-3.7,8.5
0.28,2.0,0.75,2.5,3.75,5.0,5.5,3.75,6.75,4.5,8.25,8.0,8.25,8.25,-0.05,0.08,0.95,1083.15,0.1,-34.8,0.25,0.0,0.0,0.5,1.0,0.75,0.5,0.0,0.75,0.25,0.75,0.0,0.0,0.52,-0.3,0.7,46.79,-3.8,9.5
0.3,1.75,0.5,3.25,4.5,5.0,5.5,3.75,6.75,4.5,8.0,8.0,8.25,7.5,-0.05,0.08,0.95,1100.6,0.8,-32.6,0.25,0.25,0.0,0.5,1.0,2.5,0.75,0.0,0.75,0.25,0.75,0.0,0.0,0.45,-0.3,0.89,55.27,1.9,19.4
0.32,1.25,0.5,2.5,4.25,5.25,5.75,3.75,7.0,4.5,7.5,7.5,7.5,7.5,-0.05,0.08,0.95,1085.75,0.0,-32.9,0.0,0.25,0.0,0.0,1.0,1.75,0.5,0.0,0.5,0.25,0.5,0.0,0.0,0.45,-0.11,0.89,35.66,5.1,16.7
0.34,0.25,0.5,3.0,4.0,5.75,5.5,4.25,6.75,4.5,7.25,7.0,7.0,7.0,-0.05,0.08,0.95,1053.82,-0.1,-31.8,0.0,0.0,0.25,0.0,0.5,2.5,0.75,0.0,0.75,0.25,0.5,0.0,0.0,0.39,0.02,1.02,43.43,4.7,10.5
0.36,1.0,1.0,3.0,4.75,6.25,6.0,4.25,6.75,4.5,7.25,7.0,6.75,6.5,-0.05,0.08,0.95,1028.09,0.4,-26.0,0.25,0.25,0.0,0.0,0.5,2.5,0.75,0.0,0.5,0.25,0.25,0.0,0.0,0.45,0.14,1.08,45.38,5.9,23.7
0.38,1.5,0.75,3.5,5.5,6.25,5.75,4.25,6.75,4.5,6.25,6.75,6.5,5.75,-0.05,0.08,0.95,1000.2,1.6,-21.7,0.25,0.0,0.0,0.0,0.25,2.0,0.5,0.0,0.5,0.25,0.75,0.0,0.0,0.58,0.27,1.2,53.0,4.4,4.0
0.4,1.5,0.75,3.5,5.5,6.5,6.25,4.5,6.75,4.5,6.0,6.5,5.75,5.5,-0.05,0.08,0.95,980.74,1.5,-19.0,0.5,0.0,0.0,0.0,1.0,1.25,0.75,0.0,0.5,0.25,0.0,0.0,0.0,0.64,0.45,1.33,51.8,0.1,30.6
0.42,2.0,0.75,4.25,5.75,7.0,6.5,4.75,6.75,4.75,5.75,6.25,5.25,5.0,-0.05,0.08,0.95,977.07,2.3,-14.1,0.0,0.0,0.0,0.0,0.5,0.5,0.5,0.0,0.75,0.25,0.5,0.0,0.0,0.58,0.64,1.52,36.01,-1.9,-10.9
0.44,2.5,0.75,4.5,7.0,7.25,6.75,4.75,6.5,4.5,5.5,5.75,5.0,4.25,-0.05,0.08,0.95,980.84,3.1,-8.5,0.0,0.0,0.0,0.0,0.5,2.25,0.5,0.0,0.25,0.0,0.0,0.0,0.0,0.52,0.7,1.64,32.25,12.4,31.4
0.46,3.0,1.0,4.5,7.25,8.0,7.0,5.25,6.5,4.5,4.75,5.75,4.75,4.0,-0.05,0.08,0.95,995.35,3.6,-4.4,0.25,0.0,0.25,0.0,0.25,0.5,0.5,0.0,0.5,0.0,0.25,0.0,0.0,0.58,0.83,1.89,18.98,-10.1,17.6
0.48,3.0,1.25,5.25,8.25,8.25,7.0,5.5,6.25,4.75,4.5,5.0,3.5,2.75,-0.05,0.08,0.95,1006.42,4.6,3.4,0.25,0.0,0.5,0.0,0.25,2.25,0.5,0.0,0.75,0.0,0.25,0.0,0.0,0.52,1.02,1.89,34.38,0.5,23.2
0.5,3.25,1.25,6.0,9.25,8.75,7.0,5.75,6.0,4.5,4.5,4.25,2.5,2.75,-0.05,0.08,0.95,1024.95,5.3,8.8,0.0,0.0,0.5,0.0,0.25,2.5,0.25,0.0,1.0,1.75,0.75,0.75,0.0,0.2,1.64,1.89,57.3,4.3,-23.5
0.52,4.0,1.5,6.75,11.5,9.5,7.25,6.0,5.5,4.25,4.25,4.0,2.0,2.0,-0.05,0.08,0.95,1065.03,6.6,16.5,0.5,0.5,2.75,0.0,1.25,2.5,0.25,0.0,1.0,1.5,1.0,0.0,0.5,-0.36,2.14,1.52,113.49,-5.8,12.7
0.54,4.75,1.75,7.75,12.5,9.75,7.5,6.5,5.25,3.5,2.25,3.0,2.0,1.5,-0.05,0.08,0.95,1106.65,8.4,25.2,0.5,0.5,1.25,0.0,2.5,2.5,0.75,0.0,1.0,1.5,1.0,0.75,0.75,-0.36,2.64,1.08,153.7,-1.1,2.2
0.56,5.75,2.25,8.5,13.5,12.0,7.75,7.0,4.0,2.75,2.25,2.0,1.75,1.25,-0.05,0.08,0.95,1171.86,9.2,33.0,0.5,0.75,2.75,0.75,1.5,2.5,0.75,0.0,1.0,1.5,1.0,0.75,0.5,-1.05,3.27,0.39,191.67,-7.0,11.4
0.58,7.0,2.25,9.5,15.0,12.5,7.75,7.5,4.0,2.0,2.0,1.75,1.75,1.25,-0.05,0.14,0.95,1250.19,10.2,36.6,1.25,0.75,2.75,0.5,1.5,1.0,0.75,0.0,1.0,1.5,0.75,0.75,0.75,-2.11,4.02,0.27,208.38,-11.0,11.9
0.6,7.75,2.25,10.5,15.5,13.5,7.5,7.5,2.5,1.5,2.0,1.5,1.25,1.0,-0.05,0.14,1.08,1313.8,11.5,41.9,0.5,0.0,2.75,0.0,2.25,2.0,0.25,0.25,1.0,2.0,0.75,2.25,1.25,-1.73,4.2,0.2,223.77,-4.1,-13.9
0.62,8.5,2.5,11.0,16.5,13.5,7.0,7.0,2.0,1.5,0.25,1.25,1.0,0.5,-0.05,0.2,1.08,1343.16,13.2,48.7,0.5,0.0,2.75,1.0,1.75,3.0,0.0,0.25,0.25,3.5,2.25,4.75,4.75,0.2,-0.61,1.95,269.52,-0.5,-40.8
0.64,9.5,2.5,11.0,16.5,13.5,5.5,7.25,2.0,1.25,2.0,1.5,0.5,0.5,-0.11,0.2,1.08,1360.84,13.5,47.5,1.0,0.0,0.75,0.5,1.0,2.75,0.0,1.25,1.0,6.0,2.75,6.0,6.5,0.02,0.08,0.39,337.43,3.5,-61.3
0.66,10.5,3.5,12.5,16.5,13.5,4.25,5.75,1.75,1.25,0.5,1.5,0.75,0.75,-0.11,0.2,1.14,1370.05,15.3,51.3,0.0,0.0,0.5,1.0,2.75,0.0,0.5,3.25,1.0,7.0,6.0,0.0,7.25,-0.3,0.89,4.58,402.69,5.3,-57.0
0.68,11.0,3.75,12.5,15.5,12.0,2.5,5.25,0.75,1.0,0.0,1.25,0.75,0.5,-0.17,0.27,1.14,1337.28,17.7,56.0,0.5,0.25,1.25,3.0,0.0,5.5,0.0,5.25,2.25,8.75,7.25,7.25,8.0,0.02,0.64,1.14,569.01,3.4,-54.4
0.7,12.0,3.25,12.0,12.0,9.75,0.25,3.75,0.25,1.25,0.0,0.75,0.25,0.25,-0.17,0.33,1.27,1214.9,20.8,61.3,0.0,0.25,2.75,3.0,1.25,6.0,1.25,6.25,2.25,8.75,7.75,7.0,8.25,0.08,0.08,0.95,736.18,2.5,-47.7
0.72,10.5,2.0,10.5,7.0,7.75,0.0,1.25,0.0,1.0,0.0,0.0,0.0,0.25,-0.23,0.39,1.58,969.97,22.2,65.5,0.5,0.75,2.75,3.0,0.5,6.0,1.0,6.25,2.25,8.5,7.25,6.75,8.0,0.14,0.14,0.95,867.45,2.1,-45.9
0.74,9.5,2.0,8.5,7.0,5.75,0.0,0.0,0.0,0.75,0.0,0.0,0.25,0.5,-0.36,0.7,1.83,729.09,22.1,64.6,0.5,0.75,2.75,3.0,2.75,6.0,1.75,6.25,2.25,8.5,7.75,7.0,8.25,0.08,0.08,0.95,958.59,1.9,-41.7
0.76,8.75,1.25,6.25,5.5,5.75,0.0,0.0,0.0,1.0,0.0,0.0,0.0,0.0,-0.55,0.95,2.52,518.78,21.7,67.2,0.5,0.5,2.75,3.0,3.5,6.0,2.0,6.5,2.25,8.5,7.75,7.0,8.0,0.08,0.08,0.89,1012.2,1.9,-40.4
0.78,7.25,1.5,4.25,5.5,2.5,1.0,0.0,0.25,1.25,1.0,0.0,1.0,0.25,-0.55,0.45,2.27,376.44,18.9,51.2,0.5,0.25,2.75,3.0,4.5,6.25,1.75,6.5,2.25,8.5,7.75,6.75,7.75,0.08,0.08,0.95,1033.3,2.1,-38.4
0.8,5.5,0.75,3.0,2.25,3.75,0.0,0.0,1.25,1.0,0.0,0.5,0.0,0.5,-0.48,0.52,2.39,271.72,17.0,50.5,1.0,1.0,2.75,3.0,4.5,6.25,1.25,6.75,2.25,8.5,7.75,6.25,7.0,0.08,0.08,0.95,1029.81,1.8,-34.2
0.82,1.25,0.75,2.0,0.0,3.75,0.0,0.0,0.75,0.75,0.25,0.75,0.25,0.25,-0.98,-0.42,2.14,170.88,10.0,31.9,0.75,1.0,2.75,3.0,4.5,6.5,1.75,7.25,2.25,8.25,7.5,6.25,7.75,0.08,0.08,0.95,1028.76,2.2,-34.9
0.84,0.75,0.75,2.25,1.25,2.5,0.0,0.0,0.0,0.25,0.0,0.0,0.0,0.0,-0.86,-0.05,2.7,70.08,16.8,61.5,1.0,1.25,2.75,3.0,4.75,6.75,1.75,7.0,2.5,8.25,7.5,6.0,7.75,0.08,0.08,0.95,1010.15,2.0,-32.7
0.86,0.25,0.75,1.25,2.0,0.0,0.0,0.0,0.0,0.25,0.0,0.0,0.0,0.0,-0.8,-1.48,1.27,0.0,22.9,62.4,1.75,1.25,2.75,3.0,5.0,7.0,1.75,7.0,2.75,8.0,7.5,5.75,7.5,0.08,0.08,0.95,986.42,1.5,-29.8
0.88,0.0,0.0,1.0,2.0,0.0,1.0,0.0,0.0,1.0,0.0,0.0,0.25,0.0,-0.73,-0.48,0.89,0.0,12.8,28.4,1.5,1.25,2.75,3.25,5.75,7.0,2.0,7.0,3.0,8.0,7.25,5.75,6.5,0.08,0.08,0.95,963.35,1.3,-27.1
0.9,0.75,0.75,1.0,2.0,0.0,1.25,0.0,0.0,0.75,0.5,0.5,0.0,0.5,-0.48,-0.42,0.27,0.0,10.2,26.1,2.25,1.25,4.0,4.5,6.5,7.25,3.0,7.0,3.0,7.25,7.25,5.0,6.25,0.08,0.14,0.95,968.89,-0.4,-18.5
0.92,0.25,0.5,1.0,2.0,0.0,1.25,0.0,0.0,1.0,0.0,0.0,0.0,0.0,-0.48,-0.36,0.33,0.0,12.4,43.0,2.25,1.25,5.25,5.25,6.75,7.5,3.25,7.0,3.0,7.0,6.75,4.75,5.75,0.08,0.14,0.95,975.92,-1.4,-13.7
0.94,0.25,0.0,0.0,0.75,0.0,0.0,0.0,0.0,0.75,0.25,0.0,0.0,0.0,-0.42,-0.36,0.7,0.0,13.3,10.4,2.5,1.5,5.25,5.5,6.75,7.5,4.0,6.75,3.0,6.0,6.25,3.5,5.0,0.08,0.14,0.95,989.8,-2.1,-7.6
0.96,0.25,0.0,0.75,0.75,0.0,0.0,0.0,0.0,0.25,0.0,0.0,0.0,0.0,-0.48,-0.36,0.95,0.0,26.6,51.9,2.75,1.75,5.5,7.25,8.0,7.75,4.75,6.5,3.0,5.5,5.25,2.5,4.0,0.08,0.14,0.95,1010.96,-3.1,2.0
0.98,0.25,0.0,0.5,0.75,0.0,0.25,0.0,0.0,1.0,1.0,1.5,0.25,0.0,-0.55,-0.3,1.02,0.0,9.2,-26.1,4.25,2.0,6.75,7.75,8.25,7.75,4.75,6.0,3.0,4.75,4.75,2.25,3.0,0.08,0.14,0.95,1030.5,-5.2,10.5
1.0,1.0,0.75,2.0,2.25,2.5,1.25,0.0,0.0,1.0,0.5,0.75,0.25,0.5,-0.61,-0.05,1.02,52.01,10.0,31.1,4.5,2.25,7.0,9.0,9.25,7.75,4.75,5.5,2.25,3.75,4.0,2.25,2.0,0.08,0.14,0.95,1049.68,-6.2,18.4
1.02,1.25,0.75,2.0,2.25,2.5,1.0,0.0,0.0,1.0,1.0,0.75,0.25,0.5,-0.48,0.14,1.14,121.5,10.1,28.3,5.0,2.75,7.75,10.5,9.25,7.75,4.75,5.0,2.25,3.5,3.5,1.5,2.0,0.02,0.14,0.95,1077.96,-7.3,24.1
1.04,1.25,0.75,2.0,2.0,2.5,1.0,0.0,0.0,1.0,0.5,0.75,0.25,0.5,-0.42,0.27,1.33,176.32,10.9,31.7,6.25,2.75,8.75,11.0,9.75,8.0,5.75,4.5,1.5,3.5,3.25,1.0,1.75,0.02,0.14,0.95,1119.27,-8.5,29.6
1.06,1.0,0.75,0.5,1.5,1.25,1.0,0.0,0.0,0.75,0.25,0.5,0.25,0.5,-0.36,0.45,1.58,182.68,8.1,27.5,7.0,2.75,8.75,12.5,11.0,8.0,6.0,3.25,0.75,3.5,2.5,0.75,1.25,0.02,0.14,0.95,1158.45,-9.4,36.3
1.08,1.25,0.75,2.0,2.0,2.5,1.25,0.0,0.0,1.0,0.0,0.5,0.5,0.5,-0.36,0.64,1.77,193.47,11.3,35.3,7.25,3.0,9.25,13.0,11.0,8.0,6.0,3.25,0.5,3.0,2.25,0.75,1.25,0.02,0.14,0.95,1192.88,-9.9,38.6
1.1,1.0,0.75,2.0,2.0,2.5,1.0,0.0,0.0,1.0,0.5,0.5,0.5,0.5,-0.48,0.77,2.02,195.99,10.4,29.8,8.0,2.5,9.25,14.0,12.0,8.0,6.0,2.0,0.75,2.25,2.25,0.75,1.0,0.02,0.2,0.95,1221.4,-10.9,42.3
1.12,1.0,0.75,2.0,2.25,2.5,1.0,0.0,0.0,0.75,0.0,0.75,0.25,0.25,-0.73,1.2,2.52,201.09,12.2,40.0,8.75,3.0,9.75,14.0,12.0,7.75,5.75,1.75,1.0,2.0,2.25,0.75,1.0,-0.05,0.2,1.02,1247.52,-11.7,43.9
1.14,1.0,0.75,2.25,1.75,2.5,1.5,0.0,0.0,0.75,0.5,0.5,0.25,0.25,-0.42,1.77,2.2,204.83,10.1,37.1,8.75,2.5,0.0,13.5,11.0,0.0,3.25,0.75,0.5,0.0,0.75,0.25,0.25,-0.05,0.2,1.08,1041.89,-13.6,58.5
1.16,1.0,0.75,2.0,2.25,2.5,1.0,0.0,1.0,0.5,0.0,0.75,0.0,0.5,0.95,2.83,1.77,210.44,9.5,35.2,10.5,3.5,9.75,15.5,11.0,0.0,1.75,0.25,0.75,0.0,1.0,0.75,0.75,0.02,0.27,1.08,981.54,-18.4,58.0
1.18,1.0,0.75,2.0,1.75,2.5,1.0,0.0,0.25,0.75,0.25,0.5,0.25,0.5,1.64,3.27,1.39,206.83,10.3,34.3,10.5,5.0,11.5,15.0,12.5,6.0,1.25,1.25,0.75,0.0,2.25,0.75,0.5,0.02,0.33,1.08,1015.23,-14.3,53.9
1.2,1.25,0.75,2.0,1.75,2.5,1.0,0.0,0.25,0.75,0.5,0.75,0.5,0.25,1.64,3.7,0.27,201.57,10.7,31.3,11.0,4.25,11.5,15.5,12.0,0.0,0.75,1.0,1.0,0.5,2.25,0.75,0.75,0.02,0.33,1.08,1070.47,-17.7,53.9
1.22,0.5,0.5,1.75,0.75,2.5,1.0,0.0,0.25,0.5,0.0,0.75,0.0,0.5,1.89,4.02,-0.3,180.74,8.1,31.8,10.5,4.0,10.5,14.0,11.0,4.75,0.0,0.0,0.75,0.75,1.5,0.75,1.5,0.08,0.39,1.14,1101.08,-14.7,52.7
1.24,1.0,0.0,2.0,0.25,0.0,0.0,0.0,0.25,0.5,0.0,0.0,0.25,0.5,0.39,1.08,0.08,138.45,23.7,25.1,10.5,4.75,9.5,12.5,9.25,4.5,0.0,0.75,0.75,0.5,2.25,0.75,0.75,0.2,0.52,1.27,1083.55,-15.1,53.0
1.26,0.75,0.5,1.75,1.0,2.5,1.0,0.0,0.5,1.0,2.75,1.5,3.25,3.5,-0.36,-0.92,2.64,173.96,2.0,-31.7,9.5,4.25,7.75,9.0,8.0,0.0,0.0,0.0,1.0,1.5,2.0,0.0,0.75,0.58,0.95,2.02,934.87,-17.7,54.2
1.28,0.25,0.0,1.75,1.75,0.5,1.0,0.0,1.5,0.75,5.0,1.5,5.75,5.75,0.7,-0.05,1.64,240.75,-0.9,-60.2,8.5,2.75,2.75,5.75,4.5,2.75,0.0,0.25,1.0,1.5,2.0,0.25,0.25,0.83,1.45,3.7,705.62,-13.8,48.5
1.3,1.0,0.25,0.0,0.75,1.75,4.0,0.0,3.75,2.5,0.0,5.75,7.25,8.0,0.02,0.77,2.27,345.73,-1.8,-55.9,6.0,1.25,2.75,3.25,4.5,2.5,0.0,0.0,0.5,0.0,2.0,0.0,0.5,0.08,0.39,2.77,485.3,-13.8,50.0
1.32,1.0,0.0,0.0,1.75,0.0,4.0,1.25,6.25,3.5,0.0,8.0,9.0,9.25,0.33,0.33,1.39,492.79,-0.7,-61.4,2.5,0.25,2.75,1.75,4.5,0.75,0.0,0.25,0.5,0.0,1.5,0.0,0.0,0.52,0.14,3.08,305.11,-13.5,45.3
1.34,1.0,0.0,0.0,1.75,1.75,4.5,1.25,6.5,3.25,0.0,8.25,9.0,9.25,0.02,0.08,1.02,643.41,-1.1,-55.4,2.0,0.0,0.5,3.0,4.5,0.0,0.25,0.5,0.75,0.75,1.5,0.75,0.25,0.45,-0.17,1.77,205.48,-8.7,23.1
1.36,0.0,0.0,1.5,3.0,2.5,4.5,2.0,6.75,3.0,8.25,8.0,8.25,9.25,-0.17,0.08,0.95,811.93,-2.5,-52.1,0.75,0.0,0.0,0.75,1.0,0.0,0.0,0.0,0.5,0.0,0.75,0.0,0.0,1.27,-1.67,1.64,81.16,-12.4,26.4
1.38,0.25,0.25,2.0,2.25,3.0,4.75,2.5,7.25,3.0,2.75,7.0,8.0,9.0,-0.11,0.02,0.95,889.19,-1.1,-45.5,0.5,0.0,1.0,2.5,4.5,3.0,0.5,0.25,1.0,1.75,1.0,0.75,0.25,0.7,-1.61,1.33,70.0,-1.1,16.0
1.4,0.0,0.0,2.0,3.75,2.25,5.5,2.5,7.25,3.0,7.5,7.0,7.5,8.25,-0.11,0.02,0.95,967.31,-2.2,-45.5,1.25,0.0,1.75,2.0,4.5,3.25,0.75,0.5,1.0,1.75,0.75,0.75,0.5,0.2,-0.55,0.83,62.2,-2.8,18.7
1.42,0.25,0.5,2.25,3.75,2.5,5.75,3.25,7.25,3.25,7.75,6.75,7.25,8.25,-0.11,0.02,0.95,1003.44,-1.7,-41.5,1.0,0.75,1.25,0.25,4.25,3.75,0.75,0.25,1.0,2.0,1.0,0.75,1.0,0.27,-0.48,0.14,98.86,0.5,10.4
1.44,1.25,0.75,2.25,3.75,3.75,6.25,3.25,7.25,3.5,7.75,6.25,6.5,7.5,-0.11,0.08,0.95,1032.19,-1.3,-33.7,0.5,0.25,2.75,0.0,4.25,2.75,0.75,0.5,1.0,1.75,1.0,0.75,0.5,0.39,-0.3,0.33,130.33,-2.9,12.0
1.46,1.25,0.75,2.25,4.5,3.5,6.5,3.5,7.25,3.5,7.25,5.25,5.75,6.5,-0.11,0.08,0.95,1010.72,-1.0,-29.0,0.5,0.25,2.75,1.5,4.25,3.25,0.75,0.25,1.0,2.0,1.5,0.75,0.0,0.39,-0.36,0.64,168.3,-4.1,17.0
1.48,2.0,0.75,3.25,5.5,6.25,7.0,3.75,7.25,4.0,6.0,4.0,5.25,5.5,-0.11,0.02,0.95,1004.32,0.4,-15.4,0.75,0.75,2.75,1.0,3.0,3.0,0.75,0.75,1.0,1.75,1.0,0.75,0.5,0.39,-0.3,0.95,192.09,-4.4,14.6
1.5,2.0,0.75,4.5,6.75,6.5,7.0,4.0,7.0,3.5,5.75,4.0,3.75,4.5,-0.11,0.08,0.95,974.88,1.8,-7.1,1.0,0.75,2.75,0.5,3.0,3.5,0.75,0.25,1.0,2.0,1.25,0.75,0.75,0.33,-0.11,1.02,220.65,-3.8,12.2
1.52,2.25,1.0,4.5,7.5,8.0,7.5,4.5,6.75,3.5,4.5,3.0,3.5,3.5,-0.11,0.08,0.95,965.74,2.5,1.8,1.0,1.0,2.75,0.5,3.75,3.5,0.75,0.25,1.0,2.0,1.0,0.75,0.5,0.33,0.14,1.02,246.19,-3.7,18.1
1.54,2.75,1.0,4.75,9.0,8.0,7.75,4.5,6.25,3.0,4.5,2.75,2.25,2.75,-0.11,0.08,0.95,954.0,3.3,9.4,0.5,0.75,2.75,0.0,2.5,3.25,0.75,0.5,1.0,2.0,1.0,0.75,0.5,0.39,0.33,1.14,251.08,-3.0,8.9
1.56,3.25,1.5,5.5,11.5,8.5,7.5,4.5,6.25,3.0,4.0,2.5,2.25,2.25,-0.11,0.08,0.95,976.86,4.9,15.8,0.5,1.0,2.75,0.0,2.5,3.25,0.5,0.5,1.0,1.75,1.5,0.75,0.5,0.27,0.64,1.83,250.69,-3.4,9.0
1.58,4.0,2.0,6.0,12.0,9.5,8.0,4.75,5.5,2.5,4.25,2.0,2.0,1.5,-0.05,0.08,0.95,1013.85,5.7,22.5,0.5,0.0,2.75,0.0,2.5,3.25,0.75,0.25,1.0,1.75,1.0,0.75,0.75,0.39,0.89,2.14,238.15,-2.8,4.4
1.6,4.0,2.0,6.75,13.5,9.75,8.0,4.75,5.0,2.0,2.25,1.75,1.0,1.5,-0.11,0.08,0.95,1040.38,7.1,30.7,0.75,0.75,2.75,0.25,2.75,3.25,0.75,0.25,1.0,2.0,1.0,0.75,0.75,0.58,1.33,2.7,237.44,-3.6,10.5
1.62,4.75,2.0,7.5,14.5,9.75,8.0,4.75,4.25,2.0,2.75,1.5,1.75,1.5,-0.11,0.14,0.95,1088.75,8.1,31.0,0.5,0.75,2.75,0.5,2.5,3.25,0.75,0.25,1.0,1.75,1.0,0.75,0.5,0.7,2.14,2.58,224.53,-4.0,12.5
1.64,5.5,2.25,7.75,14.5,12.5,7.5,4.25,2.5,1.5,2.0,1.5,1.5,0.25,-0.11,0.14,0.95,1112.51,9.4,40.4,0.5,0.0,2.75,0.5,1.75,3.0,0.75,0.25,1.0,1.75,1.25,0.75,0.75,0.52,3.2,1.95,219.03,-4.2,1.7
1.66,5.5,1.0,8.0,13.5,13.5,7.5,4.25,2.5,1.25,2.0,1.5,0.5,1.25,-0.05,0.14,0.95,1121.91,8.7,39.4,0.75,0.0,2.75,0.5,1.5,3.5,0.75,0.25,1.0,1.5,1.25,0.75,0.25,-0.55,3.83,0.58,212.13,-5.0,8.6
1.68,6.0,2.0,8.5,15.0,14.0,7.0,3.75,2.0,1.0,1.0,1.5,1.25,0.75,-0.11,0.14,0.95,1140.59,10.2,43.8,0.5,0.0,2.75,0.0,1.5,3.75,0.5,0.25,1.0,1.25,1.0,0.75,0.0,-2.17,4.27,-0.17,199.68,-3.9,10.8
1.7,7.25,2.0,9.0,16.5,14.0,7.25,3.75,0.25,0.75,1.75,0.5,1.0,0.5,-0.11,0.2,0.95,1165.72,11.5,49.4,0.5,0.75,2.75,1.25,1.5,4.0,0.25,0.25,0.75,2.0,1.0,0.75,0.5,-3.05,5.14,0.33,203.46,-3.2,12.0
1.72,7.75,2.25,10.5,15.5,12.5,6.5,1.75,0.0,1.0,1.75,0.0,1.25,0.5,-0.11,0.2,1.02,1161.38,12.8,50.8,0.5,0.75,2.0,1.25,0.5,3.75,0.0,0.0,0.75,1.75,1.0,2.25,1.25,-2.11,1.58,0.02,206.42,-2.4,-9.2
1.74,8.5,2.25,10.5,15.5,12.0,5.0,2.0,0.0,1.0,1.75,0.0,0.25,0.25,-0.11,0.2,1.02,1136.73,14.3,55.0,0.5,0.75,2.75,1.25,1.5,1.25,0.0,0.5,0.5,4.75,2.25,5.0,4.5,0.33,-0.98,2.64,254.25,-1.9,-43.0
1.76,10.5,2.25,11.0,18.5,14.5,5.0,2.25,0.0,1.0,2.0,1.0,0.5,0.5,-0.11,0.27,1.08,1193.14,14.1,52.8,0.5,0.0,1.0,0.0,1.5,3.0,0.0,1.75,0.75,7.5,4.0,7.0,7.5,-0.61,0.45,0.33,338.56,4.4,-65.6
1.78,11.0,4.0,12.0,17.0,14.0,2.25,0.75,1.0,0.75,0.75,1.0,0.0,0.5,-0.17,0.27,1.08,1222.68,16.1,57.9,0.5,0.75,2.5,2.0,1.75,4.75,0.0,4.0,1.75,9.0,6.25,7.5,8.0,-0.17,0.95,5.33,509.81,2.3,-49.5
1.8,10.5,2.25,12.0,16.0,12.5,1.75,0.5,1.5,0.5,0.0,0.5,0.25,0.5,-0.23,0.39,1.27,1199.35,17.0,58.3,0.5,0.0,2.5,3.0,3.5,5.0,0.5,6.75,1.75,9.75,8.5,8.75,9.5,0.08,0.45,1.27,742.42,2.6,-49.0
1.82,11.0,2.5,11.0,12.0,9.0,1.75,0.0,0.0,0.75,0.0,0.0,0.0,0.5,-0.36,0.52,1.58,1070.03,19.4,64.0,0.5,0.25,1.0,3.0,1.25,6.25,0.5,7.0,1.75,9.5,8.75,8.0,9.5,0.08,0.14,0.95,924.27,4.1,-53.4
1.84,10.5,2.25,9.5,9.5,8.25,1.0,0.0,1.0,1.0,1.25,1.25,0.25,1.0,-0.55,0.77,1.77,929.9,17.5,52.0,0.0,0.75,2.75,3.0,2.5,6.25,0.25,7.0,2.0,9.0,8.5,7.75,8.75,0.14,0.08,0.95,1040.89,2.8,-46.0
1.86,9.5,2.5,7.75,7.25,6.75,1.0,0.0,0.5,0.75,0.5,0.5,0.25,0.5,-0.73,1.2,2.7,745.09,18.6,59.1,0.5,0.5,2.75,3.0,2.25,6.25,0.75,7.0,2.25,9.0,8.5,7.75,8.75,0.08,0.08,0.95,1090.92,2.4,-45.6
1.88,7.75,2.25,4.75,5.5,6.0,1.0,0.0,0.0,0.75,0.5,1.0,0.25,0.75,-0.8,0.64,3.08,575.43,16.8,54.9,0.5,0.75,2.75,3.0,1.25,6.25,1.5,7.0,2.25,9.0,8.25,7.25,8.75,0.14,0.08,0.95,1099.22,2.3,-45.8
1.9,5.5,1.25,3.0,3.75,4.75,1.0,0.0,0.5,1.0,0.25,0.75,0.25,1.0,-0.67,0.58,3.02,409.25,14.2,46.6,0.5,1.0,2.5,3.0,3.0,6.25,1.75,7.0,2.25,9.0,8.0,7.0,8.5,0.08,0.08,0.95,1090.3,2.4,-41.4
1.92,3.0,0.0,2.25,3.5,3.5,0.0,0.0,0.0,0.5,0.25,0.75,0.0,0.5,-1.3,-0.92,2.89,275.72,16.1,46.9,0.5,1.0,2.75,3.0,4.5,6.5,1.75,7.0,2.25,8.5,7.75,6.25,8.25,0.08,0.08,0.95,1073.81,2.3,-36.3
1.94,0.25,0.75,1.25,1.5,2.25,0.0,0.0,0.0,0.25,0.25,0.0,0.25,0.0,-1.11,-0.23,1.7,147.43,12.0,48.8,0.5,1.0,2.75,3.0,4.5,6.75,1.75,7.0,2.25,8.0,7.25,6.0,7.75,0.08,0.08,0.95,1033.96,2.4,-34.4
1.96,0.0,0.0,2.0,0.5,0.0,0.0,0.0,0.0,0.25,0.0,0.0,0.0,0.0,-1.3,-1.73,1.02,13.43,32.1,51.7,0.5,1.0,2.75,3.0,4.75,7.0,2.0,6.75,2.25,7.75,6.5,5.75,7.5,0.14,0.08,0.95,977.08,2.4,-32.2
1.98,0.0,0.0,1.0,0.75,0.0,0.0,0.0,0.0,0.5,0.25,0.0,0.0,0.0,-0.98,-0.61,1.14,0.0,21.5,27.5,0.5,1.0,3.0,3.0,5.25,7.0,1.25,7.0,2.25,7.5,6.5,5.0,6.5,0.08,0.08,0.95,902.4,2.4,-28.6
2.0,0.0,0.0,2.25,1.0,2.5,0.0,0.0,0.0,0.5,0.0,0.0,0.0,0.0,-0.61,-0.48,0.39,0.0,15.2,50.0,0.75,1.0,3.25,3.25,6.0,7.5,3.0,7.0,2.75,7.25,6.25,4.75,6.25,0.08,0.08,0.95,859.02,1.6,-23.7
2.02,0.25,0.0,0.25,1.0,0.0,0.0,0.0,0.0,0.5,0.0,0.0,0.0,0.0,-0.42,-0.48,0.2,0.0,20.7,39.4,1.75,1.0,3.5,5.25,6.75,7.75,3.0,7.0,3.0,7.0,6.25,4.5,5.75,0.08,0.08,0.95,861.56,0.1,-16.2
2.04,0.25,0.0,1.0,0.75,0.0,0.0,0.0,0.0,0.5,0.0,0.0,0.0,0.0,-0.36,-0.3,0.39,0.0,26.4,44.1,2.25,1.5,4.75,5.25,7.5,7.75,3.5,6.75,3.0,6.25,6.25,3.5,5.25,0.08,0.08,0.95,896.89,-1.2,-8.7
2.06,0.25,0.0,0.25,0.75,0.0,0.0,0.0,0.0,0.5,0.0,0.0,0.0,0.0,-0.36,-0.36,0.7,0.0,21.2,36.7,3.0,1.75,5.5,6.75,8.0,8.0,4.0,6.5,3.0,5.75,5.25,2.75,4.0,0.08,0.08,0.95,953.43,-2.8,1.2
2.08,0.25,0.0,0.0,0.75,0.75,0.0,0.0,0.0,0.5,0.0,0.0,0.0,0.0,-0.42,-0.3,0.89,0.0,10.4,40.2,3.25,2.0,6.25,7.25,8.5,8.0,4.5,6.25,2.75,4.75,5.0,2.25,3.25,0.08,0.14,0.95,993.88,-4.0,7.8
2.1,0.5,0.25,0.5,2.0,1.75,1.0,0.0,0.0,0.75,2.0,0.0,0.5,0.25,-0.48,-0.11,1.02,0.0,2.6,10.4,4.5,2.5,6.5,9.0,9.25,8.0,4.25,5.75,2.25,3.5,4.0,2.0,2.25,0.08,0.14,0.95,1028.1,-5.7,18.5
2.12,1.0,0.75,2.0,2.25,2.5,1.0,0.0,0.0,0.75,1.5,0.75,0.5,0.5,-0.48,0.14,1.14,82.43,8.7,22.1,5.5,2.5,7.5,9.5,9.75,8.0,5.0,4.75,1.75,3.5,3.25,1.25,2.0,0.02,0.14,0.95,1055.98,-7.1,25.6
2.14,0.5,0.75,2.0,2.0,1.25,0.5,0.0,0.0,0.5,0.5,1.0,0.25,0.5,-0.42,0.33,1.39,136.67,12.8,24.7,6.5,2.5,8.0,11.0,10.5,8.0,5.5,4.25,1.5,3.5,3.25,1.25,2.0,0.02,0.14,0.95,1106.21,-8.1,28.7
2.16,1.0,0.75,2.0,2.25,0.0,1.0,0.0,0.0,0.5,1.75,1.0,0.75,0.25,-0.36,0.52,1.58,172.23,11.7,11.3,7.25,2.75,8.75,12.5,11.0,8.0,5.5,3.25,1.0,3.5,2.5,0.75,1.5,0.02,0.14,0.95,1160.06,-9.3,35.7
2.18,1.0,0.5,2.0,2.25,2.5,1.0,0.0,0.0,0.5,1.75,0.5,0.5,0.5,-0.3,0.7,1.83,196.74,8.0,21.7,7.5,3.25,9.0,12.5,11.5,8.0,5.5,2.5,1.0,2.75,2.25,0.75,1.25,0.02,0.14,0.95,1204.34,-10.1,39.7
2.2,1.25,0.5,1.25,2.0,2.25,1.0,0.0,0.0,0.5,1.75,0.5,0.75,0.5,-0.48,1.02,2.27,206.11,6.8,16.6,8.75,2.0,9.25,12.0,12.0,7.75,5.25,2.0,1.0,1.75,2.0,0.25,0.75,-0.05,0.2,1.02,1206.83,-11.3,44.9
2.22,1.25,0.75,2.0,2.0,1.25,1.0,0.0,0.0,0.5,1.25,0.75,1.0,0.5,-0.67,1.39,2.64,208.8,10.8,17.1,8.75,2.0,9.25,12.0,11.0,7.5,4.5,2.0,0.75,0.5,1.0,0.25,0.0,-0.05,0.2,1.02,1156.37,-12.5,51.9
2.24,0.5,0.5,2.0,2.25,2.5,1.0,0.0,0.0,0.5,1.0,0.75,0.75,0.5,-0.36,1.95,2.2,211.11,8.5,20.2,8.75,2.0,9.25,12.0,11.0,7.25,3.0,0.5,0.75,0.0,0.0,0.25,0.0,-0.05,0.2,1.08,1068.99,-13.5,58.2
2.26,0.5,0.5,2.0,2.0,1.75,1.25,0.0,0.0,0.5,0.5,0.75,0.75,0.5,1.02,3.27,1.7,208.08,9.6,21.3,10.5,4.25,10.5,14.0,12.0,7.0,2.5,1.25,0.75,0.0,1.25,0.5,1.0,0.02,0.27,1.08,1085.05,-13.5,53.9
2.28,1.0,0.5,3.0,2.25,2.5,1.5,0.0,0.0,0.5,0.75,0.5,1.0,0.5,1.89,3.45,1.14,212.82,10.8,27.1,10.5,5.0,10.5,14.0,11.0,6.0,0.25,1.0,0.25,0.0,2.0,0.0,0.75,0.02,0.33,1.14,1096.23,-14.3,56.8
2.3,0.25,0.5,2.0,2.25,1.25,1.25,0.0,0.0,0.5,1.0,0.75,1.0,0.5,2.08,3.77,0.2,203.12,8.8,12.0,9.75,4.0,11.5,14.0,9.5,5.75,0.0,1.0,1.0,1.75,2.25,0.75,1.0,0.08,0.39,1.2,1127.33,-14.0,48.1
2.32,1.0,0.0,1.75,1.75,2.5,0.0,0.0,0.0,0.5,0.0,0.5,0.0,0.25,2.33,4.45,-0.05,183.02,15.1,43.5,9.75,5.75,9.5,12.5,9.5,4.75,0.0,0.0,1.0,1.5,1.75,0.75,0.25,0.08,0.39,1.27,1095.33,-14.7,54.3
2.34,0.25,0.0,0.0,0.75,0.0,1.0,0.0,0.0,0.5,0.5,0.0,1.25,0.25,-0.23,-0.05,-1.05,133.11,1.2,-27.1,10.5,5.25,9.25,11.0,8.25,3.0,0.0,0.0,1.0,1.75,2.25,0.75,0.75,0.27,0.52,1.39,1031.5,-16.0,51.7
2.36,0.25,0.0,1.25,0.0,2.5,0.75,0.0,0.0,0.0,0.75,1.5,3.0,3.75,-0.42,-0.67,1.7,142.74,0.6,-45.0,9.5,4.25,7.0,7.25,6.75,4.0,0.0,0.25,0.75,2.0,2.25,0.75,0.75,0.77,1.2,2.52,890.23,-14.0,47.6
2.38,0.25,0.0,1.25,0.0,0.0,1.0,0.0,0.0,0.5,0.0,0.5,5.25,5.75,0.52,0.52,0.77,167.38,0.8,-78.6,8.0,2.5,4.0,5.25,5.0,2.75,0.0,0.25,1.0,1.25,1.75,0.75,0.5,0.7,1.27,3.52,692.23,-14.1,46.1
2.4,0.25,0.0,0.25,0.75,0.0,1.75,0.0,3.0,1.25,7.25,3.75,8.25,7.25,-0.42,0.83,1.77,281.42,-4.3,-76.1,6.25,1.75,2.75,4.5,2.5,3.0,0.0,0.0,1.0,0.0,2.5,0.75,1.0,0.2,0.45,2.77,495.98,-14.2,39.5
2.42,0.0,0.0,0.25,1.25,0.0,2.25,0.0,5.25,2.25,0.0,6.75,8.25,8.25,0.2,0.27,1.39,385.81,-1.4,-71.3,2.75,1.0,2.75,3.0,3.25,2.5,0.0,0.25,1.0,1.75,1.5,0.75,0.75,0.77,-0.36,2.7,342.96,-8.8,24.6
2.44,0.0,0.75,0.0,1.5,0.0,2.25,1.75,6.5,3.0,0.0,8.25,9.0,9.5,0.02,0.08,1.02,543.83,-0.6,-66.6,0.5,0.0,1.5,0.75,1.25,0.0,0.0,0.0,0.5,0.0,0.75,0.0,0.5,1.08,-0.17,0.95,197.73,-15.2,22.1
2.46,0.25,0.75,0.75,1.75,0.0,4.5,0.0,6.5,2.75,0.0,7.0,8.75,9.25,-0.11,0.08,0.95,641.79,-1.7,-58.7,0.5,0.0,0.0,0.5,0.5,1.25,0.0,0.0,0.25,0.25,0.25,0.0,0.25,1.33,-1.67,1.14,60.71,1.4,19.2
2.48,0.75,0.75,1.25,1.75,2.5,4.5,0.0,7.0,2.75,8.5,7.0,8.25,9.0,-0.11,0.02,0.95,787.85,-3.5,-52.0,0.25,0.0,1.75,0.0,4.25,1.25,0.25,0.0,0.5,0.0,0.0,0.0,0.0,0.64,-1.17,1.58,0.0,-5.0,48.0
2.5,1.0,0.75,1.25,2.0,3.5,4.5,2.0,7.0,3.0,8.0,7.0,8.25,9.0,-0.11,0.02,0.95,899.15,-2.4,-47.1,0.25,0.0,1.25,0.0,1.0,0.75,0.0,0.0,0.25,0.25,0.5,0.0,0.0,0.2,-0.61,0.83,0.0,-9.5,28.0
2.52,1.25,0.0,2.25,2.25,0.75,5.5,2.0,7.25,3.0,8.0,6.5,7.5,8.25,-0.11,0.08,0.95,970.74,-2.1,-48.5,0.5,0.0,1.25,0.0,1.25,2.5,0.0,0.0,0.25,0.25,0.75,0.0,0.5,0.33,-0.48,0.39,0.0,-0.9,19.4
2.54,1.25,0.0,2.25,3.75,0.5,5.75,2.5,7.5,3.5,8.0,6.5,7.5,8.25,-0.11,0.08,0.95,1015.68,-1.4,-45.2,0.5,0.0,1.5,0.0,1.0,2.75,0.0,0.0,0.25,0.25,0.0,0.0,0.0,0.39,-0.36,0.77,0.0,-1.8,41.8
2.56,1.25,0.0,2.0,3.75,2.5,6.25,2.5,7.5,3.5,7.75,6.5,6.75,7.5,-0.11,0.02,0.95,1022.68,-1.8,-39.1,0.5,0.0,1.5,0.0,1.0,2.5,0.0,0.0,0.25,0.25,0.0,0.0,0.0,0.33,-0.17,0.95,0.0,-2.7,42.1
2.58,1.5,0.0,2.25,3.75,5.75,6.5,2.75,7.25,3.75,7.25,6.25,6.25,7.0,-0.11,0.02,0.95,1018.33,-1.3,-30.2,0.5,0.0,1.0,0.0,0.5,2.5,0.25,0.0,0.25,0.25,0.0,0.0,0.0,0.27,0.08,0.95,0.0,-0.5,38.5
2.6,2.0,0.75,2.25,5.5,6.25,6.75,3.0,7.25,3.75,7.25,5.75,5.75,6.5,-0.05,0.02,0.95,1010.7,-0.5,-22.2,0.25,0.0,1.5,0.0,1.0,2.5,0.25,0.0,0.25,0.25,0.75,0.0,0.0,0.33,0.27,1.08,15.58,-3.0,27.0
2.62,2.0,0.75,3.25,5.5,6.25,7.0,3.75,7.0,3.75,6.0,4.5,5.0,5.5,-0.11,0.08,0.95,994.34,0.5,-15.3,0.5,1.0,1.5,0.0,0.5,3.25,0.25,0.5,1.0,2.0,0.75,0.75,0.25,0.33,0.33,1.27,75.58,-0.2,0.6
2.64,2.0,0.75,4.5,7.0,7.25,7.25,4.0,7.0,3.75,5.75,4.0,4.5,4.5,-0.11,0.08,0.95,983.42,1.8,-7.1,0.5,0.75,2.75,0.25,2.75,3.5,0.75,0.0,1.0,1.75,0.25,0.75,0.0,0.27,0.52,1.64,140.23,-3.9,22.3
2.66,2.0,1.0,4.5,7.5,8.0,7.25,4.5,6.75,3.75,5.25,4.0,3.25,4.0,-0.11,0.08,0.95,983.91,2.2,-1.4,0.0,0.0,2.75,0.0,3.0,2.75,0.75,0.5,0.25,0.5,0.0,0.75,0.0,0.27,0.64,1.83,175.59,-3.7,27.4
2.68,2.75,1.0,4.75,9.0,8.25,7.5,4.75,6.25,3.75,4.25,3.5,2.5,2.75,-0.11,0.08,0.95,981.41,3.7,7.8,0.0,1.0,2.75,0.5,2.5,3.0,0.5,0.5,1.0,2.0,1.0,0.75,1.0,0.39,0.89,2.08,217.95,-2.3,5.2
2.7,3.0,1.5,5.75,11.5,9.0,7.75,4.75,5.5,3.5,4.25,2.75,2.0,2.25,-0.05,0.08,0.95,1002.45,5.1,16.2,0.5,0.75,2.75,0.5,1.75,2.5,0.75,0.5,1.0,1.5,0.75,0.75,0.5,0.52,1.45,2.52,225.45,-5.7,11.1
2.72,3.75,2.0,6.0,12.0,9.25,7.75,5.0,5.5,3.0,3.5,2.25,2.0,2.0,-0.05,0.08,0.95,1024.71,6.0,21.2,0.5,0.25,2.75,0.0,1.5,2.5,0.75,0.25,1.0,1.75,1.0,0.75,0.75,0.52,2.45,2.45,224.69,-4.9,0.5
2.74,4.0,2.0,7.0,13.5,9.75,8.0,4.75,4.5,2.5,2.25,1.5,1.75,1.5,-0.05,0.08,0.95,1055.28,7.5,29.6,0.5,0.5,2.75,0.5,1.75,2.5,0.75,0.25,1.0,1.75,1.0,0.75,0.5,0.14,3.14,1.08,224.94,-5.7,7.4
2.76,5.5,2.0,7.75,15.0,11.5,8.0,4.75,4.25,2.0,2.0,2.0,1.75,1.5,-0.05,0.08,0.95,1120.09,8.5,33.1,0.5,0.75,2.75,0.0,2.25,3.0,0.5,0.25,1.0,2.0,1.25,0.75,0.5,-0.61,3.77,0.39,228.75,-3.7,7.0
2.78,5.75,2.25,8.5,15.0,13.5,8.0,5.0,3.75,1.75,2.0,1.75,1.75,1.0,-0.05,0.14,0.95,1190.54,8.9,36.7,0.5,0.75,2.75,0.5,1.25,2.75,0.5,0.25,1.0,2.0,0.25,0.75,0.75,-1.55,4.45,-0.17,225.87,-4.4,8.2
2.8,6.25,2.25,8.75,16.5,13.5,8.0,4.75,3.25,1.5,2.0,1.0,1.75,0.75,-0.05,0.14,0.95,1257.4,9.5,40.2,0.5,0.75,2.75,0.5,2.25,3.25,0.0,0.5,0.75,2.0,1.0,0.75,0.5,-1.98,4.2,0.08,230.14,-2.7,10.0
2.82,7.0,1.25,9.25,16.0,14.0,7.25,5.25,2.5,1.0,0.75,0.0,0.5,1.25,-0.05,0.14,1.02,1266.9,10.8,47.1,0.5,0.75,2.75,1.25,1.25,2.75,0.0,0.25,1.0,2.75,0.75,1.75,1.0,0.02,-0.48,-0.61,235.15,-3.9,-4.6
2.84,7.25,1.0,9.75,15.0,14.5,7.0,5.5,2.0,1.25,2.0,0.0,0.0,0.25,-0.11,0.14,1.02,1255.28,11.2,48.8,0.5,0.0,2.75,0.0,2.5,0.75,0.0,0.5,0.75,3.75,2.25,4.75,4.5,0.2,-0.55,0.58,264.59,-1.8,-48.0
2.86,8.5,2.5,9.75,16.5,12.5,7.0,4.75,1.0,0.5,2.0,0.5,1.0,0.75,-0.11,0.2,1.08,1246.03,12.3,48.8,0.0,0.25,1.25,0.5,1.5,2.75,0.0,1.75,1.0,7.25,4.0,7.0,7.5,-0.8,0.7,1.27,344.59,3.9,-64.2
2.88,8.75,2.5,10.5,17.5,13.5,0.0,3.0,1.75,1.0,1.75,0.5,0.25,0.75,-0.11,0.2,1.08,1206.46,15.8,51.8,0.25,0.75,1.25,0.75,1.0,0.0,0.0,4.0,1.75,9.0,5.25,7.25,8.0,0.39,0.58,3.58,465.79,2.6,-68.2
2.9,10.0,3.25,11.0,18.0,14.0,5.0,2.75,0.0,1.0,2.0,0.5,1.5,0.5,-0.17,0.2,1.14,1244.44,14.1,51.6,0.5,0.75,0.25,2.75,2.25,0.0,0.75,6.5,2.25,9.25,7.75,7.75,8.25,-0.05,0.52,1.39,638.18,2.1,-59.7
2.92,11.0,3.25,12.0,16.5,12.5,1.75,2.0,0.0,1.0,1.75,1.25,0.25,0.25,-0.17,0.27,1.2,1229.95,17.1,56.0,0.5,0.75,1.75,3.0,2.5,6.25,0.0,6.5,2.25,9.0,8.5,7.75,8.75,0.14,0.14,1.02,812.89,3.2,-46.9
2.94,10.5,2.25,11.0,13.5,11.0,1.0,0.0,0.5,0.5,0.0,0.25,0.25,0.25,-0.23,0.39,1.33,1124.12,18.5,62.2,0.75,0.75,2.75,2.75,3.0,6.25,0.75,6.5,2.25,9.0,7.75,7.0,8.5,0.14,0.08,0.95,948.32,2.4,-41.9
2.96,9.5,2.0,10.0,9.75,8.5,1.0,0.0,0.0,0.5,0.0,0.0,0.0,0.5,-0.42,0.52,1.52,932.34,19.6,64.1,1.25,0.75,2.75,3.0,3.75,6.25,1.25,6.75,2.25,9.0,7.5,7.0,8.5,0.08,0.08,0.89,1034.72,2.0,-38.6
2.98,8.75,1.25,7.75,7.25,6.5,0.75,0.0,0.0,0.5,0.0,0.0,0.25,0.25,-0.73,0.89,2.02,710.56,20.4,64.3,0.5,0.25,2.75,3.0,4.5,6.25,1.75,6.75,2.25,8.75,7.75,7.0,8.25,0.08,0.08,0.95,1072.93,2.3,-39.5
3.0,8.0,1.75,5.25,6.0,5.0,1.0,0.0,0.25,0.5,0.0,0.0,0.0,0.75,-0.73,1.08,2.83,513.06,18.8,62.7,0.5,0.0,2.75,3.0,4.5,6.25,2.25,6.75,2.25,8.75,7.75,6.5,8.0,0.08,0.08,0.95,1077.74,2.3,-38.9
3.02,5.75,0.75,2.25,3.75,4.25,0.0,0.0,0.0,0.5,0.0,0.0,0.0,0.0,-0.61,0.33,2.52,337.01,19.3,68.2,0.75,1.0,2.75,3.0,5.0,6.5,2.5,6.25,2.25,8.25,7.75,6.25,8.0,0.08,0.08,0.95,1063.48,1.7,-34.0
3.04,3.25,0.0,1.5,2.25,2.5,1.0,0.0,0.0,0.5,0.0,0.5,0.0,0.0,-0.86,0.27,2.95,219.05,15.8,56.0,0.75,1.0,2.75,3.0,4.25,6.5,3.0,6.5,2.25,8.0,7.25,6.0,7.75,0.08,0.08,0.95,1028.02,1.6,-33.9
3.06,0.75,0.0,1.75,0.0,3.0,0.0,0.0,0.0,0.5,0.25,0.75,0.0,0.5,-1.17,-0.55,2.27,99.66,10.6,27.0,2.0,1.0,2.75,3.0,5.5,6.5,3.0,6.25,2.25,7.75,6.75,5.75,7.5,0.08,0.08,0.95,988.93,0.9,-28.0
3.08,0.0,0.5,1.0,3.5,0.0,0.0,0.0,0.0,0.5,0.25,0.0,0.0,0.0,-1.55,-1.48,1.89,0.0,18.6,48.3,2.0,1.0,4.0,3.25,5.75,7.0,3.75,6.25,2.75,7.25,6.75,5.75,6.75,0.08,0.08,0.95,958.5,-0.3,-23.2
3.1,0.0,0.0,2.0,1.0,0.75,0.0,0.0,0.0,0.5,0.5,0.0,0.75,0.0,-1.17,-1.05,0.89,0.0,17.2,16.4,3.0,1.0,5.25,4.0,6.0,7.0,4.0,6.0,3.0,7.25,6.5,5.0,6.25,0.08,0.08,0.95,953.64,-1.9,-16.3
3.12,0.5,0.75,2.25,2.5,3.0,1.0,0.0,0.0,0.5,0.0,0.0,0.75,0.75,-0.67,-0.48,0.52,0.0,10.2,35.5,3.0,1.0,5.25,5.25,6.5,7.0,4.5,5.75,3.0,7.0,6.25,4.75,6.0,0.08,0.14,0.95,968.97,-2.4,-12.7
3.14,1.0,0.5,2.0,2.25,2.5,1.5,0.0,0.0,0.5,0.5,0.5,0.25,0.75,-0.42,-0.48,0.33,0.0,8.8,31.7,3.25,1.0,6.25,5.25,6.75,7.0,5.0,6.0,3.0,6.25,5.5,4.25,5.5,0.08,0.14,0.95,981.98,-3.4,-7.7
3.16,1.0,0.75,2.25,2.5,2.5,1.25,0.0,0.0,0.5,0.5,0.75,0.25,0.5,-0.36,-0.36,0.45,58.82,10.6,34.8,4.75,1.25,6.75,5.5,6.75,7.0,5.5,5.5,3.0,5.75,4.75,3.5,4.25,0.08,0.14,0.95,991.66,-5.1,1.0
3.18,1.0,0.5,2.0,2.5,2.5,1.5,0.0,0.0,0.5,0.5,0.5,0.75,0.0,-0.36,-0.3,0.7,105.84,10.3,35.3,5.5,1.5,7.75,7.25,7.5,7.25,6.0,5.0,3.0,4.75,5.0,2.5,4.0,0.08,0.14,0.95,1025.45,-6.7,9.2
3.2,1.25,0.75,2.0,2.5,1.25,1.5,0.0,0.0,0.5,0.25,0.5,0.75,0.75,-0.36,-0.36,0.95,137.21,11.5,28.8,6.75,1.75,8.5,7.5,8.0,7.25,6.25,4.5,2.75,3.75,4.0,2.25,2.25,0.02,0.14,0.95,1047.13,-8.7,19.6
3.22,1.25,0.5,2.0,2.25,2.5,1.25,0.0,0.0,0.5,0.5,0.75,0.5,0.5,-0.3,-0.17,1.08,159.79,10.3,30.9,7.5,1.75,9.0,9.0,8.25,7.5,6.75,3.75,2.25,3.5,3.5,1.5,2.25,0.02,0.14,0.95,1079.44,-9.7,25.7
3.24,1.0,0.75,2.0,2.25,2.5,1.0,0.0,0.0,0.5,0.5,0.25,1.0,0.75,-0.23,0.02,1.2,178.54,10.0,26.8,8.25,2.5,9.25,10.5,9.25,7.25,7.0,2.75,2.25,3.25,3.25,1.0,1.75,0.02,0.14,0.95,1119.88,-10.9,32.5
3.26,1.0,0.75,2.0,2.0,2.5,1.25,0.0,0.0,0.5,0.5,0.75,0.75,0.5,-0.17,0.2,1.45,196.51,9.7,27.8,9.0,2.5,10.5,11.0,9.25,7.0,6.75,2.5,1.5,2.75,2.25,1.0,1.25,0.02,0.14,0.95,1150.64,-12.3,38.6
3.28,0.5,0.75,1.5,2.25,2.5,1.25,0.0,0.0,0.5,1.25,0.5,0.5,0.5,-0.11,0.33,1.58,201.92,6.2,23.0,9.0,2.5,11.5,11.0,9.5,7.0,6.75,2.0,1.0,1.5,1.75,0.5,1.0,0.02,0.14,0.95,1156.36,-13.6,45.2
3.3,1.0,0.5,2.0,2.25,0.75,1.25,0.0,0.0,0.5,1.25,1.25,0.25,0.5,-0.05,0.52,1.83,197.99,10.6,17.4,10.5,3.0,11.5,12.0,9.5,7.0,6.5,1.75,1.0,2.25,2.25,0.75,1.25,0.02,0.14,1.02,1184.62,-13.7,43.9
3.32,1.0,0.5,2.0,2.0,2.5,1.25,0.0,0.0,0.5,1.75,0.5,0.75,1.0,-0.11,0.64,2.02,200.82,6.6,14.2,10.5,1.75,11.5,11.5,9.25,6.25,6.5,0.5,0.75,1.5,1.0,0.0,0.75,-0.05,0.2,1.02,1146.26,-15.6,51.8
3.34,1.0,0.75,2.0,2.0,2.5,1.25,0.0,0.0,0.5,0.75,0.5,0.5,0.5,-0.3,0.83,2.58,196.88,9.2,30.4,10.5,2.25,12.5,12.5,9.75,5.5,6.25,1.5,0.5,0.5,1.5,0.25,0.75,-0.05,0.2,1.08,1135.71,-16.1,52.1
3.36,0.25,0.5,2.0,1.75,2.5,1.0,0.0,0.0,0.5,1.25,0.0,0.25,0.0,0.33,2.52,2.14,183.67,7.8,33.6,9.75,3.5,11.5,12.0,9.25,0.0,5.75,1.5,0.75,0.0,0.75,0.75,0.0,-0.05,0.27,1.08,1053.31,-19.9,57.5
3.38,0.25,0.5,0.0,2.25,2.5,1.25,0.0,0.0,0.5,1.75,0.0,0.75,0.5,0.95,3.14,1.02,172.7,-0.3,10.8,13.0,4.75,13.0,14.0,9.5,2.75,4.0,0.75,1.0,1.25,1.0,0.75,1.0,0.02,0.33,1.08,1092.24,-18.0,54.8
3.4,0.75,0.0,1.75,2.0,1.25,1.25,0.0,0.0,0.5,1.5,0.5,0.75,0.0,1.39,3.83,0.2,162.41,8.8,15.9,14.0,5.75,13.0,12.5,9.25,2.5,1.5,0.75,1.0,0.0,1.5,0.75,1.25,0.02,0.33,1.14,1108.2,-18.7,57.5
3.42,0.0,0.0,2.0,1.75,2.5,1.0,0.0,0.0,0.25,1.25,0.5,0.75,0.0,1.95,4.27,-0.23,156.06,7.1,18.7,13.0,5.25,12.5,10.5,8.0,4.5,0.0,0.5,1.0,1.25,2.0,0.75,1.0,0.08,0.45,1.27,1121.9,-17.0,53.6
3.44,0.25,0.0,1.75,0.5,2.5,0.25,0.0,0.0,0.5,0.0,0.5,0.0,0.5,3.33,5.02,-0.11,137.81,10.5,29.7,12.5,5.5,11.0,9.25,6.75,4.0,0.0,0.5,1.0,0.5,1.75,0.75,0.75,0.2,0.52,1.33,1059.35,-17.7,56.4
3.46,0.75,0.5,0.0,0.0,2.5,0.0,0.0,0.5,0.5,0.5,1.25,1.75,2.75,-0.61,-0.42,2.2,140.14,0.0,-34.7,11.0,4.25,8.75,7.25,5.25,3.75,0.0,0.5,1.0,0.25,2.25,0.0,0.75,0.58,1.14,2.27,921.99,-17.5,55.9
3.48,0.25,0.0,1.25,0.0,2.5,1.0,0.0,0.0,0.0,3.25,2.0,5.0,5.5,0.14,-0.23,0.52,193.2,-1.7,-60.0,9.0,2.75,4.25,5.25,1.0,3.75,0.0,0.25,1.0,1.5,2.0,0.75,0.75,0.77,1.08,3.39,695.19,-15.8,43.6
3.5,0.25,0.0,0.0,1.0,0.5,1.75,0.0,1.0,1.0,7.25,3.25,7.25,7.5,0.33,0.89,2.89,286.2,-4.5,-75.6,6.5,1.25,2.25,3.25,3.5,3.25,0.0,0.0,1.0,2.0,1.25,0.75,1.0,0.45,0.39,2.58,488.94,-10.6,34.6
3.52,0.0,0.75,1.75,2.5,0.75,2.25,0.0,6.25,2.75,9.0,7.0,8.75,9.0,-0.05,0.7,1.33,484.2,-2.3,-60.0,1.75,0.0,1.75,1.25,0.0,3.25,0.0,0.0,1.0,2.0,0.75,0.75,0.0,0.89,-0.23,2.33,292.17,-5.9,10.1
3.54,1.0,0.75,0.0,1.75,0.0,4.5,0.0,5.5,3.0,9.25,7.5,9.0,9.0,0.27,0.2,1.2,693.66,-3.8,-61.9,0.5,0.0,2.25,0.0,2.75,2.5,0.5,0.0,0.75,0.0,0.0,0.0,0.0,0.7,0.14,1.2,165.38,-6.1,44.6
3.56,1.0,0.75,2.0,1.75,2.5,4.5,1.25,7.0,2.75,8.5,7.5,8.5,9.5,-0.05,0.02,1.02,891.03,-2.3,-50.0,0.5,0.0,1.25,0.5,0.25,2.0,0.0,0.0,0.5,0.0,0.25,0.0,0.0,1.39,-1.61,1.7,38.36,-7.5,37.9
3.58,0.75,0.5,1.75,1.75,2.5,4.5,1.25,7.25,2.75,8.25,7.0,8.25,9.0,-0.17,0.02,0.95,992.57,-2.8,-50.6,0.75,0.0,1.75,2.75,0.25,1.75,0.0,0.0,0.5,0.5,0.0,0.0,0.25,0.64,-0.98,1.39,0.0,-11.5,38.7
3.6,1.0,0.0,2.0,2.0,2.5,5.25,1.5,7.5,2.75,7.75,6.5,7.5,8.25,-0.11,0.02,0.95,1031.98,-2.7,-46.9,0.5,0.0,2.0,0.5,0.5,2.0,0.0,0.0,0.25,0.5,0.0,0.0,0.0,0.33,-0.36,0.64,0.0,-8.6,39.8
3.62,1.25,0.0,2.0,3.75,3.5,6.25,2.0,7.5,3.0,7.75,5.75,6.75,7.5,-0.11,0.02,0.95,1029.96,-2.2,-37.0,0.5,0.0,2.0,0.5,1.0,2.25,0.0,0.0,0.25,0.25,0.0,0.0,0.0,0.33,-0.42,0.08,0.0,-7.4,45.0
3.64,1.25,0.25,2.0,3.75,4.5,6.25,2.5,7.5,3.0,7.5,6.0,6.5,7.25,-0.11,0.08,0.95,1026.2,-1.9,-33.6,0.5,0.0,1.75,0.5,0.25,2.5,0.0,0.0,0.25,0.25,0.0,0.0,0.0,0.33,-0.3,0.33,0.0,-6.4,42.6
3.66,2.0,0.5,2.25,4.0,6.0,7.0,2.5,7.5,3.25,7.25,5.5,5.75,6.5,-0.11,0.08,0.95,1023.47,-1.4,-24.9,0.5,0.0,1.75,0.5,0.5,2.0,0.0,0.0,0.25,0.25,0.0,0.0,0.0,0.33,-0.36,0.7,0.0,-8.3,43.9
3.68,2.0,0.75,2.5,5.5,6.25,7.0,3.0,7.25,3.5,6.25,5.0,5.0,5.75,-0.05,0.02,0.95,1012.19,-0.3,-17.7,0.5,0.0,1.5,0.5,1.0,2.25,0.25,0.0,0.25,0.25,0.0,0.0,0.0,0.33,-0.3,1.02,0.0,-5.4,43.4
3.7,2.0,0.75,3.5,5.75,6.75,7.5,3.25,7.0,3.25,6.0,4.5,3.75,5.25,-0.11,0.02,0.95,986.72,0.2,-11.1,0.5,0.0,1.75,0.5,0.5,2.5,0.0,0.0,0.25,0.25,0.0,0.0,0.0,0.33,-0.11,1.02,24.94,-6.0,43.1
3.72,1.0,0.75,4.25,7.25,8.0,7.75,3.5,7.0,3.25,5.5,3.0,3.25,4.25,-0.11,0.08,0.95,952.9,0.5,-3.4,0.75,1.0,1.75,1.25,0.5,2.75,0.25,0.0,0.75,0.5,0.75,0.25,0.0,0.33,0.14,1.02,79.65,-7.9,31.9
3.74,2.5,1.0,4.5,8.25,8.25,7.75,3.75,6.75,3.25,4.5,3.0,2.5,2.5,-0.11,0.08,0.95,927.03,2.6,7.3,0.75,0.25,2.75,0.5,2.75,2.5,0.5,0.25,0.25,0.25,0.75,0.0,0.25,0.33,0.33,1.14,127.17,-7.4,36.6
3.76,2.0,1.25,4.75,9.0,9.0,8.0,4.5,6.5,3.0,4.25,2.75,2.0,2.75,-0.11,0.08,0.95,918.37,2.7,10.3,0.5,0.0,1.5,0.5,0.25,2.25,0.0,0.0,0.25,0.25,0.0,0.0,0.0,0.2,0.45,1.45,135.86,-6.2,42.1
3.78,3.0,1.75,5.75,11.5,9.75,8.0,4.5,6.0,3.0,4.25,2.5,2.0,2.0,-0.11,0.08,0.95,969.0,4.7,17.9,0.25,0.0,1.0,0.5,0.25,2.25,0.0,0.0,0.25,0.25,0.0,0.0,0.0,0.14,0.58,1.7,120.86,-1.3,37.3
3.8,3.75,2.0,6.0,13.5,10.0,8.0,2.75,6.0,2.75,3.75,1.75,1.75,2.0,-0.05,0.08,0.95,1026.19,5.2,23.1,0.25,0.0,1.75,0.5,0.25,2.5,0.25,0.0,0.25,0.25,0.0,0.0,0.0,0.27,0.77,1.89,105.07,-5.8,40.1
3.82,4.0,2.25,6.75,13.5,12.0,8.0,4.75,5.25,2.0,2.25,2.0,1.75,1.5,-0.11,0.08,0.95,1096.05,6.7,29.6,0.5,0.75,3.0,0.5,1.75,3.75,0.5,0.5,1.0,1.75,1.0,0.75,0.25,0.45,1.02,2.27,142.51,-3.9,12.8
3.84,4.0,2.25,7.75,15.0,12.5,8.0,4.0,4.5,2.0,2.0,1.5,1.75,1.25,-0.11,0.08,0.95,1153.68,7.6,33.5,0.5,0.75,2.75,0.75,1.25,3.5,0.25,0.75,1.0,2.0,1.0,0.75,0.25,0.52,1.83,2.64,181.32,-3.4,8.5
3.86,5.5,2.0,7.75,15.5,13.5,8.0,4.75,3.75,1.5,2.0,1.75,1.75,1.25,-0.11,0.08,0.95,1210.85,8.4,35.9,0.75,0.75,2.75,0.75,1.75,3.0,0.5,0.0,1.0,1.75,0.5,0.75,0.5,0.33,2.52,2.2,215.16,-5.5,15.6
3.88,5.5,2.25,8.5,16.5,13.5,8.0,4.5,3.0,1.25,2.0,1.25,1.75,1.25,-0.11,0.14,0.95,1254.71,9.1,38.6,0.5,0.0,2.75,0.5,1.25,2.75,0.25,0.25,1.0,1.75,0.75,0.75,0.5,-0.23,3.2,1.02,220.95,-4.7,3.4
3.9,6.0,2.25,8.25,16.5,13.0,8.0,3.25,2.25,1.0,1.75,0.5,1.5,1.0,-0.11,0.14,0.95,1259.22,9.5,42.9,1.0,0.25,2.75,0.5,1.5,2.75,0.25,0.5,1.0,1.75,0.5,0.75,0.0,-1.05,3.45,0.14,219.99,-5.9,14.5
3.92,5.75,1.25,8.5,16.0,14.5,7.5,3.75,1.5,0.75,0.75,0.0,0.25,0.5,-0.11,0.14,0.95,1219.83,10.3,50.6,0.5,0.75,2.75,1.0,1.25,2.75,0.0,0.75,1.0,0.0,0.75,0.75,0.5,-2.17,4.7,0.27,210.7,-7.3,20.2
3.94,7.0,2.25,10.0,18.5,14.5,7.5,4.25,2.0,1.0,2.0,0.75,1.0,1.25,-0.11,0.14,0.95,1261.13,10.7,44.7,0.5,0.75,2.75,1.75,1.25,2.75,0.0,0.25,0.5,1.5,0.75,0.75,0.75,-1.98,4.7,0.39,212.99,-5.8,14.0
3.96,6.5,2.0,10.5,18.5,14.0,7.25,4.0,1.75,0.5,2.0,0.5,1.25,1.0,-0.11,0.2,1.02,1283.58,11.1,45.6,0.5,0.0,2.75,0.75,0.25,3.5,0.0,0.25,0.75,3.0,0.75,2.25,2.25,0.33,-0.73,0.58,221.86,-0.9,-25.2
3.98,8.0,2.25,10.5,18.5,15.0,6.25,3.0,1.0,1.0,1.75,0.0,1.5,0.75,-0.11,0.2,1.02,1316.42,12.2,48.8,0.5,0.0,2.75,1.25,0.25,2.75,0.0,0.0,0.75,3.5,2.25,3.5,4.75,0.2,-0.36,1.2,256.78,-1.2,-43.9
4.0,9.25,2.5,12.0,18.5,14.5,3.5,3.75,1.5,0.75,1.25,0.5,1.0,1.0,-0.11,0.2,1.08,1326.68,14.5,50.7,1.0,0.0,2.75,0.75,0.5,2.0,0.0,3.25,1.5,8.25,5.0,6.75,6.5,-0.11,1.02,2.45,361.11,0.9,-58.5
4.02,9.75,3.25,12.5,17.0,13.5,4.5,2.5,0.25,0.75,2.0,1.25,0.75,0.5,-0.11,0.27,1.08,1324.96,14.8,52.1,0.5,0.0,1.0,3.0,2.75,5.75,0.0,6.0,1.75,9.25,8.5,7.75,8.75,-0.17,1.14,1.58,569.73,3.9,-50.9
4.04,10.5,2.5,12.0,14.5,12.5,2.5,1.5,0.0,0.5,0.5,0.0,0.5,0.5,-0.23,0.33,1.27,1235.13,17.2,59.7,0.5,1.0,2.75,3.0,2.75,6.0,0.5,7.0,2.0,9.0,8.75,7.75,8.75,0.02,0.2,1.14,798.33,2.3,-44.0
4.06,10.0,2.25,11.5,13.5,9.75,1.0,0.0,0.0,0.5,0.5,0.0,0.0,0.25,-0.3,0.45,1.39,1079.24,19.3,63.2,0.5,1.0,2.75,3.0,2.5,6.0,0.75,7.0,2.0,9.0,8.0,7.0,8.75,0.14,0.14,0.95,960.91,2.5,-43.1
4.08,11.5,2.5,10.5,13.5,8.25,1.25,0.0,0.0,0.75,0.75,0.0,0.0,0.0,-0.55,0.64,1.52,942.43,19.8,64.3,0.5,1.0,2.75,3.0,3.0,6.5,2.0,7.0,2.0,8.75,7.75,6.5,8.5,0.14,0.08,0.95,1053.21,2.4,-39.7
4.1,10.5,2.5,9.5,9.0,8.0,1.0,0.0,1.0,0.75,0.0,0.75,0.25,0.5,-0.73,0.83,1.95,802.96,18.9,59.5,0.5,1.0,2.75,3.0,3.0,6.75,2.0,7.0,2.25,8.25,6.75,6.25,8.25,0.14,0.08,0.89,1067.31,2.5,-37.8
4.12,7.25,0.75,6.25,5.75,5.0,0.0,0.0,0.75,0.5,0.0,0.5,0.0,0.5,-0.73,1.2,3.08,598.86,20.3,58.8,0.75,1.0,2.75,3.0,4.5,6.75,2.0,7.0,2.25,9.0,7.5,6.25,8.0,0.08,0.08,0.95,1075.11,2.3,-35.3
4.14,5.0,0.0,2.25,3.75,3.0,0.0,0.0,0.0,0.0,0.0,0.0,0.0,0.0,-0.48,0.33,2.52,373.77,21.4,70.3,1.0,1.0,2.75,3.0,4.5,6.75,2.5,7.25,2.25,8.75,7.5,6.25,8.25,0.08,0.08,0.95,1078.76,2.1,-34.7
4.16,2.25,0.5,2.0,3.75,2.5,0.25,0.0,0.0,0.5,0.0,0.0,1.0,0.25,-0.8,0.08,2.27,229.49,16.5,45.7,1.0,1.0,2.75,3.0,4.5,6.75,2.25,7.25,2.25,8.5,7.5,6.0,8.0,0.08,0.08,0.95,1073.63,2.1,-34.0
4.18,2.0,0.75,1.75,3.75,4.25,1.0,0.0,0.0,0.5,0.5,1.25,1.25,0.5,-0.8,0.14,1.08,138.55,10.3,30.2,1.75,1.0,2.75,3.0,5.0,7.0,2.5,7.0,2.25,8.25,6.75,5.75,7.75,0.08,0.08,0.95,1043.59,1.7,-29.9
4.2,0.75,0.75,2.25,3.75,3.0,0.0,0.0,0.0,0.0,0.0,0.5,1.0,0.5,-1.23,-0.86,2.33,80.73,14.1,37.7,1.5,1.0,2.75,3.25,4.75,7.0,2.25,7.0,2.25,8.0,6.0,5.25,7.25,0.08,0.08,0.95,984.19,1.9,-28.4
4.22,0.5,0.75,2.25,2.0,2.5,0.0,0.0,0.0,0.0,0.5,0.75,0.75,0.5,-1.17,-1.42,0.95,50.28,12.7,27.9,2.0,1.0,3.5,3.25,5.25,7.0,3.0,6.75,2.25,7.75,6.5,5.0,7.0,0.08,0.14,0.95,931.16,0.7,-24.5
4.24,1.0,0.5,2.25,3.25,2.5,1.0,0.0,0.0,0.25,0.5,0.5,1.0,0.5,-0.67,-0.48,0.64,49.98,11.4,30.4,1.5,1.0,4.25,3.25,6.0,7.0,3.0,6.75,2.75,7.5,6.25,5.0,6.5,0.08,0.14,0.95,888.87,0.3,-22.2
4.26,0.0,0.0,2.0,0.75,1.75,0.0,0.0,0.0,0.25,0.0,0.0,1.25,0.5,-0.42,-0.36,0.33,22.73,13.4,11.1,2.0,1.0,5.25,5.0,6.5,7.0,4.0,6.5,2.75,7.25,6.5,5.0,6.5,0.08,0.14,0.95,906.99,-1.4,-16.6
4.28,0.0,0.0,1.75,1.0,1.75,0.0,0.0,0.0,0.0,0.0,0.0,0.25,0.0,-0.23,-0.23,0.27,4.08,16.1,49.1,2.0,1.0,5.25,5.25,6.5,7.0,4.5,6.25,3.0,7.0,6.25,4.75,5.75,0.08,0.14,0.95,936.5,-1.9,-14.1
4.3,0.0,0.0,1.0,0.25,2.5,0.25,0.0,0.0,0.25,0.5,0.0,1.0,0.0,-0.3,-0.17,0.58,0.0,5.3,13.6,3.0,1.0,5.5,5.25,6.5,7.0,4.75,6.25,3.0,6.5,6.5,4.0,5.5,0.02,0.14,0.95,970.61,-2.7,-10.3
4.32,0.25,0.25,1.5,2.5,3.0,1.75,0.0,0.0,0.0,0.5,0.75,1.25,1.0,-0.42,-0.3,0.83,44.26,4.7,14.6,3.0,1.25,6.75,6.0,6.75,7.0,5.5,5.75,3.0,5.75,5.75,3.5,5.0,0.02,0.14,0.95,989.67,-4.2,-3.7
4.34,1.0,0.5,2.0,2.25,2.5,1.75,0.0,0.0,0.0,0.5,0.5,1.0,0.5,-0.36,-0.23,1.02,99.26,8.5,29.1,3.5,1.25,7.25,7.25,7.0,7.25,6.0,5.5,3.0,5.25,5.5,3.0,4.0,0.02,0.14,0.95,1010.99,-5.4,2.8
4.36,0.25,0.5,2.0,2.5,2.5,1.25,0.0,0.0,0.0,1.0,0.75,1.0,0.5,-0.23,-0.05,1.2,153.96,7.5,19.6,4.5,1.75,7.75,8.0,8.0,7.5,6.5,5.0,2.75,4.5,4.5,2.25,3.75,0.02,0.14,0.95,1036.2,-6.5,11.5
4.38,0.75,0.5,2.0,2.25,2.5,1.25,0.0,0.0,0.0,1.5,0.0,1.0,0.75,-0.11,0.14,1.33,181.19,6.8,20.7,5.0,1.75,8.75,9.0,8.25,7.5,6.75,4.5,2.5,3.75,4.0,2.25,2.25,0.02,0.14,0.95,1063.53,-8.2,19.1
4.4,0.75,0.5,2.0,2.25,2.5,1.25,0.0,0.0,0.5,1.5,0.5,1.0,0.5,-0.05,0.27,1.64,191.71,7.5,17.6,5.5,2.0,9.0,10.5,8.25,7.5,7.25,4.0,2.25,3.5,3.5,2.0,2.5,0.02,0.14,0.95,1098.77,-9.0,22.9
4.42,0.5,0.25,2.0,2.0,2.5,1.25,0.0,0.0,0.5,0.5,0.75,1.25,0.5,0.02,0.39,1.83,190.64,8.6,16.7,6.75,2.25,9.25,11.0,9.25,7.5,7.5,3.5,2.25,3.5,3.0,1.5,1.25,0.02,0.14,0.95,1132.85,-10.1,30.2
4.44,0.5,0.25,2.0,2.0,2.5,1.25,0.0,0.0,0.5,0.5,0.5,0.75,0.5,0.02,0.58,2.14,192.34,8.6,24.0,7.5,2.25,10.5,12.5,9.25,7.5,8.0,3.0,1.5,2.75,2.75,0.75,1.0,0.02,0.14,0.95,1168.53,-11.8,37.2
4.46,0.75,0.0,2.0,1.75,2.5,1.5,0.0,0.0,0.5,0.5,0.5,1.0,0.5,-0.11,0.83,2.39,191.1,8.2,20.5,8.0,2.5,11.5,14.0,9.5,7.25,8.25,2.25,1.5,2.75,2.75,0.75,1.25,0.02,0.14,0.95,1215.45,-12.7,39.0
4.48,0.25,0.0,2.0,1.75,2.5,1.0,0.0,0.0,0.5,0.5,0.75,0.25,0.25,-0.11,1.14,2.64,181.23,9.0,26.9,8.75,1.0,12.5,14.5,11.0,6.75,8.0,2.0,1.0,2.0,2.25,0.75,1.25,-0.05,0.14,0.95,1253.99,-13.6,42.0
4.5,0.75,0.0,2.0,1.75,2.5,1.75,0.0,0.0,0.5,0.75,0.5,1.0,0.5,0.7,1.52,0.14,185.39,7.1,18.8,8.25,1.75,11.5,14.0,9.75,6.25,8.0,1.5,0.75,1.5,1.75,0.0,0.75,-0.05,0.2,1.02,1230.88,-14.5,47.4
4.52,1.0,0.5,2.0,1.75,2.5,1.0,0.0,0.0,0.5,0.75,0.5,1.0,0.25,0.27,2.77,0.64,184.18,10.1,25.6,9.5,1.75,12.5,15.5,11.0,0.0,8.25,1.5,1.0,2.0,2.25,0.75,1.25,-0.05,0.2,1.08,1214.19,-17.7,44.9
4.54,1.0,0.5,2.0,1.75,2.5,1.0,0.0,0.0,0.5,0.75,0.75,1.0,0.5,0.45,2.27,0.77,185.66,9.6,20.9,10.5,0.75,13.0,14.0,9.5,0.0,7.75,0.0,0.25,2.0,0.25,0.25,0.5,-0.05,0.27,1.14,1124.25,-20.6,55.2
4.56,0.25,0.25,2.0,1.5,2.5,1.0,0.0,0.0,0.0,1.0,1.0,0.25,0.5,1.08,2.83,0.33,174.76,7.1,20.5,10.5,2.75,15.0,15.5,10.5,2.0,7.25,0.25,0.5,0.5,0.75,0.25,0.5,0.02,0.33,1.2,1122.0,-19.7,57.7
4.58,1.0,0.75,2.0,1.75,2.5,1.25,0.0,0.0,0.5,1.75,1.0,1.75,0.75,1.45,3.7,-0.86,190.11,7.1,6.1,9.75,1.75,13.0,12.5,8.25,0.75,6.0,0.25,0.75,0.25,1.25,0.5,0.5,0.08,0.39,1.33,1031.89,-21.0,55.5
4.6,1.0,0.5,2.0,1.25,2.5,1.5,0.0,0.0,0.5,0.5,1.5,3.25,2.25,0.77,3.45,-0.92,206.95,6.3,-13.3,11.0,2.5,14.0,11.0,7.0,2.5,4.75,0.25,1.0,2.0,1.5,0.75,1.25,0.14,0.45,1.64,1008.31,-19.1,48.9
4.62,0.75,0.5,2.0,1.5,2.5,1.75,0.0,0.0,0.75,1.75,3.0,6.5,5.5,-0.3,0.27,1.08,264.78,3.0,-43.2,9.5,1.0,11.5,7.25,5.5,2.75,3.75,0.25,0.75,0.25,2.0,0.25,0.5,0.52,0.7,1.7,862.19,-20.4,52.7
4.64,0.25,0.0,0.25,0.5,2.5,3.5,0.0,0.5,3.0,7.75,5.75,8.25,6.5,-1.3,0.95,4.77,375.15,-2.8,-62.7,8.75,1.0,8.5,5.75,3.25,2.75,2.75,0.25,1.0,1.75,2.0,0.75,0.75,0.77,0.89,2.14,713.88,-18.5,42.4
4.66,0.25,0.0,2.5,1.0,3.5,3.5,1.25,5.25,3.0,6.75,9.25,8.0,8.25,0.39,0.95,1.58,577.68,-0.9,-52.2,6.75,1.0,6.25,5.25,2.75,2.5,1.0,0.5,0.75,0.5,1.75,0.0,0.75,0.27,0.83,2.45,527.02,-17.8,47.3
4.68,0.5,0.0,1.75,0.0,2.5,2.25,1.75,4.5,2.0,5.25,8.25,6.75,6.5,-0.11,0.08,0.77,688.66,-0.6,-56.1,2.25,0.25,3.25,2.0,0.5,2.5,0.0,0.0,0.5,0.0,0.25,0.5,0.0,0.7,0.27,1.95,322.07,-16.5,48.1
4.7,0.25,0.75,1.75,0.0,0.0,4.25,0.75,2.25,2.5,5.5,5.25,6.5,5.5,-0.11,0.02,0.83,701.93,-1.5,-56.5,1.5,0.0,2.75,1.75,1.25,2.5,0.5,0.5,0.75,0.0,0.5,0.0,0.0,0.89,-0.42,1.39,196.62,-12.1,41.9
4.72,0.5,0.5,2.25,3.0,3.0,4.5,1.5,4.25,3.0,5.25,6.25,5.75,5.5,-0.05,0.08,0.89,707.69,0.0,-36.0,0.5,0.0,2.75,0.0,0.5,2.25,0.75,0.25,0.5,0.5,0.0,0.0,0.0,0.77,0.08,0.27,73.65,-10.5,34.8
4.74,1.75,0.75,3.75,4.25,3.0,5.75,2.0,4.5,3.5,5.75,6.25,5.0,4.5,-0.11,0.08,0.95,730.15,2.1,-22.5,1.25,0.0,2.0,1.25,0.5,2.75,0.5,0.0,1.0,1.5,0.0,0.75,0.5,1.45,-0.48,0.95,24.99,-6.5,12.9
4.76,1.25,0.75,4.5,5.5,6.25,6.25,2.5,4.75,3.75,4.5,6.25,4.75,3.5,-0.11,0.02,0.95,798.92,2.9,-11.3,0.75,0.75,3.5,3.0,1.0,0.75,0.75,0.0,1.0,1.75,0.0,0.0,0.0,0.7,-0.55,0.58,14.65,-15.3,35.8
4.78,2.25,1.0,4.75,7.25,7.75,7.0,2.5,4.75,3.75,4.25,5.25,3.25,2.5,-0.05,0.02,0.95,885.13,3.7,2.0,0.75,0.0,2.75,3.0,2.25,0.0,0.75,0.0,0.25,0.5,0.0,0.0,0.25,0.2,0.02,0.77,29.64,-17.0,46.6
4.8,3.75,1.25,6.0,8.75,8.5,7.25,2.75,4.0,3.0,3.5,2.25,2.0,1.5,-0.05,0.02,0.95,946.46,5.9,20.0,0.0,0.0,2.25,0.75,0.5,0.25,0.5,0.0,0.5,0.25,0.0,0.0,0.25,0.08,0.33,0.52,4.08,-19.6,32.2
4.82,4.75,1.5,6.75,9.25,9.5,7.5,2.75,3.75,2.25,2.0,2.75,1.75,1.25,-0.05,0.08,0.95,973.88,7.3,27.3,0.5,0.0,1.75,0.5,1.0,0.25,0.75,0.0,0.25,0.25,0.0,0.0,0.25,-0.11,0.7,0.33,0.0,-17.4,39.4
4.84,5.25,2.0,7.75,11.5,9.75,7.75,2.5,2.25,2.0,1.75,0.75,1.75,0.5,0.02,0.08,0.95,986.42,9.3,38.6,0.25,0.0,1.75,0.5,0.25,0.25,0.5,0.0,0.25,0.25,0.0,0.0,0.25,-0.23,0.95,0.02,0.0,-20.3,33.4
4.86,5.5,2.0,7.75,11.5,12.0,7.75,2.0,2.0,1.5,0.75,1.5,1.75,0.5,-0.05,0.14,0.95,997.82,9.2,41.1,0.25,0.0,1.75,0.5,0.5,2.25,0.25,0.0,1.0,0.25,0.0,0.75,0.0,-0.3,1.27,0.02,9.68,-7.3,17.7
4.88,5.75,2.0,8.0,10.5,12.0,8.0,1.25,2.0,1.25,0.0,1.5,1.0,0.5,-0.11,0.14,0.95,987.21,9.4,45.2,0.5,0.25,2.75,0.5,0.25,2.5,0.75,0.0,0.25,0.25,0.25,0.0,0.25,-0.86,1.2,0.45,46.5,-11.3,37.7
4.9,6.0,1.5,8.0,9.75,9.75,8.0,0.0,1.75,1.25,0.0,1.25,1.0,0.25,-0.11,0.14,0.77,946.51,10.0,46.3,0.5,1.0,2.75,2.0,3.0,2.75,1.0,0.5,1.0,2.0,0.25,0.25,0.5,-1.17,0.95,0.58,134.79,-5.0,23.9
4.92,6.25,2.0,8.25,11.5,12.0,7.75,0.0,1.75,1.25,0.5,1.5,1.0,0.5,-0.11,0.14,0.89,961.89,9.7,45.5,0.25,0.0,1.75,0.5,0.5,2.25,0.75,0.0,0.5,2.0,0.0,0.0,0.25,-0.86,0.89,0.33,156.45,-2.1,9.2
4.94,6.75,2.25,9.25,9.25,12.0,7.5,0.0,1.75,1.5,0.5,0.5,1.0,0.5,-0.11,0.08,0.95,951.08,10.2,47.8,0.5,0.75,2.75,2.0,0.25,2.75,0.75,0.0,1.0,1.75,0.0,0.75,0.0,1.83,7.83,-1.23,181.38,-8.7,21.5
4.96,7.0,2.25,9.75,11.5,12.0,7.0,1.0,1.5,1.25,0.5,0.0,1.25,0.5,-0.11,0.08,1.02,961.92,11.4,49.6,0.5,0.25,2.75,1.75,3.5,2.75,1.25,0.75,1.0,1.75,1.0,0.75,0.25,-1.48,3.58,-3.55,209.0,-5.0,15.9
4.98,7.0,2.0,10.5,11.5,12.0,6.25,0.0,1.25,1.0,1.75,0.0,0.75,0.5,-0.05,0.08,1.02,966.29,11.6,49.3,0.0,0.0,2.75,0.5,3.25,2.5,0.75,0.25,0.25,0.0,0.0,0.0,0.0,0.2,1.83,1.58,206.01,-5.9,46.0
5.0,7.0,2.0,10.5,9.5,9.5,5.75,0.0,0.0,1.0,1.25,0.0,0.75,0.25,-0.05,0.14,0.89,918.3,13.7,53.2,0.5,0.75,2.75,1.25,3.75,2.75,1.25,0.75,1.0,2.0,0.0,0.75,0.25,0.58,0.7,0.45,228.97,-4.1,21.4
5.02,7.75,2.0,11.5,9.25,9.5,5.5,0.0,1.0,1.0,0.25,0.75,0.75,0.5,-0.11,0.2,0.7,879.55,14.4,52.1,0.5,0.75,2.75,1.25,2.75,2.75,1.0,0.25,1.0,2.0,0.5,0.75,0.75,0.77,0.95,-1.05,243.98,-4.7,14.2
5.04,8.5,2.25,11.5,9.75,9.5,4.75,0.0,1.0,1.0,0.5,1.0,0.75,0.25,-0.05,0.14,1.02,855.46,15.2,52.8,0.5,0.75,2.75,1.75,2.75,2.5,1.0,0.5,1.0,2.0,0.25,0.75,0.5,0.83,1.08,0.02,259.87,-5.4,17.7
5.06,9.0,3.0,12.5,11.5,9.5,3.5,0.0,0.0,1.0,0.5,0.0,0.5,0.5,-0.05,0.14,1.2,862.17,17.3,58.7,0.5,0.25,2.75,1.5,2.75,2.75,1.0,0.25,1.0,1.75,0.75,0.75,0.75,1.2,1.27,-1.05,257.68,-5.1,12.3
5.08,10.5,3.75,13.5,11.5,9.0,3.5,0.0,0.25,0.75,0.75,0.5,1.0,0.5,-0.05,0.2,1.52,902.79,17.8,57.1,0.5,0.5,2.75,1.75,2.75,3.25,1.0,0.5,1.0,2.0,0.5,0.75,0.25,1.14,1.83,-1.05,261.8,-4.5,17.7
5.1,11.0,3.25,15.0,9.25,8.25,2.25,0.0,0.0,0.25,0.5,0.5,0.5,0.25,-0.11,0.27,1.77,914.08,20.6,62.1,0.5,0.75,2.75,2.0,1.5,3.5,1.0,0.25,1.0,1.75,1.0,0.75,1.0,0.14,1.95,-0.61,257.63,-5.0,10.7
5.12,11.0,3.75,12.5,8.25,5.75,2.5,0.0,0.0,0.5,0.75,0.0,0.25,0.5,-0.36,0.27,2.14,872.69,20.6,63.2,0.5,0.75,3.0,1.75,1.75,3.5,0.75,0.25,1.0,2.0,1.0,0.75,1.0,0.02,1.77,-0.36,256.62,-4.7,10.1
5.14,10.5,4.0,10.5,6.0,6.25,1.75,0.0,0.0,0.5,0.5,0.5,0.75,0.25,-0.05,0.45,2.64,785.32,20.3,62.0,0.5,0.75,2.75,1.25,2.75,3.25,0.75,0.5,1.0,2.0,0.75,0.75,1.0,0.2,1.52,-0.17,256.19,-3.3,10.9
5.16,8.75,3.5,7.5,5.5,5.0,1.0,0.0,0.0,0.5,1.75,0.5,0.75,0.5,-0.42,0.58,3.39,658.65,18.5,54.9,0.5,0.75,2.75,1.5,2.5,3.25,1.0,0.0,1.0,2.0,0.5,0.75,0.75,0.39,0.95,-0.05,257.91,-4.6,15.5
5.18,6.0,2.25,4.5,3.75,3.75,2.0,0.0,0.25,0.5,0.75,0.5,0.0,0.25,-0.42,-0.05,2.64,497.89,16.2,57.4,0.5,0.75,2.75,1.25,2.25,3.25,0.75,0.5,1.0,1.75,0.25,0.75,1.0,-0.17,0.45,-0.36,249.37,-3.6,13.2
5.2,3.75,0.75,2.25,0.0,2.5,2.0,0.0,0.0,0.0,0.0,0.5,0.5,0.5,-0.55,0.02,3.33,323.03,13.2,49.1,0.5,0.75,2.75,1.25,3.0,3.25,1.0,0.25,1.0,2.0,1.0,0.75,0.75,-0.48,-0.11,-0.48,249.17,-4.0,13.0
5.22,1.75,0.75,2.5,0.0,2.5,0.0,0.0,0.25,0.0,0.0,0.0,0.75,0.5,1.39,-3.3,1.83,203.25,16.1,42.6,0.5,0.75,2.75,1.0,2.75,3.25,1.0,0.25,1.0,2.0,0.75,0.75,0.75,0.02,-0.48,-0.05,250.07,-3.9,12.8
5.24,2.0,0.5,3.0,2.0,2.5,2.25,0.0,0.25,0.0,0.0,0.0,1.0,0.5,-2.11,-0.36,1.02,129.83,11.5,41.5,0.5,0.75,2.75,1.25,1.5,3.75,1.0,0.25,1.0,2.0,1.0,0.75,0.75,0.14,-0.86,-0.05,243.96,-4.0,9.4
5.26,1.75,1.0,2.25,0.75,2.5,1.75,0.0,0.0,0.5,0.5,0.25,1.25,0.5,-0.05,0.27,0.2,85.11,9.7,29.4,0.5,0.75,2.75,1.0,2.25,2.75,1.0,0.25,1.0,0.25,1.0,0.0,1.0,-0.73,-0.48,-0.3,232.58,-7.0,24.0
5.28,2.0,0.25,2.25,2.0,2.5,1.75,0.0,0.25,0.0,0.5,0.0,0.75,0.0,-1.36,0.14,0.33,75.36,11.1,43.9,0.0,0.0,1.75,0.5,0.5,2.5,0.5,0.0,0.25,0.25,0.0,0.0,0.5,-1.48,0.02,-0.55,186.89,-3.3,26.5
5.3,0.5,0.75,1.25,1.5,0.0,0.25,0.0,0.0,0.5,0.5,0.0,0.5,0.0,-1.86,0.27,0.52,37.64,17.0,32.3,0.25,0.0,1.75,0.5,0.5,2.75,0.5,0.0,0.25,0.25,0.0,0.0,0.25,-1.86,0.52,-1.11,142.64,-4.1,34.5
5.32,2.0,0.5,2.25,1.5,2.5,1.0,0.0,0.5,0.5,1.25,0.0,1.0,0.5,-0.48,0.64,0.7,54.73,9.8,25.5,0.0,0.0,0.75,0.5,1.0,2.75,0.75,0.0,0.75,2.0,0.0,0.75,0.0,-0.98,1.64,-1.86,112.82,3.2,-2.6
5.34,2.0,0.75,2.25,1.5,2.5,1.25,0.0,0.5,0.5,1.5,0.0,0.75,0.5,0.45,1.08,1.2,81.44,8.9,27.6,0.5,0.75,2.75,0.5,2.75,3.5,0.75,0.25,1.0,2.0,1.0,0.75,1.25,-0.17,2.02,-2.11,146.93,-2.5,6.9
5.36,0.25,0.5,2.25,1.75,2.5,1.75,0.0,0.5,0.5,0.5,0.0,0.5,0.5,0.7,1.39,1.02,113.53,6.2,28.8,0.5,0.25,2.75,0.5,2.5,3.5,0.75,0.5,0.75,1.75,1.0,0.75,0.5,0.27,1.89,-1.61,176.88,-2.9,10.0
5.38,1.0,0.5,2.25,1.25,2.5,1.5,0.0,0.75,0.0,0.5,0.25,1.0,0.25,0.95,1.83,0.77,137.77,7.9,28.0,0.5,0.75,2.5,0.5,2.75,3.25,0.75,0.5,0.75,2.0,1.0,0.75,0.5,0.58,1.14,-1.17,210.05,-2.6,11.1
5.4,1.75,0.5,2.25,1.75,2.5,1.0,0.0,0.5,0.25,0.5,0.0,1.0,0.5,0.64,1.89,1.2,163.58,10.9,32.0,0.5,0.75,2.75,0.5,2.25,3.0,0.75,0.0,1.0,2.0,0.75,0.75,0.5,0.83,0.39,-0.98,220.07,-4.5,12.2
5.42,0.5,0.25,2.25,1.75,2.5,1.75,0.0,0.75,0.0,0.5,0.0,0.5,0.5,0.45,2.27,0.83,176.08,5.9,30.1,0.5,0.75,2.75,0.5,2.5,3.25,0.75,0.25,0.75,2.0,0.0,0.75,0.5,0.83,0.08,-0.8,223.39,-3.1,17.5
5.44,1.25,0.0,2.25,0.75,2.5,1.0,0.0,0.25,0.0,0.5,0.0,0.5,0.25,0.33,2.39,0.64,173.41,10.4,37.2,0.5,0.75,2.75,1.0,2.5,3.0,0.75,0.25,0.75,2.0,0.75,0.75,0.5,0.64,-0.36,-0.86,225.31,-4.3,14.4
5.46,1.5,0.0,2.25,1.25,2.5,1.0,0.0,0.25,0.0,0.5,0.0,0.75,0.25,1.08,3.02,0.08,168.63,11.3,36.1,0.5,0.75,2.75,1.0,2.5,3.0,0.75,0.5,0.5,2.0,0.0,0.75,0.0,0.64,-0.42,-0.73,227.85,-4.1,23.1
5.48,1.0,0.5,2.25,1.25,2.5,2.0,0.0,0.0,0.5,0.25,0.0,1.0,0.5,2.39,3.2,-0.92,167.77,8.3,30.9,0.5,0.75,3.0,1.25,1.5,3.0,1.0,0.25,1.0,2.0,0.25,0.75,0.5,0.52,-0.3,-0.55,232.36,-5.8,15.1
5.5,1.25,0.5,2.25,0.75,2.5,1.75,0.0,0.0,0.5,1.5,0.0,0.75,0.5,3.2,2.39,-0.55,176.16,6.6,23.2,0.5,0.75,2.75,1.0,1.75,3.25,1.0,0.25,0.75,2.0,0.75,0.75,1.0,0.27,-0.23,-0.48,237.27,-4.0,8.8
5.52,1.5,0.25,2.0,1.75,2.5,1.0,0.0,0.0,0.25,1.25,0.0,0.5,0.25,2.77,1.45,0.02,181.05,9.9,33.8,0.5,0.75,2.75,0.75,1.5,2.75,0.75,0.0,0.75,2.0,0.75,0.75,0.75,0.08,-0.23,-0.48,234.71,-5.2,8.9
5.54,1.0,0.25,2.0,1.0,2.5,1.75,0.0,0.0,0.5,1.25,0.0,0.25,0.25,2.14,0.58,0.64,181.11,6.3,31.1,0.0,0.0,2.75,0.5,1.75,2.25,1.0,0.25,0.25,0.25,0.0,0.0,0.0,0.08,-0.11,-0.23,202.26,-8.3,41.1
5.56,1.0,0.5,2.25,0.75,2.5,1.75,0.0,0.0,0.25,1.5,0.0,0.75,0.25,1.39,-0.11,0.77,174.89,6.4,25.9,0.0,0.0,0.75,0.5,0.25,2.0,0.5,0.0,0.25,0.25,0.25,0.0,0.0,0.2,-0.05,-0.17,147.03,-0.8,26.3
5.58,1.25,0.25,2.0,1.25,2.5,1.5,0.0,0.0,0.25,1.25,0.25,0.5,0.5,0.83,-0.55,0.7,175.33,7.3,26.2,0.0,0.0,1.0,0.5,0.5,2.25,0.5,0.0,0.25,0.25,0.0,0.0,0.0,0.27,-0.05,-0.17,96.82,-0.9,34.9
5.6,1.0,0.5,2.0,1.75,2.5,1.0,0.0,0.0,0.25,0.0,0.5,0.5,0.25,0.52,-0.61,0.52,174.02,11.9,40.5,0.0,0.0,1.75,0.5,0.5,2.25,0.5,0.0,0.25,0.25,0.0,0.0,0.0,0.45,-0.17,-0.42,71.09,-5.9,38.4
5.62,1.25,0.75,2.0,0.5,2.25,2.0,0.0,0.0,0.5,1.25,0.0,0.75,0.25,0.14,-0.61,0.33,175.32,6.4,27.7,0.0,0.0,1.5,0.5,0.25,2.0,0.75,0.0,0.25,0.25,0.0,0.0,0.0,0.33,-0.36,-0.42,57.68,-6.8,36.4
5.64,1.25,0.25,2.25,1.0,2.5,1.5,0.0,0.0,0.25,1.25,0.5,1.0,0.5,-0.17,-0.61,0.27,179.56,7.8,18.9,0.0,0.0,1.25,0.5,0.25,2.25,0.5,0.0,0.25,0.5,0.0,0.0,0.0,0.14,-0.48,-0.42,55.21,-2.2,29.9
5.66,1.25,0.75,2.0,1.5,2.5,1.0,0.0,0.0,0.25,1.0,0.25,0.5,0.5,-0.23,-0.48,0.08,183.19,9.4,31.8,0.0,0.0,1.25,0.5,0.25,2.0,0.75,0.0,0.25,0.25,0.0,0.0,0.0,0.2,-0.48,-0.42,52.68,-5.1,35.1
5.68,0.75,0.5,2.0,1.0,2.5,1.25,0.0,0.0,0.5,1.75,0.0,0.5,0.5,-0.23,-0.3,0.14,182.8,5.7,20.4,0.75,0.75,1.5,1.25,0.0,2.75,0.0,0.0,0.75,1.5,0.25,0.75,0.0,0.64,-0.42,-0.55,78.63,-5.0,15.9
5.7,1.25,0.25,2.0,1.5,2.5,1.0,0.0,0.0,0.5,1.75,0.5,0.5,0.25,0.02,-0.36,0.52,183.27,8.3,22.0,0.5,0.75,2.75,0.75,1.25,2.75,0.75,0.25,0.5,2.0,0.75,0.75,0.5,1.33,-0.17,-0.61,123.3,-5.2,10.2
5.72,0.75,0.5,2.0,0.75,2.5,1.0,0.0,0.0,0.25,1.75,0.25,0.5,0.5,0.2,-0.36,0.64,177.55,6.0,18.5,0.5,0.75,2.75,0.75,1.0,2.75,0.75,0.25,0.25,2.0,1.25,0.75,1.0,1.45,-0.11,-0.55,166.18,-4.8,3.0
5.74,1.0,0.0,2.0,0.5,2.5,2.0,0.0,0.0,0.5,1.75,0.25,0.5,0.25,0.58,-0.3,0.27,175.69,4.3,18.5,0.5,0.75,2.75,0.75,0.5,2.75,0.75,0.25,0.5,2.0,1.0,0.75,0.5,1.39,0.02,-0.36,192.34,-5.8,5.8
5.76,1.25,0.75,2.0,0.75,2.25,1.75,0.0,0.0,0.5,1.25,0.0,0.5,0.25,1.27,-0.17,0.2,175.25,7.2,31.3,0.5,0.75,2.75,1.0,1.5,2.75,0.75,0.25,0.5,2.0,1.0,0.75,0.5,1.2,-0.05,-0.42,214.3,-5.3,10.5
5.78,1.25,0.5,2.0,1.5,2.5,1.5,0.0,0.0,0.25,1.75,0.25,0.5,0.5,1.45,-0.23,0.33,181.82,6.7,24.3,0.5,0.75,2.75,0.5,1.25,2.0,0.75,0.5,0.25,0.25,1.0,0.0,0.75,1.08,0.02,-0.17,211.87,-8.8,24.5
5.8,1.0,0.5,2.0,0.75,2.5,1.75,0.0,0.0,0.5,1.75,0.25,0.5,0.5,1.58,-0.3,0.39,183.98,5.0,19.7,0.0,0.0,1.25,0.25,0.25,2.0,1.0,0.0,0.25,0.25,0.5,0.0,0.75,0.95,0.14,0.02,180.72,-3.1,6.1
5.82,1.0,0.5,2.0,1.0,2.25,1.75,0.0,0.0,0.25,1.75,0.25,0.5,0.25,1.33,-0.05,0.58,184.84,5.8,23.8,0.0,0.0,1.0,0.5,0.0,2.25,0.5,0.0,0.25,0.25,0.0,0.0,0.0,0.89,0.27,0.02,138.09,-1.5,32.5
5.84,1.25,0.5,2.0,0.75,2.25,1.5,0.0,0.0,0.25,1.5,0.0,0.5,0.25,1.2,0.08,1.08,180.04,7.1,28.8,0.0,0.0,1.25,0.5,0.0,2.0,0.75,0.0,0.25,0.25,0.25,0.0,0.0,0.83,0.27,-0.17,103.13,-5.9,28.4
5.86,0.75,0.5,2.0,1.0,2.5,1.25,0.0,0.0,0.5,1.0,0.0,0.75,0.5,1.08,0.08,1.02,174.41,7.2,24.0,0.0,0.0,1.5,0.5,0.0,2.0,0.5,0.0,0.25,0.25,0.0,0.0,0.0,0.77,0.27,-0.3,80.05,-6.7,35.6
5.88,1.0,0.5,2.0,0.75,2.25,1.5,0.0,0.0,0.0,1.5,0.25,0.25,0.5,0.89,0.14,0.52,168.91,5.9,26.4,0.5,0.75,1.25,0.5,0.25,2.75,1.5,0.25,0.5,1.75,0.5,0.75,0.75,0.7,0.2,-0.42,99.45,-2.0,-0.8
5.9,0.75,0.5,2.0,0.75,2.5,2.25,0.0,0.0,0.5,1.75,0.0,0.5,0.25,0.64,0.02,0.52,172.28,3.6,23.4,0.0,0.0,1.5,0.5,1.75,2.0,0.75,0.0,0.25,0.25,0.0,0.0,0.0,0.64,0.08,-0.55,102.54,-4.2,40.7
5.92,0.75,0.5,2.0,1.0,2.5,1.0,0.0,0.0,0.5,1.25,0.25,0.25,0.25,0.52,-0.05,0.58,169.78,7.9,28.6,0.0,0.0,1.25,0.5,0.25,2.0,0.75,0.0,0.25,0.25,0.0,0.0,0.0,0.58,0.08,-0.48,92.98,-5.1,35.1
5.94,1.0,0.5,2.0,1.0,2.5,1.25,0.0,0.0,0.5,1.25,0.5,0.0,0.25,0.33,-0.17,0.39,170.27,7.8,31.0,0.0,0.0,1.5,0.5,0.0,1.75,0.75,0.0,0.25,0.25,0.25,0.0,0.0,0.58,0.14,-0.48,76.14,-9.0,29.8
5.96,0.5,0.25,2.0,0.75,2.5,1.0,0.0,0.0,0.0,1.25,0.5,0.5,0.5,0.33,-0.17,0.27,163.95,6.2,18.4,0.0,0.0,1.5,0.5,0.25,2.0,0.75,0.0,0.25,0.25,0.0,0.0,0.0,0.64,0.2,-0.55,68.99,-6.8,36.4
5.98,0.75,0.5,2.0,1.0,2.5,1.5,0.0,0.0,0.5,0.5,0.5,0.5,0.5,0.45,-0.17,0.27,163.9,7.7,27.3,0.0,0.0,1.25,0.5,0.25,2.0,0.5,0.0,0.25,0.25,0.0,0.0,0.0,0.7,0.33,-0.48,63.77,-4.4,35.3
6.0,0.75,0.0,2.0,1.0,2.5,2.5,0.0,0.0,0.25,1.5,0.25,1.25,0.5,0.7,0.02,0.02,170.01,3.4,12.1,0.0,0.0,1.5,0.5,0.25,2.25,0.5,0.0,0.25,0.25,0.75,0.0,0.0,0.7,0.45,-0.36,72.02,-5.5,22.8
6.02,1.0,0.5,2.0,0.75,2.25,1.25,0.0,0.0,0.0,2.0,0.5,0.75,0.5,0.89,0.14,0.02,174.32,5.8,14.1,0.0,0.0,1.75,0.5,0.25,2.0,1.0,0.0,0.25,0.25,0.25,0.0,0.0,0.77,0.64,-0.42,83.77,-8.9,32.6
6.04,1.0,0.75,2.0,1.0,2.25,1.5,0.0,0.0,0.5,1.25,0.5,0.5,0.25,1.02,0.14,0.08,179.18,7.6,26.1,0.0,0.0,1.25,0.5,0.5,2.0,0.5,0.0,0.25,0.25,0.25,0.0,0.0,0.77,0.7,-0.36,88.99,-4.3,31.2
6.06,1.0,0.0,2.0,0.75,2.25,1.0,0.0,0.0,0.25,1.75,0.5,0.5,0.25,1.08,0.02,0.14,174.23,7.2,16.3,0.0,0.0,1.75,0.5,0.0,2.25,0.5,0.0,0.25,0.25,0.25,0.0,0.0,0.83,0.7,-0.36,88.43,-7.1,31.7
6.08,0.5,0.0,2.0,0.75,0.5,1.0,0.0,0.0,0.25,1.75,0.0,0.25,0.25,0.89,-0.05,0.08,153.31,8.0,11.2,0.0,0.0,1.5,0.5,0.25,1.75,0.5,0.0,0.25,0.25,0.0,0.0,0.0,0.89,0.64,-0.42,82.98,-7.6,36.7
6.1,0.5,0.25,2.0,0.75,0.75,0.75,0.0,0.0,0.25,1.75,0.0,0.5,0.25,0.77,-0.17,0.14,134.48,8.7,11.1,0.0,0.0,1.0,0.0,0.5,1.75,0.75,0.0,0.25,0.25,0.0,0.0,0.0,1.02,0.58,-0.42,74.32,-2.5,31.9
6.12,0.5,0.0,2.0,0.75,1.25,1.0,0.0,0.0,0.25,1.25,0.0,0.25,0.5,0.77,-0.17,0.14,121.1,7.6,17.4,0.0,0.0,1.25,0.0,0.25,2.0,1.75,0.0,0.25,0.0,0.25,0.0,0.0,1.02,0.52,-0.36,69.99,-7.9,32.0
6.14,0.5,0.0,2.0,0.75,0.75,1.0,0.0,0.0,0.25,1.75,0.0,0.5,0.25,0.83,-0.17,0.14,114.29,7.6,8.9,0.0,0.0,0.75,0.0,0.0,2.0,0.75,0.0,0.25,0.25,0.25,0.0,0.0,1.02,0.45,-0.3,67.95,0.0,19.8
6.16,0.75,0.0,2.0,1.0,0.75,1.0,0.0,0.0,0.5,1.75,0.25,0.5,0.25,0.89,-0.17,0.39,117.19,8.9,9.1,0.5,0.75,1.5,0.5,0.25,2.0,0.5,0.0,0.25,0.25,0.25,0.0,0.0,0.95,0.39,-0.23,80.81,-9.2,44.3
6.18,0.75,0.5,2.0,1.0,2.25,1.0,0.0,0.0,0.5,1.75,0.5,1.0,0.25,1.02,-0.17,0.58,136.42,7.3,12.8,0.0,0.0,1.5,0.5,0.25,1.75,0.75,0.0,0.25,0.0,0.0,0.0,0.0,0.83,0.27,-0.23,80.37,-9.5,42.6
6.2,1.0,0.5,2.0,1.0,2.5,1.25,0.0,0.0,0.5,1.75,0.5,0.75,0.25,1.02,-0.17,0.64,156.67,6.9,18.2,0.5,0.75,1.25,0.5,1.0,2.75,0.75,0.0,0.25,1.75,0.0,0.5,0.75,0.77,0.2,-0.17,110.95,-0.2,10.5
6.22,1.0,0.5,2.0,1.0,2.5,1.0,0.0,0.0,0.5,1.75,0.5,0.75,0.25,1.14,-0.11,0.64,171.24,7.5,17.9,0.0,0.0,1.5,0.5,0.25,2.0,0.75,0.0,0.25,0.25,0.25,0.0,0.0,0.77,0.2,-0.17,108.82,-6.9,31.3
6.24,0.5,0.5,2.0,1.0,2.5,1.0,0.0,0.0,0.5,1.75,0.5,0.75,0.25,1.14,-0.11,0.64,178.03,6.4,14.7,0.0,0.0,1.75,0.5,0.5,2.0,1.5,0.0,0.25,0.0,1.25,0.0,0.5,0.77,0.2,-0.17,118.52,-8.7,13.0
6.26,1.25,0.5,2.0,1.0,2.25,1.25,0.0,0.0,0.5,1.75,0.75,0.5,0.25,0.95,-0.05,0.64,184.9,7.7,19.6,0.0,0.0,1.5,0.5,0.0,1.75,0.5,0.0,0.25,0.25,0.5,0.0,0.0,0.7,0.2,-0.17,104.91,-8.5,24.7
6.28,0.75,0.5,2.0,0.75,2.5,1.0,0.0,0.0,0.5,1.75,0.5,0.5,0.25,0.95,-0.05,0.64,183.97,6.7,18.1,0.0,0.0,1.75,0.5,0.25,1.75,0.5,0.0,0.25,0.25,0.0,0.0,0.0,0.7,0.27,-0.23,98.94,-9.2,38.0
6.3,1.0,0.5,2.0,0.75,2.25,1.0,0.0,0.0,0.5,1.75,0.5,0.75,0.25,0.95,-0.05,0.64,185.24,7.6,16.1,0.5,0.75,0.75,0.75,0.25,2.75,1.0,0.0,0.25,1.75,1.25,0.75,0.75,0.7,0.33,-0.3,116.14,-0.8,-6.2
6.32,1.0,0.5,2.0,1.0,2.5,1.0,0.0,0.0,0.5,1.75,0.5,0.75,0.25,0.89,-0.05,0.64,187.73,7.5,17.9,0.5,0.75,2.75,0.5,1.0,2.75,1.25,0.0,0.25,2.0,1.5,0.75,0.5,0.7,0.39,-0.3,154.28,-6.2,5.9
6.34,0.75,0.5,2.0,1.0,2.5,1.0,0.0,0.0,0.5,1.75,0.5,0.75,0.25,0.7,-0.11,0.7,186.88,7.0,16.3,0.0,0.0,2.75,0.5,1.75,1.75,1.0,0.0,0.25,0.25,1.5,0.0,0.0,0.77,0.52,-0.3,168.51,-10.9,25.6
6.36,0.75,0.25,2.0,1.0,2.25,1.0,0.0,0.0,0.5,1.75,0.5,0.5,0.25,0.64,-0.11,0.64,181.95,7.1,16.3,0.5,0.75,2.75,0.75,0.5,2.75,1.0,0.25,0.25,2.0,1.0,0.75,0.5,0.77,0.52,-0.3,188.14,-6.0,6.8
6.38,0.5,0.0,2.0,0.75,0.75,1.0,0.0,0.0,0.0,1.75,0.0,0.5,0.25,0.64,-0.05,0.52,159.9,7.5,10.5,0.5,0.75,2.75,0.5,1.5,2.75,1.0,0.25,0.25,1.75,1.25,0.75,0.5,0.83,0.45,-0.3,201.32,-5.5,9.8
6.4,0.5,0.0,2.0,1.0,0.75,1.0,0.0,0.0,0.25,1.75,0.0,0.5,0.5,0.64,-0.05,0.58,141.19,7.3,6.8,0.5,0.5,2.75,0.75,1.0,2.75,1.0,0.0,0.25,1.75,1.25,0.75,0.5,0.83,0.45,-0.3,207.23,-6.4,8.0
6.42,0.75,0.5,2.0,1.0,0.75,1.0,0.0,0.0,0.5,1.75,0.0,0.75,0.25,0.58,-0.11,0.58,129.9,9.0,13.1,0.5,0.25,2.75,0.5,2.25,2.75,1.0,0.0,0.25,1.5,1.25,0.75,1.0,0.89,0.45,-0.3,215.25,-4.7,7.3
6.44,0.75,0.5,2.0,1.0,2.5,1.0,0.0,0.25,0.5,1.75,0.5,1.0,0.25,0.52,-0.17,0.52,144.11,6.5,12.7,0.5,0.5,2.75,0.5,2.5,2.75,1.0,0.0,0.25,1.75,1.25,0.75,0.5,0.89,0.39,-0.3,222.15,-5.0,12.5
6.46,0.5,0.0,2.0,0.75,0.5,1.0,0.0,0.0,0.0,1.75,0.0,0.25,0.5,0.52,-0.3,0.64,135.63,7.1,8.6,0.0,0.0,1.0,0.5,0.0,1.5,0.5,0.0,0.25,0.25,0.25,0.0,0.0,0.89,0.33,-0.3,182.49,-6.4,25.6
6.48,0.5,0.0,2.0,0.75,0.5,1.0,0.0,0.0,0.0,1.75,0.0,0.5,0.25,0.52,-0.42,0.7,128.2,7.9,8.8,0.0,0.0,1.5,0.5,0.25,2.75,0.75,0.0,0.25,1.75,0.0,0.75,0.0,0.89,0.33,-0.23,154.08,-0.1,1.8
6.5,0.75,0.5,2.0,1.0,0.75,1.0,0.0,0.0,0.25,1.75,0.25,0.75,0.25,0.45,-0.42,0.64,124.1,9.0,12.1,0.5,0.75,2.75,0.5,1.0,2.75,1.0,0.0,0.25,2.0,1.0,0.75,0.5,0.83,0.33,-0.23,153.47,-5.8,8.7
6.52,1.0,0.5,2.0,1.0,2.5,1.0,0.0,0.0,0.25,1.75,0.5,0.5,0.5,0.45,-0.48,0.58,139.78,6.9,19.0,0.5,0.5,2.75,0.5,1.25,2.75,1.0,0.0,0.25,1.5,1.0,0.75,0.5,0.83,0.33,-0.23,164.48,-6.3,11.2
6.54,0.75,0.75,2.0,1.0,2.5,1.0,0.0,0.0,0.5,1.75,0.5,0.5,0.5,0.39,-0.48,0.64,157.07,6.6,18.0,0.5,0.75,2.75,0.75,1.25,2.75,1.0,0.0,0.25,1.5,0.5,0.75,0.75,0.77,0.33,-0.3,176.76,-6.0,14.7
6.56,0.75,0.5,2.0,1.0,2.5,1.0,0.0,0.0,0.25,1.75,0.5,0.5,0.5,0.27,-0.48,0.64,171.94,6.4,17.4,0.5,0.75,2.75,0.5,1.0,2.75,1.25,0.25,0.25,1.75,1.0,0.75,0.75,0.77,0.39,-0.23,190.83,-5.6,7.3
6.58,0.5,0.0,2.0,0.75,2.25,1.0,0.0,0.0,0.25,1.75,0.5,0.5,0.5,0.2,-0.48,0.7,173.39,5.4,9.5,0.5,0.75,1.0,0.75,0.0,2.75,0.5,0.0,0.25,1.75,0.0,0.75,0.25,0.77,0.45,-0.17,177.23,-0.6,8.2
6.6,0.75,0.5,2.0,1.0,2.5,1.0,0.0,0.0,0.5,1.75,0.5,1.0,0.25,0.2,-0.48,0.77,178.24,7.0,13.8,0.5,0.75,2.75,1.0,1.5,2.75,1.25,0.0,0.25,1.5,1.25,0.75,0.5,0.83,0.45,-0.23,180.56,-6.9,14.0
6.62,1.0,0.25,2.0,1.0,2.5,1.0,0.0,0.0,0.5,1.75,0.5,0.5,0.25,0.2,-0.61,0.77,179.69,7.4,18.8,0.5,0.5,2.75,0.75,1.25,2.75,1.0,0.0,0.25,1.75,1.25,0.75,1.0,0.77,0.45,-0.23,186.46,-5.4,4.6
6.64,1.0,0.5,2.0,1.0,2.25,1.0,0.0,0.0,0.25,1.75,0.5,0.75,0.25,0.2,-0.86,0.64,180.81,7.7,18.2,0.5,0.25,2.75,0.75,1.5,2.5,1.0,0.0,0.25,0.5,0.75,0.75,0.25,0.7,0.39,-0.17,189.58,-9.0,23.1
6.66,1.0,0.5,2.0,0.75,2.25,1.0,0.0,0.0,0.25,1.75,0.5,0.75,0.25,0.2,-0.98,0.77,179.22,7.5,17.3,0.5,0.75,3.0,0.5,1.0,2.75,1.0,0.25,0.25,1.75,1.0,0.75,0.5,0.7,0.33,-0.11,194.5,-6.4,10.4
6.68,1.0,0.5,2.0,1.0,2.5,1.0,0.0,0.0,0.5,1.75,0.5,0.5,0.25,0.27,-1.11,0.83,181.15,7.5,20.6,0.5,0.0,1.5,0.5,1.0,2.75,1.0,0.0,0.25,1.5,0.75,0.75,0.25,0.7,0.27,-0.17,185.42,-2.6,4.4
6.7,1.0,0.5,2.0,1.0,2.5,1.0,0.0,0.25,0.25,1.75,0.5,0.5,0.25,0.27,-1.11,0.83,183.99,6.9,20.6,0.5,0.75,2.0,0.75,1.0,2.75,1.0,0.0,0.25,1.75,0.75,0.75,0.25,0.7,0.2,-0.17,185.58,-4.7,12.4
6.72,1.0,0.5,2.0,1.0,2.25,1.0,0.0,0.25,0.25,1.75,0.0,0.5,0.25,0.33,-1.05,0.77,179.83,7.0,23.9,0.5,0.75,2.75,0.75,2.25,2.75,1.0,0.0,0.25,1.5,1.25,0.75,0.5,0.7,0.14,-0.3,188.09,-5.9,15.5
6.74,1.0,0.75,2.0,0.75,0.0,1.0,0.0,0.0,0.25,1.75,0.0,0.5,0.25,0.33,-0.98,0.77,160.76,10.8,17.7,0.5,0.75,2.75,0.5,1.25,2.75,0.75,0.25,0.25,1.75,1.0,0.75,0.5,0.7,0.08,-0.3,193.21,-5.3,10.2
6.76,1.0,0.5,2.0,0.75,2.25,1.0,0.0,0.25,0.25,1.75,0.5,0.5,0.25,0.33,-0.86,0.7,158.14,6.9,18.9,0.5,1.0,2.75,0.5,1.5,2.75,0.5,0.0,0.25,1.5,1.25,0.75,0.5,0.7,0.08,-0.3,199.85,-5.9,13.6
6.78,0.5,0.5,2.0,1.0,2.5,1.0,0.0,0.25,0.25,1.75,0.5,0.75,0.25,0.33,-0.67,0.7,159.79,5.8,14.7,0.5,0.75,2.75,0.5,1.75,2.75,1.0,0.0,0.25,1.75,1.25,0.75,0.5,0.64,0.08,-0.23,204.6,-5.7,11.5
6.8,0.75,0.5,2.0,0.75,2.25,1.0,0.0,0.25,0.25,1.75,0.5,0.75,0.25,0.39,-0.61,0.7,165.82,6.4,14.4,0.5,0.75,2.75,0.5,1.0,2.75,1.0,0.0,0.25,2.0,1.25,0.5,0.5,0.58,0.14,-0.17,204.1,-5.8,9.4
6.82,1.0,0.5,2.0,0.75,2.5,1.0,0.0,0.25,0.25,1.75,0.5,0.75,0.25,0.33,-0.61,0.77,171.63,6.7,17.0,0.5,0.75,2.75,0.5,2.25,2.75,1.0,0.0,0.25,1.75,1.25,0.75,0.5,0.64,0.33,-0.11,208.71,-5.3,13.2
6.84,0.75,0.5,2.0,1.0,2.5,1.0,0.0,0.0,0.25,1.75,0.25,0.25,0.25,0.33,-0.61,0.7,171.4,6.7,25.4,0.5,0.75,2.75,0.5,1.75,2.75,1.0,0.0,0.25,1.5,1.5,0.75,0.5,0.77,0.39,-0.11,207.33,-6.1,11.6
6.86,0.5,0.5,2.0,1.0,2.5,1.0,0.0,0.25,0.25,1.75,0.5,0.25,0.25,0.33,-0.61,0.7,170.83,5.7,20.2,0.5,0.75,2.75,0.5,1.25,2.75,1.0,0.0,0.25,1.75,1.0,0.75,0.5,0.83,0.52,-0.11,207.26,-6.0,11.3
6.88,0.5,0.5,2.0,1.25,2.25,1.0,0.0,0.25,0.25,1.25,0.5,0.25,0.0,0.33,-0.67,0.77,166.1,7.7,28.1,0.5,0.75,2.75,0.5,1.0,2.75,1.0,0.0,0.25,1.75,1.5,0.75,0.5,0.89,0.52,-0.11,204.91,-6.3,7.3
6.9,0.5,0.5,2.25,1.0,2.5,1.0,0.0,0.0,0.25,1.75,0.25,0.5,0.25,0.27,-0.73,0.77,167.03,6.9,21.7,0.5,0.75,2.75,0.5,2.5,2.75,1.0,0.0,0.25,1.5,1.5,0.75,0.5,1.02,0.58,-0.17,208.71,-5.6,14.0
6.92,0.5,0.5,2.0,1.0,2.5,1.0,0.0,0.0,0.25,1.75,0.5,0.5,0.25,0.27,-0.73,0.77,166.88,6.2,18.7,0.5,0.75,2.75,0.5,1.75,2.75,0.75,0.0,0.25,1.75,1.25,0.75,0.5,1.14,0.52,-0.23,209.5,-5.4,11.4
6.94,0.5,0.5,2.0,1.0,2.5,1.0,0.0,0.0,0.25,1.75,0.5,0.5,0.25,0.27,-0.8,0.83,169.0,6.2,18.7,0.5,0.75,2.75,0.5,1.0,2.75,1.0,0.0,0.25,1.5,1.5,0.75,0.5,1.08,0.45,-0.23,204.61,-6.8,8.8
6.96,0.5,0.5,2.0,1.0,2.5,1.0,0.0,0.0,0.25,1.75,0.25,0.5,0.25,0.27,-0.86,0.77,169.38,6.1,20.7,0.5,0.75,2.75,0.5,1.25,2.75,1.0,0.25,0.25,1.5,1.5,0.75,0.5,1.02,0.39,-0.11,201.63,-6.1,8.9
6.98,0.5,0.5,2.0,1.0,2.5,1.0,0.0,0.25,0.25,1.75,0.25,0.5,0.25,0.33,-0.86,0.77,170.26,5.6,19.4,0.5,0.75,2.75,0.5,2.75,2.75,1.0,0.0,0.25,1.5,1.25,0.75,0.5,0.89,0.39,-0.05,207.19,-5.3,16.2
7.0,0.75,0.5,2.0,1.0,2.5,1.0,0.0,0.25,0.25,1.75,0.5,0.5,0.25,0.39,-0.92,0.77,170.04,6.3,19.0,0.5,0.75,2.75,0.5,1.25,2.75,1.0,0.0,0.25,1.75,1.25,0.75,1.25,0.77,0.39,-0.11,207.56,-5.0,3.3
7.02,0.75,0.5,2.0,1.0,2.25,1.0,0.0,0.25,0.0,1.75,0.5,0.5,0.25,0.52,-0.98,0.83,170.09,6.4,19.4,0.5,0.75,3.25,0.75,1.5,2.75,1.0,0.25,0.25,1.75,1.25,0.75,0.5,0.64,0.39,-0.05,212.13,-6.8,12.4
7.04,0.75,0.25,2.0,1.0,2.25,1.0,0.0,0.25,0.0,1.75,0.5,0.5,0.5,0.52,-0.98,0.83,169.93,5.8,14.6,0.5,0.75,2.75,0.75,1.75,2.75,1.0,0.5,0.25,1.5,1.5,0.75,0.5,0.64,0.39,-0.11,214.71,-5.6,10.7
7.06,0.75,0.25,2.0,1.0,1.75,1.0,0.0,0.0,0.25,1.75,0.25,0.25,0.0,0.58,-0.98,0.77,161.9,8.0,24.5,0.5,0.75,2.75,0.75,1.5,2.75,1.0,0.0,0.25,1.75,1.25,0.75,0.5,0.64,0.45,-0.17,212.77,-6.1,11.5
7.08,0.75,0.5,2.0,1.0,2.25,1.0,0.0,0.25,0.25,1.75,0.5,0.5,0.5,0.64,-0.98,0.83,164.52,6.1,15.3,0.5,0.75,2.75,0.75,1.5,2.75,1.0,0.25,0.25,1.5,1.5,0.75,0.25,0.7,0.45,-0.11,210.72,-6.5,12.9
7.1,0.5,0.5,2.0,0.75,2.5,1.0,0.0,0.25,0.25,1.75,0.0,0.5,0.25,0.64,-0.92,0.77,162.47,5.2,20.6,0.5,0.75,2.5,0.75,1.5,2.75,1.0,0.0,0.25,1.75,1.25,0.75,0.5,0.77,0.45,-0.11,207.66,-5.5,10.6
7.12,0.5,0.5,2.0,1.0,2.5,1.0,0.0,0.25,0.0,1.75,0.5,0.5,0.25,0.64,-0.8,0.77,165.99,5.6,18.6,0.5,0.75,2.75,0.75,1.25,2.75,1.0,0.0,0.25,1.75,1.25,0.75,0.5,0.77,0.52,-0.11,204.53,-6.3,10.6
7.14,0.75,0.5,2.0,1.0,2.25,1.0,0.0,0.25,0.25,1.75,0.5,0.25,0.25,0.64,-0.67,0.77,166.5,6.5,21.0,0.5,0.75,2.75,0.75,1.75,2.75,1.0,0.0,0.25,1.5,1.25,0.75,0.75,0.83,0.58,-0.11,204.56,-5.9,11.7
7.16,0.5,0.5,2.0,0.75,2.25,1.0,0.0,0.25,0.25,1.75,0.25,0.75,0.25,0.58,-0.55,0.77,166.84,5.7,14.6,0.5,0.75,2.5,1.25,2.75,2.75,0.75,0.25,0.25,1.5,1.25,0.75,0.5,0.77,0.58,-0.05,213.28,-4.8,16.6
7.18,0.75,0.5,2.0,1.0,2.5,1.0,0.0,0.25,0.25,1.75,0.5,0.5,0.5,0.52,-0.48,0.77,170.28,5.9,16.2,0.5,0.75,2.5,0.75,1.25,2.75,1.0,0.0,0.25,1.5,1.25,0.75,0.75,0.83,0.58,-0.05,210.66,-5.7,9.0
7.2,0.75,0.0,2.0,1.0,2.25,1.0,0.0,0.25,0.25,1.75,0.5,1.25,0.25,0.45,-0.48,0.77,171.57,6.4,6.3,0.5,0.75,2.75,0.75,1.5,2.75,0.75,0.0,0.25,1.5,1.0,0.75,0.5,0.89,0.52,0.02,206.88,-6.2,14.5
7.22,1.0,0.5,2.0,1.0,2.25,1.0,0.0,0.0,0.0,1.75,0.0,0.5,0.25,0.39,-0.48,0.77,170.27,7.4,26.8,0.5,0.5,2.5,0.5,1.5,2.75,0.75,0.0,0.25,1.75,0.75,0.75,0.5,0.95,0.52,0.02,197.26,-4.6,10.9
7.24,0.75,0.5,2.0,1.0,2.25,1.0,0.0,0.25,0.0,1.75,0.5,0.5,0.5,0.33,-0.48,0.7,170.18,6.0,16.5,0.5,0.75,2.75,0.75,2.25,2.75,1.0,0.0,0.25,1.5,0.75,0.75,0.75,0.95,0.45,0.02,199.91,-5.4,16.3
7.26,0.5,0.5,2.0,0.75,2.5,1.0,0.0,0.25,0.0,1.75,0.25,0.25,0.25,0.27,-0.42,0.7,167.04,5.1,22.9,0.5,0.75,2.0,0.75,1.5,2.75,0.75,0.0,0.25,1.5,1.0,0.75,0.5,0.95,0.45,0.02,193.93,-4.2,11.7
7.28,0.75,0.5,2.0,1.25,2.5,1.0,0.0,0.25,0.0,1.75,0.5,0.5,0.25,0.2,-0.42,0.64,169.93,6.4,21.1,0.5,0.5,2.75,0.75,0.5,2.75,0.75,0.0,0.25,1.75,1.25,0.75,0.5,0.89,0.45,0.02,191.19,-6.6,5.7
7.3,1.0,0.5,2.0,1.0,2.25,1.0,0.0,0.25,0.0,1.75,0.5,0.25,0.25,0.08,-0.42,0.64,170.11,7.0,23.9,0.5,0.75,3.0,0.75,1.5,2.75,0.75,0.25,0.25,1.5,1.25,0.75,0.5,0.89,0.45,0.02,194.39,-6.4,12.9
7.32,0.5,0.5,2.0,1.0,2.25,1.0,0.0,0.25,0.0,1.75,0.5,0.75,0.25,0.08,-0.36,0.58,169.9,5.9,14.9,0.5,0.75,2.75,0.75,1.0,2.75,0.75,0.0,0.25,1.75,1.5,0.75,0.5,0.89,0.39,0.02,195.57,-6.3,8.1
7.34,0.75,0.5,2.0,0.75,2.25,1.0,0.0,0.0,0.0,1.75,0.5,0.5,0.25,0.02,-0.3,0.58,167.01,6.7,19.8,0.5,0.75,2.75,0.75,2.25,2.75,0.75,0.0,0.25,1.5,1.25,0.75,0.25,0.83,0.33,0.08,201.33,-6.0,17.6
7.36,0.75,0.0,2.0,0.75,2.5,1.0,0.0,0.25,0.0,1.75,0.5,0.5,0.5,-0.05,-0.23,0.52,164.99,5.2,12.5,0.5,0.75,2.75,0.5,2.25,2.75,0.75,0.0,0.25,1.25,1.5,0.75,0.5,0.83,0.33,0.08,205.01,-5.9,14.6
7.38,0.75,0.5,1.75,1.0,0.75,1.0,0.0,0.5,0.0,1.75,0.0,0.5,0.5,-0.05,-0.23,0.58,154.8,6.0,11.5,0.5,0.75,2.75,0.75,1.0,2.75,1.0,0.25,0.25,1.75,1.0,0.75,0.5,0.77,0.27,0.08,204.58,-6.0,10.3
7.4,0.5,0.25,2.0,1.0,2.5,1.0,0.0,0.25,0.0,1.75,0.25,0.75,0.25,-0.11,-0.23,0.64,155.37,5.4,15.9,0.5,0.75,2.75,0.5,1.5,2.75,1.0,0.0,0.25,1.75,1.25,0.75,0.5,0.77,0.27,0.08,203.26,-5.9,10.6
7.42,0.5,0.5,2.0,1.0,2.25,1.0,0.0,0.25,0.0,1.75,0.5,0.5,0.25,-0.17,-0.23,0.64,156.03,5.8,17.7,0.5,0.75,2.75,0.75,1.5,2.75,1.0,0.0,0.25,1.75,1.0,0.75,0.75,0.77,0.27,0.08,205.0,-5.6,10.8
7.44,0.75,0.5,2.0,1.0,2.25,1.0,0.0,0.25,0.0,1.75,0.5,0.25,0.25,-0.17,-0.17,0.64,160.96,6.4,22.4,0.5,0.75,2.5,0.5,1.25,2.75,1.0,0.0,0.25,1.5,1.25,0.75,0.5,0.95,0.39,0.02,201.13,-5.8,10.3
7.46,0.75,0.75,2.0,0.75,2.25,1.0,0.0,0.25,0.0,1.75,0.5,0.5,0.25,-0.23,-0.23,0.7,164.39,6.3,20.3,0.5,0.75,2.5,0.5,1.5,2.75,1.0,0.0,0.25,1.75,1.25,0.75,0.5,1.02,0.33,-0.05,199.86,-5.3,9.7
7.48,0.5,0.5,2.0,1.0,2.25,1.0,0.0,0.25,0.0,1.75,0.5,0.75,0.5,-0.3,-0.3,0.64,167.71,5.5,12.0,0.5,0.75,2.75,0.75,0.5,2.75,1.25,0.0,0.25,1.75,1.25,0.75,0.5,1.08,0.27,-0.05,195.65,-7.1,7.9
7.5,0.5,0.5,2.0,1.0,2.5,1.0,0.0,0.25,0.0,1.75,0.5,0.25,0.25,-0.36,-0.36,0.64,168.16,5.5,21.6,0.5,0.75,2.75,0.5,1.0,2.75,1.0,0.0,0.25,1.5,1.25,0.75,0.5,1.14,0.2,0.02,194.28,-6.7,10.4
7.52,0.5,0.0,2.0,1.0,2.5,1.0,0.0,0.25,0.0,1.75,0.5,0.25,0.25,-0.48,-0.48,0.7,164.69,5.2,17.7,0.5,1.0,2.75,0.75,2.75,2.5,1.0,0.25,0.25,1.75,1.25,0.75,0.5,1.2,0.08,-0.05,204.22,-5.4,15.6
7.54,0.75,0.5,1.0,1.75,1.75,1.0,0.0,0.25,0.0,1.75,0.5,0.5,0.25,-0.55,-0.61,0.64,161.9,4.6,16.3,0.5,0.75,2.75,0.5,1.0,2.25,0.75,0.25,0.25,1.75,1.25,0.75,0.5,1.02,-0.17,-0.05,200.88,-6.6,6.8
7.56,0.5,0.25,2.0,1.0,2.25,1.0,0.0,0.25,0.0,1.75,0.5,0.5,0.25,-0.61,-0.67,0.58,160.49,5.7,15.7,0.5,0.75,2.75,0.5,1.5,2.25,1.0,0.0,0.25,1.5,0.75,0.75,0.5,0.83,-0.3,0.02,198.48,-7.2,14.8
7.58,0.5,0.5,2.0,1.0,2.25,1.0,0.0,0.25,0.0,1.75,0.25,0.75,0.25,-0.67,-0.67,0.58,161.67,5.8,16.9,0.5,0.75,2.75,0.75,1.0,2.25,1.0,0.0,0.25,1.25,1.0,0.75,0.75,0.7,-0.48,0.02,190.74,-8.0,11.4
7.6,0.75,0.5,2.0,1.0,1.75,1.0,0.0,0.5,0.0,1.75,0.5,0.5,0.25,-0.8,-0.67,0.45,162.86,6.4,16.2,0.75,0.75,2.75,0.75,1.0,2.25,1.0,0.5,0.25,1.75,1.0,0.75,0.5,0.64,-0.55,0.08,191.46,-7.1,10.1
7.62,1.0,0.5,2.0,1.0,1.25,1.0,0.0,0.25,0.0,1.75,0.5,0.25,0.25,-0.86,-0.73,0.39,160.43,8.2,20.5,0.5,0.75,2.75,0.75,1.25,2.25,1.0,0.0,0.25,1.5,1.5,0.75,0.5,0.52,-0.48,0.27,191.33,-7.8,9.9
7.64,0.75,0.5,1.75,1.0,1.75,1.0,0.0,0.5,0.0,1.75,0.5,0.25,0.5,-0.86,-0.73,0.39,158.2,5.1,15.0,0.5,0.75,2.75,1.5,1.0,2.25,0.75,0.0,0.25,1.5,1.25,0.75,0.5,0.45,-0.36,0.33,194.68,-8.3,13.1
7.66,0.75,0.5,1.75,1.0,2.25,1.0,0.0,0.25,0.0,1.75,0.5,0.25,0.25,-0.86,-0.73,0.39,158.07,5.6,21.4,0.5,0.75,2.75,0.75,1.25,2.5,0.75,0.0,0.25,1.75,1.25,0.75,0.5,0.39,-0.23,0.52,196.46,-6.5,10.1
7.68,0.5,0.5,1.75,0.75,1.75,1.5,0.0,0.5,0.0,1.75,0.5,0.25,0.5,-0.8,-0.67,0.33,158.12,2.9,13.0,0.5,0.5,2.75,1.75,1.0,2.25,0.75,0.0,0.25,1.5,1.25,0.75,0.5,0.33,-0.05,0.64,197.73,-8.4,12.3
7.7,0.75,0.5,1.75,1.25,1.75,1.0,0.0,0.25,0.0,1.75,0.25,0.5,0.5,-0.8,-0.61,0.33,158.71,5.9,16.5,0.5,0.75,2.75,1.25,1.0,2.0,0.75,0.0,0.25,1.75,1.0,0.75,0.5,0.33,0.08,0.7,195.26,-8.2,11.8
7.72,0.75,0.5,1.75,1.0,2.25,1.0,0.0,0.25,0.0,1.75,0.5,0.5,0.25,-0.8,-0.55,0.39,161.05,5.7,18.4,0.5,0.75,2.75,0.75,1.0,2.25,0.75,0.0,0.25,1.75,1.25,0.75,0.5,0.27,0.2,0.64,193.11,-7.3,8.7
7.74,0.5,0.5,1.75,1.0,1.75,1.0,0.0,0.25,0.0,1.75,0.5,0.5,0.25,-0.8,-0.48,0.58,158.96,5.5,14.5,0.5,0.75,2.75,1.0,1.0,2.25,0.75,0.0,0.25,0.75,1.0,0.75,0.5,0.27,0.33,0.58,187.0,-9.4,18.5
7.76,0.5,0.5,1.75,1.0,1.75,1.0,0.0,0.5,0.0,1.75,0.25,0.25,0.5,-0.8,-0.36,0.83,156.86,4.3,15.3,0.5,0.75,2.75,0.5,1.0,2.0,0.75,0.0,0.25,1.75,1.25,0.5,0.5,0.27,0.39,0.58,182.2,-7.6,9.5
7.78,0.75,0.75,1.75,0.75,1.75,1.0,0.0,0.25,0.0,1.75,0.5,0.25,0.25,-0.92,-0.36,0.83,154.4,6.0,20.6,0.5,0.75,2.75,0.5,1.0,2.25,1.0,0.0,0.25,1.5,1.0,0.0,0.5,0.27,0.45,0.52,178.86,-7.7,19.0
7.8,0.5,0.5,1.75,1.0,1.25,1.0,0.0,0.25,0.0,1.75,0.5,0.25,0.25,-0.92,-0.36,0.64,148.76,6.0,15.5,0.5,0.75,2.75,0.5,1.0,2.25,1.0,0.0,0.25,1.0,1.25,0.75,0.5,0.27,0.52,0.52,176.94,-8.8,13.0
7.82,0.5,0.5,1.75,1.0,1.75,1.0,0.0,0.25,0.0,1.75,0.5,0.75,0.25,-0.86,-0.42,0.7,149.01,5.6,11.5,0.5,0.75,2.75,0.5,1.0,2.25,1.0,0.0,0.25,2.0,1.25,0.75,0.5,0.08,0.52,0.64,179.59,-6.9,6.2
7.84,0.5,0.25,1.75,0.75,1.75,1.0,0.0,0.5,0.0,1.75,0.5,0.5,0.25,-0.92,-0.42,0.77,147.7,4.5,9.8,0.5,0.5,2.5,0.5,1.25,2.25,0.75,0.0,0.25,1.75,1.0,0.25,0.5,0.33,0.45,0.64,177.65,-5.9,12.3
7.86,1.0,0.5,1.0,1.0,0.0,1.0,0.0,0.5,0.0,1.75,0.5,0.25,0.25,-0.98,-0.36,0.83,137.77,5.5,7.0,0.5,0.5,2.75,0.5,1.0,2.25,1.0,0.0,0.25,1.5,1.25,0.75,0.5,0.7,0.33,0.64,178.58,-7.7,7.6
7.88,0.5,0.5,1.75,1.25,2.25,1.0,0.0,0.25,0.0,1.5,0.5,0.25,0.25,-0.86,-0.17,1.02,140.92,5.8,23.0,0.5,0.25,3.0,0.75,1.25,2.25,0.75,0.0,0.25,1.5,1.5,0.75,0.5,0.77,0.27,0.89,181.06,-8.0,7.2
7.9,0.75,0.5,1.75,1.0,1.75,1.0,0.0,0.5,0.0,1.75,0.25,0.25,0.25,-0.73,0.02,0.95,143.45,5.4,20.4,0.5,0.25,2.25,0.75,1.5,2.5,0.75,0.0,0.25,1.5,1.0,0.75,0.5,0.77,0.08,1.14,181.58,-5.1,8.7
7.92,0.75,0.5,1.75,1.25,1.75,1.0,0.0,0.25,0.0,1.75,0.25,0.5,0.25,-0.67,0.02,0.95,150.4,6.4,19.7,0.5,0.25,3.0,0.5,1.0,2.25,1.0,0.0,0.25,1.5,1.0,0.75,0.5,0.95,-0.11,1.14,180.75,-8.2,8.5
7.94,0.5,0.75,1.75,1.0,2.25,1.0,0.0,0.0,0.0,1.75,0.5,0.5,0.25,-0.67,-0.11,0.95,155.52,5.7,20.0,0.5,0.25,2.75,0.5,1.75,2.25,0.75,0.0,0.25,1.5,1.25,0.75,0.75,1.02,-0.3,0.95,184.26,-6.2,6.4
7.96,1.0,0.5,1.75,1.0,1.75,1.0,0.0,0.25,0.0,1.75,0.25,0.25,0.25,-0.73,-0.23,0.95,158.11,6.7,23.7,0.5,0.5,2.75,0.5,1.0,2.25,0.75,0.0,0.25,1.75,0.75,0.75,0.5,0.77,-0.23,0.89,182.7,-6.8,9.1
7.98,0.75,0.5,1.75,1.25,1.75,1.0,0.0,0.25,0.0,1.75,0.5,0.25,0.25,-0.67,-0.42,0.89,158.96,6.4,20.5,0.5,0.25,2.75,0.5,2.25,2.25,1.0,0.0,0.25,1.5,1.0,0.75,0.5,0.7,-0.23,0.77,187.58,-6.3,12.4
8.0,0.25,0.25,1.75,0.75,1.75,1.0,0.0,0.0,0.0,1.75,0.25,0.25,0.25,-0.55,-0.48,0.89,150.07,4.6,16.1,0.5,0.75,2.5,0.5,1.25,2.25,0.75,0.0,0.25,1.75,1.0,0.75,0.5,0.64,-0.23,0.7,187.19,-6.1,9.2
8.02,0.75,0.0,1.5,1.5,1.25,1.0,0.0,0.0,0.0,1.75,0.25,0.25,0.25,-0.42,-0.42,0.83,143.72,6.6,18.0,0.5,0.75,2.75,0.5,1.5,2.25,1.0,0.0,0.25,1.5,1.0,0.75,0.5,0.45,-0.17,0.64,190.12,-7.2,13.1
8.04,1.0,0.75,1.75,1.0,1.75,1.0,0.0,0.25,0.0,1.75,0.0,0.25,0.25,-0.3,-0.42,0.77,144.54,6.7,28.0,0.5,0.75,2.75,0.5,1.5,2.25,1.0,0.0,0.25,1.75,1.0,0.75,1.0,0.27,0.02,0.52,192.84,-6.0,6.8
8.06,1.0,0.5,1.25,1.0,1.25,0.75,0.0,0.0,0.0,1.25,0.25,0.5,0.25,-0.11,-0.36,0.77,138.56,8.4,22.9,0.5,0.75,2.0,0.5,1.5,2.25,0.75,0.0,0.25,2.0,1.0,0.75,0.25,0.14,0.33,0.58,190.76,-4.5,8.9
8.08,1.25,0.5,1.5,1.0,1.75,1.0,0.0,0.0,0.0,1.25,0.25,0.5,0.25,-0.11,-0.17,0.83,141.67,8.4,27.9,0.5,0.5,2.75,0.5,1.75,2.0,0.5,0.0,0.25,2.25,0.75,0.75,1.0,1.64,-2.42,0.83,193.21,-4.9,3.6
8.1,1.25,0.5,1.75,1.25,1.75,1.0,0.0,0.0,0.0,1.75,0.5,0.25,0.25,-0.05,-0.17,1.02,147.73,8.2,25.4,0.5,0.25,2.0,0.75,0.25,2.25,0.5,0.0,0.25,2.25,0.0,0.75,1.25,0.58,0.14,2.64,180.69,-2.4,-6.1
8.12,1.75,0.5,1.5,1.5,2.25,1.0,0.0,0.0,0.0,1.5,0.25,0.25,0.5,0.02,-0.11,0.95,157.68,8.2,31.1,0.5,0.5,2.25,0.75,1.25,2.25,0.0,0.25,0.25,2.75,1.0,0.75,1.5,0.7,0.58,0.64,185.61,-1.6,-8.3
8.14,2.25,0.0,1.75,1.0,0.0,4.5,0.0,0.25,2.0,2.25,0.5,0.75,0.25,-0.05,-0.11,0.89,182.44,3.7,7.8,0.5,0.0,2.5,0.5,1.0,2.25,0.25,0.0,0.25,2.5,0.75,1.0,2.25,0.52,0.14,1.45,186.45,-1.7,-17.9
8.16,1.25,0.25,0.0,0.25,0.0,3.0,0.0,0.0,0.0,0.0,0.5,0.25,0.0,-0.55,-0.55,1.08,159.8,-1.6,35.7,0.5,0.25,1.75,0.75,1.0,2.25,0.25,0.0,0.25,2.25,1.0,0.75,2.25,0.02,0.08,0.95,189.69,-0.4,-16.9
