time,left pressure 0[N/cm虏],left pressure 1[N/cm虏],left pressure 2[N/cm虏],left pressure 3[N/cm虏],left pressure 4[N/cm虏],left pressure 5[N/cm虏],left pressure 6[N/cm虏],left pressure 7[N/cm虏],left pressure 8[N/cm虏],left pressure 9[N/cm虏],left pressure 10[N/cm虏],left pressure 11[N/cm虏],left pressure 12[N/cm虏],left acceleration X[g],left acceleration Y[g],left acceleration Z[g],left total force[N],left center of pressure X[mm],left center of pressure Y[mm],right pressure 0[N/cm虏],right pressure 1[N/cm虏],right pressure 2[N/cm虏],right pressure 3[N/cm虏],right pressure 4[N/cm虏],right pressure 5[N/cm虏],right pressure 6[N/cm虏],right pressure 7[N/cm虏],right pressure 8[N/cm虏],right pressure 9[N/cm虏],right pressure 10[N/cm虏],right pressure 11[N/cm虏],right pressure 12[N/cm虏],right acceleration X[g],right acceleration Y[g],right acceleration Z[g],right total force[N],right center of pressure X[mm],right center of pressure Y[mm]
0.02,4.5,4.0,5.0,6.5,8.0,6.75,0.5,8.5,4.75,9.75,8.0,6.25,8.25,-0.11,0.08,0.95,1372.58,1.5,-14.7,5.75,0.75,0.75,1.25,0.0,0.0,0.0,0.5,0.75,0.0,0.0,0.0,0.0,0.58,0.52,2.7,130.56,-26.4,71.5
0.04,4.5,4.25,5.0,6.5,7.5,6.75,0.5,9.0,4.75,9.75,9.0,6.25,9.0,-0.11,0.08,0.95,1388.3,1.4,-16.5,7.5,1.0,1.0,2.5,1.25,0.25,0.0,0.5,0.75,0.0,0.0,0.0,0.0,0.33,0.52,2.52,170.65,-22.7,71.1
0.06,4.0,4.0,4.5,6.25,7.75,6.75,0.75,9.25,4.5,9.75,8.75,6.25,9.0,-0.11,0.08,0.95,1390.85,0.9,-17.8,8.25,1.5,4.75,0.0,0.0,0.0,0.0,0.5,0.75,1.0,0.0,0.0,0.0,-0.3,0.27,1.45,213.86,-28.1,66.0
0.08,4.0,3.5,4.75,6.25,7.5,6.75,0.5,9.25,4.5,9.75,8.75,6.25,9.0,-0.11,0.08,0.95,1378.88,0.9,-18.6,9.25,3.25,4.75,0.0,6.25,2.0,0.0,1.25,1.25,0.0,0.75,0.0,0.25,-0.11,0.2,1.58,300.06,-15.7,59.3
0.1,4.0,3.75,4.5,6.0,7.5,6.75,0.5,9.25,4.25,9.75,8.75,6.5,9.25,-0.11,0.08,0.95,1362.61,0.7,-19.2,9.5,3.25,8.5,9.0,7.0,5.25,1.25,1.75,0.5,2.5,0.75,0.0,0.0,0.08,0.2,1.64,494.27,-13.6,51.8
0.12,3.75,3.75,4.25,5.25,7.5,6.75,0.0,9.5,4.0,10.5,9.0,6.75,10.0,-0.11,0.08,0.95,1354.47,0.0,-22.5,9.75,4.25,9.75,10.5,8.5,6.25,0.0,0.0,2.0,3.5,2.0,0.0,0.0,-0.11,0.14,1.58,757.24,-13.3,48.8
0.14,3.75,3.5,3.25,5.25,7.0,6.75,0.0,9.75,3.75,10.5,8.75,7.0,10.0,-0.11,0.08,0.95,1334.16,-0.6,-24.6,9.75,4.25,9.75,10.5,8.5,6.25,0.0,3.75,3.5,4.25,2.25,1.5,1.5,0.08,0.14,1.08,1048.64,-10.5,32.9
0.16,3.75,3.5,2.75,5.0,7.25,6.25,0.0,9.75,3.25,10.5,8.5,6.5,9.25,-0.11,0.08,1.02,1303.86,-0.9,-23.9,10.0,4.25,10.0,10.5,8.5,6.75,6.5,5.0,3.75,4.25,4.0,1.5,1.5,0.02,0.08,1.02,1318.29,-11.0,29.0
0.18,2.0,3.0,3.0,3.5,6.5,5.0,0.0,9.0,2.5,9.75,7.0,5.75,9.25,-0.11,0.08,1.02,1190.22,-1.9,-28.4,9.75,4.25,10.5,10.5,8.5,6.75,7.0,4.75,3.75,4.25,3.75,1.5,1.5,0.02,0.14,1.02,1451.11,-11.2,29.6
0.2,3.75,3.25,2.25,5.25,5.25,5.25,0.0,9.0,2.5,10.5,6.75,5.5,9.25,-0.11,0.08,1.14,1109.07,-1.1,-25.2,9.75,4.0,11.0,10.5,8.5,6.25,6.75,4.5,3.25,4.0,3.25,0.75,1.25,0.08,0.14,0.95,1504.57,-11.9,33.3
0.22,3.75,3.75,3.25,5.0,5.5,3.5,0.0,8.5,2.5,9.5,6.0,4.75,8.5,-0.17,0.08,1.33,1010.88,0.2,-21.0,9.75,4.0,11.0,10.5,8.5,6.25,6.5,3.75,2.75,3.5,2.75,0.25,0.25,0.02,0.14,0.95,1497.34,-12.8,39.5
0.24,3.75,3.75,3.0,5.0,6.0,2.25,0.0,8.0,2.5,8.75,6.25,4.25,9.0,-0.36,0.2,1.33,955.2,0.6,-21.1,9.75,4.0,10.0,9.25,8.5,6.25,6.25,3.75,2.75,3.5,2.5,0.25,0.75,0.02,0.14,0.95,1445.96,-12.1,38.0
0.26,3.75,3.25,2.5,4.75,5.75,2.25,0.0,7.25,2.5,6.75,5.75,2.5,8.25,-0.48,0.2,1.64,869.27,0.8,-17.1,9.0,3.25,9.75,8.75,7.5,5.75,6.0,3.5,2.5,3.5,2.5,0.25,0.5,0.02,0.14,0.89,1352.6,-12.4,37.3
0.28,2.75,3.0,3.0,3.25,5.5,0.0,0.0,6.25,2.0,5.0,5.5,1.0,6.5,-0.55,0.33,1.45,734.71,2.2,-14.7,9.0,2.75,9.75,8.75,7.25,5.75,5.75,3.5,2.5,3.5,2.5,0.25,0.5,0.02,0.14,0.89,1248.68,-12.5,36.7
0.3,3.0,2.5,2.0,1.5,5.5,0.75,0.0,5.0,2.25,1.0,4.0,0.0,0.0,-0.3,0.33,1.45,535.16,5.9,16.4,8.75,2.5,9.0,8.5,7.5,5.75,5.25,3.25,2.5,3.75,2.5,0.25,0.75,0.02,0.14,0.89,1132.6,-11.7,35.1
0.32,1.0,2.25,3.0,2.75,5.5,0.0,0.0,3.25,2.25,0.75,3.5,0.0,3.0,0.64,1.64,1.02,387.74,5.7,5.4,8.25,2.5,9.0,8.5,7.0,5.75,4.75,3.75,2.5,4.0,2.75,0.25,1.25,0.02,0.14,0.95,1035.55,-11.0,31.6
0.34,2.25,2.0,1.75,2.75,5.0,0.0,0.0,3.75,2.25,0.5,3.75,0.0,2.5,1.02,1.7,1.27,300.63,5.8,6.2,8.0,2.5,9.0,7.5,7.25,6.0,4.75,3.75,2.5,4.25,3.0,0.75,1.25,0.02,0.14,0.95,965.97,-10.5,28.9
0.36,2.75,2.0,1.75,2.5,4.75,0.0,0.0,3.0,2.0,0.0,3.75,0.0,2.5,0.64,1.7,1.08,264.49,7.3,10.1,8.0,2.5,8.5,7.0,7.0,6.0,4.5,3.75,2.75,4.25,3.25,1.25,1.25,0.02,0.14,0.95,929.5,-10.2,26.4
0.38,2.75,3.0,2.0,2.75,4.75,0.0,0.0,3.0,2.0,0.0,3.25,0.0,2.5,0.52,1.64,0.89,255.92,7.8,16.1,7.5,2.25,8.5,7.0,7.0,6.25,4.25,4.75,3.25,5.5,3.75,1.5,1.5,0.02,0.14,0.95,926.07,-8.8,20.0
0.4,2.25,3.0,2.5,2.75,5.0,0.0,0.0,3.0,2.0,0.0,3.0,0.0,2.25,0.33,1.52,0.95,261.52,8.0,17.9,7.0,1.75,8.0,7.0,7.0,6.25,4.25,5.0,3.25,6.0,5.0,1.75,2.5,0.02,0.14,0.95,942.82,-7.7,13.0
0.42,0.0,0.0,0.0,0.0,0.0,0.0,0.0,0.0,0.0,0.0,0.0,0.0,0.0,0.27,1.33,1.14,156.16,0.0,0.0,7.0,1.75,8.0,7.0,7.25,6.25,4.25,5.25,3.25,6.0,5.0,2.75,3.25,0.02,0.14,0.95,987.89,-7.3,9.7
0.44,4.5,3.5,0.0,4.75,0.0,1.0,0.0,6.0,2.5,0.0,0.0,0.0,0.0,0.14,1.02,1.33,154.85,8.3,34.2,6.5,1.75,8.0,6.75,7.0,6.25,4.0,5.75,3.5,6.5,5.0,3.0,3.25,0.02,0.14,0.95,1028.9,-6.8,7.0
0.46,3.5,3.25,3.75,4.75,5.75,1.0,0.0,3.25,3.25,0.0,4.0,0.0,2.75,0.02,0.83,1.39,224.51,9.2,19.6,5.75,1.75,7.5,6.75,7.0,6.25,4.0,5.75,3.5,6.75,5.25,3.0,4.0,0.02,0.14,0.95,1060.39,-5.9,3.6
0.48,3.75,3.25,0.0,5.25,0.0,1.0,0.0,0.0,2.5,0.0,3.5,0.0,0.0,-0.11,0.58,1.45,256.24,15.8,35.2,5.75,1.5,7.25,6.75,7.0,6.25,3.75,5.75,3.25,7.0,5.5,3.25,4.75,0.02,0.14,0.95,1080.07,-5.4,0.8
0.5,0.0,0.0,3.25,0.0,5.0,0.0,0.0,4.5,0.0,0.0,0.0,0.0,0.0,-0.11,0.39,1.39,250.93,2.4,24.8,5.75,1.25,7.25,6.75,7.0,6.25,3.75,6.0,3.25,7.25,6.0,3.5,4.75,0.08,0.14,0.95,1099.16,-5.3,-0.8
0.52,0.0,0.0,4.5,0.0,5.5,0.0,4.25,6.5,0.0,0.0,0.25,0.0,0.0,-0.23,0.14,1.39,255.29,5.8,20.6,5.25,1.25,7.25,6.75,7.0,6.25,3.5,6.25,3.25,7.5,6.0,4.25,4.75,0.02,0.14,0.95,1112.48,-4.9,-3.2
0.54,3.75,3.25,0.0,4.25,0.0,0.0,0.0,0.0,2.5,1.25,0.0,0.0,0.0,-0.3,0.02,1.39,234.72,16.7,49.4,5.0,1.25,6.75,6.0,7.0,6.25,3.25,6.75,3.25,7.5,6.0,4.25,5.0,0.02,0.14,0.95,1113.68,-4.1,-5.4
0.56,3.75,3.25,3.0,4.75,5.75,0.0,0.0,4.0,2.5,1.25,4.0,0.0,2.5,-0.36,-0.11,1.27,294.59,8.2,16.4,3.75,1.0,6.25,5.25,7.0,6.25,2.75,6.75,2.75,8.25,6.0,4.25,5.5,0.08,0.14,0.95,1088.87,-2.6,-10.5
0.58,3.75,3.25,3.0,4.75,5.0,0.0,0.0,4.5,2.5,0.75,4.0,0.0,2.5,-0.36,-0.17,1.08,373.59,8.5,16.0,3.75,1.0,6.0,5.0,6.5,6.25,2.75,6.75,2.75,8.5,6.75,5.0,6.0,0.08,0.14,0.95,1066.81,-2.4,-14.5
0.6,4.5,3.25,3.0,4.75,5.0,0.0,0.0,4.25,2.5,1.0,4.0,0.0,2.75,-0.42,-0.23,0.95,470.46,8.9,16.4,2.5,1.0,4.25,4.5,5.75,6.25,2.0,7.25,2.25,8.75,6.75,5.25,6.0,0.08,0.14,0.95,1010.59,-0.2,-21.2
0.62,3.75,3.25,3.75,5.0,5.5,0.25,0.0,4.0,2.25,0.0,3.75,0.0,3.0,-0.55,-0.3,0.89,517.09,9.3,19.9,1.25,1.0,2.75,2.5,5.0,6.0,1.5,7.25,1.75,8.75,6.5,5.25,7.0,0.08,0.14,0.95,925.32,2.4,-31.7
0.64,3.75,3.25,3.25,5.0,5.25,0.25,0.0,4.0,2.25,0.0,4.0,0.0,2.75,-0.67,-0.42,0.83,546.23,9.2,19.3,1.25,1.0,1.25,2.5,3.0,5.25,0.25,6.75,1.5,8.5,5.75,4.25,7.0,-0.05,0.14,1.02,806.92,4.1,-37.8
0.66,4.5,3.25,3.25,4.5,5.75,0.25,0.0,4.0,2.5,0.0,4.0,0.0,2.75,-0.86,-0.61,0.7,558.14,9.4,20.4,1.25,0.75,1.0,2.25,3.75,4.0,0.0,6.0,1.25,7.5,3.5,3.25,7.0,-0.05,0.2,1.33,674.49,4.9,-35.6
0.68,3.75,3.25,3.75,5.0,5.5,1.0,0.0,3.5,2.25,0.0,3.75,0.0,2.5,-0.92,-0.86,0.64,535.08,9.4,22.9,1.25,0.75,1.0,0.0,3.0,3.0,0.0,5.0,1.5,6.0,2.25,1.75,6.25,0.14,0.45,1.89,520.72,6.0,-38.3
0.7,3.75,3.25,3.5,4.75,4.75,1.0,0.0,4.5,2.25,0.0,4.25,0.0,2.25,-0.92,-0.92,0.52,536.81,8.9,19.5,1.0,0.0,1.0,0.25,2.75,0.75,0.0,3.25,1.0,3.75,2.0,0.25,5.0,0.14,0.58,2.39,363.86,4.6,-38.3
0.72,3.75,3.0,3.25,2.75,5.5,0.0,0.0,3.25,1.75,0.0,4.0,0.0,2.25,-0.92,-0.86,4.27,519.76,9.7,20.4,1.0,0.5,0.0,0.5,0.0,1.75,0.0,2.25,1.25,2.75,2.0,0.25,1.5,-0.36,0.64,1.7,240.49,3.9,-33.6
0.74,5.0,3.0,2.75,3.25,6.25,0.0,0.0,3.0,1.5,0.0,3.0,0.0,2.25,-0.67,-1.98,2.02,491.88,10.1,28.2,1.25,0.0,1.25,1.25,2.75,0.0,0.0,2.0,1.25,2.75,0.25,0.0,0.75,-1.42,3.89,0.45,149.26,-2.3,0.2
0.76,7.0,4.0,3.0,5.25,5.25,0.0,0.0,2.25,1.75,0.5,3.0,0.0,2.0,-2.42,-0.17,1.45,481.73,13.0,35.7,1.25,0.0,1.25,1.25,1.75,0.25,0.0,2.0,1.25,2.75,0.75,0.0,0.5,-0.8,3.2,0.08,85.95,-2.9,-4.4
0.78,7.75,4.5,5.0,7.0,7.5,1.0,0.0,3.75,1.5,0.0,3.5,0.0,2.25,-0.05,0.58,2.83,550.18,12.1,37.6,1.25,0.0,1.0,1.0,1.5,0.25,0.0,2.0,1.25,2.75,1.0,0.0,0.5,-0.98,1.83,0.89,58.63,-2.2,-9.7
0.8,8.0,4.5,6.0,8.5,7.25,3.25,0.0,2.75,1.75,0.0,3.0,0.0,2.25,-0.48,0.14,1.77,635.61,12.1,41.1,1.25,0.75,1.25,1.25,1.25,0.0,0.0,2.0,1.25,2.5,0.25,0.0,0.25,-0.3,1.89,0.45,52.89,-4.8,5.0
0.82,8.75,4.5,8.0,10.5,8.5,5.5,0.25,3.75,3.0,1.25,3.75,0.0,2.25,-0.17,0.14,1.58,822.83,10.8,36.3,1.0,0.75,1.0,0.0,1.5,0.0,0.0,2.0,1.25,2.75,1.0,0.0,0.0,-0.42,1.7,0.77,54.05,-2.1,-7.2
0.84,9.5,6.0,8.5,12.0,11.5,6.75,4.25,5.25,4.75,2.5,5.75,1.0,2.75,-0.11,0.08,1.14,1116.51,9.7,28.9,0.25,0.0,1.25,0.0,1.5,0.0,0.0,1.5,1.25,1.0,1.5,0.0,0.25,-0.86,1.45,1.27,49.41,-4.3,-14.3
0.86,9.5,6.0,9.75,13.0,11.5,7.25,6.25,6.5,5.5,4.5,6.25,2.0,3.25,-0.11,0.02,1.08,1415.16,9.2,23.0,1.0,0.0,1.25,0.0,1.5,0.25,0.0,1.75,1.25,2.5,0.75,0.0,0.0,-0.86,1.33,1.7,60.94,-2.4,-8.4
0.88,9.5,4.5,9.75,13.0,11.0,7.25,5.75,7.0,5.5,4.5,6.25,1.5,4.5,-0.11,0.08,1.02,1594.64,8.7,19.9,0.25,0.75,0.75,0.0,2.5,0.0,0.0,1.75,1.25,2.25,1.0,0.0,0.25,-0.48,1.27,1.89,82.19,0.4,-7.6
0.9,9.5,4.5,9.75,13.0,11.0,7.0,5.75,7.0,5.5,4.5,6.25,2.0,4.5,-0.11,0.08,0.95,1701.12,8.7,19.1,1.0,0.75,1.0,0.0,1.5,0.0,0.0,1.5,0.75,1.25,1.0,0.0,0.25,-0.05,0.95,1.95,99.36,-5.1,4.4
0.92,9.5,4.5,9.25,11.5,9.0,6.75,6.25,6.25,5.5,0.0,6.25,2.5,4.5,-0.05,0.08,0.95,1690.1,10.5,22.2,0.0,0.75,1.0,0.5,1.5,0.0,0.0,1.5,1.25,2.5,0.75,0.0,0.0,0.2,0.64,1.77,118.44,-1.0,-8.6
0.94,8.75,4.5,9.0,11.0,3.5,6.0,5.5,6.25,5.25,3.25,6.25,2.5,4.5,-0.05,0.08,0.95,1604.32,10.4,14.1,0.0,0.75,1.25,0.75,1.5,0.25,0.0,1.25,1.25,2.5,0.75,0.0,0.25,0.39,0.45,1.58,135.71,-1.9,-6.1
0.96,7.75,4.5,8.5,8.75,8.75,5.5,3.5,6.25,5.25,0.0,6.25,2.5,4.5,-0.05,0.08,0.95,1499.8,9.6,18.4,0.0,0.75,1.25,0.25,1.5,0.5,0.0,1.75,1.25,2.5,0.25,0.0,0.0,0.45,0.14,1.45,143.41,0.3,-4.2
0.98,7.25,4.5,7.5,8.25,9.0,5.5,3.25,6.25,5.0,3.25,6.25,2.5,4.5,-0.05,0.08,0.95,1414.51,7.7,13.1,1.0,0.75,1.0,0.5,1.25,0.25,0.0,1.75,1.25,2.25,0.75,0.0,0.25,0.52,-0.17,1.33,149.1,-3.1,-1.9
1.0,6.25,4.5,6.0,7.0,8.5,5.5,0.5,6.0,4.75,4.5,6.75,2.75,5.25,-0.05,0.08,0.95,1322.57,5.6,5.8,1.0,0.75,1.25,0.5,1.75,0.5,0.0,1.25,1.25,2.5,0.75,0.0,0.0,0.64,-0.42,1.14,159.06,-3.9,5.2
1.02,5.5,4.5,5.75,6.0,7.25,5.25,0.0,6.5,4.75,5.0,6.75,4.25,5.75,-0.05,0.08,0.95,1218.92,4.8,-1.6,0.0,0.0,1.0,0.0,1.75,0.0,0.0,1.25,0.75,0.5,0.5,0.0,0.0,0.77,-0.73,0.83,140.41,-3.0,3.2
1.04,5.0,4.25,5.25,6.0,7.5,5.25,0.0,6.75,4.5,5.75,7.0,5.25,6.25,-0.05,0.08,0.95,1140.05,3.9,-6.3,0.0,0.0,0.0,0.0,0.0,0.0,0.0,0.25,0.75,0.75,0.0,0.0,0.0,0.77,-1.05,0.83,98.85,3.9,-54.5
1.06,5.25,4.5,4.0,5.75,7.25,5.25,0.0,7.25,4.5,6.5,7.5,5.5,7.5,-0.11,0.08,0.95,1086.9,2.8,-10.9,0.5,0.75,1.25,0.5,1.5,0.25,0.0,1.25,1.25,2.25,0.75,0.0,0.25,0.58,-1.67,0.77,103.55,-3.3,-1.5
1.08,4.5,4.25,5.0,5.25,7.0,5.5,0.0,7.5,4.5,7.5,8.0,6.25,8.0,-0.11,0.08,0.95,1075.24,2.4,-15.0,0.5,0.0,0.0,0.0,0.0,0.0,0.0,0.75,0.75,0.75,0.0,0.0,0.0,0.52,-1.92,0.77,74.95,-0.3,-25.3
1.1,4.25,4.0,4.5,5.0,7.0,5.5,0.0,7.5,4.5,8.0,8.0,7.0,8.5,-0.11,0.08,0.95,1097.15,1.8,-18.5,1.0,0.0,0.0,0.0,1.25,0.0,0.0,0.75,1.25,0.0,0.75,0.0,0.0,0.83,-2.23,5.27,71.22,-7.5,7.3
1.12,4.25,4.0,4.25,4.75,7.25,5.5,0.0,7.5,4.5,8.75,8.75,7.25,9.25,-0.11,0.08,0.95,1146.79,1.4,-21.0,5.75,1.0,1.0,2.5,0.5,0.5,0.0,0.75,1.0,1.0,1.5,0.0,0.0,0.95,-2.73,2.89,119.79,-17.7,41.6
1.14,4.0,4.25,3.5,5.0,7.0,5.5,0.0,8.0,4.5,8.75,9.25,7.75,9.75,-0.11,0.08,0.95,1194.12,1.0,-23.4,8.0,1.0,0.0,2.25,0.0,0.0,0.0,0.0,0.75,0.0,0.0,0.0,0.0,2.14,1.33,4.33,157.83,-27.9,81.1
1.16,4.0,3.75,4.0,5.0,7.25,5.5,0.0,8.0,4.25,9.0,9.25,7.75,10.0,-0.11,0.08,0.95,1244.85,1.0,-23.8,9.25,1.5,4.0,5.5,2.75,2.0,0.0,0.5,1.0,0.75,0.0,0.0,0.0,-0.23,0.33,2.08,254.71,-18.8,62.2
1.18,3.75,4.0,4.0,5.0,7.25,5.5,0.0,8.25,4.25,9.75,9.25,7.75,10.0,-0.11,0.08,0.95,1284.19,0.7,-24.3,9.75,2.75,8.25,0.0,5.75,3.0,0.0,1.0,0.5,1.5,0.0,0.0,0.0,-0.17,0.2,2.08,355.33,-16.9,59.8
1.2,3.75,3.5,3.75,5.0,6.75,5.5,0.0,8.25,4.0,9.75,9.25,7.75,10.0,-0.11,0.08,0.95,1293.54,0.5,-25.9,9.75,3.25,9.0,10.0,7.75,5.0,2.5,0.75,1.25,2.5,0.0,0.0,0.0,0.02,0.2,1.64,586.81,-14.7,54.3
1.22,3.75,3.75,3.0,5.0,6.75,5.0,0.0,8.5,3.75,9.75,9.0,7.75,10.5,-0.11,0.08,0.95,1287.7,0.1,-27.1,11.0,4.25,11.0,11.5,9.5,6.5,6.75,0.5,2.5,3.75,0.75,0.25,0.25,-0.17,0.14,1.45,892.7,-14.3,48.3
1.24,3.25,3.75,3.0,5.0,6.5,4.0,0.0,8.5,3.5,9.75,9.0,7.75,11.0,-0.11,0.08,0.95,1271.21,0.0,-29.5,11.0,4.25,11.0,10.5,9.25,6.75,7.25,5.0,3.75,4.25,3.25,1.5,1.25,0.02,0.2,1.14,1254.12,-11.6,32.0
1.26,3.75,3.75,2.75,5.0,5.5,3.5,0.0,8.5,3.25,9.75,9.0,8.0,11.0,-0.11,0.08,1.02,1244.07,0.3,-30.9,11.0,4.25,11.0,10.5,9.0,6.75,7.5,5.5,3.75,4.25,4.5,1.5,1.5,0.02,0.08,1.08,1468.64,-11.4,29.4
1.28,3.25,3.0,3.0,3.0,6.25,1.0,0.0,8.0,2.5,8.75,8.5,7.25,11.0,-0.11,0.08,1.14,1162.54,0.4,-35.0,10.5,4.0,11.0,10.5,9.0,6.75,7.25,5.0,3.25,4.25,3.75,1.0,1.25,0.02,0.14,0.95,1565.43,-11.6,32.0
1.3,3.25,3.75,2.5,4.25,5.0,2.0,0.0,7.75,2.5,9.5,8.0,7.75,10.0,-0.3,0.08,1.2,1095.78,0.4,-32.9,9.75,3.5,10.0,10.5,8.5,6.25,7.25,4.75,3.25,3.75,3.25,0.75,1.0,0.02,0.14,0.95,1558.71,-11.7,33.1
1.32,3.75,3.75,4.0,4.0,6.5,2.25,0.0,7.0,2.5,8.75,7.25,7.0,11.0,-0.36,0.2,1.58,1046.01,1.2,-27.1,9.75,3.0,9.75,9.75,8.5,6.25,6.5,3.75,2.75,3.75,2.75,0.25,1.25,0.02,0.14,0.89,1498.91,-11.8,35.1
1.34,4.0,3.5,3.0,3.75,6.75,2.25,0.0,6.0,2.5,7.5,6.5,5.75,10.0,-0.3,0.2,1.64,981.54,1.2,-23.9,9.0,2.75,9.25,8.75,8.5,6.25,6.0,3.75,2.5,3.75,2.5,0.25,1.25,0.02,0.14,0.89,1401.97,-11.1,34.3
1.36,4.0,3.25,3.0,4.25,5.25,1.0,0.0,5.75,2.75,6.25,6.25,3.5,7.5,-0.36,0.27,1.64,875.16,2.8,-18.3,8.25,2.5,9.0,8.5,8.25,6.0,5.75,3.75,2.5,4.0,2.25,0.25,1.25,0.02,0.14,0.89,1299.98,-10.7,33.0
1.38,3.75,3.25,3.0,2.75,5.75,0.0,0.0,5.0,1.75,4.5,5.5,0.0,7.0,-0.23,0.27,1.39,727.13,3.1,-9.4,7.5,2.5,8.25,7.0,7.25,6.25,4.75,3.75,2.5,4.0,2.75,0.5,1.75,0.02,0.14,0.89,1162.04,-9.6,27.9
1.4,3.0,3.0,3.0,2.75,5.5,0.0,0.0,3.75,2.0,0.0,3.25,0.0,3.25,0.08,0.33,1.33,542.36,7.6,14.7,7.0,1.75,8.0,7.0,7.25,6.25,4.25,4.0,2.5,4.25,2.75,0.75,1.0,0.02,0.14,0.89,1024.81,-9.2,26.7
1.42,2.75,3.0,1.75,3.25,5.25,0.0,0.0,3.0,2.0,0.0,2.75,0.0,2.75,0.7,2.52,0.08,394.41,7.2,17.7,6.0,1.75,7.25,6.75,7.0,6.25,3.75,4.5,2.5,4.25,3.0,1.0,1.25,0.02,0.14,0.89,914.12,-7.9,22.4
1.44,2.75,3.25,2.75,3.0,5.25,0.0,0.0,3.0,1.75,0.0,3.0,0.0,2.0,1.08,1.89,1.33,317.62,8.9,22.9,5.75,1.75,7.25,6.75,7.0,6.25,3.25,5.0,2.5,5.25,3.25,1.5,1.5,0.02,0.14,0.95,840.87,-7.0,17.6
1.46,3.75,0.25,2.25,4.0,5.25,0.0,0.0,3.0,0.0,0.0,3.5,0.0,2.5,0.64,1.7,1.02,275.65,8.5,16.7,5.0,1.25,6.25,6.75,7.0,6.25,2.75,5.25,2.5,6.0,3.5,1.5,2.25,0.02,0.14,0.95,798.35,-5.2,11.3
1.48,4.25,3.5,0.0,5.25,0.0,0.0,0.0,0.0,0.0,0.0,0.0,0.0,0.0,-0.05,1.52,0.77,212.84,21.3,81.3,3.75,1.5,6.0,5.25,7.0,6.75,2.75,5.75,2.5,6.25,4.0,2.5,3.25,0.02,0.14,0.95,790.15,-3.4,2.7
1.5,0.0,0.0,0.0,0.0,0.0,0.0,0.0,5.25,2.25,1.0,0.0,0.25,0.0,0.02,1.27,1.08,132.26,-8.5,-44.9,3.75,1.5,6.0,5.25,7.0,6.75,2.5,6.5,2.75,6.75,4.75,3.0,3.75,0.02,0.14,0.95,815.31,-3.0,-1.5
1.52,3.75,3.25,4.25,4.5,5.25,1.0,0.0,3.75,2.5,1.25,0.0,0.0,0.0,0.39,1.2,1.2,176.72,10.4,40.6,3.75,1.25,4.5,5.25,7.0,6.75,2.0,6.75,2.75,7.5,5.0,3.5,5.0,0.02,0.14,0.95,850.75,-1.3,-8.1
1.54,4.0,3.25,3.75,4.5,5.25,1.0,0.0,3.75,2.5,1.25,4.5,0.0,2.75,0.27,1.02,1.45,256.35,8.4,15.7,3.75,1.25,4.25,5.0,7.0,6.75,2.0,7.25,2.5,7.5,5.25,4.25,5.5,0.08,0.14,0.95,890.91,-0.9,-11.2
1.56,3.75,3.25,3.75,4.0,5.25,1.0,0.0,3.75,2.25,1.25,4.0,0.0,2.5,0.08,0.89,1.52,346.37,8.2,17.1,2.75,1.0,4.0,5.0,7.0,7.25,1.75,7.5,2.5,8.0,5.0,4.25,5.75,0.08,0.14,0.95,916.83,0.2,-14.1
1.58,3.5,3.0,3.5,3.75,5.5,1.0,0.0,3.75,2.25,1.0,4.0,0.0,3.0,0.02,0.83,1.58,423.69,7.5,14.4,2.25,1.0,4.0,5.0,7.0,7.0,1.5,7.5,2.5,8.25,5.5,4.25,5.0,0.08,0.14,0.95,928.8,0.3,-14.7
1.6,0.0,0.0,3.5,0.0,4.5,0.0,3.25,0.0,4.0,1.0,0.0,0.0,0.0,-0.11,0.58,1.58,372.28,13.2,20.4,2.0,1.0,3.5,5.0,7.0,7.0,1.5,7.5,2.25,8.25,5.0,4.25,6.0,0.08,0.14,0.95,926.33,1.1,-16.9
1.62,3.75,3.25,0.0,3.75,0.0,0.25,0.0,0.0,2.25,1.0,0.0,0.0,0.0,-0.3,0.27,1.52,301.9,16.7,52.5,2.0,0.75,2.75,3.75,6.25,7.0,1.5,7.5,2.0,8.25,4.75,4.25,6.25,0.08,0.14,0.95,896.45,2.3,-21.3
1.64,3.75,3.25,0.0,4.0,0.0,0.5,0.0,0.0,2.25,0.75,5.0,0.0,2.75,-0.42,0.08,1.45,272.34,11.5,5.1,2.0,0.0,2.75,2.5,5.5,6.75,1.5,7.75,1.75,8.5,5.25,4.25,6.5,0.08,0.14,0.95,849.03,3.0,-27.5
1.66,3.75,3.25,3.75,4.25,5.25,0.25,0.0,3.75,2.0,0.75,4.0,0.0,2.5,-0.48,-0.05,1.39,321.64,9.2,18.8,2.0,0.0,1.75,1.25,5.5,6.75,1.0,8.0,1.75,8.75,5.0,4.5,7.0,0.08,0.14,0.95,801.78,4.7,-32.8
1.68,4.0,3.0,3.75,4.0,5.25,0.25,0.0,3.75,1.75,0.75,4.0,0.0,3.0,-0.48,-0.11,1.2,386.71,9.0,16.9,1.25,0.75,1.0,1.25,5.25,6.75,1.0,8.0,1.75,9.25,5.25,4.75,7.75,0.08,0.14,0.95,776.23,5.7,-36.5
1.7,3.75,3.25,3.75,3.5,5.5,0.25,0.0,3.75,1.75,0.75,4.0,0.0,2.75,-0.55,-0.17,1.02,461.9,8.8,17.6,1.0,1.0,1.0,2.5,5.0,6.5,0.25,8.0,1.25,9.25,5.0,5.25,7.75,0.02,0.14,0.95,766.39,5.5,-35.8
1.72,3.75,3.5,3.75,2.75,5.5,0.5,0.0,3.5,1.75,0.5,3.5,0.0,2.5,-0.67,-0.17,0.95,489.9,8.9,21.0,1.25,1.0,1.0,1.25,3.25,6.25,0.0,7.75,1.25,9.25,4.75,5.25,8.0,0.08,0.14,0.95,746.7,6.1,-41.8
1.74,3.75,3.25,3.75,1.75,5.5,0.25,0.0,3.5,1.75,0.5,4.0,0.0,2.5,-0.8,-0.23,0.89,472.4,8.8,17.5,1.25,0.75,1.0,2.0,3.75,5.75,0.0,8.0,1.25,9.0,3.25,5.25,8.5,0.02,0.14,1.02,725.95,6.2,-40.2
1.76,4.0,3.25,3.5,2.5,5.5,0.25,0.0,3.75,1.75,0.25,4.0,0.0,2.75,-0.86,-0.36,0.83,443.73,8.8,18.0,1.25,0.75,1.0,1.5,3.5,5.0,0.0,7.25,1.25,8.75,3.25,4.25,8.5,0.02,0.14,1.14,687.38,6.3,-41.3
1.78,4.0,3.25,3.75,2.75,5.5,0.25,0.0,3.75,1.75,1.0,4.0,0.0,2.5,-0.86,-0.48,0.83,451.04,8.7,17.5,1.5,0.5,1.0,1.25,3.5,4.0,0.0,6.75,1.0,7.75,3.0,4.25,8.5,0.14,0.27,1.39,639.62,5.8,-42.7
1.8,4.0,3.5,3.5,3.0,5.25,0.75,0.0,3.75,1.75,0.5,4.0,0.0,2.5,-0.8,-0.61,0.77,470.41,8.6,19.4,1.25,0.75,1.0,0.0,3.0,3.0,0.0,5.0,0.75,6.25,1.75,2.5,7.0,0.27,0.33,1.77,537.18,6.6,-41.3
1.82,3.75,3.0,3.5,3.25,5.5,0.75,0.5,4.5,1.5,1.0,4.0,0.0,2.5,-0.8,-0.8,0.77,491.72,7.6,16.1,1.25,0.75,1.0,0.25,0.0,2.75,0.0,3.5,1.0,5.0,0.5,1.5,7.0,0.2,0.33,1.77,416.28,6.9,-48.4
1.84,3.5,3.25,3.75,2.5,5.25,1.0,0.0,3.75,1.5,0.5,4.0,0.0,2.5,-0.86,-0.92,0.7,498.31,8.1,17.9,1.25,0.75,1.0,0.0,1.25,1.0,0.0,2.5,1.25,4.0,0.5,0.75,5.0,-0.11,0.52,1.45,307.9,4.3,-39.4
1.86,3.75,3.0,2.75,2.25,5.0,0.0,0.0,3.0,0.0,0.25,3.0,0.0,0.0,-1.55,-2.42,0.2,433.71,11.3,38.4,1.0,0.0,1.0,0.0,1.75,0.0,0.0,2.25,0.75,0.0,0.75,0.0,2.5,-0.42,0.58,1.2,209.23,-0.8,-18.5
1.88,6.5,4.25,3.25,5.5,5.0,0.0,0.0,3.75,1.75,0.0,4.0,0.0,2.75,-0.86,-2.11,2.02,446.98,11.6,28.2,0.0,0.0,0.0,0.0,0.0,0.5,0.0,0.75,0.75,0.25,0.0,0.0,0.5,-0.23,2.77,-0.55,88.36,9.2,-42.9
1.9,7.5,3.5,5.0,6.25,7.25,0.0,0.0,3.75,1.0,0.0,4.0,0.0,2.5,-1.61,1.52,2.02,495.73,12.6,34.0,0.0,0.0,0.0,0.0,0.0,0.5,0.0,0.75,0.75,1.0,0.0,0.0,0.0,-0.67,1.58,0.95,0.0,10.1,-39.5
1.92,9.25,4.5,6.5,11.0,7.5,0.0,0.0,2.5,1.25,0.0,2.0,0.0,2.0,-0.11,0.33,1.45,620.43,15.7,48.5,0.0,0.0,0.0,0.0,0.0,0.25,0.0,0.75,0.75,0.75,0.75,0.0,0.0,-0.42,1.45,0.77,0.0,4.0,-50.3
1.94,10.5,6.0,9.0,14.5,8.75,4.25,0.0,2.75,1.5,0.75,2.75,0.0,2.75,-0.11,0.2,1.89,845.93,13.2,45.5,0.0,0.0,0.0,0.0,0.0,0.0,0.0,0.75,0.75,1.0,0.0,0.0,0.0,-0.36,1.39,0.89,0.0,7.7,-53.4
1.96,11.0,0.0,10.5,14.5,8.5,5.5,3.25,3.0,1.5,0.0,2.0,0.0,2.5,-0.3,0.2,1.64,1027.27,14.3,43.4,0.0,0.0,0.0,0.0,0.0,0.0,0.0,0.5,0.75,1.0,0.0,0.0,0.0,-0.8,1.2,1.2,0.0,6.7,-55.1
1.98,11.5,5.75,11.5,16.0,12.5,7.25,7.5,4.75,4.5,2.25,4.75,1.0,3.5,0.14,0.02,1.64,1367.23,11.5,33.6,0.0,0.0,0.0,0.0,0.25,0.0,0.0,0.75,0.75,0.75,0.0,0.0,0.0,-0.92,1.02,1.64,0.0,6.4,-39.0
2.0,11.0,6.0,12.5,16.0,14.5,7.5,8.0,5.75,5.5,2.5,5.75,1.0,3.75,-0.05,0.08,1.2,1607.97,10.9,31.0,0.0,0.0,0.0,0.0,0.25,0.0,0.0,0.75,0.75,0.75,0.0,0.0,0.0,-0.8,0.95,1.64,0.0,6.4,-39.0
2.02,11.0,5.75,12.5,16.0,15.0,7.5,8.5,6.5,5.5,2.5,6.25,1.0,3.75,-0.05,0.02,1.08,1823.7,10.7,29.9,0.0,0.0,0.0,0.0,0.25,0.0,0.0,0.5,0.75,0.75,0.25,0.0,0.0,-0.61,0.77,1.77,0.0,3.7,-42.5
2.04,10.5,5.75,12.0,16.0,14.0,7.0,8.75,6.0,5.25,2.5,4.5,1.0,3.25,-0.05,0.08,0.95,1907.84,11.0,32.3,0.0,0.0,0.0,0.0,0.0,0.0,0.0,0.5,0.75,0.75,0.0,0.0,0.0,-0.23,0.33,1.7,0.0,5.6,-52.5
2.06,10.5,5.25,11.5,14.5,13.5,7.0,8.5,5.75,5.25,2.5,4.5,1.0,3.0,-0.05,0.14,0.89,1915.77,11.0,31.8,0.0,0.0,0.0,0.0,0.0,0.0,0.0,0.5,0.75,0.75,0.25,0.0,0.0,-0.05,0.2,1.52,0.0,3.8,-55.0
2.08,9.5,4.75,11.0,14.0,13.5,6.75,7.75,6.0,5.0,2.5,4.75,1.0,3.25,-0.05,0.08,0.95,1855.55,10.4,29.7,0.0,0.0,0.0,0.0,0.0,0.0,0.0,0.5,0.75,0.75,0.0,0.0,0.0,0.14,0.02,1.45,11.74,5.6,-52.5
2.1,8.5,4.5,10.5,12.0,12.0,6.25,7.0,5.75,4.75,2.5,5.75,1.0,3.5,-0.05,0.08,0.95,1751.25,10.1,26.0,0.0,0.0,0.0,0.0,0.0,0.0,0.0,0.5,0.75,0.75,0.0,0.0,0.0,0.2,-0.23,1.27,25.17,5.6,-52.5
2.12,7.5,4.5,9.25,11.0,10.0,5.75,5.25,5.75,4.75,2.5,4.75,1.0,3.75,-0.05,0.08,0.95,1602.84,9.5,24.0,0.0,0.0,0.0,0.0,0.0,0.0,0.0,0.5,0.75,0.75,0.0,0.0,0.0,0.33,-0.42,1.14,30.9,5.6,-52.5
2.14,6.5,4.5,7.5,8.5,10.5,5.5,3.25,5.75,4.5,3.25,5.5,2.0,4.25,-0.05,0.08,0.95,1454.65,7.4,16.3,0.0,0.0,0.0,0.0,0.0,0.0,0.0,0.5,0.75,0.75,0.0,0.0,0.0,0.52,-0.61,0.89,30.63,5.6,-52.5
2.16,5.25,4.25,6.0,7.0,9.0,5.5,3.0,6.0,4.5,4.5,5.75,2.5,4.5,-0.11,0.08,0.95,1301.73,5.6,8.0,0.0,0.0,0.0,0.0,0.0,0.0,0.0,0.5,0.75,0.75,0.0,0.0,0.0,0.83,-0.86,0.58,30.63,5.6,-52.5
2.18,4.75,4.0,5.75,0.0,9.0,5.5,0.5,6.25,4.5,4.75,6.25,4.25,5.5,-0.05,0.08,0.95,1087.03,3.0,-6.0,0.0,0.0,0.0,0.0,0.0,0.0,0.0,0.5,0.75,0.75,0.0,0.0,0.0,0.83,-0.73,0.7,31.37,5.6,-52.5
2.2,4.0,4.5,5.25,6.0,7.75,5.5,0.5,6.5,4.5,6.0,6.75,4.75,6.25,-0.11,0.08,0.95,1000.43,3.4,-5.9,0.0,0.0,0.0,0.0,0.0,0.0,0.0,0.5,0.75,0.75,0.0,0.0,0.0,0.7,-0.55,1.02,31.6,5.6,-52.5
2.22,3.75,4.0,5.0,5.75,7.75,5.5,0.0,6.75,4.25,6.25,7.0,5.75,7.25,-0.11,0.08,0.95,944.31,2.6,-11.1,1.25,0.5,0.0,0.25,0.0,0.5,0.0,0.25,1.25,1.5,0.0,0.0,0.0,0.64,-0.3,0.89,50.15,-5.2,4.7
2.24,4.25,4.0,3.0,5.0,7.5,5.5,0.0,7.25,4.25,7.5,7.5,6.5,8.25,-0.11,0.08,0.95,964.07,1.1,-17.7,0.0,0.0,0.0,0.0,0.0,0.0,0.0,0.5,0.75,0.75,0.0,0.0,0.0,0.58,-0.3,0.83,49.07,5.6,-52.5
2.26,3.0,3.75,3.75,3.5,7.5,5.5,0.0,7.5,4.25,8.0,8.0,7.25,9.0,-0.11,0.08,0.95,992.08,0.4,-23.6,0.0,0.0,0.0,0.0,0.0,0.0,0.0,0.5,0.75,0.75,0.0,0.0,0.0,0.45,-0.36,0.77,48.07,5.6,-52.5
2.28,3.0,4.0,3.0,4.25,7.5,5.25,0.0,8.0,4.0,8.75,8.25,7.75,10.0,-0.11,0.08,0.95,1046.77,0.0,-25.9,0.0,0.0,0.0,0.25,0.0,0.0,0.0,0.5,0.75,0.5,0.0,0.0,0.0,0.33,-0.48,0.77,40.08,1.3,-35.2
2.3,3.0,4.25,3.0,5.0,7.5,5.25,0.0,8.0,3.75,9.0,8.5,8.5,10.5,-0.11,0.08,0.95,1104.82,0.0,-26.3,0.0,0.0,0.0,0.25,0.0,0.0,0.0,0.5,0.75,0.5,0.0,0.0,0.0,0.33,-1.48,1.89,35.61,1.3,-35.2
2.32,3.5,3.75,3.0,5.0,7.25,4.5,0.0,8.25,3.25,9.25,8.5,8.5,11.5,-0.11,0.08,0.95,1163.27,0.0,-28.5,2.25,1.0,0.0,2.75,0.0,0.0,0.0,0.75,1.0,2.25,0.5,0.0,0.25,0.58,-1.86,1.08,80.12,-9.4,16.0
2.34,4.0,3.75,3.0,4.75,7.25,4.25,0.0,8.5,3.25,9.25,8.25,8.5,10.0,-0.11,0.08,0.95,1203.77,0.4,-26.4,3.0,0.0,2.75,5.0,3.75,0.0,0.0,1.0,1.0,2.25,0.0,0.0,0.0,-0.23,0.39,2.58,168.32,-12.4,37.8
2.36,2.75,3.0,3.25,2.5,7.25,3.5,0.0,8.5,2.75,9.0,8.0,8.0,11.5,-0.11,0.08,0.95,1200.51,-0.8,-33.7,4.75,1.0,4.75,8.75,7.0,5.5,0.0,0.75,0.75,2.5,0.75,0.0,0.0,0.27,0.2,1.45,315.88,-8.8,44.6
2.38,2.75,3.0,3.0,5.0,7.25,2.25,0.0,8.5,2.5,8.75,8.0,7.25,10.5,-0.17,0.08,0.95,1167.65,0.1,-29.7,5.5,1.5,6.0,8.75,8.5,6.25,2.75,0.0,2.5,4.25,0.75,1.25,0.0,0.14,0.2,1.33,526.5,-9.4,35.9
2.4,3.0,3.5,3.0,5.0,5.25,3.5,0.0,7.75,2.5,9.0,6.75,7.0,10.0,-0.17,0.08,1.02,1111.03,0.0,-28.3,5.75,1.75,7.25,8.75,8.5,6.5,6.0,5.5,4.5,6.25,4.75,4.25,3.25,0.02,0.33,1.08,875.37,-6.7,6.6
2.42,3.75,3.75,3.75,4.75,5.5,2.25,0.0,8.25,2.25,0.0,7.0,6.5,11.5,-0.17,0.02,1.02,1018.27,3.1,-21.0,5.75,1.75,8.25,8.75,8.0,6.75,6.5,6.25,4.5,6.25,6.75,4.25,5.0,-0.05,-0.11,1.08,1204.89,-6.6,1.8
2.44,4.0,3.5,3.0,3.75,5.25,2.0,0.0,8.0,2.25,9.75,6.75,7.25,12.0,-0.23,0.02,1.08,995.42,0.0,-32.8,5.75,1.75,8.25,9.0,8.5,6.75,7.0,5.75,4.25,6.0,5.75,3.5,4.75,0.02,0.08,0.95,1407.47,-6.8,5.7
2.46,3.25,3.5,3.0,3.75,5.5,1.25,0.0,7.5,2.5,9.75,6.75,7.0,12.0,-0.36,-0.05,1.02,987.22,0.0,-34.2,5.75,1.75,8.75,9.25,8.5,6.75,7.0,5.75,3.75,6.0,4.25,3.0,3.5,0.08,0.14,0.95,1477.14,-7.3,11.1
2.48,3.25,3.5,3.0,3.75,5.0,1.0,0.0,7.25,2.5,8.75,6.75,7.0,12.0,-0.48,0.02,1.08,987.58,0.4,-34.6,5.75,1.75,9.0,8.75,8.5,6.25,7.0,5.25,3.75,5.5,4.75,3.0,3.25,0.02,0.14,0.95,1488.04,-8.0,11.6
2.5,3.75,3.25,3.0,3.25,5.0,1.75,0.0,6.75,2.5,8.75,6.25,6.5,12.0,-0.48,-0.05,1.08,968.9,0.2,-33.2,5.75,1.5,9.0,8.75,8.0,6.25,7.0,5.0,3.75,5.5,4.0,3.0,3.25,-0.05,0.14,0.95,1451.98,-8.2,12.0
2.52,3.5,3.25,3.0,3.75,5.5,0.5,0.0,6.5,1.75,7.25,6.0,6.0,9.25,-0.48,-0.05,1.27,902.28,1.6,-27.6,5.25,1.25,8.75,8.5,7.0,6.0,6.75,5.0,3.5,5.5,3.25,3.0,3.25,0.02,0.14,0.95,1385.77,-8.0,11.0
2.54,2.5,2.75,3.0,5.0,5.5,1.0,0.0,5.75,2.25,6.5,6.0,4.0,9.5,-0.48,-0.05,1.2,826.15,1.3,-25.0,5.25,1.0,8.5,7.5,7.0,5.75,6.5,5.0,3.25,5.25,3.5,3.0,3.25,0.02,0.14,0.95,1306.48,-7.9,9.7
2.56,3.5,3.75,3.0,4.25,5.75,0.75,0.0,4.75,2.25,4.75,5.75,2.0,8.25,-0.67,0.08,1.64,744.55,3.0,-13.4,4.5,1.0,8.25,7.0,7.0,5.25,6.5,4.5,3.25,5.25,4.25,3.0,3.25,0.02,0.14,0.95,1180.43,-7.8,7.3
2.58,3.25,3.5,3.0,1.75,5.25,0.75,0.0,4.75,2.25,2.5,5.0,0.0,6.5,-0.48,0.27,1.83,634.32,3.4,-6.6,4.0,1.0,8.25,6.75,6.5,5.25,6.0,4.5,3.25,5.5,4.5,3.0,3.0,0.02,0.14,0.95,1062.75,-7.6,5.6
2.6,2.75,3.0,2.25,2.75,5.0,0.0,0.0,3.75,1.75,0.5,3.75,0.0,4.5,-0.11,0.39,0.52,503.75,5.6,4.6,3.75,1.0,8.0,6.75,5.75,5.25,6.0,4.75,3.25,6.0,5.0,3.0,3.5,0.02,0.14,0.95,969.13,-7.1,1.8
2.62,0.5,3.0,1.5,2.5,4.75,0.0,0.0,2.75,1.5,0.0,3.75,0.0,2.75,0.02,2.02,0.02,374.16,4.7,5.9,3.75,1.0,7.25,5.25,5.5,5.25,5.5,5.0,3.25,6.25,4.25,4.25,4.75,0.02,0.14,0.95,904.21,-5.7,-5.0
2.64,0.0,0.0,4.0,0.0,5.25,0.0,0.0,3.0,0.0,0.0,4.5,0.0,0.0,1.14,1.64,1.33,272.6,7.6,7.4,3.75,1.0,7.25,5.25,5.5,5.25,5.0,5.0,3.25,6.75,4.75,4.75,5.5,0.02,0.14,0.95,872.65,-5.2,-8.5
2.66,0.0,0.0,1.0,2.75,4.75,0.5,0.0,3.0,2.0,0.5,3.5,0.25,10.5,0.7,1.58,0.89,252.05,-2.7,-38.9,3.75,1.0,6.25,5.0,5.5,5.5,4.5,5.5,3.25,7.25,5.75,5.25,6.0,0.02,0.14,0.95,881.02,-4.0,-13.3
2.68,3.75,3.25,1.5,3.5,0.0,0.0,0.0,0.0,2.5,0.5,0.0,0.75,3.0,-0.17,1.39,1.08,212.92,14.5,22.6,3.0,1.0,6.0,5.0,5.5,5.25,4.5,5.75,3.25,7.5,5.5,6.0,7.0,0.02,0.08,0.95,905.49,-3.2,-17.8
2.7,3.75,3.25,3.25,3.25,0.0,0.0,0.0,0.0,2.25,1.0,3.75,0.75,2.75,0.02,1.08,1.2,224.87,15.3,10.2,2.5,1.0,6.0,4.5,5.5,5.25,4.25,6.0,3.25,8.25,6.5,6.0,7.5,0.02,0.14,0.95,934.02,-2.5,-21.7
2.72,3.75,3.0,3.5,3.75,5.75,0.0,0.0,3.75,2.0,1.0,4.5,0.5,2.75,0.14,0.83,1.33,275.37,8.6,13.0,2.5,1.0,4.5,3.75,5.25,5.25,3.75,6.0,3.25,8.25,6.75,6.5,8.0,0.02,0.08,0.95,942.64,-1.3,-26.8
2.74,0.0,0.0,3.25,0.0,5.25,0.0,0.0,3.75,3.5,0.0,4.0,0.25,0.0,-0.11,0.52,1.45,276.07,6.3,-3.3,2.0,0.75,4.0,2.75,5.25,5.25,3.25,6.25,3.0,8.5,7.25,6.5,8.0,0.02,0.08,0.95,939.5,-0.2,-31.2
2.76,0.0,0.0,3.25,0.0,5.75,0.0,0.0,3.75,1.25,0.0,4.0,0.0,2.5,-0.17,0.2,1.52,273.59,3.0,-9.6,2.25,0.75,4.0,2.75,5.25,5.25,2.75,6.5,2.75,8.75,6.5,6.5,8.25,0.02,0.08,0.95,930.79,0.0,-31.0
2.78,3.75,3.0,6.0,4.5,5.25,0.0,0.0,3.75,2.25,0.0,4.25,0.0,2.75,-0.17,0.08,1.39,325.75,11.7,21.1,2.0,1.0,3.5,2.75,5.25,5.0,2.5,6.5,2.75,9.0,7.0,6.75,8.5,0.02,0.08,0.95,929.62,0.4,-33.2
2.8,4.5,3.25,3.0,2.75,5.25,1.75,0.0,3.75,1.75,0.0,4.0,0.0,2.75,-0.3,-0.05,1.33,382.74,7.7,19.8,1.5,0.75,3.0,2.5,5.0,4.5,2.0,6.75,2.5,9.25,7.25,7.5,8.75,0.02,0.08,0.95,930.42,1.2,-38.8
2.82,2.25,2.25,0.0,2.75,5.0,0.0,0.0,3.0,1.75,0.0,3.25,0.0,2.25,-0.36,-0.17,1.27,386.46,4.5,10.1,1.25,0.75,2.75,2.5,4.25,4.0,1.75,6.75,2.5,9.25,7.25,7.5,8.75,0.02,0.08,0.95,923.37,1.3,-41.8
2.84,3.75,3.0,2.75,4.0,4.75,0.25,0.0,3.75,2.0,0.0,4.0,0.0,2.5,-0.36,-0.36,1.14,415.74,9.0,18.0,1.25,1.0,2.25,2.5,3.75,3.75,1.75,6.5,2.5,9.25,7.0,7.5,9.0,0.02,0.08,0.95,907.1,1.6,-43.5
2.86,2.0,3.25,2.75,4.0,5.25,0.0,0.0,3.0,2.0,0.0,3.5,0.0,2.5,-0.55,-0.67,0.89,416.0,8.3,17.9,1.5,0.75,1.75,2.5,3.5,3.75,1.5,6.5,2.5,9.25,7.0,7.25,9.0,0.02,0.08,0.95,883.83,1.9,-44.9
2.88,3.5,3.25,2.75,3.25,5.0,0.0,0.0,3.5,2.0,0.5,4.0,0.0,2.5,-0.73,-0.8,0.83,423.12,8.6,16.3,1.5,1.0,1.5,2.5,3.25,3.25,1.5,6.5,2.0,9.0,6.75,6.75,8.75,0.02,0.14,0.95,845.87,2.0,-44.8
2.9,3.5,3.25,3.0,3.75,5.5,0.0,0.0,3.75,2.0,0.75,4.0,0.0,2.75,-0.8,-0.8,0.83,434.2,8.2,15.8,1.25,1.0,1.25,2.5,3.5,3.0,1.0,6.25,1.75,9.0,6.5,6.75,8.75,0.02,0.14,0.95,809.18,2.5,-46.0
2.92,3.75,3.0,3.5,3.75,5.25,0.25,0.0,3.75,1.75,0.0,4.0,0.0,2.75,-0.73,-0.55,1.02,462.28,9.2,18.8,0.0,0.75,1.0,0.25,2.5,2.25,0.5,5.5,1.5,8.0,5.0,6.0,8.0,0.02,0.14,1.02,717.63,4.9,-58.3
2.94,3.5,3.25,3.5,3.75,5.5,0.0,0.0,3.75,2.0,0.0,4.0,0.0,2.5,-0.61,-0.23,1.02,462.92,9.4,19.6,3.0,1.0,2.0,1.5,4.25,2.75,1.0,5.25,1.5,8.0,4.5,6.0,7.75,-0.05,0.14,1.08,673.97,0.9,-36.4
2.96,3.5,3.25,3.75,2.5,5.5,0.0,0.0,3.75,1.75,0.5,4.0,0.0,2.5,-0.67,0.08,1.02,457.34,8.9,17.3,1.25,0.25,0.0,1.25,1.5,2.0,0.0,3.75,1.25,5.5,3.75,3.25,7.75,-0.05,0.2,1.27,551.18,4.9,-54.9
2.98,3.75,3.25,3.75,3.0,5.5,0.0,0.0,3.75,1.75,0.0,4.0,0.0,2.75,-0.42,0.27,1.14,466.93,9.4,19.0,0.0,0.0,0.0,0.0,0.25,0.5,0.0,2.0,1.0,3.5,1.5,1.5,5.0,0.14,0.45,2.14,382.35,8.4,-77.4
3.0,3.75,3.25,3.5,4.5,5.5,0.0,0.0,3.75,1.75,0.0,4.0,0.0,2.5,-0.23,0.45,0.89,462.86,9.7,21.5,0.25,0.0,0.0,0.25,1.5,0.0,0.0,2.25,1.25,2.75,2.0,1.0,3.0,0.2,0.64,1.89,258.78,4.9,-55.6
3.02,2.25,3.0,4.0,2.75,5.5,0.0,0.0,3.0,1.25,0.0,3.5,0.0,2.0,-0.05,0.64,0.33,429.67,9.6,22.1,0.0,0.0,0.0,0.0,0.25,0.0,0.0,0.75,1.0,2.0,0.75,0.0,1.0,-0.36,2.14,-0.05,131.25,6.7,-64.1
3.04,3.0,0.0,4.25,0.0,5.5,0.0,0.0,3.75,3.25,0.0,4.0,0.0,2.75,-1.36,-0.36,0.64,403.36,8.2,0.3,0.0,0.0,0.0,0.0,0.0,0.0,0.0,0.75,1.0,1.25,0.75,0.0,0.0,-0.36,2.2,0.27,19.09,3.3,-58.2
3.06,4.75,3.0,4.5,5.25,5.25,0.0,0.0,5.5,1.0,0.0,4.5,0.0,2.25,-1.55,-2.86,1.77,435.59,10.3,22.5,0.5,0.0,0.0,0.0,0.25,0.0,0.0,0.75,1.0,1.0,0.75,0.0,0.0,-0.92,1.45,0.89,0.0,-1.6,-32.3
3.08,0.0,3.75,5.75,7.25,7.75,4.0,0.0,3.75,1.5,0.0,4.0,0.0,2.75,-3.17,-2.61,1.58,494.89,5.9,23.4,0.0,0.0,0.0,0.0,0.0,0.0,0.0,0.75,1.0,0.75,0.5,0.0,0.0,-1.11,1.14,1.33,0.0,2.3,-53.9
3.1,6.25,4.5,8.0,9.25,8.5,6.75,2.25,4.5,4.75,3.5,4.75,0.75,3.0,-0.17,0.45,1.08,731.76,8.1,22.1,0.25,0.0,0.0,0.0,0.0,0.0,0.0,0.75,1.0,1.0,0.75,0.0,0.0,-0.8,1.2,0.89,0.0,0.0,-47.2
3.12,6.75,4.5,8.5,11.5,11.0,7.25,5.5,7.0,6.25,5.0,6.75,3.0,5.5,-0.17,0.14,1.2,1103.54,6.9,11.0,0.0,0.0,0.0,0.0,0.0,0.0,0.0,0.75,1.0,0.75,0.25,0.0,0.0,-0.61,1.14,0.95,0.0,3.5,-52.0
3.14,7.75,4.5,9.0,11.0,11.5,7.75,6.25,7.5,6.0,5.0,7.75,2.5,5.5,0.02,-0.05,1.14,1437.97,7.1,12.0,0.0,0.0,0.0,0.0,0.0,0.0,0.0,0.75,1.0,0.75,0.25,0.0,0.0,-0.48,0.77,1.2,0.0,3.5,-52.0
3.16,7.75,4.5,9.0,13.0,13.0,8.25,6.0,7.5,5.25,4.75,6.25,1.25,5.25,-0.05,0.02,1.02,1635.22,6.9,18.0,0.25,0.0,0.0,0.0,0.0,0.0,0.0,0.5,0.75,0.75,0.0,0.0,0.0,-0.3,0.52,1.27,0.0,1.3,-36.7
3.18,8.0,4.5,9.0,13.0,13.5,8.25,5.5,7.0,4.75,3.0,5.0,1.0,4.75,-0.11,0.08,0.95,1721.49,7.5,23.4,0.0,0.0,0.0,0.0,0.0,0.0,0.0,0.75,0.75,0.75,0.0,0.0,0.0,-0.17,0.27,1.27,0.0,6.8,-51.0
3.2,8.25,4.5,9.0,13.0,13.5,8.0,5.0,6.75,4.25,1.75,4.75,1.0,4.25,-0.11,0.08,0.95,1728.63,8.1,26.7,0.0,0.0,0.0,0.0,0.0,0.0,0.0,0.5,1.0,0.75,0.25,0.0,0.0,-0.11,0.14,1.2,0.0,2.2,-53.4
3.22,8.75,4.5,9.25,13.0,13.5,7.75,4.25,6.0,4.0,2.5,5.0,0.75,3.25,-0.05,0.08,0.95,1697.13,8.6,28.9,0.0,0.0,0.0,0.0,0.0,0.0,0.0,0.5,0.75,0.75,0.25,0.0,0.0,0.02,0.02,1.14,10.71,3.8,-55.0
3.24,8.5,4.5,9.75,13.0,13.5,7.0,3.25,2.25,3.25,0.0,4.75,0.0,2.75,-0.05,0.08,0.95,1617.29,11.1,39.3,0.5,0.0,0.0,0.0,0.0,0.0,0.0,0.5,0.75,0.75,0.0,0.0,0.0,0.08,-0.17,1.08,21.05,-2.1,-23.9
3.26,9.75,4.75,9.0,11.0,10.5,7.0,3.0,3.75,2.0,0.0,3.75,0.0,1.75,-0.05,0.08,0.95,1501.61,11.5,42.7,0.0,0.0,0.0,0.0,0.0,0.0,0.0,0.5,0.75,0.75,0.0,0.0,0.0,0.2,-0.3,0.95,29.51,5.6,-52.5
3.28,9.5,4.75,9.75,13.0,11.5,6.75,3.75,5.5,2.5,0.75,0.0,0.0,0.0,-0.05,0.14,0.95,1397.8,11.6,49.8,0.0,0.0,0.0,0.0,0.0,0.0,0.0,0.5,0.75,0.75,0.25,0.0,0.0,0.33,-0.42,0.77,31.9,3.8,-55.0
3.3,9.75,4.0,9.75,13.0,11.5,6.75,3.0,5.0,2.5,0.0,3.0,0.0,0.75,-0.05,0.14,0.89,1314.78,11.7,44.4,0.0,0.0,0.0,0.0,0.0,0.0,0.0,0.5,0.75,0.75,0.0,0.0,0.0,0.39,-0.42,0.7,30.74,5.6,-52.5
3.32,9.0,4.5,9.75,11.5,11.5,6.25,3.0,5.0,2.0,0.0,3.75,0.0,1.5,-0.05,0.14,0.89,1234.09,11.3,41.6,0.0,0.0,0.0,0.0,0.0,0.0,0.0,0.5,0.75,0.75,0.0,0.0,0.0,0.39,-0.3,0.64,31.18,5.6,-52.5
3.34,9.5,4.25,9.75,11.0,9.25,6.5,2.5,4.75,0.0,0.0,0.0,0.0,0.5,-0.05,0.14,0.89,1093.82,12.4,54.2,0.0,0.0,0.0,0.0,0.0,0.0,0.0,0.75,0.75,0.5,0.25,0.0,0.0,0.27,-0.17,0.7,31.85,3.9,-50.9
3.36,10.5,4.5,9.0,13.0,9.75,6.75,3.0,4.75,2.5,1.75,0.0,0.0,2.25,-0.05,0.14,0.95,1068.71,11.0,43.8,0.0,0.0,0.0,0.0,0.0,0.0,0.0,0.5,0.75,0.0,0.0,0.0,0.0,0.27,0.08,0.7,28.07,-0.5,-38.6
3.38,10.5,4.5,9.0,13.0,11.5,7.25,2.75,5.75,3.25,0.0,4.25,1.0,1.75,-0.11,0.14,0.95,1121.16,10.7,37.3,0.75,0.75,0.0,0.0,0.0,0.0,0.0,0.5,0.75,0.75,0.0,0.0,0.0,0.2,0.39,0.77,36.59,-6.6,11.6
3.4,9.5,4.5,9.0,13.0,12.5,7.75,2.75,5.75,3.25,0.0,4.75,1.0,2.5,-0.11,0.14,0.95,1221.72,9.8,34.6,0.5,0.0,0.0,0.0,0.0,0.0,0.0,0.5,1.0,0.0,0.0,0.0,0.0,0.02,0.7,0.95,35.61,-10.2,-6.0
3.42,9.5,4.5,9.0,13.0,13.5,8.0,1.75,6.25,4.0,3.75,5.0,1.0,4.0,-0.11,0.08,0.95,1352.52,7.7,26.0,0.25,0.0,0.0,0.25,0.0,0.0,0.0,0.5,0.75,0.0,0.0,0.0,0.0,-0.8,0.27,1.14,34.87,-7.6,-5.7
3.44,9.5,4.5,9.0,12.5,13.5,8.0,1.25,6.75,4.0,4.25,5.25,1.25,4.5,-0.11,0.08,0.95,1445.88,7.1,23.3,2.25,1.0,0.0,0.75,0.0,0.0,0.0,0.5,0.75,0.0,0.0,0.0,0.0,-0.67,-0.42,1.2,51.94,-19.5,59.1
3.46,8.75,4.5,8.5,11.5,13.5,8.0,0.75,6.75,4.25,4.75,5.0,2.5,4.5,-0.11,0.08,0.95,1502.75,6.4,19.6,2.0,0.0,0.75,1.75,1.0,0.25,0.0,0.5,0.75,0.0,0.0,0.0,0.0,0.08,-2.11,1.14,80.47,-16.5,50.3
3.48,8.5,4.5,8.0,10.5,12.5,8.0,0.5,7.0,4.25,5.5,5.75,2.5,4.5,-0.11,0.08,0.95,1522.1,5.9,16.3,0.25,0.0,2.75,5.0,2.25,2.25,0.0,0.5,0.75,0.0,0.0,0.0,0.0,0.77,-3.8,1.83,142.97,-10.5,46.4
3.5,7.5,4.5,6.5,8.75,12.0,7.75,0.0,7.25,4.25,6.25,6.25,2.75,5.5,-0.11,0.08,0.95,1503.43,4.2,9.6,5.0,1.75,6.0,7.75,8.0,6.25,4.0,2.25,2.75,5.25,0.75,1.5,0.5,0.83,0.2,3.02,345.43,-7.5,26.9
3.52,6.75,4.25,6.25,8.25,11.5,8.0,0.0,7.5,4.25,6.0,6.25,3.0,5.75,-0.11,0.08,0.95,1460.12,3.7,7.2,5.0,1.75,6.25,7.5,7.75,7.25,5.75,6.5,4.5,7.25,5.0,4.25,5.0,0.08,0.02,1.2,700.17,-4.4,-1.3
3.54,6.0,4.25,5.25,7.0,11.0,7.75,0.0,7.75,4.0,7.0,6.5,4.0,6.5,-0.11,0.08,0.95,1414.3,2.4,0.4,5.75,2.5,7.25,8.75,8.5,7.5,6.5,6.75,3.75,6.0,5.25,2.25,4.5,0.02,-0.11,1.14,1096.4,-5.7,8.5
3.56,5.5,4.25,5.0,6.75,9.75,7.5,0.0,7.75,3.0,7.5,6.75,4.25,6.5,-0.11,0.14,0.95,1364.94,2.0,-2.2,7.0,2.5,7.25,10.5,9.5,8.0,6.5,6.75,3.25,6.0,2.75,1.5,3.25,0.08,0.2,0.89,1367.02,-6.2,18.5
3.58,4.0,4.25,4.0,5.5,9.0,7.0,0.0,7.75,2.75,7.5,6.25,4.25,7.0,-0.11,0.14,0.95,1284.83,0.6,-7.3,7.0,2.5,7.5,10.5,9.5,8.0,6.25,6.75,3.25,6.0,3.0,1.5,3.25,0.08,0.2,0.89,1481.84,-6.3,18.3
3.6,4.25,4.0,3.0,5.25,8.25,6.5,0.0,7.75,2.5,7.5,6.25,4.25,7.25,-0.11,0.08,1.02,1160.5,0.2,-10.0,7.0,2.5,7.25,10.5,9.75,8.25,6.5,7.25,3.25,6.0,3.25,1.5,3.5,0.02,0.08,0.95,1524.91,-5.9,17.2
3.62,4.0,3.75,3.0,5.0,7.5,5.5,0.0,7.5,2.25,7.75,6.75,4.25,8.0,-0.11,0.08,1.08,1055.59,0.2,-14.2,6.25,2.5,7.25,10.5,9.75,8.25,6.0,7.25,2.75,5.75,3.25,1.0,2.75,0.08,0.14,0.95,1519.24,-5.7,19.4
3.64,3.75,3.5,1.75,4.25,7.25,3.5,0.0,7.0,2.25,7.25,6.25,4.0,8.25,-0.11,0.14,1.27,942.98,-0.1,-18.3,6.25,2.5,7.25,10.5,10.0,8.25,5.75,6.75,2.5,4.75,2.25,0.25,2.0,0.14,0.14,0.95,1487.35,-6.2,25.8
3.66,4.0,3.5,3.5,0.0,6.0,2.75,0.0,5.75,2.0,5.25,5.75,1.0,7.75,0.02,0.27,1.7,785.2,0.7,-14.5,6.0,2.75,6.25,10.0,9.75,8.25,4.75,6.5,1.75,4.25,0.25,0.25,1.5,0.08,0.14,0.95,1401.02,-5.6,31.1
3.68,4.0,3.5,2.75,1.75,6.75,2.0,0.0,4.75,1.75,2.5,4.75,0.75,6.5,-0.42,0.77,2.33,645.24,2.6,-2.8,5.5,2.5,6.0,8.75,9.5,8.25,3.75,6.0,1.25,4.0,0.25,0.0,1.25,0.02,0.14,0.89,1271.06,-5.0,32.3
3.7,3.75,3.0,3.0,2.5,6.25,1.25,0.0,4.5,1.5,1.25,4.25,0.0,0.0,-0.42,0.58,1.14,492.88,7.5,24.3,4.5,2.5,5.25,8.5,9.5,8.5,1.5,5.5,1.25,4.0,0.0,0.0,1.25,0.02,0.14,0.89,1088.5,-3.5,31.9
3.72,3.75,3.5,2.5,4.0,5.25,1.25,0.0,4.5,2.0,0.5,4.75,0.0,3.75,0.33,2.33,0.39,417.41,6.2,11.0,3.75,2.5,4.0,7.0,9.5,8.5,1.5,5.25,1.25,3.75,0.75,0.0,0.75,0.08,0.14,0.89,907.99,-2.1,30.2
3.74,3.25,3.0,4.0,1.75,6.75,0.0,0.0,2.75,1.75,0.0,2.75,0.0,2.25,0.27,2.2,-0.11,352.55,9.5,25.5,1.75,1.0,4.0,6.25,9.5,8.5,1.0,3.75,1.25,3.5,0.75,0.0,1.5,0.08,0.14,0.89,728.12,-0.4,24.9
3.76,3.75,3.0,3.0,2.75,5.5,1.0,0.0,3.0,1.5,0.25,3.5,0.0,2.25,1.08,1.77,0.89,328.39,8.4,22.2,1.25,1.0,1.5,5.0,8.5,8.25,0.5,0.0,0.75,2.25,0.0,0.0,0.0,0.08,0.14,0.89,543.77,0.8,40.6
3.78,3.25,3.0,3.0,3.0,5.25,0.0,0.0,2.75,1.5,0.0,3.75,0.0,2.75,0.58,1.58,1.02,306.2,9.2,18.8,2.25,2.25,1.25,5.25,8.5,9.0,0.5,0.0,1.25,4.25,0.75,0.0,0.75,0.08,0.14,0.89,461.05,0.7,31.1
3.8,3.25,2.5,3.0,3.0,5.25,0.25,0.0,2.75,1.5,0.0,3.25,0.0,2.25,-0.17,1.45,0.89,299.31,9.3,21.5,1.0,1.0,2.5,5.0,9.0,8.5,0.25,5.5,0.75,2.5,0.0,0.0,0.25,0.08,0.14,0.89,414.23,2.8,27.5
3.82,3.5,3.0,3.0,2.5,5.25,0.0,0.0,2.75,1.5,0.0,3.5,0.0,2.5,-0.42,1.02,0.77,299.17,9.5,20.7,1.25,1.0,2.25,5.0,9.5,8.5,0.5,6.25,1.0,4.25,0.75,0.0,0.25,0.08,0.14,0.89,434.55,3.2,20.3
3.84,3.5,3.0,3.0,3.0,5.0,0.0,0.0,2.75,1.5,0.0,3.5,0.0,2.25,-0.17,0.77,0.95,307.11,10.0,22.3,1.75,1.75,1.5,4.75,9.5,9.25,0.5,6.75,1.0,4.75,0.25,0.0,1.5,0.08,0.14,0.95,479.4,4.4,17.3
3.86,3.25,3.0,3.0,2.75,5.5,0.0,0.0,3.75,1.0,0.0,4.0,0.0,2.5,-0.05,0.52,1.14,326.7,8.3,18.2,2.25,1.75,1.5,5.0,9.5,9.75,0.5,7.5,1.0,5.25,0.75,0.0,1.0,0.14,0.14,0.95,550.82,4.2,17.0
3.88,3.0,3.0,3.75,2.75,5.0,0.0,0.0,3.0,1.0,0.0,3.25,0.0,2.25,-0.05,0.27,1.27,341.71,10.0,23.1,1.5,2.0,1.25,3.25,9.0,9.75,0.5,7.5,1.25,5.25,0.75,0.0,1.5,0.14,0.14,0.89,587.61,5.8,12.0
3.9,3.0,3.0,3.0,2.5,5.0,0.0,0.0,3.0,1.25,0.0,2.75,0.0,2.0,-0.11,0.14,1.14,349.82,9.3,24.2,2.0,1.5,1.25,2.75,8.5,9.75,0.25,8.0,1.25,6.0,0.75,0.0,1.5,0.14,0.14,0.89,612.85,6.3,8.7
3.92,3.25,3.0,3.0,3.0,5.0,0.0,0.0,3.0,1.25,0.0,3.25,0.0,2.25,-0.11,0.02,1.14,355.89,9.5,22.5,1.0,0.75,1.0,2.5,7.75,9.25,0.0,8.5,1.0,7.25,1.25,0.25,3.25,0.08,0.14,1.02,621.98,8.4,-5.4
3.94,3.0,3.0,3.0,3.0,5.0,0.0,0.0,2.75,1.5,0.0,3.25,0.0,2.0,-0.05,-0.11,1.08,360.11,9.7,23.1,0.5,0.0,1.0,0.0,5.75,8.25,0.0,8.5,1.0,7.75,0.75,0.5,4.0,0.2,0.14,1.02,585.96,11.4,-20.3
3.96,2.75,1.75,3.0,3.0,4.75,0.0,0.0,3.0,1.75,0.0,3.5,0.0,2.25,-0.61,-1.05,2.08,355.49,9.1,15.1,1.25,1.0,1.0,0.75,5.5,7.75,0.0,8.0,0.75,7.5,2.0,1.5,5.5,0.2,0.14,1.02,580.0,8.5,-21.4
3.98,3.75,3.0,3.0,2.75,4.5,1.0,0.0,4.25,1.5,0.25,4.0,0.0,4.5,-3.05,-3.67,2.33,385.17,6.3,8.2,1.0,0.75,0.75,1.25,5.25,6.75,0.0,7.5,0.75,7.25,2.0,1.5,5.75,0.2,0.08,0.89,564.82,8.4,-24.2
4.0,3.75,3.25,4.0,4.0,5.5,1.0,0.0,4.0,1.5,0.25,4.0,0.0,4.5,0.45,-2.05,-1.11,432.62,7.5,13.8,1.25,0.75,0.25,1.0,5.25,5.75,0.0,6.5,0.75,6.5,0.75,2.25,5.75,-0.11,0.14,1.14,539.55,8.6,-25.2
4.02,3.75,3.25,4.0,5.0,5.25,1.0,0.0,3.75,1.75,0.0,3.75,0.0,2.75,-0.42,-0.8,2.45,476.7,9.3,22.4,0.0,0.0,0.0,0.0,1.25,4.75,0.0,5.0,1.0,4.75,0.25,0.75,5.5,-0.36,0.33,1.33,428.6,13.8,-46.4
4.04,3.75,3.25,4.25,5.0,5.75,1.0,0.0,3.0,1.75,0.5,3.25,0.0,2.25,-0.17,-0.92,2.95,504.52,9.8,26.4,0.0,0.25,0.0,0.0,0.0,3.0,0.0,2.25,0.25,4.0,0.0,0.0,2.25,-1.73,0.77,1.45,299.95,16.0,-44.6
4.06,2.75,3.0,3.75,3.0,5.25,0.0,0.0,3.0,1.5,0.0,3.5,0.0,2.5,1.27,3.89,0.14,480.21,9.5,20.1,0.0,0.0,0.0,0.0,0.5,0.0,0.0,2.0,0.75,1.25,0.0,0.0,0.5,-1.86,2.58,1.14,175.94,10.4,-44.4
4.08,3.0,3.0,2.75,1.75,5.0,0.0,0.0,3.25,1.75,0.5,3.75,1.25,4.5,-0.67,0.95,1.64,455.98,6.4,0.6,0.0,0.0,0.0,0.25,1.25,0.0,0.0,0.75,0.75,1.0,0.0,0.0,0.0,-1.98,2.33,2.33,59.03,4.6,-9.6
4.1,2.75,3.0,3.0,2.5,5.75,0.0,0.0,3.25,2.5,1.5,3.5,0.75,4.75,-0.92,-0.48,0.14,448.24,5.7,1.2,0.0,0.0,0.0,0.0,0.0,0.0,0.0,1.0,0.25,0.0,0.0,0.0,0.0,-2.48,2.27,2.45,0.0,11.0,-38.7
4.12,2.75,3.0,2.75,3.75,5.25,0.75,0.0,4.0,2.25,2.0,3.5,0.0,4.5,-0.73,-0.11,1.45,464.92,4.8,4.2,1.25,0.75,0.0,0.0,0.0,0.0,0.0,1.5,0.75,1.0,0.0,0.0,0.0,2.52,-7.98,4.08,0.0,-3.6,5.5
4.14,3.75,3.25,4.0,3.5,5.25,1.0,0.0,3.75,2.25,0.0,4.0,0.0,4.5,-0.55,1.52,0.14,488.39,7.9,12.8,0.0,0.0,0.25,0.0,0.0,0.0,0.25,0.75,0.75,0.75,0.0,0.0,0.0,1.64,-2.67,-3.48,0.0,0.6,-36.4
4.16,3.75,3.25,4.25,3.0,5.5,1.0,0.0,3.75,1.75,0.5,4.0,0.0,3.25,-0.67,0.27,0.77,499.71,8.3,16.8,0.5,0.0,0.0,0.0,0.0,0.25,0.5,0.75,0.75,1.0,0.0,0.0,0.0,7.45,-0.8,-2.92,0.0,0.1,-21.2
4.18,3.75,3.25,4.0,2.5,5.25,0.0,0.0,3.75,1.75,0.25,4.0,0.5,3.5,-0.8,-2.86,0.08,492.38,8.9,12.8,0.0,0.0,0.0,0.0,1.25,0.25,0.5,0.75,1.25,6.0,0.0,0.75,0.0,1.33,0.7,-2.55,0.0,8.2,-48.7
4.2,3.75,3.25,3.75,3.0,5.25,1.0,0.0,3.75,1.75,0.25,4.75,2.75,5.0,1.08,0.2,0.2,505.36,7.2,0.1,1.25,1.5,1.25,0.75,3.5,1.75,1.25,3.75,2.0,8.25,5.0,0.25,8.5,-3.11,4.02,7.89,174.18,3.6,-39.0
4.22,2.5,3.0,4.75,2.5,5.25,0.0,0.0,3.75,1.25,0.25,4.75,2.75,6.5,1.02,0.83,2.45,508.21,6.8,-7.4,1.25,0.75,1.0,0.25,1.0,1.25,0.0,0.75,1.75,7.25,0.75,1.0,6.25,-0.55,-0.05,2.39,261.11,4.8,-48.7
4.24,3.75,3.25,5.0,3.25,5.25,1.0,0.0,3.75,1.5,1.75,4.5,2.5,5.5,0.27,-0.36,1.45,544.95,7.1,-0.3,0.0,0.75,1.25,0.0,1.5,0.25,0.0,2.25,1.75,8.25,0.25,1.25,8.0,0.95,-0.36,0.45,347.96,7.6,-60.8
4.26,3.75,3.25,5.0,3.0,5.25,1.0,0.0,3.75,1.75,2.25,4.5,3.0,5.5,-0.05,-0.92,0.08,580.76,6.8,-3.0,0.0,1.0,0.0,0.0,1.75,0.5,0.0,2.25,1.75,9.25,1.25,1.5,8.5,-1.67,0.7,1.77,401.03,9.2,-65.3
4.28,3.75,3.25,4.5,3.75,5.25,1.75,0.0,3.75,2.5,3.25,5.0,5.5,6.75,-0.36,-0.8,-0.17,651.58,5.4,-13.0,0.0,0.75,1.0,0.0,1.75,1.75,0.0,2.25,1.75,9.5,2.0,1.5,9.25,0.7,0.08,0.77,466.42,8.0,-60.2
4.3,2.25,3.0,3.0,2.5,4.75,0.0,0.0,3.0,1.25,2.75,4.75,6.25,7.75,-0.98,1.77,1.58,649.63,4.1,-26.8,0.0,1.0,1.0,0.0,1.75,1.75,0.0,2.5,1.25,9.25,1.5,1.5,9.0,-0.11,0.08,1.14,490.29,8.4,-58.3
4.32,2.75,3.0,3.0,2.5,5.0,0.0,0.0,3.0,1.5,4.25,5.5,6.25,8.25,0.02,0.27,1.77,658.85,3.7,-28.4,0.0,0.0,0.0,0.0,1.75,0.25,0.0,2.25,1.25,9.25,1.5,1.0,8.75,0.2,0.14,1.2,492.99,10.5,-72.8
4.34,2.75,3.0,2.75,4.75,5.0,1.0,0.0,4.75,1.5,3.75,6.0,6.25,10.0,0.02,-0.42,0.7,687.59,2.6,-26.9,0.0,0.0,1.0,1.0,1.25,1.0,0.0,2.25,1.25,9.0,0.75,0.75,8.5,0.45,0.27,1.27,477.88,8.7,-61.8
4.36,2.75,3.0,3.0,2.5,5.0,0.0,0.0,3.0,1.5,3.75,5.0,6.25,8.25,-0.73,0.14,1.7,680.5,3.8,-27.3,0.0,0.0,0.0,0.0,1.25,0.0,0.0,0.75,0.75,7.5,0.25,0.0,7.0,0.2,-0.05,0.7,396.57,12.4,-75.8
4.38,3.0,3.0,2.5,2.5,4.75,0.0,0.0,3.0,1.25,4.0,4.75,6.75,8.5,-0.55,-0.11,0.52,669.83,3.4,-29.6,0.5,0.0,0.0,0.0,1.25,0.25,0.0,0.75,0.5,7.25,0.25,0.0,7.0,0.02,-0.11,0.64,340.14,11.6,-70.4
4.4,2.75,3.0,3.0,1.75,5.0,0.0,0.0,3.25,1.25,3.75,5.0,7.25,9.25,0.89,-0.17,0.77,662.01,3.1,-32.4,0.0,0.0,0.0,0.0,1.25,0.25,0.0,0.75,0.75,6.75,0.0,0.0,6.5,1.27,-0.42,0.64,283.9,12.7,-73.2
4.42,2.75,3.0,2.75,3.0,3.75,0.0,0.0,2.75,1.5,6.25,5.75,8.0,10.0,-0.42,-0.17,0.95,687.85,2.7,-38.1,0.0,0.0,0.0,0.25,0.25,0.0,0.0,0.5,0.75,6.0,0.0,0.0,4.75,2.08,-0.73,0.58,232.92,12.3,-79.4
4.44,3.0,4.5,3.5,4.0,5.5,0.0,0.0,3.0,1.5,7.0,5.75,7.75,10.5,-0.42,-0.05,1.14,740.69,3.2,-28.3,0.0,0.0,0.0,0.0,0.25,0.25,0.0,0.5,0.75,4.75,0.0,0.0,3.5,0.52,-1.92,3.14,175.82,12.8,-76.9
4.46,3.75,4.0,3.5,2.75,5.75,2.5,0.0,4.5,2.5,7.5,6.5,8.5,12.0,-0.11,-0.23,1.02,856.47,1.4,-31.2,0.0,0.0,0.0,0.5,0.0,0.25,0.0,0.5,0.75,3.75,0.0,0.0,2.5,-0.61,-2.11,3.52,141.24,10.8,-69.1
4.48,3.25,3.0,3.0,4.25,4.75,1.0,0.0,4.5,1.75,8.75,5.75,8.25,10.5,-0.23,-0.3,1.14,918.21,1.5,-34.1,0.0,0.0,0.0,0.0,0.0,0.25,0.0,0.5,1.0,1.75,0.0,0.0,0.5,1.14,0.33,2.89,79.75,9.1,-59.7
4.5,3.75,3.25,3.5,4.25,5.25,1.0,0.0,5.25,2.5,8.75,6.0,8.25,11.0,-0.11,-0.48,0.83,981.59,1.9,-31.9,1.25,0.75,0.0,1.25,0.0,1.5,0.0,0.0,0.75,2.5,0.0,0.0,0.0,0.02,0.58,2.95,53.53,-1.3,12.3
4.52,3.75,3.5,3.0,2.75,5.25,0.0,0.0,5.5,1.75,8.75,6.25,7.75,12.0,-0.67,-0.48,0.58,996.01,1.1,-36.2,0.0,0.0,0.0,0.0,0.0,0.25,0.0,0.5,0.75,1.0,0.0,0.0,0.0,0.64,2.2,1.77,14.75,8.2,-46.6
4.54,3.75,3.25,3.75,4.5,5.75,1.0,0.0,5.75,1.5,7.5,6.25,6.75,10.0,-2.55,-1.86,0.7,998.02,2.2,-26.3,0.25,0.0,0.0,0.0,0.0,0.75,0.0,0.5,1.0,0.75,0.0,0.0,0.0,0.2,1.64,0.02,2.01,5.0,-21.1
4.56,3.75,3.5,3.75,3.75,5.25,0.0,0.0,5.75,1.25,6.0,5.75,3.0,8.75,-2.86,-2.8,1.02,913.21,2.9,-18.8,0.0,0.0,0.0,0.0,0.5,0.25,0.0,0.75,0.75,0.75,0.0,0.0,0.0,0.08,1.2,-0.36,0.0,7.4,-24.6
4.58,2.25,3.0,3.0,3.0,5.25,0.0,0.0,4.75,1.0,2.0,5.0,1.0,6.5,-1.8,-1.86,1.89,757.36,3.5,-9.9,0.0,0.0,0.0,0.0,0.0,0.0,0.0,0.5,0.75,0.75,0.0,0.0,0.0,0.39,0.95,0.02,0.0,5.6,-52.5
4.6,2.5,3.0,2.75,2.5,4.5,0.0,0.0,3.25,1.0,0.0,3.75,0.0,4.5,-0.8,0.45,2.64,577.42,6.6,6.6,0.0,0.0,0.25,0.0,0.0,0.0,0.0,0.5,0.75,0.75,0.0,0.0,0.0,1.2,0.64,0.08,0.0,0.5,-39.5
4.62,3.25,3.0,3.0,1.25,1.25,0.0,0.0,3.0,0.75,0.0,4.0,0.0,3.25,-4.36,0.02,0.95,403.06,10.2,6.1,0.0,0.0,0.0,0.0,0.0,0.0,0.0,0.5,0.5,0.75,0.0,0.0,0.0,1.58,0.27,0.2,0.0,8.1,-54.5
4.64,3.0,3.25,2.75,2.0,4.75,0.25,0.0,2.75,1.0,0.0,3.5,0.0,2.25,0.45,2.77,1.64,321.98,8.8,20.8,0.5,0.0,0.5,0.0,0.0,0.0,0.0,0.5,0.75,0.75,0.0,0.0,0.0,2.08,-0.05,0.52,3.79,-8.3,-9.2
4.66,3.5,3.25,2.75,2.75,2.5,0.0,0.0,3.0,1.0,0.0,3.25,0.0,2.25,-0.86,1.77,1.08,276.54,10.9,20.2,1.0,0.0,0.25,0.0,0.0,0.0,0.0,0.5,0.75,0.75,0.0,0.0,0.0,1.02,-0.36,0.52,17.15,-9.8,0.7
4.68,0.0,1.5,2.75,0.0,4.75,0.0,0.0,2.75,0.75,0.0,3.0,0.0,0.5,-0.48,1.39,-0.23,228.34,5.7,12.4,0.25,0.0,0.25,0.0,0.0,0.0,0.0,0.5,0.5,0.75,0.0,0.0,0.0,0.58,-0.23,0.08,24.68,-1.7,-25.3
4.7,0.0,0.0,0.0,0.0,0.0,0.0,0.0,0.0,0.0,0.0,0.0,0.0,0.0,-0.42,0.58,-0.3,106.55,0.0,0.0,0.0,0.0,0.5,0.0,0.0,0.0,0.0,0.5,0.75,0.75,0.0,0.0,0.0,0.64,-0.36,-0.23,29.98,-3.4,-29.2
4.72,0.0,0.0,0.0,0.0,0.0,0.0,0.0,0.0,2.0,0.0,0.0,0.0,0.0,-1.17,-0.11,0.39,0.0,12.1,-38.5,0.0,0.0,0.5,0.0,0.0,0.0,0.0,0.5,0.5,0.75,0.0,0.0,0.0,0.58,-0.42,-0.11,31.71,-2.4,-28.2
4.74,3.75,3.25,0.0,2.75,0.0,0.0,0.0,4.5,1.5,0.0,1.0,0.0,2.5,-1.48,-0.98,0.58,11.85,6.8,13.1,0.0,0.0,0.0,0.0,0.0,0.0,0.0,0.5,0.5,0.75,0.0,0.0,0.0,0.39,-0.55,0.58,28.21,8.1,-54.5
4.76,3.75,3.25,3.0,2.75,5.25,0.0,0.0,4.0,1.5,0.0,4.0,0.0,2.25,-1.17,-1.11,-0.11,136.98,8.9,19.4,0.25,0.0,0.0,0.0,0.0,0.0,0.0,0.5,0.5,0.75,0.0,0.0,0.0,0.27,-0.73,0.64,30.64,3.0,-36.5
4.78,2.5,3.0,3.5,1.25,5.25,0.0,0.0,3.75,1.0,0.0,4.0,0.0,1.5,-0.98,-1.42,-0.55,239.36,8.6,19.1,0.25,0.0,0.5,0.0,0.0,0.0,0.0,0.5,0.5,0.5,0.0,0.0,0.0,0.2,-0.86,0.52,31.02,-7.8,-9.7
4.8,2.25,3.0,2.75,1.5,5.0,0.0,0.0,2.75,0.75,0.0,2.5,0.0,0.5,-0.92,-1.92,-0.42,293.26,9.6,32.5,0.0,0.0,0.25,0.0,0.0,0.0,0.0,0.5,0.5,0.75,0.0,0.0,0.0,0.27,-0.92,0.45,31.22,2.1,-39.6
4.82,2.25,3.0,2.75,0.25,4.75,0.0,0.0,2.75,0.75,0.0,2.75,0.0,0.75,-0.48,-1.67,-0.11,307.93,9.0,27.6,0.0,0.0,0.25,0.0,0.0,0.0,0.0,0.5,0.75,0.75,0.0,0.0,0.0,0.39,-0.92,0.58,32.92,0.5,-39.5
4.84,2.25,3.0,2.0,1.5,4.25,0.0,0.0,2.75,0.75,0.0,2.75,0.0,0.75,-0.42,-1.17,0.39,299.42,8.8,27.6,0.25,0.0,0.5,0.0,0.0,0.0,0.0,0.5,0.5,0.75,0.0,0.0,0.0,0.39,-0.92,0.7,34.67,-5.5,-16.3
4.86,2.25,3.0,3.0,1.5,5.0,0.0,0.0,2.75,0.75,0.0,2.75,0.0,0.5,-0.36,-0.86,0.83,300.16,10.0,31.7,0.0,0.0,0.25,0.0,0.0,0.0,0.0,0.5,0.5,0.75,0.0,0.0,0.0,0.45,-0.8,0.7,33.94,2.1,-39.6
4.88,2.25,3.0,3.0,1.5,4.75,0.0,0.0,3.0,0.5,0.0,2.75,0.0,0.5,0.2,-0.42,0.83,308.09,9.8,31.4,0.75,0.75,0.25,0.25,0.0,0.5,0.0,0.5,1.0,0.75,0.0,0.0,0.0,0.45,-0.61,0.7,47.85,-6.3,16.5
4.9,2.25,3.0,3.0,1.5,4.25,0.0,0.0,3.0,0.75,0.0,3.0,0.0,0.5,0.14,-0.11,0.52,322.18,10.2,28.9,0.25,0.0,1.0,0.0,0.0,0.0,0.0,0.75,0.5,0.75,0.0,0.0,0.0,0.45,-0.48,0.64,52.79,-8.9,-5.8
4.92,2.25,3.0,2.75,1.25,4.75,0.0,0.0,2.75,0.75,0.0,2.75,0.0,2.0,-0.05,-0.11,0.39,334.48,8.1,21.3,0.0,0.0,0.25,0.0,0.0,0.0,0.0,0.5,0.5,0.75,0.0,0.0,0.0,0.45,-0.42,0.52,51.46,2.1,-39.6
4.94,2.25,3.0,3.0,1.5,4.75,0.0,0.0,2.75,0.75,0.0,2.75,0.0,1.5,-0.11,-0.23,0.52,338.69,9.1,25.1,1.25,0.5,0.25,0.0,0.0,0.5,0.0,0.75,0.75,1.0,0.0,0.0,0.0,0.45,-0.42,0.52,60.18,-5.5,13.0
4.96,2.25,3.0,3.25,3.25,3.5,0.0,0.0,3.75,0.75,0.0,4.0,0.0,2.75,-0.23,-0.23,0.45,342.76,8.6,12.9,0.75,0.0,0.5,0.0,0.0,0.0,0.0,0.75,0.75,2.5,0.75,0.0,0.0,0.45,-0.36,0.52,73.43,-1.5,-33.9
4.98,2.25,3.0,2.75,1.5,5.0,0.0,0.0,2.75,1.0,0.0,2.75,0.0,2.0,-0.48,-0.3,0.39,329.37,8.1,21.5,1.25,0.75,1.25,0.5,1.5,0.75,0.0,0.75,0.75,2.25,0.75,0.0,0.0,0.52,-0.3,0.58,112.13,-5.2,12.5
5.0,2.25,3.0,4.0,1.5,5.5,0.0,0.0,3.75,1.5,0.75,4.0,0.0,2.5,-0.67,-0.36,0.33,353.96,7.6,12.1,1.25,0.75,1.25,0.25,1.25,0.5,0.0,0.5,0.75,2.25,0.75,0.0,0.0,0.52,-0.3,0.52,137.98,-6.4,10.9
5.02,3.75,3.25,2.75,3.0,4.75,0.0,0.0,3.0,1.5,0.5,2.75,0.0,1.75,-0.8,-0.36,0.2,373.42,9.8,25.6,1.25,0.75,1.0,0.25,1.5,0.5,0.25,0.75,0.75,0.75,0.75,0.0,0.25,0.45,-0.3,0.52,155.07,-8.0,20.9
5.04,3.75,3.25,3.0,3.25,4.5,0.0,0.0,3.5,1.25,0.75,4.0,0.0,2.75,-0.86,-0.42,0.08,403.61,8.8,16.1,0.0,0.0,1.25,0.0,1.5,0.0,0.25,0.5,0.5,0.75,0.0,0.0,0.0,0.45,-0.36,0.52,138.72,-6.8,16.2
5.06,3.75,3.5,3.0,3.25,5.25,0.0,0.0,3.5,1.25,0.0,4.0,0.0,2.75,-0.92,-0.55,0.08,423.94,9.1,20.0,0.0,0.0,0.0,0.0,0.0,0.0,0.0,0.5,0.5,0.75,0.0,0.0,0.0,0.45,-0.48,0.52,103.5,8.1,-54.5
5.08,3.75,3.25,4.0,3.25,5.0,0.0,0.0,3.5,1.25,0.5,4.0,0.0,2.5,-0.98,-0.8,0.08,445.87,9.9,19.9,2.25,1.0,1.25,0.25,1.5,0.5,0.0,0.75,0.75,2.25,0.75,0.0,0.0,0.45,-0.48,0.52,117.65,-8.1,20.0
5.1,3.75,3.5,3.5,3.0,5.25,0.0,0.0,3.5,1.25,0.5,4.0,0.0,2.5,-0.98,-0.8,0.02,454.13,9.3,19.9,0.25,0.0,1.25,0.0,1.5,0.0,0.0,0.75,0.5,0.75,0.75,0.0,0.0,0.45,-0.48,0.45,110.97,-6.8,5.8
5.12,3.75,3.25,3.75,3.0,5.5,0.0,0.0,3.0,1.5,0.25,4.5,0.0,2.75,-0.92,-0.67,0.02,462.45,9.8,18.6,0.25,0.0,0.75,0.0,0.0,0.0,0.0,0.25,0.5,0.75,0.0,0.0,0.0,0.45,-0.48,0.45,95.78,-11.1,-6.1
5.14,3.75,3.25,3.75,3.0,4.75,0.0,0.0,3.75,1.5,0.0,4.0,0.0,2.5,-0.86,-0.61,0.14,458.63,9.9,19.6,1.0,0.75,0.5,0.0,0.0,0.5,0.0,0.75,0.75,2.0,0.0,0.0,0.0,0.45,-0.61,0.52,89.88,-2.6,1.0
5.16,3.75,3.25,3.75,3.0,5.0,0.0,0.0,3.25,1.5,0.25,4.0,0.0,2.5,-0.92,-0.61,0.27,452.14,10.0,20.1,1.25,0.5,1.5,0.5,1.5,0.5,0.0,0.75,0.75,2.0,0.75,0.0,0.25,0.52,-0.55,0.45,109.28,-6.5,10.2
5.18,3.75,3.25,3.75,3.25,5.25,0.0,0.0,3.75,1.5,0.0,4.0,0.0,2.5,-0.98,-0.55,0.2,449.37,9.8,20.5,1.25,0.75,1.25,0.25,1.5,0.5,0.0,0.75,0.75,2.0,0.75,0.0,0.25,0.58,-0.55,0.45,125.09,-5.6,9.9
5.2,3.75,3.25,4.0,3.0,5.0,0.0,0.0,3.5,1.5,0.0,3.75,0.0,2.5,-1.05,-0.48,0.2,442.76,10.3,21.4,1.25,0.75,1.5,0.25,1.5,0.5,0.25,0.75,0.75,2.5,0.75,0.0,0.25,0.58,-0.55,0.52,148.04,-5.7,7.4
5.22,3.75,3.0,3.75,3.25,5.0,0.0,0.0,3.75,1.5,0.5,4.0,0.0,2.25,-1.05,-0.48,0.2,441.71,9.6,19.1,1.25,0.75,1.25,0.25,1.5,0.5,0.0,0.75,0.75,0.75,0.75,0.0,0.0,0.64,-0.48,0.45,152.68,-9.2,25.8
5.24,3.0,3.5,3.75,3.75,5.0,0.0,0.0,3.75,1.5,0.5,4.0,0.0,2.5,-0.98,-0.48,0.2,438.82,9.1,18.3,1.25,0.75,0.5,0.0,0.0,0.25,0.0,0.5,0.75,1.5,0.0,0.0,0.0,0.7,-0.42,0.45,136.18,-7.7,12.6
5.26,3.75,3.0,4.0,3.75,5.0,0.0,0.0,3.75,1.5,0.5,3.75,0.0,2.5,-0.92,-0.48,0.2,442.92,9.8,19.7,1.25,0.75,1.75,0.0,1.5,0.25,0.0,0.75,0.75,1.75,0.75,0.0,0.0,0.77,-0.36,0.39,136.96,-8.8,16.2
5.28,3.5,3.5,3.75,3.0,5.0,0.0,0.0,3.75,1.5,0.5,4.0,0.0,2.75,-0.86,-0.55,0.27,441.42,9.1,17.4,1.25,0.75,1.75,0.0,1.75,0.5,0.0,0.75,0.75,2.0,0.75,0.0,0.0,0.77,-0.3,0.45,145.79,-7.1,15.4
5.3,3.75,3.0,3.75,3.75,5.25,0.0,0.0,3.5,1.25,0.5,4.0,0.0,2.5,-0.86,-0.55,0.27,442.65,9.7,19.9,1.25,0.75,2.0,0.0,1.75,0.5,0.0,1.0,0.75,2.0,0.75,0.0,0.25,0.77,-0.23,0.45,160.54,-6.8,12.4
5.32,3.75,3.25,3.75,3.0,5.0,0.0,0.0,3.5,1.25,0.5,4.0,0.0,2.5,-0.8,-0.55,0.2,437.77,9.6,19.3,1.25,0.75,1.25,0.0,1.5,0.5,0.25,0.75,0.75,2.0,0.5,0.0,0.25,0.7,-0.23,0.45,160.28,-5.5,11.0
5.34,3.75,3.5,3.75,3.75,5.0,0.0,0.0,3.5,1.5,0.0,4.0,0.0,2.75,-0.8,-0.55,0.2,440.2,10.0,20.8,1.25,0.75,1.25,0.0,1.5,0.5,0.0,0.75,0.75,1.75,0.75,0.0,0.25,0.64,-0.17,0.45,165.31,-5.8,10.9
5.36,3.75,3.25,3.5,3.75,5.25,0.0,0.0,3.25,1.5,0.5,3.75,0.0,2.5,-0.8,-0.67,0.2,439.47,9.7,20.9,1.25,0.75,1.5,0.0,0.0,0.5,0.0,0.5,0.75,2.0,0.0,0.0,0.0,0.58,-0.23,0.45,147.4,-9.4,14.1
5.38,3.75,3.5,3.5,4.0,5.25,0.0,0.0,3.5,1.5,0.0,4.0,0.0,2.5,-0.8,-0.61,0.14,444.73,9.9,22.2,1.25,0.75,1.5,0.0,1.25,0.5,0.25,0.75,0.75,2.0,0.75,0.0,0.25,0.52,-0.3,0.45,141.24,-6.7,8.9
5.4,3.75,3.25,3.5,3.75,5.0,0.0,0.0,3.5,1.25,0.25,4.0,0.0,2.5,-0.86,-0.55,0.08,441.48,9.8,20.7,1.25,0.75,1.5,0.0,1.25,0.75,0.25,0.75,0.75,2.0,0.75,0.0,0.0,0.52,-0.3,0.52,139.8,-6.5,12.6
5.42,3.75,3.25,3.0,3.25,5.25,0.0,0.0,3.5,1.5,0.5,4.0,0.0,2.5,-0.86,-0.42,0.14,436.86,8.9,18.4,0.75,0.75,1.5,0.0,1.25,0.5,0.0,0.75,0.75,1.0,0.75,0.0,0.0,0.58,-0.3,0.58,138.65,-8.1,17.7
5.44,3.75,3.25,3.75,3.25,5.25,0.0,0.0,3.5,1.25,0.75,4.0,0.0,2.5,-0.86,-0.36,0.2,436.12,9.4,19.2,1.25,0.5,1.5,0.0,1.5,0.25,0.0,0.75,0.75,2.0,0.75,0.0,0.0,0.58,-0.36,0.52,140.34,-7.2,10.2
5.46,3.75,3.25,4.0,3.5,5.5,0.0,0.0,3.5,1.5,0.5,4.0,0.0,2.75,-0.86,-0.36,0.2,442.57,9.6,19.4,1.5,0.75,1.5,0.0,1.5,0.5,0.25,0.75,0.75,2.25,0.75,0.0,0.0,0.58,-0.42,0.45,147.94,-7.0,13.0
5.48,3.75,3.25,3.25,3.5,5.0,0.0,0.0,3.5,1.5,1.0,4.0,0.0,2.5,-0.86,-0.3,0.2,443.01,8.9,17.3,2.5,0.75,1.5,0.0,1.25,0.5,0.0,0.75,0.75,1.75,0.75,0.0,0.0,0.64,-0.42,0.45,154.74,-10.6,23.5
5.5,3.75,3.25,3.75,3.75,4.75,0.0,0.0,4.0,1.25,0.75,4.25,0.0,2.5,-0.8,-0.36,0.2,447.7,9.3,17.6,1.25,0.75,1.5,0.0,1.25,0.5,0.0,0.25,0.5,1.75,0.0,0.0,0.0,0.64,-0.42,0.45,144.41,-8.6,27.5
5.52,3.75,3.25,3.75,4.0,5.25,0.0,0.0,3.25,1.25,0.5,4.0,0.0,2.75,-0.8,-0.36,0.27,449.73,9.8,20.2,1.25,0.75,1.5,0.0,1.25,0.5,0.25,0.75,0.75,1.75,0.75,0.0,0.0,0.7,-0.36,0.45,144.29,-7.8,14.4
5.54,3.75,3.25,3.5,3.5,5.25,0.0,0.0,3.75,1.5,0.75,4.0,0.0,2.5,-0.73,-0.48,0.27,450.73,9.0,18.3,1.25,0.75,0.5,0.0,0.0,0.0,0.5,0.75,0.75,1.5,0.75,0.0,0.0,0.7,-0.36,0.45,126.17,-9.1,0.4
5.56,3.75,3.25,3.0,3.25,5.0,0.0,0.0,3.75,1.5,0.5,4.0,0.0,2.5,-0.73,-0.55,0.33,442.64,8.8,17.7,1.25,0.75,1.25,0.0,1.5,0.5,0.25,0.75,0.75,2.0,0.75,0.0,0.0,0.7,-0.36,0.39,130.77,-6.1,12.0
5.58,3.75,3.25,3.0,3.25,4.75,0.0,0.0,3.25,1.5,0.5,4.0,0.0,2.5,-0.73,-0.61,0.33,430.62,9.3,18.2,1.25,0.75,0.75,0.0,0.0,0.5,0.25,0.75,0.75,1.5,0.75,0.0,0.0,0.7,-0.36,0.45,119.89,-7.6,4.4
5.6,3.75,3.25,3.75,4.0,5.5,0.0,0.0,3.5,1.5,0.75,4.0,0.0,2.5,-0.73,-0.61,0.27,437.42,9.5,19.9,1.25,0.75,1.5,0.0,1.25,0.5,0.0,0.75,0.5,1.5,0.75,0.0,0.0,0.7,-0.36,0.45,126.92,-8.0,18.2
5.62,3.75,3.25,3.5,4.25,5.5,0.0,0.0,3.25,1.5,1.0,4.5,0.0,2.5,-0.73,-0.61,0.27,448.37,9.3,18.3,1.0,0.5,0.25,0.0,0.0,0.25,0.25,0.75,0.75,2.0,0.75,0.0,0.25,0.7,-0.3,0.45,112.12,-2.5,-18.7
5.64,3.75,3.5,3.75,4.0,4.75,0.0,0.0,3.5,1.5,0.75,4.0,0.0,2.5,-0.67,-0.61,0.27,456.62,9.8,19.7,1.25,1.0,1.5,0.5,1.25,0.25,0.25,0.75,0.75,2.0,0.75,0.0,0.25,0.7,-0.3,0.45,127.55,-8.0,13.0
5.66,3.75,3.25,3.0,3.75,4.75,0.0,0.0,3.75,1.5,1.0,4.0,0.0,2.5,-0.67,-0.67,0.33,453.39,8.6,16.5,1.25,0.0,1.25,0.0,1.25,0.0,0.0,0.5,0.5,0.5,0.75,0.0,0.0,0.64,-0.3,0.45,116.23,-13.5,22.7
5.68,3.75,3.25,3.0,3.25,4.75,0.0,0.0,3.5,1.5,1.25,4.0,0.0,2.5,-0.67,-0.67,0.27,443.25,8.5,15.6,0.0,0.0,0.25,0.0,0.0,0.0,0.0,0.25,0.5,0.75,0.0,0.0,0.0,0.64,-0.23,0.45,86.24,0.0,-39.8
5.7,3.75,3.25,2.75,3.75,4.75,0.0,0.0,3.0,1.5,1.0,3.75,0.0,2.5,-0.67,-0.67,0.33,429.44,9.0,18.2,0.75,0.0,0.5,0.25,0.0,0.25,0.0,0.25,0.75,2.0,0.0,0.0,0.0,0.58,-0.23,0.45,66.5,-3.5,-14.0
5.72,3.75,3.25,2.5,3.75,5.0,0.0,0.0,3.75,1.5,1.25,3.75,0.0,2.5,-0.67,-0.67,0.39,426.26,7.8,16.1,1.25,0.75,1.5,0.5,1.25,0.25,0.0,0.75,0.75,1.5,0.75,0.0,0.0,0.58,-0.3,0.45,82.86,-9.4,18.6
5.74,3.75,3.25,3.75,4.5,5.5,0.0,0.0,3.25,1.5,1.25,4.0,0.0,2.25,-0.67,-0.67,0.39,439.67,9.6,20.5,1.0,0.5,1.5,0.0,1.5,0.25,0.25,0.75,0.5,1.5,0.75,0.0,0.25,0.58,-0.3,0.45,103.5,-7.4,10.9
5.76,3.75,3.25,3.0,4.5,5.25,0.0,0.0,3.25,1.5,1.25,4.0,0.0,2.75,-0.67,-0.67,0.33,451.12,8.7,17.3,1.25,0.75,1.5,0.0,0.0,0.5,0.0,0.5,0.75,1.75,0.75,0.0,0.0,0.58,-0.3,0.52,116.97,-10.4,8.6
5.78,3.75,3.25,2.75,4.25,5.5,0.0,0.0,3.25,1.5,1.0,4.0,0.0,2.5,-0.67,-0.67,0.27,456.93,8.6,18.7,1.25,0.25,1.25,0.0,1.5,0.5,0.0,0.75,0.5,2.0,0.75,0.0,0.0,0.58,-0.3,0.45,130.09,-5.2,8.2
5.8,3.75,3.25,3.0,4.5,5.0,0.0,0.0,3.75,1.5,1.25,4.0,0.0,2.5,-0.61,-0.67,0.33,460.49,8.6,17.1,1.75,1.0,1.5,0.25,1.25,0.5,0.25,0.75,0.5,2.25,0.75,0.0,0.0,0.52,-0.3,0.45,142.13,-8.2,18.1
5.82,3.75,3.25,3.0,4.75,5.5,0.0,0.0,2.5,1.5,1.25,4.0,0.0,2.75,-0.61,-0.67,0.39,460.19,9.2,19.2,1.25,0.5,1.25,0.0,1.25,0.5,0.25,0.75,0.75,1.75,0.75,0.0,0.0,0.52,-0.23,0.45,145.74,-6.8,10.6
5.84,3.75,3.5,3.25,4.25,5.0,0.0,0.0,3.25,1.5,0.5,3.5,0.0,3.0,-0.61,-0.67,0.33,453.95,9.3,20.2,0.5,0.0,1.25,0.0,1.25,0.0,0.0,0.75,0.5,0.5,0.25,0.0,0.0,0.52,-0.17,0.52,129.56,-9.4,18.7
5.86,3.75,3.25,3.25,5.0,5.0,0.0,0.0,3.25,1.5,1.0,4.0,0.0,2.5,-0.55,-0.73,0.33,457.54,9.5,19.6,1.25,0.0,1.75,0.0,1.5,0.0,0.25,0.75,0.5,1.5,0.75,0.0,0.0,0.52,-0.17,0.52,128.01,-10.3,12.5
5.88,3.75,3.25,3.0,4.25,5.0,0.0,0.0,3.5,1.5,1.0,4.0,0.0,2.5,-0.55,-0.67,0.27,456.68,8.9,18.0,0.0,0.0,0.25,0.0,0.0,0.0,0.0,0.25,0.5,0.5,0.0,0.0,0.0,0.58,-0.11,0.58,88.52,-2.5,-33.8
5.9,3.75,3.25,3.75,4.5,5.25,0.0,0.0,3.0,1.5,1.0,3.75,0.0,2.5,-0.61,-0.67,0.33,459.76,9.9,21.1,0.0,0.0,0.0,0.0,0.0,0.0,0.0,0.5,0.5,0.5,0.0,0.0,0.0,0.58,-0.17,0.52,61.76,6.8,-51.0
5.92,3.75,3.25,3.5,4.5,5.0,0.0,0.0,3.5,1.5,0.75,4.0,0.0,2.25,-0.61,-0.61,0.33,458.41,9.8,20.7,1.5,0.5,0.5,0.25,0.0,0.5,0.0,0.25,0.5,1.5,0.0,0.0,0.0,0.64,-0.17,0.52,54.12,-8.7,20.0
5.94,3.75,3.25,4.25,4.5,4.75,0.0,0.0,3.25,1.5,1.25,4.0,0.0,2.5,-0.61,-0.55,0.27,463.57,10.2,19.3,0.5,0.0,1.5,0.0,1.25,0.0,0.25,0.75,0.5,0.75,0.0,0.0,0.0,0.64,-0.23,0.58,57.14,-10.0,20.7
5.96,3.75,3.25,3.0,4.0,5.0,0.0,0.0,3.25,1.5,1.25,4.25,0.0,2.75,-0.61,-0.55,0.27,458.22,8.6,15.7,0.0,0.0,0.5,0.0,0.0,0.0,0.0,0.25,0.5,0.5,0.0,0.0,0.0,0.64,-0.23,0.64,42.29,-7.7,-19.9
5.98,3.75,3.25,3.25,4.5,4.75,0.0,0.0,3.25,1.5,1.0,3.75,0.0,2.5,-0.67,-0.48,0.33,452.9,9.5,19.4,0.0,0.0,0.25,0.0,0.0,0.0,0.0,0.25,0.5,0.5,0.0,0.0,0.0,0.64,-0.36,0.58,31.21,-2.5,-33.8
6.0,3.75,3.25,3.75,4.75,5.25,0.0,0.0,3.25,1.5,1.0,4.0,0.0,2.5,-0.67,-0.42,0.45,457.85,9.7,20.3,0.75,0.0,0.5,0.0,0.0,0.0,0.0,0.0,0.5,1.5,0.0,0.0,0.0,0.64,-0.36,0.52,26.29,-8.3,-10.1
6.02,3.75,3.25,3.75,4.5,5.0,0.0,0.0,3.25,1.5,1.0,3.5,0.0,2.5,-0.73,-0.42,0.45,457.81,9.8,21.1,0.25,0.0,1.5,0.0,1.5,0.0,0.25,0.5,0.5,0.75,0.0,0.0,0.0,0.58,-0.42,0.52,37.03,-9.5,21.9
6.04,3.75,3.25,3.25,4.5,5.0,0.0,0.0,3.25,1.5,1.25,4.25,0.0,2.75,-0.73,-0.42,0.33,460.98,9.0,16.7,0.0,0.0,0.25,0.0,0.0,0.0,0.0,0.25,0.25,0.5,0.0,0.0,0.0,0.52,-0.48,0.58,30.75,-0.6,-32.9
6.06,3.75,3.25,2.5,4.0,5.5,0.0,0.0,3.25,1.5,1.25,4.0,0.0,2.5,-0.73,-0.42,0.33,455.64,8.1,17.3,0.0,0.0,0.25,0.0,0.0,0.0,0.0,0.5,0.25,0.25,0.0,0.0,0.0,0.52,-0.48,0.7,29.62,-0.4,-25.6
6.08,3.75,3.25,3.25,4.5,5.0,0.0,0.0,2.75,1.5,1.0,4.0,0.0,2.5,-0.8,-0.36,0.39,452.09,9.8,19.9,0.25,0.0,0.25,0.0,0.0,0.75,0.0,0.5,0.75,2.0,0.0,0.0,0.0,0.52,-0.36,0.7,37.88,6.5,-30.7
6.1,3.75,3.25,3.5,4.5,5.25,0.0,0.0,3.0,1.5,1.0,4.0,0.0,2.25,-0.92,-0.36,0.39,449.34,9.8,21.1,1.5,1.0,1.5,0.0,1.5,0.5,0.25,0.75,0.5,0.75,0.75,0.0,0.0,0.58,-0.23,0.64,74.43,-10.8,31.7
6.12,3.75,3.25,3.75,4.5,5.0,0.0,0.0,3.25,1.5,1.0,3.75,0.0,2.25,-0.86,-0.42,0.33,451.16,10.0,21.4,0.0,0.0,1.5,0.0,1.0,0.0,0.0,0.75,0.5,1.0,0.0,0.0,0.0,0.52,-0.17,0.7,89.95,-6.6,6.5
6.14,3.75,3.25,3.5,4.0,4.75,0.0,0.0,3.25,1.5,1.25,4.0,0.0,2.5,-0.86,-0.48,0.39,449.52,9.4,17.7,1.25,0.75,0.0,0.25,0.0,0.0,0.0,0.0,0.25,0.5,0.0,0.0,0.0,0.45,-0.05,0.83,87.76,-17.0,53.7
6.16,3.75,3.25,3.25,5.0,5.0,0.0,0.0,3.5,1.5,0.5,4.0,0.0,2.5,-0.86,-0.48,0.39,452.59,9.7,20.6,0.0,0.75,0.0,0.0,0.0,0.5,0.0,0.25,0.5,1.5,0.0,0.0,0.0,0.52,0.08,0.83,73.41,6.5,-14.1
6.18,3.75,3.25,3.25,4.5,5.0,0.0,0.0,3.5,1.5,1.0,4.0,0.0,2.75,-0.86,-0.48,0.33,454.96,9.0,17.6,0.0,0.0,1.25,0.0,0.0,0.0,0.0,0.0,0.5,0.5,0.0,0.0,0.0,0.58,0.2,0.77,57.73,-20.8,9.5
6.2,3.75,3.25,3.5,4.75,5.25,0.0,0.0,3.25,1.5,1.25,3.25,0.0,2.25,-0.86,-0.42,0.33,457.38,9.5,22.3,0.0,0.0,0.25,0.0,0.0,0.25,0.0,0.0,0.5,1.5,0.0,0.0,0.0,0.58,0.14,0.77,47.89,5.2,-43.6
6.22,3.75,3.25,3.0,4.25,5.25,0.0,0.0,3.25,1.5,1.0,4.25,0.0,2.5,-0.8,-0.42,0.39,455.99,9.0,18.0,1.5,0.0,1.5,0.5,1.5,0.0,0.5,0.75,0.5,0.5,0.75,0.0,0.0,0.52,0.14,0.7,72.51,-14.2,27.8
6.24,3.75,3.25,3.0,4.5,5.0,0.0,0.0,3.5,1.5,1.0,4.0,0.0,2.5,-0.8,-0.36,0.52,453.99,8.9,18.3,1.5,0.75,0.75,0.25,1.0,0.5,0.0,0.5,0.5,1.25,0.75,0.0,0.0,0.52,0.14,0.58,96.27,-8.2,21.2
6.26,3.75,3.25,3.5,5.0,5.25,0.0,0.0,3.0,1.5,0.75,4.0,0.0,2.5,-0.86,-0.23,0.45,457.64,10.0,21.4,1.25,1.0,1.5,0.5,1.25,0.5,0.25,0.5,0.5,1.5,0.75,0.0,0.0,0.52,0.14,0.58,126.68,-9.6,24.2
6.28,3.75,3.25,3.0,4.75,5.0,0.0,0.0,3.25,1.5,0.75,3.5,0.0,2.5,-0.86,-0.17,0.39,453.12,9.4,21.2,0.25,0.0,1.25,0.5,0.0,0.0,0.0,0.0,0.0,0.75,0.0,0.0,0.0,0.45,0.08,0.64,113.18,-19.5,26.8
6.3,3.75,3.25,3.25,4.75,5.0,0.0,0.0,3.0,1.5,1.0,3.5,0.0,2.75,-0.8,-0.17,0.45,452.92,9.4,20.2,1.25,0.75,0.5,0.25,0.0,0.5,0.0,0.25,0.5,1.75,0.0,0.0,0.0,0.33,0.08,0.58,106.19,-6.7,16.2
6.32,3.75,3.25,3.0,4.0,5.25,0.0,0.0,3.25,1.5,0.75,4.0,0.0,3.0,-0.73,-0.23,0.45,449.09,8.7,17.1,1.5,0.75,1.5,0.25,1.25,0.5,0.0,0.5,0.5,1.5,0.75,0.0,0.0,0.33,0.14,0.52,108.57,-9.7,23.0
6.34,3.75,3.25,3.0,4.75,5.5,0.0,0.0,3.0,1.5,0.5,4.5,0.0,2.5,-0.73,-0.17,0.58,451.57,9.6,20.1,1.5,0.5,1.5,0.25,1.5,0.5,0.0,0.75,0.5,2.25,0.75,0.0,0.0,0.33,0.14,0.58,129.18,-6.7,13.1
6.36,3.75,3.25,3.0,4.25,5.0,0.0,0.0,3.0,1.25,0.5,3.25,0.0,2.25,-0.67,-0.23,0.58,438.69,9.8,24.2,0.75,0.75,1.25,1.25,1.5,0.25,0.0,0.75,0.25,0.0,0.25,0.0,0.0,3.27,-1.17,2.14,140.13,-12.0,47.1
6.38,3.75,3.25,3.25,4.25,5.25,0.0,0.0,3.25,1.5,0.5,4.0,0.0,2.25,-0.61,-0.3,0.64,437.78,9.8,21.5,1.25,0.75,0.0,0.25,0.0,0.5,0.0,0.0,0.5,2.5,0.0,0.0,0.0,0.89,-1.36,1.95,132.99,-1.9,2.4
6.4,3.75,3.25,3.0,4.5,5.25,0.0,0.0,3.0,1.5,0.0,3.75,0.0,2.25,-0.61,-0.36,0.77,429.68,10.2,24.3,1.5,0.75,1.25,0.25,1.5,0.25,0.0,0.5,0.5,2.5,0.75,0.0,0.5,0.45,0.33,0.52,140.07,-5.8,6.6
6.42,3.75,3.25,3.0,4.75,5.5,0.0,0.0,2.5,1.5,0.0,4.0,0.0,2.5,-0.61,-0.42,0.7,430.78,10.4,24.0,1.25,0.75,1.25,0.5,0.0,0.0,0.0,0.75,0.5,2.75,0.0,0.0,0.5,0.7,0.14,1.08,134.69,-6.3,-1.5
6.44,3.75,3.25,3.0,5.0,5.25,0.0,0.0,3.0,1.5,0.0,3.0,0.0,2.5,-0.48,-0.36,0.77,428.5,10.1,26.1,1.25,0.75,1.25,0.25,1.5,0.25,0.0,0.75,0.5,2.75,0.5,0.0,0.5,0.39,0.14,1.27,145.41,-3.9,3.4
6.46,3.75,3.25,3.25,4.5,5.25,0.0,0.0,3.0,1.25,0.0,4.0,0.0,2.0,-0.48,-0.36,0.83,428.73,10.6,25.4,1.25,0.5,1.25,0.25,1.5,0.0,0.0,0.75,0.5,2.75,0.75,0.0,0.75,0.27,0.08,1.02,149.62,-4.0,-4.1
6.48,4.0,3.25,3.25,4.75,5.0,0.0,0.0,3.25,1.25,0.5,4.0,0.0,2.75,-0.67,-0.42,0.83,435.33,9.8,20.8,1.5,0.25,1.25,0.25,1.5,0.0,0.0,0.75,0.5,2.5,0.75,0.0,0.5,0.27,-0.05,0.89,156.84,-5.5,0.0
6.5,3.75,3.25,3.0,4.5,5.25,0.0,0.0,3.0,1.5,0.5,3.75,0.0,2.5,-0.8,-0.42,0.89,437.19,9.6,21.7,1.75,0.5,1.25,0.25,1.5,0.5,0.0,0.75,0.5,2.5,0.5,0.0,0.25,0.33,-0.05,0.7,159.55,-5.4,10.7
6.52,3.75,3.25,3.25,4.5,4.75,0.0,0.0,3.25,1.5,0.25,4.0,0.0,2.75,-0.73,-0.05,0.7,441.03,9.9,19.9,1.25,0.75,1.25,0.25,1.25,0.0,0.0,0.5,0.5,2.75,0.75,0.0,0.5,0.33,-0.11,0.7,161.52,-5.5,0.4
6.54,3.75,3.25,3.0,4.5,5.0,0.0,0.0,3.0,1.25,0.25,3.0,0.0,2.5,-0.61,0.14,0.64,432.12,9.9,25.0,1.5,0.5,1.25,0.25,1.25,0.5,0.0,0.5,0.5,2.25,0.75,0.0,0.5,0.39,-0.05,0.77,156.77,-5.7,5.6
6.56,3.75,3.25,3.0,4.75,5.25,0.0,0.0,3.25,1.25,0.0,3.75,0.0,2.5,-0.55,0.2,0.7,432.18,9.8,23.5,1.75,0.0,1.25,0.0,1.0,0.0,0.0,0.75,0.5,1.0,0.75,0.0,1.5,0.52,0.02,0.77,145.71,-7.8,-5.5
6.58,3.25,3.25,3.25,4.75,5.25,0.0,0.0,3.0,1.25,0.0,3.75,0.0,2.5,-0.61,0.02,0.89,428.47,9.9,23.2,1.25,0.25,1.5,0.25,1.5,0.5,0.0,0.0,0.25,1.25,0.0,0.0,0.5,0.45,0.02,0.77,136.03,-9.0,26.5
6.6,3.5,3.25,2.75,4.75,5.25,0.0,0.0,3.0,1.5,0.0,4.0,0.0,2.0,-0.86,-0.11,0.77,428.58,10.0,24.1,0.0,0.0,0.75,0.0,1.25,0.0,0.0,0.75,0.25,1.5,0.0,0.0,0.75,0.33,0.08,0.83,115.14,3.4,-20.4
6.62,3.75,3.25,3.0,4.5,5.25,0.0,0.0,3.0,1.5,0.0,4.25,0.0,2.75,-1.05,0.02,0.58,431.19,9.8,20.7,1.25,0.5,1.5,0.5,1.25,0.5,0.0,0.75,0.5,3.75,0.75,0.0,1.75,0.27,0.02,0.83,133.61,-1.3,-15.2
6.64,3.75,3.25,3.5,4.0,5.0,0.0,0.0,3.25,1.25,0.0,3.75,0.0,2.5,-2.05,0.33,0.52,430.84,10.2,23.0,1.25,0.5,1.5,1.0,1.5,0.5,0.0,0.75,0.5,3.75,0.75,0.0,1.5,0.2,-0.11,0.83,153.73,-2.1,-9.2
6.66,3.75,3.25,3.0,4.0,5.0,0.0,0.0,3.0,1.25,0.75,3.75,0.0,2.5,-1.11,0.27,0.2,428.58,9.4,20.5,1.5,0.5,1.25,0.25,1.25,0.5,0.0,0.75,0.5,2.25,0.75,0.0,2.5,0.27,0.02,0.89,173.65,-2.0,-14.8
6.68,3.75,3.25,3.0,4.25,5.0,0.0,0.0,2.75,1.5,1.0,3.0,0.0,2.5,-0.55,0.08,0.58,424.77,9.4,22.3,1.25,1.0,1.5,0.25,1.25,0.25,0.0,0.5,0.5,4.0,0.75,0.0,3.0,0.45,0.08,0.77,189.3,-0.5,-22.3
6.7,3.75,3.25,3.0,4.75,5.25,0.0,0.0,3.0,1.5,0.5,4.0,0.0,2.75,-0.42,-0.05,0.83,432.08,9.5,20.2,0.25,0.75,1.5,0.25,1.25,0.0,0.0,0.75,0.75,4.0,0.75,0.0,3.25,0.64,0.08,0.77,198.3,1.9,-35.8
6.72,3.75,3.25,3.0,4.75,5.5,0.0,0.0,3.0,1.5,0.75,3.5,0.0,3.0,-0.36,-0.11,0.7,440.39,9.0,20.2,1.25,0.25,1.25,0.5,1.25,0.25,0.0,0.75,0.75,4.25,0.75,0.0,3.25,0.45,0.14,0.83,205.56,1.0,-31.7
6.74,3.5,3.25,3.0,4.5,5.0,0.0,0.0,3.0,1.5,0.5,4.0,0.0,2.5,-1.48,-0.11,0.89,443.44,9.5,20.1,1.25,0.75,1.25,0.0,1.25,0.0,0.0,0.75,0.75,4.25,0.75,0.0,3.25,0.2,-0.05,0.77,208.67,0.9,-31.3
6.76,3.75,3.25,3.0,4.5,5.0,0.0,0.0,3.25,1.5,0.5,4.5,0.0,2.5,-0.67,0.27,0.58,447.58,9.5,18.8,1.25,0.75,1.25,0.25,1.5,0.25,0.0,0.75,0.5,4.25,0.0,0.0,3.5,0.08,0.02,0.89,213.15,2.0,-26.0
6.78,3.75,3.25,2.75,4.5,5.0,0.0,0.0,3.0,1.25,0.75,3.5,0.0,2.75,-0.86,-0.11,0.58,442.45,9.1,20.4,1.75,1.0,1.25,0.25,1.5,0.25,0.0,0.75,0.5,4.25,0.0,0.0,3.5,0.14,0.02,0.95,216.72,0.6,-20.1
6.8,3.75,3.25,2.75,5.0,5.0,0.0,0.0,3.0,1.5,0.75,4.0,0.0,2.5,-0.73,0.14,0.58,442.7,9.4,20.2,1.25,0.5,1.25,0.25,1.25,0.0,0.0,0.75,0.75,4.25,0.25,0.0,3.5,0.33,0.02,0.83,215.71,1.4,-32.0
6.82,3.75,3.25,3.25,5.0,5.25,0.0,0.0,3.0,1.25,0.75,4.0,0.0,2.75,-0.67,0.08,0.77,448.29,9.6,20.5,1.25,0.25,1.25,0.25,1.5,0.0,0.0,0.75,0.75,4.25,0.75,0.25,3.5,0.39,0.14,0.89,216.84,1.1,-35.2
6.84,3.5,3.25,2.75,4.75,5.0,0.0,0.0,3.0,1.5,0.75,4.0,0.0,2.5,-0.48,0.02,0.45,448.11,9.2,19.3,2.75,1.0,1.25,0.0,1.5,0.25,0.0,1.0,0.5,4.75,0.5,0.25,4.25,0.27,0.02,0.83,226.96,-0.1,-23.5
6.86,3.75,3.25,3.0,5.0,5.25,0.0,0.0,3.0,1.5,1.25,3.75,0.0,2.75,-0.67,0.08,0.7,454.2,9.0,19.0,1.25,0.75,1.25,0.75,1.5,0.25,0.0,1.0,0.75,5.0,0.75,0.5,5.0,0.02,0.08,0.95,239.19,2.2,-36.8
6.88,3.75,3.25,2.75,5.0,5.0,0.0,0.0,3.0,1.5,1.5,3.75,0.0,2.5,-0.61,0.27,0.89,455.87,8.8,18.7,2.25,0.75,1.25,0.5,1.5,0.5,0.0,1.0,0.75,5.25,0.75,0.75,5.0,0.08,0.08,1.02,257.79,1.0,-32.4
6.9,3.5,3.25,2.75,5.0,5.0,0.0,0.0,3.0,1.5,1.75,4.25,0.0,2.5,-0.73,0.2,0.89,459.66,8.5,16.1,0.75,0.75,1.25,0.25,1.5,0.5,0.0,1.0,0.75,5.25,0.75,0.75,5.0,0.14,0.08,0.89,267.12,3.9,-43.4
6.92,2.75,3.0,2.75,5.0,5.0,0.0,0.0,3.0,1.5,1.75,4.0,0.0,2.5,-0.61,0.08,0.7,452.23,7.9,14.3,1.25,0.75,1.25,0.0,1.5,0.25,0.0,1.25,0.75,5.0,0.75,0.75,5.0,0.14,0.08,0.89,269.63,3.0,-41.8
6.94,3.5,3.0,3.0,4.0,5.25,0.0,0.0,3.25,1.5,1.75,4.25,0.0,2.75,-0.3,-0.05,0.64,451.66,8.0,13.4,1.75,0.5,1.25,0.0,1.25,0.0,0.0,1.0,0.75,5.25,0.75,1.25,5.5,0.2,0.08,0.89,272.08,2.0,-46.6
6.96,3.75,3.25,3.0,5.0,5.25,0.0,0.0,3.0,1.5,1.25,3.75,0.0,2.75,-0.23,-0.05,0.83,454.24,9.0,19.0,1.5,0.75,0.5,0.0,1.75,0.25,0.0,1.25,0.75,5.5,0.75,1.5,5.5,0.14,0.08,0.95,277.14,4.3,-47.8
6.98,3.75,3.25,3.0,4.5,5.25,0.0,0.0,3.0,1.5,1.75,4.5,0.0,2.5,-0.36,0.08,0.95,461.51,8.7,16.0,1.25,0.75,0.75,0.0,1.5,0.5,0.0,1.25,0.75,5.25,0.75,1.5,5.75,0.08,0.08,0.95,282.23,4.4,-49.0
7.0,3.5,3.25,3.0,5.0,5.25,0.0,0.0,3.0,1.5,1.25,4.0,0.0,2.75,-0.48,0.08,0.83,464.17,8.8,17.8,1.25,1.0,1.25,0.0,1.5,0.0,0.0,1.5,0.75,5.25,0.75,1.5,5.75,0.08,0.08,0.95,287.07,2.9,-46.2
7.02,3.75,3.25,3.0,4.75,5.25,0.0,0.0,3.0,1.5,1.75,4.0,0.0,2.75,-0.55,0.02,0.77,468.76,8.6,16.7,1.25,0.75,1.25,0.25,1.5,0.0,0.0,1.5,0.75,5.5,0.75,1.5,5.75,0.08,0.08,0.89,290.18,3.0,-47.0
7.04,3.75,3.25,2.75,4.5,5.25,0.0,0.0,3.0,1.5,1.75,4.0,0.0,3.25,-0.36,-0.05,0.83,468.55,7.9,14.1,1.25,0.25,1.25,0.0,1.5,0.25,0.0,1.25,0.75,5.5,0.75,1.5,5.75,0.08,0.08,0.95,289.54,3.7,-51.3
7.06,3.5,3.25,3.0,3.75,5.0,0.0,0.0,3.25,1.5,0.75,3.5,0.0,2.5,-0.05,-0.3,1.02,452.43,8.9,19.4,2.25,0.75,1.25,0.0,1.5,0.25,0.0,1.0,0.75,5.25,0.75,1.5,5.75,0.08,0.08,0.95,287.95,1.3,-40.9
7.08,3.25,3.0,3.25,4.25,5.0,0.0,0.0,3.0,1.5,1.0,3.75,0.0,2.5,0.02,-0.23,1.14,440.72,9.1,18.1,1.25,0.5,1.5,0.0,1.5,0.0,0.0,1.0,0.75,5.25,0.75,1.5,5.5,0.08,0.08,0.95,282.03,2.3,-48.0
7.1,3.5,3.0,3.0,3.75,5.0,0.0,0.0,3.0,1.25,0.75,3.75,0.0,2.5,0.14,-0.11,1.08,422.86,9.1,18.9,1.25,0.75,1.25,0.5,1.5,0.0,0.0,1.0,1.0,5.25,0.75,1.5,5.75,0.14,0.08,0.89,281.22,2.1,-45.5
7.12,3.75,3.25,3.0,4.0,5.0,0.0,0.0,3.0,1.5,0.5,3.75,0.0,2.5,0.2,0.14,0.95,418.12,9.6,20.8,1.5,0.5,1.25,0.0,1.5,0.25,0.0,1.0,0.75,4.75,0.0,1.5,5.5,0.14,0.08,0.89,272.92,2.8,-44.8
7.14,3.75,3.25,2.75,3.75,5.25,0.0,0.0,3.0,1.0,1.0,3.5,0.0,3.0,0.08,0.39,0.83,414.75,8.3,18.4,1.25,0.75,0.5,0.75,1.5,0.25,0.0,1.0,0.75,4.25,0.5,1.5,5.0,0.08,0.08,0.89,265.0,2.9,-42.8
7.16,3.5,3.25,3.0,4.0,5.0,0.0,0.0,3.0,0.75,1.0,3.75,0.0,2.5,-0.17,0.45,0.95,414.2,8.9,20.0,1.25,0.5,1.0,0.25,1.5,0.0,0.0,1.0,0.75,4.25,0.75,1.5,5.0,0.08,0.08,0.95,255.41,2.1,-46.3
