time,left pressure 0[N/cm虏],left pressure 1[N/cm虏],left pressure 2[N/cm虏],left pressure 3[N/cm虏],left pressure 4[N/cm虏],left pressure 5[N/cm虏],left pressure 6[N/cm虏],left pressure 7[N/cm虏],left pressure 8[N/cm虏],left pressure 9[N/cm虏],left pressure 10[N/cm虏],left pressure 11[N/cm虏],left pressure 12[N/cm虏],left acceleration X[g],left acceleration Y[g],left acceleration Z[g],left total force[N],left center of pressure X[mm],left center of pressure Y[mm],right pressure 0[N/cm虏],right pressure 1[N/cm虏],right pressure 2[N/cm虏],right pressure 3[N/cm虏],right pressure 4[N/cm虏],right pressure 5[N/cm虏],right pressure 6[N/cm虏],right pressure 7[N/cm虏],right pressure 8[N/cm虏],right pressure 9[N/cm虏],right pressure 10[N/cm虏],right pressure 11[N/cm虏],right pressure 12[N/cm虏],right acceleration X[g],right acceleration Y[g],right acceleration Z[g],right total force[N],right center of pressure X[mm],right center of pressure Y[mm]
0.02,6.5,2.75,4.25,5.75,2.5,0.0,0.0,2.0,1.75,1.0,1.0,1.0,1.75,-0.48,1.02,2.7,298.67,15.5,34.0,0.5,0.0,0.75,1.25,3.5,2.0,0.0,3.75,0.25,2.75,0.0,0.5,0.75,0.2,0.52,1.45,242.01,5.9,-3.1
0.04,8.25,3.5,6.0,8.25,6.0,0.25,0.0,2.75,1.75,0.75,2.25,1.0,2.5,-0.05,0.45,1.83,388.78,14.2,35.7,1.5,1.0,1.75,2.5,4.75,3.25,0.0,2.0,0.0,2.5,0.75,0.25,1.25,0.52,2.08,1.2,192.95,-0.3,18.4
0.06,7.75,3.75,8.5,12.5,8.0,4.5,5.5,1.75,2.5,2.0,2.0,1.25,1.0,-0.23,0.2,1.52,628.35,13.5,40.0,1.25,1.0,1.5,2.5,4.25,3.25,0.0,2.0,0.5,2.5,0.75,0.0,1.0,-0.36,2.45,0.14,177.9,0.0,17.8
0.08,8.0,4.5,7.75,12.5,9.75,7.0,7.0,5.0,4.75,4.0,3.0,2.75,2.75,-0.11,0.2,1.14,970.57,9.1,24.1,1.25,1.0,2.0,2.5,3.25,3.25,0.0,2.0,0.5,2.75,0.0,0.25,1.0,-1.36,2.08,0.83,181.12,-0.6,17.5
0.1,7.25,4.25,8.5,12.0,10.5,7.0,7.75,7.0,6.25,6.0,5.5,4.5,4.75,-0.11,0.08,1.08,1350.09,7.5,10.6,1.25,1.0,2.5,2.5,3.75,3.0,0.0,2.0,0.5,2.5,0.0,0.25,0.75,-1.36,1.7,0.95,191.54,-2.0,22.1
0.12,7.25,4.75,8.5,12.5,10.5,7.25,8.0,7.75,6.25,6.25,6.75,4.5,5.25,-0.05,0.02,1.08,1576.97,7.2,9.0,1.25,1.0,2.0,2.5,3.75,3.0,0.0,2.0,0.5,2.5,0.0,0.25,1.0,-0.48,1.7,0.83,201.66,-0.9,19.5
0.14,6.75,4.25,7.5,12.5,10.5,7.5,7.75,7.75,6.25,6.25,6.75,4.5,5.5,-0.05,0.08,0.95,1708.18,6.5,7.1,1.0,1.0,2.0,2.5,2.75,2.5,0.0,2.0,0.0,2.5,0.25,0.25,1.0,-0.17,1.52,0.95,202.92,-1.2,16.2
0.16,6.5,4.0,8.5,10.5,10.5,7.0,7.5,7.5,6.0,6.0,6.25,4.25,5.0,-0.11,0.08,0.95,1751.01,6.8,7.8,0.75,0.25,2.25,0.0,3.0,0.5,0.0,1.75,0.0,1.0,0.0,0.0,1.0,-0.17,1.14,1.2,179.72,-3.1,16.4
0.18,6.5,3.5,8.25,10.0,9.5,7.0,7.0,7.25,5.75,6.0,5.5,3.5,5.0,-0.11,0.08,0.95,1720.01,6.7,8.2,1.0,0.25,0.75,0.0,1.25,0.75,0.0,0.5,0.0,0.75,0.0,0.0,0.5,-0.17,0.89,1.27,136.17,-2.9,22.5
0.2,5.25,3.5,8.0,9.75,8.75,5.75,6.25,6.5,5.5,4.75,4.5,2.75,4.75,-0.05,0.08,0.95,1623.88,7.2,10.1,0.5,0.0,0.5,0.0,0.25,0.5,0.0,0.75,0.0,0.75,0.0,0.0,0.25,0.08,0.7,1.27,82.6,1.0,-1.5
0.22,4.25,3.0,6.25,7.0,7.75,5.5,5.75,6.25,5.0,4.75,5.25,3.0,3.25,-0.05,0.08,0.95,1473.79,6.2,5.7,0.5,0.25,0.5,0.0,1.5,0.5,0.0,0.5,0.0,0.75,0.25,0.0,0.25,0.2,0.58,1.2,53.55,-0.3,17.1
0.24,3.5,2.5,6.0,7.0,6.0,3.5,5.0,6.5,4.5,4.5,5.5,3.0,4.0,-0.05,0.08,0.95,1299.39,6.5,-0.3,0.75,0.0,0.5,0.0,1.25,0.75,0.0,1.25,0.0,1.5,0.0,0.25,0.5,0.33,0.45,1.2,49.54,3.8,-6.4
0.26,3.0,2.75,5.5,6.0,6.0,4.0,3.5,5.75,4.5,4.75,5.25,3.0,4.75,-0.05,0.08,0.95,1059.42,5.2,-3.3,0.5,0.0,0.5,0.0,1.25,0.5,0.0,0.5,0.0,0.75,0.0,0.0,0.25,0.39,0.27,1.2,37.32,0.7,15.0
0.28,2.75,2.25,5.0,6.5,5.75,4.5,2.5,6.0,4.5,4.75,5.25,3.25,5.0,-0.05,0.08,0.95,901.4,4.2,-5.9,0.75,0.0,0.0,0.0,0.5,0.5,0.0,0.5,0.0,0.75,0.25,0.0,0.75,0.45,0.14,1.2,25.69,4.0,-15.8
0.3,3.5,3.5,4.5,6.75,4.75,5.5,2.25,6.25,4.75,6.25,6.0,4.75,5.0,-0.05,0.08,0.95,842.4,3.8,-8.6,0.5,0.0,0.5,0.0,1.5,0.5,0.0,0.25,0.0,0.75,0.0,0.0,0.25,0.52,0.02,1.02,23.52,0.0,20.5
0.32,3.0,2.25,5.5,6.5,6.5,4.0,2.25,6.25,4.5,6.25,6.0,4.75,5.75,-0.11,0.08,0.95,826.95,4.0,-10.8,0.0,0.0,0.5,0.0,1.0,0.5,0.0,0.25,0.0,0.75,0.0,0.0,0.25,0.64,-0.11,0.83,18.03,4.2,4.3
0.34,2.5,2.0,4.25,6.0,6.5,4.25,1.5,6.25,4.5,6.25,6.0,5.5,5.75,-0.11,0.08,0.95,825.68,2.7,-15.5,0.5,0.0,0.75,0.0,0.25,0.5,0.0,0.25,0.0,0.75,0.0,0.0,0.25,0.7,-0.23,0.89,16.81,-4.4,9.1
0.36,2.75,2.5,4.75,5.75,6.5,5.25,1.5,7.25,4.75,8.0,6.5,6.75,7.5,-0.11,0.08,0.95,885.98,1.8,-19.7,0.25,0.0,0.5,0.0,1.0,0.0,0.0,0.5,0.0,1.0,0.0,0.0,0.25,0.58,-0.42,0.95,23.65,0.9,-1.9
0.38,3.0,3.5,4.25,6.25,6.25,5.75,1.75,7.5,5.25,8.25,7.75,7.25,8.25,-0.11,0.08,0.95,985.99,1.8,-20.4,1.25,0.25,0.5,0.0,1.0,0.0,0.0,0.25,0.0,1.0,0.5,0.0,0.5,0.52,-0.55,0.77,44.61,-7.1,10.2
0.4,3.0,3.25,4.5,6.0,6.5,5.75,1.25,7.75,5.25,7.5,7.75,7.75,9.0,-0.11,0.08,0.95,1091.04,1.7,-21.7,0.75,0.0,1.75,0.0,1.75,0.25,0.0,0.25,0.25,1.5,0.0,0.5,0.0,0.45,-0.86,0.58,75.14,-8.4,14.8
0.42,2.75,3.0,4.25,6.25,5.75,5.75,0.75,7.5,5.25,8.75,8.25,8.0,9.25,-0.11,0.08,0.95,1176.38,1.3,-25.2,1.0,0.0,2.0,0.0,1.75,0.5,0.0,0.75,0.25,2.5,0.5,0.25,0.5,0.52,-1.36,0.52,112.74,-4.4,-0.6
0.44,2.75,3.5,4.25,6.25,6.0,5.5,0.75,7.75,5.0,9.0,8.25,8.0,9.5,-0.11,0.08,0.95,1246.63,1.2,-24.7,1.75,0.0,1.5,0.0,1.75,1.0,0.0,0.5,0.0,0.75,0.0,0.0,0.0,0.77,-1.36,0.52,127.96,-9.1,43.0
0.46,2.5,3.5,4.25,6.25,6.0,5.0,0.75,7.75,5.0,8.75,8.25,8.0,9.75,-0.11,0.08,0.95,1278.24,1.3,-25.6,2.25,0.5,0.5,2.75,0.0,0.0,0.0,0.25,0.0,1.0,0.0,0.0,0.25,0.39,-3.05,1.77,134.76,-16.7,45.3
0.48,2.5,3.25,4.25,5.75,6.0,5.5,0.25,7.75,4.75,9.25,7.75,8.0,9.25,-0.11,0.08,0.95,1277.82,0.8,-25.8,5.0,0.0,1.25,5.0,1.5,0.0,0.0,0.25,0.0,1.0,0.0,0.0,0.0,0.58,1.77,4.52,169.74,-19.5,59.6
0.5,3.0,3.5,4.25,6.5,6.25,4.75,0.75,7.75,4.5,9.75,8.25,8.5,9.5,-0.11,0.08,0.95,1289.17,1.4,-25.3,7.0,0.0,3.75,8.5,6.25,2.0,0.0,0.5,0.0,2.5,0.5,0.0,1.0,0.27,0.08,1.83,280.47,-12.3,45.0
0.52,2.75,3.5,4.25,5.25,6.0,4.0,0.0,7.75,4.25,9.75,8.25,8.5,10.5,-0.11,0.08,0.95,1278.21,0.9,-29.3,8.0,1.5,8.0,10.5,8.25,5.5,1.0,1.75,0.25,1.5,0.75,0.5,0.0,-0.23,0.2,1.27,478.6,-12.7,50.3
0.54,2.75,3.25,3.25,4.75,6.0,3.0,0.0,7.5,4.0,8.25,8.0,7.75,10.5,-0.05,0.08,0.95,1222.57,0.7,-30.6,8.75,2.5,8.75,11.5,8.75,6.25,5.25,0.0,1.0,3.0,0.0,0.5,1.0,-0.11,0.14,1.7,752.39,-13.2,48.0
0.56,0.5,2.0,2.0,4.25,2.25,1.75,0.0,7.0,3.25,8.75,7.0,8.0,9.25,-0.11,0.08,0.95,1089.37,-0.9,-47.0,8.5,2.75,8.75,11.0,8.5,6.5,6.25,3.75,2.5,4.25,2.5,2.0,2.0,0.02,0.2,1.14,1052.21,-10.3,28.3
0.58,1.75,1.75,3.25,3.25,4.25,1.75,0.0,6.25,2.75,8.75,7.0,8.25,9.5,-0.05,0.08,1.08,984.71,0.2,-41.1,8.25,3.0,9.0,10.5,9.0,6.75,6.75,5.0,3.0,4.25,2.75,2.0,2.5,0.02,0.08,1.02,1291.42,-9.5,25.4
0.6,2.5,3.0,2.0,3.25,2.5,1.5,0.0,6.0,2.75,8.75,6.5,8.25,11.0,-0.11,0.08,1.2,894.85,0.0,-43.7,8.0,3.0,9.0,10.5,9.25,7.25,7.0,5.5,3.0,4.75,4.25,2.0,2.25,0.02,0.14,1.02,1416.21,-9.0,22.7
0.62,2.5,3.0,3.75,3.75,5.5,1.25,0.0,5.5,2.25,7.5,6.75,7.5,11.0,-0.23,0.08,1.33,864.9,1.4,-33.3,8.0,3.0,9.0,10.5,9.25,7.0,6.75,5.25,3.0,4.25,3.75,2.0,2.5,0.02,0.14,0.95,1470.85,-9.2,23.7
0.64,2.25,2.75,4.0,4.5,2.5,1.75,0.0,5.25,2.25,7.5,6.0,7.5,10.5,-0.23,0.14,1.39,835.68,1.7,-36.2,8.0,2.75,8.75,10.5,8.75,6.75,6.75,5.0,3.0,4.25,3.25,2.0,2.25,0.02,0.14,0.95,1478.75,-9.4,24.4
0.66,2.5,3.25,3.75,4.5,2.5,1.5,0.0,3.75,2.25,5.75,4.0,5.5,7.75,-0.36,0.2,1.52,749.73,3.4,-24.4,7.5,2.5,8.75,10.5,8.5,6.75,6.5,4.75,2.5,4.25,3.0,1.75,2.25,0.02,0.14,0.95,1444.39,-9.3,25.1
0.68,1.25,1.75,4.0,2.5,2.25,0.5,0.0,3.5,2.0,1.75,4.5,4.5,6.75,-0.23,0.27,1.7,597.82,4.9,-30.0,7.0,2.5,8.25,9.0,8.5,6.75,5.75,4.75,2.5,4.25,3.0,1.75,1.75,0.02,0.14,0.95,1379.16,-8.8,24.5
0.7,2.75,3.0,2.0,4.5,4.75,1.25,0.0,3.25,2.25,1.5,4.0,3.0,5.75,-0.11,0.39,1.45,499.54,4.6,-7.8,6.5,2.5,8.0,8.75,8.5,6.5,5.5,4.75,2.25,4.25,3.25,1.75,2.5,0.02,0.14,0.89,1302.89,-8.2,21.9
0.72,1.25,2.0,3.75,3.25,2.25,0.0,0.0,3.0,3.25,1.5,4.0,1.5,4.75,0.27,1.2,0.83,396.97,7.0,-14.6,5.75,2.5,7.25,8.5,8.25,6.5,4.75,4.75,2.25,4.25,3.25,2.0,2.75,0.02,0.14,0.95,1182.85,-7.3,19.1
0.74,1.25,1.75,1.75,2.25,2.5,0.0,0.0,3.0,1.5,0.0,3.5,1.0,3.0,0.64,1.95,0.27,311.64,6.1,-8.3,5.0,2.25,7.0,8.5,7.75,6.5,4.25,4.75,2.25,5.0,3.25,2.0,2.5,0.02,0.14,0.95,1070.15,-6.7,16.6
0.76,1.25,1.75,1.75,2.5,0.5,0.0,0.0,2.0,1.75,0.0,2.0,0.5,2.75,1.39,1.52,1.39,241.37,8.8,-4.1,4.5,2.25,7.0,7.0,7.25,6.5,4.0,5.0,2.5,5.5,4.0,2.0,3.0,0.02,0.14,0.95,984.33,-5.8,11.1
0.78,1.0,1.75,2.0,2.25,2.25,0.0,0.0,1.75,1.75,0.0,2.0,0.5,2.0,0.77,1.52,1.2,194.23,8.7,6.2,3.75,2.0,6.25,7.0,7.25,6.75,3.75,5.5,2.5,6.0,4.5,3.0,3.5,0.02,0.14,0.95,938.12,-4.4,4.3
0.8,1.0,1.75,2.0,2.5,2.25,0.0,0.0,1.75,1.5,0.0,2.0,0.25,2.0,0.2,1.52,0.83,162.5,8.8,9.2,3.5,2.0,5.75,6.75,7.25,6.75,3.25,5.75,2.75,6.25,5.0,3.25,4.25,0.02,0.14,0.95,915.29,-3.6,0.0
0.82,1.0,2.0,2.0,2.75,2.25,0.0,0.0,1.75,1.5,0.0,2.0,0.0,1.5,0.27,1.39,0.95,150.01,9.6,16.6,3.5,2.0,5.75,6.75,7.25,6.75,2.75,6.5,2.75,7.0,5.25,4.5,5.0,0.02,0.14,0.95,935.85,-3.0,-5.0
0.84,1.0,1.75,2.0,2.5,2.25,0.0,0.0,1.75,1.5,0.0,2.0,0.0,1.5,0.2,1.14,1.27,152.38,9.5,14.6,3.5,1.75,5.5,6.75,7.0,6.75,2.75,6.75,2.5,7.25,5.75,4.5,5.25,0.02,0.14,0.95,962.85,-2.6,-7.1
0.86,1.25,1.75,4.25,4.5,3.0,1.5,0.0,3.25,2.25,0.0,3.0,0.75,1.25,-0.11,0.89,1.39,209.35,9.5,15.0,3.5,1.75,4.0,5.5,7.0,7.0,2.25,7.25,2.75,7.5,6.5,5.0,6.0,0.02,0.14,0.95,988.97,-1.0,-13.4
0.88,2.5,2.75,4.25,4.5,3.5,1.5,0.0,3.25,2.25,0.5,3.0,0.75,2.75,-0.36,0.7,1.45,280.08,8.8,14.0,3.0,1.75,4.0,5.25,7.0,7.0,2.25,7.25,2.5,7.75,6.5,5.5,6.5,0.02,0.14,0.95,1005.28,-0.6,-16.1
0.9,2.5,3.0,4.25,4.5,3.75,1.0,0.0,2.75,2.0,0.5,2.5,1.0,2.25,-0.42,0.52,1.45,349.89,9.9,18.6,2.75,1.5,3.75,5.0,7.0,6.75,1.75,7.5,2.5,8.0,6.5,5.5,7.0,0.08,0.14,0.95,1010.48,0.0,-18.9
0.92,2.5,2.75,4.25,4.5,4.25,1.5,0.0,3.0,2.25,1.25,3.0,0.75,2.75,-0.42,0.27,1.39,414.02,8.1,13.4,2.75,1.5,3.75,5.0,7.0,7.0,1.75,7.5,2.25,8.25,6.5,5.5,7.5,0.08,0.14,0.95,1017.28,0.3,-19.6
0.94,1.0,1.75,4.25,3.5,3.5,1.25,0.0,3.0,2.25,1.75,3.0,0.25,3.0,-0.42,0.14,1.33,428.96,6.3,2.9,2.5,1.75,3.75,5.0,7.0,6.75,1.75,7.5,2.25,8.25,6.5,5.5,7.5,0.08,0.14,0.95,1019.83,0.3,-19.7
0.96,2.5,3.0,4.25,4.5,3.0,1.5,0.0,3.25,2.25,2.0,3.0,0.25,2.75,-0.42,0.02,1.33,459.44,7.9,11.8,2.5,1.5,3.5,5.0,6.75,6.75,1.5,7.5,2.25,8.25,6.5,5.75,7.25,0.08,0.14,0.95,1017.36,0.4,-20.9
0.98,2.5,2.75,4.25,4.5,4.75,1.5,0.0,3.0,2.25,2.0,3.0,0.25,2.75,-0.42,-0.11,1.2,483.62,7.4,13.9,2.0,1.25,3.5,5.0,6.25,6.75,1.5,7.75,1.75,8.5,6.5,6.0,7.5,0.08,0.14,0.95,1002.93,0.9,-23.8
1.0,2.5,3.0,4.25,4.5,3.75,1.5,0.0,3.25,2.0,2.0,3.0,0.25,3.0,-0.42,-0.17,1.08,504.19,7.4,12.3,2.0,1.25,3.25,3.75,5.5,6.75,1.5,8.0,1.5,8.75,6.75,6.25,7.75,0.08,0.14,0.95,975.8,1.6,-28.0
1.02,2.5,2.5,4.25,4.5,4.25,1.5,0.0,3.0,2.0,1.5,3.0,0.75,2.75,-0.48,-0.36,0.95,505.85,7.9,12.5,1.0,1.0,3.25,2.75,5.5,6.75,1.25,7.75,1.25,8.75,6.5,5.5,7.75,0.08,0.14,0.95,927.5,2.8,-30.8
1.04,1.5,1.75,4.25,4.0,3.75,0.75,0.0,3.0,1.75,0.0,3.0,0.25,2.25,-0.61,-0.61,0.83,465.92,9.3,14.7,1.5,1.0,2.75,2.75,5.25,6.75,1.0,7.75,1.0,8.75,6.5,6.0,7.5,0.08,0.14,0.95,885.62,2.9,-31.5
1.06,2.5,2.75,4.25,4.0,3.5,1.5,0.0,3.0,1.75,0.5,1.5,0.75,2.75,-0.73,-0.86,0.7,437.54,8.7,19.0,1.25,1.0,2.0,2.5,5.0,6.5,0.5,7.75,1.0,8.5,6.0,5.5,8.0,0.08,0.14,0.95,838.89,4.0,-34.1
1.08,2.5,2.75,4.25,4.5,3.75,1.5,0.0,3.0,2.0,1.0,2.75,0.75,2.75,-0.8,-0.98,0.64,422.52,8.5,14.5,1.25,1.0,1.5,2.5,3.25,6.0,0.0,7.5,1.0,7.75,5.25,4.5,8.0,0.02,0.14,1.02,774.07,4.7,-36.8
1.1,2.5,2.25,4.25,2.5,3.0,0.0,0.0,3.0,1.5,0.0,2.75,0.0,2.75,-0.98,-0.98,0.7,383.41,10.7,15.0,1.0,1.0,0.75,2.5,2.75,5.25,0.0,6.5,1.0,6.75,3.75,3.25,7.5,0.02,0.2,1.08,674.35,5.7,-36.5
1.12,2.75,3.0,2.5,4.75,3.5,0.25,0.0,2.75,1.5,0.0,2.5,1.25,1.0,-1.86,-1.42,3.33,366.32,10.9,23.9,1.0,1.0,0.75,2.25,2.25,3.25,0.0,5.5,0.5,5.25,2.0,1.0,6.25,-0.23,0.33,1.58,527.46,6.0,-30.9
1.14,4.0,1.75,2.0,3.75,2.5,1.25,0.0,1.5,1.5,0.0,1.25,0.25,1.0,-0.92,-1.67,1.33,329.11,12.2,35.3,0.25,0.0,0.25,0.0,0.0,1.0,0.0,2.75,0.0,2.5,0.75,0.5,2.75,0.33,0.58,2.02,326.12,10.7,-60.0
1.16,4.5,3.5,3.5,6.25,3.5,0.0,0.0,1.5,1.5,0.0,1.25,1.25,2.0,-1.67,-0.55,1.58,341.5,14.1,34.3,0.0,0.0,0.0,0.0,1.0,1.0,0.0,2.0,0.0,2.25,0.25,0.0,1.75,0.14,0.58,2.02,187.87,13.8,-44.0
1.18,4.75,3.5,5.75,6.5,6.25,2.5,0.0,1.5,1.75,1.0,1.75,1.25,1.5,-0.17,0.39,1.64,403.03,11.6,35.3,0.0,0.0,0.5,0.75,0.0,2.25,0.0,1.5,0.75,1.5,0.75,0.5,1.0,-0.61,2.52,0.14,71.14,6.0,-29.0
1.2,5.25,2.25,5.75,8.75,6.0,3.25,1.25,0.25,2.0,0.0,1.75,1.5,1.0,0.08,0.08,1.64,490.31,13.9,40.7,1.0,0.75,1.25,2.5,1.75,2.25,0.0,2.0,1.0,2.5,2.5,0.5,2.0,-0.67,2.52,0.77,67.36,-1.1,-9.3
1.22,5.5,3.5,6.5,9.5,8.0,5.5,4.75,3.5,4.5,4.5,2.0,2.75,2.5,-0.17,-0.05,1.39,700.84,8.2,19.4,1.25,0.0,0.75,0.0,1.5,1.0,0.0,1.75,0.25,1.0,0.25,0.25,0.0,-1.17,1.39,0.89,38.4,-0.7,10.8
1.24,5.75,3.5,8.0,8.25,9.25,6.75,6.25,6.25,5.75,6.0,6.0,4.75,4.75,-0.05,0.14,1.08,1006.07,6.5,4.4,0.75,0.0,0.5,0.0,1.25,0.75,0.0,0.5,0.25,1.0,0.0,0.0,0.25,-0.8,1.45,1.14,19.96,0.2,12.7
1.26,5.75,3.5,7.75,9.5,9.25,7.0,6.5,7.25,6.25,6.25,7.5,5.5,5.75,-0.05,0.02,1.02,1331.44,6.1,0.4,0.5,0.0,0.5,0.0,0.0,0.75,0.0,0.5,0.25,0.75,0.0,0.0,0.0,-0.36,1.45,0.77,0.0,-0.8,4.9
1.28,5.75,3.5,7.75,9.75,9.5,7.5,6.5,7.75,6.25,6.25,7.75,5.5,5.75,-0.11,0.08,0.95,1518.1,5.8,0.5,0.75,0.0,0.5,0.0,1.25,0.5,0.0,0.25,0.25,1.0,0.0,0.0,0.25,-0.36,1.33,0.77,0.0,-1.6,14.4
1.3,5.5,3.5,7.5,9.75,9.5,7.25,6.25,7.5,6.0,6.25,7.5,5.25,5.75,-0.11,0.08,0.95,1616.59,5.7,0.7,0.75,0.0,0.5,0.0,1.0,0.5,0.0,0.5,0.25,1.0,0.25,0.0,0.25,-0.55,1.2,1.14,0.0,-1.4,5.2
1.32,5.0,3.5,7.25,9.75,9.5,7.0,6.25,7.25,5.75,6.0,6.75,4.5,5.5,-0.11,0.08,0.95,1633.88,5.6,2.3,0.5,0.0,0.5,0.0,1.25,0.0,0.0,0.5,0.25,1.0,0.0,0.0,0.0,-0.36,1.08,1.52,0.0,-2.4,11.9
1.34,4.5,3.5,7.25,9.0,9.5,7.0,5.75,7.0,5.25,5.25,6.0,4.25,5.0,-0.05,0.08,0.95,1595.01,5.6,4.1,0.5,0.0,0.5,0.0,1.25,0.5,0.0,0.5,0.25,0.75,0.0,0.0,0.25,-0.11,1.02,1.52,11.24,0.0,12.1
1.36,4.25,3.5,6.75,8.25,9.25,6.75,5.25,6.75,5.0,5.0,5.75,2.75,4.75,-0.05,0.08,0.95,1515.08,5.3,6.0,0.0,0.0,0.5,0.0,1.25,0.0,0.0,0.5,0.25,1.0,0.25,0.0,0.25,0.08,0.89,1.45,32.59,1.6,-10.0
1.38,4.25,3.5,6.0,8.0,8.5,6.25,4.75,6.5,4.75,4.5,5.25,3.0,4.75,-0.05,0.08,0.95,1415.66,5.2,5.4,0.0,0.0,0.5,0.0,1.25,0.0,0.0,0.5,0.25,0.75,0.0,0.0,0.75,0.14,0.7,1.45,48.06,3.0,-14.5
1.4,4.0,3.5,5.75,8.0,8.0,5.75,3.5,6.5,4.5,5.5,5.75,3.0,4.75,-0.11,0.08,0.95,1312.12,4.7,2.5,0.0,0.0,0.5,0.0,1.0,0.0,0.0,0.25,0.25,0.75,0.0,0.0,0.25,0.33,0.45,1.39,41.69,0.1,-3.4
1.42,3.75,3.5,5.75,8.0,8.0,5.75,3.0,6.75,4.5,6.0,5.75,4.0,4.75,-0.11,0.08,0.95,1214.23,4.4,-0.2,0.0,0.0,0.5,0.0,0.25,0.0,0.0,0.5,0.25,1.0,0.0,0.0,0.5,0.45,0.27,1.39,35.26,3.0,-37.2
1.44,3.25,3.5,5.5,7.0,8.0,6.0,2.25,6.75,4.25,5.0,6.0,3.0,5.5,-0.11,0.08,0.95,1121.66,3.6,-0.7,0.5,0.0,0.5,0.0,0.25,0.0,0.0,0.25,0.25,0.75,0.0,0.0,1.5,0.52,0.02,1.2,35.76,-0.2,-37.6
1.46,2.5,2.25,4.25,6.25,6.5,5.75,1.25,6.25,4.25,6.25,5.25,4.5,5.0,-0.11,0.08,0.95,994.98,2.2,-10.0,0.0,0.0,0.5,0.0,0.25,0.0,0.0,0.5,0.25,0.75,0.0,0.0,0.5,0.52,-0.11,0.95,44.55,1.9,-33.8
1.48,2.5,2.5,4.25,6.25,8.0,6.25,1.0,7.0,5.0,7.5,6.5,5.5,6.75,-0.11,0.08,0.95,968.37,1.3,-14.7,0.0,0.0,0.5,0.0,0.25,0.25,0.0,0.5,0.25,0.75,0.0,0.0,0.5,0.52,-0.3,0.83,45.77,3.5,-28.5
1.5,2.75,3.5,4.5,6.5,8.0,6.25,1.0,7.5,5.0,7.5,7.0,6.5,7.5,-0.11,0.08,0.95,1005.15,1.6,-15.1,0.5,0.0,0.5,0.0,1.0,0.0,0.0,0.25,0.25,0.75,0.0,0.0,0.5,0.52,-0.48,0.77,49.23,-3.1,1.6
1.52,2.75,3.5,4.25,6.5,7.75,6.0,0.75,7.75,5.0,7.5,7.0,6.75,7.5,-0.11,0.08,0.95,1067.39,1.5,-16.2,0.0,0.0,0.5,0.0,0.5,0.25,0.0,0.5,0.25,0.75,0.0,0.0,0.25,0.45,-0.67,0.7,47.14,2.6,-14.0
1.54,2.75,3.5,4.25,6.25,7.75,6.25,0.75,7.75,5.0,8.75,7.5,7.0,8.5,-0.11,0.08,0.95,1143.91,0.9,-19.2,0.25,0.0,0.5,0.0,1.25,0.0,0.0,0.5,0.25,0.75,0.0,0.0,0.5,0.39,-0.73,0.7,53.08,0.2,-2.4
1.56,3.0,3.5,4.25,6.25,7.25,5.75,0.25,7.75,5.0,8.5,7.75,7.5,8.5,-0.11,0.08,0.95,1199.05,1.3,-20.5,0.0,0.0,0.5,0.0,1.0,0.0,0.0,0.5,0.25,0.75,0.25,0.0,0.25,0.33,-0.86,0.77,55.26,0.5,-10.5
1.58,2.75,3.5,4.25,6.25,7.0,5.75,0.0,8.0,4.5,8.75,7.75,7.75,9.25,-0.11,0.08,0.95,1233.19,0.8,-22.5,0.0,0.0,0.5,0.0,0.5,0.0,0.0,0.25,0.25,0.75,0.0,0.0,0.0,0.45,-0.86,0.7,50.42,-2.0,-5.7
1.6,2.75,3.5,4.25,6.25,6.5,5.75,0.0,7.75,4.5,8.75,7.75,7.75,9.25,-0.11,0.08,0.95,1243.11,0.9,-23.1,0.5,0.0,0.5,0.0,1.0,0.0,0.0,0.5,0.0,0.75,0.0,0.0,0.5,0.64,-0.98,0.64,52.5,-1.2,1.6
1.62,2.0,2.75,4.25,4.75,6.5,6.0,0.0,7.75,4.5,8.75,6.75,8.0,8.0,-0.11,0.08,0.95,1211.17,0.2,-25.2,1.0,0.0,0.5,0.5,0.25,0.0,0.0,0.0,0.0,0.75,0.0,0.0,0.25,1.27,-1.86,0.77,52.59,-13.8,25.5
1.64,2.5,3.5,4.25,5.5,6.0,5.25,0.0,7.75,4.25,8.75,7.5,8.0,8.75,-0.11,0.08,0.95,1187.92,0.9,-24.8,5.5,0.5,0.5,2.25,0.0,0.0,0.0,0.0,0.0,0.0,0.0,0.0,0.5,0.39,1.02,0.58,90.08,-26.4,73.5
1.66,2.5,3.25,3.75,5.25,6.0,5.5,0.0,7.75,4.5,9.5,7.0,8.25,8.5,-0.11,0.08,0.95,1163.4,0.3,-26.1,7.75,0.25,2.25,5.0,0.0,0.5,0.0,0.75,0.25,2.5,0.75,0.25,1.0,0.52,1.77,5.08,178.48,-17.6,36.7
1.68,2.5,3.25,3.75,5.25,6.0,4.5,0.0,7.75,3.75,9.0,7.5,8.25,10.5,-0.11,0.08,0.95,1161.39,0.3,-29.1,8.75,0.75,7.0,6.25,5.25,0.5,0.0,0.75,0.25,1.5,0.75,0.5,1.0,0.27,0.27,1.64,304.32,-18.1,48.8
1.7,2.5,3.0,3.0,4.75,6.0,4.25,0.0,7.75,3.75,7.5,7.0,7.75,10.5,-0.11,0.08,0.95,1124.33,0.0,-29.6,9.0,2.5,8.75,10.5,7.0,3.25,1.5,0.75,0.25,2.5,0.0,0.5,0.75,-0.05,0.2,1.64,518.43,-15.3,51.5
1.72,1.25,2.75,3.0,4.5,6.0,3.5,0.0,7.75,3.0,9.75,7.25,8.5,10.5,-0.11,0.08,0.95,1094.11,-0.9,-35.7,9.5,2.25,9.5,11.5,8.5,5.5,0.0,1.75,1.0,2.75,0.25,0.5,1.0,0.08,0.2,1.89,776.8,-12.7,46.9
1.74,2.25,2.75,3.0,4.5,5.75,3.0,0.0,7.75,3.0,10.0,7.25,8.75,11.0,-0.11,0.08,1.02,1079.86,-0.4,-35.7,8.75,2.5,9.5,10.5,8.5,6.5,7.5,4.0,3.75,5.25,4.25,3.25,2.25,-0.11,0.14,1.14,1106.78,-10.3,20.4
1.76,2.25,2.75,2.25,3.25,5.75,2.5,0.0,7.25,2.75,9.75,7.0,8.5,11.0,-0.11,0.08,1.08,1056.74,-1.0,-38.5,8.75,2.5,9.5,10.5,8.5,6.75,7.75,5.75,4.25,5.5,5.25,3.25,3.75,0.02,0.02,1.08,1373.51,-9.1,14.8
1.78,2.25,3.0,2.5,2.75,5.75,1.75,0.0,6.25,2.5,9.75,6.5,8.0,11.0,-0.17,0.08,1.14,1015.65,-0.6,-38.3,8.25,2.5,9.25,10.5,8.75,7.25,7.25,5.25,3.5,5.25,5.25,3.25,3.75,0.02,0.14,0.95,1513.63,-8.7,15.5
1.8,2.25,3.0,2.5,3.25,3.75,1.5,0.0,6.0,2.25,8.75,6.0,7.5,11.0,-0.36,0.14,1.39,952.21,-0.2,-39.9,8.0,2.5,9.0,10.5,9.0,7.25,7.5,5.25,3.5,5.25,5.0,3.0,3.5,0.08,0.14,0.95,1575.63,-8.6,16.4
1.82,2.25,3.0,3.0,4.5,1.75,1.25,0.0,5.25,2.25,7.5,5.25,7.0,10.5,-0.3,0.2,1.52,867.76,1.2,-38.3,7.75,2.5,9.0,9.25,8.75,7.25,7.0,5.25,3.5,5.5,5.25,3.25,3.75,0.02,0.14,0.95,1580.84,-8.2,13.8
1.84,1.5,1.75,2.75,4.5,5.0,1.0,0.0,5.0,2.25,6.5,5.0,5.75,9.25,-0.3,0.2,1.52,779.86,0.6,-33.2,7.0,2.5,8.75,8.5,8.5,6.75,6.75,5.25,3.5,5.75,5.25,3.25,3.75,0.02,0.14,0.95,1538.31,-7.9,11.7
1.86,2.25,3.25,3.0,4.75,4.5,1.25,0.0,3.5,2.25,4.5,4.0,3.25,7.25,-0.3,0.33,1.7,679.89,3.1,-15.5,5.75,2.0,8.0,7.5,8.0,6.5,6.25,5.0,3.25,5.75,5.25,3.25,4.0,0.02,0.14,0.95,1454.56,-7.0,7.7
1.88,2.25,2.75,3.0,4.5,3.5,1.25,0.0,3.75,2.25,2.75,3.5,2.0,5.75,-0.23,0.39,1.39,567.59,4.2,-9.4,5.0,2.0,7.25,6.75,7.5,6.5,5.5,5.0,3.0,5.75,5.25,3.5,4.0,0.02,0.14,0.95,1348.33,-6.2,4.7
1.9,2.25,3.0,3.0,2.25,4.25,0.75,0.0,3.5,2.25,2.75,3.5,1.5,3.5,0.27,1.95,0.45,463.22,4.9,-3.6,3.5,1.5,7.0,5.25,6.75,6.25,4.75,4.75,2.75,5.75,5.25,4.25,4.5,0.02,0.14,0.95,1187.41,-5.0,-2.7
1.92,0.75,1.75,2.0,0.75,1.25,0.0,0.0,2.25,1.5,0.25,2.0,1.25,3.0,0.64,1.89,0.14,319.85,5.9,-16.9,3.5,1.5,5.75,5.0,6.0,6.0,3.5,4.5,2.5,6.0,5.25,4.5,5.25,0.02,0.14,0.95,1025.85,-4.0,-7.6
1.94,0.5,1.75,1.75,0.5,2.25,0.0,0.0,2.0,1.5,0.0,2.0,0.25,2.25,1.33,1.52,1.58,227.2,5.5,-3.8,2.5,1.25,5.5,5.0,6.0,5.5,2.75,4.5,2.25,6.25,5.25,4.5,5.5,0.02,0.14,0.95,893.28,-3.1,-11.3
1.96,0.5,2.0,1.75,2.25,2.25,0.0,0.0,2.0,1.5,0.0,2.0,0.25,2.25,1.02,1.33,1.52,157.68,6.8,4.2,2.5,1.0,3.75,3.75,5.25,5.5,2.25,5.0,2.25,6.75,5.25,5.5,6.25,0.02,0.14,0.95,793.17,-1.0,-21.2
1.98,0.5,1.75,1.75,2.25,2.25,0.0,0.0,2.0,1.5,0.0,2.0,0.25,2.0,0.33,1.45,0.89,127.28,7.1,4.5,1.25,0.25,3.5,2.75,5.25,5.5,1.5,5.5,2.25,7.5,5.75,6.5,7.5,0.02,0.14,0.95,730.68,1.0,-32.7
2.0,1.25,2.25,2.0,2.5,1.75,0.0,0.0,2.5,1.5,0.5,2.0,1.0,3.0,0.08,1.39,1.02,142.43,6.9,-2.7,1.5,0.75,2.5,2.5,4.5,5.75,1.0,6.0,2.0,8.25,6.5,6.75,8.0,0.02,0.14,0.95,718.88,2.0,-36.6
2.02,1.75,1.75,1.75,3.0,2.5,0.0,0.0,3.0,1.5,0.0,3.0,0.25,3.25,0.33,1.2,1.27,177.79,6.6,-0.1,1.5,1.0,2.25,2.5,5.25,5.75,1.0,6.5,1.75,8.25,6.75,7.25,8.5,0.02,0.14,0.95,744.84,2.3,-36.5
2.04,0.5,1.75,1.75,4.5,2.25,1.25,0.0,1.75,2.25,1.25,2.0,1.25,1.5,0.14,1.02,1.52,212.99,6.3,3.8,1.0,1.25,2.0,2.5,5.0,5.75,1.0,6.75,1.75,8.75,6.75,7.75,8.75,0.02,0.14,0.95,783.63,2.8,-39.1
2.06,2.25,1.75,4.0,3.0,3.5,0.0,0.0,3.25,1.5,0.0,3.0,0.0,3.0,-0.17,0.77,1.58,252.8,9.5,11.2,1.25,1.0,1.5,2.5,5.0,5.75,0.75,7.0,1.75,8.75,6.5,7.75,9.25,0.08,0.14,0.95,823.94,3.4,-40.7
2.08,0.5,1.75,4.25,2.25,3.75,0.0,0.0,2.5,2.25,0.0,2.0,0.0,1.25,-0.3,0.58,1.58,269.4,10.3,18.3,1.0,1.0,1.25,2.5,5.25,6.0,0.75,7.25,1.75,9.25,6.5,7.75,9.25,0.08,0.14,0.95,862.73,3.9,-41.2
2.1,2.25,2.5,1.75,4.5,2.25,0.0,0.0,2.25,1.5,0.0,3.0,1.25,2.75,-0.3,0.33,1.52,292.54,9.4,7.0,1.25,1.0,1.5,2.5,5.0,5.5,0.5,7.25,1.5,9.25,6.75,7.75,9.25,0.08,0.14,0.95,890.77,3.5,-41.5
2.12,0.5,1.75,2.0,2.25,2.25,0.0,0.0,1.75,1.5,0.0,2.0,0.0,1.25,-0.36,0.14,1.45,275.92,9.0,13.5,1.25,1.0,1.5,2.5,5.0,5.5,0.5,7.25,1.5,9.25,6.5,7.75,9.5,0.08,0.08,0.95,910.84,3.6,-41.7
2.14,0.75,2.0,2.0,4.5,2.5,1.25,0.0,2.0,2.0,1.0,2.0,1.25,3.0,-0.42,0.02,1.39,294.32,5.5,0.6,0.75,1.0,1.5,2.5,4.75,5.5,0.5,7.5,1.5,9.25,6.75,7.75,9.5,0.08,0.14,0.95,924.68,3.9,-43.4
2.16,0.5,1.75,2.0,2.25,2.5,0.0,0.0,1.75,1.5,0.0,1.75,0.25,1.0,-0.36,-0.11,1.27,276.01,9.1,15.7,1.25,1.0,0.75,2.5,4.25,5.5,0.25,7.5,1.25,9.25,6.5,7.75,9.25,0.08,0.08,0.95,920.91,4.4,-44.4
2.18,0.25,1.5,2.0,2.5,2.5,0.0,0.0,3.25,1.5,0.0,2.0,0.0,1.0,-0.36,-0.17,1.08,265.02,6.5,9.7,1.25,1.0,1.0,2.5,3.5,5.5,0.0,7.5,1.0,9.25,6.5,7.75,9.25,0.08,0.14,0.95,907.28,4.3,-45.6
2.2,1.25,0.0,3.75,0.0,0.0,0.0,0.0,1.75,0.0,0.0,1.75,0.0,1.0,-0.42,-0.23,1.08,212.36,17.2,4.3,1.0,1.0,0.75,2.5,3.0,5.5,0.0,7.5,1.0,9.25,6.25,7.75,9.5,0.08,0.14,0.95,886.54,4.8,-47.9
2.22,2.25,2.75,4.0,4.5,3.0,1.25,0.0,3.0,2.0,1.25,3.0,1.25,2.75,-0.42,-0.3,1.08,266.54,8.4,8.9,2.25,1.25,0.75,2.25,2.25,5.5,0.0,7.5,1.0,9.25,6.0,7.0,9.5,0.08,0.14,0.95,859.34,4.3,-45.2
2.24,2.25,2.75,3.75,4.5,3.0,1.25,0.0,2.75,2.0,1.0,2.5,1.25,3.0,-0.55,-0.3,1.02,307.53,8.3,9.9,0.75,0.75,0.75,0.0,1.75,5.25,0.0,7.5,1.0,9.25,6.0,6.75,9.5,0.08,0.14,0.95,811.45,6.6,-57.0
2.26,0.0,0.0,3.75,0.0,2.5,0.0,0.0,5.25,2.25,0.0,0.0,0.5,0.0,-0.61,-0.36,0.95,300.42,5.5,3.1,0.75,1.25,0.75,0.0,1.75,4.5,0.0,7.5,1.0,9.25,5.25,6.75,9.5,0.08,0.14,0.95,766.63,6.4,-56.4
2.28,2.5,2.75,0.0,4.75,0.0,1.25,0.0,0.0,2.0,1.25,0.0,1.0,0.0,-0.73,-0.42,0.95,278.49,12.1,35.8,0.0,1.0,0.75,0.5,1.75,4.0,0.0,7.25,0.75,9.25,5.25,6.25,9.75,0.08,0.14,1.02,723.55,7.0,-59.1
2.3,2.25,2.5,4.0,4.5,2.5,1.25,0.0,3.0,2.0,1.25,2.75,1.25,3.0,-0.86,-0.48,0.77,302.23,8.4,7.0,0.0,1.0,0.75,0.0,1.25,4.0,0.0,7.0,0.75,8.75,4.0,5.5,9.5,0.02,0.14,1.08,670.06,7.9,-60.3
2.32,2.5,2.75,5.0,5.0,4.25,4.5,2.25,5.75,3.25,0.0,3.25,0.0,0.0,-0.92,-0.55,0.77,381.49,7.9,25.8,0.75,0.25,1.0,1.5,1.75,3.25,0.0,6.75,0.5,8.25,3.25,4.5,9.0,0.02,0.2,1.2,614.85,6.6,-53.3
2.34,0.0,0.0,3.25,0.0,0.0,0.0,0.0,0.0,2.5,0.0,2.75,0.0,3.0,-0.98,-0.67,0.77,335.02,12.5,-37.3,0.0,0.0,0.5,0.0,1.75,1.25,0.0,5.5,0.0,5.5,2.5,3.25,7.75,0.14,0.2,1.27,503.11,8.7,-65.7
2.36,2.25,2.5,3.0,4.5,3.75,1.0,0.0,2.75,1.75,1.25,2.5,1.0,2.75,-1.86,-1.36,1.08,372.31,7.4,10.6,0.0,0.0,0.0,0.0,0.0,1.25,0.0,3.5,0.25,4.5,0.75,1.75,6.5,0.27,0.33,1.83,369.23,11.9,-76.7
2.38,2.75,3.25,3.75,5.25,4.75,0.0,0.0,1.75,1.5,0.0,2.5,0.0,2.75,-0.98,-1.55,0.83,369.9,11.3,27.7,0.75,0.0,1.0,0.0,1.25,0.75,0.0,3.0,0.0,2.5,2.0,0.75,6.0,0.33,0.7,2.08,273.91,5.6,-53.6
2.4,1.75,1.75,4.25,2.0,17.0,0.25,0.0,1.75,1.5,1.25,1.25,1.25,0.0,-0.36,0.58,2.39,446.69,5.6,36.4,0.0,0.0,0.0,0.0,0.0,0.0,0.75,1.75,0.25,2.5,0.75,0.25,3.0,0.14,0.64,1.14,176.4,9.6,-76.0
2.42,4.25,2.25,4.75,6.5,5.75,0.25,0.0,1.5,1.5,0.75,1.75,1.25,1.0,-0.36,0.45,1.27,475.0,13.5,34.5,1.0,0.25,0.0,1.0,0.0,0.75,0.0,0.75,0.75,2.25,0.25,0.0,2.75,-0.61,2.39,-0.3,100.24,3.8,-36.3
2.44,4.75,3.5,6.75,8.75,7.75,2.25,2.25,0.0,2.25,1.5,2.5,0.75,2.75,0.14,0.02,1.52,599.95,12.5,33.7,1.0,0.0,0.0,1.25,0.0,0.25,0.0,0.5,0.75,4.0,0.5,0.5,1.75,-0.73,2.39,0.64,54.23,2.6,-44.1
2.46,5.5,3.5,7.75,9.25,8.0,5.75,5.5,4.75,5.25,4.5,3.25,3.0,3.0,-0.17,-0.05,1.08,799.46,8.2,15.3,1.25,0.0,1.25,1.75,1.5,0.75,0.0,2.0,0.75,3.0,0.25,0.5,1.5,-0.98,1.33,1.27,63.47,-0.9,-10.7
2.48,4.25,3.5,7.5,8.75,8.0,6.25,6.75,7.0,6.5,6.25,7.5,5.75,5.75,-0.23,0.02,1.14,1116.72,5.9,-3.4,0.0,0.0,0.5,0.0,1.0,0.0,0.0,0.5,0.25,1.25,0.25,0.25,0.75,-0.36,1.33,1.39,32.24,3.0,-32.5
2.5,4.0,3.5,7.25,9.75,8.75,7.0,7.0,7.75,6.5,6.75,8.25,6.0,6.75,-0.11,-0.05,1.08,1405.64,5.1,-5.1,0.0,0.0,0.5,0.25,0.25,0.25,0.0,0.5,0.25,1.25,0.25,0.25,0.5,-0.23,1.14,1.14,9.53,2.1,-36.1
2.52,4.25,3.5,7.25,10.0,9.5,7.0,7.0,7.75,6.25,6.5,7.75,5.5,6.5,-0.11,0.08,0.95,1553.4,5.2,-2.5,0.0,0.0,0.5,0.0,1.0,0.25,0.0,0.5,0.25,1.0,0.25,0.25,0.5,-0.3,0.83,1.27,0.0,2.7,-22.5
2.54,4.0,3.5,7.5,9.75,9.5,7.0,7.0,7.75,6.25,6.25,7.75,5.5,6.25,-0.11,0.08,0.95,1619.58,5.3,-2.2,0.0,0.0,0.5,0.0,0.25,0.5,0.0,0.5,0.25,1.0,0.0,0.25,1.0,-0.17,0.58,1.39,0.0,5.8,-42.2
2.56,4.0,3.5,7.5,9.75,9.5,7.0,6.75,7.5,6.0,6.25,7.5,5.5,6.0,-0.11,0.08,0.95,1637.71,5.3,-1.5,0.75,0.0,0.5,0.25,1.0,0.25,0.0,0.5,0.25,1.0,0.0,0.0,0.25,0.02,0.33,1.39,0.0,-3.0,10.7
2.58,4.0,3.5,7.25,8.5,9.25,6.75,6.0,7.25,5.75,6.25,7.0,5.5,6.0,-0.05,0.08,0.95,1623.83,5.0,-2.4,0.0,0.0,0.5,0.0,1.0,0.0,0.0,0.5,0.25,0.75,0.0,0.0,0.5,0.02,0.2,1.27,17.76,2.2,-13.2
2.6,3.75,3.5,6.0,8.0,8.75,5.75,5.5,7.0,5.5,6.0,7.0,5.5,6.0,-0.11,0.08,0.95,1540.84,4.7,-4.7,0.0,0.0,0.5,0.0,0.5,0.5,0.0,0.5,0.25,1.0,0.0,0.0,0.5,0.02,0.14,1.02,30.38,5.5,-21.5
2.62,3.0,3.5,5.75,8.0,8.25,5.75,4.25,7.0,5.25,5.75,6.25,5.25,5.75,-0.11,0.08,0.95,1451.2,4.2,-4.8,0.0,0.0,0.5,0.0,0.25,0.0,0.0,0.5,0.25,1.0,0.0,0.0,0.5,0.2,0.02,1.02,28.98,3.0,-37.2
2.64,2.25,2.5,5.75,6.5,7.75,5.0,3.25,6.75,4.5,6.25,5.25,5.25,5.5,-0.11,0.08,0.95,1323.6,3.4,-8.8,0.0,0.0,0.5,0.0,0.0,0.0,0.0,0.5,0.25,0.75,0.0,0.0,0.25,0.33,-0.11,0.89,28.39,0.4,-36.3
2.66,2.25,2.5,3.75,6.25,7.0,4.25,1.75,6.25,4.25,5.25,5.25,5.5,5.75,-0.11,0.08,0.95,1140.45,2.6,-12.7,0.0,0.0,0.5,0.0,0.0,0.0,0.0,0.25,0.25,0.75,0.0,0.0,0.75,0.33,-0.11,0.7,23.36,1.5,-51.0
2.68,2.0,2.0,3.5,6.25,6.5,4.5,1.0,6.25,4.25,6.25,5.25,5.5,5.75,-0.11,0.08,0.95,968.02,1.7,-16.2,0.0,0.0,0.5,0.0,0.25,0.0,0.0,0.0,0.25,0.75,0.0,0.0,0.25,0.45,-0.17,0.58,18.85,-3.1,-23.1
2.7,2.25,3.5,4.25,6.5,7.25,4.5,1.0,6.75,4.0,6.25,6.0,5.5,6.75,-0.11,0.08,0.95,895.43,2.2,-13.1,0.25,0.0,0.5,0.0,0.0,0.5,0.0,0.0,0.25,0.75,0.0,0.0,0.5,0.45,-0.23,0.58,22.71,-0.4,-19.1
2.72,1.25,2.0,2.75,5.5,6.25,4.5,0.0,6.25,3.75,6.25,5.75,5.5,6.75,-0.11,0.08,0.95,820.43,0.1,-22.3,0.0,0.0,0.75,0.0,0.5,0.0,0.0,0.0,0.25,0.75,0.0,0.0,0.5,0.45,-0.3,0.58,33.36,-4.1,-15.6
2.74,1.25,2.0,2.0,4.75,6.25,4.5,0.0,6.5,4.0,7.5,5.75,6.75,7.5,-0.11,0.08,0.95,798.47,-0.9,-28.6,0.0,0.0,0.5,0.0,0.25,0.0,0.0,0.0,0.25,0.75,0.0,0.0,0.25,0.39,-0.36,0.64,32.34,-3.1,-23.1
2.76,2.25,3.5,4.25,6.0,6.25,5.75,0.0,7.0,4.0,8.75,6.0,7.25,8.5,-0.11,0.08,0.95,856.59,0.6,-21.4,1.0,0.25,0.5,0.0,0.25,0.0,0.0,0.0,0.25,0.75,0.0,0.0,0.5,0.39,-0.36,0.7,38.6,-11.0,11.7
2.78,2.25,3.5,3.0,5.5,7.0,5.75,0.0,7.5,4.25,8.75,6.75,7.75,9.25,-0.11,0.08,0.95,941.51,-0.2,-24.8,0.0,0.0,0.5,0.0,0.5,0.0,0.0,0.0,0.25,1.0,0.0,0.0,0.25,0.52,-0.3,0.77,38.9,-0.6,-19.6
2.8,2.25,3.5,3.75,5.75,6.5,5.75,0.0,7.75,3.75,9.25,7.0,8.0,9.75,-0.11,0.08,0.95,1037.61,0.0,-25.6,1.75,1.0,0.5,1.25,0.0,0.5,0.0,0.0,0.25,2.5,0.0,0.5,0.25,0.52,-0.23,0.83,73.02,-7.8,12.2
2.82,2.25,2.5,2.5,5.25,6.5,5.75,0.0,7.75,3.75,9.75,7.0,8.0,10.0,-0.11,0.08,0.95,1104.02,-1.1,-30.2,0.0,0.0,0.5,0.0,0.25,0.5,0.0,0.0,0.5,2.5,0.0,0.5,0.0,0.52,-0.23,0.83,82.11,4.3,-41.8
2.84,2.25,3.25,3.0,4.75,6.5,5.75,0.0,8.0,3.5,8.75,7.0,7.75,10.5,-0.11,0.08,0.95,1144.34,-0.9,-28.4,0.0,0.25,1.75,0.0,1.5,0.0,0.0,0.5,0.25,0.75,0.75,0.0,1.25,0.58,-0.23,0.83,103.46,-5.4,-7.3
2.86,2.25,3.25,2.75,5.25,6.25,5.75,0.0,8.0,3.25,9.75,7.0,8.0,10.5,-0.11,0.08,0.95,1164.32,-1.1,-29.3,1.0,0.25,0.5,0.5,0.25,0.0,0.0,0.0,0.25,0.75,0.0,0.0,0.5,0.64,-0.36,1.02,95.8,-11.8,17.7
2.88,2.25,3.5,2.75,4.75,6.25,5.75,0.0,8.25,3.0,9.5,6.5,7.5,10.5,-0.11,0.08,0.95,1172.39,-1.4,-28.5,0.0,0.0,0.5,0.0,1.25,0.0,0.0,0.25,0.0,0.75,0.0,0.0,0.75,0.39,-1.36,5.45,88.2,3.1,-11.3
2.9,0.75,1.75,3.0,4.5,6.0,4.5,0.0,8.25,3.0,9.75,6.25,8.0,10.5,-0.11,0.08,0.95,1153.83,-2.0,-36.6,2.0,1.0,1.0,2.5,1.25,0.5,0.0,0.5,0.25,2.5,0.0,0.5,0.25,-0.17,-1.05,0.95,120.54,-8.2,23.4
2.92,2.25,3.0,2.5,4.5,6.0,5.0,0.0,8.25,2.75,9.5,6.0,8.0,9.25,-0.11,0.08,0.95,1119.35,-1.3,-29.8,2.0,1.25,2.5,2.75,3.5,3.75,0.0,2.0,1.0,4.25,0.75,2.0,0.75,0.02,-0.67,2.64,219.12,-2.3,6.5
2.94,0.5,2.0,2.25,4.0,6.0,3.75,0.0,7.75,2.25,8.75,5.5,7.25,9.5,-0.11,0.08,0.95,1041.0,-2.5,-36.1,3.0,1.25,3.5,2.5,5.0,3.75,0.0,3.75,2.5,6.75,5.0,6.25,5.0,0.14,0.52,1.2,385.26,-1.9,-23.7
2.96,0.5,1.75,2.25,3.5,6.0,4.5,0.0,8.25,2.25,8.75,6.0,7.25,9.5,-0.17,0.08,0.95,990.29,-3.0,-37.0,2.0,1.0,3.5,2.75,3.75,4.5,2.25,5.0,3.0,7.25,6.75,6.25,7.5,-0.05,-0.42,1.02,617.7,-0.8,-32.9
2.98,0.5,2.25,1.75,3.75,3.75,3.5,0.0,7.75,2.25,8.75,5.25,7.5,9.75,-0.17,0.08,0.95,915.37,-2.8,-41.6,2.5,1.25,3.5,3.0,5.0,5.5,2.75,5.25,3.0,7.25,6.5,6.25,7.5,-0.05,0.08,0.95,836.49,-0.7,-27.2
3.0,2.25,1.75,1.0,3.0,3.0,2.25,0.0,7.75,2.25,9.75,4.25,6.5,9.75,-0.23,0.02,1.02,844.55,-3.0,-43.6,2.0,1.25,3.75,3.5,5.25,5.5,3.5,5.5,3.25,7.5,6.0,6.25,7.5,0.08,0.2,0.95,979.01,-0.8,-26.2
3.02,2.0,2.75,2.0,4.5,5.75,3.5,0.0,8.0,2.25,9.75,5.25,6.25,11.0,-0.17,0.02,1.08,853.88,-2.2,-32.9,2.25,1.25,3.75,3.25,5.25,5.75,3.75,5.75,3.5,7.75,6.75,6.75,8.0,0.08,0.14,0.95,1074.64,-0.8,-28.0
3.04,1.0,2.75,3.75,4.5,5.75,3.0,0.0,7.75,2.25,9.0,5.0,6.25,9.75,-0.23,0.02,1.08,862.42,-1.0,-30.4,2.0,1.25,3.75,3.0,5.25,5.5,4.0,5.75,3.5,8.0,6.75,6.75,8.0,0.02,0.14,0.95,1116.53,-0.7,-29.2
3.06,1.75,2.5,2.5,4.0,5.5,1.25,0.0,7.25,1.5,7.75,4.5,4.75,9.75,-0.23,0.08,1.2,832.3,-1.1,-31.0,2.25,1.25,3.75,2.75,5.25,5.5,3.75,5.75,3.0,8.0,6.75,6.75,8.0,0.02,0.14,0.95,1138.71,-0.6,-29.1
3.08,0.5,1.75,1.75,3.25,2.5,1.25,0.0,6.0,1.5,6.25,3.0,4.25,8.25,-0.23,0.14,1.58,713.41,-2.4,-40.3,2.5,1.0,3.75,2.5,5.0,5.0,3.0,5.5,3.0,7.75,6.75,6.75,8.0,0.02,0.14,0.95,1120.04,-0.7,-30.6
3.1,0.5,2.0,1.75,2.5,2.5,1.0,0.0,5.25,2.25,4.5,3.5,3.0,7.5,-0.55,0.39,2.02,584.86,-1.3,-36.9,2.0,1.0,3.5,2.5,4.75,4.5,2.5,5.25,2.5,7.5,6.0,6.75,8.0,0.02,0.14,0.95,1063.54,-0.3,-32.4
3.12,0.5,2.5,1.75,2.25,4.25,0.0,0.0,3.75,1.75,0.0,2.5,1.0,5.0,-0.42,0.45,1.33,425.86,2.4,-9.8,1.75,1.0,3.5,2.5,3.5,4.5,2.5,5.25,2.25,7.75,6.25,6.75,8.0,0.02,0.14,0.95,986.15,-0.1,-35.6
3.14,1.0,0.0,2.75,2.5,2.5,0.0,0.0,3.25,3.25,0.0,2.0,0.0,2.5,0.02,0.2,0.52,309.68,7.2,-5.3,1.75,1.0,3.5,2.5,2.5,4.5,1.5,5.0,2.25,8.0,6.0,6.75,8.25,0.02,0.14,0.95,898.96,0.1,-38.5
3.16,2.0,0.0,2.5,5.0,2.25,1.25,0.0,3.25,2.0,2.0,3.0,1.25,3.0,0.7,1.39,0.27,272.59,5.6,-8.0,1.75,1.0,2.75,2.5,2.25,4.0,1.5,5.25,2.25,8.25,6.75,7.0,8.5,0.02,0.14,0.95,835.49,0.4,-42.4
3.18,0.5,1.75,3.0,2.5,3.0,0.0,0.0,3.5,1.5,0.75,3.0,1.0,3.0,0.83,1.64,1.14,250.05,5.6,-6.9,1.25,1.0,2.25,2.5,2.5,3.75,1.0,5.5,2.0,8.25,6.25,7.75,8.75,0.02,0.14,0.95,792.05,1.4,-45.8
3.2,0.5,1.75,2.0,2.0,3.75,0.0,0.0,3.5,1.5,0.0,3.0,1.0,3.0,0.27,1.39,1.02,238.23,4.2,-6.9,1.25,1.0,1.75,0.25,1.75,3.25,0.5,5.75,1.75,8.25,6.5,7.0,9.25,0.02,0.14,0.95,756.44,3.0,-54.8
3.22,0.5,1.75,3.5,2.0,2.5,1.25,0.0,2.25,2.0,1.0,2.0,1.25,2.0,-0.05,1.2,0.89,231.33,6.7,0.5,0.75,1.0,0.5,2.5,1.25,3.5,0.0,5.25,1.75,9.0,6.0,8.5,8.75,0.02,0.08,0.95,736.63,3.5,-56.5
3.24,1.75,2.5,3.0,4.5,4.25,1.25,0.0,3.5,2.0,1.25,2.0,1.25,2.0,-0.11,0.95,1.02,262.72,6.4,12.1,1.25,1.0,1.75,2.5,1.75,3.5,0.0,6.0,1.75,9.25,6.75,8.5,10.0,0.02,0.08,0.95,754.97,2.4,-52.6
3.26,1.75,2.75,3.25,4.5,3.0,1.25,0.0,3.5,2.0,1.25,3.0,0.5,3.0,-0.17,0.64,1.08,289.72,6.6,7.3,1.0,1.0,0.75,2.5,1.75,3.5,0.0,6.25,1.5,9.25,6.75,8.5,10.5,0.08,0.08,0.95,779.99,3.6,-56.0
3.28,1.75,2.75,3.75,4.5,4.25,1.25,0.0,3.25,2.0,1.0,3.0,1.0,2.75,-0.3,0.39,1.08,343.54,7.2,10.4,1.75,1.25,0.75,2.5,1.75,3.5,0.0,6.25,1.5,9.25,6.75,8.75,10.5,0.08,0.08,0.95,815.68,3.0,-53.5
3.3,1.75,2.5,3.75,4.75,3.0,1.0,0.0,2.25,1.5,0.0,2.25,0.0,3.0,-0.3,0.2,1.14,364.79,9.5,19.2,1.25,1.0,1.5,2.0,1.75,3.5,0.0,6.5,1.5,9.5,6.75,8.75,10.5,0.08,0.08,0.95,843.44,3.1,-55.0
3.32,0.5,1.75,3.0,2.5,4.75,0.0,0.0,2.75,1.5,0.0,3.0,0.0,3.0,-0.3,0.14,1.08,359.94,6.1,5.7,1.25,1.25,0.75,2.25,1.75,3.25,0.0,6.5,1.25,9.75,6.5,8.75,10.5,0.08,0.08,0.95,858.6,3.7,-55.8
3.34,1.5,2.5,3.0,4.75,3.5,1.25,0.0,3.25,2.0,1.0,2.75,1.0,3.0,-0.3,0.08,0.83,370.03,6.4,6.5,1.25,1.25,1.0,2.0,1.5,3.25,0.0,6.5,1.0,9.5,6.5,8.5,10.5,0.08,0.14,0.95,856.19,3.6,-56.2
3.36,1.5,2.25,4.25,2.25,2.5,1.0,0.0,3.0,2.0,0.5,2.5,0.0,2.75,-0.36,0.02,0.83,362.51,8.3,9.3,1.0,1.0,1.0,1.75,1.5,3.25,0.0,6.5,1.0,9.75,6.5,8.5,10.5,0.08,0.08,0.95,849.37,4.0,-58.3
3.38,1.5,2.5,4.0,4.5,3.5,1.25,0.0,2.75,2.0,1.0,2.75,0.25,3.0,-0.36,0.02,0.89,379.34,7.7,11.6,1.0,1.0,0.75,1.75,1.75,3.25,0.0,6.75,1.0,9.75,6.25,8.5,11.0,0.08,0.14,0.95,847.0,4.5,-58.6
3.4,1.75,2.5,4.0,4.5,3.0,1.25,0.0,2.75,1.75,0.75,2.75,0.25,3.0,-0.42,-0.05,1.02,381.19,8.3,12.7,1.25,1.0,0.75,1.0,1.75,3.25,0.0,6.75,1.0,9.75,6.75,8.5,10.5,0.08,0.08,0.95,841.46,4.4,-59.3
3.42,1.75,2.5,4.0,4.5,2.5,1.0,0.0,2.75,1.75,1.0,2.75,0.25,3.0,-0.55,-0.05,0.89,391.03,8.6,10.9,1.5,1.0,0.75,1.25,1.25,3.25,0.0,6.75,1.0,9.75,6.0,8.0,10.5,0.08,0.08,0.95,829.24,4.5,-58.5
3.44,1.75,2.5,4.0,4.5,2.5,1.0,0.0,2.75,1.75,0.75,2.75,0.5,2.75,-0.61,0.02,0.89,384.93,9.0,11.7,0.5,1.25,0.75,1.0,1.25,3.25,0.0,6.75,1.0,9.75,6.0,7.75,10.5,0.08,0.08,0.95,810.91,5.3,-61.0
3.46,2.0,2.5,4.25,4.5,2.5,1.25,0.0,2.5,1.75,0.5,2.5,0.75,2.75,-0.73,-0.05,0.89,381.43,9.7,13.9,1.0,1.0,0.75,0.5,0.0,3.25,0.0,6.0,0.75,9.25,4.75,7.5,10.5,0.08,0.08,0.95,759.46,5.6,-65.0
3.48,2.25,2.5,3.75,4.5,3.0,1.25,0.0,2.75,1.75,0.75,2.5,1.0,2.75,-0.73,0.02,0.77,379.99,8.7,12.3,1.0,1.0,0.75,0.75,1.25,3.25,0.0,6.75,0.75,9.25,5.25,6.75,11.0,0.14,0.08,0.95,730.8,5.7,-60.2
3.5,2.25,2.75,4.25,4.5,2.5,1.0,0.0,2.75,1.5,0.75,2.75,1.25,3.0,-0.86,-0.05,0.83,387.27,9.5,10.5,1.25,1.0,0.75,1.25,1.5,3.25,0.0,6.5,0.5,8.5,4.0,5.75,10.5,0.14,0.14,1.02,690.75,5.8,-55.2
3.52,2.25,2.5,4.25,3.75,3.0,1.0,0.0,2.75,1.75,1.25,2.5,1.0,2.75,-0.73,-0.17,0.77,393.53,8.8,10.3,0.75,0.0,0.75,0.75,1.75,2.25,0.0,5.75,0.5,8.0,3.25,4.5,9.5,0.14,0.2,1.27,625.6,6.9,-60.6
3.54,2.25,2.75,4.25,3.75,3.5,1.0,0.0,2.75,1.75,1.0,2.5,1.25,2.75,-1.17,-0.67,1.08,403.72,8.8,11.6,0.0,0.0,0.25,0.0,0.0,0.75,0.0,3.5,0.0,6.0,1.25,2.75,7.75,0.45,0.27,1.33,479.23,10.3,-81.1
3.56,2.25,3.0,4.25,4.5,3.75,1.0,0.0,2.75,2.0,1.25,3.0,1.25,2.75,-1.23,-1.17,1.27,420.34,8.8,11.4,0.0,0.0,0.0,0.0,0.0,0.0,0.0,2.0,0.0,5.0,1.25,2.0,6.25,0.39,0.27,1.45,342.85,10.1,-88.5
3.58,2.25,2.5,4.0,3.75,3.75,0.25,0.0,3.5,3.0,3.0,4.0,3.0,3.0,-1.48,-2.61,4.2,449.19,7.2,-6.9,1.25,0.5,0.0,0.5,1.5,0.75,0.0,1.75,0.25,4.75,2.0,2.0,5.5,0.14,0.27,1.33,265.07,5.0,-52.9
3.6,2.25,2.0,3.5,4.5,1.75,0.25,0.0,4.25,4.5,6.25,6.5,6.5,6.0,-0.05,0.52,1.02,546.34,4.7,-33.9,1.25,0.0,0.0,0.25,0.0,0.0,0.0,2.75,0.25,2.25,0.5,0.5,3.75,0.08,0.27,1.2,183.69,6.6,-58.3
3.62,2.0,3.25,4.25,3.75,4.75,1.25,0.0,5.0,4.25,6.0,6.75,5.75,7.25,-0.05,-0.17,0.95,664.29,3.4,-25.5,0.5,0.0,0.0,0.25,0.5,0.0,0.0,0.5,0.25,2.25,0.0,0.5,2.25,-0.61,1.83,0.45,106.06,6.8,-58.4
3.64,2.25,3.5,4.25,5.25,5.75,1.75,0.0,5.25,4.25,6.25,6.5,5.5,6.75,-0.05,0.08,0.89,798.45,3.5,-19.1,1.25,1.25,0.0,1.25,1.5,0.75,0.0,1.25,0.5,3.75,1.0,1.0,2.75,-0.3,2.27,0.95,88.58,2.1,-24.8
3.66,2.25,3.5,4.25,5.5,5.75,2.5,0.75,5.5,4.75,7.5,7.0,7.0,7.5,-0.11,0.2,0.95,932.03,3.0,-22.9,0.5,0.0,0.0,0.0,1.5,0.5,0.0,1.0,0.25,1.75,1.25,0.25,0.75,-0.11,1.7,0.77,52.09,4.6,-29.0
3.68,2.25,3.25,4.25,5.5,6.0,3.25,0.75,6.25,5.25,8.75,8.0,8.0,9.25,-0.11,0.08,0.95,1074.36,2.0,-27.7,0.5,0.0,0.0,0.0,1.5,0.0,0.0,1.0,0.25,1.25,1.0,0.25,2.25,-0.23,1.45,0.83,38.11,5.0,-43.6
3.7,2.25,3.5,4.25,5.5,5.75,3.5,0.75,7.0,5.5,8.75,8.25,8.5,9.75,-0.11,0.02,0.95,1196.45,1.8,-28.9,0.25,0.0,0.0,0.0,0.0,0.0,0.0,0.5,0.25,1.25,0.0,0.25,1.0,-0.23,1.2,0.95,4.45,8.1,-68.6
3.72,2.25,3.5,4.25,5.25,6.0,3.5,0.5,7.0,5.5,9.75,8.5,8.75,10.5,-0.11,0.08,0.95,1301.65,1.3,-30.8,0.75,0.0,0.0,0.0,0.0,0.0,0.0,0.5,0.0,1.5,0.0,0.25,0.5,-0.3,0.89,1.08,0.0,3.5,-42.7
3.74,2.25,3.5,4.25,5.0,6.0,3.5,0.0,7.0,5.25,9.5,8.5,8.75,10.5,-0.11,0.02,0.95,1343.43,1.2,-31.1,0.5,0.0,0.0,0.0,0.0,0.0,0.0,0.5,0.25,1.0,0.0,0.25,0.75,-0.42,0.58,0.89,0.0,4.0,-52.8
3.76,2.25,3.25,4.25,4.75,6.0,3.25,0.0,7.0,5.25,9.5,8.25,8.5,10.5,-0.11,0.02,0.95,1352.09,1.1,-31.7,0.75,0.0,0.0,0.0,0.0,0.0,0.0,0.25,0.25,1.0,0.0,0.25,0.5,-0.3,0.39,0.95,0.0,-0.9,-37.1
3.78,2.25,3.5,4.25,4.75,5.0,3.5,0.0,6.75,4.5,9.5,8.0,8.5,10.5,-0.11,0.08,0.95,1328.16,1.1,-32.1,0.75,0.0,0.5,0.0,0.0,0.0,0.0,0.5,0.25,0.75,0.0,0.25,0.75,-0.05,0.14,1.08,3.33,-5.0,-26.1
3.8,2.25,3.25,3.75,4.75,5.75,3.25,0.0,7.0,4.25,9.0,7.75,8.0,10.5,-0.11,0.08,0.95,1284.07,0.7,-31.4,1.0,0.0,0.5,0.0,0.0,0.5,0.0,0.25,0.25,1.0,0.0,0.0,0.5,0.08,0.2,0.83,15.28,-4.4,-3.1
3.82,1.75,3.0,3.5,4.5,5.75,2.75,0.0,7.0,3.75,9.25,7.25,8.0,10.5,-0.11,0.08,0.95,1212.72,0.2,-33.8,0.0,0.25,0.0,0.0,0.0,0.25,0.0,0.5,0.0,0.0,0.0,0.25,0.5,0.27,0.27,0.7,13.34,8.7,-39.6
3.84,2.0,3.25,2.75,4.5,5.25,2.25,0.0,7.0,3.5,9.75,6.75,8.0,10.5,-0.11,0.08,0.95,1139.73,-0.1,-35.1,1.25,1.0,0.5,0.25,0.0,0.0,0.0,0.5,0.5,2.5,0.75,2.0,1.0,0.64,-7.98,1.95,60.97,-4.6,-34.3
3.86,2.25,3.25,2.5,4.5,5.75,2.5,0.0,6.75,2.75,8.25,6.25,7.25,10.5,-0.11,0.08,0.95,1062.22,-0.1,-31.8,1.0,1.0,1.75,1.25,0.0,1.0,0.0,0.75,0.5,2.75,0.75,2.0,3.75,2.08,-7.05,1.33,126.94,-2.3,-32.6
3.88,0.5,2.0,1.75,3.25,4.75,2.25,0.0,6.25,2.75,8.75,5.25,7.5,9.25,-0.17,0.08,0.95,954.38,-2.0,-42.3,0.5,0.5,0.75,0.0,1.25,1.0,0.0,0.0,0.25,1.0,0.25,0.5,1.0,-0.36,-1.86,-0.05,141.37,-0.8,-2.4
3.9,2.25,3.0,2.25,2.25,4.75,1.25,0.0,7.25,2.25,8.75,5.75,6.75,11.0,-0.17,0.08,0.95,885.79,-1.2,-39.4,0.0,0.0,0.0,0.0,0.0,0.0,0.0,0.0,0.25,1.0,0.0,0.75,0.75,1.64,1.52,2.89,131.04,6.0,-91.0
3.92,0.5,2.0,1.75,2.5,2.5,1.25,0.0,6.75,2.75,9.5,4.25,6.5,9.25,-0.17,0.02,0.89,793.25,-2.7,-48.8,0.0,0.0,0.0,0.0,0.0,0.0,0.0,0.0,0.25,1.0,0.0,0.5,2.0,0.77,2.58,1.33,105.43,9.5,-96.2
3.94,2.25,3.0,2.0,4.5,4.25,2.25,0.0,7.5,2.25,9.75,5.0,6.5,10.5,-0.23,0.02,0.89,795.29,-1.3,-35.1,0.5,0.0,0.5,0.0,0.0,0.5,0.0,0.5,0.0,1.0,0.0,0.25,0.75,-0.23,2.64,1.64,82.22,1.8,-28.6
3.96,0.5,2.0,2.25,2.5,5.25,1.25,0.0,7.25,1.75,8.75,3.5,5.0,9.5,-0.23,0.08,1.02,744.51,-3.2,-39.0,0.0,0.0,0.5,0.0,0.0,0.5,0.0,0.5,0.0,1.0,0.0,0.5,0.75,-3.67,-1.55,1.64,66.28,5.6,-49.7
3.98,0.5,2.0,1.75,2.25,2.25,1.25,0.0,7.25,1.5,8.75,3.0,4.5,9.25,-0.23,0.02,0.95,693.25,-4.1,-46.3,1.0,0.75,0.5,0.5,1.0,0.5,0.0,0.5,0.0,1.0,0.0,1.25,1.0,-2.05,-1.92,1.2,85.02,-3.6,-4.5
4.0,0.5,2.0,1.75,4.5,2.25,2.5,0.0,7.25,2.0,10.0,3.0,5.5,9.5,-0.3,-0.05,0.83,671.1,-3.4,-41.9,0.0,0.5,0.0,0.5,0.25,0.5,0.0,0.5,0.25,2.75,1.0,2.0,1.75,-0.05,0.58,0.58,115.96,4.1,-60.9
4.02,2.25,3.0,2.0,4.5,4.25,2.5,0.0,8.0,2.25,9.75,4.0,4.25,11.0,-0.3,0.02,0.95,709.8,-2.2,-32.0,0.75,1.0,1.25,0.0,1.25,1.0,0.0,0.5,0.5,1.25,1.5,3.0,3.25,1.27,0.33,-0.17,161.47,-2.2,-37.5
4.04,0.75,2.5,1.75,4.25,2.5,1.75,0.0,7.5,1.75,9.5,4.0,4.75,11.0,-0.3,0.08,1.14,732.28,-3.2,-42.2,0.75,1.0,2.0,0.5,1.25,1.0,0.0,0.0,0.5,3.5,0.75,5.5,4.0,1.39,-0.55,0.02,220.73,-2.3,-45.4
4.06,0.5,3.25,1.75,2.5,2.25,1.25,0.0,7.0,1.5,8.75,2.5,2.75,10.5,-0.36,0.08,1.08,706.24,-4.3,-40.7,1.5,0.0,2.0,0.0,1.5,0.25,0.0,0.5,0.25,2.25,1.75,5.5,6.25,0.39,-0.36,0.83,270.81,-2.4,-57.7
4.08,0.5,2.0,1.75,1.0,1.25,1.0,0.0,6.5,1.5,8.25,2.0,2.0,9.75,-0.42,-0.11,0.89,630.55,-5.7,-49.2,0.0,0.25,0.5,0.0,0.0,0.0,0.0,0.0,0.25,2.0,0.0,5.5,5.75,-0.36,-0.05,1.2,277.37,2.6,-94.0
4.1,2.0,3.0,1.5,3.0,2.5,1.25,0.0,6.25,1.75,8.5,3.25,2.75,9.25,-0.36,-0.11,1.02,594.25,-2.3,-34.5,0.0,0.0,1.75,0.75,0.5,0.75,0.0,0.0,0.5,2.25,0.5,5.5,6.25,-0.67,-0.05,0.77,290.34,0.0,-69.6
4.12,0.5,1.75,1.75,2.5,2.25,0.5,0.0,5.75,1.5,6.25,2.25,1.25,7.75,-0.42,-0.05,1.39,514.27,-3.3,-37.1,0.0,0.25,0.0,0.0,0.0,0.5,0.0,0.0,0.25,3.0,0.75,6.5,6.75,-0.05,-0.42,1.02,299.0,4.5,-95.1
4.14,0.75,2.0,2.0,2.25,1.75,0.25,0.0,5.25,1.5,4.25,3.0,1.25,6.0,-0.17,-0.11,1.39,441.04,-0.6,-31.3,0.0,0.0,0.5,0.0,0.0,0.0,0.0,0.0,0.25,3.25,1.5,6.75,8.0,0.27,0.2,0.95,318.49,3.2,-96.7
4.16,2.0,2.5,2.0,4.5,3.5,1.25,0.0,3.5,1.5,2.25,3.0,0.0,5.75,-0.05,-0.05,1.33,396.65,2.8,-4.2,0.0,0.0,0.5,0.0,0.25,0.0,0.0,0.0,0.25,4.5,1.0,6.75,8.25,0.45,-0.11,1.02,335.93,4.3,-94.1
4.18,0.5,1.75,1.75,1.75,2.25,0.0,0.0,3.5,1.5,0.0,2.0,0.0,3.75,-0.3,0.08,0.39,313.25,3.0,-9.5,0.0,0.0,2.75,0.25,1.5,0.0,0.0,0.0,0.0,3.5,3.25,7.5,8.75,0.08,-0.11,0.95,377.66,-1.0,-72.6
4.2,0.5,2.75,1.75,2.5,2.25,1.25,0.0,2.25,1.75,2.75,2.0,0.75,2.75,-0.48,-0.17,0.02,280.78,2.5,-5.6,1.25,0.25,0.5,1.5,1.25,0.25,0.0,0.0,0.25,4.5,2.0,7.5,8.75,-0.05,-0.05,1.14,405.89,0.8,-69.0
4.22,2.0,2.75,3.0,2.5,2.25,0.0,0.0,3.5,1.75,2.5,3.0,0.0,3.0,-0.3,-0.67,-0.05,267.22,6.2,-0.2,0.5,1.0,0.5,0.75,0.0,1.0,0.0,0.0,0.25,4.75,2.0,8.25,8.75,0.08,-0.11,0.7,427.32,2.1,-77.0
4.24,0.5,1.75,1.75,1.75,1.25,1.25,0.0,3.0,1.75,2.75,2.25,1.0,2.25,-0.98,-0.23,-0.36,250.28,1.6,-16.7,1.25,1.0,0.5,1.25,1.25,1.0,0.0,0.0,0.25,4.75,3.5,7.75,9.5,0.14,-0.36,0.39,456.09,0.9,-65.4
4.26,0.5,1.75,2.0,1.0,0.0,0.25,0.0,3.0,2.0,1.25,2.5,1.0,2.75,-0.67,0.2,-0.73,224.38,4.4,-26.0,1.0,1.0,1.0,1.25,1.75,0.25,0.0,0.0,0.0,3.75,3.25,6.75,9.5,0.45,-0.36,1.7,459.78,0.1,-62.9
4.28,2.0,2.75,1.75,4.0,3.0,1.25,0.0,3.0,1.75,2.25,3.0,1.25,3.25,-1.36,-0.05,0.14,260.53,4.5,-1.1,0.75,0.0,0.5,0.0,0.5,0.5,0.0,0.0,0.0,3.5,2.0,6.0,8.0,0.27,-0.36,0.7,418.58,2.8,-83.2
4.3,2.0,3.0,2.75,4.25,1.75,1.25,0.0,3.5,1.5,4.25,3.0,1.25,4.0,-0.61,0.08,0.08,305.59,4.0,-7.7,0.0,0.0,0.5,0.25,1.0,1.0,0.0,0.0,0.25,4.25,1.5,5.5,8.0,0.27,-0.3,0.58,383.83,5.0,-80.1
4.32,1.25,3.0,2.5,3.25,2.25,1.25,0.0,3.75,1.5,4.5,3.0,1.0,4.75,-1.05,-0.36,1.14,357.65,1.8,-13.9,0.5,0.0,0.5,0.0,0.5,0.5,0.0,0.0,0.0,3.0,2.25,3.25,7.5,0.45,-1.36,1.02,335.07,4.2,-80.9
4.34,0.5,1.75,2.25,2.25,2.25,0.25,0.0,3.75,1.25,2.25,2.5,0.0,3.75,-1.11,-0.55,-0.11,351.91,1.9,-13.7,0.0,0.5,0.0,0.0,1.5,1.25,0.0,0.0,0.0,2.0,2.0,2.0,6.0,0.33,-2.61,2.83,282.21,6.6,-65.0
4.36,0.5,1.75,1.75,2.25,0.0,0.0,0.0,3.0,1.25,2.25,1.75,0.0,3.0,-0.92,0.27,0.33,316.32,3.0,-18.6,0.5,0.0,0.25,0.0,0.0,0.75,0.0,0.0,0.25,2.5,0.0,1.0,4.25,-0.23,-2.17,2.95,220.3,8.1,-73.6
4.38,0.5,2.0,1.75,2.25,0.5,0.0,0.0,2.25,1.5,1.0,1.5,0.0,2.25,-2.3,-0.3,-0.86,266.69,6.2,-3.6,0.0,1.0,0.25,1.25,0.0,2.0,0.0,0.0,0.25,3.0,0.75,1.25,2.5,-0.42,-0.48,3.08,175.72,4.7,-36.8
4.4,0.75,2.0,2.25,2.0,1.75,0.0,0.0,1.75,1.5,0.0,3.25,0.0,1.25,-0.48,-0.67,0.58,236.35,10.2,8.2,1.0,1.0,1.0,0.5,1.5,1.5,0.0,0.0,0.25,2.75,1.0,1.0,2.0,0.33,0.58,3.02,147.28,-0.5,-14.4
4.42,1.0,2.75,3.0,2.5,2.5,0.0,0.0,1.75,1.5,1.5,1.5,0.75,2.25,-1.8,-0.86,1.39,246.31,8.2,8.4,1.25,1.0,1.0,0.5,1.5,1.0,0.0,0.25,0.25,2.5,0.75,0.75,2.25,0.39,1.7,2.2,136.52,-1.3,-12.4
4.44,0.5,1.75,2.75,2.5,2.5,0.75,0.0,3.5,1.5,2.0,2.5,1.0,2.0,-2.86,0.39,-0.98,263.78,4.2,-5.6,1.0,1.25,1.25,0.75,1.5,1.25,0.0,0.5,0.25,2.5,0.75,0.5,1.75,0.27,1.7,1.77,140.31,-1.6,-3.6
4.46,2.0,2.75,3.0,4.5,3.0,1.25,0.0,3.5,1.5,2.0,2.75,1.0,2.25,-3.23,0.7,-0.8,310.67,6.5,8.0,0.5,0.0,1.5,0.0,1.75,0.0,0.0,0.5,0.0,0.75,0.75,0.5,1.5,0.39,1.27,0.89,119.94,-4.9,-13.2
4.48,3.0,3.0,2.75,5.0,3.5,3.75,0.0,0.0,0.0,0.0,2.25,0.0,0.0,-3.11,0.33,0.08,335.31,11.1,51.8,0.5,0.0,1.75,0.0,0.0,0.0,0.0,0.0,0.0,0.75,0.0,0.25,1.25,0.83,0.83,0.7,83.09,-12.7,-15.3
4.5,0.0,3.0,0.0,4.25,3.75,1.25,0.0,0.0,1.5,0.0,0.0,0.5,1.5,-2.42,0.39,0.39,308.47,4.5,33.4,0.75,0.25,0.5,0.0,0.0,0.25,0.0,0.0,0.0,0.75,0.0,0.25,0.25,1.39,0.45,0.33,44.77,-9.7,7.1
4.52,0.0,0.0,4.5,0.0,3.0,0.0,0.0,3.25,0.0,0.0,0.0,0.0,0.0,-1.86,0.33,1.27,250.51,9.8,30.1,0.75,0.0,0.5,0.0,0.0,0.75,0.0,0.0,0.0,0.75,0.0,0.0,0.25,1.95,-0.3,-0.23,21.68,-4.3,13.3
4.54,2.0,2.5,0.0,4.5,0.0,1.25,0.0,2.5,1.5,0.75,2.5,1.0,2.25,-1.48,0.08,2.27,239.81,5.7,-0.2,0.75,0.0,0.5,0.0,0.0,0.0,0.0,0.0,0.0,0.75,0.0,0.25,0.25,1.39,-0.55,0.33,4.71,-12.5,-4.9
4.56,1.75,2.5,3.5,4.5,2.5,1.25,0.0,3.0,1.5,0.25,2.25,0.0,1.75,0.27,-0.11,0.83,264.75,9.2,21.6,0.75,0.0,0.5,0.25,0.0,0.25,0.0,0.0,0.0,0.75,0.0,0.0,0.25,0.39,-0.55,0.52,6.28,-10.2,14.0
4.58,2.0,2.5,4.5,0.0,0.0,2.25,1.75,5.5,3.5,0.5,3.0,0.25,2.25,0.64,-0.23,-0.3,306.61,7.3,-2.5,0.5,0.25,0.5,0.0,0.0,0.0,0.0,0.0,0.0,0.75,0.0,0.0,0.25,-0.11,-0.36,0.89,7.57,-10.6,7.8
4.6,0.0,2.0,0.0,2.25,0.0,0.0,0.0,0.0,1.5,0.0,0.0,0.0,0.0,-0.05,-0.55,-0.36,261.33,14.3,48.0,0.5,0.25,0.5,0.0,0.0,0.0,0.0,0.0,0.0,0.75,0.0,0.0,0.25,-0.3,0.02,0.33,8.94,-10.6,7.8
4.62,2.0,3.25,4.5,4.75,0.0,0.0,0.0,0.0,2.0,0.75,0.0,0.75,1.5,-0.17,-0.48,-0.42,258.83,18.5,35.3,0.5,0.0,0.5,0.0,0.0,0.25,0.0,0.0,0.0,0.75,0.0,0.0,0.5,-0.36,0.2,0.08,6.64,-4.7,-11.3
4.64,1.75,2.25,4.75,4.5,2.5,1.25,3.0,5.75,1.5,1.0,2.5,0.25,0.0,0.02,-0.11,-0.73,281.26,9.9,21.0,0.5,0.25,0.5,0.0,0.0,0.0,0.0,0.0,0.0,0.75,0.0,0.0,0.25,-0.67,0.02,0.33,8.31,-10.6,7.8
4.66,2.25,2.5,3.75,4.5,3.0,1.25,0.0,2.75,1.5,1.25,2.0,0.25,2.75,0.02,0.14,-0.67,323.06,8.2,15.9,0.5,0.0,0.5,0.0,0.0,0.25,0.0,0.0,0.0,1.0,0.0,0.0,0.25,-0.86,-0.3,0.33,14.32,-4.6,-7.5
4.68,1.75,2.75,3.25,4.5,2.25,1.0,0.0,2.75,1.5,0.75,2.5,0.25,2.75,-0.11,0.08,-0.23,355.13,8.3,13.0,1.0,0.0,0.5,0.0,0.0,0.25,0.0,0.0,0.0,0.75,0.0,0.0,0.25,-0.67,-0.67,0.02,23.5,-11.7,17.0
4.7,2.0,2.75,4.25,4.5,2.25,1.25,0.0,2.75,1.5,1.25,2.5,0.75,2.75,-0.17,0.02,0.02,386.52,8.9,12.0,1.5,0.0,0.5,0.0,0.0,0.0,0.0,0.0,0.0,0.75,0.0,0.0,0.25,-0.3,-1.23,0.08,36.43,-18.2,28.5
4.72,1.5,2.75,4.0,4.5,2.25,1.25,0.0,2.75,1.5,1.75,2.25,0.75,2.0,-0.36,-0.11,0.14,396.88,8.4,12.6,0.75,0.0,0.5,0.0,0.0,0.0,0.0,0.0,0.0,1.0,0.0,0.0,0.25,0.33,-1.98,0.52,40.9,-10.1,-1.5
4.74,1.0,2.5,3.75,4.5,2.25,1.25,0.0,5.25,1.5,1.25,4.0,1.0,1.5,-0.48,-0.17,0.27,409.87,6.5,3.5,0.5,0.0,0.5,0.0,0.0,0.0,0.0,0.0,0.0,0.75,0.0,0.0,0.25,0.7,-2.17,0.45,39.23,-10.4,-3.9
4.76,2.0,2.5,4.25,4.5,2.25,1.25,0.0,2.75,1.5,1.25,2.5,1.0,2.75,-0.42,-0.11,0.02,414.08,8.9,10.2,0.0,0.0,0.5,0.0,0.0,0.25,0.0,0.0,0.0,0.75,0.0,0.0,0.25,0.52,-1.55,0.33,33.86,0.5,-25.8
4.78,1.75,2.25,4.0,4.5,2.5,0.75,0.0,2.75,1.5,1.75,2.5,0.0,2.75,-0.42,-0.05,-0.11,403.33,8.3,10.9,0.5,0.0,0.5,0.0,0.0,0.0,0.0,0.0,0.0,0.75,0.0,0.0,0.25,0.39,-0.86,0.14,31.12,-10.4,-3.9
4.8,2.5,2.75,0.0,4.5,3.75,0.0,0.0,2.75,2.0,1.0,2.25,0.5,2.75,-0.48,-0.17,-0.11,383.21,5.3,8.8,0.75,0.0,0.5,0.0,0.0,0.0,0.0,0.0,0.0,0.75,0.0,0.0,0.25,0.33,-0.3,0.27,30.93,-13.0,6.7
4.82,2.25,2.75,3.75,4.75,2.5,1.5,0.0,2.75,0.0,0.0,2.5,1.25,3.0,-0.42,-0.36,-0.05,381.38,9.0,16.2,0.5,0.0,0.5,0.0,0.0,0.25,0.0,0.0,0.0,0.75,0.0,0.0,0.25,0.27,0.08,0.39,32.71,-6.8,0.0
4.84,2.0,2.5,4.0,4.75,3.0,0.5,0.0,2.75,1.5,1.0,2.0,0.75,3.0,-0.42,-0.61,-0.05,385.4,9.1,13.0,0.5,0.0,0.5,0.0,0.0,0.0,0.0,0.0,0.0,1.25,0.0,0.0,0.25,0.27,0.39,0.33,35.06,-5.1,-18.3
4.86,1.75,2.75,3.75,4.5,2.5,1.0,0.0,2.75,1.5,1.0,2.0,0.25,2.75,-0.55,-0.67,-0.11,369.8,8.5,15.2,0.25,0.0,0.5,0.0,0.0,0.0,0.0,0.0,0.0,0.75,0.0,0.0,0.25,0.39,0.52,0.27,32.62,-7.1,-17.4
4.88,1.25,2.75,4.0,4.5,2.5,1.0,0.0,2.75,1.5,0.75,2.0,0.5,3.0,-0.55,-0.73,-0.3,363.49,8.3,12.7,0.0,0.0,0.5,0.0,0.0,0.0,0.0,0.0,0.0,1.5,0.0,0.5,0.25,0.52,0.45,0.33,36.55,1.0,-59.5
4.9,1.5,2.5,4.25,4.5,2.5,1.0,0.0,2.75,1.5,1.0,2.25,0.5,2.75,-0.55,-0.73,-0.36,365.71,8.8,12.6,1.0,0.75,2.0,1.25,1.25,0.75,0.0,0.0,0.25,2.25,0.75,0.5,1.0,0.64,0.14,0.39,88.4,-7.3,5.7
4.92,2.25,2.5,4.25,4.5,2.5,1.0,0.0,2.75,1.5,0.75,2.5,0.25,2.75,-0.67,-0.73,-0.3,368.48,9.7,15.8,0.75,1.25,1.75,0.75,1.25,0.75,0.0,0.0,0.25,1.25,0.75,0.0,1.25,1.02,-0.23,0.45,127.18,-7.4,14.9
4.94,2.0,2.5,4.25,4.5,2.5,1.0,0.0,2.5,1.5,1.0,2.0,0.25,3.0,-0.73,-0.67,-0.3,367.72,9.2,15.2,0.5,0.25,0.5,0.0,0.0,0.0,0.0,0.0,0.0,0.75,0.0,0.0,0.25,1.2,-0.67,0.52,120.5,-10.6,7.8
4.96,2.0,2.75,4.0,4.5,2.5,1.0,0.0,2.75,1.5,1.0,2.5,0.5,2.75,-0.92,-0.55,-0.36,373.15,9.0,13.6,0.75,0.0,0.5,0.0,0.0,0.0,0.0,0.0,0.0,0.75,0.0,0.0,0.25,1.27,-0.86,0.52,97.11,-13.0,6.7
4.98,2.0,2.25,3.75,4.5,3.0,1.25,0.0,2.75,1.5,1.0,2.25,0.75,2.75,-1.11,-0.36,-0.36,375.59,8.1,12.3,0.5,0.0,0.5,0.0,0.0,0.0,0.0,0.0,0.0,0.75,0.0,0.0,0.25,1.2,-0.86,0.45,66.0,-10.4,-3.9
5.0,2.25,2.25,4.25,4.5,2.5,1.0,0.0,2.75,1.5,1.25,2.5,1.0,2.75,-1.42,-0.11,-0.3,382.13,9.2,10.3,0.0,0.0,0.5,0.0,1.5,0.0,0.0,0.0,0.0,0.75,0.0,0.0,0.25,1.14,-0.67,0.45,50.89,0.4,12.0
5.02,2.25,2.5,4.25,4.5,2.5,0.75,0.0,2.75,1.5,1.0,2.0,1.0,2.75,-1.67,0.02,-0.23,384.04,9.7,13.1,0.5,0.0,0.5,0.0,0.0,0.0,0.0,0.0,0.0,0.75,0.0,0.0,0.25,1.02,-0.48,0.52,39.12,-10.4,-3.9
5.04,1.75,2.25,4.25,4.5,2.5,0.75,0.0,2.75,1.5,1.0,2.5,1.25,2.75,-1.73,0.08,-0.17,383.78,9.3,8.4,0.5,0.0,0.5,0.0,0.0,0.0,0.0,0.0,0.0,0.75,0.0,0.0,0.25,0.83,-0.11,0.52,37.53,-10.4,-3.9
5.06,2.0,2.5,3.75,4.5,3.5,1.0,0.0,2.75,1.5,1.25,2.5,1.25,2.75,-1.67,0.08,-0.17,387.74,8.0,10.2,0.25,0.0,0.5,0.0,0.0,0.0,0.0,0.0,0.0,0.75,0.0,0.0,0.25,0.7,-0.05,0.45,29.39,-7.1,-17.4
5.08,1.75,2.5,4.0,4.5,3.0,1.0,0.0,2.75,1.5,0.75,2.25,1.25,2.75,-1.55,0.02,-0.05,387.81,8.7,11.3,0.5,0.0,0.5,0.0,0.0,0.0,0.0,0.0,0.0,0.75,0.0,0.0,0.25,0.64,0.02,0.52,23.65,-10.4,-3.9
5.1,1.75,2.25,4.25,4.5,2.5,1.0,0.0,2.75,1.5,1.25,2.5,1.0,2.5,-1.3,-0.11,0.14,387.05,9.0,10.0,0.5,0.0,0.5,0.0,0.0,0.0,0.0,0.0,0.0,0.75,0.0,0.0,0.25,0.58,-0.11,0.52,19.39,-10.4,-3.9
5.12,1.75,2.25,4.0,4.5,2.5,0.5,0.0,2.75,1.5,1.25,2.25,1.25,2.5,-1.05,-0.17,0.2,379.34,9.2,8.7,1.0,0.0,0.5,0.0,0.0,0.0,0.0,0.0,0.0,0.75,0.0,0.0,0.25,0.64,-0.17,0.58,19.56,-15.0,15.4
5.14,2.0,2.25,4.0,4.5,2.5,1.0,0.0,2.75,1.5,0.75,2.0,1.25,2.25,-0.86,-0.23,0.14,372.39,9.6,13.3,0.75,0.0,0.5,0.5,0.0,0.0,0.0,0.0,0.0,1.0,0.0,0.0,0.25,0.64,-0.3,0.64,23.42,-11.3,8.8
5.16,2.25,2.25,4.0,4.75,2.5,1.0,0.0,2.75,1.5,1.25,2.0,1.0,2.75,-0.73,-0.3,0.2,371.75,9.0,11.7,0.75,0.0,0.5,0.75,0.0,0.0,0.0,0.0,0.0,1.0,0.0,0.0,0.25,0.77,-0.42,0.64,38.3,-11.8,12.7
5.18,1.75,2.75,4.0,4.5,2.5,1.0,0.0,2.75,1.5,2.0,2.0,0.5,2.25,-0.67,-0.36,0.2,372.65,8.3,13.5,0.5,0.0,0.5,0.0,0.0,0.0,0.0,0.0,0.0,0.75,0.0,0.0,0.25,0.83,-0.42,0.58,43.76,-10.4,-3.9
5.2,1.25,2.5,4.25,4.25,2.5,0.75,0.0,2.75,1.5,1.25,2.25,0.25,2.5,-0.61,-0.42,0.2,367.21,8.7,12.7,1.25,0.75,0.5,0.25,0.0,0.75,0.0,0.0,0.25,2.5,0.0,0.5,0.25,0.89,-0.36,0.52,66.62,-3.3,-2.8
5.22,1.25,2.75,3.75,4.5,2.5,1.0,0.0,2.75,1.5,1.75,2.25,0.0,2.25,-0.61,-0.42,0.2,362.33,7.8,13.9,1.25,1.0,1.75,0.25,1.5,0.5,0.0,0.25,0.25,2.25,0.75,0.5,1.25,0.89,-0.3,0.45,110.47,-5.8,0.8
5.24,2.0,2.5,4.0,4.5,2.5,0.75,0.0,2.75,1.5,1.75,2.5,0.25,2.75,-0.67,-0.48,0.14,364.0,8.6,11.4,0.75,0.0,1.5,0.0,1.5,0.0,0.0,0.5,0.0,0.75,0.75,0.0,1.0,0.89,-0.36,0.39,127.42,-7.3,1.6
5.26,2.0,2.75,4.0,4.5,2.5,1.0,0.0,2.75,1.5,1.75,2.25,0.5,3.0,-0.73,-0.42,0.2,371.39,8.2,11.0,0.5,0.0,0.5,0.0,0.0,0.0,0.0,0.0,0.0,0.75,0.0,0.0,0.25,0.89,-0.42,0.45,111.55,-10.4,-3.9
5.28,2.0,2.75,4.25,4.5,3.0,1.0,0.0,2.75,1.5,1.75,2.25,0.25,2.75,-0.86,-0.48,0.14,381.44,8.4,14.3,1.25,0.75,0.5,0.5,0.0,0.75,0.0,0.0,0.25,2.5,0.0,0.5,0.25,0.83,-0.48,0.45,109.47,-3.8,-0.6
5.3,2.0,2.25,4.25,4.5,3.0,1.0,0.0,2.75,1.5,1.75,2.0,1.0,2.25,-0.92,-0.48,0.14,386.68,8.7,12.6,1.5,1.0,1.75,0.0,1.5,0.5,0.0,0.25,0.25,2.25,0.75,0.5,1.25,0.7,-0.42,0.45,129.26,-6.2,1.5
5.32,2.0,2.75,4.0,4.5,2.5,1.25,0.0,2.75,1.5,2.0,2.0,1.0,2.75,-0.98,-0.61,0.2,392.84,7.9,10.1,1.75,1.25,1.75,0.25,1.5,0.75,0.0,0.25,0.0,0.75,0.75,0.0,1.25,0.52,-0.42,0.45,150.81,-9.5,25.5
5.34,2.25,2.5,4.25,4.5,3.0,1.0,0.0,2.75,1.5,1.75,2.25,1.0,2.75,-0.98,-0.61,0.27,397.96,8.6,11.2,0.75,0.0,0.5,0.0,0.0,0.0,0.0,0.0,0.0,0.75,0.0,0.0,0.25,0.39,-0.36,0.45,129.48,-13.0,6.7
5.36,1.5,3.0,4.25,4.5,2.5,1.0,0.0,2.75,1.5,2.0,2.0,1.0,2.75,-0.98,-0.61,0.14,398.93,8.0,9.8,0.75,0.0,0.5,0.0,0.0,0.0,0.0,0.0,0.0,0.75,0.0,0.0,0.25,0.33,-0.42,0.58,99.43,-13.0,6.7
5.38,1.75,2.5,3.75,4.5,3.5,1.0,0.0,2.75,1.5,1.5,2.0,1.0,2.75,-0.86,-0.61,0.14,398.04,7.6,11.2,0.5,0.0,0.5,0.0,0.0,0.0,0.0,0.0,0.0,0.75,0.0,0.0,0.5,0.27,-0.42,0.52,60.23,-7.6,-16.0
5.4,2.0,2.75,4.25,4.5,3.0,1.25,0.0,2.75,1.5,1.75,2.0,1.0,2.75,-0.8,-0.61,0.14,400.4,8.1,12.1,0.5,0.0,0.5,0.0,0.0,0.0,0.0,0.0,0.0,0.5,0.0,0.0,0.25,0.2,-0.36,0.52,33.48,-14.1,6.3
5.42,2.0,2.75,4.25,4.5,2.5,1.0,0.0,2.75,1.5,2.0,2.5,1.0,2.75,-0.8,-0.55,0.14,403.01,8.4,9.0,0.75,0.25,0.5,0.0,0.0,0.0,0.0,0.0,0.0,0.75,0.0,0.0,0.25,0.2,-0.23,0.52,23.26,-12.9,16.3
5.44,2.25,2.5,4.25,4.5,2.5,1.0,0.0,2.5,1.5,2.0,2.5,1.0,2.5,-0.8,-0.48,0.2,402.47,9.0,10.4,0.75,0.0,0.5,0.0,0.0,0.0,0.0,0.0,0.0,0.75,0.0,0.0,0.25,0.14,-0.3,0.45,18.67,-13.0,6.7
5.46,2.0,2.75,4.25,4.5,2.5,1.0,0.0,2.75,1.5,1.75,2.25,0.75,2.75,-0.8,-0.42,0.14,398.66,8.6,11.4,0.5,0.0,0.5,0.0,0.0,0.0,0.0,0.0,0.0,0.75,0.0,0.0,0.25,0.2,-0.3,0.45,16.68,-10.4,-3.9
5.48,2.0,2.5,4.25,4.5,2.5,1.0,0.0,2.5,1.5,1.75,2.0,0.25,2.5,-0.8,-0.42,0.02,388.63,9.0,15.1,1.0,0.5,0.5,0.25,0.0,0.5,0.0,0.0,0.0,2.25,0.0,0.5,0.25,0.27,-0.23,0.58,38.76,-3.1,-8.3
5.5,2.25,2.5,4.25,4.5,2.5,1.0,0.0,2.75,1.5,1.5,2.25,0.25,2.25,-0.73,-0.42,0.02,381.38,9.4,16.5,0.75,0.0,0.5,0.0,0.0,0.0,0.0,0.0,0.0,0.75,0.0,0.0,0.5,0.33,-0.17,0.58,39.83,-10.2,-5.3
5.52,1.25,2.0,4.25,4.0,3.0,1.0,0.0,2.75,1.5,1.75,2.5,0.5,2.75,-0.8,-0.42,0.02,373.55,7.5,7.2,1.0,0.75,0.5,0.0,0.0,0.0,0.0,0.0,0.0,0.75,0.0,0.0,0.25,0.39,-0.17,0.58,41.26,-14.4,35.4
5.54,1.0,2.5,4.0,4.5,2.5,1.25,0.0,2.75,1.5,1.25,2.0,0.5,2.75,-0.86,-0.48,0.08,366.68,7.5,10.8,0.25,0.0,0.5,0.0,0.0,0.0,0.0,0.0,0.0,0.5,0.0,0.0,0.25,0.39,-0.11,0.64,30.72,-10.9,-7.8
5.56,1.75,2.25,4.0,4.5,2.5,0.75,0.0,2.75,1.5,1.5,2.0,1.0,2.25,-0.86,-0.48,0.08,361.36,8.9,11.1,0.5,0.0,0.5,0.0,0.25,0.0,0.0,0.0,0.0,0.75,0.0,0.0,0.25,0.45,-0.05,0.77,34.4,-8.6,3.3
5.58,1.75,2.0,4.0,4.5,2.5,1.0,0.0,2.75,1.5,1.5,2.0,0.75,2.25,-0.86,-0.48,0.08,357.61,8.6,11.6,0.5,0.0,0.5,0.0,0.0,0.25,0.0,0.0,0.0,1.25,0.0,0.25,0.25,0.45,-0.17,0.77,39.22,-3.2,-21.8
5.6,1.75,2.25,4.25,4.5,2.5,0.75,0.0,2.75,1.5,1.5,2.0,0.5,2.5,-0.92,-0.42,0.14,357.6,9.0,12.7,0.5,0.0,0.5,0.0,0.0,0.0,0.0,0.0,0.0,0.75,0.0,0.0,0.25,0.58,-0.36,0.83,37.68,-10.4,-3.9
5.62,1.75,2.0,4.0,4.5,2.5,0.25,0.0,2.75,1.5,1.5,2.0,0.5,2.75,-0.92,-0.42,0.14,353.66,9.0,9.8,0.75,0.0,0.5,0.0,0.0,0.0,0.0,0.0,0.0,0.75,0.0,0.0,0.25,0.7,-0.61,0.95,37.08,-13.0,6.7
5.64,2.0,2.25,4.0,4.5,2.5,1.0,0.0,2.75,1.5,1.5,2.0,1.0,2.5,-0.92,-0.36,0.08,358.0,8.7,10.9,0.5,0.0,0.5,0.0,0.0,0.0,0.0,0.0,0.0,0.75,0.0,0.0,0.25,0.89,-0.92,1.27,34.04,-10.4,-3.9
5.66,2.0,2.5,4.25,4.5,3.0,1.0,0.0,2.75,1.5,2.0,2.5,1.0,2.75,-0.86,-0.36,0.08,372.93,8.2,9.1,1.0,1.0,1.0,0.0,1.25,0.75,0.0,0.25,0.0,2.0,1.5,0.5,1.0,0.77,-0.8,1.27,75.94,-3.3,-7.7
5.68,1.5,2.25,4.25,4.25,3.0,1.0,0.0,2.75,1.5,2.0,2.25,1.0,2.75,-0.86,-0.36,0.2,382.29,7.6,7.1,1.25,1.0,1.0,0.25,1.25,0.75,0.0,0.5,0.0,2.25,0.75,0.5,0.75,0.64,-0.36,0.83,113.85,-3.3,1.1
5.7,1.75,2.75,3.75,4.5,2.25,1.0,0.0,2.75,1.5,2.0,2.0,1.0,2.75,-0.86,-0.42,0.27,386.34,7.8,8.3,1.25,1.25,0.75,0.25,1.5,0.5,0.0,0.25,0.0,2.25,0.75,0.5,1.25,0.58,-0.17,0.58,149.58,-2.7,-1.6
5.72,2.0,2.5,4.25,4.5,2.5,1.0,0.0,2.75,1.5,2.0,2.0,1.0,2.75,-0.8,-0.48,0.2,389.91,8.4,9.6,1.0,0.75,1.0,0.5,1.25,0.5,0.0,0.25,0.0,2.5,0.75,0.5,1.0,0.33,-0.11,0.64,164.08,-2.9,-6.5
5.74,2.25,2.75,4.25,4.5,3.0,1.25,0.0,2.75,1.5,2.0,2.25,1.0,2.75,-0.8,-0.48,0.2,399.0,8.2,11.4,1.5,1.0,1.5,0.25,1.5,0.0,0.0,0.25,0.0,0.75,0.75,0.0,1.0,0.2,-0.11,0.64,168.83,-11.1,23.7
5.76,2.25,2.5,4.25,4.5,3.0,0.75,0.0,2.75,1.5,2.0,2.25,1.0,2.5,-0.73,-0.48,0.2,403.76,8.8,11.3,2.5,1.25,0.5,0.0,1.5,0.5,0.0,0.25,0.0,2.25,0.75,0.5,1.0,0.27,-0.11,0.64,172.95,-5.3,8.4
5.78,2.25,2.5,4.25,4.5,2.5,1.0,0.0,2.5,1.5,2.0,2.0,1.0,2.75,-0.73,-0.48,0.2,405.09,8.8,10.7,1.25,1.0,1.25,0.25,1.5,0.75,0.0,0.25,0.0,2.5,0.75,0.5,1.0,0.39,-0.17,0.52,178.05,-3.6,0.5
5.8,2.0,2.5,4.25,4.5,2.5,1.0,0.0,2.5,1.5,2.0,2.25,1.25,2.75,-0.73,-0.42,0.2,402.6,8.6,8.3,1.25,1.0,1.75,0.25,1.25,0.75,0.0,0.0,0.0,2.0,0.75,0.5,1.0,0.45,-0.11,0.52,181.27,-6.8,6.4
5.82,2.25,2.75,4.25,4.5,2.5,1.0,0.0,2.5,1.5,2.0,2.0,1.0,1.5,-0.86,-0.42,0.27,395.14,9.8,17.0,0.75,0.5,0.5,0.5,0.25,0.75,0.0,0.0,0.0,0.75,0.0,0.0,0.25,0.45,-0.11,0.52,151.58,-6.3,31.9
5.84,1.5,3.25,4.25,4.5,2.5,0.5,0.0,2.75,1.5,2.0,2.0,1.25,2.5,-0.86,-0.42,0.27,391.26,8.7,10.2,0.75,0.75,1.75,0.5,1.25,0.75,0.0,0.0,0.0,2.0,0.75,0.5,1.0,0.52,-0.05,0.52,148.78,-5.6,1.2
5.86,2.0,2.75,3.75,4.25,2.5,0.75,0.0,2.5,1.5,2.0,2.0,1.0,2.75,-0.92,-0.36,0.2,384.95,8.3,9.3,1.75,1.0,1.25,0.25,1.25,0.75,0.0,0.25,0.0,2.0,0.75,0.5,1.25,0.7,-0.05,0.45,147.54,-5.5,4.1
5.88,2.0,2.75,4.25,4.5,2.5,1.0,0.0,2.5,1.5,2.0,2.0,1.25,2.75,-0.98,-0.3,0.2,385.79,8.6,9.8,1.0,1.0,1.5,0.5,1.5,1.25,0.0,0.25,0.0,2.5,0.75,0.5,1.25,0.83,-0.11,0.45,161.15,-2.6,0.1
5.9,2.25,2.25,4.25,4.5,2.5,0.5,0.0,2.25,1.25,2.0,2.0,1.0,2.75,-0.98,-0.23,0.2,379.85,9.5,10.4,1.25,0.75,1.0,0.0,1.25,0.75,0.0,0.25,0.0,2.5,0.75,0.5,1.25,0.89,-0.11,0.64,159.02,-1.9,-9.0
5.92,2.0,2.5,4.25,4.5,2.5,0.25,0.0,2.5,1.25,1.0,2.25,1.0,2.5,-0.98,-0.17,0.2,374.09,10.5,13.4,1.25,1.0,1.75,1.25,1.25,0.75,0.0,0.25,0.0,2.5,0.75,0.5,1.0,0.95,0.08,0.7,172.86,-6.3,6.6
5.94,2.0,2.25,4.25,4.5,2.5,0.25,0.0,2.5,1.25,1.25,2.0,1.25,2.75,-0.98,-0.11,0.2,366.38,10.0,10.3,1.75,1.0,1.25,0.0,1.25,0.75,0.0,0.25,0.0,2.5,0.75,0.5,0.75,0.83,0.2,0.58,170.34,-5.2,4.5
5.96,2.0,2.25,4.25,4.5,2.5,0.75,0.0,2.25,1.5,1.5,2.0,1.0,2.75,-0.98,-0.11,0.2,363.18,9.5,11.0,1.25,1.0,1.75,0.75,1.5,1.0,0.0,0.0,0.0,2.5,0.75,0.5,1.0,0.89,0.14,0.64,176.25,-5.5,6.9
5.98,2.25,2.5,4.25,4.75,3.0,1.75,0.0,3.25,1.5,1.5,2.5,1.0,1.75,-0.92,-0.17,0.2,376.27,8.5,15.4,1.5,1.5,1.75,0.0,1.25,0.75,0.0,0.25,0.0,2.25,0.75,0.5,1.25,0.89,0.14,0.7,178.14,-6.0,5.9
6.0,1.75,2.75,4.5,3.75,2.5,0.25,0.0,2.25,1.5,1.75,2.25,1.25,2.0,-0.92,-0.23,0.2,374.6,10.4,11.4,1.5,0.75,1.75,0.25,1.5,1.0,0.0,0.0,0.0,2.0,0.5,0.5,1.25,0.83,0.14,0.58,177.64,-5.8,7.1
6.02,1.75,2.5,3.5,4.25,2.25,0.25,0.0,1.75,1.5,2.0,2.0,1.25,2.75,-0.92,-0.36,0.39,367.85,9.1,6.4,0.75,1.0,1.0,0.0,1.5,0.75,0.0,0.25,0.0,2.25,0.25,0.5,1.0,0.83,0.08,0.45,167.09,-0.8,-1.6
6.04,2.0,2.5,4.0,4.5,2.5,0.5,0.0,1.75,1.5,2.0,2.0,1.25,2.75,-0.86,-0.42,0.39,363.18,9.5,9.4,0.0,0.0,1.75,0.0,1.25,0.5,0.0,0.25,0.0,1.5,0.75,0.25,0.5,0.83,0.02,0.45,145.66,-4.1,-8.3
6.06,2.25,2.5,4.25,4.5,2.5,0.25,0.0,1.75,1.5,1.5,2.0,1.0,2.5,-0.8,-0.48,0.45,360.19,11.0,14.2,1.0,1.0,1.0,0.0,1.25,0.75,0.0,0.0,0.0,2.25,0.75,0.5,1.0,0.77,0.02,0.52,138.64,-2.7,-3.5
6.08,2.0,2.5,4.25,4.5,2.5,0.25,0.0,1.5,1.5,1.5,2.25,1.0,2.75,-0.73,-0.42,0.45,358.73,10.8,12.0,1.25,1.0,1.5,0.0,1.25,0.75,0.0,0.0,0.0,2.5,0.75,0.5,1.0,0.52,0.08,0.52,134.87,-4.7,0.0
6.1,1.75,2.5,4.25,4.5,2.5,0.25,0.0,1.75,1.5,1.25,2.25,1.0,2.75,-0.73,-0.36,0.45,358.32,10.6,11.6,0.25,0.0,1.5,0.5,1.25,0.0,0.0,0.25,0.0,0.75,0.0,0.0,0.25,0.45,0.02,0.58,116.22,-10.3,25.9
6.12,1.75,2.5,4.25,4.5,3.0,0.25,0.0,2.25,1.25,1.25,2.0,1.25,2.75,-0.67,-0.3,0.45,361.65,9.8,11.7,1.0,1.0,0.5,0.5,0.0,0.75,0.0,0.5,0.0,2.25,0.0,0.5,1.0,0.45,-0.05,0.7,111.33,-0.5,-9.7
6.14,2.0,2.25,4.25,4.5,2.5,0.25,0.0,2.0,1.5,1.25,2.0,1.0,2.75,-0.67,-0.3,0.45,360.31,10.5,11.8,0.5,0.0,1.0,0.0,0.0,0.0,0.0,0.0,0.0,0.75,0.0,0.0,0.25,0.39,-0.11,0.77,78.68,-16.1,9.4
6.16,2.0,2.25,4.25,4.25,2.5,0.5,0.0,2.25,1.75,1.5,2.25,1.25,2.25,-0.67,-0.23,0.52,362.48,10.1,10.3,0.0,0.0,1.25,0.0,0.0,0.0,0.0,0.0,0.0,2.25,0.0,0.5,0.25,0.45,-0.11,0.7,61.14,-3.4,-40.6
6.18,1.0,2.25,4.25,4.75,2.5,0.25,0.0,2.5,1.25,1.75,2.0,1.25,2.25,-0.92,-0.23,0.58,358.49,9.2,8.4,1.0,1.0,1.25,2.0,1.25,0.5,0.0,0.0,0.0,2.25,0.0,0.5,1.25,0.52,-0.11,0.7,84.95,-5.9,10.6
6.2,2.25,2.25,4.0,4.5,2.5,0.25,0.0,2.25,1.5,2.0,2.0,1.25,2.0,-0.92,-0.55,0.7,359.15,10.2,11.6,0.0,0.0,1.75,0.0,1.25,0.0,0.0,0.0,0.0,2.75,0.0,0.5,1.25,0.58,-0.05,0.64,98.4,-1.0,-27.8
6.22,2.75,2.5,4.25,5.0,3.0,3.0,1.0,5.0,3.0,1.5,3.0,1.75,1.75,-1.05,-0.48,0.58,406.66,7.2,9.1,0.5,0.25,1.0,0.25,0.0,0.75,0.0,0.0,0.0,1.0,0.0,0.0,0.25,0.58,0.02,0.58,93.94,-7.0,17.4
6.24,0.0,1.0,3.75,5.25,0.0,2.5,4.75,3.5,1.75,2.25,0.0,1.5,0.0,-0.92,-0.23,0.58,391.19,8.9,10.9,1.25,0.75,0.5,1.5,0.0,0.5,0.0,0.0,0.0,2.25,0.0,0.0,0.5,0.58,0.02,0.58,97.07,-6.0,14.1
6.26,2.5,3.25,4.25,5.5,2.5,3.5,0.0,2.5,3.0,1.25,2.0,0.0,2.0,-0.86,-0.11,0.58,421.18,8.3,22.9,0.75,0.0,0.5,0.25,0.0,0.0,0.0,0.25,0.0,0.75,0.0,0.0,1.25,0.52,0.02,0.64,80.68,-4.0,-24.6
6.28,2.5,1.5,0.0,0.0,0.0,0.0,0.0,0.0,0.0,0.0,0.0,0.0,0.0,-0.86,-0.3,0.52,292.12,26.0,98.2,0.5,0.25,1.75,0.0,1.25,0.0,0.0,0.0,0.0,0.75,0.0,0.0,0.25,0.45,-0.05,0.77,74.99,-13.7,34.8
6.3,0.0,0.0,0.0,0.0,0.0,0.0,0.0,5.75,0.0,0.0,3.5,0.0,0.0,-0.8,-0.48,0.52,223.82,-6.5,-52.4,1.5,1.0,0.5,1.5,0.0,0.5,0.0,0.0,0.0,2.5,0.0,0.5,0.5,0.52,-0.05,0.77,87.55,-6.5,9.1
6.32,0.0,0.0,5.0,0.0,3.0,0.0,4.75,0.0,0.0,0.0,0.0,0.0,0.0,-0.73,-0.48,0.52,147.95,23.8,51.5,2.0,1.25,0.75,2.0,1.25,0.5,0.0,0.0,0.0,2.5,0.75,0.5,1.75,0.52,0.02,0.77,133.7,-5.9,5.6
6.34,0.0,0.0,1.75,0.0,0.0,0.0,4.25,3.0,0.0,1.25,0.0,0.0,0.0,-0.67,-0.36,0.52,109.36,8.0,-5.5,1.25,1.25,1.25,1.5,1.25,0.5,0.0,0.0,0.0,2.5,0.75,0.5,1.75,0.52,0.08,0.7,167.43,-5.1,0.6
6.36,1.75,2.25,1.5,4.75,0.0,0.25,0.0,5.75,1.5,2.5,2.5,2.0,2.25,-0.61,-0.23,0.45,170.92,4.4,-12.6,0.75,1.0,1.0,1.25,1.25,0.75,0.0,0.0,0.0,2.25,0.75,0.5,1.25,0.64,0.02,0.64,181.96,-3.4,-0.9
6.38,3.0,3.0,0.0,5.0,0.0,4.0,0.0,0.0,3.25,0.0,0.0,0.0,0.0,-0.61,-0.3,0.52,208.81,9.9,49.0,1.0,0.5,1.75,2.0,1.25,1.0,0.0,0.0,0.0,1.75,0.75,0.5,1.25,0.77,0.08,0.58,191.01,-7.0,8.3
