time,left pressure 0[N/cm虏],left pressure 1[N/cm虏],left pressure 2[N/cm虏],left pressure 3[N/cm虏],left pressure 4[N/cm虏],left pressure 5[N/cm虏],left pressure 6[N/cm虏],left pressure 7[N/cm虏],left pressure 8[N/cm虏],left pressure 9[N/cm虏],left pressure 10[N/cm虏],left pressure 11[N/cm虏],left pressure 12[N/cm虏],left acceleration X[g],left acceleration Y[g],left acceleration Z[g],left total force[N],left center of pressure X[mm],left center of pressure Y[mm],right pressure 0[N/cm虏],right pressure 1[N/cm虏],right pressure 2[N/cm虏],right pressure 3[N/cm虏],right pressure 4[N/cm虏],right pressure 5[N/cm虏],right pressure 6[N/cm虏],right pressure 7[N/cm虏],right pressure 8[N/cm虏],right pressure 9[N/cm虏],right pressure 10[N/cm虏],right pressure 11[N/cm虏],right pressure 12[N/cm虏],right acceleration X[g],right acceleration Y[g],right acceleration Z[g],right total force[N],right center of pressure X[mm],right center of pressure Y[mm]
0.02,0.5,0.0,1.0,1.0,1.25,2.5,0.0,1.75,1.25,6.75,4.0,6.0,6.0,0.33,0.58,1.95,300.36,-2.9,-59.9,5.25,0.5,2.75,3.5,1.25,2.75,0.0,0.0,0.75,0.0,0.0,0.0,0.0,0.27,0.52,1.52,338.63,-17.6,63.0
0.04,0.75,1.25,0.75,2.0,0.5,2.0,1.0,4.0,1.5,6.25,4.5,7.5,8.0,0.08,-0.05,1.14,421.14,-1.7,-57.2,2.25,0.5,1.0,0.75,1.25,2.75,0.0,0.0,0.5,0.25,0.0,0.25,0.0,0.45,0.27,1.77,202.11,-7.7,49.1
0.06,0.5,0.0,2.25,0.75,0.75,2.0,1.0,4.0,2.0,7.25,5.75,6.75,8.25,-0.05,0.08,1.02,551.22,-1.6,-61.6,0.75,0.0,1.5,2.0,1.25,2.0,0.0,0.0,0.5,0.25,0.0,0.0,0.0,0.7,-0.55,1.45,85.84,-8.7,46.0
0.08,1.0,1.25,3.25,2.0,5.25,3.5,0.75,4.75,2.0,7.5,5.75,7.0,8.25,-0.11,0.02,0.95,703.9,-0.7,-37.0,0.75,0.0,1.25,1.25,1.0,2.75,0.5,0.0,0.5,0.25,0.0,0.0,0.0,1.02,-0.61,1.52,0.0,-5.3,42.5
0.1,0.75,1.25,3.0,2.0,5.25,3.5,2.0,5.25,2.0,7.5,4.25,7.5,8.25,-0.11,0.08,0.95,806.65,-1.0,-37.0,0.5,0.5,0.0,0.5,1.25,2.75,0.5,0.0,0.5,0.25,0.0,0.0,0.0,0.7,-0.42,1.39,0.0,3.4,40.0
0.12,0.75,1.25,0.75,2.25,2.25,3.5,1.75,5.25,2.0,7.5,6.5,7.5,8.25,-0.11,0.08,0.95,862.27,-2.2,-49.5,0.5,0.25,0.5,0.5,1.5,2.0,0.5,0.0,0.5,0.25,1.0,0.0,0.0,0.39,-0.23,0.7,0.0,-2.6,25.3
0.14,0.5,1.0,2.25,2.0,5.25,3.5,2.0,5.5,2.25,8.5,6.5,7.75,8.25,-0.11,0.08,0.95,915.9,-1.6,-42.2,0.75,0.25,0.0,0.0,1.0,2.75,0.75,0.25,0.5,0.5,1.0,0.0,0.5,0.39,-0.23,0.52,0.0,3.3,7.4
0.16,0.5,1.25,2.25,2.25,5.25,3.75,2.25,5.75,2.5,8.5,6.5,8.25,9.0,-0.11,0.08,0.95,966.34,-1.5,-42.1,0.5,0.5,0.5,0.0,1.0,3.0,0.75,0.25,0.5,0.5,1.0,0.0,0.5,0.45,-0.23,0.7,0.0,1.9,11.7
0.18,0.25,1.25,3.0,2.0,5.25,3.75,2.5,6.0,3.0,9.25,7.0,8.25,9.0,-0.05,0.08,0.95,1017.49,-1.2,-42.3,1.0,0.75,0.0,1.25,0.25,3.25,0.75,0.0,1.0,2.0,1.5,0.75,0.5,0.39,-0.3,0.89,37.02,-0.1,-5.1
0.2,0.5,1.25,2.75,2.25,5.25,4.25,2.5,6.75,3.0,9.5,7.5,8.5,9.25,-0.11,0.08,0.95,1066.65,-1.5,-42.1,1.0,1.0,1.0,0.5,2.75,3.0,0.75,0.75,1.0,2.0,1.5,0.75,0.5,0.33,0.08,0.89,114.97,-0.8,5.9
0.22,0.5,1.25,3.0,2.25,5.25,4.5,2.75,7.0,3.5,9.25,7.25,8.25,9.25,-0.11,0.08,0.95,1097.67,-1.3,-40.7,1.0,0.5,0.5,0.5,2.25,2.5,1.0,0.5,1.0,2.0,1.0,0.75,0.5,0.33,0.14,0.95,151.15,-0.2,1.2
0.24,0.5,1.25,3.0,1.0,5.25,4.75,3.0,7.0,3.75,9.5,7.5,8.5,9.25,-0.11,0.02,0.95,1097.42,-1.6,-42.8,1.25,1.25,1.25,1.0,2.25,0.5,1.0,0.5,1.0,1.75,1.5,0.75,0.75,0.33,0.2,1.08,190.66,-7.4,5.7
0.26,0.5,1.25,3.0,1.0,5.25,5.0,3.0,7.25,3.75,9.5,7.75,8.25,9.0,-0.11,0.02,0.95,1084.69,-1.7,-42.1,1.25,0.75,1.25,1.25,1.25,0.75,0.75,0.5,1.0,1.75,1.5,0.75,0.5,0.33,0.39,1.2,206.51,-8.0,1.4
0.28,0.0,1.25,3.0,1.75,5.75,5.25,3.25,7.25,4.25,9.25,7.5,8.25,9.25,-0.11,0.02,0.95,1084.48,-1.7,-40.6,1.25,0.5,0.25,1.0,1.5,0.5,1.0,0.25,1.0,2.0,1.25,0.75,1.0,0.39,0.58,1.33,203.97,-4.7,-10.2
0.3,0.0,1.25,3.0,3.0,5.75,5.75,3.5,7.5,4.25,8.5,7.5,7.75,8.25,-0.05,0.02,0.95,1075.63,-1.2,-35.9,1.75,0.5,0.75,0.25,2.5,1.25,1.0,0.25,1.0,2.0,1.5,0.75,0.5,0.39,0.64,1.45,202.23,-4.9,2.5
0.32,1.0,1.25,3.0,3.75,6.25,5.75,3.5,7.25,4.5,8.5,6.75,7.0,7.25,-0.11,0.02,0.95,1053.59,-0.4,-29.6,1.0,0.5,1.0,1.25,1.0,1.25,1.25,0.5,1.0,1.75,1.75,0.75,0.5,0.45,0.77,1.58,200.11,-6.4,-4.3
0.34,1.25,1.25,3.0,2.25,6.75,5.75,3.75,7.25,4.5,8.25,6.5,7.0,7.5,-0.05,0.08,0.95,1032.09,-0.7,-30.4,1.25,0.75,0.75,0.5,1.25,1.25,1.0,0.5,1.0,2.0,1.5,0.75,0.75,0.52,0.83,1.77,198.73,-4.4,-6.7
0.36,1.25,1.25,3.25,4.0,7.5,5.75,4.25,7.25,4.5,7.5,6.25,7.0,7.25,-0.05,0.08,0.95,1020.68,0.1,-25.3,1.5,0.5,1.5,0.25,1.0,1.25,1.25,0.25,1.0,2.0,1.5,0.75,0.75,0.52,1.2,1.89,194.22,-7.4,-4.5
0.38,0.25,1.25,3.5,5.5,7.5,6.25,4.25,7.0,4.5,7.25,5.25,6.0,6.5,-0.05,0.08,0.95,997.73,0.0,-20.9,1.0,0.75,1.5,0.5,1.0,1.25,1.0,0.25,0.75,1.25,1.5,0.75,0.5,0.33,1.52,1.77,185.64,-8.2,2.3
0.4,1.5,1.25,4.5,5.75,7.5,6.75,4.75,7.0,4.5,6.5,6.0,5.75,5.75,-0.05,0.08,0.95,1005.18,1.7,-15.2,0.0,0.0,1.5,0.0,1.0,0.5,1.0,0.25,0.5,0.0,1.5,0.25,0.25,-0.05,2.02,1.64,151.47,-11.9,-1.3
0.42,2.25,1.25,5.25,7.25,8.5,7.0,4.75,7.0,4.75,6.0,5.75,5.25,5.5,-0.05,0.08,0.95,1041.34,2.7,-8.7,1.0,0.5,0.0,0.5,0.25,3.0,0.75,0.0,0.75,2.0,1.0,0.5,0.25,-0.3,2.45,1.2,136.02,1.7,-4.1
0.44,2.5,1.25,5.25,7.5,9.0,7.0,5.0,6.75,4.5,5.75,5.25,4.75,4.5,-0.05,0.08,0.95,1071.35,3.1,-4.2,0.75,0.0,1.75,0.0,1.0,0.5,1.0,0.25,1.0,1.25,1.5,0.75,0.75,-0.73,2.83,0.27,126.51,-9.3,-14.7
0.46,3.0,1.25,5.5,9.0,9.25,7.25,5.5,6.75,4.5,4.75,4.0,3.75,4.0,-0.05,0.08,0.95,1095.85,4.0,3.3,0.5,0.0,1.75,0.0,0.5,2.25,1.0,0.25,0.5,0.25,1.5,0.0,0.5,-1.3,3.14,0.08,124.99,-6.7,6.9
0.48,3.25,1.75,6.25,11.5,10.5,7.5,5.75,6.25,4.25,4.25,4.0,3.0,2.75,-0.05,0.08,0.95,1135.95,5.4,12.5,0.0,0.0,0.25,0.5,0.0,0.5,0.75,0.25,0.5,0.25,1.0,0.0,0.75,-1.48,3.33,0.08,99.63,-4.0,-30.7
0.5,3.5,2.0,7.25,13.5,11.5,7.75,6.0,6.0,3.75,4.25,3.0,2.25,2.25,-0.05,0.08,0.95,1192.28,6.2,19.8,0.75,0.0,0.0,0.5,0.0,2.75,0.5,0.0,0.75,2.0,1.75,1.0,1.25,-1.86,3.14,-0.55,110.86,2.8,-33.8
0.52,4.25,2.75,8.25,14.5,13.5,7.75,6.75,5.25,3.0,3.25,2.0,2.0,1.5,-0.05,0.08,0.95,1263.91,7.6,29.1,0.0,0.0,0.0,0.0,1.0,0.25,0.0,0.25,0.75,2.25,0.5,3.5,2.25,0.2,-0.3,1.77,125.59,3.2,-74.3
0.54,5.5,2.25,9.0,15.5,14.0,7.75,7.0,5.0,2.5,2.0,1.5,2.0,1.25,-0.05,0.08,0.95,1324.1,8.9,34.2,1.0,0.0,0.0,0.0,1.0,1.75,0.5,1.25,0.75,5.0,1.5,5.0,4.5,-0.67,0.08,1.64,198.51,4.3,-63.7
0.56,6.25,2.75,10.0,16.5,14.5,7.75,7.5,3.75,1.75,1.75,0.0,1.75,1.25,-0.05,0.14,1.02,1364.43,10.1,41.1,0.0,0.0,0.25,0.0,0.0,0.0,0.5,2.5,1.0,6.0,5.5,6.0,6.25,0.08,0.89,4.58,284.35,3.0,-84.1
0.58,7.25,2.75,11.0,17.5,15.0,7.0,7.75,2.0,1.25,0.0,0.5,1.5,1.0,-0.05,0.14,1.08,1383.2,12.5,48.0,1.0,0.5,0.0,0.0,0.5,0.0,0.0,5.5,1.25,7.75,7.5,6.5,8.25,0.08,0.39,1.14,421.93,3.6,-73.9
0.6,8.0,2.75,11.0,15.5,14.0,5.5,7.25,0.25,1.0,1.25,1.0,0.5,1.25,-0.11,0.14,1.14,1357.31,13.7,49.5,0.75,0.5,1.25,0.5,0.0,5.75,1.0,5.75,1.75,8.25,7.5,6.5,8.25,0.08,0.14,0.95,593.15,4.3,-57.1
0.62,9.25,2.5,12.0,16.5,14.0,4.5,7.25,0.75,1.25,2.0,0.5,1.0,0.75,-0.11,0.2,1.2,1346.28,14.6,49.3,1.0,1.0,1.75,0.0,1.75,5.75,1.75,5.75,1.75,8.25,7.25,6.5,7.75,0.14,0.08,0.95,743.63,3.4,-48.9
0.64,9.75,3.0,12.5,18.0,13.0,2.0,6.25,0.0,0.75,0.25,1.0,0.5,1.0,-0.17,0.2,1.2,1311.0,17.5,55.5,0.75,0.5,2.0,0.5,2.25,5.75,2.0,5.75,1.75,8.25,7.0,6.5,7.75,0.08,0.08,0.95,842.45,3.3,-47.9
0.66,10.5,2.75,12.5,15.0,11.5,1.5,5.0,0.25,1.25,1.75,1.0,1.25,0.5,-0.17,0.27,1.33,1254.44,17.7,51.4,1.0,1.0,2.25,2.0,1.25,5.75,1.5,5.75,1.75,8.5,6.75,7.0,8.0,0.08,0.08,0.89,898.48,2.4,-45.6
0.68,10.5,2.75,12.0,13.5,10.5,1.0,3.25,1.75,1.25,1.25,0.25,1.25,0.5,-0.23,0.33,1.39,1163.5,17.6,51.9,1.0,1.25,2.0,2.25,3.25,5.75,1.75,6.0,2.25,8.5,7.25,7.0,8.0,0.08,0.08,0.95,949.84,2.2,-40.8
0.7,10.0,2.25,11.0,9.0,8.5,0.0,1.75,1.25,0.5,0.0,0.5,0.25,0.5,-0.3,0.58,1.7,980.5,20.2,59.5,1.0,1.25,2.5,2.5,3.0,6.0,2.0,6.25,2.25,8.5,7.75,7.0,8.0,0.08,0.08,0.95,990.84,1.7,-39.7
0.72,8.0,1.25,7.25,7.25,7.25,0.0,0.5,0.25,0.5,0.0,0.0,0.25,0.5,-0.55,0.89,2.2,738.16,19.7,61.7,1.0,1.25,2.75,2.75,2.75,6.25,1.25,6.5,2.25,8.5,7.25,6.75,8.0,0.08,0.08,0.95,1010.09,1.9,-38.8
0.74,6.5,1.0,5.75,3.75,5.25,0.0,0.0,0.0,1.0,0.75,0.0,1.0,0.5,-0.55,0.58,2.02,502.86,19.0,51.3,1.0,1.25,2.75,2.75,3.25,6.25,1.75,6.25,2.25,8.5,7.25,6.5,8.0,0.08,0.08,0.95,1000.14,1.8,-37.3
0.76,5.5,1.25,4.25,1.75,5.75,0.0,0.0,0.0,0.5,0.0,0.0,0.0,0.0,-0.3,0.52,2.33,328.38,19.1,67.7,1.0,1.25,2.75,3.0,4.25,6.25,1.75,6.75,2.5,8.25,7.75,6.25,8.0,0.08,0.08,0.95,989.61,1.7,-34.9
0.78,1.75,0.0,1.75,1.0,4.75,0.0,0.0,0.0,1.0,0.75,0.0,0.5,0.0,-0.73,-0.05,1.95,202.12,10.6,38.9,1.0,1.5,2.75,3.0,4.75,6.75,2.0,6.75,3.0,8.25,7.75,6.25,7.5,0.08,0.08,0.95,972.72,1.5,-32.2
0.8,1.0,1.25,3.0,1.5,5.25,1.0,0.0,0.0,1.0,0.5,1.0,0.5,0.5,-0.98,-0.36,1.95,134.29,9.4,34.2,1.75,1.5,2.75,3.25,5.0,7.0,2.0,6.5,3.0,8.0,7.75,5.75,7.5,0.08,0.08,0.95,960.92,1.1,-28.9
0.82,0.5,1.25,3.0,1.0,4.75,1.0,0.0,0.0,1.0,0.25,0.5,0.25,0.0,-1.05,-1.73,1.33,86.78,10.1,43.8,2.0,1.5,3.0,4.0,6.0,7.25,4.0,6.5,3.0,7.75,6.75,5.75,6.5,0.08,0.08,0.95,960.1,0.1,-22.1
0.84,0.5,1.0,3.0,1.75,4.75,1.25,0.0,0.75,1.25,0.75,0.5,0.5,0.5,-0.61,-0.42,0.45,90.77,7.3,28.6,2.0,1.5,3.5,5.25,6.5,7.25,3.0,6.5,3.0,7.25,7.0,5.0,6.25,0.08,0.08,0.95,971.34,-0.3,-17.8
0.86,0.0,0.0,3.0,0.0,4.75,0.0,0.0,0.5,0.5,0.0,0.0,0.0,0.0,-0.48,-0.36,0.2,59.97,10.2,46.3,2.25,1.5,5.25,5.25,7.25,7.5,4.5,6.25,3.0,6.5,6.5,3.75,5.5,0.08,0.08,0.95,992.88,-2.0,-9.4
0.88,0.75,1.25,1.0,1.25,0.75,1.0,0.0,0.0,0.75,0.5,0.0,0.5,0.0,-0.36,-0.36,0.58,41.94,10.6,37.1,2.0,1.5,5.25,7.0,8.0,7.5,5.0,6.0,3.0,5.75,5.25,3.5,4.25,0.08,0.08,0.95,1005.56,-2.7,-2.1
0.9,1.0,1.0,3.0,1.75,4.75,1.0,0.0,1.0,0.75,0.0,0.5,0.5,0.5,-0.36,-0.42,0.95,73.15,9.0,36.1,2.25,2.0,6.25,7.5,8.25,7.75,5.5,5.5,3.0,5.0,4.75,2.5,3.75,0.08,0.14,0.95,1015.62,-4.0,5.4
0.92,0.25,0.25,1.0,0.25,0.5,0.0,0.0,0.0,0.5,0.0,0.0,0.25,0.0,-0.36,-0.36,1.08,48.34,19.8,35.7,3.75,2.0,6.75,9.0,9.0,7.75,5.75,5.5,2.75,4.0,4.25,2.25,2.75,0.02,0.14,0.95,1035.87,-5.7,14.2
0.94,0.5,0.0,1.0,0.25,0.75,0.0,0.0,0.0,0.5,0.0,0.25,0.0,0.5,-0.42,-0.17,1.02,44.56,15.2,19.6,5.0,2.25,7.75,10.5,9.25,7.75,6.0,5.0,2.5,3.5,3.25,1.75,2.25,0.02,0.14,0.95,1071.23,-7.4,22.6
0.96,0.5,1.25,0.75,1.0,0.5,0.25,0.0,0.0,0.5,0.0,0.0,0.5,0.0,-0.36,0.02,1.02,36.28,15.4,45.7,5.5,2.75,8.25,11.0,9.75,8.0,6.25,4.25,2.25,3.5,2.75,1.0,1.5,0.02,0.14,0.95,1107.75,-8.3,29.5
0.98,1.0,1.25,3.0,2.0,4.75,1.0,0.0,1.0,0.5,0.5,0.5,0.5,0.5,-0.23,0.14,1.14,109.2,8.5,35.2,5.75,3.0,8.75,12.5,11.0,8.0,6.25,3.75,1.75,3.5,2.75,1.0,1.25,0.02,0.14,0.95,1158.34,-8.8,32.9
1.0,0.5,0.0,1.0,0.25,0.5,0.0,0.0,0.0,0.5,0.0,0.0,0.25,0.0,-0.11,0.27,1.33,95.24,21.6,35.1,7.0,3.0,9.25,14.0,11.5,8.0,6.25,3.0,1.25,3.25,2.75,1.0,1.25,0.02,0.14,0.95,1216.88,-9.9,36.6
1.02,0.0,0.0,1.0,0.25,1.25,0.0,0.0,0.0,0.5,0.0,0.0,0.0,0.0,-0.05,0.39,1.52,91.14,13.9,42.1,7.25,3.0,9.25,14.0,12.0,8.0,6.0,2.5,1.25,2.5,2.75,1.0,1.5,0.02,0.14,0.95,1262.41,-10.2,38.1
1.04,0.25,0.0,1.25,0.0,4.25,0.0,0.0,0.0,0.5,0.0,0.0,0.25,0.0,-0.17,0.52,1.77,76.86,6.8,44.3,8.0,3.5,10.5,14.5,12.5,8.0,5.25,1.75,1.0,2.5,2.5,0.75,1.0,0.02,0.14,1.02,1304.7,-11.3,43.0
1.06,0.5,0.0,0.75,0.0,0.0,0.0,0.0,0.0,0.5,0.0,0.0,0.25,0.0,-0.3,0.64,1.95,52.14,27.3,23.4,0.0,3.75,11.0,0.0,12.5,7.75,5.25,1.75,1.0,2.25,2.5,0.75,1.5,-0.05,0.2,1.08,1133.92,-6.2,29.5
1.08,0.25,0.0,0.75,0.75,4.75,1.0,0.0,1.0,0.5,0.0,0.0,0.25,0.0,-0.36,0.89,2.27,76.8,0.2,35.7,9.25,3.75,11.5,15.5,13.0,0.0,5.5,1.75,1.0,2.0,2.25,0.75,1.0,-0.05,0.2,1.08,1129.85,-16.2,47.0
1.1,0.75,1.0,0.75,0.0,0.0,0.0,0.0,0.0,0.25,0.0,0.5,0.75,0.25,-0.11,1.45,2.39,79.14,18.5,14.5,9.75,1.25,11.5,15.0,13.0,7.0,4.25,1.5,1.0,1.75,2.0,0.75,1.0,0.02,0.27,1.08,1137.38,-12.8,45.5
1.12,0.5,0.0,0.75,0.75,0.0,0.25,0.0,0.0,0.5,0.0,0.0,0.5,0.0,1.14,2.64,3.02,76.64,19.8,22.3,10.5,4.75,12.0,15.5,12.0,6.25,2.75,1.25,1.0,0.0,1.5,0.75,1.0,0.08,0.33,1.14,1221.92,-14.5,53.3
1.14,0.5,0.0,1.0,1.0,0.75,1.25,0.0,0.0,0.75,0.25,0.0,0.75,0.0,1.02,2.77,1.27,70.72,8.7,19.9,11.0,3.0,11.5,15.0,11.5,5.5,0.75,0.25,1.0,0.0,1.0,0.75,1.0,0.08,0.39,1.27,1218.63,-15.3,55.3
1.16,0.75,1.25,2.25,1.0,4.75,1.0,0.0,0.25,0.5,0.25,0.5,1.25,0.25,1.27,3.27,0.77,132.48,8.0,32.1,10.5,3.5,10.5,12.5,9.5,5.25,0.0,0.75,1.0,1.0,1.75,0.75,1.0,0.14,0.45,1.2,1172.76,-14.6,50.8
1.18,0.75,0.5,2.25,0.75,4.5,1.0,0.0,0.0,0.5,0.25,0.5,0.25,0.5,1.64,3.52,-0.05,163.11,7.7,36.8,9.75,3.25,8.75,9.25,8.0,5.0,0.0,0.25,1.0,1.5,2.0,0.75,0.75,0.27,0.64,1.58,1024.43,-14.3,49.0
1.2,0.75,0.5,2.25,1.0,3.75,1.0,0.0,1.0,0.5,0.5,0.5,0.75,0.5,2.02,3.83,-0.42,194.48,6.4,23.1,8.75,2.0,6.25,7.25,5.5,4.75,0.0,0.25,0.75,1.0,1.75,0.75,1.0,0.77,1.33,2.83,822.3,-13.9,46.6
1.22,0.75,1.0,1.0,0.75,4.75,1.0,0.0,1.0,0.5,1.75,1.25,3.5,2.75,-0.36,-0.11,2.39,233.83,0.8,-17.7,7.0,1.5,3.75,5.25,4.5,3.25,0.0,0.25,1.0,1.75,2.0,0.75,0.75,0.2,0.83,2.64,615.21,-12.4,38.4
1.24,0.75,1.0,1.5,0.75,4.75,1.0,0.0,1.5,0.5,4.25,1.5,5.5,5.75,0.33,-0.48,0.89,303.03,-1.0,-37.9,4.75,1.5,1.25,3.25,3.0,3.0,0.0,0.5,1.0,1.75,1.0,0.75,0.75,0.39,0.33,2.64,414.8,-8.3,31.5
1.26,0.75,1.0,1.75,0.25,4.75,2.75,0.0,2.5,1.0,5.75,3.5,5.25,7.0,0.89,0.83,2.14,397.12,-2.7,-40.9,2.0,1.25,1.5,2.25,3.0,3.75,0.25,0.25,1.0,2.0,1.75,0.75,1.0,1.02,-0.73,2.27,293.19,-3.8,15.7
1.28,0.0,1.25,2.25,2.5,0.0,3.0,1.25,5.25,3.0,0.0,7.0,8.25,8.25,-0.3,0.83,1.39,526.49,1.9,-51.5,1.25,0.0,2.0,3.0,2.5,3.25,0.5,0.5,1.0,2.0,1.25,0.75,0.75,1.33,-0.48,2.39,218.41,-4.4,11.7
1.3,0.5,1.25,3.0,3.0,4.25,4.5,0.0,6.25,3.0,7.75,8.0,8.25,9.0,0.02,0.08,1.14,740.86,-1.1,-42.0,1.0,0.5,1.5,2.0,2.75,3.25,0.75,0.75,1.0,2.0,1.5,0.75,0.75,0.83,-1.55,0.89,175.08,-2.4,8.0
1.32,0.5,1.25,3.0,2.5,4.75,4.5,0.0,6.25,2.5,7.5,7.75,8.25,8.75,-0.05,0.08,0.95,899.95,-1.4,-41.4,1.0,0.5,2.75,2.5,3.0,2.75,0.5,0.75,1.0,2.0,1.5,0.75,1.0,0.45,-0.61,0.7,142.56,-5.2,11.1
1.34,0.75,0.5,3.0,1.25,4.75,4.25,2.0,5.75,2.5,6.5,7.5,8.25,8.5,-0.11,0.08,0.95,1006.63,-0.8,-43.2,1.0,0.25,1.25,2.5,2.25,3.0,0.75,0.5,1.0,2.0,1.75,0.75,0.5,0.33,-0.61,0.14,132.33,-3.3,6.8
1.36,0.5,0.75,3.25,1.5,4.75,4.5,2.25,6.25,2.5,7.0,7.25,8.25,8.25,-0.11,0.08,0.95,1041.47,-0.9,-41.5,1.0,1.0,1.25,1.5,1.5,3.0,0.75,0.25,1.0,1.75,1.75,0.75,0.5,0.39,-0.42,0.58,128.51,-3.9,7.3
1.38,0.5,1.0,3.0,0.0,1.25,4.5,2.25,6.25,2.5,8.25,7.5,8.25,8.5,-0.11,0.02,0.95,1022.6,-1.7,-52.9,0.75,1.25,2.75,0.0,2.75,3.0,0.75,0.25,1.0,2.0,1.5,0.75,0.5,0.33,-0.48,0.89,141.04,-4.5,11.5
1.4,0.5,1.25,3.0,0.25,4.75,4.5,2.5,6.25,2.75,8.5,7.5,8.25,8.75,-0.11,0.08,0.95,1017.52,-1.7,-44.4,1.0,0.5,1.5,0.0,2.25,2.75,0.75,0.25,1.0,2.0,1.25,0.75,0.5,0.27,-0.36,1.02,145.59,-2.1,3.2
1.42,0.5,1.0,3.0,2.25,4.5,5.0,2.5,6.5,3.0,8.5,7.75,8.25,8.5,-0.11,0.08,0.95,1034.6,-1.1,-41.2,0.75,0.5,1.5,0.5,2.25,0.5,0.75,0.0,1.0,1.75,1.75,0.75,0.5,0.27,-0.11,1.02,147.8,-7.5,-2.1
1.44,0.5,0.0,3.0,3.0,1.75,5.0,3.0,7.0,3.0,8.5,7.75,8.25,8.25,-0.11,0.08,0.95,1032.53,-0.9,-46.9,1.0,1.0,0.25,0.5,2.75,1.25,0.75,0.25,1.0,2.0,1.75,0.75,0.75,0.27,0.14,1.02,158.16,-2.1,-2.4
1.46,1.0,0.5,3.0,3.5,4.5,4.75,3.0,7.0,3.5,8.5,7.5,8.25,8.25,-0.11,0.02,0.95,1031.75,-0.4,-38.8,1.0,0.75,1.5,0.5,1.5,1.25,0.75,0.5,1.0,2.0,1.75,0.75,0.75,0.27,0.33,1.14,167.76,-5.5,-4.9
1.48,1.0,0.5,3.0,3.75,4.75,5.5,3.25,7.0,3.75,8.5,7.5,7.75,8.25,-0.11,0.02,0.95,1025.81,-0.5,-36.4,1.0,1.0,0.75,0.5,1.75,2.75,0.75,1.0,1.0,2.0,1.75,0.75,0.5,0.2,0.39,1.45,183.11,-0.7,-1.0
1.5,0.75,0.25,3.25,3.75,5.0,5.5,3.5,7.0,4.25,8.0,7.5,7.5,7.5,-0.11,0.08,0.95,1012.95,-0.2,-35.1,1.0,1.0,1.5,0.5,1.5,2.0,0.75,0.25,1.0,1.75,1.75,0.75,0.5,0.2,0.52,1.58,188.05,-5.3,2.7
1.52,1.75,1.0,3.5,4.0,6.5,5.75,4.25,7.0,4.5,7.5,7.0,7.0,7.25,-0.05,0.08,0.95,1007.28,0.7,-26.4,0.75,0.75,1.5,0.5,1.25,3.0,0.75,0.5,1.0,2.0,1.5,0.75,0.5,0.2,0.7,1.83,194.32,-2.2,-0.2
1.54,2.25,1.25,4.25,5.5,4.75,5.75,4.25,7.0,4.5,7.25,7.0,6.75,6.5,-0.05,0.08,0.95,1003.14,2.2,-23.0,1.0,0.75,1.25,0.5,1.5,3.0,0.75,0.25,1.0,1.75,1.5,0.75,0.5,0.33,0.89,2.08,194.38,-2.6,3.3
1.56,2.25,1.25,5.0,5.5,7.25,6.25,4.75,7.0,4.5,6.0,6.5,6.0,5.5,-0.05,0.08,0.95,1029.1,2.7,-14.4,1.0,1.0,1.5,0.5,1.25,3.0,0.75,0.5,1.0,1.75,1.5,0.75,0.5,0.39,1.52,2.45,198.04,-3.2,4.3
1.58,2.25,1.25,5.25,7.25,7.25,6.5,5.0,6.75,4.5,5.75,6.0,5.25,4.5,-0.05,0.08,0.95,1049.46,3.5,-8.5,0.75,0.75,1.0,0.5,1.25,3.0,0.75,0.25,1.0,1.75,1.5,0.75,0.5,0.2,2.2,2.27,197.28,-1.5,-0.4
1.6,2.5,1.25,5.5,7.5,8.25,7.0,5.25,6.25,4.25,5.0,5.0,3.75,4.0,-0.05,0.08,0.95,1054.94,3.8,-0.7,1.0,0.75,1.5,0.5,1.0,3.0,0.75,0.5,1.0,2.0,1.5,0.75,0.5,-0.3,2.83,1.58,200.06,-2.8,0.2
1.62,3.25,1.25,6.5,9.0,8.75,7.0,5.5,6.0,4.0,4.25,4.0,3.5,2.75,-0.05,0.08,0.95,1060.79,5.5,8.2,0.75,0.75,1.5,0.5,1.25,3.0,0.75,0.5,1.0,2.0,1.5,0.75,0.5,-0.8,3.39,0.52,201.11,-2.2,-0.2
1.64,3.25,1.5,6.75,11.5,9.0,7.0,5.75,5.25,3.75,4.25,4.0,2.25,2.0,-0.05,0.08,0.95,1067.53,6.5,15.4,1.0,0.75,2.0,0.75,2.25,3.0,0.75,0.25,1.0,1.75,1.5,0.75,0.75,-2.17,4.64,-0.05,214.42,-3.9,7.8
1.66,4.0,1.75,8.0,13.0,10.5,6.75,6.25,5.25,3.0,3.5,3.0,2.25,1.5,-0.05,0.08,0.95,1105.28,7.9,23.2,0.75,0.75,1.0,0.75,0.0,3.0,0.5,0.5,1.0,1.75,1.5,0.75,0.75,-3.05,4.52,0.77,206.37,-1.4,-8.7
1.68,4.75,2.0,8.5,13.5,11.5,7.0,6.75,4.25,2.75,2.5,2.5,2.0,1.0,-0.05,0.08,0.95,1147.15,9.2,30.3,1.0,0.75,1.5,0.75,1.0,3.0,0.25,0.5,0.75,3.5,1.5,2.25,2.25,0.02,-0.05,0.14,221.84,0.0,-23.9
1.7,5.5,2.75,9.5,15.0,13.0,7.25,7.0,3.75,2.0,2.0,1.75,2.0,1.0,-0.05,0.08,0.95,1215.22,10.0,36.3,1.0,0.25,1.5,0.0,1.0,3.0,0.25,0.75,1.0,4.0,1.75,4.75,4.5,0.14,-0.05,1.2,255.81,1.5,-48.7
1.72,6.25,2.75,10.0,16.5,13.5,7.5,7.5,2.5,1.5,2.0,1.75,2.0,1.0,-0.05,0.14,1.02,1289.71,10.9,39.4,0.25,0.0,0.0,0.0,2.5,2.75,0.0,1.75,1.0,7.0,2.75,5.75,6.75,-0.36,1.02,2.83,324.12,6.6,-63.6
1.74,7.0,2.75,11.0,16.5,14.5,7.0,7.25,2.0,1.25,0.5,1.25,0.75,1.25,-0.05,0.14,1.02,1331.83,12.2,46.6,1.0,0.0,0.0,0.25,0.0,5.0,0.5,4.5,1.0,9.0,6.5,7.25,7.75,-0.23,0.64,2.08,457.52,5.8,-65.5
1.76,8.0,2.5,11.0,17.0,14.0,6.25,7.0,1.75,1.25,1.25,0.0,1.25,0.25,-0.05,0.14,1.14,1344.33,13.1,49.6,0.0,0.5,1.0,0.5,1.0,5.5,0.0,6.25,1.75,9.0,8.25,7.0,8.75,-0.11,0.27,1.2,633.2,5.4,-60.0
1.78,9.0,2.75,12.0,18.5,13.5,5.5,6.75,1.25,1.25,1.5,0.0,1.0,0.75,-0.11,0.2,1.14,1361.15,14.2,50.5,1.0,1.0,1.75,0.75,1.75,5.75,0.25,6.0,1.75,8.5,7.5,6.75,8.25,0.14,0.14,0.95,776.14,3.7,-49.4
1.8,9.5,2.75,12.0,17.0,14.0,4.0,6.25,1.75,0.5,1.75,1.0,1.25,0.5,-0.17,0.2,1.2,1360.45,14.6,49.2,1.0,1.25,2.0,0.5,1.75,5.75,1.25,6.25,1.75,8.5,7.25,6.5,8.0,0.14,0.14,0.95,864.74,3.3,-47.2
1.82,9.5,2.25,12.5,15.0,14.5,2.25,5.0,0.75,0.75,0.0,0.0,1.25,0.5,-0.17,0.27,1.27,1317.64,16.7,55.6,1.0,1.25,1.75,1.5,1.75,6.0,0.75,6.25,1.75,8.5,7.25,6.5,8.25,0.08,0.08,0.89,911.42,3.4,-45.9
1.84,10.0,2.75,12.5,13.5,10.5,1.5,2.25,0.5,1.0,0.5,0.0,1.25,0.25,-0.23,0.33,1.33,1202.37,18.5,56.9,1.0,1.25,1.75,2.0,0.25,6.25,1.75,6.5,1.75,8.5,7.5,6.5,8.0,0.14,0.08,0.95,923.91,2.9,-46.9
1.86,10.5,2.25,11.5,11.0,9.0,0.75,1.75,1.25,1.0,0.5,0.5,1.25,0.25,-0.36,0.52,1.64,1045.94,19.0,54.7,1.0,1.0,2.25,2.0,2.75,6.25,1.75,6.75,2.25,8.5,7.75,6.5,8.0,0.08,0.08,0.95,947.63,2.5,-41.4
1.88,9.5,1.25,9.0,7.25,7.25,0.0,1.0,0.5,0.75,0.5,0.5,1.25,0.5,-0.67,0.95,2.77,827.9,20.1,53.8,1.0,1.25,2.75,2.75,3.5,6.5,1.75,7.0,2.25,8.25,7.75,6.25,7.75,0.08,0.08,0.95,971.17,1.9,-36.1
1.9,8.0,1.25,5.5,5.5,5.0,0.0,0.0,0.0,1.0,0.5,0.0,1.25,0.0,-0.86,0.89,2.83,593.6,20.5,56.9,1.0,1.25,2.25,3.0,3.75,6.75,2.0,7.0,2.5,8.25,7.25,5.75,7.5,0.08,0.08,0.95,979.36,2.3,-34.3
1.92,5.25,0.0,5.25,2.5,5.75,0.0,0.0,0.0,0.5,0.0,0.0,0.5,0.0,-0.55,0.39,2.64,384.38,20.0,60.4,1.0,1.25,3.0,3.0,5.0,7.25,1.5,7.0,2.5,8.0,7.25,5.5,7.0,0.08,0.08,0.95,965.33,2.0,-29.5
1.94,2.25,0.0,2.25,0.0,4.75,0.0,0.0,0.0,0.5,0.0,0.0,1.0,0.5,-0.92,0.02,2.33,232.09,12.7,38.2,1.25,1.5,2.75,3.25,5.5,7.5,2.5,7.0,3.0,7.75,6.75,5.0,6.5,0.08,0.08,0.95,945.18,1.6,-25.1
1.96,0.75,1.25,3.0,1.75,4.75,0.5,0.0,0.0,0.75,0.5,0.75,1.25,0.5,-1.05,-0.11,1.64,141.81,10.5,29.3,1.5,1.5,2.75,4.5,6.5,7.5,3.0,7.0,3.0,7.25,6.5,5.0,6.0,0.08,0.14,0.95,937.31,0.8,-19.8
1.98,0.5,0.0,3.0,0.0,4.75,0.0,0.0,0.0,0.5,0.0,0.5,0.0,0.0,-1.17,-1.61,1.64,57.96,12.7,47.1,2.0,1.5,3.25,5.25,7.0,7.75,3.0,7.0,3.0,7.0,6.5,3.5,5.5,0.08,0.14,0.95,939.01,0.1,-13.2
2.0,1.25,0.75,1.75,1.0,2.25,1.0,0.0,0.0,0.75,0.5,1.0,0.5,0.5,-0.98,-0.8,0.7,25.39,10.0,24.4,2.25,1.5,4.0,5.5,7.5,7.75,3.75,7.0,3.0,6.0,5.75,3.0,4.75,0.08,0.14,0.95,951.07,-0.9,-6.8
2.02,1.25,1.25,3.0,1.25,4.75,1.0,0.0,0.25,0.5,0.5,0.5,0.75,0.5,-0.55,-0.48,0.2,37.23,9.6,36.2,2.25,1.75,4.75,7.25,8.25,8.0,4.25,6.5,3.0,5.25,5.75,2.5,3.75,0.08,0.14,0.95,977.9,-2.4,1.0
2.04,1.0,1.0,3.0,2.0,4.75,1.0,0.0,0.0,0.5,0.5,0.5,0.75,0.5,-0.42,-0.36,0.27,77.65,9.9,36.6,3.5,2.0,5.25,7.75,9.0,8.0,4.5,6.25,2.5,4.25,4.5,2.25,3.0,0.08,0.14,0.95,998.44,-3.7,10.1
2.06,0.5,0.0,1.25,0.0,0.75,0.0,0.0,0.0,0.5,0.0,0.0,0.25,0.0,-0.3,-0.36,0.58,49.5,21.1,36.9,3.5,2.25,6.0,9.0,9.25,8.25,5.0,5.5,2.25,3.75,3.75,1.5,2.25,0.08,0.14,0.95,1013.4,-4.9,18.0
2.08,1.0,1.25,3.0,1.5,4.75,1.0,0.0,0.25,0.5,0.0,0.5,0.75,0.5,-0.36,-0.42,0.83,92.93,10.1,39.2,5.0,2.5,6.5,10.5,10.5,8.25,4.5,5.5,1.75,3.5,3.75,1.25,2.25,0.08,0.14,0.95,1054.83,-5.9,23.4
2.1,0.5,0.0,3.0,0.0,4.75,0.25,0.0,0.25,0.5,0.0,0.5,0.25,0.5,-0.42,-0.3,0.95,105.03,10.0,34.3,5.25,2.75,7.0,11.0,11.0,8.25,5.0,4.5,1.25,3.5,3.25,1.0,2.0,0.08,0.14,0.95,1090.93,-6.7,28.0
2.12,0.5,0.0,1.0,0.0,0.5,0.0,0.0,0.0,0.5,0.0,0.0,0.25,0.0,-0.42,-0.11,0.95,92.78,22.0,33.0,5.75,3.0,7.75,12.5,11.5,8.25,5.0,3.75,1.0,3.5,2.75,1.0,1.5,0.02,0.14,0.95,1140.69,-7.8,32.9
2.14,0.5,0.0,1.0,0.0,0.75,0.0,0.0,0.0,0.25,0.0,0.0,0.5,0.0,-0.36,0.08,1.08,66.33,19.4,29.2,6.75,3.0,8.0,13.0,12.5,8.5,5.0,3.25,1.0,3.25,2.75,1.0,1.25,0.02,0.14,0.95,1194.15,-8.4,35.9
2.16,0.5,0.0,3.0,1.0,4.75,1.0,0.0,0.0,0.5,0.0,0.5,1.0,0.0,-0.23,0.39,1.58,101.18,10.2,35.0,6.75,3.0,8.5,12.5,12.5,8.5,5.0,2.5,0.75,3.5,2.75,0.75,1.5,0.02,0.2,0.95,1228.38,-8.7,36.6
2.18,0.75,1.0,1.0,1.5,0.75,1.0,0.0,0.0,0.5,0.25,0.0,0.75,0.0,-0.23,0.52,1.89,105.37,11.5,37.1,7.0,3.0,8.75,14.0,13.5,8.5,4.5,2.25,0.75,2.25,2.25,1.0,0.75,0.02,0.2,0.95,1253.39,-9.6,42.0
2.2,1.0,0.75,3.0,1.25,4.75,1.0,0.0,0.25,0.5,0.5,0.5,1.0,0.5,-0.36,0.77,2.14,153.91,9.1,31.0,8.0,3.5,9.25,15.5,13.5,8.25,4.25,2.0,1.0,2.25,2.5,0.75,1.25,-0.05,0.2,1.02,1296.86,-10.3,42.7
2.22,0.75,1.0,3.0,1.0,4.75,1.0,0.0,0.25,0.5,0.5,0.75,0.75,0.5,-0.61,1.2,2.7,192.41,8.7,31.2,8.75,3.75,9.25,16.0,13.5,7.75,3.25,1.5,0.75,1.75,2.5,0.25,0.5,-0.05,0.27,1.08,1315.55,-11.3,48.2
2.24,0.75,1.0,3.0,1.0,4.75,1.0,0.0,0.25,0.5,0.5,0.5,1.0,0.5,-0.48,1.95,2.45,219.46,8.6,30.6,9.75,4.0,10.5,15.5,13.0,7.75,0.0,1.0,0.25,0.5,1.5,0.75,0.5,0.02,0.27,1.08,1311.25,-12.5,53.9
2.26,0.75,0.5,1.0,1.0,0.5,1.0,0.0,0.0,0.5,0.5,0.0,0.75,0.0,0.33,2.95,1.83,187.23,10.6,25.5,9.0,3.75,11.0,16.0,13.5,6.5,1.5,1.0,0.75,0.0,0.0,0.75,0.5,0.08,0.33,1.14,1286.02,-13.4,56.5
2.28,0.5,1.0,2.75,1.0,4.75,1.0,0.0,0.25,0.75,1.75,0.5,0.5,0.5,1.27,3.2,0.95,205.2,5.9,24.2,9.75,3.75,11.0,15.5,12.0,6.0,0.0,0.25,0.0,0.0,1.5,0.75,0.75,0.14,0.39,1.2,1233.01,-14.4,56.1
2.3,0.75,1.0,1.0,1.0,0.0,1.0,0.0,0.0,0.5,2.0,0.0,0.5,0.0,1.95,3.58,0.33,178.6,6.7,13.1,10.5,4.75,10.5,14.0,11.0,5.25,0.0,0.25,0.25,0.5,2.25,0.75,1.0,0.14,0.45,1.2,1178.93,-14.6,53.9
2.32,0.75,0.25,2.25,1.0,4.75,1.0,0.0,0.0,0.5,0.25,0.5,0.5,0.25,2.27,4.08,-0.11,181.53,8.0,36.4,9.75,4.5,9.25,11.5,9.25,5.25,0.0,0.0,0.25,1.5,2.5,0.75,1.0,0.33,0.52,1.39,1084.16,-14.0,50.4
2.34,0.75,1.0,2.25,0.75,4.75,1.0,0.0,0.5,0.5,0.5,0.5,0.5,0.5,3.08,3.58,3.2,194.3,6.4,32.2,8.75,3.0,7.0,7.25,7.0,5.0,0.0,0.25,0.75,1.75,2.25,0.75,1.0,0.64,1.14,3.33,922.4,-12.9,44.9
2.36,0.75,1.0,1.25,0.75,4.5,1.0,0.0,0.0,0.5,1.5,0.0,3.5,1.5,-0.86,-1.05,2.08,222.71,3.1,-4.6,7.25,1.5,2.75,5.25,4.5,4.5,0.0,0.25,0.25,0.75,2.0,0.75,1.0,0.45,1.02,3.58,681.2,-11.1,42.2
2.38,0.75,0.75,1.75,0.75,4.75,1.0,0.0,1.75,0.5,4.25,1.5,6.75,6.5,0.33,-0.42,0.7,287.47,-0.9,-42.7,5.5,1.5,0.5,3.25,2.25,2.75,0.0,0.5,0.25,1.0,1.75,0.75,1.0,0.45,0.27,2.7,436.93,-9.4,32.5
2.4,0.0,0.0,2.0,0.25,4.75,1.0,0.0,1.75,0.5,6.0,5.25,5.5,8.5,0.52,0.95,3.45,380.0,-2.4,-55.6,2.0,0.0,2.25,1.5,2.25,3.25,0.0,0.25,0.5,0.0,1.5,0.75,0.75,1.14,-0.73,2.64,268.36,-7.6,23.3
2.42,0.5,1.25,0.25,1.75,0.0,2.25,0.0,5.5,2.25,8.25,7.75,9.0,9.5,-0.3,0.64,1.39,566.85,-2.9,-65.9,1.25,0.5,1.5,3.0,3.0,3.25,0.25,0.5,1.0,1.75,1.5,0.5,0.75,1.27,-0.23,1.2,179.92,-3.6,15.6
2.44,0.5,1.25,1.75,0.0,1.75,3.5,1.0,6.25,2.75,9.0,8.25,9.0,9.25,0.2,0.14,1.14,745.91,-2.6,-58.4,1.0,0.25,1.0,2.75,2.5,3.0,0.75,0.25,1.0,1.75,1.0,0.75,0.75,0.95,-1.73,1.2,120.64,-2.9,11.2
2.46,0.5,1.0,2.0,1.0,3.75,3.5,0.75,6.5,2.75,8.5,8.0,9.0,9.75,-0.05,0.02,0.95,919.81,-2.3,-52.2,0.5,0.0,1.25,1.5,2.75,3.0,0.5,0.25,1.0,2.0,1.5,0.75,0.75,0.45,-0.8,1.14,98.72,-0.8,0.8
2.48,0.5,1.25,2.5,1.75,4.25,4.0,1.5,6.25,2.5,8.5,8.0,9.0,9.25,-0.11,0.02,0.95,1031.88,-1.5,-46.5,1.0,0.25,2.5,0.75,2.5,3.0,0.75,0.5,1.0,2.0,1.5,0.75,0.75,0.33,-0.55,0.2,97.71,-4.0,5.6
2.5,0.0,1.25,3.0,1.75,4.75,4.5,1.75,6.25,3.0,7.25,7.75,8.5,9.0,-0.11,0.02,0.95,1090.28,-1.2,-43.3,1.0,0.5,2.5,0.0,1.75,3.0,0.75,0.25,1.0,2.0,1.25,0.75,0.5,0.39,-0.36,0.33,97.16,-4.4,5.7
2.52,0.0,1.25,3.0,2.5,4.75,5.0,0.5,6.75,3.0,8.0,7.5,8.25,9.0,-0.11,0.02,0.95,1105.05,-1.9,-42.0,1.0,0.5,1.5,0.5,3.0,3.25,0.5,0.75,1.0,2.0,0.0,0.75,0.5,0.39,-0.42,0.64,107.73,0.0,13.5
2.54,1.0,1.0,3.0,3.5,4.75,4.75,2.25,7.0,3.5,8.25,7.0,7.75,8.25,-0.11,0.02,0.95,1115.49,-0.6,-36.5,1.0,1.25,1.75,0.5,2.5,3.0,0.75,0.25,1.0,2.0,0.75,0.75,0.75,0.27,-0.36,1.02,129.3,-2.7,12.4
2.56,0.5,1.25,3.0,3.75,5.0,5.75,3.0,7.0,3.75,7.5,7.0,7.5,7.5,-0.11,0.02,0.95,1099.48,-0.5,-33.0,0.75,1.25,1.75,1.25,2.25,3.0,0.75,0.5,1.0,1.75,1.25,0.75,0.5,0.27,-0.17,1.02,163.4,-3.5,12.5
2.58,1.25,0.75,3.25,3.75,5.75,5.75,3.0,7.0,3.75,7.25,6.5,7.0,7.25,-0.11,0.02,0.95,1069.91,-0.1,-29.6,1.0,1.0,2.25,0.0,2.75,3.0,0.75,0.25,1.0,2.0,1.25,0.75,0.5,0.33,0.14,0.95,193.44,-3.6,11.1
2.6,1.5,1.25,3.5,5.0,6.75,6.25,3.5,7.0,3.75,6.75,6.25,6.0,6.5,-0.05,0.02,0.95,1045.11,0.5,-20.9,1.0,1.25,2.25,0.5,1.0,3.0,0.75,0.25,1.0,1.75,1.0,0.75,0.5,0.33,0.27,1.02,209.45,-5.4,11.4
2.62,2.25,1.25,4.0,5.5,7.25,6.5,3.75,6.75,3.75,6.0,4.5,5.25,5.5,-0.11,0.02,0.95,1005.02,1.4,-12.3,0.75,1.0,1.5,0.0,2.25,3.0,0.75,0.0,1.0,2.0,1.5,0.75,0.5,0.27,0.39,1.33,214.4,-2.0,4.9
2.64,1.75,1.25,5.0,7.0,7.25,7.0,4.25,6.75,3.75,5.75,5.0,4.75,4.5,-0.11,0.08,0.95,994.85,2.4,-7.5,1.0,1.25,1.75,0.5,1.0,3.0,0.75,0.25,1.0,1.75,1.5,0.75,0.5,0.2,0.52,1.64,211.03,-4.4,6.8
2.66,1.75,1.25,5.25,7.25,8.25,7.0,4.5,6.25,3.75,5.0,4.25,3.75,3.75,-0.11,0.08,0.95,974.05,3.0,-0.8,0.75,1.25,1.5,0.5,2.25,3.0,0.75,0.25,1.0,2.0,1.5,0.75,0.5,0.2,0.64,1.83,211.62,-2.4,7.5
2.68,2.25,1.25,5.5,9.0,8.75,7.25,4.75,6.25,3.25,4.25,4.0,3.5,2.75,-0.11,0.08,0.95,979.74,4.1,6.3,1.0,1.0,1.75,0.5,1.25,3.0,0.75,0.25,1.0,1.75,1.5,0.75,0.5,0.45,1.02,2.27,211.69,-4.1,6.1
2.7,3.25,1.5,6.5,11.5,9.0,7.5,5.0,5.75,3.5,4.25,3.25,2.25,2.5,-0.05,0.08,0.95,1012.03,5.6,15.1,0.75,1.25,2.0,0.5,1.0,3.0,0.5,0.5,1.0,2.0,1.5,0.75,0.5,0.52,1.45,2.58,213.12,-3.6,4.0
2.72,3.25,1.75,6.75,12.0,10.5,7.5,5.0,5.25,3.0,4.0,3.0,2.25,1.25,-0.05,0.08,0.95,1051.69,6.2,21.0,1.0,1.25,1.75,0.5,1.5,3.25,0.5,0.25,1.0,2.0,1.5,0.75,0.5,0.45,2.45,2.52,214.34,-3.2,7.4
2.74,3.75,2.25,7.75,13.5,11.0,7.75,5.5,5.0,2.5,2.75,1.75,2.0,1.25,-0.11,0.08,0.95,1101.01,7.5,28.8,1.0,1.25,1.75,0.75,1.0,3.0,0.75,0.0,1.0,2.0,1.5,0.75,0.5,-0.05,3.2,1.64,214.67,-4.7,7.0
2.76,4.25,2.25,8.25,15.0,12.0,7.75,5.5,4.25,2.0,2.0,1.75,1.5,1.25,-0.05,0.08,0.95,1148.21,8.5,34.1,1.0,0.5,1.75,1.25,1.25,3.25,0.75,0.25,1.0,2.0,1.5,0.75,1.0,-0.92,3.77,-0.11,216.85,-3.2,1.0
2.78,5.5,2.75,9.0,15.0,13.5,7.75,5.5,3.75,1.75,2.25,1.5,1.5,1.5,-0.05,0.14,0.95,1217.9,9.0,36.6,0.75,0.75,0.75,0.75,1.25,3.0,0.5,0.25,1.0,2.0,0.0,0.75,0.5,-2.05,4.45,-0.36,203.25,0.7,6.7
2.8,6.25,2.75,9.0,16.5,13.5,7.75,5.5,2.5,1.25,0.0,1.5,1.75,1.25,-0.05,0.14,0.95,1261.54,10.7,43.3,1.0,1.25,1.75,0.5,1.5,3.25,0.75,0.25,1.0,2.0,1.5,1.0,1.0,-3.36,4.7,0.45,210.05,-3.0,2.1
2.82,6.5,2.75,9.5,16.5,14.5,7.75,5.25,2.0,1.25,2.0,1.25,1.5,1.0,-0.05,0.14,1.02,1309.82,10.3,42.5,1.0,1.0,1.5,1.25,1.0,3.0,0.25,0.5,0.75,3.5,2.75,3.0,3.0,0.08,-0.55,-0.11,236.11,-0.9,-29.2
2.84,7.25,2.75,10.0,18.5,15.0,7.5,4.75,1.75,1.25,2.0,0.75,1.25,1.0,-0.05,0.14,1.02,1347.11,10.9,45.3,0.75,0.0,0.0,0.0,0.25,0.0,0.0,0.25,0.5,3.75,3.5,5.0,6.25,-0.05,-0.23,0.89,268.49,2.0,-85.6
2.86,0.0,2.25,11.0,18.0,13.5,6.75,3.75,1.75,0.25,1.25,0.5,0.5,0.5,-0.11,0.2,1.08,1292.86,9.9,45.7,0.75,0.0,0.0,0.0,1.0,2.75,0.5,3.25,1.0,8.0,6.5,7.25,7.75,-0.11,0.95,4.77,373.82,4.5,-69.9
2.88,8.5,2.75,12.0,18.5,15.0,6.0,5.5,1.75,0.5,2.0,0.75,1.0,1.0,-0.11,0.2,1.08,1326.39,12.8,48.0,0.5,0.5,0.0,0.0,1.75,5.75,0.0,6.25,0.0,9.25,8.25,7.75,8.75,0.14,0.7,1.45,545.62,6.7,-61.4
2.9,9.25,2.75,12.0,18.5,15.0,4.5,4.75,1.5,0.5,2.0,0.75,1.25,0.5,-0.11,0.2,1.08,1339.33,13.9,49.7,1.0,0.5,1.5,2.5,0.5,6.25,0.0,6.5,1.5,9.0,8.75,7.75,8.75,-0.11,0.27,1.14,742.7,3.4,-52.4
2.92,10.5,3.0,12.5,15.0,14.5,2.25,3.25,0.0,0.75,0.25,1.0,1.0,0.5,-0.17,0.27,1.14,1323.03,16.9,56.3,1.0,1.0,1.75,2.5,1.75,6.25,0.75,6.75,1.25,9.0,8.25,7.0,8.75,0.08,0.14,0.95,890.14,3.3,-46.2
2.94,11.0,2.75,12.5,16.5,13.5,2.25,1.5,1.0,1.0,1.5,0.75,0.5,1.0,-0.23,0.33,1.39,1293.28,15.9,53.1,1.0,0.5,1.75,2.75,1.5,6.25,1.0,6.75,1.75,8.75,7.25,6.5,8.25,0.14,0.08,0.95,964.51,3.3,-45.5
2.96,9.75,1.5,12.0,11.5,10.0,0.25,0.0,1.5,0.5,0.0,0.5,0.0,0.5,-0.36,0.45,1.52,1116.68,19.1,59.2,0.75,1.25,1.75,2.75,2.5,6.25,1.75,6.75,1.75,8.75,7.5,6.5,8.25,0.08,0.08,0.95,994.09,3.0,-41.7
2.98,9.75,2.75,10.0,10.0,8.75,1.0,0.0,0.75,0.75,0.5,0.5,0.5,0.5,-0.55,0.7,2.2,939.39,18.2,57.9,0.75,1.25,2.0,3.0,3.75,6.75,1.75,7.0,2.25,8.5,7.75,6.5,8.0,0.08,0.08,0.95,1014.96,2.6,-37.5
3.0,8.0,1.75,6.75,7.25,6.5,1.0,0.0,0.0,0.75,0.5,0.0,0.25,0.25,-0.73,1.08,2.83,697.02,18.6,61.3,1.0,1.25,3.0,3.0,4.75,6.75,1.75,7.0,2.25,8.5,7.75,6.25,8.0,0.08,0.08,0.95,1041.2,1.9,-33.3
3.02,6.5,1.0,5.5,5.75,6.5,0.0,0.0,0.0,0.75,0.25,0.0,0.5,0.25,-0.67,0.45,2.52,508.24,18.7,59.2,1.0,1.5,2.25,3.0,5.25,7.0,1.5,7.0,2.25,8.25,7.25,5.75,7.5,0.08,0.08,0.95,1040.48,2.5,-31.1
3.04,3.75,0.0,3.75,2.5,5.75,0.0,0.0,0.5,0.0,0.0,0.0,0.0,0.5,-0.73,0.39,2.64,324.91,15.7,57.2,1.0,1.25,2.25,3.0,4.5,7.25,1.25,7.0,2.25,7.75,7.0,5.25,7.0,0.08,0.08,0.95,998.32,2.7,-30.9
3.06,1.75,0.0,2.0,2.5,3.0,0.0,0.0,0.0,0.25,0.0,0.0,0.0,0.0,-0.92,-0.67,2.14,196.76,17.2,61.1,1.0,1.5,2.0,3.25,5.5,7.5,2.75,7.0,2.5,7.5,6.5,5.0,6.5,0.08,0.08,0.95,949.21,2.3,-26.1
3.08,0.5,0.0,1.75,0.0,4.75,0.0,0.0,0.0,0.0,0.0,0.0,0.0,0.0,-1.11,-0.61,2.58,73.33,8.6,57.9,1.75,1.5,2.25,4.0,6.0,7.5,3.0,7.0,2.5,7.25,6.5,4.75,6.25,0.08,0.08,0.95,916.25,1.3,-21.3
3.1,0.0,0.0,1.0,1.0,2.5,0.0,0.0,0.0,0.0,0.0,0.0,0.0,0.0,-1.11,-1.17,0.95,0.0,9.6,55.9,1.5,1.5,2.75,5.25,6.75,7.75,3.5,7.0,2.75,7.0,6.5,3.75,5.5,0.08,0.08,0.95,899.19,0.6,-15.1
3.12,0.0,0.0,1.5,0.75,1.75,0.0,0.0,0.0,0.0,0.0,0.0,0.0,0.0,-0.73,-0.42,0.64,0.0,15.1,56.9,2.25,1.5,3.5,5.5,7.75,7.75,4.0,6.75,3.0,6.5,5.75,3.5,5.25,0.08,0.14,0.95,919.07,-0.5,-9.1
3.14,0.0,0.0,1.25,0.75,3.75,0.25,0.0,0.0,0.0,0.0,1.25,0.0,0.25,-0.42,-0.42,0.14,0.0,6.4,30.1,2.25,1.5,4.75,7.25,8.25,8.0,4.0,6.5,3.0,5.75,5.75,2.5,4.0,0.08,0.14,0.95,955.61,-2.0,-0.4
3.16,0.5,0.5,1.0,2.0,0.75,0.0,0.0,0.0,0.0,0.0,0.0,0.0,0.0,-0.36,-0.3,0.33,0.0,19.1,65.7,2.0,1.75,5.25,7.5,8.75,8.0,4.25,6.5,2.5,5.25,5.0,2.25,3.25,0.08,0.14,0.95,980.27,-2.5,4.5
3.18,0.75,1.0,1.0,2.25,5.0,0.0,0.0,0.0,0.0,0.0,0.0,0.0,0.5,-0.36,-0.36,0.58,0.0,7.9,54.5,2.25,2.0,5.5,9.0,9.5,8.25,4.75,5.75,2.25,4.25,4.0,2.25,2.25,0.08,0.14,0.95,996.94,-3.7,13.0
3.2,0.5,1.0,3.0,0.25,4.75,0.0,0.0,0.25,0.0,0.0,0.5,0.25,0.5,-0.42,-0.36,0.83,49.26,10.9,43.5,3.75,2.5,6.75,9.5,9.75,8.25,5.0,5.5,2.25,3.75,3.75,1.5,2.25,0.02,0.14,0.95,1024.06,-5.5,19.8
3.22,0.0,0.0,1.0,1.0,0.75,0.0,0.0,0.0,0.0,1.75,0.0,0.5,0.0,-0.42,-0.3,0.95,64.95,6.0,-3.2,5.0,2.75,7.0,11.0,11.0,8.25,5.0,4.75,1.5,3.5,3.75,1.0,2.0,0.02,0.14,0.95,1071.2,-6.6,26.5
3.24,0.0,0.0,1.0,0.75,0.5,0.0,0.0,0.0,0.0,0.0,0.0,0.0,0.0,-0.42,-0.05,1.02,57.36,21.3,58.1,5.5,3.0,7.75,12.5,11.5,8.25,5.25,4.5,1.25,3.5,3.0,1.0,2.25,0.02,0.14,0.95,1140.86,-7.3,29.7
3.26,0.0,0.0,1.5,1.0,3.75,0.0,0.0,0.0,0.0,0.0,0.5,0.0,0.5,-0.3,0.14,1.2,71.66,7.6,37.0,5.75,3.0,8.0,12.5,12.0,8.25,5.25,3.5,1.0,3.25,2.75,1.0,1.25,0.02,0.14,0.95,1189.7,-8.2,34.4
3.28,0.0,0.0,1.25,0.75,0.5,0.0,0.0,0.0,0.0,2.0,0.0,0.5,0.0,-0.23,0.33,1.39,73.85,6.5,-9.8,6.25,3.0,8.75,14.0,12.5,8.25,5.5,3.25,1.0,3.25,2.75,1.0,1.5,0.02,0.14,0.95,1248.63,-8.8,35.6
3.3,0.0,0.0,0.75,0.75,0.0,0.0,0.0,0.0,0.0,0.0,0.5,0.0,0.0,-0.17,0.45,1.52,64.31,23.6,27.4,7.0,3.75,9.25,14.0,13.5,8.25,5.5,2.0,1.0,2.5,2.5,0.75,1.25,0.02,0.14,0.95,1287.61,-9.9,41.3
3.32,0.75,1.0,0.75,1.5,0.5,1.0,0.0,0.0,0.5,1.75,0.0,0.75,0.0,-0.17,0.58,1.77,84.38,6.4,16.1,8.0,0.0,9.5,15.0,13.5,8.25,5.25,2.0,1.0,2.25,2.5,0.75,0.5,0.02,0.2,1.02,1292.48,-10.7,41.3
3.34,0.75,0.75,3.0,1.25,4.75,1.0,0.0,0.0,0.5,1.5,0.5,0.75,0.5,-0.3,0.77,2.08,141.61,7.6,26.6,8.5,3.5,10.5,16.0,13.5,8.0,4.75,2.0,0.75,2.25,2.5,0.75,0.5,-0.05,0.2,1.02,1325.07,-11.4,45.3
3.36,0.5,0.0,2.25,0.5,4.75,0.0,0.0,0.0,0.0,2.0,0.0,0.75,0.0,-0.36,1.14,2.45,168.25,6.1,24.1,8.25,4.25,0.0,15.0,13.5,7.75,3.0,1.5,0.25,0.0,0.75,0.25,0.75,-0.05,0.27,1.08,1218.61,-7.1,53.6
3.38,0.5,1.0,2.5,1.25,0.0,1.0,0.0,0.0,0.5,1.75,0.5,1.25,0.5,-0.05,1.95,2.64,181.33,10.7,2.9,9.0,4.0,10.5,16.0,13.5,7.25,0.25,1.5,0.0,0.0,0.0,0.75,1.25,0.02,0.33,1.08,1206.71,-12.1,55.1
3.4,0.75,1.0,3.0,1.75,4.75,1.0,0.0,0.0,0.0,0.0,0.5,0.25,0.5,0.83,2.89,1.95,201.46,10.3,46.7,10.5,3.25,11.5,14.5,11.5,5.75,1.0,0.75,0.25,0.75,1.5,0.75,1.0,0.08,0.33,1.14,1161.73,-14.5,52.8
3.42,0.0,0.0,2.25,0.25,3.0,0.0,0.0,0.0,0.0,0.0,0.5,0.25,0.0,1.45,3.27,0.39,176.09,13.1,41.0,11.0,3.75,11.5,15.5,12.0,5.25,0.0,0.25,0.75,0.5,1.75,0.75,1.0,0.08,0.39,1.27,1179.75,-14.9,53.9
3.44,0.75,1.0,1.0,1.25,3.75,1.0,0.0,0.0,0.0,0.0,0.5,0.25,0.5,1.77,3.89,-0.17,175.77,6.0,42.7,10.5,4.75,10.5,12.5,9.75,5.25,0.0,0.25,0.5,2.0,1.75,0.75,1.25,0.14,0.45,1.27,1132.82,-14.2,50.6
3.46,0.5,0.0,2.25,0.25,0.0,0.0,0.0,0.0,0.0,0.0,0.0,0.0,0.0,2.14,4.27,-0.11,138.35,35.9,66.3,9.75,3.75,8.75,9.5,8.25,5.0,0.0,0.25,1.0,2.0,2.0,0.25,1.0,0.39,0.77,1.7,1035.76,-13.8,49.1
3.48,0.75,0.75,0.5,0.75,4.75,1.0,0.0,0.0,0.5,1.25,0.5,1.75,0.75,-0.23,0.08,-0.11,158.32,1.7,8.7,8.75,2.75,5.5,7.25,5.5,4.0,0.0,0.25,1.0,1.5,2.25,0.5,1.25,0.83,1.52,3.2,841.64,-13.5,44.1
3.5,0.5,0.0,1.5,0.75,4.75,0.0,0.0,1.5,0.25,0.75,0.0,2.25,2.25,-0.48,-1.92,2.14,171.75,1.6,-9.4,7.0,1.5,3.25,5.25,2.25,4.0,0.0,0.25,0.5,0.0,1.75,0.75,1.0,0.39,0.64,2.89,597.21,-14.1,44.7
3.52,0.25,0.0,0.75,0.0,0.0,0.0,0.0,0.0,0.0,2.0,0.5,5.5,5.5,0.08,-0.05,0.27,210.69,-1.1,-91.7,4.75,1.5,2.25,3.25,2.75,1.5,0.0,0.25,0.75,0.0,1.75,0.75,1.0,0.45,0.14,2.52,384.05,-14.1,37.7
3.54,0.5,0.0,0.75,0.25,0.5,1.5,0.0,1.5,0.0,6.5,4.0,0.0,7.5,0.08,0.83,3.89,259.42,-7.5,-65.0,0.25,0.0,2.75,2.0,3.5,1.75,0.25,0.5,0.0,0.0,1.5,0.0,1.0,1.14,-0.67,2.39,241.78,-7.0,25.1
3.56,0.75,1.25,1.0,0.0,3.5,3.5,0.0,5.25,2.25,8.0,7.0,9.0,9.0,-0.11,0.64,1.39,424.28,-3.3,-55.4,0.5,0.0,0.5,0.0,1.25,2.0,0.0,0.0,0.5,0.0,0.0,0.0,0.25,1.39,-0.55,2.58,102.81,1.8,33.8
3.58,0.25,0.0,2.25,0.5,0.0,3.75,1.0,5.75,3.0,8.0,7.75,8.5,8.25,0.14,0.14,1.08,610.44,-2.1,-63.0,0.0,0.0,0.5,0.0,1.0,2.75,0.0,0.0,0.5,0.25,0.25,0.0,0.25,0.83,-1.48,1.02,0.0,7.6,17.6
3.6,0.0,1.25,2.25,2.0,4.5,4.25,0.0,6.25,2.5,8.5,7.5,8.75,9.25,-0.05,0.02,0.95,838.07,-2.6,-47.2,0.75,0.0,0.25,0.5,1.0,2.25,0.0,0.0,0.5,0.25,0.25,0.0,0.25,0.45,-0.55,1.02,0.0,1.3,27.3
3.62,0.0,1.25,3.0,2.25,0.0,4.5,1.0,6.25,2.5,8.5,7.5,8.5,9.25,-0.11,0.08,0.95,958.83,-1.7,-53.6,0.25,0.0,0.25,0.0,1.0,2.5,0.0,0.0,0.5,0.25,0.0,0.0,0.25,0.33,-0.55,0.2,0.0,8.2,22.9
3.64,0.75,1.0,3.0,2.5,3.75,4.5,1.0,6.25,2.75,8.0,7.0,8.25,9.0,-0.11,0.02,0.95,1042.16,-1.2,-42.9,0.0,0.0,0.5,0.0,0.5,2.5,0.25,0.0,0.5,0.25,0.5,0.0,0.25,0.39,-0.36,0.27,0.0,5.6,8.5
3.66,0.5,0.0,3.0,3.25,4.75,5.0,2.0,7.0,3.0,8.25,7.0,8.25,9.0,-0.11,0.08,0.95,1086.92,-1.5,-41.7,0.0,0.25,0.5,0.0,1.0,2.5,0.25,0.0,0.5,0.25,0.25,0.0,0.0,0.39,-0.36,0.64,0.0,4.8,27.1
3.68,0.75,0.0,3.0,3.5,5.25,4.5,2.25,7.0,3.0,8.5,7.0,8.25,8.75,-0.11,0.08,0.95,1119.6,-1.1,-40.1,0.0,0.25,0.25,0.0,0.5,2.25,0.75,0.0,0.5,0.25,0.0,0.0,0.0,0.33,-0.3,1.08,0.0,5.4,26.9
3.7,0.75,0.25,3.0,3.75,4.75,5.75,2.5,7.25,3.25,8.5,7.0,7.75,8.25,-0.11,0.08,0.95,1138.52,-1.3,-37.3,0.0,0.0,0.0,0.25,0.5,2.75,0.25,0.0,0.5,0.25,0.0,0.0,0.25,0.27,-0.05,1.08,0.0,11.9,15.7
3.72,0.5,0.75,3.0,3.75,5.0,5.5,2.75,7.0,3.5,8.5,6.75,8.0,8.25,-0.11,0.08,0.95,1123.75,-1.0,-36.5,0.0,0.25,0.0,0.0,0.25,2.75,0.25,0.0,0.5,0.25,0.0,0.0,0.25,0.33,0.14,1.02,1.37,12.8,15.6
3.74,0.75,1.0,3.0,3.75,6.0,5.75,3.0,7.0,3.75,7.5,6.5,7.0,7.25,-0.11,0.02,0.95,1089.88,-0.6,-30.2,0.0,0.0,0.5,0.0,1.25,2.25,0.5,0.0,0.5,0.25,0.0,0.0,0.25,0.33,0.33,1.02,34.09,5.1,22.8
3.76,1.25,1.25,3.5,4.75,6.5,6.25,3.5,7.0,3.75,7.25,6.25,6.25,6.5,-0.11,0.08,0.95,1052.87,0.2,-22.7,0.0,0.0,0.5,0.0,0.25,2.5,0.5,0.0,0.5,0.25,0.5,0.0,0.25,0.27,0.45,1.52,52.61,4.8,6.3
3.78,2.0,1.25,4.25,5.5,7.25,6.25,3.75,7.0,4.0,6.25,5.75,6.0,5.75,-0.05,0.08,0.95,1021.39,1.6,-15.7,0.0,0.0,0.25,0.0,0.25,2.5,0.5,0.0,0.5,0.5,0.25,0.0,0.0,0.14,0.58,1.64,65.63,8.3,9.8
3.8,2.25,1.25,5.0,5.75,7.25,6.75,4.25,7.0,4.0,5.75,5.5,5.25,5.25,-0.05,0.08,0.95,1000.34,2.3,-11.0,0.0,0.0,0.5,0.0,0.25,2.25,0.5,0.0,0.5,0.25,0.75,0.0,0.25,0.14,0.64,1.83,73.45,3.2,0.9
3.82,2.25,1.25,5.25,7.25,7.5,7.0,4.25,6.75,4.0,5.75,5.0,4.5,4.25,-0.05,0.08,0.95,1013.34,2.9,-5.2,0.0,0.0,0.0,0.0,1.0,2.25,0.25,0.0,0.5,0.25,0.25,0.0,0.25,0.27,0.77,2.02,72.31,10.2,11.4
3.84,2.25,1.25,5.25,8.75,8.75,7.0,4.75,6.75,3.75,4.5,4.0,3.75,3.25,-0.05,0.08,0.95,1016.41,3.7,3.3,0.5,0.0,0.0,0.0,0.0,3.0,0.5,0.0,1.0,1.75,1.25,0.75,1.0,0.27,1.14,2.45,94.28,5.4,-33.2
3.86,2.75,1.25,5.75,9.0,8.75,7.25,4.75,6.25,3.75,4.25,4.0,3.0,2.75,-0.05,0.08,0.95,1021.02,4.5,7.8,1.0,1.25,1.75,0.5,2.75,3.0,0.75,0.5,0.75,2.0,1.5,0.75,0.75,0.02,1.83,2.7,155.58,-2.5,9.3
3.88,3.25,1.75,6.5,11.5,9.75,7.25,5.0,5.75,3.0,4.0,3.0,2.25,2.25,-0.05,0.08,0.95,1038.29,5.7,17.5,1.0,0.5,2.0,0.5,2.5,3.0,0.5,0.25,1.0,2.0,1.5,0.75,0.75,-0.36,2.77,1.77,202.71,-2.9,5.0
3.9,3.5,1.5,7.5,13.0,10.5,7.5,4.5,5.25,3.0,3.0,3.0,2.25,1.5,-0.05,0.08,0.95,1069.43,7.0,22.9,1.0,0.75,1.5,0.0,2.5,3.0,0.5,0.25,0.75,2.0,1.5,0.75,0.5,-0.73,3.45,0.33,230.97,-1.5,5.5
3.92,4.25,2.25,8.0,13.5,12.5,7.5,4.75,4.75,2.5,2.0,2.0,2.0,1.5,-0.05,0.08,0.95,1121.53,7.8,30.5,1.0,0.75,0.5,0.0,1.0,3.0,0.5,0.25,0.75,2.0,1.25,0.75,0.75,-1.36,4.2,-0.11,229.05,1.3,-6.8
3.94,4.25,2.5,8.75,15.0,13.0,7.75,4.75,4.0,2.0,2.0,1.75,2.0,1.25,-0.05,0.14,0.95,1179.22,8.5,34.1,1.0,1.25,1.5,0.75,1.0,3.25,0.5,0.25,0.5,2.0,1.25,0.75,0.75,-2.36,4.52,0.02,229.1,-2.4,6.4
3.96,5.5,2.75,9.0,16.0,14.0,7.75,6.0,3.75,1.75,2.0,1.5,2.0,1.25,-0.05,0.14,0.95,1258.59,9.2,36.9,1.0,1.25,0.0,1.0,1.5,3.0,0.25,0.5,0.75,2.0,0.5,1.0,1.25,0.27,-0.23,-0.73,222.21,2.4,-0.9
3.98,6.25,2.75,9.5,16.5,14.5,7.75,6.25,3.25,1.25,1.5,1.5,2.0,1.0,-0.05,0.14,0.95,1319.73,10.1,40.2,1.0,0.25,1.75,0.75,1.5,3.0,0.25,0.5,0.5,3.5,2.5,3.5,4.0,0.7,-0.42,2.14,256.46,0.2,-37.2
4.0,7.0,2.75,10.0,18.5,15.0,7.5,6.5,2.0,1.25,2.0,1.25,1.25,1.0,-0.05,0.14,1.02,1368.98,11.0,43.9,0.75,0.0,0.0,0.0,1.75,3.0,0.0,0.5,0.0,6.0,3.25,5.5,6.0,-0.23,0.27,0.33,307.3,5.6,-63.9
4.02,8.0,2.75,12.0,18.5,15.5,7.0,6.0,1.75,0.75,2.0,0.0,1.5,1.0,-0.05,0.2,1.08,1410.62,12.2,47.4,0.0,0.0,0.0,0.0,0.25,0.0,0.5,3.5,1.0,8.5,5.5,7.0,8.0,-0.61,0.89,4.14,407.92,4.9,-84.1
4.04,9.0,2.75,12.0,18.0,16.0,5.5,5.5,1.75,1.0,1.25,0.5,1.5,0.75,-0.11,0.2,1.14,1435.03,13.2,49.0,0.0,1.25,0.25,1.75,0.25,5.75,0.5,5.5,2.0,9.0,8.5,7.75,8.75,0.08,0.64,1.33,589.8,4.6,-58.5
4.06,9.75,2.75,12.0,18.0,15.0,3.5,4.75,0.0,0.5,1.25,0.0,1.25,0.75,-0.11,0.2,1.14,1411.82,15.4,54.2,1.0,0.5,1.75,2.5,2.5,6.25,0.75,6.5,1.5,9.0,8.5,7.25,8.75,0.08,0.14,1.02,777.99,3.2,-46.4
4.08,10.5,3.25,12.5,16.0,14.5,2.25,3.0,0.75,1.0,1.5,1.25,1.25,0.5,-0.23,0.27,1.27,1376.03,15.8,51.8,0.5,0.25,2.5,2.5,1.75,6.25,1.0,6.5,1.75,9.0,7.25,7.0,8.75,0.14,0.08,0.95,907.74,3.2,-47.3
4.1,10.5,3.5,12.5,14.0,13.5,2.0,1.25,1.5,0.75,2.0,1.0,1.25,0.5,-0.23,0.39,1.39,1315.51,15.5,50.9,0.0,0.5,1.75,2.75,1.5,6.25,1.5,6.5,1.75,9.0,7.75,7.0,8.5,0.14,0.08,0.89,972.68,3.6,-49.0
4.12,11.0,2.75,11.0,12.5,9.75,1.0,0.0,1.0,0.5,0.5,0.75,1.25,0.5,-0.42,0.52,1.52,1155.64,18.2,55.8,0.25,0.75,2.75,3.0,3.25,6.25,2.25,6.5,1.75,9.0,7.75,7.0,8.5,0.14,0.08,0.95,1022.18,2.3,-41.3
4.14,9.0,1.25,8.75,8.25,8.75,1.0,0.0,1.0,0.5,0.0,0.5,0.5,0.5,-0.73,0.83,2.08,918.72,17.8,57.2,0.25,1.25,2.25,2.75,2.5,6.25,2.5,6.5,2.25,9.0,7.75,7.0,8.5,0.08,0.08,0.95,1039.17,2.4,-42.7
4.16,7.75,1.25,6.25,5.5,6.5,0.0,0.0,0.0,0.5,0.5,0.0,0.5,0.0,-0.73,1.14,2.95,651.9,19.9,62.3,1.0,1.5,2.75,3.0,4.5,6.25,2.75,6.5,2.25,8.5,7.75,6.5,8.25,0.08,0.08,0.95,1057.62,1.4,-34.2
4.18,6.0,1.0,4.0,3.75,6.5,0.0,0.0,0.75,0.5,0.0,0.75,0.5,0.5,-0.8,0.45,2.52,432.94,16.2,52.3,1.0,1.5,2.75,3.0,4.5,6.25,2.25,6.5,2.25,8.5,7.75,6.5,8.0,0.08,0.08,0.95,1053.72,1.5,-34.1
4.2,4.25,0.25,3.5,2.25,5.25,0.0,0.0,0.25,0.0,0.0,0.5,0.25,0.5,-0.86,0.27,2.89,279.12,16.7,54.3,1.25,1.25,3.25,3.0,3.75,6.25,3.0,6.5,2.25,8.25,7.25,6.25,8.0,0.08,0.08,0.95,1029.55,0.9,-33.4
4.22,1.0,0.0,1.5,0.0,3.0,0.0,0.0,0.0,0.0,0.0,0.0,0.0,0.0,-0.98,-0.61,0.95,137.14,13.4,62.4,1.5,1.25,3.0,3.0,4.75,6.5,3.5,6.5,2.5,8.0,7.25,6.0,7.75,0.08,0.08,0.95,990.77,0.8,-30.4
4.24,0.0,0.0,1.5,0.0,1.75,0.0,0.0,0.0,0.25,0.0,0.0,0.0,0.0,-1.42,-0.92,1.52,0.0,14.5,50.5,2.0,1.25,3.25,3.25,5.0,6.75,4.0,6.25,3.0,7.75,7.25,5.75,7.5,0.08,0.08,0.95,961.9,0.0,-26.9
4.26,0.0,0.0,1.0,0.0,3.0,0.0,0.0,0.0,0.0,0.0,0.0,0.0,0.0,-1.3,-1.11,1.08,0.0,6.2,55.2,2.25,1.25,4.0,3.5,5.5,6.75,4.0,6.5,3.0,7.25,7.25,5.75,6.75,0.08,0.14,0.95,945.01,-0.8,-22.9
4.28,0.0,0.5,0.75,1.5,1.75,0.0,0.0,0.0,0.0,0.0,0.0,0.75,0.0,-0.67,-0.42,0.58,0.0,11.1,38.2,2.5,1.25,5.25,5.0,6.5,7.0,4.75,6.0,3.0,7.0,6.75,5.0,6.25,0.08,0.08,0.95,957.97,-2.2,-14.5
4.3,0.25,0.0,1.0,0.75,0.0,0.25,0.0,0.0,0.0,0.0,0.0,0.5,0.0,-0.36,-0.42,0.2,0.0,21.6,30.4,3.5,1.5,6.0,5.25,6.75,7.25,5.25,5.75,3.0,6.25,6.5,4.5,5.5,0.08,0.14,0.95,994.2,-3.6,-7.8
4.32,0.5,1.0,0.75,2.25,4.75,1.0,0.0,0.5,0.0,0.0,0.5,0.25,0.5,-0.3,-0.3,0.39,0.0,4.0,40.4,3.75,1.5,6.75,5.5,6.75,7.25,5.75,5.5,3.0,5.75,5.75,3.5,4.75,0.02,0.14,0.95,1018.95,-4.6,-1.9
4.34,0.5,1.25,0.75,2.0,2.5,1.0,0.0,0.0,0.0,0.5,0.5,0.5,0.5,-0.36,-0.3,0.52,0.0,5.9,32.8,5.0,1.5,7.25,7.25,6.75,7.25,6.25,5.0,3.0,5.0,5.75,3.0,4.0,0.02,0.14,0.95,1042.85,-6.4,5.4
4.36,0.75,0.0,2.25,1.75,4.75,1.0,0.0,0.0,0.5,0.5,0.5,1.0,0.25,-0.42,-0.3,0.7,83.76,8.1,29.3,5.75,1.75,8.0,7.5,8.0,7.25,6.5,4.5,3.0,3.75,4.75,2.25,3.0,0.02,0.14,0.95,1055.45,-7.9,15.2
4.38,0.5,0.5,2.5,1.5,4.5,0.75,0.0,0.0,0.25,0.25,0.0,1.0,0.5,-0.42,-0.23,0.95,135.81,8.8,34.7,5.75,1.5,8.75,9.0,8.25,7.25,7.0,4.25,2.5,3.5,3.75,2.0,2.25,0.02,0.14,0.95,1069.03,-8.9,21.1
4.4,0.5,1.0,2.5,1.75,5.25,1.0,0.0,0.25,0.5,0.5,0.5,0.75,0.5,-0.36,-0.11,1.08,189.12,7.3,33.1,6.25,2.0,9.0,10.5,8.5,7.25,7.25,3.25,2.25,3.5,3.75,1.5,2.0,0.02,0.14,0.95,1088.81,-9.9,26.2
4.42,0.75,1.0,1.75,0.25,4.75,0.0,0.0,0.5,0.0,0.0,0.5,0.25,0.0,-0.36,0.14,1.33,194.78,8.7,48.1,8.0,2.25,9.5,11.0,9.25,7.25,7.25,3.25,1.75,3.5,2.75,1.0,1.5,0.02,0.14,0.95,1123.95,-10.8,33.2
4.44,0.0,0.0,0.75,0.5,0.0,0.0,0.0,0.0,0.0,0.0,0.0,0.25,0.0,-0.3,0.39,1.45,156.53,26.4,32.4,8.5,2.75,11.0,12.5,9.5,7.25,7.5,2.0,1.75,2.75,2.75,0.75,1.5,0.02,0.14,0.95,1174.03,-12.5,38.5
4.46,0.0,0.0,0.75,0.5,0.0,0.0,0.0,0.0,0.0,0.0,0.0,0.25,0.0,-0.23,0.52,1.7,107.77,26.4,32.4,8.0,3.0,11.0,12.5,10.5,7.25,7.75,2.0,1.25,2.75,2.75,0.75,1.25,0.02,0.14,0.95,1215.71,-12.2,39.7
4.48,0.5,0.0,0.75,0.75,0.5,0.0,0.0,0.0,0.0,0.0,0.0,0.25,0.0,-0.23,0.64,1.89,62.57,20.9,49.7,0.0,1.0,10.5,11.5,9.5,7.25,7.0,0.75,1.0,1.25,2.25,0.75,0.5,-0.05,0.2,1.02,1100.96,-10.7,37.0
4.5,0.0,0.0,0.75,0.25,0.0,0.0,0.0,0.0,0.0,0.0,0.0,0.25,0.0,-0.36,0.95,2.2,27.6,28.2,27.2,9.75,2.0,12.0,12.5,9.5,6.25,7.0,0.25,0.75,0.5,2.25,0.75,0.5,-0.05,0.2,1.08,1075.62,-16.1,50.3
4.52,0.0,0.0,0.75,0.75,0.5,0.0,0.0,0.0,0.0,0.0,0.0,0.25,0.0,-0.61,1.45,2.77,15.25,18.1,40.3,9.75,3.0,13.5,13.0,10.5,0.0,7.0,0.25,0.25,2.25,1.5,0.75,0.5,-0.05,0.27,1.08,1036.27,-19.3,51.7
4.54,0.0,0.5,0.75,1.0,0.0,1.25,0.0,0.0,0.0,0.0,0.0,0.5,0.0,-0.3,2.27,2.08,20.75,7.8,35.9,11.5,4.0,11.5,14.5,10.0,0.0,5.75,1.0,1.0,0.0,1.25,0.75,0.5,0.02,0.27,1.14,1051.74,-19.7,56.8
4.56,0.0,0.0,0.75,0.75,0.5,0.0,0.0,0.0,0.0,0.0,0.0,0.25,0.5,0.52,3.14,1.02,14.68,12.5,13.6,11.0,4.75,12.0,14.0,9.5,3.25,4.0,0.75,1.0,0.0,1.5,0.75,1.25,0.08,0.33,1.2,1077.51,-17.4,54.2
4.58,0.0,0.0,0.75,0.75,0.0,0.0,0.0,0.0,0.0,0.0,0.0,0.25,0.0,1.2,3.27,0.64,11.55,25.0,36.1,13.0,4.75,12.5,12.5,8.25,3.25,1.75,0.25,1.0,0.25,1.75,0.75,1.25,0.08,0.39,1.2,1098.44,-18.5,55.7
4.6,0.25,0.0,0.75,0.75,0.0,0.0,0.0,0.0,0.0,0.0,0.0,0.25,0.0,1.83,3.45,0.14,7.94,26.2,43.2,12.0,4.75,11.5,11.0,7.0,4.75,0.75,0.25,0.75,0.0,1.75,0.75,1.25,0.2,0.52,1.27,1061.07,-17.5,55.6
4.62,0.5,0.75,1.0,1.0,0.0,1.0,0.0,0.0,0.5,0.25,0.5,0.5,0.25,2.27,3.89,0.14,33.68,11.2,19.3,11.0,3.75,8.75,7.25,5.75,4.0,0.25,0.25,0.5,0.25,2.0,0.75,1.0,0.45,1.02,2.08,927.96,-17.1,53.8
4.64,0.5,1.0,2.0,1.0,4.75,0.25,0.0,0.0,0.0,0.75,0.5,1.0,0.5,2.14,4.52,2.89,97.37,7.4,28.8,8.75,2.75,5.25,5.25,4.5,4.0,0.0,0.25,0.5,1.75,2.5,0.75,1.0,0.64,1.27,3.7,749.4,-13.6,42.5
4.66,0.5,0.0,1.75,0.25,1.25,0.0,0.0,0.0,0.25,0.5,0.0,2.0,0.5,-0.98,-0.23,1.7,127.18,12.5,-10.2,7.0,1.5,4.0,3.25,1.25,3.0,0.0,0.0,0.75,2.0,2.0,0.75,1.0,0.2,0.45,2.77,530.42,-14.6,33.9
4.68,1.0,0.0,0.75,0.0,0.0,0.5,0.0,0.0,0.5,2.75,0.5,5.25,4.75,-0.36,-0.05,1.83,191.7,0.0,-76.1,3.75,1.25,2.75,3.0,2.5,2.75,0.0,0.25,1.0,1.75,1.75,0.75,1.25,0.77,-0.23,2.14,367.98,-9.5,23.3
4.7,0.25,1.25,1.0,0.0,0.5,2.0,0.0,3.75,2.0,7.25,4.75,8.0,7.0,-0.11,1.08,1.64,312.25,-2.9,-65.5,2.0,1.25,2.75,2.0,2.25,2.75,0.75,0.5,1.0,2.0,1.5,0.25,0.75,0.52,0.08,1.58,268.78,-7.6,21.0
4.72,0.5,1.25,2.25,2.25,4.75,4.5,0.0,5.25,3.0,8.5,8.0,9.0,9.0,0.33,0.89,1.39,563.39,-1.7,-45.1,0.75,1.25,1.0,1.0,0.25,1.0,0.0,0.75,0.5,0.25,0.0,0.0,0.0,1.45,-0.61,2.14,160.57,-9.5,44.1
4.74,0.5,1.0,0.0,3.0,4.75,4.5,0.0,7.0,3.0,8.5,8.25,8.5,9.0,0.02,0.08,0.95,825.73,-3.6,-47.9,1.25,1.25,2.25,2.0,2.5,2.75,0.5,0.5,1.0,2.0,1.5,0.75,0.75,0.64,-1.42,1.45,115.37,-5.4,14.1
4.76,0.5,1.25,3.0,2.5,3.0,4.5,0.0,7.0,2.75,8.5,8.0,8.25,9.0,-0.11,0.02,0.95,1026.67,-1.7,-45.6,0.25,0.0,1.0,0.5,0.0,2.0,0.5,0.25,0.5,0.25,0.25,0.0,0.0,0.14,-0.61,1.08,30.92,-4.2,23.5
4.78,0.5,1.25,3.0,3.5,4.25,4.5,0.0,7.0,2.75,2.0,7.5,8.25,9.0,-0.11,0.08,0.95,1078.31,0.1,-37.1,0.0,0.0,0.0,0.5,0.0,0.5,0.5,0.0,0.5,0.25,0.0,0.0,0.0,0.2,-0.42,0.45,0.0,-4.0,7.6
4.8,1.0,1.25,3.0,3.25,3.0,5.0,1.0,7.25,2.75,8.0,7.5,8.25,9.0,-0.11,0.08,0.95,1114.05,-1.1,-41.4,0.0,0.0,0.5,0.0,0.0,0.5,0.5,0.0,0.5,0.5,0.0,0.0,0.0,0.33,-0.3,0.27,0.0,-6.6,-1.2
4.82,0.75,1.25,3.0,3.5,4.75,4.75,2.25,7.25,3.0,8.25,7.5,8.25,9.0,-0.11,0.08,0.95,1135.76,-0.8,-38.2,0.0,0.0,0.0,0.5,0.0,1.75,0.5,0.0,0.5,0.25,0.0,0.0,0.25,0.45,-0.23,0.39,0.0,6.5,7.9
4.84,1.25,0.25,3.0,3.5,4.75,5.0,2.25,7.25,3.0,8.0,7.5,8.25,8.5,-0.11,0.08,0.95,1157.09,-0.7,-38.5,0.0,0.0,0.5,0.0,0.25,1.75,0.75,0.0,0.5,0.25,0.25,0.0,0.0,0.45,-0.3,0.83,0.0,0.7,14.9
4.86,1.25,0.0,3.0,3.5,4.75,5.25,2.25,7.0,3.25,8.25,6.75,8.0,8.25,-0.11,0.08,0.95,1144.11,-0.9,-37.9,0.0,0.0,0.5,0.5,0.0,1.75,0.5,0.0,0.5,0.25,0.0,0.0,0.0,0.33,-0.17,1.02,0.0,-0.2,23.5
4.88,1.25,1.0,3.0,3.5,4.5,5.5,2.5,7.25,3.25,7.75,7.25,7.5,8.25,-0.05,0.02,0.95,1115.69,-0.6,-35.1,0.0,0.0,0.0,0.0,0.0,2.25,0.5,0.0,0.5,0.25,0.0,0.0,0.0,0.27,0.14,1.02,0.0,12.4,13.2
4.9,1.5,0.0,3.0,3.75,5.0,5.75,2.5,7.0,3.5,7.5,7.0,7.0,7.5,-0.11,0.02,0.95,1063.02,-0.5,-33.4,0.0,0.25,0.0,0.0,0.25,2.0,0.75,0.0,0.5,0.25,0.0,0.0,0.0,0.33,0.39,1.08,0.34,7.6,21.8
4.92,1.25,0.0,3.0,3.75,4.75,5.75,3.0,7.0,3.5,7.25,6.5,6.75,7.25,-0.11,0.08,0.95,982.52,-0.5,-32.9,0.0,0.0,1.0,0.0,0.25,2.0,0.75,0.0,0.5,0.25,0.25,0.0,0.25,0.45,0.52,1.27,21.01,-1.6,14.1
4.94,1.25,0.25,3.5,3.75,4.75,5.75,3.0,7.0,3.75,7.25,6.25,6.0,6.0,-0.11,0.08,0.95,901.3,0.0,-28.6,0.0,0.0,0.5,0.0,1.0,1.75,0.5,0.0,0.5,0.25,0.0,0.0,0.25,0.45,0.64,1.58,40.71,3.4,19.7
4.96,1.25,1.25,4.0,5.5,7.25,6.25,3.5,7.0,3.75,6.5,6.0,5.75,5.75,-0.11,0.08,0.95,895.12,1.0,-17.4,0.0,0.0,1.0,0.0,0.5,2.0,0.5,0.0,0.5,0.25,0.25,0.0,0.0,0.52,0.83,1.77,59.72,-1.4,22.9
4.98,1.5,1.25,4.75,5.75,7.25,6.75,4.25,7.0,3.75,6.0,5.75,5.25,5.5,-0.05,0.08,0.95,923.36,1.7,-13.3,0.75,1.25,0.0,0.5,0.25,3.0,0.75,0.5,1.0,1.75,1.25,0.75,0.75,0.7,1.02,2.14,100.1,1.5,-8.3
5.0,2.25,1.25,5.25,7.25,7.75,7.0,4.5,7.0,4.0,5.75,5.25,5.0,4.5,-0.11,0.08,0.95,978.85,2.9,-6.5,0.75,1.25,2.75,0.5,1.0,3.0,1.5,0.25,1.0,0.5,1.5,0.0,1.0,0.83,1.52,2.14,160.35,-8.0,18.8
5.02,2.25,1.25,5.25,7.5,8.25,7.0,4.75,6.75,3.75,4.25,5.0,3.75,3.75,-0.05,0.08,0.95,999.94,3.5,-0.1,1.0,1.25,2.0,0.75,1.0,3.0,0.75,0.5,1.0,1.75,1.5,0.0,1.0,0.64,2.33,1.77,203.65,-4.0,9.6
5.04,3.25,1.25,5.5,9.0,9.0,7.0,5.0,6.25,3.75,4.25,4.25,3.5,2.75,-0.11,0.08,0.95,1017.23,4.7,7.1,1.0,1.25,0.25,0.5,0.0,3.0,0.5,0.0,1.0,2.0,0.25,0.75,0.25,0.08,2.7,1.14,207.53,0.2,4.8
5.06,3.5,1.25,6.5,11.5,9.25,7.0,5.5,6.25,3.5,3.75,3.5,2.25,2.5,-0.05,0.08,0.95,1041.56,6.0,15.1,1.0,1.25,0.0,0.75,0.0,3.0,0.5,0.25,1.0,2.0,1.5,0.75,1.0,-0.73,2.83,0.27,209.06,0.7,-10.8
5.08,4.25,1.25,7.75,13.5,9.25,7.0,5.75,5.5,3.0,2.75,3.0,2.25,1.75,-0.05,0.08,0.95,1082.67,8.1,22.8,0.75,1.25,2.75,0.5,1.0,3.0,0.5,0.5,1.0,2.0,1.5,0.75,1.0,-1.61,3.89,0.2,219.07,-4.7,3.1
5.1,5.0,1.5,8.25,14.0,11.0,7.0,6.25,5.25,2.5,2.75,2.0,2.0,1.5,-0.05,0.14,0.95,1137.26,8.5,28.4,1.0,1.0,2.5,0.5,1.0,2.75,0.5,0.25,0.75,2.25,0.25,0.75,1.0,-2.8,3.89,-0.3,225.33,-4.3,8.1
5.12,5.5,1.5,9.0,15.0,12.0,6.25,6.75,4.25,2.0,2.25,1.75,2.0,1.5,-0.05,0.14,0.95,1190.49,9.9,32.7,0.75,1.0,1.75,0.5,1.0,3.0,0.5,0.75,1.0,2.75,1.5,2.25,2.25,-0.48,-0.36,-0.11,245.51,-0.7,-21.7
5.14,5.75,1.5,9.25,15.0,10.5,7.0,6.0,2.25,1.25,2.0,0.75,0.5,1.25,-0.05,0.14,0.95,1181.14,11.0,41.8,1.0,0.0,2.25,0.0,1.25,0.0,0.75,1.0,1.25,3.5,1.75,2.25,4.0,0.2,0.83,3.02,261.3,-2.8,-45.4
5.16,6.25,1.25,9.75,15.0,11.0,5.75,6.25,1.75,1.0,2.0,0.5,1.25,1.25,-0.05,0.14,1.02,1154.5,12.2,42.0,2.0,0.5,1.75,2.0,2.5,6.0,0.0,3.5,0.0,8.5,7.0,7.0,6.0,-0.42,-0.05,1.2,390.38,2.2,-41.0
5.18,7.25,1.25,11.5,16.5,13.5,5.75,7.25,1.75,1.0,2.0,0.0,0.75,1.0,-0.05,0.14,1.08,1175.36,12.9,46.5,1.75,0.75,3.25,3.0,5.75,6.0,1.0,4.75,2.75,8.0,9.0,6.25,7.0,-0.05,-0.11,1.27,605.19,0.1,-31.0
5.2,8.0,2.75,11.5,18.5,13.5,4.0,7.0,1.75,0.5,2.0,0.5,1.5,1.0,-0.11,0.2,1.08,1229.71,14.0,46.9,0.75,0.5,0.75,0.75,3.5,5.5,1.5,4.25,1.75,7.0,7.25,4.5,6.25,0.02,0.08,0.89,733.16,3.8,-42.6
5.22,9.75,2.75,12.5,18.5,13.5,1.0,6.75,0.0,0.5,0.5,1.25,1.25,0.5,-0.11,0.2,1.27,1268.86,18.0,54.3,1.5,1.5,3.0,3.0,4.75,6.5,2.5,4.25,1.75,7.25,6.5,4.25,6.0,0.08,-0.05,0.83,825.13,0.4,-23.1
5.24,10.5,2.75,12.5,17.0,12.5,1.0,6.0,1.5,1.0,0.5,0.5,1.5,0.5,-0.23,0.27,1.39,1283.23,17.7,52.9,1.75,1.5,3.5,3.25,5.25,7.0,3.0,4.5,2.5,7.25,6.5,4.25,6.0,0.2,0.14,0.95,879.42,-0.1,-20.1
5.26,11.5,2.75,12.5,15.0,11.0,1.0,4.75,0.25,1.0,0.25,0.75,1.75,0.5,-0.42,0.39,1.58,1237.8,19.2,54.8,2.75,1.5,5.0,4.0,6.5,7.25,3.5,4.5,3.0,7.25,6.5,4.0,5.75,0.08,0.14,0.95,958.9,-1.9,-12.5
5.28,11.5,2.5,12.0,12.0,8.75,0.0,3.25,1.0,1.0,0.75,0.75,2.0,0.5,-0.48,0.58,1.64,1122.53,19.9,52.0,3.5,1.5,6.0,5.25,6.75,7.25,4.0,3.5,3.0,6.0,6.5,3.75,5.25,0.08,0.14,0.95,1029.19,-4.1,-5.0
5.3,10.5,1.5,9.25,7.5,7.25,0.0,3.0,0.25,1.0,1.25,0.75,1.5,0.5,-0.42,0.77,2.58,926.74,20.1,50.7,5.0,1.5,7.25,5.5,6.75,6.75,4.75,2.75,3.0,3.75,5.75,2.25,3.25,0.02,0.14,0.95,1066.42,-7.6,9.8
5.32,8.0,1.25,7.0,5.5,6.5,0.0,1.75,0.75,0.75,0.5,0.5,1.0,0.5,-0.61,0.64,3.14,707.67,19.0,51.6,6.5,2.25,8.5,7.25,6.75,6.25,5.0,1.75,2.25,2.25,4.0,0.5,2.25,0.02,0.08,1.02,1050.65,-11.1,28.9
5.34,5.75,0.25,3.75,3.5,4.75,0.0,0.0,0.0,0.5,0.0,0.0,0.75,0.0,-0.3,0.39,2.58,457.3,19.9,59.9,8.0,3.0,9.25,8.5,6.75,5.0,4.75,0.5,1.75,2.0,3.25,1.0,1.25,0.02,0.2,1.02,1016.25,-14.3,38.3
5.36,2.25,0.0,3.0,1.25,4.75,0.0,0.0,0.0,0.0,0.0,0.0,0.25,0.0,-1.11,-0.36,2.33,275.81,16.1,60.1,8.75,3.0,11.0,9.0,6.75,5.0,4.75,0.25,1.25,2.0,2.75,0.75,0.5,0.08,0.2,1.2,985.88,-16.0,44.9
5.38,0.0,0.5,2.25,0.0,2.5,0.0,0.0,0.0,0.0,0.0,0.0,0.0,0.0,-0.92,-0.05,0.08,125.05,14.9,60.6,9.5,3.75,12.0,9.0,6.75,4.25,3.0,0.5,1.0,2.0,2.5,0.75,1.0,0.02,0.2,1.33,968.05,-16.4,46.1
5.4,0.0,0.0,2.0,0.0,1.75,0.0,0.0,0.0,0.0,0.0,0.0,0.0,0.0,-1.17,0.02,1.02,0.0,17.6,57.2,9.75,3.75,12.5,7.5,5.0,0.0,0.75,0.5,1.0,2.0,2.75,0.75,0.75,0.08,0.27,1.52,886.04,-20.7,47.5
5.42,0.5,0.0,2.0,0.0,0.5,0.0,0.0,0.0,0.0,0.0,0.0,0.25,0.0,-0.3,-0.11,0.64,0.0,28.4,52.1,8.5,3.0,11.0,5.5,0.0,0.0,0.0,0.0,1.0,1.5,1.5,0.75,0.0,0.27,0.33,1.77,730.26,-26.2,53.7
5.44,0.0,0.0,1.75,0.0,0.75,0.0,0.0,0.0,0.0,0.0,0.0,0.0,0.0,0.2,0.52,0.39,0.0,24.7,58.5,8.25,2.5,10.0,3.25,0.0,0.0,0.0,0.0,0.75,0.25,1.25,0.0,0.75,0.45,0.45,2.14,562.66,-28.2,59.7
5.46,0.5,0.75,0.75,0.75,0.5,1.0,0.0,0.0,0.5,1.75,0.0,0.5,0.0,0.08,0.77,-0.36,0.0,4.0,10.2,7.0,1.75,6.5,2.0,0.0,0.0,0.0,0.0,0.5,0.5,0.0,0.0,0.25,0.27,0.52,2.2,374.79,-29.2,68.7
5.48,0.25,1.0,3.0,0.5,4.75,1.0,0.0,0.0,0.5,1.5,0.75,0.75,0.75,0.2,1.27,-1.05,0.0,6.1,20.3,5.0,1.5,3.25,2.0,0.0,0.0,0.0,0.0,0.75,1.5,0.0,0.75,0.25,0.02,0.95,2.02,258.16,-22.5,45.8
5.5,0.0,0.0,3.0,0.0,4.75,0.25,0.0,0.0,0.0,0.0,0.5,0.25,0.0,0.39,2.02,-1.48,17.96,10.6,44.6,1.0,0.5,0.25,1.25,0.0,0.0,0.0,0.0,0.75,1.75,0.0,0.75,0.0,0.02,-1.86,-0.92,134.95,-9.5,-1.3
5.52,0.75,0.25,1.0,0.0,0.75,0.75,0.0,0.0,0.25,0.0,0.0,0.25,0.5,-0.17,2.33,-2.3,43.32,10.1,29.3,1.0,0.0,1.75,0.5,0.0,0.0,0.25,0.0,0.5,2.0,0.25,0.75,0.0,1.64,-1.23,1.45,45.99,-14.3,-5.1
5.54,0.5,0.0,0.75,0.75,0.0,1.0,0.0,0.0,0.0,0.0,0.0,0.25,0.0,0.02,2.2,-2.11,43.01,12.4,44.5,1.0,1.25,1.5,0.75,0.5,0.0,0.75,0.25,0.25,1.75,1.5,0.5,0.75,0.39,-1.67,-0.36,3.37,-10.7,0.0
5.56,0.5,0.0,1.75,0.75,0.0,0.0,0.0,0.0,0.0,0.0,0.5,0.25,0.5,0.33,1.83,-1.05,43.53,23.0,18.7,0.0,0.0,2.75,1.0,1.0,0.0,0.75,0.5,0.5,2.0,1.5,0.75,1.0,0.02,-0.8,-0.05,2.75,-9.3,-16.2
5.58,0.0,0.0,1.0,0.75,0.5,0.0,0.0,0.0,0.0,0.0,0.0,0.25,0.0,0.02,1.08,-0.55,40.14,20.1,42.3,0.0,1.0,2.75,0.5,1.0,0.0,0.75,0.25,0.5,1.75,1.5,0.75,1.0,-1.48,1.08,-0.48,21.89,-10.3,-7.6
5.6,0.25,0.0,0.75,0.75,0.0,0.5,0.0,0.0,0.0,0.5,0.0,0.5,0.0,-0.05,0.27,1.02,44.96,11.3,12.0,0.5,1.25,2.75,0.5,1.0,0.0,0.75,0.5,0.5,2.0,1.5,0.75,1.0,-2.17,2.52,0.02,55.13,-10.2,-3.5
5.62,0.5,0.0,1.0,0.0,0.0,0.0,0.0,0.0,0.25,0.0,0.0,0.25,0.25,-0.11,-0.23,1.08,42.86,25.5,19.2,1.0,1.25,3.25,0.75,1.75,2.75,0.75,0.25,0.5,2.0,1.5,0.75,0.75,-1.98,3.2,1.14,111.69,-6.9,12.8
5.64,0.0,0.0,0.75,0.25,0.0,0.25,0.0,0.0,0.0,0.0,0.0,0.25,0.0,0.39,-0.73,0.77,31.48,20.3,28.3,1.0,1.0,2.75,0.5,0.0,0.0,0.75,0.25,0.0,1.5,1.5,0.75,1.0,-1.48,4.2,-0.3,132.75,-14.5,-2.0
5.66,0.0,0.0,1.0,0.5,0.0,0.0,0.0,0.0,0.0,0.0,0.0,0.25,0.0,0.33,-0.92,0.14,20.24,28.1,36.5,1.0,1.0,2.0,0.5,1.0,0.0,1.0,0.5,0.25,1.75,1.5,0.75,0.75,-0.36,3.39,-1.67,155.54,-10.6,-1.1
5.68,0.5,1.25,1.0,1.25,0.0,1.0,0.0,0.0,0.5,0.5,0.0,1.0,0.0,0.39,-0.73,-0.73,42.7,11.3,25.3,1.0,1.25,2.75,0.5,1.75,2.75,1.0,0.25,0.25,1.75,1.5,0.75,1.0,0.02,0.7,0.52,182.34,-5.8,10.8
5.7,0.0,0.0,1.75,0.25,1.75,0.0,0.0,0.25,0.0,0.0,0.5,0.25,0.5,0.02,-0.05,-2.55,55.78,11.2,18.5,1.0,1.25,2.75,0.5,1.25,2.75,1.0,0.25,0.0,1.75,1.5,0.75,1.0,0.45,-0.55,0.64,206.9,-6.1,10.0
5.72,0.0,0.0,0.75,0.5,0.0,0.75,0.0,0.0,0.0,0.0,0.0,0.25,0.0,-0.23,0.08,-2.48,54.56,10.9,32.9,0.75,1.0,2.75,0.5,0.25,2.75,1.0,0.25,0.25,1.5,1.5,0.75,0.75,0.39,-0.86,-0.36,215.4,-7.2,6.0
5.74,0.5,1.0,3.0,0.75,4.75,1.0,0.0,0.0,0.5,0.75,0.5,1.0,0.5,0.58,0.08,-0.86,122.64,8.1,28.5,0.75,1.25,2.5,0.5,1.0,3.0,0.75,0.25,0.5,1.75,1.5,0.75,0.75,-1.05,-1.23,0.08,224.93,-5.1,7.6
5.76,0.0,0.0,3.0,0.5,4.75,0.5,0.0,0.0,0.0,0.0,0.5,0.25,0.5,1.27,-0.61,-0.8,155.68,9.1,37.7,1.0,1.0,2.75,0.5,0.5,3.0,0.75,0.25,0.25,1.75,1.5,0.75,0.5,-1.86,-1.11,0.58,219.65,-6.7,9.5
5.78,0.25,0.0,0.75,0.25,0.0,1.0,0.0,0.0,0.0,0.0,0.0,0.25,0.0,1.27,-0.36,-1.17,142.11,9.2,36.5,0.75,1.25,1.75,0.5,1.0,3.0,0.75,0.25,0.0,1.75,1.5,0.75,0.5,-2.17,-0.42,0.64,209.78,-3.3,8.5
5.8,0.5,0.0,1.0,0.0,0.0,0.25,0.0,0.0,0.0,0.0,0.0,0.25,0.0,1.08,0.52,-1.55,106.61,26.5,45.0,0.75,1.25,2.5,0.5,1.25,1.25,0.75,0.25,0.0,0.0,1.5,0.0,1.0,-1.92,0.14,0.77,193.55,-11.6,25.7
5.82,0.5,0.0,1.0,0.25,0.0,0.75,0.0,0.0,0.0,0.0,0.0,0.25,0.0,1.52,0.7,-1.61,76.45,17.0,44.3,0.75,1.25,2.75,0.5,1.0,2.75,0.75,0.25,0.0,1.5,1.5,0.75,0.75,-1.67,0.45,0.95,194.4,-6.3,11.2
5.84,0.25,0.0,0.75,0.25,0.0,0.25,0.0,0.0,0.0,0.0,0.0,0.25,0.0,1.33,0.33,-1.8,46.3,22.2,37.5,0.0,0.0,2.5,0.0,1.0,1.25,0.75,0.0,0.0,0.0,0.75,0.0,0.25,-1.23,0.52,1.33,158.98,-13.3,29.7
5.86,0.75,1.0,0.75,1.0,0.0,1.25,0.0,0.0,0.5,1.5,0.0,0.75,0.0,-0.05,-0.3,-1.48,63.66,6.3,13.9,0.0,0.0,0.5,0.0,0.0,1.0,0.25,0.0,0.0,0.25,0.5,0.0,0.25,-0.98,0.33,1.7,110.47,0.0,-6.5
5.88,0.0,0.0,2.25,0.25,4.5,0.25,0.0,0.0,0.0,0.0,0.25,0.25,0.5,-0.92,-0.67,-1.11,97.17,7.5,37.7,0.0,0.0,0.5,0.25,0.0,0.5,0.25,0.0,0.0,0.25,0.25,0.0,0.25,-0.98,0.33,1.45,62.04,-5.8,0.2
5.9,0.5,1.0,0.75,0.75,1.25,1.0,0.0,0.0,0.5,1.75,0.5,0.75,0.5,-1.67,-0.55,-0.55,123.39,3.1,2.5,0.0,0.0,0.0,0.25,0.0,0.5,0.25,0.0,0.0,0.25,0.0,0.0,0.25,-0.98,0.45,1.08,18.37,7.2,-9.2
5.92,0.75,1.0,2.5,0.75,4.5,1.0,0.0,0.0,0.5,1.75,0.5,0.75,0.5,-1.98,-0.92,-0.61,165.89,6.1,23.4,1.0,1.25,0.25,0.5,0.0,2.75,0.25,0.0,0.5,1.75,0.0,0.75,0.0,-0.86,0.33,0.45,32.4,0.2,14.1
5.94,0.75,0.75,2.25,0.75,4.75,1.0,0.0,0.0,0.5,1.75,0.5,0.75,0.5,-1.36,-0.61,-0.36,200.24,5.3,22.1,0.0,0.0,1.75,0.0,1.0,1.0,0.75,0.25,0.25,0.25,1.5,0.0,0.0,-0.3,0.08,0.2,50.69,-10.1,10.2
5.96,0.75,0.75,2.25,1.25,4.75,1.0,0.0,0.0,0.25,1.75,0.5,0.5,0.5,-1.23,-0.36,-0.36,224.12,5.5,26.5,0.0,0.0,0.0,0.0,0.0,1.0,0.5,0.0,0.25,0.0,0.0,0.0,0.0,0.27,-0.17,0.08,46.43,7.5,20.4
5.98,1.0,0.5,1.5,0.75,4.75,1.0,0.0,0.0,0.5,1.75,0.75,0.5,0.5,-1.3,-0.23,-0.42,227.87,3.9,20.5,0.0,0.0,0.0,0.0,0.0,0.75,0.25,0.0,0.25,0.25,0.0,0.0,0.0,0.58,-0.23,-0.11,25.2,10.0,-0.7
6.0,0.75,0.75,2.25,0.75,4.5,1.0,0.0,0.0,0.5,1.75,0.5,0.75,0.5,-1.17,-0.11,-0.42,240.15,5.5,21.5,1.0,1.25,0.25,0.5,0.0,2.75,0.25,0.25,0.75,1.5,1.5,0.75,0.5,0.58,-0.36,-0.3,59.67,-0.8,-3.9
6.02,0.75,0.75,2.25,0.75,4.5,1.0,0.0,0.0,0.5,1.75,0.5,0.5,0.25,-0.8,-0.17,-0.36,242.14,5.7,26.1,0.75,1.0,2.0,0.5,1.0,2.75,0.75,0.25,0.75,1.75,1.5,0.75,0.5,0.52,-0.42,-0.3,112.16,-4.7,4.9
6.04,0.75,0.75,3.0,0.75,4.75,1.0,0.0,0.0,0.5,1.75,0.5,0.75,0.5,-0.55,-0.36,-0.3,245.12,6.9,24.0,1.0,0.75,1.75,0.25,1.0,2.75,0.75,0.25,0.75,1.75,1.5,0.75,0.5,0.39,-0.67,-0.3,162.79,-4.2,2.6
6.06,0.75,1.0,2.25,1.0,4.25,1.0,0.0,0.0,0.5,1.75,0.5,0.5,0.5,-0.55,-0.61,-0.36,242.07,5.9,25.1,0.75,1.0,2.5,0.25,1.0,2.75,0.75,0.25,0.5,1.75,1.5,0.75,0.5,0.14,-0.92,-0.05,198.44,-5.6,6.7
6.08,0.75,1.0,3.0,0.75,4.5,1.0,0.0,0.0,0.0,1.75,0.5,0.75,0.5,-0.61,-0.73,-0.48,240.78,7.0,26.7,0.75,1.0,3.25,0.5,1.5,2.75,0.5,0.25,0.5,1.75,1.5,0.75,0.5,-0.48,-1.55,0.08,226.85,-6.9,11.9
6.1,0.75,0.5,2.5,0.75,4.25,1.0,0.0,0.0,0.0,1.5,0.5,0.75,0.5,-0.55,-0.8,-0.48,227.58,6.3,24.0,1.0,1.25,2.5,0.5,1.0,2.75,0.75,0.25,0.5,1.5,1.5,0.75,0.5,-0.98,-1.92,0.02,234.25,-6.8,12.2
6.12,0.5,0.5,2.75,0.75,4.75,1.0,0.0,0.0,0.25,1.75,0.5,0.75,0.25,-0.36,-0.73,-0.36,222.1,6.1,24.2,0.0,0.0,2.25,0.0,1.5,1.25,0.5,0.25,0.25,0.25,1.5,0.0,0.0,-1.17,-1.05,0.33,207.84,-9.6,17.3
6.14,0.75,0.25,2.0,0.75,4.5,1.0,0.0,0.0,0.25,1.5,0.5,0.5,0.25,-0.3,-0.55,-0.3,209.34,5.1,25.7,0.0,0.0,0.0,0.0,0.0,1.75,0.25,0.0,0.25,0.25,0.25,0.0,0.25,-1.73,-0.42,0.7,155.51,12.9,-5.5
6.16,0.75,1.0,2.5,1.0,4.5,1.0,0.0,0.25,0.0,1.25,0.5,0.5,0.25,-0.23,-0.42,-0.17,205.86,6.8,33.3,0.0,0.0,0.5,0.0,0.25,0.75,0.25,0.0,0.25,0.0,0.25,0.0,0.0,-1.55,-0.17,0.64,96.21,-5.6,21.9
6.18,0.75,0.5,2.5,0.75,4.75,1.0,0.0,0.25,0.5,1.25,0.5,0.5,0.5,-0.17,-0.11,-0.17,207.03,6.0,26.0,0.75,0.0,0.0,0.5,0.0,1.25,0.0,0.25,0.25,0.0,1.75,0.0,0.75,-1.17,-0.05,0.64,70.93,-2.4,-17.3
6.2,0.75,0.75,2.25,0.75,4.5,1.0,0.0,0.25,0.5,1.75,0.5,0.75,0.5,-0.17,-0.11,-0.36,212.37,5.1,20.5,0.0,0.0,0.5,0.0,0.0,0.5,0.0,0.0,0.25,0.25,0.5,0.0,0.25,-0.61,0.02,0.39,45.13,-4.3,-20.5
6.22,0.75,0.75,2.5,1.0,4.5,1.0,0.0,0.0,0.5,1.5,0.5,0.75,0.5,-0.36,-0.23,-0.61,216.18,6.6,24.4,0.0,0.0,0.25,0.0,0.25,0.5,0.0,0.0,0.25,0.0,0.75,0.0,0.0,-0.48,-0.05,0.33,26.1,-4.4,-8.5
6.24,0.75,1.0,2.25,0.75,3.75,1.0,0.0,0.25,0.0,1.75,0.5,0.75,0.5,-0.61,-0.42,-0.61,213.62,5.5,21.9,0.0,0.0,0.0,0.0,0.25,0.5,0.0,0.0,0.25,0.0,0.5,0.0,0.0,-0.55,-0.17,0.2,1.99,2.3,-9.7
6.26,0.75,0.5,2.25,0.75,4.5,1.0,0.0,0.5,0.0,1.75,0.5,0.75,0.5,-0.73,-0.48,-0.42,212.46,4.3,20.0,0.0,0.0,0.0,0.25,0.25,2.75,0.0,0.0,0.75,1.5,0.25,0.75,0.0,-0.67,-0.3,0.2,17.88,9.5,-19.2
6.28,0.75,0.5,2.25,0.75,4.25,1.0,0.0,0.25,0.0,1.75,0.5,0.75,0.5,-0.86,-0.48,-0.17,208.09,4.9,20.4,0.0,0.0,0.0,0.0,0.0,1.0,0.0,0.0,0.5,0.25,0.5,0.0,0.0,-0.86,-0.42,0.39,14.7,6.5,-19.4
6.3,0.5,0.75,2.0,0.5,3.0,1.0,0.0,0.25,0.0,1.75,0.5,0.75,0.5,-1.05,-0.55,0.02,198.11,4.5,14.9,0.0,0.0,0.0,0.0,0.0,2.25,0.0,0.0,0.5,0.0,0.25,0.0,0.0,-0.98,-0.42,0.58,22.87,13.9,12.2
6.32,0.75,1.0,2.25,1.0,4.5,1.0,0.0,0.25,0.25,1.75,0.5,1.0,0.5,-0.92,-0.36,-0.11,204.12,5.4,21.2,0.0,0.0,0.0,0.0,0.25,2.75,0.25,0.25,0.25,0.0,1.5,0.0,0.5,-1.17,-0.42,0.7,37.86,8.9,-14.2
6.34,0.75,0.75,2.75,0.75,4.25,1.0,0.0,0.0,0.25,1.75,0.5,1.0,0.5,-0.98,-0.17,-0.17,209.26,6.7,21.0,0.0,0.0,0.5,0.0,0.5,1.75,0.0,0.25,0.25,0.0,1.5,0.0,0.0,-1.23,-0.42,0.89,54.98,1.1,-2.1
6.36,0.75,0.5,2.25,0.75,4.5,1.0,0.0,0.0,0.25,1.75,0.5,0.75,0.5,-1.3,0.14,-0.48,212.59,5.2,21.1,0.0,0.0,0.0,0.0,0.0,0.75,0.0,0.0,0.25,0.0,0.5,0.0,0.0,-1.23,-0.3,0.83,52.52,5.5,-15.2
6.38,0.5,0.75,2.25,0.75,4.25,1.0,0.0,0.25,0.25,1.75,0.5,0.75,0.5,-1.3,0.27,-0.67,212.26,4.6,19.5,0.0,0.0,2.0,0.0,1.0,0.5,0.5,0.0,0.25,0.0,0.5,0.0,0.0,-1.17,-0.23,0.77,63.34,-17.2,35.2
6.4,0.5,1.0,2.25,0.75,4.25,1.0,0.0,0.25,0.25,1.75,0.5,0.75,0.5,-1.05,0.33,-0.86,211.88,4.8,21.0,0.0,0.0,1.75,0.0,1.0,2.75,0.0,0.0,0.5,0.5,0.5,0.75,0.0,-1.05,-0.11,0.77,83.03,-2.0,10.9
6.42,0.75,0.5,2.25,0.75,4.5,1.0,0.0,0.0,0.25,1.75,0.5,0.75,0.5,-0.8,0.27,-0.92,209.9,5.2,21.1,0.0,0.0,0.0,0.0,0.0,1.5,0.0,0.0,0.25,0.0,0.25,0.0,0.0,-0.98,-0.11,0.83,72.52,14.0,10.7
6.44,0.75,0.5,2.25,0.75,4.25,1.0,0.0,0.0,0.25,1.75,0.25,0.75,0.25,-0.61,0.27,-0.92,206.28,5.7,24.7,0.0,0.0,0.25,0.0,0.0,1.75,0.5,0.25,0.25,0.0,1.5,0.0,0.0,-0.98,0.02,0.77,74.27,1.3,-12.2
6.46,0.5,1.0,2.5,0.75,2.25,1.0,0.0,0.0,0.5,1.75,0.5,0.5,0.5,-0.42,0.27,-0.86,197.74,7.6,18.3,0.75,0.0,1.75,0.0,1.25,1.75,0.5,0.25,0.5,1.25,1.75,0.75,0.5,-1.05,0.02,0.64,101.91,-5.4,-6.5
6.48,0.75,0.75,2.5,0.75,3.5,1.0,0.0,0.0,0.5,1.75,0.5,0.5,0.5,-0.36,0.2,-0.67,196.32,6.8,21.9,0.75,0.5,2.25,0.5,0.0,2.75,0.0,0.0,0.5,0.75,1.75,0.75,0.5,-1.11,-0.05,0.64,131.38,-7.5,3.4
6.5,0.75,0.75,2.25,0.75,3.0,1.0,0.0,0.0,0.25,1.75,0.25,0.75,0.5,-0.3,0.2,-0.61,190.17,6.4,20.1,0.75,0.5,1.25,0.25,1.0,2.75,0.5,0.25,0.5,1.5,1.75,0.75,0.5,-1.23,-0.17,0.89,160.02,-2.1,-3.1
6.52,0.75,0.75,2.5,0.75,3.75,1.0,0.0,0.0,0.5,1.75,0.25,0.75,0.25,-0.36,0.2,-0.55,193.6,6.9,24.4,0.0,0.0,0.0,0.0,0.5,3.0,0.5,0.25,0.5,0.0,0.5,0.5,0.0,-1.11,-0.11,0.52,152.86,8.8,2.6
6.54,0.75,0.75,2.75,0.75,3.75,1.0,0.0,0.0,0.25,1.75,0.5,0.75,0.25,-0.48,0.2,-0.48,196.85,7.5,24.4,0.0,0.0,0.0,0.0,0.0,2.5,0.0,0.0,0.5,0.0,0.75,1.0,0.0,-1.23,-0.17,0.7,129.02,6.8,-22.4
6.56,0.75,0.75,2.5,0.75,3.75,1.0,0.0,0.25,0.25,1.75,0.5,1.0,0.25,-0.73,0.2,-0.55,200.4,6.5,20.3,0.75,0.25,1.75,0.0,1.0,2.25,0.0,0.0,0.25,0.0,0.25,0.0,0.0,-1.36,-0.17,0.64,110.27,-7.6,47.5
6.58,0.75,0.75,2.25,0.75,3.5,1.0,0.0,0.25,0.25,1.75,0.5,1.0,0.25,-0.8,0.2,-0.48,201.52,6.1,18.8,1.0,0.0,0.75,0.0,1.25,2.25,0.5,0.25,0.25,0.0,1.5,0.0,0.5,-1.42,-0.11,0.64,112.29,-3.0,13.7
6.6,0.75,0.5,2.5,0.0,3.0,1.25,0.0,0.0,0.0,1.75,0.5,0.75,0.25,-1.11,0.2,-0.23,193.67,6.1,19.1,0.75,0.5,1.75,0.0,1.0,3.0,0.25,0.25,0.5,1.75,1.75,0.75,0.75,-1.42,-0.11,0.64,142.34,-1.8,-5.0
6.62,0.5,0.75,2.25,1.0,3.0,1.0,0.0,0.0,0.0,1.75,0.5,0.75,0.5,-1.42,0.14,-0.36,188.46,6.1,18.7,0.75,0.5,1.25,0.0,1.0,3.0,0.25,0.25,0.5,1.5,1.75,0.75,0.5,-1.48,0.02,0.58,162.14,-0.9,-4.1
6.64,0.5,0.75,2.75,0.75,3.0,1.0,0.0,0.0,0.25,1.75,0.5,1.0,0.5,-1.48,0.14,-0.42,187.3,7.3,16.1,0.75,0.5,1.75,0.25,1.0,3.0,0.25,0.25,0.5,1.75,1.5,0.75,0.5,-1.23,0.08,0.45,182.22,-2.3,-0.2
6.66,0.5,0.0,2.5,0.75,3.5,1.0,0.0,0.0,0.0,1.75,0.5,0.75,0.25,-1.42,0.27,-0.42,185.03,6.1,18.0,0.75,0.0,1.75,0.0,1.0,1.75,0.25,0.25,0.25,0.25,1.5,0.0,0.5,-1.11,0.2,0.33,172.05,-7.2,11.7
6.68,0.5,0.5,2.5,0.75,3.0,1.0,0.0,0.0,0.0,1.75,0.25,0.75,0.5,-1.17,0.33,-0.48,183.29,6.3,19.0,1.0,0.5,1.75,0.0,1.25,3.0,0.5,0.25,0.5,2.0,1.5,0.75,0.5,-0.98,0.33,0.2,177.44,-2.4,0.3
6.7,0.5,0.5,3.0,0.75,3.5,1.0,0.0,0.0,0.0,1.75,0.5,1.0,0.25,-0.8,0.27,-0.42,187.17,7.6,20.4,0.75,0.75,1.5,0.0,1.25,3.0,0.25,0.25,0.5,1.75,1.5,0.75,0.5,-0.86,0.33,0.14,176.46,-1.3,0.5
6.72,0.5,0.75,2.75,0.75,3.75,1.0,0.0,0.0,0.25,1.75,0.5,0.75,0.25,-0.67,0.2,-0.42,191.58,7.0,23.2,0.0,0.0,0.0,0.0,0.0,1.75,0.0,0.0,0.25,0.25,0.25,0.0,0.0,-0.8,0.33,0.14,140.58,15.1,4.0
6.74,0.5,0.5,2.5,0.75,3.5,1.0,0.0,0.0,0.25,1.75,0.5,0.75,0.25,-0.73,0.2,-0.3,193.23,6.5,20.2,1.0,1.0,0.0,0.5,0.0,3.0,0.0,0.25,0.5,1.75,1.5,0.75,0.5,-0.8,0.33,0.08,139.35,1.9,-8.4
6.76,0.5,0.5,2.75,0.75,3.75,1.25,0.25,0.25,0.25,1.75,0.5,0.75,0.5,-0.73,0.2,-0.42,199.24,5.8,18.5,0.75,0.75,1.75,0.5,1.0,2.75,0.5,0.0,0.5,1.75,1.5,0.75,0.5,-0.8,0.27,0.08,151.1,-3.9,3.3
6.78,0.5,0.5,2.5,0.75,2.25,1.0,0.25,0.25,0.25,1.75,0.0,0.5,0.25,-0.8,0.27,-0.42,189.86,7.3,21.7,0.75,0.5,1.75,0.5,1.0,2.75,0.5,0.0,0.5,1.5,1.5,0.75,0.5,-0.73,0.2,0.02,166.9,-4.1,2.9
6.8,0.5,0.5,3.0,0.75,3.75,1.0,0.5,0.25,0.5,1.75,0.5,1.0,0.5,-0.92,0.2,-0.42,198.17,7.2,16.0,1.0,0.5,1.75,0.75,1.25,2.75,0.5,0.25,0.5,1.5,1.5,0.75,0.5,-0.73,0.2,0.02,179.81,-4.4,6.0
6.82,0.5,0.5,3.0,0.75,3.0,1.0,0.5,0.25,0.25,1.75,0.5,0.75,0.25,-0.98,0.2,-0.36,197.73,8.2,19.4,0.0,0.0,1.75,0.5,1.0,1.75,0.25,0.0,0.25,0.0,1.5,0.0,0.5,-0.73,0.14,0.08,166.1,-6.9,11.5
6.84,0.75,0.5,3.0,0.75,3.0,1.0,0.5,0.25,0.25,1.75,0.5,0.75,0.25,-0.98,0.14,-0.3,203.07,8.6,20.7,0.75,0.5,1.75,0.75,1.0,2.75,0.5,0.25,0.5,1.5,1.5,0.75,0.5,-0.67,0.14,0.14,168.04,-4.0,3.2
6.86,0.75,0.75,3.0,0.75,2.5,1.0,0.5,0.25,0.25,1.75,0.25,0.75,0.5,-0.98,0.14,-0.3,200.14,8.8,20.0,0.75,0.5,1.5,0.75,1.0,2.75,0.5,0.0,0.5,1.75,1.5,0.75,0.5,-0.67,0.08,0.14,168.43,-3.3,1.3
6.88,0.75,0.5,3.0,0.75,3.5,1.0,0.5,0.75,0.25,1.75,0.5,1.0,0.25,-0.98,0.14,-0.23,207.08,7.3,17.8,0.75,0.5,1.25,0.75,0.25,2.75,0.5,0.25,0.5,1.5,1.5,0.75,0.5,-0.61,0.02,0.2,174.2,-3.0,-3.1
6.9,0.5,0.5,2.75,0.75,3.75,1.0,0.5,0.75,0.25,1.75,0.5,1.0,0.5,-0.92,0.14,-0.23,211.55,5.8,14.3,0.75,0.5,1.25,0.75,1.25,2.5,0.5,0.0,0.5,1.75,1.5,0.75,0.5,-0.61,-0.05,0.2,179.29,-2.9,0.7
6.92,0.5,0.5,2.25,0.75,3.5,1.0,0.5,0.25,0.0,1.25,0.0,0.5,0.5,-0.86,0.14,-0.23,203.86,6.0,27.3,0.75,0.5,1.75,0.75,1.0,2.75,0.5,0.0,0.5,1.75,1.5,0.75,0.5,-0.67,-0.17,0.27,183.59,-4.0,2.5
6.94,0.75,1.0,2.75,0.75,3.0,1.0,0.5,0.25,0.25,1.75,0.0,0.75,0.25,-0.86,0.2,-0.3,200.87,8.1,26.5,0.75,0.5,1.75,0.75,0.5,2.75,0.5,0.0,0.5,1.5,1.5,0.75,0.5,-0.67,-0.23,0.33,185.18,-4.8,1.7
6.96,0.75,0.75,2.5,0.75,3.0,1.0,0.5,0.25,0.25,1.75,0.5,1.0,0.5,-0.8,0.27,-0.3,198.61,7.2,15.9,0.75,0.5,1.75,1.25,1.0,2.75,0.5,0.0,0.5,1.5,1.5,0.75,0.5,-0.67,-0.3,0.39,191.05,-4.9,6.2
6.98,0.75,0.5,2.75,0.75,3.75,1.0,0.5,0.25,0.25,1.75,0.5,0.75,0.5,-0.73,0.33,-0.36,203.27,7.0,19.6,1.0,0.5,1.75,0.75,0.25,3.0,0.5,0.25,0.5,1.5,1.5,0.75,0.5,-0.73,-0.48,0.39,185.01,-4.6,2.1
7.0,0.75,0.75,3.0,0.75,3.0,1.0,0.5,0.25,0.25,1.75,0.5,0.75,0.25,-0.73,0.39,-0.36,204.31,8.7,22.2,0.75,0.5,2.0,0.75,1.25,3.0,0.25,0.0,0.5,1.25,1.5,0.75,0.5,-0.67,-0.61,0.33,187.18,-4.5,8.2
7.02,0.75,0.75,2.75,0.75,3.0,1.0,0.5,0.25,0.0,1.75,0.5,0.5,0.5,-0.73,0.33,-0.42,205.13,7.6,22.5,0.75,0.5,1.5,0.75,0.0,2.75,0.5,0.25,0.5,1.5,1.5,0.75,0.5,-0.61,-0.8,0.27,181.28,-4.0,-3.1
7.04,0.75,0.75,3.0,0.75,2.25,1.0,0.5,0.25,0.25,1.75,0.5,1.0,0.25,-0.8,0.39,-0.42,199.27,9.5,17.6,0.75,0.5,1.75,1.0,0.5,3.0,0.5,0.0,0.5,1.75,1.75,0.75,0.5,-0.55,-0.92,0.33,184.07,-4.2,0.5
7.06,0.75,0.5,3.0,0.75,2.5,1.0,0.5,0.25,0.25,1.25,0.25,0.5,0.5,-0.86,0.39,-0.42,192.98,9.7,24.9,0.75,0.0,1.75,0.75,0.25,2.75,0.5,0.0,0.5,1.5,1.5,0.75,0.5,-0.55,-0.98,0.39,177.61,-4.6,-4.1
7.08,0.75,0.5,3.0,0.75,3.5,1.0,0.5,0.25,0.0,0.75,0.5,0.75,0.5,-0.8,0.45,-0.36,191.55,9.5,28.1,1.0,0.25,1.75,0.75,1.0,2.75,0.25,0.0,0.5,1.75,1.5,0.75,0.5,-0.48,-0.92,0.45,176.79,-4.1,2.1
7.1,1.0,0.75,2.5,0.25,3.0,1.5,0.25,0.25,0.0,0.75,0.5,0.75,0.25,-0.86,0.52,-0.3,186.97,8.1,30.2,0.75,0.25,2.25,0.75,1.25,2.75,0.25,0.0,0.5,1.25,1.5,0.5,0.5,-0.61,-0.73,0.52,178.07,-5.5,9.3
7.12,0.75,0.75,2.25,0.75,3.0,1.0,0.75,0.0,0.25,0.75,0.5,0.75,0.25,-0.86,0.52,-0.3,183.28,9.6,29.3,1.0,0.25,1.75,0.75,1.0,2.75,0.5,0.0,0.5,1.75,1.5,0.75,0.5,-0.61,-0.61,0.52,182.85,-4.4,2.3
7.14,0.75,0.5,2.75,0.75,3.0,1.0,0.5,0.0,0.25,0.75,0.5,1.0,0.25,-0.86,0.52,-0.3,181.83,10.5,26.3,0.75,0.0,1.75,0.75,1.0,2.75,0.5,0.0,0.5,1.25,1.5,1.0,0.5,-0.55,-0.61,0.58,180.15,-4.6,-0.6
7.16,0.75,0.75,3.0,0.75,3.5,1.0,0.5,0.0,0.0,1.0,0.5,0.75,0.5,-0.86,0.52,-0.3,187.72,9.5,28.8,0.75,0.5,1.75,0.75,1.0,3.0,0.5,0.0,0.5,1.5,1.5,0.75,0.0,-0.61,-0.92,0.77,180.53,-4.6,9.5
7.18,0.75,0.75,2.25,0.75,3.0,1.0,0.5,0.25,0.25,1.25,0.5,0.75,0.25,-0.86,0.52,-0.23,186.82,7.9,23.7,1.0,0.25,1.5,1.25,1.0,3.0,0.5,0.0,0.5,1.5,1.5,0.75,0.5,-0.61,-1.17,0.77,183.08,-4.1,5.5
7.2,0.75,0.5,2.75,0.75,3.5,1.0,0.5,0.25,0.25,0.75,0.5,0.75,0.5,-0.86,0.52,-0.23,190.55,9.0,26.2,1.0,0.0,1.75,0.75,1.0,3.0,0.5,0.0,0.5,1.5,1.5,1.0,0.5,-0.67,-1.3,0.83,183.97,-4.2,0.3
7.22,0.75,0.5,2.5,0.75,4.25,1.0,0.5,0.25,0.25,1.25,0.5,0.75,0.25,-0.86,0.45,-0.23,196.35,7.2,26.1,0.75,0.25,1.75,0.75,1.0,3.0,0.5,0.0,0.5,1.0,1.75,0.75,0.5,-0.67,-1.42,0.95,184.17,-4.7,4.3
7.24,0.75,0.25,2.75,0.75,3.75,1.5,0.5,0.0,0.25,1.25,0.5,1.25,0.5,-0.86,0.39,-0.23,203.58,7.2,18.5,0.75,0.5,1.75,0.75,1.0,3.0,0.5,0.0,0.5,1.5,1.5,0.75,0.5,-0.61,-1.3,0.77,185.19,-3.9,4.6
7.26,0.75,0.5,3.0,0.75,2.5,1.0,0.5,0.5,0.0,1.25,0.0,0.75,0.5,-0.86,0.39,-0.3,199.94,9.1,24.2,0.75,0.5,1.0,0.75,1.0,3.0,0.5,0.0,0.5,1.75,1.5,0.75,0.5,-0.55,-0.98,0.64,183.64,-1.3,-0.5
7.28,0.75,0.5,2.75,0.75,2.5,1.0,0.5,0.25,0.25,1.25,0.5,0.5,0.25,-0.86,0.33,-0.3,194.11,9.6,25.0,0.0,0.0,1.75,0.5,1.25,2.0,0.5,0.0,0.5,1.75,1.5,0.75,0.0,-0.48,-0.67,0.45,172.17,-3.7,-5.2
7.3,0.75,0.75,3.0,0.75,2.5,1.0,0.5,0.0,0.0,1.25,0.25,0.75,0.25,-0.86,0.33,-0.3,187.4,10.7,29.3,0.0,0.0,0.0,0.5,0.0,2.75,0.5,0.25,0.5,1.5,1.5,0.75,0.25,-0.48,-0.48,0.39,150.9,5.6,-29.3
7.32,0.75,0.75,2.75,0.75,2.5,1.0,0.5,0.25,0.0,0.75,0.25,0.75,0.5,-0.86,0.33,-0.23,181.38,10.1,28.6,0.75,0.5,1.5,0.75,1.0,3.0,0.5,0.0,0.5,1.75,1.5,0.75,0.25,-0.48,-0.42,0.7,152.83,-3.2,4.2
7.34,0.75,0.5,3.0,0.75,3.0,1.0,0.5,0.25,0.0,1.25,0.25,0.75,0.25,-0.92,0.33,-0.17,182.45,9.5,27.6,0.75,0.5,1.5,0.5,1.0,3.0,0.5,0.0,0.5,1.75,1.5,0.75,0.25,-0.55,-0.48,0.52,157.79,-2.9,3.1
7.36,0.75,0.75,2.75,0.75,3.0,1.0,0.75,0.25,0.0,1.5,0.5,1.0,0.5,-0.98,0.27,-0.17,188.75,8.3,19.5,1.0,0.5,1.5,0.75,0.5,2.75,0.5,0.0,0.5,1.5,1.5,0.75,0.25,-0.61,-0.42,0.33,166.26,-5.1,4.8
7.38,0.75,0.75,3.0,0.75,3.5,1.0,0.5,0.25,0.0,1.25,0.25,0.75,0.5,-0.98,0.2,-0.17,195.22,8.6,27.5,0.75,0.5,1.75,0.75,1.0,3.0,0.5,0.0,0.5,1.5,1.5,1.0,0.25,-0.61,-0.42,0.33,175.05,-4.4,4.7
7.4,0.75,0.75,2.5,0.5,3.5,1.0,0.5,0.5,0.0,1.25,0.5,0.25,0.5,-1.05,0.2,-0.11,196.29,6.7,27.6,0.75,0.5,1.75,0.75,0.5,3.0,0.25,0.0,0.5,1.75,1.5,0.75,0.25,-0.61,-0.36,0.33,177.75,-3.9,2.8
7.42,0.75,0.75,2.75,0.75,2.5,1.0,0.5,0.25,0.0,1.5,0.0,0.75,0.5,-0.98,0.2,-0.11,193.37,8.5,24.2,0.75,0.5,1.75,0.75,0.5,3.0,0.5,0.0,0.5,1.75,1.5,0.75,0.25,-0.67,-0.3,0.52,178.02,-4.2,3.1
7.44,0.75,0.75,3.0,1.0,3.0,1.0,0.5,0.25,0.0,1.25,0.5,0.5,0.25,-0.98,0.27,-0.17,192.6,9.8,30.3,0.75,0.5,1.5,0.75,1.25,3.0,0.5,0.0,0.5,1.75,1.5,0.75,0.25,-0.73,-0.3,0.83,181.28,-3.0,5.3
7.46,0.75,0.5,2.5,0.75,3.0,1.0,0.5,0.25,0.0,1.5,0.25,0.5,0.25,-0.92,0.27,-0.17,187.79,7.8,26.9,1.0,0.5,1.75,0.75,1.5,3.0,0.5,0.25,0.5,0.75,1.75,0.75,0.25,-0.73,-0.23,0.83,187.76,-5.3,13.0
7.48,0.5,0.5,2.75,0.75,3.5,1.0,0.5,0.25,0.0,1.75,0.5,0.5,0.25,-0.92,0.27,-0.23,190.74,7.0,23.6,0.75,0.5,1.75,0.75,1.0,3.0,0.5,0.25,0.75,1.5,1.5,1.0,0.25,-0.73,-0.23,0.89,192.22,-4.1,3.1
7.5,0.75,0.75,2.75,0.75,3.0,1.0,0.5,0.25,0.0,0.75,0.5,0.75,0.25,-0.98,0.14,-0.23,190.36,10.0,30.6,0.75,0.5,1.75,0.75,0.5,3.0,0.5,0.0,0.5,1.75,1.75,0.75,0.5,-0.73,-0.3,0.95,193.49,-4.0,-0.6
7.52,0.75,0.5,3.0,0.75,3.75,1.0,0.75,0.25,0.0,1.25,0.25,0.5,0.25,-1.05,0.08,-0.23,194.63,8.9,31.9,0.75,0.5,1.75,0.75,1.0,3.0,0.5,0.0,0.5,1.5,1.75,0.75,0.5,-0.67,-0.3,1.02,194.85,-4.0,3.1
7.54,0.75,0.75,3.0,0.75,2.25,1.0,0.5,0.25,0.0,1.25,0.5,0.5,0.5,-1.11,0.02,-0.23,190.79,10.0,25.1,0.75,0.5,1.5,0.5,0.5,3.0,0.5,0.25,0.5,2.0,1.5,0.75,0.25,-0.55,-0.3,0.95,189.2,-2.4,-1.7
7.56,0.75,0.75,2.75,0.75,2.5,1.0,0.5,0.5,0.0,0.0,0.25,1.0,0.25,-1.05,0.08,-0.17,184.77,11.8,34.2,0.75,0.5,1.25,0.75,0.5,2.75,0.5,0.25,0.5,1.5,1.75,0.75,0.25,-0.42,-0.36,0.89,180.01,-3.4,-0.9
7.58,0.75,0.5,3.0,0.75,3.0,1.0,0.25,0.5,0.0,0.5,0.0,0.5,0.25,-0.98,0.14,-0.17,178.18,10.3,38.1,0.0,0.0,1.5,0.75,1.0,3.0,0.5,0.25,0.5,1.25,1.75,0.5,0.25,-0.36,-0.36,0.95,171.72,-1.1,-2.6
7.6,0.75,0.5,3.0,0.75,3.0,1.0,0.5,0.25,0.0,1.25,0.5,0.75,0.25,-0.92,0.2,-0.11,179.61,9.5,25.6,0.75,1.0,1.75,0.5,0.25,3.0,0.5,0.0,0.5,0.25,1.5,0.0,0.25,-0.23,-0.48,0.95,162.36,-7.2,25.6
7.62,0.75,0.75,2.25,0.75,3.0,1.0,0.5,0.25,0.0,1.0,0.25,0.5,0.25,-0.92,0.33,-0.11,178.2,8.2,32.2,0.75,0.5,1.25,0.5,0.5,2.75,0.5,0.0,0.5,1.5,1.5,0.75,0.25,-0.17,-0.48,1.08,156.91,-3.3,0.2
7.64,0.75,0.5,2.25,0.75,3.0,1.0,0.5,0.5,0.0,1.5,0.5,0.75,0.25,-0.86,0.39,-0.17,181.84,6.7,20.1,0.75,0.75,1.25,0.5,0.5,3.0,0.5,0.0,0.5,2.0,1.5,0.75,0.25,-0.05,-0.55,1.2,159.64,-2.2,-0.1
7.66,0.5,0.5,2.25,0.75,3.5,1.0,0.5,0.25,0.0,1.25,0.25,0.5,0.25,-0.92,0.45,-0.17,181.12,6.5,28.2,0.75,0.5,0.25,0.5,0.0,2.75,0.5,0.25,0.5,1.5,1.5,0.75,0.25,0.02,-0.67,1.27,151.99,0.4,-10.6
7.68,0.75,0.75,2.5,0.75,3.0,1.0,0.5,0.25,0.0,0.75,0.5,0.75,0.5,-0.98,0.39,-0.3,182.16,8.9,27.0,0.25,1.0,2.25,0.5,1.0,1.75,0.25,0.25,0.25,1.25,1.5,0.75,0.25,0.08,-0.73,1.14,154.33,-7.0,7.5
7.7,0.75,0.25,2.5,0.75,3.0,1.0,0.5,0.25,0.0,0.75,0.5,0.75,0.25,-0.98,0.39,-0.3,179.14,9.3,26.8,0.75,0.75,1.75,0.5,1.0,3.0,0.5,0.25,0.5,1.5,1.75,0.75,0.25,-0.05,-0.67,0.95,163.6,-3.9,5.4
7.72,0.75,0.5,3.0,0.75,2.25,1.25,0.5,0.25,0.0,0.5,0.25,0.75,0.5,-0.92,0.27,-0.23,176.71,11.0,29.5,0.75,0.75,1.75,0.5,0.0,3.0,0.0,0.0,0.5,1.5,0.25,0.75,0.25,-0.05,-0.67,0.89,161.69,-3.6,12.2
7.74,0.75,1.0,3.0,0.75,2.25,1.25,0.5,0.25,0.0,1.0,0.25,0.75,0.5,-0.92,0.14,-0.23,179.13,9.9,28.1,0.75,1.0,1.5,0.5,0.5,2.75,0.75,0.0,0.5,1.75,1.75,0.75,0.0,-0.11,-0.61,0.83,167.58,-4.9,5.2
7.76,0.75,0.5,3.0,0.75,3.5,1.0,0.75,0.25,0.0,1.0,0.25,0.5,0.5,-0.92,0.08,-0.23,185.01,9.2,30.7,0.75,0.0,1.0,0.25,1.0,1.75,0.25,0.0,0.25,0.25,0.5,0.0,0.0,-0.05,-0.48,0.77,143.35,-5.9,34.4
7.78,0.5,0.5,2.5,0.75,2.5,1.0,0.5,0.0,0.0,1.5,0.5,0.75,0.5,-0.92,0.02,-0.17,184.87,7.9,17.5,0.75,1.0,0.25,0.75,0.0,3.0,0.0,0.0,0.5,1.5,1.5,0.75,0.0,-0.11,-0.42,0.83,139.84,0.0,0.4
7.8,0.75,0.75,2.5,0.75,3.0,1.0,0.5,0.25,0.0,1.25,0.25,0.5,0.25,-0.86,0.02,-0.17,185.38,8.4,30.6,0.75,1.0,1.5,0.5,1.25,3.0,0.5,0.0,0.5,1.5,1.75,0.75,0.25,-0.11,-0.42,0.77,149.47,-3.6,8.0
7.82,0.75,0.5,3.0,0.75,3.0,1.0,0.5,0.25,0.0,1.25,0.5,0.5,0.25,-0.86,0.02,-0.17,185.5,9.5,28.3,0.75,0.75,1.75,0.5,1.5,3.0,0.5,0.0,0.25,1.0,1.5,0.75,0.25,-0.11,-0.42,0.7,166.83,-4.5,14.3
7.84,0.75,0.75,3.0,0.75,2.5,1.0,0.5,0.25,0.0,1.25,0.5,0.5,0.5,-0.86,0.02,-0.17,186.3,9.7,25.8,0.75,1.0,1.75,0.5,1.25,3.0,0.75,0.25,0.5,1.5,1.5,0.5,0.5,-0.05,-0.48,0.7,183.39,-3.6,9.8
7.86,0.75,0.75,2.5,0.75,3.5,1.0,0.5,0.25,0.0,1.25,0.25,0.75,0.25,-0.86,0.02,-0.17,190.03,7.8,28.9,0.75,1.25,1.75,0.5,1.0,3.0,0.5,0.25,0.5,1.25,1.75,0.75,0.25,0.02,-0.55,0.7,193.46,-4.6,10.5
7.88,0.75,0.75,2.5,0.75,2.5,1.0,0.5,0.25,0.0,1.0,0.5,0.5,0.25,-0.8,0.02,-0.17,186.32,9.5,29.5,0.75,1.0,1.75,0.5,0.5,3.0,0.5,0.0,0.5,1.75,1.75,0.5,0.0,0.02,-0.61,0.77,193.69,-4.7,9.1
7.9,0.75,1.0,2.5,0.75,2.25,1.5,0.5,0.25,0.0,0.5,0.0,0.75,0.75,-0.8,0.02,-0.17,183.67,8.6,30.3,0.75,1.25,1.75,0.5,1.0,3.0,0.5,0.0,0.5,1.5,1.5,0.75,0.0,0.02,-0.55,0.83,193.31,-4.9,13.9
7.92,0.75,0.5,2.5,0.75,1.75,1.0,0.5,0.25,0.0,1.25,0.5,0.75,0.25,-0.8,0.02,-0.17,174.68,9.9,20.2,0.75,1.25,1.75,0.5,1.0,3.0,0.5,0.0,0.5,1.25,1.5,0.5,0.0,0.08,-0.55,0.64,190.33,-5.2,18.2
7.94,0.75,0.75,2.75,0.75,3.5,1.0,0.5,0.25,0.0,1.5,0.25,0.5,0.25,-0.73,0.08,-0.17,180.74,8.0,30.1,0.75,1.0,1.75,0.5,1.0,3.0,0.5,0.0,0.5,1.5,1.5,1.0,0.0,0.14,-0.48,0.64,191.29,-4.8,9.8
7.96,0.75,0.5,2.75,0.75,3.0,1.0,0.5,0.25,0.0,1.75,0.25,0.5,0.5,-0.73,0.08,-0.17,183.74,7.5,22.8,0.75,1.0,2.0,0.75,1.0,3.0,0.5,0.0,0.5,1.75,1.5,0.75,0.0,0.14,-0.48,0.64,195.59,-5.2,12.3
7.98,0.75,0.75,3.0,0.75,2.5,1.0,0.5,0.25,0.0,1.25,0.5,0.5,0.25,-0.73,0.14,-0.17,186.86,10.2,28.6,0.75,0.75,1.5,0.75,1.0,3.0,0.5,0.25,0.5,1.75,1.75,0.75,0.0,0.14,-0.48,0.64,196.45,-3.4,6.1
8.0,0.75,0.75,3.0,0.75,3.0,1.0,0.5,0.25,0.0,1.75,0.5,0.75,0.25,-0.8,0.2,-0.23,192.57,8.6,23.3,1.0,1.0,1.75,0.5,1.75,3.0,0.5,0.0,0.5,1.5,1.5,0.75,0.25,0.14,-0.48,0.64,202.19,-4.4,13.9
8.02,0.75,0.25,2.5,0.75,3.0,1.0,0.5,0.25,0.0,1.75,0.5,0.5,0.25,-0.86,0.2,-0.3,191.93,7.2,21.2,0.75,1.0,2.0,0.5,1.25,3.0,0.5,0.0,0.5,1.25,1.75,0.5,0.0,0.08,-0.55,0.64,196.98,-5.6,16.5
8.04,0.75,0.25,2.25,0.75,3.0,1.0,0.5,0.25,0.0,1.0,0.5,0.75,0.5,-0.92,0.2,-0.3,186.92,7.6,20.9,0.75,1.0,1.75,0.5,1.0,3.0,0.5,0.0,0.5,1.5,1.75,0.75,0.0,0.02,-0.55,0.7,193.39,-4.8,10.5
8.06,0.75,0.25,2.5,0.75,3.5,1.0,0.5,0.25,0.0,1.25,0.0,0.75,0.25,-0.92,0.14,-0.3,183.68,7.6,28.0,0.75,1.0,1.75,0.5,1.0,3.0,0.75,0.25,0.5,1.75,1.5,0.75,0.0,0.02,-0.61,0.64,192.09,-4.2,9.6
8.08,0.75,0.0,2.5,0.75,2.5,1.0,0.5,0.25,0.0,1.5,0.25,0.5,0.25,-1.05,0.08,-0.17,177.05,8.1,22.0,0.75,1.0,1.75,0.5,1.0,3.0,0.5,0.0,0.5,1.5,1.75,0.75,0.0,0.02,-0.48,0.7,190.09,-4.8,10.5
8.1,0.5,0.0,2.25,0.75,2.5,1.0,0.5,0.25,0.0,1.5,0.25,0.5,0.25,-1.11,0.02,-0.11,168.69,6.8,19.4,0.75,0.5,1.75,0.5,1.25,3.0,0.5,0.0,0.5,1.75,1.5,0.75,0.25,0.02,-0.42,0.7,188.92,-3.4,5.4
8.12,0.5,0.0,2.5,0.75,3.0,1.0,0.5,0.25,0.0,1.5,0.25,0.5,0.25,-1.17,-0.11,-0.05,166.41,7.0,22.1,0.75,0.75,2.0,0.5,1.0,2.75,0.5,0.0,0.5,1.25,1.5,0.5,0.25,0.02,-0.36,0.7,185.38,-5.7,12.6
8.14,0.75,0.0,3.0,0.75,3.0,1.0,0.5,0.5,0.0,1.25,0.0,0.75,0.5,-1.17,-0.23,0.02,170.3,8.3,22.4,0.75,0.75,1.75,0.5,1.0,3.0,0.5,0.0,0.25,1.75,1.5,0.75,0.0,0.02,-0.3,0.7,182.38,-4.0,9.5
8.16,0.5,0.0,2.75,0.75,2.5,1.0,0.5,0.25,0.0,1.5,0.0,0.5,0.25,-1.17,-0.3,0.02,167.84,8.2,23.5,0.75,0.25,1.75,0.0,1.0,1.75,0.5,0.0,0.25,1.75,1.0,0.5,0.0,0.08,-0.3,0.77,166.07,-5.7,6.4
8.18,0.75,0.25,2.25,0.75,2.25,1.0,0.5,0.25,0.0,1.75,0.5,0.5,0.25,-1.11,-0.3,0.08,166.3,7.3,17.8,0.0,0.0,0.0,0.5,0.0,3.0,0.0,0.0,0.5,1.5,0.25,0.75,0.0,0.08,-0.17,0.89,136.44,10.1,-16.6
8.2,0.75,0.25,2.5,0.75,2.5,1.0,0.5,0.25,0.0,0.75,0.5,0.5,0.5,-1.05,-0.23,0.08,164.75,9.4,25.3,0.0,0.0,0.0,0.0,0.0,1.75,0.25,0.0,0.25,1.5,0.5,0.75,0.0,0.02,-0.11,0.95,100.88,8.9,-38.2
