time,left pressure 0[N/cm虏],left pressure 1[N/cm虏],left pressure 2[N/cm虏],left pressure 3[N/cm虏],left pressure 4[N/cm虏],left pressure 5[N/cm虏],left pressure 6[N/cm虏],left pressure 7[N/cm虏],left pressure 8[N/cm虏],left pressure 9[N/cm虏],left pressure 10[N/cm虏],left pressure 11[N/cm虏],left pressure 12[N/cm虏],left acceleration X[g],left acceleration Y[g],left acceleration Z[g],left total force[N],left center of pressure X[mm],left center of pressure Y[mm],right pressure 0[N/cm虏],right pressure 1[N/cm虏],right pressure 2[N/cm虏],right pressure 3[N/cm虏],right pressure 4[N/cm虏],right pressure 5[N/cm虏],right pressure 6[N/cm虏],right pressure 7[N/cm虏],right pressure 8[N/cm虏],right pressure 9[N/cm虏],right pressure 10[N/cm虏],right pressure 11[N/cm虏],right pressure 12[N/cm虏],right acceleration X[g],right acceleration Y[g],right acceleration Z[g],right total force[N],right center of pressure X[mm],right center of pressure Y[mm]
0.02,1.25,0.5,0.5,0.25,1.75,0.75,0.0,0.25,1.5,1.5,2.5,3.75,5.25,-0.05,0.02,0.89,235.58,1.2,-51.1,1.0,0.75,0.25,1.25,0.25,0.0,0.0,1.5,1.5,0.0,1.5,0.0,0.0,0.45,0.33,1.27,113.23,-10.3,6.2
0.04,1.25,0.0,0.75,1.25,5.0,3.0,0.0,1.75,2.25,4.75,3.5,6.0,5.25,0.52,0.95,2.27,340.82,-1.4,-38.8,1.25,1.75,1.25,3.25,2.25,1.25,0.75,1.5,1.75,1.75,2.75,0.75,0.75,0.77,-0.36,1.27,99.05,-6.7,6.3
0.06,1.25,1.25,1.0,1.25,5.5,3.0,0.0,3.75,2.25,6.5,5.25,6.5,7.0,0.02,0.02,1.14,485.51,-2.0,-39.5,1.0,0.25,1.5,1.25,2.25,1.0,0.75,1.75,1.75,1.5,2.75,0.5,0.75,1.14,-0.86,1.39,86.77,-5.3,-7.1
0.08,1.25,1.25,0.75,1.5,5.5,3.0,0.0,4.25,2.25,3.75,4.75,6.25,7.0,-0.11,0.08,1.02,606.32,-1.6,-36.4,0.0,0.25,0.0,1.25,0.0,0.5,0.75,1.5,1.5,0.0,2.75,0.0,0.75,0.77,-0.23,1.33,71.85,-4.2,-31.0
0.1,1.25,1.25,0.75,2.5,4.75,3.0,0.0,3.5,2.25,5.5,4.75,6.0,6.25,-0.11,0.02,0.89,679.46,-1.2,-35.7,0.0,0.25,0.0,1.25,0.0,0.5,0.75,1.25,1.5,1.0,1.5,0.0,0.0,0.45,-0.17,0.7,43.57,-3.1,-21.5
0.12,1.25,1.25,0.75,2.5,5.25,3.0,0.0,2.25,2.5,5.75,4.75,6.25,6.5,-0.11,0.02,0.95,708.51,-0.8,-35.5,1.0,1.5,0.0,1.25,2.25,3.0,1.0,1.5,1.75,1.5,2.75,1.0,0.75,0.45,-0.11,0.58,86.15,-0.8,-3.3
0.14,1.25,1.25,0.75,2.5,5.75,3.25,0.0,3.5,2.0,6.5,4.75,6.75,7.0,-0.11,0.08,0.89,733.68,-1.8,-36.4,1.25,1.5,1.75,1.5,2.25,3.25,1.0,1.5,1.75,2.25,2.75,0.75,0.75,0.39,-0.17,0.7,150.75,-3.5,2.8
0.16,1.0,0.25,1.0,1.0,5.75,3.75,0.5,4.5,3.25,6.5,6.0,7.5,8.0,-0.11,0.02,0.95,774.17,-2.5,-45.0,0.0,0.0,0.75,0.5,0.0,2.5,0.5,1.5,1.5,1.5,2.0,0.0,0.0,0.27,-0.11,0.89,165.79,1.6,-20.4
0.18,1.25,1.25,1.0,0.5,5.75,4.25,0.5,5.5,3.25,7.25,6.25,7.75,8.0,-0.05,0.02,0.95,840.93,-2.7,-42.7,0.0,0.0,0.75,0.0,0.0,0.0,0.75,1.5,1.25,0.25,1.5,0.0,0.0,0.2,0.02,0.89,144.74,-7.6,-31.8
0.2,1.75,1.5,1.0,2.5,5.75,4.25,0.75,6.0,3.75,8.25,6.75,8.5,8.0,-0.05,0.02,0.95,918.38,-1.5,-38.8,0.0,0.0,0.5,0.0,0.0,0.0,0.5,1.5,1.25,0.5,1.5,0.0,0.0,0.14,0.14,0.89,107.29,-4.6,-39.5
0.22,1.25,1.5,1.0,1.75,5.75,4.25,0.75,6.5,4.0,8.5,7.5,8.5,8.75,-0.05,0.02,0.95,980.71,-2.2,-42.7,0.0,0.0,0.5,0.0,0.0,0.5,0.75,1.5,1.25,0.25,1.5,0.0,0.0,0.2,0.2,1.02,76.47,-3.8,-30.6
0.24,1.25,1.25,0.75,1.0,5.5,5.0,1.0,6.75,3.75,8.75,7.5,8.75,9.75,-0.11,0.02,0.95,1026.87,-3.2,-46.0,0.0,0.0,1.25,0.0,0.0,0.5,0.5,1.5,1.25,0.0,1.5,0.0,0.0,0.2,0.27,1.14,63.04,-8.3,-18.4
0.26,1.25,1.5,1.0,1.0,5.75,5.0,0.75,7.25,4.0,9.0,7.75,9.0,9.75,-0.11,0.02,0.95,1064.39,-3.0,-45.0,0.0,0.0,0.5,0.0,0.0,0.5,0.5,1.25,1.25,0.0,1.5,0.0,0.0,0.27,0.39,1.2,62.39,-5.1,-29.3
0.28,1.0,1.5,1.0,1.0,5.75,5.25,0.75,7.25,4.25,9.0,8.0,9.25,9.75,-0.11,0.02,0.95,1081.95,-3.0,-45.6,0.0,0.0,0.75,0.25,0.0,0.5,1.0,1.5,1.25,0.0,2.75,0.0,0.75,0.27,0.52,1.33,69.29,-5.7,-36.8
0.3,1.0,1.5,1.0,2.5,5.75,5.5,1.25,7.25,4.5,9.5,8.0,9.25,9.75,-0.11,0.02,0.95,1115.37,-2.6,-42.8,0.0,0.0,0.5,0.5,0.0,1.0,0.5,1.25,1.25,0.0,1.5,0.0,0.0,0.27,0.58,1.45,74.82,-3.9,-17.0
0.32,1.0,1.5,1.0,1.75,4.75,5.75,1.25,7.5,4.75,9.25,8.25,9.0,9.75,-0.11,0.02,0.95,1138.18,-2.8,-45.1,0.0,0.0,0.5,0.25,0.0,1.0,0.5,1.25,1.25,0.0,1.5,0.0,0.0,0.33,0.58,1.45,78.82,-3.4,-20.4
0.34,0.5,0.75,1.25,1.5,5.75,6.0,1.25,7.75,4.75,9.0,8.0,8.5,9.75,-0.11,0.02,0.95,1139.66,-3.4,-45.1,0.0,0.0,0.5,0.75,0.0,1.0,0.5,1.5,1.25,0.0,1.5,0.0,0.0,0.39,0.7,1.52,75.61,-3.7,-14.9
0.36,0.25,0.0,1.0,2.5,6.0,6.0,1.5,7.5,4.75,9.0,7.5,8.5,8.75,-0.11,0.02,0.95,1111.42,-3.4,-44.3,0.0,0.0,0.5,1.0,0.0,0.5,0.75,1.5,1.25,0.0,1.5,0.0,0.0,0.33,0.89,1.58,73.24,-6.7,-14.8
0.38,0.25,1.0,1.25,2.25,6.25,6.0,1.5,7.25,5.0,8.75,7.5,7.75,8.5,-0.11,0.02,0.95,1074.14,-3.0,-40.3,1.0,0.0,0.5,1.25,0.0,1.0,0.75,1.5,1.75,1.25,1.5,0.75,0.0,0.14,1.14,1.64,102.97,-5.9,-15.8
0.4,0.0,0.25,1.75,4.0,6.75,6.0,1.75,7.25,5.25,8.0,7.5,7.75,8.0,-0.11,0.02,0.95,1042.19,-2.0,-36.9,0.0,0.0,1.5,0.5,2.25,0.5,0.75,1.5,1.25,0.0,2.5,0.0,0.0,-0.17,1.52,1.77,136.71,-7.1,0.1
0.42,0.75,0.5,2.25,4.0,7.25,6.75,2.25,7.25,5.25,7.75,7.25,7.0,7.25,-0.11,0.02,0.95,1019.59,-1.4,-30.3,0.0,0.0,0.25,1.0,1.75,0.0,1.0,1.5,1.25,0.0,1.75,0.0,0.0,-0.3,1.95,1.14,146.71,-5.4,-4.3
0.44,1.25,0.75,2.0,4.25,7.75,7.0,2.5,7.25,5.25,7.75,6.75,7.0,7.0,-0.05,0.02,0.95,1006.55,-1.2,-27.2,0.0,0.0,0.25,0.75,0.0,0.5,0.25,1.25,1.25,0.0,1.25,0.0,0.0,-0.8,2.33,0.39,129.4,-4.4,-20.0
0.46,1.0,1.75,3.0,5.75,7.75,7.25,3.0,7.25,5.25,7.5,6.75,6.25,6.25,-0.05,0.02,0.95,1021.8,0.0,-20.0,0.0,0.0,0.25,1.0,0.0,0.5,0.25,1.25,1.25,0.0,1.5,0.0,0.0,-1.48,2.83,0.2,111.63,-5.2,-18.8
0.48,2.0,1.75,2.0,6.75,8.0,7.25,3.75,7.25,5.5,6.5,6.25,5.5,5.75,-0.11,0.02,0.95,1035.61,0.5,-15.0,0.0,0.0,0.5,0.75,0.0,0.75,0.25,0.75,1.5,0.5,1.5,0.25,0.0,-1.67,3.08,-0.05,98.62,-5.5,-23.8
0.5,2.25,1.75,3.25,7.5,8.0,7.5,3.75,7.25,5.5,6.5,5.75,5.25,5.25,-0.05,0.02,0.95,1061.13,1.4,-10.7,0.0,0.0,0.25,1.0,0.0,2.0,0.0,1.75,1.25,1.0,1.5,0.0,0.75,-1.73,3.39,-0.98,107.96,4.2,-26.0
0.52,3.0,1.75,3.25,8.25,9.25,8.0,4.25,7.25,5.25,5.75,5.5,4.25,4.5,-0.05,0.02,0.95,1090.84,1.9,-3.5,1.0,0.75,1.5,1.25,1.75,3.25,0.25,1.5,1.0,3.0,2.75,3.0,2.5,0.27,-0.98,2.02,183.26,-0.4,-24.7
0.54,2.75,1.75,4.75,8.75,9.25,8.0,4.5,6.75,5.25,4.75,4.5,3.75,4.0,-0.05,0.02,0.95,1109.56,3.2,2.0,1.25,0.0,1.25,0.0,0.0,1.0,0.0,2.0,1.25,4.5,3.25,3.0,5.0,-0.3,0.2,0.64,251.37,1.3,-61.1
0.56,4.0,1.75,5.5,10.5,11.5,8.0,4.75,6.5,5.0,5.0,3.5,2.5,3.0,-0.05,0.02,0.95,1154.86,4.3,12.3,0.0,0.0,0.5,0.0,0.0,0.0,1.25,3.75,2.0,7.75,3.25,5.75,4.5,-0.42,1.77,5.39,332.91,3.5,-75.9
0.58,4.5,2.0,6.25,13.0,12.0,8.25,5.25,6.5,4.75,4.25,3.5,2.5,1.75,-0.05,0.08,0.95,1220.76,5.7,18.9,1.25,0.75,2.75,0.0,1.0,5.0,1.5,6.25,1.75,7.5,8.25,5.5,7.5,0.2,0.27,1.14,494.78,2.1,-48.3
0.6,4.75,2.0,6.25,13.0,13.0,8.25,5.5,5.75,4.25,3.25,2.5,2.5,1.5,-0.11,0.08,0.95,1268.73,6.2,23.8,1.0,0.5,0.5,0.0,0.25,5.75,1.0,5.5,2.25,8.5,8.25,6.0,7.75,0.08,0.14,0.95,650.34,4.7,-58.0
0.62,5.75,1.75,7.75,14.5,14.0,8.5,5.75,5.5,3.75,2.75,2.0,2.5,2.0,-0.11,0.08,0.95,1325.4,7.3,27.4,1.25,0.0,0.25,1.0,2.25,6.0,1.25,6.25,2.75,8.25,7.25,6.0,7.0,0.14,0.08,0.89,778.2,4.5,-49.4
0.64,6.25,2.25,8.5,16.0,15.0,8.25,6.0,4.5,3.25,2.5,0.75,2.25,2.0,-0.11,0.08,0.95,1368.91,8.2,33.3,0.75,0.75,1.5,1.0,2.25,5.5,2.25,6.25,2.5,8.25,7.25,6.0,7.75,0.14,0.08,0.95,864.47,3.2,-46.7
0.66,6.75,2.0,9.5,16.0,15.5,8.25,6.25,4.25,2.5,2.25,1.25,1.75,2.0,-0.11,0.14,1.02,1408.44,8.9,35.5,0.75,0.25,0.75,0.25,2.75,6.0,2.0,6.25,2.75,8.5,6.75,6.5,7.75,0.08,0.08,0.95,913.77,4.6,-50.2
0.68,7.5,2.0,10.5,15.0,16.0,7.5,5.75,3.75,2.25,2.0,1.5,1.75,2.0,-0.11,0.14,1.08,1428.64,9.8,37.0,1.0,0.5,2.0,0.25,2.25,5.75,2.0,6.25,2.75,8.75,7.75,6.5,8.0,0.08,0.08,0.95,938.86,3.0,-48.5
0.7,8.5,3.25,10.5,15.5,16.0,6.75,5.75,2.5,2.25,2.25,1.75,1.25,2.0,-0.11,0.14,1.14,1446.51,10.8,40.3,1.0,0.75,2.75,1.25,2.25,6.0,2.25,7.0,2.75,8.75,8.25,6.75,8.25,0.08,0.08,0.95,974.73,2.1,-44.5
0.72,8.5,3.75,12.0,15.5,15.5,5.25,5.5,1.5,2.25,0.75,1.25,1.5,1.25,-0.11,0.14,1.14,1435.86,13.3,46.4,1.0,1.0,2.0,1.25,2.25,6.0,2.5,7.0,2.75,9.25,7.75,6.75,8.25,0.08,0.08,0.95,995.16,2.7,-45.1
0.74,9.25,4.5,12.5,16.0,15.0,5.25,4.25,0.25,2.0,1.25,1.25,1.5,1.5,-0.11,0.2,1.14,1425.25,13.9,48.1,1.0,1.0,1.75,1.25,2.25,6.0,2.5,7.25,3.0,9.25,7.75,6.75,8.25,0.08,0.08,0.95,994.59,2.9,-45.6
0.76,10.0,4.5,12.0,14.5,13.0,2.75,2.25,0.25,1.75,2.75,1.25,0.25,1.0,-0.17,0.27,1.27,1365.63,15.1,50.6,1.25,1.0,2.0,1.25,3.5,6.25,2.5,7.25,3.25,9.25,8.0,6.75,8.25,0.08,0.08,0.89,989.84,2.6,-41.9
0.78,12.0,4.5,12.0,13.0,13.5,2.75,1.25,0.5,2.0,1.5,0.0,0.75,0.5,-0.17,0.33,1.33,1307.7,16.0,56.0,1.25,1.0,2.75,2.0,3.75,6.5,2.5,7.5,3.25,9.25,8.25,6.5,8.25,0.08,0.08,0.95,999.41,1.9,-38.4
0.8,10.5,4.5,9.0,6.75,8.0,0.25,0.0,2.25,2.0,0.25,0.5,0.0,0.5,-0.42,0.7,1.89,1060.31,17.9,57.3,1.25,1.0,2.75,2.5,5.25,6.5,3.0,7.5,3.25,8.75,8.25,6.5,8.25,0.08,0.08,0.95,1005.35,1.6,-34.6
0.82,7.75,3.5,6.5,6.5,8.0,0.0,0.0,1.75,2.0,1.5,0.0,0.0,1.75,-0.73,0.95,2.27,827.92,14.4,46.9,1.0,1.25,2.75,2.75,5.5,6.75,3.0,7.75,3.75,8.5,7.75,6.0,7.75,0.08,0.08,0.95,1002.82,1.6,-31.9
0.84,6.0,1.75,4.5,5.0,6.75,0.0,0.0,0.5,1.5,1.5,1.0,0.75,1.5,-0.67,0.52,2.02,583.01,13.9,38.2,0.0,1.75,3.75,3.5,5.5,7.25,3.0,7.75,3.75,8.25,7.75,5.75,7.75,0.08,0.08,0.95,1018.53,1.3,-29.2
0.86,4.75,0.5,2.25,0.0,5.5,0.0,0.0,0.25,1.5,0.0,1.25,0.0,1.5,-0.42,0.27,1.89,360.04,12.9,35.2,0.25,1.75,4.0,4.0,6.75,7.25,3.25,7.5,3.75,7.5,7.25,5.25,6.5,0.08,0.08,0.95,1016.77,0.6,-22.5
0.88,1.75,0.5,1.0,0.0,2.5,0.0,0.0,0.0,1.5,1.25,0.25,0.75,0.25,-0.73,-0.48,1.7,200.38,9.7,14.7,1.25,1.75,4.25,5.5,7.25,7.5,3.75,7.25,3.75,7.0,6.5,4.0,5.75,0.08,0.14,0.95,1021.83,-0.5,-13.6
0.9,1.75,1.5,2.25,1.5,5.75,0.5,0.0,0.25,1.75,1.25,1.25,0.75,0.5,-0.8,-0.3,1.95,126.48,8.5,25.9,2.75,2.0,4.5,6.0,8.0,7.75,4.25,7.25,3.75,6.0,6.25,3.0,4.5,0.08,0.14,0.95,1033.29,-1.9,-4.1
0.92,1.25,1.5,2.25,1.25,5.75,0.5,0.0,0.5,1.75,1.0,1.5,0.75,0.75,-0.92,-1.3,1.02,95.9,7.4,21.2,2.0,2.0,6.0,7.5,8.5,7.75,4.5,6.75,3.25,5.5,5.25,2.75,4.25,0.08,0.14,0.95,1047.92,-2.9,1.3
0.94,1.25,1.5,2.0,2.0,5.75,1.5,0.0,0.5,1.75,1.5,1.25,0.5,1.5,-0.73,-0.36,0.77,119.68,4.8,18.4,3.0,2.25,6.25,8.25,8.75,8.0,4.75,6.25,3.25,4.5,4.75,2.0,3.0,0.08,0.14,0.95,1056.21,-4.3,10.1
0.96,0.5,1.5,1.0,0.5,2.5,0.25,0.0,0.25,1.75,0.25,1.5,0.0,1.5,-0.48,-0.36,0.14,101.81,6.4,6.7,5.0,2.5,7.0,9.5,9.75,8.0,5.0,6.0,3.25,4.25,4.5,1.5,2.75,0.08,0.14,0.95,1099.41,-5.9,17.3
0.98,1.25,1.5,0.75,1.25,1.75,1.75,0.0,0.0,1.75,1.5,0.0,1.0,0.0,-0.48,-0.3,0.33,94.82,5.8,20.9,5.75,2.5,7.5,11.0,9.75,8.25,5.5,5.5,2.75,4.25,4.0,1.5,2.25,0.02,0.14,0.95,1146.94,-6.9,21.8
1.0,1.25,1.25,1.75,1.25,5.75,1.75,0.0,0.5,1.75,1.5,0.75,1.0,1.5,-0.48,-0.36,0.77,125.84,3.5,14.7,6.25,3.25,8.25,11.0,11.0,8.25,5.5,5.5,2.25,3.5,3.75,1.25,2.25,0.02,0.14,0.95,1206.44,-7.5,26.5
1.02,0.0,0.0,1.5,0.5,5.5,0.25,0.0,1.25,1.5,0.0,1.5,0.0,0.0,-0.48,-0.3,1.08,136.4,4.2,20.0,6.5,3.25,8.25,13.0,11.5,8.5,5.75,4.25,2.0,3.5,3.0,1.25,1.5,0.02,0.14,0.95,1256.61,-8.3,31.8
1.04,1.25,1.25,0.5,1.25,5.75,1.75,0.0,0.0,1.75,1.25,1.25,0.75,1.5,-0.48,-0.05,1.02,189.56,2.0,13.5,7.5,3.5,9.0,13.0,12.5,8.5,5.75,4.25,1.75,3.0,2.75,1.25,1.5,0.02,0.14,0.95,1310.26,-9.0,34.9
1.06,1.25,1.25,1.5,2.5,5.75,1.75,0.0,0.75,1.75,1.25,1.25,1.0,1.5,-0.42,0.08,1.02,233.61,4.0,15.1,8.25,4.25,9.0,13.0,12.5,8.5,5.0,3.25,1.5,2.75,3.25,1.25,1.25,0.02,0.14,1.02,1337.81,-9.6,37.6
1.08,1.25,1.25,1.0,1.75,5.75,1.75,0.0,1.5,1.75,1.25,1.25,1.0,1.5,-0.3,0.14,1.14,272.61,2.0,10.7,8.75,4.25,9.75,14.5,12.5,8.0,4.25,3.0,1.25,2.5,2.75,1.25,0.75,-0.05,0.2,1.08,1359.39,-10.7,41.4
1.1,1.25,1.5,1.25,2.25,5.75,1.75,0.0,1.25,1.75,1.25,1.5,1.0,1.5,-0.11,0.27,1.33,297.16,3.2,12.9,9.5,4.5,9.75,14.5,13.0,0.0,3.0,3.0,1.25,1.0,2.25,1.0,1.25,-0.05,0.2,1.08,1320.45,-15.0,46.3
1.12,1.25,1.5,1.0,1.5,5.25,1.75,0.0,1.0,1.75,0.75,1.25,1.0,1.5,-0.11,0.39,1.52,301.17,3.0,13.3,9.0,4.75,9.0,12.5,12.5,0.0,0.75,1.75,1.0,0.0,1.5,0.0,1.0,0.02,0.27,1.14,1195.33,-15.8,55.3
1.14,1.25,1.25,1.0,2.25,5.0,1.75,0.0,1.0,1.75,1.25,1.25,1.0,1.5,-0.11,0.52,1.64,295.59,3.1,11.2,9.75,4.25,9.5,13.0,11.0,3.5,0.0,1.5,1.25,0.0,2.0,0.0,0.25,0.02,0.33,1.14,1088.02,-15.0,55.7
1.16,0.5,0.0,1.0,0.25,4.5,1.75,0.0,1.0,1.75,0.5,1.25,1.0,1.5,-0.3,0.58,1.77,271.08,0.1,-3.5,9.75,4.0,9.0,12.5,9.75,5.0,0.0,1.5,1.25,0.0,0.25,0.0,0.75,0.14,0.39,1.2,993.37,-14.2,57.4
1.18,1.5,0.75,1.0,1.75,3.0,1.75,0.0,1.5,1.75,0.5,1.25,1.0,1.5,-0.42,0.77,2.02,260.74,3.9,5.2,9.75,5.5,9.0,12.0,8.5,4.0,0.0,1.75,1.5,0.0,2.75,1.25,0.5,0.14,0.45,1.2,955.58,-14.9,49.7
1.2,1.0,1.25,1.5,2.25,2.5,1.75,0.0,1.0,1.5,0.25,1.25,1.0,1.5,-0.23,1.2,2.02,251.07,5.7,10.2,9.75,5.0,8.25,9.5,7.5,5.25,0.0,1.5,1.5,1.25,2.75,1.0,0.75,0.2,0.58,1.45,909.97,-13.4,45.9
1.22,1.25,1.25,1.0,1.5,5.25,1.5,0.0,1.0,1.5,1.25,1.25,1.0,1.5,0.14,1.52,1.95,255.03,2.6,10.4,8.75,3.25,3.75,5.75,5.25,3.75,0.0,1.5,1.5,0.5,2.75,1.25,0.75,0.77,1.2,2.89,767.75,-12.5,40.4
1.24,1.25,1.25,1.0,1.25,4.5,1.75,0.0,0.5,1.5,0.25,1.25,0.75,1.5,0.7,2.08,1.89,248.77,3.9,15.9,7.0,2.5,2.0,4.0,2.5,3.25,0.0,1.5,1.75,0.0,2.75,1.0,0.75,0.45,0.77,2.64,569.66,-12.2,34.6
1.26,1.25,1.25,1.0,1.0,3.75,1.5,0.0,1.0,1.5,1.25,1.25,1.0,1.5,0.95,2.58,1.02,251.4,2.8,4.8,5.5,1.75,1.75,2.5,2.25,3.5,0.0,1.5,1.5,1.25,2.75,0.0,0.75,0.52,0.39,2.27,392.14,-8.9,28.0
1.28,1.25,1.0,1.0,1.0,3.75,1.75,0.0,1.5,1.5,1.25,1.25,0.75,1.5,1.27,3.2,0.08,243.01,1.7,4.2,0.75,0.0,0.0,1.25,0.0,2.25,0.0,1.5,1.25,0.75,0.25,0.0,0.75,1.08,-0.55,2.2,229.73,3.6,-5.6
1.3,1.25,1.0,1.0,1.25,3.5,1.75,0.0,1.0,1.5,1.75,1.25,0.75,1.5,1.77,3.58,-0.05,240.26,2.0,3.1,0.25,0.0,1.25,1.25,1.0,3.25,0.0,1.75,1.5,1.5,0.25,1.0,0.75,1.02,-0.11,1.33,130.69,2.0,-7.7
1.32,1.25,1.0,1.0,0.5,5.25,1.75,0.0,0.0,1.75,2.0,1.25,1.0,1.5,2.39,2.89,1.89,245.11,1.8,5.4,1.25,1.0,2.5,2.0,2.25,1.0,0.0,1.75,1.75,1.5,0.25,1.0,0.75,0.95,-1.67,1.14,88.22,-7.3,11.8
1.34,1.0,1.25,0.5,0.25,4.5,1.0,0.0,1.25,1.75,2.75,1.5,2.5,2.75,-0.67,-0.42,1.64,258.03,-0.4,-20.3,1.0,1.0,2.25,1.5,2.25,0.75,0.0,1.5,1.5,1.5,0.25,1.0,0.75,0.52,-0.55,1.08,90.3,-6.8,9.4
1.36,1.0,1.25,0.25,0.0,2.25,0.0,0.0,1.5,1.5,2.5,2.5,5.5,6.0,0.2,-0.17,1.58,287.74,-0.2,-56.5,1.0,0.25,2.75,1.0,2.25,0.0,0.0,1.5,1.25,0.5,1.25,0.0,0.75,0.27,-0.48,0.39,85.38,-10.7,13.1
1.38,0.25,0.25,1.0,0.25,2.5,1.25,0.0,2.0,1.75,5.75,2.5,7.75,7.0,0.89,0.64,3.33,354.97,-2.6,-63.6,1.0,0.75,2.75,0.0,2.25,0.5,0.0,1.5,1.5,1.5,0.75,1.0,0.75,0.33,-0.3,0.27,91.59,-7.3,1.2
1.4,1.0,0.5,0.25,0.0,2.25,1.0,0.0,4.25,2.75,7.75,6.75,8.0,8.75,-0.17,0.45,1.27,489.03,-2.8,-66.3,1.0,0.75,2.25,0.5,2.25,0.25,0.0,1.5,1.75,1.5,2.75,1.0,0.75,0.39,-0.36,0.45,109.13,-7.5,-8.8
1.42,1.0,0.0,0.75,0.0,0.0,3.0,0.0,6.5,2.75,8.5,7.75,8.75,9.75,0.2,0.14,1.2,649.02,-3.9,-69.8,1.0,0.0,2.0,0.75,2.25,1.0,0.0,1.5,1.75,2.25,2.75,0.75,0.75,0.39,-0.36,0.83,133.23,-4.7,-13.4
1.44,1.5,0.0,0.75,0.25,1.75,3.0,0.0,6.75,3.0,7.75,7.5,7.75,9.75,-0.11,0.02,0.95,783.15,-3.5,-61.4,1.25,0.0,2.5,0.0,2.25,0.5,0.5,1.75,1.25,0.0,2.5,0.0,1.0,0.33,-0.17,0.95,154.29,-9.3,1.6
1.46,0.5,0.25,0.75,1.0,2.5,3.0,0.0,7.0,3.25,8.5,7.5,8.0,9.75,-0.17,0.08,0.95,882.65,-3.9,-59.9,1.0,0.5,2.0,1.25,2.25,0.0,0.75,1.5,1.5,1.5,2.25,1.0,0.75,0.33,0.08,0.95,187.42,-8.3,-5.7
1.48,1.0,0.5,2.25,1.25,6.25,4.25,0.5,7.25,3.75,9.0,7.0,8.5,8.75,-0.11,0.02,0.95,983.24,-2.4,-43.5,1.0,0.25,1.75,1.25,2.25,3.0,0.75,1.5,1.5,1.5,1.5,1.0,0.75,0.33,0.27,0.95,212.8,-2.7,0.9
1.5,0.25,0.75,1.5,0.75,5.0,4.75,0.25,6.75,3.75,7.75,7.5,8.5,9.75,-0.11,0.02,0.95,1033.68,-3.4,-49.6,1.0,0.25,1.75,1.25,2.25,2.5,0.75,1.5,1.5,1.5,2.5,1.0,0.75,0.33,0.39,1.14,234.97,-3.8,-3.9
1.52,0.25,0.25,0.0,3.0,5.25,5.25,0.0,7.25,4.0,7.75,7.5,8.5,9.5,-0.11,0.02,0.95,1071.86,-4.1,-48.1,1.0,0.75,1.75,1.25,2.25,2.0,0.75,1.5,1.5,1.5,2.75,0.75,0.75,0.27,0.52,1.33,252.8,-4.7,-1.5
1.54,0.0,0.0,0.75,3.5,5.75,5.0,0.0,7.25,4.25,8.5,7.5,8.5,9.0,-0.11,0.02,0.95,1091.28,-3.5,-46.1,1.0,0.75,1.75,1.25,2.25,1.0,0.75,1.5,1.25,0.5,2.75,0.75,0.75,0.27,0.64,1.52,246.93,-7.5,1.4
1.56,0.25,0.0,1.0,3.75,5.75,5.25,0.0,7.25,4.5,8.0,7.5,7.75,8.75,-0.11,0.02,0.95,1087.37,-3.1,-43.0,0.0,0.0,1.25,0.0,0.25,1.0,0.0,0.5,1.25,1.25,0.75,0.0,0.25,0.39,0.77,1.77,199.08,-2.7,-18.2
1.58,1.25,0.0,1.0,4.75,6.0,6.0,0.75,7.25,4.75,7.75,7.0,7.0,8.0,-0.11,0.02,0.95,1065.82,-2.2,-35.4,1.25,0.75,1.75,1.25,2.25,3.0,0.75,1.5,1.5,1.5,2.5,0.5,0.75,0.64,1.08,2.08,209.2,-3.6,3.7
1.6,1.25,0.25,1.75,5.0,6.25,6.0,1.75,7.25,4.75,7.75,6.75,6.75,7.0,-0.11,0.02,0.95,1035.33,-1.2,-30.6,0.5,0.75,1.5,1.0,2.25,2.75,0.75,1.25,1.5,1.5,2.0,0.75,0.75,0.77,1.64,2.33,212.21,-2.1,-0.9
1.62,2.0,0.25,2.0,5.25,7.0,6.75,1.75,7.25,4.75,6.5,6.25,6.25,6.25,-0.11,0.02,0.95,999.81,-0.6,-23.7,1.0,0.75,1.5,1.25,2.25,3.0,0.75,1.5,1.5,1.5,0.75,0.75,0.75,0.7,2.14,1.89,229.8,-2.0,7.8
1.64,2.0,0.75,3.0,6.75,7.75,7.0,2.0,7.25,4.75,6.5,5.75,5.25,6.0,-0.11,0.08,0.95,993.22,0.3,-16.0,0.0,0.0,1.75,0.0,0.5,1.25,0.0,1.25,1.25,1.25,0.5,0.25,0.0,0.2,2.7,1.02,196.62,-2.7,-9.1
1.66,2.25,1.75,3.75,7.0,7.5,7.0,1.75,6.75,4.75,5.5,5.25,4.25,5.25,-0.05,0.08,0.95,992.2,1.4,-8.6,0.25,0.0,1.0,0.25,0.5,2.0,0.75,1.5,1.5,1.5,2.5,0.75,0.25,-0.55,3.08,0.45,183.85,-1.3,-25.7
1.68,3.0,1.75,4.75,8.5,9.25,7.25,3.0,6.5,4.75,5.0,4.75,3.75,4.0,-0.05,0.08,0.95,1028.49,3.2,1.4,0.0,0.0,1.75,0.0,0.0,1.0,0.0,1.25,1.25,0.0,0.25,0.0,0.0,-1.61,4.14,0.08,132.07,-8.0,5.0
1.7,3.75,1.75,5.25,10.5,9.5,7.25,3.25,6.5,4.75,5.0,4.0,2.5,3.75,-0.05,0.08,0.95,1069.0,4.1,8.1,0.0,0.0,0.5,0.0,0.0,1.5,0.0,1.25,1.25,0.5,0.5,0.0,0.5,-2.23,4.14,0.02,97.66,4.7,-24.9
1.72,3.75,1.75,5.5,11.0,9.5,7.5,3.75,6.0,4.25,4.25,2.75,2.5,2.0,-0.05,0.08,0.95,1085.98,5.1,15.5,0.0,0.0,1.5,0.0,1.5,0.75,0.0,1.75,1.0,1.0,2.75,0.25,1.25,-0.17,0.08,-0.05,100.61,-1.4,-28.5
1.74,4.5,1.75,6.5,13.0,11.0,7.75,3.0,5.5,4.0,3.0,2.75,2.5,2.75,-0.05,0.08,0.95,1131.51,6.1,20.2,1.0,0.25,0.0,1.25,1.75,1.25,0.0,1.75,1.25,2.75,2.75,3.5,4.25,0.33,-0.23,2.45,171.29,1.5,-47.6
1.76,4.75,2.0,7.5,13.0,12.0,7.75,1.5,5.5,3.75,2.75,2.5,2.5,2.25,-0.05,0.08,0.95,1169.45,6.4,23.7,1.0,0.0,0.0,1.5,0.0,3.0,0.0,2.75,1.75,6.75,4.0,6.0,7.0,-0.73,0.58,1.02,282.94,4.1,-63.7
1.78,5.75,1.75,8.0,14.5,14.0,8.0,3.25,5.0,3.25,2.75,2.5,2.5,1.5,-0.05,0.08,0.95,1246.13,7.5,28.6,0.0,0.75,1.0,0.0,1.0,5.5,0.0,4.75,2.5,9.25,6.5,7.75,8.0,0.33,0.7,2.95,463.73,5.2,-60.3
1.8,6.0,2.25,8.25,16.0,14.0,7.5,3.25,4.25,2.5,1.25,2.0,2.0,2.0,-0.05,0.14,0.95,1299.32,8.6,34.3,0.0,0.25,1.75,0.0,2.75,6.0,1.0,7.0,2.5,9.25,8.75,8.0,9.0,-0.17,0.33,1.14,702.92,4.4,-55.2
1.82,6.0,1.5,7.75,14.5,13.0,7.25,4.25,2.5,1.75,0.5,0.5,1.25,1.5,-0.05,0.14,0.95,1263.53,9.7,42.0,0.5,0.75,1.5,0.0,0.0,6.0,1.0,7.25,2.75,8.75,8.5,7.5,8.5,0.14,0.14,1.02,857.51,4.2,-58.1
1.84,7.5,1.75,8.25,17.0,14.0,8.0,4.25,2.25,1.5,2.75,0.0,1.75,1.5,-0.05,0.14,1.02,1275.37,9.4,40.7,1.0,1.0,1.5,0.0,1.0,6.25,1.0,7.25,2.5,9.0,8.25,6.75,8.75,0.14,0.14,0.95,964.38,4.2,-52.7
1.86,7.5,3.25,9.5,16.0,15.5,7.75,3.25,2.5,1.75,2.5,1.25,1.0,2.0,-0.11,0.14,1.08,1308.58,9.4,40.9,0.75,0.0,1.75,1.25,2.5,6.25,1.0,7.0,2.75,8.75,7.75,6.5,8.25,0.14,0.08,0.95,1005.49,3.9,-48.5
1.88,8.0,3.75,10.5,17.5,16.0,6.75,3.0,2.5,1.5,2.75,0.0,1.25,1.75,-0.11,0.2,1.08,1361.44,10.4,44.2,0.0,0.0,1.75,2.25,2.5,6.25,1.25,7.25,2.75,8.75,7.75,6.5,8.25,0.14,0.08,0.89,1027.76,4.0,-48.2
1.9,9.25,4.5,9.5,16.0,14.5,7.0,3.0,2.25,1.75,2.75,0.5,1.5,1.5,-0.11,0.2,1.08,1392.31,10.6,44.1,1.0,0.0,2.5,2.5,3.75,6.25,2.0,7.25,3.0,8.25,7.75,6.25,8.25,0.08,0.08,0.95,1037.37,2.3,-40.3
1.92,9.0,3.25,10.5,0.0,14.5,5.25,1.75,2.25,1.5,2.25,1.25,0.75,1.75,-0.17,0.2,1.14,1272.47,9.9,40.4,0.0,1.0,1.75,1.75,4.75,6.75,2.0,7.25,3.0,8.25,7.5,5.75,7.5,0.08,0.08,0.95,1035.19,3.7,-38.6
1.94,11.0,3.75,11.0,16.0,14.0,3.0,0.5,1.75,1.5,2.75,1.0,0.75,1.25,-0.17,0.27,1.2,1246.12,13.6,48.1,0.0,1.0,2.0,3.25,5.25,7.25,2.0,7.25,3.0,7.75,6.5,5.25,7.5,0.08,0.08,0.95,1008.84,3.3,-32.4
1.96,11.5,4.75,11.0,16.0,13.0,3.0,0.0,0.25,1.75,1.25,0.25,0.75,1.0,-0.23,0.33,1.33,1193.76,15.5,55.5,0.0,1.5,2.75,3.5,5.5,7.25,2.5,7.25,3.25,7.5,6.5,4.75,6.5,0.08,0.08,0.95,961.83,2.2,-26.7
1.98,10.0,3.25,10.0,10.0,11.0,1.0,0.0,0.5,1.5,0.75,0.0,0.25,1.5,-0.36,0.45,1.45,1075.53,16.6,55.4,0.0,1.75,2.75,3.5,6.25,7.5,3.0,7.25,3.25,7.5,6.5,4.0,6.25,0.08,0.08,0.95,922.19,2.2,-23.1
2.0,9.0,3.25,8.25,8.25,8.25,0.25,0.0,0.0,1.5,0.0,0.5,0.5,0.75,-0.55,0.77,1.83,882.55,18.8,58.6,0.0,1.75,3.75,4.0,7.25,7.75,3.0,7.25,3.25,7.25,6.5,4.0,5.75,0.08,0.08,0.95,907.19,1.3,-18.3
2.02,7.75,3.0,5.25,6.75,7.25,0.25,0.0,0.5,1.5,0.25,0.0,0.75,0.75,-0.67,1.14,3.02,680.76,16.7,55.3,1.25,2.0,4.0,5.75,7.25,7.75,3.75,7.25,3.25,6.75,6.25,3.0,5.5,0.08,0.08,0.95,925.19,-0.2,-10.4
2.04,6.75,2.75,3.5,5.0,7.0,0.25,0.0,1.75,1.75,0.5,0.0,1.0,0.0,-0.67,0.45,2.52,506.08,14.2,50.5,1.0,2.0,4.5,6.0,8.5,8.0,3.25,7.25,3.25,6.0,5.25,2.75,4.25,0.08,0.08,0.95,949.26,-0.5,-4.1
2.06,4.75,1.75,2.0,1.75,6.25,0.5,0.0,0.5,1.5,0.0,1.25,1.5,0.5,-0.67,0.27,2.64,355.54,12.2,37.3,2.0,2.0,5.0,7.5,8.5,8.25,4.0,6.75,3.0,4.75,4.75,2.0,3.75,0.08,0.08,0.95,979.12,-2.2,4.4
2.08,2.75,1.5,0.75,0.0,5.75,0.5,0.0,0.0,1.25,1.25,1.25,1.25,1.25,-0.92,-0.61,1.89,253.67,5.9,17.1,3.0,2.0,6.0,7.75,9.75,8.25,3.25,6.25,3.0,4.5,4.75,1.75,2.5,0.08,0.14,0.95,1003.99,-3.6,11.5
2.1,1.75,1.5,1.25,1.25,4.25,0.75,0.0,0.25,1.5,0.0,1.25,1.0,1.5,-1.05,-0.55,2.39,176.92,7.7,18.8,3.75,2.5,6.25,9.5,9.75,8.25,3.25,6.0,2.5,4.25,4.0,1.5,2.5,0.08,0.14,0.95,1036.63,-4.5,17.1
2.12,1.25,1.5,1.0,1.25,5.75,0.5,0.0,0.25,1.5,0.0,1.25,1.0,1.25,-1.05,-1.3,1.27,132.31,6.1,21.2,4.5,2.75,6.75,10.5,11.0,8.5,2.5,5.5,2.0,4.0,3.75,1.25,2.25,0.08,0.14,0.95,1080.8,-5.1,22.6
2.14,1.5,0.75,1.0,2.0,6.0,0.75,0.0,0.0,1.0,2.0,0.0,1.0,0.0,-0.8,-0.61,0.58,119.19,4.9,29.2,5.0,3.0,7.25,11.0,11.0,8.5,3.25,4.75,1.75,3.25,3.75,1.25,1.75,0.08,0.14,0.95,1120.22,-6.5,27.1
2.16,1.25,1.5,0.5,0.0,1.75,0.25,0.0,0.25,1.5,1.5,1.5,1.0,1.5,-0.36,-0.36,0.33,103.16,4.8,-12.0,5.75,2.5,7.5,12.0,12.0,8.5,3.25,4.25,1.75,3.0,3.0,1.25,1.5,0.02,0.14,0.95,1160.4,-7.1,30.9
2.18,1.25,1.5,1.75,1.25,4.75,0.75,0.0,0.25,1.5,2.25,1.25,1.25,1.5,-0.3,-0.3,0.33,119.47,4.9,6.8,6.5,2.75,8.25,12.5,12.5,8.5,0.0,3.75,1.25,3.0,3.0,1.25,1.5,0.02,0.14,0.95,1186.09,-7.4,33.8
2.2,1.25,1.25,1.25,1.25,5.75,0.75,0.0,0.0,1.5,2.25,1.25,1.25,1.5,-0.36,-0.3,0.52,157.21,3.7,7.5,0.0,2.75,8.5,13.0,12.5,8.5,3.0,3.0,1.0,2.75,2.75,1.0,1.5,0.02,0.14,0.95,1151.32,-5.8,30.2
2.22,1.25,1.25,1.0,1.0,5.75,0.25,0.0,0.25,0.75,0.5,1.25,0.75,1.5,-0.42,-0.3,0.89,189.64,5.0,18.9,8.0,3.25,9.0,13.5,12.5,8.25,2.25,3.0,1.0,1.5,2.75,0.75,1.25,-0.05,0.2,0.95,1173.67,-9.8,41.6
2.24,1.25,1.25,1.0,2.5,5.5,0.75,0.0,0.5,1.5,2.5,1.25,1.25,1.5,-0.42,-0.23,0.95,226.41,3.5,7.3,8.75,4.75,9.25,14.5,13.0,8.0,1.5,3.0,1.25,1.75,2.5,1.0,1.25,-0.05,0.2,1.02,1225.2,-10.1,43.1
2.26,1.25,1.25,1.0,2.5,5.75,1.0,0.0,0.5,1.5,2.25,1.25,1.0,1.5,-0.36,-0.05,1.08,254.83,3.3,10.5,9.25,4.5,9.75,15.5,13.0,7.5,0.0,2.5,0.0,0.0,2.75,0.75,1.25,-0.05,0.2,1.02,1270.35,-11.4,49.1
2.28,1.25,1.25,1.0,2.5,5.75,0.75,0.0,0.75,1.5,2.75,1.25,1.25,1.5,-0.3,0.2,1.14,278.97,3.0,6.4,9.75,5.25,10.5,14.5,13.0,0.0,0.25,2.0,1.25,0.0,2.75,0.0,1.25,0.02,0.27,1.02,1247.17,-16.0,52.5
2.3,1.25,1.25,1.0,2.5,5.75,1.0,0.0,0.0,1.5,2.5,0.5,1.0,1.75,-0.17,0.33,1.52,290.96,3.1,12.1,9.25,5.0,9.0,13.5,11.0,6.0,0.0,1.5,0.75,0.0,1.75,0.0,0.75,0.02,0.33,1.08,1187.25,-13.0,54.9
2.32,1.25,1.25,1.0,2.5,5.25,0.25,0.0,0.5,1.5,2.0,0.5,1.25,1.5,-0.11,0.52,1.64,292.82,4.5,11.1,11.0,4.5,9.75,13.0,12.5,5.5,0.0,1.5,1.0,0.0,1.5,0.0,0.75,0.14,0.39,1.14,1142.34,-13.6,56.0
2.34,1.25,1.25,1.0,2.5,5.75,0.25,0.0,0.5,1.5,2.0,1.25,1.25,1.5,-0.17,0.58,1.89,290.63,4.5,9.3,9.75,0.0,10.0,11.5,9.75,4.75,0.0,1.5,1.25,1.25,1.75,1.0,0.75,0.14,0.45,1.2,1038.53,-14.0,44.8
2.36,1.25,1.25,1.0,2.5,4.75,0.25,0.0,0.25,1.5,1.75,1.25,1.25,1.5,-0.3,0.7,2.14,282.57,5.5,8.3,9.75,4.5,9.0,9.75,8.75,3.5,0.0,1.5,0.75,0.0,2.75,0.0,0.75,0.2,0.52,1.27,954.7,-15.2,53.2
2.38,1.25,1.25,1.0,2.0,5.5,0.5,0.0,0.25,1.5,1.5,1.25,1.0,1.5,-0.42,1.08,2.39,278.69,4.7,11.9,9.75,5.0,7.25,8.25,7.25,0.0,0.0,1.5,1.25,0.0,2.75,0.5,1.0,0.52,1.02,2.08,832.16,-17.4,51.0
2.4,1.25,1.0,1.0,1.5,5.75,0.25,0.0,0.25,1.5,1.5,1.25,1.0,1.5,-0.17,1.77,2.58,271.15,4.4,9.8,8.25,3.25,3.0,5.75,5.5,0.75,0.0,1.5,1.25,0.0,2.75,0.75,0.75,0.89,1.33,3.14,661.76,-14.9,44.3
2.42,1.0,1.25,1.0,1.5,5.5,0.5,0.0,0.25,1.5,1.5,1.25,1.0,1.5,0.52,2.58,2.02,261.85,4.0,9.6,6.75,2.0,1.5,4.0,4.25,3.25,0.0,1.5,1.25,0.0,2.75,0.75,0.75,0.58,0.52,2.45,493.11,-10.5,36.2
2.44,1.25,1.0,1.0,2.25,5.5,0.5,0.0,0.5,1.5,1.75,1.25,1.25,1.5,1.2,3.14,1.27,263.1,4.3,8.2,3.0,1.0,0.0,1.25,2.75,3.25,0.0,1.5,1.0,0.0,2.75,0.25,0.75,0.77,-0.05,2.45,325.14,-3.4,18.0
2.46,1.25,0.75,1.0,2.25,5.25,1.0,0.0,0.5,1.5,2.5,1.0,1.25,1.5,1.64,3.89,-0.11,267.84,2.8,4.9,1.25,0.0,0.0,2.5,0.0,3.25,0.0,1.25,1.25,1.25,1.75,1.0,0.75,0.77,-0.48,1.83,208.36,-0.4,-10.1
2.48,0.5,0.0,1.0,0.0,5.25,0.25,0.0,0.5,1.5,1.5,1.75,1.25,1.0,2.14,4.52,-0.11,248.4,2.0,-8.2,1.25,0.0,1.25,2.25,2.75,3.25,0.0,1.5,1.5,1.0,1.5,0.75,0.75,1.27,-1.17,1.89,138.78,-2.1,7.6
2.5,0.75,0.0,0.75,0.25,2.25,0.25,0.0,0.5,1.25,0.5,1.25,0.75,0.75,1.08,1.14,-0.3,207.61,5.5,-8.8,1.25,0.0,1.75,2.0,3.0,3.25,0.0,1.5,1.5,1.0,0.25,1.0,0.75,0.77,-0.98,1.64,116.33,-2.4,13.2
2.52,1.0,1.0,0.0,2.5,1.75,1.5,0.0,0.25,1.75,2.75,0.0,3.25,2.5,-0.61,-1.11,2.02,203.37,1.0,-22.6,1.25,1.0,1.75,2.0,2.5,3.25,0.0,1.5,1.5,1.5,0.5,0.75,0.75,0.33,-0.48,0.7,126.49,-2.6,14.8
2.54,0.75,0.0,0.5,0.0,2.5,0.25,0.0,0.5,1.5,2.25,1.0,5.25,6.0,0.14,-0.23,0.77,225.35,-1.1,-62.5,1.0,0.0,0.25,1.75,1.5,3.25,0.0,1.5,1.5,0.25,1.25,0.0,0.75,0.39,-0.48,0.27,114.91,0.8,7.7
2.56,0.5,0.5,0.0,1.75,0.75,1.75,0.0,2.25,0.0,6.5,3.5,7.0,7.5,0.45,0.77,3.2,300.68,-4.1,-66.5,1.0,0.0,1.0,2.75,1.75,3.0,0.0,1.5,1.5,1.5,1.5,1.0,0.75,0.39,-0.36,0.39,129.74,-1.9,-0.3
2.58,1.25,0.0,0.0,1.25,1.75,3.25,0.0,3.0,2.75,7.75,6.25,8.5,8.5,-0.3,0.64,1.27,444.62,-2.9,-62.1,1.0,1.0,1.5,1.25,2.25,3.25,0.0,1.5,1.5,1.5,2.25,1.0,0.75,0.39,-0.42,0.89,154.22,-2.0,1.0
2.6,1.0,0.0,1.0,0.0,4.5,2.25,0.0,6.5,3.25,9.0,7.25,9.0,9.75,0.2,0.14,1.2,658.47,-3.4,-58.6,1.0,1.0,1.5,0.0,2.25,3.25,0.0,1.5,1.25,0.25,2.5,0.75,0.75,0.27,-0.3,1.02,173.05,-2.1,3.5
2.62,1.0,0.25,0.75,1.25,5.75,3.0,0.0,6.5,3.25,8.75,7.5,8.75,9.75,-0.05,0.08,1.02,844.95,-3.2,-51.5,1.0,0.75,0.25,1.25,1.75,3.25,0.75,1.5,1.25,1.25,2.5,0.75,0.75,0.27,-0.05,0.95,194.4,-0.1,-4.0
2.64,0.75,1.0,1.0,1.75,3.0,3.0,0.0,6.5,3.25,7.0,7.5,8.5,9.75,-0.17,0.02,0.95,951.42,-2.4,-53.6,1.0,0.75,1.5,0.0,2.25,3.25,0.25,1.5,1.25,1.5,2.0,0.75,1.0,0.27,0.14,0.89,213.76,-0.3,-2.9
2.66,0.5,1.0,1.0,1.25,5.75,5.0,0.25,6.5,3.5,7.5,7.5,8.5,9.5,-0.11,0.02,0.95,1023.73,-3.4,-46.2,1.25,1.0,1.5,1.25,2.25,3.25,0.25,1.5,1.25,1.75,2.5,0.75,0.75,0.27,0.33,1.08,235.1,-2.3,2.3
2.68,0.25,1.5,0.0,1.25,5.75,5.25,0.5,7.25,3.75,8.75,7.25,8.25,8.75,-0.11,0.08,0.95,1057.37,-4.5,-46.2,1.0,0.75,1.5,0.5,2.25,3.25,0.25,1.5,1.5,1.25,2.5,1.0,0.75,0.14,0.45,1.39,246.82,-1.8,-2.5
2.7,0.25,0.75,0.75,3.0,5.75,5.25,0.5,7.25,4.0,5.75,6.75,7.75,8.75,-0.11,0.02,0.95,1061.16,-3.0,-41.0,1.0,0.75,1.25,0.5,2.25,3.25,0.25,1.5,1.5,2.25,2.5,0.75,1.0,0.08,0.52,1.64,254.46,-0.1,-7.4
2.72,0.25,0.25,0.75,3.0,5.0,5.25,0.5,7.25,4.0,7.75,7.0,7.75,8.75,-0.11,0.08,0.95,1062.0,-3.5,-45.0,0.75,1.0,1.5,0.0,2.25,2.75,0.5,1.25,1.25,1.5,1.5,1.0,1.0,0.14,0.64,1.77,244.56,-1.0,-2.6
2.74,1.0,0.0,1.0,4.0,5.75,6.0,1.0,7.25,4.25,7.75,6.75,7.25,8.0,-0.11,0.02,0.95,1052.34,-2.7,-37.5,1.0,1.0,1.5,0.0,2.25,3.25,0.5,1.5,1.25,1.5,2.5,0.75,0.75,0.39,0.83,2.14,243.54,-1.2,-1.7
2.76,1.25,0.25,2.0,5.0,5.75,5.5,1.25,7.25,4.5,7.0,6.75,7.0,7.25,-0.11,0.02,0.95,1021.57,-0.9,-31.9,1.0,1.0,1.5,0.75,2.25,3.25,0.5,1.0,1.5,1.5,2.5,0.75,0.75,0.52,1.27,2.39,243.72,-2.6,1.3
2.78,1.25,0.25,2.0,5.25,6.75,6.25,1.75,7.25,4.75,7.0,6.25,6.0,7.0,-0.11,0.02,0.95,991.6,-1.1,-27.0,1.0,0.75,1.5,0.75,2.25,3.25,0.5,0.75,1.25,1.5,2.25,0.75,0.75,0.33,1.95,2.52,245.16,-2.4,2.1
2.8,2.25,1.5,3.0,6.5,7.75,6.75,2.5,7.0,4.75,6.5,5.5,5.5,6.0,-0.11,0.08,0.95,994.65,0.7,-14.6,1.0,0.5,1.5,0.75,2.25,3.25,0.5,1.5,1.25,1.5,2.0,0.75,0.75,-0.17,2.64,1.95,242.16,-1.3,0.0
2.82,2.5,1.5,3.75,7.0,7.75,7.0,3.0,6.75,4.75,5.75,5.25,4.5,5.25,-0.11,0.08,0.95,998.73,1.7,-8.7,1.0,0.75,1.25,0.25,2.25,3.25,0.25,1.5,1.25,1.25,1.5,1.0,0.75,-0.55,3.33,0.64,237.0,-0.3,0.3
2.84,3.0,1.75,5.25,8.25,7.75,7.25,3.5,6.5,4.75,5.0,4.75,4.0,4.25,-0.11,0.08,0.95,1026.24,3.6,-0.5,1.0,0.75,1.25,0.0,2.25,3.25,0.0,1.5,1.25,1.25,2.0,0.75,0.75,-1.42,4.2,-0.3,232.55,0.0,-1.4
2.86,3.0,1.75,5.25,9.5,9.25,7.25,3.75,6.5,4.75,5.0,4.0,3.0,3.75,-0.11,0.08,0.95,1063.23,3.7,5.4,1.25,0.75,1.5,1.0,2.25,3.25,0.0,1.5,1.25,2.5,2.25,0.75,0.75,-2.42,4.64,0.08,238.38,-0.9,-1.8
2.88,3.5,1.75,6.25,8.75,9.75,6.75,4.25,5.5,4.0,4.5,3.75,2.5,2.75,-0.11,0.08,0.95,1076.87,5.2,11.6,0.75,0.75,1.25,0.0,1.75,3.25,0.0,1.75,1.0,2.75,2.0,1.25,1.0,-0.17,0.45,1.14,238.6,2.0,-15.5
2.9,4.5,2.0,6.75,13.0,11.0,7.5,4.75,5.5,4.0,3.25,2.0,2.5,2.25,-0.11,0.08,0.95,1120.87,6.7,22.3,1.0,0.0,1.5,1.25,2.25,3.0,0.0,1.5,1.25,3.5,2.75,2.75,3.5,0.77,-0.86,1.89,265.07,0.8,-31.4
2.92,4.75,1.75,8.0,13.5,12.0,7.5,5.0,4.75,3.5,2.75,2.5,2.5,2.0,-0.05,0.08,0.95,1176.05,7.8,25.4,1.0,0.0,1.25,0.5,2.25,0.0,0.0,1.75,1.25,6.0,3.25,5.5,6.5,-0.17,0.08,0.77,316.52,1.1,-60.8
2.94,5.75,2.25,8.25,14.5,14.0,7.25,5.0,4.25,3.25,1.5,2.25,2.25,2.75,-0.05,0.08,0.95,1261.16,8.4,30.0,0.0,0.0,1.5,0.0,2.25,1.25,0.0,3.75,1.75,8.25,6.25,6.5,7.75,-0.55,0.95,3.89,427.93,3.4,-65.8
2.96,5.75,1.75,8.75,14.0,12.0,7.0,5.0,2.5,2.5,1.25,0.5,1.0,1.0,-0.11,0.14,0.95,1236.08,10.5,41.4,1.0,0.75,0.75,0.0,1.75,5.25,0.25,6.25,0.25,9.75,8.5,7.75,9.5,0.14,0.64,1.45,610.3,5.3,-58.8
2.98,6.25,3.25,8.5,16.0,14.0,7.25,5.5,2.5,2.25,2.0,0.5,1.75,1.75,-0.05,0.14,1.02,1274.98,9.7,39.6,1.25,1.0,0.25,1.25,0.25,5.5,0.0,7.25,2.25,9.25,8.5,8.0,9.5,-0.05,0.2,1.08,786.72,4.5,-58.1
3.0,6.75,3.25,9.25,16.5,14.5,7.5,4.25,2.5,1.75,2.75,1.25,1.75,2.0,-0.11,0.14,1.02,1309.45,9.5,38.2,0.0,1.0,1.5,1.25,1.25,6.0,0.0,7.25,2.25,9.25,8.5,7.5,8.75,0.14,0.08,0.95,916.76,4.5,-54.2
3.02,8.0,3.25,11.0,16.5,13.5,7.25,4.5,2.25,2.0,2.75,0.0,1.75,1.75,-0.11,0.14,1.02,1351.88,11.1,41.8,0.25,0.0,1.75,1.25,2.25,6.0,0.75,7.25,2.5,9.0,8.25,6.5,8.75,0.14,0.08,0.89,981.02,4.4,-51.8
3.04,8.75,3.75,10.5,17.5,14.0,6.0,4.25,2.25,1.75,2.75,1.25,1.5,1.75,-0.11,0.14,1.02,1388.03,11.6,41.9,1.25,1.5,1.75,2.25,3.0,6.5,1.0,7.25,2.5,9.0,7.75,6.5,8.5,0.14,0.08,0.95,1021.4,3.0,-40.6
3.06,10.0,4.75,12.0,17.5,16.0,5.75,4.5,0.5,1.75,2.75,1.5,1.5,2.0,-0.11,0.2,1.02,1450.79,12.7,45.1,0.0,1.0,2.0,2.0,3.5,6.5,0.75,7.5,2.5,8.75,7.75,6.5,8.25,0.08,0.08,0.95,1028.41,3.9,-43.4
3.08,11.0,4.75,11.5,17.5,13.5,5.25,3.25,1.0,1.75,2.75,0.5,1.0,1.5,-0.11,0.2,1.08,1461.18,13.5,48.6,0.0,0.75,1.5,2.5,4.25,6.5,2.0,7.25,2.5,8.75,7.75,6.25,8.25,0.08,0.08,0.95,1030.0,3.8,-41.6
3.1,11.5,5.0,12.5,17.5,15.0,3.5,1.5,1.75,1.5,0.5,1.25,1.25,1.75,-0.17,0.27,1.14,1465.62,14.6,50.7,1.25,0.75,1.5,2.75,5.0,6.75,2.0,7.25,2.75,8.25,7.25,6.0,7.75,0.08,0.08,0.95,1016.69,2.9,-35.2
3.12,10.5,4.5,12.5,13.0,12.5,1.75,0.0,0.25,1.5,1.5,0.25,0.25,1.25,-0.23,0.33,1.27,1368.12,16.4,55.6,0.0,1.0,1.75,3.25,5.25,7.25,2.0,7.25,2.75,7.75,6.75,5.25,7.25,0.08,0.08,0.95,982.78,3.5,-32.6
3.14,10.5,3.5,11.0,12.5,9.75,0.5,0.0,0.25,1.5,0.25,0.25,0.25,0.75,-0.3,0.45,1.52,1186.41,18.9,59.9,0.0,1.25,2.25,3.5,5.5,7.25,2.5,7.25,3.0,7.5,6.5,4.25,6.5,0.14,0.08,0.95,926.45,2.8,-27.3
3.16,10.0,3.25,10.0,8.5,9.5,0.25,0.0,1.5,1.5,1.0,1.25,0.75,1.5,-0.55,0.7,1.64,980.99,16.8,48.4,1.25,1.5,3.0,3.75,6.5,7.5,2.25,7.25,3.0,7.25,6.25,4.0,6.0,0.08,0.14,0.95,897.31,1.5,-19.6
3.18,10.0,4.5,8.0,7.0,8.0,0.25,0.0,1.5,1.75,1.5,1.25,0.5,1.5,-0.73,1.08,2.52,821.63,16.1,47.8,1.25,1.75,4.0,5.25,7.25,7.75,2.75,7.25,3.25,6.75,6.25,3.0,5.5,0.08,0.14,0.95,899.65,0.1,-11.7
3.2,7.5,3.25,5.25,5.5,7.25,0.25,0.0,1.5,1.5,1.25,1.25,1.0,1.5,-0.86,0.7,2.89,660.9,14.0,40.8,2.75,2.0,4.25,5.75,7.75,7.75,2.75,7.25,3.25,6.25,5.5,2.75,4.25,0.08,0.14,0.95,923.13,-1.1,-3.6
3.22,5.75,1.75,3.0,4.5,6.0,0.25,0.0,1.5,1.5,0.0,1.25,1.0,1.5,-0.67,0.64,2.77,484.71,12.9,36.6,3.75,2.0,4.5,6.0,8.5,8.0,3.25,7.0,3.25,5.5,4.75,2.75,3.75,0.08,0.14,0.95,962.65,-2.1,2.2
3.24,2.25,0.0,1.75,0.0,5.75,0.0,0.0,0.0,0.75,0.0,1.25,1.25,1.0,-1.05,-0.67,2.45,300.39,9.4,20.4,3.75,2.0,5.25,7.5,8.75,8.0,3.0,6.5,3.25,4.75,4.75,2.0,2.75,0.08,0.14,0.95,992.65,-3.4,9.0
3.26,1.25,0.25,2.25,0.0,5.75,0.0,0.0,0.25,0.75,0.0,1.25,0.75,1.5,-0.98,0.08,2.27,187.85,7.6,17.2,3.5,2.5,6.0,9.25,9.75,8.25,2.5,6.25,2.75,4.25,4.0,1.5,2.5,0.08,0.14,0.95,1023.82,-4.0,15.9
3.28,1.25,0.5,0.5,0.5,2.25,0.25,0.0,0.0,0.75,0.0,0.0,0.75,0.25,-1.42,-1.42,1.33,55.85,10.1,32.2,5.0,2.5,6.25,9.5,9.75,8.25,3.0,5.5,2.5,4.0,3.75,1.25,2.25,0.08,0.14,0.95,1048.22,-5.3,20.7
3.3,1.25,1.5,0.75,2.5,2.5,0.0,0.0,0.0,0.75,0.25,0.0,0.75,0.0,-0.86,-0.48,0.58,0.0,12.7,45.7,5.25,2.75,7.25,11.0,11.0,8.5,3.0,5.25,2.0,3.5,3.5,1.25,2.0,0.02,0.14,0.95,1099.91,-6.2,25.8
3.32,1.0,0.0,0.5,1.0,3.0,0.0,0.0,0.0,1.0,2.0,0.0,1.0,0.0,-0.42,-0.42,0.27,0.0,4.8,7.1,7.0,3.25,7.5,11.0,11.0,8.5,3.75,4.25,1.75,3.25,3.25,1.25,1.75,0.02,0.14,0.95,1149.37,-7.6,30.7
3.34,1.25,1.5,2.0,1.25,5.75,0.25,0.0,0.25,1.0,2.75,1.25,0.75,1.5,-0.3,-0.3,0.33,47.71,4.7,11.4,0.0,3.25,8.25,12.5,11.5,8.25,3.25,4.0,1.75,2.75,2.75,1.25,1.5,0.02,0.14,0.95,1141.09,-5.6,27.5
3.36,1.25,1.25,2.0,1.25,5.75,0.25,0.0,0.5,1.0,2.5,1.25,1.0,1.5,-0.3,-0.3,0.52,119.97,4.7,9.3,7.0,3.0,8.25,12.5,12.5,8.25,3.25,3.25,1.5,2.75,2.5,1.0,1.5,0.02,0.2,0.95,1173.89,-8.5,36.3
3.38,1.25,1.25,1.75,1.25,5.75,1.0,0.0,0.25,1.0,2.75,1.25,0.75,1.5,-0.36,-0.3,0.77,184.01,3.3,10.5,8.5,3.75,9.0,13.0,12.5,8.0,0.0,3.0,1.5,2.5,2.75,1.0,1.5,-0.05,0.2,0.95,1204.43,-9.2,39.2
3.4,1.25,1.25,1.75,1.25,5.75,1.0,0.0,0.25,1.25,2.25,1.25,1.0,1.5,-0.42,-0.23,0.95,220.6,3.9,10.5,9.0,4.0,8.75,14.5,12.0,7.75,2.0,3.0,1.5,1.5,2.75,1.0,1.25,-0.05,0.2,1.02,1249.63,-10.5,42.1
3.42,1.25,0.75,1.25,0.25,5.75,1.0,0.0,0.25,1.5,2.25,1.25,1.0,1.5,-0.42,-0.05,1.02,240.84,2.1,3.4,9.25,4.25,0.0,14.5,11.5,7.25,0.0,2.5,1.25,0.0,2.5,0.0,1.25,-0.05,0.27,1.02,1162.39,-7.1,47.2
3.44,1.25,1.25,1.5,1.0,4.5,1.75,0.0,0.25,1.25,2.0,1.25,1.5,1.75,-0.36,0.14,1.08,258.74,3.0,3.5,10.5,5.25,9.75,14.5,12.0,6.5,0.0,2.25,1.0,0.0,2.0,0.25,1.25,0.02,0.27,1.02,1179.73,-12.6,52.0
3.46,1.25,1.25,1.25,1.0,5.75,1.0,0.0,0.25,1.25,2.25,1.5,1.5,1.5,-0.36,0.33,1.39,275.2,3.1,4.8,9.75,4.25,9.75,12.0,11.0,3.75,0.0,1.5,1.25,0.0,0.0,0.25,0.75,0.02,0.33,1.08,1087.71,-14.8,57.8
3.48,1.25,1.25,1.0,1.0,5.75,1.0,0.0,0.25,1.25,1.5,1.25,1.25,1.5,-0.3,0.52,1.58,284.8,3.2,9.7,10.5,4.75,9.25,13.0,10.5,3.75,0.0,1.25,0.0,0.0,1.75,0.0,0.75,0.08,0.39,1.14,1048.4,-15.1,58.0
3.5,1.25,1.25,1.0,1.25,5.75,1.0,0.0,0.25,1.5,1.25,1.5,1.0,1.5,-0.3,0.64,1.83,284.36,3.7,11.3,9.75,4.75,9.0,11.5,9.75,3.75,0.0,1.5,1.0,0.5,2.75,0.25,0.75,0.14,0.45,1.2,988.24,-14.4,51.3
3.52,1.25,1.0,1.0,0.75,5.75,0.75,0.0,0.25,1.5,1.5,1.25,1.0,1.5,-0.42,0.83,2.08,279.2,3.2,8.4,11.0,5.75,8.25,11.0,8.5,2.0,0.0,1.75,1.25,0.0,2.5,0.75,0.5,0.2,0.52,1.27,951.56,-16.3,53.6
3.54,1.25,1.25,1.0,1.0,5.25,0.75,0.0,0.0,1.5,1.25,1.25,1.0,1.5,-0.67,1.27,2.64,266.72,4.3,10.8,9.75,5.0,5.5,7.75,5.5,1.5,0.0,1.5,1.25,1.25,2.75,0.5,0.75,0.7,1.2,2.33,823.36,-15.5,47.2
3.56,1.25,1.0,1.0,1.0,5.25,0.5,0.0,0.25,1.5,1.5,1.0,1.0,1.5,-0.55,1.83,2.45,254.59,3.9,8.4,8.75,3.25,1.75,4.0,3.5,3.25,0.0,1.5,1.25,0.0,1.5,0.0,0.5,0.89,1.39,3.2,630.31,-13.0,52.2
3.58,1.25,1.0,1.0,1.0,5.5,0.5,0.0,0.25,1.5,1.5,1.25,1.0,1.75,0.33,2.64,2.2,246.27,3.6,6.4,6.75,1.0,0.0,2.75,1.5,3.25,0.0,1.25,1.0,0.0,2.75,1.0,0.75,0.39,0.45,2.7,424.79,-10.3,27.7
3.6,0.25,0.5,0.75,1.25,1.25,0.5,0.0,0.0,1.5,1.5,1.25,1.0,0.25,1.14,3.08,1.45,211.65,6.2,-10.6,3.0,0.0,1.25,1.25,2.75,0.75,0.0,1.5,0.75,1.5,2.75,1.0,0.75,0.83,0.02,2.83,273.83,-7.4,1.6
3.62,1.25,1.0,1.0,1.0,5.5,0.25,0.0,0.5,1.5,2.0,1.25,1.0,1.5,2.02,3.77,0.2,217.02,3.4,4.8,0.5,0.0,0.0,1.25,1.0,0.5,0.0,0.0,1.25,1.0,0.25,1.0,0.0,0.64,-0.36,1.83,138.6,-5.0,-7.4
3.64,1.25,1.0,1.0,1.25,5.75,0.5,0.0,0.5,1.5,1.75,1.0,1.25,1.5,2.83,5.14,0.33,224.78,3.4,7.2,1.25,0.0,1.75,2.0,2.75,3.25,0.0,1.5,1.25,1.25,0.0,1.0,0.75,1.45,-1.3,1.7,90.64,-1.9,13.2
3.66,0.75,0.0,0.75,1.25,3.75,0.5,0.0,0.25,1.0,0.0,0.0,0.75,0.25,1.58,3.08,-0.05,206.74,6.3,28.6,1.25,1.0,0.5,1.75,2.5,1.5,0.0,1.5,1.0,0.0,0.75,0.0,0.75,0.7,-1.11,1.64,61.22,-3.6,25.0
3.68,1.0,0.0,0.0,0.25,2.25,0.25,0.0,0.25,1.25,1.5,0.0,1.5,1.5,-0.61,-0.3,0.89,177.14,0.2,-24.8,1.5,0.75,0.0,1.25,1.25,1.0,0.0,1.25,1.25,1.5,0.25,1.0,0.75,0.2,-0.48,0.39,48.49,-2.2,-1.9
3.7,1.25,0.0,0.0,1.0,1.75,0.75,0.0,0.5,1.25,2.25,0.5,5.5,5.25,-0.42,0.02,1.52,200.58,-0.6,-57.2,1.0,1.0,1.0,1.25,2.25,3.25,0.0,1.5,1.25,1.5,0.75,0.75,0.75,0.33,-0.36,0.27,75.13,0.0,8.2
3.72,1.25,0.25,0.5,0.25,1.75,0.5,0.0,2.0,0.75,7.0,2.5,7.0,7.0,0.33,0.64,0.89,274.95,-3.0,-66.5,0.0,0.25,1.5,0.0,2.25,1.0,0.0,1.5,1.25,0.25,2.0,0.25,0.75,0.39,-0.36,0.45,76.71,-2.7,-8.1
3.74,0.75,0.0,0.25,1.75,1.75,3.0,0.0,5.0,3.5,9.75,6.25,9.25,8.75,-0.11,0.58,2.08,453.59,-3.5,-62.3,1.0,1.0,0.25,0.0,1.5,3.25,0.0,1.25,1.25,1.5,2.5,0.25,0.75,0.33,0.39,1.27,99.26,2.2,-6.7
3.76,1.0,0.0,1.0,1.75,1.25,0.0,0.0,6.5,3.75,9.5,8.0,9.25,10.5,0.27,0.2,1.27,681.57,-1.8,-67.5,1.0,1.0,1.5,0.0,2.25,2.0,0.0,1.5,1.25,1.25,2.25,1.0,0.75,0.27,0.52,1.58,131.12,-2.8,-4.2
3.78,1.25,0.25,0.0,1.0,3.75,3.0,0.0,7.25,3.5,8.75,7.5,8.5,10.5,-0.05,0.02,0.95,882.21,-4.1,-57.7,1.25,1.0,1.75,0.5,2.25,3.25,0.0,1.5,1.25,1.5,2.0,0.75,0.75,0.27,0.58,1.77,184.01,-2.0,3.8
3.8,0.5,1.25,1.0,2.5,3.5,4.0,0.0,6.75,3.5,9.0,7.0,8.5,9.75,-0.17,0.08,0.95,1002.47,-3.1,-49.9,1.25,0.75,0.75,1.25,1.5,3.25,0.0,0.5,1.25,1.75,0.25,1.0,0.75,0.39,0.7,2.08,205.08,-0.4,6.9
3.82,1.25,0.0,0.0,2.5,3.75,4.5,0.0,6.5,3.5,8.75,7.0,8.5,9.75,-0.11,0.02,0.95,1058.79,-3.8,-52.2,1.0,0.25,1.5,0.0,2.25,3.25,0.0,1.5,1.25,1.5,2.5,1.0,0.75,0.58,1.02,2.33,225.7,-0.4,-8.3
3.84,0.25,1.5,0.0,3.0,5.75,4.25,0.0,6.75,4.0,8.75,6.75,8.5,9.5,-0.11,0.08,0.95,1094.44,-3.7,-45.4,1.0,0.0,1.75,0.0,2.25,3.25,0.0,1.5,1.25,1.5,2.5,0.75,0.75,0.58,1.58,2.58,232.36,-0.6,-7.4
3.86,1.25,0.0,0.0,4.0,5.75,5.25,0.5,6.5,4.0,0.0,6.75,8.0,8.75,-0.11,0.02,0.95,1026.23,-1.1,-36.6,1.25,0.0,1.5,0.0,2.25,2.0,0.0,1.5,1.25,0.0,2.75,0.0,0.75,0.45,2.08,2.45,225.11,-4.2,1.5
3.88,1.5,0.0,0.0,3.75,5.75,5.25,0.5,7.25,4.25,0.0,6.75,7.75,8.75,-0.05,0.08,0.95,973.05,-1.2,-36.1,0.5,0.0,1.5,0.0,2.25,3.25,0.0,1.5,1.25,0.5,2.75,0.0,0.75,0.27,2.45,1.77,212.21,0.2,-3.1
3.9,1.5,0.0,0.75,4.5,5.75,5.0,0.25,7.25,4.5,7.75,6.75,7.25,8.25,-0.11,0.02,0.95,968.7,-2.2,-37.9,1.25,0.5,1.5,0.0,2.25,3.25,0.0,1.5,1.25,0.0,2.75,1.0,0.75,-0.3,2.64,0.58,216.69,-2.7,0.1
3.92,0.25,0.0,1.0,5.0,5.75,5.5,0.0,7.25,4.5,7.25,6.5,7.0,8.0,-0.11,0.02,0.95,957.59,-2.8,-37.8,1.0,0.25,1.5,0.0,2.25,2.0,0.0,1.5,1.25,0.5,2.5,0.5,1.0,-1.42,4.14,0.2,213.11,-2.8,-5.4
3.94,1.75,0.25,2.0,5.0,6.25,5.25,0.0,7.25,4.5,6.75,6.25,6.25,7.0,-0.11,0.02,0.95,934.69,-1.0,-29.0,0.0,0.0,0.0,0.25,0.5,2.0,0.0,1.5,1.25,0.0,1.25,0.25,0.5,-2.36,3.39,-1.05,177.44,5.7,-22.9
3.96,2.75,0.0,3.0,5.25,6.25,5.75,0.5,7.25,4.75,6.5,5.75,5.5,6.5,-0.11,0.08,0.95,915.45,0.2,-22.7,0.0,0.0,1.5,0.0,2.25,2.0,0.0,1.5,1.25,1.25,2.75,1.25,2.5,0.08,0.14,1.14,186.17,1.0,-31.6
3.98,2.75,1.5,3.0,6.25,6.5,6.25,2.5,6.5,4.75,6.5,5.5,5.25,6.25,-0.11,0.08,0.95,920.9,1.2,-15.8,0.0,0.0,0.0,0.0,1.5,1.25,0.0,0.5,1.5,5.5,2.0,4.75,4.25,0.45,0.33,0.89,220.19,4.9,-70.2
4.0,3.0,0.75,3.75,7.0,7.75,7.0,3.0,7.0,4.75,6.0,5.0,4.0,5.25,-0.05,0.08,0.95,948.67,1.6,-8.5,0.25,0.25,1.5,0.0,0.5,1.25,0.0,2.0,1.75,7.5,4.0,5.75,6.5,0.52,0.95,2.14,299.21,2.8,-68.7
4.02,3.0,1.5,5.25,8.25,8.0,7.25,3.75,6.5,4.75,5.25,4.75,4.0,5.25,-0.05,0.08,0.95,1009.15,3.3,-2.5,1.25,1.0,0.0,2.75,0.0,6.5,0.0,6.25,3.25,9.75,7.75,8.0,8.5,-0.48,0.95,2.58,505.86,4.1,-53.3
4.04,3.25,1.5,5.5,9.5,9.25,7.25,4.25,6.5,4.5,2.75,4.25,3.0,4.0,-0.11,0.08,0.95,1053.53,4.7,7.9,1.25,0.75,2.25,2.75,2.75,6.5,0.5,7.5,3.25,9.5,9.75,7.5,8.75,0.02,0.33,1.27,772.69,2.3,-44.0
4.06,4.0,1.75,6.25,11.0,9.5,7.25,4.75,5.75,4.5,4.0,3.5,2.5,2.75,-0.05,0.08,0.95,1104.05,5.9,14.3,0.0,0.75,2.75,2.75,4.75,6.5,2.0,7.25,3.0,9.0,8.75,6.5,8.5,0.02,0.14,0.95,984.2,2.5,-39.3
4.08,5.25,1.75,8.0,13.5,10.5,7.25,4.25,4.25,3.5,2.0,2.0,2.5,0.5,-0.05,0.08,0.95,1132.84,9.2,30.7,0.0,0.75,2.5,1.75,3.75,6.5,2.0,7.0,2.5,8.75,8.0,6.25,8.25,0.14,0.14,0.95,1077.24,3.2,-42.2
4.1,5.75,1.75,9.0,13.5,13.0,6.0,5.0,4.25,2.75,1.5,2.5,2.25,2.0,-0.05,0.08,0.95,1193.43,9.6,30.7,1.25,0.25,0.25,2.0,3.25,6.5,1.0,7.0,2.5,8.75,7.75,6.0,8.25,0.08,0.08,0.89,1083.25,4.6,-45.6
4.12,6.25,1.75,10.0,13.5,13.5,7.0,6.25,4.0,2.5,1.25,2.25,0.75,2.0,-0.05,0.14,0.95,1237.99,10.0,36.0,1.25,1.0,1.5,2.25,4.5,6.5,1.75,7.0,2.75,8.75,7.75,6.0,8.25,0.14,0.08,0.89,1067.93,3.0,-38.0
4.14,7.0,3.25,9.75,17.5,14.5,6.5,5.75,2.5,1.75,2.75,1.75,1.0,2.0,-0.05,0.14,1.02,1319.73,10.5,39.5,1.25,1.25,1.5,2.25,4.5,6.75,2.0,7.25,2.75,9.0,7.75,6.0,8.25,0.08,0.08,0.95,1062.53,3.1,-37.2
4.16,8.25,2.5,12.0,16.5,14.0,6.0,6.5,2.5,1.5,2.75,1.25,1.75,2.0,-0.11,0.14,1.02,1380.9,12.0,39.6,1.25,1.5,1.75,2.75,5.0,6.5,2.0,7.25,2.75,8.75,7.75,6.0,8.25,0.08,0.08,0.95,1073.74,2.5,-34.6
4.18,8.25,3.5,12.5,16.0,14.0,0.0,5.5,1.5,1.75,1.75,1.25,1.75,1.5,-0.05,0.14,1.02,1382.11,15.9,44.7,1.25,1.75,1.75,2.75,5.25,6.75,2.0,7.25,2.75,8.5,7.75,6.0,8.0,0.08,0.08,0.95,1067.98,2.5,-32.9
4.2,10.0,4.25,12.5,16.0,10.5,3.0,6.25,2.25,1.75,2.5,1.0,1.0,1.75,-0.05,0.2,1.02,1374.35,15.2,44.8,1.25,1.75,1.75,3.0,5.25,7.0,2.0,7.0,2.75,8.25,7.25,5.25,7.75,0.08,0.08,0.95,1020.83,2.5,-30.4
4.22,11.0,4.5,14.0,18.5,14.0,2.5,5.75,1.75,2.0,2.75,1.25,1.25,1.5,-0.11,0.2,1.08,1412.63,15.3,46.4,1.25,1.75,1.75,3.25,5.5,7.25,2.0,7.0,2.75,8.25,6.5,5.25,7.25,0.08,0.08,0.95,962.79,2.6,-28.1
4.24,12.0,4.75,14.5,0.0,14.5,2.0,5.0,0.25,1.75,1.5,1.25,1.5,1.75,-0.17,0.27,1.2,1327.11,16.6,47.8,1.25,1.5,2.75,3.5,5.5,7.25,2.25,7.0,3.0,8.0,6.75,5.25,6.75,0.08,0.14,0.95,913.28,1.5,-26.0
4.26,12.5,4.75,14.0,16.0,13.5,0.75,3.75,0.5,1.75,1.25,1.25,1.0,1.75,-0.3,0.39,1.33,1335.58,17.5,51.9,1.25,1.75,4.25,3.75,6.75,7.5,2.5,7.0,3.25,7.5,7.25,5.0,6.5,0.08,0.14,0.95,907.1,0.2,-20.2
4.28,13.5,4.75,14.0,14.5,10.5,0.75,2.0,0.25,1.75,1.5,1.25,1.0,1.5,-0.42,0.52,1.52,1296.31,18.8,53.0,1.5,1.75,4.0,4.0,7.25,7.5,2.75,7.0,3.25,7.5,6.75,4.25,6.25,0.08,0.14,0.95,929.16,0.3,-17.2
4.3,12.0,4.75,12.0,10.5,8.75,0.25,1.25,1.75,1.75,1.5,1.25,1.25,1.5,-0.61,0.7,2.08,1206.41,17.9,48.7,2.25,1.75,4.25,5.0,7.25,7.75,3.0,7.0,3.75,7.0,6.5,4.0,5.75,0.08,0.14,0.95,973.51,-0.7,-12.5
4.32,11.0,4.75,9.75,7.0,7.75,0.5,0.5,1.5,1.5,1.5,1.25,1.5,1.75,-0.61,0.95,2.27,1029.37,16.9,45.8,2.25,2.0,4.25,5.75,8.0,7.75,3.0,6.75,3.5,6.25,6.5,3.0,4.75,0.08,0.08,0.95,997.99,-1.2,-6.2
4.34,8.5,2.5,6.75,5.0,6.75,0.0,0.0,1.5,1.5,0.0,1.25,0.75,1.75,-0.98,0.83,2.83,795.36,16.8,45.3,2.75,2.0,4.5,5.75,8.5,7.75,3.25,6.25,3.25,6.0,4.75,3.0,4.25,0.08,0.14,0.95,999.88,-1.6,-1.1
4.36,5.75,2.0,4.75,2.75,6.25,0.25,0.0,1.5,1.5,0.75,1.25,0.75,1.75,-0.48,0.58,3.02,561.5,13.1,34.7,3.75,2.0,6.0,6.0,8.5,8.0,3.75,6.25,3.25,5.25,4.75,2.5,3.25,0.02,0.14,0.95,999.89,-3.5,5.9
4.38,3.75,0.25,1.5,0.0,5.5,0.0,0.0,0.0,1.25,1.0,1.25,1.0,1.25,-1.05,-0.61,2.33,337.32,9.6,19.4,3.75,2.0,6.0,7.5,9.5,8.0,3.75,5.75,3.25,4.5,3.5,1.5,2.5,0.02,0.14,0.95,998.93,-4.2,14.5
4.4,2.25,1.5,2.25,1.0,5.75,1.0,0.0,0.0,1.5,1.75,1.0,1.5,1.5,-1.23,-0.17,2.52,245.74,6.8,16.1,4.0,2.0,6.25,7.75,9.75,8.0,4.0,5.5,3.25,4.25,2.75,1.5,2.5,0.02,0.14,0.95,1002.36,-4.6,17.1
4.42,1.5,1.5,2.0,2.25,5.75,0.0,0.0,0.0,1.5,1.75,1.25,1.25,1.5,-1.48,-1.8,1.64,185.5,7.5,15.1,4.5,2.0,7.25,9.25,9.75,8.0,4.0,4.75,2.75,3.5,3.0,1.5,1.75,0.02,0.14,0.95,1011.97,-6.4,23.0
4.44,1.0,0.0,0.0,1.25,2.5,0.0,0.0,0.0,1.5,2.5,1.0,1.25,1.5,-1.11,-0.55,1.08,118.95,1.9,-23.5,5.75,2.5,7.5,9.75,11.0,8.0,4.5,4.25,2.5,3.25,2.75,1.25,1.75,0.02,0.14,0.95,1046.8,-7.3,28.1
4.46,1.0,0.25,1.5,0.0,2.5,0.25,0.0,0.0,0.75,0.5,0.0,0.75,0.25,-0.48,-0.36,0.14,49.02,10.4,24.3,5.75,2.75,8.25,11.0,11.0,8.0,4.5,3.75,2.0,3.0,2.75,1.25,1.5,0.02,0.14,0.95,1082.62,-8.2,31.3
4.48,1.0,0.0,1.75,0.0,2.25,0.25,0.0,0.0,0.75,0.5,0.0,0.75,0.5,-0.3,-0.23,0.08,7.29,10.9,17.8,6.5,2.5,9.0,11.0,11.5,8.0,4.5,3.0,2.0,2.75,2.5,1.25,1.5,-0.05,0.14,0.95,1117.76,-9.1,33.9
4.5,1.25,1.25,2.0,1.0,5.75,0.5,0.0,0.5,1.5,2.75,1.25,1.0,1.75,-0.17,-0.36,0.58,44.37,3.9,5.4,6.5,2.75,9.0,11.0,12.5,8.0,4.5,3.0,1.75,2.75,2.5,1.25,1.0,-0.05,0.14,0.95,1146.45,-9.1,35.9
4.52,1.0,0.0,1.75,0.0,5.25,0.0,0.0,0.25,0.75,0.75,0.25,0.5,0.5,-0.23,-0.3,0.95,67.96,6.3,25.5,7.0,1.5,9.0,13.0,12.5,8.5,3.75,2.75,1.75,2.25,2.0,0.25,1.0,-0.05,0.2,1.02,1163.98,-9.3,40.0
4.54,1.25,0.75,0.75,2.5,5.75,0.25,0.0,0.5,1.0,2.5,0.0,1.0,1.5,-0.42,-0.05,0.95,142.89,2.6,12.1,7.0,2.25,9.0,13.0,13.0,8.5,2.0,2.75,1.5,2.75,0.5,1.0,1.0,-0.05,0.2,1.14,1172.03,-8.7,41.3
4.56,1.25,1.0,1.75,2.5,5.75,1.0,0.0,0.25,1.5,2.5,1.25,1.25,1.75,-0.42,0.33,0.89,204.04,4.3,8.1,6.5,3.25,9.0,13.0,14.0,0.0,0.0,1.75,1.25,0.0,2.5,1.0,1.0,0.02,0.27,1.2,1102.46,-14.2,46.9
4.58,1.25,0.75,1.75,2.0,5.75,0.25,0.0,0.25,1.5,2.0,1.25,1.0,1.75,-0.36,0.45,1.02,249.35,5.2,8.2,7.0,1.25,8.25,12.5,14.0,7.75,0.0,2.0,1.25,0.0,2.25,1.0,0.75,0.2,0.27,1.39,1069.0,-9.6,44.5
4.6,1.25,1.0,1.75,2.0,5.5,0.25,0.0,0.25,1.5,2.75,1.25,1.0,1.5,-0.17,0.52,1.2,272.41,4.9,7.2,7.0,2.0,7.25,9.25,11.0,5.75,0.0,1.5,1.75,0.0,2.75,1.0,1.0,0.52,0.45,1.95,966.06,-10.8,42.0
4.62,1.25,1.0,1.5,2.5,5.75,0.25,0.0,0.25,1.5,2.5,1.25,1.0,1.5,-0.05,0.64,1.45,289.88,4.9,9.4,6.25,2.0,4.5,6.5,8.25,5.5,0.0,1.5,1.75,0.0,2.75,0.0,0.75,0.77,0.77,2.89,816.29,-9.5,42.4
4.64,1.25,0.75,1.0,2.0,5.75,0.5,0.0,0.0,1.5,0.25,1.25,1.0,1.75,-0.17,0.7,1.64,283.29,5.8,15.2,5.5,1.75,0.0,5.75,5.5,5.25,0.0,1.25,1.5,0.0,2.75,0.25,0.5,0.58,1.08,2.7,612.66,-6.3,37.7
4.66,1.25,0.75,1.0,2.25,5.5,0.5,0.0,0.25,1.5,2.0,1.25,1.0,1.5,-0.3,0.83,1.7,282.41,4.1,8.0,2.0,1.0,0.0,2.75,3.5,4.5,0.0,0.0,1.25,0.0,1.5,1.0,0.5,0.58,0.39,2.64,392.91,-2.7,26.8
4.68,1.25,1.0,1.25,2.0,5.75,0.25,0.0,0.25,0.75,0.5,1.25,0.75,0.5,-0.3,0.95,1.77,274.53,7.3,28.8,1.25,0.75,1.25,3.25,4.75,1.25,0.0,1.5,1.5,0.0,2.75,0.75,0.75,-0.42,-0.86,2.39,272.71,-6.3,15.5
4.7,0.75,1.0,0.5,0.0,1.25,0.5,0.0,0.0,0.75,0.25,0.0,0.5,0.5,-0.11,1.2,1.7,220.76,7.1,22.2,1.25,1.75,1.25,1.0,2.5,0.5,0.0,1.5,1.25,1.5,2.75,0.0,0.75,0.2,-0.92,2.33,183.57,-5.8,6.0
4.72,0.75,0.0,0.5,0.0,2.25,0.0,0.0,0.0,1.0,0.25,0.0,0.75,0.0,1.2,2.58,0.45,157.08,8.6,17.3,1.25,1.75,0.0,2.25,1.75,3.25,0.0,1.5,1.5,1.0,2.5,0.75,0.75,0.2,-0.55,1.08,145.22,-1.4,5.5
4.74,0.5,0.0,0.5,0.0,2.25,0.25,0.0,0.0,0.75,0.0,0.0,0.75,0.0,0.77,2.64,1.14,94.0,7.1,21.4,1.25,1.75,1.5,1.75,2.25,3.25,0.0,1.5,1.5,1.5,2.0,1.0,1.0,0.39,-0.36,0.95,138.65,-2.9,6.8
4.76,1.25,0.0,0.5,0.0,2.25,0.25,0.0,0.0,0.75,0.25,0.25,0.75,1.5,1.33,2.52,0.52,77.65,4.9,-3.0,0.0,0.25,1.75,1.25,1.25,0.5,0.0,1.5,1.25,0.0,0.25,0.0,0.75,0.77,-0.3,0.45,99.21,-6.7,10.6
4.78,0.75,0.25,0.5,0.0,1.75,0.0,0.0,0.25,0.75,2.25,0.0,1.25,0.5,1.45,2.45,0.14,67.74,1.6,-19.7,0.0,0.25,0.25,1.25,1.5,1.0,0.0,1.25,1.25,1.5,0.25,1.25,0.5,0.89,-0.11,0.14,70.1,1.3,-17.0
4.8,0.75,0.0,0.5,0.0,4.5,0.0,0.0,0.25,0.75,1.25,0.75,0.75,1.5,1.33,2.89,-0.3,94.66,0.4,-5.1,0.0,0.25,1.0,1.25,1.5,1.0,0.0,1.25,1.25,0.5,0.25,0.0,0.5,0.83,0.08,0.02,43.85,-2.1,8.9
4.82,0.5,0.0,0.5,0.0,2.5,0.75,0.0,3.5,1.0,6.5,0.0,4.75,4.75,-3.8,0.64,5.08,187.03,-6.4,-58.1,0.0,1.0,1.25,1.25,1.75,3.0,0.0,1.25,1.5,1.5,0.0,1.0,0.5,0.45,0.39,0.14,66.8,0.8,5.3
4.84,0.25,0.0,0.5,0.25,1.75,0.0,0.0,6.0,2.0,6.5,4.5,6.25,7.0,1.08,0.95,1.77,300.67,-4.2,-68.7,1.25,1.0,1.75,1.25,2.5,3.25,0.0,1.5,1.5,1.75,0.25,0.75,0.75,-0.11,0.89,0.14,124.18,-1.6,12.8
4.86,1.25,1.25,0.5,2.5,2.25,3.0,0.0,6.25,2.25,6.25,2.5,5.75,6.25,-0.11,-0.23,0.89,435.53,-3.4,-41.1,1.25,0.0,1.5,1.25,2.25,3.25,0.0,1.5,1.5,1.5,0.25,0.75,0.75,-0.73,1.45,-0.36,175.85,-0.7,7.1
4.88,2.0,0.0,0.0,3.25,0.0,4.5,0.0,6.25,2.5,5.25,4.0,4.25,6.0,-0.11,-0.05,0.95,542.06,-3.5,-43.5,1.25,1.0,1.75,1.25,2.25,3.25,0.25,1.5,1.5,2.0,0.25,1.0,0.75,-0.92,1.64,-0.86,217.25,-1.8,9.4
4.9,3.0,0.0,0.25,4.75,0.0,6.0,0.0,6.5,3.25,5.75,3.75,4.0,5.25,-0.05,0.27,0.89,618.19,-2.2,-31.8,1.25,0.0,1.75,1.25,2.25,3.0,0.0,1.5,1.5,1.75,0.5,1.0,0.75,-1.05,1.27,-0.61,232.65,-1.6,3.4
4.92,4.75,0.0,3.0,5.25,0.0,7.0,0.5,6.75,3.5,5.25,2.5,2.5,4.75,-0.11,0.14,1.02,679.26,1.1,-13.5,1.0,0.0,1.75,1.25,2.25,3.25,0.5,1.5,1.5,1.5,0.25,1.0,1.0,-1.11,0.83,-0.36,236.56,-1.1,3.4
4.94,6.0,0.25,4.5,6.5,6.5,7.25,0.75,6.75,3.25,4.25,1.75,2.5,3.75,-0.05,0.08,1.02,797.06,3.1,6.7,1.0,1.0,1.75,1.25,2.25,1.0,0.25,1.5,1.5,1.5,0.25,0.25,0.75,-0.92,0.64,-0.3,229.91,-5.1,13.4
4.96,8.25,0.5,5.25,8.0,8.0,7.5,1.75,6.0,2.25,3.25,0.75,1.75,2.0,-0.05,0.14,1.02,907.78,6.0,24.3,1.25,0.25,1.5,1.25,2.25,1.0,0.25,1.5,1.5,1.5,0.0,1.0,0.75,-0.92,0.89,-0.17,222.02,-4.7,4.3
4.98,9.75,2.0,6.75,10.5,9.0,7.5,1.75,5.0,1.75,2.75,1.25,1.75,2.0,-0.17,0.14,1.08,1055.83,8.4,32.3,1.0,0.25,1.75,1.25,2.25,3.25,0.5,1.5,1.25,1.5,0.5,0.75,1.0,-3.8,1.7,0.95,226.19,-1.2,6.1
5.0,10.0,3.0,7.5,11.0,9.5,6.5,0.0,4.25,0.5,2.25,1.25,0.5,2.0,-0.17,0.2,1.45,1135.5,9.5,40.7,1.25,0.5,1.75,1.25,2.25,3.25,0.25,1.5,1.25,1.5,0.75,1.0,0.75,-3.98,1.27,1.14,238.55,-2.0,7.5
5.02,10.5,2.0,0.25,8.5,0.0,1.0,0.0,1.75,0.75,2.0,0.0,0.75,1.25,-0.11,0.2,1.58,926.95,15.7,44.0,1.25,1.0,1.5,1.25,2.25,3.25,0.25,1.5,1.25,1.5,1.5,0.75,0.75,-1.73,0.33,1.39,246.86,-2.1,7.6
5.04,11.0,3.25,4.75,6.5,0.0,2.0,0.0,2.25,1.0,1.5,0.25,0.0,1.5,-0.17,0.2,1.58,744.12,17.6,49.4,1.25,1.0,1.75,1.25,2.25,3.25,0.5,1.5,1.5,1.5,0.75,1.0,0.75,-1.3,0.45,0.89,252.74,-2.7,9.6
5.06,11.0,4.5,0.0,1.25,0.0,1.0,0.0,1.25,0.75,1.25,0.5,0.25,0.5,-0.17,0.39,1.58,500.06,17.9,59.1,1.0,1.0,1.5,1.25,2.25,2.75,0.5,1.5,1.25,1.5,0.5,0.75,0.75,-0.73,-0.23,-0.17,247.51,-2.1,10.6
5.08,11.0,4.75,2.0,3.75,0.0,0.25,0.0,0.25,0.75,0.0,0.0,0.75,0.25,-0.05,0.45,1.77,383.2,24.3,72.8,1.0,1.0,1.75,1.25,2.25,3.25,0.5,1.5,1.25,1.5,0.25,0.75,0.75,-0.61,0.14,-0.55,244.15,-1.8,13.2
5.1,10.0,4.75,1.0,0.75,0.0,0.25,0.0,0.25,0.75,0.0,0.0,0.75,0.25,-0.05,0.33,1.64,293.15,24.2,74.7,1.0,1.0,1.5,1.25,2.25,2.75,0.5,1.5,1.5,1.25,0.75,0.25,0.75,-0.42,0.39,-0.73,239.72,-2.4,13.6
5.12,9.0,3.5,0.0,1.0,0.0,0.25,0.0,0.25,0.75,0.0,0.0,0.75,0.5,0.2,0.27,1.39,248.38,22.9,68.9,1.0,1.0,1.75,1.25,2.75,3.25,0.75,1.5,1.25,1.5,0.75,0.75,1.0,0.02,-0.17,-0.3,244.83,-1.8,10.5
5.14,7.75,3.25,0.0,0.0,1.25,0.0,0.0,0.0,0.75,0.0,0.0,0.75,0.25,0.33,0.45,0.64,188.56,21.9,71.0,1.25,1.0,1.5,1.25,2.25,3.25,0.5,1.5,1.25,1.25,0.75,0.75,0.75,-0.61,-0.23,0.02,246.5,-2.2,12.5
5.16,6.75,3.0,0.0,0.0,0.0,0.0,0.0,0.25,1.0,0.0,0.0,0.25,0.75,-0.3,0.39,-0.73,133.46,22.2,65.4,0.0,0.0,1.75,1.0,0.25,2.5,0.0,1.25,1.25,0.75,0.25,0.0,0.5,-1.17,-0.17,0.08,216.46,-1.0,4.1
5.18,6.0,2.75,0.0,0.25,1.75,0.0,0.0,0.25,0.75,0.0,0.0,0.0,0.5,3.95,0.14,-3.36,99.34,18.5,70.1,0.0,0.0,1.5,1.0,0.25,1.25,0.0,0.5,1.25,0.0,0.0,0.0,0.5,-1.61,-0.17,0.33,169.24,-7.7,13.7
5.2,5.75,1.5,0.0,0.0,0.0,0.0,0.0,0.0,1.0,0.0,0.25,0.25,0.25,-0.23,2.7,-0.11,68.81,25.5,65.5,1.0,0.0,1.0,1.0,1.0,1.75,0.0,1.5,1.25,0.0,0.5,0.0,0.75,-1.67,-0.3,0.83,137.91,-3.3,10.8
5.22,4.75,1.75,0.5,0.0,1.75,0.25,0.0,0.0,1.5,0.5,0.25,0.0,1.75,-2.98,1.39,-2.23,81.71,13.3,34.4,1.0,1.0,0.5,1.25,2.25,2.75,0.0,0.75,1.25,1.25,0.25,0.75,1.0,-1.55,-0.17,1.08,142.19,0.1,10.1
5.24,2.0,0.25,0.0,0.0,1.75,0.0,0.0,0.25,0.75,0.25,0.0,0.75,0.0,-1.55,0.89,-2.48,71.88,11.3,28.9,1.0,0.75,1.25,1.25,2.25,3.25,0.0,1.5,1.25,1.25,1.0,0.75,0.75,-1.55,0.02,1.27,171.13,-0.7,7.6
5.26,2.5,1.25,0.0,0.0,0.0,0.5,0.0,0.25,1.5,2.75,0.0,1.0,0.0,0.52,-0.36,1.95,96.17,6.9,-1.2,1.0,1.0,1.5,1.25,2.25,3.25,0.0,1.5,1.25,1.25,0.75,0.75,0.75,-1.55,0.33,1.14,202.71,-1.3,11.1
5.28,1.0,0.25,1.0,0.0,2.25,0.25,0.0,0.75,0.75,0.25,1.25,0.0,0.25,0.02,-0.11,1.2,84.1,7.6,15.8,0.75,0.75,1.25,1.25,2.25,3.25,0.0,1.75,1.25,1.5,0.5,0.75,0.75,-1.42,0.33,1.02,221.17,0.5,6.8
5.3,1.0,0.0,0.25,0.0,0.0,0.25,0.0,0.0,1.5,2.25,0.0,1.0,0.0,-0.61,0.52,1.64,83.26,4.6,-35.9,1.0,1.0,1.25,1.25,1.75,3.25,0.0,1.5,1.25,1.25,0.5,0.75,0.75,-1.11,0.33,0.89,226.6,-0.7,10.0
5.32,1.5,0.25,0.25,1.0,0.0,0.25,0.0,0.0,1.5,1.75,0.0,0.75,0.0,-1.42,0.64,0.2,76.7,10.0,-3.3,1.0,1.0,1.25,1.25,2.25,3.25,0.0,1.5,1.25,2.0,0.25,0.75,1.0,-0.55,0.39,0.58,231.64,0.4,7.1
5.34,1.0,0.0,1.0,0.0,0.0,0.25,0.0,0.0,1.0,0.0,0.25,1.25,0.25,-1.98,1.39,-0.55,69.61,18.0,-11.9,1.0,1.0,1.5,1.25,2.25,3.25,0.25,1.5,1.25,1.5,0.25,1.0,0.75,-0.11,0.2,0.27,237.13,-1.1,10.6
5.36,1.0,0.0,0.25,0.0,0.0,0.0,0.0,0.25,0.75,0.0,0.5,0.75,0.0,-1.92,1.64,-0.42,55.27,17.3,-14.5,1.0,1.0,1.25,1.25,2.25,3.25,0.25,1.5,1.25,1.5,2.5,0.75,0.75,-0.11,0.08,0.14,248.72,-1.6,1.4
5.38,1.0,0.25,0.25,0.0,1.75,0.0,0.0,0.25,0.75,0.0,0.0,0.75,0.0,-1.48,1.58,-0.23,51.87,9.7,23.2,1.0,1.0,1.5,1.25,2.25,3.25,0.25,1.5,1.25,2.0,2.0,0.75,1.25,-0.11,0.14,0.08,262.56,-1.0,-0.8
5.4,1.0,0.0,0.0,0.0,1.75,0.0,0.0,0.25,0.75,0.0,0.0,0.75,0.0,-1.11,1.45,-0.17,52.72,7.9,16.9,1.0,1.0,1.25,1.25,1.75,3.25,0.25,1.5,1.25,1.5,2.0,0.75,1.0,-0.05,0.08,0.02,268.15,-1.3,0.2
5.42,1.0,0.0,0.0,0.0,0.0,0.25,0.0,0.25,0.75,0.25,0.0,0.75,0.0,-0.73,1.02,-0.17,46.2,11.0,-12.5,1.0,1.0,1.25,1.25,2.25,3.25,0.25,1.5,1.25,1.5,2.0,0.75,1.0,-0.11,-0.05,0.08,267.04,-1.2,1.9
5.44,1.0,0.0,0.0,0.0,0.75,0.25,0.0,0.25,0.75,0.25,0.0,0.75,0.0,-0.8,0.58,-0.23,46.92,7.9,1.7,0.75,0.75,1.25,1.25,1.75,3.25,0.5,1.75,1.25,1.75,1.5,0.75,0.75,-0.11,-0.23,0.33,256.05,-0.3,-0.2
5.46,1.0,0.0,0.0,0.0,0.0,0.25,0.0,0.25,0.75,0.0,0.0,0.5,0.0,-0.86,0.08,0.14,38.32,13.7,2.4,1.0,1.0,1.25,1.25,1.75,3.25,0.25,1.5,1.25,1.5,2.0,0.75,0.75,-0.36,-0.17,0.39,249.18,-1.5,1.8
5.48,1.0,0.0,0.0,0.0,0.0,0.0,0.0,0.25,0.75,0.5,0.0,0.75,0.0,-0.67,-0.3,0.33,39.13,11.4,-20.9,1.0,1.0,1.5,1.25,1.75,3.25,0.25,1.5,1.25,1.5,2.0,0.75,0.75,-0.42,-0.17,0.39,245.8,-2.1,2.6
5.5,0.75,0.0,0.0,0.0,0.0,0.0,0.0,0.0,0.75,0.0,0.0,0.5,0.0,-0.48,-0.17,0.2,28.18,19.5,-7.5,1.0,1.0,1.25,1.25,2.25,3.25,0.25,1.5,1.25,1.25,1.75,0.75,0.75,-0.73,-0.3,0.58,246.22,-1.5,5.7
5.52,1.0,0.0,0.0,0.0,0.0,0.0,0.0,0.25,0.75,0.0,0.0,0.5,0.0,-0.36,-0.11,0.14,28.65,17.3,-0.6,1.0,1.0,1.25,1.25,1.75,3.25,0.5,1.5,1.25,1.5,1.5,0.75,0.75,-0.73,-0.36,0.39,244.36,-1.5,4.2
5.54,0.75,0.0,0.0,0.0,0.0,0.25,0.0,0.25,0.25,0.0,0.0,0.5,0.25,-0.17,-0.11,0.14,26.57,8.6,-11.6,1.0,1.0,1.5,1.25,2.25,3.25,0.25,1.5,1.25,1.75,2.0,0.75,0.75,-0.55,-0.48,0.14,247.72,-1.7,3.2
5.56,1.0,0.0,0.0,0.0,0.0,0.0,0.0,0.25,0.5,0.0,0.0,0.5,0.0,-0.11,-0.17,0.2,26.45,17.9,3.7,1.0,1.0,1.75,1.25,2.25,3.25,0.5,1.5,1.25,1.75,2.25,0.75,0.75,-0.55,-0.92,0.08,252.4,-2.5,3.1
5.58,0.5,0.0,0.0,0.0,0.0,0.25,0.0,0.25,0.75,0.0,0.0,0.5,0.0,-0.3,-0.11,0.14,27.76,9.2,-17.8,1.0,1.0,1.5,1.25,1.75,3.25,0.5,1.25,1.25,1.75,2.5,0.75,0.75,-0.8,-1.61,0.08,254.15,-2.5,0.2
5.6,0.5,0.0,0.0,0.0,0.0,0.25,0.0,0.25,0.25,0.25,0.0,0.5,0.0,-0.42,-0.05,0.08,26.92,5.2,-20.0,1.25,0.75,1.5,1.75,2.25,3.25,0.25,1.5,1.25,1.25,2.25,0.75,0.75,-1.05,-1.86,0.33,256.67,-2.9,5.6
5.62,1.0,0.0,0.25,0.0,0.0,0.25,0.0,0.25,0.75,0.0,0.0,0.5,0.0,-0.55,-0.05,0.02,30.63,15.9,7.6,1.0,1.0,1.5,1.25,1.75,3.25,0.5,1.5,1.25,1.25,2.0,0.75,0.75,-1.3,-1.86,1.08,253.61,-2.5,3.9
5.64,1.25,1.0,0.0,0.0,0.0,0.25,0.0,0.25,1.0,1.5,0.0,0.75,0.0,-0.8,-0.11,-0.05,52.68,6.6,-3.1,1.0,0.75,1.5,1.25,1.75,3.25,0.25,1.25,1.25,1.5,2.25,0.75,0.75,-1.3,-1.48,1.27,250.28,-2.3,0.7
5.66,1.25,1.25,1.0,0.0,1.75,0.25,0.0,1.0,1.0,1.5,0.75,0.75,1.5,-0.8,-0.17,0.02,105.4,4.0,-6.1,0.5,1.0,1.5,1.25,1.75,3.25,0.25,1.5,1.25,1.5,2.25,0.75,1.0,-1.17,-0.92,1.08,246.31,-1.1,-2.5
5.68,1.25,0.5,1.25,0.75,1.75,0.75,0.0,1.0,1.0,1.5,1.25,1.0,1.5,-0.8,-0.11,0.08,154.69,4.3,-10.0,1.0,1.0,1.5,1.25,2.25,3.25,0.25,1.5,1.25,1.5,2.0,0.75,0.75,-0.86,-0.48,0.77,248.27,-1.9,4.3
5.7,1.25,0.5,1.0,1.25,1.75,0.25,0.0,1.0,1.0,1.5,1.25,1.0,1.5,-1.05,0.02,0.14,191.83,5.1,-10.3,0.75,0.5,1.5,1.25,1.75,3.25,0.25,1.5,1.25,1.25,1.75,0.75,0.75,-0.67,-0.23,0.64,242.06,-1.4,0.6
5.72,1.25,1.0,1.0,0.75,1.75,0.25,0.0,1.5,1.0,1.5,1.25,1.0,1.5,-1.23,0.2,0.27,212.68,4.1,-9.9,1.25,0.25,1.25,1.75,2.25,3.0,0.25,1.25,1.25,1.5,1.75,0.75,0.75,-0.73,0.08,0.58,240.66,-2.3,3.4
5.74,1.25,0.75,0.75,0.75,1.75,0.5,0.0,0.25,0.75,1.5,0.0,1.25,0.0,-1.23,0.33,0.08,206.32,7.0,12.3,1.0,0.0,1.25,2.0,1.75,3.5,0.5,1.5,1.25,1.25,2.0,0.75,0.75,-0.92,0.2,0.58,238.26,-1.7,0.3
5.76,1.25,1.0,0.75,1.0,1.75,0.5,0.0,0.25,1.0,1.75,0.0,1.25,0.0,-1.3,0.45,0.02,197.92,7.0,12.2,1.0,0.0,1.5,1.25,1.75,3.25,0.25,1.5,1.25,1.5,2.5,0.75,0.75,-0.8,0.08,0.45,236.62,-1.7,-5.2
5.78,1.25,0.75,1.0,1.0,1.75,0.5,0.0,1.0,1.0,1.5,1.25,1.0,1.5,-1.36,0.33,0.2,199.74,4.5,-8.8,1.25,0.25,1.5,1.25,1.75,3.25,0.5,1.5,1.25,1.25,2.25,0.75,0.75,-0.73,-0.11,0.45,235.36,-2.6,-0.1
5.8,1.25,1.0,1.0,1.0,1.75,0.75,0.0,1.0,1.25,1.5,1.25,0.75,1.5,-1.3,0.2,0.39,208.72,4.3,-4.9,1.0,0.25,1.5,1.25,1.75,3.25,0.5,1.25,1.25,1.75,2.75,0.75,0.75,-0.73,-0.3,0.39,237.7,-2.2,-5.0
5.82,1.25,0.5,1.0,1.0,2.25,0.75,0.0,1.0,1.25,1.25,1.25,0.75,1.5,-1.17,-0.05,0.39,215.07,4.0,-5.0,1.0,0.25,1.25,1.25,1.75,3.25,0.25,1.25,1.25,1.75,2.0,0.75,1.0,-0.73,-0.42,0.33,236.9,-0.8,-4.8
5.84,1.25,0.75,1.0,0.75,1.75,0.75,0.0,1.25,1.25,1.5,1.25,0.75,1.5,-1.11,-0.11,0.08,216.85,3.5,-8.6,1.0,0.75,1.25,1.25,1.75,3.25,0.25,1.25,1.25,1.5,2.0,0.75,0.75,-0.67,-0.61,0.39,236.04,-1.6,0.9
5.86,1.25,0.5,0.75,1.0,1.75,1.0,0.0,1.25,1.5,1.75,1.25,1.0,1.5,-1.05,-0.17,0.02,215.47,2.5,-13.2,1.5,0.0,1.25,1.25,1.75,3.25,0.25,1.5,1.25,1.25,2.5,0.75,0.75,-0.8,-0.73,0.52,236.06,-2.3,-2.4
5.88,1.25,0.5,0.75,1.25,2.25,0.5,0.0,1.0,1.5,1.5,1.25,1.0,1.5,-0.86,-0.23,0.02,210.69,4.0,-9.3,1.0,0.0,1.5,1.25,1.75,3.25,0.5,1.25,1.25,1.25,2.5,0.75,0.75,-0.8,-0.8,0.58,234.49,-2.4,-3.5
5.9,1.25,0.75,1.0,1.0,1.75,0.25,0.0,1.25,1.5,1.5,1.25,0.75,1.5,-0.8,-0.3,-0.05,205.41,4.8,-9.3,0.5,0.0,1.25,1.25,1.75,3.25,0.25,1.5,1.25,1.5,2.5,0.75,0.0,-0.92,-0.8,0.58,228.39,-0.9,-4.2
5.92,1.25,1.0,1.0,1.25,1.75,0.5,0.0,1.5,1.25,1.5,1.25,1.0,1.5,-0.67,-0.36,0.08,208.54,4.3,-7.3,1.25,0.0,1.5,1.25,1.75,3.25,0.5,1.5,1.25,1.5,2.5,0.75,0.0,-0.92,-0.73,0.58,228.37,-3.1,1.2
5.94,1.25,1.0,1.0,1.25,1.75,1.25,0.0,1.25,1.5,1.5,1.25,1.0,1.5,-0.67,-0.05,0.08,215.0,3.5,-5.4,1.25,0.0,1.5,1.5,1.75,2.75,0.5,1.25,1.25,1.25,2.5,0.75,0.0,-0.92,-0.61,0.58,226.65,-4.7,2.9
5.96,1.25,1.0,1.0,1.5,1.75,0.75,0.0,1.0,1.5,1.5,1.25,1.5,1.5,-0.73,0.2,0.02,220.84,5.0,-8.3,0.5,0.0,1.5,1.25,1.75,3.25,0.5,1.5,1.25,1.5,2.5,0.75,0.0,-0.92,-0.48,0.52,224.86,-1.7,-3.0
5.98,0.75,0.0,0.0,0.0,0.75,0.25,0.0,0.25,0.75,0.25,0.0,0.5,0.5,-0.8,0.2,0.08,175.46,3.5,-11.1,1.0,0.0,1.5,1.25,1.75,3.25,0.5,1.25,1.25,1.5,2.75,0.75,0.25,-0.92,-0.42,0.52,226.29,-2.8,-2.3
6.0,1.25,0.75,0.75,1.25,1.75,0.5,0.0,1.0,0.75,0.25,1.25,0.5,1.5,-0.86,0.14,0.2,161.84,5.9,3.0,0.5,0.5,1.25,1.25,1.75,3.0,0.5,1.25,1.25,1.5,2.75,0.5,0.0,-0.86,-0.42,0.64,224.96,-2.1,-0.1
6.02,1.25,1.0,0.25,1.25,0.5,0.75,0.0,0.25,1.25,1.75,0.0,1.0,1.75,-0.92,0.02,0.14,143.2,3.2,-12.0,1.0,0.0,1.25,2.0,1.75,3.25,0.5,1.5,1.25,1.5,2.5,0.75,0.5,-0.8,-0.48,0.64,230.19,-2.3,-1.6
6.04,1.25,1.0,1.0,1.25,1.75,1.0,0.0,1.5,1.5,1.75,1.25,0.75,1.5,-0.98,-0.05,0.14,168.8,3.2,-6.0,1.25,0.25,1.5,1.25,1.5,3.0,0.5,1.25,1.25,1.5,2.5,0.75,0.0,-0.86,-0.42,0.39,229.87,-4.0,1.9
6.06,1.25,1.0,1.0,1.25,1.75,1.0,0.0,1.0,1.25,1.5,1.25,1.0,1.5,-1.05,-0.11,0.08,185.72,4.1,-4.9,1.0,0.25,1.25,1.25,1.75,3.0,0.75,1.25,1.25,1.25,2.5,0.5,0.25,-0.8,-0.42,0.45,229.75,-3.0,1.8
6.08,1.25,1.25,1.0,1.0,1.75,0.75,0.0,1.0,1.25,1.75,1.25,0.75,1.5,-1.05,-0.17,0.08,204.78,4.1,-4.3,1.25,0.25,1.25,1.25,1.5,3.0,0.5,1.5,1.25,1.25,2.75,0.75,0.5,-0.8,-0.42,0.45,229.36,-3.0,-2.9
6.1,1.25,1.0,0.75,1.0,1.75,1.0,0.0,1.5,1.25,1.75,1.25,1.0,1.5,-1.05,-0.17,0.08,209.77,2.3,-9.4,1.25,0.5,1.25,1.25,1.75,3.25,0.5,1.5,1.25,1.25,2.75,0.75,0.5,-0.73,-0.48,0.39,234.1,-2.7,0.0
6.12,1.25,0.75,1.0,0.25,2.5,0.75,0.0,1.25,1.0,1.75,1.25,1.25,1.5,-1.05,-0.11,0.08,211.01,2.3,-11.3,0.75,0.25,1.25,1.25,1.75,3.25,0.5,1.25,1.25,1.25,2.5,0.75,0.25,-0.67,-0.48,0.45,232.67,-2.1,-0.9
6.14,1.0,0.5,1.25,1.0,2.25,1.0,0.0,1.25,1.0,1.5,1.25,1.5,1.5,-1.05,-0.05,0.08,213.73,3.1,-11.2,0.5,0.0,1.5,1.25,2.25,2.75,0.5,1.25,1.25,1.25,2.75,0.75,0.5,-0.61,-0.55,0.45,232.3,-2.4,-4.8
6.16,1.25,1.0,1.0,0.25,2.25,1.0,0.0,1.0,0.75,2.0,1.25,1.0,1.5,-1.05,-0.05,0.08,212.59,2.0,-8.4,0.75,0.75,1.5,1.25,1.75,3.0,0.5,1.25,1.25,1.25,2.5,0.75,0.5,-0.67,-0.55,0.39,232.09,-3.1,0.8
6.18,1.25,0.5,1.0,0.0,1.75,1.0,0.0,1.0,1.0,1.75,1.0,1.0,1.5,-0.98,0.02,0.08,206.26,1.8,-14.8,1.25,0.25,1.25,1.75,1.5,3.0,0.5,1.25,1.25,1.5,2.5,0.75,0.75,-0.67,-0.61,0.39,234.86,-3.1,-2.2
6.2,1.25,0.5,0.75,0.0,1.75,1.0,0.0,1.5,0.75,2.0,1.25,1.0,1.5,-0.92,0.02,0.08,201.42,0.1,-19.0,0.75,0.25,1.5,1.25,1.5,3.0,0.75,1.5,1.25,1.5,2.5,0.75,0.75,-0.67,-0.61,0.45,235.2,-2.3,-6.2
6.22,1.25,1.0,1.0,1.0,1.75,0.5,0.0,1.0,0.75,1.75,1.25,1.0,1.5,-0.92,0.02,0.08,202.04,4.2,-7.5,1.0,0.0,1.25,1.25,1.5,3.25,0.5,1.5,1.25,1.25,2.5,0.5,0.25,-0.73,-0.61,0.52,231.4,-2.1,-1.0
6.24,1.25,0.75,1.0,0.0,1.75,0.5,0.0,1.0,0.75,2.0,1.0,1.0,1.5,-0.92,0.08,0.08,189.44,2.4,-15.1,0.75,0.5,1.5,1.75,1.5,3.0,0.25,1.25,1.25,1.25,2.75,0.75,0.5,-0.73,-0.61,0.52,232.02,-3.4,-1.0
6.26,1.25,1.0,0.75,1.0,1.75,0.75,0.0,1.0,1.0,2.25,1.25,1.0,1.5,-0.92,0.02,0.08,193.1,2.6,-10.8,1.25,0.0,1.5,1.25,1.5,3.25,0.5,1.25,1.25,1.25,2.75,0.75,0.75,-0.73,-0.61,0.52,231.49,-3.1,-4.1
6.28,1.25,1.0,0.75,1.0,1.75,0.75,0.0,1.0,0.75,2.0,1.25,0.75,1.5,-0.98,0.02,0.08,192.23,2.7,-7.4,1.0,0.0,1.25,1.25,1.75,3.0,0.5,1.25,1.25,1.25,2.75,0.75,0.5,-0.8,-0.55,0.52,231.23,-2.6,-4.4
6.3,1.0,1.0,1.0,1.0,1.25,0.75,0.0,1.25,0.75,1.75,1.0,1.0,1.5,-0.98,-0.05,0.08,193.32,3.0,-10.6,1.0,0.0,1.25,1.25,1.75,3.25,0.5,1.5,1.25,1.25,2.75,0.5,0.25,-0.8,-0.55,0.52,229.79,-2.1,-1.1
6.32,1.25,1.0,1.0,1.0,3.0,1.0,0.0,1.0,0.75,1.75,1.25,0.75,1.5,-0.98,-0.05,0.08,201.97,2.6,0.9,0.5,0.0,1.5,1.25,1.5,3.25,0.25,1.25,1.25,1.25,2.75,0.75,0.25,-0.8,-0.55,0.52,225.06,-2.0,-5.4
6.34,1.25,0.75,1.0,1.0,2.5,1.0,0.0,1.25,0.75,1.75,1.25,0.75,1.5,-0.98,0.02,0.08,207.87,2.3,-3.3,0.5,0.0,1.25,1.25,1.75,3.25,0.25,1.25,1.25,1.25,2.5,0.75,0.0,-0.8,-0.48,0.52,219.45,-1.4,-2.5
6.36,1.0,1.0,1.0,1.25,2.5,0.5,0.0,1.0,0.75,2.0,1.25,1.0,1.5,-0.92,0.02,0.08,213.44,3.2,-5.6,1.0,0.0,1.5,1.25,1.5,3.0,0.5,1.25,1.25,1.5,2.5,0.75,0.25,-0.8,-0.55,0.52,218.85,-3.2,-2.8
6.38,1.25,1.0,1.0,1.0,1.75,0.75,0.0,1.0,0.75,2.0,1.25,1.0,1.5,-0.92,0.02,0.14,212.47,3.4,-8.0,1.25,0.0,1.25,1.25,1.75,2.75,0.25,1.25,1.25,1.5,2.5,0.75,0.0,-0.73,-0.55,0.52,217.91,-3.4,-0.3
6.4,1.25,1.25,1.0,0.25,2.25,0.5,0.0,1.0,0.75,2.0,1.25,0.75,1.5,-0.92,0.02,0.08,210.48,2.9,-6.1,0.5,0.0,1.25,1.5,1.75,3.25,0.25,1.25,1.25,1.25,2.75,0.75,0.0,-0.67,-0.55,0.52,217.93,-1.8,-2.6
6.42,1.25,1.0,0.75,1.0,1.75,1.0,0.0,1.0,0.75,2.0,1.25,0.75,1.5,-0.98,0.08,0.08,207.0,2.2,-6.7,1.25,0.0,1.5,1.25,1.75,3.0,0.5,1.5,1.25,1.25,2.5,0.75,0.0,-0.67,-0.55,0.52,220.95,-3.7,1.9
6.44,1.25,0.75,1.0,1.0,2.25,0.75,0.0,1.0,1.0,2.0,1.25,0.75,1.5,-0.98,0.08,0.08,206.73,3.0,-6.2,1.0,0.0,1.25,1.25,1.5,3.25,0.25,1.25,1.25,1.5,2.5,0.75,0.0,-0.67,-0.61,0.52,221.18,-2.2,-1.7
6.46,1.25,1.25,0.25,0.25,3.0,1.0,0.0,1.0,0.75,1.75,1.0,0.75,1.5,-0.98,0.08,0.08,205.43,0.0,-2.3,1.0,0.25,1.5,1.25,1.75,2.75,0.25,1.25,1.25,1.5,2.75,0.5,0.5,-0.67,-0.61,0.52,224.17,-3.1,-2.0
6.48,1.25,1.25,1.0,0.5,2.25,0.75,0.0,0.75,0.75,2.0,1.0,1.0,1.5,-0.98,0.08,0.08,205.51,3.0,-4.3,1.0,0.25,1.25,1.25,1.75,3.0,0.5,1.25,1.25,1.25,2.0,0.5,0.0,-0.61,-0.55,0.52,220.62,-2.9,6.0
6.5,1.25,1.0,1.0,1.0,2.5,0.75,0.0,0.75,0.75,2.0,1.25,0.75,1.5,-0.98,0.02,0.08,206.12,3.3,-2.2,1.25,0.0,1.25,1.25,1.75,2.75,0.25,1.5,1.25,1.5,2.25,0.75,0.0,-0.61,-0.55,0.52,220.98,-2.9,0.2
6.52,1.25,0.75,0.75,1.0,1.75,1.0,0.0,0.5,0.75,2.0,1.25,0.75,1.5,-0.98,0.02,0.08,201.85,2.7,-7.6,0.5,0.0,1.25,1.0,1.75,2.75,0.25,1.25,1.25,1.25,2.5,0.75,0.0,-0.61,-0.55,0.52,214.48,-1.9,-4.8
6.54,1.25,1.25,1.0,1.5,2.5,0.75,0.0,0.75,0.75,1.75,1.25,0.75,1.5,-0.98,0.02,0.08,206.46,4.2,2.7,1.0,0.0,1.5,1.25,1.75,3.25,0.25,1.25,1.25,1.5,2.5,0.75,0.25,-0.61,-0.55,0.58,218.46,-2.5,-1.4
6.56,1.25,1.0,1.0,1.25,2.5,0.75,0.0,0.75,0.75,2.0,1.25,1.0,1.5,-0.98,0.02,0.08,208.97,3.6,-2.9,1.0,0.25,1.25,1.25,1.75,3.25,0.25,1.0,1.25,1.25,2.5,0.75,0.0,-0.67,-0.55,0.58,219.11,-2.9,2.6
6.58,1.25,1.25,1.0,1.25,1.75,1.0,0.0,0.5,0.75,2.0,1.25,0.75,1.5,-0.98,0.02,0.08,211.42,4.0,-1.4,1.0,0.0,1.25,1.25,1.75,3.25,0.25,1.25,1.25,1.25,2.5,0.75,0.75,-0.67,-0.55,0.58,224.03,-1.7,-4.7
6.6,1.25,1.0,0.75,1.0,1.75,1.0,0.0,0.5,0.75,2.0,1.25,0.75,1.5,-0.98,0.02,0.08,206.82,2.9,-5.6,1.25,0.25,1.25,1.25,1.75,3.0,0.25,1.25,1.25,1.25,2.5,0.75,0.0,-0.61,-0.55,0.58,224.58,-3.4,2.9
6.62,1.75,1.0,0.25,0.75,1.75,0.25,0.0,0.5,0.75,2.0,1.0,0.75,1.5,-0.92,0.02,0.08,197.08,3.7,-6.7,1.25,0.75,1.25,1.25,1.5,3.0,0.25,1.25,1.25,1.25,2.5,0.75,0.0,-0.61,-0.55,0.64,227.18,-3.9,5.1
6.64,1.25,0.75,1.25,1.0,2.5,0.75,0.0,0.5,0.75,2.0,1.25,0.75,1.5,-0.92,0.02,0.08,196.79,4.0,-2.2,1.25,0.0,1.25,1.25,1.75,3.0,0.25,1.25,1.25,1.25,2.5,0.75,0.0,-0.55,-0.55,0.64,225.14,-3.3,1.3
6.66,1.25,1.0,0.75,1.25,2.5,0.5,0.0,1.0,0.75,1.75,1.25,0.75,1.5,-0.92,0.02,0.14,198.37,3.3,-2.2,1.0,0.75,1.25,1.25,1.75,3.0,0.25,1.25,1.25,1.25,2.5,0.75,0.0,-0.55,-0.55,0.64,226.32,-3.3,4.6
6.68,1.25,0.75,1.0,1.0,1.75,0.5,0.0,0.75,0.75,2.25,1.25,0.75,1.5,-0.92,0.02,0.14,199.06,3.6,-9.5,0.5,1.0,1.25,1.25,1.75,3.25,0.25,1.25,1.25,1.25,2.5,0.5,0.0,-0.48,-0.61,0.64,226.83,-2.0,5.6
6.7,1.25,1.25,1.0,1.0,2.5,0.5,0.0,0.75,0.75,1.75,1.0,0.75,1.5,-0.98,0.02,0.08,201.85,4.1,1.5,0.75,0.5,1.25,1.25,1.75,2.75,0.25,1.25,1.25,1.5,2.5,0.75,0.0,-0.55,-0.61,0.7,225.74,-2.7,0.0
6.72,1.25,1.0,0.75,1.0,2.5,0.5,0.0,1.0,0.75,2.0,1.0,0.75,1.5,-0.98,0.02,0.08,202.63,2.6,-3.3,1.0,0.75,1.5,1.25,1.75,3.25,0.25,1.25,1.25,1.5,2.5,0.75,0.0,-0.55,-0.61,0.7,230.28,-3.2,4.7
6.74,1.0,1.0,0.75,1.0,2.5,0.5,0.0,0.75,0.75,2.0,1.0,1.0,1.5,-0.98,0.08,0.08,201.9,2.5,-6.2,1.0,0.75,1.25,1.25,1.5,2.75,0.25,1.25,1.25,1.5,2.5,0.75,0.0,-0.55,-0.67,0.7,229.31,-3.5,2.0
6.76,1.25,1.0,1.0,1.0,2.5,0.5,0.0,0.75,0.75,2.25,0.75,1.0,1.5,-0.98,0.02,0.08,203.71,3.2,-3.4,1.0,0.75,1.25,1.25,1.75,3.0,0.25,1.25,1.25,1.5,2.5,0.5,0.5,-0.55,-0.61,0.77,232.12,-2.4,1.6
6.78,1.75,1.25,0.25,0.25,2.25,0.5,0.0,1.0,0.75,2.0,1.25,1.0,1.5,-0.98,0.02,0.08,201.76,2.1,-8.1,0.5,1.0,1.25,1.25,1.75,3.0,0.25,1.25,1.25,1.5,2.25,0.75,0.0,-0.55,-0.61,0.77,229.26,-2.1,3.4
6.8,1.25,1.0,1.0,1.0,1.75,0.5,0.0,0.5,0.75,2.0,1.25,0.75,1.5,-0.92,0.02,0.08,199.29,4.5,-5.7,1.25,0.75,1.25,1.25,1.5,3.0,0.25,1.25,1.25,1.5,2.75,0.5,0.0,-0.48,-0.55,0.7,230.73,-3.6,4.4
6.82,1.25,1.0,1.0,1.0,1.75,0.75,0.0,0.5,0.75,2.0,1.0,0.75,1.5,-0.92,0.02,0.08,196.64,3.9,-3.8,0.5,0.75,1.25,1.25,1.75,3.0,0.25,1.25,1.25,1.25,2.5,0.5,0.0,-0.48,-0.55,0.7,226.27,-2.2,3.6
6.84,1.25,1.0,1.0,1.0,2.25,1.0,0.0,0.5,0.75,2.25,1.25,0.75,1.5,-0.92,0.02,0.14,200.58,3.0,-3.3,1.25,0.75,1.25,1.25,1.5,2.75,0.25,1.25,1.25,1.5,2.5,0.75,0.0,-0.48,-0.55,0.77,226.61,-3.9,3.4
6.86,1.25,0.75,1.0,1.0,2.25,0.5,0.0,0.75,0.75,1.75,1.0,0.75,1.5,-0.92,0.02,0.14,198.96,3.9,-3.2,1.0,0.75,1.25,1.25,1.75,2.5,0.25,1.25,1.25,1.5,2.5,0.75,0.0,-0.42,-0.55,0.7,225.21,-3.8,2.5
6.88,1.25,1.0,1.0,1.0,2.25,0.75,0.0,1.0,0.75,2.25,1.25,0.75,1.5,-0.92,0.02,0.14,203.34,2.7,-5.1,1.25,0.5,1.5,1.25,1.5,3.0,0.25,1.25,1.25,1.5,2.5,0.75,0.0,-0.42,-0.48,0.7,227.29,-4.0,3.3
6.9,1.25,1.0,0.75,0.5,2.25,0.75,0.0,1.0,0.75,2.0,1.0,0.75,1.5,-0.92,0.02,0.14,201.8,1.7,-6.2,0.5,0.75,1.25,1.25,1.5,3.25,0.25,1.25,1.25,1.5,2.75,0.75,0.0,-0.42,-0.48,0.7,226.88,-1.9,-0.9
6.92,1.25,1.0,1.0,1.0,2.5,0.75,0.0,1.0,0.75,2.25,1.25,0.75,1.5,-0.98,-0.05,0.14,208.05,2.6,-3.9,0.5,0.5,1.25,1.25,1.5,3.25,0.25,1.25,1.25,1.25,2.75,0.5,0.25,-0.42,-0.48,0.77,225.21,-1.7,-1.4
6.94,1.5,1.0,1.0,0.25,2.25,1.0,0.0,0.75,0.75,2.25,1.0,0.75,1.5,-0.98,0.02,0.08,206.05,2.2,-4.4,0.5,0.5,1.25,1.25,1.5,3.25,0.25,1.25,1.25,1.5,2.5,0.75,0.0,-0.42,-0.48,0.77,222.54,-1.6,-1.4
6.96,1.25,0.75,1.25,1.25,1.75,1.0,0.0,0.75,0.75,2.25,0.5,0.75,1.5,-0.98,0.02,0.14,206.06,3.2,-2.1,0.75,0.75,1.25,1.25,1.75,3.0,0.25,1.25,1.25,1.5,2.5,0.75,0.0,-0.42,-0.48,0.83,222.61,-2.5,2.0
6.98,1.25,1.0,1.0,1.0,2.25,0.5,0.0,0.5,0.75,2.25,1.0,0.75,1.5,-0.98,0.02,0.14,203.62,3.7,-3.3,1.0,0.75,1.25,1.25,1.75,3.0,0.25,1.25,1.25,2.0,2.0,0.75,0.25,-0.42,-0.55,0.83,226.59,-1.9,1.6
7.0,1.0,1.0,0.75,1.0,2.25,0.75,0.0,0.5,0.75,2.5,1.0,0.75,1.5,-0.98,0.02,0.14,202.1,1.8,-6.8,0.5,0.5,1.25,1.25,1.5,3.0,0.25,1.25,1.25,1.5,2.5,0.75,0.0,-0.42,-0.55,0.89,224.41,-2.0,-1.9
7.02,1.25,0.5,1.0,0.25,2.25,1.0,0.0,1.0,0.75,2.25,0.75,0.75,1.5,-0.98,0.02,0.14,198.49,0.8,-9.5,0.5,0.75,1.5,1.25,1.75,2.75,0.25,1.25,1.25,1.5,2.75,0.75,0.0,-0.42,-0.55,0.89,226.03,-3.1,0.0
7.04,1.25,0.75,1.0,0.25,2.25,1.0,0.0,0.5,0.75,2.75,1.25,0.75,1.5,-0.92,0.02,0.14,198.35,1.4,-11.0,0.5,0.5,1.25,1.25,1.75,3.25,0.25,1.25,1.25,1.5,2.75,0.75,0.0,-0.36,-0.48,0.83,225.44,-1.6,-1.5
7.06,1.25,1.0,1.0,0.0,2.5,0.75,0.0,0.75,0.75,2.0,1.25,0.75,1.5,-0.92,0.02,0.14,196.77,2.2,-6.7,1.0,0.5,1.25,1.25,1.5,2.75,0.25,1.25,1.25,1.5,2.5,0.75,0.0,-0.36,-0.48,0.83,224.43,-3.3,0.4
7.08,1.25,0.75,1.0,0.0,2.5,1.25,0.0,0.75,0.75,2.25,1.0,0.75,1.5,-0.92,0.02,0.14,196.78,0.7,-7.3,0.75,1.0,1.5,1.25,1.5,2.75,0.25,1.25,1.25,1.25,2.5,0.5,0.0,-0.3,-0.48,0.83,223.04,-4.0,6.2
7.1,1.25,0.75,1.0,0.5,4.75,0.75,0.0,0.5,0.75,2.25,1.25,0.75,1.5,-0.92,-0.05,0.2,209.78,1.7,2.4,1.0,0.5,1.5,1.25,1.75,2.75,0.25,1.25,1.25,1.25,2.5,0.5,0.0,-0.23,-0.48,0.83,222.84,-4.0,5.4
7.12,1.25,0.75,1.0,0.25,3.0,1.0,0.0,1.0,0.75,2.0,1.25,0.75,1.5,-0.92,-0.05,0.2,212.86,1.3,-5.0,1.25,0.75,1.25,1.25,1.75,2.75,0.25,1.25,1.25,2.0,2.5,0.5,0.0,-0.17,-0.42,0.77,226.4,-3.1,3.6
7.14,1.25,0.75,0.75,1.0,3.0,1.0,0.0,1.0,0.75,2.75,0.75,0.75,1.5,-0.98,0.02,0.14,219.49,0.4,-4.1,0.5,0.25,1.5,1.0,1.75,2.75,0.25,1.25,1.25,1.25,2.5,0.75,0.0,-0.17,-0.42,0.77,222.36,-2.7,-1.9
7.16,1.25,0.75,1.0,1.0,3.0,0.75,0.0,0.5,0.75,2.0,0.75,0.75,1.5,-0.98,0.02,0.14,215.89,2.9,1.3,1.0,0.5,1.25,1.25,1.75,2.75,0.25,1.25,1.25,1.25,2.5,0.75,0.0,-0.11,-0.42,0.77,222.38,-3.5,2.6
7.18,1.25,1.0,1.0,1.25,3.0,1.0,0.0,0.5,0.75,2.0,1.0,0.75,1.5,-0.98,0.02,0.14,219.02,3.0,3.1,0.5,0.75,1.25,1.25,1.5,2.75,0.25,1.25,1.25,1.25,2.0,0.75,0.0,-0.11,-0.42,0.77,216.22,-2.6,2.9
7.2,1.25,0.75,0.75,1.0,2.5,1.0,0.0,0.5,0.75,2.25,1.25,0.75,1.5,-0.92,-0.05,0.08,214.57,2.1,-5.1,0.75,0.75,1.5,1.25,1.5,2.75,0.25,1.25,1.25,1.5,2.5,0.5,0.0,-0.05,-0.36,0.77,216.71,-3.5,3.3
7.22,1.25,1.0,1.0,1.25,3.0,1.0,0.0,0.5,0.75,2.5,1.0,0.75,1.5,-0.92,-0.05,0.08,219.41,2.5,0.7,0.75,0.25,1.25,1.25,1.5,3.25,0.25,1.25,1.25,1.5,2.5,0.5,0.0,-0.05,-0.36,0.77,215.48,-1.8,0.1
7.24,1.25,1.0,1.0,0.75,2.5,1.0,0.0,0.5,0.5,2.0,0.75,1.25,1.5,-0.92,-0.05,0.14,215.48,2.7,-2.7,1.0,0.25,1.25,1.25,1.75,3.0,0.25,1.25,1.25,1.5,2.5,0.75,0.0,-0.05,-0.3,0.77,219.45,-2.7,0.3
7.26,1.25,1.0,1.0,0.5,2.25,1.25,0.0,0.25,0.75,2.0,0.75,0.75,1.75,-0.86,-0.05,0.14,210.47,2.1,-2.5,0.0,0.25,1.25,2.0,1.75,2.25,0.25,1.25,1.25,1.5,2.25,0.75,0.25,0.02,-0.3,0.77,216.62,-2.2,-4.9
7.28,1.25,0.75,1.0,1.0,2.5,0.75,0.0,0.5,0.75,2.5,0.75,0.75,1.5,-0.92,-0.05,0.14,205.32,2.5,-3.4,1.25,0.75,1.5,1.25,1.75,2.5,0.25,1.25,1.25,1.5,2.25,0.75,0.0,0.02,-0.3,0.77,220.94,-4.6,6.0
7.3,1.25,0.75,0.75,1.0,2.5,1.0,0.0,0.5,0.75,2.25,0.75,0.75,1.5,-0.92,-0.05,0.14,201.94,1.8,-2.7,0.0,0.75,1.25,1.25,1.75,2.5,0.25,1.25,1.25,1.5,2.5,0.75,0.0,0.02,-0.23,0.77,217.98,-1.8,-3.3
7.32,1.25,1.0,1.0,1.0,3.0,1.0,0.0,0.5,0.75,2.25,1.25,1.0,1.5,-0.92,0.02,0.14,207.33,2.7,-1.9,1.0,0.75,1.25,1.25,1.75,3.0,0.25,1.25,1.25,1.25,2.5,0.75,0.0,0.02,-0.17,0.77,221.83,-3.3,4.6
7.34,1.25,0.75,1.0,1.25,3.0,1.0,0.0,0.5,0.75,2.0,1.25,0.75,1.5,-0.92,0.02,0.14,211.18,3.0,0.3,0.75,0.5,1.25,1.25,1.75,2.75,0.5,1.25,1.25,1.25,2.5,0.5,0.0,0.08,-0.17,0.83,220.2,-3.2,3.2
7.36,1.25,0.75,1.0,1.5,2.5,0.5,0.0,0.5,0.5,2.5,0.75,0.75,1.5,-0.98,-0.05,0.27,213.07,3.3,-1.2,0.75,0.75,1.25,1.25,1.75,2.75,0.25,1.25,1.25,1.25,2.5,0.75,0.0,0.14,-0.11,0.77,222.03,-3.2,2.8
7.38,1.25,0.75,0.75,1.75,2.5,0.75,0.0,0.5,0.75,2.25,0.75,0.75,1.5,-0.86,-0.11,0.27,211.15,3.0,0.0,0.25,0.75,1.25,1.25,1.75,2.5,0.5,1.25,1.25,1.5,2.5,0.75,0.0,0.2,-0.11,0.77,220.62,-2.6,-1.6
