time,left pressure 0[N/cm虏],left pressure 1[N/cm虏],left pressure 2[N/cm虏],left pressure 3[N/cm虏],left pressure 4[N/cm虏],left pressure 5[N/cm虏],left pressure 6[N/cm虏],left pressure 7[N/cm虏],left pressure 8[N/cm虏],left pressure 9[N/cm虏],left pressure 10[N/cm虏],left pressure 11[N/cm虏],left pressure 12[N/cm虏],left acceleration X[g],left acceleration Y[g],left acceleration Z[g],left total force[N],left center of pressure X[mm],left center of pressure Y[mm],right pressure 0[N/cm虏],right pressure 1[N/cm虏],right pressure 2[N/cm虏],right pressure 3[N/cm虏],right pressure 4[N/cm虏],right pressure 5[N/cm虏],right pressure 6[N/cm虏],right pressure 7[N/cm虏],right pressure 8[N/cm虏],right pressure 9[N/cm虏],right pressure 10[N/cm虏],right pressure 11[N/cm虏],right pressure 12[N/cm虏],right acceleration X[g],right acceleration Y[g],right acceleration Z[g],right total force[N],right center of pressure X[mm],right center of pressure Y[mm]
0.02,0.25,0.0,1.75,1.75,0.0,2.25,0.25,2.25,1.5,4.25,3.5,6.25,5.75,-0.11,0.08,0.89,504.14,-0.3,-58.7,2.0,0.5,2.75,1.75,1.0,2.75,0.0,0.0,0.75,0.75,0.0,0.25,0.25,0.45,0.39,1.39,222.18,-11.2,40.8
0.04,0.75,0.75,0.75,1.75,0.0,2.5,0.0,2.5,2.0,6.5,4.0,7.0,6.25,-0.11,0.08,0.89,525.51,-1.8,-59.0,1.25,1.25,1.5,3.0,0.0,3.0,0.0,0.75,1.0,2.25,0.75,0.75,0.75,0.58,0.02,1.52,164.89,-4.5,9.6
0.06,0.25,0.75,2.25,2.25,3.75,3.0,0.0,4.5,1.75,5.75,5.75,7.0,7.5,-0.11,0.08,0.95,589.95,-1.3,-44.4,1.0,1.5,2.75,3.0,2.75,3.0,0.0,0.5,1.0,2.0,1.5,0.75,0.5,0.7,-0.42,1.2,137.87,-6.1,19.8
0.08,0.0,0.75,2.75,2.5,3.75,3.5,0.0,5.25,2.25,7.5,6.75,8.25,8.0,-0.11,0.08,0.95,707.18,-1.4,-46.5,1.25,0.5,2.75,0.75,2.75,1.5,0.0,0.5,0.5,0.75,1.5,0.25,0.5,0.83,-0.98,1.52,115.21,-8.8,22.6
0.1,0.0,0.75,2.0,2.75,3.75,3.5,1.5,5.5,2.75,8.75,7.0,9.0,9.0,-0.11,0.08,0.95,845.71,-1.7,-49.2,0.0,0.5,1.5,1.0,1.0,0.75,0.0,0.0,0.25,0.5,0.0,0.0,0.0,0.58,-0.23,1.14,57.86,-10.2,42.7
0.12,0.0,0.75,2.75,3.25,3.75,3.5,1.75,6.25,3.5,8.75,8.0,9.25,9.25,-0.11,0.02,0.95,974.53,-0.8,-47.4,0.0,0.5,0.25,1.75,1.0,0.5,0.0,0.0,0.25,0.5,0.75,0.0,0.0,0.45,-0.23,0.52,16.43,-6.3,26.0
0.14,0.25,0.75,2.5,3.0,3.75,3.5,2.25,7.0,3.5,9.0,8.25,9.5,10.0,-0.11,0.02,0.95,1070.09,-1.1,-48.5,0.25,0.5,0.5,0.75,0.5,0.25,0.0,0.0,0.25,1.0,0.25,0.0,0.0,0.52,-0.23,0.58,0.0,-7.0,19.8
0.16,0.25,0.75,3.0,3.0,3.75,4.5,2.25,7.0,3.75,9.5,8.25,9.75,10.0,-0.11,0.02,0.95,1140.05,-1.1,-46.9,0.25,0.25,0.5,0.5,1.0,0.25,0.0,0.0,0.25,1.25,0.5,0.0,0.0,0.45,-0.23,0.7,0.0,-3.9,8.0
0.18,0.25,0.75,3.0,3.5,3.75,4.5,2.5,7.25,3.75,9.5,8.25,9.5,10.0,-0.11,0.02,0.95,1169.92,-1.0,-45.6,0.0,0.25,0.5,0.75,0.5,1.75,0.0,0.0,0.5,1.0,0.25,0.0,0.0,0.33,-0.17,0.89,0.0,1.8,13.9
0.2,0.25,0.75,3.0,3.5,3.75,4.75,2.5,7.25,4.0,9.25,8.25,9.0,9.25,-0.11,0.02,0.95,1174.12,-0.9,-44.0,0.0,0.0,0.25,0.5,0.5,1.25,0.0,0.0,0.5,0.25,0.5,0.0,0.0,0.27,0.02,0.89,6.42,0.7,11.3
0.22,0.75,0.75,3.25,3.5,3.75,4.75,2.5,7.25,4.0,8.5,8.0,8.75,9.0,-0.11,0.02,0.95,1163.37,-0.4,-41.5,0.0,0.0,0.75,2.0,0.5,1.25,0.0,0.0,0.25,0.5,0.5,0.0,0.0,0.33,0.08,1.02,26.34,-6.3,26.6
0.24,0.25,1.0,3.0,3.75,4.25,5.25,2.5,7.25,4.25,8.5,8.0,7.75,8.5,-0.11,0.02,0.95,1138.89,-0.8,-38.9,0.0,0.0,0.25,0.5,0.25,0.5,0.0,0.0,0.5,0.0,0.5,0.0,0.0,0.39,0.2,1.08,16.76,-7.2,8.7
0.26,0.0,0.0,2.25,3.5,2.5,5.75,2.5,6.5,4.25,8.5,7.0,8.25,8.25,-0.11,0.02,0.95,1071.94,-1.8,-46.0,0.0,0.0,0.5,1.0,0.25,0.0,0.0,0.0,0.5,0.75,0.75,0.0,0.0,0.45,0.33,1.14,31.14,-10.1,-6.0
0.28,0.25,0.75,3.0,3.75,4.25,5.75,2.25,7.25,4.5,7.75,7.25,7.5,7.5,-0.11,0.02,0.95,1014.16,-0.8,-36.7,0.0,0.0,0.75,1.25,0.25,0.5,0.0,0.0,0.25,1.0,0.25,0.0,0.0,0.52,0.45,1.2,29.18,-6.9,11.8
0.3,1.25,0.75,4.0,3.75,6.25,5.75,1.25,7.25,4.5,7.25,7.0,7.5,7.0,-0.05,0.08,0.95,975.01,0.1,-29.3,0.0,0.0,0.25,0.5,0.25,0.75,0.0,0.0,0.0,0.5,0.25,0.0,0.0,0.52,0.64,1.45,28.93,1.4,11.7
0.32,2.0,0.75,4.0,3.75,5.75,6.0,2.5,7.0,4.5,7.25,7.0,7.0,6.5,-0.05,0.08,0.95,953.5,0.8,-26.5,0.0,0.0,0.25,0.25,0.25,1.0,0.0,0.0,0.5,0.5,0.25,0.0,0.0,0.45,0.7,1.58,37.23,2.4,1.1
0.34,2.0,0.0,4.5,5.75,6.5,6.75,3.75,7.0,4.5,6.0,6.5,6.25,5.5,-0.05,0.08,0.95,950.7,1.9,-18.6,0.0,0.0,0.5,0.5,0.25,0.75,0.0,0.0,0.25,0.0,0.5,0.0,0.0,0.45,0.77,1.77,41.25,-7.1,19.9
0.36,2.0,0.75,5.25,7.0,6.75,7.0,4.5,7.0,4.5,5.75,5.75,5.75,4.5,-0.05,0.08,0.95,967.33,2.9,-11.0,0.0,0.0,0.25,0.5,0.25,2.25,0.0,0.0,0.25,0.5,0.5,0.0,0.0,0.52,1.14,1.89,49.19,6.8,11.3
0.38,2.25,1.0,4.5,7.5,8.0,7.0,4.75,6.75,4.5,5.25,5.25,5.0,4.25,-0.05,0.08,0.95,985.68,2.9,-6.3,0.0,0.0,0.0,0.5,0.25,2.0,0.0,0.0,0.25,0.0,0.25,0.0,0.0,0.58,1.52,1.52,49.99,9.2,25.8
0.4,3.0,1.25,5.25,9.0,8.75,7.5,5.5,6.5,4.5,4.5,4.25,3.75,2.75,-0.05,0.08,0.95,1012.36,4.4,5.2,0.0,0.0,0.25,0.5,0.25,2.0,0.0,0.0,0.25,0.5,0.25,0.0,0.0,0.14,2.08,1.64,55.95,6.9,15.2
0.42,3.0,1.75,6.0,11.5,9.25,7.75,5.75,6.25,4.25,4.25,4.0,3.5,2.5,-0.05,0.08,0.95,1066.41,5.3,10.8,0.0,0.0,0.0,0.5,0.25,2.5,0.0,0.0,0.25,0.5,0.25,0.0,0.0,-0.42,2.45,0.89,59.52,11.5,14.5
0.44,4.0,1.75,7.0,12.5,10.0,7.75,5.75,6.0,3.75,4.25,3.75,2.5,1.5,-0.05,0.08,0.95,1127.92,6.6,18.4,0.0,0.0,0.0,0.0,0.25,2.0,0.0,0.0,0.25,1.0,0.25,0.0,0.0,-1.11,3.02,0.2,61.02,14.8,-6.4
0.46,4.0,2.25,8.0,13.5,12.0,8.0,5.5,5.5,3.0,2.75,1.75,2.25,1.5,-0.05,0.08,0.95,1186.82,7.2,27.6,0.5,0.0,2.75,0.75,1.25,2.0,0.0,0.0,0.25,0.5,0.25,0.0,0.0,-1.55,3.7,-0.11,87.37,-10.4,40.4
0.48,5.5,2.25,8.5,15.0,12.5,8.25,6.0,5.25,2.5,2.75,1.75,2.25,1.25,-0.05,0.08,0.95,1261.25,8.2,31.2,0.5,0.0,0.0,0.5,1.25,2.0,0.25,0.0,0.0,0.75,1.25,0.5,0.25,-2.23,3.2,-0.23,104.38,2.3,-1.3
0.5,6.25,2.25,9.0,16.5,14.5,8.75,6.25,4.25,2.0,0.5,0.0,2.0,1.5,-0.05,0.14,0.95,1320.57,9.3,40.5,0.0,0.0,0.75,0.5,1.0,1.75,0.0,0.0,0.25,1.5,1.25,1.75,1.75,0.02,0.02,0.08,133.28,1.8,-38.4
0.52,6.5,2.5,10.5,16.0,15.0,8.25,6.0,4.0,1.5,0.0,0.0,1.75,1.25,-0.05,0.14,1.02,1352.1,10.3,44.0,0.5,1.25,1.75,0.0,0.25,0.0,0.0,0.0,0.25,4.5,2.5,5.0,5.5,-0.73,-0.17,1.27,206.84,-1.1,-64.7
0.54,7.5,2.0,10.5,18.5,15.0,8.0,6.25,2.25,1.25,2.0,0.0,2.0,1.0,-0.11,0.2,1.08,1387.98,11.0,43.9,0.0,0.0,0.0,0.5,0.25,0.0,0.0,2.0,1.25,6.75,5.25,6.25,6.25,0.2,0.89,4.52,298.24,3.3,-82.8
0.56,8.0,2.5,11.0,17.5,15.5,6.75,6.0,2.0,1.25,0.5,1.5,0.5,1.0,-0.11,0.2,1.08,1402.36,12.3,48.2,0.75,0.0,0.0,2.25,0.0,0.0,0.75,5.25,1.0,8.5,7.0,7.25,8.25,0.02,0.39,1.2,452.43,2.7,-71.5
0.58,9.5,2.5,11.5,16.5,15.0,5.75,4.75,1.5,1.25,0.0,1.0,1.5,0.75,-0.17,0.2,1.14,1394.44,13.8,50.2,0.5,1.25,1.5,2.0,1.25,6.0,0.25,5.75,1.5,8.5,7.25,7.25,8.0,-0.05,0.2,1.08,647.95,3.6,-48.9
0.6,8.75,2.0,11.5,5.5,14.0,2.5,3.75,0.5,0.5,0.5,1.25,0.5,0.5,-0.17,0.27,1.27,1234.77,15.7,53.5,0.75,1.5,1.75,2.0,2.75,5.75,0.0,5.75,1.5,8.25,7.0,7.0,8.0,0.08,0.08,0.95,810.31,3.2,-43.5
0.62,10.5,2.5,10.5,15.0,10.5,3.25,1.25,1.5,1.0,0.75,1.25,1.75,0.25,-0.23,0.33,1.39,1136.57,15.8,50.5,0.5,1.25,1.75,1.5,2.25,6.0,1.0,5.75,1.5,8.25,7.0,6.5,8.0,0.14,0.08,0.95,901.99,3.6,-45.4
0.64,10.5,2.5,9.75,0.0,8.75,1.0,0.0,1.5,1.0,1.25,1.25,1.0,0.5,-0.3,0.45,1.58,878.81,17.1,48.9,1.0,1.5,1.5,1.25,2.75,6.0,1.0,5.75,1.5,8.5,7.0,6.75,8.0,0.08,0.08,0.89,945.92,3.5,-43.8
0.66,8.5,2.25,8.0,8.5,7.0,1.0,0.0,1.0,1.0,1.25,1.25,1.0,0.25,-0.61,0.83,2.08,730.71,17.1,49.5,0.75,1.5,2.25,2.0,3.25,6.0,0.75,6.0,1.75,8.75,7.5,6.75,8.0,0.08,0.08,0.95,975.06,2.7,-41.0
0.68,7.75,1.75,5.25,5.75,4.75,0.75,0.0,0.0,1.25,0.0,0.75,1.25,0.25,-0.67,0.95,2.52,530.77,19.3,53.6,0.75,1.5,2.0,2.75,4.5,6.0,0.75,6.5,1.75,8.75,7.75,6.5,8.0,0.08,0.08,0.95,1000.45,2.8,-37.5
0.7,5.5,1.0,3.25,3.75,4.5,0.0,0.0,0.0,0.5,0.0,0.5,0.25,0.5,-0.48,0.45,2.45,370.73,18.5,57.6,0.75,1.5,2.5,2.5,4.5,6.25,1.75,6.5,2.0,8.5,7.0,6.25,8.0,0.08,0.08,0.95,1009.71,2.4,-35.3
0.72,3.5,0.5,1.0,2.5,2.25,0.0,0.0,0.0,0.5,0.5,1.25,0.25,0.0,-0.8,0.2,2.08,227.77,16.8,43.9,0.75,1.25,2.75,3.25,4.5,6.5,1.5,6.5,2.25,8.5,7.0,6.25,8.0,0.14,0.08,0.95,1013.71,2.1,-34.1
0.74,1.5,0.75,2.0,1.75,3.75,0.0,0.0,0.0,0.0,0.0,1.0,1.0,0.5,-0.98,-0.61,0.95,127.21,12.9,34.0,0.0,1.25,2.75,3.0,4.75,7.0,1.75,6.75,2.25,8.5,7.25,6.0,7.75,0.08,0.08,0.95,991.87,2.7,-34.5
0.76,1.25,0.75,3.25,2.25,3.75,1.0,0.0,0.0,0.0,0.0,1.25,0.75,0.5,-1.05,-0.92,2.14,72.05,12.7,36.7,0.0,1.25,2.75,3.25,5.25,7.0,1.25,7.0,2.5,8.25,7.25,5.75,7.5,0.08,0.08,0.95,959.4,2.7,-32.7
0.78,0.5,0.75,3.25,2.5,1.25,1.0,0.0,0.25,0.5,0.5,0.75,1.0,0.25,-0.8,-1.11,0.95,44.41,14.0,25.6,0.75,1.25,2.75,3.5,6.0,7.5,2.75,7.0,2.75,8.25,7.25,5.75,7.5,0.08,0.08,0.95,949.73,1.9,-28.5
0.8,0.75,0.75,3.0,2.5,4.5,1.0,0.0,0.0,0.5,0.5,0.75,0.5,0.25,-0.67,-0.42,0.45,69.31,10.4,38.0,1.75,1.5,2.75,4.5,6.75,7.5,2.75,7.0,2.75,7.75,7.0,5.0,6.5,0.08,0.08,0.95,951.83,0.9,-20.6
0.82,1.0,0.75,3.25,2.5,3.75,1.0,0.0,0.25,0.25,0.5,0.5,1.0,0.5,-0.42,-0.42,0.27,100.05,11.1,33.1,2.0,1.5,2.75,5.5,6.75,7.75,2.75,7.0,2.75,7.5,6.5,3.75,6.25,0.08,0.08,0.95,961.43,0.7,-15.9
0.84,0.5,0.5,3.0,2.5,3.75,1.0,0.0,0.0,0.25,0.5,1.0,1.0,0.5,-0.42,-0.3,0.45,133.33,10.3,27.3,2.25,1.5,4.0,5.5,8.0,7.75,2.75,6.5,2.75,6.5,5.75,3.5,5.5,0.08,0.08,0.95,974.62,-0.4,-8.8
0.86,1.0,0.75,2.25,2.25,2.5,1.0,0.0,0.25,0.25,0.5,0.75,1.25,0.5,-0.42,-0.36,0.7,139.99,10.4,23.9,3.0,2.0,5.0,7.25,8.25,8.0,3.75,6.5,2.25,5.75,5.5,2.5,4.0,0.08,0.14,0.95,996.84,-2.4,2.3
0.88,0.75,0.75,2.75,2.25,1.75,1.0,0.0,0.5,0.25,0.5,0.5,1.0,0.5,-0.42,-0.3,0.89,159.2,11.5,25.3,3.25,2.25,5.25,7.75,9.25,8.25,3.0,6.25,2.0,4.75,4.5,2.25,3.5,0.08,0.14,0.95,1008.16,-2.8,8.9
0.9,1.0,0.75,3.0,2.25,4.75,1.0,0.0,0.25,0.25,0.5,0.75,1.0,0.5,-0.42,-0.17,1.08,182.43,9.6,32.1,3.5,2.25,5.5,9.0,9.5,8.25,3.0,5.75,1.75,4.75,3.75,1.75,2.25,0.08,0.14,0.95,1012.35,-3.7,15.8
0.92,0.75,0.5,2.75,2.0,4.25,1.0,0.0,0.25,0.25,0.5,0.5,1.25,0.5,-0.42,0.02,1.08,204.96,9.0,27.7,4.5,2.75,6.0,10.5,11.0,8.5,4.0,5.5,1.5,3.75,3.75,1.5,2.0,0.08,0.14,0.95,1048.83,-5.1,23.0
0.94,0.75,0.75,2.25,2.0,3.5,1.0,0.0,0.25,0.0,0.5,0.75,1.0,0.5,-0.36,0.14,1.2,217.2,8.7,28.0,4.75,2.75,6.75,11.0,11.0,8.5,3.0,5.0,1.5,3.75,3.0,1.0,2.0,0.08,0.14,0.95,1078.75,-5.6,26.6
0.96,0.75,0.75,3.0,2.25,1.25,1.0,0.0,0.25,0.0,0.25,1.0,0.75,0.5,-0.23,0.27,1.33,209.39,14.0,28.1,4.75,3.0,7.0,12.5,12.0,8.75,3.0,4.5,1.0,4.0,2.5,1.0,1.75,0.08,0.14,0.95,1122.39,-5.9,30.2
0.98,0.75,0.75,2.75,2.0,2.25,1.0,0.0,0.0,0.5,0.5,0.0,1.0,0.5,-0.17,0.45,1.7,197.65,11.9,31.1,5.5,3.0,7.75,12.5,12.5,8.75,3.0,3.75,1.0,3.5,2.5,1.0,1.75,0.08,0.14,0.95,1159.95,-6.9,33.0
1.0,0.5,0.0,3.0,2.0,3.75,1.0,0.0,0.0,0.25,0.5,0.5,0.75,0.5,-0.3,0.58,1.77,190.79,10.0,29.6,6.75,3.5,7.75,14.0,13.5,9.0,3.0,3.25,1.0,3.25,2.5,1.0,1.25,0.02,0.14,0.95,1221.15,-7.7,37.4
1.02,0.75,0.0,2.25,2.0,3.0,1.0,0.0,0.0,0.0,0.5,0.5,1.0,0.25,-0.42,0.77,2.08,184.8,10.1,28.6,6.5,3.0,8.75,0.0,13.5,8.75,2.0,2.25,0.75,2.5,2.5,0.75,0.25,0.02,0.14,0.95,1107.9,-6.7,38.4
1.04,0.5,0.0,3.0,2.0,0.0,1.0,0.0,0.0,0.25,0.5,0.75,0.75,0.5,-0.61,1.14,2.52,166.55,16.2,15.7,8.0,0.0,8.75,15.0,14.0,8.5,1.75,1.75,0.5,2.25,2.5,0.75,1.25,0.02,0.2,1.02,1119.77,-9.4,40.6
1.06,0.75,0.75,3.0,2.25,0.0,1.0,0.0,0.0,0.5,0.75,0.5,1.0,0.5,-0.17,1.77,2.2,159.66,15.5,20.1,9.0,4.75,9.25,14.0,15.5,7.75,0.0,0.5,0.25,0.0,2.5,0.25,0.5,0.02,0.2,1.08,1131.42,-11.4,54.7
1.08,0.75,0.75,1.75,1.75,3.5,1.0,0.0,0.0,0.5,1.25,0.75,1.0,0.5,1.45,2.83,1.14,169.59,6.8,19.6,9.25,4.75,9.25,0.0,12.5,0.0,1.75,1.0,0.0,0.0,1.5,0.75,1.25,0.02,0.27,1.08,987.72,-16.2,54.5
1.1,0.75,0.25,3.0,1.75,2.25,1.0,0.0,0.0,0.5,1.75,0.5,1.0,0.25,1.64,2.89,1.27,180.11,10.1,17.5,8.75,3.25,9.75,13.5,14.0,7.25,0.0,0.25,0.0,0.25,1.25,0.5,0.5,0.02,0.27,1.08,986.41,-12.1,55.8
1.12,0.75,0.0,3.0,1.75,3.75,1.0,0.0,0.25,0.5,1.25,0.5,1.25,0.5,1.7,3.33,0.58,197.47,8.5,18.1,10.5,5.25,9.25,16.0,12.0,6.75,0.0,0.0,0.0,1.5,1.5,0.75,0.5,0.08,0.33,1.2,1024.99,-13.0,55.2
1.14,0.25,0.75,1.25,1.75,3.5,1.0,0.0,0.0,0.25,0.5,0.75,1.0,0.5,2.39,3.89,0.14,195.37,5.6,21.9,9.25,4.5,9.5,12.5,12.0,5.5,0.0,0.0,0.0,0.75,2.0,0.25,0.5,0.14,0.39,1.2,1044.56,-13.6,56.1
1.16,0.5,0.75,2.25,1.0,0.75,1.0,0.0,0.25,0.5,1.75,1.0,2.0,1.25,0.64,1.7,0.39,195.24,7.0,-14.5,9.5,4.75,8.25,12.0,8.75,5.25,0.0,0.0,0.25,1.0,1.5,0.25,0.5,0.27,0.52,1.45,991.36,-14.3,56.7
1.18,0.25,0.75,1.75,1.0,3.75,1.0,0.0,0.25,0.5,2.0,1.25,5.0,4.5,-0.05,-0.8,2.64,229.33,1.4,-34.8,8.75,3.5,6.0,8.75,7.5,3.75,0.0,0.0,0.5,1.25,2.25,0.75,1.0,0.64,1.08,2.33,882.28,-13.7,48.3
1.2,0.0,0.75,1.75,1.75,3.5,1.0,0.0,0.0,1.25,5.75,3.0,6.0,6.5,0.45,0.14,0.39,299.56,-0.2,-48.5,7.25,2.0,2.75,5.5,6.0,3.25,0.0,0.0,0.75,1.0,2.25,0.75,1.0,0.52,1.08,2.58,680.16,-11.6,41.8
1.22,0.25,0.0,1.75,1.75,0.5,1.0,0.0,4.0,1.5,6.0,5.25,7.5,7.25,-0.23,0.83,2.83,409.41,-1.0,-64.7,5.5,1.5,1.5,3.75,4.75,3.75,0.0,0.0,0.5,0.0,1.5,0.75,0.75,0.45,0.39,2.45,473.77,-9.9,44.4
1.24,0.0,0.0,2.75,0.0,4.25,3.5,0.25,5.25,2.25,7.5,6.75,8.25,8.5,0.08,0.45,1.2,590.88,-2.7,-53.5,3.0,0.5,1.75,1.75,2.25,3.25,0.0,0.0,0.5,0.0,0.0,0.0,0.0,0.83,-0.42,2.08,298.1,-10.0,58.4
1.26,0.25,0.75,2.25,2.5,0.0,3.5,0.0,5.25,2.5,7.0,7.5,8.25,9.0,-0.11,0.08,1.02,738.33,-1.3,-57.3,0.5,0.0,1.25,1.5,1.25,0.25,0.0,0.0,0.25,0.5,0.0,0.0,0.0,0.58,-0.42,1.2,165.64,-13.4,44.0
1.28,0.5,0.0,3.0,1.75,1.75,4.0,0.0,6.0,2.5,8.5,7.5,8.25,9.0,-0.11,0.08,0.95,865.44,-2.0,-54.0,0.5,0.0,0.25,0.75,1.0,0.0,0.0,0.0,0.25,0.0,0.25,0.0,0.0,0.95,-1.67,1.39,15.18,-13.1,44.6
1.3,0.25,0.75,3.0,2.5,3.0,4.0,0.0,6.25,2.75,7.5,7.25,8.25,8.5,-0.11,0.08,0.95,933.96,-1.4,-46.9,0.5,0.0,0.5,0.75,1.0,1.25,0.0,0.0,0.25,0.25,0.25,0.0,0.0,0.52,-0.98,1.7,0.0,-4.2,36.7
1.32,0.25,0.75,3.0,2.75,0.0,3.5,0.0,6.5,2.75,8.25,7.5,8.25,9.0,-0.11,0.02,0.95,970.17,-1.3,-54.8,0.0,0.0,0.25,0.75,1.0,0.5,0.0,0.0,0.25,0.5,0.0,0.0,0.0,0.27,-0.42,0.64,0.0,-1.1,26.8
1.34,0.0,0.75,3.0,3.25,4.75,4.25,0.25,6.25,3.0,8.0,7.5,8.25,9.0,-0.11,0.02,0.95,1011.3,-1.5,-43.0,0.0,0.0,0.25,0.5,1.0,0.0,0.0,0.0,0.25,0.25,0.25,0.0,0.0,0.33,-0.42,0.39,0.0,-6.2,22.8
1.36,0.0,0.75,3.0,3.5,4.25,4.5,0.0,6.75,3.0,8.0,7.75,8.25,9.0,-0.11,0.08,0.95,1041.24,-1.6,-43.4,0.0,0.0,0.25,0.5,1.0,0.0,0.0,0.0,0.25,0.25,0.25,0.0,0.25,0.39,-0.3,0.58,0.0,-4.5,11.2
1.38,0.0,0.5,3.0,3.5,3.75,4.75,1.0,6.5,3.0,8.0,7.0,8.25,8.5,-0.11,0.02,0.95,1047.37,-1.4,-43.1,0.5,0.0,0.5,1.0,0.5,0.0,0.0,0.0,0.25,0.25,0.25,0.0,0.0,0.39,-0.3,0.77,0.0,-16.0,36.4
1.4,0.25,0.75,3.0,3.75,3.75,4.75,1.25,6.5,3.5,8.5,6.75,8.25,8.25,-0.11,0.02,0.95,1032.68,-1.1,-41.2,0.0,0.0,0.0,0.0,0.25,0.0,0.0,0.0,0.25,0.5,0.5,0.0,0.0,0.33,-0.17,0.95,0.0,0.3,-44.9
1.42,0.25,0.75,3.0,3.75,3.5,5.5,0.5,6.75,3.75,8.25,7.5,7.75,8.0,-0.11,0.02,0.95,1003.92,-1.4,-40.5,0.0,0.25,0.5,0.5,0.25,0.25,0.0,0.0,0.25,0.75,0.25,0.0,0.0,0.27,0.08,1.08,0.0,-6.3,8.6
1.44,1.0,0.0,3.75,3.75,2.25,5.5,3.25,6.5,4.25,7.25,7.0,7.5,7.25,-0.11,0.02,0.95,960.8,0.6,-38.1,0.0,0.0,0.25,0.0,0.25,1.5,0.0,0.0,0.25,0.75,0.25,0.0,0.0,0.27,0.2,1.14,0.0,9.2,-1.5
1.46,1.0,0.5,4.5,4.25,6.5,5.75,3.5,7.0,4.5,7.25,7.0,7.0,7.0,-0.05,0.08,0.95,962.55,0.8,-26.8,0.0,0.0,0.5,0.5,0.25,0.5,0.0,0.0,0.25,0.0,0.25,0.0,0.0,0.33,0.39,1.2,8.86,-9.8,28.6
1.48,1.5,0.75,4.25,5.5,6.75,5.75,3.75,7.0,4.5,7.0,6.5,6.75,6.25,-0.05,0.02,0.95,975.52,1.5,-21.8,0.0,0.0,0.0,0.5,0.25,0.25,0.0,0.0,0.25,0.25,0.25,0.0,0.0,0.39,0.45,1.45,22.82,-2.4,4.0
1.5,2.0,0.75,4.75,5.75,6.0,6.25,4.25,6.75,4.5,6.0,6.5,6.0,5.5,-0.05,0.02,0.95,994.05,2.5,-17.3,0.75,0.25,0.0,1.0,0.25,0.75,0.0,0.0,0.5,1.5,1.0,0.25,0.5,0.33,0.64,1.64,54.03,-2.4,-14.1
1.52,1.25,1.0,5.5,7.25,7.25,6.75,4.5,6.5,4.5,5.5,5.75,5.25,4.5,-0.05,0.08,0.95,1008.21,3.1,-9.5,0.0,0.0,1.5,0.5,0.5,1.75,0.75,0.0,0.25,0.0,0.25,0.0,0.0,0.33,0.77,2.14,69.77,-8.8,37.6
1.54,2.75,1.0,6.0,8.5,8.0,7.0,5.0,6.25,4.25,4.5,4.5,3.75,3.25,-0.05,0.08,0.95,1021.88,4.7,2.8,0.0,0.0,0.0,0.75,0.25,2.25,0.0,0.0,0.25,0.0,0.25,0.0,0.25,0.45,1.2,2.33,76.11,8.6,19.6
1.56,3.0,1.25,6.75,9.25,8.75,7.0,5.25,5.75,4.0,4.25,4.0,3.5,2.75,-0.05,0.08,0.95,1038.65,5.6,8.4,0.0,0.25,0.0,0.5,0.25,2.0,0.0,0.0,0.25,0.5,0.25,0.0,0.25,0.39,1.95,2.33,77.69,8.9,9.9
1.58,3.75,1.75,7.25,12.0,9.0,7.25,5.75,5.25,3.75,3.25,3.5,2.5,2.0,-0.05,0.08,0.95,1066.92,7.3,18.6,0.0,0.0,0.25,0.5,0.25,1.75,0.0,0.0,0.25,0.5,0.25,0.0,0.25,0.02,2.77,1.64,74.55,6.4,6.0
1.6,4.0,2.0,8.25,13.5,10.5,7.25,5.5,4.75,3.0,2.0,3.0,2.0,1.0,-0.05,0.08,0.95,1108.28,8.7,28.3,0.0,0.0,0.25,0.5,0.5,1.25,0.0,0.0,0.25,1.0,0.25,0.0,0.25,-0.48,3.45,0.83,70.99,5.5,-3.3
1.62,5.5,1.25,9.0,15.0,12.0,7.5,6.0,4.0,2.25,2.0,2.0,2.0,1.5,-0.05,0.08,0.95,1169.83,9.4,32.5,0.0,0.0,0.0,0.5,0.25,0.75,0.0,0.0,0.25,0.0,0.25,0.0,0.25,-1.05,4.27,-0.36,59.71,2.6,6.1
1.64,6.25,1.5,10.0,16.0,13.0,7.5,5.75,3.75,1.75,2.0,1.75,2.0,1.0,-0.05,0.14,0.95,1240.07,10.2,36.6,0.0,0.0,0.0,0.0,0.5,1.25,0.0,0.0,0.25,0.5,0.0,0.25,0.25,-2.48,5.02,-0.05,55.41,11.6,-10.5
1.66,7.0,1.5,10.0,15.0,14.0,7.5,6.25,2.25,1.5,1.25,1.5,2.0,1.5,-0.05,0.14,1.02,1289.99,10.9,39.5,0.0,0.0,0.5,0.5,0.0,2.0,0.0,0.0,0.25,2.0,0.75,2.25,0.75,-0.48,0.02,0.27,79.77,2.8,-47.1
1.68,8.0,2.25,10.0,16.0,14.5,7.25,5.75,2.0,1.0,1.5,0.75,1.5,1.25,-0.11,0.14,1.08,1321.93,11.3,44.6,0.0,0.0,0.0,0.0,0.25,2.5,0.0,0.0,0.75,4.0,1.5,4.5,4.0,-0.48,-0.11,1.27,154.48,6.2,-73.9
1.7,8.25,2.25,11.5,18.5,14.5,7.0,6.0,2.0,0.75,1.75,0.0,2.0,1.0,-0.11,0.14,1.08,1358.18,12.3,46.1,0.0,0.0,0.0,1.0,0.5,1.25,0.0,1.75,1.0,7.25,4.5,6.0,6.25,-0.36,1.02,3.7,269.25,4.4,-74.8
1.72,9.5,2.5,12.0,17.5,14.5,5.0,5.75,0.0,1.0,1.75,0.5,1.75,1.0,-0.11,0.2,1.14,1375.05,14.4,49.2,0.0,0.75,0.0,2.5,0.5,5.5,0.0,5.0,2.25,9.25,7.75,7.75,8.25,0.02,0.89,1.27,467.14,4.7,-58.5
1.74,10.5,2.75,12.5,17.0,14.5,4.5,5.25,0.5,1.0,2.0,1.25,1.75,1.0,-0.11,0.2,1.14,1395.62,14.7,47.9,0.75,1.25,2.75,3.0,3.0,6.25,0.75,6.5,1.75,9.0,9.0,7.25,8.25,0.08,0.14,1.08,725.39,2.0,-41.0
1.76,10.5,3.25,12.5,16.5,14.0,2.5,3.75,1.5,1.0,1.25,1.25,1.5,0.5,-0.17,0.27,1.2,1380.16,15.7,50.5,0.75,0.5,2.75,2.75,3.25,6.0,1.75,6.5,2.25,9.0,8.75,6.5,8.0,0.14,0.08,0.95,936.72,1.9,-41.2
1.78,10.5,2.75,12.5,14.0,12.5,1.5,1.25,1.25,1.0,0.0,0.0,0.5,0.25,-0.3,0.39,1.39,1297.32,17.6,59.4,0.0,0.25,2.75,2.75,3.25,6.25,1.75,6.5,2.0,8.75,8.25,6.75,8.0,0.14,0.08,0.95,1052.57,2.6,-43.1
1.8,10.5,2.5,11.0,12.0,8.5,1.0,0.0,1.5,1.0,0.5,0.75,0.5,0.5,-0.48,0.52,1.58,1111.33,18.4,55.8,0.0,0.5,2.75,2.75,3.0,6.25,1.75,6.5,2.25,8.5,8.25,6.5,8.0,0.08,0.08,0.89,1090.65,2.4,-42.5
1.82,9.5,1.0,8.0,5.75,7.25,0.0,0.0,0.5,0.5,0.0,0.0,0.25,0.25,-0.73,1.02,2.45,824.61,20.8,63.9,0.0,1.25,2.75,3.0,4.25,6.25,2.0,6.5,2.25,8.5,8.0,6.5,8.0,0.08,0.08,0.95,1099.45,2.1,-37.5
1.84,6.25,0.75,6.5,3.75,6.5,0.0,0.0,0.0,0.75,0.5,0.5,1.5,0.5,-0.8,0.7,2.7,571.73,18.4,47.8,0.75,1.5,2.75,2.75,4.5,6.5,2.0,6.75,2.25,8.25,7.75,6.0,7.5,0.08,0.08,0.95,1089.8,1.9,-33.4
1.86,5.5,1.0,5.0,1.0,5.25,0.5,0.0,0.25,0.25,0.5,0.0,0.75,0.0,-0.67,0.64,2.89,360.0,18.1,57.2,0.5,1.5,2.75,2.75,4.5,6.5,2.25,6.75,2.25,8.25,7.5,5.75,7.25,0.08,0.08,0.95,1069.31,2.0,-33.0
1.88,2.75,0.75,3.5,2.0,4.5,0.5,0.0,0.0,0.5,0.5,0.5,1.0,0.25,-1.23,-0.42,2.27,244.0,14.5,42.0,0.0,0.25,2.75,3.0,5.0,7.25,2.25,7.0,2.25,7.75,7.0,5.0,6.5,0.08,0.08,0.95,1011.2,2.9,-32.2
1.9,0.75,0.75,3.5,2.25,3.75,0.5,0.0,0.0,0.0,1.0,0.5,0.75,0.5,-1.11,-0.05,2.39,153.4,11.7,33.2,1.0,1.5,2.75,3.25,5.75,7.5,2.5,7.0,2.5,7.25,6.5,5.0,6.25,0.14,0.08,0.95,959.65,1.7,-24.0
1.92,0.25,0.75,3.25,1.75,3.75,0.75,0.0,0.0,0.0,1.5,0.5,0.75,0.5,-1.23,-1.55,1.14,93.32,8.8,26.0,1.75,2.0,2.75,3.5,6.5,7.5,2.0,7.0,2.5,7.25,6.5,5.0,6.0,0.08,0.08,0.95,924.16,1.2,-19.9
1.94,0.5,0.75,3.0,1.5,3.75,0.5,0.0,0.0,0.5,0.5,1.25,0.75,0.5,-0.92,-0.61,0.95,59.24,11.0,25.6,1.25,1.5,2.75,5.0,6.75,7.75,3.0,7.0,3.0,7.25,6.5,4.0,5.5,0.08,0.08,0.95,907.96,0.9,-16.8
1.96,0.25,0.75,3.0,2.25,3.75,0.5,0.0,0.0,0.5,0.5,0.5,1.0,0.5,-0.55,-0.48,0.27,54.96,11.0,29.0,1.75,1.75,4.0,5.75,8.0,8.0,3.5,7.0,3.0,6.25,6.5,3.5,4.5,0.08,0.08,0.95,922.39,-0.7,-7.7
1.98,0.5,0.75,3.0,2.0,3.5,1.0,0.0,0.0,0.5,0.5,0.5,1.25,0.25,-0.42,-0.42,0.27,67.82,10.8,29.3,2.25,1.75,5.25,7.0,8.25,8.0,3.0,6.5,2.75,5.75,5.5,2.5,4.0,0.08,0.14,0.95,952.69,-2.0,0.4
2.0,1.0,0.75,3.0,1.75,3.75,1.0,0.0,0.0,0.5,1.0,0.0,1.25,0.5,-0.36,-0.42,0.58,99.09,9.9,28.9,1.25,2.0,5.25,7.5,9.25,8.25,3.0,6.5,2.5,4.5,5.0,2.25,2.75,0.08,0.14,0.95,969.59,-2.1,6.2
2.02,1.0,0.75,3.0,1.75,3.75,1.0,0.0,0.0,0.5,0.5,0.75,1.25,0.75,-0.3,-0.36,0.83,137.0,10.4,25.1,2.0,2.5,5.75,8.75,9.5,8.25,3.25,5.75,2.0,4.0,4.0,1.75,2.25,0.08,0.14,0.95,976.1,-3.5,14.9
2.04,0.75,0.75,3.0,1.75,3.75,1.0,0.0,0.0,0.5,0.5,0.75,1.5,0.5,-0.36,-0.3,0.95,169.06,10.4,24.1,3.0,2.75,6.75,10.5,11.0,8.5,3.0,5.25,1.75,3.5,3.5,1.0,2.0,0.08,0.14,0.95,1006.73,-4.8,23.6
2.06,1.0,0.75,3.0,2.0,3.5,1.0,0.0,0.0,0.5,0.5,0.25,1.5,0.5,-0.36,-0.11,1.02,195.64,11.1,28.5,4.75,3.0,7.0,11.0,11.0,8.5,4.0,4.5,1.25,3.5,3.25,1.0,1.75,0.08,0.14,0.95,1049.38,-6.3,28.4
2.08,1.0,0.75,3.0,1.75,3.75,1.0,0.0,0.0,0.5,1.0,0.25,1.25,0.75,-0.36,0.08,1.2,210.68,9.5,25.0,5.0,3.0,7.75,12.0,12.0,8.25,4.5,3.25,1.0,3.75,2.5,1.0,1.25,0.02,0.14,0.95,1101.29,-7.4,33.3
2.1,0.75,0.75,3.0,2.25,3.75,1.0,0.0,0.0,0.5,1.25,0.75,1.25,0.5,-0.3,0.2,1.39,224.71,9.4,22.7,6.0,3.0,8.25,12.5,12.5,8.25,4.5,3.25,0.75,3.75,2.5,0.75,1.5,0.02,0.14,0.95,1159.46,-7.9,35.1
2.12,1.0,0.75,3.0,2.0,3.75,1.0,0.0,0.0,0.5,0.75,0.0,1.0,0.5,-0.23,0.39,1.77,228.17,10.5,33.5,7.0,3.0,8.75,11.0,13.5,8.0,4.0,2.0,0.5,3.0,2.5,0.75,0.5,0.02,0.2,0.95,1180.81,-9.3,41.3
2.14,1.0,0.75,3.0,1.75,1.25,1.0,0.0,0.0,0.5,1.0,0.5,0.75,0.25,-0.17,0.58,1.89,215.67,13.7,27.5,7.5,2.25,8.75,12.0,12.0,7.75,3.5,1.75,0.25,1.5,1.5,0.25,0.5,0.02,0.2,1.02,1145.32,-10.7,47.8
2.16,0.75,0.75,3.0,1.75,3.75,1.0,0.0,0.0,0.5,1.25,0.5,1.25,0.0,-0.36,0.77,2.33,214.47,9.9,27.5,8.0,3.0,9.0,13.0,12.5,7.75,0.0,0.5,0.25,1.5,1.75,0.25,1.0,-0.05,0.2,1.02,1111.43,-10.7,49.6
2.18,0.5,0.75,3.0,1.75,3.75,1.0,0.0,0.0,0.5,1.75,0.5,1.0,0.5,-0.61,1.2,2.77,215.39,8.0,20.8,8.0,3.25,0.0,12.0,12.5,0.0,0.75,0.25,0.25,0.0,1.5,0.25,0.0,-0.05,0.27,1.02,926.46,-12.3,59.8
2.2,0.75,0.75,3.0,2.0,2.5,1.0,0.0,0.25,0.5,1.5,0.0,1.25,0.75,-0.23,2.08,2.58,216.88,9.2,18.8,8.75,3.75,11.0,12.5,13.5,7.0,0.0,0.5,0.0,0.0,1.0,0.25,0.75,0.02,0.27,1.02,933.42,-12.8,57.0
2.22,0.0,0.5,3.0,2.25,3.75,1.0,0.0,0.0,0.5,1.5,0.5,1.25,0.25,1.27,3.27,1.77,218.89,8.1,20.1,8.75,4.5,10.5,14.0,12.0,6.0,0.0,0.0,0.0,0.0,0.0,0.25,0.5,0.08,0.33,1.14,931.68,-14.1,61.7
2.24,0.0,0.5,3.0,1.75,3.75,1.0,0.0,0.0,0.5,1.75,0.5,1.25,0.5,1.95,3.52,1.08,219.58,7.1,15.0,10.5,5.75,10.5,15.5,12.0,5.5,0.0,0.5,0.25,2.25,0.5,0.75,0.5,0.14,0.39,1.2,1050.16,-13.6,55.4
2.26,0.0,0.5,3.0,1.75,3.75,1.0,0.0,0.0,0.5,1.75,0.0,1.0,0.5,2.27,3.89,0.02,216.39,6.9,20.2,9.25,4.75,10.5,12.5,11.5,5.25,0.0,0.25,0.0,0.75,1.5,0.25,0.5,0.2,0.45,1.2,1059.83,-14.2,57.1
2.28,0.5,0.5,2.75,1.5,3.75,1.0,0.0,0.0,0.25,0.5,0.25,0.75,0.5,2.45,4.33,0.02,207.86,9.2,32.5,9.5,4.75,9.25,11.5,9.5,5.25,0.0,0.0,0.75,2.0,2.0,0.75,1.0,0.33,0.58,1.39,1059.04,-13.6,49.6
2.3,0.75,0.5,0.75,0.75,3.5,1.0,0.0,0.0,0.5,0.75,0.5,2.0,1.0,-0.23,0.95,-1.05,196.49,3.3,1.3,8.75,3.0,6.5,7.5,7.25,5.0,0.0,0.25,0.5,2.25,2.0,0.75,0.75,0.89,1.33,2.58,911.25,-12.4,45.5
2.32,0.25,0.0,2.0,0.0,3.75,0.0,0.0,0.25,0.5,0.75,1.5,3.5,5.0,-0.61,-2.61,1.83,210.16,2.1,-41.8,7.0,2.25,2.75,5.75,5.75,2.0,0.0,0.25,0.25,0.75,1.5,0.75,1.0,0.45,1.08,3.83,692.65,-13.0,46.5
2.34,0.25,0.0,0.75,0.0,0.0,1.0,0.0,0.0,1.25,4.5,2.0,6.0,6.5,0.7,0.27,0.52,251.57,-2.5,-81.8,5.0,1.25,1.75,2.75,3.75,2.75,0.0,0.25,0.25,0.0,1.25,0.25,0.5,0.39,0.2,2.7,455.41,-11.5,49.2
2.36,0.75,0.75,1.5,0.0,1.25,1.75,0.0,4.25,1.75,7.25,4.0,7.5,7.5,-0.11,0.83,2.83,358.82,-2.8,-61.6,0.5,0.0,0.5,1.5,0.5,1.75,0.0,0.0,0.0,0.0,0.0,0.25,0.0,1.02,-0.61,2.02,250.7,-5.0,45.3
2.38,0.25,0.75,0.0,2.75,3.75,2.25,0.0,5.25,3.0,8.0,7.5,9.0,9.0,0.27,0.14,1.33,555.04,-2.7,-55.7,0.75,0.0,1.25,1.25,1.0,2.0,0.0,0.0,0.5,0.0,0.25,0.5,0.0,1.39,-0.05,1.64,114.31,-8.2,33.9
2.4,0.25,0.75,1.5,2.25,3.75,4.0,0.0,7.0,2.75,0.0,8.0,9.0,9.75,-0.05,0.08,1.02,717.05,-0.8,-47.6,0.75,0.5,0.25,3.0,1.0,4.0,0.0,0.0,0.75,1.5,0.25,0.75,0.0,1.08,-1.61,1.14,37.86,0.0,20.8
2.42,0.25,0.75,3.0,3.5,4.25,4.5,1.75,6.75,3.0,8.5,7.25,8.25,9.25,-0.11,0.02,0.95,900.6,-1.3,-42.2,0.75,0.25,2.75,2.25,2.75,3.0,0.0,0.25,1.0,2.0,1.5,0.75,0.25,0.33,-0.73,1.2,54.8,-5.4,14.0
2.44,0.0,0.0,3.0,3.5,3.75,4.75,2.0,6.25,3.0,8.0,7.0,8.25,9.0,-0.11,0.02,0.95,999.17,-1.3,-44.4,0.75,0.5,1.5,2.0,4.5,2.0,0.25,0.25,0.5,2.25,1.5,0.75,0.25,0.27,-0.42,0.58,69.94,-3.1,15.0
2.46,0.5,0.0,3.0,3.75,4.25,5.5,2.25,7.0,3.0,8.25,7.0,8.25,8.75,-0.11,0.02,0.95,1078.4,-1.4,-40.7,0.25,0.0,2.5,0.5,3.75,1.5,0.25,0.25,0.0,0.5,1.5,0.0,0.25,0.33,-0.36,0.14,81.41,-6.2,26.4
2.48,0.0,0.0,3.0,3.5,4.25,5.75,2.5,7.25,3.25,8.0,6.75,7.5,8.25,-0.11,0.02,0.95,1094.28,-1.8,-40.0,0.0,0.0,0.5,0.5,1.0,0.5,0.0,0.0,0.25,0.5,0.25,0.0,0.25,0.39,-0.23,0.45,36.21,-2.1,11.7
2.5,0.5,0.5,3.25,3.75,5.75,5.75,2.25,6.75,3.5,7.5,6.5,7.0,7.5,-0.11,0.02,0.95,1099.88,-0.9,-32.4,0.0,0.0,0.5,1.25,1.0,0.5,0.0,0.0,0.25,0.25,0.25,0.0,0.25,0.45,-0.3,0.7,4.29,-5.7,24.7
2.52,1.5,0.75,3.25,4.0,4.25,5.75,3.0,7.25,3.75,7.25,6.0,6.75,6.75,-0.11,0.02,0.95,1065.77,0.0,-29.7,0.0,0.25,0.25,0.5,1.0,0.0,0.0,0.0,0.25,0.25,0.25,0.0,0.25,0.39,-0.23,0.95,0.0,-5.1,18.3
2.54,1.25,0.75,3.75,5.5,6.5,6.25,3.5,6.75,3.75,6.0,5.25,5.75,6.0,-0.11,0.02,0.95,1035.29,0.8,-18.9,0.0,0.0,0.5,1.0,0.5,0.5,0.0,0.0,0.25,0.5,0.25,0.0,0.25,0.33,0.02,0.95,0.0,-4.9,11.7
2.56,2.0,1.0,4.75,5.75,6.75,6.75,3.75,6.75,4.0,5.75,3.75,5.25,5.5,-0.11,0.08,0.95,1007.41,1.7,-11.5,0.0,0.0,0.5,0.5,0.5,0.5,0.0,0.0,0.25,0.75,0.25,0.0,0.25,0.27,0.27,1.08,11.73,-1.7,-1.0
2.58,2.0,1.0,5.25,7.25,6.75,7.0,4.25,6.5,4.0,5.25,4.0,4.5,4.25,-0.11,0.08,0.95,986.85,3.0,-5.1,0.0,0.0,0.0,0.75,0.5,0.5,0.0,0.0,0.25,0.25,0.25,0.0,0.25,0.27,0.45,1.33,24.72,0.3,6.2
2.6,2.0,1.0,5.5,8.5,8.5,7.0,4.75,6.25,3.75,4.5,4.5,3.5,3.0,-0.05,0.08,0.95,977.43,3.9,2.9,0.0,0.0,0.5,1.0,0.25,1.0,0.0,0.0,0.25,0.75,0.25,0.0,0.25,0.27,0.58,1.45,35.23,-1.2,6.2
2.62,3.0,1.0,6.5,9.25,8.5,7.0,5.25,6.0,3.75,4.25,4.0,3.25,2.5,-0.11,0.08,0.95,991.15,5.4,8.5,0.0,0.0,0.25,0.5,0.25,0.5,0.0,0.0,0.25,0.5,0.25,0.0,0.25,0.27,0.64,1.83,22.8,-0.4,-5.8
2.64,3.75,1.25,7.25,11.5,9.25,7.0,5.5,5.5,3.25,3.75,3.75,2.25,1.75,-0.05,0.08,0.95,1032.73,7.0,17.9,0.0,0.0,0.25,0.75,0.25,0.5,0.0,0.0,0.25,0.0,0.25,0.0,0.25,0.39,0.95,2.2,15.24,-5.3,14.3
2.66,4.0,1.5,8.0,13.5,10.0,7.0,4.75,5.0,3.0,2.0,2.75,2.25,1.75,-0.05,0.08,0.95,1066.55,8.3,25.3,0.0,0.0,0.25,0.5,0.25,0.0,0.0,0.0,0.0,1.0,0.25,0.0,0.5,0.45,1.45,2.58,13.07,0.7,-31.4
2.68,5.5,1.75,8.75,14.0,11.0,7.0,5.5,4.25,2.5,2.25,2.25,2.0,1.5,-0.05,0.08,0.95,1128.72,9.4,30.8,0.75,0.0,0.5,1.5,0.5,2.0,0.0,0.0,0.75,1.25,0.25,0.0,0.5,0.27,2.39,2.83,51.01,-1.3,11.0
2.7,6.0,2.0,9.5,15.0,12.5,7.0,5.5,3.75,2.0,2.0,2.0,2.0,1.25,-0.05,0.08,0.95,1196.69,10.0,35.1,0.0,0.0,0.25,0.5,0.25,0.5,0.0,0.0,0.0,0.5,1.5,0.0,0.75,-0.67,3.33,0.27,66.67,-1.0,-36.2
2.72,6.75,2.0,10.0,16.0,13.0,7.0,6.0,3.0,1.5,1.75,1.25,2.0,1.5,-0.11,0.14,0.95,1266.58,10.8,38.6,0.5,0.0,2.5,0.5,1.75,0.5,0.0,0.0,0.5,2.25,0.25,0.25,1.25,-2.55,4.95,-0.36,111.84,-6.0,-1.7
2.74,6.5,1.0,10.5,13.5,13.0,6.5,6.0,2.75,1.5,0.5,1.25,0.75,1.0,-0.05,0.14,1.02,1256.38,11.8,43.5,0.0,0.0,0.0,0.5,0.5,1.0,0.0,0.0,0.25,1.0,1.5,2.25,0.5,-3.3,5.2,-0.23,122.24,-0.1,-53.8
2.76,8.0,2.25,11.0,16.5,13.5,7.0,6.25,2.0,1.25,1.5,0.75,1.25,1.25,-0.05,0.14,1.02,1298.46,12.2,45.0,0.5,0.75,0.0,1.0,0.25,1.25,0.0,0.0,0.5,5.25,1.5,5.0,5.5,-0.11,-0.42,3.2,203.93,3.6,-67.3
2.78,8.5,2.5,12.0,18.5,14.5,5.75,6.0,2.0,0.5,2.0,0.5,1.5,1.25,-0.11,0.2,1.08,1337.02,12.9,46.3,0.0,0.0,2.75,1.0,1.75,1.75,0.5,1.75,0.5,6.75,4.5,5.75,5.5,0.58,0.77,4.39,297.49,0.5,-54.4
2.8,9.0,2.75,12.5,17.0,14.5,4.5,6.25,1.75,0.75,2.0,0.5,1.5,0.75,-0.11,0.2,1.02,1370.18,14.0,47.9,0.0,1.5,0.25,3.25,0.0,6.25,0.0,4.5,2.0,8.5,7.75,7.0,7.25,-0.11,0.7,1.14,491.21,3.9,-51.5
2.82,10.5,3.25,12.5,17.0,14.0,3.75,5.5,0.25,0.75,1.75,1.25,2.0,2.0,-0.11,0.2,1.14,1393.19,15.0,46.6,0.75,0.75,2.75,3.25,3.75,6.0,0.25,6.5,2.25,8.5,9.0,7.0,8.0,0.02,0.2,1.08,733.2,1.8,-40.0
2.84,11.0,3.25,12.5,16.5,13.0,2.25,4.5,1.5,0.75,1.75,0.75,1.5,0.75,-0.17,0.27,1.2,1379.28,16.1,50.4,0.5,1.25,2.75,3.0,4.5,6.25,1.0,6.5,2.25,8.5,8.25,7.0,8.0,0.14,0.08,0.95,940.04,2.0,-37.3
2.86,10.5,2.75,13.5,15.0,12.5,1.0,3.0,1.0,1.0,0.5,1.0,0.25,1.0,-0.23,0.33,1.33,1317.25,17.9,55.0,0.0,1.5,2.75,3.0,4.5,6.25,1.75,6.5,2.25,8.25,8.0,6.5,7.5,0.14,0.08,0.95,1056.41,2.0,-35.8
2.88,11.5,2.75,11.5,12.5,8.75,0.25,1.0,0.0,0.5,0.0,0.0,0.75,0.25,-0.36,0.45,1.52,1130.61,21.1,63.8,1.25,1.0,2.75,2.75,4.5,6.25,1.75,6.5,2.25,8.25,7.25,6.25,7.5,0.08,0.08,0.89,1091.76,1.7,-33.9
2.9,9.0,1.25,10.5,7.0,7.75,0.25,0.5,1.0,0.5,0.0,0.0,0.25,0.25,-0.55,0.83,2.33,884.29,20.6,61.4,1.25,1.25,2.75,2.75,4.5,6.5,2.0,6.5,2.25,8.25,8.0,6.25,7.5,0.08,0.08,0.95,1095.49,1.5,-33.5
2.92,8.75,2.25,6.75,5.75,5.75,0.0,0.0,1.0,0.75,0.5,0.0,0.75,0.5,-0.92,1.02,2.7,650.89,19.2,56.9,1.5,1.5,2.75,3.0,5.0,6.75,2.5,6.5,2.5,7.75,7.75,5.75,6.5,0.08,0.08,0.95,1072.41,0.9,-28.1
2.94,6.0,0.75,5.5,3.75,5.5,0.25,0.0,0.75,0.5,0.0,0.75,0.25,0.5,-0.73,0.39,2.39,444.09,18.1,53.7,1.25,1.5,2.75,3.25,5.0,7.0,2.75,6.5,2.5,7.25,7.25,5.25,6.25,0.08,0.08,0.95,1043.56,1.0,-26.0
2.96,4.0,0.75,3.0,0.0,3.75,1.0,0.0,0.0,0.25,0.5,0.5,1.0,0.25,-0.92,0.45,2.64,284.79,14.8,43.8,1.25,1.25,3.0,4.5,6.0,7.25,3.0,6.5,2.75,7.25,7.0,5.0,5.75,0.08,0.08,0.95,1016.56,0.5,-21.2
2.98,1.25,0.75,3.5,1.0,4.25,0.25,0.0,0.0,0.0,1.75,0.0,1.0,0.0,-0.92,-0.48,1.33,183.15,11.4,34.5,2.0,1.25,4.5,4.5,6.5,7.5,3.0,6.5,2.75,6.75,6.5,4.5,5.5,0.08,0.08,0.95,1002.33,-0.7,-14.8
3.0,1.0,0.25,3.25,3.5,3.75,0.0,0.0,0.0,0.25,1.5,0.5,1.25,0.5,-1.61,-1.36,2.14,108.89,12.1,24.9,2.25,1.5,5.25,5.25,6.75,7.5,3.75,6.5,3.0,6.5,6.5,3.75,4.75,0.08,0.08,0.95,988.28,-1.9,-9.0
3.02,0.5,0.25,3.5,2.75,3.75,0.0,0.0,0.0,0.25,0.5,0.5,1.0,0.25,-1.17,-1.23,0.89,66.78,14.1,33.4,2.0,1.25,5.5,6.0,7.75,7.75,4.0,6.25,3.0,6.0,6.25,3.5,4.0,0.08,0.14,0.95,984.49,-2.3,-4.8
3.04,1.25,0.75,3.25,3.25,3.75,0.75,0.0,0.0,0.0,1.75,0.5,1.25,0.25,-0.73,-0.42,0.2,77.23,10.9,29.4,3.5,2.5,6.75,7.25,8.25,7.75,4.5,6.0,3.0,5.25,5.5,2.5,3.75,0.02,0.14,0.95,1012.28,-4.5,6.3
3.06,0.75,0.75,3.25,3.25,3.75,1.0,0.0,0.0,0.0,1.75,0.5,1.25,0.5,-0.48,-0.42,0.2,101.42,9.5,25.6,3.5,2.25,7.0,8.5,8.25,7.75,5.0,5.75,2.75,4.5,5.25,2.25,2.5,0.08,0.14,0.95,1036.18,-5.5,11.7
3.08,0.25,0.5,3.25,2.75,3.75,1.0,0.0,0.0,0.0,1.75,0.5,0.75,0.5,-0.36,-0.42,0.7,126.75,8.4,25.5,4.5,2.5,7.75,9.25,9.25,7.75,5.0,5.25,2.25,3.75,4.5,2.0,2.25,0.02,0.14,0.95,1076.87,-6.7,18.9
3.1,0.75,0.0,3.0,1.75,3.75,1.25,0.0,0.0,0.0,1.0,0.5,1.0,0.5,-0.17,-0.42,1.02,141.7,8.7,25.3,5.0,2.75,8.0,10.5,9.25,7.75,5.5,4.75,1.75,3.5,3.75,1.5,2.0,0.02,0.14,0.95,1104.43,-7.6,24.6
3.12,0.25,0.75,3.0,2.5,3.75,1.0,0.0,0.0,0.5,0.5,0.5,1.5,0.5,-0.23,-0.36,0.95,166.53,10.0,25.2,4.75,2.75,8.75,11.0,10.5,7.75,5.5,4.0,1.5,3.5,3.5,1.0,1.25,0.02,0.14,0.95,1127.7,-8.2,29.7
3.14,0.25,0.5,3.0,2.0,3.75,1.0,0.0,0.0,0.5,0.25,0.5,1.25,0.5,-0.36,-0.17,0.83,180.01,10.1,26.7,6.0,3.0,9.25,11.5,11.0,7.75,5.75,3.25,1.5,3.0,2.75,0.75,1.25,0.02,0.14,0.95,1149.13,-9.4,35.1
3.16,0.5,0.0,3.0,1.0,3.75,1.25,0.0,0.0,0.5,1.25,0.75,1.0,0.5,-0.36,0.02,0.95,189.9,7.6,16.5,6.75,3.25,9.5,12.0,11.0,7.75,5.25,2.75,1.0,3.25,2.5,1.0,1.25,0.02,0.14,0.95,1175.18,-9.9,36.9
3.18,0.75,0.5,3.25,1.75,3.5,1.0,0.0,0.25,0.5,0.25,0.5,1.0,0.5,-0.17,0.14,1.33,201.58,11.1,29.8,5.25,2.75,10.5,11.0,12.0,7.5,5.25,2.0,0.75,1.75,2.5,0.25,1.0,0.02,0.14,0.95,1157.7,-10.6,41.7
3.2,0.5,0.25,3.0,1.75,3.5,1.0,0.0,0.0,0.5,0.5,0.5,0.75,0.5,-0.17,0.33,1.52,204.96,10.2,28.6,8.0,2.5,10.5,14.0,12.0,7.75,6.0,1.25,1.0,2.0,1.5,0.25,0.5,0.02,0.2,0.95,1171.19,-12.2,47.4
3.22,0.75,0.75,3.0,1.0,3.75,1.0,0.0,0.0,0.5,0.5,0.5,0.5,0.5,-0.23,0.45,1.77,201.17,10.1,33.9,8.0,2.75,10.5,13.0,11.0,7.25,5.75,0.5,0.25,0.75,1.5,0.25,0.5,-0.05,0.2,0.95,1137.96,-13.6,52.1
3.24,0.5,0.75,3.25,1.5,3.75,1.0,0.0,0.25,0.5,0.5,0.5,1.0,0.5,-0.3,0.52,2.2,202.6,9.9,28.1,8.25,3.5,11.0,14.0,11.5,7.25,4.75,0.25,0.5,1.0,1.5,0.75,0.25,-0.05,0.2,1.02,1142.33,-13.7,52.1
3.26,0.5,0.75,3.0,1.25,3.75,1.0,0.0,0.5,0.5,0.5,0.5,1.0,0.5,-0.55,1.02,2.64,205.81,8.8,25.8,8.5,3.0,12.5,14.0,13.0,6.75,0.0,0.25,0.25,0.0,1.75,0.25,0.5,-0.05,0.27,1.08,1131.1,-13.9,55.7
3.28,1.0,0.25,3.0,1.75,3.75,1.0,0.0,0.0,0.5,0.5,0.75,1.25,1.25,0.08,1.89,2.45,211.52,9.5,18.3,9.75,3.5,11.5,13.5,11.0,0.0,4.0,0.0,0.0,0.0,1.0,0.25,0.5,-0.05,0.27,1.02,1070.98,-19.7,61.1
3.3,0.75,0.25,3.0,1.0,3.75,1.0,0.0,0.0,0.5,0.5,0.5,1.0,0.5,0.77,2.95,2.14,209.49,9.9,26.0,9.75,3.75,12.5,14.5,11.5,5.25,2.25,0.25,0.25,0.0,1.5,0.0,0.5,0.02,0.33,1.08,1072.62,-16.0,58.3
3.32,0.5,0.5,3.0,1.75,3.5,1.0,0.0,0.0,0.0,0.5,0.5,1.5,0.5,1.27,3.33,0.83,209.82,10.1,24.8,10.0,4.25,12.0,14.0,11.0,5.25,0.5,0.0,0.25,0.0,1.5,0.5,0.5,0.08,0.39,1.2,1064.55,-15.8,58.2
3.34,0.75,0.0,3.0,1.0,3.75,1.0,0.0,0.0,0.0,0.0,0.5,0.5,0.5,1.95,4.08,0.14,197.43,10.9,37.3,10.5,3.75,11.5,13.0,9.25,3.75,0.0,0.0,0.25,1.5,1.0,0.0,0.5,0.14,0.39,1.2,1038.42,-16.7,58.1
3.36,0.25,0.5,3.0,0.75,3.75,1.25,0.0,0.0,0.25,0.25,0.5,0.25,0.5,2.58,4.77,-0.17,188.8,8.7,36.2,9.25,3.25,10.5,11.5,8.25,2.75,0.0,0.0,0.25,0.5,1.25,0.0,0.5,0.2,0.45,1.39,945.56,-17.7,59.4
3.38,0.75,0.5,3.0,1.0,3.75,1.0,0.0,0.5,0.5,0.5,0.5,1.75,1.5,-0.05,-0.61,0.52,197.7,7.5,10.0,9.75,3.75,8.0,9.0,6.25,3.25,0.0,0.0,0.5,2.0,1.25,0.25,0.25,0.58,1.08,2.02,833.83,-16.3,55.3
3.4,0.75,0.0,3.0,0.0,3.5,0.25,0.0,0.25,0.0,0.0,1.25,2.5,4.25,-0.3,-1.11,1.83,207.91,5.7,-22.7,8.0,1.75,5.5,5.75,5.25,4.0,0.0,0.25,0.0,1.0,1.75,0.75,0.75,0.77,1.27,3.7,666.39,-13.9,47.5
3.42,0.25,0.0,0.75,0.0,0.0,0.0,0.0,0.0,0.25,2.25,0.5,5.25,5.5,0.39,0.27,0.14,221.81,-1.3,-90.2,5.5,1.5,3.0,3.25,0.0,1.75,0.0,0.0,0.0,0.0,2.0,0.25,0.75,0.27,0.45,2.64,438.8,-19.7,47.1
3.44,1.0,1.0,1.0,1.5,0.0,3.5,0.0,1.75,1.75,0.0,3.0,7.5,7.25,0.2,0.89,4.45,281.18,0.8,-52.5,2.0,1.25,0.75,2.75,2.25,1.75,0.0,0.0,0.25,0.0,1.0,0.0,0.0,0.89,-0.11,2.2,271.43,-10.4,51.8
3.46,0.0,0.0,3.0,0.5,2.5,3.75,1.0,5.75,3.0,8.5,7.25,9.0,8.25,0.2,0.83,1.33,458.16,-1.9,-55.9,0.5,0.0,1.75,1.5,2.5,1.0,0.0,0.0,0.5,0.0,0.0,0.0,0.0,0.89,0.08,1.7,138.36,-10.6,50.7
3.48,0.0,0.0,3.25,0.75,0.0,4.0,0.0,6.75,3.0,8.5,8.0,9.0,9.25,-0.05,0.02,1.02,669.77,-2.3,-62.1,0.5,0.0,0.25,2.0,1.0,0.5,0.0,0.0,0.5,0.75,1.5,0.0,0.25,1.58,-0.61,2.02,28.68,-7.2,6.3
3.5,0.0,0.5,3.0,0.25,1.75,4.0,1.0,6.5,2.75,8.5,7.75,8.5,9.25,-0.11,0.08,0.95,857.9,-2.4,-56.9,0.5,0.0,1.75,1.25,1.0,0.0,0.0,0.0,0.25,1.0,0.0,0.0,0.0,0.7,-1.61,1.58,0.0,-15.2,34.8
3.52,0.5,0.75,3.0,0.75,3.75,4.25,1.0,6.25,2.75,8.0,7.0,8.25,9.0,-0.11,0.02,0.95,965.88,-2.0,-47.9,0.5,0.0,1.5,0.75,0.5,0.0,0.0,0.0,0.25,0.5,0.25,0.0,0.0,0.45,-0.05,0.14,0.0,-19.4,34.5
3.54,1.5,0.25,3.0,1.5,3.75,4.25,1.25,7.0,2.75,7.5,7.0,8.25,9.0,-0.11,0.08,0.95,1023.46,-1.2,-44.8,0.5,0.25,1.25,1.25,1.0,0.75,0.0,0.0,0.25,0.5,0.0,0.25,0.0,0.52,-0.3,-0.3,0.0,-11.1,38.3
3.56,1.0,0.75,3.25,2.0,3.75,5.5,2.5,7.25,3.0,8.25,7.0,8.25,9.0,-0.11,0.08,0.95,1061.4,-1.3,-41.4,0.5,0.5,1.0,0.5,1.0,0.5,0.0,0.0,0.25,0.5,0.0,0.0,0.0,0.2,-0.23,0.64,0.0,-10.5,44.9
3.58,0.5,0.5,3.25,3.75,4.25,5.5,2.5,7.0,3.25,8.25,7.0,7.5,8.5,-0.11,0.08,0.95,1092.09,-1.0,-37.8,0.5,0.25,1.75,1.0,0.5,0.0,0.25,0.0,0.25,0.5,0.25,0.0,0.0,-0.05,-0.3,1.02,0.0,-20.2,39.9
3.6,0.0,0.5,3.25,3.75,4.75,5.75,3.25,7.25,3.5,7.75,7.0,7.5,8.25,-0.11,0.08,0.95,1108.71,-1.1,-36.7,0.5,0.25,1.0,0.5,0.5,0.0,0.25,0.0,0.25,0.75,0.0,0.0,0.0,0.27,-0.23,0.89,0.0,-15.4,33.3
3.62,0.25,0.5,3.75,3.75,4.75,5.75,3.25,7.0,3.75,7.5,6.5,7.0,7.25,-0.05,0.08,0.95,1081.5,-0.4,-33.0,0.0,0.0,1.0,1.25,0.25,0.5,0.5,0.0,0.25,0.25,0.0,0.0,0.0,0.33,-0.11,0.89,0.0,-14.8,38.6
3.64,0.5,0.5,4.25,4.75,5.0,5.75,3.75,7.0,3.75,7.25,6.5,6.25,6.75,-0.11,0.02,0.95,1044.25,0.5,-27.7,0.0,0.0,1.5,0.5,1.0,0.25,0.25,0.0,0.25,0.75,0.0,0.0,0.0,0.2,0.08,0.95,21.16,-11.7,28.7
3.66,1.25,0.75,5.25,5.5,6.5,6.5,4.5,7.0,3.75,6.25,5.75,6.0,6.25,-0.11,0.08,0.95,1022.63,1.8,-17.9,0.0,0.0,1.25,0.75,0.25,0.25,0.5,0.0,0.25,0.75,0.0,0.0,0.0,0.2,0.2,1.27,43.14,-14.4,22.9
3.68,1.25,0.75,5.25,6.0,6.75,6.75,4.75,6.75,4.0,5.75,5.5,5.25,5.5,-0.05,0.08,0.95,993.98,2.2,-13.7,0.0,0.0,1.25,0.25,0.5,0.5,0.25,0.0,0.0,0.0,0.0,0.0,0.0,0.27,0.33,1.45,45.72,-16.5,52.9
3.7,1.75,1.25,5.5,7.25,7.0,7.0,5.25,6.25,4.0,5.25,4.75,4.0,4.5,-0.05,0.08,0.95,979.8,3.3,-4.5,0.75,1.5,0.75,1.25,0.25,2.75,0.0,0.0,0.5,1.25,0.25,0.75,0.0,0.33,0.52,1.64,83.62,-3.1,23.6
3.72,2.5,1.25,6.5,8.75,8.5,7.0,5.5,6.25,3.75,4.5,4.0,3.5,3.25,-0.05,0.08,0.95,1005.58,4.8,5.5,0.75,0.75,2.75,1.0,2.5,2.75,0.5,0.25,0.5,2.0,1.0,0.75,0.25,0.33,0.64,1.95,144.17,-5.2,16.7
3.74,2.5,1.25,6.75,9.5,8.5,7.0,5.75,5.75,3.75,4.25,3.75,2.25,2.5,-0.05,0.08,0.95,1016.71,5.5,11.2,0.75,0.75,2.75,1.25,1.5,1.25,0.5,0.25,0.25,0.5,1.5,0.0,0.25,0.39,0.95,2.52,177.98,-12.4,29.4
3.76,3.5,1.5,7.75,12.0,9.25,7.0,5.75,5.25,3.0,3.75,3.0,2.25,2.25,-0.05,0.08,0.95,1049.61,7.1,19.1,0.0,0.0,1.25,0.75,0.25,2.75,0.0,0.0,0.5,1.75,0.0,0.75,0.0,0.52,1.83,2.89,178.96,1.5,-0.6
3.78,4.25,1.75,8.0,13.0,10.5,7.25,5.5,5.25,3.0,2.75,2.5,2.0,1.5,-0.05,0.08,0.95,1089.98,7.9,25.9,0.0,0.0,1.0,0.5,0.25,0.5,0.0,0.0,0.25,0.0,0.0,0.0,0.0,0.58,2.95,2.39,139.28,-15.4,44.9
3.8,5.5,2.5,8.75,13.5,10.5,7.25,6.0,4.25,2.25,2.25,1.75,2.0,1.5,-0.05,0.08,0.95,1137.72,9.4,32.2,0.0,0.0,0.5,0.0,0.25,0.5,0.0,0.0,0.25,0.0,0.0,0.0,0.0,0.14,3.7,0.14,91.14,-7.1,35.1
3.82,5.5,1.75,9.25,15.0,10.5,7.5,6.5,4.0,2.25,2.0,1.75,2.0,1.5,-0.05,0.14,0.95,1183.36,9.9,32.9,1.25,0.75,1.25,0.5,0.25,2.75,0.0,0.0,0.5,1.0,0.25,0.75,0.0,-1.11,4.08,-0.23,90.29,-5.2,22.9
3.84,6.0,1.5,10.0,16.0,13.0,7.5,6.5,3.5,1.5,2.0,1.5,0.75,1.25,-0.05,0.14,0.95,1238.54,10.2,39.4,1.0,0.0,2.75,0.0,2.25,0.25,0.25,0.0,0.25,0.0,1.5,0.0,0.5,-2.8,5.02,0.45,107.5,-15.9,26.7
3.86,7.5,2.25,10.0,16.5,12.0,7.25,6.5,2.25,1.5,1.5,1.25,1.75,1.0,-0.05,0.14,0.95,1280.45,11.9,42.2,0.5,0.0,0.5,0.0,0.25,1.75,0.0,0.0,0.5,0.5,0.0,0.0,0.25,-4.05,3.52,3.02,105.65,1.9,15.2
3.88,7.5,0.75,10.5,16.0,14.5,7.25,6.25,2.25,1.25,0.75,1.25,1.0,1.25,-0.05,0.14,1.02,1303.14,11.6,44.0,1.75,0.5,0.25,1.5,0.25,3.0,0.0,0.0,0.25,1.25,1.25,1.0,2.0,0.7,-1.11,2.27,134.61,-0.9,-7.8
3.9,8.25,1.0,11.5,18.0,14.5,7.0,6.25,1.25,1.0,2.0,0.5,1.5,1.25,-0.11,0.2,1.02,1332.84,12.4,44.9,0.5,0.0,0.0,0.5,0.25,3.0,0.0,0.25,0.25,1.75,1.25,2.5,4.0,-0.23,-0.11,0.95,163.92,6.3,-55.0
3.92,9.25,2.75,12.0,18.5,14.5,6.25,6.0,1.0,0.75,2.0,0.0,1.5,1.25,-0.11,0.2,1.08,1372.2,13.3,48.5,0.0,0.0,0.0,1.0,0.0,4.0,0.0,0.75,0.25,7.25,2.75,11.5,5.25,-0.55,1.08,7.45,274.36,4.1,-75.1
3.94,9.75,2.5,12.5,16.5,14.5,4.5,6.0,1.75,1.0,1.75,0.5,1.75,1.0,-0.11,0.2,1.08,1390.09,14.1,47.2,0.75,1.0,0.25,1.75,1.75,5.5,0.25,5.5,1.75,9.25,8.0,7.0,8.0,-0.3,0.95,1.14,455.03,4.4,-52.4
3.96,10.5,3.0,12.5,18.0,14.5,4.0,5.5,0.5,0.75,2.0,0.75,1.25,0.75,-0.17,0.27,1.14,1400.64,15.1,51.0,1.75,1.5,2.75,2.75,4.75,6.25,0.75,6.5,1.75,9.0,8.25,7.0,8.75,-0.05,0.02,1.08,731.9,1.8,-35.5
3.98,11.5,3.75,13.0,16.0,14.0,0.5,4.0,1.0,0.5,1.0,0.75,1.25,0.5,-0.23,0.33,1.14,1368.94,17.6,55.2,1.0,1.5,2.75,3.0,4.5,6.25,0.5,6.5,1.5,8.75,7.75,6.0,8.25,0.08,0.08,0.95,937.45,2.4,-34.8
4.0,12.0,3.5,12.5,14.5,12.5,1.0,1.75,0.75,0.75,0.25,0.5,1.25,0.5,-0.23,0.39,1.27,1300.19,18.2,57.7,1.0,1.25,2.75,3.0,3.75,6.25,1.75,6.5,1.5,8.75,7.0,6.25,8.25,0.14,0.08,0.89,1055.24,2.2,-35.9
4.02,12.0,3.0,12.0,9.5,8.75,0.0,0.0,0.75,0.5,0.0,0.5,0.25,0.5,-0.42,0.52,1.39,1096.54,21.0,63.1,1.0,1.5,2.75,3.0,4.5,6.5,1.75,6.5,1.5,8.75,6.5,6.25,8.0,0.14,0.08,0.89,1087.15,2.3,-33.0
4.04,9.5,1.5,9.0,7.25,6.75,0.0,0.0,0.0,0.5,0.0,0.0,0.25,0.25,-0.61,0.83,2.14,835.23,22.0,65.6,1.0,1.5,2.75,3.0,4.5,6.25,1.75,7.0,1.75,8.75,7.0,6.25,8.25,0.08,0.08,0.95,1089.35,2.2,-34.1
4.06,8.75,1.25,6.5,6.5,5.75,0.0,0.0,1.0,0.5,0.5,0.0,1.75,0.25,-0.67,1.14,2.95,611.65,19.2,52.6,1.25,1.0,2.75,3.25,4.5,7.0,1.75,7.0,1.5,8.75,7.0,5.75,8.0,0.08,0.08,0.95,1075.58,2.4,-32.5
4.08,6.25,0.75,4.25,4.0,3.75,0.0,0.0,0.0,0.5,0.5,0.25,1.75,0.25,-0.61,0.33,2.39,400.31,19.8,48.1,0.75,1.25,2.75,2.75,4.75,7.0,1.75,7.25,1.5,8.25,6.5,5.5,8.0,0.08,0.08,0.95,1057.1,3.0,-32.3
4.1,3.25,0.75,4.25,1.75,5.0,1.0,0.0,0.0,0.0,0.5,0.5,0.5,0.5,-0.98,0.27,2.27,277.2,14.3,48.1,1.5,1.5,2.75,3.25,5.0,7.25,2.0,7.25,1.5,8.25,5.75,5.0,7.5,0.14,0.08,0.95,1020.72,2.4,-26.6
4.12,2.0,0.5,3.25,1.0,3.75,1.0,0.0,0.0,0.0,0.5,0.5,0.75,0.5,-1.11,-0.3,1.89,176.8,12.5,38.4,2.0,1.25,2.75,3.75,6.5,7.75,2.5,7.0,2.0,7.5,5.5,4.25,6.5,0.14,0.08,0.95,975.13,1.7,-19.0
4.14,1.75,0.5,3.25,1.75,3.75,0.0,0.0,0.0,0.0,0.0,0.5,0.5,0.5,-1.42,-1.17,2.14,100.84,16.0,46.0,2.0,1.75,2.75,4.5,6.75,7.75,2.75,7.0,2.25,7.25,5.5,3.5,6.25,0.08,0.14,0.95,942.76,1.2,-14.9
4.16,1.0,0.75,3.25,2.25,1.75,0.0,0.0,0.0,0.0,0.0,0.5,0.5,0.5,-1.11,-1.05,0.83,39.69,18.9,42.9,2.25,1.5,3.25,5.25,7.0,8.0,2.75,7.0,2.25,7.25,5.5,3.0,5.5,0.08,0.14,0.95,914.39,0.6,-10.8
4.18,0.5,0.5,3.25,2.25,3.75,0.0,0.0,0.0,0.0,2.0,0.5,1.0,0.5,-0.73,-0.42,0.52,38.35,10.1,21.0,3.0,1.75,5.0,6.0,8.0,8.0,2.75,7.0,2.25,6.25,4.75,2.5,4.75,0.08,0.14,0.95,924.22,-1.3,-1.0
4.2,0.75,0.75,3.25,3.0,3.75,0.0,0.0,0.0,0.0,2.0,0.5,0.75,0.5,-0.36,-0.36,0.2,62.7,10.9,27.2,3.25,1.75,5.25,7.25,8.5,8.25,4.0,6.5,1.75,6.0,4.0,2.25,4.0,0.08,0.14,0.95,952.47,-2.2,5.2
4.22,0.5,0.5,3.0,1.75,3.75,0.0,0.0,0.0,0.0,1.75,0.5,1.25,0.5,-0.3,-0.3,0.45,93.38,9.8,18.3,3.75,2.0,5.25,8.25,9.25,8.5,3.0,6.5,1.5,5.25,3.75,1.75,3.0,0.08,0.14,0.95,986.63,-2.7,12.2
4.24,1.0,0.5,3.0,2.5,3.75,0.0,0.0,0.0,0.0,1.75,0.5,1.25,0.5,-0.42,-0.3,0.64,129.73,10.9,22.7,3.5,2.25,5.5,9.0,9.5,8.5,3.0,5.75,1.5,4.0,3.25,1.25,2.25,0.08,0.14,0.95,991.91,-3.7,19.1
4.26,1.25,0.75,3.0,2.25,3.75,0.0,0.0,0.0,0.0,1.5,0.5,1.0,0.5,-0.55,-0.3,0.83,162.77,11.7,28.4,4.75,2.75,6.25,9.75,11.0,8.5,3.0,5.5,1.0,3.75,2.75,1.0,1.25,0.08,0.14,0.95,1012.35,-5.1,27.8
4.28,0.75,0.25,3.0,1.75,3.75,0.0,0.0,0.0,0.0,1.5,0.5,1.0,0.5,-0.55,-0.11,0.89,179.65,10.6,22.2,5.75,3.0,6.75,10.5,11.0,8.5,2.5,4.75,1.0,3.75,2.5,0.75,1.25,0.08,0.14,0.95,1036.03,-6.1,31.5
4.3,1.0,0.75,3.0,1.75,3.75,0.0,0.0,0.0,0.0,1.25,0.5,1.0,0.5,-0.48,0.14,1.02,190.25,11.6,28.0,5.75,3.0,7.0,12.0,12.0,8.75,3.0,4.25,0.75,3.5,2.5,1.0,1.5,0.08,0.14,0.95,1087.78,-6.5,32.8
4.32,0.75,0.0,3.0,2.25,3.75,0.25,0.0,0.0,0.0,1.75,0.5,0.5,0.5,-0.42,0.27,1.2,201.31,9.9,25.3,5.75,2.0,7.75,11.0,12.0,8.25,3.25,3.0,0.25,2.0,2.25,0.25,1.25,0.02,0.14,0.95,1083.15,-8.0,39.3
4.34,1.0,1.0,3.0,1.75,3.75,0.0,0.0,0.0,0.0,1.25,0.5,0.75,0.5,-0.42,0.45,1.33,207.67,11.6,31.6,7.25,3.0,7.75,12.5,12.5,8.5,4.0,3.0,0.75,2.75,2.5,0.75,1.25,0.02,0.2,0.95,1127.35,-8.5,38.5
4.36,1.0,0.5,3.0,2.25,3.75,0.0,0.0,0.0,0.0,0.5,0.5,0.75,0.5,-0.36,0.58,1.58,208.67,13.3,36.1,7.75,3.25,8.25,13.0,13.5,8.75,4.0,2.0,0.25,1.0,2.5,0.75,1.0,0.02,0.2,0.95,1152.98,-9.8,45.1
4.38,0.5,0.25,3.0,1.75,3.75,1.25,0.0,0.0,0.0,0.75,0.5,1.0,0.5,-0.42,0.7,1.95,209.02,8.8,27.2,7.75,2.75,8.5,12.0,12.0,8.5,3.5,1.75,0.25,2.25,1.75,0.75,0.0,-0.05,0.2,1.02,1151.39,-10.1,46.3
4.4,0.5,0.5,3.0,1.0,3.75,1.25,0.0,0.0,0.0,0.75,0.5,1.0,0.5,-0.61,1.02,2.33,204.87,8.4,26.8,8.75,3.75,8.75,14.5,12.0,8.25,3.25,0.25,0.25,1.5,1.5,0.75,0.25,-0.05,0.2,1.02,1155.79,-11.9,51.7
4.42,0.5,0.75,3.0,1.75,3.75,1.75,0.0,0.0,0.0,1.5,0.75,0.5,0.5,-0.8,1.52,2.7,208.75,6.8,27.6,9.5,3.75,9.25,15.0,13.5,7.75,1.75,1.5,0.25,1.0,1.75,0.75,1.0,0.02,0.27,1.02,1189.28,-11.4,49.7
4.44,0.25,0.0,3.0,1.75,3.75,1.25,0.0,0.0,0.0,1.25,0.5,1.0,0.5,-0.3,1.89,2.08,207.88,7.4,21.0,9.75,3.75,9.25,14.0,12.5,6.5,0.0,0.75,0.0,0.0,1.5,0.0,1.0,0.02,0.33,1.02,1168.45,-12.8,56.3
4.46,0.0,0.5,3.0,1.0,3.75,1.0,0.0,0.0,0.0,1.5,0.5,0.75,0.5,1.33,2.89,1.89,206.08,6.6,20.9,11.0,5.25,9.25,15.0,12.0,7.25,0.5,0.0,0.5,2.0,0.75,0.75,0.5,0.02,0.33,1.02,1190.41,-12.8,55.0
4.48,0.25,0.75,3.0,2.25,3.75,1.0,0.0,0.0,0.0,1.25,0.5,0.5,0.5,2.02,2.89,1.14,206.71,8.5,30.8,10.5,6.0,10.5,16.0,12.5,6.25,0.0,0.25,0.25,0.25,1.5,0.75,1.25,0.08,0.39,1.08,1219.49,-13.7,55.8
4.5,0.25,0.25,3.0,2.0,3.75,1.0,0.0,0.0,0.0,2.0,0.5,1.25,0.75,2.2,3.64,0.14,212.38,6.7,13.8,9.5,4.75,9.75,13.0,12.0,5.5,0.0,0.0,0.25,0.0,1.5,0.0,0.5,0.14,0.45,1.14,1169.72,-14.2,59.5
4.52,0.25,0.75,3.0,1.75,3.75,0.25,0.0,0.0,0.0,0.75,0.5,0.25,0.5,1.64,3.83,-0.36,207.72,10.9,36.5,9.25,4.25,8.75,10.5,9.25,5.0,0.0,0.0,0.25,2.0,0.75,0.75,0.5,0.27,0.52,1.45,1058.71,-13.8,54.0
4.54,1.0,0.75,3.0,1.0,3.75,1.0,0.0,0.0,0.5,2.0,0.5,0.75,0.5,-0.42,-0.11,-0.42,212.99,7.9,21.8,8.75,3.5,5.25,7.5,7.0,5.25,0.0,0.25,0.25,2.0,1.5,0.75,0.5,0.95,1.52,2.89,882.64,-11.9,49.0
4.56,0.25,0.0,1.75,0.5,0.0,0.0,0.0,0.0,0.0,0.0,0.0,2.5,2.75,-0.48,-1.61,1.02,183.13,8.8,-53.4,7.5,2.5,2.75,5.25,5.5,5.0,0.0,0.0,0.25,1.75,1.5,0.25,0.75,0.2,0.77,3.33,676.6,-9.9,46.9
4.58,0.25,0.0,0.75,1.0,0.0,0.0,0.0,0.0,0.0,3.25,0.5,5.25,5.5,0.2,0.02,0.52,201.81,-1.2,-80.8,2.0,0.75,2.75,2.0,3.75,1.5,0.0,0.0,0.0,0.0,0.5,0.0,0.0,0.33,0.33,2.64,399.06,-12.8,57.7
4.6,1.0,0.5,0.75,1.75,3.75,3.75,0.0,2.25,2.0,8.5,4.75,8.25,6.75,-0.67,1.14,1.64,322.07,-2.5,-48.8,0.75,0.25,0.0,1.25,1.0,2.75,0.0,0.0,0.25,0.0,0.25,0.0,0.0,1.14,0.08,1.2,220.53,1.1,44.9
4.62,0.75,0.5,1.75,2.5,2.25,3.5,0.0,6.25,3.0,9.0,8.0,9.0,9.75,0.27,0.08,1.39,555.1,-2.1,-54.4,0.5,0.5,0.0,0.5,1.0,2.75,0.0,0.0,0.25,0.25,0.0,0.0,0.0,1.02,-1.36,1.33,63.78,5.6,43.2
4.64,0.25,1.0,3.0,0.0,3.5,4.0,0.0,6.5,2.5,9.25,8.25,9.0,10.0,0.02,0.08,1.02,805.85,-2.7,-53.8,0.5,0.5,1.25,0.5,1.0,2.75,0.0,0.0,0.25,0.0,0.0,0.0,0.0,0.64,-1.23,1.02,0.0,-3.0,51.0
4.66,0.25,0.75,3.0,1.5,1.25,4.5,1.25,7.25,2.5,8.75,8.0,9.0,9.5,-0.11,0.08,0.95,983.53,-2.0,-53.8,0.5,0.5,1.25,0.0,1.75,2.75,0.0,0.0,0.25,0.75,0.0,0.0,0.0,0.2,-0.67,0.95,0.0,0.3,38.7
4.68,0.0,0.75,3.0,2.5,2.25,4.0,1.25,7.0,2.75,8.75,8.0,9.0,9.25,-0.11,0.02,0.95,1078.75,-1.5,-50.7,0.0,0.5,0.5,0.0,1.0,2.75,0.0,0.0,0.25,0.75,0.0,0.0,0.0,0.14,-0.36,0.52,0.0,7.9,28.8
4.7,0.0,0.75,3.0,2.5,0.0,4.0,1.25,7.0,2.75,8.25,7.5,8.75,9.25,-0.11,0.08,0.95,1078.66,-1.5,-55.0,0.5,0.0,0.75,0.0,0.25,2.25,0.0,0.0,0.25,0.75,0.0,0.0,0.0,0.2,-0.3,0.27,0.0,2.6,24.6
4.72,0.75,0.75,3.0,2.75,0.75,4.5,1.5,7.0,2.75,8.75,7.5,9.0,9.25,-0.11,0.08,0.95,1080.61,-1.2,-50.5,0.75,1.25,2.75,0.5,3.75,3.75,0.0,0.25,0.25,2.25,1.25,0.75,0.75,0.33,-0.17,0.33,0.0,-1.8,16.3
4.74,1.0,0.75,3.0,3.0,0.0,4.5,1.75,7.0,2.5,8.5,7.5,8.5,9.0,-0.11,0.08,0.95,1066.58,-0.8,-49.9,0.75,1.25,2.75,0.0,4.5,3.5,0.0,0.25,0.5,2.25,1.5,0.75,0.5,0.52,-0.23,0.64,94.06,-2.0,16.4
4.76,1.0,0.75,3.0,3.25,3.5,4.5,1.75,7.25,3.0,8.5,7.5,8.25,9.0,-0.11,0.02,0.95,1078.81,-0.9,-42.2,0.75,1.25,2.75,0.75,4.25,3.75,0.25,0.0,0.5,2.5,1.0,0.75,1.0,0.58,-0.17,0.83,183.76,-1.9,16.3
4.78,1.5,0.75,3.0,3.5,3.75,4.5,1.75,7.25,3.0,8.5,7.0,8.25,9.0,-0.11,0.02,0.95,1070.88,-0.7,-40.0,0.75,1.25,2.75,0.5,3.25,3.75,0.5,0.0,0.5,2.25,1.5,0.75,0.5,0.52,0.08,0.89,234.3,-3.1,15.8
4.8,1.75,0.75,3.0,3.5,3.75,5.0,1.75,7.25,3.0,8.75,7.0,8.0,8.25,-0.11,0.02,0.95,1058.03,-0.6,-37.9,1.25,1.0,2.75,0.0,3.75,3.75,0.5,0.25,0.25,2.25,1.5,0.75,0.5,0.45,0.33,0.83,267.61,-2.8,16.7
4.82,2.0,0.0,3.25,4.0,3.75,5.25,0.75,7.25,3.5,8.25,7.0,7.5,8.25,-0.11,0.08,0.95,1006.91,-0.6,-37.2,1.25,1.0,2.75,0.5,3.5,3.5,0.5,0.0,0.25,2.5,1.5,0.75,0.5,0.45,0.45,1.02,282.37,-3.7,16.5
4.84,2.0,0.75,3.5,3.75,4.25,5.75,2.25,7.25,3.75,7.75,7.25,7.5,7.5,-0.11,0.08,0.95,964.34,0.2,-32.3,1.25,1.0,2.75,0.5,2.75,3.25,0.5,0.25,0.25,2.5,1.5,0.75,0.75,0.45,0.58,1.33,283.87,-3.8,12.0
4.86,1.25,0.75,3.75,3.75,5.5,5.75,2.5,7.25,3.75,7.5,6.75,7.0,7.25,-0.11,0.08,0.95,943.66,0.0,-29.8,0.0,0.75,2.75,0.5,2.75,3.5,0.5,0.25,0.5,2.5,1.5,0.75,0.75,0.45,0.7,1.45,276.71,-1.3,4.4
4.88,1.0,0.25,4.5,3.75,5.25,5.75,2.75,7.25,4.25,7.25,6.5,6.75,6.75,-0.11,0.08,0.95,933.99,0.4,-29.2,0.75,0.25,2.75,1.5,3.25,3.25,0.5,0.0,0.25,2.5,1.5,0.75,0.75,0.52,0.83,1.58,272.3,-3.5,10.7
4.9,2.0,0.75,5.25,5.5,6.75,6.25,3.75,7.25,4.25,6.0,6.25,6.0,6.25,-0.05,0.08,0.95,959.38,2.2,-17.2,0.5,0.25,2.75,1.25,2.5,3.25,0.5,0.25,0.25,2.5,1.5,0.75,0.5,0.64,0.95,1.77,262.64,-3.1,7.7
4.92,2.5,0.75,5.25,6.25,6.75,7.0,4.5,7.0,4.0,5.75,5.75,5.25,5.5,-0.11,0.08,0.95,984.39,2.6,-11.6,0.75,1.0,2.75,0.75,1.75,3.25,0.5,0.0,0.25,2.0,1.5,0.75,0.5,0.77,1.2,2.14,250.66,-4.9,12.7
4.94,3.5,0.75,5.5,8.25,7.75,7.0,4.75,6.75,4.0,4.25,4.75,3.75,4.25,-0.05,0.08,0.95,1013.45,4.2,0.5,1.0,0.5,2.75,0.5,2.75,3.25,0.5,0.0,0.25,2.5,1.5,0.75,0.75,0.7,1.7,1.7,240.82,-3.4,8.9
4.96,4.25,1.0,7.0,11.0,8.75,7.0,5.75,6.25,3.25,3.25,3.25,2.5,2.5,-0.05,0.08,0.95,1040.22,6.7,16.1,0.75,1.25,2.75,1.0,1.75,3.0,0.5,0.0,0.25,2.5,1.5,0.75,0.5,-0.17,2.7,3.39,228.52,-5.0,11.8
4.98,5.5,1.0,8.0,12.5,9.5,7.0,6.25,5.5,2.5,2.0,2.75,2.25,2.25,-0.05,0.08,0.95,1078.7,8.6,24.5,1.25,1.5,2.75,0.75,2.75,3.25,0.5,0.0,0.25,2.25,1.5,0.75,0.5,-0.42,2.58,1.14,235.4,-5.1,18.8
5.0,5.75,1.25,9.0,14.0,10.5,7.0,6.0,4.75,2.25,2.25,1.75,1.75,2.0,-0.05,0.14,0.95,1121.74,9.4,30.4,1.0,1.25,2.75,1.75,1.75,3.25,0.0,0.25,0.25,2.5,1.5,0.75,0.5,-1.05,2.89,0.52,240.27,-4.9,14.3
5.02,6.25,1.75,9.5,15.0,11.5,7.0,6.75,4.0,1.75,2.0,1.5,1.5,1.5,-0.05,0.14,0.95,1178.66,10.3,36.0,0.75,1.25,2.75,0.75,2.25,2.75,0.0,0.0,0.25,2.5,1.5,0.75,0.75,-1.92,4.14,-0.67,241.27,-4.2,10.1
5.04,7.0,2.25,10.0,16.0,12.0,6.5,6.75,3.5,1.25,2.5,0.75,1.75,1.25,-0.05,0.14,1.02,1240.79,11.1,39.1,0.0,0.0,0.25,0.75,0.5,2.0,0.0,0.0,0.25,3.0,0.25,2.25,0.5,-2.36,3.95,-0.92,208.26,5.1,-41.0
5.06,7.75,2.25,11.0,16.5,13.0,6.0,7.0,2.25,1.25,1.25,1.25,1.0,1.5,-0.05,0.14,1.02,1293.38,12.7,44.1,0.0,0.0,2.0,1.0,2.25,4.5,0.0,0.25,1.0,5.75,2.75,3.0,4.5,-0.55,0.52,0.7,248.52,3.6,-38.5
5.08,8.0,1.5,11.5,17.5,11.5,5.5,6.25,2.0,1.0,3.0,1.25,1.0,1.5,-0.11,0.2,1.08,1315.73,13.0,41.5,0.0,1.0,1.0,0.5,2.75,4.5,0.0,2.5,1.0,7.0,4.25,5.75,4.75,-0.17,0.83,2.45,318.95,4.4,-46.2
5.1,9.5,2.25,12.0,18.5,13.0,3.75,6.5,0.25,1.0,2.75,1.25,2.0,1.25,-0.11,0.2,1.08,1344.34,14.9,44.8,0.0,1.25,2.5,3.0,4.5,6.25,0.0,5.25,2.5,8.25,9.0,6.5,7.75,-0.17,0.64,1.2,531.08,2.2,-38.7
5.12,10.5,2.25,12.5,17.0,13.0,2.25,6.0,0.25,0.75,2.0,0.5,0.75,1.0,-0.11,0.2,1.14,1333.88,16.7,51.9,0.0,0.75,2.75,3.0,5.0,6.0,0.75,4.5,2.0,7.75,7.0,5.75,7.0,0.02,0.08,0.89,703.05,2.1,-34.7
5.14,11.5,2.5,12.0,16.5,12.5,1.0,5.5,1.5,0.75,1.0,1.25,1.75,1.0,-0.17,0.27,1.2,1317.64,17.2,49.5,0.75,1.25,1.25,3.0,4.5,6.25,1.5,4.5,1.5,7.75,7.25,5.75,6.5,0.14,0.02,0.89,834.89,2.5,-34.1
5.16,11.0,2.5,12.5,14.0,10.0,1.0,3.75,0.75,0.75,0.0,1.25,0.25,1.0,-0.3,0.39,1.45,1217.88,19.3,56.3,0.75,1.5,1.25,3.0,5.25,6.25,1.75,4.75,2.0,8.0,7.0,5.75,6.5,0.14,0.08,0.89,882.78,2.4,-31.9
5.18,10.5,1.25,11.5,8.5,8.5,0.25,2.5,1.0,0.75,0.5,0.0,1.25,0.75,-0.36,0.52,1.7,1032.77,20.0,54.1,1.5,1.5,2.75,3.25,5.75,6.75,2.0,5.25,2.5,8.25,7.5,5.75,6.5,0.08,0.14,0.95,933.31,0.8,-26.7
5.2,11.5,2.25,10.0,8.25,6.75,0.0,2.25,1.0,1.0,1.75,0.75,1.5,0.5,-0.48,0.83,2.39,868.61,19.8,50.0,2.0,1.5,3.25,3.25,6.5,7.0,2.25,5.5,3.0,7.75,8.0,5.75,6.25,0.08,0.14,0.95,986.54,0.0,-23.3
5.22,9.0,0.75,6.5,5.5,3.0,0.0,0.75,0.0,0.75,0.75,1.0,1.0,0.25,-0.55,0.7,2.83,628.29,23.0,52.8,2.25,1.5,5.0,4.25,6.5,7.25,2.75,5.25,3.25,7.5,7.75,5.0,6.25,0.08,0.08,0.95,1056.99,-1.5,-17.4
5.24,6.5,0.0,4.75,3.75,3.5,0.0,0.0,0.0,0.5,2.0,0.0,0.25,0.25,-0.17,0.2,2.39,421.29,19.4,50.6,2.5,1.5,5.25,5.25,6.75,7.25,3.0,4.75,3.0,6.75,7.25,4.25,5.5,0.02,0.14,0.95,1100.29,-2.4,-11.3
5.26,4.5,0.0,3.75,3.0,4.25,0.0,0.0,0.0,0.5,1.0,0.0,1.5,0.25,-0.61,0.33,2.39,281.33,17.1,41.5,3.5,1.75,5.5,5.25,7.25,7.25,3.5,4.5,3.0,6.0,6.5,3.5,4.0,0.08,0.14,0.95,1102.86,-3.7,-2.6
5.28,3.0,0.75,3.75,0.75,3.0,0.25,0.0,0.0,0.5,0.5,0.0,0.5,1.0,-0.92,-0.55,1.77,185.14,16.6,41.5,4.0,2.0,6.75,5.75,8.0,7.25,4.0,3.25,3.0,4.5,5.5,2.5,3.0,0.08,0.14,0.95,1069.24,-5.9,9.0
5.3,0.5,0.75,3.5,3.25,3.75,0.25,0.0,0.0,0.0,0.0,0.5,0.25,1.0,-0.86,0.14,0.89,114.21,13.4,41.3,5.5,2.25,7.0,7.25,8.25,7.25,4.0,3.0,2.75,4.0,5.5,2.25,2.25,0.08,0.14,0.95,1031.84,-7.5,16.3
5.32,0.75,0.75,3.25,1.25,3.75,1.0,0.0,0.0,0.0,0.5,0.75,1.0,0.5,-1.11,-0.11,0.95,76.5,10.6,30.4,6.0,2.5,8.0,7.5,8.25,7.25,4.5,2.0,2.25,3.5,4.75,1.75,2.0,0.02,0.14,0.95,1005.63,-9.0,23.2
5.34,0.75,0.75,3.25,2.25,3.75,0.25,0.0,0.0,0.5,1.75,1.0,1.0,1.75,-0.48,-0.3,0.77,83.87,8.8,10.9,7.0,3.0,8.75,9.0,8.25,7.0,4.75,1.75,2.25,2.5,3.75,1.0,1.5,0.02,0.14,0.95,998.57,-11.0,32.8
5.36,0.25,0.75,3.25,2.5,3.75,0.5,0.0,0.0,0.5,1.75,0.5,1.0,0.5,-0.17,0.02,0.7,98.38,9.4,21.8,8.0,3.0,9.25,9.25,8.5,6.75,5.0,1.25,1.5,2.5,3.5,1.0,1.25,0.02,0.14,0.95,1015.84,-12.0,36.9
5.38,0.25,1.0,3.25,2.25,3.75,0.0,0.0,0.0,0.5,1.75,0.5,1.25,0.5,-0.11,0.27,0.52,122.41,10.3,20.0,9.0,3.75,10.5,10.5,8.5,6.0,5.25,0.5,1.0,1.0,2.5,0.25,0.5,0.02,0.2,1.02,1019.33,-15.1,50.0
5.4,0.25,0.0,3.0,2.25,3.75,1.0,0.0,0.0,0.5,1.75,0.5,1.25,0.5,-0.11,0.83,0.14,145.71,7.6,14.9,8.75,3.25,10.5,8.0,8.25,0.0,4.5,0.0,0.75,1.0,1.5,0.25,0.75,0.02,0.2,1.2,926.03,-19.8,54.0
5.42,0.75,0.25,3.0,2.75,3.75,1.25,0.0,0.0,0.5,0.5,0.5,1.0,0.5,-0.3,1.2,-0.36,169.09,10.3,29.9,10.0,4.0,11.0,8.0,6.75,2.75,1.75,0.25,0.5,1.25,1.5,0.25,0.5,-0.11,0.14,1.58,856.15,-18.3,55.7
5.44,0.25,0.75,3.0,1.25,3.75,1.5,0.0,0.0,0.5,0.5,0.75,1.0,0.5,-0.05,2.2,-1.17,180.88,8.3,25.4,9.5,3.5,11.5,6.25,6.25,0.0,0.0,0.0,0.5,0.75,1.5,0.25,0.25,0.2,0.27,1.64,744.19,-21.9,59.8
5.46,0.25,0.75,3.0,2.0,3.75,1.75,0.0,0.0,0.5,0.25,0.5,1.25,0.5,0.64,2.27,-0.98,203.25,8.6,28.3,9.25,4.0,10.5,5.75,2.5,0.0,0.0,0.0,0.5,1.75,0.0,0.0,0.5,0.2,0.33,1.77,633.01,-23.6,62.6
5.48,0.5,0.75,1.5,2.25,0.0,1.0,0.0,0.0,0.5,1.25,0.0,1.75,0.25,0.02,2.02,-0.8,187.11,10.4,5.3,9.0,4.0,8.75,4.75,0.0,0.0,0.0,0.0,0.75,0.5,0.75,0.0,0.5,0.02,0.45,2.02,506.46,-26.8,65.2
5.5,1.0,0.75,3.0,2.25,3.75,1.0,0.0,0.0,0.5,0.75,0.5,1.25,0.5,-0.42,1.89,-0.73,198.86,10.5,28.3,8.0,2.75,6.25,3.0,0.0,1.5,0.0,0.0,0.25,0.75,0.0,0.0,0.0,0.2,0.64,2.39,385.35,-24.9,70.3
5.52,0.0,0.75,3.0,2.25,3.5,1.0,0.0,0.0,0.5,1.75,0.5,1.75,0.75,3.7,3.02,-0.98,208.09,7.4,11.3,6.25,1.75,3.0,2.0,0.0,1.75,0.0,0.0,0.5,0.0,0.0,0.0,0.0,0.27,0.52,2.02,276.33,-23.3,73.2
5.54,0.25,0.75,2.75,2.0,2.5,1.0,0.0,0.0,0.0,1.75,0.5,1.25,0.5,-1.11,2.14,-1.11,211.18,8.2,15.8,5.5,1.75,1.5,2.75,0.0,0.0,0.0,0.0,1.0,1.5,0.0,0.0,0.0,0.39,0.45,1.77,195.41,-21.6,57.0
5.56,0.25,0.75,3.0,2.0,3.75,1.0,0.0,0.0,0.5,1.25,0.5,1.0,0.5,-0.3,1.7,-0.61,214.61,8.5,23.5,2.0,1.25,2.75,2.5,1.25,0.0,0.0,0.25,0.0,1.5,0.75,0.75,0.75,0.14,-0.3,0.77,136.0,-14.6,26.1
5.58,1.25,0.75,3.0,1.75,3.75,1.0,0.0,0.0,0.5,0.5,0.75,1.0,0.75,0.52,1.08,0.64,219.07,10.7,28.4,1.5,0.75,2.75,2.0,1.5,0.0,0.0,0.25,0.5,2.25,1.0,0.25,1.0,0.52,-0.23,0.95,103.9,-11.5,13.3
5.6,1.0,0.5,3.25,1.5,3.75,1.0,0.0,0.0,0.5,0.75,0.75,0.5,0.5,0.39,-0.23,1.27,220.18,10.7,31.4,0.5,0.0,0.75,1.25,0.5,0.0,0.0,0.0,0.25,1.5,0.0,0.75,0.0,-1.11,0.89,0.02,49.83,-9.3,-0.9
5.62,1.0,0.5,3.0,1.25,2.5,1.0,0.0,0.0,0.5,1.25,0.5,0.75,0.5,0.14,-0.61,1.02,212.39,10.6,23.1,0.5,1.25,1.75,1.5,1.75,0.0,0.0,0.0,0.0,2.0,1.5,0.0,0.5,-1.3,1.27,0.2,46.31,-8.9,14.8
5.64,1.0,0.5,3.0,1.25,3.75,1.0,0.0,0.0,0.5,1.75,1.0,1.25,0.5,0.02,-0.48,0.7,218.48,8.5,15.7,1.0,0.75,2.75,1.25,1.75,0.0,0.25,0.0,0.0,2.25,1.5,0.75,1.0,-0.42,1.45,-0.73,64.04,-10.6,3.9
5.66,1.0,0.5,3.0,1.25,3.75,1.0,0.0,0.0,0.0,0.25,0.5,1.25,0.5,-0.11,-0.17,0.52,213.48,10.9,31.0,1.0,0.75,2.75,1.25,1.0,0.0,0.25,0.0,0.0,2.25,1.5,0.75,1.0,-0.36,1.58,-1.05,88.35,-11.6,0.5
5.68,0.5,0.75,3.0,1.0,1.75,1.0,0.0,0.25,0.0,0.5,0.25,0.25,0.0,-0.05,-0.36,0.45,194.5,13.2,43.6,0.75,1.0,2.75,1.0,1.5,2.75,0.5,0.25,0.0,1.75,1.5,0.5,0.75,-0.23,0.95,-1.61,129.92,-5.6,13.4
5.7,0.0,0.0,1.5,0.75,0.0,1.0,0.0,0.0,0.0,0.0,0.0,1.25,0.25,-0.61,-0.92,-3.92,148.01,12.2,1.4,1.25,1.0,2.75,1.0,1.0,2.75,0.5,0.25,0.5,1.25,1.25,0.0,0.75,0.33,-0.98,-1.48,162.19,-7.7,21.8
5.72,0.0,0.5,2.25,0.75,3.75,1.0,0.0,0.25,0.0,0.5,0.75,1.5,0.5,-1.36,0.27,-3.36,144.09,6.0,14.5,0.75,1.25,2.75,1.25,2.25,2.75,0.5,0.25,0.5,1.25,1.5,0.75,0.5,0.45,-1.42,-0.42,194.55,-6.6,18.9
5.74,0.25,0.5,3.0,1.0,1.75,1.0,0.0,0.25,0.0,0.5,0.5,1.25,0.5,-0.92,0.08,-1.61,133.75,11.0,17.1,0.0,1.25,2.75,1.25,1.5,2.75,0.25,0.25,0.5,1.0,1.5,0.25,1.0,0.64,-0.55,-0.55,207.35,-5.2,14.3
5.76,0.5,0.75,3.25,1.75,3.75,1.0,0.0,0.0,0.5,0.0,0.5,0.25,0.5,0.2,-0.11,0.83,159.9,11.6,41.4,0.0,0.0,2.75,0.5,1.25,0.5,0.0,0.0,0.25,1.25,0.25,0.0,0.0,0.33,0.52,-0.61,185.79,-12.5,24.8
5.78,1.0,0.5,1.0,0.75,0.0,1.0,0.0,0.0,0.5,0.5,0.5,1.0,0.5,2.33,-1.48,0.39,146.19,10.5,3.3,0.0,0.0,2.5,0.5,0.5,1.0,0.5,0.0,0.25,1.0,1.5,0.75,0.5,-0.61,1.08,-0.42,160.11,-10.7,-8.6
5.8,0.75,0.25,3.0,1.0,3.5,1.0,0.0,0.0,0.5,0.5,0.5,1.25,0.5,2.27,-1.92,-0.8,162.54,10.2,22.9,0.5,0.75,2.75,1.75,1.25,3.0,0.0,0.25,0.0,1.5,1.5,0.75,0.5,-2.42,1.58,-0.42,166.28,-5.7,13.9
5.82,0.75,0.75,3.0,1.0,1.25,1.0,0.0,0.5,0.5,0.5,0.5,1.25,0.5,0.77,-1.05,-0.73,159.82,12.1,16.8,0.75,1.0,2.75,1.25,1.75,3.25,0.0,0.25,0.25,1.0,1.5,0.75,0.5,-3.67,0.95,0.64,187.01,-5.9,19.0
5.84,1.25,0.75,3.75,1.0,1.75,1.0,0.0,0.0,0.5,0.0,0.5,1.25,0.5,0.02,0.27,-2.23,174.79,16.2,30.1,0.5,0.5,0.5,1.25,0.25,3.0,0.0,0.0,0.25,1.75,0.25,0.75,0.0,-3.23,0.58,1.2,181.53,1.7,8.3
5.86,1.25,0.75,3.0,1.0,3.75,1.0,0.0,0.0,0.5,0.25,0.25,1.25,0.5,0.14,0.27,-2.23,189.54,11.3,32.2,0.0,0.0,2.75,1.5,1.25,3.0,0.0,0.0,0.0,1.5,1.5,0.75,0.0,-2.48,0.52,1.02,179.77,-5.2,10.7
5.88,1.25,0.25,2.5,1.0,1.25,1.25,0.0,0.0,0.5,0.5,0.5,1.25,0.5,0.58,0.02,-1.86,188.84,12.4,17.2,1.0,0.5,2.75,2.0,1.0,3.0,0.0,0.0,0.0,1.5,1.5,0.75,0.5,-1.86,0.2,0.77,184.39,-7.3,16.0
5.9,1.25,0.5,3.5,1.25,3.75,1.0,0.0,0.0,0.5,1.25,0.75,1.0,0.5,0.27,-0.05,-1.42,208.12,10.5,24.6,0.75,0.5,2.75,1.0,1.75,3.0,0.0,0.25,0.25,1.75,1.5,0.75,0.5,-1.42,-0.3,0.64,195.69,-4.8,10.6
5.92,1.0,0.5,3.0,1.0,3.75,1.0,0.0,0.0,0.5,1.75,0.5,1.0,0.5,-0.48,-0.05,-1.17,218.15,8.2,20.0,0.5,0.5,2.75,1.25,1.0,3.25,0.0,0.25,0.25,2.0,1.25,0.75,0.75,-1.23,-0.8,0.64,203.76,-3.8,5.7
5.94,0.5,0.5,3.25,1.0,1.75,1.25,0.0,0.0,0.5,1.75,0.5,1.0,0.5,-1.67,-0.36,-1.17,218.52,9.4,12.2,1.25,0.5,2.75,1.0,1.25,3.0,0.0,0.0,0.0,1.75,1.5,0.75,1.0,-0.86,-1.23,0.52,214.19,-5.7,9.1
5.96,0.75,0.75,3.0,0.75,2.5,1.0,0.0,0.0,0.5,1.5,0.5,0.75,0.5,-1.3,-0.61,-0.17,207.43,9.4,20.0,0.5,0.25,2.75,1.0,1.25,3.25,0.0,0.0,0.25,1.75,1.25,0.75,0.5,-0.48,-1.48,0.58,212.17,-4.3,8.4
5.98,1.0,0.5,3.0,0.75,3.5,1.0,0.0,0.0,0.5,1.75,0.5,0.75,0.5,-0.98,-0.73,-0.17,209.31,8.3,20.9,1.0,0.0,2.75,1.25,1.5,3.5,0.0,0.0,0.25,1.75,1.5,0.75,0.5,-0.61,-1.42,0.95,216.11,-4.9,10.4
6.0,1.0,0.5,3.0,0.75,3.75,1.0,0.0,0.25,0.5,1.75,0.75,1.0,0.5,-1.05,-0.61,-0.11,213.85,7.7,16.9,1.25,0.5,2.75,0.75,1.0,3.25,0.0,0.0,0.0,2.25,1.25,0.75,0.5,-0.61,-0.8,0.83,217.18,-5.0,10.5
6.02,1.25,0.5,2.25,1.0,2.25,1.0,0.0,0.25,0.5,1.75,0.75,1.25,0.5,-0.92,-0.42,-0.11,213.95,8.1,9.5,0.5,0.5,2.75,0.5,1.0,3.0,0.0,0.0,0.0,2.25,0.75,0.0,0.5,-0.61,0.33,0.64,203.89,-3.1,14.9
6.04,1.0,0.25,2.5,1.0,1.75,1.0,0.0,0.25,0.0,1.75,0.75,1.25,0.5,-0.73,-0.48,0.02,202.64,8.5,6.9,0.0,0.0,0.0,0.5,0.25,2.0,0.0,0.25,0.0,0.25,1.25,0.0,0.5,-0.8,0.95,0.64,156.45,7.5,-13.4
6.06,0.75,0.75,3.0,1.0,2.5,1.0,0.0,0.25,0.5,0.0,0.5,0.5,0.5,-0.92,-0.48,-0.11,192.44,12.3,34.6,0.0,0.0,0.25,0.5,0.25,2.25,0.0,0.0,0.0,0.25,0.25,0.0,0.0,-0.98,1.39,0.45,110.29,8.6,26.2
6.08,0.75,0.25,3.0,1.0,3.0,1.0,0.0,0.0,0.5,0.5,0.75,1.0,0.5,-1.3,-0.05,-0.42,186.09,10.8,22.2,0.75,0.75,2.75,0.5,1.0,3.0,0.0,0.25,0.25,1.75,1.5,0.75,0.5,-0.92,1.58,0.33,121.06,-5.0,7.7
6.1,1.0,0.75,3.0,0.75,1.75,1.0,0.0,0.25,0.5,0.5,0.5,1.0,0.5,-1.17,0.02,-0.17,179.89,12.4,23.2,0.75,0.5,2.5,0.5,1.0,3.0,0.0,0.25,0.25,2.25,1.5,0.75,0.5,-0.67,1.45,0.14,139.62,-3.5,2.0
6.12,0.75,0.5,3.0,1.0,1.75,1.0,0.0,0.25,0.5,0.5,0.5,1.0,0.5,-1.11,-0.17,-0.05,177.2,12.1,20.8,1.0,0.5,2.75,0.5,1.0,3.0,0.0,0.0,0.0,2.25,0.75,0.75,0.75,-0.42,1.2,-0.05,167.18,-4.2,8.4
6.14,0.75,0.5,3.0,1.0,1.25,1.0,0.0,0.25,0.5,0.5,0.75,1.0,0.5,-1.17,-0.3,0.08,169.24,12.8,17.0,1.0,0.25,2.75,0.5,1.25,3.0,0.0,0.25,0.0,2.25,1.0,0.75,0.75,-0.23,0.95,-0.3,186.03,-3.6,5.3
6.16,0.75,0.25,3.0,0.75,3.5,1.25,0.0,0.0,0.5,0.5,0.5,1.25,0.5,-1.17,-0.42,0.02,176.93,9.5,22.4,0.5,0.0,2.75,0.75,1.25,3.0,0.0,0.25,0.0,2.25,1.0,0.75,0.5,-0.11,0.7,-0.36,192.98,-2.9,3.5
6.18,0.75,0.5,1.75,0.75,2.5,1.0,0.0,0.0,0.5,0.75,0.5,1.25,0.5,-1.23,-0.55,0.02,173.58,7.7,14.0,1.0,1.0,2.75,1.0,1.25,3.0,0.0,0.25,0.0,1.75,1.5,0.75,0.5,0.02,0.2,-0.42,200.34,-5.8,14.2
6.2,0.5,0.5,3.0,1.0,0.75,1.0,0.0,0.0,0.5,1.75,0.5,1.0,0.5,-1.36,-0.61,-0.11,170.12,10.7,6.3,0.75,1.25,2.75,0.5,1.0,2.75,0.0,0.25,0.0,1.5,1.25,0.75,0.75,0.2,-0.36,-0.42,203.49,-5.6,12.4
6.22,0.75,0.5,3.0,1.0,2.25,1.0,0.0,0.0,0.5,1.75,0.0,0.5,0.5,-1.3,-0.55,0.02,170.18,9.2,22.8,1.0,0.75,2.75,0.5,1.0,3.0,0.0,0.25,0.0,1.5,1.5,0.75,0.5,0.39,-0.61,-0.55,207.77,-5.8,11.7
6.24,0.5,0.5,3.25,0.75,0.75,1.0,0.0,0.0,0.5,1.0,0.75,1.25,0.5,-1.05,-0.42,-0.05,166.77,13.0,7.5,0.75,1.0,2.75,0.75,1.0,3.0,0.0,0.25,0.0,1.75,1.5,0.75,0.5,0.64,-0.8,-0.55,211.18,-5.2,11.1
6.26,0.5,0.5,3.0,1.0,1.75,1.0,0.0,0.0,0.5,1.75,0.5,1.25,0.5,-0.98,-0.42,-0.17,172.95,9.4,8.3,0.5,0.75,2.75,0.5,1.0,3.0,0.0,0.0,0.0,1.75,2.0,0.75,0.5,0.64,-0.67,-0.42,212.56,-5.0,4.9
6.28,0.5,0.25,3.0,0.75,2.25,1.0,0.0,0.25,0.5,1.75,0.5,1.25,0.5,-0.92,-0.17,-0.17,178.85,8.1,6.6,1.0,0.5,2.75,0.5,1.0,3.0,0.0,0.25,0.25,1.5,1.5,0.75,0.75,0.39,-0.36,-0.23,212.81,-5.4,6.9
6.3,0.75,0.75,3.0,0.75,1.25,1.0,0.0,0.0,0.5,1.25,0.5,1.25,0.5,-0.67,0.02,-0.23,180.28,11.5,12.4,1.25,0.5,2.75,0.75,1.0,3.0,0.0,0.25,0.25,1.5,1.5,0.75,0.5,0.14,-0.3,0.02,208.5,-6.5,11.5
6.32,0.75,0.5,3.0,0.75,0.0,1.0,0.0,0.25,0.5,1.75,0.0,1.25,0.5,-0.61,0.27,-0.3,171.01,11.6,3.0,1.0,0.0,2.75,0.75,1.0,3.0,0.0,0.25,0.25,2.0,1.5,0.75,0.5,-0.05,-0.23,0.14,201.13,-4.9,3.6
6.34,0.5,0.5,3.0,0.75,2.25,1.0,0.0,0.0,0.5,1.75,0.0,1.25,0.5,-0.55,0.39,-0.3,173.72,8.6,12.7,0.75,0.5,2.75,0.75,1.0,3.0,0.0,0.0,0.25,1.5,1.5,0.75,0.5,-0.23,-0.23,0.45,198.96,-5.9,9.4
6.36,0.5,0.5,3.0,1.0,1.25,1.0,0.0,0.0,0.5,1.75,0.75,1.25,0.5,-0.42,0.52,-0.23,174.17,10.0,4.5,0.5,0.5,2.75,0.5,1.0,3.0,0.0,0.0,0.25,1.75,1.5,0.75,0.75,-0.61,-0.42,0.64,196.23,-4.4,3.0
6.38,0.5,0.5,2.5,1.0,2.5,1.0,0.0,0.25,0.25,1.75,0.5,1.0,0.5,-0.48,0.64,-0.17,180.09,6.8,11.6,1.0,0.5,2.75,0.5,1.0,2.75,0.0,0.0,0.25,1.0,1.5,0.75,0.5,-0.8,-0.48,0.77,191.06,-7.6,13.0
6.4,0.5,0.75,3.0,1.0,1.25,1.0,0.0,0.25,0.5,1.75,0.5,1.0,0.5,-0.48,0.64,-0.17,181.8,9.5,9.6,0.0,0.25,2.75,1.25,1.0,2.75,0.0,0.0,0.25,1.25,1.5,0.75,0.5,-1.05,-0.98,0.83,185.67,-5.6,5.8
6.42,0.75,0.5,3.0,0.75,0.75,1.0,0.0,0.0,0.25,1.75,0.25,1.0,0.5,-0.48,0.77,-0.17,177.82,11.1,9.9,0.5,0.5,2.75,0.5,1.0,2.75,0.0,0.0,0.25,1.0,1.5,0.75,0.5,-1.42,-1.92,1.2,179.89,-6.6,9.7
6.44,0.5,0.5,3.0,0.75,3.0,1.0,0.0,0.0,0.25,0.75,0.5,1.5,0.5,-0.36,0.95,-0.23,179.7,9.7,17.6,0.0,0.0,2.75,0.5,1.0,2.75,0.0,0.0,0.0,0.0,1.5,0.0,0.0,-1.8,-2.48,1.2,162.49,-8.1,28.4
6.46,0.5,0.5,3.0,0.75,3.0,1.0,0.0,0.25,0.5,1.75,0.75,1.0,0.5,-0.48,1.08,-0.42,187.1,7.5,11.9,0.0,0.25,2.75,0.0,1.0,1.75,0.0,0.0,0.25,0.0,1.5,0.0,0.0,-1.92,-2.23,1.58,140.99,-11.6,25.9
6.48,0.5,0.5,3.0,0.75,3.5,1.0,0.0,0.0,0.25,1.75,0.5,1.5,0.5,-0.67,1.27,-0.67,199.3,7.4,12.6,0.5,0.5,2.25,0.5,1.0,3.0,0.0,0.25,0.25,1.0,1.5,0.75,0.5,-1.8,-1.36,1.64,142.22,-4.1,6.9
6.5,0.75,0.25,2.75,1.0,1.75,1.0,0.0,0.0,0.5,1.75,0.5,1.25,0.5,-0.8,1.33,-0.92,197.34,9.2,7.0,0.75,0.5,2.75,0.5,1.0,3.0,0.0,0.0,0.25,1.0,1.5,0.75,1.0,-1.61,-0.17,1.52,155.0,-5.7,7.0
6.52,0.5,0.5,2.75,1.0,0.75,1.0,0.0,0.25,0.0,1.75,0.5,1.25,0.5,-0.86,1.33,-0.98,188.12,9.3,3.4,0.25,0.25,2.75,0.5,1.0,3.0,0.0,0.0,0.25,1.0,1.5,0.75,0.5,-1.42,0.33,1.02,165.03,-5.3,6.5
6.54,0.5,0.5,3.0,1.0,2.25,1.0,0.0,0.0,0.25,1.75,0.75,1.25,0.5,-0.92,1.08,-0.92,186.72,8.8,9.7,1.0,0.5,2.5,0.75,1.0,3.0,0.0,0.0,0.25,1.0,1.5,0.75,0.5,-1.17,0.45,0.77,176.44,-6.6,13.3
6.56,0.5,0.5,3.0,1.0,0.75,1.0,0.0,0.0,0.0,1.75,0.0,1.0,0.25,-0.98,0.7,-0.67,172.73,11.3,15.5,0.75,0.5,2.75,0.5,1.0,3.0,0.0,0.0,0.25,1.25,1.5,0.75,0.5,-1.05,0.45,0.39,182.96,-6.1,10.1
6.58,0.5,0.5,2.75,0.75,2.5,1.0,0.0,0.25,0.25,1.75,0.5,1.5,0.25,-1.11,0.33,-0.48,175.65,7.7,9.4,0.75,0.5,2.75,0.5,1.0,3.0,0.0,0.0,0.25,1.0,1.25,0.75,0.75,-0.98,0.27,0.33,185.39,-6.0,11.0
6.6,0.5,0.75,3.0,1.0,3.5,1.0,0.0,0.25,0.0,1.75,0.5,1.5,0.5,-1.17,0.14,-0.3,188.43,7.2,14.9,1.25,0.5,2.5,0.5,1.0,3.0,0.0,0.25,0.25,1.0,1.5,0.75,0.5,-0.92,0.08,0.33,188.92,-6.5,12.9
6.62,0.5,0.25,3.0,0.75,3.0,1.0,0.0,0.0,0.25,1.75,0.5,1.25,0.5,-1.17,0.02,-0.17,196.28,7.7,11.4,0.5,0.25,2.5,0.5,0.5,3.0,0.0,0.0,0.25,1.0,1.5,0.75,0.5,-0.8,-0.11,0.27,184.56,-5.6,4.7
6.64,0.5,0.5,3.0,0.75,1.25,1.0,0.0,0.25,0.25,1.75,0.0,1.25,0.5,-1.11,-0.11,-0.05,190.23,9.2,8.5,1.0,0.25,2.75,0.75,1.0,3.0,0.0,0.0,0.25,1.0,1.5,0.75,0.5,-0.73,-0.3,0.14,186.92,-7.1,12.5
6.66,0.5,0.5,2.25,0.75,1.25,1.0,0.0,0.25,0.25,1.75,0.5,1.25,0.5,-1.11,-0.17,-0.05,179.54,7.2,1.1,0.5,0.5,2.75,0.5,0.5,3.0,0.0,0.25,0.25,0.0,1.5,0.75,0.5,-0.67,-0.36,0.27,180.2,-7.9,14.6
6.68,0.5,0.5,3.0,1.0,3.5,1.0,0.0,0.0,0.0,1.75,0.75,1.25,0.5,-1.05,-0.17,-0.11,183.62,7.5,14.9,0.5,0.5,0.25,0.5,0.5,3.0,0.0,0.0,0.25,1.25,0.75,0.75,1.0,-0.61,-0.3,0.33,167.06,4.5,-9.1
6.7,0.75,0.5,2.5,0.75,2.5,1.0,0.25,0.0,0.0,1.75,0.0,1.25,0.5,-0.98,-0.11,-0.17,181.21,7.6,15.5,1.0,0.0,2.75,0.5,1.0,3.0,0.0,0.0,0.25,1.25,1.5,0.75,0.5,-0.61,-0.23,0.45,166.46,-6.4,8.0
6.72,0.5,0.25,3.0,1.0,3.0,1.0,0.0,0.0,0.25,1.75,0.0,1.25,0.25,-0.98,-0.05,-0.17,188.23,8.2,18.1,1.0,0.5,2.75,1.0,1.0,3.0,0.0,0.0,0.25,1.5,1.5,0.75,0.5,-0.67,-0.17,0.58,174.03,-6.6,11.8
6.74,0.5,0.25,3.0,0.75,3.5,1.0,0.0,0.0,0.0,1.5,0.5,1.0,0.5,-0.92,0.14,-0.23,192.54,7.6,18.2,0.5,0.5,2.75,0.5,1.0,3.0,0.0,0.0,0.25,1.5,1.5,0.75,0.5,-0.67,-0.3,0.89,182.37,-5.1,6.8
6.76,0.5,0.5,2.75,1.0,1.75,1.0,0.0,0.0,0.0,1.75,0.0,1.25,0.25,-0.86,0.2,-0.23,186.22,9.1,15.6,0.75,0.5,2.25,0.5,1.0,3.0,0.0,0.0,0.25,1.0,1.5,0.75,0.75,-0.92,-0.23,0.83,185.8,-4.8,7.1
6.78,0.5,0.75,3.0,0.75,2.5,1.0,0.0,0.0,0.0,1.75,0.0,1.5,0.5,-0.8,0.27,-0.3,183.72,8.2,14.9,0.75,0.5,2.5,0.5,1.0,3.0,0.0,0.0,0.25,1.0,1.5,0.75,0.5,-1.17,-0.17,0.83,185.42,-5.9,10.7
6.8,0.5,0.5,3.0,1.0,1.75,1.0,0.0,0.0,0.0,1.75,0.5,1.5,0.5,-0.86,0.33,-0.3,182.17,9.3,7.8,0.75,0.5,2.75,0.5,1.0,3.0,0.0,0.0,0.25,1.25,1.5,0.75,0.5,-1.23,-0.17,0.83,185.41,-6.1,10.1
6.82,0.5,0.5,3.5,0.75,1.25,1.0,0.0,0.0,0.25,1.75,0.25,1.5,0.5,-0.86,0.33,-0.36,179.27,11.0,7.6,0.5,0.5,0.25,0.5,0.25,3.0,0.0,0.0,0.25,0.0,0.25,0.0,0.0,-1.17,-0.17,0.77,153.33,3.4,42.2
6.84,0.5,0.5,3.0,0.75,1.25,1.0,0.0,0.0,0.0,1.75,0.5,1.25,0.5,-0.92,0.39,-0.42,173.16,9.7,6.9,1.0,0.0,2.5,0.5,1.0,3.0,0.0,0.0,0.25,0.25,1.25,0.25,0.5,-1.05,-0.23,0.7,148.8,-7.5,22.2
6.86,0.5,0.25,3.0,1.0,3.0,1.0,0.0,0.0,0.0,1.75,0.0,1.0,0.25,-0.92,0.39,-0.42,177.34,8.1,21.8,0.5,0.25,0.25,0.0,0.25,2.0,0.0,0.0,0.25,1.25,0.25,0.75,0.0,-0.92,-0.23,0.7,118.71,3.9,-6.6
6.88,0.5,0.5,3.0,1.0,1.75,1.0,0.0,0.0,0.0,1.75,0.75,1.5,0.5,-0.98,0.33,-0.42,179.38,9.3,6.2,0.0,0.0,2.75,0.0,1.0,1.75,0.0,0.0,0.25,0.5,1.5,0.0,0.5,-0.8,-0.23,0.64,114.77,-8.4,9.2
6.9,0.5,0.5,3.0,0.75,1.25,1.0,0.0,0.0,0.0,1.75,0.0,1.25,0.25,-0.98,0.33,-0.36,172.54,10.3,13.6,0.5,0.5,2.75,1.5,1.0,3.0,0.0,0.0,0.25,2.0,1.5,0.75,0.5,-0.73,-0.3,0.58,139.12,-5.3,7.6
6.92,0.5,0.5,3.0,0.75,3.0,1.0,0.0,0.25,0.0,1.5,0.25,1.25,1.0,-0.92,0.27,-0.3,178.56,6.8,11.6,1.25,0.5,1.25,0.5,1.0,3.0,0.0,0.0,0.25,2.25,1.5,0.75,0.75,-0.67,-0.3,0.58,163.32,-1.2,-1.7
6.94,0.5,0.5,3.0,0.75,0.75,1.0,0.25,0.0,0.0,1.75,0.5,1.0,0.25,-0.86,0.27,-0.23,171.45,11.3,10.3,1.25,0.75,2.75,0.5,1.0,3.25,0.0,0.0,0.25,1.75,1.5,0.75,0.5,-0.61,-0.36,0.52,184.81,-5.9,11.9
6.96,0.5,0.5,3.0,0.75,0.75,1.0,0.0,0.0,0.0,0.75,0.25,1.25,0.5,-0.86,0.2,-0.23,161.41,13.2,14.9,0.75,0.5,2.75,0.5,1.0,3.0,0.25,0.0,0.25,1.5,0.25,0.0,0.0,-0.55,-0.36,0.7,184.75,-6.1,32.1
6.98,0.5,0.5,3.0,0.75,2.25,1.0,0.0,0.25,0.0,0.75,0.0,1.25,0.75,-0.8,0.2,-0.23,159.21,9.5,18.7,1.25,0.5,0.5,0.5,0.25,3.0,0.0,0.0,0.25,2.0,1.25,0.75,0.5,-0.48,-0.48,0.77,179.4,0.5,-4.8
7.0,1.0,0.75,2.75,0.75,3.0,1.0,0.0,0.0,0.0,0.5,0.0,1.25,0.5,-0.8,0.27,-0.23,166.65,10.6,31.1,0.5,0.5,2.75,0.5,1.0,3.0,0.0,0.0,0.25,1.75,1.5,0.75,0.5,-0.42,-0.48,0.7,178.73,-4.7,5.2
7.02,0.5,0.25,3.0,1.0,3.0,1.0,0.25,0.0,0.0,0.75,0.0,1.25,0.25,-0.86,0.27,-0.3,170.87,10.5,27.4,1.0,0.5,2.5,0.5,1.0,3.0,0.0,0.0,0.25,2.25,1.5,0.75,0.75,-0.36,-0.48,0.64,188.91,-4.1,2.3
7.04,0.5,0.5,3.0,0.75,3.0,1.0,0.0,0.0,0.0,0.5,0.0,1.0,0.25,-0.86,0.27,-0.3,173.74,10.7,33.8,0.5,0.5,2.75,1.0,1.0,3.0,0.0,0.0,0.25,1.75,1.5,0.75,0.5,-0.36,-0.48,0.64,199.5,-5.2,7.2
7.06,0.5,0.5,3.0,0.75,0.5,1.0,0.0,0.25,0.0,0.75,0.5,1.25,0.5,-0.92,0.27,-0.3,165.57,12.9,10.1,0.75,0.25,2.75,0.5,1.0,3.0,0.0,0.0,0.25,2.25,1.5,0.75,0.5,-0.36,-0.48,0.64,207.27,-4.4,2.0
7.08,0.5,0.5,3.0,1.0,2.5,1.0,0.0,0.0,0.0,0.5,0.25,1.0,0.25,-0.92,0.27,-0.3,163.14,11.6,30.9,0.75,0.5,2.75,0.5,1.0,3.0,0.0,0.0,0.25,2.25,1.5,0.75,0.5,-0.36,-0.55,0.7,207.02,-4.5,3.8
7.1,0.5,0.5,3.0,0.75,2.5,1.0,0.25,0.0,0.0,0.5,0.75,1.25,0.5,-0.92,0.27,-0.3,164.47,11.1,19.9,0.75,0.5,2.5,0.75,1.0,3.0,0.0,0.25,0.25,1.75,1.5,0.75,0.5,-0.36,-0.55,0.7,206.32,-4.5,5.9
7.12,0.5,0.5,4.25,0.75,1.25,1.0,0.0,0.0,0.0,0.75,0.75,1.25,0.5,-0.92,0.27,-0.3,170.89,15.0,18.2,1.0,0.75,2.75,0.5,1.0,3.0,0.0,0.0,0.25,2.0,1.5,0.75,0.25,-0.36,-0.55,0.7,202.65,-5.9,10.8
7.14,0.5,0.5,3.0,0.75,1.25,1.0,0.25,0.0,0.0,0.75,0.0,1.25,0.75,-0.92,0.27,-0.3,168.04,11.9,16.3,0.5,1.0,2.75,0.75,1.0,3.0,0.0,0.0,0.25,2.0,1.5,0.75,0.25,-0.3,-0.55,0.7,201.02,-5.2,10.4
7.16,0.5,0.0,3.0,0.75,3.0,1.0,0.0,0.25,0.0,0.5,0.0,1.25,0.25,-0.92,0.27,-0.23,167.57,10.0,25.9,1.25,1.0,2.75,0.75,1.0,3.0,0.0,0.0,0.25,2.0,1.5,0.75,0.5,-0.3,-0.55,0.7,208.19,-6.3,12.4
7.18,0.5,0.5,3.0,1.0,2.25,1.0,0.25,0.0,0.0,0.75,0.0,1.25,0.75,-0.92,0.27,-0.23,169.94,10.5,21.0,0.75,1.0,2.75,1.0,1.0,3.0,0.0,0.0,0.25,2.0,1.5,0.75,0.25,-0.3,-0.55,0.77,210.86,-5.9,12.7
7.2,0.75,0.5,3.0,0.75,0.75,1.0,0.25,0.0,0.0,0.75,1.25,1.0,0.5,-0.92,0.27,-0.23,166.06,13.8,11.5,1.0,0.5,2.75,0.5,1.0,3.0,0.0,0.0,0.25,1.75,1.5,0.75,0.25,-0.3,-0.55,0.77,209.68,-6.2,10.7
7.22,0.75,0.25,3.0,1.0,2.25,1.0,0.25,0.0,0.0,1.0,0.0,1.0,0.5,-0.92,0.2,-0.23,166.44,10.9,24.5,0.75,1.0,2.75,0.75,1.0,3.0,0.0,0.0,0.25,2.0,1.5,0.75,0.25,-0.3,-0.55,0.83,207.65,-5.7,11.8
7.24,0.5,0.5,3.0,0.75,2.5,1.0,0.25,0.0,0.0,1.25,0.0,1.25,0.5,-0.92,0.2,-0.23,170.26,9.4,19.7,0.5,1.0,2.5,0.75,1.0,3.0,0.0,0.0,0.25,1.75,1.5,0.75,1.0,-0.3,-0.55,0.83,203.96,-4.0,4.4
7.26,0.5,0.25,3.0,0.75,1.25,1.0,0.25,0.0,0.0,0.75,0.25,1.25,0.5,-0.92,0.2,-0.23,165.55,12.5,15.2,0.5,1.0,2.75,0.75,1.0,3.0,0.0,0.0,0.25,1.5,2.0,0.75,0.25,-0.3,-0.55,0.83,202.92,-6.2,10.5
7.28,0.5,0.5,3.0,0.75,3.0,1.0,0.5,0.25,0.0,0.75,0.0,1.25,0.75,-0.92,0.27,-0.23,172.87,9.0,21.3,1.0,1.0,2.5,0.5,1.0,3.0,0.0,0.0,0.25,2.0,1.5,0.75,0.25,-0.3,-0.48,0.83,202.46,-5.4,11.5
7.3,0.5,0.25,3.0,0.75,3.0,1.0,0.25,0.0,0.0,0.75,0.0,1.25,0.5,-0.92,0.27,-0.23,175.2,9.8,23.7,0.5,1.25,2.75,1.5,1.0,3.0,0.0,0.0,0.25,2.25,1.5,0.75,0.5,-0.3,-0.55,0.83,209.22,-5.3,10.9
7.32,0.5,0.5,3.0,1.0,1.25,1.0,0.5,0.0,0.0,1.0,0.0,1.25,0.5,-0.92,0.27,-0.23,171.91,12.2,18.4,0.25,0.75,2.75,1.25,1.0,3.0,0.0,0.0,0.25,2.0,1.5,0.75,0.5,-0.23,-0.55,0.83,208.78,-4.7,6.9
7.34,0.5,0.5,3.0,0.75,2.5,1.0,0.25,0.0,0.0,0.75,0.0,1.0,0.75,-0.92,0.27,-0.23,170.86,10.0,23.8,0.5,1.0,2.5,0.75,1.0,3.0,0.0,0.0,0.25,1.75,1.5,0.75,0.25,-0.23,-0.55,0.83,205.68,-5.0,11.0
7.36,0.5,0.5,3.0,0.75,2.25,1.0,0.5,0.25,0.0,1.0,0.5,1.25,0.5,-0.98,0.2,-0.23,174.84,10.0,15.9,0.5,1.25,2.75,0.5,1.0,3.0,0.0,0.0,0.25,1.75,1.5,0.75,0.25,-0.23,-0.55,0.89,201.65,-5.5,12.7
7.38,0.5,0.25,3.0,0.75,2.25,1.0,0.5,0.25,0.0,1.0,0.0,1.25,0.5,-0.98,0.2,-0.23,175.41,9.9,17.9,1.25,1.25,2.75,0.75,1.0,3.0,0.0,0.0,0.25,2.0,0.75,0.75,0.25,-0.23,-0.61,0.83,201.87,-6.6,20.8
7.4,0.5,0.5,3.0,1.0,3.0,1.0,0.5,0.0,0.0,1.0,0.0,1.25,0.25,-0.92,0.2,-0.17,179.5,10.2,26.8,1.0,1.25,2.5,0.75,1.0,3.0,0.0,0.0,0.25,2.0,1.5,0.75,0.25,-0.23,-0.55,0.77,203.26,-5.7,13.9
7.42,0.5,0.5,3.0,0.75,3.0,1.0,0.5,0.0,0.0,0.75,0.5,1.0,0.5,-0.92,0.14,-0.17,183.39,10.1,24.1,0.75,0.75,2.75,1.0,1.0,3.0,0.0,0.0,0.25,2.0,1.5,0.75,0.25,-0.17,-0.55,0.77,205.41,-5.8,11.1
7.44,0.5,0.25,3.0,0.75,2.25,1.0,0.5,0.0,0.0,0.75,0.0,1.0,0.5,-0.92,0.14,-0.17,179.18,11.1,24.4,0.75,1.25,2.75,0.75,1.0,3.0,0.0,0.0,0.25,2.0,1.5,0.75,0.25,-0.17,-0.61,0.7,207.81,-5.9,13.4
7.46,0.5,0.5,3.0,0.75,2.25,1.0,0.5,0.0,0.0,1.5,0.0,1.25,0.75,-0.92,0.14,-0.17,178.58,8.9,14.3,0.5,1.25,2.75,0.75,1.0,3.0,0.0,0.0,0.25,2.0,1.0,0.75,0.0,-0.23,-0.61,0.7,204.01,-5.5,17.5
7.48,0.5,0.25,3.0,0.75,2.25,1.0,0.75,0.0,0.0,1.5,0.5,1.0,0.5,-0.92,0.14,-0.17,178.21,9.6,14.2,0.5,1.0,2.5,0.75,1.25,3.0,0.0,0.0,0.25,1.75,1.5,0.75,0.0,-0.23,-0.61,0.83,200.73,-5.2,14.3
7.5,0.25,0.5,3.0,0.75,2.25,1.0,0.5,0.25,0.0,1.25,0.0,1.0,0.5,-0.92,0.14,-0.17,177.72,8.9,18.9,1.0,1.25,2.5,0.75,1.0,3.0,0.0,0.0,0.25,1.5,1.5,0.75,0.25,-0.23,-0.55,0.83,199.66,-6.5,17.2
7.52,0.5,0.25,3.0,0.75,1.75,1.0,0.5,0.25,0.0,1.25,0.25,1.25,0.25,-0.92,0.14,-0.17,172.39,10.6,14.9,0.25,0.75,2.75,0.75,1.0,3.0,0.0,0.0,0.25,1.75,1.5,0.75,0.25,-0.3,-0.48,0.89,196.05,-5.0,8.7
7.54,0.5,0.25,3.0,0.75,1.75,1.0,0.5,0.0,0.0,1.75,0.0,1.25,0.25,-0.92,0.08,-0.17,170.42,10.0,14.0,0.75,1.0,2.75,1.25,1.0,3.0,0.0,0.0,0.25,1.75,1.25,0.75,0.25,-0.3,-0.42,0.95,198.3,-6.5,16.6
7.56,0.75,0.5,3.0,0.75,1.75,1.0,0.5,0.25,0.0,1.75,0.25,0.75,0.75,-0.92,0.08,-0.11,172.19,9.0,14.4,0.5,1.25,2.5,0.75,1.0,3.0,0.0,0.0,0.25,1.75,1.25,0.75,0.25,-0.3,-0.3,0.89,198.13,-5.0,14.3
7.58,0.5,0.5,3.0,0.75,2.25,1.0,0.5,0.0,0.0,1.5,0.5,1.25,1.0,-0.98,0.08,-0.05,177.24,8.5,8.4,0.5,1.0,2.5,0.75,1.0,3.0,0.0,0.0,0.25,1.75,1.5,0.75,1.0,-0.36,-0.3,0.83,200.47,-4.0,4.4
7.6,0.25,0.25,3.0,0.75,3.0,1.0,0.5,0.0,0.0,1.75,0.5,1.0,0.25,-1.05,0.14,-0.05,182.58,8.0,16.0,0.5,1.0,2.75,0.75,1.0,3.0,0.0,0.0,0.25,2.25,1.25,0.75,0.25,-0.3,-0.3,0.83,199.79,-4.8,10.3
7.62,0.5,0.5,3.0,1.0,2.5,1.0,0.5,0.25,0.0,1.75,0.0,1.0,0.25,-1.05,0.14,-0.05,186.7,8.7,20.8,1.0,1.0,2.25,1.0,1.0,3.0,0.0,0.0,0.25,1.75,1.5,0.75,0.25,-0.23,-0.3,0.89,200.75,-5.6,13.9
7.64,0.25,0.25,3.0,0.75,1.75,1.0,0.5,0.0,0.0,1.75,0.0,1.25,0.25,-1.05,0.14,-0.05,179.72,9.4,12.2,0.0,1.0,2.5,1.25,1.0,3.0,0.0,0.0,0.25,1.75,1.25,0.75,0.5,-0.17,-0.3,0.89,198.77,-4.0,9.1
7.66,0.5,0.5,3.0,0.75,2.5,1.0,0.5,0.0,0.0,1.75,0.0,1.25,0.75,-1.05,0.14,-0.11,181.78,8.2,13.4,0.75,1.25,2.75,0.5,1.0,3.0,0.0,0.0,0.25,2.25,1.5,0.75,0.25,-0.11,-0.36,0.89,201.71,-5.3,11.0
7.68,0.75,0.5,3.0,1.0,2.25,1.0,0.5,0.0,0.0,1.5,0.0,1.0,0.25,-1.11,0.08,-0.05,180.74,10.6,24.8,0.5,1.25,2.75,1.0,1.0,3.0,0.0,0.0,0.25,2.0,1.25,0.75,1.0,0.02,-0.3,0.89,206.21,-4.5,7.9
7.7,0.5,0.5,3.0,0.75,2.5,1.0,0.5,0.25,0.0,1.75,0.5,1.25,0.75,-1.11,0.08,-0.05,187.29,7.8,9.2,1.0,1.25,2.75,0.75,1.0,3.0,0.0,0.0,0.25,2.25,1.5,0.75,0.5,0.08,-0.3,0.95,212.46,-5.6,11.1
7.72,0.5,0.5,3.0,0.75,1.25,1.0,0.5,0.0,0.0,1.75,0.0,1.25,0.25,-1.11,0.08,-0.11,180.74,10.8,13.9,1.0,1.0,2.25,0.75,1.0,3.0,0.0,0.0,0.25,2.0,1.5,0.75,0.0,0.14,-0.3,0.89,210.19,-5.4,13.8
7.74,0.5,0.5,3.0,0.75,1.25,1.0,0.5,0.0,0.0,1.75,0.5,1.0,0.5,-1.11,0.02,-0.11,177.25,10.2,9.9,0.5,1.0,2.5,0.75,1.0,3.0,0.25,0.0,0.25,1.75,1.5,0.75,0.25,0.2,-0.48,0.83,206.16,-5.2,11.2
7.76,0.25,0.5,3.0,0.75,1.75,1.0,0.5,0.0,0.0,1.75,0.5,1.0,0.25,-1.05,0.02,-0.17,170.89,9.6,13.1,0.75,1.0,2.5,0.75,1.0,2.75,0.25,0.0,0.25,2.0,1.5,0.75,0.25,0.14,-0.67,0.89,202.2,-5.8,10.7
7.78,1.0,0.0,3.0,1.0,2.25,1.0,0.75,0.25,0.0,1.75,0.5,1.0,0.5,-1.05,0.02,-0.17,176.0,9.6,13.6,0.75,1.25,2.5,0.5,1.0,3.0,0.25,0.0,0.25,2.25,1.25,0.75,0.5,0.08,-0.8,1.02,201.55,-4.5,9.5
7.8,0.5,0.5,3.0,0.75,1.25,1.0,0.5,0.25,0.0,1.75,0.25,1.0,0.5,-1.11,0.02,-0.11,173.03,9.6,10.7,1.0,1.0,2.5,0.75,1.0,3.0,0.25,0.0,0.25,2.0,1.5,0.75,0.5,0.14,-0.8,0.95,204.24,-5.5,10.3
7.82,0.5,0.5,3.0,1.0,2.5,1.0,0.5,0.25,0.0,1.75,0.0,1.25,0.75,-1.3,0.02,-0.17,181.74,7.9,13.3,0.75,1.25,2.75,0.5,1.0,3.0,0.0,0.0,0.25,2.25,1.5,0.75,0.5,0.08,-0.8,0.83,207.43,-4.9,8.9
7.84,0.5,0.75,3.0,0.75,2.5,1.0,0.5,0.25,0.0,1.75,0.5,1.25,0.5,-1.23,0.08,-0.23,188.2,8.3,13.2,0.75,0.75,2.75,1.5,1.0,2.75,0.25,0.0,0.25,1.75,1.5,0.75,0.5,0.02,-0.67,0.77,209.69,-6.9,11.9
7.86,0.75,0.0,3.0,1.0,2.5,1.0,0.5,0.25,0.0,1.75,0.25,1.0,0.75,-1.11,0.14,-0.17,192.73,8.2,12.1,0.75,0.75,2.5,0.75,1.0,3.0,0.25,0.0,0.25,2.0,0.75,0.75,0.0,0.08,-0.48,0.64,203.12,-5.3,16.7
7.88,0.5,0.5,3.0,0.75,1.75,1.0,0.5,0.25,0.0,1.75,0.25,1.25,0.5,-1.11,0.08,-0.17,190.18,9.0,10.3,1.0,1.0,2.5,0.75,1.0,3.0,0.25,0.0,0.25,2.0,1.5,0.75,0.0,0.08,-0.42,0.64,201.59,-6.2,14.8
7.9,0.5,0.5,3.0,0.75,1.75,1.0,0.5,0.25,0.0,1.75,0.0,1.0,0.5,-1.17,-0.05,-0.17,184.08,9.0,14.6,1.0,1.25,2.5,0.75,1.0,3.0,0.25,0.0,0.25,2.0,1.5,0.75,0.0,0.08,-0.42,0.58,200.83,-6.3,16.3
7.92,0.75,0.75,3.0,0.75,2.25,1.0,0.5,0.25,0.0,1.75,0.75,1.0,0.5,-1.11,-0.17,-0.11,187.04,9.0,14.5,0.75,1.25,2.5,0.75,1.0,3.0,0.25,0.0,0.25,2.25,1.25,0.75,0.0,0.08,-0.48,0.64,202.34,-5.4,14.9
7.94,0.5,0.5,3.0,0.75,1.75,1.0,0.5,0.0,0.0,1.75,0.5,1.0,0.25,-0.92,-0.3,0.08,182.54,10.1,14.8,0.5,1.25,2.25,1.0,1.0,3.0,0.25,0.0,0.25,1.75,1.5,0.75,0.5,0.08,-0.55,0.64,203.3,-4.6,10.5
7.96,0.5,0.5,3.0,0.75,3.5,1.0,0.5,0.0,0.0,1.75,0.25,1.25,0.5,-0.86,-0.3,0.08,192.37,7.6,17.5,1.0,1.25,2.75,0.75,1.0,3.0,0.25,0.0,0.25,2.0,1.5,0.75,0.25,0.08,-0.61,0.64,208.1,-6.5,14.9
7.98,0.75,0.25,3.0,0.75,2.5,1.0,0.5,0.25,0.0,1.75,0.0,1.25,0.5,-0.8,-0.23,0.08,191.6,8.5,14.7,0.0,1.0,2.75,1.0,1.0,3.0,0.25,0.0,0.25,2.0,1.5,0.75,0.25,0.14,-0.61,0.7,205.83,-4.7,8.5
8.0,0.5,0.25,3.0,0.75,1.75,1.0,0.5,0.0,0.0,1.75,0.5,1.25,0.5,-0.67,-0.23,0.02,188.11,9.5,7.6,0.75,1.25,2.75,1.0,0.5,3.0,0.25,0.0,0.25,2.0,1.5,0.75,0.0,0.14,-0.61,0.77,204.67,-7.0,15.0
8.02,0.5,0.25,3.0,0.75,2.25,1.0,0.5,0.25,0.0,1.75,0.5,1.0,0.5,-0.61,-0.17,0.02,183.67,8.4,11.2,0.75,1.0,2.5,0.75,1.0,3.0,0.25,0.0,0.25,2.0,1.25,0.75,0.0,0.08,-0.61,0.83,201.09,-5.6,14.9
8.04,0.75,0.0,3.0,0.75,1.75,1.25,0.75,1.0,0.0,1.75,0.5,0.75,0.5,-0.55,-0.11,-0.05,183.71,7.5,9.0,1.0,1.25,2.5,0.75,0.5,3.0,0.0,0.0,0.25,2.0,1.5,0.75,0.0,0.02,-0.61,0.83,199.23,-6.5,14.6
8.06,0.5,0.5,3.0,1.0,2.25,1.0,0.5,0.25,0.0,1.75,0.5,0.75,0.5,-0.48,-0.11,-0.05,183.71,8.6,16.3,0.75,0.75,2.75,1.0,0.5,3.0,0.25,0.0,0.25,1.75,1.5,0.75,0.0,0.02,-0.55,0.83,195.67,-7.3,13.4
8.08,0.5,0.0,3.0,0.75,2.25,1.0,0.5,0.25,0.0,1.75,0.5,1.25,0.5,-0.42,-0.11,-0.05,183.7,8.3,6.9,1.5,1.25,2.75,0.75,1.0,3.0,0.0,0.0,0.25,2.0,1.5,0.75,0.0,0.02,-0.55,0.77,202.07,-7.6,19.6
8.1,1.0,0.5,3.0,0.75,1.25,1.0,0.5,0.25,0.0,1.75,0.25,1.0,0.5,-0.42,-0.17,-0.05,182.01,10.6,14.2,1.0,1.25,2.5,0.75,1.0,3.0,0.0,0.0,0.25,2.25,1.5,0.75,0.0,0.08,-0.61,0.7,205.54,-5.7,14.6
8.12,0.5,0.25,3.0,0.75,2.5,1.0,0.5,0.25,0.0,1.25,0.0,1.0,0.5,-0.42,-0.17,0.02,178.96,9.0,19.5,1.25,1.0,2.75,0.75,1.0,3.0,0.25,0.0,0.25,2.25,1.5,0.75,0.0,0.08,-0.55,0.7,209.72,-6.9,15.4
8.14,0.75,0.25,3.0,0.75,1.75,1.0,0.5,0.0,0.0,1.75,0.25,1.0,0.5,-0.42,-0.23,0.08,174.81,10.0,13.7,0.5,1.25,2.5,1.25,1.0,3.0,0.25,0.0,0.25,1.5,1.5,0.75,0.0,0.02,-0.48,0.83,208.22,-6.6,18.5
8.16,0.5,0.5,3.0,1.25,2.25,1.0,0.5,0.25,0.0,1.5,0.5,1.25,0.5,-0.36,-0.3,0.08,179.35,9.3,14.1,0.75,1.25,2.75,0.75,0.5,2.75,0.25,0.0,0.25,2.0,1.5,0.75,0.0,-0.05,-0.42,0.7,204.9,-7.4,13.8
8.18,0.5,0.0,3.0,1.0,2.25,0.75,0.5,0.25,0.0,1.75,0.5,1.0,0.5,-0.36,-0.3,0.14,180.67,9.1,9.9,0.5,1.25,2.5,1.25,1.0,3.0,0.0,0.0,0.25,2.25,1.0,0.75,0.0,-0.05,-0.36,0.58,202.5,-5.0,16.6
8.2,1.0,0.5,3.0,0.75,2.5,1.0,0.5,0.25,0.0,1.75,0.5,1.0,0.5,-0.42,-0.42,0.27,187.48,9.1,16.8,1.25,1.0,2.5,0.75,1.0,3.0,0.0,0.0,0.25,2.0,1.5,0.75,0.25,-0.05,-0.36,0.58,203.41,-6.1,13.8
8.22,0.0,0.5,3.0,1.0,1.25,1.0,0.5,0.25,0.0,1.75,0.25,1.0,0.5,-0.42,-0.42,0.39,181.65,8.7,8.1,0.5,1.0,2.5,1.5,1.0,3.0,0.0,0.0,0.25,2.0,1.5,0.75,0.0,0.02,-0.36,0.58,205.51,-5.6,14.3
8.24,0.5,0.75,3.0,1.0,1.25,1.0,0.5,0.0,0.0,1.75,0.5,1.0,0.25,-0.48,-0.61,0.7,178.84,11.0,15.7,0.75,1.25,2.25,0.75,1.0,3.0,0.0,0.0,0.25,2.0,1.75,0.75,0.0,0.08,-0.23,0.7,204.99,-5.1,12.4
8.26,0.5,0.0,3.0,1.0,2.25,1.5,0.25,0.0,0.0,1.75,0.5,0.75,0.5,-1.11,-0.92,0.83,175.98,7.5,14.5,1.0,1.25,2.0,0.75,1.0,3.0,0.0,0.0,0.25,2.0,1.5,0.75,0.0,0.2,-0.23,0.64,203.14,-4.9,14.5
8.28,0.25,0.25,3.0,1.0,1.75,1.25,0.25,0.0,0.0,1.5,0.25,0.5,0.5,-1.42,-1.05,0.95,171.25,8.8,19.2,1.25,1.0,2.5,0.75,1.0,3.0,0.25,0.0,0.25,2.0,1.5,0.75,0.0,0.39,-0.17,0.52,203.23,-6.7,16.1
8.3,0.75,0.25,3.0,1.0,0.0,1.25,1.25,0.75,0.0,1.75,0.25,0.5,0.5,-1.67,-0.98,1.02,165.89,10.9,10.2,0.5,0.75,2.5,1.5,1.0,3.0,0.0,0.0,0.25,2.25,1.5,0.75,0.0,0.58,-0.11,0.45,203.08,-5.1,11.2
8.32,0.75,0.25,3.0,0.75,0.0,1.0,0.5,0.25,0.0,1.75,0.25,0.5,0.25,-1.73,-0.8,0.83,154.0,13.0,13.7,1.25,1.25,2.5,0.75,1.0,3.0,0.25,0.0,0.25,2.5,1.5,0.75,0.0,0.64,-0.05,0.52,207.25,-6.0,14.5
8.34,0.75,0.0,3.0,0.75,0.0,1.0,0.5,0.0,0.0,1.75,0.25,1.25,0.5,-1.61,-0.48,0.45,145.31,12.7,-0.2,0.75,1.0,2.5,0.75,1.0,3.0,0.25,0.0,0.25,1.5,1.5,0.75,0.0,0.58,0.02,0.64,204.56,-6.5,16.7
