time,left pressure 0[N/cm虏],left pressure 1[N/cm虏],left pressure 2[N/cm虏],left pressure 3[N/cm虏],left pressure 4[N/cm虏],left pressure 5[N/cm虏],left pressure 6[N/cm虏],left pressure 7[N/cm虏],left pressure 8[N/cm虏],left pressure 9[N/cm虏],left pressure 10[N/cm虏],left pressure 11[N/cm虏],left pressure 12[N/cm虏],left acceleration X[g],left acceleration Y[g],left acceleration Z[g],left total force[N],left center of pressure X[mm],left center of pressure Y[mm],right pressure 0[N/cm虏],right pressure 1[N/cm虏],right pressure 2[N/cm虏],right pressure 3[N/cm虏],right pressure 4[N/cm虏],right pressure 5[N/cm虏],right pressure 6[N/cm虏],right pressure 7[N/cm虏],right pressure 8[N/cm虏],right pressure 9[N/cm虏],right pressure 10[N/cm虏],right pressure 11[N/cm虏],right pressure 12[N/cm虏],right acceleration X[g],right acceleration Y[g],right acceleration Z[g],right total force[N],right center of pressure X[mm],right center of pressure Y[mm]
0.02,0.75,1.0,1.25,0.75,4.25,2.5,0.0,4.0,1.25,5.75,5.0,6.0,6.25,-0.05,0.02,0.95,592.38,-2.4,-43.9,5.75,1.5,1.5,3.0,0.5,2.0,0.0,0.0,1.0,0.0,0.25,0.25,0.0,0.08,0.58,1.45,347.33,-18.8,62.1
0.04,0.25,1.0,2.25,0.5,4.25,2.5,1.0,4.0,1.25,5.25,4.5,6.0,6.25,-0.11,0.02,0.89,636.56,-1.4,-41.8,2.25,0.5,2.5,2.0,0.0,2.75,0.0,0.0,0.75,0.25,0.0,0.25,0.0,0.39,0.39,1.39,216.75,-14.6,49.3
0.06,0.25,1.0,1.75,0.75,4.25,3.25,1.0,4.0,1.5,5.75,4.5,6.5,6.25,-0.11,0.08,0.89,652.63,-2.2,-42.4,1.25,1.25,1.25,2.5,0.5,3.0,0.0,0.0,1.0,1.5,0.25,0.5,0.0,0.58,0.08,1.52,110.96,-6.1,28.8
0.08,0.5,1.0,2.0,1.0,4.25,3.5,1.0,4.25,1.75,6.75,5.25,7.0,6.5,-0.11,0.08,0.89,681.9,-1.8,-42.4,0.75,0.5,1.5,0.5,1.0,0.5,0.0,0.0,0.75,0.5,0.25,0.0,0.25,0.7,-0.36,0.77,19.39,-12.7,31.4
0.1,0.25,1.0,2.25,0.0,4.25,3.5,1.25,5.25,2.0,7.25,6.0,7.75,7.25,-0.11,0.08,0.95,737.49,-2.3,-47.5,0.5,0.5,0.5,0.5,0.5,0.5,0.0,0.0,0.25,0.5,0.25,0.0,0.0,0.83,-0.55,1.77,0.0,-9.0,34.4
0.12,0.25,1.0,2.5,0.75,4.25,3.5,1.25,5.5,2.0,8.0,7.0,8.25,8.25,-0.11,0.08,0.95,816.64,-1.9,-48.0,0.25,0.0,0.0,1.0,0.5,0.5,0.0,0.25,0.5,0.5,0.0,0.0,0.0,0.52,-0.17,0.89,0.0,-2.0,17.9
0.14,0.25,1.0,2.25,1.75,4.25,3.5,1.25,6.25,2.5,8.5,7.25,9.0,9.0,-0.11,0.08,0.95,903.82,-1.9,-48.4,0.5,0.25,0.0,0.5,1.25,2.5,0.0,0.0,0.25,0.5,0.25,0.0,0.0,0.52,-0.17,0.52,0.0,5.3,32.0
0.16,0.25,0.5,2.25,1.5,4.25,4.0,1.25,6.25,3.0,9.5,8.0,9.0,9.75,-0.11,0.02,0.95,981.57,-2.4,-51.0,0.0,0.25,0.5,0.5,0.5,2.75,0.0,0.0,0.25,0.5,0.0,0.0,0.0,0.52,-0.23,0.83,0.0,6.5,30.5
0.18,0.25,0.75,1.75,2.0,3.75,4.0,1.25,7.0,3.0,9.5,8.25,9.25,10.0,-0.11,0.02,0.95,1028.01,-2.6,-51.8,0.5,0.25,0.5,0.5,0.5,2.5,0.25,0.0,0.5,0.5,0.25,0.0,0.0,0.39,-0.3,1.02,0.0,0.4,28.4
0.2,0.5,1.0,3.0,2.5,4.25,4.5,0.0,7.25,3.5,9.5,8.5,9.25,10.0,-0.11,0.08,0.95,1068.17,-1.8,-46.6,1.0,0.5,0.0,0.5,0.5,3.5,0.25,0.0,1.0,2.25,0.0,0.75,0.0,0.27,-0.11,1.02,18.11,4.2,2.9
0.22,0.75,1.0,3.0,2.0,4.25,5.0,0.5,7.25,3.75,9.5,8.5,9.25,10.0,-0.11,0.08,0.95,1101.33,-1.8,-46.0,1.0,0.5,2.5,0.5,3.0,2.75,0.0,0.25,0.5,0.5,1.5,0.75,0.0,0.27,0.14,0.89,91.71,-6.5,24.6
0.24,0.75,1.0,3.0,2.75,4.5,5.5,1.75,7.25,3.75,9.5,8.25,9.0,9.0,-0.11,0.02,0.95,1132.24,-1.3,-41.7,0.25,0.0,0.0,0.0,1.0,2.75,0.0,0.0,0.25,0.5,1.25,0.0,0.5,0.39,0.2,1.02,111.03,8.3,-3.3
0.26,0.75,1.0,3.0,2.75,5.0,5.5,3.0,7.5,4.0,8.5,8.0,8.5,8.75,-0.11,0.02,0.95,1139.68,-0.9,-38.8,0.0,0.0,0.0,0.0,0.5,3.25,0.0,0.0,1.0,2.0,0.25,0.75,0.0,0.45,0.33,1.08,129.44,10.7,-20.1
0.28,0.25,1.0,3.0,3.75,4.75,5.75,2.5,7.25,3.75,8.5,7.5,8.25,8.25,-0.11,0.08,0.95,1116.91,-1.1,-37.5,0.0,0.0,2.25,0.0,2.25,2.0,0.0,0.25,0.25,0.5,0.0,0.0,0.25,0.52,0.45,1.14,126.56,-3.0,32.2
0.3,0.0,1.0,3.0,3.75,5.75,5.75,2.5,7.25,3.75,8.25,7.0,7.5,7.5,-0.11,0.08,0.95,1070.41,-1.2,-34.1,0.0,0.0,0.0,0.0,1.0,2.0,0.0,0.0,0.25,0.5,0.25,0.0,0.25,0.52,0.58,1.39,107.04,12.3,7.5
0.32,0.0,1.0,3.0,4.0,6.5,6.25,3.0,7.25,4.25,7.5,7.0,7.0,7.0,-0.11,0.08,0.95,1024.91,-0.9,-30.1,1.0,0.0,0.0,0.0,0.25,2.75,0.0,0.0,0.25,0.25,0.25,0.0,0.25,0.52,0.7,1.58,96.1,6.1,25.0
0.34,0.75,1.0,3.25,5.5,6.75,6.75,3.25,7.25,4.25,7.25,6.25,6.75,6.5,-0.11,0.08,0.95,1000.1,-0.1,-23.6,1.0,0.75,0.0,0.0,0.25,2.75,0.0,0.0,0.25,0.5,0.25,0.0,0.25,0.52,0.77,1.7,91.71,4.0,30.5
0.36,1.75,1.0,4.0,5.5,6.75,7.0,3.5,7.25,4.25,6.25,5.75,6.0,5.5,-0.11,0.08,0.95,982.1,1.1,-16.9,0.0,0.0,0.5,0.0,0.25,2.5,0.0,0.0,0.25,0.5,1.0,0.0,0.25,0.58,0.95,1.89,84.41,6.4,-4.1
0.38,2.0,1.25,4.75,4.75,7.75,7.25,3.75,7.25,4.25,6.0,5.5,5.25,4.5,-0.11,0.08,0.95,975.11,1.6,-11.4,0.0,0.0,0.0,0.0,0.25,2.0,0.0,0.0,0.25,0.5,0.5,0.0,0.25,0.64,1.39,1.83,68.19,12.9,-8.8
0.4,1.25,1.0,5.25,6.5,8.5,7.5,4.25,7.25,4.25,5.75,5.25,5.0,4.25,-0.05,0.08,0.95,985.96,1.9,-8.0,1.0,1.25,0.0,0.0,0.25,3.0,0.0,0.0,1.0,2.0,1.5,0.75,1.0,0.45,1.7,1.14,97.85,2.4,-14.0
0.42,2.0,1.25,5.25,8.75,8.75,7.75,3.75,7.0,4.25,4.75,4.25,3.75,3.0,-0.05,0.08,0.95,998.09,3.0,2.5,0.0,0.0,2.75,0.75,1.0,3.0,0.5,0.0,1.0,2.25,0.25,0.75,0.25,-0.36,2.33,1.64,128.79,-3.5,3.7
0.44,3.0,1.25,5.5,9.25,9.5,8.0,5.0,6.5,3.75,4.5,4.0,3.25,2.5,-0.05,0.08,0.95,1020.17,4.1,8.5,1.0,0.0,1.75,0.5,1.25,3.0,0.25,0.0,0.25,0.5,1.5,0.75,0.25,-1.11,2.58,1.14,152.46,-5.4,13.0
0.46,4.0,2.25,6.5,11.5,10.5,8.25,5.5,6.25,3.5,4.25,3.0,2.25,1.5,-0.11,0.08,0.95,1074.91,5.7,19.9,1.5,0.25,2.75,0.0,1.25,2.0,0.5,0.0,1.0,2.0,1.5,0.75,1.0,-1.61,3.33,0.27,181.32,-7.6,-0.7
0.48,4.0,2.5,7.25,13.5,12.5,8.5,4.75,6.0,2.75,3.0,2.75,2.25,1.5,-0.11,0.08,0.95,1153.47,6.3,25.7,1.0,1.0,0.0,1.25,0.5,3.0,0.5,0.0,0.75,2.25,1.25,0.75,1.0,-1.92,3.77,1.64,198.55,0.8,-6.3
0.5,5.75,2.25,7.75,14.5,13.0,8.75,5.25,5.25,2.0,2.5,1.75,2.0,1.25,-0.11,0.14,0.95,1231.59,7.5,32.5,0.0,0.0,1.75,1.0,1.0,3.0,0.0,0.5,0.75,2.5,1.5,2.25,1.0,0.2,0.77,-0.11,211.19,0.0,-24.5
0.52,5.75,2.5,8.75,15.0,14.0,8.75,5.5,4.25,1.5,2.0,1.75,2.0,1.25,-0.11,0.14,0.95,1301.61,8.4,35.8,1.0,0.5,1.75,1.0,1.0,1.75,0.0,0.0,0.0,2.5,2.5,3.0,4.5,-0.23,-0.3,1.58,238.43,-1.7,-39.5
0.54,6.75,1.25,9.0,16.5,13.5,8.25,5.5,3.5,1.0,0.5,0.5,2.0,1.0,-0.11,0.14,1.02,1313.71,10.1,42.2,0.5,0.0,0.5,0.0,2.25,2.75,0.0,1.75,1.0,6.0,3.75,5.75,6.25,-0.73,0.52,0.77,313.34,4.6,-60.6
0.56,8.0,2.75,9.75,16.5,14.5,7.75,6.0,2.25,1.25,2.0,0.75,0.75,1.25,-0.11,0.2,1.14,1338.44,10.8,45.1,1.0,0.25,0.0,2.75,0.0,2.25,0.5,3.25,1.25,8.25,4.75,7.0,6.25,-0.36,1.08,3.45,420.64,2.7,-60.6
0.58,7.75,2.5,10.5,15.5,13.5,7.25,5.0,2.0,0.25,1.25,1.25,0.5,0.25,-0.11,0.2,1.14,1318.42,12.0,49.7,1.0,1.0,0.75,2.75,0.5,5.0,0.5,5.75,1.25,8.25,7.75,6.5,8.0,0.02,0.14,1.08,595.16,3.3,-50.8
0.6,8.75,2.75,10.5,15.0,13.0,6.0,4.25,2.0,0.5,0.75,1.5,0.75,0.25,-0.11,0.2,1.08,1295.42,13.2,50.4,1.25,1.0,0.0,2.0,1.0,5.0,1.5,5.75,1.75,8.25,7.0,6.5,8.0,0.08,0.14,0.95,730.96,3.8,-51.1
0.62,10.5,2.75,11.0,15.0,12.0,4.5,3.5,0.0,0.5,1.5,1.0,0.5,0.75,-0.17,0.27,1.2,1235.26,15.3,53.8,1.0,1.0,1.75,2.75,3.5,5.5,1.0,5.75,1.5,8.25,7.0,6.5,8.0,0.14,0.08,0.95,847.04,2.6,-40.3
0.64,9.5,2.5,10.5,13.0,10.5,3.0,1.0,1.0,0.75,0.5,1.5,1.25,0.25,-0.17,0.33,1.27,1128.57,16.0,52.2,1.0,0.75,1.5,2.75,2.5,5.75,1.75,5.75,1.5,8.25,7.0,6.5,8.0,0.08,0.08,0.95,895.64,2.7,-42.8
0.66,11.5,3.0,10.0,0.0,9.25,1.5,0.0,0.25,1.0,0.5,0.0,1.0,0.5,-0.23,0.39,1.39,903.82,18.8,59.6,1.0,1.25,2.25,3.0,2.5,5.75,1.75,5.75,1.75,8.5,7.25,6.5,8.0,0.08,0.08,0.89,939.78,1.8,-39.8
0.68,10.5,2.75,8.25,9.0,8.5,1.0,0.0,1.5,1.0,0.5,1.0,1.5,0.5,-0.36,0.64,2.08,776.08,17.0,51.4,1.0,1.25,2.75,3.0,3.25,5.75,1.75,6.25,2.0,8.75,7.75,6.75,8.0,0.08,0.08,0.89,975.91,1.5,-38.2
0.7,9.5,2.75,6.5,7.25,6.75,0.75,0.0,1.25,1.0,0.5,1.25,1.5,0.5,-0.61,0.95,2.45,639.11,17.1,49.5,1.0,1.0,2.75,2.75,4.25,6.0,1.75,6.5,2.0,8.75,7.75,6.5,8.0,0.08,0.08,0.95,1002.96,1.9,-36.8
0.72,6.5,1.0,4.25,3.75,5.75,0.0,0.0,0.25,0.5,0.0,0.75,0.25,0.25,-0.48,0.52,2.45,469.65,18.5,58.5,1.0,1.25,2.75,3.0,4.5,6.25,1.75,6.5,2.25,8.5,7.5,6.5,8.0,0.08,0.08,0.95,1018.41,1.7,-34.8
0.74,5.25,0.5,1.25,2.5,4.25,0.0,0.0,0.0,0.25,0.0,0.0,0.25,0.0,-0.23,0.45,2.2,304.49,17.7,66.9,1.0,1.25,2.75,3.0,4.5,6.25,2.25,6.5,2.25,8.5,7.25,6.5,8.0,0.08,0.08,0.95,1009.89,1.7,-34.4
0.76,2.0,0.0,3.0,0.0,4.75,0.0,0.0,0.0,0.0,0.0,0.5,0.25,0.0,-0.73,-0.17,2.14,186.93,15.4,53.7,0.75,1.0,2.75,3.0,4.5,6.5,2.25,6.75,2.25,8.5,7.25,6.25,8.0,0.08,0.08,0.95,985.77,2.1,-34.9
0.78,0.25,0.0,1.0,2.75,1.25,1.0,0.0,0.0,0.0,0.25,0.5,0.5,0.25,-0.61,-0.55,1.58,67.35,9.0,27.8,1.25,1.25,2.75,3.0,5.25,6.75,2.75,7.0,2.75,8.25,7.5,6.25,7.5,0.08,0.08,0.95,964.84,1.4,-31.0
0.8,0.0,1.0,2.25,1.75,3.75,0.75,0.0,0.25,0.5,0.0,0.5,1.0,0.5,-0.73,-1.86,1.14,17.29,8.6,28.9,1.25,1.5,2.75,3.25,5.5,7.25,2.0,7.0,3.0,8.25,7.25,5.75,7.5,0.08,0.08,0.95,953.89,1.7,-28.7
0.82,0.0,0.0,0.5,0.75,0.0,0.0,0.0,0.0,0.0,0.0,0.0,0.25,0.0,-0.55,-0.55,0.83,0.0,22.8,32.0,1.75,1.5,3.0,4.5,6.5,7.25,3.0,7.0,3.0,7.75,7.0,5.0,6.5,0.08,0.08,0.95,958.03,0.5,-20.8
0.84,0.0,0.0,2.75,0.75,0.0,0.25,0.0,0.0,0.0,0.0,0.0,0.5,0.0,-0.42,-0.48,0.27,0.0,27.8,39.4,2.25,1.5,3.25,5.25,6.75,7.5,3.0,6.75,3.0,7.25,6.5,5.0,6.25,0.08,0.08,0.95,975.01,-0.1,-16.8
0.86,0.0,0.0,1.0,0.0,4.25,1.0,0.0,0.0,0.0,0.5,0.0,1.0,0.0,-0.48,-0.36,0.45,0.0,0.3,25.1,2.75,1.5,4.25,5.5,6.75,7.5,4.0,6.5,3.0,6.5,5.75,3.5,5.5,0.08,0.08,0.95,979.23,-1.4,-9.1
0.88,0.5,0.25,3.0,1.75,4.25,1.0,0.0,0.0,0.0,0.5,0.5,1.0,0.5,-0.48,-0.36,0.77,14.42,9.3,30.0,3.5,1.5,5.25,7.25,8.0,7.75,4.5,6.5,3.0,6.0,5.5,2.5,4.0,0.08,0.14,0.95,1004.12,-3.1,1.5
0.9,1.0,0.0,2.25,1.75,4.25,1.0,0.0,0.0,0.5,0.5,0.75,1.0,0.5,-0.48,-0.3,0.89,83.25,8.6,25.1,3.75,2.0,5.5,8.5,8.25,7.75,4.75,6.0,2.5,5.25,4.75,2.25,3.25,0.08,0.14,0.95,1020.16,-4.1,8.6
0.92,1.0,0.0,2.25,1.75,4.25,1.0,0.0,0.0,0.0,0.5,0.75,1.25,0.5,-0.48,-0.11,0.95,133.95,8.5,25.0,3.75,2.5,6.75,9.25,9.25,8.0,5.0,5.75,2.25,4.0,3.75,1.75,2.25,0.08,0.14,0.95,1041.63,-5.5,18.2
0.94,1.0,0.0,2.25,1.75,4.25,1.0,0.0,0.0,0.25,1.25,1.0,1.25,0.5,-0.42,0.02,1.08,179.87,7.4,17.4,5.5,2.5,7.25,11.0,10.0,8.0,4.75,5.25,1.75,3.75,3.5,1.5,1.0,0.02,0.14,0.95,1075.2,-7.2,26.7
0.96,0.5,0.0,2.5,1.0,4.25,1.5,0.0,0.0,0.0,0.5,0.5,1.0,0.5,-0.36,0.2,1.27,201.41,6.4,25.9,5.5,2.75,7.75,12.5,11.0,8.25,5.5,4.5,1.5,3.5,3.25,1.0,2.0,0.02,0.14,0.95,1131.36,-7.5,29.1
0.98,0.5,0.0,2.25,1.25,4.25,0.75,0.0,0.0,0.25,0.5,0.5,1.25,0.5,-0.23,0.33,1.45,208.0,7.8,21.5,5.75,2.75,8.75,13.5,12.0,8.25,5.0,3.75,1.0,3.5,2.5,1.0,2.0,0.02,0.14,0.95,1190.27,-8.1,33.0
1.0,0.75,0.75,2.25,1.25,4.25,1.0,0.0,0.0,0.0,0.75,0.5,1.25,0.5,-0.17,0.58,1.77,213.2,7.5,26.6,6.25,3.0,8.75,14.0,12.0,8.25,5.5,3.25,1.0,3.0,2.5,0.75,1.25,0.02,0.14,0.95,1234.77,-9.1,37.3
1.02,0.5,0.5,2.75,1.75,4.25,1.0,0.0,0.0,0.0,0.5,0.5,1.25,0.5,-0.3,0.83,2.08,219.48,8.8,28.3,7.5,3.0,9.25,14.0,13.0,8.25,5.5,2.5,1.0,2.75,2.5,0.75,1.5,0.02,0.14,0.95,1279.77,-9.8,39.4
1.04,0.5,1.0,2.25,1.0,3.75,1.0,0.0,0.0,0.0,0.5,0.5,1.25,0.5,-0.42,1.27,2.39,216.41,7.8,26.9,8.0,0.0,10.5,0.0,13.5,8.25,0.0,1.75,0.75,2.5,2.5,0.75,1.25,0.02,0.2,1.02,1136.7,-7.8,35.2
1.06,0.5,1.0,2.25,1.0,4.25,1.0,0.0,0.0,0.0,0.5,0.5,1.25,0.5,-0.11,1.83,2.14,219.55,7.3,28.0,8.75,2.5,0.0,13.5,13.0,5.75,4.0,1.75,0.75,2.25,2.5,0.75,1.0,-0.05,0.2,1.08,1045.08,-7.3,40.4
1.08,0.25,0.0,2.25,1.5,4.25,1.0,0.0,0.0,0.0,0.75,0.5,1.5,0.5,0.89,2.14,0.7,209.18,6.4,17.9,9.25,4.5,10.5,17.0,12.0,7.5,4.0,1.5,0.0,0.0,1.5,0.25,1.0,0.02,0.27,1.14,1068.26,-13.2,53.9
1.1,0.5,1.0,2.25,0.75,4.25,1.5,0.0,0.0,0.25,0.0,0.5,1.0,0.25,1.2,2.64,1.33,200.65,7.4,35.8,9.25,3.5,10.5,16.0,12.0,7.0,2.75,0.5,0.25,0.0,1.25,0.75,0.5,0.02,0.33,1.08,1111.55,-13.9,55.1
1.12,0.5,0.25,1.25,1.5,3.5,1.25,0.0,0.0,0.5,1.75,0.5,1.5,0.5,1.7,3.2,0.33,194.79,3.3,6.6,11.0,4.75,10.5,16.0,11.5,5.5,0.0,0.25,0.5,0.5,1.5,0.75,0.75,0.08,0.33,1.2,1162.87,-14.7,56.0
1.14,0.5,1.0,2.25,0.75,3.75,0.5,0.0,0.0,0.0,0.0,0.5,1.25,0.25,1.39,3.52,-0.11,187.89,10.4,33.4,11.0,4.75,10.5,14.5,11.0,5.25,0.0,0.25,0.75,0.0,2.0,0.0,1.25,0.08,0.39,1.2,1173.07,-15.0,56.3
1.16,0.0,0.75,2.0,1.75,4.25,3.0,0.0,0.0,2.25,8.5,0.0,9.0,0.5,1.7,3.64,0.27,262.53,0.1,-33.7,9.0,4.5,9.25,12.5,8.25,4.75,0.0,0.25,0.75,0.0,2.0,0.75,1.0,0.27,0.52,1.33,1085.84,-15.1,53.4
1.18,0.0,0.75,2.25,0.25,3.75,4.5,1.0,6.5,2.25,8.0,8.0,9.0,9.0,-0.11,0.08,0.95,452.66,-2.9,-52.7,9.75,3.0,6.75,9.0,6.75,2.75,0.0,0.25,0.75,0.0,2.0,0.75,1.0,0.52,0.95,2.14,901.3,-16.4,52.5
1.2,0.0,1.0,3.0,1.75,4.25,4.5,1.25,6.5,2.5,8.5,8.0,8.75,9.0,-0.11,0.02,0.95,712.02,-1.8,-46.2,8.0,2.0,3.25,5.5,5.25,2.75,0.0,0.25,0.75,0.0,2.0,0.75,1.0,0.7,1.2,3.52,676.66,-14.1,47.0
1.22,0.0,1.0,3.0,2.25,4.25,4.5,1.5,6.75,2.5,8.5,8.0,8.25,9.0,-0.11,0.02,0.95,932.98,-1.7,-44.6,5.75,1.5,2.75,5.25,3.0,3.0,0.0,0.25,0.75,2.0,2.0,0.75,0.75,0.08,0.45,2.64,487.3,-11.5,33.9
1.24,0.0,0.25,3.0,3.0,4.25,5.25,1.0,6.5,3.0,8.5,7.75,8.25,8.75,-0.11,0.02,0.95,1061.96,-1.9,-44.0,1.5,3.0,1.25,1.75,4.5,1.0,0.0,0.0,0.5,0.0,0.5,0.25,0.0,0.89,-0.17,2.58,309.33,-9.5,57.0
1.26,0.0,0.0,3.0,3.5,3.75,4.75,0.0,7.0,3.0,8.5,7.5,8.25,8.25,-0.11,0.02,0.95,1104.44,-1.9,-45.2,1.0,0.0,1.5,1.25,1.0,0.25,0.0,0.25,0.25,0.25,0.0,0.25,0.0,0.45,-0.48,1.89,175.07,-16.5,43.0
1.28,0.25,1.0,3.0,3.5,4.5,5.0,0.75,7.0,3.25,8.5,7.25,7.75,8.25,-0.11,0.02,0.95,1112.3,-1.5,-39.3,0.5,0.0,0.5,0.5,0.5,0.25,0.0,0.0,0.25,0.25,0.0,0.0,0.0,0.89,-1.8,0.89,37.52,-13.0,41.9
1.3,1.0,1.0,3.25,3.75,4.75,5.75,1.25,7.0,3.5,7.5,7.0,7.5,7.5,-0.11,0.08,0.95,1109.34,-0.6,-33.4,1.25,0.5,2.25,1.0,1.0,3.0,0.0,0.0,1.0,1.5,0.0,0.75,0.0,0.52,-1.11,1.45,0.0,-6.5,23.8
1.32,0.75,0.25,3.25,3.75,5.25,5.75,1.25,6.5,3.5,7.25,7.0,7.25,7.25,-0.11,0.02,0.95,1090.57,-0.8,-33.9,1.0,0.0,2.75,2.0,4.25,3.0,0.5,0.25,1.0,2.0,1.5,0.75,0.5,0.27,-0.55,0.77,3.51,-4.8,15.3
1.34,0.0,1.0,3.5,4.25,4.75,5.75,3.25,6.5,3.5,7.0,7.0,7.0,6.5,-0.11,0.02,0.95,1051.6,0.0,-30.9,1.0,0.0,2.75,2.75,3.0,3.0,0.5,0.25,1.0,2.25,1.5,0.75,0.5,0.33,-0.55,0.33,78.13,-5.6,13.1
1.36,1.75,1.0,5.0,5.5,6.0,5.75,3.5,6.25,4.0,6.0,6.5,6.0,5.75,-0.11,0.02,0.95,1030.23,2.6,-18.0,1.0,0.25,2.25,2.5,2.75,3.0,0.5,0.25,1.0,2.25,1.5,0.75,0.5,0.33,-0.42,0.64,136.56,-4.8,11.7
1.38,1.0,1.25,5.0,5.5,6.75,6.25,4.25,6.25,4.25,6.0,6.5,6.0,5.5,-0.05,0.08,0.95,1011.6,2.3,-16.8,1.0,0.25,2.75,2.0,3.25,3.0,0.5,0.25,1.0,2.25,1.5,0.75,0.75,0.27,-0.42,0.95,180.69,-4.9,11.3
1.4,2.0,1.25,5.25,7.0,7.0,6.25,4.75,6.25,4.25,5.75,5.75,5.25,4.5,-0.05,0.08,0.95,993.45,3.5,-9.0,1.0,0.25,2.5,1.75,2.75,3.25,0.5,0.25,1.0,2.25,1.5,1.0,0.75,0.27,-0.17,1.02,209.91,-4.2,7.4
1.42,2.0,1.25,5.5,7.25,7.75,6.75,5.0,6.0,4.25,4.75,4.5,5.0,3.5,-0.05,0.08,0.95,978.65,4.0,-2.6,1.25,0.75,2.75,1.25,2.25,3.25,0.5,0.25,0.75,2.0,1.75,0.75,1.0,0.27,0.08,1.08,232.25,-5.1,9.6
1.44,3.0,1.25,6.5,9.0,8.5,7.0,5.5,5.5,3.75,4.25,4.75,3.75,2.75,-0.05,0.08,0.95,1006.85,5.7,6.8,1.0,1.25,2.75,1.75,2.75,3.25,0.5,0.25,1.0,2.0,1.5,0.75,0.75,0.2,0.2,1.27,256.35,-5.3,15.5
1.46,3.0,1.25,7.5,11.0,8.5,7.0,5.75,5.25,3.75,4.25,4.0,3.5,2.25,-0.05,0.08,0.95,1041.98,6.8,11.7,1.0,1.0,2.5,1.5,2.25,3.0,0.5,0.0,1.0,1.75,1.5,0.75,0.5,0.27,0.33,1.39,264.17,-6.1,15.4
1.48,3.75,1.5,8.0,12.0,8.75,7.0,6.0,4.75,3.5,3.75,3.5,2.25,1.25,-0.05,0.08,0.95,1073.86,8.1,20.6,1.0,1.0,2.75,1.75,2.5,3.0,0.5,0.0,1.0,2.0,1.5,0.75,0.75,0.2,0.52,1.52,274.41,-6.0,14.2
1.5,4.0,2.25,9.0,13.5,9.75,7.0,6.0,4.0,3.0,2.0,2.75,2.0,1.25,-0.05,0.08,0.95,1109.54,9.6,29.2,1.0,0.5,2.5,1.0,1.5,3.0,0.5,0.0,0.75,2.25,1.5,0.75,0.75,0.14,0.58,1.77,263.63,-4.9,5.1
1.52,5.5,2.25,9.75,14.5,10.5,7.0,6.75,3.5,2.25,2.0,2.5,2.0,1.25,-0.05,0.08,0.95,1159.97,10.7,33.3,1.0,1.0,2.5,1.25,1.25,3.0,0.5,0.0,0.75,2.0,1.5,0.75,0.75,0.2,0.77,2.08,249.72,-5.8,9.3
1.54,5.5,2.5,10.0,15.5,13.0,7.0,7.0,3.0,2.0,2.0,1.75,1.75,1.0,-0.05,0.14,0.95,1227.5,10.6,37.8,1.0,1.25,2.75,1.25,1.0,2.75,0.5,0.0,0.75,1.5,1.5,0.75,0.75,0.33,1.14,2.39,228.53,-7.8,13.2
1.56,6.5,2.5,11.0,16.5,13.0,7.0,7.25,2.0,1.25,1.75,1.5,1.75,0.75,-0.05,0.14,0.95,1290.97,12.0,42.3,1.0,0.5,2.5,1.25,1.0,2.75,0.5,0.0,0.75,1.75,1.5,0.75,0.75,0.2,1.95,2.58,215.19,-6.6,6.4
1.58,7.75,2.5,12.0,16.5,13.5,6.75,7.25,2.0,1.25,0.75,1.5,1.75,1.0,-0.05,0.14,1.02,1337.86,13.0,44.7,1.0,0.25,2.5,1.5,1.25,3.0,0.5,0.0,0.75,0.75,1.5,0.75,0.5,-0.17,3.14,1.77,206.31,-7.9,15.0
1.6,8.75,2.75,12.5,17.5,14.0,5.75,7.25,2.0,1.25,0.75,0.5,1.5,1.0,-0.11,0.14,1.08,1373.33,13.9,48.1,1.0,0.5,2.5,1.5,1.5,3.0,0.5,0.0,0.5,2.0,1.5,0.75,0.75,-0.55,3.83,-0.17,207.7,-5.5,8.8
1.62,9.0,2.75,14.0,18.0,14.0,5.25,6.75,1.75,0.5,1.25,0.5,2.0,0.75,-0.05,0.14,1.14,1406.17,14.7,48.6,1.0,0.5,2.5,0.5,1.0,2.75,0.5,0.0,0.75,2.25,1.5,0.75,0.5,-1.61,4.83,-0.48,202.72,-5.6,2.8
1.64,10.0,2.75,14.0,17.5,14.0,3.5,7.0,0.5,0.5,1.25,1.25,1.0,0.5,-0.05,0.2,1.08,1410.95,16.5,52.4,1.0,0.0,0.0,0.0,0.5,1.75,0.25,0.5,0.25,0.5,0.75,0.5,0.25,-3.11,4.95,-0.11,163.29,1.2,-3.7
1.66,9.5,3.75,15.5,17.0,13.5,2.25,6.0,0.0,0.75,1.0,1.25,1.5,0.5,-0.11,0.27,1.14,1403.91,17.7,53.0,0.0,0.0,0.0,0.5,0.25,1.75,0.0,0.0,0.0,3.25,0.75,2.25,2.25,0.27,-0.55,-0.17,150.02,7.7,-63.5
1.68,11.5,4.0,15.5,16.0,13.0,1.5,4.75,1.25,1.0,0.5,1.0,1.25,0.5,-0.17,0.33,1.27,1385.28,18.3,54.7,0.0,0.0,0.0,0.0,0.0,0.25,0.0,0.0,0.25,4.25,2.25,5.5,4.0,-0.11,-0.05,0.64,173.32,3.2,-93.3
1.7,11.5,3.5,14.0,13.5,10.5,1.0,2.5,1.0,0.5,0.5,0.75,1.25,0.75,-0.3,0.39,1.45,1307.03,19.1,55.7,0.5,0.0,0.0,0.75,0.25,4.0,0.25,2.0,0.75,7.75,6.0,6.5,7.5,0.14,0.89,4.64,285.63,5.1,-68.2
1.72,11.5,2.5,11.0,11.5,7.25,0.75,1.0,1.25,0.75,0.0,0.5,1.25,0.5,-0.48,0.64,1.64,1115.89,20.1,56.9,1.5,0.25,1.25,3.0,2.75,6.0,0.0,6.5,2.0,9.25,9.0,7.75,8.75,-0.11,0.64,1.33,511.27,3.0,-47.0
1.74,9.75,2.75,10.0,7.5,6.75,0.0,0.0,0.25,0.75,0.25,0.5,0.25,0.5,-0.61,0.89,2.27,871.66,21.2,61.7,1.25,0.25,2.5,3.0,1.0,6.25,0.5,6.5,2.0,9.0,9.0,7.5,8.75,0.08,0.14,1.02,761.55,2.1,-47.7
1.76,7.25,1.25,6.5,4.75,4.5,0.0,0.0,0.0,0.5,0.5,0.0,0.5,0.25,-0.86,0.83,2.83,594.55,21.6,60.9,0.0,0.25,2.75,3.0,1.75,6.25,1.75,6.5,2.0,8.75,8.25,7.0,8.25,0.14,0.14,0.95,935.46,2.5,-46.3
1.78,5.75,1.0,4.75,3.75,4.25,0.0,0.0,0.0,0.5,0.5,0.0,0.5,0.0,-0.73,0.45,2.7,380.16,20.4,60.3,0.5,0.5,1.75,2.75,2.25,6.0,1.75,6.5,1.75,8.75,8.0,7.0,8.25,0.14,0.08,0.89,1009.46,3.0,-46.1
1.8,4.0,1.0,3.25,2.25,5.25,0.0,0.0,0.0,0.0,0.0,1.5,0.25,0.5,-0.98,0.33,2.83,256.05,16.1,50.0,0.0,0.5,1.75,2.75,1.0,6.0,1.0,6.5,1.75,8.75,8.0,7.0,8.0,0.08,0.08,0.89,1013.79,3.5,-50.3
1.82,1.25,1.0,2.0,0.0,2.5,0.5,0.0,0.0,0.0,0.5,0.0,1.0,0.0,-0.98,-0.67,2.2,134.89,12.4,40.1,0.75,0.5,2.5,2.75,2.5,6.25,1.75,6.5,2.0,8.75,7.75,6.5,8.0,0.08,0.08,0.95,1007.93,2.4,-42.1
1.84,0.75,1.0,3.5,1.0,4.25,1.0,0.0,0.0,0.0,0.75,0.5,0.75,0.5,-1.36,-0.55,2.89,70.7,10.0,34.9,1.0,0.25,2.75,3.0,3.75,6.25,1.75,6.5,2.25,8.75,8.0,6.5,8.0,0.08,0.08,0.95,1019.7,1.9,-39.0
1.86,1.0,1.0,3.0,1.25,4.25,1.0,0.0,0.0,0.0,0.5,0.75,1.25,0.5,-1.42,-1.55,1.14,43.33,10.0,30.7,1.0,0.5,2.75,3.0,4.5,6.5,1.75,6.5,2.25,8.25,7.75,6.5,8.0,0.08,0.08,0.95,1034.0,1.9,-36.3
1.88,0.5,0.75,3.5,1.75,4.5,1.0,0.0,0.0,0.0,0.5,0.5,1.25,0.5,-1.23,-0.8,1.14,57.89,10.1,31.5,0.75,1.25,2.75,2.75,4.5,6.75,2.25,6.75,2.25,8.25,7.5,6.25,7.5,0.08,0.08,0.95,1025.48,1.9,-33.8
1.9,0.75,1.0,3.0,2.0,4.25,1.0,0.0,0.0,0.0,0.75,0.75,1.25,0.25,-0.67,-0.55,0.39,79.93,9.9,31.7,1.25,1.5,2.75,3.0,4.75,7.0,2.75,7.0,2.25,8.0,7.25,5.75,7.5,0.08,0.08,0.95,991.78,1.6,-29.9
1.92,0.25,1.0,3.0,2.25,4.25,1.0,0.0,0.0,0.0,0.75,0.75,1.25,0.5,-0.36,-0.42,0.33,113.79,8.9,27.8,1.0,1.5,2.75,3.25,5.75,7.25,2.75,7.0,2.75,7.75,7.0,5.75,6.5,0.08,0.08,0.95,949.79,1.5,-26.5
1.94,0.5,1.0,3.0,2.0,4.25,1.0,0.0,0.0,0.0,0.75,0.5,1.25,0.25,-0.23,-0.36,0.58,144.84,9.6,32.3,1.0,1.5,2.75,3.75,6.5,7.5,3.0,7.0,3.0,7.5,7.0,5.0,6.25,0.08,0.14,0.95,915.61,1.3,-22.7
1.96,0.25,1.0,3.25,2.0,4.25,1.0,0.0,0.0,0.0,0.5,0.75,1.25,0.5,-0.3,-0.36,0.77,172.76,9.7,29.5,1.25,1.5,2.75,5.25,6.75,7.75,3.5,7.0,3.0,7.25,6.5,4.5,5.75,0.08,0.14,0.95,911.49,0.7,-17.4
1.98,0.25,1.0,3.0,2.0,4.25,1.0,0.0,0.0,0.0,0.5,0.75,1.0,0.5,-0.3,-0.3,0.89,194.64,9.2,31.3,1.0,1.5,3.5,5.5,7.75,7.75,3.0,6.75,3.0,6.25,6.25,3.5,5.25,0.08,0.14,0.95,926.51,0.2,-11.8
2.0,0.25,1.0,3.0,2.0,4.25,1.0,0.0,0.25,0.0,0.5,0.5,1.25,0.5,-0.36,-0.11,0.95,212.39,8.8,29.6,2.25,2.0,5.25,7.25,8.25,8.0,4.0,6.5,3.0,5.75,5.5,2.5,4.0,0.08,0.14,0.95,966.17,-2.4,1.1
2.02,0.25,1.0,3.0,2.0,4.25,1.0,0.0,0.0,0.0,1.25,0.5,1.25,0.5,-0.36,0.02,0.95,222.24,8.0,25.6,2.25,2.25,5.5,8.75,9.25,8.0,4.0,5.75,2.25,4.0,4.5,2.25,2.75,0.08,0.14,0.95,985.26,-3.7,11.4
2.04,0.25,1.0,3.0,1.75,4.25,1.0,0.0,0.0,0.0,1.25,0.5,1.25,0.5,-0.3,0.14,1.14,228.49,7.8,25.1,3.0,2.75,6.75,9.75,10.5,8.25,4.5,5.5,2.0,3.75,3.75,1.25,2.25,0.08,0.14,0.95,1026.29,-5.0,20.6
2.06,0.25,0.5,3.25,0.75,2.5,1.25,0.0,0.0,0.0,1.0,0.5,1.25,0.5,-0.23,0.27,1.39,217.45,9.2,17.4,4.75,2.75,7.0,11.0,11.0,8.25,4.25,4.75,1.5,3.5,3.25,1.0,2.25,0.08,0.14,0.95,1064.83,-6.2,26.5
2.08,0.25,0.75,3.0,1.5,4.25,1.0,0.0,0.0,0.0,0.5,0.5,1.5,0.5,-0.23,0.45,1.64,209.35,8.8,26.1,5.5,3.0,7.75,12.5,12.0,8.25,3.0,3.5,1.0,3.5,2.5,1.0,1.25,0.02,0.14,0.95,1111.63,-7.4,34.2
2.1,0.25,0.75,3.0,1.75,4.25,1.0,0.0,0.0,0.0,0.75,0.5,1.25,0.5,-0.17,0.58,1.77,206.99,8.6,27.2,6.75,3.0,8.5,12.5,12.0,8.25,4.0,3.25,1.0,3.0,2.5,0.75,1.5,0.02,0.14,0.95,1159.2,-8.6,36.7
2.12,0.25,1.0,3.0,1.75,4.25,1.0,0.0,0.0,0.0,0.75,0.5,1.5,0.5,-0.3,0.7,2.02,212.62,8.6,26.2,7.5,3.75,8.75,12.5,12.5,8.25,4.0,2.25,1.0,2.75,2.5,1.0,1.25,0.02,0.2,0.95,1206.06,-9.5,39.8
2.14,0.25,0.75,3.0,1.75,4.25,1.0,0.0,0.0,0.0,0.75,0.5,1.25,0.5,-0.55,1.14,2.45,215.1,8.6,27.2,8.0,3.0,8.75,14.0,12.5,7.75,3.75,1.5,0.25,2.5,2.5,0.75,1.25,-0.05,0.2,1.02,1228.06,-10.4,42.7
2.16,0.0,0.75,3.0,1.25,4.25,1.0,0.0,0.0,0.0,0.75,0.5,1.25,0.5,-0.42,1.7,2.58,214.6,7.8,24.9,8.0,3.0,9.25,12.5,11.5,7.5,1.75,0.5,0.25,2.25,1.5,0.75,0.5,-0.05,0.2,1.02,1184.93,-11.4,48.3
2.18,0.0,0.75,3.0,1.5,4.25,1.0,0.0,0.0,0.0,0.75,0.5,1.5,0.5,0.14,2.45,2.27,212.96,8.0,23.2,8.75,4.0,9.25,14.0,13.0,7.25,2.25,1.75,1.0,0.0,2.25,0.25,1.25,0.02,0.27,1.08,1185.71,-11.7,49.5
2.2,0.75,0.5,3.0,1.0,4.25,1.0,0.0,0.0,0.0,0.25,0.5,1.25,0.5,1.2,3.08,1.7,208.33,9.8,30.3,9.75,5.25,9.25,14.0,11.5,6.5,0.75,1.25,0.25,0.5,0.0,0.5,0.5,0.02,0.27,1.08,1152.88,-13.0,58.2
2.22,1.0,0.75,3.0,1.5,4.25,1.0,0.0,0.0,0.0,0.5,0.5,1.5,0.5,2.2,3.02,0.77,213.01,10.0,29.4,9.5,4.75,11.0,12.5,11.0,5.75,0.0,0.5,0.25,0.0,0.75,0.25,0.75,0.08,0.33,1.08,1116.73,-14.5,59.0
2.24,0.75,0.75,3.0,0.75,3.5,1.0,0.0,0.0,0.0,0.25,0.0,1.25,0.75,2.27,3.83,0.45,205.63,10.1,30.7,11.0,4.75,9.75,14.0,11.0,5.75,0.0,0.0,0.0,0.0,2.0,0.75,1.0,0.08,0.39,1.27,1094.96,-14.6,56.3
2.26,1.0,1.0,2.75,0.5,4.25,1.0,0.0,0.0,0.0,0.0,0.5,0.75,0.5,2.08,4.33,-0.42,202.65,10.0,39.9,9.75,4.5,9.5,12.5,9.5,5.5,0.0,0.25,0.75,0.75,2.0,0.5,1.0,0.14,0.45,1.27,1055.42,-14.2,52.7
2.28,0.75,0.75,0.75,1.0,0.0,0.0,0.0,0.0,0.25,0.5,0.0,1.25,0.25,2.33,2.89,-0.42,161.23,15.2,7.3,9.75,4.5,8.0,9.0,7.0,2.5,0.0,0.25,0.0,2.25,1.5,0.75,0.75,0.39,0.7,1.7,932.07,-15.7,51.8
2.3,0.25,0.0,0.75,0.0,0.0,0.0,0.0,0.0,0.75,2.0,0.5,4.75,4.25,0.08,-0.67,1.64,168.21,0.1,-85.9,8.25,2.75,4.0,5.5,6.0,1.75,0.0,0.25,0.25,0.5,1.75,0.75,1.0,0.95,1.52,3.7,724.35,-15.0,49.8
2.32,0.0,0.75,2.25,0.25,0.0,2.0,0.0,0.0,0.5,6.0,2.5,7.0,6.5,0.83,0.7,1.83,235.0,-1.1,-66.8,6.75,1.5,2.75,4.5,4.5,3.75,0.0,0.25,0.75,0.0,1.5,0.75,1.0,0.2,0.33,2.64,527.35,-12.1,44.8
2.34,0.0,1.0,2.5,0.75,0.5,2.5,0.0,5.0,2.75,7.75,7.0,8.25,8.75,0.02,0.83,2.2,392.75,-1.7,-61.3,3.5,1.25,1.75,1.25,4.5,1.75,0.0,0.0,0.0,0.0,1.5,0.25,1.25,0.83,-0.11,3.02,335.37,-9.5,39.3
2.36,0.0,1.0,0.0,2.0,4.25,2.75,0.0,6.25,3.5,8.5,8.75,9.0,9.25,0.27,0.02,1.33,636.36,-3.2,-55.7,1.25,0.75,0.5,3.25,1.25,2.25,0.0,0.0,0.5,1.0,0.0,0.75,0.0,0.45,-0.3,2.39,210.89,-6.2,33.6
2.38,0.25,1.0,3.0,2.0,2.5,4.25,0.75,6.5,3.0,8.5,8.75,9.0,9.25,0.02,0.08,1.02,871.37,-1.3,-50.1,1.5,0.0,2.75,3.0,3.5,1.25,0.0,0.25,1.0,0.0,0.0,0.75,1.0,0.95,-1.8,1.08,134.97,-10.9,32.4
2.4,0.25,0.75,2.5,1.75,4.25,4.25,1.25,6.5,3.0,8.5,8.25,9.0,9.0,-0.17,0.08,0.95,1024.68,-1.8,-47.9,1.0,0.0,2.75,0.5,2.5,0.75,0.0,0.25,0.25,0.75,0.25,0.0,1.0,0.58,-0.98,1.08,70.3,-9.5,25.5
2.42,0.0,1.0,3.0,2.0,4.25,4.5,0.0,7.0,3.0,8.0,8.0,8.5,9.0,-0.11,0.02,0.95,1094.03,-2.0,-45.9,0.5,0.25,0.75,0.5,0.5,0.5,0.0,0.0,0.25,0.5,0.0,0.0,1.25,0.33,-0.55,0.58,0.0,-4.5,1.3
2.44,0.25,1.0,3.0,2.25,4.25,4.5,0.0,7.0,3.0,8.25,8.0,8.25,9.0,-0.11,0.02,0.95,1118.57,-1.9,-44.7,1.0,0.0,0.5,1.75,2.25,2.0,0.0,0.0,0.25,0.5,0.0,0.0,0.5,0.33,-0.48,0.27,0.0,-2.2,36.3
2.46,0.0,1.0,3.0,3.5,4.25,5.0,0.0,7.0,3.0,8.25,7.5,8.25,8.25,-0.11,0.02,0.95,1120.13,-1.7,-41.3,0.0,0.25,0.5,0.0,0.25,0.5,0.0,0.0,0.25,0.5,0.0,0.0,0.25,0.39,-0.42,0.52,0.0,-1.1,5.0
2.48,0.5,0.0,3.0,3.75,4.25,5.5,1.0,7.0,3.5,8.25,7.25,7.75,8.25,-0.11,0.02,0.95,1117.79,-1.5,-40.3,0.0,0.0,0.0,0.25,0.25,0.5,0.0,0.0,0.25,0.5,0.0,0.0,0.25,0.39,-0.42,0.89,0.0,7.7,-14.2
2.5,0.0,1.0,3.0,3.75,4.75,5.25,0.5,7.0,3.5,7.5,7.0,7.5,7.5,-0.11,0.02,0.95,1084.87,-1.4,-36.8,0.0,0.0,0.0,0.0,0.25,0.5,0.0,0.0,0.25,0.5,0.0,0.0,0.25,0.33,-0.23,0.95,0.0,11.4,-24.9
2.52,0.5,1.0,3.25,3.75,4.75,5.75,2.25,7.25,3.75,7.25,6.75,7.0,6.75,-0.11,0.02,0.95,1043.74,-0.5,-32.0,0.0,0.25,0.0,0.5,0.5,1.0,0.0,0.0,0.25,0.5,0.25,0.0,0.25,0.39,0.02,0.89,0.0,4.7,7.0
2.54,0.25,1.0,4.0,4.75,4.75,5.75,3.25,7.0,3.75,6.5,6.5,6.5,6.25,-0.11,0.02,0.95,974.12,0.5,-27.1,0.0,0.0,0.5,0.25,0.5,2.25,0.0,0.0,0.25,0.5,0.25,0.0,0.25,0.39,0.2,1.02,0.0,6.7,11.8
2.56,1.75,1.0,4.75,5.5,6.75,6.25,3.75,7.0,4.25,6.0,5.75,6.25,5.5,-0.11,0.02,0.95,952.21,2.0,-16.5,1.0,1.25,0.0,0.5,0.5,2.0,0.0,0.0,0.25,0.5,0.25,0.5,0.5,0.39,0.33,1.2,27.42,-1.1,23.2
2.58,2.0,1.25,5.25,7.0,6.75,7.0,4.5,6.75,4.25,5.75,5.25,5.25,4.5,-0.05,0.08,0.95,953.9,3.0,-8.6,0.0,0.0,0.0,0.5,0.25,2.0,0.0,0.0,0.25,0.5,0.25,0.0,0.25,0.33,0.45,1.45,49.52,10.3,4.1
2.6,2.25,1.25,5.5,7.5,7.0,7.0,5.0,6.25,4.25,4.5,5.0,4.25,2.75,-0.05,0.08,0.95,962.98,4.4,-0.4,0.25,0.0,0.0,0.5,0.5,1.75,0.0,0.0,0.25,0.5,0.25,0.0,0.25,0.33,0.58,1.64,58.49,6.6,11.0
2.62,3.0,1.25,6.5,9.0,8.5,7.0,5.5,6.25,3.75,4.25,3.0,3.5,2.5,-0.11,0.08,0.95,987.65,5.3,9.4,1.0,1.0,0.0,0.5,0.25,0.5,0.0,0.0,0.25,0.5,0.25,0.0,0.25,0.39,0.83,1.95,58.09,-8.2,35.9
2.64,3.25,1.5,6.75,11.5,9.25,7.0,5.75,5.5,3.25,4.25,3.0,2.5,2.25,-0.05,0.08,0.95,1023.09,6.2,16.1,1.0,0.25,0.0,1.0,0.25,2.75,0.0,0.0,0.75,2.25,0.25,0.75,0.25,0.64,1.33,2.52,90.62,2.8,-4.8
2.66,4.0,1.75,8.0,13.0,9.5,7.25,5.75,5.25,3.0,2.5,1.75,2.5,1.5,-0.05,0.08,0.95,1062.8,8.1,25.6,1.0,0.5,2.25,0.75,1.0,2.75,0.5,0.0,0.5,2.25,1.5,0.75,1.0,0.77,2.08,2.39,142.19,-4.4,-0.5
2.68,4.25,2.0,8.25,13.5,10.5,7.25,5.0,4.25,2.25,2.25,1.75,2.25,1.25,-0.05,0.08,0.95,1093.9,8.6,30.3,0.5,0.25,2.25,1.0,1.0,2.75,0.5,0.25,0.75,1.75,1.5,1.0,1.0,0.58,3.02,1.83,183.22,-4.0,-5.0
2.7,5.5,2.0,9.0,15.0,13.0,7.25,5.5,4.0,2.0,2.0,1.5,2.0,1.5,-0.05,0.14,0.95,1167.32,9.2,34.6,1.25,0.5,1.75,1.25,1.0,3.0,0.5,0.0,0.5,1.25,1.5,0.75,0.75,-0.3,3.58,0.83,213.84,-5.5,9.1
2.72,5.5,1.5,9.0,13.5,10.5,7.0,5.25,2.0,1.25,1.0,0.5,0.75,0.25,-0.11,0.14,0.95,1127.24,11.5,46.1,1.0,0.5,2.5,1.0,1.5,2.75,0.5,0.25,0.5,1.75,1.5,0.75,1.0,-1.3,4.02,-0.23,230.14,-5.2,5.3
2.74,6.25,1.25,9.0,15.0,12.5,7.0,5.75,2.0,1.25,1.75,0.5,1.75,0.25,-0.05,0.14,1.02,1133.83,11.1,43.1,1.0,0.75,2.75,1.0,1.25,2.0,0.0,0.25,0.5,2.25,1.5,0.75,0.75,-2.42,5.58,0.83,235.53,-6.6,4.5
2.76,7.0,1.25,10.0,17.0,14.0,6.75,5.5,1.0,1.0,1.5,1.25,1.5,1.0,-0.05,0.14,1.02,1159.91,11.9,44.2,1.0,0.0,1.75,1.25,1.0,1.25,0.0,0.0,0.5,2.5,1.5,1.0,1.25,-2.48,3.08,0.2,227.29,-5.1,-14.4
2.78,8.0,2.75,10.5,16.5,13.5,6.0,5.0,2.0,0.5,2.0,0.0,1.5,0.75,-0.11,0.2,1.02,1215.24,12.3,47.5,1.0,0.0,2.0,0.75,1.0,2.75,0.0,0.25,0.25,4.0,2.5,4.75,5.25,0.27,-0.42,2.7,266.74,0.3,-48.9
2.8,8.75,2.75,11.0,17.5,14.5,5.0,5.25,1.75,0.5,2.0,0.25,2.0,0.75,-0.11,0.2,1.02,1278.04,13.1,47.2,0.5,0.5,1.0,1.25,1.5,2.5,0.0,1.0,1.0,6.5,1.5,6.0,6.0,-0.86,0.7,1.14,324.69,3.3,-54.3
2.82,9.0,2.75,12.5,17.5,14.5,4.5,4.0,1.0,0.5,1.75,0.75,1.75,1.0,-0.11,0.2,1.08,1328.14,14.1,48.4,1.0,0.0,0.5,1.0,1.0,4.0,0.0,3.75,1.5,9.25,6.5,7.75,8.0,0.52,0.7,3.39,477.82,4.2,-62.3
2.84,10.5,2.75,12.5,3.0,13.0,3.5,3.75,0.25,0.5,1.75,1.0,1.75,0.5,-0.11,0.27,1.08,1219.72,15.6,49.3,0.5,0.25,1.5,2.25,3.0,6.25,0.0,6.5,2.0,9.25,9.0,8.0,8.75,-0.17,0.39,1.39,694.15,3.7,-49.8
2.86,11.5,3.0,12.5,16.5,13.0,2.5,1.75,1.0,0.75,1.25,1.25,1.25,0.5,-0.23,0.33,1.27,1205.18,16.3,52.8,1.25,0.5,1.25,3.0,2.75,6.25,0.0,6.75,1.75,9.25,8.5,7.5,8.75,0.08,0.14,1.02,885.88,3.4,-46.1
2.88,10.5,2.5,12.5,12.0,11.5,0.0,0.5,1.0,0.5,0.0,0.5,0.0,0.5,-0.23,0.39,1.45,1075.55,19.2,61.1,1.0,0.5,2.25,3.0,3.5,6.25,0.5,6.5,1.75,9.0,8.25,7.0,8.75,0.14,0.14,0.95,1005.72,2.8,-42.3
2.9,9.5,1.5,10.0,9.5,8.0,0.0,0.0,0.0,0.5,0.5,0.0,0.25,0.25,-0.48,0.64,1.64,907.86,20.7,62.9,0.5,1.25,2.25,2.75,3.5,6.25,1.5,6.5,1.75,8.75,7.25,7.0,8.5,0.08,0.08,0.95,1051.83,2.8,-40.4
2.92,8.75,1.75,7.75,7.25,6.25,0.0,0.0,0.0,0.5,0.0,0.0,0.25,0.25,-0.67,1.02,2.39,691.99,21.4,65.6,1.0,1.0,2.25,2.75,4.5,6.25,1.5,6.5,1.75,8.75,7.75,7.0,8.25,0.14,0.08,0.95,1071.39,2.4,-38.0
2.94,7.5,1.25,5.5,5.0,4.5,1.0,0.0,0.0,0.75,0.5,0.0,1.5,0.0,-0.73,0.89,2.95,506.85,19.3,54.9,1.0,0.5,2.75,3.0,4.5,6.25,1.75,6.5,2.25,8.5,7.75,6.5,8.0,0.08,0.08,0.89,1063.88,1.9,-36.7
2.96,6.25,1.0,5.0,3.75,5.5,0.25,0.0,0.25,0.5,0.5,0.5,0.5,0.5,-0.48,0.45,2.58,370.36,17.8,53.3,1.0,1.25,2.5,3.0,4.5,6.75,1.75,6.5,2.25,8.25,7.5,6.25,8.0,0.08,0.08,0.95,1054.2,2.1,-34.2
2.98,3.25,1.0,3.25,3.75,4.75,1.0,0.0,0.0,0.0,0.5,0.5,0.5,0.5,-1.11,-0.42,2.45,270.53,13.6,49.1,0.75,1.5,2.75,3.0,4.75,7.0,1.75,6.5,2.25,8.0,7.0,5.75,7.5,0.08,0.08,0.95,1024.18,2.1,-31.1
3.0,2.0,1.0,3.25,3.5,4.25,1.0,0.0,0.0,0.0,0.5,0.5,0.75,0.0,-0.8,0.08,1.27,206.85,13.4,48.0,2.0,1.5,2.25,3.0,5.5,7.25,1.75,6.5,2.25,7.5,6.5,5.0,6.5,0.08,0.08,0.95,974.35,1.7,-24.5
3.02,1.0,1.0,2.75,2.75,3.0,0.0,0.0,0.0,0.5,1.0,0.5,1.25,0.25,-1.17,-1.61,1.27,144.35,13.3,28.9,1.25,1.5,2.75,3.5,6.5,7.5,2.75,6.5,2.5,7.25,5.75,4.5,6.0,0.08,0.08,0.95,920.45,1.5,-20.0
3.04,0.5,1.0,3.25,2.5,4.25,0.0,0.0,0.0,0.0,0.5,0.5,1.25,0.25,-0.92,-0.67,1.02,109.02,12.8,35.4,1.75,1.5,3.0,5.25,6.75,7.75,3.0,6.5,2.75,6.75,5.75,3.5,5.5,0.08,0.08,0.95,895.79,0.4,-12.9
3.06,0.25,1.0,3.0,2.5,4.25,0.5,0.0,0.0,0.0,0.75,0.5,1.25,0.5,-0.61,-0.36,0.45,100.33,10.0,29.8,2.0,1.5,4.0,5.25,7.75,7.75,3.5,6.5,2.75,6.0,5.5,3.5,4.75,0.08,0.14,0.95,887.8,-0.7,-7.5
3.08,0.25,1.0,3.0,2.5,4.5,0.0,0.0,0.0,0.25,1.5,0.75,1.25,0.5,-0.36,-0.36,0.14,120.16,9.6,22.7,2.0,2.0,5.25,6.25,8.25,8.0,4.0,6.5,2.75,5.75,5.5,2.5,4.0,0.08,0.14,0.95,915.37,-2.0,0.0
3.1,0.25,1.0,3.0,2.25,4.25,0.25,0.0,0.0,0.25,2.0,0.5,0.25,0.5,-0.3,-0.3,0.45,129.04,8.4,28.6,2.25,2.25,5.5,7.25,8.75,8.0,4.0,6.0,2.25,5.0,4.5,2.25,3.25,0.08,0.14,0.95,945.77,-2.8,7.1
3.12,0.25,1.0,3.0,2.25,4.25,0.0,0.0,0.0,0.25,1.75,0.5,1.25,0.25,-0.36,-0.36,0.7,159.9,9.7,23.7,4.0,2.5,6.0,9.0,9.25,8.0,4.25,5.75,2.25,4.0,3.75,2.0,2.25,0.08,0.14,0.95,986.26,-5.0,17.2
3.14,0.25,1.0,3.0,2.25,4.5,0.0,0.0,0.0,0.5,1.25,0.5,1.25,0.5,-0.36,-0.36,0.89,182.76,9.9,24.2,5.0,2.75,6.75,9.25,10.0,8.0,4.5,5.25,1.75,3.75,3.5,1.25,2.25,0.08,0.14,0.95,1025.18,-6.0,23.1
3.16,0.25,0.75,2.25,2.25,3.0,0.25,0.0,0.0,0.5,0.75,0.5,1.25,0.5,-0.3,-0.17,1.02,184.51,10.3,20.6,5.5,3.0,7.5,11.0,11.0,8.25,3.75,4.5,1.5,4.0,3.0,1.0,2.0,0.08,0.14,0.95,1081.98,-6.7,28.2
3.18,0.25,0.75,3.0,2.25,3.5,1.0,0.0,0.0,0.5,0.75,0.5,1.0,0.5,-0.3,-0.05,1.14,192.85,9.7,26.9,7.0,3.0,8.25,12.0,11.0,8.0,3.5,3.25,1.0,3.25,2.5,1.0,1.5,0.02,0.14,0.95,1127.58,-8.7,35.4
3.2,0.25,1.0,2.5,2.25,4.25,1.0,0.0,0.0,0.5,0.5,1.0,1.25,0.5,-0.17,0.2,1.33,203.02,8.5,24.7,7.75,3.0,8.75,11.5,12.0,8.0,3.5,2.0,1.0,2.25,2.5,0.5,1.25,0.02,0.14,0.95,1157.29,-9.9,41.3
3.22,0.0,0.5,2.5,2.25,3.0,1.0,0.0,0.0,0.5,0.5,0.75,1.25,0.5,-0.11,0.33,1.52,205.28,9.1,19.3,7.5,2.25,8.75,10.5,11.0,7.75,0.0,1.75,0.5,1.5,1.5,0.5,0.5,0.02,0.2,0.95,1102.41,-10.1,46.9
3.24,0.0,0.5,2.5,1.75,4.5,1.0,0.0,0.0,0.5,0.75,0.5,1.25,0.5,-0.11,0.52,1.77,208.56,6.9,21.9,8.75,3.25,8.75,11.0,11.0,7.5,2.0,1.5,0.25,1.25,1.5,0.5,0.25,-0.05,0.2,0.95,1064.19,-11.5,50.7
3.26,0.0,0.75,3.0,2.0,4.25,1.0,0.0,0.0,0.5,0.5,0.5,1.25,0.5,-0.11,0.58,1.95,212.61,8.8,26.2,8.25,3.0,9.0,10.0,11.0,7.5,2.75,1.75,0.0,1.0,2.0,0.25,0.25,-0.05,0.2,1.02,1012.96,-11.5,50.0
3.28,0.0,0.75,3.0,1.75,3.75,1.0,0.0,0.0,0.5,0.5,0.5,1.25,0.5,-0.48,1.08,2.64,211.46,9.2,24.5,9.5,4.5,0.0,12.5,11.5,6.5,0.0,0.5,0.25,1.5,2.5,0.75,0.0,-0.05,0.27,1.02,945.42,-8.0,50.5
3.3,0.0,1.0,3.25,1.25,1.75,1.0,0.0,0.0,0.5,0.5,0.5,1.25,0.5,-0.3,1.64,2.77,198.81,12.0,19.8,9.25,4.0,9.25,12.5,11.0,5.5,0.75,1.0,0.0,0.0,1.0,0.25,1.0,-0.05,0.27,1.02,934.74,-13.6,56.3
3.32,0.0,0.75,2.75,1.75,4.5,1.0,0.0,0.0,0.5,0.5,0.5,1.0,0.5,0.52,2.64,2.39,201.06,7.9,27.9,10.0,4.5,9.5,13.0,11.0,0.75,0.0,0.0,0.0,0.0,1.0,0.25,1.25,0.02,0.33,1.08,909.72,-17.4,60.4
3.34,1.0,0.75,2.25,1.75,3.75,1.0,0.0,0.0,0.5,0.5,0.75,1.0,0.5,1.7,3.45,1.33,202.78,9.3,28.0,12.0,6.0,10.5,14.5,11.0,6.25,0.0,0.25,0.5,1.75,1.5,0.75,0.5,0.08,0.39,1.08,1007.94,-14.2,55.3
3.36,1.25,0.5,2.5,1.75,3.5,1.0,0.0,0.5,0.25,0.5,0.5,1.75,0.5,1.7,4.02,-0.48,210.1,9.4,21.6,11.5,5.0,10.5,14.0,11.0,5.0,0.0,0.0,0.5,2.0,1.75,0.75,1.25,0.14,0.39,1.2,1071.03,-14.4,52.1
3.38,1.0,0.75,2.75,0.75,3.75,0.0,0.0,0.0,0.0,0.5,0.0,0.25,0.25,1.95,4.95,-0.55,198.27,13.1,49.1,9.75,4.5,8.75,11.5,8.25,3.75,0.0,0.0,0.0,2.25,1.25,0.75,0.5,0.27,0.52,1.33,1043.31,-15.0,53.7
3.4,0.25,0.0,0.5,0.5,0.0,0.0,0.0,0.0,0.0,0.5,0.0,0.5,0.0,0.7,0.77,-0.05,144.89,14.7,-3.4,9.75,4.5,7.5,8.0,6.75,1.0,0.0,0.0,0.25,2.25,1.75,0.75,1.0,0.58,1.02,2.02,909.62,-16.7,50.5
3.42,0.25,0.25,1.75,1.0,0.0,1.0,0.0,0.0,0.5,1.5,1.5,3.5,4.5,-0.11,-1.11,2.7,153.64,2.6,-55.6,8.25,2.75,3.0,5.5,5.5,1.75,0.0,0.0,0.25,0.5,1.75,0.5,1.0,0.77,1.33,3.45,695.75,-14.9,51.3
3.44,0.25,0.25,1.0,0.25,0.0,1.0,0.0,1.75,0.5,4.5,1.5,6.0,6.5,0.58,0.14,0.33,210.89,-3.5,-75.0,6.25,1.5,1.75,4.0,3.75,3.25,0.0,0.25,0.75,0.0,1.5,0.75,1.0,0.27,0.52,2.58,491.24,-11.7,42.8
3.46,0.5,0.0,0.75,1.0,3.0,2.5,0.0,4.25,1.25,3.25,6.0,8.25,7.5,-0.73,0.95,4.89,334.29,-2.0,-57.7,2.0,1.0,2.25,1.75,3.0,2.75,0.0,0.25,0.0,0.0,0.25,0.5,0.0,0.77,-0.17,2.45,309.69,-9.2,51.3
3.48,0.25,1.0,2.25,2.0,4.25,4.0,0.5,6.5,3.0,8.5,7.5,9.25,9.75,0.2,0.52,1.33,578.6,-2.2,-48.8,1.25,0.0,0.25,3.0,2.5,2.75,0.0,0.0,0.75,1.75,0.0,1.0,0.0,0.45,-0.23,1.7,207.17,-1.9,21.0
3.5,0.25,1.0,2.5,2.25,4.25,4.0,0.0,6.75,2.75,8.75,8.25,9.0,9.5,-0.05,0.08,1.02,830.44,-2.1,-48.1,1.25,0.0,1.25,3.0,4.5,0.0,0.0,0.25,0.75,1.75,1.5,0.75,1.0,1.27,-1.55,1.83,142.24,-6.7,10.6
3.52,0.0,1.0,2.75,2.0,3.75,4.5,0.0,6.75,2.75,8.5,8.0,8.5,9.0,-0.17,0.08,0.95,1003.13,-2.3,-47.7,1.0,1.0,2.75,3.0,4.5,1.0,0.0,0.25,0.75,2.0,1.25,0.75,1.0,0.7,-1.3,1.27,133.92,-7.3,19.1
3.54,0.25,0.5,3.0,2.25,4.25,4.75,0.0,6.75,2.75,6.75,7.25,8.25,9.0,-0.11,0.02,0.95,1066.27,-1.9,-44.5,1.0,0.5,1.75,2.75,4.25,2.75,0.0,0.25,0.75,2.0,1.5,0.75,1.0,0.33,-0.48,0.77,140.28,-3.2,13.9
3.56,0.25,1.0,3.75,3.5,4.25,5.5,0.0,7.0,2.75,7.5,7.0,7.75,8.25,-0.11,0.08,0.95,1087.96,-1.3,-37.5,1.0,0.5,2.0,2.5,3.25,3.0,0.0,0.25,0.75,2.25,1.5,0.75,1.0,0.27,-0.55,0.2,156.71,-3.3,10.6
3.58,0.25,0.75,3.0,3.75,4.75,5.75,1.75,7.0,3.0,7.5,7.0,7.5,8.25,-0.11,0.08,0.95,1088.79,-1.4,-36.6,1.0,1.0,2.5,0.5,4.25,2.75,0.5,0.25,0.75,2.0,1.5,0.75,0.75,0.33,-0.36,0.45,165.17,-3.7,14.5
3.6,0.25,1.0,3.0,3.75,4.75,5.75,2.0,7.25,3.0,8.0,6.5,7.5,7.5,-0.11,0.08,0.95,1090.0,-1.4,-35.0,1.0,1.0,2.75,0.5,3.25,2.75,0.25,0.25,0.75,2.0,1.5,0.75,1.0,0.2,-0.3,0.95,182.45,-4.2,10.8
3.62,0.25,1.0,3.25,3.75,4.75,6.0,2.5,7.25,3.5,7.5,6.5,7.0,7.25,-0.11,0.08,0.95,1081.58,-1.0,-32.8,1.0,1.25,2.25,0.5,3.0,2.75,0.5,0.25,0.75,2.25,1.5,0.75,1.0,0.2,-0.17,1.02,203.24,-3.4,8.8
3.64,0.25,1.0,3.25,4.5,5.75,6.25,3.0,7.0,3.5,7.25,6.25,6.25,6.5,-0.11,0.08,0.95,1046.21,-0.6,-27.1,1.25,1.0,2.5,0.5,2.5,3.0,0.0,0.0,0.75,2.25,1.5,0.75,1.25,0.2,0.02,1.08,219.27,-3.7,7.0
3.66,0.5,1.0,3.5,5.5,6.75,7.0,3.25,7.0,3.5,6.25,5.75,6.0,5.75,-0.11,0.02,0.95,997.6,0.0,-19.9,1.0,0.5,2.0,0.75,2.25,3.0,0.25,0.25,0.5,2.0,1.5,0.75,1.0,0.27,0.2,1.14,227.31,-2.5,4.3
3.68,1.25,1.25,4.5,5.75,6.5,7.0,3.25,6.75,3.75,5.75,5.25,5.25,5.25,-0.05,0.08,0.95,961.71,1.3,-13.9,1.0,1.0,2.5,0.75,2.25,3.0,0.5,0.25,0.75,2.0,1.5,0.75,1.0,0.27,0.33,1.33,234.67,-4.2,8.3
3.7,1.25,1.25,5.0,7.25,7.5,7.0,4.25,6.75,3.75,5.75,4.5,4.75,4.25,-0.05,0.08,0.95,950.15,2.2,-6.8,1.0,1.0,2.5,0.75,1.75,3.0,0.5,0.0,0.75,2.25,1.5,0.75,1.0,0.2,0.45,1.58,236.86,-4.5,6.2
3.72,2.0,1.25,5.25,8.0,8.5,7.25,4.5,6.5,3.75,4.5,4.5,3.5,3.0,-0.05,0.08,0.95,949.09,3.4,2.5,1.0,0.75,2.5,0.75,1.75,3.0,0.5,0.25,0.5,2.25,1.5,0.75,1.0,0.2,0.58,1.89,232.87,-3.9,4.7
3.74,2.25,1.25,5.75,9.0,8.75,7.5,4.75,6.25,3.75,4.25,4.0,3.25,2.5,-0.05,0.08,0.95,977.96,4.2,7.2,1.0,0.5,2.75,0.5,1.5,2.75,0.5,0.0,0.75,2.0,1.5,0.75,1.0,0.27,0.77,2.27,222.37,-5.5,3.2
3.76,3.0,1.5,6.75,11.5,9.5,7.5,5.0,6.0,3.0,4.25,3.25,2.25,2.25,-0.05,0.08,0.95,1024.54,5.5,16.0,1.0,0.5,2.0,0.5,1.5,3.0,0.5,0.25,0.5,0.5,1.5,0.75,1.0,0.45,1.14,2.58,207.52,-4.9,9.2
3.78,3.5,1.75,7.25,13.0,10.5,7.5,5.0,5.25,3.0,4.0,2.75,2.25,1.5,-0.05,0.08,0.95,1080.83,6.7,22.0,1.0,0.5,2.25,0.5,1.5,3.0,0.5,0.25,0.5,2.0,1.5,0.75,1.0,0.52,1.95,2.77,202.91,-3.4,1.6
3.8,4.0,2.0,8.0,13.5,11.5,7.5,4.5,5.25,2.25,2.0,1.25,2.25,1.5,-0.05,0.08,0.95,1120.71,7.6,30.0,1.5,0.5,2.5,0.5,1.5,3.0,0.25,0.25,0.5,0.75,1.5,0.75,1.0,0.39,2.83,2.08,199.64,-6.5,12.3
3.82,4.75,2.5,9.0,15.0,13.0,7.75,5.0,4.25,2.0,2.0,1.25,2.0,1.5,-0.05,0.08,0.95,1189.05,8.6,34.6,0.75,0.5,1.75,0.5,1.5,3.0,0.25,0.0,0.5,0.0,1.5,0.75,0.75,-0.11,3.52,0.64,188.82,-5.1,13.4
3.84,5.5,2.5,9.0,15.5,13.5,7.75,4.75,3.5,1.75,2.0,1.5,2.0,1.5,-0.05,0.14,0.95,1249.73,9.1,36.2,1.0,0.5,2.0,0.5,1.25,3.0,0.0,0.0,0.5,1.0,1.5,0.75,1.0,-1.3,4.2,0.27,183.79,-4.2,5.6
3.86,6.0,2.5,10.0,16.5,14.0,7.75,5.5,3.0,1.25,2.0,0.75,2.0,1.5,-0.05,0.14,0.95,1311.26,9.9,39.5,0.5,0.25,1.75,0.5,1.75,1.75,0.0,0.0,0.25,0.25,1.5,0.0,1.0,-2.55,4.83,0.33,165.15,-5.5,12.8
3.88,6.25,2.75,10.0,15.0,15.0,7.75,5.5,2.5,1.25,0.5,0.0,2.0,1.25,-0.05,0.14,1.02,1325.59,10.5,44.5,0.5,0.5,0.0,0.5,0.25,2.75,0.0,0.0,0.25,2.25,0.0,0.75,0.25,-2.86,2.58,0.7,141.01,7.3,-7.4
3.9,7.25,2.75,11.0,18.5,15.0,7.25,5.5,1.75,1.0,1.75,1.0,1.25,1.25,-0.05,0.14,1.02,1365.46,11.5,45.2,1.0,0.5,0.5,0.75,1.0,2.75,0.0,0.25,0.5,3.5,1.5,2.25,2.25,0.64,-0.8,2.08,159.13,2.3,-31.8
3.92,7.75,2.75,11.5,18.5,15.0,7.0,4.25,1.75,0.5,2.0,0.5,1.25,0.75,-0.11,0.2,1.08,1384.61,11.9,47.9,1.0,0.5,1.5,0.75,1.0,3.0,0.0,0.25,0.25,5.25,2.5,5.0,5.75,-0.11,-0.05,0.45,229.29,1.9,-50.4
3.94,8.75,2.75,12.0,18.5,15.0,6.25,4.5,1.25,0.5,2.0,0.5,1.75,0.75,-0.11,0.2,1.08,1407.59,12.9,48.2,0.0,0.0,1.5,0.75,2.25,0.75,0.0,2.0,1.25,7.25,4.0,6.0,7.75,-0.86,1.02,4.08,327.73,2.9,-64.6
3.96,9.5,3.0,12.0,17.5,15.0,3.75,4.0,0.25,0.5,2.0,0.75,1.75,1.0,-0.11,0.2,1.08,1396.75,14.5,49.5,1.25,1.25,1.25,2.75,1.25,5.0,0.0,5.75,1.75,9.25,8.0,8.25,8.75,0.08,0.83,1.27,542.16,2.6,-50.2
3.98,10.5,3.25,12.5,17.5,15.0,3.5,2.5,1.25,0.5,2.0,1.25,1.75,0.75,-0.17,0.27,1.14,1394.19,14.5,49.2,1.0,1.25,1.0,2.75,3.0,6.25,0.0,6.75,1.5,9.25,8.75,7.0,8.75,0.02,0.2,1.08,763.28,3.8,-44.8
4.0,11.5,3.75,12.5,15.5,14.0,3.0,1.25,0.25,0.5,1.0,0.5,1.5,0.5,-0.23,0.33,1.33,1347.0,16.2,55.8,0.0,1.0,2.75,3.0,3.0,6.25,0.5,6.5,1.75,9.0,7.75,7.0,8.75,0.14,0.08,0.95,936.31,3.0,-43.0
4.02,11.5,3.5,12.0,13.5,12.0,1.25,0.0,0.25,0.5,1.75,0.5,0.5,0.5,-0.23,0.39,1.39,1248.22,17.3,57.6,1.0,0.5,2.75,3.0,3.25,6.25,1.0,6.5,1.75,8.75,7.0,6.5,8.5,0.08,0.08,0.89,1014.36,2.5,-39.8
4.04,9.5,2.25,10.0,9.25,8.5,0.0,0.0,1.0,0.5,0.5,0.0,0.25,0.0,-0.42,0.58,1.52,1005.37,19.6,62.1,1.0,0.5,2.75,3.0,4.25,6.25,1.5,6.5,1.75,8.75,7.0,6.5,8.25,0.14,0.08,0.95,1052.31,2.3,-37.3
4.06,9.5,2.75,8.0,7.5,7.5,1.0,0.0,1.0,0.5,0.0,0.5,0.0,0.5,-0.73,1.02,2.27,784.98,18.3,61.4,1.25,0.5,2.75,3.0,4.5,6.25,1.75,6.5,2.25,8.75,7.0,6.5,8.25,0.08,0.14,0.95,1061.31,2.0,-36.2
4.08,8.0,2.5,6.25,5.75,6.5,0.75,0.0,0.0,0.5,0.0,0.0,0.5,0.0,-0.86,0.77,2.95,571.25,19.3,65.5,1.75,1.25,2.75,3.0,4.5,6.5,2.5,6.5,2.25,8.5,7.25,6.5,8.25,0.02,0.08,0.95,1070.68,1.3,-32.8
4.1,5.5,1.25,5.0,3.75,5.75,1.0,0.0,0.0,0.0,0.0,0.25,0.25,0.0,-0.55,0.64,2.83,395.12,17.8,64.1,2.0,1.25,2.75,3.0,4.5,6.75,2.75,6.5,2.25,8.25,7.0,6.25,8.0,0.08,0.08,0.95,1068.55,1.2,-30.9
4.12,3.0,0.0,3.0,3.5,4.5,1.0,0.0,0.0,0.0,0.0,0.5,0.0,0.0,-1.05,-0.48,2.52,266.98,15.1,58.6,2.25,1.25,2.75,3.0,4.75,6.75,2.75,6.5,2.25,7.5,6.75,5.75,7.75,0.08,0.08,0.95,1033.42,0.9,-28.2
4.14,2.0,1.0,3.25,2.0,4.5,0.0,0.0,0.0,0.0,1.0,0.0,0.75,0.25,-0.86,0.08,1.08,175.93,13.6,45.2,3.5,1.5,3.0,3.0,5.0,7.0,3.5,6.25,2.25,7.5,6.25,5.5,7.0,0.08,0.08,0.95,988.09,-0.1,-22.0
4.16,1.0,1.0,3.25,2.25,5.5,0.0,0.0,0.0,0.0,0.25,0.5,1.0,0.5,-1.36,-1.48,1.64,115.68,12.0,40.1,3.5,1.5,4.75,3.5,5.75,7.0,4.0,6.0,2.75,7.25,6.5,5.0,6.5,0.08,0.14,0.95,967.7,-1.7,-16.3
4.18,0.5,1.0,3.25,2.75,3.75,1.0,0.0,0.0,0.0,1.75,0.0,0.5,0.5,-1.05,-0.8,0.89,88.0,8.9,34.2,4.25,1.5,5.25,5.0,6.5,7.25,4.5,5.75,3.0,7.0,6.5,5.0,6.25,0.08,0.14,0.95,987.98,-2.9,-10.9
4.2,1.0,1.0,3.25,2.75,4.25,0.25,0.0,0.0,0.0,1.25,0.5,0.75,0.0,-0.55,-0.36,0.52,90.71,12.2,39.3,5.25,1.5,5.5,5.25,6.5,7.25,4.75,5.75,3.0,6.25,5.5,3.75,5.5,0.08,0.14,0.95,1000.85,-3.8,-3.8
4.22,0.5,1.0,3.25,2.5,3.75,0.0,0.0,0.0,0.0,1.75,0.0,1.25,0.5,-0.3,-0.3,0.27,100.58,10.7,26.8,5.75,1.5,6.75,5.5,6.75,7.25,5.5,5.25,3.0,6.0,5.5,3.5,4.5,0.08,0.14,0.95,1036.38,-5.4,1.4
4.24,0.75,1.0,3.0,2.5,4.25,0.0,0.0,0.0,0.0,1.5,0.0,1.25,0.5,-0.36,-0.3,0.45,123.76,10.5,29.9,6.5,1.5,7.25,7.0,7.0,7.25,5.75,5.0,2.75,4.75,3.75,2.5,4.0,0.08,0.14,0.95,1048.85,-6.8,11.3
4.26,0.5,1.0,3.0,2.5,2.5,0.0,0.0,0.0,0.0,1.75,0.0,1.0,0.5,-0.42,-0.36,0.7,137.2,11.7,25.8,7.25,1.5,8.0,7.25,8.0,7.25,6.25,4.5,2.25,3.75,3.75,2.25,2.75,0.02,0.14,0.95,1056.25,-8.4,19.1
4.28,0.5,1.0,3.0,2.5,4.25,0.0,0.0,0.0,0.0,1.75,0.5,1.0,0.75,-0.48,-0.11,0.95,167.4,9.4,24.0,8.0,1.75,8.75,9.0,8.25,7.25,6.5,3.75,2.25,3.75,3.75,1.0,2.25,0.02,0.14,0.95,1071.38,-9.7,26.3
4.3,1.0,1.0,3.0,2.25,3.0,0.25,0.0,0.0,0.0,1.75,0.25,1.25,1.25,-0.48,0.14,0.95,183.52,9.9,18.1,8.25,2.25,9.25,9.25,8.25,7.25,6.75,3.25,1.75,3.0,3.75,1.0,1.75,0.02,0.14,0.95,1087.12,-10.8,30.9
4.32,0.5,1.0,3.0,2.0,4.25,1.0,0.0,0.0,0.0,1.75,0.5,1.25,0.75,-0.42,0.27,1.2,209.44,7.3,21.6,8.75,2.25,9.5,9.75,9.25,7.25,7.0,2.5,1.5,2.75,3.0,0.75,1.25,0.02,0.14,0.95,1102.44,-11.6,36.6
4.34,0.5,0.5,3.0,2.0,4.25,1.0,0.0,0.0,0.0,1.75,0.25,1.0,1.25,-0.36,0.39,1.52,224.42,6.4,18.4,9.75,2.75,10.5,11.0,9.25,7.25,7.0,2.0,1.5,2.5,2.75,0.75,1.25,0.02,0.14,0.95,1136.21,-12.8,40.2
4.36,0.25,1.0,3.0,2.0,4.25,1.0,0.0,0.0,0.5,1.75,0.5,1.0,0.5,-0.3,0.58,1.77,235.84,7.4,22.7,10.5,2.75,11.0,12.5,9.5,7.25,7.0,1.75,1.0,2.5,2.5,1.0,1.25,0.02,0.14,0.95,1183.83,-13.4,42.1
4.38,0.25,0.75,3.0,2.25,3.75,1.0,0.0,0.0,0.5,1.25,1.25,1.0,0.5,-0.42,0.77,2.02,235.83,8.7,19.6,9.75,2.0,11.5,11.0,9.5,6.75,7.0,0.5,0.75,1.25,1.25,0.25,0.5,-0.05,0.2,0.95,1154.59,-15.2,51.3
4.4,0.0,1.0,3.0,2.0,4.25,1.0,0.0,0.0,0.0,1.5,0.0,0.5,1.0,-0.61,1.14,2.83,231.9,6.3,28.2,10.0,2.75,12.5,0.0,11.0,6.25,6.75,1.75,0.5,1.0,2.5,0.25,1.0,-0.05,0.2,1.02,1064.63,-14.0,45.7
4.42,0.5,1.0,3.0,2.0,4.25,1.0,0.0,0.0,0.0,0.5,0.0,0.5,0.5,-0.42,1.7,2.45,225.1,9.6,42.9,11.0,3.0,11.5,0.0,10.5,5.25,6.0,0.5,0.25,0.75,1.5,0.25,0.25,-0.05,0.2,1.02,938.7,-16.2,55.1
4.44,0.25,0.75,3.0,1.75,4.25,1.0,0.0,0.0,0.0,0.75,0.0,0.75,1.0,0.14,3.64,1.89,218.8,7.7,30.5,13.0,3.0,11.5,14.0,9.5,0.0,5.75,0.25,0.5,0.75,1.75,1.0,0.5,0.02,0.27,1.02,933.89,-20.4,55.6
4.46,0.75,0.75,3.0,2.0,4.25,1.0,0.0,0.0,0.25,0.5,0.0,1.0,0.5,1.14,3.08,1.33,217.3,9.9,36.3,14.0,4.75,12.0,12.5,9.5,3.75,4.5,0.5,1.0,0.5,0.25,0.75,1.0,0.02,0.33,1.08,986.16,-18.1,58.2
4.48,1.0,0.75,3.0,1.75,2.5,1.0,0.0,0.0,0.5,1.25,0.25,0.75,0.0,1.45,3.39,0.83,209.89,11.8,33.0,13.0,4.75,13.5,13.0,9.5,5.0,3.0,0.25,0.75,1.25,1.5,0.75,1.25,0.02,0.33,1.14,1095.45,-16.9,53.8
4.5,1.0,0.75,2.75,1.75,3.75,1.0,0.0,0.0,0.5,1.75,0.0,0.25,0.5,2.45,4.27,-0.05,211.13,8.1,32.4,14.5,6.0,13.0,11.0,8.75,3.0,1.0,0.0,0.25,0.5,2.0,0.0,1.0,0.08,0.39,1.14,1135.73,-19.1,60.9
4.52,1.0,0.75,3.0,1.0,3.75,0.0,0.0,0.0,0.0,1.25,0.5,1.0,1.0,1.64,3.95,-1.3,205.42,10.3,21.2,11.5,4.5,11.0,10.5,6.75,4.0,0.0,0.0,0.25,0.75,1.5,0.0,0.5,0.08,0.45,1.14,1065.81,-18.0,60.3
4.54,0.25,0.0,0.75,0.75,0.0,0.0,0.0,0.0,0.0,0.0,0.0,1.5,1.0,-0.67,-0.17,0.08,158.72,11.6,-37.4,10.5,4.0,8.75,7.0,4.75,3.75,0.0,0.25,0.0,0.5,1.25,0.0,0.5,0.39,0.89,2.02,890.9,-18.2,61.3
4.56,0.25,0.0,0.75,0.0,0.0,0.5,0.0,0.0,0.0,5.0,2.0,5.0,4.25,-0.61,0.33,1.39,182.78,-2.6,-82.4,9.0,2.5,5.25,3.25,1.25,3.0,0.0,0.25,0.75,1.75,1.75,0.25,1.0,0.77,1.33,3.45,653.84,-16.9,44.9
4.58,0.5,0.25,3.0,1.0,3.0,4.75,0.0,4.0,2.75,7.75,6.25,8.25,6.75,0.52,0.52,2.02,324.62,-1.4,-47.6,8.0,2.25,3.0,3.5,2.5,3.25,0.0,0.0,0.75,1.75,1.5,0.75,0.25,0.39,0.45,2.64,470.68,-14.2,45.1
4.6,1.25,1.0,0.0,3.5,4.75,4.5,0.0,7.0,3.5,9.0,8.5,8.75,9.0,-0.17,0.08,1.33,587.79,-2.8,-45.9,5.5,1.5,2.75,2.75,1.25,2.75,0.0,0.0,0.5,0.0,1.5,0.25,0.75,0.7,-0.05,2.08,325.28,-15.7,47.4
4.62,0.0,1.0,0.0,3.5,4.25,4.5,1.0,7.25,3.0,8.75,8.5,8.25,9.25,0.08,0.08,1.02,851.33,-3.6,-48.7,1.25,0.0,1.25,0.75,0.0,0.0,0.0,0.0,0.0,0.75,0.0,0.0,0.0,0.7,-0.23,0.77,189.86,-23.0,45.5
4.64,0.25,1.0,0.0,2.25,4.5,5.0,1.0,7.0,2.5,8.5,8.0,8.25,8.5,-0.11,0.02,0.95,1017.34,-4.0,-48.3,1.75,0.5,2.5,2.75,1.75,0.5,0.0,0.25,1.0,0.0,1.5,0.75,0.75,1.33,-1.05,2.27,112.58,-14.9,23.4
4.66,1.0,1.0,1.75,2.25,4.25,5.0,1.25,7.25,2.5,8.5,7.25,8.25,8.5,-0.11,0.08,0.95,1086.14,-2.4,-43.2,1.25,0.0,2.75,3.0,2.5,2.75,0.0,0.25,1.0,1.75,1.25,0.75,0.5,0.45,-1.55,1.45,80.06,-7.0,16.7
4.68,1.0,1.0,1.75,2.5,4.25,5.0,1.25,7.0,2.5,8.0,7.25,8.0,8.25,-0.11,0.02,0.95,1082.93,-2.2,-41.9,1.25,1.25,2.75,2.25,2.25,1.0,0.5,0.25,1.0,2.25,1.5,0.75,0.75,0.14,-0.55,1.08,85.93,-9.3,13.1
4.7,1.0,1.0,2.0,3.5,4.25,5.0,1.75,7.0,2.75,8.5,7.25,7.75,8.25,-0.11,0.08,0.95,1087.37,-1.6,-39.4,1.0,0.75,2.75,2.0,1.75,1.25,0.5,0.25,1.0,2.25,1.5,0.75,0.5,0.27,-0.42,0.27,101.62,-9.1,9.2
4.72,0.75,1.0,3.0,3.75,4.25,5.25,1.75,7.25,3.0,8.5,7.0,7.5,8.25,-0.11,0.08,0.95,1098.54,-1.2,-37.1,1.0,1.0,2.75,2.0,1.75,2.75,0.5,0.25,0.75,2.0,1.5,0.75,0.5,0.39,-0.36,0.14,133.98,-6.9,14.5
4.74,1.25,1.0,3.0,3.5,3.5,5.75,1.75,7.25,3.0,8.5,6.75,7.5,7.5,-0.05,0.08,0.95,1088.08,-1.0,-36.1,1.0,0.75,2.75,2.0,2.5,2.0,0.5,0.25,1.0,2.0,1.5,0.75,0.75,0.39,-0.3,0.45,161.62,-7.2,11.8
4.76,1.25,1.0,3.0,3.75,4.25,5.75,2.0,7.5,3.0,7.5,6.5,7.0,7.25,-0.11,0.08,0.95,1053.84,-0.8,-32.5,1.0,0.5,2.75,0.5,2.25,2.75,0.5,0.25,0.75,1.75,1.5,0.5,1.0,0.39,-0.3,0.83,181.51,-4.9,8.2
4.78,1.5,1.0,3.25,3.75,4.5,5.75,2.25,7.5,3.25,7.5,6.25,6.5,7.0,-0.11,0.08,0.95,1004.96,-0.4,-29.9,1.0,0.5,2.75,1.0,1.5,2.75,0.5,0.5,0.75,2.0,1.5,0.75,0.5,0.45,-0.17,1.08,200.89,-5.8,7.3
4.8,2.0,1.0,3.75,4.0,5.0,6.25,3.0,7.5,3.5,7.25,6.25,6.0,6.25,-0.11,0.08,0.95,943.19,0.3,-24.3,1.0,1.0,2.75,1.5,1.75,2.75,0.5,0.25,0.75,2.25,1.5,0.75,0.75,0.52,0.08,1.14,221.29,-5.9,10.0
4.82,2.0,1.0,4.25,5.5,6.5,6.75,3.5,7.5,3.75,7.25,5.75,5.75,5.5,-0.11,0.08,0.95,925.15,1.0,-17.1,1.0,0.5,2.75,1.25,1.75,3.0,0.5,0.25,0.75,2.25,1.5,0.75,0.75,0.52,0.39,1.2,231.35,-5.1,6.9
4.84,2.25,1.0,5.25,5.75,6.75,7.0,4.0,7.5,4.0,6.0,5.75,5.25,5.25,-0.11,0.08,0.95,951.54,2.2,-12.4,1.0,1.0,2.75,1.25,1.25,3.0,0.5,0.25,0.75,2.25,1.5,0.75,0.75,0.58,0.58,1.27,242.07,-5.7,8.1
4.86,2.5,1.25,5.25,7.25,7.25,7.0,4.5,7.25,4.0,5.75,5.0,4.75,4.75,-0.05,0.08,0.95,999.6,2.9,-6.6,1.0,0.5,2.75,1.25,1.5,3.0,0.5,0.25,0.75,2.0,1.5,0.75,1.0,0.58,0.77,1.45,245.5,-5.3,5.5
4.88,3.0,1.25,5.5,8.75,8.0,7.0,4.75,7.25,3.75,5.25,4.0,3.5,4.5,-0.11,0.08,0.95,1037.64,3.5,0.8,0.75,0.25,2.75,1.25,1.25,3.0,0.5,0.25,0.75,2.0,1.5,0.75,1.0,0.64,0.89,1.64,232.16,-4.9,1.8
4.9,3.75,1.25,6.5,9.25,8.5,7.25,5.5,6.75,3.5,4.5,4.0,3.0,3.0,-0.05,0.08,0.95,1065.75,5.2,8.8,0.75,0.75,2.75,1.5,1.0,2.75,0.5,0.0,0.75,2.25,1.5,0.75,0.75,0.95,1.39,2.14,225.39,-6.2,5.7
4.92,4.0,1.25,7.0,11.5,8.75,7.5,5.75,6.25,3.0,4.25,2.5,2.25,2.25,-0.05,0.08,0.95,1086.35,6.2,17.4,1.5,0.25,2.25,1.25,1.5,2.75,0.75,0.0,0.75,2.0,1.5,0.75,1.0,1.08,2.2,1.58,223.5,-6.0,5.4
4.94,5.5,1.25,8.0,13.0,9.75,7.5,6.0,5.75,2.25,3.25,2.0,2.25,1.5,-0.11,0.08,0.95,1119.83,8.1,26.0,0.75,0.5,2.75,0.75,1.0,2.75,0.5,0.25,0.5,2.0,1.25,0.75,0.75,0.64,2.89,1.89,216.4,-5.3,3.9
4.96,5.75,1.0,8.5,14.5,10.5,7.25,6.5,5.25,2.0,3.25,2.25,2.0,1.5,-0.11,0.14,0.95,1167.62,8.8,28.1,0.75,0.75,2.75,1.0,1.0,3.0,0.5,0.25,0.5,2.0,1.5,0.75,0.75,-0.11,2.89,0.64,213.4,-5.3,5.7
4.98,5.75,1.25,9.0,13.5,11.0,6.5,6.5,4.25,1.5,1.75,0.25,1.0,0.5,-0.11,0.14,0.95,1157.38,10.5,40.3,0.75,0.5,2.75,0.75,1.0,3.0,0.5,0.25,0.5,2.25,1.5,0.75,0.75,-0.92,3.08,0.58,210.68,-4.6,1.8
5.0,7.0,2.25,9.0,15.0,9.75,6.25,6.5,4.0,0.5,1.25,2.25,2.0,1.25,-0.05,0.14,0.95,1166.33,11.5,37.3,0.75,0.5,2.75,0.5,1.25,3.0,0.25,0.25,0.5,2.25,1.5,0.75,1.25,-1.73,3.64,0.27,212.42,-3.4,-2.0
5.02,6.5,2.5,9.25,15.0,12.5,6.25,6.5,3.0,0.5,2.25,1.5,1.25,0.5,-0.05,0.14,1.02,1171.86,11.1,42.1,0.75,0.5,2.75,1.0,1.0,3.25,0.0,0.25,0.25,2.5,1.25,1.5,1.25,-2.23,4.08,-0.48,215.44,-3.1,-5.2
5.04,7.25,2.25,11.0,16.5,13.0,6.25,6.75,2.0,0.5,2.0,1.0,0.5,0.5,-0.05,0.2,1.02,1206.97,12.6,47.5,0.5,1.0,1.75,2.0,1.25,4.5,0.0,0.0,1.0,6.0,1.5,3.5,3.75,-2.48,2.39,-0.55,258.23,2.0,-30.0
5.06,7.5,1.25,10.0,15.0,10.5,3.0,6.5,1.5,0.5,1.0,0.0,0.5,0.25,-0.11,0.2,1.02,1131.82,15.8,52.4,0.5,1.25,2.0,2.25,3.75,5.75,0.5,3.25,2.25,7.5,0.0,6.25,4.75,-2.05,2.39,7.27,350.96,3.3,-28.2
5.08,8.5,1.25,9.5,15.0,10.5,2.25,5.5,0.0,0.5,0.5,0.75,0.5,0.75,-0.11,0.2,1.08,1055.38,17.1,54.0,1.0,1.0,2.75,2.75,5.0,5.75,1.0,4.75,2.25,7.0,8.25,5.5,7.75,1.27,0.83,0.83,541.51,1.1,-33.5
5.1,9.5,1.5,11.0,15.0,10.5,0.5,4.75,0.0,0.5,0.75,0.0,0.5,0.25,-0.11,0.27,1.14,971.28,19.3,58.7,0.5,0.5,2.0,3.0,2.25,5.75,1.25,2.5,1.5,6.0,5.5,4.0,5.25,0.27,0.08,0.95,628.71,1.4,-32.7
5.12,10.0,1.25,11.0,14.0,9.75,0.0,4.0,0.0,0.5,0.5,0.0,0.5,0.0,-0.23,0.27,1.27,899.73,20.5,60.9,2.0,1.25,3.0,3.25,5.5,6.25,2.25,2.5,2.0,5.5,5.5,3.0,4.0,0.14,0.08,0.95,710.47,-1.3,-11.0
5.14,10.5,1.25,10.5,11.5,8.75,0.0,2.0,0.0,0.5,0.0,0.0,0.5,0.0,-0.42,0.45,1.52,814.52,21.4,63.8,3.25,1.5,5.25,5.25,6.5,6.75,2.75,2.0,2.5,5.5,5.5,2.5,4.0,0.08,0.14,0.89,778.53,-4.4,0.7
5.16,10.5,1.25,9.25,7.5,6.75,0.0,1.25,0.0,0.5,0.0,0.0,0.25,0.25,-0.48,0.7,1.95,697.11,22.6,65.5,5.0,1.5,6.75,5.5,6.75,6.75,4.0,2.0,3.0,5.25,5.5,2.5,3.0,0.14,0.14,1.02,875.19,-7.0,8.0
5.18,8.75,1.5,6.75,7.0,4.75,0.0,1.0,0.0,0.5,0.0,0.0,0.25,0.75,-0.48,0.83,2.77,557.75,21.9,62.7,6.75,2.5,8.5,7.25,6.75,6.25,4.75,1.75,3.5,3.5,5.5,1.5,2.25,0.02,0.14,1.02,981.16,-10.6,21.0
5.2,8.0,1.25,5.25,4.0,4.25,0.0,0.5,0.25,0.5,0.0,0.75,0.25,0.0,-0.42,0.27,2.95,415.11,22.1,63.0,8.0,3.0,9.25,9.0,7.0,6.25,5.5,1.5,2.5,2.25,4.5,1.0,2.0,0.02,0.14,1.02,1081.56,-12.5,31.5
5.22,6.0,1.0,3.0,4.25,4.25,0.0,0.0,0.0,0.25,0.5,0.75,0.25,0.5,-0.48,0.64,2.83,314.8,18.0,55.0,9.5,4.25,11.5,9.0,6.75,5.0,5.5,0.25,1.5,2.0,2.5,0.0,1.0,0.02,0.2,1.39,1125.18,-16.3,47.6
5.24,2.0,0.0,2.0,1.0,0.5,0.0,0.0,0.0,0.0,0.0,0.0,0.0,0.0,-1.23,0.02,2.02,185.57,28.8,72.0,10.5,3.75,12.0,0.0,6.5,1.5,2.5,0.0,1.0,0.5,1.5,0.25,0.5,-0.05,0.14,1.52,988.15,-21.6,57.9
5.26,1.25,0.75,3.25,0.0,4.5,0.0,0.0,0.0,0.0,0.0,1.25,0.5,0.25,-1.11,0.45,-0.36,108.48,14.0,40.0,9.0,3.5,11.0,7.0,0.0,0.0,0.0,0.0,0.75,0.5,1.5,0.0,0.25,0.14,0.27,1.52,802.54,-27.1,62.1
5.28,1.0,1.0,3.25,1.75,4.25,1.0,0.0,0.0,0.0,1.75,0.5,1.25,0.25,-0.92,0.89,1.2,79.91,9.1,27.8,10.5,4.75,10.5,7.25,0.0,0.0,0.0,0.0,0.75,1.0,1.5,0.0,0.25,0.14,0.27,1.64,653.58,-26.1,62.9
5.3,0.25,1.0,3.0,1.75,3.75,1.0,0.0,0.0,0.5,0.5,0.25,1.0,0.5,-0.23,0.7,1.02,90.76,9.6,31.1,9.25,3.75,9.25,5.25,0.0,0.0,0.0,0.0,0.5,0.0,0.5,0.0,0.5,-0.05,0.33,1.45,517.65,-28.0,69.4
5.32,0.5,0.0,3.0,1.75,3.75,0.0,0.0,0.0,0.5,0.75,0.5,1.0,0.5,-0.23,0.64,0.27,94.41,11.8,22.7,8.75,3.0,8.0,3.25,0.0,0.25,0.0,0.0,0.5,0.0,1.5,0.0,0.25,-0.17,0.52,2.02,416.97,-28.0,65.3
5.34,1.0,0.5,3.0,2.0,3.75,1.75,0.0,0.0,0.5,0.5,0.5,1.25,0.5,0.08,0.95,-0.36,120.23,9.3,28.6,7.75,2.5,5.5,2.0,0.0,0.75,0.0,0.0,0.25,0.0,0.0,0.0,0.25,0.14,0.58,1.77,333.3,-27.7,75.4
5.36,1.25,0.75,3.0,1.25,3.75,1.0,0.0,0.0,0.0,1.75,0.5,1.25,0.5,0.58,1.14,-0.36,141.71,8.7,22.9,6.0,1.75,2.75,1.5,0.0,0.25,0.0,0.0,0.5,0.0,0.0,0.0,0.0,-0.36,0.95,1.27,241.78,-28.3,78.1
5.38,1.25,1.0,3.0,1.75,3.75,1.25,0.0,0.0,0.25,0.75,0.5,1.0,0.5,0.39,0.95,-0.48,166.66,10.2,32.9,3.25,1.25,0.0,0.75,0.0,0.0,0.0,0.0,0.25,0.5,0.0,0.0,0.25,-1.42,1.58,1.27,126.98,-20.8,64.5
5.4,1.25,0.75,3.0,1.5,3.75,1.0,0.0,0.0,0.0,1.25,0.5,0.75,0.5,0.14,0.95,-0.17,188.4,9.7,31.2,2.5,1.25,0.5,2.0,0.0,0.5,0.0,0.0,0.5,1.5,0.0,0.75,0.25,-1.92,-0.42,0.89,56.71,-13.2,29.1
5.42,1.25,0.75,3.0,1.75,3.75,1.0,0.0,0.25,0.5,1.5,0.75,0.75,0.5,0.58,0.52,-0.17,210.87,9.1,25.3,2.0,1.25,2.75,1.25,1.0,2.0,0.0,0.25,0.75,2.0,1.5,0.75,0.5,0.14,0.39,0.83,55.23,-9.6,15.4
5.44,1.25,1.0,3.0,1.0,3.75,1.0,0.0,0.0,0.5,0.75,0.5,1.25,0.5,0.45,0.39,-0.23,220.59,10.4,28.1,1.25,1.25,2.75,2.0,1.0,2.0,0.5,0.25,0.75,1.75,1.5,0.75,0.75,-0.55,0.95,0.02,90.4,-9.2,13.5
5.46,1.25,1.0,3.0,1.25,3.75,1.0,0.0,0.0,0.5,0.5,0.5,1.25,0.5,0.27,0.64,-0.36,228.9,10.9,30.3,0.75,1.25,2.75,1.25,1.0,2.75,0.5,0.25,0.0,1.25,1.5,0.75,0.75,1.02,0.64,-0.3,127.77,-7.1,15.1
5.48,1.5,0.75,3.25,0.75,3.0,1.0,0.0,0.0,0.5,1.75,0.5,1.25,0.5,0.64,0.45,-0.3,232.89,10.1,19.7,0.75,1.0,2.5,1.25,1.0,2.75,0.5,0.25,0.25,1.5,1.5,0.75,1.0,0.83,1.08,-0.36,159.29,-5.8,8.3
5.5,1.25,0.75,3.0,0.75,1.75,1.0,0.0,0.0,0.5,0.75,0.5,0.5,0.5,0.95,0.2,-0.86,209.93,13.0,29.6,0.0,1.0,2.5,1.25,1.0,2.75,0.5,0.25,0.75,1.75,1.5,0.75,1.0,0.45,1.27,-0.48,169.52,-4.3,1.1
5.52,1.0,1.0,2.25,1.0,3.0,1.25,0.0,0.0,0.0,0.5,0.5,1.25,0.5,0.58,0.77,-2.86,197.2,9.0,27.8,0.0,1.25,2.75,1.0,1.0,2.75,0.5,0.25,0.75,1.75,0.0,0.75,0.75,-0.36,0.45,-0.3,170.06,-4.5,13.4
5.54,1.0,0.75,3.0,0.75,3.75,1.0,0.0,0.0,0.0,0.0,0.0,1.5,0.5,1.27,-0.3,-1.73,191.02,11.2,34.6,0.0,0.5,2.75,1.25,1.0,2.75,0.5,0.25,0.75,1.0,1.5,0.75,0.5,-1.55,-0.3,0.02,179.22,-6.4,7.0
5.56,1.0,0.75,3.0,1.0,3.75,1.25,0.0,0.25,0.0,0.25,0.0,1.25,1.0,1.83,-0.67,-1.36,194.61,8.9,29.0,0.0,0.75,2.75,1.25,1.0,2.75,0.5,0.0,0.75,2.25,1.5,0.75,0.75,-1.55,-1.17,0.14,192.9,-4.7,0.4
5.58,0.75,0.5,3.0,1.0,3.75,1.0,0.0,0.0,0.0,0.0,0.5,0.75,1.25,1.58,-1.17,-0.86,192.67,9.5,28.3,0.0,1.25,2.25,1.25,1.25,2.75,0.5,0.0,0.75,1.25,0.25,0.75,0.75,-0.98,-0.8,0.2,198.8,-4.5,16.1
5.6,0.75,0.75,3.0,0.75,3.75,1.0,0.0,0.0,0.0,1.75,0.5,1.25,0.5,0.39,-1.61,-0.67,200.73,7.6,19.2,0.0,0.0,2.75,0.5,1.0,1.75,0.5,0.0,0.25,0.0,1.25,0.0,0.5,-0.86,0.52,-0.55,181.29,-11.0,20.3
5.62,0.5,1.0,3.0,0.75,3.75,1.0,0.0,0.0,0.0,0.75,0.5,1.25,0.5,-1.05,-1.11,-0.42,201.07,8.9,26.3,0.0,0.0,0.5,0.5,0.25,1.75,0.0,0.0,0.25,0.0,0.0,0.0,0.25,-1.23,1.14,-0.23,134.77,3.0,27.4
5.64,0.5,0.75,3.0,0.75,3.5,1.0,0.0,0.0,0.0,1.75,0.5,1.25,0.5,-0.36,-0.61,-0.98,203.25,7.4,17.2,0.0,0.25,0.0,0.5,0.25,1.75,0.0,0.0,0.25,0.0,0.0,0.0,0.0,-0.92,0.2,1.58,80.3,7.9,39.7
5.66,1.0,0.5,3.0,0.75,3.75,1.25,0.0,0.0,0.0,1.75,0.5,1.0,0.5,0.45,0.64,-1.48,205.88,7.4,21.5,0.0,0.0,0.0,0.5,0.25,2.0,0.0,0.0,0.25,0.25,0.0,0.0,0.0,-0.92,-0.11,1.58,38.56,11.2,25.5
5.68,1.25,0.75,2.75,1.0,3.75,1.0,0.0,0.0,0.0,1.75,0.75,1.25,0.5,1.45,0.83,-2.42,214.0,8.1,20.1,0.0,0.0,0.0,0.5,0.25,2.0,0.0,0.0,0.25,0.0,0.0,0.0,0.0,-1.05,-0.05,1.33,20.07,10.9,34.1
5.7,1.0,0.75,3.0,0.75,3.5,1.75,0.0,0.0,0.0,1.75,0.75,1.75,0.5,0.64,0.14,-1.73,222.38,6.9,15.0,0.0,0.0,0.0,0.5,0.25,2.0,0.0,0.0,0.25,0.5,0.0,0.0,0.0,-1.17,-0.05,1.14,17.4,11.6,18.2
5.72,0.25,0.75,3.0,1.25,3.5,1.5,0.0,0.0,0.0,1.75,0.5,1.5,0.5,-0.11,-0.17,-1.67,226.02,6.4,15.8,0.0,0.0,0.0,0.5,0.25,1.75,0.0,0.0,0.25,0.25,0.0,0.0,0.0,-1.17,-0.55,0.64,16.29,10.3,24.8
5.74,1.0,0.75,2.75,0.75,3.75,1.75,0.0,0.0,0.0,1.5,0.5,1.5,0.5,-0.61,-0.11,-0.86,229.13,6.5,19.8,0.0,0.0,0.0,0.5,0.25,1.75,0.0,0.0,0.25,0.25,0.0,0.0,0.25,-0.8,-0.8,1.08,17.88,10.6,14.1
5.76,0.0,0.25,2.75,0.75,3.75,1.0,0.0,0.0,0.0,1.25,0.5,1.25,0.5,-1.05,-0.3,-0.86,215.34,6.2,14.5,0.0,0.0,0.0,0.5,0.25,2.0,0.0,0.0,0.25,0.0,0.0,0.0,0.0,-0.73,-0.8,0.58,19.18,10.9,34.1
5.78,0.5,0.75,2.75,0.5,3.75,1.25,0.0,0.0,0.0,1.75,0.5,1.0,0.5,-1.36,-0.67,-1.11,209.04,5.8,18.9,0.0,0.0,0.0,0.5,0.25,2.25,0.0,0.0,0.25,0.0,0.0,0.0,0.0,-0.98,-0.67,0.7,23.99,11.7,34.1
5.8,0.75,0.75,2.25,0.75,3.75,1.25,0.0,0.0,0.0,1.75,0.5,1.0,0.25,-1.48,-0.48,-0.36,202.02,5.7,21.9,0.0,0.0,0.0,0.5,0.25,2.0,0.0,0.0,0.25,0.5,0.0,0.0,0.0,-0.98,-0.67,0.45,30.83,11.6,18.2
5.82,0.5,0.75,3.0,1.0,3.75,1.25,0.0,0.0,0.0,1.75,0.5,1.5,0.5,-1.3,-0.23,-0.3,207.6,6.9,16.8,0.0,0.0,0.0,0.5,0.25,2.0,0.0,0.0,0.25,0.0,0.0,0.0,0.0,-1.11,-0.42,0.45,38.85,10.9,34.1
5.84,0.25,0.5,3.0,0.75,3.5,1.0,0.0,0.0,0.0,1.75,0.5,1.0,0.5,-0.98,-0.36,-0.23,203.72,6.8,16.6,0.0,0.0,0.0,0.5,1.0,2.25,0.0,0.0,0.25,0.0,0.0,0.0,0.0,-0.86,-0.48,0.89,52.87,9.9,38.2
5.86,0.5,0.0,3.0,0.75,3.0,1.5,0.0,0.0,0.0,1.75,0.75,1.25,0.5,-0.67,-0.23,-0.17,202.27,6.5,9.9,0.0,0.0,0.0,0.5,0.25,2.0,0.0,0.0,0.25,1.0,0.0,0.25,0.0,-0.8,-0.48,-0.23,61.74,10.8,-0.5
5.88,0.5,0.75,3.0,0.75,3.5,1.25,0.0,0.0,0.0,1.75,0.75,1.25,0.5,-0.98,0.14,-1.23,202.47,6.9,15.9,0.0,0.0,2.25,0.5,1.0,2.0,0.0,0.0,0.25,0.0,0.25,0.0,0.0,-0.61,-0.11,0.33,80.01,-8.8,42.3
5.9,0.5,1.0,3.0,0.75,3.5,1.25,0.0,0.0,0.0,1.75,0.5,1.5,0.5,-0.8,-0.05,-0.55,205.75,7.0,16.8,0.0,0.0,0.0,0.5,0.25,2.0,0.0,0.0,0.25,0.0,0.0,0.0,0.0,-0.61,0.14,0.33,74.96,10.9,34.1
5.92,0.5,0.5,3.0,0.25,3.5,1.0,0.0,0.0,0.0,1.75,0.75,1.5,0.5,-1.05,-0.17,-0.42,204.8,7.0,10.2,0.0,0.0,0.0,0.5,0.25,1.75,0.0,0.0,0.25,0.0,0.0,0.0,0.0,-0.8,0.08,0.02,68.58,9.8,34.1
5.94,1.0,0.75,2.75,0.75,3.5,1.0,0.0,0.0,0.5,1.75,0.5,1.5,0.5,-0.86,-0.36,-0.11,209.98,7.9,15.0,0.0,0.0,0.0,0.5,0.0,2.25,0.0,0.0,0.25,0.0,0.25,0.0,0.25,-0.42,0.2,0.08,59.38,11.0,13.7
5.96,0.25,0.75,3.0,1.0,3.0,1.25,0.0,0.0,0.0,1.75,0.75,1.5,0.5,-0.3,-0.42,-0.05,210.44,7.1,11.7,0.0,0.0,0.0,0.5,0.0,2.0,0.0,0.0,0.25,0.0,0.0,0.0,0.0,-0.48,0.14,0.08,52.35,11.7,32.0
5.98,0.5,0.5,3.0,0.5,3.75,1.0,0.0,0.0,0.0,1.75,0.5,1.5,0.5,-0.55,-0.42,-0.23,210.17,6.9,13.5,0.0,0.0,0.0,0.5,0.25,2.25,0.0,0.0,0.25,0.0,0.0,0.0,0.0,-0.8,0.45,-0.36,49.81,11.7,34.1
6.0,0.75,0.5,2.75,1.0,3.5,1.0,0.0,0.0,0.0,1.75,0.5,1.5,0.5,-0.42,-0.55,-0.11,210.26,7.4,14.8,0.0,0.0,0.0,0.5,0.0,1.75,0.0,0.0,0.25,0.0,0.25,0.0,0.0,-0.92,0.58,-0.36,47.07,8.7,22.0
6.02,1.0,0.25,3.0,0.25,3.0,1.0,0.0,0.25,0.0,1.75,0.5,1.5,0.5,-0.23,-0.67,0.39,205.29,7.8,10.3,0.0,0.0,0.0,0.5,0.0,2.0,0.0,0.0,0.25,0.0,0.25,0.0,0.0,-0.86,0.58,-0.3,46.54,9.8,23.0
6.04,0.5,0.5,3.0,0.25,2.5,1.5,0.0,0.25,0.25,1.75,0.5,1.5,0.5,-0.36,-0.8,0.14,200.4,6.4,7.1,0.0,0.0,0.0,0.0,0.0,1.75,0.0,0.0,0.25,0.0,0.25,0.0,0.0,-0.73,0.58,-0.23,39.69,15.0,13.3
6.06,0.75,0.75,3.0,0.75,2.5,1.0,0.0,0.25,0.25,1.75,0.5,1.5,0.5,-0.48,-0.92,0.33,198.76,8.4,11.3,0.0,0.0,0.0,0.0,0.0,1.75,0.0,0.0,0.25,0.0,0.25,0.0,0.0,-0.61,0.52,-0.23,35.39,15.0,13.3
6.08,1.0,0.5,3.0,1.0,3.0,1.25,0.0,0.75,0.0,1.25,0.5,1.5,0.5,-0.05,-0.61,0.39,204.19,7.8,16.1,0.0,0.0,0.0,0.5,0.0,1.75,0.0,0.0,0.25,0.0,0.25,0.0,0.0,-0.42,0.39,-0.3,33.69,8.7,22.0
6.1,1.0,0.75,3.0,0.75,3.0,1.25,0.0,0.75,0.25,1.75,0.5,1.5,0.5,-0.73,-0.8,0.33,211.21,7.1,12.9,0.0,0.0,0.0,0.5,0.0,1.75,0.0,0.0,0.25,0.0,0.25,0.0,0.0,-0.3,0.27,-0.3,35.27,8.7,22.0
6.12,0.5,0.5,3.0,1.0,3.5,1.5,0.0,1.0,0.5,1.75,0.5,1.75,0.5,-1.48,-0.92,0.14,221.63,5.3,8.2,0.0,0.0,0.0,0.75,0.0,3.0,0.0,0.0,0.25,1.5,0.25,0.75,0.0,-0.23,0.27,-0.36,56.28,9.8,-12.7
6.14,0.75,0.5,3.0,0.75,3.5,1.0,0.0,0.25,0.25,1.75,0.75,1.75,0.5,-1.61,-0.67,0.08,225.17,7.5,9.7,0.0,0.0,2.5,0.5,1.0,1.75,0.0,0.0,0.25,0.0,1.5,0.0,0.5,-0.05,0.14,-0.42,88.86,-9.5,15.9
6.16,0.0,0.75,3.0,1.0,2.5,1.0,0.0,0.5,0.5,1.75,0.5,1.5,0.5,-1.36,-0.36,0.08,220.47,6.8,6.0,0.75,0.5,0.0,0.75,0.0,3.0,0.0,0.0,0.25,1.5,1.25,0.75,0.5,-0.05,0.02,-0.42,117.33,3.1,-10.0
6.18,0.5,0.25,3.0,0.75,3.0,1.0,0.0,0.5,0.25,1.75,0.5,1.25,0.5,-1.23,-0.17,0.02,211.94,6.8,9.6,0.75,0.75,2.5,0.75,1.0,2.75,0.0,0.0,0.5,1.5,1.5,0.75,0.5,-0.05,-0.11,-0.23,157.56,-6.0,8.8
6.2,0.5,0.25,3.0,0.25,3.0,1.0,0.0,0.25,0.5,1.75,0.5,1.25,0.5,-1.36,0.14,-0.11,203.26,7.0,7.7,0.75,1.0,2.25,0.75,1.0,2.75,0.0,0.0,0.25,1.5,1.5,0.75,0.5,-0.23,-0.36,-0.17,186.25,-5.4,10.4
6.22,0.5,0.25,3.0,0.5,2.5,1.0,0.0,0.25,0.0,1.75,0.5,1.25,0.5,-1.36,0.33,-0.17,193.38,7.5,8.4,0.0,0.0,2.25,0.5,1.0,2.75,0.0,0.0,0.25,1.75,0.25,0.0,0.0,-0.36,-0.55,-0.05,187.53,-1.4,18.3
6.24,1.0,0.25,3.0,0.75,3.5,1.0,0.0,0.0,0.25,1.75,0.5,1.25,0.5,-1.11,0.7,-0.17,195.49,8.2,15.9,0.0,0.0,2.5,0.75,1.0,2.75,0.25,0.0,0.25,1.75,1.0,0.75,0.0,-0.42,-0.55,0.2,187.96,-4.1,5.4
6.26,0.75,0.25,3.0,0.25,3.5,1.0,0.0,0.0,0.0,1.5,0.5,1.25,0.5,-0.8,1.02,-0.3,194.06,7.7,15.6,0.75,0.75,2.75,0.75,1.0,0.75,0.0,0.0,0.25,1.5,1.5,0.75,0.25,-0.55,-0.36,0.39,185.46,-12.0,9.5
6.28,0.25,0.25,3.0,0.25,3.5,1.25,0.0,0.0,0.25,0.5,0.5,1.25,0.25,-0.55,1.27,-0.48,188.24,8.6,22.0,1.0,0.75,2.5,1.25,0.5,2.75,0.0,0.0,0.25,2.0,1.5,0.75,0.25,-0.73,-0.23,0.39,195.78,-6.8,10.3
6.3,0.5,0.5,3.0,0.75,3.0,1.0,0.0,0.0,0.25,1.5,0.25,1.25,0.25,-0.48,1.33,-0.8,184.42,8.7,19.0,0.75,0.75,2.5,1.0,1.0,2.75,0.25,0.0,0.25,1.5,1.5,0.75,0.25,-0.8,-0.17,0.39,202.91,-6.8,13.1
6.32,1.0,0.25,3.0,0.75,3.5,1.0,0.0,0.0,0.25,1.75,0.5,1.25,0.5,-0.48,1.33,-0.98,189.3,8.2,15.9,0.5,0.75,1.75,1.0,1.0,3.0,0.0,0.0,0.25,1.25,0.25,0.75,0.5,-0.8,-0.23,0.52,201.07,-2.7,17.2
6.34,0.5,0.25,2.75,0.25,3.5,1.5,0.0,0.0,0.25,1.75,0.5,1.5,0.5,-0.42,1.39,-0.98,192.61,5.3,9.1,0.75,0.75,2.25,1.0,1.0,3.0,0.0,0.0,0.25,2.5,1.5,1.0,0.5,-0.73,-0.3,0.64,205.8,-3.6,2.1
6.36,0.5,0.75,3.0,0.5,3.0,1.25,0.0,0.0,0.25,2.0,0.5,1.25,0.5,-0.36,1.39,-0.98,198.39,6.8,12.6,0.75,0.75,0.0,1.25,1.75,3.0,0.25,0.0,0.25,2.0,1.25,0.75,0.75,-0.67,-0.36,0.7,199.02,2.3,0.8
6.38,0.75,0.5,3.0,0.5,2.5,1.0,0.0,0.0,0.25,1.75,0.5,1.25,0.5,-0.3,1.33,-0.86,198.12,8.6,11.9,0.75,0.0,2.5,0.75,0.5,2.75,0.0,0.0,0.25,2.0,1.5,0.75,0.25,-0.98,-2.23,0.83,192.85,-5.4,0.8
6.4,0.5,0.5,2.75,1.0,2.25,1.0,0.0,0.0,0.25,1.0,0.5,1.0,0.5,-0.17,1.08,-0.86,190.98,9.7,18.3,0.75,0.5,1.0,0.75,0.5,3.0,0.0,0.0,0.25,0.75,1.5,0.75,0.0,-2.05,-3.36,1.45,174.91,-3.1,10.1
6.42,0.5,0.25,3.0,1.0,3.0,1.5,0.0,0.0,0.0,1.75,0.5,1.25,0.5,-0.23,0.83,-0.92,191.4,6.8,14.0,0.75,0.0,1.75,1.0,0.0,3.0,0.0,0.0,0.25,1.75,1.5,0.0,0.5,-2.05,-2.61,1.58,162.75,-2.9,2.6
6.44,0.5,0.75,3.0,0.75,3.5,1.5,0.0,0.0,0.0,1.75,0.5,1.5,0.25,-0.48,0.58,-0.8,198.34,6.8,17.8,0.0,0.0,2.5,0.5,1.0,1.75,0.0,0.0,0.25,0.5,1.5,0.0,0.0,-1.73,-1.17,1.52,144.83,-9.4,18.3
6.46,0.5,0.25,3.0,0.25,3.0,1.0,0.0,0.25,0.25,1.75,0.5,1.25,0.5,-0.67,0.33,-0.55,198.77,6.9,8.6,0.0,0.0,0.0,0.75,0.0,3.0,0.0,0.0,0.25,1.75,0.25,0.75,0.0,-1.36,-0.17,1.08,124.67,10.0,-15.1
6.48,0.5,0.5,2.75,0.5,3.0,1.0,0.0,0.25,0.25,1.75,0.5,1.25,0.5,-0.92,0.08,-0.48,198.04,6.6,10.3,0.75,0.75,2.0,1.0,1.0,3.0,0.0,0.0,0.25,1.75,1.5,0.75,0.25,-1.17,0.33,0.58,137.08,-4.3,9.8
6.5,0.5,0.25,3.0,0.75,1.75,1.0,0.0,0.0,0.0,1.5,0.5,1.25,0.25,-0.98,-0.05,-0.42,187.26,10.1,11.8,0.5,1.0,1.75,0.75,1.0,3.0,0.0,0.0,0.25,1.75,1.5,0.75,0.5,-0.98,0.52,0.39,152.43,-2.6,5.6
6.52,0.5,0.5,3.0,0.75,2.5,1.0,0.0,0.0,0.0,1.0,0.5,1.0,0.25,-1.11,-0.11,-0.3,179.1,10.3,23.4,0.5,0.5,1.75,0.5,1.0,2.0,0.0,0.0,0.25,0.5,1.5,0.75,0.75,-0.92,0.45,0.14,157.99,-6.0,3.9
6.54,0.5,0.25,3.0,0.75,3.0,1.0,0.0,0.25,0.25,1.75,0.5,1.25,0.25,-1.11,-0.17,-0.23,178.25,7.7,12.8,0.0,0.75,1.75,1.0,1.25,3.0,0.0,0.0,0.25,1.75,1.25,0.75,0.5,-0.98,0.27,0.27,167.88,-1.2,4.0
6.56,0.5,0.75,2.75,0.5,3.0,1.25,0.0,0.0,0.0,1.75,0.5,1.25,0.5,-1.05,-0.17,-0.17,183.49,6.5,14.3,0.5,0.75,2.0,0.75,1.0,3.0,0.0,0.0,0.25,1.25,1.5,0.75,0.5,-0.98,-0.17,0.33,174.21,-3.9,8.1
6.58,0.5,0.5,2.75,0.75,2.25,0.75,0.0,0.0,0.25,1.75,0.5,1.25,0.5,-1.05,-0.23,-0.17,184.34,8.6,8.8,0.75,1.0,2.5,1.25,0.5,3.0,0.0,0.0,0.25,1.75,1.5,0.75,1.0,-0.92,-0.36,0.2,185.98,-5.3,5.9
6.6,0.5,0.5,3.0,1.5,1.75,1.0,0.0,0.0,0.0,2.0,0.5,0.75,0.5,-1.05,-0.23,-0.23,184.69,9.1,15.4,0.75,1.25,2.25,0.75,1.0,3.0,0.0,0.0,0.25,1.75,1.25,0.75,0.75,-0.92,-0.48,0.2,197.37,-4.2,10.2
6.62,0.5,0.5,2.75,0.0,3.0,1.25,0.0,0.0,0.0,1.75,0.5,1.5,0.5,-1.05,-0.17,-0.36,184.65,6.0,8.3,0.75,1.0,2.25,1.0,0.5,3.0,0.0,0.0,0.25,2.0,1.5,0.75,0.5,-0.8,-0.42,0.27,206.31,-4.7,6.7
6.64,0.5,1.25,3.0,0.75,2.5,1.25,0.0,0.0,0.0,1.25,0.5,1.25,0.5,-0.92,-0.05,-0.48,187.67,8.8,21.0,0.75,1.0,2.0,0.75,1.0,3.0,0.0,0.0,0.25,1.5,0.75,0.75,0.5,-0.67,-0.3,0.33,203.81,-3.9,14.9
6.66,0.5,0.25,2.5,0.75,2.5,1.0,0.0,0.0,0.0,1.75,0.5,1.25,0.25,-0.86,0.02,-0.61,182.41,7.3,10.9,0.5,1.25,2.0,0.75,1.75,3.0,0.0,0.25,0.25,1.5,1.0,0.75,0.5,-0.73,-0.3,0.45,204.78,-2.8,14.9
6.68,0.25,0.25,2.75,0.75,3.0,1.25,0.0,0.0,0.0,1.75,0.5,0.25,0.25,-0.86,0.2,-0.61,180.01,6.1,23.3,0.5,1.0,1.75,0.75,1.0,3.0,0.25,0.25,0.25,1.5,1.5,0.75,1.0,-0.8,-0.23,0.52,203.35,-2.2,2.0
6.7,0.5,0.5,3.0,0.75,3.0,1.25,0.0,0.0,0.0,2.0,0.5,1.25,0.5,-0.8,0.33,-0.61,186.21,6.8,12.7,0.75,0.75,1.75,0.75,1.0,3.0,0.0,0.0,0.25,1.5,1.0,0.75,0.5,-0.86,-0.23,0.52,196.6,-3.1,10.3
6.72,0.75,0.75,3.0,1.0,2.5,1.0,0.0,0.0,0.0,1.75,0.25,1.25,0.25,-0.73,0.39,-0.55,189.75,9.4,20.5,0.5,0.5,2.25,1.0,1.0,3.0,0.25,0.0,0.25,1.75,1.5,0.75,0.5,-0.98,-0.3,0.58,191.42,-4.2,5.3
6.74,0.5,0.25,3.0,1.25,2.25,1.0,0.0,0.25,0.0,1.75,0.5,0.25,0.5,-0.73,0.39,-0.55,189.52,8.2,20.5,0.75,0.75,1.75,0.75,1.0,3.0,0.25,0.0,0.25,1.5,1.25,0.75,0.5,-0.98,-0.3,0.52,188.54,-3.5,8.8
6.76,0.5,0.75,3.0,0.75,3.5,1.25,0.0,0.25,0.0,1.5,0.5,1.25,0.5,-0.73,0.33,-0.48,196.33,6.9,18.1,0.75,0.5,2.0,1.0,1.0,3.0,0.0,0.0,0.25,1.75,0.25,0.75,0.75,-1.05,-0.23,0.52,185.5,-2.7,11.3
6.78,0.5,0.75,3.0,0.75,3.0,1.0,0.0,0.0,0.0,1.0,0.5,1.0,0.5,-0.73,0.2,-0.48,194.53,9.2,23.6,0.75,0.5,1.75,0.75,1.0,3.0,0.0,0.0,0.25,1.5,1.25,0.75,0.25,-0.98,-0.23,0.52,178.32,-3.4,9.2
6.8,0.5,0.75,3.0,0.75,3.0,1.75,0.0,0.25,0.0,1.75,0.5,1.25,0.25,-0.73,0.14,-0.42,201.37,6.3,17.9,0.5,0.5,2.0,0.75,1.0,3.0,0.25,0.0,0.25,1.75,0.75,0.75,0.5,-0.92,-0.17,0.52,175.38,-2.8,7.9
6.82,0.5,0.5,2.75,0.75,3.0,1.0,0.0,0.25,0.0,1.5,0.5,1.0,0.5,-0.86,0.08,-0.48,199.04,7.1,16.2,0.75,0.5,1.75,0.75,1.25,3.0,0.0,0.0,0.25,1.5,1.5,0.75,0.5,-0.86,-0.17,0.52,175.01,-3.0,6.2
6.84,0.5,0.5,3.0,0.5,3.0,1.25,0.0,0.25,0.0,1.25,0.5,0.75,0.5,-0.92,0.02,-0.48,197.01,7.4,21.0,0.0,0.0,0.0,0.75,0.0,3.0,0.0,0.0,0.25,0.25,1.0,0.75,0.0,-0.8,-0.23,0.7,145.79,6.0,-7.0
6.86,0.75,0.5,3.0,0.5,2.25,1.0,0.0,0.0,0.0,1.75,0.5,1.25,0.5,-0.92,0.02,-0.42,190.24,8.8,11.9,0.75,0.25,0.0,0.75,1.5,3.0,0.0,0.0,0.25,1.75,0.5,0.75,0.5,-0.86,-0.23,0.64,138.94,4.8,1.2
6.88,0.5,0.25,2.75,0.0,2.25,1.5,0.0,0.0,0.0,1.75,0.5,1.25,0.5,-0.92,0.02,-0.42,182.65,5.9,6.0,0.75,1.0,1.75,0.75,1.0,3.0,0.25,0.0,0.25,1.75,1.5,0.75,0.5,-0.92,-0.17,0.52,146.92,-3.5,7.4
6.9,0.5,0.5,2.75,0.75,3.0,1.75,0.0,0.0,0.0,1.75,0.5,1.25,0.5,-0.92,0.02,-0.36,187.05,5.6,14.2,0.0,1.0,2.25,0.75,1.0,3.0,0.0,0.0,0.25,1.75,1.5,0.75,0.0,-0.98,-0.17,0.58,160.94,-3.6,9.2
6.92,0.5,0.75,3.0,0.75,2.25,1.0,0.0,0.0,0.0,1.75,0.5,1.25,0.5,-0.86,0.08,-0.36,186.27,8.6,13.1,0.5,0.75,2.0,1.0,1.0,3.0,0.25,0.0,0.25,1.5,1.5,0.75,0.5,-0.98,-0.11,0.58,175.58,-4.0,7.6
6.94,0.75,0.5,3.0,0.25,2.5,1.0,0.0,0.0,0.0,1.75,0.5,1.0,0.25,-0.86,0.14,-0.36,184.35,8.8,17.1,0.75,1.0,2.25,0.75,1.0,3.0,0.25,0.0,0.25,2.25,1.25,0.75,0.5,-0.98,-0.11,0.58,190.57,-3.9,7.8
6.96,0.5,0.5,2.75,0.75,2.25,1.25,0.0,0.0,0.0,1.25,0.25,1.5,0.5,-0.8,0.14,-0.36,180.64,8.2,13.5,0.5,1.0,1.75,0.75,0.5,3.0,0.0,0.0,0.25,2.0,1.5,0.75,0.75,-0.98,-0.11,0.58,192.21,-2.2,-0.4
6.98,0.5,0.5,3.0,0.75,2.25,1.25,0.0,0.0,0.0,1.75,0.5,1.0,0.5,-0.8,0.2,-0.36,180.01,7.9,14.1,0.5,1.0,1.75,0.75,1.25,3.0,0.25,0.0,0.25,1.5,1.5,0.75,0.5,-0.92,-0.11,0.52,193.23,-3.1,8.4
7.0,0.5,0.25,3.0,0.25,2.25,1.75,0.0,0.0,0.0,1.75,0.5,1.25,0.5,-0.8,0.2,-0.42,177.75,6.3,8.8,0.5,1.0,2.0,0.75,1.0,3.0,0.25,0.0,0.25,1.75,1.25,0.75,0.75,-0.92,-0.11,0.52,194.85,-3.1,6.1
7.02,0.5,0.75,2.75,0.75,2.5,1.0,0.0,0.0,0.0,1.5,0.5,1.25,0.25,-0.86,0.2,-0.42,179.61,8.7,17.4,0.5,1.0,2.0,1.0,1.0,3.0,0.25,0.0,0.25,2.0,0.75,0.75,0.5,-0.86,-0.11,0.52,196.36,-3.1,10.9
7.04,0.5,0.5,3.0,0.75,1.75,1.25,0.0,0.0,0.0,1.0,0.25,1.25,0.5,-0.92,0.2,-0.42,174.99,10.1,17.3,0.75,1.0,0.0,0.75,1.0,3.0,0.0,0.0,0.25,1.5,1.5,0.75,0.25,-0.86,-0.11,0.52,185.92,1.8,2.9
7.06,0.5,0.5,3.0,0.0,2.25,1.5,0.0,0.0,0.0,1.75,0.5,1.25,0.25,-0.92,0.2,-0.42,174.73,7.2,11.7,1.0,1.0,1.5,0.75,0.0,3.0,0.0,0.0,0.25,1.75,1.75,0.75,0.5,-0.86,-0.11,0.52,182.91,-3.8,1.7
7.08,0.5,0.5,3.0,0.75,2.25,1.0,0.0,0.0,0.0,1.25,0.5,1.0,0.5,-0.98,0.2,-0.42,172.87,9.5,17.6,0.75,0.5,2.0,0.5,1.5,3.0,0.25,0.0,0.25,2.0,0.75,0.75,0.75,-0.86,-0.17,0.58,184.73,-2.1,6.6
7.1,0.5,0.75,3.0,0.5,1.75,1.0,0.0,0.0,0.0,2.0,0.5,1.0,0.5,-0.98,0.2,-0.36,173.43,8.5,10.8,0.5,0.75,2.0,0.75,1.0,3.0,0.25,0.0,0.25,1.5,1.5,0.75,0.75,-0.86,-0.11,0.58,183.37,-3.4,4.3
7.12,0.5,0.5,2.5,0.75,2.5,1.0,0.0,0.0,0.0,1.25,0.5,0.25,0.25,-0.92,0.27,-0.36,168.52,8.4,28.7,0.75,1.0,2.0,0.75,1.5,3.0,0.25,0.0,0.25,1.75,1.5,0.75,0.5,-0.92,-0.11,0.52,190.08,-3.8,10.3
7.14,0.5,0.0,3.0,0.5,1.75,1.0,0.0,0.0,0.0,1.75,0.5,1.25,0.25,-0.92,0.27,-0.36,163.54,9.3,6.6,0.75,1.0,2.25,0.75,1.5,3.0,0.25,0.0,0.25,2.0,1.5,0.75,0.5,-0.86,-0.11,0.52,200.04,-4.1,9.7
7.16,0.25,0.75,3.0,0.75,2.5,1.0,0.0,0.0,0.0,1.5,0.5,1.0,0.25,-0.86,0.27,-0.36,166.93,8.8,19.4,0.5,0.75,2.25,0.75,1.0,3.0,0.25,0.25,0.25,1.5,1.5,0.75,0.5,-0.86,-0.11,0.52,200.61,-4.1,6.8
7.18,0.5,0.75,3.0,0.75,3.0,1.0,0.0,0.0,0.0,1.25,0.5,1.25,0.5,-0.86,0.2,-0.36,176.21,8.7,19.2,0.5,0.75,2.0,0.75,1.25,3.0,0.0,0.0,0.25,1.5,1.25,0.75,0.75,-0.86,-0.11,0.52,197.4,-2.9,6.7
7.2,0.5,0.75,3.0,0.75,2.5,1.0,0.0,0.0,0.0,2.0,0.5,1.25,0.5,-0.86,0.2,-0.36,185.43,7.9,12.3,0.0,0.0,0.0,0.75,0.25,3.0,0.0,0.0,0.25,1.5,1.5,0.75,0.5,-0.8,-0.11,0.45,172.04,6.8,-25.5
7.22,0.5,0.75,2.75,1.0,2.25,0.75,0.0,0.25,0.0,1.25,0.5,1.5,0.25,-0.86,0.2,-0.36,188.0,9.7,15.3,0.5,0.75,2.0,0.75,1.25,3.0,0.0,0.0,0.25,2.0,1.5,0.75,0.25,-0.8,-0.17,0.45,171.38,-3.0,6.6
7.24,0.25,0.5,3.0,0.75,3.0,1.5,0.0,0.0,0.0,1.75,0.5,1.25,0.25,-0.92,0.2,-0.36,192.86,6.6,15.7,0.5,1.0,1.75,0.75,1.25,3.0,0.25,0.0,0.25,1.5,1.5,0.75,0.75,-0.86,-0.23,0.64,172.92,-2.8,6.1
7.26,0.25,0.5,3.0,0.75,2.25,1.0,0.0,0.0,0.0,1.25,0.5,1.0,0.5,-0.92,0.2,-0.36,186.88,9.0,15.9,0.75,0.75,2.25,0.75,1.0,3.0,0.0,0.0,0.25,1.5,1.5,0.75,0.5,-0.8,-0.3,0.7,183.68,-4.8,9.1
7.28,0.5,0.5,3.0,1.0,2.25,1.0,0.0,0.0,0.0,1.0,0.25,1.0,0.25,-0.92,0.2,-0.36,181.92,10.8,25.6,0.75,0.75,1.75,0.75,1.75,3.0,0.0,0.0,0.25,1.5,1.5,0.75,0.5,-0.8,-0.3,0.83,190.73,-2.9,10.0
7.3,0.25,0.75,3.0,0.75,3.0,0.5,0.0,0.0,0.0,1.75,0.5,0.5,0.25,-0.92,0.2,-0.36,178.41,8.9,23.9,0.75,1.25,1.75,0.75,1.25,3.0,0.0,0.0,0.25,1.5,1.25,0.75,0.5,-0.86,-0.3,0.83,193.75,-3.5,13.2
7.32,0.5,0.5,3.0,0.75,2.5,1.0,0.0,0.0,0.0,1.0,0.25,0.75,0.25,-0.92,0.2,-0.3,174.77,10.3,28.6,0.5,1.0,1.75,0.75,1.75,3.0,0.25,0.0,0.25,2.0,1.0,0.75,0.5,-0.86,-0.3,0.77,194.76,-1.9,10.2
7.34,0.5,0.75,3.0,0.75,2.25,1.0,0.0,0.0,0.0,0.75,0.25,1.0,0.5,-0.92,0.2,-0.3,172.51,10.7,25.7,0.5,1.0,2.0,0.75,1.0,3.0,0.25,0.0,0.25,1.75,1.25,0.75,0.75,-0.73,-0.17,0.7,193.81,-3.1,6.1
7.36,0.5,0.75,3.0,1.0,1.25,1.0,0.0,0.0,0.0,1.75,0.5,1.5,0.5,-0.92,0.2,-0.3,173.31,9.9,7.6,0.75,0.75,2.75,0.75,1.25,2.75,0.25,0.0,0.25,1.75,1.5,0.75,0.5,-0.67,-0.11,0.77,198.11,-6.2,10.2
7.38,0.25,0.75,3.0,0.75,1.75,1.0,0.0,0.25,0.0,1.25,0.5,1.25,0.5,-0.92,0.2,-0.3,172.46,9.2,12.0,0.5,0.5,2.0,0.75,1.5,2.75,0.25,0.0,0.25,1.75,1.5,0.75,0.5,-0.55,-0.05,0.77,196.94,-3.4,4.8
7.4,0.5,0.5,3.0,1.0,0.75,1.0,0.0,0.0,0.0,1.25,0.5,1.25,0.5,-0.92,0.14,-0.3,165.2,11.9,9.6,0.5,0.75,1.75,0.75,1.25,3.0,0.25,0.0,0.25,1.75,1.0,0.75,0.75,-0.48,0.02,0.77,195.92,-1.9,5.7
7.42,0.5,0.5,3.0,0.75,2.25,2.25,0.0,0.25,0.0,1.0,0.5,0.75,0.5,-0.92,0.14,-0.3,170.78,6.5,22.4,0.75,1.0,1.75,0.75,1.0,3.0,0.0,0.0,0.25,2.0,1.5,0.75,0.75,-0.55,-0.05,0.77,196.06,-2.5,3.5
7.44,0.5,0.75,3.0,0.75,1.75,1.0,0.0,0.25,0.0,1.5,0.25,1.0,0.5,-0.92,0.14,-0.3,171.77,9.1,16.3,0.5,0.75,1.5,0.75,1.25,3.0,0.25,0.0,0.25,1.5,1.5,0.75,0.5,-0.55,-0.05,0.83,192.69,-2.2,5.4
7.46,0.25,0.25,3.0,0.75,1.75,0.75,0.0,0.0,0.0,1.5,0.25,1.0,0.25,-0.86,0.14,-0.3,167.52,10.3,14.4,0.75,1.0,2.25,0.75,0.0,3.0,0.25,0.0,0.25,1.5,1.5,0.75,0.5,-0.48,-0.11,0.89,184.99,-6.0,7.0
7.48,0.5,0.5,3.0,0.75,1.75,1.0,0.0,0.25,0.0,1.25,0.5,1.0,0.25,-0.86,0.14,-0.36,165.12,10.2,17.4,0.5,0.75,2.25,0.75,1.0,3.0,0.25,0.0,0.25,1.25,1.5,0.75,0.5,-0.48,-0.23,0.89,183.38,-4.9,9.3
7.5,0.5,0.5,3.0,0.75,2.25,1.0,0.0,0.0,0.0,1.75,0.25,1.0,0.25,-0.86,0.14,-0.3,167.91,9.0,18.3,0.75,1.0,1.75,0.75,1.0,3.0,0.0,0.0,0.25,1.5,1.0,0.75,0.75,-0.42,-0.3,0.95,182.87,-2.9,9.7
7.52,0.5,0.5,3.0,0.75,1.25,1.25,0.0,0.25,0.0,1.25,0.5,1.25,0.25,-0.92,0.14,-0.3,166.67,10.1,13.0,0.5,1.0,1.75,0.75,1.0,3.0,0.0,0.0,0.25,1.75,1.5,0.75,0.25,-0.36,-0.3,0.95,182.26,-2.9,7.9
7.54,0.5,0.5,3.0,0.75,2.5,1.5,0.0,0.0,0.0,1.5,0.5,1.0,0.5,-0.92,0.08,-0.3,174.34,7.5,17.2,0.75,1.0,2.25,0.75,1.5,3.0,0.25,0.0,0.25,1.75,1.5,0.75,0.5,-0.3,-0.36,0.95,190.47,-4.4,11.2
7.56,0.5,0.5,3.0,0.75,2.25,1.0,0.0,0.25,0.0,1.25,0.5,1.0,0.5,-0.92,0.08,-0.23,178.18,9.0,16.4,0.5,1.0,2.0,0.75,1.0,3.0,0.25,0.0,0.25,1.75,1.5,0.75,0.5,-0.23,-0.48,0.89,192.68,-3.6,6.8
7.58,0.5,0.75,3.0,0.25,2.5,1.0,0.0,0.0,0.0,1.25,0.5,1.25,0.5,-0.92,0.08,-0.17,180.5,9.0,15.8,0.5,1.25,1.75,0.75,1.0,3.0,0.0,0.0,0.25,1.25,1.0,0.75,0.75,-0.17,-0.55,0.89,191.35,-2.9,11.6
7.6,0.5,0.75,3.0,0.75,1.75,1.25,0.25,0.25,0.0,1.25,0.25,1.25,0.25,-0.92,0.08,-0.17,179.16,9.7,18.9,0.75,1.0,1.75,0.75,1.0,3.0,0.0,0.0,0.25,1.75,0.25,0.0,0.75,-0.11,-0.61,0.89,183.53,-1.6,21.1
7.62,0.5,0.5,2.75,0.75,1.75,1.0,0.0,0.0,0.0,1.75,0.5,0.75,0.5,-0.98,0.02,-0.17,175.95,8.4,13.4,0.5,1.0,1.5,0.75,0.0,3.0,0.25,0.0,0.25,1.5,1.5,0.75,0.5,-0.05,-0.55,0.89,175.63,-3.1,1.4
7.64,0.5,0.5,3.0,0.75,1.75,1.0,0.25,0.0,0.0,1.5,0.25,1.0,0.25,-0.98,0.02,-0.17,171.53,10.4,18.7,0.75,1.25,1.75,1.0,1.25,3.0,0.25,0.0,0.25,2.0,1.5,0.75,0.5,-0.05,-0.55,0.83,182.3,-3.4,9.5
7.66,0.5,0.5,2.5,1.0,2.5,1.0,0.25,0.0,0.0,1.5,0.5,0.5,0.5,-0.98,0.02,-0.17,170.34,7.8,21.0,0.75,1.0,1.75,0.75,1.25,3.0,0.25,0.0,0.25,2.0,1.0,0.75,0.25,0.02,-0.55,0.77,185.89,-3.0,12.3
7.68,0.5,0.75,3.0,0.75,2.25,1.0,0.0,0.25,0.0,1.25,0.5,0.75,0.5,-0.98,0.02,-0.11,174.44,9.1,20.8,0.5,1.25,1.75,0.75,1.0,2.0,0.25,0.0,0.0,0.5,0.75,0.75,0.5,0.02,-0.55,0.77,179.33,-7.1,22.7
7.7,0.5,0.5,3.0,0.75,2.25,1.0,0.0,0.0,0.0,1.0,0.5,1.0,0.25,-0.98,0.02,-0.11,174.42,10.7,22.6,0.0,0.0,2.0,0.5,0.0,2.75,0.0,0.0,0.0,0.75,1.5,0.0,0.5,0.02,-0.55,0.77,156.5,-3.2,2.7
7.72,0.5,0.75,3.0,0.75,2.5,1.0,0.0,0.0,0.0,1.75,0.5,1.25,0.25,-0.92,0.02,-0.11,179.28,8.8,16.5,0.5,0.0,1.75,0.5,0.0,1.75,0.25,0.0,0.0,0.5,1.5,0.0,0.25,0.02,-0.55,0.77,129.2,-9.5,10.3
7.74,0.5,0.75,2.75,0.75,3.0,1.0,0.25,0.25,0.0,1.5,0.5,1.25,0.5,-0.92,0.02,-0.11,186.35,7.4,15.6,0.75,1.25,0.0,0.5,0.0,3.0,0.0,0.0,0.25,0.5,1.0,0.0,0.5,0.02,-0.55,0.77,111.25,2.1,19.2
7.76,0.5,0.5,3.0,0.75,2.25,1.0,0.25,0.0,0.0,1.75,0.25,0.5,0.25,-0.98,0.02,-0.11,184.72,9.2,24.1,0.5,1.25,1.75,0.5,1.0,1.75,0.25,0.0,0.0,0.75,1.0,0.75,0.5,0.02,-0.55,0.7,115.06,-7.1,16.7
7.78,0.5,0.5,3.0,0.75,1.75,1.0,0.25,0.25,0.0,1.25,0.25,1.25,0.5,-0.98,0.02,-0.11,180.46,9.8,13.8,0.5,1.0,2.5,0.5,1.5,3.0,0.25,0.0,0.25,1.5,1.5,0.75,0.0,0.14,-0.48,0.64,141.67,-5.4,16.1
7.8,0.5,0.5,3.0,0.75,2.25,1.0,0.25,0.25,0.0,1.75,0.5,1.25,0.25,-0.98,0.02,-0.17,181.22,8.7,12.9,0.5,1.0,1.75,0.5,0.0,1.75,0.25,0.0,0.0,0.25,1.0,0.0,0.0,0.2,-0.55,0.64,138.18,-11.7,37.5
7.82,0.5,0.75,3.0,0.75,2.5,1.25,0.25,0.25,0.0,1.5,0.25,1.5,0.25,-0.98,0.02,-0.23,185.59,8.4,16.9,0.5,1.25,2.0,0.75,1.0,3.0,0.25,0.0,0.25,2.0,0.25,0.75,0.0,0.2,-0.55,0.64,154.37,-3.4,20.5
7.84,0.5,0.25,3.0,0.75,2.25,1.0,0.25,0.25,0.0,1.75,0.25,1.0,0.25,-0.92,0.02,-0.17,184.61,8.6,15.4,0.5,1.25,1.5,0.5,0.5,3.0,0.5,0.0,0.25,1.5,1.5,0.75,0.25,0.33,-0.55,0.58,158.31,-3.4,7.6
7.86,0.5,0.5,3.0,0.75,1.75,1.0,0.25,0.25,0.0,1.75,0.25,1.0,0.5,-0.92,0.02,-0.17,183.23,8.7,12.6,0.75,1.25,1.75,0.75,1.0,3.0,0.5,0.0,0.25,1.5,1.5,0.75,0.5,0.39,-0.55,0.64,175.36,-4.3,10.9
7.88,0.5,0.5,3.0,0.75,2.25,1.0,0.25,0.25,0.0,1.75,0.25,1.0,0.5,-0.98,0.02,-0.17,181.94,8.2,14.6,0.5,1.25,2.0,0.75,1.25,3.0,0.25,0.0,0.25,1.5,1.5,0.75,0.25,0.39,-0.61,0.64,185.05,-4.3,13.5
7.9,0.5,0.5,2.5,0.75,1.25,1.25,0.0,0.0,0.0,1.5,0.5,1.25,0.25,-0.98,-0.05,-0.17,172.21,8.8,9.7,0.75,1.25,1.75,0.75,1.0,3.0,0.25,0.0,0.25,1.75,1.25,0.75,0.25,0.39,-0.55,0.64,197.86,-3.8,13.1
7.92,0.5,0.5,3.0,0.75,2.25,1.0,0.25,0.0,0.0,1.75,0.25,0.0,0.5,-0.98,-0.05,-0.17,168.67,8.7,27.0,0.0,0.0,1.75,0.75,1.0,3.0,0.25,0.0,0.25,1.75,0.75,0.75,0.5,0.52,-0.48,0.64,191.35,0.0,-1.6
7.94,0.5,0.5,3.0,0.75,2.25,1.0,0.25,0.0,0.0,1.75,0.5,0.75,0.5,-0.98,-0.11,-0.11,169.8,8.7,16.4,0.75,1.25,1.75,0.5,1.0,3.0,0.5,0.0,0.25,1.5,1.5,0.75,0.25,0.45,-0.48,0.7,192.03,-4.4,12.4
7.96,0.5,0.5,3.0,0.75,1.25,1.0,0.25,0.25,0.0,1.75,0.25,1.0,0.5,-0.98,-0.17,-0.05,168.05,9.4,10.5,0.5,1.25,2.25,0.75,1.0,3.0,0.25,0.0,0.25,1.5,1.5,0.75,0.25,0.52,-0.48,0.7,192.86,-5.1,13.6
7.98,0.5,0.75,2.75,0.75,2.5,1.0,0.25,0.25,0.0,0.5,0.25,1.0,0.25,-1.05,-0.23,-0.11,168.24,10.5,29.6,0.5,1.25,2.0,0.75,1.0,3.0,0.25,0.0,0.25,1.25,1.0,0.75,0.25,0.52,-0.48,0.64,191.67,-4.6,17.9
8.0,0.5,0.5,1.0,0.75,0.75,1.0,0.0,0.0,0.0,1.25,0.5,1.25,0.25,-0.98,-0.17,-0.05,151.52,5.6,-1.5,0.0,0.0,2.0,0.5,1.25,1.75,0.5,0.0,0.0,0.25,1.5,0.5,0.5,0.45,-0.48,0.7,172.05,-7.1,6.5
8.02,0.5,0.5,3.0,0.75,2.5,1.0,0.25,0.0,0.0,1.75,0.25,0.75,0.5,-0.98,-0.23,-0.11,156.21,8.4,19.2,0.75,1.0,2.0,0.5,1.0,3.0,0.25,0.0,0.25,1.5,1.5,0.75,0.25,0.45,-0.48,0.7,172.99,-4.6,11.5
8.04,0.5,0.5,2.75,0.75,1.75,1.0,0.0,0.25,0.0,1.75,0.5,0.5,0.25,-0.92,-0.42,-0.17,153.84,8.4,17.9,0.5,1.0,1.75,0.75,0.5,3.0,0.5,0.0,0.25,1.5,1.5,0.75,0.25,0.39,-0.55,0.7,171.99,-4.2,7.9
8.06,0.5,0.75,1.75,0.75,0.75,1.0,0.0,0.25,0.0,1.75,0.5,1.25,0.25,-0.92,-0.48,0.02,153.15,6.7,1.3,0.5,1.0,1.5,0.75,1.0,3.0,0.5,0.0,0.25,1.5,1.5,0.75,0.25,0.39,-0.48,0.58,173.67,-3.2,8.9
8.08,0.5,0.75,3.0,0.75,2.5,1.0,0.0,0.25,0.0,1.25,0.25,1.0,0.25,-0.86,-0.48,0.08,161.19,9.2,23.7,0.5,1.0,1.75,0.75,1.25,2.75,0.25,0.0,0.25,1.0,1.5,0.75,0.25,0.33,-0.48,0.45,175.6,-4.8,14.0
8.1,0.5,1.0,3.0,0.75,2.25,1.0,0.0,0.0,0.0,1.75,0.5,1.0,0.5,-0.8,-0.42,0.2,172.05,8.7,17.2,0.5,1.25,1.75,0.75,1.25,2.75,0.25,0.0,0.25,1.0,1.5,0.75,0.25,0.33,-0.42,0.45,179.14,-4.9,15.8
8.12,0.5,0.75,2.5,0.75,1.75,1.0,0.0,0.25,0.0,1.75,0.5,1.0,0.25,-0.8,-0.23,0.27,174.8,7.8,13.2,0.75,1.0,1.75,0.75,1.25,3.0,0.25,0.0,0.25,1.5,1.0,0.75,0.5,0.33,-0.36,0.52,181.98,-3.4,13.3
8.14,0.5,0.5,2.0,0.75,2.5,1.0,0.0,0.0,0.0,1.75,0.5,1.25,0.5,-0.8,-0.17,0.27,176.9,5.6,7.9,0.5,1.0,1.75,0.75,1.0,2.75,0.5,0.0,0.25,1.5,1.5,0.75,0.25,0.33,-0.36,0.64,183.39,-4.4,9.5
