time,left pressure 0[N/cm虏],left pressure 1[N/cm虏],left pressure 2[N/cm虏],left pressure 3[N/cm虏],left pressure 4[N/cm虏],left pressure 5[N/cm虏],left pressure 6[N/cm虏],left pressure 7[N/cm虏],left pressure 8[N/cm虏],left pressure 9[N/cm虏],left pressure 10[N/cm虏],left pressure 11[N/cm虏],left pressure 12[N/cm虏],left acceleration X[g],left acceleration Y[g],left acceleration Z[g],left total force[N],left center of pressure X[mm],left center of pressure Y[mm],right pressure 0[N/cm虏],right pressure 1[N/cm虏],right pressure 2[N/cm虏],right pressure 3[N/cm虏],right pressure 4[N/cm虏],right pressure 5[N/cm虏],right pressure 6[N/cm虏],right pressure 7[N/cm虏],right pressure 8[N/cm虏],right pressure 9[N/cm虏],right pressure 10[N/cm虏],right pressure 11[N/cm虏],right pressure 12[N/cm虏],right acceleration X[g],right acceleration Y[g],right acceleration Z[g],right total force[N],right center of pressure X[mm],right center of pressure Y[mm]
0.02,3.0,2.5,2.75,4.5,5.25,1.25,0.0,3.0,1.5,1.0,3.25,0.0,2.0,-0.23,-0.61,0.77,415.31,7.4,20.3,1.25,1.0,0.0,0.5,1.25,5.0,0.0,6.75,0.5,6.75,2.0,1.0,0.0,-0.05,0.2,1.33,405.68,9.0,-21.7
0.04,3.75,3.5,1.75,4.75,3.75,0.0,0.0,2.0,1.5,0.0,3.0,0.0,1.25,-0.86,0.52,0.02,392.17,11.8,32.2,0.25,0.0,0.0,0.0,1.5,1.0,0.0,4.75,0.25,4.5,0.75,0.0,4.25,0.45,0.33,1.27,286.68,12.4,-52.6
0.06,4.75,1.75,2.0,4.25,4.5,0.0,0.0,2.25,1.25,0.0,3.25,0.0,2.25,-0.55,0.89,0.77,376.98,10.9,24.0,0.25,0.0,0.0,0.0,0.0,0.75,0.0,3.75,0.5,2.5,0.75,0.0,1.0,0.58,0.39,1.45,183.28,11.7,-50.2
0.08,7.25,3.25,3.5,6.5,6.75,0.0,0.0,2.25,1.5,1.0,3.25,0.0,2.0,0.02,0.27,1.52,424.39,12.5,35.0,1.75,0.25,0.0,0.5,1.25,1.0,0.0,3.0,0.5,3.5,1.5,0.5,1.75,0.45,0.33,0.7,119.96,3.9,-28.0
0.1,8.5,2.5,4.25,8.0,4.5,0.0,0.0,0.25,1.5,0.0,3.0,0.0,1.5,-0.48,0.58,1.27,465.65,18.1,46.3,1.25,0.0,1.75,0.5,1.25,0.0,0.0,2.25,0.75,3.5,1.25,0.5,1.0,-0.8,2.02,0.33,84.62,-2.3,-21.6
0.12,9.5,3.75,6.0,12.5,6.75,0.25,0.0,1.75,1.5,0.75,2.0,0.25,2.0,-0.3,0.33,1.45,595.52,15.7,46.2,1.25,0.75,1.5,1.0,1.5,2.0,0.0,2.25,0.75,2.75,0.75,0.5,1.75,-0.61,1.77,0.39,96.0,0.3,-7.5
0.14,10.0,5.25,8.5,14.0,9.75,3.5,0.0,2.5,1.0,1.25,3.25,0.0,1.75,-0.05,0.2,1.2,801.52,13.2,46.1,1.25,0.75,1.75,0.25,1.5,0.5,0.0,2.25,0.75,1.0,0.75,0.0,1.0,0.02,1.77,0.7,90.34,-4.7,5.4
0.16,10.5,5.25,9.5,16.0,12.5,5.25,1.75,2.0,1.5,0.0,3.5,0.0,2.0,-0.05,0.14,1.14,1073.6,13.1,48.0,0.0,0.0,1.0,0.0,0.0,0.0,0.0,1.0,0.5,1.0,0.0,0.0,0.25,0.02,1.64,0.7,53.84,-2.4,-26.1
0.18,10.5,5.25,9.5,16.0,12.0,7.0,3.75,2.5,1.5,0.5,3.25,0.0,1.5,-0.11,0.2,1.14,1307.88,12.5,47.5,0.0,0.0,0.5,0.0,0.0,0.0,0.0,0.75,0.5,1.0,0.0,0.0,0.25,-0.05,1.58,0.77,9.13,2.0,-39.9
0.2,10.5,5.25,10.5,16.5,13.5,8.0,5.5,4.0,1.75,0.25,3.5,0.0,1.5,-0.17,0.2,1.14,1470.43,11.8,45.6,0.25,0.0,0.0,0.0,0.0,0.0,0.0,0.75,0.5,2.5,0.0,0.5,0.25,-0.11,1.58,0.83,0.0,7.7,-62.7
0.22,10.0,5.0,9.5,15.5,10.0,7.5,5.75,3.75,2.0,0.0,2.5,0.0,1.5,-0.17,0.2,1.02,1513.53,12.5,46.4,0.0,0.0,1.75,0.0,0.0,0.0,0.0,0.75,0.5,0.75,0.0,0.5,0.0,-0.05,1.58,1.14,0.0,-12.8,-11.5
0.24,10.0,5.25,9.25,16.0,0.0,8.0,5.75,4.25,2.25,0.0,3.0,0.0,2.0,-0.11,0.14,1.02,1457.66,14.7,42.0,0.0,0.0,1.75,0.0,1.25,0.0,0.0,2.0,0.5,0.75,0.0,0.0,0.25,0.14,1.52,1.2,26.11,-3.1,0.8
0.26,9.25,5.25,10.5,17.5,13.0,8.5,6.0,5.25,2.75,1.0,4.0,0.0,1.75,-0.11,0.14,0.95,1507.49,10.8,40.4,0.25,0.0,1.25,0.0,0.0,0.0,0.0,0.5,0.25,1.0,0.0,0.0,0.25,0.33,1.33,1.14,34.49,-9.3,-8.9
0.28,9.0,5.0,9.5,16.0,8.0,8.0,5.5,5.25,2.25,0.0,2.0,0.0,1.5,-0.11,0.14,0.95,1476.3,11.9,44.2,0.0,0.0,1.25,0.0,0.0,0.25,0.0,0.75,0.5,0.75,0.0,0.0,0.25,0.52,1.2,1.2,40.86,-5.8,-12.3
0.3,9.0,4.25,8.75,14.5,0.0,8.0,4.75,5.25,2.25,0.5,1.75,0.0,1.5,-0.11,0.14,0.95,1373.72,13.5,41.0,0.0,0.0,1.0,0.0,0.0,0.0,0.0,0.5,0.5,0.75,0.0,0.0,0.25,0.7,1.02,1.33,31.92,-7.1,-19.9
0.32,8.25,4.0,8.5,14.0,3.75,8.0,3.75,5.25,2.25,1.0,3.0,0.0,1.5,-0.11,0.14,0.95,1249.67,11.5,37.6,0.0,0.75,1.25,0.5,0.0,1.0,0.0,0.5,0.75,2.25,0.0,0.5,0.25,0.77,0.89,1.2,49.02,-1.6,-10.7
0.34,8.5,5.0,8.75,15.5,0.0,8.0,3.5,5.5,3.0,2.5,4.25,1.25,2.0,-0.11,0.14,0.95,1167.7,11.8,28.6,0.0,0.0,1.75,0.0,1.5,0.0,0.0,0.5,0.5,0.5,0.0,0.0,0.25,0.83,0.64,1.08,59.69,-9.3,18.5
0.36,8.0,4.75,8.0,14.0,14.5,8.0,1.75,5.75,2.75,2.75,4.5,1.25,2.25,-0.11,0.14,0.95,1213.72,7.6,31.3,0.0,0.0,0.5,0.0,0.0,0.0,0.0,0.5,0.5,0.25,0.0,0.0,0.25,0.89,0.39,1.14,55.65,-4.9,-26.8
0.38,7.5,4.25,7.5,14.0,13.5,8.25,0.75,6.0,3.0,2.75,4.75,1.25,2.5,-0.11,0.14,0.95,1282.5,7.0,28.7,0.0,0.0,1.25,0.0,0.0,0.0,0.0,0.5,0.5,0.5,0.0,0.0,0.25,0.83,0.2,1.14,54.17,-11.6,-8.5
0.4,6.75,3.75,6.25,13.0,13.0,8.0,0.25,6.25,3.0,3.5,5.0,1.25,2.25,-0.11,0.14,0.95,1328.84,5.9,25.2,0.0,0.0,1.25,0.25,0.0,0.0,0.0,0.5,0.5,1.0,0.0,0.0,0.0,0.77,-0.05,1.08,53.02,-10.0,-5.7
0.42,6.25,3.75,6.0,12.5,13.0,8.25,0.0,6.25,3.0,4.5,4.75,1.25,2.25,-0.11,0.14,0.95,1326.77,5.1,23.4,0.0,0.0,1.25,0.5,0.0,0.0,0.0,0.5,0.5,0.5,0.0,0.0,0.25,0.58,-0.42,1.08,49.54,-12.5,1.2
0.44,5.75,3.75,5.75,12.5,13.0,8.5,0.0,6.75,3.5,4.75,5.0,1.25,3.75,-0.11,0.14,0.95,1327.27,4.1,18.7,0.0,0.0,1.25,0.0,0.0,0.0,0.0,0.5,0.5,0.75,0.0,0.0,0.0,0.33,-1.11,1.08,46.18,-11.5,-5.4
0.46,5.25,3.75,5.0,12.5,12.5,8.75,0.0,7.25,3.75,5.0,5.25,1.5,3.75,-0.11,0.08,0.95,1333.22,3.4,15.9,0.0,0.0,1.25,0.0,0.0,0.0,0.0,0.5,0.25,0.0,0.0,0.0,0.0,0.14,-1.73,1.08,42.12,-21.5,24.3
0.48,4.75,3.75,4.5,11.5,13.0,8.75,0.0,7.75,3.75,5.75,5.75,2.75,3.75,-0.11,0.08,0.95,1346.12,2.6,11.0,1.0,0.0,1.0,0.0,0.0,0.0,0.0,0.5,0.0,0.5,0.0,0.0,0.0,0.14,-2.3,1.2,40.15,-18.8,32.7
0.5,4.75,3.75,4.5,10.5,13.0,8.75,0.0,7.75,4.0,6.25,5.75,2.75,4.75,-0.11,0.08,0.95,1350.87,2.1,8.1,1.25,0.0,0.25,0.25,0.0,0.0,0.0,0.75,0.0,0.0,0.0,0.0,0.0,0.58,-3.67,4.33,39.0,-17.4,47.6
0.52,4.75,3.75,4.5,10.5,12.5,8.75,0.0,8.25,4.0,6.5,6.0,2.75,5.25,-0.11,0.08,0.95,1379.64,1.9,6.2,4.25,0.25,0.0,0.5,0.0,0.0,0.0,0.5,0.25,0.0,0.0,0.0,0.0,0.2,0.08,0.08,57.3,-26.5,75.5
0.54,4.75,3.75,4.25,10.5,12.0,9.0,0.0,8.0,3.75,6.5,5.5,2.75,5.25,-0.11,0.08,0.95,1379.78,1.7,6.6,7.75,1.75,2.75,2.0,3.25,0.0,0.0,0.25,0.0,0.0,0.0,0.0,0.25,0.77,1.45,2.7,144.99,-21.9,73.7
0.56,4.75,3.75,4.25,10.0,13.0,9.0,0.0,8.5,3.75,6.5,5.25,2.75,5.25,-0.11,0.08,0.95,1368.48,1.4,6.9,9.0,1.5,3.75,3.75,2.25,0.25,0.0,0.25,0.5,1.75,0.0,0.0,1.0,-0.3,0.33,2.08,240.75,-19.7,54.4
0.58,4.5,3.75,4.25,10.0,13.0,9.25,0.0,8.25,3.75,6.5,6.0,2.75,5.25,-0.11,0.08,0.95,1358.36,1.4,6.1,9.75,2.0,6.0,6.75,5.5,0.0,0.0,0.75,0.5,1.75,0.0,0.0,0.75,-0.17,0.33,1.77,370.02,-18.4,56.6
0.6,4.5,3.75,4.25,10.0,13.0,9.5,0.0,8.5,3.5,6.25,5.75,2.5,5.25,-0.11,0.08,0.95,1349.42,1.2,7.0,9.75,2.0,7.25,8.0,7.0,0.75,0.0,0.75,0.0,0.0,0.0,0.0,0.25,0.02,0.33,1.52,510.99,-19.4,66.1
0.62,4.75,3.75,4.25,9.75,13.0,9.5,0.0,8.5,3.0,6.25,5.75,1.5,5.25,-0.11,0.14,0.95,1347.44,1.1,8.9,11.5,3.5,8.25,10.5,8.5,5.75,1.5,1.0,0.0,1.0,0.75,0.0,0.25,0.02,0.27,1.33,731.45,-14.6,58.6
0.64,4.75,3.75,4.25,9.75,13.0,9.5,0.0,8.5,3.0,6.25,5.25,1.5,5.25,-0.11,0.14,0.95,1341.36,1.0,9.5,10.5,4.25,9.0,11.5,8.5,6.75,0.0,0.75,0.75,2.25,0.0,0.5,0.0,0.02,0.2,1.33,924.19,-13.3,55.7
0.66,4.5,3.75,4.25,8.25,13.0,9.75,0.0,8.5,2.75,6.25,5.25,1.25,4.5,-0.11,0.14,0.95,1313.78,0.6,10.0,12.0,4.25,9.75,11.0,9.5,7.25,4.75,3.25,1.5,3.75,0.75,0.5,1.5,0.08,0.14,1.08,1179.79,-11.7,43.0
0.68,4.5,3.75,3.75,8.0,12.5,10.5,0.0,8.5,2.25,6.25,5.0,1.25,4.0,-0.11,0.14,0.95,1270.64,0.0,10.9,11.0,4.0,9.75,10.5,9.5,7.5,6.25,4.5,2.5,4.25,2.0,1.0,1.75,0.02,0.14,1.02,1361.99,-10.7,34.9
0.7,4.5,3.75,3.0,7.0,11.5,10.0,0.0,8.25,2.0,4.5,4.5,0.75,4.0,-0.11,0.14,0.95,1180.42,-0.1,12.9,11.0,4.5,9.25,10.5,9.5,7.25,6.25,5.0,2.5,4.5,2.75,1.0,2.0,0.02,0.14,1.02,1473.95,-10.2,32.7
0.72,4.75,3.75,2.5,5.75,10.5,9.5,0.0,7.75,2.25,2.75,4.0,0.0,2.75,-0.11,0.2,1.02,1052.25,0.3,18.8,11.0,3.25,9.0,10.5,9.5,7.5,6.0,5.0,2.5,4.0,2.5,0.75,2.0,0.02,0.14,0.95,1505.88,-10.1,33.0
0.74,3.75,3.0,2.25,5.0,9.25,8.75,0.0,6.5,1.5,1.5,3.0,0.0,1.5,-0.11,0.27,1.14,874.6,0.2,24.1,9.75,3.0,9.0,9.0,8.5,7.0,5.5,5.0,2.25,3.5,2.0,0.75,1.75,0.02,0.14,0.95,1463.74,-10.2,33.1
0.76,3.0,2.75,0.0,4.25,8.25,8.5,0.0,6.0,1.5,2.25,3.25,0.75,1.75,0.08,0.45,1.33,711.47,-2.4,14.3,9.25,2.5,8.25,8.5,8.5,6.75,4.5,5.0,1.75,3.5,2.0,0.5,1.75,0.02,0.14,0.95,1371.15,-9.5,32.7
0.78,3.0,2.5,2.0,3.75,7.0,6.0,0.0,4.0,1.5,1.0,3.25,0.0,1.25,0.27,0.64,1.39,557.7,2.0,23.3,8.75,2.5,7.5,7.5,8.5,6.75,3.75,4.5,1.75,4.25,2.0,0.5,1.75,0.02,0.14,0.89,1244.34,-8.6,30.7
0.8,2.25,2.25,0.75,3.5,5.5,3.75,0.0,2.25,1.0,0.75,2.0,0.0,0.5,0.2,1.02,1.39,399.98,2.7,30.6,8.0,2.5,7.25,7.0,8.25,6.75,2.75,4.75,1.75,4.0,2.0,0.5,1.75,0.02,0.14,0.89,1113.99,-7.9,29.5
0.82,3.25,2.75,2.25,4.75,4.75,3.5,0.0,4.0,1.75,2.0,3.25,0.0,1.5,-0.17,3.39,0.27,350.21,4.5,18.4,7.25,2.0,6.25,6.75,7.25,6.75,2.0,5.0,1.75,3.75,2.0,0.75,1.75,0.02,0.14,0.89,982.64,-6.9,26.2
0.84,3.25,3.25,2.75,4.25,4.75,3.5,0.0,3.75,1.75,0.0,3.25,0.5,1.75,1.83,2.33,0.7,326.87,6.3,22.8,6.0,1.5,6.0,5.75,7.0,6.75,1.5,5.0,1.75,5.25,2.75,1.75,2.0,0.02,0.14,0.95,883.91,-5.2,15.5
0.86,2.25,2.25,2.75,2.5,5.5,1.75,0.0,3.75,1.5,0.0,2.5,0.0,1.0,1.77,2.14,0.89,303.82,6.1,24.7,5.25,1.5,5.0,5.0,7.0,6.75,1.25,5.75,1.5,5.75,3.25,2.0,3.0,0.02,0.14,0.95,800.96,-3.1,7.6
0.88,3.0,2.75,3.0,3.75,3.75,1.25,0.0,2.5,1.5,1.0,3.0,0.25,1.5,0.08,2.2,1.02,293.1,9.0,21.4,3.75,1.25,4.25,5.0,7.0,7.0,1.0,6.25,1.75,5.75,4.0,3.25,3.75,0.02,0.14,0.95,760.19,-1.4,-1.8
0.9,3.0,3.0,2.0,4.5,4.75,2.5,0.0,4.0,1.5,1.0,3.25,0.0,2.0,-0.55,1.83,0.95,308.12,5.1,18.6,3.75,1.5,4.0,5.0,7.0,6.75,0.75,6.75,1.5,7.25,5.0,4.25,5.25,0.08,0.14,0.95,763.59,-0.6,-9.7
0.92,3.0,3.25,2.5,4.5,4.5,2.0,0.0,3.5,1.5,1.0,3.25,0.5,1.75,-0.23,1.39,0.89,330.72,6.7,19.4,3.25,1.0,4.0,3.75,6.5,7.0,0.5,7.5,1.5,8.0,5.5,5.0,6.25,0.08,0.14,0.95,791.82,0.7,-18.1
0.94,3.0,3.0,2.75,3.0,3.75,1.75,0.0,3.5,1.5,0.75,3.0,0.0,1.75,-0.3,0.95,1.14,344.11,7.1,19.6,2.25,1.0,3.25,3.0,5.75,7.25,0.5,7.5,1.25,8.25,6.0,5.5,7.25,0.08,0.14,0.95,814.14,2.2,-25.9
0.96,3.0,3.0,2.0,3.5,2.5,1.5,0.0,3.0,1.5,1.25,3.25,0.5,2.0,-0.36,0.83,1.2,351.51,7.1,12.2,2.25,1.0,2.75,2.75,5.5,6.75,0.5,7.75,1.25,8.5,6.0,6.0,7.75,0.08,0.14,0.95,832.94,2.6,-29.6
0.98,3.0,3.0,0.0,3.5,4.75,1.25,0.0,3.0,1.5,1.25,3.25,0.0,1.75,-0.3,0.83,1.14,350.37,4.1,15.7,2.5,1.0,1.75,2.5,5.5,6.75,0.25,8.0,1.25,8.5,6.0,6.0,8.0,0.08,0.08,0.95,845.14,3.4,-31.6
1.0,2.75,2.5,1.0,3.5,5.0,1.5,0.0,2.25,1.0,0.75,3.25,0.25,1.5,-0.3,0.64,1.14,343.38,5.8,20.1,2.0,1.0,1.75,1.25,5.25,6.25,0.5,8.0,0.75,8.5,6.0,5.5,8.0,0.08,0.08,0.95,832.08,4.3,-34.9
1.02,3.0,2.5,3.0,3.5,4.75,1.25,0.0,3.0,1.25,1.0,3.25,0.0,2.0,-0.55,0.39,1.14,357.77,7.5,19.1,1.0,0.25,1.25,2.5,2.75,6.75,0.0,7.5,0.75,8.75,5.0,6.25,7.25,0.08,0.08,0.95,794.51,5.4,-42.1
1.04,3.0,2.5,2.75,3.0,4.5,1.25,0.0,2.5,1.5,1.0,3.5,0.25,1.5,-0.67,0.14,1.02,366.15,8.1,18.6,1.5,1.0,1.5,2.5,4.75,6.25,0.0,8.0,0.75,8.75,6.0,6.25,8.0,0.08,0.14,0.95,794.22,4.3,-36.6
1.06,3.0,2.5,2.5,3.0,5.0,1.25,0.0,2.25,1.5,0.5,3.25,0.25,1.75,-0.67,0.02,1.08,365.47,8.0,20.8,1.25,0.25,1.25,2.0,3.5,6.25,0.0,8.0,0.25,8.5,5.0,6.0,8.75,0.08,0.14,0.95,775.02,5.8,-43.1
1.08,3.0,2.5,3.0,4.5,5.0,1.25,0.0,2.25,1.5,0.5,3.25,0.0,1.75,-0.73,-0.11,1.02,376.77,9.0,24.6,1.25,0.5,1.5,3.0,1.25,6.25,0.0,7.75,0.5,8.5,5.0,6.0,8.5,0.08,0.08,0.95,757.48,5.0,-44.4
1.1,3.0,2.5,3.0,4.5,4.75,1.25,0.0,2.25,1.5,1.0,3.5,0.0,1.75,-1.05,-0.3,0.7,389.88,8.7,21.8,1.25,0.0,1.25,2.0,1.5,5.75,0.0,7.75,0.25,8.25,5.0,5.5,8.75,0.08,0.14,0.95,722.22,5.9,-48.5
1.12,3.0,2.5,3.0,2.25,4.75,1.25,0.0,2.25,0.75,0.5,3.25,0.0,1.75,-1.23,-0.42,0.64,377.66,8.3,23.1,1.5,1.0,1.25,0.75,2.5,5.0,0.0,7.5,0.25,8.25,4.0,4.25,8.5,0.08,0.14,1.08,676.86,6.3,-43.6
1.14,3.0,2.75,2.0,2.0,5.5,1.25,0.0,3.0,1.5,0.5,3.25,0.0,1.5,-1.05,-0.8,0.83,369.95,6.4,20.8,1.25,0.75,0.0,1.5,1.25,4.0,0.0,6.25,0.25,6.75,2.0,3.0,8.0,0.02,0.14,1.33,576.98,8.1,-47.0
1.16,3.0,2.5,2.25,4.5,5.5,1.25,0.0,2.75,1.5,0.5,3.25,0.0,1.75,-0.86,-1.05,0.7,378.14,7.6,23.2,1.25,0.25,0.0,0.75,1.25,2.5,0.0,6.0,0.0,6.5,0.75,2.5,6.75,0.27,0.27,1.45,468.22,9.3,-51.3
1.18,3.5,2.25,2.75,4.5,5.25,1.25,0.0,3.0,1.5,0.0,3.25,0.0,1.75,-0.67,-1.05,0.58,391.48,8.8,25.2,0.0,0.0,1.25,0.0,1.5,0.25,0.0,3.75,0.0,2.25,0.5,1.75,5.75,0.33,0.39,2.02,336.44,6.9,-58.2
1.2,2.5,1.75,2.5,2.75,4.75,1.25,0.0,3.0,0.5,0.0,3.0,0.0,1.5,-0.48,-1.05,0.58,375.38,7.1,22.3,0.0,0.0,0.0,0.0,0.0,0.0,0.0,2.25,0.0,2.0,0.0,0.0,2.75,0.33,0.64,1.77,214.32,15.2,-77.5
1.22,4.75,2.0,2.0,5.5,3.75,0.0,0.0,2.0,0.75,0.0,1.25,0.0,2.0,-1.05,-2.11,2.33,362.24,12.3,36.7,0.25,0.0,0.0,0.0,0.25,0.5,0.0,2.25,0.25,2.0,0.0,0.0,0.5,-0.11,1.39,0.39,98.12,12.7,-41.6
1.24,6.5,3.25,4.5,7.5,6.75,0.0,0.0,2.5,1.5,1.25,1.75,0.0,1.5,0.64,1.39,5.02,414.65,12.9,40.2,0.75,0.0,0.25,0.0,0.0,0.0,0.0,1.25,0.5,0.75,0.0,0.0,0.5,-0.48,2.52,-0.55,1.04,-0.1,-24.3
1.26,6.5,3.5,6.25,10.0,6.75,2.5,0.0,3.0,1.5,1.25,3.0,0.5,1.75,-0.92,0.52,1.52,536.94,11.8,35.8,1.5,0.5,1.0,0.0,1.0,0.0,0.0,1.25,0.75,3.5,0.0,0.5,0.25,-1.3,2.08,1.2,0.0,-2.4,-10.7
1.28,6.25,3.25,8.5,12.5,8.5,3.75,3.0,3.75,2.25,0.0,2.25,0.0,2.0,0.14,0.02,1.83,727.84,12.4,40.3,1.25,0.5,1.75,0.0,1.5,0.0,0.0,2.0,0.5,2.5,0.0,0.5,0.25,-0.48,1.89,1.33,0.0,-4.0,0.0
1.3,6.5,3.5,8.5,12.0,8.75,5.0,5.25,5.25,5.75,4.5,5.5,3.75,1.5,-0.3,0.2,1.58,1010.28,9.8,16.6,0.25,0.0,1.75,0.0,0.0,0.0,0.0,0.75,0.5,0.75,0.0,0.0,0.0,-0.17,1.83,1.08,0.0,-14.5,6.9
1.32,6.0,3.5,8.75,8.0,8.5,5.75,7.5,6.75,6.75,6.25,8.0,5.5,5.25,-0.11,-0.11,1.2,1305.21,7.3,-0.2,0.25,0.0,0.5,0.0,0.0,0.0,0.0,0.75,0.5,0.5,0.0,0.0,0.0,-0.42,1.83,0.95,0.0,-5.3,-12.7
1.34,6.0,3.25,8.75,10.5,9.25,6.25,7.5,7.25,6.5,6.25,8.0,5.5,6.0,-0.05,-0.05,1.08,1496.09,7.0,0.8,0.25,0.0,0.0,0.0,0.0,0.0,0.0,0.75,0.25,0.5,0.0,0.0,0.0,-0.36,1.39,1.52,0.0,5.3,-30.9
1.36,6.5,3.5,8.75,12.5,8.25,6.25,7.5,7.25,6.25,6.25,8.0,5.5,5.75,-0.11,0.08,0.95,1626.02,7.6,2.7,0.25,0.0,0.75,0.0,0.0,0.0,0.0,0.75,0.5,0.5,0.0,0.0,0.0,-0.23,1.14,1.7,0.0,-8.4,-5.8
1.38,6.0,3.5,8.75,10.5,8.75,5.75,7.25,7.25,6.25,5.5,8.25,6.5,6.0,-0.11,0.08,0.95,1684.26,7.4,-0.1,0.25,0.0,0.75,0.0,0.0,0.0,0.0,0.25,0.25,0.5,0.0,0.0,0.0,-0.11,0.89,1.83,0.0,-14.3,6.4
1.4,5.75,3.5,8.75,10.0,9.25,5.75,7.0,7.25,6.25,6.25,8.75,6.5,6.25,-0.05,0.02,0.95,1702.02,7.0,-1.7,0.0,0.0,1.0,0.0,0.0,0.0,0.0,0.5,0.25,0.5,0.0,0.0,0.25,0.08,0.7,1.7,0.0,-8.9,-12.7
1.42,4.75,3.5,8.0,8.75,8.25,5.5,6.0,7.0,6.0,6.25,8.5,6.5,6.75,-0.05,0.08,0.95,1665.5,6.2,-5.6,0.25,0.0,1.25,0.0,0.0,0.0,0.0,0.5,0.25,0.75,0.0,0.0,0.25,0.33,0.58,1.58,17.09,-11.2,-3.8
1.44,3.5,2.25,6.25,6.5,8.25,3.5,5.0,6.75,5.25,0.0,8.0,5.5,6.25,-0.05,0.08,0.95,1515.57,7.1,-4.9,0.0,0.0,0.75,0.0,0.0,0.0,0.0,0.5,0.25,0.5,0.0,0.0,0.25,0.52,0.33,1.45,26.39,-5.6,-21.0
1.46,4.25,3.5,5.5,6.75,6.5,4.0,3.0,5.75,5.25,5.0,7.0,6.5,5.5,-0.05,0.08,0.95,1367.43,5.8,-8.4,0.0,0.0,1.0,0.0,0.0,0.0,0.0,0.5,0.25,0.0,0.0,0.0,0.25,0.64,0.2,1.14,25.19,-15.0,2.7
1.48,3.5,3.5,4.25,6.5,6.5,4.25,2.25,6.25,4.5,5.25,7.5,6.5,5.75,-0.05,0.08,0.95,1191.47,4.2,-12.2,0.0,0.0,1.25,0.0,0.0,0.0,0.0,0.5,0.0,0.25,0.0,0.0,0.0,0.77,0.02,1.08,22.38,-18.1,19.7
1.5,2.5,3.5,4.25,5.0,6.0,3.5,1.25,5.75,4.5,5.5,7.25,6.25,6.75,-0.05,0.08,0.89,1040.02,3.4,-18.1,0.0,0.0,1.25,0.0,0.0,0.0,0.0,0.5,0.0,0.5,0.0,0.0,0.0,0.89,-0.17,0.83,20.27,-14.4,9.3
1.52,3.0,3.25,3.25,2.25,6.25,3.5,0.5,5.5,4.5,6.25,7.5,7.0,7.0,-0.11,0.08,0.95,915.21,2.0,-25.0,0.0,0.0,0.75,0.0,0.0,0.0,0.0,0.5,0.0,0.5,0.0,0.0,0.25,0.89,-0.36,0.83,23.88,-4.8,-18.8
1.54,2.75,3.25,3.25,1.0,6.75,3.5,0.5,5.75,4.25,6.25,7.5,7.25,7.5,-0.11,0.08,0.95,833.29,1.2,-27.6,0.0,0.0,0.5,0.0,0.0,0.0,0.0,0.5,0.0,0.25,0.0,0.0,0.25,0.77,-0.67,0.83,28.34,-2.5,-23.1
1.56,2.75,3.25,3.75,0.0,6.75,3.5,0.0,6.25,4.5,7.0,7.5,7.75,7.75,-0.11,0.08,0.95,798.32,0.9,-30.2,0.0,0.0,0.5,0.0,0.0,0.0,0.0,0.5,0.0,0.5,0.0,0.0,0.25,0.64,-1.11,0.89,27.69,0.0,-30.5
1.58,2.75,3.25,3.25,4.75,6.75,3.5,0.0,6.25,4.25,7.5,8.0,8.0,8.75,-0.11,0.08,0.95,829.51,1.5,-26.6,0.0,0.0,0.5,0.0,0.0,0.0,0.0,0.5,0.0,0.0,0.0,0.0,0.25,0.77,-1.61,1.02,23.27,-6.1,-12.7
1.6,2.75,3.25,3.5,5.25,6.75,3.75,0.0,6.75,4.5,0.0,8.25,8.5,9.5,-0.11,0.08,0.95,858.59,3.5,-21.6,0.0,0.0,1.75,0.0,0.0,0.0,0.0,0.25,0.0,0.5,0.0,0.0,0.0,0.7,-1.92,1.08,27.49,-22.3,24.4
1.62,2.75,3.0,2.5,4.75,6.75,3.5,0.0,7.0,4.75,0.0,8.75,8.75,9.75,-0.11,0.08,0.95,885.15,2.8,-25.5,1.0,0.0,0.25,0.0,0.0,0.0,0.0,0.0,0.0,0.5,0.0,0.0,0.0,1.08,-2.8,4.77,28.19,-20.5,40.9
1.64,2.75,3.0,2.0,4.5,6.75,3.75,0.0,7.25,4.5,8.75,8.75,9.25,10.0,-0.11,0.08,0.95,966.05,0.1,-33.2,3.75,0.75,0.0,1.25,0.0,0.0,0.0,0.25,0.25,1.75,0.0,0.0,0.0,0.45,0.33,0.33,65.13,-16.1,43.8
1.66,2.75,2.75,2.0,4.75,6.75,3.75,0.0,7.5,4.5,0.0,8.75,9.25,10.5,-0.11,0.08,0.95,987.6,2.1,-28.2,7.0,1.75,1.5,2.0,0.0,0.5,0.0,0.25,0.25,1.5,0.0,0.25,0.75,1.33,1.7,4.52,137.54,-19.5,52.0
1.68,2.75,3.0,2.25,5.0,6.75,3.75,0.0,7.75,4.25,9.75,8.75,9.25,10.5,-0.11,0.08,0.95,1091.41,0.0,-33.3,8.25,0.0,4.75,6.75,5.25,0.0,0.0,0.5,0.25,1.5,0.0,0.0,0.5,0.33,0.33,1.95,258.17,-18.3,55.7
1.7,2.5,2.75,2.5,4.75,6.75,3.75,0.0,7.75,4.25,9.25,8.75,9.25,10.5,-0.11,0.08,0.95,1143.65,0.0,-33.9,9.0,3.0,7.25,9.25,7.0,5.25,0.0,1.25,0.5,1.0,0.25,0.0,0.75,-0.23,0.02,1.95,446.32,-13.3,55.0
1.72,2.75,2.75,2.0,4.5,6.75,3.5,0.0,7.75,4.0,8.75,8.75,9.25,10.5,-0.11,0.08,0.95,1198.51,-0.1,-34.4,9.75,3.5,8.75,9.5,8.5,6.0,5.5,2.25,2.25,3.5,0.0,1.5,1.0,-0.48,0.08,2.33,750.52,-12.2,40.6
1.74,2.75,2.5,0.75,4.5,6.75,3.5,0.0,7.75,3.75,9.75,8.75,9.25,10.5,-0.11,0.08,0.95,1209.64,-1.1,-37.2,9.75,3.25,9.0,9.0,8.25,6.25,7.0,5.0,4.25,4.5,3.75,3.25,2.75,0.08,0.2,1.14,1103.74,-10.1,20.4
1.76,2.75,2.75,2.25,4.5,6.5,2.75,0.0,7.5,3.75,9.75,8.75,9.25,10.5,-0.05,0.08,0.95,1216.7,0.0,-35.7,9.75,3.25,9.0,9.75,8.25,6.25,7.5,5.75,4.5,5.25,5.25,3.25,3.75,0.02,0.02,1.08,1386.57,-9.5,15.7
1.78,2.25,2.5,2.25,4.5,4.5,2.5,0.0,7.5,3.0,9.5,8.5,9.5,11.5,-0.05,0.08,1.02,1190.15,-0.3,-41.4,9.75,3.25,9.0,10.0,8.5,6.25,7.5,5.5,3.75,4.25,5.0,2.5,3.25,0.02,0.14,0.95,1518.41,-10.0,20.3
1.8,2.75,2.25,2.25,4.5,5.75,1.25,0.0,7.0,2.75,9.25,8.25,9.5,11.5,-0.11,0.08,1.08,1155.88,0.2,-40.0,9.75,3.25,9.0,9.75,8.5,6.25,7.25,5.25,3.5,4.0,4.0,2.25,2.75,0.08,0.2,0.95,1559.59,-10.3,23.5
1.82,2.75,2.5,3.0,4.5,3.75,1.25,0.0,6.5,2.25,9.5,7.5,9.25,11.5,-0.17,0.08,1.2,1107.92,0.7,-41.1,9.0,3.0,9.0,9.0,8.5,6.0,7.25,5.0,3.5,4.0,4.5,2.5,2.75,0.02,0.14,0.95,1542.61,-10.1,21.2
1.84,2.75,2.5,2.25,4.5,3.75,1.25,0.0,5.5,2.25,8.75,6.75,8.5,11.5,-0.23,0.08,1.39,1042.49,0.5,-40.8,8.25,2.5,9.0,8.5,7.75,6.0,6.75,5.0,3.5,4.25,4.0,2.75,3.25,0.02,0.14,0.95,1488.54,-9.6,18.0
1.86,2.5,2.25,2.25,3.5,3.75,1.25,0.0,5.25,2.25,7.5,6.25,8.0,10.5,-0.23,0.14,1.58,945.23,0.5,-40.9,7.75,2.5,8.25,7.0,7.0,5.75,6.25,5.0,3.25,4.25,4.0,3.25,3.5,0.02,0.14,0.95,1405.41,-9.0,14.1
1.88,2.75,2.0,2.25,3.25,4.5,1.25,0.0,4.0,2.25,6.25,5.75,6.5,8.75,-0.3,0.2,1.64,820.36,1.4,-34.2,6.75,1.5,7.5,6.0,7.0,5.5,5.5,4.75,3.0,4.75,4.0,3.25,3.75,0.02,0.14,0.95,1291.98,-7.8,9.1
1.9,2.5,2.25,2.5,3.25,4.5,1.25,0.0,4.0,2.25,4.5,5.5,4.5,7.75,-0.23,0.27,1.77,699.13,2.2,-26.7,5.75,1.5,7.25,5.25,5.5,5.25,4.5,4.25,2.75,4.25,4.0,3.25,3.75,0.02,0.14,0.95,1108.06,-7.8,6.4
1.92,2.5,2.0,2.75,3.75,2.5,0.75,0.0,2.75,2.25,2.5,3.25,1.5,4.75,-0.05,0.45,1.45,526.91,5.6,-9.6,4.0,1.25,6.25,5.0,5.5,4.75,3.75,4.25,2.5,5.25,4.5,3.5,4.0,0.02,0.14,0.89,935.42,-5.9,-1.6
1.94,2.5,1.75,2.25,0.75,3.75,0.0,0.0,3.75,1.5,0.0,4.0,0.0,3.75,0.64,2.08,-0.48,380.97,5.5,-3.7,3.75,1.0,5.5,3.75,5.25,4.5,2.5,4.75,2.5,6.0,4.75,4.5,5.25,0.02,0.14,0.89,804.53,-3.9,-12.0
1.96,2.5,0.0,0.0,3.0,0.0,0.0,0.0,0.0,0.0,0.0,3.0,0.0,1.75,1.27,1.64,1.2,237.95,13.9,-0.6,3.0,1.0,4.25,2.75,5.25,5.0,1.75,5.0,2.5,6.25,5.0,5.5,6.0,0.02,0.14,0.95,720.74,-1.7,-20.5
1.98,0.0,0.0,0.0,0.0,0.0,0.0,0.0,0.0,0.0,0.0,0.0,0.0,0.0,0.95,1.14,1.52,75.12,0.0,0.0,2.5,1.0,4.25,2.5,5.25,5.0,1.5,5.25,2.5,7.25,5.75,6.25,6.5,0.02,0.14,0.95,690.68,-0.9,-25.8
2.0,0.0,0.0,0.0,0.0,0.0,0.0,0.0,0.0,0.0,0.0,0.0,0.0,0.0,0.27,1.14,1.02,0.0,0.0,0.0,2.0,1.0,4.0,2.5,5.25,4.75,1.5,5.75,2.5,7.75,6.0,6.75,7.75,0.02,0.14,0.95,705.36,-0.1,-30.8
2.02,0.0,0.0,0.0,0.0,0.0,0.0,0.0,0.0,0.0,0.0,0.0,0.0,0.0,0.02,1.27,0.89,0.0,0.0,0.0,2.5,1.0,4.0,2.5,4.25,5.0,1.25,6.0,2.25,7.75,6.75,7.0,8.0,0.02,0.14,0.95,741.89,-0.2,-32.6
2.04,0.0,0.0,0.0,0.0,0.0,0.0,0.0,0.0,0.0,0.0,0.0,0.0,0.0,0.27,1.2,1.02,0.0,0.0,0.0,1.75,1.0,3.0,2.5,3.5,5.0,1.25,6.75,2.25,8.0,6.75,7.75,8.75,0.02,0.14,0.95,783.05,1.1,-39.4
2.06,0.0,0.0,0.0,0.0,0.0,0.0,0.0,0.0,0.0,0.0,0.0,0.0,0.0,0.52,1.14,1.52,0.0,0.0,0.0,1.75,1.0,3.0,2.5,3.5,5.0,0.75,6.75,2.0,8.5,6.75,7.75,8.75,0.02,0.14,0.95,818.64,1.4,-40.0
2.08,2.25,0.0,0.0,0.0,0.0,0.0,0.0,0.0,0.0,0.0,0.0,0.0,0.0,0.2,0.95,1.7,0.0,34.9,97.8,2.0,0.75,2.25,2.5,3.5,5.0,1.0,7.0,1.75,8.75,7.0,7.75,9.0,0.02,0.14,0.95,850.18,2.0,-41.8
2.1,0.0,0.0,0.0,0.0,0.0,0.0,0.0,0.0,0.0,0.0,0.0,0.0,0.0,0.02,0.77,1.7,0.0,0.0,0.0,1.0,0.0,1.75,0.25,3.25,4.0,0.25,6.75,1.5,8.25,6.0,6.75,8.25,0.08,0.14,0.95,814.93,4.3,-51.9
2.12,0.0,0.0,0.0,0.0,0.0,0.0,2.0,0.0,0.0,0.0,0.0,0.0,0.0,-0.17,0.52,1.7,0.0,32.4,27.3,0.5,0.0,1.25,0.0,1.0,4.0,0.5,7.0,1.25,8.25,6.0,6.75,8.25,0.08,0.14,0.95,761.54,5.4,-61.4
2.14,2.5,0.0,0.0,0.0,0.0,0.0,0.0,0.0,0.0,0.0,0.0,0.0,2.5,-0.3,0.2,1.58,0.0,9.4,-11.0,0.75,0.5,1.25,0.5,0.0,4.0,0.25,6.75,1.25,8.0,6.0,6.75,8.5,0.08,0.14,0.95,706.05,4.8,-60.9
2.16,2.75,1.75,0.0,0.0,0.0,0.0,0.0,3.0,0.0,0.0,0.0,0.0,2.25,-0.36,0.02,1.45,31.67,3.1,6.1,0.25,0.0,1.0,0.25,2.25,4.0,0.0,6.75,1.25,8.25,5.5,6.75,8.5,0.08,0.14,0.95,673.01,6.0,-59.3
2.18,0.0,0.0,0.0,4.5,0.0,1.0,0.0,0.0,1.5,1.0,0.0,0.5,0.0,-0.36,-0.11,1.39,91.36,7.6,13.6,0.0,0.0,1.25,0.0,1.0,3.75,0.0,7.5,1.0,8.25,6.0,6.75,8.5,0.08,0.14,0.95,652.37,6.2,-64.3
2.2,0.0,0.0,0.0,0.0,0.0,0.5,0.0,0.0,1.5,0.75,0.0,0.0,0.0,-0.42,-0.17,1.2,106.24,-1.6,-36.1,1.25,1.0,1.25,0.25,2.75,4.0,0.25,7.5,1.0,8.25,6.0,6.5,9.25,0.02,0.14,0.95,670.88,4.8,-51.3
2.22,2.75,1.75,3.25,4.75,4.5,1.0,0.0,3.0,1.5,1.0,3.0,0.0,2.5,-0.48,-0.23,1.08,225.56,7.9,16.1,0.0,0.0,0.25,0.0,0.5,4.0,0.0,6.75,1.0,9.0,5.0,7.75,8.25,0.02,0.14,0.95,655.76,7.4,-69.5
2.24,2.75,2.0,2.75,4.5,4.25,0.5,0.0,3.0,1.5,0.75,3.0,0.25,2.5,-0.67,-0.36,0.89,300.34,8.1,14.7,1.25,1.0,1.25,0.75,1.75,4.0,0.0,7.5,1.0,8.75,5.25,6.75,9.75,0.02,0.14,1.02,675.5,5.1,-53.6
2.26,2.5,2.0,3.5,4.5,4.5,0.75,0.0,2.75,1.5,0.75,3.0,0.25,2.5,-0.67,-0.55,0.89,394.89,8.5,16.3,1.25,0.75,1.25,0.5,1.75,3.0,0.0,7.25,0.75,8.5,4.75,6.5,9.5,0.02,0.14,1.14,670.37,5.1,-56.1
2.28,2.75,2.0,3.5,4.5,4.25,1.25,0.0,2.5,1.5,0.5,3.0,0.75,2.25,-0.61,-0.8,0.95,451.8,9.0,17.1,1.25,0.75,1.25,1.25,1.75,2.75,0.0,6.25,0.75,7.25,2.5,5.0,9.5,0.08,0.2,1.33,637.46,5.3,-51.2
2.3,2.5,1.75,3.75,4.5,4.25,0.5,0.0,2.5,1.5,1.25,3.0,0.5,2.0,-0.61,-0.92,0.83,481.63,9.3,15.5,1.25,0.0,0.75,1.25,1.75,1.5,0.0,5.25,0.5,6.75,2.5,4.25,8.75,0.33,0.33,1.7,567.36,5.5,-56.7
2.32,2.75,2.0,2.75,4.5,4.75,0.75,0.0,2.25,1.5,1.0,3.0,1.0,2.5,-0.67,-0.92,0.77,478.3,8.1,13.1,0.5,0.0,0.0,0.5,0.0,0.25,0.0,2.75,0.25,2.75,0.75,2.5,7.5,0.45,0.39,1.58,419.54,7.9,-79.0
2.34,2.75,2.0,3.25,4.5,4.5,0.5,0.0,2.75,1.0,0.0,3.0,0.0,2.25,-0.73,-0.8,0.7,465.72,9.6,22.2,0.25,0.0,0.0,0.0,0.0,0.25,0.0,2.25,0.5,2.75,0.75,1.25,6.0,0.02,0.39,1.52,300.39,9.7,-81.7
2.36,2.5,1.75,2.0,2.5,4.25,0.0,0.0,2.75,0.75,0.0,3.0,0.0,2.0,-2.11,-2.11,0.2,421.35,8.0,16.5,0.25,0.0,0.0,0.0,0.0,0.25,0.0,0.75,0.5,1.5,0.5,0.75,4.0,-0.3,0.45,1.33,193.49,8.4,-81.9
2.38,4.5,1.75,3.0,2.25,6.25,0.0,0.0,2.0,1.5,0.75,2.5,1.0,1.25,-1.55,-1.48,0.95,404.63,10.6,24.5,0.25,0.0,0.25,0.0,0.0,0.0,0.0,0.75,0.5,1.5,0.5,0.0,1.75,-0.73,3.02,-0.73,93.67,5.7,-64.7
2.4,8.25,3.5,3.25,6.5,5.5,0.0,0.0,2.0,0.75,0.0,2.75,0.5,2.25,-1.05,0.83,3.08,446.32,14.3,39.7,0.25,0.0,0.0,0.0,0.0,0.0,0.0,0.5,0.5,1.75,0.5,0.0,1.0,-0.3,2.7,0.83,11.27,6.8,-66.2
2.42,9.75,3.5,7.25,10.5,7.0,0.0,0.0,2.25,1.5,1.25,3.0,1.0,2.5,-0.61,0.52,1.52,592.73,15.3,37.9,0.5,0.0,0.5,0.0,0.0,0.0,0.0,0.5,0.5,1.0,0.5,0.0,1.0,-0.55,1.39,1.08,0.0,-2.0,-41.5
2.44,9.75,5.0,8.75,14.0,8.75,4.0,0.5,2.5,1.5,1.5,3.0,0.75,2.25,0.58,0.02,2.02,823.13,13.0,41.7,0.75,0.0,1.0,0.0,0.0,0.0,0.0,0.5,0.5,0.5,0.0,0.0,0.25,0.02,1.39,0.64,0.0,-14.4,7.7
2.46,0.0,5.0,9.75,14.5,11.0,6.75,5.5,1.5,2.0,0.5,3.0,0.0,1.75,-0.05,0.08,1.27,994.23,9.9,39.2,0.5,0.0,0.75,0.0,0.0,0.0,0.0,0.5,0.25,0.0,0.0,0.0,0.25,-0.05,1.27,0.89,0.0,-16.4,15.8
2.48,10.5,5.25,10.5,14.5,13.5,7.5,7.75,5.25,3.75,2.5,4.0,0.75,2.25,-0.17,0.14,1.27,1330.52,10.7,35.4,1.0,0.0,1.0,0.0,0.5,0.0,0.0,0.5,0.5,0.5,0.0,0.25,0.25,-0.67,1.02,1.33,0.0,-12.9,11.7
2.5,10.5,5.0,11.0,15.0,14.5,8.0,8.75,5.5,5.25,3.0,5.0,1.25,3.5,-0.17,0.08,1.08,1559.27,10.1,29.8,0.0,0.0,1.25,0.0,0.25,0.0,0.0,0.5,0.5,0.5,0.0,0.0,0.25,-0.61,0.95,1.64,0.0,-10.3,-3.1
2.52,10.5,5.0,11.5,15.5,14.5,8.0,9.0,5.5,5.25,3.0,5.75,1.25,3.5,-0.11,0.08,1.02,1758.54,10.4,29.3,0.0,0.0,1.0,0.0,0.0,0.0,0.0,0.5,0.5,0.0,0.0,0.0,0.25,-0.3,0.77,1.7,0.0,-14.7,-1.7
2.54,10.0,5.0,11.5,15.5,13.0,7.5,9.0,5.5,4.75,2.5,5.5,1.25,3.5,-0.05,0.08,1.02,1848.39,10.8,29.7,0.0,0.0,0.75,0.0,0.0,0.0,0.0,0.5,0.5,1.0,0.0,0.0,0.25,-0.17,0.64,1.7,0.0,-2.6,-31.4
2.56,9.75,5.0,11.5,15.0,14.5,7.5,8.75,5.75,4.5,2.5,5.0,0.75,3.0,-0.05,0.08,0.95,1884.68,10.5,31.9,0.0,0.0,1.0,0.0,0.0,0.0,0.0,0.5,0.5,0.5,0.0,0.0,0.25,0.02,0.39,1.64,13.24,-9.2,-14.9
2.58,9.75,5.0,10.5,14.5,13.5,7.0,8.0,5.25,3.75,0.0,4.0,0.5,2.5,-0.11,0.14,0.95,1817.48,11.5,38.0,0.0,0.0,0.75,0.0,0.0,0.0,0.0,0.5,0.5,1.0,0.0,0.0,0.25,0.2,0.2,1.58,24.11,-2.6,-31.4
2.6,9.0,4.75,10.5,14.0,13.0,7.0,7.5,5.25,3.5,0.0,4.0,0.5,1.5,-0.11,0.14,0.89,1719.83,11.6,39.3,0.0,0.0,0.5,0.0,0.0,0.0,0.0,0.25,0.25,1.25,0.0,0.0,0.25,0.27,0.08,1.39,32.1,1.8,-43.8
2.62,9.0,4.5,9.5,14.0,13.0,6.25,7.0,5.25,3.25,0.0,3.0,1.25,2.0,-0.05,0.14,0.89,1603.96,11.3,38.1,0.0,0.0,0.5,0.0,0.0,0.0,0.0,0.5,0.25,1.25,0.0,0.0,0.25,0.33,-0.11,1.33,37.95,3.1,-43.4
2.64,8.25,4.0,9.5,13.0,13.0,6.25,6.5,5.25,3.0,0.0,4.0,1.25,2.0,-0.05,0.14,0.89,1496.32,10.9,35.7,0.0,0.0,0.75,0.0,0.0,0.0,0.0,0.25,0.25,0.0,0.0,0.0,0.25,0.27,-0.17,1.08,32.42,-16.2,-0.2
2.66,8.25,3.5,9.0,12.5,12.5,6.5,6.0,5.25,3.25,0.0,4.0,1.25,2.25,-0.05,0.14,0.89,1398.26,10.5,34.0,0.0,0.0,1.25,0.0,0.0,0.0,0.0,0.5,0.25,0.75,0.0,0.0,0.25,0.27,-0.36,0.95,35.67,-9.4,-11.6
2.68,7.75,3.75,8.75,12.5,12.5,6.5,6.0,5.25,3.75,0.0,4.0,1.25,2.5,-0.11,0.14,0.89,1332.38,10.2,32.7,0.0,0.0,0.75,0.0,0.0,0.0,0.0,0.5,0.25,0.5,0.0,0.0,0.25,0.33,-0.55,0.89,34.38,-5.6,-21.0
2.7,7.0,3.5,8.75,10.5,12.0,5.75,5.75,5.25,3.5,1.0,4.0,0.75,1.5,-0.11,0.14,0.95,1242.3,10.1,32.7,0.0,0.0,1.25,0.0,0.0,0.0,0.0,0.5,0.25,0.5,0.0,0.0,0.25,0.33,-0.67,0.77,38.14,-11.6,-5.9
2.72,6.5,3.5,8.0,10.5,10.5,6.75,5.5,5.5,4.0,2.0,4.75,1.25,2.75,-0.11,0.08,0.95,1158.74,8.6,24.4,0.0,0.0,0.5,0.0,0.0,0.0,0.0,0.5,0.25,0.75,0.0,0.0,0.25,0.33,-0.73,0.7,35.59,0.4,-36.3
2.74,7.5,3.5,8.75,12.5,12.0,7.0,5.75,6.0,4.5,1.25,5.0,2.25,3.5,-0.11,0.08,0.95,1189.99,9.0,24.1,0.0,0.0,1.25,0.0,0.0,0.0,0.0,0.5,0.25,0.75,0.0,0.0,0.25,0.33,-0.8,0.7,41.21,-9.4,-11.6
2.76,7.25,3.5,8.75,11.5,12.0,7.0,5.75,6.25,5.0,3.5,5.75,2.75,3.75,-0.11,0.08,0.95,1273.08,8.0,18.0,0.0,0.0,1.0,0.0,0.0,0.0,0.0,0.5,0.0,0.5,0.0,0.0,0.25,0.45,-0.8,0.64,39.55,-8.5,-9.9
2.78,7.25,3.5,8.5,12.5,11.5,7.0,5.75,6.5,5.25,3.5,5.5,2.75,4.25,-0.11,0.08,0.95,1351.78,7.9,17.2,0.0,0.0,0.75,0.0,0.0,0.0,0.0,0.5,0.0,0.5,0.0,0.0,0.25,0.58,-0.8,0.64,36.77,-4.8,-18.8
2.8,6.75,3.5,8.5,12.5,11.5,7.0,5.75,6.75,5.25,4.75,6.25,3.0,5.25,-0.11,0.08,0.95,1419.48,7.1,12.6,0.0,0.0,1.0,0.0,0.0,0.0,0.0,0.5,0.25,0.5,0.0,0.0,0.25,0.7,-0.73,0.7,36.4,-8.9,-12.7
2.82,6.5,3.5,8.5,12.5,11.5,7.0,5.75,7.0,5.25,4.75,6.0,3.0,5.25,-0.11,0.08,0.95,1468.7,7.0,12.4,0.0,0.25,1.0,0.0,0.0,0.0,0.0,0.0,0.0,0.25,0.0,0.0,0.5,0.77,-0.67,0.64,34.71,-15.4,6.2
2.84,6.5,3.5,8.25,12.0,10.5,7.0,5.5,7.0,5.25,5.25,6.25,3.0,5.25,-0.11,0.08,0.95,1484.21,6.8,10.7,3.75,0.25,0.25,0.0,0.0,0.0,0.0,0.75,0.0,2.0,0.0,0.5,1.0,2.27,-2.05,4.77,67.94,-9.8,4.3
2.86,6.5,3.5,8.0,10.5,10.5,7.0,5.5,7.0,5.25,6.0,6.25,4.5,5.25,-0.11,0.08,0.95,1488.31,6.3,6.7,5.25,0.75,2.75,1.25,1.75,0.0,0.0,0.75,0.5,0.75,0.0,0.25,0.5,0.33,1.08,2.64,134.17,-19.3,49.6
2.88,6.0,3.5,7.75,10.0,10.0,6.25,5.0,7.0,5.25,6.25,6.5,4.5,5.5,-0.11,0.08,0.95,1473.95,6.1,4.2,7.0,0.75,4.75,5.75,4.25,0.25,0.0,0.75,0.5,1.75,0.75,0.5,0.5,0.27,0.45,1.58,250.94,-17.0,45.8
2.9,5.75,3.5,7.5,9.75,9.25,5.75,4.25,7.0,5.25,6.25,6.5,4.75,6.0,-0.11,0.08,0.95,1445.7,5.9,1.7,7.75,1.75,7.25,8.5,7.0,4.5,1.5,1.75,0.0,1.5,0.5,0.5,0.0,-0.05,0.2,1.77,416.77,-13.3,51.1
2.92,4.5,3.5,6.5,8.0,9.0,5.75,3.75,7.0,5.25,7.0,7.0,5.5,6.0,-0.11,0.08,0.95,1398.47,4.6,-4.3,7.75,2.25,8.25,8.5,7.25,5.75,4.75,3.0,3.0,3.75,2.0,2.25,2.0,-0.3,-0.05,1.27,701.9,-10.5,26.0
2.94,4.25,3.5,6.0,7.75,8.5,5.25,2.5,7.0,5.0,7.5,7.0,6.5,7.0,-0.11,0.08,0.95,1354.52,3.9,-9.2,7.25,2.25,8.25,7.25,7.25,6.25,5.5,5.5,4.5,6.25,5.25,4.75,4.5,0.02,0.14,1.08,1035.15,-7.4,4.1
2.96,3.5,3.5,4.25,6.25,7.0,4.0,0.25,7.5,5.0,8.75,8.0,7.5,8.5,-0.11,0.08,0.95,1281.51,2.1,-21.5,7.0,2.5,7.5,7.0,7.5,6.75,6.25,6.5,4.5,6.5,6.0,4.5,5.5,0.02,0.02,1.08,1317.04,-6.2,1.1
2.98,3.0,3.25,4.25,5.75,5.75,3.75,0.0,7.5,4.25,8.75,8.0,8.0,8.75,-0.05,0.08,1.02,1182.52,1.7,-25.9,6.5,2.25,7.5,7.25,8.25,7.25,5.75,6.25,3.75,6.25,5.0,4.0,5.25,0.08,0.14,0.95,1438.04,-5.7,4.1
3.0,2.75,3.0,2.0,4.75,6.0,1.25,0.0,7.0,3.25,8.0,8.0,7.75,9.5,-0.05,0.08,1.08,1064.48,0.8,-33.0,6.0,2.25,7.25,7.0,8.25,7.0,5.5,6.0,3.75,6.0,5.0,3.5,5.25,0.08,0.14,0.95,1473.9,-5.6,4.1
3.02,1.75,3.0,2.0,2.75,3.75,1.25,0.0,5.75,2.75,7.5,7.0,7.75,8.75,-0.05,0.08,1.2,919.72,0.3,-40.4,5.75,2.0,7.25,6.75,7.5,6.75,5.0,5.75,3.0,5.75,5.0,3.5,4.75,0.02,0.14,0.95,1443.59,-5.8,4.2
3.04,1.75,2.75,2.0,0.0,0.0,1.25,0.0,5.25,2.5,7.5,6.5,7.75,9.5,-0.3,0.2,1.64,770.57,-0.6,-56.8,5.0,1.5,6.5,6.5,7.0,6.25,4.5,5.5,3.0,5.5,4.0,3.25,4.25,0.02,0.14,0.95,1360.46,-5.4,3.8
3.06,2.0,3.0,3.25,1.0,6.75,1.75,0.0,4.0,2.25,6.25,6.25,6.5,8.5,-0.3,0.27,1.64,684.42,0.9,-30.6,3.75,1.5,6.0,5.25,7.0,6.25,3.75,5.0,2.5,5.5,3.25,3.0,4.25,0.02,0.14,0.89,1223.93,-4.1,2.2
3.08,2.75,2.0,2.25,3.25,5.0,1.5,0.0,3.75,2.25,4.75,5.25,3.25,7.25,-0.23,0.39,1.83,589.05,1.8,-22.6,3.5,1.25,5.25,5.0,6.75,6.25,2.75,5.0,2.5,6.0,3.0,3.25,4.5,0.02,0.14,0.89,1065.8,-2.9,-1.6
3.1,2.75,2.25,2.0,0.0,4.25,1.5,0.0,3.0,2.25,2.25,4.25,1.5,5.25,-0.11,0.52,1.52,466.81,2.3,-16.4,2.75,1.0,4.25,4.75,5.5,6.0,2.0,5.0,2.5,6.25,4.0,4.0,5.25,0.02,0.14,0.89,922.18,-1.6,-11.6
3.12,2.0,1.75,2.0,0.75,3.75,0.0,0.0,2.25,1.75,0.5,3.0,0.25,3.5,0.45,1.7,0.64,337.55,5.6,-3.1,2.5,1.0,4.0,3.25,5.5,6.25,1.5,5.5,2.25,6.5,4.5,4.25,5.75,0.02,0.14,0.95,810.15,-0.2,-16.9
3.14,1.75,1.75,2.0,3.25,3.75,0.0,0.0,3.5,2.25,0.0,4.0,0.5,2.5,0.52,2.27,-0.67,273.3,7.0,1.6,2.5,1.0,4.0,2.5,5.5,6.25,1.5,6.0,2.5,7.25,5.0,5.5,6.25,0.02,0.14,0.95,750.48,0.1,-22.5
3.16,2.0,1.75,3.75,2.0,4.5,0.0,0.0,3.25,1.5,0.0,4.0,0.0,3.5,1.27,1.52,0.95,244.63,7.7,4.6,2.0,1.0,2.75,2.75,5.5,6.25,1.0,6.0,2.5,7.5,5.0,6.0,7.5,0.02,0.14,0.95,722.88,1.6,-28.3
3.18,2.75,2.5,2.0,4.25,2.25,1.25,0.0,2.0,1.5,2.0,2.75,1.25,1.5,0.7,1.14,0.95,245.02,8.1,10.4,1.75,1.0,1.5,2.5,5.25,6.25,1.0,6.5,2.0,8.0,5.5,6.25,8.0,0.02,0.14,0.95,722.88,3.1,-33.7
3.2,2.75,2.25,3.75,4.5,4.75,1.25,0.0,3.5,1.5,0.75,3.5,1.25,3.5,-0.05,1.14,0.64,287.25,7.2,8.3,1.75,1.0,1.5,2.5,5.25,6.25,0.75,6.75,1.75,8.25,5.75,6.5,8.25,0.02,0.14,0.95,744.0,3.3,-34.9
3.22,2.75,2.25,3.75,4.5,4.5,1.25,0.0,3.0,1.5,0.0,3.75,1.25,3.0,-0.05,1.02,0.64,326.33,8.6,11.9,1.5,1.0,1.75,2.5,5.25,6.25,0.5,7.25,1.75,8.75,5.25,6.75,8.75,0.08,0.14,0.95,779.16,3.7,-36.2
3.24,2.75,2.0,4.0,4.5,4.5,1.0,0.0,3.0,1.75,0.0,3.0,1.0,2.75,0.27,0.83,1.14,359.87,9.2,15.0,1.5,1.0,1.5,2.5,5.25,6.0,0.5,7.25,1.75,8.75,5.25,6.75,8.75,0.08,0.14,0.95,807.96,3.9,-36.9
3.26,2.75,2.0,2.25,4.5,4.75,1.25,0.0,3.25,1.5,0.0,2.75,0.0,2.75,0.14,0.7,1.33,367.71,6.7,17.8,1.5,1.0,1.5,1.25,5.25,6.25,0.25,7.5,1.5,9.0,5.0,6.75,9.0,0.08,0.14,0.95,830.54,4.8,-39.3
3.28,1.75,1.75,2.0,2.25,4.25,0.0,0.0,2.0,1.5,0.0,3.5,1.0,2.75,-0.05,0.58,1.52,344.9,7.4,2.2,1.5,1.0,1.5,1.75,4.5,6.25,0.25,7.5,1.5,9.0,5.0,6.75,9.25,0.08,0.14,0.95,846.43,4.6,-40.1
3.3,2.5,2.25,3.75,4.5,5.25,0.75,0.0,3.0,1.25,0.25,3.5,1.25,2.5,-0.11,0.33,1.58,359.57,8.7,14.4,1.5,1.0,1.5,1.0,3.5,5.75,0.0,7.5,1.25,9.0,5.0,6.75,9.5,0.08,0.14,0.95,841.67,5.0,-44.8
3.32,2.75,2.25,4.0,4.5,5.25,1.0,0.0,3.0,1.5,0.0,3.0,1.0,2.25,-0.11,0.2,1.52,385.29,9.3,19.2,1.25,1.0,1.5,0.0,3.75,6.0,0.0,7.5,1.25,9.0,5.0,7.0,9.5,0.08,0.14,0.95,830.39,5.7,-46.8
3.34,1.0,1.75,3.75,2.25,4.5,0.0,0.0,0.0,0.75,0.0,0.0,0.0,0.0,-0.17,0.08,1.39,345.18,15.8,59.8,1.25,1.0,1.5,2.0,2.25,5.25,0.0,7.5,1.25,9.0,5.0,6.5,8.75,0.08,0.14,0.95,806.63,4.6,-45.5
3.36,1.25,1.75,2.25,2.25,3.75,0.0,0.0,1.75,0.5,0.0,2.25,0.0,1.5,-0.23,-0.05,1.39,300.54,8.7,21.2,1.25,1.0,1.5,2.0,1.75,5.25,0.0,7.5,1.0,9.0,4.25,6.0,9.5,0.08,0.14,0.95,778.76,5.2,-46.6
3.38,2.75,1.75,2.25,2.25,3.75,0.75,0.0,1.75,1.25,0.0,2.5,1.25,1.5,-0.23,-0.11,1.27,275.88,9.5,16.1,1.0,0.0,0.25,0.0,1.25,4.5,0.0,7.25,0.5,8.25,4.0,6.0,8.75,0.08,0.08,0.95,707.85,7.9,-60.6
3.4,2.5,2.25,4.5,2.75,4.75,1.0,0.0,3.0,1.25,0.0,3.0,1.25,2.5,-0.23,-0.17,1.02,295.69,9.1,14.5,1.25,0.75,0.0,1.25,0.0,5.25,0.0,7.25,1.0,9.25,2.75,6.25,8.75,0.08,0.08,0.95,661.95,7.6,-56.3
3.42,2.75,2.0,3.0,4.5,5.25,0.75,0.0,3.0,1.5,0.5,3.0,1.0,2.75,-0.23,-0.23,1.02,334.45,7.7,13.4,1.25,0.75,1.25,0.5,0.0,5.25,0.0,7.75,0.75,9.25,3.0,6.25,9.5,0.08,0.08,0.95,636.32,7.0,-55.9
3.44,2.5,2.0,3.75,4.5,4.25,1.0,0.0,2.5,1.5,0.5,2.75,0.0,2.25,-0.3,-0.23,0.95,367.05,9.3,20.8,1.25,0.75,1.25,0.25,1.5,5.25,0.0,7.75,0.75,9.25,4.0,6.25,10.5,0.08,0.08,0.95,653.7,6.8,-54.1
3.46,2.75,2.0,2.25,4.5,4.5,0.75,0.0,3.0,1.5,0.75,3.0,1.0,2.0,-0.36,-0.3,0.83,384.92,7.6,13.4,1.25,0.75,1.25,0.75,1.75,5.0,0.0,7.75,0.5,9.5,4.0,6.25,10.5,0.08,0.08,0.95,680.58,6.5,-52.9
3.48,2.5,2.0,4.25,4.5,4.5,0.75,0.0,2.75,1.5,0.0,3.0,1.0,2.25,-0.42,-0.3,0.83,394.22,10.1,17.7,0.25,0.75,0.0,0.5,1.5,4.5,0.0,7.5,0.5,9.0,3.5,5.5,9.75,0.08,0.08,0.95,675.88,8.9,-59.4
3.5,2.5,2.0,4.0,4.5,4.5,1.0,0.0,3.0,1.5,0.0,3.0,1.0,2.25,-0.36,-0.36,0.83,403.93,9.4,17.0,0.25,0.75,1.25,0.5,1.75,4.0,0.0,7.5,0.5,8.75,2.75,5.0,10.5,0.08,0.14,1.08,660.7,7.9,-56.1
3.52,2.75,2.0,4.0,4.5,4.25,0.75,0.0,3.0,1.5,0.75,3.0,1.0,2.25,-0.36,-0.42,0.77,416.18,9.3,14.8,0.5,0.0,0.0,0.0,1.25,2.0,0.0,7.0,0.0,8.25,2.5,4.5,9.0,0.14,0.14,1.08,592.02,9.6,-68.1
3.54,2.75,2.0,3.75,4.5,4.5,0.25,0.0,3.0,1.5,1.0,3.0,1.0,2.25,-0.36,-0.42,0.7,420.26,9.3,13.8,0.25,0.75,0.0,0.5,1.25,3.0,0.0,6.0,0.0,8.5,1.25,5.25,10.5,0.27,0.08,1.14,554.11,9.7,-64.5
3.56,2.75,2.0,3.75,4.5,4.75,1.0,0.0,3.0,1.5,0.0,3.0,0.25,2.25,-0.55,-0.42,0.7,427.41,9.2,20.8,0.0,0.0,0.0,0.0,1.25,0.5,0.0,4.75,0.0,6.5,2.0,3.0,8.5,0.39,0.2,1.64,463.42,10.0,-75.1
3.58,2.75,2.0,3.75,4.5,4.75,0.0,0.0,3.0,1.25,0.0,3.25,0.0,1.75,-0.73,-0.42,0.77,422.89,10.7,23.6,0.0,0.0,0.0,0.0,0.0,0.25,0.0,2.75,0.0,5.75,0.75,2.0,8.0,0.39,0.33,1.95,372.25,11.6,-86.9
3.6,2.5,1.75,2.0,4.5,3.75,0.0,0.0,1.75,1.5,0.5,2.5,0.0,1.5,-1.61,-1.42,1.83,378.23,10.2,22.7,0.0,0.0,0.0,0.0,0.0,0.75,0.0,2.25,0.25,4.75,0.75,0.75,6.25,0.45,0.52,1.39,284.17,12.5,-80.4
3.62,4.25,2.0,3.25,5.5,4.25,0.0,0.0,3.0,1.5,1.25,3.0,0.0,2.0,-0.8,-1.67,0.83,377.67,10.6,22.1,1.25,0.5,0.0,0.0,0.0,0.0,0.0,1.0,0.5,3.5,2.25,0.5,4.0,-0.05,0.39,0.7,216.91,3.4,-61.5
3.64,2.75,1.5,3.75,6.0,4.5,0.0,0.0,1.5,1.25,0.0,2.5,0.0,1.5,-1.3,0.95,2.33,362.34,13.1,31.5,0.0,0.0,1.0,0.0,0.5,0.0,0.0,2.0,0.25,2.25,0.75,0.25,1.25,-0.3,2.58,-0.61,132.67,4.3,-46.2
3.66,0.0,3.5,5.75,8.0,4.25,3.0,0.0,1.75,1.75,1.0,2.5,0.75,1.5,-0.48,0.08,1.7,404.86,9.2,26.3,0.0,0.0,0.0,0.0,0.0,0.0,0.0,0.5,0.25,2.25,0.0,0.25,0.25,-0.61,2.02,1.27,47.14,12.0,-72.6
3.68,3.5,3.0,5.75,8.0,0.0,5.0,1.75,3.75,4.75,4.5,4.75,3.0,3.0,0.08,0.08,1.27,521.9,8.0,-0.4,0.25,0.0,0.5,0.0,0.0,0.0,0.0,0.5,0.5,1.0,0.0,0.25,0.25,-0.73,1.2,1.52,0.0,-2.6,-35.5
3.7,3.75,3.5,6.0,7.5,7.5,5.75,4.25,6.75,6.25,6.5,8.0,6.5,6.0,-0.11,0.08,1.2,815.45,4.7,-9.4,0.0,0.0,0.75,0.0,0.0,0.0,0.0,0.75,0.5,0.75,0.0,0.0,0.25,-0.17,1.39,0.83,0.0,-2.5,-28.4
3.72,3.75,3.5,6.0,6.5,8.25,5.75,4.5,7.5,6.25,6.5,8.75,6.5,6.75,-0.05,-0.11,1.08,1109.85,4.2,-11.4,0.0,0.0,0.75,0.0,0.0,0.0,0.0,0.5,0.25,0.75,0.0,0.0,0.25,-0.42,1.27,1.2,0.0,-3.5,-26.4
3.74,3.5,3.5,6.0,8.0,8.5,6.75,4.25,7.5,6.25,7.25,8.75,6.5,7.0,-0.11,0.08,0.95,1368.66,3.7,-10.6,0.0,0.0,0.5,0.0,0.0,0.0,0.0,0.5,0.5,0.75,0.0,0.0,0.25,-0.42,0.7,1.58,0.0,-0.8,-36.5
3.76,4.0,3.5,6.0,7.5,8.5,6.5,4.0,7.5,6.25,7.5,8.75,7.25,7.75,-0.11,0.14,0.95,1490.28,3.7,-12.6,0.25,0.0,0.0,0.0,0.0,0.0,0.0,0.5,0.5,1.5,0.0,0.0,0.25,-0.3,0.52,1.7,0.0,7.1,-52.6
3.78,3.75,3.5,6.0,6.5,8.5,6.0,3.75,7.5,6.25,7.5,9.0,7.5,7.75,-0.05,0.02,0.95,1543.99,3.6,-14.6,0.5,0.0,0.5,0.0,0.0,0.0,0.0,0.5,0.25,0.75,0.0,0.0,0.25,-0.3,0.39,1.52,0.0,-5.6,-13.4
3.8,3.25,3.5,5.75,6.5,8.0,5.75,3.0,7.5,6.25,7.5,8.75,7.75,8.25,-0.05,0.02,0.95,1544.5,3.2,-17.0,0.5,0.0,0.0,0.0,0.0,0.0,0.0,0.5,0.25,1.25,0.0,0.0,0.25,-0.3,0.27,1.27,0.0,4.4,-38.9
3.82,3.25,3.5,5.25,6.5,7.75,5.5,2.25,7.0,5.75,7.5,8.75,7.25,8.0,-0.05,0.08,0.95,1515.83,3.0,-16.9,0.5,0.0,0.0,0.0,0.0,0.0,0.0,0.5,0.25,0.75,0.0,0.0,0.25,-0.11,0.08,1.2,0.0,1.9,-30.6
3.84,2.75,3.5,5.75,6.5,7.0,5.25,1.25,6.75,5.25,7.0,8.5,7.25,8.0,-0.11,0.08,0.95,1462.03,3.1,-17.6,0.5,0.0,0.0,0.0,0.0,0.0,0.0,0.5,0.25,0.5,0.0,0.0,0.25,0.02,-0.05,1.2,8.54,0.2,-24.9
3.86,2.75,2.75,4.25,5.25,6.5,4.0,0.25,6.25,5.0,7.25,7.5,7.25,7.75,-0.05,0.08,0.95,1349.96,2.2,-22.8,0.5,0.0,0.0,0.0,0.0,0.0,0.0,0.5,0.25,0.5,0.0,0.0,0.25,0.2,-0.3,0.95,15.36,0.2,-24.9
3.88,2.25,1.75,4.25,4.5,6.75,3.0,0.0,6.25,4.5,6.25,7.75,7.5,8.5,-0.05,0.08,0.95,1209.56,2.0,-27.9,0.25,0.0,0.0,0.0,0.0,0.0,0.0,0.5,0.0,0.5,0.0,0.0,0.25,0.27,-0.42,0.77,20.46,7.7,-41.9
3.9,2.25,3.0,4.25,5.5,6.75,3.5,0.0,6.0,4.5,7.5,6.5,8.0,8.0,-0.11,0.08,0.95,1083.77,2.0,-23.6,0.5,0.0,0.0,0.0,0.0,0.0,0.0,0.5,0.25,0.5,0.0,0.0,0.25,0.33,-0.48,0.64,24.69,0.2,-24.9
3.92,2.5,3.0,4.0,4.75,6.75,3.5,0.0,6.25,4.5,7.5,7.0,8.0,8.75,-0.11,0.08,0.95,1002.85,1.6,-25.9,0.5,0.0,0.0,0.0,0.0,0.0,0.0,0.5,0.0,0.5,0.0,0.0,0.25,0.39,-0.67,0.7,24.16,1.9,-23.0
3.94,2.75,3.0,4.0,4.75,6.75,3.5,0.0,6.25,4.25,7.75,7.5,8.0,9.25,-0.11,0.08,0.95,969.55,1.6,-26.5,0.5,0.0,0.0,0.0,0.0,0.0,0.0,0.5,0.25,0.25,0.0,0.0,0.25,0.39,-0.67,0.7,24.45,-2.0,-17.6
3.96,2.75,2.75,3.75,4.75,6.5,3.5,0.0,6.25,4.25,8.75,7.75,8.5,9.5,-0.11,0.08,0.95,988.61,1.2,-29.4,0.5,0.0,0.25,0.0,0.0,0.0,0.0,0.5,0.0,0.5,0.0,0.0,0.25,0.39,-0.55,0.77,25.62,-3.2,-12.1
3.98,2.5,3.0,3.5,4.75,6.75,3.75,0.0,6.25,4.25,8.75,8.0,8.75,9.75,-0.11,0.08,0.95,1017.98,0.9,-29.9,0.5,0.0,0.0,0.0,0.0,0.0,0.0,0.5,0.0,0.5,0.0,0.0,0.25,0.33,-0.48,0.77,25.33,1.9,-23.0
4.0,2.5,3.0,3.0,4.5,6.75,3.75,0.0,6.75,4.0,8.75,7.25,8.75,10.5,-0.11,0.08,0.95,1043.14,0.2,-31.3,0.25,0.0,0.5,0.0,0.0,0.0,0.0,0.5,0.0,0.5,0.0,0.0,0.25,0.45,-0.42,0.83,26.63,-4.0,-15.5
4.02,2.75,2.75,2.5,4.75,6.75,3.75,0.0,7.0,4.0,9.5,8.0,8.75,10.5,-0.11,0.08,0.95,1080.24,0.0,-32.6,0.0,0.0,0.0,0.0,0.0,0.0,0.0,0.5,0.0,0.5,0.0,0.0,0.25,0.45,-0.36,0.83,24.89,15.7,-67.9
4.04,2.75,2.75,2.25,4.5,6.75,3.75,0.0,7.0,3.75,9.75,8.0,8.75,11.0,-0.11,0.08,0.95,1114.06,-0.4,-34.0,1.25,0.0,0.0,0.0,0.0,0.0,0.0,0.5,0.5,2.25,0.0,0.0,0.25,0.64,-0.36,0.89,40.74,0.0,-26.2
4.06,2.25,3.5,2.5,4.5,6.75,3.5,0.0,7.5,3.75,9.25,7.75,8.5,11.5,-0.11,0.08,0.95,1145.4,-0.4,-33.2,1.25,0.25,0.75,0.0,0.25,0.0,0.0,0.5,0.0,0.75,0.0,0.0,0.0,1.52,-1.42,1.58,51.93,-14.0,33.7
4.08,2.5,2.75,2.25,4.5,6.75,3.75,0.0,7.5,3.0,8.75,8.25,8.0,11.5,-0.11,0.08,0.95,1154.88,-0.7,-33.7,1.75,0.75,1.25,2.5,2.25,1.75,0.0,0.75,0.5,1.75,0.0,0.5,0.25,-0.05,-1.86,2.7,119.56,-5.7,27.8
4.1,2.75,3.5,2.0,4.5,5.75,5.25,0.0,7.75,3.75,9.75,8.0,9.0,11.5,-0.11,0.08,0.95,1188.1,-1.0,-33.8,3.0,0.5,2.75,2.75,5.25,3.25,0.0,2.25,1.25,3.5,0.5,0.75,0.0,0.14,-0.11,2.39,225.51,-4.0,21.8
4.12,3.0,3.0,4.0,4.75,4.75,3.75,0.0,7.75,3.0,9.5,7.75,8.75,11.0,-0.11,0.08,0.95,1183.8,0.5,-32.9,2.75,1.0,4.25,2.75,5.25,4.5,0.75,3.75,2.5,6.0,3.0,4.5,3.75,-0.11,0.33,1.08,384.23,-2.3,-12.4
4.14,2.75,2.75,2.25,3.0,6.5,3.5,0.0,7.75,3.0,9.75,7.5,8.75,9.5,-0.11,0.08,0.95,1150.26,-0.8,-34.7,3.0,1.0,4.0,2.75,5.25,5.25,2.25,5.0,3.0,7.0,6.0,5.5,6.25,0.08,-0.05,1.02,615.67,-1.5,-22.7
4.16,2.5,2.75,2.25,3.0,5.0,3.5,0.0,7.75,3.0,0.0,7.5,8.5,11.5,-0.11,0.08,0.95,1037.99,1.0,-33.4,3.25,1.0,4.25,2.75,5.25,5.75,2.5,5.5,3.0,7.0,5.25,5.5,6.25,-0.05,0.08,0.95,825.33,-1.4,-20.7
4.18,2.75,3.5,2.25,5.0,6.75,4.0,0.0,8.0,2.75,0.0,7.5,8.5,11.5,-0.11,0.08,0.95,974.87,1.4,-25.0,3.5,1.0,4.0,3.25,5.5,6.25,2.5,5.75,3.25,7.25,6.0,5.5,6.25,0.08,0.14,0.95,979.51,-1.3,-20.1
4.2,2.75,3.0,2.25,4.75,5.75,3.75,0.0,7.75,3.0,0.0,6.75,8.75,11.5,-0.17,0.08,0.95,906.35,1.5,-27.9,3.0,1.0,4.0,3.25,5.5,6.25,2.5,6.0,3.25,7.25,6.0,5.5,7.0,0.08,0.14,0.95,1063.15,-0.7,-22.3
4.22,3.0,2.75,2.25,4.5,6.0,2.5,0.0,7.75,2.5,0.0,6.5,8.0,11.5,-0.17,0.02,1.02,860.68,1.7,-27.8,3.0,1.0,3.75,3.0,5.5,6.25,2.25,6.0,3.0,7.25,6.0,5.75,7.5,0.08,0.14,0.95,1098.39,-0.3,-24.2
4.24,2.5,2.75,2.25,4.5,5.75,2.5,0.0,7.5,2.25,8.75,6.25,7.25,11.5,-0.17,0.08,1.08,877.93,-0.8,-34.3,2.5,1.0,4.0,2.75,5.5,6.0,2.0,6.0,3.0,7.25,5.25,5.5,7.5,0.02,0.14,0.95,1088.39,0.0,-24.5
4.26,2.25,2.0,1.75,4.25,3.0,1.5,0.0,6.5,2.25,8.5,5.75,6.5,10.5,-0.17,0.08,1.14,849.64,-0.8,-41.2,2.5,1.0,3.75,2.5,5.5,5.75,1.5,6.0,2.5,7.25,5.0,5.5,7.5,0.08,0.14,0.95,1051.34,0.4,-25.4
4.28,1.25,1.75,2.0,2.25,4.25,0.5,0.0,5.5,2.0,5.25,5.5,4.75,8.75,-0.36,0.27,1.64,754.6,-0.4,-39.5,2.0,1.0,2.5,2.5,5.25,5.25,1.0,6.0,2.5,7.25,5.0,5.75,7.5,0.08,0.14,0.95,983.57,1.5,-30.1
4.3,2.5,2.25,1.75,4.5,4.25,1.0,0.0,5.25,1.5,3.5,3.5,2.75,7.5,-0.67,0.52,2.02,633.69,1.2,-19.2,2.0,1.0,1.5,2.5,5.25,3.25,0.5,6.0,1.75,7.5,5.0,6.0,8.0,0.02,0.14,0.95,902.63,2.0,-35.9
4.32,2.5,2.25,2.0,4.5,4.25,1.25,0.0,3.75,2.0,2.0,3.75,1.5,6.0,-0.42,0.27,1.02,522.7,3.4,-8.9,1.5,1.0,1.5,2.5,3.0,5.0,0.25,6.0,1.75,8.0,5.0,6.0,8.0,0.02,0.14,0.95,820.64,3.2,-40.1
4.34,2.0,2.25,2.25,4.5,4.25,1.25,0.0,4.0,2.25,1.25,2.75,0.5,5.0,-0.05,1.45,0.33,431.26,3.7,-0.7,1.25,1.0,1.0,2.25,1.25,5.25,0.0,5.75,1.75,7.5,3.0,6.25,7.75,0.08,0.14,0.95,724.48,4.5,-44.7
4.36,0.75,1.75,1.75,0.5,3.0,0.0,0.0,1.75,1.5,0.0,1.5,0.5,3.0,-0.05,1.52,0.45,311.79,4.8,-3.3,1.25,1.0,1.25,0.25,3.25,5.25,0.0,6.5,1.5,7.75,5.0,6.0,8.75,0.08,0.14,0.95,680.39,5.1,-46.3
4.38,1.0,1.75,1.75,0.75,4.25,0.0,0.0,2.25,1.5,0.0,1.5,0.0,2.75,0.77,1.02,1.14,248.3,4.3,6.7,1.25,0.75,0.25,2.0,1.25,5.0,0.0,6.0,1.5,8.25,5.0,6.25,8.75,0.08,0.14,0.95,653.27,5.2,-51.5
4.4,1.0,1.75,1.75,0.0,3.75,0.0,0.0,2.0,1.5,0.0,2.0,0.0,2.0,0.2,1.2,0.83,184.46,5.3,6.4,1.0,1.0,0.25,0.5,1.25,5.0,0.0,6.0,1.0,8.25,3.75,6.25,8.5,0.08,0.08,0.95,631.8,6.8,-54.6
4.42,1.0,1.75,2.25,2.25,5.0,0.0,0.0,3.0,2.0,0.0,2.25,0.5,1.5,-0.05,1.08,0.7,176.38,6.5,12.3,0.5,0.0,0.0,0.0,1.25,3.75,0.0,6.5,1.0,8.25,3.75,6.25,8.75,0.08,0.08,0.89,600.17,8.1,-65.3
4.44,1.0,1.75,1.75,1.0,3.75,0.0,0.0,1.75,1.5,0.0,1.5,0.0,1.5,0.02,0.7,0.95,160.62,6.8,16.6,0.75,0.0,0.0,0.0,0.25,3.75,0.0,6.75,0.75,8.5,3.25,6.25,8.75,0.08,0.08,0.95,573.51,8.4,-67.8
4.46,1.0,1.75,1.75,0.0,3.75,0.0,0.0,2.0,1.5,0.0,2.0,0.0,1.5,-0.11,0.45,1.02,161.6,5.9,10.2,1.25,0.75,0.0,0.0,1.25,4.0,0.0,6.75,0.5,9.25,3.0,7.0,8.75,0.08,0.08,0.95,572.89,7.6,-60.1
4.48,1.0,1.75,1.75,0.0,3.75,0.0,0.0,2.0,1.5,0.0,2.25,0.0,1.5,-0.3,0.33,1.02,154.25,6.0,8.9,1.25,1.0,1.0,0.75,1.0,5.0,0.0,7.25,1.0,9.25,5.0,7.0,9.5,0.08,0.08,0.95,619.59,5.7,-54.6
4.5,2.5,2.25,1.75,2.0,3.75,1.25,0.0,1.75,2.0,0.75,2.25,0.0,1.5,-0.3,0.14,0.95,195.18,7.1,19.1,1.25,0.75,1.5,0.25,1.5,5.0,0.0,7.25,1.0,9.25,4.5,6.75,9.5,0.14,0.08,0.95,670.07,5.8,-53.6
4.52,0.75,1.25,3.0,0.75,4.5,0.0,0.0,3.0,1.5,0.0,2.5,0.0,1.5,-0.23,0.02,0.83,219.82,6.5,9.3,0.5,0.0,1.5,0.0,1.5,3.0,0.0,7.25,0.5,8.5,4.0,6.0,9.0,0.14,0.08,0.95,674.44,6.5,-61.5
4.54,2.25,2.0,2.25,2.5,4.75,1.0,0.0,3.0,2.0,0.0,3.0,1.0,3.25,-0.17,-0.05,0.77,274.18,5.8,5.0,1.25,0.0,0.0,0.0,0.0,3.0,0.0,6.75,0.5,8.25,0.75,6.0,8.5,0.14,0.08,0.89,618.41,9.1,-67.7
4.56,1.0,1.75,3.0,2.0,3.75,1.25,0.0,3.0,2.0,0.0,3.25,0.25,3.0,-0.17,-0.05,0.77,301.98,5.4,2.2,1.0,0.0,0.25,0.0,1.0,3.0,0.0,6.25,0.5,8.5,2.0,6.0,8.75,0.14,0.08,0.89,572.67,8.2,-65.0
4.58,2.5,2.0,3.0,4.5,4.25,0.75,0.0,3.0,2.0,0.0,3.0,0.25,2.75,-0.17,-0.05,0.77,353.45,8.4,14.9,1.25,0.5,0.25,0.0,0.0,2.75,0.0,6.5,0.5,9.0,2.0,6.25,9.0,0.14,0.08,0.95,543.98,7.8,-66.6
4.6,2.5,2.0,3.0,4.0,4.25,1.0,0.0,3.0,2.0,0.0,3.0,0.25,3.0,-0.17,-0.11,0.83,385.12,7.8,13.2,0.75,0.0,0.0,0.0,0.5,1.75,0.0,6.75,0.5,9.0,2.25,6.25,9.75,0.02,0.14,1.14,537.3,8.5,-73.2
4.62,1.0,1.75,2.25,1.0,3.5,0.0,0.0,2.75,2.0,0.0,3.0,0.0,1.5,-0.17,-0.11,0.83,358.29,7.0,6.0,0.75,0.0,0.0,0.0,0.5,1.75,0.0,6.25,0.5,8.5,1.5,5.75,9.5,0.2,0.08,1.02,528.65,8.9,-72.8
4.64,1.0,1.75,1.75,0.25,3.5,0.0,0.0,2.0,1.5,0.0,2.25,0.0,3.5,-2.92,-5.05,2.95,315.59,4.0,-4.5,0.5,0.0,0.0,0.0,0.0,0.0,0.0,5.25,0.25,7.5,1.75,4.75,8.75,0.27,0.14,1.14,486.71,8.6,-82.0
4.66,2.5,1.75,2.75,3.75,4.5,0.0,0.0,3.0,1.5,0.5,3.0,1.25,5.25,-1.05,-2.36,-0.17,329.5,6.2,-2.4,0.5,0.0,0.0,0.0,1.5,0.0,0.0,3.75,0.25,5.25,1.0,2.5,7.25,0.02,0.02,1.45,397.37,9.0,-70.6
4.68,0.0,1.5,2.5,0.0,4.5,0.0,0.0,3.25,1.5,0.0,2.75,0.0,3.0,-0.86,-0.61,1.83,310.62,2.5,-6.7,0.0,0.0,0.0,0.0,0.0,0.0,0.0,1.75,0.25,2.75,0.5,0.75,4.5,-0.55,0.45,1.33,282.2,11.4,-86.0
4.7,2.5,2.5,2.25,0.0,4.5,0.0,0.0,3.0,1.75,1.25,3.0,1.0,3.25,-1.98,-0.23,1.7,323.79,5.1,-2.7,0.5,0.0,0.0,0.0,0.0,0.0,0.0,0.5,0.75,3.75,0.0,0.75,2.25,1.14,0.83,0.39,184.21,7.8,-73.0
4.72,1.0,1.75,2.0,0.75,3.75,0.0,0.0,2.0,1.5,0.0,2.5,0.5,2.75,0.39,0.45,1.02,296.01,5.7,-0.5,0.25,0.0,0.0,0.0,1.75,0.0,0.0,2.25,0.5,2.0,2.0,0.25,2.25,-0.3,0.89,0.95,113.66,6.1,-48.1
4.74,2.5,2.0,3.0,1.25,4.5,0.0,0.0,3.25,1.75,2.0,3.5,1.25,3.75,1.45,2.58,-0.98,320.18,5.4,-6.2,1.25,0.75,0.0,0.0,0.0,0.0,0.0,0.5,0.5,3.5,1.5,0.75,2.25,0.08,0.77,1.08,83.55,1.4,-50.9
4.76,2.5,1.75,2.75,3.5,4.5,0.0,0.0,3.5,1.5,2.5,3.0,0.0,3.5,0.27,0.33,2.64,339.18,5.3,2.4,1.25,0.75,0.5,0.25,1.25,0.0,0.0,1.5,0.5,3.25,1.0,0.75,2.0,-0.36,1.02,0.77,88.86,0.8,-29.5
4.78,2.5,2.0,2.0,3.25,4.25,0.25,0.0,3.0,2.25,2.5,3.5,1.25,5.25,-0.23,-0.17,0.52,381.23,4.1,-10.6,0.0,0.0,1.25,0.0,1.25,0.0,0.0,0.5,0.0,0.0,0.0,0.0,1.0,-1.11,1.27,0.33,57.11,-5.1,5.4
4.8,1.0,1.75,3.25,2.0,4.25,0.0,0.0,3.0,2.0,2.0,3.0,0.75,4.75,-1.55,-0.3,0.27,392.14,4.0,-11.2,1.25,0.75,0.0,0.25,0.0,0.5,0.0,0.5,0.5,2.75,0.0,0.5,0.25,2.95,-4.98,3.02,38.46,0.0,-14.9
4.82,2.5,2.0,2.0,2.25,3.75,1.0,0.0,1.75,1.75,2.0,2.5,1.25,3.5,-1.61,-0.05,-0.05,387.87,5.1,-1.5,1.25,0.75,2.5,0.25,0.0,0.25,0.0,1.0,0.5,2.5,0.75,0.5,2.25,0.02,-2.92,-0.17,49.96,-6.2,-19.1
4.84,2.25,1.75,3.0,1.5,4.5,1.25,0.0,3.0,1.5,3.5,3.75,3.0,6.0,-0.8,0.2,0.83,414.51,2.5,-20.5,0.25,0.0,1.5,0.0,1.0,0.0,0.0,0.75,0.25,0.75,0.0,0.0,1.0,0.95,0.14,-0.55,48.54,-4.9,-5.1
4.86,1.25,1.75,2.0,3.25,2.5,1.0,0.0,2.5,1.5,5.75,4.0,5.5,7.75,0.45,-0.11,1.45,472.33,0.9,-39.5,0.75,0.0,0.0,0.0,0.0,0.0,0.0,0.5,0.5,1.25,0.0,0.0,1.0,2.77,0.45,0.39,45.83,2.9,-44.6
4.88,2.5,2.25,2.5,4.5,4.5,1.25,0.0,3.5,1.25,5.75,4.5,6.0,8.75,1.14,0.14,1.33,567.91,1.8,-28.7,0.5,0.0,0.0,0.0,0.0,0.0,0.0,0.5,0.5,2.75,0.0,0.5,0.5,1.33,1.52,-1.11,50.04,6.1,-59.6
4.9,1.0,2.25,2.25,2.25,4.75,0.0,0.0,2.75,0.5,5.5,5.0,6.0,9.5,1.08,-0.17,0.52,620.54,0.4,-40.7,1.25,0.0,0.0,0.0,0.0,0.5,0.0,0.75,0.25,3.5,1.0,4.5,2.75,0.7,-2.36,1.7,110.28,1.6,-72.7
4.92,1.0,1.75,2.25,2.0,3.75,0.0,0.0,3.75,0.0,6.25,3.75,7.0,9.0,-0.3,-0.23,0.7,660.89,-0.5,-46.1,1.25,0.5,0.25,0.0,0.25,0.25,0.0,0.75,0.0,3.5,1.25,4.5,7.5,-1.8,-0.11,4.52,190.29,3.4,-75.5
4.94,2.5,1.75,1.75,3.0,1.25,1.0,0.0,2.25,1.5,7.5,4.5,8.0,9.5,-0.36,0.02,1.33,676.63,1.0,-48.6,1.25,0.75,0.0,0.0,0.0,0.5,0.0,0.75,0.0,2.0,1.0,3.25,6.0,-0.8,0.39,4.58,232.93,3.1,-69.5
4.96,2.5,2.25,2.25,2.0,4.25,1.0,0.0,3.75,1.5,8.75,5.25,7.75,11.5,-0.17,-0.11,1.08,746.65,-0.4,-44.4,1.25,0.5,0.0,0.25,1.0,0.5,0.0,0.5,0.5,2.5,0.0,3.0,5.25,0.14,-0.36,0.64,251.42,3.3,-57.6
4.98,2.5,2.25,2.25,2.25,3.0,1.25,0.0,3.75,1.5,8.75,5.0,7.25,11.5,-0.48,-0.23,0.77,790.94,-0.5,-45.5,1.25,0.75,1.5,0.25,1.5,0.5,0.0,0.5,0.5,3.5,0.75,2.0,5.5,0.95,-1.48,0.77,262.26,0.6,-41.9
5.0,2.5,2.25,2.25,2.0,4.25,1.75,0.0,3.5,1.5,9.25,5.75,7.25,12.0,-0.3,-0.3,0.58,858.21,-0.8,-44.0,1.25,0.75,1.5,0.25,1.0,0.5,0.0,0.5,0.5,2.75,0.75,2.0,5.5,0.52,0.2,0.14,263.83,-0.1,-43.6
5.02,1.0,1.75,2.25,0.75,4.75,1.5,0.0,5.25,1.25,8.75,6.0,6.5,10.5,-0.55,-0.11,1.02,870.96,-2.5,-47.9,1.25,0.75,1.5,0.0,0.0,0.5,0.0,0.5,0.5,2.5,0.75,2.0,5.25,0.52,-1.23,0.08,261.06,-0.5,-50.9
5.04,1.25,2.25,2.0,1.25,0.5,0.0,0.0,4.5,1.0,10.0,5.5,7.25,11.0,-0.55,-0.05,1.27,849.65,-1.8,-60.4,1.25,0.75,0.5,0.25,0.0,0.5,0.0,0.5,0.5,2.5,0.75,2.25,4.75,-0.73,0.2,-0.73,250.28,1.1,-55.8
5.06,2.75,1.75,2.5,1.75,0.5,1.25,0.0,3.75,1.5,10.0,4.5,7.25,11.5,-0.3,-0.23,1.14,816.41,-0.7,-53.1,0.5,0.0,1.5,0.0,0.0,0.0,0.0,0.5,0.5,2.5,0.75,1.5,4.75,0.08,0.27,0.33,233.52,0.9,-66.8
5.08,1.25,1.75,2.25,0.0,3.75,0.0,0.0,5.0,1.0,9.75,5.0,6.5,12.0,-0.23,-0.36,1.08,789.16,-2.9,-55.7,1.25,0.25,1.0,0.5,0.0,0.5,0.0,0.75,0.5,2.75,0.75,1.5,4.0,0.52,0.08,2.02,222.64,0.2,-49.2
5.1,2.5,2.0,3.75,1.75,3.75,1.5,0.0,5.25,1.25,9.75,5.0,6.0,11.5,-0.48,-0.42,0.77,801.26,-0.7,-41.1,1.25,0.75,1.5,0.5,1.5,0.5,0.0,0.5,0.5,2.5,0.75,0.75,4.0,0.58,-0.3,2.95,213.36,-1.2,-25.6
5.12,2.5,2.0,2.25,2.0,4.5,1.25,0.0,5.0,1.5,9.75,4.75,6.25,11.5,-0.86,0.02,0.7,813.82,-1.6,-42.6,0.0,0.0,0.25,0.0,0.0,0.0,0.0,0.0,0.0,0.5,0.0,0.25,1.0,0.83,-1.05,2.14,150.28,4.8,-79.8
5.14,2.5,2.0,2.25,3.25,4.25,1.25,0.0,5.25,1.0,9.5,5.0,4.75,9.75,-0.73,-0.17,1.08,810.26,-1.1,-36.3,1.5,0.75,0.0,0.25,1.25,0.75,0.0,0.75,0.5,2.25,0.0,0.5,2.0,1.2,-0.92,2.77,125.9,2.2,-15.8
5.16,2.5,2.25,2.25,4.5,4.25,1.0,0.0,5.0,0.5,8.75,4.25,4.5,10.5,-0.42,-0.48,0.89,782.28,-0.7,-33.1,1.25,0.75,1.75,0.25,1.25,0.5,0.0,0.75,0.5,2.0,0.0,0.75,1.75,1.02,-1.3,1.64,116.63,-4.4,-5.9
5.18,2.25,2.0,1.75,3.75,3.75,1.25,0.0,4.25,0.5,8.25,4.0,2.0,9.75,-1.17,-1.05,0.58,704.63,-1.7,-31.6,1.5,0.75,1.75,0.25,1.5,0.5,0.0,0.75,0.5,2.0,0.0,0.5,1.25,1.45,-1.11,0.7,135.06,-5.6,4.5
5.2,1.0,1.75,2.25,2.25,4.25,0.0,0.0,3.5,0.0,6.25,2.5,1.25,8.0,-1.73,-1.98,0.77,578.79,-1.8,-30.0,1.5,0.75,1.75,0.25,1.5,0.5,0.0,0.75,0.5,2.25,0.75,0.5,1.25,1.2,-0.86,-0.3,148.18,-5.4,-1.7
5.22,1.0,1.75,1.0,2.25,3.75,0.0,0.0,3.0,0.0,5.5,2.75,0.25,7.0,-1.17,-1.23,1.39,455.85,-2.8,-29.2,1.25,0.75,2.0,0.25,1.25,0.5,0.0,0.75,0.5,2.0,0.25,0.5,1.25,0.58,-0.48,-0.67,158.28,-6.0,1.0
5.24,0.75,2.0,0.75,2.25,3.75,0.0,0.0,2.25,0.25,3.0,2.25,0.0,4.75,-1.48,-0.92,1.7,346.0,-0.8,-14.7,1.5,0.75,1.5,0.25,1.25,0.5,0.0,0.5,0.5,2.0,0.0,0.5,1.25,0.27,-0.17,-0.17,158.32,-5.6,2.9
5.26,0.0,0.0,1.75,0.0,1.25,0.0,0.0,2.25,0.0,0.0,1.75,0.0,1.5,-2.42,-1.73,1.52,230.89,2.6,-22.6,1.25,0.75,1.5,0.0,1.25,0.5,0.0,0.5,0.5,2.25,0.25,0.5,1.25,0.14,0.02,0.27,154.72,-4.2,-4.1
5.28,0.0,1.75,0.0,2.75,0.0,0.0,0.0,0.0,0.5,0.0,0.0,0.0,0.0,-0.86,0.77,1.89,119.6,15.1,63.0,1.25,0.75,1.5,0.0,1.5,0.25,0.0,0.5,0.5,2.0,0.25,0.5,1.25,0.08,0.33,0.45,153.95,-5.1,-1.7
5.3,2.5,2.5,2.0,2.75,1.25,0.25,0.0,2.25,0.5,0.5,3.0,0.0,3.0,-1.67,0.33,1.52,104.69,8.7,7.6,1.25,0.75,1.5,0.25,1.25,0.25,0.0,0.5,0.5,2.0,0.5,0.5,1.5,-0.11,0.52,0.27,155.54,-5.3,-5.9
5.32,1.25,2.25,2.25,2.25,4.25,0.0,0.0,2.0,0.0,0.0,3.0,0.0,2.75,-0.55,0.7,0.33,128.63,6.8,13.3,1.25,0.75,1.75,0.25,1.5,0.25,0.0,0.5,0.5,2.0,0.5,0.75,1.5,-0.36,0.45,0.08,161.52,-5.9,-5.1
5.34,2.0,0.0,3.25,4.5,0.0,0.0,0.0,0.0,0.0,0.75,0.0,0.0,0.0,0.02,0.64,-0.11,128.18,24.6,56.4,1.25,0.75,1.25,0.25,1.5,0.25,0.0,0.5,0.5,2.25,0.0,0.5,1.25,-0.48,0.27,0.14,163.52,-4.0,-1.8
5.36,0.0,0.0,0.0,0.0,0.0,0.0,0.0,0.0,0.0,0.0,0.0,0.0,0.0,-0.05,0.14,-0.17,64.12,0.0,0.0,1.25,0.75,1.25,0.25,1.75,0.25,0.0,0.5,0.5,1.75,0.0,0.25,1.25,-0.48,0.14,0.14,164.33,-4.6,6.1
5.38,0.0,0.0,0.0,0.0,0.0,0.0,0.0,0.0,0.0,1.75,0.0,0.0,0.0,-0.11,-0.11,-0.23,2.69,-15.6,-75.5,1.25,0.75,1.75,0.0,1.5,0.25,0.0,0.25,0.5,2.25,0.5,0.5,1.25,-0.36,0.02,0.02,156.55,-6.0,-2.6
5.4,2.0,2.0,3.0,3.0,4.25,0.25,0.0,2.75,0.5,1.25,3.0,0.0,2.5,-0.11,-0.23,-0.36,82.25,7.0,12.1,1.25,0.75,1.5,0.25,1.5,0.5,0.0,0.5,0.5,2.0,0.25,0.5,1.25,-0.36,-0.11,0.02,156.53,-4.8,0.4
5.42,1.5,2.0,2.75,2.75,4.25,0.25,0.0,2.5,1.0,1.75,3.0,0.0,2.5,-0.3,-0.48,-0.11,182.55,5.9,7.3,1.25,0.75,1.75,0.25,1.25,0.5,0.0,0.5,0.5,2.0,0.0,0.5,1.25,-0.3,-0.3,0.2,157.27,-5.7,2.2
5.44,1.75,2.0,2.75,2.75,4.25,0.25,0.0,2.75,1.25,0.0,3.0,0.0,2.25,-0.42,-0.73,0.2,271.6,7.9,14.5,1.25,0.75,1.25,0.25,1.25,0.5,0.0,0.5,0.5,2.25,0.0,0.25,1.25,-0.3,-0.36,0.27,155.56,-3.4,0.0
5.46,1.25,2.0,0.0,2.25,0.0,0.0,0.0,0.0,1.5,1.25,0.0,0.0,2.0,-0.36,-0.61,0.14,264.35,7.4,7.4,1.25,0.75,1.5,0.25,1.5,0.5,0.0,0.5,0.5,2.25,0.0,0.5,1.5,-0.23,-0.42,0.2,159.11,-3.8,-2.0
5.48,0.0,0.0,0.0,0.0,0.0,0.0,0.0,0.0,0.0,0.0,0.0,0.0,0.0,-0.3,-0.55,-0.05,193.54,0.0,0.0,1.25,0.75,1.25,0.25,1.75,0.25,0.0,0.5,0.5,2.0,0.0,0.5,1.25,-0.17,-0.42,0.2,158.23,-4.3,1.4
5.5,0.0,0.0,0.0,0.0,0.0,0.0,0.0,0.0,0.0,0.0,0.0,0.0,0.0,-0.23,-0.55,-0.11,95.83,0.0,0.0,1.25,0.75,1.25,0.25,1.25,0.25,0.0,0.5,0.5,2.0,0.5,0.5,1.25,-0.17,-0.48,0.27,157.17,-5.0,-4.9
5.52,0.75,1.75,0.0,2.0,0.0,0.0,0.0,0.0,0.5,0.5,3.75,0.0,0.0,-0.17,-0.55,-0.05,63.92,13.0,4.0,1.25,0.75,1.5,0.0,1.25,0.25,0.0,0.5,0.5,2.0,0.0,0.5,1.25,0.33,-0.98,0.58,153.15,-5.2,-1.5
5.54,0.0,0.0,0.0,0.0,0.0,0.0,0.0,0.0,0.0,0.0,0.0,0.0,0.0,-0.3,-0.55,0.27,15.8,0.0,0.0,1.25,0.75,2.25,0.0,0.5,0.25,0.0,0.5,0.5,2.0,0.5,0.5,1.25,0.77,-1.17,0.7,151.41,-8.7,-4.9
5.56,1.0,1.75,0.0,2.25,0.0,0.0,0.0,0.0,0.25,0.0,0.0,0.0,0.0,-0.36,-0.61,0.52,39.22,18.5,74.2,1.25,0.75,1.25,0.25,1.25,0.25,0.0,0.5,0.5,2.25,0.0,0.5,1.25,0.83,-1.3,0.89,149.54,-4.2,-3.3
5.58,1.0,1.75,1.75,2.0,3.5,0.0,0.0,1.75,0.25,0.0,1.75,0.0,0.5,-0.17,-0.55,0.27,103.98,8.8,30.6,1.25,0.75,1.5,0.25,1.25,0.25,0.0,0.5,0.5,2.25,0.5,0.5,1.25,1.02,-1.05,0.83,153.46,-5.3,-5.0
5.6,1.0,1.75,1.75,2.0,3.75,0.0,0.0,1.75,0.75,0.0,2.0,0.0,1.25,-0.23,-0.42,-0.11,165.81,7.7,20.9,1.0,0.0,1.25,0.0,0.5,0.0,0.0,0.75,0.0,0.5,0.25,0.0,1.25,1.27,-0.8,0.83,130.96,-7.9,-4.6
5.62,1.0,1.75,2.0,2.25,3.5,0.0,0.0,1.75,0.5,0.0,2.0,0.0,1.5,-0.36,-0.42,-0.17,200.52,8.1,20.4,1.0,0.0,1.5,0.0,0.25,0.0,0.0,0.0,0.0,0.5,0.0,0.0,0.25,1.27,-0.55,0.7,100.09,-22.5,38.3
5.64,1.0,1.5,2.0,2.5,3.75,0.0,0.0,1.75,0.5,0.0,1.5,0.0,1.5,-0.42,-0.36,-0.05,220.78,7.9,23.1,1.25,0.75,1.0,0.0,1.25,0.25,0.0,0.5,0.5,2.0,0.0,0.5,1.25,1.33,-0.3,0.58,98.61,-3.4,-4.9
5.66,1.0,1.5,1.75,2.25,1.25,0.0,0.0,1.75,0.75,0.0,2.25,0.0,1.5,-0.67,-0.36,0.08,231.88,9.7,9.6,1.25,0.75,1.5,0.25,1.5,0.5,0.0,0.5,0.5,1.75,0.0,0.5,1.25,1.2,-0.11,0.52,112.79,-5.2,4.0
5.68,1.0,1.75,2.0,2.25,3.75,0.0,0.0,1.75,0.75,0.0,2.0,0.0,1.5,-0.92,-0.36,-0.05,247.99,8.0,20.1,0.5,0.0,1.75,0.0,1.5,0.0,0.0,0.75,0.0,0.75,0.0,0.0,1.0,1.08,-0.11,0.52,113.49,-6.2,7.5
5.7,1.0,1.75,2.0,2.25,3.75,0.0,0.0,1.75,0.75,0.0,2.0,0.0,1.5,-1.11,-0.3,-0.17,265.04,8.0,20.1,1.25,0.25,2.25,0.25,1.75,0.5,0.0,0.5,0.5,1.5,0.0,0.25,0.5,1.02,-0.11,0.64,127.29,-9.1,18.9
5.72,2.5,2.25,2.0,4.5,3.5,0.25,0.0,1.75,1.25,1.25,3.0,0.0,2.25,-1.17,-0.23,-0.23,304.74,8.6,15.8,1.25,0.75,1.5,0.25,1.5,0.5,0.0,0.75,0.5,1.75,0.0,0.25,1.0,0.89,-0.11,0.64,137.07,-5.0,8.6
5.74,2.5,2.25,3.5,4.5,4.25,0.0,0.0,2.25,0.5,0.0,3.0,0.0,2.25,-1.36,-0.3,-0.23,340.73,10.8,24.5,1.25,0.75,1.5,0.25,1.25,0.5,0.0,0.5,0.5,1.75,0.0,0.25,1.0,0.77,-0.17,0.58,143.25,-5.8,8.5
5.76,2.5,2.0,2.0,4.5,2.5,0.25,0.0,2.0,1.5,1.25,2.75,0.0,2.25,-1.48,-0.3,-0.11,359.8,8.9,12.8,1.25,0.75,1.5,0.25,1.0,0.5,0.0,0.5,0.5,2.0,0.5,0.25,1.25,0.64,-0.17,0.52,149.0,-5.3,-1.5
5.78,2.25,2.0,3.25,2.25,3.75,0.0,0.0,2.25,0.75,0.75,3.0,0.0,2.5,-1.61,-0.23,0.02,364.08,8.9,13.1,1.25,0.75,1.5,0.25,1.25,0.5,0.0,0.5,0.5,1.75,0.75,0.25,1.0,0.52,-0.23,0.45,155.73,-6.2,2.6
5.8,1.0,1.75,2.0,2.25,2.25,0.0,0.0,1.75,0.5,0.0,1.75,0.0,1.5,-1.61,-0.17,0.08,312.46,9.1,18.8,1.25,0.75,1.25,0.25,1.5,0.5,0.0,0.5,0.5,1.75,0.5,0.5,1.25,0.45,-0.3,0.52,160.27,-4.6,-0.9
5.82,1.0,1.75,2.0,2.0,0.0,0.0,0.0,1.0,0.5,0.0,2.0,0.0,1.5,-1.61,-0.11,0.14,258.02,13.4,12.0,1.25,0.75,2.25,0.25,1.75,0.25,0.0,0.5,0.5,2.0,0.75,0.5,1.25,0.39,-0.3,0.52,171.02,-7.5,1.9
5.84,1.0,1.75,2.0,2.25,2.5,0.5,0.0,1.75,1.25,0.5,2.0,0.0,1.5,-1.55,-0.11,0.08,235.8,7.5,13.3,1.25,0.75,1.25,0.0,2.5,0.25,0.0,0.5,0.5,2.0,0.75,0.25,1.0,0.45,-0.36,0.52,178.4,-4.1,4.1
5.86,2.5,2.25,2.0,4.5,3.0,0.25,0.0,2.0,1.25,1.0,3.0,0.0,2.5,-1.36,-0.11,0.14,260.01,8.6,14.0,0.5,0.0,1.75,0.0,1.5,0.0,0.0,0.75,0.0,0.5,0.0,0.0,0.25,0.45,-0.36,0.52,153.26,-10.0,27.8
5.88,2.5,2.25,3.25,4.5,4.25,0.25,0.0,3.0,1.25,0.75,3.0,0.0,1.5,-1.23,-0.11,0.2,300.27,9.5,21.8,0.75,0.0,1.75,0.0,0.0,0.0,0.0,0.0,0.0,0.5,0.0,0.0,0.25,0.45,-0.36,0.52,111.65,-25.1,34.4
5.9,2.5,2.25,3.0,4.5,3.75,0.25,0.0,2.25,1.5,0.75,3.0,0.0,2.0,-1.05,-0.17,0.27,342.03,9.9,19.3,0.5,0.0,1.0,0.0,0.0,0.0,0.0,0.0,0.0,0.5,0.0,0.0,0.25,0.52,-0.3,0.52,69.56,-19.6,18.8
5.92,2.5,2.5,3.75,4.5,4.25,0.25,0.0,2.25,1.25,1.0,3.0,0.0,2.25,-0.86,-0.23,0.27,372.07,9.9,20.4,1.25,0.0,1.75,0.0,0.0,0.0,0.0,0.0,0.0,0.75,0.0,0.0,0.25,0.58,-0.3,0.52,50.31,-23.7,35.0
5.94,2.5,2.25,3.25,4.5,4.25,0.25,0.0,2.5,0.5,1.0,3.0,0.0,2.25,-0.73,-0.3,0.27,379.09,9.1,19.9,1.25,0.25,1.5,0.25,1.25,0.5,0.0,0.5,0.25,2.25,0.75,0.25,1.25,0.64,-0.23,0.52,71.78,-4.2,-7.6
5.96,2.5,2.25,3.25,4.25,4.25,0.25,0.0,2.25,1.0,0.5,3.0,1.0,2.25,-0.61,-0.3,0.33,380.41,9.7,16.1,1.25,0.75,1.5,0.25,1.5,0.25,0.0,0.5,0.25,1.5,0.75,0.5,1.25,0.7,-0.23,0.52,104.88,-6.5,0.7
5.98,2.25,2.5,3.5,4.5,4.25,0.0,0.0,1.75,1.25,1.0,3.0,0.5,2.75,-0.42,-0.42,0.39,387.27,9.8,15.6,1.25,0.75,1.5,0.25,2.25,0.25,0.0,0.5,0.5,1.75,0.75,0.5,1.25,0.83,-0.23,0.45,140.52,-5.4,2.2
6.0,2.5,2.5,3.25,4.5,4.25,0.25,0.0,2.5,1.25,1.0,3.0,0.25,2.25,-0.42,-0.48,0.33,398.16,9.2,18.0,1.25,0.75,1.5,0.5,1.5,0.25,0.0,0.5,0.5,2.0,0.75,0.5,1.25,0.83,-0.17,0.45,158.57,-5.9,-2.0
6.02,2.5,2.25,3.25,4.5,4.25,0.25,0.0,2.25,1.25,1.0,3.0,0.5,2.75,-0.42,-0.48,0.2,405.92,8.9,14.3,1.25,0.75,1.75,0.25,1.5,0.25,0.0,0.5,0.25,2.0,0.75,0.25,1.25,0.89,-0.17,0.45,167.37,-6.2,1.2
6.04,2.5,2.25,3.0,4.5,4.25,0.25,0.0,2.5,1.25,1.25,3.0,0.75,2.25,-0.48,-0.55,0.2,411.83,8.6,13.8,1.25,0.75,1.75,0.25,0.5,0.25,0.0,0.75,0.25,1.25,0.75,0.25,1.25,0.89,-0.23,0.45,161.03,-8.5,-0.1
6.06,2.25,2.25,3.25,4.5,4.25,0.25,0.0,2.25,1.25,1.25,3.0,0.5,2.5,-0.61,-0.55,0.2,405.29,8.7,14.0,1.25,0.75,1.5,0.25,1.5,0.25,0.0,0.5,0.25,2.0,0.75,0.25,1.25,0.83,-0.17,0.45,162.57,-5.4,-0.2
6.08,2.5,2.25,3.25,4.5,4.5,0.25,0.0,2.25,1.25,1.0,2.75,0.75,2.25,-0.73,-0.61,0.2,393.37,9.2,16.7,1.25,0.75,1.5,0.25,1.5,0.25,0.0,0.5,0.25,1.75,0.75,0.5,1.25,0.77,-0.17,0.45,166.14,-6.0,-1.0
6.1,2.5,2.25,3.0,4.5,4.5,0.25,0.0,2.25,1.25,1.0,2.75,0.5,2.75,-0.86,-0.55,0.14,385.14,8.5,15.1,1.25,0.75,1.75,0.25,1.5,0.25,0.0,0.5,0.25,1.75,0.75,0.25,1.25,0.7,-0.23,0.45,172.41,-6.7,2.9
6.12,2.5,2.75,3.5,4.5,4.25,0.25,0.0,2.0,1.25,0.75,3.0,0.5,2.5,-0.98,-0.55,0.08,384.61,9.9,18.7,1.25,0.75,1.75,0.25,1.0,0.25,0.0,0.5,0.25,2.0,0.5,0.25,1.0,0.58,-0.23,0.52,169.11,-7.2,2.9
6.14,2.5,2.75,3.5,3.75,4.25,0.0,0.0,2.25,1.0,0.5,2.75,0.75,2.25,-1.05,-0.48,0.08,378.93,10.2,19.1,1.25,0.75,1.5,0.25,1.5,0.25,0.0,0.5,0.25,1.75,0.75,0.5,1.0,0.52,-0.23,0.58,165.72,-6.5,1.6
6.16,2.5,2.5,3.5,4.5,4.25,0.0,0.0,2.25,1.25,1.0,3.0,0.75,2.25,-1.11,-0.42,0.08,379.39,9.9,16.5,1.25,0.75,1.5,0.25,1.5,0.25,0.0,0.5,0.25,1.75,0.75,0.5,1.0,0.52,-0.3,0.58,158.83,-6.5,1.6
6.18,2.5,2.25,3.5,4.5,4.25,0.25,0.0,2.25,1.0,0.75,3.0,0.75,2.0,-1.11,-0.36,0.08,377.3,10.0,18.4,1.25,0.75,1.75,0.25,1.5,0.25,0.0,0.5,0.25,2.0,0.75,0.5,1.25,0.58,-0.3,0.52,157.3,-6.3,-1.2
6.2,2.5,2.5,3.25,4.5,4.5,0.25,0.0,2.25,1.25,0.75,2.75,0.5,2.25,-1.17,-0.3,0.14,378.14,9.5,19.4,1.25,0.75,0.75,0.25,2.25,0.25,0.0,0.5,0.25,2.0,0.75,0.25,1.0,0.64,-0.3,0.45,157.59,-2.8,2.3
6.22,2.5,2.25,3.5,4.5,4.25,0.25,0.0,2.25,1.25,1.25,3.0,0.75,2.25,-1.17,-0.3,0.2,379.94,9.4,15.1,1.25,0.75,1.75,0.25,1.5,0.0,0.0,0.5,0.25,2.0,0.75,0.25,1.0,0.7,-0.3,0.45,157.8,-7.3,3.1
6.24,2.5,2.25,3.25,4.5,4.25,0.25,0.0,2.25,1.25,1.0,3.0,0.25,2.25,-1.05,-0.3,0.14,379.17,9.4,17.7,1.25,0.75,2.0,0.25,1.5,0.25,0.0,0.5,0.25,1.75,0.5,0.25,1.0,0.77,-0.3,0.39,158.0,-7.9,8.9
6.26,2.5,2.5,3.25,4.5,4.5,0.25,0.0,2.25,1.25,1.0,3.0,0.5,2.25,-0.98,-0.3,0.2,381.13,9.3,17.7,1.25,0.75,1.75,0.25,1.25,0.0,0.0,0.5,0.25,1.5,0.75,0.5,1.0,0.77,-0.3,0.39,155.38,-8.8,2.8
6.28,2.5,2.25,3.75,4.5,4.5,0.0,0.0,2.25,1.0,0.0,3.0,0.5,2.75,-0.92,-0.36,0.27,379.37,10.5,19.1,1.25,0.75,2.0,0.25,1.75,0.0,0.0,0.5,0.25,2.0,0.75,0.25,1.0,0.7,-0.3,0.45,158.21,-7.8,5.8
6.3,2.5,2.0,3.75,4.5,4.25,0.25,0.0,2.25,1.0,0.0,2.5,0.25,2.0,-0.8,-0.42,0.27,371.39,11.0,24.9,1.25,0.75,1.5,0.25,1.25,0.25,0.0,0.5,0.0,2.0,0.75,0.5,1.0,0.7,-0.3,0.45,155.22,-6.1,-0.7
6.32,2.5,2.0,3.25,4.5,4.25,0.0,0.0,2.25,1.25,1.0,3.0,0.75,2.25,-0.8,-0.42,0.27,368.63,9.6,14.6,1.25,0.75,1.25,0.25,1.5,0.25,0.0,0.5,0.25,1.75,0.75,0.5,1.0,0.64,-0.3,0.45,154.77,-5.7,0.1
6.34,2.5,2.25,3.5,4.5,4.5,0.25,0.0,2.25,1.0,0.75,3.0,0.5,2.5,-0.73,-0.42,0.27,370.86,9.5,17.5,1.25,0.75,1.75,0.25,0.0,0.25,0.0,0.25,0.0,1.75,0.75,0.25,1.0,0.45,-0.23,0.77,143.29,-10.0,-1.6
6.36,2.5,2.0,3.5,4.5,4.25,0.25,0.0,2.25,1.0,1.0,3.0,0.5,2.25,-0.8,-0.36,0.27,372.6,9.6,16.8,1.25,0.75,2.0,0.25,1.5,0.25,0.0,0.5,0.25,1.5,0.75,0.25,1.0,0.45,-0.17,0.7,145.54,-8.5,9.0
6.38,2.5,2.25,3.25,4.5,4.25,0.0,0.0,2.25,0.75,0.75,3.0,0.5,2.5,-0.86,-0.36,0.27,372.01,9.6,17.1,1.25,0.75,1.75,0.25,1.25,0.0,0.0,0.5,0.25,2.0,0.75,0.5,1.0,0.52,-0.17,0.64,145.66,-7.7,-0.8
6.4,2.5,2.0,3.5,4.5,4.5,0.25,0.0,2.25,1.0,1.0,3.0,0.75,2.25,-0.86,-0.36,0.2,374.02,9.4,16.0,1.25,0.75,2.0,0.25,1.25,0.0,0.0,0.5,0.0,1.75,0.5,0.5,1.0,0.52,-0.11,0.64,148.63,-8.9,5.3
6.42,2.5,2.0,3.25,4.5,4.25,0.25,0.0,2.25,1.0,0.5,3.0,0.0,2.0,-0.92,-0.36,0.27,367.57,10.0,21.7,1.25,0.75,1.5,0.25,1.25,0.25,0.0,0.5,0.25,2.0,0.75,0.25,1.0,0.52,-0.11,0.58,149.68,-6.2,1.0
6.44,2.5,2.0,3.25,4.5,4.5,0.0,0.0,2.0,1.0,0.0,3.0,0.25,2.25,-0.92,-0.36,0.27,360.87,10.7,21.8,1.25,0.75,1.75,0.25,1.5,0.25,0.0,0.5,0.0,1.75,0.5,0.25,1.0,0.52,-0.17,0.58,150.92,-7.0,8.8
6.46,2.5,2.25,3.5,4.5,4.25,0.25,0.0,2.25,1.0,1.0,2.75,0.5,2.25,-0.98,-0.42,0.27,362.1,9.6,18.3,1.25,0.75,1.5,0.25,1.5,0.0,0.0,0.5,0.0,1.75,0.5,0.5,1.0,0.52,-0.17,0.58,148.82,-6.9,3.8
6.48,2.5,2.25,3.5,4.5,4.5,0.0,0.0,2.25,1.0,1.0,3.0,0.5,2.25,-0.92,-0.42,0.27,367.64,9.7,17.7,1.25,0.75,1.5,0.5,1.5,0.0,0.0,0.5,0.0,2.0,0.5,0.25,1.0,0.52,-0.17,0.58,148.56,-6.6,6.0
6.5,2.5,2.5,3.75,4.5,4.5,0.25,0.0,2.5,1.25,0.75,3.0,0.5,2.25,-0.92,-0.42,0.27,377.84,9.8,18.8,1.25,0.75,1.5,0.25,1.75,0.0,0.0,0.5,0.0,1.75,0.75,0.25,0.75,0.45,-0.17,0.64,148.47,-7.2,9.2
6.52,2.5,2.25,3.75,4.5,4.5,0.25,0.0,2.0,1.0,0.75,3.0,0.75,2.25,-0.92,-0.48,0.27,383.64,10.2,18.5,1.25,0.75,1.5,0.25,1.5,0.0,0.0,0.25,0.0,2.0,0.25,0.25,1.0,0.45,-0.23,0.77,145.42,-6.8,7.9
6.54,2.5,2.25,3.75,4.5,4.25,0.25,0.0,2.25,1.0,0.75,3.0,0.75,2.25,-0.92,-0.48,0.27,386.65,10.1,17.6,1.25,0.75,1.75,0.25,1.5,0.0,0.0,0.5,0.25,1.75,0.75,0.5,1.0,0.45,-0.3,0.7,148.93,-7.9,2.3
6.56,2.5,2.5,3.75,4.5,4.5,0.0,0.0,2.25,1.25,1.0,3.0,0.25,2.25,-0.92,-0.42,0.2,386.19,10.0,19.5,1.25,0.75,1.0,0.25,1.25,0.0,0.0,0.5,0.25,1.5,0.5,0.25,1.0,0.52,-0.36,0.7,143.39,-6.2,3.1
6.58,2.5,2.25,3.75,4.5,4.5,0.0,0.0,2.0,1.0,0.5,2.75,0.0,2.0,-0.86,-0.42,0.2,378.93,11.0,24.9,1.25,0.75,1.5,0.25,1.0,0.0,0.0,0.5,0.0,1.75,0.5,0.25,1.0,0.52,-0.36,0.7,140.19,-7.6,3.7
6.6,2.5,2.25,3.25,4.5,4.5,0.0,0.0,3.0,1.0,0.5,3.0,0.0,1.5,-0.8,-0.36,0.2,373.6,9.9,23.5,1.25,0.75,1.75,0.25,1.25,0.25,0.0,0.5,0.0,2.0,0.75,0.25,1.0,0.52,-0.36,0.77,140.13,-6.8,3.4
6.62,2.5,2.25,3.5,4.5,4.5,0.25,0.0,2.25,1.0,1.0,3.0,0.5,2.0,-0.8,-0.36,0.2,373.18,9.7,19.0,1.25,0.75,2.0,0.25,1.5,0.25,0.0,0.5,0.0,1.75,0.75,0.5,1.0,0.58,-0.42,0.77,147.5,-7.9,5.4
6.64,2.5,2.0,3.75,4.5,4.5,0.0,0.0,2.25,1.0,1.0,3.0,0.25,2.25,-0.8,-0.36,0.2,373.92,10.0,18.5,1.25,0.75,2.0,0.25,1.25,0.5,0.0,0.5,0.0,2.0,0.5,0.25,1.0,0.58,-0.36,0.77,152.95,-6.8,7.4
6.66,2.5,2.5,3.75,4.25,4.25,0.0,0.0,2.0,1.0,0.5,2.75,0.5,2.0,-0.8,-0.3,0.2,371.91,11.0,22.5,1.25,0.75,1.5,0.25,1.5,0.25,0.0,0.5,0.0,2.0,0.75,0.25,1.0,0.58,-0.36,0.7,155.64,-5.7,3.4
6.68,2.5,2.25,3.5,4.5,4.5,0.0,0.0,2.0,1.25,0.5,3.0,0.5,2.25,-0.8,-0.36,0.2,371.21,10.5,19.4,1.25,0.75,1.75,0.25,1.25,0.25,0.0,0.5,0.0,2.0,0.75,0.25,1.0,0.58,-0.42,0.7,155.96,-6.8,3.4
6.7,2.5,2.25,3.5,4.5,4.5,0.0,0.0,2.0,1.0,1.0,3.0,0.0,2.0,-0.8,-0.36,0.27,367.58,10.2,21.8,1.25,0.75,1.5,0.25,1.25,0.25,0.0,0.5,0.0,1.75,0.75,0.25,1.0,0.58,-0.42,0.77,152.44,-6.6,4.0
6.72,2.5,2.25,3.5,4.5,4.25,0.0,0.0,2.0,1.0,1.0,3.0,0.0,2.25,-0.86,-0.36,0.33,365.4,10.1,20.2,1.25,0.75,1.5,0.25,1.5,0.5,0.0,0.5,0.0,1.75,0.5,0.5,1.0,0.64,-0.36,0.7,152.08,-5.6,5.2
6.74,2.5,2.5,3.75,4.5,4.5,0.25,0.0,2.25,1.0,0.0,3.0,0.0,2.0,-0.86,-0.36,0.33,365.19,10.9,26.1,1.25,0.75,1.5,0.5,1.75,0.25,0.0,0.5,0.0,1.5,0.75,0.25,0.5,0.64,-0.36,0.64,151.38,-7.9,16.4
6.76,2.5,2.5,3.75,4.5,4.5,0.0,0.0,2.25,1.0,0.5,3.0,0.0,2.0,-0.86,-0.42,0.33,367.89,10.7,24.1,1.25,0.75,1.5,0.25,1.25,0.25,0.0,0.25,0.0,1.75,0.75,0.5,1.0,0.58,-0.3,0.64,150.1,-7.2,2.1
6.78,2.5,2.25,3.75,4.5,4.5,0.0,0.0,2.0,1.0,1.0,3.0,0.0,2.25,-0.86,-0.42,0.33,370.16,10.3,20.9,1.25,0.75,1.5,0.25,1.25,0.5,0.0,0.5,0.0,2.0,0.75,0.5,1.0,0.45,-0.3,0.7,151.02,-5.4,0.0
6.8,2.5,2.25,3.5,4.5,4.5,0.0,0.0,2.25,1.0,0.75,3.0,0.0,2.25,-0.86,-0.42,0.33,371.06,10.0,20.9,1.25,0.75,1.0,0.25,1.0,0.25,0.0,0.5,0.0,2.0,0.75,0.25,1.0,0.39,-0.23,0.7,147.0,-4.5,-2.9
6.82,2.5,2.25,3.5,4.25,4.75,0.0,0.0,2.25,1.0,0.5,3.0,0.0,2.25,-0.86,-0.48,0.33,371.25,10.0,21.8,1.25,0.75,1.75,0.25,1.5,0.25,0.0,0.25,0.0,2.0,0.5,0.25,1.0,0.33,-0.23,0.77,146.78,-7.0,7.9
6.84,2.5,2.25,3.75,4.0,4.75,0.0,0.0,2.0,1.0,0.75,3.0,0.0,2.25,-0.8,-0.48,0.33,369.19,10.2,21.5,1.25,0.75,1.5,0.25,1.25,0.5,0.0,0.5,0.0,1.75,0.75,0.25,1.0,0.27,-0.17,0.77,145.28,-5.9,4.7
6.86,2.5,2.25,3.75,4.5,4.5,0.0,0.0,2.25,1.0,0.75,3.0,0.0,2.25,-0.8,-0.42,0.39,369.83,10.3,21.3,1.25,0.75,1.75,0.25,1.25,0.5,0.0,0.5,0.0,1.75,0.75,0.25,1.0,0.14,-0.11,0.77,148.3,-6.7,6.1
6.88,2.5,2.25,3.75,4.5,4.5,0.0,0.0,2.0,1.0,0.75,3.0,0.0,1.5,-0.86,-0.42,0.39,367.87,11.2,25.6,1.25,0.75,2.0,0.5,1.25,0.5,0.0,0.5,0.0,1.5,0.75,0.25,1.0,0.14,-0.05,0.77,151.92,-8.3,10.7
6.9,2.5,2.5,3.5,4.5,4.25,0.0,0.0,2.0,1.0,0.5,3.0,0.0,2.0,-0.8,-0.48,0.33,365.89,10.9,24.0,1.25,0.75,1.75,0.5,1.75,0.5,0.0,0.5,0.0,1.75,0.5,0.25,1.0,0.2,-0.11,0.77,157.4,-6.3,11.7
6.92,2.5,2.0,3.75,4.5,4.5,0.0,0.0,2.25,1.5,0.0,3.25,0.0,1.75,-0.73,-0.42,0.33,363.84,11.5,23.8,1.25,0.75,1.25,0.25,1.25,0.5,0.0,0.5,0.0,1.75,0.5,0.25,1.0,0.27,-0.11,0.83,154.11,-4.9,5.2
6.94,2.5,2.0,3.5,4.5,4.75,0.0,0.0,2.0,1.0,0.5,3.0,0.5,1.5,-0.73,-0.42,0.33,362.36,11.0,23.3,1.25,0.75,1.5,0.25,1.5,0.5,0.0,0.5,0.0,2.0,0.5,0.25,1.0,0.39,-0.17,0.7,154.01,-5.0,6.0
6.96,2.5,2.25,3.5,4.5,4.25,0.0,0.0,2.25,0.75,0.75,3.0,0.5,2.0,-0.73,-0.42,0.33,362.55,10.3,19.9,1.25,0.75,1.5,0.25,1.25,0.5,0.0,0.25,0.0,1.75,0.5,0.25,1.0,0.45,-0.17,0.7,149.04,-6.3,7.9
6.98,2.5,2.0,3.75,4.5,4.25,0.0,0.0,2.0,0.75,0.5,3.0,0.25,1.5,-0.73,-0.42,0.39,358.08,11.6,24.9,1.25,0.75,1.75,0.25,1.75,0.5,0.0,0.5,0.0,2.0,0.75,0.25,1.0,0.52,-0.17,0.7,154.08,-5.6,6.7
7.0,2.5,2.25,3.75,4.5,4.5,0.0,0.0,2.0,0.75,0.75,3.0,0.0,1.75,-0.73,-0.42,0.45,358.28,11.0,24.9,1.25,0.75,1.25,0.25,2.25,0.5,0.0,0.5,0.0,2.0,0.75,0.5,1.0,0.58,-0.11,0.64,159.35,-3.8,4.1
7.02,2.5,2.25,3.75,4.5,4.75,0.0,0.0,2.25,0.75,0.75,3.0,0.25,2.0,-0.73,-0.42,0.39,362.42,10.3,22.2,1.25,0.75,1.75,0.0,2.25,0.5,0.0,0.25,0.0,1.75,0.5,0.25,1.0,0.64,-0.11,0.58,163.07,-5.8,12.9
7.04,2.5,2.25,3.75,4.5,4.5,0.0,0.0,2.0,1.0,0.75,3.0,0.0,1.75,-0.8,-0.36,0.39,365.01,11.0,24.4,1.25,0.75,1.5,0.25,1.75,0.5,0.0,0.5,0.0,2.0,0.75,0.25,0.75,0.58,-0.17,0.64,163.41,-5.3,8.3
7.06,2.5,2.25,4.0,4.5,4.25,0.0,0.0,2.0,0.75,0.75,3.0,0.0,1.75,-0.8,-0.36,0.45,365.33,11.4,25.0,1.25,0.75,2.0,0.25,1.25,0.5,0.0,0.5,0.0,1.5,0.75,0.5,0.5,0.58,-0.17,0.7,158.95,-9.2,12.7
7.08,2.5,2.25,3.5,4.5,4.75,0.0,0.0,2.0,0.75,0.5,2.75,0.0,1.75,-0.8,-0.3,0.45,362.5,10.8,26.8,1.25,0.75,1.75,0.25,1.75,0.5,0.0,0.25,0.0,1.5,0.25,0.25,1.0,0.58,-0.11,0.83,154.69,-7.1,16.2
7.1,2.5,2.0,3.25,4.5,4.75,0.0,0.0,2.25,0.75,0.75,3.0,0.0,2.0,-0.86,-0.3,0.52,360.93,9.8,21.9,1.25,0.75,2.25,0.25,1.75,0.5,0.0,0.5,0.0,2.0,0.5,0.25,1.0,0.52,-0.11,0.83,157.82,-7.0,11.0
7.12,2.5,2.5,3.75,4.5,4.5,0.0,0.0,2.0,0.75,1.0,3.0,0.0,2.0,-0.86,-0.3,0.52,363.94,10.5,23.4,1.25,0.75,1.75,0.5,1.5,0.5,0.0,0.5,0.0,1.75,0.75,0.25,1.0,0.33,-0.17,0.89,159.88,-6.7,8.6
7.14,2.5,2.0,3.75,4.5,4.5,0.0,0.0,2.0,0.75,1.0,3.0,0.0,2.25,-0.92,-0.3,0.45,366.06,10.2,20.7,1.25,0.75,1.5,0.25,1.75,0.25,0.0,0.5,0.0,1.75,0.75,0.25,1.0,0.27,-0.23,0.95,160.17,-6.0,6.7
7.16,2.5,2.25,3.5,4.5,3.75,0.0,0.0,1.75,0.75,0.75,2.75,0.0,2.0,-0.92,-0.3,0.45,359.65,11.2,23.8,1.25,0.75,1.75,0.5,1.5,0.5,0.0,0.5,0.0,1.75,0.5,0.5,1.0,0.2,-0.3,0.95,161.04,-6.6,7.8
7.18,2.5,2.25,3.75,4.5,3.75,0.0,0.0,2.0,0.75,0.5,3.0,0.0,2.0,-0.86,-0.36,0.45,354.7,11.4,23.6,1.25,0.75,1.75,0.5,1.0,0.5,0.0,0.5,0.0,1.75,0.75,0.25,0.75,0.39,-0.55,1.2,156.62,-7.8,9.1
7.2,2.5,2.25,3.75,4.5,4.25,0.0,0.0,1.75,0.5,0.5,3.0,0.0,1.5,-0.8,-0.42,0.52,348.53,11.9,28.2,1.25,0.75,1.5,0.25,1.5,0.5,0.0,0.25,0.0,1.5,0.75,0.25,0.5,0.27,-0.3,1.02,150.24,-7.9,16.0
7.22,2.5,2.25,3.75,4.5,3.75,0.0,0.0,1.75,0.5,0.75,3.0,0.0,1.5,-0.73,-0.42,0.52,343.81,12.0,26.6,1.25,0.75,1.75,0.25,1.25,0.5,0.0,0.5,0.0,1.5,0.75,0.25,0.75,0.2,-0.05,0.77,145.73,-7.8,11.3
7.24,2.25,2.25,3.75,4.5,4.25,0.0,0.0,2.0,0.5,0.5,3.0,0.0,2.0,-0.67,-0.36,0.45,343.22,10.9,24.2,1.25,0.75,1.25,0.25,1.0,0.5,0.0,0.5,0.0,1.5,0.75,0.25,0.5,0.2,0.14,0.58,139.19,-7.0,10.5
7.26,2.5,2.25,3.5,4.5,4.25,0.0,0.0,1.75,0.5,0.75,3.0,0.0,1.5,-0.61,-0.3,0.39,342.87,11.4,26.9,1.25,0.75,1.5,0.5,1.25,0.25,0.0,0.5,0.0,1.75,0.5,0.0,0.5,0.27,-0.05,0.64,136.55,-7.9,17.4
7.28,2.5,2.25,3.5,4.5,4.75,0.0,0.0,1.75,0.5,0.75,2.75,0.0,1.75,-0.61,-0.17,0.39,346.52,10.8,27.1,1.25,0.75,1.75,0.5,1.5,0.25,0.0,0.5,0.0,1.5,0.75,0.25,0.5,0.39,-0.3,0.83,138.18,-9.0,16.5
7.3,2.5,2.25,3.75,4.5,4.25,0.0,0.0,1.75,0.5,0.5,3.0,0.0,2.0,-0.61,-0.17,0.39,348.01,11.4,25.5,1.25,1.0,1.25,0.5,1.25,0.25,0.0,0.5,0.0,2.0,0.75,0.25,0.25,0.7,-0.17,0.58,140.08,-7.2,13.7
7.32,2.5,2.25,3.75,4.5,4.5,0.0,0.0,1.75,0.5,0.75,3.0,0.0,1.75,-0.61,-0.17,0.39,351.52,11.2,26.1,1.25,0.75,1.75,0.5,1.0,0.5,0.0,0.5,0.0,1.75,0.5,0.25,1.0,0.52,-0.11,0.52,142.95,-7.2,8.1
7.34,2.5,2.25,3.0,4.5,4.5,0.0,0.0,1.75,0.5,0.5,3.0,0.0,2.0,-0.55,-0.17,0.52,349.19,10.4,24.7,1.25,0.75,1.5,0.5,0.0,0.25,0.0,0.75,0.0,2.0,0.5,0.25,0.75,0.45,-0.05,0.7,137.47,-7.7,-0.6
7.36,2.5,2.25,3.25,4.5,4.25,0.0,0.0,1.75,0.75,0.5,2.75,0.0,1.5,-0.48,-0.11,0.58,345.57,11.4,27.9,0.25,0.0,1.75,0.0,0.0,0.0,0.0,0.25,0.0,1.75,0.25,0.0,0.5,0.33,0.08,0.77,114.54,-8.5,-17.5
7.38,2.5,2.0,3.25,4.5,4.25,0.0,0.0,1.75,0.75,0.75,3.0,0.25,2.0,-0.42,-0.05,0.64,345.73,10.6,21.1,0.25,0.0,1.5,0.0,1.0,0.0,0.0,0.5,0.0,0.5,0.75,0.0,0.75,0.27,0.08,0.83,94.85,-8.1,-3.2
7.4,2.5,2.0,3.25,4.5,4.25,0.0,0.0,1.75,0.75,0.5,3.0,0.0,1.75,-0.55,-0.05,0.7,344.13,11.1,24.7,0.25,0.0,0.5,0.0,0.0,0.0,0.0,0.0,0.0,0.25,0.0,0.0,0.25,0.45,-0.17,1.2,57.29,-16.2,5.6
7.42,2.5,2.0,3.0,4.5,3.75,0.0,0.0,2.0,0.75,0.0,2.75,0.25,1.5,-1.17,-1.17,0.95,336.39,11.7,26.2,0.5,0.0,1.0,0.0,0.0,0.0,0.0,0.0,0.0,0.5,0.0,0.0,0.25,0.77,-0.11,1.02,36.3,-19.6,18.8
7.44,2.5,2.0,2.75,4.5,4.5,0.0,0.0,1.75,1.0,1.0,3.0,0.0,2.25,-1.05,-1.05,0.95,339.31,9.4,19.2,0.5,0.0,1.75,0.0,0.25,0.0,0.0,0.0,0.0,0.5,0.75,0.0,0.25,0.83,0.08,0.77,29.8,-20.0,12.4
7.46,2.5,2.0,3.0,4.5,4.25,0.0,0.0,1.75,0.75,0.75,3.0,0.75,2.25,-0.86,-0.05,0.52,343.23,10.0,17.0,1.25,0.75,0.75,0.5,0.0,0.5,0.0,0.0,0.0,2.0,0.0,0.5,0.25,0.83,0.14,0.58,48.27,-7.4,7.7
7.48,2.5,2.0,3.0,3.5,3.75,0.0,0.0,1.75,1.0,1.25,3.0,0.5,2.0,-0.8,0.08,0.64,341.41,9.8,14.6,1.25,0.75,1.5,1.25,1.25,0.5,0.0,0.5,0.0,2.0,0.5,0.25,1.75,0.58,0.02,0.45,93.76,-5.0,1.8
7.5,2.5,2.0,3.0,3.75,4.25,0.0,0.0,1.75,0.75,1.25,2.75,0.25,2.0,-0.8,0.08,0.83,339.75,9.5,18.6,1.25,0.75,1.75,1.0,0.25,0.25,0.0,0.0,0.0,2.0,0.75,0.25,1.75,0.2,0.02,0.52,124.2,-8.4,-4.5
7.52,2.5,2.0,3.0,3.75,3.75,0.0,0.0,1.75,0.75,1.25,3.0,0.0,2.25,-1.11,-0.17,1.08,335.31,9.6,16.8,1.25,0.75,1.5,0.75,1.25,0.5,0.0,0.25,0.0,2.25,0.75,0.5,2.0,-0.11,-0.11,0.77,154.39,-4.3,-7.6
7.54,2.5,2.0,2.75,3.5,4.25,0.0,0.0,1.75,0.75,0.75,2.75,0.0,2.25,-1.36,-0.05,0.52,329.39,9.4,19.6,0.75,0.0,1.75,0.0,1.5,0.0,0.0,0.75,0.0,0.5,0.0,0.0,0.5,0.08,0.02,0.7,144.08,-10.0,24.6
7.56,2.5,2.25,3.0,3.75,3.75,0.0,0.0,1.75,0.75,0.75,3.0,0.0,2.0,-1.36,0.02,0.08,325.81,10.4,20.9,1.25,0.75,0.5,0.75,0.0,0.25,0.0,0.0,0.0,2.25,0.0,0.25,1.25,0.33,0.08,0.89,136.48,-3.8,-8.6
7.58,2.5,2.25,2.75,3.5,4.5,0.0,0.0,1.75,0.5,1.25,2.75,0.25,2.0,-1.05,-0.05,0.14,327.76,9.0,19.5,1.25,0.75,2.5,0.5,1.0,0.25,0.0,0.25,0.0,2.25,0.75,0.5,2.0,0.7,0.02,0.7,148.08,-7.6,-5.5
7.6,2.75,2.25,3.0,3.25,4.25,0.0,0.0,1.75,0.0,0.5,3.0,0.0,2.0,-0.73,-0.11,0.33,324.43,10.4,24.6,1.25,0.75,1.75,0.5,1.25,0.5,0.0,0.5,0.0,2.0,0.75,0.5,2.0,0.45,0.33,0.39,166.4,-4.7,-6.8
7.62,2.5,2.0,2.25,3.75,4.5,0.0,0.0,1.75,0.75,1.25,3.0,0.0,2.5,-0.48,-0.17,0.33,326.95,8.0,15.4,1.25,0.75,2.0,0.5,1.0,0.25,0.0,0.0,0.0,2.25,0.75,0.5,2.0,0.58,0.02,0.64,178.69,-6.8,-7.7
7.64,2.75,2.0,2.5,4.0,4.25,0.0,0.0,1.75,0.75,0.75,3.0,0.0,2.25,-0.3,-0.23,0.45,329.06,9.5,19.8,1.25,0.75,2.0,0.5,1.0,0.0,0.0,0.5,0.0,0.75,0.75,0.0,2.0,0.33,0.33,0.45,178.39,-9.6,5.3
7.66,2.5,2.0,2.75,4.5,3.75,0.0,0.0,1.75,0.75,0.75,2.75,0.0,2.25,-0.42,-0.23,0.39,330.6,10.1,20.4,0.5,1.5,1.0,0.0,0.0,0.0,0.0,0.0,0.0,1.0,0.0,0.0,1.75,0.45,-0.05,1.64,151.02,-5.9,-2.0
7.68,2.5,2.0,2.75,4.0,4.25,0.0,0.0,1.75,0.75,1.25,2.75,0.0,2.5,-0.55,-0.11,0.52,332.56,8.9,17.2,0.5,0.0,0.0,0.0,1.0,0.0,0.0,0.5,0.0,1.5,0.0,0.25,0.75,0.27,0.45,1.52,113.09,5.9,-29.5
7.7,2.5,2.25,2.5,4.5,3.75,0.0,0.0,1.75,0.75,1.25,2.75,0.0,2.5,-0.8,0.02,0.64,336.41,9.0,17.6,1.25,0.75,0.25,0.25,0.0,0.0,0.0,0.75,0.0,1.5,0.25,0.5,3.0,-0.55,0.14,1.33,101.74,0.7,-39.0
7.72,3.0,2.25,2.25,3.75,4.5,0.0,0.0,1.75,0.75,1.5,3.0,0.0,3.0,-0.92,-0.05,0.83,345.27,7.9,14.4,1.25,0.75,1.5,0.5,1.25,0.25,0.0,0.5,0.0,2.75,0.25,0.5,2.75,-0.23,0.02,1.02,120.71,-2.0,-16.8
7.74,2.5,2.0,3.0,4.5,2.5,0.0,0.0,1.75,1.0,1.5,2.75,0.0,2.5,-0.8,0.02,0.77,342.04,10.1,14.0,1.25,0.75,1.25,0.25,1.25,0.25,0.0,0.5,0.0,2.75,0.25,0.5,2.25,0.27,0.14,0.7,143.79,-1.5,-16.0
7.76,2.5,2.25,3.0,4.5,3.75,0.0,0.0,1.75,1.0,1.5,2.75,0.0,2.5,-0.61,0.02,0.77,347.85,9.4,17.0,1.0,0.0,2.0,0.0,1.0,0.25,0.0,0.75,0.0,1.75,0.0,0.5,1.5,0.39,0.14,0.7,149.73,-5.0,-11.0
7.78,2.5,2.0,2.75,4.5,3.75,0.0,0.0,1.75,0.75,1.25,2.75,0.0,2.75,-0.42,0.08,0.7,346.43,9.1,15.9,1.0,0.0,1.25,0.0,1.0,0.25,0.0,0.5,0.0,2.25,0.0,0.5,2.0,0.02,0.08,0.89,147.14,-0.5,-25.8
7.8,2.5,2.0,3.0,4.5,3.75,0.0,0.0,1.75,1.0,1.25,3.0,0.0,2.75,-0.36,-0.05,0.77,350.34,9.4,15.0,1.25,0.75,1.5,0.0,1.75,0.5,0.0,0.75,0.0,3.5,1.0,2.0,3.75,0.02,0.14,1.08,172.73,0.0,-35.1
7.82,2.5,2.25,3.0,4.5,3.75,0.0,0.0,1.75,1.0,1.25,2.75,0.0,3.0,-0.36,0.08,0.7,353.0,9.2,15.4,1.25,0.75,1.5,0.25,1.0,0.5,0.0,0.75,0.0,3.5,0.75,2.0,4.0,0.02,0.14,1.02,196.33,0.0,-38.9
7.84,2.5,2.25,3.0,4.5,4.25,0.0,0.0,1.75,0.75,1.5,3.0,0.0,2.75,-0.42,0.08,0.58,360.26,8.9,16.3,1.25,0.75,1.5,0.25,1.5,0.25,0.0,0.5,0.0,3.75,0.25,2.0,4.0,0.08,0.08,0.95,223.59,0.0,-36.2
7.86,2.5,2.0,3.0,4.5,3.75,0.0,0.0,1.75,1.0,1.25,3.0,0.0,3.0,-0.42,0.02,0.58,360.42,9.2,13.8,1.25,0.75,1.25,0.25,1.25,0.25,0.0,0.75,0.0,3.5,0.75,2.0,4.5,0.08,0.08,0.89,240.66,0.6,-42.0
7.88,2.5,2.5,2.25,4.0,4.25,0.0,0.0,1.75,1.0,1.25,3.0,0.0,3.0,-0.3,0.2,0.58,359.87,8.0,14.1,1.5,0.75,1.5,0.25,1.75,0.5,0.0,0.75,0.5,3.75,1.0,2.25,4.75,0.08,0.08,0.89,260.13,-0.1,-37.8
7.9,2.5,2.0,3.5,4.5,3.75,0.0,0.0,1.75,1.0,1.0,2.75,0.0,3.0,-0.23,0.33,0.52,359.12,10.0,16.4,1.25,0.75,2.25,0.25,1.75,0.0,0.0,0.5,0.0,3.5,1.5,3.0,5.25,0.02,0.08,0.95,275.08,-2.0,-42.1
7.92,2.5,1.75,3.0,2.5,3.75,0.0,0.0,1.75,0.75,1.0,3.0,0.0,3.0,-0.42,0.52,0.52,343.59,8.7,10.5,1.25,0.75,1.75,0.25,1.5,0.0,0.0,0.5,0.0,3.75,2.0,3.25,5.25,0.08,0.08,0.95,287.34,-1.2,-48.0
7.94,2.25,2.0,3.0,4.5,3.75,0.0,0.0,1.75,0.75,1.25,3.0,0.0,2.75,0.08,0.39,1.7,340.77,9.1,14.8,1.25,0.75,0.0,0.25,1.25,0.25,0.0,0.75,0.0,3.5,1.75,3.25,5.25,0.02,0.08,0.95,287.85,2.6,-58.4
7.96,2.25,1.75,2.25,3.75,4.25,0.25,0.0,2.0,1.0,1.0,3.0,0.0,2.75,0.33,0.52,1.89,334.17,7.4,12.1,1.25,0.75,2.0,0.25,1.5,0.25,0.0,0.75,0.0,3.5,2.0,3.25,5.25,-0.05,0.08,0.89,292.19,-1.4,-45.4
7.98,2.5,2.0,2.25,2.5,3.75,0.0,0.0,3.0,1.25,2.0,2.75,0.25,3.5,0.08,0.08,1.14,338.32,5.3,0.7,1.25,0.75,0.25,0.25,1.25,0.25,0.0,0.5,0.0,3.5,2.0,3.25,5.25,-0.05,0.08,0.95,288.68,1.7,-57.2
8.0,2.5,2.0,2.25,4.5,4.5,0.0,0.0,3.0,1.5,2.0,3.0,0.0,3.5,-0.11,-0.05,0.95,354.54,6.0,6.2,1.25,0.75,0.75,0.25,1.75,0.25,0.0,0.75,0.0,3.5,2.0,3.25,5.5,0.02,0.14,0.89,290.03,1.1,-51.5
8.02,2.5,2.0,2.25,4.5,4.5,0.0,0.0,3.0,1.25,1.25,2.75,0.0,3.25,-0.11,0.14,0.95,367.45,6.6,10.6,1.25,0.75,1.25,0.25,1.75,0.25,0.0,0.75,0.0,3.5,2.0,3.25,5.25,0.02,0.08,0.89,287.24,0.0,-48.0
8.04,2.25,2.25,1.5,4.0,4.5,0.0,0.0,3.0,1.25,1.0,3.0,0.0,3.0,-0.11,0.14,0.95,368.34,5.8,9.5,1.25,0.75,1.0,0.25,1.5,0.0,0.0,0.75,0.0,3.5,2.0,3.25,5.25,0.02,0.14,0.95,282.88,0.1,-51.8
8.06,2.5,2.0,3.25,3.25,4.25,0.25,0.0,2.75,1.25,1.75,3.0,0.0,2.75,-0.11,0.14,0.89,369.46,7.4,10.3,1.25,0.75,1.5,0.5,1.75,0.0,0.0,0.5,0.0,3.5,2.0,3.25,5.25,0.02,0.08,0.95,282.82,-1.1,-46.3
8.08,2.5,2.0,2.5,3.0,4.75,0.25,0.0,2.5,1.25,1.5,3.0,0.0,3.25,-0.17,0.14,0.89,367.55,6.2,8.3,1.25,0.75,0.0,0.25,1.5,0.25,0.0,0.0,0.5,3.5,1.75,3.25,4.75,0.02,0.08,0.89,274.22,1.3,-55.4
8.1,2.5,1.75,2.25,3.0,4.75,0.25,0.0,3.0,1.5,1.75,3.0,0.25,3.25,-0.11,0.14,0.95,369.29,5.4,4.0,1.25,0.5,0.5,0.25,1.75,0.25,0.0,0.75,0.5,3.5,0.75,3.25,4.75,0.02,0.08,0.95,265.74,1.7,-50.8
8.12,2.25,2.0,2.75,1.75,4.75,0.25,0.0,3.0,1.5,1.25,3.0,0.0,3.5,-0.11,0.08,0.95,365.42,5.4,4.0,1.25,0.75,0.0,0.5,1.75,0.25,0.0,0.75,0.5,3.5,0.75,3.25,5.0,0.02,0.14,0.95,258.06,2.5,-51.1
8.14,2.25,1.75,2.5,2.75,4.5,2.75,0.0,3.0,0.75,0.0,3.0,0.0,0.0,-0.11,0.08,0.95,353.87,6.6,29.8,1.25,0.75,0.0,0.25,1.5,0.25,0.0,0.75,0.5,3.5,1.0,3.25,4.75,-0.05,0.14,0.95,254.02,2.5,-53.9
8.16,2.25,2.25,4.25,4.25,4.75,2.5,1.25,6.0,2.25,2.75,3.0,0.75,3.5,-0.11,0.08,0.95,412.6,4.1,3.2,1.25,0.0,0.0,0.25,1.25,0.25,0.0,0.75,0.5,3.5,1.5,3.25,4.75,0.02,0.14,0.89,251.07,2.8,-63.0
8.18,2.5,1.75,2.25,2.5,4.25,0.75,0.0,3.0,1.5,2.25,3.0,0.0,3.5,-0.11,0.14,0.95,408.07,4.2,1.0,1.25,0.5,0.0,0.25,1.75,0.25,0.0,0.75,0.5,3.5,0.75,3.25,5.0,0.02,0.08,0.89,250.87,3.0,-54.8
8.2,2.5,1.75,3.0,2.75,4.25,0.25,0.0,3.0,1.5,2.75,3.0,1.25,3.5,-0.11,0.08,0.95,421.97,5.5,-3.2,1.25,0.5,1.75,0.25,2.25,0.25,0.0,0.75,0.5,3.5,0.0,3.0,4.75,0.02,0.08,0.95,251.19,-0.2,-38.5
8.22,2.5,2.0,2.25,3.75,3.5,0.0,0.0,3.0,1.5,2.25,3.0,0.0,3.5,-0.11,0.08,0.95,395.78,5.9,2.1,1.25,0.75,1.5,0.25,1.5,0.25,0.0,0.75,0.5,3.5,1.75,2.75,4.75,-0.05,0.14,0.95,256.46,-0.8,-44.3
