time,left pressure 0[N/cm虏],left pressure 1[N/cm虏],left pressure 2[N/cm虏],left pressure 3[N/cm虏],left pressure 4[N/cm虏],left pressure 5[N/cm虏],left pressure 6[N/cm虏],left pressure 7[N/cm虏],left pressure 8[N/cm虏],left pressure 9[N/cm虏],left pressure 10[N/cm虏],left pressure 11[N/cm虏],left pressure 12[N/cm虏],left acceleration X[g],left acceleration Y[g],left acceleration Z[g],left total force[N],left center of pressure X[mm],left center of pressure Y[mm],right pressure 0[N/cm虏],right pressure 1[N/cm虏],right pressure 2[N/cm虏],right pressure 3[N/cm虏],right pressure 4[N/cm虏],right pressure 5[N/cm虏],right pressure 6[N/cm虏],right pressure 7[N/cm虏],right pressure 8[N/cm虏],right pressure 9[N/cm虏],right pressure 10[N/cm虏],right pressure 11[N/cm虏],right pressure 12[N/cm虏],right acceleration X[g],right acceleration Y[g],right acceleration Z[g],right total force[N],right center of pressure X[mm],right center of pressure Y[mm]
0.02,11.0,2.75,11.0,9.75,8.0,0.0,4.75,0.25,1.25,0.0,0.0,0.5,0.0,-0.11,0.64,1.33,957.69,22.0,62.5,1.0,0.75,1.75,2.25,2.75,6.5,2.25,6.75,1.75,8.5,7.25,6.5,8.25,0.08,0.08,0.95,806.37,3.1,-42.0
0.04,10.0,2.5,9.0,7.75,7.0,0.0,4.25,0.25,1.25,0.0,0.0,0.5,0.0,-0.17,0.77,1.58,778.97,21.9,62.3,1.0,1.0,1.0,2.25,4.25,6.5,2.5,6.75,2.0,8.5,7.25,6.5,8.25,0.08,0.08,0.95,855.32,3.4,-39.7
0.06,9.0,1.75,8.0,7.0,6.5,0.0,2.5,0.5,1.25,0.0,0.5,0.5,0.5,-0.42,0.77,1.64,608.37,20.7,56.9,1.75,1.75,0.0,3.0,4.75,6.75,3.0,6.75,2.5,8.25,6.75,6.25,8.25,0.08,0.08,0.95,908.42,3.1,-34.4
0.08,8.25,1.5,5.75,6.25,6.0,0.0,0.75,0.25,0.75,0.0,0.0,0.5,0.0,-0.3,0.64,1.52,462.79,20.5,63.4,1.5,1.75,2.0,3.0,5.0,7.25,3.25,6.75,2.5,8.25,6.5,6.0,8.0,0.08,0.14,0.95,941.84,2.0,-29.8
0.1,6.75,1.5,5.0,4.75,5.75,0.0,0.0,0.25,1.0,0.25,0.0,0.5,0.0,-0.17,0.7,1.45,360.35,19.1,60.3,1.75,1.75,3.25,3.25,5.25,7.25,3.75,7.0,2.5,7.75,6.5,5.5,7.75,0.08,0.14,0.95,969.25,0.8,-25.1
0.12,5.75,0.5,3.25,3.25,5.75,0.25,0.0,0.25,1.25,1.0,0.0,0.75,0.0,-0.36,0.45,1.64,281.56,15.6,49.5,2.0,1.75,3.25,4.5,6.25,7.5,4.0,6.75,2.5,7.5,6.25,5.25,6.5,0.08,0.14,0.95,991.71,0.1,-18.6
0.14,3.0,1.5,3.0,3.25,5.25,0.25,0.0,0.25,1.25,1.0,0.0,1.0,0.0,-0.48,0.08,1.52,227.52,13.2,43.8,2.0,1.75,3.5,5.25,6.75,7.75,4.25,6.75,2.5,6.75,6.5,4.0,6.25,0.08,0.14,0.95,1008.65,-0.3,-13.7
0.16,3.0,1.5,3.75,3.5,4.5,0.25,0.25,0.25,1.25,0.25,0.0,0.75,0.0,-0.67,-0.17,0.77,194.45,16.2,50.5,3.0,1.75,4.0,5.5,7.0,7.75,5.0,6.75,2.5,6.25,5.5,3.5,5.5,0.08,0.14,0.95,1024.51,-1.4,-7.2
0.18,2.0,1.5,3.75,4.0,5.75,0.5,0.5,0.5,1.25,1.0,0.5,0.75,0.5,-0.86,-0.73,1.2,202.28,11.8,37.5,3.5,1.75,5.5,7.25,8.0,7.75,5.5,6.5,2.5,6.0,4.75,3.0,4.5,0.08,0.14,0.95,1053.43,-3.2,1.8
0.2,1.0,0.0,3.5,1.75,5.75,0.25,0.5,0.5,0.75,0.0,0.5,0.0,0.5,-0.67,-0.23,1.02,174.53,11.5,41.1,4.0,2.0,5.75,7.5,8.25,8.0,5.75,6.0,2.5,5.25,4.75,2.75,4.25,0.08,0.14,0.95,1075.45,-4.0,5.8
0.22,1.75,1.5,1.75,3.5,4.25,0.75,0.0,0.0,1.25,0.5,0.0,1.0,0.0,-0.55,-0.23,0.58,179.57,11.3,42.8,4.5,1.75,6.75,9.0,8.75,8.0,6.0,6.0,2.5,4.25,4.0,2.25,3.0,0.08,0.14,0.95,1097.7,-5.6,14.0
0.24,1.0,1.5,3.25,3.25,5.75,1.0,0.0,0.25,1.25,0.75,0.25,1.0,0.5,-0.48,-0.17,0.64,197.35,9.5,35.3,5.75,2.0,7.25,9.75,9.5,8.25,6.5,5.75,2.0,4.0,4.0,1.5,2.5,0.08,0.14,0.95,1131.42,-6.6,20.6
0.26,1.25,1.25,3.5,3.25,5.75,1.5,0.5,0.5,1.25,1.25,0.25,0.75,0.5,-0.48,-0.11,0.83,230.94,8.8,33.7,5.75,2.25,8.0,11.0,9.5,8.25,6.75,5.0,1.75,4.0,3.75,1.25,2.5,0.02,0.14,0.95,1157.01,-7.5,23.8
0.28,1.0,1.5,3.5,3.0,5.75,1.75,0.25,0.25,1.25,0.0,0.25,0.0,0.0,-0.36,0.02,0.89,248.78,10.4,50.8,6.75,2.5,8.0,12.5,11.0,8.5,7.0,5.0,1.75,3.25,3.75,1.25,2.25,0.02,0.14,0.95,1219.25,-8.1,28.0
0.3,0.25,0.0,3.25,1.75,3.75,0.25,0.5,0.25,0.75,0.0,0.0,0.0,0.5,-0.3,0.02,0.89,229.96,13.0,41.3,7.5,2.5,8.75,12.5,11.0,8.5,7.25,4.25,1.25,2.75,3.5,1.25,1.25,0.02,0.14,0.95,1261.18,-9.4,33.4
0.32,1.0,1.25,0.75,3.25,2.5,1.5,0.0,0.25,1.25,1.25,0.0,1.0,0.0,-0.23,0.08,1.02,216.39,6.5,28.0,7.5,3.0,8.75,14.0,11.5,8.5,7.5,3.75,1.25,2.75,2.75,1.25,1.25,0.02,0.14,0.95,1305.14,-9.7,36.2
0.34,1.0,1.25,3.0,2.75,5.75,1.75,0.5,0.5,1.25,1.25,0.5,0.75,0.5,-0.17,0.14,1.08,230.42,7.2,30.5,8.25,3.25,9.5,14.5,12.5,8.5,7.5,3.25,1.25,2.5,2.75,1.25,1.25,0.02,0.2,0.95,1339.43,-10.4,38.5
0.36,0.25,0.0,3.5,1.75,5.75,0.25,0.5,0.25,1.0,0.5,0.5,0.75,0.5,-0.17,0.27,1.27,233.82,10.0,28.1,8.75,2.5,10.5,14.5,12.5,8.25,7.5,2.25,1.0,2.5,2.75,1.25,1.25,0.02,0.2,0.95,1362.41,-11.4,39.9
0.38,1.0,1.25,2.0,2.75,2.5,1.75,0.0,0.0,1.0,0.25,0.0,0.25,0.0,-0.17,0.33,1.39,227.71,10.6,48.3,9.0,0.0,11.0,0.0,13.0,8.0,7.5,2.5,0.75,1.5,2.75,1.0,1.0,-0.05,0.2,1.02,1242.0,-10.6,36.3
0.4,1.25,1.25,1.75,2.25,2.25,1.75,0.0,0.25,1.25,1.25,0.0,0.5,0.5,-0.23,0.52,1.45,218.18,7.4,28.8,9.5,2.5,10.5,15.0,12.0,7.25,7.25,1.0,0.5,1.5,2.5,0.0,0.75,-0.05,0.2,1.02,1220.0,-13.4,48.6
0.42,1.25,1.25,2.0,1.75,2.5,1.75,0.5,0.25,1.25,1.25,0.5,0.5,0.5,-0.36,0.58,1.45,212.07,7.9,25.5,11.0,4.25,10.5,16.5,13.5,7.5,7.0,0.5,0.75,0.0,2.25,0.5,0.5,-0.05,0.27,1.02,1239.61,-14.2,53.8
0.44,1.5,1.0,3.25,2.25,3.75,1.75,0.5,0.0,1.25,1.25,0.75,0.75,0.5,-0.42,0.64,1.64,227.26,10.0,28.6,10.5,4.0,12.0,14.0,12.5,6.5,6.5,1.25,0.5,0.0,2.25,0.0,1.25,0.02,0.33,1.02,1281.91,-14.6,52.4
0.46,1.5,1.0,3.5,1.75,3.75,1.75,0.25,0.25,1.25,1.25,0.0,0.75,0.5,-0.48,0.83,1.77,238.76,9.6,31.5,11.0,4.75,11.0,14.5,11.5,4.5,5.75,0.25,0.5,0.0,1.5,0.25,0.5,0.02,0.33,1.02,1265.88,-16.5,58.0
0.48,1.0,0.0,3.0,0.75,4.25,0.25,0.0,0.0,0.5,0.5,0.0,0.0,0.0,-0.36,1.02,1.64,222.0,12.8,49.2,13.0,5.5,12.0,15.5,11.0,5.5,5.25,0.75,0.75,0.0,1.5,1.25,0.75,0.08,0.39,1.14,1299.46,-16.4,55.4
0.5,1.0,0.25,1.0,2.0,1.75,1.5,0.0,0.25,1.25,0.0,0.0,0.5,0.0,0.2,1.45,1.58,193.72,8.9,35.5,13.0,5.5,12.0,13.0,9.5,5.0,4.25,0.0,0.75,1.25,0.5,1.0,1.0,0.08,0.45,1.27,1257.77,-16.8,56.2
0.52,0.25,0.0,1.5,1.0,2.25,0.25,0.0,0.0,0.5,0.0,0.0,0.5,0.0,0.77,1.77,1.52,151.69,12.2,37.7,13.0,4.5,10.5,9.75,7.5,3.25,3.0,0.5,0.25,0.0,0.75,1.0,0.75,0.08,0.64,1.39,1129.12,-18.8,59.5
0.54,0.75,0.0,1.5,1.0,1.75,0.25,0.0,0.25,0.5,0.0,0.0,0.5,0.0,1.2,1.95,1.39,120.3,14.1,37.7,12.0,4.75,8.75,7.25,5.5,3.25,2.25,0.75,0.25,0.0,0.0,1.0,0.75,0.39,1.02,2.02,953.99,-18.7,61.1
0.56,1.0,0.0,1.0,1.25,3.5,0.25,0.0,0.0,0.5,0.75,0.0,1.0,0.0,1.77,2.45,0.77,107.95,8.0,27.5,9.5,2.5,6.25,4.25,3.5,2.75,1.0,0.5,0.0,0.0,0.75,0.0,0.75,0.7,1.02,2.64,704.05,-18.9,61.4
0.58,1.0,0.75,1.0,2.0,5.25,0.25,0.0,0.25,0.5,1.25,0.0,0.0,0.5,1.7,3.08,0.08,133.4,4.9,37.0,7.5,1.75,2.0,3.0,0.5,2.0,0.0,0.0,0.0,0.0,0.25,0.25,0.0,0.39,0.58,2.14,432.13,-21.2,71.9
0.6,1.0,0.75,2.75,1.75,5.75,1.5,0.0,0.5,1.25,1.25,0.25,0.75,0.5,2.14,3.77,0.52,189.71,6.1,28.1,5.5,1.75,1.75,3.25,0.0,3.0,0.0,0.0,0.5,1.0,0.0,1.0,0.0,0.45,0.2,2.02,277.72,-15.1,50.4
0.62,1.25,0.0,2.75,0.0,5.5,0.25,0.0,1.0,0.5,0.25,0.5,0.75,0.5,-0.42,0.27,0.77,210.47,8.0,27.2,3.0,1.5,3.25,3.0,2.5,3.25,0.0,1.0,0.25,1.25,1.5,1.0,0.0,0.89,-0.61,1.77,210.1,-9.7,32.7
0.64,0.25,0.0,1.0,1.75,3.75,1.75,0.0,1.25,0.75,3.25,1.25,5.25,5.5,0.33,-0.23,1.08,265.39,-2.0,-42.7,1.75,1.5,2.25,3.0,0.5,3.25,0.0,0.75,0.0,0.0,1.5,0.75,0.0,1.33,-1.05,2.52,136.36,-10.3,36.1
0.66,1.25,0.25,1.5,1.75,4.75,1.25,0.0,3.0,1.25,6.75,3.5,7.25,7.5,-0.05,0.77,3.89,368.17,-1.3,-46.4,0.75,0.0,1.25,0.75,0.0,3.25,0.0,0.75,0.25,0.0,0.25,0.0,0.0,0.58,-1.05,1.08,59.65,-1.4,33.9
0.68,1.25,0.0,1.5,1.75,1.75,2.75,0.0,3.75,2.0,8.25,6.25,7.5,8.25,-0.05,0.45,1.2,525.22,-1.9,-56.3,0.25,0.0,0.5,0.0,0.0,0.75,0.0,0.0,0.25,0.0,0.5,0.0,0.0,0.45,-0.36,0.89,0.0,-9.1,14.7
0.7,1.0,0.0,3.0,0.0,3.0,1.75,0.0,5.5,2.0,7.5,6.0,7.75,8.25,0.14,0.2,1.2,675.58,-1.5,-55.3,1.0,0.0,0.5,0.0,0.5,0.5,0.0,0.0,0.0,0.0,0.5,0.0,0.0,0.33,-0.48,0.27,0.0,-15.0,44.6
0.72,1.0,0.0,1.0,0.0,1.75,2.5,0.5,5.5,2.0,2.75,6.0,7.75,8.25,-0.05,0.08,0.95,735.36,-1.9,-60.9,0.0,0.0,0.25,0.0,0.5,1.0,0.0,0.0,0.25,0.0,0.5,0.0,0.0,0.33,-0.36,0.45,0.0,2.1,13.0
0.74,1.5,1.25,0.25,0.25,1.75,2.75,0.25,5.75,2.25,0.0,5.5,7.75,8.25,-0.11,0.08,0.95,721.12,-1.1,-53.2,0.0,0.0,0.5,0.0,0.5,1.0,0.0,0.0,0.0,0.0,0.5,0.0,0.0,0.33,-0.48,0.95,0.0,-0.5,23.0
0.76,1.0,0.0,1.0,0.0,2.5,2.75,0.75,5.5,2.25,7.25,5.5,7.75,8.25,-0.11,0.08,0.95,726.69,-3.4,-59.1,0.0,0.0,0.0,0.0,0.5,1.0,0.0,0.0,0.0,0.0,0.5,0.0,0.0,0.27,-0.3,1.2,0.0,9.1,13.2
0.78,0.25,0.0,3.5,1.0,5.75,3.0,1.75,6.5,2.5,7.25,6.5,7.75,8.75,-0.11,0.02,0.95,792.41,-1.3,-44.5,0.0,0.0,0.25,0.0,0.5,1.0,0.0,0.0,0.0,0.0,0.25,0.0,0.0,0.27,-0.05,0.95,0.0,5.4,29.9
0.8,0.0,0.0,1.0,0.25,2.25,4.0,1.25,6.75,3.5,8.75,6.5,7.75,8.5,-0.11,0.02,0.95,844.99,-4.4,-59.5,0.0,0.0,0.0,0.0,0.5,1.25,0.0,0.25,0.0,0.0,0.25,0.0,0.0,0.27,0.27,0.95,0.0,13.5,19.2
0.82,0.0,1.5,1.5,4.0,3.5,4.5,1.25,6.5,3.75,9.0,6.5,8.5,8.25,-0.05,0.02,0.95,926.38,-2.0,-43.3,0.0,0.0,0.5,0.0,0.5,1.25,0.0,0.0,0.25,0.0,0.25,0.0,0.0,0.33,0.33,1.27,0.0,1.2,27.0
0.84,0.25,0.0,0.75,2.5,5.25,4.0,1.75,6.5,3.5,7.75,6.0,7.75,7.5,-0.11,0.02,0.95,933.24,-3.0,-45.1,0.0,0.0,0.5,0.0,0.25,1.25,0.0,0.0,0.0,0.0,0.25,0.0,0.0,0.33,0.45,1.39,0.0,2.5,30.9
0.86,0.5,0.25,2.5,4.5,5.75,5.25,2.25,7.25,3.75,8.75,7.0,7.75,8.25,-0.11,0.02,0.95,985.96,-1.4,-36.6,1.0,0.75,0.5,0.0,0.5,3.25,0.0,0.0,0.5,1.25,0.25,1.0,0.0,0.33,0.64,1.64,42.64,1.3,10.6
0.88,2.0,0.0,3.5,4.5,5.75,5.75,2.5,7.0,4.25,8.75,6.5,7.75,8.25,-0.11,0.02,0.95,1009.05,-0.1,-31.8,0.75,0.75,1.75,0.5,1.25,3.25,0.5,0.5,0.5,1.5,2.0,1.0,0.0,0.39,0.83,1.77,115.75,-3.4,4.7
0.9,2.0,1.0,3.75,4.75,5.75,6.0,3.0,7.0,4.5,7.75,6.5,7.0,7.5,-0.11,0.02,0.95,1042.56,0.6,-26.1,0.75,0.0,2.0,0.0,1.25,3.25,0.5,0.5,0.5,1.5,2.0,1.0,0.0,0.58,1.02,1.95,169.63,-3.0,-1.8
0.92,2.25,1.5,4.25,5.5,5.25,6.0,3.75,7.25,4.5,7.75,6.5,7.0,7.0,-0.05,0.02,0.95,1076.2,1.6,-22.9,1.0,0.25,2.0,0.75,1.25,3.0,0.75,0.5,0.5,1.0,2.5,0.75,0.75,0.7,1.45,2.14,207.51,-5.0,0.5
0.94,2.75,1.5,4.5,6.25,7.25,6.75,3.75,7.25,4.75,7.0,6.0,6.0,6.5,-0.05,0.02,0.95,1124.65,1.9,-14.9,1.0,0.75,2.0,0.0,1.25,3.25,0.5,0.75,0.5,1.5,2.0,0.75,0.5,0.64,1.83,1.89,224.51,-3.0,2.4
0.96,2.75,1.5,5.0,7.25,7.25,7.0,4.0,7.25,4.5,6.5,5.25,5.25,5.75,-0.05,0.08,0.95,1154.19,2.5,-9.7,1.0,0.75,1.75,0.75,1.25,3.25,0.75,0.5,0.5,1.25,1.5,1.0,0.75,0.02,2.33,1.7,234.12,-3.6,5.3
0.98,2.75,1.5,5.5,8.0,8.5,7.25,4.75,7.0,4.5,5.75,4.5,4.25,4.75,-0.05,0.08,0.95,1163.83,3.2,-2.2,1.0,0.75,2.0,0.75,1.25,3.25,0.5,0.5,0.5,1.0,2.5,1.0,1.0,-0.8,2.83,1.08,240.68,-4.4,0.5
1.0,2.75,1.5,5.75,9.5,8.5,7.25,4.75,6.5,4.5,4.75,4.0,3.75,3.25,-0.05,0.08,0.95,1145.7,4.4,4.7,1.0,0.75,2.0,0.75,1.0,3.25,0.5,0.5,0.5,1.0,2.5,1.0,1.0,-1.55,3.45,0.2,245.41,-4.6,-0.4
1.02,3.5,1.5,6.0,11.5,9.0,7.5,5.0,6.5,4.25,4.75,3.25,2.5,2.75,-0.05,0.08,0.95,1143.13,5.1,12.2,0.0,0.0,0.5,0.25,0.0,2.0,0.0,0.0,0.5,1.0,0.25,0.75,0.0,-2.23,4.08,-0.11,203.21,3.7,-16.2
1.04,3.75,1.75,6.5,12.5,9.75,7.75,5.25,6.25,3.75,4.0,3.0,2.5,1.5,-0.05,0.08,0.95,1151.18,6.1,18.7,1.25,0.5,1.75,0.5,0.0,2.75,0.0,0.0,0.0,0.0,1.0,0.0,0.75,-2.17,2.83,2.33,173.73,-7.8,28.2
1.06,4.5,2.0,7.25,14.0,12.5,8.0,5.0,5.5,3.0,3.25,2.0,2.25,1.25,-0.05,0.08,0.95,1188.39,6.9,27.3,0.0,0.0,1.0,0.0,1.25,1.0,0.0,0.0,0.0,0.75,0.25,2.0,0.75,0.45,-0.48,0.45,134.35,-1.5,-28.6
1.08,5.0,2.0,8.0,14.5,12.5,8.0,4.75,5.5,2.75,2.75,2.0,2.25,1.5,-0.05,0.08,0.95,1235.86,7.5,28.8,0.0,0.0,1.0,0.5,1.25,3.0,0.0,0.5,0.0,3.0,2.75,4.0,5.0,-0.42,-0.61,-0.05,182.94,3.9,-55.9
1.1,5.75,3.0,8.25,15.5,14.0,8.0,5.75,4.75,2.0,2.75,2.0,2.25,1.5,-0.05,0.14,0.95,1301.18,8.2,32.8,0.0,0.0,0.0,0.5,0.25,2.25,0.0,0.75,0.25,6.0,3.25,6.0,7.75,-0.8,1.02,1.83,256.27,6.1,-79.3
1.12,6.25,1.75,8.25,17.0,14.0,8.25,5.5,3.75,1.75,2.5,1.0,1.25,1.25,-0.05,0.14,0.95,1326.66,8.8,38.2,0.0,0.0,0.5,0.5,0.25,2.75,0.0,3.5,1.25,8.75,6.5,7.75,8.0,0.08,0.58,3.2,393.3,4.7,-73.2
1.14,6.5,1.75,8.0,15.5,14.0,8.0,5.75,3.75,1.25,0.5,0.0,0.75,1.0,-0.05,0.14,1.02,1309.41,9.5,45.2,0.5,1.0,0.75,0.0,0.0,5.5,0.75,6.0,1.5,9.25,7.75,7.5,9.25,0.02,0.39,1.33,586.73,5.2,-61.9
1.16,7.5,3.25,8.25,19.0,16.0,8.0,5.25,2.5,1.25,2.75,0.5,1.75,1.25,-0.11,0.14,1.08,1345.7,9.5,42.4,0.0,1.5,1.75,1.5,1.25,5.75,1.0,6.75,1.25,9.0,7.75,7.5,9.0,0.14,0.14,0.95,772.01,4.0,-51.6
1.18,7.5,1.5,10.0,18.0,16.5,7.0,5.25,2.5,1.25,2.5,0.5,1.0,0.5,-0.11,0.2,1.14,1360.53,10.6,45.0,0.5,1.5,1.75,1.5,1.5,6.0,0.0,6.75,1.5,8.75,7.5,7.5,8.75,0.14,0.08,0.95,896.12,4.0,-49.5
1.2,8.5,1.75,10.5,16.0,16.0,0.0,5.5,2.0,1.25,1.0,1.0,1.25,0.75,-0.11,0.2,1.08,1333.51,15.2,48.0,0.0,1.5,1.25,1.5,1.25,6.0,1.0,6.75,1.5,8.75,7.5,7.25,8.75,0.08,0.08,0.95,959.14,4.5,-51.5
1.22,9.0,3.25,11.0,15.5,14.0,3.5,5.0,0.5,1.25,2.0,0.5,0.75,0.5,-0.17,0.27,1.14,1297.81,14.6,51.5,0.0,1.75,2.0,1.75,1.25,6.25,1.25,6.75,1.75,8.75,7.25,6.5,8.75,0.08,0.08,0.89,983.9,3.8,-47.1
1.24,9.0,1.75,12.0,17.0,14.5,3.0,3.75,1.75,1.25,1.75,0.75,0.5,0.5,-0.17,0.27,1.2,1264.87,14.6,50.0,0.5,1.5,1.75,2.25,1.5,6.5,1.5,7.0,1.75,8.5,7.25,6.5,8.25,0.08,0.08,0.95,989.48,3.5,-44.2
1.26,9.75,1.5,11.0,14.0,12.0,1.75,1.25,0.25,1.25,1.5,0.0,0.25,0.5,-0.23,0.39,1.27,1143.17,16.6,55.6,0.0,1.75,1.75,2.75,2.25,6.5,2.0,7.25,1.75,8.25,7.25,6.0,8.25,0.08,0.08,0.95,991.05,3.5,-41.1
1.28,11.0,2.5,11.0,11.5,12.0,0.25,0.75,1.5,1.25,0.0,0.0,0.5,0.5,-0.36,0.52,1.39,1032.74,18.0,58.6,0.75,1.75,1.75,3.0,2.75,7.0,2.0,7.25,1.75,8.25,6.75,6.0,7.75,0.14,0.08,0.95,971.21,3.1,-36.4
1.3,10.0,2.0,8.25,10.0,7.75,0.5,0.25,1.75,1.25,1.25,0.75,0.5,0.5,-0.42,0.83,1.7,871.49,17.2,51.5,1.0,0.5,1.75,3.0,4.75,7.25,2.25,7.25,1.75,7.75,6.5,5.25,7.75,0.14,0.08,0.95,942.71,3.4,-33.3
1.32,8.0,1.5,6.0,6.5,6.0,0.0,0.0,0.25,1.25,0.0,0.0,0.5,0.0,-0.48,1.02,2.58,654.1,20.2,61.9,1.0,1.75,2.0,3.0,5.0,7.25,2.75,7.25,1.75,7.5,6.5,5.25,6.75,0.08,0.08,0.95,898.89,2.5,-27.6
1.34,5.75,0.5,4.25,4.75,5.75,0.0,0.0,0.0,1.0,0.75,0.0,1.0,0.0,-0.42,0.39,2.58,446.07,17.6,52.1,1.75,1.75,3.25,3.25,5.75,7.5,3.0,7.25,2.5,7.5,6.0,4.25,6.5,0.08,0.14,0.95,886.9,1.2,-20.3
1.36,4.25,0.0,3.75,0.0,6.25,0.25,0.0,1.0,1.0,0.0,0.5,0.25,0.0,-0.67,0.33,2.52,294.77,14.4,48.7,0.25,1.75,3.25,5.0,6.75,7.75,2.25,7.25,2.5,7.25,6.0,4.0,6.0,0.08,0.14,0.95,883.11,1.6,-17.9
1.38,1.75,1.5,2.25,2.75,4.5,0.75,0.0,0.0,1.25,0.5,0.0,0.75,0.0,-1.05,-0.55,1.89,205.13,11.6,45.1,0.0,1.75,3.75,5.25,7.0,7.75,3.75,6.75,2.5,6.25,6.0,3.25,5.5,0.08,0.14,0.95,886.52,0.6,-13.3
1.4,2.25,1.25,4.25,0.0,5.75,1.0,0.0,0.0,1.25,1.0,0.5,0.75,1.0,-1.11,-0.23,2.89,151.19,10.6,31.9,1.5,1.75,4.0,6.75,7.75,8.0,4.25,6.75,2.5,5.75,4.75,2.75,4.25,0.08,0.14,0.95,906.72,-0.9,-2.5
1.42,1.75,1.25,3.75,2.5,5.75,1.0,0.0,0.0,1.25,1.25,0.75,0.5,0.5,-0.98,-1.61,1.52,153.49,10.5,35.5,2.25,1.75,5.5,7.25,8.25,8.0,4.25,6.25,2.5,4.75,4.5,2.75,3.5,0.08,0.14,0.95,934.74,-2.9,4.5
1.44,1.75,1.5,3.0,3.0,5.0,1.75,0.0,0.0,1.25,0.0,0.5,0.75,0.5,-0.67,-0.48,1.02,166.22,10.6,41.6,2.5,1.75,5.75,9.0,9.0,8.0,4.75,5.75,1.75,4.25,4.25,2.0,2.75,0.08,0.14,0.95,962.33,-3.9,12.2
1.46,1.5,1.25,3.0,2.0,5.75,1.75,0.0,0.25,1.25,1.0,0.0,0.75,0.5,-0.48,-0.48,0.33,178.29,7.7,35.9,2.25,2.5,6.5,9.25,9.5,8.25,5.0,6.0,1.75,4.25,3.75,1.5,2.5,0.08,0.14,0.95,995.84,-4.2,16.2
1.48,0.75,0.0,0.75,0.0,2.5,0.25,0.0,0.0,0.75,0.0,0.0,0.0,0.0,-0.42,-0.36,0.33,122.82,9.0,46.7,5.0,2.5,7.0,11.0,9.75,8.25,5.5,5.25,1.75,3.75,3.75,1.25,2.25,0.08,0.14,0.95,1056.03,-6.5,23.5
1.5,0.75,0.0,2.0,0.25,2.25,0.25,0.0,0.0,0.5,0.0,0.25,0.5,0.5,-0.42,-0.3,0.64,87.19,13.1,27.3,5.75,2.75,7.5,12.0,11.0,8.5,5.75,5.0,1.0,3.5,3.25,1.25,1.75,0.08,0.14,0.95,1126.0,-7.2,29.0
1.52,0.25,0.0,3.0,0.25,5.75,0.25,0.0,0.5,1.25,0.0,0.5,0.75,0.0,-0.42,-0.3,0.83,83.71,9.0,30.1,6.25,2.75,8.0,12.5,11.5,8.5,5.75,4.0,1.25,3.25,3.25,1.25,1.5,0.02,0.14,0.95,1192.1,-8.2,31.8
1.54,1.25,1.25,1.5,1.75,5.0,1.75,0.0,1.0,1.25,1.25,0.75,0.75,0.5,-0.42,-0.11,0.95,142.66,4.1,23.1,7.0,3.25,8.75,14.0,12.0,8.5,6.0,3.25,0.75,3.0,2.75,1.25,1.5,0.02,0.14,0.95,1260.68,-9.2,36.4
1.56,1.0,1.25,3.0,2.25,5.25,1.75,0.0,0.25,1.25,0.0,0.5,0.5,0.5,-0.42,0.02,1.02,199.74,8.8,39.2,8.0,3.25,8.75,15.0,13.0,8.5,6.0,3.25,0.75,2.75,2.75,1.25,1.25,0.02,0.14,0.95,1321.57,-9.6,38.6
1.58,0.5,0.0,1.0,0.75,2.25,0.5,0.0,0.0,1.25,0.25,0.0,0.75,0.0,-0.36,0.2,1.14,191.93,8.9,21.2,0.0,2.5,9.5,15.0,13.5,8.5,6.0,2.25,0.25,2.5,2.5,1.25,1.25,0.02,0.2,1.02,1294.83,-7.4,34.1
1.6,0.5,0.0,1.0,0.5,3.75,0.25,0.0,0.0,0.5,0.0,0.0,0.5,0.0,-0.23,0.33,1.33,165.53,7.3,40.2,9.0,3.0,9.5,15.5,14.0,8.25,5.5,2.25,0.75,2.5,2.5,1.25,1.25,-0.05,0.2,1.08,1332.09,-10.6,41.6
1.62,0.5,0.0,3.0,0.25,4.75,0.25,0.0,0.25,0.5,1.25,0.0,1.0,0.0,-0.17,0.52,1.58,147.41,8.4,25.4,9.5,4.25,11.0,15.5,13.5,7.75,0.0,1.25,0.5,0.0,2.5,1.0,0.75,-0.05,0.27,1.08,1329.06,-12.4,51.2
1.64,1.25,1.25,3.0,1.75,4.75,1.75,0.0,0.25,1.25,1.25,1.0,1.25,0.25,-0.23,0.58,1.77,182.51,8.1,25.2,9.75,3.5,11.0,14.5,13.5,6.5,3.5,1.75,0.25,0.0,2.0,0.5,0.5,0.02,0.27,1.08,1324.82,-13.5,52.8
1.66,1.0,1.25,3.0,1.75,5.75,1.75,0.0,0.0,1.25,1.25,0.5,1.0,0.75,-0.42,0.83,2.14,227.4,6.8,27.4,9.75,4.0,9.75,3.5,11.0,6.25,2.0,0.5,0.25,0.0,1.5,1.0,0.75,0.08,0.33,1.14,1153.72,-13.4,53.4
1.68,1.0,1.0,3.0,1.75,4.75,1.75,0.0,0.0,1.25,1.25,0.75,1.25,0.5,-0.61,1.39,2.45,263.68,7.7,23.6,9.75,5.0,10.5,14.5,12.5,6.0,0.0,0.25,0.25,0.75,2.0,1.0,0.75,0.08,0.39,1.2,1127.3,-13.5,53.4
1.7,1.25,1.0,3.75,1.75,4.5,1.75,0.0,0.0,1.25,1.25,0.75,1.25,0.75,-0.23,2.08,2.33,284.41,9.1,23.7,9.75,4.0,9.5,13.0,9.5,5.25,0.0,0.5,0.0,0.5,2.75,0.0,0.5,0.14,0.45,1.2,1024.52,-14.7,55.0
1.72,1.25,0.25,3.0,0.25,5.25,1.75,0.0,0.0,1.25,1.25,0.25,1.0,0.5,0.89,2.7,1.77,282.27,6.4,23.8,10.0,3.5,8.0,9.25,7.75,4.25,0.0,0.5,0.25,1.0,1.5,0.0,0.5,0.33,0.64,1.52,916.15,-15.1,56.3
1.74,0.75,0.0,3.0,0.25,5.25,0.25,0.0,0.25,0.5,0.0,0.0,0.5,0.0,1.58,3.02,1.2,248.95,11.0,44.9,9.5,3.25,5.5,7.0,5.75,3.0,0.0,0.25,0.5,1.25,2.5,1.0,0.75,0.7,1.39,2.7,757.86,-15.0,47.0
1.76,1.25,0.75,3.0,1.75,3.5,1.75,0.0,0.0,1.25,1.25,0.5,1.25,0.75,1.64,3.58,0.2,239.11,8.5,20.4,7.0,1.75,3.25,3.25,3.5,2.5,0.0,1.25,0.5,0.0,2.0,0.0,0.0,0.27,0.7,3.02,542.39,-14.9,51.7
1.78,1.25,1.0,3.0,0.5,3.75,1.0,0.0,0.0,1.25,1.25,0.0,1.25,0.0,2.02,4.08,-0.23,228.16,10.2,28.4,4.75,0.75,0.5,2.0,1.0,2.75,0.0,0.0,0.0,0.0,1.5,0.0,0.0,0.33,0.33,2.33,319.92,-13.2,54.0
1.8,1.25,0.75,2.25,1.75,5.0,1.5,0.0,0.0,1.25,1.25,1.0,1.0,0.75,-0.55,0.2,0.39,244.28,6.6,20.9,1.0,0.75,0.5,0.0,0.5,0.0,0.0,0.25,0.25,0.0,0.0,0.0,0.0,0.95,-0.48,2.14,143.38,-17.9,64.0
1.82,1.25,0.75,2.25,1.75,4.75,1.5,0.0,0.0,1.25,2.0,0.75,2.0,2.75,-0.8,-1.11,2.52,266.89,4.1,-0.1,0.75,1.75,0.0,0.75,1.0,3.75,0.0,0.0,0.5,0.75,0.0,1.0,0.25,1.27,-0.36,1.77,36.22,2.3,25.0
1.84,0.5,0.0,2.5,0.5,1.75,0.25,0.0,0.0,0.5,2.5,0.0,5.25,4.25,0.27,-0.23,0.52,270.65,3.5,-49.5,1.25,1.75,2.0,0.5,1.5,3.25,0.0,0.75,0.5,1.0,1.25,1.0,1.0,0.7,-1.67,1.02,0.0,-3.8,13.1
1.86,0.75,0.0,2.75,1.25,5.5,0.5,0.0,2.25,1.25,4.5,3.5,6.25,6.5,0.7,0.64,2.02,333.19,0.8,-41.0,1.0,1.5,2.25,0.0,1.25,2.0,0.0,0.75,0.5,0.0,0.25,0.0,1.0,0.33,-0.55,1.14,4.73,-7.0,32.6
1.88,1.0,0.0,1.0,1.0,2.25,1.0,0.0,4.0,1.25,7.25,6.0,8.0,7.5,-0.48,0.58,2.02,434.73,-1.9,-62.2,0.75,1.75,2.0,0.0,2.25,1.25,0.0,0.5,0.5,1.25,1.25,0.0,0.75,0.33,-0.55,0.27,32.94,-5.6,19.3
1.9,1.25,1.5,2.25,3.75,5.75,2.0,0.0,5.75,2.75,8.0,6.25,8.5,9.25,0.14,0.2,1.33,647.78,-0.4,-39.7,0.0,0.5,0.5,0.5,1.0,0.5,0.0,0.0,0.25,0.25,0.0,0.0,0.0,0.45,-0.42,0.39,7.17,-5.3,44.1
1.92,1.0,1.25,3.0,1.0,5.75,3.25,0.0,5.75,2.5,0.0,7.25,8.0,9.0,-0.11,0.08,1.02,759.99,0.9,-37.3,0.0,0.25,0.5,0.0,0.5,0.5,0.0,0.0,0.25,0.0,0.0,0.0,0.25,0.39,-0.42,0.77,0.0,-4.1,28.4
1.94,1.0,1.5,1.0,0.5,0.75,4.0,0.25,7.25,3.0,7.75,6.5,7.75,8.5,-0.11,0.08,0.95,857.86,-3.5,-55.5,1.0,1.0,0.5,0.0,1.0,0.5,0.0,0.0,0.25,0.25,0.0,0.0,0.5,0.27,-0.3,1.02,0.0,-8.3,42.5
1.96,1.0,0.0,3.75,2.0,5.0,4.0,0.75,6.25,2.75,7.75,6.75,8.0,9.0,-0.11,0.02,0.95,923.96,-0.9,-42.2,1.25,1.0,0.75,0.75,1.0,3.25,0.75,0.25,0.75,1.25,1.5,0.75,0.5,0.2,-0.05,1.02,30.15,-2.6,7.8
1.98,2.0,0.75,1.0,0.5,5.5,5.0,1.5,7.0,3.75,9.0,7.25,8.75,8.75,-0.11,0.08,0.95,1003.7,-2.7,-44.6,0.75,1.25,2.0,0.25,1.25,3.25,0.5,0.5,0.5,1.5,2.0,1.25,1.0,0.2,0.14,1.02,111.45,-3.0,-1.3
2.0,1.25,0.0,3.0,2.5,3.5,5.0,1.25,7.25,3.75,9.0,7.0,8.5,9.0,-0.11,0.08,0.95,1056.17,-1.5,-44.7,1.0,1.5,2.25,0.25,1.25,3.25,0.25,0.75,0.5,1.0,2.0,1.25,0.75,0.2,0.27,1.14,183.61,-4.6,5.9
2.02,1.0,0.75,3.0,2.5,5.75,4.5,1.75,7.0,3.5,7.75,6.5,7.75,7.5,-0.11,0.02,0.95,1074.92,-0.8,-36.0,0.75,1.0,2.0,0.0,1.25,3.25,0.5,0.5,0.5,2.0,0.5,1.0,0.75,0.14,0.39,1.64,213.63,-1.3,4.6
2.04,1.0,0.25,3.5,2.5,2.25,4.0,1.75,6.0,4.0,7.75,6.25,7.25,7.5,-0.11,0.02,0.95,1022.51,0.0,-42.9,1.25,1.0,2.25,0.5,2.25,3.25,0.25,0.5,0.5,1.25,2.25,1.0,0.75,0.08,0.58,1.7,233.5,-4.4,8.4
2.06,1.25,0.0,3.5,3.5,5.5,5.75,2.5,6.75,4.5,8.0,6.75,7.75,7.5,-0.11,0.02,0.95,1009.59,-0.2,-33.8,0.75,1.0,2.25,0.5,1.25,3.25,0.5,0.75,0.5,1.25,1.75,1.0,0.75,0.2,0.7,1.95,229.29,-3.8,4.3
2.08,1.0,0.25,4.25,4.75,6.0,6.0,3.0,6.75,4.5,7.75,6.5,7.0,7.0,-0.11,0.02,0.95,1000.79,0.5,-27.7,1.0,1.0,2.25,0.75,1.25,3.25,0.5,0.5,0.5,1.25,1.0,0.75,1.0,0.33,0.95,2.27,231.15,-4.1,11.3
2.1,2.0,1.5,3.75,4.75,5.75,6.0,3.25,7.0,4.75,7.25,6.5,7.0,6.5,-0.05,0.08,0.95,1005.02,1.2,-23.4,0.75,1.0,2.0,0.75,1.25,3.25,0.5,0.5,0.5,1.25,2.0,1.0,0.5,0.33,1.58,2.58,234.22,-4.2,5.6
2.12,2.25,1.5,5.0,6.25,7.75,6.0,3.75,6.75,4.75,6.5,6.0,6.0,5.75,-0.05,0.02,0.95,1037.65,2.6,-13.4,1.0,1.0,2.0,0.75,1.25,3.25,0.5,0.75,0.5,1.5,1.5,1.0,1.0,0.2,2.27,2.52,237.83,-3.2,3.7
2.14,2.75,1.5,5.25,6.25,7.25,6.5,4.0,6.5,4.75,6.25,5.75,5.25,5.25,-0.05,0.08,0.95,1059.82,3.1,-10.1,0.75,1.0,2.0,0.75,1.25,3.25,0.5,0.5,0.5,1.5,2.0,1.0,0.75,-0.23,3.14,1.58,239.88,-3.5,2.4
2.16,2.75,1.5,5.5,7.75,7.5,6.75,4.75,6.5,4.75,5.25,4.75,5.25,4.25,-0.05,0.08,0.95,1084.94,4.0,-4.0,0.5,0.0,2.0,0.5,2.25,2.0,0.25,0.5,0.0,0.0,1.0,0.0,0.75,-1.3,3.95,-0.3,214.05,-4.8,23.3
2.18,2.0,1.5,6.25,8.75,8.75,7.0,5.0,6.0,4.5,5.0,4.25,4.0,2.75,-0.05,0.08,0.95,1078.54,4.6,3.9,0.0,0.0,0.5,0.5,0.0,2.0,0.0,0.0,0.0,0.0,0.25,0.0,0.0,-2.55,5.27,-0.05,153.43,3.7,34.0
2.2,3.75,1.75,6.5,10.0,9.25,7.0,5.5,5.5,4.5,4.75,3.5,3.5,2.75,-0.05,0.08,0.95,1095.87,5.9,10.6,0.75,0.0,1.75,0.5,0.25,2.0,0.0,0.0,0.0,0.0,0.0,0.0,1.0,-1.98,3.52,-0.11,107.19,-7.0,28.1
2.22,4.25,1.75,7.5,12.5,9.25,7.25,6.0,5.25,4.25,3.75,2.5,2.5,2.0,-0.05,0.08,0.95,1122.75,7.5,20.1,0.0,0.0,1.75,0.5,0.0,0.5,0.0,0.0,0.0,2.5,1.5,2.75,0.75,0.7,-0.36,1.95,98.37,-5.5,-51.4
2.24,4.75,2.25,8.25,14.0,9.5,7.25,6.25,5.25,3.75,2.75,2.5,2.5,1.0,-0.05,0.08,0.95,1169.9,8.9,26.4,1.0,0.0,1.75,0.5,2.5,1.75,0.0,0.75,0.0,3.5,3.0,4.0,6.0,0.33,-0.42,2.14,180.75,0.8,-47.2
2.26,4.75,2.5,9.0,15.5,14.0,7.75,6.75,4.0,3.0,2.25,0.5,2.25,1.0,-0.05,0.08,0.95,1246.33,9.0,35.5,0.75,1.5,0.0,0.5,0.0,1.25,0.0,2.25,0.5,6.75,3.5,6.0,7.5,-0.36,0.95,1.39,279.9,4.1,-68.2
2.28,6.5,2.5,10.0,16.5,14.0,7.25,7.25,4.0,2.0,3.0,1.75,2.0,1.0,-0.05,0.14,0.95,1329.67,10.0,36.0,0.5,0.0,0.5,0.0,0.0,4.0,0.0,4.25,0.0,8.0,6.5,7.0,8.25,0.02,0.64,1.89,416.68,6.0,-70.6
2.3,7.5,3.25,8.5,17.0,14.0,7.5,7.0,3.0,2.0,0.5,2.0,2.0,1.0,-0.05,0.14,1.08,1365.56,10.9,41.5,0.75,1.5,2.0,2.0,0.0,6.0,0.0,6.75,1.25,9.25,8.75,8.0,9.25,0.02,0.33,1.27,637.23,3.3,-52.6
2.32,8.25,3.25,12.0,18.5,15.0,7.0,7.0,2.5,1.5,1.25,0.75,1.0,1.0,-0.05,0.14,1.14,1420.47,12.5,47.1,0.75,0.75,2.0,1.25,1.25,6.0,1.0,6.75,1.75,9.0,7.75,7.5,8.75,0.08,0.14,0.95,813.13,3.5,-51.1
2.34,9.0,3.25,12.5,18.0,16.0,6.5,7.0,2.0,1.5,1.25,0.0,1.5,1.25,-0.05,0.2,1.08,1459.7,12.9,47.9,0.5,0.75,2.25,2.0,1.25,6.25,0.5,6.75,1.75,8.75,7.75,7.0,8.5,0.14,0.08,0.95,932.92,3.5,-48.6
2.36,10.0,2.25,12.5,18.0,16.0,4.5,6.5,1.75,1.5,1.5,0.75,1.5,1.5,-0.11,0.2,1.14,1479.7,13.8,46.4,0.25,1.0,2.25,2.0,1.5,6.5,1.0,6.75,1.75,8.75,7.5,6.5,8.25,0.14,0.08,0.95,982.84,3.6,-46.3
2.38,10.5,3.25,12.5,17.0,15.0,3.0,5.0,0.0,1.5,1.5,1.0,1.25,0.5,-0.17,0.27,1.2,1454.21,15.9,52.1,0.0,1.5,2.25,2.75,1.75,6.5,1.0,6.75,1.75,8.5,7.75,6.5,8.25,0.14,0.08,0.95,1009.23,3.2,-43.5
2.4,11.0,3.25,12.0,16.0,12.5,1.75,2.25,1.5,1.5,2.0,0.75,1.75,0.5,-0.23,0.33,1.39,1393.32,16.0,49.3,0.0,1.75,2.0,2.75,3.25,6.75,1.75,7.0,1.75,8.25,7.25,6.25,8.25,0.08,0.08,0.95,1016.89,3.3,-38.8
2.42,11.0,3.25,12.0,12.5,11.5,1.75,1.25,1.5,1.25,1.25,0.0,2.0,1.0,-0.42,0.52,1.58,1287.23,16.4,50.3,0.0,1.75,2.5,3.0,4.75,7.0,2.0,7.0,1.75,8.25,7.25,6.0,7.75,0.08,0.08,0.95,1024.81,2.8,-33.4
2.44,9.0,1.5,10.0,7.75,8.75,0.0,0.0,0.5,1.25,0.5,0.0,0.5,0.0,-0.67,0.83,2.27,1004.2,19.8,59.5,1.0,1.5,1.75,3.0,5.0,7.25,2.25,7.0,2.0,7.75,6.5,5.25,7.5,0.08,0.08,0.95,997.14,3.0,-30.1
2.46,8.25,1.5,5.75,6.5,6.5,0.25,0.0,0.25,1.25,0.5,0.0,0.75,0.25,-0.8,1.08,2.95,724.57,18.6,57.0,1.0,1.75,2.25,3.25,5.25,7.5,2.75,7.0,2.5,7.5,6.5,5.25,6.25,0.08,0.08,0.95,960.27,2.0,-25.5
2.48,6.5,1.5,3.5,4.75,6.5,0.5,0.0,1.5,1.25,0.25,0.0,1.5,0.25,-0.61,0.45,2.83,491.44,14.3,46.9,1.0,1.75,3.5,3.25,6.0,7.5,3.0,6.75,2.5,7.25,6.5,4.5,6.5,0.08,0.08,0.95,925.99,1.1,-21.4
2.5,2.75,0.0,2.75,0.75,5.75,0.25,0.0,0.25,1.0,1.0,0.0,1.25,0.0,-0.98,0.2,2.77,298.22,11.3,34.6,1.25,1.75,3.5,4.75,6.75,7.75,3.25,6.75,2.5,6.75,6.5,4.0,5.75,0.08,0.08,0.95,919.4,0.3,-15.2
2.52,2.75,1.25,1.75,2.5,4.75,0.25,0.0,0.25,1.25,0.25,0.5,1.5,0.5,-1.23,-0.3,1.77,202.46,11.7,33.4,2.0,1.75,4.0,5.25,7.25,7.75,4.0,6.75,2.5,6.25,5.75,3.5,5.5,0.08,0.14,0.95,924.63,-0.6,-9.3
2.54,1.0,1.5,3.0,3.0,5.75,0.75,0.0,0.0,1.25,1.25,0.0,1.25,0.75,-1.42,-1.42,1.58,149.06,8.8,30.7,2.5,1.75,5.5,5.75,8.0,7.75,4.75,6.5,2.5,6.0,5.5,3.0,4.25,0.08,0.08,0.95,948.43,-2.4,-1.6
2.56,0.25,1.5,3.0,3.25,5.75,1.5,0.0,0.25,1.25,1.0,0.5,1.0,1.0,-1.11,-1.05,0.77,136.66,6.8,26.9,3.0,2.0,5.5,7.25,8.25,8.0,5.0,5.75,2.5,4.75,4.75,2.75,3.75,0.08,0.14,0.95,982.01,-3.6,5.6
2.58,0.25,1.25,3.0,1.75,5.75,1.25,0.0,0.25,1.25,0.5,0.0,0.75,0.75,-0.61,-0.42,0.58,128.8,6.9,32.5,3.0,2.0,6.5,9.0,9.25,8.0,5.25,5.75,2.5,4.25,4.75,2.25,2.75,0.08,0.14,0.95,1023.71,-4.9,12.3
2.6,1.5,1.25,3.0,1.75,5.75,1.75,0.0,0.5,1.25,1.0,0.75,1.0,0.5,-0.36,-0.42,0.27,153.72,7.4,29.1,3.75,2.5,7.0,9.25,9.5,8.0,5.5,5.25,1.75,3.75,4.0,1.5,2.5,0.08,0.14,0.95,1049.72,-5.8,19.4
2.62,1.25,0.75,3.0,2.5,5.75,1.75,0.0,0.5,1.25,1.25,0.75,1.0,0.75,-0.3,-0.36,0.45,180.64,6.8,24.8,5.0,2.75,8.0,11.0,10.5,8.25,5.5,4.5,1.75,3.25,4.0,1.25,1.5,0.02,0.14,0.95,1099.11,-7.6,27.4
2.64,0.25,1.25,3.0,2.25,5.75,1.75,0.0,0.25,1.25,1.25,0.0,1.0,0.0,-0.3,-0.36,0.64,201.63,6.4,32.9,5.75,2.75,8.25,12.5,11.0,8.25,6.0,4.0,1.25,3.0,4.0,1.25,2.0,0.02,0.14,0.95,1157.77,-8.3,29.5
2.66,0.5,1.25,3.0,2.5,5.75,1.75,0.0,0.25,1.25,1.25,0.25,0.75,0.5,-0.3,-0.36,0.83,228.15,6.4,30.8,7.0,3.25,8.75,12.5,11.5,8.25,6.25,3.5,1.25,2.5,3.25,1.25,1.5,0.02,0.14,0.95,1220.07,-9.4,34.9
2.68,0.25,0.75,3.0,1.75,5.75,1.75,0.0,0.5,1.25,1.5,0.5,1.0,0.5,-0.3,-0.23,0.95,250.54,5.0,21.7,7.75,3.25,9.5,13.5,12.5,8.0,1.5,2.75,1.0,2.5,3.0,0.75,0.75,0.02,0.14,0.95,1257.02,-9.8,41.0
2.7,0.5,1.25,3.0,1.75,5.75,1.75,0.0,0.5,1.25,1.5,1.0,1.0,0.75,-0.23,-0.05,1.08,266.73,5.4,20.6,8.0,3.25,9.0,13.0,11.5,7.75,5.5,2.0,0.75,1.0,1.5,0.5,0.5,0.02,0.14,1.02,1237.18,-11.7,48.2
2.72,1.0,0.75,3.0,1.75,5.75,1.75,0.0,0.5,1.25,1.5,0.0,1.25,0.75,-0.11,0.14,1.33,274.91,5.7,23.4,8.5,2.5,11.0,14.0,12.5,8.0,5.75,2.0,0.75,2.25,2.75,1.25,0.0,0.02,0.2,1.02,1259.28,-12.0,43.6
2.74,1.0,1.25,3.0,1.75,5.75,1.75,0.0,0.25,1.25,2.0,0.0,1.25,1.25,-0.05,0.33,1.58,288.18,5.2,20.4,9.75,0.0,11.0,15.0,12.5,7.25,0.0,2.0,0.75,2.5,2.5,1.0,0.75,-0.05,0.2,1.02,1244.74,-11.6,42.2
2.76,1.0,1.25,3.0,1.75,5.75,1.75,0.0,0.25,1.25,2.0,0.5,1.5,0.5,-0.05,0.52,1.77,289.61,6.0,21.5,9.75,5.0,11.0,16.0,11.0,7.5,4.0,0.0,0.25,1.0,2.25,1.25,0.5,-0.05,0.27,1.08,1273.22,-14.1,51.9
2.78,1.25,0.5,3.0,1.75,5.75,1.75,0.0,0.25,1.25,2.0,0.5,1.25,0.75,-0.17,0.64,1.95,289.8,5.8,19.4,11.0,5.0,12.0,14.5,12.5,5.75,4.75,1.25,0.5,0.0,2.75,0.25,0.25,0.02,0.27,1.08,1294.8,-15.3,54.9
2.8,1.0,1.25,3.0,1.75,5.5,1.75,0.0,0.25,1.25,1.5,0.5,1.25,0.5,-0.42,0.95,2.45,288.34,6.6,25.0,11.5,5.0,11.5,15.5,11.5,5.5,2.25,0.0,0.5,0.75,2.75,1.0,0.75,0.08,0.33,1.14,1308.98,-15.4,53.0
2.82,1.0,1.0,3.0,1.75,5.75,1.75,0.0,0.0,1.25,2.25,0.0,1.25,0.0,-0.36,1.7,2.64,285.7,6.3,27.4,12.0,5.0,11.5,13.5,9.75,4.5,0.75,0.75,0.5,1.0,2.5,1.0,1.0,0.14,0.39,1.2,1269.33,-15.8,52.0
2.84,1.0,1.25,3.0,1.75,5.75,1.75,0.0,0.5,0.75,2.5,0.0,1.25,0.5,0.39,2.64,2.14,284.4,4.9,23.6,11.0,5.0,11.0,11.0,8.25,5.25,0.0,0.75,0.5,1.25,2.5,1.0,1.0,0.2,0.52,1.27,1181.94,-15.1,50.3
2.86,0.5,0.75,1.0,1.75,1.75,1.5,0.0,0.0,1.25,2.5,0.0,1.5,0.5,1.64,3.39,1.45,254.13,3.0,-0.6,9.75,4.0,8.75,8.5,7.0,3.5,0.0,0.5,0.5,1.5,1.75,1.0,1.25,0.52,0.95,1.95,1009.26,-15.2,48.5
2.88,1.5,1.25,3.0,1.75,5.75,1.75,0.0,0.5,1.25,1.25,0.25,1.25,1.0,1.77,3.83,0.27,261.69,6.6,25.3,8.75,2.75,4.5,5.5,5.0,3.75,0.0,0.75,0.5,1.25,2.5,0.5,1.5,0.83,1.27,3.39,784.73,-12.7,41.8
2.9,0.75,0.5,3.0,1.25,5.75,0.25,0.0,0.5,1.25,1.25,0.5,0.75,0.75,2.2,4.58,-0.23,250.19,7.5,21.9,5.0,1.25,2.0,3.0,1.25,2.75,0.0,0.0,0.5,0.0,1.5,1.25,0.0,0.39,0.39,2.52,494.35,-15.2,43.1
2.92,1.25,1.0,2.25,2.5,5.75,1.25,0.0,0.25,1.25,1.25,0.5,1.5,0.75,2.95,4.14,-0.11,263.38,6.7,22.9,1.75,1.75,3.25,3.0,1.75,3.25,0.0,0.0,0.5,1.0,0.75,0.25,0.0,0.77,-0.17,2.2,306.2,-10.6,43.5
2.94,1.5,1.25,2.25,1.75,5.75,1.5,0.0,1.0,1.0,1.0,0.75,2.25,2.75,-0.48,-0.3,2.33,277.51,4.2,6.4,2.0,1.75,3.25,3.0,0.25,3.25,0.0,0.5,0.75,1.0,2.0,1.0,1.0,0.77,-0.3,1.89,208.63,-10.1,19.0
2.96,1.25,1.25,2.5,1.5,5.75,1.75,0.0,2.0,0.75,0.5,2.0,5.0,5.5,0.14,-0.23,1.08,322.2,2.5,-18.0,0.5,0.5,3.25,0.75,1.25,3.25,0.0,0.0,0.5,0.25,0.75,1.0,0.5,1.39,-1.61,1.89,119.92,-8.0,21.4
2.98,0.0,0.75,0.75,2.5,3.5,2.5,0.0,2.5,0.0,7.0,2.0,7.0,6.75,0.02,0.89,4.33,389.34,-4.1,-48.0,0.0,0.25,0.75,0.5,1.5,1.0,0.0,0.75,0.5,1.0,2.5,0.75,0.25,0.64,-1.11,0.89,50.98,-2.1,-19.0
3.0,1.0,1.0,1.25,2.5,1.25,3.0,0.0,5.5,2.25,7.75,6.5,7.75,8.75,-0.23,0.58,1.33,539.61,-2.1,-53.4,0.0,0.0,3.25,0.5,2.75,0.5,0.5,0.0,0.25,0.0,0.25,0.0,0.25,0.39,-0.36,0.64,0.0,-14.7,43.6
3.02,1.0,0.0,2.25,0.0,2.25,2.5,0.0,6.5,2.75,7.25,6.5,8.5,8.25,0.14,0.2,1.2,675.58,-2.1,-58.2,0.25,0.25,0.75,0.5,0.5,1.25,0.0,0.0,0.5,0.0,0.0,0.0,0.0,0.33,-0.42,0.27,0.0,-6.7,44.0
3.04,1.25,1.25,1.0,0.25,5.25,4.0,0.5,7.25,3.0,8.25,7.25,8.5,8.5,-0.05,0.08,0.95,829.94,-3.2,-47.0,0.0,0.25,1.0,0.5,1.0,1.0,0.0,0.0,0.25,0.0,0.0,0.0,0.25,0.33,-0.3,0.45,0.0,-5.8,39.6
3.06,1.0,0.25,1.0,0.0,0.0,4.25,0.5,6.75,3.0,8.25,6.25,8.5,8.75,-0.11,0.08,0.95,884.24,-4.1,-63.6,0.0,0.0,0.5,0.5,0.5,1.25,0.0,0.0,0.25,0.0,0.25,0.0,0.0,0.33,-0.36,0.89,0.0,-1.6,31.9
3.08,0.0,0.75,3.0,2.75,5.75,5.0,1.25,7.25,3.0,8.25,6.75,8.5,9.25,-0.11,0.02,0.95,984.77,-2.1,-40.8,0.0,0.0,1.0,0.5,0.25,1.0,0.0,0.0,0.25,0.0,0.25,0.0,0.5,0.27,-0.3,1.02,0.0,-6.4,14.8
3.1,1.25,0.0,3.0,0.75,5.25,5.0,1.25,7.25,3.25,8.25,6.75,8.0,8.75,-0.11,0.08,0.95,1021.86,-2.2,-43.2,0.0,0.0,0.5,0.5,0.5,1.25,0.0,0.0,0.5,0.0,0.25,0.0,0.0,0.33,0.02,0.95,0.0,-2.3,27.0
3.12,0.5,0.0,3.0,3.5,3.0,5.0,1.75,7.25,3.75,8.25,6.75,7.75,8.25,-0.11,0.08,0.95,1045.04,-1.3,-43.0,0.0,0.0,0.5,0.5,0.0,0.75,0.0,0.0,0.0,0.0,0.5,0.0,0.25,0.33,0.2,0.89,0.0,-5.7,8.4
3.14,2.25,1.0,3.0,3.75,2.5,5.25,1.75,7.25,3.75,8.25,6.5,7.5,8.0,-0.11,0.08,0.95,1047.0,-0.1,-36.2,0.0,0.0,0.5,0.5,0.0,0.75,0.0,0.0,0.25,0.0,0.25,0.0,0.0,0.33,0.33,1.08,1.11,-8.1,25.9
3.16,1.5,1.0,3.0,4.5,5.75,6.0,2.25,7.5,4.0,7.75,6.5,7.0,7.5,-0.11,0.08,0.95,1053.45,-0.4,-28.7,0.0,0.0,0.5,0.5,0.0,1.0,0.0,0.0,0.25,0.0,0.25,0.0,0.0,0.27,0.45,1.45,2.08,-5.1,26.7
3.18,1.75,1.5,3.25,4.75,6.75,6.75,2.5,7.5,4.0,7.5,6.0,6.0,6.5,-0.11,0.02,0.95,1051.11,-0.2,-21.2,0.0,0.0,0.5,0.5,0.5,1.0,0.0,0.0,0.25,0.25,0.25,0.0,0.0,0.27,0.64,1.7,12.59,-2.0,23.6
3.2,1.25,1.5,3.75,6.25,7.75,7.0,3.0,7.5,3.75,6.5,5.25,5.25,5.75,-0.11,0.08,0.95,1048.53,0.3,-14.1,0.0,0.0,1.0,0.5,0.5,1.25,0.0,0.0,0.25,0.25,0.25,0.0,0.5,0.39,0.83,1.95,35.39,-3.1,13.3
3.22,2.0,1.5,4.25,6.5,8.0,7.5,3.0,7.25,4.25,6.25,4.75,5.25,5.25,-0.11,0.08,0.95,1054.07,1.1,-10.0,0.0,0.0,0.5,0.5,0.25,1.25,0.0,0.0,0.0,0.0,0.5,0.0,0.25,0.58,1.14,2.39,45.55,-0.7,16.1
3.24,2.25,1.5,5.25,8.0,9.25,7.5,3.75,7.25,3.75,5.5,4.25,4.0,4.5,-0.11,0.08,0.95,1065.86,2.3,-0.8,0.75,0.75,2.25,0.5,1.75,3.25,0.5,0.75,0.5,1.25,2.5,0.75,0.75,0.7,1.95,2.33,117.51,-3.6,2.7
3.26,3.0,1.75,5.25,9.25,9.25,8.0,3.75,7.25,3.75,5.0,3.5,3.25,2.75,-0.11,0.08,0.95,1084.28,3.3,7.6,1.0,0.75,2.0,0.75,1.25,3.25,0.5,0.75,0.5,1.25,1.75,0.75,0.75,0.27,2.77,1.89,171.53,-3.7,6.0
3.28,3.5,1.75,5.5,10.5,10.5,8.0,3.75,6.75,3.75,4.75,3.25,2.5,2.5,-0.11,0.08,0.95,1108.68,3.9,13.2,1.0,0.75,2.25,0.75,1.5,3.25,0.25,0.75,0.5,1.0,0.75,0.75,0.75,-0.42,3.27,1.02,212.43,-3.8,14.7
3.3,3.25,1.75,6.0,12.5,12.0,8.0,4.25,6.5,3.25,4.5,2.75,2.5,1.5,-0.11,0.08,0.95,1151.23,4.7,19.0,1.0,0.75,2.0,0.75,1.25,3.25,0.0,0.5,0.5,1.0,2.0,1.0,0.5,-1.55,3.45,0.08,229.84,-4.4,6.5
3.32,4.0,2.0,6.5,13.5,14.0,8.5,4.25,6.0,3.0,3.0,2.0,2.25,1.5,-0.11,0.08,0.95,1198.28,5.5,26.3,1.0,0.75,2.0,0.75,0.5,1.75,0.0,0.0,0.0,0.0,1.5,0.0,0.75,-2.67,4.58,0.52,216.26,-11.1,25.7
3.34,4.75,2.5,6.75,14.0,14.0,8.75,2.5,5.5,2.5,2.75,2.0,2.25,1.5,-0.05,0.14,0.95,1250.84,5.8,29.2,0.25,0.0,0.5,0.5,0.0,1.75,0.0,0.0,0.0,1.75,0.25,0.75,0.0,-2.55,3.7,-0.11,177.04,3.3,-16.1
3.36,5.0,2.5,7.75,15.5,14.5,9.0,4.0,5.0,2.0,2.0,2.0,2.25,1.5,-0.05,0.14,0.95,1307.95,7.1,32.6,0.0,0.0,0.5,0.5,1.0,1.5,0.0,0.25,5.0,0.75,1.5,1.25,0.75,0.52,0.58,0.14,172.21,-4.0,-31.9
3.38,5.5,2.5,8.0,16.0,15.0,8.0,4.25,4.25,1.75,2.5,1.25,2.25,1.25,-0.11,0.14,0.95,1333.65,7.9,35.3,0.75,0.75,0.5,0.5,1.0,1.0,0.0,0.5,0.0,2.5,2.5,3.75,5.75,0.58,0.02,1.95,210.79,1.6,-58.4
3.4,5.75,1.5,8.0,15.5,14.0,8.0,3.5,2.75,1.25,0.25,0.0,0.75,0.5,-0.11,0.14,0.95,1286.34,9.5,47.8,0.75,0.25,0.0,0.75,1.25,1.25,0.0,0.75,0.5,6.75,4.25,6.25,7.25,-0.48,0.2,-0.11,294.16,3.5,-70.1
3.42,5.75,1.75,0.0,15.5,14.0,8.0,3.25,2.5,1.25,1.5,0.0,1.75,0.5,-0.11,0.2,1.02,1160.59,4.8,41.0,0.25,0.0,0.25,0.5,1.25,3.25,0.0,4.25,0.75,8.25,5.75,7.5,8.0,-0.3,0.83,4.45,430.9,5.6,-67.7
3.44,6.75,2.25,8.5,19.0,15.0,8.0,3.0,0.5,1.25,2.75,0.75,1.5,1.0,-0.11,0.2,1.08,1171.0,10.0,44.1,1.0,1.5,1.0,0.5,1.75,5.75,0.5,6.75,1.25,9.25,8.25,8.0,9.0,0.08,0.27,1.2,647.41,4.3,-52.9
3.46,7.25,1.5,9.25,17.0,17.0,7.5,4.25,0.5,1.25,2.0,0.0,0.75,0.75,-0.11,0.2,1.02,1192.93,10.5,48.6,1.0,1.5,2.0,1.25,0.25,6.0,0.0,6.5,1.75,9.25,8.25,7.5,9.0,0.14,0.14,0.95,818.63,3.4,-51.9
3.48,8.25,2.0,10.5,17.0,15.0,6.5,3.25,2.25,1.25,1.5,0.5,0.75,0.5,-0.11,0.2,1.08,1251.99,11.7,48.5,0.75,1.5,2.0,1.25,1.5,6.25,0.0,7.25,1.5,9.25,8.0,7.5,8.75,0.14,0.14,0.95,939.25,3.9,-48.9
3.5,9.0,2.75,11.0,16.5,15.5,5.0,2.0,0.25,1.0,1.25,0.0,0.75,0.25,-0.17,0.27,1.08,1262.77,13.6,55.1,1.0,1.5,2.5,1.25,1.25,6.25,1.0,7.25,1.75,9.25,7.75,7.5,8.75,0.08,0.08,0.95,1012.74,3.0,-47.0
3.52,9.25,2.5,11.0,17.0,15.0,4.0,1.25,0.25,1.25,1.75,0.0,0.75,1.0,-0.17,0.27,1.14,1258.16,13.8,52.3,1.0,1.0,2.5,2.25,1.75,6.5,1.0,7.25,1.75,8.75,7.75,7.5,8.75,0.14,0.08,0.95,1052.16,2.8,-44.8
3.54,9.75,2.5,11.0,15.5,14.0,2.75,0.0,0.25,1.0,1.25,0.0,0.5,0.5,-0.23,0.33,1.27,1183.17,15.2,56.5,0.0,1.75,2.25,2.0,2.75,6.5,1.25,7.25,1.75,8.75,7.75,7.25,8.75,0.08,0.08,0.95,1065.14,3.4,-43.7
3.56,10.0,1.75,10.0,13.5,12.0,1.75,0.0,0.0,1.25,1.25,0.0,0.5,0.5,-0.36,0.45,1.52,1071.42,16.4,56.4,1.0,1.75,2.5,2.0,2.75,6.5,1.0,7.25,1.75,8.5,7.75,6.5,8.25,0.08,0.08,0.95,1059.79,2.7,-39.5
3.58,9.0,1.5,8.25,9.75,9.25,0.25,0.0,0.25,0.5,0.0,0.5,0.5,0.0,-0.61,0.83,1.83,880.49,18.9,61.6,1.0,1.75,2.5,2.25,3.25,6.75,1.25,7.25,1.75,8.25,7.5,6.0,8.0,0.08,0.08,0.95,1030.28,2.7,-36.4
3.6,8.25,2.5,5.5,8.0,7.75,1.75,0.0,0.25,1.25,2.5,0.0,1.0,0.0,-0.73,1.2,2.77,715.81,14.4,50.6,1.0,1.75,2.75,3.0,4.75,7.25,2.0,7.25,1.75,7.75,7.25,6.0,7.75,0.14,0.08,0.95,992.94,2.1,-30.4
3.62,6.75,1.5,4.5,6.25,7.25,0.25,0.0,0.25,1.25,1.25,0.5,1.0,0.75,-0.48,0.39,2.58,552.12,15.0,46.1,1.25,1.75,3.25,3.0,5.25,7.25,2.5,7.0,2.5,7.5,6.75,5.25,7.0,0.08,0.08,0.95,954.01,1.3,-25.5
3.64,3.75,0.0,3.0,2.75,7.0,0.25,0.0,0.25,0.5,0.0,0.25,0.5,0.5,-0.67,0.33,2.7,383.48,13.1,49.5,1.25,1.75,3.5,3.25,5.5,7.5,2.0,6.75,2.5,7.25,6.75,5.25,6.5,0.08,0.14,0.95,920.42,1.0,-23.4
3.66,0.25,0.0,2.0,0.5,5.0,0.0,0.0,0.0,0.0,0.0,0.0,0.0,0.0,-1.17,-0.73,2.27,231.16,8.9,56.7,2.0,1.75,3.75,3.75,6.5,7.5,2.75,6.75,2.5,6.75,6.5,4.25,6.0,0.08,0.08,0.95,904.78,0.1,-16.3
3.68,1.0,1.25,3.0,0.75,5.75,0.25,0.0,0.25,0.5,1.25,0.5,0.25,0.5,-1.17,-0.36,2.89,135.18,8.3,35.3,2.0,1.75,4.0,5.25,7.0,7.75,3.5,7.0,2.5,6.25,6.25,4.0,5.5,0.08,0.14,0.95,914.02,-0.6,-11.2
3.7,0.0,0.25,1.75,0.0,2.5,0.25,0.0,0.0,0.25,0.5,0.0,0.5,0.0,-1.05,-1.55,0.95,29.87,8.8,30.5,2.25,2.0,4.75,5.5,7.75,7.75,3.75,6.75,2.5,5.5,5.5,3.0,4.25,0.08,0.14,0.95,930.9,-1.6,-2.6
3.72,0.0,0.25,1.75,0.0,3.0,0.0,0.0,0.0,0.25,0.25,0.0,0.5,0.0,-0.73,-0.61,0.89,0.0,9.8,36.5,3.5,2.0,5.5,7.25,8.25,8.0,4.25,6.25,2.5,4.75,5.0,2.75,3.25,0.08,0.14,0.95,963.02,-3.7,6.5
3.74,0.0,0.0,1.5,0.75,2.5,0.25,0.0,0.0,0.25,0.0,0.0,0.0,0.0,-0.48,-0.42,0.2,0.0,10.6,51.3,5.0,2.5,5.75,7.75,9.0,8.0,4.5,6.0,2.5,4.25,4.75,2.25,2.5,0.08,0.14,0.95,1003.1,-5.0,14.0
3.76,0.0,1.0,0.75,1.75,2.5,1.0,0.0,0.0,0.5,0.5,0.0,1.0,0.0,-0.36,-0.3,0.27,0.0,5.2,29.2,5.5,2.5,6.75,9.25,9.5,8.25,4.75,5.5,1.75,3.75,4.0,1.5,2.5,0.08,0.14,0.95,1049.32,-6.1,21.0
3.78,1.75,1.25,3.0,1.75,5.75,1.75,0.0,0.25,0.5,1.5,0.5,1.0,0.5,-0.42,-0.23,0.52,52.26,7.2,31.8,5.75,2.75,7.25,11.0,10.5,8.25,5.25,4.75,1.75,3.5,3.75,1.25,1.75,0.08,0.14,0.95,1104.15,-7.2,26.9
3.8,1.0,1.25,3.0,2.5,5.75,1.75,0.0,0.25,0.75,2.0,0.75,1.0,0.5,-0.48,-0.23,0.77,151.37,6.3,26.1,7.0,3.25,7.75,11.5,10.5,8.25,5.75,4.25,1.25,3.0,3.75,1.25,1.5,0.08,0.14,0.95,1160.93,-8.5,31.5
3.82,1.5,1.0,3.0,1.75,5.75,1.75,0.0,0.25,0.75,1.25,0.75,1.0,0.5,-0.48,-0.17,0.95,224.14,7.2,29.4,7.5,3.25,8.25,12.5,11.5,8.5,5.75,3.75,1.25,2.75,3.25,1.25,1.5,0.02,0.14,0.95,1221.35,-9.0,34.5
3.84,1.25,1.0,3.0,1.5,5.75,1.75,0.0,0.25,1.0,1.5,0.5,0.75,0.75,-0.48,0.02,1.02,258.96,6.2,27.3,0.0,3.25,8.75,14.0,12.0,8.25,5.75,3.0,0.75,2.5,3.0,1.25,1.25,0.02,0.14,0.95,1203.46,-7.1,31.4
3.86,1.25,1.25,3.0,1.75,5.75,1.75,0.0,0.25,1.0,1.75,0.25,0.75,0.75,-0.42,0.2,1.14,283.94,6.1,28.5,0.0,3.25,9.25,14.0,12.5,8.25,5.75,2.5,0.75,2.5,2.75,1.25,1.25,0.02,0.2,1.02,1180.84,-7.4,32.8
3.88,0.5,1.0,3.0,1.75,5.75,1.75,0.0,0.25,1.0,2.0,0.5,1.0,0.5,-0.36,0.45,1.33,295.64,5.1,22.7,9.5,0.0,9.5,13.5,12.5,8.0,5.5,2.25,0.75,2.5,2.5,1.25,0.75,-0.05,0.2,1.02,1181.42,-11.1,39.7
3.9,1.25,1.0,3.0,1.75,5.75,1.75,0.0,0.25,0.75,2.5,0.5,1.25,0.5,-0.3,0.64,1.64,307.28,5.6,22.0,9.75,4.0,11.0,14.5,13.0,7.5,4.25,1.25,0.5,2.25,2.75,1.0,0.75,-0.05,0.27,1.02,1242.38,-12.3,46.1
3.92,1.25,1.25,3.0,1.25,5.75,1.5,0.0,0.25,1.0,2.25,0.5,1.25,0.5,-0.3,0.77,1.83,308.24,6.0,22.4,11.0,5.0,10.5,15.5,12.5,6.75,2.75,1.0,0.5,0.0,2.5,0.75,1.0,0.02,0.27,1.08,1292.7,-13.8,52.7
3.94,1.0,1.25,3.0,2.0,5.75,0.25,0.0,0.25,0.75,1.75,0.75,0.75,0.5,-0.48,1.02,2.45,307.12,8.4,27.8,11.5,4.75,11.0,14.0,12.5,6.75,2.5,1.0,0.5,1.5,0.5,1.25,1.0,0.08,0.33,1.14,1319.94,-13.4,52.4
3.96,0.0,0.25,3.0,1.0,5.75,0.25,0.0,0.25,1.0,1.25,0.5,1.0,0.5,-0.8,1.77,2.77,282.55,6.8,18.6,12.0,5.0,9.5,14.5,12.0,5.5,0.25,0.75,0.25,0.0,2.0,0.0,1.25,0.08,0.39,1.14,1291.4,-14.2,56.8
3.98,0.0,0.0,1.75,0.0,5.75,0.0,0.0,0.0,0.25,0.0,0.0,0.5,0.0,-0.17,2.45,2.2,233.68,5.9,43.6,10.5,4.5,9.5,13.0,9.75,5.25,0.0,0.5,0.5,1.5,2.75,1.0,1.0,0.08,0.45,1.14,1208.13,-13.9,48.9
4.0,1.0,0.0,0.75,0.25,2.25,0.25,0.0,0.25,0.5,0.75,0.0,0.75,0.0,1.08,3.08,1.64,170.44,7.0,18.9,9.0,3.25,8.75,9.0,8.25,3.5,0.0,0.0,0.0,0.0,1.5,0.0,0.5,0.33,0.64,1.52,1004.54,-16.5,60.1
4.02,1.25,0.5,2.75,0.75,5.75,0.0,0.0,0.5,0.5,1.5,0.75,0.75,0.75,1.77,3.27,0.77,162.55,7.5,21.9,9.0,3.25,4.0,7.25,6.25,3.75,0.0,0.5,0.5,1.5,2.0,0.5,1.0,0.89,1.39,2.89,802.33,-12.5,46.9
4.04,1.25,0.75,2.5,1.75,5.75,0.25,0.0,0.25,0.75,1.75,0.5,0.75,0.5,2.02,3.83,-0.05,184.44,7.6,26.6,7.75,2.0,3.25,5.25,5.0,2.0,0.0,0.25,0.5,1.0,2.0,0.5,1.0,0.39,0.89,3.14,586.26,-14.0,44.8
4.06,1.25,0.0,2.25,0.0,5.75,0.25,0.0,0.25,0.25,0.0,0.5,0.5,0.5,2.7,5.33,-0.23,193.42,8.3,36.6,3.75,0.75,0.5,2.0,1.25,0.5,0.0,0.0,0.0,0.0,0.25,0.25,0.0,0.39,0.27,2.45,335.95,-19.0,66.7
4.08,1.0,0.0,0.5,0.0,2.25,0.0,0.0,0.0,0.25,0.5,0.0,0.75,0.5,-0.42,0.58,0.45,161.02,6.3,12.6,0.5,0.75,0.5,1.25,0.5,0.75,0.0,0.0,0.25,0.0,0.25,0.25,0.0,1.02,-0.55,2.02,167.86,-11.4,45.0
4.1,1.5,0.0,0.75,1.75,1.75,1.75,0.0,1.0,0.75,2.75,1.0,3.75,3.75,-0.48,-2.05,1.52,186.67,0.2,-35.0,1.0,0.25,0.75,0.75,0.5,2.25,0.0,0.0,0.5,0.0,0.75,0.0,0.25,1.14,0.14,0.95,18.53,-5.6,30.4
4.12,1.25,1.0,2.0,0.25,2.5,1.25,0.0,2.25,0.75,4.75,2.0,7.0,5.75,0.7,0.77,1.64,255.73,0.0,-47.6,1.25,1.25,1.25,0.5,2.25,2.25,0.0,0.5,0.5,0.0,2.0,0.0,0.75,1.14,-1.48,1.83,0.0,-5.2,23.0
4.14,1.25,1.25,2.25,1.75,3.75,3.75,0.0,4.25,1.75,7.5,4.75,7.25,7.5,-0.17,0.33,1.2,404.02,-1.6,-40.9,0.0,0.5,0.5,0.5,0.5,0.5,0.0,0.25,0.5,0.0,0.0,0.0,0.0,0.27,-0.92,1.08,0.0,-7.2,39.1
4.16,1.25,0.5,2.0,0.0,2.25,4.5,0.0,6.0,3.0,8.5,7.25,8.0,9.25,0.2,0.14,1.33,622.82,-3.0,-54.5,0.0,0.25,0.5,0.5,1.0,1.0,0.0,0.0,0.5,0.0,0.25,0.0,0.0,0.2,-0.36,0.7,0.0,-3.6,34.8
4.18,1.0,1.0,0.5,0.0,2.5,4.5,0.25,6.5,3.0,8.5,7.25,8.5,9.25,-0.05,0.14,1.02,816.24,-4.2,-56.6,0.25,0.5,0.5,0.5,0.5,0.5,0.0,0.0,0.5,0.25,0.25,0.0,0.25,0.27,-0.3,0.2,0.0,-7.8,24.0
4.2,1.25,1.0,2.25,2.5,5.75,4.5,0.5,7.0,2.75,8.0,6.75,8.5,8.25,-0.11,0.08,0.95,962.45,-1.7,-38.9,0.0,0.25,0.5,0.5,0.5,0.5,0.0,0.0,0.5,0.25,0.25,0.0,0.25,0.39,-0.23,0.64,0.0,-5.6,13.8
4.22,0.0,1.0,2.75,3.25,5.5,4.5,0.5,7.25,2.75,7.5,6.75,7.75,8.5,-0.11,0.08,0.95,1038.45,-2.0,-39.0,1.0,1.5,0.75,1.25,0.5,2.25,0.0,0.5,0.5,1.25,1.5,1.0,0.5,0.45,-0.3,0.77,0.0,-3.9,5.0
4.24,0.25,0.0,3.0,3.5,5.75,5.5,1.0,7.25,2.5,7.75,6.5,7.75,8.25,-0.11,0.08,0.95,1073.84,-2.1,-37.9,0.75,1.25,2.75,1.75,1.0,3.25,0.5,0.75,0.5,1.75,2.5,1.0,0.75,0.33,-0.17,0.95,88.82,-5.7,4.9
4.26,1.0,0.5,3.0,4.25,4.75,6.0,1.25,7.25,3.25,7.75,6.0,7.0,8.0,-0.11,0.08,0.95,1074.18,-1.4,-33.4,1.0,1.5,2.5,0.75,1.25,1.25,0.5,0.5,0.5,1.75,2.5,1.0,1.0,0.33,0.33,1.08,165.27,-8.2,-0.2
4.28,1.75,1.0,3.0,4.25,5.75,6.5,1.5,7.75,3.5,7.5,6.0,7.0,7.5,-0.11,0.08,0.95,1091.88,-0.9,-27.9,0.75,1.0,2.0,1.25,1.25,1.0,0.5,0.5,0.5,1.75,1.5,1.0,1.25,0.33,0.39,1.27,208.11,-6.8,-3.0
4.3,0.75,1.0,3.0,4.5,6.25,7.0,1.75,7.75,3.75,7.5,5.5,6.0,7.0,-0.11,0.08,0.95,1084.44,-1.6,-25.8,0.0,0.0,2.75,0.5,1.25,0.5,0.0,0.0,0.25,0.25,0.25,0.0,0.0,0.27,0.52,1.45,196.76,-17.2,41.5
4.32,1.25,1.25,3.0,5.0,6.25,7.25,1.75,7.75,3.75,7.0,5.25,5.25,6.5,-0.11,0.08,0.95,1059.84,-1.1,-21.0,0.0,0.0,0.5,0.5,0.5,0.5,0.0,0.0,0.25,0.5,0.25,0.0,0.25,0.27,0.64,1.7,147.25,-3.0,4.4
4.34,2.25,1.25,3.5,6.25,7.75,7.5,2.25,7.75,3.75,6.5,4.5,5.25,5.75,-0.11,0.08,0.95,1038.12,0.1,-12.5,0.0,0.75,0.5,1.0,0.0,1.75,0.0,0.0,0.5,2.25,0.25,1.0,0.25,0.33,0.77,1.95,117.2,1.4,-14.5
4.36,2.0,1.25,3.75,6.5,8.0,8.0,2.5,7.5,3.75,6.25,4.25,4.0,5.0,-0.11,0.08,0.95,1016.28,0.1,-7.8,1.0,0.75,2.5,0.75,1.25,2.5,0.5,0.5,0.5,1.75,0.75,1.0,0.75,0.45,0.89,2.27,140.81,-5.5,8.0
4.38,2.25,1.5,4.5,7.75,9.25,8.0,2.75,7.5,3.75,5.75,3.5,3.75,4.5,-0.11,0.08,0.95,1022.31,1.2,-0.9,1.0,1.0,2.25,1.25,1.25,2.0,0.5,0.5,0.5,1.0,1.5,1.0,0.75,0.52,1.39,2.58,179.04,-7.8,9.8
4.4,3.0,1.75,5.25,9.0,9.5,8.25,3.0,7.25,3.0,5.0,3.25,3.0,2.75,-0.11,0.08,0.95,1036.25,2.8,8.9,1.0,1.0,2.25,0.5,1.25,2.0,0.25,0.75,0.75,1.0,1.5,1.0,0.75,0.33,1.95,2.39,202.45,-6.7,5.2
4.42,2.75,1.5,5.25,9.5,10.5,8.25,3.0,7.25,3.0,4.75,3.0,2.5,2.75,-0.11,0.08,0.95,1057.41,2.6,11.0,0.75,1.0,2.25,0.75,1.25,1.75,0.25,0.5,0.5,1.5,0.25,0.75,0.75,-0.05,2.52,1.58,204.92,-5.9,12.8
4.44,3.25,2.0,5.25,12.0,12.0,8.5,3.0,6.75,2.75,4.75,2.25,2.5,2.5,-0.11,0.08,0.95,1098.9,3.3,17.2,0.75,1.0,2.25,0.75,1.25,1.75,0.0,0.75,0.0,1.5,0.75,0.25,0.25,-0.55,2.77,0.52,193.12,-5.9,20.8
4.46,4.25,2.0,5.5,12.5,13.0,9.0,3.0,6.5,2.75,4.5,2.0,2.25,1.75,-0.11,0.08,0.95,1157.53,4.0,22.2,0.0,0.0,0.5,0.5,0.0,1.0,0.0,0.0,0.0,0.0,0.25,0.0,0.5,-1.67,4.33,0.39,134.43,-0.9,6.9
4.48,4.5,2.75,6.5,14.0,14.0,9.0,1.25,6.0,2.5,2.75,2.0,2.25,1.5,-0.11,0.08,0.95,1221.02,5.2,28.6,0.0,0.0,0.5,0.5,0.0,0.5,0.0,0.0,0.0,0.0,0.25,0.0,0.5,-2.55,4.2,0.02,84.86,-5.9,1.3
4.5,4.5,2.5,6.5,14.5,14.0,9.0,1.75,5.5,2.0,2.75,2.0,2.25,1.5,-0.05,0.14,0.95,1261.68,5.4,29.5,0.0,0.0,2.5,0.75,1.5,2.75,0.0,0.75,0.5,1.5,0.25,1.0,0.75,-1.8,2.83,0.14,99.69,-1.4,0.8
4.52,5.0,2.25,7.75,15.5,15.0,9.0,1.75,5.25,2.0,2.75,1.5,2.25,1.5,-0.05,0.14,0.95,1309.21,6.2,32.0,0.5,0.75,1.75,0.75,1.75,1.0,0.0,0.5,0.5,0.25,1.0,0.25,1.5,0.02,0.89,-0.36,122.02,-6.0,8.4
4.54,4.75,2.25,8.25,17.0,15.0,9.0,2.5,4.5,2.0,2.75,1.0,2.25,1.5,-0.11,0.14,0.95,1339.54,6.9,33.9,0.75,1.0,0.5,0.75,0.0,1.0,0.0,0.5,0.25,2.25,2.5,1.25,1.75,0.45,-1.23,1.77,155.79,-1.6,-35.0
4.56,4.75,1.75,9.0,15.0,16.0,8.0,4.75,3.75,1.25,1.25,0.0,0.75,0.5,-0.05,0.14,0.95,1324.12,8.5,44.3,1.0,1.0,1.75,0.5,1.0,3.25,0.0,0.75,0.5,5.25,0.75,4.25,5.75,0.08,0.14,0.02,229.83,2.9,-43.0
4.58,5.75,1.5,8.0,16.0,14.5,8.0,4.5,2.25,1.25,0.75,0.0,0.75,0.5,-0.05,0.14,0.95,1273.58,9.6,47.5,0.0,0.25,0.0,0.5,0.0,5.25,0.0,4.25,0.75,8.0,1.75,6.5,7.0,-0.17,1.02,6.7,323.89,9.1,-64.6
4.6,6.0,1.5,9.0,17.0,15.0,7.5,3.25,2.25,1.0,1.25,0.0,0.75,0.5,-0.11,0.2,1.02,1231.18,10.0,47.7,1.25,1.5,1.75,2.5,1.75,6.25,0.0,6.75,1.25,9.25,8.5,7.5,8.75,-0.05,0.58,1.14,544.63,3.1,-45.6
4.62,7.25,1.75,9.5,17.0,15.0,7.25,4.25,1.5,1.25,2.25,0.0,0.75,0.5,-0.05,0.2,1.02,1221.96,10.8,47.6,1.0,1.5,2.5,2.75,3.0,6.25,0.75,6.5,1.75,8.75,8.5,6.75,8.75,-0.05,0.08,1.02,776.09,2.3,-40.3
4.64,8.0,3.0,9.75,19.5,15.0,7.0,5.0,2.25,0.5,2.75,0.5,1.75,1.0,-0.11,0.2,1.02,1292.99,10.9,44.6,0.5,1.5,2.75,2.75,2.5,6.5,1.0,6.75,1.5,8.75,7.5,6.5,8.25,0.14,0.08,0.95,953.62,2.7,-39.9
4.66,9.0,3.25,12.0,20.0,16.5,5.0,4.75,2.25,0.5,2.75,0.75,1.0,0.75,-0.11,0.2,1.08,1369.13,12.6,48.0,0.5,1.75,2.5,2.75,1.75,6.5,1.25,6.5,1.5,8.75,6.5,6.5,8.25,0.14,0.08,0.89,1019.49,2.9,-40.5
4.68,8.75,1.75,12.0,17.0,15.5,3.0,4.25,0.5,1.0,1.5,0.0,0.75,0.5,-0.17,0.27,1.14,1356.63,15.0,53.0,1.0,1.75,3.0,2.75,2.5,6.5,1.25,6.75,1.75,8.75,7.5,6.5,8.25,0.14,0.08,0.89,1055.54,2.0,-37.6
4.7,10.5,3.0,12.0,18.5,14.0,3.0,2.75,0.25,1.0,2.0,0.75,0.75,0.75,-0.17,0.27,1.2,1345.71,15.5,52.8,1.0,1.75,2.75,3.0,2.75,6.5,2.0,6.75,1.75,8.75,7.75,6.5,8.25,0.08,0.08,0.95,1067.22,1.8,-36.9
4.72,10.0,3.25,12.5,17.0,12.5,2.25,1.75,0.25,1.25,2.0,0.75,1.25,0.75,-0.23,0.39,1.33,1294.19,16.2,51.4,1.0,1.75,3.25,2.75,3.25,6.5,1.75,7.0,1.75,8.75,7.75,6.5,8.5,0.08,0.08,0.95,1073.7,1.8,-36.1
4.74,10.0,2.0,11.0,12.5,9.75,0.25,0.5,0.25,0.75,1.25,0.0,0.5,0.25,-0.42,0.58,1.52,1116.99,19.0,58.7,1.0,1.75,2.75,3.0,3.75,6.75,1.25,7.0,1.75,8.75,7.25,6.5,8.25,0.08,0.08,0.95,1061.71,2.3,-34.9
4.76,11.0,3.25,9.0,10.0,8.0,1.75,0.0,1.5,0.5,0.25,0.5,0.5,0.75,-0.67,0.89,2.08,944.1,17.4,57.7,1.0,1.75,2.75,3.0,3.5,6.75,2.0,7.0,1.75,8.25,7.25,6.0,8.25,0.08,0.08,0.95,1036.47,2.1,-34.0
4.78,9.0,3.0,7.75,7.75,7.75,0.25,0.0,1.5,1.25,2.75,0.5,1.0,0.5,-0.86,1.14,2.95,784.75,15.7,46.4,1.0,1.75,3.25,3.0,4.25,7.0,2.0,6.75,1.75,8.25,7.0,6.0,8.0,0.08,0.08,0.95,993.89,1.8,-31.1
4.8,6.75,1.5,5.5,6.25,7.0,0.5,0.0,0.5,1.25,0.0,0.5,0.5,0.75,-0.55,0.33,2.39,605.82,16.7,52.9,1.0,1.75,3.25,3.0,5.5,7.25,2.5,7.0,2.5,8.25,6.75,5.75,7.75,0.08,0.08,0.95,955.63,1.7,-28.0
4.82,4.0,0.0,3.0,0.0,5.75,0.25,0.0,0.0,0.25,0.0,0.0,0.0,0.0,-0.8,0.39,2.77,370.54,16.0,65.0,1.0,1.75,3.25,3.0,5.25,7.25,2.75,7.0,2.5,8.0,7.0,5.25,7.75,0.08,0.08,0.95,925.85,1.6,-27.6
4.84,1.25,1.25,2.25,0.0,5.75,0.0,0.0,0.0,0.25,0.0,0.25,0.0,0.0,-0.92,-0.55,1.33,224.25,10.8,59.6,1.25,1.75,3.5,3.25,6.25,7.5,3.0,7.0,2.5,7.5,6.75,5.25,6.75,0.08,0.08,0.95,911.41,1.0,-22.5
4.86,2.25,1.25,2.0,1.75,4.75,1.25,0.0,0.0,0.5,0.5,0.0,1.25,0.0,-1.48,-0.55,3.14,123.2,10.1,43.5,2.25,1.75,3.75,4.5,7.0,7.5,3.25,6.75,2.75,7.0,6.5,4.25,6.5,0.08,0.08,0.95,934.96,-0.1,-15.2
4.88,1.0,1.5,3.0,2.25,5.75,1.25,0.0,0.25,0.25,1.0,0.5,0.5,0.5,-1.36,-1.48,0.77,87.62,7.8,38.5,2.5,1.75,4.0,5.25,7.25,7.75,4.0,6.75,2.75,6.5,6.25,4.0,5.5,0.08,0.14,0.95,961.74,-1.0,-10.2
4.9,1.0,1.25,3.0,1.25,5.75,1.25,0.0,0.0,0.5,0.75,0.5,0.75,0.5,-0.86,-0.3,0.45,95.1,8.0,36.0,3.0,1.75,5.25,5.5,7.75,7.75,4.0,6.5,2.75,6.0,5.0,3.0,4.75,0.08,0.14,0.95,977.87,-2.1,-2.2
4.92,0.25,1.5,3.0,1.75,5.75,1.75,0.0,0.25,0.25,1.0,0.5,0.75,0.5,-0.42,-0.3,0.02,128.25,5.7,33.5,3.5,1.75,5.5,7.25,8.25,7.75,4.75,6.0,2.5,5.25,4.75,2.75,4.25,0.02,0.14,0.95,996.0,-3.5,4.0
4.94,1.0,1.25,3.0,1.75,5.75,1.75,0.0,0.0,0.25,1.5,0.75,1.0,0.5,-0.42,-0.11,0.33,152.49,6.5,29.9,4.75,2.0,5.5,7.5,8.75,8.0,5.0,6.0,2.5,4.25,4.75,2.25,2.75,0.02,0.14,0.95,1012.95,-4.7,12.0
4.96,1.0,1.25,3.0,1.75,5.75,1.75,0.0,0.0,0.0,0.75,0.5,1.0,0.75,-0.36,-0.17,0.64,177.18,7.0,34.6,5.0,2.25,6.5,9.0,9.5,8.0,5.25,5.5,2.25,4.0,4.0,1.5,2.5,0.02,0.14,0.95,1041.6,-5.8,19.0
4.98,1.25,1.25,3.0,1.75,5.75,1.25,0.0,0.0,0.0,0.5,0.5,1.0,0.5,-0.48,-0.11,0.95,202.06,8.8,39.1,5.75,2.5,7.0,9.5,9.75,8.25,5.5,5.0,1.75,4.0,3.75,1.25,2.5,0.02,0.14,0.95,1077.12,-6.5,22.8
5.0,1.25,1.25,3.0,1.75,5.75,1.75,0.0,0.0,0.25,0.75,0.75,1.0,0.5,-0.48,0.08,0.95,222.74,7.8,34.9,6.0,2.5,7.75,11.0,11.0,8.5,5.75,4.75,1.75,3.5,3.75,1.25,2.25,0.02,0.14,0.95,1136.59,-7.3,26.4
5.02,1.25,1.25,3.0,1.75,5.75,1.75,0.0,0.0,0.5,0.5,0.5,1.25,0.5,-0.42,0.33,0.89,244.12,8.1,35.0,6.5,3.0,8.25,12.0,11.5,8.5,6.0,3.75,1.25,3.0,2.75,1.25,1.5,0.02,0.14,0.95,1182.93,-8.5,33.6
5.04,1.25,1.25,3.0,1.75,5.75,1.75,0.0,0.0,0.25,1.75,0.5,0.75,0.75,-0.36,0.45,1.02,266.93,6.2,30.6,7.0,3.25,8.75,12.5,12.0,8.5,6.0,3.5,1.25,2.75,2.75,1.0,1.5,0.02,0.14,0.95,1232.76,-9.1,36.0
5.06,1.25,1.0,3.0,1.75,5.75,1.25,0.0,0.0,0.25,1.5,0.5,0.75,0.5,-0.23,0.58,1.27,277.31,7.5,33.0,8.0,3.0,9.0,13.5,12.5,8.5,6.0,2.5,1.0,2.5,2.75,1.25,1.5,-0.05,0.2,0.95,1277.06,-10.0,38.3
5.08,0.75,0.0,1.0,0.0,2.25,0.0,0.0,0.0,0.0,0.0,0.0,0.75,0.0,-0.3,0.64,1.39,219.39,12.1,37.1,8.0,2.5,9.25,13.0,12.5,8.5,5.75,1.75,0.75,2.0,2.5,1.25,1.25,-0.05,0.2,1.02,1283.4,-10.5,40.8
5.1,1.25,1.0,3.0,1.25,5.75,1.75,0.0,0.25,0.25,1.25,0.5,1.0,0.5,-0.36,0.77,1.64,216.53,6.4,30.9,8.25,2.25,9.5,14.0,12.5,7.75,5.75,2.25,0.75,2.5,2.5,1.0,1.0,-0.05,0.2,1.08,1285.55,-10.9,40.8
5.12,0.75,0.0,3.0,0.0,5.75,0.25,0.0,0.25,0.25,0.0,0.0,0.5,0.0,-0.42,0.83,1.83,187.92,10.1,46.8,9.0,2.75,11.0,14.0,12.5,0.0,4.75,1.25,0.75,0.0,2.75,1.25,0.75,-0.05,0.27,1.08,1215.39,-17.4,49.1
5.14,1.25,1.0,3.0,0.75,5.75,1.75,0.0,0.25,0.5,2.0,0.5,0.75,0.5,-0.36,0.95,2.08,216.47,5.3,26.9,9.5,2.5,10.5,13.0,12.5,0.0,2.75,0.25,0.5,1.0,2.75,1.25,1.0,0.02,0.33,1.08,1133.3,-17.1,48.4
5.16,1.25,1.0,3.0,0.75,5.75,2.0,0.0,0.25,0.5,2.0,0.25,1.25,0.5,-0.23,1.14,2.08,232.64,5.0,24.7,9.75,3.0,11.0,14.0,12.5,6.5,2.0,0.0,0.5,0.5,2.25,1.25,1.25,0.08,0.33,1.2,1113.89,-13.7,49.6
5.18,1.25,1.0,2.75,0.5,5.75,1.75,0.0,0.25,0.5,1.5,0.5,0.75,0.5,0.08,1.64,1.83,252.57,5.2,28.8,9.75,2.5,11.0,12.5,11.0,5.5,1.0,0.75,0.5,0.75,2.0,1.0,1.0,0.2,0.45,1.33,1079.56,-14.2,49.5
5.2,1.5,1.0,3.0,1.0,5.75,1.75,0.0,0.25,0.5,2.0,0.5,1.5,0.75,0.39,1.95,1.45,264.23,5.7,21.3,9.75,2.75,10.5,10.5,8.5,5.5,0.5,0.75,0.75,0.75,2.75,1.0,0.75,0.39,0.58,1.45,1021.72,-14.8,47.9
5.22,1.75,0.5,3.0,1.75,5.75,1.75,0.0,0.25,0.5,2.0,0.5,1.0,0.5,0.7,2.08,0.83,273.8,6.5,26.6,8.75,1.75,8.5,7.0,6.75,3.5,0.0,0.5,0.75,0.0,2.0,1.0,1.25,0.58,0.95,3.27,861.7,-15.9,47.4
5.24,1.75,1.0,2.5,1.75,5.5,1.5,0.0,0.25,0.75,1.5,0.5,1.0,0.5,1.52,3.27,-0.17,278.69,6.9,28.9,5.75,0.75,5.0,5.25,5.25,3.25,0.0,0.75,0.5,1.0,2.75,1.0,0.0,0.08,1.08,2.7,651.53,-13.0,38.6
5.26,1.25,0.75,2.5,1.25,5.5,0.5,0.0,0.0,0.5,0.0,0.0,0.75,0.0,0.77,2.77,-0.3,260.63,10.9,48.8,2.25,0.75,2.0,2.0,1.25,2.0,0.0,0.25,0.5,0.0,1.5,0.5,0.0,0.58,0.39,2.14,378.19,-13.1,36.6
5.28,1.25,1.0,1.0,0.0,5.75,1.0,0.0,0.0,0.5,2.0,0.75,2.0,0.5,-1.17,-1.48,-0.86,251.51,2.5,10.1,0.75,0.5,2.75,0.0,1.25,3.25,0.0,0.0,0.25,0.0,1.0,0.0,0.5,-0.73,-0.55,1.52,216.21,-6.8,32.5
5.3,1.25,0.0,1.75,0.0,5.75,1.75,0.0,2.25,1.0,3.5,1.25,2.5,4.75,-0.23,0.14,1.77,275.46,-2.3,-24.6,0.75,0.0,1.25,0.5,0.0,2.75,0.0,0.25,0.25,0.0,0.5,0.0,0.0,0.64,-0.92,0.52,65.31,-4.5,34.5
5.32,1.75,0.0,2.25,2.25,3.0,3.75,0.0,3.0,2.0,9.0,1.25,6.75,6.0,-3.17,1.08,4.64,374.42,-2.0,-39.5,1.5,0.75,3.25,0.5,1.0,2.75,0.0,0.75,0.5,0.0,0.5,0.0,0.0,0.52,-0.61,0.2,5.42,-11.3,44.5
5.34,2.0,1.25,0.25,3.25,5.25,6.0,0.0,8.25,4.5,10.5,8.5,9.25,9.75,1.27,0.89,1.77,647.76,-3.1,-43.0,0.5,0.0,0.5,0.75,0.25,3.25,0.0,0.0,0.75,0.5,0.25,0.0,0.0,0.77,-0.55,0.08,0.0,2.6,23.9
5.36,2.0,0.0,0.0,3.5,4.5,5.75,0.0,8.5,4.0,9.75,9.5,8.5,10.0,0.7,0.02,1.27,929.38,-3.4,-46.9,1.0,0.0,1.75,2.0,1.75,3.25,0.0,1.0,0.5,0.0,2.25,0.0,0.75,1.08,-0.42,-0.11,0.0,-4.3,15.9
5.38,2.0,0.0,2.25,3.0,3.0,5.75,0.0,7.75,2.75,7.75,6.75,6.5,8.25,-0.17,-0.17,0.95,1061.13,-2.4,-40.2,0.0,0.0,0.5,0.5,0.25,2.0,0.0,0.5,0.25,0.0,0.25,0.0,0.0,1.02,-0.3,0.14,0.0,4.3,22.4
5.4,2.5,1.5,3.0,4.5,5.75,6.75,0.0,6.75,2.25,7.25,4.5,4.5,6.0,-0.3,0.02,0.83,1073.64,-1.1,-17.4,0.0,0.0,0.5,0.5,0.25,2.0,0.0,0.25,0.5,0.25,0.25,0.0,0.0,0.64,-0.05,0.39,0.0,3.3,17.0
5.42,3.5,0.0,3.25,4.5,6.25,7.5,1.25,7.75,3.0,7.25,4.5,4.25,5.75,-0.17,0.08,0.89,1053.01,-0.8,-16.4,0.75,0.75,2.75,1.5,1.0,3.25,0.25,0.25,0.5,1.0,1.5,1.0,0.5,0.2,0.39,0.52,12.96,-6.9,13.3
5.44,3.75,0.0,4.0,4.75,7.75,8.0,1.0,8.0,3.5,7.0,4.5,4.0,5.5,-0.05,0.08,0.95,1053.15,-0.2,-11.7,0.0,0.0,0.5,0.5,0.25,2.25,0.0,0.25,0.25,0.0,0.0,0.0,0.0,-0.86,1.08,0.89,26.65,5.5,33.0
5.46,5.0,1.25,5.25,6.25,8.0,8.0,1.5,8.0,3.25,5.75,3.25,2.75,4.5,-0.05,0.08,1.02,1093.57,2.0,2.3,0.0,0.0,0.5,0.5,0.0,2.0,0.0,0.0,0.25,0.0,0.25,0.0,0.0,-1.55,1.39,1.02,43.61,2.5,28.7
5.48,6.25,1.5,5.75,7.75,9.0,8.5,1.75,7.5,2.5,4.75,2.0,2.25,2.75,-0.11,0.08,1.02,1141.7,3.6,15.4,0.0,0.0,1.5,0.75,0.0,2.0,0.0,0.0,0.5,0.0,0.25,0.0,0.0,-4.48,3.45,1.83,51.96,-7.6,33.6
5.5,7.25,1.5,6.5,8.5,9.25,8.5,2.0,6.5,1.5,4.5,2.0,1.75,1.75,-0.05,0.14,1.02,1154.15,5.3,23.1,0.0,0.0,0.5,0.5,0.0,2.0,0.0,0.0,0.25,0.0,0.25,0.0,0.0,-0.67,1.14,0.64,57.79,2.5,28.7
5.52,8.25,1.5,7.5,11.0,10.5,8.5,1.5,5.5,1.25,3.0,0.75,1.0,1.5,-0.11,0.2,1.02,1145.44,7.2,34.7,0.0,0.0,1.0,0.5,0.25,2.0,0.0,0.0,0.25,0.0,0.25,0.0,0.0,-1.05,1.02,0.2,50.39,-2.3,34.4
5.54,9.0,1.5,8.0,11.5,11.5,8.0,0.0,4.25,1.0,3.0,0.75,1.25,0.75,-0.17,0.2,1.2,1120.19,8.3,39.3,0.0,0.0,0.5,0.5,0.5,2.0,0.0,0.0,0.25,0.0,0.0,0.0,0.0,-1.23,0.58,0.2,50.27,3.5,39.3
5.56,9.5,1.75,8.25,12.5,12.0,7.5,0.0,3.5,0.5,2.75,0.75,0.75,0.75,-0.23,0.27,1.14,1099.13,9.3,43.7,1.0,0.0,0.0,0.75,0.5,2.0,0.0,0.0,0.25,0.0,0.25,0.0,0.0,-1.61,-0.05,0.39,54.23,-1.4,43.7
5.58,11.0,1.75,8.25,12.5,10.0,6.25,0.0,2.5,0.5,2.75,0.75,0.5,0.75,-0.17,0.33,1.08,1060.9,11.5,46.9,1.0,0.75,2.25,1.0,1.25,3.25,0.25,0.5,0.5,1.5,1.75,1.0,0.75,-2.48,0.02,1.52,114.91,-4.3,5.2
5.6,11.5,1.5,7.75,12.5,9.25,5.0,0.0,1.75,0.75,2.5,0.5,1.5,0.75,-0.11,0.39,1.08,1038.73,12.9,46.2,1.0,0.75,1.5,0.75,1.75,3.25,0.0,0.75,0.5,1.5,1.25,1.0,0.75,-1.98,-0.11,1.08,162.29,-1.3,4.9
5.62,11.5,3.0,8.0,11.5,9.5,4.0,0.0,0.75,1.0,2.75,0.75,1.5,0.5,-0.23,0.45,1.02,1010.18,13.9,48.5,1.0,0.75,2.0,1.0,0.25,3.25,0.0,0.75,0.5,1.5,1.25,1.0,0.75,-2.05,0.08,0.83,203.74,-3.5,1.9
5.64,12.0,3.0,5.75,8.0,0.0,3.0,0.0,1.5,0.75,2.5,0.75,1.25,0.5,-0.23,0.45,1.14,840.24,17.9,47.1,0.0,0.0,2.25,0.75,2.25,2.25,0.0,0.5,0.25,0.0,1.5,0.0,0.75,-1.48,-0.11,0.77,203.69,-4.1,16.2
5.66,12.0,1.75,5.0,7.0,0.0,1.75,0.0,1.75,0.5,0.0,0.5,0.5,0.5,-0.11,0.52,1.2,648.8,22.0,59.4,0.0,0.0,0.5,0.5,0.5,2.0,0.0,0.25,0.0,0.0,0.0,0.0,0.0,-1.3,-0.17,0.52,164.08,5.4,39.2
5.68,10.5,2.5,3.75,0.0,7.75,1.75,0.0,0.0,0.25,0.0,0.0,0.0,0.0,0.08,0.39,1.08,474.05,16.9,72.9,0.0,0.0,0.75,0.5,0.0,2.0,0.0,0.0,0.25,1.25,0.0,1.0,0.0,-1.55,0.39,0.45,134.83,2.1,-12.5
5.7,9.75,2.5,0.0,3.25,0.0,0.25,0.0,0.25,0.25,0.0,0.0,0.0,0.0,-0.17,0.83,0.89,317.7,25.4,84.2,1.0,0.75,2.25,1.25,1.5,3.25,0.0,1.0,0.5,1.5,2.25,1.0,0.75,-1.67,0.58,0.58,161.03,-3.8,3.1
5.72,8.5,1.5,0.0,0.0,5.25,0.25,0.0,0.25,0.0,0.0,0.0,0.0,0.0,-0.8,1.83,0.33,231.22,16.6,78.1,0.75,0.75,2.25,0.75,1.75,3.25,0.0,0.5,0.5,1.0,2.5,0.75,0.75,-1.11,0.2,1.2,192.04,-4.0,5.2
5.74,7.5,1.25,0.0,1.0,5.0,0.0,0.0,0.25,0.0,0.25,0.0,0.5,0.0,-0.23,1.39,0.33,170.75,15.9,68.2,1.0,1.0,1.75,0.75,1.25,3.25,0.0,0.75,0.5,1.25,2.0,1.0,0.75,-0.8,0.14,0.95,221.46,-3.0,3.1
5.76,6.0,0.0,0.0,3.75,0.75,1.0,0.0,0.75,0.25,2.25,0.0,1.25,0.0,-0.73,0.95,-0.3,135.97,12.9,32.1,1.0,0.75,1.75,0.75,1.0,3.25,0.0,0.75,0.5,1.0,1.5,1.0,0.75,-0.55,0.08,0.64,227.16,-3.0,4.4
5.78,4.75,0.0,1.0,0.0,5.75,0.0,0.0,0.0,0.25,2.5,0.5,1.5,0.25,-1.8,1.95,-1.11,124.77,8.8,24.9,0.75,0.0,1.75,0.75,1.5,3.25,0.0,0.75,0.5,1.0,1.25,1.0,0.75,-0.55,-0.11,0.45,220.75,-1.5,0.9
5.8,2.75,1.5,1.75,2.5,1.75,0.75,0.0,1.25,0.5,2.5,0.25,1.25,0.0,-1.3,2.14,-1.8,132.1,9.4,22.7,0.75,0.0,2.25,0.75,1.0,3.25,0.0,0.5,0.5,1.0,2.0,1.0,0.75,-0.8,-0.23,0.83,206.91,-3.9,-2.3
5.82,2.75,1.5,2.0,0.25,3.5,0.25,0.0,0.0,0.5,2.5,0.5,1.0,0.0,-0.42,0.33,0.45,139.36,10.1,27.4,0.75,0.5,2.25,0.75,1.0,3.25,0.0,0.5,0.5,0.75,1.75,0.75,1.0,-0.92,-0.3,1.33,199.41,-4.0,3.9
5.84,1.75,1.5,1.5,0.0,1.75,0.25,0.0,0.0,0.25,1.25,0.5,1.0,0.0,-0.61,0.08,0.7,122.29,12.1,27.5,0.75,0.0,0.75,0.75,1.25,3.25,0.0,0.5,0.5,0.0,1.5,0.75,0.75,-1.05,-0.17,1.33,190.36,-0.1,2.6
5.86,1.0,0.0,2.25,0.0,1.75,0.25,0.0,0.5,0.25,0.75,0.0,0.5,0.0,-0.55,0.83,0.39,100.65,12.8,27.8,1.0,0.0,2.25,0.75,1.25,3.25,0.0,0.5,0.5,0.0,1.5,1.0,1.0,-1.11,-0.23,0.89,191.56,-5.2,6.9
5.88,1.0,0.0,0.75,0.0,1.75,0.25,0.0,0.0,0.25,0.75,0.0,0.5,0.0,-0.11,1.27,0.27,78.99,8.3,24.5,0.0,0.0,2.25,0.5,1.25,3.25,0.0,0.5,0.5,1.0,2.0,0.75,0.75,-0.8,-0.36,0.45,190.07,-1.6,-5.7
5.9,1.0,0.0,0.75,0.0,0.75,0.25,0.0,0.0,0.5,0.25,0.0,1.0,0.0,-0.55,0.95,0.39,53.86,14.2,10.0,0.75,0.75,2.0,0.75,1.5,3.0,0.0,0.5,0.5,1.25,2.25,0.0,0.75,-0.48,-0.3,0.39,197.66,-3.3,8.7
5.92,2.0,1.25,0.75,1.5,0.5,1.5,0.0,0.25,0.75,2.5,0.0,1.0,0.5,-1.73,0.7,0.2,82.54,5.7,10.7,0.75,0.75,0.5,0.75,1.0,3.25,0.25,0.5,0.5,1.5,0.5,0.75,0.75,-0.48,0.14,0.39,185.22,2.3,3.1
5.94,1.0,1.25,2.0,1.25,3.75,1.75,0.0,0.25,0.75,1.75,0.25,1.0,0.5,-2.36,0.45,-0.11,138.7,4.9,22.0,0.75,0.75,2.25,0.5,2.5,3.25,0.0,0.5,0.25,1.25,2.0,0.75,0.75,-0.55,0.39,0.2,193.81,-2.8,8.8
5.96,1.0,0.0,0.5,0.0,1.75,0.25,0.0,0.0,0.25,0.0,0.0,0.0,0.0,-2.23,0.27,-0.23,126.22,10.9,58.0,0.0,0.0,2.5,0.0,1.25,1.5,0.0,0.0,0.0,0.0,0.25,0.0,0.0,-0.8,0.39,0.39,162.16,-11.2,46.5
5.98,1.0,0.0,0.5,0.0,0.0,0.25,0.0,0.0,0.25,0.0,0.0,0.5,0.0,-1.36,0.14,0.02,94.09,22.4,27.4,0.0,0.0,0.5,1.0,0.0,3.0,0.0,0.0,0.0,0.0,0.0,0.0,0.0,-0.86,0.45,0.33,127.18,6.1,42.9
6.0,1.0,0.0,1.0,0.0,1.25,0.0,0.0,0.25,0.25,0.0,0.0,0.5,0.0,-0.98,0.08,-0.17,62.02,16.0,35.8,0.0,0.0,0.75,0.0,0.0,1.25,0.0,0.0,0.0,0.0,0.25,0.0,0.0,-0.8,0.45,0.2,74.41,-2.3,31.4
6.02,1.0,0.0,1.0,0.0,0.0,0.25,0.0,0.0,0.25,0.0,0.0,0.5,0.0,-0.8,-0.05,-0.36,35.39,25.1,33.3,0.0,0.0,0.5,0.0,0.0,1.5,0.0,0.25,0.0,0.25,0.25,0.0,0.0,-0.8,0.39,0.27,41.6,6.8,12.2
6.04,1.0,0.0,0.75,0.0,1.25,0.25,0.0,0.0,0.25,0.0,0.0,0.5,0.0,-0.8,-0.05,-0.48,32.65,14.3,38.6,0.0,0.0,0.5,0.0,0.0,1.5,0.0,0.0,0.0,0.0,0.25,0.0,0.0,-0.67,0.2,0.33,15.33,4.6,28.2
6.06,1.0,0.0,0.5,0.0,1.75,0.25,0.0,0.0,0.25,0.0,0.0,0.5,0.0,-0.67,0.02,-0.67,45.55,10.7,39.3,0.0,0.0,0.5,0.0,0.0,1.75,0.0,0.0,0.0,0.0,0.25,0.0,0.0,-0.55,-0.05,0.39,9.37,6.4,28.8
6.08,1.0,0.0,1.0,0.0,0.0,0.0,0.0,0.25,0.25,0.0,0.0,1.0,0.0,-0.55,0.02,-0.73,51.77,23.0,7.4,0.75,0.0,0.5,0.0,0.0,1.5,0.0,0.0,0.0,1.75,0.0,0.75,0.0,-0.42,-0.3,0.33,22.05,1.7,-12.8
6.1,1.0,0.0,0.75,0.0,0.0,0.25,0.0,0.0,0.25,0.0,0.0,0.5,0.0,-0.17,0.08,-0.55,44.38,23.9,30.6,0.75,0.0,2.0,0.25,1.5,2.0,0.0,0.5,0.0,0.0,0.5,0.0,0.75,-0.05,-0.67,0.2,52.97,-5.3,26.8
6.12,1.0,0.0,0.75,0.0,0.0,0.25,0.0,0.25,0.25,0.0,0.0,0.5,0.0,0.02,0.08,-0.23,38.52,20.4,24.7,0.75,1.0,0.5,0.5,0.0,3.0,0.0,0.0,0.25,1.5,0.5,0.0,0.5,0.08,-0.86,-0.11,83.34,2.5,13.5
6.14,1.5,0.0,2.75,0.0,1.75,0.25,0.0,0.5,0.25,0.0,0.25,0.5,0.0,0.08,0.08,-0.17,62.14,18.4,40.6,0.0,0.0,0.5,0.0,0.0,2.0,0.0,0.0,0.0,0.0,0.25,0.0,0.0,0.08,-1.3,-0.05,77.56,7.9,29.3
6.16,1.0,0.0,1.0,0.0,0.0,0.25,0.0,0.25,0.25,0.0,0.0,0.0,0.0,0.02,0.08,-0.11,54.76,24.3,53.0,0.0,0.0,0.5,0.5,0.0,2.0,0.0,0.0,0.0,0.0,0.25,0.0,0.0,0.2,-1.98,0.39,69.05,3.7,34.0
6.18,1.0,0.0,0.75,0.0,0.0,0.25,0.0,0.25,0.25,0.0,0.0,0.5,0.0,0.02,0.02,-0.11,58.9,20.4,24.7,0.75,0.0,2.25,0.75,1.0,3.25,0.5,0.5,0.5,1.25,1.75,1.0,0.0,-0.23,-2.05,0.7,106.46,-4.9,4.4
6.2,1.75,1.25,0.25,0.25,0.0,1.75,0.0,0.25,0.5,0.5,0.0,1.25,0.0,0.02,0.02,-0.23,83.72,7.2,22.6,0.0,0.0,1.5,0.5,1.0,2.0,0.75,0.0,0.0,1.0,2.25,1.0,0.0,-0.11,-1.8,0.52,133.91,-5.1,-9.1
6.22,1.0,0.0,0.75,0.0,0.0,0.25,0.0,0.25,0.0,0.0,0.0,0.75,0.0,-0.05,0.02,-0.3,76.25,20.1,18.7,0.75,1.0,0.75,0.5,1.0,3.0,0.5,0.5,0.5,1.25,2.5,1.0,0.75,0.08,-1.48,0.14,174.21,-1.2,-7.0
6.24,1.0,0.0,2.75,0.0,0.75,0.25,0.0,0.25,0.0,0.0,0.0,0.5,0.0,-0.11,0.02,-0.36,82.75,23.6,45.2,0.75,1.0,1.75,0.75,0.25,3.25,0.0,0.75,0.5,1.0,2.5,1.0,0.75,0.14,-0.92,0.27,199.06,-3.6,-3.8
6.26,1.5,1.0,1.75,0.5,1.75,1.75,0.0,0.75,0.25,0.0,0.5,0.5,0.0,-0.11,-0.11,-0.36,113.18,9.1,39.7,0.75,1.0,2.25,0.75,0.0,3.25,0.0,0.25,0.5,1.0,2.5,1.25,0.75,0.27,-0.67,0.58,215.86,-5.8,-3.2
6.28,1.0,0.0,0.5,0.0,0.0,0.25,0.0,0.25,0.0,0.0,0.0,0.75,0.0,-0.17,-0.3,-0.3,102.13,18.4,14.6,1.0,0.75,2.5,0.5,0.5,3.25,0.25,0.25,0.5,1.25,2.5,1.25,0.75,0.27,-0.61,1.08,222.99,-6.0,-2.2
6.3,1.0,0.0,0.75,0.0,1.75,0.25,0.0,0.25,0.0,0.0,0.0,0.5,0.0,-0.17,-0.36,-0.3,96.98,10.6,40.4,0.75,1.0,0.5,0.5,0.0,3.0,0.0,0.5,0.5,0.0,2.75,0.0,0.75,-0.11,-0.42,0.77,208.49,-1.7,0.4
6.32,1.25,1.0,1.25,0.5,2.5,1.75,0.0,1.0,0.25,1.25,0.75,1.0,0.0,-0.17,-0.42,-0.3,127.07,3.7,17.9,0.75,0.75,1.5,0.75,1.75,3.25,0.25,0.5,0.5,1.25,2.75,1.0,0.75,-0.67,-0.48,0.45,214.76,-2.4,-1.7
6.34,1.25,1.0,0.75,0.75,2.25,1.75,0.0,0.5,0.25,1.0,0.5,1.0,0.5,-0.17,-0.48,-0.3,155.1,3.1,16.8,0.75,0.75,1.5,0.75,0.0,3.0,0.25,0.5,0.5,1.25,2.5,1.0,0.75,-0.86,-0.86,0.7,206.98,-3.6,-9.4
6.36,1.25,1.0,2.25,0.5,2.25,1.75,0.0,1.0,0.25,1.25,0.5,0.75,0.5,-0.23,-0.55,-0.3,185.15,5.6,19.6,0.75,0.75,0.5,0.5,1.5,1.0,0.0,0.5,0.0,0.25,2.0,0.0,0.75,-0.92,-1.05,0.83,191.23,-3.8,7.2
6.38,1.25,1.0,2.0,0.5,2.25,1.75,0.0,1.0,0.25,1.25,0.5,1.25,0.5,-0.11,-0.48,-0.3,205.44,5.1,14.1,0.75,0.75,1.75,0.75,0.5,3.0,0.0,0.5,0.25,1.0,2.75,1.25,0.75,-0.86,-1.05,0.64,191.17,-4.1,-7.1
6.4,1.25,1.25,1.5,0.5,1.75,1.75,0.0,1.0,0.25,1.25,0.5,1.0,0.5,-0.11,-0.48,-0.23,216.28,4.2,14.6,1.0,0.75,2.0,0.5,1.5,3.0,0.0,0.5,0.25,1.0,2.0,1.0,0.75,-0.61,-1.11,0.45,192.44,-4.0,4.8
6.42,1.25,1.0,1.25,0.75,0.0,1.75,0.0,0.25,0.25,0.0,0.0,0.75,0.0,-0.55,-0.42,0.2,188.78,11.7,41.2,0.75,0.5,0.5,0.75,0.0,3.25,0.0,0.0,0.5,1.25,1.5,1.25,0.5,-0.48,-1.36,0.45,178.15,0.0,-10.9
6.44,1.25,1.0,1.0,0.0,2.25,1.5,0.0,0.5,0.25,1.25,0.25,1.0,0.5,-1.48,-0.3,0.77,178.64,2.8,14.4,0.75,0.5,1.5,0.75,0.0,1.25,0.0,0.0,0.0,1.25,2.5,0.75,0.5,-0.3,-1.48,0.45,165.03,-8.5,-12.0
6.46,1.25,0.0,1.0,0.0,2.25,0.25,0.0,0.25,0.0,0.0,0.0,0.5,0.0,-2.42,-0.48,1.2,149.52,11.4,44.9,0.0,0.0,2.0,0.5,1.0,2.75,0.0,0.5,0.0,0.0,0.75,0.0,0.0,-0.17,-1.36,0.52,141.45,-3.1,30.7
6.48,1.25,1.25,2.75,1.75,1.75,1.75,0.0,0.5,0.25,1.5,0.5,1.0,0.5,-2.98,-0.3,1.02,169.59,8.6,22.6,1.0,0.25,0.5,0.75,0.0,1.25,0.0,0.0,0.0,0.0,0.25,0.0,0.0,0.02,-0.98,0.7,104.48,-11.4,55.1
6.5,1.25,1.0,1.75,1.75,1.75,1.75,0.0,0.5,0.25,1.5,0.25,0.75,0.5,-3.3,-0.11,-0.05,180.34,6.2,22.4,0.0,0.0,0.5,0.25,0.0,1.25,0.0,0.0,0.0,0.0,0.5,0.0,0.0,-0.11,-0.55,0.77,65.08,-0.9,20.5
6.52,1.25,1.0,2.0,1.75,1.75,1.75,0.0,0.5,0.25,1.5,0.5,0.75,0.5,-2.73,0.14,-0.36,204.9,6.9,21.4,0.0,0.0,1.75,0.5,0.0,1.25,0.0,0.0,0.0,0.0,0.0,0.0,0.0,-0.11,-0.23,0.7,43.77,-14.5,51.4
6.54,1.25,1.25,2.25,1.5,2.5,1.75,0.0,0.5,0.25,2.0,0.5,0.75,0.5,-1.92,0.2,-0.11,212.98,6.0,21.4,0.0,0.0,0.25,0.5,0.0,1.25,0.0,0.0,0.0,0.0,0.25,0.0,0.0,-0.17,0.14,0.58,25.75,2.5,30.8
6.56,1.25,0.75,2.75,1.5,1.75,1.75,0.0,0.5,0.25,1.5,0.5,1.5,0.5,-1.55,0.2,-0.05,217.16,8.4,14.9,0.0,0.0,0.5,0.25,1.25,1.5,0.0,0.0,0.0,0.0,0.75,0.0,0.0,-0.23,0.33,0.33,24.97,1.1,26.9
6.58,1.25,1.0,0.25,1.25,1.75,1.75,0.0,0.5,0.25,2.0,0.0,1.25,0.25,-1.11,0.2,-0.05,206.95,1.0,10.9,0.0,0.0,1.75,0.5,0.0,1.25,0.0,0.0,0.0,0.0,0.5,0.0,0.0,-0.36,0.45,0.2,32.26,-14.0,36.0
6.6,1.25,1.0,3.0,1.25,1.75,1.75,0.0,1.0,0.25,2.0,0.5,1.0,0.5,-0.73,0.2,-0.05,212.03,7.2,15.6,0.0,0.0,0.25,0.25,0.0,1.25,0.0,0.0,0.0,0.0,0.25,0.0,0.0,-0.42,0.45,0.2,28.87,5.1,27.2
6.62,1.25,1.0,2.25,1.75,1.75,1.75,0.0,1.0,0.25,1.75,0.25,0.75,0.5,-0.42,0.14,-0.11,215.4,6.2,20.0,0.0,0.0,0.75,0.5,0.0,1.25,0.0,0.0,0.0,0.0,0.25,0.0,0.0,-0.61,0.2,0.39,22.46,-5.2,36.5
6.64,1.25,1.0,1.5,1.0,1.75,1.75,0.0,1.0,0.25,2.0,0.25,1.0,0.5,-0.23,0.02,-0.11,216.2,3.3,11.3,0.0,0.0,0.5,0.25,0.0,1.25,0.0,0.0,0.0,0.0,0.25,0.0,0.0,-0.67,-0.36,0.39,20.12,0.0,31.1
6.66,1.25,1.0,2.25,1.25,1.75,1.75,0.0,0.75,0.25,2.0,0.5,0.75,0.5,-0.23,-0.05,-0.05,217.22,5.9,16.3,0.0,0.0,0.5,0.25,0.0,1.25,0.0,0.0,0.0,0.0,0.5,0.0,0.0,-0.48,-0.73,0.39,24.65,-0.9,20.5
6.68,1.25,1.25,2.0,0.75,3.5,1.75,0.0,1.0,0.25,2.0,0.25,0.75,0.5,-0.3,-0.11,-0.05,221.57,3.5,20.9,0.0,0.0,0.0,0.5,0.0,1.5,0.0,0.0,0.0,0.0,0.75,0.0,0.0,-0.36,-0.98,0.52,28.26,5.8,8.9
6.7,1.25,1.25,1.75,1.0,3.0,1.75,0.0,1.0,0.0,2.5,0.0,1.5,0.5,-0.36,-0.17,0.02,226.37,2.8,12.9,0.0,0.0,1.0,0.5,0.0,1.25,0.0,0.0,0.0,0.0,0.75,0.0,0.0,-0.48,-1.23,0.64,40.01,-8.4,22.7
6.72,1.25,1.25,1.75,1.0,2.5,1.75,0.0,1.25,0.0,2.5,0.5,1.0,0.5,-0.61,-0.23,0.02,224.91,2.7,11.7,0.0,0.0,0.5,0.5,0.0,1.25,0.0,0.0,0.0,0.0,0.75,0.0,0.0,-0.61,-1.17,0.83,46.06,-3.2,16.0
6.74,1.25,1.0,1.25,1.0,3.0,1.75,0.0,1.0,0.25,2.5,0.25,0.75,0.5,-0.86,-0.23,0.08,225.71,1.4,13.6,0.0,0.0,1.5,0.5,0.0,1.25,0.0,0.0,0.0,1.5,0.75,0.75,0.0,-0.61,-0.92,0.95,64.99,-5.1,-13.7
6.76,1.25,0.75,1.75,1.0,0.75,1.75,0.0,1.0,0.25,2.5,0.5,1.0,0.5,-1.05,-0.23,0.14,213.51,3.8,1.8,0.75,1.0,2.0,0.75,1.0,3.0,0.0,0.25,0.0,0.0,2.5,0.0,0.0,-0.55,-0.61,0.95,107.97,-7.4,27.3
6.78,1.25,1.0,1.75,1.0,0.75,1.75,0.0,1.25,0.25,2.5,0.25,1.0,0.5,-1.23,-0.17,0.14,202.85,3.5,4.4,0.75,1.0,0.5,0.5,0.0,1.75,0.0,0.0,0.0,1.5,1.5,0.75,0.0,-0.55,-0.23,0.89,129.17,-3.3,-1.9
6.8,1.25,1.0,1.75,1.25,2.5,1.75,0.0,1.0,0.25,2.5,0.5,1.0,0.5,-1.42,-0.11,0.14,206.51,3.3,11.1,0.0,0.0,1.5,0.25,0.0,1.25,0.0,0.0,0.0,0.0,1.0,0.0,0.0,-0.55,-0.17,1.08,121.9,-11.9,19.3
6.82,1.25,0.75,1.5,1.25,1.75,1.75,0.0,0.75,0.25,2.5,0.5,1.0,0.5,-1.48,-0.11,0.14,206.02,3.2,6.8,0.0,0.0,0.5,0.5,1.25,1.5,0.0,0.5,0.0,0.25,2.5,0.0,0.0,-0.36,-0.17,1.08,119.31,-0.7,-4.7
6.84,1.25,1.0,2.0,1.5,0.0,1.5,0.0,1.5,0.25,2.5,0.25,1.0,0.5,-1.42,-0.05,0.08,200.69,5.3,3.0,0.0,0.0,0.5,0.5,0.0,1.75,0.0,0.0,0.0,0.0,1.25,0.0,0.0,-0.3,-0.23,1.02,100.07,-1.0,6.8
6.86,1.25,1.0,1.25,1.5,0.75,1.25,0.0,1.25,0.25,2.5,0.5,1.0,0.5,-1.36,0.02,-0.05,195.39,3.8,1.7,0.75,1.0,0.25,0.5,0.0,2.0,0.0,0.0,0.0,0.25,1.5,0.0,0.0,-0.11,-0.55,1.02,97.1,-4.0,24.9
6.88,1.25,1.0,2.25,1.75,0.5,1.0,0.0,1.0,0.25,2.25,0.5,1.0,0.5,-1.3,0.08,-0.11,192.07,8.1,7.9,0.0,0.0,0.5,0.25,0.0,1.25,0.0,0.0,0.0,0.0,1.25,0.0,0.0,0.08,-0.73,1.02,80.68,-3.2,-1.4
6.9,1.25,1.0,3.0,1.75,2.5,1.5,0.0,1.25,0.25,2.25,0.5,1.0,0.5,-1.11,0.08,-0.05,206.29,6.7,16.5,0.0,0.0,0.0,0.5,0.0,1.25,0.0,0.0,0.0,0.0,1.25,0.0,0.0,0.39,-1.05,0.95,69.38,1.6,-7.1
6.92,1.25,1.0,1.25,1.5,3.5,1.75,0.0,0.75,0.5,2.5,0.5,1.0,0.5,-1.05,0.08,0.02,219.26,2.4,13.3,0.0,0.0,0.0,0.5,0.0,1.5,0.0,0.0,0.0,0.0,0.75,0.0,0.0,0.58,-1.11,0.95,50.81,5.8,8.9
6.94,1.25,0.75,1.75,1.75,2.25,1.5,0.0,1.25,0.25,2.5,0.0,0.5,0.5,-0.92,0.02,0.08,224.91,3.4,16.1,0.0,0.0,0.5,0.5,0.0,1.5,0.0,0.0,0.0,0.0,1.5,0.0,0.0,0.7,-1.05,1.45,46.75,-3.0,0.0
6.96,1.25,1.0,1.75,1.75,2.5,1.5,0.0,0.75,0.25,2.25,0.5,1.0,0.5,-0.8,-0.05,0.08,226.73,4.8,14.6,0.0,0.0,0.5,0.5,0.0,1.25,0.0,0.0,0.0,0.0,1.5,0.0,0.0,0.64,-1.11,1.39,43.86,-4.7,-2.0
6.98,1.25,1.0,1.0,1.75,2.25,1.25,0.0,1.0,0.25,2.5,0.25,0.75,0.5,-0.8,-0.05,0.14,220.72,2.7,12.1,0.0,0.0,0.5,0.5,0.0,1.25,0.0,0.0,0.0,0.0,0.75,0.0,0.0,0.7,-1.05,1.02,39.98,-3.2,16.0
7.0,1.25,0.75,2.0,1.75,0.75,1.5,0.0,1.0,0.25,2.25,0.25,1.0,0.5,-0.86,-0.11,0.08,211.58,6.0,8.6,0.0,0.0,0.5,0.5,0.0,1.75,0.25,0.0,0.0,0.0,1.75,0.0,0.0,0.52,-0.8,0.64,45.86,-2.9,-1.4
7.02,1.25,0.75,2.0,1.75,0.0,1.75,0.0,1.25,0.25,2.25,0.5,1.0,0.5,-0.92,-0.11,0.02,201.32,5.8,3.6,0.0,0.0,1.0,0.25,0.0,1.25,0.0,0.0,0.0,0.0,1.0,0.0,0.0,0.27,-0.55,0.58,51.17,-7.9,13.1
7.04,1.25,1.0,2.25,1.75,3.0,1.75,0.0,0.75,0.25,2.5,0.0,0.75,0.5,-0.98,-0.17,0.02,210.04,4.6,20.9,0.0,0.0,0.5,0.5,0.0,1.75,0.0,0.0,0.0,0.0,1.25,0.0,0.0,0.2,-0.48,0.45,56.83,-1.0,6.8
7.06,1.25,1.0,1.75,1.5,1.75,1.75,0.0,1.0,0.25,2.5,0.5,1.0,0.5,-1.05,-0.17,0.02,214.18,3.9,9.5,0.5,0.75,0.5,0.25,0.0,2.0,0.0,0.0,0.0,0.0,0.75,0.0,0.0,0.14,-0.36,0.52,62.1,-3.2,38.5
7.08,1.25,1.0,1.25,1.75,2.25,1.75,0.0,1.0,0.25,2.0,0.5,0.75,0.25,-1.05,-0.23,0.02,216.54,3.5,17.5,0.0,0.0,0.0,0.5,0.0,1.5,0.0,0.0,0.0,0.0,0.75,0.0,0.0,0.08,-0.3,0.52,59.62,5.8,8.9
7.1,1.25,1.0,1.75,1.75,2.5,1.25,0.0,0.5,0.25,2.0,0.25,0.75,0.5,-1.05,-0.3,0.02,213.27,5.8,20.5,0.0,0.0,0.5,0.5,0.0,1.25,0.0,0.0,0.0,0.0,1.0,0.0,0.0,0.02,-0.36,0.58,55.9,-3.8,9.0
7.12,1.25,1.0,1.75,1.75,1.75,1.75,0.0,0.25,0.25,2.5,0.0,0.75,0.5,-0.98,-0.3,0.08,207.58,5.0,18.1,0.0,0.0,0.5,0.25,0.0,2.0,0.0,0.0,0.0,0.0,1.5,0.0,0.0,0.02,-0.42,0.64,58.6,0.8,0.3
7.14,1.25,0.75,2.25,1.75,1.75,1.5,0.0,1.0,0.25,2.25,0.0,1.0,0.5,-0.92,-0.3,0.02,204.55,5.8,14.5,0.0,0.0,1.0,0.5,0.0,1.75,0.0,0.0,0.0,0.0,1.25,0.0,0.0,0.02,-0.48,0.64,63.5,-5.3,13.1
7.16,1.25,1.0,2.5,1.75,0.5,1.5,0.0,1.0,0.25,2.25,0.0,1.0,0.5,-0.86,-0.3,0.08,202.85,7.5,12.8,0.0,0.0,0.5,0.5,0.0,1.75,0.0,0.0,0.0,0.0,1.0,0.0,0.0,0.08,-0.61,0.7,63.24,-0.3,12.2
7.18,1.25,1.0,1.5,1.75,1.25,1.5,0.0,0.75,0.25,2.0,0.0,0.75,0.5,-0.86,-0.23,0.08,198.86,5.1,16.8,0.0,0.0,0.5,0.5,0.0,1.25,0.0,0.0,0.0,0.0,1.25,0.0,0.0,0.2,-0.73,0.7,61.38,-4.3,3.0
7.2,1.25,1.0,2.25,1.75,3.5,1.5,0.0,1.5,0.25,2.5,0.0,0.75,0.5,-0.8,-0.23,0.08,213.32,3.8,19.2,0.0,0.0,0.0,0.25,0.0,1.5,0.0,0.0,0.0,0.0,1.0,0.0,0.0,0.27,-0.8,0.77,54.06,6.5,-3.6
7.22,1.25,0.75,2.25,1.75,3.0,1.5,0.0,1.0,0.25,2.5,0.0,1.0,0.5,-0.73,-0.23,0.08,223.59,4.6,16.5,0.0,0.0,0.5,0.0,0.0,1.25,0.0,0.0,0.0,0.0,1.5,0.0,0.0,0.27,-0.8,0.83,49.32,-2.6,-12.0
7.24,1.25,1.0,1.75,1.75,3.5,1.25,0.0,0.5,0.25,2.0,0.0,1.0,0.5,-0.73,-0.17,0.08,230.18,5.1,22.4,0.0,0.0,0.0,0.5,0.0,1.5,0.0,0.0,0.0,0.0,1.25,0.0,0.0,0.27,-0.73,0.77,45.84,3.2,-4.0
7.26,1.25,0.75,2.25,1.75,2.5,1.5,0.0,0.0,0.25,2.25,0.0,1.0,0.25,-0.8,-0.17,0.08,224.83,7.1,22.9,0.0,0.0,0.0,0.5,0.0,2.0,0.0,0.0,0.0,0.0,0.75,0.0,0.0,0.27,-0.67,0.7,47.19,8.4,12.7
7.28,1.25,1.0,2.25,1.75,4.75,1.75,0.0,0.75,0.25,2.5,0.0,0.75,0.5,-0.8,-0.17,0.02,236.07,3.7,24.5,0.0,0.0,0.5,0.25,0.0,1.5,0.0,0.0,0.0,0.0,0.75,0.0,0.0,0.27,-0.55,0.7,46.39,0.1,13.7
7.3,1.0,1.0,1.75,1.75,3.75,1.25,0.0,0.5,0.25,2.5,0.0,1.0,0.25,-0.86,-0.11,0.02,235.63,4.1,20.9,0.0,0.0,0.5,0.25,0.0,1.75,0.0,0.0,0.0,0.0,1.5,0.0,0.0,0.2,-0.48,0.7,51.01,-0.5,-1.7
7.32,1.25,1.25,2.0,1.75,3.0,1.25,0.0,0.25,0.25,2.5,0.0,0.75,0.5,-0.92,-0.11,0.02,236.46,5.7,23.1,0.0,1.0,0.5,0.5,0.0,3.25,0.0,0.0,0.25,1.5,1.0,0.0,0.0,0.2,-0.48,0.64,77.53,4.9,9.2
7.34,1.25,1.0,2.25,1.75,3.0,1.0,0.0,1.25,0.25,2.0,0.0,0.75,0.5,-0.98,-0.11,0.02,233.34,5.8,21.5,0.0,0.0,0.5,0.5,0.0,3.25,0.0,0.0,0.0,0.75,1.25,0.0,0.0,0.14,-0.48,0.64,90.16,6.6,3.0
7.36,1.25,1.0,2.25,1.75,4.25,1.25,0.0,1.0,0.25,2.5,0.0,0.75,0.5,-1.11,-0.11,0.02,239.65,4.4,22.4,0.0,0.0,0.5,0.5,0.0,1.25,0.0,0.0,0.0,1.0,1.5,0.75,0.0,0.14,-0.48,0.64,96.22,-1.5,-30.4
7.38,1.25,1.0,1.5,1.75,3.5,1.5,0.0,1.0,0.25,2.5,0.0,1.0,0.5,-1.11,-0.17,0.02,238.72,2.9,17.1,0.0,0.0,1.75,0.5,1.0,1.75,0.0,0.5,0.0,0.0,2.5,0.0,0.0,0.2,-0.48,0.64,109.23,-6.7,7.0
7.4,1.25,1.25,2.25,1.75,3.5,0.5,0.0,0.75,0.25,2.5,0.25,0.75,0.5,-1.11,-0.17,0.02,240.07,6.6,20.9,0.0,0.0,0.75,0.5,0.0,1.25,0.0,0.0,0.0,1.0,0.75,0.75,0.0,0.27,-0.55,0.64,103.76,-2.0,-19.1
7.42,1.25,1.0,2.25,1.75,3.5,0.75,0.0,0.75,0.25,2.25,0.0,1.0,0.5,-1.05,-0.17,0.02,236.67,6.3,20.8,0.75,1.0,0.5,0.75,1.0,3.25,0.25,0.5,0.0,1.25,2.5,0.75,0.0,0.33,-0.61,0.58,134.79,-0.4,3.1
7.44,1.25,1.0,1.5,1.75,4.25,0.5,0.0,0.75,0.25,2.0,0.0,1.0,0.5,-0.98,-0.17,0.02,230.42,5.0,22.0,0.0,0.0,1.75,0.25,1.25,1.25,0.25,0.5,0.0,0.0,2.75,0.0,0.0,0.45,-0.61,0.58,139.35,-8.2,3.2
7.46,1.25,0.75,1.25,1.75,3.5,0.75,0.0,0.5,0.25,2.25,0.0,0.75,0.5,-0.98,-0.17,0.08,221.56,4.3,19.8,0.75,0.75,0.25,0.5,0.0,3.0,0.0,0.0,0.25,1.0,1.0,0.75,0.0,0.45,-0.61,0.58,147.11,0.9,5.9
7.48,1.25,1.0,2.25,1.75,2.5,1.0,0.0,0.25,0.25,2.0,0.0,0.75,0.25,-0.92,-0.17,0.08,213.14,8.2,27.0,0.0,0.0,0.5,0.5,0.0,1.25,0.0,0.0,0.0,0.0,1.5,0.0,0.0,0.52,-0.61,0.64,118.72,-4.7,-2.0
7.5,1.25,1.0,2.0,1.75,2.25,0.25,0.0,0.5,0.25,2.0,0.0,0.75,0.25,-0.92,-0.17,0.08,200.69,9.1,24.0,0.0,0.0,0.5,0.5,0.0,2.0,0.0,0.0,0.0,0.0,1.25,0.0,0.0,0.52,-0.55,0.58,98.24,0.3,8.4
7.52,1.25,0.5,2.25,1.75,2.25,1.0,0.0,0.5,0.25,2.25,0.0,0.75,0.0,-0.92,-0.17,0.08,192.16,7.8,23.1,0.0,0.0,0.0,0.5,0.0,1.75,0.0,0.0,0.0,0.0,1.5,0.0,0.0,0.52,-0.55,0.52,71.51,3.6,-6.3
7.54,1.0,1.0,1.0,1.75,2.25,0.75,0.0,1.0,0.25,2.0,0.0,1.0,0.5,-0.86,-0.23,0.08,187.64,3.7,12.4,0.0,0.0,0.5,0.5,0.0,1.25,0.0,0.0,0.0,0.0,1.0,0.0,0.0,0.52,-0.48,0.52,55.75,-3.8,9.0
7.56,1.0,1.0,1.0,1.75,2.5,1.0,0.0,0.5,0.0,2.5,0.0,0.75,0.5,-0.92,-0.17,0.08,185.09,2.8,15.6,0.0,0.0,0.5,0.5,0.0,1.25,0.0,0.0,0.0,0.0,1.0,0.0,0.0,0.52,-0.48,0.58,45.11,-3.8,9.0
7.58,1.25,1.0,2.0,1.75,2.25,1.0,0.0,0.0,0.0,2.0,0.0,1.0,0.25,-0.92,-0.17,0.08,183.61,8.3,25.6,0.0,0.0,0.5,0.5,0.0,1.75,0.0,0.0,0.0,0.5,0.75,0.25,0.0,0.52,-0.48,0.64,47.53,1.6,-0.4
7.6,1.25,1.0,2.25,1.75,2.5,1.0,0.0,0.75,0.0,2.25,0.0,0.75,0.0,-0.98,-0.17,0.08,188.71,7.2,26.5,0.75,0.0,1.75,0.5,1.0,1.25,0.5,0.5,0.0,0.0,2.5,0.0,0.0,0.52,-0.55,0.64,73.39,-11.4,13.5
7.62,1.25,0.75,1.25,1.75,3.0,1.5,0.0,0.75,0.0,2.5,0.0,0.75,0.5,-0.98,-0.17,0.08,196.82,2.4,17.5,0.0,0.0,1.0,0.5,0.0,2.0,0.0,0.0,0.0,0.0,1.5,0.0,0.0,0.52,-0.55,0.58,76.97,-4.2,9.7
7.64,1.25,0.75,2.0,1.75,1.75,1.0,0.0,1.5,0.25,2.0,0.0,0.75,0.5,-0.98,-0.23,0.08,200.57,5.6,14.9,0.0,0.0,2.0,0.5,0.25,1.25,0.25,0.5,0.0,0.0,0.75,0.0,0.0,0.45,-0.55,0.58,85.9,-11.7,26.0
7.66,1.0,1.0,2.25,1.75,2.25,1.5,0.0,0.5,0.25,2.25,0.25,0.75,0.25,-0.98,-0.17,0.08,205.75,6.2,20.9,0.0,0.0,0.5,0.5,0.0,2.0,0.0,0.0,0.0,0.0,1.0,0.0,0.0,0.45,-0.48,0.58,73.23,1.0,13.6
7.68,1.25,1.0,2.5,1.75,2.5,1.25,0.0,0.75,0.25,2.5,0.0,0.75,1.25,-0.98,-0.17,0.14,216.39,5.3,13.8,0.0,0.0,1.25,0.25,0.0,1.25,0.0,0.0,0.0,0.0,0.75,0.0,0.0,0.39,-0.48,0.58,69.21,-10.0,22.8
7.7,1.25,1.0,1.0,1.75,3.5,1.5,0.0,0.75,0.25,2.0,0.0,0.75,0.5,-0.98,-0.17,0.14,221.02,2.5,21.7,0.0,0.0,0.5,0.25,0.0,1.5,0.0,0.0,0.0,0.0,0.75,0.0,0.0,0.39,-0.42,0.58,57.13,0.1,13.7
7.72,1.25,0.75,2.25,1.5,2.25,1.75,0.0,0.75,0.25,2.5,0.25,0.75,0.5,-0.98,-0.23,0.08,224.26,4.8,15.5,0.0,0.0,0.5,0.5,0.0,1.25,0.0,0.0,0.0,0.0,0.75,0.0,0.0,0.45,-0.42,0.58,53.72,-3.2,16.0
7.74,1.25,0.75,2.25,1.25,2.5,1.5,0.0,1.0,0.25,2.0,0.0,0.75,0.5,-0.98,-0.17,0.14,222.07,5.1,18.9,0.0,0.0,0.25,0.5,0.0,1.75,0.0,0.0,0.0,0.0,0.75,0.0,0.0,0.45,-0.42,0.58,49.37,3.5,15.0
7.76,1.25,1.0,2.0,1.0,2.5,1.5,0.0,1.0,0.25,2.5,0.0,1.0,0.25,-0.92,-0.23,0.08,219.69,4.1,15.8,0.0,0.0,0.5,0.25,0.0,1.25,0.0,0.0,0.0,0.0,1.0,0.0,0.0,0.45,-0.48,0.58,46.2,-2.6,4.6
7.78,1.25,1.25,2.0,1.5,2.5,1.5,0.0,1.0,0.25,2.25,0.25,0.75,0.5,-0.92,-0.23,0.08,220.54,4.8,18.6,0.0,0.0,0.5,0.5,0.0,1.75,0.0,0.0,0.0,0.0,1.0,0.0,0.0,0.52,-0.48,0.58,48.18,-0.3,12.2
7.8,1.0,1.0,2.25,1.75,3.0,1.5,0.0,0.5,0.25,2.25,0.25,1.0,0.5,-0.92,-0.17,0.08,224.35,5.4,18.5,0.0,0.0,0.75,0.5,0.0,2.0,0.0,0.0,0.0,0.0,0.75,0.0,0.0,0.58,-0.48,0.58,51.06,-0.8,22.2
7.82,1.25,1.0,2.5,1.75,2.5,1.5,0.0,1.0,0.25,2.0,0.0,1.0,0.75,-0.92,-0.17,0.08,228.41,5.9,18.1,0.75,1.0,0.5,0.75,0.0,3.0,0.0,0.0,0.0,1.25,2.5,0.75,0.0,0.58,-0.48,0.58,86.71,-1.8,-1.4
7.84,1.0,1.0,2.25,1.75,2.5,1.5,0.0,0.75,0.25,2.0,0.0,1.0,0.5,-0.92,-0.17,0.08,226.64,5.6,19.3,0.75,1.0,1.75,0.75,1.0,3.0,0.5,0.25,0.0,1.25,3.0,0.75,0.5,0.64,-0.48,0.52,137.35,-4.6,2.0
7.86,1.25,1.0,2.25,1.75,2.25,1.25,0.0,0.75,0.25,2.0,0.0,0.75,0.5,-0.92,-0.17,0.14,222.33,6.7,21.9,0.75,1.0,2.0,0.75,0.5,3.0,0.5,0.25,0.0,1.25,2.5,0.75,0.0,0.7,-0.42,0.45,179.01,-6.1,8.3
7.88,1.0,1.0,2.25,1.75,2.5,1.0,0.0,1.0,0.25,2.5,0.0,0.75,0.25,-0.92,-0.17,0.14,218.23,5.7,19.0,0.0,0.75,0.5,0.75,0.0,3.25,0.0,0.0,0.0,1.25,0.75,0.75,0.0,0.7,-0.42,0.39,179.5,4.1,3.4
7.9,1.25,1.0,2.25,1.75,2.5,1.5,0.0,1.0,0.0,2.5,0.0,1.0,0.25,-0.92,-0.23,0.14,218.07,5.2,19.5,0.75,0.75,1.25,0.5,0.25,3.25,0.5,0.5,0.0,1.25,2.5,0.75,0.5,0.7,-0.42,0.39,188.14,-2.1,-4.4
7.92,1.25,1.0,2.25,1.75,2.25,1.25,0.0,0.75,0.0,2.0,0.0,1.0,0.5,-0.92,-0.23,0.14,215.44,6.6,20.6,0.75,0.75,1.5,0.75,1.5,2.75,0.5,0.0,0.0,1.0,2.5,0.75,0.75,0.77,-0.42,0.39,193.63,-4.2,3.5
7.94,1.25,1.25,2.25,1.75,2.5,1.25,0.0,1.25,0.0,2.0,0.0,0.75,0.5,-0.98,-0.23,0.2,218.66,5.7,22.7,0.75,1.0,1.5,0.5,1.0,3.0,0.5,0.5,0.0,1.25,2.5,0.75,0.5,0.83,-0.42,0.27,204.38,-3.1,1.8
7.96,1.0,0.75,2.25,1.75,2.25,1.75,0.0,0.5,0.0,2.0,0.0,0.75,0.75,-0.98,-0.23,0.2,214.81,5.1,19.3,0.0,0.75,1.75,0.75,1.0,3.25,0.25,0.25,0.0,1.25,2.75,0.75,0.5,0.64,-0.36,0.33,210.01,-2.0,-3.1
7.98,1.0,1.0,2.25,1.75,2.5,1.75,0.0,0.75,0.25,2.25,0.0,0.75,0.5,-1.05,-0.3,0.27,216.55,4.8,20.1,0.75,1.0,2.5,0.75,1.0,3.0,0.25,0.0,0.0,1.5,1.5,0.75,0.25,0.52,-0.36,0.39,214.55,-6.0,15.3
8.0,0.5,0.75,2.25,1.75,2.25,1.25,0.0,1.25,0.25,2.0,0.0,0.75,0.0,-1.05,-0.23,0.27,208.84,5.0,19.2,0.75,1.0,0.5,0.5,0.0,3.25,0.0,0.0,0.0,1.5,1.5,0.75,0.0,0.39,-0.42,0.39,195.49,0.5,3.3
8.02,1.25,1.0,1.75,1.75,2.5,1.25,0.0,0.75,0.0,2.0,0.0,0.75,0.25,-1.05,-0.23,0.2,205.36,5.6,24.6,0.75,1.0,1.75,0.75,1.0,3.25,0.5,0.5,0.0,1.25,2.75,0.75,0.0,0.27,-0.42,0.39,195.22,-4.3,7.3
8.04,1.25,1.0,2.25,1.75,2.5,1.25,0.0,0.75,0.0,2.0,0.0,0.75,0.5,-0.98,-0.23,0.14,204.61,6.4,23.5,0.75,1.0,1.0,0.5,0.25,3.0,0.5,0.5,0.0,0.0,2.75,0.0,0.0,0.27,-0.36,0.45,177.05,-4.9,16.5
8.06,1.0,1.25,2.25,1.75,3.0,1.0,0.0,0.75,0.0,2.5,0.0,1.0,0.25,-0.92,-0.23,0.14,210.76,5.8,21.5,0.75,1.0,0.5,0.75,0.0,2.75,0.0,0.0,0.0,1.25,2.25,0.75,0.0,0.2,-0.36,0.64,163.2,-2.2,-0.4
8.08,1.0,1.0,2.25,1.75,3.5,1.75,0.0,1.0,0.0,2.25,0.0,1.0,0.5,-0.86,-0.23,0.14,222.19,3.8,20.4,0.75,1.0,1.75,0.5,0.5,2.75,0.0,0.25,0.0,1.25,2.75,0.75,0.0,0.14,-0.55,0.7,160.59,-5.4,3.5
8.1,1.25,1.0,2.0,1.75,2.5,1.75,0.0,0.25,0.0,1.75,0.0,0.75,0.5,-0.8,-0.23,0.08,221.07,6.0,27.2,0.75,0.75,2.25,0.5,1.25,3.25,0.0,0.5,0.0,1.25,2.5,0.75,0.0,0.2,-0.67,0.77,175.77,-4.4,8.7
8.12,1.25,1.0,2.0,1.75,2.5,1.75,0.0,1.0,0.0,2.5,0.0,0.75,0.25,-0.8,-0.3,0.14,222.41,4.2,21.2,1.0,0.75,1.5,0.75,1.25,3.0,0.0,0.25,0.0,1.25,2.5,0.75,0.0,0.33,-0.61,0.77,185.05,-4.1,8.6
8.14,1.25,0.75,2.0,1.75,3.0,1.5,0.0,0.75,0.0,2.0,0.0,0.75,0.5,-0.8,-0.3,0.14,218.83,4.9,22.9,0.75,1.0,1.75,0.75,0.5,3.0,0.25,0.25,0.0,1.5,2.75,0.75,0.0,0.45,-0.48,0.89,188.42,-4.9,3.9
8.16,1.0,1.25,2.5,1.75,2.5,1.75,0.0,0.75,0.0,2.0,0.0,0.75,0.75,-0.8,-0.3,0.14,221.79,5.4,22.4,0.75,1.0,1.25,0.75,1.0,2.75,0.25,0.25,0.0,1.25,2.75,0.75,0.0,0.52,-0.48,0.77,189.04,-4.1,4.8
8.18,1.0,1.0,2.25,1.75,2.5,1.75,0.0,0.75,0.0,2.0,0.0,0.75,0.75,-0.8,-0.36,0.14,220.65,4.7,20.4,0.75,0.75,1.5,0.75,1.25,2.75,0.25,0.25,0.0,1.25,2.5,0.5,0.0,0.52,-0.36,0.77,187.05,-4.3,9.0
8.2,1.0,1.25,2.5,1.75,3.0,1.5,0.0,0.5,0.0,2.25,0.0,0.75,1.25,-0.8,-0.42,0.08,227.73,4.9,18.6,0.75,1.0,1.25,0.5,0.5,2.75,0.0,0.0,0.0,1.25,2.25,0.75,0.75,0.58,-0.3,0.77,181.26,-2.9,-2.2
8.22,1.0,0.75,2.0,1.75,3.0,1.5,0.0,0.5,0.0,1.5,0.25,0.75,0.5,-0.73,-0.48,0.08,222.27,5.6,24.6,0.75,1.0,1.75,0.75,0.5,3.0,0.25,0.25,0.0,1.5,2.5,0.75,0.5,0.7,-0.17,0.7,185.0,-4.1,0.9
8.24,1.0,1.0,2.25,1.75,2.5,1.5,0.0,1.0,0.0,2.0,0.0,0.75,0.75,-0.73,-0.73,0.14,221.76,4.8,19.2,0.75,0.0,1.0,0.25,0.5,1.5,0.25,0.5,0.0,1.0,2.5,0.75,0.25,0.64,-0.11,0.64,168.97,-4.7,-17.5
8.26,1.25,1.0,2.25,1.75,2.5,1.75,0.0,0.75,0.0,2.0,0.0,1.0,0.5,-0.73,-0.86,0.14,219.19,5.5,21.7,0.5,0.5,1.0,0.75,0.25,2.75,0.25,0.25,0.0,1.5,2.5,0.75,0.5,0.58,-0.05,0.64,162.42,-1.5,-11.7
8.28,1.0,1.0,2.0,1.75,3.75,1.75,0.0,0.5,0.0,1.75,0.0,0.75,0.5,-0.8,-0.86,0.14,221.05,4.4,27.5,0.0,0.0,1.25,0.5,1.0,2.25,0.25,0.5,0.0,1.5,2.5,0.75,0.0,0.52,-0.05,0.58,153.97,-1.0,-14.5
8.3,1.0,0.75,2.0,1.75,2.5,1.5,0.0,0.5,0.0,2.0,0.0,0.75,0.5,-0.8,-0.8,0.14,214.56,5.1,21.4,0.75,1.0,0.0,0.5,0.0,3.0,0.0,0.0,0.0,1.25,1.25,0.5,0.5,0.39,0.08,0.45,142.27,3.2,0.0
8.32,1.0,1.0,2.25,1.75,3.75,1.25,0.0,1.0,0.0,2.0,0.5,1.0,0.5,-0.67,-0.61,0.2,222.34,5.0,19.3,0.75,0.75,0.25,0.5,0.0,3.0,0.25,0.25,0.0,1.5,2.5,0.75,0.75,0.2,0.08,0.45,138.77,1.2,-16.6
8.34,1.0,1.0,2.25,1.75,4.25,1.75,0.0,0.75,0.0,1.75,0.5,0.75,0.5,-0.73,-0.36,0.33,231.15,4.5,25.0,0.75,1.0,1.75,0.75,1.0,3.25,0.25,0.25,0.0,1.0,2.75,0.75,0.0,0.14,0.02,0.64,155.1,-4.9,9.5
8.36,1.25,0.75,2.25,1.75,3.5,1.25,0.0,0.5,0.0,2.5,0.0,0.75,0.5,-0.86,-0.11,0.39,233.37,5.2,22.3,0.75,0.75,1.75,0.5,0.5,3.0,0.0,0.25,0.0,1.25,2.5,0.75,0.0,0.27,-0.05,0.64,165.67,-4.5,3.7
8.38,1.25,0.75,2.25,1.75,3.5,1.0,0.0,0.5,0.0,2.0,0.0,0.75,0.25,-0.86,0.2,0.45,229.54,6.7,27.8,0.75,1.0,1.25,0.5,1.0,2.75,0.25,0.0,0.0,1.5,2.5,0.75,0.25,0.39,-0.11,0.77,175.19,-3.4,2.1
8.4,1.25,1.25,2.25,1.75,3.0,0.75,0.0,0.75,0.0,2.0,0.0,0.75,1.0,-0.86,0.33,0.58,226.6,6.4,21.1,0.75,1.0,1.5,0.5,0.5,3.25,0.25,0.0,0.0,1.25,2.5,0.75,0.0,0.58,-0.23,0.95,178.67,-4.2,6.2
8.42,1.25,1.25,1.75,1.75,4.25,0.75,0.0,0.5,0.0,2.0,0.0,0.75,0.5,-0.8,0.39,0.7,225.24,5.4,28.1,0.75,1.0,1.0,0.5,1.0,3.0,0.25,0.0,0.0,1.25,2.75,0.75,0.0,0.7,-0.3,0.89,180.09,-3.0,4.0
8.44,1.0,1.0,1.75,1.75,4.25,1.5,0.0,0.25,0.0,2.0,0.0,0.75,0.5,-0.8,0.39,0.7,225.31,3.9,27.3,0.75,1.0,1.75,0.5,0.25,3.0,0.25,0.0,0.0,1.25,2.75,0.75,0.0,0.77,-0.17,0.77,179.36,-5.8,4.0
8.46,1.25,1.0,2.0,1.75,3.75,1.0,0.0,0.5,0.0,1.5,0.0,0.75,0.5,-0.67,0.39,0.64,224.64,6.5,30.1,0.75,1.0,1.25,0.5,1.0,3.25,0.0,0.5,0.0,1.25,2.5,0.75,0.0,0.7,-0.05,0.77,183.55,-2.0,5.3
8.48,0.75,0.5,2.0,1.75,3.5,0.75,0.0,0.5,0.0,1.5,0.0,0.75,0.5,-0.61,0.27,0.52,214.48,6.0,24.4,0.75,1.0,1.75,0.75,0.5,2.75,0.25,0.25,0.0,1.25,2.5,0.75,0.0,0.89,0.08,0.83,186.95,-5.8,6.5
8.5,1.25,0.75,3.75,1.75,4.25,0.5,4.25,4.5,0.0,1.75,1.0,0.75,0.75,-0.55,0.08,0.58,248.23,7.2,13.4,0.75,0.75,2.25,0.5,1.25,3.0,0.25,0.5,0.0,1.25,2.5,0.75,0.0,0.95,0.14,0.77,192.44,-5.2,8.4
8.52,1.25,1.0,2.0,1.75,4.75,0.25,0.0,0.5,0.0,1.25,0.0,0.75,0.5,-0.73,-0.61,0.83,245.63,7.5,33.5,0.75,1.0,1.75,0.75,1.0,2.75,0.25,0.0,0.0,1.0,2.5,0.75,0.0,0.83,0.08,0.58,192.59,-6.2,11.2
8.54,1.25,0.75,2.0,1.75,4.25,0.25,0.0,0.75,0.0,1.5,0.0,0.75,0.5,-0.86,-0.73,0.95,244.6,7.0,28.4,0.75,1.0,1.5,0.5,0.5,2.75,0.0,0.25,0.0,1.5,2.5,0.75,0.0,0.7,-0.05,0.52,188.9,-4.1,2.2
8.56,1.0,1.0,1.75,1.0,4.75,0.25,0.0,0.75,0.0,1.25,0.25,0.75,0.0,-0.98,-0.86,0.83,224.6,6.3,32.6,0.75,0.75,2.0,0.5,1.0,2.25,0.0,0.25,0.0,1.0,2.75,0.75,0.0,0.7,-0.17,0.64,181.89,-7.0,5.6
8.58,1.25,1.0,2.0,1.75,4.75,0.5,0.0,0.5,0.0,1.25,0.0,0.75,0.5,-0.98,-0.67,0.77,220.94,7.0,33.5,0.75,0.25,2.25,0.5,0.25,2.75,0.0,0.25,0.0,1.0,2.75,0.75,0.25,0.77,-0.3,0.77,175.22,-6.6,-2.3
8.6,1.25,0.75,1.75,1.75,4.5,1.0,0.0,0.5,0.0,1.25,0.0,0.75,0.5,-0.92,-0.48,0.7,214.93,5.6,31.5,0.75,0.75,1.25,0.5,1.0,2.75,0.0,0.25,0.0,1.25,2.75,1.0,0.25,0.64,-0.23,0.89,175.99,-3.1,-3.0
8.62,1.25,1.0,2.25,1.75,4.75,1.0,0.0,0.5,0.0,1.25,0.0,0.75,0.25,-0.67,-0.05,0.64,221.59,7.0,36.4,0.75,1.0,1.75,0.75,0.5,2.75,0.0,0.25,0.0,1.25,2.75,1.0,0.5,0.45,-0.05,0.77,180.03,-4.9,-1.9
8.64,1.75,0.75,1.75,1.75,3.75,1.0,0.0,0.5,0.0,1.25,0.0,1.0,0.5,-0.55,0.14,0.64,221.23,7.2,29.9,0.75,0.75,1.25,0.75,0.25,2.75,0.0,0.25,0.0,1.0,2.75,0.75,0.75,0.33,-0.05,0.77,179.21,-3.5,-6.7
8.66,0.75,0.75,1.75,1.25,4.25,1.0,0.0,0.5,0.0,1.25,0.0,0.75,0.5,-0.48,0.14,0.7,213.98,4.4,27.7,0.75,1.0,1.5,0.75,0.0,2.75,0.0,0.25,0.0,1.5,2.5,0.75,0.5,0.2,-0.05,0.83,178.01,-4.0,-3.7
8.68,1.25,1.0,2.0,1.75,4.5,1.0,0.0,0.25,0.0,0.25,0.0,1.0,0.0,-0.61,-0.11,0.58,208.76,9.1,45.2,0.75,1.0,1.5,0.5,1.0,2.75,0.0,0.25,0.0,1.25,2.75,1.0,0.75,0.14,0.08,0.7,181.8,-3.3,-3.9
8.7,1.0,1.25,1.75,1.75,3.75,0.75,0.0,0.5,0.0,1.0,0.5,1.0,0.5,-0.8,-0.42,0.7,206.64,7.0,27.3,1.0,0.75,0.5,0.75,1.25,2.75,0.0,0.25,0.0,1.25,2.5,0.75,0.75,0.2,0.2,0.7,181.88,-0.7,-3.4
8.72,1.0,0.75,2.0,1.5,4.25,0.5,0.0,0.75,0.0,1.25,0.0,0.75,0.5,-0.73,-0.42,0.77,204.64,6.3,28.7,0.75,1.0,1.25,0.75,0.25,2.75,0.0,0.0,0.0,1.0,2.5,0.75,0.75,0.33,0.2,0.77,178.82,-3.9,-2.2
8.74,1.25,0.75,2.0,1.75,4.5,0.25,0.0,0.5,0.0,1.25,0.0,0.75,0.5,-0.73,-0.3,0.77,203.55,7.6,31.9,0.75,1.0,1.5,0.75,0.25,2.5,0.0,0.0,0.0,1.0,1.75,0.75,0.5,0.39,0.14,0.64,170.91,-5.3,6.0
8.76,1.5,1.0,1.75,1.75,3.75,0.75,0.0,0.5,0.0,1.25,0.0,0.75,0.25,-0.67,-0.23,0.77,209.8,7.7,35.1,0.75,1.0,1.75,0.75,0.5,2.5,0.0,0.0,0.0,1.25,2.5,0.75,0.25,0.52,-0.05,0.7,170.61,-6.1,4.2
8.78,1.25,1.0,1.75,1.75,4.25,1.0,0.0,0.5,0.0,1.25,0.0,0.75,0.5,-0.67,-0.23,0.7,212.79,5.9,32.3,0.75,1.0,1.75,0.5,1.0,3.0,0.0,0.0,0.0,1.25,2.5,0.75,0.25,0.33,0.08,0.7,174.1,-4.4,6.4
