time,left pressure 0[N/cm虏],left pressure 1[N/cm虏],left pressure 2[N/cm虏],left pressure 3[N/cm虏],left pressure 4[N/cm虏],left pressure 5[N/cm虏],left pressure 6[N/cm虏],left pressure 7[N/cm虏],left pressure 8[N/cm虏],left pressure 9[N/cm虏],left pressure 10[N/cm虏],left pressure 11[N/cm虏],left pressure 12[N/cm虏],left acceleration X[g],left acceleration Y[g],left acceleration Z[g],left total force[N],left center of pressure X[mm],left center of pressure Y[mm],right pressure 0[N/cm虏],right pressure 1[N/cm虏],right pressure 2[N/cm虏],right pressure 3[N/cm虏],right pressure 4[N/cm虏],right pressure 5[N/cm虏],right pressure 6[N/cm虏],right pressure 7[N/cm虏],right pressure 8[N/cm虏],right pressure 9[N/cm虏],right pressure 10[N/cm虏],right pressure 11[N/cm虏],right pressure 12[N/cm虏],right acceleration X[g],right acceleration Y[g],right acceleration Z[g],right total force[N],right center of pressure X[mm],right center of pressure Y[mm]
0.02,2.25,1.5,0.75,1.75,3.0,2.0,0.0,1.0,2.25,7.0,4.5,8.0,8.25,0.33,0.08,1.08,438.68,0.0,-47.5,0.75,0.25,2.5,1.0,2.25,0.0,0.0,0.0,0.75,0.0,0.75,0.5,0.0,0.45,-0.17,0.7,63.41,-17.1,34.2
0.04,2.0,1.5,1.0,2.5,2.25,1.75,0.0,4.5,3.0,8.0,7.25,8.0,9.5,-0.23,0.77,2.14,600.06,-0.5,-50.9,1.0,0.25,0.0,1.0,2.25,0.0,0.0,0.0,0.75,0.0,0.75,0.5,0.0,0.39,-0.11,0.77,34.96,-9.7,26.2
0.06,1.0,1.0,0.25,1.25,2.25,3.25,0.0,5.25,2.5,7.0,7.25,8.25,8.75,0.27,-0.11,1.2,725.08,-2.9,-56.4,0.75,0.25,2.5,0.75,2.25,0.5,0.0,0.0,0.5,0.25,0.75,0.5,0.0,0.52,0.02,0.7,36.72,-14.3,32.5
0.08,2.25,1.25,1.0,4.5,4.75,3.0,0.0,5.75,3.25,7.25,6.5,8.5,9.5,-0.17,0.08,0.95,859.6,-0.5,-39.7,1.0,0.25,1.5,0.5,1.75,0.5,0.0,0.0,0.25,0.0,0.75,0.5,0.0,0.64,0.14,0.83,40.42,-14.0,34.1
0.1,0.5,1.25,0.25,3.5,3.0,3.0,0.0,5.75,3.75,7.75,7.75,8.0,9.5,-0.11,0.08,0.95,925.05,-2.3,-51.1,0.75,0.25,1.75,0.75,1.25,0.0,0.0,0.0,0.5,0.0,0.5,0.5,0.0,0.64,0.27,0.83,48.29,-18.7,33.5
0.12,1.25,1.75,0.0,3.75,2.5,3.25,0.0,5.75,4.25,9.0,7.25,9.25,9.25,-0.11,0.08,0.95,988.71,-1.8,-49.8,1.0,0.25,1.25,0.75,1.5,0.0,0.0,0.0,0.5,0.0,0.75,0.5,0.0,0.52,0.52,0.7,55.13,-16.5,30.5
0.14,2.25,2.75,1.0,5.5,6.0,5.0,0.0,7.0,5.25,9.0,9.0,9.5,9.0,-0.05,0.08,0.95,1104.45,-0.3,-34.0,0.5,0.25,1.75,0.75,1.0,0.0,0.0,0.0,0.5,0.0,0.75,0.5,0.0,0.52,0.58,0.83,58.83,-18.8,25.8
0.16,2.25,1.75,1.25,5.0,6.0,5.25,0.0,7.25,5.25,9.0,9.25,9.5,10.5,-0.05,0.02,0.95,1226.03,-0.9,-37.7,0.75,0.25,1.5,0.75,1.5,0.0,0.0,0.0,0.5,0.0,0.75,0.5,0.0,0.52,0.45,1.14,59.21,-16.7,29.4
0.18,2.25,1.25,2.0,5.0,6.0,5.25,0.25,7.5,5.25,8.75,9.0,9.0,9.5,-0.05,0.02,0.95,1300.59,-0.4,-35.7,0.75,0.25,1.75,0.75,1.25,0.0,0.0,0.25,0.75,0.0,0.75,0.5,0.0,0.64,0.45,1.2,72.36,-17.0,24.8
0.2,2.0,1.5,2.25,5.0,6.0,5.75,1.5,7.5,5.25,8.5,8.75,8.75,9.25,-0.11,0.02,0.95,1317.3,-0.2,-33.6,0.75,0.25,0.75,0.5,1.5,0.0,0.0,0.25,0.5,0.0,0.75,0.25,0.0,0.64,0.52,1.27,80.8,-12.6,26.9
0.22,1.5,1.25,1.75,5.0,5.75,6.0,1.5,7.5,5.25,8.0,8.25,8.25,8.5,-0.11,0.08,0.95,1282.56,-0.7,-33.8,0.75,0.25,1.25,0.75,1.0,0.0,0.0,0.25,0.75,0.0,0.75,0.5,0.0,0.52,0.58,1.33,93.72,-16.2,20.6
0.24,1.25,1.25,2.25,5.0,6.5,6.75,1.5,7.5,5.25,8.0,7.75,8.0,8.5,-0.11,0.08,0.95,1223.61,-0.9,-31.2,0.75,0.0,1.25,0.5,1.0,0.0,0.0,0.25,0.75,0.0,0.5,0.25,0.0,0.39,0.64,1.7,87.62,-16.9,25.4
0.26,2.25,1.5,2.75,5.75,7.0,6.75,1.5,7.5,5.25,8.0,6.75,7.5,7.5,-0.11,0.08,0.95,1174.04,0.0,-24.3,1.0,0.0,1.25,0.75,0.25,0.0,0.0,0.0,0.5,0.0,0.75,0.5,0.0,-0.05,1.02,1.7,83.88,-22.5,20.4
0.28,2.5,1.5,3.0,6.0,7.5,6.75,1.75,7.5,5.25,7.0,6.0,6.75,6.75,-0.11,0.08,0.95,1141.6,0.5,-19.3,1.0,0.0,1.25,0.5,1.0,0.5,0.0,0.25,0.5,0.0,0.75,0.5,0.0,-0.17,1.45,1.77,86.13,-14.2,22.1
0.3,2.5,1.25,3.0,6.75,8.0,7.25,1.5,7.5,5.25,6.75,6.0,5.75,6.5,-0.11,0.08,0.95,1122.52,0.3,-16.1,0.75,0.0,1.0,0.0,0.5,0.5,0.0,0.0,0.5,0.0,0.75,0.5,0.0,-0.36,1.83,1.95,78.8,-15.4,11.1
0.32,2.5,1.25,3.25,7.25,8.0,7.5,1.75,7.5,5.25,6.0,6.0,5.75,5.75,-0.11,0.08,0.95,1099.07,0.9,-13.2,0.75,0.0,1.25,0.25,1.0,0.5,0.0,0.25,0.5,0.0,0.75,0.5,0.0,-0.67,2.39,1.52,83.28,-13.3,17.4
0.34,3.0,1.25,3.5,7.5,9.0,7.5,1.75,7.25,5.0,5.5,5.25,5.0,5.25,-0.11,0.08,0.95,1084.56,1.4,-7.6,0.75,0.0,1.25,0.25,0.5,0.5,0.0,0.0,0.5,0.0,0.75,0.5,0.0,-0.92,3.14,0.45,79.95,-16.7,16.1
0.36,3.0,1.75,3.75,9.0,9.5,8.0,1.75,7.0,5.0,5.25,4.25,4.75,4.75,-0.11,0.08,0.95,1078.99,1.8,-1.7,0.5,0.25,1.25,0.0,0.5,0.5,0.0,0.0,0.25,0.0,0.75,1.0,0.0,-1.23,3.52,-0.05,78.99,-15.0,4.6
0.38,2.75,1.25,3.5,9.25,10.0,8.25,2.0,7.0,4.75,5.25,4.5,3.25,4.5,-0.11,0.08,0.95,1066.86,1.4,0.4,2.0,1.0,2.75,1.25,3.0,1.25,0.0,1.5,0.75,1.5,2.0,1.25,1.0,-2.17,4.27,2.27,149.88,-7.5,8.3
0.4,4.0,1.25,4.25,11.0,12.0,8.5,1.75,6.75,4.5,4.5,3.25,3.25,4.0,-0.11,0.08,0.95,1102.95,2.6,9.2,0.75,0.25,2.75,0.0,2.75,0.5,0.0,1.25,0.5,1.5,2.25,2.25,3.25,0.52,-0.73,2.39,201.27,-4.0,-27.3
0.42,3.75,2.75,5.25,12.0,12.0,8.5,1.75,6.75,4.25,4.25,3.25,3.25,3.25,-0.11,0.08,0.95,1156.93,3.7,14.1,0.75,0.25,1.75,0.0,0.0,0.0,0.0,1.0,0.75,3.5,2.0,4.0,4.0,0.83,-0.11,-0.05,250.63,-1.8,-64.5
0.44,4.25,2.75,5.5,13.5,14.0,9.0,1.5,6.25,4.0,3.5,2.75,3.0,3.25,-0.11,0.08,0.95,1236.18,4.1,19.4,2.0,1.0,2.75,0.0,1.0,2.0,0.0,3.0,1.25,7.75,4.25,6.75,7.5,0.64,0.89,3.64,362.69,0.4,-52.4
0.46,5.0,2.75,5.5,13.5,14.0,9.0,0.25,5.75,3.75,3.75,2.25,2.75,3.0,-0.11,0.08,0.95,1289.35,4.2,21.9,0.0,0.25,1.5,0.75,1.75,2.25,0.0,4.25,1.25,7.75,5.75,6.75,7.75,0.02,0.52,1.52,496.51,3.6,-61.8
0.48,5.5,2.75,6.5,15.0,15.0,9.25,0.25,5.5,3.0,2.25,2.25,2.5,3.0,-0.11,0.14,0.95,1330.68,5.3,27.4,2.0,1.0,0.5,1.0,1.5,4.25,0.0,6.5,1.5,9.0,7.75,7.75,9.0,-0.17,0.27,1.14,689.5,3.7,-54.4
0.5,6.25,3.25,7.5,15.5,15.5,9.25,0.25,4.75,3.0,2.25,2.0,2.0,3.0,-0.11,0.14,0.95,1366.04,6.2,31.2,2.0,1.25,1.25,3.5,1.0,5.5,0.0,7.25,1.5,9.0,7.75,7.75,9.0,0.14,0.14,0.95,859.54,2.6,-46.0
0.52,6.75,3.75,7.25,16.0,16.0,9.25,0.25,4.5,2.5,3.5,2.0,1.75,3.0,-0.11,0.14,0.95,1407.43,6.0,31.7,2.0,1.25,2.75,1.25,1.25,5.5,0.0,7.25,1.75,9.0,7.75,7.75,9.0,0.14,0.14,0.95,990.69,2.3,-46.9
0.54,7.25,3.0,8.25,15.5,15.0,8.5,0.0,3.0,2.25,2.5,1.0,1.5,1.5,-0.11,0.2,1.02,1396.36,8.0,39.5,1.0,1.25,2.75,1.25,3.25,5.5,0.0,7.25,2.0,9.0,7.75,7.75,9.0,0.08,0.08,0.95,1058.58,2.8,-45.2
0.56,8.0,4.25,9.25,16.5,14.5,7.5,0.0,2.75,1.75,2.25,0.25,1.75,1.5,-0.11,0.2,1.02,1387.74,9.5,43.4,1.75,1.25,1.5,1.25,3.25,5.25,0.25,7.5,2.25,9.0,7.75,7.75,8.75,0.08,0.08,0.95,1085.23,3.1,-45.6
0.58,8.5,4.25,2.25,16.5,15.0,7.75,1.5,2.5,1.5,2.0,1.0,1.5,1.25,-0.11,0.2,1.08,1330.56,6.9,42.7,2.0,1.0,1.75,1.25,3.25,5.75,0.25,7.5,2.0,9.0,7.75,7.0,8.25,0.08,0.08,0.95,1077.15,3.1,-43.1
0.6,9.5,4.25,9.75,17.0,14.5,7.0,0.0,1.75,1.5,1.75,1.0,1.5,1.5,-0.11,0.2,1.08,1327.46,11.0,46.3,2.0,1.0,2.75,1.25,3.0,6.0,0.25,7.5,2.0,8.5,7.75,6.75,8.25,0.08,0.08,0.95,1045.24,2.4,-40.9
0.62,10.0,4.25,10.5,15.5,14.0,6.0,0.0,1.0,1.5,1.5,1.0,1.5,1.25,-0.11,0.27,1.08,1307.85,12.4,48.6,2.0,1.0,2.75,1.5,3.25,6.0,0.25,7.5,2.0,8.5,7.5,6.5,8.25,0.08,0.08,0.95,1004.07,2.4,-39.5
0.64,10.5,5.75,11.0,15.0,14.0,4.25,0.0,1.0,1.5,1.5,1.0,0.75,1.25,-0.17,0.33,1.14,1304.89,13.6,52.0,2.0,1.0,3.0,2.0,3.25,6.25,0.5,7.5,2.5,8.25,6.75,6.25,7.75,0.08,0.08,0.95,970.62,2.0,-36.1
0.66,10.5,5.5,10.5,13.0,13.0,1.75,0.0,1.0,1.5,1.75,1.0,1.5,1.25,-0.17,0.39,1.27,1240.4,14.7,49.9,2.0,1.0,3.75,3.25,4.5,6.5,0.5,7.5,2.5,8.0,7.0,6.25,7.75,0.08,0.08,0.95,948.87,1.1,-30.4
0.68,11.5,5.0,8.0,9.0,9.25,1.75,0.0,0.5,1.5,1.25,0.5,1.0,10.0,-0.36,0.7,1.77,1141.0,11.6,29.4,2.0,0.5,4.0,3.25,5.75,6.75,1.5,7.5,2.5,7.75,6.75,5.5,7.0,0.08,0.14,0.95,918.98,0.8,-26.1
0.7,9.5,5.5,5.5,7.5,8.0,1.75,0.0,0.5,2.0,0.0,2.0,1.75,3.0,-0.61,1.08,2.7,958.72,14.0,41.6,1.25,1.25,5.0,3.75,6.0,7.25,2.0,7.5,2.5,7.5,6.75,5.5,6.5,0.08,0.14,0.95,928.77,0.2,-21.8
0.72,6.25,2.75,1.0,5.75,6.5,1.75,0.0,0.75,2.0,2.0,2.0,1.5,2.75,-0.42,0.58,2.2,721.75,8.2,23.5,2.75,2.0,5.0,4.0,7.0,7.5,2.5,7.5,3.0,7.0,6.25,4.5,5.75,0.08,0.14,0.95,949.58,-0.9,-12.6
0.74,4.0,2.5,1.0,0.0,5.75,1.25,0.0,0.5,0.75,1.0,2.0,1.5,2.0,-0.92,-0.11,2.39,467.76,6.3,18.3,3.75,2.0,5.5,5.5,7.75,7.5,3.0,7.25,3.25,6.25,5.75,3.5,5.0,0.08,0.14,0.95,994.79,-2.4,-3.9
0.76,2.0,2.25,1.75,0.0,4.75,1.0,0.0,0.25,1.0,0.5,1.25,0.75,2.0,-0.73,-0.11,1.58,293.45,6.3,20.0,4.5,2.0,6.25,6.25,7.75,7.75,3.75,7.25,3.25,5.5,5.25,3.25,4.25,0.08,0.14,0.95,1041.81,-3.7,1.9
0.78,2.25,2.25,1.0,2.5,5.0,1.75,0.0,0.0,1.25,0.0,0.5,1.0,0.5,-1.11,-1.8,1.64,205.7,8.1,40.8,4.5,2.0,6.75,7.5,8.75,7.75,4.25,6.25,2.75,4.75,4.5,2.5,3.25,0.08,0.14,0.95,1071.26,-4.9,10.3
0.8,2.25,2.0,1.0,2.5,3.5,1.75,0.0,0.5,1.25,1.0,1.0,1.5,1.25,-0.8,-0.8,1.64,155.26,6.4,18.8,5.5,2.0,7.75,9.25,9.0,7.75,4.5,6.0,2.5,4.25,4.25,2.0,2.5,0.08,0.14,0.95,1107.68,-6.5,17.5
0.82,1.25,2.25,1.0,2.5,5.25,2.0,0.0,0.0,1.0,2.0,1.25,1.5,2.0,-0.55,-0.36,0.64,155.42,3.0,12.1,6.75,2.5,8.0,10.0,10.0,7.75,4.5,5.5,2.0,3.5,3.75,2.0,2.5,0.02,0.14,0.95,1148.55,-7.5,23.3
0.84,1.75,1.5,1.0,2.0,3.5,1.75,0.0,0.0,1.5,1.25,1.25,1.25,1.25,-0.55,-0.36,0.2,146.73,5.7,13.5,7.5,2.5,8.75,11.0,10.0,7.75,5.5,4.75,1.5,3.25,3.25,2.0,1.75,0.02,0.14,0.95,1188.92,-9.0,28.7
0.86,2.25,1.75,1.0,2.5,3.0,1.75,0.0,0.0,1.5,2.0,1.5,1.25,2.0,-0.55,-0.3,0.39,162.95,5.5,7.6,8.25,3.0,9.25,12.5,11.0,7.75,4.75,4.25,1.25,3.25,3.0,1.75,1.5,0.02,0.14,0.95,1243.12,-9.6,33.3
0.88,1.25,1.75,1.0,2.75,3.0,2.0,0.0,0.0,1.25,1.75,0.5,1.5,2.0,-0.55,-0.36,0.83,169.45,3.9,8.6,8.75,3.75,9.25,12.5,11.5,7.75,5.0,3.25,1.25,1.5,2.75,0.75,1.25,0.02,0.2,0.95,1269.56,-10.9,41.5
0.9,1.75,1.75,1.75,2.5,2.5,2.0,0.0,0.0,1.5,1.75,1.0,1.5,1.75,-0.55,-0.23,0.89,193.42,6.4,9.6,9.0,2.5,9.25,11.0,10.5,7.25,3.0,1.75,1.0,1.5,1.75,0.5,0.5,-0.05,0.2,1.02,1206.96,-12.0,46.9
0.92,1.5,1.5,1.0,2.5,3.0,2.0,0.0,0.0,1.25,1.25,1.25,1.5,2.0,-0.67,-0.05,0.89,212.02,4.7,6.8,10.5,2.5,10.5,11.0,11.5,6.5,4.75,2.5,0.75,0.25,3.0,0.5,0.75,-0.05,0.27,1.08,1176.75,-13.5,47.1
0.94,2.25,1.25,1.0,2.5,2.25,2.0,0.0,0.0,1.5,1.75,1.0,1.5,2.0,-0.67,0.14,0.95,235.56,5.6,5.1,10.0,4.75,10.5,14.5,10.0,6.25,2.5,1.5,0.75,0.0,0.5,1.25,0.75,-0.05,0.27,1.02,1146.86,-14.4,54.1
0.96,2.25,1.5,1.0,2.5,3.0,1.75,0.0,0.0,1.5,1.25,1.25,1.5,2.0,-0.61,0.27,1.2,254.35,6.2,9.1,12.0,3.75,11.0,14.5,10.0,4.25,2.25,2.0,0.75,0.0,0.75,0.5,0.75,0.02,0.33,1.08,1138.19,-16.1,56.1
0.98,2.25,1.25,1.0,2.5,3.5,2.0,0.0,0.0,1.5,1.25,1.25,1.5,2.0,-0.48,0.45,1.39,268.63,5.5,9.5,11.5,3.5,10.5,12.5,10.0,3.75,1.0,1.5,0.5,0.0,1.75,0.5,0.75,0.02,0.33,1.08,1095.52,-16.1,55.0
1.0,2.0,1.75,2.0,1.5,3.0,1.75,0.0,0.25,1.5,2.0,0.75,1.5,2.0,-0.42,0.64,1.64,274.17,5.8,7.7,11.5,4.75,10.5,11.0,8.75,3.25,0.0,1.5,0.75,0.25,1.5,0.5,0.75,0.08,0.39,1.14,1043.59,-16.5,55.9
1.02,2.25,1.5,1.5,3.5,2.25,2.0,0.0,0.25,1.5,2.0,1.0,1.5,2.25,-0.42,0.77,1.77,280.79,6.3,7.3,12.5,5.25,9.5,11.0,8.75,2.75,0.0,1.0,0.75,1.75,2.5,1.0,0.75,0.08,0.52,1.27,1004.71,-16.0,50.9
1.04,2.25,1.5,1.0,2.5,3.0,1.75,0.0,0.5,1.5,2.25,1.25,1.5,2.0,-0.61,0.95,2.27,284.4,4.7,4.0,12.0,5.0,8.75,7.75,7.0,0.0,0.0,0.25,0.75,1.5,2.75,0.75,1.0,0.33,0.77,1.7,899.31,-18.9,51.7
1.06,2.25,1.5,1.0,2.5,2.25,1.75,0.0,0.5,1.5,2.0,1.5,1.5,2.25,-0.8,1.45,2.39,284.53,5.1,0.6,10.0,2.75,6.5,5.5,5.0,0.0,0.0,1.0,1.0,1.5,3.0,1.0,1.25,0.7,1.45,3.2,748.8,-17.7,40.5
1.08,2.25,1.25,1.0,3.25,3.0,1.75,0.0,1.0,1.5,1.0,1.25,1.5,2.25,-0.3,1.77,1.83,287.74,5.5,7.1,8.25,2.0,4.5,3.5,3.25,0.75,0.0,1.5,0.75,1.5,2.75,1.0,0.75,0.39,0.7,2.77,566.82,-16.1,35.2
1.1,2.0,1.5,1.0,3.5,3.5,1.5,0.0,1.0,1.5,1.75,1.25,1.5,2.5,0.7,2.83,1.77,293.52,4.6,4.7,5.25,2.0,3.0,3.25,2.25,2.75,0.0,1.0,1.0,0.5,2.5,0.5,1.0,0.64,0.08,2.77,404.25,-12.3,33.1
1.12,2.25,1.25,1.0,3.75,3.5,1.75,0.0,0.5,1.5,0.5,1.0,1.5,2.25,1.58,3.2,1.33,295.33,6.5,13.6,1.75,0.5,1.0,0.75,1.0,0.5,0.0,0.5,0.75,0.25,0.75,0.75,0.0,0.89,-0.98,2.39,246.37,-13.2,22.6
1.14,2.25,1.25,1.0,3.75,3.75,1.75,0.0,1.0,1.5,1.0,1.25,1.5,2.25,1.58,3.58,0.08,300.74,5.4,10.1,2.25,2.0,2.5,1.5,3.0,0.75,0.0,1.5,1.25,1.75,0.75,0.5,0.75,1.27,-1.73,1.83,179.42,-8.5,22.9
1.16,2.25,1.25,1.0,1.5,3.5,1.75,0.0,0.5,1.5,0.75,2.0,1.75,2.75,1.77,3.7,0.02,295.88,4.8,-1.0,2.0,1.75,2.75,1.25,3.25,1.0,0.0,1.5,1.25,1.5,0.75,1.0,0.75,0.58,-1.17,1.27,134.12,-8.1,19.5
1.18,2.25,1.25,1.0,3.75,3.5,1.5,0.0,0.5,1.5,1.0,2.0,2.25,2.75,1.83,2.64,0.89,301.3,6.1,1.4,0.75,0.25,1.75,0.75,3.25,0.25,0.0,1.75,0.75,0.0,0.75,0.5,0.0,0.39,-0.55,0.58,99.81,-7.4,22.4
1.2,2.25,1.25,1.0,1.5,3.75,1.5,0.0,0.25,1.75,2.25,2.25,5.5,5.0,-0.98,-0.86,1.39,321.66,3.2,-28.1,1.0,0.75,0.0,1.0,0.25,0.0,0.0,0.75,0.75,0.0,0.25,0.5,0.5,0.45,-0.55,0.33,42.52,-9.6,9.8
1.22,2.25,1.25,1.0,2.25,3.75,1.25,0.0,1.0,2.25,5.75,3.25,7.5,7.5,0.7,-0.36,0.39,399.33,1.0,-41.8,1.0,0.25,0.0,0.75,1.25,0.5,0.0,0.75,0.75,0.25,0.5,0.5,0.5,0.39,-0.55,0.52,8.0,-4.0,4.4
1.24,1.25,1.0,0.75,1.25,4.75,2.75,0.0,4.5,3.25,7.0,6.0,8.5,9.25,-0.17,1.14,4.77,555.76,-2.1,-49.5,0.5,0.25,0.75,0.0,1.5,0.0,0.0,0.5,0.75,0.0,0.75,0.5,0.25,0.2,-0.48,0.95,0.0,-8.8,4.3
1.26,0.75,1.0,0.5,2.5,2.5,1.75,0.0,5.75,3.5,9.0,8.0,8.5,9.25,0.02,0.7,1.39,727.76,-2.1,-56.8,0.75,0.25,0.0,0.0,1.25,0.0,0.0,0.25,0.75,0.0,0.25,0.5,0.25,0.14,-0.3,0.95,0.0,-7.1,7.3
1.28,0.0,1.0,0.0,4.75,2.5,4.0,0.0,6.25,3.75,7.0,8.25,8.0,9.25,-0.05,0.02,1.02,868.59,-2.5,-50.1,1.0,0.25,0.0,0.5,1.25,0.0,0.0,0.5,0.75,0.0,0.75,0.5,0.25,0.2,-0.05,0.89,0.0,-8.4,6.6
1.3,1.25,2.25,2.0,5.25,4.5,5.0,0.0,6.75,4.75,2.0,7.25,8.25,9.25,-0.11,0.02,0.95,958.66,0.8,-31.1,0.75,0.25,0.0,1.0,1.25,0.0,0.0,0.75,0.75,0.25,0.5,0.5,0.0,0.2,0.08,1.08,17.11,-6.9,10.4
1.32,2.25,0.75,2.75,5.5,5.5,5.75,0.75,7.25,5.0,7.5,8.0,8.0,8.5,-0.11,0.08,0.95,1063.09,0.1,-31.4,2.0,1.25,0.5,1.25,1.25,0.75,0.0,0.5,1.25,1.75,1.5,1.0,0.75,0.2,0.27,1.33,80.79,-6.9,1.1
1.34,2.25,0.0,3.5,5.75,6.25,6.25,1.25,7.25,5.5,7.5,8.0,8.0,8.5,-0.11,0.08,0.95,1152.34,0.5,-29.9,0.75,0.25,1.25,1.0,3.0,0.75,0.0,1.75,1.25,1.75,2.0,1.0,0.75,0.14,0.45,1.52,141.72,-2.8,-9.0
1.36,2.25,1.25,3.25,6.0,6.5,6.75,2.0,7.5,5.75,8.0,7.25,7.5,7.75,-0.05,0.02,0.95,1236.36,0.5,-25.0,0.5,0.25,1.5,0.0,3.25,0.5,0.0,0.0,0.75,0.0,0.75,0.5,0.0,0.14,0.58,1.77,162.06,-9.0,28.9
1.38,2.5,2.5,4.0,7.25,8.0,7.0,2.5,7.25,5.5,7.0,7.25,6.75,6.75,-0.05,0.02,0.95,1306.58,1.8,-15.1,0.5,0.25,0.5,0.0,1.0,0.5,0.0,0.0,0.75,0.0,0.25,0.5,0.25,0.27,0.7,1.95,132.97,-8.0,11.0
1.4,3.25,2.5,4.5,7.75,8.0,7.25,2.75,6.75,5.25,6.0,6.0,5.5,5.75,-0.11,0.02,0.95,1322.23,2.7,-7.5,0.75,0.25,1.5,0.0,3.25,2.25,0.0,1.5,1.0,1.5,2.0,1.0,0.75,0.45,1.02,2.45,159.95,-0.5,-5.4
1.42,3.0,2.5,5.25,9.0,8.75,7.5,2.75,6.5,4.5,5.25,4.75,4.5,5.0,-0.11,0.08,0.95,1307.22,3.3,0.0,0.75,0.25,1.5,0.0,3.0,0.5,0.0,1.5,0.75,0.0,2.0,0.5,0.75,0.52,1.7,2.45,171.85,-5.3,1.5
1.44,4.0,2.5,5.25,9.25,9.5,7.5,2.75,5.75,4.0,4.5,4.5,3.25,4.0,-0.11,0.08,0.95,1256.39,4.2,7.8,2.0,1.0,1.25,0.0,2.5,2.0,0.0,0.0,0.75,1.5,0.75,1.0,0.0,0.27,2.58,2.08,194.69,-5.9,21.4
1.46,4.75,2.5,5.5,11.5,9.5,7.5,1.5,5.5,4.0,3.75,3.25,3.0,3.0,-0.11,0.08,0.95,1202.97,5.3,15.6,2.0,0.25,1.25,0.0,3.25,0.75,0.0,1.5,0.5,0.0,1.75,0.5,0.75,-0.55,3.14,0.39,201.41,-6.4,13.0
1.48,5.5,2.5,6.0,12.0,9.5,7.5,1.5,5.0,3.25,2.0,2.5,2.5,3.25,-0.11,0.08,0.95,1147.63,6.5,22.2,0.75,0.25,1.25,0.0,0.5,0.75,0.0,0.25,0.5,0.0,0.75,0.5,0.0,-0.86,3.7,-0.17,174.94,-13.2,16.2
1.5,5.5,2.5,6.75,13.5,12.0,7.5,1.5,5.0,2.0,1.25,2.5,1.75,3.0,-0.11,0.08,0.95,1140.94,6.9,29.2,2.0,1.0,0.5,1.25,3.0,2.25,0.0,0.75,1.0,0.0,1.75,1.0,0.75,-2.3,4.77,0.27,184.65,-4.9,16.8
1.52,5.5,2.5,7.0,12.5,13.0,7.25,0.5,4.5,1.75,0.5,2.25,1.5,2.5,-0.05,0.14,0.95,1119.05,7.1,33.4,0.5,0.25,2.5,0.5,2.75,1.0,0.0,0.0,0.75,0.25,3.0,2.0,1.5,-3.05,4.77,-0.48,191.44,-8.3,-12.5
1.54,5.5,2.25,6.75,15.0,11.5,7.5,0.5,3.0,2.25,2.25,0.0,1.75,1.5,-0.11,0.14,0.95,1091.35,7.8,37.2,2.0,1.0,1.5,0.0,0.0,0.0,0.0,1.75,0.75,4.75,3.0,5.5,6.0,-0.05,-0.61,3.58,259.59,-1.4,-60.0
1.56,6.75,2.75,0.0,15.5,14.0,7.5,2.75,3.0,2.25,2.0,2.0,1.75,2.5,-0.11,0.14,0.95,1068.66,4.8,31.6,1.0,1.0,1.0,1.25,0.25,1.25,0.0,3.25,1.25,7.75,6.0,7.75,8.25,-0.86,0.89,4.33,374.34,1.6,-64.7
1.58,6.25,3.0,6.25,16.5,14.5,7.5,3.0,3.0,2.25,1.25,2.0,1.75,1.0,-0.11,0.14,0.95,1114.6,8.6,39.1,2.0,1.0,2.75,0.0,3.25,5.0,0.0,5.75,2.5,9.5,8.75,9.25,9.25,0.14,0.7,1.7,628.6,1.8,-49.2
1.6,7.0,3.0,0.0,15.0,15.0,7.25,1.75,2.5,1.75,2.0,2.0,1.5,1.25,-0.11,0.14,0.95,1096.79,5.1,37.0,0.0,1.0,5.0,1.25,3.25,5.5,0.0,7.5,1.5,9.5,9.75,8.5,9.5,-0.17,0.27,1.27,884.12,1.7,-46.5
1.62,7.25,3.0,7.75,15.0,14.0,7.25,0.25,1.0,1.5,2.0,1.0,1.5,1.5,-0.11,0.14,0.95,1119.94,9.4,43.1,1.25,1.0,2.75,1.25,3.25,6.0,0.0,7.5,2.5,9.0,8.25,8.0,9.0,0.08,0.08,0.95,1057.44,2.7,-45.0
1.64,8.0,3.75,8.25,15.0,14.5,7.0,0.25,1.75,1.5,1.5,1.25,1.5,2.0,-0.11,0.14,0.95,1156.72,9.7,43.0,1.25,1.25,2.75,1.25,3.25,6.0,0.0,7.25,2.5,8.75,8.5,7.75,8.75,0.2,0.08,0.89,1126.1,2.5,-43.9
1.66,8.5,4.0,9.0,17.0,14.0,5.75,0.25,1.0,1.0,2.0,0.0,1.5,2.0,-0.11,0.2,0.95,1203.25,11.1,47.0,0.75,1.0,2.75,2.0,3.25,6.25,0.25,7.25,2.5,8.5,8.0,7.0,8.25,0.08,0.08,0.89,1131.07,2.7,-42.0
1.68,9.0,5.25,10.5,18.5,14.0,6.75,0.5,1.0,1.5,1.75,0.75,1.0,1.5,-0.11,0.2,1.02,1288.55,11.9,49.3,0.75,1.0,2.75,2.0,3.25,6.25,0.75,7.25,2.75,8.0,7.75,6.5,7.75,0.08,0.08,0.95,1094.68,2.4,-40.0
1.7,9.75,2.5,12.0,17.0,14.0,5.75,1.0,1.0,1.5,2.0,1.75,1.5,1.25,-0.11,0.2,1.02,1334.21,13.0,45.4,0.75,1.25,3.75,3.0,5.75,6.5,1.25,7.25,2.75,7.75,7.25,6.0,7.25,0.08,0.08,0.95,1075.24,1.3,-29.4
1.72,10.5,4.5,11.5,15.0,0.0,4.5,0.25,0.75,1.5,1.5,0.75,1.5,1.25,-0.11,0.27,1.08,1220.35,18.9,49.2,0.75,1.25,4.0,3.25,5.75,6.75,1.5,7.0,2.75,7.0,6.75,5.5,6.5,0.08,0.08,0.95,1042.57,0.9,-25.5
1.74,11.0,6.0,12.0,17.0,14.0,3.75,0.0,1.5,1.5,1.25,1.25,1.5,1.5,-0.17,0.33,1.08,1259.04,14.1,50.1,2.0,1.75,4.75,3.25,6.0,7.25,1.5,6.75,3.0,6.5,6.5,4.5,5.75,0.08,0.08,0.95,1005.82,-0.4,-16.8
1.76,12.0,5.5,12.0,15.0,12.0,1.75,0.0,0.5,1.5,1.25,1.0,0.75,1.25,-0.23,0.39,1.2,1231.21,16.6,54.7,2.0,2.0,5.0,3.75,6.75,7.25,2.0,6.25,3.0,6.0,5.0,3.5,4.5,0.08,0.08,0.95,958.47,-1.0,-8.1
1.78,11.0,4.75,11.0,13.5,11.0,1.5,0.0,0.75,1.5,1.5,1.5,1.5,1.25,-0.3,0.45,1.45,1213.04,16.2,49.6,2.5,2.0,6.0,5.5,7.75,7.5,2.75,6.25,3.0,5.25,5.0,3.25,4.0,0.08,0.14,0.95,938.51,-2.7,-0.4
1.8,10.5,4.25,9.0,9.25,9.5,1.5,0.0,0.75,1.75,1.25,1.0,1.25,2.0,-0.55,0.77,2.2,1078.84,15.5,47.2,3.25,2.0,6.75,5.75,8.0,7.5,3.5,6.0,3.25,4.75,5.0,3.25,3.0,0.08,0.14,0.95,931.01,-4.3,4.6
1.82,8.75,4.0,6.75,6.75,7.75,0.25,0.0,0.5,1.5,0.0,0.25,0.0,1.5,-0.92,1.27,2.83,874.64,17.3,57.6,4.5,2.0,7.5,7.5,8.75,7.75,3.75,5.75,3.0,4.5,4.75,2.25,2.75,0.08,0.14,0.95,968.77,-5.6,12.5
1.84,7.25,2.5,3.5,5.5,6.25,0.5,0.0,0.5,1.5,0.0,0.75,0.0,1.25,-0.86,0.52,2.64,632.13,15.5,52.6,5.5,2.0,7.75,9.25,9.0,7.75,4.5,5.5,2.5,3.5,4.25,2.25,3.0,0.08,0.14,0.95,1031.92,-6.8,17.5
1.86,5.75,2.5,1.25,4.5,6.25,1.5,0.0,0.5,1.0,1.0,0.75,1.5,1.25,-0.86,0.64,2.83,442.09,9.9,37.5,5.5,2.5,8.75,9.5,10.0,7.75,4.75,4.75,2.5,3.25,4.25,2.0,1.75,0.02,0.14,0.95,1098.74,-8.0,23.6
1.88,4.0,2.25,0.0,1.0,2.5,1.5,0.0,0.5,1.5,1.0,1.0,1.5,2.0,-1.3,-0.92,2.7,295.69,6.6,12.8,7.0,2.5,9.25,11.0,10.0,7.75,5.0,4.5,2.0,3.25,3.5,2.0,1.75,0.02,0.14,0.95,1162.18,-9.1,27.9
1.9,3.0,1.5,0.0,0.0,0.0,1.5,0.0,0.25,1.25,0.0,1.25,0.0,2.0,-1.67,-0.98,3.02,180.35,7.6,9.5,7.5,2.75,9.5,11.0,10.5,7.75,4.75,3.5,1.75,3.25,3.0,2.0,1.25,0.02,0.14,0.95,1204.42,-9.8,32.0
1.92,1.75,1.0,0.0,0.0,2.25,0.0,0.0,0.0,0.75,0.0,0.5,0.25,0.25,-1.3,-1.23,0.95,62.54,10.6,40.1,8.25,2.5,10.5,11.0,11.5,7.5,4.5,3.0,1.25,3.0,3.0,1.75,1.0,0.02,0.14,0.95,1237.41,-10.7,35.7
1.94,2.5,1.25,0.75,2.5,3.5,1.75,0.0,0.0,1.25,0.75,1.25,1.5,1.5,-0.8,-0.55,0.64,51.21,6.8,15.7,8.5,2.75,11.5,11.5,11.5,7.25,4.0,2.75,1.25,2.5,3.0,1.5,1.0,-0.05,0.14,1.02,1258.05,-11.5,38.4
1.96,2.5,1.25,1.75,2.5,3.5,1.75,0.0,0.5,1.0,1.5,1.75,1.5,2.25,-0.42,-0.55,0.58,90.85,6.3,7.8,9.25,3.75,11.5,12.0,11.5,7.25,3.75,2.75,1.0,2.75,3.0,1.5,0.75,-0.05,0.2,0.95,1292.38,-11.8,40.4
1.98,2.5,1.25,1.75,3.0,3.0,1.75,0.0,0.5,1.25,0.75,1.75,1.5,2.0,-0.23,-0.48,0.7,134.21,7.9,11.6,9.25,3.0,12.0,11.0,11.5,7.25,0.0,2.5,0.75,0.5,2.0,0.5,0.75,-0.05,0.2,1.02,1250.77,-12.5,48.9
2.0,2.25,1.25,2.0,2.5,3.75,1.75,0.0,0.5,1.25,1.25,1.5,1.5,2.0,-0.17,-0.42,0.83,190.37,6.7,10.7,9.25,3.0,11.5,12.5,10.5,5.75,2.75,0.25,0.25,0.0,2.75,0.5,0.75,-0.05,0.27,1.02,1187.26,-15.3,52.4
2.02,2.5,1.25,1.25,2.5,2.25,1.75,0.0,0.75,1.0,2.0,1.25,1.5,2.0,-0.17,-0.3,0.89,219.58,5.5,4.0,11.5,5.25,11.5,14.5,10.5,0.0,1.75,1.75,1.25,0.25,0.75,1.25,0.75,-0.05,0.27,1.02,1135.43,-18.2,55.5
2.04,2.25,1.25,1.25,2.5,2.5,1.75,0.0,0.5,1.0,2.0,1.25,1.5,2.0,-0.17,-0.17,1.02,238.65,5.3,4.2,12.5,5.0,0.0,14.5,11.5,0.0,1.5,1.75,1.25,0.0,0.75,1.0,1.0,-0.05,0.33,1.02,1020.3,-13.5,55.4
2.06,2.5,1.25,1.25,2.5,3.0,1.75,0.0,0.75,1.0,2.0,1.0,1.75,2.25,-0.23,-0.05,1.14,259.15,4.9,4.2,11.5,5.0,13.0,12.5,10.0,5.5,0.0,1.5,0.75,0.0,0.75,0.5,1.0,0.02,0.33,1.08,1026.71,-15.7,56.9
2.08,2.25,1.25,1.25,2.5,2.5,1.75,0.0,0.5,1.5,1.75,1.25,1.5,2.0,-0.23,0.08,1.39,272.44,5.7,4.1,11.5,4.5,11.5,12.5,9.0,4.25,0.0,1.5,0.75,1.5,1.75,1.25,0.75,0.08,0.39,1.14,1025.9,-15.5,50.4
2.1,2.25,1.25,1.0,2.5,2.25,1.75,0.0,0.5,1.0,1.5,1.25,1.75,2.25,-0.17,0.33,1.58,277.47,5.3,1.8,11.5,6.0,11.5,11.0,8.75,3.25,0.0,1.75,1.25,1.5,2.75,1.25,0.75,0.14,0.45,1.27,1059.65,-15.8,48.6
2.12,2.5,1.25,1.25,2.5,2.25,2.0,0.0,0.75,1.0,0.0,1.0,1.5,2.25,-0.17,0.52,1.89,278.9,7.1,12.4,12.5,5.5,11.0,9.5,7.75,0.75,0.0,1.75,1.0,1.5,2.75,1.0,0.75,0.27,0.64,1.45,1020.65,-17.9,50.2
2.14,2.25,1.25,1.0,3.5,3.0,1.75,0.0,0.25,1.0,0.0,1.25,1.75,2.0,-0.3,0.64,2.14,278.2,7.7,15.1,11.5,4.5,8.5,6.25,6.0,0.0,0.0,1.5,1.25,1.5,2.75,1.0,0.75,0.64,1.27,2.27,909.17,-18.4,47.1
2.16,2.25,1.25,1.0,3.75,3.0,1.75,0.0,0.5,1.0,1.25,1.25,1.75,2.5,-0.42,1.08,2.58,279.31,5.7,6.8,9.25,2.75,5.5,4.0,3.75,1.75,0.0,1.75,1.0,1.5,2.25,1.25,0.75,0.64,1.08,2.83,716.24,-15.6,39.1
2.18,2.25,1.25,1.0,3.75,4.5,1.75,0.0,1.0,1.25,2.0,1.25,1.75,2.25,-0.11,1.95,2.58,289.97,4.2,7.4,5.75,1.0,3.5,2.25,0.5,0.75,0.0,0.75,0.75,0.0,0.75,0.5,0.0,0.45,0.52,2.58,449.99,-22.6,53.3
2.2,2.5,1.25,1.0,3.75,3.5,1.5,0.0,1.0,1.0,1.75,1.0,1.75,2.25,0.83,2.83,2.08,299.17,5.3,8.0,4.5,2.0,2.5,2.5,3.0,0.0,0.0,1.75,0.75,0.5,2.0,0.5,0.75,0.95,-0.17,2.52,306.28,-13.8,32.6
2.22,2.25,1.25,1.0,3.75,4.25,1.5,0.0,0.5,1.25,2.0,1.25,1.75,2.25,1.52,3.27,1.2,312.64,5.0,7.6,2.0,0.25,1.5,1.0,2.75,0.5,0.0,0.0,0.75,0.0,0.5,0.5,0.75,0.89,0.14,1.14,187.09,-12.1,31.7
2.24,2.5,1.25,1.0,3.75,3.75,1.5,0.0,0.5,1.0,2.25,1.0,1.75,2.25,1.7,4.02,0.08,314.87,5.2,7.8,2.0,0.5,1.0,1.25,1.5,1.0,0.0,0.0,1.25,1.5,0.0,1.0,0.5,1.08,-1.67,1.45,108.73,-8.5,14.6
2.26,2.5,1.25,1.0,3.75,3.75,1.75,0.0,0.5,1.25,2.25,1.25,1.75,2.5,2.2,4.52,-0.17,320.84,4.8,5.5,2.0,1.0,2.75,1.25,3.25,0.0,0.0,1.75,0.75,0.25,1.75,0.5,1.0,0.52,-0.61,1.39,77.8,-10.8,19.3
2.28,2.25,1.25,1.0,1.0,4.25,1.75,0.0,0.5,1.5,1.25,1.25,2.0,2.75,1.77,2.7,-0.36,308.75,3.5,-0.7,2.0,1.25,2.75,1.25,3.0,0.5,0.0,1.75,1.25,1.75,2.0,1.0,0.75,0.33,-0.42,0.33,103.64,-8.5,8.7
2.3,2.25,1.25,1.0,1.0,3.0,1.5,0.0,0.25,1.5,2.75,1.25,4.75,5.25,-0.3,-1.23,2.77,317.21,2.1,-30.0,2.0,1.5,2.75,1.25,3.25,0.5,0.0,1.75,1.25,0.25,2.25,0.5,0.75,0.52,-0.3,0.14,120.13,-10.3,19.6
2.32,2.25,1.25,1.0,2.5,3.0,1.25,0.0,1.0,2.0,5.5,2.75,7.0,6.75,0.33,-0.23,0.95,375.4,1.4,-40.4,0.75,0.25,1.5,1.0,2.5,0.5,0.0,0.25,1.25,1.75,0.5,1.0,0.25,0.52,-0.36,0.39,117.58,-6.6,4.7
2.34,0.0,1.75,1.25,2.5,3.0,1.75,0.0,3.5,3.0,7.25,5.0,8.0,8.5,-0.23,1.08,1.95,500.4,-1.4,-50.9,1.75,1.25,2.75,1.25,2.75,0.75,0.0,1.25,1.25,0.0,2.25,0.5,0.75,0.39,-0.3,0.83,140.55,-11.1,19.5
2.36,2.5,1.0,0.75,0.0,2.25,2.5,0.0,6.5,3.5,7.0,7.5,8.75,9.25,0.14,0.58,1.45,661.82,-1.7,-55.6,2.25,0.75,1.25,0.5,3.0,0.0,0.0,1.75,0.75,0.0,0.75,0.5,0.0,0.33,-0.17,0.89,139.46,-10.2,31.2
2.38,1.25,1.5,0.0,4.0,2.5,2.5,0.0,5.75,4.0,8.75,7.5,8.5,9.25,0.02,0.08,1.02,817.92,-1.6,-50.3,0.75,0.25,1.25,0.5,1.5,0.0,0.0,0.25,0.75,0.0,0.75,0.5,0.0,0.45,0.02,0.89,127.83,-14.4,22.0
2.4,1.25,1.75,0.0,5.0,5.0,5.5,0.0,6.25,4.5,8.75,8.0,8.75,9.0,-0.11,0.02,0.89,973.45,-2.1,-39.6,2.0,1.25,1.75,1.25,1.5,0.0,0.0,0.25,1.25,1.5,0.75,1.25,0.75,0.52,0.2,1.02,145.94,-11.8,10.3
2.42,2.25,1.0,2.75,5.5,5.25,5.75,0.5,7.5,5.0,9.0,8.0,8.25,9.25,-0.11,0.08,0.95,1115.26,-0.3,-33.5,0.5,0.25,2.75,0.75,3.0,0.0,0.0,1.5,0.75,0.25,1.5,0.5,0.75,0.45,0.39,1.14,163.73,-9.1,9.2
2.44,2.5,1.25,3.0,5.75,5.75,6.75,1.0,7.75,5.25,8.25,8.0,8.0,9.25,-0.11,0.08,0.95,1233.1,0.0,-29.5,2.0,1.0,2.75,1.0,3.0,0.0,0.0,1.5,0.75,0.0,1.5,0.5,0.75,0.33,0.58,1.33,184.57,-12.2,24.2
2.46,2.5,1.25,3.75,6.0,6.5,6.75,1.5,7.75,5.5,8.0,8.0,8.0,8.5,-0.05,0.02,0.95,1310.17,0.6,-26.2,0.75,0.25,1.75,0.0,1.5,0.25,0.0,0.0,0.75,0.0,0.75,0.5,0.0,0.33,0.7,1.58,165.28,-15.9,24.9
2.48,2.75,1.25,3.25,5.75,7.0,6.75,1.5,7.75,5.25,7.0,7.5,7.25,7.75,-0.05,0.02,0.95,1323.38,0.6,-23.2,1.75,1.0,1.0,0.25,1.5,0.75,0.0,0.25,1.25,1.5,0.25,0.5,0.25,0.39,0.83,1.89,157.1,-7.9,17.8
2.5,3.0,1.25,3.75,7.0,7.75,6.75,1.75,7.5,4.75,6.75,6.5,6.25,6.75,-0.05,0.02,0.95,1312.19,1.3,-16.0,0.5,0.25,1.75,0.0,1.25,0.0,0.0,0.0,0.75,0.0,0.75,0.5,0.25,0.58,0.95,2.08,116.58,-16.3,14.9
2.52,3.25,2.25,3.75,7.25,7.75,7.0,1.75,7.25,4.5,6.0,5.75,4.75,6.0,-0.11,0.08,0.95,1268.63,1.7,-8.8,1.25,0.5,2.75,1.0,3.0,1.75,0.0,1.5,1.25,0.0,2.0,0.5,0.75,0.7,1.33,2.39,149.98,-7.7,15.0
2.54,3.0,1.25,3.5,7.5,8.0,7.25,1.5,6.75,4.5,5.25,5.25,4.75,5.25,-0.11,0.08,0.95,1188.54,1.6,-7.8,1.25,0.25,2.25,0.0,0.25,0.75,0.0,0.0,0.75,0.0,0.75,1.0,0.75,0.45,1.89,2.33,141.38,-16.4,5.4
2.56,3.5,2.5,4.0,7.75,8.5,6.75,1.5,6.75,4.0,3.75,4.5,3.25,5.0,-0.11,0.08,0.95,1105.23,2.7,1.8,2.0,0.25,2.75,0.0,3.0,0.75,0.0,1.5,0.75,0.0,2.0,0.5,0.75,0.02,2.52,1.95,177.24,-10.1,14.9
2.58,4.0,1.25,3.5,8.25,8.0,7.5,0.5,6.0,4.0,4.25,3.0,3.25,4.25,-0.11,0.08,0.95,1016.36,2.2,3.3,2.0,1.0,2.75,0.5,3.25,2.0,0.0,1.5,1.0,0.0,0.75,0.5,0.75,-0.48,2.95,0.77,196.75,-7.8,28.2
2.6,3.75,2.0,5.0,11.5,9.5,7.5,1.5,6.25,4.0,4.5,3.5,2.75,3.75,-0.05,0.08,0.95,1016.19,3.9,10.4,0.75,0.75,2.25,0.0,0.0,0.75,0.0,0.25,0.5,0.0,0.75,0.5,0.25,-1.73,3.95,0.45,183.35,-17.4,21.4
2.62,4.0,2.5,5.25,12.0,10.5,8.0,1.5,6.0,3.75,3.75,3.0,2.5,3.75,-0.05,0.08,0.95,1040.8,4.1,15.2,2.0,1.0,2.75,1.0,2.75,2.0,0.0,1.5,0.75,0.25,1.5,0.5,0.75,-2.67,4.77,-0.11,203.22,-8.2,23.3
2.64,4.5,2.5,5.5,13.5,12.0,8.25,0.25,5.75,3.75,3.5,2.25,3.0,3.25,-0.11,0.08,0.95,1103.78,4.5,19.3,2.0,1.0,1.5,1.25,2.75,2.0,0.0,1.5,0.25,2.25,1.5,1.5,1.25,-2.73,4.58,2.52,221.11,-3.1,1.9
2.66,4.75,2.5,5.5,14.0,13.0,8.5,1.0,5.75,3.5,2.25,2.25,2.75,3.25,-0.11,0.08,0.95,1161.82,4.9,22.9,0.25,0.25,2.75,0.0,2.25,0.75,0.0,1.75,1.0,3.25,3.0,3.0,3.5,1.08,-1.36,2.14,261.59,-1.5,-41.1
2.68,5.5,2.75,6.5,15.0,12.5,8.5,0.75,5.0,3.0,2.25,2.5,2.25,3.0,-0.11,0.08,0.95,1220.02,6.2,26.8,0.0,0.0,0.5,0.25,0.0,0.0,0.0,1.75,0.75,4.75,0.75,5.5,6.25,-0.11,-0.23,0.83,289.14,4.9,-85.7
2.7,5.75,2.5,8.0,17.0,15.0,8.5,1.25,4.75,3.0,2.0,2.25,1.75,3.0,-0.11,0.14,0.95,1304.05,7.0,31.1,1.25,1.25,2.5,1.25,3.25,3.0,0.0,3.0,1.25,8.5,5.25,7.25,8.5,-0.67,0.89,2.77,436.1,1.4,-46.4
2.72,6.25,2.5,8.25,17.0,15.0,8.25,2.75,4.0,2.25,2.0,1.0,1.5,3.0,-0.11,0.14,0.95,1349.09,7.8,35.2,0.0,0.25,2.25,0.0,2.75,3.5,0.0,5.0,1.75,9.75,7.5,8.75,9.0,0.45,0.52,2.14,613.96,3.5,-60.4
2.74,6.25,1.75,8.25,15.0,14.0,8.5,0.5,3.0,2.25,1.75,0.0,1.5,2.0,-0.05,0.14,1.02,1334.72,7.8,38.9,1.25,1.0,2.5,1.25,3.25,4.25,0.0,6.75,1.75,9.5,8.75,8.5,9.75,-0.23,0.27,1.39,835.18,2.4,-49.8
2.76,7.25,2.5,8.0,16.5,15.5,8.0,0.5,3.0,0.25,2.0,0.25,0.75,1.5,-0.11,0.14,1.02,1318.12,8.2,45.3,2.0,1.0,2.75,1.25,3.25,5.5,0.0,7.25,1.75,9.5,8.5,8.0,9.5,0.2,0.14,0.95,992.1,2.4,-45.0
2.78,8.0,2.75,9.25,16.0,15.0,7.75,0.5,2.5,1.75,2.75,0.25,1.5,1.75,-0.11,0.14,1.02,1316.23,9.1,41.6,2.0,1.0,2.75,1.25,3.0,5.5,0.0,7.25,2.0,9.25,8.25,7.75,9.0,0.14,0.08,0.89,1093.6,2.3,-44.4
2.8,9.0,4.25,8.75,17.0,15.0,7.75,0.5,2.0,1.5,2.25,0.75,1.5,1.5,-0.11,0.2,1.02,1336.17,9.8,44.9,1.75,1.0,2.75,1.25,3.75,6.0,0.0,7.25,1.75,8.75,8.0,7.0,8.75,0.14,0.08,0.95,1100.54,2.7,-41.4
2.82,9.75,5.0,10.5,17.0,14.0,7.0,0.5,1.75,1.5,2.0,1.0,1.75,1.5,-0.11,0.2,1.02,1366.58,11.5,46.1,0.75,1.25,3.75,2.5,1.25,6.5,0.0,7.25,1.5,8.5,7.75,6.75,8.25,0.08,0.14,0.95,1075.42,2.2,-41.9
2.84,9.75,4.0,11.0,16.0,14.5,4.75,0.25,2.25,1.5,2.75,1.0,1.75,1.25,-0.11,0.2,1.08,1371.91,12.0,44.5,0.0,0.0,4.0,2.75,3.25,6.5,0.0,7.25,2.5,8.25,7.5,6.25,7.75,0.08,0.08,0.95,1046.8,2.5,-40.4
2.86,12.0,6.25,12.0,18.0,16.0,6.0,0.25,2.0,1.75,3.25,1.5,1.5,3.0,-0.11,0.27,1.08,1451.32,11.6,43.6,0.75,0.75,4.5,3.25,5.0,6.5,0.75,7.25,3.0,7.75,7.5,5.5,7.75,0.08,0.08,0.95,1016.59,1.1,-30.6
2.88,13.0,7.0,12.0,17.0,14.5,5.0,0.0,2.25,1.75,1.25,2.0,1.25,2.75,-0.17,0.33,1.2,1492.46,13.2,47.4,0.75,1.5,5.0,3.25,6.0,6.75,1.5,6.75,3.25,7.25,6.75,5.25,6.5,0.08,0.08,0.95,1000.65,0.1,-23.0
2.9,11.5,5.5,11.0,14.0,12.0,1.75,0.0,0.5,1.5,1.25,1.0,0.75,1.25,-0.23,0.45,1.27,1423.42,16.1,54.2,2.0,2.0,5.25,4.5,6.75,7.25,2.5,6.25,3.25,6.5,5.75,4.0,5.75,0.08,0.14,0.95,995.45,-1.3,-11.2
2.92,11.5,5.0,10.0,12.0,9.5,1.75,0.0,0.75,1.5,1.25,1.25,1.0,1.25,-0.36,0.58,1.39,1288.74,16.5,52.0,2.5,2.0,6.25,5.5,7.75,7.25,2.75,6.25,3.25,5.75,5.25,3.25,4.5,0.08,0.14,0.95,990.78,-2.8,-2.2
2.94,10.5,4.75,7.0,8.25,8.0,1.5,0.0,0.5,1.5,1.25,1.0,0.75,1.25,-0.61,0.95,1.95,1029.23,15.9,51.8,3.0,2.0,6.75,6.0,7.75,7.5,3.75,6.0,3.0,4.75,5.0,2.75,3.5,0.08,0.14,0.95,971.85,-4.1,4.4
2.96,9.0,4.0,4.0,6.0,7.0,0.5,0.0,0.5,1.5,1.0,1.0,1.25,1.25,-0.92,1.2,2.83,776.55,15.0,47.1,3.5,2.0,7.5,7.5,8.5,7.5,4.0,5.5,2.75,4.75,5.0,2.25,3.25,0.08,0.14,0.95,991.88,-5.2,9.7
2.98,8.0,4.0,1.25,6.0,6.25,1.5,0.0,1.75,1.75,2.75,1.0,0.75,1.25,-0.98,0.64,2.52,594.47,9.7,37.2,4.25,2.0,7.75,9.25,8.75,7.5,4.5,5.5,2.5,4.0,4.25,2.0,2.5,0.08,0.14,0.95,1020.48,-6.4,16.6
3.0,5.25,1.5,1.75,2.5,6.5,1.25,0.0,0.0,1.5,0.0,1.0,0.0,1.25,-0.73,0.33,2.7,404.41,11.3,45.7,2.0,2.0,8.5,9.5,9.25,7.75,4.75,4.75,2.25,3.5,4.0,2.0,2.25,0.02,0.14,0.95,1036.43,-6.3,17.5
3.02,3.0,1.75,0.0,4.0,3.75,1.25,0.0,0.0,1.5,0.0,0.0,1.75,1.25,-1.11,-0.61,2.52,278.59,8.8,30.7,5.5,2.25,8.75,11.0,10.0,7.5,4.75,4.5,2.0,3.25,4.0,2.0,1.75,0.02,0.14,0.95,1086.3,-8.4,25.1
3.04,1.5,1.25,2.25,3.75,3.0,1.5,0.0,0.0,1.5,2.0,0.0,1.25,1.0,-1.61,-1.23,2.58,194.53,8.2,20.9,6.25,2.5,9.25,11.0,10.5,7.75,4.5,3.25,1.75,3.25,3.25,1.75,1.5,0.02,0.14,0.95,1124.78,-9.2,30.3
3.06,2.25,1.25,1.75,2.5,6.0,1.5,0.0,0.0,1.5,1.25,1.0,1.5,0.75,-1.05,-0.98,1.08,158.97,7.2,24.4,6.25,2.5,10.5,12.5,10.5,7.75,4.5,3.0,1.25,3.25,3.0,1.75,1.5,0.02,0.14,0.95,1175.42,-10.0,32.7
3.08,2.25,1.5,1.5,2.25,6.0,2.0,0.0,0.0,1.5,2.0,1.0,1.5,1.25,-0.8,-0.36,0.77,158.22,5.0,18.5,7.25,2.75,10.5,12.5,11.5,7.75,4.75,3.0,1.25,2.75,3.0,1.75,1.5,0.02,0.14,0.95,1221.42,-10.3,34.9
3.1,2.0,1.25,1.25,3.25,3.75,1.75,0.0,0.0,1.5,0.5,1.25,1.5,2.0,-0.48,-0.42,0.33,162.57,7.0,14.4,7.75,3.0,11.0,12.5,11.5,7.5,5.5,2.75,1.25,2.75,2.75,1.5,1.0,0.02,0.2,0.95,1262.02,-11.2,38.0
3.12,2.25,1.25,1.5,3.0,3.0,1.75,0.0,0.5,1.0,1.0,1.0,1.5,1.75,-0.42,-0.42,0.64,182.62,7.0,14.2,9.0,2.0,11.5,12.5,11.5,7.25,0.0,2.75,1.25,2.5,2.75,1.75,0.75,-0.05,0.2,0.95,1264.55,-11.3,39.1
3.14,1.75,1.25,1.75,3.75,3.0,1.75,0.0,0.0,0.75,2.0,1.25,1.5,2.0,-0.36,-0.42,0.7,206.49,6.4,9.6,9.25,2.25,12.0,12.0,11.5,6.5,2.75,0.5,1.0,1.5,0.75,0.5,0.5,-0.05,0.27,1.02,1214.27,-14.0,51.7
3.16,2.25,1.25,1.25,3.75,3.5,1.75,0.0,0.0,1.0,1.5,1.0,1.25,2.0,-0.3,-0.3,0.77,224.98,6.5,15.4,9.0,3.5,11.5,12.5,9.5,5.5,2.0,0.75,0.75,0.0,2.0,0.5,0.25,-0.05,0.27,1.02,1137.75,-15.6,54.3
3.18,2.25,1.25,1.25,3.5,3.0,1.75,0.0,0.0,1.25,2.0,1.0,1.0,2.0,-0.3,-0.11,0.95,244.53,6.1,12.4,10.0,4.25,13.5,13.0,10.5,3.75,1.75,1.75,0.25,0.0,1.0,0.5,1.0,-0.05,0.27,1.02,1104.57,-16.5,55.5
3.2,2.25,1.25,1.0,3.75,3.0,1.75,0.0,0.0,1.5,1.25,1.25,1.5,2.0,-0.3,0.02,1.08,260.99,6.8,11.1,12.5,5.0,11.0,14.0,10.5,5.0,0.5,1.75,1.0,0.0,0.5,0.5,1.0,0.02,0.33,1.02,1110.15,-15.4,57.2
3.22,2.25,1.25,1.0,3.25,3.5,1.75,0.0,0.5,1.5,1.25,1.0,1.5,2.25,-0.3,0.2,1.14,273.31,5.5,9.4,11.5,4.5,11.5,13.0,10.0,4.0,0.0,1.5,0.75,1.5,1.5,0.5,0.75,0.02,0.39,1.08,1115.5,-15.4,52.9
3.24,2.25,1.75,1.0,3.75,3.0,1.75,0.0,0.0,1.5,1.25,1.25,1.5,2.0,-0.17,0.45,1.39,285.56,7.0,13.2,11.5,5.25,13.0,12.5,8.75,3.25,0.0,1.25,0.75,0.5,1.75,0.5,0.75,0.02,0.39,1.02,1109.52,-17.4,55.9
3.26,2.0,1.5,1.0,3.25,3.0,2.0,0.0,0.5,1.5,1.0,1.0,1.5,1.75,-0.05,0.7,1.58,285.68,5.9,12.6,11.5,5.25,12.0,11.5,7.75,3.25,0.0,0.75,1.0,1.5,1.75,0.75,0.5,0.02,0.45,1.08,1066.63,-17.3,54.0
3.28,2.25,1.25,1.0,3.75,3.5,2.0,0.0,0.5,1.5,1.0,1.0,1.75,2.0,-0.23,0.83,1.7,287.89,5.9,11.9,13.5,6.0,12.5,10.5,8.0,0.5,0.0,1.5,1.25,1.5,2.75,1.0,0.75,0.02,0.58,1.2,1047.77,-18.8,51.8
3.3,2.25,1.25,1.0,3.75,3.5,1.75,0.0,0.5,1.5,1.0,1.25,1.5,2.0,-0.48,0.89,2.02,288.46,6.3,12.0,12.5,5.25,9.5,7.75,6.25,0.5,0.0,1.5,1.25,1.5,2.5,0.5,0.75,0.08,0.83,1.7,950.31,-18.6,51.5
3.32,2.25,1.5,1.0,2.5,3.0,1.75,0.0,0.5,1.5,1.5,1.0,1.5,2.0,-0.61,1.27,2.14,286.22,5.3,7.9,11.5,5.0,7.75,5.75,3.25,3.0,0.0,1.25,1.0,1.5,2.5,0.25,0.75,0.33,1.08,2.33,827.1,-17.3,50.3
3.34,2.25,1.25,1.0,3.75,2.5,1.75,0.0,0.0,1.5,2.0,1.0,1.5,2.0,-0.36,1.64,2.14,285.63,6.2,7.8,10.0,3.5,5.25,4.0,3.0,2.25,0.0,0.25,1.25,1.75,0.75,0.25,0.75,0.58,0.89,2.27,648.09,-17.3,52.6
3.36,2.25,1.5,1.0,3.75,3.75,1.75,0.0,0.75,1.5,2.0,1.0,1.5,2.0,0.08,2.08,1.89,292.38,5.0,10.1,8.25,2.0,3.0,3.25,1.0,2.5,0.0,0.5,1.0,1.5,2.0,1.0,0.75,0.58,1.02,2.27,475.76,-15.6,36.8
3.38,2.25,1.25,1.0,3.75,4.5,1.75,0.0,0.5,1.5,1.25,1.0,1.75,2.25,0.52,2.58,1.33,299.53,5.3,11.4,6.25,1.5,2.75,1.25,0.25,0.0,0.0,0.0,0.75,0.25,2.5,0.5,0.75,0.77,0.2,2.02,312.31,-22.9,37.5
3.4,2.5,1.25,1.0,3.5,4.25,1.5,0.0,0.0,1.5,1.5,1.0,1.75,2.0,1.45,2.77,0.77,304.83,6.4,12.5,1.75,0.5,2.5,0.75,0.5,0.0,0.0,0.25,1.25,1.5,0.75,1.0,0.0,0.95,-0.36,1.52,194.36,-16.4,10.1
3.42,2.5,1.25,1.0,3.75,4.75,1.5,0.0,0.5,1.5,2.0,1.25,1.75,2.5,2.27,3.45,0.27,318.04,5.0,7.8,0.0,0.25,4.0,1.0,3.0,0.75,0.0,0.0,0.75,0.0,0.75,0.5,0.75,1.27,-0.3,1.08,101.71,-13.1,26.3
3.44,2.25,1.25,1.0,3.75,3.75,1.5,0.0,0.5,1.5,2.25,1.0,1.75,2.0,1.7,3.33,-0.23,317.82,5.2,7.2,0.75,0.25,1.25,0.25,1.0,1.0,0.0,0.0,0.75,0.25,0.75,0.5,0.0,0.52,-0.61,1.64,17.63,-10.7,18.3
3.46,2.25,1.25,1.0,3.75,4.5,1.5,0.0,0.0,1.5,2.0,1.5,2.25,2.25,0.89,1.33,0.64,322.8,5.6,5.4,1.25,0.25,1.75,1.0,1.0,0.75,0.0,0.0,0.75,0.25,0.5,0.5,0.25,0.33,-0.17,0.77,0.0,-14.6,27.4
3.48,2.25,1.25,1.0,2.75,4.25,1.75,0.0,0.5,1.5,2.5,2.25,5.75,5.0,-0.23,-0.55,2.14,349.95,3.1,-23.5,1.0,0.25,1.25,1.0,1.5,0.75,0.0,0.0,0.75,0.25,0.75,0.5,0.25,0.58,0.08,0.2,0.0,-11.2,22.2
3.5,2.0,1.25,1.0,3.25,3.75,3.0,0.0,1.0,2.5,6.25,4.0,8.0,7.5,0.02,0.2,0.83,446.66,0.5,-39.0,0.75,0.25,1.5,0.75,1.75,0.75,0.0,0.0,0.75,0.5,0.75,0.5,0.0,0.45,0.2,0.14,0.0,-10.7,22.4
3.52,0.75,1.0,1.0,0.75,3.5,1.5,0.0,4.25,3.75,7.0,7.0,8.0,8.25,0.2,1.27,2.77,577.53,-1.3,-55.3,1.0,0.25,2.0,0.75,1.5,0.75,0.0,0.0,0.75,0.25,0.75,0.5,0.5,0.2,0.52,0.27,6.52,-12.6,20.8
3.54,1.25,1.0,0.75,1.0,0.0,1.5,0.0,5.75,3.5,6.5,7.75,8.0,8.5,0.2,-0.05,1.27,691.14,-1.2,-63.4,0.5,0.25,2.5,0.75,1.25,0.75,0.0,0.0,0.75,0.25,0.75,0.5,0.5,0.02,0.77,0.27,42.18,-13.4,18.0
3.56,0.75,1.0,0.5,5.0,1.25,0.75,0.0,4.75,3.5,7.0,7.5,7.5,7.75,-0.11,0.02,0.89,766.23,0.2,-52.2,0.75,0.0,2.5,0.0,1.0,0.0,0.0,0.0,0.75,0.25,0.75,0.5,0.0,-0.48,3.08,0.39,58.96,-20.5,19.6
3.58,1.5,1.75,0.0,4.0,2.5,4.0,0.0,4.5,4.0,7.0,7.0,8.0,8.5,-0.17,0.08,0.89,828.19,-1.2,-44.5,2.0,1.0,2.0,1.25,1.5,1.0,0.0,0.0,1.0,1.0,0.5,1.0,0.0,1.7,-6.98,-6.05,104.31,-13.1,28.3
3.6,2.25,1.75,1.0,4.75,5.75,3.5,0.0,6.25,4.75,8.0,8.25,9.0,9.25,-0.11,0.08,0.95,943.48,-0.2,-37.6,2.0,1.0,3.0,1.75,5.0,2.0,0.0,1.5,1.0,1.75,0.75,1.0,0.75,0.64,3.52,2.77,187.2,-5.9,21.4
3.62,1.75,2.0,0.0,4.75,5.75,4.0,0.5,6.25,5.0,7.5,8.75,9.25,9.5,-0.05,0.08,0.95,1052.92,-0.8,-39.4,2.0,1.25,3.0,1.0,4.25,2.0,0.0,1.75,1.0,1.5,1.0,1.0,0.75,-0.05,-1.8,0.77,250.28,-5.9,19.0
3.64,2.5,2.25,0.0,5.0,5.75,4.0,1.25,6.0,5.25,8.0,8.5,9.0,9.25,-0.05,0.02,0.95,1148.71,-0.1,-36.2,2.0,1.25,3.25,1.25,3.25,2.25,0.0,1.5,1.0,1.5,2.0,1.0,0.75,0.27,0.08,0.7,291.34,-7.1,14.6
3.66,2.25,2.5,0.0,5.0,6.0,4.0,1.5,5.75,5.25,7.25,8.5,8.75,9.25,-0.05,0.02,0.95,1182.37,0.0,-34.9,2.0,1.25,3.0,1.0,3.25,2.5,0.0,1.5,1.0,1.75,2.0,1.25,0.75,-0.05,-0.3,0.39,311.84,-6.1,11.3
3.68,0.5,1.25,1.25,3.75,6.0,3.5,2.25,5.75,5.25,7.5,8.0,7.5,8.0,-0.05,0.02,0.95,1144.69,-0.4,-38.3,2.0,1.25,2.75,1.25,3.25,2.0,0.0,1.5,1.0,1.5,1.0,1.25,0.75,0.08,-0.17,0.39,316.37,-6.5,16.0
3.7,0.75,1.5,2.25,5.0,6.0,4.25,1.75,5.5,5.25,6.75,7.75,7.5,8.25,-0.11,0.08,0.95,1091.72,0.4,-32.7,2.0,1.0,3.5,1.0,3.25,2.0,0.0,1.5,0.75,1.5,2.0,1.5,0.75,0.08,0.2,0.27,312.58,-7.6,11.1
3.72,0.5,0.75,1.75,5.25,4.5,5.25,1.75,4.75,5.25,7.0,6.75,6.75,6.75,-0.11,0.08,0.95,997.8,0.0,-33.2,2.0,1.25,4.0,1.0,3.25,2.25,0.0,1.5,1.0,1.5,0.75,1.25,1.0,-0.92,7.95,-5.98,313.1,-7.7,18.0
3.74,1.75,0.5,3.5,4.0,6.5,3.5,2.5,5.75,5.0,6.5,7.5,6.75,7.5,-0.05,0.08,0.95,952.03,1.7,-29.8,2.0,1.25,2.75,0.0,3.5,2.75,0.0,1.75,1.0,1.5,2.0,1.25,0.75,0.89,1.7,0.39,311.54,-4.6,9.6
3.76,1.75,1.25,2.75,5.0,5.5,5.25,1.25,6.0,5.5,7.0,7.25,7.0,6.75,-0.05,0.02,0.95,930.96,0.8,-27.9,2.0,1.25,3.75,1.0,3.5,2.25,0.0,1.5,1.0,1.5,2.0,1.25,0.5,0.08,-0.98,0.08,312.42,-7.9,15.8
3.78,2.5,1.25,3.75,6.0,6.5,5.5,1.25,6.0,5.5,6.75,7.0,6.75,6.75,-0.05,0.02,0.95,961.35,1.9,-21.5,2.0,1.25,3.0,1.25,3.0,2.0,0.0,1.5,1.0,1.5,1.75,1.5,0.75,0.08,1.7,-0.73,306.43,-7.2,11.4
3.8,2.0,1.25,3.75,6.0,6.5,6.0,1.75,6.0,5.5,5.75,6.25,5.75,6.0,-0.05,0.02,0.95,960.08,1.8,-17.7,2.0,1.0,2.75,1.0,3.25,2.0,0.0,1.75,1.0,1.5,0.75,1.0,0.75,0.83,3.83,-2.05,293.37,-5.9,16.4
3.82,2.5,1.0,4.5,7.25,7.25,6.5,1.5,5.75,5.5,5.25,4.75,5.25,5.0,-0.11,0.08,0.95,961.02,2.7,-9.3,1.75,1.25,3.25,1.0,3.0,2.0,0.0,1.75,1.0,1.5,1.5,1.25,0.75,0.83,5.83,0.58,281.51,-6.8,12.3
3.84,3.25,1.25,5.25,7.75,8.0,6.75,1.5,5.75,5.25,5.25,3.75,4.75,4.25,-0.11,0.08,0.95,961.29,3.5,-2.1,2.0,1.0,2.75,1.0,3.0,2.0,0.0,1.5,1.0,1.5,0.75,1.0,0.75,0.58,1.58,-0.92,267.91,-6.4,16.6
3.86,3.75,1.25,5.0,9.25,9.25,7.25,2.75,5.75,4.75,4.25,3.0,3.25,3.25,-0.11,0.08,0.95,980.53,4.1,8.3,2.0,1.25,3.75,1.0,3.25,2.0,0.0,1.5,1.0,1.5,1.75,1.25,0.75,0.33,1.64,0.64,273.57,-8.1,14.6
3.88,3.5,2.5,5.5,9.25,9.75,7.75,1.5,5.25,4.25,3.75,2.0,3.25,2.0,-0.11,0.08,0.95,991.68,4.5,16.0,2.0,1.0,3.25,1.0,3.0,2.0,0.0,1.5,0.75,1.75,1.0,1.0,0.75,0.02,0.58,0.7,270.99,-6.9,16.1
3.9,4.75,2.75,5.75,11.5,12.0,8.25,1.5,4.5,3.0,3.5,1.75,2.75,2.0,-0.11,0.08,0.95,1041.64,5.2,24.5,2.0,1.25,3.25,1.25,3.25,2.0,0.0,1.5,0.75,1.5,1.25,1.0,0.75,0.27,0.33,1.52,274.79,-7.3,18.3
3.92,5.5,3.5,6.75,12.5,14.0,8.0,0.75,4.5,2.5,0.0,2.25,2.5,2.75,-0.11,0.14,1.08,1108.62,6.8,32.0,2.0,1.25,3.0,1.25,3.25,2.0,0.0,1.5,0.75,1.75,0.75,1.0,0.75,-0.17,-0.23,0.64,272.96,-6.5,18.9
3.94,6.75,2.5,7.75,11.5,14.0,7.75,1.5,3.0,2.25,0.0,2.25,1.5,3.0,-0.11,0.14,1.2,1147.74,8.2,35.6,2.0,1.25,3.25,1.0,3.0,2.0,0.0,1.5,0.75,1.5,1.5,1.0,0.75,-0.05,-0.36,0.27,272.75,-7.4,16.1
3.96,8.0,4.25,8.25,4.5,14.0,7.5,1.0,2.5,2.25,2.0,2.25,1.75,3.0,-0.23,0.14,1.27,1148.3,7.5,32.7,2.0,1.0,3.75,1.0,3.0,2.0,0.0,1.5,0.75,1.5,0.75,1.0,0.75,-0.23,-0.48,0.14,270.31,-8.0,19.7
3.98,9.5,4.25,9.0,12.0,12.5,6.0,0.0,2.25,2.25,2.0,1.25,1.75,3.0,-0.23,0.2,1.2,1172.92,10.3,38.6,2.0,1.0,2.75,1.0,3.0,2.0,0.0,1.5,0.75,1.5,0.75,1.0,0.75,-0.48,-0.61,-0.23,265.54,-6.3,17.3
4.0,11.0,7.0,10.0,13.5,12.0,5.25,0.0,1.0,2.25,2.0,2.0,1.5,1.75,-0.3,0.33,1.14,1228.75,12.8,46.2,2.0,1.0,3.25,1.0,3.0,2.0,0.0,1.5,0.75,1.5,0.75,1.0,1.0,-0.23,-0.8,0.27,263.55,-6.9,16.8
4.02,11.5,6.75,10.5,9.5,11.5,4.0,0.0,1.0,2.0,2.0,1.0,1.5,1.5,-0.36,0.39,1.2,1231.68,13.8,48.7,2.0,1.0,2.75,1.0,3.0,2.0,0.0,1.5,0.75,1.5,0.75,1.0,0.75,-0.3,-2.23,0.08,260.24,-6.3,17.3
4.04,11.5,7.0,8.25,7.25,8.75,3.0,0.0,0.75,1.75,1.25,1.25,1.5,1.25,-0.48,0.52,1.33,1146.33,15.0,50.7,2.0,1.0,3.0,1.0,3.0,2.0,0.0,1.5,0.75,1.5,0.75,1.0,0.75,-0.73,-3.05,-1.42,259.62,-6.7,17.9
4.06,11.0,7.5,5.0,5.75,7.75,3.0,0.0,0.75,1.5,1.5,1.0,0.75,1.5,-1.05,1.2,1.77,992.39,13.3,51.8,2.0,1.0,3.0,1.25,1.75,2.0,0.0,1.5,0.75,1.5,0.75,1.0,0.75,-1.55,-1.55,-1.67,252.88,-7.7,15.6
4.08,10.5,8.0,1.0,5.75,7.25,1.75,0.0,1.75,1.5,1.25,1.75,1.75,3.0,-1.61,1.45,3.27,838.32,10.5,39.3,2.0,1.0,2.5,1.0,2.75,2.0,0.0,1.5,0.75,1.75,0.75,1.0,0.75,-1.48,-0.55,-0.8,251.24,-5.7,14.9
4.1,7.25,4.5,0.75,3.75,6.25,1.75,0.0,1.75,2.25,1.5,2.0,0.25,1.25,-1.11,1.45,3.14,646.9,9.1,37.0,2.0,1.0,3.0,1.25,3.0,2.0,0.0,1.5,0.75,1.5,0.75,1.0,0.75,-1.17,-0.42,-1.36,251.73,-6.9,18.5
4.12,5.0,2.5,0.0,1.5,4.25,1.0,0.0,1.75,1.5,0.0,2.0,0.0,2.75,-1.11,1.77,2.77,447.64,6.8,22.7,2.0,1.0,2.75,1.0,3.0,2.0,0.0,1.5,0.75,1.5,2.0,1.25,0.75,-0.73,0.2,-1.67,259.09,-6.6,10.1
4.14,2.5,2.5,0.0,3.75,5.0,1.5,0.0,0.5,1.5,0.0,1.75,0.75,2.0,-0.36,0.83,1.95,315.73,6.0,24.7,2.0,1.25,2.75,1.0,2.75,2.0,0.0,1.5,0.75,1.5,0.75,1.0,0.75,-0.17,1.58,-0.8,259.75,-6.5,17.9
4.16,2.5,2.5,1.25,2.5,3.0,3.0,0.0,0.0,1.5,2.25,2.0,1.5,1.25,-2.23,-2.55,0.02,249.83,5.5,13.4,2.0,1.0,2.75,0.75,3.25,2.0,0.0,1.5,0.75,1.5,2.0,1.25,0.25,0.33,2.08,-0.92,263.54,-6.8,13.3
4.18,2.25,2.5,1.5,1.75,5.25,3.0,0.0,1.0,1.25,0.5,2.0,1.5,1.25,1.64,0.2,0.33,224.06,4.8,20.7,2.0,1.0,2.75,1.0,3.0,2.0,0.0,1.5,0.75,1.5,0.75,1.0,0.0,0.33,1.95,-1.05,259.23,-7.2,22.9
4.2,2.25,1.5,1.75,0.25,6.25,3.0,0.0,1.0,1.5,1.25,1.5,1.75,2.0,2.02,0.89,-1.92,220.52,2.5,10.1,2.0,1.0,2.75,1.0,3.0,2.0,0.0,1.5,0.75,1.5,1.5,1.25,0.75,0.02,1.58,-0.48,261.6,-6.5,12.2
4.22,2.5,1.0,1.75,2.25,4.75,3.0,0.0,1.0,1.25,2.25,2.0,1.5,1.25,2.02,0.95,-1.92,228.27,4.0,10.3,1.75,0.5,3.25,1.0,3.25,2.0,0.0,1.25,0.75,1.5,0.75,1.0,0.0,-0.3,1.52,0.08,256.68,-7.7,22.2
4.24,2.5,1.0,1.75,2.0,4.5,1.75,0.0,1.0,1.5,2.0,2.0,1.5,2.0,2.64,1.08,-1.61,235.71,5.0,4.7,2.0,1.0,2.75,1.0,2.75,2.0,0.0,1.5,0.75,1.5,0.75,1.0,0.75,-0.42,1.2,0.08,255.89,-6.4,16.8
4.26,2.25,1.25,1.75,2.5,4.25,3.0,0.0,0.75,1.5,2.25,2.0,1.5,2.0,2.39,0.64,-1.42,256.92,3.8,6.3,2.0,1.0,2.75,0.75,3.0,2.0,0.0,1.5,0.75,1.5,0.75,1.0,0.0,-0.23,0.83,0.02,251.58,-7.0,22.4
4.28,2.25,1.0,1.75,2.5,3.75,2.75,0.0,1.0,1.5,2.0,2.0,1.25,1.5,1.27,-0.23,-1.05,270.9,4.5,8.0,2.0,1.25,2.75,1.0,3.0,2.0,0.0,1.5,0.75,1.75,0.75,1.0,0.75,-0.11,0.52,-0.05,254.96,-6.1,17.2
4.3,2.25,1.5,1.75,2.0,4.25,2.0,0.0,0.75,1.5,1.25,2.0,1.5,2.0,0.52,-1.17,-0.8,282.14,5.5,8.6,2.0,1.0,2.75,0.75,3.0,2.0,0.0,1.5,0.75,1.5,0.75,1.0,0.25,-0.17,0.33,-0.23,253.01,-6.7,20.5
4.32,2.5,1.25,1.25,2.25,3.5,1.75,0.0,1.0,1.5,0.75,2.0,1.75,2.75,-0.17,-1.42,-0.42,287.28,5.4,1.9,2.0,1.0,2.75,1.0,3.0,2.0,0.0,1.5,0.75,1.5,1.5,1.0,0.5,-0.36,0.33,-0.55,256.17,-6.7,15.5
4.34,2.25,1.25,1.75,1.0,3.5,1.75,0.0,1.0,1.5,1.25,1.75,1.75,2.25,-0.55,-0.92,-0.48,290.94,5.1,0.6,2.0,1.0,3.25,1.0,3.0,2.0,0.0,1.25,0.75,1.75,1.75,1.0,0.75,-0.55,0.14,-0.8,261.36,-7.4,13.5
4.36,2.25,1.25,1.75,1.0,3.5,1.75,0.0,1.0,1.5,0.75,1.25,1.75,2.0,-0.48,-0.48,-0.86,285.22,5.7,5.7,2.0,1.0,2.75,1.0,3.0,2.0,0.0,1.25,0.75,1.5,1.5,1.0,0.75,-0.73,0.02,-0.55,263.9,-6.8,14.5
4.38,2.25,1.25,1.75,1.25,2.5,1.5,0.0,1.0,1.5,1.0,1.25,1.5,2.25,-0.05,0.08,-0.98,271.34,6.1,2.1,1.75,0.75,3.0,0.75,3.25,2.75,0.0,1.5,0.75,1.5,2.0,1.0,0.75,-0.92,0.14,-0.17,269.57,-5.2,10.9
4.4,2.25,1.25,1.0,1.25,3.0,1.5,0.0,1.0,1.5,1.0,1.0,1.5,2.75,0.52,0.7,-0.55,260.67,4.0,-0.6,2.0,1.0,3.0,1.0,3.25,2.0,0.0,1.5,0.75,1.5,2.0,1.0,0.75,-0.73,-0.42,-0.8,273.23,-6.8,12.8
4.42,2.25,1.25,1.0,2.0,3.0,1.75,0.0,1.0,1.5,0.75,1.5,1.75,2.75,0.83,0.95,-0.36,259.55,4.6,-0.2,1.75,1.0,2.75,1.0,3.0,1.0,0.0,1.5,0.75,1.5,0.75,1.25,0.75,0.2,-0.23,-1.67,267.18,-7.5,13.6
4.44,2.25,1.25,1.5,2.0,3.0,1.75,0.0,0.75,1.5,0.0,2.0,1.5,2.75,0.83,1.27,0.2,262.28,6.6,4.0,0.25,0.25,2.75,0.0,1.75,0.75,0.0,0.0,0.25,0.0,0.75,0.5,0.0,1.33,0.2,-1.98,218.92,-14.9,31.1
4.46,2.25,1.25,1.25,2.0,3.0,1.75,0.0,0.75,1.5,1.0,1.5,1.5,3.0,0.95,1.27,0.89,267.87,4.8,0.0,0.5,0.25,1.75,0.0,1.5,0.75,0.0,0.25,0.25,0.0,0.75,0.5,0.25,1.64,0.45,-1.67,167.43,-10.6,20.3
4.48,2.25,1.25,1.0,2.0,2.5,2.25,0.0,1.0,1.5,1.0,1.75,1.5,2.75,0.58,0.77,0.89,271.62,4.0,-1.4,0.5,0.25,1.75,0.0,1.25,0.75,0.0,0.0,0.25,0.0,0.75,0.5,0.0,1.45,0.58,-1.23,113.81,-13.4,26.6
4.5,2.25,1.25,1.0,2.25,3.0,2.5,0.0,1.0,1.5,1.25,1.75,1.25,3.0,0.14,0.52,0.77,279.04,3.2,0.2,0.0,0.25,2.0,0.0,0.5,0.75,0.0,0.0,0.5,0.0,0.5,0.5,0.0,0.89,0.7,-0.8,75.68,-15.6,18.9
4.52,2.25,1.25,1.0,1.25,2.5,1.75,0.0,0.75,1.5,0.0,1.5,1.25,1.25,0.02,0.33,0.7,265.6,7.2,12.6,0.5,0.25,2.25,0.0,0.25,0.75,0.0,0.0,0.25,0.0,0.75,0.5,0.0,0.45,0.89,-0.67,54.84,-19.3,24.1
4.54,2.25,1.25,1.0,1.75,3.0,1.75,0.0,1.0,1.5,0.75,1.25,1.5,2.75,-0.11,0.27,0.58,265.18,4.3,1.2,0.75,0.25,2.5,0.0,1.0,0.75,0.0,0.0,0.5,0.0,0.75,0.5,0.0,0.08,0.7,-0.98,58.3,-17.5,29.3
4.56,2.25,1.25,1.25,1.75,3.0,2.25,0.0,1.0,1.5,1.25,1.25,1.75,2.5,-0.23,0.27,0.58,267.73,3.9,0.9,0.25,0.25,2.25,0.0,0.5,0.75,0.0,0.0,0.5,0.0,0.75,0.5,0.0,-0.17,0.39,-0.98,56.04,-17.2,20.0
4.58,2.25,1.25,1.0,1.75,3.5,2.25,0.0,1.0,1.5,1.5,1.5,1.75,3.0,-0.42,0.14,0.52,280.75,2.8,-2.5,0.5,0.25,2.5,0.0,0.5,0.75,0.0,0.0,0.5,0.0,0.75,0.5,0.0,-0.36,0.08,-0.67,59.43,-18.7,24.5
4.6,2.25,1.25,1.0,1.75,3.0,2.5,0.0,1.0,1.5,1.75,1.25,1.5,2.75,-0.61,0.02,0.2,287.28,2.5,-1.1,0.5,0.25,2.25,0.0,1.0,0.5,0.0,0.0,0.5,0.0,0.5,0.5,0.25,-0.36,0.08,-0.55,64.79,-16.5,23.7
4.62,2.25,1.25,1.75,1.75,2.5,2.25,0.0,1.0,1.5,1.5,1.75,1.75,2.75,0.52,0.2,-0.98,293.98,4.7,-2.8,0.25,0.25,2.5,0.0,0.0,0.75,0.0,0.0,0.5,0.0,0.75,0.5,0.0,-0.36,0.33,-0.61,66.41,-20.4,18.4
4.64,2.25,1.25,1.75,2.0,2.5,2.0,0.0,0.75,1.5,2.0,1.5,1.5,2.75,1.14,0.58,-2.11,294.16,4.8,-1.7,0.5,0.25,2.0,0.0,0.0,0.5,0.0,0.0,0.5,0.0,0.75,0.5,0.0,-0.17,0.64,-0.86,67.18,-21.3,16.9
4.66,2.25,1.25,1.5,2.25,3.0,2.25,0.0,0.75,1.5,1.25,1.25,1.75,2.5,0.95,0.2,-1.92,293.23,4.9,3.4,0.5,0.25,2.5,0.0,0.0,0.5,0.0,0.0,0.5,0.25,0.75,0.5,0.0,-0.11,0.89,-1.05,76.05,-21.2,16.9
4.68,2.25,1.25,1.75,2.25,2.5,1.75,0.0,1.0,1.5,1.25,1.25,1.5,3.25,2.64,-0.23,-1.05,292.71,5.2,-1.0,0.25,0.25,2.5,0.0,0.25,0.5,0.0,0.0,0.5,0.0,0.5,0.5,0.0,-0.23,0.89,-0.98,83.53,-21.4,23.9
4.7,2.25,1.25,1.5,2.25,2.5,2.75,0.0,1.0,1.5,2.0,1.5,1.75,2.5,4.33,-0.55,-0.73,296.48,3.7,-1.0,0.0,0.0,2.5,0.0,0.25,0.75,0.0,0.0,0.5,0.25,0.5,0.5,0.0,-0.36,0.77,-0.8,83.49,-17.5,12.7
4.72,2.25,1.25,1.5,1.5,2.5,2.5,0.0,0.75,1.5,1.5,1.25,1.75,2.75,2.58,-0.3,-0.61,293.72,3.9,-1.8,0.5,0.25,2.5,0.0,0.0,0.75,0.0,0.0,0.5,0.0,0.75,0.5,0.0,-0.42,0.45,-0.8,86.03,-21.0,21.6
4.74,2.25,1.25,1.5,1.75,2.5,2.25,0.0,0.75,1.5,2.0,1.5,1.75,3.0,1.02,-0.11,-0.3,294.25,3.8,-5.2,0.5,0.25,2.5,0.0,0.5,0.75,0.0,0.0,0.25,0.0,0.75,0.5,0.25,-0.36,0.45,-0.86,91.36,-17.7,21.5
4.76,2.25,1.25,1.0,1.0,2.5,2.5,0.0,0.75,1.5,2.0,1.25,1.75,2.75,0.39,-0.05,0.2,288.76,2.2,-6.6,0.5,0.25,2.5,0.0,0.0,0.75,0.0,0.0,0.5,0.25,0.75,0.5,0.0,-0.3,0.52,-0.86,92.77,-19.4,17.5
4.78,2.25,1.25,1.25,1.0,2.5,2.5,0.0,1.0,1.5,1.5,1.25,1.75,2.75,0.2,0.02,0.33,281.63,2.9,-4.5,0.25,0.25,2.5,0.0,0.5,0.5,0.0,0.0,0.25,0.0,0.75,0.5,0.25,-0.17,0.52,-0.92,93.43,-18.6,18.0
4.8,2.25,1.25,1.0,1.0,3.0,2.25,0.0,0.75,1.5,2.0,1.25,1.75,2.75,0.2,-0.05,0.2,276.89,2.4,-5.4,0.5,0.25,2.5,0.0,0.25,0.5,0.0,0.0,0.5,0.25,0.75,0.5,0.25,-0.05,0.52,-0.86,96.49,-18.6,13.3
4.82,2.25,1.25,1.0,2.0,2.5,2.0,0.0,1.0,1.5,1.5,1.25,2.0,2.25,0.39,0.08,0.08,275.35,4.2,-1.7,0.25,0.25,2.5,0.0,0.25,0.5,0.0,0.0,0.5,0.25,0.75,0.5,0.0,0.02,0.58,-0.86,95.23,-19.4,15.4
4.84,2.5,1.25,1.0,2.25,2.5,2.0,0.0,1.0,1.25,1.25,2.0,1.5,2.75,0.52,0.39,-0.17,277.82,4.6,-1.2,0.0,0.25,2.25,0.0,0.5,0.5,0.0,0.0,0.25,0.0,0.75,0.5,0.0,0.02,0.58,-0.92,91.22,-18.5,18.6
4.86,2.25,1.25,1.0,2.25,2.5,2.25,0.0,0.75,1.5,2.0,1.25,1.5,2.5,0.7,0.64,-0.3,279.32,3.6,-0.7,0.25,0.5,1.75,0.0,0.25,0.5,0.0,0.0,0.25,0.25,0.75,0.5,0.0,-0.11,0.58,-0.92,87.1,-16.5,15.4
4.88,2.25,1.25,1.0,2.5,3.5,2.0,0.0,0.75,1.5,2.0,1.25,1.75,2.75,0.95,0.83,-0.42,287.29,3.5,0.0,0.5,0.25,1.75,0.0,0.0,0.5,0.0,0.0,0.5,0.0,0.75,0.5,0.0,-0.23,0.64,-0.86,81.29,-20.3,14.5
4.9,2.25,1.5,1.0,2.25,3.0,2.75,0.0,1.0,1.5,2.0,1.25,1.75,2.75,1.2,0.95,-0.42,294.54,2.6,-0.3,0.0,0.25,2.5,0.0,0.0,0.5,0.0,0.0,0.25,0.0,0.75,0.5,0.0,-0.23,0.64,-0.73,76.82,-22.2,16.6
4.92,2.25,1.25,1.0,2.5,2.5,2.25,0.0,1.0,1.5,2.0,1.5,1.75,2.75,1.27,0.77,-0.42,298.11,3.4,-3.7,0.5,0.25,2.25,0.0,0.5,0.5,0.0,0.0,0.5,0.0,0.75,0.5,0.0,-0.23,0.64,-0.73,80.53,-19.6,22.5
4.94,2.25,1.25,1.0,2.75,3.0,2.0,0.0,1.0,1.5,2.0,1.25,1.75,2.75,1.14,0.45,-0.42,300.61,3.6,-1.1,0.25,0.25,2.5,0.0,0.25,0.5,0.0,0.0,0.25,0.25,0.75,0.5,0.0,-0.23,0.7,-0.8,83.36,-19.7,17.8
4.96,2.25,1.25,1.25,2.5,3.0,2.0,0.0,1.0,1.5,2.0,1.0,1.75,2.75,1.02,0.14,-0.3,301.85,3.8,-0.3,0.5,0.25,2.5,0.0,0.5,0.5,0.0,0.0,0.5,0.0,0.75,0.5,0.0,-0.17,0.7,-0.8,88.96,-20.3,24.2
4.98,2.25,1.25,1.0,2.5,3.5,2.0,0.0,0.75,1.5,1.75,1.0,1.75,2.75,0.89,-0.11,-0.17,300.97,3.6,1.5,0.0,0.25,2.5,0.0,0.25,0.5,0.0,0.0,0.25,0.0,0.75,0.5,0.25,-0.17,0.64,-0.86,88.25,-19.1,12.5
5.0,2.25,1.25,1.5,2.5,2.5,1.75,0.0,1.0,0.5,1.75,1.0,2.0,2.5,0.83,-0.17,-0.17,294.74,4.8,1.2,0.5,0.25,2.5,0.0,0.0,0.5,0.0,0.0,0.25,0.0,0.75,0.5,0.0,-0.11,0.58,-0.86,87.94,-23.4,23.9
5.02,2.25,1.25,1.25,2.5,2.5,2.25,0.0,1.0,0.5,2.0,0.5,1.75,3.0,0.83,-0.17,-0.17,289.56,2.9,0.6,0.5,0.5,2.0,0.0,0.5,0.5,0.0,0.0,0.25,0.0,0.75,0.5,0.0,-0.05,0.52,-0.92,87.42,-18.7,27.0
5.04,2.25,1.25,1.5,2.5,2.5,1.75,0.0,0.75,0.75,1.75,0.0,1.75,2.5,0.83,-0.05,-0.17,279.65,4.8,6.4,0.0,0.25,1.75,0.0,0.25,0.5,0.0,0.0,0.25,0.0,0.75,0.5,0.0,-0.05,0.52,-0.92,81.04,-17.6,11.2
5.06,2.25,1.25,1.0,2.5,2.5,2.0,0.0,1.0,0.5,2.0,1.0,1.75,3.0,0.89,0.14,-0.17,276.84,2.9,-2.1,0.5,0.25,2.0,0.0,0.5,0.5,0.0,0.0,0.25,0.0,0.75,0.5,0.0,-0.11,0.52,-0.92,81.82,-19.0,23.5
5.08,2.25,1.25,1.0,2.5,3.0,2.25,0.0,1.0,1.0,1.75,1.0,1.75,2.5,0.83,0.39,-0.23,277.45,3.3,2.3,0.0,0.25,2.25,0.0,0.5,0.75,0.0,0.0,0.25,0.0,0.5,0.5,0.0,-0.17,0.58,-0.86,81.09,-16.9,23.8
5.1,2.25,1.25,1.0,2.5,2.5,1.75,0.0,1.0,0.5,1.25,0.0,1.75,2.75,0.83,0.58,-0.36,271.18,3.8,5.5,0.25,0.25,2.25,0.0,0.25,0.5,0.0,0.0,0.25,0.0,0.75,0.5,0.0,-0.23,0.58,-0.86,81.76,-20.5,20.3
5.12,2.25,1.25,1.5,2.75,2.5,1.75,0.0,1.0,1.5,2.0,0.0,1.75,2.25,0.83,0.7,-0.42,271.54,5.0,5.3,0.5,0.25,2.0,0.0,0.5,0.5,0.0,0.0,0.25,0.0,0.75,0.5,0.0,-0.23,0.58,-0.86,82.42,-19.0,23.5
5.14,2.25,1.25,1.25,2.5,3.0,1.75,0.0,1.0,1.25,2.0,0.5,1.5,2.75,0.83,0.7,-0.42,273.94,3.7,2.6,0.25,0.25,2.25,0.0,0.5,0.5,0.0,0.0,0.25,0.0,0.75,0.5,0.0,-0.17,0.58,-0.86,83.64,-19.2,22.1
5.16,1.75,1.25,1.0,2.25,3.0,1.75,0.0,1.0,1.5,3.0,1.0,1.75,2.0,0.83,0.52,-0.3,279.01,2.5,-3.8,0.25,0.25,2.0,0.0,1.25,0.5,0.0,0.0,0.25,0.0,0.75,0.5,0.0,-0.17,0.58,-0.86,87.31,-15.1,25.0
5.18,2.25,1.25,1.25,2.75,3.5,2.0,0.0,1.0,1.5,2.0,1.0,1.75,2.75,0.83,0.45,-0.3,289.1,3.7,1.5,0.5,0.5,1.75,0.0,0.5,0.5,0.0,0.0,0.25,0.0,0.75,0.5,0.0,-0.17,0.58,-0.8,87.97,-17.7,25.4
5.2,2.25,1.25,1.0,2.25,2.5,2.25,0.0,1.0,1.5,2.0,1.0,1.75,2.5,0.77,0.39,-0.3,291.69,3.3,-1.5,0.0,0.25,1.0,0.0,0.0,0.5,0.0,0.0,0.25,0.25,0.75,0.5,0.0,-0.17,0.64,-0.86,77.57,-12.4,-9.6
5.22,2.25,1.25,1.0,2.75,2.5,1.75,0.0,1.0,1.5,2.0,1.0,1.75,2.75,0.77,0.39,-0.3,293.32,4.0,-2.2,0.25,0.25,2.0,0.0,1.0,0.5,0.0,0.0,0.25,0.0,0.75,0.5,0.0,-0.17,0.58,-0.86,79.55,-16.0,23.5
5.24,2.25,1.25,1.0,2.75,2.5,2.0,0.0,0.75,1.25,2.0,0.0,1.75,2.75,0.77,0.39,-0.36,288.19,3.5,2.5,0.25,0.25,1.75,0.0,1.0,0.75,0.0,0.0,0.25,0.0,0.75,0.5,0.0,-0.17,0.58,-0.86,81.21,-13.4,22.2
5.26,2.25,1.25,1.25,2.75,2.5,1.75,0.0,1.0,1.5,1.75,1.0,1.75,2.75,0.77,0.39,-0.42,288.31,4.6,-0.6,0.5,0.25,1.75,0.0,0.5,0.75,0.0,0.0,0.25,0.0,0.75,0.5,0.0,-0.23,0.58,-0.86,84.84,-16.2,22.2
5.28,2.25,1.25,1.0,2.5,2.5,1.75,0.0,1.0,1.5,2.0,1.0,1.75,2.75,0.77,0.39,-0.48,286.7,3.8,-2.9,0.5,0.25,1.75,0.0,0.5,0.5,0.0,0.0,0.25,0.0,0.75,0.5,0.0,-0.23,0.58,-0.86,85.28,-18.0,21.6
5.3,2.25,1.25,1.25,2.5,2.5,1.75,0.0,1.0,1.5,2.0,1.0,1.75,2.75,0.77,0.39,-0.48,287.89,4.2,-2.1,0.25,0.25,1.75,0.0,0.0,0.5,0.0,0.0,0.25,0.0,0.5,0.5,0.0,-0.23,0.58,-0.86,78.4,-20.6,18.4
5.32,1.25,1.25,1.75,3.0,3.0,2.0,0.0,1.0,1.25,1.75,1.0,1.75,2.75,0.77,0.39,-0.48,290.35,3.7,-0.4,0.25,0.25,1.5,0.0,0.25,0.5,0.0,0.0,0.25,0.0,0.75,0.5,0.0,-0.23,0.58,-0.86,72.17,-17.3,12.9
5.34,2.25,1.25,0.75,2.75,2.5,2.0,0.0,1.0,1.5,1.5,1.0,1.75,2.25,0.77,0.39,-0.42,288.26,4.2,1.8,0.5,0.5,1.25,0.0,1.0,0.5,0.0,0.0,0.25,0.0,0.75,0.5,0.0,-0.3,0.58,-0.8,73.6,-13.5,25.0
5.36,2.25,1.25,1.25,2.5,2.5,2.25,0.0,1.0,1.5,1.25,1.0,1.75,3.0,0.77,0.39,-0.42,287.05,4.1,-0.1,0.5,0.25,1.75,0.0,0.0,0.5,0.0,0.0,0.25,0.0,0.75,0.5,0.0,-0.3,0.58,-0.8,72.95,-20.8,17.5
5.38,2.25,1.25,1.25,2.5,2.5,1.75,0.0,1.0,1.25,1.25,0.25,1.75,2.5,0.77,0.45,-0.36,279.95,4.9,5.1,0.25,0.25,2.25,0.0,0.0,0.5,0.0,0.0,0.25,0.0,0.75,0.5,0.0,-0.3,0.58,-0.8,74.6,-22.0,18.2
5.4,2.25,1.25,1.25,2.5,2.5,2.0,0.0,1.0,1.25,1.25,1.0,1.75,2.75,0.77,0.45,-0.42,279.01,4.6,1.2,0.25,0.25,1.75,0.0,0.0,0.75,0.0,0.0,0.25,0.0,0.75,0.5,0.0,-0.3,0.58,-0.8,73.02,-17.7,14.1
5.42,2.25,1.25,1.25,2.5,2.5,1.75,0.0,1.0,1.25,1.0,1.0,1.75,2.5,0.77,0.52,-0.42,274.83,5.4,3.2,0.25,0.25,2.0,0.0,0.0,0.5,0.0,0.0,0.25,0.0,0.75,0.5,0.0,-0.3,0.58,-0.86,72.95,-21.0,15.8
5.44,2.25,1.25,1.0,2.5,2.5,1.75,0.0,1.0,1.25,1.25,1.0,1.75,2.5,0.7,0.52,-0.42,274.97,4.7,1.5,0.5,0.25,2.0,0.0,0.25,0.5,0.0,0.0,0.25,0.0,0.75,0.5,0.0,-0.36,0.58,-0.8,74.63,-20.3,21.8
5.46,2.25,1.25,1.0,3.25,2.5,2.25,0.0,0.75,1.25,1.25,1.0,1.75,2.75,0.7,0.52,-0.48,277.79,4.6,3.4,0.5,0.25,1.75,0.0,0.0,0.5,0.0,0.0,0.25,0.0,0.5,0.5,0.0,-0.36,0.58,-0.8,71.49,-21.4,22.8
5.48,1.5,1.5,2.0,2.0,2.5,2.0,0.0,0.75,1.5,1.75,0.75,1.75,3.0,0.7,0.52,-0.48,280.5,4.1,-2.2,0.0,0.25,1.75,0.0,0.0,0.5,0.0,0.0,0.25,0.0,0.5,0.5,0.0,-0.36,0.64,-0.73,67.92,-19.7,13.5
5.5,2.25,1.25,1.5,2.75,3.0,2.25,0.0,1.0,1.0,1.5,1.0,1.75,2.5,0.64,0.52,-0.48,285.88,4.5,5.2,0.5,0.5,1.75,0.0,0.5,0.5,0.0,0.0,0.25,0.0,0.75,0.5,0.0,-0.36,0.64,-0.73,72.55,-17.7,25.4
5.52,2.25,1.25,1.0,2.75,2.5,2.0,0.0,1.0,0.75,1.25,1.0,1.75,2.5,0.64,0.52,-0.48,283.41,4.3,3.6,0.5,0.25,2.0,0.0,0.0,0.5,0.0,0.0,0.25,0.0,0.75,0.5,0.0,-0.42,0.64,-0.73,74.41,-21.7,19.8
5.54,2.25,1.25,1.25,2.5,2.5,1.75,0.0,1.0,0.5,1.5,1.0,1.75,2.75,0.64,0.52,-0.48,280.68,4.3,1.3,0.5,0.25,1.75,0.0,0.0,0.5,0.0,0.0,0.25,0.0,0.75,0.5,0.0,-0.48,0.64,-0.73,75.66,-20.8,17.5
5.56,2.25,1.25,1.0,2.5,2.5,1.75,0.0,1.0,0.75,1.75,1.0,1.75,2.75,0.64,0.52,-0.55,276.84,3.8,-0.7,0.0,0.25,1.75,0.0,0.0,0.5,0.0,0.0,0.25,0.0,0.75,0.5,0.0,-0.48,0.64,-0.67,71.11,-19.1,8.1
5.58,2.25,1.25,1.0,2.75,2.5,1.75,0.0,0.75,0.75,1.25,1.0,1.75,2.75,0.64,0.52,-0.55,274.57,4.7,2.3,0.0,0.25,1.75,0.0,0.0,0.5,0.0,0.0,0.25,0.0,0.75,0.5,0.0,-0.48,0.64,-0.67,67.2,-19.1,8.1
5.6,2.25,1.25,1.0,2.75,3.0,1.75,0.0,1.0,0.75,1.25,1.0,1.75,2.5,0.58,0.52,-0.55,274.72,4.4,4.6,0.0,0.25,1.5,0.0,0.0,0.5,0.0,0.0,0.0,0.0,0.75,0.5,0.0,-0.48,0.64,-0.67,61.3,-18.2,7.5
5.62,2.25,1.25,1.25,2.75,2.5,1.75,0.0,1.0,0.75,1.0,1.0,1.75,2.25,0.52,0.52,-0.55,273.67,5.6,6.4,0.5,0.25,2.0,0.0,0.25,0.5,0.0,0.0,0.25,0.0,0.75,0.5,0.0,-0.48,0.58,-0.73,65.93,-20.3,21.8
5.64,2.0,1.75,1.0,2.75,2.5,2.25,0.0,1.0,0.75,1.0,1.0,2.0,2.5,0.58,0.58,-0.55,275.48,4.2,4.8,0.0,0.25,1.5,0.0,0.0,0.5,0.0,0.0,0.0,0.0,0.5,0.5,0.0,-0.48,0.64,-0.73,61.65,-18.8,13.7
5.66,2.25,1.25,1.0,2.75,3.0,2.0,0.0,0.75,0.75,1.25,1.0,1.75,2.5,0.58,0.58,-0.55,276.23,4.4,5.5,0.25,0.5,1.5,0.0,0.25,0.5,0.0,0.0,0.25,0.0,0.75,0.5,0.0,-0.48,0.64,-0.73,65.63,-17.0,17.8
5.68,2.25,1.25,1.0,2.5,2.5,2.25,0.0,0.75,0.75,1.5,1.0,1.75,2.75,0.58,0.58,-0.55,276.66,3.6,1.3,0.5,0.25,1.75,0.0,0.0,0.5,0.0,0.0,0.25,0.0,0.75,0.5,0.0,-0.48,0.64,-0.67,66.38,-20.8,17.5
5.7,2.25,1.25,1.0,2.5,2.5,1.75,0.0,1.0,0.5,1.5,1.0,1.75,2.5,0.64,0.58,-0.55,273.17,4.1,2.0,0.0,0.25,2.0,0.0,0.0,0.5,0.0,0.0,0.0,0.0,0.75,0.5,0.0,-0.55,0.64,-0.67,67.67,-20.8,14.4
5.72,2.25,1.25,1.0,3.0,2.5,1.75,0.0,0.75,0.5,1.75,1.0,1.75,2.5,0.64,0.58,-0.48,273.04,4.5,3.0,0.25,0.25,2.0,0.0,0.0,0.5,0.0,0.0,0.0,0.0,0.75,0.5,0.0,-0.48,0.64,-0.61,67.22,-21.6,18.9
5.74,2.25,1.25,1.0,2.5,3.0,1.75,0.0,1.0,0.5,1.75,1.0,1.75,2.5,0.7,0.58,-0.48,273.68,3.7,2.5,0.0,0.25,1.75,0.0,0.0,0.5,0.0,0.0,0.0,0.0,0.75,0.5,0.0,-0.55,0.64,-0.67,64.13,-19.6,11.2
5.76,2.25,1.25,1.5,3.0,2.5,1.75,0.0,1.0,0.5,2.0,1.0,1.75,2.25,0.7,0.58,-0.48,278.16,5.0,4.3,2.0,1.0,2.75,1.0,3.0,1.0,0.0,0.25,0.5,1.5,2.0,1.0,0.75,-0.55,0.64,-0.67,132.56,-9.8,14.8
5.78,2.25,1.25,1.25,2.75,2.5,1.75,0.0,0.75,0.5,1.75,1.0,1.75,2.5,0.7,0.58,-0.48,278.25,4.8,3.0,0.0,0.25,2.75,0.0,3.0,0.5,0.0,0.25,0.25,0.0,2.0,0.5,0.25,-0.55,0.64,-0.73,157.64,-10.7,14.8
5.8,2.0,1.25,2.0,2.25,3.0,1.75,0.0,1.0,0.5,1.5,1.0,1.75,2.75,0.64,0.52,-0.55,281.01,4.9,3.2,0.25,0.25,1.75,0.0,0.0,0.5,0.0,0.0,0.25,0.0,0.75,0.5,0.0,-0.48,0.64,-0.73,152.88,-20.0,13.0
5.82,2.25,1.25,1.75,3.25,3.0,1.75,0.0,1.0,0.5,1.5,1.0,1.75,2.25,0.58,0.52,-0.55,284.94,5.8,8.8,0.5,0.5,1.25,0.0,0.25,0.5,0.0,0.0,0.0,0.0,0.75,0.5,0.0,-0.48,0.64,-0.73,124.29,-17.0,22.8
5.84,2.25,1.25,1.0,3.5,3.0,1.75,0.0,0.75,0.5,2.0,0.25,1.75,2.25,0.52,0.52,-0.55,285.26,4.4,9.0,0.25,0.25,1.0,0.0,0.0,0.5,0.0,0.0,0.0,0.0,0.75,0.25,0.0,-0.48,0.64,-0.73,90.67,-16.8,15.2
5.86,2.25,1.25,1.0,2.75,3.0,2.0,0.0,1.0,0.5,2.0,1.0,1.75,2.5,0.58,0.58,-0.55,286.78,3.3,2.6,0.25,0.25,2.0,0.0,0.25,0.5,0.0,0.0,0.0,0.0,0.75,0.5,0.0,-0.55,0.58,-0.73,70.71,-20.0,21.1
5.88,2.25,1.25,1.25,3.25,3.0,1.75,0.0,1.0,0.5,1.5,1.0,1.75,2.5,0.58,0.58,-0.55,287.34,4.8,6.1,0.25,0.25,1.75,0.0,0.0,0.5,0.0,0.0,0.0,0.0,0.75,0.5,0.0,-0.55,0.58,-0.67,63.53,-20.5,16.2
5.9,2.25,1.25,1.0,3.25,2.5,2.0,0.0,0.75,0.5,1.5,1.0,1.75,2.75,0.52,0.58,-0.55,286.2,4.4,3.6,0.25,0.25,2.0,0.0,0.0,0.5,0.0,0.0,0.0,0.0,0.75,0.5,0.0,-0.61,0.58,-0.67,65.75,-21.6,18.9
5.92,2.25,1.25,1.0,3.25,3.0,1.75,0.0,0.75,0.5,1.75,1.0,1.75,2.75,0.52,0.58,-0.61,286.62,4.2,3.7,0.25,0.25,1.75,0.0,0.0,0.5,0.0,0.0,0.0,0.0,0.75,0.5,0.0,-0.61,0.58,-0.67,61.46,-20.5,16.2
5.94,2.25,1.25,1.5,3.75,2.5,1.75,0.0,1.0,0.5,1.5,1.0,1.75,2.75,0.45,0.58,-0.61,289.03,5.5,5.4,0.0,0.25,1.75,0.0,0.0,0.5,0.0,0.0,0.0,0.0,0.75,0.5,0.0,-0.61,0.64,-0.67,56.88,-19.6,11.2
5.96,2.0,1.25,1.5,2.0,0.75,2.25,0.0,0.75,0.75,2.0,1.0,1.75,2.5,0.45,0.58,-0.61,277.55,4.3,-5.9,1.75,1.25,2.75,1.0,3.0,1.25,0.0,0.0,0.5,1.5,2.0,1.0,0.0,-0.61,0.64,-0.67,119.04,-10.5,21.9
5.98,2.25,1.25,1.5,3.0,1.25,1.75,0.0,0.75,0.75,1.5,1.0,1.75,2.5,0.33,0.64,-0.67,270.29,6.3,1.2,1.0,0.25,2.75,0.0,3.0,0.5,0.0,0.25,0.0,0.0,2.0,0.5,0.0,-0.61,0.64,-0.67,145.79,-13.4,26.3
6.0,2.25,1.25,1.0,3.25,2.5,2.0,0.0,0.75,0.5,1.5,1.0,1.75,2.75,0.33,0.58,-0.73,268.84,4.4,3.6,0.25,0.25,1.75,0.0,0.25,0.5,0.0,0.0,0.0,0.25,0.75,0.5,0.0,-0.55,0.58,-0.67,139.1,-17.0,13.5
6.02,2.25,1.25,1.0,2.75,3.0,1.75,0.0,1.0,0.5,1.25,1.0,1.75,2.75,0.27,0.64,-0.73,271.38,4.1,3.7,0.25,0.25,2.75,0.0,3.0,0.5,0.0,0.0,0.0,0.0,0.75,0.5,0.0,-0.55,0.58,-0.67,143.98,-12.9,36.9
6.04,2.25,1.25,1.25,2.5,2.5,1.75,0.0,1.0,0.5,1.25,1.0,1.75,2.0,0.27,0.64,-0.73,269.0,5.3,6.8,0.5,0.25,1.5,0.0,0.0,0.5,0.0,0.0,0.0,0.0,0.75,0.25,0.0,-0.55,0.58,-0.67,118.63,-20.9,26.7
6.06,2.25,1.25,1.0,2.5,3.0,1.75,0.0,1.0,0.75,1.25,1.0,1.75,2.75,0.33,0.58,-0.73,271.84,4.0,2.5,0.25,0.25,1.75,0.0,0.0,0.5,0.0,0.0,0.0,0.0,0.75,0.5,0.0,-0.55,0.58,-0.67,94.5,-20.5,16.2
6.08,2.25,1.25,1.0,2.75,2.5,1.75,0.0,1.0,0.5,1.25,1.0,1.75,2.75,0.39,0.58,-0.67,271.19,4.3,2.3,1.5,1.0,1.75,1.0,0.0,1.0,0.0,0.0,0.5,1.5,0.75,1.0,0.0,-0.61,0.58,-0.67,106.84,-12.7,14.6
6.1,2.25,1.25,1.25,2.75,2.5,1.75,0.0,0.75,0.75,1.25,1.0,1.75,2.25,0.45,0.58,-0.67,269.97,5.6,5.9,2.0,1.0,2.75,1.0,3.0,1.0,0.0,0.5,0.5,1.5,2.0,1.0,0.0,-0.55,0.58,-0.67,161.72,-10.5,19.8
6.12,2.25,1.25,1.0,2.5,3.5,1.75,0.0,0.5,0.5,2.0,1.25,1.75,2.25,0.45,0.58,-0.67,273.26,4.0,4.4,1.75,1.25,2.75,1.0,3.0,1.0,0.0,0.5,0.5,1.5,2.0,1.0,0.0,-0.61,0.58,-0.61,206.64,-10.2,19.9
6.14,2.25,1.25,0.75,2.5,3.0,1.75,0.0,0.75,0.75,1.25,1.0,1.75,2.75,0.45,0.58,-0.67,274.16,3.9,2.3,1.75,0.75,2.75,1.0,2.75,1.0,0.0,0.5,0.5,1.5,1.75,1.0,0.0,-0.61,0.58,-0.61,234.79,-10.4,18.1
6.16,2.25,1.5,1.0,2.75,2.5,1.75,0.0,0.75,0.75,1.5,1.0,1.75,2.5,0.45,0.58,-0.67,275.05,4.8,4.0,0.0,0.25,2.75,0.0,0.0,0.5,0.0,0.0,0.0,0.0,0.75,0.5,0.0,-0.61,0.64,-0.67,199.72,-23.6,21.9
6.18,2.25,1.25,1.0,2.5,2.5,1.75,0.0,0.75,0.75,1.25,1.0,1.5,2.25,0.45,0.58,-0.67,270.92,5.0,6.0,0.25,0.25,2.0,0.0,0.0,0.75,0.0,0.0,0.75,1.5,0.75,0.75,0.0,-0.55,0.64,-0.67,160.48,-10.6,-11.5
6.2,2.25,1.25,1.0,2.5,3.0,1.75,0.0,0.75,0.75,1.25,1.0,1.75,2.0,0.39,0.58,-0.73,270.74,5.0,7.4,1.5,1.0,2.75,1.0,2.75,1.0,0.0,0.25,0.5,1.5,2.0,1.0,0.5,-0.55,0.64,-0.67,163.48,-9.7,13.7
6.22,2.25,1.25,1.0,2.5,3.0,1.75,0.0,1.0,0.75,1.75,1.0,1.75,2.25,0.39,0.58,-0.73,270.67,4.0,3.4,2.0,1.0,2.75,1.0,3.0,1.0,0.0,0.25,0.5,0.5,2.0,0.5,0.0,-0.55,0.58,-0.61,193.12,-12.8,31.5
6.24,2.25,1.25,1.0,2.5,2.5,1.5,0.0,0.75,0.75,1.5,1.0,1.75,2.25,0.39,0.58,-0.73,268.39,5.1,3.1,0.0,0.25,2.25,0.0,0.0,0.5,0.0,0.0,0.0,0.25,0.75,0.5,0.0,-0.61,0.64,-0.61,173.42,-19.8,12.0
6.26,2.25,1.25,1.25,2.75,2.5,1.75,0.0,1.0,0.75,1.5,1.0,1.75,2.25,0.39,0.58,-0.73,271.03,5.1,4.4,1.5,1.0,2.5,1.0,1.0,1.0,0.25,0.25,0.5,1.5,2.0,0.75,0.75,-0.61,0.64,-0.61,183.01,-10.8,7.1
6.28,2.0,1.5,1.5,1.0,1.75,1.25,0.0,1.25,0.75,1.75,1.25,1.75,2.5,0.39,0.58,-0.73,264.08,4.4,-7.3,0.0,0.25,2.75,0.0,2.75,0.5,0.0,0.0,0.0,0.0,2.0,0.5,0.0,-0.67,0.64,-0.61,164.82,-12.6,20.0
6.3,2.25,1.25,1.25,2.5,3.0,1.75,0.0,1.0,0.75,1.75,1.0,1.75,2.75,0.39,0.58,-0.73,269.76,4.0,1.4,0.0,0.0,1.75,0.0,0.0,0.25,0.0,0.0,0.0,0.25,0.75,0.5,0.0,-0.67,0.58,-0.55,123.45,-20.4,-2.9
6.32,2.25,1.25,1.0,2.5,2.5,1.5,0.0,1.0,0.75,1.75,1.0,1.75,2.25,0.39,0.58,-0.73,268.69,4.5,1.6,1.75,1.0,2.25,1.0,0.5,0.75,0.25,0.25,0.5,1.75,2.0,1.0,0.0,-0.67,0.64,-0.61,125.39,-12.9,8.2
