time,left pressure 0[N/cm²],left pressure 1[N/cm²],left pressure 2[N/cm²],left pressure 3[N/cm²],left pressure 4[N/cm²],left pressure 5[N/cm²],left pressure 6[N/cm²],left pressure 7[N/cm²],left pressure 8[N/cm²],left pressure 9[N/cm²],left pressure 10[N/cm²],left pressure 11[N/cm²],left pressure 12[N/cm²],left acceleration X[g],left acceleration Y[g],left acceleration Z[g],left total force[N],left center of pressure X[mm],left center of pressure Y[mm],right pressure 0[N/cm²],right pressure 1[N/cm²],right pressure 2[N/cm²],right pressure 3[N/cm²],right pressure 4[N/cm²],right pressure 5[N/cm²],right pressure 6[N/cm²],right pressure 7[N/cm²],right pressure 8[N/cm²],right pressure 9[N/cm²],right pressure 10[N/cm²],right pressure 11[N/cm²],right pressure 12[N/cm²],right acceleration X[g],right acceleration Y[g],right acceleration Z[g],right total force[N],right center of pressure X[mm],right center of pressure Y[mm]
0.02,0.0,1.5,2.25,4.5,8.0,3.0,1.25,6.0,2.5,3.5,3.25,1.75,1.75,-0.17,0.02,0.95,466.15,0.3,-1.0,1.25,0.5,0.5,0.5,1.5,0.0,0.75,1.0,0.5,0.25,0.5,0.0,0.0,-1.73,5.02,-0.11,105.0,-10.2,30.7
0.04,0.0,1.5,2.25,4.75,8.5,3.75,1.25,6.0,2.25,3.5,3.0,1.75,1.5,-0.17,0.02,0.95,506.06,0.0,2.0,0.75,0.75,0.5,0.5,1.25,0.0,0.5,1.0,0.5,0.25,0.5,0.25,0.0,-3.17,4.52,1.58,104.98,-8.7,22.5
0.06,0.0,2.0,2.25,6.5,8.75,4.25,1.25,6.0,2.0,3.25,2.5,1.75,1.5,-0.17,0.02,0.95,545.05,0.4,7.8,0.75,0.5,0.5,0.5,1.25,0.0,0.5,1.25,0.5,2.5,1.5,1.25,0.25,0.27,-0.8,1.83,125.75,-2.8,-23.8
0.08,0.0,3.0,2.75,6.75,9.25,4.75,1.25,6.0,1.75,3.25,2.25,1.75,1.5,-0.17,0.08,0.95,595.55,0.8,12.3,1.25,0.5,0.25,0.0,1.5,0.0,0.5,1.25,0.5,1.5,2.5,2.5,2.75,-0.36,-0.05,1.02,163.63,-2.0,-44.7
0.1,0.25,3.25,3.5,8.0,10.0,5.25,1.0,5.75,1.5,3.25,1.75,1.25,1.5,-0.17,0.08,0.95,649.93,1.5,18.9,1.0,0.5,0.0,0.5,1.25,0.0,0.25,1.25,0.5,7.0,3.75,5.25,6.0,-0.55,0.08,1.58,253.64,2.8,-68.4
0.12,0.0,4.0,3.75,9.0,11.5,5.5,0.75,5.75,1.5,2.5,1.75,1.0,1.5,-0.17,0.08,1.02,719.33,1.9,24.1,0.5,0.25,0.0,0.5,1.25,0.0,0.25,2.5,0.75,8.25,6.75,6.0,7.25,0.2,0.14,1.14,362.58,3.3,-73.9
0.14,1.0,4.5,4.5,9.25,12.5,6.0,0.75,5.5,1.0,1.75,1.75,0.75,1.25,-0.23,0.08,1.02,796.37,3.2,31.2,0.5,0.25,0.0,0.75,2.25,0.0,0.5,4.0,1.25,9.0,8.0,6.5,8.0,0.02,0.33,1.58,517.68,3.2,-68.7
0.16,1.0,4.5,5.0,9.5,12.5,6.0,0.75,4.75,0.75,1.75,1.5,0.75,1.0,-0.23,0.14,1.08,856.63,3.9,34.2,0.5,0.75,0.25,1.0,1.5,1.25,0.0,5.5,1.5,9.5,8.75,7.0,8.25,0.02,0.08,0.95,670.29,3.6,-65.2
0.18,2.75,5.25,5.5,10.0,0.0,6.0,0.5,3.75,0.75,1.5,1.5,0.75,0.5,-0.23,0.14,1.2,795.08,9.5,36.2,1.25,0.75,2.0,1.0,1.75,0.25,0.75,7.0,3.0,9.75,9.75,6.5,8.5,0.02,0.14,1.08,817.23,0.9,-57.7
0.2,0.0,5.5,4.25,10.5,0.0,5.25,0.5,3.5,0.75,1.75,1.5,0.75,0.5,-0.23,0.2,1.14,691.82,7.4,31.3,2.0,0.75,0.5,0.5,0.0,0.5,1.0,7.0,3.0,9.5,10.0,7.25,8.5,0.08,0.08,1.02,905.24,1.4,-65.1
0.22,0.0,5.5,5.25,10.5,0.0,0.0,0.5,3.5,0.75,1.5,1.25,0.75,0.5,-0.3,0.2,1.2,560.56,13.5,33.6,0.25,0.75,1.75,1.0,3.5,2.0,1.25,7.75,3.25,9.5,10.5,6.75,8.5,0.14,0.08,0.95,993.42,2.1,-53.8
0.24,3.5,5.0,5.5,9.25,0.0,0.0,0.5,2.5,0.75,0.5,1.0,0.0,0.25,-0.3,0.2,1.2,462.21,18.5,51.0,1.5,1.25,2.5,2.0,3.5,2.5,1.5,8.25,3.5,9.75,10.0,7.0,8.0,0.14,0.08,0.95,1065.42,0.6,-44.8
0.26,4.5,0.0,4.5,9.25,0.0,0.0,0.0,2.0,0.75,1.5,0.5,0.75,0.25,-0.36,0.33,1.2,378.32,18.6,36.6,0.75,1.0,2.5,2.0,3.75,3.75,2.25,7.75,3.75,9.25,9.75,6.0,7.0,0.14,0.02,0.95,1093.37,1.0,-42.1
0.28,4.0,4.5,3.25,8.5,0.0,0.0,0.5,1.75,0.5,1.5,0.75,0.75,0.5,-0.48,0.39,1.58,344.77,16.4,43.5,1.75,1.25,2.5,2.0,3.75,2.75,1.75,8.25,3.5,8.75,9.0,6.0,7.0,0.14,0.08,0.95,1079.79,0.4,-40.0
0.3,0.0,4.5,2.0,6.75,0.0,0.0,0.25,1.5,0.75,1.5,0.5,0.75,0.25,-0.61,0.39,2.02,286.93,12.1,34.0,1.75,1.25,3.25,2.0,4.5,3.75,1.75,8.0,3.5,8.25,8.25,5.25,6.25,0.14,0.08,0.95,1031.27,0.1,-33.4
0.32,0.0,2.5,2.25,5.0,0.0,0.0,0.5,0.0,0.75,1.0,0.75,0.0,0.5,-0.8,1.27,2.39,227.79,15.9,36.7,1.75,1.25,4.0,3.0,5.0,3.75,2.0,7.75,3.25,7.5,7.75,4.25,5.5,0.2,0.08,0.95,962.59,-0.8,-26.0
0.34,0.0,0.0,2.25,2.75,0.0,0.0,0.5,1.0,0.75,1.5,0.75,0.0,0.5,-0.48,1.2,3.27,151.03,11.6,2.2,1.75,1.5,4.75,3.5,5.25,3.75,2.0,7.5,3.0,7.0,7.25,3.5,4.75,0.14,0.08,0.95,893.08,-1.7,-19.7
0.36,0.0,0.0,1.0,1.5,0.0,0.0,0.5,1.5,0.75,1.5,0.0,0.0,0.5,-0.48,0.45,2.2,78.81,3.8,-13.5,2.0,1.75,5.0,4.5,5.5,4.0,2.0,7.0,2.5,6.0,5.5,2.75,3.25,0.14,0.08,0.95,831.32,-2.7,-8.6
0.38,0.0,0.0,0.0,0.0,0.0,0.0,0.0,0.0,0.0,0.0,0.0,0.0,0.0,-0.92,-0.05,2.08,0.0,0.0,0.0,2.0,1.0,5.25,4.0,5.75,2.75,2.0,6.25,2.5,4.0,3.75,1.25,2.25,0.14,0.08,0.95,731.41,-4.4,0.5
0.4,0.0,0.0,0.0,0.0,0.0,0.0,0.0,0.0,0.0,0.0,0.0,0.0,0.0,-0.92,-0.98,3.02,0.0,0.0,0.0,1.75,2.0,5.0,4.75,4.5,5.0,1.5,6.25,1.75,4.75,3.75,1.25,1.25,0.14,0.08,0.95,657.14,-3.1,4.7
0.42,0.0,0.0,0.0,0.0,0.0,0.0,0.0,0.0,0.0,0.0,0.0,0.0,0.0,-0.42,-0.98,1.39,0.0,0.0,0.0,3.0,2.0,6.0,6.5,6.25,4.75,1.75,6.25,1.75,4.5,2.75,1.25,1.5,0.14,0.14,0.95,638.3,-5.0,13.5
0.44,0.0,0.0,0.0,0.0,0.0,0.0,0.0,0.0,0.0,0.0,0.0,0.0,0.0,-0.48,-0.73,1.02,0.0,0.0,0.0,1.75,1.75,6.25,6.25,6.5,5.25,1.75,5.5,1.75,3.25,1.5,1.25,0.5,0.14,0.14,0.95,619.71,-5.1,20.1
0.46,0.0,0.0,0.0,0.0,0.0,0.0,0.0,0.0,0.0,0.0,0.0,0.0,0.0,-0.55,-0.55,0.45,0.0,0.0,0.0,2.5,2.0,6.75,7.0,7.75,4.75,1.75,5.25,1.25,3.25,1.75,0.75,0.75,0.14,0.14,0.95,628.99,-6.2,24.9
0.48,0.0,0.0,0.0,0.0,0.0,0.0,0.0,0.0,0.0,0.0,0.0,0.0,0.0,-0.48,-0.42,0.58,0.0,0.0,0.0,3.25,2.5,7.75,8.25,8.0,5.0,1.5,4.75,1.0,1.25,0.75,0.0,0.75,0.14,0.14,0.95,643.32,-8.5,38.7
0.5,0.0,0.0,0.0,0.0,0.0,0.0,0.0,0.0,0.0,0.0,0.0,0.0,0.0,-0.48,-0.42,0.89,0.0,0.0,0.0,4.5,3.0,7.75,9.75,8.0,5.75,1.75,4.25,0.75,0.75,0.5,0.0,0.0,0.14,0.14,0.95,680.69,-9.9,46.8
0.52,0.0,0.0,0.0,0.0,0.0,0.0,1.25,0.0,0.0,0.0,0.0,0.0,0.0,-0.55,-0.23,0.95,0.0,32.4,27.3,5.5,3.5,8.5,10.0,8.0,5.75,1.5,4.0,0.5,0.5,0.5,0.0,0.0,0.14,0.14,1.02,719.58,-11.1,50.1
0.54,0.0,0.5,0.0,0.25,0.0,0.0,0.0,0.0,3.25,1.0,0.0,0.5,0.0,-0.55,-0.05,0.95,0.0,7.0,-34.2,7.25,3.75,9.0,12.5,8.75,5.0,1.25,3.25,0.5,0.5,0.25,0.0,0.5,0.14,0.14,1.08,796.09,-12.7,52.9
0.56,0.0,0.5,0.0,1.75,0.0,0.0,4.25,5.0,3.5,1.0,1.0,0.25,0.0,-0.55,0.14,1.08,84.07,3.9,-19.2,7.0,4.25,9.75,12.0,9.0,4.5,0.75,2.5,0.5,0.0,0.0,0.25,0.0,0.14,0.2,1.27,849.32,-14.1,57.5
0.58,0.0,0.5,0.0,1.25,0.0,0.0,4.25,4.75,3.25,1.0,0.75,0.0,0.0,-0.55,0.27,1.33,150.25,3.4,-18.8,8.25,5.75,11.5,13.5,9.25,4.0,1.0,2.5,0.5,0.0,1.0,0.0,0.5,0.14,0.2,1.2,945.18,-15.2,56.7
0.6,0.0,0.0,0.0,0.75,0.0,0.0,4.25,5.0,3.5,1.0,0.0,0.0,0.0,-0.61,0.39,1.77,190.75,1.7,-24.5,8.25,5.75,11.5,13.5,9.5,2.75,0.75,1.25,0.5,0.0,1.0,0.0,0.25,0.08,0.27,1.2,1001.08,-16.7,60.1
0.62,0.0,0.0,0.0,0.25,0.0,0.0,4.75,4.75,3.25,0.0,0.75,0.0,0.0,-0.67,0.52,2.02,202.21,4.0,-25.4,8.75,5.75,12.5,13.0,9.0,2.5,0.75,1.25,0.5,0.0,0.5,0.0,0.25,0.14,0.33,1.2,1043.17,-17.7,61.8
0.64,0.0,0.0,0.0,0.25,0.0,0.0,4.5,5.0,3.25,0.75,1.0,0.0,0.0,-0.86,0.7,2.14,203.88,2.2,-30.2,8.75,4.5,10.5,10.0,7.75,0.0,0.75,1.25,0.5,0.0,0.5,0.0,0.25,0.08,0.33,1.27,959.57,-19.7,62.7
0.66,0.0,0.5,0.0,0.25,0.0,0.0,5.0,5.0,3.25,0.25,2.0,0.0,0.0,-0.98,0.95,2.58,205.54,4.4,-25.8,7.5,4.25,10.5,9.0,6.5,0.25,0.75,0.0,0.25,0.0,0.0,0.0,0.0,0.14,0.39,1.39,837.96,-21.5,68.3
0.68,0.0,0.0,0.0,0.0,0.0,0.0,4.25,4.75,3.25,0.5,1.0,0.0,0.0,-1.17,1.52,3.02,202.65,2.4,-31.6,6.75,2.75,9.0,6.5,6.25,0.0,1.0,0.0,0.0,0.0,0.0,0.0,0.0,0.27,0.52,1.64,677.59,-21.8,68.5
0.7,0.0,0.0,0.0,0.0,0.0,0.0,4.5,5.0,3.75,0.0,1.0,0.0,0.0,-0.73,2.64,2.08,200.08,3.5,-29.6,4.5,1.0,7.25,3.5,3.75,0.75,1.0,0.0,0.5,0.5,0.0,0.25,0.0,0.33,1.2,2.95,492.75,-21.3,59.0
0.72,0.0,0.0,0.0,0.0,0.0,0.0,4.75,4.75,2.75,0.0,0.0,0.0,0.0,0.02,3.77,1.52,184.0,2.7,-23.2,3.0,1.25,6.0,2.0,3.5,0.5,1.25,1.0,0.5,0.0,0.5,0.0,0.0,0.2,1.77,2.7,349.16,-19.3,54.1
0.74,0.0,0.0,0.0,0.0,0.0,0.0,3.5,2.75,1.0,0.0,0.0,0.0,0.0,1.08,4.95,0.58,148.9,3.7,-18.2,1.75,1.0,4.0,2.0,0.25,0.0,0.75,0.0,0.25,0.0,0.0,0.0,0.0,0.14,0.33,2.39,226.46,-28.4,66.5
0.76,0.0,0.0,0.0,0.0,0.0,0.0,1.75,0.0,0.0,0.0,0.0,0.0,0.0,1.77,6.02,0.14,90.57,32.4,27.4,0.5,0.0,2.5,0.0,1.25,0.0,0.75,1.25,0.25,0.0,0.5,0.0,0.0,0.33,-0.3,2.14,113.35,-15.9,28.6
0.78,0.0,0.0,0.0,0.0,0.0,0.0,2.75,1.0,0.0,0.0,0.0,0.0,0.0,0.7,3.89,0.7,44.37,11.1,-1.1,1.5,0.25,0.0,2.0,0.0,0.0,0.25,0.0,0.5,0.0,0.0,0.0,0.0,0.89,-0.42,2.58,5.46,-22.4,61.4
0.8,0.0,0.0,0.0,0.0,0.0,0.0,0.0,0.0,0.0,0.0,0.0,0.0,0.0,-0.92,-1.11,1.64,0.0,0.0,0.0,0.25,0.0,0.0,0.0,0.0,0.0,0.25,0.0,0.25,0.0,0.0,0.0,0.0,0.45,-0.98,1.95,0.0,-25.1,27.6
0.82,0.0,0.0,0.0,0.0,0.0,0.0,0.0,0.0,0.0,0.0,0.0,0.0,0.0,-0.17,0.33,0.52,0.0,0.0,0.0,0.0,0.0,0.0,0.0,0.0,0.0,0.0,0.0,0.0,0.0,0.0,0.0,0.0,0.45,-0.8,1.08,0.0,0.0,0.0
0.84,0.0,0.0,1.25,0.0,0.0,0.0,1.25,0.5,0.0,4.25,3.5,0.0,5.5,-0.11,0.33,2.08,63.04,-3.0,-71.6,0.0,0.0,0.0,0.0,0.0,0.0,0.0,0.0,0.25,0.0,0.0,0.0,0.0,0.45,-0.61,0.64,0.0,-12.1,-38.5
0.86,0.0,0.0,0.25,0.0,0.0,0.0,0.25,1.75,0.25,5.75,4.75,0.0,5.75,-0.23,0.27,1.77,156.22,-7.2,-79.9,0.0,0.0,0.0,0.0,0.0,0.0,0.75,0.0,0.0,0.0,0.0,0.0,0.0,0.39,-0.42,0.64,0.0,-32.4,27.3
0.88,0.0,0.25,0.25,0.0,0.0,0.0,0.25,3.5,0.0,7.5,6.75,5.5,6.75,-0.3,0.45,2.14,282.9,-4.4,-82.2,1.25,0.5,0.0,1.25,0.0,0.0,1.0,1.25,0.5,0.0,0.5,0.0,0.0,0.27,-0.3,0.7,0.0,-13.2,26.3
0.9,0.0,0.25,0.25,0.0,0.0,0.0,0.5,5.5,2.25,7.5,7.5,6.0,6.75,-0.11,0.08,1.08,411.53,-3.4,-77.0,1.25,0.75,0.75,0.75,1.25,0.0,0.75,1.0,0.5,0.0,0.25,0.0,0.0,0.2,-0.17,0.89,0.0,-13.1,41.8
0.92,0.0,0.25,0.0,0.5,0.0,0.5,0.75,6.0,3.75,8.0,8.0,6.0,7.0,-0.17,0.08,0.95,568.19,-3.2,-72.8,1.25,0.75,1.0,0.75,1.25,0.0,0.75,1.25,0.5,0.0,0.5,0.0,0.0,0.2,-0.05,0.95,38.52,-12.9,36.2
0.94,0.0,0.0,0.0,0.75,0.0,1.0,1.25,6.5,4.5,8.25,8.0,6.0,6.75,-0.17,0.02,1.02,680.07,-3.1,-70.0,1.25,0.75,0.75,0.5,1.0,0.0,0.5,1.0,0.5,0.0,0.5,0.0,0.0,0.14,0.14,1.02,77.94,-13.2,36.6
0.96,0.25,0.25,0.75,1.0,0.0,1.5,1.25,6.75,5.0,7.75,8.0,6.0,6.75,-0.17,0.02,0.95,768.61,-1.9,-63.5,1.25,0.75,0.5,0.75,1.0,0.0,0.75,1.0,0.5,0.0,0.5,0.0,0.0,0.08,0.27,1.27,101.23,-12.7,36.3
0.98,1.0,1.25,2.0,2.5,0.0,1.5,1.5,7.0,5.0,7.5,8.0,5.5,6.75,-0.17,-0.05,1.02,836.37,0.5,-49.6,1.25,0.75,0.75,0.75,1.5,0.0,0.75,1.0,0.5,0.0,0.5,0.0,0.0,0.02,0.33,1.52,119.15,-12.4,38.5
1.0,1.0,1.5,2.0,2.75,5.5,1.5,1.5,6.75,5.0,7.0,7.5,5.5,6.0,-0.17,-0.05,0.95,892.88,0.5,-34.8,1.25,0.75,0.75,0.5,1.25,0.0,0.75,1.0,0.5,0.5,0.25,0.0,0.0,0.14,0.52,1.7,127.46,-10.9,33.2
1.02,1.0,1.5,2.25,2.75,5.75,2.0,1.5,6.75,4.75,6.75,7.25,4.75,5.5,-0.17,0.02,0.95,912.88,0.5,-31.0,1.25,0.5,0.25,0.5,0.0,0.5,0.75,1.0,0.5,0.5,0.5,0.25,0.0,0.39,0.89,2.02,126.17,-9.2,12.9
1.04,1.5,1.5,2.25,2.75,5.75,2.25,1.5,6.5,4.25,6.0,6.5,4.0,4.25,-0.17,0.02,0.95,884.99,1.0,-24.7,0.75,0.75,0.0,0.5,1.25,0.0,0.5,1.0,0.5,0.0,0.25,0.0,0.0,0.45,1.08,2.95,119.78,-7.0,33.8
1.06,2.0,1.5,2.25,2.5,6.75,2.25,1.75,6.25,3.75,5.0,5.5,3.0,3.0,-0.17,0.02,0.95,815.35,1.6,-15.1,1.0,0.5,0.25,0.5,1.5,0.0,0.5,1.0,0.5,0.0,0.25,0.0,0.0,0.52,1.52,2.89,111.78,-8.7,35.6
1.08,2.5,1.25,2.25,3.0,6.25,2.25,1.5,6.0,3.25,4.75,5.0,2.5,2.75,-0.17,0.02,0.95,725.84,2.0,-11.6,1.25,0.5,0.5,0.5,1.0,0.0,0.5,0.75,0.5,0.0,0.25,0.0,0.0,0.39,2.39,2.27,102.96,-13.5,40.8
1.1,3.5,1.5,2.25,2.75,6.5,2.25,1.5,5.75,3.25,4.0,4.0,2.0,2.25,-0.17,0.02,0.95,656.13,3.1,-3.3,0.5,0.5,0.0,0.5,0.5,0.0,0.5,1.0,0.5,0.0,0.25,0.0,0.0,0.08,3.58,0.95,87.25,-7.2,21.8
1.12,3.5,1.5,2.25,2.75,6.75,2.5,1.5,5.5,2.75,3.5,3.5,1.75,1.75,-0.17,0.02,0.95,592.97,3.2,1.8,1.0,0.5,0.0,0.5,1.25,0.0,0.25,1.0,0.5,0.0,0.5,0.0,0.0,-0.67,4.45,0.27,80.24,-7.5,28.8
1.14,4.5,1.5,3.25,4.5,7.0,2.5,1.5,5.5,2.75,3.25,3.25,1.75,1.75,-0.17,0.08,0.95,581.94,5.3,8.9,0.75,0.5,0.0,0.5,1.5,0.0,0.25,1.0,0.5,0.0,0.25,0.0,0.0,-2.23,5.2,0.27,77.44,-5.6,31.8
1.16,5.25,2.0,3.75,4.5,7.0,2.75,1.5,5.5,2.5,3.25,3.0,1.75,1.5,-0.17,0.08,0.95,591.8,6.2,13.5,0.75,0.75,0.0,0.75,1.5,0.0,0.5,1.0,0.5,1.0,0.25,0.0,0.0,-1.23,3.27,0.58,87.49,-3.7,19.8
1.18,6.0,3.0,3.75,5.75,8.0,2.75,1.5,5.25,2.25,3.25,2.5,1.5,1.5,-0.17,0.08,0.95,633.52,6.8,20.9,1.25,0.75,0.0,0.0,0.0,0.0,0.0,1.0,0.0,0.75,1.25,0.0,0.5,0.7,-0.86,0.33,87.3,-5.1,-9.7
1.2,6.75,3.0,4.75,6.75,8.5,3.0,1.5,5.0,1.75,2.25,2.5,1.25,1.5,-0.17,0.08,0.95,682.8,8.4,27.6,0.0,0.0,0.0,0.0,0.5,0.0,0.5,1.25,0.25,4.5,1.75,2.75,2.75,0.14,0.02,0.64,137.25,5.6,-78.1
1.22,7.0,3.5,5.5,7.5,8.5,3.25,1.5,4.75,1.75,1.75,2.0,1.0,1.25,-0.17,0.08,0.95,734.13,9.5,33.5,0.5,0.5,0.0,0.5,1.5,0.0,0.25,1.25,0.5,8.5,3.75,6.0,7.25,-0.05,0.39,1.83,251.34,4.1,-72.9
1.24,7.5,4.0,6.0,8.25,9.0,3.5,1.25,4.5,1.5,2.0,1.75,0.75,1.25,-0.17,0.08,1.02,789.09,9.8,37.0,0.0,0.0,0.0,0.0,1.5,1.75,0.5,5.5,0.5,9.75,7.25,6.0,8.5,0.2,0.64,3.08,405.46,6.4,-72.0
1.26,8.0,4.75,6.5,9.25,9.5,4.0,1.25,4.25,1.25,1.75,1.5,0.75,1.0,-0.17,0.14,1.02,857.05,10.3,41.5,1.0,0.5,0.0,0.5,3.25,2.5,0.0,7.75,1.25,9.75,8.0,5.75,8.0,0.2,0.39,1.52,616.37,5.4,-56.6
1.28,8.5,5.5,6.0,9.25,8.0,3.5,0.75,3.5,1.0,1.75,1.5,0.75,0.5,-0.17,0.14,1.08,889.44,11.6,45.5,1.25,1.0,1.5,2.0,3.75,4.75,1.0,8.25,2.0,9.75,8.75,5.5,7.75,0.14,0.08,0.95,824.23,3.3,-42.4
1.3,8.75,5.5,7.0,9.75,0.0,2.75,0.5,3.5,0.75,1.5,1.5,0.75,0.5,-0.17,0.14,1.2,837.26,16.4,46.0,1.75,1.25,2.25,2.0,5.25,6.0,1.25,8.75,3.0,9.75,9.0,5.25,7.0,0.2,0.08,0.95,993.6,2.4,-34.1
1.32,9.0,6.0,7.25,10.5,0.0,2.25,0.5,2.75,0.75,1.5,1.5,0.75,0.5,-0.23,0.2,1.2,779.27,17.6,48.9,1.75,1.75,2.5,2.5,6.25,7.0,1.25,8.75,3.0,9.0,8.5,4.0,6.0,0.27,0.14,1.02,1092.12,2.3,-25.6
1.34,9.0,6.5,7.25,9.75,0.0,2.0,0.5,2.25,0.75,1.5,1.5,0.75,0.5,-0.3,0.2,1.27,716.83,18.2,50.4,1.75,2.0,2.75,4.0,6.25,7.5,1.25,8.75,2.75,7.75,7.75,2.75,5.0,0.27,0.08,1.02,1133.67,1.7,-17.2
1.36,9.0,6.5,7.25,9.25,0.0,1.5,0.5,1.75,0.75,1.5,1.5,0.75,0.5,-0.48,0.27,1.45,668.78,19.1,51.6,2.0,2.25,2.5,4.5,7.75,7.5,1.25,8.25,2.5,7.25,6.5,2.25,3.25,0.27,0.14,0.95,1125.61,1.3,-8.1
1.38,8.0,6.25,7.25,8.75,0.0,0.0,0.25,1.5,0.75,1.5,1.25,0.75,0.5,-0.61,0.33,1.7,608.15,20.6,52.2,2.25,2.25,2.5,4.5,8.0,7.75,1.0,8.25,2.25,6.25,5.0,1.25,2.25,0.27,0.08,0.95,1072.07,1.4,-0.1
1.4,8.0,0.0,6.25,6.75,0.0,0.0,0.5,1.75,0.5,1.5,1.25,0.0,0.5,-0.67,0.39,2.33,499.22,22.3,44.6,2.75,2.75,3.5,5.5,8.5,7.75,1.0,7.75,1.75,5.5,3.75,0.75,2.25,0.27,0.14,0.95,1017.54,0.0,8.9
1.42,5.25,2.5,4.5,3.0,0.0,0.0,0.5,1.75,0.75,0.75,1.0,0.25,0.5,-0.86,1.2,3.08,374.24,20.3,43.7,2.75,2.75,4.75,5.5,9.0,7.75,0.75,7.0,1.75,4.25,1.5,0.5,1.25,0.27,0.14,0.95,943.88,-1.2,20.1
1.44,1.25,0.75,2.0,0.5,0.0,0.0,0.5,1.75,0.25,0.25,0.5,0.0,0.25,-0.48,1.08,3.33,237.91,15.1,24.8,3.0,2.75,5.0,6.0,9.0,7.5,0.75,6.25,1.25,3.25,1.5,0.5,1.0,0.2,0.14,0.89,863.16,-2.4,25.2
1.46,0.0,0.0,0.0,0.0,0.0,0.0,0.5,0.0,0.0,0.0,0.25,0.0,0.0,-0.42,-0.05,3.08,90.81,21.5,-24.3,3.0,2.75,5.0,6.25,9.0,7.5,0.75,6.25,1.0,3.25,1.5,0.5,0.5,0.2,0.14,0.89,790.8,-2.6,27.2
1.48,0.0,0.0,0.0,0.0,0.0,0.0,0.0,0.0,0.0,0.0,0.0,0.0,0.0,-0.86,-3.17,2.45,0.0,0.0,0.0,4.5,3.0,6.5,6.5,9.0,6.75,0.75,5.25,1.25,2.5,0.75,0.5,0.5,0.2,0.14,0.89,756.16,-5.8,34.9
1.5,0.0,0.0,0.0,0.0,0.0,0.0,0.0,0.0,0.0,0.0,0.0,0.0,0.0,-0.55,-1.48,2.58,0.0,0.0,0.0,5.25,3.25,7.25,6.5,9.0,7.0,0.75,5.25,1.0,2.0,1.0,0.5,0.5,0.2,0.14,0.89,750.1,-6.8,37.4
1.52,0.0,0.0,0.0,0.0,0.0,0.0,0.0,0.0,0.0,0.0,0.0,0.0,0.0,-0.23,-0.8,0.64,0.0,0.0,0.0,5.5,3.0,7.5,6.5,9.0,6.5,0.5,5.25,1.0,1.5,1.0,0.5,0.5,0.14,0.14,0.95,750.07,-7.5,38.7
1.54,0.0,0.0,0.0,0.0,0.0,0.0,1.5,0.5,0.0,0.0,0.0,0.0,0.5,-0.36,-0.73,0.33,0.0,4.5,-32.4,5.5,2.75,7.75,6.5,8.5,6.0,0.5,4.25,1.0,1.5,0.75,0.25,0.5,0.14,0.14,0.95,740.78,-8.6,41.4
1.56,0.0,0.0,0.0,0.0,0.0,0.0,0.0,0.5,0.0,0.0,0.0,0.0,0.25,-0.23,-0.67,0.45,0.0,-15.7,-62.9,6.0,2.25,7.75,5.0,8.0,4.75,0.5,4.25,0.5,0.0,0.25,0.0,0.0,0.14,0.14,0.95,689.6,-10.7,50.3
1.58,0.0,0.0,0.0,0.0,0.0,0.0,0.0,0.0,0.0,0.0,0.0,0.0,0.0,-0.3,-0.67,1.02,0.0,0.0,0.0,5.25,2.5,8.5,5.25,8.0,4.5,0.5,3.5,0.5,0.0,0.0,0.0,0.0,0.2,0.14,1.02,639.22,-11.6,52.6
1.6,0.0,0.0,0.0,0.0,0.0,0.0,0.0,0.0,0.0,0.0,0.0,0.0,0.0,-0.23,-0.48,1.14,0.0,0.0,0.0,6.25,2.75,8.5,6.5,7.75,2.75,0.5,3.75,0.5,1.25,0.5,0.0,0.0,0.08,0.14,1.14,614.82,-12.8,49.0
1.62,0.0,0.0,0.0,0.0,0.0,0.0,0.0,0.0,0.0,0.0,0.0,0.0,0.0,-0.17,-0.11,1.08,0.0,0.0,0.0,6.5,3.0,9.25,5.75,7.75,2.5,0.0,3.0,0.5,0.75,0.0,0.0,0.0,0.08,0.2,1.2,602.01,-14.3,54.5
1.64,0.0,0.0,0.0,0.0,0.0,0.0,0.0,0.0,0.0,0.0,0.0,0.0,0.0,-0.11,0.2,0.95,0.0,0.0,0.0,7.25,2.25,8.75,6.25,6.25,2.5,0.0,2.75,0.5,1.0,0.25,0.0,0.0,0.08,0.2,1.27,587.92,-15.3,53.4
1.66,0.0,0.0,0.0,0.0,0.0,0.0,0.0,0.0,0.0,0.0,0.0,0.0,0.0,0.08,0.33,1.33,0.0,0.0,0.0,6.75,2.0,8.5,5.25,5.0,0.5,0.0,2.0,0.5,0.0,0.25,0.0,0.25,0.14,0.27,1.39,535.31,-19.3,58.2
1.68,0.0,0.0,0.0,0.0,0.0,0.0,0.0,0.0,0.0,0.0,0.0,0.0,0.0,0.14,0.45,1.83,0.0,0.0,0.0,6.5,2.0,8.25,4.5,3.5,0.0,0.0,1.25,0.25,0.0,0.0,0.0,0.0,0.02,0.2,0.83,456.85,-22.8,65.0
1.7,0.0,0.0,0.0,0.0,0.0,0.0,0.0,0.0,0.0,0.0,0.0,0.0,0.0,-0.05,0.95,2.33,0.0,0.0,0.0,6.25,1.25,8.5,4.5,3.5,0.0,0.0,1.25,0.0,0.25,0.25,0.0,0.0,0.02,0.33,0.64,387.75,-22.7,62.0
1.72,0.0,0.0,0.0,0.0,0.0,0.0,0.0,0.0,0.0,0.0,0.0,0.0,0.0,-0.42,1.83,2.33,0.0,0.0,0.0,6.25,1.25,8.5,3.25,3.75,0.5,0.25,1.5,0.0,0.25,0.0,0.0,0.0,0.02,0.45,0.39,347.57,-21.7,61.7
1.74,0.0,0.0,0.0,0.0,0.0,0.0,0.0,0.0,0.0,0.0,0.0,0.0,0.0,-0.42,2.58,2.08,0.0,0.0,0.0,6.75,1.25,7.5,2.25,3.75,0.0,0.25,1.25,0.0,0.0,0.0,0.0,0.25,-0.05,0.58,0.39,317.47,-22.7,63.9
1.76,0.0,0.0,0.0,0.0,0.0,0.0,0.0,0.0,0.0,0.0,0.0,0.0,0.0,-2.23,5.08,1.39,0.0,0.0,0.0,7.25,1.0,7.25,2.0,1.5,0.0,0.5,1.25,0.5,0.25,0.25,0.0,0.0,-0.05,0.58,0.39,294.77,-25.8,61.9
1.78,0.0,0.0,0.0,0.0,0.0,0.0,0.0,0.0,3.5,0.0,0.0,0.0,0.0,0.58,4.89,0.95,17.02,12.2,-38.5,7.0,1.0,7.25,2.25,2.75,0.25,0.25,1.25,0.5,0.0,0.25,0.0,0.0,-0.17,0.45,0.64,288.15,-23.7,62.3
1.8,0.0,0.0,0.0,0.0,0.0,0.0,0.0,0.0,0.0,0.0,0.0,0.0,0.0,-4.48,5.52,1.58,17.14,0.0,0.0,7.25,0.75,7.75,2.0,1.5,0.0,0.75,1.25,0.5,0.0,0.5,0.0,0.0,-0.23,0.45,0.95,281.79,-26.6,61.3
1.82,0.0,0.0,0.0,0.0,0.0,0.0,0.0,0.0,0.0,0.0,0.0,0.0,0.0,0.02,3.08,0.2,16.54,0.0,0.0,7.5,0.5,7.75,2.0,0.25,0.0,0.0,0.5,0.5,0.0,0.0,0.0,0.0,-0.36,0.33,0.89,267.33,-31.2,70.0
1.84,0.0,0.0,0.5,0.5,0.0,0.0,0.5,0.0,0.0,0.0,0.5,0.0,0.5,1.08,2.33,0.02,20.9,15.2,-10.8,7.5,0.25,7.5,2.0,0.0,1.25,0.0,0.5,0.5,0.75,0.0,0.0,0.0,-0.42,0.33,0.83,260.54,-26.9,62.4
1.86,0.0,0.0,1.0,0.0,0.0,0.0,0.5,0.0,0.5,2.0,0.5,0.0,1.5,-0.17,-3.98,3.33,48.7,1.0,-53.0,7.5,1.0,8.5,2.0,3.25,0.5,0.25,1.25,0.5,0.75,0.25,0.0,0.0,-0.42,0.33,0.89,284.05,-22.5,58.5
1.88,0.0,0.0,0.5,0.0,0.0,0.0,0.0,0.0,2.25,2.0,2.0,1.25,0.75,-0.55,0.64,1.14,90.41,4.2,-65.9,8.25,0.25,8.5,2.0,1.75,0.75,0.25,1.25,0.5,0.75,0.25,0.0,0.25,-0.36,0.33,0.83,305.5,-24.2,56.7
1.9,0.0,0.0,0.0,1.0,0.0,0.0,0.5,3.5,0.0,1.75,2.0,0.0,0.5,-0.11,-0.05,0.89,125.41,-5.1,-44.8,8.25,0.25,8.5,2.0,2.75,0.25,0.5,1.25,0.5,0.25,0.25,0.0,0.0,-0.17,0.52,1.02,334.47,-25.0,61.3
1.92,0.0,0.0,0.0,0.0,0.0,0.0,0.5,2.25,0.0,1.5,0.0,0.0,0.25,-0.3,0.08,1.08,125.51,-13.4,-52.3,8.25,1.0,8.5,2.25,3.0,0.75,0.75,1.25,0.5,0.5,0.25,0.0,0.0,-0.17,0.58,1.02,360.16,-23.1,60.3
1.94,0.0,0.75,0.25,0.5,0.0,0.0,0.5,2.25,0.5,1.0,0.75,0.75,0.25,-0.17,0.14,1.14,126.2,0.0,-29.9,8.25,0.25,7.75,2.5,0.5,0.0,0.75,0.0,0.25,0.0,0.0,0.0,0.0,-0.17,0.58,0.95,343.16,-32.2,73.4
1.96,2.0,0.0,0.5,2.0,0.0,0.0,0.5,2.5,1.0,1.75,1.0,0.75,0.5,-0.3,0.14,1.02,145.16,6.6,-11.2,8.25,0.25,7.5,2.75,2.25,0.25,0.75,0.0,0.5,0.25,0.0,0.25,0.0,-0.17,0.58,0.89,337.02,-27.2,66.3
1.98,2.0,0.0,2.0,2.0,0.0,0.0,0.25,1.75,0.75,1.5,1.0,0.75,0.5,-0.11,0.14,1.08,169.19,12.1,0.9,7.5,0.25,7.5,2.0,1.0,0.0,0.5,0.0,0.25,0.0,0.5,0.0,0.0,-0.36,0.45,0.7,312.33,-30.8,69.0
2.0,2.25,0.0,2.25,2.75,0.0,0.0,0.25,1.75,0.75,1.5,1.25,0.75,0.25,-0.23,0.2,1.02,195.85,13.7,7.7,7.5,0.0,8.5,2.0,0.0,0.0,0.25,0.0,0.0,0.0,0.0,0.0,0.0,-0.48,0.45,0.58,294.56,-34.5,74.7
2.02,3.5,0.0,2.0,2.75,0.0,0.0,0.25,1.75,0.5,1.75,1.0,0.25,0.5,-0.36,0.2,1.02,215.23,14.3,17.0,7.5,0.0,7.5,2.0,0.0,0.0,0.25,0.0,0.0,0.0,0.0,0.0,0.0,-0.61,0.45,0.52,272.98,-34.2,75.6
2.04,3.5,0.0,0.5,2.75,0.0,0.0,0.25,1.75,0.75,1.25,1.0,0.25,0.5,-0.3,0.27,0.95,219.34,12.4,14.1,7.5,0.0,7.5,2.0,0.0,0.0,0.25,0.0,0.0,0.0,0.0,0.0,0.0,-0.61,0.52,0.58,261.67,-34.2,75.6
2.06,4.0,0.0,2.0,2.75,0.0,0.0,0.25,1.75,0.75,1.5,0.75,0.75,0.5,-0.36,0.27,0.89,224.03,15.3,17.4,7.5,0.25,8.5,4.5,1.75,0.25,0.75,0.0,0.5,0.0,0.0,0.0,0.0,-0.55,0.52,0.7,279.98,-28.1,68.1
2.08,4.75,0.0,2.0,2.75,0.0,0.0,0.25,1.75,0.75,1.5,0.75,0.75,0.5,-0.36,0.33,0.89,229.07,16.2,21.1,7.5,1.25,8.5,4.25,1.75,0.25,0.75,0.0,0.5,0.0,0.25,0.0,0.0,-0.48,0.64,0.7,302.65,-27.4,68.1
2.1,5.0,0.0,2.0,2.75,0.0,0.0,0.25,1.75,0.75,1.5,0.75,0.75,0.5,-0.3,0.33,0.89,236.35,16.5,22.2,8.0,1.0,8.5,4.25,1.75,0.0,0.75,0.0,0.5,0.0,0.25,0.0,0.0,-0.48,0.64,0.77,332.44,-28.1,68.7
2.12,5.0,0.0,2.0,2.75,0.0,0.0,0.25,1.75,0.75,1.5,0.5,0.75,0.5,-0.17,0.39,0.89,240.18,16.5,23.7,6.75,1.0,7.5,3.5,0.0,0.0,0.25,0.0,0.5,0.0,0.0,0.0,0.0,-0.48,0.64,0.7,325.84,-31.1,71.7
2.14,4.75,0.0,2.0,2.75,0.0,0.0,0.5,1.75,0.75,1.5,0.75,0.75,0.5,-0.17,0.45,0.83,244.03,16.3,21.1,7.5,1.25,7.25,3.0,1.5,0.0,0.5,0.0,0.5,0.0,0.75,0.0,0.0,-0.55,0.7,0.52,325.03,-27.9,66.8
2.16,4.5,0.0,2.0,2.75,0.0,0.0,0.5,1.75,0.75,1.5,0.75,0.75,0.5,-0.36,0.52,0.83,242.6,16.0,20.0,6.75,1.0,7.75,2.0,1.25,0.0,0.75,0.0,0.5,0.0,0.25,0.0,0.0,-0.55,0.64,0.33,307.52,-29.6,69.0
2.18,3.5,0.0,1.5,2.75,0.0,0.0,0.5,1.75,0.75,1.0,0.75,0.25,0.25,-0.42,0.58,0.77,225.19,15.9,24.1,6.0,1.0,7.5,2.0,1.25,0.0,0.75,0.0,0.5,0.25,0.25,0.0,0.0,-0.67,0.45,0.45,299.89,-28.7,66.2
2.2,3.5,0.0,1.25,1.5,0.0,0.0,0.5,1.75,0.75,1.25,0.5,0.0,0.25,-0.42,0.7,0.45,201.14,14.7,22.1,5.25,1.0,6.75,2.0,1.25,0.0,0.25,0.0,0.5,0.5,0.25,0.0,0.0,-0.67,0.39,0.08,284.88,-27.3,63.7
2.22,2.0,0.0,1.5,1.75,0.0,0.0,0.5,1.75,0.0,1.5,0.25,0.25,0.25,-0.67,0.77,0.39,174.24,11.8,14.2,4.5,1.0,6.5,2.0,1.25,0.0,0.5,0.0,0.5,0.0,0.25,0.0,0.0,-1.17,0.2,-0.05,271.88,-28.2,66.2
2.24,1.25,0.0,1.5,1.0,0.0,0.0,0.5,1.5,0.5,1.5,0.25,0.75,0.5,-0.8,0.7,0.45,148.75,9.4,-7.9,4.25,0.75,5.0,1.75,1.5,0.0,0.5,0.0,0.5,0.25,0.25,0.0,0.0,-1.36,-0.17,0.14,249.04,-26.1,63.2
2.26,0.25,0.0,0.75,1.0,0.0,0.0,0.75,1.75,0.0,0.75,0.5,0.0,0.25,-1.36,0.89,0.58,114.72,4.9,-8.6,3.0,0.75,5.0,2.0,1.75,0.0,0.75,0.0,0.5,0.75,0.25,0.0,0.0,-1.55,-0.3,-0.05,229.23,-23.3,55.1
2.28,0.0,0.0,0.75,0.0,0.0,0.0,0.5,4.25,0.0,2.0,0.5,0.0,0.0,-2.92,1.83,0.14,99.96,-7.7,-38.5,2.75,0.5,4.75,1.5,1.5,0.0,0.75,0.0,0.25,0.0,0.25,0.0,0.0,-1.67,-0.36,0.14,202.52,-26.5,63.2
2.3,0.0,0.0,0.0,0.0,0.0,0.0,4.25,0.0,3.75,2.0,0.75,0.0,0.0,-2.23,-0.05,2.2,91.95,10.3,-34.6,0.5,0.0,3.5,0.0,1.5,0.0,0.75,0.0,0.0,0.0,0.5,0.0,0.0,-1.55,-0.36,0.33,152.69,-24.8,49.8
2.32,0.0,0.0,0.0,0.0,0.0,0.0,4.75,2.5,0.0,0.0,0.0,0.0,0.0,4.08,-0.48,2.02,76.76,6.6,-7.2,1.5,0.75,1.75,1.75,0.5,0.0,0.25,0.0,0.25,0.0,0.25,0.0,0.0,-1.3,-0.3,0.39,115.85,-23.8,62.3
2.34,0.0,0.0,0.0,0.0,0.0,0.0,0.0,0.0,0.0,0.0,0.0,0.0,0.0,3.64,-0.92,0.64,38.52,0.0,0.0,1.75,0.5,2.25,1.5,1.25,0.0,0.75,0.0,0.5,0.25,0.25,0.0,0.0,-0.92,0.14,0.52,99.15,-21.6,53.7
2.36,0.0,0.0,0.0,0.0,0.0,0.0,0.0,0.0,0.0,0.0,0.0,0.0,0.0,-0.11,1.33,0.52,3.28,0.0,0.0,1.25,0.5,1.75,0.75,0.25,0.0,1.0,0.0,0.5,0.0,0.25,0.0,0.0,-0.92,-0.17,0.95,82.28,-26.5,54.0
2.38,0.0,0.0,0.0,0.0,0.0,0.0,0.0,0.0,0.0,0.0,0.0,0.0,0.0,-2.8,2.52,0.2,0.0,0.0,0.0,1.0,0.5,0.75,0.75,1.5,0.0,0.75,0.0,0.5,0.0,0.25,0.0,0.0,-1.3,0.08,0.89,69.91,-16.5,51.4
2.4,0.0,0.0,0.0,0.0,0.0,0.0,0.0,0.0,0.0,0.0,0.0,0.0,0.0,-3.42,1.52,-0.05,0.0,0.0,0.0,1.25,0.5,0.25,1.0,1.0,0.0,1.0,0.0,0.5,0.0,0.25,0.0,0.0,-1.05,0.08,0.77,62.25,-17.8,52.1
2.42,0.0,0.0,0.0,0.0,0.0,0.0,0.0,0.0,2.25,0.0,0.0,0.0,0.0,-2.55,0.95,0.2,0.0,12.2,-38.5,1.25,0.5,0.0,1.25,1.0,0.0,0.75,0.0,0.5,0.0,0.25,0.0,0.0,-0.73,-0.05,0.7,57.77,-16.4,52.5
2.44,0.0,0.0,0.0,0.0,0.0,0.0,0.0,0.0,0.0,0.0,0.0,0.0,0.0,-1.05,0.95,0.83,0.0,0.0,0.0,1.5,0.5,0.0,1.0,1.25,0.0,0.75,0.0,0.5,0.0,0.25,0.0,0.0,-0.8,-0.11,0.83,57.47,-16.1,54.2
2.46,0.0,0.0,0.0,0.0,0.0,0.0,0.0,0.0,0.25,0.0,0.0,0.0,0.0,0.14,0.64,1.08,0.0,12.1,-38.5,1.25,1.0,0.0,0.75,1.0,0.0,0.75,0.0,0.5,0.0,0.25,0.0,0.25,-0.98,-0.11,0.89,62.99,-14.6,48.7
2.48,0.0,0.0,0.0,1.75,0.0,0.0,3.5,0.0,0.25,0.0,0.0,0.0,0.0,0.27,0.33,1.02,5.63,23.6,37.9,1.25,0.5,0.0,0.5,1.0,0.0,0.5,0.0,0.5,0.0,0.25,0.0,0.0,-1.11,-0.05,0.89,62.94,-15.8,52.2
2.5,0.0,0.0,0.0,0.0,0.0,0.0,0.0,0.0,0.0,0.0,0.0,0.0,0.0,-0.11,0.08,0.7,5.65,0.0,0.0,1.25,0.75,0.0,0.75,1.5,0.0,0.75,0.0,0.5,0.0,0.25,0.0,0.0,-1.11,0.02,0.77,69.4,-14.1,54.2
2.52,0.0,0.0,0.0,0.0,0.0,0.0,0.0,0.0,0.0,0.0,0.0,0.0,0.0,-0.48,-0.11,0.7,2.85,0.0,0.0,1.25,0.5,0.0,0.75,1.5,0.0,0.75,0.0,0.5,0.0,0.25,0.0,0.0,-1.17,0.02,0.64,75.92,-14.2,52.1
2.54,0.0,0.0,0.0,0.0,0.0,0.0,0.0,0.0,0.0,0.0,0.0,0.0,0.0,-0.67,0.02,0.27,0.0,0.0,0.0,1.25,0.5,0.0,0.75,1.75,0.0,0.5,0.0,0.5,0.0,0.25,0.0,0.0,-1.17,0.02,0.58,84.14,-12.9,52.7
2.56,0.0,0.0,0.0,0.0,0.0,0.0,0.5,0.0,0.0,0.0,0.0,0.0,0.0,-0.73,0.2,0.08,1.7,32.4,27.3,1.25,0.5,0.0,0.5,1.5,0.0,0.75,0.0,0.5,0.0,0.25,0.0,0.0,-1.17,0.02,0.7,83.11,-14.0,51.8
2.58,0.0,0.0,0.0,0.0,0.0,0.0,0.0,0.0,0.0,0.0,0.0,0.0,0.0,-0.8,0.39,0.02,0.61,0.0,0.0,1.25,0.5,0.0,0.5,1.25,0.0,0.5,0.0,0.5,0.0,0.25,0.0,0.0,-1.17,0.08,0.7,81.21,-14.6,52.3
2.6,0.0,0.0,0.0,0.0,0.0,0.0,0.0,0.0,0.0,0.0,0.0,0.0,0.0,-0.92,0.64,-0.11,0.15,0.0,0.0,1.25,0.75,0.0,0.75,1.25,0.0,0.25,0.0,0.5,0.0,0.25,0.0,0.0,-1.05,0.2,0.58,82.65,-14.2,55.6
2.62,0.0,0.0,0.0,0.0,0.0,0.0,0.0,0.0,0.0,0.0,0.0,0.0,0.0,-0.86,0.7,0.02,0.0,0.0,0.0,0.75,0.5,0.0,0.5,1.5,0.0,0.5,0.0,0.5,0.0,0.25,0.0,0.0,-0.98,0.2,0.64,78.78,-11.3,47.6
2.64,0.0,0.0,0.0,0.0,0.0,0.0,0.0,0.0,0.0,0.0,0.0,0.0,0.0,-0.86,0.7,0.2,0.0,0.0,0.0,1.25,0.5,0.0,0.5,1.0,0.0,0.5,0.0,0.5,0.0,0.25,0.0,0.0,-0.92,0.14,0.58,76.29,-15.8,52.2
2.66,0.0,0.0,0.0,0.0,0.0,0.0,0.0,0.0,0.0,0.0,0.0,0.0,0.0,-0.86,0.77,0.33,0.0,0.0,0.0,1.25,0.5,0.0,0.5,1.5,0.0,0.75,0.0,0.5,0.0,0.25,0.0,0.0,-0.8,0.14,0.64,77.33,-14.0,51.8
2.68,0.0,0.0,0.0,0.0,0.0,0.0,1.0,0.0,0.0,0.0,2.25,0.0,0.0,-1.05,0.39,0.45,12.86,14.6,-56.9,1.0,0.5,0.0,0.5,1.25,0.0,0.25,0.0,0.5,0.0,0.25,0.0,0.0,-0.61,0.02,0.64,75.2,-13.0,50.5
2.7,0.0,0.0,0.0,0.0,0.0,0.0,0.0,0.0,0.0,0.0,0.0,0.0,0.0,-0.98,0.27,0.58,11.06,0.0,0.0,1.0,0.75,0.0,0.5,0.5,0.0,0.5,0.0,0.5,0.0,0.25,0.0,0.0,-0.42,0.08,0.45,71.06,-17.4,52.4
2.72,0.0,0.0,0.0,0.0,0.0,0.0,0.0,0.0,0.0,0.0,0.0,0.0,0.0,-0.98,0.27,0.64,9.46,0.0,0.0,0.5,0.75,0.0,0.5,1.5,0.0,0.5,0.0,0.5,0.0,0.25,0.0,0.0,-0.36,0.02,0.33,70.46,-10.2,47.9
2.74,0.0,0.0,0.0,0.0,0.0,0.0,0.0,0.0,0.0,0.0,0.0,0.0,0.0,-1.05,0.27,0.64,6.61,0.0,0.0,1.0,0.5,0.0,0.5,1.25,0.0,0.25,0.0,0.5,0.0,0.25,0.0,0.0,-0.3,0.02,0.33,68.79,-13.0,50.5
2.76,0.0,0.0,0.0,0.0,0.0,0.0,0.0,0.0,0.0,0.0,0.0,0.0,0.0,-0.98,0.2,0.7,3.21,0.0,0.0,0.5,0.75,0.0,0.5,1.25,0.0,0.25,0.0,0.5,0.0,0.25,0.0,0.0,-0.36,-0.05,0.39,68.14,-10.5,48.1
2.78,0.0,0.0,0.0,0.0,0.0,0.0,0.0,0.0,0.0,0.0,0.0,0.0,0.0,-0.92,0.08,0.64,0.0,0.0,0.0,1.25,0.5,0.0,0.75,1.5,0.0,0.25,0.0,0.5,0.0,0.25,0.0,0.0,-0.42,-0.17,0.45,73.42,-13.3,53.2
2.8,0.0,0.0,0.0,0.5,0.0,0.0,0.0,0.0,0.0,0.0,0.0,0.0,0.0,-0.92,0.08,0.52,3.03,17.2,57.9,1.0,0.75,0.75,0.75,1.25,0.0,0.5,0.0,0.5,0.0,0.25,0.0,0.0,-0.48,-0.17,0.33,82.52,-17.0,54.0
2.82,0.0,0.0,0.0,0.0,0.0,0.0,0.0,0.0,0.0,0.0,0.0,0.0,0.0,-0.86,0.2,0.45,3.04,0.0,0.0,1.0,0.5,0.0,0.5,1.0,0.0,0.5,0.0,0.5,0.0,0.25,0.0,0.0,-0.67,-0.17,0.33,81.22,-14.7,49.6
2.84,0.0,0.0,0.0,0.0,0.0,0.0,0.0,0.0,0.0,0.0,0.0,0.0,0.0,-0.8,0.27,0.27,1.91,0.0,0.0,0.75,0.5,0.0,0.5,0.5,0.0,0.25,0.0,0.5,0.25,0.5,0.0,0.0,-0.8,-0.17,0.39,74.99,-13.4,29.9
2.86,0.0,0.0,0.0,0.0,0.0,0.0,0.0,0.0,0.0,0.0,0.0,0.0,0.0,-0.8,0.27,0.27,0.06,0.0,0.0,0.5,0.75,0.0,0.5,0.5,0.0,0.25,0.0,0.5,0.0,0.25,0.0,0.0,-0.86,-0.23,0.39,65.62,-14.2,46.7
2.88,0.0,0.0,0.0,0.0,0.0,0.0,0.0,0.0,0.0,0.0,0.0,0.0,0.0,-0.73,0.2,0.2,0.0,0.0,0.0,1.0,0.5,0.0,0.5,0.5,0.0,0.25,0.0,0.5,0.0,0.25,0.0,0.0,-0.98,-0.23,0.45,59.03,-17.2,49.8
2.9,0.0,0.0,0.0,0.0,0.0,0.0,0.0,0.0,0.0,0.0,0.0,0.0,0.0,-0.67,0.27,0.08,0.0,0.0,0.0,1.0,0.5,0.0,0.5,1.0,0.0,0.25,0.0,0.5,0.0,0.5,0.0,0.0,-1.11,-0.3,0.52,59.52,-14.0,43.1
2.92,0.0,0.0,0.0,0.0,0.0,0.0,0.0,0.0,0.0,0.0,0.0,0.0,0.0,-0.67,0.39,-0.05,0.0,0.0,0.0,1.25,0.5,0.0,0.5,1.0,0.0,0.25,0.0,0.5,0.0,0.25,0.0,0.0,-1.17,-0.23,0.52,64.39,-15.4,52.9
2.94,0.0,0.0,0.0,0.0,0.0,0.0,0.0,0.0,0.0,0.0,0.0,0.0,0.0,-0.73,0.52,-0.11,0.0,0.0,0.0,1.25,0.5,0.0,0.5,1.75,0.0,0.25,0.0,0.5,0.0,0.25,0.0,0.0,-1.17,-0.23,0.52,73.4,-12.2,53.0
2.96,0.0,0.0,0.0,0.0,0.0,0.0,0.0,0.0,0.0,0.0,0.0,0.0,0.0,-0.8,0.64,-0.05,0.0,0.0,0.0,0.75,0.75,0.75,0.5,1.75,0.0,0.5,0.0,0.5,0.0,0.5,0.0,0.0,-1.11,-0.23,0.52,84.27,-14.1,46.8
2.98,0.0,0.0,0.0,0.0,0.0,0.0,0.0,0.0,0.0,0.0,0.0,0.0,0.0,-0.86,0.7,0.02,0.0,0.0,0.0,1.0,0.5,0.0,0.5,1.25,0.0,0.25,0.0,0.5,0.0,0.25,0.0,0.0,-1.11,-0.3,0.52,84.42,-13.0,50.5
3.0,0.0,0.0,0.0,0.0,0.0,0.0,0.0,0.0,0.0,0.0,0.0,0.0,0.0,-0.92,0.58,0.27,0.0,0.0,0.0,0.75,0.5,0.0,0.5,1.25,0.0,0.25,0.0,0.5,0.0,0.25,0.0,0.0,-1.11,-0.23,0.52,80.42,-11.8,47.8
3.02,0.0,0.0,0.0,0.0,0.0,0.0,0.0,0.0,0.0,0.0,0.0,0.0,0.0,-0.98,0.45,0.33,0.0,0.0,0.0,0.5,0.5,0.0,0.5,1.0,0.0,0.25,0.0,0.5,0.0,0.25,0.0,0.0,-1.05,-0.23,0.52,70.85,-11.5,44.0
3.04,0.0,0.0,0.0,0.0,0.0,0.0,0.0,0.0,0.0,0.0,0.0,0.0,0.0,-0.98,0.33,0.39,0.0,0.0,0.0,0.75,0.5,0.0,0.5,1.0,0.0,0.25,0.0,0.5,0.0,0.25,0.0,0.0,-1.05,-0.3,0.64,66.23,-12.9,47.3
3.06,0.0,0.0,0.0,0.0,0.0,0.0,0.0,0.0,0.0,0.0,0.0,0.0,0.0,-0.92,0.33,0.33,0.0,0.0,0.0,1.25,0.5,0.0,0.5,1.25,0.0,0.25,0.0,0.5,0.0,0.25,0.0,0.0,-0.98,-0.3,0.7,68.66,-14.2,53.0
3.08,0.0,0.0,0.0,0.0,0.0,0.0,0.0,0.0,0.0,0.0,0.0,0.0,0.0,-0.98,0.33,0.33,0.0,0.0,0.0,1.0,0.5,0.0,0.5,1.5,0.0,0.25,0.0,0.5,0.0,0.5,0.0,0.0,-0.98,-0.17,0.58,74.08,-11.9,44.3
3.1,0.0,0.0,0.0,0.0,0.0,0.0,0.0,0.0,0.0,0.0,0.0,0.0,0.0,-0.92,0.33,0.33,0.0,0.0,0.0,1.0,0.5,0.0,0.5,1.75,0.0,0.25,0.0,0.5,0.0,0.25,0.0,0.0,-0.92,-0.17,0.52,79.03,-11.1,50.9
3.12,0.0,0.0,0.0,0.0,0.0,0.0,0.0,0.0,0.0,0.0,0.0,0.0,0.0,-0.92,0.33,0.27,0.0,0.0,0.0,0.75,0.5,0.75,0.5,1.25,0.0,0.25,0.0,0.5,0.0,0.25,0.0,0.0,-0.86,-0.17,0.52,81.04,-16.0,49.9
3.14,0.0,0.0,0.0,0.0,0.0,0.0,0.0,0.0,0.0,0.0,0.0,0.0,0.0,-0.92,0.39,0.27,0.0,0.0,0.0,0.75,0.5,0.0,0.5,1.0,0.0,0.25,0.0,0.5,0.0,0.25,0.0,0.0,-0.86,-0.11,0.58,75.47,-12.9,47.3
3.16,0.0,0.0,0.0,0.0,0.0,0.0,0.0,0.0,0.0,0.0,0.0,0.0,0.0,-0.92,0.45,0.14,0.0,0.0,0.0,0.5,0.5,0.0,0.5,0.5,0.0,0.25,0.0,0.5,0.0,0.25,0.0,0.0,-0.86,-0.11,0.58,64.88,-14.4,42.1
3.18,0.0,0.0,0.0,0.0,0.0,0.0,0.0,0.0,0.0,0.0,0.0,0.0,0.0,-0.86,0.58,0.14,0.0,0.0,0.0,0.75,0.5,0.0,0.5,0.25,0.0,0.25,0.0,0.5,0.0,0.25,0.0,0.0,-0.86,-0.05,0.58,54.69,-17.8,45.5
3.2,0.0,0.0,0.0,0.0,0.0,0.0,0.0,0.0,0.0,0.0,0.0,0.0,0.0,-0.86,0.58,0.08,0.0,0.0,0.0,0.5,0.75,0.0,0.5,1.25,0.0,0.25,0.0,0.5,0.0,0.25,0.0,0.0,-0.86,-0.05,0.52,55.4,-10.5,48.1
3.22,0.0,0.0,0.0,0.0,0.0,0.0,0.0,0.0,0.0,0.0,0.0,0.0,0.0,-0.8,0.58,0.08,0.0,0.0,0.0,0.75,0.5,0.0,0.5,0.5,0.0,0.25,0.0,0.5,0.0,0.5,0.0,0.0,-0.86,0.02,0.52,56.0,-15.5,37.6
3.24,0.0,0.0,0.0,0.0,0.0,0.0,0.0,0.0,0.0,0.0,0.0,0.0,0.0,-0.8,0.52,0.14,0.0,0.0,0.0,0.5,0.5,0.0,0.5,0.5,0.0,0.25,0.0,0.5,0.0,0.25,0.0,0.0,-0.8,0.02,0.58,54.46,-14.4,42.1
3.26,0.0,0.0,0.0,0.0,0.0,0.0,0.0,0.0,0.0,0.0,0.0,0.0,0.0,-0.86,0.45,0.2,0.0,0.0,0.0,1.0,0.5,0.0,0.5,0.0,0.0,0.25,0.0,0.5,0.0,0.25,0.0,0.0,-0.86,0.02,0.58,50.63,-21.4,49.0
3.28,0.0,0.0,0.0,0.0,0.0,0.0,0.0,0.0,0.0,0.0,0.0,0.0,0.0,-0.86,0.39,0.2,0.0,0.0,0.0,0.5,0.5,0.0,0.5,0.25,0.0,0.5,0.0,0.5,0.0,0.25,0.0,0.0,-0.86,0.02,0.58,46.01,-17.0,40.3
3.3,0.0,0.0,0.0,0.0,0.0,0.0,0.0,0.0,3.0,0.0,0.0,0.0,0.0,-0.86,0.39,0.2,16.54,12.1,-38.5,0.5,0.5,0.0,0.5,1.25,0.0,0.25,0.0,0.5,0.0,0.25,0.0,0.0,-0.86,0.02,0.58,48.56,-10.3,44.7
3.32,0.0,0.0,0.0,0.0,0.0,0.0,5.25,0.0,3.25,0.0,1.25,0.0,0.0,-0.86,0.39,0.27,52.22,19.2,-21.0,0.5,0.5,0.0,0.5,0.5,0.0,0.25,0.0,0.5,0.0,0.25,0.0,0.0,-0.86,-0.05,0.64,48.45,-14.4,42.1
3.34,0.0,0.0,0.25,0.5,0.0,0.0,5.25,0.0,3.5,0.25,1.5,0.0,0.0,-0.92,0.39,0.27,91.78,18.2,-17.3,0.5,0.5,0.0,0.5,0.5,0.0,0.25,0.0,0.5,0.0,0.25,0.0,0.0,-0.86,-0.05,0.7,49.72,-14.4,42.1
3.36,0.0,0.0,0.5,0.25,0.0,0.0,5.25,0.0,3.25,1.0,1.25,0.0,0.0,-0.92,0.45,0.27,122.44,16.3,-20.1,0.5,0.25,0.0,0.5,0.25,0.0,0.25,0.0,0.5,0.0,0.25,0.0,0.0,-0.86,-0.05,0.64,45.64,-16.7,34.6
3.38,0.0,0.0,0.75,0.5,0.0,0.0,5.5,0.0,3.75,0.5,1.5,0.0,0.0,-0.92,0.45,0.27,145.01,18.4,-14.6,0.75,0.5,0.0,0.5,0.25,0.0,0.25,0.0,0.5,0.0,0.25,0.0,0.0,-0.86,-0.05,0.58,46.21,-17.8,45.5
3.4,0.0,0.0,0.75,1.25,0.0,0.0,5.25,0.0,3.75,1.25,1.5,0.0,0.0,-0.92,0.45,0.27,163.27,15.8,-14.0,0.5,0.5,0.0,0.5,0.5,0.0,0.25,0.0,0.5,0.0,0.5,0.0,0.0,-0.86,-0.05,0.64,47.1,-14.1,33.2
3.42,0.0,0.0,1.5,1.75,0.0,0.0,5.25,0.0,2.75,1.25,2.5,0.25,0.0,-0.92,0.45,0.27,181.73,17.0,-11.1,1.0,0.5,0.0,0.5,0.0,0.0,0.5,0.0,0.5,0.0,0.25,0.0,0.0,-0.86,-0.11,0.64,48.43,-21.9,48.1
3.44,0.0,0.0,0.5,0.0,0.0,0.0,0.5,0.0,0.0,0.5,0.0,0.0,0.0,-0.92,0.45,0.27,144.99,15.6,0.1,0.75,0.5,0.0,0.5,0.25,0.0,0.5,0.0,0.5,0.0,0.75,0.0,0.0,-0.86,-0.11,0.64,51.64,-17.3,28.1
3.46,0.0,0.0,0.25,0.0,0.0,0.0,0.25,0.0,0.0,0.0,0.0,0.0,0.0,-0.92,0.45,0.27,100.1,36.4,50.3,0.5,0.5,0.0,0.5,0.25,0.0,0.25,0.0,0.5,0.0,0.25,0.0,0.0,-0.86,-0.11,0.64,50.83,-16.3,40.9
3.48,0.0,0.0,0.0,0.0,0.0,0.0,0.0,0.0,0.0,0.0,0.0,0.0,0.0,-0.92,0.45,0.2,46.77,0.0,0.0,0.5,0.5,0.0,0.5,0.25,0.0,0.25,0.0,0.5,0.0,0.25,0.0,0.0,-0.86,-0.11,0.64,49.12,-16.3,40.9
3.5,0.0,0.0,0.25,0.0,0.0,0.0,0.0,0.0,0.0,0.0,0.0,0.0,0.0,-0.86,0.45,0.2,13.79,38.2,60.9,0.5,0.25,0.0,0.5,0.5,0.0,0.25,0.0,0.5,0.0,0.25,0.0,0.0,-0.8,-0.11,0.64,46.17,-14.6,36.7
3.52,0.0,0.0,0.25,0.0,0.0,0.0,0.0,0.0,0.0,0.0,0.0,0.0,0.0,-0.86,0.45,0.27,0.0,38.2,60.9,0.5,0.5,0.0,0.5,0.25,0.0,0.25,0.0,0.5,0.0,0.25,0.0,0.0,-0.73,-0.17,0.7,44.79,-16.3,40.9
3.54,0.0,0.0,0.25,0.0,0.0,0.0,0.0,0.0,0.0,0.0,0.0,0.0,0.0,-0.86,0.52,0.2,0.0,38.2,60.9,0.5,0.5,0.0,0.5,0.0,0.0,0.25,0.0,0.5,0.0,0.25,0.0,0.0,-0.73,-0.17,0.64,41.9,-18.7,39.3
3.56,0.0,0.0,0.25,0.0,0.0,0.0,0.0,0.0,0.0,0.0,0.0,0.0,0.0,-0.86,0.52,0.2,0.0,38.2,60.9,0.5,0.5,0.0,0.5,0.5,0.0,0.25,0.0,0.5,0.0,0.5,0.0,0.25,-0.8,-0.17,0.7,46.92,-12.0,22.5
3.58,0.0,0.0,0.25,0.0,0.0,0.0,0.25,0.0,0.0,0.0,0.0,0.0,0.0,-0.86,0.52,0.27,0.0,36.4,50.3,0.5,0.5,0.0,0.5,1.0,0.0,0.25,0.0,0.5,0.0,0.75,0.0,0.0,-0.86,-0.17,0.7,54.19,-11.4,29.5
3.6,0.0,0.0,0.25,0.0,0.0,0.0,0.0,0.0,0.75,1.5,0.0,0.0,0.0,-0.86,0.52,0.27,0.0,-1.8,-50.5,0.5,0.25,0.0,0.5,1.0,0.0,0.25,0.0,0.5,0.0,0.25,0.0,0.0,-0.86,-0.17,0.7,57.46,-11.4,39.6
3.62,0.0,0.0,0.25,0.0,0.0,0.0,0.25,0.0,0.0,0.0,0.0,0.0,0.0,-0.86,0.45,0.27,0.0,36.4,50.3,0.5,0.5,0.0,0.5,1.0,0.0,0.25,0.0,0.5,0.0,0.25,0.0,0.0,-0.86,-0.17,0.7,59.84,-11.5,44.0
3.64,0.0,0.0,0.0,0.0,0.0,0.0,0.25,0.0,0.0,0.0,0.0,0.0,0.0,-0.86,0.45,0.33,0.0,32.4,27.3,0.5,0.5,0.0,0.5,1.0,0.0,0.25,0.0,0.5,0.0,0.25,0.0,0.0,-0.86,-0.17,0.7,60.65,-11.5,44.0
3.66,0.0,0.0,0.25,0.0,0.0,0.0,0.25,0.0,0.25,0.0,0.0,0.0,0.0,-0.86,0.45,0.33,0.0,26.8,15.1,0.5,0.5,0.0,0.5,1.0,0.0,0.25,0.0,0.5,0.0,0.5,0.0,0.0,-0.86,-0.17,0.77,62.52,-11.4,36.3
3.68,0.0,0.0,0.5,0.0,0.0,0.0,0.5,0.0,0.5,0.25,0.0,0.0,0.25,-0.86,0.45,0.27,15.97,14.8,-16.0,0.0,0.5,0.0,0.5,1.0,0.0,0.25,0.0,0.25,0.0,0.25,0.0,0.0,-0.86,-0.17,0.77,58.37,-7.5,42.3
3.7,0.0,0.0,0.5,0.5,0.0,0.0,0.75,0.0,0.75,1.25,0.75,0.0,0.5,-0.86,0.45,0.27,37.28,6.5,-35.1,0.0,0.25,0.0,0.5,0.25,0.0,0.25,0.0,0.25,0.5,0.75,0.0,0.0,-0.8,-0.17,0.7,53.57,-6.8,-10.3
3.72,0.0,0.0,0.5,0.5,0.0,0.0,0.5,0.0,0.75,1.5,0.75,0.0,0.5,-0.86,0.45,0.27,58.39,4.7,-38.8,0.25,0.5,0.0,0.5,0.25,0.0,0.25,0.0,0.25,0.0,0.25,0.0,0.0,-0.8,-0.17,0.77,45.81,-14.8,43.8
3.74,0.0,0.0,0.5,0.5,0.0,0.0,0.5,0.0,0.75,1.25,0.5,0.0,0.5,-0.86,0.45,0.27,71.93,5.6,-34.6,0.5,0.5,0.0,0.25,0.0,0.0,0.25,0.0,0.25,0.0,0.25,0.0,0.0,-0.73,-0.11,0.77,38.19,-19.8,47.1
3.76,0.0,0.0,0.5,0.0,0.0,0.0,0.5,0.0,0.75,1.0,0.75,0.0,0.5,-0.86,0.52,0.27,74.92,5.7,-47.5,0.25,0.5,0.0,0.5,1.25,0.0,0.25,0.0,0.25,0.0,0.25,0.0,0.0,-0.8,-0.11,0.77,41.33,-8.5,47.2
3.78,0.0,0.0,0.75,1.25,0.0,0.0,1.75,0.0,2.75,0.0,1.25,0.0,0.75,-0.86,0.52,0.27,92.55,15.0,-17.7,0.5,0.5,0.0,0.25,0.5,0.0,0.25,0.0,0.25,0.0,0.25,0.0,0.0,-0.8,-0.11,0.7,40.8,-14.3,48.6
3.8,0.0,0.0,0.0,0.0,0.0,0.0,4.75,0.0,2.75,0.0,0.5,0.0,0.0,-0.86,0.52,0.27,96.23,20.4,-14.4,0.25,0.5,0.0,0.5,1.0,0.0,0.25,0.0,0.25,0.0,0.25,0.0,0.0,-0.8,-0.11,0.7,44.62,-9.6,46.6
3.82,0.0,0.0,0.0,0.0,0.0,0.0,4.25,0.0,2.75,0.0,0.0,0.0,0.0,-0.86,0.52,0.27,97.01,20.8,-10.3,0.25,0.5,0.0,0.5,1.0,0.0,0.25,0.0,0.25,0.0,0.5,0.0,0.0,-0.8,-0.05,0.7,47.59,-9.7,37.6
3.84,0.0,0.0,0.0,0.0,0.0,0.0,4.0,0.0,2.75,0.0,0.0,0.0,0.0,-0.86,0.45,0.33,91.01,20.5,-11.2,0.25,0.5,0.0,0.5,0.5,0.0,0.25,0.0,0.25,0.0,0.25,0.0,0.0,-0.8,-0.05,0.7,47.36,-12.7,44.9
3.86,0.0,0.0,0.0,0.0,0.0,0.0,4.0,0.0,2.75,0.0,0.0,0.0,0.0,-0.86,0.45,0.27,87.4,20.5,-11.2,0.5,0.5,0.0,0.5,0.25,0.0,0.25,0.0,0.25,0.0,0.25,0.0,0.0,-0.73,-0.05,0.77,44.41,-16.7,49.0
3.88,0.0,0.0,0.0,0.0,0.0,0.0,4.0,0.0,2.75,0.0,0.0,0.0,0.0,-0.86,0.45,0.27,81.01,20.5,-11.2,0.25,0.25,0.0,0.0,0.0,0.0,0.25,0.0,0.25,0.0,0.75,0.0,0.0,-0.73,-0.05,0.7,36.55,-16.5,-8.0
3.9,0.0,0.0,0.0,0.0,0.0,0.0,4.25,0.0,2.75,0.0,0.0,0.0,0.0,-0.86,0.45,0.27,77.77,20.8,-10.3,0.5,0.5,0.0,0.5,0.0,0.0,0.25,0.0,0.25,0.0,0.5,0.0,0.25,-0.73,-0.05,0.7,36.66,-15.4,21.4
3.92,0.25,0.0,0.0,0.25,0.0,0.0,4.75,0.0,1.25,1.75,0.0,0.0,0.0,-0.86,0.45,0.27,80.42,12.8,-13.8,0.5,0.5,0.0,0.5,0.25,0.0,0.25,0.0,0.25,0.0,0.5,0.0,0.0,-0.67,-0.05,0.7,38.16,-16.2,37.7
3.94,0.0,0.0,1.0,0.25,0.0,0.0,0.5,0.0,0.75,1.5,0.25,0.0,0.5,-0.86,0.45,0.27,75.72,7.2,-29.1,0.25,0.5,0.0,0.5,0.25,0.0,0.25,0.0,0.25,0.0,0.25,0.0,0.0,-0.67,-0.05,0.7,39.28,-14.8,43.8
3.96,0.0,0.0,0.25,0.25,0.0,0.0,0.5,0.0,0.75,1.5,0.25,0.0,0.5,-0.86,0.52,0.27,70.67,0.8,-47.7,0.25,0.25,0.0,0.5,0.25,0.0,0.25,0.0,0.25,0.0,0.25,0.0,0.0,-0.67,-0.05,0.7,36.92,-15.1,36.4
3.98,0.0,0.0,0.5,0.25,0.0,0.0,0.5,0.0,0.75,1.5,0.25,0.0,0.25,-0.86,0.52,0.33,63.58,4.3,-36.0,0.25,0.5,0.0,0.5,1.0,0.0,0.25,0.0,0.25,0.25,0.25,0.0,0.0,-0.73,-0.05,0.7,42.03,-7.7,37.3
4.0,0.0,0.0,0.5,0.5,0.0,0.0,0.5,0.0,0.75,1.25,0.0,0.0,0.5,-0.86,0.52,0.27,57.61,4.9,-29.4,0.25,0.5,0.0,0.5,0.25,0.0,0.25,0.0,0.25,0.0,0.25,0.0,0.0,-0.73,-0.05,0.7,39.7,-14.8,43.8
4.02,0.0,0.0,0.5,0.25,0.0,0.0,0.5,0.0,0.75,1.5,0.0,0.0,0.5,-0.86,0.52,0.27,53.28,2.7,-38.5,0.25,0.5,0.0,0.5,0.25,0.0,0.25,0.0,0.25,0.0,0.25,0.0,0.0,-0.67,0.02,0.64,40.06,-14.8,43.8
4.04,0.0,0.0,0.5,0.25,0.0,0.0,0.5,0.0,0.75,1.5,0.0,0.0,0.5,-0.86,0.45,0.27,55.07,2.7,-38.5,0.0,0.25,0.0,0.25,0.25,0.0,0.25,0.0,0.25,0.0,1.0,0.0,0.0,-0.67,0.02,0.64,36.56,-11.2,-10.7
