time,left pressure 0[N/cm²],left pressure 1[N/cm²],left pressure 2[N/cm²],left pressure 3[N/cm²],left pressure 4[N/cm²],left pressure 5[N/cm²],left pressure 6[N/cm²],left pressure 7[N/cm²],left pressure 8[N/cm²],left pressure 9[N/cm²],left pressure 10[N/cm²],left pressure 11[N/cm²],left pressure 12[N/cm²],left acceleration X[g],left acceleration Y[g],left acceleration Z[g],left total force[N],left center of pressure X[mm],left center of pressure Y[mm],right pressure 0[N/cm²],right pressure 1[N/cm²],right pressure 2[N/cm²],right pressure 3[N/cm²],right pressure 4[N/cm²],right pressure 5[N/cm²],right pressure 6[N/cm²],right pressure 7[N/cm²],right pressure 8[N/cm²],right pressure 9[N/cm²],right pressure 10[N/cm²],right pressure 11[N/cm²],right pressure 12[N/cm²],right acceleration X[g],right acceleration Y[g],right acceleration Z[g],right total force[N],right center of pressure X[mm],right center of pressure Y[mm]
0.02,0.0,0.25,0.0,0.0,0.0,0.0,0.75,3.0,1.5,4.25,3.25,2.75,1.5,-0.17,0.08,0.89,205.44,-2.8,-69.5,1.75,0.0,2.0,0.5,3.5,0.0,0.75,1.75,0.25,0.0,0.75,0.25,0.0,1.27,-0.67,1.2,35.85,-10.9,33.0
0.04,0.0,1.25,0.0,1.0,0.0,0.25,1.0,4.5,2.75,4.75,5.0,3.0,3.0,-0.11,0.08,0.95,272.47,-1.3,-56.3,1.5,0.0,1.25,1.75,3.5,0.0,0.5,2.0,0.25,0.0,0.25,0.25,0.0,0.7,-0.67,1.08,39.48,-8.5,35.7
0.06,0.0,1.0,0.75,1.25,0.0,0.5,1.0,4.75,3.25,5.75,5.5,3.75,3.0,-0.17,0.08,0.95,345.97,-0.4,-54.7,1.25,0.0,0.75,1.0,2.5,0.0,0.75,1.75,0.25,0.0,0.25,0.25,0.0,0.39,-0.55,0.77,54.89,-7.9,30.2
0.08,0.0,1.5,2.25,2.75,0.0,1.0,1.5,5.5,4.0,6.0,6.0,3.75,4.0,-0.11,0.02,1.02,448.58,1.6,-42.8,1.25,0.0,0.25,1.25,1.25,0.0,0.5,1.75,0.25,0.0,0.5,0.0,0.0,0.14,-0.36,0.64,59.75,-7.9,25.4
0.1,0.0,1.5,2.25,3.0,0.0,1.0,1.5,5.75,4.25,6.0,6.25,4.0,4.0,-0.11,0.02,0.95,537.34,1.7,-42.7,1.25,0.0,0.0,1.25,1.25,0.0,0.5,1.75,0.25,0.0,0.5,0.0,0.0,0.08,-0.3,0.64,61.32,-6.8,24.1
0.12,0.0,1.5,3.25,3.0,0.0,1.5,1.5,6.0,4.5,6.0,6.25,4.0,4.0,-0.11,0.02,0.95,608.02,2.3,-39.1,1.25,0.25,0.0,0.75,1.75,0.0,0.5,1.75,0.25,0.0,0.5,0.0,0.0,0.02,-0.3,0.89,60.72,-5.3,26.7
0.14,0.0,1.5,3.75,3.25,0.0,1.5,1.5,6.25,4.75,6.0,6.0,3.75,4.0,-0.11,0.02,0.95,643.51,2.7,-36.6,1.25,0.25,0.0,1.25,1.75,0.0,0.25,1.75,0.25,0.0,0.5,0.25,0.0,0.02,-0.23,0.95,71.62,-5.8,24.4
0.16,0.5,1.5,3.75,4.75,0.0,1.75,1.5,6.25,4.75,6.0,6.0,3.25,3.25,-0.11,0.02,0.95,663.35,3.7,-29.1,1.25,0.0,0.0,0.5,1.25,0.0,0.75,1.75,0.25,0.0,0.5,0.0,0.0,-0.05,-0.11,0.95,78.52,-5.9,19.7
0.18,0.75,1.5,4.75,4.75,5.75,1.75,1.5,6.25,4.75,6.0,6.0,3.0,3.0,-0.11,0.02,0.95,721.04,3.7,-14.8,0.5,0.0,0.0,1.25,1.25,0.5,0.5,1.75,0.25,0.0,0.25,0.0,0.0,-0.11,0.02,1.02,82.87,-1.1,20.4
0.2,1.25,1.75,5.5,5.75,6.0,1.75,1.75,6.25,4.75,5.25,5.75,3.0,3.0,-0.11,0.02,0.95,783.31,5.0,-9.0,0.5,0.0,0.0,0.5,1.25,0.0,0.75,1.75,0.25,0.0,1.5,0.0,0.0,-0.11,0.14,1.33,86.61,-3.4,-3.7
0.22,1.25,2.0,5.5,6.25,6.0,1.75,1.75,6.0,4.75,4.75,5.5,2.25,2.75,-0.11,0.02,0.95,825.41,5.5,-4.6,1.25,0.0,0.0,0.5,1.5,0.0,0.5,1.75,0.25,0.0,0.75,0.0,0.0,-0.05,0.27,1.45,93.6,-5.2,17.5
0.24,2.0,2.5,6.5,6.75,6.75,1.75,1.75,6.0,4.5,4.5,5.0,2.0,2.25,-0.11,0.02,0.95,853.99,6.8,3.2,1.25,0.25,0.0,0.5,1.25,0.0,0.75,1.75,0.25,0.0,0.5,0.0,0.0,0.02,0.52,1.52,93.31,-6.2,23.0
0.26,2.25,2.75,6.5,6.75,7.0,1.75,1.75,5.75,4.25,4.5,4.75,2.0,1.75,-0.11,0.02,0.95,863.51,7.2,6.3,1.25,0.0,0.0,0.5,1.5,0.0,0.5,1.75,0.25,0.0,0.25,0.0,0.0,0.14,0.77,1.77,86.62,-4.7,25.1
0.28,2.5,3.0,7.25,6.75,7.0,1.75,1.75,5.5,4.0,3.5,4.0,1.75,1.75,-0.11,0.02,0.95,852.01,8.3,11.8,1.0,0.0,0.0,0.5,2.25,0.0,0.5,1.5,0.25,0.0,0.25,0.0,0.0,0.02,1.2,2.14,90.95,-3.3,28.8
0.3,2.5,3.0,7.25,8.0,7.25,1.75,1.75,5.5,3.5,3.5,3.25,1.75,1.5,-0.11,0.02,0.95,841.82,8.5,15.5,1.25,0.0,0.0,0.5,1.5,0.0,0.5,1.5,0.25,0.0,0.5,0.25,0.0,0.02,1.77,2.2,94.44,-6.0,18.3
0.32,3.75,3.0,7.75,8.0,7.5,1.75,1.75,5.0,3.25,3.25,3.25,1.75,1.5,-0.11,0.08,0.95,841.78,9.6,19.2,0.5,0.25,0.0,0.5,1.75,0.0,0.5,1.75,0.25,0.0,0.5,0.25,0.0,-0.11,2.45,1.58,96.45,-1.7,12.0
0.34,4.0,3.25,8.0,8.5,7.5,1.75,1.75,4.75,3.0,3.25,2.75,1.25,1.25,-0.11,0.08,0.95,843.17,10.2,23.9,1.25,0.25,0.0,0.75,1.5,0.0,0.25,1.5,0.0,0.75,0.5,0.0,0.0,-0.48,3.14,1.14,99.71,-3.5,19.1
0.36,5.25,3.5,8.5,9.25,7.5,1.75,1.75,4.75,2.75,2.25,2.5,0.75,1.0,-0.11,0.08,0.95,850.65,11.8,31.5,2.0,0.0,0.0,1.25,1.75,2.0,1.0,2.5,0.0,0.0,0.0,0.0,0.0,-1.11,4.58,-0.23,121.11,-1.1,34.5
0.38,5.5,4.25,8.75,9.75,7.5,1.75,1.5,4.5,2.25,1.75,2.5,0.75,0.5,-0.11,0.08,0.95,856.61,12.7,36.6,0.0,0.0,0.0,0.0,0.0,0.0,0.0,0.0,0.0,0.0,0.0,0.0,0.0,-2.05,4.89,-0.3,87.58,0.0,0.0
0.4,6.25,4.5,9.0,10.5,5.0,1.75,1.5,4.0,1.75,2.0,1.75,0.75,0.5,-0.11,0.08,0.95,841.42,14.3,39.9,0.0,0.0,0.0,0.0,0.0,0.0,0.0,0.0,0.0,3.25,0.0,0.0,0.0,-0.36,0.08,0.95,73.6,15.6,-75.5
0.42,7.0,4.75,9.25,11.5,0.0,1.75,1.5,3.75,1.75,1.75,1.75,0.75,0.5,-0.11,0.08,0.95,790.93,17.4,41.0,0.0,0.0,0.0,0.0,1.0,0.0,0.25,1.75,0.0,5.75,1.75,3.0,0.0,0.33,0.02,0.95,107.46,5.5,-66.3
0.44,7.5,5.5,9.75,11.5,8.75,1.75,1.25,3.75,1.5,1.75,1.5,0.75,0.5,-0.11,0.14,1.02,835.78,14.0,45.5,0.5,0.0,0.0,0.5,2.75,0.25,0.0,1.75,0.25,7.0,3.75,4.25,3.25,0.08,0.33,2.33,203.52,3.8,-59.2
0.46,8.0,5.5,9.75,12.0,0.0,1.25,1.0,3.25,1.5,1.5,1.5,0.75,0.5,-0.17,0.14,1.02,806.11,18.9,46.2,0.0,0.0,0.0,0.0,2.5,0.0,0.5,4.5,1.0,8.0,6.75,5.0,4.25,-0.05,0.27,1.14,313.52,4.1,-66.9
0.48,8.0,5.5,10.0,12.0,0.0,1.25,0.75,2.5,0.75,1.75,1.5,0.75,0.5,-0.17,0.14,1.08,782.41,19.5,48.4,1.25,0.0,0.0,0.0,0.0,0.0,0.0,4.5,1.0,7.5,6.75,5.25,4.75,0.08,0.14,1.02,418.16,2.9,-73.6
0.5,8.0,5.75,9.75,11.0,0.0,1.0,0.25,2.25,1.0,1.5,1.5,0.75,0.5,-0.17,0.2,1.08,728.79,19.9,49.3,0.75,1.0,1.75,1.5,2.25,2.0,0.75,6.25,1.25,8.75,7.75,5.5,5.5,0.08,0.14,0.95,567.82,1.8,-48.0
0.52,9.0,6.25,10.5,12.5,0.0,1.0,0.0,2.25,1.0,1.5,1.25,0.75,0.5,-0.17,0.2,1.08,722.48,20.3,52.0,1.0,1.0,2.0,1.75,3.5,2.5,1.25,7.25,2.0,9.0,8.5,5.75,6.0,0.08,0.08,0.95,706.2,1.4,-43.4
0.54,9.0,6.5,10.5,12.0,0.0,0.0,0.0,2.0,0.75,1.5,1.25,0.75,0.5,-0.17,0.2,1.08,703.43,21.5,53.6,1.5,1.0,2.0,2.0,3.75,2.5,1.25,7.5,2.25,9.0,8.75,6.0,6.5,0.14,0.08,0.95,839.36,1.1,-42.2
0.56,9.5,6.5,10.5,12.0,0.0,0.0,0.0,2.0,1.0,1.5,1.0,0.25,0.5,-0.17,0.27,1.08,707.63,21.8,56.0,1.5,1.0,2.25,2.0,3.75,2.5,1.25,7.75,2.75,9.0,8.75,5.75,6.25,0.14,0.08,0.95,928.52,0.8,-41.0
0.58,9.0,6.25,10.5,12.0,0.0,0.0,0.0,2.0,1.0,1.5,1.0,0.0,0.5,-0.23,0.33,1.2,701.99,21.8,56.3,1.5,1.0,2.5,2.0,4.75,3.75,1.25,8.0,2.75,9.0,8.75,5.5,6.0,0.14,0.08,0.95,991.93,1.2,-36.5
0.6,9.25,5.75,10.5,10.5,0.0,0.0,0.0,2.0,0.0,1.5,0.75,0.0,0.5,-0.23,0.33,1.2,674.25,22.4,59.0,1.5,1.0,2.5,2.25,5.25,4.25,1.25,8.5,2.75,8.75,8.5,5.5,5.75,0.2,0.08,0.95,1018.58,1.4,-33.9
0.62,8.75,5.5,9.75,10.5,0.0,0.0,0.0,2.0,0.75,1.5,1.0,0.25,0.5,-0.36,0.45,1.27,645.85,21.7,54.6,1.75,1.25,2.5,3.25,6.0,4.75,1.25,8.5,2.75,8.5,8.25,4.5,5.25,0.2,0.08,0.95,1026.16,1.1,-27.0
0.64,8.25,0.0,0.0,9.25,0.0,0.0,0.0,0.0,0.75,1.25,0.0,0.0,0.5,-0.42,0.52,1.39,488.29,21.0,57.0,1.5,1.75,3.25,4.0,6.25,4.75,1.5,8.25,2.75,8.0,7.75,4.25,5.0,0.2,0.08,0.95,1010.81,0.2,-22.0
0.66,7.0,0.0,8.5,8.0,0.0,0.0,0.0,2.0,0.75,1.0,0.25,0.0,0.25,-0.48,0.64,1.52,407.1,23.8,51.2,2.5,1.5,3.75,3.75,6.25,5.25,1.25,7.75,2.75,7.5,7.25,3.5,3.75,0.2,0.08,0.95,971.72,-0.6,-15.6
0.68,3.75,0.0,7.25,4.5,0.0,0.0,0.25,0.0,0.75,1.5,0.75,0.75,0.5,-0.55,1.08,2.14,304.93,24.2,36.9,2.0,1.75,4.25,4.5,6.25,5.75,1.25,7.75,2.5,7.25,6.75,3.0,2.75,0.2,0.08,0.95,931.99,-0.9,-10.4
0.7,2.0,0.0,5.5,3.25,0.0,0.0,0.25,0.0,0.75,1.5,0.75,0.0,0.5,-0.48,1.14,1.95,249.38,22.7,32.7,2.0,2.0,4.75,4.5,6.25,5.75,1.25,7.75,2.0,7.0,5.75,2.5,2.5,0.2,0.08,0.95,888.9,-1.1,-6.1
0.72,0.0,0.0,0.0,0.0,0.0,0.0,0.25,0.0,0.5,0.5,0.75,0.0,0.0,-0.42,0.33,1.52,127.39,5.3,-58.9,2.25,2.25,4.75,5.25,7.0,6.0,1.25,7.5,2.0,6.5,5.0,1.75,2.25,0.2,0.14,0.95,861.13,-1.4,0.4
0.74,0.0,0.0,1.75,2.25,0.0,0.0,0.5,0.0,0.75,1.5,0.5,0.0,0.25,-0.42,0.08,1.77,55.48,14.1,6.2,2.0,2.5,5.0,5.75,7.75,6.0,1.25,7.25,2.0,5.75,4.0,1.75,1.75,0.2,0.14,0.95,827.8,-1.9,5.9
0.76,0.0,0.0,2.0,2.5,0.0,0.0,0.5,0.0,0.75,1.5,0.75,0.0,0.5,-0.98,-0.3,2.27,0.07,14.0,3.6,2.75,2.5,5.0,6.25,7.75,6.0,1.25,7.25,1.75,5.75,3.75,1.75,1.5,0.2,0.14,0.89,818.53,-2.5,8.7
0.78,0.0,0.0,2.0,2.0,0.0,0.0,0.5,0.0,0.75,1.5,0.75,0.25,0.5,-0.55,-0.55,1.2,0.0,13.6,-3.3,2.75,2.75,5.0,6.25,8.0,6.25,1.25,7.25,1.5,5.0,3.75,1.5,1.25,0.2,0.14,0.95,813.2,-2.6,12.1
0.8,0.0,0.0,0.0,1.75,0.0,0.0,0.5,0.0,0.75,1.5,0.75,0.75,0.5,-0.48,-0.36,0.58,0.0,5.1,-35.3,2.75,2.75,5.0,7.25,8.25,6.5,1.25,7.25,1.5,4.5,2.75,1.25,0.75,0.2,0.14,0.95,810.44,-2.9,17.6
0.82,0.0,0.0,0.0,1.75,0.0,0.0,0.5,0.0,0.75,1.5,0.75,0.5,0.5,-0.42,-0.3,0.33,1.77,4.9,-32.2,2.25,3.0,6.25,8.0,9.0,7.0,1.25,7.25,1.75,4.75,2.75,1.0,0.5,0.2,0.14,0.95,830.21,-3.4,20.0
0.84,0.0,0.0,0.0,1.25,0.0,0.0,0.5,0.0,0.75,1.5,0.75,0.75,0.5,-0.23,-0.3,0.45,7.85,4.0,-43.7,4.0,3.5,6.5,8.25,9.0,7.0,1.25,7.25,1.5,3.5,2.0,1.0,0.5,0.2,0.14,0.95,859.1,-4.9,27.0
0.86,0.0,0.0,1.0,1.25,0.0,0.0,0.5,0.0,0.75,1.0,0.75,0.25,0.5,-0.3,-0.36,0.77,19.84,11.3,-16.8,4.25,4.25,7.25,9.75,9.0,7.0,1.25,6.5,1.0,3.25,1.5,0.75,0.5,0.2,0.14,0.95,900.1,-6.2,33.0
0.88,0.0,0.0,1.25,1.0,0.0,0.0,0.5,0.0,0.75,1.5,0.0,0.5,0.5,-0.23,-0.3,0.89,43.39,9.9,-18.4,4.75,4.25,7.75,9.75,10.5,7.0,1.25,6.5,1.0,3.0,1.5,0.75,0.25,0.2,0.14,0.95,949.07,-6.6,35.4
0.9,0.0,0.0,0.5,1.0,0.0,0.0,0.5,0.0,0.75,1.5,0.5,0.0,0.5,-0.23,-0.11,0.77,45.02,5.7,-27.0,5.5,5.0,8.5,11.5,10.5,7.0,1.25,5.75,1.0,2.25,1.5,0.75,0.5,0.2,0.14,0.95,1015.37,-8.2,39.5
0.92,0.0,0.0,0.5,1.0,0.0,0.0,0.5,0.0,0.75,1.5,0.0,0.0,0.5,-0.23,0.02,0.77,56.49,5.2,-21.9,6.0,5.5,8.75,11.5,10.5,6.75,1.25,5.5,0.25,1.5,1.5,0.25,0.0,0.2,0.14,0.95,1055.45,-9.2,45.8
0.94,0.0,0.0,0.5,1.0,0.0,0.0,0.5,0.0,0.75,1.5,0.0,0.0,0.5,-0.11,0.08,1.02,62.36,5.2,-21.9,5.75,4.75,9.25,11.0,11.5,6.0,0.75,4.5,0.25,0.0,0.75,0.25,0.0,0.14,0.14,1.02,1052.46,-10.4,51.5
0.96,0.0,0.0,0.5,1.0,0.0,0.0,0.5,0.0,0.75,1.5,0.0,0.0,0.5,-0.23,0.14,1.27,66.69,5.2,-21.9,7.25,4.25,9.0,12.0,10.5,6.0,0.25,3.25,0.25,0.5,0.25,0.25,0.0,0.14,0.2,1.08,1026.68,-11.5,54.4
0.98,0.0,0.0,0.75,1.0,0.0,0.0,0.5,0.0,0.75,1.5,0.0,0.25,0.5,-0.36,0.39,1.83,62.75,7.1,-22.0,7.75,6.25,10.5,13.0,11.5,5.0,0.5,3.25,0.25,0.0,0.5,0.25,0.0,0.08,0.2,1.08,1041.75,-13.1,57.3
1.0,0.0,0.0,0.75,0.75,0.0,0.0,0.5,0.0,0.75,1.5,0.0,0.0,0.25,-0.3,0.7,2.33,61.65,7.6,-16.5,7.5,6.0,9.25,11.5,10.5,3.75,0.0,3.25,0.25,0.0,0.0,0.0,0.0,0.14,0.27,1.08,1007.8,-13.3,59.5
1.02,0.0,0.0,0.75,1.0,0.0,0.0,0.5,0.0,0.75,1.5,0.0,0.0,0.5,-0.23,1.33,2.52,65.11,7.0,-17.4,7.25,5.75,10.0,11.5,9.5,2.5,0.0,1.75,0.25,0.0,0.0,0.0,0.0,0.14,0.33,1.14,957.93,-15.8,62.8
1.04,0.0,0.0,0.5,1.0,0.0,0.0,0.5,0.0,0.75,1.5,0.5,0.75,0.5,-0.05,2.02,2.27,72.93,6.1,-37.7,7.5,5.0,10.5,9.75,9.0,2.5,0.0,1.5,0.25,0.0,0.0,0.0,0.0,0.14,0.33,1.14,879.51,-16.5,63.2
1.06,0.0,0.0,1.0,0.75,0.0,0.0,0.5,0.0,0.75,0.25,0.0,0.0,0.5,0.33,3.02,1.83,68.62,16.5,3.0,7.25,3.75,10.0,9.75,9.0,1.75,0.25,0.5,0.0,0.0,0.0,0.0,0.0,0.2,0.39,1.2,788.42,-17.7,65.2
1.08,0.0,0.0,0.25,0.75,0.0,0.0,0.25,0.0,0.5,0.0,0.0,0.0,0.0,0.7,4.27,0.08,53.97,20.0,27.4,7.25,5.0,9.25,8.25,8.0,1.25,0.25,0.25,0.0,0.0,0.0,0.0,0.0,0.27,0.45,1.33,698.72,-18.5,68.0
1.1,0.0,0.0,0.25,1.0,0.0,0.0,0.25,0.0,0.75,1.5,0.0,0.0,0.0,1.39,4.83,-0.05,48.58,4.6,-16.9,6.0,3.0,8.5,6.25,6.25,0.75,0.25,0.25,0.0,0.0,0.0,0.0,0.0,0.27,0.52,1.58,579.89,-19.8,67.2
1.12,0.0,0.0,0.0,0.75,0.0,0.0,0.0,0.0,0.75,1.5,0.0,0.0,0.5,2.64,5.45,1.77,46.25,-2.2,-43.1,3.5,1.25,6.25,4.0,5.25,0.0,0.25,0.25,0.0,0.0,0.0,0.0,0.0,0.2,0.95,2.14,425.61,-19.8,64.7
1.14,0.0,0.0,1.0,0.0,0.0,0.0,0.5,0.0,0.25,1.0,0.0,0.0,0.0,-0.67,-0.55,2.58,43.15,13.7,-6.2,3.0,1.25,5.0,2.25,3.75,1.25,0.25,1.0,0.25,0.0,0.25,0.0,0.0,0.27,1.39,2.39,305.62,-16.1,56.6
1.16,0.0,0.0,0.25,0.0,0.0,0.0,0.25,1.75,0.0,1.5,0.5,0.75,0.25,0.08,0.02,0.58,55.74,-6.0,-60.4,2.25,1.25,2.25,0.75,3.5,0.0,0.5,1.75,0.0,0.0,0.5,0.0,0.0,0.02,0.58,1.95,213.2,-12.4,49.0
1.18,0.0,0.0,0.25,0.0,0.0,0.0,0.0,1.5,0.0,1.75,1.25,1.0,0.5,0.27,0.14,1.83,73.96,-4.4,-69.3,0.5,0.0,0.75,0.25,3.5,0.0,0.0,0.25,0.0,0.0,0.0,0.0,0.0,0.2,-0.05,1.7,107.09,-5.6,54.2
1.2,0.0,0.0,0.0,0.0,0.0,0.0,0.0,2.5,0.0,3.25,2.25,0.75,1.75,-0.3,0.39,1.52,114.08,-8.3,-75.1,0.5,0.0,0.0,2.0,0.0,0.25,0.0,0.25,0.25,0.0,0.0,0.25,0.0,0.45,-0.3,1.2,6.88,-13.5,36.2
1.22,0.0,0.25,0.0,0.0,0.0,0.0,0.25,4.75,0.0,3.75,0.0,2.0,1.75,-0.11,0.45,2.02,155.67,-10.9,-67.5,1.5,0.0,0.75,1.75,3.5,0.0,0.25,1.75,0.25,0.0,0.5,0.0,0.0,0.64,-0.98,1.58,0.0,-7.4,37.2
1.24,0.0,0.25,0.0,0.0,0.0,0.0,0.75,4.5,0.75,5.0,5.0,3.0,4.0,-0.17,0.14,1.02,236.65,-4.7,-74.1,0.25,0.0,0.0,0.5,0.0,0.0,0.25,0.75,0.75,0.0,0.0,0.0,0.0,0.52,-0.8,1.08,0.0,-7.3,-0.4
1.26,0.0,0.5,0.0,0.5,0.0,0.0,0.75,5.0,1.75,6.5,6.0,4.25,4.5,-0.17,0.08,1.02,319.99,-3.4,-70.7,0.25,0.0,0.0,0.0,0.0,0.0,2.25,1.75,1.25,0.0,0.5,0.0,0.0,0.27,-0.61,0.77,0.0,-7.1,-20.8
1.28,0.0,1.0,0.0,1.0,0.0,0.0,1.0,5.5,3.25,6.75,6.75,5.0,5.5,-0.17,0.02,0.95,435.64,-2.1,-66.3,1.25,0.5,0.0,0.5,1.0,0.0,0.25,1.75,0.25,0.0,0.5,0.25,0.0,0.14,-0.36,0.7,0.0,-6.0,19.2
1.3,0.0,1.25,0.0,2.0,0.0,1.0,1.0,6.25,3.5,7.5,7.25,5.5,6.0,-0.17,0.02,0.95,565.65,-2.3,-60.4,1.25,0.0,0.0,0.0,1.0,0.0,0.5,1.75,0.0,0.0,0.5,0.0,0.0,0.2,-0.23,0.7,0.0,-4.2,16.3
1.32,0.0,1.25,1.75,2.0,0.0,0.75,1.0,6.5,4.25,7.5,7.5,5.5,6.0,-0.11,0.02,0.95,675.3,-0.2,-55.4,0.75,0.0,0.0,1.25,0.0,0.0,1.5,2.5,0.25,0.0,0.5,0.0,0.0,0.2,-0.05,0.77,1.82,-6.1,3.5
1.34,0.0,1.5,1.0,2.0,0.0,1.25,1.25,6.5,4.5,7.5,7.5,5.5,6.0,-0.17,0.02,0.95,743.51,-0.9,-55.3,0.0,0.0,0.0,0.0,0.0,0.0,0.0,0.0,0.5,0.0,0.0,0.0,0.0,0.2,0.08,0.77,3.0,-12.1,-38.5
1.36,0.0,1.5,2.0,2.5,0.0,1.5,1.25,6.75,4.75,7.5,7.5,5.5,6.0,-0.17,-0.05,0.95,790.82,0.0,-50.8,1.25,0.0,0.0,0.5,0.0,0.0,0.0,0.0,0.25,0.0,0.0,0.0,0.0,0.14,0.14,0.95,10.45,-27.2,69.7
1.38,0.0,1.5,2.25,2.75,0.0,1.75,1.5,6.75,4.75,7.0,7.5,5.25,6.0,-0.17,-0.05,0.95,811.03,0.3,-48.3,0.0,0.0,0.0,0.0,0.0,0.0,0.0,0.0,0.0,0.0,0.0,0.0,0.0,0.08,0.2,1.2,0.0,0.0,0.0
1.4,0.0,1.5,2.25,3.0,4.25,1.75,1.5,6.75,4.75,6.75,7.25,4.75,5.5,-0.17,-0.05,0.95,824.99,0.1,-36.2,0.0,0.0,0.0,0.0,0.0,0.0,0.0,0.0,0.0,0.0,0.0,0.0,0.0,0.14,0.39,1.52,0.0,0.0,0.0
1.42,0.0,1.5,2.25,3.0,0.0,1.75,1.5,6.5,4.75,6.75,7.0,4.5,5.25,-0.17,-0.05,0.95,793.31,0.6,-45.2,0.0,0.0,0.0,0.0,0.0,0.0,0.0,0.0,0.0,0.0,0.0,0.0,0.0,0.2,0.52,1.64,0.0,0.0,0.0
1.44,0.0,1.5,2.5,3.0,5.25,1.75,1.5,6.5,4.75,6.0,6.75,4.0,4.5,-0.11,0.02,0.95,769.19,0.7,-29.8,1.25,0.25,0.0,1.25,0.0,0.0,0.0,0.0,0.0,0.0,0.0,0.0,0.0,0.33,0.95,1.77,1.5,-24.3,78.8
1.46,0.0,1.5,2.25,3.0,4.25,1.75,1.5,6.5,4.25,6.0,6.0,4.0,4.25,-0.11,0.02,0.95,719.51,0.3,-31.1,0.0,0.0,0.0,0.0,1.75,0.0,0.5,2.25,0.0,0.0,0.0,0.0,0.0,0.33,1.14,2.2,21.45,8.1,6.1
1.48,0.0,1.5,2.5,3.0,5.5,2.0,1.5,6.25,4.25,5.75,6.0,3.0,3.5,-0.17,0.02,0.95,674.15,0.6,-24.1,0.75,0.0,0.0,0.5,1.75,0.0,0.25,1.5,0.25,0.0,0.5,0.25,0.0,0.33,1.27,2.45,57.06,-2.7,13.5
1.5,0.0,1.5,2.75,4.25,6.0,2.0,1.5,6.25,4.0,5.0,5.5,3.0,3.0,-0.17,0.02,0.95,641.51,1.5,-17.8,0.0,0.0,0.0,0.0,2.25,0.0,0.25,1.5,0.0,0.0,0.5,0.0,0.0,0.14,1.64,2.08,70.14,5.2,10.1
1.52,0.0,1.5,3.25,4.75,6.25,2.25,1.25,6.25,3.75,4.75,4.75,2.5,2.75,-0.17,0.02,0.95,623.41,1.7,-12.4,0.0,0.0,0.0,0.0,0.0,0.0,0.0,0.0,0.0,0.0,0.0,0.0,0.0,-0.42,2.2,1.58,52.94,0.0,0.0
1.54,0.0,1.5,3.75,5.25,7.0,2.75,1.5,6.25,3.5,4.75,4.25,2.0,2.25,-0.17,0.02,0.95,619.87,2.0,-5.9,1.0,0.0,0.0,0.0,1.0,0.0,0.0,0.0,0.5,0.0,0.0,0.0,0.0,-0.92,3.52,0.52,47.39,-13.4,51.9
1.56,0.5,1.75,3.75,6.75,7.5,3.0,1.5,6.0,3.5,3.75,3.5,2.0,1.75,-0.11,0.02,0.95,630.55,3.2,2.8,0.75,0.0,0.0,0.5,2.25,0.0,0.25,1.75,0.0,0.0,0.5,0.25,0.0,-1.67,5.14,-0.3,61.9,-1.0,17.0
1.58,0.5,3.0,3.75,6.75,7.75,3.0,1.5,6.25,3.25,3.5,3.25,1.75,1.5,-0.17,0.02,0.95,650.12,3.4,7.8,1.0,0.25,0.0,0.5,0.5,0.0,1.75,2.0,0.5,0.0,1.0,0.0,0.0,-1.92,3.33,0.33,86.12,-8.0,4.7
1.6,1.25,3.0,4.75,7.75,8.0,3.5,1.5,6.0,2.75,3.25,3.0,1.75,1.5,-0.17,0.02,0.95,682.56,4.7,13.4,0.5,0.0,0.0,0.0,1.0,1.5,0.0,0.0,0.25,1.5,0.25,0.25,0.0,0.2,-0.8,1.45,96.01,6.7,-2.3
1.62,2.25,3.25,5.5,8.25,8.5,4.0,1.5,6.0,2.75,3.25,2.5,1.5,1.5,-0.17,0.02,0.95,733.63,5.5,18.6,0.0,0.0,0.0,0.0,0.0,0.0,0.0,0.25,0.0,1.75,0.5,3.0,0.0,0.33,-0.11,0.45,105.84,0.0,-92.5
1.64,3.0,4.0,5.5,9.25,8.75,4.25,1.5,5.5,2.5,2.5,2.25,1.0,1.25,-0.17,0.08,0.95,785.62,6.6,26.4,0.75,0.0,0.0,0.25,1.5,0.0,0.25,1.5,0.0,4.5,3.0,4.0,4.5,0.02,0.08,1.83,179.46,3.2,-68.0
1.66,4.25,4.5,6.5,10.5,9.25,4.25,1.5,5.25,1.75,2.25,1.75,0.75,1.0,-0.11,0.08,0.95,850.41,8.2,34.1,0.75,0.0,0.0,0.5,0.0,0.0,0.0,1.5,0.25,7.5,4.25,5.5,5.75,-0.05,0.33,2.02,265.67,3.6,-80.7
1.68,5.5,5.0,7.25,10.5,9.5,4.25,1.25,4.75,1.5,1.75,1.75,0.75,0.75,-0.17,0.08,1.02,905.04,9.6,39.2,0.5,0.0,0.0,0.5,2.5,0.5,0.25,3.25,0.75,7.75,7.25,5.75,7.0,0.14,0.39,1.95,389.97,3.6,-67.4
1.7,6.25,5.5,7.25,11.5,10.5,4.25,1.0,4.5,1.5,1.75,1.5,0.75,0.5,-0.17,0.14,1.02,969.81,10.0,42.5,0.25,0.0,0.0,0.5,3.0,1.0,0.0,4.75,0.5,8.5,7.25,5.75,7.0,0.08,0.2,1.27,527.83,5.0,-64.9
1.72,7.0,5.5,7.75,11.5,10.0,3.5,0.75,3.75,1.25,1.75,1.5,0.5,0.5,-0.17,0.14,1.08,1002.7,11.4,45.5,1.25,0.5,0.0,0.75,0.0,1.25,0.0,5.5,1.5,9.0,7.75,6.0,6.0,0.14,0.2,1.08,637.11,3.3,-66.1
1.74,7.5,6.0,8.0,12.0,0.0,3.0,0.75,3.75,0.75,1.5,1.5,0.75,0.5,-0.23,0.14,1.14,935.5,16.1,45.7,1.5,1.0,0.0,1.75,3.5,2.5,1.0,7.25,1.75,9.25,8.75,6.0,7.0,0.14,0.14,1.02,759.44,3.1,-48.5
1.76,8.0,6.5,7.75,12.0,0.0,2.25,0.5,3.25,0.25,1.75,1.5,0.75,0.5,-0.3,0.2,1.2,853.94,16.9,48.2,1.25,1.0,2.0,1.75,3.5,2.5,1.25,7.5,2.75,9.5,9.25,6.0,7.0,0.14,0.14,1.02,873.38,1.3,-45.0
1.78,8.25,6.5,8.25,11.5,0.0,0.0,0.25,2.5,0.0,1.5,1.25,0.75,0.5,-0.3,0.2,1.27,751.91,20.1,52.8,1.25,1.0,2.0,2.0,3.75,2.5,1.25,7.75,3.0,9.5,9.25,6.0,6.75,0.14,0.08,0.95,961.11,1.2,-43.6
1.8,8.5,6.25,8.25,11.0,0.0,0.0,0.25,2.25,0.5,1.5,1.5,0.75,0.5,-0.3,0.27,1.33,684.23,20.4,51.4,2.5,1.0,2.5,2.0,3.75,3.75,1.25,8.5,3.5,9.0,9.0,5.5,6.75,0.2,0.08,0.95,1022.49,0.7,-37.3
1.82,7.75,6.0,8.25,9.5,0.0,0.0,0.25,2.0,0.75,1.5,0.25,0.5,0.25,-0.42,0.33,1.52,611.31,21.1,56.3,2.25,1.25,2.75,2.75,5.25,4.25,1.75,8.25,3.5,8.5,8.5,5.5,5.75,0.2,0.08,0.95,1054.57,0.1,-30.2
1.84,6.75,4.0,7.25,7.5,0.0,0.0,0.5,2.0,0.75,1.0,1.0,0.0,0.25,-0.48,0.39,1.64,524.49,21.5,53.5,2.5,1.75,4.0,3.75,5.5,4.75,1.75,8.0,3.25,8.0,8.0,4.25,4.75,0.2,0.08,0.95,1055.14,-1.1,-20.3
1.86,4.5,0.0,6.5,6.75,0.0,0.0,0.5,0.0,0.75,1.5,1.0,0.25,0.5,-0.55,0.7,2.39,397.12,23.6,42.2,2.5,2.0,4.75,4.0,6.25,4.75,1.75,7.75,2.75,7.25,7.25,3.25,3.25,0.2,0.08,0.95,1020.28,-2.0,-11.6
1.88,0.0,0.0,3.75,3.0,0.0,0.0,0.75,0.0,0.75,1.5,0.75,0.0,0.5,-0.55,1.27,2.77,265.64,18.4,16.0,2.75,2.0,5.0,4.5,6.25,4.75,1.75,7.5,2.5,6.75,6.5,3.0,2.75,0.2,0.08,0.95,968.53,-2.6,-7.2
1.9,0.0,0.0,2.0,1.5,0.0,0.0,0.5,0.0,0.75,1.5,1.0,0.25,0.5,-0.42,0.45,2.33,146.87,13.3,-9.6,2.75,2.25,5.0,4.75,6.25,5.0,1.25,7.25,2.25,5.75,5.5,2.25,2.25,0.2,0.08,0.95,907.37,-2.8,-1.0
1.92,0.0,0.0,1.25,0.75,0.0,0.0,0.5,0.0,0.0,0.0,1.0,0.0,0.5,-0.48,-0.36,1.7,27.54,19.4,0.2,3.0,2.75,5.5,5.75,6.25,5.25,1.25,7.0,2.0,5.0,4.0,1.75,1.5,0.2,0.08,0.95,852.16,-3.9,8.6
1.94,0.0,0.0,0.0,0.75,0.0,0.0,0.25,0.0,0.0,1.25,0.75,0.0,0.5,-0.86,-1.05,2.7,0.0,-0.4,-46.2,4.0,2.5,6.5,6.25,7.25,5.75,1.25,6.5,1.75,4.5,3.75,1.5,1.0,0.2,0.14,0.95,828.83,-5.2,16.0
1.96,0.0,0.0,0.0,0.75,0.0,0.0,0.25,0.5,0.0,0.25,0.0,0.0,0.0,-0.55,-1.17,1.2,0.0,3.0,6.3,4.5,2.75,6.75,6.25,7.75,5.75,1.25,6.5,1.5,3.25,2.75,1.0,0.75,0.2,0.14,0.95,809.05,-6.0,23.9
1.98,0.0,0.0,0.0,0.0,0.0,0.0,2.25,0.0,0.0,0.0,1.25,0.0,0.0,-0.55,-0.8,0.27,0.0,20.9,-27.0,4.5,2.75,7.5,6.75,7.75,5.75,1.25,5.75,1.5,3.25,2.5,1.0,0.5,0.2,0.14,0.95,795.58,-7.1,26.9
2.0,0.0,0.0,0.0,1.0,0.0,0.0,0.0,0.75,1.75,0.0,0.0,0.0,0.25,-0.36,-0.73,0.52,0.0,6.0,-16.7,5.0,3.0,7.75,8.0,8.0,5.75,1.0,5.5,1.5,3.0,1.5,0.75,0.0,0.2,0.14,0.95,796.7,-8.0,33.8
2.02,0.0,0.0,0.0,0.75,0.0,0.0,0.25,0.5,0.0,0.0,0.0,0.0,0.0,-0.23,-0.61,0.77,0.0,6.4,20.9,5.75,3.25,8.5,8.0,8.0,5.5,1.25,5.5,1.25,2.25,1.5,0.75,0.0,0.2,0.14,0.95,808.54,-9.3,37.3
2.04,0.0,0.0,0.0,0.75,0.0,0.0,0.25,0.5,0.0,0.0,0.0,0.0,0.0,-0.23,-0.55,1.2,0.0,6.4,20.9,6.5,3.5,8.75,8.5,8.0,4.75,1.25,4.75,1.0,1.75,1.5,0.75,0.0,0.14,0.14,0.95,816.78,-11.0,41.3
2.06,0.0,0.0,0.0,0.75,0.0,0.0,0.25,0.5,0.0,0.0,0.0,0.0,0.0,-0.23,-0.23,1.14,0.0,6.4,20.9,7.25,3.5,9.25,8.75,8.0,4.75,1.25,4.5,1.0,1.5,1.5,0.75,0.0,0.14,0.14,0.95,835.44,-11.9,43.3
2.08,0.0,0.0,0.0,0.75,0.0,0.0,0.25,0.5,0.75,1.5,0.0,0.0,0.0,-0.3,0.02,1.02,0.0,-1.5,-30.8,7.0,2.75,9.25,8.0,7.0,2.5,1.0,3.25,0.75,0.0,0.5,0.25,0.0,0.14,0.14,0.95,784.05,-15.6,53.4
2.1,0.0,0.0,0.0,0.75,0.0,0.0,0.25,0.5,0.5,0.0,0.0,0.0,0.0,-0.3,0.2,1.2,1.74,7.9,5.4,7.25,3.0,9.5,8.25,6.25,2.0,0.75,3.25,0.25,0.0,0.5,0.5,0.0,0.08,0.14,0.89,731.75,-16.6,54.4
2.12,0.0,0.0,0.0,1.0,0.0,0.0,0.25,0.5,0.75,1.75,0.0,0.0,0.0,-0.23,0.27,1.58,33.0,-1.1,-27.9,7.75,2.5,10.5,8.25,6.25,2.5,1.0,3.25,0.75,0.0,0.25,0.25,0.0,0.08,0.14,0.95,691.2,-17.0,54.8
2.14,0.25,0.0,0.0,1.0,0.0,0.0,0.5,1.75,0.75,1.5,0.75,0.0,0.5,-0.42,0.39,2.27,61.92,-1.3,-34.2,8.25,2.5,11.5,7.25,6.25,1.75,0.75,3.25,0.25,0.0,0.5,0.25,0.0,0.08,0.14,0.95,671.26,-18.3,56.1
2.16,0.0,0.0,0.0,0.0,0.0,0.0,0.25,1.5,0.25,0.0,0.5,0.0,0.5,-0.61,0.7,2.33,67.81,-7.0,-54.9,8.25,2.25,11.5,7.0,5.75,0.75,0.75,2.5,0.0,0.0,0.0,0.25,0.0,0.02,0.2,0.95,638.31,-20.4,60.4
2.18,0.0,0.0,0.0,1.0,0.0,0.0,0.25,2.0,1.0,1.5,0.0,0.75,0.5,-0.8,1.14,2.33,86.74,-3.4,-43.8,9.0,2.5,12.0,6.75,5.25,2.0,0.25,2.0,0.25,0.0,0.5,0.25,0.0,-0.05,0.14,1.08,627.68,-20.2,59.8
2.2,0.0,0.0,0.0,1.0,0.0,0.0,0.25,0.5,0.25,0.0,0.0,0.0,0.25,-0.86,1.39,2.27,74.47,5.9,3.1,9.0,1.75,14.0,8.25,5.5,0.75,0.25,2.0,0.25,0.0,0.0,0.0,0.0,0.02,0.2,1.08,629.97,-22.3,62.3
2.22,0.0,0.0,0.0,1.0,0.0,0.0,0.25,0.5,0.75,1.5,0.0,0.25,0.0,-0.73,1.64,2.14,73.29,0.2,-29.9,9.0,1.0,13.5,6.0,5.0,0.0,0.0,1.75,0.25,0.0,0.75,0.25,0.0,0.08,0.27,1.27,605.81,-23.7,59.5
2.24,0.0,0.0,0.0,0.0,0.0,0.0,0.0,0.5,0.25,0.0,0.0,0.0,0.0,-0.67,1.77,1.64,47.84,-7.2,-38.7,9.75,1.5,11.5,6.25,2.5,0.0,0.0,1.75,0.25,0.0,0.0,0.25,0.0,0.27,0.39,1.64,560.43,-25.4,64.2
2.26,0.0,0.0,0.0,1.0,0.0,0.0,0.25,0.5,0.0,0.0,0.0,0.0,0.0,-0.67,1.7,1.27,40.48,8.1,26.7,9.25,1.25,11.5,4.5,3.0,0.0,0.25,1.75,0.25,1.25,0.25,0.5,0.0,0.52,0.45,1.89,517.18,-23.6,56.1
2.28,0.0,0.0,0.0,0.0,0.0,0.0,0.25,0.5,0.25,0.0,0.0,0.25,0.0,-1.67,2.08,-0.17,24.3,0.6,-47.4,8.25,0.0,9.5,3.5,2.75,0.0,0.5,0.25,0.25,0.0,0.5,0.25,0.0,0.58,0.45,1.83,437.29,-27.5,64.2
2.3,0.0,0.0,0.0,0.0,0.0,0.0,0.25,0.0,0.25,0.0,0.0,0.0,0.0,-0.8,2.58,-0.3,13.51,18.8,-17.0,4.75,0.0,7.5,1.5,0.0,0.0,0.25,0.25,0.0,0.0,0.0,0.25,0.0,0.7,0.58,2.02,325.63,-33.4,67.0
2.32,0.0,0.0,0.0,0.0,0.0,0.0,0.5,1.75,0.75,1.5,0.5,0.75,0.5,0.14,2.95,0.45,36.07,-5.2,-63.3,2.0,0.0,5.75,1.75,1.75,0.0,0.25,1.5,0.25,1.0,0.25,0.25,0.0,0.45,0.45,1.45,252.81,-19.1,38.1
2.34,0.0,0.0,0.0,0.0,0.0,0.0,0.5,1.25,0.25,0.5,0.25,0.0,0.0,-0.3,1.7,0.27,40.21,-6.2,-43.3,1.5,0.0,0.0,1.25,0.0,0.0,0.0,0.25,0.25,0.25,0.0,0.25,0.0,1.77,-2.36,1.64,137.67,-18.5,39.8
2.36,0.0,0.0,0.0,1.0,0.0,0.0,0.25,0.5,0.75,1.5,0.0,0.5,0.0,0.77,0.7,0.77,53.88,0.7,-34.4,1.5,0.25,2.25,1.75,2.75,0.0,0.5,1.5,0.25,0.75,0.5,0.25,0.0,1.02,-0.8,0.27,91.57,-11.4,32.0
2.38,0.0,0.25,0.75,0.75,0.0,0.0,0.5,2.0,0.25,0.0,0.75,0.0,0.25,-0.23,0.08,0.58,62.6,5.2,-8.6,1.5,0.5,2.25,1.75,2.5,0.0,0.5,1.75,0.25,0.25,0.5,0.25,0.0,0.77,-0.55,-0.05,70.02,-12.4,35.8
2.4,0.0,0.5,0.0,0.75,0.0,0.0,0.0,0.75,0.75,1.5,0.0,0.5,0.25,-1.3,-0.67,0.45,74.94,-1.2,-31.1,1.5,0.25,2.0,1.75,3.0,0.0,0.25,1.5,0.25,0.5,0.25,0.25,0.0,0.33,-0.42,0.27,85.92,-10.9,36.4
2.42,0.0,0.0,0.5,1.0,0.0,0.0,0.5,2.0,0.25,1.25,0.75,0.0,0.5,0.58,-0.55,-0.36,84.63,-0.6,-29.7,2.0,1.0,2.0,1.5,3.25,1.0,0.5,1.5,0.25,0.25,0.25,0.0,0.0,-0.17,-0.05,0.08,103.69,-9.8,46.4
2.44,0.0,0.5,0.5,0.5,0.0,0.0,0.25,0.0,0.0,5.5,1.25,0.0,2.5,-0.05,-2.67,-2.61,124.42,-6.3,-61.4,0.25,0.0,0.0,0.0,1.0,0.0,0.5,3.0,0.0,0.0,0.25,0.0,0.0,-0.67,0.14,-0.17,78.79,7.3,-8.8
2.46,0.0,0.25,0.0,0.0,0.0,0.0,0.25,4.75,0.0,6.25,6.0,3.0,4.25,-1.8,1.45,6.89,221.73,-5.7,-76.3,1.5,1.0,0.0,2.0,2.5,0.0,0.25,0.0,0.0,0.5,0.0,0.25,0.0,-1.05,0.2,-0.17,77.07,-10.4,54.7
2.48,0.0,0.5,0.0,0.0,0.0,0.0,0.5,5.0,0.5,6.0,5.5,3.0,4.0,0.45,0.33,1.39,295.24,-5.2,-72.5,0.5,0.0,2.75,2.0,3.25,0.0,0.25,1.75,0.25,0.0,0.0,0.25,0.0,-2.3,7.27,-3.67,89.34,-11.1,38.1
2.5,0.0,0.75,0.0,0.25,0.0,0.0,0.25,5.5,0.0,5.5,4.5,2.0,3.5,-0.42,0.08,0.89,349.04,-6.5,-66.8,3.0,0.75,2.5,2.0,3.25,0.0,0.75,1.5,0.25,0.0,0.25,0.0,0.0,-0.23,-0.48,-0.98,137.25,-15.4,52.5
2.52,0.0,0.25,0.25,0.75,0.0,0.0,0.5,5.5,0.75,6.0,3.0,2.0,3.0,-0.17,0.14,1.02,366.63,-6.2,-63.3,4.25,1.0,5.0,2.0,1.5,0.0,0.0,1.5,0.25,0.5,0.75,0.25,0.0,-1.17,-0.11,2.52,193.79,-20.8,48.3
2.54,0.0,0.0,0.5,0.0,0.0,0.0,0.25,6.0,1.25,6.0,4.5,0.0,3.0,-0.23,0.08,0.89,362.49,-7.1,-64.1,4.75,1.0,6.5,1.75,2.75,0.0,0.0,0.25,0.25,1.5,0.0,0.5,0.0,0.02,0.52,0.52,249.66,-21.6,52.5
2.56,0.0,1.25,0.25,2.75,0.0,0.0,0.75,6.25,1.5,4.75,3.5,1.5,2.75,-0.23,0.02,0.95,359.83,-2.5,-42.8,5.5,1.0,6.75,1.75,1.25,0.25,0.25,1.75,0.25,1.0,0.5,0.5,0.0,-0.36,0.08,0.58,283.24,-21.7,47.2
2.58,0.0,0.5,2.0,2.75,0.0,3.75,0.75,6.0,1.5,3.5,2.75,1.5,1.5,-0.36,0.02,0.95,365.7,-1.9,-23.6,6.0,1.0,6.75,2.0,1.75,0.5,0.5,1.75,0.25,1.0,0.75,0.5,0.0,-0.73,-0.05,0.95,314.87,-20.8,47.0
2.6,0.0,1.5,2.0,3.0,0.0,4.75,0.75,5.75,1.0,3.0,1.75,0.0,1.5,-0.11,0.08,1.02,367.08,-2.9,-6.5,6.0,1.0,5.75,1.5,2.5,0.5,0.75,1.75,0.25,0.75,0.5,0.75,0.0,-0.48,0.27,0.95,326.68,-19.5,47.2
2.62,0.0,1.5,1.0,3.0,0.0,0.0,0.5,5.0,1.0,2.5,1.5,0.75,0.75,-0.3,0.08,1.14,327.71,1.2,-16.8,6.0,0.5,5.5,1.5,2.5,0.25,1.0,1.75,0.25,1.5,0.5,0.75,0.0,-0.48,0.2,0.95,336.12,-18.8,41.6
2.64,0.0,1.25,1.5,3.0,0.0,0.0,0.5,4.5,0.75,2.0,1.0,0.75,0.75,-0.36,0.14,1.08,285.35,2.8,-11.5,5.75,0.25,5.75,1.25,2.5,0.25,1.25,1.75,0.25,1.25,0.25,0.75,0.0,-0.55,0.14,0.89,333.71,-19.5,43.0
2.66,0.0,2.0,1.25,3.75,0.0,0.0,0.5,4.0,0.75,1.75,0.75,0.75,0.5,-0.3,0.2,0.83,247.91,4.5,0.4,5.75,0.0,4.5,1.25,1.75,0.0,1.25,1.5,0.25,1.5,0.25,0.75,0.0,-0.67,0.14,0.77,315.97,-20.0,40.0
2.68,0.0,2.5,0.5,4.75,0.0,0.0,0.25,3.75,0.75,1.75,0.75,0.75,0.5,-0.11,0.2,0.77,222.49,4.1,4.7,5.75,0.0,3.75,0.75,1.25,0.0,1.25,1.25,0.25,1.5,0.5,0.5,0.0,-0.73,0.08,0.77,291.95,-20.6,39.7
2.7,0.0,2.5,2.0,3.25,0.0,0.0,0.5,3.75,0.75,1.75,0.75,0.75,0.5,-0.55,0.27,0.95,208.26,6.2,5.1,5.5,0.0,3.75,0.5,1.0,0.0,1.75,0.5,0.25,1.0,0.5,0.75,0.0,-0.67,0.2,0.77,260.38,-24.1,43.5
2.72,0.0,1.5,2.0,3.0,0.0,0.0,0.25,3.75,0.75,1.75,0.0,0.0,0.5,-0.73,0.27,1.02,199.71,4.9,7.4,5.25,0.0,4.75,0.5,1.0,0.0,1.75,0.25,0.25,1.0,0.5,0.75,0.0,-0.42,0.45,0.89,237.35,-25.6,45.2
2.74,0.0,1.5,1.75,2.75,0.0,0.0,0.5,3.0,0.75,1.75,0.75,0.0,0.5,-0.61,0.33,0.83,189.6,5.8,3.6,4.25,0.25,2.25,0.5,1.0,0.0,2.0,0.25,0.25,0.75,0.75,0.5,0.0,-0.42,0.45,0.83,205.9,-22.8,41.9
2.76,0.0,1.5,1.5,2.75,0.0,0.0,0.5,2.25,0.75,1.5,0.0,0.5,0.25,-0.42,0.45,0.7,169.43,7.3,9.4,4.25,0.0,0.0,0.75,1.0,0.0,1.75,0.25,0.25,0.75,0.5,0.5,0.0,-0.8,0.14,0.64,170.05,-19.2,39.1
2.78,0.0,1.5,2.0,1.75,0.0,0.0,0.5,2.0,0.0,1.5,0.5,0.25,0.5,-0.8,0.58,0.64,150.67,7.7,7.6,3.0,0.25,0.0,0.5,0.5,0.0,1.25,0.0,0.25,1.5,0.75,0.5,0.0,-1.17,-0.05,0.45,131.06,-15.4,18.7
2.8,0.0,0.75,1.75,0.0,0.0,0.0,0.5,2.0,0.75,1.5,0.25,0.75,0.5,-1.8,1.39,0.45,125.78,4.7,-21.4,2.5,0.25,0.0,0.5,1.0,0.0,1.25,0.0,0.25,1.0,0.5,0.5,0.0,-1.36,-0.36,0.14,100.02,-14.9,26.2
2.82,0.0,0.5,0.0,0.5,0.0,0.0,0.25,2.0,0.0,0.0,0.0,0.25,0.0,-4.17,3.2,0.89,86.88,-3.5,-5.9,1.75,0.25,0.0,0.5,1.0,0.0,1.0,0.0,0.25,1.0,0.5,0.5,0.0,-1.3,-0.3,0.14,75.26,-12.4,18.2
2.84,0.0,0.25,0.0,0.0,0.0,0.0,2.75,2.75,0.0,1.5,1.0,0.25,0.0,-2.17,1.39,2.58,73.74,-1.5,-36.7,1.5,0.25,0.0,0.5,1.5,0.0,0.75,0.0,0.25,0.75,0.5,0.25,0.0,-1.11,-0.36,0.64,63.85,-10.9,27.5
2.86,0.0,0.5,0.5,0.0,0.0,0.0,0.25,2.0,0.0,1.5,0.75,0.0,0.5,3.89,-1.8,2.39,63.74,-4.4,-36.7,1.5,0.25,0.0,0.5,1.5,0.0,0.75,0.0,0.25,0.5,0.5,0.25,0.0,-0.67,-0.61,0.52,58.65,-12.1,32.0
2.88,0.0,0.25,0.0,0.0,0.0,0.0,0.0,0.75,0.0,0.0,0.0,0.0,0.0,4.02,-2.36,0.7,36.06,-9.2,-3.5,1.5,0.25,0.5,0.5,0.0,0.0,2.5,0.0,0.25,0.0,0.5,0.25,0.0,-2.05,-0.11,0.83,54.12,-26.7,37.7
2.9,0.0,0.0,0.0,0.0,0.0,0.0,0.0,0.5,0.0,0.0,0.0,0.0,0.0,1.14,-0.17,0.83,6.33,-16.7,-38.7,1.25,0.25,0.0,0.5,1.5,0.0,0.75,0.0,0.25,1.0,0.5,0.25,0.0,-1.98,-0.05,1.08,59.07,-8.9,20.5
2.92,0.0,0.0,0.0,0.0,0.0,0.0,0.0,4.0,0.0,0.0,0.0,0.0,0.0,-1.3,1.58,0.83,3.57,-16.7,-38.7,1.25,0.25,0.0,1.25,0.5,0.25,0.75,0.0,0.0,0.25,0.5,0.25,0.0,-1.55,0.2,1.2,59.45,-15.2,37.1
2.94,0.0,0.0,0.0,0.0,0.0,0.0,0.0,0.0,0.0,0.0,0.0,0.0,0.0,-3.3,1.77,-0.23,0.0,0.0,0.0,1.25,0.5,0.0,0.5,0.0,0.0,0.75,0.0,0.25,0.0,0.5,0.25,0.0,-1.11,0.33,0.83,54.21,-22.1,37.2
2.96,0.0,0.0,0.0,0.0,0.0,0.0,0.0,0.0,0.0,0.0,0.0,0.0,0.0,-3.42,1.89,-0.11,0.0,0.0,0.0,2.0,0.0,0.0,1.75,0.5,2.0,2.5,2.0,1.25,1.0,1.25,0.25,0.0,-0.67,0.02,0.95,98.25,-5.4,7.4
2.98,0.0,0.0,0.0,0.0,0.0,0.0,0.0,0.0,0.0,0.0,0.0,0.0,0.0,-2.67,1.83,0.2,0.0,0.0,0.0,1.5,0.0,0.0,0.0,0.5,0.0,1.5,2.0,0.25,0.25,1.0,0.25,0.0,-0.3,-0.17,1.02,107.5,-7.5,-2.8
3.0,0.0,0.25,0.0,0.0,0.0,0.0,1.5,3.75,1.75,0.0,0.5,0.0,0.0,-1.48,1.14,1.08,13.5,-1.4,-29.3,1.25,0.25,0.0,0.5,1.5,0.0,0.75,0.0,0.25,0.25,0.5,0.25,0.0,-0.3,-0.17,1.02,112.46,-12.4,34.2
3.02,0.0,0.0,0.0,0.0,0.0,0.0,1.75,0.5,0.0,0.0,0.0,0.0,0.0,-0.73,0.45,1.27,18.31,14.0,2.6,1.25,0.0,0.0,0.5,1.25,0.0,0.5,0.0,0.25,0.5,0.5,0.25,0.0,-0.42,-0.23,1.08,97.87,-11.4,24.1
3.04,0.0,0.0,0.0,0.0,0.0,0.0,0.0,0.0,0.0,0.0,0.0,0.0,0.0,-0.55,0.08,0.89,21.03,0.0,0.0,1.0,0.0,0.0,0.25,1.5,0.0,0.75,0.0,0.25,0.0,0.25,0.25,0.0,-0.55,-0.23,1.02,84.91,-12.6,38.2
3.06,0.0,0.0,0.0,0.0,0.0,0.0,0.0,4.5,0.0,0.0,0.75,0.0,0.0,-0.23,-0.17,0.83,38.61,-12.9,-43.9,0.75,0.25,0.0,0.25,0.5,0.0,0.75,0.0,0.25,0.25,0.5,0.5,0.0,-0.55,-0.3,1.08,67.43,-13.9,8.3
3.08,0.0,0.0,0.0,0.0,0.0,0.0,0.0,0.0,2.5,0.5,0.0,0.0,0.0,-0.23,-0.36,0.7,41.6,7.4,-44.8,1.25,0.25,0.0,0.0,1.5,0.25,0.75,0.0,0.25,0.5,0.5,0.25,0.0,-0.67,-0.17,0.83,69.05,-9.0,26.6
3.1,0.0,0.0,0.0,0.0,0.0,0.0,0.0,0.0,0.0,0.0,0.0,0.0,0.0,-0.11,-0.42,0.58,33.71,0.0,0.0,0.75,0.0,0.0,0.5,1.0,0.0,0.5,0.0,0.25,0.5,0.5,0.25,0.0,-0.8,-0.17,0.64,67.15,-9.7,13.7
3.12,0.0,0.0,0.0,0.0,0.0,0.0,0.0,0.0,0.0,0.0,0.0,0.0,0.0,0.14,-0.42,0.33,23.15,0.0,0.0,0.75,0.25,0.0,0.5,2.25,0.0,0.75,0.0,0.25,0.0,0.5,0.25,0.0,-0.73,-0.23,0.64,73.43,-9.2,36.9
3.14,0.0,0.0,0.0,0.0,0.0,0.0,0.0,0.0,0.0,0.0,0.0,0.0,0.0,0.08,-0.17,-0.17,9.94,0.0,0.0,0.75,0.0,0.0,0.5,1.0,0.0,0.5,0.0,0.25,0.25,0.25,0.25,0.0,-0.8,-0.23,0.64,66.64,-11.4,25.8
3.16,0.0,0.0,0.0,0.0,0.0,0.0,0.0,0.0,0.0,0.0,0.0,0.0,0.0,-0.36,0.08,-0.23,0.0,0.0,0.0,0.5,0.25,0.0,0.5,0.5,0.0,0.75,0.0,0.25,0.0,0.5,0.25,0.0,-0.8,-0.23,0.52,60.12,-15.4,21.8
3.18,0.0,0.0,0.0,0.0,0.0,0.0,0.0,0.0,0.0,0.0,0.0,0.0,0.0,-0.86,0.2,-0.11,0.0,0.0,0.0,1.25,0.0,0.0,0.5,1.5,0.0,0.5,0.0,0.25,0.25,0.5,0.25,0.0,-0.73,-0.23,0.45,59.49,-11.9,31.0
3.2,0.0,0.0,0.0,0.0,0.0,0.0,0.0,0.0,0.0,0.0,0.0,0.0,0.0,-1.42,0.45,0.08,0.0,0.0,0.0,1.0,0.0,0.0,0.5,0.5,0.0,0.5,0.0,0.25,0.25,0.5,0.25,0.0,-0.55,-0.23,0.39,53.09,-15.4,19.1
3.22,0.0,0.0,0.0,0.0,0.0,0.0,0.0,0.0,0.0,0.0,0.0,0.0,0.0,-1.92,0.39,-0.11,0.0,0.0,0.0,0.75,0.0,0.0,1.0,0.5,0.0,0.25,0.0,0.0,0.25,0.5,0.25,0.0,-0.36,-0.23,0.45,58.12,-13.9,23.5
3.24,0.0,0.0,0.0,0.0,0.0,0.0,0.0,0.0,0.0,0.0,0.0,0.0,0.0,-1.86,0.45,0.08,0.0,0.0,0.0,0.75,0.25,0.0,0.5,1.0,0.0,0.25,0.0,0.0,0.0,0.5,0.25,0.0,-0.23,-0.3,0.45,56.63,-12.6,36.0
3.26,0.0,0.0,0.0,0.0,0.0,0.0,0.0,0.0,0.0,0.0,0.0,0.0,0.0,-1.55,0.52,0.58,0.0,0.0,0.0,0.75,0.25,0.0,0.5,1.5,0.0,0.5,0.0,0.25,0.0,0.5,0.25,0.0,-0.17,-0.17,0.33,61.98,-11.0,33.9
3.28,0.0,0.0,0.0,0.0,0.0,0.0,0.0,0.0,0.0,0.0,0.0,0.0,0.0,-1.36,0.45,0.52,0.0,0.0,0.0,1.0,0.25,0.0,0.5,1.0,0.0,0.5,0.0,0.25,0.0,0.25,0.25,0.0,-0.17,-0.17,0.33,62.75,-14.7,41.7
3.3,0.0,0.0,0.0,0.0,0.0,0.0,0.0,0.0,0.0,0.0,0.0,0.0,0.0,-1.11,0.33,0.52,0.0,0.0,0.0,1.0,0.25,0.0,0.5,1.0,0.0,0.5,0.0,0.25,0.0,0.5,0.25,0.0,-0.17,-0.23,0.39,65.66,-14.4,34.8
3.32,0.0,0.0,0.0,0.0,0.0,0.0,0.0,0.0,0.0,0.0,0.0,0.0,0.0,-0.86,0.27,0.52,0.0,0.0,0.0,0.5,0.25,0.0,0.5,1.5,0.0,0.5,0.0,0.25,0.0,0.25,0.25,0.0,-0.23,-0.23,0.39,65.3,-9.7,36.8
3.34,0.0,0.0,0.0,0.0,0.0,0.0,0.75,0.0,0.0,0.0,0.0,0.0,0.0,-0.67,0.2,0.45,2.14,32.4,27.3,1.0,0.0,0.0,0.0,0.0,0.0,1.25,0.25,0.25,0.0,0.75,0.25,0.0,-0.3,-0.3,0.39,59.98,-20.2,2.1
3.36,0.0,0.0,0.0,0.0,0.0,0.0,0.0,0.0,0.0,0.0,0.0,0.0,0.0,-0.55,0.08,0.39,1.99,0.0,0.0,0.75,0.25,0.0,0.5,1.0,0.0,0.5,0.0,0.25,0.0,0.5,0.25,0.0,-0.42,-0.36,0.39,58.91,-13.2,30.9
3.38,0.0,0.0,0.0,0.0,0.0,0.0,0.0,0.0,0.0,0.0,0.0,0.0,0.0,-0.42,0.02,0.33,1.84,0.0,0.0,1.0,0.0,0.0,0.0,0.5,0.0,0.5,0.0,0.25,0.5,0.5,0.25,0.0,-0.67,-0.23,0.39,56.1,-12.7,5.5
3.4,0.0,0.0,0.0,0.0,0.0,0.0,0.0,0.0,0.0,0.0,0.0,0.0,0.0,-0.55,-0.05,0.2,0.92,0.0,0.0,1.25,0.0,0.0,0.0,0.5,3.0,3.5,2.25,1.5,1.25,1.0,0.25,0.0,-0.8,-0.23,0.45,101.52,-0.1,-4.1
3.42,0.0,0.0,0.0,0.0,0.0,0.0,0.0,0.0,0.0,0.0,0.0,0.0,0.0,-0.8,0.02,-0.05,0.46,0.0,0.0,1.0,0.0,0.5,0.0,0.0,0.0,4.75,3.5,0.25,0.0,1.5,0.25,0.0,-0.8,-0.3,0.52,123.67,-9.6,-10.5
3.44,0.0,0.0,0.0,0.0,0.0,0.0,0.0,0.0,0.0,0.0,0.0,0.0,0.0,-0.92,0.02,-0.17,0.0,0.0,0.0,0.5,0.25,0.0,0.25,0.5,0.0,0.25,0.0,0.25,0.0,0.5,0.25,0.0,-0.86,-0.23,0.45,116.3,-13.7,17.7
3.46,0.0,0.0,0.0,0.0,0.0,0.0,0.0,0.0,0.0,0.0,0.0,0.0,0.0,-1.11,0.08,-0.23,0.0,0.0,0.0,0.5,0.25,0.0,0.5,1.0,0.0,0.25,0.0,0.25,0.0,0.5,0.25,0.0,-0.98,-0.23,0.52,95.51,-11.1,26.6
3.48,0.0,0.0,0.0,0.0,0.0,0.0,0.0,0.0,0.0,0.0,0.0,0.0,0.0,-1.23,0.2,-0.17,0.0,0.0,0.0,0.5,0.0,0.0,0.5,1.0,2.25,0.5,0.0,1.75,1.0,0.5,0.25,0.0,-0.98,-0.17,0.58,96.58,0.8,1.3
3.5,0.0,0.0,0.0,0.0,0.0,0.0,0.0,0.0,0.0,0.0,0.0,0.0,0.0,-1.23,0.27,0.02,0.0,0.0,0.0,0.5,0.25,0.0,0.5,0.0,0.0,0.5,0.0,0.25,0.0,0.5,0.25,0.0,-0.92,-0.23,0.7,75.42,-18.9,14.0
3.52,0.0,0.0,0.0,0.0,0.0,0.0,0.0,0.0,0.0,0.0,0.0,0.0,0.0,-1.17,0.33,0.14,0.0,0.0,0.0,0.5,0.25,0.0,0.25,0.5,0.0,0.5,0.0,0.25,0.0,0.5,0.25,0.0,-0.92,-0.3,0.77,65.69,-14.5,18.1
3.54,0.0,0.0,0.0,0.0,0.0,0.0,0.0,0.0,0.0,0.0,0.0,0.0,0.0,-1.11,0.33,0.14,0.0,0.0,0.0,0.25,0.25,0.0,0.25,0.25,0.0,0.5,0.0,0.25,0.0,0.5,0.25,0.0,-0.92,-0.23,0.7,50.57,-14.6,5.4
3.56,0.0,0.0,0.0,0.0,0.0,0.0,0.0,0.0,0.0,0.0,0.0,0.0,0.0,-0.98,0.39,0.14,0.0,0.0,0.0,0.5,0.25,0.5,0.0,1.25,0.0,3.25,1.5,0.25,0.0,0.5,0.0,0.0,-0.98,-0.23,0.64,63.13,-10.5,18.3
3.58,0.0,0.0,0.0,0.0,0.0,0.0,0.0,0.0,0.0,0.0,0.0,0.0,0.0,-0.86,0.39,0.14,0.0,0.0,0.0,0.5,0.0,0.0,0.0,0.25,0.0,0.5,0.0,0.25,0.0,0.5,0.25,0.0,-0.92,-0.3,0.77,49.19,-17.0,-2.8
3.6,0.0,0.0,0.0,0.0,0.0,0.0,0.0,0.0,0.0,0.0,0.0,0.0,0.0,-0.8,0.39,0.2,0.0,0.0,0.0,0.75,0.25,0.0,0.5,0.0,0.0,0.5,0.0,0.25,0.0,0.5,0.25,0.0,-0.92,-0.36,0.83,46.95,-20.3,21.3
3.62,0.0,0.0,0.0,0.0,0.0,0.0,0.0,0.0,0.0,0.0,0.0,0.0,0.0,-0.8,0.33,0.2,0.0,0.0,0.0,0.75,0.25,0.0,0.5,1.25,0.0,0.25,0.0,0.25,0.0,0.25,0.25,0.0,-0.86,-0.36,0.77,43.89,-11.5,39.6
3.64,0.0,0.0,0.0,0.0,0.0,0.0,0.0,0.0,0.0,0.0,0.0,0.0,0.0,-0.86,0.27,0.2,0.0,0.0,0.0,0.5,0.25,0.0,0.5,0.5,0.0,0.25,0.0,0.25,0.5,0.5,0.25,0.0,-0.86,-0.36,0.77,41.32,-9.6,7.2
3.66,0.0,0.0,0.0,0.0,0.0,0.0,0.0,0.0,0.0,0.0,0.0,0.0,0.0,-0.92,0.27,0.2,0.0,0.0,0.0,0.5,0.25,0.0,0.5,0.0,0.0,0.25,0.0,0.25,0.0,0.5,0.25,0.0,-0.86,-0.36,0.77,41.98,-18.2,13.4
3.68,0.0,0.0,0.0,1.25,0.0,0.0,5.0,0.0,2.0,0.75,0.5,0.0,0.0,-0.92,0.27,0.14,38.45,17.0,-4.0,0.5,0.0,0.0,0.5,1.0,0.0,0.25,0.0,0.0,0.25,0.5,0.5,0.0,-0.86,-0.3,0.83,48.94,-8.8,8.9
3.7,0.0,0.0,0.0,1.25,0.0,0.0,2.0,0.0,2.0,0.5,0.5,0.0,0.0,-0.98,0.27,0.14,63.57,14.3,-9.2,0.5,0.25,0.0,0.5,0.25,0.0,0.25,0.0,0.25,0.5,0.25,0.5,0.0,-0.86,-0.3,0.89,46.89,-10.7,0.0
3.72,0.0,0.0,0.0,0.5,0.0,0.0,3.25,0.0,3.0,0.0,0.75,0.0,0.0,-1.05,0.27,0.08,88.44,17.9,-16.6,0.75,0.25,0.0,0.5,1.25,0.0,0.25,0.0,0.25,0.0,0.5,0.25,0.0,-0.86,-0.23,0.77,51.93,-11.4,32.7
3.74,0.0,0.0,0.0,0.0,0.0,0.0,0.0,0.0,0.0,0.0,0.0,0.0,0.0,-1.05,0.27,0.08,69.08,0.0,0.0,0.5,0.25,0.0,0.25,0.5,0.0,0.25,0.0,0.25,0.0,0.5,0.25,0.0,-0.92,-0.23,0.83,53.45,-13.7,17.7
3.76,0.0,0.0,0.0,0.0,0.0,0.0,0.0,0.0,0.0,0.0,0.0,0.0,0.0,-0.98,0.27,0.08,47.26,0.0,0.0,0.5,0.25,0.0,0.5,1.25,0.0,0.25,0.0,0.25,0.0,0.25,0.25,0.0,-0.86,-0.23,0.83,56.24,-10.0,35.7
3.78,0.0,0.0,0.0,0.0,0.0,0.0,0.0,0.0,0.0,0.0,0.0,0.0,0.0,-0.92,0.33,0.08,19.84,0.0,0.0,0.5,0.25,0.0,0.5,1.25,0.0,0.25,0.0,0.0,0.0,0.25,0.25,0.0,-0.8,-0.17,0.77,54.54,-9.8,41.3
3.8,0.0,0.0,0.0,0.0,0.0,0.0,0.0,0.0,0.0,0.0,0.0,0.0,0.0,-0.92,0.33,0.08,6.85,0.0,0.0,0.5,0.25,0.0,0.5,1.25,0.0,0.25,0.0,0.25,0.0,0.25,0.25,0.0,-0.8,-0.17,0.77,55.79,-10.0,35.7
3.82,0.0,0.0,0.0,0.0,0.0,0.0,0.0,0.0,0.0,0.0,0.0,0.0,0.0,-0.92,0.39,0.08,0.0,0.0,0.0,0.5,0.25,0.0,0.25,1.0,0.0,0.25,0.0,0.25,0.0,0.25,0.25,0.0,-0.73,-0.17,0.83,56.79,-10.6,32.1
3.84,0.0,0.0,0.0,0.0,0.0,0.0,0.0,0.0,0.0,0.0,0.0,0.0,0.0,-0.92,0.39,0.14,0.0,0.0,0.0,0.5,0.25,0.0,0.5,1.25,0.0,0.25,0.0,0.25,0.75,0.25,0.0,0.0,-0.73,-0.17,0.77,59.92,-5.3,24.1
3.86,0.0,0.0,0.0,0.0,0.0,0.0,0.0,0.0,0.0,0.0,0.0,0.0,0.0,-0.92,0.45,0.14,0.0,0.0,0.0,0.5,0.25,0.0,0.5,1.0,0.0,0.25,0.0,0.25,0.5,0.25,0.0,0.0,-0.67,-0.11,0.7,59.36,-7.5,28.7
3.88,0.0,0.0,0.0,0.0,0.0,0.0,0.0,0.0,0.0,0.0,0.0,0.0,0.0,-0.92,0.39,0.14,0.0,0.0,0.0,0.5,0.25,0.0,0.5,0.25,0.0,0.25,0.0,0.25,0.0,0.5,0.25,0.0,-0.67,-0.11,0.7,55.73,-15.9,17.8
3.9,0.0,0.0,0.0,0.0,0.0,0.0,0.0,0.0,0.0,0.0,0.0,0.0,0.0,-0.92,0.39,0.2,0.0,0.0,0.0,0.25,0.25,0.0,0.5,1.0,0.0,0.25,0.0,0.25,0.0,0.5,0.25,0.0,-0.67,-0.11,0.77,54.11,-9.4,21.5
3.92,0.0,0.0,0.0,0.0,0.0,0.0,0.0,0.0,0.0,0.0,0.0,0.0,0.0,-0.92,0.39,0.2,0.0,0.0,0.0,0.5,0.25,0.0,0.5,0.25,0.0,0.25,0.0,0.25,0.25,0.5,0.25,0.0,-0.67,-0.11,0.77,49.49,-13.1,9.7
3.94,0.0,0.0,0.0,0.0,0.0,0.0,0.0,0.0,0.0,0.0,0.0,0.0,0.0,-0.98,0.39,0.14,0.0,0.0,0.0,0.75,0.25,0.0,0.25,0.25,0.0,0.25,0.0,0.25,0.0,0.5,0.25,0.0,-0.61,-0.11,0.83,46.24,-17.4,20.9
3.96,0.0,0.0,0.0,0.0,0.0,0.0,0.0,0.0,0.0,0.0,0.0,0.0,0.0,-0.98,0.33,0.14,0.0,0.0,0.0,0.25,0.25,0.0,0.25,1.0,0.0,0.25,0.0,0.25,0.0,0.25,0.25,0.0,-0.61,-0.11,0.77,43.96,-8.6,26.6
3.98,0.0,0.0,0.0,0.0,0.0,0.0,0.0,0.0,0.0,0.0,0.0,0.0,0.0,-0.92,0.33,0.2,0.0,0.0,0.0,0.25,0.25,0.0,0.5,0.0,0.0,0.25,0.0,0.25,0.0,0.25,0.25,0.0,-0.67,-0.11,0.77,39.08,-17.1,14.3
4.0,0.0,0.0,0.0,0.0,0.0,0.0,0.0,0.0,0.0,0.0,0.0,0.0,0.0,-0.98,0.33,0.2,0.0,0.0,0.0,0.25,0.25,0.0,0.5,1.0,0.0,0.25,0.0,0.0,0.0,0.25,0.5,0.0,-0.67,-0.11,0.77,39.72,-9.0,23.4
4.02,0.0,0.0,0.0,0.25,0.0,0.0,0.0,0.0,3.5,1.75,0.0,0.25,0.0,-0.92,0.33,0.2,32.54,3.7,-48.5,0.5,0.25,0.0,0.25,1.25,0.0,0.5,0.0,0.0,0.25,0.5,0.0,0.0,-0.67,-0.11,0.77,44.12,-8.3,33.7
4.04,0.0,0.0,2.25,1.25,0.0,0.0,2.5,0.0,1.75,0.5,1.0,0.0,0.0,-0.98,0.33,0.2,74.11,21.6,9.0,0.75,0.25,0.0,0.5,1.25,0.0,0.25,0.0,0.25,0.0,0.5,0.25,0.0,-0.67,-0.11,0.83,53.71,-11.4,32.7
