time,left pressure 0[N/cm²],left pressure 1[N/cm²],left pressure 2[N/cm²],left pressure 3[N/cm²],left pressure 4[N/cm²],left pressure 5[N/cm²],left pressure 6[N/cm²],left pressure 7[N/cm²],left pressure 8[N/cm²],left pressure 9[N/cm²],left pressure 10[N/cm²],left pressure 11[N/cm²],left pressure 12[N/cm²],left acceleration X[g],left acceleration Y[g],left acceleration Z[g],left total force[N],left center of pressure X[mm],left center of pressure Y[mm],right pressure 0[N/cm²],right pressure 1[N/cm²],right pressure 2[N/cm²],right pressure 3[N/cm²],right pressure 4[N/cm²],right pressure 5[N/cm²],right pressure 6[N/cm²],right pressure 7[N/cm²],right pressure 8[N/cm²],right pressure 9[N/cm²],right pressure 10[N/cm²],right pressure 11[N/cm²],right pressure 12[N/cm²],right acceleration X[g],right acceleration Y[g],right acceleration Z[g],right total force[N],right center of pressure X[mm],right center of pressure Y[mm]
0.02,0.25,0.0,0.0,0.5,0.0,0.0,0.0,1.5,0.0,1.75,0.25,0.75,0.5,-0.05,-0.98,0.89,97.39,-6.0,-53.3,0.5,1.0,0.0,0.0,3.75,2.25,0.0,4.0,0.0,0.0,0.5,0.0,0.75,-1.36,2.27,-0.23,139.86,8.0,13.3
0.04,0.75,0.5,0.75,0.5,0.0,0.0,0.0,1.25,0.0,0.25,1.25,0.0,0.75,0.02,-1.73,2.45,97.26,7.8,-7.7,0.5,0.25,0.0,0.0,0.25,0.5,0.0,3.5,0.0,0.0,0.25,0.0,0.75,-1.17,2.27,0.33,77.09,9.8,-22.6
0.06,1.25,0.25,1.75,1.0,0.0,0.0,0.25,1.5,0.0,1.5,1.25,0.5,0.0,0.08,-3.23,2.83,105.61,11.3,-0.4,1.0,0.5,0.0,0.0,3.5,0.25,0.25,3.25,0.0,0.0,0.25,0.25,0.75,-0.23,2.02,0.64,55.55,3.4,11.0
0.08,2.5,2.5,1.75,2.75,0.0,0.0,0.0,1.5,0.0,1.5,1.0,0.25,0.5,-1.05,-0.11,1.2,147.95,13.2,30.1,0.75,0.25,0.0,0.5,3.5,1.25,0.0,3.25,0.0,0.0,0.5,0.0,0.25,0.52,1.83,0.83,51.96,5.2,17.8
0.1,5.25,3.0,2.25,6.0,0.0,0.0,0.25,1.5,0.0,0.5,0.0,0.0,0.0,-0.86,3.33,4.14,209.18,20.2,64.0,0.0,0.0,0.0,0.0,3.5,0.0,0.25,3.25,0.0,0.0,0.25,0.0,0.75,0.83,1.7,0.58,56.42,8.5,-1.0
0.12,7.0,4.25,5.25,8.25,0.0,0.0,0.0,1.5,0.0,1.5,1.0,0.0,0.5,-0.48,0.58,2.02,299.69,20.1,54.4,1.25,0.75,0.0,0.0,3.0,0.0,0.25,3.25,0.0,0.0,0.0,0.25,0.75,0.64,1.7,0.33,71.66,2.0,14.4
0.14,0.0,5.25,6.5,9.0,0.0,0.0,0.0,1.75,0.0,1.75,1.25,0.0,0.5,-0.05,0.2,1.58,371.36,16.2,42.6,0.75,1.0,0.0,0.0,3.5,0.0,0.25,3.25,0.0,0.0,0.25,0.0,0.75,0.33,1.27,0.89,91.5,3.3,15.8
0.16,8.75,5.5,0.0,10.5,0.0,0.0,0.0,1.5,0.75,1.75,1.5,0.0,0.5,-0.05,0.2,1.27,451.77,16.6,52.3,0.75,0.25,0.0,0.5,3.25,0.75,0.25,3.25,0.25,0.0,0.5,0.25,0.75,0.64,0.95,1.2,115.27,3.8,6.2
0.18,9.0,4.5,8.0,11.0,0.0,0.0,0.0,1.75,0.0,0.0,1.0,0.0,0.5,-0.36,0.27,1.27,532.19,23.3,62.5,0.75,0.75,0.0,0.5,3.25,0.5,0.25,3.25,0.25,0.0,0.5,0.25,0.5,0.83,0.7,1.08,133.86,2.4,12.6
0.2,9.0,0.0,9.0,11.5,0.0,0.0,0.0,5.25,0.75,1.75,1.5,0.75,0.75,-0.3,0.2,1.27,613.22,18.8,35.7,0.5,0.5,0.0,0.5,2.25,0.5,0.25,3.25,0.25,0.0,0.5,0.25,0.75,0.77,0.7,0.83,142.9,3.9,0.1
0.22,9.0,0.0,9.0,11.5,0.0,2.0,0.0,2.5,2.0,1.25,1.5,0.75,0.5,-0.3,0.2,1.27,675.35,19.7,40.8,0.75,0.5,0.0,0.5,1.75,0.5,0.25,3.25,0.0,0.0,0.5,0.25,0.75,0.64,0.58,0.83,143.77,3.4,0.3
0.24,9.0,5.25,9.0,11.0,0.0,2.75,0.25,3.25,1.25,1.75,1.75,0.75,0.5,-0.17,0.14,1.08,759.36,17.4,45.3,0.0,0.0,0.0,0.0,0.25,0.0,0.0,3.25,0.0,0.0,0.5,0.0,0.75,0.45,0.33,1.02,118.91,12.6,-48.3
0.26,8.75,4.75,9.0,9.25,8.75,2.75,0.75,3.25,1.5,1.75,1.75,0.75,0.5,-0.11,0.08,1.08,876.28,13.6,45.2,0.0,0.0,0.0,0.0,0.25,0.0,0.25,3.0,0.25,0.0,0.5,0.25,0.5,0.33,0.08,1.08,97.67,8.9,-46.4
0.28,8.25,4.25,9.0,9.5,8.5,2.25,1.0,3.25,1.75,1.75,1.75,0.75,0.75,-0.11,0.08,1.02,958.6,13.7,43.2,0.0,0.0,0.0,0.0,2.25,0.0,0.25,2.75,0.25,0.25,0.5,0.25,0.75,0.39,-0.11,1.02,91.8,7.3,-18.8
0.3,8.0,4.0,8.5,8.75,8.25,2.0,1.0,3.25,1.75,1.75,2.0,0.75,1.0,-0.11,0.08,0.95,991.76,13.4,40.9,0.0,0.0,0.0,0.0,0.0,0.0,0.0,1.75,0.0,0.0,0.0,0.0,0.0,0.2,-0.42,1.08,60.35,16.7,-38.7
0.32,7.5,3.25,8.5,8.0,8.25,1.75,1.0,3.5,1.75,2.0,2.25,1.0,1.0,-0.11,0.08,0.95,973.47,13.0,37.0,0.0,0.0,0.0,0.75,0.0,0.25,0.0,1.75,0.25,0.0,0.0,0.25,0.0,0.02,-0.73,0.89,46.68,4.9,-15.6
0.34,7.0,2.75,8.0,7.75,7.75,1.5,1.0,3.75,1.75,2.5,2.5,1.0,1.0,-0.11,0.08,0.95,922.55,12.5,33.2,0.5,1.0,0.0,0.5,3.25,0.25,0.25,3.0,0.0,0.0,0.5,0.0,0.75,-0.05,-1.23,0.7,74.39,3.0,14.7
0.36,6.5,2.75,7.75,7.75,7.25,1.75,1.0,4.25,1.75,3.25,2.25,1.5,1.25,-0.11,0.08,0.95,873.66,11.2,28.2,0.0,0.0,0.0,0.0,2.75,0.0,0.5,1.75,0.0,0.0,0.0,0.0,0.0,-0.11,-1.36,0.83,77.92,6.2,21.0
0.38,5.5,2.5,7.0,6.5,7.25,2.0,1.0,4.5,2.5,3.25,3.0,1.75,1.75,-0.11,0.08,0.95,839.32,9.6,20.2,0.0,0.0,0.0,0.0,0.0,0.0,0.0,1.75,0.0,0.0,0.0,0.25,0.0,0.2,-1.36,0.95,65.14,13.6,-47.6
0.4,5.0,1.5,6.25,5.75,6.75,1.5,1.0,4.5,2.75,3.5,3.25,1.75,1.75,-0.11,0.02,0.95,780.96,9.1,14.4,0.25,0.25,0.0,1.25,0.0,0.0,0.0,1.75,0.25,0.0,0.0,0.25,0.0,2.2,-4.61,3.7,55.89,-2.4,4.8
0.42,4.25,1.25,6.0,5.25,5.75,1.5,1.0,5.25,3.25,5.0,4.0,2.0,1.75,-0.11,0.02,0.95,730.49,7.6,4.6,3.0,2.0,4.75,6.25,5.5,1.25,0.75,1.75,0.0,0.0,0.0,0.0,0.0,0.58,0.45,1.89,171.67,-13.7,56.9
0.44,4.0,1.25,5.25,4.5,6.25,1.5,1.25,5.5,3.5,5.5,5.0,3.0,3.0,-0.17,0.02,0.95,708.31,5.9,-4.9,4.5,3.25,7.5,9.0,6.5,1.25,0.0,2.25,0.0,0.25,0.0,0.0,0.75,0.14,0.02,-0.73,308.97,-14.8,54.8
0.46,3.25,0.5,4.5,2.75,5.75,1.5,1.0,6.0,3.5,6.0,6.0,4.0,3.5,-0.11,0.02,0.95,683.64,4.0,-18.0,5.75,3.0,8.75,9.75,8.0,3.0,0.0,3.25,0.0,0.0,0.0,0.0,0.0,0.08,0.14,1.64,512.6,-13.8,56.6
0.48,2.25,1.25,3.5,2.75,5.0,1.25,1.0,6.25,3.5,6.75,6.75,4.5,4.5,-0.17,0.02,0.95,666.0,2.5,-26.2,6.5,3.75,9.25,10.5,9.75,4.75,0.25,3.25,0.0,0.0,0.0,0.0,0.0,0.2,0.2,1.83,734.88,-12.5,57.0
0.5,2.0,0.0,0.75,1.25,3.5,0.75,0.75,6.5,3.5,7.0,7.25,5.0,5.5,-0.17,0.02,0.95,635.88,-0.8,-47.0,7.5,3.75,10.0,11.5,10.5,5.75,1.0,3.75,0.0,0.0,0.0,0.25,0.25,0.33,0.27,1.45,936.02,-12.2,54.7
0.52,2.75,0.75,0.0,0.0,0.0,0.25,0.0,6.5,3.25,7.5,7.5,5.5,6.25,-0.17,0.02,0.95,607.35,-1.3,-61.6,8.0,5.0,10.5,11.5,11.0,6.0,2.0,4.5,0.25,0.75,0.5,0.5,0.5,0.27,0.2,1.33,1114.83,-11.7,50.3
0.54,2.0,0.25,1.75,0.75,0.0,0.5,0.25,6.5,3.0,7.75,7.5,6.0,6.75,-0.17,0.02,0.95,597.24,-0.3,-59.4,8.5,5.0,10.5,13.0,10.5,7.0,3.0,5.5,1.0,1.25,0.5,1.0,0.25,0.14,0.14,1.2,1289.28,-11.2,46.5
0.56,2.25,0.0,1.75,0.5,0.0,0.75,0.0,6.25,2.75,7.75,7.5,6.25,7.5,-0.23,0.02,1.02,601.79,-0.7,-61.3,8.5,4.75,12.5,13.0,11.5,6.5,3.75,6.25,1.0,1.0,1.5,1.0,0.5,0.14,0.14,1.08,1404.36,-11.8,44.2
0.58,1.75,0.5,1.75,0.5,0.0,0.5,0.0,6.0,2.25,7.75,7.5,6.5,7.5,-0.23,0.02,1.08,610.25,-0.8,-62.3,8.25,4.75,12.5,13.0,11.5,6.0,3.5,5.75,1.0,1.0,1.5,0.75,0.75,0.08,0.14,1.02,1463.65,-12.0,44.7
0.6,1.75,0.5,1.75,0.5,0.0,0.0,0.0,5.25,1.75,7.5,7.5,6.25,8.0,-0.23,0.08,1.14,607.06,-0.5,-64.4,8.25,4.5,12.0,11.5,10.5,6.0,3.0,5.5,0.75,0.5,1.5,0.75,0.75,0.14,0.14,0.95,1462.52,-12.2,45.5
0.62,1.5,0.5,1.5,0.5,0.0,0.0,0.0,4.5,1.5,7.0,7.25,6.5,8.0,-0.23,0.08,1.27,593.0,-0.6,-67.0,7.5,2.75,11.0,9.75,10.5,5.0,2.25,4.5,0.25,0.0,0.5,0.0,0.75,0.14,0.14,0.89,1359.75,-12.6,50.3
0.64,0.0,0.0,1.5,0.0,0.0,0.0,0.0,3.5,0.0,0.0,0.25,2.0,4.0,-0.3,0.08,1.39,407.42,-3.1,-64.1,7.0,3.25,9.25,8.25,8.25,3.75,1.75,4.5,0.25,0.0,0.0,0.0,0.75,0.14,0.2,0.89,1152.35,-12.9,51.3
0.66,0.0,0.0,1.5,0.0,0.0,0.0,0.0,3.25,0.0,0.0,2.5,0.0,4.5,-0.42,0.14,1.52,279.66,-2.7,-61.0,6.75,2.5,10.5,8.25,8.0,3.75,1.75,4.5,0.25,0.0,0.25,0.0,0.0,0.14,0.2,0.89,944.13,-14.0,52.5
0.68,1.25,0.5,0.0,0.0,0.0,0.0,0.0,2.25,0.75,3.5,4.75,0.0,0.0,-0.42,0.14,1.58,177.61,1.0,-44.0,6.0,2.25,9.25,7.5,7.75,3.25,1.75,4.25,0.5,0.0,0.5,0.0,0.0,0.08,0.2,0.89,788.83,-13.6,50.7
0.7,1.5,0.0,0.25,0.0,0.0,0.5,0.0,0.0,0.0,2.5,3.0,0.0,5.25,-0.17,0.08,1.33,128.11,-2.6,-64.3,6.75,2.75,10.0,8.25,8.0,4.25,2.25,4.5,1.0,1.0,1.5,0.75,1.0,0.08,0.14,0.89,753.07,-12.2,40.1
0.72,1.5,0.0,0.0,0.5,0.0,0.0,0.0,1.0,0.5,1.75,2.0,0.5,2.25,-0.17,0.08,1.14,87.1,1.3,-48.1,6.75,2.75,10.0,8.0,8.0,4.0,2.25,4.75,1.0,1.5,1.75,1.25,0.75,0.08,0.14,0.89,749.44,-12.1,37.4
0.74,2.0,0.0,0.0,0.0,0.0,0.0,0.0,1.25,0.0,1.5,1.5,0.25,0.5,-0.11,4.89,0.33,59.11,4.6,-25.2,6.25,2.75,9.5,7.75,7.75,3.75,2.25,5.5,1.25,2.5,2.75,1.5,1.0,0.08,0.14,0.95,777.76,-10.8,29.7
0.76,3.0,0.0,0.75,1.25,0.0,1.0,3.25,3.75,2.0,2.25,1.75,1.0,0.0,0.95,3.39,1.45,87.5,7.3,-8.6,6.0,2.0,9.25,6.75,7.75,4.0,2.5,5.75,1.5,4.5,3.75,2.25,1.75,0.14,0.14,0.95,807.67,-8.9,18.1
0.78,0.0,0.0,0.5,0.0,0.0,0.0,2.25,5.0,3.0,2.5,3.0,1.25,0.0,0.39,2.08,1.39,110.3,0.6,-48.8,5.75,1.75,9.0,6.25,6.75,4.0,3.0,6.25,2.0,6.0,5.0,3.25,2.75,0.14,0.14,0.95,856.78,-7.8,7.0
0.8,0.75,0.0,0.5,0.0,0.0,0.0,0.75,2.0,1.0,1.0,1.75,0.5,0.75,-0.55,1.58,0.7,110.85,3.6,-40.9,5.25,1.5,9.25,5.5,6.25,3.75,3.0,7.25,2.25,7.0,6.5,4.25,3.75,0.14,0.14,0.95,919.03,-6.8,-2.5
0.82,1.0,0.0,2.0,0.5,0.0,0.0,0.25,0.75,0.0,1.25,1.0,0.5,1.0,-0.36,0.89,1.08,100.77,11.4,-13.9,4.5,1.25,8.5,4.5,6.25,2.75,3.0,7.25,2.5,8.0,7.75,5.25,5.5,0.08,0.08,0.95,985.04,-5.6,-13.2
0.84,0.75,0.0,0.0,0.0,0.0,0.0,0.0,0.75,0.0,0.25,0.75,0.25,0.5,-0.05,0.52,1.2,67.12,3.4,-37.0,3.0,1.25,8.5,3.0,5.5,2.5,2.5,7.5,2.75,8.25,8.25,6.0,6.25,0.08,0.14,0.95,1024.6,-4.5,-21.8
0.86,0.75,0.0,0.25,0.0,0.0,0.0,0.0,0.75,0.0,1.75,1.0,0.0,0.5,-0.05,0.33,1.2,53.87,-0.4,-41.8,2.75,1.25,7.5,1.5,4.75,1.25,2.25,7.25,2.25,8.0,9.0,6.0,7.75,0.08,0.08,0.95,1017.57,-3.8,-30.4
0.88,2.25,0.0,0.25,0.5,0.0,0.0,0.0,1.0,1.0,1.75,0.75,0.75,0.5,0.08,0.2,1.2,75.49,7.8,-17.5,0.75,0.25,5.0,0.0,3.25,0.25,1.25,6.5,2.25,8.5,8.5,6.75,7.75,0.08,0.08,0.95,940.15,-0.9,-50.7
0.9,2.75,0.5,1.5,1.25,0.0,0.0,0.75,3.0,1.0,2.0,2.25,0.5,0.75,0.2,0.14,1.2,126.16,8.7,-8.0,2.25,0.75,2.25,1.75,1.5,1.25,1.0,6.25,2.25,9.75,8.75,8.25,8.25,0.02,0.14,1.08,885.67,0.0,-53.2
0.92,2.0,0.0,0.25,0.25,0.0,0.0,0.25,1.5,0.75,0.5,0.75,0.5,0.5,0.14,0.14,1.2,128.88,9.2,-10.5,1.75,1.0,1.75,1.75,4.5,1.0,1.0,5.75,1.25,9.75,10.0,9.25,10.0,-0.05,0.14,1.14,880.75,0.7,-52.3
0.94,2.0,0.0,0.25,0.5,0.0,0.0,0.5,1.75,1.0,1.75,1.75,0.75,0.5,0.08,0.08,1.27,142.67,6.2,-26.0,1.5,1.0,1.5,1.75,3.5,1.0,1.0,4.5,1.0,9.25,9.5,9.25,9.25,0.02,0.08,1.2,860.76,0.4,-54.8
0.96,2.0,0.0,0.25,0.0,0.0,0.0,0.0,0.75,0.25,1.75,0.5,0.75,0.5,0.02,0.08,1.27,123.75,6.4,-22.2,0.25,0.0,0.0,0.0,0.5,0.0,0.25,3.25,0.25,8.25,8.25,8.25,9.5,0.02,0.02,1.2,767.84,3.7,-84.8
0.98,2.0,0.0,0.5,0.5,0.0,0.0,0.0,1.5,0.0,1.75,1.5,0.75,0.5,-0.11,0.08,1.27,119.77,6.3,-21.8,0.25,0.25,0.0,0.0,1.0,0.0,0.25,2.0,0.25,7.5,8.0,8.25,9.75,0.02,0.02,1.08,667.51,3.1,-83.4
1.0,2.0,0.0,0.0,0.5,0.0,0.0,0.0,1.5,0.0,0.25,1.25,0.5,0.5,-0.23,0.02,1.27,97.98,8.7,-10.4,0.25,0.0,0.0,1.25,0.25,0.5,0.0,1.75,0.25,8.0,7.25,9.25,10.5,0.02,-0.05,1.02,592.42,3.1,-83.3
1.02,1.75,0.0,0.75,0.5,0.0,0.0,0.0,1.5,0.0,0.5,1.5,0.5,0.5,-0.3,-0.05,1.27,106.2,10.2,-10.7,1.25,1.0,0.5,1.25,3.5,0.5,0.5,1.75,0.25,7.75,7.25,8.0,12.0,0.08,-0.11,1.08,582.73,1.9,-62.3
1.04,1.75,0.0,0.0,0.5,0.0,0.0,0.0,1.5,0.0,1.75,1.5,0.75,0.5,-0.48,-0.23,1.2,112.99,3.5,-30.5,1.5,1.0,0.5,1.0,3.5,0.25,0.5,1.75,0.25,7.25,7.25,8.75,11.5,0.08,-0.11,1.02,599.25,1.3,-62.8
1.06,1.75,0.0,1.0,0.0,0.0,0.0,0.0,1.5,0.0,0.25,1.5,0.75,0.5,-0.55,-0.3,1.2,112.34,11.6,-14.3,1.25,1.0,2.0,1.0,3.5,0.25,0.5,1.5,0.25,6.75,5.75,8.25,10.5,0.08,-0.23,0.89,611.22,0.0,-57.1
1.08,1.25,0.0,0.5,0.5,0.0,0.0,0.0,1.5,0.0,1.75,1.5,0.75,0.5,-0.61,-0.36,1.14,115.47,3.9,-32.1,1.25,0.75,0.0,0.75,3.5,0.0,0.5,0.0,0.0,6.0,3.75,6.75,9.5,0.2,-0.3,0.83,552.97,2.1,-62.7
1.1,1.75,0.0,0.75,0.0,0.0,0.0,0.25,0.25,0.0,0.0,0.75,0.75,0.5,-0.73,-0.36,1.2,97.43,19.7,1.5,1.25,0.75,0.0,0.5,3.5,0.25,0.5,0.25,0.25,6.0,3.75,6.75,9.25,0.14,-0.3,0.83,495.42,2.3,-62.2
1.12,0.75,0.0,0.0,0.5,0.0,0.0,0.0,0.25,0.0,0.5,0.5,0.0,0.5,-0.61,-0.17,1.02,72.08,6.6,-14.0,0.25,1.0,0.0,0.5,3.5,0.0,0.0,0.0,0.25,5.0,2.75,5.25,8.0,0.14,-0.3,1.33,411.38,3.5,-62.2
1.14,0.0,0.0,0.0,0.5,0.0,0.0,0.0,0.0,0.0,1.75,0.25,0.75,0.5,-0.61,-0.17,0.95,54.9,-4.3,-68.4,1.25,0.0,0.0,0.0,0.5,0.0,0.0,0.0,0.0,0.75,1.5,3.0,6.25,0.2,-0.11,2.45,299.01,1.4,-79.0
1.16,0.75,0.0,0.75,0.5,0.0,0.0,0.0,1.5,0.0,1.75,1.75,1.0,0.5,-0.61,-0.42,1.14,76.32,3.6,-40.0,0.5,1.0,0.0,0.5,0.0,0.25,0.0,0.0,0.0,1.0,0.25,2.75,4.0,0.52,0.33,1.7,210.8,1.1,-63.8
1.18,0.0,0.0,0.0,0.0,0.0,0.0,0.0,0.0,0.0,0.75,0.25,0.5,0.5,-0.61,-0.48,0.83,62.07,-5.8,-92.8,0.0,0.0,0.0,0.0,0.0,0.0,0.0,0.0,0.0,0.0,0.0,1.5,3.25,0.58,6.27,-1.8,113.81,6.7,-109.8
1.2,1.5,0.0,0.0,0.5,0.0,0.0,0.0,0.0,0.0,0.25,0.5,0.75,0.5,-0.55,-0.23,0.45,63.0,15.0,-6.7,0.0,0.0,0.0,0.0,0.0,0.0,0.0,0.0,0.0,0.0,0.0,1.25,2.75,-0.11,1.83,1.58,37.75,6.8,-109.8
1.22,1.25,0.0,0.0,0.5,0.0,0.0,0.0,1.5,0.25,1.75,1.5,0.75,0.5,-0.17,-0.17,0.33,74.19,1.9,-38.4,0.0,0.0,0.0,0.0,0.0,0.0,0.0,0.0,0.0,0.0,0.0,1.25,2.75,-0.67,1.2,1.39,0.0,6.8,-109.8
1.24,1.0,0.0,0.0,0.0,0.0,0.0,2.0,4.25,0.0,0.25,2.25,0.5,0.5,0.08,-0.3,0.58,100.53,0.9,-35.6,0.0,0.0,0.0,0.0,0.0,0.0,0.0,0.0,0.0,0.0,0.0,0.75,2.5,-0.17,1.08,1.27,0.0,8.6,-109.9
1.26,2.0,0.0,0.0,0.5,0.0,0.0,0.5,1.5,0.0,1.75,0.0,0.75,0.5,0.33,-0.55,-0.05,109.29,4.0,-15.2,0.0,0.0,0.0,0.0,0.0,0.0,0.0,0.25,0.0,0.0,0.0,1.0,2.5,-0.05,-2.17,1.08,0.0,8.0,-105.2
1.28,0.25,0.0,0.0,2.5,0.0,0.0,0.0,0.0,0.0,2.25,0.0,0.0,0.5,0.2,-1.05,-0.98,109.32,1.9,-9.2,0.0,0.0,0.0,0.0,0.0,0.0,0.0,0.0,0.0,0.0,0.0,0.75,1.75,-0.17,0.27,0.14,0.0,7.0,-109.9
1.3,1.25,0.0,0.75,2.5,0.0,0.0,0.0,1.5,0.0,1.75,0.0,0.75,0.0,-4.86,-4.05,7.95,117.69,8.1,4.7,0.0,0.0,0.0,0.0,0.0,0.0,0.25,0.25,0.0,0.0,0.0,0.75,1.75,-0.05,0.77,1.45,0.0,6.2,-98.1
1.32,0.0,0.0,0.0,2.5,0.0,2.75,0.75,6.5,2.75,7.5,4.0,5.25,4.25,-0.3,0.89,2.95,248.52,-4.7,-56.4,0.0,0.0,0.0,0.0,0.0,0.0,0.0,0.0,0.0,0.0,0.0,0.5,1.75,0.02,0.14,1.58,0.0,8.8,-109.8
1.34,0.75,0.0,0.0,2.75,0.0,0.0,1.0,7.75,3.5,6.75,7.25,4.0,6.75,-0.23,-1.86,1.39,388.59,-2.2,-60.7,0.0,0.0,0.0,0.0,0.0,0.0,0.0,0.0,0.0,0.0,0.0,0.75,1.75,-0.11,0.45,0.89,0.0,7.0,-109.9
1.36,0.0,1.25,0.0,2.75,0.0,4.0,1.0,7.0,1.75,5.0,5.0,2.25,4.25,-0.11,0.08,0.95,507.77,-4.9,-40.8,0.0,0.0,0.0,0.0,0.0,0.0,0.0,0.0,0.0,0.0,0.0,0.75,1.5,-0.23,0.39,1.08,5.15,6.3,-109.8
1.38,0.0,0.0,0.0,2.75,0.0,5.75,0.75,7.0,1.75,5.0,2.5,2.0,3.0,-0.17,0.2,0.89,534.9,-7.9,-36.6,0.0,0.0,0.0,0.0,1.5,0.0,0.25,0.25,0.0,0.0,0.0,0.75,1.25,-0.17,0.27,1.02,31.37,4.1,-33.0
1.4,0.0,0.0,0.0,2.75,0.0,0.0,0.75,7.25,1.75,5.0,0.0,1.75,3.0,-0.3,0.02,0.95,474.39,-6.5,-48.9,0.5,0.75,0.0,0.5,0.0,0.0,0.0,0.0,0.25,0.0,0.0,0.5,1.25,-0.17,0.2,1.08,43.3,-6.5,-13.9
1.42,0.0,0.0,0.0,3.25,0.0,0.0,0.25,7.25,3.0,5.25,2.5,1.75,3.0,-0.3,0.08,0.89,429.84,-4.0,-49.7,1.0,1.0,0.0,0.5,1.0,0.0,0.25,1.5,0.25,0.0,1.5,1.5,2.75,-0.23,0.08,1.27,91.23,-2.0,-32.1
1.44,0.0,0.0,0.0,2.75,0.0,6.75,0.5,7.25,1.0,5.0,3.0,1.75,2.5,-0.3,0.02,0.89,408.66,-8.8,-33.3,1.25,0.5,0.0,0.5,1.75,0.0,0.25,1.5,0.0,0.0,1.25,0.5,2.75,-0.17,-0.05,1.02,123.1,-0.6,-20.0
1.46,0.0,0.0,1.75,2.5,0.0,0.0,1.25,7.25,0.0,5.0,0.75,1.75,2.5,-0.3,0.02,0.95,381.84,-3.5,-40.7,0.0,0.0,0.0,0.0,0.0,0.0,0.0,0.0,0.0,0.0,0.0,0.75,1.25,-0.17,-0.23,1.02,113.43,5.4,-109.9
1.48,0.0,0.0,1.5,2.5,0.0,0.0,0.25,7.25,0.0,4.25,0.0,2.0,2.0,-0.3,0.08,0.95,344.45,-4.5,-40.2,0.75,0.75,0.0,0.5,0.0,0.0,0.5,1.5,0.25,0.0,1.0,1.25,2.5,-0.05,-0.36,1.08,122.22,-1.7,-43.1
1.5,0.0,0.0,1.25,2.0,0.0,0.0,0.0,7.25,0.0,4.0,1.5,1.5,2.25,-0.3,0.08,0.89,306.02,-5.1,-45.8,0.5,0.75,0.0,0.5,1.5,0.0,0.25,1.5,0.25,0.0,1.0,1.5,2.5,0.08,-0.48,1.2,131.77,0.0,-32.5
1.52,0.0,0.0,1.25,1.25,0.0,0.0,0.25,7.0,0.0,3.5,0.0,1.75,1.75,-0.3,0.08,0.95,265.94,-6.3,-45.7,0.0,0.0,0.0,0.0,1.25,0.0,0.25,0.75,0.0,0.0,0.0,1.5,1.0,-0.11,-0.36,0.89,123.34,2.9,-46.5
1.54,0.0,0.0,0.0,2.5,0.0,0.0,0.0,7.0,0.0,3.5,0.0,1.25,1.75,-0.3,0.08,0.89,226.53,-8.7,-44.4,0.5,1.0,0.0,0.5,1.5,0.0,0.25,1.5,0.25,0.0,1.25,1.5,2.5,-0.17,-0.3,0.89,137.73,-0.4,-30.3
1.56,0.0,0.0,0.0,1.75,0.0,0.0,0.0,6.75,0.0,3.75,0.0,1.75,1.75,-0.3,0.08,0.89,194.76,-9.4,-52.1,0.5,0.0,0.0,0.0,0.0,0.0,0.75,1.5,0.0,0.0,0.75,1.0,1.25,0.33,-7.73,3.39,126.76,-0.3,-57.7
1.58,0.0,0.0,0.0,1.75,0.0,0.0,0.0,7.0,0.75,5.0,0.75,1.75,2.25,-0.3,0.08,0.89,208.31,-8.4,-55.3,0.75,0.75,0.0,0.5,0.0,0.0,0.5,1.75,0.0,1.5,1.5,2.5,1.5,1.77,-5.67,0.2,142.94,-1.3,-50.2
1.6,0.0,0.0,0.0,1.0,0.0,0.0,0.0,6.75,0.75,5.0,1.75,1.75,1.75,-0.3,0.08,0.95,227.14,-8.2,-59.8,0.5,0.75,0.0,0.25,1.25,0.0,0.25,0.25,0.25,1.5,1.5,2.75,4.25,-0.92,-0.92,1.14,164.69,1.1,-59.0
1.62,0.0,0.0,0.0,0.75,0.0,0.0,0.0,7.0,0.75,5.25,2.5,1.75,3.0,-0.3,0.08,0.95,254.1,-8.4,-64.8,0.5,0.5,0.0,0.5,1.5,0.0,0.25,0.0,0.25,1.0,1.5,2.25,3.75,-0.11,0.64,2.77,185.02,0.0,-52.7
1.64,0.0,0.0,0.25,0.5,0.0,0.0,0.0,6.75,1.0,6.0,1.0,2.0,3.0,-0.3,0.08,0.95,270.45,-9.2,-65.0,0.5,0.75,0.0,0.5,1.75,0.0,0.25,0.25,0.25,1.0,1.5,1.5,3.0,-0.36,0.77,1.89,187.56,-0.1,-38.7
1.66,0.0,0.0,0.0,0.0,0.0,0.0,0.0,6.75,0.75,6.0,3.25,2.5,4.25,-0.3,0.08,0.95,292.3,-8.6,-73.8,0.5,0.75,0.0,0.0,1.5,0.0,0.25,1.0,0.25,1.25,1.5,2.25,2.75,-0.48,1.58,0.08,187.83,1.0,-48.7
1.68,0.0,0.0,0.0,0.5,0.0,0.0,0.0,6.75,0.75,6.75,4.0,3.0,5.5,-0.23,0.14,1.02,331.77,-7.7,-73.7,0.0,0.0,0.0,0.25,1.5,0.0,0.25,1.75,0.25,3.25,2.25,3.25,4.25,0.52,-0.05,1.33,216.56,4.8,-70.6
1.7,0.0,0.0,0.0,0.5,0.0,0.0,0.0,6.5,0.75,7.0,4.75,4.0,6.25,-0.3,0.14,1.08,386.82,-6.8,-76.2,0.5,0.75,0.0,0.5,1.75,0.5,0.25,2.0,0.0,4.25,3.25,4.0,5.5,-0.11,-0.48,0.83,264.89,3.7,-60.4
1.72,0.0,0.0,0.25,0.0,0.0,0.0,0.0,6.0,0.75,6.25,4.0,4.0,6.25,-0.3,0.08,0.95,418.19,-6.9,-78.2,0.5,0.5,0.0,0.5,1.5,0.0,0.25,1.75,0.25,4.0,3.75,4.5,5.75,-0.3,0.08,1.02,303.92,2.6,-67.2
1.74,0.0,0.0,0.0,0.5,0.0,0.0,0.0,5.5,0.75,6.5,4.75,0.0,7.5,-0.36,0.08,1.02,422.24,-9.0,-74.1,0.5,0.5,0.0,0.5,1.25,0.0,0.25,1.75,0.25,5.0,3.75,4.75,6.25,0.33,0.14,0.95,350.5,3.2,-70.2
1.76,0.0,0.0,0.0,0.5,0.0,0.0,0.25,5.5,0.75,6.75,4.75,5.0,7.5,-0.36,0.02,0.95,447.47,-6.0,-79.5,0.5,0.5,0.0,0.5,2.25,0.0,0.25,1.75,0.25,5.5,3.75,5.5,7.25,-0.05,0.02,0.83,393.53,3.5,-67.7
1.78,0.0,0.0,0.0,0.5,0.0,0.0,0.0,5.0,0.75,6.75,4.75,5.5,8.0,-0.42,0.02,1.02,467.6,-5.9,-81.5,0.25,0.5,0.0,0.25,2.25,0.25,0.25,1.75,0.25,6.0,5.0,6.0,8.0,0.14,0.02,1.02,438.83,3.8,-71.4
1.8,0.0,0.0,0.0,0.5,0.0,0.0,0.0,4.5,0.75,6.5,4.75,5.25,8.0,-0.42,-0.05,1.02,482.81,-5.8,-82.1,0.5,0.5,0.0,0.5,1.75,0.25,0.25,1.75,0.25,6.75,5.0,6.5,8.25,-0.05,-0.05,0.89,486.69,3.5,-72.4
1.82,0.0,0.0,0.0,0.5,0.0,0.0,0.0,4.25,0.0,6.5,4.5,5.5,7.75,-0.42,-0.05,0.64,479.27,-6.1,-83.6,0.5,0.5,0.0,0.5,1.75,0.0,0.0,1.75,0.25,7.25,5.75,7.25,9.0,0.08,-0.11,0.83,532.82,3.3,-75.2
1.84,0.0,0.0,0.0,0.5,0.0,0.0,0.0,3.5,0.0,6.75,4.75,5.5,8.0,-0.36,-0.17,0.52,472.46,-5.8,-84.8,0.5,0.5,0.0,0.25,2.25,0.0,0.25,1.75,0.25,7.5,5.75,7.5,9.25,0.08,-0.05,1.02,573.82,3.4,-74.2
1.86,0.0,0.0,0.0,0.5,0.0,0.0,0.0,2.5,0.0,6.75,3.5,6.25,7.75,-0.36,-0.17,0.77,447.6,-5.7,-87.4,0.25,0.5,0.0,0.5,2.25,0.0,0.25,1.75,0.25,7.75,5.75,8.0,10.5,0.08,-0.05,0.95,616.22,3.8,-76.1
1.88,0.0,0.0,0.0,0.5,0.0,0.0,0.0,3.25,0.0,6.0,4.75,6.25,9.25,-0.48,-0.11,1.27,446.21,-5.4,-87.1,0.25,0.75,0.0,0.25,2.5,0.0,0.25,1.75,0.25,8.25,6.5,8.5,11.0,0.14,-0.05,0.95,656.55,3.7,-75.7
1.9,0.0,0.0,0.0,0.5,0.0,0.0,0.0,3.25,0.0,6.0,3.25,6.25,8.75,-0.23,-0.17,1.08,433.46,-6.1,-87.3,0.5,0.5,0.0,0.5,2.75,0.0,0.25,1.75,0.25,8.25,7.25,9.0,12.0,0.2,-0.11,1.14,700.65,3.3,-75.3
1.92,0.0,0.0,0.0,0.5,0.0,0.0,0.0,2.25,0.0,5.5,4.75,5.5,8.5,-0.55,-0.11,1.14,420.82,-5.0,-87.9,0.5,0.75,0.0,0.5,2.75,0.0,0.0,1.5,0.25,8.0,7.0,9.0,12.0,0.08,-0.05,1.02,722.66,3.2,-74.8
1.94,0.0,0.0,0.0,0.5,0.0,0.0,0.0,1.5,0.0,4.5,3.25,5.5,7.0,-0.55,-0.23,0.45,382.08,-4.6,-89.4,0.5,0.5,0.0,0.5,2.5,0.0,0.25,0.75,0.25,8.0,5.75,8.25,12.0,0.2,-0.11,1.08,713.29,3.6,-76.6
1.96,0.0,0.0,0.0,0.25,0.0,0.0,0.0,1.5,0.25,3.5,3.25,5.5,7.25,-0.3,-0.36,0.27,350.93,-4.2,-91.5,0.5,0.5,0.0,0.5,2.75,0.0,0.25,0.0,0.25,7.75,5.75,8.25,11.5,0.14,-0.11,1.02,685.63,3.1,-75.9
1.98,0.0,0.0,0.0,0.5,0.0,0.0,0.0,1.5,0.0,4.5,3.25,5.0,6.25,-0.48,-0.36,0.64,317.63,-4.5,-88.1,0.5,0.5,0.0,0.5,3.0,0.0,0.25,0.0,0.0,7.25,5.0,8.25,11.5,0.2,-0.23,0.58,643.45,3.4,-75.1
2.0,1.0,0.0,0.0,0.5,0.0,0.0,0.0,1.75,0.0,5.0,3.25,5.5,8.0,-0.73,-0.23,1.52,314.49,-3.8,-82.4,0.5,0.5,0.0,0.25,1.75,0.0,0.25,0.0,0.0,7.0,4.0,7.5,10.5,0.02,-0.17,0.89,579.53,3.8,-80.0
2.02,1.25,0.0,0.0,0.5,0.0,0.0,0.0,1.75,0.0,5.0,3.75,5.25,5.75,-0.42,-0.3,1.39,312.7,-2.3,-77.5,0.5,0.5,0.0,0.5,2.75,0.0,0.25,0.0,0.0,6.25,3.75,6.5,9.5,-0.17,-0.23,1.08,515.71,3.5,-72.0
2.04,0.75,0.0,0.0,0.5,0.0,0.0,0.0,1.5,0.0,5.0,3.25,5.5,7.5,0.08,-0.48,0.33,324.16,-3.8,-84.1,0.5,0.5,0.0,0.5,2.5,0.0,0.25,0.0,0.0,6.0,2.0,5.25,8.5,-0.55,-1.11,1.33,438.59,4.5,-69.9
2.06,1.75,0.0,0.0,0.5,0.0,0.0,0.0,1.5,0.0,5.0,3.25,5.5,7.75,-0.17,-0.48,0.27,333.13,-2.5,-77.6,0.5,0.5,0.0,0.5,2.5,0.0,0.0,0.0,0.0,3.5,0.75,3.5,7.25,-0.55,-0.55,1.58,348.98,4.9,-63.3
2.08,1.75,0.0,0.0,0.5,0.0,0.0,0.0,1.5,0.0,5.0,3.25,5.5,8.0,-0.92,-0.36,0.77,343.56,-2.6,-77.9,0.25,0.5,0.0,0.0,1.0,0.0,0.25,0.0,0.0,1.25,0.0,2.75,5.75,0.27,-0.86,1.39,258.16,5.1,-75.9
2.1,1.75,0.0,0.0,0.5,0.0,0.0,0.0,1.5,0.0,5.0,3.25,5.0,8.0,-0.8,-0.42,0.89,348.26,-2.8,-77.3,0.25,0.25,0.0,0.25,0.5,0.0,0.25,0.0,0.0,1.0,0.25,2.25,4.0,0.58,-0.92,1.45,172.72,3.5,-76.7
2.12,1.5,0.0,0.0,0.5,0.0,0.0,0.0,1.5,0.0,5.0,3.25,5.5,8.0,-0.48,-0.42,1.33,353.89,-3.0,-79.5,0.5,0.25,0.0,0.5,1.0,0.0,0.0,0.0,0.25,1.0,0.25,1.75,3.75,0.45,-0.05,1.02,104.32,2.3,-58.4
2.14,1.75,0.0,0.0,0.5,0.0,0.0,0.0,1.5,0.0,4.75,3.25,5.25,7.5,-0.3,-0.48,0.64,355.9,-2.4,-77.0,0.75,0.5,0.0,0.25,0.5,0.0,0.25,0.0,0.0,0.75,1.0,1.5,3.75,0.45,0.27,0.64,64.61,0.3,-59.3
2.16,1.75,0.0,0.0,0.5,0.0,0.0,0.0,1.5,0.0,4.5,3.0,4.75,7.5,-0.3,-0.55,0.52,351.2,-2.6,-76.3,0.5,0.25,0.0,0.25,0.25,0.0,0.25,0.0,0.0,0.75,1.0,1.5,3.75,0.33,-0.05,0.95,50.84,1.6,-72.3
2.18,1.75,0.0,0.0,0.5,0.0,0.0,0.0,1.5,0.0,3.5,2.75,4.5,6.75,-0.48,-0.55,0.39,334.98,-1.9,-74.7,0.5,0.25,0.0,0.0,1.0,0.0,0.25,0.0,0.25,0.75,1.0,1.5,3.75,0.64,-0.23,0.83,55.14,1.9,-63.4
2.2,1.75,0.0,0.0,0.5,0.0,0.0,0.0,1.5,0.0,3.5,2.5,4.0,6.25,-0.36,-0.61,0.08,310.94,-2.0,-72.9,0.5,0.5,0.0,0.25,1.0,0.0,0.25,0.0,0.25,1.0,1.25,1.5,3.75,0.77,-0.36,0.45,68.2,1.1,-56.8
2.22,0.75,0.0,0.0,0.0,0.0,0.0,0.0,1.25,0.0,3.0,0.0,3.0,6.0,-0.23,-0.73,0.89,271.21,-7.2,-85.9,0.5,0.25,0.0,0.5,1.0,0.0,0.25,0.0,0.0,0.75,1.0,1.5,3.75,0.89,-0.42,0.45,81.03,1.2,-57.4
2.24,1.25,0.0,0.25,0.0,0.0,0.0,0.0,0.25,0.0,2.5,1.0,1.25,4.25,-0.48,-0.55,1.39,220.72,-2.8,-70.5,0.5,0.25,0.0,0.0,0.0,0.0,0.25,0.0,0.0,0.75,0.75,1.5,3.75,0.95,-0.42,0.52,89.19,2.6,-81.4
2.26,0.0,0.0,0.0,0.0,0.0,0.0,0.0,1.5,0.0,1.0,0.75,0.75,3.0,-0.55,-0.42,1.52,160.74,-9.7,-86.3,0.5,0.25,0.0,0.25,0.0,0.0,0.25,0.0,0.0,0.5,1.0,1.5,3.25,0.95,-0.3,0.52,93.92,0.2,-74.5
2.28,1.75,0.0,0.0,0.5,0.0,0.0,0.0,1.25,0.0,1.75,0.75,0.75,2.25,-0.55,-0.3,1.02,116.82,0.0,-42.6,0.5,0.5,0.0,0.25,0.25,0.0,0.25,0.0,0.0,0.5,0.75,1.5,3.25,0.83,-0.36,0.64,101.04,0.2,-63.9
2.3,1.25,0.0,0.0,0.0,0.0,0.0,0.0,0.0,0.0,1.75,0.5,0.75,1.75,1.45,1.39,0.83,75.49,0.0,-56.2,0.5,0.25,0.0,0.25,0.0,0.0,0.25,0.0,0.0,0.5,0.5,1.5,3.25,0.7,-0.48,0.77,106.51,1.0,-74.5
2.32,0.75,0.0,0.0,0.0,0.0,0.0,0.0,0.0,0.0,0.75,0.0,0.0,0.5,-2.48,-0.23,0.08,30.88,2.8,-22.7,0.5,0.25,0.0,0.25,0.25,0.0,0.25,0.0,0.0,0.5,0.5,1.5,2.75,0.58,-0.73,0.95,108.56,0.1,-66.2
2.34,1.5,0.0,0.0,0.0,0.0,0.0,0.0,0.5,0.0,1.75,0.25,0.75,1.0,-1.55,-0.55,0.27,16.65,1.4,-40.1,0.5,0.25,0.0,0.5,0.0,0.0,0.25,0.0,0.0,0.75,0.5,1.5,2.75,0.39,-0.8,0.89,107.85,0.0,-66.9
2.36,0.75,0.0,0.0,0.0,0.0,0.0,0.0,1.25,0.0,0.25,0.0,0.0,0.5,-0.98,-0.92,0.27,0.0,-2.7,-20.4,0.25,0.25,0.0,0.0,0.0,0.0,0.25,0.0,0.0,0.5,0.75,1.5,2.75,0.2,-0.8,0.83,103.29,1.6,-83.7
2.38,0.75,0.0,0.0,0.0,0.0,0.0,0.0,0.0,0.0,0.25,0.0,0.0,0.5,-0.98,-1.36,0.14,0.0,9.2,-4.7,0.25,0.25,0.0,0.25,0.5,0.0,0.25,0.5,0.0,0.0,1.25,1.5,2.75,0.02,-0.92,0.95,105.84,0.3,-65.1
2.4,1.0,0.0,0.0,0.0,0.0,0.0,0.0,0.0,0.0,1.0,0.25,0.75,0.5,-1.11,-1.48,0.2,0.0,5.5,-41.0,0.25,0.25,0.0,0.0,0.5,0.0,0.25,0.0,0.0,0.5,0.5,1.5,2.75,0.02,-0.92,1.02,104.27,2.2,-71.8
2.42,0.75,0.0,0.0,0.0,0.0,0.0,0.0,0.0,0.0,0.0,0.0,0.0,0.5,-0.98,-1.42,0.45,0.0,14.3,9.8,0.5,0.25,0.0,0.0,0.5,0.0,0.25,0.0,0.0,0.25,0.5,1.5,2.75,0.08,-0.86,0.89,103.07,0.4,-65.5
2.44,0.75,0.0,0.0,0.0,0.0,0.0,0.0,0.0,0.0,0.5,0.0,0.75,0.5,-0.67,-1.3,0.52,0.0,6.5,-43.7,0.5,0.25,0.0,0.0,0.0,0.0,0.25,0.0,0.0,0.25,0.5,1.5,2.75,0.08,-0.8,0.7,98.86,0.1,-77.2
2.46,2.0,0.0,0.0,0.25,0.0,0.0,0.0,1.25,0.75,1.25,0.5,0.75,1.75,-0.61,-1.17,0.7,38.84,3.0,-34.5,0.5,0.25,0.0,0.25,0.5,0.0,0.25,0.0,0.0,0.0,0.5,1.25,2.75,0.14,-0.67,0.58,97.82,-0.5,-58.2
2.48,2.0,0.0,0.0,0.0,0.0,0.0,0.0,1.25,0.5,1.25,0.0,0.75,1.5,-0.55,-1.05,0.77,72.13,2.2,-32.2,0.5,0.25,0.0,0.0,0.0,0.0,0.25,0.0,0.0,0.0,0.25,1.25,2.75,0.08,-0.55,0.52,92.36,0.3,-75.8
2.5,2.25,0.0,0.0,0.25,0.0,0.0,0.0,1.25,0.5,1.25,0.0,0.75,1.5,-0.36,-0.86,0.83,98.74,3.7,-25.2,0.5,0.25,0.0,0.5,0.25,0.0,0.25,0.0,0.0,0.0,0.25,1.5,2.75,-0.05,-0.55,0.58,92.63,-1.3,-59.9
2.52,2.0,0.0,0.0,0.25,0.0,0.0,0.0,1.25,0.75,1.5,0.75,0.75,1.25,-0.36,-0.8,0.83,115.58,3.7,-32.2,0.5,0.25,0.0,0.25,0.0,0.0,0.0,0.0,0.0,0.0,0.5,1.5,2.75,-0.11,-0.48,0.7,92.06,-0.6,-73.3
2.54,2.0,0.0,0.0,0.0,0.0,0.0,0.0,1.5,0.75,1.5,0.0,0.75,1.25,-0.36,-0.73,0.83,125.49,1.9,-31.4,0.5,0.5,0.0,0.5,0.5,0.0,0.0,0.25,0.0,0.25,0.75,1.25,2.75,-0.11,-0.42,0.58,99.98,-0.2,-50.5
2.56,2.25,0.0,0.0,0.0,0.0,0.0,0.0,1.25,0.5,1.75,0.25,0.75,1.25,-0.42,-0.8,0.64,128.5,2.8,-29.9,0.5,0.5,0.0,0.25,0.0,0.0,0.25,0.0,0.0,0.0,0.5,1.25,2.75,-0.17,-0.36,0.45,99.54,-1.4,-62.3
2.58,2.25,0.0,0.0,0.0,0.0,0.0,0.0,1.5,0.5,1.5,0.0,0.25,1.0,-0.48,-0.8,0.64,123.33,2.7,-18.2,0.5,0.25,0.0,0.5,0.0,0.0,0.25,0.0,0.0,0.25,0.25,1.5,2.75,-0.17,-0.3,0.45,101.02,-0.9,-65.8
2.6,2.5,0.0,0.25,0.0,0.0,0.0,0.0,1.5,0.5,1.5,0.0,0.25,1.0,-0.48,-0.73,0.7,124.81,5.0,-11.7,0.25,0.5,0.0,0.25,0.0,0.0,0.0,0.0,0.0,0.0,0.5,1.25,2.75,-0.05,-0.3,0.39,96.9,0.5,-70.9
2.62,0.75,0.0,0.25,0.0,0.0,0.0,0.0,0.0,0.0,0.0,0.0,0.0,0.5,-0.67,-0.73,0.64,93.24,18.5,18.8,0.25,0.25,0.0,0.25,0.0,0.0,0.25,0.25,0.0,0.25,0.75,1.25,2.75,0.02,-0.36,0.39,97.84,1.3,-75.2
2.64,0.75,0.0,0.0,0.0,0.0,0.0,0.0,0.0,0.0,0.0,0.0,0.0,0.5,-0.73,-0.67,0.64,61.71,14.3,9.8,0.5,0.5,0.0,0.5,0.25,0.0,0.25,0.25,0.0,0.0,0.75,1.5,2.75,0.14,-0.48,0.27,103.09,-1.7,-54.5
2.66,0.75,0.0,0.0,0.0,0.0,0.0,0.0,0.0,0.25,0.25,0.0,0.0,0.5,-0.67,-0.55,0.52,34.47,9.6,-9.5,0.5,0.25,0.0,0.5,0.0,0.0,0.25,0.0,0.0,0.0,0.5,1.25,2.75,0.08,-0.48,0.27,103.32,-1.6,-64.0
2.68,2.0,0.0,0.0,0.0,0.0,0.0,0.0,1.5,0.5,1.5,0.0,0.25,0.75,-0.61,-0.42,0.45,42.07,2.2,-18.7,0.25,0.25,0.0,0.5,0.25,0.0,0.25,0.0,0.0,0.0,0.75,1.25,2.75,0.02,-0.48,0.2,104.09,-0.5,-65.0
2.7,2.0,0.0,0.0,0.0,0.0,0.0,0.0,1.5,0.0,0.0,0.0,0.0,0.5,-0.55,-0.3,0.39,42.92,8.5,17.5,0.25,0.25,0.0,0.25,0.0,0.0,0.25,0.25,0.0,0.0,0.75,2.0,2.75,0.02,-0.55,0.27,106.4,-0.3,-79.0
2.72,0.75,0.0,0.0,0.0,0.0,0.0,0.0,0.0,0.0,0.0,0.0,0.0,0.0,-0.55,-0.17,0.33,36.88,35.0,97.9,0.25,0.25,0.0,0.25,0.5,0.0,0.25,0.25,0.0,0.0,0.5,1.25,2.75,0.02,-0.61,0.33,105.94,1.4,-63.2
2.74,2.0,0.0,0.0,0.0,0.0,0.0,0.0,0.0,0.5,1.5,0.0,0.0,0.5,-0.55,-0.05,0.2,40.63,9.3,-1.4,0.25,0.25,0.0,0.0,0.25,0.0,0.25,0.25,0.0,0.0,0.5,1.25,2.75,0.02,-0.67,0.33,102.28,2.1,-74.7
2.76,2.0,0.0,0.0,0.0,0.0,0.0,0.0,1.0,0.25,1.5,0.0,0.0,0.5,-0.55,-0.05,0.08,47.69,4.0,-6.9,0.5,0.25,0.0,0.0,0.0,0.0,0.25,0.25,0.0,0.0,0.5,1.25,2.75,0.02,-0.61,0.2,98.92,0.5,-74.2
2.78,0.75,0.0,0.0,0.0,0.0,0.0,0.0,0.0,0.0,0.0,0.0,0.0,0.0,-0.61,-0.05,0.14,37.28,35.0,97.9,0.25,0.25,0.0,0.25,0.5,0.0,0.0,0.25,0.0,0.0,0.5,1.25,2.75,0.02,-0.67,0.33,97.67,2.0,-65.0
2.8,1.75,0.0,0.0,0.0,0.0,0.0,0.0,0.0,0.0,0.25,0.0,0.0,0.25,-0.48,-0.05,0.14,34.78,23.2,52.6,0.25,0.25,0.0,0.5,0.25,0.0,0.25,0.25,0.0,0.0,0.5,1.25,2.75,0.08,-0.67,0.33,98.55,0.5,-63.6
2.82,1.0,0.0,0.0,0.0,0.0,0.0,0.0,1.5,0.0,0.25,0.5,0.0,0.5,-0.42,-0.17,0.08,39.01,0.4,-21.3,0.5,0.5,0.0,0.5,0.0,0.0,0.25,0.25,0.0,0.0,0.5,1.25,2.75,0.08,-0.67,0.33,100.1,-1.4,-56.4
2.84,2.5,0.0,0.0,0.0,0.0,0.0,0.0,1.5,0.25,1.75,0.5,0.25,0.5,-0.48,-0.42,-0.11,63.79,4.5,-12.9,0.5,0.25,0.0,0.5,0.25,0.0,0.25,0.25,0.0,0.0,0.75,1.25,2.75,0.08,-0.73,0.33,103.15,-1.1,-58.4
2.86,1.75,0.0,0.0,0.0,0.0,0.0,0.0,0.75,0.5,1.0,0.0,0.0,0.0,-0.42,-0.67,-0.11,72.44,8.9,9.3,0.5,0.25,0.0,0.0,0.5,0.0,0.25,0.0,0.0,0.0,1.0,1.25,2.5,0.14,-0.73,0.39,102.47,-1.2,-62.3
2.88,2.5,0.0,0.0,0.0,0.0,0.0,0.0,0.75,0.25,1.25,0.5,0.5,0.5,-0.36,-0.73,0.02,87.33,9.0,-8.5,0.75,0.25,0.0,0.0,0.25,0.0,0.25,0.25,0.0,0.0,0.5,1.5,2.5,0.14,-0.73,0.45,101.63,-1.5,-61.6
2.9,1.5,0.0,0.25,0.0,0.0,0.0,0.0,1.5,0.0,0.5,0.75,0.5,0.5,-0.3,-0.8,0.14,86.7,5.7,-20.2,0.5,0.5,0.0,0.25,0.0,0.0,0.25,0.25,0.0,0.0,0.25,1.25,2.75,0.2,-0.8,0.45,99.64,-0.3,-60.7
2.92,0.75,0.0,0.0,0.0,0.0,0.0,0.0,0.0,0.0,0.0,0.0,0.0,0.0,-0.36,-0.73,0.27,63.86,35.0,97.9,0.5,0.5,0.0,0.0,0.0,0.0,0.25,0.0,0.0,0.0,0.5,1.5,2.5,0.2,-0.8,0.45,96.39,-1.7,-67.8
2.94,0.75,0.0,0.0,0.0,0.0,0.0,0.0,0.0,0.0,0.0,0.0,0.0,0.0,-0.3,-0.67,0.2,42.83,35.0,97.9,0.5,0.25,0.0,0.25,1.0,0.0,0.25,0.0,0.0,0.0,0.75,1.25,2.5,0.14,-0.8,0.39,98.14,-1.1,-47.3
2.96,0.75,0.0,0.0,0.0,0.0,0.0,0.0,0.0,0.0,0.0,0.0,0.0,0.0,-0.23,-0.55,0.14,23.93,35.0,97.9,0.5,0.25,0.0,0.25,0.25,0.0,0.25,0.0,0.0,0.0,0.25,1.25,2.75,0.2,-0.8,0.45,97.13,-0.3,-63.1
2.98,0.75,0.0,0.0,0.0,0.0,0.0,0.0,0.75,0.0,0.0,0.0,0.0,0.5,-0.23,-0.42,0.2,16.36,2.4,-8.7,0.5,0.25,0.0,0.0,0.25,0.0,0.25,0.0,0.0,0.0,0.5,1.25,2.75,0.27,-0.8,0.52,96.6,0.0,-69.2
3.0,0.75,0.0,0.0,0.0,0.0,0.0,0.0,0.0,0.0,0.0,0.0,0.0,0.25,-0.3,-0.36,0.2,11.88,21.9,42.0,0.5,0.25,0.0,0.25,0.25,0.0,0.0,0.25,0.0,0.0,0.5,1.25,2.75,0.2,-0.8,0.58,96.21,0.5,-64.4
3.02,1.0,0.0,0.0,0.0,0.0,0.0,0.0,0.0,0.0,0.0,0.0,0.0,0.5,-0.36,-0.36,0.14,16.68,17.6,24.0,0.5,0.25,0.0,0.0,1.0,0.0,0.25,0.75,0.0,0.0,1.0,1.25,2.75,0.2,-0.8,0.52,104.68,1.3,-53.0
3.04,0.75,0.0,0.0,0.0,0.0,0.0,0.0,0.0,0.0,0.0,0.0,0.0,0.0,-0.42,-0.42,0.14,9.76,35.0,97.9,0.5,0.25,0.0,0.25,1.0,0.0,0.25,0.25,0.0,0.0,0.5,1.25,2.75,0.2,-0.8,0.58,108.39,0.3,-48.3
3.06,0.75,0.0,0.0,0.0,0.0,0.0,0.0,1.5,0.0,0.0,0.75,0.0,0.75,-0.48,-0.55,0.14,20.64,-0.9,-34.9,0.5,0.25,0.0,0.0,0.25,0.0,0.25,0.0,0.0,0.0,0.5,1.25,2.75,0.27,-0.8,0.58,106.73,0.0,-69.2
3.08,0.75,0.0,0.0,0.0,0.0,0.0,0.0,0.0,0.0,0.5,0.0,0.0,0.0,-0.48,-0.67,0.27,18.33,13.8,25.6,0.5,0.25,0.0,0.5,0.5,0.0,0.25,0.0,0.0,0.0,0.5,1.25,2.75,0.33,-0.8,0.58,105.09,-1.2,-53.5
3.1,1.0,0.0,0.0,0.0,0.0,0.0,0.0,0.0,0.0,0.0,0.0,0.0,0.5,-0.55,-0.73,0.33,23.65,17.6,24.0,0.5,0.25,0.0,0.0,0.0,0.0,0.25,0.0,0.0,0.0,0.5,1.25,2.5,0.33,-0.8,0.58,97.93,-0.8,-74.1
3.12,1.25,0.0,0.0,0.0,0.0,0.0,0.0,0.0,0.0,0.0,0.0,0.0,0.5,-0.61,-0.8,0.33,22.53,20.0,34.3,0.5,0.25,0.0,0.0,0.25,0.0,0.25,0.0,0.0,0.0,0.5,1.25,2.75,0.27,-0.8,0.58,94.88,0.0,-69.2
3.14,0.75,0.0,0.0,0.0,0.0,0.0,0.0,0.0,0.0,0.0,0.0,0.5,0.5,-0.55,-0.73,0.39,25.98,12.7,-24.8,0.5,0.25,0.0,0.0,0.0,0.0,0.0,0.25,0.0,0.0,0.5,1.25,2.75,0.27,-0.8,0.52,92.51,1.2,-76.4
3.16,2.5,0.0,0.25,0.5,0.0,0.0,0.0,1.25,0.5,0.75,0.75,0.75,1.0,-0.48,-0.67,0.39,62.57,9.1,-12.2,0.5,0.25,0.0,0.0,0.0,0.0,0.0,0.25,0.0,0.0,0.5,1.25,2.5,0.27,-0.8,0.58,91.05,0.6,-74.7
3.18,2.25,0.0,0.25,0.25,0.0,0.0,0.0,1.5,0.75,0.75,0.75,0.75,0.75,-0.48,-0.67,0.39,91.46,8.1,-16.3,0.25,0.5,0.0,0.25,0.5,0.0,0.25,0.5,0.0,0.0,0.5,1.25,2.5,0.27,-0.8,0.64,93.45,0.9,-54.0
3.2,2.0,0.0,0.25,0.25,0.0,0.0,0.25,1.5,0.5,0.75,1.25,0.0,1.0,-0.55,-0.67,0.39,115.24,6.8,-16.2,0.25,0.25,0.0,0.25,0.25,0.0,0.0,0.0,0.0,0.0,0.75,1.25,2.75,0.27,-0.73,0.58,95.21,0.8,-72.4
3.22,2.0,0.0,0.25,0.0,0.0,0.0,0.25,1.25,0.5,0.0,1.0,0.0,0.5,-0.55,-0.67,0.45,115.51,12.3,0.8,0.25,0.25,0.0,0.0,0.0,0.0,0.25,0.25,0.0,0.0,0.5,1.25,2.75,0.27,-0.67,0.52,94.68,2.1,-81.6
3.24,0.75,0.0,0.0,0.0,0.0,0.0,0.0,0.0,0.0,0.0,0.0,0.0,0.5,-0.48,-0.67,0.52,90.53,14.3,9.8,0.5,0.25,0.0,0.25,0.0,0.0,0.25,0.0,0.0,0.0,0.5,1.25,2.5,0.27,-0.73,0.58,91.46,-1.6,-67.7
3.26,0.75,0.0,0.0,0.0,0.0,0.0,0.0,0.0,0.0,0.0,0.0,0.0,0.5,-0.55,-0.67,0.52,60.03,14.3,9.8,0.25,0.25,0.0,0.0,0.0,0.0,0.25,0.0,0.0,0.0,0.75,1.25,2.5,0.27,-0.73,0.64,88.77,0.2,-81.9
3.28,2.25,0.0,0.0,0.25,0.0,0.0,0.0,1.5,0.5,0.75,1.25,0.5,1.0,-0.55,-0.67,0.52,69.51,6.4,-21.9,0.5,0.25,0.0,0.25,0.0,0.0,0.25,0.0,0.0,0.0,0.5,1.25,2.25,0.27,-0.67,0.58,86.63,-2.4,-65.6
3.3,1.25,0.0,0.25,0.0,0.0,0.0,0.0,1.0,0.0,0.0,1.0,0.0,0.75,-0.61,-0.67,0.52,69.37,8.1,-16.0,0.5,0.25,0.0,0.25,0.25,0.0,0.25,0.0,0.0,0.0,0.5,1.25,2.5,0.27,-0.61,0.58,87.98,-1.4,-61.5
3.32,0.75,0.0,0.0,0.0,0.0,0.0,0.0,0.0,0.0,0.0,0.0,0.0,0.5,-0.61,-0.67,0.52,61.02,14.3,9.8,0.25,0.0,0.0,0.0,0.25,0.5,0.25,0.0,0.0,0.0,0.5,1.5,2.5,0.27,-0.61,0.58,90.03,2.9,-75.1
3.34,0.75,0.0,0.0,0.0,0.0,0.0,0.0,0.0,0.0,0.0,0.0,0.0,0.5,-0.61,-0.67,0.52,42.14,14.3,9.8,0.25,0.25,0.0,0.0,0.25,0.0,0.25,0.0,0.0,0.25,0.25,1.5,2.5,0.27,-0.61,0.64,91.97,1.6,-76.3
3.36,1.5,0.0,0.0,0.0,0.0,0.0,0.0,0.0,0.75,1.0,0.0,0.75,0.5,-0.67,-0.67,0.58,40.65,9.5,-23.9,0.25,0.25,0.0,0.25,0.0,0.0,0.0,0.0,0.0,0.0,0.5,1.25,2.25,0.33,-0.61,0.64,88.37,0.0,-75.9
3.38,2.25,0.0,0.25,0.25,0.0,0.0,0.0,1.0,0.5,1.0,0.75,0.5,1.0,-0.61,-0.73,0.58,57.17,8.0,-16.2,0.5,0.25,0.0,0.0,0.25,0.0,0.0,0.0,0.0,0.0,0.5,1.25,2.25,0.33,-0.61,0.64,85.78,-0.6,-67.4
3.4,2.0,0.0,0.0,0.25,0.0,0.0,0.0,1.25,0.25,0.75,1.0,0.75,1.0,-0.61,-0.67,0.52,76.96,6.0,-25.9,0.5,0.25,0.0,0.0,0.0,0.0,0.25,0.0,0.0,0.0,0.25,1.5,2.0,0.33,-0.61,0.64,81.06,-2.4,-72.0
3.42,2.25,0.0,0.5,0.25,0.0,0.0,0.0,1.0,0.25,0.75,1.0,0.25,0.75,-0.55,-0.67,0.52,98.27,10.8,-5.5,0.25,0.25,0.0,0.25,0.0,0.0,0.25,0.0,0.0,0.0,0.5,1.25,2.25,0.33,-0.61,0.64,79.46,-0.8,-73.3
3.44,2.0,0.0,0.25,0.25,0.0,0.0,0.0,1.0,0.5,0.75,1.0,0.75,1.0,-0.55,-0.67,0.58,109.98,8.1,-22.9,0.5,0.25,0.0,0.0,0.0,0.0,0.25,0.0,0.0,0.0,0.5,1.25,2.25,0.33,-0.61,0.7,79.41,-1.6,-72.2
3.46,2.0,0.0,0.25,0.5,0.0,0.0,0.0,1.0,0.5,1.0,1.25,0.75,1.0,-0.61,-0.67,0.58,120.08,7.7,-23.4,0.25,0.25,0.0,0.0,0.0,0.0,0.0,0.25,0.0,0.0,0.5,1.25,1.75,0.33,-0.61,0.64,77.23,0.2,-77.8
3.48,2.0,0.0,0.25,0.5,0.0,0.0,0.0,1.0,0.5,1.0,0.75,0.75,1.0,-0.61,-0.61,0.64,124.4,7.6,-20.1,0.25,0.25,0.0,0.25,1.0,0.0,0.25,0.25,0.0,0.25,0.5,1.25,2.0,0.33,-0.61,0.7,83.41,0.6,-47.3
3.5,2.0,0.0,0.25,0.25,0.0,0.0,0.0,0.75,0.5,1.0,0.75,0.5,0.75,-0.55,-0.61,0.58,120.22,8.9,-15.7,0.5,0.25,0.0,0.25,0.5,0.0,0.25,0.0,0.0,0.0,0.5,1.25,2.25,0.33,-0.61,0.64,86.56,-1.8,-53.5
3.52,2.0,0.0,0.25,0.5,0.0,0.0,0.0,0.75,0.5,1.0,0.75,0.25,0.75,-0.55,-0.55,0.58,114.23,9.2,-9.3,0.5,0.25,0.0,0.25,0.0,0.0,0.25,0.0,0.0,0.0,0.5,1.25,2.25,0.33,-0.61,0.64,88.2,-2.4,-65.6
3.54,2.25,0.0,0.25,0.25,0.0,0.0,0.0,0.75,0.75,0.25,1.0,0.25,1.0,-0.61,-0.55,0.58,113.27,11.9,-8.1,0.25,0.25,0.0,0.0,0.0,0.0,0.25,0.0,0.0,0.0,0.5,1.25,2.25,0.33,-0.61,0.64,85.19,0.0,-80.7
3.56,2.0,0.0,0.0,0.25,0.0,0.0,0.0,1.25,0.5,1.0,0.75,0.25,0.75,-0.61,-0.55,0.64,110.21,5.8,-16.9,0.5,0.25,0.0,0.5,0.0,0.0,0.0,0.0,0.0,0.0,0.25,1.25,2.25,0.33,-0.55,0.7,83.81,-2.0,-60.9
3.58,2.0,0.0,0.0,0.5,0.0,0.0,0.0,0.0,0.5,1.0,1.0,0.25,0.75,-0.61,-0.55,0.64,101.86,11.3,-11.3,0.25,0.25,0.0,0.5,0.0,0.0,0.0,0.0,0.0,0.0,0.5,1.25,2.0,0.33,-0.55,0.7,81.36,-1.7,-66.7
3.6,2.0,0.0,0.25,0.25,0.0,0.0,0.0,1.25,0.5,1.25,0.75,0.75,1.0,-0.61,-0.55,0.64,102.86,5.7,-25.1,0.25,0.25,0.0,0.25,0.0,0.0,0.25,0.0,0.0,0.0,0.5,1.25,2.25,0.33,-0.55,0.64,81.7,-0.8,-73.3
3.62,1.75,0.0,0.25,0.5,0.0,0.0,0.0,1.0,0.5,1.0,0.75,0.75,0.75,-0.61,-0.55,0.64,102.26,7.4,-20.8,0.5,0.5,0.0,0.25,0.0,0.0,0.25,0.0,0.0,0.0,0.5,1.25,2.0,0.33,-0.55,0.64,82.02,-3.7,-55.1
3.64,1.75,0.0,0.25,0.25,0.0,0.0,0.0,1.0,0.5,1.0,1.0,0.75,1.0,-0.55,-0.55,0.64,106.28,6.5,-28.5,0.5,0.25,0.0,0.0,1.25,0.0,0.0,0.25,0.0,0.0,0.5,1.25,1.75,0.33,-0.55,0.7,85.52,-0.3,-39.0
3.66,1.5,0.0,0.25,0.5,0.0,0.0,0.0,0.75,0.5,1.0,1.0,0.75,0.75,-0.55,-0.55,0.64,104.92,7.5,-26.1,0.25,0.25,0.0,0.5,0.25,0.0,0.0,0.0,0.0,0.0,0.5,1.25,1.75,0.33,-0.55,0.7,83.5,-2.2,-57.2
3.68,1.75,0.0,0.25,0.25,0.0,0.0,0.0,0.75,0.5,1.0,1.0,0.75,0.5,-0.55,-0.55,0.64,102.73,8.9,-21.7,0.5,0.5,0.0,0.0,0.0,0.0,0.0,0.0,0.0,0.0,0.25,1.25,1.75,0.33,-0.55,0.7,79.01,-2.7,-59.9
3.7,1.75,0.0,0.25,0.25,0.0,0.0,0.0,0.75,0.5,0.75,1.0,0.75,0.75,-0.55,-0.55,0.64,99.46,9.0,-23.1,0.5,0.25,0.0,0.0,0.5,0.0,0.25,0.0,0.0,0.0,0.5,1.25,2.0,0.33,-0.55,0.7,78.44,-1.8,-56.4
3.72,1.5,0.0,0.25,0.25,0.0,0.0,0.0,0.75,0.5,1.0,0.75,0.75,0.75,-0.55,-0.55,0.64,97.35,7.0,-27.6,0.5,0.25,0.0,0.0,0.25,0.0,0.25,0.0,0.0,0.0,0.5,1.25,2.25,0.33,-0.55,0.7,78.86,-1.3,-65.2
3.74,1.5,0.0,0.25,0.25,0.0,0.0,0.0,0.5,0.5,1.0,1.0,0.5,1.0,-0.55,-0.55,0.64,96.25,7.1,-29.1,0.5,0.25,0.0,0.0,0.0,0.0,0.25,0.0,0.0,0.0,0.5,1.25,2.0,0.33,-0.55,0.7,79.51,-2.4,-70.1
3.76,1.75,0.0,0.25,0.25,0.0,0.0,0.0,1.0,0.5,1.25,0.75,0.5,1.0,-0.55,-0.48,0.7,98.3,5.4,-25.7,0.5,0.25,0.0,0.25,0.0,0.0,0.25,0.0,0.0,0.0,0.5,1.25,2.0,0.33,-0.61,0.7,80.42,-3.2,-63.3
3.78,1.5,0.0,0.25,0.25,0.0,0.0,0.0,0.75,0.5,1.0,1.0,0.75,0.5,-0.55,-0.48,0.7,97.29,7.9,-26.1,0.5,0.5,0.0,0.25,0.25,0.0,0.25,0.0,0.0,0.0,0.25,1.25,2.25,0.33,-0.61,0.7,82.6,-2.2,-51.0
3.8,1.5,0.0,0.25,0.25,0.0,0.0,0.0,1.0,0.5,1.0,0.75,0.25,0.75,-0.55,-0.48,0.64,95.51,5.9,-21.4,0.5,0.5,0.0,0.0,1.25,0.0,0.25,0.0,0.0,0.0,0.5,1.25,1.75,0.33,-0.61,0.7,85.7,-2.2,-31.8
3.82,1.75,0.0,0.25,0.0,0.0,0.0,0.0,0.75,0.5,1.0,0.75,0.75,0.75,-0.55,-0.48,0.64,93.55,7.6,-26.5,0.25,0.25,0.0,0.0,1.25,0.0,0.25,0.0,0.0,0.0,0.5,1.25,1.75,0.33,-0.55,0.64,87.34,-0.3,-43.3
3.84,1.75,0.0,0.25,0.25,0.0,0.0,0.0,1.0,0.5,0.75,0.75,0.5,0.75,-0.55,-0.48,0.64,92.27,7.9,-18.4,0.5,0.25,0.0,0.25,0.25,0.0,0.25,0.0,0.0,0.0,0.5,1.25,1.75,0.33,-0.55,0.64,85.76,-3.7,-53.9
3.86,1.5,0.0,0.25,0.0,0.0,0.0,0.0,1.0,0.5,0.75,0.75,0.25,0.75,-0.55,-0.48,0.64,89.15,6.3,-22.7,0.25,0.25,0.0,0.0,0.25,0.0,0.25,0.0,0.0,0.0,0.5,1.25,1.75,0.33,-0.61,0.7,81.45,-1.3,-68.6
3.88,1.75,0.0,0.5,0.25,0.0,0.0,0.0,0.5,0.5,1.0,0.75,0.75,1.0,-0.61,-0.48,0.64,92.72,9.2,-22.7,0.5,0.25,0.0,0.0,0.0,0.0,0.25,0.0,0.0,0.0,0.25,1.25,2.0,0.33,-0.55,0.7,77.09,-2.0,-69.8
3.9,1.75,0.0,0.5,0.25,0.0,0.0,0.0,0.5,0.5,1.0,0.75,0.75,1.0,-0.61,-0.48,0.64,96.2,9.2,-22.7,0.25,0.25,0.0,0.0,0.0,0.0,0.25,0.0,0.0,0.0,0.25,1.25,1.75,0.27,-0.55,0.64,72.36,-1.1,-77.2
3.92,1.75,0.0,0.25,0.25,0.0,0.0,0.0,0.0,0.75,0.75,1.0,0.75,0.75,-0.55,-0.48,0.64,96.3,12.2,-21.9,0.25,0.25,0.0,0.0,0.0,0.0,0.0,0.0,0.0,0.0,0.5,1.25,1.75,0.27,-0.55,0.64,69.51,-0.7,-80.2
3.94,1.75,0.0,0.25,0.25,0.0,0.0,0.0,0.5,0.75,0.75,1.0,0.75,0.75,-0.55,-0.48,0.64,97.09,10.0,-23.1,0.5,0.25,0.0,0.0,0.0,0.0,0.25,0.0,0.0,0.0,0.5,1.25,1.75,0.27,-0.55,0.7,68.32,-3.4,-67.8
3.96,1.75,0.0,0.25,0.25,0.0,0.0,0.0,0.0,0.75,1.0,1.0,0.75,1.0,-0.61,-0.48,0.7,97.39,10.2,-27.3,0.5,0.25,0.0,0.0,1.25,0.0,0.0,0.0,0.0,0.0,1.0,1.25,1.75,0.27,-0.55,0.7,76.95,-1.8,-41.8
3.98,1.75,0.0,0.25,0.5,0.0,0.0,0.0,0.25,0.75,0.75,0.75,0.5,0.75,-0.55,-0.48,0.7,95.92,11.5,-13.5,0.5,0.25,0.0,0.0,0.0,0.0,0.25,0.0,0.0,0.0,0.5,1.25,1.75,0.27,-0.55,0.7,77.37,-3.4,-67.8
4.0,1.75,0.0,0.25,0.25,0.0,0.0,0.0,0.0,0.5,1.0,1.0,0.5,0.75,-0.55,-0.48,0.64,92.72,11.2,-19.7,0.5,0.25,0.0,0.0,0.25,0.0,0.25,0.0,0.0,0.0,0.25,1.25,1.75,0.27,-0.55,0.7,76.89,-2.6,-59.4
4.02,1.75,0.0,0.25,0.25,0.0,0.0,0.0,0.25,1.0,0.5,0.75,0.75,0.75,-0.61,-0.42,0.64,92.33,12.2,-18.9,0.25,0.25,0.0,0.0,0.0,0.0,0.25,0.0,0.0,0.0,0.5,1.25,1.75,0.27,-0.55,0.64,72.99,-1.6,-77.1
