time,left pressure 0[N/cm²],left pressure 1[N/cm²],left pressure 2[N/cm²],left pressure 3[N/cm²],left pressure 4[N/cm²],left pressure 5[N/cm²],left pressure 6[N/cm²],left pressure 7[N/cm²],left pressure 8[N/cm²],left pressure 9[N/cm²],left pressure 10[N/cm²],left pressure 11[N/cm²],left pressure 12[N/cm²],left acceleration X[g],left acceleration Y[g],left acceleration Z[g],left total force[N],left center of pressure X[mm],left center of pressure Y[mm],right pressure 0[N/cm²],right pressure 1[N/cm²],right pressure 2[N/cm²],right pressure 3[N/cm²],right pressure 4[N/cm²],right pressure 5[N/cm²],right pressure 6[N/cm²],right pressure 7[N/cm²],right pressure 8[N/cm²],right pressure 9[N/cm²],right pressure 10[N/cm²],right pressure 11[N/cm²],right pressure 12[N/cm²],right acceleration X[g],right acceleration Y[g],right acceleration Z[g],right total force[N],right center of pressure X[mm],right center of pressure Y[mm]
0.02,0.0,1.25,2.0,3.25,7.0,2.75,0.75,6.5,3.25,7.0,6.5,4.0,5.5,-0.17,0.02,0.95,636.3,-1.4,-28.8,9.25,4.25,12.5,12.5,8.75,2.0,2.75,3.25,0.25,0.5,1.25,1.25,0.75,0.14,0.2,1.14,1164.29,-16.7,50.0
0.04,0.0,0.75,0.75,0.25,6.5,2.75,0.75,6.75,2.75,7.0,6.5,4.0,5.5,-0.17,0.02,0.95,629.39,-4.3,-40.0,9.0,4.75,12.5,12.5,7.75,2.5,3.0,3.25,1.0,1.0,1.5,1.25,0.75,0.08,0.14,1.08,1221.81,-16.3,47.4
0.06,0.0,0.5,1.25,1.25,0.0,2.5,0.75,6.5,2.5,7.0,6.25,4.0,5.5,-0.17,0.02,0.95,587.27,-3.4,-55.9,9.0,4.5,13.5,11.5,8.25,2.5,3.0,3.25,1.0,1.0,1.5,1.0,0.75,0.14,0.14,1.02,1250.26,-16.5,47.9
0.08,0.5,0.0,1.0,0.0,0.0,1.5,0.5,6.5,1.75,7.0,6.0,4.0,5.5,-0.23,0.08,1.02,525.85,-4.3,-64.5,9.0,4.5,13.0,11.0,8.0,2.5,2.25,3.25,0.75,0.75,1.5,1.0,0.75,0.14,0.14,0.95,1228.35,-16.5,48.7
0.1,1.25,0.75,0.25,0.25,0.0,0.5,0.0,6.0,1.5,6.0,5.5,4.0,5.5,-0.23,0.14,1.02,455.72,-3.4,-62.6,8.25,4.25,11.0,10.5,8.0,2.5,2.25,3.25,0.5,1.0,1.0,0.5,0.25,0.14,0.2,0.89,1140.12,-15.7,51.2
0.12,1.25,1.0,0.0,1.0,0.0,0.5,0.25,5.25,1.25,5.25,4.75,3.0,5.25,-0.3,0.27,1.39,395.04,-3.0,-56.7,8.25,3.0,11.5,9.25,8.0,1.5,1.25,3.25,0.5,0.0,1.0,0.25,0.0,0.08,0.2,0.83,1013.55,-17.4,54.7
0.14,2.5,1.25,0.0,1.0,0.0,0.5,3.25,6.25,0.75,3.5,4.75,2.0,2.75,-0.36,0.33,1.64,348.04,1.2,-35.1,7.75,3.75,9.25,9.5,8.0,1.25,1.5,3.25,0.25,0.0,0.0,0.25,0.0,0.08,0.2,0.89,885.16,-16.5,58.0
0.16,0.75,0.0,0.0,0.25,0.0,0.0,0.0,3.5,0.75,2.75,1.75,1.0,1.5,-0.3,0.14,1.2,263.73,-4.7,-57.0,7.5,2.75,9.25,7.75,7.25,2.25,1.5,3.25,0.25,0.75,0.25,1.0,0.5,0.14,0.2,0.89,780.38,-15.0,48.8
0.18,1.25,1.0,0.0,0.5,0.0,0.0,0.0,3.0,0.75,2.75,1.75,1.5,1.25,-0.17,0.14,1.08,201.49,-0.5,-39.3,6.75,3.5,9.25,8.5,8.0,3.75,1.25,4.5,1.0,1.25,1.5,1.0,0.75,0.14,0.2,0.89,755.88,-12.0,40.4
0.2,1.25,1.0,0.0,0.75,0.0,0.0,0.0,3.25,0.75,2.0,1.5,0.0,0.75,-0.55,3.58,0.02,136.5,-0.4,-21.2,5.75,2.75,8.5,7.75,8.5,4.75,1.25,5.5,1.0,2.75,1.5,1.75,0.75,0.2,0.14,0.95,764.64,-9.0,31.2
0.22,0.25,0.0,0.0,0.25,0.0,0.0,0.25,1.75,0.5,2.5,0.25,0.0,0.5,0.27,2.95,1.33,72.38,-8.2,-50.5,5.0,2.75,8.25,7.75,8.5,4.75,1.25,5.5,1.5,3.0,2.5,1.75,1.0,0.2,0.14,0.95,796.3,-8.3,26.5
0.24,1.25,0.75,0.0,0.5,0.0,0.0,0.0,1.75,0.0,1.5,0.75,0.0,0.5,0.95,2.02,0.95,26.73,1.0,-10.2,4.5,2.75,7.5,7.0,8.0,5.25,1.5,6.25,1.5,4.25,3.25,1.75,1.25,0.2,0.14,0.95,820.37,-6.5,19.5
0.26,1.25,0.0,0.0,0.25,0.0,0.0,0.0,1.75,0.25,1.5,0.75,0.0,0.5,0.02,2.14,0.95,6.4,-0.6,-28.0,3.75,2.5,7.25,6.25,8.0,6.0,1.25,6.5,1.75,5.5,4.0,2.5,1.75,0.2,0.14,0.95,847.2,-4.8,11.1
0.28,1.25,0.0,0.0,0.25,0.0,0.0,0.25,2.0,0.25,0.75,1.75,0.0,0.5,-0.48,1.77,1.08,6.15,2.6,-28.9,3.0,2.75,6.5,6.25,8.0,6.0,1.5,7.25,2.25,5.5,5.0,2.5,2.75,0.2,0.08,0.95,880.1,-3.6,5.3
0.3,0.5,0.0,0.0,0.25,0.0,0.0,0.0,1.5,0.0,1.0,0.5,0.0,0.5,-0.11,1.39,1.33,0.0,-5.1,-39.2,3.0,2.75,6.5,6.75,8.0,6.0,1.5,7.25,2.25,5.75,5.0,2.5,1.5,0.2,0.14,0.95,911.67,-4.1,7.9
0.32,0.5,0.0,1.25,0.25,0.0,0.0,0.0,1.5,0.0,1.0,1.25,0.0,0.5,-0.11,1.14,1.39,12.79,5.6,-22.8,3.0,2.75,6.5,7.5,8.0,6.25,1.5,7.5,2.25,6.25,5.0,2.5,1.5,0.27,0.14,0.89,953.43,-3.9,7.8
0.34,1.0,0.0,0.25,0.25,0.0,0.0,0.0,1.25,0.0,1.0,0.25,0.0,0.5,-0.23,1.02,1.33,15.98,1.3,-17.1,3.0,2.75,6.5,7.5,9.0,6.75,1.25,7.75,2.25,6.5,5.0,2.5,2.25,0.27,0.14,0.95,1004.36,-3.1,6.8
0.36,1.25,0.0,0.0,0.25,0.0,0.0,0.0,1.0,0.0,1.75,0.25,0.0,0.25,-0.11,0.89,1.27,27.48,0.0,-18.8,3.0,2.75,6.25,7.5,9.0,7.0,1.5,7.75,2.25,6.25,5.0,2.25,2.5,0.27,0.14,0.95,1042.16,-2.9,7.1
0.38,1.5,1.0,0.5,0.25,0.0,0.0,0.0,1.75,0.75,2.0,0.5,0.0,0.25,-0.05,0.77,1.27,59.21,4.2,-3.1,3.0,2.75,5.0,6.75,9.0,7.0,1.25,7.75,1.75,6.25,4.75,1.75,2.5,0.27,0.14,0.95,1036.96,-1.8,6.9
0.4,4.5,3.75,2.25,4.75,0.0,0.0,1.0,3.75,2.0,5.25,3.25,0.0,2.75,-0.11,0.58,1.2,207.21,7.9,2.1,2.25,2.5,5.0,6.0,8.75,7.0,1.25,7.75,1.25,5.5,3.75,1.75,1.75,0.27,0.14,0.95,980.56,-1.3,8.9
0.42,5.75,4.25,5.5,6.5,0.0,3.25,2.75,5.5,1.0,2.25,5.5,0.0,3.75,-0.23,0.39,1.08,368.95,9.8,13.3,2.0,1.75,2.75,4.5,8.0,7.0,1.0,7.25,1.0,4.25,2.75,1.0,1.25,0.2,0.14,0.95,846.51,1.0,9.9
0.44,1.5,0.0,0.75,0.75,0.0,0.0,1.75,3.75,0.25,1.5,2.0,0.0,0.5,-0.36,0.27,0.95,375.27,4.2,-18.5,0.5,1.25,2.0,1.25,7.25,6.0,0.75,6.25,0.25,2.0,0.0,1.0,0.25,0.14,0.14,1.08,637.97,4.7,16.6
0.46,1.5,0.25,0.5,0.75,0.0,0.0,1.5,3.75,0.75,1.5,1.5,0.0,0.25,-0.61,0.14,0.83,334.32,3.8,-14.5,1.5,1.0,1.5,0.0,6.25,5.5,0.75,5.25,0.0,0.0,0.75,0.25,0.5,0.08,0.2,1.33,444.76,4.0,24.0
0.48,1.5,0.0,0.5,0.5,0.0,0.0,1.25,3.0,0.25,1.75,1.5,0.0,0.25,-0.73,0.08,0.83,252.6,3.5,-18.5,0.25,0.0,0.25,0.0,3.5,0.0,0.75,4.0,0.0,0.0,0.5,0.0,0.25,-0.3,0.58,1.64,265.97,5.0,4.6
0.5,1.5,0.25,0.75,0.75,0.0,0.0,1.5,2.75,0.75,2.0,1.0,0.0,0.25,-0.73,0.02,0.77,201.73,5.3,-10.5,1.25,1.0,0.0,0.0,8.0,2.0,0.25,3.25,0.0,0.0,0.5,0.0,0.25,-0.3,1.95,0.83,186.13,3.9,33.7
0.52,2.25,0.25,2.25,0.75,0.0,0.0,1.25,1.25,0.0,0.0,0.5,0.0,0.25,-0.73,-0.17,0.77,158.5,22.2,39.8,0.25,0.0,0.0,0.0,3.5,0.0,0.75,1.75,0.0,0.0,0.0,0.0,0.0,0.33,4.27,-0.61,76.32,3.5,28.4
0.54,1.0,0.0,0.0,0.5,0.0,0.0,1.5,2.75,1.0,1.25,1.75,0.0,0.0,-0.55,-0.48,0.7,150.75,3.3,-25.4,0.25,0.0,0.0,0.0,0.0,0.0,0.0,1.75,0.0,0.0,0.0,0.0,0.0,-1.8,2.33,0.7,0.0,10.7,-22.7
0.56,0.75,0.0,0.5,0.75,0.0,0.0,1.0,3.0,0.0,1.75,0.75,0.75,0.75,-0.23,-1.05,0.77,137.7,0.0,-32.8,0.0,0.0,0.0,0.0,0.0,0.0,0.0,1.75,0.0,0.0,0.0,0.25,0.0,-1.05,2.33,1.02,0.0,13.6,-47.6
0.58,0.5,0.25,0.0,0.25,0.0,0.0,0.0,1.0,0.0,1.0,0.0,0.0,0.0,0.27,-2.61,2.14,91.65,-2.8,-9.3,0.0,0.0,0.0,0.0,0.0,0.0,0.0,1.75,0.0,0.0,0.0,0.5,0.0,-0.17,1.89,1.02,0.0,11.1,-54.5
0.6,0.0,0.5,0.75,2.5,0.0,0.0,0.0,1.75,0.0,1.75,1.0,0.0,0.25,-0.36,-2.86,4.77,78.45,3.6,-5.9,0.0,0.0,0.0,0.0,0.0,0.0,0.0,1.75,0.0,0.0,0.0,0.25,0.0,0.52,1.89,0.45,0.0,13.6,-47.6
0.62,4.5,2.5,2.25,5.25,0.0,0.0,0.25,1.75,0.0,2.5,1.25,0.0,0.5,-0.05,1.14,0.83,132.83,14.6,35.0,0.25,0.0,0.0,0.0,0.0,0.0,0.0,1.75,0.0,0.0,0.0,0.25,0.0,0.39,1.64,0.52,0.0,8.5,-32.4
0.64,7.0,1.75,5.25,7.25,0.0,0.0,0.25,1.75,0.0,0.75,1.25,0.25,0.5,-0.8,1.2,1.95,217.93,21.5,49.7,0.0,0.0,0.0,0.0,0.0,0.0,0.0,1.75,0.0,0.0,0.0,0.0,0.0,0.2,1.14,1.08,0.0,16.7,-38.7
0.66,0.0,4.75,0.0,9.0,0.0,0.0,0.0,0.0,0.0,1.75,0.0,0.0,0.0,0.08,0.33,1.64,260.19,12.2,55.8,0.0,0.0,0.0,0.0,0.0,0.0,0.0,1.5,0.0,0.0,0.0,0.25,0.0,0.39,0.64,1.45,0.0,13.1,-48.9
0.68,9.0,5.25,0.0,10.5,0.0,0.0,0.0,1.75,0.75,1.5,1.5,0.0,0.5,0.39,-0.05,1.45,361.62,16.7,52.6,0.0,0.0,0.0,0.0,0.0,0.0,0.0,1.5,0.0,0.0,0.0,0.25,0.0,0.7,0.52,0.95,0.0,13.1,-48.9
0.7,9.25,5.25,0.0,11.5,0.0,0.5,0.0,2.25,0.75,1.75,1.5,0.0,0.5,0.2,0.08,1.39,432.26,15.6,50.5,0.0,0.0,0.0,0.0,0.0,0.0,0.0,1.5,0.0,0.0,0.0,0.25,0.0,0.45,0.58,0.89,0.0,13.1,-48.9
0.72,9.0,5.25,9.25,11.0,0.0,1.25,0.0,2.25,1.5,1.75,1.5,1.0,0.5,-0.23,0.14,1.27,579.51,19.5,47.0,0.0,0.0,0.0,0.0,0.0,0.0,0.0,1.5,0.0,0.0,0.0,0.25,0.0,0.27,0.45,0.89,4.15,13.1,-48.9
0.74,9.25,5.5,9.25,11.5,0.0,1.75,1.0,2.75,0.75,2.0,1.75,0.75,0.5,-0.3,0.14,1.64,708.94,18.7,47.4,0.0,0.0,0.0,0.0,0.0,0.0,0.0,1.25,0.0,0.0,0.0,0.25,0.0,0.08,0.27,1.02,6.8,12.5,-50.5
0.76,9.0,5.25,9.5,11.0,9.25,2.0,1.75,3.5,1.75,2.0,1.75,0.75,0.5,-0.17,0.08,1.45,916.85,14.1,45.3,0.0,0.0,0.0,0.0,0.0,0.0,0.0,0.5,0.0,0.0,0.0,0.25,0.0,-0.05,0.14,1.02,16.44,8.2,-62.4
0.78,8.75,5.0,9.5,10.5,9.0,2.0,2.5,4.0,1.75,2.25,2.25,1.0,1.0,-0.11,0.08,1.08,1062.22,13.5,40.4,0.0,0.0,0.0,0.0,2.25,0.0,0.5,1.75,0.0,0.0,0.5,0.25,0.25,-0.05,-0.05,1.08,42.25,4.7,-2.5
0.8,8.25,4.0,9.5,10.5,8.75,2.0,2.5,4.25,2.25,2.25,2.5,0.75,1.0,-0.11,0.02,1.02,1159.17,13.3,38.0,0.0,0.0,0.0,0.0,0.0,0.0,0.0,1.0,0.0,0.0,0.0,0.25,0.0,-0.05,-0.42,1.2,38.96,11.6,-52.9
0.82,8.0,4.0,9.0,9.5,8.5,1.5,2.25,4.0,2.25,2.25,2.5,1.0,1.0,-0.11,0.08,0.95,1168.74,13.4,36.9,0.0,0.0,0.0,0.0,0.0,0.0,0.0,0.75,0.0,0.0,0.0,0.25,0.0,-0.17,-0.92,1.14,36.28,10.4,-56.4
0.84,7.5,3.5,8.5,9.0,8.0,1.5,1.75,3.75,2.25,2.5,2.25,1.0,1.0,-0.11,0.08,0.95,1107.79,13.1,35.5,0.0,0.0,0.0,0.0,0.0,0.0,0.0,0.25,0.25,0.0,0.0,0.25,0.0,-0.05,-1.8,0.52,24.19,-1.3,-62.4
0.86,7.0,2.75,8.25,7.25,7.75,1.5,1.75,3.75,2.25,2.75,2.5,1.0,1.0,-0.11,0.08,0.95,1007.43,12.5,31.8,0.0,0.0,0.0,0.0,3.25,0.0,0.5,1.75,0.0,0.0,0.0,0.25,0.0,0.14,-2.05,0.83,47.16,5.3,18.7
0.88,5.75,2.5,7.75,0.0,7.5,1.5,1.5,4.25,2.25,3.5,2.75,1.5,1.25,-0.11,0.08,0.95,868.6,9.8,18.4,0.25,1.0,0.0,0.0,0.0,0.0,0.25,0.0,0.0,0.0,0.0,0.25,0.0,1.33,-3.36,0.08,44.24,-16.6,61.7
0.9,4.5,1.5,7.25,5.5,7.5,1.25,1.5,4.75,2.75,3.75,3.0,1.75,1.75,-0.11,0.08,0.95,795.27,9.2,14.7,4.75,2.5,5.75,5.0,3.75,0.0,1.0,1.75,0.25,0.25,0.25,0.25,0.5,0.14,1.33,3.7,179.19,-18.0,53.3
0.92,4.0,1.25,5.5,4.75,6.0,1.5,1.5,4.75,2.75,3.75,3.25,2.0,1.75,-0.11,0.08,0.95,690.29,7.8,7.9,6.5,2.75,9.0,6.0,5.25,0.5,0.75,1.5,0.0,0.0,0.0,0.25,0.0,0.95,0.27,-0.3,304.14,-20.1,62.4
0.94,2.75,1.25,4.75,3.25,6.0,1.5,1.25,5.5,2.75,5.0,4.5,2.5,2.25,-0.17,0.02,0.95,633.28,4.9,-5.5,7.5,3.5,11.5,9.75,6.25,2.25,0.75,2.75,0.0,0.0,0.25,0.75,0.25,0.08,0.33,1.7,529.51,-17.6,55.8
0.96,2.0,1.25,2.25,0.0,0.0,0.75,1.0,6.0,2.75,6.0,5.0,3.0,3.0,-0.17,0.02,0.95,515.91,1.3,-41.3,8.25,4.5,12.5,12.0,8.0,2.5,1.0,3.25,0.25,0.0,0.25,1.0,0.25,-0.05,0.14,1.64,782.44,-16.8,55.1
0.98,2.0,1.25,2.0,1.0,0.0,1.25,1.0,6.0,2.75,6.5,6.0,4.0,4.25,-0.17,0.02,0.95,467.17,0.9,-43.8,8.0,3.75,13.5,11.5,9.25,4.25,2.25,3.25,0.25,0.25,0.0,0.75,0.25,0.08,0.2,1.77,1017.52,-15.6,54.1
1.0,2.0,1.25,2.0,2.5,0.0,1.25,0.75,6.5,2.5,7.0,6.25,4.75,5.75,-0.17,0.02,0.95,451.72,0.6,-44.3,8.5,4.5,13.5,13.0,10.5,5.0,3.75,4.5,1.0,1.25,1.5,1.0,0.25,0.2,0.2,1.33,1243.3,-13.9,46.6
1.02,1.25,1.0,2.0,1.75,0.0,0.75,0.5,6.5,1.75,7.5,7.0,5.5,6.25,-0.17,0.02,0.95,483.59,-0.3,-53.7,8.75,4.5,13.0,13.0,9.75,5.0,4.5,5.5,1.0,0.0,2.0,1.75,1.0,0.14,0.14,1.08,1374.9,-13.8,43.1
1.04,0.0,1.25,2.0,1.75,0.0,0.5,0.25,6.5,2.0,7.75,6.75,5.5,6.75,-0.23,0.02,0.95,520.76,-1.5,-58.4,8.5,4.25,12.5,11.5,9.0,4.75,4.5,5.5,1.25,1.25,2.0,1.25,0.5,0.14,0.14,1.02,1433.77,-13.5,41.9
1.06,0.0,1.0,0.0,1.5,0.0,0.75,0.25,6.5,1.75,7.75,7.0,5.5,7.0,-0.23,0.02,0.95,545.85,-4.0,-66.5,7.75,2.75,12.5,9.5,8.0,2.5,3.25,4.5,1.0,0.0,0.75,0.5,0.0,0.14,0.14,0.95,1358.31,-16.4,50.1
1.08,0.0,1.0,1.75,0.75,0.0,0.5,0.25,6.5,1.5,7.75,7.0,6.0,7.5,-0.23,0.02,1.02,567.13,-2.5,-65.1,7.5,2.75,11.0,8.25,7.75,2.5,3.25,4.5,1.0,0.0,0.75,1.0,0.0,0.08,0.14,0.89,1223.05,-15.6,47.7
1.1,0.0,0.75,1.75,0.5,0.0,0.75,0.25,6.0,1.5,7.75,7.0,6.0,7.75,-0.23,0.02,1.08,578.2,-2.8,-67.0,7.5,2.75,11.5,9.25,8.0,2.75,3.5,4.5,1.0,1.25,2.25,1.75,0.5,0.08,0.14,0.89,1104.94,-14.5,38.5
1.12,0.0,0.75,1.75,0.75,0.0,0.0,0.25,5.5,1.5,7.25,6.0,6.0,7.0,-0.3,0.08,1.2,572.62,-2.0,-67.2,7.25,2.75,11.0,7.75,7.75,2.5,3.25,4.5,1.0,1.25,2.75,1.75,0.75,0.08,0.14,0.89,1011.62,-14.1,35.7
1.14,0.0,0.0,1.75,0.0,0.0,0.0,0.0,4.75,0.0,0.0,6.0,0.75,7.5,-0.36,0.08,1.39,458.46,-2.2,-69.3,6.75,2.25,10.5,6.75,6.25,2.5,3.0,4.5,1.5,1.5,2.75,1.75,1.0,0.08,0.14,0.95,908.87,-13.9,31.1
1.16,0.0,0.75,0.0,0.0,0.0,0.0,0.0,3.75,0.75,5.0,5.25,0.0,7.0,-0.48,0.2,1.64,380.12,-7.3,-73.1,5.75,1.75,10.0,5.75,6.25,2.5,3.0,4.5,1.5,3.25,3.75,2.25,1.0,0.08,0.14,0.89,837.61,-12.1,21.2
1.18,0.0,0.0,0.5,0.25,0.0,0.0,0.0,3.5,0.25,2.0,3.75,0.0,6.25,-0.61,0.14,1.45,292.17,-6.7,-74.2,4.5,1.25,9.25,4.0,6.0,2.5,3.0,5.5,1.75,4.25,4.5,3.25,1.75,0.08,0.14,0.95,769.76,-9.5,7.3
1.2,1.25,0.5,0.25,0.5,0.0,0.0,0.0,2.75,0.0,2.75,3.0,0.0,3.75,-0.42,0.08,1.27,237.63,-3.0,-50.6,4.5,1.25,9.0,2.0,5.0,2.0,2.5,5.5,2.25,6.25,5.75,4.5,3.5,0.08,0.14,0.95,732.15,-7.8,-8.3
1.22,1.25,0.5,0.0,0.5,0.0,0.0,0.0,2.5,0.0,2.0,2.25,0.75,2.25,-0.42,0.14,1.08,171.24,-1.5,-46.3,3.0,1.0,8.5,1.5,3.75,1.75,2.25,5.5,2.5,7.25,7.5,6.0,5.25,0.08,0.14,0.95,721.23,-6.1,-24.2
1.24,3.5,1.25,0.0,1.75,0.0,1.0,3.0,5.5,2.25,2.75,2.75,1.25,1.75,-1.17,5.77,-0.42,188.06,3.7,-16.7,2.5,1.0,7.25,0.5,3.5,1.25,2.25,5.5,2.25,8.25,8.25,6.75,7.0,0.02,0.14,0.95,734.04,-4.2,-35.1
1.26,1.75,0.25,0.0,0.5,0.0,0.0,2.25,4.5,0.0,2.0,2.0,0.75,1.0,1.02,2.64,2.08,165.8,0.7,-30.7,2.0,1.0,5.25,1.25,3.5,0.0,1.75,5.75,2.25,8.75,9.0,7.75,8.0,0.02,0.08,0.95,769.89,-2.9,-43.8
1.28,1.25,0.5,0.0,0.5,0.0,0.0,0.25,1.75,0.0,1.75,1.75,0.75,0.5,0.08,2.14,1.14,136.59,2.4,-30.4,1.75,1.0,4.75,1.25,3.5,0.0,1.25,5.5,2.25,9.25,9.75,7.75,8.75,-0.05,0.08,1.02,817.3,-2.1,-47.2
1.3,0.75,0.0,0.0,0.25,0.0,0.0,0.0,1.75,0.0,2.0,0.75,0.75,0.75,-0.61,1.52,0.7,90.1,-4.0,-51.2,1.75,1.25,1.75,1.0,0.0,0.0,0.75,4.5,1.75,8.75,9.25,8.25,8.75,-0.05,0.02,0.95,806.86,-0.5,-63.4
1.32,0.25,0.0,0.0,0.25,0.0,0.0,0.0,1.5,0.0,1.0,0.25,0.0,0.0,-0.3,0.83,1.2,37.55,-7.9,-35.2,0.5,0.0,0.5,0.0,0.0,0.0,0.5,3.25,1.5,8.75,9.25,8.5,9.25,-0.05,0.02,0.95,751.74,2.1,-81.9
1.34,0.25,0.0,0.0,0.0,0.0,0.0,0.0,1.0,0.0,0.75,0.0,0.0,0.0,-0.17,0.52,1.14,0.0,-10.2,-36.6,0.5,0.0,0.0,0.0,0.0,0.0,0.5,3.25,1.0,8.75,9.25,8.75,9.5,-0.05,0.02,1.08,690.64,2.8,-84.6
1.36,0.25,0.0,0.0,0.0,0.0,0.0,0.0,1.0,0.0,1.75,0.0,0.75,0.25,-0.17,0.27,1.14,0.0,-8.2,-64.7,0.5,0.0,0.0,0.0,0.0,0.0,0.25,1.75,0.75,8.75,9.25,9.25,10.0,-0.05,0.02,1.02,652.53,2.4,-87.5
1.38,0.5,0.0,0.0,0.0,0.0,0.0,0.0,1.0,0.0,0.5,0.0,0.0,0.25,-0.05,0.08,1.33,0.0,-5.3,-26.5,0.25,0.0,0.0,0.0,0.0,0.0,0.25,0.25,0.0,8.25,9.0,9.25,10.5,-0.05,0.02,1.08,615.89,2.5,-92.1
1.4,1.5,0.0,0.0,0.5,0.0,0.0,0.0,1.0,0.0,1.75,0.0,0.75,0.25,0.08,0.08,1.14,9.72,2.9,-20.0,0.75,0.0,0.0,0.0,0.0,0.0,0.25,0.0,0.25,8.0,8.75,9.25,9.75,-0.05,-0.05,1.08,584.94,1.5,-89.6
1.42,1.5,0.0,0.0,0.5,0.0,0.0,0.0,1.75,0.0,1.75,0.0,0.75,0.5,0.02,0.14,0.95,34.29,0.1,-25.5,0.25,0.0,0.0,0.0,0.0,0.0,0.25,0.0,0.25,8.0,8.5,9.25,10.5,-0.05,-0.05,1.02,563.69,2.3,-92.4
1.44,0.75,0.0,0.0,0.0,0.0,0.0,0.0,1.75,0.0,0.5,0.5,0.75,0.5,-0.05,0.14,1.02,47.34,-1.6,-45.1,0.25,0.0,0.0,0.0,0.0,0.0,0.0,0.0,0.25,7.5,7.75,9.25,10.5,-0.05,-0.11,0.95,539.9,2.5,-93.4
1.46,1.5,0.25,0.0,0.5,0.0,0.0,0.0,1.75,0.0,1.75,0.75,0.75,0.75,-0.23,-0.05,1.2,66.68,1.0,-28.8,0.25,0.0,0.0,0.0,0.0,0.0,0.0,0.0,0.25,7.0,7.75,8.5,10.5,-0.11,-0.11,1.14,518.34,2.6,-93.3
1.48,0.75,0.0,0.0,0.5,0.0,0.0,0.0,1.75,0.0,1.0,0.75,0.0,0.5,-0.3,0.02,1.08,67.36,-2.0,-29.8,0.25,0.0,0.0,0.0,0.0,0.0,0.0,0.0,0.25,6.75,7.25,8.0,9.75,0.02,-0.17,1.14,490.64,2.6,-93.1
1.5,1.25,0.0,0.0,0.25,0.0,0.0,0.0,1.75,0.0,1.75,0.0,0.75,0.0,-0.36,-0.05,1.27,83.54,-0.8,-26.8,0.0,0.0,0.0,0.0,0.0,0.0,0.0,0.0,0.25,6.25,6.25,7.5,9.25,0.14,-0.17,1.08,455.4,3.1,-94.9
1.52,1.25,0.0,0.0,0.0,0.0,0.0,0.0,1.75,0.0,1.75,0.0,0.75,0.0,-0.42,0.02,1.2,84.94,-1.7,-30.9,0.25,0.0,0.0,0.0,0.0,1.75,0.0,0.0,0.25,6.75,5.5,6.75,8.75,0.14,-0.3,0.77,429.52,4.6,-85.8
1.54,0.0,0.0,0.0,0.0,0.0,0.0,0.0,1.75,0.0,1.75,1.25,0.75,0.0,-0.55,0.02,1.14,90.81,-6.8,-68.4,0.0,0.0,0.0,0.0,0.0,0.0,0.0,0.0,0.0,5.0,5.0,6.5,8.5,-0.05,-0.3,0.89,393.42,3.5,-96.3
1.56,0.0,0.0,0.0,0.0,0.0,0.0,0.0,1.75,0.0,0.25,0.0,0.0,0.0,-0.61,-0.17,1.27,73.97,-16.6,-43.3,0.5,0.0,0.0,0.5,0.0,0.0,0.0,0.0,0.25,5.5,3.75,6.0,8.0,-0.05,-0.3,1.08,364.18,3.2,-88.8
1.58,0.25,0.0,0.0,0.0,0.0,0.0,0.0,1.25,0.0,0.75,0.0,0.25,0.0,-0.61,-0.23,1.27,59.31,-9.0,-44.1,1.25,0.75,0.0,0.0,0.0,0.0,0.5,0.0,0.25,3.25,3.75,5.5,7.75,-0.05,-0.36,1.08,328.01,0.4,-79.5
1.6,0.25,0.0,0.0,0.0,0.0,0.0,0.0,1.0,0.0,2.0,0.25,0.75,0.25,-0.61,-0.17,1.02,55.02,-7.6,-65.9,0.0,0.0,0.0,0.0,0.0,0.0,0.0,0.0,0.25,0.0,2.75,3.0,5.75,0.02,-0.3,1.33,263.96,1.9,-100.6
1.62,0.75,0.0,0.0,0.25,0.0,0.0,0.0,1.75,0.0,1.75,1.25,0.75,0.5,-0.61,-0.17,0.95,71.32,-2.1,-49.9,0.0,0.0,0.0,0.0,0.0,0.0,0.0,0.0,0.0,0.0,0.5,1.75,3.25,0.08,0.64,1.08,178.66,4.5,-106.9
1.64,0.5,0.0,0.0,0.0,0.0,0.0,0.0,1.75,0.0,1.0,1.25,0.5,0.5,-0.48,-0.23,1.02,78.73,-3.3,-55.2,0.0,0.0,0.0,0.0,0.0,0.0,0.0,0.0,0.25,1.5,0.5,2.5,2.75,0.02,2.14,1.08,107.37,4.2,-98.5
1.66,0.25,0.0,0.0,0.5,0.0,0.0,0.25,4.0,0.0,1.75,2.25,0.75,0.0,-0.17,-2.11,1.2,108.23,-4.5,-49.9,1.0,1.0,0.0,0.0,1.25,0.0,0.5,0.0,0.25,1.25,1.5,2.25,3.75,0.33,1.33,1.77,83.35,-1.1,-47.7
1.68,1.5,0.0,0.75,1.5,0.0,0.0,0.0,5.0,0.0,2.75,2.75,1.5,1.75,-0.55,-5.61,-0.05,164.67,-0.2,-39.5,1.25,0.75,0.0,0.0,1.25,0.0,0.5,0.0,0.25,1.0,1.5,2.25,3.75,0.33,1.64,1.14,88.04,-1.8,-47.4
1.7,0.0,0.0,1.25,0.0,0.0,0.0,4.0,5.25,0.0,2.0,2.75,1.75,2.5,0.39,-2.36,-0.67,212.2,0.0,-51.5,0.5,0.5,0.0,0.0,1.25,0.0,0.25,0.0,0.25,1.25,1.5,1.75,3.5,0.02,1.2,1.52,101.28,1.1,-57.4
1.72,0.0,0.0,2.75,0.0,0.0,0.0,0.0,1.75,0.0,1.5,2.5,0.0,4.0,-1.86,3.14,7.95,229.13,1.9,-51.0,0.5,1.0,0.0,0.0,1.75,0.0,0.25,0.0,0.25,1.0,1.5,1.75,3.0,-0.23,0.89,1.08,111.11,-0.2,-41.6
1.74,0.0,0.5,2.75,2.75,0.0,0.0,1.75,0.5,0.0,2.0,1.5,1.25,2.5,0.83,-1.11,1.77,235.97,9.6,-19.2,1.0,1.0,0.0,0.0,1.0,0.0,0.25,0.0,0.25,1.25,1.5,1.75,2.75,-0.36,0.45,1.14,113.42,-1.9,-42.4
1.76,0.0,1.0,2.75,2.5,0.0,0.0,0.0,1.75,0.75,3.0,2.25,1.75,3.25,0.08,0.39,0.58,249.84,4.7,-32.2,1.25,0.5,0.0,0.0,1.25,0.0,0.5,0.0,0.25,1.0,1.5,1.75,2.75,-0.11,0.02,1.02,115.83,-2.8,-42.0
1.78,0.0,0.0,4.25,1.0,0.0,0.0,0.0,1.5,0.75,3.5,3.0,0.0,4.25,0.08,0.7,-0.05,261.01,4.6,-39.2,0.75,0.75,0.0,0.0,1.25,0.0,0.25,0.0,0.25,1.0,1.5,1.75,2.75,0.02,-0.36,0.52,123.83,-1.2,-45.6
1.8,0.25,1.25,5.5,6.25,0.0,0.0,0.0,2.75,0.0,4.75,3.5,4.0,4.5,-0.23,0.27,1.52,327.46,7.2,-23.8,0.5,0.25,0.0,0.0,1.0,0.0,0.25,0.0,0.25,0.75,1.5,1.75,2.75,0.14,-0.86,0.2,128.15,-0.3,-60.0
1.82,0.5,0.0,5.25,5.5,0.0,0.0,0.0,3.5,0.0,5.0,3.75,0.0,6.25,-0.42,0.14,1.52,376.48,4.5,-26.0,1.0,0.5,0.0,0.0,1.25,0.0,0.5,0.0,0.25,1.25,1.5,1.75,2.75,0.02,-1.42,0.27,140.48,-1.6,-45.9
1.84,0.5,0.0,5.25,4.25,0.0,0.0,0.0,4.5,0.0,5.5,4.5,5.5,6.75,-0.23,0.08,1.27,464.43,3.7,-44.4,1.0,0.5,0.0,0.0,1.0,0.0,0.25,0.0,0.25,0.75,1.5,1.75,2.75,-0.11,-1.67,0.02,149.01,-2.3,-48.2
1.86,0.25,0.0,4.25,2.5,0.0,0.0,0.0,4.75,0.0,6.0,5.0,5.5,7.0,-0.17,0.02,1.08,516.71,1.3,-55.0,0.5,0.0,0.0,0.0,1.25,0.0,0.25,0.0,0.0,1.25,1.5,3.25,3.0,-0.36,-4.11,-0.05,160.19,0.1,-69.8
1.88,0.25,0.0,2.0,2.5,0.0,0.0,0.0,4.75,0.0,6.25,5.0,5.5,7.25,-0.23,0.08,0.95,553.64,-1.4,-63.6,2.0,0.75,0.0,0.0,1.0,0.0,0.25,0.0,0.25,2.25,2.0,3.25,4.5,1.02,-7.11,0.33,184.96,-1.7,-53.3
1.9,0.0,0.0,1.0,0.0,0.0,0.0,0.0,4.75,0.75,6.0,4.75,5.5,7.5,-0.23,0.08,0.95,539.43,-4.3,-79.1,0.75,0.5,0.0,0.0,2.25,0.0,0.25,0.25,0.0,7.5,6.75,7.5,9.5,-4.3,6.27,7.89,294.39,2.6,-76.1
1.92,0.0,0.0,0.0,0.0,0.0,0.0,0.0,4.75,0.0,0.0,4.25,0.0,7.5,-0.23,0.02,0.95,436.79,-8.5,-81.0,0.5,0.5,0.0,0.0,1.75,0.0,0.25,0.0,0.0,6.25,7.75,6.75,9.25,1.33,-0.86,5.08,398.67,2.0,-78.9
1.94,0.0,0.0,0.0,0.0,0.0,0.0,0.0,4.5,0.0,6.25,4.0,6.0,7.25,-0.23,0.08,0.89,418.31,-6.4,-86.0,1.0,0.5,0.0,0.0,2.5,0.0,0.25,0.0,0.25,5.5,5.0,6.0,8.0,-1.23,-0.55,-1.17,480.41,1.9,-70.0
1.96,0.0,0.0,0.25,0.0,0.0,0.0,0.0,4.75,0.0,6.5,5.0,6.0,7.75,-0.23,0.2,1.08,417.35,-5.8,-84.4,1.25,0.75,0.0,0.0,1.75,0.0,0.25,0.0,0.25,6.0,5.0,6.75,8.5,0.52,-0.23,-0.17,514.03,1.6,-72.6
1.98,1.25,0.0,0.0,0.0,0.0,0.25,0.0,4.5,0.75,6.25,5.0,6.0,8.0,-0.17,-0.05,1.14,450.37,-4.2,-77.6,0.75,0.5,0.0,0.0,1.25,0.0,0.0,0.0,0.0,6.25,5.25,7.25,9.0,2.02,-0.23,0.89,524.12,2.6,-81.0
2.0,0.75,0.25,1.25,0.0,0.0,0.0,0.0,3.75,0.0,5.5,4.75,5.5,7.5,-0.23,-0.36,1.14,450.11,-2.7,-74.6,1.0,0.75,0.0,0.0,1.5,0.0,0.25,0.0,0.0,6.25,5.0,7.25,9.25,-0.11,-0.17,0.89,524.58,2.2,-76.8
2.02,0.0,0.0,1.75,0.0,0.0,0.0,0.0,4.25,0.0,6.25,4.5,5.5,7.5,-0.11,-0.23,0.7,453.25,-3.7,-77.2,0.25,0.0,0.0,0.0,1.25,0.0,0.25,0.0,0.0,5.5,4.5,6.5,9.0,-0.23,-0.55,0.02,507.24,3.7,-86.5
2.04,0.5,0.0,0.0,0.5,0.0,0.0,0.0,3.5,0.0,7.0,4.75,5.5,7.5,-0.67,1.2,0.83,431.08,-5.1,-81.4,1.25,0.5,0.0,0.0,1.75,0.0,0.25,0.0,0.0,4.25,3.25,5.5,8.0,0.2,-0.36,1.08,470.17,2.1,-71.6
2.06,1.25,0.5,1.5,1.0,0.0,0.0,0.0,3.75,0.0,7.25,5.0,6.25,8.0,-0.11,-0.11,1.14,450.68,-1.6,-67.2,0.5,0.75,0.0,0.0,1.25,0.0,0.25,0.0,0.0,1.25,1.5,3.0,5.75,0.64,-0.42,1.83,366.99,2.3,-67.9
2.08,1.25,0.5,1.25,0.25,0.0,0.0,0.0,3.75,0.0,7.75,5.0,6.0,0.0,-0.48,0.14,1.02,412.57,0.8,-58.4,0.75,0.25,0.0,0.0,1.0,0.0,0.25,0.0,0.0,1.25,1.5,2.25,3.75,0.45,-1.98,2.45,275.84,0.8,-64.7
2.1,0.0,0.0,1.0,0.5,0.0,0.0,0.0,3.75,0.0,7.75,4.75,6.25,0.0,0.08,-0.3,0.89,385.07,-1.3,-69.8,0.5,0.5,0.0,0.0,0.5,0.0,0.25,0.0,0.0,1.0,1.0,1.75,3.75,0.02,-1.17,2.2,193.21,1.9,-68.4
2.12,0.0,0.0,0.5,0.0,0.0,0.0,0.0,3.75,0.0,7.75,5.0,5.5,8.25,-0.23,-0.17,0.64,393.4,-5.8,-84.3,0.75,0.5,0.0,0.0,1.0,0.0,0.25,0.0,0.25,0.75,1.25,2.0,3.5,-0.23,-0.23,1.95,132.54,-0.3,-57.0
2.14,0.0,0.0,1.5,0.5,0.0,0.0,0.0,4.25,0.0,7.75,4.75,5.5,8.0,-0.55,0.02,0.2,422.94,-4.3,-76.5,0.5,0.5,0.0,0.0,1.0,0.0,0.25,0.0,0.0,0.25,0.5,1.75,3.0,0.02,-0.17,1.45,79.63,0.3,-54.1
2.16,0.0,0.0,0.75,0.5,0.0,0.0,0.0,4.75,0.0,7.75,4.25,0.0,8.0,-0.8,0.33,1.33,418.75,-8.8,-72.9,0.5,0.5,0.0,0.0,0.5,0.0,0.25,0.0,0.25,0.5,1.0,1.75,3.0,0.08,-0.11,1.33,69.8,-0.4,-63.2
2.18,0.0,0.5,0.5,0.5,0.0,0.0,0.0,4.75,0.0,7.75,3.75,0.0,8.0,-0.23,-0.05,1.02,392.5,-9.2,-70.8,0.0,0.0,0.0,0.0,0.5,0.0,0.25,0.0,0.25,0.0,0.75,2.0,3.0,0.2,-0.17,1.2,58.46,1.7,-87.1
2.2,1.0,0.25,0.25,0.25,0.0,0.0,0.0,4.75,0.0,7.0,3.25,4.0,7.75,-0.48,-0.23,0.95,386.6,-6.2,-74.0,0.75,0.0,0.0,0.0,0.25,0.0,0.25,0.0,0.0,0.5,0.75,1.75,2.75,0.33,-0.3,1.02,50.64,-0.5,-73.4
2.22,0.75,0.25,0.25,0.25,0.0,0.0,0.0,4.5,0.0,6.25,2.75,3.0,6.75,-0.42,-0.8,1.08,366.11,-6.9,-73.0,0.75,0.25,0.0,0.0,0.0,0.0,0.25,0.0,0.0,0.25,0.75,1.75,2.75,0.33,-0.23,1.02,48.25,-1.8,-72.2
2.24,1.25,0.0,0.0,0.0,0.0,0.0,0.0,3.5,0.0,4.0,2.25,0.0,5.5,-0.3,-0.05,1.27,313.69,-8.1,-67.2,0.5,0.25,0.0,0.0,0.0,0.0,0.25,0.0,0.25,0.25,0.75,1.75,2.75,0.39,-0.23,1.14,55.89,-1.0,-76.9
2.26,1.5,0.25,0.0,0.25,0.0,0.0,0.0,2.25,0.0,3.5,1.5,0.0,0.0,-0.36,-0.36,1.77,239.23,-2.2,-31.0,0.75,0.25,0.0,0.0,1.0,0.0,0.25,0.0,0.25,0.25,0.75,1.75,2.75,0.45,-0.11,1.08,74.05,-1.4,-53.0
2.28,1.75,0.0,0.0,0.5,0.0,0.0,0.0,1.75,0.0,1.75,1.25,1.0,0.0,-1.3,-1.3,2.08,160.1,3.9,-26.7,0.5,0.25,0.0,0.0,1.25,0.0,0.25,0.0,0.25,0.25,0.5,1.75,2.75,0.39,-0.17,0.89,92.07,0.0,-52.9
2.3,1.5,0.0,0.0,0.5,0.0,0.0,0.0,1.75,0.0,2.0,1.0,0.75,1.75,-0.86,-0.11,2.52,102.5,-1.1,-44.0,0.5,0.5,0.0,0.0,0.5,0.0,0.25,0.0,0.25,0.0,0.5,1.75,2.75,0.27,-0.23,0.89,105.65,-1.3,-59.7
2.32,1.25,0.0,0.0,0.25,0.0,0.0,0.0,1.75,0.0,2.0,1.0,0.75,0.0,-0.36,0.27,1.7,68.74,0.2,-35.4,1.0,0.25,0.0,0.0,0.5,0.0,0.25,0.0,0.25,0.0,0.25,1.75,2.75,0.2,-0.3,0.89,107.86,-2.9,-54.5
2.34,1.5,0.0,0.0,0.25,0.0,0.0,0.0,1.75,0.0,2.0,0.75,0.75,0.75,-0.98,0.45,1.39,52.48,-0.4,-37.6,1.0,0.5,0.0,0.0,0.25,0.0,0.25,0.0,0.25,0.0,0.5,1.75,2.75,0.14,-0.48,0.89,108.22,-3.7,-54.0
2.36,1.5,0.0,0.0,0.0,0.0,0.0,0.0,1.75,0.0,1.75,0.25,0.75,0.25,-0.92,0.33,1.2,33.41,-0.3,-31.1,0.5,0.25,0.0,0.0,0.25,0.0,0.25,0.0,0.25,0.0,0.5,1.75,2.75,0.14,-0.67,1.08,105.92,-1.1,-71.2
2.38,0.25,0.0,0.0,0.0,0.0,0.0,0.0,0.25,0.0,1.25,0.0,0.25,0.0,-0.92,0.2,0.95,8.01,-6.7,-54.7,0.5,0.5,0.0,0.0,0.25,0.0,0.25,0.0,0.25,0.0,0.5,1.75,2.75,0.2,-0.98,0.95,107.02,-1.5,-64.6
2.4,1.75,0.0,0.0,0.0,0.0,0.0,0.0,0.25,0.0,1.0,0.0,0.0,0.5,-0.86,-0.05,0.7,0.0,8.8,5.3,0.5,0.25,0.0,0.0,0.0,0.0,0.25,0.0,0.25,0.0,0.75,1.75,2.75,0.14,-1.17,0.89,106.04,-1.7,-77.0
2.42,1.5,0.0,0.0,0.0,0.0,0.0,0.0,0.0,0.0,0.75,0.0,0.25,0.25,-0.8,-0.11,0.77,0.0,13.5,9.3,0.5,0.25,0.0,0.0,1.0,0.0,0.25,0.0,0.25,0.0,0.5,1.75,2.75,0.08,-1.11,0.77,109.31,-0.6,-56.3
2.44,0.25,0.0,0.0,0.0,0.0,0.0,0.0,0.25,0.0,1.0,0.0,0.0,0.0,-0.8,-0.17,0.95,0.0,-7.9,-42.0,0.5,0.25,0.0,0.0,1.0,0.0,0.25,0.0,0.25,0.0,0.75,1.75,2.75,0.08,-0.92,0.83,112.63,-0.9,-57.0
2.46,0.0,0.0,0.0,0.0,0.0,0.0,0.0,0.25,0.0,0.75,0.0,0.0,0.5,-0.73,-0.17,0.95,0.0,-15.2,-81.1,0.5,0.25,0.0,0.0,0.5,0.0,0.25,0.0,0.25,0.0,0.75,1.75,2.75,0.02,-0.67,0.83,114.11,-1.3,-66.1
2.48,0.25,0.0,0.0,0.0,0.0,0.0,0.0,0.25,0.0,0.75,0.0,0.0,0.0,-0.73,-0.11,0.95,0.0,-6.3,-35.2,0.5,0.5,0.0,0.0,1.0,0.0,0.25,0.0,0.25,0.0,0.5,1.75,2.75,-0.05,-0.42,0.64,115.67,-1.0,-51.0
2.5,0.5,0.0,0.0,0.0,0.0,0.0,0.0,0.25,0.0,0.5,0.0,0.0,0.5,-0.67,-0.23,0.77,4.59,-1.5,-33.6,0.5,0.5,0.0,0.0,0.0,0.0,0.25,0.0,0.25,0.75,0.5,1.75,2.75,-0.05,-0.3,0.45,116.06,0.0,-70.5
2.52,0.5,0.0,0.0,0.0,0.0,0.0,0.0,0.25,0.0,0.75,0.0,0.0,0.0,-0.67,-0.23,0.83,4.03,0.2,-14.0,0.5,1.0,0.0,0.0,0.5,0.0,0.25,0.0,0.25,0.0,0.5,1.75,2.5,-0.17,-0.17,0.45,115.56,-2.7,-46.6
2.54,0.25,0.0,0.0,0.0,0.0,0.0,0.0,0.25,0.0,0.5,0.0,0.0,0.25,-0.67,-0.42,0.83,4.91,-5.9,-42.6,0.5,0.5,0.0,0.0,0.0,0.0,0.25,0.0,0.25,0.0,0.25,1.75,2.5,-0.17,-0.05,0.27,109.65,-2.1,-68.0
2.56,0.75,0.0,0.0,0.0,0.0,0.0,0.0,0.25,0.0,0.5,0.0,0.0,0.25,-0.8,-0.55,0.89,10.09,5.2,-4.2,0.5,0.25,0.0,0.0,0.5,0.0,0.25,0.0,0.0,0.0,0.75,1.75,2.5,-0.05,-0.05,0.08,106.56,-1.4,-65.4
2.58,0.5,0.0,0.0,0.0,0.0,0.0,0.0,0.5,0.0,0.5,0.0,0.0,0.25,-0.8,-0.73,0.7,13.9,-1.9,-23.0,0.5,0.5,0.0,0.0,0.25,0.0,0.25,0.0,0.25,0.0,0.5,1.75,2.5,-0.05,-0.11,-0.05,103.5,-2.2,-62.8
2.6,0.25,0.0,0.0,0.0,0.0,0.0,0.0,0.0,0.0,0.5,0.0,0.0,0.5,-0.67,-0.73,0.77,17.62,-5.3,-57.2,0.5,0.25,0.0,0.0,0.0,0.0,0.25,0.0,0.0,0.0,0.5,1.75,2.75,0.08,-0.17,-0.17,101.39,-0.9,-78.7
2.62,0.0,0.0,0.0,0.0,0.0,0.0,0.0,0.25,0.0,0.5,0.0,0.0,0.5,-0.61,-0.67,0.95,20.62,-15.1,-82.2,0.5,0.5,0.0,0.0,0.25,0.0,0.25,0.0,0.25,0.0,0.5,1.75,2.25,0.08,-0.36,-0.17,99.35,-2.8,-60.8
2.64,0.0,0.0,0.0,0.0,0.0,0.0,0.0,0.25,0.0,0.25,0.0,0.0,0.5,-0.67,-0.48,1.08,18.44,-14.9,-83.9,0.5,0.5,0.0,0.0,0.25,0.0,0.25,0.0,0.25,0.0,0.5,1.75,2.5,0.14,-0.42,-0.11,99.62,-2.2,-62.8
2.66,0.0,0.0,0.0,0.0,0.0,0.0,0.0,0.25,0.0,0.25,0.0,0.0,0.5,-0.61,-0.36,0.83,18.24,-14.9,-83.9,0.5,0.0,0.0,0.0,0.25,0.0,0.25,0.0,0.0,0.0,0.5,1.75,2.5,0.08,-0.48,0.02,96.9,-0.8,-78.6
2.68,0.0,0.0,0.0,0.0,0.0,0.0,0.0,0.25,0.0,0.25,0.0,0.0,0.5,-0.48,-0.17,0.7,17.91,-14.9,-83.9,0.5,0.25,0.0,0.0,0.0,0.0,0.25,0.0,0.25,0.0,0.75,1.75,2.25,0.02,-0.61,-0.05,96.04,-3.0,-74.1
2.7,0.25,0.0,0.0,0.0,0.0,0.0,0.0,0.25,0.0,0.25,0.0,0.0,0.5,-0.36,-0.05,0.52,18.24,-5.6,-49.9,0.5,0.5,0.0,0.0,0.25,0.0,0.25,0.0,0.25,0.0,0.5,1.75,2.25,0.02,-0.73,-0.17,96.12,-2.8,-60.8
2.72,1.25,0.0,0.25,0.25,0.0,0.0,0.0,1.75,0.0,1.75,0.75,0.75,0.5,-0.3,0.27,0.52,50.34,0.8,-34.6,0.75,0.25,0.0,0.0,0.25,0.0,0.25,0.0,0.25,0.0,0.75,1.75,2.25,0.08,-0.8,-0.17,97.89,-3.9,-62.0
2.74,0.25,0.0,0.0,0.0,0.0,0.0,0.0,0.25,0.0,0.25,0.0,0.0,0.5,-0.3,0.27,0.2,48.46,-5.6,-49.9,0.5,0.25,0.0,0.0,0.5,0.0,0.25,0.0,0.25,0.0,0.5,1.75,2.5,0.14,-0.86,-0.17,100.46,-1.5,-64.0
2.76,0.25,0.0,0.0,0.0,0.0,0.0,0.0,0.25,0.0,0.25,0.0,0.0,0.5,-0.3,0.27,-0.11,46.8,-5.6,-49.9,0.5,0.5,0.0,0.0,0.25,0.0,0.25,0.0,0.25,0.0,0.5,1.75,2.5,0.14,-0.86,-0.11,103.03,-2.2,-62.8
2.78,0.25,0.0,0.0,0.0,0.0,0.0,0.0,0.25,0.0,0.25,0.0,0.0,0.5,-0.17,0.14,-0.3,33.54,-5.6,-49.9,0.5,0.25,0.0,0.0,0.0,0.0,0.0,0.0,0.0,0.0,0.5,1.75,2.5,0.2,-0.86,-0.11,100.97,-0.9,-79.5
2.8,0.25,0.0,0.0,0.0,0.0,0.0,0.0,0.25,0.0,0.25,0.0,0.0,0.5,-0.11,0.08,-0.3,26.61,-5.6,-49.9,0.5,0.5,0.0,0.0,0.0,0.0,0.25,0.0,0.0,0.0,0.5,1.75,2.5,0.2,-0.86,-0.11,98.85,-2.0,-69.5
2.82,0.5,0.0,0.0,0.0,0.0,0.0,0.0,0.25,0.0,0.25,0.0,0.0,0.5,-0.11,-0.11,-0.23,20.98,0.7,-26.6,0.5,0.75,0.0,0.0,0.0,0.0,0.25,0.0,0.25,0.0,0.5,1.75,2.0,0.2,-0.8,-0.11,96.21,-4.3,-57.3
2.84,0.5,0.0,0.0,0.0,0.0,0.0,0.0,0.25,0.0,0.25,0.0,0.0,0.5,-0.23,-0.3,-0.11,22.18,0.7,-26.6,0.5,0.25,0.0,0.0,0.0,0.0,0.25,0.0,0.25,0.0,0.5,1.75,2.25,0.2,-0.73,-0.05,94.97,-2.7,-74.1
2.86,0.0,0.0,0.0,0.0,0.0,0.0,0.0,0.25,0.0,0.25,0.0,0.0,0.5,-0.3,-0.61,-0.17,21.34,-14.9,-83.9,0.5,0.5,0.0,0.0,0.0,0.0,0.25,0.0,0.0,0.0,0.5,1.75,2.25,0.27,-0.73,-0.05,93.36,-2.7,-67.7
2.88,0.25,0.0,0.0,0.0,0.0,0.0,0.0,0.25,0.0,0.25,0.0,0.0,0.5,-0.3,-0.8,-0.11,19.35,-5.6,-49.9,0.5,0.5,0.0,0.0,0.0,0.0,0.25,0.0,0.0,0.0,0.5,1.75,2.0,0.27,-0.73,-0.05,91.1,-3.5,-65.7
2.9,0.0,0.0,0.0,0.0,0.0,0.0,0.0,0.25,0.0,0.25,0.0,0.0,0.0,-0.3,-0.98,0.02,13.64,-16.2,-57.1,0.75,0.25,0.0,0.0,0.0,0.0,0.25,0.0,0.0,0.0,0.5,1.5,2.25,0.27,-0.73,-0.05,89.17,-3.4,-66.5
2.92,0.5,0.0,0.0,0.0,0.0,0.0,0.0,0.25,0.0,0.25,0.0,0.0,0.5,-0.36,-1.05,0.14,13.72,0.7,-26.6,0.5,0.5,0.0,0.0,0.25,0.0,0.25,0.0,0.0,0.0,0.75,1.75,2.0,0.27,-0.73,0.02,89.69,-3.5,-60.2
2.94,1.25,0.0,0.0,0.25,0.0,0.0,0.0,1.0,0.0,1.0,0.0,0.75,0.0,-0.36,-1.05,0.27,28.52,4.6,-16.0,0.5,0.25,0.0,0.0,0.0,0.0,0.25,0.0,0.0,0.0,0.5,1.75,2.0,0.27,-0.73,0.02,87.83,-3.1,-74.0
2.96,1.25,0.0,0.25,0.0,0.0,0.0,0.0,1.75,0.0,0.25,0.0,0.0,0.5,-0.36,-1.05,0.33,42.95,2.6,-3.3,0.5,0.5,0.0,0.0,0.0,0.0,0.25,0.0,0.0,0.0,0.5,1.75,2.0,0.27,-0.73,-0.05,87.36,-3.5,-65.7
2.98,0.0,0.0,0.0,0.0,0.0,0.0,0.0,0.25,0.0,0.0,0.0,0.0,0.0,-0.3,-0.92,0.33,41.1,-16.7,-38.7,1.0,0.5,0.0,0.0,0.0,0.0,0.25,0.0,0.0,0.25,0.5,1.5,2.0,0.27,-0.73,-0.05,88.04,-5.0,-51.2
3.0,0.0,0.0,0.0,0.0,0.0,0.0,0.0,0.25,0.0,0.0,0.0,0.0,0.0,-0.23,-0.98,0.2,28.88,-16.7,-38.7,0.25,0.5,0.0,0.0,0.0,0.0,0.25,0.0,0.0,0.0,0.5,1.75,2.0,0.27,-0.73,-0.05,87.55,-2.1,-73.1
3.02,0.0,0.0,0.0,0.0,0.0,0.0,0.0,0.25,0.0,0.0,0.0,0.0,0.0,-0.23,-0.92,0.08,14.13,-16.7,-38.7,0.25,0.5,0.0,0.0,0.0,0.0,0.25,0.0,0.0,0.0,0.5,1.75,2.0,0.27,-0.73,0.02,87.01,-2.1,-73.1
3.04,0.0,0.0,0.0,0.0,0.0,0.0,0.0,0.25,0.0,0.0,0.0,0.0,0.0,-0.17,-0.8,0.08,5.02,-16.7,-38.7,0.5,0.5,0.0,0.0,0.25,0.0,0.25,0.0,0.0,0.0,0.5,1.75,2.0,0.27,-0.73,0.02,87.87,-3.2,-59.6
3.06,0.0,0.0,0.0,0.0,0.0,0.0,0.0,0.5,0.0,0.0,0.0,0.0,0.0,-0.17,-0.73,0.08,2.17,-16.7,-38.7,0.5,0.25,0.0,0.0,0.0,0.0,0.25,0.0,0.0,0.0,0.5,1.5,2.0,0.27,-0.67,0.02,85.91,-2.8,-72.1
3.08,0.0,0.0,0.0,0.0,0.0,0.0,0.0,0.25,0.0,0.25,0.0,0.0,0.0,-0.17,-0.67,0.02,3.83,-16.2,-57.1,0.5,0.5,0.0,0.0,0.0,0.0,0.25,0.0,0.0,0.0,0.5,1.75,2.0,0.27,-0.67,0.08,86.29,-3.5,-65.7
3.1,0.0,0.0,0.0,0.0,0.0,0.0,0.0,0.25,0.0,0.25,0.0,0.0,0.0,-0.23,-0.67,0.02,4.53,-16.2,-57.1,0.5,0.25,0.0,0.0,0.0,0.0,0.25,0.0,0.25,0.0,0.5,1.75,2.0,0.27,-0.67,0.08,87.03,-3.5,-72.3
3.12,0.5,0.0,0.0,0.0,0.0,0.0,0.0,0.25,0.0,0.25,0.0,0.0,0.0,-0.3,-0.73,-0.05,6.61,8.4,17.7,0.5,0.5,0.0,0.0,0.0,0.0,0.25,0.0,0.0,0.0,0.5,1.75,2.0,0.27,-0.61,0.08,88.14,-3.5,-65.7
3.14,0.5,0.0,0.0,0.0,0.0,0.0,0.0,0.25,0.0,0.25,0.0,0.0,0.0,-0.36,-0.67,-0.05,9.03,8.4,17.7,0.5,0.5,0.0,0.0,0.0,0.0,0.25,0.0,0.0,0.0,0.5,1.5,2.0,0.27,-0.61,0.14,86.73,-3.3,-63.5
3.16,0.75,0.0,0.0,0.0,0.0,0.0,0.0,0.25,0.0,0.25,0.0,0.0,0.0,-0.36,-0.67,-0.05,11.76,13.6,33.2,0.5,0.25,0.0,0.0,0.25,0.0,0.25,0.0,0.0,0.25,0.75,1.75,2.0,0.27,-0.67,0.14,90.14,-2.3,-67.8
3.18,0.5,0.0,0.0,0.0,0.0,0.0,0.0,0.5,0.0,0.25,0.0,0.0,0.0,-0.23,-0.67,-0.05,14.05,3.3,6.1,0.5,0.5,0.0,0.0,0.25,0.0,0.25,0.0,0.25,0.0,0.25,1.75,2.0,0.27,-0.67,0.27,91.38,-3.2,-58.0
3.2,0.5,0.0,0.0,0.0,0.0,0.0,0.0,0.25,0.0,0.0,0.0,0.0,0.0,-0.23,-0.67,0.02,16.28,16.9,50.2,0.75,0.25,0.0,0.0,0.0,0.0,0.25,0.0,0.0,0.0,0.5,1.75,2.0,0.27,-0.67,0.27,91.38,-4.5,-66.5
3.22,0.5,0.0,0.0,0.0,0.0,0.0,0.0,0.5,0.0,0.25,0.0,0.0,0.0,-0.23,-0.67,0.08,20.38,3.3,6.1,0.5,0.25,0.0,0.0,0.25,0.0,0.25,0.0,0.0,0.0,0.75,1.75,2.0,0.27,-0.73,0.27,92.08,-3.1,-67.5
3.24,1.0,0.0,0.0,0.0,0.0,0.0,0.0,0.25,0.0,0.0,0.0,0.0,0.25,-0.23,-0.67,0.08,22.35,17.3,37.0,0.5,0.25,0.0,0.0,0.0,0.0,0.25,0.0,0.0,0.0,0.5,1.5,2.0,0.27,-0.67,0.33,89.21,-2.8,-72.1
3.26,0.75,0.0,0.0,0.0,0.0,0.0,0.0,0.0,0.0,0.0,0.0,0.0,0.5,-0.17,-0.67,0.08,23.13,14.3,9.8,0.5,0.25,0.0,0.0,0.0,0.0,0.25,0.0,0.0,0.0,0.5,1.5,2.0,0.27,-0.73,0.33,86.01,-2.8,-72.1
3.28,0.75,0.0,0.0,0.0,0.0,0.0,0.0,0.25,0.0,0.0,0.0,0.0,0.0,-0.17,-0.67,0.08,22.17,21.3,61.9,0.5,0.5,0.0,0.0,0.0,0.0,0.25,0.0,0.0,0.0,0.75,1.75,2.0,0.33,-0.73,0.33,86.69,-3.8,-66.1
3.3,0.75,0.0,0.0,0.0,0.0,0.0,0.0,0.25,0.0,0.0,0.0,0.0,0.0,-0.17,-0.67,0.08,20.56,21.3,61.9,0.5,0.5,0.0,0.0,0.0,0.0,0.25,0.0,0.25,0.0,0.5,1.75,2.0,0.33,-0.73,0.39,89.01,-3.9,-64.5
3.32,0.5,0.0,0.0,0.0,0.0,0.0,0.0,0.25,0.0,0.25,0.0,0.0,0.0,-0.23,-0.67,0.14,18.61,8.4,17.7,0.5,0.25,0.0,0.0,0.5,0.0,0.25,0.0,0.0,0.0,0.5,1.5,1.75,0.33,-0.73,0.45,87.72,-2.9,-56.3
3.34,0.5,0.0,0.0,0.0,0.0,0.0,0.0,0.25,0.0,0.0,0.0,0.0,0.0,-0.23,-0.67,0.14,15.81,16.9,50.2,0.5,0.5,0.0,0.0,0.0,0.0,0.25,0.0,0.0,0.0,0.5,1.75,2.0,0.33,-0.73,0.52,88.06,-3.5,-65.7
3.36,0.5,0.0,0.0,0.0,0.0,0.0,0.0,0.25,0.0,0.0,0.0,0.0,0.5,-0.3,-0.67,0.2,16.08,4.1,-16.6,0.5,0.5,0.0,0.0,0.0,0.0,0.25,0.0,0.0,0.0,0.5,1.75,2.0,0.33,-0.73,0.52,87.86,-3.5,-65.7
3.38,0.75,0.0,0.0,0.0,0.0,0.0,0.0,0.25,0.0,0.0,0.0,0.0,0.5,-0.3,-0.67,0.2,18.5,9.0,1.5,0.5,0.5,0.0,0.0,0.0,0.0,0.25,0.0,0.0,0.0,0.5,1.75,2.0,0.33,-0.73,0.52,87.86,-3.5,-65.7
3.4,0.5,0.0,0.0,0.0,0.0,0.0,0.0,0.25,0.0,0.0,0.0,0.0,0.5,-0.3,-0.67,0.27,19.57,4.1,-16.6,0.5,0.25,0.0,0.0,0.0,0.0,0.25,0.0,0.0,0.0,0.5,1.75,2.0,0.33,-0.73,0.58,86.87,-3.1,-74.0
3.42,0.5,0.0,0.0,0.0,0.0,0.0,0.0,0.25,0.0,0.0,0.0,0.0,0.25,-0.36,-0.67,0.27,19.09,8.8,7.9,0.5,0.25,0.0,0.0,0.0,0.0,0.25,0.0,0.0,0.0,0.5,1.75,2.0,0.33,-0.73,0.58,87.13,-3.1,-74.0
3.44,0.25,0.0,0.0,0.0,0.0,0.0,0.0,0.0,0.0,0.0,0.0,0.0,0.0,-0.36,-0.67,0.33,13.91,34.9,97.9,0.5,0.25,0.0,0.0,0.0,0.0,0.25,0.0,0.0,0.0,0.5,1.75,2.0,0.39,-0.73,0.64,86.62,-3.1,-74.0
3.46,0.0,0.0,0.0,0.0,0.0,0.0,0.0,0.0,0.0,0.0,0.0,0.0,0.25,-0.36,-0.67,0.39,8.6,-13.7,-109.8,0.5,0.25,0.0,0.0,0.0,0.0,0.25,0.0,0.0,0.0,0.5,1.25,1.75,0.39,-0.73,0.64,81.61,-3.4,-67.8
3.48,1.25,0.0,0.0,0.0,0.0,0.0,0.0,1.25,0.0,0.0,0.25,0.0,0.5,-0.42,-0.73,0.39,20.63,4.8,-2.8,0.25,0.0,0.0,0.0,0.0,0.0,0.25,0.0,0.0,0.25,0.5,1.5,2.0,0.39,-0.73,0.7,80.54,0.3,-90.4
3.5,0.0,0.0,0.0,0.0,0.0,0.0,0.0,0.0,0.0,0.0,0.0,0.0,0.25,-0.42,-0.8,0.45,18.2,-13.7,-109.8,0.25,0.25,0.0,0.0,0.0,0.0,0.0,0.0,0.0,0.0,0.25,1.75,2.0,0.33,-0.73,0.7,78.0,-0.2,-85.4
3.52,0.25,0.0,0.0,0.0,0.0,0.0,0.0,0.0,0.0,0.0,0.0,0.0,0.25,-0.42,-0.8,0.52,17.46,9.4,-11.0,0.5,0.25,0.0,0.0,0.0,0.0,0.25,0.0,0.0,0.0,0.5,1.5,2.0,0.33,-0.67,0.7,78.34,-2.8,-72.1
3.54,0.5,0.0,0.0,0.0,0.0,0.0,0.0,0.0,0.0,0.25,0.0,0.0,0.5,-0.42,-0.8,0.58,15.38,4.3,-24.1,0.5,0.25,0.0,0.0,0.0,0.0,0.25,0.0,0.0,0.0,0.5,1.75,2.0,0.39,-0.67,0.7,80.6,-3.1,-74.0
3.56,0.75,0.0,0.0,0.0,0.0,0.0,0.0,0.0,0.0,0.0,0.0,0.0,0.5,-0.48,-0.8,0.64,16.66,14.3,9.8,0.5,0.25,0.0,0.0,0.0,0.0,0.25,0.0,0.0,0.0,0.5,1.5,1.75,0.39,-0.67,0.7,80.38,-3.7,-70.0
3.58,0.75,0.0,0.0,0.0,0.0,0.0,0.0,0.0,0.0,0.0,0.0,0.0,0.5,-0.48,-0.8,0.64,17.2,14.3,9.8,0.5,0.25,0.0,0.0,0.0,0.0,0.25,0.0,0.0,0.0,0.5,1.75,2.0,0.39,-0.67,0.77,81.95,-3.1,-74.0
3.6,0.75,0.0,0.0,0.0,0.0,0.0,0.0,0.0,0.0,0.0,0.0,0.0,0.25,-0.55,-0.73,0.64,18.05,21.9,42.0,0.5,0.25,0.0,0.0,0.0,0.0,0.25,0.0,0.0,0.0,0.75,1.75,2.0,0.33,-0.67,0.77,84.51,-3.4,-74.0
3.62,0.75,0.0,0.0,0.0,0.0,0.0,0.0,0.0,0.0,0.0,0.0,0.0,0.0,-0.48,-0.67,0.7,17.16,35.0,97.9,0.25,0.25,0.0,0.0,0.0,0.0,0.25,0.0,0.0,0.25,0.5,1.5,2.0,0.39,-0.61,0.77,85.6,-0.3,-80.4
3.64,0.5,0.0,0.0,0.0,0.0,0.0,0.0,0.0,0.0,0.0,0.0,0.0,0.0,-0.48,-0.67,0.64,13.54,34.9,97.9,0.5,0.25,0.0,0.0,0.25,0.0,0.25,0.0,0.0,0.5,0.25,1.25,2.0,0.39,-0.55,0.77,86.1,0.0,-63.5
3.66,0.75,0.0,0.0,0.0,0.0,0.0,0.0,0.0,0.0,0.0,0.0,0.0,0.0,-0.48,-0.61,0.64,12.42,35.0,97.9,0.5,0.25,0.0,0.0,0.0,0.0,0.25,0.0,0.0,0.0,0.5,1.75,2.0,0.39,-0.55,0.77,86.61,-3.1,-74.0
3.68,0.75,0.0,0.0,0.0,0.0,0.0,0.0,0.0,0.0,0.0,0.0,0.0,0.0,-0.48,-0.61,0.58,11.92,35.0,97.9,0.5,0.25,0.0,0.0,0.0,0.0,0.25,0.0,0.0,0.0,0.5,1.25,1.75,0.39,-0.55,0.77,82.44,-3.4,-67.8
3.7,0.25,0.0,0.0,0.0,0.0,0.0,0.0,0.0,0.0,0.0,0.0,0.0,0.0,-0.48,-0.61,0.58,8.44,34.9,97.9,0.5,0.5,0.0,0.0,0.0,0.0,0.25,0.0,0.0,0.0,0.25,1.75,1.75,0.33,-0.55,0.77,81.04,-4.1,-62.9
3.72,0.5,0.0,0.0,0.0,0.0,0.0,0.0,0.0,0.0,0.0,0.0,0.0,0.0,-0.48,-0.55,0.64,6.52,34.9,97.9,0.5,0.5,0.0,0.0,0.0,0.0,0.25,0.0,0.0,0.0,0.25,1.5,1.75,0.33,-0.48,0.77,77.68,-3.8,-60.3
3.74,0.75,0.0,0.0,0.0,0.0,0.0,0.0,0.0,0.0,0.0,0.0,0.0,0.0,-0.48,-0.55,0.64,9.33,35.0,97.9,0.5,0.25,0.0,0.0,0.0,0.0,0.25,0.0,0.0,0.0,0.5,1.75,1.75,0.33,-0.48,0.7,78.53,-4.0,-72.1
3.76,0.75,0.0,0.0,0.0,0.0,0.0,0.0,0.0,0.0,0.0,0.0,0.0,0.0,-0.48,-0.55,0.64,10.05,35.0,97.9,0.5,0.25,0.0,0.0,0.25,0.0,0.25,0.0,0.0,0.0,0.5,1.75,2.0,0.33,-0.48,0.7,81.52,-2.7,-67.1
3.78,1.25,0.0,0.0,0.0,0.0,0.0,0.0,0.0,0.0,0.0,0.0,0.0,0.0,-0.48,-0.55,0.64,13.87,34.9,97.9,0.5,0.25,0.0,0.0,0.0,0.0,0.25,0.0,0.0,0.0,0.5,1.75,2.0,0.33,-0.48,0.77,84.41,-3.1,-74.0
3.8,0.75,0.0,0.0,0.0,0.0,0.0,0.0,0.0,0.0,0.0,0.0,0.0,0.0,-0.48,-0.48,0.64,14.91,35.0,97.9,0.5,0.25,0.5,0.0,0.0,0.0,0.25,0.0,0.0,0.0,0.5,1.25,2.0,0.33,-0.42,0.77,85.2,-6.0,-57.0
3.82,0.75,0.0,0.0,0.0,0.0,0.0,0.0,0.0,0.0,0.0,0.0,0.0,0.25,-0.48,-0.48,0.64,16.55,21.9,42.0,0.5,0.25,0.0,0.0,0.0,0.0,0.25,0.0,0.0,0.0,0.5,1.5,1.75,0.33,-0.42,0.77,82.3,-3.7,-70.0
3.84,0.75,0.0,0.0,0.0,0.0,0.0,0.0,0.0,0.0,0.0,0.0,0.0,0.25,-0.48,-0.48,0.64,16.76,21.9,42.0,0.5,0.5,0.0,0.0,0.0,0.0,0.25,0.0,0.0,0.0,0.5,1.75,1.75,0.33,-0.42,0.77,82.21,-4.4,-63.5
3.86,0.75,0.0,0.0,0.0,0.0,0.0,0.0,0.0,0.0,0.0,0.0,0.0,0.0,-0.48,-0.48,0.7,16.36,35.0,97.9,0.5,0.25,0.0,0.0,0.0,0.0,0.25,0.0,0.0,0.0,0.5,1.5,1.75,0.33,-0.42,0.77,80.15,-3.7,-70.0
3.88,1.0,0.0,0.0,0.0,0.0,0.0,0.0,0.0,0.0,0.0,0.0,0.0,0.0,-0.48,-0.48,0.7,16.86,34.9,97.9,0.5,0.5,0.0,0.0,0.0,0.0,0.25,0.0,0.0,0.0,0.5,1.5,2.0,0.33,-0.42,0.7,81.57,-3.3,-63.5
3.9,0.75,0.0,0.0,0.0,0.0,0.0,0.0,0.0,0.0,0.0,0.0,0.0,0.25,-0.48,-0.48,0.7,17.04,21.9,42.0,0.5,0.5,0.0,0.0,0.0,0.0,0.25,0.0,0.0,0.0,0.5,1.5,1.75,0.33,-0.42,0.7,81.09,-4.2,-61.1
3.92,1.0,0.0,0.0,0.0,0.0,0.0,0.0,0.0,0.0,0.0,0.0,0.0,0.5,-0.48,-0.48,0.77,20.35,17.6,24.0,0.5,0.5,0.0,0.0,0.0,0.0,0.25,0.0,0.0,0.0,0.75,1.25,1.75,0.33,-0.36,0.77,81.3,-4.2,-59.3
3.94,1.0,0.0,0.0,0.0,0.0,0.0,0.0,0.0,0.0,0.0,0.0,0.0,0.25,-0.55,-0.48,0.77,21.74,24.4,52.9,0.5,0.5,0.0,0.0,0.0,0.0,0.25,0.0,0.0,0.0,0.5,1.25,1.75,0.39,-0.36,0.77,78.33,-3.9,-58.5
3.96,1.25,0.0,0.0,0.0,0.0,0.0,0.0,0.0,0.0,0.0,0.0,0.0,0.25,-0.55,-0.48,0.77,24.08,26.2,60.3,0.5,0.5,0.0,0.0,0.25,0.0,0.25,0.0,0.0,0.0,0.5,1.5,1.75,0.39,-0.36,0.77,79.21,-3.7,-54.7
3.98,1.0,0.0,0.0,0.0,0.0,0.0,0.0,0.0,0.0,0.0,0.0,0.0,0.25,-0.48,-0.48,0.77,23.63,24.4,52.9,0.5,0.5,0.0,0.0,0.0,0.0,0.25,0.0,0.0,0.0,0.5,1.75,1.75,0.33,-0.36,0.77,80.1,-4.4,-63.5
4.0,1.0,0.0,0.0,0.0,0.0,0.0,0.0,0.0,0.0,0.0,0.0,0.0,0.5,-0.55,-0.42,0.77,24.58,17.6,24.0,0.5,0.25,0.0,0.0,0.0,0.0,0.25,0.0,0.0,0.0,0.5,1.5,2.0,0.33,-0.36,0.77,81.23,-2.8,-72.1
4.02,0.75,0.0,0.0,0.0,0.0,0.0,0.0,0.0,0.0,0.0,0.0,0.0,0.25,-0.55,-0.42,0.83,21.93,21.9,42.0,0.5,0.25,0.0,0.0,0.0,0.0,0.25,0.0,0.0,0.0,0.75,1.25,1.75,0.33,-0.36,0.77,80.49,-3.8,-68.2
4.04,1.0,0.0,0.0,0.0,0.0,0.0,0.0,0.0,0.0,0.0,0.0,0.0,0.5,-0.48,-0.42,0.83,23.17,17.6,24.0,0.25,0.5,0.0,0.0,0.0,0.0,0.25,0.0,0.0,0.0,0.5,1.5,1.75,0.33,-0.36,0.77,79.47,-2.6,-69.1
