time,left pressure 0[N/cm²],left pressure 1[N/cm²],left pressure 2[N/cm²],left pressure 3[N/cm²],left pressure 4[N/cm²],left pressure 5[N/cm²],left pressure 6[N/cm²],left pressure 7[N/cm²],left pressure 8[N/cm²],left pressure 9[N/cm²],left pressure 10[N/cm²],left pressure 11[N/cm²],left pressure 12[N/cm²],left acceleration X[g],left acceleration Y[g],left acceleration Z[g],left total force[N],left center of pressure X[mm],left center of pressure Y[mm],right pressure 0[N/cm²],right pressure 1[N/cm²],right pressure 2[N/cm²],right pressure 3[N/cm²],right pressure 4[N/cm²],right pressure 5[N/cm²],right pressure 6[N/cm²],right pressure 7[N/cm²],right pressure 8[N/cm²],right pressure 9[N/cm²],right pressure 10[N/cm²],right pressure 11[N/cm²],right pressure 12[N/cm²],right acceleration X[g],right acceleration Y[g],right acceleration Z[g],right total force[N],right center of pressure X[mm],right center of pressure Y[mm]
0.02,0.0,0.0,0.0,2.0,0.0,0.0,0.75,2.5,3.25,2.0,1.0,0.75,0.5,-0.17,1.14,1.27,99.55,1.8,-36.4,9.25,3.25,13.5,9.5,4.5,0.0,1.75,0.25,0.25,0.25,0.0,0.5,0.5,-0.05,0.39,1.2,668.96,-24.0,63.0
0.04,0.0,0.0,0.75,2.0,0.0,0.0,3.25,4.5,3.5,2.0,1.5,1.0,0.0,-0.17,1.77,0.95,159.88,4.5,-27.7,8.75,2.25,13.5,7.75,3.75,0.0,2.5,0.0,0.25,0.25,0.0,0.5,0.5,0.14,0.58,1.27,630.02,-25.4,62.5
0.06,0.0,0.0,0.0,0.0,0.0,0.0,3.5,4.5,0.5,0.0,1.75,0.75,0.5,0.14,2.2,0.77,178.43,0.2,-43.0,6.0,0.0,11.0,4.5,3.5,0.0,2.25,0.0,0.0,0.0,0.0,0.0,0.5,0.27,0.95,2.14,515.5,-26.5,62.3
0.08,0.0,0.0,0.0,0.25,0.0,0.0,0.0,0.5,0.75,1.25,0.0,0.75,0.0,0.27,2.52,0.58,154.31,-2.2,-59.7,3.0,0.0,7.75,1.25,0.0,0.0,1.75,0.0,0.0,0.0,0.0,0.0,0.0,0.02,1.52,2.33,344.59,-35.0,66.5
0.1,0.0,0.0,0.75,1.0,0.0,0.0,0.0,0.5,0.75,1.25,0.5,0.75,0.25,-0.11,2.27,0.58,127.71,6.3,-31.2,2.75,0.25,6.5,1.25,0.0,0.0,1.5,0.0,0.25,0.5,0.0,0.5,0.0,-0.05,1.14,2.27,232.17,-30.8,53.0
0.12,0.0,0.0,0.5,2.0,0.0,0.0,3.25,4.5,2.5,0.0,0.5,0.0,0.0,-0.36,1.52,0.7,131.68,5.6,-9.5,1.25,0.25,5.0,1.25,1.25,0.0,1.0,0.0,0.25,0.25,0.25,0.5,0.0,0.02,0.45,2.52,139.28,-25.4,46.9
0.14,0.0,0.0,0.0,0.5,0.0,0.0,2.5,1.0,0.0,1.25,0.0,0.75,0.0,-0.36,-1.3,0.77,113.54,3.8,-32.2,0.5,0.5,3.5,1.25,1.75,0.0,0.75,0.0,0.25,0.25,0.5,0.25,0.0,0.89,-0.17,1.45,76.98,-20.4,43.9
0.16,0.0,0.0,0.0,1.0,0.0,0.0,0.0,0.5,0.75,4.5,2.5,3.0,3.0,0.77,0.27,0.89,163.82,-2.7,-77.0,0.5,0.5,2.25,1.25,1.75,0.0,0.75,0.0,0.25,0.25,0.25,0.0,0.5,1.14,-0.98,3.33,37.76,-16.2,39.8
0.18,0.0,0.0,0.0,0.0,0.0,0.0,0.0,0.5,0.75,5.25,4.25,4.75,5.25,-0.05,0.39,2.2,228.38,-3.3,-90.0,0.25,0.25,2.25,1.25,1.25,0.0,0.75,0.25,0.25,0.0,1.0,0.0,0.25,0.64,-0.86,1.83,25.57,-17.6,30.3
0.2,0.0,0.0,0.0,1.0,0.0,0.0,0.0,2.0,1.0,6.75,5.5,5.75,6.0,-0.67,0.14,1.64,310.22,-3.0,-81.1,0.25,0.0,1.75,1.0,1.0,0.0,1.0,0.25,0.25,0.25,0.25,0.5,0.0,0.52,-0.73,0.89,4.41,-17.5,25.3
0.22,0.0,0.0,0.0,0.0,0.0,0.0,0.0,4.0,0.0,6.0,6.75,0.0,6.75,0.02,0.14,1.39,356.52,-7.9,-79.4,0.0,0.25,0.0,0.75,0.0,0.0,0.75,0.5,0.0,0.0,0.5,0.0,0.0,0.33,-0.48,0.89,0.0,-10.5,10.4
0.24,0.0,0.0,0.0,0.0,0.0,0.0,0.0,5.5,2.75,8.0,4.5,6.25,3.25,-0.3,0.08,1.08,422.58,-4.2,-76.3,0.0,0.0,2.0,0.0,0.25,0.0,1.0,0.0,0.0,0.0,0.0,0.0,0.0,0.2,-0.36,0.95,0.0,-33.0,54.5
0.26,0.0,0.0,0.0,0.0,0.0,0.25,0.25,5.75,3.25,8.25,7.75,6.5,7.25,-0.17,0.08,1.08,514.31,-3.9,-78.3,0.0,0.25,0.0,0.0,0.0,0.0,0.75,0.0,0.0,0.0,0.0,0.0,0.0,0.14,-0.17,1.14,0.0,-24.1,57.2
0.28,0.0,0.0,0.0,0.0,0.0,0.75,0.5,6.25,3.5,8.25,7.75,6.5,7.25,-0.17,0.02,0.95,613.19,-4.0,-75.9,0.5,0.25,1.5,0.0,0.0,0.0,0.0,0.25,0.25,0.25,0.0,0.25,0.0,0.14,0.02,1.14,0.0,-23.2,30.6
0.3,0.0,0.0,1.75,1.25,0.0,0.0,0.5,6.5,3.75,8.25,7.75,6.5,7.25,-0.17,0.02,0.95,711.32,-1.3,-67.6,0.25,0.25,1.5,0.0,0.5,0.0,0.75,0.0,0.25,0.25,0.5,0.5,0.5,0.14,0.2,1.08,1.03,-16.5,1.4
0.32,0.0,0.0,0.0,1.5,0.0,0.75,0.5,6.5,3.5,8.0,7.75,6.25,7.25,-0.17,0.02,0.95,760.57,-3.3,-70.5,0.0,0.0,1.25,0.0,1.0,0.0,0.75,0.0,0.0,0.0,0.5,0.0,0.5,0.08,0.33,1.2,29.4,-14.5,15.0
0.34,0.0,0.0,0.0,2.0,0.0,1.0,0.75,6.5,3.5,7.5,7.25,5.75,6.75,-0.17,0.02,0.95,759.38,-3.1,-66.8,0.0,0.0,0.0,0.0,0.0,0.0,0.0,0.0,0.0,0.0,0.75,0.25,0.0,0.08,0.33,1.58,23.27,-10.3,-84.2
0.36,0.0,0.0,0.5,1.75,0.0,1.5,0.5,6.5,3.25,6.75,7.0,5.5,6.5,-0.17,0.02,0.95,723.81,-3.0,-64.5,0.25,0.25,0.75,0.0,1.0,0.0,1.0,0.0,0.25,0.25,0.25,0.25,0.0,0.08,0.45,1.89,32.04,-14.5,24.8
0.38,0.0,0.0,0.0,1.75,0.0,1.5,0.5,6.5,3.25,6.5,6.5,4.75,6.0,-0.17,0.02,0.95,676.82,-3.7,-64.4,0.25,0.0,0.75,0.0,0.25,0.0,0.75,0.0,0.25,0.25,0.5,0.5,0.5,0.14,0.64,1.95,35.46,-13.7,-22.1
0.4,0.0,0.0,0.0,2.5,0.0,1.5,0.5,6.25,3.25,5.75,5.5,4.0,5.25,-0.17,0.02,0.95,601.36,-3.4,-59.2,0.25,0.0,0.5,0.0,0.5,0.0,0.5,0.0,0.25,0.25,0.25,0.5,0.5,0.27,0.89,2.2,41.7,-9.8,-19.9
0.42,0.0,0.0,0.0,2.75,0.0,1.5,0.5,6.0,2.75,5.5,5.5,3.75,4.0,-0.17,0.02,0.95,529.56,-2.9,-56.2,0.25,0.25,0.75,0.0,0.5,0.0,0.25,0.0,0.25,0.25,0.25,0.5,0.5,0.33,1.08,2.52,48.67,-11.3,-7.5
0.44,0.0,0.0,0.75,3.0,0.0,1.75,0.5,5.75,2.75,4.75,4.0,3.0,4.0,-0.17,0.02,0.95,461.56,-2.4,-48.9,0.25,0.25,0.5,0.0,0.25,0.0,0.5,0.0,0.25,0.25,0.5,0.5,0.5,0.14,1.45,2.64,54.75,-11.2,-21.0
0.46,0.0,0.0,1.75,3.0,0.0,2.0,0.5,5.75,2.75,4.5,3.25,2.25,2.75,-0.17,0.02,0.95,401.53,-1.1,-38.9,0.25,0.0,0.5,0.0,0.5,0.0,0.5,0.0,0.25,0.25,0.5,0.25,0.5,-0.3,2.2,2.08,56.18,-10.0,-17.2
0.48,0.0,0.0,1.75,3.0,0.0,2.25,0.5,5.5,2.25,3.0,2.5,2.0,2.5,-0.17,0.02,0.95,342.4,-0.8,-33.5,0.25,0.0,0.5,0.0,1.0,0.0,0.5,0.0,0.25,0.25,0.5,0.5,0.5,-0.73,3.02,1.27,58.38,-8.0,-12.8
0.5,0.0,0.25,1.75,4.5,4.0,3.0,0.5,5.5,1.5,3.25,2.25,1.75,1.5,-0.17,0.02,0.95,325.51,-0.8,-9.3,0.5,0.0,0.75,0.0,1.0,0.0,0.25,0.0,0.25,0.25,0.75,0.25,0.25,-1.17,4.7,0.02,63.29,-12.1,4.5
0.52,0.0,1.25,2.5,6.0,6.0,4.0,0.5,5.25,1.75,3.0,1.5,1.75,1.5,-0.17,0.02,0.95,355.62,0.4,5.2,0.0,0.0,0.5,0.0,1.25,0.0,0.5,0.0,0.25,0.25,0.25,0.5,0.5,-1.98,5.08,-0.05,62.74,-5.5,-10.7
0.54,0.0,1.5,3.5,7.0,7.5,4.25,0.5,5.5,1.75,3.0,1.5,1.75,1.5,-0.17,0.08,0.95,422.41,1.5,10.6,0.0,0.0,0.5,0.0,0.5,0.0,0.25,0.0,0.25,0.25,0.5,0.25,0.5,-1.42,3.14,0.89,57.83,-7.1,-28.1
0.56,0.0,1.75,4.25,8.25,8.0,5.0,0.5,5.25,1.5,2.25,1.25,1.25,1.25,-0.17,0.08,0.95,506.7,2.6,19.3,0.0,0.0,0.5,0.0,0.0,0.0,0.5,0.0,0.25,1.5,0.5,0.5,0.5,-0.48,1.95,1.2,61.04,-2.3,-58.1
0.58,0.0,3.0,5.25,9.25,8.5,5.25,0.5,5.0,1.5,1.75,0.75,1.0,1.25,-0.17,0.08,1.08,594.92,4.0,27.2,0.0,0.0,0.5,0.0,1.0,0.0,0.25,0.0,0.25,1.5,1.5,2.5,1.5,0.45,-1.86,1.08,90.9,-1.7,-64.1
0.6,0.0,3.25,5.25,9.75,8.75,5.25,0.25,4.5,1.0,1.25,0.75,0.75,0.75,-0.23,0.14,1.02,650.25,4.6,33.3,0.0,0.0,0.25,0.0,1.0,0.0,0.25,0.0,0.25,4.75,3.0,5.75,6.0,-0.67,0.2,0.77,183.96,3.0,-85.0
0.62,0.25,4.25,6.25,10.5,9.25,5.25,0.0,4.0,0.75,1.25,0.75,0.75,0.5,-0.23,0.14,1.14,705.9,6.1,38.4,0.0,0.0,0.0,0.0,1.0,0.0,0.25,0.0,0.5,8.25,6.5,7.75,8.25,-0.98,0.2,2.02,306.89,3.1,-87.0
0.64,3.25,4.25,7.0,11.0,0.0,5.0,0.0,2.25,0.75,1.75,0.75,0.75,0.25,-0.17,0.14,1.2,685.99,12.9,42.4,0.0,0.0,0.0,0.0,1.5,0.0,0.25,1.5,1.0,9.25,8.75,8.5,9.5,0.52,0.33,2.27,481.33,3.1,-82.9
0.66,3.5,5.5,7.25,11.0,0.0,0.0,0.0,2.25,0.75,0.25,0.5,0.75,0.25,-0.3,0.2,1.33,632.11,19.7,52.7,0.25,0.0,0.0,0.0,1.5,0.0,0.25,3.75,0.0,9.75,9.5,8.5,9.5,-0.17,0.2,0.95,654.08,3.9,-80.4
0.68,3.75,5.5,0.0,10.5,0.0,0.0,0.0,1.5,0.75,1.25,0.5,0.75,0.25,-0.3,0.2,1.27,519.59,14.1,48.2,0.0,0.0,0.0,0.0,1.75,0.5,0.0,5.5,2.5,11.0,10.5,8.5,9.25,0.2,0.14,1.14,817.94,3.9,-75.7
0.7,2.75,5.5,7.0,10.5,0.0,0.0,0.0,0.0,0.75,1.25,0.5,0.75,0.25,-0.42,0.27,1.27,463.25,20.8,54.1,0.25,0.25,1.0,0.0,3.0,1.5,0.25,7.0,3.0,11.0,11.0,8.5,9.5,0.14,0.2,1.08,963.26,3.3,-65.1
0.72,2.5,0.0,5.5,9.25,0.0,0.0,0.0,0.5,0.75,1.25,0.5,0.75,0.25,-0.48,0.33,1.52,374.6,20.9,39.0,0.25,0.5,0.5,1.0,3.5,2.25,1.25,7.75,3.5,11.0,11.0,8.0,9.25,0.2,0.08,0.95,1083.67,3.2,-59.2
0.74,0.0,0.0,5.0,8.25,0.0,0.0,0.0,0.0,0.0,1.0,0.5,0.75,0.25,-0.67,0.45,1.7,296.55,20.7,36.3,0.25,0.5,2.25,1.25,3.5,2.5,1.25,8.25,4.0,10.5,11.0,7.75,8.75,0.2,0.08,1.02,1171.81,1.9,-53.7
0.76,0.0,0.0,2.75,5.5,0.0,0.0,0.0,0.0,0.0,1.0,0.25,0.75,0.25,-0.73,1.2,2.83,215.13,18.2,27.8,0.25,0.5,2.25,1.25,3.5,2.5,1.25,8.25,4.25,9.75,10.5,6.75,8.5,0.2,0.08,0.95,1196.58,1.9,-52.0
0.78,0.0,0.0,2.5,3.0,0.0,0.0,0.0,0.0,0.0,1.25,0.25,0.0,0.25,-0.67,1.52,3.14,131.07,17.6,26.5,0.5,0.5,2.75,1.25,3.75,2.5,1.75,8.25,3.75,9.0,9.5,6.25,8.0,0.2,0.08,0.95,1161.83,1.4,-47.9
0.8,0.0,0.0,1.25,0.25,0.0,0.0,0.0,0.0,0.75,1.25,0.0,0.0,0.0,-0.55,0.52,2.64,39.76,12.1,-8.2,0.75,0.5,3.25,1.25,3.75,2.75,1.5,7.75,3.5,8.25,8.5,5.5,7.0,0.2,0.08,0.95,1069.15,0.8,-43.2
0.82,0.0,0.0,0.0,1.25,0.0,0.0,0.0,0.0,0.75,1.25,0.0,0.0,0.0,-0.8,-0.42,3.08,0.0,3.6,-14.2,1.0,0.75,4.25,1.25,3.75,3.0,1.5,7.75,3.0,7.5,7.5,4.5,5.5,0.2,0.08,0.95,947.38,-0.1,-35.0
0.84,0.0,0.0,0.0,1.25,0.0,0.0,0.0,0.0,0.0,1.25,0.0,0.0,0.25,-1.23,-0.92,2.89,0.0,-0.2,-16.6,1.25,0.75,4.75,2.0,4.25,3.25,1.25,7.0,2.75,7.0,6.5,3.25,4.5,0.2,0.08,0.95,818.08,-0.9,-25.8
0.86,0.0,0.0,0.0,1.0,0.0,0.0,0.0,0.0,0.0,0.0,0.0,0.0,0.0,-0.3,-1.17,2.2,0.0,17.2,57.9,1.25,1.0,4.75,2.25,5.0,3.25,1.25,6.25,2.25,5.75,5.5,3.25,3.0,0.2,0.14,0.89,707.72,-1.9,-17.3
0.88,0.0,0.0,0.0,1.5,0.0,0.0,0.0,0.0,0.0,0.25,0.5,0.0,0.0,-0.55,-0.86,1.08,0.0,12.2,15.4,1.5,1.0,4.75,2.75,5.25,3.25,1.25,6.25,2.25,4.75,4.0,2.25,3.0,0.2,0.14,0.89,623.22,-2.2,-9.7
0.9,0.0,0.0,0.0,1.25,0.0,0.0,3.75,3.5,2.25,0.75,0.0,0.5,0.0,-0.61,-0.67,0.58,0.0,4.1,-20.6,1.5,1.25,5.0,3.75,5.25,3.75,1.25,5.5,1.75,4.0,3.75,2.0,2.75,0.2,0.14,0.89,567.64,-3.1,-2.8
0.92,0.0,0.0,1.25,1.75,0.0,0.0,4.0,4.5,2.25,0.75,0.25,0.25,0.0,-0.67,-0.55,0.89,60.0,6.7,-9.6,1.5,1.25,5.0,4.0,6.0,3.75,1.25,5.5,1.75,3.75,2.75,1.75,2.25,0.2,0.14,0.89,529.59,-3.2,2.9
0.94,0.0,0.0,1.0,1.75,0.0,0.0,4.0,4.5,3.0,0.75,0.25,0.25,0.0,-0.67,-0.42,1.2,119.34,6.4,-12.5,2.0,1.5,6.25,5.5,6.25,4.5,1.25,5.5,1.75,2.25,2.75,1.75,1.25,0.2,0.14,0.89,528.54,-5.8,14.6
0.96,0.0,0.0,1.25,2.25,0.0,0.0,4.0,4.5,3.25,0.75,1.5,0.5,0.0,-0.67,-0.11,1.2,178.16,7.7,-15.7,3.0,2.25,7.0,6.0,6.25,4.75,1.75,5.5,1.25,1.5,1.75,1.25,1.25,0.2,0.14,0.95,549.75,-7.4,24.9
0.98,0.0,0.0,0.0,1.75,0.0,0.0,4.0,4.5,2.25,0.75,1.25,0.5,0.0,-0.55,0.2,1.14,199.92,3.9,-23.5,4.25,2.25,7.5,8.0,7.75,5.0,1.5,4.25,1.0,1.5,1.5,1.25,1.75,0.2,0.14,0.95,609.63,-8.5,30.7
1.0,0.0,0.0,0.0,2.0,0.0,0.0,4.0,4.5,3.0,1.25,1.25,0.5,0.0,-0.61,0.39,1.27,214.55,3.9,-24.6,5.5,3.25,8.75,9.5,8.0,4.75,1.75,4.25,1.0,1.5,1.5,0.75,1.25,0.2,0.14,0.95,699.23,-10.6,37.9
1.02,0.0,0.0,0.0,2.0,0.0,0.0,3.5,4.5,2.75,2.0,1.5,0.25,0.0,-0.55,0.39,1.7,220.0,2.3,-27.2,6.75,4.25,9.5,10.5,7.75,4.75,1.25,3.0,0.5,0.25,1.0,0.25,1.0,0.14,0.14,1.02,782.43,-13.1,49.8
1.04,0.0,0.0,0.0,2.25,0.0,0.0,3.25,4.5,3.0,2.0,1.5,0.25,0.0,-0.55,0.64,1.95,227.61,2.5,-26.3,6.75,3.5,9.25,9.5,8.0,3.25,1.0,2.0,0.25,0.0,0.0,0.25,0.25,0.14,0.2,1.14,799.86,-15.2,57.8
1.06,0.0,0.0,0.75,2.0,0.0,0.0,3.0,4.5,2.25,2.0,1.75,0.25,0.0,-0.55,0.77,2.02,228.39,3.5,-23.9,7.75,5.25,10.5,9.75,8.5,3.75,0.0,2.25,0.5,1.0,0.0,0.5,0.0,0.14,0.2,1.27,840.86,-14.7,56.6
1.08,0.0,0.0,0.75,2.0,0.0,0.0,3.0,4.25,2.25,0.5,1.75,0.25,0.0,-0.67,0.83,2.2,222.19,6.0,-17.8,8.5,5.25,11.5,11.5,8.0,2.5,0.25,1.5,0.25,1.25,0.5,0.5,0.5,0.14,0.27,1.2,879.79,-16.5,56.1
1.1,0.0,0.0,0.0,2.0,0.0,0.0,2.5,3.25,2.5,1.75,1.25,1.0,0.0,-0.61,0.89,2.39,211.24,3.4,-30.8,8.25,4.5,12.5,9.5,9.0,2.0,0.5,1.25,0.5,0.25,0.0,0.5,0.25,0.14,0.27,1.2,901.06,-17.9,60.1
1.12,0.0,0.0,0.0,3.0,0.0,0.0,2.5,4.0,2.25,1.75,1.75,0.25,0.75,-0.42,1.2,2.52,204.93,2.3,-26.5,8.5,5.25,10.5,9.75,8.5,0.0,0.5,0.25,0.25,0.5,0.0,0.5,0.5,0.14,0.33,1.2,877.49,-19.3,63.0
1.14,0.0,0.0,0.75,2.5,0.0,0.0,2.5,4.25,2.25,2.0,1.25,0.25,0.5,-0.36,1.58,2.39,201.09,3.0,-22.9,8.25,3.25,11.0,8.25,8.0,0.0,0.75,0.0,0.0,0.0,0.0,0.0,0.25,0.14,0.33,1.2,804.73,-21.3,67.3
1.16,0.0,0.0,0.25,2.0,0.0,0.0,2.5,4.0,2.75,1.75,1.5,0.25,0.0,-0.48,2.14,1.89,197.65,2.9,-26.1,7.75,2.75,10.5,7.75,6.25,0.0,0.0,0.0,0.0,0.0,0.0,0.0,0.0,0.14,0.39,1.33,697.08,-22.5,69.1
1.18,0.0,0.0,0.0,2.0,0.0,0.0,3.25,4.5,2.25,0.75,1.25,0.25,0.0,-0.36,3.02,1.2,190.62,3.2,-21.5,7.75,2.5,10.0,6.75,6.25,1.25,0.75,0.0,0.25,0.25,0.0,0.5,0.5,0.2,0.52,1.45,613.99,-20.2,61.3
1.2,0.0,0.0,0.0,2.0,0.0,0.0,3.25,4.0,2.75,1.0,1.25,0.25,0.0,0.95,4.52,0.7,183.65,4.0,-22.6,5.25,0.75,7.5,4.0,5.75,0.75,1.0,0.0,0.25,0.25,0.5,0.5,0.5,0.27,1.39,2.14,495.9,-19.2,54.2
1.22,0.0,0.0,0.75,2.0,0.0,0.0,3.0,4.5,2.75,1.5,1.25,0.25,0.0,1.33,4.39,0.39,186.79,4.2,-20.9,2.25,0.5,6.25,1.5,3.5,0.0,0.75,0.0,0.25,0.25,0.25,0.5,0.5,0.33,2.02,2.83,356.4,-20.8,48.1
1.24,0.0,0.0,0.75,2.0,0.0,0.0,3.0,4.25,2.25,1.75,1.25,0.25,0.0,0.2,2.77,0.89,188.06,3.9,-20.9,1.25,0.25,4.75,0.5,3.25,0.0,0.5,0.0,0.25,0.25,0.25,0.5,0.5,-0.11,0.33,2.7,246.14,-18.6,41.1
1.26,0.0,0.0,0.75,0.5,0.0,0.0,3.0,4.5,0.0,0.0,1.25,0.0,0.0,-0.3,1.77,1.08,168.24,2.6,-17.6,0.5,0.25,2.0,0.5,1.5,0.0,0.25,0.25,0.25,0.25,0.0,0.25,0.5,0.2,-0.36,1.89,134.43,-14.3,30.1
1.28,0.0,0.0,0.0,0.0,0.0,0.0,0.0,0.0,0.0,1.25,0.0,1.75,0.25,-1.23,-2.05,-0.17,125.5,-2.3,-96.6,0.5,0.0,0.5,0.0,1.25,0.0,0.5,0.0,0.25,0.0,0.0,0.0,0.5,0.64,-0.11,2.77,27.96,-10.2,27.7
1.3,0.0,0.0,0.0,0.0,0.0,0.0,0.0,0.5,0.0,0.0,1.5,0.0,5.25,0.14,0.7,1.7,107.09,-9.0,-98.2,0.25,0.25,0.0,0.5,0.0,0.0,0.75,1.0,0.25,0.0,0.25,0.5,0.75,0.45,-0.42,1.14,0.0,-3.5,-28.4
1.32,0.0,0.0,0.0,0.0,0.0,0.0,0.0,0.0,0.0,0.0,0.0,6.25,0.25,0.52,0.39,2.2,94.66,8.0,-109.8,0.0,0.0,0.0,0.0,0.0,0.0,0.75,0.0,0.25,0.0,0.0,0.0,0.25,0.33,-0.42,0.64,0.0,-12.8,-32.3
1.34,0.0,0.0,0.0,0.25,0.0,0.0,0.0,0.0,1.75,7.5,0.0,6.0,0.0,-0.67,0.45,3.02,142.39,-2.5,-82.3,0.0,0.0,0.0,0.0,0.0,0.0,0.5,0.0,0.0,0.0,0.0,0.0,0.0,0.2,-0.42,0.52,0.0,-32.4,27.3
1.36,0.0,0.0,0.0,0.75,0.0,0.0,0.0,5.0,3.0,7.5,7.5,5.75,6.75,-0.17,0.45,1.83,275.03,-3.2,-76.5,0.0,0.0,0.0,0.0,0.0,0.0,0.5,0.0,0.25,0.0,0.0,0.0,0.0,0.08,-0.11,0.39,0.0,-22.1,-6.0
1.38,0.0,0.0,0.0,1.0,0.0,0.75,0.0,5.0,4.0,7.5,0.75,5.5,5.5,-0.17,0.08,1.02,370.79,-5.7,-70.0,0.5,0.25,0.25,0.0,0.25,0.0,0.75,0.25,0.25,0.25,0.5,0.25,0.5,0.08,0.08,0.33,0.0,-9.7,-12.7
1.4,0.0,0.0,0.0,1.75,0.0,0.75,0.5,6.25,4.5,7.5,7.75,5.5,6.0,-0.23,0.08,1.02,517.85,-2.5,-67.0,0.0,0.0,0.0,0.0,0.0,0.0,0.75,0.25,0.25,0.0,0.5,0.0,0.25,0.02,0.33,0.27,0.0,-7.6,-46.4
1.42,0.0,0.0,3.5,3.0,0.0,0.75,1.0,6.25,5.25,7.25,7.75,5.5,5.5,-0.17,0.02,1.02,634.11,1.9,-51.7,0.5,0.0,0.0,0.0,0.0,0.0,0.5,0.0,0.25,0.25,0.5,0.25,0.5,0.02,0.77,0.27,0.0,-9.6,-39.4
1.44,0.0,0.0,3.75,3.25,0.0,1.25,1.25,6.25,5.5,6.5,7.25,4.75,5.25,-0.11,0.02,0.95,718.12,2.2,-47.2,0.25,0.0,0.5,0.25,0.25,0.0,0.75,0.75,0.25,0.25,0.5,0.5,0.5,0.02,1.02,0.08,0.0,-7.3,-25.0
1.46,0.5,0.25,5.25,4.25,0.0,1.0,1.25,5.75,4.75,5.75,7.0,3.75,4.0,-0.11,0.02,1.02,733.06,5.1,-35.0,0.25,0.0,0.0,0.0,0.0,0.0,0.75,0.5,0.25,0.5,0.5,0.5,0.75,0.02,1.2,-0.05,27.17,-1.5,-58.4
1.48,2.0,0.5,6.25,6.0,1.0,1.5,1.5,5.25,4.5,4.5,5.5,2.75,2.25,-0.11,0.02,0.95,739.42,8.3,-12.8,0.0,0.0,0.5,0.0,0.0,0.0,0.75,0.0,0.25,0.0,0.5,0.5,0.75,-0.11,1.2,0.02,40.79,-11.6,-50.2
1.5,3.5,1.5,7.0,6.5,1.75,1.5,1.5,4.5,3.75,3.0,4.0,2.0,1.5,-0.11,0.08,0.95,728.05,11.3,6.2,0.0,0.0,0.25,0.0,0.0,0.0,0.25,0.0,0.25,0.0,0.5,0.25,0.25,-0.17,1.08,0.08,42.7,-12.8,-51.2
1.52,5.0,1.5,7.25,7.0,2.25,0.75,1.25,4.0,3.25,2.25,2.75,1.75,1.0,-0.11,0.02,0.95,699.08,13.9,17.9,0.25,0.0,0.0,0.0,0.0,0.0,0.75,0.25,0.25,0.0,0.5,0.5,0.5,-0.11,1.39,0.2,43.89,-8.2,-51.9
1.54,6.0,1.5,7.75,8.0,2.0,0.75,1.0,2.25,2.5,1.25,2.25,1.0,0.25,-0.05,0.08,0.95,651.7,18.0,34.4,0.25,0.0,0.0,0.0,0.0,0.0,0.25,0.0,0.25,0.0,0.25,0.5,0.5,-0.05,1.39,0.2,38.04,-8.1,-60.8
1.56,6.25,2.0,8.25,8.25,0.0,0.75,0.75,2.25,1.75,1.25,1.5,1.0,0.25,-0.11,0.08,1.02,593.94,20.1,39.1,0.0,0.25,0.0,0.0,0.0,0.0,0.25,0.0,0.25,0.25,0.5,0.5,0.5,0.08,1.14,0.14,40.62,-3.7,-62.1
1.58,7.0,3.0,8.0,8.25,0.0,0.75,0.5,0.75,1.5,1.25,1.25,0.75,0.25,-0.11,0.14,1.08,531.81,21.8,48.1,0.0,0.0,0.0,0.0,0.0,0.0,0.25,0.0,0.25,0.25,0.25,0.5,0.5,0.08,0.95,0.2,37.76,-1.5,-82.6
1.6,7.5,3.0,8.25,8.25,0.0,0.0,0.0,0.75,1.5,1.25,1.0,0.75,0.25,-0.23,0.14,1.02,483.32,23.1,50.3,0.25,0.0,0.0,0.0,0.25,0.0,0.25,0.0,0.0,0.25,0.5,0.5,0.5,-0.86,6.7,-7.98,37.43,-4.0,-52.3
1.62,7.5,3.5,8.5,8.25,0.0,0.0,0.0,0.5,1.25,1.25,0.75,0.75,0.25,-0.23,0.14,1.08,469.45,23.6,53.5,0.0,0.5,0.5,0.0,1.0,0.0,0.25,0.0,0.0,0.25,0.5,0.5,1.0,0.27,0.52,2.89,46.18,-3.9,-16.5
1.64,8.0,4.25,9.0,8.25,0.0,0.0,0.0,0.5,1.25,1.25,0.75,0.75,0.25,-0.23,0.2,1.02,465.48,23.7,55.2,0.25,0.25,0.0,0.0,0.0,0.0,0.0,0.0,0.25,0.25,0.5,0.5,0.5,-0.92,2.08,-3.92,47.84,-5.2,-51.4
1.66,8.0,4.25,9.0,8.25,0.0,0.0,0.0,0.5,0.0,1.25,0.5,0.75,0.25,-0.17,0.2,1.14,467.4,24.2,59.6,0.0,0.25,0.0,0.0,0.25,0.0,0.0,0.0,0.25,0.25,0.25,0.5,0.5,2.27,3.58,-2.86,45.78,-0.5,-50.8
1.68,8.5,4.25,9.0,7.0,0.0,0.0,0.0,0.5,0.0,1.25,0.5,0.75,0.25,-0.23,0.27,1.14,468.98,24.6,60.3,0.0,0.25,0.0,0.0,0.5,0.0,0.25,0.0,0.25,0.25,0.5,0.5,0.5,0.77,0.14,0.08,43.61,-2.3,-39.4
1.7,8.25,4.5,8.75,8.25,0.0,0.0,0.0,0.25,0.5,0.0,0.5,0.5,0.25,-0.17,0.39,0.95,467.42,25.9,66.1,0.0,0.0,0.0,0.0,0.0,0.0,0.25,0.0,0.25,0.25,0.25,0.5,0.5,-0.05,-0.73,1.02,40.5,-1.5,-82.6
1.72,8.5,0.0,7.75,7.0,0.0,0.0,0.0,0.0,0.0,1.0,0.0,0.75,0.25,-0.17,0.45,0.95,421.54,27.5,59.5,0.0,0.25,0.5,0.0,0.25,0.0,0.25,0.0,0.25,0.25,0.5,0.5,0.5,-0.48,-0.86,1.08,42.96,-8.6,-31.6
1.74,8.0,3.0,7.75,6.75,0.0,0.0,0.0,0.0,0.0,0.0,0.0,0.0,0.0,-0.17,0.45,1.08,390.2,28.4,75.4,0.0,0.0,0.0,0.0,0.25,0.0,0.25,0.0,0.25,0.25,0.5,0.5,0.5,-0.11,0.02,0.08,43.06,-1.9,-65.5
1.76,8.0,3.0,8.0,7.0,0.0,0.0,0.0,0.0,0.25,0.0,0.0,0.0,0.0,-0.23,0.45,1.08,371.34,28.2,74.1,0.0,0.0,0.0,0.0,0.0,0.0,0.25,0.0,0.25,0.25,0.5,0.5,0.5,0.08,1.02,-0.67,41.97,-2.6,-81.8
1.78,8.25,0.0,0.0,7.25,0.0,0.0,0.0,0.0,0.0,0.0,0.0,0.0,0.0,-0.23,0.52,0.7,311.2,26.1,78.0,0.0,0.25,0.0,0.0,0.5,0.0,0.25,0.0,0.25,0.0,0.5,0.75,0.5,0.39,1.58,-0.67,42.78,-4.4,-42.3
1.8,7.75,0.0,7.75,0.0,0.0,0.0,0.0,0.0,0.0,0.0,0.0,0.0,0.0,-0.05,0.64,0.7,266.78,36.7,78.5,0.0,0.0,0.0,0.0,1.0,0.0,0.25,0.0,0.25,0.0,0.25,0.5,0.5,0.58,1.27,-0.23,42.49,-1.0,-26.5
1.82,7.25,0.0,7.75,6.75,0.0,0.0,0.0,0.0,0.0,0.0,0.0,0.0,0.0,0.08,0.77,0.95,255.89,30.4,71.4,0.0,0.0,0.0,0.0,1.25,0.0,0.25,0.0,0.0,0.25,0.25,0.5,0.5,0.39,0.95,-0.05,44.23,1.5,-22.0
1.84,4.5,0.0,7.0,5.25,0.0,0.0,0.0,0.0,0.0,0.0,0.0,0.0,0.0,0.14,1.02,1.08,239.88,30.6,69.1,0.25,0.0,0.0,0.0,1.25,0.0,0.25,0.0,0.0,0.25,0.25,0.5,0.5,0.27,0.83,-0.11,46.28,-1.0,-13.5
1.86,2.0,0.0,7.0,3.25,0.0,0.0,0.0,0.0,0.0,0.0,0.0,0.0,0.25,0.08,0.83,0.95,212.94,31.1,62.1,0.0,0.25,0.0,0.0,1.5,0.0,0.25,0.0,0.25,0.25,0.5,0.5,0.5,0.2,0.95,-0.36,53.08,-0.7,-13.2
1.88,3.5,0.0,6.25,5.0,0.0,0.0,0.5,0.0,0.75,0.25,0.25,0.0,0.25,0.02,0.58,0.27,206.14,27.7,55.6,0.0,0.25,0.0,0.0,1.5,0.0,0.25,0.0,0.25,0.25,0.25,0.5,0.5,0.2,1.08,-0.67,59.12,-0.1,-9.3
1.9,0.0,0.0,5.75,4.75,0.0,0.0,0.0,0.0,0.75,0.25,0.0,0.0,0.25,0.08,1.08,0.14,183.21,25.8,47.2,0.0,0.0,0.0,0.0,0.5,0.0,0.25,0.0,0.25,0.25,0.25,0.5,0.5,0.58,3.39,-0.8,55.59,-0.4,-50.4
1.92,0.0,0.0,5.25,3.25,0.0,0.0,0.25,0.0,0.75,0.25,0.25,0.25,0.0,0.14,0.89,0.14,158.11,26.8,41.9,0.0,0.0,0.0,0.0,0.25,0.0,0.25,0.0,0.25,0.25,0.5,0.5,0.5,2.14,4.83,0.83,50.28,-1.9,-65.5
1.94,0.0,0.0,2.5,3.25,0.0,0.0,0.0,0.0,0.5,0.0,0.25,0.0,0.25,0.02,1.08,0.08,122.08,23.2,41.3,0.0,0.25,0.0,0.0,0.25,0.0,0.25,0.0,0.25,0.0,0.5,0.5,0.5,1.08,2.52,2.08,44.49,-4.8,-46.8
1.96,0.0,0.0,1.5,3.0,0.0,0.0,0.0,0.0,0.75,0.75,0.0,0.0,0.25,0.2,0.52,0.02,97.05,16.6,25.2,0.25,0.0,0.25,0.0,0.25,0.0,0.25,0.0,0.25,0.25,0.5,0.5,0.5,-0.61,-4.17,-1.48,42.66,-7.8,-41.0
1.98,0.0,0.0,0.75,1.0,0.0,0.0,0.0,0.0,0.0,0.0,0.0,0.0,0.0,0.27,0.52,-0.48,45.57,26.1,59.2,0.25,0.0,0.0,0.0,0.25,0.0,0.25,0.0,0.25,0.25,0.5,0.5,0.5,0.08,-4.8,-2.17,42.26,-4.8,-51.0
2.0,0.0,0.0,0.5,1.0,0.0,0.0,0.0,0.0,0.0,0.0,0.0,0.0,0.0,0.45,0.83,-0.55,12.6,24.1,58.9,0.0,0.25,0.0,0.0,0.0,0.0,0.25,0.0,0.0,0.25,0.5,0.5,0.5,-0.36,-0.73,1.77,40.45,-2.7,-64.8
2.02,0.0,0.0,0.0,1.0,0.0,0.0,0.0,0.0,0.0,0.0,0.0,0.0,0.0,0.27,1.02,-0.48,0.0,17.2,57.9,0.0,0.25,0.0,0.0,0.25,0.0,0.25,0.0,0.25,0.25,0.5,0.5,0.5,0.7,2.39,-2.11,39.83,-2.9,-49.5
2.04,0.0,0.0,0.0,0.0,0.0,0.0,0.0,0.0,0.25,0.0,0.0,0.0,0.0,-0.11,2.14,-0.36,0.0,12.1,-38.5,0.0,0.0,0.0,0.0,0.0,0.0,0.25,0.0,0.25,0.25,0.5,0.5,0.5,3.08,4.08,-1.05,37.7,-2.6,-81.8
2.06,0.0,0.0,0.0,0.0,0.0,0.0,0.0,0.0,0.0,0.0,0.0,0.0,0.0,-0.23,3.7,0.64,0.0,0.0,0.0,0.0,0.0,0.0,0.0,0.0,0.0,0.25,0.0,0.25,0.25,0.25,0.5,0.5,2.14,2.33,-1.55,34.78,-1.5,-82.6
2.08,0.0,0.0,0.0,1.0,0.0,0.0,0.0,0.0,0.0,0.0,0.0,0.0,0.0,0.27,1.83,1.2,0.0,17.2,57.9,0.25,0.0,0.0,0.0,0.0,0.0,0.25,0.0,0.25,0.5,0.5,0.75,0.5,0.02,0.58,-0.3,37.45,-4.2,-68.9
2.1,0.0,0.0,0.0,0.0,0.0,0.0,0.0,0.0,0.0,0.0,0.0,0.0,0.0,-0.11,-1.05,-1.67,0.0,0.0,0.0,0.0,0.0,0.0,0.0,0.0,0.0,0.25,0.0,0.25,0.25,0.5,0.5,0.5,-0.55,0.2,0.39,37.21,-2.6,-81.8
2.12,0.0,0.0,0.0,0.0,0.0,0.0,0.0,0.0,0.0,0.0,0.0,0.0,0.0,-0.05,-1.73,-1.86,0.0,0.0,0.0,0.0,0.0,0.0,0.0,0.0,0.0,0.25,0.0,0.25,0.25,0.5,0.5,0.5,-0.11,0.27,0.2,38.22,-2.6,-81.8
2.14,0.0,0.0,0.0,0.0,0.0,0.0,0.0,0.0,0.0,0.0,0.0,0.0,0.0,-0.42,-1.98,-1.42,0.0,0.0,0.0,0.0,0.25,0.0,0.0,0.0,0.0,0.25,0.0,0.25,0.25,0.25,0.5,0.5,0.52,0.83,0.02,37.4,-2.9,-60.6
2.16,0.0,0.0,0.0,0.25,0.0,0.0,0.0,0.0,0.0,0.0,0.0,0.0,0.0,0.39,-1.67,-0.17,0.0,17.2,57.9,0.0,0.0,0.0,0.0,0.0,0.0,0.25,0.0,0.25,0.25,0.5,0.5,0.5,0.7,1.2,0.08,36.91,-2.6,-81.8
2.18,0.0,0.0,0.25,0.0,0.0,0.0,0.0,0.0,0.0,0.0,0.0,0.0,0.0,1.83,0.89,0.52,0.0,38.2,60.9,0.0,0.0,0.0,0.0,0.0,0.0,0.25,0.0,0.25,0.25,0.5,0.5,0.5,0.52,1.39,0.14,36.06,-2.6,-81.8
2.2,0.0,0.0,0.0,0.0,0.0,0.0,0.0,0.0,0.5,0.0,0.0,0.25,0.0,-0.11,3.08,-0.36,0.0,11.0,-62.4,0.0,0.0,0.0,0.0,0.0,0.0,0.25,0.0,0.25,0.25,0.5,0.5,0.5,0.2,1.27,0.02,36.22,-2.6,-81.8
2.22,0.0,0.0,0.0,0.5,0.0,0.0,0.0,0.0,0.0,0.0,0.0,0.0,0.0,0.52,2.95,0.27,5.27,17.2,57.9,0.0,0.0,0.0,0.0,0.0,0.0,0.25,0.0,0.0,0.25,0.5,0.5,0.5,0.14,0.95,-0.36,35.49,-1.3,-87.5
2.24,0.0,0.0,0.0,1.0,0.0,0.0,0.0,0.0,0.0,0.0,0.0,0.0,0.0,0.2,2.45,0.39,11.26,17.2,57.9,0.0,0.25,0.0,0.0,0.0,0.0,0.25,0.0,0.25,0.75,0.5,0.75,0.5,0.2,0.64,-0.92,41.27,-1.0,-68.0
2.26,0.0,0.0,0.0,0.0,0.0,0.0,0.0,0.0,0.0,0.0,0.0,0.0,0.0,-0.11,2.14,-0.05,9.24,0.0,0.0,0.25,0.25,0.0,0.0,0.0,0.0,0.0,0.0,0.25,0.25,0.5,0.5,0.5,0.2,0.45,-0.98,41.88,-5.2,-51.4
2.28,0.0,0.0,0.0,0.0,0.0,0.0,0.0,0.0,0.0,0.0,0.0,0.0,0.0,0.08,1.77,0.08,6.98,0.0,0.0,0.0,0.0,0.0,0.0,0.0,0.0,0.25,0.0,0.25,0.25,0.25,0.5,0.5,0.02,0.58,-0.98,40.82,-1.5,-82.6
2.3,0.0,0.0,0.0,1.0,0.0,0.0,0.0,0.0,0.25,0.0,0.0,0.0,0.0,0.2,1.45,0.39,10.41,16.2,39.5,0.0,0.0,0.0,0.0,0.0,0.0,0.0,0.0,0.25,0.25,0.5,0.5,0.5,-0.05,0.89,-0.92,38.23,-0.8,-88.3
2.32,0.0,0.0,0.75,1.0,0.0,0.0,0.0,0.0,0.0,0.0,0.0,0.0,0.25,0.2,0.83,0.64,19.92,21.2,38.2,0.0,0.0,0.0,0.0,0.0,0.0,0.25,0.0,0.25,0.25,0.25,0.5,0.5,-0.11,1.14,-0.67,35.22,-1.5,-82.6
2.34,0.0,0.0,0.0,1.0,0.0,0.0,0.0,0.0,0.5,0.0,0.0,0.0,0.0,-0.11,0.27,0.45,27.06,15.5,27.0,0.0,0.0,0.0,0.0,0.0,0.0,0.25,0.0,0.25,0.25,0.5,0.5,0.5,-0.23,1.14,-0.55,35.26,-2.6,-81.8
2.36,0.0,0.0,0.75,1.0,0.0,0.0,0.0,0.0,0.5,0.0,0.0,0.0,0.25,-0.05,0.14,0.27,36.7,19.4,23.5,0.0,0.0,0.0,0.0,0.0,0.0,0.25,0.0,0.25,0.0,0.5,0.25,0.5,-0.05,0.89,-0.3,32.56,-4.5,-78.4
2.38,0.0,0.0,0.5,1.25,0.0,0.0,0.25,0.0,1.0,0.0,0.0,0.0,0.25,0.14,0.2,0.08,45.66,17.1,13.8,0.0,0.0,0.0,0.0,0.0,0.0,0.25,0.0,0.5,0.0,0.5,0.75,0.5,0.02,0.95,-0.61,35.38,-6.2,-80.9
2.4,0.0,0.0,0.25,0.25,0.0,0.0,0.25,0.0,0.5,0.0,0.0,0.0,0.0,0.14,0.2,-0.11,41.06,21.4,13.3,0.0,0.0,0.25,0.0,0.0,0.0,0.25,0.0,0.25,0.0,0.25,0.25,0.5,0.08,0.89,-0.55,31.99,-8.9,-56.8
2.42,0.0,0.0,0.0,1.0,0.0,0.0,0.25,0.0,0.75,0.5,0.0,0.0,0.0,0.27,0.33,-0.17,41.58,9.5,-0.9,0.0,0.0,0.0,0.0,0.0,0.0,0.25,0.0,0.25,0.0,0.5,0.25,0.5,-0.05,0.77,-0.48,30.48,-4.5,-78.4
2.44,0.0,0.0,0.0,1.0,0.0,0.0,0.5,0.25,1.0,0.25,0.0,0.5,0.0,0.39,0.58,-0.3,44.79,10.4,-16.5,0.0,0.0,0.0,0.0,0.0,0.0,0.0,0.0,0.25,0.0,0.5,0.25,0.5,-0.11,0.77,-0.36,27.26,-2.2,-86.9
2.46,0.0,0.0,0.0,1.25,0.0,0.0,0.5,0.5,1.0,0.0,0.0,0.0,0.0,0.52,0.89,-0.48,49.76,11.1,8.2,0.0,0.0,0.0,0.0,0.0,0.0,0.25,0.0,0.0,0.0,0.5,0.25,0.5,-0.05,0.83,-0.3,25.07,-3.1,-85.6
2.48,0.0,0.0,1.25,1.25,0.0,0.0,1.0,0.75,1.0,0.25,0.0,0.0,0.0,0.52,1.08,-0.55,64.08,16.3,16.0,0.0,0.0,0.0,0.0,0.0,0.0,0.25,0.0,0.25,0.0,0.5,0.25,0.5,0.08,0.77,-0.3,24.03,-4.5,-78.4
2.5,0.0,0.0,0.0,1.0,0.0,0.0,0.0,0.0,0.0,0.0,0.0,0.0,0.25,0.89,1.39,-0.67,56.84,11.1,24.8,0.0,0.0,0.0,0.0,0.0,0.0,0.25,0.0,0.25,0.0,0.5,0.25,0.5,0.14,0.77,-0.3,25.47,-4.5,-78.4
2.52,0.0,0.0,0.5,1.0,0.0,0.0,0.0,0.0,0.0,0.0,0.0,0.0,0.25,0.52,1.33,-0.73,49.52,18.7,35.0,0.0,0.0,0.0,0.0,0.0,0.0,0.25,0.0,0.25,0.0,0.5,0.25,0.5,0.14,0.7,-0.36,26.63,-4.5,-78.4
2.54,0.0,0.0,0.25,1.0,0.0,0.0,0.0,0.0,0.0,0.0,0.0,0.0,0.25,0.39,1.2,-0.67,35.5,15.5,30.7,0.0,0.0,0.0,0.0,0.0,0.0,0.25,0.0,0.25,0.0,0.5,0.25,0.5,0.08,0.7,-0.48,26.85,-4.5,-78.4
2.56,0.0,0.0,0.5,1.0,0.0,0.0,0.25,0.0,0.0,0.0,0.0,0.0,0.25,0.39,1.08,-0.36,31.82,19.6,34.5,0.0,0.0,0.0,0.0,0.0,0.0,0.0,0.0,0.25,0.0,0.5,0.5,0.5,0.08,0.83,-0.42,28.44,-3.2,-90.2
2.58,0.0,0.0,0.25,0.75,0.0,0.0,0.25,0.0,0.0,0.0,0.0,0.25,0.25,0.2,0.89,-0.23,27.29,15.5,5.3,0.25,0.0,0.0,0.0,0.0,0.0,0.25,0.0,0.25,0.0,0.5,0.25,0.5,0.2,0.83,-0.61,29.23,-8.3,-56.2
2.6,0.0,0.0,0.0,0.0,0.0,0.0,0.25,0.0,0.0,0.0,0.0,0.0,0.25,0.27,0.89,-0.05,19.21,0.9,-66.3,0.0,0.0,0.0,0.0,0.0,0.0,0.0,0.0,0.25,0.0,0.5,0.25,0.5,0.2,0.77,-0.67,29.01,-2.2,-86.9
2.62,0.0,0.0,0.0,0.0,0.0,0.0,0.25,0.0,0.0,0.0,0.0,0.0,0.0,0.14,0.83,-0.11,9.8,32.4,27.3,0.0,0.0,0.0,0.0,0.0,0.0,0.25,0.0,0.25,0.0,0.5,0.25,0.5,0.02,0.7,-0.73,28.5,-4.5,-78.4
2.64,0.0,0.0,0.0,1.0,0.0,0.0,0.25,0.0,1.0,0.25,0.0,0.5,0.0,0.14,0.89,-0.17,16.87,11.8,-16.4,0.0,0.0,0.0,0.0,0.0,0.0,0.25,0.0,0.25,0.0,0.5,0.25,0.5,-0.11,0.64,-0.67,28.82,-4.5,-78.4
2.66,0.0,0.0,0.25,0.0,0.0,0.0,0.5,0.75,0.25,0.0,0.5,0.0,0.0,0.33,0.95,-0.11,19.29,6.7,-26.7,0.0,0.0,0.0,0.0,0.0,0.0,0.25,0.0,0.0,0.0,0.5,0.25,0.5,-0.55,0.83,-0.3,27.27,-3.1,-85.6
2.68,0.0,0.0,0.25,0.5,0.0,0.0,0.75,0.5,1.0,0.0,0.0,0.0,0.0,0.33,0.89,-0.17,28.89,13.0,-0.6,0.0,0.0,0.0,0.0,0.0,0.0,0.25,0.0,0.25,0.0,0.5,0.25,0.5,-0.05,0.7,-0.55,27.37,-4.5,-78.4
2.7,0.0,0.0,0.0,0.5,0.0,0.0,1.25,1.0,1.75,0.25,0.5,0.25,0.0,0.33,0.83,-0.17,45.99,7.4,-29.2,0.0,0.0,0.0,0.0,0.0,0.0,0.25,0.0,0.0,0.0,0.5,0.25,0.5,0.02,0.77,-0.61,26.17,-3.1,-85.6
2.72,0.0,0.0,0.5,1.75,0.0,0.0,2.25,2.75,2.25,0.5,1.25,0.25,0.0,0.27,0.77,-0.23,89.42,7.1,-17.5,0.0,0.0,0.0,0.0,0.0,0.0,0.25,0.0,0.25,0.0,0.5,0.25,0.5,-0.11,0.77,-0.55,26.55,-4.5,-78.4
2.74,0.0,0.0,0.75,1.5,0.0,0.0,2.75,2.75,2.75,0.75,1.25,0.5,0.0,0.33,0.77,-0.3,132.35,7.9,-20.7,0.25,0.0,0.0,0.0,0.0,0.0,0.25,0.0,0.25,0.0,0.5,0.25,0.5,-0.23,0.83,-0.48,27.66,-8.3,-56.2
2.76,0.0,0.0,1.25,1.75,0.0,0.0,3.25,3.0,2.75,0.75,1.25,0.5,0.0,0.39,0.77,-0.42,170.23,9.3,-15.2,0.0,0.0,0.0,0.0,0.0,0.0,0.25,0.0,0.25,0.0,0.5,0.25,0.5,-0.17,0.95,-0.42,28.44,-4.5,-78.4
2.78,0.0,0.0,1.0,1.75,0.0,0.0,3.0,3.0,2.25,1.25,1.25,1.25,0.0,0.45,0.83,-0.42,193.93,7.4,-23.8,0.0,0.0,0.0,0.0,0.0,0.0,0.0,0.0,0.0,0.0,0.25,0.25,0.5,-0.11,0.95,-0.42,25.29,2.2,-101.6
2.8,0.0,0.0,1.5,1.75,0.0,0.0,2.5,2.75,2.5,0.5,1.25,0.75,0.0,0.45,0.77,-0.42,203.5,10.2,-14.6,0.0,0.0,0.0,0.0,0.0,0.0,0.25,0.0,0.0,0.0,0.5,0.25,0.5,-0.05,0.89,-0.48,24.09,-3.1,-85.6
2.82,0.0,0.0,0.75,1.75,0.0,0.0,2.75,2.75,2.25,0.5,1.25,0.5,0.0,0.77,0.64,-0.3,200.1,8.4,-16.8,0.0,0.0,0.0,0.0,0.0,0.0,0.25,0.0,0.25,0.0,0.5,0.25,0.5,-0.05,0.89,-0.48,24.51,-4.5,-78.4
2.84,0.0,0.0,0.75,1.5,0.0,0.0,2.5,2.5,2.75,2.0,1.25,1.25,0.0,0.33,0.7,-0.3,202.66,5.9,-31.0,0.0,0.0,0.0,0.0,0.0,0.0,0.25,0.0,0.25,0.0,0.5,0.25,0.5,-0.17,0.89,-0.42,26.07,-4.5,-78.4
2.86,0.0,0.0,0.75,1.75,0.0,0.0,2.5,2.75,2.25,1.5,1.25,1.25,0.25,0.39,0.89,-0.3,201.97,5.9,-28.9,0.0,0.0,0.0,0.0,0.0,0.0,0.25,0.0,0.25,0.0,0.25,0.25,0.5,-0.23,0.95,-0.42,25.92,-3.3,-79.0
2.88,0.0,0.0,1.5,1.75,0.0,0.0,2.5,2.75,2.25,1.75,1.5,1.25,0.25,0.52,0.95,-0.36,206.44,7.4,-25.6,0.0,0.0,0.0,0.0,0.0,0.0,0.0,0.0,0.25,0.0,0.5,0.75,0.5,-0.23,0.95,-0.42,29.84,-3.9,-92.7
2.9,0.0,0.0,1.5,1.5,0.0,0.0,2.5,2.5,2.25,1.75,1.25,0.75,0.0,0.45,1.02,-0.36,203.81,8.0,-21.2,0.5,0.0,0.0,0.0,0.0,0.0,0.25,0.0,0.25,0.0,0.5,0.25,0.5,-0.11,0.95,-0.48,31.65,-11.3,-38.9
2.92,0.0,0.0,0.75,0.25,0.0,0.0,2.5,2.0,2.0,0.25,1.25,0.25,0.0,0.39,1.02,-0.36,178.04,9.4,-24.7,0.0,0.0,0.0,0.0,0.0,0.0,0.0,0.0,0.25,0.0,0.5,0.25,0.5,-0.11,0.95,-0.55,31.21,-2.2,-86.9
2.94,0.0,0.0,0.5,1.0,0.0,0.0,2.25,1.75,2.0,0.25,1.25,0.5,0.0,0.39,1.08,-0.23,150.24,9.7,-22.5,0.0,0.0,0.0,0.0,0.0,0.0,0.25,0.0,0.0,0.0,0.25,0.25,0.5,-0.17,0.89,-0.48,27.69,-1.4,-87.8
2.96,0.0,0.0,0.5,0.75,0.0,0.0,2.25,1.75,2.0,0.25,1.25,0.5,0.0,0.45,1.08,-0.23,123.94,9.4,-25.1,0.0,0.0,0.0,0.0,0.0,0.0,0.0,0.0,0.25,0.0,0.5,0.25,0.5,-0.17,0.89,-0.48,26.36,-2.2,-86.9
2.98,0.0,0.0,0.5,1.5,0.0,0.0,2.25,2.0,1.75,1.75,1.0,1.0,0.5,0.39,1.02,-0.23,126.75,4.8,-32.6,0.0,0.0,0.0,0.0,0.0,0.0,0.25,0.0,0.0,0.0,0.5,0.25,0.5,-0.23,0.89,-0.42,24.66,-3.1,-85.6
3.0,0.0,0.0,0.5,0.75,0.0,0.0,0.75,0.0,0.0,0.25,0.0,0.75,0.25,0.39,0.95,-0.23,95.01,15.1,-14.5,0.0,0.0,0.0,0.0,0.0,0.0,0.25,0.0,0.0,0.0,0.5,0.25,0.5,-0.23,0.89,-0.42,24.7,-3.1,-85.6
3.02,0.0,0.0,0.0,0.0,0.0,0.0,0.0,0.0,0.0,0.0,0.0,0.0,0.25,0.33,0.89,-0.3,57.0,-13.7,-109.8,0.0,0.0,0.0,0.0,0.0,0.0,0.25,0.0,0.25,0.0,0.25,0.25,0.25,-0.23,0.95,-0.42,22.9,-7.3,-71.8
3.04,0.0,0.0,0.0,0.0,0.0,0.0,0.0,0.0,0.0,0.25,0.0,0.75,0.0,0.33,0.89,-0.3,18.42,2.7,-101.2,0.0,0.0,0.0,0.0,0.0,0.0,0.25,0.0,0.0,0.0,0.5,0.25,0.5,-0.23,0.95,-0.42,22.51,-3.1,-85.6
3.06,0.0,0.0,0.0,0.0,0.0,0.0,0.0,0.0,0.0,0.0,0.0,0.0,0.0,0.39,0.83,-0.3,0.0,0.0,0.0,0.0,0.0,0.0,0.0,0.0,0.0,0.0,0.0,0.0,0.0,0.5,0.25,0.5,-0.17,0.95,-0.42,21.57,-0.3,-96.5
3.08,0.0,0.0,0.0,0.0,0.0,0.0,0.0,0.0,0.0,0.0,0.0,0.0,0.0,0.45,0.83,-0.3,0.0,0.0,0.0,0.0,0.0,0.0,0.0,0.0,0.0,0.0,0.0,0.25,0.0,0.5,0.25,0.5,-0.17,0.89,-0.36,23.15,-2.2,-86.9
3.1,0.0,0.0,0.0,0.0,0.0,0.0,0.0,0.0,0.0,0.0,0.0,0.0,0.0,0.39,0.83,-0.3,0.0,0.0,0.0,0.0,0.0,0.0,0.0,0.0,0.0,0.0,0.0,0.0,0.0,0.5,0.25,0.5,-0.23,0.89,-0.36,23.08,-0.3,-96.5
3.12,0.0,0.0,0.0,0.0,0.0,0.0,0.0,0.0,0.0,0.0,0.0,0.75,0.0,0.39,0.77,-0.3,0.0,8.8,-109.8,0.0,0.25,0.0,0.0,0.0,0.0,0.25,0.0,0.0,0.0,0.5,0.25,0.5,-0.23,0.89,-0.36,24.3,-4.6,-56.3
3.14,0.0,0.0,0.75,0.0,0.0,0.0,0.0,0.0,0.0,0.0,0.0,0.25,0.25,0.33,0.83,-0.3,0.0,22.1,-6.6,0.0,0.0,0.0,0.0,0.0,0.0,0.0,0.0,0.25,0.0,0.5,0.25,0.5,-0.23,0.89,-0.36,25.47,-2.2,-86.9
3.16,0.0,0.0,0.25,0.25,0.0,0.0,0.0,0.0,0.0,0.25,0.0,0.75,0.25,0.27,0.83,-0.36,0.0,7.6,-55.4,0.0,0.0,0.0,0.0,0.0,0.0,0.25,0.0,0.0,0.0,0.5,0.25,0.5,-0.23,0.89,-0.42,26.02,-3.1,-85.6
3.18,0.0,0.0,0.0,0.5,0.0,0.0,0.0,0.0,0.0,0.0,0.0,0.75,0.25,0.27,0.83,-0.3,4.3,7.9,-52.3,0.0,0.0,0.0,0.0,0.0,0.0,0.25,0.0,0.0,0.0,0.5,0.25,0.5,-0.23,0.89,-0.42,25.79,-3.1,-85.6
3.2,0.0,0.0,0.0,0.5,0.0,0.0,0.0,0.0,0.0,0.25,0.0,0.75,0.25,0.27,0.89,-0.3,13.09,4.6,-55.5,0.0,0.0,0.0,0.0,0.0,0.0,0.25,0.0,0.25,0.0,0.5,0.5,0.5,-0.23,0.95,-0.42,28.12,-5.0,-82.6
3.22,0.0,0.0,0.0,0.0,0.0,0.0,0.0,0.0,0.0,0.0,0.0,0.0,0.0,0.33,0.89,-0.3,9.74,0.0,0.0,0.0,0.0,0.0,0.0,0.0,0.0,0.0,0.0,0.0,0.0,0.5,0.25,0.5,-0.23,0.95,-0.42,27.24,-0.3,-96.5
3.24,0.0,0.0,0.0,0.0,0.0,0.0,0.0,0.0,0.0,0.25,0.0,0.75,0.25,0.33,0.95,-0.3,19.41,-0.6,-103.0,0.0,0.0,0.0,0.0,0.0,0.0,0.25,0.0,0.0,0.0,0.5,0.25,0.5,-0.23,0.95,-0.42,26.91,-3.1,-85.6
3.26,0.0,0.0,0.0,0.0,0.0,0.0,0.0,0.0,0.0,0.0,0.0,0.0,0.25,0.33,0.95,-0.3,14.54,-13.7,-109.8,0.0,0.0,0.0,0.0,0.0,0.0,0.0,0.0,0.0,0.0,0.25,0.25,0.5,-0.23,0.95,-0.42,23.74,2.2,-101.6
3.28,0.0,0.0,0.0,1.0,0.0,0.0,0.0,0.0,0.0,0.25,0.0,0.75,0.0,0.39,0.95,-0.3,20.67,10.1,-19.6,0.0,0.0,0.0,0.0,0.0,0.0,0.25,0.0,0.25,0.0,0.25,0.25,0.5,-0.3,0.95,-0.42,23.01,-3.3,-79.0
3.3,0.0,0.0,0.0,0.0,0.0,0.0,0.0,0.0,0.0,0.0,0.0,0.0,0.0,0.39,0.95,-0.3,14.6,0.0,0.0,0.0,0.0,0.0,0.0,0.0,0.0,0.25,0.0,0.0,0.0,0.25,0.25,0.5,-0.36,0.95,-0.42,21.1,-1.4,-87.8
3.32,0.0,0.0,0.0,0.0,0.0,0.0,0.0,0.0,0.0,0.0,0.0,0.0,0.0,0.33,0.95,-0.36,10.37,0.0,0.0,0.0,0.0,0.0,0.0,0.0,0.0,0.0,0.0,0.0,0.0,0.5,0.25,0.5,-0.36,0.89,-0.42,21.5,-0.3,-96.5
3.34,0.0,0.0,0.0,0.0,0.0,0.0,0.0,0.0,0.0,0.0,0.0,0.0,0.25,0.33,0.95,-0.3,4.0,-13.7,-109.8,0.0,0.0,0.0,0.0,0.0,0.0,0.0,0.0,0.0,0.0,0.25,0.25,0.5,-0.36,0.89,-0.36,20.22,2.2,-101.6
3.36,0.0,0.0,0.0,0.0,0.0,0.0,0.0,0.0,0.0,0.0,0.0,0.0,0.0,0.33,0.95,-0.3,0.0,0.0,0.0,0.0,0.0,0.0,0.0,0.0,0.0,0.0,0.0,0.0,0.25,0.5,0.5,0.5,-0.3,0.89,-0.36,23.8,0.7,-95.4
3.38,0.0,0.0,0.0,0.0,0.0,0.0,0.0,0.0,0.0,0.0,0.0,0.0,0.0,0.33,0.95,-0.3,0.0,0.0,0.0,0.25,0.0,0.0,0.0,0.0,0.0,0.25,0.0,0.0,0.0,0.25,0.25,0.5,-0.3,0.95,-0.42,23.72,-7.2,-55.9
3.4,0.0,0.0,0.0,0.0,0.0,0.0,0.0,0.0,0.0,0.0,0.0,0.0,0.0,0.33,0.89,-0.3,0.0,0.0,0.0,0.0,0.0,0.0,0.0,0.0,0.0,0.25,0.0,0.25,0.0,0.5,0.25,0.5,-0.23,0.95,-0.42,26.29,-4.5,-78.4
3.42,0.0,0.0,0.0,0.0,0.0,0.0,0.0,0.0,0.0,0.0,0.0,0.0,0.0,0.33,0.89,-0.3,0.0,0.0,0.0,0.0,0.0,0.0,0.0,0.0,0.0,0.0,0.0,0.0,0.0,0.25,0.25,0.5,-0.23,0.89,-0.42,23.71,2.2,-101.6
3.44,0.0,0.0,0.0,0.0,0.0,0.0,0.0,0.0,0.0,0.0,0.0,0.0,0.0,0.33,0.95,-0.36,0.0,0.0,0.0,0.0,0.0,0.0,0.0,0.0,0.0,0.0,0.0,0.0,0.0,0.5,0.25,0.5,-0.23,0.89,-0.42,23.37,-0.3,-96.5
3.46,0.0,0.0,0.0,0.0,0.0,0.0,0.0,0.0,0.0,0.0,0.0,0.0,0.0,0.33,0.95,-0.36,0.0,0.0,0.0,0.0,0.0,0.0,0.0,0.0,0.0,0.0,0.0,0.0,0.0,0.5,0.25,0.5,-0.23,0.89,-0.42,22.69,-0.3,-96.5
3.48,0.0,0.0,0.75,0.0,0.0,0.0,0.0,0.0,0.0,0.0,0.0,0.0,0.0,0.33,0.95,-0.3,1.89,38.2,60.9,0.0,0.0,0.0,0.0,0.0,0.0,0.25,0.0,0.25,0.0,0.5,0.25,0.5,-0.23,0.89,-0.36,24.87,-4.5,-78.4
3.5,0.0,0.0,0.0,0.0,0.0,0.0,0.0,0.0,0.0,0.0,0.0,0.0,0.0,0.33,0.95,-0.3,2.5,0.0,0.0,0.0,0.0,0.0,0.0,0.0,0.0,0.25,0.0,0.0,0.0,0.5,0.25,0.5,-0.23,0.89,-0.42,25.41,-3.1,-85.6
3.52,0.0,0.0,0.0,0.0,0.0,0.0,0.0,0.0,0.0,0.0,0.0,0.0,0.0,0.33,0.95,-0.3,2.08,0.0,0.0,0.0,0.0,0.0,0.0,0.0,0.0,0.0,0.0,0.0,0.5,0.5,0.25,0.5,-0.3,0.95,-0.42,28.2,4.2,-90.5
3.54,0.0,0.0,0.0,0.0,0.0,0.0,0.0,0.0,0.0,0.0,0.0,0.0,0.0,0.33,0.89,-0.3,1.88,0.0,0.0,0.0,0.0,0.25,0.0,0.0,0.0,0.25,0.0,0.0,0.0,0.5,0.25,0.5,-0.3,0.95,-0.42,28.75,-8.6,-62.4
3.56,0.0,0.0,0.0,0.0,0.0,0.0,0.0,0.0,0.0,0.0,0.0,0.0,0.0,0.33,0.95,-0.3,0.79,0.0,0.0,0.0,0.0,0.0,0.0,0.0,0.0,0.25,0.0,0.0,0.0,0.5,0.25,0.5,-0.23,0.89,-0.42,28.02,-3.1,-85.6
3.58,0.0,0.0,0.25,0.25,0.0,0.0,0.0,0.0,0.0,0.25,0.0,0.0,0.25,0.33,0.95,-0.3,5.41,6.7,-15.8,0.0,0.0,0.0,0.0,0.0,0.0,0.0,0.0,0.25,0.0,0.5,0.25,0.5,-0.23,0.89,-0.42,27.39,-2.2,-86.9
3.6,0.0,0.0,0.75,0.0,0.0,0.0,0.0,0.0,0.25,0.25,0.0,0.0,0.25,0.39,0.95,-0.3,13.85,16.4,-6.2,0.0,0.0,0.0,0.0,0.0,0.0,0.25,0.0,0.0,0.0,0.25,0.25,0.5,-0.23,0.89,-0.42,24.55,-1.4,-87.8
3.62,0.0,0.0,0.5,0.5,0.0,0.0,0.0,0.0,0.25,0.5,0.0,0.0,0.25,0.39,0.95,-0.3,24.16,9.9,-6.7,0.0,0.0,0.0,0.0,0.0,0.0,0.25,0.0,0.25,0.0,0.5,0.25,0.5,-0.23,0.89,-0.36,25.73,-4.5,-78.4
3.64,0.0,0.0,0.75,0.25,0.0,0.0,0.0,0.0,0.5,0.0,0.0,0.0,0.25,0.33,0.95,-0.3,30.15,20.4,8.3,0.0,0.0,0.0,0.0,0.0,0.0,0.25,0.0,0.0,0.0,0.25,0.25,0.5,-0.23,0.89,-0.42,23.56,-1.4,-87.8
3.66,0.0,0.0,0.25,0.25,0.0,0.0,0.0,0.0,0.25,0.0,0.0,0.0,0.25,0.33,0.89,-0.3,29.33,13.5,-6.7,0.0,0.0,0.0,0.0,0.0,0.0,0.25,0.0,0.0,0.0,0.5,0.25,0.5,-0.3,0.95,-0.42,24.3,-3.1,-85.6
3.68,0.0,0.0,0.25,0.0,0.0,0.0,0.25,0.0,0.25,0.0,0.0,0.0,0.0,0.33,0.89,-0.3,23.83,26.8,15.1,0.0,0.0,0.0,0.0,0.0,0.0,0.25,0.0,0.0,0.0,0.25,0.25,0.5,-0.3,0.95,-0.42,22.0,-1.4,-87.8
3.7,0.0,0.0,0.25,0.0,0.0,0.0,0.0,0.0,0.0,0.25,0.0,0.0,0.0,0.33,0.89,-0.3,17.28,11.6,-6.2,0.0,0.0,0.0,0.0,0.0,0.0,0.25,0.0,0.0,0.0,0.25,0.25,0.5,-0.3,0.89,-0.36,21.04,-1.4,-87.8
3.72,0.0,0.0,0.25,0.0,0.0,0.0,0.0,0.0,0.0,0.0,0.0,0.0,0.0,0.33,0.95,-0.3,11.22,38.2,60.9,0.0,0.0,0.0,0.0,0.0,0.0,0.25,0.0,0.0,0.0,0.5,0.25,0.5,-0.23,0.89,-0.36,21.05,-3.1,-85.6
3.74,0.0,0.0,0.0,0.0,0.0,0.0,0.0,0.0,0.0,0.0,0.0,0.0,0.0,0.33,0.95,-0.3,6.42,0.0,0.0,0.0,0.0,0.0,0.0,0.0,0.0,0.0,0.0,0.0,0.0,0.5,0.25,0.5,-0.23,0.89,-0.36,21.64,-0.3,-96.5
3.76,0.0,0.0,0.0,0.0,0.0,0.0,0.0,0.0,0.25,0.5,0.0,0.0,0.0,0.33,0.95,-0.3,6.9,-6.4,-63.3,0.0,0.0,0.0,0.0,0.0,0.0,0.25,0.0,0.0,0.0,0.5,0.25,0.5,-0.23,0.89,-0.36,22.59,-3.1,-85.6
3.78,0.0,0.0,0.75,0.5,0.0,0.0,0.0,0.0,0.0,0.25,0.0,0.0,0.25,0.33,0.95,-0.3,13.93,17.2,16.7,0.0,0.0,0.0,0.0,0.0,0.0,0.25,0.0,0.0,0.0,0.5,0.25,0.5,-0.23,0.89,-0.42,23.59,-3.1,-85.6
3.8,0.0,0.0,0.75,0.25,0.0,0.0,0.0,0.0,0.0,0.25,0.0,0.0,0.25,0.33,0.89,-0.3,19.42,17.2,9.7,0.0,0.0,0.0,0.0,0.0,0.0,0.25,0.0,0.0,0.0,0.5,0.25,0.5,-0.23,0.89,-0.42,24.38,-3.1,-85.6
3.82,0.0,0.0,0.75,0.25,0.0,0.0,0.0,0.0,0.0,0.25,0.0,0.0,0.25,0.33,0.89,-0.3,23.24,17.2,9.7,0.0,0.0,0.0,0.0,0.0,0.0,0.0,0.0,0.0,0.0,0.5,0.25,0.5,-0.23,0.95,-0.42,23.98,-0.3,-96.5
3.84,0.0,0.0,0.5,0.75,0.0,0.0,0.0,0.0,0.0,0.25,0.0,0.0,0.25,0.33,0.95,-0.3,26.71,14.2,16.4,0.0,0.0,0.0,0.0,0.0,0.0,0.0,0.0,0.0,0.25,0.5,0.75,0.5,-0.23,0.89,-0.42,28.64,-0.4,-97.2
3.86,0.0,0.0,0.75,0.75,0.0,0.0,0.0,0.0,0.0,0.0,0.0,0.0,0.25,0.33,0.95,-0.3,29.56,21.7,35.4,0.0,0.0,0.0,0.0,0.0,0.0,0.25,0.0,0.0,0.0,0.5,0.25,0.5,-0.23,0.89,-0.36,28.26,-3.1,-85.6
3.88,0.0,0.0,0.0,0.25,0.0,0.0,0.0,0.0,0.0,0.0,0.0,0.0,0.25,0.33,0.95,-0.3,24.23,1.8,-25.2,0.0,0.0,0.0,0.0,0.0,0.0,0.0,0.0,0.0,0.0,0.5,0.25,0.5,-0.23,0.89,-0.36,28.0,-0.3,-96.5
3.9,0.0,0.0,0.0,0.0,0.0,0.0,0.0,0.0,0.0,0.0,0.0,0.0,0.0,0.39,0.95,-0.3,16.41,0.0,0.0,0.0,0.0,0.0,0.0,0.0,0.0,0.25,0.0,0.0,0.0,0.5,0.25,0.5,-0.23,0.89,-0.36,26.2,-3.1,-85.6
3.92,0.0,0.0,0.75,0.75,0.0,0.0,0.0,0.0,0.0,0.0,0.0,0.0,0.25,0.33,0.95,-0.3,18.74,21.7,35.4,0.0,0.0,0.0,0.0,0.0,0.0,0.25,0.0,0.25,0.0,0.25,0.25,0.5,-0.23,0.89,-0.42,25.44,-3.3,-79.0
3.94,0.0,0.0,0.75,1.0,0.0,0.0,0.0,0.0,0.0,0.0,0.0,0.0,0.25,0.39,0.89,-0.3,24.37,21.2,38.2,0.0,0.0,0.0,0.0,0.0,0.0,0.0,0.0,0.0,0.0,0.25,0.25,0.5,-0.3,0.95,-0.42,22.57,2.2,-101.6
3.96,0.0,0.0,0.75,1.0,0.0,0.0,0.0,0.0,0.0,0.25,0.0,0.0,0.25,0.39,0.89,-0.3,32.83,17.2,26.0,0.0,0.0,0.0,0.0,0.0,0.0,0.0,0.0,0.0,0.0,0.5,0.25,0.5,-0.23,0.95,-0.36,22.06,-0.3,-96.5
3.98,0.0,0.0,0.75,0.75,0.0,0.0,0.0,0.0,0.0,0.25,0.0,0.0,0.25,0.39,0.89,-0.3,36.78,17.2,21.9,0.0,0.0,0.0,0.0,0.0,0.0,0.0,0.0,0.0,0.0,0.5,0.25,0.5,-0.23,0.95,-0.36,21.91,-0.3,-96.5
4.0,0.0,0.0,0.25,1.0,0.0,0.0,0.0,0.0,0.0,0.25,0.0,0.0,0.0,0.39,0.89,-0.3,35.1,15.3,36.9,0.0,0.0,0.0,0.0,0.0,0.0,0.0,0.0,0.0,0.5,0.5,0.5,0.5,-0.23,0.89,-0.36,26.68,2.6,-92.9
4.02,0.0,0.0,0.75,0.75,0.0,0.0,0.0,0.0,0.0,0.0,0.0,0.0,0.25,0.33,0.89,-0.3,32.65,21.7,35.4,0.0,0.0,0.0,0.0,0.0,0.0,0.25,0.0,0.0,0.0,0.5,0.25,0.5,-0.23,0.89,-0.36,27.0,-3.1,-85.6
4.04,0.0,0.0,0.25,0.5,0.0,0.0,0.0,0.0,0.0,0.0,0.0,0.25,0.25,0.33,0.89,-0.3,28.21,13.6,-7.4,0.0,0.0,0.0,0.0,0.0,0.0,0.25,0.0,0.25,0.0,0.5,0.25,0.5,-0.23,0.95,-0.42,28.75,-4.5,-78.4
4.06,0.0,0.0,0.75,1.0,0.0,0.0,0.0,0.0,0.0,0.0,0.0,0.0,0.25,0.33,0.89,-0.3,30.4,21.2,38.2,0.0,0.0,0.0,0.0,0.0,0.0,0.0,0.0,0.0,0.0,0.5,0.25,0.5,-0.23,0.95,-0.42,26.49,-0.3,-96.5
4.08,0.0,0.0,0.75,1.0,0.0,0.0,0.0,0.0,0.0,0.25,0.0,0.0,0.25,0.33,0.89,-0.3,33.6,17.2,26.0,0.0,0.0,0.0,0.0,0.0,0.0,0.0,0.0,0.0,0.0,0.5,0.25,0.5,-0.23,0.95,-0.42,24.94,-0.3,-96.5
4.1,0.0,0.0,0.75,1.0,0.0,0.0,0.0,0.0,0.0,0.25,0.0,0.0,0.25,0.39,0.95,-0.3,38.3,17.2,26.0,0.0,0.0,0.0,0.0,0.0,0.0,0.25,0.0,0.0,0.0,0.5,0.25,0.5,-0.23,0.89,-0.42,24.41,-3.1,-85.6
4.12,0.0,0.0,0.75,0.25,0.0,0.0,0.0,0.0,0.0,0.0,0.0,0.0,0.25,0.39,0.95,-0.3,35.16,23.6,26.3,0.0,0.0,0.0,0.0,0.0,0.0,0.25,0.0,0.0,0.0,0.25,0.25,0.5,-0.23,0.89,-0.36,23.03,-1.4,-87.8
4.14,0.0,0.0,0.5,0.25,0.0,0.0,0.0,0.0,0.0,0.0,0.0,0.0,0.0,0.39,0.95,-0.3,27.28,31.1,59.9,0.0,0.0,0.0,0.0,0.0,0.0,0.25,0.0,0.0,0.0,0.5,0.25,0.5,-0.23,0.89,-0.36,23.2,-3.1,-85.6
4.16,0.0,0.0,0.0,0.0,0.0,0.0,0.0,0.0,0.0,0.0,0.0,0.0,0.0,0.39,0.95,-0.3,13.11,0.0,0.0,0.0,0.25,0.0,0.0,0.0,0.0,0.25,0.0,0.0,0.0,0.5,0.25,0.5,-0.23,0.89,-0.36,24.27,-4.6,-56.3
4.18,0.0,0.0,0.25,1.0,0.0,0.0,0.0,0.0,0.0,0.5,0.0,0.25,0.25,0.39,0.95,-0.3,16.39,8.0,-7.3,0.0,0.25,0.0,0.0,0.5,0.0,0.25,0.0,0.0,0.0,0.5,0.25,0.5,-0.23,0.89,-0.42,28.13,-2.5,-27.5
4.2,0.0,0.0,0.25,0.75,0.0,0.0,0.0,0.0,0.0,0.25,0.25,0.25,0.25,0.39,0.89,-0.3,20.45,10.1,-15.4,0.0,0.0,0.0,0.0,0.0,0.0,0.25,0.0,0.0,0.0,0.5,0.25,0.5,-0.23,0.95,-0.36,27.64,-3.1,-85.6
4.22,0.0,0.0,0.75,1.0,0.0,0.0,0.0,0.0,0.0,0.25,0.0,0.25,0.25,0.39,0.89,-0.3,31.26,16.4,12.9,0.0,0.0,0.0,0.0,0.0,0.0,0.0,0.0,0.0,0.0,0.5,0.25,0.5,-0.23,0.89,-0.36,26.62,-0.3,-96.5
