time,left pressure 0[N/cm²],left pressure 1[N/cm²],left pressure 2[N/cm²],left pressure 3[N/cm²],left pressure 4[N/cm²],left pressure 5[N/cm²],left pressure 6[N/cm²],left pressure 7[N/cm²],left pressure 8[N/cm²],left pressure 9[N/cm²],left pressure 10[N/cm²],left pressure 11[N/cm²],left pressure 12[N/cm²],left acceleration X[g],left acceleration Y[g],left acceleration Z[g],left total force[N],left center of pressure X[mm],left center of pressure Y[mm],right pressure 0[N/cm²],right pressure 1[N/cm²],right pressure 2[N/cm²],right pressure 3[N/cm²],right pressure 4[N/cm²],right pressure 5[N/cm²],right pressure 6[N/cm²],right pressure 7[N/cm²],right pressure 8[N/cm²],right pressure 9[N/cm²],right pressure 10[N/cm²],right pressure 11[N/cm²],right pressure 12[N/cm²],right acceleration X[g],right acceleration Y[g],right acceleration Z[g],right total force[N],right center of pressure X[mm],right center of pressure Y[mm]
0.02,0.75,0.0,3.0,2.75,0.0,0.75,0.25,4.5,2.75,3.25,3.0,1.75,1.0,-0.17,0.08,0.95,295.69,5.0,-25.2,1.25,0.5,2.5,1.75,3.0,1.5,2.0,7.0,3.0,8.75,8.25,6.0,7.5,0.08,0.08,0.95,809.1,0.3,-47.1
0.04,0.5,0.0,3.0,2.75,0.0,0.75,0.25,4.25,2.25,3.0,3.0,1.25,0.25,-0.17,0.08,0.95,278.48,5.6,-20.4,1.25,0.25,3.0,1.25,3.5,2.0,2.25,7.0,3.0,8.75,8.25,6.0,7.5,0.08,0.08,0.95,831.22,0.4,-45.8
0.06,0.5,0.0,2.5,2.75,0.0,0.75,0.25,3.5,2.0,2.25,2.5,1.0,0.25,-0.11,0.08,0.95,255.13,6.2,-16.8,1.25,0.25,3.75,1.25,3.5,2.5,2.25,7.5,3.25,8.75,8.5,6.0,7.5,0.08,0.08,0.95,860.04,0.1,-43.6
0.08,0.5,0.0,3.0,2.75,0.0,0.5,0.0,3.0,1.75,1.75,2.5,0.75,0.0,-0.17,0.08,0.95,230.86,9.0,-9.8,1.25,0.25,4.75,1.25,3.75,2.5,2.25,7.75,3.5,8.5,8.5,6.0,7.0,0.08,0.08,0.95,881.86,-0.7,-40.4
0.1,0.5,0.0,2.5,2.75,0.0,0.5,0.0,3.25,1.75,1.5,2.25,0.75,0.25,-0.17,0.08,0.95,210.36,7.6,-12.1,1.25,0.25,4.75,1.5,3.75,2.5,2.25,7.75,3.75,8.5,8.25,6.0,7.0,0.14,0.08,0.95,897.2,-0.8,-39.8
0.12,0.5,0.0,3.0,2.75,0.0,0.0,0.0,3.25,1.5,1.5,2.0,0.75,0.25,-0.17,0.08,1.02,197.39,9.4,-9.7,1.5,0.25,4.75,2.25,3.75,2.5,2.5,7.75,3.75,8.5,8.25,6.0,6.5,0.14,0.08,0.95,902.47,-1.3,-37.2
0.14,0.0,0.0,2.25,2.75,0.0,0.0,0.0,2.5,1.5,1.5,1.5,0.75,0.0,-0.23,0.08,1.08,179.05,8.7,-11.7,2.0,0.25,5.0,2.75,3.75,2.5,2.5,7.75,3.75,8.0,8.0,5.5,6.25,0.14,0.08,0.95,897.02,-2.0,-33.3
0.16,0.0,0.0,2.0,2.75,0.0,0.0,0.0,2.25,1.25,1.5,1.75,0.75,0.25,-0.23,0.14,1.27,164.77,8.2,-15.3,2.0,0.25,5.0,3.5,5.0,2.75,3.0,7.75,3.5,8.0,7.75,5.5,6.25,0.14,0.08,0.95,896.22,-2.0,-29.3
0.18,0.0,0.0,2.0,2.75,0.0,0.0,0.0,1.75,0.75,0.5,1.5,0.0,0.25,-0.3,0.14,1.2,142.13,11.6,2.1,2.25,0.75,5.5,4.0,5.25,3.25,3.0,7.75,3.5,7.75,7.5,5.0,5.75,0.14,0.14,0.95,901.77,-2.6,-23.5
0.2,0.0,0.0,1.75,1.75,0.0,0.0,0.0,1.25,1.0,1.5,1.5,0.5,0.0,-0.23,0.14,1.2,124.16,9.4,-15.8,2.5,1.0,6.5,4.0,5.5,3.75,3.0,7.5,3.25,7.5,7.25,4.5,5.25,0.14,0.14,0.95,916.04,-3.3,-18.3
0.22,0.0,0.0,2.0,0.5,0.0,0.0,0.0,1.5,0.5,1.0,1.25,0.25,0.25,-0.3,0.2,1.33,100.66,8.8,-19.7,2.5,1.0,6.5,5.25,6.0,4.0,3.0,7.5,3.0,7.0,7.0,4.25,4.75,0.14,0.14,0.95,930.53,-3.7,-13.9
0.24,0.0,0.0,0.5,1.0,0.0,0.0,0.0,0.75,0.5,0.0,0.75,0.25,0.0,-0.42,0.33,1.33,69.71,10.9,-10.0,2.5,1.0,7.25,5.75,6.25,4.5,3.0,7.25,3.0,6.75,6.0,3.25,4.0,0.14,0.14,0.95,937.5,-4.2,-7.4
0.26,0.0,0.0,0.25,0.0,0.0,0.0,0.0,3.75,2.25,0.0,0.5,0.0,0.0,-0.42,0.27,1.45,60.52,-3.1,-37.5,3.25,1.25,7.5,6.25,6.25,4.75,3.25,7.0,3.0,6.25,5.5,3.0,3.25,0.14,0.14,0.95,941.07,-5.2,-1.6
0.28,0.0,0.0,2.0,0.5,0.0,0.0,0.0,0.75,0.5,1.0,0.25,0.75,0.0,-0.48,-0.11,1.64,54.77,12.8,-11.6,3.75,2.0,8.25,7.75,6.5,4.75,3.5,7.0,2.5,5.5,5.0,2.25,2.75,0.14,0.14,0.95,954.59,-6.5,7.1
0.3,0.0,0.0,1.5,0.5,0.0,0.0,0.0,1.5,0.5,0.0,1.25,0.0,0.25,-1.61,-1.73,1.27,56.94,10.5,-13.0,4.0,2.0,8.5,9.25,7.75,4.75,3.5,6.75,2.5,4.5,3.75,1.75,2.25,0.14,0.14,0.95,973.0,-7.3,15.2
0.32,0.0,0.0,0.0,0.75,0.0,0.0,3.5,0.75,0.75,1.5,0.5,0.75,0.0,-1.3,-1.55,0.64,62.83,7.8,-29.6,5.25,2.0,9.25,9.5,7.75,5.0,4.0,6.25,1.75,3.5,3.75,1.75,1.25,0.14,0.14,0.95,990.96,-9.2,22.5
0.34,0.0,0.0,0.5,0.5,0.0,0.0,0.0,0.25,0.5,0.0,0.25,0.0,0.0,-0.67,-1.3,0.58,47.72,16.3,7.2,5.75,2.25,10.0,11.0,8.0,4.75,4.0,5.25,1.75,3.0,2.75,1.25,1.0,0.14,0.14,0.95,1007.5,-10.8,30.0
0.36,0.0,0.0,0.25,0.5,0.0,0.0,0.0,0.5,0.5,0.0,0.25,0.25,0.0,-0.55,-1.3,0.77,33.48,9.4,-16.7,6.5,3.0,11.0,11.5,8.75,4.75,4.0,4.5,1.25,1.75,1.75,1.0,0.75,0.08,0.14,0.95,1023.15,-12.4,39.3
0.38,0.0,0.0,1.0,0.0,0.0,0.0,0.0,1.5,0.5,0.0,1.5,0.25,0.0,-0.23,-1.17,1.02,34.11,8.0,-32.0,7.25,3.5,12.0,13.0,9.0,4.5,3.75,4.0,1.0,1.25,1.5,0.75,0.75,0.08,0.14,1.02,1052.77,-13.7,44.3
0.4,0.0,0.0,0.0,0.5,0.0,0.0,0.0,0.25,0.5,0.0,0.25,0.0,0.0,-0.11,-0.98,1.08,25.52,8.9,-11.0,7.5,3.5,12.5,13.0,9.0,3.25,3.5,3.25,0.75,1.25,1.5,0.75,0.25,0.14,0.2,1.08,1060.91,-15.3,47.6
0.42,0.0,0.0,0.0,0.0,0.0,0.0,0.0,0.5,0.25,0.0,1.5,0.25,0.0,-0.11,-0.73,1.2,27.22,5.1,-67.7,8.0,3.5,13.0,13.0,9.0,2.5,3.0,2.75,0.75,1.25,1.5,0.75,0.25,0.08,0.2,1.14,1063.28,-16.3,49.1
0.44,0.0,0.0,0.0,0.0,0.0,0.0,0.0,0.0,0.0,0.0,0.0,0.0,0.0,-0.17,-0.48,1.27,12.75,0.0,0.0,8.5,4.0,13.5,13.0,9.0,2.5,2.5,2.75,0.5,0.75,1.5,0.5,0.25,0.08,0.2,1.08,1060.39,-16.9,52.1
0.46,0.0,0.0,0.0,0.0,0.0,0.0,0.0,0.0,0.25,0.0,0.25,0.0,0.0,-0.23,-0.17,1.39,6.07,11.5,-56.8,8.75,3.0,14.0,13.0,9.0,1.25,2.25,2.75,0.5,0.0,1.5,0.25,0.25,0.08,0.27,1.08,1038.25,-18.5,54.3
0.48,0.0,0.0,0.0,0.5,0.0,0.0,0.0,0.0,0.75,1.5,0.0,0.75,0.0,-0.3,0.08,1.58,14.0,0.3,-55.1,8.25,2.5,12.5,9.5,7.5,0.0,1.25,1.25,0.5,0.0,0.25,0.0,0.0,0.02,0.27,1.14,919.53,-21.2,62.3
0.5,0.0,0.0,0.0,0.5,0.0,0.0,0.0,0.0,0.75,1.5,0.0,0.75,0.0,-0.36,0.33,1.7,26.76,0.3,-55.1,9.0,3.5,14.5,11.0,7.25,0.5,1.75,2.0,0.5,0.0,1.25,0.75,0.25,0.02,0.33,1.14,875.65,-20.5,55.7
0.52,0.0,0.0,0.0,0.0,0.0,0.0,0.0,0.0,0.5,0.0,0.0,0.25,0.0,-0.36,0.52,1.52,26.38,11.0,-62.4,9.0,3.25,14.5,9.5,6.25,0.25,1.75,1.25,0.5,0.0,1.25,0.25,0.25,0.02,0.39,1.2,809.56,-22.1,58.7
0.54,0.0,0.0,0.0,0.0,0.0,0.0,0.0,0.0,0.75,1.5,0.0,1.0,0.0,-0.3,0.77,1.45,36.43,-1.7,-77.6,8.0,2.0,14.0,7.5,5.75,0.0,2.25,1.25,0.0,0.0,1.0,0.0,0.25,0.08,0.45,1.27,738.77,-23.1,59.6
0.56,0.0,0.0,0.0,0.0,0.0,0.0,0.0,0.0,0.0,0.25,0.0,0.0,0.0,-0.11,1.08,1.2,25.01,-15.7,-75.5,7.25,0.75,11.0,5.75,1.0,0.0,2.25,1.25,0.0,0.0,0.0,0.0,0.0,0.14,0.58,1.39,581.2,-27.9,64.2
0.58,0.0,0.0,0.0,0.0,0.0,0.0,0.0,0.0,0.5,0.25,0.0,0.5,0.0,0.2,1.58,0.95,24.15,5.2,-74.6,5.25,0.0,9.25,3.0,0.0,0.0,2.25,1.25,0.0,0.0,0.0,0.0,0.0,0.14,0.95,1.89,408.58,-30.3,61.5
0.6,0.0,0.0,0.0,0.0,0.0,0.0,0.0,1.5,0.75,1.5,1.25,0.75,0.25,0.33,2.08,0.83,45.11,-3.9,-67.4,2.5,0.0,7.5,1.25,0.0,0.0,1.75,0.75,0.0,0.0,0.0,0.25,0.0,0.08,1.64,2.27,264.65,-31.5,56.2
0.62,0.0,0.0,0.0,0.0,0.0,0.0,0.0,1.5,0.75,1.5,1.0,0.75,0.25,0.58,2.39,0.83,69.7,-4.5,-67.1,1.25,0.0,5.0,0.5,0.0,0.0,1.25,1.0,0.5,0.0,0.0,0.25,0.0,-0.11,0.83,2.08,147.47,-28.0,42.4
0.64,0.0,0.0,0.0,0.0,0.0,0.0,0.0,0.0,0.25,0.0,0.0,0.0,0.0,0.58,2.64,0.52,61.25,12.1,-38.5,1.25,0.0,5.0,1.25,1.5,0.0,1.25,1.25,0.25,0.25,0.5,0.25,0.25,0.08,0.14,2.27,82.89,-20.1,35.0
0.66,0.0,0.0,0.0,0.0,0.0,0.0,0.0,0.0,0.25,1.5,0.25,0.75,0.0,-0.17,-0.23,0.2,57.82,-4.1,-81.5,1.25,0.0,2.75,1.25,1.0,0.0,1.0,1.25,0.5,0.0,0.5,0.75,0.25,0.52,-0.3,1.39,41.33,-17.3,21.9
0.68,0.0,0.0,0.0,0.5,0.0,0.0,0.0,3.5,2.25,0.5,3.0,1.25,0.0,-0.55,-0.48,1.02,93.86,1.0,-53.6,1.25,0.0,2.25,0.5,1.0,0.0,1.0,1.25,0.5,0.0,0.5,0.25,0.25,0.64,-1.05,1.7,20.94,-16.6,24.0
0.7,0.0,0.0,0.0,0.0,0.0,0.0,2.75,3.25,2.75,0.25,0.0,0.0,0.0,0.2,-0.05,0.77,108.97,2.2,-28.3,1.25,0.0,2.25,0.5,1.0,0.0,1.0,1.25,0.5,0.0,0.5,0.25,0.25,0.52,-0.73,1.33,12.66,-16.6,24.0
0.72,0.0,0.0,0.0,0.0,0.0,0.0,0.25,1.0,0.25,3.75,3.0,3.0,3.25,-0.11,0.33,1.52,165.78,-3.9,-86.6,1.25,0.0,2.25,0.75,1.0,0.0,1.0,1.25,0.5,0.0,0.5,0.25,0.25,0.33,-0.55,0.89,19.71,-16.6,25.0
0.74,0.0,0.0,0.0,0.0,0.0,0.0,0.0,1.5,0.75,4.75,3.75,3.75,4.25,-0.55,0.2,1.39,226.99,-4.1,-85.9,1.25,0.0,2.25,0.5,1.25,0.0,0.75,1.25,0.5,0.0,0.5,0.25,0.25,0.2,-0.42,0.83,22.61,-15.7,24.9
0.76,0.0,0.0,0.0,0.0,0.0,0.0,1.5,5.5,2.0,6.5,5.5,5.25,5.0,-0.05,0.2,1.45,322.95,-3.7,-75.7,1.25,0.0,2.0,0.5,0.5,0.0,0.75,1.25,0.5,0.0,0.5,0.25,0.25,0.14,-0.3,0.89,40.56,-17.1,20.3
0.78,0.0,0.0,0.0,0.0,0.0,0.0,0.0,0.0,2.75,7.0,6.5,5.5,6.0,-0.17,0.14,1.14,394.72,-1.6,-86.3,1.25,0.0,2.0,0.25,0.5,0.0,0.75,1.25,0.5,0.0,0.75,0.25,0.25,0.2,-0.17,0.95,62.74,-16.9,15.9
0.8,0.0,0.0,0.0,0.0,0.0,0.0,0.5,5.5,3.5,7.5,7.5,6.0,6.25,-0.17,0.08,1.02,515.54,-3.2,-77.4,1.25,0.0,1.75,0.5,1.0,0.0,0.75,1.25,0.75,0.0,0.5,0.25,0.25,0.14,-0.05,0.95,86.23,-14.8,19.6
0.82,0.0,0.0,0.25,0.75,0.0,0.25,0.25,6.0,4.25,7.5,8.0,6.0,6.75,-0.17,0.02,1.02,608.33,-2.6,-72.7,1.0,0.0,1.75,0.0,0.25,0.0,0.75,1.25,0.25,0.0,0.75,0.0,0.25,0.08,0.08,1.14,90.49,-16.8,14.5
0.84,0.0,0.0,2.0,1.25,0.0,0.75,0.25,6.5,4.75,7.5,8.0,6.25,6.75,-0.17,0.02,0.95,702.02,-0.8,-63.9,1.25,0.0,2.0,0.0,0.25,0.0,0.75,1.25,0.5,0.0,0.5,0.25,0.25,0.02,0.14,1.33,94.79,-18.0,15.9
0.86,0.0,0.0,2.0,1.25,0.0,0.5,0.25,6.5,4.75,7.5,8.0,6.0,6.75,-0.11,0.02,0.95,760.01,-0.7,-64.2,1.25,0.0,1.75,0.0,0.0,0.0,0.75,1.25,0.5,0.0,0.25,0.0,0.25,0.02,0.33,1.45,88.68,-18.9,21.5
0.88,0.0,0.0,2.0,2.0,0.0,0.75,0.25,6.5,5.0,7.5,8.0,6.0,6.5,-0.17,0.02,0.95,799.71,-0.4,-61.1,1.25,0.0,1.75,0.0,0.25,0.0,0.75,1.25,0.5,0.0,0.75,0.0,0.25,0.08,0.45,1.58,86.77,-17.3,15.5
0.9,0.0,0.0,2.0,2.5,0.0,0.75,0.5,6.5,5.25,7.0,7.75,5.5,6.0,-0.17,0.02,0.95,791.66,0.1,-57.9,1.25,0.0,1.75,0.0,1.0,0.0,0.75,1.25,0.5,0.0,0.5,0.25,0.25,0.08,0.58,1.83,93.67,-14.7,18.8
0.92,0.0,0.0,2.0,2.75,0.0,1.0,0.5,6.5,5.0,6.75,7.5,5.5,6.0,-0.17,0.02,0.95,768.19,0.0,-56.6,1.0,0.0,1.75,0.0,0.0,0.0,0.75,1.25,0.5,0.0,0.5,0.25,0.25,0.2,0.77,2.2,94.0,-17.5,8.8
0.94,0.25,0.0,2.0,2.75,0.0,1.25,0.75,6.5,4.75,6.25,7.25,4.75,5.25,-0.17,0.02,0.95,729.66,0.3,-52.8,1.0,0.0,1.75,0.0,0.0,0.0,0.75,1.25,0.5,0.0,0.5,0.25,0.25,0.2,0.95,2.64,91.75,-17.5,8.8
0.96,0.25,0.0,2.25,2.75,0.0,1.25,0.5,6.25,4.75,6.0,6.75,4.25,4.75,-0.17,0.02,0.95,670.39,0.6,-50.5,1.0,0.0,1.75,0.0,0.0,0.0,0.75,1.0,0.5,0.25,0.25,0.25,0.25,0.27,1.14,2.7,87.09,-17.8,10.8
0.98,0.5,0.0,2.25,2.75,0.0,1.5,0.75,6.0,4.5,5.75,6.25,4.0,3.75,-0.17,0.02,0.95,606.01,1.1,-46.4,1.25,0.0,1.5,0.0,0.0,0.0,1.0,0.75,0.5,0.0,0.25,0.25,0.25,0.2,1.77,2.2,83.31,-21.2,19.2
1.0,0.75,0.0,2.75,2.75,0.0,1.5,0.75,6.0,4.25,4.75,5.75,3.25,3.0,-0.17,0.02,0.95,535.4,2.4,-40.0,0.75,0.0,1.75,0.0,0.0,0.0,0.75,1.25,0.5,0.0,0.5,0.0,0.25,-0.11,2.45,1.14,80.96,-17.1,10.4
1.02,0.75,0.0,3.25,3.0,0.0,1.25,0.75,5.75,4.0,4.75,5.5,2.75,2.75,-0.17,0.02,0.95,481.3,3.2,-36.4,1.25,0.0,1.75,0.0,0.0,0.0,0.75,1.25,0.25,0.0,0.25,0.0,0.25,-0.67,3.52,0.52,80.77,-19.2,24.3
1.04,0.75,0.0,3.25,3.25,0.0,1.5,0.75,5.75,4.0,4.25,4.75,2.75,2.5,-0.17,0.02,0.95,430.22,3.4,-33.2,1.25,0.0,1.75,0.0,0.0,0.0,0.5,1.25,0.5,0.0,0.5,0.0,0.25,-1.86,5.02,0.14,83.16,-18.3,17.2
1.06,0.75,0.0,3.75,4.5,0.0,1.5,0.75,5.5,3.5,3.25,4.5,2.0,1.5,-0.11,0.02,0.95,392.08,5.6,-21.6,0.75,0.0,1.75,0.0,0.0,0.0,0.5,1.25,0.5,0.0,0.25,0.25,0.25,-1.67,3.52,0.27,83.51,-16.7,8.3
1.08,0.75,0.5,4.5,5.5,0.25,1.75,0.75,5.25,3.25,3.25,3.75,1.75,1.25,-0.17,0.08,0.95,378.11,6.7,-11.2,1.25,0.0,1.75,0.0,0.25,0.0,0.75,1.25,0.5,0.0,0.25,0.0,0.25,-0.42,1.89,1.02,86.29,-17.8,23.1
1.1,2.25,1.25,4.75,6.75,2.75,2.0,0.75,5.25,3.25,3.25,3.0,1.75,1.25,-0.11,0.08,0.95,407.89,7.4,4.1,1.0,0.0,1.75,0.0,0.0,0.0,0.5,1.25,0.25,1.0,0.5,0.5,0.25,0.08,1.08,1.02,91.72,-12.2,-6.7
1.12,2.75,1.25,5.5,7.25,4.5,2.75,0.75,5.25,2.75,2.75,3.0,1.5,1.25,-0.17,0.08,0.95,469.92,7.6,12.0,0.75,0.0,1.75,0.0,0.25,0.0,0.5,1.25,0.5,3.0,1.5,3.25,2.0,0.89,-1.42,-0.92,137.62,-3.7,-54.0
1.14,4.0,1.75,6.25,8.0,5.5,2.75,0.75,5.0,2.25,2.0,2.25,1.0,1.0,-0.17,0.08,0.95,546.47,9.4,24.2,1.0,0.0,1.25,0.0,0.25,0.0,0.5,0.5,0.5,6.0,3.75,6.25,7.5,-0.42,0.27,0.95,240.48,0.7,-77.0
1.16,5.25,2.75,7.25,9.25,6.5,3.0,0.75,4.5,1.75,1.5,2.25,1.0,0.25,-0.11,0.08,1.02,635.78,11.3,34.8,1.0,0.0,1.0,0.0,1.0,0.0,0.25,1.25,0.5,8.75,7.25,8.0,9.25,-0.8,0.33,1.89,380.48,1.6,-77.4
1.18,7.0,4.25,8.0,11.0,0.0,2.75,0.0,3.25,1.25,1.5,1.5,0.75,0.25,-0.17,0.14,1.08,674.36,16.6,43.7,0.75,0.0,1.5,0.0,1.25,0.0,0.75,2.75,0.75,9.5,8.75,8.25,9.5,0.39,0.45,2.89,566.08,1.5,-73.9
1.2,7.75,4.5,8.5,11.5,0.0,2.75,0.0,3.25,0.75,1.5,1.5,0.75,0.25,-0.17,0.14,1.27,703.18,17.2,46.2,0.25,0.25,0.0,0.0,1.75,0.0,0.25,4.25,0.75,9.75,9.5,7.75,9.5,-0.11,0.2,1.27,720.85,3.9,-76.8
1.22,8.0,5.25,8.5,11.5,0.0,2.0,0.0,2.75,0.75,1.5,1.5,0.75,0.25,-0.23,0.2,1.2,711.57,18.2,48.6,1.25,0.0,0.25,0.0,2.25,1.0,0.0,6.25,2.5,9.75,9.75,7.75,9.25,0.02,0.14,1.14,850.97,3.3,-67.4
1.24,8.5,5.5,8.75,11.5,0.0,0.0,0.0,1.75,0.75,1.25,1.5,0.25,0.25,-0.3,0.2,1.2,704.92,21.6,55.2,1.25,0.25,2.25,1.25,3.5,2.25,1.25,7.0,3.0,9.75,10.0,7.5,8.5,0.2,0.14,1.08,964.61,1.2,-51.7
1.26,8.75,5.5,8.5,11.5,0.0,0.0,0.0,1.5,0.75,1.5,1.25,0.75,0.25,-0.3,0.27,1.2,690.1,21.5,53.9,1.25,0.25,2.75,1.25,3.25,2.25,1.25,7.75,3.75,9.25,10.5,7.25,8.5,0.2,0.14,1.02,1055.98,0.7,-50.6
1.28,7.75,4.25,9.0,9.5,0.0,0.0,0.0,1.5,0.5,0.0,1.25,0.0,0.25,-0.36,0.33,1.27,635.47,24.0,60.8,2.0,0.25,4.75,1.25,3.5,2.5,2.25,8.0,3.75,9.25,10.5,6.75,8.0,0.14,0.08,0.95,1128.19,-1.0,-42.8
1.3,6.25,4.25,7.75,10.5,0.0,0.0,0.0,1.0,0.5,0.0,0.25,0.0,0.0,-0.3,0.33,1.45,564.31,24.1,66.3,2.5,0.5,6.0,2.25,3.5,2.5,2.5,7.5,3.75,8.5,9.0,6.0,7.25,0.14,0.08,0.95,1143.96,-2.7,-34.2
1.32,7.75,4.25,8.5,8.0,0.0,0.0,0.0,0.0,1.0,0.0,1.25,0.0,0.25,-0.42,0.45,1.52,497.71,25.9,64.2,2.75,0.75,7.0,3.0,3.75,2.5,2.75,7.5,3.75,7.75,8.25,5.5,6.0,0.14,0.08,0.95,1113.87,-4.1,-26.5
1.34,5.25,0.0,6.75,6.75,0.0,0.0,0.0,0.0,0.75,1.0,1.25,0.25,0.25,-0.55,0.95,2.2,396.41,25.2,47.4,3.5,1.0,7.5,3.75,3.75,2.5,3.0,7.0,3.0,6.75,7.5,4.25,4.75,0.14,0.14,0.95,1044.94,-5.7,-17.0
1.36,2.25,0.0,5.5,3.5,0.0,0.0,0.0,0.0,0.75,0.5,1.25,0.0,0.0,-0.61,1.58,2.7,294.02,26.4,43.6,4.0,1.0,8.5,4.0,4.5,2.5,2.75,5.25,2.25,4.25,5.0,2.25,3.0,0.14,0.14,0.95,923.75,-8.7,1.6
1.38,0.5,0.0,1.25,2.75,0.0,0.0,0.0,0.0,0.75,1.25,0.0,0.75,0.0,-0.73,1.14,2.77,190.64,15.0,11.6,4.0,1.25,8.5,4.75,4.75,2.5,2.5,5.25,1.75,3.0,3.75,1.75,2.0,0.14,0.14,0.95,802.42,-9.8,11.8
1.4,0.0,0.0,0.25,0.5,0.0,0.0,0.0,0.0,0.25,0.0,1.25,0.0,0.25,-0.61,-0.05,2.08,72.5,12.5,-33.3,5.0,1.25,9.25,5.75,4.75,2.5,2.25,4.25,1.5,1.5,3.0,1.75,2.0,0.14,0.14,0.95,712.57,-12.4,21.3
1.42,0.0,0.0,0.25,0.75,0.0,0.0,0.0,0.0,0.75,1.5,1.25,0.0,0.25,-1.17,-0.3,2.2,0.0,3.8,-42.1,5.25,1.5,9.25,6.0,5.25,2.5,2.25,4.0,1.25,1.5,2.0,1.5,1.5,0.14,0.14,0.95,658.31,-12.9,28.0
1.44,0.0,0.0,1.0,1.0,0.0,0.0,0.0,0.0,0.75,1.5,1.25,0.0,0.0,-0.42,-0.92,2.08,0.0,10.1,-19.8,5.75,1.75,9.25,6.0,5.25,2.5,2.25,3.5,1.25,0.75,1.75,0.75,1.0,0.08,0.14,0.95,617.87,-14.4,36.7
1.46,0.0,0.0,0.75,1.0,0.0,0.0,0.0,0.0,0.0,1.5,1.25,0.0,0.25,-0.55,-0.61,1.02,0.0,7.0,-26.1,5.75,2.0,10.0,7.0,5.25,2.5,2.25,2.75,1.25,1.25,1.5,1.0,1.0,0.08,0.14,0.89,604.11,-15.1,37.8
1.48,0.0,0.0,1.0,0.0,0.0,0.0,0.0,0.0,0.0,0.0,1.25,0.0,0.0,-0.61,-0.55,0.39,0.0,23.4,-12.7,6.5,2.0,10.0,7.75,6.0,2.5,2.25,2.75,1.0,1.25,1.5,1.0,1.0,0.08,0.14,0.89,615.01,-15.1,39.8
1.5,0.0,0.0,0.0,0.5,0.0,0.0,0.0,0.0,0.75,1.25,1.25,0.0,0.0,-0.36,-0.48,0.58,0.0,3.0,-49.4,6.5,2.0,10.5,7.75,6.25,2.5,2.25,2.75,1.0,0.75,1.5,1.0,1.0,0.08,0.14,0.89,638.39,-15.6,41.3
1.52,0.0,0.0,1.0,0.0,0.0,0.0,0.0,0.0,0.75,0.25,1.25,0.0,0.0,-0.3,-0.48,0.89,0.0,17.8,-23.5,7.25,2.5,11.0,9.25,6.25,2.5,2.25,2.75,0.75,0.75,1.25,1.0,0.75,0.08,0.14,0.95,682.37,-16.3,45.3
1.54,0.0,0.0,1.25,0.5,0.0,0.0,0.0,0.0,0.75,1.25,1.25,0.0,0.0,-0.36,-0.42,0.95,0.0,12.1,-21.0,7.75,2.75,11.5,9.5,6.25,2.5,2.25,2.75,0.5,0.5,0.75,0.5,0.25,0.08,0.2,0.95,723.55,-17.4,51.9
1.56,0.0,0.0,1.0,0.5,0.0,0.0,0.0,0.0,0.75,1.5,1.25,0.0,0.25,-0.36,-0.17,0.89,14.14,8.2,-32.0,8.0,3.5,12.5,9.5,7.0,2.5,2.25,2.75,0.5,0.0,0.5,0.75,0.25,0.08,0.2,1.02,775.15,-17.8,54.2
1.58,0.0,0.0,1.5,0.75,0.0,0.0,0.0,0.0,0.75,1.5,1.5,0.0,0.25,-0.36,0.02,0.89,52.58,11.1,-22.3,8.25,3.75,12.5,11.0,7.75,2.5,2.0,2.25,0.5,0.0,0.75,0.5,0.25,0.08,0.2,1.08,832.3,-17.7,55.8
1.6,0.0,0.0,1.75,1.0,0.0,0.0,0.0,0.0,1.25,1.75,1.25,0.0,0.0,-0.36,0.14,1.08,81.8,12.4,-14.2,9.0,4.25,13.5,11.5,8.0,2.0,1.5,1.25,0.5,0.0,0.75,0.25,0.0,0.08,0.2,1.08,892.51,-19.3,60.6
1.62,0.0,0.0,1.5,0.0,0.0,0.0,0.0,0.0,0.25,0.0,1.25,0.0,0.0,-0.3,0.14,1.39,81.27,25.0,-2.2,9.0,4.5,13.5,11.5,7.75,1.25,1.25,1.25,0.5,0.0,0.5,0.25,0.25,0.02,0.27,1.08,923.69,-19.8,61.0
1.64,0.0,0.0,0.25,0.5,0.0,0.0,0.0,0.0,0.75,1.0,0.0,0.0,0.0,-0.3,0.33,1.64,69.08,4.8,-23.0,9.75,4.5,14.0,11.0,7.0,0.0,1.0,1.25,0.5,0.0,0.5,0.25,0.5,0.02,0.27,1.14,928.86,-21.4,61.5
1.66,0.0,0.0,1.25,0.0,0.0,0.0,0.0,0.0,0.0,1.25,0.0,0.75,0.0,-0.36,0.58,1.89,53.91,11.0,-29.8,8.5,3.5,12.5,9.5,6.25,0.25,0.75,0.25,0.25,0.0,0.0,0.0,0.0,0.08,0.33,1.2,857.52,-22.6,67.4
1.68,0.0,0.0,0.25,0.0,0.0,0.0,0.0,0.0,0.0,0.0,1.25,0.0,0.0,-0.48,0.58,2.2,38.87,15.6,-51.5,9.75,4.25,12.5,9.5,6.25,0.25,0.75,0.0,0.0,0.0,0.0,0.25,0.0,0.14,0.33,1.27,801.38,-23.0,69.0
1.7,0.0,0.0,1.75,0.0,0.0,0.0,0.0,0.0,0.0,0.0,1.25,0.0,0.0,-0.61,0.7,2.39,37.8,27.2,6.1,9.25,3.5,14.0,9.5,6.25,0.25,1.0,1.25,0.5,0.0,0.25,0.25,0.0,0.14,0.39,1.27,764.74,-22.3,63.1
1.72,0.0,0.0,1.75,0.0,0.0,0.0,0.0,0.0,0.0,0.0,1.25,0.0,0.0,-0.8,1.02,2.77,39.44,27.2,6.1,9.0,2.25,13.0,6.25,5.5,0.0,1.25,1.25,0.5,0.0,0.5,0.0,0.25,0.2,0.45,1.39,706.03,-23.2,61.6
1.74,0.0,0.0,0.25,0.5,0.0,0.0,0.0,0.0,0.75,1.25,1.25,0.5,0.0,-0.67,1.52,2.77,49.4,5.7,-49.7,6.25,0.25,9.25,4.0,2.75,0.0,1.25,0.0,0.0,0.0,0.0,0.25,0.0,0.2,0.83,2.02,550.11,-27.4,66.2
1.76,0.0,0.0,1.0,0.5,0.0,0.0,0.0,0.0,0.5,1.25,1.25,0.5,0.0,-0.55,2.45,2.08,58.7,10.4,-33.2,5.0,0.25,8.5,3.25,2.5,0.25,1.25,0.0,0.5,0.0,0.0,0.25,0.0,0.02,1.58,2.52,403.93,-26.5,62.4
1.78,0.0,0.0,1.0,0.5,0.0,0.0,0.0,1.5,0.0,1.25,1.25,0.75,0.0,-0.3,3.27,1.14,74.1,3.7,-37.1,2.5,0.25,5.0,1.25,0.0,0.0,0.75,0.0,0.25,0.0,0.0,0.25,0.0,0.08,1.08,1.89,258.33,-32.4,62.2
1.8,0.0,0.0,1.25,0.0,0.0,0.0,0.0,0.0,0.0,0.75,1.25,0.75,0.0,0.89,4.52,0.89,73.98,14.3,-37.9,1.25,0.25,4.75,1.25,1.5,0.0,0.75,1.0,0.5,0.0,0.25,0.25,0.25,0.27,0.27,1.89,163.49,-20.9,40.5
1.82,0.0,0.0,0.25,0.5,0.0,0.0,0.0,0.0,0.25,1.25,1.0,0.75,0.0,1.52,5.2,0.08,73.13,4.8,-53.3,1.5,0.25,3.25,1.25,1.5,0.0,0.75,1.0,0.5,0.0,0.5,0.25,0.25,0.52,-0.23,1.58,88.32,-18.5,36.2
1.84,0.0,0.0,1.25,0.25,0.0,0.0,0.0,0.0,0.0,1.5,1.25,0.0,0.0,0.27,3.02,1.45,69.76,10.1,-26.0,1.25,0.25,2.25,0.75,0.25,0.0,0.75,1.25,0.5,0.0,0.0,0.0,0.25,0.64,0.14,2.27,41.22,-19.3,35.6
1.86,0.0,0.0,0.0,0.0,0.0,0.0,4.0,4.75,0.0,2.25,0.5,0.5,0.0,-0.86,-0.67,-0.11,100.17,-4.3,-39.6,1.25,0.25,2.25,0.5,1.0,0.0,0.75,1.25,0.5,0.0,0.25,0.25,0.25,0.2,-1.05,1.77,16.13,-16.4,29.2
1.88,0.0,0.0,0.0,0.0,0.0,0.0,0.0,0.0,0.0,0.0,0.0,0.0,0.0,-0.11,0.2,0.83,75.13,0.0,0.0,1.25,0.25,2.25,0.25,0.5,0.0,0.75,1.0,0.5,0.0,0.25,0.0,0.25,0.27,-0.48,1.39,2.84,-19.5,33.5
1.9,0.0,0.0,0.0,0.0,0.0,0.0,0.0,0.0,0.0,0.0,0.0,0.0,0.0,0.14,0.45,2.45,52.17,0.0,0.0,1.25,0.25,2.0,0.0,1.25,0.0,0.75,1.25,0.5,0.0,0.25,0.0,0.25,0.39,0.27,0.89,8.41,-15.1,31.6
1.92,0.0,0.0,0.0,0.0,0.0,0.0,0.0,3.25,0.0,6.75,6.25,5.25,6.5,-0.61,0.39,2.08,176.88,-5.0,-85.8,1.25,0.25,2.5,0.25,0.25,0.0,0.75,1.25,0.5,0.0,0.75,0.0,0.5,0.33,0.64,0.64,14.71,-18.2,20.0
1.94,0.0,0.0,0.0,0.0,0.0,0.0,0.0,4.5,1.75,7.0,7.0,5.5,6.5,-0.23,0.33,1.83,295.77,-4.1,-81.3,1.25,0.25,1.75,0.0,1.0,0.0,0.75,1.0,0.5,0.0,0.25,0.0,0.25,0.08,1.02,0.14,31.45,-16.2,32.2
1.96,0.0,0.0,0.0,0.0,0.0,0.25,0.0,5.25,3.0,7.5,7.5,5.5,6.25,-0.11,0.08,1.08,445.95,-3.8,-77.8,1.25,0.25,0.75,0.0,0.0,0.0,0.75,1.0,0.5,0.0,0.25,0.0,0.25,-0.17,1.14,-0.17,41.94,-16.1,20.3
1.98,0.75,0.0,0.5,2.0,0.0,0.75,0.0,6.25,4.0,7.5,8.0,5.75,6.5,-0.17,0.02,0.95,595.61,-1.6,-63.6,1.25,0.25,0.5,0.25,0.0,0.0,0.75,1.0,0.5,0.0,0.25,0.0,0.25,-0.36,1.14,-0.23,52.27,-14.9,20.1
2.0,0.0,0.0,0.0,2.5,0.0,1.0,0.25,6.5,4.75,7.5,8.0,5.5,6.25,-0.17,0.02,0.95,701.37,-2.3,-64.3,1.0,0.25,1.75,0.0,0.0,0.0,0.75,1.0,0.5,0.0,0.25,0.0,0.25,-0.36,1.08,-0.36,56.67,-19.6,24.7
2.02,0.75,0.0,2.0,2.75,0.0,1.25,0.75,6.75,5.25,7.5,8.0,5.5,6.0,-0.17,-0.05,0.95,767.62,0.3,-53.9,1.0,0.25,1.75,0.0,0.25,0.0,0.75,1.0,0.5,0.0,0.25,0.0,0.25,-0.17,1.02,-0.05,68.48,-18.4,26.2
2.04,0.75,0.0,3.5,2.75,0.0,1.5,0.75,6.75,5.5,6.75,8.0,5.0,5.5,-0.11,-0.05,0.95,808.01,1.9,-48.0,1.25,0.0,1.75,0.0,0.5,0.0,0.75,0.75,0.5,0.0,0.25,0.25,0.25,-0.05,0.89,0.27,74.1,-19.3,24.2
2.06,0.75,0.0,3.75,3.25,0.0,1.5,1.0,6.5,5.5,6.75,7.5,4.5,5.0,-0.11,0.02,0.95,823.28,2.4,-44.3,1.0,0.25,1.75,0.0,0.0,0.0,0.75,0.75,0.5,0.0,0.25,0.25,0.25,-0.11,0.89,0.52,79.36,-20.8,21.4
2.08,1.5,0.25,4.5,4.5,0.25,2.0,1.0,6.5,5.25,6.0,7.0,4.0,3.75,-0.11,0.02,0.95,803.64,4.2,-31.9,1.25,0.0,1.75,0.0,0.0,0.0,0.75,0.75,0.5,0.0,0.75,0.25,0.75,-0.05,0.95,0.64,86.67,-18.1,2.9
2.1,2.25,0.5,5.25,5.5,0.5,2.0,1.0,6.25,4.75,5.25,6.25,3.0,2.75,-0.11,0.02,0.95,767.29,6.2,-19.8,1.0,0.0,1.75,0.0,0.0,0.0,0.75,0.75,0.5,0.0,0.25,0.25,0.25,0.2,0.89,0.33,82.96,-21.2,17.5
2.12,2.5,1.25,5.5,6.0,1.5,2.0,1.0,6.0,4.0,4.75,5.5,2.0,2.25,-0.11,0.02,0.95,733.78,6.9,-8.7,1.0,0.0,1.0,0.0,0.0,0.0,0.75,1.0,0.0,0.0,0.5,0.25,0.25,0.89,4.02,-0.42,77.45,-16.4,7.6
2.14,2.5,1.25,5.5,5.5,1.5,2.75,0.75,5.75,3.5,3.5,4.0,1.75,1.25,-0.11,0.02,0.95,660.33,7.3,-0.4,1.0,0.25,1.75,1.0,0.5,0.0,0.75,0.0,0.0,0.0,0.25,0.25,0.25,-0.86,5.14,-4.86,79.7,-23.3,44.4
2.16,3.5,1.25,5.5,6.75,3.25,2.75,0.75,5.25,2.75,3.25,3.0,1.75,1.25,-0.11,0.08,0.95,605.06,8.0,9.6,1.25,0.25,1.75,0.25,1.5,0.0,0.75,0.25,0.25,0.0,0.5,0.25,0.25,0.02,-0.36,5.14,91.54,-17.8,36.2
2.18,3.25,1.5,5.5,7.25,3.0,2.75,0.5,4.75,2.25,2.0,2.25,1.25,0.5,-0.17,0.08,1.02,562.51,9.5,19.9,1.0,0.25,1.75,0.0,1.0,0.0,0.5,0.5,0.25,0.0,0.25,0.0,0.25,-0.73,1.27,-1.92,97.19,-18.1,39.0
2.2,3.0,2.25,5.75,8.0,3.0,2.25,0.25,4.5,1.75,1.5,2.25,0.75,0.25,-0.17,0.08,0.95,532.11,10.8,27.2,1.25,0.0,1.75,0.0,0.0,0.0,0.75,0.75,0.5,0.0,0.25,0.25,0.25,2.02,1.33,-1.73,97.79,-21.8,21.0
2.22,4.25,2.75,5.75,8.0,0.0,2.0,0.0,3.5,1.5,1.5,1.5,0.75,0.25,-0.11,0.14,1.08,481.38,14.3,33.0,1.0,0.0,1.75,0.0,0.0,0.0,0.75,0.5,0.25,0.0,0.25,0.25,0.25,1.33,0.45,-0.17,89.27,-23.8,23.6
2.24,4.0,2.75,5.5,8.0,3.25,1.5,0.0,3.25,1.25,1.5,1.5,0.75,0.25,-0.17,0.14,1.14,464.9,12.8,35.6,1.25,0.25,1.75,0.0,0.25,0.0,0.75,0.5,0.25,0.0,0.5,0.25,0.25,0.52,-0.36,0.14,86.28,-21.7,27.4
2.26,5.5,3.0,5.25,8.0,0.0,1.5,0.0,2.75,0.75,1.5,1.5,0.75,0.25,-0.23,0.14,1.08,433.38,16.0,38.9,1.0,0.25,1.75,0.0,0.5,0.0,0.75,0.0,0.25,0.0,0.25,0.25,0.25,0.27,-0.17,-0.05,82.1,-24.1,37.4
2.28,5.25,3.25,5.25,8.0,0.0,0.5,0.0,2.0,0.75,1.0,0.25,0.75,0.25,-0.23,0.2,1.08,403.05,18.8,48.4,1.0,0.25,1.75,0.0,0.0,0.0,0.75,0.0,0.5,0.0,0.25,0.25,0.25,-0.23,0.39,0.08,80.15,-26.9,31.2
2.3,7.0,4.25,5.75,6.75,0.0,0.0,0.0,1.5,0.5,0.0,1.0,0.75,0.25,-0.23,0.27,0.95,383.95,22.4,56.8,1.0,0.0,1.75,0.0,0.0,0.0,0.75,0.0,0.25,0.0,0.25,0.25,0.25,-0.86,1.2,0.33,74.67,-28.7,31.2
2.32,6.75,4.25,6.25,8.0,0.0,0.0,0.0,1.25,0.75,1.5,1.25,0.75,0.0,-0.23,0.27,1.08,387.2,21.0,50.5,1.0,0.0,1.75,0.0,0.0,0.0,0.5,0.0,0.25,0.0,0.25,0.25,0.25,-0.61,1.27,0.2,68.84,-28.6,31.3
2.34,6.5,3.5,6.25,6.75,0.0,0.0,0.0,0.75,0.5,0.0,0.0,0.5,0.0,-0.3,0.39,1.08,369.76,25.0,66.2,1.25,0.0,1.75,0.0,0.5,0.0,0.75,0.0,0.25,0.0,0.25,0.25,0.25,-0.05,1.08,0.02,70.05,-25.2,37.0
2.36,0.0,0.0,0.0,7.25,0.0,0.0,0.0,0.0,0.0,0.0,0.0,0.5,0.0,-0.3,0.39,1.27,277.89,16.6,47.6,1.25,0.0,1.75,0.0,0.0,0.0,0.75,0.0,0.25,0.0,0.5,0.25,0.25,0.33,1.27,0.2,70.1,-28.1,28.9
2.38,7.5,0.0,6.0,6.75,0.0,0.0,3.0,1.25,0.0,0.0,0.25,0.0,0.0,-0.3,0.45,0.95,265.73,27.2,62.3,1.25,0.25,1.75,0.0,0.25,0.0,0.5,0.0,0.25,0.0,0.5,0.25,0.25,0.64,1.14,-0.17,73.11,-25.4,34.0
2.4,8.0,0.0,7.0,6.5,0.0,0.0,0.0,0.0,0.0,0.0,0.0,0.0,0.0,-0.17,0.52,0.7,251.92,30.4,72.8,0.75,0.0,1.75,0.0,0.5,0.0,0.5,0.5,0.25,0.0,0.75,0.25,0.25,0.52,1.02,-0.17,76.79,-18.9,14.4
2.42,8.0,0.0,7.25,6.75,0.0,0.0,0.0,0.0,0.5,0.0,0.0,0.0,0.0,-0.17,0.58,0.58,273.98,29.9,70.0,1.0,0.0,1.25,0.0,1.5,0.0,0.75,0.0,0.25,0.0,0.25,0.25,0.25,0.2,1.33,-0.36,82.8,-17.3,35.6
2.44,8.25,0.0,6.75,8.0,0.0,0.0,0.0,0.0,0.75,0.75,0.0,0.0,0.0,-0.17,0.77,0.7,294.48,27.6,64.3,1.0,0.0,1.75,0.0,1.0,0.0,0.75,0.0,0.5,0.0,0.25,0.25,0.25,0.02,1.7,-0.23,86.66,-21.2,32.8
2.46,8.25,0.0,7.75,6.5,0.0,0.0,0.0,0.0,0.75,1.0,1.0,0.0,0.0,-0.11,0.77,0.95,325.36,27.6,57.8,0.75,0.0,1.75,0.0,0.0,0.0,0.5,0.25,0.25,0.0,0.5,0.25,0.25,-0.17,2.89,-0.17,82.31,-24.5,17.4
2.48,7.0,0.0,7.5,8.0,0.0,0.0,0.0,0.0,0.75,1.0,1.0,0.0,0.0,-0.05,0.64,0.64,337.02,26.5,55.9,0.75,0.0,1.75,0.0,0.0,0.0,0.5,0.0,0.25,0.0,0.5,0.25,0.25,1.14,3.89,0.95,75.48,-27.1,20.9
2.5,7.75,0.0,7.25,8.0,0.0,0.0,0.0,0.0,0.75,1.0,1.0,0.0,0.0,0.02,0.7,0.08,351.3,26.6,57.0,0.75,0.0,1.75,0.0,0.0,0.0,0.75,0.0,0.5,0.0,0.25,0.25,0.25,0.33,2.27,1.39,70.14,-27.4,23.2
2.52,7.5,0.0,7.25,8.0,0.0,0.0,0.25,0.0,0.0,0.0,0.5,0.0,0.0,0.14,0.95,0.08,354.66,29.1,67.9,0.75,0.0,1.75,0.0,0.0,0.0,0.75,0.0,0.5,0.0,0.5,0.25,0.25,-0.23,-2.42,-0.55,68.33,-26.4,17.7
2.54,6.5,0.0,7.25,8.0,0.0,0.0,0.25,0.0,0.25,0.75,0.0,0.0,0.0,0.2,1.02,0.33,348.94,27.6,63.9,1.0,0.0,1.75,0.0,0.0,0.0,0.75,0.0,0.25,0.0,0.5,0.25,0.25,-0.3,-3.23,-1.61,68.07,-27.7,25.2
2.56,6.25,0.0,7.25,8.0,0.0,0.0,0.75,0.0,0.0,0.25,0.5,0.0,0.0,0.14,0.95,0.27,342.96,28.4,64.3,0.75,0.0,1.5,0.0,0.25,0.0,0.75,0.0,0.25,0.0,0.5,0.25,0.5,-0.73,-3.55,0.95,68.46,-22.2,13.2
2.58,5.5,0.0,6.25,7.75,0.0,0.0,0.75,0.0,0.0,1.0,0.5,0.0,0.0,0.14,0.83,-0.17,337.0,26.3,58.6,1.0,0.25,1.75,0.0,1.0,0.0,0.5,0.0,0.25,0.0,0.25,0.25,0.25,-0.8,-0.36,0.2,74.7,-21.0,39.3
2.6,5.25,0.0,6.5,7.25,0.0,0.0,0.75,0.0,0.0,0.5,0.5,0.0,0.0,0.2,1.08,-0.05,325.06,27.6,61.5,1.0,0.0,1.75,0.0,0.0,0.0,0.5,0.0,0.5,0.0,0.25,0.25,0.25,0.14,2.77,-0.55,73.8,-27.6,27.2
2.62,4.0,0.0,6.25,6.75,0.0,0.0,0.5,0.0,0.0,0.75,0.5,0.0,0.0,-0.05,1.14,0.08,292.51,26.7,57.7,1.0,0.0,1.75,0.0,0.25,0.0,0.5,0.0,0.25,0.0,0.25,0.25,0.25,1.14,4.08,-1.42,73.06,-26.4,32.8
2.64,3.0,0.0,5.5,5.75,0.0,0.0,0.5,0.0,0.0,0.75,0.5,0.0,0.0,-0.23,1.89,0.52,267.82,26.2,55.2,1.0,0.0,1.75,0.0,0.0,0.0,0.5,0.0,0.5,0.0,0.25,0.25,0.25,0.58,1.77,-0.73,70.15,-27.6,27.2
2.66,2.25,0.0,4.75,3.75,0.0,0.0,0.0,0.0,0.0,1.0,0.5,0.0,0.0,-0.73,2.08,0.52,228.66,25.6,49.9,0.75,0.0,1.5,0.0,0.0,0.0,0.5,0.0,0.25,0.0,0.25,0.25,0.25,0.39,0.52,-0.11,65.0,-27.5,24.7
2.68,0.0,0.0,0.0,1.25,0.0,0.0,0.0,0.0,0.75,1.0,0.5,0.0,0.0,-0.67,1.64,1.02,150.19,5.9,-18.3,1.0,0.0,1.5,0.0,0.0,0.0,0.5,0.0,0.25,0.0,0.25,0.25,0.25,0.2,0.39,0.33,61.82,-27.9,29.3
2.7,0.0,0.0,0.0,0.0,0.0,0.0,0.0,0.0,0.0,0.75,0.0,0.0,0.0,1.02,1.52,0.27,64.85,-15.6,-75.5,1.0,0.0,1.25,0.0,0.0,0.0,0.5,0.0,0.5,0.0,0.25,0.25,0.25,0.14,0.83,0.7,60.49,-26.2,22.5
2.72,0.0,0.0,0.0,1.25,0.0,0.0,0.0,0.0,0.75,0.0,0.5,0.0,0.0,0.45,-0.17,-0.73,2.02,14.5,4.2,0.75,0.0,1.0,0.0,0.5,0.0,0.5,0.0,0.25,0.0,0.25,0.25,0.5,0.27,1.52,0.27,59.84,-18.5,15.0
2.74,0.0,0.0,0.0,0.0,0.0,0.0,0.0,0.0,0.5,1.0,0.5,0.0,0.0,-0.48,-1.67,-1.11,0.0,-2.2,-66.2,0.5,0.0,1.0,0.0,1.0,0.0,0.5,0.0,0.25,0.0,0.25,0.25,0.25,-0.11,1.77,0.02,59.7,-16.4,24.0
2.76,0.0,0.0,0.0,0.5,0.0,0.0,0.0,0.0,0.0,0.25,0.0,0.0,0.0,-0.92,-2.36,-0.92,0.0,6.5,14.7,0.75,0.0,1.5,0.0,0.0,0.0,0.5,0.0,0.5,0.0,0.5,0.25,0.25,-0.42,1.83,-0.11,60.61,-25.5,14.6
2.78,0.0,0.0,0.0,0.5,0.0,0.0,0.0,0.0,0.0,0.0,0.0,0.0,0.0,6.02,5.52,-1.05,0.0,17.2,57.9,1.0,0.0,1.25,0.0,0.0,0.0,0.5,0.0,0.25,0.0,0.5,0.25,0.25,-0.36,1.64,-0.48,59.97,-26.1,20.2
2.8,0.25,0.0,0.0,1.5,0.0,0.0,0.0,0.0,0.75,0.25,0.5,0.0,0.0,0.33,2.64,1.08,0.0,13.8,9.1,0.75,0.0,1.75,0.0,0.0,0.0,0.5,0.0,0.5,0.0,0.5,0.25,0.25,-0.17,1.33,-0.17,61.93,-26.3,17.4
2.82,0.0,0.0,0.0,2.5,0.0,0.0,0.0,0.0,0.0,1.0,0.5,0.0,0.0,0.52,0.7,0.2,0.0,8.4,9.6,1.0,0.0,1.5,0.0,0.0,0.0,0.25,0.0,0.25,0.0,0.25,0.25,0.25,-0.11,0.95,0.02,60.65,-27.8,29.3
2.84,0.5,0.0,0.0,2.75,0.0,0.0,0.0,0.0,0.0,0.75,0.5,0.0,0.0,-0.17,0.77,-0.11,10.11,12.9,26.0,1.25,0.0,1.5,0.0,0.0,0.0,0.5,0.0,0.25,0.0,0.5,0.25,0.25,-0.05,0.58,0.02,64.36,-27.3,27.0
2.86,0.75,0.0,0.75,2.75,0.0,0.0,0.0,0.0,0.0,1.0,0.5,0.0,0.0,0.02,0.95,0.95,43.57,15.9,29.1,1.0,0.0,1.5,0.0,0.0,0.0,0.5,0.0,0.25,0.0,0.5,0.25,0.25,0.02,0.2,-0.23,64.56,-26.9,22.8
2.88,0.75,0.0,0.5,2.75,0.0,0.0,0.0,0.0,0.0,0.75,0.5,0.0,0.25,0.27,1.33,0.89,69.27,14.9,26.0,0.5,0.25,2.5,0.0,0.25,0.0,0.5,0.0,0.25,0.0,0.25,0.25,0.75,0.2,0.33,-0.55,73.25,-22.9,20.6
2.9,0.75,0.0,0.0,2.5,0.0,0.0,0.0,0.0,0.75,1.0,0.5,0.0,0.0,0.27,1.08,0.83,87.3,12.2,14.3,0.5,0.0,1.0,0.0,0.0,0.0,0.25,0.0,0.25,0.0,0.25,0.25,0.25,0.14,0.45,-0.67,65.04,-24.4,10.8
2.92,0.5,0.0,0.0,2.25,0.0,0.0,0.0,0.0,0.75,1.0,0.5,0.0,0.0,0.14,1.02,0.7,96.32,10.9,8.2,0.75,0.0,1.25,0.0,0.0,0.0,0.25,0.0,0.25,0.0,0.5,0.25,0.25,-0.05,0.58,-0.61,61.2,-25.3,14.5
2.94,0.0,0.0,0.0,0.5,0.0,0.0,0.0,0.0,0.0,0.0,0.25,0.0,0.0,-0.11,1.2,0.33,73.32,15.1,15.7,0.75,0.0,0.75,0.0,0.0,0.0,0.25,0.0,0.25,0.0,0.5,0.25,0.25,-0.11,0.83,-0.55,51.75,-22.9,6.1
2.96,0.25,0.0,0.0,0.5,0.0,0.0,0.0,0.0,0.0,0.0,0.0,0.0,0.0,0.14,1.14,0.27,47.76,22.6,70.2,0.25,0.0,0.75,0.0,0.0,0.0,0.5,0.0,0.25,0.0,0.5,0.25,0.25,-0.05,1.08,-0.42,44.97,-21.1,-10.1
2.98,0.0,0.0,0.0,0.75,0.0,0.0,0.0,0.0,0.75,0.75,0.0,0.0,0.0,0.33,1.27,0.14,33.77,4.7,-17.4,1.0,0.0,1.5,0.0,0.0,0.0,0.25,0.0,0.25,0.0,0.5,0.25,0.25,-0.05,1.27,-0.36,46.97,-26.7,22.7
3.0,0.0,0.0,0.0,1.25,0.0,0.0,0.0,0.0,0.25,0.5,0.0,0.0,0.0,0.39,1.39,0.08,28.63,8.5,13.8,0.5,0.0,0.5,0.0,0.0,0.0,0.25,0.0,0.25,0.0,0.5,0.25,0.25,-0.17,1.2,-0.36,43.19,-20.0,-9.0
3.02,0.0,0.0,1.0,0.5,0.0,0.0,0.0,0.0,0.0,0.0,0.25,0.0,0.0,0.45,1.33,0.14,25.32,28.4,41.6,1.0,0.0,1.25,0.0,0.0,0.0,0.25,0.0,0.5,0.0,0.5,0.25,0.25,-0.23,1.14,-0.3,49.06,-25.0,16.2
3.04,0.0,0.0,1.0,0.75,0.0,0.0,0.0,0.0,0.0,0.5,0.5,0.0,0.0,0.33,1.14,0.33,28.15,17.9,12.1,1.0,0.0,1.0,0.0,0.25,0.0,0.25,0.0,0.25,0.0,0.5,0.25,0.0,-0.23,1.08,-0.3,49.58,-25.5,29.7
3.06,0.0,0.0,1.25,0.75,0.0,0.0,0.0,0.0,0.0,0.5,0.5,0.0,0.0,0.2,0.95,0.27,33.08,19.6,16.2,0.75,0.0,0.5,0.0,0.25,0.0,0.5,0.0,0.25,0.0,0.5,0.25,0.25,-0.17,1.02,-0.23,50.69,-19.4,6.8
3.08,0.0,0.0,0.5,0.0,0.0,0.0,0.0,0.0,0.0,0.0,0.5,0.0,0.0,0.08,0.83,0.02,25.31,24.9,-5.1,1.0,0.0,1.0,0.0,0.0,0.0,0.25,0.0,0.25,0.0,0.25,0.25,0.25,-0.11,1.02,-0.23,48.96,-26.0,24.0
3.1,0.0,0.0,0.25,0.0,0.0,0.0,0.0,0.0,0.0,0.75,0.0,0.0,0.0,0.08,0.64,-0.23,18.29,-1.9,-40.6,0.5,0.0,0.5,0.0,0.0,0.0,0.25,0.0,0.25,0.0,0.25,0.25,0.25,0.02,0.89,-0.17,43.22,-21.1,-1.4
3.12,0.0,0.0,0.25,0.0,0.0,0.0,0.0,0.0,0.0,0.0,0.0,0.0,0.0,0.08,0.7,-0.3,8.58,38.2,60.9,1.0,0.0,1.0,0.0,0.0,0.0,0.25,0.0,0.25,0.0,0.5,0.25,0.25,0.14,0.83,-0.23,44.84,-24.9,16.8
3.14,0.0,0.0,0.25,0.0,0.0,0.0,0.0,0.0,0.0,0.0,0.0,0.0,0.0,0.14,0.83,-0.3,2.9,38.2,60.9,0.75,0.0,1.0,0.0,0.0,0.0,0.25,0.0,0.25,0.0,0.25,0.25,0.25,0.2,0.77,-0.23,45.71,-25.3,18.0
3.16,0.0,0.0,0.25,0.0,0.0,0.0,0.0,0.0,0.0,0.0,0.0,0.0,0.0,0.39,0.95,-0.17,0.19,38.2,60.9,0.5,0.0,1.25,0.0,0.0,0.0,0.25,0.0,0.25,0.0,0.5,0.25,0.25,0.14,0.77,-0.17,48.06,-24.5,8.3
3.18,0.0,0.0,0.25,0.0,0.0,0.0,0.0,0.0,0.0,0.0,0.0,0.0,0.0,0.39,1.02,-0.11,1.87,38.2,60.9,0.75,0.0,1.0,0.0,0.0,0.0,0.5,0.0,0.25,0.0,0.25,0.25,0.25,0.02,0.77,-0.23,48.36,-25.6,18.4
3.2,0.0,0.0,0.0,0.0,0.0,0.0,0.0,0.0,0.0,0.0,0.0,0.0,0.0,0.33,1.02,-0.05,0.0,0.0,0.0,0.75,0.0,1.75,0.0,0.0,0.0,0.25,0.0,0.25,0.0,0.5,0.25,0.5,0.02,0.83,-0.42,55.1,-24.4,12.5
3.22,0.0,0.0,0.0,0.0,0.0,0.0,0.0,0.0,0.0,0.0,0.0,0.0,0.0,0.27,0.95,0.02,0.0,0.0,0.0,0.5,0.0,1.75,0.0,0.0,0.0,0.25,0.0,0.25,0.0,0.25,0.25,0.25,0.08,0.83,-0.55,55.82,-27.6,22.3
3.24,0.0,0.0,0.0,0.0,0.0,0.0,0.0,0.0,0.0,0.0,0.0,0.0,0.0,0.2,0.89,0.08,0.0,0.0,0.0,1.0,0.0,1.0,0.0,0.0,0.0,0.25,0.0,0.25,0.0,0.5,0.25,0.25,0.02,0.89,-0.55,57.87,-24.9,16.8
3.26,0.0,0.0,0.0,0.0,0.0,0.0,0.0,0.0,0.0,0.0,0.0,0.0,0.0,0.14,0.95,0.14,0.0,0.0,0.0,0.75,0.0,1.0,0.0,0.0,0.0,0.25,0.0,0.25,0.0,0.25,0.25,0.25,0.02,0.95,-0.55,53.52,-25.3,18.0
3.28,0.0,0.0,0.0,0.0,0.0,0.0,0.0,0.0,0.0,0.0,0.0,0.0,0.0,0.14,0.89,0.2,0.0,0.0,0.0,0.75,0.0,1.0,0.0,0.0,0.0,0.25,0.0,0.25,0.0,0.5,0.25,0.25,0.02,0.95,-0.55,52.28,-24.2,10.6
3.3,0.0,0.0,0.0,0.0,0.0,0.0,0.0,0.0,0.0,0.0,0.0,0.0,0.0,0.27,0.83,0.2,0.0,0.0,0.0,0.5,0.0,1.0,0.0,0.0,0.0,0.25,0.0,0.25,0.0,0.5,0.25,0.25,-0.05,0.95,-0.48,49.16,-23.3,3.5
3.32,0.0,0.0,0.0,0.5,0.0,0.0,0.0,0.0,0.0,0.0,0.0,0.0,0.0,0.39,0.77,0.27,1.08,17.2,57.9,0.5,0.0,0.75,0.0,0.0,0.0,0.5,0.0,0.5,0.0,0.5,0.25,0.25,-0.11,0.95,-0.42,47.97,-21.4,-3.9
3.34,0.0,0.0,0.0,0.5,0.0,0.0,0.0,0.0,0.25,0.75,0.25,0.0,0.0,0.52,0.83,0.33,11.08,1.6,-30.6,0.5,0.0,1.25,0.0,0.0,0.0,0.25,0.0,0.25,0.0,0.25,0.25,0.25,-0.11,0.95,-0.42,47.24,-25.7,15.3
3.36,0.0,0.0,0.0,0.5,0.0,0.0,0.0,0.0,0.25,0.75,0.5,0.0,0.0,0.58,0.89,0.14,21.98,2.7,-36.1,0.5,0.0,0.5,0.0,0.25,0.0,0.25,0.0,0.25,0.0,0.5,0.25,0.5,-0.11,0.89,-0.42,45.27,-14.6,-11.8
3.38,0.0,0.0,0.0,0.5,0.0,0.0,0.0,0.0,0.5,0.75,0.5,0.0,0.0,0.58,0.83,-0.05,31.55,3.7,-36.3,0.5,0.0,1.75,0.0,0.25,0.0,0.25,0.0,0.25,0.0,0.25,0.25,0.25,-0.11,0.89,-0.3,49.96,-25.2,24.7
3.4,0.0,0.0,0.0,0.5,0.0,0.0,0.0,0.0,0.5,0.5,0.5,0.0,0.0,0.58,0.83,-0.05,36.05,6.1,-31.4,0.75,0.0,0.75,0.0,0.0,0.0,0.25,0.0,0.25,0.0,0.5,0.25,0.25,-0.11,0.89,-0.3,48.8,-22.9,6.1
3.42,0.0,0.0,0.25,0.0,0.0,0.0,0.0,0.0,0.0,0.5,0.0,0.0,0.0,0.64,0.89,-0.11,31.33,2.6,-29.1,0.5,0.0,1.0,0.0,0.0,0.0,0.25,0.0,0.25,0.0,0.5,0.25,0.25,-0.11,0.89,-0.3,48.19,-23.3,3.5
3.44,0.0,0.0,0.0,0.5,0.0,0.0,0.0,0.0,0.25,0.75,0.25,0.0,0.0,0.64,0.89,0.02,30.38,1.6,-30.6,0.5,0.0,0.75,0.0,0.0,0.0,0.25,0.0,0.25,0.0,0.5,0.25,0.25,-0.11,0.89,-0.36,44.1,-21.8,-2.1
3.46,0.0,0.0,0.25,0.5,0.0,0.0,0.0,0.0,0.0,0.75,0.5,0.0,0.0,0.64,0.89,-0.05,30.61,6.1,-23.3,0.5,0.0,0.5,0.0,0.0,0.0,0.25,0.0,0.25,0.0,0.25,0.25,0.25,-0.11,0.89,-0.36,39.93,-21.1,-1.4
3.48,0.0,0.0,0.0,0.5,0.0,0.0,0.0,0.0,0.0,0.5,0.0,0.0,0.0,0.52,0.95,-0.11,27.95,1.1,-7.2,0.5,0.0,0.5,0.0,0.0,0.0,0.25,0.0,0.25,0.0,0.5,0.25,0.25,-0.11,0.89,-0.36,36.58,-20.0,-9.0
3.5,0.0,0.0,0.0,0.75,0.0,0.0,0.0,0.0,0.0,0.75,0.5,0.0,0.0,0.52,1.08,-0.11,29.72,3.4,-23.6,0.5,0.0,0.5,0.0,0.0,0.0,0.25,0.0,0.25,0.0,0.5,0.25,0.25,-0.11,0.89,-0.42,35.1,-20.0,-9.0
3.52,0.0,0.0,0.5,0.5,0.0,0.0,0.0,0.0,0.0,0.5,0.25,0.0,0.0,0.45,1.08,-0.17,30.0,13.1,3.1,0.5,0.0,0.5,0.0,0.0,0.0,0.5,0.0,0.25,0.0,0.75,0.25,0.25,-0.17,0.89,-0.42,36.46,-19.7,-13.4
3.54,0.0,0.0,0.25,0.5,0.0,0.0,0.0,0.0,0.0,0.5,0.5,0.0,0.0,0.39,1.08,-0.17,29.95,9.1,-16.0,0.0,0.0,0.75,0.0,0.0,0.0,0.5,0.0,0.25,0.0,0.25,0.25,0.25,-0.17,0.89,-0.42,34.28,-20.7,-14.8
3.56,0.0,0.0,0.0,0.5,0.0,0.0,0.0,0.0,0.0,0.75,0.5,0.0,0.0,0.33,1.08,-0.17,28.35,1.3,-35.7,0.75,0.0,0.5,0.0,0.0,0.0,0.25,0.0,0.25,0.0,0.5,0.25,0.25,-0.17,0.95,-0.42,35.86,-21.4,0.6
3.58,0.0,0.0,0.5,0.75,0.0,0.0,0.0,0.0,0.0,0.5,0.25,0.0,0.0,0.33,1.08,-0.17,29.82,13.6,10.2,0.5,0.0,0.75,0.0,0.0,0.0,0.25,0.0,0.25,0.0,0.5,0.25,0.25,-0.42,1.02,-0.36,36.57,-21.8,-2.1
3.6,0.0,0.0,0.5,0.75,0.0,0.0,0.0,0.0,0.0,0.5,0.5,0.25,0.0,0.27,1.02,-0.11,33.6,12.9,-9.7,0.5,0.0,0.75,0.0,0.0,0.0,0.25,0.0,0.25,0.0,0.25,0.25,0.25,-0.3,0.89,-0.42,37.17,-22.9,5.3
3.62,0.0,0.0,0.25,0.75,0.0,0.0,0.0,0.0,0.0,0.75,0.5,0.25,0.0,0.27,1.02,-0.11,37.18,7.5,-23.4,0.75,0.0,0.75,0.0,0.0,0.0,0.5,0.0,0.25,0.0,0.25,0.25,0.25,-0.23,0.89,-0.3,39.07,-24.4,14.3
3.64,0.0,0.0,0.5,0.75,0.0,0.0,0.0,0.0,0.0,0.75,0.5,0.25,0.0,0.27,0.95,-0.05,41.96,10.3,-15.6,0.5,0.0,1.0,0.0,0.0,0.0,0.25,0.0,0.25,0.0,0.5,0.25,0.25,-0.17,0.95,-0.36,42.61,-23.3,3.5
3.66,0.0,0.0,0.5,0.5,0.0,0.0,0.0,0.0,0.0,0.5,0.5,0.5,0.0,0.27,0.89,-0.05,43.19,12.1,-26.6,0.5,0.0,0.5,0.0,0.0,0.0,0.25,0.0,0.25,0.0,0.5,0.25,0.25,-0.17,0.95,-0.42,41.82,-20.0,-9.0
3.68,0.0,0.0,0.25,0.5,0.0,0.0,0.0,0.0,0.0,0.75,0.5,0.5,0.0,0.27,0.89,-0.05,42.87,6.6,-40.5,1.0,0.0,0.75,0.0,0.0,0.0,0.5,0.0,0.25,0.0,0.25,0.25,0.25,-0.17,0.89,-0.42,44.53,-25.2,20.9
3.7,0.0,0.0,0.5,0.5,0.0,0.0,0.0,0.0,0.0,0.5,0.5,0.25,0.0,0.27,0.89,-0.05,40.91,12.4,-17.5,0.5,0.0,0.25,0.0,1.0,0.0,0.25,0.0,0.25,0.0,0.25,0.25,0.25,-0.17,0.89,-0.36,46.8,-10.1,14.4
3.72,0.0,0.0,0.5,0.5,0.0,0.0,0.0,0.0,0.5,0.5,0.5,0.5,0.0,0.27,0.89,-0.11,43.47,12.1,-28.6,0.25,0.0,0.5,0.0,0.0,0.0,0.25,0.0,0.25,0.0,0.5,0.25,0.25,-0.17,0.95,-0.36,43.26,-18.3,-20.9
3.74,0.0,0.0,0.25,0.5,0.0,0.0,0.0,0.0,0.25,0.5,0.25,0.5,0.0,0.27,0.89,-0.11,40.85,9.2,-32.6,0.5,0.0,0.5,0.0,0.0,0.0,0.25,0.0,0.25,0.0,0.5,0.25,0.25,-0.17,0.95,-0.42,40.55,-20.0,-9.0
3.76,0.0,0.0,0.5,0.5,0.0,0.0,0.0,0.0,0.0,0.75,0.5,0.75,0.0,0.27,0.83,-0.11,44.07,9.5,-37.5,0.5,0.0,0.75,0.0,0.0,0.0,0.25,0.0,0.25,0.0,0.25,0.25,0.25,-0.23,0.95,-0.36,38.28,-22.9,5.3
3.78,0.0,0.0,0.25,0.75,0.0,0.0,0.0,0.0,0.25,0.5,0.5,0.5,0.0,0.39,0.83,-0.05,43.94,10.1,-27.8,0.5,0.0,0.75,0.0,0.0,0.0,0.25,0.0,0.25,0.0,0.25,0.25,0.25,-0.23,0.95,-0.36,37.64,-22.9,5.3
3.8,0.0,0.0,0.25,0.5,0.0,0.0,0.0,0.0,0.25,0.5,0.5,0.5,0.0,0.27,0.95,-0.11,43.49,9.4,-36.8,0.75,0.0,0.75,0.0,0.0,0.0,0.25,0.0,0.25,0.0,0.5,0.25,0.25,-0.23,0.95,-0.36,39.36,-22.9,6.1
3.82,0.0,0.0,0.25,0.75,0.0,0.0,0.0,0.0,0.25,0.5,0.5,0.5,0.0,0.27,0.95,-0.17,42.42,10.1,-27.8,0.5,0.0,0.75,0.0,0.0,0.0,0.25,0.0,0.25,0.0,0.25,0.25,0.25,-0.3,0.95,-0.36,39.7,-22.9,5.3
3.84,0.0,0.0,0.25,0.5,0.0,0.0,0.0,0.0,0.5,0.5,0.5,0.5,0.0,0.33,0.95,-0.17,42.55,9.6,-36.9,0.5,0.0,0.5,0.0,0.25,0.0,0.5,0.0,0.25,0.0,0.25,0.25,0.25,-0.3,0.95,-0.36,40.31,-18.8,6.2
3.86,0.0,0.0,0.25,0.5,0.0,0.0,0.0,0.0,0.5,0.5,0.5,0.25,0.0,0.33,1.02,-0.17,41.37,9.7,-29.7,0.5,0.0,0.5,0.0,0.25,0.0,0.25,0.0,0.25,0.0,0.5,0.25,0.25,-0.3,0.95,-0.36,40.0,-17.4,-2.1
3.88,0.0,0.0,0.25,0.5,0.0,0.0,0.0,0.0,0.5,0.5,0.5,0.0,0.0,0.33,1.02,-0.17,38.93,9.8,-20.9,0.25,0.0,0.25,0.0,0.0,0.0,0.25,0.0,0.25,0.0,0.5,0.25,0.25,-0.36,0.95,-0.3,36.28,-15.6,-32.3
3.9,0.0,0.0,0.0,0.75,0.0,0.0,0.0,0.0,0.5,0.5,0.5,0.25,0.0,0.33,1.02,-0.17,38.32,7.6,-29.9,0.5,0.0,0.5,0.0,0.0,0.0,0.25,0.0,0.25,0.0,0.25,0.25,0.25,-0.3,0.89,-0.36,34.26,-21.1,-1.4
3.92,0.0,0.0,0.25,0.5,0.0,0.0,0.0,0.0,0.5,0.5,0.0,0.25,0.0,0.33,1.02,-0.17,35.1,9.5,-18.8,0.25,0.0,0.5,0.0,0.0,0.0,0.25,0.0,0.25,0.0,0.25,0.25,0.25,-0.23,0.89,-0.36,30.56,-19.3,-13.8
3.94,0.0,0.0,0.25,0.5,0.0,0.0,0.0,0.0,0.5,0.5,0.5,0.5,0.0,0.33,1.02,-0.17,36.99,9.6,-36.9,0.0,0.0,0.25,0.0,0.0,0.0,0.25,0.0,0.25,0.0,0.5,0.25,0.25,-0.3,0.89,-0.36,28.37,-12.8,-51.2
3.96,0.0,0.0,0.5,0.5,0.0,0.0,0.0,0.0,0.5,0.5,0.5,0.75,0.0,0.27,1.02,-0.17,41.16,11.8,-34.8,0.5,0.0,0.5,0.0,0.0,0.0,0.25,0.0,0.25,0.0,0.5,0.25,0.25,-0.3,0.89,-0.36,30.13,-20.0,-9.0
3.98,0.0,0.0,0.75,0.5,0.0,0.0,0.0,0.0,0.25,0.5,0.5,0.5,0.0,0.27,1.02,-0.17,45.12,14.3,-20.1,0.25,0.0,0.25,0.0,0.0,0.0,0.25,0.0,0.25,0.0,0.5,0.25,0.25,-0.3,0.89,-0.36,29.17,-15.6,-32.3
4.0,0.0,0.0,0.75,0.5,0.0,0.0,0.0,0.0,0.25,0.5,0.5,0.5,0.0,0.27,1.02,-0.17,46.78,14.3,-20.1,0.5,0.0,0.0,0.0,0.0,0.0,0.25,0.0,0.25,0.0,0.25,0.25,0.25,-0.3,0.89,-0.36,27.25,-15.5,-21.7
4.02,0.0,0.0,0.5,0.5,0.0,0.0,0.0,0.0,0.25,0.5,0.5,0.25,0.0,0.2,0.95,-0.17,45.3,12.4,-19.6,0.25,0.0,0.5,0.0,0.0,0.0,0.75,0.0,0.25,0.0,0.25,0.25,0.25,-0.23,0.89,-0.36,27.64,-20.8,-9.1
4.04,0.0,0.0,0.5,0.5,0.0,0.0,0.0,0.0,0.5,0.25,0.5,0.0,0.0,0.2,0.95,-0.17,41.95,15.9,-5.6,0.0,0.0,0.0,0.0,0.0,0.0,0.25,0.0,0.25,0.0,0.5,0.25,0.25,-0.3,0.95,-0.36,25.43,-7.9,-72.5
4.06,0.0,0.0,0.25,0.5,0.0,0.0,0.0,0.0,0.25,0.25,0.25,0.25,0.0,0.2,0.95,-0.17,35.52,12.8,-15.7,0.0,0.0,0.25,0.0,0.0,0.0,0.25,0.0,0.25,0.0,0.25,0.25,0.25,-0.3,0.95,-0.36,23.79,-13.1,-46.9
4.08,0.0,0.0,0.75,0.5,0.0,0.0,0.0,0.0,0.0,0.25,0.0,0.0,0.0,0.27,0.95,-0.17,30.71,22.4,37.8,0.5,0.0,0.0,0.0,0.0,0.0,0.25,0.0,0.25,0.0,0.5,0.25,0.25,-0.23,0.95,-0.36,23.75,-14.8,-28.8
4.1,0.0,0.0,0.5,0.5,0.0,0.0,0.0,0.0,0.25,0.25,0.5,0.0,0.0,0.27,0.95,-0.17,29.14,16.3,-1.5,0.5,0.0,0.25,0.0,0.0,0.0,0.25,0.0,0.0,0.0,0.25,0.25,0.25,-0.23,0.95,-0.42,24.07,-19.7,-5.7
