time,left pressure 0[N/cm²],left pressure 1[N/cm²],left pressure 2[N/cm²],left pressure 3[N/cm²],left pressure 4[N/cm²],left pressure 5[N/cm²],left pressure 6[N/cm²],left pressure 7[N/cm²],left pressure 8[N/cm²],left pressure 9[N/cm²],left pressure 10[N/cm²],left pressure 11[N/cm²],left pressure 12[N/cm²],left acceleration X[g],left acceleration Y[g],left acceleration Z[g],left total force[N],left center of pressure X[mm],left center of pressure Y[mm],right pressure 0[N/cm²],right pressure 1[N/cm²],right pressure 2[N/cm²],right pressure 3[N/cm²],right pressure 4[N/cm²],right pressure 5[N/cm²],right pressure 6[N/cm²],right pressure 7[N/cm²],right pressure 8[N/cm²],right pressure 9[N/cm²],right pressure 10[N/cm²],right pressure 11[N/cm²],right pressure 12[N/cm²],right acceleration X[g],right acceleration Y[g],right acceleration Z[g],right total force[N],right center of pressure X[mm],right center of pressure Y[mm]
0.02,2.75,0.0,0.0,1.25,0.0,0.0,2.5,4.5,2.75,1.75,2.0,0.0,0.25,0.89,1.7,0.89,115.15,6.0,-13.9,4.5,2.5,7.5,7.75,9.0,6.75,1.5,7.5,2.25,6.0,4.5,2.25,2.25,0.2,0.14,0.95,981.34,-4.6,11.4
0.04,0.75,0.0,0.75,0.0,0.0,0.0,3.0,3.75,1.5,2.75,1.75,0.25,0.0,0.45,1.64,0.83,149.69,2.5,-31.9,3.75,2.5,7.5,7.75,9.0,7.0,1.5,7.75,2.25,6.25,5.0,2.5,2.75,0.27,0.14,0.95,1043.34,-3.9,8.0
0.06,2.5,1.25,1.75,1.0,0.0,0.0,1.5,3.75,2.0,2.25,2.25,0.25,0.75,-0.17,1.64,0.7,185.75,8.1,-6.6,3.0,2.5,7.0,7.75,9.0,7.0,1.5,7.75,2.25,6.25,5.0,2.5,2.75,0.27,0.14,0.95,1076.23,-3.3,6.6
0.08,2.0,0.75,2.0,0.75,0.0,0.0,2.5,5.0,1.5,2.0,2.75,0.0,1.0,-0.36,1.52,1.02,219.15,6.5,-13.4,3.0,2.5,6.5,7.75,9.0,7.0,1.25,7.75,2.25,6.25,5.0,2.5,2.75,0.27,0.14,0.95,1089.77,-3.0,6.2
0.1,0.0,0.0,0.0,0.0,0.0,0.0,2.25,5.0,0.75,1.0,3.25,0.0,0.75,-0.42,1.2,1.14,221.36,-2.7,-50.3,3.0,2.5,6.5,7.5,9.0,7.0,1.0,7.75,2.25,6.25,5.0,2.25,2.75,0.27,0.14,0.95,1086.22,-2.8,6.4
0.12,1.5,0.5,0.0,0.5,0.0,0.0,0.25,1.75,1.0,2.0,0.25,0.0,0.0,-0.42,1.14,1.2,200.94,2.9,-7.1,3.0,2.5,6.5,7.0,9.0,7.0,1.0,7.75,1.75,6.25,4.5,2.0,2.75,0.27,0.14,0.95,1060.0,-2.6,7.4
0.14,0.75,0.0,0.0,0.25,0.0,0.0,0.5,1.75,1.0,2.0,0.75,0.0,0.0,-0.3,1.14,1.27,167.23,-0.6,-33.2,3.0,2.5,5.5,6.0,9.0,7.0,1.0,7.75,1.75,6.0,4.0,2.25,2.5,0.2,0.14,0.89,1005.35,-1.8,6.6
0.16,1.5,0.0,1.75,0.5,0.0,0.0,0.75,2.0,1.0,0.5,1.5,0.0,0.75,-0.17,0.89,1.39,145.86,11.6,-6.1,2.0,2.5,5.0,6.0,8.75,6.5,1.0,7.75,1.75,6.25,4.75,2.25,2.5,0.2,0.14,0.89,956.18,-1.2,2.8
0.18,2.0,0.75,0.0,0.75,0.0,0.0,0.75,2.0,1.5,2.0,0.5,0.0,0.0,-0.17,0.64,1.39,133.75,6.0,-0.7,2.25,2.5,5.0,5.75,8.0,6.25,1.0,7.75,2.0,6.75,5.0,3.0,3.0,0.2,0.14,0.89,920.41,-1.3,-1.4
0.2,0.5,0.25,0.0,0.5,0.0,0.0,1.0,2.0,1.5,2.0,0.5,0.0,0.0,-0.17,0.45,1.27,121.26,0.3,-26.9,2.0,2.0,4.75,5.5,8.0,6.0,1.0,7.75,2.25,7.5,5.75,3.0,3.0,0.2,0.14,0.95,895.17,-0.9,-5.4
0.22,0.25,0.0,1.75,0.0,0.0,0.0,1.5,2.0,0.5,0.5,0.75,0.0,0.0,-0.17,0.27,1.2,103.58,11.2,-5.6,1.75,1.75,2.75,4.0,7.75,5.75,1.0,8.0,2.25,8.0,7.25,4.25,4.0,0.2,0.14,0.95,873.14,0.9,-17.2
0.24,0.0,0.0,0.0,0.0,0.0,0.0,0.25,1.25,0.5,0.25,0.0,0.0,0.0,-0.11,0.14,1.08,60.53,-7.1,-39.3,1.75,1.5,2.25,3.5,6.25,4.75,1.0,8.0,1.75,8.25,7.25,4.5,4.75,0.2,0.14,0.95,833.04,1.3,-24.0
0.26,0.0,0.0,0.0,0.0,0.0,0.0,0.25,1.0,0.5,0.25,0.0,0.0,0.0,-0.23,0.08,1.02,31.93,-5.8,-39.4,1.75,1.0,2.0,1.5,6.25,4.5,1.0,7.75,1.5,8.0,7.25,4.5,5.0,0.2,0.14,0.95,777.26,2.3,-29.2
0.28,0.5,0.0,0.0,0.0,0.0,0.0,0.25,1.75,1.0,0.5,0.25,0.0,0.0,-0.3,-0.05,0.83,19.41,-0.5,-27.8,0.25,0.0,2.0,0.0,5.75,2.25,1.0,7.25,1.0,6.5,7.0,3.0,4.75,0.14,0.14,0.95,669.04,3.5,-39.0
0.3,1.75,0.25,0.0,1.0,0.0,0.0,1.0,2.5,2.5,1.75,1.25,0.25,0.0,-0.3,-0.05,0.77,58.8,6.0,-15.8,0.25,0.0,0.0,0.0,3.5,0.75,0.0,5.5,0.75,6.0,3.75,1.75,3.25,0.14,0.14,0.95,501.87,7.3,-48.7
0.32,1.75,0.0,0.75,1.0,0.0,0.0,2.75,4.25,2.0,1.75,2.0,0.0,0.0,-0.23,-0.17,0.7,120.09,6.3,-14.6,1.25,0.75,0.0,0.0,1.75,0.0,0.0,4.5,0.0,2.0,3.25,1.0,2.0,0.2,0.27,1.27,331.53,2.9,-35.9
0.34,1.0,0.0,0.25,0.5,0.0,0.0,1.75,3.75,1.5,1.25,1.25,0.0,0.0,-0.11,-0.36,0.64,154.3,2.6,-22.2,0.25,0.0,0.0,0.0,2.25,0.0,0.5,3.25,0.0,1.25,0.75,0.25,0.5,0.27,0.64,1.83,198.34,7.0,-20.9
0.36,1.0,0.0,0.75,0.5,0.0,0.0,2.5,4.0,2.0,1.5,2.0,0.5,0.5,-0.11,-0.61,0.64,182.53,4.4,-28.9,0.0,0.0,0.0,0.0,1.25,0.0,0.0,2.25,0.0,0.0,0.25,0.0,0.25,0.08,0.39,1.27,65.57,10.3,-13.4
0.38,0.75,0.0,0.0,0.5,0.0,0.0,3.75,4.75,0.0,0.25,0.0,0.0,0.0,-0.86,-1.23,2.08,168.25,1.0,-6.8,0.25,0.0,0.0,1.0,1.0,1.25,0.0,1.75,0.0,0.0,0.0,0.25,0.0,-0.17,1.14,1.02,0.0,5.6,16.1
0.4,0.0,0.0,0.0,0.25,0.0,0.0,4.0,4.75,0.0,0.25,0.0,0.0,0.0,-1.48,-3.23,3.2,148.53,-2.3,-18.8,0.0,0.0,0.0,0.0,0.25,0.0,0.0,1.75,0.0,0.0,0.25,0.0,0.0,-0.36,4.33,-0.92,0.0,12.1,-30.9
0.42,0.0,0.5,1.75,2.5,0.0,0.0,0.0,4.5,0.0,0.75,0.0,0.0,0.0,-0.55,-0.17,-0.92,144.75,3.2,7.9,0.0,0.0,0.0,0.0,0.0,0.0,0.0,1.75,0.0,0.0,0.0,0.0,0.0,-1.23,2.45,1.08,0.0,16.7,-38.7
0.44,3.75,2.0,3.25,0.0,0.0,0.0,0.0,1.75,0.0,0.0,1.0,0.0,0.0,-1.55,3.02,3.2,163.41,22.1,52.4,0.0,0.0,0.0,0.0,0.25,0.0,0.0,1.75,0.0,0.0,0.25,0.0,0.0,-0.48,1.64,1.08,0.0,12.1,-30.9
0.46,0.0,0.0,0.0,6.5,0.0,0.0,3.75,5.25,0.0,0.0,1.25,0.0,0.0,-0.8,-0.23,-0.11,192.02,6.6,9.8,0.0,0.0,0.0,0.0,0.0,0.0,0.0,1.75,0.25,0.0,0.0,0.5,0.0,0.2,1.39,0.77,0.0,8.8,-52.9
0.48,0.0,0.0,0.0,0.0,0.0,0.0,0.0,0.0,0.0,1.0,0.0,0.0,0.0,-0.3,0.27,0.89,152.09,-15.7,-75.5,0.0,0.0,0.0,0.0,0.0,0.0,0.25,1.75,0.25,0.0,0.25,0.25,0.0,0.33,1.08,0.95,0.0,6.7,-45.9
0.5,6.0,0.75,7.75,7.25,0.0,0.0,0.0,4.75,0.25,0.0,1.0,0.0,0.5,-0.11,0.14,1.27,235.38,20.0,43.2,0.5,0.0,0.0,0.0,0.25,0.0,0.5,1.75,0.25,0.0,0.5,0.25,0.0,0.08,0.83,1.08,0.0,-1.1,-19.7
0.52,7.25,4.0,5.5,10.5,0.0,0.0,0.0,3.25,0.0,1.25,0.0,0.0,0.0,-0.3,0.14,1.39,311.33,19.3,57.1,0.5,0.0,0.0,0.0,0.0,0.0,0.25,1.75,0.0,0.0,0.5,0.25,0.0,-0.05,0.64,1.14,0.0,0.5,-26.9
0.54,7.75,5.0,8.0,11.0,0.0,3.5,0.0,3.5,2.75,1.75,1.5,0.75,1.25,-0.3,0.08,1.83,503.23,15.0,38.2,0.0,0.0,0.0,0.0,0.0,0.0,0.0,1.75,0.0,0.0,0.25,0.25,0.0,-0.11,0.39,1.27,7.07,10.9,-50.6
0.56,7.25,4.25,7.75,0.0,11.0,4.25,1.0,4.75,2.0,3.0,1.75,1.0,0.75,-0.23,0.08,1.64,687.48,7.9,32.4,0.0,0.5,0.0,0.0,0.0,0.0,0.5,2.0,0.25,0.0,0.5,0.25,0.0,-0.23,0.33,1.27,29.17,2.3,-24.9
0.58,7.25,4.0,7.5,8.75,11.0,5.0,1.0,5.5,2.75,3.5,2.75,1.75,1.5,-0.23,0.02,1.14,949.5,8.1,28.1,0.5,0.0,0.0,0.0,1.25,0.25,1.0,2.0,0.25,0.0,0.5,0.25,0.0,-0.23,0.45,1.14,54.76,0.2,-1.1
0.6,6.5,4.0,7.0,9.0,10.5,5.0,1.5,6.0,2.75,3.75,3.0,1.75,1.75,-0.11,0.02,1.02,1114.57,7.4,25.1,0.5,0.25,0.0,0.0,0.0,0.0,0.0,1.25,0.0,0.0,0.0,0.25,0.0,-0.17,0.45,1.08,55.63,-0.3,-2.0
0.62,5.75,3.25,5.5,8.0,9.75,5.0,1.0,6.0,2.25,3.5,2.5,1.25,1.5,-0.17,0.08,0.95,1183.44,6.2,24.8,0.0,0.0,0.0,0.0,0.0,0.0,0.0,1.5,0.0,0.0,0.0,0.25,0.0,-0.11,0.33,1.14,49.06,13.1,-48.9
0.64,3.25,2.5,4.5,7.75,9.5,4.25,0.75,5.5,1.75,3.25,2.25,1.0,1.25,-0.17,0.08,0.95,1115.24,4.7,22.5,0.0,0.0,0.0,0.0,0.0,0.0,0.0,1.5,0.25,0.0,0.0,0.25,0.0,0.08,0.27,1.08,41.82,10.0,-47.6
0.66,4.0,2.5,3.75,6.5,9.0,4.25,0.75,5.5,1.5,3.25,1.75,0.75,1.0,-0.17,0.08,0.95,995.34,4.3,24.5,0.0,0.0,0.0,0.0,0.0,0.0,0.0,1.0,0.0,0.0,0.0,0.25,0.0,0.27,0.2,1.02,30.86,11.6,-52.9
0.68,3.0,2.25,3.5,6.5,8.75,3.75,0.5,5.25,1.5,2.75,1.5,0.75,0.75,-0.17,0.08,0.95,860.09,4.1,24.8,1.25,0.0,0.0,0.0,0.0,0.0,0.0,0.75,0.25,0.0,0.0,0.25,0.0,0.27,0.14,0.89,28.85,-13.8,20.0
0.7,2.0,1.5,2.0,6.0,8.5,3.75,0.5,5.25,1.5,2.75,1.75,0.75,0.0,-0.17,0.08,0.89,728.98,2.0,21.4,0.0,0.0,0.0,0.0,0.0,0.0,0.0,1.25,0.0,0.0,0.0,0.25,0.0,0.2,0.08,0.89,25.8,12.5,-50.5
0.72,1.25,1.25,1.25,5.25,8.5,4.0,0.25,5.25,1.5,3.5,1.75,0.75,1.0,-0.17,0.08,0.89,627.08,-0.7,12.2,0.0,0.0,0.0,0.0,0.0,0.0,0.0,1.0,0.0,0.0,0.0,0.25,0.0,0.08,0.02,0.83,23.23,11.6,-52.9
0.74,1.25,1.25,0.25,3.25,8.25,4.0,0.5,5.5,1.5,3.5,2.25,1.0,1.5,-0.17,0.08,0.95,514.84,-2.9,3.5,0.0,0.0,0.0,0.0,0.0,0.0,0.0,0.5,0.0,0.0,0.0,0.25,0.0,0.02,-0.11,0.83,15.32,8.2,-62.4
0.76,0.75,0.0,0.0,3.0,8.25,4.0,0.5,6.0,1.75,3.75,2.5,1.75,1.75,-0.17,0.08,0.89,450.22,-4.3,-7.3,0.25,0.0,0.0,0.0,1.5,0.0,1.0,1.75,0.25,0.0,0.25,0.25,0.0,-0.11,-0.3,0.7,34.33,0.7,1.2
0.78,0.25,0.0,1.25,3.25,7.75,3.75,0.5,6.0,1.75,5.0,3.25,1.75,1.75,-0.23,0.08,0.95,415.36,-3.2,-10.7,0.0,0.0,0.0,0.0,0.0,0.0,0.25,1.5,0.25,0.0,0.25,0.25,0.0,-0.3,-0.61,0.52,37.45,5.7,-46.6
0.8,0.0,1.0,1.5,2.75,8.0,4.25,0.75,6.5,2.25,6.0,4.0,2.25,3.0,-0.23,0.02,0.95,439.09,-3.3,-15.4,0.0,0.0,0.0,0.0,0.0,0.0,0.0,0.5,0.0,0.0,0.0,0.0,0.0,-0.23,-1.11,0.33,31.56,16.7,-38.7
0.82,0.0,0.0,1.5,2.75,7.5,4.25,0.5,7.0,1.75,6.25,5.0,3.0,3.75,-0.23,0.02,0.95,471.78,-3.9,-24.0,1.5,0.75,0.25,1.25,3.5,0.25,0.75,0.0,0.25,0.0,0.0,0.25,0.0,0.64,-4.3,3.58,70.2,-10.0,56.6
0.84,0.0,0.0,0.0,2.5,7.5,4.25,0.75,7.25,1.75,7.0,5.75,3.75,4.25,-0.23,0.02,0.95,529.27,-5.3,-31.4,1.75,2.25,2.0,3.25,4.5,0.0,0.0,0.0,0.0,0.0,0.0,0.0,0.0,1.02,0.27,0.52,140.14,-14.1,67.7
0.86,0.0,1.25,0.0,2.5,0.0,4.25,0.25,7.25,2.25,7.0,6.0,4.0,5.5,-0.23,0.02,0.95,557.5,-5.2,-49.4,3.25,2.5,4.0,6.0,6.25,0.25,0.75,1.75,0.0,0.0,0.5,0.25,0.0,-0.17,1.52,4.83,249.56,-13.8,54.7
0.88,0.0,1.25,0.0,2.5,0.0,4.0,0.25,7.5,2.25,7.25,6.0,4.0,5.75,-0.23,0.02,0.95,576.02,-5.3,-50.3,6.5,5.0,7.5,9.5,7.75,2.5,0.0,1.75,0.0,0.0,0.0,0.5,0.0,-0.05,0.39,2.27,417.64,-14.9,60.9
0.9,0.0,1.0,0.0,0.25,0.0,3.5,0.25,7.5,1.75,7.25,6.0,4.0,6.25,-0.23,0.02,0.95,565.92,-7.0,-60.2,7.0,5.75,9.0,11.0,8.0,3.75,0.0,2.0,0.0,0.0,0.0,0.25,0.0,-0.36,0.02,1.52,648.86,-14.7,61.4
0.92,0.0,1.0,0.0,0.25,0.0,3.5,0.5,7.25,1.75,7.0,6.0,4.0,6.25,-0.23,0.02,0.95,558.91,-6.7,-60.0,7.5,4.75,11.0,10.5,10.5,4.75,0.0,3.25,0.0,0.0,0.25,0.25,0.25,0.2,0.33,1.39,882.74,-13.3,56.5
0.94,0.0,1.0,0.0,0.5,0.0,3.5,0.25,7.25,1.5,7.0,5.75,4.0,6.25,-0.23,0.02,0.95,548.11,-6.9,-59.5,8.25,6.25,12.5,13.0,10.5,6.0,0.5,3.75,0.0,0.5,0.25,0.75,0.25,0.14,0.2,1.27,1122.55,-13.2,54.5
0.96,0.0,1.0,0.0,1.0,0.0,3.0,0.25,7.0,0.75,7.0,5.5,4.0,6.25,-0.23,0.02,0.95,532.39,-6.8,-59.4,8.25,5.0,12.5,12.0,12.0,6.25,1.0,4.5,0.25,0.0,0.75,0.75,0.25,0.14,0.2,1.45,1301.02,-12.5,52.0
0.98,0.0,0.0,0.0,0.5,0.0,2.75,0.25,7.0,0.0,7.0,5.0,3.75,6.25,-0.23,0.08,0.95,502.23,-8.5,-67.0,8.75,5.75,12.5,14.5,12.0,7.0,1.75,4.5,0.25,1.0,0.75,0.75,0.75,0.14,0.2,1.14,1417.71,-12.0,49.8
1.0,0.0,0.25,0.0,0.25,0.0,2.25,0.25,6.75,0.5,7.0,4.75,4.0,6.25,-0.23,0.08,0.95,473.61,-8.0,-68.2,8.75,5.75,12.5,13.5,12.0,6.75,2.25,5.5,0.25,1.0,1.0,0.75,0.25,0.14,0.14,1.08,1482.15,-11.9,49.1
1.02,0.0,0.0,0.5,0.25,0.0,1.5,0.0,6.75,0.5,7.0,4.75,3.5,6.25,-0.23,0.08,1.02,443.73,-7.5,-69.5,8.75,5.75,12.5,13.0,11.5,6.25,2.25,5.25,0.5,1.25,1.0,0.75,0.25,0.14,0.14,1.02,1510.12,-12.2,48.7
1.04,1.0,0.0,0.0,0.0,0.0,0.75,0.0,6.5,0.0,7.0,4.25,3.5,6.5,-0.3,0.08,1.02,416.08,-7.4,-71.1,8.5,5.5,12.0,13.0,11.5,6.0,1.75,4.5,0.25,1.25,1.0,0.75,0.25,0.14,0.14,1.02,1479.61,-12.3,49.6
1.06,0.5,0.0,0.0,0.25,0.0,0.0,0.0,6.25,0.0,0.0,3.5,0.0,6.25,-0.3,0.08,1.14,337.86,-8.0,-68.1,8.25,5.25,11.5,11.5,10.5,5.75,1.0,4.5,0.25,0.0,0.5,0.75,0.0,0.14,0.2,0.95,1392.02,-12.9,53.3
1.08,0.0,0.0,0.5,0.0,0.0,0.0,0.0,5.5,0.0,5.0,3.25,0.0,0.0,-0.36,0.2,1.52,267.04,-8.2,-56.2,7.5,4.0,11.0,1.0,9.75,4.75,1.0,4.0,0.25,0.25,0.5,0.5,0.25,0.14,0.2,0.95,1167.01,-12.3,50.8
1.1,0.0,0.25,0.0,0.25,0.0,0.0,0.0,4.25,0.75,3.5,2.0,0.0,5.5,-0.42,0.2,1.58,220.79,-10.0,-71.3,8.0,4.25,10.5,9.0,8.25,4.0,0.75,3.25,0.25,0.0,0.25,0.75,0.0,0.08,0.2,0.83,984.34,-14.8,55.3
1.12,0.75,0.0,0.0,0.0,0.0,0.0,0.0,3.5,0.5,3.0,3.75,1.25,0.0,-0.48,0.2,1.45,175.18,-1.9,-57.5,7.5,3.75,9.25,8.0,8.0,3.75,1.0,3.25,0.5,0.0,0.5,0.5,0.0,0.08,0.2,0.77,823.87,-14.2,54.0
1.14,0.0,0.0,0.0,0.0,0.0,0.0,0.0,3.5,0.0,0.0,1.75,0.0,0.0,-0.42,0.14,1.2,112.93,-7.7,-50.7,7.5,4.0,10.5,9.5,9.0,3.75,0.5,3.25,0.25,0.25,0.5,0.5,0.25,0.08,0.27,0.77,778.67,-14.1,53.6
1.16,0.75,0.5,0.0,0.25,0.0,0.0,0.0,0.0,0.0,2.0,0.0,0.75,0.0,-0.42,0.2,1.08,53.99,2.5,-23.2,7.5,4.0,9.5,7.75,9.0,3.75,0.75,3.25,0.25,0.5,0.5,0.75,0.25,0.08,0.2,0.77,737.46,-13.4,51.7
1.18,1.25,0.5,0.0,0.5,0.0,0.0,0.0,3.0,0.0,2.0,0.25,0.75,0.0,-0.05,2.89,0.64,28.37,-1.9,-20.9,7.0,2.75,10.0,8.75,9.0,4.5,1.0,3.25,0.25,0.75,0.5,0.75,0.25,0.08,0.2,0.83,733.44,-12.9,49.3
1.2,3.75,0.25,0.0,1.75,0.0,0.0,0.0,4.0,3.0,2.5,0.0,0.0,0.0,0.52,2.27,1.14,61.63,5.7,1.0,6.75,3.0,9.25,9.5,8.75,5.0,1.0,4.25,0.5,1.25,0.75,0.75,0.25,0.14,0.2,0.89,739.62,-11.4,45.3
1.22,1.25,0.0,0.0,0.5,0.0,0.0,0.0,1.75,0.0,1.75,0.5,0.75,0.0,0.64,1.33,1.2,63.43,0.7,-27.0,6.5,4.0,9.75,9.25,8.25,5.75,1.25,4.5,1.0,1.75,1.5,1.0,0.25,0.14,0.14,0.95,776.73,-10.9,41.4
1.24,1.25,0.0,0.0,0.0,0.0,0.0,0.0,1.75,0.0,1.0,0.5,0.0,0.0,-0.11,1.2,0.95,58.56,0.2,-14.9,6.0,3.5,9.25,9.0,9.0,6.0,2.0,5.5,1.5,4.0,2.5,1.75,0.5,0.14,0.14,0.95,855.47,-8.7,29.6
1.26,0.5,0.0,0.0,0.0,0.0,0.0,0.0,1.75,0.0,2.0,0.25,1.0,0.5,-0.36,1.02,0.77,50.6,-6.7,-59.8,5.75,3.0,9.25,7.75,9.0,6.25,2.25,6.75,2.25,5.75,3.75,3.0,1.25,0.2,0.14,0.95,962.57,-7.0,17.3
1.28,2.5,0.75,0.0,1.0,0.0,0.0,1.5,4.0,1.0,2.0,1.0,1.0,0.25,-0.11,0.83,0.83,93.13,4.4,-12.0,5.0,2.25,8.5,7.75,9.0,6.25,2.25,7.75,3.0,7.0,5.75,3.25,2.5,0.2,0.14,0.95,1081.73,-5.4,6.7
1.3,2.25,0.75,0.0,0.75,0.0,0.0,1.0,3.75,0.0,2.0,1.0,1.0,0.75,0.02,0.7,1.08,131.76,2.1,-17.6,4.5,2.5,7.5,6.5,9.0,6.25,2.25,8.25,3.0,7.5,7.25,4.25,4.0,0.2,0.14,0.95,1187.96,-4.0,-1.7
1.32,1.5,0.0,1.5,0.5,0.0,0.0,1.0,2.25,0.0,1.0,0.75,0.25,0.75,-0.05,0.64,1.2,148.39,8.7,-6.1,4.5,2.5,7.5,6.0,8.75,6.0,2.25,8.5,3.0,8.0,7.25,4.5,4.75,0.2,0.14,0.95,1264.35,-3.6,-4.6
1.34,0.75,0.25,0.0,0.5,0.0,0.0,0.25,2.0,0.0,1.5,0.0,0.25,0.75,-0.05,0.7,0.95,134.55,-4.0,-28.6,3.0,2.0,6.5,5.0,8.0,5.75,2.0,8.5,3.0,8.0,7.75,5.25,5.5,0.2,0.08,0.95,1255.51,-2.3,-12.9
1.36,0.5,0.0,0.0,0.25,0.0,0.0,0.0,1.25,0.0,1.0,1.0,0.0,0.5,-0.17,0.64,1.2,110.95,-2.7,-43.2,2.75,1.5,5.0,3.75,7.25,4.75,1.75,8.5,3.0,8.0,7.75,5.5,5.75,0.14,0.08,0.95,1192.79,-1.3,-19.8
1.38,0.25,0.0,0.5,0.0,0.0,0.0,0.0,0.75,0.0,1.75,0.0,0.25,0.0,-0.23,0.52,1.27,81.88,-2.8,-38.4,3.0,1.5,4.75,3.0,6.25,4.75,1.5,8.25,2.5,8.0,7.75,4.5,6.0,0.14,0.08,0.95,1092.71,-0.9,-20.8
1.4,0.0,0.0,0.75,0.0,0.0,0.0,0.25,1.75,0.0,0.75,0.75,0.25,0.5,-0.17,0.45,1.2,66.09,-0.9,-43.6,1.25,0.75,2.75,2.0,6.25,3.75,1.5,7.5,2.25,8.25,7.25,5.5,5.5,0.14,0.08,0.95,963.95,1.2,-31.9
1.42,1.25,0.0,0.5,0.0,0.0,0.0,0.25,1.75,0.0,0.25,0.0,0.0,0.5,-0.36,0.39,1.2,55.69,5.5,1.3,1.0,0.5,2.0,1.5,6.25,2.0,1.0,7.5,2.5,8.5,7.5,5.5,5.75,0.14,0.08,0.95,850.75,1.7,-38.6
1.44,0.0,0.0,0.0,0.0,0.0,0.0,0.0,0.75,0.0,0.25,0.0,0.0,0.0,-0.36,0.2,1.33,35.72,-16.5,-47.9,1.75,0.75,0.5,0.0,3.5,3.75,1.0,7.25,2.0,8.0,7.75,5.5,6.75,0.14,0.08,0.95,751.49,3.7,-47.2
1.46,1.25,0.0,0.5,0.25,0.0,0.0,0.25,1.75,0.0,0.75,0.0,0.25,0.5,-0.42,0.14,1.27,47.18,4.3,-8.3,2.0,1.0,1.75,0.25,5.25,2.5,1.5,7.25,2.25,8.0,8.0,6.0,6.75,0.08,0.08,0.95,710.26,1.4,-40.9
1.48,1.25,0.0,1.0,0.25,0.0,0.0,0.0,1.75,0.0,0.0,0.75,0.0,0.5,-0.55,0.08,1.2,51.96,10.3,2.3,0.25,0.0,0.5,0.0,3.5,1.25,0.75,7.5,1.5,8.5,9.0,6.5,7.5,0.08,0.08,0.95,671.38,4.2,-61.7
1.5,1.25,0.0,0.0,0.25,0.0,0.0,0.0,1.75,0.0,1.0,0.5,0.25,0.5,-0.55,-0.11,1.27,58.71,0.1,-24.7,0.25,0.0,0.0,0.0,3.25,0.5,0.25,6.5,1.5,8.5,8.5,6.75,8.0,0.08,0.08,0.95,643.86,4.5,-67.1
1.52,1.25,0.0,0.5,0.25,0.0,0.0,0.0,1.75,0.0,1.0,0.0,0.5,0.5,-0.55,-0.11,1.08,64.27,3.0,-16.4,1.5,1.0,0.0,0.0,3.25,0.25,0.5,6.5,1.25,8.5,8.75,6.75,8.25,0.02,0.08,1.02,631.96,3.0,-60.0
1.54,1.25,0.0,1.0,0.25,0.0,0.0,0.0,1.75,0.0,1.0,0.75,0.25,0.5,-0.67,-0.05,0.95,81.95,6.3,-13.4,0.25,0.0,0.0,0.0,3.0,1.25,0.75,5.5,1.0,8.0,8.75,6.75,8.0,0.02,0.08,1.08,615.39,4.3,-66.7
1.56,1.25,0.0,1.0,0.25,0.0,0.0,0.0,1.75,0.0,1.0,0.25,0.25,0.5,-0.55,0.02,0.83,91.8,6.0,-8.5,0.25,0.0,0.25,0.0,1.75,0.0,0.0,4.25,0.25,8.0,8.0,6.25,8.0,0.08,0.14,1.2,576.76,4.2,-75.3
1.58,1.25,0.0,0.75,0.25,0.0,0.0,0.0,1.75,0.0,1.0,0.5,0.25,0.5,-0.48,0.02,0.64,98.03,4.8,-14.0,0.25,0.0,0.0,0.0,0.5,0.0,0.0,2.0,0.25,5.75,6.5,5.75,7.5,0.02,0.2,1.52,497.34,3.5,-84.7
1.6,1.25,0.0,0.75,0.25,0.0,0.0,0.0,1.75,0.0,0.25,0.75,0.0,0.5,-0.48,-0.05,0.64,97.45,7.7,-3.9,1.5,0.75,0.5,0.5,3.75,0.0,0.5,1.75,0.0,4.25,5.75,5.0,7.75,0.14,0.27,1.39,441.83,0.6,-53.1
1.62,0.25,0.0,0.0,0.0,0.0,0.0,0.0,0.5,0.0,0.25,0.0,0.0,0.25,-0.42,-0.23,0.95,72.87,-6.1,-35.2,0.0,0.0,0.0,0.0,0.0,0.0,0.0,1.0,0.0,3.0,3.25,3.25,5.5,0.14,0.2,1.64,332.51,4.9,-92.2
1.64,0.0,0.0,0.0,0.0,0.0,0.0,0.0,1.0,0.0,0.75,0.0,0.0,0.0,-0.36,-0.23,0.7,50.79,-16.3,-54.5,0.0,0.0,0.0,0.0,0.0,0.0,0.0,0.5,0.0,0.25,2.75,1.75,3.75,0.14,0.27,1.52,237.3,2.3,-94.8
1.66,0.0,0.0,0.0,0.0,0.0,0.0,0.0,1.75,0.0,0.25,0.75,0.0,0.5,-0.3,-0.23,0.14,41.75,-10.0,-61.1,0.0,0.0,0.0,0.0,0.0,0.0,0.0,0.75,0.0,0.0,0.75,1.0,1.5,0.2,0.7,1.08,118.16,4.2,-90.3
1.68,3.25,0.5,0.0,0.0,0.0,0.0,0.0,0.75,1.75,1.0,0.5,0.5,0.25,-0.11,-0.42,0.39,68.36,13.5,6.9,0.5,0.0,0.0,0.0,0.0,0.0,0.0,0.75,0.0,0.0,0.5,0.75,1.0,-0.36,2.95,-0.36,19.24,-0.4,-61.8
1.7,3.0,0.25,0.0,2.0,0.0,0.0,2.0,4.5,1.0,1.5,2.25,0.0,1.0,-2.61,-3.55,3.64,130.26,5.5,-9.5,0.0,0.0,0.0,0.0,0.0,0.0,0.0,0.5,0.0,0.0,0.25,0.75,0.25,-0.86,2.02,0.89,0.0,1.5,-84.7
1.72,3.0,1.25,4.0,4.0,0.0,0.0,0.0,1.25,0.75,2.0,0.75,0.75,0.0,-0.11,1.02,1.83,198.34,17.6,29.7,0.0,0.0,0.0,0.0,0.0,0.0,0.0,0.25,0.0,0.0,0.25,0.25,0.0,-0.36,1.39,0.64,0.0,-0.8,-74.6
1.74,6.75,2.75,6.5,8.75,0.0,0.0,0.0,1.75,0.0,1.75,1.0,0.25,0.5,-0.3,0.2,1.52,297.48,20.4,48.9,0.0,0.0,0.0,0.0,0.0,0.0,0.0,0.25,0.0,0.0,0.25,0.25,0.0,-0.11,0.95,0.7,0.0,-0.8,-74.6
1.76,7.75,3.5,7.75,9.0,0.0,0.0,1.0,4.0,0.75,1.75,0.0,1.0,0.75,-0.3,0.08,1.58,421.36,18.7,43.2,0.0,0.0,0.0,0.0,0.0,0.0,0.0,0.25,0.0,0.0,0.25,0.25,0.0,-0.23,0.58,1.02,0.0,-0.8,-74.6
1.78,7.75,3.0,7.5,9.25,8.5,2.0,1.5,3.75,2.75,3.5,2.0,1.75,0.75,-0.23,0.08,1.95,655.92,11.7,31.5,0.0,0.0,0.0,0.0,0.0,0.0,0.0,0.0,0.0,0.0,0.25,0.25,0.0,-0.17,0.45,1.08,0.0,-9.8,-92.9
1.8,7.75,2.75,8.5,9.0,8.5,2.0,2.5,5.5,4.0,3.75,4.0,2.0,1.75,-0.17,-0.05,1.14,901.98,10.9,21.5,0.0,0.0,0.0,0.0,0.0,0.0,0.0,1.75,0.0,0.0,1.5,0.25,1.0,-0.17,0.39,1.2,0.0,5.7,-70.9
1.82,7.75,2.75,8.25,9.0,8.25,1.75,2.5,5.5,4.0,3.75,4.25,2.0,1.75,-0.11,0.02,1.08,1105.44,11.0,20.7,0.0,0.0,0.0,0.0,0.0,0.0,0.0,0.0,0.0,0.0,0.25,0.25,0.0,-0.11,0.39,1.08,0.0,-9.8,-92.9
1.84,7.75,2.75,8.5,8.5,8.0,1.75,2.25,5.25,3.5,3.5,3.75,1.75,1.75,-0.11,0.02,0.95,1202.12,11.3,22.9,0.0,0.0,0.0,0.0,0.0,0.0,0.0,0.0,0.0,0.0,0.25,0.25,0.0,-0.17,0.33,1.14,0.0,-9.8,-92.9
1.86,7.5,2.5,8.25,8.25,7.5,1.5,1.75,4.75,3.25,3.5,3.25,1.75,1.75,-0.11,0.08,0.95,1204.26,11.5,23.2,0.0,0.0,0.0,0.0,0.0,0.0,0.0,0.0,0.0,0.0,0.25,0.25,0.0,-0.17,0.14,1.52,0.0,-9.8,-92.9
1.88,7.25,2.5,8.25,8.0,7.75,1.5,1.75,4.75,2.75,3.5,3.25,1.75,1.5,-0.11,0.08,0.89,1152.44,11.4,24.0,0.0,0.0,0.0,0.0,0.0,0.0,0.0,0.0,0.0,0.0,0.25,0.25,0.25,-0.11,0.14,1.2,0.5,-1.7,-98.7
1.9,7.0,2.5,8.25,7.75,7.5,1.5,1.5,4.75,3.25,3.5,3.25,1.75,1.75,-0.11,0.08,0.89,1089.66,11.2,22.2,0.0,0.0,0.0,0.0,0.0,0.0,0.0,0.0,0.25,0.5,0.25,1.0,0.25,-0.11,0.08,1.14,14.36,-1.3,-90.6
1.92,6.5,2.25,7.75,6.5,7.5,1.5,1.5,4.75,3.25,3.75,3.75,2.0,1.75,-0.11,0.08,0.95,1022.27,10.5,17.9,1.0,0.75,0.0,0.0,0.0,0.0,0.0,0.0,0.25,0.5,0.25,1.0,0.0,-0.05,-0.3,1.33,33.77,-13.2,-1.8
1.94,5.75,1.25,7.0,6.5,6.5,1.5,1.5,5.0,3.5,4.5,4.25,2.0,1.75,-0.11,0.08,0.95,942.98,9.5,11.0,0.25,0.0,0.0,0.0,2.25,0.0,0.25,1.5,0.0,0.0,1.25,0.25,1.0,0.02,-0.61,3.89,67.03,2.9,-17.9
1.96,4.5,1.25,6.0,4.75,6.0,0.75,1.5,5.5,3.5,5.0,5.0,3.0,2.75,-0.11,0.02,0.95,855.31,7.6,-2.1,1.0,0.0,0.0,0.0,0.0,0.0,0.0,0.25,0.0,0.5,0.25,1.75,1.25,0.58,-6.48,4.27,82.98,-4.2,-61.9
1.98,3.25,1.25,0.0,4.25,4.75,1.5,1.5,5.5,3.5,5.25,5.5,3.0,3.0,-0.11,0.02,0.95,717.34,1.9,-18.2,0.0,0.0,0.0,0.0,1.75,0.0,0.5,0.0,0.0,1.5,1.0,2.0,2.0,0.45,-2.67,-1.23,112.97,2.5,-58.7
2.0,3.0,1.25,4.0,2.5,5.75,1.25,1.0,5.75,3.5,6.0,6.0,4.0,4.25,-0.11,0.08,0.95,652.2,3.5,-19.6,0.75,0.75,0.0,0.0,1.5,0.0,0.5,0.0,0.0,0.0,1.5,0.75,2.25,1.27,-1.55,4.52,124.35,-3.3,-25.2
2.02,3.0,1.0,2.25,1.75,0.0,0.75,1.0,6.0,3.5,6.25,6.5,4.75,4.5,-0.17,0.02,0.95,567.19,2.9,-41.4,0.0,0.0,0.0,0.0,1.75,0.0,0.0,0.0,0.25,1.75,1.5,2.25,1.75,1.33,5.14,-2.11,144.85,2.1,-61.6
2.04,3.0,1.25,1.25,2.5,0.0,0.75,1.0,6.0,3.25,7.0,7.0,5.0,5.5,-0.17,0.02,0.95,548.7,1.7,-44.2,0.75,0.5,0.0,0.0,0.0,0.0,0.0,0.75,0.25,1.25,2.75,2.5,4.0,0.08,0.52,4.14,172.34,0.2,-73.8
2.06,2.75,1.0,0.0,2.5,0.0,0.75,1.0,6.0,3.25,7.0,7.25,5.5,6.25,-0.17,0.02,0.95,542.47,0.2,-51.2,0.75,0.5,0.0,0.0,0.0,0.0,0.5,0.5,0.5,3.75,3.5,4.0,4.0,-0.8,-0.48,-0.42,223.65,0.3,-75.8
2.08,2.0,1.0,1.75,2.5,0.0,0.0,0.75,6.0,3.25,7.5,7.5,5.75,6.75,-0.17,0.02,0.95,568.18,1.3,-52.0,2.0,0.0,0.0,0.0,0.0,0.25,0.5,0.0,0.5,5.25,4.0,5.5,1.75,0.89,0.08,0.52,263.43,-2.9,-68.0
2.1,0.5,1.0,0.0,1.0,0.0,0.0,0.25,6.0,2.25,8.0,7.5,6.25,7.0,-0.17,0.02,0.95,568.19,-2.8,-69.0,0.0,0.0,0.0,0.0,2.25,0.0,0.25,0.0,0.5,6.25,3.75,6.75,6.25,0.2,-0.05,1.02,325.7,3.2,-78.7
2.12,0.0,0.5,0.0,1.0,0.0,0.75,0.25,6.0,1.75,7.75,7.5,5.75,7.5,-0.17,0.08,1.02,566.22,-4.2,-71.8,1.0,0.5,0.0,0.0,1.0,0.0,0.5,0.0,0.25,7.0,6.75,7.5,8.25,-0.23,-0.11,1.02,411.29,1.3,-78.9
2.14,0.0,0.0,0.0,0.5,0.0,0.5,0.0,5.75,1.75,6.75,7.0,5.75,7.5,-0.17,0.02,1.08,543.04,-4.6,-77.3,1.0,0.75,0.0,0.0,1.25,0.0,0.5,0.0,0.25,6.25,6.75,7.25,8.75,0.14,-0.05,1.45,492.22,1.1,-76.7
2.16,0.0,0.5,0.0,0.25,0.0,0.0,0.0,5.0,1.0,6.25,6.75,5.5,6.75,-0.23,0.08,1.2,504.42,-4.2,-78.0,1.0,0.75,0.5,0.0,1.0,0.0,0.25,0.0,0.25,6.25,5.75,7.0,8.5,-0.3,-0.17,0.7,535.69,0.9,-75.5
2.18,0.0,0.0,0.0,0.0,0.0,0.0,0.0,4.0,0.75,6.0,5.5,5.5,6.75,-0.3,0.08,1.08,455.09,-4.9,-84.3,1.0,0.75,0.0,0.0,1.5,0.0,0.25,0.0,0.25,6.0,5.75,7.25,8.5,0.08,-0.17,0.77,550.65,1.4,-75.7
2.2,0.0,0.0,0.0,0.0,0.0,0.0,0.0,3.5,0.75,5.0,5.0,4.75,6.5,-0.3,0.08,1.02,401.69,-4.9,-84.7,1.0,0.5,0.0,0.0,1.25,0.0,0.5,0.0,0.25,6.25,5.75,7.5,8.5,-0.23,-0.11,0.95,550.02,1.4,-78.2
2.22,1.25,0.5,0.0,0.0,0.0,0.0,0.0,2.0,0.0,3.75,4.0,3.75,6.25,-0.36,0.14,1.33,346.18,-2.7,-74.7,1.0,0.5,0.0,0.5,1.5,0.0,0.5,0.0,0.25,6.5,6.5,8.5,9.25,0.08,-0.3,0.33,562.17,1.0,-76.6
2.24,0.25,0.0,0.0,0.0,0.0,0.0,0.0,0.0,0.0,2.75,2.5,2.0,4.75,-0.42,0.08,1.58,265.31,-4.7,-91.4,1.25,0.75,0.5,0.0,1.0,0.0,0.25,0.0,0.25,6.75,7.0,8.25,9.5,-0.05,0.02,1.77,580.14,0.5,-76.6
2.26,0.0,0.0,0.0,0.0,0.0,0.0,0.0,1.75,0.0,1.75,1.75,1.25,3.0,-0.3,0.02,1.02,192.72,-7.3,-84.4,1.0,0.5,0.0,0.0,1.25,0.0,0.25,0.0,0.25,7.0,7.25,8.75,9.75,-0.23,-0.23,0.39,596.83,1.4,-80.6
2.28,0.0,0.0,0.0,0.0,0.0,0.0,0.0,0.5,0.0,1.75,1.0,0.0,0.5,-0.42,0.89,0.33,92.92,-8.7,-75.3,1.0,0.75,0.0,0.0,1.25,0.0,0.25,0.0,0.25,7.0,7.25,9.25,10.5,0.2,-0.23,0.89,609.46,1.4,-80.3
2.3,0.5,0.0,0.0,0.0,0.0,0.0,0.0,1.0,0.0,1.25,0.0,0.0,1.0,-0.36,2.27,1.52,17.66,-9.1,-53.5,0.5,0.5,0.0,0.0,1.5,0.0,0.25,0.0,0.25,7.0,7.25,9.25,10.5,-0.23,-0.17,0.95,612.83,2.0,-82.8
2.32,0.75,0.0,0.0,0.0,0.0,0.0,0.0,1.25,0.0,1.25,0.0,0.0,0.5,0.14,1.27,2.02,0.0,-6.2,-35.2,1.0,0.5,0.0,0.0,1.25,0.0,0.25,0.0,0.25,7.25,7.25,9.25,11.0,-0.05,-0.23,0.64,616.63,1.8,-81.9
2.34,1.0,0.0,0.0,0.0,0.0,0.0,0.0,1.0,0.0,1.25,0.0,0.0,0.25,0.02,1.08,0.89,0.0,-2.1,-20.3,1.25,0.5,0.0,0.0,1.5,0.0,0.0,0.0,0.25,7.5,7.25,10.0,11.5,-0.05,-0.17,1.14,625.15,1.7,-81.0
2.36,0.5,0.0,0.0,0.0,0.0,0.0,0.0,1.0,0.0,1.0,0.0,0.0,0.5,0.58,0.52,0.52,0.0,-7.7,-41.9,1.25,0.25,0.0,0.0,2.25,0.0,0.0,0.0,0.25,7.75,7.5,10.5,12.0,0.02,-0.17,0.95,651.4,1.9,-80.0
2.38,0.5,0.0,0.0,0.0,0.0,0.0,0.0,1.0,0.0,1.75,0.5,0.0,0.5,0.52,-0.17,0.2,0.0,-7.0,-51.8,0.5,0.5,0.0,0.0,1.75,0.25,0.0,0.0,0.25,7.5,7.75,10.5,12.5,0.14,-0.17,1.08,678.57,2.5,-83.4
2.4,1.0,0.0,0.0,0.0,0.0,0.0,0.0,0.75,0.0,1.0,0.75,0.75,1.0,0.02,-2.73,0.39,0.0,0.9,-50.7,1.0,0.0,0.0,0.0,1.25,1.25,0.0,0.0,0.25,7.75,7.75,10.5,12.5,0.14,-0.23,1.14,701.26,2.8,-82.9
2.42,0.75,0.0,0.0,0.0,0.0,0.0,0.0,0.5,0.0,1.0,1.0,0.0,0.5,-0.55,-5.05,-0.8,1.8,1.0,-42.3,0.75,0.0,0.0,0.0,2.25,0.0,0.25,0.0,0.25,7.5,7.75,10.5,12.5,-0.05,-0.23,1.27,707.75,2.3,-83.1
2.44,0.0,0.0,0.0,0.0,0.0,0.0,0.0,1.25,0.0,4.75,2.25,4.5,5.5,-0.98,-0.05,2.45,108.69,-5.9,-92.0,0.75,0.0,0.0,0.0,2.25,0.0,0.0,0.0,0.25,7.5,7.75,10.5,12.5,-0.05,-0.23,1.14,705.84,2.4,-83.5
2.46,0.0,0.0,0.0,0.0,0.0,0.0,0.0,1.0,0.0,3.5,3.5,3.0,5.5,-3.36,0.27,4.08,185.74,-5.2,-91.2,0.75,0.0,0.0,0.0,2.75,0.0,0.0,0.0,0.25,7.5,7.75,10.5,12.0,-0.05,-0.3,0.83,697.19,2.2,-81.2
2.48,0.0,0.0,0.0,0.0,0.0,0.0,0.0,1.75,0.0,2.75,2.25,0.0,5.0,2.33,0.2,-0.17,226.75,-10.1,-85.0,1.0,0.0,0.0,0.0,2.25,0.0,0.0,0.0,0.25,7.0,7.25,10.5,12.0,0.02,-0.36,0.64,683.46,2.0,-82.3
2.5,0.0,0.0,0.0,0.0,0.0,0.0,0.0,0.75,0.0,3.75,2.5,3.75,6.25,0.7,-0.3,-0.11,258.27,-5.8,-94.3,1.0,0.0,0.0,0.0,1.75,0.0,0.0,0.0,0.25,7.0,7.25,9.5,12.0,0.02,-0.42,0.45,659.53,2.3,-83.6
2.52,0.25,0.0,0.0,0.25,0.0,0.0,0.0,1.0,0.0,5.0,3.25,5.5,6.25,-2.17,0.14,1.27,294.48,-4.0,-89.2,1.25,0.25,0.0,0.0,2.25,0.0,0.0,0.0,0.25,6.25,6.5,8.25,10.5,0.33,-0.55,-0.05,611.61,1.8,-77.2
2.54,0.0,0.0,0.25,0.25,0.0,0.0,0.0,1.75,0.0,6.0,4.75,6.0,7.5,0.02,-0.3,0.64,350.54,-4.2,-88.1,0.75,0.5,0.0,0.0,1.5,0.0,0.0,0.0,0.25,5.75,5.75,7.25,9.5,0.33,-0.42,0.58,544.88,2.2,-79.9
2.56,0.75,0.0,0.5,0.0,0.0,0.0,0.0,1.75,0.0,5.5,5.25,0.0,8.0,0.08,-0.3,1.02,371.99,-5.9,-76.7,0.5,0.25,0.0,0.0,0.25,0.0,0.0,0.0,0.25,4.0,3.75,5.5,8.0,-0.11,-0.48,1.02,435.88,2.9,-88.7
2.58,1.25,0.0,0.0,0.25,0.0,0.0,0.0,1.75,0.0,3.5,4.25,6.25,7.5,-0.55,-0.11,1.33,400.03,-1.8,-82.6,0.5,0.5,0.0,0.0,1.25,0.0,0.0,0.0,0.25,1.5,2.5,3.25,6.0,0.58,-0.73,2.14,322.52,2.0,-72.7
2.6,0.25,0.0,0.0,0.0,0.0,0.0,0.0,1.0,0.0,4.5,4.5,6.0,7.5,-0.3,-0.3,0.7,400.4,-3.5,-92.0,0.5,0.5,0.0,0.0,1.0,0.0,0.0,0.0,0.25,1.25,1.5,2.5,4.5,0.77,-1.23,2.08,232.46,1.9,-68.5
2.62,1.0,0.0,0.0,0.5,0.0,0.0,0.0,1.5,0.0,5.5,5.0,6.25,8.25,-0.42,-0.23,0.58,421.88,-2.8,-83.3,0.5,0.5,0.0,0.0,1.25,0.0,0.0,0.0,0.25,1.25,1.5,2.25,4.0,-0.17,-0.3,1.77,160.5,1.6,-62.8
2.64,0.0,0.0,0.0,0.25,0.0,0.0,0.0,1.75,0.0,5.5,5.0,6.0,8.0,-0.42,-0.36,0.33,428.56,-4.4,-90.1,0.5,0.25,0.0,0.0,1.0,0.0,0.0,0.0,0.0,1.25,1.5,1.75,3.0,0.14,-0.17,1.52,101.87,1.5,-63.8
2.66,0.0,0.0,0.25,0.5,0.0,0.0,0.0,1.75,0.0,5.25,4.0,5.5,8.0,-0.3,-0.42,0.08,427.07,-4.5,-87.4,0.5,0.75,0.0,0.0,1.25,0.0,0.0,0.0,0.25,1.0,1.5,1.75,3.5,0.2,-0.17,1.52,76.26,0.8,-54.2
2.68,0.0,0.0,0.25,0.0,0.0,0.0,0.0,1.75,0.0,5.0,2.75,3.5,7.5,-0.17,0.02,1.89,383.66,-6.9,-89.1,0.5,0.5,0.0,0.0,1.25,0.0,0.0,0.0,0.25,0.5,1.5,2.0,3.0,0.2,-0.23,1.39,62.03,-0.4,-55.6
2.7,1.5,0.25,0.75,0.0,0.0,0.0,0.25,2.25,0.0,3.75,2.75,2.0,6.25,-0.23,-0.3,0.83,344.9,-2.6,-65.3,0.5,0.75,0.0,0.0,0.0,0.0,0.0,0.0,0.0,0.75,1.25,1.75,3.0,0.14,-0.3,1.2,53.52,0.0,-69.2
2.72,0.25,0.0,0.0,0.0,0.0,0.0,0.0,0.5,0.0,1.5,0.75,1.0,3.0,-0.55,-1.11,1.7,258.79,-7.0,-87.0,0.5,0.25,0.0,0.0,0.25,0.0,0.0,0.0,0.25,0.25,1.25,1.75,3.0,0.08,-0.23,1.2,49.22,-0.5,-74.6
2.74,2.5,0.0,0.0,0.0,0.0,0.0,0.0,0.25,0.0,1.75,0.75,0.0,1.5,-0.98,-1.73,2.33,173.75,5.5,-20.8,0.5,0.25,0.0,0.0,0.25,0.0,0.0,0.0,0.25,0.75,1.5,1.75,3.0,0.14,-0.3,1.08,58.1,0.1,-74.7
2.76,0.25,0.0,0.0,0.0,0.0,0.0,3.75,1.0,1.75,0.0,0.25,0.0,0.5,-1.3,-1.73,1.89,91.9,12.0,-19.6,0.75,0.75,0.0,0.0,0.0,0.0,0.0,0.0,0.25,0.5,1.0,1.75,3.0,0.27,-0.36,0.89,70.7,-1.6,-63.0
2.78,0.75,0.25,0.0,0.0,0.0,0.0,2.75,4.0,2.0,2.25,2.25,0.25,1.0,-0.05,-0.8,1.7,89.1,0.2,-41.2,0.5,0.25,0.0,0.0,0.5,0.0,0.0,0.0,0.25,0.25,1.25,1.75,3.0,0.33,-0.42,1.02,86.77,-0.3,-69.9
2.8,0.0,0.0,0.5,0.0,0.0,0.0,2.75,3.5,0.0,1.25,2.0,0.0,0.75,-0.73,-0.36,1.27,85.4,-0.6,-42.3,0.5,0.25,0.0,0.0,0.5,0.0,0.0,0.0,0.0,0.25,0.75,1.75,3.0,0.39,-0.55,1.14,99.09,0.7,-70.6
2.82,0.75,0.0,0.0,0.0,0.0,0.0,0.25,1.0,0.0,0.5,0.5,0.0,0.25,-0.98,-0.05,1.2,59.68,1.7,-22.7,0.5,0.0,0.0,0.0,0.25,0.0,0.0,0.0,0.0,0.0,0.75,1.5,3.0,0.39,-0.67,1.14,101.47,0.9,-81.9
2.84,0.5,0.0,0.0,0.0,0.0,0.0,0.0,0.0,0.0,0.5,0.0,0.0,0.0,-0.67,0.02,1.27,14.05,8.7,8.1,0.5,0.25,0.0,0.0,0.0,0.0,0.0,0.0,0.0,0.5,0.75,1.5,3.0,0.39,-0.86,0.95,100.92,1.4,-80.3
2.86,0.75,0.0,0.0,0.0,0.0,0.0,0.0,0.25,0.0,0.5,0.25,0.0,0.0,-0.73,0.14,1.27,0.0,8.9,1.6,0.5,0.0,0.0,0.0,2.5,0.0,0.25,0.0,0.0,0.0,1.25,1.5,3.0,0.39,-0.92,0.77,110.3,0.5,-42.1
2.88,0.75,0.0,0.0,0.0,0.0,0.0,0.0,0.25,0.0,0.75,0.25,0.0,0.0,-0.92,0.14,0.95,0.0,5.7,-8.2,0.5,0.0,0.0,0.0,0.25,0.0,0.0,0.0,0.0,0.0,0.5,1.75,3.0,0.33,-0.92,1.08,109.13,1.0,-83.3
2.9,1.0,0.0,0.0,0.0,0.0,0.0,0.0,0.25,0.0,0.25,0.0,0.0,0.0,-0.8,0.02,0.95,0.0,17.1,43.8,0.25,0.0,0.0,0.0,0.5,0.0,0.25,0.0,0.25,0.25,0.5,1.5,3.0,0.33,-0.86,1.14,108.8,2.2,-78.7
2.92,0.5,0.0,0.0,0.0,0.0,0.0,0.0,0.0,0.0,0.5,0.25,0.0,0.0,-0.73,-0.05,1.02,0.0,9.1,-8.5,0.5,0.0,0.0,0.0,0.5,0.0,0.0,0.0,0.0,0.0,0.5,1.75,3.0,0.27,-0.73,1.02,105.82,1.1,-77.1
2.94,1.75,0.0,0.25,0.25,0.0,0.0,0.0,1.5,0.75,1.75,1.5,0.0,1.0,-0.8,-0.3,0.89,29.36,3.4,-29.0,0.5,0.0,0.0,0.0,1.0,0.0,0.25,0.0,0.0,0.0,0.5,1.75,2.75,0.08,-0.61,0.89,105.89,0.2,-62.9
2.96,1.25,0.0,0.5,0.25,0.0,0.0,0.0,1.75,0.75,1.75,0.25,0.0,0.5,-0.86,-0.48,0.77,65.56,1.8,-20.5,0.5,0.0,0.0,0.0,0.25,0.0,0.25,0.0,0.0,0.0,0.75,1.5,2.75,-0.05,-0.3,0.95,101.23,-0.2,-78.5
2.98,0.5,0.0,0.0,0.0,0.0,0.0,0.25,1.25,0.0,0.25,0.75,0.0,0.0,-0.86,-0.48,0.89,68.51,1.1,-26.0,0.25,0.25,0.0,0.0,1.0,0.0,0.25,0.0,0.0,0.0,0.5,1.75,3.0,-0.05,-0.05,0.7,104.39,1.4,-64.0
3.0,0.5,0.0,0.0,0.0,0.0,0.0,0.0,0.25,0.0,0.25,0.25,0.0,0.5,-0.98,-0.48,1.02,52.56,2.1,-33.4,0.5,0.25,0.0,0.0,0.0,0.0,0.25,0.0,0.25,0.0,0.5,1.5,3.0,-0.05,0.14,0.45,103.79,-0.4,-77.1
3.02,0.5,0.0,0.0,0.0,0.0,0.0,0.0,0.25,0.0,0.25,0.0,0.0,0.0,-1.05,-0.48,1.02,29.76,8.4,17.7,0.5,0.25,0.25,0.0,0.25,0.0,0.0,0.0,0.0,0.0,0.25,1.75,2.75,-0.11,0.08,0.08,102.53,-1.2,-68.7
3.04,0.75,0.0,0.0,0.0,0.0,0.0,0.0,0.0,0.0,0.25,0.25,0.0,0.25,-0.92,-0.61,0.83,22.76,13.5,2.1,0.5,0.0,0.0,0.0,0.25,0.0,0.0,0.0,0.0,0.0,0.5,1.75,3.0,-0.11,0.08,0.02,101.69,1.0,-83.3
3.06,0.5,0.0,0.0,0.0,0.0,0.0,0.0,0.0,0.0,0.25,0.0,0.0,0.0,-0.8,-0.61,0.83,17.94,17.3,37.3,0.75,0.0,0.0,0.0,0.25,0.0,0.0,0.0,0.0,0.25,0.5,1.75,2.5,-0.11,0.02,-0.11,100.5,-0.8,-73.7
3.08,0.5,0.0,0.0,0.0,0.0,0.0,0.0,0.25,1.0,1.75,0.25,0.0,0.25,-0.67,-0.48,1.14,33.06,-1.0,-45.7,0.5,0.0,0.0,0.0,0.25,0.0,0.0,0.0,0.0,0.0,0.5,1.75,2.75,0.02,-0.05,-0.11,98.14,0.4,-82.1
3.1,1.25,0.0,0.75,0.25,0.0,0.0,0.0,1.5,0.75,1.75,0.75,0.0,0.5,-0.61,-0.42,1.02,61.04,4.3,-20.6,0.5,0.0,0.0,0.0,0.0,0.0,0.25,0.0,0.0,0.0,0.75,1.75,3.0,0.02,-0.17,-0.11,99.15,-0.1,-87.3
3.12,1.25,0.0,0.5,0.25,0.0,0.0,0.0,1.75,0.5,1.75,1.5,0.0,0.5,-0.48,-0.48,0.89,89.67,2.8,-28.4,0.5,0.0,0.0,0.0,0.0,0.0,0.0,0.0,0.0,0.0,0.5,1.75,2.5,-0.05,-0.3,-0.17,97.81,-0.3,-88.3
3.14,1.25,0.0,0.25,0.25,0.0,0.0,0.0,1.5,0.75,1.75,1.5,0.0,0.5,-0.36,-0.42,0.7,109.08,2.6,-31.4,0.5,0.0,0.0,0.0,0.25,0.0,0.25,0.0,0.0,0.0,0.5,1.75,2.5,-0.05,-0.42,-0.17,96.0,-0.8,-78.6
3.16,1.5,0.0,0.5,0.25,0.0,0.0,0.0,1.25,0.75,1.75,1.25,0.0,0.5,-0.3,-0.17,0.77,118.15,5.2,-22.7,0.75,0.0,0.0,0.0,0.25,0.0,0.0,0.0,0.0,0.5,0.5,1.75,2.75,-0.11,-0.55,-0.11,98.82,0.3,-75.2
3.18,1.25,0.0,0.25,0.25,0.0,0.0,0.0,0.25,0.75,1.5,1.5,0.0,0.5,-0.17,0.02,0.64,112.13,7.3,-28.1,0.5,0.0,0.0,0.0,0.25,0.0,0.0,0.0,0.0,0.75,0.75,2.0,2.5,-0.17,-0.67,0.02,104.8,0.9,-81.1
3.2,1.25,0.0,0.75,0.25,0.0,0.0,0.0,0.25,0.75,1.5,1.25,0.0,0.5,-0.11,0.08,0.45,111.79,9.6,-19.1,0.5,0.0,0.0,0.0,0.0,0.0,0.25,0.0,0.0,0.0,0.75,1.75,3.0,-0.17,-0.86,0.02,107.29,-0.1,-87.3
3.22,1.25,0.0,0.5,0.0,0.0,0.0,0.0,0.25,0.75,1.25,0.75,0.25,0.5,-0.11,0.08,0.14,106.24,9.0,-23.2,0.5,0.0,0.0,0.0,0.5,0.0,0.0,0.0,0.0,0.0,0.5,1.75,2.75,-0.05,-0.98,-0.05,106.89,0.5,-75.7
3.24,1.25,0.0,0.25,0.25,0.0,0.0,0.0,0.25,0.75,1.75,0.25,0.0,0.5,-0.11,0.02,-0.23,99.25,5.4,-19.3,0.5,0.0,0.0,0.0,0.25,0.0,0.25,0.0,0.0,0.0,0.75,1.75,2.75,0.02,-0.98,-0.05,106.44,-0.6,-79.8
3.26,1.5,0.0,0.25,0.25,0.0,0.0,0.0,0.5,0.75,1.75,0.0,0.0,0.5,-0.05,-0.11,-0.36,92.9,5.4,-12.6,0.5,0.0,0.0,0.0,0.25,0.0,0.25,0.0,0.0,0.0,0.5,1.75,2.75,0.02,-1.05,-0.05,103.9,-0.1,-79.9
3.28,1.25,0.0,0.0,0.25,0.0,0.0,0.0,0.25,0.75,1.75,0.0,0.0,0.5,0.02,-0.23,-0.36,84.24,3.3,-20.8,0.5,0.0,0.0,0.0,0.5,0.0,0.0,0.0,0.0,0.0,0.75,1.75,2.75,0.08,-1.05,-0.05,104.12,0.1,-75.7
3.3,1.5,0.0,0.25,0.25,0.0,0.0,0.0,0.25,0.75,1.75,0.5,0.0,0.5,-0.05,-0.3,-0.3,81.5,6.8,-16.8,0.5,0.0,0.0,0.0,0.0,0.0,0.0,0.0,0.0,0.0,0.5,1.5,2.75,0.14,-1.05,-0.05,100.18,0.7,-88.3
3.32,1.25,0.0,0.0,0.25,0.0,0.0,0.0,0.0,0.75,1.75,0.5,0.25,0.5,-0.11,-0.36,-0.23,74.95,5.2,-29.3,0.5,0.0,0.0,0.0,0.0,0.0,0.0,0.0,0.0,0.0,0.5,1.75,2.5,0.2,-1.05,0.02,96.67,-0.3,-88.3
3.34,1.25,0.0,0.25,0.25,0.0,0.0,0.0,0.25,0.75,1.5,0.75,0.0,0.5,-0.11,-0.42,-0.17,74.04,6.8,-21.7,0.5,0.0,0.0,0.0,0.0,0.0,0.0,0.0,0.0,0.75,1.0,1.5,2.5,0.2,-0.98,0.08,97.85,1.1,-84.9
3.36,1.0,0.0,0.5,0.25,0.0,0.0,0.0,0.25,0.75,1.25,0.75,0.0,0.5,-0.11,-0.55,-0.17,73.48,8.2,-20.4,0.5,0.0,0.0,0.0,0.5,0.0,0.25,0.0,0.0,0.0,0.25,1.75,2.5,0.2,-0.98,0.14,97.11,-0.1,-72.0
3.38,0.25,0.0,0.25,0.25,0.0,0.0,0.0,0.25,0.75,1.25,0.25,0.0,0.5,-0.17,-0.86,-0.23,67.95,0.8,-41.0,0.5,0.0,0.0,0.0,0.25,0.0,0.25,0.0,0.0,0.0,0.5,1.75,2.5,0.27,-0.92,0.08,96.31,-0.8,-78.6
3.4,0.25,0.0,0.25,0.25,0.0,0.0,0.0,0.5,0.75,1.0,0.0,0.25,0.75,-0.23,-0.98,-0.17,63.72,-0.2,-45.3,0.25,0.0,0.0,0.0,0.25,0.0,0.25,0.0,0.0,0.0,0.5,1.75,2.5,0.27,-0.92,0.08,94.01,0.6,-86.2
3.42,0.75,0.0,0.25,0.25,0.0,0.0,0.0,0.5,0.75,1.0,0.5,0.0,0.5,-0.23,-1.05,0.08,62.11,4.9,-26.2,0.5,0.0,0.0,0.0,0.25,0.0,0.0,0.0,0.0,0.0,0.5,1.75,2.25,0.27,-0.92,0.08,91.92,-0.8,-79.5
3.44,0.25,0.0,0.25,0.25,0.0,0.0,0.0,0.25,0.75,1.0,0.75,0.0,0.5,-0.23,-1.11,0.08,60.64,3.1,-43.0,0.75,0.0,0.0,0.0,0.25,0.0,0.0,0.0,0.0,0.0,0.5,1.75,2.5,0.2,-0.92,0.14,92.23,-1.5,-73.6
3.46,1.25,0.0,0.5,0.25,0.0,0.0,0.0,0.25,0.75,1.0,0.75,0.0,0.5,-0.23,-1.05,0.2,66.26,10.6,-12.4,0.25,0.0,0.0,0.0,0.0,0.0,0.0,0.0,0.0,0.0,0.5,1.75,2.25,0.2,-0.92,0.14,89.22,0.5,-96.2
3.48,1.25,0.0,0.25,0.25,0.0,0.0,0.0,0.25,0.75,1.25,0.75,0.0,0.5,-0.23,-0.98,0.14,70.98,7.9,-19.1,0.5,0.0,0.0,0.0,0.0,0.0,0.25,0.0,0.0,0.0,0.75,1.5,2.25,0.2,-0.98,0.14,87.98,-1.8,-82.8
3.5,1.25,0.0,0.5,0.25,0.0,0.0,0.0,0.0,0.75,1.0,0.75,0.0,0.5,-0.3,-0.98,0.08,74.21,12.0,-11.1,0.5,0.0,0.0,0.0,0.5,0.0,0.0,0.0,0.25,0.5,0.75,1.75,2.25,0.2,-0.98,0.14,93.61,-0.1,-71.6
3.52,1.25,0.0,0.25,0.25,0.0,0.0,0.0,0.75,0.75,1.0,1.0,0.0,0.5,-0.3,-1.11,0.02,78.76,6.9,-20.8,0.5,0.0,0.0,0.0,0.5,0.0,0.0,0.0,0.0,0.0,0.5,1.75,2.25,0.27,-0.98,0.14,94.74,-0.6,-72.6
3.54,1.25,0.0,0.25,0.25,0.0,0.0,0.0,0.25,0.75,1.0,1.0,0.0,0.5,-0.3,-1.11,0.02,79.54,9.2,-19.0,0.5,0.0,0.0,0.0,1.25,0.0,0.25,0.0,0.0,0.0,0.5,1.75,2.25,0.27,-0.92,0.14,99.82,-0.6,-54.1
3.56,1.25,0.0,0.0,0.25,0.0,0.0,0.0,0.0,0.75,1.0,0.75,0.0,0.5,-0.3,-1.05,0.08,76.73,8.9,-19.5,0.25,0.0,0.0,0.0,0.0,0.0,0.0,0.0,0.0,0.0,0.75,1.75,2.25,0.2,-0.86,0.14,96.45,0.0,-95.2
3.58,1.25,0.0,0.25,0.25,0.0,0.0,0.0,1.0,0.75,1.0,1.0,0.0,0.5,-0.36,-0.92,0.14,80.28,5.9,-21.5,0.5,0.0,0.0,0.0,0.5,0.0,0.0,0.0,0.0,0.0,0.5,1.75,2.25,0.2,-0.8,0.02,95.31,-0.6,-72.6
3.6,1.25,0.0,0.0,0.25,0.0,0.0,0.0,0.25,0.75,1.0,1.0,0.0,0.5,-0.36,-0.86,0.08,79.42,7.7,-23.2,0.5,0.0,0.0,0.0,0.5,0.0,0.0,0.0,0.0,0.0,0.5,1.75,2.25,0.14,-0.8,0.02,93.39,-0.6,-72.6
3.62,1.25,0.0,0.0,0.25,0.0,0.0,0.0,0.5,0.75,1.0,0.75,0.0,0.5,-0.36,-0.86,0.02,79.6,6.3,-21.4,0.5,0.25,0.0,0.0,0.5,0.0,0.25,0.0,0.0,0.0,0.5,1.75,2.25,0.08,-0.73,0.02,94.79,-1.7,-63.1
3.64,1.5,0.0,0.25,0.25,0.0,0.0,0.0,0.25,0.75,1.25,0.75,0.0,0.5,-0.36,-0.86,-0.05,79.76,9.1,-14.0,0.25,0.25,0.0,0.0,0.0,0.0,0.25,0.0,0.0,0.0,1.25,1.75,2.25,0.08,-0.67,0.02,96.99,-2.0,-82.5
3.66,1.5,0.0,0.5,0.25,0.0,0.0,0.0,1.5,0.75,1.25,0.75,0.0,0.5,-0.36,-0.86,-0.05,88.81,5.5,-15.7,0.5,0.25,0.0,0.0,1.0,0.0,0.25,0.25,0.0,0.0,0.5,1.75,2.25,0.08,-0.67,0.02,101.62,-0.6,-52.3
3.68,1.5,0.0,0.5,0.25,0.0,0.0,0.0,1.5,0.75,1.0,1.0,0.0,0.5,-0.42,-0.8,-0.05,96.41,6.4,-15.6,0.5,0.5,0.0,0.0,0.25,0.0,0.25,0.0,0.0,0.0,0.5,1.75,2.25,0.08,-0.73,-0.05,101.33,-2.4,-61.8
3.7,1.5,0.0,0.25,0.25,0.0,0.0,0.0,1.5,0.75,1.0,0.75,0.0,0.5,-0.42,-0.8,-0.05,100.44,5.0,-16.5,0.75,0.25,0.0,0.0,0.25,0.0,0.25,0.0,0.0,0.0,0.25,1.75,2.25,0.08,-0.8,-0.05,99.18,-3.0,-61.9
3.72,1.5,0.0,0.0,0.25,0.0,0.0,0.0,1.25,0.75,1.25,1.0,0.0,0.75,-0.36,-0.8,-0.05,102.67,3.2,-26.6,0.5,0.5,0.0,0.0,0.25,0.0,0.25,0.0,0.0,0.0,0.75,1.75,2.25,0.08,-0.86,0.02,98.06,-2.8,-62.3
3.74,1.5,0.0,0.5,0.25,0.0,0.0,0.0,1.5,0.75,1.25,0.75,0.0,0.5,-0.3,-0.8,-0.11,104.44,5.5,-15.7,0.5,0.5,0.0,0.0,0.25,0.0,0.25,0.0,0.0,0.0,0.5,1.75,2.25,0.08,-0.92,0.02,96.45,-2.4,-61.8
3.76,1.25,0.0,0.25,0.25,0.0,0.0,0.0,1.5,0.5,1.0,0.75,0.0,0.5,-0.23,-0.73,-0.11,100.47,3.5,-20.1,0.5,0.5,0.0,0.0,1.25,0.0,0.25,0.0,0.0,0.0,0.5,1.75,2.25,0.08,-0.92,0.02,101.32,-1.5,-42.9
3.78,1.75,0.0,0.25,0.25,0.0,0.0,0.0,1.5,0.75,1.0,0.75,0.0,0.5,-0.23,-0.67,-0.17,101.56,6.1,-12.4,0.5,0.25,0.0,0.0,0.25,0.0,0.25,0.0,0.0,0.0,0.75,1.75,2.25,0.08,-0.92,0.02,101.15,-2.3,-69.3
3.8,1.5,0.0,0.25,0.25,0.0,0.0,0.0,1.5,0.75,1.0,0.75,0.25,0.5,-0.23,-0.67,-0.23,101.45,5.1,-20.0,0.5,0.5,0.0,0.0,0.0,0.0,0.25,0.0,0.0,0.0,0.5,1.5,2.25,0.08,-0.92,0.02,98.75,-2.4,-65.7
3.82,1.75,0.0,0.0,0.25,0.0,0.0,0.0,0.75,0.75,1.0,0.75,0.0,0.5,-0.23,-0.73,-0.3,96.87,7.6,-12.3,0.25,0.5,0.0,0.0,0.0,0.0,0.25,0.0,0.0,0.0,0.5,1.5,2.5,0.08,-0.86,-0.05,94.37,-0.3,-74.9
3.84,1.5,0.0,0.5,0.25,0.0,0.0,0.0,0.25,0.75,1.0,0.75,0.0,0.5,-0.23,-0.67,-0.3,91.83,11.6,-7.6,0.5,0.25,0.0,0.0,0.25,0.0,0.25,0.0,0.0,0.0,0.5,1.75,2.25,0.08,-0.86,-0.05,92.42,-2.0,-69.1
3.86,1.75,0.0,0.25,0.25,0.0,0.0,0.0,0.75,0.5,1.0,0.75,0.0,0.5,-0.23,-0.67,-0.3,87.7,8.8,-7.8,0.5,0.5,0.0,0.0,0.25,0.0,0.25,0.0,0.0,0.0,0.75,1.75,2.25,0.08,-0.92,0.02,93.76,-2.8,-62.3
3.88,1.5,0.0,0.0,0.25,0.0,0.0,0.0,1.25,0.75,1.0,0.5,0.25,0.75,-0.23,-0.67,-0.23,86.34,3.6,-24.2,0.5,0.25,0.0,0.0,0.0,0.0,0.25,0.0,0.0,0.0,0.5,1.75,2.25,0.08,-0.92,0.02,92.9,-2.3,-75.7
3.9,1.75,0.0,0.25,0.25,0.0,0.0,0.0,1.25,0.75,1.25,0.5,0.5,0.5,-0.23,-0.67,-0.23,90.39,6.1,-18.6,0.5,0.25,0.0,0.0,0.0,0.0,0.25,0.0,0.0,0.0,0.5,1.5,2.25,0.08,-0.92,0.02,90.95,-1.9,-74.0
3.92,1.25,0.0,0.25,0.25,0.0,0.0,0.0,1.25,0.75,1.0,0.5,0.5,0.5,-0.3,-0.67,-0.23,92.38,4.8,-25.1,0.25,0.25,0.0,0.0,0.5,0.0,0.0,0.0,0.0,0.0,0.5,1.75,2.25,0.14,-0.92,0.02,90.76,0.2,-71.8
3.94,1.25,0.0,0.5,0.25,0.0,0.0,0.0,1.25,0.75,1.0,0.75,0.25,0.5,-0.3,-0.73,-0.23,94.96,6.2,-20.3,0.5,0.25,0.0,0.0,0.25,0.0,0.25,0.0,0.0,0.0,0.75,1.75,2.25,0.08,-0.92,0.02,92.15,-2.3,-69.3
3.96,1.5,0.0,0.25,0.25,0.0,0.0,0.0,1.5,0.5,1.0,0.75,0.25,0.5,-0.3,-0.73,-0.17,94.91,4.9,-19.2,0.75,0.25,0.0,0.0,0.0,0.0,0.25,0.0,0.0,0.0,0.25,1.75,2.25,0.08,-0.92,-0.05,90.96,-3.3,-68.1
3.98,1.5,0.0,0.5,0.25,0.0,0.0,0.0,1.5,0.5,1.5,0.75,0.5,0.5,-0.3,-0.73,-0.17,100.26,4.8,-23.3,0.5,0.25,0.0,0.0,0.25,0.0,0.25,0.0,0.0,0.0,0.25,1.75,2.25,0.08,-0.92,-0.05,90.75,-1.6,-68.8
4.0,1.5,0.0,0.25,0.25,0.0,0.0,0.0,1.5,0.75,1.5,0.75,0.25,0.5,-0.3,-0.8,-0.11,103.88,3.7,-23.8,0.5,0.25,0.0,0.0,0.0,0.0,0.0,0.0,0.0,0.0,0.5,1.75,2.25,0.08,-0.98,0.02,89.42,-1.6,-78.0
4.02,1.5,0.0,0.0,0.25,0.0,0.0,0.0,1.25,0.75,1.25,0.75,0.25,0.5,-0.3,-0.8,-0.11,103.18,3.8,-24.7,0.5,0.25,0.0,0.0,0.0,0.0,0.25,0.0,0.0,0.0,0.25,1.75,2.25,0.08,-0.98,0.02,88.47,-1.9,-75.7
4.04,1.5,0.0,0.0,0.25,0.0,0.0,0.0,1.5,0.75,1.25,0.75,0.25,0.75,-0.3,-0.86,-0.05,103.65,2.4,-28.3,0.25,0.25,0.0,0.0,0.0,0.0,0.25,0.0,0.0,0.0,0.5,1.75,2.25,0.08,-0.98,0.02,87.89,-0.8,-83.5
