time,left pressure 0[N/cm²],left pressure 1[N/cm²],left pressure 2[N/cm²],left pressure 3[N/cm²],left pressure 4[N/cm²],left pressure 5[N/cm²],left pressure 6[N/cm²],left pressure 7[N/cm²],left pressure 8[N/cm²],left pressure 9[N/cm²],left pressure 10[N/cm²],left pressure 11[N/cm²],left pressure 12[N/cm²],left acceleration X[g],left acceleration Y[g],left acceleration Z[g],left total force[N],left center of pressure X[mm],left center of pressure Y[mm],right pressure 0[N/cm²],right pressure 1[N/cm²],right pressure 2[N/cm²],right pressure 3[N/cm²],right pressure 4[N/cm²],right pressure 5[N/cm²],right pressure 6[N/cm²],right pressure 7[N/cm²],right pressure 8[N/cm²],right pressure 9[N/cm²],right pressure 10[N/cm²],right pressure 11[N/cm²],right pressure 12[N/cm²],right acceleration X[g],right acceleration Y[g],right acceleration Z[g],right total force[N],right center of pressure X[mm],right center of pressure Y[mm]
0.02,6.5,4.5,8.5,11.5,0.0,3.75,0.5,3.0,0.75,1.5,1.5,0.75,0.25,-0.17,0.14,1.08,750.31,16.1,44.9,1.25,0.25,1.75,1.25,3.75,3.75,1.0,8.0,2.25,9.75,8.75,6.5,8.25,0.2,0.14,0.95,907.12,3.0,-48.3
0.04,7.5,4.75,9.0,11.5,0.0,1.25,0.5,3.0,0.75,1.75,1.5,0.75,0.25,-0.17,0.14,1.14,749.92,18.7,46.5,1.25,0.25,2.0,1.25,4.5,4.5,1.0,8.25,2.25,9.75,9.0,6.25,8.25,0.2,0.08,0.95,1010.69,3.1,-45.1
0.06,7.75,5.75,9.25,11.5,0.0,0.0,0.0,1.5,0.0,1.5,1.25,0.75,0.25,-0.17,0.2,1.14,715.84,21.7,55.0,1.5,0.5,2.25,1.5,5.25,4.75,1.25,8.75,2.75,9.25,8.75,6.0,8.25,0.2,0.08,0.95,1083.84,2.6,-40.5
0.08,8.0,5.75,9.5,11.5,0.0,0.0,0.0,1.25,0.75,1.5,1.5,0.0,0.25,-0.3,0.27,1.2,692.74,22.1,56.4,2.0,0.75,2.25,2.75,5.25,5.75,1.75,8.75,2.75,8.75,8.75,5.5,7.75,0.2,0.08,0.95,1122.63,1.9,-34.0
0.1,8.5,5.75,9.25,11.0,0.0,0.0,0.0,1.25,0.75,1.5,1.5,0.75,0.25,-0.36,0.33,1.33,672.84,21.9,53.8,1.75,1.0,3.25,3.75,6.25,5.75,1.75,8.25,2.75,8.25,8.0,5.0,6.75,0.2,0.08,0.95,1122.5,0.9,-26.5
0.12,8.0,5.25,8.25,10.0,0.0,0.0,0.0,0.0,0.75,1.5,1.25,0.25,0.25,-0.48,0.39,1.45,631.05,23.2,58.7,1.75,1.0,3.5,3.75,6.25,6.0,1.75,8.25,2.25,7.5,7.25,4.25,6.0,0.2,0.08,0.95,1079.77,0.8,-22.4
0.14,6.75,0.0,7.75,7.5,0.0,0.0,0.25,1.25,0.75,1.5,1.25,0.25,0.0,-0.61,0.45,2.08,527.24,23.7,46.0,2.0,1.0,4.0,4.0,6.25,6.0,1.75,7.5,2.25,6.75,6.0,3.25,5.0,0.2,0.14,0.95,1003.65,0.0,-15.5
0.16,0.0,0.0,5.75,4.25,0.0,0.0,0.5,0.0,0.75,1.5,1.0,0.75,0.25,-0.61,1.08,2.45,365.38,20.9,20.2,2.0,1.0,4.75,5.25,6.25,6.25,1.75,7.5,1.75,6.0,5.0,2.5,4.25,0.2,0.14,0.95,925.81,-0.8,-7.6
0.18,0.25,0.0,3.75,2.75,0.0,0.0,0.0,0.0,0.75,1.25,0.75,0.75,0.25,-0.55,1.52,3.14,242.13,19.2,12.8,3.0,1.25,4.75,5.75,6.25,6.25,1.75,7.0,1.5,5.5,3.75,1.75,3.25,0.2,0.14,0.95,853.09,-1.8,1.6
0.2,0.0,0.0,0.75,0.0,0.0,0.0,0.0,0.0,0.75,0.0,1.0,0.0,0.25,-0.36,0.2,2.27,102.99,16.6,-30.2,2.5,1.75,5.0,6.0,7.25,6.5,1.75,6.75,1.5,4.5,3.5,1.75,3.0,0.2,0.14,0.95,809.45,-2.1,6.1
0.22,0.0,0.0,0.0,0.0,0.0,0.0,0.0,0.0,0.0,0.0,0.0,0.0,0.0,-0.67,-0.67,1.95,0.0,0.0,0.0,3.0,2.0,5.25,7.0,7.75,6.75,1.5,6.0,1.0,4.25,2.75,1.75,2.5,0.2,0.14,0.95,785.15,-3.0,13.1
0.24,0.0,0.0,0.0,0.0,0.0,0.0,0.0,0.0,0.0,0.0,0.0,0.0,0.0,-0.67,-1.05,3.27,0.0,0.0,0.0,3.0,2.0,6.25,8.0,7.75,6.75,1.75,6.0,1.25,3.5,1.75,1.25,2.25,0.2,0.14,0.95,776.54,-4.3,19.5
0.26,0.0,0.0,0.0,0.0,0.0,0.0,0.0,0.0,0.0,0.0,0.0,0.0,0.0,-0.42,-0.73,1.39,0.0,0.0,0.0,3.0,2.0,6.75,8.75,8.0,7.0,1.75,6.0,1.0,1.75,1.5,1.0,2.5,0.2,0.14,0.95,775.08,-5.1,24.7
0.28,0.0,0.0,0.0,0.0,0.0,0.0,0.0,0.0,0.0,0.0,0.0,0.0,0.0,-0.48,-0.55,0.52,0.0,0.0,0.0,3.0,2.0,7.5,7.75,8.75,6.0,1.75,5.75,0.25,1.0,1.5,0.25,1.5,0.2,0.14,0.95,755.84,-6.5,32.8
0.3,0.0,0.0,0.0,0.0,0.0,0.0,0.0,0.0,0.25,0.0,0.0,0.0,0.0,-0.48,-0.48,0.27,0.0,12.1,-38.5,4.5,2.75,7.5,9.75,9.0,7.0,1.75,5.25,1.0,2.25,1.5,1.0,1.5,0.14,0.14,0.95,792.8,-7.0,31.8
0.32,0.0,0.0,0.0,0.25,0.0,0.0,0.0,0.0,0.25,0.0,0.0,0.0,0.0,-0.36,-0.42,0.45,0.0,14.7,11.1,5.25,3.25,8.5,11.0,9.0,7.0,1.75,5.25,0.5,1.5,1.5,1.0,1.5,0.14,0.14,0.95,849.48,-8.4,36.3
0.34,0.0,0.0,0.0,0.25,0.0,0.0,0.0,0.0,0.25,0.0,0.0,0.0,0.0,-0.36,-0.42,0.7,0.0,14.7,11.1,6.0,3.5,9.25,12.5,9.25,7.0,1.75,4.0,0.25,1.25,1.5,1.0,1.5,0.14,0.2,0.95,931.58,-9.9,40.6
0.36,0.0,0.0,0.0,0.5,0.0,0.0,0.0,0.0,0.25,0.0,0.0,0.0,0.0,-0.36,-0.3,0.95,0.0,15.5,27.0,5.75,4.25,10.0,13.0,10.5,7.0,1.0,3.5,0.25,0.0,1.5,0.25,1.5,0.14,0.2,1.02,1001.35,-10.6,46.9
0.38,0.0,0.0,0.0,0.0,0.0,0.0,0.25,1.25,0.25,0.0,0.5,0.0,0.0,-0.36,-0.05,0.89,0.0,-4.2,-43.4,7.0,5.0,9.25,13.0,9.0,6.25,1.25,3.0,0.25,1.0,1.0,0.5,1.25,0.08,0.2,1.14,1043.17,-11.5,48.0
0.4,0.0,0.0,0.0,0.25,0.0,0.0,0.0,0.0,0.25,0.0,0.0,0.0,0.0,-0.36,0.08,0.89,0.0,14.7,11.1,6.75,4.25,11.0,11.5,10.5,5.75,1.0,2.5,0.0,0.0,1.25,0.25,1.5,0.08,0.27,1.08,1048.61,-12.4,50.3
0.42,0.0,0.0,0.0,0.0,0.0,0.0,0.0,0.0,0.25,0.0,0.0,0.0,0.0,-0.42,0.27,1.14,4.17,12.1,-38.5,7.5,4.75,10.0,11.5,9.25,5.0,1.0,2.5,0.25,0.0,0.25,0.75,1.25,0.08,0.27,1.08,1023.8,-13.2,52.4
0.44,0.0,0.0,0.0,0.0,0.0,0.0,0.0,0.0,0.0,0.0,0.0,0.0,0.0,-0.42,0.33,1.39,7.35,0.0,0.0,7.25,4.75,10.5,11.5,9.25,3.75,1.0,2.5,0.0,0.0,0.75,0.25,0.75,0.08,0.33,1.14,986.27,-14.5,55.0
0.46,0.0,0.0,0.0,0.0,0.0,0.0,0.0,0.0,0.0,0.0,0.0,0.0,0.0,-0.48,0.45,1.83,4.94,0.0,0.0,7.75,4.75,10.0,11.0,9.0,2.5,0.75,1.0,0.0,0.0,0.0,0.0,1.0,0.14,0.33,1.2,921.17,-16.2,60.7
0.48,0.0,0.0,0.0,0.0,0.0,0.0,0.0,0.0,0.25,0.0,0.0,0.0,0.0,-0.55,0.64,1.89,2.33,12.1,-38.5,7.0,4.5,9.25,9.5,9.0,2.0,0.75,1.0,0.0,0.0,0.0,0.25,0.0,0.2,0.39,1.39,836.08,-16.6,63.3
0.5,0.0,0.0,0.0,0.5,0.0,0.0,0.0,0.0,0.25,0.0,0.0,0.0,0.0,-0.8,1.02,2.39,5.59,15.5,27.0,6.0,3.5,0.0,7.75,7.75,2.5,1.0,1.0,0.25,0.0,0.5,0.5,1.0,0.27,0.52,1.58,673.63,-9.1,52.3
0.52,0.0,0.0,0.0,0.25,0.0,0.0,0.0,0.0,0.25,0.0,0.0,0.0,0.0,-0.8,1.52,2.7,7.35,14.7,11.1,5.75,1.0,7.5,6.0,7.5,2.25,1.25,1.0,0.0,0.0,0.0,0.25,0.5,0.2,0.7,2.02,554.76,-15.6,56.3
0.54,0.0,0.0,0.0,0.25,0.0,0.0,0.0,0.0,0.0,0.0,0.0,0.0,0.0,-0.61,2.64,2.39,6.83,17.2,57.9,3.75,0.5,6.25,3.75,5.5,0.0,1.0,0.75,0.0,0.0,0.5,0.25,1.0,-0.17,1.39,2.33,400.3,-17.6,48.9
0.56,0.0,0.0,0.0,0.0,0.0,0.0,0.0,0.0,0.25,0.0,0.0,0.0,0.0,-0.23,3.77,1.45,5.06,12.1,-38.5,2.5,0.5,4.75,1.5,3.75,1.25,1.0,1.0,0.25,0.0,0.5,0.25,1.0,-0.3,0.83,2.2,296.41,-13.9,39.8
0.58,0.0,0.0,0.0,0.0,0.0,0.0,0.0,0.0,0.25,0.0,0.0,0.0,0.0,0.33,4.7,0.39,3.47,12.1,-38.5,1.25,0.5,3.0,1.25,3.75,0.5,0.75,1.0,0.25,0.0,0.75,0.5,1.0,0.08,0.39,1.77,212.44,-10.7,28.2
0.6,0.0,0.0,0.0,0.0,0.0,0.0,0.0,0.0,0.0,0.0,0.0,0.0,0.0,1.39,6.7,-0.05,0.86,0.0,0.0,0.25,0.0,0.75,0.0,0.0,0.0,0.0,0.75,0.0,0.0,0.0,0.0,0.5,0.27,-2.92,2.64,89.33,-7.9,-6.9
0.62,0.0,0.0,0.0,0.0,0.0,0.0,0.0,0.0,0.0,0.75,0.0,0.0,0.0,-0.17,-0.98,2.39,4.16,-15.6,-75.5,0.5,0.0,0.5,0.0,0.0,0.0,0.0,0.25,0.0,0.0,0.0,0.0,0.5,0.2,-1.67,2.02,0.0,-14.2,6.2
0.64,0.0,0.0,0.0,0.5,0.0,0.0,0.0,0.25,0.0,2.25,1.0,0.75,0.25,0.08,-0.3,0.39,34.18,-3.3,-66.5,1.5,0.0,0.25,1.0,0.0,0.0,0.75,1.0,0.25,0.0,0.5,0.25,0.75,0.27,-1.11,0.89,0.0,-12.3,4.5
0.66,0.0,0.0,0.0,0.25,0.0,0.0,0.0,1.25,0.0,3.5,1.75,2.25,2.0,0.7,0.2,0.95,95.91,-5.5,-81.5,1.5,0.0,1.75,1.0,1.75,0.0,0.75,1.0,0.25,0.0,0.5,0.25,0.75,0.27,-0.8,0.7,0.0,-13.2,24.3
0.68,0.0,0.0,0.0,0.25,0.0,0.0,0.0,1.5,0.75,5.5,4.0,2.75,3.75,-0.17,0.45,2.08,185.31,-4.5,-81.4,1.25,0.25,1.75,1.25,1.75,0.0,0.75,1.0,0.25,0.0,0.75,0.25,1.0,0.2,-0.55,0.7,0.0,-12.0,19.6
0.7,0.0,0.0,0.0,0.0,0.0,0.0,0.0,4.0,1.0,5.75,5.25,1.75,5.0,-0.36,0.64,2.52,267.32,-6.4,-77.8,1.5,0.25,1.25,1.0,1.5,0.0,1.0,1.0,0.25,0.0,0.5,0.25,0.75,0.33,-0.42,1.02,30.26,-12.5,23.5
0.72,0.0,0.0,0.0,0.5,0.0,0.0,0.5,5.0,2.0,6.5,6.0,4.0,4.5,-0.23,0.14,1.08,355.35,-3.8,-73.5,1.25,0.0,1.5,0.75,1.5,0.0,1.0,1.0,0.25,0.25,0.5,0.25,0.75,0.33,-0.3,1.2,61.09,-11.7,16.5
0.74,0.0,0.0,0.0,0.5,0.0,1.5,0.75,5.5,3.25,6.75,6.75,4.25,5.25,-0.17,0.08,0.95,455.68,-4.0,-68.1,2.0,0.25,1.0,0.75,2.25,0.25,1.0,1.0,0.25,0.0,0.5,0.25,0.75,0.2,-0.05,1.14,90.07,-10.6,27.9
0.76,2.5,0.25,0.75,2.5,0.0,1.75,1.0,6.0,4.0,6.75,7.25,4.25,5.0,-0.17,0.02,0.95,569.31,0.5,-46.9,1.25,0.0,1.25,0.5,1.0,0.0,1.0,1.0,0.25,0.0,0.5,0.25,0.75,0.14,0.27,1.45,94.88,-12.7,13.7
0.78,2.75,0.5,4.0,2.75,0.0,2.25,1.25,6.0,4.25,6.5,7.0,4.0,4.0,-0.11,0.02,0.95,660.5,3.9,-33.2,1.25,0.0,1.0,0.5,0.25,0.25,1.0,1.0,0.25,0.0,0.5,0.25,0.75,0.2,0.52,1.83,102.9,-12.5,7.2
0.8,5.5,0.5,5.25,3.25,0.0,2.25,1.5,6.0,4.75,6.0,7.0,4.0,4.0,-0.11,0.02,0.95,747.01,6.9,-22.4,1.25,0.0,1.75,0.0,0.25,0.25,1.0,1.0,0.25,0.0,0.5,0.25,0.75,0.27,1.02,2.27,104.78,-15.1,9.4
0.82,6.0,0.5,6.25,3.75,0.0,2.25,1.75,6.0,4.5,6.0,6.5,3.0,2.75,-0.11,0.02,1.02,797.08,8.5,-13.6,1.5,0.0,1.0,0.25,1.0,0.25,1.0,1.0,0.25,0.0,0.5,0.25,0.75,0.14,1.83,2.52,110.81,-11.2,13.8
0.84,6.75,1.25,7.0,5.5,0.0,2.25,1.5,5.75,4.25,5.0,6.0,2.5,2.5,-0.11,0.02,0.95,834.83,10.4,-2.9,0.25,0.0,1.75,0.0,1.25,0.0,1.0,1.0,0.25,0.0,0.5,0.0,0.75,0.08,2.58,2.08,112.55,-10.6,8.2
0.86,7.0,1.75,7.5,6.5,0.75,2.75,1.75,5.25,3.5,4.0,5.0,1.75,1.5,-0.11,0.02,0.95,842.49,11.8,9.9,1.5,0.0,1.0,0.0,0.0,0.0,1.0,1.0,0.25,0.0,0.5,0.25,0.75,-0.17,2.83,-0.17,101.47,-15.3,2.8
0.88,7.5,1.75,7.75,7.0,0.75,2.75,1.5,5.25,3.25,3.5,4.0,1.75,1.25,-0.11,0.02,0.95,832.08,12.6,15.1,1.25,0.0,1.75,0.0,1.25,0.0,0.75,1.0,0.25,0.0,0.5,0.25,0.75,-0.05,4.14,0.33,99.17,-13.2,15.2
0.9,7.5,1.75,8.25,8.0,2.0,2.25,1.5,4.5,2.75,3.25,3.25,1.0,0.75,-0.11,0.08,0.95,806.71,13.9,24.3,1.25,0.25,1.75,0.0,1.5,0.0,0.75,1.0,0.25,0.0,0.75,0.25,1.0,-1.3,4.58,-0.3,105.37,-11.8,12.7
0.92,8.0,1.75,8.25,8.0,2.5,2.25,1.5,4.5,2.25,2.25,2.75,0.75,0.25,-0.11,0.08,0.95,772.72,14.9,31.8,1.25,0.0,0.0,0.0,0.0,0.0,0.0,1.0,0.25,1.0,0.5,1.0,0.75,-1.36,4.33,-0.36,101.07,-2.6,-42.4
0.94,8.0,1.75,8.5,8.25,2.25,2.75,1.5,4.0,1.5,1.5,2.5,0.75,0.25,-0.11,0.08,0.95,734.86,15.8,36.5,1.5,0.25,1.5,0.0,1.75,0.0,0.5,1.0,0.25,1.5,1.5,1.75,1.75,0.39,-0.48,1.45,131.63,-6.1,-21.8
0.96,8.0,2.0,8.75,8.75,0.75,2.25,1.25,3.0,1.75,1.75,2.0,0.75,0.25,-0.11,0.08,0.95,685.81,17.8,38.7,0.0,0.0,1.5,0.0,0.0,0.5,0.75,1.25,0.25,4.25,1.5,3.0,2.5,-0.23,0.33,0.77,170.8,1.1,-64.7
0.98,8.0,2.5,9.0,9.0,0.0,2.25,1.25,3.0,1.5,1.75,1.75,0.75,0.25,-0.11,0.08,1.02,646.3,18.4,40.6,1.5,0.0,1.5,1.0,1.5,1.25,1.0,2.5,0.0,7.0,5.5,4.5,4.5,0.52,0.45,1.39,270.74,0.2,-50.7
1.0,8.5,3.25,9.0,9.25,3.5,1.5,0.75,2.75,1.25,1.5,1.5,0.75,0.25,-0.17,0.14,0.95,643.79,17.5,45.9,2.0,0.0,3.75,1.25,3.25,1.5,1.75,5.25,2.25,8.0,7.75,5.5,6.0,0.02,0.08,1.02,433.2,-1.6,-41.3
1.02,8.5,3.25,9.0,9.25,0.0,1.5,0.5,2.0,1.25,1.5,1.5,0.75,0.25,-0.11,0.14,0.95,620.45,20.3,46.8,3.0,0.25,5.0,1.25,3.25,2.0,2.25,6.0,3.0,8.25,8.75,5.75,6.5,0.08,0.14,1.08,655.28,-2.8,-36.5
1.04,8.5,3.25,9.0,9.25,0.0,0.0,0.5,1.5,0.75,1.5,1.5,0.75,0.25,-0.11,0.14,0.95,588.88,22.5,49.6,3.5,0.75,7.25,1.25,3.5,2.25,2.5,6.0,3.25,8.0,8.75,5.5,6.0,0.08,0.14,1.02,842.31,-4.8,-28.3
1.06,8.5,3.25,8.0,9.0,0.0,1.5,0.0,1.5,0.75,1.5,1.25,0.75,0.25,-0.17,0.2,1.02,554.98,20.4,49.6,4.5,0.25,8.5,2.25,3.75,2.5,3.0,6.0,3.5,7.75,8.25,5.25,5.75,0.08,0.14,0.95,981.75,-6.2,-21.9
1.08,8.0,4.0,8.0,9.0,0.0,1.5,0.0,1.25,0.75,1.5,1.25,0.75,0.25,-0.23,0.2,1.14,531.93,20.3,50.6,5.25,0.5,9.25,3.0,3.5,2.5,3.25,6.0,3.0,7.0,7.75,4.5,5.0,0.08,0.14,0.95,1056.22,-7.7,-14.6
1.1,8.0,3.75,7.5,9.0,0.0,0.5,0.0,1.25,0.5,1.5,0.75,0.75,0.25,-0.23,0.2,1.2,504.72,21.5,53.0,5.5,0.75,9.75,3.5,3.5,2.5,3.5,5.5,3.0,6.5,7.25,3.75,4.25,0.08,0.14,0.95,1080.1,-8.9,-8.5
1.12,7.5,4.25,7.75,8.0,0.0,0.0,0.0,1.25,0.75,1.5,1.0,0.75,0.25,-0.3,0.27,1.39,485.53,21.9,51.7,6.0,0.5,10.5,3.75,3.75,2.5,4.0,5.25,3.0,5.5,6.25,3.0,3.25,0.08,0.14,0.95,1067.55,-10.5,-0.6
1.14,7.5,2.25,7.0,7.5,0.0,0.0,0.0,1.25,0.75,1.5,0.75,0.75,0.25,-0.36,0.27,1.64,448.5,22.3,49.1,6.25,1.0,11.0,4.0,3.75,2.5,4.25,4.5,2.5,5.5,5.75,3.0,2.75,0.08,0.14,0.95,1042.06,-11.5,4.2
1.16,5.0,1.75,5.25,4.75,0.0,0.0,0.0,0.5,0.5,1.5,0.25,0.0,0.0,-0.36,0.27,1.83,367.74,23.2,55.3,6.5,1.0,11.5,4.5,3.75,2.5,4.25,4.0,2.25,4.25,5.0,2.25,2.25,0.08,0.14,0.95,990.44,-13.2,12.1
1.18,2.0,0.0,2.75,2.5,0.0,0.0,0.0,0.25,0.25,0.0,0.0,0.0,0.0,-0.36,0.77,2.27,257.49,27.8,62.4,6.75,1.0,12.0,5.0,3.75,2.5,4.25,4.0,2.25,3.5,4.0,1.75,1.75,0.08,0.14,0.95,925.25,-14.4,18.8
1.2,0.0,0.0,1.5,0.25,0.0,0.0,0.0,0.0,0.25,0.0,0.0,0.0,0.0,-0.36,0.77,2.45,132.65,32.4,48.6,6.75,1.0,12.5,5.75,3.75,2.75,4.25,2.75,1.75,3.25,3.75,2.0,1.25,0.08,0.14,0.95,862.47,-15.7,23.6
1.22,0.0,0.0,0.0,0.0,0.0,0.0,0.5,1.5,1.75,0.75,1.75,0.0,0.0,-0.3,0.33,1.39,38.58,1.7,-51.2,6.25,0.5,11.0,5.25,3.75,1.25,4.25,2.5,1.25,1.25,2.75,1.0,0.75,0.08,0.14,0.95,741.7,-18.5,33.0
1.24,0.0,0.0,0.0,1.25,0.0,0.0,2.5,3.75,0.0,0.5,2.0,0.0,0.5,-0.17,-3.17,2.33,2.03,0.4,-30.1,7.5,1.25,12.5,6.0,4.25,2.5,4.25,2.5,1.5,1.5,2.75,1.5,1.25,0.08,0.14,0.89,701.63,-17.5,33.3
1.26,0.0,0.0,0.0,0.5,0.0,0.0,0.5,1.25,0.0,1.5,0.25,0.0,0.0,0.08,-1.61,0.7,0.0,-6.7,-38.1,7.5,1.5,13.0,7.5,5.25,2.5,4.25,2.5,1.25,1.25,2.75,1.0,1.25,0.08,0.14,0.95,703.66,-17.4,37.4
1.28,0.0,0.0,0.0,0.25,0.0,0.0,0.25,0.5,0.0,0.5,0.0,0.0,0.0,-0.3,-1.55,0.58,0.0,-5.6,-28.0,7.5,2.0,13.0,7.75,5.25,2.5,4.25,2.5,1.0,1.25,1.75,1.0,1.25,0.08,0.14,0.95,734.65,-17.5,40.7
1.3,0.0,0.0,0.0,0.5,0.0,0.0,0.25,0.75,0.0,0.0,0.0,0.0,0.0,-0.48,-1.48,0.64,0.0,0.2,3.2,7.5,2.0,13.5,8.25,5.25,2.5,4.25,2.5,1.0,1.25,1.5,1.0,0.75,0.08,0.14,0.89,761.74,-18.1,43.2
1.32,0.0,0.0,0.0,0.0,0.0,0.0,0.0,0.0,0.0,0.0,0.0,0.0,0.0,-0.55,-1.11,0.77,0.0,0.0,0.0,7.5,2.0,12.5,9.5,5.75,3.0,4.25,2.5,1.0,1.25,1.5,1.0,0.75,0.02,0.14,0.89,796.74,-17.1,43.3
1.34,0.0,0.0,0.0,0.25,0.0,0.0,0.0,0.0,0.0,0.0,0.0,0.0,0.0,-0.61,-0.8,1.02,0.0,17.2,57.9,7.5,2.5,12.5,9.5,6.25,3.5,3.25,2.5,0.75,1.25,1.5,0.75,0.75,0.08,0.14,1.08,822.17,-16.3,45.1
1.36,0.0,0.0,0.0,0.0,0.0,0.0,0.0,0.0,0.0,0.0,0.0,0.0,0.0,-0.55,-0.42,1.08,0.0,0.0,0.0,7.5,1.75,12.5,7.0,6.25,3.75,3.0,2.25,0.25,0.25,1.25,0.75,0.75,0.08,0.2,1.08,803.82,-17.1,48.1
1.38,0.0,0.0,0.0,0.0,0.0,0.0,0.0,0.0,0.25,0.0,0.75,0.0,0.25,-0.55,0.14,1.27,0.0,5.9,-75.2,7.5,3.75,12.5,9.75,7.5,3.0,2.25,1.5,0.25,0.5,1.25,0.25,0.0,0.08,0.2,1.14,816.68,-17.6,55.9
1.4,0.0,0.0,0.0,0.0,0.0,0.0,0.0,0.0,0.25,0.0,0.0,0.0,0.0,-0.73,0.39,1.77,0.0,12.1,-38.5,7.5,4.25,11.5,9.5,7.75,3.25,1.25,1.0,0.25,0.0,0.75,0.25,0.75,0.08,0.27,1.14,814.05,-17.0,57.4
1.42,0.0,0.0,0.0,0.0,0.0,0.0,0.0,0.0,0.25,0.0,0.0,0.0,0.0,-0.98,0.77,2.89,0.0,12.1,-38.5,7.5,4.5,10.5,9.5,8.0,3.75,1.0,1.0,0.25,0.0,1.0,0.25,0.5,0.02,0.33,1.08,818.67,-16.1,57.6
1.44,0.0,0.0,0.0,0.0,0.0,0.0,0.0,0.0,0.5,0.0,0.0,0.0,0.0,-1.11,1.58,2.52,0.0,12.1,-38.5,6.25,3.0,9.25,7.75,8.5,2.0,1.0,1.0,0.0,0.0,0.75,0.25,0.75,-0.05,0.33,1.27,762.42,-16.1,56.0
1.46,0.0,0.0,0.0,0.0,0.0,0.0,0.5,1.25,0.75,0.25,0.25,0.0,0.0,-1.05,2.39,1.95,4.7,-2.0,-39.5,4.5,2.0,6.5,5.25,7.75,0.0,0.75,0.0,0.0,0.0,0.0,0.0,0.5,-0.11,0.33,1.64,624.7,-17.6,62.7
1.48,0.0,0.0,0.0,0.0,0.0,0.0,0.5,1.0,1.0,0.25,0.25,0.0,0.0,-0.48,2.89,1.39,19.46,0.6,-39.5,3.0,1.5,4.75,4.0,6.25,0.25,0.75,0.0,0.0,0.0,0.0,0.0,0.0,-0.23,0.33,1.77,446.02,-16.8,64.5
1.5,0.0,0.0,0.0,0.75,0.0,0.0,0.75,1.5,1.0,0.25,0.25,0.0,0.0,0.2,3.27,1.27,44.94,2.5,-18.9,3.0,1.0,0.75,1.25,5.25,1.5,0.25,0.0,0.0,0.0,0.0,0.0,0.0,-0.17,0.58,1.64,293.57,-8.4,64.7
1.52,0.0,0.0,0.25,0.0,0.0,0.0,1.25,2.25,0.5,0.0,1.75,0.0,0.0,1.08,3.27,0.95,66.28,2.9,-38.1,1.5,0.0,1.75,0.0,3.5,0.0,0.25,0.0,0.0,0.0,0.0,0.0,0.0,-0.61,0.58,1.58,177.05,-14.7,63.3
1.54,0.0,0.0,1.25,0.5,0.0,0.0,0.0,0.0,0.0,0.0,0.0,0.0,0.0,1.83,3.64,0.64,64.17,32.1,60.1,0.5,0.5,0.5,1.25,0.25,0.25,0.0,0.0,0.0,0.0,0.0,0.0,0.0,-1.17,0.7,1.33,55.42,-17.6,68.2
1.56,0.0,0.0,0.0,0.0,0.0,0.0,0.0,0.0,0.0,0.25,0.25,0.0,0.0,-0.17,-0.42,1.39,49.89,-2.6,-75.4,1.5,0.25,1.25,1.0,1.25,0.25,0.25,1.0,0.0,0.0,0.75,0.25,0.75,-1.11,-2.05,2.2,0.0,-11.2,21.6
1.58,0.0,0.0,0.0,0.0,0.0,0.0,0.0,1.25,0.0,1.75,1.75,0.75,0.25,1.27,-0.3,0.58,61.99,-4.7,-73.5,1.5,0.25,1.75,0.75,3.5,0.5,0.75,1.0,0.0,0.0,0.75,0.25,0.75,-0.17,-1.11,1.27,0.0,-8.8,29.8
1.6,0.0,0.0,0.0,0.0,0.0,0.0,0.0,1.25,0.0,1.5,1.75,1.25,1.25,0.64,0.02,1.52,84.91,-4.7,-81.4,1.5,0.25,1.75,0.5,3.5,0.25,0.75,1.0,0.25,0.0,0.75,0.25,0.75,-0.61,0.52,0.02,27.56,-9.3,27.7
1.62,0.0,0.0,0.0,0.0,0.0,0.0,0.0,0.0,0.0,3.75,2.0,2.25,2.25,-0.11,-0.11,0.89,128.06,-4.8,-90.7,0.5,0.25,1.75,0.5,3.5,0.0,0.75,1.0,0.25,0.0,0.75,0.25,0.75,-1.17,0.2,0.64,47.71,-7.8,21.3
1.64,0.0,0.0,0.0,0.0,0.0,0.0,0.75,4.0,0.0,0.0,0.0,3.75,3.25,-0.73,-0.11,0.95,165.99,-5.9,-80.7,0.25,0.0,1.75,0.0,3.0,0.0,0.75,1.0,0.0,0.0,0.5,0.0,0.75,3.58,2.83,-1.98,56.1,-6.7,20.7
1.66,0.0,0.0,0.0,0.5,0.0,0.0,0.75,0.0,0.5,0.0,4.75,2.75,6.0,-0.55,-0.11,0.89,209.63,1.0,-87.6,0.0,0.0,0.0,0.0,0.0,0.0,0.0,0.0,0.0,0.0,0.0,0.0,0.0,3.77,1.52,-2.05,16.42,0.0,0.0
1.68,0.0,0.0,2.25,0.0,0.0,0.0,2.25,1.0,0.25,5.0,5.75,0.0,7.25,-0.23,-0.05,0.95,263.9,-0.4,-65.9,0.0,0.0,1.75,0.0,2.75,0.0,0.75,0.0,0.0,0.0,0.0,0.0,0.0,-1.3,-0.61,-1.05,20.3,-13.1,54.2
1.7,0.0,0.0,1.25,0.75,0.0,0.0,3.5,1.5,0.5,6.5,6.5,0.0,7.75,-0.23,0.02,1.14,324.06,-1.7,-66.0,0.25,0.0,0.0,0.0,0.0,0.0,0.25,0.0,0.0,0.0,0.5,0.0,0.75,-0.23,0.39,-1.17,9.49,-4.1,-59.1
1.72,0.0,0.0,0.0,0.5,0.0,0.0,0.0,1.75,0.75,7.5,7.0,0.0,8.0,-0.17,0.02,1.2,379.33,-6.6,-80.2,0.25,0.0,1.5,0.0,3.25,0.0,0.0,0.0,0.0,0.0,0.75,0.0,0.25,-0.3,0.45,-0.73,41.01,-9.0,36.0
1.74,0.0,0.0,0.0,1.0,0.0,0.0,0.0,3.0,1.25,7.5,7.5,0.0,7.75,-0.23,-0.05,0.95,428.12,-5.9,-74.7,0.25,0.0,0.0,0.0,0.25,0.25,0.0,0.0,0.25,0.0,0.0,0.0,0.0,0.27,0.14,-0.48,32.55,-4.7,36.6
1.76,0.0,0.0,1.25,0.75,0.0,0.0,0.0,2.75,1.5,7.5,7.75,7.0,8.0,-0.17,0.08,1.14,513.29,-1.4,-77.8,0.5,0.0,0.0,0.5,3.25,0.5,0.0,0.0,0.0,0.0,0.0,0.0,0.5,0.45,1.08,-0.11,57.13,0.8,41.2
1.78,0.0,0.0,0.0,0.5,0.0,0.0,0.0,3.0,1.75,7.5,8.0,6.75,8.0,-0.17,-0.05,0.89,578.31,-3.0,-83.1,1.75,0.0,0.0,0.0,3.5,0.0,0.5,0.75,0.0,0.0,0.5,0.25,0.5,0.58,1.27,0.64,72.74,-4.9,29.5
1.8,0.0,0.0,0.0,0.5,0.0,0.0,0.0,3.0,2.25,7.5,8.0,7.0,8.0,-0.23,0.02,1.02,629.34,-2.7,-82.7,0.25,0.25,0.0,0.5,3.5,1.25,0.0,0.0,0.0,0.0,0.0,0.0,0.0,0.77,1.08,0.83,85.06,3.1,53.7
1.82,0.0,0.0,0.0,0.5,0.0,0.0,0.0,3.0,2.75,7.5,8.0,7.0,7.75,-0.17,0.02,0.95,648.25,-2.4,-81.9,0.5,0.0,0.0,0.0,3.5,0.25,0.0,0.0,0.0,0.0,0.0,0.0,0.0,1.33,0.89,0.45,85.32,0.5,56.8
1.84,0.0,0.0,0.0,0.5,0.0,0.0,0.25,0.0,2.75,7.25,8.25,7.0,7.75,-0.11,0.02,0.89,635.69,-0.8,-85.3,0.5,0.0,0.0,0.0,1.5,0.0,0.0,0.0,0.0,0.0,0.0,0.0,0.0,1.83,0.95,-0.05,71.64,-4.8,62.9
1.86,0.0,0.0,0.0,1.0,0.0,0.0,0.5,2.25,2.75,6.75,8.0,6.5,7.25,-0.11,0.08,1.02,612.01,-1.3,-79.3,2.25,0.0,0.0,0.0,1.5,1.5,0.0,0.0,0.25,0.0,0.0,0.25,0.0,1.02,0.64,0.08,76.77,-7.0,53.9
1.88,0.0,0.0,0.0,1.0,0.0,0.0,0.5,0.0,2.75,6.0,7.25,6.0,6.75,-0.11,0.08,1.08,559.33,0.0,-81.4,0.25,0.0,0.0,0.0,0.0,0.0,0.0,0.0,0.0,0.0,0.0,0.0,0.0,0.7,0.95,0.27,51.2,-34.9,97.9
1.9,0.0,0.0,0.0,1.0,0.0,0.0,0.5,0.0,2.25,3.5,7.0,0.0,5.25,-0.11,0.14,1.08,442.37,-0.1,-72.3,1.25,0.25,1.75,0.0,3.25,0.25,0.5,0.75,0.0,0.0,0.5,0.0,0.75,0.7,1.33,0.33,87.49,-8.9,33.2
1.92,0.0,0.0,0.0,1.0,0.0,0.0,0.5,0.0,1.5,3.0,4.25,0.0,2.75,-0.17,0.33,1.77,316.35,0.1,-65.9,1.25,0.25,0.0,0.0,0.0,0.0,0.0,0.0,0.0,0.0,0.0,0.25,0.0,0.7,1.77,0.95,66.66,-27.6,67.2
1.94,0.0,0.0,0.0,0.5,0.0,0.0,0.5,0.0,1.25,1.75,3.25,0.0,1.5,-0.61,0.27,1.7,216.03,2.0,-65.1,1.5,0.25,1.25,0.0,1.5,0.25,0.5,1.0,0.25,0.0,0.5,0.25,0.75,-0.23,2.14,0.7,94.77,-10.2,19.1
1.96,0.0,0.0,1.75,0.0,0.0,0.0,0.5,0.0,0.75,1.0,3.0,0.75,1.5,-0.86,0.33,1.64,134.96,9.6,-51.0,1.25,0.0,0.75,0.0,1.5,0.0,0.5,0.75,0.25,0.0,0.5,0.25,0.75,-0.8,1.02,-0.17,91.7,-9.3,11.4
1.98,0.0,0.0,0.5,0.0,0.0,0.0,0.25,0.0,0.5,1.0,2.5,0.0,1.25,-0.42,0.45,2.14,63.1,3.8,-65.8,1.25,0.0,1.0,0.0,1.25,0.0,0.5,0.75,0.25,0.0,0.75,0.25,0.75,-0.05,-0.23,-1.11,106.53,-11.0,8.3
2.0,0.0,0.0,0.0,0.5,0.0,0.0,0.0,0.0,0.75,0.0,0.5,0.0,0.25,0.14,0.58,1.27,0.0,9.8,-31.4,1.25,0.0,1.0,0.0,1.5,0.25,0.5,0.75,0.25,0.0,0.5,0.25,0.75,-0.17,-0.98,-0.36,103.39,-9.2,14.0
2.02,0.0,0.0,0.0,0.5,0.0,0.0,0.0,0.0,0.75,1.5,1.5,0.25,0.25,0.02,-0.17,0.89,0.0,1.8,-58.6,1.5,0.0,1.25,0.0,1.25,0.25,0.5,0.75,0.25,0.0,0.75,0.25,0.75,-0.67,-1.23,0.08,111.58,-11.6,13.8
2.04,0.0,0.0,0.25,0.5,0.0,0.0,0.25,0.0,0.75,1.0,1.5,0.5,0.0,0.77,-1.48,-0.05,0.0,7.8,-47.7,1.5,0.0,1.0,0.0,1.25,0.0,0.75,0.75,0.25,0.0,0.5,0.25,0.75,-0.3,-0.42,0.02,114.81,-12.2,14.8
2.06,0.0,0.0,0.0,0.0,0.0,0.0,0.0,0.0,0.0,0.0,0.0,0.0,0.0,0.89,-1.11,-0.23,0.0,0.0,0.0,1.25,0.25,1.25,0.0,1.25,0.0,0.5,0.75,0.25,0.0,0.5,0.25,0.75,-0.17,0.83,-0.17,116.69,-12.1,16.6
2.08,0.0,0.0,0.0,0.5,0.0,0.0,0.0,0.0,0.75,1.5,1.25,0.5,0.25,0.58,1.08,0.52,0.0,1.7,-60.4,1.25,0.25,1.5,0.0,1.25,0.0,0.5,0.75,0.25,0.0,0.5,0.25,0.75,-0.36,1.58,-0.17,118.87,-13.0,18.2
2.1,0.0,0.0,0.0,0.0,0.0,0.0,3.0,0.0,0.0,0.25,2.75,0.25,0.5,0.39,1.83,0.77,0.0,13.0,-51.7,1.5,0.0,0.5,0.0,0.25,0.0,0.5,0.75,0.25,0.0,0.5,0.25,0.75,0.83,2.39,-0.55,105.19,-12.7,0.6
2.12,0.0,0.0,1.0,0.5,0.0,0.0,0.0,0.0,0.25,0.25,1.75,0.0,0.25,0.52,0.52,0.52,14.1,15.5,-22.8,1.25,0.0,0.75,0.0,0.5,0.0,0.5,0.75,0.25,0.0,0.75,0.25,0.75,1.95,2.14,-0.8,98.11,-12.0,-1.2
2.14,0.0,0.0,1.75,0.5,0.0,0.0,0.25,0.0,0.75,1.5,1.75,0.5,0.25,0.7,0.2,0.14,52.18,12.1,-29.3,1.25,0.0,0.5,0.0,1.25,0.0,0.5,1.0,0.25,0.0,0.5,0.25,0.75,1.58,1.89,-0.3,88.77,-7.6,5.3
2.16,0.0,0.0,0.0,0.5,0.0,0.0,0.0,0.0,0.75,1.5,1.75,0.75,0.25,0.83,0.58,0.2,73.8,2.9,-64.0,1.25,0.0,1.0,0.0,1.0,0.0,0.5,0.75,0.25,0.0,0.75,0.5,0.75,0.89,1.27,0.14,94.9,-11.5,1.9
2.18,0.0,0.0,0.75,0.5,0.0,0.0,0.25,0.0,0.75,1.5,1.75,0.75,0.25,0.77,0.52,0.14,89.22,7.7,-47.1,1.25,0.0,1.75,0.0,1.0,0.0,0.5,0.75,0.25,0.0,0.75,0.25,0.75,0.14,0.39,0.27,97.05,-14.5,12.2
2.2,0.0,0.0,0.75,0.25,0.0,0.0,1.0,0.0,0.0,1.5,0.75,0.0,0.25,1.08,0.33,0.14,82.65,7.5,-30.2,1.25,0.0,1.25,0.0,1.25,0.0,0.5,0.75,0.25,0.0,0.5,0.25,0.75,-0.11,0.2,0.14,102.76,-12.1,13.4
2.22,0.0,0.0,0.0,0.5,0.0,0.0,0.5,0.0,0.75,1.5,1.75,0.0,0.5,1.27,0.2,0.08,87.57,2.5,-55.5,1.25,0.25,0.75,0.0,1.25,0.0,0.25,0.5,0.25,0.0,0.5,0.25,0.75,-0.3,0.14,0.27,101.44,-10.6,14.9
2.24,0.0,0.0,0.0,0.5,0.0,0.0,0.5,0.0,1.0,1.5,1.75,0.0,0.25,1.14,0.33,0.27,85.81,3.8,-52.0,1.5,0.0,0.75,0.0,1.25,0.0,0.5,0.25,0.25,0.0,0.5,0.25,0.75,-0.3,0.33,0.52,97.22,-13.1,17.1
2.26,0.0,0.0,0.0,0.5,0.0,0.0,0.5,0.0,0.75,1.5,1.75,0.75,0.25,0.77,0.33,0.14,88.67,4.1,-60.1,1.25,0.0,1.25,0.0,0.0,0.0,0.25,0.5,0.25,0.0,0.25,0.25,0.75,0.02,0.95,-0.05,86.95,-18.0,8.0
2.28,0.0,0.0,0.0,0.5,0.0,0.0,0.25,0.0,0.75,1.5,1.5,0.0,0.25,0.39,0.45,0.27,86.63,2.2,-53.5,1.25,0.0,0.5,0.0,0.5,0.0,0.5,0.5,0.25,0.0,0.5,0.25,0.75,0.52,1.33,-0.36,79.54,-12.1,1.1
2.3,0.0,0.0,0.0,0.5,0.0,0.0,0.0,0.0,0.75,1.5,1.25,0.5,0.25,0.2,0.83,0.27,86.27,1.7,-60.4,1.25,0.0,0.75,0.0,0.5,0.0,0.5,0.5,0.25,0.0,0.5,0.5,0.75,0.7,1.58,-0.73,76.08,-13.3,-1.1
2.32,0.0,0.0,0.0,0.0,0.0,0.0,0.25,0.0,0.0,0.0,0.25,0.0,0.0,0.33,0.89,0.27,54.07,17.9,-41.4,1.25,0.0,1.25,0.0,0.5,0.0,0.5,0.25,0.25,0.0,0.75,0.25,0.75,0.45,1.33,-0.67,78.29,-17.0,7.9
2.34,0.0,0.0,0.0,0.5,0.0,0.0,0.0,0.0,0.75,1.5,0.25,0.0,0.25,0.52,0.77,0.39,45.14,-1.9,-48.4,1.0,0.0,1.0,0.0,0.25,0.0,0.5,0.25,0.25,0.0,0.5,0.25,0.75,0.45,1.08,-0.23,76.16,-16.5,1.8
2.36,0.0,0.0,0.0,0.0,0.0,0.0,0.5,0.0,0.0,0.0,0.0,0.0,0.0,0.52,0.7,0.02,20.89,32.4,27.3,0.75,0.0,1.0,0.0,0.25,0.0,0.5,0.25,0.25,0.0,0.75,0.25,0.75,0.58,0.89,-0.17,71.94,-15.3,-7.2
2.38,0.0,0.0,0.0,0.0,0.0,0.0,0.0,0.0,0.0,0.0,0.0,0.0,0.0,1.02,0.64,0.14,5.2,0.0,0.0,1.0,0.0,1.0,0.0,0.0,0.0,0.25,0.0,0.25,0.0,0.5,0.25,0.75,0.52,0.77,-0.17,63.88,-19.7,-0.1
2.4,0.0,0.0,0.0,0.0,0.0,0.0,0.0,0.0,0.0,0.0,0.0,0.0,0.0,1.2,0.58,0.77,0.0,0.0,0.0,1.0,0.0,1.0,0.0,0.0,0.0,0.5,0.25,0.25,0.0,0.75,0.25,0.75,0.33,0.77,-0.23,61.26,-17.5,-5.7
2.42,0.0,0.0,0.0,0.0,0.0,0.0,0.0,0.0,0.0,0.0,0.0,0.0,0.0,1.27,0.95,0.77,0.0,0.0,0.0,1.0,0.0,0.75,0.0,0.0,0.0,0.25,0.25,0.25,0.0,0.5,0.25,0.75,0.08,0.77,-0.17,57.22,-16.1,-6.8
2.44,0.0,0.0,0.0,0.0,0.0,0.0,0.0,0.0,0.25,0.0,0.0,0.0,0.0,1.2,1.27,0.7,0.0,12.1,-38.5,1.25,0.0,1.25,0.0,0.0,0.0,0.25,0.25,0.0,0.0,0.5,0.25,0.75,-0.05,0.77,-0.17,60.1,-20.0,8.6
2.46,0.0,0.0,0.0,0.0,0.0,0.0,0.0,0.0,0.25,0.0,0.0,0.0,0.0,1.2,1.14,0.83,0.0,12.1,-38.5,1.25,0.0,0.75,0.0,0.0,0.0,0.5,0.0,0.0,0.5,0.25,0.25,0.75,-0.05,0.83,-0.23,59.79,-16.3,0.0
2.48,0.0,0.0,0.0,0.0,0.0,0.0,0.0,0.0,0.0,0.0,0.0,0.0,0.0,1.08,0.83,1.39,0.0,0.0,0.0,1.0,0.0,0.75,0.0,0.5,0.0,0.5,0.25,0.0,0.0,0.5,0.25,0.75,0.02,0.95,-0.3,62.31,-14.2,4.1
2.5,0.0,0.0,0.0,0.0,0.0,0.0,0.0,0.0,0.0,0.0,0.0,0.0,0.0,1.02,0.77,0.64,0.0,0.0,0.0,1.25,0.0,0.75,0.0,0.0,0.0,0.5,0.25,0.0,0.0,0.25,0.25,0.75,0.02,1.02,-0.23,60.77,-18.4,7.5
2.52,0.0,0.0,0.0,0.0,0.0,0.0,0.0,0.0,0.0,0.0,0.0,0.0,0.0,0.7,0.45,0.14,0.0,0.0,0.0,1.25,0.0,1.25,0.0,0.0,0.0,0.5,0.5,0.25,0.0,0.25,0.25,0.75,0.02,0.95,-0.23,64.6,-18.4,8.5
2.54,0.0,0.0,0.0,0.0,0.0,0.0,0.0,0.0,0.0,0.0,0.0,0.0,0.0,0.58,0.33,0.02,0.0,0.0,0.0,1.0,0.0,1.0,0.0,0.0,0.0,0.25,0.0,0.25,0.0,0.5,0.25,0.75,0.02,0.89,-0.23,62.61,-19.7,-0.1
2.56,0.0,0.0,0.0,0.0,0.0,0.0,0.0,0.0,0.0,0.0,0.0,0.0,0.0,0.39,0.33,-0.3,0.0,0.0,0.0,0.75,0.0,0.75,0.0,0.0,0.0,0.25,0.0,0.25,0.0,0.25,0.25,0.75,0.02,0.83,-0.23,58.38,-17.8,-6.7
2.58,0.0,0.0,0.0,0.25,0.0,0.0,0.0,0.0,0.75,1.5,0.0,0.25,0.0,0.39,0.33,-0.36,12.74,-2.8,-55.9,0.75,0.0,0.75,0.0,0.0,0.0,0.5,0.25,0.25,0.0,0.5,0.25,0.75,0.08,0.77,-0.3,56.38,-15.4,-12.3
2.6,0.0,0.0,0.5,0.0,0.0,0.0,0.0,0.0,0.0,0.0,0.0,0.0,0.0,0.52,0.27,-0.23,17.85,38.2,60.9,1.0,0.0,0.5,0.0,0.25,0.0,0.5,0.0,0.25,0.0,0.25,0.25,0.75,0.2,0.77,-0.36,54.24,-16.1,1.4
2.62,0.0,0.0,0.0,0.0,0.0,0.0,0.0,0.0,0.0,0.0,0.0,0.0,0.0,0.7,0.27,0.02,16.61,0.0,0.0,1.0,0.0,1.0,0.0,0.0,0.0,0.25,0.0,0.25,0.75,0.5,0.5,0.75,0.2,0.77,-0.48,60.11,-13.7,-17.5
2.64,0.0,0.0,0.0,0.0,0.0,0.0,0.0,0.0,0.0,0.0,0.0,0.0,0.0,0.83,0.45,-0.05,9.42,0.0,0.0,1.25,0.0,0.5,0.0,0.0,0.0,0.5,0.25,0.25,0.0,0.5,0.25,0.75,0.14,0.77,-0.42,61.24,-16.3,-4.0
2.66,0.0,0.0,0.0,0.0,0.0,0.0,0.0,0.0,0.25,0.0,0.0,0.0,0.0,0.7,0.58,-0.23,5.89,12.1,-38.5,1.25,0.0,0.5,0.0,0.0,0.0,0.25,0.0,0.25,0.0,0.5,0.25,0.75,0.08,0.83,-0.42,61.57,-18.1,-2.6
2.68,0.0,0.0,0.0,0.0,0.0,0.0,0.0,0.0,0.0,0.0,0.0,0.0,0.0,0.64,0.77,-0.17,1.55,0.0,0.0,1.0,0.0,0.75,0.0,0.25,0.0,0.25,0.25,0.0,0.0,0.5,0.25,0.75,0.08,0.89,-0.42,60.0,-14.9,-0.2
2.7,0.0,0.0,0.0,0.0,0.0,0.0,0.0,0.0,0.0,0.0,0.0,0.0,0.0,0.52,0.83,-0.11,0.95,0.0,0.0,0.75,0.0,1.0,0.0,0.0,0.0,0.25,0.0,0.0,0.0,0.5,0.25,0.75,0.08,0.95,-0.42,56.97,-19.2,-4.1
2.72,0.0,0.0,0.0,0.0,0.0,0.0,0.0,0.0,0.0,0.5,0.0,0.0,0.0,0.39,0.83,-0.05,3.7,-15.7,-75.5,0.75,0.0,0.75,0.0,0.0,0.0,0.5,0.0,0.0,0.0,0.5,0.25,0.75,0.02,0.95,-0.36,53.35,-18.2,-8.2
2.74,0.0,0.0,0.0,0.0,0.0,0.0,0.0,0.0,0.0,0.0,0.0,0.0,0.0,0.2,0.83,-0.05,2.26,0.0,0.0,1.0,0.25,0.75,0.0,0.0,0.0,0.25,0.25,0.25,0.0,0.5,0.25,0.75,0.02,0.95,-0.36,55.82,-15.9,-0.1
2.76,0.0,0.0,0.0,0.0,0.0,0.0,0.0,0.0,0.0,0.0,0.0,0.0,0.0,0.14,0.83,-0.05,1.09,0.0,0.0,1.25,0.0,0.5,0.0,0.0,0.0,0.25,0.0,0.0,0.0,0.5,0.25,0.75,0.02,0.95,-0.36,54.62,-18.5,0.0
2.78,0.0,0.0,0.0,0.0,0.0,0.0,0.0,0.0,0.0,0.0,0.0,0.0,0.0,0.14,0.89,-0.05,0.0,0.0,0.0,1.0,0.0,0.75,0.0,0.0,0.0,0.5,0.25,0.25,0.0,0.75,0.25,0.75,0.02,0.95,-0.42,59.11,-16.3,-9.8
2.8,0.0,0.0,0.0,0.0,0.0,0.0,0.0,0.0,0.0,0.0,0.0,0.0,0.0,0.14,0.89,-0.17,0.0,0.0,0.0,0.75,0.0,0.5,0.0,0.25,0.0,0.25,0.0,0.0,0.0,0.5,0.5,0.75,0.02,0.89,-0.42,57.07,-13.6,-16.9
2.82,0.0,0.0,0.0,0.0,0.0,0.0,0.0,0.0,0.0,0.0,0.0,0.0,0.0,0.33,0.83,-0.3,0.0,0.0,0.0,0.5,0.0,0.5,0.0,0.0,0.0,0.5,0.0,0.0,0.0,0.25,0.25,0.75,0.02,0.89,-0.36,50.5,-15.3,-18.8
2.84,0.0,0.0,0.0,0.0,0.0,0.0,0.0,0.0,0.0,0.0,0.0,0.0,0.0,0.45,0.83,-0.36,0.0,0.0,0.0,1.0,0.0,0.5,0.0,0.0,0.0,0.25,0.0,0.25,0.0,0.5,0.25,0.75,0.02,0.89,-0.36,47.62,-16.9,-9.6
2.86,0.0,0.0,0.0,0.0,0.0,0.0,0.0,0.0,0.0,0.0,0.0,0.0,0.0,0.45,0.77,-0.42,0.0,0.0,0.0,1.25,0.0,0.75,0.0,0.0,0.0,0.25,0.0,0.0,0.0,0.25,0.25,0.75,0.08,0.83,-0.36,47.21,-20.6,10.2
2.88,0.0,0.0,0.0,0.0,0.0,0.0,0.0,0.0,0.0,0.0,0.0,0.0,0.0,0.39,0.77,-0.48,0.0,0.0,0.0,1.0,0.0,0.5,0.0,0.0,0.0,0.25,0.0,0.0,0.0,0.5,0.25,0.75,0.08,0.83,-0.36,48.02,-17.2,-7.3
2.9,0.0,0.0,0.0,0.0,0.0,0.0,0.0,0.0,0.0,0.0,0.0,0.0,0.0,0.39,0.7,-0.55,0.0,0.0,0.0,1.25,0.0,0.5,0.0,0.0,0.0,0.5,0.25,0.0,0.0,0.5,0.25,0.75,0.08,0.83,-0.36,51.4,-16.5,-1.6
2.92,0.0,0.0,0.0,0.0,0.0,0.0,0.0,0.0,0.0,0.0,0.0,0.0,0.0,0.39,0.77,-0.55,0.0,0.0,0.0,0.75,0.0,0.5,0.0,0.0,0.0,0.5,0.0,0.0,0.0,0.5,0.25,0.75,0.08,0.83,-0.36,50.07,-16.5,-14.2
2.94,0.0,0.0,0.0,0.0,0.0,0.0,0.0,0.0,0.75,0.75,0.0,0.0,0.0,0.39,0.77,-0.48,8.36,-1.8,-57.1,0.75,0.0,0.5,0.0,0.0,0.0,0.25,0.0,0.0,0.0,0.5,0.5,0.75,0.08,0.89,-0.36,49.01,-15.2,-23.5
2.96,0.0,0.0,0.0,0.5,0.0,0.0,0.0,0.0,0.75,0.75,0.75,0.0,0.25,0.39,0.77,-0.48,24.61,3.5,-46.0,1.0,0.0,1.25,0.0,0.0,0.0,0.25,0.25,0.0,0.0,0.5,0.25,0.75,0.14,0.89,-0.42,52.9,-19.1,3.6
2.98,0.0,0.0,0.0,0.5,0.0,0.0,0.0,0.0,0.75,0.75,0.75,0.0,0.25,0.39,0.7,-0.42,39.98,3.5,-46.0,0.75,0.0,0.5,0.0,0.0,0.0,0.5,0.0,0.0,0.0,0.5,0.25,0.75,0.14,0.95,-0.42,51.24,-16.5,-14.2
3.0,0.0,0.0,0.0,0.0,0.0,0.0,0.0,0.0,0.0,0.0,0.0,0.0,0.0,0.39,0.7,-0.36,33.97,0.0,0.0,0.75,0.0,0.5,0.0,0.0,0.0,0.25,0.0,0.0,0.0,0.5,0.25,0.75,0.2,0.95,-0.42,49.76,-15.8,-16.0
3.02,0.0,0.0,0.0,0.0,0.0,0.0,0.0,0.0,0.0,0.0,0.0,0.0,0.0,0.39,0.77,-0.3,23.78,0.0,0.0,1.0,0.0,0.75,0.0,0.0,0.0,0.25,0.25,0.0,0.0,0.5,0.25,0.75,0.2,0.95,-0.42,50.45,-16.4,-4.6
3.04,0.0,0.0,0.0,0.0,0.0,0.0,0.0,0.0,0.0,0.0,0.0,0.0,0.0,0.39,0.77,-0.3,11.03,0.0,0.0,0.5,0.0,0.75,0.0,0.0,0.0,0.5,0.0,0.0,0.0,0.5,0.25,0.75,0.27,0.95,-0.42,49.77,-16.9,-16.5
3.06,0.0,0.0,0.0,0.0,0.0,0.0,0.0,0.0,0.0,0.0,0.0,0.0,0.0,0.39,0.77,-0.3,3.69,0.0,0.0,0.75,0.0,0.75,0.0,0.0,0.0,0.5,0.25,0.0,0.0,0.5,0.25,0.75,0.27,0.95,-0.42,51.21,-15.7,-10.4
3.08,0.0,0.0,0.0,0.0,0.0,0.0,0.0,0.0,0.0,0.0,0.0,0.0,0.0,0.39,0.77,-0.3,0.0,0.0,0.0,1.0,0.0,0.5,0.0,0.0,0.0,0.5,0.0,0.0,0.0,0.25,0.25,0.75,0.27,0.89,-0.42,49.22,-18.4,-0.3
3.1,0.0,0.0,0.0,0.0,0.0,0.0,0.0,0.0,0.0,0.0,0.0,0.0,0.0,0.45,0.77,-0.23,0.0,0.0,0.0,1.25,0.0,0.5,0.0,0.0,0.0,0.25,0.0,0.0,0.25,0.5,0.25,0.75,0.2,0.83,-0.42,51.89,-16.1,-5.2
3.12,0.0,0.0,0.0,0.0,0.0,0.0,0.0,0.0,0.0,0.0,0.0,0.0,0.0,0.52,0.77,-0.23,0.0,0.0,0.0,0.75,0.0,0.5,0.0,1.25,0.0,0.25,0.0,0.0,0.0,0.5,0.75,0.75,0.14,0.83,-0.36,59.54,-9.3,-4.7
3.14,0.0,0.0,0.0,0.0,0.0,0.0,0.0,0.0,0.0,0.0,0.0,0.0,0.0,0.58,0.77,-0.3,0.0,0.0,0.0,1.25,0.0,0.25,0.0,0.0,0.0,0.25,0.0,0.0,0.0,0.25,0.25,0.75,0.08,0.83,-0.36,57.24,-17.3,1.0
3.16,0.0,0.0,0.0,0.5,0.0,0.0,0.0,0.0,0.75,1.0,0.25,0.75,0.0,0.64,0.83,-0.3,14.28,3.5,-53.4,1.0,0.0,0.5,0.0,0.0,0.0,0.5,0.0,0.0,0.0,0.5,0.25,0.75,0.08,0.83,-0.36,56.44,-17.8,-6.0
3.18,0.0,0.0,0.0,0.0,0.0,0.0,0.0,0.0,0.75,1.25,1.0,0.5,0.25,0.64,0.83,-0.3,34.21,0.1,-75.1,0.5,0.0,0.5,0.0,0.0,0.0,0.25,0.0,0.0,0.0,0.5,0.25,0.75,0.02,0.83,-0.36,48.75,-14.1,-26.2
3.2,0.0,0.0,0.0,0.5,0.0,0.0,0.0,0.0,0.75,0.75,0.75,0.25,0.25,0.64,0.83,-0.42,49.92,3.9,-50.9,1.0,0.0,0.5,0.0,0.0,0.0,0.5,0.0,0.0,0.0,0.25,0.25,0.75,0.02,0.89,-0.36,46.21,-18.4,-0.3
3.22,0.0,0.0,0.0,0.5,0.0,0.0,0.0,0.0,0.75,1.0,0.75,0.5,0.25,0.7,0.83,-0.42,62.54,2.9,-56.4,1.25,0.0,0.5,0.0,0.0,0.0,0.25,0.0,0.0,0.0,0.5,0.25,0.75,-0.05,0.89,-0.36,46.8,-18.5,0.0
3.24,0.0,0.0,0.0,0.5,0.0,0.0,0.0,0.0,0.75,1.0,0.75,0.75,0.25,0.7,0.77,-0.36,71.69,3.3,-59.7,0.75,0.0,0.5,0.0,0.0,0.0,0.25,0.0,0.0,0.0,0.5,0.25,0.75,-0.05,0.95,-0.36,46.44,-15.8,-16.0
3.26,0.0,0.0,0.0,0.5,0.0,0.0,0.0,0.0,0.75,1.0,0.75,0.75,0.25,0.64,0.77,-0.36,74.82,3.3,-59.7,1.25,0.0,0.25,0.0,0.0,0.0,0.25,0.0,0.0,0.0,0.5,0.0,0.75,-0.05,0.95,-0.36,45.45,-17.5,4.2
3.28,0.0,0.0,0.0,0.5,0.0,0.0,0.0,0.0,0.75,1.0,0.75,0.75,0.25,0.58,0.77,-0.36,76.6,3.3,-59.7,1.0,0.0,0.5,0.0,0.0,0.0,0.5,0.0,0.0,0.25,0.5,0.25,0.75,-0.05,0.95,-0.36,47.46,-15.4,-11.1
3.3,0.0,0.0,0.0,0.5,0.0,0.0,0.0,0.0,0.75,1.25,0.75,0.75,0.25,0.45,0.77,-0.36,79.31,2.2,-60.7,1.0,0.0,0.5,0.0,0.0,0.0,0.25,0.0,0.0,0.0,0.5,0.25,0.75,0.02,0.95,-0.36,47.39,-17.2,-7.3
3.32,0.0,0.0,0.0,0.5,0.0,0.0,0.0,0.0,0.75,0.0,0.75,0.0,0.25,0.39,0.77,-0.36,68.2,9.9,-36.1,0.75,0.0,0.5,0.0,0.0,0.0,0.25,0.0,0.0,0.0,0.5,0.25,0.5,0.08,0.95,-0.3,45.16,-18.7,-6.6
3.34,0.0,0.0,0.0,0.0,0.0,0.0,0.0,0.0,0.25,0.5,0.0,0.0,0.0,0.39,0.77,-0.42,49.0,-6.4,-63.3,0.5,0.0,0.5,0.0,0.0,0.0,0.25,0.0,0.0,0.0,0.5,0.25,0.5,0.14,0.95,-0.36,40.77,-17.1,-17.0
3.36,0.0,0.0,0.0,0.0,0.0,0.0,0.0,0.0,0.0,0.0,0.0,0.0,0.0,0.52,0.77,-0.36,25.38,0.0,0.0,0.5,0.25,0.5,0.0,0.0,0.0,0.25,0.0,0.0,0.0,0.5,0.25,0.5,0.14,0.95,-0.36,38.94,-16.7,-5.5
3.38,0.0,0.0,0.0,0.0,0.0,0.0,0.0,0.0,0.5,0.0,0.0,0.0,0.0,0.52,0.7,-0.3,9.18,12.1,-38.5,1.0,0.0,0.5,0.0,0.0,0.0,0.0,0.0,0.0,0.0,0.25,0.25,0.5,0.14,0.95,-0.36,38.77,-20.4,8.4
3.4,0.0,0.0,0.0,0.5,0.0,0.0,0.5,0.0,0.75,1.25,0.75,0.5,0.25,0.52,0.7,-0.3,19.83,3.5,-52.8,0.75,0.0,0.5,0.0,0.0,0.0,0.25,0.0,0.0,0.0,0.5,0.25,0.5,0.14,0.89,-0.36,38.77,-18.7,-6.6
3.42,0.0,0.0,0.0,0.5,0.0,0.0,0.0,0.0,0.75,1.25,0.75,0.25,0.25,0.52,0.77,-0.23,35.17,1.3,-54.1,0.75,0.0,0.5,0.0,0.25,0.5,0.25,0.0,0.0,0.5,0.5,0.25,0.5,0.14,0.89,-0.36,46.16,-7.5,-6.0
3.44,0.0,0.0,0.0,0.5,0.0,0.0,0.0,0.0,0.75,1.5,0.75,0.25,0.25,0.52,0.77,-0.23,52.46,0.2,-55.5,0.5,0.0,0.75,0.0,0.0,0.0,0.25,0.0,0.0,0.0,0.5,0.0,0.5,0.14,0.89,-0.36,44.5,-20.3,1.2
3.46,0.0,0.0,0.0,0.5,0.0,0.0,0.0,0.0,0.75,1.0,0.75,0.25,0.25,0.58,0.77,-0.3,57.26,2.5,-52.6,0.5,0.25,0.5,0.0,0.0,0.0,0.25,0.0,0.0,0.0,0.5,0.25,0.5,0.08,0.89,-0.3,44.19,-16.7,-5.5
3.48,0.0,0.0,0.0,0.5,0.0,0.0,0.0,0.0,0.75,1.0,0.75,0.5,0.25,0.64,0.83,-0.3,60.97,2.9,-56.4,0.5,0.0,0.25,0.0,0.0,0.0,0.25,0.25,0.0,0.0,0.5,0.25,0.5,0.02,0.89,-0.3,40.12,-11.2,-27.9
3.5,0.0,0.0,0.0,0.0,0.0,0.0,0.25,0.0,0.0,0.0,0.75,0.0,0.25,0.58,0.89,-0.36,46.84,7.4,-72.3,1.0,0.0,0.5,0.0,0.0,0.0,0.0,0.0,0.0,0.0,0.5,0.25,0.5,-0.05,0.89,-0.3,40.04,-19.5,0.8
3.52,0.0,0.0,0.0,0.0,0.0,0.0,0.0,0.0,0.0,0.0,0.0,0.0,0.0,0.58,0.89,-0.36,29.16,0.0,0.0,1.0,0.0,0.75,0.0,0.0,0.0,0.25,0.0,0.0,0.0,0.5,0.25,0.5,-0.11,0.89,-0.3,41.9,-21.6,6.9
3.54,0.0,0.0,0.0,0.0,0.0,0.0,0.0,0.0,0.0,0.0,0.0,0.0,0.0,0.52,0.89,-0.36,12.81,0.0,0.0,0.75,0.0,0.5,0.0,0.0,0.0,0.25,0.0,0.0,0.0,0.5,0.25,0.5,-0.11,0.95,-0.3,43.31,-18.7,-6.6
3.56,0.0,0.0,0.0,0.0,0.0,0.0,0.0,0.0,0.0,0.0,0.0,0.0,0.0,0.52,0.89,-0.36,3.2,0.0,0.0,0.5,0.0,0.5,0.0,0.0,0.0,0.25,0.0,0.0,0.0,0.5,0.25,0.5,-0.11,1.02,-0.3,42.1,-17.1,-17.0
3.58,0.0,0.0,0.0,0.0,0.0,0.0,0.0,0.0,0.0,0.0,0.0,0.0,0.0,0.45,0.83,-0.36,0.0,0.0,0.0,0.5,0.0,0.0,0.0,0.0,0.0,0.25,0.0,0.0,0.0,0.5,0.75,0.5,-0.11,1.02,-0.3,39.92,-10.7,-54.0
3.6,0.0,0.0,0.0,0.5,0.0,0.0,0.0,0.0,0.75,0.75,0.0,0.25,0.0,0.39,0.83,-0.36,6.19,3.7,-36.3,0.75,0.0,0.75,0.0,0.0,0.5,0.25,0.0,0.0,0.25,0.5,0.75,0.5,-0.05,1.08,-0.3,46.55,-11.8,-14.5
3.62,0.0,0.0,0.0,0.5,0.0,0.0,0.0,0.0,0.75,1.5,0.75,0.5,0.25,0.39,0.83,-0.36,26.93,0.7,-58.7,0.5,0.0,0.5,0.0,0.0,0.0,0.25,0.0,0.0,0.0,0.5,0.25,0.5,0.02,1.02,-0.36,44.44,-17.1,-17.0
3.64,0.0,0.0,0.0,0.5,0.0,0.0,0.0,0.0,0.75,1.5,0.75,0.5,0.25,0.45,0.83,-0.36,45.36,0.7,-58.7,0.5,0.0,0.0,0.0,0.0,0.0,0.0,0.0,0.0,0.0,0.5,0.25,0.5,0.02,1.02,-0.36,39.96,-9.7,-43.5
3.66,0.0,0.0,0.0,0.5,0.0,0.0,0.0,0.0,0.5,1.25,0.75,0.5,0.25,0.39,0.83,-0.3,59.16,1.1,-58.9,0.5,0.0,0.5,0.0,0.0,0.0,0.0,0.0,0.0,0.0,0.5,0.25,0.5,0.08,0.95,-0.36,35.25,-16.3,-19.4
3.68,0.0,0.0,0.0,0.5,0.0,0.0,0.0,0.0,0.75,1.25,0.75,0.5,0.25,0.39,0.83,-0.3,67.04,1.7,-57.6,0.5,0.0,0.5,0.0,0.0,0.0,0.25,0.0,0.0,0.0,0.5,0.25,0.5,0.08,0.95,-0.36,34.47,-17.1,-17.0
3.7,0.0,0.0,0.0,0.5,0.0,0.0,0.0,0.0,0.75,1.25,0.75,0.5,0.25,0.39,0.83,-0.3,70.82,1.7,-57.6,0.5,0.0,0.25,0.0,0.0,0.0,0.0,0.0,0.0,0.0,0.5,0.25,0.5,0.08,0.95,-0.36,31.51,-13.4,-29.9
3.72,0.0,0.0,0.0,0.5,0.0,0.0,0.0,0.0,0.75,1.5,0.75,0.5,0.25,0.39,0.83,-0.3,74.66,0.7,-58.7,0.5,0.0,0.5,0.0,0.0,0.0,0.0,0.0,0.0,0.0,0.5,0.25,0.5,0.02,0.89,-0.36,31.99,-16.3,-19.4
3.74,0.0,0.0,0.0,0.5,0.0,0.0,0.0,0.0,0.75,1.0,0.75,0.25,0.25,0.33,0.83,-0.3,74.86,2.5,-52.6,1.0,0.0,0.25,0.0,0.0,0.0,0.0,0.0,0.0,0.0,0.5,0.25,0.5,0.02,0.95,-0.3,33.44,-17.6,-5.4
3.76,0.0,0.0,0.0,0.5,0.0,0.0,0.0,0.0,0.75,1.25,0.75,0.25,0.25,0.33,0.89,-0.3,74.1,1.3,-54.1,0.5,0.0,0.0,0.0,0.25,0.0,0.0,0.25,0.0,0.0,0.5,0.25,0.5,0.02,0.95,-0.3,33.56,-5.1,-30.5
3.78,0.0,0.0,0.0,0.5,0.0,0.0,0.0,0.0,0.75,1.0,0.75,0.25,0.25,0.39,0.89,-0.3,69.17,2.5,-52.6,0.75,0.0,0.5,0.0,0.0,0.0,0.25,0.0,0.0,0.0,0.5,0.25,0.5,-0.05,0.95,-0.3,36.24,-18.7,-6.6
3.8,0.0,0.0,0.0,0.5,0.0,0.0,0.0,0.0,0.75,1.25,0.75,0.5,0.25,0.39,0.89,-0.3,68.13,1.7,-57.6,0.5,0.0,0.25,0.0,0.0,0.0,0.25,0.0,0.0,0.0,0.5,0.25,0.5,-0.05,0.95,-0.3,35.06,-14.5,-26.6
3.82,0.0,0.0,0.0,0.5,0.0,0.0,0.0,0.0,0.5,1.0,0.75,0.0,0.25,0.45,0.89,-0.3,60.62,1.2,-49.0,0.5,0.0,0.0,0.0,0.0,0.0,0.25,0.0,0.0,0.0,0.5,0.25,0.5,-0.05,0.95,-0.3,32.56,-11.2,-38.9
3.84,0.0,0.0,0.0,0.5,0.0,0.0,0.0,0.0,0.75,1.0,0.5,0.25,0.25,0.52,0.89,-0.23,55.33,1.9,-50.9,0.5,0.0,0.0,0.0,0.0,0.0,0.25,0.0,0.0,0.0,0.5,0.25,0.5,-0.05,0.95,-0.3,29.53,-11.2,-38.9
3.86,0.0,0.0,0.0,0.5,0.0,0.0,0.0,0.0,0.75,1.5,0.75,0.5,0.25,0.58,0.89,-0.23,56.7,0.7,-58.7,0.5,0.0,0.0,0.0,0.0,0.0,0.25,0.0,0.0,0.0,0.5,0.25,0.5,0.02,0.95,-0.3,29.6,-11.2,-38.9
3.88,0.0,0.0,0.0,0.5,0.0,0.0,0.0,0.0,0.75,1.0,0.5,0.25,0.25,0.64,0.89,-0.23,55.81,1.9,-50.9,0.5,0.0,0.0,0.0,0.25,0.0,0.25,0.0,0.0,0.0,0.5,0.25,0.5,0.08,0.95,-0.3,29.92,-9.2,-26.3
3.9,0.0,0.0,0.0,0.5,0.0,0.0,0.0,0.0,0.75,1.0,0.75,0.25,0.25,0.64,0.89,-0.23,56.59,2.5,-52.6,0.5,0.0,0.0,0.0,0.0,0.0,0.25,0.0,0.0,0.0,0.25,0.25,0.5,0.14,0.89,-0.3,27.67,-11.3,-33.3
3.92,0.0,0.0,0.0,0.5,0.0,0.0,0.0,0.0,0.75,1.0,0.25,0.0,0.25,0.64,0.89,-0.23,51.18,0.5,-43.5,0.5,0.0,0.25,0.0,0.25,0.0,0.0,0.25,0.0,0.0,0.75,0.5,0.5,0.14,0.89,-0.3,33.76,-8.7,-32.9
3.94,0.0,0.0,0.0,0.5,0.0,0.0,0.0,0.0,0.75,1.0,0.75,0.5,0.25,0.64,0.83,-0.23,53.28,2.9,-56.4,0.75,0.25,0.25,0.0,0.0,0.0,0.0,0.0,0.0,0.0,0.5,0.25,0.5,0.08,0.89,-0.3,36.39,-15.4,-4.3
3.96,0.0,0.0,0.0,0.5,0.0,0.0,0.0,0.0,0.75,1.0,0.75,0.0,0.25,0.58,0.83,-0.23,51.42,2.0,-48.2,0.5,0.0,0.5,0.0,0.0,0.0,0.0,0.0,0.0,0.0,0.5,0.25,0.5,0.02,0.95,-0.3,37.68,-16.3,-19.4
3.98,0.0,0.0,0.0,0.0,0.0,0.0,0.0,0.0,0.0,0.0,0.0,0.0,0.0,0.58,0.77,-0.23,34.93,0.0,0.0,0.5,0.0,0.0,0.0,0.0,0.0,0.25,0.0,0.0,0.0,0.5,0.25,0.5,-0.05,0.95,-0.3,34.77,-11.2,-38.9
4.0,0.0,0.0,0.0,0.0,0.0,0.0,0.0,0.0,0.0,0.0,0.0,0.0,0.0,0.52,0.77,-0.23,16.86,0.0,0.0,0.5,0.0,0.0,0.0,0.0,0.0,0.25,0.0,0.0,0.0,0.25,0.25,0.5,-0.05,0.95,-0.3,31.06,-11.3,-33.3
4.02,0.0,0.0,0.0,0.0,0.0,0.0,0.0,0.0,0.0,0.0,0.0,0.0,0.0,0.52,0.83,-0.23,0.85,0.0,0.0,0.5,0.0,0.5,0.0,0.0,0.0,0.0,0.0,0.0,0.0,0.5,0.25,0.5,-0.11,0.95,-0.23,30.4,-16.3,-19.4
4.04,0.0,0.0,0.0,0.0,0.0,0.0,0.0,0.0,0.0,0.0,0.0,0.0,0.0,0.52,0.83,-0.3,0.0,0.0,0.0,0.5,0.0,0.5,0.0,0.0,0.0,0.0,0.0,0.0,0.0,0.5,0.25,0.5,-0.17,1.02,-0.23,31.72,-16.3,-19.4
4.06,0.0,0.0,0.0,0.0,0.0,0.0,0.0,0.0,0.0,0.0,0.0,0.0,0.0,0.52,0.89,-0.3,0.0,0.0,0.0,0.5,0.0,0.5,0.0,0.0,0.0,0.25,0.0,0.0,0.25,0.5,0.75,0.5,-0.17,0.95,-0.23,38.63,-13.1,-36.6
