time,left pressure 0[N/cm²],left pressure 1[N/cm²],left pressure 2[N/cm²],left pressure 3[N/cm²],left pressure 4[N/cm²],left pressure 5[N/cm²],left pressure 6[N/cm²],left pressure 7[N/cm²],left pressure 8[N/cm²],left pressure 9[N/cm²],left pressure 10[N/cm²],left pressure 11[N/cm²],left pressure 12[N/cm²],left acceleration X[g],left acceleration Y[g],left acceleration Z[g],left total force[N],left center of pressure X[mm],left center of pressure Y[mm],right pressure 0[N/cm²],right pressure 1[N/cm²],right pressure 2[N/cm²],right pressure 3[N/cm²],right pressure 4[N/cm²],right pressure 5[N/cm²],right pressure 6[N/cm²],right pressure 7[N/cm²],right pressure 8[N/cm²],right pressure 9[N/cm²],right pressure 10[N/cm²],right pressure 11[N/cm²],right pressure 12[N/cm²],right acceleration X[g],right acceleration Y[g],right acceleration Z[g],right total force[N],right center of pressure X[mm],right center of pressure Y[mm]
0.02,0.0,0.0,0.0,0.5,0.0,0.0,0.0,0.0,0.5,0.0,0.0,0.0,0.0,-0.92,-1.23,1.64,0.0,14.7,11.1,2.75,2.0,6.5,6.0,6.25,4.75,2.0,5.75,2.5,4.0,3.75,1.75,1.25,0.14,0.14,0.95,742.39,-5.9,11.5
0.04,0.0,0.0,0.0,0.5,0.0,0.0,0.0,0.0,0.5,0.0,0.0,0.0,0.0,-0.73,-0.8,1.02,0.0,14.7,11.1,3.75,2.0,7.25,7.5,7.75,5.25,1.75,5.5,1.75,3.25,2.75,1.5,0.75,0.14,0.14,0.95,750.72,-7.1,22.6
0.06,0.0,0.5,0.0,1.0,0.0,0.0,0.0,0.0,0.5,0.0,1.0,0.0,0.25,-0.73,-0.73,0.58,0.0,11.4,-2.6,4.5,2.75,8.25,8.75,8.0,5.75,2.0,5.0,1.75,2.5,2.25,1.0,0.5,0.14,0.14,0.95,784.25,-8.7,31.3
0.08,0.0,0.5,0.0,0.5,0.0,0.0,0.25,0.0,1.0,0.5,1.0,0.75,0.25,-0.55,-0.61,0.7,0.0,8.0,-37.7,5.75,3.5,8.75,9.5,8.75,5.75,2.0,4.5,1.0,1.5,1.75,1.0,0.5,0.14,0.14,0.95,832.98,-10.1,39.2
0.1,0.0,0.0,0.25,0.5,0.0,0.0,0.25,0.0,0.5,0.0,1.0,0.0,0.25,-0.3,-0.55,1.02,0.0,13.6,-27.1,6.25,4.0,9.25,11.0,9.0,5.75,1.75,3.5,1.0,1.25,1.5,0.75,0.5,0.14,0.14,0.95,888.51,-11.3,44.1
0.12,0.0,0.5,0.0,0.5,0.0,0.0,0.0,0.0,0.75,1.5,0.0,0.75,0.0,-0.36,-0.42,1.2,0.0,1.8,-35.3,5.75,3.5,10.5,9.5,8.75,4.75,1.0,2.25,0.5,0.0,0.5,0.25,0.0,0.14,0.2,0.95,876.9,-13.9,54.9
0.14,0.0,0.5,0.0,0.5,0.0,0.0,0.0,0.0,0.75,1.5,0.0,0.75,0.0,-0.42,-0.23,1.08,3.51,1.8,-35.3,6.75,3.75,11.0,10.5,9.0,3.75,1.0,2.0,0.5,0.0,0.0,0.25,0.0,0.14,0.2,1.08,865.47,-15.4,58.2
0.16,0.0,0.5,0.0,0.5,0.0,0.0,0.0,0.0,0.5,0.0,1.25,0.0,0.25,-0.42,-0.05,1.02,19.81,10.3,-19.0,7.25,4.5,10.5,11.0,9.0,2.5,0.5,0.5,0.5,0.0,0.0,0.25,0.0,0.14,0.2,1.14,834.78,-17.2,63.0
0.18,0.0,0.0,0.0,0.75,0.0,0.0,0.0,0.0,0.75,0.25,0.0,0.0,0.0,-0.36,0.14,1.14,23.14,10.4,-1.0,7.75,4.5,11.0,10.0,9.0,2.25,0.25,0.5,0.5,0.0,0.0,0.0,0.0,0.08,0.27,1.2,815.63,-17.8,64.6
0.2,0.0,0.0,0.75,0.5,0.0,0.0,0.0,0.0,0.75,1.5,0.0,0.75,0.0,-0.36,0.2,1.39,41.77,7.1,-34.1,8.0,4.5,11.0,11.0,9.0,0.0,0.0,0.25,0.25,0.0,0.0,0.0,0.0,0.08,0.27,1.2,789.14,-19.9,67.2
0.22,0.0,0.0,0.5,0.5,0.0,0.0,0.25,1.0,0.75,1.25,1.0,0.75,0.25,-0.42,0.27,1.7,62.43,3.0,-45.7,8.0,4.5,11.5,9.5,8.0,0.0,0.25,0.0,0.25,0.0,0.0,0.0,0.0,0.08,0.33,1.27,755.93,-21.1,68.4
0.24,0.0,0.0,0.25,0.5,0.0,0.0,0.25,1.25,0.25,0.0,0.75,0.0,0.25,-0.48,0.39,2.14,69.99,2.6,-27.1,8.0,4.0,11.0,9.75,7.75,0.0,0.5,0.0,0.25,0.0,0.0,0.0,0.0,0.14,0.33,1.33,717.12,-21.2,68.0
0.26,0.0,0.0,0.0,0.5,0.0,0.0,0.0,0.0,0.75,0.5,0.0,0.5,0.0,-0.61,0.95,2.2,63.19,6.4,-40.0,7.25,3.0,9.75,7.75,6.25,0.0,0.5,0.0,0.25,0.0,0.0,0.0,0.0,0.33,0.45,1.58,636.17,-22.0,68.1
0.28,0.0,0.0,0.0,0.5,0.0,0.0,0.25,0.75,1.0,0.5,0.5,0.5,0.0,-0.48,1.7,2.27,58.77,3.6,-42.0,5.0,1.25,8.5,4.0,3.75,0.0,1.0,0.0,0.0,0.0,0.0,0.0,0.0,0.33,0.77,1.95,492.15,-24.7,67.7
0.3,0.0,0.0,0.5,0.5,0.0,0.0,0.25,1.25,0.75,1.0,0.75,0.75,0.25,-0.11,2.58,2.14,66.12,2.7,-42.9,2.5,0.25,6.5,1.25,0.25,0.0,0.75,0.0,0.0,0.0,0.0,0.0,0.0,0.45,1.83,2.77,317.28,-33.3,67.9
0.32,0.0,0.0,0.5,0.5,0.0,0.0,0.25,1.25,0.75,1.25,0.75,0.75,0.25,0.45,3.45,1.39,78.97,1.9,-44.3,1.0,0.0,3.25,0.0,0.0,0.0,0.25,0.0,0.0,0.0,0.0,0.0,0.0,-0.11,0.95,2.52,174.31,-37.4,67.9
0.34,0.0,0.0,0.0,0.5,0.0,0.0,0.0,1.25,0.75,1.0,1.0,0.5,0.25,0.83,4.39,0.89,89.31,-1.3,-53.1,1.25,0.0,2.0,0.0,0.0,0.0,0.0,0.0,0.5,0.0,0.0,0.0,0.0,0.27,-0.05,2.33,42.2,-33.8,59.3
0.36,0.0,0.0,0.0,0.5,0.0,0.0,0.0,0.0,0.75,1.5,0.75,0.75,0.25,0.52,4.58,0.2,88.83,1.2,-61.5,0.0,0.0,0.25,0.0,0.0,0.0,0.0,0.0,0.25,0.0,0.0,0.0,0.0,0.58,-0.61,2.77,0.0,-25.5,12.2
0.38,0.0,0.0,0.0,0.0,0.0,0.0,0.0,0.0,0.25,1.5,0.0,0.75,0.0,1.58,4.77,-0.36,74.71,-5.5,-82.1,0.0,0.0,0.25,0.0,0.0,0.0,0.0,0.0,0.0,0.0,0.0,0.0,0.0,0.64,-1.17,1.95,0.0,-38.2,60.9
0.4,0.0,0.0,0.0,0.0,0.0,0.0,0.0,0.75,1.75,0.0,0.75,0.0,0.25,-0.48,-0.86,0.83,65.15,3.6,-51.6,1.25,0.0,0.0,0.5,0.0,0.0,0.0,0.0,0.5,0.0,0.0,0.25,0.0,0.45,-0.92,1.27,0.0,-23.8,40.3
0.42,0.0,0.0,0.0,0.0,0.0,0.0,0.0,0.0,0.0,0.0,0.0,0.0,0.0,0.39,0.33,1.39,38.15,0.0,0.0,1.25,0.25,1.75,0.0,0.0,0.0,0.5,0.5,0.5,0.0,0.5,0.25,0.0,0.33,-0.73,0.77,0.0,-24.2,29.6
0.44,0.0,0.0,0.0,0.0,0.0,0.0,0.0,0.0,0.0,0.0,0.0,0.0,0.0,-0.36,0.39,2.14,16.15,0.0,0.0,1.25,0.0,1.75,0.0,0.0,0.0,0.75,0.5,0.5,0.0,0.5,0.25,0.0,0.27,-0.42,0.64,0.0,-25.0,26.0
0.46,0.0,0.0,0.0,0.0,0.0,0.0,0.0,0.0,0.75,6.0,0.0,4.5,0.0,-0.36,0.45,2.08,67.27,-4.0,-86.7,1.0,0.25,0.75,0.0,0.0,0.0,0.5,0.25,0.5,0.0,0.5,0.25,0.0,0.27,-0.23,0.64,0.0,-22.4,21.2
0.48,0.0,0.0,0.0,1.25,0.0,0.25,0.0,4.5,2.75,7.25,6.5,5.5,5.75,-0.17,0.14,1.14,228.97,-3.0,-73.2,1.25,0.25,1.0,0.0,0.0,0.0,0.25,0.5,0.5,0.0,0.5,0.25,0.0,0.2,-0.11,0.77,0.0,-21.5,24.0
0.5,0.0,0.0,0.0,1.75,0.0,0.75,0.5,6.0,3.5,7.5,7.5,5.5,6.0,-0.17,0.02,1.02,381.47,-2.8,-67.8,1.25,0.25,1.0,0.0,0.0,0.0,0.25,0.25,0.5,0.0,0.5,0.25,0.0,0.2,0.02,0.89,13.67,-23.8,27.9
0.52,0.0,0.5,0.0,1.75,0.0,0.75,0.5,6.5,4.0,7.5,7.5,5.75,6.75,-0.17,0.02,0.95,563.5,-2.7,-66.1,1.0,0.25,0.5,0.0,0.0,0.0,0.5,0.5,0.5,0.0,0.25,0.25,0.0,0.14,0.14,1.08,38.22,-19.2,20.6
0.54,0.0,0.5,0.75,2.5,0.0,1.25,0.75,6.5,4.5,7.5,7.75,5.5,6.5,-0.17,-0.05,0.95,695.56,-1.5,-59.5,1.0,0.25,0.75,0.0,0.0,0.0,0.5,0.5,0.5,0.0,0.5,0.25,0.0,0.14,0.27,1.33,57.2,-19.9,17.3
0.56,0.0,0.25,1.75,2.5,0.0,1.5,0.75,6.75,4.75,7.5,7.75,5.5,6.25,-0.17,-0.05,0.95,776.21,-0.8,-56.6,1.25,0.25,1.25,0.0,0.0,0.0,0.5,0.5,0.5,0.0,0.5,0.25,0.0,0.08,0.39,1.52,70.29,-22.7,26.2
0.58,0.0,0.25,1.75,1.75,0.0,1.5,1.0,6.75,4.5,6.75,7.5,5.25,6.0,-0.17,-0.05,0.95,794.26,-0.8,-57.5,1.0,0.25,0.75,0.0,0.0,0.0,0.5,0.25,0.5,0.0,0.5,0.25,0.0,0.14,0.52,1.77,70.81,-22.4,21.2
0.6,0.0,0.5,1.75,2.75,0.0,1.5,0.75,6.75,4.5,6.75,7.0,4.75,5.25,-0.17,-0.05,0.95,789.25,-0.4,-52.1,0.75,0.0,0.75,0.0,0.0,0.0,0.5,0.25,0.5,0.0,0.5,0.25,0.0,0.27,1.02,2.02,67.45,-22.3,9.2
0.62,0.0,0.5,1.75,2.75,0.0,2.0,1.0,6.5,4.0,6.0,6.75,3.75,5.25,-0.17,-0.05,0.95,755.42,-0.7,-49.1,0.75,0.0,1.0,0.0,0.0,0.0,0.5,0.25,0.5,0.0,0.5,0.25,0.0,0.2,1.39,2.08,60.97,-23.5,13.1
0.64,0.0,0.5,1.75,2.75,0.0,2.0,1.0,6.25,3.75,5.75,5.75,3.0,4.0,-0.17,0.02,0.95,686.21,-0.6,-44.9,1.25,0.0,1.25,0.0,0.0,0.0,0.5,0.0,0.5,0.0,0.5,0.25,0.0,0.02,1.83,2.64,57.71,-28.4,29.7
0.66,0.0,0.5,1.75,2.75,0.0,2.25,0.75,6.0,3.5,4.75,5.25,2.75,2.75,-0.17,0.02,0.95,596.84,-0.1,-40.2,0.75,0.0,1.25,0.0,0.0,0.0,0.25,0.0,0.5,0.0,0.5,0.25,0.0,-0.3,2.45,2.2,54.01,-27.3,20.2
0.68,0.0,0.5,1.75,3.75,0.0,2.75,0.75,6.0,3.25,4.75,4.5,2.0,2.75,-0.17,0.02,0.95,509.95,-0.4,-33.6,0.75,0.0,0.25,0.0,0.0,0.0,0.25,0.0,0.5,0.0,0.5,0.25,0.0,-0.67,3.33,0.45,48.48,-22.4,2.0
0.7,0.0,0.5,2.25,4.5,1.75,2.75,0.5,5.75,3.0,3.25,3.5,1.75,1.75,-0.17,0.02,0.95,430.26,1.0,-17.8,0.5,0.0,0.5,0.0,0.0,0.0,0.25,0.5,0.5,0.0,0.5,0.25,0.0,-0.8,4.83,0.33,45.14,-15.9,-7.7
0.72,0.0,1.0,2.25,4.5,3.25,2.75,0.75,5.75,2.75,3.25,3.0,1.25,1.5,-0.17,0.02,0.95,387.73,0.9,-8.7,1.0,0.0,0.5,0.0,1.25,0.0,0.0,0.25,0.5,0.0,0.5,0.25,0.0,-2.92,5.95,-0.67,50.46,-13.0,24.6
0.74,0.5,1.75,1.75,6.25,4.5,3.25,0.5,5.25,2.5,3.25,2.25,1.75,1.5,-0.17,0.02,0.95,395.75,1.4,0.9,0.0,0.0,0.0,0.0,0.0,0.0,0.0,0.0,0.0,0.0,0.25,1.5,0.5,-0.05,0.52,0.58,48.15,-3.9,-106.1
0.76,1.0,1.75,3.25,6.5,5.25,4.0,0.5,5.25,1.75,2.5,2.25,1.0,0.75,-0.17,0.02,0.95,424.01,3.2,14.0,0.0,0.0,0.0,0.0,0.0,0.0,0.0,0.0,0.5,7.25,2.75,6.0,6.25,-0.11,0.02,0.89,163.82,5.0,-93.3
0.78,2.0,2.5,4.25,8.0,6.25,4.25,0.5,5.0,1.75,2.0,2.0,0.75,0.5,-0.17,0.08,0.95,482.87,5.6,25.2,0.5,0.0,2.0,0.0,3.5,0.0,0.0,2.25,1.0,8.0,7.25,6.0,8.0,0.08,0.39,1.89,309.4,1.3,-62.2
0.8,2.25,3.25,5.0,9.0,7.0,4.25,0.5,4.5,1.5,1.5,1.5,0.75,0.5,-0.17,0.08,1.02,550.2,7.0,32.4,0.0,0.0,0.75,0.0,1.75,0.5,0.0,3.75,1.75,8.0,7.75,6.0,7.75,0.2,0.2,1.27,478.31,3.4,-71.8
0.82,3.5,4.25,5.25,9.25,7.75,4.75,0.25,4.5,1.5,1.5,1.5,0.75,0.25,-0.17,0.08,1.02,636.24,7.6,37.0,2.0,0.0,1.5,0.0,0.0,2.0,0.0,4.75,2.5,9.25,7.75,6.25,8.0,0.14,0.2,1.14,647.44,2.0,-63.8
0.84,4.5,4.75,6.0,10.5,7.75,5.0,0.25,3.5,0.75,1.5,1.25,0.75,0.25,-0.17,0.14,1.02,716.54,9.2,43.1,1.25,0.25,2.25,1.25,3.5,2.5,1.0,7.25,3.5,9.5,9.75,6.75,7.75,0.14,0.14,0.95,829.52,1.2,-49.6
0.86,5.0,5.0,6.0,10.5,0.0,4.75,0.0,3.0,0.75,1.5,1.25,0.75,0.25,-0.23,0.14,1.14,715.54,12.9,42.9,1.75,0.25,2.5,1.25,3.5,2.75,1.5,7.5,3.75,9.25,9.75,6.5,7.75,0.14,0.08,0.95,962.22,0.7,-46.7
0.88,6.0,5.75,5.5,10.5,0.0,4.25,0.0,3.0,0.75,1.5,1.25,0.5,0.25,-0.23,0.2,1.14,698.67,13.5,46.2,2.0,0.5,3.75,1.25,3.75,3.75,1.75,7.5,3.75,9.0,9.5,6.0,7.25,0.2,0.08,0.95,1058.19,0.0,-39.9
0.9,6.5,5.75,7.0,10.5,0.0,3.5,0.0,1.75,0.75,1.5,1.25,0.5,0.25,-0.23,0.2,1.2,666.95,16.3,50.3,2.25,0.75,4.75,1.5,5.0,4.25,2.0,7.5,3.75,8.25,8.75,5.5,6.25,0.2,0.08,0.95,1107.84,-0.9,-31.0
0.92,7.0,5.75,6.75,10.5,0.0,0.0,0.0,1.25,0.75,1.5,1.25,0.0,0.25,-0.23,0.2,1.2,621.52,20.7,55.9,2.5,1.0,5.0,2.75,5.25,4.75,2.0,7.5,3.5,7.75,8.0,4.5,5.5,0.2,0.08,0.95,1112.92,-1.5,-23.3
0.94,7.0,6.0,7.0,10.5,0.0,0.0,0.0,1.25,0.75,1.25,1.0,0.0,0.25,-0.3,0.33,1.39,583.93,21.1,58.0,2.5,1.0,5.0,3.5,5.5,4.75,2.0,7.0,3.0,7.0,7.25,3.5,4.5,0.2,0.08,0.95,1063.43,-2.0,-17.0
0.96,6.25,4.75,5.25,9.0,0.0,0.0,0.0,1.25,0.75,1.25,1.0,0.0,0.25,-0.48,0.39,1.52,519.57,20.3,55.2,3.0,1.25,6.25,3.75,6.0,4.75,2.0,6.5,2.75,5.5,6.0,3.0,3.5,0.2,0.14,0.95,1000.44,-3.9,-6.7
0.98,4.0,0.0,5.25,7.75,0.0,0.0,0.0,1.25,0.75,1.25,0.75,0.25,0.25,-0.73,0.45,1.7,412.49,20.8,40.6,4.0,1.25,6.5,4.5,6.25,3.0,1.5,5.75,1.75,2.75,4.75,1.0,2.5,0.2,0.14,0.95,885.26,-7.0,9.6
1.0,2.0,0.0,3.75,5.0,0.0,0.0,0.0,0.0,0.5,0.25,0.75,0.0,0.25,-0.61,1.2,2.77,292.89,24.3,47.3,3.25,1.5,6.75,4.0,3.75,2.5,2.0,4.75,1.75,1.5,2.75,0.5,0.75,0.14,0.14,0.95,708.72,-10.3,21.2
1.02,0.0,0.0,0.25,2.75,0.0,0.0,0.0,0.0,0.75,1.25,0.75,0.25,0.25,-0.73,1.27,3.45,179.51,8.6,-7.9,3.75,0.25,8.25,3.75,6.25,4.0,1.5,3.5,1.25,2.75,2.75,0.5,1.25,0.14,0.14,0.95,608.71,-9.0,21.6
1.04,0.0,0.0,1.75,0.75,0.0,0.0,0.0,0.0,0.25,0.0,0.75,0.0,0.25,-0.48,0.33,2.27,65.37,23.5,16.4,4.25,1.0,8.5,6.0,5.25,3.75,2.0,3.5,1.25,1.75,1.5,0.75,0.75,0.14,0.14,0.95,556.71,-11.6,31.6
1.06,0.0,0.0,0.0,0.0,0.0,0.0,0.0,0.0,0.25,0.75,0.0,0.0,0.0,-0.86,-0.55,1.95,0.0,-8.7,-66.3,5.0,1.0,8.75,6.25,5.25,3.0,2.0,2.5,1.0,1.25,1.5,0.75,0.5,0.14,0.14,0.95,529.54,-14.1,37.8
1.08,0.0,0.0,0.5,0.0,0.0,0.0,0.0,0.0,0.0,0.0,0.0,0.0,0.0,-1.05,-0.98,3.02,0.0,38.2,60.9,6.5,2.0,9.25,7.75,6.25,2.75,2.0,2.25,1.0,1.0,1.5,0.75,0.5,0.14,0.14,0.95,549.38,-15.2,43.7
1.1,0.0,0.0,0.0,0.0,0.0,0.0,0.0,0.0,0.0,0.0,0.0,0.0,0.0,-0.48,-1.17,1.95,0.0,0.0,0.0,7.25,2.25,10.0,7.75,6.25,3.0,1.75,2.0,1.0,1.25,1.5,0.5,0.75,0.14,0.14,0.95,597.19,-15.5,44.9
1.12,0.0,0.0,0.0,0.0,0.0,0.0,0.0,0.0,0.0,0.0,0.0,0.0,0.0,-0.55,-0.86,1.02,0.0,0.0,0.0,6.75,1.25,9.25,8.75,6.0,2.5,1.5,2.0,0.5,0.0,1.5,0.25,0.75,0.08,0.14,0.95,614.05,-16.6,48.6
1.14,0.0,0.0,0.0,0.0,0.0,0.0,0.0,0.0,0.0,0.0,0.0,0.0,0.0,-0.55,-0.73,0.58,0.0,0.0,0.0,7.25,2.25,9.75,8.0,6.75,2.75,1.75,1.75,0.5,0.5,0.75,0.25,0.0,0.08,0.2,0.95,631.84,-16.8,54.4
1.16,0.0,0.0,0.0,0.0,0.0,0.0,0.0,0.0,0.25,0.0,0.0,0.0,0.0,-0.55,-0.55,0.7,0.0,12.1,-38.5,7.75,3.5,11.0,9.75,6.5,2.5,1.0,0.75,0.5,0.0,0.5,0.5,0.0,0.08,0.2,1.02,664.15,-18.8,60.1
1.18,0.0,0.0,0.0,0.0,0.0,0.0,0.0,0.0,0.5,0.0,0.0,0.0,0.0,-0.61,-0.42,0.95,0.0,12.1,-38.5,9.0,4.0,12.5,11.0,8.0,2.5,1.0,0.75,0.5,0.0,0.75,0.25,0.75,0.08,0.2,1.08,747.18,-18.4,58.7
1.2,0.0,0.0,0.0,0.0,0.0,0.0,0.0,0.0,0.0,0.0,0.0,0.0,0.0,-0.67,-0.17,1.02,0.0,0.0,0.0,9.0,4.5,12.5,11.5,8.0,2.5,1.0,0.5,0.5,0.0,0.5,0.25,0.75,0.08,0.27,1.08,830.37,-18.6,60.2
1.22,0.0,0.0,0.0,0.0,0.0,0.0,0.0,0.0,0.25,0.25,0.0,0.0,0.0,-0.61,0.02,0.95,0.0,-1.8,-57.1,8.5,4.75,11.5,10.0,8.0,2.25,0.5,0.5,0.5,0.0,0.0,0.25,0.5,0.08,0.27,1.14,877.64,-18.4,62.6
1.24,0.0,0.0,0.0,0.0,0.0,0.0,0.0,0.0,0.5,0.0,0.0,0.0,0.0,-0.61,0.2,1.2,0.0,12.1,-38.5,9.25,5.0,13.5,11.0,8.0,0.0,0.75,0.5,0.5,0.0,0.5,0.25,0.75,0.02,0.27,1.14,908.74,-20.9,62.1
1.26,0.0,0.0,0.0,0.0,0.0,0.0,0.0,0.0,0.25,0.0,0.0,0.0,0.0,-0.61,0.33,1.45,0.0,12.1,-38.5,9.0,5.25,11.5,9.5,7.5,1.25,0.75,0.0,0.0,0.0,0.25,0.0,0.0,0.08,0.33,1.14,869.02,-20.5,68.4
1.28,0.0,0.0,0.0,0.0,0.0,0.0,0.0,0.0,0.0,0.0,0.0,0.0,0.0,-0.67,0.45,1.83,0.0,0.0,0.0,9.0,3.5,10.5,9.5,6.25,1.25,0.5,0.0,0.25,0.0,0.25,0.0,0.0,0.08,0.39,1.27,804.57,-21.1,67.3
1.3,0.0,0.0,0.0,0.0,0.0,0.0,0.0,0.0,0.25,0.0,0.0,0.0,0.0,-0.73,0.64,2.02,2.9,12.1,-38.5,8.0,3.5,10.0,7.75,6.5,0.0,0.5,0.0,0.0,0.0,0.0,0.0,0.0,0.2,0.45,1.39,709.55,-22.1,69.6
1.32,0.0,0.0,0.0,0.0,0.0,0.0,0.0,0.0,0.25,0.0,0.0,0.0,0.0,-0.8,0.83,2.33,3.23,12.1,-38.5,6.5,2.0,8.0,5.25,6.25,0.0,0.5,0.0,0.0,0.0,0.0,0.0,0.0,0.14,0.7,2.33,580.35,-21.5,68.5
1.34,0.0,0.0,0.0,0.0,0.0,0.0,0.0,0.0,0.25,0.0,0.0,0.0,0.0,-0.86,1.14,2.83,3.89,12.1,-38.5,4.0,0.25,5.25,2.0,3.75,1.0,0.5,0.0,0.0,0.0,0.0,0.0,0.0,0.14,1.52,2.77,404.51,-20.4,65.4
1.36,0.0,0.0,0.0,0.0,0.0,0.0,0.0,0.0,0.5,0.0,0.0,0.0,0.0,-0.86,1.7,2.7,5.45,12.1,-38.5,2.0,0.25,2.5,1.25,1.0,0.25,0.5,0.0,0.5,0.0,0.0,0.25,0.0,-0.3,1.39,3.27,259.34,-23.4,56.2
1.38,0.0,0.0,0.0,0.25,0.0,0.0,0.25,0.0,0.25,1.25,0.5,0.5,0.25,-0.23,2.77,2.14,22.62,-0.6,-65.7,1.25,0.0,0.25,1.0,0.0,0.0,0.75,0.0,0.0,0.0,0.5,0.0,0.5,0.02,-0.55,2.52,117.6,-20.5,28.0
1.4,0.0,0.0,0.0,0.5,0.0,0.0,0.0,1.25,0.75,1.25,0.5,0.25,0.25,0.14,3.64,1.39,46.19,-3.9,-49.0,1.0,0.0,2.0,0.0,2.5,0.0,0.5,0.0,0.0,0.0,0.25,0.0,0.25,0.77,-1.48,4.02,15.72,-16.4,50.0
1.42,0.0,0.0,0.0,0.5,0.0,0.0,0.0,1.25,0.75,1.25,0.5,0.0,0.25,0.45,4.64,0.2,65.64,-4.6,-45.7,1.25,0.25,0.75,1.0,0.0,0.0,0.75,0.25,0.5,0.0,0.25,0.0,0.25,0.39,-1.36,1.7,0.0,-21.5,37.5
1.44,0.0,0.0,0.0,0.5,0.0,0.0,0.0,1.25,0.75,0.25,0.5,0.0,0.25,1.08,5.58,0.14,72.24,-1.4,-37.2,1.25,0.25,2.0,1.0,1.5,0.0,0.5,0.0,0.5,0.0,0.25,0.25,0.5,0.33,-1.11,1.14,0.0,-18.3,38.0
1.46,0.0,0.0,0.0,0.5,0.0,0.0,0.25,1.0,0.0,1.5,0.5,0.5,0.0,0.77,3.33,0.83,75.95,-4.3,-50.8,1.0,0.25,1.5,0.25,2.5,0.0,0.5,0.0,0.5,0.0,0.25,0.0,0.25,0.2,-0.92,0.77,0.0,-14.4,45.2
1.48,0.0,0.0,0.25,0.0,0.0,0.0,1.25,1.0,0.0,0.0,2.0,0.0,0.0,-0.73,-1.42,0.89,73.71,8.8,-40.3,1.25,0.25,1.5,1.0,2.25,0.0,0.25,0.0,0.5,0.0,0.5,0.25,0.5,0.27,-0.73,0.77,0.0,-14.4,35.1
1.5,0.0,0.0,0.0,0.0,0.0,0.0,0.0,0.0,0.0,0.0,0.0,0.0,0.0,0.52,0.14,0.27,52.42,0.0,0.0,1.25,0.25,1.75,0.0,1.75,0.0,0.25,0.0,0.5,0.0,0.5,0.25,0.25,0.39,-0.55,0.83,16.11,-17.5,36.4
1.52,0.0,0.0,0.0,0.0,0.0,0.0,0.0,0.0,0.0,0.0,0.0,0.0,0.0,0.27,0.45,2.83,31.76,0.0,0.0,1.0,0.25,1.75,0.0,1.5,0.0,0.5,0.0,0.5,0.0,0.5,0.0,0.25,0.27,-0.36,1.02,35.64,-18.4,39.0
1.54,0.0,0.0,0.0,0.0,0.0,0.0,0.5,3.75,0.0,6.5,0.0,5.25,6.25,-0.67,0.39,2.77,141.32,-8.9,-86.2,1.25,0.25,1.75,0.0,1.25,0.0,0.25,0.0,0.5,0.0,0.5,0.25,0.5,0.08,-0.17,1.08,54.04,-18.1,29.2
1.56,0.0,0.25,0.0,0.0,0.0,0.75,0.25,6.0,3.25,7.5,7.5,5.5,6.75,-0.17,0.58,1.39,293.6,-4.1,-74.2,1.0,0.25,1.75,0.0,1.25,0.0,0.25,0.0,0.5,0.0,0.5,0.25,0.5,-0.17,0.08,1.27,74.24,-17.5,26.6
1.58,0.0,0.5,0.0,0.0,0.0,1.5,0.5,6.5,3.25,7.5,7.5,4.5,6.0,-0.17,-0.17,0.89,457.1,-4.6,-68.5,1.25,0.25,1.75,0.0,1.0,0.0,0.5,0.0,0.5,0.0,0.5,0.25,0.5,-0.48,0.27,1.7,92.77,-19.3,28.0
1.6,0.0,0.5,0.0,2.0,0.0,2.75,0.5,6.5,3.5,6.75,7.0,3.75,5.25,-0.23,0.02,0.95,590.8,-3.9,-56.3,1.0,0.25,1.25,0.0,1.25,0.0,0.25,0.0,0.5,0.0,0.25,0.25,0.0,-0.61,0.7,2.02,95.55,-18.9,42.0
1.62,1.0,0.5,1.0,0.0,0.0,3.5,0.5,6.5,4.0,6.0,6.25,2.75,3.75,-0.23,0.02,1.02,632.18,-3.0,-48.8,1.0,0.0,2.0,0.0,0.5,0.0,0.0,0.0,0.5,0.0,0.25,0.25,0.75,-0.67,1.39,2.27,92.23,-20.6,18.4
1.64,2.0,1.0,3.25,3.5,2.0,4.0,0.5,6.5,3.5,4.75,5.5,1.75,2.75,-0.17,0.02,1.02,652.02,1.8,-16.8,1.0,0.0,1.5,0.0,0.0,0.0,0.5,0.0,0.5,0.0,0.25,0.25,0.5,-0.36,2.02,2.27,77.67,-24.5,16.8
1.66,2.5,1.75,3.25,4.75,3.25,4.25,0.5,6.0,2.75,3.5,4.0,1.75,1.5,-0.17,0.08,0.95,656.44,3.3,-0.2,1.0,0.25,1.0,0.0,0.25,0.0,0.25,0.0,0.5,0.0,0.5,0.25,0.25,-0.05,2.52,2.2,69.07,-21.4,21.2
1.68,3.5,1.75,4.0,6.0,4.25,4.25,0.25,5.5,2.25,3.25,2.75,1.0,1.25,-0.17,0.08,0.95,681.01,5.0,12.8,1.25,0.0,0.5,0.0,0.25,0.0,0.5,0.0,0.5,0.0,0.5,0.25,0.25,0.27,3.02,1.77,57.48,-20.9,15.3
1.7,3.5,2.0,5.0,5.25,4.5,4.0,0.25,4.75,2.0,1.5,2.0,1.0,0.25,-0.11,0.08,1.02,668.48,7.6,24.9,1.0,0.25,1.0,0.0,0.25,0.0,0.5,0.0,0.5,0.0,0.5,0.25,0.5,0.14,3.08,0.83,57.63,-19.7,13.8
1.72,3.5,2.75,5.25,6.25,4.25,4.0,0.0,4.25,1.75,1.5,1.5,0.75,0.25,-0.17,0.08,1.02,650.99,8.5,30.9,1.0,0.25,0.75,0.0,0.25,0.0,0.5,0.0,0.5,0.0,0.5,0.0,0.25,-0.55,2.95,0.27,54.72,-21.4,27.4
1.74,3.5,3.0,4.25,5.5,3.75,2.25,0.0,3.25,1.5,1.5,1.25,0.75,0.25,-0.17,0.08,0.95,584.62,9.9,32.9,0.0,0.0,0.0,0.0,0.0,0.0,0.0,0.0,0.0,0.0,0.0,0.0,0.0,6.02,6.02,-3.8,34.64,0.0,0.0
1.76,3.5,3.0,0.0,4.5,0.0,2.25,0.0,3.0,1.0,1.5,1.25,0.75,0.25,-0.23,0.14,0.89,452.5,6.7,24.0,1.0,0.0,0.5,0.0,0.0,0.0,0.0,0.25,0.25,0.0,0.25,0.25,0.25,1.14,3.2,-0.11,28.82,-19.4,11.0
1.78,3.5,2.75,0.0,4.5,0.0,2.75,0.0,2.75,1.25,1.5,1.25,0.75,0.25,-0.23,0.14,0.77,343.8,6.3,23.3,0.75,0.25,0.5,0.0,1.25,0.0,0.25,0.5,0.25,0.0,0.25,0.25,0.0,-0.3,4.39,0.14,33.93,-10.7,30.7
1.8,3.5,3.25,0.0,5.5,0.0,2.75,0.0,2.25,1.0,1.5,1.0,0.75,0.25,-0.23,0.14,0.89,286.53,7.4,30.0,1.0,0.0,0.0,0.0,0.0,0.0,0.0,0.0,0.25,0.0,0.25,0.25,0.25,-1.05,0.7,1.52,33.06,-19.1,4.1
1.82,0.0,4.0,4.5,6.25,0.0,2.75,0.0,2.25,0.75,1.5,0.75,0.5,0.25,-0.23,0.14,0.95,277.84,10.0,33.1,1.25,0.25,0.5,0.0,0.0,0.25,0.0,0.25,0.25,0.0,0.25,0.25,0.25,-1.11,0.08,2.14,40.48,-17.1,25.1
1.84,0.0,3.5,5.25,5.5,0.0,2.25,0.0,1.75,1.0,1.5,0.5,0.5,0.25,-0.23,0.14,0.95,274.56,11.9,33.7,1.0,0.0,0.5,0.0,1.0,1.25,0.0,0.5,0.0,0.25,0.5,0.0,0.25,1.2,0.58,1.77,56.41,-2.0,23.0
1.86,5.0,3.25,5.5,5.75,0.0,2.0,0.0,1.5,1.0,1.5,1.0,0.75,0.25,-0.17,0.2,0.7,299.4,16.6,41.9,0.75,0.0,0.0,0.0,0.0,0.75,0.25,3.5,0.0,5.5,0.0,1.0,0.25,-0.17,0.58,1.2,103.88,10.8,-50.3
1.88,6.0,3.25,5.75,6.5,0.0,2.25,0.0,1.5,1.25,1.5,1.0,0.75,0.25,-0.17,0.2,0.64,332.95,17.1,43.5,0.0,0.25,0.0,0.0,1.25,4.75,0.0,6.0,0.5,6.25,2.0,1.75,3.25,-0.86,-0.11,1.95,207.09,11.8,-45.2
1.9,6.75,3.75,6.0,6.5,0.0,2.25,0.0,1.5,1.25,1.5,1.25,0.75,0.25,-0.17,0.14,1.14,377.27,17.5,44.8,0.0,0.0,0.0,0.0,2.5,6.5,0.25,6.5,0.0,4.75,0.0,0.25,0.75,0.27,0.02,1.14,266.72,15.7,-16.6
1.92,7.5,4.5,7.0,8.0,0.0,2.25,0.0,1.75,1.5,1.5,1.0,0.75,0.25,-0.17,0.14,1.14,441.14,18.1,47.7,1.0,0.25,0.25,0.0,3.75,7.5,0.25,6.5,0.0,3.0,0.5,0.25,0.25,0.2,0.14,1.08,318.62,11.8,1.6
1.94,8.0,4.75,7.75,8.0,0.0,1.5,0.0,1.25,0.75,1.5,0.75,0.75,0.25,-0.23,0.14,1.2,499.61,20.2,53.1,1.25,0.25,0.0,0.0,4.5,8.25,0.25,6.0,0.5,3.0,1.0,0.25,0.5,0.39,0.14,0.89,354.45,11.0,2.0
1.96,8.5,4.75,8.25,8.0,0.0,0.75,0.0,1.25,0.75,1.5,0.75,0.75,0.25,-0.17,0.14,1.58,543.6,21.5,54.2,0.25,0.25,0.0,0.0,0.0,8.0,0.0,5.75,0.0,2.5,0.5,0.25,0.0,0.33,0.2,0.89,338.38,17.0,-9.9
1.98,9.0,4.75,8.25,7.0,0.0,0.0,0.0,1.25,1.0,1.25,0.5,0.75,0.25,-0.36,0.14,1.7,563.05,23.0,56.3,1.25,0.25,0.0,0.0,5.25,9.25,0.0,6.0,0.5,0.5,0.5,0.25,0.25,0.27,0.2,0.95,346.9,11.3,15.7
2.0,0.0,3.75,8.25,5.5,0.0,0.0,0.0,1.25,0.75,1.5,0.5,0.75,0.0,-0.48,0.2,1.64,494.65,19.6,40.5,1.25,0.25,0.0,0.0,6.25,9.25,0.0,5.75,0.5,1.5,0.5,0.25,0.25,0.33,0.2,0.95,358.38,11.0,14.4
2.02,8.0,1.75,7.75,4.5,0.0,0.0,0.0,1.25,0.75,1.25,0.5,0.75,0.25,-0.48,0.2,1.89,441.08,24.2,50.6,1.25,0.25,0.0,0.0,4.25,9.0,0.0,5.75,0.5,1.25,0.25,0.25,0.75,0.27,0.27,0.83,366.9,11.9,9.5
2.04,6.0,0.0,6.25,2.5,0.0,0.0,0.0,0.0,0.75,0.0,0.0,0.0,0.0,-0.48,0.14,1.95,341.5,32.2,69.1,1.25,0.25,0.0,0.0,4.5,9.25,0.0,5.5,0.5,2.0,0.25,0.25,0.75,0.27,0.2,0.7,367.73,12.0,8.2
2.06,0.0,0.0,4.0,0.0,0.0,0.0,0.0,0.0,0.0,0.0,0.0,0.0,0.0,-0.61,0.95,2.08,234.02,38.2,60.9,1.25,0.0,0.0,0.0,2.25,9.5,0.0,6.0,0.5,3.0,0.5,0.25,0.75,0.33,0.2,0.83,356.54,13.4,-2.8
2.08,0.0,0.0,0.0,0.0,0.0,0.0,0.0,0.0,0.0,0.0,0.0,0.0,0.0,-0.8,0.52,0.95,104.64,0.0,0.0,1.25,0.0,0.0,0.0,3.75,9.5,0.0,6.5,0.5,2.75,0.5,0.25,0.75,0.27,0.2,0.95,349.18,12.7,0.9
2.1,0.0,0.0,0.0,0.0,0.0,0.0,3.25,5.0,0.0,1.0,1.75,0.25,0.0,-1.67,-3.36,1.52,43.38,-3.0,-40.2,1.0,0.0,0.0,0.0,3.0,9.5,0.0,6.5,0.5,2.5,0.25,0.25,0.75,0.45,0.2,0.95,331.49,13.7,-0.3
2.12,0.0,0.0,0.0,0.0,0.0,0.0,0.0,0.0,0.0,0.0,0.0,0.0,0.0,-0.86,-2.3,0.83,0.0,0.0,0.0,0.0,0.0,0.0,0.0,3.25,9.25,0.0,5.75,0.25,1.75,0.5,0.25,0.75,0.64,0.2,1.08,312.73,15.4,-0.6
2.14,0.0,0.0,0.0,0.0,0.0,0.0,0.0,0.0,0.0,0.0,0.0,0.0,0.0,-2.11,-1.73,0.83,0.0,0.0,0.0,1.25,0.0,0.0,0.0,3.5,8.5,0.0,4.75,0.25,1.25,0.5,0.25,0.75,0.64,0.2,1.02,299.62,12.1,7.9
2.16,0.0,0.0,0.0,0.0,0.0,0.0,0.0,0.0,0.0,0.0,0.0,0.0,0.0,-1.55,-1.61,1.52,0.0,0.0,0.0,0.5,0.25,0.0,0.0,3.5,8.0,0.0,4.75,0.25,1.25,0.25,0.25,0.75,0.52,0.33,0.77,283.8,13.5,6.3
2.18,0.0,0.0,0.0,0.0,0.0,0.0,0.0,0.0,0.0,0.0,0.0,0.0,0.0,-1.3,-1.23,1.77,0.0,0.0,0.0,1.0,0.25,0.0,0.0,3.5,8.0,0.0,4.0,0.25,1.0,0.25,0.25,0.25,0.33,0.39,0.64,270.16,12.1,14.7
2.2,0.0,0.0,0.0,0.0,0.0,0.0,0.0,0.0,0.0,0.0,0.0,0.0,0.0,-1.05,-0.92,1.95,0.0,0.0,0.0,1.0,0.0,0.0,0.0,1.5,7.0,0.0,3.25,0.25,0.75,0.25,0.25,0.0,1.2,1.2,0.58,242.94,13.0,12.2
2.22,0.0,0.0,0.0,0.0,0.0,0.0,0.0,0.0,0.0,0.0,0.0,0.0,0.0,-0.17,-0.36,2.64,0.0,0.0,0.0,0.75,0.25,0.0,0.0,3.5,6.5,0.0,3.0,0.25,0.0,0.25,0.25,0.0,2.33,2.7,0.02,218.12,11.3,23.4
2.24,0.0,0.0,0.0,0.0,0.0,0.0,1.25,0.0,0.0,0.0,0.0,0.0,0.0,0.52,0.27,3.02,0.0,32.4,27.3,0.5,0.0,0.0,0.0,1.25,3.5,0.0,0.5,0.25,0.0,0.0,0.25,0.0,2.58,3.02,0.89,161.89,10.8,28.9
2.26,0.0,0.0,0.0,0.0,0.0,0.0,0.0,0.0,0.0,1.75,0.0,0.0,0.0,0.52,0.89,2.95,0.0,-15.6,-75.5,0.0,0.0,0.0,0.0,0.0,2.5,0.0,0.75,0.25,0.0,0.25,0.25,0.0,0.33,1.08,2.64,104.49,15.2,-0.9
2.28,0.0,0.0,0.0,0.0,0.0,0.0,0.0,0.0,0.0,0.0,0.0,0.0,0.0,0.52,1.27,2.52,0.0,0.0,0.0,0.0,0.0,0.0,0.0,0.0,0.0,0.0,0.75,0.0,0.0,0.0,0.0,0.0,-0.55,0.27,1.64,31.84,16.7,-38.8
2.3,0.0,0.0,0.0,0.0,0.0,0.0,0.0,0.0,0.0,0.0,0.0,0.0,0.0,1.02,1.64,1.77,0.28,0.0,0.0,0.0,0.0,0.0,0.0,0.0,0.0,0.0,0.0,0.0,0.0,0.0,0.25,0.0,-2.3,-0.3,1.95,0.0,-8.8,-109.9
2.32,0.0,0.0,0.0,0.0,0.0,0.0,0.0,0.0,0.0,0.0,0.0,0.0,0.0,1.83,2.33,1.52,0.0,0.0,0.0,0.0,0.0,0.0,0.0,0.0,0.0,0.0,0.0,0.0,0.0,0.0,0.0,0.0,-2.11,-1.11,0.64,0.0,0.0,0.0
2.34,0.0,0.0,0.0,0.0,0.0,0.0,0.0,0.0,0.25,0.0,0.0,0.0,0.0,2.08,2.58,1.14,0.0,12.1,-38.5,0.0,0.0,0.0,0.0,0.0,0.0,0.0,0.5,0.0,0.0,0.0,0.0,0.0,-0.11,-1.42,-0.42,0.0,16.7,-38.7
2.36,0.0,0.0,0.0,0.0,0.0,0.0,3.5,1.75,0.0,0.0,1.0,0.0,0.0,1.7,2.45,0.33,25.17,8.0,-21.6,0.0,0.0,0.0,0.0,0.0,0.0,0.0,0.25,0.0,0.0,0.0,0.0,0.0,1.08,-0.55,0.08,0.0,16.7,-38.7
2.38,0.0,0.0,0.0,0.0,0.0,0.0,0.0,0.0,0.0,0.0,0.0,0.0,0.0,1.14,-4.73,-3.92,23.39,0.0,0.0,0.0,0.0,0.0,0.0,0.0,0.0,0.0,0.0,0.0,0.0,0.0,0.0,0.0,1.58,0.27,0.39,0.0,0.0,0.0
2.4,0.0,0.0,0.5,0.0,0.0,0.0,0.0,1.25,0.0,6.0,5.5,0.0,8.0,-0.86,-0.48,7.02,143.42,-7.0,-83.3,0.0,0.0,0.0,0.0,0.0,0.0,0.0,0.0,0.0,0.0,0.0,0.0,0.0,1.39,0.83,0.27,0.0,0.0,0.0
2.42,0.0,0.0,0.75,0.0,0.0,0.0,0.0,1.0,0.0,0.5,4.75,0.0,7.25,2.08,0.02,3.52,199.06,-3.3,-83.5,0.0,0.0,0.0,0.0,0.0,0.0,0.0,0.0,0.0,0.0,0.0,0.0,0.0,1.14,0.58,-0.11,0.0,0.0,0.0
2.44,0.0,0.0,0.0,0.0,0.0,0.0,0.0,0.75,0.75,5.0,3.0,4.25,6.25,0.52,-1.05,0.27,274.51,-5.0,-91.0,0.0,0.0,0.25,0.0,0.0,0.0,0.0,0.0,0.0,0.0,0.0,0.0,0.0,1.02,0.14,-0.11,0.0,-38.2,60.9
2.46,0.0,0.0,0.0,0.5,0.0,0.0,0.0,1.25,0.5,6.25,4.0,0.0,7.25,-1.23,0.2,-0.17,304.1,-8.2,-81.6,0.0,0.0,0.0,0.0,0.0,0.0,0.0,0.0,0.0,0.0,0.0,0.0,0.0,0.95,0.27,-0.05,0.0,0.0,0.0
2.48,0.0,0.0,0.75,0.0,0.0,0.0,0.0,0.75,0.75,6.0,4.75,6.0,7.75,-2.3,-0.23,1.33,372.24,-2.7,-87.4,0.0,0.0,0.0,0.0,0.0,0.0,0.0,0.0,0.0,0.0,0.0,0.0,0.0,0.77,0.64,0.27,0.0,0.0,0.0
2.5,0.0,0.0,0.25,0.0,0.0,0.0,0.0,0.75,0.0,4.75,4.5,4.5,7.5,0.27,-0.3,0.89,387.69,-4.3,-91.4,0.0,0.0,0.0,0.0,0.0,0.0,0.0,0.0,0.0,0.0,0.0,0.0,0.0,0.64,0.77,0.39,0.0,0.0,0.0
2.52,0.0,0.0,0.0,0.0,0.0,0.0,0.0,0.0,0.0,4.25,2.0,3.75,6.0,0.39,-0.36,0.89,373.51,-6.0,-96.6,0.0,0.0,0.0,0.0,0.0,0.0,0.0,0.0,0.0,0.0,0.0,0.0,0.0,0.7,0.64,0.45,0.0,0.0,0.0
2.54,0.0,0.0,0.0,0.5,0.0,0.0,0.0,0.0,0.5,4.75,3.0,3.75,6.5,-0.73,-0.36,0.7,354.43,-4.5,-89.6,0.0,0.0,0.0,0.0,0.0,0.0,0.0,0.0,0.0,0.0,0.0,0.0,0.0,0.58,0.39,0.39,0.0,0.0,0.0
2.56,0.0,0.0,0.0,0.0,0.0,0.0,0.0,0.5,0.25,3.25,2.25,2.75,5.75,-0.55,-0.42,0.83,311.35,-6.0,-93.7,0.0,0.0,0.0,0.0,0.0,0.0,0.0,0.0,0.0,0.0,0.0,0.0,0.0,0.58,0.27,0.33,0.0,0.0,0.0
2.58,0.0,0.0,0.0,0.0,0.0,0.0,3.0,0.0,0.25,1.5,0.0,1.75,0.0,-0.23,-0.36,1.08,238.07,8.4,-55.7,0.0,0.0,0.0,0.0,0.0,0.0,0.0,0.0,0.0,0.0,0.0,0.0,0.0,0.58,0.33,0.39,0.0,0.0,0.0
2.6,0.0,0.0,0.0,0.0,0.0,0.0,0.0,0.0,0.0,1.0,0.0,0.5,2.0,0.02,-0.3,1.2,157.66,-11.1,-100.2,0.0,0.0,0.0,0.0,0.0,0.0,0.0,0.0,0.0,0.0,0.0,0.0,0.0,0.58,0.45,0.39,0.0,0.0,0.0
2.62,0.0,0.0,0.0,0.0,0.0,0.0,0.0,0.0,0.75,0.25,0.0,0.0,1.25,-0.11,-0.3,1.39,77.43,-5.5,-82.9,0.0,0.0,0.0,0.0,0.0,0.0,0.0,0.0,0.0,0.0,0.0,0.0,0.0,0.64,0.45,0.33,0.0,0.0,0.0
2.64,0.0,0.0,0.0,0.0,0.0,0.0,0.0,0.0,0.0,0.0,0.0,0.0,0.25,-0.42,-0.11,1.52,0.0,-13.7,-109.8,0.0,0.0,0.0,0.0,0.0,0.0,0.0,0.0,0.0,0.0,0.0,0.0,0.0,0.77,0.39,0.27,0.0,0.0,0.0
2.66,0.0,0.0,0.0,0.0,0.0,0.0,0.0,0.0,0.0,0.0,0.0,0.0,0.25,0.27,1.27,1.52,0.0,-13.7,-109.8,0.0,0.0,0.0,0.0,0.0,0.0,0.0,0.0,0.0,0.0,0.0,0.0,0.0,0.77,0.27,0.27,0.0,0.0,0.0
2.68,0.0,0.0,0.0,0.0,0.0,0.0,0.0,0.0,0.0,0.0,0.0,0.0,0.25,-0.11,0.83,0.77,0.0,-13.7,-109.8,0.0,0.0,0.0,0.0,0.0,0.0,0.0,0.0,0.0,0.0,0.0,0.0,0.0,0.89,0.2,0.33,0.0,0.0,0.0
2.7,0.0,0.0,0.0,0.0,0.0,0.0,0.0,0.0,0.0,0.0,0.0,0.0,0.0,-0.86,0.02,0.08,0.0,0.0,0.0,0.0,0.0,0.0,0.0,0.0,0.0,0.0,0.0,0.0,0.0,0.0,0.0,0.0,0.89,0.14,0.39,0.0,0.0,0.0
2.72,0.0,0.0,0.0,0.0,0.0,0.0,0.0,0.0,0.0,0.0,0.0,0.0,0.0,-0.48,-0.61,0.64,0.0,0.0,0.0,0.0,0.0,0.0,0.0,0.0,0.0,0.0,0.0,0.0,0.0,0.0,0.0,0.0,0.89,0.2,0.52,0.0,0.0,0.0
2.74,0.0,0.0,0.0,0.0,0.0,0.0,0.0,0.0,0.0,0.0,0.0,0.0,0.0,-0.17,-1.17,1.27,0.0,0.0,0.0,0.0,0.0,0.0,0.0,0.0,0.0,0.0,0.0,0.0,0.0,0.0,0.0,0.0,0.89,0.2,0.52,0.0,0.0,0.0
2.76,0.0,0.0,0.0,0.0,0.0,0.0,0.0,0.0,0.0,0.0,0.0,0.0,0.0,-0.36,-1.48,1.33,0.0,0.0,0.0,0.0,0.0,0.0,0.0,0.0,0.0,0.0,0.0,0.0,0.0,0.0,0.0,0.0,0.89,0.27,0.45,0.0,0.0,0.0
2.78,0.0,0.0,0.0,0.0,0.0,0.0,0.0,0.0,0.0,0.0,0.0,0.0,0.0,-0.48,-1.42,0.95,0.0,0.0,0.0,0.0,0.0,0.0,0.0,0.0,0.0,0.0,0.0,0.0,0.0,0.0,0.0,0.0,0.83,0.33,0.39,0.0,0.0,0.0
2.8,0.0,0.0,0.0,0.0,0.0,0.0,0.0,0.0,0.0,0.0,0.0,0.0,0.0,-0.55,-1.3,0.64,0.0,0.0,0.0,0.0,0.0,0.0,0.0,0.0,0.0,0.0,0.0,0.0,0.0,0.0,0.0,0.0,0.77,0.45,0.39,0.0,0.0,0.0
2.82,0.0,0.0,0.0,0.0,0.0,0.0,0.0,0.0,0.0,0.0,0.0,0.0,0.0,-0.55,-1.17,0.77,0.0,0.0,0.0,0.0,0.0,0.0,0.0,0.0,0.0,0.0,0.0,0.0,0.0,0.0,0.0,0.0,0.7,0.45,0.39,0.0,0.0,0.0
2.84,0.0,0.0,0.0,0.0,0.0,0.0,0.0,0.0,0.0,1.5,0.0,0.0,0.0,-0.48,-1.05,0.77,2.8,-15.6,-75.5,0.0,0.0,0.0,0.0,0.0,0.0,0.0,0.0,0.0,0.0,0.0,0.0,0.0,0.64,0.33,0.45,0.0,0.0,0.0
2.86,0.0,0.0,0.75,0.0,0.0,0.0,0.0,0.0,0.0,0.0,0.5,0.0,0.25,-0.48,-0.8,0.83,13.98,20.6,-11.7,0.0,0.0,0.0,0.0,0.0,0.0,0.0,0.0,0.0,0.0,0.0,0.0,0.0,0.58,0.33,0.52,0.0,0.0,0.0
2.88,0.0,0.0,0.0,0.0,0.0,0.0,0.0,0.5,0.0,0.0,0.5,0.0,0.25,-0.48,-0.55,0.83,22.44,-5.3,-67.8,0.0,0.0,0.0,0.0,0.0,0.0,0.0,0.0,0.0,0.0,0.0,0.0,0.0,0.52,0.33,0.58,0.0,0.0,0.0
2.9,0.0,0.0,0.0,0.0,0.0,0.0,0.0,0.0,0.0,0.0,0.0,0.0,0.25,-0.55,-0.42,0.77,19.3,-13.7,-109.8,0.0,0.0,0.0,0.0,0.0,0.0,0.0,0.0,0.0,0.0,0.0,0.0,0.0,0.64,0.33,0.58,0.0,0.0,0.0
2.92,0.0,0.0,0.0,0.0,0.0,0.0,0.0,0.0,0.0,0.0,0.0,0.0,0.25,-0.55,-0.42,0.64,15.06,-13.7,-109.8,0.0,0.0,0.0,0.0,0.0,0.0,0.0,0.0,0.0,0.0,0.0,0.0,0.0,0.64,0.33,0.58,0.0,0.0,0.0
2.94,0.0,0.0,0.0,0.0,0.0,0.0,0.0,0.0,0.0,0.0,0.0,0.0,0.0,-0.42,-0.48,0.7,8.14,0.0,0.0,0.0,0.0,0.0,0.0,0.0,0.0,0.0,0.0,0.0,0.0,0.0,0.0,0.0,0.58,0.33,0.58,0.0,0.0,0.0
2.96,0.0,0.0,0.0,0.0,0.0,0.0,0.0,0.0,0.0,0.0,0.0,0.0,0.0,-0.36,-0.42,0.83,3.85,0.0,0.0,0.0,0.0,0.0,0.0,0.0,0.0,0.0,0.0,0.0,0.0,0.0,0.0,0.0,0.64,0.27,0.52,0.0,0.0,0.0
2.98,0.0,0.0,0.0,0.0,0.0,0.0,0.0,0.0,0.0,0.0,0.0,0.0,0.0,-0.23,-0.42,0.83,1.12,0.0,0.0,0.0,0.0,0.0,0.0,0.0,0.0,0.0,0.0,0.0,0.0,0.0,0.0,0.0,0.7,0.27,0.52,0.0,0.0,0.0
3.0,0.0,0.0,0.0,0.0,0.0,0.0,0.0,0.0,0.0,0.0,0.0,0.0,0.0,-0.17,-0.3,0.77,0.0,0.0,0.0,0.0,0.0,0.0,0.0,0.0,0.0,0.0,0.0,0.0,0.0,0.0,0.0,0.0,0.7,0.27,0.52,0.0,0.0,0.0
3.02,0.0,0.0,0.0,0.0,0.0,0.0,0.0,0.0,0.0,0.0,0.0,0.0,0.0,-0.17,-0.3,0.7,0.0,0.0,0.0,0.0,0.0,0.0,0.0,0.0,0.0,0.0,0.0,0.0,0.0,0.0,0.0,0.0,0.7,0.27,0.52,0.0,0.0,0.0
3.04,0.0,0.0,0.0,0.0,0.0,0.0,0.0,0.0,0.0,0.0,0.0,0.0,0.0,-0.17,-0.3,0.58,0.0,0.0,0.0,0.0,0.0,0.0,0.0,0.0,0.0,0.0,0.0,0.0,0.0,0.0,0.0,0.0,0.64,0.27,0.45,0.0,0.0,0.0
3.06,0.0,0.0,1.0,0.25,0.0,0.0,0.0,0.25,0.5,1.5,0.5,0.5,0.25,-0.17,-0.3,0.52,23.56,5.9,-38.4,0.0,0.0,0.0,0.0,0.0,0.0,0.0,0.0,0.0,0.0,0.0,0.0,0.0,0.64,0.27,0.45,0.0,0.0,0.0
3.08,0.0,0.0,1.0,0.25,0.0,0.0,0.0,0.5,0.5,1.5,0.5,0.25,0.25,-0.11,-0.3,0.58,46.5,4.5,-34.7,0.0,0.0,0.0,0.0,0.0,0.0,0.0,0.0,0.0,0.0,0.0,0.0,0.0,0.64,0.33,0.45,0.0,0.0,0.0
3.1,0.0,0.0,1.0,0.25,0.0,0.0,0.0,0.5,0.5,1.5,0.5,0.25,0.25,-0.11,-0.3,0.64,68.84,4.5,-34.7,0.0,0.0,0.0,0.0,0.0,0.0,0.0,0.0,0.0,0.0,0.0,0.0,0.0,0.64,0.33,0.45,0.0,0.0,0.0
3.12,0.0,0.0,0.5,0.25,0.0,0.0,0.0,0.25,0.5,1.5,0.0,0.25,0.25,-0.11,-0.3,0.52,74.3,0.3,-42.8,0.0,0.0,0.0,0.0,0.0,0.0,0.0,0.0,0.0,0.0,0.0,0.0,0.0,0.58,0.33,0.45,0.0,0.0,0.0
3.14,0.0,0.0,0.75,0.25,0.0,0.0,0.0,0.5,0.0,1.5,0.5,0.25,0.25,-0.11,-0.36,0.45,77.48,1.4,-40.3,0.0,0.0,0.0,0.0,0.0,0.0,0.0,0.0,0.0,0.0,0.0,0.0,0.0,0.52,0.33,0.45,0.0,0.0,0.0
3.16,0.0,0.0,1.0,0.25,0.0,0.0,0.0,0.5,0.5,1.5,0.5,0.25,0.25,-0.11,-0.36,0.45,78.33,4.5,-34.7,0.0,0.0,0.0,0.0,0.0,0.0,0.0,0.0,0.0,0.0,0.0,0.0,0.0,0.58,0.33,0.52,0.0,0.0,0.0
3.18,0.0,0.0,1.0,0.0,0.0,0.0,0.0,0.5,0.0,0.0,0.5,0.0,0.25,-0.05,-0.42,0.52,68.69,14.4,-9.4,0.0,0.0,0.0,0.0,0.0,0.0,0.0,0.0,0.0,0.0,0.0,0.0,0.0,0.64,0.39,0.52,0.0,0.0,0.0
3.2,0.0,0.0,0.0,0.0,0.0,0.0,0.25,0.5,1.0,1.5,0.5,0.0,0.25,-0.05,-0.48,0.58,69.07,-3.7,-60.3,0.0,0.0,0.0,0.0,0.0,0.0,0.0,0.0,0.0,0.0,0.0,0.0,0.0,0.7,0.33,0.52,0.0,0.0,0.0
3.22,0.0,0.0,1.0,0.0,0.0,0.0,0.0,0.75,0.5,1.25,0.5,0.25,0.25,-0.05,-0.48,0.58,69.72,3.7,-38.0,0.0,0.0,0.0,0.0,0.0,0.0,0.0,0.0,0.0,0.0,0.0,0.0,0.0,0.7,0.33,0.52,0.0,0.0,0.0
3.24,0.0,0.0,1.25,0.0,0.0,0.0,0.0,0.5,0.75,1.5,0.5,0.5,0.25,0.02,-0.48,0.52,76.94,6.1,-38.4,0.0,0.0,0.0,0.0,0.0,0.0,0.0,0.0,0.0,0.0,0.0,0.0,0.0,0.7,0.27,0.58,0.0,0.0,0.0
3.26,1.5,0.0,0.75,0.0,0.0,0.0,0.5,1.5,2.0,0.0,1.25,0.0,0.5,0.02,-0.48,0.58,92.63,11.9,-12.0,0.0,0.0,0.0,0.0,0.0,0.0,0.0,0.0,0.0,0.0,0.0,0.0,0.0,0.7,0.27,0.58,0.0,0.0,0.0
3.28,0.0,0.0,2.5,0.0,0.0,0.0,0.0,0.75,0.5,1.5,0.5,0.25,0.25,0.08,-0.55,0.58,99.75,11.4,-15.3,0.0,0.0,0.0,0.0,0.0,0.0,0.0,0.0,0.0,0.0,0.0,0.0,0.0,0.64,0.2,0.58,0.0,0.0,0.0
3.3,0.0,0.0,0.75,0.0,0.0,0.0,0.0,0.75,0.75,1.5,0.5,0.5,0.25,0.08,-0.48,0.58,96.34,1.7,-48.6,0.0,0.0,0.0,0.0,0.0,0.0,0.0,0.0,0.0,0.0,0.0,0.0,0.0,0.64,0.2,0.58,0.0,0.0,0.0
3.32,0.0,0.0,1.0,0.0,0.0,0.0,0.0,0.5,0.5,1.5,0.25,0.25,0.25,0.02,-0.48,0.64,87.13,3.4,-38.1,0.0,0.0,0.0,0.0,0.0,0.0,0.0,0.0,0.0,0.0,0.0,0.0,0.0,0.64,0.2,0.58,0.0,0.0,0.0
3.34,0.0,0.0,1.25,0.0,0.0,0.0,0.0,0.5,1.0,1.5,0.5,0.5,0.25,0.02,-0.55,0.64,85.15,6.4,-38.4,0.0,0.0,0.0,0.0,0.0,0.0,0.0,0.0,0.0,0.0,0.0,0.0,0.0,0.64,0.2,0.58,0.0,0.0,0.0
3.36,0.25,0.0,2.5,0.0,0.0,0.0,3.5,4.75,1.0,1.5,2.25,0.5,0.0,-0.05,-0.55,0.64,126.55,6.7,-22.8,0.0,0.0,0.0,0.0,0.0,0.0,0.0,0.0,0.0,0.0,0.0,0.0,0.0,0.64,0.2,0.58,0.0,0.0,0.0
3.38,0.0,0.0,2.25,0.0,0.0,0.0,3.25,3.5,1.5,1.75,1.75,0.75,0.5,-0.11,-0.55,0.64,161.71,6.5,-30.0,0.0,0.0,0.0,0.0,0.0,0.0,0.0,0.0,0.0,0.0,0.0,0.0,0.0,0.64,0.27,0.52,0.0,0.0,0.0
3.4,1.25,0.0,2.25,0.0,0.0,0.0,4.0,5.0,1.5,1.75,1.5,0.75,0.0,-0.17,-0.61,0.64,202.36,7.6,-16.8,0.0,0.0,0.0,0.0,0.0,0.0,0.0,0.0,0.0,0.0,0.0,0.0,0.0,0.7,0.27,0.45,0.0,0.0,0.0
3.42,0.0,0.0,1.0,0.0,0.0,0.0,0.0,0.5,0.5,1.5,0.5,0.25,0.25,-0.17,-0.61,0.7,177.47,3.8,-40.1,0.0,0.0,0.0,0.0,0.0,0.0,0.0,0.0,0.0,0.0,0.0,0.0,0.0,0.64,0.27,0.45,0.0,0.0,0.0
3.44,0.0,0.0,0.5,0.0,0.0,0.0,0.0,0.5,0.5,1.5,0.0,0.5,0.0,-0.17,-0.67,0.7,139.58,-0.5,-49.9,0.0,0.0,0.0,0.0,0.0,0.0,0.0,0.0,0.0,0.0,0.0,0.0,0.0,0.64,0.27,0.45,0.0,0.0,0.0
3.46,0.0,0.0,0.5,0.0,0.0,0.0,0.0,0.75,0.5,1.5,0.5,0.25,0.25,-0.17,-0.67,0.7,95.82,-1.5,-52.2,0.0,0.0,0.0,0.0,0.0,0.0,0.0,0.0,0.0,0.0,0.0,0.0,0.0,0.64,0.27,0.45,0.0,0.0,0.0
3.48,0.0,0.0,0.75,0.0,0.0,0.0,0.0,0.75,0.75,1.5,0.5,0.0,0.25,-0.17,-0.67,0.77,73.81,0.9,-41.8,0.0,0.0,0.0,0.0,0.0,0.0,0.0,0.0,0.0,0.0,0.0,0.0,0.0,0.64,0.33,0.45,0.0,0.0,0.0
3.5,0.0,0.0,1.0,0.0,0.0,0.0,0.0,0.5,0.75,1.5,0.5,0.0,0.25,-0.17,-0.67,0.77,62.88,4.0,-36.2,0.0,0.0,0.0,0.0,0.0,0.0,0.0,0.0,0.0,0.0,0.0,0.0,0.0,0.64,0.33,0.45,0.0,0.0,0.0
3.52,0.0,0.0,1.25,0.0,0.0,0.0,0.0,0.5,1.75,2.0,0.5,0.0,0.25,0.02,-0.86,0.95,72.34,5.1,-35.7,0.0,0.0,0.0,0.0,0.0,0.0,0.0,0.0,0.25,0.0,0.0,0.25,0.0,0.64,0.33,0.45,3.07,-10.5,-74.3
3.54,0.0,0.0,1.0,0.0,0.0,0.0,0.0,0.75,0.5,1.5,0.25,0.25,0.25,-0.17,-0.73,0.77,70.11,2.3,-38.1,0.0,0.0,0.0,0.0,0.0,0.0,0.0,0.0,0.0,0.0,0.0,0.0,0.0,0.64,0.33,0.45,2.85,0.0,0.0
3.56,0.0,0.0,1.0,0.0,0.0,0.0,0.0,0.75,0.75,1.5,0.5,0.25,0.25,-0.11,-0.73,0.77,66.74,3.2,-39.9,0.0,0.0,0.0,0.0,0.0,0.0,0.0,0.0,0.25,0.0,0.5,0.25,0.0,0.7,0.33,0.45,8.67,-10.6,-74.9
3.58,0.0,0.0,1.5,0.0,0.0,0.0,0.0,0.75,0.5,1.5,0.5,0.25,0.25,-0.17,-0.73,0.77,61.34,6.2,-30.2,0.0,0.0,0.0,0.0,0.0,0.0,0.0,0.25,0.25,0.0,0.5,0.25,0.0,0.7,0.33,0.45,14.34,-5.0,-67.5
3.6,0.25,0.0,0.5,0.0,0.0,0.0,0.0,0.5,0.5,1.5,0.0,0.25,0.5,-0.17,-0.67,0.77,53.47,-0.7,-45.2,0.5,0.0,0.0,0.0,0.0,0.0,0.0,0.25,0.25,0.0,0.5,0.25,0.0,0.7,0.33,0.45,21.91,-13.3,-22.0
3.62,0.25,0.0,0.75,0.0,0.0,0.0,0.0,0.75,0.75,1.25,0.5,0.25,0.25,-0.17,-0.67,0.77,57.16,3.8,-36.7,0.5,0.0,0.0,0.0,0.0,0.0,0.0,0.0,0.25,0.0,0.25,0.25,0.0,0.7,0.33,0.45,24.18,-20.0,-7.8
3.64,0.25,0.0,1.25,0.0,0.0,0.0,0.0,0.75,0.75,1.5,0.5,0.0,0.25,-0.17,-0.55,0.7,64.64,6.0,-25.6,0.5,0.0,0.0,0.0,0.0,0.0,0.0,0.25,0.25,0.0,0.5,0.25,0.0,0.7,0.33,0.45,27.75,-13.3,-22.0
3.66,0.0,0.0,1.25,0.0,0.0,0.0,0.0,0.5,0.5,1.5,0.5,0.0,0.25,-0.11,-0.55,0.7,73.59,5.5,-30.5,0.5,0.0,0.0,0.0,0.0,0.0,0.0,0.25,0.25,0.0,0.25,0.25,0.0,0.7,0.39,0.45,27.82,-13.7,-13.1
3.68,0.0,0.0,1.0,0.0,0.0,0.0,0.0,0.5,0.75,0.0,0.5,0.0,0.25,-0.05,-0.48,0.7,64.35,13.8,-16.6,0.5,0.0,0.0,0.0,0.0,0.0,0.0,0.5,0.25,0.0,0.5,0.25,0.0,0.7,0.39,0.45,30.47,-9.4,-24.1
3.7,0.0,0.0,0.0,0.0,0.0,0.0,0.0,0.0,0.25,0.0,0.0,0.0,0.0,-0.05,-0.48,0.77,40.16,12.1,-38.5,1.5,0.0,0.0,0.25,0.0,0.0,0.25,0.25,0.5,0.0,0.5,0.25,0.0,0.7,0.39,0.52,40.4,-20.4,19.3
3.72,0.0,0.0,0.0,0.0,0.0,0.0,0.0,0.0,0.75,1.5,0.0,0.5,0.25,-0.05,-0.48,0.7,34.63,-4.5,-75.0,0.5,0.0,0.0,0.0,0.0,0.0,0.5,0.0,0.5,0.0,0.75,0.25,0.0,0.7,0.39,0.52,42.75,-18.4,-22.4
3.74,0.25,0.0,0.75,0.0,0.0,0.0,0.0,0.5,0.75,1.5,0.5,0.25,0.25,-0.05,-0.48,0.7,40.47,3.9,-38.7,0.0,0.0,0.5,0.0,0.0,0.0,3.25,1.5,0.0,0.0,0.0,0.0,0.0,0.7,0.39,0.52,51.59,-12.5,4.4
3.76,0.0,0.0,0.5,0.0,0.0,0.0,0.0,0.5,0.75,1.25,0.25,0.25,0.25,-0.05,-0.48,0.77,48.73,0.5,-49.2,0.5,0.0,0.0,0.0,0.0,0.0,3.0,0.25,0.0,0.0,0.5,0.25,0.0,0.7,0.39,0.45,52.54,-22.9,3.9
3.78,0.25,0.0,0.25,0.0,0.0,0.0,0.0,0.5,0.5,1.5,0.25,0.5,0.25,-0.11,-0.48,0.7,57.71,-1.1,-53.8,0.25,0.0,0.0,0.0,0.0,0.0,0.0,0.25,0.25,0.0,0.5,0.25,0.0,0.7,0.39,0.45,46.48,-9.8,-41.1
3.8,0.0,0.0,1.0,0.0,0.0,0.0,0.0,0.5,0.5,1.25,0.5,0.5,0.25,-0.11,-0.48,0.7,63.67,5.2,-42.0,0.25,0.0,0.0,0.0,0.0,0.0,0.0,0.0,0.25,0.0,0.5,0.25,0.0,0.7,0.39,0.39,35.24,-15.3,-41.6
3.82,0.0,0.0,0.75,0.0,0.0,0.0,0.0,0.5,0.5,1.5,0.5,0.5,0.25,-0.11,-0.48,0.77,67.38,2.1,-49.7,0.5,0.0,0.0,0.0,0.0,0.0,0.0,0.0,0.25,0.0,0.25,0.25,0.0,0.7,0.33,0.39,26.79,-20.0,-7.8
3.84,0.0,0.0,1.25,0.0,0.0,0.0,0.0,0.5,0.5,1.25,0.5,0.5,0.25,-0.11,-0.48,0.77,70.77,7.0,-36.4,0.5,0.0,0.0,0.0,0.0,0.0,0.0,0.0,0.25,0.0,0.5,0.25,0.0,0.7,0.39,0.39,22.13,-18.5,-19.1
3.86,0.0,0.0,1.0,0.0,0.0,0.0,0.0,0.5,0.5,1.25,0.25,0.5,0.25,-0.11,-0.55,0.83,71.51,4.8,-40.1,0.75,0.0,0.0,0.0,0.0,0.0,0.0,0.0,0.0,0.0,0.5,0.25,0.0,0.64,0.39,0.33,20.56,-22.2,3.2
3.88,0.0,0.0,0.75,0.0,0.0,0.0,0.0,0.5,0.5,1.5,0.5,0.5,0.25,-0.17,-0.55,0.83,73.58,2.1,-49.7,0.75,0.0,0.0,0.0,0.0,0.0,0.0,0.25,0.25,0.0,0.25,0.25,0.0,0.64,0.39,0.33,22.0,-16.6,2.2
3.9,0.0,0.0,0.75,0.0,0.0,0.0,0.0,0.5,0.75,1.5,0.25,0.5,0.25,-0.11,-0.55,0.83,75.0,2.2,-47.7,0.0,0.0,0.0,0.0,0.0,0.0,0.0,0.0,0.0,0.0,0.5,0.25,0.0,0.64,0.39,0.33,18.13,-10.1,-87.1
3.92,0.0,0.0,0.75,0.0,0.0,0.0,0.0,0.75,0.5,1.5,0.5,0.75,0.25,-0.11,-0.55,0.83,79.62,1.5,-52.1,0.5,0.0,0.0,0.0,0.0,0.0,0.0,0.25,0.25,0.0,0.5,0.25,0.0,0.64,0.39,0.33,18.4,-13.3,-22.0
3.94,0.0,0.0,1.0,0.0,0.0,0.0,0.0,0.5,0.5,1.5,0.0,0.75,0.25,-0.11,-0.48,0.89,79.07,3.6,-44.0,0.25,0.0,0.0,0.0,0.0,0.0,0.0,0.0,0.25,0.0,0.5,0.25,0.0,0.64,0.39,0.39,16.11,-15.3,-41.6
3.96,0.0,0.0,0.75,0.0,0.0,0.0,0.0,0.5,0.5,1.5,0.25,0.5,0.25,-0.11,-0.55,0.89,74.46,1.6,-48.2,0.5,0.0,0.0,0.0,0.0,0.0,0.0,0.0,0.25,0.0,0.5,0.25,0.0,0.7,0.33,0.39,18.33,-18.5,-19.1
3.98,0.0,0.0,0.75,0.0,0.0,0.0,0.0,0.5,0.5,1.5,0.5,0.5,0.25,-0.11,-0.48,0.89,72.37,2.1,-49.7,0.5,0.0,0.0,0.0,0.0,0.0,0.0,0.25,0.25,0.0,0.25,0.25,0.0,0.7,0.39,0.39,18.48,-13.7,-13.1
4.0,0.0,0.0,0.75,0.0,0.0,0.0,0.0,0.5,0.5,1.25,0.5,0.5,0.25,-0.11,-0.48,0.83,70.82,3.2,-48.2,0.5,0.0,0.0,0.0,0.0,0.0,0.0,0.0,0.0,0.0,0.5,0.25,0.0,0.7,0.39,0.39,19.98,-19.8,-15.1
4.02,0.0,0.0,0.75,0.0,0.0,0.0,0.0,0.5,0.5,1.5,0.5,0.25,0.25,-0.11,-0.48,0.83,68.9,1.7,-46.2,0.25,0.25,0.0,0.0,0.0,0.0,0.0,0.25,0.0,0.0,0.75,0.25,0.0,0.7,0.39,0.39,22.86,-10.0,-25.3
4.04,0.0,0.0,0.75,0.0,0.0,0.0,0.0,0.5,0.5,1.25,0.5,0.25,0.25,-0.11,-0.48,0.83,66.09,2.8,-44.4,0.5,0.0,0.0,0.0,0.0,0.0,0.0,0.0,0.0,0.0,0.25,0.25,0.0,0.7,0.39,0.33,20.58,-22.1,0.1
4.06,0.0,0.0,0.75,0.0,0.0,0.0,0.0,0.5,0.25,1.25,0.5,0.25,0.25,-0.11,-0.48,0.83,63.0,2.2,-44.7,0.5,0.0,0.0,0.0,0.0,0.0,0.0,0.0,0.25,0.0,0.25,0.25,0.0,0.7,0.39,0.33,19.98,-20.0,-7.8
4.08,0.0,0.0,0.25,0.0,0.0,0.0,0.0,0.5,0.0,1.5,0.0,0.25,0.25,-0.17,-0.48,0.83,55.44,-8.4,-62.4,0.5,0.0,0.0,0.0,0.0,0.0,0.0,0.0,0.25,0.0,0.25,0.25,0.0,0.7,0.39,0.33,18.48,-20.0,-7.8
4.1,0.0,0.0,1.0,0.0,0.0,0.0,0.0,0.5,0.0,1.5,0.25,0.25,0.25,-0.17,-0.48,0.83,53.8,2.3,-38.0,0.5,0.0,0.0,0.0,0.0,0.0,0.0,0.0,0.0,0.0,0.25,0.25,0.0,0.7,0.39,0.39,17.28,-22.1,0.1
4.12,0.0,0.0,0.75,0.0,0.0,0.0,0.0,0.5,0.0,1.25,0.5,0.25,0.25,-0.17,-0.48,0.83,51.65,1.5,-45.2,0.5,0.25,0.0,0.0,0.0,0.0,0.0,0.25,0.25,0.0,0.25,0.25,0.0,0.7,0.39,0.39,20.17,-13.5,3.7
4.14,0.0,0.0,0.75,0.0,0.0,0.0,0.0,0.5,0.0,1.25,0.25,0.25,0.25,-0.17,-0.48,0.77,50.71,0.8,-42.9,0.5,0.0,0.0,0.0,0.0,0.0,0.0,0.0,0.25,0.0,0.5,0.25,0.0,0.7,0.39,0.39,21.87,-18.5,-19.1
4.16,0.0,0.0,0.75,0.0,0.0,0.0,0.0,0.5,0.0,1.5,0.5,0.0,0.25,-0.17,-0.48,0.77,50.72,-0.1,-42.8,0.25,0.0,0.0,0.0,0.0,0.0,0.0,0.0,0.25,0.0,0.5,0.25,0.0,0.7,0.39,0.39,21.74,-15.3,-41.6
