time,left pressure 0[N/cm²],left pressure 1[N/cm²],left pressure 2[N/cm²],left pressure 3[N/cm²],left pressure 4[N/cm²],left pressure 5[N/cm²],left pressure 6[N/cm²],left pressure 7[N/cm²],left pressure 8[N/cm²],left pressure 9[N/cm²],left pressure 10[N/cm²],left pressure 11[N/cm²],left pressure 12[N/cm²],left acceleration X[g],left acceleration Y[g],left acceleration Z[g],left total force[N],left center of pressure X[mm],left center of pressure Y[mm],right pressure 0[N/cm²],right pressure 1[N/cm²],right pressure 2[N/cm²],right pressure 3[N/cm²],right pressure 4[N/cm²],right pressure 5[N/cm²],right pressure 6[N/cm²],right pressure 7[N/cm²],right pressure 8[N/cm²],right pressure 9[N/cm²],right pressure 10[N/cm²],right pressure 11[N/cm²],right pressure 12[N/cm²],right acceleration X[g],right acceleration Y[g],right acceleration Z[g],right total force[N],right center of pressure X[mm],right center of pressure Y[mm]
0.02,0.0,1.5,2.0,2.75,0.0,2.0,1.5,6.75,4.25,6.75,6.75,4.25,5.5,-0.17,0.02,0.95,736.1,-0.2,-45.9,1.25,0.25,0.0,0.75,0.0,0.0,0.0,0.0,0.25,0.0,0.0,0.25,0.0,0.39,0.39,1.33,15.26,-23.2,54.8
0.04,0.0,1.5,2.0,2.75,5.75,2.25,1.25,6.5,4.0,6.0,6.0,4.0,4.5,-0.17,0.02,0.95,715.48,-0.5,-28.9,1.25,0.5,0.75,0.5,1.5,0.0,0.75,0.75,0.25,0.0,0.5,0.25,0.0,0.39,0.52,1.58,39.55,-13.1,35.7
0.06,0.0,1.5,2.25,3.0,0.0,2.75,1.25,6.5,4.0,6.0,5.75,3.25,3.5,-0.17,0.02,0.95,651.39,0.1,-37.0,1.25,0.25,0.5,0.5,1.75,0.0,0.75,0.5,0.25,0.0,0.25,0.25,0.0,0.45,0.83,1.7,60.3,-12.6,40.3
0.08,0.0,1.5,2.25,3.5,6.25,2.75,1.25,6.5,3.5,5.75,5.5,3.0,3.25,-0.17,0.02,0.95,631.58,-0.2,-20.2,1.25,0.5,0.75,0.75,1.75,0.0,0.75,0.0,0.25,0.0,0.5,0.25,0.0,0.58,1.27,1.89,93.18,-16.0,45.8
0.1,0.0,1.5,2.25,4.5,7.0,3.0,1.25,6.5,3.25,5.0,4.75,2.5,3.0,-0.17,0.02,0.95,619.44,0.0,-13.3,1.0,0.75,0.5,0.5,2.5,0.0,0.75,0.5,0.25,0.0,0.25,0.25,0.0,0.58,1.58,1.89,107.19,-10.0,44.2
0.12,0.0,1.5,2.0,4.5,7.75,3.0,1.25,6.5,3.25,4.75,4.0,2.0,2.75,-0.17,0.02,0.95,617.24,-0.4,-9.3,1.25,0.5,0.5,0.75,2.5,0.0,0.75,0.75,0.25,0.0,0.5,0.25,0.0,-0.11,2.14,2.27,120.55,-10.1,38.2
0.14,0.0,1.5,2.0,4.75,7.75,3.5,1.25,6.25,2.75,4.5,3.25,1.75,2.25,-0.17,0.02,0.95,601.02,-0.6,-4.6,1.25,0.75,0.75,0.5,2.25,0.0,0.5,0.5,0.25,0.0,0.25,0.25,0.0,-0.86,2.58,1.45,128.68,-11.9,46.4
0.16,0.0,1.75,2.25,5.75,8.25,4.25,1.25,6.25,2.75,3.5,3.25,1.75,1.75,-0.17,0.02,0.95,603.85,0.2,2.1,1.75,0.25,0.5,0.0,2.75,0.0,0.5,0.75,0.25,0.0,0.25,0.25,0.0,-1.36,3.64,0.39,135.51,-9.9,42.3
0.18,0.0,2.5,2.25,6.75,8.25,4.25,1.25,6.25,2.25,3.5,2.5,1.75,1.5,-0.17,0.02,0.95,607.29,0.6,7.6,1.0,0.5,0.25,0.5,1.75,0.0,0.75,0.5,0.25,0.0,1.0,0.25,0.0,-1.48,4.83,0.02,128.15,-10.6,26.9
0.2,0.0,3.0,2.75,6.75,8.5,4.75,1.0,6.25,1.75,3.25,1.75,1.75,1.5,-0.17,0.02,0.95,620.47,0.6,12.2,1.25,0.5,0.0,0.5,1.0,0.0,0.25,0.25,0.0,1.5,0.5,0.75,0.0,-2.86,5.14,1.08,121.19,-6.2,3.0
0.22,0.0,3.0,3.5,8.0,9.25,5.25,1.0,6.25,1.75,3.25,1.75,1.25,1.25,-0.17,0.08,0.95,653.85,1.3,17.2,1.0,0.5,0.0,0.5,1.5,0.0,0.25,1.25,0.25,3.25,1.5,2.75,1.25,0.27,-0.55,1.45,153.79,0.0,-41.7
0.24,0.0,3.25,3.75,8.25,9.75,5.5,1.0,6.25,1.5,3.25,1.75,1.25,1.5,-0.17,0.08,0.95,693.94,1.4,18.2,1.0,0.5,0.0,0.5,2.25,0.0,0.25,1.25,0.25,6.0,3.75,5.0,4.5,-0.48,0.27,0.89,232.38,1.9,-59.9
0.26,0.5,4.25,3.75,9.25,11.0,6.0,0.75,6.0,1.5,2.75,1.5,1.0,1.25,-0.17,0.08,1.02,749.64,2.0,25.4,1.0,0.25,0.0,0.5,1.75,0.25,0.5,1.5,0.25,7.5,5.75,6.0,6.5,0.02,0.33,2.2,326.97,2.4,-68.6
0.28,0.0,4.5,4.0,9.25,11.5,6.0,0.5,5.5,1.25,1.75,1.5,0.75,1.0,-0.23,0.14,1.02,782.52,2.4,30.0,0.0,0.5,0.0,0.5,3.0,0.5,0.25,3.75,1.0,8.25,7.75,6.0,7.0,0.02,0.27,1.52,462.57,3.8,-65.3
0.3,0.0,4.75,3.75,10.5,12.0,5.75,0.75,4.75,1.0,1.75,1.25,0.75,0.75,-0.23,0.14,1.08,811.02,3.1,33.8,0.25,0.0,0.0,1.0,0.0,0.75,0.0,4.25,1.0,8.0,7.25,5.5,6.75,0.08,0.14,1.08,559.53,4.2,-74.8
0.32,2.25,5.5,4.75,10.5,0.0,6.0,0.5,4.5,1.0,1.5,1.0,0.75,0.5,-0.23,0.14,1.14,736.3,8.3,35.1,1.75,0.75,0.75,1.25,3.5,0.0,0.0,6.25,2.25,9.25,9.0,6.75,7.75,0.08,0.14,0.95,699.05,1.4,-54.8
0.34,0.25,5.5,5.5,10.5,0.0,5.5,0.5,3.75,0.75,1.75,0.75,0.75,0.5,-0.3,0.2,1.2,654.02,8.3,34.5,1.5,0.75,2.0,1.5,2.5,2.25,1.25,7.25,2.75,9.75,9.5,6.75,8.0,0.14,0.08,0.95,829.08,1.2,-50.3
0.36,3.25,5.75,5.5,10.5,0.0,5.0,0.5,3.75,0.75,1.5,1.0,0.75,0.75,-0.3,0.2,1.2,596.95,10.6,38.5,1.5,1.25,2.0,1.75,3.5,2.5,1.25,7.75,3.25,9.75,9.75,6.75,8.0,0.14,0.08,0.95,966.81,1.1,-46.1
0.38,3.25,6.0,5.75,10.5,0.0,0.0,0.5,3.25,0.75,1.5,1.0,0.75,0.5,-0.3,0.2,1.14,539.11,16.0,42.0,1.5,1.25,2.0,1.75,3.75,2.5,1.25,7.75,3.5,9.75,9.75,6.75,8.0,0.14,0.08,0.95,1058.71,1.1,-45.5
0.4,3.75,6.0,0.0,9.25,0.0,0.0,0.5,2.5,0.5,1.5,0.75,0.5,0.5,-0.36,0.33,1.33,450.73,12.4,43.6,1.75,1.25,2.5,2.0,3.75,2.5,1.5,7.75,3.5,9.25,9.75,6.5,7.5,0.14,0.08,0.95,1105.2,0.2,-42.3
0.42,3.75,5.5,5.25,9.25,0.0,0.0,0.5,2.25,0.75,1.5,0.75,0.75,0.5,-0.55,0.39,1.45,411.3,17.1,44.5,1.75,1.25,2.5,2.0,3.75,2.75,1.75,8.0,3.5,8.75,9.0,6.0,6.5,0.14,0.08,0.95,1084.54,0.2,-39.3
0.44,1.25,4.5,3.0,8.0,0.0,0.0,0.5,2.0,0.75,1.5,0.75,0.75,0.5,-0.61,0.39,1.7,350.29,13.8,35.4,1.75,1.25,3.5,2.0,5.0,3.25,1.75,7.75,3.5,8.25,8.5,5.5,6.0,0.14,0.08,0.95,1038.79,-0.3,-32.8
0.46,0.0,2.75,2.75,5.25,0.0,0.0,0.5,0.0,0.5,1.5,0.0,0.75,0.25,-0.67,1.27,2.52,272.98,16.1,37.2,2.0,1.25,4.75,2.25,4.5,3.5,1.75,7.75,3.0,7.75,7.75,5.0,5.5,0.2,0.08,0.95,971.11,-1.3,-27.9
0.48,0.0,0.0,2.25,0.75,0.0,0.0,0.5,0.0,0.5,0.0,0.25,0.0,0.25,-0.61,1.14,3.02,163.26,26.5,29.4,1.75,1.75,5.0,2.0,5.25,2.75,2.0,7.25,3.0,7.25,7.5,4.25,4.5,0.14,0.08,0.95,898.46,-2.1,-23.2
0.5,0.0,0.0,0.75,1.0,0.0,0.0,0.25,0.0,0.5,1.5,0.0,0.0,0.25,-0.48,0.45,2.14,61.36,7.2,-11.8,1.5,1.0,5.0,2.0,3.5,2.5,2.25,6.25,2.25,5.75,5.75,3.0,2.75,0.14,0.08,0.95,772.38,-3.3,-19.1
0.52,0.0,0.0,0.0,0.0,0.0,0.0,0.0,2.0,0.0,0.0,0.5,0.0,0.0,-0.8,-0.05,2.08,0.0,-11.4,-45.9,1.75,1.0,5.0,2.0,3.5,2.5,1.75,6.25,2.25,5.0,5.0,2.25,2.0,0.14,0.08,0.95,655.23,-3.7,-13.2
0.54,0.0,0.0,0.0,0.0,0.0,0.0,0.0,0.0,0.0,0.0,0.0,0.0,0.0,-0.86,-0.8,3.14,0.0,0.0,0.0,1.75,1.0,5.0,3.0,3.75,2.5,1.75,5.5,1.75,4.5,4.0,1.75,1.25,0.14,0.08,0.95,550.78,-4.7,-4.0
0.56,0.0,0.0,0.0,0.0,0.0,0.0,0.0,0.0,0.0,0.0,0.0,0.0,0.0,-0.42,-1.11,1.95,0.0,0.0,0.0,1.75,1.25,6.5,4.25,3.75,2.5,1.75,5.5,1.5,3.25,3.5,1.25,0.5,0.14,0.08,0.95,481.68,-7.5,8.7
0.58,0.0,0.0,0.0,0.0,0.0,0.0,0.0,0.0,0.0,0.0,0.0,0.0,0.0,-0.42,-0.8,0.95,0.0,0.0,0.0,3.0,1.25,7.25,5.0,5.0,2.75,1.75,5.0,1.5,1.75,2.5,0.75,0.25,0.14,0.08,0.95,459.13,-9.9,24.0
0.6,0.0,0.0,0.0,0.0,0.0,0.0,0.0,0.0,0.0,0.0,0.0,0.0,0.0,-0.48,-0.67,0.52,0.0,0.0,0.0,4.25,1.75,7.75,6.25,5.75,2.75,2.25,4.25,1.25,1.5,1.5,0.25,0.0,0.14,0.14,0.95,476.27,-11.9,36.7
0.62,0.0,0.0,0.0,0.0,0.0,0.0,0.0,0.0,0.0,0.0,0.0,0.0,0.0,-0.42,-0.55,0.52,0.0,0.0,0.0,4.5,2.25,8.5,8.0,6.25,3.25,2.25,4.25,1.0,1.5,1.5,0.25,0.0,0.14,0.14,0.95,527.27,-12.2,39.7
0.64,0.0,0.0,0.0,0.0,0.0,0.0,0.0,0.0,0.0,0.0,0.0,0.0,0.0,-0.36,-0.48,0.83,0.0,0.0,0.0,6.25,3.0,9.25,9.75,6.25,4.5,2.25,3.75,1.0,1.5,1.0,0.75,0.0,0.14,0.14,0.95,616.16,-13.0,43.9
0.66,0.0,0.0,0.0,0.0,0.0,0.0,0.0,0.0,0.0,0.0,0.0,0.0,0.0,-0.36,-0.3,1.08,0.0,0.0,0.0,6.75,2.75,11.5,11.5,8.0,4.0,2.25,3.25,0.25,0.0,0.25,0.75,0.0,0.14,0.14,1.02,720.75,-15.3,52.9
0.68,0.0,0.0,0.0,0.0,0.0,0.0,0.0,0.0,0.0,0.0,0.0,0.0,0.0,-0.36,-0.05,0.95,0.0,0.0,0.0,8.25,3.75,10.5,8.5,8.0,2.75,2.25,2.25,0.25,0.0,0.25,0.25,0.0,0.14,0.14,1.14,777.4,-16.9,58.9
0.7,0.0,0.0,0.0,0.0,0.0,0.0,0.0,0.0,0.0,0.0,0.0,0.0,0.0,-0.42,0.08,1.14,0.0,0.0,0.0,8.5,5.25,11.5,13.0,7.75,3.0,1.25,1.5,0.25,1.25,0.5,0.5,0.0,0.08,0.14,1.14,870.18,-16.7,57.3
0.72,0.0,0.0,0.0,0.0,0.0,0.0,0.0,0.0,0.0,0.0,0.0,0.0,0.0,-0.42,0.27,1.27,0.0,0.0,0.0,9.0,5.75,13.5,13.0,8.0,2.5,1.0,1.5,0.25,0.5,0.25,0.5,0.0,0.08,0.2,1.14,953.63,-18.3,60.7
0.74,0.0,0.0,0.0,0.0,0.0,0.0,0.0,0.0,1.25,0.0,0.0,0.0,0.0,-0.48,0.39,1.58,0.88,12.1,-38.5,8.25,4.5,13.5,10.0,8.25,0.75,1.25,1.5,0.25,0.0,0.25,0.25,0.0,0.02,0.2,1.14,974.51,-19.9,62.3
0.76,0.0,0.0,0.0,0.0,0.0,0.0,4.0,2.5,0.25,0.0,0.0,0.0,0.0,-0.61,0.52,1.89,29.67,4.9,-11.5,8.75,3.5,12.0,9.75,7.75,0.5,0.75,1.5,0.25,0.0,0.75,0.0,0.0,0.02,0.27,1.14,933.06,-20.0,61.8
0.78,0.0,0.0,0.0,0.0,0.0,0.0,1.25,0.0,1.0,0.0,0.0,0.0,0.0,-0.73,0.64,2.33,38.29,19.8,-13.6,8.75,3.75,14.5,9.75,6.25,0.0,0.75,0.0,0.0,0.0,0.0,0.0,0.0,0.08,0.33,1.2,868.43,-23.8,68.8
0.8,0.0,0.0,0.0,0.0,0.0,0.0,4.0,2.5,2.0,0.0,0.0,0.0,0.0,-0.98,1.14,2.7,66.47,6.9,-18.8,8.5,3.75,12.0,8.25,5.75,0.0,0.75,0.0,0.0,0.0,0.0,0.25,0.0,0.08,0.33,1.33,772.12,-23.4,68.6
0.82,0.0,0.0,0.0,0.0,0.0,0.0,4.25,4.25,2.0,0.0,0.0,0.0,0.0,-0.92,1.89,2.39,93.43,2.2,-22.4,8.25,2.75,11.5,8.0,3.75,0.0,0.75,0.0,0.25,0.0,0.0,0.0,0.0,0.14,0.45,1.39,666.01,-25.2,69.3
0.84,0.0,0.0,0.0,0.0,0.0,0.0,4.0,2.25,1.5,0.0,0.0,0.0,0.0,-0.42,2.89,2.27,106.51,7.5,-16.2,6.75,1.75,9.25,5.0,3.5,0.0,1.25,0.0,0.0,0.0,0.0,0.0,0.0,0.2,0.64,2.14,533.43,-25.5,69.5
0.86,0.0,0.0,0.0,0.0,0.0,0.0,4.75,4.0,0.75,0.0,0.25,0.0,0.0,0.33,3.77,1.08,116.99,2.5,-19.2,4.25,0.5,7.5,2.0,0.0,0.0,1.0,0.0,0.25,0.0,0.0,0.25,0.0,0.02,1.7,2.58,364.01,-32.5,65.9
0.88,0.0,0.0,0.0,0.0,0.0,0.0,1.0,0.0,0.25,0.0,0.0,0.0,0.0,0.77,4.89,0.45,90.62,25.5,4.9,3.0,1.25,5.0,2.0,0.0,0.0,1.25,0.0,0.25,0.0,0.25,0.25,0.0,0.02,1.39,2.52,245.86,-29.5,63.0
0.9,0.0,0.0,0.5,0.0,0.0,0.0,0.25,0.75,0.0,0.0,0.0,0.0,0.0,1.08,5.33,0.27,66.54,7.9,4.0,1.75,1.0,4.75,0.5,3.25,0.0,0.75,0.0,0.25,0.0,0.25,0.0,0.0,-0.05,0.33,2.39,159.18,-21.3,60.9
0.92,0.0,0.0,0.0,0.0,0.0,0.0,0.0,0.0,0.5,0.0,0.0,0.0,0.0,0.33,2.02,4.2,34.94,12.1,-38.5,1.5,1.0,0.75,1.5,1.5,0.0,0.75,0.0,0.25,0.25,0.0,0.25,0.0,0.45,-0.42,2.02,80.78,-16.5,55.7
0.94,0.0,0.0,0.0,0.0,0.0,0.0,0.0,0.0,0.0,0.0,0.0,0.0,0.0,-1.42,-0.98,0.83,16.13,0.0,0.0,1.75,0.25,0.0,1.25,0.25,0.0,3.25,2.5,0.75,0.0,0.25,0.0,0.0,0.64,-0.92,2.89,29.8,-11.9,20.6
0.96,0.0,0.0,0.0,0.0,0.0,0.0,0.0,0.0,1.5,3.5,0.0,2.0,0.0,-0.05,0.2,0.77,42.5,-2.7,-77.4,0.25,0.0,0.0,0.0,0.0,2.0,3.5,0.25,0.25,0.5,0.0,0.25,0.25,0.45,-0.92,1.27,0.0,-1.6,3.8
0.98,0.0,0.0,0.75,0.0,0.0,0.0,0.5,2.25,0.0,4.75,3.25,0.0,5.25,0.33,0.39,2.27,124.78,-6.9,-73.8,1.75,0.0,1.0,0.0,1.5,0.0,0.75,0.5,0.0,0.0,0.5,0.0,0.0,0.39,-0.73,0.89,0.0,-17.2,46.9
1.0,0.0,0.0,0.5,0.0,0.0,0.0,0.25,3.5,0.0,6.5,5.25,4.75,5.5,-0.67,0.33,2.08,239.91,-4.5,-81.1,1.75,0.25,0.0,1.25,0.0,0.0,0.0,0.0,0.25,0.0,0.0,0.25,0.0,0.27,-0.55,0.64,0.0,-23.8,60.7
1.02,0.0,0.5,0.0,0.0,0.0,0.0,0.5,5.0,0.0,7.0,6.75,5.25,6.25,-0.23,0.27,1.45,349.58,-4.8,-78.8,1.25,0.25,0.75,1.25,1.75,0.0,0.75,0.5,0.25,0.0,0.5,0.25,0.0,0.14,-0.36,0.7,0.0,-13.9,39.1
1.04,0.0,0.25,0.0,0.0,0.0,0.0,0.75,6.0,1.75,7.5,7.0,5.5,6.75,-0.17,0.08,1.02,472.69,-4.4,-77.2,1.25,0.5,0.5,1.0,1.25,0.0,0.75,0.25,0.25,0.0,0.5,0.25,0.0,0.08,-0.23,0.89,12.44,-15.6,41.6
1.06,0.0,0.0,0.0,0.25,0.0,1.0,0.75,6.5,3.5,7.5,7.5,6.0,6.75,-0.17,0.02,0.95,590.64,-3.9,-73.0,0.0,0.0,0.25,0.0,1.25,0.0,0.75,0.0,0.0,0.0,0.5,0.0,0.0,0.08,-0.05,0.95,20.07,-8.6,26.0
1.08,0.0,0.25,0.5,1.25,0.0,1.5,1.25,6.5,4.25,7.75,8.0,6.0,6.75,-0.17,0.02,0.95,694.25,-2.4,-64.9,0.0,0.5,0.0,0.0,0.0,0.0,0.0,0.0,0.0,0.0,0.0,0.0,0.0,0.02,0.02,1.02,11.97,-12.6,98.9
1.1,0.0,1.0,0.0,2.0,0.0,1.75,1.25,6.75,5.0,7.5,8.0,6.0,6.75,-0.17,0.02,0.95,772.68,-2.1,-60.2,1.25,0.5,0.0,0.5,0.0,0.0,0.0,0.0,0.75,0.0,0.0,0.0,0.0,-0.11,0.14,1.2,16.45,-22.1,56.6
1.12,0.0,1.5,2.0,2.75,0.0,1.75,1.25,7.0,5.25,7.5,8.0,5.5,6.25,-0.17,-0.05,0.95,836.8,0.0,-50.1,1.0,0.5,0.25,0.0,1.0,0.0,0.75,0.75,0.25,0.0,0.0,0.25,0.0,-0.17,0.27,1.52,24.93,-11.0,36.7
1.14,0.0,1.5,2.0,1.75,0.0,2.0,1.5,6.75,5.25,6.75,7.5,5.5,6.0,-0.17,-0.05,0.95,848.23,0.0,-51.0,1.5,0.75,0.25,0.5,1.25,0.0,0.75,0.0,0.25,0.0,0.75,0.25,0.0,-0.17,0.52,1.58,50.02,-16.3,42.6
1.16,0.0,1.5,1.75,2.75,0.0,2.25,1.25,6.75,4.75,6.5,7.25,4.25,5.25,-0.17,-0.05,0.95,818.43,-0.2,-46.0,1.25,0.5,0.0,0.5,1.5,0.0,0.75,0.0,0.25,0.0,0.25,0.25,0.0,-0.11,0.89,1.58,70.89,-13.9,48.2
1.18,0.0,1.5,1.25,3.25,6.0,2.75,1.25,6.5,4.5,6.0,6.5,3.75,4.25,-0.17,0.02,0.95,783.52,-0.9,-28.0,1.25,0.75,0.25,0.5,1.75,0.0,0.75,0.0,0.25,0.0,0.5,0.25,0.0,-0.11,1.02,2.08,87.23,-13.9,46.2
1.2,0.0,1.5,2.25,3.0,6.0,2.75,1.25,6.25,4.0,5.0,5.75,3.0,3.0,-0.17,0.02,0.95,721.89,0.1,-20.6,0.0,0.0,0.0,0.0,1.0,0.0,0.75,0.0,0.0,0.0,0.5,0.0,0.0,-0.05,1.14,2.7,72.71,-6.5,17.6
1.22,0.0,1.5,2.25,4.0,6.25,2.75,1.25,6.25,3.75,4.75,5.0,2.25,2.75,-0.17,0.02,0.95,669.63,0.3,-14.7,0.0,0.0,0.0,0.0,0.0,0.0,0.0,0.0,0.0,0.0,0.0,0.0,0.0,0.14,1.7,2.39,44.45,0.0,0.0
1.24,0.0,1.5,3.0,4.5,6.25,2.75,1.25,5.75,3.5,3.5,4.25,2.0,2.0,-0.17,0.02,0.95,616.19,1.9,-6.6,0.0,0.0,0.0,0.0,0.0,2.5,0.0,0.0,1.25,0.0,0.0,0.0,0.0,0.08,1.95,1.83,36.64,10.8,9.1
1.26,0.0,2.0,3.75,4.75,7.25,3.0,1.25,5.5,3.25,3.5,3.5,1.75,1.5,-0.17,0.02,0.95,592.0,2.6,1.7,0.0,0.0,0.0,0.0,0.0,0.0,0.0,0.0,0.0,0.0,0.0,0.0,0.0,-0.17,2.27,1.14,16.04,0.0,0.0
1.28,0.5,3.0,3.75,6.0,7.5,2.75,1.25,5.5,2.75,3.25,3.25,1.75,1.5,-0.17,0.02,0.95,588.1,3.6,8.2,0.5,0.5,0.0,0.5,0.0,0.0,4.75,2.0,0.25,0.0,0.75,0.25,0.0,-0.8,2.95,0.2,47.1,-12.1,2.8
1.3,0.5,3.0,4.75,6.75,7.25,3.0,1.25,5.25,2.5,3.25,3.0,1.75,1.5,-0.17,0.08,0.95,603.49,4.6,11.1,1.25,0.75,0.0,0.5,2.75,0.0,0.25,0.0,0.25,0.0,0.75,0.25,0.0,-1.48,4.45,-0.36,76.14,-9.4,43.3
1.32,2.0,3.25,5.5,7.25,8.25,3.0,1.25,4.75,2.25,2.75,2.5,1.25,1.5,-0.17,0.08,0.95,637.69,6.4,20.6,1.25,0.5,0.0,0.5,2.5,0.0,0.25,0.0,0.25,0.0,0.25,0.25,0.0,-1.61,3.64,0.02,98.57,-9.8,50.1
1.34,2.25,4.0,6.0,8.0,8.5,3.0,1.25,4.75,1.75,2.25,2.25,1.0,0.75,-0.17,0.08,0.95,674.28,7.6,28.5,1.0,0.5,0.0,0.5,1.75,0.0,0.5,0.0,0.25,2.0,0.75,1.5,0.0,-0.98,5.89,1.39,113.29,-4.8,-10.5
1.36,3.75,4.5,6.5,9.25,8.5,3.5,1.25,4.75,1.75,1.75,1.75,0.75,0.75,-0.11,0.08,0.95,728.28,8.9,35.1,1.0,0.75,0.0,0.5,1.25,0.0,0.25,0.0,0.25,6.25,2.75,5.5,3.25,0.39,-0.17,1.2,192.58,0.6,-63.0
1.38,5.25,4.75,7.25,9.25,9.25,3.5,1.0,4.5,1.5,1.75,1.75,0.75,0.75,-0.17,0.08,0.95,793.16,9.9,38.5,1.0,0.5,0.0,0.5,1.5,0.25,0.25,0.25,0.25,8.25,5.75,7.25,8.0,0.52,0.39,1.58,305.63,2.3,-73.3
1.4,6.25,5.5,7.25,10.5,9.75,3.5,0.75,3.75,1.5,1.75,1.5,0.75,0.5,-0.17,0.14,1.02,866.3,10.8,43.3,0.0,0.75,0.0,0.5,1.75,0.75,0.75,3.25,1.0,8.75,7.75,7.0,8.75,-0.36,0.52,2.83,472.47,3.7,-70.9
1.42,6.75,5.5,7.0,10.5,0.0,3.0,0.75,3.75,1.0,1.75,1.5,0.75,0.5,-0.17,0.14,1.02,826.75,15.0,42.2,0.25,0.0,0.0,0.5,2.75,1.25,0.25,5.5,1.5,9.25,8.75,6.0,8.0,0.14,0.27,1.45,645.89,4.6,-65.7
1.44,7.0,6.25,0.0,10.5,0.0,3.0,0.5,3.5,0.75,1.5,1.5,0.0,0.5,-0.17,0.14,1.14,724.15,10.8,45.2,1.5,1.25,0.5,1.5,3.25,2.25,0.75,6.75,2.0,9.25,8.75,5.5,7.25,0.02,0.27,1.27,795.47,2.6,-48.1
1.46,7.0,6.5,7.25,10.0,0.0,1.75,0.5,2.75,1.0,1.5,1.5,0.75,0.5,-0.23,0.2,1.14,658.26,17.2,46.8,1.75,1.25,2.0,2.0,2.25,3.75,1.25,7.75,2.5,9.0,8.75,5.5,6.25,0.2,0.14,1.02,894.2,1.3,-41.4
1.48,7.5,6.5,7.25,10.5,0.0,2.0,0.0,2.0,0.75,1.5,1.25,0.75,1.0,-0.23,0.2,1.2,622.35,17.4,48.4,1.75,1.25,2.5,2.0,4.75,4.75,1.25,8.0,2.75,8.75,8.25,4.25,5.75,0.2,0.14,1.02,953.99,1.6,-31.6
1.5,8.5,6.75,8.25,10.5,0.0,1.75,0.0,2.0,0.75,1.5,1.25,0.5,0.5,-0.36,0.27,1.27,625.85,18.9,53.0,2.0,2.0,2.5,3.75,6.0,5.75,1.25,8.25,2.75,8.0,7.75,3.0,4.5,0.27,0.14,1.02,1000.13,0.9,-18.9
1.52,8.5,6.5,8.25,10.5,0.0,0.0,0.0,2.0,0.75,1.5,1.25,0.75,0.5,-0.42,0.33,1.52,626.0,20.5,52.5,2.75,2.5,2.75,4.5,6.25,6.5,1.25,7.5,1.75,6.0,4.75,1.75,2.0,0.27,0.14,0.95,974.66,0.0,-0.2
1.54,8.5,5.5,7.75,8.0,0.0,0.0,0.25,2.0,0.75,1.25,1.0,0.25,0.25,-0.61,0.33,1.83,592.18,21.5,55.8,2.75,2.75,4.0,5.25,7.5,7.0,1.0,7.0,1.5,4.75,2.5,0.75,1.0,0.27,0.14,0.95,932.71,-1.2,15.3
1.56,7.0,0.0,7.75,7.25,0.0,0.0,0.5,2.0,0.75,1.25,0.5,0.0,0.5,-0.73,0.45,2.08,491.45,22.9,46.7,3.0,2.75,4.5,6.0,7.75,7.0,0.75,6.25,1.25,4.0,1.5,0.75,0.5,0.27,0.14,0.95,869.69,-2.4,23.0
1.58,2.5,0.0,5.75,4.5,0.0,0.0,0.5,0.0,0.75,0.25,0.0,0.5,0.25,-0.98,1.39,3.08,347.02,26.9,49.4,3.0,2.75,4.5,5.75,7.75,7.0,0.75,6.25,1.0,3.25,1.5,0.75,0.75,0.27,0.14,0.95,804.98,-2.4,24.0
1.6,0.0,0.0,2.75,1.75,0.0,0.0,0.5,0.0,0.5,0.0,1.0,0.0,0.5,-0.42,1.14,3.52,217.09,22.8,19.8,2.75,2.75,4.0,4.5,7.75,7.0,1.0,5.75,1.0,3.25,1.25,0.75,0.5,0.27,0.14,0.89,723.94,-1.7,24.2
1.62,0.0,0.0,0.0,0.0,0.0,0.0,0.0,0.0,0.0,0.0,0.0,0.0,0.0,-0.67,-0.3,2.7,69.05,0.0,0.0,3.0,2.75,4.75,5.75,7.75,7.5,0.75,5.25,1.0,3.25,1.5,0.75,0.5,0.27,0.14,0.83,686.18,-2.9,26.5
1.64,0.0,0.0,0.0,0.0,0.0,0.0,0.0,0.0,0.0,0.0,0.0,0.0,0.0,-0.86,-0.86,2.02,0.0,0.0,0.0,3.75,3.5,5.0,6.25,8.75,7.5,0.75,5.5,1.0,2.75,1.25,0.75,0.5,0.27,0.14,0.89,688.11,-3.8,31.1
1.66,0.0,0.0,0.0,0.0,0.0,0.0,0.0,0.0,0.0,0.0,0.0,0.0,0.0,-0.55,-0.92,1.33,0.0,0.0,0.0,4.5,4.0,6.5,6.25,9.0,7.25,0.5,5.25,1.0,1.5,1.25,0.75,0.5,0.27,0.14,0.95,715.43,-6.0,36.9
1.68,0.0,0.0,0.0,0.0,0.0,0.0,0.0,0.0,0.0,0.0,0.0,0.0,0.0,-0.61,-0.73,0.39,0.0,0.0,0.0,5.5,4.25,7.25,6.75,9.0,7.0,0.25,4.5,1.0,1.5,0.75,0.75,0.5,0.2,0.2,0.89,751.19,-7.5,41.2
1.7,0.0,0.0,0.0,0.0,0.0,0.0,0.0,0.0,0.0,0.0,0.0,0.0,0.0,-0.48,-0.73,0.33,0.0,0.0,0.0,6.0,4.25,7.5,7.25,9.0,7.0,0.25,4.25,1.0,0.5,0.5,0.75,0.5,0.2,0.2,0.89,782.55,-8.6,45.3
1.72,0.0,0.0,0.0,0.0,0.0,0.0,0.0,0.0,0.0,0.0,0.0,0.0,0.0,-0.3,-0.8,0.45,0.0,0.0,0.0,6.75,4.25,7.5,7.25,8.5,6.75,0.75,4.25,0.75,1.5,0.75,0.75,0.0,0.14,0.2,0.89,807.39,-9.1,44.9
1.74,0.0,0.0,0.0,0.0,0.0,0.0,0.0,0.0,0.0,0.0,0.0,0.0,0.0,-0.36,-0.8,0.7,0.0,0.0,0.0,7.5,4.25,8.5,7.25,9.0,6.5,0.75,4.25,0.75,1.5,0.75,0.75,0.25,0.2,0.14,0.89,840.73,-9.9,45.3
1.76,0.0,0.0,0.0,0.0,0.0,0.0,0.0,0.0,0.0,0.0,0.0,0.0,0.0,-0.36,-0.55,0.89,0.0,0.0,0.0,7.75,4.25,9.0,6.75,8.0,5.75,0.75,4.25,0.75,1.5,0.5,1.0,0.0,0.14,0.14,1.02,859.27,-11.1,46.1
1.78,0.0,0.0,0.0,0.0,0.0,0.0,0.0,0.0,0.0,0.0,0.0,0.0,0.0,-0.3,-0.17,0.77,0.0,0.0,0.0,7.5,2.75,8.5,5.25,6.25,4.5,0.25,3.0,0.25,0.0,0.0,0.25,0.0,0.27,0.2,0.95,783.87,-13.9,56.1
1.8,0.0,0.0,0.0,0.0,0.0,0.0,0.0,0.0,0.0,0.0,0.0,0.0,0.0,-0.17,0.02,1.14,0.0,0.0,0.0,7.5,2.75,8.75,6.0,6.25,3.25,0.0,3.0,0.25,0.0,0.0,0.25,0.0,0.14,0.2,0.89,706.13,-15.2,56.9
1.82,0.0,0.0,0.0,0.0,0.0,0.0,0.0,0.0,0.0,0.0,0.0,0.0,0.0,0.14,0.2,1.33,0.0,0.0,0.0,8.25,2.75,9.25,6.0,6.25,2.5,0.0,3.0,0.25,0.0,0.0,0.25,0.0,-0.05,0.14,1.02,639.77,-16.6,58.1
1.84,0.0,0.0,0.25,0.25,0.0,0.0,0.25,0.25,0.0,0.0,0.0,0.0,0.0,0.14,0.7,2.02,0.0,15.7,27.5,8.25,2.5,9.25,5.75,5.5,2.5,0.0,2.75,0.25,0.0,0.0,0.25,0.0,-0.05,0.14,0.95,593.27,-17.3,58.6
1.86,0.0,0.0,0.25,0.0,0.0,0.0,0.0,0.5,0.0,0.0,0.0,0.0,0.0,-0.23,1.77,2.02,9.18,1.9,-4.8,8.25,2.0,9.25,5.25,3.75,1.5,0.0,3.0,0.5,1.5,0.0,0.75,0.0,0.08,0.2,1.08,549.14,-17.8,49.8
1.88,0.0,0.0,0.25,0.0,0.0,0.0,0.0,0.5,0.0,0.0,0.0,0.0,0.0,-0.11,2.58,1.95,12.75,1.9,-4.8,9.0,2.75,11.5,4.5,5.25,2.0,0.25,2.75,0.25,0.0,0.25,0.5,0.0,0.14,0.33,1.14,547.93,-19.4,58.1
1.9,0.0,0.0,0.25,0.0,0.0,0.0,0.0,0.5,0.0,0.0,0.0,0.0,0.0,0.02,2.89,1.83,14.13,1.9,-4.8,8.5,2.0,11.5,5.0,3.75,1.5,0.0,1.5,0.25,0.0,0.0,0.25,0.0,0.14,0.33,1.14,522.17,-22.4,62.9
1.92,0.0,0.0,0.0,0.0,0.0,0.0,0.0,0.5,0.0,0.0,0.0,0.0,0.0,-0.05,3.08,1.45,13.37,-16.7,-38.7,8.5,1.0,9.25,3.0,1.5,2.0,0.0,1.5,0.25,0.25,0.0,0.25,0.0,0.14,0.33,0.83,458.38,-23.1,61.2
1.94,0.0,0.0,0.0,0.0,0.0,0.0,0.25,0.0,0.0,0.0,0.0,0.0,0.0,-2.67,5.08,1.08,9.73,32.4,27.3,9.25,1.0,8.75,4.0,0.25,2.25,0.0,1.5,0.25,1.0,0.0,0.75,0.0,0.02,0.33,0.77,408.19,-22.6,55.6
1.96,0.0,0.0,0.0,0.0,0.0,0.0,0.25,0.0,0.0,0.0,0.0,0.0,0.0,-1.3,2.2,1.45,6.53,32.4,27.3,9.25,1.25,8.5,3.5,0.0,2.0,0.25,1.25,0.25,1.0,0.0,0.25,0.0,-0.23,0.27,0.77,370.11,-23.8,60.0
1.98,0.0,0.0,0.0,0.0,0.0,0.0,0.0,0.5,0.0,0.0,0.0,0.0,0.0,0.14,2.52,0.39,6.21,-16.7,-38.7,8.75,0.25,8.5,2.0,0.0,0.25,0.5,0.0,0.25,0.0,0.0,0.25,0.0,-0.48,0.14,0.95,319.61,-32.9,72.0
2.0,0.0,0.0,0.0,0.25,0.0,0.0,0.0,0.5,0.75,1.5,0.0,0.0,0.0,-0.36,1.08,0.64,21.01,-6.1,-48.6,9.25,0.25,8.25,2.0,0.0,0.0,0.75,0.0,0.0,0.0,0.0,0.25,0.0,-0.67,0.02,1.33,289.67,-33.8,74.3
2.02,0.0,0.0,0.0,0.0,0.0,0.0,0.0,0.5,0.0,0.0,0.0,0.0,0.0,1.27,0.7,1.39,20.92,-16.7,-38.7,8.75,0.0,7.75,3.25,0.0,0.0,0.75,0.0,0.0,0.0,0.0,0.25,0.0,-0.61,0.08,1.27,274.03,-32.9,72.7
2.04,0.0,0.0,0.0,0.0,0.0,0.0,0.0,0.5,0.0,0.0,0.0,0.0,0.0,0.33,0.58,0.58,20.28,-16.7,-38.7,8.5,0.0,7.5,2.0,0.0,0.0,0.75,0.0,0.0,0.0,0.0,0.0,0.0,-0.42,0.33,1.27,253.01,-34.2,76.1
2.06,0.0,0.0,0.25,0.0,0.0,0.0,0.0,0.5,0.0,0.0,0.0,0.0,0.0,0.14,-0.11,0.58,15.4,1.9,-4.8,8.25,0.5,6.5,2.75,0.0,0.0,0.75,0.0,0.0,0.0,0.0,0.25,0.0,-0.48,0.33,1.08,241.21,-32.3,74.0
2.08,0.0,0.0,0.25,0.0,0.0,0.0,0.25,0.5,0.0,0.0,0.0,0.0,0.0,-0.55,-0.11,-0.17,13.71,6.0,-0.4,8.25,0.0,6.5,1.75,0.0,0.0,0.75,0.0,0.0,0.0,0.0,0.25,0.0,-0.36,0.39,0.83,231.7,-33.9,74.3
2.1,0.0,0.0,0.25,0.0,0.0,0.0,0.0,0.75,0.0,0.0,0.0,0.0,0.0,-1.86,0.33,-0.61,13.56,-2.7,-13.2,8.25,0.0,6.5,2.0,0.0,0.0,0.75,0.0,0.0,0.0,0.0,0.25,0.0,-0.42,0.39,0.64,227.36,-33.6,74.0
2.12,0.0,0.0,0.25,0.0,0.0,0.0,0.0,0.75,0.0,0.0,0.0,0.0,0.0,-2.05,0.39,-0.05,15.69,-2.7,-13.2,7.75,0.25,7.5,2.0,0.0,0.0,0.75,0.0,0.0,0.0,0.25,0.25,0.0,-0.55,0.45,0.58,229.17,-33.2,71.0
2.14,0.0,0.0,0.25,0.0,0.0,0.0,0.0,0.5,0.0,0.0,0.0,0.0,0.0,-1.23,1.02,0.02,15.84,1.9,-4.8,8.25,1.0,5.0,2.0,0.0,0.0,0.75,0.0,0.25,0.0,0.25,0.25,0.0,-0.67,0.52,0.45,236.68,-31.3,72.9
2.16,0.0,0.0,0.25,0.0,0.0,0.0,0.0,0.75,0.75,1.5,0.0,0.0,0.0,-0.55,0.95,1.02,28.74,-5.3,-47.8,6.75,0.0,5.0,1.75,0.0,0.0,0.0,0.0,0.0,0.0,0.0,0.0,0.0,-0.67,0.45,0.02,226.61,-33.8,78.0
2.18,0.0,0.0,1.25,0.5,0.0,0.0,0.5,2.0,0.0,1.5,0.75,0.5,0.5,-0.48,1.64,0.95,60.91,1.9,-33.1,6.0,0.0,5.0,1.25,0.0,0.0,0.25,0.0,0.0,0.0,0.0,0.0,0.0,-0.86,0.45,0.02,206.9,-34.4,77.3
2.2,0.0,0.0,1.0,0.0,0.0,0.0,0.0,0.75,0.0,0.0,0.0,0.0,0.0,-1.3,1.58,1.2,62.11,15.0,18.9,6.75,1.0,6.5,2.0,0.25,0.0,0.75,0.0,0.25,0.0,0.25,0.0,0.0,-0.92,0.39,0.27,215.55,-31.4,72.2
2.22,0.0,0.0,0.25,0.0,0.0,0.0,0.0,1.25,0.0,0.0,0.0,0.0,0.25,-2.42,1.77,0.89,57.59,-8.3,-34.6,5.5,0.0,5.0,0.75,0.0,0.0,0.0,0.0,0.0,0.0,0.0,0.0,0.0,-0.92,0.52,0.27,201.32,-35.2,77.8
2.24,0.0,0.0,0.25,0.0,0.0,0.0,0.0,0.75,0.0,0.0,0.0,0.0,0.0,-2.48,1.33,1.2,39.89,-2.7,-13.2,5.75,0.75,4.0,1.75,0.0,0.0,0.5,0.0,0.25,0.75,0.0,0.75,0.0,-0.86,0.58,0.27,202.61,-27.8,58.1
2.26,0.0,0.0,0.25,0.0,0.0,0.0,0.0,0.75,0.0,0.0,0.0,0.0,0.0,-1.11,-0.73,1.77,29.85,-2.7,-13.2,5.25,1.25,5.0,1.75,1.0,0.0,0.5,0.0,0.25,0.25,0.25,0.25,0.0,-0.8,0.64,0.14,207.88,-27.2,65.7
2.28,0.0,0.0,1.25,0.0,0.0,0.0,0.5,1.75,0.0,0.0,0.5,0.0,0.25,1.2,-1.92,1.14,35.86,7.3,-11.8,4.5,1.0,4.0,1.75,1.25,0.0,0.5,0.0,0.25,0.5,0.25,0.25,0.0,-0.92,0.58,-0.17,213.03,-24.9,61.0
2.3,0.0,0.0,0.25,0.0,0.0,0.0,0.0,0.75,0.0,0.0,0.0,0.0,0.0,2.02,-2.05,0.39,32.49,-2.7,-13.2,3.0,0.75,2.5,0.75,1.25,0.0,0.5,0.0,0.25,0.25,0.25,0.25,0.0,-1.23,0.27,-0.11,191.1,-23.5,58.6
2.32,0.0,0.0,0.25,0.0,0.0,0.0,0.0,0.5,0.0,0.0,0.0,0.0,0.0,-1.17,-0.86,-0.23,28.26,1.9,-4.8,1.75,0.5,2.0,1.25,1.5,0.0,0.75,0.0,0.25,0.25,0.25,0.25,0.0,-1.48,-0.23,0.02,166.65,-20.3,51.2
2.34,0.0,0.0,0.25,0.0,0.0,0.0,0.0,1.0,0.0,0.0,0.0,0.0,0.0,-2.36,1.77,-1.42,20.24,-5.5,-18.3,1.5,0.25,0.75,1.75,1.5,0.0,0.5,0.0,0.25,0.0,0.25,0.25,0.0,-1.73,-0.3,0.33,132.93,-17.6,51.6
2.36,0.0,0.0,0.25,0.0,0.0,0.0,0.0,0.75,0.0,0.0,0.0,0.0,0.0,-1.73,2.02,-0.92,15.11,-2.7,-13.2,1.75,0.5,1.0,1.75,0.0,0.0,0.75,0.0,0.25,0.25,0.0,0.25,0.0,-2.17,0.02,0.89,104.06,-24.1,54.6
2.38,0.0,0.0,0.25,0.0,0.0,0.0,0.0,1.0,0.25,0.0,0.0,0.0,0.0,-0.17,1.58,-0.23,12.94,-2.6,-21.6,1.75,0.25,0.0,2.0,1.5,1.75,0.75,0.0,1.0,1.0,0.25,0.0,0.0,-2.36,0.83,0.58,107.88,-6.3,33.5
2.4,0.0,0.0,0.5,0.0,0.0,0.0,0.5,1.5,0.5,0.5,0.0,0.0,0.25,0.2,1.02,-0.11,24.04,-0.8,-30.0,1.5,0.0,0.0,1.25,0.5,0.0,0.75,0.0,0.25,0.5,0.25,0.25,0.0,-2.3,0.77,0.64,93.13,-16.6,32.9
2.42,0.0,0.0,0.5,0.0,0.0,0.0,0.75,2.0,0.5,0.5,1.0,0.0,0.5,-0.55,0.2,-0.61,47.71,-0.1,-41.6,1.75,0.0,0.0,0.0,0.0,0.0,0.0,0.0,0.0,0.0,0.0,0.0,0.0,-2.11,0.89,0.95,62.54,-35.0,97.8
2.44,0.0,0.0,0.5,0.0,0.0,0.0,0.5,0.5,0.75,0.75,0.25,0.5,0.25,-1.3,-0.05,-0.23,63.12,5.3,-44.8,1.5,0.5,0.0,0.75,0.5,0.0,0.75,0.0,0.25,0.0,0.25,0.25,0.0,-1.92,0.39,0.95,42.62,-19.7,50.1
2.46,0.0,0.0,0.25,0.0,0.0,0.0,0.25,1.25,0.5,0.5,0.0,0.0,0.25,-1.55,0.27,-0.36,64.57,-4.3,-39.8,1.25,0.25,0.0,0.75,0.0,0.0,0.75,0.0,0.25,0.0,0.25,0.25,0.0,-1.61,-0.05,1.27,32.46,-23.3,42.3
2.48,0.0,0.0,0.5,0.0,0.0,0.0,0.5,2.0,1.0,1.5,0.75,0.75,0.5,-1.3,0.77,-0.23,83.91,-1.4,-53.1,1.5,0.25,0.0,0.5,1.25,0.0,0.75,0.0,0.25,0.0,0.25,0.25,0.0,-1.48,-0.17,1.33,33.93,-16.0,47.6
2.5,0.0,0.0,0.5,0.0,0.0,0.0,0.5,2.0,2.0,0.0,0.75,0.0,0.5,-1.17,1.02,-0.11,92.05,3.1,-38.0,1.5,0.25,0.0,0.5,0.25,0.0,0.5,0.0,0.25,0.0,0.25,0.25,0.0,-1.36,-0.36,1.33,35.36,-22.0,46.3
2.52,0.0,0.0,0.5,0.0,0.0,0.0,0.5,1.25,0.75,1.5,0.0,0.75,0.0,-1.05,0.39,0.02,96.33,-0.2,-46.9,1.5,0.25,0.0,0.5,0.0,0.0,0.75,0.0,0.25,0.0,0.25,0.25,0.0,-1.3,-0.36,1.45,42.49,-24.6,45.0
2.54,0.0,0.0,0.75,0.5,0.0,0.0,0.5,2.0,0.75,1.5,0.25,0.75,0.5,-0.55,-0.73,0.39,108.04,0.0,-40.1,1.25,0.25,0.0,0.5,0.5,0.0,0.5,0.0,0.25,0.25,0.25,0.25,0.0,-1.23,-0.23,1.2,45.69,-16.7,35.6
2.56,0.0,0.0,0.75,0.0,0.0,0.0,0.75,0.5,0.0,0.0,0.0,0.0,0.0,-0.3,-0.8,0.27,87.44,20.1,23.0,0.75,0.0,0.0,0.5,1.5,0.0,0.5,0.0,0.25,0.5,0.25,0.25,0.0,-1.05,-0.17,1.08,52.04,-8.0,23.7
2.58,0.0,0.0,0.25,0.0,0.0,0.0,0.0,0.25,0.0,0.0,0.0,0.0,0.0,-0.48,-0.23,0.08,58.53,11.1,11.8,2.0,0.25,0.0,0.0,0.25,0.0,0.5,0.0,0.25,0.0,0.25,0.25,0.0,-0.86,-0.11,0.95,53.68,-24.5,51.6
2.6,0.0,0.0,0.0,0.0,0.0,0.0,0.0,0.25,0.0,0.0,0.0,0.0,0.0,-0.55,0.39,-0.05,27.68,-16.7,-38.7,1.25,0.5,0.0,0.5,1.5,0.0,0.5,0.0,0.25,0.0,0.5,0.25,0.0,-0.67,0.08,0.7,64.47,-13.3,42.9
2.62,0.0,0.0,0.25,0.0,0.0,0.0,0.0,0.5,0.5,1.5,0.0,0.0,0.0,-1.05,0.7,-0.23,22.12,-5.8,-49.4,1.25,0.5,0.0,0.5,1.5,0.0,0.5,0.0,0.25,0.0,0.25,0.25,0.0,-0.55,0.14,0.64,71.76,-13.4,48.7
2.64,0.0,0.0,1.0,0.0,0.0,0.0,0.5,1.75,0.75,1.5,0.5,0.0,0.5,-1.55,0.89,-0.3,39.76,0.2,-37.3,1.25,0.5,0.0,0.5,1.25,0.0,0.25,0.0,0.25,0.0,0.5,0.25,0.0,-0.48,0.33,0.45,82.06,-13.8,42.7
2.66,0.0,0.0,0.75,0.0,0.0,0.0,0.5,0.5,0.75,1.5,0.5,0.0,0.5,-1.17,0.77,-0.17,57.12,2.6,-42.2,1.25,0.5,0.0,0.5,1.25,0.0,0.5,0.0,0.25,0.0,0.5,0.25,0.0,-0.48,0.39,0.33,84.96,-14.3,42.3
2.68,0.0,0.0,0.75,0.0,0.0,0.0,0.5,0.75,0.75,1.5,0.5,0.0,0.5,-1.05,0.52,-0.05,72.49,1.6,-42.0,1.25,0.5,0.0,0.5,1.25,0.0,0.5,0.0,0.25,0.0,0.25,0.25,0.0,-0.55,0.39,0.2,83.14,-14.5,48.4
2.7,0.0,0.0,0.75,0.0,0.0,0.0,0.5,1.5,0.75,1.5,0.75,0.0,0.5,-0.86,0.27,0.08,81.01,-0.2,-43.0,1.25,0.5,0.0,0.5,0.5,0.0,0.5,0.0,0.25,0.0,0.25,0.25,0.0,-0.48,0.33,0.14,77.7,-18.6,47.3
2.72,0.0,0.0,1.0,0.0,0.0,0.0,0.5,1.75,0.75,1.5,0.75,0.0,0.5,-0.8,0.08,0.08,87.98,0.6,-38.7,0.5,0.25,0.0,0.5,1.0,0.0,0.5,0.0,0.25,0.75,0.25,0.0,0.0,-0.42,0.2,0.14,71.37,-6.7,22.0
2.74,0.0,0.0,0.75,0.0,0.0,0.0,0.5,1.5,0.75,1.5,0.5,0.0,0.5,-0.86,0.08,0.14,93.34,-0.7,-41.6,0.5,0.25,0.0,0.0,1.25,0.0,0.5,0.0,0.25,0.25,0.25,0.25,0.0,-0.42,0.08,0.02,65.11,-7.7,23.9
2.76,0.0,0.0,0.75,0.0,0.0,0.0,0.5,1.75,0.25,1.5,0.75,0.0,0.5,-0.86,0.14,0.02,97.48,-2.0,-43.2,1.0,0.5,0.0,0.5,1.25,0.0,0.5,0.0,0.25,0.0,0.25,0.25,0.0,-0.42,0.02,-0.17,65.81,-13.4,45.8
2.78,0.0,0.0,1.0,0.0,0.0,0.0,0.5,1.75,0.75,1.5,0.75,0.0,0.5,-1.05,0.2,-0.11,102.17,0.6,-38.7,1.0,0.5,0.0,0.5,0.5,0.0,0.5,0.0,0.25,0.0,0.25,0.25,0.0,-0.42,0.02,-0.3,62.2,-17.5,43.9
2.8,0.0,0.0,0.75,0.0,0.0,0.0,0.5,0.0,0.75,1.5,0.5,0.0,0.5,-1.05,0.2,-0.23,97.09,4.9,-42.6,1.25,0.75,0.0,0.25,1.0,0.0,0.5,0.0,0.25,0.0,0.25,0.25,0.0,-0.42,-0.11,-0.36,65.86,-15.4,50.5
2.82,0.0,0.0,0.75,0.0,0.0,0.0,0.5,0.0,0.75,1.5,0.75,0.0,0.5,-0.98,0.2,-0.42,89.02,5.2,-44.4,0.75,0.5,0.0,0.5,1.0,0.0,0.25,0.0,0.25,0.0,0.25,0.25,0.0,-0.48,-0.11,-0.48,64.25,-12.7,42.6
2.84,0.0,0.0,0.75,0.0,0.0,0.0,0.5,0.0,0.25,0.0,0.5,0.0,0.5,-0.98,0.27,-0.55,66.84,17.0,-21.6,0.5,0.5,0.0,0.5,1.25,0.0,0.25,0.0,0.25,0.0,0.5,0.25,0.0,-0.55,-0.17,-0.42,64.25,-10.2,33.1
2.86,0.0,0.0,0.25,0.0,0.0,0.0,0.5,0.0,0.5,0.75,0.0,0.25,0.25,-0.98,0.33,-0.36,48.34,4.6,-48.5,1.0,0.5,0.0,0.5,0.5,0.0,0.25,0.0,0.25,0.0,0.25,0.25,0.0,-0.61,-0.3,-0.42,60.82,-17.0,44.5
2.88,0.0,0.0,1.0,0.0,0.0,0.0,0.5,0.0,0.75,1.25,0.25,0.5,0.25,-1.11,0.39,-0.3,43.61,9.4,-36.3,0.75,0.25,0.0,0.0,1.25,0.0,0.25,0.0,0.25,0.0,0.5,0.25,0.0,-0.86,-0.42,-0.36,59.18,-10.6,28.9
2.9,0.0,0.0,1.0,0.0,0.0,0.0,0.5,0.0,0.25,0.25,0.0,0.0,0.25,-1.11,0.39,-0.3,37.44,21.1,6.2,0.5,0.25,0.0,0.5,1.25,0.0,0.25,0.0,0.25,0.0,0.25,0.25,0.0,-0.86,-0.42,-0.36,57.5,-10.0,35.7
2.92,0.0,0.0,0.25,0.0,0.0,0.0,0.25,0.0,0.25,0.0,0.0,0.0,0.0,-0.92,0.39,-0.17,24.24,26.8,15.1,1.25,0.5,0.0,0.5,1.25,0.0,0.25,0.0,0.25,0.0,0.5,0.25,0.0,-0.92,-0.48,-0.36,64.76,-13.8,42.7
2.94,0.0,0.0,0.25,0.0,0.0,0.0,0.0,0.0,0.25,0.0,0.0,0.0,0.25,-0.86,0.33,-0.17,10.79,12.2,-29.0,1.5,0.0,0.0,0.25,0.5,0.0,0.5,0.0,0.25,0.25,0.25,0.25,0.0,-0.92,-0.55,-0.23,64.37,-18.2,33.3
2.96,0.0,0.0,0.25,0.0,0.0,0.0,0.0,0.0,0.5,0.25,0.0,0.0,0.0,-0.8,0.39,-0.11,3.4,11.9,-22.2,0.75,0.5,0.0,0.5,0.0,0.0,0.75,0.0,0.25,0.0,0.5,0.25,0.0,-0.86,-0.61,-0.17,61.07,-20.1,28.0
2.98,0.0,0.0,0.5,0.0,0.0,0.0,0.75,0.0,0.5,0.75,0.5,0.0,0.25,-0.86,0.39,-0.11,10.62,9.5,-34.7,0.5,0.25,0.0,0.5,0.0,0.0,0.75,0.0,0.25,0.0,0.5,0.25,0.0,-0.86,-0.61,-0.17,52.31,-19.5,14.7
3.0,0.0,0.0,0.25,0.0,0.0,0.0,0.5,0.5,0.75,1.0,0.0,0.0,0.25,-0.92,0.33,-0.11,22.39,-0.3,-43.2,1.25,0.5,0.0,0.25,0.5,0.0,0.25,0.0,0.25,0.0,0.25,0.25,0.0,-0.8,-0.61,-0.17,50.31,-18.2,47.2
3.02,0.0,0.0,0.75,0.0,0.0,0.0,0.5,0.0,0.75,1.5,0.5,0.0,0.5,-0.98,0.2,-0.05,41.6,4.9,-42.6,0.5,0.0,0.0,0.25,1.0,0.0,0.25,0.0,0.25,0.0,0.5,0.75,0.0,-0.8,-0.61,-0.17,49.75,-10.2,-0.5
3.04,0.0,0.0,0.75,0.0,0.0,0.0,0.5,0.5,0.75,1.5,0.5,0.0,0.5,-1.05,0.14,-0.11,58.58,2.6,-42.2,0.5,0.5,0.0,0.25,0.5,0.0,0.25,0.0,0.25,0.0,0.25,0.25,0.0,-0.8,-0.67,-0.17,48.0,-13.8,33.9
3.06,0.0,0.0,0.5,0.0,0.0,0.0,0.5,0.5,0.0,1.5,0.25,0.0,0.5,-1.11,0.14,-0.11,64.25,-2.5,-48.2,1.0,0.5,0.0,0.5,0.5,0.0,0.25,0.0,0.25,0.0,0.25,0.25,0.0,-0.73,-0.67,-0.11,50.88,-17.0,44.5
3.08,0.0,0.0,0.5,0.0,0.0,0.0,0.5,0.0,1.0,1.5,0.75,0.25,0.5,-0.98,0.2,-0.17,72.92,4.0,-53.2,0.75,0.5,0.0,0.5,1.0,0.0,0.25,0.0,0.25,0.0,0.25,0.25,0.0,-0.8,-0.67,-0.05,54.52,-12.7,42.6
3.1,0.0,0.0,0.5,0.0,0.0,0.0,0.5,0.75,0.75,1.5,0.5,0.5,0.5,-0.92,0.2,-0.17,79.59,0.5,-53.5,0.75,0.5,0.0,0.5,0.5,0.0,0.25,0.0,0.25,0.0,0.25,0.25,0.0,-0.8,-0.67,0.02,55.39,-15.6,40.6
3.12,0.0,0.0,0.5,0.0,0.0,0.0,0.5,1.5,0.75,1.5,0.5,0.25,0.25,-0.98,0.14,-0.23,87.19,-1.5,-46.3,0.75,0.5,0.0,0.5,0.25,0.0,0.25,0.0,0.25,0.0,0.5,0.25,0.0,-0.8,-0.67,0.08,54.41,-17.0,30.4
3.14,0.0,0.0,0.5,0.0,0.0,0.0,0.5,1.25,0.75,1.5,0.5,0.75,0.5,-0.98,0.14,-0.23,97.26,-0.5,-54.6,1.0,0.5,0.0,0.25,0.25,0.0,0.25,0.0,0.25,0.0,0.5,0.25,0.0,-0.86,-0.67,0.02,52.84,-18.4,33.2
3.16,0.0,0.0,0.5,0.0,0.0,0.0,0.5,1.5,0.75,1.5,0.5,0.5,0.25,-1.05,0.08,-0.23,101.86,-1.0,-49.1,1.0,0.25,0.0,0.5,0.25,0.0,0.25,0.0,0.25,0.0,0.25,0.25,0.0,-0.86,-0.61,0.02,50.12,-19.4,38.7
3.18,0.0,0.0,0.5,0.0,0.0,0.0,0.5,1.25,0.75,1.5,0.25,0.5,0.5,-1.05,0.08,-0.17,101.09,-1.4,-51.2,1.0,0.5,0.0,0.25,1.0,0.0,0.25,0.0,0.0,0.0,0.25,0.75,0.0,-0.92,-0.61,0.08,55.67,-13.3,30.8
3.2,0.0,0.0,0.5,0.0,0.0,0.0,0.5,1.0,0.75,1.5,0.5,0.25,0.5,-0.98,0.08,-0.11,96.41,-0.6,-50.1,0.75,0.25,0.0,0.0,1.0,0.0,0.25,0.0,0.25,0.0,0.25,0.25,0.0,-0.92,-0.61,0.08,55.09,-11.9,35.0
3.22,0.0,0.0,0.5,0.0,0.0,0.0,0.5,0.75,0.5,1.5,0.5,0.25,0.5,-0.98,0.14,-0.17,89.27,-0.4,-51.4,0.5,0.5,0.0,0.25,0.5,0.0,0.25,0.0,0.25,0.0,0.25,0.25,0.0,-0.92,-0.61,0.14,52.83,-13.8,33.9
3.24,0.0,0.0,0.5,0.0,0.0,0.0,0.5,0.0,0.75,1.25,0.5,0.5,0.25,-0.92,0.14,-0.23,79.55,5.7,-51.3,1.25,0.5,0.0,0.5,1.0,0.0,0.25,0.0,0.25,0.0,0.25,0.25,0.0,-0.86,-0.61,0.2,57.27,-15.2,48.7
3.26,0.0,0.0,0.5,0.0,0.0,0.0,0.5,0.5,0.75,1.5,0.5,0.75,0.5,-0.92,0.14,-0.17,78.32,1.7,-56.9,0.5,0.5,0.0,0.5,1.0,0.0,0.25,0.0,0.25,0.0,0.25,0.25,0.0,-0.86,-0.61,0.14,59.17,-11.2,38.9
3.28,0.0,0.0,0.5,0.0,0.0,0.0,0.5,0.5,0.75,1.5,0.0,0.75,0.25,-0.92,0.08,-0.17,75.08,1.6,-51.9,1.0,0.25,0.0,0.25,1.0,0.0,0.25,0.0,0.25,0.0,0.25,0.25,0.0,-0.86,-0.55,0.14,60.98,-13.9,41.0
3.3,0.0,0.0,0.75,0.0,0.0,0.0,0.5,0.5,0.75,1.5,0.0,0.75,0.25,-0.86,0.08,-0.17,75.34,3.6,-45.8,0.5,0.5,0.0,0.25,0.0,0.0,0.25,0.0,0.25,0.25,0.25,0.25,0.0,-0.86,-0.61,0.14,53.16,-14.9,17.5
3.32,0.0,0.0,0.5,0.0,0.0,0.0,0.5,0.5,0.75,1.5,0.0,0.75,0.5,-0.8,0.14,-0.23,73.48,0.8,-55.0,0.5,0.5,0.0,0.25,1.25,0.0,0.25,0.0,0.25,0.0,0.25,0.25,0.0,-0.86,-0.61,0.2,54.25,-9.6,38.7
3.34,0.0,0.0,0.5,0.0,0.0,0.0,0.5,1.25,0.75,1.5,0.0,0.75,0.25,-0.73,0.2,-0.23,76.09,-0.9,-50.0,0.75,0.75,0.0,0.5,0.5,0.0,0.25,0.0,0.25,0.0,0.25,0.5,0.0,-0.86,-0.61,0.2,55.12,-15.0,34.5
3.36,0.0,0.0,0.5,0.0,0.0,0.0,0.5,0.5,0.75,1.5,0.0,0.75,0.5,-0.73,0.2,-0.3,75.73,0.8,-55.0,0.75,0.25,0.0,0.0,1.0,0.0,0.25,0.0,0.25,0.0,0.25,0.25,0.0,-0.86,-0.61,0.27,54.96,-11.9,35.0
3.38,0.0,0.0,0.5,0.0,0.0,0.0,0.5,0.5,0.5,1.5,0.0,0.75,0.5,-0.8,0.2,-0.3,74.84,0.2,-55.9,0.75,0.5,0.0,0.25,0.0,0.0,0.25,0.0,0.25,0.0,0.25,0.25,0.0,-0.86,-0.61,0.27,49.85,-20.2,35.5
3.4,0.0,0.0,0.5,0.0,0.0,0.0,0.5,0.5,0.75,1.5,0.0,0.75,0.5,-0.86,0.2,-0.23,75.18,0.8,-55.0,0.75,0.5,0.0,0.25,0.5,0.0,0.25,0.0,0.25,0.0,0.25,0.25,0.0,-0.86,-0.61,0.2,47.83,-15.5,39.0
3.42,0.0,0.0,0.5,0.0,0.0,0.0,0.5,1.0,0.75,1.5,0.5,0.75,0.25,-0.86,0.2,-0.17,79.15,0.8,-52.8,1.0,0.5,0.0,0.25,0.25,0.0,0.25,0.0,0.25,0.0,0.25,0.25,0.0,-0.92,-0.61,0.2,45.42,-19.0,42.4
3.44,0.0,0.0,0.5,0.0,0.0,0.0,0.5,0.5,0.75,1.5,0.5,0.75,0.5,-0.86,0.27,-0.23,82.4,1.7,-56.9,0.5,0.5,0.0,0.5,0.0,0.0,0.25,0.0,0.25,0.25,0.25,0.25,0.0,-0.98,-0.61,0.2,44.31,-15.1,21.5
3.46,0.0,0.0,0.5,0.0,0.0,0.0,0.5,0.25,0.75,1.5,0.75,0.5,0.25,-0.86,0.27,-0.23,82.44,3.6,-53.1,0.75,0.5,0.0,0.5,1.0,0.0,0.25,0.0,0.25,0.0,0.25,0.25,0.0,-0.98,-0.61,0.2,50.01,-12.7,42.6
3.48,0.0,0.0,0.5,0.0,0.0,0.0,0.5,0.5,0.75,1.5,0.75,0.25,0.5,-0.86,0.27,-0.23,82.05,1.5,-52.5,0.5,0.5,0.0,0.25,1.25,0.0,0.25,0.0,0.25,0.0,0.25,0.25,0.0,-0.98,-0.55,0.14,53.51,-9.6,38.7
3.5,0.0,0.0,0.5,0.0,0.0,0.0,0.5,0.5,0.75,1.5,0.25,0.5,0.5,-0.92,0.27,-0.17,78.97,0.9,-53.2,0.5,0.25,0.0,0.25,0.25,0.0,0.25,0.0,0.25,0.25,0.25,0.25,0.0,-0.98,-0.48,0.08,51.17,-12.9,13.0
3.52,0.0,0.0,0.5,0.0,0.0,0.0,0.5,0.25,0.75,1.5,0.25,0.5,0.5,-1.05,0.2,-0.11,76.67,1.9,-54.0,1.25,0.25,0.0,0.25,0.25,0.0,0.25,0.0,0.0,0.0,0.25,0.25,0.0,-0.92,-0.42,0.08,48.28,-21.7,49.5
3.54,0.0,0.0,0.5,0.0,0.0,0.0,0.5,0.25,0.5,0.0,0.25,0.0,0.25,-1.11,0.14,-0.11,59.84,14.2,-18.6,0.5,0.5,0.0,0.5,0.0,0.0,0.25,0.0,0.25,0.0,0.25,0.25,0.0,-0.92,-0.36,0.27,43.78,-18.4,31.8
3.56,0.0,0.0,0.25,0.0,0.0,0.0,0.5,0.25,0.5,0.25,0.0,0.0,0.0,-1.11,0.14,-0.17,42.19,10.4,-17.0,1.0,0.5,0.0,0.25,0.25,0.0,0.25,0.0,0.25,0.0,0.25,0.25,0.0,-0.92,-0.42,0.45,42.82,-19.0,42.4
3.58,0.0,0.0,0.25,0.0,0.0,0.0,0.5,0.5,1.0,1.0,0.0,0.25,0.25,-1.11,0.14,-0.17,37.37,1.2,-47.6,0.5,0.25,0.0,0.5,0.5,0.0,0.25,0.0,0.25,0.0,0.25,0.25,0.0,-0.92,-0.48,0.58,42.84,-14.3,30.0
3.6,0.0,0.0,0.5,0.0,0.0,0.0,0.5,1.5,0.75,1.5,0.5,0.0,0.25,-1.11,0.14,-0.17,48.5,-2.0,-43.3,0.5,0.5,0.0,0.25,0.0,0.0,0.25,0.0,0.25,0.0,0.25,0.25,0.0,-0.92,-0.48,0.64,41.58,-18.5,28.5
3.62,0.0,0.0,0.5,0.0,0.0,0.0,0.5,0.75,0.75,1.5,0.5,0.25,0.25,-1.17,0.14,-0.17,59.83,0.8,-47.5,0.5,0.5,0.0,0.0,0.0,0.0,0.25,0.0,0.25,0.0,0.25,0.25,0.0,-0.86,-0.42,0.52,36.64,-18.7,24.4
3.64,0.0,0.0,0.5,0.0,0.0,0.0,0.5,0.75,0.75,1.5,0.5,0.25,0.5,-1.11,0.14,-0.23,70.71,0.1,-50.7,0.75,0.75,0.0,0.5,1.0,0.0,0.25,0.0,0.25,0.0,0.25,0.25,0.0,-0.92,-0.36,0.39,44.67,-12.7,46.2
3.66,0.0,0.0,0.5,0.0,0.0,0.0,0.5,0.5,0.75,1.5,0.5,0.25,0.5,-1.05,0.14,-0.23,74.87,1.0,-51.3,0.5,0.25,0.0,0.0,0.0,0.0,0.25,0.0,0.0,0.75,0.25,0.25,0.0,-0.92,-0.36,0.39,41.39,-7.9,-13.2
3.68,0.0,0.0,0.5,0.0,0.0,0.0,0.5,0.5,0.75,1.5,0.5,0.25,0.5,-0.98,0.2,-0.17,76.58,1.0,-51.3,0.75,0.5,0.0,0.25,0.5,0.0,0.25,0.0,0.0,0.0,0.25,0.25,0.0,-0.92,-0.36,0.39,44.2,-15.8,46.2
3.7,0.0,0.0,0.5,0.0,0.0,0.0,0.75,0.0,0.75,0.25,0.0,0.25,0.0,-0.98,0.14,-0.11,62.33,18.3,-15.8,0.5,0.5,0.0,0.25,0.5,0.0,0.25,0.0,0.25,0.0,0.25,0.25,0.0,-0.92,-0.42,0.45,42.55,-13.8,33.9
3.72,0.0,0.0,0.5,0.0,0.0,0.0,0.75,0.5,1.0,0.25,0.0,0.0,0.25,-0.98,0.2,-0.11,53.52,9.6,-22.1,0.5,0.5,0.0,0.5,0.0,0.0,0.25,0.0,0.25,0.0,0.25,0.25,0.0,-0.92,-0.42,0.52,42.86,-18.4,31.8
3.74,0.0,0.0,0.5,0.0,0.0,0.0,0.75,0.0,1.0,0.5,0.0,0.0,0.25,-0.98,0.14,-0.11,44.16,12.2,-24.0,0.5,0.5,0.0,0.5,0.5,0.0,0.25,0.0,0.25,0.0,0.25,0.25,0.0,-0.92,-0.42,0.58,44.62,-14.1,36.1
3.76,0.0,0.0,0.5,0.0,0.0,0.0,0.75,0.25,1.0,0.75,0.0,0.0,0.5,-0.98,0.14,-0.11,45.1,6.0,-35.4,0.5,0.5,0.0,0.5,1.0,0.0,0.25,0.0,0.25,0.0,0.25,0.25,0.0,-0.92,-0.42,0.52,50.34,-11.2,38.9
3.78,0.0,0.0,0.5,0.0,0.0,0.0,0.75,1.0,0.75,1.5,0.0,0.0,0.25,-0.98,0.14,-0.11,52.7,-0.8,-38.3,0.75,0.25,0.0,0.5,0.0,0.0,0.25,0.0,0.25,0.0,0.25,0.25,0.0,-0.92,-0.36,0.52,48.98,-20.7,31.0
3.8,0.0,0.0,0.5,0.0,0.0,0.0,0.75,1.0,0.75,0.25,0.0,0.0,0.25,-0.98,0.14,-0.11,52.47,5.1,-23.4,1.0,0.5,0.0,0.5,0.5,0.0,0.25,0.0,0.25,0.0,0.25,0.25,0.0,-0.86,-0.42,0.45,52.41,-17.0,44.5
3.82,0.0,0.0,0.25,0.0,0.0,0.0,0.5,0.25,0.5,0.0,0.0,0.0,0.0,-0.98,0.14,-0.11,39.44,15.6,-5.2,1.25,0.5,0.0,0.0,0.25,0.0,0.25,0.0,0.25,0.0,0.25,0.25,0.0,-0.86,-0.36,0.39,51.78,-20.5,45.5
3.84,0.0,0.0,0.5,0.0,0.0,0.0,0.5,0.5,0.5,0.25,0.0,0.0,0.25,-0.98,0.14,-0.11,31.41,7.8,-21.1,1.0,0.5,0.0,0.0,0.0,0.0,0.25,0.0,0.0,0.0,0.25,0.25,0.0,-0.86,-0.36,0.39,47.68,-23.2,48.6
3.86,0.0,0.0,0.25,0.0,0.0,0.0,0.75,0.25,0.75,1.25,0.5,0.0,0.5,-0.98,0.14,-0.05,36.95,1.2,-51.9,0.5,0.5,0.0,0.5,0.25,0.0,0.25,0.0,0.25,0.25,0.25,0.25,0.0,-0.92,-0.36,0.45,45.75,-13.3,24.7
3.88,0.0,0.0,0.5,0.0,0.0,0.0,0.5,0.5,0.75,1.25,0.5,0.0,0.5,-0.98,0.08,-0.11,47.48,1.5,-46.5,0.75,0.5,0.0,0.5,0.25,0.0,0.25,0.0,0.25,0.0,0.25,0.25,0.0,-0.92,-0.36,0.52,45.34,-17.5,39.3
3.9,0.0,0.0,0.5,0.0,0.0,0.0,0.5,0.5,0.75,1.25,0.75,0.0,0.5,-1.05,0.14,-0.11,60.55,2.0,-48.1,0.5,0.5,0.0,0.5,0.25,0.0,0.25,0.0,0.25,0.0,0.25,0.25,0.0,-0.98,-0.36,0.52,46.69,-16.0,34.2
3.92,0.0,0.0,0.5,0.0,0.0,0.0,0.5,0.25,0.75,1.25,0.5,0.0,0.5,-1.05,0.14,-0.11,67.33,2.7,-47.0,0.5,0.5,0.0,0.0,0.0,0.0,0.25,0.0,0.25,0.0,0.25,0.25,0.0,-0.98,-0.3,0.52,40.6,-18.7,24.4
3.94,0.0,0.0,0.5,0.0,0.0,0.0,0.5,0.25,0.75,1.5,0.5,0.0,0.25,-0.98,0.14,-0.17,70.09,2.6,-44.7,0.5,0.5,0.0,0.5,0.0,0.0,0.25,0.0,0.25,0.0,0.25,0.25,0.0,-0.98,-0.3,0.52,39.03,-18.4,31.8
3.96,0.0,0.0,0.5,0.0,0.0,0.0,0.5,0.5,0.75,1.5,0.75,0.0,0.5,-0.98,0.14,-0.17,71.9,1.1,-49.5,0.5,0.5,0.0,0.5,0.0,0.0,0.25,0.0,0.25,0.0,0.25,0.25,0.0,-1.05,-0.23,0.58,36.86,-18.4,31.8
3.98,0.0,0.0,0.5,0.0,0.0,0.0,0.5,0.5,0.75,1.25,0.75,0.0,0.5,-0.98,0.2,-0.11,73.6,2.0,-48.1,0.5,0.5,0.0,0.5,0.0,0.0,0.25,0.0,0.25,0.0,0.5,0.5,0.0,-0.98,-0.23,0.52,38.78,-16.9,10.4
4.0,0.0,0.0,0.5,0.0,0.0,0.0,0.5,0.5,0.75,1.25,0.75,0.25,0.25,-0.98,0.2,-0.11,75.06,3.3,-47.9,0.25,0.5,0.0,0.0,0.25,0.0,0.25,0.0,0.25,0.5,0.5,0.25,0.0,-0.92,-0.23,0.58,39.79,-7.6,-7.0
4.02,0.0,0.0,0.5,0.0,0.0,0.0,0.5,0.5,0.75,1.5,0.75,0.0,0.5,-0.92,0.2,-0.17,77.24,1.1,-49.5,0.75,0.5,0.0,0.0,0.0,0.0,0.25,0.0,0.25,0.0,0.25,0.25,0.0,-0.98,-0.23,0.58,39.39,-20.6,32.6
