time,left pressure 0[N/cm²],left pressure 1[N/cm²],left pressure 2[N/cm²],left pressure 3[N/cm²],left pressure 4[N/cm²],left pressure 5[N/cm²],left pressure 6[N/cm²],left pressure 7[N/cm²],left pressure 8[N/cm²],left pressure 9[N/cm²],left pressure 10[N/cm²],left pressure 11[N/cm²],left pressure 12[N/cm²],left acceleration X[g],left acceleration Y[g],left acceleration Z[g],left total force[N],left center of pressure X[mm],left center of pressure Y[mm],right pressure 0[N/cm²],right pressure 1[N/cm²],right pressure 2[N/cm²],right pressure 3[N/cm²],right pressure 4[N/cm²],right pressure 5[N/cm²],right pressure 6[N/cm²],right pressure 7[N/cm²],right pressure 8[N/cm²],right pressure 9[N/cm²],right pressure 10[N/cm²],right pressure 11[N/cm²],right pressure 12[N/cm²],right acceleration X[g],right acceleration Y[g],right acceleration Z[g],right total force[N],right center of pressure X[mm],right center of pressure Y[mm]
0.02,0.0,0.0,2.0,2.75,0.0,0.0,0.0,0.75,0.0,1.0,0.5,0.75,0.0,-0.98,1.64,2.83,130.18,14.1,8.7,2.5,0.25,7.75,2.5,3.5,2.5,3.0,6.25,3.0,6.25,7.0,3.75,4.75,0.14,0.08,0.95,916.79,-5.5,-20.3
0.04,0.0,0.0,0.25,0.0,0.0,0.0,0.0,0.0,0.0,0.0,0.0,0.0,0.0,-0.17,0.7,2.7,38.51,38.2,60.9,2.25,0.5,8.5,3.25,3.5,2.25,3.0,5.25,2.5,4.75,5.75,3.0,3.25,0.08,0.08,0.95,800.99,-7.8,-9.7
0.06,0.0,0.0,0.25,0.0,0.0,0.0,0.0,0.5,0.0,0.5,0.0,0.75,0.0,-0.3,-1.98,2.45,0.0,0.1,-61.6,3.5,0.5,8.5,3.5,3.75,2.5,3.0,4.25,1.75,4.25,4.0,2.25,3.0,0.08,0.14,0.95,702.27,-9.1,0.8
0.08,0.0,0.0,0.5,0.0,0.0,0.0,0.0,1.25,0.5,0.0,0.75,0.0,0.0,-0.42,-1.42,3.45,0.0,4.2,-30.4,3.75,0.75,9.0,4.0,3.75,2.5,3.0,4.0,1.75,2.75,3.75,1.75,1.25,0.08,0.14,0.95,619.69,-11.8,13.2
0.1,0.0,0.0,0.0,0.0,0.0,0.0,0.0,0.25,0.25,0.0,0.0,0.0,0.0,-0.36,-1.05,1.89,0.0,-2.3,-38.7,3.75,1.0,9.25,5.0,3.75,2.5,3.0,2.75,1.25,1.5,2.75,1.75,1.25,0.08,0.14,0.95,553.09,-14.0,22.7
0.12,0.0,0.0,0.0,0.0,0.0,0.0,0.0,0.0,0.0,1.0,0.0,1.0,0.0,-0.48,-0.67,0.64,0.0,-3.4,-92.6,5.0,1.0,10.0,5.5,3.75,2.5,3.0,2.75,1.0,1.25,1.5,1.5,1.25,0.08,0.14,0.95,519.89,-15.4,31.1
0.14,0.0,0.0,0.0,0.0,0.0,0.0,1.25,3.5,0.75,1.0,1.75,1.0,0.0,-0.55,-0.55,0.83,0.0,-2.2,-54.0,5.75,1.0,10.5,6.5,5.25,2.5,3.0,2.5,1.0,1.25,1.25,1.0,1.25,0.02,0.14,0.95,527.85,-15.6,36.9
0.16,0.0,0.0,0.0,0.0,0.0,0.0,0.5,2.5,1.75,1.5,1.5,1.0,0.0,-0.55,-0.48,1.02,42.62,-1.4,-58.1,6.25,2.0,11.5,8.5,5.5,2.5,3.0,2.5,1.0,1.25,1.5,1.0,1.25,0.02,0.14,0.95,582.76,-16.1,39.8
0.18,0.0,0.0,0.0,0.25,0.0,0.0,1.5,3.25,1.5,1.75,1.75,0.0,0.5,-0.61,-0.3,1.2,88.98,-2.5,-48.0,7.0,2.25,12.5,9.5,6.25,2.5,3.0,1.75,0.75,1.25,1.5,1.0,1.25,0.02,0.14,1.02,664.79,-17.0,43.5
0.2,0.0,0.0,0.0,0.5,0.0,0.0,1.0,3.25,2.0,2.0,1.75,0.25,0.5,-0.73,0.02,1.08,125.08,-2.2,-48.8,7.0,2.75,12.5,9.25,6.25,2.5,2.5,1.25,0.5,1.25,1.5,1.0,0.75,0.02,0.2,1.08,732.91,-17.6,47.0
0.22,0.0,0.0,0.0,0.25,0.0,0.0,1.5,3.5,2.25,2.0,2.25,0.0,0.25,-0.73,0.27,1.02,154.12,-1.3,-47.6,8.0,3.5,13.5,11.0,6.5,2.5,2.25,1.25,0.5,0.0,1.25,0.75,1.0,0.02,0.2,1.08,808.73,-18.8,52.9
0.24,0.0,0.0,0.0,0.0,0.0,0.0,0.5,1.75,1.5,1.75,1.5,0.0,0.25,-0.73,0.39,1.2,153.05,-2.7,-56.0,8.0,3.5,13.5,11.5,6.75,1.5,2.0,1.25,0.5,0.0,1.5,0.5,0.5,0.02,0.27,1.08,855.23,-19.7,55.1
0.26,0.0,0.0,0.0,0.0,0.0,0.0,0.75,3.0,1.5,1.75,1.75,0.0,0.25,-0.73,0.52,1.58,155.29,-3.9,-52.9,8.25,4.25,14.5,11.0,6.75,0.0,1.5,1.0,0.5,0.0,0.75,0.75,1.0,0.02,0.27,1.08,886.61,-21.1,56.7
0.28,0.0,0.0,0.0,0.0,0.0,0.0,0.5,1.75,1.0,0.25,1.25,0.0,0.0,-0.92,0.7,1.83,132.34,-0.1,-47.2,8.5,4.0,14.5,11.0,6.5,0.5,1.25,0.75,0.25,0.0,0.5,0.25,0.5,0.02,0.27,1.2,890.62,-21.7,61.5
0.3,0.0,0.0,0.0,0.0,0.0,0.0,0.75,1.75,1.5,1.75,1.5,0.0,0.25,-1.05,0.83,2.33,121.78,-2.1,-54.6,8.75,4.25,12.5,9.75,6.0,0.0,1.25,0.0,0.25,0.0,0.0,0.5,0.0,0.08,0.33,1.33,847.94,-23.0,66.7
0.32,0.0,0.0,0.0,0.0,0.0,0.0,0.5,1.5,1.0,1.75,1.5,0.0,0.25,-1.17,1.27,2.83,108.58,-3.3,-58.1,8.0,2.75,12.5,7.75,3.5,0.25,1.25,0.0,0.0,0.0,0.75,0.25,1.0,0.08,0.39,1.33,754.47,-24.2,60.5
0.34,0.0,0.0,0.0,0.0,0.0,0.0,0.25,1.5,1.5,0.25,1.5,0.0,0.0,-1.11,2.02,2.45,98.12,1.7,-50.0,8.0,2.75,13.5,7.0,3.75,0.0,1.75,0.0,0.25,0.0,0.5,0.5,0.5,0.14,0.45,1.7,673.48,-25.3,61.9
0.36,0.0,0.0,0.0,0.0,0.0,0.0,0.25,2.0,1.25,0.75,1.5,0.0,0.25,0.08,3.02,2.77,87.09,-2.4,-54.4,6.5,1.5,11.0,5.75,3.5,0.25,2.25,0.0,0.25,0.0,0.5,0.5,0.5,0.14,0.64,1.95,567.22,-24.6,58.7
0.38,0.0,0.0,0.25,0.0,0.0,0.0,0.5,2.0,1.5,1.75,1.5,0.0,0.25,-0.11,3.64,1.52,88.13,-1.7,-51.4,3.75,0.25,8.5,2.75,0.0,0.0,1.75,0.0,0.25,0.0,0.5,0.5,0.5,0.08,1.64,2.83,404.3,-30.2,52.0
0.4,0.0,0.0,0.5,0.0,0.0,0.0,0.5,3.0,1.75,1.75,1.5,0.25,0.25,0.77,5.64,0.58,104.63,-1.6,-48.1,2.25,0.25,6.5,1.25,0.0,0.0,1.25,0.0,0.25,0.0,0.5,0.25,0.5,-0.05,1.27,2.58,274.77,-30.3,48.3
0.42,0.0,0.0,0.0,0.0,0.0,0.0,1.5,4.5,1.75,1.0,1.0,0.0,0.0,1.52,7.2,-0.11,117.35,-4.0,-41.5,1.25,0.25,5.0,1.25,1.25,0.0,1.0,0.0,0.25,0.0,0.5,0.25,0.5,0.08,0.02,2.14,175.38,-24.5,43.3
0.44,0.0,0.0,1.0,1.0,0.0,0.0,3.5,4.75,0.0,0.0,0.75,0.0,0.0,-0.86,0.27,1.58,129.94,4.3,-7.5,1.0,0.25,3.25,0.25,0.0,0.0,0.75,0.0,0.25,0.0,0.25,0.25,0.5,-0.11,-1.11,2.14,76.71,-28.2,36.5
0.46,0.0,0.0,0.0,0.0,0.0,0.0,0.0,0.0,0.0,4.5,0.0,3.5,0.0,-0.17,0.45,1.02,136.56,-4.9,-90.4,1.25,0.25,2.25,0.5,1.0,0.0,0.75,0.0,0.25,0.0,0.5,0.25,0.25,0.2,-1.11,1.77,14.43,-22.3,40.1
0.48,0.0,0.0,0.25,0.0,0.0,0.0,0.0,0.0,0.0,0.0,0.0,0.0,0.0,-0.42,0.45,3.08,98.66,38.2,60.9,1.0,0.25,2.25,0.0,0.25,0.0,0.75,0.0,0.25,0.0,0.25,0.25,0.5,0.27,-0.86,1.39,0.0,-25.1,31.7
0.5,0.0,0.0,0.0,0.0,0.0,0.0,0.0,0.0,0.0,0.0,0.0,0.0,0.0,-0.36,0.2,1.64,55.38,0.0,0.0,1.0,0.25,2.0,0.0,0.5,0.0,0.75,0.0,0.25,0.0,0.0,0.25,0.5,0.39,-0.61,0.58,0.0,-23.5,36.5
0.52,0.0,0.0,0.0,0.0,0.0,0.0,0.0,4.25,2.25,6.25,5.75,4.75,5.0,-0.23,0.27,1.33,172.77,-3.9,-79.1,1.0,0.25,1.75,0.0,1.0,0.0,0.75,0.0,0.25,0.0,0.25,0.25,0.5,0.27,-0.42,0.58,0.0,-19.7,32.4
0.54,0.0,0.0,0.0,0.75,0.0,0.75,0.0,5.75,3.25,6.75,7.0,5.25,5.25,-0.17,0.14,1.08,295.69,-3.4,-71.2,1.0,0.25,2.0,0.0,1.0,0.0,0.75,0.0,0.25,0.0,0.25,0.25,0.5,0.14,-0.3,0.77,0.0,-20.4,33.6
0.56,0.0,0.0,0.0,0.0,0.0,1.5,0.0,6.0,4.25,7.0,7.5,5.25,5.25,-0.23,0.02,1.02,451.84,-3.8,-70.9,0.75,0.25,1.75,0.0,0.25,0.0,0.75,0.0,0.25,0.0,0.25,0.25,0.5,0.2,-0.23,0.89,0.0,-23.2,25.2
0.58,0.0,0.0,0.0,1.75,0.0,1.5,0.25,6.5,5.0,6.75,7.5,4.75,5.0,-0.11,0.02,1.02,580.45,-2.6,-62.7,1.0,0.25,1.75,0.0,0.5,0.0,0.75,0.0,0.25,0.0,0.25,0.25,0.5,0.14,-0.11,0.89,15.91,-22.2,30.0
0.6,0.0,0.0,2.5,2.75,0.0,2.25,0.25,6.75,5.5,6.75,7.5,4.5,4.25,-0.11,0.02,1.02,671.71,0.1,-49.1,1.0,0.0,1.75,0.0,0.5,0.0,0.75,0.0,0.25,0.0,0.25,0.25,0.5,0.08,0.08,0.95,36.94,-22.7,26.4
0.62,0.0,0.5,3.25,3.5,0.5,2.75,0.25,6.5,5.25,6.0,7.0,4.0,3.75,-0.11,0.02,1.02,702.07,1.2,-39.1,0.75,0.25,1.75,0.0,0.5,0.0,0.75,0.0,0.5,0.0,0.0,0.25,0.5,0.08,0.2,1.27,57.62,-21.7,28.6
0.64,0.0,1.25,3.75,4.5,0.75,2.75,0.25,6.25,4.75,5.75,6.5,3.0,2.75,-0.11,0.02,0.95,706.9,2.4,-28.3,0.75,0.25,1.75,0.0,0.25,0.0,0.75,0.0,0.25,0.0,0.0,0.25,0.5,0.02,0.33,1.33,63.24,-23.9,30.7
0.66,0.0,1.25,4.25,4.75,1.75,2.75,0.25,6.0,4.5,4.75,5.5,2.25,2.0,-0.17,0.02,0.95,694.5,3.3,-18.7,0.75,0.25,1.75,0.0,0.5,0.0,0.75,0.0,0.25,0.0,0.0,0.0,0.5,0.08,0.52,1.45,67.04,-22.9,40.0
0.68,0.25,1.25,4.5,5.5,2.0,2.75,0.0,5.75,4.0,3.5,4.75,1.75,1.25,-0.11,0.02,0.95,658.13,4.7,-9.0,0.75,0.25,0.5,0.0,0.5,0.0,0.75,0.0,0.25,0.0,0.25,0.0,0.5,0.14,0.89,1.58,63.8,-16.3,23.9
0.7,0.25,1.25,5.25,6.0,2.0,2.75,0.0,5.25,3.25,3.25,3.0,1.75,1.25,-0.17,0.02,0.95,612.19,5.6,-1.9,1.0,0.25,1.0,0.0,0.0,0.0,0.75,0.0,0.25,0.0,0.25,0.25,0.5,0.2,1.27,2.02,59.85,-22.9,20.3
0.72,0.25,1.5,5.5,6.5,2.5,2.75,0.0,5.0,2.75,2.5,3.0,1.0,0.25,-0.11,0.08,0.95,564.66,7.0,9.2,0.75,0.0,1.0,0.0,0.25,0.0,0.75,0.0,0.25,0.0,0.25,0.0,0.5,0.2,1.77,2.33,55.3,-21.6,21.3
0.74,0.75,1.5,5.5,6.75,2.75,2.75,0.0,4.5,2.25,1.75,2.25,1.0,0.25,-0.11,0.08,0.95,506.43,8.1,16.5,0.75,0.0,1.0,0.0,0.0,0.0,0.5,0.0,0.25,0.0,0.25,0.0,0.5,0.2,2.58,1.77,49.95,-23.6,18.0
0.76,0.0,1.5,5.5,6.75,2.0,2.25,0.0,4.0,1.75,1.75,2.0,1.0,0.25,-0.11,0.08,0.95,431.73,8.6,15.8,1.0,0.0,0.75,0.0,0.0,0.0,0.75,0.0,0.25,0.0,0.0,0.0,0.5,-0.17,3.14,0.95,44.63,-24.7,29.1
0.78,1.5,1.75,5.5,6.75,2.0,2.25,0.0,3.25,1.5,1.75,1.5,0.75,0.25,-0.17,0.08,0.95,397.88,10.5,24.9,0.75,0.0,1.5,0.0,0.0,0.0,0.25,0.0,0.25,0.0,1.5,0.25,0.5,-0.55,3.58,0.14,51.93,-21.0,-7.6
0.8,0.75,1.5,4.5,7.0,2.5,1.75,0.0,2.75,1.25,1.5,1.5,0.75,0.25,-0.11,0.08,0.95,367.37,9.8,24.4,0.75,0.0,1.5,0.0,0.0,0.0,0.5,0.0,0.25,1.25,1.5,1.75,1.25,-1.92,4.83,-0.86,79.78,-10.4,-44.5
0.82,1.25,2.75,5.5,7.25,2.25,2.0,0.0,3.0,1.5,1.75,1.25,0.75,0.25,-0.11,0.14,0.95,365.89,10.8,29.0,0.5,0.25,1.0,0.0,0.0,0.0,0.25,1.25,0.0,5.75,3.75,3.75,4.25,-1.11,0.08,1.89,170.86,1.7,-73.2
0.84,1.75,2.75,5.5,8.0,0.0,2.25,0.0,3.0,1.25,1.5,1.25,0.75,0.25,-0.17,0.14,0.95,362.1,12.6,30.2,0.0,0.25,1.75,0.25,0.0,0.0,0.75,3.0,1.0,7.0,5.75,4.5,4.75,0.58,1.45,3.08,274.79,0.9,-68.9
0.86,3.0,3.0,5.0,8.0,0.0,2.5,0.0,3.0,1.0,1.5,1.25,0.75,0.25,-0.17,0.14,0.95,374.31,12.8,33.6,1.0,0.0,2.0,1.0,1.5,0.75,0.0,4.0,1.0,6.0,6.0,3.25,3.25,0.27,0.58,1.45,364.72,-0.1,-47.3
0.88,2.0,4.0,5.25,8.0,0.0,2.75,0.0,2.25,0.75,1.5,1.25,0.75,0.0,-0.17,0.14,0.95,379.69,13.0,37.8,1.5,0.25,4.5,1.25,3.25,2.75,1.25,4.25,1.5,5.5,5.0,2.0,3.25,0.08,-0.05,0.77,458.63,-2.3,-21.1
0.9,4.75,3.75,5.5,9.25,0.0,2.25,0.0,1.75,0.75,1.5,1.25,0.75,0.0,-0.23,0.2,1.08,402.51,16.2,44.5,2.5,0.5,6.25,2.5,3.5,2.5,1.75,4.5,1.75,4.5,4.5,1.75,1.5,0.2,0.2,1.02,535.49,-6.8,-3.3
0.92,4.0,4.25,4.75,8.25,0.0,2.25,0.0,1.5,0.75,1.5,0.25,0.75,0.25,-0.23,0.2,1.14,406.56,15.2,46.6,3.75,1.0,7.5,4.0,3.75,2.5,2.25,4.25,1.75,4.25,4.0,1.75,1.25,0.2,0.2,0.95,613.31,-9.4,7.8
0.94,0.0,4.25,6.0,8.0,0.0,1.0,0.0,1.5,1.0,1.5,1.0,0.75,0.25,-0.23,0.2,1.2,393.12,15.1,36.1,5.5,1.25,9.0,5.0,4.5,2.5,2.0,4.25,1.75,1.75,3.75,1.75,1.0,0.2,0.14,1.02,686.8,-12.9,21.6
0.96,0.0,5.0,5.0,8.5,0.0,0.0,0.0,1.25,0.75,1.5,0.5,0.75,0.5,-0.3,0.27,1.39,369.8,15.7,39.8,6.25,1.75,10.5,6.0,5.25,2.5,2.75,3.75,1.75,1.5,2.75,1.0,0.5,0.08,0.08,0.95,765.04,-14.9,33.3
0.98,5.75,5.5,6.25,8.0,0.0,0.0,0.0,1.25,0.75,1.5,0.5,0.75,0.25,-0.42,0.27,1.58,384.49,20.1,52.7,7.0,2.0,11.0,6.75,5.25,2.5,3.0,2.75,1.25,1.25,2.0,1.0,0.5,0.14,0.14,1.02,814.77,-16.5,40.1
1.0,3.25,4.75,3.75,6.75,0.0,0.0,0.0,1.25,0.75,0.75,0.5,0.75,0.0,-0.55,0.33,2.08,363.69,18.6,51.4,7.0,2.0,11.5,7.5,5.5,2.5,2.25,2.5,1.0,1.0,1.5,0.75,0.5,0.2,0.2,1.02,836.08,-17.0,44.4
1.02,0.5,2.75,3.75,4.5,0.0,0.0,0.0,0.75,0.0,0.75,0.75,0.75,0.25,-0.67,0.45,2.39,309.69,17.7,38.6,7.75,2.25,12.5,6.75,5.5,2.0,2.25,1.25,1.0,1.0,1.5,0.75,0.5,0.02,0.2,1.14,829.2,-19.1,48.1
1.04,0.0,1.0,2.25,2.75,0.0,0.0,0.0,0.0,0.75,1.5,0.5,0.0,0.0,-0.8,1.52,3.58,235.63,15.8,25.8,7.5,2.0,12.5,0.0,5.0,0.0,1.5,1.25,0.75,0.25,1.5,0.5,0.0,-0.05,0.14,1.2,720.88,-23.6,53.4
1.06,0.0,0.0,2.0,0.0,0.0,0.0,0.0,1.25,0.75,1.5,0.75,0.0,0.0,-0.42,0.45,3.52,148.76,8.1,-19.0,8.0,2.0,12.5,5.25,4.25,0.5,1.25,0.0,0.5,0.0,0.75,0.25,0.25,0.08,0.2,1.08,641.06,-24.6,61.9
1.08,0.0,0.0,2.0,0.0,0.0,0.0,0.0,1.25,1.5,1.0,0.75,0.0,0.25,-0.11,-0.8,1.95,79.82,9.5,-20.4,8.0,2.0,11.5,6.0,1.75,0.25,1.0,1.25,0.5,0.25,0.75,0.25,0.5,0.02,0.2,1.02,565.3,-24.6,56.8
1.1,0.0,0.0,0.0,0.0,0.0,0.0,1.5,3.75,1.0,1.75,1.5,0.0,0.25,0.08,-0.55,1.14,55.16,-4.8,-48.6,8.0,1.5,12.5,5.0,3.5,0.0,0.75,0.0,0.25,0.0,1.0,0.0,0.75,-0.05,0.33,0.89,529.03,-25.8,60.6
1.12,0.0,0.0,0.0,0.0,0.0,0.0,0.75,2.75,0.25,1.75,1.75,0.0,0.25,-0.11,-0.98,1.45,46.87,-6.2,-55.9,8.25,2.0,12.0,5.75,1.25,0.0,0.25,0.0,0.5,0.0,0.5,0.25,0.5,-0.05,0.33,0.89,485.24,-27.9,63.6
1.14,0.0,0.0,0.0,0.0,0.0,0.0,0.0,0.75,0.25,1.75,1.0,0.0,0.0,-0.05,-0.61,1.02,28.31,-7.1,-65.6,8.75,2.0,12.5,5.75,1.5,0.0,0.75,0.0,0.25,0.0,0.5,0.25,0.5,-0.05,0.39,0.83,470.37,-28.0,64.5
1.16,0.0,0.0,0.0,0.25,0.0,0.0,1.0,1.75,2.0,2.0,1.75,0.0,0.25,-0.23,-0.48,0.39,40.65,-0.2,-50.2,8.75,2.0,12.5,5.75,3.5,0.0,0.75,0.0,0.25,0.0,0.25,0.25,0.5,-0.11,0.39,0.77,468.35,-26.0,64.7
1.18,0.0,0.0,0.0,0.25,0.0,0.0,1.0,1.25,1.75,2.0,2.25,0.25,0.5,-0.42,-0.36,0.14,55.81,0.8,-56.1,9.0,2.0,12.5,5.75,3.0,0.0,0.75,0.0,0.25,0.0,0.5,0.25,0.5,-0.17,0.45,0.89,475.6,-26.5,64.1
1.2,0.0,0.0,0.0,0.0,0.0,0.0,1.0,2.25,0.5,2.0,1.5,0.0,0.25,-0.42,-0.23,0.2,66.49,-5.1,-55.1,9.0,2.0,12.5,5.75,3.5,0.0,0.75,0.0,0.25,0.0,0.25,0.0,0.5,-0.17,0.45,0.95,489.49,-26.2,66.2
1.22,0.0,0.0,0.0,0.25,0.0,0.0,1.0,2.0,1.25,2.0,2.0,0.5,0.25,-0.42,0.14,0.45,84.48,-0.9,-55.0,9.0,2.0,12.5,6.0,1.5,0.0,1.25,0.0,0.25,0.0,0.5,0.25,0.25,-0.17,0.52,1.08,492.0,-28.3,65.7
1.24,0.0,0.0,0.0,0.0,0.0,0.0,0.0,0.0,0.25,1.25,0.0,0.0,0.0,-0.48,0.52,0.45,72.47,-11.1,-69.4,9.0,2.0,12.5,6.0,0.0,0.0,1.25,0.0,0.25,0.0,0.5,0.25,0.0,-0.17,0.52,0.89,481.34,-30.4,67.9
1.26,0.0,0.0,0.25,0.0,0.0,0.0,0.0,0.0,0.75,1.25,1.0,0.0,0.0,-0.55,0.95,0.33,64.0,3.0,-56.0,9.0,2.5,13.0,6.25,0.0,0.0,2.0,0.0,0.25,0.0,0.25,0.25,0.25,-0.36,0.52,0.52,481.72,-30.0,67.4
1.28,0.0,0.0,1.75,0.0,0.0,0.0,0.0,0.0,0.25,1.75,1.0,0.0,0.0,-1.86,6.08,-2.11,55.51,11.5,-22.0,8.25,2.0,11.0,5.75,0.0,0.0,2.25,0.0,0.0,0.0,0.0,0.0,0.0,-0.61,0.58,0.39,460.14,-30.7,71.9
1.3,0.0,0.0,1.25,0.0,0.0,0.0,0.0,0.0,0.5,1.5,1.25,0.0,0.0,-1.73,7.02,-3.55,56.58,9.9,-32.3,8.0,2.0,11.0,6.0,0.0,0.0,3.25,0.0,0.0,0.0,0.0,0.0,0.0,-0.55,0.7,0.39,437.24,-30.6,70.8
1.32,0.0,0.0,1.75,0.0,0.0,0.0,0.0,1.0,0.5,1.5,1.0,0.5,0.0,-0.36,1.39,2.39,64.54,7.9,-30.1,8.5,2.25,10.5,6.0,0.0,0.0,4.25,0.0,0.25,0.0,0.5,0.0,0.0,-0.55,0.83,0.52,428.05,-29.9,67.7
1.34,0.0,0.0,1.25,0.0,0.0,0.0,0.0,1.0,0.75,1.25,1.0,0.0,0.0,0.08,-1.55,0.89,70.18,6.1,-29.8,8.0,2.75,11.0,7.75,0.0,0.0,5.25,0.0,0.25,0.0,0.75,0.25,0.5,-0.36,0.89,0.33,450.45,-28.1,61.5
1.36,0.0,0.0,1.25,0.0,0.0,0.0,0.0,0.0,1.5,1.75,0.0,0.0,0.0,0.2,0.27,-3.48,71.76,8.8,-24.5,6.75,2.5,11.0,6.0,0.0,0.0,5.75,0.0,0.25,0.0,0.5,0.25,0.5,-0.36,1.08,0.2,452.36,-28.8,60.9
1.38,0.0,0.0,0.5,0.0,0.0,0.0,0.0,1.75,0.75,0.5,1.75,0.0,0.0,-3.05,7.83,-3.55,71.55,1.8,-44.3,7.0,2.0,11.0,6.25,0.0,0.0,6.0,0.0,0.25,0.0,0.5,0.25,0.5,-0.36,0.95,0.08,454.42,-29.1,60.3
1.4,0.0,0.0,1.5,0.0,0.0,0.0,0.0,0.0,0.75,1.25,0.5,0.0,0.0,-0.8,-0.23,0.64,63.43,13.3,-16.2,5.25,1.0,10.0,5.0,0.0,0.0,6.0,0.0,0.25,0.0,0.75,0.25,0.5,-0.48,0.89,-0.11,417.26,-29.4,55.3
1.42,0.0,0.0,1.75,0.0,0.0,0.0,0.0,0.0,0.75,1.25,1.25,0.0,0.0,-0.3,-2.48,2.58,65.9,14.2,-20.8,4.0,0.5,10.0,3.75,0.0,0.0,5.75,0.0,0.0,0.0,0.0,0.0,0.0,-0.48,0.83,-0.61,366.56,-32.4,63.4
1.44,0.0,0.0,2.0,0.0,0.0,0.0,0.25,0.0,0.5,1.0,1.25,0.0,0.0,-0.3,-2.36,1.39,69.04,17.6,-11.6,3.75,0.5,8.5,3.75,0.0,0.0,5.0,0.0,0.25,0.0,0.0,0.25,0.0,-0.36,0.89,-0.61,314.44,-31.3,60.4
1.46,0.0,0.0,1.75,0.0,0.0,0.0,0.0,0.0,0.75,1.25,1.5,0.25,0.25,0.14,-0.11,-0.48,77.41,12.6,-31.0,3.25,0.25,8.5,2.5,0.0,0.0,4.5,0.0,0.0,0.0,0.25,0.25,0.5,-0.23,1.39,-0.42,276.73,-31.2,54.1
1.48,0.0,0.0,1.25,1.75,0.0,0.0,3.75,0.0,3.0,2.25,2.25,0.25,0.0,-0.55,5.52,-2.11,119.01,13.1,-19.2,2.25,0.25,7.5,1.25,0.0,0.0,3.0,0.0,0.0,0.0,0.5,0.25,0.5,-0.67,2.39,1.08,236.06,-31.4,49.5
1.5,0.0,0.0,0.0,0.5,0.0,0.0,0.0,0.0,0.25,1.5,0.75,0.0,0.0,-0.11,2.02,3.7,105.63,-1.2,-49.1,1.25,0.0,4.75,0.0,0.0,0.0,1.75,0.0,0.25,0.0,0.0,0.25,0.0,0.08,3.7,-1.23,172.64,-35.2,53.9
1.52,0.0,0.0,0.0,0.75,0.0,0.0,0.0,0.0,0.0,1.0,0.75,0.0,0.0,0.2,1.14,-0.55,88.67,2.2,-33.7,1.0,0.0,4.5,1.25,0.0,0.0,1.25,0.0,0.25,0.0,0.25,0.25,0.5,-0.11,1.52,0.39,126.28,-28.9,40.6
1.54,1.0,0.0,1.0,1.75,0.0,0.0,2.75,4.75,2.25,1.5,2.25,0.5,0.0,-0.23,1.39,0.33,128.07,6.0,-18.8,1.25,0.0,3.5,0.0,0.0,0.0,1.25,0.0,0.25,0.0,0.25,0.25,0.5,0.02,-1.17,0.58,75.83,-30.0,36.0
1.56,0.75,0.0,1.0,2.0,0.0,0.0,0.0,0.0,0.0,1.25,0.75,0.0,0.0,-0.73,1.2,0.02,125.66,15.1,17.8,1.0,0.0,3.25,1.25,0.0,0.0,1.25,0.0,0.25,0.0,0.25,0.25,0.5,1.2,-2.36,-0.67,53.34,-27.3,37.1
1.58,0.0,0.0,0.0,0.75,0.0,0.0,0.0,0.0,0.0,1.5,0.5,0.0,0.0,-0.92,1.14,-0.36,111.32,-1.7,-37.6,1.0,0.0,2.75,1.0,0.0,0.0,1.25,0.0,0.0,0.0,0.25,0.25,0.0,0.58,-2.42,0.27,36.64,-31.0,50.0
1.6,0.0,0.0,0.0,0.0,0.0,0.0,0.0,0.0,0.0,1.0,0.5,0.0,0.0,-0.67,1.64,-0.61,76.22,-7.0,-75.4,0.75,0.25,2.75,1.25,0.25,0.0,1.25,0.0,0.25,0.0,0.25,0.25,0.5,-0.3,-1.3,0.45,45.92,-24.5,36.3
1.62,0.25,0.0,0.0,0.5,0.0,0.0,2.75,3.25,3.0,2.25,2.75,0.25,0.0,-0.11,2.33,0.08,109.32,2.7,-40.8,1.0,0.25,2.0,0.75,0.0,0.0,1.25,0.0,0.25,0.0,0.25,0.25,0.5,-0.8,0.52,0.27,45.6,-25.2,32.7
1.64,0.75,0.0,0.0,0.75,0.0,0.0,2.75,3.75,3.0,2.0,2.75,0.0,0.0,-0.55,2.52,0.58,141.16,3.6,-32.5,1.0,0.25,2.0,0.75,0.0,0.0,1.25,0.0,0.25,0.0,0.25,0.25,0.5,-1.11,2.14,-0.05,54.09,-25.2,32.7
1.66,0.0,0.0,0.0,0.0,0.0,0.0,1.5,1.75,1.5,1.75,2.25,0.0,0.5,-0.11,1.2,0.2,159.41,0.1,-54.6,1.0,0.0,1.75,1.0,0.25,0.0,1.0,0.0,0.25,0.0,0.25,0.25,0.5,-1.55,5.7,-2.73,59.49,-23.2,30.8
1.68,0.0,0.0,0.0,0.0,0.0,0.0,0.5,1.5,1.25,1.75,1.5,0.0,0.25,0.27,-0.17,-1.23,151.88,-2.7,-57.4,1.0,0.25,1.75,0.25,0.5,0.0,1.0,0.0,0.25,0.0,0.5,0.25,0.5,0.14,2.27,0.7,65.69,-21.7,26.8
1.7,0.0,0.0,0.0,0.0,0.0,0.0,0.25,1.5,1.0,1.75,1.5,0.0,0.25,0.14,-1.11,-0.98,129.9,-4.0,-59.8,0.5,0.25,1.75,0.0,0.0,0.0,1.0,0.0,0.25,0.0,0.25,0.25,0.5,-0.55,1.08,-0.48,64.08,-24.6,19.3
1.72,0.0,0.0,0.0,0.0,0.0,0.0,0.0,1.25,1.0,1.25,1.25,0.0,0.25,-0.17,-1.11,0.14,102.14,-3.8,-60.6,1.0,0.0,1.75,0.0,0.0,0.0,1.0,0.0,0.25,0.0,0.25,0.25,0.5,-0.17,0.83,0.02,66.0,-26.4,23.0
1.74,0.0,0.0,0.0,0.0,0.0,0.0,0.25,1.25,1.0,1.5,1.5,0.0,0.25,-0.17,-0.23,-0.05,94.45,-2.9,-60.0,1.0,0.0,1.75,0.0,0.5,0.0,1.0,0.0,0.0,0.0,0.25,0.5,0.75,-0.36,0.64,0.83,70.71,-21.0,16.5
1.76,0.0,0.0,0.0,0.25,0.0,0.0,0.25,0.0,1.0,1.25,1.25,0.0,0.0,-0.05,0.52,0.02,77.97,3.6,-53.6,0.75,0.25,1.75,0.0,0.25,0.0,0.75,0.0,0.25,0.0,0.25,0.25,0.5,-0.23,0.7,0.7,69.19,-23.2,25.2
1.78,0.0,0.0,1.25,0.0,0.0,0.0,0.25,0.0,2.5,2.0,1.5,0.25,0.25,0.02,1.02,-0.05,83.2,8.4,-42.1,0.75,0.25,1.75,0.0,0.25,0.0,1.0,0.0,0.25,0.0,0.25,0.25,0.5,-0.23,0.83,0.33,71.46,-23.4,25.2
1.8,0.0,0.0,2.25,0.5,0.0,0.0,1.75,2.75,2.0,2.0,2.75,0.25,0.25,0.14,1.45,-0.42,125.86,7.2,-29.1,0.75,0.0,1.75,0.0,0.0,0.0,1.0,0.0,0.25,0.0,0.25,0.25,0.5,-0.36,0.89,0.2,68.48,-25.9,18.8
1.82,0.0,0.0,1.0,0.0,0.0,0.0,0.5,0.0,1.75,1.75,1.75,0.5,0.25,-0.05,1.95,-0.11,132.51,8.3,-47.2,0.75,0.0,1.75,0.0,0.0,0.0,0.75,0.0,0.25,0.0,0.25,0.25,0.5,-0.3,0.7,-0.05,66.25,-25.7,18.6
1.84,0.0,0.0,2.0,0.75,0.0,0.0,1.0,0.0,1.0,1.25,1.75,0.0,0.0,0.27,2.95,-1.98,128.94,16.3,-10.5,0.75,0.25,1.75,0.0,0.0,0.0,0.75,0.0,0.25,0.0,0.5,0.25,0.5,-0.3,0.7,-0.3,65.16,-24.2,18.1
1.86,0.0,0.0,1.0,0.0,0.0,0.0,0.0,0.0,0.75,1.0,1.0,0.0,0.0,-0.8,1.58,0.45,94.92,11.5,-30.6,0.75,0.0,1.75,0.0,0.0,0.0,1.0,0.0,0.25,0.0,0.25,0.25,0.5,-0.36,1.08,-0.55,65.73,-25.9,18.8
1.88,0.0,0.0,1.0,0.0,0.0,0.0,0.0,0.0,0.75,1.25,1.0,0.0,0.0,-0.17,0.89,-0.11,76.89,9.8,-33.4,0.75,0.0,1.75,0.0,0.0,0.0,1.0,0.0,0.25,0.0,0.25,0.25,0.5,-0.42,1.52,-0.73,65.95,-25.9,18.8
1.9,0.0,0.0,0.5,0.0,0.0,0.0,0.0,0.0,1.0,1.25,1.0,0.0,0.0,-0.23,1.08,0.14,61.43,6.0,-46.8,1.25,0.0,1.75,0.0,0.25,0.0,0.75,0.0,0.0,0.0,0.5,0.25,0.5,-0.3,1.39,-0.55,69.77,-24.8,26.5
1.92,0.0,0.0,1.0,0.0,0.0,0.0,0.0,0.0,0.75,0.75,1.25,0.0,0.25,-0.23,0.89,-0.05,57.67,11.5,-35.6,1.0,0.0,1.75,0.0,0.0,0.0,0.75,0.0,0.0,0.0,0.5,0.25,0.5,-0.11,1.02,-0.48,70.83,-26.1,20.8
1.94,0.0,0.0,0.75,0.0,0.0,0.0,0.0,0.0,0.75,1.0,1.0,0.0,0.0,-0.17,0.95,-0.05,52.32,9.5,-37.3,0.75,0.0,1.75,0.0,0.0,0.0,0.75,0.0,0.0,0.0,0.25,0.25,0.5,0.02,0.7,-0.42,69.27,-26.6,22.2
1.96,0.0,0.0,1.0,0.0,0.0,0.0,0.0,0.0,0.75,1.0,0.75,0.0,0.0,-0.11,1.08,-0.05,48.52,11.6,-27.4,0.75,0.0,1.75,0.0,0.0,0.0,0.75,0.0,0.0,0.0,0.25,0.25,0.5,-0.05,0.58,-0.23,65.5,-26.6,22.2
1.98,0.0,0.0,1.0,0.0,0.0,0.0,0.0,0.0,0.75,1.0,0.75,0.0,0.0,-0.11,1.2,-0.11,43.91,11.6,-27.4,1.0,0.0,1.75,0.0,0.0,0.0,0.75,0.0,0.0,0.0,0.25,0.25,0.5,-0.17,0.64,-0.11,64.18,-27.0,26.5
2.0,0.0,0.0,1.0,0.0,0.0,0.0,0.0,0.0,0.75,0.75,1.0,0.0,0.0,-0.11,1.08,-0.23,40.77,13.5,-27.3,0.5,0.0,1.75,0.0,0.0,0.0,0.75,0.0,0.0,0.0,0.25,0.25,0.5,-0.23,0.7,-0.11,61.59,-26.0,17.4
2.02,0.0,0.0,1.0,0.0,0.0,0.0,0.0,0.0,0.75,0.75,1.0,0.0,0.0,-0.11,1.02,-0.36,37.03,13.5,-27.3,0.5,0.0,1.75,0.0,0.0,0.0,0.75,0.0,0.0,0.0,0.25,0.25,0.5,-0.3,0.95,-0.17,59.9,-26.0,17.4
2.04,0.0,0.0,1.0,0.0,0.0,0.0,0.0,0.0,0.75,1.0,1.0,0.0,0.0,0.02,0.95,-0.48,39.64,11.5,-30.6,0.75,0.0,1.75,0.0,0.0,0.0,0.75,0.0,0.0,0.0,0.25,0.25,0.5,-0.36,1.2,-0.17,60.01,-26.6,22.2
2.06,0.0,0.0,1.0,0.0,0.0,0.0,0.0,0.0,0.5,0.75,0.75,0.0,0.0,0.14,0.83,-0.42,44.7,13.8,-22.5,1.25,0.0,1.75,0.0,0.0,0.0,0.75,0.0,0.0,0.0,0.25,0.75,0.5,-0.48,1.33,-0.11,65.22,-25.6,15.9
2.08,0.0,0.0,0.5,0.0,0.0,0.0,0.0,0.0,0.5,0.75,0.5,0.5,0.0,0.2,0.7,-0.42,44.48,8.6,-49.4,0.5,0.0,1.75,0.0,0.0,0.0,0.75,0.0,0.0,0.0,0.25,0.25,0.5,-0.36,1.39,-0.17,63.72,-26.0,17.4
2.1,0.0,0.0,0.25,0.0,0.0,0.0,0.0,0.0,0.25,0.75,1.0,0.0,0.0,0.14,0.7,-0.3,41.82,5.1,-55.5,0.5,0.0,1.75,0.0,0.0,0.0,0.75,0.0,0.0,0.0,0.25,0.25,0.5,-0.3,1.27,-0.17,62.97,-26.0,17.4
2.12,0.0,0.0,0.25,0.0,0.0,0.0,0.0,0.0,0.5,1.0,1.0,0.0,0.0,0.14,0.83,-0.23,40.32,3.9,-55.8,0.5,0.0,1.75,0.0,0.0,0.0,0.75,0.0,0.0,0.0,0.25,0.25,0.5,-0.36,1.14,-0.05,59.91,-26.0,17.4
2.14,0.0,0.0,0.25,0.0,0.0,0.0,0.0,0.0,0.25,1.0,0.75,0.0,0.0,0.14,0.95,-0.17,37.13,2.2,-55.6,0.5,0.0,1.75,0.0,0.0,0.0,0.75,0.0,0.0,0.0,0.5,0.25,0.5,-0.23,0.95,-0.11,59.34,-25.1,11.6
2.16,0.0,0.0,1.0,0.0,0.0,0.0,0.0,0.0,0.5,0.75,0.75,0.0,0.0,0.08,1.08,-0.11,39.19,13.8,-22.5,0.75,0.0,1.75,0.0,0.0,0.0,0.75,0.0,0.0,0.0,0.25,0.25,0.5,-0.23,0.89,-0.17,60.26,-26.6,22.2
2.18,0.0,0.0,0.75,0.0,0.0,0.0,0.0,0.0,0.5,1.0,0.75,0.0,0.0,0.02,1.14,-0.11,41.07,9.2,-34.1,0.5,0.0,1.75,0.0,0.0,0.0,0.75,0.0,0.0,0.0,0.25,0.25,0.5,-0.23,0.83,-0.17,60.6,-26.0,17.4
2.2,0.0,0.0,0.75,0.0,0.0,0.0,0.0,0.0,0.5,1.0,0.5,0.0,0.0,-0.05,1.2,-0.23,41.91,9.1,-30.5,0.75,0.0,1.75,0.0,0.0,0.0,0.75,0.0,0.0,0.0,0.25,0.25,0.5,-0.23,0.83,-0.23,61.5,-26.6,22.2
2.22,0.0,0.0,0.5,0.0,0.0,0.0,0.0,0.0,0.5,1.0,1.0,0.25,0.0,-0.11,1.2,-0.23,45.05,7.0,-50.7,1.25,0.0,1.75,0.0,0.0,0.0,0.75,0.0,0.0,0.0,0.25,0.5,0.5,-0.3,0.89,-0.3,65.69,-26.5,22.8
2.24,0.0,0.0,0.5,0.0,0.0,0.0,0.0,0.0,0.5,0.75,0.5,0.0,0.0,-0.17,1.2,-0.23,42.04,8.5,-36.0,1.0,0.0,1.75,0.0,0.0,0.0,0.75,0.0,0.0,0.0,0.25,0.25,0.5,-0.3,0.95,-0.3,67.79,-27.0,26.5
2.26,0.0,0.0,0.75,0.0,0.0,0.0,0.0,0.0,0.5,1.25,0.75,0.25,0.0,-0.17,1.14,-0.23,46.34,7.4,-42.5,0.75,0.0,1.75,0.0,0.0,0.0,0.75,0.0,0.0,0.0,0.25,0.25,0.5,-0.3,0.95,-0.3,67.49,-26.6,22.2
2.28,0.0,0.0,0.75,0.0,0.0,0.0,0.0,0.0,0.5,1.0,1.0,0.0,0.0,-0.11,1.14,-0.23,47.7,9.3,-37.2,0.5,0.0,1.5,0.0,0.0,0.0,0.75,0.0,0.0,0.0,0.25,0.25,0.5,-0.3,0.95,-0.3,62.84,-25.1,14.1
2.3,0.0,0.0,0.75,0.0,0.0,0.0,0.0,0.0,0.5,0.75,0.75,0.0,0.0,-0.05,1.14,-0.23,48.41,11.5,-30.4,0.5,0.0,1.75,0.0,0.0,0.0,0.75,0.0,0.0,0.0,0.25,0.25,0.5,-0.36,1.02,-0.23,60.13,-26.0,17.4
2.32,0.0,0.0,0.5,0.0,0.0,0.0,0.0,0.0,0.0,0.75,0.75,0.0,0.0,-0.05,1.14,-0.23,42.59,7.9,-40.2,0.5,0.0,1.75,0.0,0.0,0.0,0.75,0.0,0.0,0.0,0.25,0.25,0.5,-0.36,1.02,-0.3,58.83,-26.0,17.4
2.34,0.0,0.0,0.75,0.0,0.0,0.0,0.0,0.0,0.0,0.75,0.75,0.0,0.0,-0.05,1.14,-0.23,38.57,11.3,-28.6,0.75,0.0,1.5,0.0,0.0,0.0,0.75,0.0,0.0,0.0,0.5,0.25,0.5,-0.36,0.89,-0.3,59.54,-24.8,13.5
2.36,0.0,0.0,0.75,0.0,0.0,0.0,0.0,0.0,0.0,0.75,0.75,0.0,0.0,0.02,1.08,-0.17,34.35,11.3,-28.6,0.5,0.0,1.75,0.0,0.0,0.0,0.75,0.0,0.0,0.0,0.5,0.25,0.5,-0.36,0.83,-0.3,60.46,-25.1,11.6
2.38,0.0,0.0,1.0,0.0,0.0,0.0,0.0,0.0,0.0,1.0,0.75,0.0,0.0,-0.05,0.95,-0.23,35.62,11.4,-24.5,0.0,0.0,1.5,0.0,0.0,0.0,0.75,0.0,0.0,0.0,0.25,0.25,0.5,-0.42,0.77,-0.3,55.78,-23.5,0.6
2.4,0.0,0.0,1.0,0.0,0.0,0.0,0.0,0.0,0.0,0.75,1.0,0.0,0.0,-0.11,0.95,-0.3,37.35,13.8,-24.3,0.25,0.0,1.75,0.0,0.0,0.0,0.75,0.0,0.0,0.0,0.5,0.25,0.5,-0.36,0.77,-0.36,55.02,-24.4,6.0
2.42,0.0,0.0,1.0,0.0,0.0,0.0,0.0,0.75,0.5,0.75,0.75,0.0,0.25,-0.05,0.95,-0.42,46.43,6.3,-31.2,0.25,0.0,1.0,0.0,0.0,0.0,0.75,0.0,0.0,0.0,0.25,0.25,0.5,-0.42,0.77,-0.36,48.49,-21.6,-2.5
2.44,0.0,0.0,0.75,0.0,0.0,0.0,0.0,1.25,0.75,0.75,0.75,0.0,0.0,0.08,0.95,-0.36,54.98,3.2,-33.3,0.75,0.0,1.75,0.0,0.0,0.0,0.75,0.0,0.0,0.0,0.5,0.25,0.5,-0.42,0.77,-0.36,52.75,-25.6,16.5
2.46,0.0,0.0,1.0,0.0,0.0,0.0,0.0,1.25,0.0,0.75,0.75,0.0,0.0,0.08,0.95,-0.3,59.38,3.8,-25.8,0.75,0.0,1.75,0.0,0.0,0.0,0.5,0.0,0.0,0.0,0.5,0.25,0.5,-0.42,0.77,-0.36,55.77,-25.4,16.1
2.48,0.0,0.0,1.0,0.0,0.0,0.0,0.0,1.25,0.75,0.75,0.75,0.0,0.0,0.08,0.95,-0.3,65.15,5.2,-27.9,0.5,0.0,1.75,0.0,0.0,0.0,0.75,0.0,0.0,0.0,0.25,0.25,0.5,-0.36,0.83,-0.42,59.89,-26.0,17.4
2.5,0.0,0.0,1.0,0.0,0.0,0.0,0.25,1.5,0.0,1.25,1.5,0.0,0.0,0.08,0.95,-0.23,72.84,2.6,-36.6,0.75,0.0,1.5,0.0,0.0,0.0,0.75,0.0,0.25,0.0,0.25,0.25,0.5,-0.36,0.89,-0.42,61.6,-24.9,15.8
2.52,0.0,0.0,1.5,0.0,0.0,0.0,0.25,1.5,1.0,1.5,1.25,0.0,0.0,0.02,1.02,-0.17,87.69,5.7,-29.6,0.5,0.0,1.5,0.0,0.0,0.0,0.75,0.0,0.0,0.5,0.5,0.5,0.5,-0.3,0.89,-0.42,64.66,-18.7,-8.1
2.54,0.0,0.0,1.25,0.0,0.0,0.0,0.25,1.5,0.0,1.25,1.25,0.25,0.0,0.02,1.02,-0.17,94.15,4.2,-33.7,0.0,0.0,1.25,0.0,0.0,0.0,0.75,0.0,0.0,0.0,0.5,0.25,0.5,-0.3,0.95,-0.42,58.56,-21.1,-11.0
2.56,0.0,0.0,1.25,0.0,0.0,0.0,0.25,1.25,0.0,0.75,1.25,0.0,0.0,-0.05,1.02,-0.23,92.47,7.2,-24.8,0.25,0.0,1.25,0.0,0.0,0.0,0.75,0.0,0.0,0.0,0.25,0.25,0.5,-0.23,0.95,-0.42,53.35,-23.1,3.1
2.58,0.0,0.0,1.25,0.0,0.0,0.0,0.25,1.5,0.0,1.25,1.25,0.0,0.0,-0.05,1.02,-0.3,89.55,3.9,-30.2,0.5,0.0,1.0,0.0,0.0,0.0,0.75,0.0,0.0,0.0,0.25,0.25,0.5,-0.3,1.02,-0.42,48.28,-22.7,5.6
2.6,0.0,0.0,1.5,0.0,0.0,0.0,0.25,1.25,0.0,1.0,1.5,0.25,0.0,-0.05,1.02,-0.3,87.68,7.8,-29.1,0.5,0.0,1.25,0.0,0.0,0.0,0.75,0.0,0.0,0.0,0.5,0.25,0.5,-0.3,1.02,-0.42,48.48,-23.1,4.0
2.62,0.0,0.0,1.25,0.0,0.0,0.0,0.25,1.25,0.0,1.0,1.5,0.25,0.0,0.02,0.95,-0.3,86.42,6.4,-33.4,0.5,0.0,1.0,0.0,0.0,0.0,0.5,0.0,0.0,0.0,0.25,0.25,0.5,-0.3,1.08,-0.42,46.31,-22.3,4.7
2.64,0.0,0.0,1.25,0.0,0.0,0.0,0.0,0.0,0.0,1.25,1.25,0.0,0.0,0.02,0.95,-0.3,77.61,11.3,-28.6,0.75,0.0,1.25,0.0,0.0,0.0,0.75,0.0,0.0,0.0,0.25,0.25,0.5,-0.3,1.02,-0.42,48.5,-24.8,16.3
2.66,0.0,0.0,1.5,0.0,0.0,0.0,0.25,1.25,1.0,1.0,1.25,0.25,0.0,0.08,0.95,-0.3,81.8,8.4,-28.8,0.75,0.0,1.25,0.0,0.0,0.0,0.5,0.0,0.0,0.0,0.5,0.25,0.5,-0.36,1.02,-0.42,50.56,-23.5,9.5
2.68,0.0,0.0,1.5,0.0,0.0,0.0,0.25,0.0,1.0,1.25,1.5,0.25,0.0,0.14,0.95,-0.3,81.85,13.0,-30.7,0.0,0.0,1.5,0.0,0.0,0.0,0.75,0.0,0.0,0.0,0.5,0.5,0.5,-0.36,0.95,-0.42,50.81,-21.5,-12.8
2.7,0.0,0.0,1.25,0.0,0.0,0.0,0.25,0.25,0.5,1.25,1.5,0.0,0.0,0.14,0.95,-0.3,81.24,10.5,-31.1,0.5,0.0,1.25,0.0,0.0,0.0,0.5,0.0,0.0,0.0,0.5,0.25,0.5,-0.36,0.95,-0.36,51.23,-22.7,3.1
2.72,0.0,0.0,1.5,0.0,0.0,0.0,0.25,0.0,0.75,0.75,1.0,0.25,0.0,0.14,0.89,-0.3,74.71,16.6,-20.1,0.5,0.0,1.25,0.0,0.0,0.0,0.75,0.0,0.0,0.0,0.25,0.25,0.5,-0.36,0.89,-0.36,51.07,-24.0,10.2
2.74,0.0,0.0,1.5,0.0,0.0,0.0,0.25,0.0,0.0,1.0,1.0,0.0,0.0,0.2,0.83,-0.3,65.96,15.9,-14.0,0.0,0.0,1.25,0.0,0.0,0.0,0.75,0.0,0.0,0.0,0.25,0.25,0.5,-0.36,0.89,-0.36,47.42,-22.1,-5.2
2.76,0.0,0.0,1.5,0.0,0.0,0.0,0.25,0.25,1.0,1.5,1.5,0.25,0.0,0.2,0.77,-0.23,70.53,10.6,-32.8,0.25,0.0,1.0,0.0,0.0,0.0,0.75,0.0,0.0,0.0,0.25,0.25,0.5,-0.36,0.89,-0.42,44.45,-21.6,-2.5
2.78,0.0,0.0,1.5,0.0,0.0,0.0,0.25,0.5,0.75,1.25,1.0,0.0,0.0,0.2,0.83,-0.23,73.31,10.6,-23.0,0.5,0.0,1.25,0.0,0.0,0.0,0.5,0.0,0.0,0.0,0.25,0.25,0.5,-0.36,0.83,-0.36,45.2,-23.7,9.5
2.8,0.0,0.0,1.5,0.75,0.0,0.0,0.25,1.5,0.5,1.25,1.5,0.0,0.0,0.14,0.89,-0.17,88.22,7.4,-19.3,0.5,0.0,1.0,0.0,0.0,0.0,0.75,0.0,0.0,0.0,0.25,0.25,0.5,-0.36,0.83,-0.36,44.82,-22.7,5.6
2.82,0.0,0.0,1.5,0.75,0.0,0.0,0.25,1.0,0.0,1.0,1.25,0.0,0.0,0.14,0.95,-0.23,90.09,10.0,-11.0,0.5,0.0,1.0,0.0,0.0,0.0,0.5,0.0,0.0,0.0,0.5,0.25,0.5,-0.36,0.77,-0.36,45.5,-21.4,-1.7
2.84,0.0,0.0,1.5,0.5,0.0,0.0,0.25,1.0,1.0,1.25,1.25,0.0,0.0,0.14,1.08,-0.23,97.14,9.1,-20.3,0.0,0.0,1.0,0.0,0.0,0.0,0.5,0.0,0.0,0.0,0.25,0.5,0.5,-0.36,0.77,-0.36,42.81,-18.7,-23.8
2.86,0.0,0.0,1.5,0.5,0.0,0.0,0.25,1.5,0.5,0.75,1.5,0.0,0.0,0.14,1.14,-0.23,97.77,8.8,-18.1,0.0,0.0,1.25,0.0,0.0,0.0,0.5,0.0,0.0,0.0,0.25,0.25,0.5,-0.36,0.77,-0.42,41.11,-21.6,-6.7
2.88,0.0,0.0,1.5,0.0,0.0,0.0,0.25,0.5,0.25,0.0,1.25,0.0,0.0,0.14,1.14,-0.23,86.74,19.5,-6.2,0.5,0.0,0.75,0.0,0.0,0.0,0.5,0.0,0.0,0.0,0.25,0.25,0.5,-0.36,0.77,-0.42,38.3,-20.7,-1.1
2.9,0.0,0.0,1.0,0.0,0.0,0.0,0.0,0.0,0.25,0.75,0.75,0.0,0.0,0.14,1.2,-0.3,67.76,13.9,-21.1,0.5,0.0,0.75,0.0,0.0,0.0,0.75,0.0,0.0,0.0,0.25,0.25,0.5,-0.42,0.77,-0.42,38.37,-21.2,0.1
2.92,0.0,0.0,1.0,0.25,0.0,0.0,0.0,0.0,0.0,0.75,0.75,0.0,0.0,0.14,1.2,-0.3,53.06,14.4,-12.1,0.0,0.0,1.0,0.0,0.0,0.0,0.5,0.0,0.0,0.0,0.5,0.25,0.5,-0.42,0.77,-0.36,38.05,-18.9,-20.2
2.94,0.0,0.0,0.75,0.0,0.0,0.0,0.0,0.0,0.0,0.75,0.75,0.0,0.0,0.14,1.14,-0.3,40.34,11.3,-28.6,0.5,0.0,1.25,0.0,0.0,0.0,0.5,0.0,0.0,0.0,0.25,0.25,0.5,-0.42,0.83,-0.42,41.49,-23.7,9.5
2.96,0.0,0.0,1.0,0.25,0.0,0.0,0.0,0.0,0.0,0.5,0.5,0.0,0.0,0.14,1.14,-0.3,32.52,18.1,1.6,0.5,0.0,1.0,0.0,0.0,0.0,0.5,0.0,0.0,0.0,0.5,0.25,0.5,-0.42,0.83,-0.42,44.03,-21.4,-1.7
2.98,0.0,0.0,0.75,0.0,0.0,0.0,0.0,0.0,0.0,0.75,0.5,0.0,0.0,0.14,1.08,-0.3,26.5,11.4,-22.9,0.5,0.0,1.25,0.0,0.0,0.0,0.5,0.0,0.0,0.0,0.25,0.25,0.5,-0.42,0.83,-0.42,46.96,-23.7,9.5
3.0,0.0,0.0,0.75,0.0,0.0,0.0,0.0,0.0,0.0,0.5,0.75,0.0,0.0,0.14,1.02,-0.3,21.62,14.7,-22.7,0.0,0.0,1.25,0.0,0.0,0.0,0.5,0.0,0.0,0.0,0.25,0.5,0.5,-0.42,0.83,-0.42,46.28,-20.5,-15.9
3.02,0.0,0.0,0.75,0.0,0.0,0.0,0.0,0.0,0.0,0.5,0.75,0.0,0.0,0.14,1.02,-0.3,19.43,14.7,-22.7,0.0,0.0,1.0,0.0,0.0,0.0,0.5,0.0,0.0,0.0,0.5,0.25,0.5,-0.42,0.83,-0.42,43.86,-18.9,-20.2
3.04,0.0,0.0,0.5,0.0,0.0,0.0,0.0,0.0,0.0,0.5,0.5,0.0,0.0,0.08,0.95,-0.23,15.54,11.3,-28.6,0.25,0.0,0.75,0.0,0.0,0.0,0.75,0.0,0.0,0.0,0.25,0.25,0.5,-0.42,0.89,-0.42,40.82,-19.8,-9.4
3.06,0.0,0.0,0.25,0.25,0.0,0.0,0.0,0.0,0.0,0.75,0.5,0.0,0.0,0.08,0.95,-0.23,16.45,4.4,-35.5,0.5,0.0,0.75,0.0,0.0,0.0,0.75,0.0,0.0,0.0,0.25,0.25,0.5,-0.42,0.89,-0.42,40.07,-21.2,0.1
3.08,0.0,0.0,0.0,0.0,0.0,0.0,0.0,0.0,0.0,0.75,0.5,0.0,0.0,0.08,0.89,-0.23,14.91,-5.3,-75.4,0.5,0.0,1.0,0.0,0.0,0.0,0.5,0.0,0.0,0.0,0.25,0.25,0.5,-0.42,0.89,-0.42,41.27,-22.3,4.7
3.1,0.0,0.0,0.0,0.0,0.0,0.0,0.0,0.0,0.0,0.5,0.5,0.0,0.0,0.08,0.89,-0.23,14.66,-2.6,-75.4,0.25,0.0,1.0,0.0,0.0,0.0,0.5,0.0,0.0,0.0,0.25,0.25,0.5,-0.42,0.89,-0.42,41.06,-21.1,-3.9
3.12,0.0,0.0,0.0,0.0,0.0,0.0,0.0,0.0,0.0,0.5,0.75,0.0,0.0,0.08,0.89,-0.3,16.46,0.0,-75.5,0.0,0.0,0.75,0.0,0.0,0.0,0.5,0.0,0.0,0.0,0.25,0.25,0.5,-0.36,0.89,-0.42,37.68,-17.4,-24.0
3.14,0.0,0.0,0.0,0.25,0.0,0.0,0.0,0.0,0.0,0.75,0.75,0.0,0.0,0.08,0.89,-0.3,19.8,0.3,-55.3,0.5,0.0,1.0,0.0,0.0,0.0,0.5,0.0,0.0,0.0,0.25,0.25,0.5,-0.36,0.89,-0.42,38.45,-22.3,4.7
3.16,0.0,0.0,0.0,0.25,0.0,0.0,0.0,0.0,0.0,0.5,0.75,0.0,0.0,0.14,0.89,-0.3,21.32,3.0,-52.0,0.25,0.0,1.0,0.0,0.0,0.0,0.5,0.0,0.0,0.0,0.25,0.5,0.5,-0.36,0.89,-0.42,39.02,-20.0,-13.5
3.18,0.0,0.0,0.0,0.0,0.0,0.0,0.0,0.0,0.0,0.75,0.75,0.0,0.0,0.14,0.89,-0.3,23.54,-2.6,-75.5,0.0,0.0,0.5,0.0,0.0,0.0,0.5,0.0,0.0,0.0,0.25,0.25,0.5,-0.36,0.89,-0.42,35.29,-14.3,-36.4
3.2,0.0,0.0,0.0,0.0,0.0,0.0,0.0,0.0,0.0,0.5,0.75,0.0,0.0,0.14,0.95,-0.3,22.89,0.0,-75.5,0.25,0.0,0.75,0.0,0.0,0.0,0.5,0.0,0.0,0.0,0.25,0.25,0.5,-0.36,0.89,-0.42,34.35,-19.2,-11.3
3.22,0.0,0.0,0.5,0.0,0.0,0.0,0.0,0.0,0.0,0.5,0.75,0.0,0.0,0.14,0.95,-0.3,24.31,11.3,-35.1,0.25,0.0,1.0,0.0,0.0,0.0,0.5,0.0,0.0,0.0,0.25,0.25,0.5,-0.36,0.89,-0.42,34.96,-21.1,-3.9
3.24,0.0,0.0,0.25,0.0,0.0,0.0,0.0,0.0,0.0,0.75,0.5,0.0,0.0,0.14,1.02,-0.3,24.11,2.2,-51.9,0.0,0.0,0.5,0.0,0.0,0.0,0.75,0.0,0.0,0.0,0.25,0.25,0.5,-0.36,0.89,-0.42,33.05,-15.4,-32.4
3.26,0.0,0.0,0.25,0.0,0.0,0.0,0.0,0.0,0.0,0.75,0.5,0.0,0.0,0.14,1.02,-0.3,24.88,2.2,-51.9,0.5,0.0,0.5,0.0,0.0,0.0,0.25,0.0,0.0,0.0,0.5,0.25,0.5,-0.36,0.89,-0.42,33.67,-17.1,-17.0
3.28,0.0,0.0,0.5,0.0,0.0,0.0,0.0,0.0,0.0,0.75,0.75,0.0,0.0,0.14,1.02,-0.3,27.61,7.9,-40.2,0.5,0.0,0.75,0.0,0.0,0.0,0.5,0.0,0.0,0.0,0.25,0.25,0.5,-0.36,0.89,-0.42,35.27,-20.7,-1.1
3.3,0.0,0.0,0.5,0.0,0.0,0.0,0.0,0.0,0.0,0.5,0.75,0.0,0.0,0.2,1.02,-0.3,28.35,11.3,-35.1,0.0,0.0,0.75,0.0,0.0,0.0,0.5,0.0,0.0,0.0,0.25,0.25,0.5,-0.36,0.89,-0.42,34.01,-17.4,-24.0
3.32,0.0,0.0,0.75,0.0,0.0,0.0,0.0,0.0,0.0,0.75,0.5,0.0,0.0,0.2,1.02,-0.3,30.4,11.4,-22.9,0.0,0.0,1.25,0.0,0.0,0.0,0.5,0.0,0.0,0.0,0.25,0.5,0.5,-0.36,0.89,-0.42,36.75,-20.5,-15.9
3.34,0.0,0.0,0.75,0.0,0.0,0.0,0.0,0.0,0.0,0.5,0.75,0.0,0.0,0.2,1.02,-0.3,31.17,14.7,-22.7,0.0,0.25,0.75,0.0,0.0,0.0,0.5,0.0,0.0,0.0,0.5,0.25,0.5,-0.36,0.89,-0.42,38.22,-16.2,-16.3
3.36,0.0,0.0,0.75,0.0,0.0,0.0,0.0,0.0,0.0,0.25,0.5,0.0,0.0,0.2,1.02,-0.3,29.33,20.4,-5.5,0.25,0.0,0.75,0.0,0.0,0.0,0.5,0.0,0.0,0.0,0.25,0.25,0.5,-0.36,0.89,-0.42,38.38,-19.2,-11.3
3.38,0.0,0.0,0.25,0.25,0.0,0.0,0.0,0.0,0.25,0.5,0.5,0.0,0.0,0.2,1.02,-0.3,28.11,8.4,-30.2,0.25,0.0,0.75,0.0,0.0,0.0,0.5,0.0,0.0,0.0,0.25,0.25,0.5,-0.36,0.83,-0.42,36.68,-19.2,-11.3
3.4,0.0,0.0,0.5,0.0,0.0,0.0,0.0,0.0,0.25,0.75,0.5,0.0,0.0,0.2,1.02,-0.3,29.04,8.0,-35.7,0.5,0.0,0.75,0.0,0.0,0.0,0.5,0.0,0.0,0.0,0.25,0.25,0.5,-0.36,0.89,-0.42,37.93,-20.7,-1.1
3.42,0.0,0.0,0.5,0.0,0.0,0.0,0.0,0.0,0.0,0.5,0.5,0.0,0.0,0.2,0.95,-0.23,27.43,11.3,-28.6,0.5,0.0,0.5,0.0,0.0,0.0,0.5,0.0,0.0,0.0,0.25,0.25,0.5,-0.36,0.89,-0.42,37.41,-18.6,-8.3
3.44,0.0,0.0,0.5,0.0,0.0,0.0,0.0,0.0,0.0,0.75,0.5,0.0,0.0,0.14,0.95,-0.23,27.44,7.5,-35.3,0.0,0.0,1.0,0.0,0.0,0.0,0.5,0.0,0.0,0.0,0.25,0.25,0.5,-0.42,0.89,-0.42,36.56,-19.7,-14.4
3.46,0.0,0.0,0.5,0.0,0.0,0.0,0.0,0.0,0.0,0.5,0.5,0.0,0.0,0.14,0.95,-0.3,25.41,11.3,-28.6,0.5,0.0,0.5,0.0,0.0,0.0,0.5,0.0,0.0,0.0,0.25,0.25,0.5,-0.42,0.89,-0.42,35.9,-18.6,-8.3
3.48,0.0,0.0,0.5,0.0,0.0,0.0,0.0,0.0,0.25,0.75,0.5,0.0,0.0,0.14,0.95,-0.3,27.19,8.0,-35.7,0.25,0.0,0.5,0.0,0.0,0.0,0.75,0.0,0.0,0.0,0.25,0.25,0.5,-0.42,0.89,-0.42,34.9,-17.6,-18.0
3.5,0.0,0.0,0.5,0.0,0.0,0.0,0.0,0.0,0.0,0.75,0.5,0.0,0.0,0.14,0.95,-0.3,26.95,7.5,-35.3,0.0,0.0,0.75,0.0,0.0,0.0,0.75,0.0,0.0,0.0,0.5,0.25,0.5,-0.42,0.89,-0.42,34.47,-17.4,-26.6
3.52,0.0,0.0,0.75,0.0,0.0,0.0,0.0,0.0,0.0,0.75,0.5,0.0,0.0,0.14,0.95,-0.3,28.84,11.4,-22.9,0.25,0.0,0.25,0.0,0.0,0.0,0.25,0.0,0.0,0.0,0.5,0.25,0.5,-0.48,0.89,-0.42,32.52,-12.0,-42.3
3.54,0.0,0.0,0.75,0.0,0.0,0.0,0.0,0.0,0.25,0.25,0.5,0.0,0.0,0.14,0.95,-0.3,28.8,19.3,-10.1,0.25,0.0,0.5,0.0,0.0,0.0,0.5,0.0,0.0,0.0,0.25,0.25,0.5,-0.42,0.89,-0.42,31.63,-16.7,-20.7
3.56,0.0,0.0,0.75,0.0,0.0,0.0,0.0,0.0,0.25,0.75,0.5,0.0,0.0,0.14,0.95,-0.3,31.12,11.5,-24.6,0.25,0.0,0.75,0.0,0.0,0.0,0.5,0.0,0.0,0.0,0.25,0.25,0.5,-0.48,0.83,-0.42,31.47,-19.2,-11.3
3.58,0.0,0.0,0.75,0.0,0.0,0.0,0.0,0.0,0.25,0.75,0.5,0.0,0.0,0.14,1.02,-0.3,32.88,11.5,-24.6,0.25,0.0,0.5,0.0,0.0,0.0,0.5,0.0,0.0,0.0,0.25,0.25,0.5,-0.42,0.83,-0.42,31.36,-16.7,-20.7
3.6,0.0,0.0,0.75,0.0,0.0,0.0,0.0,0.0,0.25,0.75,0.75,0.0,0.0,0.14,1.02,-0.3,36.28,11.4,-29.6,0.0,0.0,0.5,0.0,0.0,0.0,0.25,0.0,0.0,0.0,0.25,0.25,0.5,-0.42,0.83,-0.42,29.47,-13.0,-41.1
3.62,0.0,0.0,0.5,0.0,0.0,0.0,0.0,0.0,0.5,0.5,0.5,0.0,0.0,0.14,1.02,-0.3,35.56,11.5,-31.1,0.25,0.0,0.75,0.0,0.0,0.0,0.75,0.0,0.0,0.0,0.25,0.25,0.5,-0.36,0.83,-0.42,31.22,-19.8,-9.4
3.64,0.0,0.0,0.5,0.0,0.0,0.0,0.0,0.0,0.5,0.5,0.5,0.0,0.0,0.14,1.02,-0.3,34.71,11.5,-31.1,0.5,0.0,0.75,0.0,0.0,0.0,0.5,0.0,0.0,0.0,0.25,0.5,0.5,-0.36,0.83,-0.42,35.03,-19.6,-11.0
3.66,0.0,0.0,0.5,0.0,0.0,0.0,0.0,0.0,0.5,0.5,0.5,0.0,0.0,0.14,1.02,-0.3,33.31,11.5,-31.1,0.0,0.0,0.75,0.0,0.0,0.0,0.5,0.0,0.0,0.0,0.5,0.25,0.5,-0.42,0.83,-0.42,36.56,-16.6,-29.5
3.68,0.0,0.0,0.5,0.0,0.0,0.0,0.0,0.0,0.25,0.5,0.75,0.0,0.0,0.14,1.02,-0.3,32.25,11.4,-35.5,0.5,0.0,0.5,0.0,0.0,0.0,0.5,0.0,0.0,0.0,0.25,0.25,0.5,-0.42,0.83,-0.42,37.15,-18.6,-8.3
3.7,0.0,0.0,0.75,0.0,0.0,0.0,0.0,0.0,0.5,0.5,0.5,0.0,0.0,0.2,0.95,-0.3,33.02,14.6,-20.5,0.0,0.0,1.5,0.0,0.0,0.0,0.5,0.0,0.0,0.0,0.25,0.25,0.5,-0.36,0.83,-0.42,39.93,-23.1,-0.4
3.72,0.0,0.0,0.5,0.0,0.0,0.0,0.0,0.0,0.25,0.5,0.75,0.0,0.0,0.14,0.95,-0.3,32.55,11.4,-35.5,0.0,0.0,0.75,0.0,0.0,0.0,0.5,0.0,0.0,0.0,0.25,0.25,0.5,-0.36,0.89,-0.42,37.71,-17.4,-24.0
3.74,0.0,0.0,0.5,0.0,0.0,0.0,0.0,0.0,0.25,0.75,0.5,0.0,0.0,0.14,0.95,-0.3,32.53,8.0,-35.7,0.5,0.0,0.75,0.0,0.0,0.0,0.5,0.0,0.0,0.0,0.25,0.25,0.5,-0.42,0.89,-0.42,38.62,-20.7,-1.1
3.76,0.0,0.0,1.0,0.0,0.0,0.0,0.0,0.0,0.5,0.75,0.5,0.0,0.0,0.14,0.95,-0.3,35.65,14.1,-17.9,0.0,0.0,0.5,0.0,0.0,0.0,0.5,0.0,0.0,0.0,0.25,0.25,0.5,-0.36,0.89,-0.42,35.05,-14.3,-36.4
3.78,0.0,0.0,0.25,0.0,0.0,0.0,0.0,0.0,0.5,0.75,0.5,0.0,0.0,0.14,0.95,-0.3,35.35,4.6,-48.6,0.25,0.0,0.75,0.0,0.0,0.0,0.5,0.0,0.0,0.0,0.25,0.25,0.5,-0.36,0.89,-0.42,34.91,-19.2,-11.3
3.8,0.0,0.0,0.25,0.0,0.0,0.0,0.0,0.0,0.25,0.75,0.5,0.0,0.0,0.14,0.95,-0.3,33.45,3.6,-50.0,0.25,0.0,0.5,0.0,0.0,0.0,0.5,0.0,0.0,0.25,0.25,0.25,0.5,-0.42,0.89,-0.42,33.45,-13.1,-26.8
3.82,0.0,0.0,0.25,0.0,0.0,0.0,0.0,0.0,0.5,0.5,0.75,0.0,0.0,0.14,0.95,-0.3,32.19,8.0,-48.5,0.0,0.25,0.75,0.0,0.0,0.0,0.5,0.0,0.0,0.0,0.25,0.25,0.5,-0.42,0.89,-0.42,34.83,-16.8,-10.0
3.84,0.0,0.0,0.5,0.0,0.0,0.0,0.0,0.0,0.75,1.0,0.5,0.0,0.0,0.14,1.02,-0.3,35.57,6.6,-39.8,0.0,0.0,0.75,0.0,0.0,0.0,0.25,0.0,0.0,0.0,0.25,0.25,0.5,-0.36,0.89,-0.42,32.65,-16.4,-27.2
3.86,0.0,0.0,1.25,0.0,0.0,0.0,0.0,0.0,0.5,0.75,0.5,0.0,0.0,0.14,1.02,-0.3,40.65,16.1,-11.1,0.25,0.0,0.5,0.0,0.0,0.0,0.75,0.0,0.0,0.0,0.25,0.25,0.5,-0.36,0.89,-0.42,31.82,-17.6,-18.0
3.88,0.0,0.0,0.5,0.0,0.0,0.0,0.0,0.0,0.25,0.75,0.5,0.0,0.0,0.14,1.02,-0.3,39.93,8.0,-35.7,0.0,0.0,0.5,0.0,0.0,0.0,0.5,0.0,0.0,0.0,0.5,0.25,0.5,-0.36,0.89,-0.42,30.88,-13.9,-41.1
3.9,0.0,0.0,0.5,0.0,0.0,0.0,0.0,0.0,0.0,0.5,0.5,0.0,0.0,0.14,1.02,-0.3,35.03,11.3,-28.6,0.5,0.0,0.5,0.0,0.0,0.0,0.5,0.0,0.0,0.0,0.25,0.25,0.5,-0.36,0.89,-0.42,32.26,-18.6,-8.3
3.92,0.0,0.0,0.5,0.0,0.0,0.0,0.0,0.0,0.0,0.75,0.75,0.0,0.0,0.14,1.02,-0.3,31.73,7.9,-40.2,0.0,0.0,0.75,0.0,0.0,0.0,0.25,0.0,0.0,0.0,0.25,0.25,0.5,-0.36,0.83,-0.42,31.0,-16.4,-27.2
3.94,0.0,0.0,0.5,0.0,0.0,0.0,0.0,0.0,0.0,0.75,1.0,0.0,0.0,0.2,1.02,-0.3,31.22,8.2,-44.0,0.0,0.0,0.75,0.0,0.0,0.0,0.5,0.0,0.0,0.0,0.25,0.25,0.5,-0.36,0.83,-0.42,30.82,-17.4,-24.0
3.96,0.0,0.0,0.75,0.0,0.0,0.0,0.0,0.0,0.0,0.75,0.5,0.0,0.0,0.14,1.02,-0.3,31.15,11.4,-22.9,0.0,0.0,0.5,0.0,0.0,0.0,0.5,0.0,0.0,0.0,0.5,0.25,0.5,-0.42,0.83,-0.42,30.99,-13.9,-41.1
3.98,0.0,0.0,1.0,0.0,0.0,0.0,0.0,0.0,0.25,0.75,0.75,0.0,0.0,0.2,1.02,-0.3,35.37,13.9,-21.1,0.5,0.0,0.5,0.0,0.0,0.0,0.5,0.0,0.0,0.0,0.5,0.25,0.5,-0.42,0.89,-0.42,33.27,-17.9,-14.8
4.0,0.0,0.0,0.75,0.25,0.0,0.0,0.0,0.0,0.5,0.5,0.5,0.0,0.0,0.2,1.02,-0.3,37.47,14.9,-12.3,0.0,0.0,0.5,0.0,0.0,0.0,0.5,0.0,0.0,0.0,0.5,0.25,0.5,-0.42,0.83,-0.42,33.65,-13.9,-41.1
4.02,0.0,0.0,0.25,0.0,0.0,0.0,0.0,0.0,0.25,0.75,0.5,0.0,0.0,0.2,0.95,-0.3,35.94,3.6,-50.0,0.5,0.0,0.75,0.0,0.0,0.0,0.5,0.0,0.0,0.0,0.5,0.25,0.5,-0.36,0.83,-0.42,37.28,-19.8,-7.7
4.04,0.0,0.0,0.75,0.25,0.0,0.0,0.0,0.0,0.0,0.5,0.5,0.0,0.0,0.2,0.95,-0.3,33.9,15.5,-5.9,0.25,0.0,0.5,0.0,0.0,0.0,0.25,0.0,0.0,0.0,0.25,0.25,0.5,-0.42,0.83,-0.42,35.2,-15.7,-23.8
4.06,0.0,0.0,0.75,0.0,0.0,0.0,0.0,0.0,0.0,0.75,0.5,0.0,0.0,0.2,0.95,-0.3,31.52,11.4,-22.9,0.25,0.0,0.25,0.0,0.0,0.0,0.5,0.0,0.0,0.0,0.25,0.25,0.5,-0.42,0.83,-0.42,32.89,-13.5,-32.8
4.08,0.0,0.0,0.75,0.25,0.0,0.0,0.0,0.0,0.0,0.75,0.5,0.0,0.0,0.14,0.95,-0.3,31.82,12.1,-13.6,0.5,0.0,0.75,0.0,0.0,0.0,0.5,0.0,0.0,0.0,0.25,0.25,0.5,-0.36,0.89,-0.42,33.91,-20.7,-1.1
4.1,0.0,0.0,0.25,0.25,0.0,0.0,0.0,0.0,0.0,0.5,0.5,0.0,0.0,0.14,0.95,-0.3,28.96,7.8,-28.8,0.0,0.0,0.5,0.0,0.0,0.0,0.25,0.0,0.0,0.0,0.25,0.25,0.5,-0.36,0.89,-0.42,31.31,-13.0,-41.1
