time,left pressure 0[N/cm²],left pressure 1[N/cm²],left pressure 2[N/cm²],left pressure 3[N/cm²],left pressure 4[N/cm²],left pressure 5[N/cm²],left pressure 6[N/cm²],left pressure 7[N/cm²],left pressure 8[N/cm²],left pressure 9[N/cm²],left pressure 10[N/cm²],left pressure 11[N/cm²],left pressure 12[N/cm²],left acceleration X[g],left acceleration Y[g],left acceleration Z[g],left total force[N],left center of pressure X[mm],left center of pressure Y[mm],right pressure 0[N/cm²],right pressure 1[N/cm²],right pressure 2[N/cm²],right pressure 3[N/cm²],right pressure 4[N/cm²],right pressure 5[N/cm²],right pressure 6[N/cm²],right pressure 7[N/cm²],right pressure 8[N/cm²],right pressure 9[N/cm²],right pressure 10[N/cm²],right pressure 11[N/cm²],right pressure 12[N/cm²],right acceleration X[g],right acceleration Y[g],right acceleration Z[g],right total force[N],right center of pressure X[mm],right center of pressure Y[mm]
0.02,0.0,0.5,1.5,2.5,0.0,1.0,0.75,6.5,4.0,7.5,7.5,5.25,6.0,-0.17,0.02,0.95,718.2,-0.8,-57.1,0.25,0.0,0.0,0.0,0.0,0.0,0.75,1.0,0.25,0.0,0.25,0.0,0.0,0.14,0.2,1.08,11.51,-4.1,-16.2
0.04,0.0,0.5,1.75,2.5,0.0,1.5,1.0,6.5,4.25,7.0,7.25,4.75,5.75,-0.17,0.02,0.95,747.33,-0.6,-53.7,0.75,0.0,0.0,0.0,0.25,0.0,1.0,1.0,0.25,0.0,0.5,0.0,0.0,0.14,0.33,1.33,19.52,-9.5,3.8
0.06,0.0,0.5,1.75,2.75,0.0,1.75,1.0,6.75,4.25,6.75,7.0,4.75,5.25,-0.17,0.02,0.95,749.26,-0.5,-51.5,1.25,0.25,0.25,0.0,0.25,0.0,0.5,1.25,0.25,0.0,0.5,0.25,0.5,0.14,0.45,1.64,41.52,-8.7,-0.1
0.08,0.0,0.5,1.75,2.75,0.0,2.0,1.0,6.75,4.25,6.75,7.0,4.25,5.25,-0.17,0.02,0.95,726.41,-0.8,-50.3,1.25,0.25,0.25,0.0,1.0,0.0,0.5,1.0,0.25,0.0,0.25,0.25,0.5,0.2,0.7,1.7,58.31,-7.8,13.7
0.1,0.0,0.25,1.75,3.0,0.0,2.25,1.0,6.5,4.0,6.0,6.25,4.0,4.5,-0.17,0.02,0.95,678.17,-0.6,-47.7,1.0,0.25,0.25,0.0,1.25,0.0,0.75,1.0,0.25,0.0,0.5,0.25,0.5,0.33,1.08,2.02,75.76,-6.8,8.9
0.12,0.0,0.5,1.75,3.25,0.0,2.75,1.0,6.5,4.0,6.25,6.0,3.0,4.0,-0.17,0.02,0.95,629.56,-0.9,-42.5,1.25,0.25,0.5,0.0,1.25,0.0,0.5,1.0,0.25,0.0,0.5,0.25,0.5,0.33,1.33,2.14,88.31,-8.7,14.1
0.14,0.0,0.5,1.75,4.0,0.0,2.75,1.0,6.5,3.5,5.75,5.5,3.0,2.75,-0.17,0.02,0.95,565.88,-0.2,-37.2,1.25,0.0,0.5,0.0,1.5,0.0,0.5,1.0,0.25,0.0,0.5,0.25,0.5,0.08,1.95,2.2,100.45,-7.9,12.4
0.16,0.0,0.5,1.75,4.5,0.0,2.75,1.0,6.25,3.5,5.0,5.0,2.25,2.75,-0.17,0.02,0.95,507.4,0.1,-32.8,1.25,0.25,0.5,0.0,1.5,0.0,0.5,1.0,0.25,0.0,0.5,0.25,0.5,-0.3,2.77,1.52,108.1,-8.1,15.9
0.18,0.0,0.5,1.75,4.5,0.0,3.0,0.75,6.0,3.25,5.0,4.0,2.0,2.25,-0.17,0.02,0.95,450.58,-0.2,-29.4,1.0,0.0,0.5,0.0,1.5,0.0,0.5,1.0,0.25,0.0,0.5,0.25,0.5,-0.61,3.7,0.58,107.9,-6.9,9.0
0.2,0.0,0.5,1.75,4.75,3.75,3.0,0.75,6.0,3.0,4.25,3.25,1.75,1.5,-0.17,0.02,0.95,424.06,-0.2,-13.8,1.0,0.0,0.25,0.0,1.25,0.0,0.25,1.0,0.25,0.0,0.5,0.25,0.75,-0.8,4.77,-0.42,104.2,-4.4,-1.6
0.22,0.0,1.25,1.75,5.5,5.0,3.25,0.75,6.0,2.75,3.5,3.25,1.75,1.5,-0.17,0.02,0.95,425.29,0.3,-5.5,1.25,0.0,0.0,0.0,1.0,0.0,0.25,0.5,0.25,0.0,0.5,0.0,0.5,-1.55,4.14,0.7,93.14,-8.0,13.7
0.24,0.0,1.75,2.5,6.5,5.25,3.5,0.75,6.0,2.5,3.5,2.75,1.75,1.5,-0.17,0.02,0.95,454.86,1.3,0.6,0.5,0.25,0.0,0.0,0.0,0.0,0.5,1.0,0.25,1.0,1.0,0.25,0.5,0.08,-0.42,0.58,86.2,-0.7,-41.0
0.26,0.0,1.5,3.25,6.75,5.75,4.0,0.75,5.75,2.25,3.5,2.5,1.25,1.0,-0.17,0.02,0.95,489.34,1.8,6.5,0.75,0.0,0.0,0.0,1.25,0.0,0.25,1.0,0.0,1.25,1.5,1.75,2.25,0.02,0.02,0.45,107.42,1.3,-53.7
0.28,0.25,1.75,3.25,8.0,6.5,4.25,0.75,5.75,1.75,2.25,1.75,0.75,1.0,-0.17,0.08,0.95,521.19,2.5,16.9,1.25,0.0,0.0,0.0,1.25,0.5,1.0,1.0,0.25,5.5,3.25,4.5,5.0,-0.42,0.08,0.77,194.74,2.4,-66.6
0.3,0.75,2.25,3.75,8.0,7.5,4.5,0.75,5.25,1.5,2.5,1.75,0.75,0.5,-0.17,0.08,0.95,555.08,3.4,22.6,1.25,0.0,0.25,0.25,2.25,0.75,0.75,2.75,0.5,8.0,5.75,6.0,6.5,-0.11,0.39,1.89,312.16,2.9,-63.8
0.32,0.75,3.25,4.25,9.0,8.0,5.25,0.5,5.25,1.5,2.25,1.75,0.75,0.25,-0.17,0.08,0.95,604.84,4.0,27.6,0.5,0.0,0.0,0.0,1.75,0.25,0.25,5.25,0.25,8.25,7.75,6.0,8.0,0.27,0.39,1.77,463.0,4.8,-73.0
0.34,2.0,3.25,5.0,9.25,8.25,5.25,0.5,4.75,1.25,1.75,1.5,0.75,0.25,-0.17,0.08,0.95,658.83,5.7,33.1,0.25,0.0,0.0,0.0,3.5,2.0,0.0,6.0,0.75,9.25,8.25,6.0,8.0,0.08,0.08,1.02,627.13,5.8,-63.5
0.36,1.0,4.5,5.25,10.5,8.25,5.25,0.5,4.5,0.75,1.75,1.5,0.75,0.25,-0.23,0.14,1.02,710.53,5.9,35.7,1.5,0.0,0.5,0.0,3.5,2.5,1.0,7.25,1.75,9.5,8.5,6.0,8.0,0.14,0.14,0.95,769.41,4.1,-55.6
0.38,3.5,4.5,6.0,10.5,0.0,5.25,0.0,3.75,0.75,1.75,1.25,0.75,0.25,-0.23,0.14,1.02,693.04,10.9,37.7,1.25,0.25,0.5,1.25,1.0,2.5,0.75,7.75,2.25,9.75,9.0,6.0,8.0,0.2,0.08,0.95,866.92,3.6,-59.1
0.4,5.0,5.0,6.0,10.5,0.0,5.0,0.0,3.0,0.75,1.75,1.5,0.75,0.25,-0.23,0.14,1.14,672.13,12.5,41.4,1.25,0.25,1.75,1.25,3.75,3.75,1.0,8.25,3.0,9.75,9.0,6.0,8.0,0.2,0.08,0.95,963.01,2.9,-47.5
0.42,6.0,5.5,0.0,10.5,0.0,4.25,0.0,3.0,0.75,1.75,1.0,1.0,0.25,-0.3,0.2,1.14,601.83,9.1,41.0,1.25,0.25,1.75,1.25,3.75,4.75,1.0,8.5,3.0,9.5,9.0,6.0,7.75,0.2,0.08,0.95,1030.03,3.2,-45.7
0.44,5.5,5.75,0.0,11.0,0.0,3.25,0.0,2.25,0.75,1.5,0.75,0.5,0.25,-0.3,0.2,1.2,535.71,10.7,47.2,1.5,0.75,2.25,1.25,5.25,4.75,1.25,8.5,3.0,9.0,8.75,5.5,7.5,0.2,0.08,0.95,1073.28,2.4,-38.7
0.46,6.25,5.75,7.0,10.5,0.0,0.0,0.0,1.75,0.75,1.5,0.5,0.75,0.25,-0.36,0.27,1.27,506.41,19.9,52.9,1.5,1.0,2.25,2.25,5.75,5.0,1.25,8.25,3.0,8.5,8.25,4.5,6.5,0.2,0.08,0.95,1063.16,2.0,-32.0
0.48,6.0,5.75,7.0,10.5,0.0,0.0,0.0,1.25,0.75,1.5,0.75,0.75,0.25,-0.42,0.33,1.52,497.39,20.3,53.1,1.75,1.0,2.75,3.5,6.25,5.75,1.25,8.25,3.0,8.0,7.25,4.0,5.5,0.2,0.08,0.95,1031.55,1.3,-23.8
0.5,5.75,5.0,5.5,9.0,0.0,0.0,0.0,1.25,0.75,1.75,0.75,0.0,0.25,-0.55,0.39,1.58,469.92,19.6,53.8,1.75,1.25,3.25,3.75,6.25,5.75,1.25,7.5,2.5,7.0,6.5,3.0,4.25,0.27,0.08,0.95,956.47,0.5,-16.4
0.52,3.5,3.25,5.0,6.5,0.0,0.0,0.0,0.0,0.5,0.25,0.75,0.0,0.25,-0.61,0.52,1.83,386.45,23.5,61.0,2.75,1.5,3.75,4.0,6.5,6.0,1.0,7.5,2.25,6.25,5.0,2.25,3.25,0.2,0.14,0.95,881.25,-0.3,-6.4
0.54,0.0,0.5,3.25,3.75,0.0,0.0,0.0,0.0,0.75,0.25,1.0,0.0,0.0,-0.8,1.39,2.64,273.84,22.3,37.1,2.25,2.0,4.75,5.75,6.5,6.0,1.0,7.0,1.75,5.5,3.75,1.75,1.5,0.2,0.14,0.95,815.4,-2.0,5.5
0.56,0.0,0.0,0.75,1.75,0.0,0.0,0.0,0.0,0.5,0.0,0.0,0.0,0.0,-0.55,1.39,2.45,147.49,21.6,43.3,2.5,2.0,5.0,6.0,7.75,6.0,1.25,6.75,1.5,4.25,2.75,1.25,1.5,0.2,0.14,0.95,772.84,-2.6,13.3
0.58,0.0,0.0,0.0,0.0,0.0,0.0,0.0,0.0,0.25,1.0,0.0,0.0,0.0,-0.55,0.02,1.89,25.07,-10.1,-68.2,2.75,1.5,6.0,6.25,7.75,6.25,1.0,6.0,1.5,4.0,2.5,1.0,1.5,0.2,0.14,0.89,740.78,-3.6,16.4
0.6,0.0,0.0,0.0,0.5,0.0,0.0,0.5,1.25,0.5,0.0,0.25,0.0,0.0,-0.3,-1.23,1.77,0.0,1.6,-17.7,3.75,2.5,6.5,7.75,8.0,6.5,1.0,6.0,1.0,3.0,1.75,0.75,1.25,0.2,0.14,0.95,741.34,-5.2,26.6
0.62,0.0,0.0,0.0,0.5,0.0,0.0,0.25,1.0,0.0,0.0,0.5,0.0,0.25,-0.55,-1.05,1.77,0.0,-0.9,-29.3,3.75,2.75,6.75,8.25,9.0,6.75,1.0,6.0,1.0,2.75,1.5,0.75,1.25,0.2,0.14,0.95,764.41,-5.3,29.0
0.64,0.0,0.0,0.0,0.5,0.0,0.0,0.0,0.0,0.0,0.0,0.0,0.0,0.0,-0.42,-0.73,1.39,0.0,17.2,57.9,4.5,3.5,7.5,9.5,9.0,6.75,1.0,5.25,1.0,2.0,1.5,0.75,1.25,0.2,0.14,0.95,805.91,-7.1,34.4
0.66,0.0,0.0,0.0,0.5,0.0,0.0,0.0,0.0,0.0,0.25,0.0,0.0,0.0,-0.48,-0.42,0.45,0.0,6.5,14.7,5.0,2.75,7.5,9.5,9.0,6.75,1.0,5.25,1.0,1.25,1.5,0.75,0.75,0.2,0.14,0.95,836.3,-7.8,37.0
0.68,0.0,0.0,0.0,0.5,0.0,0.0,0.0,0.0,0.0,0.0,0.0,0.0,0.0,-0.48,-0.3,0.2,0.0,17.2,57.9,5.25,3.0,8.5,9.5,10.5,6.25,1.0,4.75,0.5,1.25,1.5,0.5,0.75,0.2,0.14,0.95,871.53,-8.6,40.6
0.7,0.0,0.0,0.0,0.5,0.0,0.0,0.0,0.0,0.0,0.25,0.0,0.0,0.0,-0.42,-0.23,0.27,0.0,6.5,14.7,5.0,3.25,8.5,10.5,10.5,6.25,1.0,4.0,0.25,1.25,1.5,0.25,0.75,0.14,0.2,0.95,894.09,-9.0,43.1
0.72,0.0,0.0,0.0,0.75,0.0,0.0,0.0,1.25,0.5,1.75,0.5,0.5,0.25,-0.42,-0.3,0.52,0.0,-4.1,-49.5,6.25,4.5,9.0,11.5,11.0,7.0,0.75,4.0,0.5,0.0,0.5,0.25,0.5,0.14,0.2,1.02,939.53,-10.1,50.9
0.74,0.0,0.0,0.0,0.5,0.0,0.0,0.0,0.5,0.25,1.5,0.0,0.75,0.0,-0.42,-0.3,0.77,0.0,-3.7,-55.1,6.5,4.5,8.5,12.5,11.0,6.75,1.0,2.75,0.5,1.0,0.5,0.25,0.5,0.14,0.2,1.08,980.0,-10.4,50.9
0.76,0.0,0.0,0.0,0.5,0.0,0.0,0.0,0.0,0.0,0.5,0.0,0.0,0.0,-0.42,-0.11,0.83,20.9,1.1,-7.2,7.0,5.75,9.25,12.5,11.5,6.5,0.0,2.5,0.25,0.0,0.5,0.25,0.5,0.08,0.2,1.08,1023.6,-11.4,55.7
0.78,0.0,0.0,0.0,0.5,0.0,0.0,0.0,0.0,0.0,0.25,0.0,0.0,0.0,-0.42,0.02,0.95,26.25,6.5,14.7,6.75,5.75,8.5,11.0,11.0,6.0,0.25,2.5,0.25,0.0,0.5,0.0,0.5,0.08,0.27,1.08,1017.97,-11.3,56.2
0.8,0.0,0.0,0.0,0.5,0.0,0.0,0.0,0.0,0.0,0.25,0.0,0.0,0.0,-0.42,0.14,1.08,21.82,6.5,14.7,6.5,5.25,8.5,9.75,10.5,4.75,0.25,1.0,0.0,0.0,0.0,0.0,0.0,0.14,0.33,1.08,953.21,-13.1,62.7
0.82,0.0,0.0,0.0,0.0,0.0,0.0,0.0,0.0,0.0,0.0,0.0,0.0,0.0,-0.48,0.27,1.33,9.45,0.0,0.0,6.5,5.25,8.5,9.5,10.5,3.0,0.0,1.0,0.0,0.0,0.0,0.0,0.0,0.14,0.33,1.14,867.96,-14.4,63.8
0.84,0.0,0.0,0.0,0.5,0.0,0.0,0.0,0.0,0.25,0.25,0.0,0.0,0.0,-0.55,0.45,1.7,7.46,7.9,1.8,7.5,4.5,8.5,9.5,10.0,2.75,0.0,0.25,0.0,0.0,0.0,0.0,0.0,0.2,0.33,1.33,787.42,-15.8,65.9
0.86,0.0,0.0,0.0,0.5,0.0,0.0,0.0,0.25,0.5,0.25,0.0,0.0,0.0,-0.67,0.64,2.14,13.0,4.5,-11.3,5.75,5.0,7.5,8.25,9.0,2.5,0.0,0.0,0.0,0.0,0.0,0.0,0.0,0.33,0.45,1.39,699.06,-15.3,66.6
0.88,0.0,0.0,0.0,0.5,0.0,0.0,0.0,0.5,0.5,0.25,0.0,0.0,0.0,-0.86,1.27,2.64,19.73,1.5,-15.2,5.75,3.75,7.5,7.75,8.75,2.75,0.5,0.75,0.0,0.0,0.0,0.0,0.0,0.27,0.45,1.64,630.71,-14.8,63.3
0.9,0.0,0.0,0.0,0.25,0.0,0.0,0.0,0.5,0.5,0.25,0.0,0.0,0.0,-0.86,2.02,2.7,21.25,-1.1,-28.0,2.5,1.25,3.75,3.75,6.5,2.0,0.0,0.0,0.25,0.0,0.0,0.25,0.0,0.2,0.77,2.14,468.91,-11.7,58.5
0.92,0.0,0.0,0.0,0.5,0.0,0.0,0.25,0.75,0.5,1.75,0.25,0.5,0.0,-0.8,3.33,2.14,38.66,-3.2,-50.1,1.25,0.25,2.25,1.25,3.75,0.0,0.0,0.0,0.0,0.0,0.0,0.0,0.0,0.27,1.58,2.33,294.44,-15.0,62.7
0.94,0.0,0.0,0.0,0.25,0.0,0.0,0.0,0.5,0.25,0.25,0.0,0.0,0.0,-0.67,4.39,0.02,34.51,-3.8,-25.9,0.0,0.5,0.75,1.25,3.25,1.25,0.0,0.0,0.25,0.0,0.0,0.0,0.0,-0.05,0.7,2.27,160.8,-2.8,52.1
0.96,0.0,0.0,0.0,0.0,0.0,0.0,0.25,0.75,0.5,1.25,0.75,0.0,0.0,0.33,5.08,-0.48,42.94,-4.3,-58.1,0.0,0.0,0.0,0.0,0.25,0.0,0.0,0.0,0.0,0.0,0.0,0.0,0.0,0.14,-0.11,1.7,6.95,3.3,53.4
0.98,0.0,0.0,0.0,0.5,0.0,0.0,0.0,1.25,0.75,1.75,0.75,0.0,0.25,2.77,5.89,0.2,60.21,-4.9,-49.9,0.0,0.0,0.0,0.0,0.0,0.0,0.0,0.0,0.0,0.0,0.0,0.0,0.0,0.45,-0.36,1.45,0.0,0.0,0.0
1.0,0.0,0.0,0.75,0.0,0.0,0.0,0.0,0.5,0.0,1.5,0.0,0.0,0.0,-0.48,-0.3,2.2,64.24,-0.8,-30.8,0.25,0.0,0.0,0.0,0.0,0.0,0.0,0.0,0.0,0.0,0.0,0.0,0.0,0.39,-0.92,1.08,0.0,-34.9,97.9
1.02,0.0,0.0,0.0,0.0,0.0,0.0,0.0,0.5,0.0,0.75,0.5,0.75,0.25,0.45,-0.3,0.08,62.97,-4.3,-81.4,0.0,0.0,0.0,0.0,0.0,0.0,0.0,0.0,0.0,0.0,0.0,0.0,0.0,0.27,-0.67,0.64,0.0,0.0,0.0
1.04,0.0,0.0,0.0,0.0,0.0,0.0,0.25,1.75,0.75,4.0,2.5,0.0,2.75,0.14,0.27,1.83,110.11,-7.7,-74.9,0.0,0.0,0.0,0.0,0.0,0.0,0.0,0.0,0.25,0.0,0.0,0.0,0.0,0.14,-0.55,0.52,0.0,-12.1,-38.5
1.06,0.0,0.0,0.0,0.0,0.0,0.0,0.0,2.5,0.5,4.5,4.0,0.0,0.0,-0.48,0.77,2.7,148.18,-5.7,-65.8,1.25,0.25,0.5,1.0,3.5,0.25,0.0,1.0,0.25,0.0,0.5,0.25,0.5,0.08,-0.42,0.58,0.0,-5.0,29.4
1.08,0.0,0.0,0.0,1.0,0.0,0.0,0.25,4.5,1.75,6.0,4.25,4.0,2.75,-0.17,0.08,1.02,239.15,-3.5,-69.4,1.25,0.0,0.5,0.75,3.25,0.0,0.25,1.0,0.25,0.0,0.5,0.25,0.5,0.14,-0.36,0.77,0.0,-5.8,25.6
1.1,0.0,0.25,0.0,1.25,0.0,1.0,0.5,5.25,2.75,6.5,6.25,4.0,4.25,-0.17,0.08,0.95,334.02,-3.3,-64.3,1.0,0.0,0.5,0.5,3.25,0.25,0.0,1.0,0.25,0.0,0.5,0.25,0.5,0.27,-0.23,0.7,47.41,-3.5,22.8
1.12,0.0,0.0,0.0,1.5,0.0,1.25,0.75,6.0,3.5,6.75,6.75,4.25,5.25,-0.17,0.02,0.95,456.36,-3.3,-64.4,1.0,0.0,0.5,0.25,2.5,0.0,0.0,1.0,0.25,0.0,0.5,0.25,0.5,0.27,-0.05,0.64,82.83,-4.7,17.4
1.14,2.0,0.0,1.5,2.0,0.0,1.5,1.25,6.25,4.0,7.0,7.25,4.75,5.25,-0.17,0.02,0.95,579.11,0.5,-50.2,0.75,0.0,0.0,0.5,2.75,0.0,0.25,1.0,0.25,0.0,0.5,0.25,0.5,0.08,0.02,0.83,113.22,-1.9,14.7
1.16,2.75,0.5,2.75,2.75,0.0,1.75,1.25,6.5,4.75,6.75,7.5,4.75,5.0,-0.11,0.02,0.95,687.51,2.7,-40.3,1.25,0.0,0.5,0.0,2.5,0.0,0.25,1.0,0.25,0.0,0.25,0.25,0.75,-0.05,0.08,1.33,122.56,-4.9,17.3
1.18,5.5,0.5,4.25,4.0,0.0,1.75,1.5,6.5,5.0,6.0,7.0,4.0,4.0,-0.11,0.02,0.95,767.49,6.5,-23.6,1.25,0.0,0.5,0.25,1.75,0.0,0.25,0.5,0.25,0.0,0.75,0.25,0.5,0.02,0.27,1.52,122.49,-9.4,16.5
1.2,6.0,0.5,5.25,4.75,0.0,1.75,1.75,6.25,5.0,6.0,6.5,3.0,2.75,-0.11,0.02,0.95,808.93,8.3,-14.5,1.0,0.25,0.5,0.0,2.25,0.0,0.25,1.0,0.25,0.0,0.5,0.25,0.5,0.08,0.39,1.89,127.5,-5.4,17.6
1.22,6.75,0.5,5.5,5.5,0.25,2.0,1.75,6.0,4.25,4.75,5.75,2.5,2.5,-0.11,0.02,0.95,823.47,9.5,-5.9,1.0,0.0,0.5,0.0,2.5,0.0,0.25,1.0,0.25,0.0,0.25,0.25,0.5,0.14,0.77,2.2,123.23,-4.5,19.4
1.24,7.0,1.25,6.25,6.5,2.0,1.75,1.75,5.25,4.0,3.75,5.0,2.0,1.5,-0.11,0.02,0.95,827.65,11.4,7.7,1.0,0.25,0.75,0.0,2.25,0.0,0.25,0.75,0.25,0.0,0.25,0.25,0.5,0.14,1.2,2.64,119.35,-7.3,24.8
1.26,7.5,1.5,7.0,6.5,2.0,1.75,1.75,5.25,3.5,3.5,4.0,1.75,1.5,-0.11,0.02,0.95,813.65,12.2,13.2,1.0,0.0,0.5,0.0,2.25,0.0,0.25,1.0,0.0,0.0,0.25,0.25,0.5,0.45,3.27,1.52,111.1,-4.6,20.1
1.28,7.5,1.75,7.0,6.5,1.5,1.75,1.75,4.5,3.25,3.5,3.25,1.75,0.5,-0.11,0.08,0.95,773.47,13.6,18.8,1.0,0.0,0.5,0.0,2.25,0.0,0.25,1.0,0.0,0.0,0.5,0.25,0.5,0.58,3.95,-0.36,103.67,-4.8,16.5
1.3,7.75,1.75,7.5,7.75,0.75,1.75,1.5,4.5,2.75,2.75,2.5,0.75,0.25,-0.11,0.08,0.95,726.33,15.3,28.2,1.0,0.25,0.25,0.0,2.25,0.0,0.25,1.0,0.25,0.0,0.75,0.25,0.0,-0.92,4.27,0.58,95.17,-5.8,22.6
1.32,8.0,1.75,7.75,8.0,0.75,1.75,1.5,4.0,2.25,2.0,2.5,0.75,0.25,-0.11,0.08,0.95,668.89,16.6,32.5,1.0,0.25,0.5,0.0,1.5,0.0,0.5,0.75,0.0,0.0,1.0,0.25,0.75,-2.42,5.45,2.14,96.3,-7.3,5.2
1.34,8.0,1.75,7.75,8.0,0.25,1.75,1.5,3.25,1.75,2.0,2.25,0.75,0.25,-0.11,0.08,0.95,618.09,17.6,35.2,1.0,0.0,0.25,0.0,1.75,0.0,0.25,1.0,0.25,1.25,1.25,0.75,0.75,0.27,0.14,1.2,106.28,-1.8,-21.2
1.36,8.25,1.75,8.0,8.0,1.5,1.75,1.25,3.0,1.75,1.5,1.75,0.75,0.25,-0.11,0.08,0.95,588.53,17.8,39.7,0.5,0.0,0.5,0.0,0.5,0.0,0.25,1.0,0.25,3.0,1.5,1.75,2.25,0.52,-0.23,-0.05,134.15,2.0,-62.8
1.38,8.25,2.0,8.25,9.0,3.25,1.75,1.25,3.0,1.75,2.0,1.5,0.75,0.25,-0.11,0.08,0.95,595.96,16.5,40.6,0.5,0.25,0.0,0.0,1.75,0.25,0.25,1.0,0.5,6.25,3.0,3.75,4.5,-0.3,0.14,1.02,209.2,4.3,-66.7
1.4,8.5,2.5,8.25,9.0,3.25,1.75,1.25,3.0,1.5,1.75,1.5,0.75,0.25,-0.11,0.08,0.95,616.54,16.8,42.7,0.0,0.0,0.25,0.0,2.25,1.25,0.75,4.0,1.0,7.0,5.75,4.5,5.75,-0.3,0.89,3.64,307.84,4.9,-64.2
1.42,9.0,3.25,8.5,9.25,0.0,1.5,1.0,2.5,1.5,1.75,1.5,0.75,0.25,-0.17,0.14,0.95,621.09,19.5,44.8,1.25,0.0,0.0,0.0,0.5,2.0,0.25,5.25,1.0,8.5,7.25,5.5,6.0,0.2,0.33,1.2,439.26,4.5,-66.7
1.44,9.0,3.25,8.5,10.5,0.0,1.5,0.75,2.25,1.5,1.75,1.5,0.75,0.25,-0.17,0.14,0.95,625.98,19.6,45.7,1.25,0.25,1.75,1.25,3.5,2.5,1.0,6.0,1.75,8.75,8.25,5.5,6.25,0.08,0.08,0.95,608.23,1.8,-46.7
1.46,9.0,3.25,8.75,10.5,0.0,1.0,0.75,1.75,1.25,1.75,1.5,0.75,0.25,-0.17,0.14,0.95,619.1,20.8,47.5,2.0,0.5,2.25,1.25,3.5,2.75,1.0,7.0,2.5,9.0,8.75,5.5,6.5,0.14,0.14,0.95,761.88,1.0,-43.1
1.48,9.0,3.75,8.75,10.5,0.0,1.0,0.5,1.5,1.0,0.5,1.25,0.0,0.25,-0.17,0.14,1.02,601.99,22.4,57.4,1.75,0.25,2.25,1.25,3.75,3.25,1.25,7.5,3.0,9.25,9.0,6.0,6.75,0.2,0.14,0.95,890.18,1.3,-44.1
1.5,8.75,4.25,0.0,10.5,0.0,1.5,0.0,1.25,0.75,1.75,0.0,0.75,0.0,-0.17,0.2,1.02,532.96,15.7,55.2,2.0,0.5,4.0,1.25,3.75,3.75,1.75,7.5,3.5,9.25,9.0,5.75,6.5,0.2,0.08,0.95,983.43,-0.1,-38.1
1.52,8.5,3.25,7.5,9.0,0.0,0.5,0.0,1.25,0.5,0.25,1.0,0.75,0.0,-0.17,0.2,1.08,497.58,23.4,58.2,2.5,1.0,4.75,1.25,4.25,3.75,1.75,7.75,3.5,8.75,9.0,5.5,6.5,0.2,0.14,0.95,1046.42,-1.0,-33.1
1.54,9.25,4.5,8.25,10.5,0.0,1.0,0.0,1.25,0.75,1.75,1.0,1.0,0.25,-0.23,0.2,1.14,509.0,20.9,52.2,2.5,1.0,5.5,2.0,4.75,3.75,2.0,7.5,3.5,8.5,8.75,5.5,6.0,0.2,0.14,0.95,1075.1,-1.9,-28.7
1.56,9.0,4.5,8.25,10.5,0.0,1.25,0.0,1.25,0.75,1.75,1.0,0.75,0.25,-0.3,0.27,1.27,539.87,20.6,52.8,2.75,0.75,6.5,2.75,5.25,3.75,2.25,7.5,3.5,8.0,8.25,4.5,5.5,0.2,0.08,0.95,1078.9,-2.9,-22.5
1.58,8.5,4.5,8.25,9.25,0.0,0.0,0.0,1.25,0.75,1.75,0.75,0.0,0.25,-0.42,0.27,1.45,548.6,22.3,57.0,3.75,1.0,7.5,3.25,5.25,3.5,2.25,7.0,3.0,7.5,7.75,4.25,4.5,0.2,0.14,0.95,1062.81,-4.7,-15.2
1.6,8.0,3.25,7.0,8.5,0.0,0.0,0.0,1.25,0.75,0.25,0.25,0.0,0.0,-0.48,0.33,1.52,507.45,24.4,64.7,4.0,1.0,7.5,3.5,4.5,2.75,2.25,6.75,3.0,7.25,7.25,3.75,3.25,0.14,0.14,0.95,1006.9,-5.9,-12.1
1.62,5.75,1.75,6.0,5.75,0.0,0.0,0.0,0.0,0.25,0.0,0.0,0.0,0.0,-0.42,0.33,1.89,400.04,28.2,72.3,4.0,1.0,8.5,3.5,4.75,2.75,2.25,6.0,3.0,6.75,7.25,3.25,3.25,0.14,0.14,0.89,946.2,-6.9,-8.6
1.64,2.25,0.5,4.25,4.0,0.0,0.0,0.0,0.0,0.75,0.0,0.0,0.0,0.0,-0.48,0.89,2.45,287.61,27.5,61.8,4.25,1.0,8.75,3.75,4.5,2.75,2.25,6.0,2.75,6.5,6.5,3.0,3.0,0.14,0.14,0.95,888.12,-7.4,-5.6
1.66,0.5,0.0,2.0,1.25,0.0,0.0,0.0,0.0,0.0,0.0,0.0,0.0,0.0,-0.48,0.89,2.7,171.75,30.6,64.4,4.5,1.0,9.25,4.0,5.0,2.5,2.25,6.0,2.75,6.25,6.0,3.0,2.5,0.14,0.14,0.95,852.88,-8.1,-1.8
1.68,0.0,0.0,1.5,0.0,0.0,0.0,0.0,0.0,0.0,0.0,0.0,0.0,0.0,-0.17,0.14,1.58,55.17,38.2,60.9,5.0,1.0,9.25,4.0,4.25,2.5,2.25,6.0,2.5,6.25,6.0,3.0,2.5,0.14,0.14,0.95,821.91,-8.5,-1.7
1.7,0.0,0.0,0.0,0.5,0.0,0.0,0.25,0.0,0.0,0.0,0.5,0.0,0.25,-0.55,-2.23,2.14,0.0,10.5,-22.5,5.0,1.0,9.25,4.0,4.5,2.5,2.25,6.0,2.75,6.25,5.75,3.0,2.25,0.14,0.14,0.95,808.59,-8.6,-0.7
1.72,0.0,0.0,0.0,0.5,0.0,0.0,0.0,0.0,0.0,0.0,0.0,0.0,0.0,-0.42,-1.3,1.14,0.0,17.2,57.9,5.0,1.0,10.0,4.25,4.75,2.75,2.5,6.0,2.75,6.25,5.75,3.0,2.5,0.14,0.14,0.89,813.17,-8.8,0.3
1.74,0.0,0.0,0.0,0.5,0.0,0.0,0.0,0.25,0.0,0.0,0.0,0.0,0.0,-0.05,-0.73,0.58,0.0,6.2,26.6,5.5,1.0,10.0,5.0,5.25,3.25,2.75,6.0,3.0,6.25,5.75,3.0,2.5,0.14,0.14,0.95,842.06,-8.8,2.6
1.76,0.0,0.0,0.0,0.25,0.0,0.0,0.0,0.0,0.0,0.0,0.0,0.0,0.0,-0.23,-0.48,0.2,0.0,17.2,57.9,5.75,1.25,10.0,5.0,5.25,3.75,3.0,6.0,3.0,6.75,6.0,3.0,2.5,0.14,0.14,0.95,885.39,-8.5,2.7
1.78,0.0,0.0,0.0,0.0,0.0,0.0,0.0,0.25,0.0,0.0,0.75,0.0,0.25,-0.42,-0.42,0.2,0.0,0.0,-75.2,5.75,1.25,10.0,5.5,5.5,4.75,3.0,6.5,3.0,6.25,6.25,2.75,2.5,0.14,0.14,0.95,937.37,-8.1,4.3
1.8,0.0,0.0,0.0,0.0,0.0,0.0,0.0,0.0,0.0,0.0,0.0,0.0,0.0,-0.42,-0.48,0.52,0.0,0.0,0.0,5.75,2.0,10.0,6.0,6.25,4.75,3.0,6.75,3.0,6.25,5.75,2.25,2.5,0.14,0.14,0.95,990.78,-7.9,7.9
1.82,0.0,0.0,0.0,0.0,0.0,0.0,0.0,0.0,0.0,0.0,0.0,0.0,0.0,-0.3,-0.42,0.77,0.0,0.0,0.0,6.0,2.0,10.0,6.0,6.25,5.0,3.0,6.75,2.5,5.75,5.25,1.75,1.75,0.2,0.14,0.95,1016.63,-8.3,12.5
1.84,0.0,0.0,0.0,0.0,0.0,0.0,0.0,0.0,0.0,0.5,0.0,0.0,0.0,-0.3,-0.17,0.77,0.0,-15.7,-75.5,6.25,2.0,10.0,7.5,6.25,5.75,3.0,6.5,2.25,5.0,4.25,1.75,1.25,0.2,0.14,0.95,1032.71,-8.8,18.2
1.86,0.0,0.0,0.0,0.25,0.0,0.0,0.0,0.0,0.0,0.0,0.0,0.0,0.0,-0.36,0.02,0.77,0.0,17.2,57.9,6.25,2.0,10.0,7.75,7.25,6.0,2.5,6.0,1.75,4.25,3.25,1.0,1.0,0.2,0.14,0.89,1020.61,-8.9,25.0
1.88,0.0,0.0,0.0,0.5,0.0,0.0,0.0,0.0,0.0,0.0,0.0,0.0,0.0,-0.36,0.14,1.08,0.0,17.2,57.9,6.25,2.5,9.25,7.75,7.75,6.25,2.25,6.0,1.25,3.0,2.5,0.75,0.5,0.2,0.14,0.95,991.19,-9.0,31.4
1.9,0.0,0.0,0.0,0.5,0.0,0.0,0.0,0.0,0.0,0.0,0.0,0.0,0.0,-0.42,0.33,1.2,2.11,17.2,57.9,6.25,3.0,9.25,8.0,8.75,6.75,1.25,5.25,1.0,1.5,1.5,0.5,0.0,0.14,0.14,1.02,948.82,-9.5,41.0
1.92,0.0,0.0,0.0,0.5,0.0,0.0,0.0,0.0,0.0,0.0,0.0,0.0,0.0,-0.61,0.58,1.58,6.87,17.2,57.9,5.75,3.25,8.5,8.25,9.0,6.75,1.0,4.0,0.5,1.25,1.5,0.25,0.0,0.2,0.2,1.02,896.45,-9.5,44.7
1.94,0.0,0.0,0.0,0.25,0.0,0.0,0.0,0.0,0.0,0.0,0.0,0.0,0.0,-0.8,0.58,2.33,6.36,17.2,57.9,5.75,3.5,8.5,6.5,9.25,6.0,1.0,4.0,0.25,0.0,1.5,0.25,0.5,0.14,0.2,1.14,832.12,-10.0,46.6
1.96,0.0,0.0,0.0,0.0,0.0,0.0,0.0,0.0,0.0,0.0,0.0,0.0,0.0,-1.11,1.02,2.77,4.37,0.0,0.0,5.25,3.5,7.5,7.75,9.75,6.0,0.25,2.75,0.25,0.75,1.25,0.25,0.5,0.08,0.2,1.27,775.65,-9.3,47.3
1.98,0.0,0.0,0.0,0.0,0.0,0.0,0.0,0.0,0.0,0.0,0.0,0.0,0.0,-1.36,2.02,2.39,1.61,0.0,0.0,3.75,3.5,6.5,6.75,9.25,5.75,0.75,2.5,0.25,0.75,1.25,0.25,0.5,0.2,0.27,1.58,705.36,-8.2,45.4
2.0,0.0,0.0,0.0,0.0,0.0,0.0,0.0,0.0,0.0,0.0,0.0,0.0,0.0,-0.98,2.95,1.45,0.0,0.0,0.0,2.25,2.0,4.0,4.0,8.0,2.25,0.0,1.0,0.0,0.0,0.0,0.0,0.0,0.08,0.27,1.77,539.63,-9.3,57.6
2.02,0.0,0.0,0.0,0.0,0.0,0.0,0.0,0.0,0.0,0.0,0.0,0.0,0.0,0.2,3.14,0.95,0.0,0.0,0.0,1.25,0.75,2.0,1.25,7.25,2.25,0.0,0.0,0.0,0.0,0.0,0.0,0.0,-0.11,0.27,2.2,361.44,-4.7,57.7
2.04,0.0,0.0,0.0,0.25,0.0,0.0,0.0,0.0,0.0,0.0,0.0,0.0,0.0,1.39,4.02,0.58,0.96,17.2,57.9,1.0,0.25,0.75,0.25,5.25,0.25,0.0,0.0,0.0,0.0,0.0,0.0,0.0,-0.11,0.58,2.33,216.67,-5.2,60.0
2.06,0.0,0.0,0.0,0.5,0.0,0.0,0.0,2.25,0.0,0.25,1.25,0.0,0.25,1.95,4.2,0.52,25.74,-5.1,-43.5,0.0,0.0,0.0,0.0,3.5,0.0,0.0,0.0,0.0,0.0,0.0,0.0,0.0,-0.48,0.2,1.64,79.44,3.2,53.4
2.08,0.0,0.0,0.0,0.0,0.0,0.0,0.25,1.25,0.0,0.5,0.0,0.0,0.0,0.33,-0.48,2.08,33.72,-13.3,-44.3,1.25,0.25,0.0,1.25,1.75,1.25,0.0,0.0,0.0,0.0,0.0,0.25,0.0,-0.92,-3.36,3.7,0.0,-5.6,54.4
2.1,0.0,0.0,0.0,0.5,0.0,0.0,0.25,1.25,0.0,1.75,0.0,0.75,0.0,0.89,0.08,0.58,55.13,-6.5,-52.1,1.5,0.5,0.5,0.75,3.5,1.25,0.5,1.0,0.0,0.25,0.5,0.25,0.5,-0.73,-0.73,0.27,0.0,-3.1,31.3
2.12,0.0,0.0,0.0,0.5,0.0,0.0,0.0,0.5,0.0,1.0,0.0,0.0,0.25,0.2,0.02,1.33,54.14,-8.1,-40.7,1.25,0.25,1.5,0.0,3.5,0.0,0.75,1.0,0.0,0.0,0.75,0.0,0.5,-1.86,-0.73,1.45,0.0,-8.8,32.2
2.14,0.0,0.0,0.0,0.25,0.0,0.0,0.0,0.25,0.0,1.75,0.5,0.0,0.0,-0.17,0.08,1.08,57.44,-7.9,-59.4,0.25,0.0,0.0,0.0,1.75,0.0,0.75,1.0,0.0,0.0,0.25,0.0,0.0,-2.11,-0.23,1.45,0.0,0.2,21.7
2.16,0.0,0.0,0.0,0.0,0.0,0.0,0.0,0.75,0.25,2.75,1.5,1.75,1.0,-0.61,0.14,1.2,85.08,-4.4,-82.8,0.0,0.0,0.0,0.0,1.0,0.0,0.75,1.0,0.0,0.0,0.5,0.0,0.0,-1.11,0.39,0.95,0.0,1.2,-1.1
2.18,0.0,0.0,0.0,0.0,0.0,0.0,0.0,1.25,0.25,3.5,1.75,1.25,1.75,-0.55,0.33,1.52,123.64,-7.0,-80.6,0.0,0.0,0.0,0.0,0.0,0.0,0.0,0.75,0.0,0.0,0.0,0.25,0.0,0.77,0.89,-4.98,0.0,10.4,-56.4
2.2,0.0,0.0,0.0,0.0,0.0,0.0,0.0,3.25,1.0,5.75,4.0,2.75,3.25,-0.17,0.2,1.02,205.44,-5.6,-78.1,0.0,0.0,1.75,0.0,1.25,0.0,0.0,0.0,0.0,0.0,0.0,0.0,0.5,7.14,5.02,-1.05,0.0,-15.1,34.7
2.22,0.0,0.0,0.0,0.5,0.0,0.0,0.5,4.5,1.75,6.0,5.5,4.0,4.0,-0.17,0.08,1.02,288.21,-3.6,-73.7,1.0,0.0,0.0,0.25,0.0,0.75,0.0,0.5,0.25,0.0,0.25,0.25,0.0,-2.17,0.14,0.52,0.0,-6.5,17.9
2.24,0.0,0.0,0.0,1.25,0.0,0.0,0.5,5.0,2.75,6.75,6.5,4.75,5.25,-0.17,0.08,0.95,394.17,-2.7,-71.3,0.5,0.0,0.0,1.0,0.0,1.25,0.25,1.0,0.0,0.0,0.25,0.0,0.5,-1.05,5.02,-0.36,17.82,2.1,7.9
2.26,0.0,0.0,0.0,1.25,0.0,1.0,0.75,5.25,3.25,6.75,7.25,5.25,5.5,-0.17,0.08,1.02,504.31,-2.7,-68.4,1.25,0.0,0.0,0.0,3.5,2.25,0.0,0.5,0.0,0.0,0.0,0.0,0.0,-3.17,2.08,-0.61,62.96,3.7,48.9
2.28,0.0,0.0,0.25,2.5,0.0,1.0,0.75,5.25,3.5,6.75,7.25,4.75,5.25,-0.17,0.02,1.02,586.96,-1.7,-61.9,1.0,0.0,0.0,1.0,6.0,2.75,0.5,1.0,0.0,0.0,0.25,0.0,0.5,2.33,-0.36,0.77,126.39,3.3,37.3
2.3,0.0,0.0,1.75,2.5,0.0,1.0,0.75,5.25,3.5,6.0,7.0,4.75,5.25,-0.17,0.02,0.95,630.08,0.1,-56.5,0.0,0.0,0.0,0.0,5.5,2.75,0.0,0.25,0.0,0.0,0.0,0.0,0.0,0.33,0.89,0.77,151.25,9.1,45.5
2.32,4.25,0.0,3.0,2.75,0.0,0.0,1.0,5.0,3.5,5.75,6.5,4.0,4.0,-0.17,0.02,0.95,646.24,6.0,-35.1,0.0,0.0,0.0,0.0,6.25,4.5,0.0,1.0,0.0,0.0,0.0,0.0,0.0,0.02,0.64,1.02,178.41,11.0,39.5
2.34,5.25,0.5,3.5,3.5,0.0,0.0,1.25,4.5,3.5,5.0,6.25,4.0,3.0,-0.17,0.08,0.95,641.7,8.7,-23.8,0.0,0.0,0.0,0.0,6.25,5.0,0.0,1.75,0.0,0.0,0.0,0.0,0.0,0.52,0.45,0.77,196.8,11.7,35.0
2.36,6.75,0.5,5.25,4.5,0.0,0.25,1.25,4.5,3.75,5.0,6.0,3.0,2.75,-0.11,0.02,0.95,655.54,11.0,-11.2,1.25,0.25,0.0,0.0,6.5,6.0,0.75,2.75,0.25,1.0,0.25,0.25,0.5,0.52,0.58,0.95,242.08,8.0,22.6
2.38,7.0,0.5,6.0,4.5,0.0,0.0,1.25,4.0,3.5,3.5,5.75,3.0,2.25,-0.11,0.02,0.95,648.78,13.5,-4.9,1.25,0.5,0.0,0.0,7.75,7.0,0.0,3.25,0.25,0.75,0.25,0.25,0.5,0.7,0.52,0.95,284.66,8.8,25.6
2.4,7.0,0.5,6.5,4.75,0.0,0.0,1.25,3.0,3.25,2.75,5.0,2.0,1.5,-0.11,0.08,1.02,617.06,16.1,5.5,1.25,0.25,0.0,0.0,7.5,7.0,0.0,3.5,0.25,0.75,0.25,0.25,0.5,0.7,0.58,0.77,320.44,9.2,23.6
2.42,7.75,0.5,7.0,5.5,0.0,0.0,1.25,1.75,2.75,1.75,3.5,1.5,0.25,-0.17,0.08,1.08,560.84,20.7,24.3,1.5,0.25,0.0,0.25,7.0,6.75,0.25,3.75,0.25,1.25,0.25,0.25,0.5,0.77,0.64,0.58,343.59,8.5,21.1
2.44,7.75,0.5,7.75,6.5,0.0,0.25,1.25,1.25,1.75,1.75,2.5,0.75,0.25,-0.23,0.08,1.2,502.32,22.1,35.6,1.5,0.25,0.0,0.0,6.25,6.0,0.0,2.5,0.25,0.0,0.25,0.25,0.25,0.64,0.64,0.58,329.04,7.6,31.1
2.46,5.75,0.0,8.0,6.5,0.0,2.0,0.0,0.0,1.5,1.75,0.0,0.75,0.0,-0.17,0.14,1.27,431.25,21.8,46.2,1.5,0.25,0.0,0.0,6.25,5.25,0.0,2.5,0.25,0.0,0.25,0.25,0.0,0.77,0.83,0.45,305.52,6.9,33.1
2.48,0.0,0.5,0.0,5.5,0.0,0.0,0.0,1.25,1.5,1.75,1.75,0.0,0.25,-0.11,0.14,1.2,314.39,7.0,-0.7,1.25,0.25,0.0,0.0,5.5,4.0,0.0,1.75,0.25,0.0,0.0,0.25,0.5,0.77,0.77,0.33,272.49,6.6,31.2
2.5,0.0,0.0,0.0,0.0,0.0,0.0,0.0,0.0,0.0,0.0,0.0,0.0,0.0,-0.17,0.14,1.45,181.99,0.0,0.0,1.0,0.0,0.0,0.0,2.5,1.25,0.0,1.0,0.0,0.0,0.0,0.0,0.0,0.45,1.77,0.33,211.25,3.4,41.2
2.52,0.0,0.0,0.0,0.0,0.0,0.0,0.0,0.0,0.0,0.0,0.0,0.0,0.0,-0.17,0.2,1.27,44.78,0.0,0.0,0.0,0.0,0.0,0.0,3.25,0.5,0.0,1.0,0.0,0.0,0.0,0.0,0.0,0.83,3.08,0.39,148.2,7.6,34.1
2.54,0.0,0.0,0.0,0.0,0.0,0.0,0.0,0.0,0.0,0.0,0.0,0.0,0.0,-0.23,0.27,1.08,0.0,0.0,0.0,1.0,0.0,0.0,0.0,2.75,1.0,0.0,3.25,0.0,0.0,0.25,0.25,0.25,0.02,1.7,1.58,116.34,5.8,10.3
2.56,0.0,0.0,0.0,2.5,0.0,0.0,0.0,0.0,0.75,1.75,0.0,0.75,0.0,-0.11,0.27,0.83,0.0,5.6,-15.5,0.0,0.0,0.0,0.0,0.25,0.0,0.5,1.0,0.0,0.0,0.0,0.0,0.0,-0.23,-0.17,1.52,59.32,6.5,-10.9
2.58,0.0,0.0,0.0,0.5,0.0,0.0,0.0,0.0,0.5,0.25,0.5,0.0,0.0,-0.05,0.39,0.45,0.0,9.3,-25.1,0.0,0.0,0.0,0.0,0.0,0.0,0.0,0.0,0.0,0.0,0.0,0.0,0.0,0.02,-0.98,-0.48,9.01,0.0,0.0
2.6,0.0,0.0,0.0,0.5,0.0,0.0,0.0,0.0,0.5,0.0,0.25,0.0,0.0,0.27,0.39,0.45,0.0,14.0,-5.5,0.0,0.0,0.0,0.0,0.0,0.0,0.0,0.0,0.0,0.0,0.0,0.0,0.0,-0.42,0.58,-0.73,0.0,0.0,0.0
2.62,0.0,0.0,4.25,0.5,0.0,0.0,0.0,0.0,0.5,0.0,0.0,0.0,0.0,0.45,0.14,0.33,0.0,33.8,51.5,1.0,0.0,0.0,0.0,0.0,0.0,0.25,1.0,0.0,0.0,0.25,0.25,0.5,-0.11,0.52,-0.36,0.0,-5.7,-15.1
2.64,0.0,0.0,4.75,0.5,0.0,0.0,0.0,0.0,0.75,0.0,0.0,0.0,0.0,0.64,0.33,0.2,0.0,33.3,48.7,0.0,0.0,0.0,0.0,2.75,0.0,0.75,0.0,0.0,0.0,0.0,0.0,0.0,0.64,-0.23,0.02,0.0,-0.3,50.8
2.66,0.0,0.0,0.0,0.0,0.0,0.0,0.0,0.0,3.25,0.0,0.0,0.0,0.0,0.7,0.33,0.39,1.89,12.2,-38.5,0.25,0.0,0.0,0.0,1.75,1.0,0.0,1.0,0.25,0.0,0.5,0.25,0.5,0.7,0.14,-0.3,7.65,5.8,-0.9
2.68,0.0,0.0,0.0,0.0,0.0,0.0,0.0,0.0,0.0,0.0,0.0,0.0,0.0,0.7,0.39,0.58,1.12,0.0,0.0,0.0,0.0,0.0,0.0,0.0,0.0,0.0,0.0,0.0,0.0,0.0,0.0,0.0,0.08,0.7,-0.55,8.18,0.0,0.0
2.7,0.0,0.0,0.0,0.0,0.0,0.0,0.0,0.0,2.0,0.0,0.0,0.0,0.0,0.52,0.58,0.77,11.91,12.1,-38.5,0.0,0.0,0.0,0.0,0.0,0.0,0.0,0.0,0.0,0.0,0.0,0.0,0.0,-0.11,1.45,-0.23,1.06,0.0,0.0
2.72,0.0,0.0,0.0,0.0,0.0,0.0,0.0,0.0,0.0,0.0,0.0,0.0,0.0,0.33,0.7,0.89,11.84,0.0,0.0,0.0,0.0,0.0,0.0,0.0,0.0,0.0,0.25,0.0,0.0,0.0,0.0,0.0,-0.05,1.77,0.02,0.0,16.7,-38.7
2.74,2.0,0.0,8.5,0.0,0.0,0.0,0.0,0.0,1.0,1.75,1.25,0.0,0.25,0.33,0.7,0.83,93.64,26.6,28.7,0.0,0.0,0.0,0.0,0.0,0.0,0.25,0.0,0.0,0.0,0.0,0.0,0.0,0.14,1.45,0.14,0.0,-32.4,27.3
2.76,0.0,0.0,8.5,0.0,0.0,0.0,0.0,0.0,0.0,1.5,1.0,0.0,0.25,0.33,0.77,0.7,138.74,27.7,27.7,0.5,0.0,0.0,0.0,1.0,0.0,0.5,1.0,0.25,0.0,0.5,0.25,0.5,-0.61,0.95,0.39,12.27,-1.5,-12.5
2.78,0.0,0.0,8.5,0.0,0.0,0.0,0.0,0.0,0.75,1.5,0.75,0.0,0.25,0.27,0.83,0.52,182.84,27.1,25.7,0.0,0.0,0.0,0.0,0.0,0.0,0.0,0.0,0.0,0.0,0.0,0.0,0.0,0.14,0.83,0.08,12.56,0.0,0.0
2.8,3.25,0.0,8.0,2.75,0.0,0.0,0.0,0.0,0.75,1.75,0.75,0.0,0.25,0.27,0.77,0.45,222.47,25.9,40.9,0.0,0.0,0.0,0.0,0.0,0.0,0.0,0.0,0.0,0.0,0.0,0.0,0.0,0.45,0.77,0.2,17.18,0.0,0.0
2.82,1.0,0.0,7.75,2.5,0.0,0.0,0.0,0.0,0.75,1.75,0.75,0.0,0.25,0.52,0.58,0.27,244.57,24.5,32.3,0.0,0.0,0.0,0.0,0.0,0.0,0.0,0.0,0.0,0.0,0.0,0.0,0.0,0.7,0.83,0.08,4.91,0.0,0.0
2.84,0.0,0.0,7.25,2.5,0.0,0.0,0.0,0.0,1.0,1.75,1.5,0.0,0.0,0.89,0.39,0.14,248.1,23.1,22.9,0.0,0.0,0.0,0.0,0.0,0.0,0.0,0.0,0.0,0.0,0.0,0.0,0.0,0.7,0.52,0.33,0.0,0.0,0.0
2.86,0.0,0.0,7.0,2.25,0.0,0.0,0.0,0.0,0.75,1.75,1.5,0.0,0.25,1.02,0.33,0.2,241.69,22.5,20.1,0.0,0.0,0.0,0.0,0.0,0.0,0.0,0.0,0.0,0.0,0.0,0.0,0.0,0.83,0.45,0.2,0.0,0.0,0.0
2.88,0.0,0.0,7.0,1.25,0.0,0.0,0.0,0.0,0.75,1.75,1.5,0.0,0.25,0.77,0.39,0.27,234.41,22.9,17.0,0.5,0.0,0.0,0.0,0.0,0.0,0.25,1.0,0.25,0.0,0.5,0.25,0.0,0.58,0.52,0.02,5.56,-5.4,-24.6
2.9,0.0,0.0,7.0,1.0,0.0,0.0,0.0,0.0,0.75,1.5,1.25,0.25,0.25,0.45,0.52,0.39,221.91,23.8,17.3,0.25,0.0,0.0,0.0,1.25,0.0,0.0,0.75,0.25,0.0,0.5,0.25,0.25,0.27,0.7,0.08,27.6,0.6,-8.2
2.92,0.0,0.0,6.75,0.5,0.0,0.0,0.0,0.0,0.75,1.5,1.5,0.0,0.25,0.45,0.58,0.45,207.51,23.8,15.2,0.5,0.0,0.0,0.0,1.25,0.0,0.75,1.0,0.0,0.0,0.5,0.0,0.0,0.2,1.02,-0.05,50.26,-3.0,15.3
2.94,0.0,0.0,6.5,0.5,0.0,0.0,0.0,0.0,0.75,0.75,1.5,0.0,0.25,0.52,0.45,0.64,188.64,26.3,20.6,0.0,0.0,0.0,0.0,0.0,0.0,0.0,0.0,0.0,0.0,0.0,0.0,0.0,0.27,1.33,-0.11,40.91,0.0,0.0
2.96,0.0,0.0,6.5,0.5,0.0,0.0,0.0,0.0,0.75,1.5,1.5,0.25,0.0,0.7,0.39,0.64,173.85,24.0,14.3,0.0,0.0,0.0,0.0,0.0,0.0,0.0,0.0,0.0,0.0,0.0,0.0,0.0,0.39,1.27,-0.23,27.22,0.0,0.0
2.98,0.0,0.0,6.25,0.75,0.0,0.0,0.0,0.0,0.75,1.75,1.5,0.5,0.5,0.64,0.27,0.64,162.8,20.9,4.6,0.5,0.0,0.0,0.0,0.0,0.0,0.75,0.5,0.25,0.0,0.5,0.25,0.0,0.39,0.89,-0.17,22.81,-13.0,-16.1
3.0,0.0,0.0,6.25,1.0,0.0,0.0,0.0,0.0,0.75,1.75,0.5,0.25,0.0,0.77,0.27,0.77,161.42,23.6,21.3,0.5,0.0,0.0,0.0,1.25,0.0,0.0,0.75,0.25,0.0,0.5,0.25,0.0,0.45,0.7,0.08,32.88,-2.5,5.6
3.02,0.0,0.0,5.25,0.5,0.0,0.0,0.0,0.0,1.0,0.5,0.25,0.0,0.0,0.89,0.08,0.83,143.53,29.0,34.7,0.75,0.0,0.25,0.0,1.0,0.0,0.0,0.5,0.25,0.0,0.25,0.25,0.0,0.52,0.7,0.02,49.01,-8.9,21.3
3.04,0.0,0.0,6.25,1.0,0.0,0.0,0.0,0.0,0.75,0.5,1.5,0.0,0.0,0.89,0.08,0.7,137.9,27.6,27.2,0.5,0.0,0.0,0.0,1.5,0.0,0.25,0.75,0.25,0.0,0.25,0.25,0.0,0.39,0.7,0.02,61.33,-2.5,15.1
3.06,0.0,0.0,5.75,0.75,0.0,0.0,0.0,0.0,1.0,1.5,1.5,0.5,0.25,0.83,0.14,0.7,143.6,21.5,5.4,0.5,0.0,0.0,0.0,1.25,0.0,0.25,0.5,0.0,0.0,0.25,0.25,0.0,0.52,0.83,-0.05,62.74,-3.9,20.3
3.08,0.0,0.0,6.25,0.5,0.0,0.0,0.0,0.0,0.75,1.75,1.5,0.75,0.25,0.64,0.33,0.7,154.92,21.4,3.5,0.5,0.0,0.0,0.0,1.75,0.0,0.0,0.5,0.25,0.0,0.5,0.25,0.0,0.7,0.77,-0.3,64.98,-2.9,15.4
3.1,0.0,0.0,6.0,0.5,0.0,0.0,0.0,0.0,0.75,1.5,1.5,0.75,0.25,0.52,0.39,0.58,162.26,21.9,3.9,0.5,0.0,0.0,0.0,0.5,0.0,0.0,0.5,0.0,0.0,0.25,0.25,0.0,0.64,0.7,-0.23,54.58,-5.3,5.7
3.12,0.0,0.0,6.0,1.0,0.0,0.0,0.0,0.0,0.75,1.5,1.5,0.75,0.25,0.39,0.52,0.58,170.7,21.7,6.3,1.0,0.0,0.0,0.0,0.5,0.0,0.25,0.5,0.25,0.0,0.25,0.25,0.0,0.45,0.64,-0.17,50.87,-11.8,17.8
3.14,0.0,0.0,6.0,1.0,0.0,0.0,0.0,0.0,0.75,1.5,1.25,0.75,0.0,0.52,0.39,0.58,171.99,22.7,10.7,0.5,0.0,0.0,0.0,0.25,0.0,0.25,0.5,0.25,0.0,0.5,0.25,0.0,0.27,0.64,0.02,44.25,-9.0,-12.0
3.16,0.0,0.0,6.0,0.75,0.0,0.0,0.0,0.0,0.75,1.75,1.25,0.75,0.0,0.64,0.33,0.64,172.53,22.0,7.7,0.5,0.0,0.0,0.0,1.0,0.0,0.25,0.75,0.25,0.0,0.5,0.25,0.0,0.52,0.52,0.08,49.26,-4.1,2.4
3.18,0.0,0.0,6.25,0.75,0.0,0.0,0.0,0.0,0.75,1.5,1.5,0.75,0.25,0.7,0.27,0.64,174.54,22.1,6.4,0.5,0.0,0.0,0.0,0.25,0.0,0.25,0.75,0.25,0.0,0.25,0.25,0.0,0.95,0.45,0.02,47.25,-6.1,-8.3
3.2,0.0,0.0,6.25,0.75,0.0,0.0,0.0,0.0,0.75,1.75,1.5,0.75,0.25,0.7,0.27,0.58,177.12,21.3,4.7,0.5,0.0,0.0,0.0,1.0,0.0,0.25,0.75,0.25,0.0,0.25,0.25,0.0,1.14,0.45,-0.17,48.91,-3.6,8.2
3.22,0.0,0.0,6.25,0.75,0.0,0.0,0.0,0.0,0.75,1.5,1.5,0.75,0.25,0.64,0.27,0.58,178.83,22.1,6.4,0.25,0.0,0.0,0.0,1.0,0.0,0.25,1.0,0.0,0.0,0.25,0.5,0.0,0.89,0.27,-0.3,46.91,0.4,-7.2
3.24,0.0,0.0,6.25,0.75,0.0,0.0,0.0,0.0,0.75,1.5,1.5,0.75,0.25,0.64,0.33,0.58,180.7,22.1,6.4,0.5,0.0,0.0,0.0,0.5,0.0,0.0,1.0,0.25,0.0,0.5,0.25,0.0,0.64,0.39,0.02,46.95,-2.6,-11.7
3.26,0.0,0.0,6.25,1.0,0.0,0.0,0.0,0.0,0.75,1.5,1.5,0.75,0.25,0.64,0.33,0.58,182.21,22.0,7.5,0.5,0.0,0.0,0.0,1.0,0.0,0.25,0.75,0.25,0.0,0.25,0.25,0.0,0.64,0.52,0.08,48.47,-3.6,8.2
3.28,0.0,0.0,6.0,0.5,0.0,0.0,0.0,0.0,0.75,1.5,1.5,0.75,0.25,0.58,0.33,0.52,176.63,21.9,3.9,0.5,0.0,0.0,0.0,0.0,0.0,0.25,0.75,0.25,0.0,0.25,0.25,0.0,0.52,0.52,-0.05,43.27,-7.4,-16.9
3.3,0.0,0.0,6.5,0.0,0.0,0.0,0.0,0.0,0.75,1.5,1.25,0.75,0.0,0.58,0.33,0.52,171.13,24.0,8.5,0.5,0.0,0.0,0.0,0.5,0.0,0.25,1.0,0.25,0.0,0.5,0.25,0.0,0.58,0.39,-0.05,44.58,-3.8,-10.2
3.32,0.0,0.0,6.0,0.5,0.0,0.0,0.0,0.0,1.0,1.5,1.25,0.5,0.0,0.64,0.2,0.52,166.51,23.0,10.0,0.5,0.0,0.0,0.0,0.0,0.0,0.0,0.75,0.25,0.0,0.5,0.25,0.0,0.7,0.45,-0.05,39.24,-6.4,-25.8
3.34,0.0,0.0,6.0,0.5,0.0,0.0,0.0,0.0,0.75,0.25,0.5,0.0,0.0,0.7,0.02,0.64,152.67,31.3,39.5,0.5,0.0,0.0,0.0,0.0,0.0,0.25,0.75,0.25,0.0,0.25,0.25,0.0,0.77,0.45,-0.11,37.6,-7.4,-16.9
3.36,0.0,0.0,6.0,0.5,0.0,0.0,0.0,0.0,0.75,1.5,1.5,0.25,0.25,0.58,0.08,0.77,151.42,22.5,9.1,0.5,0.0,0.0,0.0,0.5,0.0,0.0,0.75,0.25,0.0,0.25,0.25,0.0,0.77,0.52,0.02,35.49,-3.8,-2.9
3.38,0.0,0.0,5.75,0.5,0.0,0.0,0.0,0.0,0.75,1.5,1.5,0.0,0.25,0.7,0.08,0.7,149.61,22.4,10.7,0.0,0.0,0.0,0.0,0.0,0.0,0.25,0.75,0.25,0.0,0.25,0.25,0.0,1.02,0.52,-0.05,31.71,0.5,-50.3
3.4,0.0,0.0,5.25,0.5,0.0,0.0,0.0,0.0,1.0,1.5,1.5,0.0,0.25,0.89,-0.55,0.7,150.36,21.3,6.9,0.25,0.0,0.0,0.0,0.0,0.0,0.0,0.75,0.25,0.0,0.25,0.25,0.0,1.2,0.7,-0.36,27.75,-1.9,-35.6
3.42,0.0,0.0,0.0,0.5,0.0,0.0,0.0,0.0,1.0,1.5,1.5,0.0,0.25,0.77,0.08,0.52,122.9,2.0,-54.8,0.5,0.0,0.0,0.0,0.0,0.0,0.0,0.75,0.25,0.0,0.25,0.25,0.0,0.83,0.7,-0.05,26.44,-5.9,-19.6
3.44,0.0,0.0,4.0,0.5,0.0,0.0,0.0,0.0,0.75,1.5,1.5,0.0,0.25,0.64,0.08,0.77,116.8,19.1,0.1,0.5,0.0,0.0,0.0,0.0,0.0,0.0,0.75,0.25,0.0,0.25,0.25,0.0,0.64,0.45,0.02,25.79,-5.9,-19.6
3.46,0.0,0.0,0.0,0.5,0.0,0.0,0.0,0.0,0.75,1.5,1.75,0.0,0.25,0.64,0.14,0.77,91.6,1.9,-56.7,0.75,0.0,0.0,0.0,0.0,0.0,0.25,0.75,0.0,0.0,0.25,0.25,0.0,0.7,0.39,0.02,27.07,-10.0,-1.3
3.48,0.0,0.0,0.0,0.5,0.0,0.0,0.0,0.0,1.0,1.5,1.25,0.0,0.0,0.64,0.14,0.89,75.44,2.4,-50.3,0.75,0.0,0.0,0.0,0.25,0.0,0.25,0.75,0.0,0.0,0.25,0.25,0.0,0.7,0.45,-0.11,30.8,-8.3,5.3
3.5,0.0,0.0,0.5,0.5,0.0,0.0,0.0,0.0,0.75,1.5,1.25,0.0,0.0,0.64,0.14,0.89,60.11,6.0,-38.2,0.5,0.0,0.0,0.0,1.0,0.0,0.25,0.75,0.0,0.0,0.5,0.25,0.0,0.83,0.39,-0.05,38.82,-3.4,5.5
3.52,0.0,0.0,0.0,0.0,0.0,0.0,0.0,0.0,0.0,0.0,0.0,0.0,0.0,0.77,0.2,0.77,31.16,0.0,0.0,0.5,0.0,0.0,0.0,0.25,0.0,0.0,0.5,0.0,0.0,0.25,0.25,0.0,0.83,0.33,0.02,37.73,-6.7,-2.1
3.54,0.0,0.0,0.0,0.0,0.0,0.0,0.0,0.0,0.0,0.0,0.0,0.0,0.0,0.83,0.08,0.58,3.77,0.0,0.0,0.5,0.0,0.0,0.0,0.0,0.0,0.0,0.75,0.0,0.0,0.5,0.5,0.0,0.77,0.39,-0.11,37.16,-6.0,-33.9
3.56,0.0,0.0,0.0,0.0,0.0,0.0,0.0,0.0,0.0,0.0,0.0,0.0,0.0,0.7,-0.11,0.83,0.0,0.0,0.0,0.75,0.0,0.0,0.0,0.0,0.0,0.0,0.5,0.0,0.0,0.5,0.25,0.0,0.83,0.33,-0.17,34.33,-12.1,-7.5
3.58,0.0,0.0,0.0,0.0,0.0,0.0,0.0,0.0,0.0,0.0,0.0,0.0,0.0,0.58,0.02,0.58,0.0,0.0,0.0,0.5,0.0,0.0,0.0,0.25,0.0,0.25,0.5,0.0,0.0,0.5,0.25,0.0,0.77,0.33,-0.11,33.58,-8.6,-8.8
3.6,0.0,0.0,1.0,2.0,0.0,0.0,1.25,0.0,0.75,1.75,0.0,0.0,0.0,0.89,0.08,0.64,4.53,12.2,6.3,0.5,0.0,0.0,0.0,0.0,0.0,0.25,0.75,0.0,0.0,0.5,0.25,0.0,0.77,0.39,-0.17,32.15,-7.2,-21.2
3.62,0.0,0.0,0.0,0.5,0.0,0.0,0.0,0.0,0.75,1.5,0.75,0.0,0.0,0.83,-0.11,0.64,25.46,0.6,-47.6,0.5,0.0,0.0,0.0,0.0,0.0,0.0,0.75,0.0,0.0,0.25,0.25,0.0,0.77,0.39,-0.17,31.22,-5.0,-16.9
3.64,0.0,0.0,0.0,2.0,0.0,0.0,1.75,0.0,2.0,2.0,2.0,0.0,0.25,0.89,-0.11,0.58,72.88,8.0,-28.2,0.5,0.0,0.0,0.0,0.0,0.0,0.75,0.75,0.0,0.0,0.25,0.25,0.0,0.77,0.39,-0.17,30.92,-9.7,-9.2
3.66,0.0,0.0,0.0,0.5,0.0,0.0,0.0,0.0,0.75,1.5,1.0,0.0,0.0,0.77,-0.17,0.58,78.55,1.3,-49.4,0.0,0.0,0.0,0.0,0.5,0.0,0.25,0.75,0.0,0.0,0.5,0.0,0.0,0.77,0.39,-0.17,29.68,2.7,-16.2
3.68,0.0,0.0,0.0,0.25,0.0,0.0,0.0,0.0,0.5,0.0,1.0,0.0,0.25,0.7,-0.42,0.58,70.58,8.8,-53.1,0.0,0.0,0.0,0.0,0.0,0.0,0.0,0.0,0.0,0.0,0.0,0.0,0.0,0.83,0.39,-0.11,19.03,0.0,0.0
3.7,0.0,0.0,0.0,0.0,0.0,0.0,0.0,0.0,0.25,0.0,1.0,0.0,0.0,0.7,-0.42,0.39,49.9,11.0,-68.0,0.0,0.0,0.0,0.0,0.0,0.0,0.0,0.0,0.25,0.0,0.0,0.25,0.0,0.77,0.33,-0.17,11.6,-10.5,-74.3
3.72,0.0,0.0,0.0,0.5,0.0,0.0,0.0,0.0,0.75,1.5,0.75,0.0,0.0,0.64,-0.3,0.33,47.9,0.6,-47.6,0.5,0.0,0.0,0.0,0.5,0.0,0.0,0.5,0.25,0.0,0.5,0.25,0.0,0.83,0.39,-0.11,16.3,-6.5,-6.3
3.74,0.0,0.0,0.0,0.5,0.0,0.0,0.0,0.0,1.0,1.0,0.75,0.0,0.25,0.58,-0.17,0.45,49.24,2.7,-47.6,0.75,0.0,0.0,0.0,1.0,0.0,0.25,0.5,0.0,0.0,0.25,0.25,0.0,0.83,0.33,-0.11,27.77,-7.0,23.1
3.76,0.0,0.0,0.0,0.5,0.0,0.0,0.0,0.0,0.75,1.25,1.0,0.0,0.0,0.52,-0.11,0.52,57.91,2.5,-47.5,0.25,0.0,0.0,0.0,0.0,0.0,0.25,0.75,0.0,0.0,0.25,0.25,0.0,0.83,0.33,-0.17,31.78,-2.6,-30.4
3.78,0.0,0.0,0.0,0.5,0.0,0.0,0.0,0.0,0.75,1.5,0.75,0.0,0.25,0.58,-0.05,0.58,61.78,-0.3,-51.9,0.0,0.0,0.0,0.0,0.5,0.0,0.25,0.75,0.0,0.0,0.25,0.25,0.0,0.83,0.33,-0.17,33.59,2.9,-20.8
3.8,0.0,0.0,0.0,0.5,0.0,0.0,0.0,0.0,0.75,1.5,0.75,0.0,0.0,0.58,0.02,0.58,60.06,0.6,-47.6,0.0,0.0,0.0,0.0,0.0,0.0,0.0,0.5,0.25,0.0,0.25,0.25,0.0,0.83,0.33,-0.17,28.68,0.4,-60.2
3.82,0.0,0.0,0.0,0.5,0.0,0.0,0.0,0.0,0.75,1.5,0.75,0.0,0.0,0.64,0.08,0.58,55.96,0.6,-47.6,0.5,0.0,0.0,0.0,0.0,0.0,0.0,0.5,0.0,0.0,0.25,0.25,0.25,0.83,0.39,-0.17,26.22,-5.3,-27.7
3.84,0.0,0.0,0.0,0.5,0.0,0.0,0.0,0.0,0.75,1.5,0.75,0.0,0.0,0.64,0.08,0.58,51.21,0.6,-47.6,0.5,0.0,0.0,0.0,0.0,0.0,0.0,0.75,0.0,0.0,0.5,0.25,0.5,0.83,0.39,-0.17,29.51,-1.6,-42.1
3.86,0.0,0.0,0.0,0.5,0.0,0.0,0.0,0.0,0.5,0.0,0.75,0.0,0.25,0.64,0.02,0.64,44.98,9.6,-35.8,0.75,0.0,0.0,0.0,0.5,0.0,0.25,0.5,0.0,0.25,0.25,0.25,0.25,0.83,0.39,-0.17,37.53,-5.3,-3.2
3.88,0.0,0.0,0.0,0.0,0.0,0.0,0.0,0.0,0.5,0.0,0.0,0.0,0.0,0.64,-0.11,0.64,28.26,12.1,-38.5,0.75,0.5,0.0,0.0,0.0,0.0,0.0,0.5,0.25,0.0,0.5,0.25,0.0,0.83,0.39,-0.17,42.95,-12.2,9.9
3.9,0.0,0.0,0.0,0.0,0.0,0.0,0.0,0.0,0.5,0.0,0.0,0.0,0.0,0.64,-0.11,0.58,18.64,12.1,-38.5,0.5,0.0,0.0,0.0,0.0,0.0,0.0,0.5,0.25,0.0,0.5,0.25,0.25,0.83,0.39,-0.17,43.48,-6.7,-34.1
3.92,0.0,0.0,0.0,0.0,0.0,0.0,0.0,0.0,0.5,0.25,0.0,0.0,0.0,0.7,-0.17,0.58,10.13,2.8,-51.0,0.25,0.0,0.0,0.0,0.25,0.0,0.25,0.75,0.25,0.0,0.25,0.25,0.25,0.77,0.33,-0.17,42.9,-1.1,-29.6
3.94,0.0,0.0,0.0,0.25,0.0,0.0,0.25,0.0,0.75,1.25,0.75,0.0,0.25,0.64,-0.23,0.58,20.18,0.6,-55.9,0.5,0.0,0.0,0.0,0.0,0.0,0.25,0.75,0.25,0.0,0.25,0.25,0.25,0.77,0.39,-0.11,38.89,-5.1,-27.2
3.96,0.0,0.0,0.0,0.5,0.0,0.0,0.0,0.0,0.75,1.5,0.75,0.0,0.25,0.7,-0.23,0.52,33.56,-0.3,-51.9,0.5,0.0,0.0,0.0,0.25,0.0,0.25,0.5,0.0,0.0,0.25,0.25,0.0,0.83,0.33,-0.17,34.39,-8.4,-0.2
3.98,0.0,0.0,0.0,0.5,0.0,0.0,0.0,0.0,0.75,1.5,0.75,0.0,0.25,0.7,-0.17,0.52,48.69,-0.3,-51.9,0.5,0.0,0.0,0.0,0.5,0.0,0.25,0.5,0.0,0.0,0.25,0.25,0.25,0.77,0.33,-0.11,35.38,-4.6,-5.5
4.0,0.0,0.0,0.0,0.5,0.0,0.0,0.0,0.0,0.75,1.5,0.75,0.0,0.25,0.77,-0.11,0.58,56.91,-0.3,-51.9,0.5,0.0,0.0,0.0,0.0,0.0,0.25,0.75,0.25,0.0,0.25,0.25,0.25,0.77,0.33,-0.17,36.61,-5.1,-27.2
4.02,0.0,0.0,0.0,0.5,0.0,0.0,0.0,0.0,0.75,1.25,0.75,0.0,0.25,0.77,-0.11,0.64,59.82,0.7,-50.2,0.75,0.0,0.0,0.0,0.0,0.0,0.25,0.75,0.25,0.0,0.25,0.25,0.0,0.77,0.39,-0.17,37.04,-10.2,-5.3
4.04,0.0,0.0,0.0,0.0,0.0,0.0,0.0,0.0,0.25,0.0,0.0,0.0,0.0,0.83,-0.11,0.64,42.43,12.1,-38.5,0.0,0.0,0.25,0.0,0.25,0.0,0.0,0.5,0.0,0.25,0.25,0.25,0.25,0.77,0.39,-0.17,35.54,1.0,-39.5
4.06,0.0,0.0,0.0,0.0,0.0,0.0,0.0,0.0,0.25,0.0,0.0,0.0,0.0,0.83,-0.05,0.64,25.85,12.1,-38.5,0.75,0.25,0.0,0.0,0.25,0.0,0.0,0.5,0.25,0.0,0.5,0.25,0.5,0.77,0.39,-0.17,40.06,-6.7,-12.2
4.08,0.0,0.0,0.0,0.0,0.0,0.0,0.0,0.0,0.25,0.0,0.0,0.0,0.0,0.83,-0.11,0.64,11.37,12.1,-38.5,0.0,0.0,0.0,0.0,0.0,0.0,0.0,0.5,0.0,0.0,0.25,0.0,0.25,0.77,0.33,-0.17,32.25,9.3,-66.0
4.1,0.0,0.0,0.0,0.0,0.0,0.0,0.0,0.0,0.5,0.0,0.0,0.0,0.0,0.83,-0.11,0.58,6.07,12.1,-38.5,0.0,0.0,0.0,0.0,0.0,0.0,0.0,0.0,0.0,0.0,0.0,0.0,0.0,0.77,0.39,-0.23,20.41,0.0,0.0
4.12,0.0,0.0,0.0,0.0,0.0,0.0,0.0,0.0,0.5,0.0,0.0,0.0,0.0,0.77,-0.11,0.58,3.12,12.1,-38.5,0.0,0.0,0.0,0.0,0.0,0.0,0.0,0.0,0.0,0.0,0.0,0.0,0.0,0.7,0.45,-0.17,7.79,0.0,0.0
4.14,0.0,0.0,0.0,0.5,0.0,0.0,0.25,0.0,0.75,1.5,0.75,0.0,0.0,0.77,-0.11,0.52,19.89,1.7,-45.1,0.0,0.0,0.0,0.0,0.0,0.0,0.0,0.0,0.0,0.0,0.0,0.0,0.0,0.77,0.45,-0.17,0.0,0.0,0.0
4.16,0.0,0.0,0.0,0.0,0.0,0.0,0.25,0.0,0.5,0.0,0.0,0.0,0.0,0.64,-0.11,0.52,17.11,16.1,-25.7,0.0,0.0,0.0,0.0,0.0,0.0,0.0,0.0,0.0,0.0,0.0,0.0,0.0,0.77,0.45,-0.17,0.0,0.0,0.0
4.18,0.0,0.0,0.0,0.5,0.0,0.0,0.0,0.0,0.75,1.25,0.0,0.0,0.0,0.58,-0.11,0.52,24.39,-0.6,-36.8,0.0,0.0,0.0,0.0,0.0,0.0,0.0,0.0,0.0,0.0,0.0,0.0,0.0,0.77,0.45,-0.17,0.0,0.0,0.0
4.2,0.0,0.0,0.0,0.5,0.0,0.0,0.0,0.0,0.75,1.25,0.75,0.0,0.0,0.58,-0.05,0.52,32.3,1.9,-45.5,0.5,0.0,0.0,0.0,0.0,0.0,0.0,0.0,0.0,0.0,0.0,0.25,0.0,0.83,0.45,-0.17,0.0,-25.9,25.7
4.22,0.0,0.0,0.0,0.5,0.0,0.0,0.0,0.0,0.75,1.25,1.0,0.0,0.0,0.58,-0.05,0.52,44.87,2.5,-47.5,0.0,0.0,0.25,0.0,0.25,0.0,0.25,0.5,0.0,0.0,0.5,0.0,0.0,0.83,0.52,-0.17,5.49,-5.8,-13.0
4.24,0.0,0.0,0.0,0.5,0.0,0.0,0.0,0.0,0.75,1.5,0.75,0.0,0.0,0.58,0.02,0.45,53.01,0.6,-47.6,0.0,0.0,0.0,0.0,0.5,0.0,0.25,0.5,0.0,0.0,0.5,0.25,0.0,0.83,0.52,-0.23,15.41,-0.5,-25.3
4.26,0.0,0.0,0.0,0.5,0.0,0.0,0.0,0.0,0.75,1.5,0.75,0.0,0.0,0.64,0.02,0.45,60.95,0.6,-47.6,0.0,0.0,0.0,0.0,0.0,0.0,0.0,0.75,0.0,0.0,0.5,0.25,0.0,0.89,0.52,-0.23,21.74,3.4,-62.7
4.28,0.0,0.0,0.0,0.5,0.0,0.0,0.0,0.0,0.75,1.5,0.75,0.0,0.0,0.7,0.02,0.52,65.41,0.6,-47.6,0.5,0.0,0.0,0.0,0.0,0.0,0.0,0.5,0.0,0.0,0.25,0.0,0.25,0.83,0.52,-0.17,24.81,-4.7,-13.8
4.3,0.0,0.0,0.0,0.5,0.0,0.0,0.0,0.0,0.75,1.5,1.0,0.0,0.0,0.7,0.02,0.52,66.03,1.3,-49.4,0.0,0.0,0.0,0.0,0.5,0.0,0.0,0.25,0.0,0.0,0.25,0.25,0.0,0.77,0.45,-0.17,24.77,0.9,-18.4
4.32,0.0,0.0,0.0,0.5,0.0,0.0,0.0,0.0,0.75,1.25,0.75,0.0,0.0,0.77,0.08,0.52,63.8,1.9,-45.5,0.5,0.0,0.0,0.0,0.25,0.0,0.25,0.25,0.0,0.0,0.25,0.25,0.0,0.77,0.45,-0.17,27.77,-12.3,5.6
4.34,0.0,0.0,0.0,0.5,0.0,0.0,0.0,0.0,0.75,1.25,0.75,0.0,0.0,0.77,0.02,0.52,61.04,1.9,-45.5,0.5,0.0,0.0,0.0,0.0,0.0,0.25,0.5,0.0,0.0,0.25,0.25,0.0,0.77,0.45,-0.17,28.76,-10.5,-10.1
4.36,0.0,0.0,0.0,0.5,0.0,0.0,0.0,0.0,0.75,1.5,1.0,0.0,0.0,0.83,0.02,0.58,60.41,1.3,-49.4,0.25,0.0,0.25,0.0,0.25,0.0,0.0,0.5,0.0,0.0,0.5,0.25,0.0,0.7,0.39,-0.11,31.56,-8.0,-14.5
4.38,0.0,0.0,0.0,0.5,0.0,0.0,0.0,0.0,0.75,1.25,0.75,0.0,0.0,0.89,0.02,0.58,57.13,1.9,-45.5,0.0,0.0,0.0,0.0,0.0,0.0,0.25,0.5,0.0,0.0,0.25,0.25,0.0,0.77,0.39,-0.11,28.8,-0.2,-55.5
4.4,0.0,0.0,0.0,0.0,0.0,0.0,0.0,0.0,0.25,0.0,0.0,0.0,0.0,0.89,0.02,0.58,40.74,12.1,-38.5,0.0,0.0,0.0,0.0,0.0,0.0,0.0,0.0,0.0,0.0,0.0,0.25,0.0,0.77,0.39,-0.11,21.07,-8.8,-109.9
4.42,0.0,0.0,0.0,0.0,0.0,0.0,0.0,0.0,0.25,0.0,0.0,0.0,0.0,0.89,0.02,0.64,21.43,12.1,-38.5,0.25,0.0,0.0,0.0,0.0,0.0,0.25,0.5,0.0,0.0,0.25,0.25,0.0,0.77,0.39,-0.11,18.01,-6.3,-28.9
4.44,0.0,0.0,0.0,0.5,0.0,0.0,0.25,0.0,0.75,1.5,0.75,0.0,0.0,1.02,-0.05,0.64,24.27,1.7,-45.1,0.5,0.0,0.0,0.0,0.0,0.0,0.0,0.5,0.0,0.0,0.25,0.25,0.0,0.77,0.39,-0.11,17.0,-8.7,-13.2
4.46,0.0,0.0,0.0,0.5,0.0,0.0,0.0,0.0,0.75,1.5,0.75,0.0,0.0,1.02,-0.05,0.64,33.01,0.6,-47.6,0.75,0.0,0.0,0.0,0.0,0.0,0.0,0.5,0.0,0.0,0.25,0.25,0.0,0.77,0.39,-0.17,20.25,-12.3,2.1
4.48,0.0,0.0,0.0,0.5,0.0,0.0,0.0,0.0,0.75,1.5,0.75,0.0,0.0,1.02,0.02,0.64,44.9,0.6,-47.6,0.25,0.0,0.0,0.0,0.0,0.0,0.0,0.25,0.0,0.0,0.5,0.25,0.0,0.77,0.45,-0.17,21.0,-9.3,-41.6
4.5,0.0,0.0,0.0,0.5,0.0,0.0,0.0,0.0,0.75,1.5,0.75,0.0,0.0,0.89,0.02,0.7,52.39,0.6,-47.6,0.25,0.0,0.0,0.0,0.25,0.0,0.0,0.25,0.0,0.0,0.25,0.25,0.0,0.77,0.45,-0.17,21.77,-6.2,-13.3
4.52,0.0,0.0,0.0,0.5,0.0,0.0,0.0,0.0,0.75,1.25,0.75,0.0,0.0,0.77,0.02,0.7,54.57,1.9,-45.5,0.0,0.0,0.0,0.0,1.0,0.0,0.0,0.5,0.0,0.0,0.5,0.25,0.0,0.83,0.45,-0.17,26.56,1.9,-8.8
4.54,0.0,0.0,0.0,0.5,0.0,0.0,0.0,0.0,0.75,1.5,0.75,0.0,0.0,0.64,-0.05,0.64,54.65,0.6,-47.6,0.25,0.0,0.0,0.0,0.0,0.0,0.0,0.25,0.25,0.0,0.25,0.25,0.25,0.83,0.45,-0.17,26.82,-5.6,-47.5
4.56,0.0,0.0,0.0,0.5,0.0,0.0,0.0,0.0,0.75,1.25,0.75,0.0,0.0,0.52,-0.05,0.58,54.63,1.9,-45.5,0.5,0.0,0.0,0.0,0.0,0.0,0.25,0.5,0.25,0.0,0.25,0.25,0.25,0.77,0.52,-0.17,30.07,-7.7,-25.8
4.58,0.0,0.0,0.0,0.5,0.0,0.0,0.0,0.0,0.75,1.5,0.5,0.0,0.0,0.45,-0.11,0.52,55.25,0.0,-45.5,0.0,0.0,0.0,0.0,0.0,0.0,0.25,0.25,0.0,0.0,0.25,0.25,0.0,0.77,0.52,-0.17,25.54,-5.2,-60.4
4.6,0.0,0.0,0.0,0.5,0.0,0.0,0.0,0.0,0.75,1.5,0.75,0.0,0.0,0.52,-0.11,0.52,56.5,0.6,-47.6,0.25,0.0,0.0,0.0,0.0,0.0,0.25,0.5,0.0,0.0,0.25,0.25,0.0,0.77,0.45,-0.17,24.0,-6.3,-28.9
4.62,0.0,0.0,0.0,0.5,0.0,0.0,0.0,0.0,0.75,1.5,0.75,0.0,0.0,0.52,-0.11,0.52,58.81,0.6,-47.6,0.5,0.0,0.0,0.0,0.0,0.0,0.0,0.5,0.0,0.0,0.25,0.25,0.0,0.77,0.45,-0.17,22.39,-8.7,-13.2
4.64,0.0,0.0,0.0,0.5,0.0,0.0,0.0,0.0,0.75,1.5,0.75,0.0,0.0,0.58,-0.11,0.52,60.46,0.6,-47.6,0.5,0.0,0.0,0.0,0.0,0.0,0.0,0.5,0.0,0.0,0.25,0.25,0.0,0.77,0.45,-0.17,22.9,-8.7,-13.2
4.66,0.0,0.0,0.0,0.5,0.0,0.0,0.0,0.0,0.75,1.25,0.75,0.0,0.0,0.64,-0.05,0.52,57.09,1.9,-45.5,0.0,0.0,0.0,0.0,0.0,0.0,0.0,0.0,0.0,0.0,0.25,0.25,0.0,0.77,0.45,-0.17,17.31,-9.8,-92.9
4.68,0.0,0.0,0.0,0.5,0.0,0.0,0.0,0.0,0.75,1.5,0.75,0.0,0.0,0.7,0.02,0.52,54.55,0.6,-47.6,0.5,0.0,0.0,0.0,1.0,0.0,0.0,0.25,0.0,0.25,0.5,0.25,0.25,0.7,0.45,-0.17,27.35,-2.6,-4.1
4.7,0.0,0.0,0.0,0.5,0.0,0.0,0.0,0.0,0.75,1.25,0.75,0.0,0.0,0.77,0.02,0.58,53.32,1.9,-45.5,0.0,0.0,0.0,0.0,0.0,0.0,0.0,0.25,0.0,0.0,0.25,0.25,0.0,0.7,0.45,-0.17,23.59,-0.8,-74.6
4.72,0.0,0.0,0.0,0.0,0.0,0.0,0.0,0.0,0.5,0.0,0.0,0.0,0.0,0.83,0.02,0.64,37.64,12.1,-38.5,0.5,0.0,0.0,0.0,0.0,0.0,0.25,0.0,0.0,0.0,0.5,0.25,0.0,0.7,0.45,-0.17,24.5,-20.9,-11.2
4.74,0.0,0.0,0.0,0.0,0.0,0.0,0.0,0.0,0.5,0.0,0.0,0.0,0.0,0.83,0.02,0.64,22.61,12.1,-38.5,0.0,0.0,0.0,0.0,0.0,0.0,0.0,0.5,0.0,0.0,0.5,0.25,0.0,0.7,0.45,-0.17,20.97,0.7,-67.5
4.76,0.0,0.0,0.0,0.0,0.0,0.0,0.0,0.0,0.5,0.0,0.0,0.0,0.0,0.89,0.02,0.64,9.05,12.1,-38.5,0.25,0.0,0.0,0.0,0.0,0.0,0.0,0.75,0.0,0.0,0.25,0.25,0.25,0.7,0.45,-0.17,23.07,1.8,-46.2
4.78,0.0,0.0,0.0,0.0,0.0,0.0,0.0,0.0,0.5,0.0,0.0,0.0,0.0,0.89,-0.05,0.64,1.79,12.1,-38.5,0.5,0.0,0.0,0.0,0.0,0.0,0.0,0.5,0.25,0.0,0.5,0.25,0.25,0.7,0.45,-0.17,26.95,-6.7,-34.1
4.8,0.0,0.0,0.0,0.0,0.0,0.0,0.0,0.0,0.5,0.0,0.0,0.0,0.0,0.89,-0.05,0.64,0.0,12.1,-38.5,0.25,0.0,0.0,0.0,0.0,0.0,0.0,0.5,0.0,0.0,0.25,0.25,0.0,0.83,0.52,-0.23,26.49,-3.7,-34.4
4.82,0.0,0.0,0.0,0.0,0.0,0.0,0.0,0.0,0.5,0.0,0.0,0.0,0.0,0.77,-0.05,0.58,0.0,12.1,-38.5,0.0,0.0,0.0,0.0,0.0,0.0,0.0,0.25,0.0,0.0,0.25,0.25,0.25,0.89,0.58,-0.23,24.98,2.9,-83.7
4.84,0.0,0.0,0.0,0.0,0.0,0.0,0.0,0.0,0.5,0.0,0.0,0.0,0.0,0.77,-0.05,0.58,0.0,12.1,-38.5,0.5,0.0,0.0,0.0,0.0,0.0,0.0,0.25,0.0,0.0,0.5,0.25,0.0,0.77,0.52,-0.11,22.24,-13.5,-19.2
4.86,0.0,0.0,0.0,0.0,0.0,0.0,0.0,0.0,0.5,0.0,0.0,0.0,0.0,0.7,0.02,0.52,0.0,12.1,-38.5,0.25,0.0,0.0,0.0,0.0,0.0,0.0,0.25,0.0,0.0,0.5,0.25,0.0,0.64,0.45,-0.17,20.42,-9.3,-41.6
4.88,0.0,0.0,0.0,0.0,0.0,0.0,0.0,0.0,0.5,0.25,0.0,0.0,0.0,0.64,0.02,0.52,0.91,2.8,-51.0,0.5,0.0,0.0,0.0,0.0,0.0,0.25,0.75,0.0,0.0,0.25,0.25,0.0,0.64,0.45,-0.23,22.71,-6.8,-14.0
4.9,0.0,0.0,0.0,0.0,0.0,0.0,0.0,0.0,0.5,0.5,0.0,0.0,0.0,0.64,0.02,0.52,5.48,-1.8,-57.1,0.0,0.0,0.0,0.0,0.0,0.0,0.25,0.5,0.0,0.0,0.25,0.25,0.0,0.77,0.45,-0.17,21.83,-0.2,-55.5
4.92,0.0,0.0,0.0,0.0,0.0,0.0,0.0,0.0,0.5,0.25,0.0,0.0,0.0,0.64,0.02,0.52,8.44,2.8,-51.0,0.0,0.0,0.0,0.0,0.0,0.0,0.0,0.5,0.0,0.0,0.25,0.25,0.0,0.83,0.52,-0.17,19.57,3.6,-65.6
4.94,0.0,0.0,0.0,0.0,0.0,0.0,0.0,0.0,0.5,0.25,0.0,0.0,0.0,0.58,0.02,0.58,11.5,2.8,-51.0,0.0,0.0,0.0,0.0,0.0,0.0,0.25,0.5,0.0,0.0,0.25,0.25,0.0,0.77,0.45,-0.17,19.15,-0.2,-55.5
4.96,0.0,0.0,0.0,0.0,0.0,0.0,0.0,0.0,0.5,0.0,0.0,0.0,0.0,0.58,0.02,0.58,12.31,12.1,-38.5,0.0,0.0,0.0,0.0,0.0,0.0,0.0,0.25,0.0,0.0,0.25,0.25,0.0,0.77,0.52,-0.17,15.77,-0.8,-74.6
4.98,0.0,0.0,0.0,0.5,0.0,0.0,0.0,0.0,0.0,0.0,0.0,0.0,0.0,0.64,0.02,0.52,11.05,17.2,57.9,0.5,0.0,0.0,0.0,0.0,0.0,0.0,0.25,0.0,0.0,0.5,0.25,0.0,0.77,0.52,-0.23,16.68,-13.5,-19.2
5.0,0.0,0.0,0.0,0.5,0.0,0.0,0.0,0.0,0.0,1.5,0.75,0.0,0.0,0.64,-0.3,0.45,22.37,-2.4,-50.0,0.0,0.0,0.0,0.0,0.0,0.0,0.0,0.5,0.0,0.0,0.25,0.5,0.25,0.77,0.45,-0.17,19.46,3.2,-80.5
5.02,0.0,0.0,0.0,0.5,0.0,0.0,0.0,0.0,0.0,1.5,0.75,0.0,0.0,0.95,0.08,0.39,33.6,-2.4,-50.0,0.5,0.0,0.0,0.0,0.0,0.0,0.0,0.5,0.0,0.0,0.25,0.25,0.0,0.77,0.45,-0.17,22.0,-8.7,-13.2
5.04,0.0,0.0,0.0,0.5,0.0,0.0,0.0,0.0,0.75,1.5,0.0,0.5,0.0,0.7,0.08,0.7,46.73,-0.3,-50.9,0.0,0.0,0.0,0.0,0.0,0.0,0.0,0.25,0.0,0.0,0.5,0.25,0.0,0.7,0.52,-0.17,21.74,-3.2,-74.8
