time,left pressure 0[N/cm²],left pressure 1[N/cm²],left pressure 2[N/cm²],left pressure 3[N/cm²],left pressure 4[N/cm²],left pressure 5[N/cm²],left pressure 6[N/cm²],left pressure 7[N/cm²],left pressure 8[N/cm²],left pressure 9[N/cm²],left pressure 10[N/cm²],left pressure 11[N/cm²],left pressure 12[N/cm²],left acceleration X[g],left acceleration Y[g],left acceleration Z[g],left total force[N],left center of pressure X[mm],left center of pressure Y[mm],right pressure 0[N/cm²],right pressure 1[N/cm²],right pressure 2[N/cm²],right pressure 3[N/cm²],right pressure 4[N/cm²],right pressure 5[N/cm²],right pressure 6[N/cm²],right pressure 7[N/cm²],right pressure 8[N/cm²],right pressure 9[N/cm²],right pressure 10[N/cm²],right pressure 11[N/cm²],right pressure 12[N/cm²],right acceleration X[g],right acceleration Y[g],right acceleration Z[g],right total force[N],right center of pressure X[mm],right center of pressure Y[mm]
0.02,0.0,0.0,0.25,1.0,0.0,0.0,0.0,1.5,0.0,3.5,2.25,2.0,1.25,-0.11,0.2,1.33,123.15,-2.4,-65.5,0.75,0.25,2.25,1.25,2.25,0.0,1.0,1.25,0.25,0.0,0.25,0.25,0.25,1.02,-1.11,2.33,51.11,-13.0,33.4
0.04,0.0,0.0,0.25,0.0,0.0,0.0,0.0,1.5,0.75,3.75,3.0,2.0,2.25,-0.42,0.27,1.52,170.44,-3.5,-77.7,0.5,0.0,2.0,1.25,2.25,0.0,0.75,1.0,0.25,0.5,0.5,0.25,0.0,0.58,-0.86,1.39,31.14,-11.4,26.5
0.06,0.0,0.0,2.0,0.25,0.0,0.0,0.0,1.75,1.0,5.0,3.0,2.75,2.5,-0.05,0.14,1.08,221.05,0.4,-62.6,1.5,0.25,2.0,1.0,1.25,0.0,0.75,1.25,0.25,0.0,0.75,0.25,0.25,0.39,-0.61,0.77,30.91,-15.5,28.7
0.08,0.0,0.0,0.0,1.0,0.0,0.0,0.0,3.0,1.5,6.0,4.5,4.0,2.75,-0.17,0.14,1.02,276.13,-2.8,-72.4,0.75,0.25,1.75,0.75,1.25,0.0,0.75,1.0,0.25,0.0,0.75,0.25,0.25,0.33,-0.42,0.7,29.32,-14.0,22.7
0.1,0.0,0.0,0.0,1.0,0.0,0.5,0.0,5.25,2.75,6.5,6.25,4.75,5.0,-0.17,0.08,0.95,361.39,-3.5,-70.9,0.75,0.25,0.5,0.75,0.25,0.0,0.75,1.0,0.25,0.0,0.75,0.25,0.25,0.2,-0.3,0.77,14.82,-11.9,6.9
0.12,0.0,0.0,0.75,0.0,0.0,0.5,0.0,5.25,3.5,7.0,7.0,4.75,5.25,-0.17,0.02,1.02,454.27,-2.8,-71.6,0.75,0.25,0.5,0.25,0.0,0.0,0.75,0.75,0.25,0.0,0.75,0.25,0.25,0.14,-0.17,0.83,3.76,-14.0,0.3
0.14,0.0,0.0,2.0,2.75,0.0,1.25,0.5,6.5,4.25,7.0,7.0,5.0,5.25,-0.17,0.02,0.95,570.38,-0.3,-54.7,0.75,0.0,0.5,0.0,0.0,0.0,0.75,1.0,0.25,0.0,0.75,0.25,0.25,0.14,-0.05,0.95,0.0,-11.9,-12.0
0.16,0.0,0.0,2.25,3.0,0.0,1.25,0.5,6.5,4.5,7.0,7.0,4.75,5.25,-0.17,0.02,0.95,650.92,0.0,-52.8,0.5,0.25,0.5,0.0,0.0,0.0,0.75,0.75,0.25,0.0,0.5,0.25,0.25,0.08,0.08,1.08,2.05,-12.6,-5.0
0.18,0.0,0.0,2.25,3.0,0.0,1.25,0.5,6.5,4.5,6.75,7.0,4.75,5.0,-0.17,0.02,0.95,702.22,0.1,-52.3,0.75,0.25,0.5,0.0,0.0,0.0,0.75,0.75,0.25,0.0,0.5,0.25,0.25,0.02,0.14,1.2,19.08,-13.9,1.2
0.2,0.0,0.0,2.0,3.0,1.25,1.5,0.5,6.5,4.25,6.25,6.75,4.0,4.5,-0.17,0.02,0.95,703.78,-0.2,-46.6,0.25,0.0,0.0,0.0,0.0,0.0,1.25,1.0,0.25,0.0,0.5,0.25,0.0,0.02,0.33,1.39,29.92,-7.5,-25.9
0.22,0.0,0.0,2.75,3.5,1.25,2.0,0.5,6.5,4.25,6.0,5.75,3.75,3.75,-0.17,0.02,0.95,682.81,0.4,-39.7,0.25,0.0,0.25,0.0,0.0,0.0,1.25,1.0,0.25,0.0,0.5,0.25,0.0,0.02,0.39,1.7,32.16,-10.1,-18.6
0.24,0.0,0.0,2.25,3.75,0.0,2.25,0.5,6.25,4.0,5.5,5.75,3.0,2.75,-0.17,0.02,0.95,627.12,0.5,-39.8,0.5,0.0,0.0,0.0,0.0,0.0,1.0,0.5,0.25,0.0,0.5,0.0,0.0,0.08,0.7,1.89,22.78,-14.5,-3.0
0.26,0.0,0.0,3.0,3.75,0.0,2.25,0.5,6.0,3.5,5.0,4.75,2.75,2.75,-0.17,0.02,0.95,564.8,1.2,-35.5,0.5,0.0,1.0,0.0,0.0,0.0,1.0,0.75,0.25,0.0,0.5,0.25,0.0,0.08,1.02,2.14,27.99,-18.6,5.1
0.28,0.0,0.0,2.75,4.75,0.0,2.5,0.5,6.0,3.25,4.5,4.0,2.0,2.25,-0.17,0.02,0.95,497.6,1.3,-28.3,0.75,0.0,1.25,0.0,0.25,0.0,0.75,0.0,0.25,0.0,0.5,0.25,0.25,-0.05,1.33,2.52,36.26,-23.6,18.2
0.3,0.0,0.0,2.25,4.75,4.25,2.5,0.25,6.0,2.75,3.75,3.0,1.75,1.5,-0.17,0.02,0.95,454.63,0.2,-12.7,0.5,0.0,1.75,0.0,1.0,0.0,0.75,0.0,0.25,0.0,0.5,0.25,0.25,-0.36,1.89,2.33,53.55,-19.9,25.0
0.32,0.0,0.0,2.0,5.25,3.5,2.5,0.25,5.75,2.75,3.75,3.0,1.75,1.25,-0.17,0.08,0.95,418.85,0.5,-12.9,0.5,0.0,0.0,0.0,1.0,0.0,0.75,0.0,0.25,0.0,0.5,0.25,0.25,-0.73,2.77,1.45,57.46,-9.6,4.9
0.34,0.0,0.75,3.25,6.0,4.25,3.0,0.25,5.75,2.25,3.5,2.5,1.75,1.0,-0.17,0.08,0.95,416.91,2.0,-1.4,0.5,0.0,0.25,0.0,1.25,0.0,0.75,0.0,0.25,0.0,0.5,0.25,0.25,-0.86,3.83,0.45,62.51,-10.6,12.4
0.36,0.0,1.25,3.75,7.0,4.25,3.25,0.0,5.25,1.75,3.25,2.25,1.0,0.75,-0.17,0.08,0.95,425.22,3.1,8.1,0.5,0.0,0.5,0.0,1.0,0.0,0.5,0.0,0.25,0.0,0.5,0.25,0.25,-1.36,4.83,-0.23,60.47,-12.9,12.1
0.38,0.0,1.25,4.0,7.0,6.0,3.75,0.0,5.25,1.75,2.75,2.0,0.75,0.25,-0.17,0.08,0.95,446.97,3.0,15.6,0.25,0.25,1.25,0.0,0.5,0.0,0.5,0.0,0.25,1.5,0.75,0.5,0.25,-2.61,5.2,1.02,70.72,-9.3,-16.5
0.4,0.0,1.25,5.25,8.25,7.0,3.75,0.0,5.25,1.5,2.25,1.5,1.0,0.25,-0.17,0.08,0.95,485.7,4.6,21.5,0.5,0.0,1.5,0.0,0.0,0.0,0.5,0.5,0.25,3.25,1.5,2.25,2.0,0.08,-0.55,2.14,114.56,-2.8,-59.1
0.42,1.0,2.5,5.5,9.25,7.75,3.75,0.0,4.75,1.5,2.0,1.5,0.75,0.25,-0.17,0.08,0.95,546.5,6.2,29.5,0.5,0.0,1.25,0.0,1.0,0.0,0.5,0.25,0.25,5.25,3.0,4.5,4.75,-0.3,0.33,0.77,199.89,0.4,-69.5
0.44,1.75,2.75,6.5,10.5,8.25,4.0,0.0,4.5,1.25,2.0,1.5,0.75,0.25,-0.17,0.14,0.95,624.33,7.6,33.5,0.5,0.25,1.75,0.0,1.25,0.0,0.5,1.25,0.5,7.0,5.0,5.75,6.5,-0.11,0.33,2.08,300.0,0.7,-68.1
0.46,2.75,3.5,7.25,10.5,8.0,4.0,0.0,4.0,0.75,1.75,1.25,0.75,0.25,-0.17,0.14,1.02,697.02,9.1,38.9,0.75,0.0,0.0,0.0,3.25,0.0,0.25,1.75,0.0,8.0,5.75,6.0,7.25,0.08,0.33,1.7,412.67,3.8,-68.8
0.48,4.25,4.0,7.5,11.5,0.0,3.75,0.0,3.0,0.75,1.75,1.0,0.75,0.25,-0.23,0.2,1.08,699.62,14.3,41.8,0.0,0.0,0.25,0.0,2.25,0.5,0.25,4.0,0.75,8.25,7.75,6.5,7.75,0.14,0.2,1.08,544.85,4.2,-72.5
0.5,5.5,4.25,7.5,12.0,0.0,3.75,0.0,3.0,0.75,1.75,1.0,0.75,0.25,-0.23,0.2,1.14,693.02,14.9,44.0,0.0,0.0,0.0,0.5,0.0,0.0,0.0,5.5,1.75,9.25,8.5,6.75,8.0,0.08,0.14,1.02,650.28,4.2,-79.9
0.52,5.5,5.0,8.5,12.0,0.0,3.0,0.0,2.25,0.75,1.75,1.0,0.75,0.25,-0.23,0.2,1.14,675.56,16.7,47.1,0.75,0.0,2.0,0.5,2.75,2.0,1.25,7.0,3.0,9.5,9.0,6.75,8.0,0.08,0.08,0.95,786.59,2.1,-56.2
0.54,0.0,5.25,8.5,12.0,0.0,0.0,0.0,2.0,0.75,1.75,1.0,0.75,0.25,-0.23,0.2,1.14,610.98,17.5,41.4,0.0,0.5,1.75,1.25,3.5,2.5,1.25,7.5,3.25,9.25,9.5,6.75,8.0,0.08,0.08,1.02,903.4,2.4,-52.9
0.56,5.75,4.25,8.25,10.5,0.0,0.5,0.0,1.5,0.75,0.25,1.0,0.0,0.25,-0.3,0.27,1.14,561.82,21.9,57.5,1.0,0.25,3.0,1.25,3.5,2.5,2.0,7.75,3.5,9.25,9.5,6.5,7.75,0.14,0.08,0.95,1005.99,0.7,-47.4
0.58,4.5,4.25,7.75,9.75,0.0,0.0,0.0,1.0,0.0,0.25,0.0,0.0,0.0,-0.36,0.33,1.27,486.67,23.6,66.5,1.5,0.75,4.25,1.5,3.75,3.0,2.25,7.75,3.5,8.75,9.0,6.0,7.5,0.14,0.08,0.95,1058.94,-0.4,-39.6
0.6,5.0,4.0,7.25,9.25,0.0,0.0,0.0,0.5,0.25,0.25,0.0,0.0,0.0,-0.42,0.39,1.45,428.53,24.4,68.0,1.75,0.75,4.75,3.25,3.75,3.75,2.25,7.75,3.5,8.0,8.5,5.5,6.25,0.14,0.08,0.95,1068.22,-1.4,-31.4
0.62,1.5,2.75,6.5,8.25,0.0,0.0,0.0,0.0,0.75,1.5,0.0,0.75,0.0,-0.61,0.58,1.7,357.57,21.3,48.8,2.0,1.0,4.75,3.5,5.25,4.5,2.25,7.75,3.5,7.5,7.75,4.5,5.75,0.14,0.08,0.95,1046.37,-1.3,-23.7
0.64,1.0,0.0,5.5,6.0,0.0,0.0,0.0,1.25,0.75,1.75,0.5,0.75,0.0,-0.55,1.14,2.33,290.6,18.4,26.5,2.0,1.0,6.0,4.0,5.5,4.75,2.25,7.25,3.0,7.0,7.25,3.75,4.5,0.2,0.08,0.95,1004.71,-2.5,-16.3
0.66,0.0,0.0,3.75,1.25,0.0,0.0,0.0,1.25,0.0,1.75,0.5,0.0,0.0,-0.61,1.39,2.89,202.44,14.6,10.8,2.0,1.25,6.25,5.25,6.0,4.75,2.25,7.0,2.75,6.0,5.75,3.0,3.75,0.14,0.14,0.95,956.97,-3.3,-7.6
0.68,0.0,0.0,2.0,2.0,0.0,0.0,0.0,1.25,0.5,0.25,1.0,0.0,0.0,-0.36,0.45,2.14,117.02,14.9,12.2,2.25,1.5,6.75,5.75,6.25,4.75,2.25,6.25,2.5,4.75,5.0,2.0,2.5,0.14,0.14,0.95,897.98,-4.9,2.6
0.7,0.0,0.0,0.0,1.75,0.0,0.0,0.0,1.25,1.0,2.0,0.75,0.0,0.0,-0.61,-0.05,1.89,48.78,-0.1,-27.4,2.5,1.5,7.25,5.75,6.25,4.75,2.25,5.75,1.75,3.0,3.75,1.75,1.75,0.14,0.14,0.95,826.49,-6.4,12.0
0.72,0.0,0.0,0.0,0.0,0.0,0.0,3.5,4.75,0.0,0.0,0.75,0.0,0.0,-0.86,-0.86,3.52,18.52,-2.4,-27.0,3.0,2.0,7.5,6.5,6.25,4.75,2.25,5.25,1.75,1.5,2.75,1.5,1.25,0.14,0.14,0.95,757.66,-8.2,22.1
0.74,0.0,0.0,0.0,0.0,0.0,0.0,0.75,0.0,0.0,0.0,0.0,0.0,0.0,-0.36,-1.17,1.52,0.0,32.4,27.3,3.5,2.0,7.5,7.75,6.25,5.0,2.0,4.5,1.0,1.5,2.0,1.0,1.0,0.14,0.14,0.95,702.9,-8.9,29.8
0.76,0.0,0.0,0.0,0.0,0.0,0.0,3.0,3.75,0.0,0.0,1.25,0.0,0.0,-0.55,-0.8,0.83,0.0,-0.5,-30.8,3.75,1.25,7.5,6.5,6.25,5.0,2.0,4.0,1.0,1.5,1.5,1.0,1.0,0.14,0.14,0.95,647.61,-9.0,30.1
0.78,0.0,0.0,0.0,0.0,0.0,0.0,0.75,0.0,0.0,0.0,0.0,0.0,0.0,-0.55,-0.67,0.52,0.0,32.4,27.3,3.75,2.0,7.5,9.5,7.75,5.0,1.25,4.0,0.5,0.0,1.5,0.75,0.5,0.14,0.14,0.95,637.84,-10.0,40.8
0.8,0.0,0.0,0.0,0.0,0.0,0.0,1.5,0.0,0.0,0.0,0.0,0.0,0.0,-0.48,-0.55,0.77,0.0,32.4,27.3,3.75,2.0,8.5,9.5,7.75,5.75,1.25,2.75,0.75,0.0,0.5,0.75,0.5,0.14,0.14,0.95,638.96,-10.9,45.5
0.82,0.0,0.0,0.0,0.0,0.0,0.0,0.0,0.0,0.0,0.0,0.0,0.0,0.0,-0.48,-0.48,1.14,0.0,0.0,0.0,5.75,3.5,9.0,11.0,8.75,5.75,1.25,2.75,0.5,0.0,1.25,0.75,0.25,0.14,0.2,0.95,700.72,-12.1,49.2
0.84,0.0,0.0,0.0,0.0,0.0,0.0,1.0,0.0,0.0,0.0,0.0,0.0,0.0,-0.48,-0.23,1.14,0.0,32.4,27.3,5.75,3.25,8.5,10.5,8.5,5.75,1.25,2.75,0.5,0.0,0.5,0.5,0.0,0.14,0.2,1.02,739.02,-12.0,52.2
0.86,0.0,0.0,0.0,0.0,0.0,0.0,2.0,0.0,0.0,0.0,0.0,0.0,0.0,-0.55,0.08,0.95,0.0,32.4,27.3,6.75,4.75,10.0,12.5,10.0,5.0,1.25,2.0,0.5,0.5,1.25,0.25,0.25,0.08,0.2,1.08,833.41,-13.3,53.4
0.88,0.0,0.0,0.0,0.0,0.0,0.0,1.0,0.0,0.75,0.0,0.0,0.0,0.0,-0.48,0.2,1.27,0.0,20.1,-12.6,6.5,5.0,10.0,11.5,9.0,3.75,0.25,1.25,0.25,0.0,0.0,0.25,0.0,0.08,0.27,1.08,854.0,-15.2,61.2
0.9,0.0,0.0,0.0,0.0,0.0,0.0,0.75,0.0,0.0,0.0,0.0,0.0,0.0,-0.42,0.33,1.52,0.0,32.4,27.3,6.75,4.75,10.0,11.0,8.5,2.75,0.25,1.0,0.25,0.0,0.0,0.0,0.0,0.08,0.27,1.08,852.7,-16.5,63.3
0.92,0.0,0.0,0.0,0.0,0.0,0.0,1.5,0.0,0.0,0.0,0.0,0.0,0.0,-0.55,0.45,1.7,0.0,32.4,27.3,7.25,5.0,12.0,11.0,9.0,1.25,0.5,0.0,0.0,0.0,0.0,0.0,0.0,0.08,0.33,1.14,833.32,-19.2,67.1
0.94,0.0,0.0,0.0,0.0,0.0,0.0,1.5,0.0,0.0,0.0,0.0,0.0,0.0,-0.61,0.58,1.95,0.0,32.4,27.3,7.0,5.0,11.0,11.0,9.0,1.25,0.75,0.0,0.0,0.0,0.0,0.0,0.0,0.08,0.33,1.14,815.03,-18.8,67.0
0.96,0.0,0.0,0.0,0.25,0.0,0.0,3.25,0.0,3.0,1.0,1.25,0.0,0.0,-0.8,0.77,2.45,36.53,12.6,-31.9,7.25,5.0,11.0,10.0,8.5,0.0,0.75,0.0,0.0,0.0,0.0,0.25,0.0,0.14,0.39,1.27,780.69,-20.3,67.4
0.98,0.0,0.0,1.0,2.25,0.0,0.0,3.75,0.0,3.5,1.25,2.25,0.0,0.0,-0.98,1.33,2.83,97.81,15.2,-11.9,7.0,4.25,10.0,9.5,8.5,0.25,1.25,0.25,0.0,0.0,0.5,0.0,0.0,0.2,0.45,1.39,741.84,-19.5,65.3
1.0,0.0,0.0,1.25,1.5,0.0,0.0,3.25,0.0,3.5,1.5,2.5,0.25,0.0,-0.92,1.95,2.27,144.9,14.4,-20.3,5.75,3.5,9.0,7.75,6.25,2.0,1.25,0.0,0.5,1.0,0.0,0.25,0.0,0.39,0.52,1.52,673.82,-17.7,59.8
1.02,0.0,0.0,1.25,2.0,0.0,0.0,3.25,0.0,3.0,1.25,2.25,0.5,0.0,-0.36,3.27,1.83,179.91,15.2,-15.6,4.5,1.0,7.5,3.25,5.5,0.75,1.25,0.0,0.0,0.0,0.75,0.0,0.25,0.33,1.33,2.58,524.67,-20.0,59.1
1.04,0.0,0.0,1.25,2.0,0.0,0.0,3.25,3.75,2.5,1.25,2.25,0.25,0.0,0.33,4.08,0.95,206.05,7.3,-19.1,1.0,0.0,4.75,1.25,0.0,0.0,0.75,0.0,0.0,0.0,0.0,0.25,0.0,0.14,1.64,2.64,319.51,-33.1,57.8
1.06,0.0,0.0,0.5,2.25,0.0,0.0,3.0,3.75,2.25,0.0,2.25,0.0,0.0,1.02,5.83,-0.05,211.82,7.5,-15.1,1.0,0.0,4.25,0.75,3.0,0.0,0.75,0.0,0.25,0.0,0.5,0.25,0.25,0.14,0.39,2.2,199.35,-19.7,44.5
1.08,0.0,0.0,0.0,0.0,0.0,0.0,1.5,1.5,2.0,0.0,0.0,0.0,0.0,2.14,6.39,0.89,176.9,5.2,-27.3,0.75,0.25,1.75,1.25,0.5,0.0,0.75,0.25,0.25,0.0,0.5,0.25,0.25,0.58,-0.73,1.7,79.03,-20.2,32.2
1.1,0.0,0.0,0.0,0.0,0.0,0.0,3.25,0.5,0.0,0.0,0.0,1.25,0.0,-0.67,-0.48,2.2,134.35,16.0,-34.3,0.0,0.0,1.75,0.0,0.25,0.0,1.0,0.0,0.25,0.0,0.25,0.0,0.0,0.39,-1.17,3.2,0.0,-29.1,36.1
1.12,0.0,0.0,0.5,0.0,0.0,0.0,0.0,1.25,0.0,0.0,1.5,0.0,2.75,0.39,0.2,0.58,109.56,-4.0,-72.4,0.0,0.0,1.75,0.0,0.0,0.0,0.75,1.0,0.25,0.0,0.5,0.0,0.25,0.33,-0.8,1.52,0.0,-16.5,1.5
1.14,0.0,0.0,1.75,0.0,0.0,0.0,0.0,0.0,0.0,5.0,5.25,0.0,5.0,-0.11,0.33,2.45,155.69,-1.4,-71.4,0.25,0.0,0.5,0.0,0.0,0.0,0.75,0.0,0.25,0.0,0.0,0.0,0.0,0.45,-0.67,0.7,0.0,-31.4,40.3
1.16,0.0,0.0,0.0,0.0,0.0,0.0,0.0,3.0,0.75,6.25,5.75,0.0,5.75,-0.67,0.45,2.08,225.01,-7.4,-78.5,0.75,0.0,0.5,0.0,0.0,0.0,0.75,0.0,0.25,0.0,0.0,0.0,0.0,0.33,-0.48,0.58,0.0,-32.3,55.0
1.18,0.0,0.0,0.0,0.0,0.0,0.0,0.0,5.0,1.75,7.0,6.25,4.75,6.0,-0.17,0.2,1.27,323.43,-4.8,-79.6,0.75,0.0,0.5,0.0,0.0,0.25,1.0,0.25,0.25,0.0,0.0,0.0,0.25,0.27,-0.36,0.7,0.0,-18.4,27.4
1.2,0.0,0.0,0.0,0.0,0.0,0.5,0.0,5.75,3.5,7.0,6.75,5.5,5.75,-0.17,0.08,1.02,427.61,-3.9,-75.5,1.0,0.0,0.5,0.25,0.0,0.0,1.0,0.75,0.25,0.0,0.5,0.25,0.0,0.27,-0.3,0.89,0.0,-17.9,12.4
1.22,0.0,0.0,0.0,0.0,0.0,1.25,0.0,6.0,4.5,7.5,7.5,5.5,6.0,-0.17,0.02,1.02,541.24,-3.9,-72.5,0.5,0.0,1.75,0.0,0.5,0.0,0.75,0.0,0.25,0.0,0.25,0.25,0.25,0.2,-0.11,0.89,0.0,-23.6,26.9
1.24,0.0,0.0,2.0,3.0,0.0,1.25,0.5,6.5,5.0,7.25,7.5,5.5,5.5,-0.11,0.02,1.02,642.56,0.0,-55.0,0.5,0.25,1.75,0.0,1.25,0.0,0.75,0.0,0.25,0.0,0.25,0.25,0.25,0.14,0.02,1.02,7.55,-18.7,34.7
1.26,0.0,0.0,3.75,3.5,0.0,1.25,0.5,6.5,5.5,7.0,7.5,5.0,5.0,-0.11,0.02,1.02,719.01,2.0,-47.6,0.75,0.25,1.25,0.0,1.0,0.0,0.75,0.25,0.25,0.0,0.25,0.25,0.25,0.08,0.08,1.2,47.36,-16.9,30.2
1.28,0.0,0.0,4.75,4.75,1.0,1.5,1.0,6.5,5.5,6.5,7.5,4.5,4.25,-0.11,0.02,1.02,771.62,3.4,-37.1,0.75,0.0,1.25,0.0,0.5,0.0,0.75,0.25,0.25,0.0,0.25,0.25,0.25,0.08,0.33,1.39,67.75,-20.0,22.7
1.3,0.0,0.25,5.5,4.75,1.75,1.75,1.0,6.25,5.25,6.0,6.75,4.0,3.75,-0.11,0.02,0.95,792.11,4.1,-30.1,0.75,0.0,1.0,0.0,1.0,0.0,0.75,0.25,0.25,0.0,0.25,0.25,0.25,0.08,0.7,1.39,69.86,-16.0,24.5
1.32,0.75,1.0,6.25,5.75,2.5,1.75,1.0,6.0,4.5,5.0,5.75,3.0,2.75,-0.11,0.02,0.95,792.6,6.0,-15.3,0.75,0.5,1.0,0.0,1.5,0.0,0.5,0.0,0.25,0.0,0.25,0.25,0.25,0.02,0.95,1.83,80.31,-14.7,38.0
1.34,1.0,1.25,6.5,7.0,1.25,1.75,0.75,5.25,4.0,3.75,5.25,2.0,1.5,-0.11,0.02,0.95,740.85,8.5,-5.2,0.5,0.0,1.25,0.0,1.5,0.0,0.75,0.0,0.25,0.25,0.0,0.25,0.25,0.27,1.02,2.64,84.85,-14.2,29.4
1.36,1.0,1.25,7.0,7.0,1.5,1.75,0.5,5.0,3.25,3.5,2.75,1.75,1.25,-0.11,0.02,0.95,667.4,9.0,3.2,0.75,0.0,0.5,0.0,0.5,0.0,0.5,0.0,0.25,0.0,0.25,0.25,0.25,0.27,1.39,2.39,76.16,-17.9,17.8
1.38,1.25,1.25,7.25,7.0,3.25,1.25,0.5,4.5,2.75,3.0,3.0,1.75,0.75,-0.11,0.08,0.95,602.18,10.0,9.6,0.5,0.0,0.75,0.0,1.0,0.0,0.5,0.0,0.25,0.0,0.25,0.25,0.25,0.02,2.27,2.2,71.11,-14.9,21.4
1.4,1.25,1.25,7.5,8.25,2.25,1.25,0.5,4.5,2.5,2.5,2.75,1.5,0.25,-0.11,0.08,0.95,553.25,11.6,14.9,0.75,0.0,1.0,0.0,0.5,0.0,0.5,0.25,0.25,0.0,0.25,0.25,0.25,-0.23,3.08,1.27,63.73,-18.4,19.9
1.42,1.75,1.25,7.75,8.25,3.25,1.25,0.5,4.0,2.25,2.0,2.25,1.0,0.25,-0.11,0.08,0.95,520.62,12.4,22.7,0.5,0.0,1.5,0.0,1.25,0.0,0.5,0.0,0.25,0.0,0.25,0.25,0.25,-0.55,4.08,0.02,65.44,-17.6,29.9
1.44,2.75,1.25,7.75,8.25,3.25,1.25,0.25,3.25,1.75,2.0,2.0,0.75,0.25,-0.11,0.08,0.95,500.21,13.6,28.5,0.5,0.25,1.5,0.0,1.5,0.0,0.5,0.0,0.25,0.0,0.25,0.25,0.25,-1.61,4.52,-0.05,71.89,-16.2,34.6
1.46,2.75,2.25,8.5,9.25,4.25,1.25,0.0,3.0,1.5,2.0,1.5,0.75,0.25,-0.11,0.08,0.95,508.68,13.8,34.7,0.5,0.0,1.5,0.0,1.0,0.0,0.5,0.0,0.25,0.0,0.25,0.25,0.25,-1.48,3.2,0.33,74.87,-19.0,28.3
1.48,4.0,2.75,8.5,9.25,4.25,1.5,0.0,3.0,1.5,1.75,1.5,0.75,0.25,-0.11,0.08,0.95,530.87,14.4,38.1,0.5,0.0,1.75,0.0,1.25,0.0,0.25,0.25,0.0,1.0,0.75,0.75,0.25,0.08,-0.92,0.52,86.21,-11.0,-2.0
1.5,4.5,2.75,8.5,10.5,4.75,1.75,0.0,3.0,1.5,1.75,1.25,0.75,0.25,-0.11,0.14,0.95,575.49,14.3,40.2,0.5,0.0,1.5,0.0,0.25,0.0,0.5,1.0,0.0,3.0,1.5,3.0,2.5,0.02,-0.36,0.2,132.34,-1.8,-60.7
1.52,5.5,4.0,8.75,10.5,0.0,2.0,0.0,3.0,1.5,1.75,1.25,0.75,0.25,-0.11,0.14,0.95,595.4,17.1,41.7,0.5,0.0,1.0,0.25,0.5,0.5,0.25,1.25,0.5,6.75,3.75,4.5,5.5,-0.73,0.58,3.39,228.64,2.7,-71.1
1.54,6.0,4.25,8.75,11.5,0.0,2.25,0.0,2.75,1.0,1.75,1.25,0.75,0.25,-0.17,0.14,1.02,618.43,17.3,44.6,0.0,0.0,0.0,1.25,1.0,1.25,0.0,4.0,1.0,7.5,6.75,5.5,6.0,0.58,0.83,2.14,344.3,4.2,-68.6
1.56,6.5,4.75,9.0,12.0,0.0,2.25,0.0,2.5,1.0,1.75,1.0,0.75,0.25,-0.17,0.14,1.08,637.55,17.8,47.3,0.75,0.25,1.75,1.25,1.5,2.0,1.25,6.0,1.75,8.25,7.75,5.5,6.25,0.02,0.14,1.08,512.26,1.7,-53.6
1.58,7.0,5.25,8.5,12.0,0.0,1.75,0.0,1.25,0.75,1.75,0.75,0.75,0.25,-0.17,0.14,1.14,648.16,19.3,52.4,1.0,0.25,2.0,1.25,3.5,2.5,1.25,6.25,2.25,8.25,8.0,5.25,6.0,0.14,0.14,0.95,672.51,1.5,-45.4
1.6,7.25,5.5,9.0,12.0,0.0,0.75,0.0,1.25,0.75,1.75,1.0,0.75,0.25,-0.17,0.2,1.14,653.6,20.5,52.7,2.0,0.25,4.5,1.25,3.5,2.75,1.25,7.0,2.5,8.25,7.75,5.0,5.5,0.2,0.14,0.95,798.79,-0.8,-35.8
1.62,7.5,5.5,8.5,12.0,0.0,0.5,0.0,1.0,0.75,1.75,1.0,0.75,0.0,-0.23,0.2,1.2,646.54,21.1,54.6,2.0,0.75,4.75,2.75,4.25,4.0,2.25,7.75,3.0,8.25,8.0,4.75,5.5,0.2,0.14,0.95,901.83,-1.1,-28.2
1.64,7.25,5.25,9.0,9.75,0.0,0.0,0.0,1.25,0.5,0.25,1.0,0.0,0.0,-0.3,0.27,1.27,607.99,23.8,63.4,3.5,1.0,6.25,4.0,5.25,4.0,2.25,7.75,3.25,8.0,8.0,4.5,5.25,0.2,0.08,0.95,1010.22,-3.3,-18.5
1.66,7.25,6.25,9.0,10.5,0.0,0.0,0.0,0.5,0.75,1.5,0.0,0.5,0.0,-0.42,0.27,1.45,582.76,22.9,62.2,4.0,1.0,7.25,4.5,5.5,4.0,2.25,7.5,3.0,7.25,7.25,3.5,4.0,0.2,0.08,0.95,1079.53,-4.7,-10.2
1.68,6.5,4.5,8.5,9.25,0.0,0.0,0.0,1.25,0.75,1.5,0.0,0.75,0.0,-0.55,0.39,1.7,538.78,22.2,56.1,4.5,1.25,7.5,5.5,6.0,4.75,2.25,7.0,2.75,6.25,6.5,3.0,3.0,0.2,0.14,0.95,1118.35,-5.6,-1.5
1.7,5.0,3.25,7.25,7.0,0.0,0.0,0.0,0.75,0.25,1.25,0.75,0.75,0.0,-0.55,0.39,2.08,463.66,22.7,52.7,5.25,1.75,8.5,5.75,6.25,4.5,2.5,6.25,2.0,4.5,5.0,1.75,1.25,0.2,0.14,0.95,1090.52,-8.2,13.6
1.72,0.25,0.0,6.0,4.75,0.0,0.0,0.0,1.0,0.75,1.25,0.5,0.0,0.0,-0.42,1.2,3.02,340.13,20.7,32.9,5.75,2.0,8.75,6.0,6.25,3.75,2.25,5.25,1.75,3.25,3.75,1.5,1.0,0.14,0.08,0.95,1015.64,-10.1,21.8
1.74,0.0,0.0,3.75,0.0,0.0,0.0,0.0,0.0,0.5,1.25,0.5,0.0,0.0,-0.42,1.27,3.08,220.41,22.9,14.0,6.25,2.0,9.25,7.5,6.25,3.25,2.25,4.0,1.0,1.75,2.5,1.0,0.25,0.14,0.14,0.95,911.07,-13.1,35.8
1.76,0.0,0.0,1.25,1.5,0.0,0.0,0.0,0.5,0.75,0.25,0.25,0.0,0.0,-0.17,-0.36,2.2,102.96,16.4,18.3,7.0,2.0,9.75,0.0,6.25,2.5,2.25,2.75,0.75,1.5,1.5,0.75,0.25,0.08,0.14,0.95,754.57,-15.0,40.4
1.78,0.0,0.0,0.0,1.0,0.0,0.0,0.0,0.0,0.0,0.25,1.25,0.0,0.0,-0.36,-0.73,1.2,0.0,10.8,-19.7,7.0,1.75,9.25,7.75,6.25,2.5,2.25,2.75,0.75,1.5,1.5,0.75,0.25,0.08,0.2,0.95,687.61,-15.2,43.0
1.8,0.0,0.0,0.0,1.75,0.0,0.0,0.0,0.0,0.75,1.5,0.0,0.0,0.0,-0.3,-1.23,2.95,0.0,4.1,-8.7,7.5,2.0,9.25,7.0,4.75,1.5,1.5,1.25,0.0,0.5,0.25,0.5,0.0,0.08,0.14,0.95,597.81,-19.7,58.2
1.82,0.0,0.0,0.0,1.0,0.0,0.0,0.0,1.25,0.75,1.75,1.0,0.0,0.0,0.08,-0.36,1.14,0.0,-1.9,-38.5,7.0,2.25,9.75,6.0,5.25,0.5,1.25,1.25,0.25,0.0,0.25,0.25,0.0,0.08,0.2,0.95,542.83,-21.1,61.1
1.84,0.0,0.0,0.0,0.0,0.0,0.0,0.0,0.0,0.0,0.25,0.0,0.0,0.0,-0.42,-0.36,0.08,0.0,-15.7,-75.5,8.0,2.75,10.0,6.75,3.75,1.5,1.25,1.25,0.5,0.75,1.0,0.75,0.0,0.02,0.2,0.89,513.85,-20.2,54.0
1.86,0.0,0.0,0.0,0.0,0.0,0.0,0.0,0.0,0.75,0.5,0.0,0.0,0.0,-0.36,-0.17,0.27,0.0,0.9,-53.4,8.25,2.5,12.5,6.75,6.25,1.25,1.5,1.25,0.5,0.5,0.75,0.25,0.0,0.02,0.2,0.95,538.83,-20.5,57.8
1.88,0.0,0.0,0.0,0.5,0.0,0.0,2.25,0.0,3.25,1.25,2.25,0.0,0.0,-0.05,-0.11,0.33,0.0,10.5,-39.1,8.75,2.75,12.5,7.5,6.25,1.25,1.5,1.25,0.5,0.0,0.75,0.25,0.0,0.02,0.2,0.95,578.09,-21.0,60.0
1.9,0.0,0.0,0.0,0.25,0.0,0.0,4.0,0.0,3.0,1.25,2.25,0.5,0.0,-0.11,0.02,0.45,10.22,12.2,-39.7,8.75,3.0,13.0,8.75,6.25,1.25,1.25,1.25,0.5,0.0,0.75,0.5,0.0,0.02,0.2,1.02,641.31,-20.9,59.3
1.92,0.0,0.0,0.0,0.0,0.0,0.0,3.0,0.0,0.0,0.25,2.25,0.0,0.0,-0.05,0.2,0.58,37.71,17.1,-37.2,9.0,2.75,13.5,9.0,5.75,0.75,1.25,1.25,0.5,0.0,0.75,0.25,0.0,0.02,0.27,1.02,689.31,-22.1,60.6
1.94,0.0,0.0,0.0,0.0,0.0,0.0,0.0,0.0,0.0,0.25,0.0,0.0,0.0,-0.11,0.33,0.64,38.11,-15.7,-75.5,9.5,2.5,13.5,7.75,5.5,0.25,1.25,1.0,0.5,0.0,0.5,0.25,0.0,0.02,0.27,1.02,706.3,-23.4,62.5
1.96,0.0,0.0,0.0,0.0,0.0,0.0,0.0,0.0,0.0,0.25,0.0,0.0,0.0,-0.17,0.52,0.77,27.12,-15.7,-75.5,9.5,2.5,13.5,8.0,5.0,0.0,1.25,0.75,0.5,0.0,0.5,0.5,0.0,-0.05,0.33,1.08,705.62,-24.1,62.4
1.98,0.0,0.0,0.0,0.0,0.0,0.0,0.25,0.0,0.0,0.0,1.5,0.0,0.25,-0.11,0.64,0.95,18.83,8.7,-73.6,9.5,2.0,12.5,7.25,3.0,0.0,1.0,0.0,0.25,1.0,0.5,0.5,0.0,-0.05,0.33,1.39,667.88,-25.5,61.7
2.0,0.0,0.0,0.0,3.0,0.0,0.0,4.0,0.0,0.0,1.25,1.75,0.5,0.0,-1.98,0.95,-7.98,51.77,14.0,-4.9,9.5,2.0,13.5,6.0,3.5,0.0,1.0,0.0,0.25,0.0,0.5,0.25,0.0,0.08,0.33,1.58,630.47,-27.0,66.6
2.02,0.0,0.0,2.0,1.0,0.0,0.0,0.0,0.5,0.0,1.75,1.0,0.0,0.25,1.7,3.39,-3.86,78.95,10.3,-10.1,8.25,0.25,13.0,3.75,0.0,0.0,1.0,0.0,0.0,0.0,0.0,0.0,0.0,0.08,0.33,1.89,516.78,-33.7,71.3
2.04,0.0,0.0,0.25,0.0,0.0,0.0,0.0,0.0,0.0,0.25,0.0,0.0,0.0,-1.11,2.95,-0.98,68.99,11.6,-6.2,8.0,0.75,9.75,3.75,0.0,0.0,1.25,0.0,0.25,0.0,0.5,0.25,0.0,0.02,0.39,1.95,425.78,-31.6,66.8
2.06,0.0,0.0,1.25,0.0,0.0,0.0,0.0,0.0,0.0,0.25,0.0,0.0,0.0,-2.48,0.39,-1.05,51.79,29.5,38.7,6.25,0.25,9.0,1.25,0.0,0.0,1.5,0.0,0.25,0.0,0.5,0.25,0.0,-0.61,0.7,2.58,325.2,-33.6,64.4
2.08,0.0,0.0,0.0,0.0,0.0,0.0,0.0,0.0,0.0,0.25,0.0,0.0,0.0,-0.98,-0.17,0.58,26.26,-15.7,-75.5,3.75,0.25,7.5,1.25,0.0,0.0,1.25,0.0,0.25,0.0,0.25,0.25,0.0,-0.61,0.45,1.45,249.02,-33.3,62.0
2.1,0.0,0.0,0.0,0.5,0.0,0.0,0.0,0.0,0.0,1.75,0.0,0.0,0.0,-0.36,-0.17,0.39,15.84,-8.1,-44.7,2.0,0.25,5.25,0.75,0.0,0.0,1.0,0.0,0.25,0.0,0.5,0.25,0.0,-0.73,-0.3,0.7,167.17,-32.2,53.5
2.12,0.0,0.0,0.0,0.0,0.0,0.0,0.0,0.75,0.0,0.25,0.75,0.0,0.0,-0.36,0.27,0.02,10.32,-5.0,-59.5,1.5,0.0,3.75,0.0,0.0,0.0,0.75,0.0,0.0,0.25,0.0,0.0,0.0,-0.23,-0.55,-0.23,88.33,-34.8,61.9
2.14,0.0,0.0,0.25,1.0,0.0,0.0,0.0,0.0,0.5,1.5,0.0,0.0,0.0,-0.23,0.64,-0.42,28.47,3.1,-16.9,1.0,0.0,0.0,0.0,0.0,0.0,0.25,0.0,0.25,0.25,0.5,0.0,0.25,0.27,-1.67,0.39,5.34,-16.2,0.6
2.16,0.0,0.0,1.0,1.0,0.0,0.0,0.0,1.0,0.75,1.75,0.5,0.0,0.5,0.2,0.77,-0.23,57.99,3.1,-25.7,1.0,0.0,1.75,0.5,0.0,0.0,0.75,0.0,0.25,0.0,0.5,0.25,0.0,-2.61,7.77,-7.36,0.0,-28.8,36.5
2.18,0.0,0.0,1.25,0.0,0.0,0.0,0.0,0.5,0.0,0.25,0.0,0.0,0.0,0.39,0.52,0.08,58.38,18.1,19.7,0.75,0.0,2.0,0.5,0.25,0.0,0.75,0.0,0.25,0.0,0.5,0.25,0.25,-0.17,0.45,-0.3,0.0,-25.1,28.6
2.2,0.0,0.0,0.0,0.0,0.0,0.0,0.0,0.0,0.5,1.5,0.0,0.5,0.0,0.27,0.33,0.02,55.08,-5.2,-75.0,0.75,0.0,2.0,1.0,1.25,0.0,0.75,0.0,0.0,0.0,0.5,0.25,0.25,1.2,0.08,-1.05,0.0,-20.0,37.8
2.22,0.0,0.0,0.5,0.0,0.0,0.0,0.0,0.0,0.75,1.5,0.0,0.25,0.0,-0.11,0.64,-0.3,46.27,2.4,-45.8,0.75,0.0,2.0,1.25,1.5,0.0,0.75,0.0,0.25,0.0,0.5,0.25,0.25,-0.23,0.95,-0.8,11.15,-18.7,36.6
2.24,0.0,0.0,0.25,0.0,0.0,0.0,0.0,0.0,0.0,0.25,0.0,0.0,0.0,-0.36,1.02,-0.3,29.79,11.6,-6.2,0.75,0.0,2.0,1.25,1.5,0.0,0.75,0.0,0.25,0.0,0.25,0.25,0.25,0.2,1.27,-0.17,42.3,-19.0,40.4
2.26,0.0,0.0,0.0,0.0,0.0,0.0,0.0,0.0,0.0,0.25,0.25,0.0,0.0,-0.42,1.08,-0.05,20.82,-2.6,-75.4,0.75,0.0,2.0,0.5,2.25,0.0,0.75,0.0,0.25,0.0,0.5,0.25,0.25,1.08,6.64,-0.17,71.12,-16.3,36.3
2.28,0.0,0.0,0.0,0.0,0.0,0.0,0.0,0.0,0.0,0.25,0.0,0.0,0.0,-0.42,1.27,0.14,13.77,-15.7,-75.5,0.5,0.25,1.75,0.25,1.0,0.0,0.75,0.0,0.25,0.25,0.25,0.5,0.25,0.08,6.77,1.33,78.29,-17.8,23.8
2.3,0.0,0.0,0.0,0.0,0.0,0.0,0.0,1.25,0.0,0.25,0.25,0.0,0.0,-0.3,1.08,-0.11,13.77,-12.8,-49.1,0.5,0.25,1.75,0.25,1.0,0.0,0.75,0.0,0.25,0.5,0.25,0.75,0.25,-0.48,0.2,4.83,88.02,-16.1,14.6
2.32,0.0,0.0,0.5,0.0,0.0,0.0,0.0,0.5,0.0,0.25,0.25,0.0,0.25,-0.17,0.83,-0.11,15.31,3.6,-30.2,0.75,0.25,1.75,0.25,1.0,0.0,0.75,0.0,0.25,0.0,0.5,0.25,0.25,0.95,-3.86,-2.67,91.53,-20.0,32.7
2.34,0.0,0.0,0.0,1.0,0.0,0.0,0.0,0.0,0.25,0.25,0.0,0.0,0.0,0.2,3.27,-0.67,18.39,11.0,20.8,0.5,0.0,1.75,0.5,1.25,0.0,0.75,0.0,0.25,0.0,0.5,0.25,0.25,1.08,-4.48,-2.61,96.49,-18.5,29.4
2.36,0.0,0.0,0.25,1.0,0.0,0.0,0.0,0.0,0.25,0.25,0.0,0.0,0.0,-0.05,1.39,0.64,21.57,14.9,26.6,0.75,0.0,1.75,0.75,1.25,0.0,0.75,0.0,0.25,0.0,0.25,0.25,0.25,-1.23,-3.3,-1.73,100.14,-19.4,37.4
2.38,0.0,0.0,0.0,0.0,0.0,0.0,0.0,0.0,0.25,0.25,0.0,0.0,0.0,-0.42,1.77,-0.55,15.01,-1.8,-57.1,0.75,0.0,1.75,0.5,1.25,0.0,0.75,0.0,0.25,0.0,0.5,0.25,0.25,-1.67,1.14,-0.11,101.7,-19.1,32.0
2.4,0.0,0.0,0.0,0.0,0.0,0.0,0.0,0.0,0.25,0.25,0.0,0.0,0.0,-0.42,2.2,-1.05,9.56,-1.8,-57.1,0.75,0.0,1.75,0.25,1.75,0.0,0.75,0.0,0.25,0.0,0.5,0.25,0.25,-1.17,3.95,0.08,100.41,-17.2,32.9
2.42,0.0,0.0,0.0,1.0,0.0,0.0,0.0,0.0,0.75,1.75,0.0,0.25,0.0,-0.42,1.95,-0.3,25.86,0.4,-33.6,0.75,0.0,1.75,0.0,1.25,0.0,0.75,0.0,0.25,0.0,0.25,0.25,0.25,1.2,2.52,-1.61,94.63,-19.7,34.3
2.44,0.0,0.0,0.0,1.0,0.0,0.0,0.0,0.0,0.0,0.25,0.5,0.0,0.0,-1.36,3.2,0.7,29.61,10.8,2.9,0.5,0.25,1.75,0.0,1.0,0.0,0.75,0.0,0.25,0.5,0.5,0.25,0.25,1.27,0.89,-1.05,91.38,-16.5,19.6
2.46,0.0,0.0,0.0,1.0,0.0,0.0,0.0,0.0,0.75,1.5,0.5,0.0,0.0,-0.36,1.33,0.7,44.75,2.3,-31.2,0.5,0.0,2.0,0.0,0.25,0.0,0.75,0.0,0.25,0.0,0.25,0.25,0.25,-0.11,0.83,0.83,80.43,-26.4,27.1
2.48,0.0,0.0,0.0,1.0,0.0,0.0,0.0,0.5,0.75,1.75,0.25,0.0,0.0,0.14,-0.42,0.7,57.12,-1.4,-32.1,0.5,0.0,1.75,0.0,0.0,0.0,0.5,0.0,0.25,0.0,0.5,0.25,0.25,0.2,1.08,1.45,70.42,-26.7,16.1
2.5,0.0,0.0,0.0,1.0,0.0,0.0,0.0,1.0,0.5,1.75,0.0,0.25,0.0,0.27,-2.23,-0.92,68.17,-3.9,-34.5,0.75,0.25,1.75,0.0,0.5,0.0,0.5,0.0,0.25,0.0,0.5,0.25,0.25,-0.11,1.52,1.45,67.58,-22.7,29.0
2.52,0.0,0.0,0.25,1.0,0.0,0.0,0.0,1.0,0.5,1.5,0.5,0.5,0.0,0.08,-2.36,-0.86,76.81,0.6,-35.2,0.5,0.25,1.75,0.0,0.5,0.0,0.5,0.0,0.25,0.0,0.25,0.25,0.25,-0.42,1.89,0.64,66.87,-22.7,31.1
2.54,0.0,0.0,0.25,0.0,0.0,0.0,0.0,1.0,0.75,1.25,0.5,0.5,0.0,0.27,-0.67,-0.23,79.77,-1.8,-56.1,0.75,0.0,1.75,0.0,0.25,0.0,0.25,0.0,0.25,0.0,0.25,0.25,0.25,-0.48,2.02,-0.11,64.21,-25.7,29.1
2.56,0.0,0.0,0.5,0.0,0.0,0.0,0.0,0.0,0.75,1.25,0.5,0.5,0.0,1.33,0.39,-0.11,76.82,5.3,-52.4,0.75,0.0,1.75,0.0,1.0,0.0,0.25,0.0,0.25,0.0,0.5,0.25,0.25,-0.23,1.95,-0.36,68.01,-20.0,28.3
2.58,0.0,0.0,0.0,0.0,0.0,0.0,0.0,0.0,0.75,1.25,0.5,0.0,0.0,1.02,1.08,0.45,66.04,-2.1,-64.4,0.5,0.0,1.75,0.0,0.0,0.0,0.25,0.0,0.25,0.0,0.25,0.25,0.25,-0.11,1.7,-0.23,62.54,-27.6,22.3
2.6,0.0,0.0,0.0,0.0,0.0,0.0,0.0,0.0,0.5,1.0,0.5,0.0,0.0,0.14,1.64,0.64,53.83,-2.2,-66.2,0.5,0.0,1.75,0.0,0.0,0.0,0.25,0.0,0.0,0.0,0.25,0.5,0.25,-0.05,1.33,-0.17,57.35,-27.3,17.0
2.62,0.0,0.0,0.25,0.0,0.0,0.0,0.0,0.0,0.0,0.25,0.0,0.0,0.0,-0.55,2.14,0.45,34.9,11.6,-6.2,0.5,0.0,1.5,0.0,0.5,0.0,0.25,0.0,0.0,0.25,0.25,0.5,0.25,-0.17,0.83,0.33,55.18,-19.4,13.6
2.64,0.0,0.0,0.0,0.0,0.0,0.0,0.0,0.0,0.0,0.25,0.0,0.0,0.25,-0.98,2.7,-0.05,19.03,-14.6,-92.9,0.75,0.25,1.75,0.0,1.0,0.0,0.25,0.0,0.25,0.0,0.25,0.25,0.25,0.08,0.52,-0.3,63.33,-20.0,36.9
2.66,0.0,0.0,0.0,0.0,0.0,0.0,0.0,0.0,0.75,1.75,0.0,0.25,0.0,-1.17,2.33,-0.86,19.49,-5.9,-68.6,0.75,0.25,1.75,0.0,0.0,0.0,0.25,0.0,0.25,0.0,0.25,0.25,0.25,0.27,0.39,-0.42,65.14,-27.0,31.9
2.68,0.0,0.0,0.25,0.0,0.0,0.0,0.0,0.0,0.5,1.5,0.5,0.0,0.0,-0.8,1.83,-0.67,26.68,-0.9,-56.0,0.5,0.0,1.5,0.0,0.25,0.0,0.25,0.0,0.25,0.0,0.25,0.25,0.25,0.02,0.39,-0.55,64.0,-24.2,22.0
2.7,0.0,0.0,0.25,0.0,0.0,0.0,0.0,0.0,0.5,1.5,0.5,0.0,0.0,-0.42,1.7,-0.05,33.17,-0.9,-56.0,0.5,0.0,1.5,0.0,0.5,0.0,0.25,0.0,0.25,0.0,0.5,0.25,0.25,-0.23,0.39,-0.67,63.48,-21.3,18.3
2.72,0.0,0.0,0.25,0.25,0.0,0.0,0.0,0.0,0.5,1.5,0.5,0.0,0.0,-0.17,1.7,0.14,38.84,0.6,-46.0,0.75,0.0,1.25,0.0,0.25,0.0,0.25,0.0,0.25,0.0,0.5,0.25,0.0,-0.42,0.45,-0.55,59.06,-25.8,27.3
2.74,0.0,0.0,0.75,0.0,0.0,0.0,0.0,0.0,0.5,1.25,0.75,0.25,0.0,-0.05,1.52,0.14,45.16,7.4,-42.5,0.75,0.0,1.5,0.0,0.0,0.0,0.5,0.0,0.0,0.0,0.25,0.25,0.25,-0.61,0.58,-0.42,54.93,-28.6,29.5
2.76,0.0,0.0,1.0,0.0,0.0,0.0,0.0,0.0,0.75,1.5,0.75,0.0,0.0,-0.11,1.27,-0.11,51.47,8.1,-33.5,0.5,0.0,1.25,0.0,0.25,0.0,0.25,0.0,0.25,0.0,0.25,0.5,0.0,-0.61,0.7,-0.36,52.5,-24.9,19.2
2.78,0.0,0.0,1.0,0.0,0.0,0.0,0.0,0.0,0.75,1.5,0.75,0.0,0.0,0.14,1.02,-0.36,58.71,8.1,-33.5,0.5,0.0,0.25,0.0,0.25,0.0,0.25,0.0,0.25,0.0,0.25,0.5,0.25,-0.55,0.77,-0.23,45.98,-14.9,-12.8
2.8,0.0,0.0,0.75,0.75,0.0,0.0,0.0,0.0,0.5,1.25,0.25,0.0,0.0,0.33,0.83,-0.55,62.16,9.0,-11.0,0.5,0.0,1.0,0.0,0.0,0.0,0.25,0.0,0.25,0.0,0.25,0.25,0.25,-0.36,0.77,-0.3,41.14,-24.4,10.8
2.82,0.0,0.0,0.75,0.5,0.0,0.0,0.0,0.0,0.5,1.25,0.0,0.25,0.0,0.33,0.77,-0.55,61.52,8.2,-19.2,0.5,0.0,1.0,0.0,0.0,0.0,0.25,0.0,0.25,0.0,0.25,0.25,0.25,-0.11,0.77,-0.3,39.09,-24.4,10.8
2.84,0.0,0.0,1.0,0.5,0.0,0.0,0.0,0.0,0.0,1.5,0.5,0.5,0.0,0.27,0.7,-0.48,62.84,8.5,-27.5,0.25,0.0,1.25,0.0,0.0,0.0,0.25,0.0,0.25,0.0,0.25,0.25,0.25,0.08,0.77,-0.3,37.92,-24.9,8.0
2.86,0.0,0.0,0.75,0.25,0.0,0.0,0.0,0.0,0.25,1.25,0.5,0.0,0.0,0.08,0.64,-0.42,58.74,7.5,-25.9,0.25,0.0,1.0,0.0,0.5,0.0,0.25,0.0,0.0,0.0,0.25,0.25,0.0,0.14,0.77,-0.36,36.49,-22.1,30.3
2.88,0.0,0.0,0.75,0.5,0.0,0.0,0.0,0.0,0.0,1.25,0.5,0.0,0.0,-0.05,0.52,-0.42,54.28,7.9,-17.6,0.75,0.0,1.25,0.0,0.0,0.0,0.25,0.0,0.25,0.0,0.5,0.25,0.25,0.14,0.83,-0.36,41.13,-25.3,14.5
2.9,0.0,0.0,1.0,0.5,0.0,0.0,0.0,0.0,0.0,1.25,0.5,0.5,0.0,-0.11,0.58,-0.3,52.69,10.1,-24.4,0.25,0.0,1.5,0.0,0.0,0.0,0.25,0.0,0.25,0.0,0.5,0.25,0.25,0.08,0.83,-0.42,45.16,-24.9,5.9
2.92,0.0,0.0,1.0,0.25,0.0,0.0,0.0,0.0,0.25,1.25,0.5,0.0,0.0,-0.11,0.58,-0.23,52.08,9.9,-19.1,0.5,0.0,1.5,0.0,0.0,0.0,0.25,0.0,0.25,1.0,0.5,0.5,0.25,0.14,0.95,-0.42,55.42,-15.7,-13.2
2.94,0.0,0.0,1.0,0.75,0.0,0.0,0.0,0.0,0.5,1.25,0.75,0.25,0.0,-0.05,0.58,-0.17,57.9,10.8,-19.2,0.5,0.0,0.5,0.0,0.0,0.0,0.25,0.0,0.25,0.0,0.75,0.25,0.0,0.27,0.95,-0.55,51.29,-22.8,-4.8
2.96,0.0,0.0,0.75,0.75,0.0,0.0,0.0,0.0,0.5,1.25,1.0,0.0,0.0,-0.05,0.64,-0.23,61.36,9.3,-22.0,0.0,0.0,1.0,0.0,0.0,0.0,0.25,0.0,0.25,0.0,0.25,0.25,0.25,0.27,0.95,-0.61,46.82,-22.2,-8.0
2.98,0.0,0.0,1.0,0.75,0.0,0.0,0.0,0.0,0.5,1.25,0.25,0.5,0.0,0.02,0.7,-0.3,65.13,10.7,-18.1,0.5,0.0,0.5,0.0,0.0,0.0,0.25,0.0,0.0,0.0,0.25,0.25,0.0,0.2,0.95,-0.61,36.49,-28.1,21.8
3.0,0.0,0.0,0.75,0.5,0.0,0.0,0.0,0.0,0.25,1.5,0.5,0.5,0.0,0.02,0.77,-0.3,64.87,6.8,-33.9,0.5,0.0,0.75,0.0,0.0,0.0,0.25,0.0,0.25,0.0,0.25,0.25,0.0,0.14,0.95,-0.55,33.07,-27.4,19.5
3.02,0.0,0.0,1.0,0.5,0.0,0.0,0.0,0.0,0.0,1.25,0.5,0.5,0.0,0.14,0.83,-0.42,63.6,10.1,-24.4,0.5,0.0,1.5,0.0,0.0,0.0,0.5,0.0,0.25,0.0,0.5,0.25,0.25,0.08,0.89,-0.48,38.76,-25.8,12.8
3.04,0.0,0.0,1.0,0.5,0.0,0.0,0.0,0.0,0.0,1.5,0.5,0.5,0.0,0.2,0.83,-0.42,62.66,8.5,-27.5,0.5,0.0,1.0,0.0,0.0,0.0,0.25,0.0,0.25,0.0,0.25,0.25,0.25,0.08,0.89,-0.48,41.48,-24.4,10.8
3.06,0.0,0.0,1.0,0.75,0.0,0.0,0.0,0.0,0.0,1.25,0.5,0.5,0.0,0.27,0.89,-0.42,62.4,10.6,-19.0,0.5,0.0,0.75,0.0,0.0,0.0,0.25,0.0,0.0,0.0,0.25,0.25,0.25,0.02,0.89,-0.42,41.02,-24.2,10.5
3.08,0.0,0.0,0.75,0.75,0.0,0.0,0.0,0.0,0.0,1.0,0.5,0.5,0.0,0.27,0.83,-0.42,60.04,10.4,-20.9,0.25,0.0,0.75,0.0,0.0,0.0,0.25,0.0,0.25,0.25,0.25,0.25,0.0,-0.05,0.83,-0.42,37.1,-21.5,-0.3
3.1,0.0,0.0,0.75,0.5,0.0,0.0,0.0,0.0,0.0,1.5,0.5,0.75,0.0,0.2,0.89,-0.48,61.23,6.6,-38.3,0.25,0.0,0.75,0.0,0.0,0.0,0.25,0.0,0.0,0.0,0.25,0.25,0.25,-0.11,0.83,-0.36,32.36,-22.9,-0.3
3.12,0.0,0.0,0.75,0.25,0.0,0.0,0.0,0.0,0.0,1.25,0.5,0.75,0.0,0.2,0.95,-0.55,58.82,7.4,-42.8,0.5,0.0,0.5,0.0,0.0,0.0,0.25,0.0,0.0,0.0,0.5,0.25,0.0,-0.17,0.77,-0.42,28.29,-25.8,9.0
3.14,0.0,0.0,0.75,0.5,0.0,0.0,0.0,0.0,0.0,1.25,0.0,0.75,0.0,0.2,1.02,-0.67,55.25,7.7,-30.0,0.25,0.0,0.75,0.0,0.0,0.0,0.25,0.0,0.0,0.0,0.25,0.25,0.25,-0.17,0.83,-0.48,27.28,-22.9,-0.3
3.16,0.0,0.0,0.75,0.5,0.0,0.0,0.0,0.0,0.0,1.5,0.5,0.75,0.0,0.2,1.02,-0.67,56.14,6.6,-38.3,0.25,0.0,0.75,0.0,0.0,0.0,0.25,0.0,0.25,0.0,0.5,0.25,0.0,-0.42,0.83,-0.36,28.61,-24.7,0.0
3.18,0.0,0.0,0.75,0.5,0.0,0.0,0.0,0.0,0.0,1.0,0.5,0.25,0.0,0.27,0.95,-0.67,51.8,10.0,-20.4,0.25,0.0,0.75,0.0,0.0,0.0,0.25,0.0,0.0,0.0,0.25,0.25,0.25,-0.17,0.77,-0.48,30.12,-22.9,-0.3
3.2,0.0,0.0,1.0,0.75,0.0,0.0,0.0,0.0,0.0,1.25,0.5,0.5,0.0,0.2,0.95,-0.61,54.74,10.6,-19.0,0.25,0.0,0.75,0.0,0.25,0.0,0.25,0.0,0.0,0.0,0.25,0.25,0.25,-0.11,0.83,-0.48,31.63,-19.4,6.8
3.22,0.0,0.0,1.0,1.0,0.0,0.0,0.0,0.0,0.0,1.25,0.5,0.5,0.0,0.2,0.89,-0.48,58.08,11.0,-14.4,0.25,0.0,0.5,0.0,0.0,0.0,0.25,0.0,0.0,0.0,0.25,0.25,0.25,-0.05,0.83,-0.48,29.14,-20.4,-10.1
3.24,0.0,0.0,1.0,0.75,0.0,0.0,0.0,0.0,0.0,1.25,0.25,0.5,0.0,0.2,0.83,-0.48,60.35,10.6,-15.5,0.25,0.0,1.25,0.0,0.0,0.0,0.25,0.0,0.0,0.0,0.25,0.5,0.0,-0.11,0.83,-0.42,31.18,-28.7,13.3
3.26,0.0,0.0,0.75,0.75,0.0,0.0,0.0,0.0,0.0,1.5,0.5,0.5,0.0,0.2,0.83,-0.42,61.21,7.2,-27.6,0.5,0.0,0.5,0.0,0.5,0.0,0.25,0.0,0.0,0.0,0.75,0.25,0.0,-0.05,0.89,-0.48,34.44,-18.1,11.0
3.28,0.0,0.0,1.0,0.5,0.0,0.0,0.0,0.0,0.0,1.0,0.0,0.5,0.0,0.2,0.77,-0.36,56.76,12.1,-12.1,0.25,0.0,0.5,0.0,0.0,0.0,0.25,0.0,0.0,0.0,0.25,0.25,0.0,-0.11,0.89,-0.42,32.86,-26.9,8.8
3.3,0.0,0.0,1.0,0.75,0.0,0.0,0.0,0.0,0.0,1.25,1.0,0.75,0.0,0.2,0.77,-0.23,61.21,10.5,-29.5,0.5,0.0,0.5,0.0,0.0,0.0,0.25,0.0,0.0,0.0,0.25,0.25,0.25,-0.17,0.83,-0.36,31.97,-22.2,3.5
3.32,0.0,0.0,1.0,1.0,0.0,0.0,0.0,0.0,0.0,1.25,0.0,0.5,0.0,0.33,0.7,-0.3,60.85,11.0,-6.6,0.5,0.0,0.5,0.0,0.0,0.0,0.5,0.0,0.0,0.0,0.25,0.25,0.0,-0.11,0.89,-0.42,29.48,-28.4,22.2
3.34,0.0,0.0,0.75,1.0,0.0,0.0,0.0,0.0,0.0,1.25,0.0,0.5,0.0,0.14,0.7,-0.36,60.85,9.0,-11.5,0.5,0.0,1.25,0.0,0.0,0.0,0.25,0.0,0.0,0.0,0.25,0.25,0.25,-0.11,0.89,-0.42,33.86,-27.0,20.4
3.36,0.0,0.0,1.0,1.0,0.0,0.0,0.0,0.0,0.0,1.0,0.0,0.5,0.0,0.27,0.77,-0.36,59.11,12.9,-1.8,0.0,0.0,0.75,0.0,0.0,0.0,0.25,0.0,0.0,0.0,0.25,0.25,0.0,-0.17,0.89,-0.36,30.41,-27.6,3.4
3.38,0.0,0.0,1.0,0.75,0.0,0.0,0.0,0.0,0.0,1.0,0.5,0.25,0.0,0.27,0.83,-0.36,57.55,12.5,-8.7,0.5,0.0,0.5,0.0,0.0,0.0,0.25,0.0,0.0,0.0,0.25,0.25,0.0,-0.17,0.95,-0.42,29.86,-28.1,21.8
3.4,0.0,0.0,1.0,1.0,0.0,0.0,0.0,0.0,0.0,1.0,0.5,0.5,0.0,0.27,0.89,-0.42,58.03,12.6,-10.6,0.5,0.0,0.5,0.0,0.0,0.0,0.25,0.0,0.0,0.0,0.25,0.25,0.0,-0.17,0.89,-0.42,26.82,-28.1,21.8
3.42,0.0,0.0,1.0,0.75,0.0,0.0,0.0,0.0,0.0,1.25,0.5,0.5,0.0,0.2,0.89,-0.42,59.82,10.6,-19.0,0.5,0.0,0.5,0.0,0.25,0.0,0.25,0.0,0.0,0.0,0.75,0.5,0.25,-0.17,0.95,-0.36,32.28,-16.6,-14.5
3.44,0.0,0.0,1.0,0.25,0.0,0.0,0.0,0.0,0.0,1.0,0.0,0.5,0.0,0.2,0.95,-0.42,54.5,11.7,-18.7,0.5,0.0,0.5,0.0,0.0,0.0,0.25,0.0,0.0,0.0,0.5,0.25,0.25,-0.23,0.95,-0.42,33.14,-20.9,-5.6
3.46,0.0,0.0,1.0,1.0,0.0,0.0,0.0,0.0,0.0,1.0,0.5,0.75,0.0,0.2,0.95,-0.42,57.1,12.4,-16.3,0.0,0.0,1.25,0.0,0.0,0.0,0.25,0.0,0.0,0.0,0.5,0.25,0.25,-0.23,0.95,-0.36,37.05,-23.8,-4.3
3.48,0.0,0.0,1.0,1.0,0.0,0.0,0.0,0.0,0.0,1.0,0.5,0.75,0.0,0.2,1.02,-0.42,59.7,12.4,-16.3,0.25,0.0,0.25,0.0,0.0,0.0,0.25,0.0,0.0,0.0,0.25,0.25,0.0,-0.17,1.02,-0.36,30.44,-24.2,-3.3
3.5,0.0,0.0,1.0,1.0,0.0,0.0,0.0,0.0,0.25,1.25,0.0,0.75,0.0,0.2,0.95,-0.42,63.79,10.9,-14.4,0.25,0.0,1.0,0.0,0.0,0.0,0.25,0.0,0.0,0.0,0.5,0.25,0.25,-0.17,1.02,-0.42,32.2,-23.3,-1.3
3.52,0.0,0.0,1.0,0.75,0.0,0.0,0.0,0.0,0.0,1.0,0.25,0.5,0.0,0.2,0.95,-0.36,62.23,12.4,-11.2,0.25,0.0,0.5,0.0,0.0,0.0,0.25,0.0,0.0,0.0,0.25,0.25,0.25,-0.17,1.02,-0.42,29.11,-20.4,-10.1
3.54,0.0,0.0,1.0,1.0,0.0,0.0,0.0,0.0,0.0,1.0,0.25,0.5,0.0,0.14,0.95,-0.36,61.28,12.7,-6.5,0.25,0.0,0.5,0.0,0.0,0.0,0.25,0.0,0.0,0.0,0.25,0.25,0.25,-0.17,1.02,-0.42,28.03,-20.4,-10.1
3.56,0.0,0.0,0.75,0.75,0.0,0.0,0.0,0.0,0.0,1.0,0.5,0.5,0.25,0.2,0.95,-0.36,59.45,8.8,-26.9,0.0,0.0,0.5,0.0,0.0,0.0,0.25,0.0,0.0,0.0,0.25,0.25,0.25,-0.17,0.95,-0.42,24.4,-18.0,-28.3
3.58,0.0,0.0,1.0,1.0,0.0,0.0,0.0,0.0,0.0,1.25,0.5,0.5,0.0,0.2,0.95,-0.36,61.52,11.0,-14.4,0.5,0.0,0.5,0.0,0.0,0.0,0.25,0.0,0.0,0.0,0.25,0.5,0.0,-0.17,0.95,-0.36,25.26,-25.5,4.0
3.6,0.0,0.0,0.75,0.5,0.0,0.0,0.0,0.0,0.0,1.25,0.0,0.5,0.0,0.27,1.02,-0.36,56.79,7.6,-23.5,0.25,0.0,0.75,0.0,0.0,0.0,0.25,0.0,0.0,0.0,0.25,0.25,0.25,-0.23,0.95,-0.42,26.64,-22.9,-0.3
3.62,0.0,0.0,1.0,1.0,0.0,0.0,0.0,0.0,0.0,1.0,0.5,0.5,0.0,0.27,1.02,-0.3,58.58,12.6,-10.6,0.5,0.0,0.5,0.0,0.0,0.0,0.25,0.0,0.0,0.0,0.25,0.25,0.0,-0.17,0.95,-0.42,26.66,-28.1,21.8
3.64,0.0,0.0,1.0,1.0,0.0,0.0,0.0,0.0,0.0,1.25,0.5,0.5,0.0,0.2,1.02,-0.3,59.98,11.0,-14.4,0.25,0.0,0.5,0.0,0.0,0.0,0.25,0.0,0.0,0.0,0.25,0.25,0.25,-0.23,0.95,-0.42,26.02,-20.4,-10.1
3.66,0.0,0.0,1.0,1.0,0.0,0.0,0.0,0.0,0.0,1.25,0.5,0.5,0.0,0.27,1.02,-0.3,63.72,11.0,-14.4,0.25,0.0,0.25,0.0,0.0,0.0,0.25,0.0,0.0,0.0,0.25,0.25,0.25,-0.23,0.95,-0.36,23.24,-17.0,-23.5
3.68,0.0,0.0,1.0,1.0,0.0,0.0,0.0,0.0,0.0,1.0,0.5,0.5,0.0,0.27,1.02,-0.3,64.7,12.6,-10.6,0.0,0.0,0.5,0.0,0.0,0.0,0.25,0.0,0.0,0.0,0.25,0.25,0.0,-0.23,0.95,-0.36,20.78,-25.2,-9.6
3.7,0.0,0.0,0.75,1.0,0.0,0.0,0.0,0.0,0.25,1.5,0.5,0.5,0.0,0.27,1.02,-0.36,66.25,8.0,-23.3,0.25,0.0,0.5,0.0,0.0,0.0,0.25,0.0,0.25,0.0,0.25,0.25,0.0,-0.23,0.95,-0.36,21.08,-24.6,1.5
3.72,0.0,0.0,1.0,1.0,0.0,0.0,0.0,0.0,0.5,1.25,0.25,0.25,0.0,0.27,1.02,-0.36,67.1,11.2,-8.2,0.0,0.0,0.5,0.0,0.0,0.0,0.25,0.0,0.0,0.0,0.25,0.25,0.25,-0.23,0.95,-0.36,21.19,-18.0,-28.3
3.74,0.0,0.0,1.0,1.0,0.0,0.0,0.0,0.0,0.5,1.25,0.5,0.5,0.0,0.33,1.02,-0.3,70.2,11.1,-16.8,0.25,0.0,0.25,0.0,0.25,0.0,0.25,0.0,0.0,0.0,0.25,0.25,0.0,-0.3,0.95,-0.36,21.14,-18.5,8.4
3.76,0.0,0.0,1.0,0.5,0.0,0.0,0.0,0.0,0.25,1.0,0.0,0.5,0.0,0.27,0.95,-0.3,65.32,12.1,-14.1,0.25,0.0,0.5,0.0,0.0,0.0,0.25,0.0,0.25,0.0,0.25,0.25,0.25,-0.3,0.95,-0.36,24.12,-19.3,-13.8
3.78,0.0,0.0,1.0,1.0,0.0,0.0,0.0,0.0,0.5,1.0,1.0,0.5,0.25,0.27,1.02,-0.3,69.88,11.1,-24.0,0.0,0.0,0.5,0.0,0.0,0.0,0.25,0.0,0.0,0.0,0.25,0.25,0.25,-0.3,0.95,-0.36,23.75,-18.0,-28.3
3.8,0.0,0.0,1.0,0.75,0.0,0.0,0.0,0.0,0.5,1.25,0.5,0.5,0.0,0.2,1.02,-0.3,69.47,10.7,-21.2,0.0,0.0,0.0,0.0,0.0,0.0,0.25,0.0,0.0,0.0,0.25,0.25,0.0,-0.36,0.89,-0.36,19.2,-14.2,-69.3
3.82,0.0,0.0,0.75,1.0,0.0,0.0,0.0,0.0,0.5,1.0,0.0,0.5,0.0,0.2,0.95,-0.3,67.99,11.1,-10.8,0.25,0.0,0.5,0.0,0.0,0.0,0.25,0.0,0.0,0.0,0.25,0.25,0.0,-0.36,0.89,-0.36,18.22,-26.9,8.8
3.84,0.0,0.0,1.0,0.75,0.0,0.0,0.0,0.0,0.25,1.0,0.25,0.5,0.0,0.2,0.95,-0.3,64.41,12.4,-13.0,0.0,0.0,0.5,0.0,0.0,0.0,0.25,0.0,0.0,0.0,0.25,0.25,0.0,-0.3,0.89,-0.42,16.95,-25.2,-9.6
3.86,0.0,0.0,1.0,1.0,0.0,0.0,0.0,0.0,0.25,1.0,0.25,0.5,0.0,0.14,1.02,-0.3,62.29,12.7,-8.4,0.25,0.0,0.5,0.0,0.0,0.0,0.25,0.0,0.0,0.0,0.5,0.25,0.25,-0.36,0.89,-0.36,21.07,-19.2,-18.6
3.88,0.0,0.0,1.0,1.0,0.0,0.0,0.0,0.0,0.25,1.0,0.5,0.5,0.0,0.14,1.02,-0.3,62.26,12.6,-12.2,0.5,0.0,0.5,0.0,0.0,0.0,0.25,0.0,0.0,0.0,0.25,0.25,0.25,-0.36,0.83,-0.36,24.89,-22.2,3.5
3.9,0.0,0.0,1.0,1.0,0.0,0.0,0.0,0.0,0.25,1.0,0.5,0.5,0.0,0.14,1.02,-0.3,63.7,12.6,-12.2,0.25,0.0,0.5,0.0,0.0,0.0,0.25,0.0,0.0,0.0,0.75,0.25,0.0,-0.36,0.83,-0.36,28.61,-22.6,-13.3
3.92,0.0,0.0,1.0,0.5,0.0,0.0,0.0,0.0,0.0,1.0,0.5,0.5,0.0,0.14,1.02,-0.36,61.24,11.9,-20.8,0.25,0.0,0.5,0.0,0.0,0.0,0.25,0.0,0.0,0.0,0.5,0.25,0.0,-0.36,0.89,-0.36,28.55,-24.4,-3.9
3.94,0.0,0.0,1.0,0.75,0.0,0.0,0.0,0.0,0.0,1.0,0.5,0.25,0.0,0.14,1.08,-0.23,58.08,12.5,-8.7,0.0,0.0,0.5,0.0,0.0,0.0,0.25,0.0,0.0,0.0,0.25,0.25,0.25,-0.36,0.89,-0.36,26.33,-18.0,-28.3
3.96,0.0,0.0,0.75,1.0,0.0,0.0,0.0,0.0,0.25,1.0,0.5,0.5,0.0,0.14,1.02,-0.3,57.43,11.0,-16.9,0.0,0.0,0.25,0.0,0.0,0.0,0.25,0.0,0.0,0.0,0.5,0.25,0.0,-0.36,0.89,-0.36,23.02,-19.0,-40.4
3.98,0.0,0.0,0.75,1.0,0.0,0.0,0.0,0.0,0.25,1.0,0.5,0.5,0.0,0.14,1.02,-0.3,58.25,11.0,-16.9,0.5,0.0,0.5,0.0,0.0,0.0,0.25,0.0,0.0,0.0,0.25,0.25,0.0,-0.36,0.89,-0.36,23.07,-28.1,21.8
4.0,0.0,0.0,0.75,0.75,0.0,0.0,0.0,0.0,0.25,1.0,0.5,0.5,0.0,0.08,0.95,-0.3,58.62,10.5,-22.0,0.0,0.0,0.5,0.0,0.0,0.0,0.25,0.0,0.0,0.0,0.25,0.25,0.0,-0.3,0.95,-0.42,21.1,-25.2,-9.6
4.02,0.0,0.0,1.0,1.0,0.0,0.0,0.0,0.0,0.25,1.25,0.5,0.5,0.0,0.08,0.95,-0.3,61.66,11.0,-15.7,0.0,0.0,0.5,0.0,0.0,0.0,0.25,0.0,0.0,0.0,0.5,0.25,0.25,-0.3,0.95,-0.42,23.2,-16.9,-35.3
4.04,0.0,0.0,0.75,1.0,0.0,0.0,0.0,0.0,0.25,0.75,0.5,0.75,0.0,0.08,0.95,-0.3,62.94,12.5,-18.9,0.25,0.0,0.5,0.0,0.0,0.0,0.25,0.0,0.25,0.0,0.25,0.25,0.25,-0.3,0.95,-0.42,25.32,-19.3,-13.8
4.06,0.0,0.0,0.75,0.75,0.0,0.0,0.0,0.0,0.0,1.0,0.5,0.5,0.0,0.08,0.95,-0.3,60.98,10.4,-20.9,0.25,0.0,0.0,0.0,0.5,0.0,0.25,0.0,0.0,0.0,0.5,0.25,0.0,-0.3,0.95,-0.36,26.32,-10.5,-4.0
4.08,0.0,0.0,0.75,0.75,0.0,0.0,0.0,0.0,0.0,1.0,0.0,0.5,0.25,0.08,0.95,-0.3,56.37,8.5,-19.8,0.25,0.0,0.25,0.0,0.0,0.0,0.25,0.0,0.0,0.0,0.25,0.25,0.25,-0.3,0.89,-0.36,24.9,-17.0,-23.5
4.1,0.0,0.0,1.0,1.0,0.0,0.0,0.0,0.0,0.0,1.0,0.5,0.25,0.0,0.14,1.02,-0.3,55.75,12.9,-4.1,0.5,0.0,0.25,0.0,0.0,0.0,0.25,0.0,0.0,0.0,0.25,0.25,0.25,-0.3,0.89,-0.36,24.46,-19.7,-5.7
4.12,0.0,0.0,1.0,1.0,0.0,0.0,0.0,0.0,0.0,0.75,0.5,0.25,0.0,0.14,1.02,-0.3,54.85,14.9,0.8,0.0,0.0,0.5,0.0,0.0,0.0,0.25,0.0,0.0,0.0,0.25,0.25,0.25,-0.23,0.89,-0.36,23.0,-18.0,-28.3
4.14,0.0,0.0,1.0,1.0,0.0,0.0,0.0,0.0,0.0,0.75,0.5,0.5,0.0,0.14,1.02,-0.3,56.82,14.5,-6.3,0.5,0.0,0.5,0.0,0.0,0.0,0.25,0.0,0.0,0.0,0.25,0.25,0.0,-0.23,0.89,-0.36,24.09,-28.1,21.8
4.16,0.0,0.0,0.75,1.0,0.0,0.0,0.0,0.0,0.0,1.0,0.5,0.25,0.0,0.14,1.02,-0.3,56.97,11.0,-8.9,0.0,0.0,0.25,0.0,0.0,0.0,0.25,0.0,0.0,0.0,0.25,0.25,0.25,-0.3,0.89,-0.36,22.43,-13.3,-48.7
4.18,0.0,0.0,1.0,1.0,0.0,0.0,0.0,0.0,0.0,1.0,0.5,0.25,0.0,0.14,0.95,-0.3,57.73,12.9,-4.1,0.0,0.0,0.0,0.0,0.0,0.0,0.25,0.0,0.0,0.0,0.25,0.25,0.0,-0.3,0.89,-0.36,18.53,-14.2,-69.3
