time,left pressure 0[N/cm²],left pressure 1[N/cm²],left pressure 2[N/cm²],left pressure 3[N/cm²],left pressure 4[N/cm²],left pressure 5[N/cm²],left pressure 6[N/cm²],left pressure 7[N/cm²],left pressure 8[N/cm²],left pressure 9[N/cm²],left pressure 10[N/cm²],left pressure 11[N/cm²],left pressure 12[N/cm²],left acceleration X[g],left acceleration Y[g],left acceleration Z[g],left total force[N],left center of pressure X[mm],left center of pressure Y[mm],right pressure 0[N/cm²],right pressure 1[N/cm²],right pressure 2[N/cm²],right pressure 3[N/cm²],right pressure 4[N/cm²],right pressure 5[N/cm²],right pressure 6[N/cm²],right pressure 7[N/cm²],right pressure 8[N/cm²],right pressure 9[N/cm²],right pressure 10[N/cm²],right pressure 11[N/cm²],right pressure 12[N/cm²],right acceleration X[g],right acceleration Y[g],right acceleration Z[g],right total force[N],right center of pressure X[mm],right center of pressure Y[mm]
0.02,0.0,1.75,0.75,6.5,6.0,5.0,0.5,6.25,2.0,3.5,2.25,1.25,1.5,-0.17,0.08,0.95,443.39,-2.0,2.7,0.0,0.0,0.0,0.0,0.0,0.0,0.0,0.0,0.5,5.5,1.5,4.25,3.25,-0.3,0.02,0.52,161.65,4.8,-91.6
0.04,0.0,1.5,2.5,7.25,7.0,5.25,0.5,6.0,1.5,3.25,2.0,0.75,0.75,-0.17,0.08,0.95,482.74,0.0,13.0,1.25,0.0,0.75,0.0,1.25,0.0,0.75,2.5,0.25,8.0,5.75,5.5,6.5,0.2,0.45,2.45,276.02,2.1,-68.8
0.06,0.0,2.25,3.25,8.0,8.0,6.0,0.5,6.0,1.25,2.75,1.25,0.75,0.25,-0.17,0.08,0.95,538.71,0.8,22.3,0.0,0.0,1.5,0.0,1.75,0.5,0.75,5.25,1.0,8.5,7.25,6.0,6.5,0.02,0.33,1.39,412.01,3.0,-66.3
0.08,0.25,3.25,3.5,9.0,8.0,6.0,0.25,5.25,1.25,2.0,1.25,0.75,0.25,-0.17,0.08,1.02,589.01,2.5,28.5,0.5,0.0,1.25,0.5,1.75,0.5,0.25,6.0,1.75,8.75,8.25,6.0,7.75,0.08,0.08,1.02,586.01,2.9,-64.9
0.1,0.75,3.25,4.0,9.25,8.5,6.0,0.25,4.75,0.75,1.75,1.25,0.75,0.25,-0.23,0.14,1.02,635.65,3.5,32.3,1.25,0.0,2.0,0.0,3.0,2.0,1.25,6.75,1.75,9.25,8.75,6.0,7.75,0.08,0.08,0.95,740.52,2.3,-54.5
0.12,2.0,4.25,4.25,10.0,8.5,6.0,0.25,4.5,0.75,1.75,1.0,0.75,0.25,-0.23,0.2,1.08,687.3,5.0,37.0,1.25,0.25,1.25,1.25,3.5,2.75,1.25,7.25,3.0,9.25,9.0,6.25,7.75,0.14,0.08,0.95,871.71,2.3,-50.2
0.14,2.5,4.5,4.25,10.5,0.0,5.75,0.25,3.25,0.75,1.75,0.75,0.75,0.25,-0.23,0.2,1.14,654.01,8.8,37.5,1.5,0.75,2.75,1.5,4.75,2.75,1.75,7.75,3.25,9.25,9.25,6.0,7.75,0.14,0.08,1.02,979.78,0.8,-41.7
0.16,3.5,4.75,5.0,10.5,0.0,5.25,0.0,3.0,0.75,1.5,0.75,0.75,0.25,-0.23,0.2,1.14,621.99,10.9,41.4,2.0,1.0,3.25,1.5,4.75,3.75,1.75,8.25,3.5,8.75,9.0,6.0,7.5,0.14,0.08,0.95,1060.45,0.5,-37.2
0.18,2.5,4.75,5.25,9.25,0.0,4.75,0.0,3.0,0.75,1.5,0.5,0.0,0.25,-0.3,0.27,1.14,558.41,10.7,43.7,2.0,1.0,4.5,2.0,5.25,4.25,2.25,8.25,3.5,8.5,8.75,5.5,6.5,0.14,0.08,0.95,1108.74,-0.5,-30.6
0.2,4.0,5.0,5.25,9.5,0.0,0.0,0.0,2.25,0.75,1.5,0.0,0.0,0.25,-0.3,0.27,1.14,495.12,17.8,52.5,2.5,1.0,4.75,2.75,5.25,4.75,2.25,8.0,3.25,8.0,8.25,4.75,6.0,0.2,0.08,0.95,1110.1,-1.0,-25.2
0.22,3.25,5.25,4.25,9.25,0.0,0.0,0.0,1.5,0.75,1.5,0.5,0.0,0.25,-0.36,0.33,1.2,427.96,17.4,51.7,2.5,1.0,5.0,3.75,5.75,4.75,2.25,7.5,3.0,7.5,7.25,4.0,5.25,0.2,0.08,0.95,1077.59,-1.6,-19.0
0.24,2.75,4.75,2.75,9.0,0.0,0.0,0.0,1.25,0.75,1.25,0.5,0.75,0.25,-0.55,0.39,1.52,375.03,16.3,46.4,2.75,1.0,5.25,4.0,6.25,5.0,2.25,7.25,2.75,6.5,6.5,3.0,4.25,0.2,0.08,0.95,1015.51,-2.2,-11.6
0.26,1.0,2.0,3.25,7.0,0.0,0.0,0.0,1.25,0.5,1.25,0.5,0.75,0.25,-0.67,0.45,1.77,303.07,15.7,33.9,2.75,1.5,6.25,5.0,6.25,5.0,2.25,7.0,2.25,5.5,5.25,2.25,3.25,0.2,0.08,0.95,944.46,-3.7,-1.6
0.28,0.0,0.0,1.75,4.75,0.0,0.0,0.0,0.0,0.75,1.25,0.5,0.0,0.25,-0.73,1.33,2.58,221.35,15.3,22.1,3.0,1.5,6.5,5.75,6.25,5.0,2.25,6.25,1.75,4.75,3.75,1.75,2.5,0.2,0.14,0.95,863.33,-4.7,6.8
0.3,0.0,0.5,1.75,2.5,0.0,0.0,0.0,0.0,0.75,1.5,0.5,0.75,0.0,-0.48,1.14,3.14,139.22,14.0,6.2,3.0,2.0,7.0,6.25,6.25,4.75,2.25,6.0,1.75,3.75,3.25,1.75,1.5,0.14,0.14,0.95,804.72,-6.3,13.9
0.32,0.0,0.5,0.75,0.0,0.0,0.0,0.0,1.25,0.75,1.5,0.5,0.75,0.25,-0.8,-0.11,1.89,62.56,1.4,-38.1,4.25,2.0,7.5,7.0,6.5,5.0,2.25,5.25,1.5,3.0,1.5,1.0,0.0,0.14,0.14,0.95,750.55,-8.5,29.5
0.34,0.0,0.0,0.0,0.75,0.0,0.0,0.25,1.0,0.0,1.5,0.5,0.75,0.25,-0.98,-0.42,2.58,11.58,-2.9,-51.1,4.25,2.0,8.0,7.75,7.5,5.25,2.25,5.25,1.0,2.5,1.75,1.0,0.0,0.14,0.14,0.95,728.34,-8.7,32.1
0.36,0.0,0.5,0.0,1.5,0.0,0.0,3.75,5.0,2.25,1.0,2.0,0.5,0.0,-0.36,-0.92,1.7,37.51,3.0,-25.0,5.25,2.75,8.5,8.5,7.75,5.0,2.0,4.0,1.0,1.5,1.5,0.75,0.75,0.14,0.14,0.95,728.54,-10.5,38.2
0.38,0.0,0.0,0.0,2.75,0.0,0.0,4.0,4.75,3.25,1.75,2.25,0.5,0.0,-0.42,-0.61,0.58,96.11,4.1,-25.6,4.75,2.0,9.0,9.25,7.5,4.75,1.25,2.75,1.0,1.25,0.5,0.75,0.0,0.14,0.14,0.95,715.43,-12.0,44.9
0.4,0.0,0.0,1.0,1.5,0.0,0.0,3.75,0.0,3.5,1.0,2.25,0.0,0.0,-0.48,-0.48,0.39,118.11,15.8,-15.4,6.5,3.5,10.0,9.75,8.0,4.75,1.75,3.25,0.75,1.0,1.5,0.75,0.75,0.14,0.14,0.95,757.33,-12.7,44.2
0.42,0.0,0.0,0.0,1.75,0.0,0.0,4.25,5.0,3.5,1.0,0.75,0.0,0.0,-0.42,-0.42,0.33,143.83,3.4,-21.0,7.25,3.75,11.0,11.0,8.75,4.75,1.75,2.5,0.5,1.25,0.5,0.5,0.75,0.08,0.14,1.02,815.03,-13.6,49.7
0.44,0.0,0.0,0.0,1.0,0.0,0.0,3.75,5.0,3.0,1.0,0.75,0.0,0.0,-0.42,-0.36,0.64,151.25,1.6,-26.2,7.25,4.25,10.5,12.0,9.0,4.75,1.25,2.5,0.5,0.25,1.25,0.25,0.75,0.08,0.2,1.02,882.56,-13.8,51.7
0.46,1.0,0.0,0.0,1.75,0.0,0.0,4.0,4.75,3.0,0.75,0.0,0.5,0.0,-0.42,-0.3,0.89,164.9,5.5,-11.7,8.0,5.25,10.5,12.5,9.25,4.25,1.25,2.5,0.5,0.0,0.75,0.5,0.75,0.08,0.2,1.02,944.22,-14.4,54.3
0.48,1.0,0.0,0.75,1.75,0.0,0.0,3.25,4.75,3.0,0.0,1.0,0.0,0.0,-0.48,-0.11,0.89,178.68,8.0,-6.1,8.25,5.25,12.5,13.0,9.0,3.75,1.25,1.75,0.25,0.0,0.75,0.25,0.75,0.08,0.27,1.02,999.75,-16.2,57.2
0.5,0.0,0.0,0.0,0.0,0.0,0.0,4.0,4.75,3.25,0.75,0.0,0.0,0.0,-0.48,0.08,0.95,182.76,0.9,-29.3,8.5,5.25,13.0,13.0,9.0,2.75,1.25,1.25,0.25,0.0,0.75,0.25,0.5,0.02,0.27,1.08,1026.6,-17.6,59.4
0.52,0.5,0.0,0.5,1.25,0.0,0.0,4.0,4.75,3.0,1.0,0.75,0.5,0.0,-0.48,0.2,1.33,193.47,5.2,-19.6,9.0,5.5,12.5,13.0,9.0,2.5,1.0,1.0,0.25,0.0,0.25,0.25,0.75,0.02,0.27,1.08,1035.47,-17.7,60.8
0.54,0.0,0.0,0.75,0.5,0.0,0.0,1.5,3.5,3.0,1.0,0.0,0.5,0.0,-0.48,0.33,1.52,177.28,2.7,-28.3,8.25,4.5,12.5,11.5,8.25,0.0,1.0,1.0,0.25,0.0,0.25,0.25,0.0,0.08,0.33,1.2,976.59,-20.4,63.7
0.56,0.0,0.0,0.25,0.75,0.0,0.0,3.75,1.5,0.25,0.0,0.25,0.0,0.0,-0.55,0.45,1.7,143.45,12.8,5.0,8.25,4.5,13.0,9.5,8.0,0.0,1.25,1.0,0.0,0.0,0.5,0.0,0.0,0.14,0.39,1.27,901.73,-21.0,64.6
0.58,1.0,0.0,0.0,1.75,0.0,0.0,0.0,0.0,3.0,0.0,0.0,0.0,0.0,-0.67,0.64,2.08,108.39,17.5,14.5,8.25,3.5,11.0,9.5,6.25,1.25,1.0,0.0,0.25,0.0,0.5,0.0,0.0,0.14,0.45,1.39,794.44,-21.1,65.6
0.6,0.0,0.0,0.0,0.0,0.0,0.0,4.25,4.5,3.0,0.0,0.0,0.0,0.0,-0.61,1.08,2.52,96.96,2.7,-24.5,7.5,3.0,11.0,7.75,6.25,1.5,1.25,0.75,0.25,0.0,0.5,0.25,0.0,0.27,0.52,1.64,705.98,-20.1,61.7
0.62,1.0,0.0,0.0,1.5,0.0,0.0,4.25,4.5,3.0,0.75,0.0,0.5,0.0,-0.61,1.89,2.83,121.8,5.9,-12.2,4.25,2.0,8.5,3.5,5.5,0.75,1.5,0.5,0.0,0.0,0.5,0.0,0.0,0.33,1.27,2.33,550.35,-20.0,61.2
0.64,1.0,0.0,0.75,1.5,0.0,0.0,3.5,4.75,3.25,1.0,0.5,0.5,0.0,-0.73,3.02,2.39,160.06,6.5,-13.3,3.0,0.5,6.5,2.0,3.5,0.25,1.25,1.0,0.25,0.0,0.5,0.25,0.0,0.39,1.58,2.58,383.79,-20.6,51.8
0.66,0.75,0.0,0.5,1.5,0.0,0.0,3.75,4.75,3.25,1.0,0.0,0.0,0.0,-0.61,4.95,0.27,182.34,5.4,-10.5,1.75,0.0,5.0,1.0,3.5,0.25,1.0,1.0,0.25,0.0,0.0,0.25,0.0,-0.05,0.33,2.39,259.14,-18.2,49.4
0.68,0.0,0.0,0.0,0.0,0.0,0.0,3.5,2.5,0.0,0.0,0.0,0.0,0.0,0.83,6.08,-0.11,152.39,2.9,-12.2,0.5,0.0,2.25,0.0,0.0,0.0,1.0,1.0,0.25,0.0,0.0,0.0,0.0,0.14,-0.17,2.02,125.31,-23.6,33.6
0.7,0.0,0.0,0.0,0.0,0.0,0.0,0.0,0.0,0.0,0.0,0.0,0.0,0.0,1.39,6.52,0.08,92.68,0.0,0.0,1.5,0.0,0.75,1.25,2.5,0.0,1.0,1.0,0.25,0.0,0.5,0.0,0.0,0.77,-0.67,2.27,37.0,-11.4,39.9
0.72,0.0,0.0,0.0,0.0,0.0,0.0,0.0,0.0,0.0,0.0,0.0,0.0,0.0,-0.55,-0.73,2.33,32.98,0.0,0.0,1.5,0.25,2.0,1.25,3.0,0.0,0.75,1.0,0.25,0.0,0.25,0.25,0.25,0.64,-1.11,1.58,3.38,-13.0,40.3
0.74,0.0,0.0,0.0,0.0,0.0,0.0,0.0,0.0,0.0,0.0,0.0,0.0,0.0,0.2,0.39,0.83,0.0,0.0,0.0,1.25,0.25,2.0,1.25,1.75,0.0,0.75,1.0,0.25,0.0,0.5,0.25,0.25,0.39,-0.92,1.02,5.31,-14.9,33.8
0.76,0.0,0.0,0.0,0.75,0.0,0.0,0.0,0.0,0.25,0.0,0.0,0.0,0.0,-0.17,0.58,2.77,0.0,16.0,34.8,1.25,0.25,1.75,0.75,1.75,0.0,0.75,1.0,0.25,0.0,0.25,0.25,0.25,0.27,-0.67,0.7,11.86,-14.1,34.7
0.78,0.0,0.0,0.0,0.5,0.0,0.0,5.0,4.0,1.75,6.75,6.25,4.25,4.0,-0.36,0.39,1.52,147.57,-0.6,-67.4,1.25,0.25,1.75,1.0,1.25,0.0,0.75,1.0,0.25,0.25,0.25,0.25,0.5,0.2,-0.48,0.64,28.31,-13.7,26.6
0.8,0.0,0.0,0.0,0.5,0.0,0.0,0.25,5.25,1.5,6.75,6.25,4.5,5.25,-0.23,0.08,1.02,274.79,-4.3,-75.8,1.25,0.25,1.75,0.25,1.5,0.0,0.75,1.0,0.25,0.0,0.25,0.25,0.25,0.08,-0.3,0.83,34.74,-14.6,32.3
0.82,0.0,0.0,0.0,1.0,0.0,1.0,0.5,6.0,3.0,6.75,6.75,4.75,5.0,-0.23,0.02,0.95,408.19,-3.6,-67.9,1.25,0.0,1.75,0.5,1.25,0.0,0.75,1.0,0.25,0.0,0.25,0.25,0.0,-0.05,-0.17,0.89,44.67,-16.5,35.2
0.84,0.0,0.0,0.0,0.0,0.0,1.5,0.5,6.0,3.5,6.75,7.0,4.5,5.25,-0.17,0.02,0.95,508.47,-4.3,-70.0,1.25,0.25,1.75,0.5,1.5,0.0,0.75,1.0,0.25,0.0,0.5,0.25,0.25,-0.17,-0.11,1.02,66.69,-14.6,29.9
0.86,0.0,0.5,1.0,2.5,0.0,1.5,0.75,6.5,4.25,6.75,7.0,4.0,5.0,-0.17,0.02,0.95,595.12,-1.4,-53.8,1.25,0.25,1.75,0.5,1.25,0.0,0.75,1.0,0.25,0.0,0.25,0.25,0.25,-0.3,0.02,1.14,91.15,-15.4,32.4
0.88,1.0,0.5,2.0,2.75,0.0,2.0,1.0,6.5,4.5,6.25,6.75,4.0,4.0,-0.17,0.02,0.95,637.89,0.8,-43.5,1.25,0.25,1.75,0.0,1.0,0.0,0.75,1.0,0.25,0.0,0.25,0.25,0.25,-0.36,0.14,1.45,101.99,-16.0,29.5
0.9,2.0,0.5,3.25,2.75,0.0,2.5,1.0,6.5,4.5,6.0,6.75,3.5,4.0,-0.17,0.02,0.95,683.06,2.5,-35.4,1.25,0.25,1.75,0.0,1.25,0.0,0.75,1.0,0.25,0.0,0.25,0.25,0.0,-0.36,0.33,1.7,106.81,-16.3,35.9
0.92,2.75,0.5,3.5,3.0,0.0,2.75,1.0,6.25,4.25,5.5,5.75,3.0,2.75,-0.17,0.02,0.95,693.41,3.7,-26.6,1.25,0.25,1.25,0.0,1.25,0.0,0.75,1.0,0.25,0.0,0.5,0.5,0.5,-0.3,0.52,2.14,110.29,-12.2,15.0
0.94,3.5,0.75,4.25,4.5,2.0,2.75,1.0,6.0,4.0,4.75,5.25,2.0,2.25,-0.17,0.02,0.95,700.25,5.5,-10.2,1.25,0.25,1.25,0.0,1.0,0.0,0.75,0.75,0.25,0.0,0.75,0.5,0.0,-0.23,1.02,2.89,101.54,-16.1,22.0
0.96,4.0,1.5,5.25,5.25,3.0,2.75,1.25,5.75,3.5,3.5,4.25,1.75,1.5,-0.17,0.02,0.95,697.08,7.6,3.8,1.25,0.25,1.0,0.0,0.5,0.0,0.75,0.75,0.25,0.0,0.25,0.25,0.5,-0.05,1.83,2.77,92.64,-15.0,19.0
0.98,4.75,1.75,5.25,6.5,1.25,3.0,1.0,5.25,3.25,3.25,3.25,1.5,1.0,-0.17,0.08,0.95,678.72,9.3,10.7,1.25,0.25,1.75,0.0,0.5,0.0,0.75,1.0,0.25,0.0,0.25,0.25,0.0,0.39,3.02,2.33,90.84,-19.2,33.3
1.0,6.0,1.75,6.0,6.25,2.75,2.75,1.0,4.5,2.5,2.25,2.5,0.75,0.25,-0.17,0.08,0.95,643.73,11.8,26.1,1.25,0.0,1.75,0.0,1.25,0.0,0.75,1.0,0.25,0.0,0.5,0.25,0.0,1.14,4.08,0.08,93.48,-16.3,29.5
1.02,6.75,1.75,7.0,7.75,4.25,2.75,1.0,4.5,1.75,1.75,2.25,0.75,0.25,-0.11,0.08,0.95,626.41,12.7,33.3,1.0,0.0,1.5,0.0,1.25,0.0,0.75,0.75,0.25,0.0,0.5,0.25,0.25,-0.23,4.52,-0.55,94.86,-14.8,22.6
1.04,7.25,3.0,7.25,8.0,4.0,2.25,1.0,3.25,1.5,1.75,1.5,0.75,0.25,-0.11,0.08,0.95,636.32,14.6,40.7,1.0,0.0,1.5,0.0,1.25,0.0,0.5,1.0,0.25,0.0,0.5,0.25,0.0,-1.92,4.14,0.52,96.71,-14.3,25.6
1.06,7.75,3.25,7.75,8.5,4.25,2.0,0.75,3.0,1.5,1.5,1.5,0.75,0.25,-0.11,0.14,1.02,655.51,15.5,43.4,1.0,0.25,1.75,0.0,1.5,0.0,0.5,1.0,0.25,1.0,0.5,0.25,0.5,-0.3,2.33,-0.11,107.78,-9.1,9.6
1.08,8.0,3.25,8.25,9.0,0.0,1.5,0.5,2.5,1.25,1.5,1.5,0.75,0.25,-0.17,0.14,1.02,637.12,19.2,44.7,1.25,0.0,0.5,0.0,0.5,0.0,0.5,1.0,0.0,2.25,1.5,1.75,1.25,0.77,-0.05,1.08,125.39,-2.7,-45.7
1.1,8.5,3.75,8.25,9.25,0.0,1.5,0.25,2.0,1.25,1.5,1.25,0.75,0.25,-0.17,0.14,1.02,619.18,19.8,48.0,1.5,0.0,0.75,0.5,1.75,1.25,0.75,2.25,0.5,7.25,3.75,3.5,4.5,-0.17,0.58,1.2,223.98,2.6,-51.6
1.12,8.75,4.5,8.5,9.25,0.0,1.5,0.25,1.5,0.75,1.5,1.25,0.75,0.25,-0.17,0.2,0.95,600.39,20.4,51.7,1.5,0.0,1.75,1.25,3.5,2.5,0.0,6.0,1.0,9.0,7.25,5.75,5.0,0.27,1.02,2.02,373.12,2.2,-45.8
1.14,8.75,4.25,8.25,8.75,0.0,1.25,0.0,1.25,0.75,0.25,1.25,0.75,0.0,-0.17,0.2,0.95,575.02,22.5,57.6,2.25,0.25,3.25,1.25,3.5,2.5,1.5,7.0,3.0,9.25,9.0,6.0,6.75,0.08,0.02,1.08,612.05,-0.1,-42.4
1.16,9.0,4.75,9.0,10.0,0.0,1.0,0.0,1.25,0.75,1.5,0.75,0.75,0.0,-0.17,0.2,0.95,577.51,21.7,56.0,2.75,0.75,5.0,1.25,3.75,2.5,2.0,7.0,3.0,8.75,9.0,5.5,6.5,0.08,0.14,1.02,824.67,-2.0,-34.7
1.18,9.0,4.75,9.0,9.75,0.0,0.5,0.0,1.25,0.5,1.5,0.75,0.75,0.25,-0.17,0.27,0.95,574.42,22.1,55.8,3.75,0.75,6.75,2.75,3.75,3.25,2.25,7.25,3.5,8.5,8.75,5.5,5.75,0.14,0.14,0.95,994.55,-3.9,-25.4
1.2,9.25,5.25,9.0,10.5,0.0,0.0,0.0,1.25,0.0,1.5,0.75,0.75,0.25,-0.17,0.27,1.02,584.57,22.7,58.1,4.25,1.0,7.75,3.75,3.75,3.75,2.25,7.5,3.5,8.0,8.5,4.5,5.25,0.14,0.14,0.95,1097.46,-4.9,-18.2
1.22,8.5,5.5,9.0,10.5,0.0,0.0,0.0,1.25,0.75,1.5,0.5,0.75,0.25,-0.17,0.27,1.02,589.14,22.2,56.7,5.25,1.0,8.5,4.0,5.25,3.75,2.75,7.0,3.5,7.5,7.75,4.25,4.25,0.14,0.08,0.95,1165.19,-6.2,-10.0
1.24,8.0,4.75,9.0,10.0,0.0,0.0,0.0,1.25,0.0,1.5,0.5,0.5,0.25,-0.23,0.33,1.2,575.87,22.7,58.3,6.0,1.0,9.5,5.0,5.25,3.0,3.0,6.0,2.75,6.25,7.0,3.0,2.75,0.14,0.14,0.95,1176.75,-8.9,0.8
1.26,0.0,5.25,8.0,9.0,0.0,0.0,0.0,1.25,0.0,0.75,0.75,0.0,0.25,-0.48,0.39,1.39,490.87,19.8,53.5,6.5,1.5,10.0,5.75,5.25,2.75,3.0,5.75,2.25,5.5,5.5,2.25,0.75,0.14,0.14,0.95,1147.03,-10.8,12.9
1.28,8.25,4.25,7.5,6.75,0.0,0.0,0.0,0.75,0.0,1.5,0.0,0.75,0.0,-0.55,0.39,1.64,445.75,23.8,61.7,6.5,1.75,11.0,5.75,5.25,2.75,3.0,5.25,2.25,4.25,5.0,1.75,1.5,0.14,0.14,0.89,1090.54,-11.9,16.8
1.3,6.75,0.0,7.0,6.5,0.0,0.0,0.0,0.0,0.75,1.0,0.25,0.0,0.25,-0.61,0.52,1.95,372.13,26.8,57.6,6.75,1.75,11.0,6.0,4.75,2.5,3.0,4.0,2.0,4.25,3.75,1.75,0.5,0.14,0.14,0.95,1001.2,-13.6,23.2
1.32,3.75,0.0,5.25,3.25,0.0,0.0,0.0,0.0,0.0,1.25,0.5,0.25,0.25,-0.61,1.2,2.89,294.43,25.5,46.9,7.25,2.0,11.5,6.0,5.25,2.5,3.0,4.0,1.75,3.0,3.75,1.75,0.75,0.08,0.14,0.95,926.51,-14.4,27.0
1.34,0.75,0.0,3.75,1.0,0.0,0.0,0.0,0.0,0.25,0.0,0.5,0.0,0.25,-0.3,0.95,2.14,198.19,29.5,44.0,7.25,2.0,12.0,6.0,5.25,2.5,3.0,4.0,1.75,3.0,3.25,1.75,0.5,0.08,0.14,0.95,856.12,-14.8,29.0
1.36,0.0,0.0,1.5,0.0,0.0,0.0,0.0,0.0,0.0,0.0,0.0,0.0,0.0,-0.73,0.08,1.77,85.5,38.2,60.9,7.25,2.0,12.5,6.0,5.25,2.5,3.0,4.0,1.5,3.0,2.75,1.5,0.5,0.08,0.14,0.95,815.09,-15.1,31.3
1.38,0.0,0.0,0.0,0.5,0.0,0.0,0.0,0.0,0.0,0.0,0.0,0.0,0.0,-0.61,-2.92,1.95,0.0,17.2,57.9,7.5,2.0,12.5,7.0,5.25,2.5,3.0,3.75,1.5,3.0,2.75,1.25,0.5,0.08,0.14,0.95,800.15,-15.5,33.2
1.4,0.0,0.0,0.25,0.5,0.0,0.0,0.0,0.0,0.25,0.0,0.0,0.0,0.0,-0.11,-1.48,1.77,0.0,21.2,35.5,7.5,2.0,12.5,7.0,5.25,2.5,3.25,3.75,1.5,2.75,2.75,1.25,0.25,0.08,0.14,0.89,798.1,-15.8,34.4
1.42,0.0,0.0,0.0,0.5,0.0,0.0,0.0,0.0,0.75,0.25,0.0,0.0,0.0,-0.17,-0.55,0.58,0.0,9.3,-11.3,7.75,2.0,12.5,7.5,5.25,2.5,3.5,3.5,1.5,3.5,2.75,0.75,0.0,0.08,0.14,0.89,801.88,-15.8,35.8
1.44,0.0,0.0,0.5,0.5,0.0,0.0,0.0,0.0,0.25,0.0,0.0,0.0,0.0,-0.48,-0.48,0.14,0.0,24.6,40.6,8.0,2.0,12.5,7.75,5.5,2.75,3.5,3.75,1.5,2.25,2.75,1.0,0.25,0.08,0.14,0.95,812.2,-16.1,37.1
1.46,0.0,0.0,0.25,0.5,0.0,0.0,0.0,0.0,0.25,0.5,0.0,0.0,0.0,-0.42,-0.48,0.64,0.0,9.1,-0.8,8.25,2.0,13.0,7.75,5.75,3.25,3.5,3.75,1.5,1.5,2.25,1.0,0.0,0.08,0.14,0.95,828.9,-16.6,41.1
1.48,0.0,0.0,0.0,0.25,0.0,0.0,0.0,0.0,0.25,0.0,0.0,0.0,0.0,-0.42,-0.55,0.83,0.0,14.7,11.1,8.25,2.25,13.5,8.75,6.25,3.5,3.5,3.0,1.25,1.5,1.75,1.0,0.0,0.08,0.14,0.95,856.3,-16.9,44.5
1.5,0.0,0.0,0.0,0.5,0.0,0.0,0.0,0.0,0.25,0.0,0.0,0.0,0.0,-0.48,-0.36,0.83,0.0,15.5,27.0,8.25,2.5,13.5,9.25,6.25,3.75,3.5,3.0,1.0,1.25,1.5,1.0,0.5,0.08,0.14,0.95,883.85,-16.6,44.8
1.52,0.0,0.0,0.0,0.5,0.0,0.0,0.0,0.0,0.25,0.0,0.0,0.0,0.0,-0.48,-0.17,0.83,0.0,15.5,27.0,8.25,2.75,13.5,9.5,6.25,3.75,3.5,2.75,1.0,1.5,1.5,0.75,0.25,0.08,0.14,0.95,905.85,-16.8,46.4
1.54,0.0,0.0,0.0,0.5,0.0,0.0,0.0,0.0,0.75,1.25,0.0,0.25,0.0,-0.42,-0.05,0.89,0.0,0.2,-43.4,8.5,3.0,13.5,9.5,6.25,3.75,3.5,2.75,1.0,1.25,1.5,0.25,0.5,0.08,0.14,0.95,922.09,-16.9,48.1
1.56,0.0,0.0,0.5,0.5,0.0,0.0,0.25,0.0,0.75,0.0,0.0,0.0,0.0,-0.48,0.14,1.27,9.47,21.9,19.2,8.5,3.25,13.5,9.75,6.25,3.75,3.0,2.5,1.0,1.0,1.25,0.25,0.25,0.08,0.14,0.95,924.03,-17.3,50.8
1.58,0.0,0.0,0.0,0.5,0.0,0.0,0.0,0.0,0.5,0.0,0.0,0.0,0.0,-0.61,0.33,1.64,22.82,14.7,11.1,8.5,3.5,13.5,10.5,6.5,3.75,2.25,2.75,0.5,0.25,0.75,0.25,0.0,0.08,0.14,0.95,919.72,-17.7,55.5
1.6,0.0,0.0,0.0,0.75,0.0,0.0,0.25,0.0,0.75,1.75,0.0,0.5,0.0,-0.73,0.77,2.08,40.15,0.8,-42.7,8.25,2.75,12.5,10.0,7.75,4.5,1.75,2.5,0.25,0.0,0.5,0.25,0.0,0.02,0.2,1.02,900.99,-16.4,56.4
1.62,0.25,0.0,0.75,0.75,0.0,0.0,0.5,0.25,1.0,1.5,0.5,0.5,0.0,-0.8,1.39,2.77,59.9,9.2,-22.6,8.25,4.25,11.5,9.75,8.0,4.25,1.25,1.75,0.25,0.0,0.25,0.25,0.0,0.08,0.2,1.2,878.63,-16.4,59.9
1.64,0.25,0.0,1.0,0.5,0.0,0.0,0.5,1.5,0.75,1.5,0.5,0.5,0.0,-0.86,2.2,2.7,82.31,5.0,-24.9,6.5,3.0,9.25,9.5,8.0,3.75,0.75,1.0,0.0,0.0,0.0,0.0,0.0,0.14,0.27,1.27,801.92,-15.6,61.7
1.66,0.25,0.0,1.0,0.75,0.0,0.0,0.5,1.5,1.0,1.5,0.5,0.5,0.25,-0.98,3.14,1.64,102.97,5.0,-25.4,6.5,2.75,8.0,6.0,7.75,2.5,0.75,1.0,0.0,0.0,0.0,0.0,0.0,0.14,0.27,1.52,688.98,-16.1,62.9
1.68,0.0,0.0,1.0,0.5,0.0,0.0,0.0,1.25,0.75,1.5,0.5,0.5,0.25,-0.86,3.45,0.89,112.05,3.0,-34.4,5.0,2.0,6.5,4.5,7.5,2.0,0.5,0.0,0.0,0.0,0.0,0.0,0.0,-0.05,0.2,1.64,546.0,-15.9,64.8
1.7,0.0,0.0,1.25,0.5,0.0,0.0,0.0,1.25,0.75,1.25,0.5,0.25,0.25,-0.05,3.02,0.83,112.13,5.0,-25.6,2.75,2.0,4.75,1.5,7.75,0.0,0.75,0.0,0.25,0.0,0.25,0.25,0.0,-0.17,0.27,1.52,395.18,-15.1,60.4
1.72,0.0,0.0,0.75,0.5,0.0,0.0,0.0,0.75,0.25,0.0,0.25,0.0,0.25,1.08,2.83,1.02,93.34,10.0,-2.7,1.25,0.25,2.25,1.0,5.25,0.0,0.25,0.0,0.0,0.0,0.25,0.0,0.0,-0.23,0.58,1.45,262.71,-12.2,58.0
1.74,0.0,0.0,0.0,0.5,0.0,0.0,0.0,0.0,0.25,0.0,0.0,0.0,0.0,1.33,2.77,0.7,64.6,15.5,27.0,1.25,0.0,1.5,0.0,3.25,0.0,0.25,0.0,0.0,0.0,0.0,0.0,0.0,-0.48,0.58,1.27,143.94,-13.8,62.6
1.76,0.0,0.0,0.0,0.5,0.0,0.0,0.0,0.0,0.75,0.0,0.0,0.25,0.0,0.7,2.14,0.7,40.95,13.3,-16.8,0.25,0.0,0.5,0.0,0.5,0.0,0.25,0.0,0.0,0.0,0.0,0.0,0.0,-1.67,-1.3,2.45,13.75,-20.6,61.1
1.78,0.0,0.0,0.75,0.0,0.0,0.0,0.0,0.5,0.0,0.0,0.0,0.25,0.0,2.08,0.2,2.45,25.3,15.3,0.2,0.5,0.0,0.0,0.0,0.0,0.0,0.25,0.0,0.0,0.0,0.0,0.0,0.0,-0.67,-0.61,1.33,0.0,-34.4,83.5
1.8,0.0,0.0,0.25,0.5,0.0,0.0,0.0,0.75,0.0,1.5,0.5,0.25,0.25,-0.86,-1.67,0.39,33.13,-3.3,-46.8,0.0,0.0,0.5,0.0,0.0,0.0,0.25,0.0,0.0,0.0,0.0,0.0,0.0,-1.61,0.2,1.52,0.0,-37.1,54.6
1.82,0.0,0.0,0.0,0.5,0.0,0.0,0.0,1.25,0.75,1.75,0.0,1.0,0.25,0.77,-0.36,0.77,51.5,-4.5,-57.3,0.25,0.25,0.25,1.25,0.0,0.25,0.25,0.0,0.25,0.0,0.0,0.25,0.0,-1.73,0.77,1.27,0.0,-16.3,39.3
1.84,0.0,0.0,0.0,0.0,0.0,0.0,0.0,0.0,0.0,0.0,0.5,0.0,1.5,0.77,-0.11,1.14,49.79,-7.8,-101.6,1.25,0.25,2.0,1.25,0.0,0.0,0.5,0.0,0.25,0.0,0.5,0.25,0.0,-0.98,1.27,1.02,0.0,-27.2,45.6
1.86,0.0,0.0,0.0,0.5,0.0,0.0,0.0,0.0,0.75,4.0,0.0,2.25,0.0,0.08,-0.11,0.83,75.13,-3.3,-72.7,0.25,0.0,1.75,0.0,3.5,0.0,0.75,0.5,0.0,0.0,0.5,0.0,0.0,-0.36,1.58,1.08,0.0,-9.7,40.8
1.88,0.0,0.0,0.25,0.5,0.0,0.0,0.0,1.75,0.75,5.5,4.25,3.5,4.75,-0.8,0.08,1.27,168.57,-3.7,-79.7,1.25,0.25,2.0,1.0,2.25,0.0,1.25,0.0,0.25,0.0,0.0,0.25,0.0,0.08,1.39,0.89,18.15,-19.0,54.0
1.9,0.0,0.0,1.0,0.5,0.0,0.0,0.0,2.75,0.75,6.25,5.25,4.75,6.5,-0.17,0.08,1.45,273.81,-2.9,-77.4,0.5,0.0,1.75,0.0,1.75,0.0,1.0,0.0,0.25,0.0,1.0,0.0,0.0,6.02,-4.48,1.58,51.79,-17.9,32.4
1.92,0.0,0.0,0.0,0.75,0.0,0.0,0.0,4.5,0.75,6.25,5.75,4.0,6.75,-0.36,0.08,1.27,372.38,-5.2,-78.2,1.25,0.0,2.25,0.0,2.25,0.0,0.75,0.0,0.0,0.0,0.25,0.0,0.0,4.45,2.14,-0.8,80.37,-20.2,57.7
1.94,0.0,0.0,0.0,0.5,0.0,0.0,0.0,5.25,0.25,6.75,5.75,3.75,6.25,-0.3,0.08,1.08,451.15,-6.2,-78.2,1.5,0.0,1.75,1.25,0.0,0.5,0.25,0.0,0.25,0.0,0.0,0.25,0.0,4.27,0.27,-1.73,92.7,-24.7,54.5
1.96,0.0,0.0,0.0,0.0,0.0,0.0,0.0,5.75,0.75,7.0,5.25,4.0,6.25,-0.23,0.02,0.95,498.36,-6.7,-79.6,1.5,0.75,0.5,1.25,1.25,1.25,0.75,0.5,0.0,0.0,0.0,0.0,0.0,-1.86,-1.92,1.27,114.09,-9.6,57.3
1.98,0.0,0.0,0.0,0.5,0.0,0.0,0.0,6.25,1.75,7.25,5.25,4.0,6.0,-0.23,0.08,0.95,522.33,-5.9,-75.0,1.75,1.5,0.75,2.5,5.25,2.0,1.25,1.0,0.0,0.0,0.0,0.25,0.0,-0.3,1.27,1.77,171.26,-5.6,51.9
2.0,0.0,0.0,0.0,0.75,0.0,0.0,0.25,6.5,0.75,6.75,5.75,4.0,6.0,-0.23,0.02,0.95,531.39,-5.8,-74.3,2.5,2.0,2.0,3.5,6.75,2.0,0.75,1.0,0.0,0.0,0.25,0.0,0.0,0.64,0.58,1.27,242.61,-8.3,56.2
2.02,0.0,0.0,0.0,0.5,0.0,0.0,0.25,6.5,0.0,6.75,5.25,4.0,5.5,-0.23,0.02,1.02,523.53,-6.6,-75.8,1.25,1.0,0.0,1.25,7.75,2.5,0.75,0.0,0.0,0.0,0.0,0.0,0.0,0.33,0.7,1.08,268.82,-0.2,56.7
2.04,0.0,0.0,0.0,0.0,0.0,0.0,0.5,6.0,1.75,6.0,5.5,3.0,5.25,-0.23,0.02,1.02,499.07,-5.6,-74.7,1.25,1.0,0.0,1.25,7.25,2.5,0.25,0.0,0.0,0.0,0.0,0.0,0.0,0.39,0.64,0.83,273.57,0.1,57.3
2.06,0.0,0.0,1.75,1.25,0.0,0.75,0.5,5.75,2.25,5.75,4.75,3.0,4.0,-0.17,0.02,0.95,473.97,-1.9,-56.1,1.25,1.5,0.0,1.25,7.75,4.75,0.25,1.0,0.0,0.0,0.0,0.25,0.0,0.39,0.7,0.45,278.85,3.1,48.4
2.08,0.0,0.0,1.75,1.75,0.0,1.25,1.0,5.25,2.25,5.0,4.5,2.25,2.75,-0.17,0.02,0.95,433.0,-0.8,-47.2,1.5,1.5,0.5,1.25,8.5,3.75,0.5,1.0,0.0,0.0,0.0,0.0,0.0,0.2,0.64,0.33,285.33,0.6,52.2
2.1,0.0,0.0,4.0,3.25,0.0,0.75,1.0,5.25,2.25,4.75,4.5,2.0,2.75,-0.17,0.02,0.95,402.14,3.5,-33.9,1.25,1.0,0.0,1.25,7.5,4.0,0.0,1.0,0.0,0.0,0.0,0.0,0.0,0.2,0.7,0.45,285.21,3.2,49.9
2.12,1.0,0.0,5.25,3.25,0.0,0.75,1.0,4.5,2.0,4.0,4.0,1.75,1.75,-0.17,0.02,0.95,373.71,7.4,-20.0,2.75,1.75,0.0,0.75,6.75,3.25,0.75,1.25,0.0,0.0,0.25,0.0,0.0,0.83,0.89,0.7,288.92,-1.3,52.6
2.14,2.5,0.0,6.0,4.0,0.0,0.75,1.0,4.5,2.0,3.5,3.25,1.75,1.5,-0.17,0.02,0.95,371.88,10.2,-7.5,1.25,0.25,0.0,0.0,6.25,2.5,0.0,1.0,0.0,0.0,0.0,0.0,0.0,0.7,0.89,0.58,264.09,4.2,47.3
2.16,2.0,0.0,6.5,4.5,0.0,0.0,1.0,3.25,1.75,3.25,3.0,1.75,1.0,-0.17,0.08,0.95,362.98,13.2,-3.0,1.0,0.0,0.0,0.0,4.25,0.0,0.0,0.0,0.0,0.0,0.0,0.0,0.0,1.14,1.7,0.14,207.74,-2.8,60.5
2.18,1.75,0.0,7.0,4.5,0.0,0.75,0.5,3.0,1.75,3.0,2.75,1.5,0.25,-0.17,0.08,0.95,356.12,13.8,3.7,0.0,0.0,0.75,0.0,2.75,0.0,0.0,0.0,0.0,0.0,0.0,0.25,0.0,2.39,1.89,0.02,140.12,-5.0,45.2
2.2,2.0,0.5,7.0,3.25,0.0,0.75,0.5,3.0,1.75,3.0,3.0,1.75,0.25,-0.11,0.08,0.89,345.25,13.7,1.9,0.0,0.0,0.0,0.0,0.5,0.0,0.25,0.75,0.0,0.0,0.0,0.25,0.0,1.7,0.45,1.02,66.91,4.9,-13.0
2.22,1.0,0.5,6.75,3.5,0.0,0.75,0.5,3.0,1.75,3.0,3.0,1.75,0.5,-0.11,0.08,0.95,335.46,12.4,-2.5,1.25,0.25,1.5,0.0,2.75,0.5,1.0,1.0,0.25,0.0,0.0,0.25,0.0,-0.86,0.27,0.64,51.86,-9.9,41.6
2.24,1.75,0.5,6.75,4.5,0.0,0.0,0.5,2.75,1.75,3.25,3.75,2.0,0.75,-0.17,0.08,0.95,340.65,13.8,-2.8,1.25,0.25,0.0,0.25,0.0,0.5,0.75,1.0,0.25,0.0,0.5,0.25,0.0,-1.92,0.95,0.45,37.78,-9.5,15.2
2.26,0.5,0.0,7.0,4.75,0.0,0.0,0.5,2.25,1.75,3.5,4.5,2.25,1.0,-0.11,0.08,0.95,345.95,13.1,-11.6,1.25,0.25,1.0,0.0,3.5,0.25,0.25,0.75,0.25,0.0,0.25,0.25,0.0,-1.36,0.45,0.64,68.64,-7.6,41.5
2.28,0.0,0.0,6.75,3.5,0.0,0.0,0.25,1.5,1.5,3.25,4.75,1.75,1.0,-0.17,0.08,0.95,335.17,13.3,-15.3,0.5,0.0,1.25,0.0,3.25,0.0,0.25,0.75,0.25,0.0,0.25,0.25,0.0,-0.36,0.39,0.45,73.27,-7.3,34.3
2.3,0.0,0.0,0.0,4.5,0.0,0.0,0.5,1.25,1.75,3.25,5.25,2.0,1.25,-0.11,0.08,0.95,301.8,4.7,-42.1,1.25,0.0,1.0,0.0,2.25,1.25,0.5,0.75,0.0,0.0,0.5,0.0,0.0,0.64,0.52,-0.11,84.56,-6.0,39.9
2.32,0.0,0.0,0.0,5.25,0.0,0.0,0.5,1.25,1.75,3.25,5.75,3.25,1.5,-0.11,0.08,0.95,288.57,5.3,-43.9,1.5,0.0,0.5,0.0,0.0,0.0,0.5,0.25,0.25,0.0,1.5,0.25,0.0,1.2,0.39,-0.17,71.85,-21.4,4.3
2.34,0.0,0.25,0.0,4.0,0.0,0.0,0.25,1.25,1.75,3.25,5.75,4.0,1.5,0.02,0.14,1.02,278.45,4.6,-50.9,2.0,0.25,0.75,0.0,0.5,0.0,0.5,0.75,0.25,0.0,0.0,0.25,0.0,1.52,0.27,-0.36,72.1,-19.4,45.7
2.36,0.0,0.0,0.0,5.5,0.0,0.0,0.5,1.25,1.75,3.25,5.5,4.0,1.5,0.14,0.14,1.02,281.86,5.5,-44.5,1.25,0.0,1.75,0.0,1.0,0.0,0.5,0.5,0.25,0.0,0.25,0.25,0.0,1.08,0.45,-0.23,72.91,-20.2,38.9
2.38,0.0,0.0,0.0,5.25,0.0,0.0,0.25,1.0,1.25,3.0,5.75,4.0,1.5,0.08,0.27,1.08,282.48,5.6,-46.3,1.25,0.0,1.75,0.0,1.0,0.0,0.25,0.25,0.25,0.0,0.25,0.25,0.0,0.7,0.58,-0.3,81.69,-21.6,42.9
2.4,0.0,0.0,0.0,4.5,0.0,0.0,0.25,0.0,1.75,2.5,0.0,4.0,1.5,0.02,0.2,1.08,257.02,5.5,-40.1,0.75,0.0,1.0,0.0,1.5,0.0,0.5,0.0,0.25,0.0,0.0,0.25,0.0,0.64,0.45,-0.23,82.22,-16.9,46.1
2.42,0.0,0.0,0.0,3.0,0.0,0.0,0.25,0.0,1.5,2.5,0.0,4.0,1.5,0.14,0.27,1.2,221.25,3.9,-52.2,0.0,0.0,1.75,0.0,1.5,0.0,0.5,0.25,0.25,0.0,0.25,0.25,0.0,0.45,0.39,-0.05,80.49,-15.6,30.3
2.44,0.0,0.0,0.0,2.75,0.0,0.0,0.25,0.0,0.75,2.5,0.0,0.0,1.5,0.39,0.33,1.2,161.61,0.2,-27.8,0.0,0.0,1.0,0.0,1.0,0.0,0.5,0.5,0.25,0.0,0.5,0.25,0.0,0.33,0.58,0.33,70.61,-11.6,9.8
2.46,0.0,0.0,0.0,2.75,0.0,0.0,0.25,0.0,1.25,2.25,5.25,3.0,1.5,-0.36,0.14,1.27,160.78,5.8,-57.6,1.0,0.0,0.0,0.0,0.0,0.0,0.5,0.5,0.25,0.0,0.5,0.25,0.0,0.27,0.64,0.45,52.32,-16.0,1.9
2.48,0.0,0.0,0.75,2.5,0.0,0.0,0.25,0.0,1.0,2.0,4.75,3.0,1.0,-0.36,0.02,1.02,163.53,8.0,-51.2,1.25,0.0,0.75,0.0,1.0,0.0,0.5,0.5,0.25,0.0,0.25,0.25,0.0,0.39,0.52,0.52,55.22,-16.1,33.9
2.5,0.0,0.0,0.0,2.5,0.0,0.0,0.0,0.0,0.5,1.75,4.5,0.0,0.5,-0.23,-0.11,1.02,159.44,6.5,-39.5,1.0,0.0,0.5,0.0,1.0,0.0,0.75,0.25,0.25,0.0,0.5,0.25,0.0,0.7,0.45,0.39,53.95,-15.8,26.5
2.52,0.0,0.0,0.5,2.5,0.0,0.0,0.25,0.0,0.75,1.75,3.25,0.0,0.25,-0.05,-0.05,0.95,141.89,8.8,-26.2,1.25,0.0,0.5,0.0,1.25,0.0,0.5,0.25,0.25,0.0,0.5,0.25,0.0,1.14,0.45,0.39,62.45,-15.1,31.8
2.54,0.0,0.0,0.0,0.0,0.0,0.0,0.0,0.0,0.0,0.0,0.0,0.0,0.0,0.08,-0.11,0.95,77.94,0.0,0.0,1.0,0.0,0.5,0.0,0.25,0.0,0.5,0.25,0.25,0.0,0.25,0.25,0.0,1.27,0.33,0.52,58.41,-21.1,27.0
2.56,0.0,0.0,0.0,0.0,0.0,0.0,1.75,0.0,2.25,2.25,0.0,0.0,0.0,0.02,-0.11,1.14,43.9,3.5,-43.8,0.0,0.0,0.0,0.0,0.0,0.0,0.0,0.0,0.0,0.0,0.0,0.0,0.0,1.2,0.33,0.58,39.18,0.0,0.0
2.58,0.0,0.0,0.75,0.5,0.0,0.0,4.25,0.0,0.0,1.5,0.0,0.0,0.0,0.2,-0.11,1.14,22.43,16.7,4.1,1.0,0.0,0.75,0.0,0.25,0.0,0.75,0.0,0.0,0.0,0.25,0.25,0.0,1.14,0.27,0.64,31.62,-27.3,41.5
2.6,0.0,0.0,0.0,0.5,0.0,0.0,0.25,0.0,0.0,0.0,0.0,0.25,0.0,0.58,0.08,1.14,8.7,16.9,7.0,0.75,0.0,0.5,0.0,0.0,0.0,0.75,0.25,0.0,0.0,0.25,0.25,0.0,1.02,0.2,0.52,25.91,-24.4,23.5
2.62,0.0,0.0,0.0,0.5,0.0,0.0,0.0,0.0,0.5,1.5,0.0,0.25,0.25,0.7,0.14,1.64,8.2,-3.2,-52.1,0.75,0.0,1.0,0.0,0.25,0.0,0.5,0.5,0.25,0.0,0.25,0.25,0.0,0.83,0.2,0.52,36.19,-20.0,22.5
2.64,0.0,0.0,0.0,0.5,0.0,0.0,0.0,0.0,0.0,0.0,0.5,0.0,0.25,1.08,0.89,1.08,3.26,8.4,-27.2,0.75,0.0,0.75,0.0,0.25,0.0,0.25,0.5,0.0,0.0,0.25,0.25,0.0,0.7,0.27,0.52,40.64,-18.6,24.1
2.66,0.0,0.0,0.0,0.5,0.0,0.0,0.0,0.0,0.0,1.5,0.0,0.0,0.0,1.02,0.27,0.77,0.73,-7.1,-40.9,0.75,0.0,1.0,0.0,0.0,0.0,0.25,0.25,0.0,0.0,0.5,0.25,0.0,0.7,0.27,0.45,45.18,-25.0,21.5
2.68,0.0,0.0,0.0,0.5,0.0,0.0,0.0,0.0,0.0,0.25,0.0,0.0,0.0,0.58,-0.48,0.7,0.0,6.5,14.7,1.0,0.0,0.75,0.0,1.25,0.0,0.5,0.25,0.0,0.0,0.25,0.0,0.0,0.7,0.27,0.27,51.63,-16.3,50.0
2.7,0.0,0.0,0.0,0.5,0.0,0.0,0.0,0.0,0.0,0.0,0.0,0.0,0.0,0.27,-0.67,0.77,0.0,17.2,57.9,1.25,0.0,0.0,0.0,0.0,0.0,0.0,0.0,0.25,0.0,0.5,0.25,0.0,0.7,0.33,0.2,47.08,-23.9,19.0
2.72,0.0,0.0,0.0,0.25,0.0,0.0,0.0,0.0,0.0,0.0,0.0,0.0,0.0,0.45,-0.67,1.08,0.0,17.2,57.9,0.75,0.0,0.75,0.0,0.0,0.0,0.25,0.75,0.25,0.0,0.25,0.25,0.0,0.77,0.45,0.2,46.91,-17.2,11.2
2.74,0.0,0.0,0.0,0.5,0.0,0.0,0.0,0.0,0.0,0.0,0.0,0.0,0.0,0.27,-0.8,1.08,0.0,17.2,57.9,0.0,0.0,1.0,0.0,0.0,0.0,0.5,0.25,0.0,0.0,0.0,0.0,0.0,0.64,0.39,0.2,38.56,-28.3,39.2
2.76,0.0,0.0,0.0,0.0,0.0,0.0,1.0,0.0,0.0,0.0,0.0,0.0,0.0,0.08,-0.73,0.77,0.0,32.4,27.3,1.0,0.0,0.0,0.0,0.0,0.0,0.0,0.0,0.0,0.0,0.0,0.25,0.0,0.52,0.33,0.33,31.79,-29.5,54.2
2.78,0.0,0.0,0.0,0.0,0.0,0.0,2.25,0.0,0.5,0.0,0.0,0.0,0.0,0.02,-0.55,0.64,6.96,26.0,6.6,0.75,0.0,0.5,0.0,0.0,0.0,0.25,0.5,0.0,0.0,0.25,0.25,0.0,0.52,0.27,0.2,30.9,-19.1,16.4
2.8,0.0,0.0,0.0,0.25,0.0,0.0,0.25,0.25,0.0,0.0,0.75,0.0,0.0,-0.11,-0.48,0.64,8.48,8.8,-33.9,1.0,0.0,0.5,0.0,0.0,0.0,0.5,0.0,0.0,0.0,0.25,0.25,0.0,0.58,0.33,0.2,32.65,-29.8,38.4
2.82,0.0,0.0,0.0,0.5,0.0,0.0,0.0,0.0,0.0,0.25,0.0,0.0,0.0,-0.23,-0.48,0.7,12.4,6.5,14.7,1.0,0.0,0.75,0.0,0.0,0.0,0.5,0.0,0.25,0.0,0.25,0.25,0.0,0.7,0.33,0.2,34.92,-29.0,33.5
2.84,0.0,0.0,0.0,0.5,0.0,0.0,0.25,0.0,2.5,0.0,0.0,0.0,0.0,-0.36,-0.55,0.7,26.56,13.8,-19.7,0.5,0.0,1.0,0.0,1.0,0.0,0.5,0.0,0.0,0.0,0.25,0.25,0.0,0.83,0.33,0.14,43.28,-19.0,38.8
2.86,0.0,0.0,0.0,0.25,0.0,0.0,0.0,0.0,0.0,0.0,0.0,0.0,0.0,-0.3,-0.48,0.77,20.55,17.2,57.9,0.75,0.0,0.75,0.0,0.25,0.0,0.25,0.5,0.0,0.0,0.5,0.25,0.0,0.83,0.33,0.08,47.9,-17.9,16.4
2.88,0.0,0.0,0.0,0.75,0.0,0.0,0.0,0.0,2.0,0.0,0.0,0.0,0.0,-0.11,-0.48,0.77,31.07,13.6,-11.1,0.75,0.0,0.75,0.0,0.0,0.0,0.5,0.0,0.0,0.0,0.25,0.25,0.0,0.77,0.27,0.08,46.34,-30.2,34.8
2.9,0.75,0.0,0.0,0.0,0.0,0.0,4.0,4.75,2.75,0.75,1.75,0.0,0.0,0.02,-0.42,0.64,85.11,3.7,-28.1,0.5,0.0,0.5,0.0,0.0,0.0,0.5,0.5,0.0,0.0,0.5,0.25,0.0,0.7,0.27,0.02,43.49,-17.4,0.1
2.92,1.0,0.0,0.0,1.75,0.0,0.0,3.75,4.5,2.75,1.0,1.0,0.25,0.0,0.27,-0.42,0.7,144.28,5.4,-14.8,0.5,0.0,0.5,0.0,0.0,0.0,0.5,0.25,0.0,0.0,0.5,0.0,0.0,0.7,0.33,0.02,38.22,-22.9,19.1
2.94,0.0,0.0,1.0,1.0,0.0,0.0,3.5,4.5,3.0,0.0,1.75,0.0,0.0,0.39,-0.48,0.7,184.75,7.0,-19.1,0.75,0.0,0.0,0.0,0.0,0.0,0.0,0.0,0.25,0.0,0.0,0.25,0.0,0.77,0.39,0.02,31.74,-24.8,26.5
2.96,0.0,0.0,0.0,0.0,0.0,0.0,3.5,2.5,1.0,0.0,0.0,0.0,0.0,0.39,-0.48,0.7,172.62,4.7,-17.2,0.0,0.0,1.25,0.0,0.0,0.0,0.25,0.25,0.0,0.0,0.25,0.25,0.0,0.77,0.39,-0.05,30.23,-25.0,12.3
2.98,0.0,0.0,0.0,0.0,0.0,0.0,3.5,2.5,1.75,0.0,0.0,0.0,0.0,0.39,-0.48,0.7,151.1,5.6,-19.9,1.25,0.0,1.0,0.0,0.0,0.0,0.25,0.5,0.25,0.0,0.25,0.25,0.0,0.7,0.45,-0.05,39.87,-23.5,29.7
3.0,0.0,0.0,0.0,0.0,0.0,0.0,3.5,3.25,1.25,0.0,0.0,0.0,0.0,0.39,-0.42,0.64,122.9,2.4,-20.7,1.25,0.0,0.75,0.0,0.5,0.0,0.5,0.0,0.25,0.0,0.25,0.25,0.0,0.58,0.45,0.02,48.77,-24.0,41.1
3.02,0.0,0.0,0.0,0.0,0.0,0.0,3.5,1.5,0.75,0.0,0.0,0.0,0.0,0.39,-0.42,0.64,98.62,9.7,-10.4,0.75,0.0,0.0,0.0,0.25,0.0,0.5,0.25,0.0,0.0,0.5,0.25,0.0,0.64,0.45,-0.05,47.62,-15.6,7.7
3.04,0.0,0.0,0.0,0.0,0.0,0.0,3.5,2.0,1.0,0.0,0.0,0.0,0.0,0.52,-0.42,0.64,86.39,7.0,-14.9,1.0,0.0,0.75,0.0,0.0,0.0,0.25,0.25,0.0,0.0,0.25,0.25,0.0,0.7,0.52,-0.05,46.99,-26.0,33.7
3.06,0.0,0.0,0.0,0.0,0.0,0.0,3.5,2.5,0.75,0.0,0.0,0.0,0.0,0.52,-0.42,0.58,79.57,4.3,-16.1,1.25,0.0,0.75,0.0,0.0,0.0,0.25,0.5,0.0,0.0,0.25,0.25,0.0,0.77,0.64,-0.11,46.48,-23.1,32.6
3.08,0.0,0.0,0.0,0.0,0.0,0.0,3.0,2.5,0.0,0.0,0.0,0.0,0.0,0.52,-0.36,0.58,68.39,1.1,-14.6,0.5,0.0,0.5,0.0,0.0,0.0,0.5,0.0,0.25,0.0,0.25,0.25,0.0,0.77,0.7,-0.11,41.38,-26.3,14.5
3.1,0.0,0.0,0.0,0.25,0.0,0.0,0.5,0.0,0.0,0.0,0.0,0.0,0.0,0.45,-0.36,0.64,40.74,24.4,43.3,1.0,0.0,0.5,0.0,0.0,0.0,0.5,0.0,0.0,0.0,0.25,0.25,0.0,0.7,0.7,-0.11,40.09,-29.8,38.4
3.12,0.0,0.0,0.0,0.0,0.0,0.0,0.0,0.0,0.0,0.0,0.0,0.0,0.0,0.33,-0.36,0.64,9.79,0.0,0.0,0.75,0.0,0.5,0.0,0.0,0.0,0.25,0.5,0.25,0.0,0.25,0.25,0.0,0.7,0.77,-0.11,40.45,-18.4,11.1
3.14,0.0,0.0,0.0,0.0,0.0,0.0,0.0,0.0,0.0,0.0,0.0,0.0,0.0,0.27,-0.36,0.58,0.0,0.0,0.0,1.0,0.0,0.5,0.0,0.0,0.0,0.25,0.0,0.0,0.0,0.25,0.25,0.0,0.64,0.7,-0.05,38.65,-29.6,39.1
3.16,0.0,0.0,0.0,1.0,0.0,0.0,0.0,0.0,0.0,0.0,0.0,0.0,0.0,0.39,-0.36,0.58,0.0,17.2,57.9,0.5,0.0,0.75,0.0,0.5,0.0,0.25,0.0,0.0,0.0,0.25,0.25,0.0,0.7,0.7,0.02,38.94,-21.7,33.5
3.18,0.0,0.0,0.0,0.0,0.0,0.0,1.25,4.25,0.0,0.0,0.75,0.0,0.0,0.39,-0.36,0.64,13.64,-7.9,-36.4,0.75,0.0,0.5,0.0,0.0,0.0,0.25,0.25,0.25,0.0,0.25,0.25,0.0,0.7,0.64,0.08,38.41,-22.2,16.5
3.2,0.0,0.0,0.0,0.0,0.0,0.0,0.0,0.0,0.0,0.0,0.0,0.0,0.0,0.39,-0.36,0.64,17.63,0.0,0.0,1.0,0.0,0.75,0.0,0.0,0.0,0.5,0.25,0.0,0.0,0.25,0.25,0.0,0.64,0.58,0.08,39.52,-26.3,33.4
3.22,0.0,0.0,0.0,0.0,0.0,0.0,0.0,0.0,0.0,0.0,0.0,0.25,0.0,0.39,-0.36,0.64,14.4,8.8,-109.9,0.5,0.0,0.5,0.0,0.0,0.0,0.25,0.5,0.0,0.0,0.5,0.25,0.0,0.64,0.52,0.08,37.68,-16.7,-1.2
3.24,0.0,0.0,0.0,0.0,0.0,0.0,4.5,2.0,0.0,0.0,0.25,0.25,0.0,0.45,-0.3,0.7,26.39,8.8,-13.7,0.75,0.0,1.0,0.0,0.0,0.0,0.25,0.25,0.0,0.0,0.25,0.25,0.0,0.64,0.58,0.02,40.4,-26.4,30.6
3.26,0.0,0.0,0.0,0.5,0.0,0.0,0.0,0.0,0.0,0.0,1.0,0.0,0.0,0.45,-0.23,0.7,27.34,13.0,-28.6,0.75,0.0,0.75,0.0,0.25,0.0,0.25,0.25,0.0,0.0,0.25,0.25,0.0,0.64,0.58,0.02,42.22,-21.9,30.1
3.28,0.0,0.0,0.0,0.75,0.0,0.0,0.0,0.0,2.75,0.0,0.0,0.0,0.0,0.45,-0.17,0.7,38.07,13.3,-16.9,0.5,0.0,0.75,0.0,0.0,0.0,0.5,0.25,0.0,0.0,0.25,0.25,0.0,0.7,0.58,0.02,40.72,-24.4,19.8
3.3,0.0,0.0,0.0,0.0,0.0,0.0,0.0,0.0,0.0,0.0,0.0,0.0,0.0,0.52,-0.11,0.7,27.95,0.0,0.0,1.0,0.0,0.5,0.0,0.0,0.0,0.5,0.25,0.0,0.0,0.25,0.25,0.0,0.7,0.58,0.02,40.54,-25.0,30.5
3.32,0.0,0.0,0.0,0.0,0.0,0.0,0.0,0.0,0.0,0.0,0.0,0.0,0.0,0.52,-0.11,0.7,20.92,0.0,0.0,1.0,0.0,0.75,0.0,0.0,0.0,0.5,0.5,0.0,0.0,0.5,0.25,0.0,0.7,0.58,0.02,44.99,-21.7,19.4
3.34,0.0,0.0,0.0,0.0,0.0,0.0,0.0,0.0,0.0,0.0,0.0,0.0,0.0,0.52,-0.05,0.64,7.19,0.0,0.0,1.25,0.0,0.25,0.0,0.0,0.0,0.0,0.25,0.0,0.0,0.75,0.25,0.0,0.7,0.58,0.08,45.38,-21.3,14.4
3.36,0.0,0.0,0.0,0.0,0.0,0.0,0.0,0.0,0.0,0.0,0.0,0.0,0.0,0.52,-0.05,0.64,0.74,0.0,0.0,0.75,0.0,0.75,0.0,0.0,0.0,0.25,0.0,0.0,0.0,0.25,0.25,0.0,0.7,0.58,0.08,42.97,-30.1,35.2
3.38,0.0,0.0,0.0,0.0,0.0,0.0,0.0,0.0,0.0,0.0,0.0,0.0,0.0,0.52,-0.05,0.64,0.0,0.0,0.0,0.5,0.0,0.75,0.0,0.0,0.0,0.5,0.0,0.0,0.0,0.25,0.25,0.0,0.7,0.58,0.08,39.12,-29.7,27.3
3.4,0.0,0.0,0.0,0.0,0.0,0.0,0.0,0.0,0.0,0.0,0.0,0.0,0.0,0.52,-0.05,0.64,0.0,0.0,0.0,1.0,0.0,0.5,0.0,0.0,0.0,0.25,0.25,0.0,0.0,0.25,0.25,0.0,0.7,0.58,0.02,37.15,-24.6,30.6
3.42,0.0,0.0,0.0,0.0,0.0,0.0,0.0,0.0,0.0,0.0,0.0,0.0,0.0,0.52,-0.05,0.64,0.0,0.0,0.0,1.0,0.0,0.5,0.0,0.0,0.0,0.5,0.0,0.0,0.0,0.25,0.25,0.0,0.7,0.58,0.08,35.81,-29.8,38.4
3.44,0.0,0.0,0.0,0.25,0.0,0.0,0.0,0.0,0.75,0.5,0.0,0.25,0.0,0.58,-0.11,0.7,5.01,4.5,-44.8,1.0,0.0,0.5,0.0,0.0,0.0,0.75,0.5,0.0,0.0,0.25,0.25,0.0,0.7,0.58,0.08,39.16,-21.6,24.1
3.46,0.0,0.0,0.25,0.0,0.0,0.0,0.25,0.0,0.0,0.0,0.0,0.0,0.0,0.58,-0.11,0.77,5.05,36.4,50.3,0.5,0.0,0.5,0.0,0.0,0.0,0.5,0.0,0.0,0.0,0.25,0.25,0.0,0.7,0.58,0.08,36.41,-28.4,22.2
3.48,0.25,0.0,0.0,0.0,0.0,0.0,0.25,0.0,2.75,0.0,0.25,0.0,0.0,0.58,-0.11,0.77,20.87,14.4,-29.2,1.25,0.0,0.5,0.0,0.0,0.0,0.25,0.0,0.0,0.0,0.5,0.25,0.0,0.7,0.58,0.02,38.08,-28.3,33.5
3.5,0.0,0.0,0.0,0.0,0.0,0.0,2.0,0.0,0.75,0.0,0.0,0.0,0.0,0.58,-0.17,0.77,28.25,23.5,-1.3,0.5,0.0,0.75,0.0,0.25,0.0,0.5,0.0,0.0,0.0,0.25,0.25,0.0,0.7,0.58,0.02,36.94,-25.4,30.6
3.52,0.0,0.0,0.0,0.5,0.0,0.0,4.25,2.5,0.0,0.25,0.0,0.0,0.0,0.58,-0.17,0.77,52.89,5.4,-5.5,0.5,0.0,0.5,0.0,0.0,0.0,0.5,0.25,0.0,0.0,0.25,0.25,0.0,0.7,0.58,0.02,35.86,-22.6,14.4
3.54,0.0,0.0,0.25,0.5,0.0,0.0,0.0,0.0,0.25,0.5,0.5,0.5,0.0,0.58,-0.17,0.77,56.78,9.4,-36.8,0.5,0.0,0.5,0.0,0.0,0.0,0.25,0.25,0.0,0.0,0.25,0.25,0.0,0.64,0.58,0.02,32.5,-22.0,13.6
3.56,0.0,0.0,0.0,0.5,0.0,0.0,0.0,0.0,0.0,0.5,0.5,0.5,0.0,0.58,-0.17,0.7,56.72,5.3,-49.1,0.5,0.0,0.5,0.0,0.0,0.0,0.25,0.5,0.0,0.0,0.25,0.25,0.0,0.64,0.58,0.02,31.81,-17.3,7.3
3.58,0.0,0.0,0.0,0.5,0.0,0.0,0.0,0.0,0.25,1.0,0.5,0.0,0.0,0.58,-0.17,0.7,49.27,0.6,-40.4,0.5,0.0,0.5,0.0,0.0,0.0,0.25,0.0,0.0,0.0,0.25,0.25,0.0,0.7,0.58,0.02,29.5,-28.1,21.8
3.6,0.0,0.0,0.0,0.5,0.0,0.0,0.0,0.0,0.0,0.75,0.0,0.75,0.0,0.64,-0.17,0.77,44.52,1.9,-53.5,0.5,0.0,0.5,0.0,0.0,0.0,0.5,0.5,0.0,0.0,0.5,0.25,0.0,0.64,0.58,0.02,32.15,-17.4,0.1
3.62,0.0,0.0,0.0,0.5,0.0,0.0,0.0,0.0,0.0,0.75,0.5,0.75,0.25,0.64,-0.17,0.77,44.5,2.0,-62.6,0.25,0.0,0.25,0.0,0.0,0.0,0.5,0.0,0.25,0.0,0.25,0.25,0.0,0.64,0.58,0.02,28.92,-22.9,-6.8
3.64,0.0,0.0,0.0,0.5,0.0,0.0,0.0,0.0,0.25,0.75,0.5,0.75,0.0,0.95,-0.3,0.77,46.26,4.3,-56.0,0.75,0.0,0.25,0.0,0.25,0.0,0.5,0.0,0.0,0.0,0.25,0.25,0.0,0.64,0.58,0.08,29.84,-23.2,30.7
3.66,0.0,0.0,0.0,0.0,0.0,0.0,0.0,0.0,0.0,0.5,0.5,0.75,0.0,1.83,-0.11,1.02,43.47,2.3,-90.3,0.5,0.0,0.0,0.0,0.0,0.0,0.5,0.25,0.0,0.0,0.25,0.25,0.0,0.7,0.58,0.08,26.15,-17.0,-2.0
3.68,0.0,0.0,0.0,0.5,0.0,0.0,0.0,0.0,0.25,0.75,0.0,0.75,0.0,1.52,-0.05,0.95,39.68,3.0,-51.9,1.0,0.0,0.75,0.0,0.0,0.0,0.25,0.0,0.0,0.0,0.25,0.25,0.0,0.7,0.58,0.08,30.18,-30.6,41.5
3.7,0.0,0.0,0.0,0.5,0.0,0.0,0.0,0.0,0.0,0.0,0.25,0.0,0.25,0.64,-0.11,0.77,30.13,7.9,-15.8,0.75,0.0,1.0,0.0,0.0,0.0,0.25,0.0,0.0,0.0,0.25,0.25,0.0,0.7,0.58,0.14,33.6,-31.0,38.0
3.72,0.0,0.0,0.0,0.5,0.0,0.0,0.0,0.0,0.5,0.0,0.0,0.0,0.0,0.33,-0.11,0.64,20.81,14.7,11.1,0.5,0.0,0.5,0.0,0.0,0.0,0.25,0.25,0.0,0.0,0.5,0.25,0.0,0.7,0.58,0.14,35.22,-20.7,3.2
3.74,0.0,0.0,0.0,0.0,0.0,0.0,0.0,0.0,0.0,0.0,0.0,0.0,0.0,0.2,-0.11,0.58,9.12,0.0,0.0,0.5,0.0,0.5,0.0,0.0,0.0,0.25,0.0,0.0,0.0,0.25,0.25,0.0,0.7,0.58,0.14,33.19,-28.1,21.8
3.76,0.0,0.0,0.0,0.0,0.0,0.0,0.0,0.0,0.0,0.0,0.0,0.0,0.0,0.2,-0.17,0.58,0.09,0.0,0.0,0.5,0.0,0.25,0.0,0.0,0.0,0.5,0.5,0.0,0.0,0.25,0.25,0.0,0.7,0.58,0.14,32.27,-15.5,1.5
3.78,0.0,0.0,0.0,0.0,0.0,0.0,0.0,0.0,0.0,0.0,0.0,0.0,0.0,0.27,-0.17,0.64,0.0,0.0,0.0,0.5,0.0,0.5,0.0,0.0,0.0,0.25,0.25,0.0,0.0,0.5,0.25,0.0,0.7,0.58,0.14,31.75,-20.7,3.2
3.8,0.0,0.0,0.0,0.0,0.0,0.0,0.0,0.0,0.0,0.0,0.0,0.0,0.0,0.39,-0.23,0.64,0.0,0.0,0.0,0.75,0.0,0.25,0.0,0.25,0.0,0.5,0.5,0.0,0.0,0.75,0.25,0.0,0.7,0.58,0.14,37.12,-14.4,1.6
3.82,0.0,0.0,0.0,0.0,0.0,0.0,0.0,0.0,0.0,0.0,0.0,0.0,0.0,0.52,-0.23,0.7,0.0,0.0,0.0,0.5,0.0,0.25,0.0,0.0,0.0,0.5,0.5,0.25,0.0,0.25,0.25,0.0,0.7,0.58,0.08,38.49,-15.1,-2.9
3.84,0.0,0.0,0.0,0.0,0.0,0.0,0.0,0.0,0.0,0.0,0.0,0.0,0.0,0.58,-0.23,0.77,0.0,0.0,0.0,0.5,0.0,0.5,0.0,0.0,0.0,0.5,0.0,0.0,0.0,0.25,0.25,0.0,0.64,0.58,0.08,36.65,-28.4,22.2
3.86,0.0,0.0,0.0,0.0,0.0,0.0,0.0,0.0,0.0,0.0,0.0,0.0,0.0,0.64,-0.23,0.83,0.0,0.0,0.0,0.25,0.0,0.5,0.0,0.0,0.0,0.5,0.0,0.0,0.0,0.5,0.25,0.0,0.64,0.58,0.08,33.11,-25.0,-1.7
3.88,0.0,0.0,0.0,0.0,0.0,0.0,0.0,0.0,0.0,0.0,0.0,0.0,0.0,0.58,-0.23,0.77,0.0,0.0,0.0,0.5,0.0,0.5,0.0,0.0,0.0,0.5,0.25,0.0,0.0,0.25,0.25,0.0,0.64,0.58,0.02,31.02,-22.6,14.4
3.9,0.0,0.0,0.0,0.0,0.0,0.0,0.0,0.0,0.0,0.0,0.0,0.0,0.0,0.52,-0.17,0.77,0.0,0.0,0.0,0.75,0.0,0.25,0.0,0.0,0.0,0.5,0.0,0.0,0.0,0.5,0.25,0.0,0.64,0.58,0.02,30.26,-25.6,13.9
3.92,0.0,0.0,0.0,0.0,0.0,0.0,0.0,0.0,0.0,0.0,0.0,0.0,0.0,0.52,-0.17,0.77,0.0,0.0,0.0,0.75,0.0,0.5,0.0,0.0,0.0,0.5,0.25,0.0,0.0,0.25,0.25,0.0,0.64,0.58,0.02,31.9,-23.9,23.3
3.94,0.0,0.0,0.0,0.0,0.0,0.0,0.0,0.0,0.0,0.0,0.0,0.0,0.0,0.52,-0.11,0.77,0.0,0.0,0.0,0.75,0.0,0.25,0.0,0.0,0.0,0.25,0.0,0.0,0.0,0.25,0.25,0.0,0.64,0.58,0.08,30.77,-27.4,26.7
3.96,0.0,0.0,0.0,0.0,0.0,0.0,0.0,0.0,0.0,0.0,0.0,0.0,0.0,0.45,-0.11,0.77,0.0,0.0,0.0,0.75,0.0,0.5,0.0,0.0,0.0,0.5,0.0,0.0,0.0,1.0,0.25,0.0,0.64,0.58,0.08,35.13,-24.2,2.2
3.98,0.0,0.0,0.0,0.0,0.0,0.0,0.0,0.0,0.0,0.0,0.0,0.0,0.0,0.45,-0.11,0.77,0.0,0.0,0.0,0.25,0.0,1.0,0.0,0.0,0.0,0.25,0.0,0.0,0.0,0.25,0.25,0.0,0.7,0.58,0.08,33.98,-30.0,23.1
4.0,0.0,0.0,0.0,0.0,0.0,0.0,0.0,0.0,0.0,0.0,0.0,0.0,0.0,0.45,-0.11,0.77,0.0,0.0,0.0,0.5,0.0,0.75,0.0,0.0,0.0,0.5,0.0,0.0,0.0,0.25,0.25,0.0,0.7,0.58,0.08,34.16,-29.7,27.3
4.02,0.0,0.0,0.0,0.0,0.0,0.0,0.0,0.0,0.0,0.0,0.0,0.0,0.0,0.45,-0.11,0.83,0.0,0.0,0.0,0.5,0.0,0.5,0.0,0.0,0.0,0.25,0.0,0.25,0.0,0.5,0.25,0.0,0.7,0.58,0.14,33.05,-24.2,3.3
4.04,0.0,0.0,0.0,0.0,0.0,0.0,0.0,0.0,0.0,0.0,0.0,0.0,0.0,0.39,-0.11,0.83,0.0,0.0,0.0,0.5,0.0,0.5,0.0,0.0,0.0,0.25,0.25,0.0,0.0,0.25,0.25,0.0,0.7,0.58,0.08,32.09,-22.0,13.6
4.06,0.0,0.0,0.0,0.0,0.0,0.0,0.0,0.0,0.0,0.0,0.0,0.0,0.0,0.27,-0.11,0.77,0.0,0.0,0.0,0.5,0.0,0.25,0.0,0.0,0.0,0.25,0.0,0.0,0.0,0.5,0.25,0.0,0.7,0.58,0.08,29.86,-23.7,0.5
4.08,0.0,0.0,0.0,0.0,0.0,0.0,0.0,0.0,0.0,0.0,0.0,0.0,0.0,0.27,-0.17,0.77,0.0,0.0,0.0,0.5,0.0,0.0,0.0,0.0,0.0,0.25,0.0,0.0,0.0,0.5,0.25,0.0,0.7,0.58,0.08,26.12,-20.9,-11.2
4.1,0.0,0.0,0.0,0.0,0.0,0.0,0.0,0.0,0.0,0.0,0.0,0.0,0.0,0.27,-0.23,0.83,0.0,0.0,0.0,0.25,0.0,0.25,0.0,0.0,0.0,0.25,0.0,0.0,0.0,0.25,0.25,0.0,0.7,0.58,0.08,21.53,-24.2,-3.3
