time,left pressure 0[N/cm²],left pressure 1[N/cm²],left pressure 2[N/cm²],left pressure 3[N/cm²],left pressure 4[N/cm²],left pressure 5[N/cm²],left pressure 6[N/cm²],left pressure 7[N/cm²],left pressure 8[N/cm²],left pressure 9[N/cm²],left pressure 10[N/cm²],left pressure 11[N/cm²],left pressure 12[N/cm²],left acceleration X[g],left acceleration Y[g],left acceleration Z[g],left total force[N],left center of pressure X[mm],left center of pressure Y[mm],right pressure 0[N/cm²],right pressure 1[N/cm²],right pressure 2[N/cm²],right pressure 3[N/cm²],right pressure 4[N/cm²],right pressure 5[N/cm²],right pressure 6[N/cm²],right pressure 7[N/cm²],right pressure 8[N/cm²],right pressure 9[N/cm²],right pressure 10[N/cm²],right pressure 11[N/cm²],right pressure 12[N/cm²],right acceleration X[g],right acceleration Y[g],right acceleration Z[g],right total force[N],right center of pressure X[mm],right center of pressure Y[mm]
0.02,0.0,0.0,0.5,1.0,0.0,0.0,0.0,0.0,0.0,0.0,0.0,0.0,0.0,0.27,3.33,3.39,39.58,24.1,58.9,0.0,0.0,1.0,2.0,0.0,0.0,0.0,0.0,0.0,0.0,0.0,0.0,0.0,0.27,0.2,2.89,0.0,-24.1,58.9
0.04,0.0,0.0,1.5,1.25,0.0,0.0,0.0,0.0,0.0,0.0,0.0,0.0,0.0,0.45,5.77,3.08,40.19,28.6,59.5,0.0,0.0,0.75,2.5,0.0,0.0,0.0,0.0,0.0,0.0,0.0,0.0,0.0,0.58,-0.48,2.89,0.0,-22.0,58.6
0.06,0.0,0.0,2.0,1.0,0.0,0.0,0.0,0.0,0.0,0.0,0.0,0.0,0.0,0.52,7.7,1.2,43.04,31.1,59.9,0.0,0.0,0.0,0.75,0.0,0.0,0.0,0.0,0.0,0.0,0.0,0.0,0.0,0.77,-0.86,2.95,0.0,-17.2,57.9
0.08,0.0,0.0,3.25,0.0,0.0,0.0,1.5,0.0,0.0,0.0,0.0,0.0,0.0,-0.3,7.2,-0.61,53.94,37.2,55.0,0.0,0.0,0.0,0.75,0.0,0.0,0.0,0.0,0.0,0.0,0.0,0.0,0.0,0.64,-0.98,3.02,0.0,-17.2,57.9
0.1,0.0,0.0,1.0,0.0,0.0,0.0,0.0,0.0,0.0,0.0,0.0,0.0,0.0,0.52,6.45,-0.73,44.83,38.2,60.9,0.0,0.0,0.75,2.75,0.0,0.0,0.0,0.0,0.0,0.0,0.0,0.0,0.0,0.89,-1.61,2.45,0.0,-21.6,58.5
0.12,0.0,0.0,1.0,0.25,0.0,0.0,0.0,0.0,2.25,7.75,4.0,6.25,6.0,1.7,5.02,3.02,180.31,-1.3,-81.6,0.0,0.0,0.75,2.0,0.0,0.0,0.0,0.0,0.0,0.0,0.0,0.0,0.0,1.39,-1.61,1.45,0.0,-22.8,58.7
0.14,0.0,0.0,0.0,2.75,0.0,2.0,0.25,6.25,5.25,7.75,8.0,5.5,6.75,-0.8,0.95,4.33,349.42,-2.6,-62.0,0.0,0.0,0.75,2.0,0.0,0.0,0.0,0.0,0.0,0.0,0.0,0.0,0.0,1.27,-1.67,1.27,24.47,-22.8,58.7
0.16,1.0,1.5,4.5,8.25,1.25,4.25,1.0,7.0,6.25,7.25,7.75,5.0,5.0,-0.17,0.14,1.02,628.01,3.2,-24.7,0.0,0.0,0.75,2.5,0.0,0.0,0.0,0.0,0.0,0.0,0.0,0.0,0.0,0.89,-0.92,1.39,46.58,-22.0,58.6
0.18,5.0,4.5,7.5,11.0,6.75,5.5,2.25,7.0,6.5,7.0,7.0,4.25,4.0,-0.3,0.02,1.2,1020.7,6.5,2.6,0.0,0.0,0.75,2.75,0.0,0.0,0.0,0.0,0.0,0.0,0.0,0.0,0.0,0.58,-0.11,1.64,57.01,-21.6,58.5
0.2,6.75,5.5,9.0,13.0,8.25,6.0,2.75,7.0,6.25,5.25,6.75,3.0,2.5,-0.05,-0.05,1.08,1372.45,8.5,15.4,0.0,0.0,0.75,2.25,0.0,0.0,0.0,0.0,0.0,0.0,0.0,0.0,0.0,0.33,0.39,2.02,58.35,-22.4,58.6
0.22,7.75,6.5,9.75,14.5,8.75,6.0,2.5,6.5,5.25,3.25,4.25,1.75,1.25,-0.05,0.08,1.08,1547.64,10.2,29.2,0.0,0.0,0.0,2.25,0.0,0.0,0.0,0.0,0.0,0.0,0.0,0.0,0.0,0.08,0.64,2.39,53.22,-17.2,57.9
0.24,8.25,7.25,10.5,14.5,9.0,5.25,1.75,4.75,1.75,1.75,1.25,1.0,0.25,-0.17,0.08,1.33,1580.64,12.4,46.5,0.0,0.0,0.75,2.5,0.0,0.0,0.0,0.0,0.0,0.0,0.0,0.0,0.0,0.08,0.95,2.52,55.18,-22.0,58.6
0.26,8.75,7.0,10.5,14.0,8.75,2.75,0.25,1.5,0.75,0.75,0.25,0.75,0.0,-0.17,0.14,2.39,1504.52,16.2,59.1,0.0,0.0,0.0,2.0,0.0,0.0,0.0,0.0,0.0,0.0,0.0,0.0,0.0,0.02,1.14,2.83,48.84,-17.2,57.9
0.28,8.75,6.25,9.75,12.0,0.0,0.0,0.0,0.0,0.5,0.25,0.25,0.75,0.0,-0.42,-0.05,2.33,1268.76,25.1,67.7,0.0,0.0,0.5,1.5,0.0,0.0,0.0,0.0,0.0,0.0,0.0,0.0,0.0,-0.36,1.83,3.33,45.02,-22.4,58.6
0.3,7.75,5.5,9.25,9.75,0.0,0.0,0.0,0.0,0.5,0.25,0.0,0.0,0.0,-0.42,-0.17,1.89,955.67,25.9,71.9,0.0,0.0,0.5,2.0,0.0,0.0,0.0,0.0,0.0,0.0,0.0,0.0,0.0,-0.8,2.95,3.45,44.23,-21.3,58.5
0.32,5.75,0.0,7.5,6.25,0.0,0.0,0.0,0.0,0.25,0.25,0.0,0.5,0.0,-0.36,0.2,2.02,626.04,29.0,62.6,0.0,0.0,0.5,2.0,0.0,0.0,0.0,0.0,0.0,0.0,0.0,0.0,0.0,-1.42,5.08,3.2,43.01,-21.3,58.5
0.34,1.5,0.0,4.75,3.5,0.0,0.0,0.0,0.0,0.25,0.25,0.0,0.0,0.0,-0.36,1.33,2.77,354.73,28.5,59.2,0.0,0.0,0.75,2.0,0.0,0.0,0.0,0.0,0.0,0.0,0.0,0.0,0.0,-1.8,7.2,0.95,42.93,-22.8,58.7
0.36,0.0,0.0,3.75,3.5,0.0,0.0,0.0,0.0,0.0,0.25,0.0,0.0,0.0,-0.36,0.64,1.64,174.38,26.6,55.1,0.0,0.0,0.5,2.5,0.0,0.0,0.0,0.0,0.0,0.0,0.0,0.0,0.0,-1.42,6.39,-0.73,47.76,-20.6,58.4
0.38,0.0,0.0,1.75,2.75,0.0,0.0,0.0,0.0,0.0,0.25,0.0,0.0,0.0,-0.3,0.08,1.08,21.64,23.2,52.2,0.0,0.0,0.0,1.5,0.0,0.0,0.0,0.0,0.0,4.5,0.0,1.75,0.25,-4.92,7.89,1.08,77.44,3.9,-58.0
0.4,0.0,0.0,2.5,2.75,0.0,0.0,0.0,0.0,0.0,0.25,0.0,0.25,0.0,0.02,0.95,2.58,0.0,24.5,46.6,0.0,0.0,0.0,3.0,0.0,0.0,0.0,0.5,1.25,10.5,8.0,7.5,8.5,-0.86,3.52,7.95,256.63,1.8,-77.3
0.42,0.0,0.0,2.25,2.5,0.0,0.0,0.0,0.0,0.0,0.0,0.0,0.0,0.0,0.14,0.95,2.33,0.0,27.1,59.3,0.0,0.0,1.0,5.0,0.0,2.0,0.75,6.5,3.25,9.5,10.0,5.5,8.0,-0.17,0.45,1.39,472.23,1.5,-56.5
0.44,0.0,0.0,2.25,2.5,0.0,0.0,0.0,0.0,0.0,0.0,0.0,0.0,0.0,-0.23,0.52,2.52,0.0,27.1,59.3,3.0,2.0,5.75,9.0,5.25,5.25,1.75,7.75,4.5,8.75,9.0,4.25,5.75,0.27,0.7,1.52,845.55,-3.3,-13.9
0.46,0.0,0.0,2.25,2.5,0.0,0.0,0.0,0.0,0.0,0.25,0.0,0.0,0.0,-0.55,-0.17,2.58,0.0,25.0,52.8,6.25,4.25,9.0,12.5,7.5,6.25,3.5,8.0,4.5,8.25,8.75,3.75,4.5,0.39,0.27,1.27,1280.47,-6.7,4.3
0.48,0.0,0.0,2.0,0.5,0.0,0.0,0.0,0.0,0.0,0.0,0.0,0.0,0.0,-0.73,-0.55,2.58,0.0,34.0,60.3,7.5,5.25,11.0,15.0,8.5,7.0,4.5,8.0,4.5,7.0,8.25,2.75,3.25,0.27,0.14,1.02,1576.29,-8.4,14.7
0.5,0.0,0.0,1.75,1.75,0.0,0.0,0.0,0.0,0.0,0.0,0.0,0.0,0.0,-0.8,-0.86,2.83,0.0,27.6,59.4,8.25,6.0,13.0,16.0,9.0,7.0,4.75,7.25,3.25,4.0,6.25,0.75,2.5,0.14,0.14,1.08,1741.91,-10.6,28.3
0.52,0.0,0.0,2.0,1.5,0.0,0.0,0.0,0.0,0.0,0.0,0.0,0.0,0.0,-0.86,-1.61,2.52,0.0,29.1,59.6,9.0,6.0,13.0,16.0,9.0,6.25,4.0,4.75,0.75,0.5,2.0,0.0,0.5,0.2,0.14,1.2,1743.83,-14.0,50.1
0.54,0.0,0.0,1.5,1.5,0.0,0.0,0.0,0.0,0.0,0.0,0.0,0.0,0.0,-1.48,-1.61,1.77,5.53,27.6,59.4,9.0,5.25,14.0,15.5,8.75,2.75,1.5,1.75,0.0,0.0,0.5,0.0,0.0,0.2,0.2,1.83,1624.52,-18.2,61.9
0.56,0.0,0.0,1.75,1.5,0.0,0.0,0.0,0.0,0.0,0.0,0.0,0.0,0.0,-1.55,-1.55,1.2,29.72,28.4,59.5,8.75,5.25,12.0,11.0,6.25,0.0,0.0,0.0,0.0,0.0,0.0,0.0,0.0,0.2,0.08,2.14,1382.57,-22.4,70.3
0.58,0.0,0.0,1.5,1.5,0.0,0.0,0.0,0.0,0.0,0.0,0.0,0.0,0.0,-1.48,-1.05,1.2,43.04,27.6,59.4,7.5,3.0,11.0,8.25,3.25,0.0,0.0,0.0,0.0,0.0,0.0,0.0,0.0,0.2,-0.11,1.77,1034.84,-25.2,70.4
0.6,0.0,0.0,1.5,1.5,0.0,0.0,0.0,0.0,0.0,0.0,0.0,0.0,0.0,-1.3,-0.3,1.52,46.64,27.6,59.4,5.25,1.0,8.75,5.5,0.0,0.0,0.0,0.0,0.0,0.0,0.0,0.0,0.0,0.08,-0.05,1.77,657.18,-30.3,70.7
0.62,0.0,0.0,1.5,1.5,0.0,0.0,0.0,0.0,0.0,0.0,0.0,0.0,0.0,-0.98,0.14,2.02,47.96,27.6,59.4,0.5,0.0,5.75,3.25,0.0,0.0,0.0,0.0,0.0,0.0,0.0,0.0,0.0,0.08,1.08,2.58,345.91,-30.8,61.6
0.64,0.0,0.0,1.5,1.0,0.0,0.0,0.0,0.0,0.0,0.0,0.0,0.0,0.0,-0.8,0.52,2.33,45.07,29.7,59.7,0.0,0.0,2.0,3.0,0.0,0.0,0.0,0.0,0.0,0.0,0.0,0.0,0.0,-0.11,1.52,2.83,140.03,-25.5,59.1
0.66,0.0,0.0,2.25,1.75,0.0,0.0,0.0,0.0,0.0,0.0,0.0,0.0,0.0,-0.73,0.77,2.77,52.84,28.9,59.6,0.25,0.0,1.25,3.0,0.0,0.0,0.0,0.0,0.0,0.0,0.0,0.0,0.0,0.08,-0.11,1.39,0.0,-23.9,60.7
0.68,0.0,0.0,2.0,1.75,0.0,0.0,0.0,0.0,0.0,0.25,0.0,0.0,0.0,-0.73,0.83,3.08,59.4,25.6,51.3,0.0,0.0,1.25,3.0,0.0,0.0,0.0,0.0,0.0,0.0,0.0,0.0,0.0,0.02,1.33,2.14,0.0,-23.3,58.8
0.7,0.0,0.0,1.75,1.5,0.0,0.0,0.0,0.0,0.0,0.0,0.0,0.0,0.0,-0.55,1.33,3.52,62.78,28.4,59.5,0.0,0.0,1.0,3.0,0.0,0.0,0.0,0.0,0.0,0.0,0.0,0.0,0.0,0.02,1.02,2.2,0.0,-22.4,58.6
0.72,0.0,0.0,2.0,1.75,0.0,0.0,0.0,0.0,0.0,0.25,0.0,0.0,0.0,-0.23,2.95,3.64,67.87,25.6,51.3,0.0,0.0,1.0,3.0,0.0,0.0,0.0,0.0,0.0,0.0,0.5,0.0,0.0,0.2,0.52,2.52,0.0,-21.1,44.7
0.74,0.0,0.0,1.5,1.75,0.0,0.0,0.0,0.0,0.0,0.0,0.0,0.0,0.0,0.33,4.89,3.83,65.06,26.8,59.3,0.0,0.0,1.0,3.0,0.0,0.0,0.0,0.0,0.0,0.0,0.0,0.0,0.0,0.2,-0.17,2.64,0.0,-22.4,58.6
0.76,0.0,0.0,2.0,1.75,0.0,0.0,0.0,0.0,0.0,0.25,0.0,0.0,0.0,1.14,7.95,2.14,67.47,25.6,51.3,0.0,0.0,1.0,2.75,0.0,0.0,0.0,0.0,0.0,0.0,0.0,0.0,0.0,0.33,-0.67,2.89,0.0,-22.7,58.7
0.78,0.0,0.0,2.25,1.5,0.0,0.0,0.0,0.0,0.0,0.0,0.0,0.0,0.0,0.39,7.7,-0.61,67.95,29.7,59.7,0.0,0.0,0.75,3.0,0.0,0.0,0.0,0.0,0.0,0.0,0.0,0.0,0.0,0.45,-0.98,3.27,0.0,-21.3,58.5
0.8,0.0,0.0,1.0,0.0,0.0,0.0,0.0,0.0,0.0,0.0,0.0,0.0,0.0,2.64,7.95,2.39,52.93,38.2,60.9,0.0,0.0,0.75,3.0,0.0,0.0,0.0,0.0,0.0,0.0,0.0,0.0,0.0,0.52,-1.67,2.64,0.0,-21.3,58.5
0.82,0.0,0.0,0.75,0.5,0.0,0.0,0.0,0.0,1.5,7.0,2.75,5.75,5.25,1.39,2.27,7.39,162.9,-2.0,-81.9,0.0,0.0,0.75,2.75,0.0,0.0,0.0,0.0,0.0,0.0,0.0,0.0,0.0,0.95,-1.55,1.83,15.33,-21.6,58.5
0.84,0.0,0.25,0.0,2.5,0.0,1.5,0.25,5.75,4.75,7.75,7.75,5.5,6.5,-0.55,1.27,1.95,322.24,-2.4,-63.0,0.0,0.0,0.75,2.75,0.0,0.0,0.0,0.0,0.0,0.0,0.0,0.0,0.0,0.95,-1.61,1.45,40.78,-21.6,58.5
0.86,0.0,1.5,3.75,7.0,0.5,3.5,0.75,6.5,6.0,7.25,7.75,4.75,5.0,-0.05,-0.11,0.83,560.65,2.3,-31.6,0.0,0.0,0.75,2.5,0.0,0.0,0.0,0.0,0.0,0.0,0.0,0.0,0.0,0.95,-1.23,1.39,53.87,-22.0,58.6
0.88,3.75,3.25,6.5,9.75,5.75,5.0,1.75,7.0,6.5,7.0,7.25,4.25,3.75,0.08,-0.11,1.02,902.76,5.6,-3.5,0.0,0.0,0.75,2.0,0.0,0.0,0.0,0.0,0.0,0.0,0.0,0.0,0.0,0.7,-0.36,1.7,53.98,-22.8,58.7
0.9,6.5,5.25,8.5,12.0,7.75,6.0,2.75,7.0,6.25,6.0,6.75,3.0,2.5,-0.11,0.02,1.02,1268.62,8.0,12.9,0.0,0.0,1.25,2.25,0.0,0.0,0.0,0.0,0.0,0.0,0.0,0.0,0.0,0.45,0.2,2.02,54.89,-24.6,58.9
0.92,7.75,6.25,9.75,13.5,8.5,6.0,2.75,6.5,5.75,3.5,5.25,2.0,1.25,-0.17,0.02,1.14,1477.9,10.1,26.1,0.0,0.0,0.75,2.5,0.0,0.0,0.0,0.0,0.0,0.0,0.0,0.0,0.0,0.2,0.58,2.39,54.84,-22.0,58.6
0.94,8.25,6.75,10.5,14.5,9.0,5.25,2.25,5.25,2.75,1.75,2.25,1.25,0.25,-0.11,0.08,1.2,1552.62,12.3,42.0,0.0,0.0,0.75,2.5,0.0,0.0,0.0,0.0,0.0,0.0,0.0,0.0,0.0,0.14,1.08,2.58,56.05,-22.0,58.6
0.96,8.75,7.0,10.5,14.5,9.0,2.5,0.5,1.5,0.75,0.75,0.5,0.75,0.0,-0.36,0.2,1.45,1503.22,16.2,58.6,0.0,0.0,0.0,2.5,0.0,0.0,0.0,0.0,0.0,0.0,0.0,0.0,0.0,0.14,1.27,2.89,51.61,-17.2,57.9
0.98,8.75,6.5,10.5,12.5,0.0,0.5,0.0,0.0,0.5,0.25,0.5,0.75,0.0,-0.23,-0.05,2.2,1305.34,24.5,66.4,0.0,0.0,0.5,2.25,0.0,0.0,0.0,0.0,0.0,0.0,0.0,0.0,0.0,0.02,2.02,3.27,49.89,-20.9,58.4
1.0,8.25,5.5,9.5,11.0,0.0,0.0,0.0,0.0,0.5,0.25,0.25,0.75,0.0,-0.48,-0.05,1.77,1010.53,25.4,67.0,0.0,0.0,0.5,2.0,0.0,0.0,0.0,0.0,0.0,0.0,0.0,0.0,0.0,-0.3,3.2,3.08,45.87,-21.3,58.5
1.02,0.0,0.0,8.5,8.0,0.0,0.0,0.0,0.0,0.25,0.25,0.0,0.0,0.0,-0.23,0.08,1.89,646.92,27.1,56.1,0.0,0.0,0.5,2.5,0.0,0.0,0.0,0.0,0.0,0.0,0.0,0.0,0.0,-0.98,4.7,2.77,47.13,-20.6,58.4
1.04,4.25,0.0,6.5,5.5,0.0,0.0,0.0,0.0,0.25,0.25,0.0,0.0,0.0,-0.3,0.64,2.52,398.7,29.1,65.1,0.0,0.0,1.25,2.5,0.0,0.0,0.0,0.0,0.0,0.0,0.0,0.0,0.0,-1.98,6.77,-0.36,53.46,-24.1,58.9
1.06,1.25,0.0,4.0,3.5,0.0,0.0,0.0,0.0,0.25,0.25,0.0,0.0,0.0,-0.42,1.02,2.2,217.22,27.5,58.1,0.0,0.0,0.5,2.25,0.0,0.0,0.0,0.0,0.0,0.0,0.0,0.0,0.0,-1.61,6.33,-0.8,54.34,-20.9,58.4
1.08,0.0,0.0,3.5,3.5,0.0,0.0,0.0,0.0,0.0,0.25,0.0,0.75,0.0,-0.67,0.14,1.64,89.59,24.6,40.0,0.0,0.0,0.5,2.25,0.0,0.0,0.0,0.0,0.0,0.0,0.0,0.0,0.0,-1.86,4.83,-0.11,53.84,-20.9,58.4
1.1,0.0,0.0,2.75,2.75,0.0,0.0,0.0,0.0,0.0,0.25,0.0,0.0,0.0,-0.55,0.95,0.89,0.0,25.8,53.7,0.0,0.0,0.5,0.5,0.0,0.0,0.0,0.0,0.0,7.25,0.0,4.25,0.5,-4.92,7.95,1.2,109.22,4.1,-77.2
1.12,0.0,0.0,2.75,2.5,0.0,0.0,0.0,0.0,0.0,0.5,0.0,0.0,0.0,0.02,0.83,2.39,0.0,24.4,48.1,0.0,0.0,0.25,3.0,0.0,0.25,0.0,4.5,2.75,11.0,9.5,6.5,9.25,0.33,2.83,7.95,305.64,2.7,-71.3
1.14,0.0,0.0,2.25,2.5,0.0,0.0,0.0,0.0,0.0,0.25,0.0,0.0,0.0,-0.11,0.64,2.39,0.0,25.0,52.8,1.5,1.25,3.0,6.75,2.5,4.0,0.75,7.75,3.75,9.5,10.0,5.25,7.25,-0.23,0.33,1.7,593.92,-0.5,-33.6
1.16,0.0,0.0,2.25,2.0,0.0,0.0,0.0,0.0,0.0,0.25,0.0,0.0,0.0,-0.36,0.2,2.33,0.0,25.9,52.2,5.25,3.25,7.75,11.0,6.25,6.0,1.75,8.0,4.5,8.5,9.25,4.0,5.5,0.39,0.58,1.27,1042.01,-5.3,-3.5
1.18,0.0,0.0,2.25,2.0,0.0,0.0,0.0,0.0,0.0,0.25,0.0,0.0,0.0,-0.48,-0.23,2.39,0.0,25.9,52.2,7.5,5.25,9.5,14.0,8.0,6.75,3.0,8.0,4.5,8.25,8.5,3.5,4.25,0.08,0.14,0.95,1442.18,-7.2,9.1
1.2,0.0,0.0,2.0,1.5,0.0,0.0,0.0,0.0,0.0,0.0,0.0,0.0,0.0,-0.67,-0.61,2.45,0.0,29.1,59.6,8.25,6.0,12.0,15.5,9.0,7.0,4.0,8.0,3.75,6.5,8.0,1.5,3.25,0.2,0.08,1.08,1696.22,-9.0,19.9
1.22,0.0,0.0,1.0,1.5,0.0,0.0,0.0,0.0,0.0,0.0,0.0,0.0,0.0,-0.61,-0.86,2.7,0.0,25.5,59.1,9.0,6.25,13.0,16.0,9.25,6.75,3.75,6.5,2.5,3.25,5.0,0.0,1.5,0.14,0.08,1.08,1787.52,-11.5,35.8
1.24,0.0,0.0,0.5,1.5,0.0,0.0,0.0,0.0,0.0,0.25,0.0,0.0,0.0,-0.92,-1.36,2.14,0.0,18.3,44.3,9.0,6.25,13.0,16.0,9.25,5.75,2.25,4.25,0.5,0.5,1.5,0.0,0.5,0.2,0.14,1.33,1742.77,-14.2,52.5
1.26,0.0,0.0,0.5,1.25,0.0,0.0,0.0,0.0,0.0,0.25,0.0,0.0,0.0,-1.55,-1.42,1.39,8.55,18.4,42.5,8.25,4.25,11.5,10.5,6.25,0.0,0.0,0.0,0.0,0.0,0.0,0.0,0.0,0.2,0.02,2.33,1486.08,-22.3,69.5
1.28,0.0,0.0,0.5,1.25,0.0,0.0,0.0,0.0,0.0,0.0,0.0,0.0,0.0,-1.61,-1.36,1.02,9.5,23.1,58.7,7.25,2.75,10.5,8.0,3.5,0.0,0.0,0.0,0.0,0.0,0.0,0.0,0.0,0.2,-0.17,1.95,1128.58,-24.8,70.1
1.3,0.0,0.0,0.75,1.0,0.0,0.0,0.0,0.0,0.0,0.0,0.0,0.0,0.0,-1.23,-0.86,1.33,15.86,26.1,59.2,4.5,1.0,8.0,5.5,0.25,0.0,0.0,0.0,0.0,0.0,0.0,0.0,0.0,-0.11,0.08,1.7,695.91,-29.3,69.9
1.32,0.0,0.0,0.5,0.75,0.0,0.0,0.0,0.0,0.0,0.0,0.0,0.0,0.0,-0.92,-0.17,1.52,14.43,25.5,59.1,0.25,0.0,4.0,3.0,0.0,0.0,0.0,0.0,0.0,0.0,0.0,0.0,0.0,-0.17,1.14,2.64,356.74,-29.3,60.8
1.34,0.0,0.0,0.5,1.25,0.0,0.0,0.0,0.0,0.0,0.0,0.0,0.0,0.0,-0.61,0.27,2.02,16.86,23.1,58.7,0.0,0.0,1.0,3.5,0.0,0.0,0.0,0.0,0.0,0.0,0.0,0.0,0.0,-0.17,0.95,1.7,148.31,-21.8,58.5
1.36,0.0,0.0,0.5,1.0,0.0,0.0,0.0,0.0,0.0,0.25,0.0,0.0,0.0,-0.55,0.64,2.33,17.86,18.6,40.3,0.0,0.0,1.0,3.0,0.0,0.0,0.0,0.0,0.0,0.0,0.0,0.0,0.0,-0.05,0.83,0.7,0.0,-22.4,58.6
1.38,0.0,0.0,0.5,1.25,0.0,0.0,0.0,0.0,0.0,0.0,0.0,0.0,0.0,-0.61,0.83,2.58,21.36,23.1,58.7,0.0,0.0,1.0,2.75,0.0,0.0,0.0,0.0,0.0,0.0,0.0,0.0,0.0,-0.42,1.14,2.27,0.0,-22.7,58.7
1.4,0.0,0.0,0.5,1.25,0.0,0.0,0.0,0.0,0.0,0.0,0.0,0.0,0.0,-0.55,0.89,3.27,23.97,23.1,58.7,0.0,0.0,1.0,1.25,0.0,0.0,0.0,0.0,0.0,0.0,0.0,0.0,0.0,-0.17,0.95,2.14,0.0,-26.4,59.2
1.42,0.0,0.0,0.75,1.5,0.0,0.0,0.0,0.0,0.0,0.0,0.0,0.0,0.0,-0.42,1.89,3.52,29.81,24.1,58.9,0.0,0.0,0.0,3.0,0.0,0.0,0.0,0.0,0.0,0.0,0.0,0.0,0.0,0.08,0.58,2.52,0.0,-17.2,57.9
1.44,0.0,0.0,0.75,1.0,0.0,0.0,0.0,0.0,0.0,0.0,0.0,0.0,0.0,-0.05,3.52,3.45,31.98,26.1,59.2,0.0,0.0,1.0,3.0,0.0,0.0,0.0,0.0,0.0,0.0,0.0,0.0,0.0,0.27,0.02,2.77,0.0,-22.4,58.6
1.46,0.0,0.0,1.25,2.0,0.0,0.0,0.25,0.0,0.0,0.5,0.0,0.0,0.0,0.89,5.64,2.58,45.91,20.3,41.3,0.0,0.0,1.0,0.5,0.0,0.0,0.0,0.0,0.0,0.0,0.0,0.0,0.0,0.58,-0.48,2.89,0.0,-31.1,59.9
1.48,0.0,0.0,1.5,1.75,0.0,0.0,0.0,0.0,0.0,0.25,0.0,0.5,0.0,1.52,7.64,0.08,57.16,22.1,30.7,0.0,0.0,0.0,3.0,0.0,0.0,0.0,0.0,0.0,0.0,0.0,0.0,0.0,0.64,-0.86,3.14,0.0,-17.2,57.9
1.5,0.0,0.0,2.0,1.75,0.0,0.0,0.0,0.0,0.0,0.25,0.0,0.0,0.0,0.52,7.02,-0.67,68.54,25.6,51.3,0.0,0.0,0.5,3.0,0.0,0.0,0.0,0.0,0.0,0.0,0.0,0.0,0.0,0.83,-1.55,2.2,0.0,-20.1,58.3
1.52,0.0,0.0,0.75,0.0,0.0,0.0,0.0,0.0,0.0,0.0,0.0,0.0,0.0,0.83,5.89,-0.23,55.04,38.2,60.9,0.0,0.0,0.5,3.0,0.0,0.0,0.0,0.0,0.0,0.0,0.0,0.0,0.0,1.14,-1.55,1.64,7.74,-20.1,58.3
1.54,0.0,0.0,2.0,0.5,0.0,0.0,0.0,0.0,0.75,7.5,2.5,5.5,5.0,1.39,4.02,2.2,166.43,-0.6,-74.9,0.0,0.0,0.75,3.0,0.0,0.0,0.0,0.0,0.0,0.0,0.0,0.0,0.0,1.33,-1.73,1.33,40.06,-21.3,58.5
1.56,0.0,0.0,0.0,1.75,0.0,2.0,0.0,6.0,4.5,7.75,7.75,5.5,6.75,-0.67,1.52,5.58,324.83,-3.4,-65.7,0.0,0.0,0.75,2.75,0.0,0.0,0.0,0.0,0.0,0.0,0.0,0.0,0.0,1.02,-1.17,1.39,59.21,-21.6,58.5
1.58,0.0,1.5,3.75,7.25,0.0,3.75,0.75,6.75,6.0,7.5,7.5,4.75,5.25,0.02,-0.17,0.89,567.57,2.1,-32.2,0.0,0.0,0.5,2.75,0.0,0.0,0.0,0.0,0.0,0.0,0.0,0.0,0.0,0.7,-0.3,1.64,62.18,-20.3,58.3
1.6,3.5,3.25,6.5,9.75,5.5,5.25,1.75,7.0,6.5,7.0,7.25,4.5,4.0,0.14,-0.05,1.02,912.49,5.4,-4.7,0.0,0.0,0.75,2.5,0.0,0.0,0.0,0.0,0.0,0.0,0.0,0.0,0.0,0.39,0.2,2.14,61.14,-22.0,58.6
1.62,6.25,5.25,8.5,12.5,7.75,6.0,2.25,7.0,6.25,6.0,6.75,3.25,2.75,-0.11,0.02,1.02,1284.85,7.8,12.1,0.0,0.0,0.75,2.5,0.0,0.0,0.0,0.0,0.0,0.0,0.0,0.0,0.0,0.2,0.58,2.45,60.89,-22.0,58.6
1.64,7.5,6.25,9.75,13.5,8.5,6.0,2.75,6.5,5.75,3.5,5.25,2.0,1.25,-0.17,0.08,1.14,1485.24,10.1,25.8,0.0,0.0,0.75,2.5,0.0,0.0,0.0,0.0,0.0,0.0,0.0,0.0,0.0,0.14,1.08,2.7,60.9,-22.0,58.6
1.66,8.0,6.75,10.5,14.5,9.0,5.75,2.0,5.5,2.75,1.75,2.0,1.25,0.5,-0.11,0.08,1.27,1559.18,11.7,41.4,0.0,0.0,0.0,2.75,0.0,0.0,0.0,0.0,0.0,0.0,0.0,0.0,0.0,0.2,1.52,3.02,56.67,-17.2,57.9
1.68,8.5,6.75,10.5,14.5,9.0,4.0,0.5,1.5,0.0,1.25,0.5,0.75,0.0,-0.3,0.2,2.08,1511.03,15.0,57.7,0.0,0.0,1.0,2.25,0.0,0.0,0.0,0.0,0.0,0.0,0.0,0.0,0.0,0.08,2.39,3.08,56.7,-23.6,58.8
1.7,8.75,6.5,10.5,13.5,7.75,2.0,0.0,0.0,0.5,0.25,0.25,0.75,0.0,-0.3,-0.05,2.52,1382.76,18.4,63.8,0.0,0.0,0.5,2.5,0.0,0.0,0.0,0.0,0.0,0.0,0.0,0.0,0.0,-0.17,3.77,2.77,56.27,-20.6,58.4
1.72,8.25,5.5,9.5,11.0,0.0,0.0,0.0,0.0,0.5,0.25,0.25,0.75,0.0,-0.48,-0.11,1.95,1101.81,25.4,67.0,0.0,0.0,0.5,2.25,0.0,0.0,0.0,0.0,0.0,0.0,0.0,0.0,0.0,-1.11,5.2,2.45,52.53,-20.9,58.4
1.74,7.0,0.0,8.75,8.5,0.0,0.0,0.0,0.0,0.25,0.25,0.0,0.0,0.0,-0.36,-0.05,1.7,773.38,29.1,67.2,0.0,0.0,0.0,2.5,0.0,0.0,0.0,0.0,0.0,0.0,0.0,0.0,0.0,-2.48,6.64,1.14,48.45,-17.2,57.9
1.76,4.5,0.0,6.5,5.5,0.0,0.0,0.0,0.0,0.25,0.75,0.0,0.0,0.0,-0.23,0.64,2.45,477.06,27.9,61.5,0.0,0.0,0.75,2.5,0.0,0.0,0.0,0.0,0.0,0.0,0.0,0.0,0.0,-1.61,6.08,-0.55,50.4,-22.0,58.6
1.78,1.5,0.0,4.5,3.5,0.0,0.0,0.0,0.0,0.0,0.5,0.0,0.0,0.0,-0.55,1.39,1.95,262.31,27.6,58.2,0.0,0.0,0.75,2.0,0.0,0.0,0.0,0.0,0.0,0.0,0.0,0.0,0.0,-1.67,4.64,-0.11,49.42,-22.8,58.7
1.8,0.0,0.0,3.75,3.5,0.0,0.0,0.0,0.0,0.0,0.25,0.0,0.0,0.0,-0.73,0.27,1.2,112.83,26.6,55.1,0.0,0.0,0.0,0.5,0.0,0.0,0.0,0.0,0.0,6.5,0.5,4.0,0.5,-0.98,3.83,-1.23,103.02,4.9,-82.5
1.82,0.0,0.0,3.25,3.5,0.0,0.0,0.0,0.0,0.25,0.25,0.0,0.25,0.0,0.2,0.02,1.7,0.83,24.8,46.4,0.0,0.0,0.0,3.0,0.25,0.0,0.0,5.5,2.75,10.5,9.75,6.25,8.75,-0.05,2.89,7.95,299.5,2.9,-70.4
1.84,0.0,0.0,2.5,2.75,0.0,0.0,0.0,0.0,0.0,0.25,0.0,0.25,0.0,0.02,0.89,2.77,0.0,24.5,46.6,1.5,1.0,4.25,7.0,2.75,3.25,1.25,7.5,3.75,9.25,9.75,5.0,7.0,-0.17,0.14,1.14,583.92,-1.8,-31.0
1.86,0.0,0.0,2.25,2.5,0.0,0.0,0.0,0.0,0.0,0.25,0.0,0.0,0.0,0.02,0.7,2.33,0.0,25.0,52.8,4.75,3.0,8.0,10.5,6.25,5.75,2.25,8.0,4.5,8.75,9.25,4.25,5.5,0.27,0.39,1.02,1026.31,-5.2,-5.2
1.88,0.0,0.0,2.25,1.5,0.0,0.0,0.0,0.0,0.0,0.0,0.0,0.0,0.0,-0.42,0.02,2.27,0.0,29.7,59.7,7.0,4.5,9.75,14.0,8.0,6.5,3.75,8.25,4.5,8.25,8.75,3.75,4.75,0.08,0.14,0.95,1432.55,-7.1,6.7
1.9,0.0,0.0,2.0,1.75,0.0,0.0,0.0,0.0,0.0,0.25,0.0,0.0,0.0,-0.48,-0.48,2.33,0.0,25.6,51.3,8.25,5.75,12.0,15.5,9.0,7.0,4.5,8.0,4.0,6.75,8.0,2.0,3.25,0.27,0.08,1.14,1695.12,-9.0,18.6
1.92,0.0,0.0,2.25,2.0,0.0,0.0,0.0,0.0,0.0,0.25,0.0,0.0,0.0,-0.48,-0.67,2.45,0.0,25.9,52.2,8.75,6.0,13.0,16.0,9.25,6.75,4.25,7.25,2.5,3.5,5.25,0.0,1.75,0.2,0.08,1.02,1795.4,-11.1,33.7
1.94,0.0,0.0,2.5,2.0,0.0,0.0,0.0,0.0,0.0,0.25,0.0,0.0,0.0,-0.48,-0.98,2.39,0.0,26.5,52.7,9.0,6.25,13.0,16.0,9.25,5.75,2.75,4.5,0.5,0.5,1.75,0.0,0.5,0.27,0.14,1.2,1756.2,-14.1,51.6
1.96,0.0,0.0,2.0,1.0,0.0,0.0,0.0,0.0,0.0,0.25,0.0,0.0,0.0,-0.92,-1.3,1.83,6.96,27.6,49.8,8.25,5.0,13.5,12.5,8.5,0.75,0.0,0.75,0.0,0.0,0.0,0.0,0.0,0.08,0.14,2.39,1556.71,-20.1,66.3
1.98,0.0,0.0,1.5,1.0,0.0,0.0,0.0,0.0,0.0,0.0,0.0,0.0,0.0,-1.55,-1.3,1.33,22.19,29.7,59.7,8.0,4.0,11.5,10.5,6.5,0.0,0.0,0.0,0.0,0.0,0.0,0.0,0.0,0.2,0.02,2.08,1293.67,-22.1,69.1
2.0,0.0,0.0,1.5,1.5,0.0,0.0,0.0,0.0,0.0,0.0,0.0,0.0,0.0,-1.61,-1.11,1.14,31.33,27.6,59.4,7.25,3.0,9.75,7.75,3.0,0.0,0.0,0.0,0.0,0.0,0.0,0.0,0.0,0.2,-0.17,1.7,913.5,-25.0,71.0
2.02,0.0,0.0,1.5,1.5,0.0,0.0,0.0,0.0,0.0,0.0,0.0,0.0,0.0,-1.42,-0.55,1.33,38.01,27.6,59.4,4.5,0.75,8.0,5.5,0.0,0.0,0.0,0.0,0.0,0.0,0.0,0.0,0.0,-0.05,0.08,1.64,569.04,-30.1,69.7
2.04,0.0,0.0,1.75,1.5,0.0,0.0,0.0,0.0,0.0,0.0,0.0,0.0,0.0,-1.23,0.08,1.58,43.03,28.4,59.5,0.5,0.0,4.0,3.0,0.0,0.0,0.0,0.0,0.0,0.0,0.0,0.0,0.0,-0.11,1.33,2.95,287.55,-29.5,61.9
2.06,0.0,0.0,1.5,1.25,0.0,0.0,0.0,0.0,0.0,0.0,0.0,0.0,0.0,-0.86,0.39,2.02,44.47,28.6,59.5,0.0,0.0,1.0,1.75,0.0,0.0,0.0,0.0,0.0,0.0,0.0,0.0,0.0,-0.23,1.14,2.52,79.07,-24.7,59.0
2.08,0.0,0.0,1.5,1.0,0.0,0.0,0.0,0.0,0.0,0.0,0.0,0.0,0.0,-0.73,0.7,2.2,44.99,29.7,59.7,0.0,0.0,1.0,1.25,0.0,0.0,0.0,0.0,0.0,0.0,0.0,0.0,0.0,0.2,-0.05,1.45,0.0,-26.4,59.2
2.1,0.0,0.0,1.5,1.25,0.0,0.0,0.0,0.0,0.0,0.0,0.0,0.0,0.0,-0.61,0.77,2.83,44.4,28.6,59.5,0.0,0.0,1.0,1.0,0.0,0.0,0.0,0.0,0.0,0.0,0.0,0.0,0.0,-0.36,1.27,2.33,0.0,-27.6,59.4
2.12,0.0,0.0,1.5,1.0,0.0,0.0,0.0,0.0,0.0,0.0,0.0,0.0,0.0,-0.42,0.83,3.08,43.1,29.7,59.7,0.0,0.0,0.0,3.0,0.0,0.0,0.0,0.0,0.0,0.0,0.0,0.0,0.0,-0.11,0.83,2.14,0.0,-17.2,57.9
2.14,0.0,0.0,1.25,1.0,0.0,0.0,0.0,0.0,0.0,0.0,0.0,0.0,0.0,-0.05,2.14,3.64,40.32,28.8,59.6,0.0,0.0,0.0,3.0,0.0,0.0,0.0,0.0,0.0,0.0,0.0,0.0,0.0,0.27,0.2,2.33,0.0,-17.2,57.9
2.16,0.0,0.0,1.5,0.5,0.0,0.0,0.0,0.0,0.0,0.0,0.0,0.0,0.0,0.58,4.45,3.52,36.78,32.9,60.2,0.0,0.0,0.75,3.0,0.0,0.0,0.0,0.0,0.0,0.0,0.0,0.0,0.0,0.33,-0.23,2.52,0.0,-21.3,58.5
2.18,0.0,0.0,1.5,1.25,0.0,0.0,0.0,0.0,0.0,0.25,0.0,0.0,0.0,1.33,6.83,2.39,40.84,25.0,48.6,0.0,0.0,0.75,0.75,0.0,0.0,0.0,0.0,0.0,0.0,0.0,0.0,0.0,0.45,-0.55,2.58,0.0,-27.6,59.4
2.2,0.0,0.0,2.25,1.75,0.0,0.0,0.0,0.0,0.0,0.25,0.0,0.75,0.0,1.08,7.45,0.08,56.7,23.8,28.5,0.0,0.0,0.0,3.0,0.0,0.0,0.0,0.0,0.0,0.0,0.0,0.0,0.0,0.58,-0.61,2.83,0.0,-17.2,57.9
2.22,0.0,0.0,2.25,1.75,0.0,0.0,0.0,0.0,0.0,0.25,0.0,0.25,0.0,0.77,5.89,-0.23,68.85,25.4,43.2,0.0,0.0,0.75,3.0,0.0,0.0,0.0,0.0,0.0,0.0,0.0,0.0,0.0,0.77,-1.17,2.33,0.0,-21.3,58.5
2.24,0.0,0.0,1.25,1.25,0.0,0.0,0.0,0.0,0.0,0.25,0.0,0.75,0.0,0.45,7.02,0.14,70.96,20.7,14.9,0.0,0.0,0.5,2.75,0.0,0.0,0.0,0.0,0.0,0.0,0.0,0.0,0.0,1.14,-1.11,1.64,10.64,-20.3,58.3
2.26,0.0,0.0,1.0,0.25,0.0,0.0,0.0,0.0,1.5,7.75,1.5,5.75,3.5,0.89,0.89,5.39,166.22,-2.0,-79.7,0.0,0.0,0.75,2.75,0.0,0.0,0.0,0.0,0.0,0.0,0.0,0.0,0.0,1.2,-1.23,1.33,41.55,-21.6,58.5
2.28,0.0,0.25,0.0,0.0,0.0,1.5,0.0,6.0,4.75,7.75,7.5,5.5,6.0,-0.55,0.95,3.02,312.3,-3.8,-70.5,0.0,0.0,0.75,2.75,0.0,0.0,0.0,0.0,0.0,0.0,0.0,0.0,0.0,1.14,-0.86,1.2,60.28,-21.6,58.5
2.3,0.0,1.5,4.0,7.0,0.0,2.75,1.0,6.5,6.0,7.5,7.5,5.0,5.0,0.08,-0.11,0.83,540.01,2.9,-33.2,0.0,0.0,0.0,2.5,0.0,0.0,0.0,0.0,0.0,0.0,0.0,0.0,0.0,0.83,-0.11,1.39,60.18,-17.2,57.9
2.32,2.75,3.25,6.5,9.75,4.75,4.75,1.75,7.0,6.5,7.0,7.25,4.75,4.0,0.14,-0.05,1.14,870.46,5.4,-7.0,0.0,0.0,0.0,2.5,0.0,0.0,0.0,0.0,0.0,0.0,0.0,0.0,0.0,0.58,0.2,1.77,54.29,-17.2,57.9
2.34,5.75,4.5,8.0,12.0,7.25,5.5,2.5,7.0,6.5,6.25,7.0,4.0,3.0,-0.17,0.02,1.02,1230.76,7.5,7.5,0.0,0.0,0.75,2.25,0.0,0.0,0.0,0.0,0.0,0.0,0.0,0.0,0.0,0.33,0.45,2.02,52.17,-22.4,58.6
2.36,7.25,5.5,9.25,13.5,8.5,6.0,2.75,6.75,6.0,4.0,5.5,2.25,1.75,-0.17,0.02,1.08,1456.85,9.4,22.0,0.0,0.0,0.75,2.0,0.0,0.0,0.0,0.0,0.0,0.0,0.0,0.0,0.0,0.2,0.77,2.27,49.87,-22.8,58.7
2.38,7.75,6.5,10.5,14.5,8.5,5.75,2.25,6.0,4.0,2.0,2.75,1.75,1.0,-0.11,0.02,1.14,1555.09,11.3,35.4,0.0,0.0,0.75,2.5,0.0,0.0,0.0,0.0,0.0,0.0,0.0,0.0,0.0,0.27,1.02,2.39,52.7,-22.0,58.6
2.4,8.25,6.5,10.5,14.5,8.75,4.5,1.0,3.25,1.5,1.25,0.5,0.75,0.0,-0.23,0.08,1.27,1531.13,13.9,52.1,0.0,0.0,0.75,2.25,0.0,0.0,0.0,0.0,0.0,0.0,0.0,0.0,0.0,0.33,1.52,2.95,53.91,-22.4,58.6
2.42,8.25,6.5,10.5,13.5,8.25,2.75,0.0,0.0,0.5,0.5,0.25,0.75,0.0,-0.17,0.08,2.08,1412.8,17.3,62.4,0.0,0.0,0.75,2.25,0.0,0.0,0.0,0.0,0.0,0.0,0.0,0.0,0.0,0.2,2.7,3.02,55.81,-22.4,58.6
2.44,8.25,5.75,10.5,12.0,0.0,0.75,0.0,0.0,0.5,0.25,0.0,0.75,0.0,-0.48,-0.05,2.02,1158.77,24.6,67.1,0.0,0.0,0.75,0.5,0.0,0.0,0.0,0.0,0.0,0.0,0.0,0.0,0.0,-0.36,4.08,2.52,42.57,-29.7,59.7
2.46,7.0,0.0,9.25,8.5,0.0,0.0,0.0,0.0,0.0,0.0,0.0,0.25,0.0,-0.3,-0.11,1.83,813.62,29.7,67.7,0.0,0.0,0.5,0.75,0.0,0.0,0.0,0.0,0.0,0.0,0.0,0.0,0.0,-1.61,6.02,1.83,32.18,-25.5,59.1
2.48,3.0,0.0,6.5,5.5,0.0,0.0,0.0,0.0,0.0,0.0,0.0,0.0,0.0,-0.17,0.58,1.89,487.92,29.7,66.6,0.0,0.0,0.25,2.75,0.5,0.0,0.0,0.0,0.0,0.0,0.0,0.0,0.0,-2.11,6.27,-0.36,37.78,-15.4,57.4
2.5,1.75,0.0,5.5,4.75,0.0,0.0,0.0,0.0,0.0,0.25,0.0,0.0,0.0,-0.42,1.39,2.7,274.66,28.4,61.8,0.0,0.0,0.75,2.25,0.0,0.0,0.0,0.0,0.0,0.25,0.0,0.0,0.0,-1.8,5.2,-0.61,44.48,-19.5,48.7
2.52,0.0,0.0,4.0,3.0,0.0,0.0,0.0,0.0,0.0,0.25,0.0,0.25,0.0,-0.67,0.45,1.64,122.54,27.0,49.8,0.0,0.0,0.25,0.5,0.0,0.0,0.0,0.0,0.0,7.5,0.25,5.25,2.25,-1.92,4.7,-2.05,126.2,5.0,-85.0
2.54,0.0,0.0,1.25,2.5,0.0,0.0,0.0,0.0,0.0,0.25,0.0,0.0,0.0,-0.23,1.33,1.77,0.0,21.7,50.8,0.0,0.0,0.5,3.25,0.0,0.0,0.0,4.5,2.5,10.0,9.75,6.25,8.25,0.33,2.2,7.95,312.27,1.8,-69.3
2.56,0.0,0.0,2.75,1.5,0.0,0.0,0.0,0.0,0.0,0.25,0.0,0.0,0.0,0.08,0.7,2.33,0.0,28.2,52.6,0.75,0.0,1.5,5.5,0.25,3.0,0.75,7.25,3.75,9.0,9.5,4.5,7.0,0.08,0.02,1.08,550.37,0.9,-47.0
2.58,0.0,0.0,2.25,1.0,0.0,0.0,0.0,0.0,0.0,0.25,0.0,0.0,0.0,-0.17,0.52,2.2,0.0,28.4,50.6,4.5,2.75,7.25,10.5,6.25,5.75,1.75,8.0,4.5,9.0,9.0,4.0,5.25,0.39,0.64,1.27,958.54,-4.7,-5.9
2.6,0.0,0.0,2.25,1.5,0.0,0.0,0.0,0.0,0.0,0.25,0.0,0.0,0.0,-0.36,0.08,2.27,0.0,27.0,51.5,6.75,4.5,9.5,12.5,8.0,7.0,3.5,8.5,5.0,8.75,9.0,4.0,5.0,0.2,0.14,0.95,1380.68,-6.4,3.9
2.62,0.0,0.0,2.0,1.5,0.0,0.0,0.0,0.0,0.0,0.0,0.0,0.0,0.0,-0.36,-0.17,2.52,0.0,29.1,59.6,8.25,5.5,12.0,15.5,9.0,7.0,4.5,8.5,4.5,7.25,8.5,2.5,3.5,0.27,0.08,1.08,1674.18,-8.7,15.8
2.64,0.0,0.0,2.0,1.5,0.0,0.0,0.0,0.0,0.0,0.0,0.0,0.0,0.0,-0.42,-0.42,2.77,0.0,29.1,59.6,9.0,6.0,12.5,16.0,9.25,7.0,4.25,7.5,3.0,3.5,5.75,0.0,2.25,0.2,0.02,1.02,1801.73,-10.7,31.6
2.66,0.0,0.0,2.0,1.5,0.0,0.0,0.0,0.0,0.0,0.25,0.0,0.0,0.0,-0.73,-1.17,2.33,0.0,26.2,50.9,9.0,6.25,13.0,16.0,9.25,6.25,2.5,4.75,0.5,0.5,1.5,0.0,0.5,0.27,0.14,1.27,1776.69,-13.7,51.7
2.68,0.0,0.0,2.0,1.5,0.0,0.0,0.0,0.0,0.0,0.25,0.0,0.0,0.0,-1.17,-1.23,1.7,0.0,26.2,50.9,9.5,5.5,13.0,13.0,9.25,2.5,0.5,1.75,0.0,0.5,0.5,0.0,0.0,0.39,0.27,1.58,1612.47,-17.6,61.6
2.7,0.0,0.0,2.0,1.5,0.0,0.0,0.0,0.0,0.0,0.25,0.0,0.0,0.0,-1.36,-1.3,1.2,25.41,26.2,50.9,8.25,4.25,11.0,9.25,6.5,0.0,0.0,0.0,0.0,0.0,0.0,0.0,0.0,0.33,0.02,2.2,1331.6,-22.1,69.9
2.72,0.0,0.0,1.0,1.25,0.0,0.0,0.0,0.0,0.0,0.0,0.0,0.0,0.0,-1.48,-0.86,1.2,34.95,26.4,59.2,7.5,2.75,9.75,7.25,4.25,0.0,0.0,0.0,0.0,0.0,0.0,0.0,0.0,0.2,-0.11,1.77,955.9,-24.0,70.4
2.74,0.0,0.0,1.0,1.5,0.0,0.0,0.0,0.0,0.0,0.0,0.0,0.0,0.0,-1.3,-0.17,1.52,38.15,25.5,59.1,4.5,0.5,8.0,5.25,0.0,0.0,0.0,0.0,0.0,0.0,0.0,0.0,0.0,-0.05,0.14,1.7,583.4,-30.5,69.5
2.76,0.0,0.0,2.0,1.5,0.0,0.0,0.0,0.0,0.0,0.0,0.0,0.0,0.0,-0.8,0.2,1.77,46.22,29.1,59.6,0.75,0.0,4.0,3.0,0.0,0.0,0.0,0.0,0.0,0.0,0.0,0.0,0.0,0.02,1.64,3.08,294.57,-29.6,63.0
2.78,0.0,0.0,1.75,1.5,0.0,0.0,0.0,0.0,0.0,0.0,0.0,0.0,0.0,-0.67,0.58,2.08,51.69,28.4,59.5,0.5,0.0,0.75,3.25,0.0,0.0,0.0,0.0,0.0,0.0,0.25,0.0,0.0,0.08,0.83,2.08,98.05,-21.9,55.6
2.8,0.0,0.0,1.75,1.5,0.0,0.0,0.0,0.0,0.0,0.0,0.0,0.0,0.0,-0.61,0.64,2.27,54.52,28.4,59.5,0.5,0.0,1.0,3.0,0.0,0.0,0.0,0.0,0.0,0.0,0.0,0.0,0.0,-0.55,-0.48,0.7,0.0,-23.6,62.6
2.82,0.0,0.0,1.5,1.5,0.0,0.0,0.0,0.0,0.0,0.0,0.0,0.0,0.0,-0.61,0.83,2.83,55.49,27.6,59.4,0.0,0.0,1.25,3.0,0.0,0.0,0.0,0.0,0.0,0.0,0.0,0.0,0.0,-0.36,0.89,2.27,0.0,-23.3,58.8
2.84,0.0,0.0,1.75,1.5,0.0,0.0,0.0,0.0,0.0,0.0,0.0,0.0,0.0,-0.17,1.77,3.14,56.0,28.4,59.5,0.0,0.0,1.0,3.0,0.0,0.0,0.0,0.0,0.0,0.0,0.0,0.0,0.0,-0.11,0.83,1.95,0.0,-22.4,58.6
2.86,0.0,0.0,2.0,1.5,0.0,0.0,0.0,0.0,0.0,0.0,0.0,0.0,0.0,0.39,3.27,3.2,57.63,29.1,59.6,0.0,0.0,1.0,3.0,0.0,0.0,0.0,0.0,0.0,0.0,0.0,0.0,0.0,0.14,0.27,2.2,0.0,-22.4,58.6
2.88,0.0,0.0,0.75,1.5,0.0,0.0,0.0,0.0,0.0,0.0,0.0,0.0,0.0,1.27,4.83,2.77,52.42,24.1,58.9,0.0,0.0,0.75,2.75,0.0,0.0,0.0,0.0,0.0,0.0,0.0,0.0,0.0,0.33,-0.3,2.33,0.0,-21.6,58.5
2.9,0.0,0.0,1.0,1.5,0.0,0.0,0.0,0.0,0.0,0.0,0.0,0.0,0.0,1.08,6.83,-0.3,48.96,25.5,59.1,0.0,0.0,0.75,3.0,0.0,0.0,0.0,0.0,0.0,0.0,0.0,0.0,0.0,0.39,-0.55,2.45,0.0,-21.3,58.5
2.92,0.0,0.0,2.25,2.0,0.0,0.0,0.0,0.0,0.0,0.25,0.0,0.0,0.0,0.45,6.64,-0.8,57.24,25.9,52.2,0.0,0.0,0.75,3.0,0.0,0.0,0.0,0.0,0.0,0.0,0.0,0.0,0.0,0.45,-0.55,2.77,0.0,-21.3,58.5
2.94,0.0,0.0,2.25,0.0,0.0,0.0,0.0,0.0,0.0,0.0,0.0,0.0,0.0,1.39,5.02,0.2,53.77,38.2,61.0,0.0,0.0,0.5,2.75,0.0,0.0,0.0,0.0,0.0,0.0,0.0,0.0,0.0,0.52,-1.17,2.52,0.0,-20.3,58.3
2.96,0.0,0.0,0.0,1.25,0.0,0.0,0.0,0.0,0.0,3.75,0.0,3.75,0.0,0.83,3.89,-1.42,87.47,-0.3,-70.2,0.0,0.0,0.5,3.0,0.0,0.0,0.0,0.0,0.0,0.0,0.0,0.0,0.0,1.02,-1.11,1.7,16.75,-20.1,58.3
2.98,0.0,0.0,2.0,0.0,0.0,0.25,0.0,4.25,3.25,7.75,6.5,5.75,6.0,-0.36,1.39,7.7,242.65,-1.2,-70.6,0.0,0.0,0.75,2.75,0.0,0.0,0.0,0.0,0.0,0.0,0.0,0.0,0.0,1.27,-1.23,1.39,42.32,-21.6,58.5
3.0,0.0,0.5,2.5,5.25,0.0,2.75,0.5,6.25,5.75,7.75,7.25,5.5,5.5,0.27,0.02,1.2,431.31,0.7,-44.2,0.0,0.0,0.75,2.75,0.0,0.0,0.0,0.0,0.0,0.0,0.0,0.0,0.0,1.2,-0.98,1.27,56.25,-21.6,58.5
3.02,1.0,2.0,5.5,9.0,4.25,4.25,1.5,7.0,6.5,7.75,7.25,5.25,5.0,-0.11,0.33,1.08,754.41,3.6,-17.5,0.0,0.0,0.75,2.5,0.0,0.0,0.0,0.0,0.0,0.0,0.0,0.0,0.0,1.02,-0.36,1.39,58.32,-22.0,58.6
3.04,4.5,4.25,7.75,12.0,6.75,5.75,2.5,7.25,6.75,7.0,7.25,4.5,4.0,-0.05,0.08,1.14,1141.54,6.5,1.9,0.0,0.0,0.75,2.25,0.0,0.0,0.0,0.0,0.0,0.0,0.0,0.0,0.0,0.7,0.14,1.7,56.42,-22.4,58.6
3.06,7.0,5.5,9.0,14.0,8.5,6.5,3.75,7.0,5.75,3.5,6.5,1.75,3.75,-0.05,0.02,1.14,1437.8,8.7,18.9,0.0,0.0,0.75,2.5,0.0,0.0,0.0,0.0,0.0,0.0,0.0,0.0,0.0,0.52,0.52,1.95,55.84,-22.0,58.6
3.08,7.75,6.5,10.5,15.0,9.0,5.75,2.5,4.75,1.75,1.75,2.25,1.0,1.75,-0.17,0.08,1.2,1540.12,11.6,40.4,0.0,0.0,0.75,2.0,0.0,0.0,0.0,0.0,0.0,0.0,0.0,0.0,0.0,0.39,0.83,2.08,52.68,-22.8,58.7
3.1,8.0,6.5,11.0,14.0,8.75,4.25,1.0,1.5,0.75,1.0,1.25,0.75,1.5,0.02,0.08,2.52,1519.52,14.4,50.7,0.0,0.0,0.25,2.25,0.0,0.0,0.0,0.0,0.0,0.0,0.0,0.0,0.0,0.45,1.02,2.27,49.06,-19.2,58.2
3.12,8.25,5.75,10.5,0.0,0.0,2.75,0.5,0.0,0.5,0.25,1.25,0.75,1.5,-0.17,-0.11,2.52,1248.0,22.4,54.3,0.0,0.0,0.5,2.25,0.0,0.0,0.0,0.0,0.0,0.0,0.0,0.0,0.0,0.83,1.33,2.77,47.34,-20.9,58.4
3.14,7.75,5.5,0.0,11.0,0.0,0.75,0.25,0.0,0.5,0.25,1.0,0.75,1.5,-0.48,-0.11,2.08,902.55,17.3,54.7,0.0,0.0,0.5,2.5,0.0,0.0,0.0,0.0,0.0,0.0,0.0,0.0,0.0,0.83,2.2,2.89,47.98,-20.6,58.4
3.16,0.0,0.0,8.5,8.0,0.0,0.0,0.5,0.0,0.5,0.25,0.75,0.75,1.5,-0.17,-0.05,1.83,575.57,22.8,32.2,0.0,0.0,0.75,2.5,0.0,0.0,0.0,0.0,0.0,0.0,0.0,0.0,0.0,-0.05,3.58,2.83,51.22,-22.0,58.6
3.18,4.5,0.0,6.5,4.75,0.0,0.0,0.5,0.0,0.25,0.5,0.5,0.0,1.0,0.02,0.7,2.2,379.03,26.2,49.9,0.0,0.0,0.75,2.25,0.0,0.0,0.0,0.0,0.0,0.0,0.0,0.0,0.0,-1.23,5.83,2.14,53.14,-22.4,58.6
3.2,0.0,0.0,4.75,2.75,0.0,0.0,0.25,0.0,0.0,0.5,0.5,0.0,1.25,-0.3,1.45,2.7,227.45,21.6,24.8,0.0,0.0,0.5,2.5,0.0,0.0,0.0,0.0,0.0,0.0,0.0,0.0,0.0,-2.11,7.14,0.2,53.98,-20.6,58.4
3.22,0.0,0.0,3.75,0.25,0.0,0.0,0.25,0.0,0.0,0.25,0.5,0.0,1.5,-0.36,0.7,1.95,92.76,20.9,4.4,0.0,0.0,0.5,2.25,0.0,0.0,0.0,0.0,0.0,0.0,0.0,0.0,0.0,-1.67,5.77,-0.55,52.34,-20.9,58.4
3.24,0.0,0.0,3.0,1.75,0.0,0.0,0.25,0.0,0.0,0.25,1.0,0.0,1.5,-0.55,0.52,0.95,0.0,17.8,4.6,0.0,0.0,0.5,2.75,0.0,0.0,0.0,0.0,0.0,0.5,0.0,0.0,0.0,-1.67,4.2,0.02,56.47,-15.7,41.1
3.26,0.0,0.0,3.0,1.25,0.0,0.0,0.25,0.0,0.0,0.25,0.75,0.0,1.5,-0.3,1.27,1.39,0.0,18.1,3.4,0.0,0.25,0.25,3.25,0.0,0.0,0.0,0.0,0.75,9.0,3.75,6.0,5.25,1.45,-3.17,-4.55,189.93,1.4,-69.5
3.28,0.0,0.0,2.5,0.5,0.0,0.0,0.25,0.0,0.0,0.25,0.25,0.5,1.5,0.27,0.95,2.58,0.0,16.2,-12.3,0.25,0.25,0.0,4.5,0.25,1.5,0.75,7.0,3.5,10.0,11.0,6.0,8.5,1.45,2.2,1.45,401.86,2.1,-60.0
3.3,0.0,0.0,2.5,0.5,0.0,0.0,0.25,0.0,0.0,0.25,0.5,0.25,1.5,-0.11,0.77,2.52,0.0,16.3,-10.7,3.25,2.0,6.25,9.0,4.5,5.0,1.75,7.75,4.5,9.25,9.75,5.0,6.0,-0.05,0.14,1.2,785.92,-3.8,-16.3
3.32,0.0,0.0,2.25,0.5,0.0,0.0,0.25,0.0,0.0,0.25,0.0,0.25,1.5,-0.48,0.33,2.52,0.0,15.7,-8.1,6.5,4.0,9.0,12.5,7.75,6.75,3.25,8.5,4.5,8.75,9.25,4.25,5.5,0.27,0.14,1.02,1284.37,-6.1,1.5
3.34,0.0,0.0,2.25,0.5,0.0,0.0,0.25,0.0,0.0,0.25,0.5,0.25,1.25,-0.48,-0.17,2.64,0.0,16.7,-9.4,8.0,5.25,11.0,14.5,9.0,7.25,4.25,8.5,4.5,7.75,8.75,3.0,4.25,0.27,0.14,0.95,1611.34,-7.8,12.0
3.36,0.0,0.0,2.25,0.75,0.0,0.0,0.25,0.0,0.0,0.25,0.5,0.25,1.5,-0.55,-0.55,2.7,16.9,15.3,-10.8,8.75,6.0,13.0,15.5,10.5,7.5,4.5,8.0,3.75,6.0,7.25,1.0,2.75,0.27,0.14,1.08,1819.23,-9.4,24.1
3.38,0.0,0.0,2.0,0.5,0.0,0.0,0.25,0.0,0.0,0.25,0.5,0.0,1.5,-0.67,-1.36,2.52,31.74,14.4,-13.2,9.25,6.25,13.0,16.0,10.5,6.5,4.0,6.5,1.25,1.5,3.25,0.0,0.75,0.2,0.14,1.2,1845.36,-12.3,43.8
3.4,0.0,0.0,2.25,0.5,0.0,0.0,0.25,0.0,0.0,0.25,0.25,0.0,1.5,-0.92,-1.8,1.83,48.4,15.8,-6.3,9.75,6.0,14.5,15.5,9.5,3.25,1.75,2.5,0.0,0.5,0.5,0.0,0.25,0.27,0.2,1.39,1739.11,-17.2,59.4
3.42,0.0,0.0,2.0,0.25,0.0,0.0,0.25,0.0,0.0,0.0,0.0,0.0,0.25,-1.3,-1.92,1.33,46.97,31.0,42.9,9.75,5.25,13.5,12.5,8.5,0.25,0.25,0.0,0.0,0.25,0.0,0.0,0.0,0.27,0.02,2.89,1520.15,-21.2,68.3
3.44,0.0,0.0,2.25,0.0,0.0,0.0,0.5,0.0,0.0,0.0,0.0,0.0,0.25,-1.36,-1.61,1.08,48.16,33.0,42.5,9.0,3.0,13.0,9.5,6.5,0.0,0.0,0.0,0.0,0.0,0.25,0.0,0.0,0.33,-0.05,1.77,1247.37,-23.3,68.2
3.46,0.0,0.0,1.5,0.0,0.0,0.0,0.0,0.0,0.0,0.0,0.0,0.0,0.25,-0.98,-0.67,1.2,36.33,30.8,36.5,5.5,0.5,8.0,5.25,0.0,0.0,0.0,0.0,0.0,0.0,0.0,0.0,0.0,0.02,-0.17,1.77,787.59,-30.7,70.9
3.48,0.0,0.0,1.5,0.0,0.0,0.0,0.0,0.0,0.0,0.0,0.0,0.0,0.25,-0.61,-0.05,1.7,27.01,30.8,36.5,1.75,0.0,4.75,3.25,0.0,0.0,0.0,0.0,0.0,0.0,0.0,0.0,0.0,0.02,1.64,3.33,409.3,-30.5,66.0
3.5,0.0,0.0,1.25,0.0,0.0,0.0,0.0,0.0,0.0,0.0,0.0,0.0,0.25,-0.42,0.33,2.14,20.18,29.6,32.5,0.0,0.0,2.0,2.25,0.0,0.0,0.0,0.0,0.0,0.0,0.0,0.0,0.0,-0.11,1.52,2.39,163.63,-27.0,59.3
3.52,0.0,0.0,1.5,0.0,0.0,0.0,0.0,0.0,0.0,0.0,0.0,0.0,0.25,-0.3,0.7,2.39,19.36,30.8,36.5,0.25,0.0,1.5,3.0,0.0,0.0,0.0,0.0,0.0,0.0,0.0,0.0,0.0,0.45,-0.17,2.08,0.0,-24.6,60.7
3.54,0.0,0.0,1.75,0.0,0.0,0.0,0.0,0.0,0.0,0.0,0.0,0.0,0.25,-0.36,0.83,2.95,20.17,31.7,39.6,1.25,0.5,1.0,3.0,0.0,0.0,0.25,1.0,0.0,0.0,0.75,0.25,0.0,0.33,1.52,0.83,0.0,-17.3,36.7
3.56,0.0,0.0,1.75,0.0,0.0,0.0,0.0,0.0,0.0,0.0,0.0,0.0,0.25,-0.3,1.2,3.27,22.86,31.7,39.6,0.5,0.5,1.0,2.75,0.0,0.0,0.25,1.0,0.0,0.0,0.75,0.25,0.0,-0.11,0.83,2.27,0.0,-15.5,29.8
3.58,0.0,0.0,1.75,0.0,0.0,0.0,0.0,0.0,0.0,0.0,0.0,0.0,0.25,0.08,2.64,3.39,25.06,31.7,39.6,1.5,0.5,1.0,3.0,0.0,0.0,0.25,1.0,0.0,0.0,0.75,0.25,0.25,0.08,0.45,2.58,0.0,-16.8,34.0
3.6,0.0,0.0,1.5,0.0,0.0,0.0,0.0,0.0,0.0,0.25,0.0,0.0,0.25,0.58,4.27,3.2,26.75,25.1,22.9,0.75,0.5,0.75,2.75,0.0,0.0,0.25,1.0,0.0,0.0,0.75,0.25,0.0,0.27,0.02,3.02,0.0,-15.4,31.0
3.62,0.0,0.0,2.0,0.5,0.0,0.0,0.25,0.0,0.0,0.25,0.0,0.0,0.25,1.64,6.33,2.64,36.01,26.2,34.9,0.5,0.5,1.0,3.0,0.0,0.0,0.25,1.0,0.0,0.0,0.75,0.25,0.0,0.45,-0.3,3.33,0.0,-15.6,30.8
3.64,0.0,0.0,2.25,0.5,0.0,0.0,0.0,0.0,0.0,0.75,0.0,0.0,0.5,0.7,7.2,0.14,48.5,19.2,14.2,0.5,0.5,0.75,2.75,0.0,0.0,0.25,1.0,0.0,0.0,0.75,0.25,0.0,0.58,-0.92,3.27,0.0,-14.7,28.6
3.66,0.0,0.0,0.0,0.0,0.0,0.0,0.0,0.0,0.0,0.0,0.0,0.0,0.0,1.77,7.95,-0.8,38.05,0.0,0.0,1.0,0.5,1.0,2.75,0.0,0.0,0.25,0.75,0.0,0.0,0.5,0.25,0.0,1.08,-1.36,2.45,29.09,-18.2,40.5
3.68,0.0,0.0,0.0,0.0,0.0,0.0,0.0,0.0,0.75,7.0,2.75,5.75,5.5,1.77,6.08,7.45,150.98,-4.5,-92.2,0.5,0.5,0.75,2.75,0.0,0.0,0.5,1.0,0.0,0.0,0.75,0.25,0.0,1.2,-1.48,2.08,64.75,-15.0,28.6
3.7,0.0,0.25,2.0,0.5,0.0,0.0,0.0,4.25,2.75,6.75,6.25,4.75,6.5,-0.48,0.83,5.64,282.81,-1.1,-67.8,0.5,0.5,0.75,2.75,0.0,0.0,0.75,0.75,0.0,0.0,0.75,0.25,0.0,1.33,-1.8,1.77,97.09,-16.5,31.1
3.72,0.0,0.75,0.0,4.25,0.0,2.75,1.0,6.0,5.25,7.0,7.25,4.75,5.5,-0.11,0.02,1.39,466.92,-1.4,-50.0,0.5,0.5,0.75,2.75,0.0,0.0,0.25,0.0,0.0,0.0,0.5,0.25,0.0,1.52,-1.8,1.58,102.18,-20.6,45.5
3.74,1.5,3.0,5.5,9.0,4.5,4.75,1.75,6.75,6.25,7.0,7.5,4.75,5.25,0.02,0.02,0.83,770.92,4.0,-13.3,0.5,0.75,1.0,2.75,0.0,0.0,0.25,0.25,0.0,0.0,0.0,0.25,0.0,1.2,-0.92,1.77,101.3,-20.2,55.1
3.76,4.5,4.5,8.0,11.5,7.5,6.0,2.75,7.25,6.75,7.0,7.75,4.75,5.25,0.08,0.08,1.08,1170.55,6.1,0.2,0.5,0.5,0.75,2.75,0.0,0.0,0.25,0.0,0.0,0.0,0.25,0.25,0.0,0.77,0.02,2.02,92.21,-21.0,51.1
3.78,6.75,5.75,9.0,14.0,8.5,6.75,3.5,7.25,6.25,5.25,7.25,3.0,4.0,-0.11,0.08,1.2,1476.99,8.0,13.6,0.5,0.5,0.75,2.75,0.0,0.0,0.0,0.0,0.0,0.0,0.5,0.25,0.0,0.39,0.45,2.14,86.65,-20.3,45.9
3.8,7.75,6.5,9.75,15.0,9.0,6.75,3.25,6.5,4.5,2.5,4.75,1.75,2.75,-0.05,0.08,1.2,1633.46,9.8,27.8,0.5,0.5,0.75,2.5,0.0,0.0,0.25,0.0,0.0,0.0,0.5,0.25,0.0,0.2,0.83,2.7,83.91,-20.8,44.9
3.82,8.0,7.5,10.5,15.0,9.25,5.75,1.75,4.5,1.5,1.75,2.25,0.75,1.5,-0.36,0.14,1.27,1658.51,11.7,43.2,0.5,0.5,0.5,2.25,0.0,0.0,0.0,0.0,0.0,0.0,0.5,0.25,0.0,0.14,1.08,2.89,78.72,-19.7,43.7
3.84,8.5,6.5,11.0,13.5,8.75,3.5,0.5,1.25,0.5,0.5,1.25,0.75,1.5,-0.42,0.14,2.58,1551.1,15.3,53.1,0.5,0.5,0.75,2.5,0.0,0.0,0.25,0.0,0.0,0.0,0.5,0.25,0.0,0.27,1.77,2.89,79.23,-20.8,44.9
3.86,0.0,6.0,10.5,11.5,0.0,2.0,0.25,0.0,0.25,0.25,1.25,0.75,1.5,-0.55,-0.11,2.27,1253.38,18.7,47.5,0.5,0.5,0.75,2.75,0.0,0.0,0.0,0.0,0.0,0.0,0.5,0.25,0.0,0.08,2.89,2.89,80.14,-20.3,45.9
3.88,7.25,5.0,9.0,9.0,0.0,0.0,0.0,0.0,0.0,0.25,1.0,0.75,1.5,-0.42,-0.23,2.14,920.23,23.7,56.8,0.5,0.5,0.5,2.5,0.0,0.0,0.0,0.0,0.0,0.0,0.5,0.0,0.0,-0.23,4.02,2.83,79.04,-20.1,52.8
3.9,4.5,0.0,6.0,4.5,0.0,0.0,0.5,0.0,0.25,0.25,1.0,0.75,1.25,-0.11,0.58,2.45,564.76,25.0,39.4,0.75,0.5,0.75,2.0,0.0,0.0,0.0,0.0,0.0,0.0,0.5,0.25,0.0,-1.05,5.7,1.08,78.07,-21.6,46.5
3.92,0.25,0.0,4.0,2.5,0.0,0.0,0.25,0.0,0.0,0.25,0.0,0.75,1.25,-0.42,1.52,3.33,299.58,21.3,19.9,0.75,0.5,0.75,2.5,0.0,0.0,0.0,0.0,0.0,0.0,0.25,0.0,0.0,-1.55,6.83,-0.86,78.47,-22.3,61.8
3.94,0.0,0.0,2.75,0.5,0.0,0.0,0.25,0.0,0.0,0.25,0.75,0.0,1.5,-0.42,0.45,1.89,126.52,17.3,-6.1,0.5,0.5,0.0,2.0,0.0,0.0,0.25,0.0,0.0,0.0,0.75,0.25,0.0,-1.55,5.77,-0.55,74.56,-17.4,33.3
3.96,0.0,0.0,0.0,0.25,0.0,0.0,0.25,0.0,0.0,0.25,0.5,0.0,1.5,-0.42,0.64,0.7,0.0,-4.3,-77.6,0.75,0.5,0.75,2.25,0.0,0.0,0.0,0.0,0.0,1.5,0.5,1.0,0.0,-1.86,4.39,0.27,86.96,-12.5,6.0
3.98,0.0,0.0,0.0,0.0,0.0,0.0,0.25,0.0,0.0,0.25,0.5,0.0,1.5,-0.05,1.14,2.08,0.0,-6.6,-92.5,0.5,0.0,0.0,0.5,0.0,0.0,0.25,0.0,0.5,9.25,3.25,6.75,4.25,0.77,-3.86,-2.67,194.65,3.0,-83.4
4.0,0.0,0.0,0.0,0.25,0.0,0.0,0.25,0.0,0.0,0.5,0.5,0.5,1.0,-0.17,1.2,2.45,0.0,-1.3,-77.3,1.25,1.0,0.0,4.25,0.5,1.25,0.75,7.25,4.0,10.5,11.0,6.75,8.0,1.02,1.58,5.7,414.02,1.1,-55.6
4.02,0.0,0.0,0.0,0.0,0.0,0.0,0.25,0.0,0.0,0.25,0.5,0.0,1.5,-0.36,0.45,2.52,0.0,-6.6,-92.5,4.5,3.0,6.0,9.0,4.25,5.0,2.25,8.25,5.0,9.25,10.0,5.75,6.0,0.2,0.39,1.45,814.17,-4.4,-14.8
4.04,0.0,0.0,0.0,0.0,0.0,0.0,0.25,0.0,0.0,0.25,0.5,0.0,1.25,-0.48,-0.05,2.64,0.0,-5.8,-90.4,7.5,4.75,9.25,12.5,7.5,6.25,3.5,8.5,5.25,8.5,9.25,5.5,5.0,0.33,0.2,1.14,1327.97,-7.0,2.2
4.06,0.0,0.0,0.0,0.0,0.0,0.0,0.25,0.0,0.0,0.25,0.0,0.5,0.25,-0.36,-0.3,2.7,0.0,0.7,-87.6,8.75,6.0,11.5,15.0,9.0,7.0,4.75,8.75,5.25,8.0,8.75,4.25,4.25,0.2,0.08,0.95,1671.52,-8.3,11.5
4.08,0.0,0.0,0.0,0.0,0.0,0.0,0.25,0.0,0.0,0.25,0.0,0.75,1.25,-0.48,-0.61,2.58,0.0,-4.5,-99.4,9.5,6.5,13.0,16.0,9.75,7.0,5.0,8.25,4.0,5.5,7.25,2.5,2.5,0.33,0.14,1.14,1877.53,-10.1,23.3
4.1,0.0,0.0,0.0,0.0,0.0,0.0,0.25,0.0,0.0,0.25,0.0,0.75,1.5,-0.55,-1.36,2.45,0.0,-5.4,-100.4,10.5,7.0,14.0,17.0,10.5,6.25,4.5,6.75,2.0,2.75,4.0,1.25,0.5,0.2,0.14,1.2,1934.33,-12.7,40.0
4.12,0.0,0.0,0.0,0.0,0.0,0.0,0.0,0.0,0.0,0.0,0.0,0.0,0.25,-0.98,-1.67,1.95,0.0,-13.7,-109.8,10.5,6.75,14.5,16.0,9.5,3.25,2.5,3.25,0.75,1.5,2.0,0.75,0.5,0.2,0.2,2.33,1844.71,-16.2,51.1
4.14,0.0,0.0,0.0,0.0,0.0,0.0,0.0,0.0,0.0,0.25,0.0,0.5,0.75,-1.36,-1.73,1.27,1.4,-6.6,-104.2,10.5,6.0,14.0,12.5,7.75,0.0,0.75,1.0,0.25,0.5,1.0,0.25,0.0,0.39,0.02,2.33,1628.29,-20.9,62.9
4.16,0.0,0.0,0.0,0.0,0.0,0.0,0.0,0.0,0.0,0.5,0.0,0.25,1.25,-1.36,-1.36,1.2,16.58,-11.4,-101.4,8.75,3.75,11.5,8.75,3.5,0.0,0.25,0.0,0.5,0.0,0.5,0.0,0.0,0.33,-0.23,2.08,1307.23,-24.8,68.0
4.18,0.0,0.0,0.0,0.0,0.0,0.0,0.0,0.0,0.0,0.0,0.0,0.0,0.5,-1.05,-0.61,1.64,16.65,-13.7,-109.8,7.5,2.25,9.0,5.75,0.0,0.0,0.5,0.0,0.0,0.0,0.5,0.0,0.0,0.14,0.02,1.89,851.56,-29.4,71.0
4.2,0.0,0.0,0.0,0.0,0.0,0.0,0.0,0.0,0.0,0.0,0.0,0.0,0.25,-0.55,0.02,1.95,11.92,-13.7,-109.8,4.5,0.5,6.0,4.0,0.0,0.0,0.25,0.0,0.0,0.0,0.5,0.0,0.0,-0.23,0.89,2.58,468.92,-30.0,66.8
4.22,0.0,0.0,1.5,0.0,0.0,0.0,0.0,0.0,0.0,0.0,0.0,0.0,0.25,-0.48,0.52,2.27,14.74,30.8,36.5,3.0,0.25,3.0,2.5,0.0,0.0,0.0,0.0,0.0,0.0,0.25,0.0,0.0,-0.23,1.77,2.7,227.75,-29.6,68.9
4.24,0.0,0.0,1.5,0.0,0.0,0.0,0.0,0.0,0.0,0.0,0.0,0.0,0.25,-0.42,0.64,2.45,18.33,30.8,36.5,0.5,0.0,1.0,1.75,0.0,0.0,0.0,1.0,0.0,0.0,1.5,0.0,0.0,0.2,-0.23,0.95,31.36,-14.9,11.4
4.26,0.0,0.0,1.5,0.0,0.0,0.0,0.0,0.0,0.0,0.0,0.0,0.0,0.25,-0.48,0.58,2.89,23.78,30.8,36.5,1.25,0.5,1.0,3.0,0.0,0.0,0.25,1.25,0.0,0.0,0.75,0.0,0.0,0.08,1.33,0.45,0.0,-16.5,39.0
4.28,0.0,0.0,1.25,0.0,0.0,0.0,0.0,0.0,0.0,0.0,0.0,0.0,0.25,-0.36,1.2,3.58,26.66,29.6,32.5,0.75,0.5,0.5,3.0,0.0,0.0,0.25,1.25,0.25,0.0,1.5,0.25,0.0,-0.11,1.14,2.14,0.0,-13.2,17.2
4.3,0.0,0.0,1.5,0.0,0.0,0.0,0.0,0.0,0.0,0.0,0.0,0.0,0.25,0.02,2.64,3.7,29.24,30.8,36.5,1.5,0.5,1.25,3.0,0.0,0.0,0.25,1.0,0.0,0.0,0.75,0.25,0.0,0.02,0.83,2.45,0.0,-18.4,39.2
4.32,0.0,0.0,1.5,0.0,0.0,0.0,0.0,0.0,0.0,0.0,0.0,0.0,0.0,0.33,4.58,3.14,27.38,38.2,60.9,0.75,0.5,1.0,3.0,0.0,0.0,0.75,1.0,0.25,0.0,0.75,0.25,0.0,0.14,0.2,2.58,0.0,-16.6,30.6
4.34,0.0,0.0,1.5,0.0,0.0,0.0,0.0,0.0,0.0,0.0,0.0,0.0,0.0,1.02,6.77,1.7,28.22,38.2,60.9,1.0,0.5,0.75,3.0,0.0,0.0,0.75,1.0,0.0,0.0,0.75,0.25,0.0,0.2,-0.23,2.83,0.0,-16.5,33.8
4.36,0.0,0.0,0.0,0.0,0.0,0.0,0.25,0.0,0.0,0.25,0.0,0.0,1.0,0.52,7.64,0.58,28.95,-10.1,-92.0,0.75,0.5,1.0,3.0,0.0,0.0,0.25,1.0,0.0,0.0,0.5,0.25,0.0,0.39,-0.61,3.02,0.0,-16.4,36.6
4.38,0.0,0.0,0.0,0.0,0.0,0.0,0.0,0.0,0.0,0.0,0.0,0.0,0.25,0.52,6.14,-0.67,19.94,-13.7,-109.8,0.75,0.75,0.75,3.25,0.0,0.0,0.5,0.5,0.25,0.0,0.75,0.25,0.0,0.39,-1.17,2.45,32.37,-17.7,37.4
4.4,0.0,0.0,0.0,0.0,0.0,0.0,0.0,0.0,0.0,1.0,0.0,1.75,0.0,2.58,7.95,3.27,28.6,0.0,-97.3,1.0,0.5,0.75,3.0,0.0,0.0,0.75,1.0,0.0,0.0,1.0,0.25,0.0,0.7,-1.42,2.2,72.4,-16.4,30.5
4.42,0.0,0.0,1.25,0.0,0.0,0.0,0.0,0.0,2.0,8.5,4.75,6.5,6.75,-0.67,0.64,4.45,185.77,-1.6,-82.6,0.5,0.5,0.75,3.0,0.0,0.0,0.5,0.75,0.0,0.0,0.75,0.25,0.0,1.02,-1.61,1.58,94.51,-16.2,32.2
4.44,0.0,0.25,0.0,1.25,0.0,2.0,0.5,6.25,5.25,7.75,8.25,5.75,7.25,-0.36,0.64,2.58,364.87,-3.1,-66.0,0.5,0.5,0.5,2.75,0.0,0.0,0.5,0.75,0.0,0.0,0.75,0.25,0.0,1.14,-1.42,1.27,104.01,-15.3,30.0
4.46,0.25,1.5,4.0,7.25,0.0,4.25,1.25,7.0,6.25,7.75,8.0,5.5,6.0,-0.36,0.33,1.33,644.86,2.1,-33.1,0.5,0.5,0.75,2.75,0.0,0.0,0.25,0.0,0.0,0.0,0.5,0.25,0.0,0.89,-0.55,1.33,101.45,-20.6,45.5
4.48,3.5,4.25,7.0,10.5,6.25,5.5,2.0,7.25,6.75,7.0,8.0,4.75,5.75,-0.3,0.08,1.14,1030.96,5.3,-5.0,0.5,0.5,0.75,3.0,0.0,0.0,0.5,0.0,0.0,0.0,0.75,0.25,0.0,0.58,0.2,1.77,98.13,-20.3,40.9
4.5,6.5,5.5,8.5,12.5,8.25,6.25,2.5,7.0,6.5,6.0,7.25,3.75,4.25,-0.05,-0.05,1.08,1386.66,7.4,9.4,0.5,0.5,0.75,2.75,0.0,0.0,0.25,0.0,0.0,0.0,0.5,0.25,0.0,0.33,0.52,2.2,89.91,-20.6,45.5
4.52,7.25,6.5,9.75,14.0,8.75,6.25,2.5,6.5,5.75,3.5,5.75,2.0,2.75,-0.11,0.08,1.08,1573.95,9.4,23.0,0.75,0.5,0.75,2.5,0.0,0.0,0.25,0.0,0.0,0.0,0.5,0.25,0.0,0.27,1.02,2.45,87.53,-21.4,47.2
4.54,8.0,7.25,10.5,15.0,9.0,5.75,2.0,5.25,2.25,1.75,2.75,1.0,2.0,-0.17,0.14,1.2,1634.85,11.3,38.9,1.25,0.5,0.5,2.0,0.0,0.0,0.25,0.0,0.0,0.0,0.5,0.25,0.25,0.33,1.27,2.58,84.87,-20.5,42.4
4.56,8.25,6.75,10.5,14.0,9.0,3.75,0.5,1.5,0.75,1.0,1.5,0.75,1.5,-0.17,0.14,2.02,1570.1,14.4,50.7,0.5,0.5,0.5,2.25,0.0,0.0,0.25,0.0,0.0,0.0,0.75,0.25,0.0,0.33,1.95,2.95,81.62,-19.6,37.5
4.58,0.0,6.25,10.5,12.5,0.0,1.75,0.0,0.0,0.5,0.25,1.25,0.75,1.5,-0.36,-0.05,2.27,1306.19,18.8,47.7,0.5,0.5,0.5,2.75,0.0,0.0,0.25,0.0,0.0,0.0,0.5,0.25,0.0,0.14,3.02,3.02,80.3,-19.7,44.8
4.6,7.75,5.5,9.75,10.0,0.0,0.0,0.0,0.0,0.0,0.25,1.25,0.75,1.5,-0.55,-0.17,2.02,992.95,23.7,57.2,0.5,0.5,0.75,2.75,0.0,0.0,0.25,0.0,0.0,0.0,0.5,0.25,0.0,-0.23,3.95,2.83,81.54,-20.6,45.5
4.62,5.75,0.0,7.5,6.25,0.0,0.0,0.25,0.0,0.25,0.25,1.0,0.75,1.0,-0.36,0.02,2.08,651.16,26.1,47.0,0.5,0.5,0.75,2.5,0.0,0.0,0.25,0.0,0.0,0.0,0.5,0.25,0.0,-1.23,5.64,2.33,82.33,-20.8,44.9
4.64,0.0,0.0,5.5,3.5,0.0,0.0,0.25,0.0,0.25,0.25,0.5,0.0,1.0,-0.3,1.33,2.89,370.96,23.9,33.4,0.5,0.5,0.75,2.75,0.0,0.0,0.25,0.0,0.0,0.0,0.5,0.25,0.0,-1.8,6.39,0.2,85.0,-20.6,45.5
4.66,0.0,0.0,3.75,1.25,0.0,0.0,0.25,0.0,0.0,0.25,0.75,0.0,1.5,-0.61,0.52,2.39,182.4,20.1,9.1,0.5,0.5,0.5,2.75,0.0,0.0,0.0,0.0,0.0,0.0,0.75,0.25,0.0,-1.48,5.45,-0.55,86.88,-19.0,39.7
4.68,0.0,0.0,3.0,1.5,0.0,0.0,0.25,0.0,0.0,0.25,0.75,0.25,1.5,-0.92,0.08,1.39,41.36,17.7,1.5,0.5,0.5,0.75,2.5,0.0,0.0,0.0,0.0,0.0,0.0,0.5,0.25,0.0,-1.48,4.27,0.2,86.75,-20.5,45.3
4.7,0.0,0.0,2.75,1.0,0.0,0.0,0.25,0.0,0.0,0.25,0.75,0.5,1.5,-0.05,0.83,2.7,0.0,16.7,-8.7,0.5,0.5,0.0,2.0,0.0,0.0,0.0,0.0,0.25,3.25,0.25,3.25,0.0,-0.48,3.27,1.89,108.61,-4.1,-40.8
4.72,0.0,0.0,2.0,0.5,0.0,0.0,0.0,0.0,0.0,0.25,0.0,0.0,0.25,-0.05,0.95,2.2,0.0,26.0,35.1,0.0,0.0,0.0,0.5,0.0,0.0,0.0,2.75,1.75,10.5,8.0,8.0,8.0,-0.98,0.89,4.27,273.14,3.5,-83.6
4.74,0.0,0.0,2.5,0.5,0.0,0.0,0.25,0.0,0.0,0.25,0.5,0.25,1.5,-0.42,0.2,2.27,0.0,16.3,-10.7,1.75,1.25,1.0,5.5,0.0,2.5,1.25,7.5,4.75,10.5,11.5,6.75,8.25,0.14,0.39,2.27,541.47,-0.1,-48.5
4.76,0.0,0.0,2.25,0.5,0.0,0.0,0.25,0.0,0.0,0.25,0.0,0.25,1.5,-0.55,-0.42,2.27,0.0,15.7,-8.1,4.75,3.0,6.75,9.0,4.5,5.0,2.75,8.5,5.25,9.75,10.5,6.0,6.75,0.45,0.58,1.52,978.52,-4.5,-15.5
4.78,0.0,0.0,2.25,0.5,0.0,0.0,0.25,0.0,0.0,0.25,0.0,0.0,1.5,-0.36,-0.55,2.14,0.0,16.0,-2.8,7.25,4.75,9.25,12.5,6.75,6.25,4.25,8.75,5.25,9.25,10.0,5.5,5.75,0.33,0.2,1.2,1423.8,-6.7,-0.6
4.8,0.0,0.0,2.25,1.25,0.0,0.0,0.25,0.0,0.0,0.25,0.0,0.0,1.25,-0.36,-0.67,2.08,0.0,17.7,11.3,8.5,6.0,11.0,14.5,8.5,7.0,5.0,8.75,5.25,8.0,9.0,4.25,4.75,0.2,0.08,1.02,1721.97,-8.0,9.8
4.82,0.0,0.0,2.5,0.0,0.0,0.0,0.25,0.0,0.0,0.0,0.0,0.0,0.25,-0.48,-1.17,2.08,0.0,33.5,44.7,9.0,6.5,13.0,15.5,9.25,7.0,5.25,8.25,4.0,5.5,7.5,2.5,2.5,0.33,0.14,1.08,1883.54,-10.0,22.3
4.84,0.0,0.0,1.75,0.0,0.0,0.0,0.0,0.0,0.0,0.0,0.0,0.0,0.25,-0.73,-1.48,1.77,0.0,31.7,39.6,9.5,6.75,13.0,16.0,9.25,6.25,4.5,6.25,1.5,2.0,4.0,1.0,1.25,0.2,0.14,1.2,1888.53,-12.5,39.4
4.86,0.0,0.0,2.0,0.0,0.0,0.0,0.0,0.0,0.0,0.0,0.0,0.0,0.25,-1.17,-1.3,1.52,14.89,32.5,42.0,9.75,6.75,14.5,15.5,9.0,3.0,2.5,2.75,0.75,1.5,1.75,0.75,0.0,0.2,0.14,1.45,1777.63,-16.8,52.9
4.88,0.0,0.0,1.75,0.0,0.0,0.0,0.0,0.0,0.0,0.0,0.0,0.0,0.25,-1.36,-1.17,1.2,22.79,31.7,39.6,9.0,5.25,13.0,11.5,6.5,0.0,0.5,0.75,0.0,0.0,0.0,0.25,0.0,0.08,0.02,2.45,1514.16,-21.9,67.1
4.9,0.0,0.0,1.5,0.0,0.0,0.0,0.0,0.0,0.0,0.0,0.0,0.0,0.25,-1.11,-0.73,1.52,21.79,30.8,36.5,8.25,3.75,11.0,9.0,4.25,0.0,0.25,0.0,0.0,0.0,0.5,0.0,0.0,0.2,-0.11,1.83,1179.85,-23.9,68.7
4.92,0.0,0.0,1.75,0.0,0.0,0.0,0.0,0.0,0.0,0.0,0.0,0.0,0.25,-0.98,-0.11,1.77,22.34,31.7,39.6,6.75,2.25,9.0,5.75,0.0,0.0,0.25,0.0,0.0,0.0,0.5,0.0,0.0,0.14,-0.05,1.7,754.6,-29.2,70.4
4.94,0.0,0.0,1.75,0.0,0.0,0.0,0.0,0.0,0.0,0.0,0.0,0.0,0.25,-0.8,0.39,2.2,24.53,31.7,39.6,5.25,1.25,5.75,4.0,0.0,0.0,0.25,0.0,0.0,0.0,0.5,0.0,0.0,-0.3,0.95,2.7,425.58,-29.3,69.6
4.96,0.0,0.0,1.75,0.0,0.0,0.0,0.0,0.0,0.0,0.0,0.0,0.0,0.25,-0.67,0.64,2.52,26.8,31.7,39.6,1.0,0.5,2.5,2.75,0.0,0.0,0.0,0.0,0.0,0.0,0.5,0.0,0.0,-0.42,1.77,3.2,197.31,-26.0,58.1
4.98,0.0,0.0,1.5,0.0,0.0,0.0,0.0,0.0,0.0,0.0,0.0,0.0,0.25,-0.73,0.7,2.95,24.38,30.8,36.5,1.25,0.5,0.75,3.25,0.0,0.0,0.0,0.0,0.0,0.0,0.25,0.25,0.0,0.33,0.39,1.77,24.21,-22.0,57.3
5.0,0.0,0.0,1.25,0.0,0.0,0.0,0.0,0.0,0.0,0.0,0.0,0.0,0.25,-0.86,1.08,3.33,23.47,29.6,32.5,1.25,0.5,1.25,3.0,0.0,0.0,0.75,1.0,0.0,0.0,1.25,0.25,0.0,0.2,1.64,1.45,0.0,-18.0,31.1
5.02,0.0,0.0,1.5,0.0,0.0,0.0,0.0,0.0,0.0,0.0,0.0,0.0,0.25,-0.48,2.33,3.64,23.69,30.8,36.5,0.5,0.0,1.0,1.0,0.0,0.0,0.25,1.0,0.25,0.0,1.5,0.25,0.0,-0.05,1.08,2.52,0.0,-14.5,-2.2
5.04,0.0,0.0,1.25,0.0,0.0,0.0,0.0,0.0,0.0,0.0,0.0,0.0,1.25,0.2,4.08,3.39,27.95,12.2,-24.4,0.75,0.5,1.0,3.0,0.0,0.0,0.5,1.0,0.0,0.0,0.75,0.25,0.0,0.14,0.58,2.7,0.0,-16.5,32.8
5.06,0.0,0.0,1.5,0.0,0.0,0.0,0.0,0.0,0.0,0.0,0.0,0.0,0.25,0.95,6.33,2.39,30.98,30.8,36.5,1.25,0.5,1.0,3.0,0.0,0.0,0.75,1.0,0.0,0.0,1.0,0.25,0.0,0.27,0.02,2.77,0.0,-17.5,33.3
5.08,0.0,0.0,2.0,0.0,0.0,0.0,0.25,0.0,0.0,0.25,0.0,0.0,0.25,1.39,7.27,1.39,37.03,28.0,30.4,0.75,0.5,0.75,3.0,0.0,0.0,0.75,1.0,0.0,0.0,0.75,0.25,0.0,0.45,-0.23,2.89,0.0,-16.0,31.8
5.1,0.0,0.0,0.0,0.0,0.0,0.0,0.25,0.0,0.0,0.0,0.0,0.0,0.25,0.2,6.95,-0.55,27.36,0.9,-66.3,0.5,0.5,0.75,2.75,0.0,0.0,0.25,0.75,0.0,0.0,0.75,0.25,0.0,0.64,-0.48,2.95,0.0,-15.9,31.2
5.12,0.0,0.0,0.0,0.0,0.0,0.0,0.0,0.0,0.0,0.0,0.0,0.0,0.25,0.58,4.7,0.95,18.29,-13.7,-109.8,1.0,0.5,1.0,2.75,0.0,0.0,0.75,0.0,0.0,0.0,0.75,0.25,0.0,0.64,-1.23,2.45,30.42,-22.3,44.7
5.14,0.0,0.0,0.0,0.0,0.0,0.0,0.25,0.0,0.0,7.75,2.5,6.0,5.25,0.58,2.27,1.45,135.27,-5.2,-92.9,1.0,0.5,0.75,3.0,0.0,0.0,0.0,0.5,0.0,0.0,0.5,0.25,0.0,0.89,-1.36,1.64,58.03,-18.4,43.7
5.16,0.0,0.0,0.0,0.75,0.0,0.75,0.5,5.5,4.0,7.75,7.75,5.75,7.25,-0.8,1.33,4.08,299.77,-3.3,-72.9,0.5,0.5,0.75,2.75,0.0,0.0,0.25,0.0,0.0,0.0,0.75,0.25,0.0,1.02,-1.61,1.2,76.67,-20.2,40.4
5.18,0.0,0.5,3.0,2.75,0.0,2.75,1.0,6.5,5.75,7.75,8.0,5.5,6.75,0.52,-0.36,0.64,532.11,0.1,-50.3,0.75,0.5,0.75,2.75,0.0,0.0,0.0,0.0,0.0,0.0,0.75,0.25,0.25,0.89,-1.48,1.14,89.32,-19.1,36.5
5.2,1.25,1.5,5.0,6.5,2.0,4.25,1.75,7.0,6.5,7.75,8.0,5.5,6.0,0.08,0.14,0.89,803.16,3.0,-27.3,0.5,0.5,0.75,3.0,0.0,0.0,0.25,0.0,0.0,0.0,0.75,0.0,0.0,0.7,-0.61,1.14,95.38,-20.5,47.7
5.22,4.0,3.25,7.25,9.25,6.25,5.25,2.5,7.25,6.75,7.0,7.75,4.75,5.5,-0.05,-0.05,1.08,1126.24,5.5,-6.1,0.0,0.0,0.0,0.75,0.0,0.0,0.25,0.0,0.0,0.0,0.25,0.25,0.0,0.45,-0.05,1.45,68.6,-15.9,2.3
5.24,6.25,4.75,8.5,11.5,7.5,6.0,3.25,7.25,6.5,5.5,7.25,3.0,4.0,-0.05,-0.05,1.08,1385.55,7.6,9.0,0.5,0.5,0.75,2.25,0.0,0.0,0.25,0.0,0.0,0.0,0.75,0.25,0.0,0.2,0.33,1.83,64.52,-20.5,38.7
5.26,7.25,5.75,9.5,13.0,8.5,6.0,3.25,6.5,5.5,3.0,5.25,1.75,2.75,-0.05,-0.05,1.08,1527.92,9.6,23.4,0.5,0.5,0.75,2.75,0.0,0.0,0.25,0.0,0.0,0.0,0.5,0.25,0.0,0.2,0.7,2.08,66.68,-20.6,45.5
5.28,7.75,6.5,10.5,14.0,8.5,5.25,2.25,4.75,1.75,1.75,2.25,1.0,1.75,-0.23,0.02,1.2,1560.49,11.8,40.1,0.0,0.0,0.0,0.5,0.0,0.0,0.0,0.0,0.0,0.0,0.25,0.0,0.0,0.2,0.89,2.14,46.84,-15.1,15.7
5.3,8.25,6.5,10.5,13.0,8.5,2.75,0.75,1.5,0.75,0.5,1.75,0.75,1.5,-0.05,0.08,2.08,1483.61,15.4,51.1,0.0,0.0,0.0,0.5,0.0,0.0,0.25,0.0,0.0,0.0,0.25,0.0,0.0,0.27,1.39,2.33,27.75,-17.5,17.3
5.32,8.25,5.5,10.5,11.5,0.0,1.5,0.25,0.0,0.5,0.25,1.25,0.75,1.5,-0.23,-0.05,2.02,1264.95,22.2,55.7,0.0,0.0,0.75,0.5,0.0,0.0,0.0,0.0,0.0,0.0,0.5,0.0,0.0,0.02,2.64,2.52,16.92,-24.6,22.9
5.34,7.75,4.0,9.75,9.0,0.0,0.0,0.25,0.0,0.5,0.25,1.0,0.75,1.5,-0.42,-0.11,2.08,954.45,24.4,54.8,0.75,0.5,0.0,2.0,0.0,0.0,0.25,0.0,0.0,0.0,0.5,0.0,0.0,-0.3,4.2,2.39,25.15,-19.4,53.0
5.36,5.75,0.0,8.0,6.25,0.0,0.0,0.25,0.0,0.25,0.25,0.75,0.75,1.5,-0.36,0.14,2.14,632.78,25.7,45.2,0.5,0.5,0.75,2.75,0.0,0.0,0.5,0.0,0.0,0.0,0.75,0.25,0.0,-1.23,6.14,1.27,47.27,-20.4,40.1
5.38,2.75,0.0,4.25,3.25,0.0,0.0,0.25,0.0,0.0,0.25,0.0,0.0,1.25,-0.42,1.64,3.08,352.37,24.8,46.5,0.5,0.5,0.75,3.0,0.0,0.0,0.0,0.0,0.0,0.0,0.75,0.25,0.0,-1.48,6.27,0.95,72.81,-19.8,41.5
5.4,0.0,0.0,3.25,0.25,0.0,0.0,0.25,0.0,0.0,0.0,1.0,0.0,0.5,-0.61,0.95,2.52,169.28,26.8,17.8,0.5,0.5,0.75,2.5,0.0,0.0,0.0,0.0,0.0,0.0,0.5,0.25,0.0,-1.3,5.45,-0.73,85.84,-20.5,45.3
5.42,0.0,0.0,2.0,0.25,0.0,0.0,0.0,0.0,0.0,0.25,0.0,0.75,0.25,-0.8,0.39,1.08,7.46,23.0,3.2,0.5,0.5,0.75,0.75,0.0,0.0,0.0,0.0,0.5,6.25,2.0,4.25,0.0,-4.8,7.83,1.45,142.66,-2.0,-59.0
5.44,0.0,0.0,0.0,1.5,0.0,0.0,0.25,0.0,0.0,0.25,0.75,0.75,1.5,-0.23,1.33,2.39,0.0,4.0,-46.5,0.0,0.0,0.5,1.25,0.0,0.0,0.0,3.75,2.0,9.25,8.5,6.0,7.0,-0.36,2.2,7.95,290.33,2.5,-75.4
5.46,0.0,0.0,1.5,0.25,0.0,0.0,0.25,0.0,0.0,0.25,0.5,0.75,1.0,-0.05,1.27,2.58,0.0,13.8,-31.0,2.0,1.75,3.25,5.5,1.0,2.5,1.25,7.0,4.0,9.25,9.75,5.5,7.0,-0.3,-0.05,1.08,543.27,-1.9,-36.6
5.48,0.0,0.0,1.5,0.5,0.0,0.0,0.25,0.0,0.0,0.25,0.75,0.75,1.25,-0.23,0.95,2.64,0.0,12.4,-32.5,5.75,3.75,8.0,10.5,6.25,5.5,2.25,8.25,5.0,9.0,9.25,5.5,5.0,0.27,0.52,1.14,987.98,-5.8,-4.6
5.5,0.0,0.0,2.0,0.5,0.0,0.0,0.25,0.0,0.0,0.25,0.75,0.5,1.25,-0.42,0.2,2.83,0.0,15.0,-20.2,8.0,5.75,9.75,14.0,8.0,6.75,3.5,8.5,5.25,8.5,9.25,5.25,4.5,0.14,0.14,1.02,1451.16,-7.4,6.3
5.52,0.0,0.0,1.75,0.25,0.0,0.0,0.0,0.0,0.0,0.0,0.0,0.0,0.25,-0.42,-0.23,2.95,0.0,30.1,41.6,9.0,6.5,12.0,15.5,9.0,7.0,4.5,8.5,4.75,7.5,8.75,3.75,3.75,0.2,0.08,1.08,1762.51,-8.8,14.7
5.54,0.0,0.0,1.5,0.0,0.0,0.0,0.0,0.0,0.0,0.0,0.0,0.0,0.25,-0.48,-0.73,2.89,0.0,30.8,36.5,9.75,7.0,13.5,16.5,9.75,6.75,4.5,7.5,3.5,4.5,6.75,1.75,1.75,0.2,0.08,1.02,1914.05,-11.1,28.9
5.56,0.0,0.0,1.25,0.0,0.0,0.0,0.0,0.0,0.0,0.0,0.0,0.0,0.25,-0.73,-1.55,2.45,0.0,29.6,32.5,10.5,7.25,14.5,16.5,9.75,5.25,3.5,5.25,1.25,1.5,3.0,1.0,0.5,0.2,0.14,1.27,1907.93,-14.3,46.1
5.58,0.0,0.0,1.25,0.0,0.0,0.0,0.0,0.0,0.0,0.0,0.0,0.0,0.25,-1.17,-1.8,1.83,0.0,29.6,32.5,10.5,6.5,14.5,14.5,9.0,1.5,1.5,2.5,0.25,0.0,2.0,0.25,0.0,0.2,0.08,3.02,1750.82,-18.7,58.6
5.6,0.0,0.0,1.75,0.25,0.0,0.0,0.25,0.0,0.0,0.25,0.0,0.0,1.25,-1.3,-1.86,1.14,2.79,15.0,-8.5,9.25,4.75,12.5,10.5,6.25,0.0,0.25,0.0,0.0,0.0,0.0,0.0,0.0,0.45,0.02,2.45,1463.8,-22.9,70.2
5.62,0.0,0.0,2.25,0.5,0.0,0.0,0.25,0.0,0.0,0.25,0.0,0.0,1.5,-1.17,-1.48,1.14,36.84,16.0,-2.8,9.0,3.5,11.5,8.25,2.5,0.0,0.25,0.0,0.0,0.0,0.5,0.0,0.0,0.33,-0.23,1.83,1103.37,-26.1,70.1
5.64,0.0,0.0,2.25,0.5,0.0,0.0,0.25,0.0,0.0,0.25,0.0,0.0,1.5,-1.05,-0.55,1.52,58.97,16.0,-2.8,6.75,2.25,8.25,5.5,0.0,0.0,1.25,1.25,0.5,0.0,0.75,0.25,0.0,-0.11,0.14,1.77,715.79,-26.2,59.7
5.66,0.0,0.0,2.0,0.25,0.0,0.0,0.25,0.0,0.0,0.25,0.0,0.0,1.5,-0.86,0.2,1.89,66.0,14.6,-10.5,3.0,0.25,5.25,3.25,0.0,0.0,1.0,1.25,0.0,0.0,1.75,0.0,0.0,-0.42,2.14,3.14,393.45,-24.8,43.3
5.68,0.0,0.0,2.0,0.0,0.0,0.0,0.25,0.0,0.0,0.0,0.0,0.0,1.25,-0.73,0.58,2.2,63.67,18.7,-3.6,1.0,0.25,1.0,2.0,0.0,0.0,0.0,1.0,0.0,0.0,0.5,0.0,0.0,-0.3,0.95,2.58,178.24,-17.2,38.9
5.7,0.0,0.0,1.25,0.5,0.0,0.0,0.0,0.0,0.0,0.25,0.0,0.0,0.25,-0.73,0.77,2.27,54.63,21.9,26.5,0.5,0.25,1.25,1.75,0.0,0.0,0.5,1.0,0.0,0.0,0.75,0.25,0.0,-0.36,0.7,0.77,0.0,-16.7,23.3
5.72,0.0,0.0,2.0,0.5,0.0,0.0,0.25,0.0,0.0,0.25,0.0,0.0,1.5,-0.73,0.77,2.52,56.98,14.8,-6.5,1.75,0.5,1.25,3.0,0.0,0.0,0.75,1.0,0.0,0.0,0.75,0.25,0.0,-0.17,1.14,1.7,0.0,-19.2,40.4
5.74,0.0,0.0,2.0,0.0,0.0,0.0,0.25,0.0,0.0,0.0,0.0,0.0,1.25,-0.42,1.2,2.89,57.09,18.7,-3.6,1.5,0.5,1.0,3.0,0.0,0.0,0.25,1.0,0.0,0.0,1.25,0.25,0.0,-0.11,1.14,2.33,0.0,-17.4,32.1
5.76,0.0,0.0,1.5,0.0,0.0,0.0,0.0,0.0,0.0,0.0,0.0,0.0,0.25,0.08,2.45,3.39,52.56,30.8,36.5,1.25,0.5,1.0,3.0,0.0,0.0,0.25,1.0,0.0,0.0,0.75,0.25,0.0,0.08,0.45,2.89,0.0,-17.3,36.7
5.78,0.0,0.0,0.5,0.0,0.0,0.0,0.0,0.0,0.0,0.0,0.0,0.0,0.25,0.58,4.58,3.52,36.97,20.9,4.0,1.5,0.5,1.0,3.0,0.0,0.0,0.25,1.0,0.0,0.0,0.75,0.25,0.0,0.27,-0.23,2.95,0.0,-17.8,38.5
5.8,0.0,0.0,0.5,0.0,0.0,0.0,0.0,0.0,0.0,0.0,0.0,0.0,0.25,1.02,7.14,2.95,22.37,20.9,4.0,1.25,0.5,1.0,3.0,0.0,0.0,0.5,1.0,0.0,0.0,0.75,0.25,0.0,0.45,-0.61,2.77,0.0,-17.5,36.6
5.82,0.0,0.0,0.5,0.0,0.0,0.0,0.0,0.0,0.0,0.0,0.0,0.0,0.25,-0.73,7.83,-0.17,9.87,20.9,4.0,1.0,0.5,0.75,3.0,0.0,0.0,0.25,1.0,0.25,0.0,0.75,0.25,0.0,0.58,-0.8,2.95,10.79,-15.9,31.7
5.84,0.0,0.0,1.0,0.0,0.0,0.0,0.0,0.0,0.0,0.0,0.0,0.0,0.25,0.27,6.02,-0.48,6.13,27.8,26.8,0.75,0.5,0.75,3.0,0.0,0.0,0.25,0.5,0.0,0.0,0.75,0.25,0.0,0.95,-1.8,1.95,45.68,-17.8,37.2
5.86,0.0,0.0,1.25,0.0,0.0,0.0,0.0,0.0,0.0,0.0,0.0,0.0,0.0,0.2,5.02,0.7,8.16,38.2,61.0,0.75,0.5,0.75,2.75,0.0,0.0,0.25,0.0,0.0,0.0,0.5,0.25,0.0,1.27,-1.86,1.33,63.61,-21.2,47.7
5.88,0.0,0.0,0.75,0.0,0.0,0.0,0.0,0.0,1.75,7.75,3.5,6.0,6.25,0.45,0.89,3.08,154.64,-2.6,-85.3,0.5,0.5,0.75,2.75,0.0,0.0,0.25,0.0,0.25,0.0,0.75,0.25,0.0,1.02,-1.42,1.2,78.95,-19.8,37.1
5.9,0.0,0.5,0.0,1.25,0.0,2.0,0.5,6.25,5.5,8.25,8.5,6.0,7.75,-0.73,1.33,3.58,346.48,-3.0,-65.8,0.5,0.5,0.75,2.75,0.0,0.0,0.75,0.5,0.0,0.0,0.75,0.25,0.0,0.77,-0.55,1.33,92.51,-17.8,33.8
5.92,0.75,1.5,4.75,7.75,0.0,4.0,1.5,7.0,6.5,8.0,8.5,5.5,6.75,-0.23,0.08,1.02,647.15,2.9,-31.8,0.75,0.5,0.75,2.75,0.0,0.0,0.25,0.0,0.0,0.0,0.5,0.25,0.0,0.45,0.14,1.7,96.38,-21.2,47.7
5.94,4.25,4.25,7.25,10.5,6.75,5.25,2.25,7.25,6.75,7.0,8.0,4.75,6.0,-0.3,0.08,1.27,1059.79,5.6,-3.9,0.5,0.5,0.75,2.75,0.0,0.0,0.5,0.5,0.0,0.0,0.75,0.25,0.0,0.27,0.45,2.14,95.43,-17.5,33.9
5.96,6.75,5.5,9.0,12.5,8.5,6.0,2.5,7.25,6.25,6.0,7.25,3.0,4.0,-0.05,-0.11,1.08,1409.83,7.7,11.4,0.5,0.75,1.0,3.0,0.0,0.0,0.0,0.0,0.25,0.0,0.5,0.25,0.0,0.2,0.95,2.45,95.0,-20.3,45.9
5.98,7.5,6.5,9.75,14.0,9.0,6.5,2.5,6.75,5.25,3.5,5.5,1.75,2.75,-0.11,0.08,1.2,1594.79,9.3,24.2,1.25,0.5,0.5,2.5,0.0,0.0,0.75,0.0,0.0,0.0,0.75,0.25,0.0,0.33,1.08,2.45,96.73,-21.7,44.8
6.0,8.0,7.25,10.5,14.5,9.0,5.75,1.5,5.25,1.5,1.75,2.25,1.0,2.0,-0.23,0.08,1.27,1634.76,11.2,40.4,0.5,0.5,0.75,2.25,0.0,0.0,0.0,0.0,0.0,0.0,0.5,0.25,0.0,0.39,1.58,2.83,90.43,-20.7,44.6
6.02,8.25,6.75,10.5,14.0,9.0,3.75,0.25,1.5,0.75,1.0,1.25,0.75,1.5,-0.11,0.08,2.52,1563.21,14.4,51.3,0.5,0.5,0.75,2.25,0.0,0.0,0.0,0.0,0.0,0.0,0.5,0.25,0.0,0.2,2.52,2.95,84.32,-20.7,44.6
6.04,0.0,6.25,9.75,11.5,0.0,0.75,0.0,0.0,0.5,0.25,1.25,0.75,1.5,-0.3,-0.05,2.2,1272.97,19.6,47.5,0.5,0.5,0.75,2.75,0.0,0.0,0.0,0.0,0.0,0.0,0.5,0.25,0.0,-0.17,3.58,3.08,82.06,-20.3,45.9
6.06,7.25,5.5,8.5,9.0,0.0,0.0,0.0,0.0,0.5,0.25,1.25,0.75,1.5,-0.36,-0.17,2.14,948.14,23.1,55.1,0.5,0.5,0.75,2.25,0.0,0.0,0.0,0.0,0.0,0.0,0.5,0.25,0.0,-0.86,5.2,2.89,79.88,-20.7,44.6
6.08,0.0,0.0,5.25,3.75,0.0,0.0,0.25,0.0,0.25,0.25,0.75,0.75,1.25,-0.55,1.45,3.08,545.33,21.5,19.9,0.5,0.5,0.5,2.5,0.0,0.0,0.0,0.0,0.0,0.0,0.5,0.25,0.0,-1.3,6.7,-0.05,79.59,-19.5,44.5
6.1,0.0,0.0,3.75,1.75,0.0,0.0,0.25,0.0,0.0,0.25,0.75,0.25,1.5,-0.48,0.89,2.95,292.81,19.6,8.6,0.5,0.5,0.5,2.75,0.0,0.0,0.0,0.0,0.0,0.0,0.75,0.25,0.0,-1.92,5.77,-0.48,81.5,-19.0,39.7
6.12,0.0,0.0,2.5,0.5,0.0,0.0,0.0,0.0,0.0,0.25,0.75,0.5,1.5,-0.55,-0.05,1.7,101.14,15.4,-18.1,0.5,0.25,0.5,2.25,0.0,0.0,0.0,0.0,0.0,5.5,1.0,4.0,0.0,-1.48,6.27,-4.92,125.93,-2.7,-48.8
6.14,0.0,0.0,2.25,0.25,0.0,0.0,0.25,0.0,0.0,0.25,0.25,0.25,1.5,-0.42,0.77,0.52,0.0,15.4,-14.9,0.0,0.0,0.0,1.0,0.0,0.0,0.0,2.0,2.0,10.5,8.25,7.75,7.75,-1.3,3.77,4.2,284.0,2.8,-81.9
6.16,0.0,0.0,2.5,0.5,0.0,0.0,0.25,0.0,0.0,0.25,0.75,0.75,1.5,0.08,0.95,1.95,0.0,15.5,-20.7,1.5,1.0,1.5,4.5,0.0,1.5,1.0,7.0,4.0,9.75,11.0,6.25,8.0,0.39,0.58,0.95,528.68,-0.3,-51.1
6.18,0.0,0.0,2.5,0.25,0.0,0.0,0.25,0.0,0.0,0.25,0.75,0.25,1.5,-0.05,1.02,2.33,0.0,16.0,-16.6,4.5,3.0,5.75,9.0,3.5,5.0,2.25,8.25,5.25,9.25,10.5,5.75,6.0,0.33,0.52,1.39,920.67,-4.4,-16.3
6.2,0.0,0.0,2.25,0.5,0.0,0.0,0.25,0.0,0.0,0.25,0.5,0.25,1.5,-0.23,0.45,2.39,0.0,15.3,-14.1,7.0,4.5,9.0,12.5,6.75,6.25,4.25,8.75,5.5,9.25,10.5,5.5,5.5,0.39,0.27,1.27,1374.21,-6.6,-1.4
6.22,0.0,0.0,2.25,0.5,0.0,0.0,0.25,0.0,0.0,0.25,0.5,0.0,1.5,-0.42,0.02,2.45,0.0,15.6,-9.5,8.25,6.0,11.0,15.0,8.5,7.0,5.5,8.75,5.5,8.25,9.75,4.5,4.5,0.27,0.08,1.02,1693.2,-8.1,8.9
6.24,0.0,0.0,2.25,0.25,0.0,0.0,0.25,0.0,0.0,0.0,0.0,0.0,0.25,-0.42,-0.17,2.39,0.0,31.6,44.4,9.0,6.5,13.0,16.0,9.25,7.25,5.5,8.25,4.0,5.5,7.75,2.5,2.5,0.33,0.14,1.14,1881.2,-10.0,22.3
6.26,0.0,0.0,2.0,0.0,0.0,0.0,0.0,0.0,0.0,0.0,0.0,0.0,0.25,-0.23,-0.3,2.52,0.0,32.5,42.0,9.5,7.0,13.0,17.0,10.5,6.75,4.5,6.25,1.75,2.25,4.0,1.25,1.0,0.2,0.14,1.2,1921.41,-12.1,39.5
6.28,0.0,0.0,1.75,0.0,0.0,0.0,0.0,0.0,0.0,0.0,0.0,0.0,0.25,-0.23,-0.86,2.14,0.0,31.7,39.6,9.75,7.0,14.0,16.0,9.25,3.75,2.25,2.75,0.75,0.75,2.0,0.75,0.0,0.2,0.14,1.39,1813.04,-16.4,53.8
6.3,0.0,0.0,1.5,0.0,0.0,0.0,0.0,0.0,0.0,0.0,0.0,0.0,0.25,-0.92,-1.17,1.89,0.0,30.8,36.5,8.75,5.5,13.0,11.5,8.0,0.0,0.75,1.0,0.0,0.0,1.5,0.25,0.0,0.2,0.02,2.7,1563.93,-20.5,62.1
6.32,0.0,0.0,1.5,0.0,0.0,0.0,0.0,0.0,0.0,0.0,0.0,0.0,0.25,-1.36,-1.36,1.27,13.39,30.8,36.5,8.0,3.75,11.0,9.0,4.25,0.0,0.0,0.0,0.0,0.0,0.0,0.0,0.0,0.27,-0.11,1.95,1219.78,-24.0,70.6
6.34,0.0,0.0,1.5,0.0,0.0,0.0,0.0,0.0,0.0,0.0,0.0,0.0,0.25,-1.3,-1.23,1.14,17.23,30.8,36.5,6.5,2.25,9.0,5.5,0.0,0.0,0.25,0.0,0.0,0.0,0.5,0.0,0.0,0.14,-0.11,1.7,774.86,-29.3,70.3
6.36,0.0,0.0,1.5,0.0,0.0,0.0,0.0,0.0,0.0,0.0,0.0,0.0,0.25,-1.3,-0.67,1.27,19.24,30.8,36.5,3.0,0.5,5.75,4.0,0.0,0.0,0.25,0.0,0.0,0.0,0.5,0.25,0.0,-0.3,1.08,2.39,412.48,-29.0,60.8
6.38,0.0,0.0,1.75,0.0,0.0,0.0,0.0,0.0,0.0,0.0,0.0,0.0,0.25,-0.92,-0.11,1.52,21.0,31.7,39.6,0.5,0.5,2.5,2.0,0.0,0.0,0.0,0.0,0.0,0.0,0.5,0.0,0.0,-0.23,2.02,2.77,183.46,-26.5,55.1
6.4,0.0,0.0,2.0,0.5,0.0,0.0,0.25,0.0,0.0,0.25,0.0,0.0,1.0,-0.73,0.27,1.95,32.72,18.5,6.8,1.5,0.5,0.75,3.0,0.0,0.0,0.25,0.0,0.25,0.0,1.5,0.25,0.0,0.08,0.02,1.58,14.81,-20.7,34.7
6.42,0.0,0.0,0.75,0.5,0.0,0.0,0.0,0.0,0.0,0.25,0.0,0.0,1.0,-0.55,0.52,2.39,37.04,7.9,-21.1,0.0,0.5,1.0,3.0,0.0,0.0,0.25,1.0,0.0,0.0,1.5,0.25,0.0,0.14,1.33,1.39,0.0,-13.9,16.4
6.44,0.0,0.0,2.0,0.5,0.0,0.0,0.25,0.0,0.0,0.25,0.0,0.0,1.25,-0.55,0.64,2.52,50.01,16.5,-0.2,1.0,0.5,1.0,2.0,0.0,0.0,0.75,1.0,0.25,0.0,1.25,0.25,0.0,-0.05,1.27,1.64,0.0,-16.7,22.1
6.46,0.0,0.0,2.0,0.5,0.0,0.0,0.25,0.0,0.0,0.25,0.0,0.25,1.0,-0.67,0.83,3.14,58.53,17.9,0.0,0.5,1.0,1.0,2.75,0.0,0.0,0.25,1.0,0.0,0.0,1.0,0.25,0.0,0.14,0.83,2.64,0.0,-15.2,31.1
6.48,0.0,0.0,2.25,0.5,0.0,0.0,0.25,0.0,0.0,0.25,0.0,0.0,0.25,-0.36,1.64,3.14,64.77,27.1,36.8,1.0,0.5,1.0,3.0,0.0,0.0,0.25,1.0,0.0,0.0,0.75,0.25,0.0,0.14,0.27,2.7,0.0,-16.8,34.9
6.5,0.0,0.0,2.0,0.5,0.0,0.0,0.0,0.0,0.0,0.25,0.0,0.0,0.25,0.33,4.89,3.14,63.09,26.0,35.1,1.0,0.5,0.75,3.0,0.0,0.0,0.0,1.0,0.0,0.0,0.75,0.25,0.0,0.2,-0.17,2.7,0.0,-15.8,34.1
6.52,0.0,0.0,2.25,0.0,0.0,0.0,0.0,0.0,0.0,0.0,0.0,0.0,0.25,1.39,7.14,2.08,58.28,33.1,43.9,1.25,0.5,0.75,3.0,0.0,0.0,0.25,1.0,0.0,0.0,0.75,0.25,0.0,0.2,-0.3,2.83,0.0,-16.6,35.9
6.54,0.0,0.0,1.25,0.0,0.0,0.0,0.0,0.0,0.0,0.0,0.0,0.0,0.25,0.08,7.39,-0.67,46.63,29.6,32.5,1.0,0.5,0.75,3.0,0.0,0.0,0.5,1.0,0.0,0.0,0.75,0.25,0.0,0.14,-0.73,3.08,39.21,-16.3,33.9
6.56,0.0,0.0,2.0,0.0,0.0,0.0,0.0,0.0,0.0,0.0,0.0,0.0,0.0,0.58,6.2,-2.23,39.7,38.2,60.9,0.5,0.5,0.75,3.0,0.0,0.0,0.75,0.75,0.0,0.0,0.75,0.25,0.0,0.39,-1.36,2.39,71.8,-16.5,32.1
6.58,0.0,0.0,1.25,0.0,0.0,0.0,0.0,0.0,1.0,7.0,4.0,5.75,7.0,0.45,2.27,7.08,169.94,-2.0,-84.4,0.5,0.5,1.0,2.75,0.0,0.0,0.75,1.0,0.0,0.0,0.75,0.25,0.0,0.83,-1.48,1.58,95.55,-16.1,29.7
6.6,0.0,0.0,0.0,0.0,0.0,0.75,0.25,5.25,3.75,7.75,7.75,5.5,7.5,-0.42,1.58,6.83,321.56,-4.0,-76.4,0.75,0.5,0.75,2.75,0.0,0.0,0.5,0.5,0.25,0.0,0.75,0.25,0.0,0.83,-1.67,1.2,107.44,-17.9,33.5
6.62,0.0,1.5,0.0,4.5,0.0,3.5,1.0,6.5,5.75,7.5,7.5,5.0,6.0,-0.05,0.02,1.02,538.9,-1.6,-46.9,2.0,0.5,0.75,2.0,0.0,0.0,0.5,0.0,0.0,0.0,0.75,0.25,0.0,0.83,-0.98,1.27,110.89,-24.0,50.5
6.64,2.75,3.5,6.5,9.25,5.5,5.25,1.75,7.0,6.5,7.0,7.75,4.75,5.25,0.14,-0.05,1.02,877.49,4.8,-8.4,0.5,0.5,0.75,2.75,0.0,0.0,0.0,0.0,0.0,0.0,0.5,0.25,0.0,0.7,-0.23,1.58,100.75,-20.3,45.9
6.66,6.25,5.5,8.5,12.0,8.0,6.0,2.5,7.0,6.5,6.25,7.5,4.0,4.75,-0.05,0.08,1.02,1279.46,7.2,7.1,0.5,0.5,0.75,2.25,0.0,0.0,0.0,0.0,0.0,0.0,0.5,0.0,0.0,0.52,0.08,1.7,89.89,-21.3,53.0
6.68,7.75,6.5,9.75,14.0,8.5,6.25,3.25,7.0,6.0,4.5,6.5,2.75,3.5,-0.11,0.02,1.14,1530.41,9.1,18.5,0.5,0.5,0.0,2.5,0.0,0.0,0.25,0.0,0.0,0.0,0.75,0.25,0.0,0.33,0.45,1.89,79.43,-17.4,36.1
6.7,8.25,7.5,10.5,15.0,9.0,5.75,2.5,6.0,3.25,2.0,4.0,1.25,2.75,-0.05,0.08,1.27,1650.37,10.9,33.4,0.0,0.0,0.0,0.75,0.0,0.0,0.25,0.0,0.0,0.0,0.25,0.0,0.0,0.2,0.83,2.02,52.63,-17.4,26.5
6.72,8.5,7.5,11.0,14.0,9.25,4.0,1.0,1.5,1.0,1.0,1.5,0.75,1.5,-0.3,0.14,1.45,1619.3,14.5,51.1,0.5,0.5,0.75,2.25,0.0,0.0,0.0,0.0,0.0,0.0,0.5,0.25,0.0,0.08,0.83,2.2,52.31,-20.7,44.6
6.74,8.75,7.0,10.5,12.5,7.0,2.0,0.25,0.0,0.5,0.25,1.25,0.75,1.5,-0.23,-0.05,2.33,1469.5,17.7,56.8,0.5,0.5,0.0,2.25,0.0,0.0,0.0,0.0,0.0,0.0,0.25,0.25,0.0,0.14,1.33,2.77,48.6,-17.8,48.9
6.76,8.25,5.5,1.75,10.5,0.0,0.0,0.0,0.0,0.5,0.25,1.0,0.75,1.5,-0.48,-0.17,1.89,1114.56,19.7,56.3,0.75,0.5,0.5,0.75,0.0,0.0,0.0,0.0,0.0,0.0,0.5,0.0,0.0,-0.11,2.14,3.14,48.47,-23.1,53.3
6.78,6.75,0.0,8.5,7.5,0.0,0.0,0.25,0.0,0.0,0.25,1.0,0.0,1.5,-0.3,-0.05,1.89,757.86,26.3,52.2,1.0,0.75,0.75,2.0,0.0,0.0,0.0,0.0,0.0,0.0,0.5,0.25,0.0,-0.48,3.45,3.02,58.22,-21.7,51.3
6.8,4.5,0.0,6.5,4.25,0.0,0.0,0.25,0.0,0.25,0.25,0.75,0.75,1.0,0.02,0.64,2.58,450.79,26.1,43.4,0.5,0.5,0.5,2.75,0.0,0.0,0.0,0.0,0.0,0.0,0.5,0.25,0.0,-1.3,5.58,1.52,68.39,-19.4,45.2
6.82,0.25,0.0,4.0,2.0,0.0,0.0,0.25,0.0,0.0,0.25,0.5,0.75,1.5,-0.11,1.58,3.02,247.55,20.0,9.5,0.5,0.5,0.75,2.75,0.0,0.0,0.0,0.0,0.0,0.0,0.5,0.25,0.0,-1.8,6.45,0.02,77.63,-20.3,45.9
6.84,0.0,0.0,3.0,1.0,0.0,0.0,0.25,0.0,0.0,0.25,0.75,0.0,1.5,-0.67,0.39,1.7,93.08,18.1,1.3,0.5,0.5,0.75,2.75,0.0,0.0,0.0,0.0,0.0,0.0,0.5,0.25,0.0,-1.67,5.7,-0.55,83.97,-20.3,45.9
6.86,0.0,0.0,2.75,0.5,0.0,0.0,0.25,0.0,0.0,0.75,0.5,0.0,1.5,-0.86,0.83,0.14,0.0,14.9,-9.0,0.5,0.5,0.5,3.0,0.0,0.0,0.0,0.0,0.0,0.75,0.75,0.75,0.0,-1.61,4.33,-0.17,96.61,-14.4,17.0
6.88,0.0,0.0,2.75,0.25,0.0,0.0,0.25,0.0,0.0,0.5,0.75,0.25,1.5,0.14,0.89,1.89,0.0,15.7,-15.7,0.0,0.0,0.0,0.5,0.0,0.0,0.0,1.0,0.75,10.0,4.0,7.5,5.0,1.02,0.95,-4.98,220.28,4.1,-85.9
6.9,0.0,0.0,2.75,0.25,0.0,0.0,0.25,0.0,0.0,0.25,1.0,0.0,1.5,-0.05,0.89,2.2,0.0,17.1,-11.8,1.75,1.0,0.0,5.25,0.0,2.5,0.75,8.25,4.75,11.0,12.5,7.5,9.0,0.83,1.52,5.83,485.63,0.9,-53.6
6.92,0.0,0.0,2.25,0.5,0.0,0.0,0.25,0.0,0.0,0.25,0.0,0.0,1.5,-0.36,0.52,2.33,0.0,16.0,-2.8,4.75,3.0,6.0,9.5,5.5,5.75,2.25,8.75,5.5,10.0,11.5,6.25,7.25,-0.11,0.14,1.14,950.58,-3.8,-16.3
6.94,0.0,0.0,2.25,0.5,0.0,0.0,0.25,0.0,0.0,0.25,0.0,0.0,1.5,-0.48,0.02,2.52,0.0,16.0,-2.8,6.75,5.25,9.5,13.0,8.0,7.0,3.75,9.0,5.5,9.25,10.5,5.75,5.75,0.39,0.2,1.14,1456.24,-6.3,0.0
6.96,0.0,0.0,2.25,0.5,0.0,0.0,0.25,0.0,0.0,0.25,0.0,0.5,1.5,-0.36,-0.36,2.45,0.0,15.4,-13.0,8.0,6.0,11.5,15.5,9.0,7.5,4.5,8.75,5.25,8.25,9.25,4.5,4.75,0.2,0.08,0.95,1774.5,-7.8,9.7
6.98,0.0,0.0,2.25,0.5,0.0,0.0,0.25,0.0,0.0,0.25,0.0,0.0,1.5,-0.42,-0.61,2.33,0.0,16.0,-2.8,8.75,6.5,12.5,16.0,9.5,7.5,4.5,8.25,4.5,6.25,7.75,3.0,3.0,0.33,0.14,1.08,1949.75,-9.3,19.6
7.0,0.0,0.0,2.25,0.0,0.0,0.0,0.25,0.0,0.0,0.25,0.0,0.5,1.5,-0.61,-1.11,2.45,18.47,15.2,-20.8,9.5,7.0,13.0,17.0,10.5,7.0,4.0,7.0,2.0,2.5,4.75,1.25,1.25,0.2,0.14,1.27,1968.31,-11.5,36.9
7.02,0.0,0.0,2.25,0.5,0.0,0.0,0.25,0.0,0.25,0.5,0.0,0.25,1.25,-0.98,-1.73,2.14,39.22,15.5,-7.8,9.5,6.5,14.0,16.0,9.25,4.75,2.0,3.25,0.75,0.0,2.0,0.25,0.0,0.2,0.2,1.39,1836.71,-16.0,55.0
7.04,0.0,0.0,2.25,0.25,0.0,0.0,0.25,0.0,0.0,0.25,0.0,0.25,1.5,-1.73,-1.73,1.33,55.77,15.6,-11.8,8.75,5.5,13.0,12.5,7.5,0.0,0.25,1.0,0.25,0.0,0.5,0.25,0.0,0.02,-0.05,2.7,1579.76,-20.8,64.4
7.06,0.0,0.0,2.25,0.5,0.0,0.0,0.25,0.0,0.0,0.25,0.0,0.5,1.5,-1.86,-1.23,1.02,69.61,15.4,-13.0,8.0,4.0,11.0,10.5,5.25,0.0,0.25,0.0,0.0,0.0,0.5,0.0,0.0,0.33,-0.05,1.95,1262.9,-22.7,67.9
7.08,0.0,0.0,2.25,0.5,0.0,0.0,0.25,0.0,0.0,0.25,0.0,0.25,1.5,-1.42,-0.48,1.2,73.37,15.7,-8.1,6.25,2.25,9.0,7.25,0.0,0.0,0.0,0.0,0.5,0.0,0.5,0.0,0.0,0.08,-0.05,1.64,820.49,-28.0,67.3
7.1,0.0,0.0,2.25,0.5,0.0,0.0,0.25,0.0,0.0,0.25,0.0,0.25,1.5,-0.98,0.02,1.7,75.36,15.7,-8.1,3.75,1.25,5.5,5.0,0.0,0.0,0.0,0.0,0.0,0.0,0.5,0.0,0.0,-0.23,0.83,2.7,458.46,-27.8,66.9
7.12,0.0,0.0,2.25,0.5,0.0,0.0,0.25,0.0,0.0,0.25,0.0,0.0,1.5,-0.67,0.33,2.27,74.69,16.0,-2.8,0.5,0.5,2.0,2.75,0.0,0.0,0.0,0.0,0.0,0.0,0.5,0.0,0.0,-0.23,1.58,2.39,206.05,-24.4,55.0
7.14,0.0,0.0,2.0,0.25,0.0,0.0,0.25,0.0,0.0,0.25,0.0,0.0,1.5,-0.67,0.7,2.45,71.77,14.6,-10.5,1.75,0.5,1.25,3.0,0.0,0.0,0.25,1.0,0.25,0.0,1.25,0.25,0.0,0.02,0.45,1.33,27.7,-18.3,32.7
7.16,0.0,0.0,1.0,0.0,0.0,0.0,0.0,0.0,0.0,0.0,0.0,0.0,0.25,-0.73,0.77,2.64,53.81,27.8,26.8,1.75,0.5,0.75,3.0,0.0,0.0,0.25,1.0,0.25,0.0,1.25,0.25,0.0,0.08,1.33,1.02,0.0,-17.1,31.0
7.18,0.0,0.0,0.75,0.5,0.0,0.0,0.0,0.0,0.0,0.0,0.0,0.0,0.25,-0.73,1.08,3.33,37.87,22.5,31.6,0.75,0.5,1.25,2.75,0.0,0.0,0.75,1.0,0.0,0.0,1.25,0.25,0.0,-0.05,1.2,1.95,0.0,-17.0,26.5
7.2,0.0,0.0,1.5,0.5,0.0,0.0,0.0,0.0,0.0,0.25,0.0,0.0,0.75,-0.36,2.2,3.77,32.6,17.3,6.7,1.0,0.5,1.25,3.0,0.0,0.0,0.25,1.0,0.0,0.0,1.25,0.25,0.0,0.14,0.83,2.27,0.0,-17.1,29.4
7.22,0.0,0.0,2.0,0.5,0.0,0.0,0.25,0.0,0.0,0.25,0.0,0.0,1.0,0.2,3.58,3.83,39.45,18.5,6.8,1.25,0.5,1.0,2.75,0.0,0.0,0.0,1.0,0.0,0.0,0.75,0.25,0.0,0.33,0.27,2.39,0.0,-17.1,36.2
7.24,0.0,0.0,1.75,0.5,0.0,0.0,0.25,0.0,0.0,0.0,0.0,0.0,0.25,0.95,5.64,3.14,42.03,28.9,42.6,1.0,0.75,1.0,2.75,0.0,0.0,0.25,0.75,0.25,0.0,0.75,0.5,0.0,0.45,0.02,2.52,0.0,-17.3,31.7
7.26,0.0,0.0,2.0,0.0,0.0,0.0,0.25,0.0,0.0,0.25,0.0,0.25,1.0,0.58,7.7,0.77,48.11,18.0,-8.2,0.5,0.25,1.0,2.75,0.0,0.0,0.25,1.0,0.0,0.0,1.0,0.25,0.0,0.45,-0.17,2.83,0.0,-15.5,23.6
7.28,0.0,0.0,2.25,0.5,0.0,0.0,0.25,0.0,0.0,0.25,0.0,0.5,1.5,0.58,7.08,-0.67,58.76,15.4,-13.0,0.5,0.75,0.75,3.0,0.0,0.0,0.0,0.75,0.0,0.0,0.75,0.25,0.0,0.33,-0.73,2.77,28.89,-15.5,34.9
7.3,0.0,0.0,2.0,0.0,0.0,0.0,0.25,0.0,0.0,0.0,0.0,0.0,1.25,1.27,5.14,0.33,58.97,18.7,-3.6,0.75,0.5,1.0,2.75,0.0,0.0,0.25,0.5,0.0,0.0,0.75,0.0,0.0,0.64,-1.17,2.33,56.08,-19.0,42.9
7.32,0.0,0.0,0.0,0.5,0.0,0.0,0.0,0.0,1.0,7.5,0.0,6.5,0.0,-0.3,1.64,-4.11,129.24,-2.5,-82.9,0.5,0.5,1.0,2.75,0.0,0.0,0.75,0.75,0.0,0.0,0.75,0.25,0.0,1.02,-1.36,1.58,83.0,-17.3,32.2
7.34,0.0,0.0,0.0,1.75,0.0,1.25,0.5,6.0,4.25,7.75,8.0,5.5,7.5,-0.73,2.02,7.52,296.7,-3.1,-67.9,0.5,0.5,0.75,3.0,0.0,0.0,0.75,0.25,0.0,0.0,0.75,0.25,0.0,0.95,-1.61,1.39,96.37,-19.1,37.6
7.36,0.0,1.25,0.0,4.5,0.0,3.25,1.0,6.5,6.0,7.0,7.75,4.75,6.0,0.2,-0.3,0.7,500.0,-1.3,-47.6,0.5,0.5,0.75,2.75,0.0,0.0,0.75,0.0,0.0,0.0,0.75,0.25,0.0,0.89,-1.11,1.2,100.65,-20.7,39.9
7.38,2.5,3.0,6.5,9.0,5.5,5.0,2.0,7.0,6.5,7.0,7.75,4.75,5.25,0.14,-0.05,0.95,853.43,4.7,-9.9,0.5,0.5,0.75,2.75,0.0,0.0,0.25,0.0,0.0,0.0,1.0,0.0,0.0,0.7,-0.3,1.39,93.9,-20.3,42.0
7.4,5.75,4.5,8.0,11.5,7.5,6.0,3.0,7.25,6.75,6.75,7.5,4.0,5.25,-0.05,0.08,1.08,1245.55,6.6,3.0,0.0,0.0,0.0,0.5,0.0,0.0,0.0,0.0,0.0,0.0,0.25,0.0,0.0,0.45,0.14,1.7,63.17,-15.1,15.7
7.42,7.25,5.5,9.25,12.5,8.5,6.5,3.25,7.0,6.25,5.0,6.75,3.0,4.0,-0.11,-0.05,1.14,1505.19,8.2,13.9,0.5,0.5,0.0,2.0,0.0,0.0,0.0,0.0,0.0,0.0,0.25,0.25,0.0,0.27,0.52,2.02,51.41,-17.8,48.3
7.44,7.75,6.5,10.5,14.0,9.0,6.25,3.0,6.5,4.5,2.0,4.5,1.75,2.75,-0.05,-0.05,1.08,1624.96,10.3,28.7,0.0,0.0,0.75,0.5,0.0,0.0,0.0,0.0,0.0,0.0,0.25,0.0,0.0,0.2,0.77,2.27,29.35,-26.7,38.4
7.46,8.25,7.5,10.5,14.0,9.0,5.25,1.5,4.25,1.5,1.5,2.25,0.75,1.5,-0.23,0.14,1.27,1626.4,12.2,44.0,0.5,0.5,0.75,2.75,0.0,0.0,0.0,0.0,0.0,0.0,0.75,0.25,0.0,0.2,0.95,2.39,44.85,-19.9,40.7
7.48,8.25,6.75,10.5,13.0,8.75,2.75,0.25,0.75,0.0,0.5,1.25,0.75,1.5,-0.48,0.14,2.39,1506.75,15.7,54.9,0.5,0.5,0.75,2.25,0.0,0.0,0.0,0.0,0.0,0.0,0.75,0.25,0.0,0.14,1.52,2.77,54.8,-20.2,38.9
7.5,8.25,6.25,10.5,11.5,0.0,1.0,0.0,0.0,0.5,0.75,1.25,0.75,1.5,-0.48,-0.11,2.02,1273.98,22.0,55.3,0.5,0.5,0.75,2.75,0.0,0.0,0.25,0.0,0.0,0.0,0.75,0.25,0.0,-0.17,2.27,2.95,75.09,-20.2,40.4
7.52,7.0,4.75,9.0,8.0,0.0,0.0,0.0,0.0,0.0,1.0,0.75,0.75,1.0,-0.36,-0.17,1.95,934.32,23.7,56.7,0.5,0.5,0.75,2.75,0.0,0.0,0.0,0.0,0.0,0.0,0.75,0.25,0.0,-0.55,3.33,3.02,82.85,-19.9,40.7
7.54,2.75,0.0,7.0,4.5,0.0,0.0,0.25,0.0,0.0,0.25,0.75,0.75,1.25,-0.3,0.39,2.77,576.1,25.1,38.0,0.5,0.5,0.75,2.75,0.0,0.0,0.0,0.0,0.0,0.0,0.5,0.25,0.0,-1.11,5.27,2.33,88.38,-20.3,45.9
7.56,0.0,0.0,4.75,2.75,0.0,0.0,0.25,0.0,0.0,0.25,0.75,0.75,1.25,-0.3,1.08,2.95,305.06,21.4,15.7,1.5,0.75,0.75,2.75,0.0,0.0,0.0,0.0,0.0,0.0,0.5,0.25,0.0,-1.67,6.52,0.39,96.77,-22.1,55.4
7.58,0.0,0.0,3.25,1.0,0.0,0.0,0.25,0.0,0.0,0.25,1.0,0.75,1.5,-0.3,0.33,2.08,131.43,17.7,-9.4,0.75,0.5,1.0,2.75,0.0,0.0,0.0,0.0,0.0,0.0,0.5,0.25,0.0,-1.61,5.2,-0.48,101.01,-21.7,48.7
7.6,0.0,0.0,3.0,1.0,0.0,0.0,0.25,0.0,0.0,0.25,0.75,0.75,1.5,-0.42,0.02,0.83,0.0,17.2,-9.7,0.5,0.5,0.5,2.0,0.0,0.0,0.0,0.0,0.0,5.5,0.5,3.5,0.0,-2.05,4.33,-0.55,138.82,-2.1,-44.7
7.62,0.0,0.0,2.75,0.5,0.0,0.0,0.25,0.0,0.0,0.25,0.75,0.0,1.5,0.14,0.7,2.27,0.0,17.3,-6.1,0.0,0.25,0.75,1.25,0.0,0.0,0.25,3.75,2.75,11.5,8.0,8.0,7.5,-1.55,4.45,3.2,308.42,2.3,-74.6
7.64,0.0,0.0,2.5,0.75,0.0,0.0,0.25,0.0,0.0,0.25,0.75,0.75,1.5,0.08,0.83,2.02,0.0,15.6,-17.7,2.0,1.5,0.5,5.5,2.25,2.75,1.25,8.25,4.75,10.5,11.5,6.75,8.5,0.7,0.14,1.89,612.21,0.4,-44.0
7.66,0.0,0.0,2.5,0.5,0.0,0.0,0.25,0.0,0.0,0.5,0.75,0.0,1.5,-0.17,0.45,2.14,0.0,15.0,-11.9,5.5,3.5,7.0,10.5,6.25,5.75,2.5,8.75,5.25,9.75,10.5,6.0,6.5,-0.05,0.08,1.27,1089.68,-4.7,-10.2
7.68,0.0,0.0,2.25,0.5,0.0,0.0,0.25,0.0,0.0,0.5,1.0,0.25,1.25,-0.42,0.08,2.27,0.0,14.8,-17.5,7.5,5.25,9.5,12.5,8.0,7.0,3.75,8.75,5.25,9.0,9.75,5.5,5.5,0.39,0.2,1.2,1506.56,-6.6,1.9
7.7,0.0,0.0,2.25,0.5,0.0,0.0,0.25,0.0,0.0,0.25,0.0,0.5,1.5,-0.55,-0.36,2.27,0.0,15.4,-13.0,8.25,6.25,11.0,15.5,9.0,7.5,4.5,8.75,5.25,8.0,9.0,4.25,4.5,0.2,0.08,0.95,1790.87,-7.8,10.9
7.72,0.0,0.0,2.25,0.0,0.0,0.0,0.25,0.0,0.0,0.25,0.0,0.5,1.5,-0.48,-0.55,2.2,0.0,15.2,-20.8,9.0,6.75,12.5,16.0,9.5,7.5,4.5,8.25,4.0,5.5,7.25,2.25,2.5,0.27,0.14,1.14,1928.06,-9.6,23.3
7.74,0.0,0.0,2.25,0.0,0.0,0.0,0.25,0.0,0.0,0.25,0.0,0.0,1.5,-0.48,-0.8,2.33,0.0,15.9,-10.4,9.5,7.0,13.0,16.5,10.5,6.5,3.5,6.0,1.5,1.75,3.25,1.0,0.75,0.27,0.2,1.2,1916.95,-12.4,42.6
7.76,0.0,0.0,2.25,0.0,0.0,0.0,0.25,0.0,0.0,0.25,0.0,0.0,1.5,-0.8,-1.36,1.95,23.77,15.9,-10.4,9.5,7.0,13.0,15.5,9.25,4.0,1.25,2.5,0.75,0.75,2.0,0.5,0.0,0.2,0.27,1.58,1777.27,-15.9,54.6
7.78,0.0,0.0,2.25,0.0,0.0,0.0,0.25,0.0,0.0,0.25,0.0,0.0,1.5,-1.55,-1.48,1.45,44.39,15.9,-10.4,8.75,5.25,13.0,11.0,6.5,0.25,0.5,1.0,0.5,0.0,0.75,0.25,0.0,0.14,0.08,2.2,1510.39,-21.2,63.2
7.8,0.0,0.0,2.25,0.5,0.0,0.0,0.25,0.0,0.0,0.25,0.0,0.0,1.25,-1.61,-1.23,1.14,55.07,17.8,3.2,8.0,4.5,11.0,9.0,5.25,0.0,0.0,0.0,0.0,0.0,0.5,0.0,0.0,0.08,-0.05,1.77,1179.75,-22.8,68.8
7.82,0.0,0.0,2.25,0.5,0.0,0.0,0.25,0.0,0.0,0.25,0.0,0.0,1.5,-1.42,-0.55,1.2,61.76,16.0,-2.8,6.25,2.75,9.0,5.75,1.0,0.0,0.25,0.0,0.0,0.0,0.75,0.0,0.0,-0.17,-0.05,1.52,764.7,-27.2,68.4
7.84,0.0,0.0,2.0,0.5,0.0,0.0,0.25,0.0,0.0,0.25,0.0,0.0,1.25,-0.98,-0.05,1.7,63.36,16.5,-0.2,3.25,0.5,6.25,4.0,1.25,0.0,0.25,0.0,0.0,0.0,0.5,0.0,0.0,-0.3,0.7,2.08,424.52,-26.8,63.3
7.86,0.0,0.0,2.0,0.5,0.0,0.0,0.25,0.0,0.0,0.25,0.0,0.0,1.25,-0.67,0.2,2.27,64.23,16.5,-0.2,0.75,0.5,3.0,2.75,0.0,0.0,0.0,0.0,0.0,0.0,0.5,0.25,0.0,0.02,1.33,2.33,196.15,-26.0,51.9
7.88,0.0,0.0,2.0,0.75,0.0,0.0,0.25,0.0,0.0,0.25,0.0,0.0,1.0,-0.48,0.52,2.45,63.75,18.4,9.9,1.75,0.75,2.25,3.25,0.0,0.0,0.25,1.0,0.25,0.0,0.5,0.0,0.0,0.02,0.58,1.7,38.87,-20.9,49.4
7.9,0.0,0.0,1.75,0.25,0.0,0.0,0.25,0.0,0.0,0.0,0.0,0.0,1.0,-0.42,0.64,2.45,58.96,19.6,4.7,0.0,0.0,0.75,1.25,0.0,0.0,0.25,0.0,0.0,0.0,0.75,0.0,0.0,0.14,0.95,2.14,0.0,-21.7,24.3
7.92,0.0,0.0,1.0,0.25,0.0,0.0,0.0,0.0,0.0,0.25,0.0,0.0,0.25,-0.55,0.83,3.02,47.0,20.2,17.1,0.5,0.0,1.0,0.75,0.0,0.0,0.0,0.0,0.0,0.0,0.25,0.0,0.0,-0.23,1.02,2.27,0.0,-28.4,53.7
7.94,0.0,0.0,2.0,0.5,0.0,0.0,0.25,0.0,0.0,0.0,0.0,0.0,1.25,-0.48,2.02,3.39,48.25,18.5,4.4,0.5,0.25,0.5,3.0,0.0,0.0,0.0,0.0,0.0,0.0,0.25,0.25,0.0,-0.05,0.64,2.2,0.0,-20.1,49.0
7.96,0.0,0.0,1.5,0.0,0.0,0.0,0.0,0.0,0.0,0.0,0.0,0.0,0.25,-0.36,3.64,3.45,39.57,30.8,36.5,0.5,0.0,1.0,0.5,0.0,0.0,0.5,0.0,0.0,0.0,0.75,0.25,0.0,0.2,0.27,2.14,0.0,-25.5,19.5
7.98,0.0,0.0,1.5,0.0,0.0,0.0,0.0,0.0,0.0,0.0,0.0,0.0,0.25,0.39,5.83,2.95,34.65,30.8,36.5,1.0,0.5,0.75,3.0,0.0,0.0,0.0,1.0,0.0,0.0,0.5,0.25,0.0,0.2,0.02,2.33,0.0,-15.9,37.8
8.0,0.0,0.0,0.75,0.25,0.0,0.0,0.0,0.0,0.0,0.25,0.0,0.5,0.25,1.27,7.7,-0.48,28.33,15.2,-19.3,1.0,0.5,1.0,1.0,0.0,0.0,0.0,0.0,0.0,0.0,0.5,0.0,0.0,0.27,-0.23,2.89,0.0,-25.3,57.1
8.02,0.0,0.0,2.25,0.0,0.0,0.0,0.25,0.0,0.0,0.5,0.0,0.0,1.25,0.64,6.45,-1.11,38.14,15.8,-8.1,0.5,0.5,0.0,3.0,0.0,0.0,0.25,0.0,0.0,0.0,0.75,0.25,0.0,0.27,-0.98,2.58,0.0,-17.4,38.2
8.04,0.0,0.0,0.0,0.0,0.0,0.0,0.0,0.0,0.0,0.0,0.0,2.0,0.0,1.83,5.2,-1.73,36.95,8.8,-109.9,0.5,0.5,1.0,3.0,0.0,0.0,0.75,0.5,0.0,0.0,0.75,0.25,0.0,0.83,-0.92,1.89,29.3,-18.5,35.7
8.06,0.0,0.0,1.0,0.0,0.0,1.0,0.0,1.75,3.25,7.75,6.25,5.75,7.25,-1.61,1.27,7.7,207.35,-2.3,-76.2,0.5,0.75,0.75,3.0,0.0,0.0,0.0,0.25,0.0,0.0,0.75,0.25,0.0,0.89,-1.23,1.14,67.91,-18.1,40.6
8.08,0.0,0.5,0.0,2.5,0.0,2.75,1.0,6.0,5.25,7.0,7.5,4.75,6.0,-0.17,0.2,1.45,367.81,-2.4,-56.4,0.5,0.5,0.75,3.0,0.0,0.0,0.0,0.0,0.0,0.0,0.75,0.25,0.0,0.83,-1.23,1.14,88.63,-19.8,41.5
8.1,1.75,3.0,5.5,8.0,3.5,4.5,1.5,6.5,6.0,7.0,7.5,4.75,5.25,-0.36,0.64,1.33,687.18,4.1,-15.3,0.5,0.5,1.0,3.0,0.0,0.0,0.25,0.0,0.0,0.0,0.75,0.25,0.0,0.77,-0.8,1.2,101.39,-20.8,42.0
8.12,5.75,4.5,7.75,10.5,7.0,5.5,2.5,7.0,6.5,7.0,7.5,4.0,4.75,-0.17,0.02,1.14,1081.11,6.6,2.2,0.5,0.5,0.75,0.5,0.0,0.0,0.25,0.0,0.0,0.0,0.5,0.0,0.0,0.58,-0.23,1.33,86.85,-24.4,48.8
8.14,7.25,5.75,9.0,12.5,8.25,6.0,3.25,7.0,6.25,5.25,7.0,3.0,4.0,-0.05,0.02,1.08,1426.16,8.3,13.3,0.5,0.5,0.75,2.75,0.0,0.0,0.25,0.0,0.0,0.0,0.5,0.25,0.0,0.27,0.2,1.64,89.29,-20.6,45.5
8.16,8.0,6.75,10.5,14.0,8.75,6.0,3.25,6.5,5.0,2.75,5.0,1.5,2.5,-0.11,0.08,1.08,1592.68,10.4,27.9,0.5,0.5,0.75,2.75,0.0,0.0,0.25,0.0,0.0,0.0,0.75,0.25,0.0,0.08,0.45,1.95,86.88,-20.2,40.4
8.18,8.25,7.5,10.5,14.0,9.0,5.25,2.25,4.5,1.75,1.75,2.25,0.75,1.5,-0.17,0.08,1.27,1622.76,12.1,42.8,0.5,0.5,0.75,3.0,0.0,0.0,0.0,0.0,0.0,0.0,0.5,0.25,0.0,-0.05,0.83,2.27,90.28,-20.2,46.5
8.2,8.75,7.5,10.5,14.0,8.5,2.75,0.75,1.5,1.0,0.5,1.25,0.75,1.5,-0.11,0.2,2.45,1547.65,15.6,53.1,0.5,0.5,0.75,2.75,0.0,0.0,0.0,0.0,0.0,0.0,0.5,0.25,0.0,-0.05,1.14,2.52,91.12,-20.3,45.9
8.22,8.75,6.5,10.5,11.5,0.0,1.75,0.25,0.0,0.25,0.25,1.25,0.75,1.5,-0.36,0.02,1.95,1332.64,21.9,57.6,0.5,0.5,1.25,2.25,0.0,0.0,0.25,0.0,0.0,0.0,0.5,0.25,0.0,-0.11,1.95,2.7,90.96,-22.6,45.8
8.24,7.75,5.5,9.5,9.5,0.0,0.0,0.0,0.0,0.0,0.25,1.25,0.75,1.5,-0.42,-0.11,1.89,1026.37,23.7,57.1,0.5,0.5,0.75,2.5,0.0,0.0,0.0,0.0,0.0,0.0,0.5,0.25,0.0,-0.36,2.95,2.58,89.55,-20.5,45.3
8.26,6.25,0.0,8.5,7.0,0.0,0.0,0.25,0.0,0.25,0.25,1.0,0.75,1.5,-0.23,0.02,1.83,699.34,25.7,45.7,0.5,0.5,0.75,2.75,0.0,0.0,0.0,0.0,0.0,0.0,0.5,0.25,0.0,-0.73,4.45,2.33,87.0,-20.3,45.9
8.28,3.25,0.0,6.5,4.25,0.0,0.0,0.25,0.0,0.0,0.25,0.5,0.75,1.0,-0.11,0.58,2.2,423.91,25.9,42.5,0.5,0.5,0.75,2.75,0.0,0.0,0.0,0.0,0.0,0.0,0.5,0.25,0.0,-1.17,6.2,0.39,86.52,-20.3,45.9
8.3,0.75,0.0,4.0,1.75,0.0,0.0,0.25,0.0,0.0,0.25,0.75,0.75,1.5,-0.42,1.08,2.39,227.58,20.6,10.3,0.5,0.5,0.75,2.75,0.0,0.0,0.0,0.0,0.0,0.0,0.5,0.25,0.0,-1.67,5.58,-0.8,88.45,-20.3,45.9
8.32,0.0,0.0,3.25,1.0,0.0,0.0,0.25,0.0,0.25,0.25,1.0,0.5,1.5,-0.73,0.2,1.08,83.65,17.8,-7.2,0.0,0.0,0.75,1.5,0.0,0.0,0.0,0.0,0.0,1.0,0.5,0.25,0.0,-1.86,5.52,-0.48,80.82,-11.8,-0.3
8.34,0.0,0.0,3.0,0.5,0.0,0.0,0.25,0.0,0.0,0.25,0.75,0.0,1.5,-0.23,0.64,0.83,0.0,18.2,-3.4,0.5,0.0,0.25,0.5,0.0,0.0,0.0,1.0,0.75,9.75,5.25,7.0,5.5,-3.86,6.95,0.02,213.41,2.8,-81.5
8.36,0.0,0.0,2.75,0.25,0.0,0.0,0.25,0.0,0.0,0.25,1.0,0.0,1.25,0.14,0.64,1.89,0.0,18.4,-7.3,1.5,1.25,0.0,5.0,0.5,2.0,0.75,7.5,4.25,10.5,11.0,6.25,8.25,0.77,0.52,3.2,442.51,1.0,-51.3
8.38,0.0,0.0,2.5,0.0,0.0,0.0,0.25,0.0,0.0,0.25,1.0,0.0,1.5,0.02,0.58,2.02,0.0,16.0,-18.5,4.5,3.0,5.75,9.5,5.5,5.25,2.25,8.25,5.0,9.25,9.75,5.5,6.0,0.08,0.08,1.27,861.46,-4.1,-12.7
8.4,0.0,0.0,2.25,0.25,0.0,0.0,0.25,0.0,0.0,0.25,0.0,0.0,1.25,-0.11,0.27,1.95,0.0,17.8,-0.1,6.75,5.25,9.0,12.5,7.75,6.5,3.5,8.25,5.25,8.75,9.25,5.25,4.75,0.39,0.27,1.14,1352.18,-6.6,2.6
8.42,0.0,0.0,2.5,0.5,0.0,0.0,0.25,0.0,0.0,0.25,0.0,0.0,1.5,-0.11,0.14,2.08,0.0,17.2,0.4,8.0,6.0,11.0,14.5,9.0,7.0,4.5,8.5,5.25,8.25,8.75,4.25,4.25,0.2,0.08,0.95,1675.45,-7.9,10.3
8.44,0.0,0.0,2.25,0.0,0.0,0.0,0.25,0.0,0.0,0.25,0.0,0.0,1.5,-0.17,-0.05,2.33,0.0,15.9,-10.4,8.75,6.5,12.5,16.0,9.25,7.25,5.0,8.25,4.5,6.25,7.75,3.0,3.0,0.27,0.14,1.02,1873.19,-9.4,19.5
8.46,0.0,0.0,2.0,0.0,0.0,0.0,0.25,0.0,0.0,0.25,0.0,0.5,1.25,-0.36,-0.3,2.77,0.0,15.5,-20.4,9.25,7.0,13.0,17.0,9.5,7.0,4.5,7.0,2.5,3.0,5.0,1.5,1.25,0.14,0.14,1.14,1924.31,-11.5,34.7
8.48,0.0,0.0,1.75,0.0,0.0,0.0,0.25,0.0,0.0,0.25,0.0,0.0,1.25,-0.61,-1.05,2.14,0.0,14.8,-13.6,9.5,7.25,14.0,16.0,9.25,5.75,2.5,4.0,0.75,1.25,2.0,0.5,0.0,0.27,0.2,1.27,1844.84,-14.6,51.4
8.5,0.0,0.0,1.5,0.0,0.0,0.0,0.0,0.0,0.0,0.0,0.0,0.0,0.25,-1.36,-1.11,1.33,10.62,30.8,36.5,9.25,6.75,13.0,13.5,9.0,1.25,0.5,1.25,0.75,0.0,2.0,0.25,0.0,0.08,0.02,2.64,1648.38,-18.6,59.5
8.52,0.0,0.0,2.25,0.0,0.0,0.0,0.0,0.0,0.0,0.0,0.0,0.0,0.25,-1.48,-1.3,1.2,21.28,33.1,43.9,8.5,5.25,11.0,12.0,6.5,0.0,0.5,0.0,0.0,0.0,0.75,0.0,0.0,0.2,0.02,2.08,1377.38,-21.5,67.4
8.54,0.0,0.0,2.25,0.0,0.0,0.0,0.0,0.0,0.0,0.0,0.0,0.0,0.25,-1.42,-0.86,1.2,27.62,33.1,43.9,7.25,4.25,9.75,7.5,3.75,0.0,0.0,0.0,0.0,0.0,0.0,0.5,0.0,0.08,-0.05,1.45,994.0,-23.6,69.0
8.56,0.0,0.0,2.0,0.25,0.0,0.0,0.0,0.0,0.0,0.0,0.0,0.0,0.25,-1.23,-0.17,1.27,31.74,30.9,43.6,5.25,2.0,7.25,5.75,0.0,0.0,0.0,0.0,0.0,0.0,0.5,0.0,0.0,-0.23,0.2,1.89,606.18,-28.2,69.3
8.58,0.0,0.0,2.0,0.5,0.0,0.0,0.0,0.0,0.0,0.25,0.0,0.0,0.25,-0.86,0.14,1.7,37.35,26.0,35.1,3.25,0.5,5.75,3.0,0.0,0.0,0.5,1.0,0.0,0.0,1.25,0.0,0.0,-0.3,1.45,2.64,317.07,-26.3,50.9
8.6,0.0,0.0,2.25,0.5,0.0,0.0,0.0,0.0,0.0,0.25,0.0,0.0,0.25,-0.67,0.39,2.27,43.85,26.9,37.1,2.0,0.75,1.25,3.25,0.0,0.0,0.25,0.0,0.0,0.0,0.5,0.0,0.0,-0.05,1.14,2.02,131.44,-24.1,63.2
8.62,0.0,0.0,0.5,0.5,0.0,0.0,0.0,0.0,0.0,0.25,0.0,0.0,0.0,-0.55,0.7,2.39,36.78,19.2,33.2,2.0,0.5,1.25,3.25,0.0,0.0,0.25,0.0,0.0,0.0,0.5,0.0,0.0,0.2,0.14,0.7,0.0,-24.5,62.0
8.64,0.0,0.0,1.0,0.5,0.0,0.0,0.0,0.0,0.0,0.0,0.0,0.0,0.25,-0.67,0.95,2.89,32.36,24.8,35.8,1.5,0.5,1.0,3.0,0.0,0.0,0.25,0.75,0.25,0.0,1.0,0.25,0.0,-0.05,1.14,1.7,0.0,-18.5,35.2
8.66,0.0,0.0,1.75,0.25,0.0,0.0,0.0,0.0,0.0,0.0,0.0,0.0,0.25,-0.61,1.39,3.27,30.0,30.1,41.6,1.25,0.5,1.25,3.0,0.0,0.0,0.25,0.75,0.0,0.0,1.0,0.25,0.0,-0.17,0.89,1.77,0.0,-18.8,36.5
8.68,0.0,0.0,1.75,0.0,0.0,0.0,0.0,0.0,0.0,0.0,0.0,0.0,0.25,-0.3,2.58,3.2,30.83,31.7,39.6,1.25,0.5,1.0,3.0,0.0,0.0,0.25,0.75,0.0,0.0,1.25,0.25,0.0,-0.05,0.64,2.08,0.0,-18.0,32.4
8.7,0.0,0.0,1.5,0.0,0.0,0.0,0.0,0.0,0.0,0.0,0.0,0.0,0.25,0.2,4.14,2.83,30.33,30.8,36.5,1.25,0.5,1.75,2.75,0.0,0.0,0.25,1.0,0.0,0.0,1.0,0.25,0.0,0.14,0.14,2.45,0.0,-19.0,35.1
8.72,0.0,0.0,1.75,0.0,0.0,0.0,0.0,0.0,0.0,0.0,0.0,0.0,0.25,1.08,6.27,2.02,32.35,31.7,39.6,0.75,0.5,0.75,3.0,0.0,0.0,0.25,0.5,0.0,0.0,0.75,0.25,0.0,0.27,-0.17,2.83,0.0,-17.8,37.2
8.74,0.0,0.0,0.75,0.0,0.0,0.0,0.0,0.0,0.0,0.0,0.0,0.0,0.25,1.39,7.02,-0.05,26.74,25.2,18.2,0.5,0.5,1.0,3.0,0.0,0.0,0.25,0.5,0.0,0.0,0.75,0.25,0.0,0.39,-0.42,3.08,9.01,-18.0,36.0
8.76,0.0,0.0,1.25,0.0,0.0,0.0,0.0,0.0,0.0,0.0,0.0,0.0,0.25,0.89,5.83,-0.48,23.23,29.6,32.5,0.75,0.5,0.75,2.75,0.0,0.0,0.25,0.0,0.0,0.0,0.75,0.25,0.0,0.52,-1.11,2.58,35.13,-20.8,42.7
8.78,0.0,0.0,0.0,0.0,0.0,0.0,0.0,0.0,0.0,3.5,0.0,2.0,1.5,1.95,7.14,-0.61,56.15,-8.3,-92.7,1.0,0.5,0.75,2.75,0.0,0.0,0.25,0.0,0.0,0.0,0.5,0.25,0.0,0.83,-1.11,2.08,58.81,-21.7,49.6
8.8,0.0,0.0,0.25,0.0,0.0,0.75,0.25,5.0,3.5,7.75,7.5,5.5,7.25,-1.23,2.14,7.95,238.19,-3.7,-75.7,0.5,0.25,1.0,2.75,0.0,0.0,0.0,0.0,0.0,0.0,0.5,0.25,0.0,1.02,-1.23,1.52,72.66,-21.6,44.1
8.82,0.0,0.25,0.0,3.75,0.0,2.75,1.0,6.25,5.25,7.0,7.5,4.75,6.0,0.2,-0.23,1.14,409.85,-2.0,-53.8,0.75,0.5,1.0,3.0,0.0,0.0,0.0,0.0,0.0,0.0,0.75,0.25,0.0,1.02,-1.11,1.27,85.43,-21.1,44.3
8.84,1.5,3.0,5.5,7.75,3.0,4.25,1.5,6.5,6.0,7.0,7.5,4.75,5.25,-0.42,0.58,0.89,722.73,4.1,-16.8,0.75,0.5,0.75,2.75,0.0,0.0,0.0,0.0,0.0,0.0,0.75,0.25,0.0,0.89,-0.48,1.33,90.64,-20.5,43.0
8.86,4.5,4.5,7.25,10.5,6.25,5.25,2.25,7.0,6.5,7.0,7.5,4.5,5.25,-0.17,0.02,1.08,1087.2,6.0,-1.6,0.5,0.5,0.75,2.75,0.0,0.0,0.25,0.0,0.25,0.0,0.75,0.5,0.0,0.64,0.02,1.77,92.59,-19.4,31.3
8.88,6.75,5.5,8.75,12.5,8.0,6.0,3.0,7.0,6.5,6.0,7.25,3.5,4.0,-0.05,-0.05,1.14,1414.73,7.8,10.3,1.0,0.5,0.75,2.75,0.0,0.0,0.0,0.0,0.0,0.0,0.5,0.25,0.0,0.27,0.39,2.14,92.04,-21.5,50.1
8.9,7.75,6.25,9.75,13.5,8.5,6.0,3.25,6.5,5.75,3.75,5.75,2.0,2.75,-0.05,-0.05,1.02,1580.14,9.7,22.6,0.75,0.5,0.75,2.75,0.0,0.0,0.25,0.0,0.0,0.0,0.5,0.25,0.0,0.14,0.77,2.33,92.2,-21.2,47.7
8.92,8.25,6.75,10.5,14.0,8.75,5.25,2.5,5.25,2.75,1.75,3.0,1.25,1.75,-0.17,0.02,1.2,1629.33,11.8,37.4,0.5,0.5,0.75,2.0,0.0,0.0,0.0,0.0,0.0,0.0,0.75,0.25,0.0,0.14,1.02,2.33,86.19,-20.4,37.9
8.94,8.5,6.5,10.5,14.0,8.75,3.5,1.0,1.5,1.0,0.75,1.25,0.75,1.5,-0.3,0.2,1.58,1554.75,14.9,51.3,0.5,0.5,0.75,2.75,0.0,0.0,0.0,0.0,0.0,0.0,0.75,0.25,0.0,0.14,1.64,2.64,86.11,-19.9,40.7
8.96,8.75,6.25,11.0,12.5,0.0,2.0,0.25,0.0,0.5,0.25,1.25,0.75,1.5,-0.36,0.02,2.14,1351.16,21.8,56.8,0.75,0.5,0.75,2.75,0.0,0.0,0.0,0.0,0.0,0.0,0.5,0.25,0.0,-0.11,2.52,2.7,87.79,-20.9,48.1
8.98,7.75,5.5,9.75,10.5,0.0,0.0,0.25,0.0,0.5,0.25,1.0,0.75,1.5,-0.36,-0.11,1.83,1055.13,23.6,56.7,0.0,0.0,0.0,0.5,0.0,0.0,0.25,0.0,0.0,0.0,0.75,0.0,0.0,-0.42,3.58,2.39,65.29,-15.1,-15.4
9.0,6.75,0.0,9.0,8.0,0.0,0.0,0.25,0.0,0.5,0.25,1.0,0.75,1.25,-0.17,-0.05,1.77,733.08,26.0,48.0,0.5,0.5,0.0,2.75,0.0,0.0,0.0,0.0,0.0,0.0,0.5,0.25,0.0,-0.98,5.08,1.83,62.92,-17.3,43.4
9.02,4.5,0.0,7.0,4.5,0.0,0.0,0.25,0.0,0.25,0.25,0.75,0.25,0.75,-0.05,0.52,2.02,452.8,27.4,50.4,0.5,0.5,0.75,2.75,0.0,0.0,0.25,0.0,0.0,0.0,0.5,0.25,0.0,-1.67,6.2,-0.61,65.46,-20.6,45.5
9.04,3.0,0.0,5.0,2.5,0.0,0.0,0.25,0.0,0.0,0.25,0.75,0.75,0.25,0.02,1.39,2.33,259.18,27.7,44.1,0.5,0.5,0.75,2.5,0.0,0.0,0.0,0.0,0.0,0.0,0.5,0.25,0.0,-1.8,5.2,-0.36,73.81,-20.5,45.3
9.06,1.5,0.0,0.0,2.0,0.0,0.0,0.25,0.0,0.0,0.25,0.75,0.75,1.25,-0.67,0.2,0.95,110.06,12.3,-5.3,0.5,0.5,0.75,2.75,0.0,0.0,0.0,0.0,0.0,4.5,0.5,2.0,0.0,-1.48,7.83,0.89,107.34,-4.6,-24.4
9.08,0.0,0.0,1.5,1.0,0.0,0.0,0.25,0.0,0.0,0.25,0.5,0.0,1.5,-0.36,1.27,1.33,0.0,12.2,-13.4,0.5,0.0,0.0,0.5,0.0,0.0,0.0,2.5,2.0,9.0,7.25,6.5,6.0,-0.17,1.77,3.89,252.29,2.5,-78.9
9.1,0.0,0.0,1.25,0.75,0.0,0.0,0.25,0.0,0.25,0.25,0.75,0.0,1.25,0.14,0.64,2.08,0.0,11.9,-20.7,1.75,1.5,0.25,5.5,0.5,2.5,1.25,7.5,4.0,9.25,9.75,5.5,7.25,0.45,0.08,1.95,472.89,0.4,-44.5
9.12,0.75,0.0,2.0,0.5,0.0,0.0,0.25,0.0,0.0,0.25,0.5,0.0,1.25,0.02,0.52,2.08,0.0,18.4,5.6,5.5,3.5,6.0,9.0,5.5,5.5,2.0,7.75,4.75,8.5,8.75,4.5,5.0,0.64,0.52,1.33,865.47,-4.8,-6.4
9.14,1.5,0.0,1.25,1.25,0.0,0.0,0.25,0.0,0.0,0.25,0.0,0.25,1.0,-0.23,0.14,2.08,0.0,19.2,23.9,7.5,5.25,8.75,12.5,7.75,6.25,3.0,8.25,5.25,8.5,8.75,4.5,4.0,0.33,0.27,1.2,1330.64,-7.0,5.6
9.16,0.75,0.0,0.0,1.25,0.0,0.0,0.25,0.0,0.0,0.25,0.0,0.25,1.25,-0.36,0.02,2.2,0.0,8.0,-10.1,8.5,6.0,11.0,14.0,8.75,7.0,4.5,8.5,5.25,7.75,8.75,4.25,3.5,0.2,0.14,0.95,1643.66,-8.3,11.7
9.18,1.0,0.0,2.0,1.0,0.0,0.0,0.25,0.0,0.0,0.25,0.0,0.5,1.25,-0.48,-0.05,2.58,0.0,18.7,10.6,9.25,6.5,12.5,15.5,9.25,7.0,4.75,8.25,4.25,5.75,7.75,2.25,2.5,0.2,0.2,1.08,1835.71,-9.8,22.0
9.2,1.0,0.0,1.25,0.5,0.0,0.0,0.25,0.0,0.0,0.25,0.0,0.75,1.25,-0.55,-0.36,2.58,0.0,15.5,-7.5,9.5,7.0,13.0,16.0,9.25,6.25,4.5,6.75,2.25,3.0,4.75,1.0,0.75,0.2,0.14,1.2,1881.21,-12.1,37.0
9.22,1.5,0.0,1.25,0.5,0.0,0.0,0.25,0.0,0.0,0.25,0.0,0.75,1.25,-0.73,-0.98,2.33,19.23,17.1,1.2,10.5,7.0,14.5,16.0,9.25,4.75,2.75,4.0,0.75,1.5,2.0,0.5,0.25,0.2,0.2,1.83,1817.1,-15.3,51.1
9.24,1.5,0.0,0.0,0.0,0.0,0.0,0.25,0.0,0.0,0.25,0.0,0.75,1.0,-1.17,-1.23,1.89,34.38,11.7,-20.7,10.5,6.5,14.5,14.0,8.25,0.5,1.25,1.25,0.25,0.0,1.75,0.25,0.0,0.08,0.08,2.52,1632.69,-20.4,61.7
9.26,0.75,0.0,1.0,0.0,0.0,0.0,0.25,0.0,0.0,0.25,0.0,0.0,1.0,-1.3,-1.36,1.52,43.87,15.9,0.8,8.75,5.75,12.0,11.0,5.75,0.0,0.25,0.0,0.0,0.0,0.5,0.0,0.0,0.27,0.02,1.95,1370.01,-22.5,69.1
9.28,1.5,0.0,0.5,0.25,0.0,0.0,0.25,0.0,0.0,0.0,0.0,0.0,1.0,-1.3,-1.05,1.33,46.07,18.9,22.1,8.0,3.5,11.0,7.25,0.0,0.0,0.25,0.0,0.0,0.0,0.5,0.0,0.0,0.2,-0.05,1.7,963.86,-28.7,71.4
9.3,1.5,0.0,1.0,0.5,0.0,0.0,0.0,0.0,0.0,0.25,0.0,0.0,1.0,-1.11,-0.36,1.45,54.41,18.7,23.1,5.5,1.5,8.25,5.5,0.0,0.0,0.25,0.0,0.0,0.0,0.5,0.0,0.0,-0.05,0.2,1.58,585.87,-29.3,68.4
9.32,1.25,0.0,1.25,0.5,0.0,0.0,0.25,0.0,0.0,0.25,0.0,0.0,0.75,-0.8,0.02,2.14,58.66,21.4,29.7,2.75,0.5,5.25,3.0,0.0,0.0,0.5,0.0,0.25,0.0,0.5,0.0,0.0,-0.11,1.33,2.89,297.65,-29.6,61.4
9.34,1.5,0.0,1.5,0.5,0.0,0.0,0.25,0.0,0.0,0.25,0.0,0.0,1.25,-0.48,0.39,2.39,67.73,19.4,20.4,1.75,1.0,1.75,3.25,0.0,0.0,0.0,0.25,0.25,0.0,0.75,0.25,0.0,-0.05,1.14,1.33,128.62,-22.1,50.0
9.36,1.5,0.0,0.0,0.5,0.0,0.0,0.25,0.0,0.0,0.25,0.0,0.0,1.0,-0.48,0.77,2.52,63.92,13.2,11.6,1.75,0.75,1.25,3.0,0.0,0.0,0.25,1.0,0.0,0.0,1.5,0.25,0.0,0.14,0.2,0.58,0.0,-18.1,33.6
9.38,1.5,0.0,1.25,0.5,0.0,0.0,0.25,0.0,0.0,0.25,0.0,0.0,1.0,-0.42,1.02,2.83,67.44,20.2,25.4,1.75,0.5,1.0,3.0,0.0,0.0,0.25,1.0,0.0,0.0,1.0,0.25,0.0,0.08,1.33,1.95,0.0,-18.1,36.9
9.4,0.5,0.0,1.25,0.5,0.0,0.0,0.25,0.0,0.0,0.0,0.0,0.0,1.0,-0.36,1.52,3.39,62.09,18.7,13.0,1.25,0.75,1.0,3.0,0.0,0.0,0.25,1.0,0.0,0.0,1.0,0.25,0.0,-0.05,0.89,2.02,0.0,-17.0,35.4
9.42,0.0,0.0,0.5,0.5,0.0,0.0,0.25,0.0,0.0,0.25,0.0,0.0,0.25,0.08,2.77,3.45,48.59,15.0,10.7,1.0,0.5,1.0,3.0,0.0,0.0,0.0,1.0,0.0,0.0,0.75,0.25,0.0,0.08,0.39,2.14,0.0,-16.5,35.0
9.44,0.0,0.0,0.75,0.5,0.0,0.0,0.0,0.0,0.0,0.25,0.0,0.25,1.0,0.7,5.2,2.33,42.12,8.0,-28.9,0.5,0.0,1.0,0.5,0.0,0.0,0.25,1.0,0.0,0.0,0.75,0.0,0.0,0.2,0.08,2.27,0.0,-15.4,12.5
9.46,0.0,0.0,0.5,0.25,0.0,0.0,0.0,0.0,0.0,0.0,0.0,0.0,0.25,1.33,7.08,1.39,29.3,20.0,17.6,1.0,0.5,0.0,3.0,0.0,0.0,0.0,0.0,0.0,0.0,0.25,0.25,0.0,0.27,-0.23,2.52,0.0,-19.2,54.8
9.48,0.0,0.0,0.25,0.5,0.0,0.0,0.25,0.0,0.0,0.25,0.0,0.75,1.25,0.89,6.83,-0.55,34.06,2.4,-60.5,0.75,0.5,0.75,3.0,0.0,0.0,0.25,0.25,0.0,0.0,0.75,0.25,0.0,0.39,-0.48,2.83,0.0,-19.2,40.1
9.5,0.0,0.0,0.25,0.0,0.0,0.0,0.0,0.0,0.0,0.0,0.0,0.0,0.5,0.77,5.33,-0.23,23.25,3.6,-52.9,0.5,0.5,1.0,3.0,0.0,0.0,0.0,0.0,0.0,0.0,0.25,0.25,0.0,0.64,-1.11,2.27,15.17,-21.4,52.4
9.52,0.0,0.0,0.5,0.0,0.0,0.0,0.0,0.0,0.0,4.75,0.0,4.0,0.0,0.7,5.7,-1.17,68.79,-2.1,-82.6,0.75,0.5,0.0,3.0,0.0,0.0,0.25,0.0,0.0,0.0,1.0,0.25,0.0,0.83,-1.11,1.83,47.59,-17.8,35.9
9.54,0.0,0.25,0.25,0.0,0.0,0.75,0.25,4.75,3.5,7.75,7.25,5.5,7.25,-1.98,1.52,7.83,241.31,-3.6,-74.7,0.75,0.5,0.0,3.0,0.0,0.0,0.0,0.0,0.0,0.0,0.75,0.25,0.0,1.08,-1.17,1.27,66.42,-17.8,41.1
9.56,0.0,0.5,0.0,4.0,0.0,2.75,1.0,6.25,5.5,7.25,7.5,4.75,6.0,0.08,0.08,1.27,418.83,-1.8,-52.3,1.0,0.5,0.0,3.0,0.0,0.0,0.0,0.0,0.0,0.0,0.75,0.25,0.0,1.02,-0.67,1.27,77.96,-18.5,43.5
9.58,4.5,3.0,5.5,8.0,2.75,4.5,1.75,6.75,6.25,7.0,7.5,4.0,5.25,-0.3,0.39,1.2,747.7,5.4,-10.8,1.0,0.5,0.0,2.75,0.0,0.0,0.0,0.0,0.0,0.0,0.5,0.25,0.0,0.7,-0.17,1.52,78.36,-18.9,48.4
9.6,6.75,4.5,7.75,11.0,6.25,5.5,2.75,7.0,6.25,6.0,7.0,3.25,4.0,-0.11,0.08,1.14,1116.93,7.6,7.0,1.0,0.5,0.0,3.0,0.0,0.0,0.0,0.0,0.0,0.0,0.5,0.25,0.0,0.45,0.14,1.83,80.23,-18.9,48.9
9.62,8.0,6.0,9.25,12.5,7.75,6.0,3.25,6.75,6.0,4.25,5.75,2.0,2.75,-0.05,0.02,1.08,1412.7,9.4,20.5,0.5,0.5,0.0,2.75,0.0,0.0,0.0,0.0,0.0,0.0,0.75,0.25,0.0,0.33,0.39,2.14,79.38,-17.0,37.5
9.64,8.25,6.5,10.0,14.0,8.5,6.0,2.75,6.25,4.75,2.25,4.0,1.75,2.5,-0.05,0.02,1.02,1554.68,10.5,29.5,1.0,0.5,0.0,2.75,0.0,0.0,0.0,0.0,0.0,0.0,0.5,0.25,0.0,0.27,0.7,2.2,80.79,-18.9,48.4
9.66,8.75,7.5,10.5,14.0,8.75,5.0,1.75,4.5,1.75,1.75,2.0,0.75,1.5,-0.17,0.14,1.39,1587.51,12.4,43.7,1.25,0.25,0.0,2.75,0.0,0.0,0.0,0.0,0.0,0.0,0.5,0.25,0.0,0.33,1.14,2.7,82.09,-20.0,48.1
9.68,8.75,7.25,10.5,13.5,8.5,2.75,0.5,1.5,0.75,0.5,1.25,0.75,1.5,0.02,0.2,2.08,1510.48,15.5,53.2,0.75,0.5,0.0,2.75,0.0,0.0,0.0,0.0,0.0,0.0,0.5,0.25,0.0,0.27,1.64,2.95,83.12,-18.2,46.0
9.7,9.25,6.5,10.5,11.5,0.0,1.75,0.0,0.0,0.5,0.25,1.25,0.75,1.5,-0.3,0.02,2.2,1312.68,22.0,57.6,0.75,0.5,0.0,2.5,0.0,0.0,0.25,0.0,0.0,0.0,0.75,0.25,0.0,0.02,2.58,3.08,80.3,-18.2,39.0
9.72,8.5,5.5,9.5,9.5,0.0,0.0,0.25,0.0,0.5,0.25,1.0,0.25,1.5,-0.42,0.02,1.95,1014.98,24.1,59.6,0.75,0.5,0.0,2.0,0.0,0.0,0.0,0.0,0.0,0.0,0.5,0.25,0.0,-0.36,3.7,2.58,74.49,-18.4,43.7
9.74,7.5,0.0,8.5,6.75,0.0,0.0,0.25,0.0,0.0,0.25,0.75,0.75,1.25,-0.23,0.2,1.64,698.31,26.9,51.4,0.5,0.5,0.0,2.5,0.0,0.0,0.0,0.0,0.0,0.0,0.5,0.25,0.0,-1.36,6.02,1.89,72.29,-17.3,42.5
9.76,4.75,0.0,6.5,4.0,0.0,0.0,0.25,0.0,0.0,0.5,0.0,0.25,1.25,0.02,0.89,2.52,423.24,26.5,50.4,0.5,0.5,0.0,2.75,0.0,0.0,0.0,0.0,0.0,0.0,0.5,0.25,0.0,-1.61,6.52,-0.36,71.33,-17.3,43.4
9.78,3.0,0.0,4.0,2.5,0.0,0.0,0.25,0.0,0.0,0.25,0.0,0.75,1.25,-0.3,1.02,2.52,241.43,24.2,36.6,0.5,0.5,0.0,2.75,0.0,0.0,0.0,0.0,0.0,0.75,0.75,0.25,0.0,-1.61,5.2,-0.48,77.11,-12.6,22.3
9.8,0.25,0.0,3.25,2.0,0.0,0.0,0.25,0.0,0.0,0.25,1.0,0.75,1.25,-0.92,0.52,1.2,107.49,18.9,4.0,0.5,0.0,0.0,0.5,0.0,0.0,0.0,1.0,0.25,8.0,2.0,5.5,0.5,-1.42,4.77,-2.8,151.6,2.8,-76.0
9.82,1.5,0.0,2.75,1.0,0.0,0.0,0.25,0.0,0.0,0.25,0.75,0.5,1.5,-0.3,0.2,1.45,0.0,19.7,9.0,1.25,0.5,0.0,3.25,0.0,0.25,0.5,7.0,3.25,10.5,11.0,7.0,8.75,1.77,1.52,5.33,362.08,1.5,-63.7
9.84,0.5,0.0,2.75,0.75,0.0,0.0,0.25,0.0,0.0,0.25,0.0,0.5,1.5,0.14,0.77,2.45,0.0,18.7,3.6,2.5,2.0,1.75,5.75,2.25,3.75,2.0,8.25,4.75,9.25,10.0,5.5,7.0,-0.17,-0.17,1.33,661.2,-0.7,-33.5
9.86,1.0,0.0,2.5,1.5,0.0,0.0,0.25,0.0,0.0,0.25,0.5,0.5,1.25,-0.05,0.45,2.14,0.0,19.4,11.8,5.5,3.5,6.75,10.5,6.25,6.25,3.5,8.25,5.25,8.5,9.0,5.0,4.75,0.02,0.02,1.08,1101.3,-5.3,-4.2
9.88,0.0,0.0,2.5,1.75,0.0,0.0,0.25,0.0,0.0,0.25,0.5,0.25,1.25,-0.3,0.14,1.95,0.0,17.6,6.2,6.75,4.75,9.25,12.5,8.0,7.0,5.25,8.75,5.25,8.5,8.75,4.5,4.25,0.14,0.14,0.89,1467.25,-6.8,4.7
9.9,0.5,0.0,2.5,1.25,0.0,0.0,0.25,0.0,0.0,0.25,0.0,0.0,1.5,-0.36,-0.05,2.08,0.0,18.5,14.8,8.0,5.5,11.0,15.5,9.0,7.25,6.25,8.75,5.25,7.5,8.25,3.75,3.25,0.27,0.02,1.14,1731.66,-8.4,13.4
9.92,0.0,0.0,0.0,1.25,0.0,0.0,0.25,0.0,0.0,0.75,0.0,0.0,1.25,-0.3,-0.11,2.83,0.0,-0.8,-34.3,8.75,6.0,12.5,16.0,9.25,7.25,6.25,8.25,4.25,5.0,6.75,1.75,2.25,0.14,0.02,0.95,1865.35,-10.1,24.3
9.94,0.5,0.0,0.75,1.0,0.0,0.0,0.25,0.0,0.0,0.25,0.0,0.0,1.25,-0.3,-0.8,2.45,0.0,11.7,-0.9,9.5,6.5,13.0,17.0,9.25,6.5,5.75,6.5,2.0,2.5,4.0,1.0,0.75,0.14,0.02,1.14,1888.31,-12.5,38.9
9.96,0.25,0.0,2.25,0.5,0.0,0.0,0.25,0.0,0.0,0.25,0.0,0.0,1.25,-0.98,-0.92,1.89,4.64,18.6,7.9,9.5,6.5,13.5,16.0,9.0,4.25,3.5,3.5,0.75,1.5,2.0,0.5,0.0,0.2,0.14,1.33,1784.27,-15.5,51.2
9.98,0.0,0.0,2.25,0.5,0.0,0.0,0.25,0.0,0.0,0.25,0.0,0.0,1.5,-1.3,-1.17,1.45,28.9,16.0,-2.8,9.25,6.0,13.5,14.0,8.0,0.5,1.25,1.0,0.75,1.25,1.75,0.0,0.0,0.14,-0.05,2.39,1583.95,-19.4,58.0
10.0,0.0,0.0,2.25,0.5,0.0,0.0,0.25,0.0,0.0,0.25,0.0,0.25,1.5,-1.11,-0.98,1.2,48.16,15.7,-8.1,8.5,3.75,12.5,10.0,6.0,0.0,0.5,0.0,0.25,0.0,0.5,0.0,0.0,0.27,-0.05,1.83,1302.89,-23.0,66.9
10.02,0.0,0.0,2.25,0.5,0.0,0.0,0.25,0.0,0.0,0.25,0.0,0.0,1.25,-1.23,-0.48,1.27,58.66,17.8,3.2,7.5,3.0,11.0,7.25,3.0,0.0,0.75,1.0,0.5,0.0,1.25,0.0,0.0,0.14,-0.11,1.58,924.38,-23.9,61.0
10.04,0.0,0.0,2.0,0.5,0.0,0.0,0.0,0.0,0.0,0.25,0.0,0.0,0.25,-0.86,-0.05,1.7,56.29,26.0,35.1,5.25,1.25,7.25,5.0,0.0,0.0,0.5,1.25,0.0,0.0,1.25,0.0,0.0,-0.05,0.33,1.64,553.62,-26.1,57.0
10.06,0.0,0.0,2.25,0.0,0.0,0.0,0.25,0.0,0.0,0.0,0.0,0.0,0.25,-0.55,0.27,2.14,48.29,33.0,43.1,2.0,0.5,3.75,3.0,0.0,0.0,0.25,0.0,0.0,0.0,0.5,0.25,0.0,-0.11,1.58,2.83,278.64,-27.8,57.6
10.08,0.0,0.0,1.75,0.0,0.0,0.0,0.0,0.0,0.0,0.0,0.0,0.0,0.25,-0.55,0.64,2.2,38.62,31.7,39.6,0.5,0.25,0.0,2.0,0.0,0.0,0.0,0.0,0.0,0.0,0.5,0.0,0.0,0.02,0.83,1.7,78.41,-18.4,47.2
10.1,0.0,0.0,1.75,0.25,0.0,0.0,0.0,0.0,0.0,0.0,0.0,0.0,0.0,-0.48,0.77,2.7,31.32,35.6,60.6,0.0,0.25,0.0,1.25,0.0,0.0,0.0,0.0,0.0,0.0,0.5,0.0,0.0,-0.23,-0.23,1.2,0.0,-15.1,31.5
10.12,0.0,0.0,1.25,0.0,0.0,0.0,0.0,0.0,0.0,0.0,0.0,0.0,0.25,-0.48,1.08,3.08,25.16,29.6,32.5,0.5,0.25,0.0,1.25,0.0,0.0,0.0,0.0,0.0,0.0,0.25,0.0,0.0,-0.23,0.83,2.2,0.0,-19.6,56.5
10.14,0.0,0.0,1.25,0.0,0.0,0.0,0.0,0.0,0.0,0.0,0.0,0.0,0.25,-0.05,2.2,3.33,22.19,29.6,32.5,0.5,0.5,0.0,2.75,0.0,0.0,0.0,0.0,0.25,0.0,0.25,0.25,0.0,0.02,0.58,2.08,0.0,-17.4,45.3
10.16,0.75,0.0,1.25,0.5,0.0,0.0,0.0,0.0,0.0,0.25,0.0,0.0,1.0,0.58,3.77,3.02,32.78,17.0,11.9,0.5,0.0,0.0,0.5,0.0,0.0,0.0,0.0,0.25,0.0,0.25,0.25,0.0,0.2,0.02,2.14,0.0,-19.2,12.1
10.18,0.0,0.0,2.0,0.5,0.0,0.0,0.25,0.0,0.0,0.0,0.0,0.0,1.0,1.33,5.64,2.08,41.33,20.8,12.3,0.75,0.0,0.0,1.25,0.0,0.0,0.0,1.0,0.0,0.0,1.0,0.25,0.0,0.2,-0.17,2.2,0.0,-10.1,1.2
10.2,0.0,0.0,1.0,0.0,0.0,0.0,0.0,0.0,0.0,0.0,0.0,0.0,0.25,1.27,6.7,1.02,37.0,27.8,26.8,1.25,0.5,0.0,3.0,0.0,0.0,0.25,1.0,0.0,0.0,1.0,0.25,0.0,0.33,-0.42,2.33,0.0,-14.1,29.5
10.22,0.0,0.0,1.25,0.0,0.0,0.0,0.0,0.0,0.0,0.0,0.0,0.0,0.25,0.39,5.95,-0.8,31.84,29.6,32.5,1.25,0.5,0.0,3.0,0.0,0.0,0.25,0.75,0.0,0.0,1.0,0.0,0.0,0.39,-0.55,2.64,0.0,-15.4,37.2
10.24,0.0,0.0,1.5,0.0,0.0,0.0,0.0,0.0,0.0,0.0,0.0,0.0,0.25,0.89,4.45,-0.11,27.02,30.8,36.5,1.0,0.5,0.0,3.0,0.0,0.0,0.25,0.75,0.0,0.0,0.5,0.25,0.0,0.45,-0.98,2.27,23.3,-14.8,37.9
10.26,0.0,0.0,0.0,0.0,0.0,0.0,0.0,0.0,0.0,0.0,0.0,0.0,0.0,-0.67,-1.11,2.64,15.15,0.0,0.0,1.0,0.5,0.0,2.75,0.0,0.0,0.25,0.75,0.0,0.0,0.75,0.25,0.0,1.02,-0.92,1.7,60.88,-14.5,32.6
10.28,0.0,0.0,0.0,0.0,0.0,0.75,0.25,4.75,3.25,7.75,6.75,5.5,6.25,-0.8,1.95,7.7,197.49,-4.1,-76.2,1.0,0.5,0.0,3.0,0.0,0.0,0.25,0.25,0.0,0.0,0.75,0.25,0.0,1.27,-1.17,1.27,88.41,-17.3,39.7
10.3,1.5,0.75,0.0,4.25,0.0,2.75,1.0,6.25,5.5,7.0,7.5,4.75,6.0,0.27,-0.42,0.95,375.81,-0.4,-46.2,0.75,0.5,0.0,2.75,0.0,0.0,0.75,0.75,0.0,0.0,0.75,0.0,0.0,1.14,-0.98,1.27,101.85,-14.7,35.8
10.32,4.0,3.0,5.5,8.0,4.5,4.25,1.75,6.5,6.0,7.0,7.5,4.75,5.25,-0.17,0.27,1.08,730.18,5.1,-10.7,1.0,0.5,0.0,3.0,0.0,0.0,0.75,1.0,0.0,0.0,0.75,0.25,0.0,0.89,-0.36,1.39,112.44,-14.1,30.8
10.34,6.25,4.5,7.75,10.5,6.25,5.25,2.5,7.0,6.25,6.5,7.5,4.0,5.0,-0.11,0.02,1.14,1120.74,7.0,2.4,0.75,0.5,0.0,3.0,0.0,0.0,0.0,0.0,0.0,0.0,0.75,0.25,0.0,0.52,0.14,1.58,108.72,-17.8,41.1
10.36,7.5,5.5,9.0,12.5,8.0,6.0,3.25,7.0,6.25,5.25,6.75,3.0,4.0,0.02,0.02,1.08,1444.83,8.4,13.4,0.75,0.5,0.0,2.75,0.0,0.0,0.25,0.0,0.0,0.0,0.75,0.25,0.0,0.33,0.45,1.95,102.29,-18.2,39.9
10.38,8.25,6.5,9.75,14.0,8.5,6.0,3.25,6.5,5.5,3.5,5.25,1.75,2.75,-0.05,0.02,1.02,1599.42,10.0,24.9,0.5,0.5,0.0,2.75,0.0,0.0,0.0,0.0,0.0,0.0,0.5,0.25,0.0,0.08,0.89,2.2,91.07,-17.3,43.4
10.4,8.75,6.5,10.5,14.5,8.75,5.5,2.5,5.0,2.25,1.25,2.25,1.0,1.25,-0.17,0.08,1.2,1627.31,12.3,42.1,0.5,0.5,0.0,2.75,0.0,0.0,0.0,0.0,0.0,0.0,0.5,0.25,0.0,0.14,1.14,2.33,84.44,-17.3,43.4
10.42,8.75,6.5,10.5,14.0,8.75,3.5,1.0,1.5,0.75,0.75,1.0,0.75,1.5,-0.17,0.14,1.89,1549.48,15.0,52.4,0.5,0.5,0.0,2.75,0.0,0.0,0.0,0.0,0.0,0.0,0.5,0.25,0.0,0.08,2.58,2.83,75.46,-17.3,43.4
10.44,8.75,6.25,10.5,12.5,0.0,2.0,0.25,0.0,0.5,0.25,1.0,0.75,1.5,-0.17,0.02,1.95,1344.21,21.6,57.4,0.75,0.5,0.0,2.75,0.0,0.0,0.25,0.0,0.0,0.0,0.25,0.25,0.0,-0.48,3.7,2.39,72.64,-18.9,51.8
10.46,7.25,0.0,8.25,6.75,0.0,0.0,0.25,0.0,0.25,0.25,0.25,0.75,1.5,-0.17,0.08,1.83,947.43,26.4,50.8,0.5,0.5,0.0,2.75,0.0,0.0,0.0,0.0,0.0,0.0,0.5,0.25,0.0,-1.3,5.58,0.77,72.79,-17.3,43.4
10.48,4.75,0.0,6.5,2.0,0.0,0.0,0.25,0.0,0.0,0.0,0.75,0.0,1.5,-0.05,0.64,2.2,565.88,28.0,47.5,0.5,0.5,0.0,2.75,0.0,0.0,0.0,0.0,0.0,0.0,0.5,0.25,0.0,-1.61,6.08,-0.36,73.05,-17.3,43.4
10.5,0.0,0.0,3.75,2.5,0.0,0.0,0.25,0.0,0.0,0.25,0.5,0.0,1.5,-0.42,1.2,2.2,289.0,19.9,18.6,0.5,0.5,0.0,2.75,0.0,0.0,0.0,0.0,0.0,1.5,0.5,0.25,0.0,-1.67,4.89,-0.42,79.76,-9.2,14.1
10.52,2.0,0.0,3.25,1.0,0.0,0.0,0.25,0.0,0.0,0.25,0.5,0.75,1.25,-0.48,0.39,1.2,118.06,22.4,18.8,0.75,0.5,0.0,0.75,0.0,0.0,0.0,0.25,0.25,6.75,2.25,5.25,1.5,-1.8,4.2,-2.55,151.72,0.7,-69.8
10.54,0.0,0.0,1.25,1.25,0.0,0.0,0.25,0.0,0.25,0.25,0.25,0.0,1.5,0.27,0.2,1.33,0.0,11.2,-11.7,0.0,0.5,0.0,3.0,0.0,0.0,0.25,6.0,2.75,9.75,9.5,6.75,8.25,0.89,2.2,7.95,333.86,2.4,-68.6
10.56,0.25,0.0,2.75,0.0,0.0,0.0,0.25,0.0,0.0,0.25,0.5,0.0,1.25,0.27,0.58,2.52,0.0,20.0,0.3,3.0,2.0,0.5,5.5,1.75,2.75,1.25,7.75,4.0,9.0,9.5,5.5,6.5,-0.36,-0.11,1.2,593.4,-0.4,-36.0
10.58,0.75,0.0,2.0,0.25,0.0,0.0,0.0,0.0,0.0,0.0,0.0,0.0,0.25,0.08,0.45,2.14,0.0,31.8,55.2,5.5,3.75,6.5,10.5,6.0,5.75,2.5,8.0,4.75,8.5,8.75,4.5,4.75,0.27,0.39,1.08,1008.03,-5.2,-3.5
10.6,0.0,0.0,2.0,0.0,0.0,0.0,0.0,0.0,0.0,0.0,0.0,0.0,0.25,-0.23,0.27,1.95,0.0,32.5,42.0,7.5,5.25,9.0,13.0,7.75,6.5,4.0,8.25,5.25,8.5,8.75,4.5,3.75,0.14,0.14,0.95,1409.02,-7.2,6.5
10.62,0.0,0.0,2.0,0.0,0.0,0.0,0.25,0.0,0.0,0.0,0.0,0.0,0.5,-0.3,0.08,2.14,0.0,28.1,26.8,8.75,6.25,11.0,15.5,9.0,7.0,5.0,8.25,4.75,7.25,8.25,3.5,3.25,0.2,0.08,1.08,1692.18,-8.7,15.6
10.64,0.0,0.0,2.25,0.5,0.0,0.0,0.25,0.0,0.0,0.25,0.0,0.0,0.25,-0.36,-0.11,2.45,0.0,27.1,36.8,9.25,6.5,12.5,16.0,9.25,7.0,5.0,7.75,4.0,5.5,6.75,1.75,2.25,0.2,0.08,1.02,1846.38,-10.2,25.1
10.66,0.75,0.0,2.25,0.5,0.0,0.0,0.5,0.0,0.0,0.25,0.0,0.0,1.0,-0.48,-0.73,2.58,0.0,22.1,22.6,9.5,7.0,12.5,16.5,9.25,6.25,4.5,6.0,1.5,1.5,3.75,1.0,0.75,0.2,0.14,1.14,1859.77,-12.8,41.9
10.68,0.0,0.0,2.25,0.25,0.0,0.0,0.0,0.0,0.0,0.0,0.0,0.0,0.25,-0.98,-0.92,2.08,0.0,31.6,45.2,9.75,7.0,13.5,15.5,9.25,3.75,2.25,2.75,0.75,0.0,2.0,0.5,0.0,0.14,0.14,1.39,1747.1,-16.6,55.8
10.7,0.0,0.0,2.0,0.0,0.0,0.0,0.0,0.0,0.0,0.0,0.0,0.0,0.25,-1.23,-1.11,1.08,15.37,32.5,42.0,9.25,5.25,13.0,13.5,8.0,0.5,0.75,1.25,0.0,0.0,1.5,0.25,0.0,0.08,0.02,2.45,1530.54,-20.0,61.3
10.72,0.0,0.0,2.25,0.0,0.0,0.0,0.0,0.0,0.0,0.25,0.0,0.0,0.0,-1.3,-1.11,1.08,26.65,33.0,47.6,8.25,4.25,10.5,9.25,5.25,0.0,0.25,0.0,0.0,0.0,0.0,0.0,0.0,0.2,-0.05,1.89,1214.77,-22.9,70.5
10.74,0.0,0.0,2.0,0.0,0.0,0.0,0.0,0.0,0.0,0.0,0.0,0.0,0.25,-1.23,-0.8,1.27,30.78,32.5,42.0,7.25,3.0,9.25,7.25,0.0,0.0,0.0,0.0,0.0,0.0,0.5,0.0,0.0,0.02,0.02,1.52,807.79,-28.2,71.1
10.76,0.0,0.0,1.75,0.0,0.0,0.0,0.0,0.0,0.0,0.0,0.0,0.0,0.25,-1.05,-0.23,1.52,29.38,31.7,39.6,4.75,1.25,6.5,4.75,0.0,0.0,0.0,0.0,0.0,0.0,0.25,0.0,0.0,0.02,0.58,2.27,458.76,-29.2,70.3
10.78,0.0,0.0,1.5,0.0,0.0,0.0,0.0,0.0,0.0,0.0,0.0,0.0,0.25,-0.86,0.14,1.83,30.49,30.8,36.5,1.75,0.5,2.75,3.0,0.0,0.0,0.0,0.0,0.0,0.0,0.5,0.0,0.0,-0.05,1.77,2.2,227.15,-26.8,61.4
10.8,0.0,0.0,1.25,0.0,0.0,0.0,0.0,0.0,0.0,0.0,0.0,0.0,0.25,-0.67,0.52,2.14,27.03,29.6,32.5,0.5,0.25,0.0,1.75,0.0,0.0,0.0,0.0,0.0,0.0,0.5,0.0,0.0,-0.11,0.64,1.58,32.6,-18.5,46.2
10.82,0.0,0.0,1.25,0.0,0.0,0.0,0.0,0.0,0.0,0.0,0.0,0.0,0.25,-0.55,0.7,2.39,24.5,29.6,32.5,0.0,0.25,0.0,1.25,0.0,0.0,0.0,0.0,0.0,0.0,0.5,0.0,0.0,0.02,0.14,0.95,0.0,-15.1,31.5
10.84,0.0,0.0,1.25,0.0,0.0,0.0,0.0,0.0,0.0,0.0,0.0,0.0,0.25,-0.55,1.02,3.08,22.32,29.6,32.5,0.5,0.25,0.0,0.75,0.0,0.0,0.0,0.0,0.0,0.0,0.25,0.0,0.0,-0.36,1.2,2.2,0.0,-20.3,56.1
10.86,0.0,0.0,0.75,0.0,0.0,0.0,0.0,0.0,0.0,0.0,0.0,0.0,0.25,-0.17,2.02,3.2,17.35,25.2,18.2,1.75,0.5,0.0,3.0,0.0,0.0,0.5,1.0,0.0,0.0,1.0,0.0,0.0,-0.11,0.77,2.14,0.0,-15.8,38.3
10.88,0.25,0.0,0.5,0.0,0.0,0.0,0.0,0.0,0.0,0.25,0.0,0.0,0.25,0.27,3.58,3.02,14.71,16.2,5.6,1.25,0.75,0.0,3.0,0.0,0.0,0.75,1.0,0.0,0.0,1.0,0.0,0.0,0.14,0.33,2.27,0.0,-14.8,36.5
10.9,1.5,0.0,0.5,0.0,0.0,0.0,0.0,0.0,0.0,0.25,0.0,0.5,0.25,0.7,5.52,2.14,23.51,22.5,22.8,0.25,0.0,0.0,1.25,0.0,0.0,0.0,0.0,0.0,0.0,0.25,0.0,0.0,0.27,-0.05,2.64,0.0,-18.6,45.0
10.92,0.75,0.0,1.0,0.0,0.0,0.0,0.25,0.0,0.0,0.25,0.0,0.75,0.5,1.08,6.83,0.95,36.4,18.8,-6.7,1.25,0.5,0.0,2.75,0.0,0.0,0.25,1.0,0.0,0.0,1.0,0.25,0.0,0.39,-0.48,3.14,0.0,-14.0,28.4
10.94,1.25,0.0,1.0,0.0,0.0,0.0,3.5,0.0,0.0,0.0,0.0,0.0,0.5,0.58,6.58,-0.67,53.9,29.0,37.9,1.0,0.5,0.0,3.0,0.0,0.0,0.25,0.75,0.0,0.0,1.25,0.25,0.0,0.77,-1.23,2.39,0.0,-14.4,26.0
10.96,0.0,0.0,0.75,0.0,0.0,0.0,0.0,0.0,0.0,0.25,0.0,1.0,0.0,1.2,7.52,-0.61,52.26,17.1,-40.1,0.0,0.0,0.0,0.5,0.0,0.0,0.25,0.75,0.0,0.0,0.75,0.0,0.0,0.95,-1.3,2.08,13.5,-3.8,-23.7
10.98,0.0,0.0,0.5,0.0,0.0,0.0,0.0,1.5,2.5,7.0,5.75,5.0,0.0,-0.61,1.52,7.2,158.5,0.8,-73.4,0.75,0.25,0.0,1.25,0.0,0.0,0.0,0.0,0.0,0.0,0.5,0.25,0.0,0.83,-1.36,1.77,29.26,-19.2,35.3
11.0,0.0,0.5,0.0,3.0,0.0,2.0,0.5,5.25,4.5,6.5,6.75,4.0,5.75,-0.11,-0.05,1.27,298.65,-2.2,-55.7,0.5,0.0,0.0,0.75,0.0,0.0,0.75,0.0,0.0,0.0,0.5,0.0,0.0,0.89,-1.42,1.52,34.46,-22.2,30.7
11.02,3.5,2.25,5.25,7.75,0.0,4.0,1.5,6.25,5.75,6.5,6.75,4.0,4.0,-0.36,0.45,1.39,550.12,5.9,-14.7,0.0,0.0,0.0,0.5,0.0,0.0,0.0,0.0,0.0,0.0,0.25,0.0,0.0,0.95,-0.86,1.58,28.23,-15.1,15.7
11.04,6.5,4.5,7.5,10.5,6.25,5.0,2.25,6.5,6.25,6.25,7.0,4.0,4.0,-0.05,-0.05,1.08,939.27,7.5,4.9,0.5,0.5,0.0,3.0,0.0,0.0,0.0,0.0,0.0,0.0,0.25,0.25,0.0,0.64,-0.17,1.7,40.25,-17.7,50.5
11.06,7.5,5.5,9.0,12.5,8.0,5.75,3.0,6.75,6.25,5.75,7.0,3.0,4.0,-0.11,-0.05,1.08,1340.87,8.4,12.7,0.25,0.0,0.0,0.5,0.0,0.0,0.0,0.0,0.0,0.0,0.75,0.0,0.0,0.33,0.27,2.08,34.16,-16.8,-1.0
11.08,8.25,6.5,9.75,14.0,8.5,6.0,3.25,6.5,5.75,3.5,5.75,2.0,2.75,-0.05,0.02,1.14,1557.64,10.0,23.7,0.0,0.0,0.0,0.5,0.0,0.0,0.0,0.0,0.0,0.0,0.25,0.0,0.0,0.14,0.7,2.58,24.35,-15.1,15.7
11.1,8.75,6.75,10.5,14.0,8.75,5.25,2.5,5.25,2.5,1.75,3.0,1.0,1.75,-0.11,0.08,1.2,1622.58,11.9,38.6,0.0,0.0,0.0,1.0,0.0,0.0,0.25,0.0,0.0,0.0,0.25,0.25,0.0,0.02,1.02,2.89,12.83,-16.1,11.0
11.12,9.25,6.75,11.0,14.0,8.75,3.5,1.0,1.5,1.0,1.0,1.25,0.75,1.5,-0.3,0.2,1.7,1569.14,15.2,51.6,0.0,0.0,0.0,0.5,0.0,0.0,0.0,0.0,0.0,0.0,0.25,0.0,0.0,0.08,1.39,2.89,8.83,-15.1,15.7
11.14,9.25,6.5,10.5,12.5,0.0,2.0,0.25,0.0,0.5,0.25,1.25,0.75,1.5,-0.17,-0.05,2.27,1370.31,21.6,57.4,0.0,0.0,0.0,0.75,0.0,0.0,0.0,0.0,0.0,0.0,0.75,0.0,0.0,-0.05,2.39,2.95,10.16,-14.1,-6.1
11.16,8.5,5.5,10.5,10.5,0.0,0.0,0.25,0.0,0.5,0.25,1.0,0.75,1.5,-0.42,-0.11,1.83,1096.99,24.1,57.5,0.5,0.0,0.0,1.0,0.0,0.0,0.0,0.0,0.0,0.0,0.5,0.0,0.0,-0.55,3.89,2.52,12.32,-19.8,34.9
11.18,6.75,0.0,9.0,7.0,0.0,0.0,0.0,0.0,0.0,0.0,1.0,0.0,1.5,-0.23,-0.05,1.7,755.49,27.1,53.6,0.5,0.5,0.0,2.75,0.0,0.0,0.5,0.0,0.0,0.0,0.75,0.25,0.0,-1.36,5.83,1.83,40.32,-17.7,37.0
11.2,5.25,0.0,5.75,3.0,0.0,0.0,0.25,0.0,0.25,0.25,0.75,0.75,0.5,-0.05,0.58,2.14,465.91,27.9,48.5,0.75,0.5,0.0,2.75,0.0,0.0,0.0,0.0,0.0,0.0,0.5,0.25,0.0,-1.98,6.39,-0.3,63.01,-18.2,46.0
11.22,3.5,0.0,4.0,2.5,0.0,0.0,0.0,0.0,0.25,0.25,0.0,0.75,0.5,-0.05,1.2,2.14,260.61,26.8,47.2,0.75,0.5,0.0,2.25,0.0,0.0,0.0,0.0,0.0,1.5,0.75,0.25,0.0,-1.98,5.33,-0.67,83.72,-9.5,10.0
11.24,2.25,0.0,3.5,2.0,0.0,0.0,0.25,0.0,0.25,0.25,0.75,0.75,1.5,-0.55,0.45,1.39,128.84,21.3,18.8,0.75,0.25,0.0,1.5,0.0,0.0,0.0,0.75,0.5,8.75,3.25,6.0,4.75,-2.55,7.83,-3.42,202.65,2.6,-73.6
11.26,1.5,0.0,2.25,2.0,0.0,0.0,0.25,0.0,0.0,0.25,0.75,0.75,1.25,-0.42,0.45,1.08,14.71,19.0,11.8,1.5,0.75,0.0,4.0,0.0,0.25,0.75,7.0,3.25,9.75,10.5,6.25,8.25,1.64,1.52,5.77,403.68,0.8,-58.7
11.28,0.0,0.0,2.25,1.5,0.0,0.0,0.25,0.0,0.0,0.25,0.25,0.75,0.25,0.14,0.95,2.45,0.0,22.0,16.0,3.25,2.25,2.25,7.25,3.5,4.5,1.5,7.5,4.0,8.5,9.25,4.5,6.0,0.02,-0.17,1.27,708.26,-1.6,-22.5
11.3,0.0,0.0,0.25,0.25,0.0,0.0,0.25,0.0,0.0,0.0,0.0,0.0,0.25,0.14,0.58,2.27,0.0,16.4,6.5,7.25,5.25,8.75,12.5,7.75,6.5,3.0,8.25,5.25,8.5,8.75,4.5,4.0,0.39,0.27,1.08,1205.07,-6.8,5.4
11.32,0.0,0.0,0.5,1.5,0.0,0.0,0.25,0.0,0.0,0.0,0.0,0.0,0.25,-0.17,0.39,2.2,0.0,19.1,39.5,8.25,6.0,10.5,14.5,9.0,7.0,4.5,8.5,5.25,8.0,9.0,4.25,4.0,0.2,0.14,1.08,1575.77,-7.9,10.6
11.34,0.0,0.0,0.0,0.25,0.0,0.0,0.25,0.0,0.0,0.25,0.0,0.0,0.25,-0.36,0.08,2.33,0.0,1.0,-32.2,9.0,6.5,12.5,15.5,9.25,7.0,5.0,8.25,4.75,6.25,8.0,3.0,2.5,0.2,0.08,1.08,1823.01,-9.7,19.7
11.36,0.0,0.0,0.5,0.0,0.0,0.0,0.0,0.0,0.0,0.0,0.0,0.0,0.25,-0.48,-0.17,3.02,0.0,20.9,4.0,9.5,7.0,13.0,16.5,9.25,6.75,4.5,7.0,2.75,3.0,5.0,1.5,1.25,0.14,0.14,1.14,1901.27,-11.7,34.4
11.38,1.25,0.0,0.0,1.25,0.0,0.0,0.25,0.0,0.0,0.25,0.0,0.5,0.25,-0.42,-0.8,2.89,0.0,17.8,25.4,10.5,7.0,13.5,16.0,9.25,5.0,3.0,4.0,1.0,1.5,2.75,0.75,0.25,0.27,0.14,1.27,1849.14,-14.8,48.8
11.4,0.0,0.0,0.25,0.25,0.0,0.0,0.25,0.0,0.0,0.0,0.0,0.0,0.25,-1.05,-1.11,2.14,0.0,16.4,6.5,10.5,6.25,13.5,14.0,8.5,1.25,1.0,1.25,0.75,0.0,1.75,0.25,0.0,0.2,0.14,2.39,1662.66,-19.4,60.4
11.42,0.0,0.0,1.25,0.25,0.0,0.0,0.0,0.0,0.0,0.0,0.0,0.0,0.25,-1.17,-1.36,1.45,0.0,27.8,36.1,9.75,5.75,12.5,11.0,6.5,0.0,0.25,0.25,0.0,0.0,0.5,0.0,0.0,0.27,-0.05,1.89,1406.69,-22.2,68.8
11.44,0.0,0.0,0.75,0.0,0.0,0.0,0.0,0.0,0.0,0.0,0.0,0.0,0.25,-1.17,-1.36,1.2,0.0,25.2,18.2,8.25,3.5,10.5,7.75,3.0,0.0,0.0,0.0,0.0,0.0,0.5,0.0,0.0,0.2,-0.11,1.52,1038.04,-25.2,69.8
11.46,0.0,0.0,0.75,0.0,0.0,0.0,0.0,0.0,0.0,0.25,0.0,0.0,0.25,-1.17,-0.73,1.33,0.0,17.2,0.0,6.75,2.25,8.5,5.5,0.0,0.0,0.0,0.0,0.0,0.0,0.5,0.0,0.0,0.02,0.02,1.52,661.58,-29.1,71.0
11.48,0.0,0.0,0.25,0.25,0.0,0.0,0.0,0.0,0.0,0.25,0.0,0.0,0.25,-0.92,-0.11,1.58,0.0,6.7,-15.8,3.75,0.5,4.75,3.25,0.0,0.0,0.0,0.0,0.0,0.0,0.5,0.25,0.0,-0.05,0.89,2.27,345.53,-29.3,63.2
11.5,0.0,0.0,0.5,0.25,0.0,0.0,0.0,0.0,0.0,0.0,0.0,0.0,0.25,-0.67,0.27,2.02,6.88,20.0,17.6,3.0,0.5,1.75,3.25,0.0,0.0,0.75,1.0,0.25,0.0,0.75,0.25,0.0,-0.23,1.39,2.08,170.18,-21.6,46.0
11.52,0.0,0.0,0.0,1.0,0.0,0.0,0.0,0.0,0.0,0.25,0.0,0.0,1.25,-0.55,0.58,2.39,20.66,-1.3,-38.5,1.75,1.0,0.0,3.0,0.0,0.0,0.25,1.0,0.0,0.0,1.5,0.25,0.0,0.33,0.2,1.2,19.24,-14.9,31.4
11.54,0.0,0.0,0.0,0.5,0.0,0.0,0.25,0.0,0.0,0.25,0.0,0.0,1.25,-0.61,0.77,2.7,30.04,-3.9,-58.0,0.25,0.5,0.0,3.25,0.0,0.0,0.75,1.25,0.25,0.0,0.75,0.25,0.0,0.2,1.33,1.14,0.0,-11.0,20.1
11.56,0.0,0.0,1.0,0.5,0.0,0.0,0.0,0.0,0.0,0.0,0.0,0.0,0.25,-0.67,1.02,3.14,32.82,24.8,35.8,0.75,0.5,0.0,3.0,0.0,0.0,0.25,1.0,0.0,0.0,0.75,0.25,0.0,-0.17,0.89,1.95,0.0,-12.7,28.5
11.58,0.0,0.0,0.25,0.25,0.0,0.0,0.0,0.0,0.0,0.0,0.0,0.0,0.25,-0.36,2.02,3.27,27.89,13.9,3.3,1.75,0.75,0.25,3.0,0.0,0.0,0.75,1.0,0.0,0.0,1.0,0.25,0.0,0.02,0.58,2.2,0.0,-16.5,36.3
11.6,0.0,0.0,1.25,0.0,0.0,0.0,0.0,0.0,0.0,0.0,0.0,0.0,0.25,0.08,3.52,3.02,25.47,29.6,32.5,1.0,0.75,0.0,3.0,0.0,0.0,0.25,1.0,0.25,0.0,1.0,0.25,0.0,0.2,0.08,2.27,0.0,-13.3,27.5
11.62,0.0,0.0,0.75,0.5,0.0,0.0,0.25,0.0,0.0,0.25,0.0,0.0,0.5,0.58,5.2,2.52,25.5,14.4,2.4,1.0,0.5,0.0,3.0,0.0,0.0,0.75,1.0,0.0,0.0,0.75,0.25,0.0,0.33,-0.3,2.58,0.0,-14.1,30.8
11.64,0.5,0.0,1.25,0.0,0.0,0.0,0.0,0.0,0.0,0.25,0.0,0.0,0.25,1.27,7.08,0.89,32.83,25.7,34.0,1.5,0.75,0.0,3.0,0.0,0.0,0.0,0.0,0.0,0.0,0.75,0.25,0.0,0.39,-0.67,3.27,0.0,-19.5,49.8
11.66,0.0,0.0,0.5,0.0,0.0,0.0,0.25,0.0,0.0,0.25,0.0,0.0,0.25,0.7,6.2,-0.55,29.86,14.1,-10.9,0.25,0.0,0.0,0.5,0.0,0.0,0.0,0.0,0.0,0.0,0.25,0.0,0.0,0.52,-1.3,2.77,0.0,-19.8,34.9
11.68,0.0,0.0,0.0,0.25,0.0,0.0,0.0,0.0,0.0,3.75,0.0,3.25,0.0,0.83,7.52,-1.17,64.79,-3.5,-86.0,1.0,0.5,0.0,3.0,0.0,0.0,0.0,0.0,0.0,0.0,0.5,0.25,0.0,0.77,-1.17,1.89,21.82,-18.9,48.9
11.7,0.0,0.0,0.0,0.0,0.0,0.0,0.0,3.25,2.75,7.25,6.25,5.5,7.25,-1.17,1.2,7.77,221.13,-3.8,-82.5,0.5,0.5,0.0,3.0,0.0,0.0,0.0,0.0,0.0,0.0,0.75,0.25,0.0,0.77,-1.23,1.52,39.27,-17.0,38.5
11.72,0.0,0.5,0.0,2.75,0.0,2.25,0.75,5.5,4.5,7.0,7.25,4.5,6.0,0.08,0.02,1.33,375.69,-2.4,-57.1,0.5,0.0,0.0,0.5,0.0,0.0,0.25,0.0,0.0,0.0,1.0,0.0,0.0,0.89,-1.23,1.45,43.3,-19.0,3.0
11.74,3.0,1.75,4.0,7.25,0.0,4.0,1.0,6.25,5.75,7.0,7.0,4.25,5.25,-0.42,0.58,1.33,627.71,4.1,-22.7,1.0,0.5,0.0,3.0,0.5,0.0,0.0,0.0,0.0,0.0,0.75,0.25,0.0,0.95,-0.55,1.64,58.79,-16.4,44.4
11.76,5.75,4.0,7.0,10.5,6.25,5.25,2.0,6.75,6.25,6.75,7.25,4.0,4.5,-0.17,0.02,1.14,984.32,6.5,1.4,0.5,0.5,0.0,2.75,0.0,0.0,0.0,0.0,0.0,0.0,0.75,0.25,0.0,0.77,0.08,1.77,66.38,-17.0,37.5
11.78,7.25,5.5,8.5,12.5,7.75,6.0,3.0,7.0,6.25,6.0,7.0,3.5,4.0,-0.05,0.02,1.02,1350.35,7.9,10.9,1.25,0.5,0.0,3.0,0.0,0.0,0.25,0.0,0.0,0.0,0.75,0.25,0.0,0.45,0.45,2.14,79.51,-19.4,45.3
11.8,8.25,6.5,9.75,14.0,8.5,6.0,3.25,6.5,5.75,3.75,5.75,2.0,2.75,-0.11,0.08,1.08,1555.48,9.9,23.4,0.5,0.5,0.0,3.0,0.0,0.0,0.0,0.0,0.0,0.0,0.75,0.25,0.0,0.39,0.89,2.45,80.22,-17.0,38.5
11.82,8.5,6.75,10.5,14.0,9.0,5.75,2.5,5.5,2.75,1.75,3.0,1.0,1.75,-0.11,0.08,1.2,1628.46,11.5,37.9,0.25,0.0,0.0,0.5,0.0,0.0,0.25,0.0,0.0,0.0,0.25,0.0,0.0,0.27,1.02,2.64,61.76,-21.1,34.1
11.84,9.0,7.0,11.0,14.0,9.0,4.0,1.0,1.5,1.0,1.0,1.5,0.75,1.5,-0.3,0.2,1.64,1581.96,14.7,51.0,0.0,0.0,0.0,0.75,0.0,0.0,0.0,0.0,0.0,0.0,0.75,0.25,0.0,0.33,1.45,3.08,43.04,-13.3,-20.7
11.86,9.25,6.5,10.5,13.0,8.25,2.0,0.25,0.0,0.75,0.5,1.25,0.75,1.5,-0.17,-0.05,2.45,1446.6,17.1,55.7,0.5,0.5,0.0,2.75,0.0,0.0,0.0,0.0,0.0,0.0,0.5,0.25,0.0,0.02,2.52,3.08,44.97,-17.3,43.4
11.88,8.5,5.5,10.5,10.5,0.0,0.0,0.25,0.0,0.5,0.25,1.0,0.75,1.5,-0.42,-0.05,1.77,1181.46,24.1,57.5,0.0,0.0,0.0,0.75,0.0,0.0,0.0,0.0,0.0,0.0,0.25,0.0,0.0,-0.67,3.95,2.64,34.86,-15.6,26.4
11.9,7.75,1.5,8.75,8.0,0.0,0.0,0.25,0.0,0.25,0.25,1.0,0.75,1.5,-0.3,-0.11,1.83,849.12,25.3,51.4,0.5,0.5,0.0,2.75,0.0,0.0,0.0,0.25,0.0,0.0,0.75,0.0,0.0,-1.73,5.7,1.39,51.09,-15.7,41.1
11.92,5.75,0.0,7.25,4.5,0.0,0.0,0.25,0.0,0.25,0.25,0.5,0.0,1.5,-0.23,0.52,2.02,529.38,26.8,50.6,0.5,0.5,0.0,2.75,0.0,0.0,0.25,0.0,0.0,0.0,0.75,0.25,0.0,-1.8,6.95,-0.48,58.65,-17.4,37.2
11.94,3.5,0.0,3.75,3.25,0.0,0.0,0.0,0.0,0.0,0.25,0.75,0.0,1.25,0.02,1.45,2.95,294.36,23.9,42.0,0.75,0.5,0.0,3.0,0.0,0.0,0.0,0.0,0.0,0.0,0.75,0.25,0.0,-1.86,5.45,-0.92,75.3,-17.8,41.1
11.96,2.5,0.0,3.25,2.0,0.0,0.0,0.25,0.0,0.0,0.25,0.5,0.75,1.25,-0.36,0.39,1.64,155.89,22.5,26.1,0.5,0.5,0.0,2.5,0.0,0.0,0.0,0.0,0.0,4.75,0.5,3.0,0.25,-2.61,7.89,1.45,114.98,-1.7,-41.6
11.98,0.25,0.0,1.25,1.5,0.0,0.0,0.25,0.0,0.0,0.25,0.25,0.75,1.5,-0.61,0.14,1.02,14.68,12.1,-15.5,0.0,0.5,0.0,3.0,0.0,0.0,0.0,2.5,2.75,10.5,7.75,7.5,7.0,-0.23,2.08,4.27,283.69,1.5,-70.7
12.0,0.0,0.0,0.0,1.25,0.0,0.0,0.25,0.0,0.0,0.25,0.75,0.5,1.5,0.14,1.02,2.58,0.0,3.0,-49.2,2.0,1.5,0.0,5.5,0.5,2.5,1.25,7.25,4.25,9.25,10.5,5.75,7.5,0.14,0.02,1.89,529.31,0.2,-45.3
12.02,0.25,0.0,1.25,1.5,0.0,0.0,0.25,0.0,0.0,0.25,0.75,0.75,1.5,0.08,0.77,2.27,0.0,12.0,-20.0,5.5,3.5,7.25,10.5,5.5,5.0,2.25,7.75,4.75,8.75,9.25,5.25,5.0,0.33,0.45,1.2,957.51,-5.8,-5.9
12.04,0.0,0.0,1.25,1.75,0.0,0.0,0.25,0.0,0.0,0.25,0.5,0.75,1.25,-0.23,0.39,2.27,0.0,12.4,-15.1,7.5,5.25,9.25,13.0,8.0,6.25,3.25,8.25,5.25,8.5,9.0,4.75,4.25,0.33,0.27,1.2,1399.83,-7.2,5.5
12.06,1.5,0.0,2.25,0.5,0.0,0.0,0.25,0.0,0.0,0.0,0.5,0.0,1.5,-0.48,-0.05,2.39,0.0,21.0,16.5,8.75,6.25,11.5,15.0,8.75,7.0,4.5,8.25,5.25,7.5,8.75,4.0,3.25,0.27,0.08,1.08,1705.79,-8.8,13.9
12.08,0.0,0.0,1.25,0.0,0.0,0.0,0.0,0.0,0.0,0.25,0.0,0.0,0.25,-0.55,-0.42,2.58,0.0,23.3,17.4,9.5,6.5,12.5,15.5,9.0,6.75,5.0,7.5,4.0,5.5,7.5,2.5,2.25,0.27,0.14,1.08,1863.12,-10.4,23.2
12.1,0.0,0.0,0.5,0.0,0.0,0.0,0.0,0.0,0.0,0.25,0.0,0.0,0.25,-0.61,-0.67,2.89,0.0,11.9,-15.4,9.5,7.0,13.5,16.0,9.25,6.0,4.5,6.0,2.0,1.75,4.25,1.0,0.75,0.14,0.08,1.2,1879.41,-13.1,40.5
12.12,0.0,0.0,0.5,0.0,0.0,0.0,0.0,0.0,0.0,0.0,0.0,0.0,0.25,-0.73,-1.36,2.2,0.0,20.9,4.0,10.0,6.5,13.5,15.5,9.0,2.75,2.25,2.75,0.75,1.5,2.0,0.5,0.0,0.33,0.2,1.27,1763.56,-16.6,53.0
12.14,0.5,0.0,0.5,0.0,0.0,0.0,0.0,0.0,0.0,0.0,0.0,0.0,1.25,-1.23,-1.36,1.58,0.0,8.1,-28.3,9.75,5.5,13.5,11.5,7.75,0.5,0.75,1.25,0.75,0.0,2.0,0.25,0.0,0.02,0.02,2.83,1542.38,-20.3,59.4
12.16,0.0,0.0,0.5,0.0,0.0,0.0,0.0,0.0,0.0,0.0,0.0,0.0,0.25,-1.23,-1.3,1.2,0.0,20.9,4.0,8.75,4.0,11.0,9.0,4.25,0.0,0.0,0.0,0.5,0.0,0.5,0.0,0.0,0.14,-0.05,1.89,1227.75,-23.8,68.1
12.18,0.0,0.0,0.5,0.0,0.0,0.0,0.0,0.0,0.0,0.25,0.0,0.0,0.25,-1.11,-0.92,1.39,0.0,11.9,-15.4,7.75,3.0,9.5,6.75,0.25,0.0,0.0,0.0,0.5,0.0,0.5,0.0,0.0,0.08,-0.05,1.52,827.64,-28.0,69.6
12.2,0.0,0.0,1.0,0.0,0.0,0.0,0.0,0.0,0.0,0.0,0.0,0.0,0.25,-0.86,-0.3,1.52,0.0,27.8,26.8,5.5,1.25,7.25,4.5,0.25,0.0,0.0,0.0,0.0,0.0,0.25,0.0,0.0,-0.17,0.33,1.52,484.72,-29.5,70.8
12.22,0.0,0.0,0.5,0.0,0.0,0.0,0.0,0.0,0.0,0.0,0.0,0.0,0.25,-0.55,0.27,2.02,2.5,20.9,4.0,2.5,0.5,3.0,3.0,0.0,0.0,0.0,0.0,0.0,0.0,0.25,0.0,0.0,-0.36,1.45,2.14,243.52,-28.2,67.7
12.24,0.0,0.0,0.0,0.0,0.0,0.0,0.0,0.0,0.0,0.0,0.0,0.0,0.25,-0.48,0.64,2.39,0.0,-13.7,-109.8,0.5,0.0,0.0,1.75,0.0,0.0,0.0,0.0,0.0,0.0,0.5,0.0,0.0,0.08,0.95,1.77,44.55,-19.0,41.4
12.26,0.0,0.0,0.0,0.0,0.0,0.0,0.0,0.0,0.0,0.0,0.0,0.0,0.25,-0.42,0.7,2.7,0.0,-13.7,-109.8,0.5,0.0,0.0,1.75,0.0,0.0,0.0,0.0,0.0,0.0,0.5,0.0,0.0,-0.36,0.14,1.33,0.0,-19.0,41.4
12.28,0.0,0.0,1.25,0.0,0.0,0.0,0.0,0.0,0.0,0.0,0.0,0.0,0.25,-0.42,1.2,3.39,2.91,29.6,32.5,1.0,0.25,0.0,3.0,0.0,0.0,0.25,0.0,0.0,0.0,0.75,0.25,0.0,-0.3,1.02,2.52,0.0,-19.1,40.5
12.3,0.0,0.0,0.5,0.0,0.0,0.0,0.0,0.0,0.0,0.0,0.0,0.0,0.25,-0.42,2.27,3.33,6.57,20.9,4.0,1.5,0.5,0.0,3.0,0.0,0.0,0.75,1.0,0.0,0.0,0.75,0.0,0.0,-0.17,0.58,2.14,0.0,-15.7,40.0
12.32,0.0,0.0,1.0,0.0,0.0,0.0,0.0,0.0,0.0,0.0,0.0,0.0,0.25,-0.05,3.7,3.02,16.31,27.8,26.8,0.75,0.0,0.0,2.0,0.0,0.0,0.5,0.5,0.0,0.0,0.75,0.0,0.0,0.14,0.2,2.08,0.0,-15.9,28.6
12.34,0.0,0.0,0.5,0.0,0.0,0.0,0.0,0.0,0.0,0.0,0.0,0.0,0.25,1.2,5.14,2.64,15.87,20.9,4.0,0.75,0.25,0.0,3.0,0.0,0.0,0.5,0.75,0.25,0.0,0.75,0.25,0.0,0.2,-0.11,2.2,0.0,-14.2,25.6
12.36,0.0,0.0,0.75,0.25,0.0,0.0,0.0,0.0,0.0,0.0,0.0,0.0,0.25,1.52,7.14,0.89,18.17,23.6,26.3,0.5,0.0,0.0,2.5,0.0,0.0,0.75,0.0,0.0,0.0,0.0,0.25,0.0,0.27,-0.3,2.58,0.0,-20.3,48.7
12.38,0.0,0.0,0.25,0.0,0.0,0.0,0.0,0.0,0.0,0.0,0.0,0.0,0.25,0.58,6.64,-0.67,13.61,12.2,-24.4,0.75,0.5,0.0,2.25,0.0,0.0,0.25,0.5,0.0,0.0,0.5,0.0,0.0,0.27,-0.55,2.52,0.0,-15.4,43.4
12.4,0.0,0.0,0.0,0.0,0.0,0.0,0.25,0.0,0.0,0.0,0.0,0.0,1.25,0.83,4.83,0.02,18.9,-9.7,-98.2,1.25,0.5,0.0,3.0,0.0,0.0,0.75,1.0,0.0,0.0,0.75,0.25,0.0,0.58,-0.86,2.33,22.26,-14.8,33.0
12.42,0.0,0.0,0.0,0.0,0.0,0.0,0.0,0.0,0.0,4.0,0.0,2.75,0.0,-0.48,2.08,-1.61,54.16,-5.7,-89.4,0.75,0.5,0.0,3.0,0.0,0.0,0.0,0.0,0.0,0.0,0.5,0.25,0.0,0.89,-0.86,1.7,54.43,-18.1,46.6
12.44,0.0,0.0,1.0,0.0,0.0,0.75,0.0,0.0,3.25,7.75,0.0,5.75,6.75,-1.05,1.77,6.95,184.63,-4.0,-79.4,0.5,0.5,0.0,2.75,0.0,0.0,0.0,0.25,0.0,0.0,0.5,0.25,0.0,0.89,-0.98,1.39,74.85,-15.6,39.2
12.46,0.0,0.75,0.0,3.5,0.0,3.0,1.0,6.25,5.75,7.75,7.75,5.5,6.75,0.14,0.14,1.45,373.08,-2.1,-54.4,1.0,0.5,0.0,3.0,0.0,0.0,0.0,0.0,0.0,0.0,0.5,0.25,0.0,1.02,-0.86,1.14,87.48,-18.9,48.9
12.48,3.0,2.75,5.5,7.75,3.75,4.25,1.0,7.0,6.5,7.75,8.0,5.5,6.0,-0.11,0.27,1.08,711.91,4.1,-17.6,0.5,0.5,0.0,2.75,0.0,0.0,0.0,0.0,0.0,0.0,0.5,0.25,0.0,0.83,-0.3,1.27,87.85,-17.3,43.4
12.5,5.75,4.25,7.25,10.5,6.25,5.25,2.25,7.25,6.75,7.0,8.0,4.75,5.5,-0.05,-0.05,1.14,1128.31,6.3,-1.9,1.0,0.5,0.0,2.75,0.0,0.0,0.0,0.25,0.0,0.0,0.5,0.25,0.0,0.52,0.14,1.64,85.13,-17.3,44.3
12.52,7.0,5.5,8.5,12.0,8.0,6.0,2.75,7.25,6.5,6.25,7.5,4.0,4.5,0.02,0.02,1.08,1455.36,7.5,8.1,2.0,0.5,0.0,2.75,0.0,0.0,0.25,0.0,0.0,0.0,0.5,0.25,0.0,0.45,0.58,1.89,89.03,-21.6,55.6
12.54,8.0,6.5,9.25,13.5,8.5,6.5,2.5,7.0,5.75,3.75,5.75,2.0,3.0,-0.11,0.02,1.08,1623.2,9.1,22.0,0.75,0.5,0.0,2.75,0.0,0.0,0.25,0.0,0.0,0.0,0.75,0.25,0.0,0.45,0.89,2.14,90.36,-18.2,39.9
12.56,8.25,7.0,9.75,14.0,9.0,6.0,2.0,6.0,3.0,1.75,3.0,1.25,2.25,-0.17,0.08,1.2,1662.8,10.6,35.4,0.5,0.5,0.0,2.75,0.0,0.0,0.0,0.0,0.0,0.0,0.5,0.25,0.0,0.45,1.39,2.39,88.42,-17.3,43.4
12.58,8.5,7.25,10.5,14.0,9.0,4.75,1.0,2.75,0.75,1.25,1.5,0.75,1.5,-0.23,0.14,1.52,1599.25,13.2,48.7,0.75,0.5,0.0,3.0,0.0,0.0,0.0,0.0,0.0,0.0,0.5,0.25,0.0,0.39,1.95,2.58,85.26,-18.1,46.6
12.6,8.75,6.5,9.75,12.5,8.5,2.75,0.25,0.25,0.5,0.5,1.25,0.75,1.5,-0.23,-0.05,2.7,1454.99,15.9,55.0,0.75,0.5,0.0,2.75,0.0,0.0,0.0,0.0,0.0,0.0,0.5,0.25,0.0,-0.05,2.89,2.64,83.35,-18.2,46.0
12.62,8.25,5.75,9.75,10.5,0.0,2.0,0.0,0.0,0.5,0.25,1.0,0.75,1.5,-0.48,0.02,1.83,1196.03,21.5,56.5,1.0,0.5,0.0,2.75,0.0,0.0,0.0,0.0,0.0,0.0,0.5,0.25,0.0,-0.98,4.02,2.45,81.64,-18.9,48.4
12.64,7.5,4.5,8.25,6.5,0.0,0.0,0.0,0.0,0.25,0.25,0.75,0.75,1.5,-0.3,-0.05,1.89,856.44,24.2,56.5,0.75,0.5,0.0,2.75,0.0,0.0,0.0,0.0,0.0,0.0,0.5,0.25,0.0,-2.8,5.7,1.77,80.27,-18.2,46.0
12.66,5.5,0.0,6.0,4.5,0.0,0.0,0.25,0.0,0.25,0.25,0.75,0.25,1.5,-0.23,0.58,2.2,524.73,25.5,45.6,0.5,0.5,0.0,3.0,0.0,0.0,0.0,0.0,0.0,0.0,0.5,0.25,0.0,-1.55,5.58,-0.17,82.1,-17.3,44.2
12.68,3.25,0.0,4.5,2.5,0.0,0.0,0.25,0.0,0.25,0.25,0.5,0.0,1.5,-0.48,1.45,1.95,288.11,24.4,38.6,1.0,0.75,0.0,3.0,0.0,0.0,0.0,0.0,0.0,0.0,0.75,0.25,0.0,-1.98,4.27,-0.42,86.42,-18.2,45.9
12.7,0.0,0.0,3.75,1.5,0.0,0.0,0.25,0.0,0.0,0.25,0.75,0.0,1.5,-0.55,0.39,1.45,122.59,20.0,10.7,0.75,0.5,0.0,2.75,0.0,0.0,0.0,0.0,0.0,1.5,1.0,0.25,0.0,-1.86,3.2,-0.05,94.19,-10.2,10.6
12.72,1.25,0.0,3.0,0.5,0.0,0.0,0.25,0.0,0.0,0.25,0.75,0.25,1.5,-0.3,0.08,1.08,0.0,20.4,8.5,0.0,0.5,0.0,3.0,0.0,0.0,0.0,0.0,0.75,8.75,2.75,6.0,2.25,1.89,-3.48,-4.05,189.94,0.7,-65.0
12.74,0.0,0.0,2.5,1.25,0.0,0.0,0.25,0.0,0.0,0.25,0.75,0.5,1.5,0.27,0.77,2.64,0.0,15.9,-8.8,1.25,0.5,0.0,3.25,0.0,0.0,0.25,6.75,4.0,10.5,11.0,7.25,8.5,0.33,3.14,7.45,394.21,1.1,-64.1
12.76,0.0,0.0,2.5,1.25,0.0,0.0,0.25,0.0,0.0,0.25,0.75,0.5,1.5,0.14,0.45,2.2,0.0,15.9,-8.8,3.0,1.25,2.0,6.25,1.75,2.5,1.75,8.25,5.25,10.0,11.0,6.0,7.0,-0.11,-0.23,0.7,710.47,-1.6,-36.9
12.78,0.0,0.0,2.75,1.0,0.0,0.0,0.25,0.0,0.0,0.5,0.5,0.5,1.25,-0.05,0.02,2.08,0.0,16.9,-4.9,5.5,3.5,7.5,10.5,5.5,5.0,3.25,8.5,5.5,9.5,10.5,6.0,6.0,0.08,0.2,1.08,1160.66,-5.6,-9.8
12.8,0.0,0.0,2.25,0.5,0.0,0.0,0.0,0.0,0.0,0.25,0.0,0.0,1.25,-0.23,-0.23,1.95,0.0,17.4,2.5,7.5,4.75,9.25,12.5,7.5,6.25,4.5,8.75,5.5,8.75,9.75,5.5,5.0,0.2,0.14,1.02,1512.1,-7.0,1.5
12.82,0.0,0.0,0.0,0.75,0.0,0.0,0.25,0.0,0.0,0.25,0.0,0.0,1.5,-0.3,-0.3,1.95,0.0,-2.8,-51.7,8.25,6.0,11.0,15.0,8.0,6.5,5.25,8.75,5.25,7.5,8.75,4.25,3.75,0.2,0.08,1.08,1755.49,-8.6,11.4
12.84,0.25,0.0,0.0,1.0,0.0,0.0,0.25,0.0,0.0,0.25,0.0,0.0,1.25,-0.55,-0.42,2.2,0.0,2.8,-25.0,8.75,6.25,12.5,16.0,8.75,6.25,5.5,7.5,4.0,4.5,7.0,1.75,2.0,0.14,0.08,1.02,1859.56,-10.9,25.6
12.86,0.75,0.0,1.0,0.5,0.0,0.0,0.25,0.0,0.0,0.25,0.0,0.0,1.25,-0.48,-0.92,2.08,0.0,14.1,1.1,9.5,6.5,13.0,15.5,8.5,5.0,4.5,5.25,1.5,1.5,3.0,0.75,0.5,0.14,0.14,1.2,1821.62,-14.1,44.4
12.88,0.75,0.0,1.0,0.5,0.0,0.0,0.25,0.0,0.0,0.25,0.0,0.0,1.25,-1.17,-0.86,1.77,4.11,14.1,1.1,9.5,6.25,13.5,15.0,8.0,2.5,2.0,2.5,0.75,1.25,2.0,0.5,0.0,0.33,0.27,1.77,1678.58,-17.2,53.4
12.9,0.75,0.0,0.0,0.5,0.0,0.0,0.0,0.0,0.0,0.25,0.0,0.0,0.25,-1.73,-0.98,1.14,17.63,15.0,29.8,8.75,5.0,12.5,12.5,6.5,0.0,0.25,1.0,0.75,0.0,1.25,0.25,0.0,0.2,0.02,2.02,1438.3,-21.0,61.2
12.92,0.75,0.0,0.0,0.5,0.0,0.0,0.25,0.0,0.0,0.0,0.0,0.0,1.25,-1.61,-0.73,1.14,25.3,7.5,-14.9,8.0,3.5,10.5,8.5,2.5,0.0,0.25,0.75,0.0,0.0,0.75,0.25,0.0,0.27,-0.05,1.77,1084.37,-24.3,65.0
12.94,0.0,0.0,1.5,0.25,0.0,0.0,0.0,0.0,0.0,0.0,0.0,0.0,0.25,-1.3,-0.3,1.27,24.65,29.1,39.2,6.25,2.25,8.5,5.5,0.0,0.0,0.25,0.0,0.0,0.0,0.5,0.0,0.0,0.08,0.02,1.58,687.73,-29.0,70.2
12.96,0.0,0.0,1.75,0.25,0.0,0.0,0.0,0.0,0.0,0.0,0.0,0.0,0.25,-0.98,0.08,1.7,24.82,30.1,41.6,3.25,0.5,5.0,4.0,0.0,0.0,0.0,0.0,0.0,0.0,0.5,0.0,0.0,-0.23,1.08,2.14,361.53,-28.9,64.9
12.98,0.0,0.0,2.0,0.25,0.0,0.0,0.0,0.0,0.0,0.0,0.0,0.0,0.25,-0.73,0.33,1.95,27.95,30.9,43.6,2.0,0.5,1.75,3.0,0.0,0.0,0.0,0.0,0.0,0.0,0.75,0.25,0.0,-0.11,1.52,2.2,163.36,-24.6,53.4
13.0,0.0,0.0,2.0,0.0,0.0,0.0,0.0,0.0,0.0,0.0,0.0,0.0,0.25,-0.61,0.64,2.08,31.57,32.5,42.0,1.5,0.0,0.75,1.75,0.0,0.0,0.75,0.0,0.0,0.0,0.25,0.0,0.0,-0.05,0.33,1.08,0.0,-26.9,61.1
13.02,0.0,0.0,2.0,0.0,0.0,0.0,0.0,0.0,0.0,0.0,0.0,0.0,0.25,-0.61,0.7,2.33,34.35,32.5,42.0,0.5,0.0,0.0,0.75,0.0,0.0,0.0,0.0,0.0,0.0,0.5,0.0,0.0,-0.73,0.7,1.7,0.0,-20.2,31.4
13.04,0.0,0.0,2.0,0.0,0.0,0.0,0.0,0.0,0.0,0.0,0.0,0.0,0.25,-0.67,1.02,2.95,36.91,32.5,42.0,0.5,0.0,0.0,0.75,0.0,0.0,0.0,0.0,0.0,0.0,0.5,0.0,0.0,-0.23,0.83,2.14,0.0,-20.2,31.4
13.06,0.0,0.0,2.0,0.0,0.0,0.0,0.0,0.0,0.0,0.0,0.0,0.0,0.25,-0.42,2.08,3.08,38.03,32.5,42.0,0.5,0.0,0.0,0.75,0.0,0.0,0.0,0.0,0.0,0.0,0.25,0.0,0.0,0.02,0.58,2.08,0.0,-21.7,48.7
13.08,0.0,0.0,2.0,0.0,0.0,0.0,0.0,0.0,0.0,0.0,0.0,0.0,0.25,0.14,3.83,2.83,37.53,32.5,42.0,1.25,0.5,0.0,3.0,0.0,0.0,0.25,1.0,0.0,0.0,1.0,0.0,0.0,0.2,0.27,2.2,0.0,-14.3,34.5
13.1,0.0,0.0,2.0,0.0,0.0,0.0,0.0,0.0,0.0,0.0,0.0,0.0,0.25,0.64,5.7,2.14,37.57,32.5,42.0,0.5,0.0,0.0,1.25,0.0,0.0,0.0,0.0,0.0,0.0,0.25,0.0,0.0,0.33,-0.05,2.39,0.0,-20.5,51.1
13.12,0.0,0.0,2.25,0.0,0.0,0.0,0.25,0.0,0.0,0.0,0.0,0.0,0.5,0.77,6.83,-0.3,42.22,28.9,29.8,0.5,0.0,0.0,0.75,0.0,0.0,0.0,0.0,0.0,0.0,0.25,0.0,0.0,0.45,-0.17,2.77,0.0,-21.7,48.7
13.14,0.75,0.0,2.0,0.0,0.0,0.0,0.0,0.0,0.0,0.25,0.0,0.0,0.25,0.64,5.89,0.02,48.97,29.3,44.9,1.0,0.5,0.0,3.0,0.0,0.0,0.0,0.0,0.0,0.0,0.5,0.0,0.0,0.45,-0.86,2.64,0.0,-19.3,56.7
13.16,0.0,0.0,2.25,0.0,0.0,0.0,0.0,0.0,0.0,0.0,0.0,0.0,0.25,1.02,4.45,0.2,49.24,33.1,43.9,0.0,0.0,0.0,1.25,0.0,0.0,0.0,0.0,0.0,0.0,0.0,0.0,0.0,0.89,-1.05,1.83,0.0,-17.2,57.9
13.18,0.0,0.0,1.0,0.0,0.0,0.0,0.0,0.0,1.5,7.75,1.75,5.25,4.0,0.95,2.89,1.27,153.72,-2.6,-81.4,0.0,0.0,0.0,0.5,0.0,0.0,0.0,0.0,0.0,0.0,0.0,0.0,0.0,1.02,-1.3,1.33,0.0,-17.2,57.9
13.2,0.0,0.0,0.0,2.5,0.0,2.0,0.5,6.0,4.5,7.75,7.75,5.5,7.25,-0.23,1.77,5.2,323.31,-3.0,-63.5,1.0,0.5,0.0,2.75,0.0,0.0,0.25,0.0,0.0,0.0,0.75,0.25,0.0,0.95,-1.3,1.27,31.62,-18.9,42.4
13.22,3.0,2.75,3.75,7.75,0.0,4.0,0.5,6.5,5.75,7.0,7.5,4.75,6.0,-0.11,0.08,1.14,589.05,3.8,-22.8,0.0,0.0,0.0,1.0,0.0,0.0,0.0,0.0,0.0,0.0,0.5,0.0,0.0,0.89,-0.73,1.33,36.59,-15.1,15.7
