time,left pressure 0[N/cm²],left pressure 1[N/cm²],left pressure 2[N/cm²],left pressure 3[N/cm²],left pressure 4[N/cm²],left pressure 5[N/cm²],left pressure 6[N/cm²],left pressure 7[N/cm²],left pressure 8[N/cm²],left pressure 9[N/cm²],left pressure 10[N/cm²],left pressure 11[N/cm²],left pressure 12[N/cm²],left acceleration X[g],left acceleration Y[g],left acceleration Z[g],left total force[N],left center of pressure X[mm],left center of pressure Y[mm],right pressure 0[N/cm²],right pressure 1[N/cm²],right pressure 2[N/cm²],right pressure 3[N/cm²],right pressure 4[N/cm²],right pressure 5[N/cm²],right pressure 6[N/cm²],right pressure 7[N/cm²],right pressure 8[N/cm²],right pressure 9[N/cm²],right pressure 10[N/cm²],right pressure 11[N/cm²],right pressure 12[N/cm²],right acceleration X[g],right acceleration Y[g],right acceleration Z[g],right total force[N],right center of pressure X[mm],right center of pressure Y[mm]
0.02,6.5,3.25,7.0,11.0,7.0,1.5,2.75,1.75,2.5,0.25,2.0,1.0,0.5,-0.23,0.52,3.95,694.42,15.6,43.8,5.5,3.75,11.0,14.0,8.25,3.5,3.5,1.0,0.75,1.5,0.75,0.0,0.0,0.08,0.14,1.02,915.63,-15.6,53.4
0.04,6.75,3.25,7.25,11.5,7.0,1.5,3.0,1.75,2.0,0.25,1.75,0.75,0.5,-0.36,0.58,4.08,744.76,15.9,46.6,5.75,3.0,11.5,12.5,8.0,2.25,2.75,1.0,0.5,1.0,0.25,0.0,0.5,0.08,0.14,1.58,917.96,-16.9,54.8
0.06,6.75,3.25,7.25,11.5,7.25,1.0,2.75,1.75,1.5,0.0,1.0,0.5,0.5,-0.92,0.89,4.64,769.56,16.5,51.2,5.75,2.25,10.5,11.0,6.5,0.0,1.25,0.5,0.5,1.5,0.25,0.25,0.25,0.2,0.2,1.64,844.65,-19.3,54.9
0.08,7.25,3.0,7.5,11.5,7.0,0.0,0.75,1.75,1.25,0.0,0.75,0.25,0.5,-0.67,0.27,7.52,758.02,17.6,54.6,4.5,2.25,9.75,8.75,6.5,0.0,1.0,1.0,0.25,0.0,0.5,0.0,0.0,0.2,0.2,1.83,721.85,-19.7,59.6
0.1,7.25,2.75,7.25,10.0,5.75,0.0,1.0,1.5,1.25,0.0,0.75,0.5,0.5,-0.98,0.45,6.89,714.22,18.5,53.7,3.0,1.25,8.75,5.5,4.25,0.0,0.5,0.75,0.25,0.0,0.25,0.0,0.25,0.14,0.14,1.7,555.29,-21.1,57.5
0.12,7.0,2.0,6.5,8.0,3.5,0.0,0.0,1.5,1.25,0.0,1.0,0.5,0.5,-1.17,0.14,7.95,622.03,19.7,51.3,2.0,1.5,7.0,5.25,1.0,0.0,0.5,0.5,0.25,0.5,0.25,0.25,0.0,0.27,0.14,1.83,390.83,-23.4,54.5
0.14,5.75,1.5,5.5,6.75,0.75,0.0,0.0,1.5,1.0,0.0,0.75,0.25,0.5,-1.61,1.2,7.58,492.78,21.7,50.8,0.0,0.75,5.5,3.25,0.5,1.25,0.5,0.5,0.25,0.0,0.5,0.25,0.25,0.14,-0.42,1.52,267.61,-19.3,42.4
0.16,4.25,0.75,3.5,4.25,0.0,0.0,0.25,1.25,1.0,0.0,0.75,0.0,0.5,-1.61,-0.11,5.77,353.0,21.8,45.6,0.0,0.5,4.25,2.0,0.25,0.0,0.5,0.5,0.0,1.25,0.25,0.25,0.25,1.02,-2.55,-1.17,169.47,-18.9,27.3
0.18,2.0,0.0,2.0,1.5,0.0,0.0,0.25,1.5,0.75,0.0,1.0,0.25,0.5,-1.11,-5.36,0.95,236.14,17.1,16.5,0.0,0.5,3.0,1.5,0.25,1.0,0.5,0.5,0.25,0.75,0.25,0.5,0.25,0.95,-1.42,1.08,86.21,-13.4,21.6
0.2,1.25,0.5,1.75,2.5,0.0,0.0,0.5,1.5,0.75,0.0,1.0,0.25,0.5,-5.73,-7.98,-1.3,145.16,15.3,18.3,0.0,0.5,3.0,1.75,0.0,1.5,0.25,0.5,0.25,0.75,0.25,0.25,0.25,0.52,-1.17,0.02,35.8,-12.1,25.7
0.22,2.0,0.5,1.5,2.5,0.0,0.0,0.5,1.5,1.25,0.0,1.0,0.0,0.5,-4.17,-7.98,2.83,85.22,16.0,22.8,0.0,0.5,2.75,1.75,0.0,1.25,0.25,0.5,0.25,1.0,0.25,0.25,0.25,0.14,-0.61,0.14,14.02,-11.5,21.7
0.24,1.25,0.5,1.25,2.25,0.0,0.0,0.5,1.5,1.0,0.0,0.75,0.5,0.5,-0.73,-3.11,0.52,54.71,13.9,12.7,0.0,0.5,2.75,1.5,0.0,2.0,0.25,0.25,0.25,0.5,0.25,0.25,0.25,0.2,-0.42,0.7,11.07,-10.9,29.0
0.26,1.25,0.5,1.0,1.5,0.0,0.0,0.5,1.25,1.0,0.0,1.0,0.25,0.5,-1.23,-2.48,1.64,36.42,13.9,9.6,0.0,0.5,2.75,1.75,0.0,1.75,0.25,0.5,0.25,1.25,0.25,0.25,0.0,0.2,-0.05,0.7,25.88,-9.7,23.3
0.28,1.25,0.25,1.0,2.0,0.0,0.0,0.5,1.0,1.0,0.0,0.25,0.25,0.5,-1.61,-1.42,2.58,28.94,15.4,19.4,0.0,0.5,2.75,1.25,0.0,1.75,0.25,0.25,0.25,0.0,0.25,0.25,0.25,0.08,0.27,0.64,40.93,-13.5,34.6
0.3,1.25,0.25,0.5,1.5,0.0,0.0,0.5,1.5,1.0,0.0,1.0,0.0,0.5,-0.92,-0.48,2.58,27.93,11.5,5.5,0.0,0.5,2.75,1.5,0.0,2.0,0.25,0.25,0.25,0.25,0.25,0.25,0.25,-0.05,0.33,1.08,63.77,-11.7,32.1
0.32,0.75,0.5,0.75,1.75,0.0,0.0,0.25,1.5,1.0,0.0,0.75,0.25,0.25,-0.36,1.27,1.89,35.75,11.6,9.0,0.0,0.5,2.75,1.75,0.0,1.5,0.25,0.0,0.25,0.25,0.25,0.25,0.25,-0.17,0.39,1.39,81.03,-14.8,35.0
0.34,1.0,0.25,1.0,0.75,0.0,0.0,0.5,1.5,1.0,0.0,0.0,0.0,0.5,-0.11,2.52,3.45,45.27,12.2,12.6,0.5,0.75,2.75,0.5,0.0,2.0,0.25,0.25,0.25,0.0,0.25,0.25,0.25,-0.11,0.89,1.39,99.58,-13.2,38.2
0.36,1.0,0.25,0.5,0.75,0.0,0.0,0.25,1.0,1.0,0.0,0.25,0.0,0.5,0.33,2.7,7.02,54.26,11.9,8.4,0.0,0.5,2.5,0.5,0.0,2.0,0.25,0.25,0.25,0.0,0.25,0.25,0.25,-0.17,1.2,1.58,104.82,-10.9,31.0
0.38,0.75,0.5,0.5,0.75,0.0,0.0,0.25,0.75,1.0,0.0,0.5,0.0,0.5,0.77,4.64,7.77,61.78,12.2,7.3,0.0,0.5,2.75,0.25,0.0,1.5,0.25,0.0,0.25,0.75,0.25,0.25,0.25,-0.48,1.58,1.58,107.77,-12.1,21.8
0.4,0.5,0.5,0.5,0.5,0.0,0.0,0.25,0.75,1.0,0.0,0.75,0.0,0.5,1.14,7.89,7.33,66.1,10.8,-3.2,0.0,0.5,2.75,0.5,0.0,1.5,0.25,0.0,0.25,0.0,0.25,0.25,0.25,-0.73,1.89,1.2,104.37,-15.5,34.7
0.42,0.0,0.5,0.5,0.5,0.0,0.0,0.25,0.0,1.0,0.0,0.5,0.0,0.5,2.39,7.95,5.2,60.02,13.4,-4.1,0.0,0.5,2.5,0.25,0.0,1.75,0.25,0.0,0.25,0.25,0.25,0.25,0.0,-0.73,2.08,0.52,99.01,-13.0,34.1
0.44,0.0,0.0,0.25,0.75,0.0,0.0,0.25,0.25,1.0,0.0,0.25,0.0,0.5,2.89,7.95,3.52,47.34,9.7,-18.4,0.0,0.5,2.75,0.25,0.0,1.25,0.25,0.0,0.25,0.0,0.25,0.0,0.25,-0.61,2.08,0.27,92.74,-17.4,40.0
0.46,0.0,0.25,0.25,0.5,0.0,0.0,0.25,0.0,1.0,0.0,0.5,0.0,0.5,1.95,7.95,2.08,38.36,11.5,-17.9,0.0,0.5,2.25,0.5,0.0,1.0,0.25,0.0,0.25,0.0,0.25,0.25,0.25,-0.42,1.95,-0.11,87.28,-16.7,32.2
0.48,0.0,0.25,0.25,0.5,0.0,0.0,0.25,0.5,1.0,0.0,0.5,0.0,0.5,0.7,6.77,0.27,37.25,7.6,-20.7,0.0,0.5,2.75,0.25,0.0,1.25,0.25,0.0,0.25,0.25,0.25,0.0,0.25,-0.48,1.89,-0.3,85.99,-15.9,35.1
0.5,0.0,0.0,0.0,0.5,0.0,0.0,0.25,0.25,0.75,0.0,0.75,0.25,0.5,1.08,5.95,0.45,36.81,6.6,-45.8,0.0,0.5,2.5,0.75,0.0,1.75,0.0,0.0,0.25,0.0,0.25,0.25,0.5,-0.86,1.7,0.02,90.68,-12.0,29.2
0.52,0.0,0.25,0.0,0.5,0.0,0.0,0.25,0.25,1.0,0.0,0.75,0.0,0.5,2.39,5.52,0.95,38.69,7.3,-29.5,0.0,0.5,2.25,0.25,0.0,1.25,0.25,0.0,0.25,0.25,0.25,0.25,0.25,-0.8,1.45,0.33,91.27,-13.6,26.3
0.54,0.0,0.0,0.0,0.5,0.0,0.0,0.25,0.0,1.0,0.0,0.75,0.0,0.5,2.7,5.45,1.52,37.9,8.9,-40.3,0.0,0.5,2.5,0.25,0.0,1.0,0.25,0.0,0.25,0.0,0.25,0.0,0.0,-0.36,1.39,0.39,87.21,-19.8,47.0
0.56,0.0,0.0,0.0,0.5,0.0,0.0,0.0,0.0,0.75,0.0,0.0,0.25,0.0,1.45,5.39,1.52,30.24,13.3,-16.8,0.0,0.5,1.75,2.0,0.5,2.0,0.0,0.0,0.25,0.0,0.0,0.0,0.0,-0.48,-3.05,1.58,95.29,-9.7,51.6
0.58,0.0,0.0,0.0,0.75,0.0,0.0,0.0,0.0,0.5,0.0,0.0,0.25,0.5,0.02,5.27,1.64,26.44,7.1,-28.1,0.25,0.5,2.0,3.0,4.25,0.0,0.0,0.0,0.0,0.0,0.25,0.25,0.25,1.33,1.27,-2.55,127.66,-11.4,49.1
0.6,0.0,0.0,0.0,0.75,0.0,0.0,0.0,0.0,0.0,0.0,0.0,0.0,0.0,-0.55,6.95,7.95,17.43,17.2,57.9,0.5,0.5,0.0,5.25,6.75,4.5,0.25,0.0,0.25,0.0,0.25,0.0,0.25,0.02,-0.11,1.2,195.78,0.0,47.6
0.62,0.0,0.0,0.0,4.0,0.0,0.0,0.0,0.0,0.25,0.0,0.0,0.0,0.0,-1.98,-0.17,7.95,33.84,16.9,52.5,0.5,0.75,2.75,4.5,6.75,4.5,0.25,1.0,0.25,1.5,0.25,0.25,0.0,0.08,0.39,1.45,267.91,-2.6,38.2
0.64,1.5,0.5,0.0,6.0,0.0,0.0,0.0,0.0,0.5,0.0,0.0,0.0,0.0,-0.23,0.52,7.89,75.3,19.5,61.3,1.25,0.75,3.25,4.75,6.5,5.5,0.5,2.5,1.75,6.75,0.75,2.25,0.75,-0.17,-0.3,1.02,382.27,-0.4,5.5
0.66,0.0,0.0,1.25,0.0,0.0,0.25,0.0,0.5,0.5,0.0,0.0,0.5,0.5,-1.67,0.83,7.7,83.67,11.0,-17.8,1.75,1.0,4.75,5.25,6.25,5.0,1.0,5.25,2.25,7.0,7.25,3.25,3.5,-0.11,0.02,1.14,580.34,-2.2,-12.2
0.68,4.5,1.75,3.75,9.25,5.75,1.75,1.75,3.5,4.25,2.0,2.5,1.75,0.5,-0.42,1.83,5.08,267.25,10.3,21.8,1.25,1.25,5.25,5.5,6.5,5.5,1.0,5.25,2.25,6.25,5.75,2.5,3.5,0.08,0.08,0.95,753.48,-2.0,-6.7
0.7,4.5,1.75,4.75,9.5,6.0,2.0,2.5,4.75,4.5,2.0,5.0,1.25,0.75,0.08,-0.05,4.45,459.2,10.1,17.1,1.25,1.75,5.5,7.0,6.75,5.75,1.25,4.5,2.0,5.5,4.75,2.25,2.75,0.14,0.14,0.89,876.04,-3.2,2.1
0.72,5.75,2.0,5.25,10.5,6.5,2.25,2.25,4.25,3.75,0.25,3.5,1.0,0.5,-0.23,0.39,3.83,696.53,12.1,30.4,1.25,2.25,5.5,7.25,6.75,5.75,1.25,4.5,2.25,5.5,4.75,2.0,2.5,0.2,0.14,0.95,936.82,-3.5,4.3
0.74,5.75,2.75,5.5,11.0,7.0,2.25,2.5,3.5,3.5,0.25,2.75,1.0,0.5,-0.61,0.52,3.77,845.89,12.7,35.3,1.25,2.25,5.5,7.25,6.75,5.75,1.25,4.25,2.25,5.5,4.75,2.25,2.5,0.08,0.14,0.95,957.68,-3.6,3.9
0.76,6.25,3.25,6.25,11.0,7.0,2.25,2.75,3.5,3.5,0.25,2.0,1.0,0.5,-0.3,0.45,3.83,943.06,13.3,38.6,1.25,2.0,5.75,7.25,6.75,5.75,1.25,4.25,2.5,5.5,4.75,2.25,2.5,0.08,0.08,0.95,955.32,-3.8,3.5
0.78,6.0,2.75,6.25,10.5,7.0,2.0,2.75,3.0,3.5,0.25,2.0,1.0,0.5,-0.23,0.45,3.89,951.87,13.7,38.2,1.25,1.5,5.5,7.0,6.75,5.5,1.25,4.25,2.25,5.5,4.75,2.5,2.5,0.08,0.14,0.95,935.21,-3.6,1.5
0.8,5.75,2.5,6.25,10.5,7.0,1.5,2.75,3.0,3.5,0.25,2.0,1.0,0.5,-0.3,0.39,3.83,938.93,14.0,37.6,1.25,1.5,5.5,7.0,6.75,5.0,1.25,4.0,2.25,5.5,4.75,2.5,2.5,0.08,0.14,0.95,899.58,-3.9,1.4
0.82,5.75,1.75,6.25,9.75,5.75,1.5,2.5,2.75,3.25,0.25,2.25,1.0,0.5,-0.3,0.45,3.83,894.6,14.6,35.9,1.0,1.25,5.5,6.25,6.5,4.5,1.0,4.0,2.25,5.5,5.0,2.5,2.5,0.08,0.08,0.95,839.88,-3.8,-1.5
0.84,5.75,1.75,5.5,9.25,5.75,1.0,2.25,2.5,3.25,0.25,2.25,1.0,0.5,-0.3,0.45,3.83,824.32,14.7,35.7,0.5,1.25,5.25,5.5,6.5,4.5,1.0,4.0,2.25,5.5,4.75,2.5,2.5,0.08,0.08,0.95,772.44,-3.0,-3.4
0.86,4.75,1.75,5.5,9.25,5.75,0.75,2.0,2.5,3.0,0.25,2.0,1.0,0.5,-0.3,0.45,3.83,738.54,14.5,35.4,0.5,1.25,5.25,5.5,6.5,4.5,1.0,4.0,2.25,5.5,4.75,2.5,2.5,0.08,0.08,0.95,716.38,-3.0,-3.4
0.88,4.5,1.75,5.25,9.0,5.75,0.75,2.0,2.5,2.5,0.25,1.75,1.0,0.5,-0.3,0.45,3.83,659.04,14.2,36.3,0.5,0.75,5.25,5.25,6.0,4.5,1.0,4.0,2.25,5.5,5.0,2.5,2.5,0.08,0.08,0.95,663.44,-2.9,-6.1
0.9,4.5,1.5,5.25,8.25,5.25,0.75,1.75,2.0,2.5,0.25,1.75,1.0,0.5,-0.36,0.45,3.83,579.37,14.8,36.2,0.25,1.0,4.75,5.25,5.75,4.0,1.0,4.0,2.25,5.75,5.0,2.5,2.5,0.08,0.08,0.95,625.32,-2.6,-8.0
0.92,4.5,1.25,4.75,8.0,5.0,0.75,1.75,1.75,2.5,0.25,1.75,1.0,0.5,-0.3,0.52,3.83,492.41,14.9,35.6,0.25,1.0,4.75,5.25,5.5,4.0,1.0,4.0,2.25,5.5,5.25,2.5,2.75,0.08,0.08,0.95,609.06,-2.7,-9.0
0.94,4.5,1.0,4.25,8.0,4.75,0.75,1.75,1.75,2.5,0.25,1.75,1.0,0.5,-0.36,0.45,3.77,452.58,14.7,34.5,0.5,0.75,5.0,5.25,5.5,3.75,1.0,4.0,2.25,5.75,5.75,2.5,2.75,0.08,0.08,0.95,602.72,-3.1,-9.9
0.96,4.5,0.75,3.75,7.0,3.5,0.75,1.25,2.25,2.5,0.25,2.0,1.0,0.5,-0.36,0.52,3.83,412.83,14.4,29.7,0.5,1.25,4.75,5.5,5.75,3.75,1.25,4.0,2.25,5.0,5.5,2.5,2.5,0.08,0.08,0.95,601.08,-3.5,-6.1
0.98,4.25,0.5,3.5,6.75,3.25,0.75,1.5,2.25,2.75,0.25,2.75,1.0,0.5,-0.3,0.39,3.89,385.59,14.1,24.7,0.5,1.25,5.0,5.5,5.25,4.0,1.5,3.75,2.25,5.0,4.75,2.5,2.5,0.08,0.08,0.95,599.34,-3.8,-4.9
1.0,4.25,0.5,3.0,6.75,3.25,0.5,1.5,2.5,3.0,0.25,2.75,1.0,0.5,-0.36,0.39,3.83,368.48,13.7,22.9,0.75,1.25,5.25,5.75,5.75,3.75,1.5,3.0,2.0,4.5,4.75,2.25,1.75,0.08,0.08,0.95,593.14,-5.1,1.1
1.02,4.5,0.75,3.5,7.25,3.25,0.75,1.75,2.5,3.0,0.25,2.75,1.0,0.5,-0.36,0.39,3.83,373.08,14.1,25.4,1.25,1.25,5.5,7.0,6.5,4.0,1.5,2.5,2.0,3.25,4.0,1.5,1.5,0.08,0.08,0.95,591.17,-6.5,12.3
1.04,4.5,1.0,3.75,8.0,3.75,0.75,1.75,2.5,3.0,0.25,2.75,1.0,0.5,-0.36,0.45,3.83,391.65,14.1,27.5,1.25,1.5,5.5,7.25,6.5,4.5,1.5,2.5,2.0,3.0,3.25,1.0,1.25,0.08,0.08,0.95,588.22,-6.5,17.6
1.06,5.75,1.25,4.0,8.0,5.0,0.75,2.0,2.5,3.25,0.25,2.75,1.0,0.5,-0.3,0.45,3.89,438.72,14.3,31.1,2.0,2.25,6.75,8.75,6.75,4.5,1.75,2.5,1.75,2.75,2.75,1.0,1.0,0.08,0.14,0.95,615.79,-8.5,25.8
1.08,5.75,1.5,4.75,9.0,5.75,0.75,2.0,2.25,3.25,0.25,2.75,1.0,0.5,-0.3,0.45,3.83,498.13,14.6,33.8,2.75,2.25,7.0,10.5,7.25,4.5,2.0,2.5,1.5,2.25,2.75,1.0,1.0,0.08,0.14,0.95,662.18,-9.5,30.0
1.1,6.75,1.75,5.25,9.25,5.75,1.0,2.25,2.5,3.25,0.25,2.75,1.0,0.5,-0.36,0.39,3.89,565.74,15.0,35.6,3.75,2.5,8.0,11.0,8.0,4.5,2.75,2.5,1.5,1.75,2.5,1.0,0.75,0.08,0.14,0.95,729.64,-11.0,35.2
1.12,6.75,1.75,5.5,9.75,5.75,0.75,2.5,1.75,3.0,0.25,2.0,1.0,0.5,-0.36,0.39,3.89,612.43,16.1,39.8,4.5,3.0,8.75,12.5,8.25,4.75,3.25,2.25,1.5,1.5,2.5,0.75,0.75,0.08,0.14,0.95,812.38,-12.0,39.2
1.14,7.25,1.75,6.25,10.5,5.75,1.0,2.75,1.75,2.5,0.25,1.75,0.5,0.5,-0.36,0.45,3.89,652.95,16.7,44.5,5.25,3.5,9.25,12.5,9.0,4.5,3.5,1.5,1.5,1.5,2.0,1.0,0.75,0.08,0.14,0.95,891.04,-12.9,42.3
1.16,7.75,2.75,6.75,11.0,6.5,1.5,3.0,1.75,2.0,0.0,1.75,0.5,0.5,-0.42,0.45,4.08,699.71,16.6,48.2,5.5,3.75,9.5,14.0,9.25,4.75,3.75,1.25,1.0,1.5,1.75,0.75,0.75,0.08,0.14,0.95,961.24,-13.1,45.5
1.18,7.75,3.25,7.25,11.5,6.5,0.5,2.75,1.5,1.5,0.0,1.0,0.5,0.5,-0.55,0.64,4.58,732.58,17.9,52.9,6.0,3.75,10.5,14.0,9.25,4.5,3.75,1.0,1.0,1.5,0.5,0.5,0.75,0.14,0.14,1.02,1006.48,-14.1,49.8
1.2,8.25,2.75,7.25,10.5,6.5,0.0,2.75,1.5,1.25,0.0,0.75,0.5,0.0,-0.67,0.33,6.33,738.16,19.1,56.2,6.5,1.5,10.5,14.0,9.25,3.75,2.75,0.25,0.5,1.5,0.25,0.25,0.75,0.14,0.14,1.58,996.93,-15.2,52.0
1.22,8.25,1.75,7.25,9.25,4.5,0.0,1.25,1.5,1.0,0.0,0.5,0.25,0.5,-0.98,0.64,6.14,687.62,20.2,56.0,6.75,3.75,9.75,12.5,9.25,1.0,1.5,1.0,0.25,1.0,0.25,0.0,0.5,0.14,0.14,1.64,947.78,-16.6,57.4
1.24,8.0,1.75,6.5,8.0,2.0,0.0,0.5,1.5,0.75,0.0,0.75,0.25,0.5,-1.23,0.89,7.2,595.79,21.9,55.7,7.0,2.25,8.75,9.0,6.75,0.0,0.5,0.0,0.25,0.0,0.0,0.0,0.0,0.14,0.14,1.64,798.61,-21.0,66.8
1.26,7.25,0.5,4.5,5.75,0.0,0.0,0.25,0.0,1.0,0.0,0.0,0.0,0.0,-1.55,0.7,6.77,442.24,28.3,68.7,5.5,1.75,7.75,7.0,4.5,0.0,0.25,0.0,0.25,0.0,0.25,0.0,0.0,0.2,0.14,1.77,620.23,-22.3,65.7
1.28,6.5,0.5,2.5,2.75,0.0,0.0,0.0,0.0,0.75,0.0,0.25,0.25,0.0,-0.86,1.39,6.83,308.0,28.7,67.4,5.25,2.25,7.0,6.25,3.5,1.75,0.5,1.0,0.25,1.25,0.25,0.25,0.25,0.14,0.14,1.27,487.94,-17.0,52.7
1.3,5.75,0.5,1.75,3.0,0.0,0.0,0.25,0.0,1.0,0.0,0.0,0.25,0.0,-1.92,0.27,5.2,218.8,27.5,66.1,1.5,0.75,5.25,3.0,0.5,0.0,0.25,0.5,0.0,0.0,0.25,0.0,0.25,0.14,0.27,1.77,317.68,-25.1,55.8
1.32,2.75,0.0,1.75,1.0,0.0,0.0,0.25,1.25,0.5,0.0,0.75,0.0,0.25,-1.55,-2.17,2.2,132.12,20.5,33.2,0.75,0.5,2.25,3.0,0.5,2.0,0.5,0.25,0.25,1.25,0.25,0.0,0.0,0.2,-0.48,-0.05,214.22,-10.3,36.3
1.34,1.5,0.5,0.25,2.5,0.0,0.0,0.25,0.0,1.0,0.0,0.0,0.25,0.0,-5.73,-7.98,-1.92,61.83,20.9,47.7,0.0,0.5,2.75,2.0,0.25,2.0,0.5,1.0,0.25,1.25,0.25,0.25,0.5,0.27,-2.86,-1.3,118.26,-6.9,16.4
1.36,1.5,0.5,1.25,1.75,0.0,0.0,0.5,1.5,1.0,0.0,1.0,0.0,0.25,-2.17,-5.36,4.14,31.4,15.3,20.2,0.0,0.5,2.75,2.0,0.0,2.0,0.25,0.0,0.25,1.25,0.25,0.25,0.25,0.52,-1.36,1.2,56.11,-9.9,24.2
1.38,1.25,0.5,0.0,1.0,0.0,0.0,0.5,1.5,0.75,0.0,0.5,0.0,0.25,-2.17,-4.8,1.39,3.37,9.8,13.6,0.0,0.5,2.75,1.75,0.0,2.0,0.25,0.5,0.25,0.75,0.25,0.25,0.25,0.33,-1.73,0.7,18.64,-9.6,25.2
1.4,1.25,0.0,0.75,0.5,0.0,0.0,0.5,0.0,0.75,0.0,0.0,0.0,0.0,-1.05,-1.86,1.83,0.0,27.9,49.2,0.0,0.5,2.75,0.5,0.0,2.25,0.25,0.5,0.25,0.0,0.25,0.0,0.0,0.14,-0.73,0.2,1.33,-10.7,39.7
1.42,1.25,0.5,0.25,1.25,0.0,0.0,0.25,0.0,1.0,0.0,0.0,0.0,0.0,-1.11,-1.17,2.14,0.0,21.9,50.9,0.0,0.5,2.75,1.5,0.0,2.0,0.5,0.75,0.25,0.5,0.25,0.0,0.0,0.14,-0.23,0.7,9.21,-10.4,33.1
1.44,1.25,0.5,0.5,1.0,0.0,0.0,0.5,1.25,1.0,0.0,1.0,0.25,0.5,-1.17,-0.42,2.52,0.0,12.0,2.7,0.0,0.5,2.75,1.5,0.25,1.75,0.25,0.25,0.25,1.0,0.25,0.5,0.0,0.14,-0.05,0.89,26.26,-10.5,24.1
1.46,0.0,0.0,0.5,0.5,0.0,0.0,0.5,0.75,0.5,0.0,0.5,0.0,0.5,-0.92,0.45,2.83,7.27,7.9,-20.7,0.0,0.0,2.75,0.25,0.0,0.0,0.25,0.5,0.0,0.0,0.5,0.0,0.5,0.14,0.27,0.77,28.71,-22.6,16.6
1.48,1.0,0.25,0.75,1.25,0.0,0.0,0.5,1.0,1.0,0.0,0.75,0.0,0.5,-0.73,1.45,3.89,39.85,13.6,8.6,0.0,0.5,2.25,0.75,0.0,2.0,0.25,0.25,0.25,0.0,0.25,0.0,0.0,0.02,0.45,1.02,46.18,-11.1,42.1
1.5,0.0,0.25,0.25,0.75,0.0,0.0,0.5,1.0,1.0,0.0,0.5,0.25,0.5,-0.48,2.39,5.52,53.67,6.2,-21.7,0.0,0.5,2.75,0.5,0.0,2.0,0.25,0.5,0.25,0.75,0.25,0.25,0.25,-0.11,0.64,1.08,64.41,-8.4,19.9
1.52,0.0,0.25,0.5,0.5,0.0,0.0,0.5,0.75,1.0,0.0,0.5,0.0,0.0,-0.55,3.77,6.52,57.48,11.8,-2.6,0.0,0.5,2.75,0.5,0.0,2.0,0.25,0.0,0.25,0.0,0.25,0.25,0.25,0.02,0.89,1.2,79.27,-12.9,34.6
1.54,0.0,0.0,0.5,0.25,0.0,0.0,0.5,0.25,0.5,0.0,0.25,0.0,0.5,-0.17,6.14,7.64,44.88,11.6,-20.0,0.0,0.0,2.5,0.0,0.0,0.5,0.25,0.0,0.25,0.0,0.25,0.0,0.0,0.08,1.08,1.33,81.77,-26.6,40.6
1.56,0.0,0.0,0.0,0.0,0.0,0.0,0.0,0.0,0.5,0.0,0.0,0.0,0.0,0.45,7.95,6.89,29.0,12.1,-38.5,0.0,0.0,0.5,0.0,0.0,0.0,0.0,0.0,0.25,0.0,0.0,0.0,0.0,-0.11,1.52,1.64,52.96,-29.8,28.7
1.58,0.0,0.25,0.0,0.0,0.0,0.0,0.25,0.0,0.5,0.0,0.0,0.0,0.0,2.02,7.95,3.45,12.86,15.0,11.2,0.0,0.5,2.5,0.25,0.0,2.0,0.25,0.25,0.25,0.25,0.25,0.0,0.25,-0.3,1.89,1.27,56.5,-9.7,31.2
1.6,0.0,0.0,0.0,0.0,0.0,0.0,0.25,0.0,0.5,0.0,0.0,0.0,0.0,2.02,7.95,1.77,0.0,16.1,-25.7,0.0,0.5,2.75,0.5,0.0,2.0,0.25,0.25,0.25,0.0,0.25,0.0,0.0,-0.55,2.14,0.52,66.68,-13.0,42.9
1.62,0.0,0.0,0.0,0.5,0.0,0.0,0.25,0.0,1.0,0.0,0.0,0.0,0.0,0.83,7.7,0.7,4.04,15.2,-2.7,0.0,0.5,2.75,0.0,0.0,1.5,0.25,0.5,0.25,0.25,0.0,0.25,0.0,-0.67,2.45,-0.05,83.12,-12.9,32.6
1.64,0.0,0.0,0.0,0.0,0.0,0.0,0.25,0.5,0.5,0.0,0.25,0.0,0.0,0.45,5.95,0.45,5.61,3.0,-39.4,0.0,0.5,2.75,0.25,0.0,1.75,0.0,0.0,0.25,0.0,0.25,0.25,0.25,-0.48,2.2,-0.23,93.71,-13.7,33.8
1.66,0.0,0.0,0.0,0.0,0.0,0.0,0.25,0.0,1.0,0.0,0.0,0.25,0.0,1.77,5.02,1.2,7.54,13.3,-45.8,0.0,0.5,2.5,0.25,0.0,1.5,0.25,0.0,0.25,0.0,0.25,0.0,0.0,-0.36,1.89,-0.17,94.23,-16.1,45.9
1.68,0.0,0.0,0.0,0.0,0.0,0.0,0.25,0.25,1.0,0.0,0.5,0.25,0.5,2.64,4.64,1.7,16.0,4.6,-63.3,0.0,0.5,0.25,0.25,0.0,2.0,0.0,0.0,0.25,0.25,0.0,0.25,0.0,-0.67,1.64,0.02,81.27,5.7,24.6
1.7,0.0,0.0,0.0,0.5,0.0,0.0,0.25,0.0,1.0,0.0,0.0,0.0,0.0,2.2,4.89,1.83,21.02,15.2,-2.7,0.0,0.5,2.25,0.5,0.0,2.0,0.25,0.0,0.25,0.25,0.25,0.25,0.5,-0.73,1.58,0.14,88.26,-8.9,23.2
1.72,0.0,0.0,0.0,0.5,0.0,0.0,0.25,0.0,1.0,0.0,0.0,0.0,0.0,1.64,5.14,1.95,21.82,15.2,-2.7,0.0,0.5,2.0,1.75,0.0,0.75,0.0,0.0,0.0,0.0,0.25,0.0,0.25,-0.23,1.52,0.14,88.35,-17.7,46.3
1.74,0.0,0.0,0.0,0.0,0.0,0.0,0.0,0.75,0.5,0.0,0.0,0.0,0.0,0.95,5.27,1.95,22.03,-5.2,-38.7,0.0,0.5,2.25,3.25,0.5,2.0,0.25,0.0,0.25,0.25,0.25,0.25,0.0,1.7,1.77,7.95,115.92,-11.8,42.2
1.76,0.0,0.5,0.25,1.0,0.0,0.0,0.0,0.5,0.0,0.0,0.75,0.0,0.0,3.33,-7.98,7.95,32.55,11.1,17.4,0.5,1.0,2.75,5.5,6.25,2.25,0.25,0.0,0.25,0.0,0.25,0.25,0.25,0.83,-0.23,7.02,192.92,-8.3,50.2
1.78,0.0,0.0,0.0,2.5,0.0,0.0,0.25,0.5,0.0,0.0,0.0,0.0,0.0,-5.11,2.27,-0.48,43.2,12.5,41.8,1.25,1.25,3.0,6.25,6.75,5.0,0.25,0.0,0.25,1.25,0.0,0.25,0.0,0.39,0.14,1.45,279.69,-5.4,47.5
1.8,0.5,0.0,0.0,2.5,0.0,0.0,0.25,0.0,0.5,0.0,0.0,0.0,0.5,-0.23,0.2,4.77,59.21,15.2,29.6,1.25,1.5,4.75,7.0,6.75,5.25,0.5,1.25,0.75,3.5,0.0,1.0,0.75,0.27,0.2,1.39,391.13,-4.9,29.7
1.82,1.5,0.75,0.0,7.0,0.0,0.0,0.0,0.0,1.0,0.0,0.0,0.0,0.0,0.02,1.08,3.39,105.15,18.7,57.1,1.75,1.5,5.25,6.75,6.75,5.25,1.25,4.0,2.25,6.5,4.75,3.0,2.75,0.02,0.14,1.14,582.65,-3.4,-1.1
1.84,0.0,0.5,2.0,8.75,0.0,1.5,0.25,0.0,2.25,0.25,0.0,1.0,0.0,-0.98,0.14,7.95,171.98,14.7,32.5,2.0,1.5,5.5,7.0,6.75,5.5,1.5,5.25,2.75,6.25,5.5,2.5,3.5,0.08,-0.05,1.02,777.56,-3.2,-2.3
1.86,3.0,1.75,2.75,8.5,5.75,1.5,1.75,3.5,4.25,2.0,3.5,2.0,0.5,-0.67,0.7,4.83,319.0,8.8,14.4,1.5,2.25,6.0,7.25,6.75,6.0,1.5,4.0,2.0,4.75,4.75,1.5,2.25,0.08,0.08,0.95,898.14,-4.4,9.0
1.88,3.0,1.75,3.0,8.25,5.75,1.5,2.0,4.5,4.25,2.0,5.0,2.0,0.5,0.02,0.08,4.2,487.95,8.5,10.2,2.75,2.25,6.75,8.75,8.0,6.0,1.5,4.0,2.0,4.75,3.75,1.0,1.75,0.2,0.14,0.89,981.59,-5.7,18.0
1.9,3.0,1.75,4.0,8.5,5.75,1.75,1.75,4.25,4.25,2.0,4.25,1.75,0.5,-0.42,0.39,3.77,655.51,9.1,14.2,2.75,2.25,7.0,8.75,8.0,6.0,1.5,4.0,2.25,4.5,4.0,1.25,1.5,0.14,0.14,0.95,1020.73,-6.2,18.0
1.92,3.0,1.75,3.75,8.25,5.75,1.75,1.75,4.25,4.5,2.0,4.5,2.0,0.5,-0.48,0.45,3.83,747.24,8.9,12.1,2.75,2.25,7.0,9.0,8.0,6.0,1.5,4.0,2.25,5.25,4.0,1.5,1.5,0.08,0.08,0.95,1042.33,-5.9,16.4
1.94,3.0,1.5,3.75,8.0,5.75,1.5,1.75,4.25,5.0,2.0,5.0,2.0,0.5,-0.3,0.33,3.83,792.87,9.1,9.7,2.0,2.25,7.0,8.75,8.0,5.5,1.5,4.0,2.25,4.5,4.0,1.75,1.75,0.08,0.08,0.95,1028.36,-6.0,15.0
1.96,3.0,1.25,3.5,8.0,5.0,1.5,1.75,4.5,5.0,2.0,5.25,2.25,0.5,-0.36,0.33,3.89,790.7,9.0,6.5,2.0,2.25,6.75,8.5,7.75,5.5,1.5,4.0,2.25,4.75,4.0,1.75,1.75,0.08,0.08,0.95,1004.65,-5.7,14.0
1.98,3.0,0.75,3.75,7.75,5.0,1.25,1.75,4.25,5.0,2.0,5.5,2.25,0.5,-0.3,0.27,3.89,775.45,9.4,5.1,1.25,2.0,6.75,7.25,6.75,4.75,1.5,3.75,2.25,4.5,4.5,2.0,1.5,0.14,0.08,0.95,924.43,-6.0,9.8
2.0,3.0,0.75,3.75,6.75,4.25,0.75,1.75,4.0,5.0,2.0,5.5,2.0,0.5,-0.3,0.33,3.83,735.2,10.1,3.3,1.25,1.5,6.5,7.0,6.75,4.5,1.5,3.5,2.25,4.75,4.75,2.25,1.5,0.08,0.08,0.95,840.94,-5.8,7.0
2.02,2.75,0.75,3.5,6.75,3.5,0.75,1.5,3.5,4.75,2.0,5.25,2.0,0.5,-0.36,0.33,3.83,673.82,10.3,2.4,1.25,1.25,5.5,7.0,6.75,4.5,1.25,3.5,2.0,4.75,4.75,2.25,1.5,0.08,0.08,0.95,762.64,-5.0,5.5
2.04,2.75,0.5,3.25,6.75,3.25,0.75,1.5,3.5,4.5,2.0,5.0,2.0,0.5,-0.36,0.39,3.83,604.53,10.2,1.7,1.25,1.25,5.5,6.75,6.5,4.5,1.0,3.0,2.25,4.75,4.75,2.5,1.75,0.08,0.08,0.95,702.45,-5.1,3.8
2.06,2.75,0.5,2.5,6.5,3.0,0.75,1.75,3.5,4.5,2.0,5.0,2.0,0.5,-0.3,0.33,3.89,535.54,9.7,-0.3,1.0,1.25,5.5,5.75,6.5,4.5,1.0,3.0,2.0,5.25,4.75,2.5,1.75,0.08,0.08,0.95,652.86,-4.4,1.4
2.08,2.5,0.5,2.0,6.5,3.25,0.75,1.5,3.5,4.25,1.25,5.0,2.0,0.5,-0.36,0.39,3.83,474.01,9.4,0.3,0.5,1.25,5.5,5.25,6.25,4.0,1.0,3.0,2.25,5.0,4.75,2.5,2.25,0.08,0.08,0.95,623.4,-4.2,-2.0
2.1,2.5,0.5,2.0,6.25,3.25,0.75,1.5,3.25,4.0,1.0,5.0,2.0,0.5,-0.36,0.33,3.83,421.89,9.7,1.0,0.25,1.0,5.25,5.25,6.0,3.75,1.0,3.0,2.25,5.5,5.75,2.5,2.75,0.08,0.08,0.95,606.71,-3.7,-7.6
2.12,1.5,0.5,2.0,5.75,2.0,0.5,1.25,3.0,4.0,1.0,4.75,2.0,0.5,-0.42,0.39,3.89,383.55,9.8,-5.1,0.25,0.75,5.25,5.25,5.5,3.5,1.25,3.0,2.25,5.5,5.75,3.0,2.5,0.08,0.08,0.95,587.1,-4.1,-9.7
2.14,1.75,0.5,2.0,4.75,2.0,0.25,1.25,2.75,4.0,1.0,4.75,2.0,0.5,-0.36,0.39,3.89,352.13,10.3,-6.7,0.5,1.0,5.25,5.25,5.75,3.5,1.25,3.0,2.25,5.5,5.75,3.0,2.5,0.08,0.08,0.95,585.39,-4.3,-8.1
2.16,1.75,0.5,2.0,4.5,0.75,0.5,1.25,2.75,3.75,1.0,5.0,2.0,0.5,-0.3,0.39,3.77,321.11,10.7,-10.7,0.5,0.75,5.25,5.25,5.75,3.5,1.25,2.75,2.25,4.75,5.5,2.5,2.25,0.08,0.08,0.95,575.98,-4.7,-5.2
2.18,2.0,0.5,1.0,4.5,1.25,0.25,1.25,2.5,3.75,0.5,5.0,2.0,0.5,-0.36,0.33,3.83,298.14,10.6,-10.0,1.0,1.0,5.25,5.75,6.0,3.5,1.25,2.5,2.25,4.5,4.75,2.5,1.75,0.08,0.08,0.95,575.47,-5.6,0.7
2.2,2.75,0.5,1.0,5.5,2.0,0.5,1.25,2.5,3.75,0.25,4.5,2.0,0.5,-0.42,0.39,3.83,296.44,11.0,-0.2,1.25,1.25,5.5,7.0,6.25,3.75,1.5,2.5,2.0,3.25,4.75,2.25,1.5,0.08,0.08,0.95,581.45,-6.9,8.3
2.22,3.0,0.5,2.0,6.5,2.75,0.5,1.5,2.75,4.0,0.25,4.25,2.0,0.5,-0.3,0.39,3.77,319.47,11.8,6.2,1.5,2.0,6.75,7.75,6.75,4.0,1.5,2.5,2.0,3.0,4.0,1.0,1.5,0.08,0.08,0.95,608.48,-7.9,18.5
2.24,3.0,0.5,2.75,6.75,3.25,0.75,1.75,2.5,4.0,0.25,4.0,1.25,0.5,-0.3,0.39,3.83,352.54,12.3,13.0,3.0,2.25,7.0,8.75,6.75,4.25,2.0,2.5,2.0,2.75,3.75,1.0,1.0,0.08,0.08,0.95,650.65,-9.4,24.9
2.26,4.5,0.75,3.5,8.0,3.5,0.75,1.75,2.5,4.0,0.25,3.5,1.25,0.5,-0.3,0.39,3.89,399.33,13.9,21.5,3.0,2.25,8.0,10.5,7.25,4.25,2.5,2.5,2.0,1.75,2.75,1.0,1.0,0.08,0.14,0.95,704.98,-10.8,31.3
2.28,4.5,1.5,4.5,8.0,5.0,0.75,2.0,2.5,4.0,0.25,3.5,1.0,0.5,-0.36,0.39,3.89,464.8,13.8,26.5,3.75,2.5,8.75,10.5,8.0,4.5,2.75,1.75,2.0,1.5,2.75,1.0,1.0,0.08,0.08,0.95,763.83,-11.7,35.0
2.3,5.25,1.75,5.25,9.0,5.75,1.0,2.25,2.5,3.75,0.25,3.5,1.0,0.5,-0.36,0.39,3.89,544.5,14.2,30.6,4.25,3.0,9.25,12.0,8.0,4.5,3.25,1.25,1.75,1.5,2.5,1.0,0.75,0.08,0.08,0.95,824.97,-12.9,39.3
2.32,5.75,1.75,5.5,9.25,5.75,0.75,2.5,1.75,3.25,0.25,2.75,1.0,0.5,-0.42,0.39,3.95,602.3,15.5,35.7,5.25,3.0,9.5,12.5,8.25,4.5,3.75,1.0,1.5,1.5,1.75,1.0,0.75,0.08,0.14,0.95,879.57,-13.6,42.9
2.34,6.5,2.0,6.25,10.5,5.75,1.0,2.5,1.75,2.0,0.25,2.25,1.0,0.5,-0.48,0.45,4.14,656.18,16.3,41.7,5.5,3.75,10.5,12.5,9.0,4.25,3.75,1.0,1.0,1.5,1.5,0.5,0.5,0.14,0.14,1.02,928.6,-14.2,47.8
2.36,7.0,3.0,7.25,10.5,6.25,1.0,2.5,1.75,1.75,0.25,2.0,0.75,0.25,-1.17,0.77,4.95,704.91,16.9,47.1,5.75,3.0,10.5,12.5,9.0,3.5,3.25,1.0,0.75,1.5,0.5,0.25,0.5,0.14,0.2,1.27,940.58,-14.8,51.0
2.38,7.25,2.75,7.25,10.5,6.0,0.0,1.75,1.75,1.25,0.0,1.25,0.75,0.25,-0.86,0.45,6.95,717.48,18.3,51.4,6.0,3.25,10.5,12.0,8.25,0.0,2.0,0.75,0.5,1.5,0.5,0.25,0.5,0.14,0.08,1.64,899.18,-17.8,53.8
2.4,7.25,1.75,7.25,9.0,3.5,0.0,0.5,1.5,1.0,0.25,1.0,0.75,0.5,-1.36,0.39,7.45,671.76,20.0,50.0,5.25,2.75,8.75,8.75,6.5,0.0,0.5,0.0,0.25,0.0,0.25,0.0,0.0,0.2,0.08,1.77,760.72,-20.4,65.0
2.42,6.75,1.75,6.25,6.75,2.0,0.0,0.0,1.5,1.0,0.0,1.0,0.75,0.5,-1.3,0.14,6.33,577.34,20.9,49.3,4.75,1.0,8.5,5.5,3.5,0.0,0.25,0.75,0.25,0.0,0.0,0.0,0.0,0.14,0.14,1.58,575.66,-23.1,63.0
2.44,5.75,0.75,3.25,5.25,0.0,0.0,0.25,1.5,1.0,0.0,1.0,0.0,0.25,-1.3,0.27,7.45,429.91,22.2,49.4,2.0,0.5,6.5,4.0,0.0,0.0,0.25,0.0,0.25,0.0,0.0,0.0,0.0,0.14,0.2,1.95,366.58,-29.8,64.4
2.46,4.5,0.5,2.0,3.25,0.0,0.0,0.25,1.25,1.0,0.0,0.5,0.5,0.25,-1.48,-0.3,3.95,302.79,21.1,42.2,1.25,0.5,5.5,3.25,0.5,0.0,0.5,0.75,0.25,0.25,0.25,0.5,0.25,0.33,-0.11,1.77,246.75,-23.0,42.4
2.48,2.25,0.0,1.0,2.5,0.0,0.0,0.25,1.5,1.0,0.0,1.0,0.0,0.5,-2.3,-2.67,0.89,207.0,15.4,20.0,0.0,0.5,4.25,2.75,0.25,0.0,0.25,0.75,0.25,0.0,0.25,0.5,0.25,0.08,-1.3,-0.11,143.62,-21.6,35.7
2.5,0.5,0.0,0.0,1.0,0.0,0.0,0.25,0.0,1.0,0.0,0.25,0.5,0.0,-5.11,-7.98,-0.48,96.33,17.0,-0.3,0.0,0.5,2.75,2.0,0.25,0.5,0.5,0.75,0.25,0.0,0.5,0.25,0.25,1.77,-3.17,0.02,69.59,-16.7,29.9
2.52,1.25,0.5,0.0,1.25,0.0,0.0,0.25,1.0,1.0,0.0,1.0,0.75,0.25,-1.23,-5.61,6.39,28.59,11.6,-2.2,0.0,0.5,2.75,2.0,0.0,0.25,0.5,0.75,0.25,0.25,0.25,0.25,0.0,0.52,-1.92,0.52,16.47,-18.8,33.5
2.54,1.25,0.25,0.25,1.5,0.0,0.0,0.5,1.0,1.0,0.0,0.75,0.5,0.25,-3.23,-3.8,0.2,0.0,13.3,5.5,0.0,0.5,2.75,1.5,0.0,0.5,0.25,0.75,0.25,0.5,0.25,0.5,0.0,0.33,-0.73,0.14,0.0,-16.0,23.8
2.56,1.25,0.25,0.25,1.0,0.0,0.0,0.25,1.0,1.0,0.0,0.25,0.5,0.25,-0.17,-0.8,1.52,0.0,12.7,7.1,0.0,0.5,2.75,1.5,0.0,0.5,0.5,0.75,0.25,0.25,0.25,0.25,0.0,0.33,-0.36,0.52,0.0,-17.6,31.8
2.58,1.25,0.25,0.25,1.0,0.0,0.0,0.25,0.0,1.0,0.0,0.0,0.25,0.0,-0.61,-1.23,2.2,0.0,22.0,37.7,0.25,0.5,2.75,1.25,0.0,1.25,0.25,0.75,0.25,0.75,0.25,0.25,0.0,0.33,-0.23,0.64,0.0,-12.5,26.7
2.6,1.0,0.5,0.25,0.75,0.0,0.0,0.25,1.0,1.0,0.0,0.75,0.25,0.25,-1.11,-0.61,3.02,0.0,11.6,3.3,0.0,0.5,2.75,1.25,0.0,2.0,0.25,0.5,0.25,1.0,0.25,0.25,0.0,0.2,0.2,0.7,26.55,-9.1,24.3
2.62,1.0,0.25,0.5,0.75,0.0,0.0,0.25,0.5,1.0,0.0,0.5,0.25,0.25,-0.55,0.14,3.2,0.0,15.8,9.3,0.0,0.5,2.75,1.25,0.0,2.0,0.25,0.0,0.25,0.0,0.25,0.25,0.0,0.02,0.33,0.95,53.52,-14.3,42.1
2.64,1.0,0.5,0.5,0.75,0.0,0.0,0.25,0.25,1.0,0.0,0.25,0.5,0.25,-0.36,1.2,2.64,17.73,17.1,14.4,0.0,0.5,2.75,1.25,0.0,2.0,0.0,0.25,0.25,0.25,0.25,0.25,0.0,-0.05,0.39,1.14,81.35,-12.0,36.0
2.66,0.0,0.5,0.5,0.75,0.0,0.0,0.25,0.25,1.0,0.0,0.5,0.25,0.25,0.14,1.52,3.95,33.16,13.3,-2.0,0.0,0.5,2.75,0.5,0.0,2.0,0.25,0.5,0.25,0.0,0.25,0.25,0.0,0.08,0.58,1.2,96.18,-11.8,34.7
2.68,0.0,0.0,0.5,0.5,0.0,0.0,0.25,0.5,1.0,0.0,0.5,0.5,0.5,0.45,2.2,5.89,46.72,9.3,-33.8,0.0,0.5,2.75,0.25,0.0,2.0,0.25,0.25,0.25,0.0,0.25,0.25,0.25,0.08,0.83,1.39,104.84,-11.6,31.1
2.7,0.0,0.0,0.25,0.5,0.0,0.0,0.25,0.25,1.0,0.0,0.75,0.25,0.5,0.64,4.08,7.95,49.22,9.2,-37.8,0.0,0.5,2.75,0.25,0.0,2.0,0.25,0.25,0.25,0.0,0.25,0.25,0.25,-0.05,1.08,1.64,104.13,-11.6,31.1
2.72,0.0,0.25,0.25,0.5,0.0,0.0,0.25,0.25,0.75,0.0,0.75,0.0,0.5,1.77,6.14,7.95,49.87,9.3,-22.0,0.0,0.5,2.75,0.5,0.0,1.25,0.25,0.25,0.25,0.0,0.25,0.25,0.0,-0.23,1.52,1.77,103.59,-16.9,37.8
2.74,0.25,0.25,0.0,0.5,0.0,0.0,0.25,0.0,1.0,0.0,0.5,0.0,0.5,2.83,7.95,5.89,47.94,11.0,-15.7,0.0,0.5,2.75,0.5,0.0,1.25,0.25,0.25,0.25,0.0,0.25,0.25,0.25,-0.36,1.77,1.39,102.12,-15.7,31.8
2.76,0.0,0.0,0.0,0.0,0.0,0.0,0.25,0.25,0.25,0.0,0.25,0.0,0.25,2.83,7.95,3.02,31.35,1.5,-56.0,0.0,0.5,2.75,0.25,0.0,2.0,0.25,0.0,0.25,0.0,0.25,0.25,0.0,-0.42,1.89,0.58,100.21,-13.8,39.5
2.78,0.0,0.25,0.0,0.5,0.0,0.0,0.25,1.0,1.0,0.0,0.0,0.0,0.5,1.02,7.95,0.58,32.47,1.2,-21.8,0.0,0.5,2.5,0.25,0.0,2.0,0.25,0.0,0.25,0.75,0.25,0.25,0.25,-0.23,1.83,0.08,102.53,-8.8,21.2
2.8,0.0,0.0,0.0,0.5,0.0,0.0,0.0,0.0,0.25,0.0,0.0,0.0,0.0,0.08,7.08,0.02,21.48,15.5,27.0,0.0,0.5,2.75,0.25,0.0,2.0,0.25,0.0,0.25,0.25,0.25,0.25,0.25,-0.3,1.7,-0.05,104.01,-11.7,29.7
2.82,0.0,0.0,0.0,0.5,0.0,0.0,0.5,0.0,0.5,0.0,0.75,0.0,0.0,2.08,5.64,0.83,21.31,15.4,-18.6,0.0,0.5,2.75,0.25,0.0,1.75,0.25,0.25,0.25,0.25,0.25,0.25,0.0,-0.67,1.58,0.02,104.54,-12.8,32.4
2.84,0.0,0.0,0.0,0.5,0.0,0.0,0.25,0.0,0.75,0.0,0.5,0.25,0.25,3.64,5.14,1.52,19.97,10.8,-36.6,0.0,0.5,2.5,0.25,0.0,1.25,0.25,0.0,0.25,0.25,0.25,0.25,0.25,-1.11,1.45,0.33,100.8,-14.7,27.8
2.86,0.25,0.0,0.0,0.0,0.0,0.0,0.25,0.0,0.0,0.0,0.0,0.0,0.0,2.58,5.08,1.77,14.74,34.1,73.9,0.0,0.5,2.75,0.25,0.0,1.5,0.0,0.0,0.25,0.0,0.25,0.25,0.0,-1.36,1.27,0.45,97.69,-16.4,40.2
2.88,0.0,0.0,0.0,0.0,0.0,0.0,0.0,0.0,0.75,0.0,0.0,0.0,0.0,0.7,5.02,1.45,9.38,12.1,-38.5,0.0,0.5,2.75,0.25,0.0,1.25,0.25,0.0,0.25,0.0,0.25,0.25,0.5,-0.73,1.33,0.39,95.54,-15.7,27.7
2.9,0.0,0.0,0.0,0.5,0.0,0.0,0.0,0.0,1.25,0.0,0.0,0.0,0.0,-0.92,5.2,1.14,11.41,13.6,-9.8,0.0,0.5,2.5,0.0,0.0,1.25,0.25,0.0,0.0,0.0,0.25,0.25,0.0,-0.11,1.33,0.27,89.68,-17.7,42.2
2.92,0.0,0.0,0.0,0.0,0.0,0.0,3.25,3.25,0.0,0.0,1.5,0.0,0.0,1.58,-7.98,5.7,39.37,1.8,-30.8,0.0,0.5,2.75,1.25,0.0,0.0,0.0,0.0,0.0,0.0,0.25,0.0,0.25,0.27,1.14,4.08,86.6,-26.4,49.0
2.94,0.0,0.0,0.0,0.0,0.0,0.0,0.25,2.25,1.25,0.0,0.0,0.25,0.0,-3.23,1.7,-7.73,53.28,-4.3,-41.2,0.0,0.5,2.25,2.0,0.0,0.0,0.25,0.0,0.0,0.0,0.25,0.0,0.0,1.27,-0.61,7.14,84.79,-26.0,56.4
2.96,1.75,0.25,0.0,4.5,0.0,0.25,0.0,0.0,1.0,0.0,0.0,0.25,0.0,-1.23,-0.42,7.95,91.72,18.6,49.6,0.0,0.5,1.5,3.0,2.5,2.5,0.0,0.0,0.25,0.0,0.25,0.25,0.25,1.02,-0.36,4.33,117.9,-5.2,41.8
2.98,1.25,0.0,0.0,7.75,0.0,1.5,0.25,1.5,1.5,0.25,0.0,0.5,0.25,-1.48,1.14,5.77,149.34,9.5,28.2,0.25,0.5,2.75,4.0,5.75,2.0,0.0,0.0,0.25,0.0,0.25,0.25,0.25,0.14,-0.17,2.7,176.67,-7.7,47.7
3.0,3.0,1.5,2.75,8.25,5.75,2.0,1.25,3.5,4.0,2.0,2.5,2.0,0.5,-0.3,1.02,4.95,295.09,8.2,16.2,0.25,0.5,3.0,3.25,5.75,4.5,0.25,1.0,1.0,4.5,0.25,0.75,0.5,0.39,0.39,1.39,259.6,-0.1,14.8
3.02,3.0,1.75,3.75,9.0,5.75,2.25,2.0,4.75,4.5,2.0,5.25,2.0,1.0,0.14,-0.11,4.52,481.82,8.3,9.9,0.5,0.75,3.25,3.25,5.75,4.5,0.75,5.25,2.25,8.0,5.75,4.5,4.5,0.27,0.02,1.02,418.62,0.9,-25.9
3.04,3.0,1.75,4.75,9.25,5.75,2.25,2.0,4.5,4.0,1.25,4.0,1.0,0.5,-0.17,0.33,3.89,666.37,9.8,20.1,0.5,0.75,4.0,4.75,4.75,4.5,1.0,5.25,2.25,7.5,7.5,3.5,5.0,0.02,-0.11,1.02,609.46,-0.5,-24.0
3.06,4.0,2.25,5.5,10.5,7.0,2.25,2.0,3.5,3.75,0.25,2.75,1.0,0.25,-0.61,0.52,3.77,788.34,11.8,32.5,1.0,1.0,5.0,5.75,6.0,5.25,1.0,5.25,2.0,6.5,5.25,2.5,3.75,0.14,0.08,0.95,772.52,-1.6,-8.7
3.08,4.5,2.75,5.25,10.5,7.0,2.25,2.0,3.5,3.75,0.5,2.5,1.0,0.25,-0.23,0.39,3.83,852.82,11.8,33.7,1.25,1.25,5.25,7.0,6.5,5.5,1.0,4.25,2.0,6.25,4.75,2.5,3.25,0.2,0.14,0.89,870.55,-2.7,-2.1
3.1,4.25,2.0,5.5,10.5,7.0,2.25,2.0,3.5,4.0,0.5,2.75,1.0,0.25,-0.36,0.39,3.89,872.61,11.8,31.5,1.5,1.25,5.5,7.0,6.75,5.5,1.25,4.75,2.5,6.25,4.75,2.5,3.25,0.14,0.08,0.95,933.63,-3.0,-1.7
3.12,3.75,1.75,5.5,9.5,7.0,2.25,2.0,3.5,3.75,0.25,3.0,1.0,0.25,-0.3,0.33,3.89,857.11,11.6,30.2,1.25,1.25,5.5,7.0,6.75,5.0,1.5,4.75,2.75,6.5,5.25,2.5,3.5,0.08,0.08,0.95,959.96,-3.1,-4.1
3.14,3.5,1.75,5.5,9.25,6.25,2.0,2.0,3.5,3.75,0.5,2.75,1.0,0.25,-0.3,0.39,3.89,824.44,11.8,29.1,1.25,1.25,5.5,7.0,6.75,5.0,1.5,4.75,2.75,6.5,5.75,2.5,3.5,0.08,0.08,0.95,976.98,-3.1,-4.7
3.16,3.0,1.75,4.25,9.25,5.75,1.75,1.75,3.5,3.75,0.25,2.5,1.0,0.25,-0.36,0.39,3.89,756.85,11.2,28.2,1.25,1.25,5.5,6.25,6.75,4.5,1.5,4.75,2.75,6.5,5.5,2.5,3.5,0.14,0.08,0.95,965.37,-3.1,-5.7
3.18,3.0,1.75,3.0,9.0,5.75,1.5,1.75,3.5,3.75,0.25,2.5,1.0,0.25,-0.36,0.39,3.83,682.34,10.4,26.8,0.75,1.25,5.25,5.5,6.25,4.5,1.5,4.25,2.25,6.5,5.75,2.5,3.5,0.08,0.08,0.95,913.89,-2.7,-8.3
3.2,3.0,1.75,4.5,8.5,5.75,1.5,1.75,3.5,3.25,0.25,2.25,1.0,0.25,-0.36,0.39,3.89,614.56,11.4,29.3,0.5,1.25,5.25,5.25,6.0,4.5,1.0,4.0,2.25,6.5,5.0,2.5,3.5,0.08,0.08,0.95,838.07,-2.3,-8.6
3.22,3.0,1.75,4.5,8.0,5.75,1.5,1.5,3.5,3.25,0.25,2.5,1.0,0.25,-0.36,0.39,3.83,558.77,11.3,28.2,0.25,1.0,5.25,5.25,5.75,4.5,1.0,4.0,2.0,6.25,4.5,2.5,3.5,0.08,0.08,0.95,758.63,-2.1,-8.9
3.24,3.0,1.75,3.75,8.0,5.75,1.5,1.5,3.25,3.25,0.25,2.25,1.0,0.25,-0.36,0.39,3.83,509.61,10.9,28.7,0.0,0.5,5.25,5.25,5.75,4.25,1.0,4.0,2.25,6.25,4.75,2.5,3.5,0.08,0.08,0.95,690.29,-2.0,-11.4
3.26,3.0,1.0,3.75,8.0,5.75,1.5,1.5,3.25,3.25,0.25,2.25,1.0,0.25,-0.36,0.45,3.83,486.29,10.8,27.1,0.25,0.75,4.75,5.25,5.5,4.0,1.0,4.0,2.0,6.25,5.0,2.5,3.5,0.08,0.08,0.95,637.09,-2.0,-11.9
3.28,2.75,0.75,3.5,7.75,5.25,1.5,1.0,3.5,3.25,0.25,2.5,1.0,0.25,-0.36,0.45,3.83,466.05,10.3,23.9,0.0,0.75,4.75,5.25,5.5,4.0,1.0,4.0,2.0,6.25,5.0,2.5,3.0,0.08,0.08,0.95,613.47,-2.0,-11.3
3.3,2.75,0.5,3.0,6.75,5.0,1.0,1.25,3.25,3.5,0.75,2.75,1.0,0.25,-0.42,0.45,3.83,436.97,10.1,18.9,0.0,0.5,4.75,5.25,5.5,4.0,1.0,4.0,2.0,6.25,5.0,2.5,3.5,0.08,0.08,0.95,599.57,-1.7,-13.1
3.32,2.75,0.5,2.25,6.75,4.5,1.0,1.25,3.5,3.75,1.0,3.0,1.25,0.25,-0.36,0.39,3.89,415.78,9.3,13.9,0.5,0.5,5.0,5.25,5.5,4.0,1.0,4.0,2.25,6.25,5.0,2.5,3.5,0.08,0.08,0.95,597.76,-2.3,-11.7
3.34,2.5,0.5,2.0,6.5,3.5,0.75,1.25,3.5,3.75,1.0,3.25,2.0,0.25,-0.36,0.39,3.89,396.98,9.5,7.1,0.5,0.5,5.0,5.25,5.75,4.5,1.25,4.0,2.25,6.0,5.0,2.5,3.5,0.08,0.08,0.95,605.51,-2.2,-10.4
3.36,2.5,0.5,2.0,6.25,3.25,0.75,1.25,3.25,3.75,1.25,3.25,2.0,0.25,-0.36,0.33,3.83,385.9,9.6,5.9,0.5,1.0,5.25,5.25,5.75,3.75,1.5,3.75,2.25,5.75,4.75,2.5,3.0,0.08,0.08,0.95,612.19,-3.4,-7.3
3.38,2.25,0.5,2.0,6.25,2.0,0.75,1.0,3.25,3.75,1.5,3.75,2.0,0.25,-0.36,0.39,3.77,372.98,9.7,0.6,1.0,1.0,5.25,5.75,6.0,4.0,1.5,3.25,2.0,4.75,4.75,2.5,2.5,0.08,0.08,0.95,617.08,-4.5,-1.6
3.4,2.25,0.5,2.0,5.5,2.0,0.75,1.25,3.5,3.75,1.75,4.25,2.0,0.25,-0.36,0.39,3.83,366.44,9.2,-2.9,1.25,1.25,5.5,7.0,6.5,4.0,1.5,2.75,2.0,4.25,4.0,1.75,1.75,0.08,0.08,0.95,622.04,-5.8,8.6
3.42,2.75,0.5,2.0,5.75,2.0,0.75,1.25,3.5,4.25,2.0,4.75,2.75,0.25,-0.36,0.39,3.83,373.0,9.5,-5.7,1.25,1.5,6.0,7.25,6.5,4.5,1.5,2.5,1.75,3.0,2.75,1.0,1.5,0.08,0.08,0.95,615.53,-6.6,18.8
3.44,3.0,0.5,2.0,6.5,3.25,0.75,1.25,3.5,4.5,2.0,5.5,3.0,0.25,-0.36,0.33,3.83,399.84,9.3,-3.6,1.75,1.75,6.75,8.75,6.75,4.5,1.75,2.5,1.5,2.25,2.75,1.0,1.0,0.08,0.08,0.95,624.59,-8.5,26.0
3.46,3.0,0.5,2.75,6.5,3.25,0.75,1.5,3.5,5.0,2.0,5.5,3.0,0.25,-0.3,0.33,3.83,441.71,10.1,-2.6,2.75,2.25,7.5,10.5,8.0,4.5,2.0,2.0,1.5,1.5,2.0,1.0,0.75,0.08,0.08,0.95,660.2,-10.4,35.6
3.48,3.0,0.75,3.5,6.75,3.75,0.75,1.75,3.5,5.0,1.75,5.5,2.75,0.25,-0.36,0.33,3.83,488.66,10.7,1.8,3.75,2.25,8.0,11.0,8.25,4.5,2.25,1.5,1.0,1.5,1.75,1.0,0.75,0.08,0.08,0.95,706.49,-11.5,39.5
3.5,3.25,0.75,3.5,7.75,4.75,1.0,1.75,3.5,5.0,1.0,5.25,2.0,0.25,-0.3,0.33,3.89,531.22,11.0,9.6,4.25,2.75,8.75,12.5,9.0,4.5,2.75,1.25,1.0,1.5,1.5,0.75,0.75,0.08,0.08,0.95,773.76,-12.3,43.3
3.52,4.0,1.25,4.0,8.0,5.25,1.25,2.0,3.5,4.5,0.25,4.75,1.75,0.25,-0.36,0.33,3.89,570.97,11.9,17.9,5.25,3.25,9.25,12.5,9.25,4.75,3.25,1.0,1.0,1.75,1.25,0.5,0.75,0.08,0.14,0.95,844.18,-12.8,46.0
3.54,4.5,1.75,5.25,9.0,5.75,1.5,2.25,2.75,3.75,0.25,3.25,1.0,0.25,-0.42,0.39,3.95,607.19,13.4,30.5,6.0,3.75,10.5,13.5,9.25,4.75,3.75,1.0,1.0,1.5,2.0,0.5,0.75,0.08,0.14,0.95,930.58,-13.9,46.6
3.56,5.25,1.75,5.5,9.75,6.0,1.25,2.25,2.0,2.5,0.25,2.25,1.0,0.25,-0.48,0.45,4.08,628.64,14.8,38.6,6.25,3.75,11.0,14.0,9.5,4.5,4.0,1.0,0.5,1.5,0.5,0.5,0.5,0.14,0.14,1.02,990.76,-14.5,51.6
3.58,5.75,2.0,6.25,10.5,6.5,1.0,2.0,1.75,1.75,0.25,1.25,1.0,0.0,-1.23,0.64,4.95,645.94,16.0,46.3,7.0,3.75,11.5,14.0,9.25,3.5,3.75,1.0,0.25,1.5,0.5,0.25,0.5,0.14,0.14,1.52,1030.63,-15.7,53.7
3.6,6.0,1.75,6.5,10.5,6.25,0.25,1.5,1.75,1.5,0.25,0.5,1.0,0.25,-1.05,0.33,6.95,641.24,16.9,48.5,7.75,3.75,11.0,11.0,8.5,2.0,2.25,0.75,0.25,0.0,0.0,0.0,0.5,0.14,0.14,1.7,981.65,-18.1,61.6
3.62,6.25,1.75,6.25,9.25,5.25,0.0,0.75,1.5,1.0,0.0,0.75,1.0,0.25,-1.17,0.33,6.52,607.33,18.2,50.4,7.0,2.25,9.25,9.0,6.75,0.0,0.5,0.0,0.25,0.0,0.0,0.0,0.0,0.27,0.14,1.95,832.35,-21.3,66.7
3.64,5.75,1.75,5.5,7.5,2.25,0.0,0.25,1.5,1.0,0.0,0.5,1.0,0.25,-1.05,0.33,5.83,523.97,20.0,49.8,6.0,1.25,8.75,5.75,4.25,0.0,0.25,0.0,0.25,0.0,0.0,0.0,0.0,0.2,0.08,1.95,632.42,-23.9,67.2
3.66,4.5,0.75,4.0,6.0,0.75,0.0,0.0,1.5,1.0,0.0,0.5,0.75,0.0,-0.98,1.39,6.39,404.34,20.9,46.8,3.75,0.5,7.0,3.25,0.0,0.0,0.25,0.0,0.25,0.0,0.0,0.0,0.0,0.08,0.08,2.02,404.15,-31.3,68.3
3.68,3.0,0.5,2.0,4.5,0.0,0.0,0.25,1.5,1.0,0.0,0.5,0.75,0.25,-1.36,0.39,5.33,294.46,18.5,34.1,0.25,0.0,4.75,2.0,0.0,0.0,0.0,0.0,0.25,0.0,0.0,0.25,0.0,0.39,-0.48,2.27,240.99,-30.6,52.5
3.7,1.5,0.5,1.75,2.75,0.0,0.0,0.25,1.25,1.0,0.0,0.75,0.75,0.0,-0.86,-1.67,2.95,207.43,17.5,23.4,0.0,0.0,3.25,0.0,0.0,0.0,0.5,0.0,0.0,0.0,0.0,0.0,0.0,-0.05,-3.42,-1.55,91.81,-37.9,58.7
3.72,1.25,0.5,0.75,2.0,0.0,0.0,0.5,1.5,1.25,0.0,0.75,0.75,0.0,-3.8,-7.98,-2.36,129.15,13.9,10.8,0.0,0.5,2.75,1.75,0.0,2.0,0.25,0.5,0.25,0.0,0.25,0.25,0.25,0.58,-4.55,2.2,8.22,-11.8,33.9
3.74,1.25,0.5,1.0,2.25,0.0,0.0,0.25,1.5,1.0,0.0,0.5,0.75,0.0,-3.36,-5.11,6.64,77.01,14.5,17.2,0.0,0.5,3.0,1.5,0.25,2.0,0.25,0.75,0.25,0.75,0.25,0.25,0.25,0.64,-1.98,0.52,0.0,-9.1,24.5
3.76,0.75,0.5,1.0,1.5,0.0,0.0,0.5,1.25,1.0,0.0,0.25,0.25,0.0,-0.3,-3.98,1.02,38.99,14.9,21.7,0.0,0.5,3.0,1.0,0.0,2.0,0.25,0.5,0.25,1.0,0.25,0.25,0.25,0.33,-0.92,0.27,0.0,-9.1,20.6
3.78,0.5,0.5,0.75,1.5,0.0,0.0,0.5,1.25,1.0,0.0,0.5,0.5,0.0,-0.55,-1.3,1.52,19.11,12.9,9.3,0.0,0.5,2.75,0.5,0.0,2.0,0.25,0.75,0.25,0.5,0.25,0.25,0.0,0.52,-0.3,0.7,0.0,-9.1,25.3
3.8,0.5,0.5,0.5,0.75,0.0,0.0,0.5,1.0,1.0,0.0,0.25,0.5,0.0,-1.3,-1.92,2.39,2.57,12.5,5.8,0.0,0.5,2.75,0.75,0.0,1.75,0.25,0.5,0.25,0.75,0.25,0.25,0.0,0.83,0.02,0.7,0.0,-10.4,25.0
3.82,0.5,0.25,0.75,0.75,0.0,0.0,0.5,1.0,1.0,0.0,0.25,0.5,0.0,-1.17,-1.23,2.89,0.0,13.8,3.9,0.0,0.5,2.75,0.5,0.0,2.0,0.25,0.75,0.25,0.25,0.25,0.0,0.25,0.77,0.33,0.89,14.77,-9.2,28.5
3.84,0.25,0.5,0.25,0.75,0.0,0.0,0.5,1.0,1.0,0.0,0.25,0.25,0.0,-0.98,-0.23,2.64,0.0,10.1,4.2,0.0,0.0,1.5,0.5,0.0,1.75,0.0,0.0,0.25,0.75,0.0,0.25,0.0,0.7,0.58,0.89,27.57,-4.7,17.5
3.86,0.25,0.25,0.25,0.75,0.0,0.0,0.25,1.0,1.0,0.0,0.5,0.5,0.25,-0.42,0.52,3.02,12.25,8.2,-17.0,0.0,0.0,0.75,0.0,0.0,0.0,0.0,0.0,0.0,0.0,0.0,0.0,0.0,0.89,0.83,1.45,20.75,-38.2,60.9
3.88,0.0,0.5,0.25,1.0,0.0,0.0,0.25,0.75,1.0,0.0,0.0,0.5,0.25,0.39,1.33,3.77,26.65,8.7,-4.3,0.0,0.25,0.5,0.5,0.0,2.0,0.5,0.5,0.25,0.0,0.25,0.25,0.25,0.83,0.89,1.64,33.53,1.5,11.2
3.9,0.25,0.5,0.25,0.75,0.0,0.0,0.25,0.5,1.0,0.0,0.0,0.5,0.25,0.2,2.14,4.77,39.2,11.1,-0.4,0.0,0.5,2.75,0.5,0.0,2.0,0.25,0.25,0.25,0.0,0.25,0.5,0.25,0.83,1.14,1.77,61.31,-11.7,27.3
3.92,0.0,0.25,0.5,0.5,0.0,0.0,0.25,0.5,1.0,0.0,0.0,0.5,0.0,0.02,3.64,5.7,42.7,12.9,-6.3,0.0,0.5,2.75,0.5,0.0,2.0,0.0,0.25,0.25,0.0,0.25,0.25,0.0,0.95,1.58,1.89,84.93,-12.5,37.6
3.94,0.0,0.25,0.25,0.5,0.0,0.0,0.25,0.0,1.0,0.0,0.5,0.5,0.25,0.39,5.14,7.33,42.58,13.0,-24.4,0.0,0.5,2.75,0.25,0.0,2.0,0.25,0.25,0.25,0.25,0.25,0.25,0.25,1.08,2.08,1.45,100.16,-10.7,27.3
3.96,0.0,0.25,0.25,0.5,0.0,0.0,0.25,0.5,0.5,0.0,0.5,0.0,0.0,1.58,6.7,6.77,37.44,10.9,0.0,0.0,0.5,2.75,0.25,0.0,1.75,0.0,0.5,0.25,0.5,0.25,0.25,0.5,0.7,2.45,1.08,106.54,-8.8,16.8
3.98,0.0,0.0,0.0,0.5,0.0,0.0,0.0,0.0,1.0,0.0,0.0,0.5,0.0,3.2,7.7,4.7,30.28,12.6,-31.0,0.0,0.5,2.75,0.25,0.0,1.5,0.25,0.25,0.25,0.25,0.25,0.25,0.25,0.02,2.45,0.45,107.22,-13.1,26.8
4.0,0.0,0.25,0.0,0.5,0.0,0.0,0.5,0.0,1.0,0.0,0.0,0.5,0.25,3.39,7.77,3.58,29.99,11.9,-21.1,0.0,0.5,2.75,0.25,0.0,1.75,0.0,0.0,0.25,0.5,0.25,0.0,0.25,-0.23,2.08,0.33,106.92,-11.6,30.9
4.02,0.0,0.0,0.0,0.0,0.0,0.0,0.25,0.0,0.0,0.0,0.0,0.0,0.0,2.14,6.2,2.14,16.36,32.4,27.3,0.0,0.5,2.75,0.5,0.0,1.5,0.0,0.0,0.0,0.25,0.25,0.25,0.25,-0.86,1.7,0.39,106.63,-14.1,33.3
4.04,0.0,0.0,0.0,0.0,0.0,0.0,0.25,0.0,0.25,0.0,0.0,0.0,0.0,1.33,5.58,1.39,7.48,18.8,-17.0,0.0,0.0,0.5,0.0,0.0,0.0,0.0,0.0,0.0,0.0,0.0,0.0,0.0,-1.3,1.77,0.08,75.17,-38.2,60.9
4.06,0.0,0.0,0.0,0.0,0.0,0.0,0.0,0.0,0.25,0.0,0.0,0.0,0.0,1.64,5.27,1.08,0.0,12.1,-38.5,0.0,0.5,0.25,0.5,0.0,0.0,0.0,0.0,0.0,0.0,0.0,0.0,0.0,-1.17,1.77,0.14,50.15,-19.5,74.8
4.08,0.0,0.0,0.0,0.0,0.0,0.0,0.0,0.0,0.0,0.0,0.0,0.25,0.0,2.45,5.52,1.02,0.0,8.8,-109.9,0.0,0.5,2.5,0.25,0.0,1.75,0.25,0.0,0.25,0.0,0.25,0.25,0.25,-0.67,1.64,0.2,55.19,-13.0,32.6
4.1,0.0,0.0,0.0,0.0,0.0,0.0,0.25,0.0,0.0,0.0,0.0,0.0,0.25,1.83,5.58,1.52,0.0,0.9,-66.3,0.0,0.5,2.25,0.0,0.0,0.0,0.25,0.0,0.0,0.0,0.25,0.0,0.25,-0.11,1.58,0.14,54.45,-28.4,43.1
4.12,0.0,0.0,0.0,0.0,0.0,0.0,0.0,0.0,0.0,0.0,0.0,0.0,0.0,0.83,5.14,1.89,0.0,0.0,0.0,0.0,0.5,2.75,3.0,2.5,2.0,0.25,0.0,0.25,0.0,0.25,0.25,0.0,0.58,-0.42,2.95,101.98,-10.5,47.2
4.14,0.0,0.0,0.25,0.75,0.0,0.0,0.5,0.0,0.75,0.0,0.25,0.25,0.25,-0.17,4.95,1.95,7.6,14.9,-12.5,1.25,1.25,2.75,6.25,6.25,2.75,0.0,0.0,0.25,0.0,0.25,0.25,0.25,1.02,-0.05,1.39,195.45,-8.7,52.3
4.16,0.0,0.0,0.0,0.5,0.0,0.0,1.75,0.25,0.0,0.0,0.0,0.0,0.0,-3.36,-7.42,7.95,15.75,19.8,27.0,3.0,2.0,5.25,6.25,7.0,4.5,0.25,0.75,0.25,1.5,0.25,0.25,0.0,0.39,-0.05,2.52,309.99,-9.1,48.6
4.18,0.0,0.0,0.0,2.5,0.0,0.0,0.0,0.0,0.25,0.0,0.0,0.0,0.0,-3.86,-1.67,7.95,31.95,16.7,49.5,4.75,2.25,6.25,8.75,7.5,5.5,1.0,1.25,1.5,2.75,0.0,0.75,0.75,0.02,0.08,1.08,484.39,-9.2,40.3
4.2,0.5,0.5,0.0,6.5,0.0,0.0,0.0,0.0,0.5,0.0,0.0,0.0,0.0,0.33,0.58,7.95,73.96,17.6,56.9,5.25,2.25,7.0,8.75,7.5,5.75,1.5,2.5,1.5,3.25,2.75,1.0,1.25,0.08,0.02,1.08,690.85,-8.8,29.6
4.22,1.0,0.5,0.75,8.0,0.0,0.75,0.0,1.5,1.5,0.25,0.0,1.0,0.0,-1.17,0.58,7.95,145.96,12.5,29.3,5.25,2.25,7.75,9.0,8.0,6.0,1.75,2.75,1.5,3.25,2.75,1.0,1.5,0.14,0.14,0.95,868.14,-8.9,29.4
4.24,1.5,0.75,2.75,8.0,5.0,1.25,1.5,3.5,4.25,3.75,2.75,2.25,0.25,0.08,0.27,4.77,287.57,7.0,4.9,5.5,2.25,7.75,9.5,8.0,6.0,1.75,2.75,1.5,3.25,2.75,1.0,1.25,0.14,0.14,0.89,984.96,-9.2,30.7
4.26,1.5,0.5,3.5,8.0,3.25,1.25,1.75,5.0,4.75,3.75,5.5,3.0,1.5,0.02,-0.23,4.33,447.54,7.0,-9.2,5.75,2.75,7.75,10.5,8.0,6.0,2.0,2.75,1.5,3.0,2.75,1.0,1.0,0.14,0.14,0.95,1062.47,-9.7,33.3
4.28,2.25,1.0,3.0,9.0,3.75,1.5,2.0,4.75,4.5,2.25,4.75,2.0,1.5,-0.17,0.33,3.83,606.62,8.0,2.1,6.0,3.0,8.0,10.5,8.25,6.0,2.0,2.5,1.5,2.75,2.5,1.0,1.0,0.14,0.14,0.95,1102.14,-10.1,35.4
4.3,2.75,1.5,4.0,9.25,5.0,1.5,2.25,4.75,4.5,2.0,4.25,1.75,0.5,-0.55,0.39,3.83,714.18,9.4,12.3,6.0,3.0,8.0,11.0,8.25,6.0,2.0,2.5,1.5,2.0,2.5,1.0,1.0,0.14,0.08,0.95,1107.29,-10.6,37.1
4.32,3.0,1.75,4.5,9.75,5.75,1.5,2.25,4.75,4.5,2.0,4.0,1.5,0.25,-0.36,0.39,3.83,784.92,9.8,16.9,5.75,3.0,8.5,11.0,8.25,6.0,2.25,2.5,1.5,1.5,1.75,0.5,1.0,0.08,0.08,0.95,1084.65,-11.0,41.0
4.34,3.0,1.75,5.0,9.75,5.75,1.5,2.5,4.5,4.75,2.0,3.5,1.25,0.25,-0.23,0.39,3.89,817.22,10.4,19.1,5.75,3.0,8.25,11.0,8.75,5.75,2.0,2.25,1.0,1.75,1.5,0.5,0.75,0.14,0.14,0.95,1045.52,-11.0,42.9
4.36,3.0,1.75,5.25,9.25,5.75,1.5,2.25,4.25,4.5,1.75,3.5,1.25,0.25,-0.36,0.33,3.89,824.75,10.7,20.1,5.75,3.0,8.5,11.0,9.0,6.0,2.0,1.25,1.0,1.5,0.75,0.5,0.75,0.08,0.08,0.95,982.39,-11.5,46.8
4.38,3.0,1.75,4.75,9.25,5.5,1.25,2.25,3.75,4.5,1.5,3.25,1.25,0.25,-0.3,0.39,3.89,804.23,11.1,21.1,5.75,3.0,8.25,11.0,9.25,6.0,2.0,1.25,0.75,1.5,0.25,0.5,0.5,0.08,0.14,0.95,920.65,-11.4,49.2
4.4,2.75,1.25,4.75,9.0,5.0,1.0,2.0,3.5,4.5,1.0,3.25,1.25,0.25,-0.36,0.39,3.83,751.58,11.8,20.4,5.75,3.0,8.0,11.5,9.25,6.0,1.5,1.0,0.5,1.5,0.25,0.25,0.25,0.08,0.14,0.95,867.34,-11.5,51.8
4.42,3.0,1.25,4.5,9.0,5.0,1.0,2.0,3.5,4.0,0.75,3.25,1.0,0.25,-0.36,0.33,3.83,687.24,11.9,22.8,5.5,3.0,8.0,12.0,9.25,6.0,1.5,1.0,0.25,1.5,0.5,0.25,0.25,0.08,0.14,0.89,831.0,-11.5,51.5
4.44,3.0,1.0,4.25,9.0,5.0,1.0,2.0,3.5,3.75,0.25,3.0,1.0,0.25,-0.36,0.39,3.83,618.8,12.1,24.4,5.25,3.0,8.0,12.0,9.25,6.0,1.5,1.0,0.25,1.5,0.25,0.25,0.5,0.08,0.14,0.89,810.22,-11.2,51.1
4.46,3.0,1.0,3.75,9.0,5.0,0.75,2.0,3.5,3.5,0.25,2.75,1.0,0.25,-0.42,0.39,3.83,557.17,12.0,24.9,5.25,3.25,8.0,12.0,9.25,6.0,1.5,1.0,0.5,1.5,0.25,0.25,0.5,0.08,0.14,0.89,804.85,-11.3,50.9
4.48,3.0,0.75,3.75,9.0,5.0,0.75,1.75,3.25,3.25,0.25,2.25,1.0,0.25,-0.3,0.39,3.83,501.27,12.2,26.7,5.25,3.25,8.0,12.5,9.25,6.0,1.5,1.0,0.75,1.5,0.25,0.75,0.75,0.08,0.14,0.89,813.67,-11.2,48.2
4.5,3.0,1.25,3.5,8.75,5.0,1.0,1.75,2.75,3.0,0.25,2.25,1.0,0.25,-0.36,0.45,3.83,473.84,12.1,28.8,5.0,3.75,8.25,12.5,9.25,6.25,2.0,1.0,1.0,1.5,0.5,0.5,0.5,0.08,0.14,0.95,831.98,-11.3,48.9
4.52,3.0,1.0,3.5,8.0,5.0,1.0,1.75,2.75,3.0,0.25,2.25,1.0,0.25,-0.36,0.45,3.77,450.79,12.0,27.6,5.5,3.75,8.75,12.5,9.5,6.25,2.0,1.25,1.0,1.5,0.5,0.5,0.75,0.08,0.14,0.95,863.4,-11.4,48.3
4.54,3.0,0.75,3.5,8.0,5.0,0.75,1.75,3.0,3.0,0.25,2.25,1.0,0.25,-0.36,0.39,3.83,433.2,12.0,26.4,5.5,3.75,8.75,13.0,10.5,6.5,2.5,1.5,1.0,1.5,0.5,0.5,0.75,0.08,0.14,0.95,908.92,-11.0,48.0
4.56,3.0,0.75,3.25,8.0,5.0,1.0,1.75,3.0,3.0,0.25,2.25,1.0,0.25,-0.36,0.39,3.83,423.8,11.6,26.2,5.75,3.75,8.75,14.0,11.0,6.5,2.75,1.5,1.0,1.5,0.25,0.5,0.75,0.08,0.14,0.95,961.73,-11.1,48.9
4.58,4.25,1.25,3.5,9.0,5.0,1.0,1.75,3.0,3.0,0.25,2.25,1.0,0.25,-0.36,0.39,3.83,441.58,12.7,30.8,5.75,3.75,8.75,14.0,11.0,6.75,2.75,1.5,1.0,1.5,0.5,0.5,0.5,0.08,0.14,0.95,1004.31,-11.1,49.0
4.6,4.5,1.5,3.75,9.25,5.75,1.25,2.0,2.5,3.0,0.25,2.0,1.0,0.25,-0.36,0.39,3.83,472.83,12.9,34.3,6.0,3.75,9.25,14.0,11.0,6.75,2.75,1.0,0.25,1.5,0.25,0.25,0.75,0.08,0.14,0.95,1028.68,-11.5,51.7
4.62,4.5,1.5,4.0,9.25,5.75,1.25,2.0,2.5,3.0,0.25,2.0,1.0,0.25,-0.36,0.45,3.83,506.68,13.1,34.5,6.0,4.25,9.25,15.0,11.5,6.5,2.75,1.0,0.25,1.5,0.25,0.25,0.5,0.08,0.14,0.95,1053.29,-11.8,53.0
4.64,5.75,1.75,4.75,9.25,5.75,1.5,2.0,2.75,3.0,0.25,2.0,1.0,0.25,-0.36,0.39,3.83,549.51,13.8,36.8,7.0,4.5,9.5,15.5,12.0,6.5,2.75,1.0,0.25,0.5,0.25,0.25,0.5,0.08,0.14,1.02,1082.7,-12.6,56.0
4.66,5.75,1.75,5.25,10.5,5.75,1.5,2.25,2.5,3.0,0.25,2.0,1.0,0.25,-0.36,0.39,3.89,592.54,14.5,38.2,7.25,4.5,9.5,15.5,12.0,5.0,2.25,1.0,0.0,0.75,0.25,0.0,0.25,0.14,0.14,1.08,1091.67,-13.4,58.1
4.68,6.5,1.75,5.5,10.5,6.25,1.5,2.5,2.5,2.5,0.25,1.5,1.0,0.25,-0.3,0.39,3.89,632.99,14.8,41.7,6.75,3.75,9.0,12.5,9.25,4.5,1.5,0.0,0.0,0.0,0.0,0.0,0.0,0.14,0.2,1.08,1004.24,-15.3,63.4
4.7,6.75,1.75,5.5,10.5,6.5,1.5,2.75,1.75,2.25,0.25,1.25,1.0,0.25,-0.42,0.45,3.89,658.38,15.5,44.6,7.0,3.75,8.75,12.5,9.25,2.5,1.0,0.0,0.0,0.0,0.0,0.0,0.0,0.14,0.2,1.14,899.79,-16.8,65.0
4.72,7.25,1.75,6.25,11.5,7.0,1.5,2.75,1.75,1.5,0.25,1.25,0.5,0.25,-0.48,0.52,4.02,686.7,16.0,49.1,7.25,3.0,8.75,11.0,9.25,2.0,0.5,0.0,0.0,0.0,0.0,0.0,0.0,0.2,0.27,1.14,783.66,-17.3,65.4
4.74,7.25,1.75,6.25,11.5,7.25,1.25,2.5,1.75,1.25,0.0,0.75,0.5,0.25,-0.61,0.64,4.77,696.61,16.3,52.0,7.25,2.25,8.0,9.5,8.0,0.0,0.25,0.0,0.0,0.0,0.0,0.0,0.0,0.2,0.33,1.39,662.23,-19.8,67.3
4.76,7.75,1.75,6.5,11.5,7.0,0.5,1.75,1.5,1.0,0.0,0.5,0.5,0.0,-0.86,0.33,7.02,691.98,17.8,56.0,6.25,1.25,7.0,7.25,4.75,0.0,0.25,0.0,0.0,0.0,0.0,0.0,0.0,0.39,0.45,1.58,515.47,-22.2,68.0
4.78,7.75,1.75,6.25,9.75,5.75,0.0,1.0,1.5,1.0,0.25,0.5,0.25,0.25,-1.55,0.64,6.95,650.71,18.5,55.6,5.0,0.5,5.25,4.5,0.0,0.0,0.25,0.0,0.0,0.0,0.0,0.0,0.0,0.39,0.58,1.52,348.4,-29.9,72.2
4.8,7.75,1.25,5.5,8.0,2.0,0.0,0.5,1.5,1.0,0.0,0.5,0.0,0.25,-2.23,0.83,7.2,556.43,21.8,57.7,2.0,0.5,2.75,3.25,0.0,0.0,0.0,0.0,0.0,0.0,0.0,0.0,0.0,0.39,0.83,2.45,214.06,-27.7,70.0
4.82,7.25,0.75,2.75,6.5,0.0,0.0,0.25,0.75,1.0,0.0,0.5,0.25,0.0,-2.05,1.27,7.64,419.83,24.4,59.6,0.75,0.0,3.25,2.25,0.5,2.0,0.5,0.5,0.0,0.0,0.25,0.0,0.0,0.08,0.52,2.02,104.52,-15.2,48.0
4.84,6.0,0.5,1.75,3.5,0.5,0.0,0.5,1.5,1.0,0.0,0.0,0.25,0.0,-1.55,1.14,7.95,303.74,21.7,55.1,0.0,0.0,1.75,0.25,0.0,0.0,0.0,0.0,0.0,0.0,0.0,0.25,0.0,1.02,-0.48,1.58,0.0,-32.7,42.2
4.86,3.0,0.5,1.0,2.75,0.25,0.0,0.5,1.5,1.0,0.0,0.25,0.0,0.0,-2.92,-2.67,6.27,212.7,18.1,44.1,0.0,0.5,2.75,2.0,0.25,0.0,0.25,0.25,0.25,0.0,0.25,0.25,0.0,0.83,-0.86,-0.48,0.0,-23.0,43.7
4.88,1.5,0.5,0.0,2.5,0.0,0.0,0.5,1.25,1.0,0.0,0.5,0.25,0.0,-5.3,-7.98,0.45,124.1,13.7,25.3,0.0,0.5,2.75,1.75,0.25,0.0,0.25,0.0,0.25,0.0,0.25,0.25,0.0,0.77,-0.36,0.77,0.0,-24.8,46.4
4.9,1.25,0.5,0.25,2.5,0.0,0.0,0.5,1.25,1.0,0.0,0.25,0.0,0.0,-2.73,-7.3,-0.42,59.32,14.2,32.2,0.0,0.5,2.75,1.5,0.25,0.0,0.25,0.0,0.25,0.0,0.25,0.25,0.0,0.27,-0.3,0.27,0.0,-25.1,45.9
4.92,1.25,0.25,0.0,2.5,0.0,0.0,0.5,1.0,1.0,0.0,0.25,0.25,0.0,-2.05,-5.67,0.45,19.58,14.3,25.9,0.0,0.5,2.75,1.25,0.0,0.0,0.25,0.0,0.25,0.0,0.25,0.25,0.0,0.33,-0.3,0.39,0.0,-27.0,44.9
4.94,0.0,0.0,0.0,0.75,0.0,0.0,0.5,1.25,0.75,0.0,0.0,0.0,0.0,-2.73,-4.42,1.52,0.0,3.0,-8.2,0.0,0.5,2.75,0.75,0.0,0.0,0.25,0.5,0.25,0.0,0.25,0.25,0.0,0.52,-0.36,0.77,0.0,-24.0,36.0
4.96,0.0,0.0,0.25,0.5,0.0,0.0,0.25,0.75,0.5,0.0,0.0,0.0,0.0,-1.11,-3.86,2.58,0.0,7.5,0.5,0.0,0.5,1.75,1.0,0.0,0.5,0.0,0.0,0.0,0.25,0.0,0.25,0.0,0.52,-0.36,0.89,0.0,-18.6,44.1
4.98,1.25,0.0,0.5,0.75,0.0,0.0,0.5,0.75,1.0,0.0,0.0,0.25,0.0,-0.05,-3.36,4.14,0.0,17.7,22.0,0.0,0.5,2.75,1.0,0.0,0.0,0.25,0.0,0.25,0.0,0.25,0.25,0.0,0.39,-0.05,0.89,23.2,-27.5,44.2
5.0,0.5,0.5,0.25,1.0,0.0,0.0,0.5,0.5,1.0,0.0,0.0,0.25,0.0,1.08,-3.42,6.52,0.0,15.0,22.2,0.0,0.0,2.75,0.5,0.0,0.0,0.25,0.0,0.25,0.0,0.25,0.25,0.0,0.45,0.2,0.89,42.3,-30.6,35.9
5.02,0.5,0.25,0.0,0.75,0.0,0.0,0.5,0.25,1.0,0.0,0.5,0.25,0.0,1.95,-2.17,7.83,0.0,15.0,3.1,0.0,0.5,2.75,0.5,0.0,0.0,0.25,0.0,0.25,0.25,0.25,0.25,0.0,0.64,0.27,1.08,62.47,-26.4,36.8
5.04,0.0,0.25,0.0,0.75,0.0,0.0,0.5,0.5,1.0,0.0,0.25,0.25,0.0,3.02,-0.67,7.95,7.29,10.1,-7.8,0.0,0.5,2.75,0.5,0.0,0.0,0.0,0.0,0.25,0.0,0.25,0.25,0.0,0.77,0.39,1.2,69.33,-28.5,43.1
5.06,0.0,0.25,0.0,0.75,0.0,0.0,0.5,0.75,1.0,0.0,0.25,0.25,0.0,2.77,0.02,7.95,23.05,8.2,-10.0,0.0,0.5,2.75,0.5,0.0,0.0,0.0,0.0,0.25,0.0,0.25,0.25,0.25,0.77,0.58,1.27,73.52,-26.3,35.0
5.08,0.25,0.25,0.0,0.75,0.0,0.0,0.5,0.25,1.0,0.0,0.25,0.25,0.0,1.2,0.83,7.95,30.08,13.9,2.1,0.0,0.5,2.75,0.5,0.0,0.0,0.25,0.0,0.25,0.0,0.25,0.25,0.0,0.83,0.77,1.33,77.39,-28.6,42.7
5.1,0.0,0.25,0.0,0.5,0.0,0.0,0.5,0.0,1.0,0.0,0.0,0.0,0.0,0.64,2.2,7.77,30.81,15.9,12.1,0.0,0.5,2.75,0.5,0.0,0.0,0.25,0.0,0.0,0.0,0.25,0.25,0.0,0.89,0.77,1.39,73.35,-29.6,47.2
5.12,0.0,0.0,0.0,0.5,0.0,0.0,0.25,0.0,0.75,0.0,0.25,0.25,0.25,1.33,2.95,7.95,29.62,10.8,-32.2,0.0,0.5,2.75,0.5,0.0,0.0,0.0,0.0,0.25,0.0,0.25,0.0,0.0,0.95,0.83,1.52,72.86,-29.7,51.9
5.14,0.0,0.0,0.0,0.0,0.0,0.0,0.25,0.0,0.75,0.0,0.25,0.0,0.0,3.83,3.02,7.95,21.34,14.0,-39.5,0.0,0.5,2.75,0.25,0.0,0.0,0.0,0.0,0.0,0.0,0.25,0.25,0.0,1.02,1.02,1.58,70.74,-30.3,47.1
5.16,0.0,0.25,0.0,0.5,0.0,0.0,0.25,0.5,0.25,0.0,0.25,0.25,0.0,4.77,4.83,6.27,22.16,7.2,-7.1,0.0,0.5,2.75,0.25,0.0,0.0,0.25,0.0,0.0,0.0,0.25,0.25,0.0,0.77,1.27,1.58,70.04,-30.3,46.5
5.18,0.0,0.25,0.0,0.5,0.0,0.0,0.25,0.5,1.0,0.0,0.25,0.25,0.0,5.14,7.27,5.2,28.5,8.5,-15.2,0.0,0.5,2.75,0.5,0.0,0.0,0.0,0.0,0.25,0.0,0.25,0.25,0.0,0.45,2.08,-0.05,71.48,-28.5,43.1
5.2,0.0,0.25,0.25,0.0,0.0,0.0,0.5,1.0,0.75,0.0,0.0,0.25,0.0,7.45,7.89,3.14,33.25,5.5,-17.0,0.0,0.5,2.75,0.25,0.0,0.0,0.0,0.0,0.25,0.0,0.25,0.25,0.25,0.45,1.77,0.83,73.49,-26.8,33.7
5.22,0.0,0.0,0.25,0.0,0.0,0.0,0.5,4.0,2.0,0.0,0.0,0.0,0.0,7.64,7.95,2.27,55.02,-3.9,-32.3,0.0,0.5,0.5,0.25,0.0,0.0,0.0,0.0,0.25,0.0,0.0,0.25,0.0,0.27,2.14,0.89,58.67,-20.1,34.0
5.24,0.0,0.0,0.0,0.5,0.0,0.0,1.5,0.0,0.75,0.0,0.0,0.25,0.0,6.58,7.95,1.89,54.58,19.5,-2.6,0.0,0.5,2.75,0.25,0.0,0.0,0.25,0.0,0.25,0.75,0.25,0.0,0.0,-0.23,2.39,0.52,63.04,-23.5,31.7
5.26,0.0,0.0,0.0,0.0,0.0,0.0,3.75,2.5,0.25,0.0,0.0,0.0,0.0,-0.3,2.14,3.77,64.7,4.2,-12.6,0.0,0.0,0.75,0.0,0.0,0.0,0.0,0.0,0.0,0.0,0.0,0.0,0.0,-0.67,2.89,0.39,42.21,-38.2,60.9
5.28,0.0,0.0,0.0,0.0,0.0,0.0,0.0,0.0,0.25,0.25,0.0,1.0,0.25,-2.98,3.08,7.39,53.16,2.5,-94.9,0.0,0.0,0.25,0.0,0.0,0.0,0.0,0.0,0.0,0.0,0.0,0.0,0.0,-0.8,2.7,0.39,25.71,-38.2,60.9
5.3,0.0,0.0,0.0,0.0,0.0,0.0,0.0,0.0,0.5,2.0,0.75,2.75,2.75,-0.92,1.27,5.33,89.42,-3.6,-95.2,0.0,0.0,2.5,0.0,0.0,0.0,0.0,0.0,0.0,1.25,0.25,0.5,0.75,-0.73,1.83,0.52,33.68,-14.1,-17.8
5.32,0.0,0.25,0.0,0.0,0.0,0.0,0.25,2.75,1.75,4.75,3.25,4.0,5.25,0.58,1.08,6.33,185.33,-4.3,-80.0,0.0,0.5,0.25,0.25,0.0,0.0,0.0,0.75,0.25,4.75,0.5,2.5,3.5,-0.8,0.14,2.08,99.14,6.3,-76.4
5.34,0.0,0.25,0.0,0.5,0.0,0.0,0.5,3.5,2.0,5.0,5.5,5.0,5.25,-0.61,0.39,4.08,285.87,-2.4,-76.0,0.25,0.0,2.0,0.5,0.0,2.25,0.25,1.0,1.0,6.5,2.5,3.25,4.0,-0.36,0.7,3.58,199.54,2.4,-55.9
5.36,0.5,0.25,0.0,0.5,0.0,0.0,0.25,3.75,2.0,5.25,5.75,5.0,5.5,-0.11,0.33,3.89,379.15,-2.1,-73.6,0.0,0.0,0.5,0.25,0.0,2.0,0.0,1.75,0.75,6.5,5.0,3.5,4.0,-0.17,0.52,0.95,281.46,4.7,-69.5
5.38,0.0,0.25,0.0,0.5,0.0,0.0,0.25,4.5,2.25,6.25,5.75,5.0,5.5,-0.61,0.27,3.77,459.05,-3.4,-75.2,0.0,0.0,1.5,0.25,0.0,2.0,0.0,2.5,1.0,6.75,5.5,3.0,4.5,0.02,0.02,1.02,356.19,3.5,-63.6
5.4,0.0,0.25,0.0,0.5,0.0,0.0,0.25,4.75,2.5,6.25,6.0,5.25,5.75,-0.48,0.33,3.83,511.9,-3.3,-75.2,0.0,0.0,1.25,0.25,0.0,2.0,0.0,2.5,0.75,6.5,4.75,2.5,5.0,0.08,0.08,0.95,394.86,4.8,-64.7
5.42,0.0,0.25,0.0,0.75,0.0,0.0,0.25,5.25,3.0,6.5,6.75,5.5,6.0,-0.42,0.27,3.89,553.73,-2.9,-73.6,0.0,0.0,1.75,0.25,0.0,2.0,0.0,2.5,1.0,6.5,4.75,2.5,5.0,0.14,0.08,0.95,418.38,3.8,-62.0
5.44,0.25,0.5,0.25,0.75,0.0,0.25,0.0,5.5,3.0,7.0,7.0,5.75,6.25,-0.42,0.27,3.89,596.35,-2.6,-70.2,0.0,0.0,2.0,0.0,0.0,2.0,0.0,2.5,1.0,7.0,4.75,2.5,5.0,0.14,0.08,0.89,428.22,3.8,-62.2
5.46,0.0,0.5,0.25,0.75,0.0,0.0,0.25,5.75,3.25,7.0,7.5,6.25,6.75,-0.42,0.2,3.89,639.49,-2.5,-72.3,0.0,0.0,2.75,0.25,0.0,2.25,0.0,2.5,1.0,7.5,5.0,3.5,5.0,0.08,0.08,0.95,451.6,2.3,-59.1
5.48,0.25,0.5,0.25,1.0,0.0,0.0,0.0,6.0,3.25,7.0,7.5,6.25,6.75,-0.36,0.2,3.83,670.64,-2.3,-70.5,0.25,0.5,3.25,2.25,2.5,2.5,0.5,4.0,1.25,7.5,6.5,2.75,5.0,0.08,0.08,0.95,506.69,0.5,-37.4
5.5,0.5,0.5,0.25,1.0,0.0,0.25,0.5,6.0,3.25,7.0,7.5,6.25,6.75,-0.42,0.2,3.89,681.93,-2.0,-68.3,0.0,0.5,3.5,2.0,2.25,4.0,0.5,4.0,1.5,8.25,6.5,3.75,6.0,0.14,0.08,0.95,583.21,1.6,-40.5
5.52,0.5,0.25,0.25,0.75,0.0,0.0,0.5,5.75,3.25,7.0,7.5,6.0,6.75,-0.48,0.2,3.83,670.68,-2.1,-70.8,0.0,0.5,4.0,2.5,3.25,4.25,0.5,4.5,1.5,8.25,6.5,3.75,6.0,0.14,0.08,0.95,653.15,1.2,-35.4
5.54,0.0,0.25,0.25,0.75,0.0,0.0,0.5,5.5,3.25,7.0,7.25,5.75,6.25,-0.42,0.27,3.83,633.37,-2.4,-72.4,0.0,0.5,4.25,2.75,4.25,4.25,0.5,5.0,1.5,8.25,6.5,3.75,6.0,0.14,0.08,0.95,702.19,1.1,-32.2
5.56,0.0,0.5,0.5,1.0,0.0,0.0,0.5,5.5,3.5,6.5,7.0,6.0,6.25,-0.42,0.2,3.83,598.99,-1.6,-69.3,0.0,0.5,4.5,2.75,4.25,4.5,0.75,5.25,1.75,8.25,6.5,3.75,6.0,0.14,0.08,0.95,732.17,0.9,-31.4
5.58,0.25,0.25,1.0,1.25,0.0,0.0,0.5,5.5,3.5,6.5,7.0,5.75,6.25,-0.42,0.27,3.83,581.22,-0.9,-66.5,0.0,0.5,4.75,3.0,4.25,4.5,1.0,5.25,2.0,8.0,6.5,3.75,6.0,0.14,0.08,0.95,749.44,0.4,-30.1
5.6,0.0,0.25,1.0,1.25,0.0,0.0,0.75,5.5,3.75,6.25,7.25,5.75,6.0,-0.42,0.27,3.83,571.29,-0.7,-66.7,0.25,1.0,4.75,3.0,4.25,4.5,1.0,5.0,2.25,7.75,6.5,3.5,5.75,0.08,0.08,0.95,759.39,0.0,-27.1
5.62,0.5,0.25,1.5,1.5,0.0,0.25,0.75,5.5,3.75,6.25,7.25,5.75,6.0,-0.42,0.27,3.83,569.79,0.2,-61.6,0.0,0.5,5.25,3.0,4.25,4.5,0.75,4.25,2.0,7.5,5.75,2.5,5.0,0.08,0.08,0.95,736.76,-0.2,-23.8
5.64,0.75,0.25,1.75,1.5,0.0,0.25,1.0,5.5,4.0,6.25,7.0,5.75,6.0,-0.36,0.27,3.83,571.77,0.7,-59.3,0.0,0.75,5.5,4.0,4.5,4.5,1.0,4.25,2.0,7.25,5.75,2.5,5.0,0.08,0.08,0.95,723.79,-1.0,-20.0
5.66,0.75,0.5,1.75,2.0,0.0,0.25,1.0,5.5,4.25,6.25,7.25,5.75,6.0,-0.42,0.2,3.83,579.11,1.1,-56.8,0.0,1.0,5.5,5.25,4.75,4.5,1.25,4.25,2.0,7.0,5.5,2.5,4.5,0.08,0.08,0.95,714.22,-1.8,-15.1
5.68,1.25,0.5,1.75,2.5,0.0,0.5,0.75,5.5,4.25,6.25,7.5,5.75,6.0,-0.42,0.27,3.83,591.67,1.6,-53.5,0.0,1.0,5.5,5.25,5.5,4.5,1.25,4.0,2.0,7.0,5.25,2.5,4.5,0.08,0.08,0.95,713.7,-1.7,-13.5
5.7,1.25,0.5,1.75,2.5,0.0,0.5,1.0,5.5,4.5,6.25,7.25,5.5,5.5,-0.42,0.2,3.83,598.63,1.8,-52.0,0.5,1.25,5.5,5.25,5.75,4.5,1.25,4.0,2.0,7.0,5.5,2.5,4.25,0.08,0.08,0.95,717.0,-2.2,-11.3
5.72,1.5,0.5,1.75,2.5,0.0,0.5,1.0,5.5,4.5,5.5,7.0,5.5,5.25,-0.36,0.27,3.89,595.48,2.4,-50.2,0.5,1.25,5.75,5.5,6.25,4.75,1.25,4.0,2.5,6.75,5.25,2.5,3.75,0.08,0.08,0.95,725.21,-2.6,-8.2
5.74,1.5,0.5,2.0,2.5,0.0,0.5,1.5,5.25,4.5,5.0,7.0,5.0,5.25,-0.42,0.27,3.89,583.24,3.0,-48.0,1.25,1.25,6.25,5.75,6.25,4.5,1.5,4.0,2.75,6.5,5.25,2.5,4.25,0.08,0.08,0.95,745.85,-3.6,-6.7
5.76,1.75,0.5,2.0,2.5,0.75,0.5,1.5,5.25,4.5,5.0,6.75,5.0,4.0,-0.36,0.27,3.83,566.38,3.6,-42.7,0.75,1.25,6.75,7.0,6.25,4.75,1.75,4.0,2.75,6.5,5.0,2.25,3.5,0.08,0.08,0.95,768.53,-4.1,-2.8
5.78,2.75,0.5,1.0,2.75,0.25,0.75,1.75,5.25,4.75,4.5,6.75,4.75,4.0,-0.36,0.27,3.83,547.94,3.8,-41.2,0.75,1.5,6.75,7.0,6.5,5.0,2.0,4.0,2.75,6.5,5.0,2.25,3.5,0.08,0.08,0.95,794.86,-4.1,-1.8
5.8,3.0,0.5,2.0,3.5,0.75,0.75,1.75,5.25,4.75,3.75,6.25,4.0,3.75,-0.36,0.27,3.83,529.57,5.4,-31.4,1.0,1.5,6.75,7.0,6.5,5.0,2.0,4.0,2.75,6.25,4.75,1.75,3.5,0.08,0.08,0.95,809.36,-4.2,0.3
5.82,3.5,0.5,2.75,4.5,1.0,0.75,2.0,5.0,4.75,3.75,6.0,3.75,2.75,-0.36,0.27,3.83,521.52,7.3,-22.2,1.0,1.5,7.0,7.25,6.5,5.0,2.0,4.0,2.75,5.75,4.75,1.25,2.75,0.08,0.08,0.95,811.59,-4.9,4.3
5.84,4.5,0.5,3.5,5.5,2.0,1.0,2.0,4.75,4.5,2.0,5.5,3.0,2.5,-0.42,0.27,3.89,525.37,9.5,-7.9,1.25,2.0,7.0,7.5,6.5,5.0,2.25,4.0,2.75,5.5,4.5,1.0,2.75,0.08,0.08,0.95,812.53,-5.3,7.3
5.86,5.25,0.5,3.5,6.5,3.25,1.0,2.0,4.75,4.25,1.75,4.75,2.0,1.5,-0.36,0.33,3.83,536.52,10.4,4.7,1.5,2.25,7.75,8.75,6.5,5.5,2.5,3.25,2.75,4.75,4.0,1.0,2.25,0.08,0.08,0.95,820.5,-6.8,14.2
5.88,5.75,0.5,3.75,7.75,3.5,1.0,2.25,4.25,3.5,0.5,3.25,1.25,1.25,-0.36,0.39,3.89,537.95,12.4,18.7,2.25,2.25,7.75,8.75,7.5,5.25,2.5,2.75,2.0,3.75,3.25,1.0,1.5,0.08,0.08,0.95,813.66,-7.9,22.4
5.9,6.5,0.75,4.5,8.25,5.0,1.0,2.25,3.5,2.5,0.25,2.5,1.0,0.5,-0.48,0.45,3.95,543.6,14.1,32.2,2.5,2.25,8.0,9.0,8.0,4.5,2.5,2.5,2.0,3.0,2.75,1.0,1.5,0.08,0.08,0.95,803.89,-9.0,26.1
5.92,6.75,1.25,5.25,9.25,5.75,1.0,2.25,2.5,1.75,0.25,1.5,1.0,0.25,-0.55,0.58,4.2,553.31,15.5,42.1,3.25,2.5,8.75,10.5,8.0,4.0,2.5,1.75,1.0,1.5,2.0,0.5,1.0,0.08,0.08,0.95,783.88,-11.8,39.1
5.94,6.75,1.5,5.5,10.5,5.75,0.25,2.0,1.75,1.25,0.25,1.25,1.0,0.25,-0.67,0.64,4.45,564.22,17.0,46.7,4.25,0.75,8.75,10.5,8.0,3.75,2.25,1.25,0.75,1.5,0.75,0.25,0.75,0.08,0.14,1.02,741.78,-12.9,44.2
5.96,6.75,1.5,5.5,10.5,5.75,0.0,1.5,1.75,1.0,0.25,0.75,1.0,0.25,-1.05,0.77,5.52,566.02,17.3,49.1,5.0,1.75,8.75,9.75,8.0,2.0,1.5,1.25,0.25,0.0,0.5,0.0,0.75,0.14,0.14,1.39,684.66,-15.6,53.9
5.98,6.5,0.75,5.25,9.25,5.75,0.0,1.0,1.75,1.0,0.25,1.25,1.0,0.25,-1.42,0.89,5.77,548.72,16.9,45.6,4.0,1.0,8.0,7.25,6.25,1.25,0.5,0.0,0.0,0.0,0.25,0.0,0.0,0.2,0.14,1.33,568.27,-18.6,61.8
6.0,6.5,0.5,3.5,8.0,3.25,0.0,0.5,1.75,1.0,0.25,1.0,1.0,0.25,-2.48,2.02,5.77,486.61,17.6,44.0,4.0,0.5,8.0,5.5,3.75,0.0,0.25,0.0,0.0,0.0,0.0,0.0,0.0,0.27,0.2,1.45,435.84,-23.8,65.5
6.02,5.75,0.5,1.75,4.75,0.0,0.0,0.25,1.75,1.0,0.25,1.0,1.0,0.25,-3.11,1.58,5.2,376.53,19.3,35.7,3.5,0.0,7.0,3.0,0.0,0.0,0.0,0.0,0.0,0.0,0.0,0.0,0.0,0.33,0.27,1.77,298.24,-32.6,69.1
6.04,4.5,0.5,0.25,2.75,0.0,0.0,0.25,1.5,1.0,0.25,0.75,1.0,0.25,-1.61,1.45,7.95,275.6,16.7,26.8,1.0,0.0,5.25,1.75,0.0,0.0,0.25,0.0,0.0,0.0,0.0,0.0,0.0,0.58,0.45,1.95,192.31,-33.1,63.9
6.06,1.25,0.0,0.25,2.5,0.0,0.0,0.25,1.25,1.0,0.25,0.75,1.0,0.25,-0.73,1.02,6.89,180.58,11.5,-1.4,0.0,0.0,2.75,0.25,0.0,0.0,0.0,0.0,0.0,0.0,0.0,0.0,0.0,0.27,0.45,2.39,69.39,-36.5,60.7
6.08,0.25,0.0,0.25,1.0,0.0,0.0,0.25,1.5,1.0,0.25,0.75,1.0,0.25,-1.86,1.58,5.45,93.14,5.6,-32.1,0.0,0.0,1.75,0.0,0.0,0.0,0.0,0.0,0.0,0.0,0.0,0.5,0.0,0.52,0.2,2.2,0.0,-31.9,24.0
6.1,0.25,0.0,0.0,0.5,0.0,0.0,0.25,1.75,0.75,0.0,0.75,0.0,0.25,-2.98,-1.55,5.95,22.82,1.1,-28.2,0.0,0.0,1.25,0.25,0.0,0.0,0.0,0.0,0.0,0.0,0.0,0.0,0.0,2.45,-1.61,-0.23,0.0,-34.7,60.4
6.12,0.0,0.0,0.0,0.0,0.0,0.0,0.25,0.0,1.0,0.25,0.0,0.0,0.0,-1.98,-6.3,1.64,0.0,8.8,-39.5,0.0,0.0,1.25,0.0,0.0,0.0,0.0,0.0,0.0,0.0,0.0,0.0,0.0,2.08,-0.67,0.08,0.0,-38.2,61.0
6.14,0.0,0.0,0.0,0.25,0.0,0.0,0.25,1.5,1.0,0.0,0.75,0.5,0.25,-2.73,-3.86,3.45,0.0,0.9,-49.5,0.0,0.0,1.0,0.0,0.0,0.0,0.0,0.0,0.0,0.0,0.0,0.0,0.0,0.7,-0.05,0.33,0.0,-38.2,60.9
6.16,0.0,0.0,0.0,0.5,0.0,0.0,0.25,1.25,1.0,0.0,0.75,0.5,0.25,-1.67,-2.55,2.7,0.0,2.9,-43.7,0.0,0.5,0.5,0.0,0.0,0.0,0.0,0.0,0.0,0.0,0.0,0.0,0.0,0.2,-0.17,0.58,0.0,-25.4,79.9
6.18,0.25,0.0,0.0,0.5,0.0,0.0,0.25,0.0,1.0,0.0,0.0,0.25,0.0,-1.11,-2.98,1.89,0.0,16.7,-4.2,0.0,0.0,0.5,0.0,0.0,0.0,0.25,0.5,0.0,0.0,0.0,0.0,0.0,0.33,-0.3,0.58,0.0,-13.4,13.4
6.2,0.5,0.0,0.0,0.5,0.0,0.0,0.25,1.0,1.0,0.25,0.75,0.75,0.25,-1.23,-2.73,3.2,0.0,6.2,-35.7,0.0,0.0,0.5,0.0,0.0,0.0,0.0,0.0,0.0,0.0,0.0,0.0,0.0,0.2,-0.3,0.7,0.0,-38.2,60.9
6.22,0.25,0.0,0.0,0.0,0.0,0.0,0.25,1.5,0.25,0.0,0.75,1.0,0.25,-0.36,-2.36,3.95,0.0,0.7,-57.3,0.0,0.0,0.5,0.0,0.0,0.0,0.0,0.0,0.0,0.0,0.0,0.0,0.0,0.2,-0.17,0.7,0.0,-38.2,60.9
6.24,0.0,0.0,0.0,0.0,0.0,0.0,0.25,0.0,0.25,0.0,0.0,0.0,0.0,0.89,-1.48,4.89,0.0,18.8,-17.0,0.0,0.0,0.5,0.0,0.0,0.5,0.0,0.0,0.25,0.0,0.0,0.0,0.0,0.14,-0.05,0.83,0.0,-9.6,30.7
6.26,0.0,0.0,0.0,0.0,0.0,0.0,0.0,0.0,0.25,0.0,0.0,0.0,0.0,1.58,-0.86,5.08,0.0,12.1,-38.5,0.0,0.0,0.5,0.0,0.0,0.0,0.0,0.0,0.0,0.0,0.0,0.0,0.0,0.14,0.14,0.77,0.0,-38.2,60.9
6.28,0.0,0.0,0.0,0.0,0.0,0.0,0.0,0.0,0.25,0.0,0.0,0.0,0.0,2.2,-0.23,5.27,0.0,12.1,-38.5,0.0,0.0,0.25,0.0,0.0,0.0,0.0,0.0,0.0,0.0,0.0,0.0,0.0,0.2,0.33,0.77,0.0,-38.2,60.9
6.3,0.0,0.0,0.0,0.0,0.0,0.0,0.0,0.0,0.25,0.0,0.0,0.0,0.0,2.52,-0.05,5.52,0.0,12.1,-38.5,0.0,0.0,0.5,0.0,0.0,0.0,0.0,0.0,0.0,0.0,0.0,0.0,0.0,0.33,0.45,0.89,3.92,-38.2,60.9
6.32,0.0,0.0,0.0,0.0,0.0,0.0,0.0,0.0,1.0,0.25,0.0,0.25,0.0,2.39,-0.11,5.77,0.0,6.9,-56.7,0.0,0.0,0.5,0.0,0.0,0.0,0.0,0.0,0.0,0.0,0.0,0.0,0.0,0.33,0.58,1.08,5.0,-38.2,60.9
6.34,0.0,0.0,0.0,0.0,0.0,0.0,0.0,0.0,0.5,0.0,0.0,0.0,0.0,2.52,0.58,6.2,2.15,12.1,-38.5,0.0,0.5,1.75,0.25,0.0,2.0,0.0,0.75,0.0,0.0,0.25,0.25,0.0,0.39,0.83,1.14,36.13,-5.0,29.0
6.36,0.0,0.0,0.25,0.0,0.0,0.0,0.25,0.5,0.25,0.0,0.0,0.0,0.0,2.95,1.14,6.7,6.9,7.4,-8.8,0.0,0.5,2.5,0.25,0.0,1.75,0.0,0.5,0.0,0.0,0.25,0.25,0.0,0.27,1.14,1.02,66.21,-11.3,35.7
6.38,0.0,0.0,0.0,0.0,0.0,0.0,0.0,0.0,0.5,0.0,0.0,0.0,0.0,2.45,2.2,6.39,2.03,12.1,-38.5,0.0,0.0,2.75,0.25,0.0,1.75,0.0,0.5,0.0,0.0,0.25,0.0,0.0,0.02,1.52,0.89,90.31,-12.6,37.6
6.4,0.0,0.0,0.0,0.0,0.0,0.0,0.0,0.0,0.25,0.0,0.0,0.0,0.0,1.52,3.7,5.58,1.05,12.1,-38.5,0.0,0.0,0.25,0.0,0.0,0.0,0.0,0.0,0.0,0.0,0.0,0.0,0.0,-0.3,2.2,0.39,72.79,-38.2,60.9
6.42,0.0,0.0,0.0,0.0,0.0,0.0,0.0,0.0,0.25,0.0,0.0,0.0,0.0,2.08,5.08,5.27,0.0,12.1,-38.5,0.0,0.0,0.5,0.0,0.0,0.0,0.0,0.0,0.0,0.0,0.0,0.0,0.0,-0.48,1.58,0.52,51.88,-38.2,60.9
6.44,0.0,0.0,0.0,0.0,0.0,0.0,0.0,0.0,0.5,0.0,0.0,0.0,0.0,6.2,6.83,2.83,0.0,12.1,-38.5,0.0,0.5,2.75,0.25,0.0,2.0,0.0,0.25,0.0,0.0,0.25,0.0,0.0,-0.17,1.08,0.45,59.07,-12.4,45.9
6.46,0.0,0.0,0.0,0.0,0.0,0.0,0.0,0.0,0.25,0.0,0.0,0.0,0.0,6.33,7.95,2.27,1.56,12.1,-38.5,0.0,0.5,2.75,0.25,0.0,1.25,0.0,0.25,0.0,0.0,0.25,0.0,0.0,-0.36,1.33,1.02,72.07,-17.2,47.5
6.48,0.0,0.0,0.0,0.0,0.0,0.0,0.0,0.0,0.5,0.0,0.0,0.0,0.0,7.95,7.95,3.83,6.0,12.1,-38.5,0.0,0.0,2.5,0.0,0.0,0.0,0.25,0.0,0.0,0.0,0.25,0.0,0.0,-0.73,1.14,0.95,75.94,-35.7,48.3
6.5,0.0,0.0,0.0,0.0,0.0,0.0,0.0,0.25,1.0,2.0,1.25,2.0,0.25,-0.11,1.33,5.58,44.77,0.5,-80.2,0.0,0.0,0.5,0.0,0.0,0.0,0.0,0.0,0.0,0.0,0.0,0.0,0.0,-0.61,0.83,0.7,59.09,-38.2,60.9
6.52,0.0,0.25,0.25,0.0,0.0,0.0,0.25,2.0,1.5,2.0,3.0,3.0,2.25,-0.67,-0.23,3.7,120.24,-0.2,-72.8,0.0,0.0,0.25,0.0,0.0,0.0,0.0,0.0,0.0,0.0,0.0,0.0,0.0,-0.42,0.7,0.77,35.21,-38.2,60.9
6.54,0.5,0.25,0.0,0.5,0.0,0.0,0.25,2.0,2.0,2.0,3.0,2.0,1.5,-0.42,0.39,4.02,178.1,1.4,-58.5,0.0,0.0,0.25,0.0,0.0,0.0,0.0,0.0,0.0,0.0,0.0,0.0,0.0,-0.48,0.58,0.64,10.64,-38.2,60.9
6.56,0.0,0.25,0.0,0.75,0.0,0.0,0.0,2.0,2.0,2.0,3.0,2.0,1.5,-0.42,0.2,3.7,215.69,0.2,-62.5,0.0,0.0,0.25,0.0,0.0,0.0,0.0,0.0,0.0,0.0,0.0,0.0,0.0,-0.55,0.58,0.7,0.0,-38.2,60.9
6.58,0.0,0.25,0.0,0.5,0.0,0.0,0.0,2.5,2.25,2.25,3.25,3.0,1.5,-0.61,0.45,3.83,241.26,0.0,-66.8,0.0,0.0,0.25,0.0,0.0,0.0,0.0,0.0,0.0,0.0,0.0,0.0,0.0,-0.48,0.64,0.64,0.0,-38.2,60.9
6.6,0.75,0.25,0.0,1.75,0.0,0.0,0.0,3.5,2.75,3.75,4.75,3.75,2.5,-0.61,0.2,3.89,284.2,0.9,-57.6,0.0,0.0,0.25,0.0,0.0,0.0,0.0,0.0,0.0,0.0,0.0,0.0,0.0,-0.36,0.64,0.64,0.0,-38.2,60.9
6.62,0.5,0.5,0.0,2.5,0.0,0.0,0.25,3.75,3.25,3.75,5.75,4.0,2.75,-0.36,0.2,3.83,336.07,1.7,-54.8,0.0,0.0,0.5,0.0,0.0,0.0,0.0,0.0,0.0,0.0,0.0,0.0,0.0,-0.11,0.7,0.52,0.0,-38.2,60.9
6.64,0.5,0.5,1.25,2.5,0.0,0.25,1.0,4.5,3.75,5.0,6.0,4.75,2.75,-0.36,0.14,3.89,410.65,2.6,-50.2,0.0,0.0,0.5,0.0,0.0,0.0,0.0,0.0,0.0,0.0,0.0,0.0,0.0,0.08,0.7,0.45,0.0,-38.2,60.9
6.66,1.25,0.5,0.0,2.5,0.5,0.25,1.0,4.75,4.25,5.0,6.25,5.0,3.5,-0.36,0.14,3.89,484.78,1.5,-51.3,0.0,0.0,0.25,0.0,0.0,0.0,0.0,0.0,0.0,0.0,0.0,0.0,0.0,0.02,0.7,0.58,0.0,-38.2,60.9
6.68,0.75,0.5,1.75,2.75,0.25,0.5,1.0,4.75,4.5,5.0,6.5,4.75,3.5,-0.42,0.14,3.89,542.16,3.0,-46.7,0.0,0.0,0.25,0.0,0.0,0.0,0.0,0.0,0.0,0.0,0.0,0.0,0.0,-0.05,0.7,0.58,0.0,-38.2,60.9
6.7,0.75,0.5,1.75,2.75,0.0,0.75,1.0,5.0,4.5,5.0,6.75,5.0,3.25,-0.42,0.14,3.89,572.56,3.0,-47.1,0.0,0.0,0.25,0.0,0.0,0.0,0.0,0.0,0.0,0.0,0.0,0.0,0.0,-0.05,0.83,0.52,0.0,-38.2,60.9
6.72,0.5,0.5,1.75,2.75,0.75,0.75,1.0,5.25,4.5,5.0,6.5,4.75,3.25,-0.42,0.14,3.89,584.63,2.4,-45.0,0.0,0.0,0.5,0.0,0.0,0.0,0.0,0.0,0.0,0.0,0.0,0.0,0.0,0.08,0.95,0.39,3.53,-38.2,60.9
6.74,0.5,0.5,1.75,3.25,0.75,0.75,1.25,5.25,4.75,5.0,6.5,4.25,3.0,-0.42,0.14,3.89,579.23,2.8,-41.9,0.0,0.0,0.25,0.0,0.0,0.0,0.0,0.0,0.0,0.0,0.0,0.0,0.0,2.95,-2.73,7.95,5.84,-38.2,60.9
6.76,0.5,0.5,1.75,3.75,0.75,0.75,1.25,5.25,4.5,5.0,6.5,4.25,2.75,-0.42,0.14,3.83,569.81,3.0,-40.1,0.0,0.0,0.5,0.5,0.0,2.0,0.0,0.0,0.0,0.0,0.0,0.0,0.0,-0.05,1.08,-3.36,22.05,4.9,43.0
6.78,0.75,0.5,2.0,3.0,1.0,0.75,1.25,5.0,4.5,4.0,6.25,4.0,2.75,-0.42,0.14,3.89,551.84,3.7,-38.1,0.0,0.0,0.75,2.75,0.5,3.25,0.0,0.0,0.0,1.25,0.0,0.0,0.0,0.33,0.14,-0.61,67.44,1.4,29.8
6.8,1.25,0.5,1.75,3.5,0.75,0.75,1.25,5.0,4.5,3.75,6.0,4.0,2.75,-0.48,0.14,3.83,527.78,4.2,-35.8,0.0,0.5,1.75,2.75,5.0,3.25,0.0,0.0,0.0,0.0,0.0,0.0,0.0,0.39,0.27,1.64,138.52,-2.5,52.7
6.82,1.25,0.5,1.75,3.25,0.75,0.75,1.25,5.0,4.5,3.75,6.0,4.0,2.5,-0.42,0.14,3.89,498.48,4.3,-36.0,0.0,0.25,2.25,2.25,3.75,3.5,0.0,1.25,1.0,4.5,0.25,1.0,0.0,-0.11,-0.23,1.14,216.89,1.2,4.5
6.84,1.25,0.5,1.75,3.5,0.75,0.75,1.25,4.75,4.5,3.75,5.75,4.0,2.25,-0.42,0.2,3.83,470.31,4.6,-34.4,0.0,0.75,3.75,3.25,4.5,4.5,0.5,5.0,2.0,7.5,2.75,3.75,4.25,0.08,0.08,1.08,356.64,1.5,-23.0
6.86,1.0,0.5,1.75,3.5,0.75,0.75,1.25,4.75,4.5,3.75,6.0,4.0,2.0,-0.42,0.14,3.89,451.09,4.6,-35.0,0.0,0.75,4.0,3.5,4.5,4.75,0.75,5.25,2.0,6.5,6.0,2.25,4.5,0.08,0.02,0.95,515.9,0.5,-21.8
6.88,1.25,0.5,2.0,3.25,0.75,0.75,1.0,4.75,4.5,3.75,5.75,4.0,1.75,-0.42,0.14,3.83,434.76,5.0,-33.5,1.25,1.25,4.0,5.25,5.5,5.75,1.0,5.25,2.0,6.5,4.75,2.25,3.5,0.14,0.08,0.95,688.06,-0.6,-8.4
6.9,1.25,0.5,2.0,3.0,0.75,0.75,1.0,4.75,4.5,3.75,6.0,4.0,2.0,-0.42,0.14,3.89,427.71,4.8,-35.1,1.0,1.25,5.25,5.25,6.25,5.5,0.75,4.75,2.0,6.5,4.75,2.5,3.5,0.2,0.08,0.95,804.17,-1.6,-6.5
6.92,1.25,0.5,1.75,2.75,0.25,0.75,1.0,4.75,4.75,3.75,6.25,4.25,2.75,-0.42,0.14,3.89,429.4,4.3,-40.5,1.0,1.25,5.25,5.5,6.25,5.5,1.0,4.75,2.0,6.5,4.75,2.5,3.5,0.14,0.08,0.95,878.78,-1.8,-6.1
6.94,0.5,0.5,1.75,2.75,0.75,0.75,1.0,5.0,5.0,3.75,6.75,5.0,2.75,-0.42,0.14,3.89,445.39,3.6,-43.6,0.5,1.25,5.5,5.25,6.25,5.0,1.25,4.75,2.0,6.5,4.75,2.5,3.25,0.14,0.08,0.95,894.84,-2.0,-6.8
6.96,0.5,0.5,1.75,2.75,0.75,0.75,1.0,5.0,5.0,4.0,6.75,5.0,2.75,-0.42,0.14,3.89,462.77,3.5,-43.8,0.5,1.25,5.25,5.25,6.25,5.0,1.0,4.25,2.0,6.25,4.75,2.25,3.0,0.14,0.08,0.95,881.85,-2.0,-5.5
6.98,1.25,0.5,0.75,2.75,0.0,0.75,1.0,4.75,5.0,4.25,6.75,5.0,2.75,-0.42,0.14,3.83,472.88,3.3,-46.8,0.5,1.0,5.25,5.25,6.25,4.75,1.0,4.0,2.0,6.25,4.75,2.0,2.75,0.14,0.08,0.95,846.99,-2.3,-4.9
7.0,1.25,0.25,1.25,2.75,0.0,0.5,1.0,4.75,5.0,4.75,7.0,5.25,2.75,-0.42,0.14,3.83,484.06,3.7,-47.9,0.0,1.0,5.0,5.25,6.0,4.5,0.75,4.0,2.0,6.25,4.75,2.0,2.75,0.14,0.08,0.95,791.69,-1.8,-7.1
7.02,1.25,0.5,1.0,2.5,0.0,0.5,1.0,4.75,5.0,4.5,7.0,5.25,3.25,-0.42,0.08,3.89,492.2,3.3,-49.1,0.0,0.75,4.75,5.25,6.0,4.5,0.75,4.25,2.0,6.25,4.75,2.5,3.0,0.14,0.08,0.95,741.38,-1.4,-9.9
7.04,1.25,0.5,0.25,2.5,0.0,0.5,1.0,4.75,5.0,4.0,7.0,5.25,3.25,-0.42,0.14,3.83,491.5,2.8,-51.1,0.0,1.0,4.5,4.5,5.5,4.5,0.75,4.0,2.0,6.5,4.75,2.25,3.25,0.14,0.08,0.95,688.62,-0.9,-12.0
7.06,1.0,0.5,1.5,2.5,0.25,0.25,1.0,4.75,5.0,4.0,7.0,5.25,2.75,-0.42,0.14,3.83,490.25,4.2,-46.9,0.0,0.75,4.0,3.25,5.25,4.5,0.75,4.25,2.0,6.5,4.75,2.5,3.5,0.14,0.08,0.95,633.51,0.1,-17.5
7.08,1.25,0.5,1.75,2.5,0.0,0.5,1.0,4.5,5.0,3.75,7.0,5.25,2.75,-0.42,0.14,3.83,486.85,4.9,-45.2,0.0,0.5,3.75,3.25,5.25,4.5,0.75,4.25,2.0,6.5,4.75,2.5,3.5,0.14,0.08,0.95,581.29,0.4,-18.7
7.1,1.25,0.5,1.75,2.5,0.0,0.25,1.0,4.25,4.75,3.75,7.0,5.25,2.75,-0.42,0.2,3.83,479.43,5.2,-45.9,0.0,0.5,3.5,3.25,4.75,4.5,0.75,4.25,2.0,6.75,5.0,2.5,3.5,0.14,0.08,0.95,554.37,0.6,-20.9
7.12,1.25,0.5,0.25,2.5,0.0,0.0,1.0,4.25,4.75,3.75,7.0,5.25,2.75,-0.42,0.14,3.83,465.0,3.8,-51.5,0.0,0.5,3.5,3.25,4.75,4.5,0.75,4.5,2.0,7.0,5.75,3.25,4.0,0.14,0.08,0.95,549.4,0.6,-24.7
7.14,1.25,0.5,0.5,2.5,0.0,0.25,1.0,4.25,5.0,3.75,7.0,5.25,2.75,-0.42,0.14,3.77,455.91,3.9,-50.0,0.0,0.5,3.5,3.25,4.75,4.5,0.75,4.75,2.0,7.25,5.75,3.75,4.5,0.14,0.08,0.95,562.6,0.8,-27.0
7.16,1.25,0.5,1.0,2.75,0.0,0.5,1.0,4.25,5.0,3.75,7.0,5.0,2.75,-0.42,0.14,3.83,450.96,4.3,-46.4,0.0,0.75,3.5,3.0,4.5,4.25,0.75,5.0,2.25,7.5,6.25,3.75,4.5,0.14,0.08,0.95,586.75,0.7,-28.5
7.18,1.25,0.5,1.75,2.75,0.75,0.5,1.0,4.25,5.0,3.75,7.0,5.0,2.5,-0.36,0.14,3.89,455.32,5.0,-41.2,0.0,0.5,3.75,3.0,4.5,4.5,0.75,5.0,2.5,7.5,6.5,3.75,5.0,0.14,0.08,0.95,615.57,0.7,-29.5
7.2,1.25,0.5,1.75,2.75,0.75,0.75,1.0,4.5,5.0,3.75,6.75,5.0,2.0,-0.42,0.14,3.83,459.62,4.9,-39.4,0.0,0.5,4.0,4.0,5.0,4.0,0.75,4.75,2.75,7.5,6.5,4.0,5.0,0.08,0.08,0.95,646.34,-0.2,-27.2
7.22,1.25,0.5,1.75,3.0,0.75,0.75,1.25,4.5,5.25,3.25,6.75,5.0,1.75,-0.42,0.14,3.83,461.98,5.6,-37.4,0.0,0.5,4.75,3.25,4.5,4.25,1.0,4.25,2.75,7.0,6.25,3.75,4.75,0.08,0.08,0.95,657.66,-0.8,-26.0
7.24,1.5,0.5,1.75,3.75,0.75,0.75,1.25,4.5,5.25,2.5,6.75,4.75,1.5,-0.42,0.08,3.89,456.3,6.6,-32.5,0.0,0.5,4.5,3.25,4.5,3.75,1.0,4.0,2.25,6.5,5.75,3.5,4.25,0.08,0.08,0.95,643.64,-1.1,-24.3
7.26,1.5,0.5,2.0,4.5,2.0,0.75,1.25,4.5,5.5,2.0,6.75,4.25,1.5,-0.42,0.14,3.83,459.36,7.0,-24.9,0.0,0.5,4.75,4.25,4.5,4.25,1.25,4.0,2.25,6.25,5.5,2.5,3.5,0.08,0.08,0.95,625.86,-1.6,-17.0
7.28,2.5,0.5,2.0,4.5,3.25,1.0,1.5,4.5,5.5,2.25,6.25,4.0,1.5,-0.42,0.14,3.89,478.4,7.0,-17.6,0.5,0.75,5.25,5.25,5.0,3.75,1.25,3.75,2.0,5.25,4.75,2.5,3.0,0.08,0.08,0.95,612.96,-3.5,-8.3
7.3,3.0,0.5,2.25,6.0,3.25,1.0,1.75,4.5,5.25,2.0,6.0,3.25,1.0,-0.42,0.2,3.83,503.53,8.3,-8.7,1.0,1.0,5.25,5.5,5.75,3.75,1.5,2.75,2.0,4.5,4.0,1.5,2.5,0.08,0.08,0.95,598.77,-4.8,2.2
7.32,3.0,0.5,3.0,6.75,4.75,1.25,2.0,4.25,5.25,1.25,5.75,2.75,0.5,-0.42,0.14,3.89,537.98,9.3,1.1,1.0,1.0,5.5,6.25,6.0,4.0,1.25,2.75,2.0,3.5,2.75,1.0,1.5,0.08,0.08,0.95,578.31,-5.7,13.0
7.34,3.5,0.5,3.75,7.25,5.0,1.5,2.0,3.5,5.0,0.25,5.0,2.0,0.25,-0.42,0.2,3.95,559.32,11.3,12.0,1.25,1.25,6.75,7.25,6.25,4.5,2.0,2.75,2.0,3.0,2.75,1.0,1.5,0.08,0.08,0.95,584.21,-7.3,18.2
7.36,4.5,0.75,5.0,8.0,5.75,1.5,2.25,3.5,4.0,0.25,3.75,1.75,0.25,-0.48,0.2,3.95,587.61,12.5,22.4,2.75,2.0,7.25,8.5,6.25,4.5,2.25,2.5,2.0,3.0,2.75,1.0,1.5,0.08,0.08,0.95,617.41,-9.0,23.9
7.38,4.5,1.0,5.5,9.0,6.0,1.5,2.0,2.5,2.5,0.25,2.5,1.0,0.25,-0.61,0.27,4.14,592.68,13.7,34.2,3.5,2.25,7.75,9.0,6.5,4.5,2.75,2.5,2.0,2.75,2.75,1.0,1.5,0.08,0.08,0.95,671.99,-10.0,26.9
7.4,5.5,1.25,6.0,9.25,6.75,1.0,2.0,1.75,1.75,0.25,1.75,1.0,0.25,-0.98,0.77,4.77,600.25,15.3,42.0,4.0,2.25,8.25,9.75,7.5,4.5,3.5,2.5,2.0,2.75,2.75,1.0,1.0,0.08,0.08,0.95,741.21,-10.7,30.3
7.42,5.75,1.25,6.25,9.25,5.75,0.25,1.25,1.75,1.5,0.25,1.25,1.0,0.25,-1.05,0.02,7.83,584.57,16.9,44.5,5.5,2.25,8.75,10.5,8.0,4.5,3.5,1.75,1.5,1.5,1.75,0.75,1.0,0.08,0.08,0.95,797.43,-12.6,40.1
7.44,5.75,1.0,6.25,8.0,5.0,0.0,0.5,1.75,1.25,0.25,1.25,1.0,0.25,-0.8,-0.05,6.7,550.69,17.6,44.2,5.75,2.25,8.75,9.0,8.0,3.25,4.0,1.25,0.75,0.0,1.5,0.0,1.0,0.14,0.08,0.95,795.67,-15.0,49.1
7.46,4.5,0.5,5.25,6.5,2.5,0.0,0.25,1.75,1.0,0.25,1.25,1.0,0.25,-0.55,-0.48,7.02,467.62,18.4,39.0,5.75,2.25,8.75,11.0,8.0,2.5,3.75,0.75,0.75,1.25,0.25,0.5,0.75,0.14,0.08,1.08,787.89,-15.4,49.8
7.48,3.0,0.5,2.75,3.0,0.5,0.0,0.25,1.75,1.0,0.25,0.0,1.0,0.25,-0.8,0.14,6.02,343.9,17.7,31.7,5.75,2.25,9.5,9.0,7.5,0.0,2.75,0.5,0.25,0.25,0.75,0.25,0.5,0.2,0.14,1.58,727.72,-19.3,56.1
7.5,1.75,0.5,1.75,2.5,0.0,0.0,0.25,1.75,1.25,0.25,0.25,1.0,0.25,-0.8,-0.3,3.89,245.11,15.0,16.2,6.25,0.5,8.75,7.25,5.75,0.0,1.25,0.0,0.0,0.0,0.0,0.0,0.0,0.27,0.14,1.64,617.63,-22.6,65.6
7.52,1.5,0.25,0.25,1.25,0.0,0.0,0.25,1.5,1.25,0.25,1.0,1.0,0.25,-0.48,0.02,2.58,150.31,10.5,-9.0,5.75,1.25,8.0,5.5,0.0,0.0,0.5,0.0,0.0,0.0,0.0,0.0,0.0,0.27,0.2,1.77,463.7,-29.9,71.5
7.54,1.5,0.0,1.0,1.5,0.0,0.0,0.5,1.5,1.5,0.25,0.75,1.0,0.25,-0.36,0.08,3.2,89.63,13.2,-3.0,5.0,0.0,7.0,3.0,0.0,0.0,0.25,0.0,0.0,0.0,0.0,0.0,0.0,0.14,0.2,1.58,327.77,-32.8,71.4
7.56,0.5,0.0,1.0,1.25,0.0,0.0,0.25,1.5,1.25,0.25,0.75,1.0,0.0,-2.61,-3.36,4.08,45.99,11.1,-13.2,3.25,0.0,5.25,1.75,0.0,0.0,0.25,0.0,0.0,0.0,0.0,0.0,0.0,-0.11,0.39,2.08,221.86,-33.5,70.8
7.58,0.5,0.0,1.0,1.5,0.0,0.0,0.25,1.5,1.25,0.25,0.75,1.0,0.25,-2.98,-2.92,1.14,32.17,10.5,-14.0,0.5,0.0,2.75,0.25,0.0,0.0,0.0,0.0,0.0,0.0,0.0,0.0,0.0,0.33,0.58,2.95,100.16,-36.3,65.6
7.6,0.25,0.0,1.0,1.25,0.0,0.0,0.25,1.5,1.0,0.0,0.75,1.0,0.25,-0.23,-1.86,0.33,19.18,10.3,-17.2,0.0,0.0,1.5,0.25,0.0,0.0,0.0,0.0,0.0,0.0,0.0,0.0,0.0,1.02,-2.17,-0.48,0.0,-35.2,60.5
7.62,0.0,0.0,0.75,1.25,0.0,0.0,0.25,1.5,1.25,0.25,0.75,1.0,0.25,-0.86,-1.55,1.83,19.4,7.6,-26.6,0.0,0.0,1.5,0.25,0.0,0.0,0.0,0.0,0.0,0.0,0.0,0.0,0.0,1.33,-1.3,-0.98,0.0,-35.2,60.5
7.64,0.0,0.0,0.0,1.0,0.0,0.0,0.25,1.5,1.0,0.0,0.0,1.0,0.25,-1.8,-1.36,1.89,12.79,2.8,-34.6,0.0,0.5,1.0,0.5,0.0,1.5,0.0,0.0,0.0,0.25,0.0,0.25,0.0,0.2,-1.23,-0.48,0.0,-5.2,36.7
7.66,0.0,0.0,0.0,0.5,0.0,0.0,0.25,1.5,1.25,0.0,0.5,1.0,0.25,-1.61,-0.61,2.52,19.32,2.6,-48.1,0.0,0.5,2.75,0.5,0.0,2.0,0.25,0.75,0.0,0.5,0.25,0.25,0.25,0.77,-0.73,0.02,0.0,-8.3,22.9
7.68,0.0,0.0,0.0,0.5,0.0,0.0,0.25,1.5,1.25,0.0,0.5,1.0,0.25,-1.05,-0.17,2.95,30.3,2.6,-48.1,0.0,0.5,2.75,0.5,0.0,1.5,0.0,0.5,0.25,0.5,0.25,0.0,0.25,0.52,-0.61,0.39,0.0,-11.0,26.8
7.7,0.0,0.0,0.0,0.5,0.0,0.0,0.25,1.5,1.25,0.0,0.5,1.0,0.0,-0.67,0.64,3.14,46.04,3.4,-44.8,0.0,0.5,2.75,0.5,0.0,2.0,0.0,0.75,0.0,1.25,0.25,0.25,0.0,0.33,-0.3,0.52,17.54,-6.4,18.1
7.72,0.0,0.0,0.0,0.5,0.0,0.0,0.25,1.5,1.0,0.0,0.5,1.0,0.0,-0.36,1.52,4.08,57.56,2.9,-45.2,0.0,0.5,2.75,0.5,0.0,2.0,0.25,0.75,0.0,0.75,0.25,0.25,0.0,0.33,-0.05,0.64,54.51,-8.2,24.1
7.74,0.0,0.0,0.0,0.5,0.0,0.0,0.25,1.5,1.0,0.25,0.5,1.0,0.25,0.33,3.02,6.33,64.11,1.2,-49.9,0.0,0.5,2.75,0.5,0.0,2.0,0.0,0.5,0.0,0.0,0.25,0.25,0.0,0.08,0.14,0.7,80.35,-11.4,37.5
7.76,0.5,0.0,0.0,0.5,0.0,0.0,0.25,1.5,1.0,0.0,0.25,1.0,0.25,0.2,4.33,6.27,67.34,4.7,-33.9,0.0,0.0,2.75,0.0,0.0,0.0,0.0,0.0,0.0,0.0,0.0,0.0,0.0,0.02,0.39,0.77,75.58,-38.2,60.9
7.78,0.25,0.0,0.5,0.5,0.0,0.0,0.25,1.0,1.0,0.0,0.5,1.0,0.25,0.52,5.83,7.08,68.56,9.1,-31.8,0.0,0.5,0.5,0.0,0.0,0.0,0.0,0.0,0.0,0.0,0.0,0.0,0.0,0.08,0.39,1.02,56.71,-25.4,79.9
7.8,0.25,0.0,0.0,0.5,0.0,0.0,0.25,1.0,1.0,0.0,0.5,1.0,0.25,1.45,6.45,5.77,69.15,5.8,-42.2,0.0,0.0,0.5,0.0,0.0,1.25,0.0,0.0,0.0,0.0,0.0,0.0,0.0,0.14,0.45,1.33,40.26,4.3,42.2
7.82,0.0,0.0,0.0,0.5,0.0,0.0,0.25,1.0,1.0,0.0,0.25,1.0,0.25,1.95,6.77,4.27,66.45,3.8,-48.2,0.0,0.5,2.0,0.25,0.0,0.0,0.0,0.5,0.0,0.25,0.25,0.0,0.0,0.27,0.77,1.27,42.4,-20.9,35.3
7.84,0.0,0.0,0.5,0.5,0.0,0.0,0.25,0.75,1.0,0.0,0.5,0.75,0.25,2.33,6.58,3.39,65.03,9.2,-33.9,0.0,0.5,2.75,0.0,0.0,1.5,0.0,0.5,0.0,0.5,0.25,0.25,0.0,0.39,1.27,1.2,59.66,-11.3,27.0
7.86,0.0,0.0,0.0,0.0,0.0,0.0,0.25,1.0,1.0,0.0,0.5,1.5,0.25,2.14,5.33,3.27,66.33,3.2,-69.6,0.0,0.5,2.75,0.25,0.0,1.75,0.0,0.5,0.0,0.25,0.25,0.25,0.0,0.2,1.58,1.33,78.84,-11.4,32.5
7.88,0.0,0.0,0.0,0.0,0.0,0.0,0.25,0.75,1.0,0.0,0.0,0.75,0.25,1.39,4.27,2.27,60.29,2.2,-60.8,0.0,0.5,2.75,0.25,0.0,1.5,0.0,0.5,0.0,0.5,0.25,0.25,0.0,0.02,1.7,1.02,92.06,-11.6,28.3
7.9,0.0,0.0,0.0,0.0,0.0,0.0,0.25,0.25,1.0,0.0,0.25,0.75,0.25,1.64,3.83,1.89,52.08,6.7,-66.5,0.0,0.0,2.75,0.0,0.0,0.0,0.25,0.0,0.0,0.0,0.0,0.0,0.0,-0.17,1.77,0.77,79.67,-38.0,59.6
7.92,0.0,0.0,0.25,0.0,0.0,0.0,0.25,0.25,0.5,0.0,0.0,0.0,0.0,2.08,3.45,1.77,35.35,13.8,-8.7,0.0,0.0,0.5,0.0,0.0,0.0,0.0,0.0,0.0,0.0,0.0,0.0,0.0,-0.23,1.7,0.39,53.06,-38.2,60.9
7.94,0.0,0.0,0.0,0.0,0.0,0.0,0.25,0.0,0.5,0.0,0.0,0.0,0.0,1.77,3.08,1.95,19.6,16.1,-25.7,0.0,0.0,0.25,0.0,0.0,0.0,0.0,0.0,0.0,0.0,0.0,0.0,0.0,-0.23,1.64,0.33,23.71,-38.2,60.9
7.96,0.0,0.0,0.0,0.75,0.0,0.0,0.5,0.25,1.25,0.0,0.0,0.5,0.0,1.14,3.2,2.02,19.44,12.1,-19.9,0.0,0.0,0.25,0.0,0.0,0.0,0.0,0.0,0.0,0.0,0.0,0.0,0.0,-0.42,1.52,0.2,5.11,-38.2,60.9
7.98,0.0,0.0,0.0,0.0,0.0,0.0,0.0,0.0,0.0,0.5,0.0,0.5,0.0,1.02,3.77,2.08,14.77,-3.4,-92.6,0.0,0.5,2.5,0.25,0.0,1.25,0.0,0.25,0.0,1.0,0.25,0.25,0.0,-0.67,1.52,0.14,32.25,-10.7,21.1
8.0,0.0,0.0,0.0,0.5,0.0,0.0,0.0,0.0,0.75,0.0,0.0,0.75,0.0,0.7,4.33,2.02,18.89,12.2,-39.8,0.0,0.5,2.75,0.0,0.0,0.75,0.0,0.75,0.0,0.0,0.0,0.25,0.0,-0.8,1.52,0.27,56.8,-17.4,37.8
8.02,0.0,0.0,0.0,1.0,0.0,0.0,1.25,4.25,1.0,0.0,0.0,0.75,0.0,0.2,4.58,1.7,49.3,-2.0,-27.2,0.0,0.5,2.75,0.25,0.0,0.0,0.0,0.25,0.0,0.75,0.25,0.25,0.0,-0.42,1.39,0.39,77.51,-21.2,24.8
8.04,0.0,0.25,0.0,0.0,0.0,0.0,0.0,0.0,0.0,0.0,0.0,0.0,0.25,3.14,-6.61,1.14,42.71,-0.5,-5.3,0.0,0.5,2.75,0.25,0.0,1.5,0.0,0.25,0.0,0.25,0.25,0.0,0.0,-0.05,1.33,0.39,86.64,-14.1,41.6
8.06,0.0,0.0,0.0,1.0,0.0,0.0,0.25,0.0,0.0,0.0,0.0,0.0,0.0,-3.17,-0.67,4.45,38.16,18.7,54.7,0.0,0.0,0.25,0.0,0.0,0.0,0.0,0.0,0.0,0.25,0.0,0.0,0.0,0.2,1.27,0.39,62.32,-11.6,-6.2
8.08,0.0,0.0,0.0,3.0,0.0,0.0,0.0,0.0,0.25,0.0,0.0,0.0,0.0,-1.42,0.89,0.77,38.11,16.8,50.8,0.0,0.0,0.25,0.25,0.0,0.0,0.0,0.0,0.0,0.0,0.0,0.0,0.0,-0.67,-0.86,2.89,36.75,-27.6,59.4
8.1,1.25,0.5,0.0,6.5,0.0,0.0,0.0,0.0,2.25,0.0,0.0,0.5,0.0,-1.17,0.7,5.27,89.71,17.4,37.4,0.0,0.0,0.25,0.5,0.0,0.0,0.0,0.0,0.0,0.0,0.0,0.0,0.0,0.39,0.64,-2.98,17.07,-24.1,58.9
8.12,2.75,0.75,0.0,8.25,0.0,1.5,0.25,1.75,2.75,1.0,0.0,1.0,0.25,-0.17,0.33,4.7,177.26,10.5,24.4,0.0,0.5,0.75,4.5,3.0,3.75,0.0,0.0,0.0,0.0,0.0,0.25,0.0,-0.36,0.14,-0.23,84.05,-2.0,49.0
8.14,3.0,0.75,3.25,8.0,5.75,1.5,1.75,4.75,5.0,3.75,4.75,3.0,1.5,-0.3,0.14,4.7,353.69,7.0,-0.7,0.25,0.75,3.0,4.0,5.5,4.5,0.25,2.5,1.5,6.25,0.25,3.5,0.75,-0.05,0.52,1.58,229.99,0.1,-2.7
8.16,3.0,1.5,2.5,9.0,5.5,2.0,2.0,5.25,4.75,2.75,5.5,2.0,1.5,-0.05,-0.11,4.02,552.7,6.8,3.8,0.75,1.0,4.5,4.0,5.0,5.0,1.0,6.0,3.25,7.5,8.25,4.5,4.5,0.08,0.14,1.2,448.21,-1.0,-24.3
8.18,3.75,1.75,4.5,9.5,5.75,2.25,2.0,4.75,4.5,2.0,3.5,1.25,0.25,-0.61,0.39,3.83,728.2,9.6,19.8,0.75,1.25,5.25,5.25,5.75,5.5,1.25,5.75,2.75,6.5,6.5,3.0,3.5,0.02,0.08,0.95,684.97,-1.8,-11.7
8.2,4.5,1.75,4.0,10.5,6.5,2.25,2.0,4.75,4.5,2.0,3.25,1.0,0.25,-0.48,0.33,3.89,829.82,9.6,23.2,1.0,1.5,5.5,7.0,6.5,6.0,1.25,5.25,2.75,6.0,5.75,2.5,2.75,0.14,0.14,0.89,874.17,-2.8,-2.5
8.22,4.5,1.75,4.5,10.5,7.0,2.25,2.25,4.75,4.5,2.0,3.25,1.0,0.25,-0.36,0.33,3.89,892.02,9.8,23.9,1.0,1.75,5.5,7.25,6.5,6.0,1.25,5.25,2.75,5.75,5.5,2.5,2.5,0.2,0.2,0.95,964.7,-3.0,-0.6
8.24,4.25,1.75,4.5,10.5,7.0,2.25,2.25,4.75,4.25,1.75,3.0,1.0,0.25,-0.36,0.27,3.89,903.97,9.8,24.9,1.0,2.0,6.75,7.25,6.5,5.75,1.25,5.25,2.75,5.5,5.75,2.5,2.5,0.02,0.14,0.95,1018.34,-4.1,1.1
8.26,3.5,1.75,4.75,10.5,7.0,2.25,2.0,4.75,4.0,1.0,3.0,1.0,0.25,-0.36,0.27,3.89,895.42,9.9,26.0,1.0,1.5,6.75,7.0,6.5,5.5,1.25,5.25,2.75,5.75,6.25,2.5,2.75,0.08,0.14,0.95,1033.89,-4.0,-1.7
8.28,3.0,1.75,4.5,9.75,6.75,2.25,2.0,4.5,3.75,0.5,2.5,1.0,0.25,-0.42,0.33,3.89,859.8,9.9,27.3,0.75,1.25,6.25,6.75,6.25,4.5,1.5,4.25,2.75,5.5,6.25,2.75,2.5,0.08,0.14,0.95,1014.6,-4.6,-3.3
8.3,2.75,1.75,4.0,9.25,6.25,2.25,1.75,4.25,3.0,0.25,2.25,1.0,0.25,-0.42,0.33,3.83,778.87,9.7,28.6,1.0,1.25,6.0,5.5,5.75,4.5,1.25,4.0,2.75,4.25,5.75,2.5,2.25,0.08,0.14,0.95,949.43,-4.9,-1.7
8.32,3.0,1.5,3.5,9.25,5.75,2.25,1.5,3.5,2.75,0.25,2.0,1.0,0.25,-0.42,0.39,3.77,683.67,10.0,30.2,1.25,1.0,5.5,5.5,5.25,4.0,1.25,4.0,2.75,4.75,6.25,2.5,1.5,0.08,0.14,0.95,856.77,-5.2,-3.3
8.34,2.0,1.25,3.25,8.25,5.75,1.75,1.25,3.5,2.5,0.25,1.75,1.0,0.25,-0.42,0.39,3.77,578.48,9.3,27.9,0.75,0.75,5.5,5.25,4.75,3.75,1.25,3.25,2.25,4.5,5.5,2.5,1.5,0.08,0.14,0.95,742.93,-5.4,-3.7
8.36,1.5,0.75,2.0,8.0,5.75,1.75,1.25,3.5,2.5,0.25,1.75,1.0,0.25,-0.48,0.39,3.83,481.76,7.5,24.0,0.25,0.75,5.5,5.25,4.5,3.5,1.25,2.75,2.0,4.5,4.75,2.5,1.5,0.08,0.14,0.95,629.68,-5.4,-3.6
8.38,1.5,0.75,2.0,8.0,5.75,1.75,1.25,3.5,2.5,0.25,1.5,1.0,0.25,-0.48,0.39,3.83,409.74,7.5,24.8,0.5,0.75,5.5,5.25,4.25,3.5,1.0,2.75,2.0,3.5,4.75,2.5,1.5,0.08,0.14,0.95,540.65,-6.1,-1.6
8.4,1.5,0.5,2.0,8.0,5.75,2.0,1.0,3.75,2.5,1.0,2.0,1.0,0.25,-0.48,0.33,3.83,389.5,6.4,19.9,0.5,0.5,5.5,5.25,4.5,3.5,1.0,2.75,2.0,3.25,4.75,2.25,1.25,0.08,0.14,0.95,486.2,-6.3,0.0
8.42,1.5,0.5,1.75,7.0,5.75,1.75,1.0,4.25,2.5,1.0,2.25,1.0,0.25,-0.55,0.33,3.83,378.51,5.7,16.4,0.25,0.75,5.5,5.25,4.25,3.25,1.25,2.5,2.0,3.0,4.5,2.25,1.25,0.08,0.14,0.95,459.45,-6.8,0.8
8.44,1.5,0.5,1.75,6.75,5.5,1.5,1.0,4.5,2.5,1.25,2.25,1.0,0.25,-0.48,0.33,3.83,373.28,5.6,14.4,0.75,0.75,5.5,5.25,4.25,3.25,1.0,2.5,2.0,3.0,4.5,1.75,1.0,0.08,0.14,0.95,442.88,-7.2,4.4
8.46,1.25,0.5,1.75,6.75,5.25,1.5,1.0,4.5,2.5,1.5,2.25,1.0,0.25,-0.48,0.33,3.83,370.62,5.2,12.7,0.75,1.0,5.5,5.5,4.25,3.25,1.25,2.5,2.0,2.75,4.0,1.25,0.75,0.02,0.14,0.95,433.1,-7.6,9.7
8.48,1.25,0.5,1.75,6.75,5.25,1.5,1.0,4.5,2.5,1.5,2.5,1.0,0.25,-0.48,0.39,3.83,373.14,5.3,12.0,1.0,1.25,6.0,7.0,5.25,3.75,1.25,1.75,1.75,1.75,3.0,1.25,0.75,0.08,0.14,0.95,440.81,-9.0,21.4
8.5,1.25,0.5,1.75,6.75,5.0,1.5,1.0,4.5,2.5,1.5,2.5,1.25,0.25,-0.48,0.33,3.83,377.55,5.4,10.6,1.0,1.25,6.75,7.0,5.5,3.5,1.25,1.5,2.0,1.5,2.75,1.0,0.75,0.02,0.14,0.89,456.47,-10.1,24.7
8.52,1.5,0.5,1.75,6.5,5.0,1.5,1.0,4.75,2.5,1.25,2.5,1.0,0.25,-0.48,0.33,3.77,384.34,5.5,12.1,1.0,1.5,7.0,7.25,5.75,3.5,1.25,1.5,2.0,1.5,2.75,1.0,0.75,0.02,0.14,0.95,483.94,-10.2,25.9
8.54,1.5,0.5,1.75,6.75,5.25,2.0,1.0,4.75,2.5,1.75,2.5,1.0,0.25,-0.55,0.39,3.83,397.71,4.7,11.8,1.75,2.0,7.5,8.75,6.25,3.5,1.75,1.5,2.0,1.5,2.75,1.0,0.75,0.08,0.14,0.95,533.06,-11.2,30.1
8.56,1.5,0.5,1.75,6.75,5.75,2.25,1.0,4.75,2.75,1.25,2.5,1.0,0.25,-0.48,0.39,3.83,414.8,4.8,13.7,2.25,2.25,8.0,9.25,6.5,3.75,2.0,1.5,2.0,1.5,2.75,1.0,0.75,0.08,0.14,0.95,592.15,-11.7,32.1
8.58,2.0,0.75,1.75,7.75,5.75,2.25,1.25,4.75,2.75,0.75,2.25,1.0,0.25,-0.48,0.39,3.89,439.14,6.0,18.9,2.75,2.25,8.75,10.5,6.5,4.25,2.5,1.25,1.5,1.5,2.75,1.0,0.75,0.08,0.14,0.95,662.25,-12.4,35.1
8.6,3.0,0.75,2.0,8.0,6.25,2.25,1.25,4.75,3.0,0.75,2.25,1.0,0.25,-0.48,0.33,3.83,470.84,7.0,21.7,3.75,2.75,9.25,11.5,8.0,4.0,2.5,1.25,1.25,1.5,2.0,0.75,0.5,0.08,0.14,0.95,738.6,-13.0,41.8
8.62,3.0,1.5,2.0,8.5,7.0,3.0,1.25,4.75,3.0,0.25,2.25,1.0,0.25,-0.48,0.33,3.83,511.53,6.7,26.0,3.75,3.25,9.5,12.5,8.0,4.0,2.5,1.25,0.75,1.5,1.75,0.25,0.25,0.08,0.14,1.02,801.18,-13.4,46.5
8.64,4.5,1.75,2.25,9.25,7.25,3.5,1.75,4.75,2.75,0.25,2.25,1.0,0.25,-0.42,0.33,3.89,567.82,7.8,30.4,4.75,3.0,9.75,12.0,8.25,2.75,2.0,1.25,0.25,1.0,0.5,0.0,0.5,0.14,0.2,1.64,823.88,-14.9,53.0
8.66,4.75,1.75,3.5,10.0,7.75,3.5,1.75,4.5,2.5,0.25,1.5,1.0,0.25,-0.48,0.33,3.89,627.92,8.9,35.0,5.25,3.0,9.25,10.0,8.0,0.0,0.25,0.0,0.25,0.5,0.25,0.25,0.0,0.2,0.14,1.64,770.65,-18.8,61.6
8.68,5.75,1.75,3.75,10.5,8.25,3.5,1.75,3.5,1.75,0.25,1.25,1.0,0.25,-0.55,0.45,4.02,677.94,10.1,40.6,3.75,2.5,8.75,8.75,6.5,0.0,0.25,0.5,0.0,0.5,0.0,0.25,0.0,0.27,0.14,1.83,670.8,-18.7,60.3
8.7,6.5,2.0,4.5,11.5,8.25,3.5,1.75,2.5,1.0,0.25,0.75,1.0,0.25,-0.86,0.58,4.45,715.49,11.8,47.0,2.0,0.75,7.0,5.25,0.25,0.0,0.0,0.0,0.0,0.0,0.0,0.25,0.0,0.2,0.08,1.64,468.37,-28.1,63.3
8.72,7.25,2.0,5.25,11.5,8.25,2.25,1.25,1.75,1.0,0.0,0.5,1.0,0.25,-0.86,0.2,7.95,730.07,14.1,51.4,0.0,0.5,6.0,3.0,0.25,0.0,0.25,1.0,0.0,0.0,0.5,0.0,0.0,0.33,0.08,2.14,305.33,-24.5,47.1
8.74,7.5,1.75,4.75,10.5,7.5,0.25,0.5,1.75,1.0,0.25,0.75,0.75,0.25,-1.48,0.39,7.58,701.56,15.7,51.5,0.0,0.5,2.75,2.75,0.0,0.0,0.0,0.0,0.25,0.0,0.25,0.0,0.0,0.14,-0.67,1.52,179.34,-25.3,54.0
8.76,7.75,1.75,3.5,8.0,5.75,0.0,0.0,1.75,1.0,0.0,0.0,0.5,0.25,-1.17,0.64,7.39,618.24,16.6,56.4,0.0,0.5,2.0,1.75,0.0,0.0,0.25,0.5,0.0,0.0,0.0,0.25,0.0,1.77,-3.86,-1.92,72.93,-21.7,45.3
8.78,7.25,0.5,1.75,6.5,2.0,0.0,0.0,1.5,1.0,0.0,0.5,0.25,0.25,-1.67,0.45,7.95,479.98,19.0,53.1,0.0,0.5,3.0,1.5,0.0,0.0,0.25,0.75,0.0,0.25,0.25,0.25,0.0,1.27,-1.98,1.14,3.97,-21.2,35.3
8.8,5.75,0.5,0.25,4.5,0.5,0.0,0.25,1.5,1.0,0.0,0.5,0.5,0.0,-0.8,-0.11,7.45,340.69,18.8,47.4,0.25,0.5,2.75,1.75,0.0,0.0,0.0,0.5,0.0,0.5,0.25,0.25,0.0,0.39,-0.98,0.08,0.0,-20.7,36.2
8.82,3.0,0.5,0.25,2.5,0.5,0.0,0.25,1.5,1.0,0.0,0.5,0.75,0.25,-1.36,-2.17,7.14,234.31,14.4,26.1,0.0,0.5,3.0,1.25,0.0,0.0,0.0,1.0,0.0,0.75,0.25,0.25,0.0,0.27,-0.48,0.52,0.0,-17.2,24.3
8.84,1.5,0.5,0.75,2.0,0.0,0.0,0.25,1.25,1.0,0.0,0.75,0.75,0.0,-1.36,-7.98,1.39,141.67,15.1,15.8,0.0,0.5,2.75,0.5,0.0,0.0,0.0,0.5,0.0,0.5,0.25,0.25,0.0,0.2,-0.42,0.58,0.0,-20.9,28.2
8.86,1.25,0.25,0.0,1.5,0.0,0.0,0.25,1.5,1.0,0.0,0.5,0.5,0.0,-1.73,-7.98,7.83,63.59,10.8,7.0,0.0,0.5,2.75,0.75,0.0,0.0,0.0,0.5,0.0,1.0,0.25,0.25,0.0,0.14,0.02,0.64,0.0,-17.8,21.0
8.88,1.25,0.5,0.0,1.25,0.0,0.0,0.25,1.5,1.0,0.0,0.5,0.75,0.25,1.7,-2.61,-0.92,17.2,9.7,0.2,0.0,0.5,2.75,0.5,0.0,0.0,0.0,0.5,0.0,0.25,0.25,0.25,0.0,0.02,0.14,0.58,0.0,-22.7,33.3
8.9,0.0,0.5,0.0,0.75,0.0,0.0,0.25,1.25,1.0,0.0,0.25,0.75,0.0,-1.17,-3.3,1.58,0.0,5.2,-18.7,0.0,0.5,2.75,0.5,0.0,0.0,0.0,0.25,0.0,0.5,0.25,0.25,0.0,-0.11,0.14,1.2,21.51,-22.8,31.5
8.92,1.0,0.5,0.0,0.75,0.0,0.0,0.25,1.5,1.0,0.0,0.25,0.5,0.25,-1.92,-2.36,1.39,0.0,8.0,-1.0,0.0,0.5,2.75,0.25,0.0,0.0,0.0,0.5,0.0,0.5,0.25,0.25,0.0,0.02,0.52,1.33,43.03,-21.1,26.7
8.94,0.0,0.0,0.0,0.5,0.0,0.0,0.25,1.25,0.25,0.0,0.25,0.0,0.0,-1.61,-1.05,1.95,0.0,-1.0,-17.9,0.0,0.5,2.75,0.25,0.0,0.0,0.0,0.25,0.0,0.25,0.25,0.25,0.0,-0.11,1.08,1.58,63.71,-25.2,35.8
8.96,0.5,0.5,0.0,0.5,0.0,0.0,0.25,1.25,1.0,0.0,0.25,0.5,0.0,-0.98,-0.17,1.95,0.0,7.3,-6.3,0.0,0.5,2.5,0.25,0.0,0.0,0.0,0.25,0.0,0.0,0.0,0.25,0.0,-0.42,1.83,1.39,65.11,-27.9,48.3
8.98,0.75,0.5,0.0,0.5,0.0,0.0,0.25,1.0,1.0,0.0,0.5,0.5,0.25,0.14,2.7,0.2,0.0,8.9,-8.4,0.0,0.5,2.75,0.25,0.0,0.0,0.0,0.25,0.0,0.25,0.25,0.0,0.0,-0.8,2.52,0.64,67.17,-26.1,44.1
9.0,0.5,0.25,0.0,0.5,0.0,0.0,0.25,1.25,1.0,0.0,0.0,0.5,0.0,-1.05,3.39,2.64,13.05,6.8,-8.8,0.0,0.5,2.75,0.25,0.0,0.0,0.0,0.25,0.0,0.25,0.25,0.25,0.0,-1.11,2.77,0.45,67.2,-25.2,35.8
9.02,0.5,0.25,0.0,0.5,0.0,0.0,0.25,0.25,1.0,0.0,0.25,0.75,0.0,-1.17,3.52,5.7,29.41,13.7,-11.9,0.0,0.5,2.75,0.25,0.0,0.0,0.0,0.0,0.0,0.25,0.25,0.0,0.0,-1.17,2.7,0.2,65.12,-28.8,49.1
9.04,0.25,0.25,0.0,0.5,0.0,0.0,0.25,0.0,1.0,0.0,0.25,0.25,0.0,-0.73,6.08,7.14,34.16,15.7,-0.6,0.0,0.5,2.75,0.25,0.0,0.5,0.0,0.25,0.0,0.0,0.25,0.0,0.0,-0.8,2.27,-0.11,67.81,-23.4,49.6
9.06,0.0,0.5,0.0,0.5,0.0,0.0,0.0,0.0,1.0,0.0,0.0,0.0,0.0,0.77,7.95,4.27,31.01,13.5,21.3,0.0,0.5,2.75,0.25,0.0,1.0,0.0,0.25,0.0,0.0,0.25,0.25,0.0,-0.42,2.2,-0.55,74.34,-18.6,40.7
9.08,0.0,0.5,0.0,0.5,0.0,0.0,0.25,0.0,1.0,0.0,0.0,0.25,0.25,2.08,7.95,2.7,29.28,11.3,-3.3,0.0,0.5,2.75,0.25,0.0,0.5,0.0,0.0,0.0,0.0,0.25,0.25,0.0,-0.67,1.89,-0.11,77.16,-24.8,45.8
9.1,0.0,0.0,0.0,0.0,0.0,0.0,0.25,0.5,0.5,0.0,0.0,0.0,0.25,2.14,7.95,1.77,23.71,-1.4,-46.2,0.0,0.5,2.25,2.75,0.0,0.0,0.0,0.0,0.0,0.25,0.0,0.25,0.25,-0.23,0.39,-0.23,88.13,-21.5,44.0
9.12,0.0,0.0,0.0,0.0,0.0,0.0,0.0,0.0,0.5,0.0,0.0,0.0,0.0,0.95,7.95,1.64,14.21,12.1,-38.5,0.0,0.0,2.5,3.0,0.0,0.0,0.0,0.0,0.0,0.0,0.0,0.0,0.0,0.33,0.52,5.39,94.53,-26.6,59.2
9.14,0.0,0.0,0.0,0.5,0.0,0.0,0.0,0.0,0.25,0.0,0.0,0.0,0.0,-0.36,7.45,1.2,8.39,15.5,27.0,1.0,1.25,1.75,6.5,5.5,2.5,0.25,0.0,0.0,0.5,0.25,0.25,0.0,0.2,0.08,2.83,177.28,-7.7,51.4
9.16,0.0,0.0,0.0,0.0,0.0,0.0,0.0,0.0,0.5,0.0,0.0,0.0,0.0,0.08,7.39,-0.55,1.7,12.1,-38.5,1.0,1.75,5.25,7.25,6.5,4.0,0.25,0.0,0.25,0.5,0.25,0.0,0.25,0.27,0.2,0.83,274.24,-9.8,52.1
9.18,0.0,0.0,0.0,0.0,0.0,0.0,0.0,0.0,0.5,0.0,0.0,0.0,0.0,2.7,7.52,0.27,0.0,12.1,-38.5,1.5,2.0,6.75,8.25,6.0,4.5,0.75,1.25,1.25,4.75,0.0,1.75,0.75,0.33,0.2,1.08,422.7,-7.5,26.2
9.2,0.0,0.0,0.0,0.0,0.0,0.0,0.0,0.0,0.5,0.0,0.0,0.0,0.0,2.64,6.7,1.27,0.0,12.1,-38.5,2.0,1.75,7.0,8.0,6.25,4.75,2.25,4.0,2.0,6.0,5.25,2.25,2.75,0.02,0.08,1.14,642.95,-5.8,4.2
9.22,0.25,0.0,0.0,1.25,0.0,0.0,0.5,0.0,0.75,0.0,0.0,0.0,0.0,-7.98,-7.98,7.95,9.76,18.8,30.4,2.0,2.25,7.25,8.75,6.5,5.5,2.5,4.0,2.25,4.75,4.75,1.5,2.5,0.08,0.02,0.95,835.56,-6.3,11.3
9.24,1.25,0.0,0.0,2.75,0.0,0.0,0.0,0.0,0.75,0.0,0.0,0.0,0.0,-1.73,2.52,-7.98,36.82,20.7,52.7,2.5,2.25,8.0,10.5,8.0,5.75,2.5,3.75,2.25,4.5,4.0,1.0,1.5,0.2,0.14,0.89,987.91,-7.4,20.6
9.26,1.25,0.5,0.0,4.75,0.0,0.0,0.0,0.0,0.75,0.0,0.0,0.0,0.0,0.95,-0.61,4.89,76.64,19.1,57.4,2.5,2.25,8.25,10.5,8.0,5.75,2.5,3.75,2.5,4.5,4.0,1.5,1.5,0.08,0.08,0.95,1079.91,-7.6,19.4
9.28,3.0,0.0,0.0,0.0,0.0,1.5,0.0,1.0,2.5,0.25,0.0,1.0,0.0,-1.92,1.52,7.95,112.68,9.3,6.7,2.0,2.5,8.75,10.5,8.0,5.5,2.5,3.75,2.75,4.5,3.5,1.5,1.75,0.08,0.08,0.95,1129.94,-7.7,19.4
9.3,4.0,1.5,5.0,9.0,5.75,1.5,2.5,4.75,5.75,3.75,5.75,3.0,1.5,-1.17,0.89,5.58,324.3,9.1,3.9,2.25,2.25,8.5,9.25,7.25,5.0,2.5,3.75,2.5,4.5,4.5,1.5,1.75,0.08,0.08,0.95,1120.13,-7.9,16.2
9.32,4.5,1.75,5.5,9.25,5.75,1.75,2.75,4.75,4.75,2.0,5.75,1.75,1.0,0.2,-0.11,4.27,549.29,10.7,13.8,2.0,2.25,8.0,8.75,6.75,4.5,2.5,3.25,2.25,4.5,4.25,1.25,1.5,0.08,0.08,0.95,1065.89,-8.1,16.8
9.34,4.5,2.0,5.75,10.5,6.25,2.25,2.75,3.5,4.0,0.25,3.25,1.0,0.25,-0.42,0.52,3.7,769.06,12.7,31.0,1.75,1.75,8.0,8.75,6.5,4.5,2.5,3.0,2.0,4.5,4.0,1.25,1.5,0.08,0.08,0.95,984.22,-8.0,16.4
9.36,5.0,3.25,6.25,11.5,7.25,2.25,2.75,3.5,3.75,0.25,1.75,1.0,0.25,-0.73,0.58,3.77,894.79,12.9,38.4,1.0,1.5,7.75,7.25,6.25,4.5,2.25,2.75,2.0,4.25,4.0,1.5,1.5,0.08,0.08,0.95,877.36,-7.4,12.9
9.38,5.25,3.25,7.25,11.5,7.5,2.25,3.25,3.25,3.75,0.25,2.25,1.0,0.25,-0.23,0.52,3.83,974.56,13.7,38.5,1.0,1.5,7.5,7.25,6.25,3.75,2.0,2.75,2.0,3.75,3.75,1.25,1.5,0.08,0.08,0.95,768.61,-7.9,14.4
9.4,5.5,3.25,7.25,11.5,7.25,2.25,3.25,3.5,3.75,0.25,2.25,1.0,0.25,-0.23,0.39,3.89,996.73,13.7,38.3,1.0,1.5,7.0,7.0,6.0,3.75,1.5,2.75,2.0,4.25,3.75,1.25,1.5,0.08,0.08,0.95,686.1,-7.1,12.3
9.42,4.75,3.0,7.25,10.5,7.0,1.75,3.25,2.75,3.75,0.25,2.25,1.0,0.25,-0.3,0.45,3.89,984.54,14.3,37.8,1.0,1.0,7.0,7.0,5.5,3.5,1.25,2.75,2.0,3.5,3.75,1.25,0.75,0.08,0.08,0.95,611.66,-8.1,14.3
9.44,4.5,1.75,7.25,10.5,6.75,1.5,2.75,2.5,3.25,0.25,2.25,1.0,0.25,-0.3,0.45,3.83,941.68,14.6,37.0,0.25,1.25,6.75,6.0,5.25,2.75,1.25,2.75,1.75,4.0,3.75,1.75,1.5,0.08,0.08,0.95,552.26,-7.2,6.5
9.46,3.25,1.75,6.25,9.25,5.75,1.5,2.75,2.5,3.0,0.25,2.25,1.0,0.25,-0.36,0.45,3.83,835.98,13.9,33.8,0.5,0.75,6.75,5.5,4.5,3.5,1.25,2.5,2.0,3.0,3.75,1.0,1.5,0.08,0.08,0.95,503.87,-7.6,9.1
9.48,4.5,1.75,6.25,9.25,5.75,1.0,2.5,2.0,2.75,0.25,1.25,1.0,0.25,-0.36,0.45,3.83,734.53,15.4,40.0,0.0,0.75,6.25,5.5,4.5,2.25,1.25,1.25,1.5,2.75,2.75,1.0,0.75,0.08,0.08,0.95,438.84,-9.4,14.9
9.5,3.5,1.75,5.5,9.0,5.75,0.75,2.25,1.75,2.5,0.25,1.25,1.0,0.25,-0.3,0.45,3.83,630.56,14.8,39.0,0.0,0.5,6.5,5.25,4.5,2.25,1.5,2.5,1.5,1.75,2.75,1.0,0.5,0.08,0.08,0.95,393.47,-9.5,16.1
9.52,3.5,1.5,5.25,8.0,5.75,0.25,2.0,1.75,2.25,0.25,1.25,1.0,0.25,-0.36,0.52,3.83,536.02,15.1,38.5,0.0,0.5,5.5,5.25,4.25,3.75,2.0,2.5,2.0,3.0,3.25,1.25,1.0,0.08,0.08,0.95,382.62,-6.4,7.0
9.54,3.0,1.5,5.25,8.0,5.0,0.5,1.75,1.75,2.25,0.25,1.25,1.0,0.25,-0.36,0.45,3.77,446.78,14.9,37.2,1.0,1.5,7.0,7.25,5.75,3.5,1.75,2.25,1.5,2.75,2.75,1.0,0.75,0.08,0.08,0.95,419.42,-9.0,22.2
9.56,3.0,1.0,5.0,7.75,4.75,0.5,1.75,1.75,2.25,0.25,1.25,1.0,0.25,-0.42,0.52,3.77,411.93,14.9,35.7,2.25,2.0,7.75,9.0,6.25,3.75,2.0,1.25,1.5,2.0,2.75,1.0,0.75,0.08,0.08,0.95,491.57,-11.4,31.2
9.58,3.0,0.5,4.25,6.75,4.5,0.25,1.75,1.75,2.5,0.25,1.75,1.0,0.25,-0.36,0.45,3.83,379.0,14.7,30.3,2.5,2.25,8.0,10.0,6.5,4.0,2.5,1.5,1.5,1.5,2.25,0.75,0.5,0.08,0.14,0.95,571.85,-12.0,36.5
9.6,3.25,0.5,3.75,6.75,3.25,0.25,1.75,1.75,2.5,0.25,2.25,1.0,0.25,-0.36,0.39,3.83,348.76,15.3,27.2,3.75,2.25,8.75,11.0,7.75,3.75,2.5,1.25,1.25,1.5,1.75,0.75,0.25,0.08,0.08,0.95,656.04,-13.1,42.2
9.62,4.25,0.75,3.75,6.75,3.5,0.5,1.75,2.0,3.0,0.25,2.25,1.0,0.25,-0.42,0.33,3.83,343.48,15.1,28.7,3.75,2.25,9.25,9.75,8.0,4.5,3.0,1.25,0.75,1.25,1.75,0.25,0.5,0.08,0.08,0.95,712.0,-12.8,44.1
9.64,4.5,0.75,4.0,7.75,3.5,0.5,1.75,2.25,3.0,0.25,2.5,1.0,0.25,-0.3,0.39,3.83,358.87,15.2,29.1,5.0,3.0,9.5,12.5,8.0,4.25,3.25,1.25,0.75,1.5,1.5,0.25,0.5,0.08,0.14,1.02,787.21,-13.7,47.0
9.66,4.5,1.25,5.0,8.0,4.75,0.75,2.0,2.0,3.25,0.25,2.5,1.0,0.25,-0.3,0.45,3.83,400.33,15.1,32.3,5.5,3.0,10.5,12.5,8.25,3.75,3.0,1.25,0.5,1.25,0.5,0.25,0.5,0.14,0.14,1.08,844.65,-14.8,51.3
9.68,4.5,1.75,5.5,8.75,5.5,0.75,2.25,2.0,3.25,0.25,2.5,1.0,0.25,-0.3,0.39,3.83,463.65,15.0,34.6,5.0,3.0,10.5,12.5,8.0,0.0,2.5,1.0,0.0,0.0,0.25,0.25,0.25,0.14,0.08,1.7,841.4,-19.0,59.1
9.7,5.25,1.75,5.5,9.25,5.75,1.0,2.5,2.5,3.25,0.25,2.25,1.0,0.25,-0.36,0.33,3.89,532.67,14.7,35.9,6.0,3.0,9.25,11.0,6.5,0.0,1.5,1.0,0.0,1.5,0.0,0.0,0.0,0.33,0.14,1.83,791.23,-18.6,58.6
9.72,5.75,1.75,6.25,10.0,5.75,1.25,2.75,1.75,2.5,0.25,1.75,1.0,0.25,-0.42,0.39,4.02,586.47,16.0,41.5,5.0,1.25,8.5,7.0,3.75,0.0,0.25,0.0,0.0,0.25,0.0,0.25,0.0,0.27,0.14,1.95,640.14,-23.2,64.1
9.74,6.25,2.0,6.75,10.5,7.0,1.25,2.75,1.75,1.5,0.0,1.25,0.75,0.25,-0.67,0.58,4.27,636.69,16.2,48.2,3.5,0.5,7.0,5.25,0.0,0.0,0.25,0.25,0.0,0.0,0.25,0.0,0.0,0.14,0.02,1.64,446.68,-28.8,64.5
9.76,7.0,2.5,7.25,11.0,7.0,0.25,2.25,1.5,1.25,0.0,0.5,0.5,0.0,-0.42,0.45,7.95,668.04,18.1,55.5,0.75,0.5,5.5,3.0,0.0,0.5,0.0,0.0,0.0,0.0,0.0,0.0,0.0,0.27,0.14,2.02,282.17,-27.7,63.1
9.78,6.75,1.75,7.25,9.5,5.75,0.0,1.5,1.75,1.0,0.0,0.5,0.5,0.25,-1.67,0.33,7.45,655.31,18.7,53.6,0.0,0.0,3.25,1.0,0.0,0.0,0.0,0.0,0.0,0.0,0.5,0.0,0.0,0.08,-1.11,-0.36,150.32,-31.0,46.7
9.8,6.75,1.75,7.0,8.0,4.25,0.0,0.5,1.75,1.0,0.0,0.5,0.5,0.25,-1.05,0.45,7.2,606.48,19.6,53.7,0.0,0.5,2.75,2.0,0.0,0.0,0.0,0.0,0.0,0.0,0.0,0.25,0.0,1.52,-3.36,-2.11,45.36,-26.9,55.8
9.82,6.25,1.5,5.75,6.75,0.0,0.0,0.25,1.5,1.0,0.0,0.5,0.5,0.0,-1.61,0.58,7.45,499.73,23.8,54.7,0.0,0.5,3.0,1.75,0.0,0.0,0.25,0.75,0.0,0.5,0.25,0.25,0.0,1.14,-1.55,1.33,0.0,-19.8,32.3
9.84,4.5,0.5,4.75,5.5,0.5,0.0,0.5,1.75,1.5,0.0,0.0,0.5,0.25,-1.61,0.02,5.39,388.19,21.5,45.8,0.0,0.5,2.75,1.75,0.0,0.0,0.25,0.5,0.0,0.0,0.25,0.25,0.0,0.52,-1.05,-0.11,0.0,-23.3,42.6
9.86,2.75,0.5,2.0,2.75,0.0,0.0,0.25,1.0,1.0,0.0,0.5,0.75,0.0,-2.23,-1.67,3.83,274.02,20.7,35.4,0.0,0.5,3.0,1.5,0.0,0.0,0.25,0.75,0.0,0.25,0.25,0.25,0.0,0.33,-0.48,0.33,0.0,-21.2,35.3
9.88,1.5,0.5,1.75,2.5,0.0,0.0,0.5,1.5,1.0,0.0,0.5,0.5,0.0,-5.05,-7.98,-3.55,189.28,17.3,26.7,0.0,0.5,2.75,1.0,0.0,0.0,0.25,0.25,0.0,0.0,0.25,0.25,0.25,0.33,-0.42,0.52,0.0,-24.2,37.0
9.9,1.5,0.0,1.5,2.5,0.0,0.0,0.5,1.0,2.5,0.0,0.5,0.5,0.0,-3.92,-6.3,7.39,118.1,17.9,16.0,0.0,0.5,2.75,1.25,0.0,0.0,0.25,0.25,0.0,0.0,0.25,0.25,0.0,0.27,0.02,0.45,0.0,-25.7,44.8
9.92,1.25,0.5,1.0,1.75,0.0,0.0,0.5,1.0,1.0,0.0,0.25,0.75,0.0,-2.11,-4.48,-0.23,67.05,16.8,21.1,0.0,0.5,2.75,1.0,0.0,0.0,0.0,0.25,0.0,0.25,0.0,0.25,0.5,0.14,0.2,1.08,3.87,-21.2,30.3
9.94,1.25,0.25,0.75,1.25,0.0,0.0,0.5,0.75,1.0,0.0,0.25,0.5,0.0,-0.92,-1.48,1.27,28.95,17.7,20.7,0.0,0.5,3.0,0.75,0.0,0.0,0.0,0.25,0.0,0.0,0.25,0.25,0.0,-0.11,0.27,1.2,27.13,-27.0,44.7
9.96,1.25,0.25,1.0,1.25,0.0,0.0,0.5,0.75,1.0,0.0,0.5,0.5,0.0,-1.67,-2.11,2.2,11.4,18.2,18.8,0.0,0.5,2.75,0.5,0.0,0.0,0.0,0.25,0.0,0.0,0.25,0.0,0.0,0.08,0.52,1.08,48.89,-28.0,51.8
9.98,1.25,0.25,0.75,1.25,0.0,0.0,0.5,1.0,1.0,0.0,0.25,0.5,0.0,-1.55,-1.23,2.52,5.6,16.4,18.4,0.0,0.5,2.75,0.5,0.0,0.0,0.25,0.0,0.0,0.0,0.25,0.25,0.0,0.2,0.89,1.2,62.36,-29.6,47.2
10.0,1.25,0.5,1.0,1.75,0.0,0.0,0.5,0.75,1.0,0.0,0.25,0.25,0.25,-0.92,-0.05,2.2,18.07,17.4,27.4,0.0,0.5,2.75,0.5,0.0,0.0,0.0,0.25,0.0,0.25,0.25,0.25,0.0,-0.11,1.33,1.58,70.59,-24.8,37.0
10.02,1.25,0.25,0.25,0.75,0.0,0.0,0.5,0.75,1.0,0.0,0.0,0.25,0.25,-0.55,1.14,2.64,26.43,14.8,17.1,0.0,0.5,2.75,0.25,0.0,0.0,0.0,0.25,0.0,0.25,0.25,0.25,0.25,-0.36,1.95,1.58,74.38,-23.1,28.0
10.04,1.25,0.25,0.5,0.75,0.0,0.0,0.5,0.5,1.0,0.0,0.25,0.5,0.25,0.02,1.45,5.14,40.08,16.9,11.8,0.0,0.5,2.75,0.25,0.0,0.0,0.0,0.25,0.0,0.0,0.25,0.0,0.0,-0.67,2.39,0.95,70.29,-28.7,51.4
10.06,1.0,0.25,0.5,0.75,0.0,0.0,0.5,0.5,1.0,0.0,0.0,0.5,0.25,0.33,3.39,6.33,49.1,16.3,12.0,0.0,0.5,2.75,0.25,0.0,0.0,0.0,0.0,0.0,0.25,0.25,0.0,0.0,-1.11,2.52,0.33,67.31,-28.8,49.1
10.08,1.25,0.0,0.5,0.75,0.0,0.0,0.5,0.5,1.0,0.0,0.25,0.25,0.25,0.89,5.7,7.2,57.23,17.5,13.4,0.0,0.5,2.75,0.5,0.0,0.75,0.0,0.0,0.25,0.0,0.0,0.25,0.25,-0.98,2.2,-0.05,72.45,-20.5,39.9
10.1,0.75,0.0,0.5,0.5,0.0,0.0,0.5,0.25,1.0,0.0,0.25,0.5,0.25,2.08,7.95,6.83,60.16,17.1,-2.8,0.0,0.5,2.25,0.25,0.0,0.0,0.0,0.25,0.0,0.0,0.25,0.0,0.25,-0.36,1.77,-0.11,69.27,-24.6,39.3
10.12,1.0,0.0,0.5,0.5,0.0,0.0,0.25,0.0,1.0,0.0,0.25,0.25,0.25,4.58,7.95,4.58,57.15,20.5,11.6,0.0,0.5,2.75,0.25,0.0,1.0,0.0,0.0,0.0,0.0,0.25,0.0,0.25,-0.36,1.64,-0.17,74.95,-19.1,44.4
10.14,1.25,0.25,0.25,0.0,0.0,0.0,0.25,0.0,0.5,0.0,0.0,0.5,0.25,4.89,7.95,2.33,49.77,21.2,18.6,0.0,0.5,2.75,0.25,0.0,1.5,0.0,0.0,0.0,0.0,0.25,0.25,0.0,-0.73,1.52,0.14,80.12,-16.6,43.8
10.16,1.0,0.25,0.0,0.5,0.0,0.0,0.25,0.25,1.0,0.0,0.0,0.0,0.25,2.14,7.95,-0.23,47.34,15.9,22.3,0.0,0.5,2.75,0.25,0.0,0.25,0.0,0.0,0.0,0.0,0.25,0.0,0.0,-0.67,1.45,0.14,79.36,-28.5,55.9
10.18,0.0,0.0,0.0,0.0,0.0,0.0,0.0,0.0,0.25,0.0,0.0,0.0,0.0,0.14,7.89,-0.92,27.69,12.1,-38.5,0.0,0.5,2.75,2.75,0.0,2.0,0.0,0.0,0.0,0.0,0.0,0.25,0.0,0.14,-4.05,0.95,100.23,-14.7,51.1
10.2,0.0,0.0,0.0,0.0,0.0,0.0,0.0,0.0,0.5,0.0,0.0,0.0,0.0,1.7,7.64,-0.73,11.88,12.1,-38.5,0.5,0.5,2.75,5.25,3.75,1.75,0.25,0.0,0.0,0.0,0.25,0.0,0.0,0.02,0.77,-5.05,157.07,-11.5,54.9
10.22,0.25,0.0,0.0,0.0,0.0,0.0,0.0,0.0,0.5,0.0,0.0,0.0,0.0,2.7,7.02,0.52,0.0,19.5,5.2,1.0,1.25,2.75,7.0,6.5,2.0,0.25,0.0,0.0,0.5,0.25,0.25,0.0,0.14,-0.11,0.77,238.14,-9.4,52.5
10.24,0.0,0.0,0.0,1.0,0.0,0.0,0.5,0.0,0.75,0.0,0.0,0.25,0.0,1.33,6.08,1.27,4.84,16.2,5.0,1.25,1.75,4.5,7.5,6.0,5.25,0.25,0.0,0.5,2.0,0.0,0.5,0.0,0.14,0.27,1.27,331.71,-7.3,44.2
10.26,0.25,0.25,0.0,1.75,0.0,0.0,0.25,0.5,0.25,0.0,0.0,0.0,0.0,-6.92,4.14,7.95,19.83,12.9,40.3,2.75,1.75,7.0,7.5,6.5,5.5,2.0,4.0,2.5,6.5,4.0,2.5,1.75,-0.05,-0.17,1.2,548.39,-5.7,7.8
10.28,0.5,0.0,0.0,5.25,0.0,0.0,0.0,0.0,0.5,0.0,0.0,0.0,0.0,-2.73,-1.36,7.95,54.06,18.1,53.4,2.5,2.25,7.25,8.75,6.5,5.75,2.75,5.25,2.75,6.25,6.5,2.5,3.25,0.02,-0.11,1.14,803.99,-5.4,2.7
10.3,1.5,1.5,0.0,8.25,0.0,0.0,0.0,0.0,1.0,0.0,0.0,0.25,0.0,-0.55,0.95,3.2,117.52,18.0,56.5,3.5,2.25,7.75,9.5,7.0,6.0,3.0,4.25,2.0,4.25,4.75,1.0,1.75,0.08,0.08,0.95,995.54,-7.6,18.7
10.32,4.5,1.75,2.0,9.25,0.0,1.5,3.0,0.0,3.0,1.0,0.0,1.0,0.0,-1.61,0.83,7.14,225.95,17.9,41.6,3.5,2.5,8.5,10.5,8.0,6.0,3.0,3.5,2.0,3.0,2.75,1.0,1.25,0.2,0.2,0.89,1096.87,-8.9,28.6
10.34,4.5,1.75,5.25,9.25,6.0,1.75,2.5,4.75,5.25,2.75,4.75,2.0,1.25,-0.11,0.14,4.89,423.65,9.9,12.4,3.75,3.0,8.75,11.0,8.0,6.0,3.0,2.75,2.0,2.75,2.75,1.0,1.0,0.14,0.14,0.89,1133.6,-9.8,31.9
10.36,4.75,1.75,5.5,10.5,6.25,2.25,2.75,4.75,4.5,2.0,4.75,1.0,0.25,0.08,0.14,4.14,656.35,10.9,21.7,3.75,2.75,9.25,11.0,8.0,5.5,3.5,2.75,2.0,3.0,2.75,1.0,1.0,0.08,0.14,0.95,1129.06,-10.3,31.4
10.38,5.75,3.25,5.75,11.5,7.0,2.25,2.75,4.0,3.75,0.25,3.0,1.0,0.25,-0.55,0.58,3.7,857.47,12.7,35.4,3.75,2.25,9.25,10.5,8.0,5.5,3.5,2.75,2.0,3.0,2.75,1.0,1.0,0.08,0.14,0.95,1106.16,-10.2,30.5
10.4,5.75,3.25,6.25,11.5,7.5,2.25,2.75,3.5,3.75,0.25,2.5,1.0,0.25,-0.55,0.52,3.77,964.75,13.1,37.7,3.5,2.25,9.0,10.5,7.75,4.75,3.5,3.0,2.0,2.75,3.5,1.0,0.75,0.08,0.14,0.95,1072.94,-10.6,29.3
10.42,6.25,3.25,6.75,11.5,7.75,2.25,2.75,3.5,3.75,0.25,2.25,1.0,0.25,-0.23,0.45,3.89,1023.22,13.5,39.1,2.75,2.25,8.75,9.0,6.5,4.5,3.0,2.75,2.0,3.0,3.0,1.0,1.0,0.08,0.08,0.95,984.56,-10.3,26.6
10.44,6.25,3.25,7.0,11.5,7.25,2.25,2.75,3.5,3.5,0.25,2.25,1.0,0.25,-0.3,0.45,3.89,1027.73,13.8,39.4,2.5,2.25,8.75,9.0,6.5,4.25,2.5,2.5,2.0,2.25,2.75,1.0,1.0,0.08,0.08,0.95,884.61,-10.8,28.7
10.46,6.0,3.25,6.75,11.5,7.25,2.25,2.75,3.25,3.25,0.25,1.75,1.0,0.25,-0.23,0.45,3.89,1014.75,13.8,40.9,2.5,2.0,8.75,8.75,6.5,3.75,2.5,1.75,1.5,1.75,2.75,1.0,1.0,0.08,0.14,0.95,780.67,-11.8,31.2
10.48,5.75,3.25,6.5,10.5,7.0,2.0,2.75,2.75,2.75,0.25,1.5,1.0,0.25,-0.3,0.45,3.83,963.96,14.1,42.4,2.25,1.75,8.25,8.75,6.5,3.5,2.5,1.5,1.5,1.5,2.75,1.0,0.5,0.08,0.08,0.95,689.01,-12.2,32.8
10.5,5.75,2.0,6.0,10.5,7.0,1.75,2.5,2.5,2.5,0.25,1.5,0.75,0.25,-0.36,0.52,3.83,880.41,14.2,42.4,2.0,1.5,8.0,7.25,6.25,3.5,2.25,1.25,1.5,1.5,2.75,1.0,0.5,0.08,0.14,0.95,600.3,-11.9,31.1
10.52,5.75,1.75,5.75,9.5,6.5,1.5,2.0,2.0,2.5,0.25,1.25,0.5,0.25,-0.36,0.52,3.83,772.44,14.8,44.2,2.0,1.25,8.0,7.25,6.0,3.5,2.0,1.25,1.5,1.5,2.75,1.0,0.75,0.08,0.14,0.89,552.77,-11.8,29.5
10.54,5.0,1.75,5.5,9.25,6.25,1.5,2.0,2.0,2.0,0.25,1.25,1.0,0.25,-0.3,0.52,3.83,668.95,14.4,42.0,2.25,1.5,7.75,7.25,5.5,3.5,2.0,1.25,1.75,2.0,2.75,1.0,0.75,0.08,0.14,0.95,529.88,-11.6,28.1
10.56,4.75,1.75,5.5,9.25,5.75,1.5,1.75,1.75,2.0,0.25,1.0,0.75,0.25,-0.36,0.52,3.89,577.65,14.7,43.9,2.0,1.25,7.75,7.5,5.5,3.25,2.0,1.25,1.5,2.5,3.25,1.0,0.75,0.08,0.08,0.95,519.08,-11.4,25.2
10.58,4.5,1.75,5.25,9.25,5.75,1.5,1.75,1.75,2.0,0.25,1.0,1.0,0.25,-0.36,0.52,3.83,516.31,14.4,42.3,2.25,1.75,8.0,7.5,5.5,3.25,2.25,1.25,1.75,1.5,2.75,1.0,0.75,0.08,0.08,0.95,519.37,-12.5,30.2
10.6,4.5,1.75,4.5,8.75,5.75,1.0,1.75,1.75,2.0,0.25,1.0,0.75,0.25,-0.42,0.52,3.77,483.17,14.4,42.9,2.25,2.0,8.0,8.75,6.25,3.5,2.5,1.25,1.5,1.5,2.75,1.0,0.75,0.08,0.14,0.95,542.86,-12.2,32.4
10.62,4.5,1.5,3.75,8.0,5.75,0.75,1.75,1.75,2.0,0.25,0.75,1.0,0.25,-0.42,0.58,3.77,449.68,14.0,41.4,3.5,2.25,8.75,9.0,6.25,3.5,2.5,1.25,1.5,1.5,2.5,1.0,0.75,0.08,0.14,0.95,584.02,-13.3,35.8
10.64,4.5,1.25,3.5,8.0,5.5,1.0,1.5,1.75,2.0,0.25,1.25,1.0,0.25,-0.36,0.52,3.83,423.62,13.6,38.9,3.75,2.25,8.75,10.5,6.5,3.5,2.5,1.25,1.5,1.5,1.75,0.5,0.25,0.08,0.14,0.95,629.37,-13.8,42.1
10.66,4.5,1.25,3.5,8.0,5.5,1.0,1.5,1.75,2.0,0.25,1.25,1.0,0.25,-0.36,0.45,3.83,408.36,13.6,38.9,4.0,2.5,9.25,10.5,7.25,3.75,2.5,1.25,0.75,1.5,1.75,0.5,0.5,0.08,0.14,0.95,680.03,-13.5,43.5
10.68,4.5,1.5,3.75,8.0,5.75,1.0,1.75,2.0,2.25,0.25,1.25,1.0,0.25,-0.36,0.45,3.83,413.55,13.4,38.5,5.0,2.5,9.25,11.5,8.0,3.5,2.5,1.25,0.5,1.25,0.5,0.25,0.5,0.08,0.14,1.02,723.46,-14.2,50.1
10.7,5.25,1.75,3.75,9.25,5.75,1.25,1.75,1.75,2.25,0.25,1.25,1.0,0.25,-0.36,0.45,3.83,440.51,14.0,41.3,5.5,2.5,9.5,11.0,7.75,2.25,2.0,1.0,0.25,1.5,0.25,0.25,0.25,0.08,0.08,1.77,740.6,-15.7,53.0
10.72,5.75,1.75,4.75,9.25,5.75,1.25,2.0,1.75,2.25,0.25,1.25,1.0,0.25,-0.36,0.52,3.77,481.0,15.0,42.5,3.75,2.25,9.25,11.0,6.75,0.0,1.0,0.75,0.25,1.25,0.75,0.0,0.25,0.27,0.14,1.77,701.73,-17.6,53.0
10.74,6.0,1.75,5.5,9.75,6.25,1.5,2.0,1.75,2.5,0.25,1.25,1.0,0.25,-0.3,0.52,3.83,532.44,15.0,43.0,5.0,2.25,7.75,8.5,2.75,0.0,0.25,0.0,0.25,0.75,0.0,0.25,0.0,0.27,0.14,1.89,593.17,-22.4,62.2
10.76,6.5,1.75,5.5,10.5,6.75,1.5,2.0,2.0,2.25,0.25,1.25,1.0,0.25,-0.36,0.45,3.89,586.04,14.9,44.0,3.5,1.75,7.25,5.75,0.0,0.0,0.25,0.0,0.0,0.0,0.0,0.25,0.0,0.27,0.08,1.89,436.27,-28.1,67.5
10.78,6.75,2.25,5.75,10.5,7.0,1.5,2.5,1.75,2.0,0.25,1.25,0.75,0.25,-0.42,0.45,3.95,633.19,15.3,46.9,1.0,1.0,5.75,4.75,0.0,0.0,0.25,0.5,0.25,0.0,0.25,0.25,0.0,0.33,0.08,2.14,302.28,-25.4,54.2
10.8,7.25,3.25,6.25,11.5,7.75,1.5,2.5,1.75,1.25,0.0,0.75,1.0,0.25,-0.55,0.77,4.33,686.83,15.6,51.7,0.0,0.25,4.75,0.75,0.0,0.0,0.25,0.25,0.0,0.0,0.5,0.0,0.25,0.27,-0.86,1.52,190.3,-29.1,42.3
10.82,7.25,3.25,6.5,11.5,8.0,1.25,1.75,1.5,1.0,0.0,0.5,0.5,0.25,-0.61,0.7,7.33,719.27,16.0,55.6,0.0,0.5,3.0,2.0,0.0,0.0,0.25,0.25,0.0,0.0,0.25,0.25,0.5,1.64,-3.42,-1.36,96.44,-22.3,35.6
10.84,7.75,3.25,6.25,10.5,6.25,0.25,0.75,1.5,1.0,0.0,0.25,0.5,0.0,-1.55,0.39,7.95,708.02,18.0,58.9,0.0,0.5,3.0,1.75,0.0,0.0,0.25,0.5,0.25,0.0,0.25,0.25,0.25,1.14,-1.86,0.27,29.13,-22.1,34.9
10.86,7.75,1.25,5.5,8.0,4.5,0.0,0.25,1.5,1.0,0.0,0.5,0.0,0.0,-1.48,0.52,7.95,625.56,19.7,58.8,0.0,0.5,2.75,1.75,0.0,0.0,0.0,0.25,0.25,0.25,0.25,0.25,0.0,0.64,-0.61,0.2,0.0,-22.7,38.3
10.88,6.75,1.75,4.5,6.75,0.75,0.0,0.25,1.5,1.0,0.0,0.25,0.25,0.0,-1.36,1.02,7.95,499.99,22.5,58.6,0.0,0.5,3.0,1.25,0.0,0.0,0.25,0.25,0.0,0.0,0.25,0.25,0.0,0.27,-0.42,0.7,0.0,-26.2,45.5
10.9,5.75,0.75,2.0,4.75,0.0,0.0,0.25,1.0,1.0,0.0,0.25,0.25,0.25,-1.98,-0.42,6.83,358.07,22.6,54.1,0.0,0.5,2.75,1.25,0.0,0.0,0.25,0.25,0.0,0.25,0.25,0.25,0.0,-0.23,-0.17,1.14,0.0,-23.9,39.6
10.92,3.0,0.5,1.25,2.75,0.0,0.0,0.25,1.0,1.0,0.0,0.25,0.5,0.25,-0.98,-2.67,5.58,247.22,19.4,37.3,0.0,0.5,2.75,1.25,0.0,0.0,0.25,0.0,0.0,0.0,0.25,0.0,0.0,-0.36,-0.05,1.02,0.0,-28.6,56.7
10.94,1.5,0.5,1.0,2.25,0.0,0.0,0.5,1.25,1.0,0.0,0.5,0.25,0.0,-2.11,-7.98,-4.61,152.22,16.6,28.6,0.0,0.5,2.75,0.75,0.0,0.0,0.0,0.25,0.0,0.0,0.25,0.25,0.0,-0.23,0.27,0.95,0.0,-26.4,43.9
10.96,1.5,0.5,1.0,2.5,0.0,0.0,0.5,1.0,1.25,0.0,0.25,0.25,0.0,-3.55,-7.8,7.95,82.99,17.6,32.5,0.0,0.5,2.75,0.75,0.0,0.0,0.0,0.0,0.0,0.0,0.25,0.0,0.0,-0.23,0.52,0.95,14.24,-29.9,57.3
10.98,1.25,0.5,0.75,2.5,0.0,0.0,0.5,0.75,1.0,0.0,0.25,0.25,0.0,-1.42,-6.05,-0.3,37.25,17.7,34.2,0.0,0.5,2.75,0.5,0.0,0.0,0.0,0.25,0.0,0.5,0.25,0.25,0.0,-0.11,0.83,1.14,37.8,-22.8,31.5
11.0,1.25,0.5,1.25,2.5,0.0,0.0,0.25,1.0,1.0,0.0,0.25,0.25,0.0,-2.05,-2.36,0.7,20.46,17.7,33.7,0.0,0.5,2.75,0.5,0.0,0.0,0.25,0.0,0.0,0.0,0.25,0.25,0.0,-0.11,1.27,1.33,53.26,-29.6,47.2
11.02,1.25,0.5,0.75,2.0,0.0,0.0,0.5,1.0,1.0,0.0,0.0,0.25,0.0,-2.17,-2.11,1.89,11.93,16.8,33.6,0.0,0.5,2.75,0.5,0.0,0.0,0.25,0.0,0.0,0.0,0.0,0.0,0.0,-0.61,1.89,1.02,61.14,-32.0,64.4
11.04,1.25,0.25,0.5,1.75,0.0,0.0,0.25,1.0,1.0,0.0,0.25,0.25,0.0,-1.73,-0.86,3.02,9.8,15.5,24.8,0.0,0.5,3.75,0.5,0.0,0.0,0.0,0.0,0.0,0.25,0.25,0.0,0.25,-0.98,2.52,0.52,73.92,-28.0,44.4
11.06,1.25,0.5,0.25,1.75,0.0,0.0,0.25,0.75,1.0,0.0,0.25,0.25,0.25,-1.23,0.27,2.02,17.59,14.6,23.4,0.0,0.5,2.75,0.5,0.0,0.0,0.0,0.0,0.0,0.0,0.25,0.25,0.0,-1.3,2.89,0.33,73.14,-29.5,47.8
11.08,1.25,0.5,0.5,0.75,0.0,0.0,0.25,0.75,0.5,0.0,0.5,0.0,0.25,-0.86,2.27,2.39,27.38,15.6,26.0,0.0,0.5,2.75,0.5,0.0,1.25,0.0,0.0,0.0,0.0,0.25,0.0,0.0,-1.05,2.77,-0.17,78.94,-18.8,52.1
11.1,1.25,0.5,0.0,1.0,0.0,0.0,0.0,0.0,1.0,0.0,0.0,0.25,0.0,-0.48,3.64,4.83,35.15,20.0,40.4,0.0,0.5,2.75,0.25,0.0,0.5,0.25,0.0,0.0,0.25,0.25,0.25,0.0,-0.3,2.27,-0.23,80.03,-22.9,39.2
11.12,1.0,0.5,0.0,0.75,0.0,0.0,0.0,0.25,1.0,0.0,0.0,0.75,0.25,0.52,4.89,7.77,43.18,14.2,6.7,0.0,0.5,2.75,0.25,0.0,0.5,0.25,0.0,0.0,0.0,0.25,0.25,0.0,0.2,1.89,-0.36,81.23,-25.0,45.3
11.14,0.75,0.25,0.25,1.0,0.0,0.0,0.25,0.5,1.0,0.0,0.0,0.25,0.25,0.89,7.95,7.89,50.88,14.1,13.8,0.0,0.5,2.75,0.25,0.0,1.75,0.25,0.0,0.0,0.0,0.25,0.25,0.0,0.02,1.64,-0.11,85.99,-15.3,43.0
11.16,1.25,0.5,1.0,1.0,0.0,0.0,0.0,0.75,1.0,0.0,0.5,0.25,0.0,2.64,7.95,4.58,66.48,17.9,25.3,0.0,0.5,2.75,2.75,0.0,1.0,0.25,0.0,0.0,0.0,0.0,0.0,0.0,-0.73,-2.67,6.2,100.69,-20.1,58.4
11.18,0.0,0.5,0.0,0.75,0.0,0.0,0.25,0.25,1.0,0.0,0.25,0.25,0.25,4.64,7.95,1.27,61.81,9.7,-6.3,0.75,0.5,2.75,5.0,2.25,1.0,0.5,0.0,0.0,0.0,0.0,0.0,0.0,-0.3,1.33,6.77,144.52,-15.8,59.1
11.2,0.0,0.0,0.0,0.5,0.0,0.0,0.25,0.25,1.0,0.0,0.25,0.0,0.25,3.64,7.95,0.14,51.02,8.3,-25.5,1.0,1.25,3.0,7.0,3.5,2.25,0.25,0.0,0.0,0.0,0.25,0.25,0.0,0.02,0.08,-1.36,210.72,-12.3,55.5
11.22,0.0,0.0,0.0,0.0,0.0,0.0,0.25,0.25,0.5,0.0,0.25,0.0,0.0,1.64,7.95,-1.67,30.61,7.5,-39.5,2.0,2.25,6.75,9.0,6.5,4.5,0.75,0.5,0.75,1.5,0.25,0.0,0.0,0.2,0.39,1.89,331.54,-10.9,49.3
11.24,0.0,0.25,0.25,0.5,0.0,0.0,0.25,0.5,1.0,0.0,0.0,0.0,0.0,1.95,7.95,-1.86,24.31,11.2,6.5,3.25,2.25,7.75,10.0,7.5,5.5,2.5,2.75,2.0,4.5,2.5,1.0,1.25,0.33,-0.11,1.27,553.41,-8.2,25.3
11.26,0.0,0.25,0.0,0.5,0.0,0.0,0.0,0.0,1.0,0.0,0.0,0.0,0.25,2.14,7.95,-0.8,19.55,10.2,-5.1,3.5,2.25,8.75,10.5,7.75,5.75,3.5,4.0,2.0,3.25,3.0,1.0,1.5,0.02,-0.05,1.14,799.23,-8.9,26.1
11.28,0.75,0.5,0.5,1.0,0.0,0.0,0.25,0.25,0.75,0.0,0.0,0.0,0.25,-5.17,-7.98,7.95,34.75,17.8,35.7,3.75,3.0,8.75,12.0,8.0,6.0,3.5,2.75,1.5,1.5,2.0,0.75,1.0,0.08,0.14,0.95,977.99,-10.6,37.6
11.3,3.75,0.0,0.25,4.75,0.0,0.0,0.0,0.25,1.0,0.0,0.0,0.25,0.0,3.7,-1.05,-7.98,83.53,22.3,55.9,3.75,3.75,9.25,12.5,8.75,6.0,3.0,1.75,1.0,1.5,1.5,0.5,0.75,0.2,0.2,0.89,1079.22,-11.3,43.7
11.32,3.0,0.5,0.0,6.75,0.0,0.0,0.0,0.0,1.0,0.0,0.0,0.5,0.0,1.08,-0.42,7.52,135.51,20.4,54.0,4.75,3.75,9.5,12.5,9.25,5.75,3.0,1.25,0.75,1.5,1.0,0.5,0.75,0.14,0.2,0.89,1117.18,-12.1,47.1
11.34,5.75,1.75,5.25,9.25,5.75,1.5,2.75,5.0,5.5,3.75,5.75,3.0,1.5,-0.11,1.08,5.64,356.42,10.0,7.7,4.75,3.75,9.75,13.0,9.0,5.5,3.0,1.25,1.0,1.5,1.5,0.5,0.5,0.02,0.2,0.89,1128.91,-12.6,46.5
11.36,6.25,1.75,5.75,10.5,5.75,2.25,2.75,4.5,4.0,1.0,3.5,1.0,0.25,-0.05,0.58,3.77,577.11,12.5,29.0,4.5,3.5,9.75,12.5,8.5,5.5,3.25,1.25,1.25,1.5,1.25,0.75,0.25,0.08,0.14,0.95,1115.49,-12.8,46.0
11.38,6.5,3.25,6.25,11.5,6.5,2.25,3.0,3.5,3.5,0.25,0.5,1.0,0.25,-0.73,0.58,3.7,804.51,14.0,43.1,4.0,3.5,9.5,12.5,8.0,5.0,3.5,1.25,1.5,1.5,1.75,0.5,0.25,0.08,0.14,0.95,1079.63,-13.0,44.7
11.4,6.75,3.25,6.5,12.0,7.75,2.25,2.75,3.25,3.25,0.25,1.5,1.0,0.25,-0.42,0.52,3.83,929.89,13.8,42.5,4.0,3.5,9.5,12.5,8.0,4.75,3.5,1.25,1.0,1.5,1.5,0.5,0.25,0.08,0.14,0.95,1022.3,-13.2,46.1
11.42,7.0,3.25,7.25,12.0,7.75,2.25,3.5,3.0,3.0,0.25,1.5,1.0,0.25,-0.23,0.52,3.83,1016.11,14.5,43.7,4.0,3.5,9.5,12.5,8.0,4.5,3.5,1.25,0.75,1.5,0.75,0.25,0.0,0.08,0.14,0.95,949.9,-13.5,49.9
11.44,7.0,3.25,7.25,12.0,7.75,2.25,3.5,2.75,3.0,0.25,1.5,1.0,0.25,-0.3,0.52,3.83,1033.24,14.7,44.1,4.0,3.25,9.5,12.5,8.0,4.5,3.0,1.25,0.75,1.5,0.25,0.25,0.25,0.08,0.14,0.95,880.13,-13.3,50.2
11.46,6.75,3.25,7.25,11.5,7.5,1.75,3.5,2.75,3.0,0.25,1.5,1.0,0.25,-0.3,0.45,3.89,1031.69,15.0,43.7,3.75,3.25,9.5,12.5,8.0,4.25,2.5,1.0,0.5,1.5,0.25,0.25,0.0,0.02,0.14,0.95,811.39,-13.6,51.9
11.48,6.75,3.25,7.25,11.5,7.0,1.5,3.25,2.5,3.0,0.25,1.5,1.0,0.25,-0.23,0.52,3.83,1008.95,15.5,44.1,3.75,3.25,9.5,12.0,8.0,2.5,2.25,1.0,0.25,1.0,0.25,0.25,0.0,0.08,0.2,0.95,748.56,-15.2,54.5
11.5,6.25,2.0,6.5,10.5,6.75,1.5,2.75,2.25,3.0,0.25,1.5,1.0,0.25,-0.36,0.45,3.77,928.57,15.2,41.8,3.75,3.25,9.25,12.0,7.5,2.0,2.0,0.75,0.25,1.5,0.5,0.25,0.25,0.02,0.2,0.89,706.66,-15.3,52.1
11.52,6.25,1.75,6.25,10.5,6.25,1.5,2.5,2.0,2.75,0.25,1.5,1.0,0.25,-0.3,0.45,3.89,835.47,15.5,42.2,3.5,3.0,9.5,12.0,7.75,3.25,2.0,1.0,0.25,1.25,0.25,0.25,0.0,0.02,0.2,0.83,684.85,-14.4,53.0
11.54,6.25,1.75,6.25,9.25,6.0,1.0,2.5,1.75,2.5,0.25,1.25,1.0,0.25,-0.36,0.52,3.83,729.62,16.3,43.4,3.75,3.0,9.5,12.0,7.75,3.5,2.25,1.0,0.5,1.25,0.25,0.25,0.0,0.02,0.2,0.95,679.76,-14.4,52.6
11.56,6.0,1.75,5.75,9.25,5.75,1.0,2.5,1.75,2.0,0.25,1.0,0.75,0.25,-0.36,0.52,3.83,634.22,16.2,45.6,3.75,3.0,9.5,12.0,8.0,3.5,2.5,1.0,0.75,1.5,0.25,0.5,0.0,0.02,0.14,0.95,691.03,-14.1,50.5
11.58,5.75,1.75,5.5,9.25,5.75,0.75,2.0,1.75,2.0,0.25,0.5,0.75,0.25,-0.36,0.52,3.77,543.46,16.1,47.0,4.5,3.0,10.0,12.5,8.0,3.75,3.0,1.25,0.75,1.25,0.25,0.25,0.25,0.02,0.14,1.02,722.82,-14.5,51.3
11.6,5.75,1.75,5.25,9.25,5.75,0.75,2.0,1.75,2.0,0.25,0.5,0.75,0.0,-0.36,0.52,3.64,515.18,16.1,48.0,5.0,3.75,10.5,13.5,8.0,4.0,3.0,0.75,0.25,0.5,0.25,0.25,0.0,0.08,0.14,1.02,763.96,-15.7,57.2
11.62,5.75,1.5,5.25,8.5,5.5,0.75,2.0,1.75,2.0,0.25,0.75,1.0,0.25,-0.36,0.58,3.7,488.55,16.0,44.3,5.5,2.5,10.5,13.0,8.0,0.0,2.0,0.5,0.0,0.0,0.25,0.25,0.0,0.08,0.14,1.58,750.83,-19.7,61.4
11.64,5.5,1.5,4.75,8.25,5.0,0.75,2.0,1.75,2.5,0.25,1.25,1.0,0.25,-0.36,0.52,3.83,467.92,15.7,40.5,5.75,3.25,10.5,12.5,8.0,2.75,1.0,0.0,0.0,1.0,0.25,0.25,0.0,0.2,0.27,1.7,752.59,-16.8,59.2
11.66,5.75,1.5,5.0,8.5,5.25,0.75,2.0,1.75,2.5,0.25,1.5,1.0,0.25,-0.36,0.39,3.89,466.39,15.8,40.5,5.5,2.75,9.25,10.5,6.75,1.25,0.25,0.0,0.0,0.25,0.5,0.25,0.0,0.27,0.2,1.95,691.05,-18.7,61.6
11.68,5.75,1.75,5.25,9.25,5.75,0.75,2.0,1.75,2.5,0.25,1.5,1.0,0.25,-0.36,0.45,3.83,484.08,15.7,41.6,4.0,2.25,8.0,7.25,4.5,0.5,0.25,0.0,0.0,0.0,0.25,0.25,0.0,0.33,0.08,1.89,575.04,-20.8,63.5
11.7,5.75,1.75,5.5,9.25,5.75,1.0,2.25,1.75,2.5,0.25,1.25,1.0,0.25,-0.3,0.52,3.77,509.39,15.7,42.4,1.75,1.25,6.75,5.5,3.5,2.5,0.25,0.0,0.0,0.25,0.25,0.0,0.0,0.45,0.08,2.27,436.52,-16.4,57.7
11.72,6.25,1.75,5.5,9.75,5.75,1.0,2.5,1.75,2.5,0.25,1.25,1.0,0.25,-0.3,0.45,3.83,540.97,16.0,43.2,0.0,0.5,5.25,3.0,0.25,0.5,0.25,0.25,0.0,1.0,0.25,0.25,0.0,0.27,-1.11,1.45,292.8,-20.9,39.9
11.74,6.5,1.75,6.25,10.5,6.25,1.25,2.75,1.75,2.0,0.25,1.25,0.75,0.25,-0.36,0.52,3.83,581.8,16.2,46.1,0.0,0.5,4.5,2.75,0.25,0.25,0.25,0.0,0.0,0.0,0.25,0.0,0.0,1.2,-4.55,-2.11,187.27,-26.1,57.0
11.76,6.75,2.0,6.25,10.5,7.0,1.25,2.75,1.75,2.0,0.0,1.0,0.5,0.25,-0.42,0.52,3.95,618.11,16.1,49.2,0.0,0.5,3.75,2.5,0.25,0.0,0.25,0.25,0.0,0.0,0.25,0.25,0.0,1.77,-2.55,2.58,92.15,-24.9,49.3
11.78,7.25,3.25,7.0,11.5,7.0,1.25,2.75,1.75,1.25,0.0,0.0,0.5,0.25,-0.61,0.64,4.14,662.4,16.8,55.8,0.0,0.5,3.75,2.0,0.0,0.0,0.25,0.0,0.0,0.25,0.25,0.25,0.0,0.58,-2.11,-0.17,33.2,-26.6,47.2
11.8,7.75,3.25,7.25,11.5,7.25,0.75,2.75,1.75,1.0,0.0,0.25,0.75,0.25,-0.48,0.58,6.95,700.62,17.4,55.4,0.0,0.5,3.5,2.0,0.0,0.0,0.25,0.0,0.0,0.0,0.25,0.0,0.0,0.39,-0.92,0.14,0.0,-28.4,57.3
11.82,7.75,1.75,7.25,11.0,6.25,0.0,2.0,1.25,1.0,0.0,0.25,0.25,0.25,-1.17,0.64,6.64,691.32,19.3,57.7,0.0,0.5,3.0,1.75,0.0,0.5,0.25,0.5,0.0,0.5,0.25,0.25,0.0,0.14,-0.61,0.7,0.0,-18.3,34.8
11.84,8.0,1.75,7.25,9.25,5.0,0.0,1.0,1.5,1.0,0.0,0.25,0.25,0.0,-2.11,0.64,7.2,646.39,20.3,59.0,0.0,0.5,3.25,1.75,0.25,0.5,0.0,0.0,0.0,0.5,0.25,0.0,0.0,-0.11,-0.05,0.77,0.0,-20.7,46.7
11.86,7.75,1.75,6.25,6.75,2.5,0.0,0.5,1.5,1.0,0.0,0.5,0.25,0.0,-1.86,0.52,7.02,553.26,22.0,58.4,0.0,0.5,3.0,1.75,0.0,0.0,0.25,0.0,0.0,0.25,0.25,0.0,0.0,-0.17,0.14,0.52,5.36,-26.2,51.5
11.88,7.0,0.75,3.5,6.0,0.0,0.0,0.5,1.0,1.0,0.0,0.0,0.25,0.0,-0.8,0.83,7.95,420.61,24.8,61.1,0.0,0.5,3.0,1.5,0.0,0.0,0.0,0.0,0.0,0.25,0.25,0.0,0.0,-0.23,0.39,0.77,14.92,-26.5,51.7
11.9,5.5,0.5,2.0,4.5,0.0,0.0,0.5,0.75,1.0,0.0,0.0,0.25,0.0,-2.17,-0.55,6.64,302.9,24.2,59.0,0.0,0.5,2.75,1.25,0.0,0.0,0.0,0.0,0.0,0.0,0.25,0.0,0.0,0.02,0.77,1.33,31.09,-28.5,57.4
11.92,3.0,0.5,1.75,2.5,0.0,0.0,0.5,1.25,1.0,0.0,0.5,0.25,0.0,-2.42,-4.86,2.89,214.5,20.5,40.4,0.0,0.5,2.75,0.5,0.0,0.0,0.25,0.0,0.0,0.0,0.25,0.0,0.0,-0.17,1.14,1.83,43.05,-30.8,56.4
11.94,1.5,0.5,1.75,2.5,0.0,0.0,0.5,1.0,1.0,0.0,0.5,0.25,0.0,-5.42,-7.98,1.39,136.09,19.3,33.9,0.0,0.5,2.75,1.0,0.0,0.25,0.0,0.0,0.0,0.25,0.25,0.0,0.0,-0.55,2.2,1.7,56.12,-24.6,49.8
11.96,1.25,0.5,1.75,2.5,0.0,0.0,0.5,1.0,1.0,0.0,0.25,0.25,0.0,-2.73,-7.98,-0.48,78.74,19.1,35.2,0.0,0.5,2.75,0.5,0.0,0.0,0.25,0.0,0.0,0.25,0.25,0.0,0.0,-0.73,2.83,0.83,65.86,-28.2,49.1
11.98,1.25,0.5,1.25,2.5,0.0,0.0,0.5,0.75,1.0,0.0,0.5,0.0,0.0,-1.61,-3.23,0.83,44.22,19.1,37.0,0.0,0.5,2.75,0.5,0.0,0.5,0.25,0.0,0.0,0.0,0.25,0.0,0.0,-0.98,3.45,-0.23,69.31,-25.4,54.2
12.0,1.25,0.5,1.25,1.75,0.0,0.0,0.5,0.75,1.0,0.0,0.0,0.0,0.0,-2.3,-3.17,1.02,21.74,19.9,42.6,0.0,0.5,2.75,0.5,0.0,1.25,0.0,0.0,0.0,0.25,0.25,0.0,0.0,-0.55,3.2,-0.3,74.87,-17.2,46.3
12.02,1.25,0.0,0.75,1.75,0.0,0.0,0.5,1.25,1.0,0.0,0.25,0.0,0.0,-1.67,-1.86,2.02,9.84,15.9,26.0,0.0,0.5,3.0,0.5,0.0,1.5,0.25,0.0,0.0,0.0,0.25,0.0,0.25,-0.3,2.58,-0.3,84.36,-16.9,44.5
12.04,0.0,0.0,0.75,0.5,0.0,0.0,0.5,0.5,1.0,0.0,0.25,0.0,0.0,-1.3,-0.48,1.27,0.0,16.1,2.5,0.0,0.5,2.75,0.5,0.0,2.0,0.25,0.0,0.0,0.0,0.25,0.25,0.0,0.2,2.08,-0.48,92.92,-14.0,43.3
12.06,1.25,0.5,0.5,1.25,0.0,0.0,0.5,0.25,1.0,0.0,0.5,0.25,0.25,-1.11,1.39,2.14,3.62,18.2,23.3,0.0,0.5,2.75,2.75,0.0,2.75,0.0,0.0,0.0,0.0,0.25,0.0,0.25,0.2,1.7,-0.42,115.6,-11.1,46.3
12.08,1.25,0.5,0.0,1.25,0.0,0.0,0.5,0.5,0.75,0.0,0.0,0.0,0.25,-0.17,2.33,5.39,12.93,15.8,36.2,0.0,0.5,3.0,5.25,2.25,2.75,0.25,0.0,0.0,0.0,0.25,0.0,0.0,-0.42,-0.8,0.83,162.97,-10.7,52.5
12.1,0.0,0.25,0.25,0.5,0.0,0.0,0.25,0.5,0.5,0.0,0.0,0.0,0.0,-0.98,4.77,6.33,17.63,10.9,16.9,0.75,0.75,4.75,7.0,6.25,2.75,0.25,0.0,0.0,0.0,0.0,0.25,0.0,0.7,0.02,1.95,244.31,-11.3,55.2
12.12,1.25,0.5,0.0,1.0,0.0,0.0,0.0,0.5,1.0,0.0,0.0,0.0,0.25,-0.17,7.64,7.33,32.02,14.6,31.3,0.0,1.25,5.5,6.75,6.5,4.75,0.75,0.25,0.25,0.0,0.25,0.25,0.0,0.39,0.2,0.7,321.22,-8.8,50.5
12.14,0.5,0.25,0.25,0.75,0.0,0.0,0.25,0.5,1.0,0.0,0.0,0.0,0.0,1.89,7.95,6.33,35.95,14.9,23.1,1.0,0.75,5.5,7.0,5.75,5.25,1.0,1.25,1.75,5.25,0.25,1.0,0.75,0.2,0.2,1.02,437.88,-4.9,20.3
12.16,0.0,0.0,0.25,0.5,0.0,0.0,0.25,0.25,0.5,0.0,0.0,0.0,0.25,4.45,7.95,2.02,31.37,11.0,-4.0,1.0,1.25,7.25,8.5,6.75,5.75,2.25,3.5,2.0,4.75,4.75,2.25,2.25,-0.05,0.08,1.14,624.82,-5.7,7.7
12.18,0.0,0.0,0.5,0.5,0.0,0.0,0.25,0.0,1.0,0.0,0.0,0.25,0.0,5.95,7.95,-0.11,26.16,19.5,-0.1,1.0,1.25,7.75,8.75,6.75,6.0,3.0,3.25,2.0,4.5,4.75,1.0,1.5,0.08,0.14,0.95,781.09,-6.6,14.0
12.2,0.0,0.0,0.25,0.25,0.0,0.0,0.0,0.0,0.5,0.0,0.0,0.0,0.0,4.27,7.95,-0.48,16.81,20.1,11.6,1.25,1.75,8.0,9.25,8.0,6.25,3.0,2.75,2.0,4.0,4.0,1.0,1.5,0.14,0.14,0.89,909.46,-7.0,19.6
12.22,0.0,0.0,0.0,0.25,0.0,0.0,0.0,0.0,0.5,0.0,0.0,0.0,0.0,2.02,7.95,-1.86,8.02,13.9,-5.1,1.25,1.5,8.5,10.5,8.0,6.25,3.5,2.75,2.75,4.5,4.0,1.25,1.25,0.14,0.14,0.95,997.83,-7.6,19.0
12.24,0.0,0.0,0.25,0.5,0.0,0.0,0.25,0.0,0.5,0.0,0.0,0.0,0.25,2.02,7.95,-0.92,7.19,15.2,1.2,1.25,1.75,8.75,10.5,8.0,6.25,3.75,3.0,2.75,4.5,4.75,1.5,1.5,0.08,0.14,0.95,1062.33,-7.6,17.0
12.26,0.0,0.0,0.0,0.75,0.0,0.0,0.0,0.0,0.75,0.0,0.0,0.25,0.0,7.95,-3.98,7.95,11.35,13.9,-5.8,1.25,1.25,8.75,9.25,8.0,5.75,3.75,3.0,2.75,4.5,4.75,2.0,1.5,0.08,0.08,0.95,1073.72,-7.6,14.0
12.28,3.5,0.25,0.25,5.5,0.0,0.0,0.0,0.0,0.0,0.0,0.0,0.0,0.25,-5.36,1.27,7.95,66.2,22.7,67.9,1.0,1.25,8.75,9.0,8.0,5.75,3.5,2.75,2.75,4.5,4.75,1.5,1.5,0.08,0.08,0.95,1057.86,-7.5,14.8
12.3,5.75,1.5,0.0,9.75,0.0,0.0,0.0,0.0,0.25,0.0,0.0,0.25,0.0,-0.67,1.14,5.45,153.67,22.0,69.9,1.25,1.25,8.5,8.75,7.5,5.5,3.5,2.75,2.5,3.5,4.5,1.0,1.25,0.08,0.08,0.95,997.68,-8.2,18.4
12.32,6.75,0.75,5.25,11.5,0.0,1.0,1.5,1.25,2.5,0.25,0.0,1.0,0.25,-1.11,1.33,7.95,281.91,20.9,46.8,1.0,1.25,8.25,9.0,7.75,5.0,3.0,2.75,2.0,3.0,3.75,1.0,1.25,0.08,0.08,0.95,915.84,-8.3,21.0
12.34,6.5,1.75,6.5,10.5,6.25,1.5,4.0,4.5,5.5,2.75,4.5,2.0,1.5,-1.11,0.08,5.58,528.77,11.9,17.5,1.0,1.25,8.25,8.75,7.25,5.0,3.0,2.5,2.0,3.0,3.5,1.0,1.0,0.08,0.14,0.95,832.4,-8.6,21.9
12.36,6.75,1.75,7.25,11.5,6.0,1.5,4.25,4.5,4.25,0.75,4.75,1.0,0.5,0.2,0.08,4.27,772.51,14.2,28.3,1.0,1.25,8.0,8.75,6.75,5.0,2.5,2.5,2.0,2.75,3.0,1.0,1.0,0.08,0.08,0.95,761.38,-8.6,22.8
12.38,7.0,3.25,7.25,12.0,6.25,1.5,4.25,3.0,3.0,0.25,2.25,1.0,0.25,-0.42,0.58,3.7,948.09,15.7,41.6,1.0,1.25,8.0,8.75,6.5,5.0,2.5,2.5,2.0,2.5,2.75,1.0,0.75,0.08,0.14,0.95,698.68,-8.9,24.5
12.4,7.25,3.25,7.75,13.0,7.0,1.5,4.25,1.75,2.5,0.25,0.5,0.75,0.25,-0.55,0.58,3.89,1017.12,16.8,50.3,1.0,1.25,8.0,8.75,6.5,4.5,2.5,1.75,1.75,2.25,2.75,1.0,0.75,0.08,0.14,0.95,645.4,-9.8,26.5
12.42,7.5,3.25,7.75,13.0,7.25,1.5,4.25,1.75,2.0,0.25,0.5,1.0,0.25,-0.23,0.64,3.7,1034.23,16.8,50.6,1.0,1.25,8.0,8.75,6.5,4.5,2.5,1.75,1.5,2.5,2.75,1.0,0.75,0.08,0.08,0.95,619.78,-9.7,26.2
12.44,7.75,3.25,7.25,13.0,7.25,1.25,4.25,1.75,2.0,0.0,0.75,1.0,0.25,-0.17,0.64,3.58,1015.92,17.0,50.8,1.0,1.25,8.0,8.75,6.5,4.5,2.5,1.75,1.5,1.5,2.75,1.0,0.75,0.08,0.08,0.95,595.79,-10.3,28.7
12.46,7.25,3.25,7.25,11.5,7.0,0.75,4.25,1.75,2.5,0.25,1.0,1.0,0.25,-0.3,0.58,3.77,982.72,17.1,48.0,1.0,1.25,8.0,8.75,6.5,4.5,2.5,1.5,1.5,2.25,2.25,0.75,1.5,0.08,0.08,0.95,585.99,-9.5,26.7
12.48,7.25,1.75,7.25,10.5,5.75,0.75,4.25,1.75,3.0,0.25,1.5,1.0,0.25,-0.23,0.52,3.89,918.11,17.8,43.5,1.0,1.25,8.0,8.75,6.75,4.5,2.5,1.25,1.5,1.75,2.5,1.0,0.75,0.08,0.14,0.95,581.2,-10.3,29.6
12.5,6.75,1.75,7.25,9.25,5.75,0.75,4.0,1.75,3.25,0.25,2.25,1.0,0.25,-0.3,0.33,3.95,836.06,17.4,40.1,1.0,1.25,8.0,9.25,6.75,4.75,2.5,1.25,1.5,1.5,2.25,0.75,0.5,0.08,0.08,0.95,585.06,-10.6,33.0
12.52,6.5,1.75,6.75,9.25,5.0,0.25,3.5,1.75,3.25,0.25,2.25,1.0,0.25,-0.23,0.39,3.89,738.96,17.9,39.3,1.5,1.5,8.5,10.5,7.5,5.0,2.5,1.25,1.5,1.5,2.0,0.5,0.75,0.08,0.08,0.95,612.85,-10.8,36.0
12.54,6.5,1.0,6.25,8.75,4.25,0.5,3.25,1.75,3.0,0.25,2.25,1.0,0.25,-0.3,0.45,3.83,644.45,17.9,37.8,1.5,1.5,8.75,11.0,8.0,5.0,3.0,1.25,1.5,1.5,1.75,0.5,0.75,0.08,0.14,0.95,651.74,-10.9,37.2
12.56,6.0,1.0,6.25,8.0,3.5,0.0,2.75,1.75,3.0,0.25,2.25,1.0,0.25,-0.23,0.45,3.77,552.14,18.7,36.3,2.0,2.0,9.25,12.0,8.0,5.0,3.5,1.25,1.5,1.5,1.75,0.5,0.5,0.08,0.14,0.95,706.46,-11.8,39.9
12.58,5.75,0.75,5.5,8.0,3.25,0.25,2.75,1.75,3.0,0.25,2.5,1.0,0.25,-0.3,0.45,3.83,482.64,18.0,33.9,2.25,2.25,9.5,12.5,8.75,5.0,3.75,1.25,1.25,1.5,1.75,0.25,0.5,0.08,0.14,0.95,762.84,-11.9,42.1
12.6,5.75,0.75,5.5,8.0,2.75,0.25,2.5,1.75,3.25,0.25,2.5,1.0,0.25,-0.3,0.45,3.83,451.3,18.3,33.0,2.25,2.25,10.0,14.0,9.25,5.25,4.0,1.25,0.75,1.5,1.5,0.5,0.5,0.08,0.14,0.95,826.93,-12.0,43.3
12.62,5.75,0.5,5.5,8.0,3.25,0.25,2.75,1.75,3.25,0.25,2.5,1.0,0.25,-0.3,0.33,3.83,437.03,18.0,32.8,2.75,2.25,10.5,14.0,9.5,5.25,4.0,1.25,0.5,1.5,0.75,0.25,0.25,0.14,0.14,1.02,872.77,-12.6,47.5
12.64,6.0,0.75,5.5,8.0,3.5,0.5,2.75,1.75,3.25,0.25,2.5,1.0,0.25,-0.23,0.39,3.83,439.13,17.7,33.9,2.75,2.25,10.5,14.0,10.5,4.75,3.25,1.0,0.25,0.75,0.25,0.25,0.0,0.14,0.14,1.52,894.52,-13.1,52.5
12.66,6.25,1.25,5.5,9.0,4.75,0.75,2.75,1.75,3.0,0.25,2.25,1.0,0.25,-0.3,0.45,3.83,467.61,16.7,37.8,2.5,2.25,10.5,14.0,9.25,0.0,2.0,0.5,0.25,0.25,0.25,0.25,0.25,0.2,0.08,2.02,843.26,-17.5,56.1
12.68,6.5,1.75,5.5,9.25,5.75,0.75,2.75,1.75,2.5,0.25,1.75,1.0,0.25,-0.3,0.39,3.95,507.28,16.3,41.9,2.25,1.5,9.5,11.0,8.75,0.0,1.0,0.5,0.25,0.75,0.25,0.25,0.0,0.27,-0.05,2.08,743.9,-16.9,54.5
12.7,6.75,1.75,6.25,10.0,5.75,0.75,2.75,1.75,2.0,0.25,1.25,0.75,0.0,-0.42,0.45,4.02,549.22,17.2,47.3,1.25,1.0,8.75,8.75,6.75,1.0,0.5,0.75,0.25,0.75,0.25,0.25,0.0,0.33,-0.3,2.14,611.08,-15.8,51.0
12.72,7.25,1.75,6.25,10.5,6.25,0.75,2.75,1.75,1.25,0.0,0.0,0.5,0.25,-0.73,0.64,4.39,579.43,17.5,54.3,0.75,0.5,7.0,5.25,5.25,0.0,0.25,0.5,0.25,0.75,0.25,0.25,0.0,0.27,-0.61,1.58,452.49,-16.8,48.6
12.74,7.5,1.75,6.5,10.5,6.25,0.25,2.25,1.25,1.25,0.0,0.5,0.5,0.25,-0.61,0.45,7.08,596.67,18.5,54.6,0.0,0.5,5.5,2.75,3.75,0.0,0.25,0.5,0.0,0.5,0.25,0.25,0.0,-0.11,-2.55,-0.48,311.61,-16.7,46.3
12.76,7.75,1.75,6.25,9.25,4.75,0.0,1.5,1.25,1.0,0.0,0.0,0.25,0.25,-0.86,0.83,6.27,576.71,20.0,58.9,0.0,0.5,5.25,2.75,2.25,0.5,0.25,0.5,0.0,1.0,0.25,0.25,0.0,1.27,-1.92,2.14,221.89,-16.3,40.4
12.78,7.25,1.25,6.25,6.75,1.5,0.0,1.0,1.0,1.0,0.0,0.5,0.25,0.0,-1.3,0.83,7.14,505.44,23.9,58.7,0.0,0.5,5.25,2.0,1.25,0.0,0.25,0.25,0.25,0.75,0.25,0.25,0.25,0.52,-2.23,0.58,144.2,-20.4,37.4
12.8,7.25,0.75,5.25,5.5,0.0,0.0,0.75,1.0,1.0,0.0,0.25,0.5,0.0,-1.67,1.2,6.95,410.82,26.0,57.9,0.0,0.5,4.5,2.0,0.25,0.0,0.25,0.75,0.0,1.25,0.25,0.0,0.25,0.14,-0.8,0.08,85.99,-18.6,29.9
12.82,6.75,0.5,3.5,4.5,0.0,0.0,0.5,1.0,1.0,0.0,0.5,0.25,0.25,-1.67,1.77,7.2,326.41,24.6,54.4,0.0,0.5,4.75,1.75,0.25,0.5,0.25,0.25,0.0,0.5,0.25,0.0,0.0,0.58,-0.36,0.64,48.92,-22.8,46.5
12.84,4.75,0.5,2.0,2.75,0.0,0.0,0.5,0.75,1.0,0.0,0.5,0.5,0.25,-3.55,0.52,5.58,251.28,23.1,45.6,0.0,0.5,4.75,1.75,0.25,0.75,0.25,0.25,0.0,0.5,0.25,0.25,0.25,0.7,-0.17,0.7,36.9,-20.4,38.2
12.86,3.0,0.5,1.75,2.5,0.0,0.0,0.5,0.75,1.0,0.0,0.25,0.25,0.0,-3.61,-6.3,0.27,181.25,22.6,47.1,0.0,0.5,4.5,1.75,0.25,0.5,0.25,0.25,0.0,0.25,0.25,0.25,0.0,0.7,0.2,0.89,35.21,-23.0,45.2
12.88,1.5,0.5,1.5,2.5,0.0,0.0,0.5,0.75,1.0,0.0,0.25,0.25,0.0,-6.11,-6.11,0.45,117.48,20.0,38.3,0.0,0.5,4.25,1.25,0.25,2.0,0.25,0.0,0.0,0.25,0.25,0.0,0.25,0.83,0.39,0.83,49.72,-16.3,44.4
12.9,1.25,0.25,1.25,2.5,0.0,0.0,0.5,0.5,1.0,0.0,0.25,0.25,0.0,-3.8,-5.86,-0.42,67.68,20.4,36.2,0.0,0.5,4.5,1.0,0.25,2.0,0.25,0.0,0.0,0.5,0.25,0.0,0.0,0.7,0.64,1.14,71.4,-16.9,45.6
12.92,1.25,0.25,1.75,1.75,0.0,0.0,0.5,0.75,1.0,0.0,0.0,0.25,0.0,-2.05,-2.48,1.45,37.76,21.1,36.7,0.0,0.5,4.25,1.25,0.25,0.75,0.25,0.0,0.0,0.5,0.25,0.0,0.0,0.64,0.83,1.58,86.3,-22.0,47.2
12.94,1.25,0.25,1.25,1.75,0.0,0.0,0.5,0.5,1.0,0.0,0.0,0.25,0.0,-2.42,-2.86,1.83,23.19,21.2,37.7,0.0,0.5,4.0,1.25,0.25,2.0,0.25,0.0,0.0,0.75,0.25,0.25,0.0,0.64,1.27,1.64,106.54,-14.7,37.8
12.96,1.25,0.5,1.75,1.75,0.0,0.0,0.5,0.25,1.0,0.0,0.0,0.0,0.0,-1.55,-1.61,2.39,24.39,24.0,50.0,0.0,0.5,4.25,1.0,0.25,0.5,0.0,0.0,0.0,0.25,0.5,0.25,0.0,0.7,1.83,1.45,115.57,-23.9,42.6
