time,left pressure 0[N/cm²],left pressure 1[N/cm²],left pressure 2[N/cm²],left pressure 3[N/cm²],left pressure 4[N/cm²],left pressure 5[N/cm²],left pressure 6[N/cm²],left pressure 7[N/cm²],left pressure 8[N/cm²],left pressure 9[N/cm²],left pressure 10[N/cm²],left pressure 11[N/cm²],left pressure 12[N/cm²],left acceleration X[g],left acceleration Y[g],left acceleration Z[g],left total force[N],left center of pressure X[mm],left center of pressure Y[mm],right pressure 0[N/cm²],right pressure 1[N/cm²],right pressure 2[N/cm²],right pressure 3[N/cm²],right pressure 4[N/cm²],right pressure 5[N/cm²],right pressure 6[N/cm²],right pressure 7[N/cm²],right pressure 8[N/cm²],right pressure 9[N/cm²],right pressure 10[N/cm²],right pressure 11[N/cm²],right pressure 12[N/cm²],right acceleration X[g],right acceleration Y[g],right acceleration Z[g],right total force[N],right center of pressure X[mm],right center of pressure Y[mm]
0.02,1.25,0.75,1.75,8.5,6.25,3.25,1.5,5.0,2.25,1.75,3.25,1.5,1.25,-0.11,0.08,0.95,531.38,3.8,9.6,0.0,0.25,0.0,1.25,0.25,0.75,0.25,0.75,0.25,2.75,1.5,2.75,3.5,0.45,0.02,1.39,169.42,3.4,-63.8
0.04,1.5,1.0,2.75,9.5,6.5,3.5,1.75,4.5,2.0,1.25,2.75,1.0,1.25,-0.11,0.08,0.95,545.4,5.4,18.4,0.0,0.5,0.75,1.25,1.75,1.0,0.25,0.5,0.25,6.5,2.0,5.5,6.25,-0.55,0.58,2.33,252.52,3.4,-61.8
0.06,2.0,1.5,3.5,9.75,6.75,3.5,1.75,4.25,1.75,1.25,2.5,1.0,1.25,-0.11,0.08,0.95,571.63,6.6,22.9,0.0,0.5,0.5,1.25,0.25,1.25,0.5,3.0,1.0,7.25,6.25,6.0,6.25,-0.05,0.27,1.45,349.97,2.7,-68.1
0.08,2.25,1.5,3.75,11.0,7.75,3.5,1.75,4.0,1.5,1.25,2.25,1.0,1.25,-0.11,0.08,0.95,602.62,7.0,26.6,0.0,0.25,0.0,0.0,3.5,1.5,0.0,3.5,1.0,7.25,6.75,5.25,7.25,0.02,0.14,1.08,469.83,5.1,-63.1
0.1,2.5,1.75,4.25,11.5,8.0,3.75,1.75,4.0,1.5,1.25,2.25,1.0,1.0,-0.11,0.08,0.95,645.61,7.6,29.1,1.0,0.0,0.0,1.25,0.25,1.25,0.5,4.0,1.0,7.75,6.25,6.0,7.0,0.08,0.08,0.95,564.01,3.4,-68.3
0.12,2.75,1.75,5.0,12.0,8.0,4.0,2.0,3.5,0.75,1.25,2.0,1.0,1.0,-0.11,0.08,0.95,683.3,8.4,32.8,0.0,0.25,0.5,1.25,2.75,1.0,0.5,4.75,1.0,8.0,6.75,6.0,7.25,0.14,0.08,0.95,638.24,3.7,-61.1
0.14,2.75,1.75,5.25,12.0,8.5,4.0,2.0,3.0,0.5,1.25,1.75,1.0,0.75,-0.11,0.14,0.95,709.98,8.8,35.8,0.0,0.5,0.75,1.25,1.5,3.25,0.25,5.25,1.25,8.0,7.25,6.0,7.75,0.14,0.08,0.95,694.78,4.4,-59.1
0.16,2.75,1.75,5.5,13.0,8.75,4.0,1.75,2.25,0.25,1.25,1.75,1.0,0.75,-0.17,0.14,0.95,730.12,9.4,38.2,0.0,0.75,0.75,1.25,0.5,3.25,0.5,5.25,1.25,8.25,7.0,6.0,7.5,0.08,0.08,0.95,729.16,4.4,-60.7
0.18,2.75,2.0,5.5,13.0,8.75,4.0,1.75,2.25,0.0,1.25,1.0,1.0,0.75,-0.17,0.14,0.95,737.14,9.4,40.8,0.0,0.75,0.75,1.25,3.75,3.5,0.25,5.5,1.25,8.25,7.25,6.0,7.75,0.08,0.08,0.95,770.79,4.5,-51.5
0.2,3.25,2.5,5.0,13.5,8.75,4.0,1.5,2.25,0.25,1.25,1.75,1.0,0.5,-0.17,0.14,1.02,749.7,9.6,40.6,0.0,0.75,0.75,1.25,4.25,3.5,0.5,5.5,1.5,8.25,7.25,6.0,7.25,0.08,0.08,0.95,792.36,4.2,-49.3
0.22,2.75,3.25,6.25,13.5,9.5,4.0,1.5,2.25,0.0,1.0,1.5,1.0,0.5,-0.17,0.14,1.02,770.97,10.0,43.4,0.0,0.75,0.75,1.25,4.25,3.75,0.75,6.0,1.5,8.25,7.25,6.0,7.5,0.14,0.08,0.95,807.37,4.4,-48.9
0.24,2.75,1.75,6.0,13.0,8.5,3.75,0.75,0.75,0.0,1.25,0.0,0.75,0.0,-0.17,0.14,1.02,735.26,11.2,50.3,0.5,0.75,0.75,1.5,4.25,4.5,0.75,6.25,1.5,8.25,6.75,5.5,7.25,0.14,0.08,0.95,801.14,4.5,-44.4
0.26,3.0,1.75,5.0,14.5,8.25,3.5,1.0,0.75,0.0,1.0,0.5,1.0,0.5,-0.17,0.2,1.02,704.43,11.0,47.0,0.5,0.75,0.75,2.5,4.75,4.5,1.0,6.25,1.5,7.75,6.75,5.25,6.75,0.14,0.08,0.95,784.53,3.7,-39.6
0.28,6.5,3.25,6.0,14.5,9.0,2.75,1.25,1.5,0.25,1.0,1.25,1.0,0.25,-0.17,0.2,1.02,725.66,13.2,49.8,0.75,0.75,1.25,3.0,4.75,5.5,1.0,6.25,1.75,7.75,6.75,5.25,6.25,0.14,0.08,0.95,768.31,3.1,-34.8
0.3,6.5,3.25,6.75,14.5,8.5,2.25,0.75,1.25,0.5,1.0,0.25,1.0,0.25,-0.23,0.27,1.08,750.25,14.3,52.7,1.25,0.75,1.5,4.0,5.0,5.5,1.0,6.25,1.75,7.25,6.5,4.0,6.0,0.08,0.08,0.95,754.04,2.3,-27.9
0.32,7.0,3.25,6.5,13.5,8.5,1.5,0.25,1.5,0.25,1.25,1.25,0.75,0.25,-0.23,0.27,1.14,770.25,14.4,51.0,1.25,0.75,2.5,4.0,6.25,5.5,1.5,6.25,2.25,6.75,5.75,3.5,5.25,0.14,0.08,0.95,754.36,1.2,-20.5
0.34,7.25,3.25,6.5,12.0,7.75,0.0,0.0,0.75,0.0,0.0,1.0,0.25,0.25,-0.3,0.33,1.27,734.23,17.7,60.4,1.25,0.75,3.5,4.5,6.5,6.0,1.5,5.75,2.0,6.0,5.25,2.75,4.5,0.08,0.08,0.95,748.78,0.2,-12.8
0.36,7.25,2.25,5.5,11.0,6.0,0.0,0.0,0.5,0.5,0.5,0.5,0.5,0.25,-0.36,0.33,1.39,660.42,18.1,57.8,1.25,0.75,3.5,6.0,6.75,6.0,1.75,5.5,2.0,5.0,4.25,2.25,3.5,0.14,0.08,0.95,735.49,-0.7,-4.3
0.38,0.0,0.0,2.5,0.0,0.0,0.0,0.0,0.0,0.0,0.0,0.0,0.0,0.0,-0.61,0.52,1.7,380.07,38.2,61.0,1.25,1.0,3.75,7.0,7.75,6.25,2.0,5.5,1.75,4.75,4.0,1.25,3.0,0.14,0.08,0.95,732.02,-1.1,3.5
0.4,5.5,0.5,1.0,5.75,0.0,0.0,0.0,0.0,0.25,0.5,0.75,1.0,0.0,-1.05,0.89,1.77,262.41,22.4,49.7,1.25,1.25,4.0,7.75,8.25,6.5,2.5,5.25,1.5,3.75,3.5,1.25,1.75,0.14,0.08,0.95,730.58,-2.3,12.0
0.42,3.5,0.5,0.0,3.5,0.0,0.0,0.0,0.0,0.25,0.25,0.75,0.5,0.0,-0.36,0.89,2.45,139.11,21.2,48.5,1.25,1.5,5.25,8.75,8.25,6.5,2.5,4.75,1.5,3.25,3.25,1.25,1.75,0.14,0.08,0.95,740.32,-4.0,16.4
0.44,1.0,0.0,0.25,3.25,0.0,0.0,0.0,0.0,0.0,0.0,0.75,0.0,0.0,-0.17,0.39,1.95,59.7,20.4,46.8,1.75,1.5,5.75,9.75,9.0,6.5,2.75,4.25,1.5,2.25,2.75,1.0,1.75,0.08,0.08,0.95,760.08,-5.3,23.0
0.46,0.0,0.0,0.0,1.0,0.0,0.0,0.0,0.25,0.25,0.25,1.0,0.0,0.0,-0.86,-0.05,1.89,0.0,8.4,-18.2,2.25,2.0,6.0,11.0,9.25,6.75,3.0,3.75,1.25,2.25,2.0,1.25,2.25,0.14,0.08,0.95,798.2,-5.9,26.0
0.48,0.0,0.0,0.25,0.25,0.0,0.0,0.0,0.0,0.0,0.25,0.0,0.0,0.0,-1.05,-0.61,1.39,0.0,13.5,15.5,2.5,2.25,6.75,11.5,9.5,7.0,3.0,3.0,1.0,2.25,2.0,0.75,2.0,0.08,0.08,0.95,835.8,-6.8,30.8
0.5,0.25,0.0,0.0,1.25,0.0,0.0,0.0,0.0,0.25,0.25,0.25,0.0,0.0,-0.92,-0.67,1.58,0.0,14.1,22.7,2.75,2.5,7.0,13.0,10.5,7.0,3.25,3.0,1.0,2.25,1.5,0.5,2.0,0.08,0.08,0.95,889.07,-7.2,34.2
0.52,0.25,0.0,0.0,0.5,0.0,0.0,0.0,0.0,0.25,0.25,0.0,0.0,0.25,-0.61,-0.98,0.77,0.0,8.4,-2.3,3.75,2.5,7.25,13.0,11.0,7.0,3.5,2.75,1.0,2.0,1.5,0.5,1.25,0.08,0.14,0.95,935.24,-8.2,38.3
0.54,0.75,0.0,0.5,1.25,0.0,0.0,0.25,0.0,0.25,0.5,0.0,0.0,0.25,-0.48,-0.3,0.89,0.0,17.0,28.3,5.0,2.5,8.0,14.5,11.0,7.25,3.5,1.75,1.0,2.25,1.25,0.5,1.25,0.08,0.14,0.95,995.41,-9.6,41.5
0.56,0.5,0.0,0.25,1.25,0.0,0.0,0.0,0.0,0.25,0.5,0.0,0.0,0.25,-0.42,-0.36,0.45,0.0,13.2,20.2,5.5,2.5,8.25,13.5,12.0,7.25,3.5,1.5,0.25,1.25,1.5,0.25,1.25,0.08,0.14,0.95,1029.6,-10.0,45.5
0.58,0.25,0.0,0.25,1.25,0.0,0.0,0.0,0.0,0.25,0.5,0.75,0.0,0.25,-0.48,-0.23,0.45,0.0,11.3,-4.5,6.0,2.5,8.75,14.0,12.0,6.5,3.0,1.0,0.25,0.5,0.0,0.25,0.5,0.08,0.14,1.02,1035.6,-11.8,54.1
0.6,0.0,0.5,0.75,1.25,0.0,0.0,0.0,0.0,0.25,0.5,0.0,0.0,0.0,-0.61,-0.23,0.64,7.11,16.0,37.8,7.0,3.25,8.75,13.0,12.0,5.5,3.0,1.5,0.25,0.0,0.5,0.5,1.0,0.08,0.14,1.02,1031.05,-12.4,52.7
0.62,0.5,0.5,0.5,1.25,0.0,0.0,0.25,0.0,0.25,0.25,0.0,0.0,0.0,-0.61,-0.23,0.83,42.35,19.8,52.2,7.75,3.75,9.0,16.0,12.0,6.0,2.75,1.25,0.25,0.0,0.0,0.25,0.5,0.08,0.2,1.02,1051.53,-13.1,57.3
0.64,0.0,0.5,0.5,1.25,0.0,0.0,0.25,0.0,0.25,0.25,0.75,0.0,0.0,-0.48,0.02,0.89,40.97,16.1,21.2,8.0,3.5,9.0,15.0,12.0,5.5,2.25,1.0,0.25,1.0,0.75,0.25,0.25,0.08,0.2,1.14,1066.81,-13.0,54.9
0.66,0.5,0.5,0.25,1.25,0.0,0.0,0.25,0.0,0.25,0.25,1.0,0.0,0.0,-0.3,0.14,1.14,56.83,16.6,21.7,8.25,3.5,8.75,15.0,11.0,4.0,2.0,1.0,0.25,0.75,1.5,0.0,0.25,0.08,0.27,1.08,1058.85,-14.3,55.3
0.68,0.25,0.5,0.25,1.25,0.0,0.0,0.25,0.0,0.25,0.25,1.0,0.0,0.0,-0.23,0.14,1.27,65.41,15.5,17.2,8.5,3.25,8.75,13.5,9.5,1.25,1.5,0.75,0.25,0.5,0.75,0.25,0.5,0.14,0.33,1.27,986.74,-16.9,57.8
0.7,0.25,0.5,0.5,1.25,0.0,0.0,0.25,0.0,0.25,0.5,0.0,0.0,0.25,-0.23,0.33,1.39,68.84,14.1,29.4,8.25,2.5,8.0,11.5,8.25,0.75,1.0,0.5,0.25,0.5,0.75,0.0,0.5,0.14,0.33,1.33,864.69,-17.8,58.9
0.72,0.25,0.5,0.5,1.25,0.0,0.0,0.0,0.0,0.25,0.5,1.0,0.0,0.25,-0.23,0.45,1.58,72.13,12.9,7.1,7.75,1.25,6.0,8.0,6.5,0.0,1.0,0.5,0.25,0.5,0.75,0.25,0.25,0.52,0.58,1.77,685.67,-18.8,57.6
0.74,0.25,0.5,0.25,1.25,0.0,0.0,0.25,0.0,0.25,0.5,0.0,0.0,0.0,-0.3,0.45,1.7,66.59,14.4,38.1,6.25,0.5,2.0,5.0,4.25,0.0,1.0,0.5,0.25,0.75,1.0,0.0,0.0,0.77,1.02,1.77,474.48,-17.3,54.3
0.76,0.25,0.5,1.25,1.25,0.0,0.0,0.25,0.0,0.25,0.5,0.0,0.0,0.0,-0.42,0.52,1.95,68.53,20.2,43.7,4.25,0.75,0.75,4.0,1.75,0.75,1.0,0.25,0.25,0.5,1.0,0.0,0.5,0.27,0.83,2.58,305.38,-15.4,46.3
0.78,0.25,0.5,0.5,1.25,0.0,0.0,0.25,0.0,0.25,0.5,0.0,0.0,0.0,-0.42,0.83,2.52,63.69,16.2,39.8,1.25,0.0,0.75,2.75,2.25,0.5,0.75,0.0,0.25,0.5,1.0,0.0,0.0,0.02,0.39,1.77,183.8,-11.8,37.4
0.8,0.25,0.5,0.5,1.25,0.0,0.0,0.25,0.0,0.25,0.5,0.0,0.25,0.0,-0.23,1.14,2.27,64.0,15.7,29.7,0.75,0.5,0.75,1.5,1.75,0.75,0.5,0.5,0.25,0.5,0.25,0.0,0.0,0.77,0.02,2.02,79.53,-7.7,38.8
0.82,0.25,0.5,0.5,1.25,0.0,0.0,0.0,0.0,0.25,0.5,0.5,0.0,0.0,0.14,1.95,2.45,62.17,15.0,25.5,0.5,0.0,1.0,1.0,2.75,0.0,0.5,0.5,0.25,0.0,0.75,0.0,0.0,0.89,-0.48,1.64,6.07,-9.8,35.2
0.84,0.75,0.25,0.5,1.25,0.0,0.0,0.0,0.0,0.25,0.5,0.0,0.25,0.25,1.08,2.77,1.39,63.8,15.8,24.3,0.25,0.0,0.5,1.25,0.25,1.0,0.0,0.0,0.25,0.75,0.25,0.0,0.0,0.83,-0.92,0.89,0.0,-4.7,20.5
0.86,0.75,0.5,0.5,1.25,0.0,0.0,0.0,0.0,0.0,0.5,0.25,0.5,0.25,1.83,3.83,0.58,67.1,15.1,19.3,0.0,0.5,1.0,1.25,2.5,0.75,0.25,0.25,0.25,0.5,1.0,0.0,0.0,0.7,-0.92,1.14,0.0,-5.6,28.3
0.88,1.0,0.0,0.5,1.25,0.0,0.0,0.0,0.0,0.25,0.5,0.75,0.75,0.25,2.02,4.95,0.2,73.32,15.4,-2.6,0.0,0.25,1.0,1.25,1.75,0.75,0.25,0.0,0.25,0.5,1.25,0.0,0.0,0.33,-0.3,0.77,0.0,-7.3,21.7
0.9,1.0,0.25,0.5,1.25,0.0,0.0,0.0,0.0,0.25,0.75,1.0,1.0,0.0,0.2,0.45,0.45,82.37,14.8,-4.0,0.0,0.5,1.0,1.25,2.25,1.25,0.75,0.75,0.25,0.5,0.75,0.0,0.5,0.2,-0.42,0.39,0.0,-2.8,19.6
0.92,1.0,0.5,0.5,1.25,0.0,0.0,0.0,0.0,0.25,1.25,0.0,1.0,1.0,-1.11,-0.92,2.2,93.4,8.7,-11.2,0.0,0.75,1.0,1.25,1.75,0.75,0.5,0.0,0.25,0.5,0.75,0.0,0.25,0.33,-0.3,0.64,30.7,-7.1,28.6
0.94,0.0,0.5,0.25,0.0,0.0,0.0,0.0,0.0,0.25,2.0,0.0,3.0,2.75,-0.05,-0.23,1.02,117.39,-2.7,-82.9,0.0,0.75,1.0,1.25,2.25,0.75,0.25,0.25,0.25,0.5,0.5,0.0,0.25,0.33,-0.36,0.89,65.8,-5.2,31.4
0.96,0.0,0.0,0.25,0.0,0.0,0.0,0.0,0.0,0.0,0.0,0.0,0.0,5.25,0.52,0.58,1.02,120.93,-11.3,-102.1,0.0,0.75,1.0,1.25,2.5,1.0,0.25,0.0,0.25,0.5,1.25,0.0,0.25,0.27,-0.17,0.89,96.26,-5.2,25.6
0.98,0.0,0.25,0.0,0.0,0.0,0.0,0.25,4.25,0.5,5.75,0.0,5.0,5.25,-0.23,0.14,1.14,200.35,-8.3,-81.4,0.5,0.75,1.0,1.25,2.25,0.75,0.25,0.0,0.25,0.5,1.5,0.0,0.75,0.27,0.02,0.89,125.41,-6.7,18.6
1.0,0.0,0.5,0.0,1.25,0.0,0.0,0.25,3.75,0.5,5.75,5.5,5.0,6.0,-0.11,0.14,1.08,285.73,-3.4,-73.7,0.0,0.5,1.0,1.25,2.5,0.75,0.5,0.0,0.25,0.5,0.75,0.0,0.5,0.27,0.2,1.14,137.43,-5.3,24.9
1.02,0.25,0.5,0.0,1.25,0.0,0.75,0.25,4.0,1.25,5.75,4.75,5.0,6.0,-0.11,0.08,0.95,379.72,-3.6,-68.6,0.0,0.75,1.0,1.25,2.25,0.75,0.25,0.0,0.25,0.5,1.0,0.0,0.0,0.14,0.2,1.27,142.07,-6.8,31.6
1.04,0.0,0.5,0.0,1.25,0.0,0.75,0.25,4.75,1.25,5.75,5.0,5.0,6.0,-0.17,0.08,0.95,455.5,-4.1,-69.2,0.0,0.5,0.75,1.25,2.5,0.75,0.25,0.5,0.25,0.75,0.75,0.0,0.0,0.14,0.33,1.45,141.11,-3.2,25.2
1.06,0.5,0.5,0.0,1.25,0.0,0.75,0.5,4.5,1.5,5.75,5.75,5.0,5.75,-0.17,0.08,0.95,507.5,-2.7,-66.1,0.0,0.5,0.75,1.25,1.75,1.0,0.25,0.0,0.25,0.5,0.75,0.0,0.0,0.14,0.45,1.64,132.26,-5.1,30.1
1.08,0.0,0.5,0.0,1.25,0.0,0.75,0.5,5.0,1.5,6.0,5.5,5.0,5.75,-0.17,0.08,0.95,527.78,-3.7,-68.1,0.0,0.75,0.75,1.25,1.5,1.0,0.25,0.0,0.25,0.5,1.5,0.0,0.5,0.27,0.52,1.7,129.85,-5.0,13.6
1.1,0.0,0.5,0.5,2.0,0.0,0.75,0.5,5.0,2.0,5.75,6.0,5.0,5.75,-0.11,0.08,0.95,543.88,-2.1,-62.8,0.0,0.5,0.75,1.25,2.5,0.75,0.5,0.0,0.25,0.5,0.75,0.0,0.25,0.45,0.58,1.83,125.43,-4.9,28.0
1.12,0.0,0.5,0.0,2.0,1.25,0.75,0.25,5.25,2.25,5.75,6.5,5.0,5.75,-0.11,0.08,0.95,565.36,-2.6,-60.0,0.0,0.75,0.75,1.25,2.25,0.75,0.25,0.0,0.25,0.5,0.75,0.0,0.0,0.52,0.77,2.2,125.31,-5.6,34.0
1.14,0.0,0.5,0.0,3.25,2.5,1.5,0.75,5.25,2.5,5.75,6.5,4.75,5.25,-0.11,0.08,0.95,590.09,-2.0,-48.3,0.0,0.5,0.75,1.25,1.5,0.75,0.5,0.0,0.25,0.5,1.5,0.0,0.0,0.2,1.27,2.33,120.46,-7.3,18.8
1.16,0.0,0.5,0.0,3.25,2.75,2.0,0.5,5.5,2.5,5.75,6.0,4.25,5.0,-0.11,0.08,0.95,598.37,-2.7,-45.1,0.0,0.75,0.75,1.25,1.5,0.75,0.25,0.25,0.25,0.5,0.75,0.25,0.0,-0.3,2.02,1.7,118.48,-6.0,24.4
1.18,0.0,0.5,0.0,3.5,2.75,2.25,0.25,5.25,2.75,4.75,5.75,4.0,4.25,-0.11,0.08,0.95,581.34,-2.2,-41.2,0.0,0.75,0.75,1.25,2.25,0.75,0.25,0.0,0.25,0.5,1.5,0.0,0.0,-0.3,2.33,1.08,120.37,-6.0,24.6
1.2,0.0,0.5,1.5,5.0,3.5,2.5,0.75,5.25,2.75,4.5,5.5,3.25,3.75,-0.11,0.08,0.95,562.59,0.1,-27.5,0.25,0.5,0.75,1.25,2.25,0.75,0.75,0.0,0.25,0.5,0.75,0.0,0.25,-0.67,2.95,0.83,122.65,-6.4,29.1
1.22,0.25,0.5,1.5,5.5,4.5,2.75,1.0,5.25,3.0,3.5,5.5,3.0,2.5,-0.11,0.08,0.95,536.62,1.3,-18.2,0.0,0.75,0.75,1.25,2.25,0.75,0.25,0.0,0.25,0.5,1.25,0.0,0.25,-1.98,4.14,0.77,127.81,-5.3,23.4
1.24,1.0,0.5,2.0,7.0,5.5,2.75,1.5,4.75,3.0,3.0,4.5,2.0,2.25,-0.11,0.08,0.95,540.69,3.2,-4.6,0.0,0.5,0.5,1.25,2.25,0.75,0.25,0.0,0.25,0.5,0.75,0.25,0.75,-2.36,3.64,0.52,129.83,-2.7,13.4
1.26,1.25,0.75,2.0,7.75,5.5,3.0,1.5,5.0,2.75,2.25,4.0,2.0,1.5,-0.11,0.08,0.95,550.75,4.0,2.4,0.0,0.5,0.75,1.25,1.75,0.5,0.25,0.25,0.25,2.25,1.5,1.75,2.5,0.83,-0.8,0.08,153.74,-0.3,-34.3
1.28,1.5,1.0,2.25,8.5,5.75,3.25,1.75,4.5,2.5,1.25,3.0,1.25,1.25,-0.11,0.08,0.95,554.72,5.2,13.6,0.0,0.5,0.5,0.5,1.5,0.75,0.5,1.0,0.0,5.25,1.75,4.75,6.25,0.64,-0.86,1.89,223.44,4.5,-66.5
1.3,1.75,1.25,3.0,9.5,6.75,3.5,1.75,4.0,2.0,1.25,2.75,1.0,1.25,-0.11,0.08,0.95,568.06,6.1,20.6,0.0,0.0,0.5,0.0,0.5,0.75,0.25,1.25,0.25,6.5,4.0,5.25,7.75,-1.11,1.27,2.02,298.75,5.0,-81.5
1.32,2.0,1.75,3.25,9.75,7.0,3.25,1.75,3.75,1.75,1.25,2.25,1.0,1.25,-0.11,0.08,0.95,581.63,6.8,24.6,0.0,0.0,0.75,1.25,1.5,2.75,0.25,3.25,1.0,8.25,6.25,6.0,7.75,0.39,0.08,1.39,430.36,4.4,-63.2
1.34,2.75,1.75,4.25,11.0,8.0,3.5,2.0,3.5,1.5,1.25,2.25,1.0,1.0,-0.11,0.08,0.95,620.92,8.1,29.9,0.0,0.75,0.75,1.25,2.25,1.25,0.25,5.25,1.0,8.5,7.25,6.0,8.0,0.02,0.27,1.14,573.28,3.8,-60.6
1.36,2.75,1.75,5.0,11.0,8.0,3.5,2.25,3.25,1.0,1.25,1.75,1.0,0.25,-0.11,0.08,0.95,648.77,9.2,35.3,0.0,0.75,0.75,1.25,3.5,3.25,0.25,5.5,1.0,8.5,7.25,6.0,8.0,0.08,0.14,0.95,702.87,4.6,-53.1
1.38,3.5,1.75,5.5,12.0,8.0,3.5,2.25,2.5,0.75,1.25,1.75,1.0,0.75,-0.11,0.08,0.95,685.65,10.3,37.1,0.5,0.75,0.75,1.25,4.25,3.75,0.5,5.75,1.0,8.5,7.0,5.5,8.0,0.14,0.08,0.95,785.23,4.6,-47.8
1.4,4.0,1.75,5.5,12.0,8.5,3.5,2.25,2.25,0.5,1.25,1.25,1.0,0.75,-0.11,0.14,0.95,709.41,10.5,40.0,0.25,0.75,0.75,1.25,4.25,4.0,0.5,5.75,1.25,8.5,7.0,5.25,7.75,0.14,0.08,0.95,830.89,4.8,-47.4
1.42,3.25,1.75,5.75,13.0,8.5,3.5,2.5,2.25,0.25,1.25,1.25,1.0,0.5,-0.11,0.14,0.95,728.52,10.6,40.9,1.0,0.75,0.75,1.25,4.25,4.5,0.5,6.25,1.5,8.25,6.75,5.25,7.5,0.14,0.08,0.95,849.06,4.4,-43.8
1.44,4.5,2.25,6.25,13.0,8.75,3.5,3.0,2.5,0.25,1.25,0.0,1.0,0.0,-0.11,0.14,1.02,745.97,11.7,47.5,1.0,0.75,0.75,1.25,4.25,5.0,0.75,6.25,1.5,8.0,6.75,4.5,7.25,0.14,0.08,0.95,844.14,4.6,-41.3
1.46,5.0,1.75,2.75,13.5,3.25,2.25,1.5,0.5,0.0,0.0,0.25,0.0,0.0,-0.17,0.14,1.02,653.94,16.0,61.1,1.25,0.75,1.25,2.25,4.75,5.5,1.0,6.25,1.5,7.75,5.75,4.0,6.5,0.14,0.08,0.95,824.9,3.8,-32.7
1.48,5.0,2.5,7.0,13.0,8.75,2.25,2.0,1.5,1.0,1.25,1.0,0.0,0.0,-0.17,0.2,1.08,667.87,13.7,50.3,1.25,0.75,1.75,2.75,4.75,6.0,1.0,6.25,1.5,7.25,5.25,2.75,6.25,0.14,0.08,0.95,784.51,3.6,-26.7
1.5,0.0,0.0,0.0,7.5,8.75,2.25,1.5,0.25,0.0,1.0,0.0,1.0,0.0,-0.17,0.2,1.02,519.6,2.8,38.7,1.25,0.75,1.75,3.75,6.0,6.0,1.0,6.25,1.5,6.75,4.25,2.75,5.25,0.14,0.08,0.95,744.15,3.1,-19.1
1.52,7.75,3.0,7.5,13.0,8.25,1.5,1.25,1.75,0.0,1.0,1.25,1.0,0.0,-0.17,0.27,1.08,584.66,15.6,51.9,1.25,0.75,2.5,4.0,6.75,6.5,1.0,6.25,1.5,6.5,3.75,2.25,4.75,0.14,0.08,0.95,713.23,2.6,-12.8
1.54,7.5,3.25,7.75,13.0,8.0,0.75,0.75,1.25,0.0,1.0,0.75,0.75,0.25,-0.23,0.27,1.14,612.6,16.5,54.7,1.25,0.75,2.75,4.0,6.75,6.75,1.5,6.0,1.5,6.0,3.5,1.5,3.75,0.14,0.08,0.95,686.97,2.1,-7.0
1.56,7.75,3.25,7.25,12.0,6.75,0.0,0.0,0.75,0.0,1.0,1.0,0.25,0.0,-0.23,0.33,1.33,668.41,18.2,58.8,1.25,0.75,3.0,5.25,7.5,7.0,1.75,5.75,1.5,5.25,3.0,1.25,3.75,0.14,0.08,0.95,674.79,1.2,-0.9
1.58,6.75,2.5,7.0,4.5,0.0,1.25,0.5,4.25,0.75,0.0,0.25,0.0,0.0,-0.36,0.39,1.33,566.2,19.3,51.7,2.25,1.0,3.5,6.0,8.0,7.25,1.5,5.5,1.5,5.0,3.5,1.25,3.0,0.14,0.08,0.95,690.76,-0.4,5.2
1.6,7.25,1.75,2.75,8.25,0.0,0.0,0.0,1.25,0.5,0.75,3.0,1.0,0.0,-0.55,0.52,1.52,473.76,20.0,40.1,2.5,1.5,3.5,7.0,8.25,7.25,1.75,5.5,1.5,3.75,2.25,1.0,2.5,0.14,0.08,0.95,708.31,-1.4,14.0
1.62,6.5,0.5,2.25,5.25,0.0,0.0,0.0,0.0,0.25,0.5,1.0,0.0,0.25,-0.92,1.14,2.27,334.88,24.6,58.4,2.5,1.75,3.5,7.75,8.75,7.5,1.75,5.25,1.25,3.25,2.25,0.75,2.5,0.14,0.08,0.95,730.71,-1.7,17.8
1.64,4.25,0.5,0.75,3.5,0.0,0.0,0.0,0.0,0.5,0.25,0.75,0.0,0.25,-0.42,0.89,2.45,235.77,22.9,54.2,3.0,1.75,4.0,8.25,9.25,7.75,2.0,4.5,1.0,2.25,1.75,0.75,1.75,0.14,0.08,0.95,745.38,-3.2,26.1
1.66,2.5,0.25,0.75,2.0,0.0,0.0,0.0,0.0,0.25,0.5,1.25,0.0,0.25,-0.48,0.39,2.58,145.28,20.2,33.2,3.75,2.0,4.0,9.5,9.25,7.75,2.0,4.25,1.0,2.25,1.5,0.75,1.5,0.14,0.08,0.95,766.98,-4.2,29.8
1.68,0.0,0.0,0.5,1.75,0.0,0.0,0.0,0.0,0.0,0.0,0.0,0.0,0.0,-0.92,0.2,2.33,53.06,21.8,58.5,3.75,2.5,4.75,10.5,10.5,7.75,2.0,4.0,1.0,2.25,2.0,0.5,1.75,0.14,0.14,0.95,812.31,-4.9,31.5
1.7,0.25,0.0,0.0,1.0,0.0,0.0,0.0,0.0,0.25,0.25,0.0,0.0,0.0,-1.3,-0.92,0.83,0.0,14.2,30.9,3.75,2.5,5.0,11.5,11.0,7.75,2.0,3.25,1.0,2.25,1.75,0.5,1.5,0.14,0.14,0.95,861.1,-5.5,34.4
1.72,0.0,0.25,0.75,1.75,0.0,0.0,0.75,0.0,0.5,0.25,0.25,0.0,0.0,-1.23,-0.86,1.77,0.0,19.1,31.4,4.25,2.5,5.75,11.5,11.0,7.75,2.0,3.0,0.5,2.0,1.0,0.25,1.5,0.14,0.14,0.95,897.57,-6.3,39.1
1.74,0.0,0.0,0.25,1.5,0.0,0.0,0.5,0.0,0.5,0.75,0.0,0.5,0.25,-0.73,-0.92,-0.11,0.0,9.7,-11.1,4.5,2.5,5.75,13.0,11.5,7.75,2.0,2.75,0.5,2.0,1.75,0.25,1.25,0.14,0.14,0.95,934.83,-6.9,39.5
1.76,0.0,0.5,0.75,1.5,0.0,0.0,0.75,0.0,0.5,0.5,0.5,0.0,0.25,-0.61,-0.23,0.77,0.0,15.0,15.6,5.0,2.5,5.75,13.0,12.0,8.0,2.0,1.5,0.25,1.75,1.25,0.25,1.0,0.08,0.14,0.95,952.58,-7.6,44.5
1.78,0.0,0.5,0.75,1.25,0.0,0.0,0.75,0.0,0.5,0.5,0.0,0.25,0.25,-0.42,-0.42,0.33,0.0,15.0,16.0,5.0,2.75,5.75,13.5,12.0,8.0,1.75,1.25,0.25,0.5,0.75,0.25,1.0,0.08,0.14,0.95,955.33,-8.3,49.2
1.8,1.0,0.0,0.75,1.25,0.0,0.0,0.75,0.0,0.5,0.5,0.0,0.0,0.25,-0.48,-0.23,0.52,0.0,19.6,30.0,5.5,1.5,6.0,14.5,13.5,8.0,1.0,1.5,0.25,0.75,0.0,0.25,0.75,0.08,0.14,0.95,958.02,-8.0,50.3
1.82,1.25,0.5,0.5,1.25,0.0,0.0,0.75,0.0,0.5,0.5,0.0,0.25,0.0,-0.55,-0.3,0.7,24.01,19.8,38.8,5.75,1.75,6.0,15.0,13.5,8.0,0.75,1.5,0.25,0.5,0.0,0.0,0.5,0.08,0.14,1.02,962.43,-8.4,52.9
1.84,1.0,0.5,1.0,1.25,0.0,0.0,0.5,0.0,0.5,0.5,0.0,0.25,0.25,-0.55,-0.11,0.83,47.41,19.1,31.7,5.75,3.5,6.25,15.0,13.5,8.0,1.25,1.0,0.25,0.75,1.5,0.0,0.0,0.08,0.2,0.95,991.01,-9.1,52.7
1.86,1.0,0.25,0.75,1.25,0.0,0.0,0.75,0.0,0.5,0.25,0.0,0.25,0.25,-0.55,0.14,0.83,67.56,20.5,31.9,6.25,3.75,6.75,15.0,13.5,7.75,1.0,1.25,0.25,0.75,0.0,0.0,0.75,0.08,0.2,0.95,1018.2,-9.2,54.1
1.88,1.0,0.5,0.75,1.25,0.0,0.0,0.75,0.0,0.25,0.5,0.0,0.25,0.0,-0.48,0.27,1.02,79.22,20.5,41.0,7.0,4.0,6.75,16.0,14.0,7.75,0.75,0.75,0.25,0.75,1.75,0.0,0.75,0.08,0.2,1.02,1069.99,-9.8,52.2
1.9,1.0,0.5,0.75,1.25,0.0,0.0,0.25,0.0,0.25,0.5,0.0,0.0,0.0,-0.36,0.39,1.27,82.35,20.5,50.3,7.0,4.0,6.0,15.5,13.5,7.25,0.75,0.75,0.25,0.75,1.0,0.0,0.5,0.14,0.27,1.02,1077.18,-9.8,54.4
1.92,1.0,0.5,0.75,1.25,0.0,0.0,0.25,0.0,0.25,0.5,0.0,0.0,0.0,-0.36,0.52,1.27,83.22,20.5,50.3,7.25,3.5,5.75,15.0,13.5,6.25,0.75,0.5,0.25,0.75,0.75,0.25,0.25,0.14,0.33,1.08,1057.18,-10.4,55.4
1.94,0.75,0.5,0.75,1.25,0.0,0.0,0.25,0.0,0.25,0.5,1.0,0.5,0.25,-0.36,0.64,1.45,85.46,15.8,7.2,7.0,2.75,5.0,15.0,12.0,5.5,0.5,0.5,0.0,0.75,1.25,0.0,0.0,0.14,0.33,1.14,990.35,-10.9,55.8
1.96,1.0,0.25,0.5,1.25,0.0,0.0,0.25,0.0,0.25,0.5,0.0,0.25,0.0,-0.36,0.7,1.58,79.66,19.2,36.9,5.75,2.5,2.75,11.5,11.0,3.5,0.25,0.5,0.25,0.75,0.75,0.0,0.75,0.27,0.45,1.27,853.62,-9.5,52.9
1.98,0.5,0.5,0.5,1.25,0.0,0.0,0.25,0.0,0.0,0.25,0.0,0.5,0.0,-0.55,0.7,1.77,73.89,18.9,36.4,4.5,0.75,0.5,6.75,8.75,0.75,0.25,0.5,0.0,0.0,0.75,0.0,0.75,0.64,0.77,2.14,622.06,-9.4,52.4
2.0,0.75,0.5,0.75,1.25,0.0,0.0,0.25,0.0,0.25,0.5,0.0,0.5,0.0,-0.55,0.83,2.02,71.23,18.5,30.8,2.75,0.0,0.0,3.0,4.75,0.0,0.5,0.25,0.0,0.0,0.75,0.0,0.75,0.58,1.02,1.89,377.7,-9.5,44.3
2.02,0.75,0.0,0.75,1.25,0.0,0.0,0.25,0.0,0.25,0.5,0.0,0.25,0.25,-0.48,1.33,2.33,68.54,17.8,22.1,0.0,0.0,0.0,1.25,0.5,0.0,0.0,0.0,0.0,0.0,0.0,0.0,0.0,0.08,0.83,1.95,184.26,-10.9,56.5
2.04,1.0,0.25,0.5,1.25,0.0,0.0,0.25,0.0,0.25,0.25,0.0,0.5,0.0,-0.11,1.2,1.39,66.97,20.7,34.9,0.0,0.0,0.0,1.25,0.5,0.0,0.0,0.0,0.0,0.0,0.0,0.0,0.0,0.52,0.52,1.95,13.15,-10.9,56.5
2.06,1.0,0.5,0.5,1.25,0.0,0.0,0.25,0.0,0.25,0.5,0.0,0.25,0.0,0.45,1.77,1.77,67.68,18.8,40.6,0.25,0.0,0.5,1.75,4.25,0.75,0.25,0.25,0.25,0.0,1.0,0.0,0.0,0.89,0.33,2.33,0.0,-4.0,36.6
2.08,1.25,0.5,0.5,1.25,0.0,0.0,0.25,0.0,0.0,0.5,0.0,0.0,0.0,1.2,2.08,1.14,68.76,20.7,57.6,0.0,0.0,0.0,1.5,0.25,0.75,0.0,0.0,0.25,0.0,0.0,0.0,0.0,0.52,-1.8,0.33,0.0,-4.5,43.0
2.1,0.25,0.0,0.5,1.0,0.0,0.0,0.25,0.0,0.25,0.5,0.0,0.25,0.0,1.95,3.45,0.89,61.17,16.1,14.9,0.0,0.5,0.0,1.5,0.25,0.75,0.0,0.0,0.25,0.5,0.75,0.0,0.0,0.2,-1.42,0.64,0.0,-4.2,17.4
2.12,0.5,0.5,0.5,1.25,0.0,0.0,0.0,0.0,0.0,0.5,0.0,0.75,0.0,2.83,4.52,1.52,60.26,15.7,20.7,0.0,0.75,0.75,1.25,3.5,1.0,0.25,0.0,0.25,0.5,0.5,0.0,0.25,0.2,-0.3,0.83,0.0,-2.9,35.9
2.14,1.25,0.0,0.5,1.25,0.0,0.0,0.25,0.0,0.25,0.75,0.75,0.25,0.0,-0.11,-0.42,0.52,65.17,17.3,15.0,0.0,0.75,0.75,1.25,3.5,1.0,0.0,0.0,0.25,0.5,0.75,0.0,0.0,0.08,-0.36,0.14,0.0,-3.2,37.1
2.16,0.5,0.5,0.5,1.25,0.0,0.0,0.25,0.0,0.25,1.25,0.75,0.25,0.0,-0.61,0.2,1.83,73.12,11.5,3.9,0.0,0.75,0.75,1.25,3.25,1.0,0.25,0.25,0.25,0.75,0.25,0.0,0.25,0.2,-0.42,0.2,18.48,-1.8,33.2
2.18,0.25,0.5,0.5,0.0,0.0,0.0,0.0,0.0,0.25,3.0,0.0,3.0,2.75,0.08,-0.11,1.14,109.37,-2.1,-74.5,0.0,0.75,0.75,1.25,3.0,1.0,0.25,0.25,0.25,0.5,1.0,0.0,0.0,0.33,-0.48,0.58,66.61,-3.6,31.0
2.2,0.0,0.25,0.0,2.0,0.0,0.0,0.0,0.0,0.25,5.75,0.0,4.0,0.0,-0.05,0.7,3.89,149.19,-1.0,-59.5,0.0,0.0,0.0,1.5,0.0,0.0,0.0,0.0,0.25,0.0,0.0,0.0,0.0,0.33,-0.36,0.7,67.71,-16.5,44.8
2.22,0.25,0.0,0.0,1.25,0.0,0.75,0.25,5.0,1.5,6.5,5.5,5.25,6.0,-0.05,0.39,1.14,269.2,-4.0,-70.7,0.0,0.75,0.75,1.25,2.5,1.0,0.75,0.5,0.25,0.5,0.5,0.0,0.25,0.45,-0.05,0.64,98.93,-3.4,29.2
2.24,0.0,0.25,0.0,1.25,0.0,1.5,0.25,5.0,1.5,6.5,5.5,5.0,6.0,0.02,0.08,1.14,371.24,-4.7,-68.0,0.0,0.75,0.75,1.25,2.75,0.75,0.25,0.0,0.25,0.5,0.5,0.0,0.0,0.64,0.14,0.77,114.48,-4.8,38.7
2.26,0.0,0.5,0.0,1.25,0.0,0.75,0.5,5.0,1.25,6.5,6.5,5.0,5.75,-0.11,0.02,0.95,483.55,-3.6,-68.7,0.0,0.75,0.75,1.25,3.0,1.0,0.25,0.0,0.25,0.5,0.5,0.25,0.0,0.45,0.33,0.89,137.34,-3.9,34.9
2.28,0.0,0.0,0.0,1.25,0.0,1.5,0.5,5.25,0.5,6.5,6.5,5.0,6.0,-0.17,0.08,0.95,543.39,-4.8,-69.9,0.0,0.75,0.75,0.75,2.75,0.5,0.25,0.0,0.25,0.5,0.75,0.0,0.0,0.27,0.58,1.02,134.14,-5.0,33.8
2.3,0.0,0.5,0.0,1.25,0.0,1.5,0.5,5.25,1.5,6.5,6.5,5.0,6.0,-0.11,0.08,0.95,581.37,-4.1,-66.4,0.0,0.75,0.75,1.25,3.0,0.75,0.25,0.0,0.25,0.5,0.75,0.0,0.25,0.33,0.58,1.58,138.73,-4.2,31.7
2.32,0.0,0.5,0.0,0.5,0.75,0.75,0.75,5.25,1.5,6.5,6.5,5.0,6.0,-0.17,0.08,0.95,587.61,-4.0,-68.0,0.0,0.75,0.75,1.25,2.75,0.75,0.25,0.0,0.25,0.5,0.75,0.0,0.5,0.52,0.77,1.52,141.29,-3.9,26.9
2.34,0.0,0.5,0.0,1.25,1.25,0.75,0.75,5.5,1.5,6.5,6.75,5.0,6.0,-0.11,0.08,0.95,599.6,-3.5,-63.1,0.0,0.75,0.75,0.75,2.75,0.75,0.25,0.0,0.25,0.75,0.5,0.0,0.0,0.58,1.14,1.2,134.62,-3.3,33.7
2.36,0.0,0.5,0.0,1.75,1.5,0.75,0.0,5.5,1.5,6.5,6.5,5.0,6.0,-0.11,0.02,0.95,603.91,-3.7,-61.2,0.0,0.75,0.5,0.25,2.75,0.0,0.25,0.0,0.25,0.5,0.5,0.0,0.25,0.52,1.33,1.08,121.06,-3.8,29.1
2.38,0.0,0.5,0.0,2.25,1.5,1.5,0.25,5.5,1.5,6.5,6.5,5.0,6.0,-0.11,0.02,0.95,605.26,-3.6,-57.4,0.0,0.75,0.75,1.25,2.5,0.5,0.25,0.0,0.25,1.0,0.75,0.25,0.0,0.39,2.33,3.45,123.18,-4.9,24.1
2.4,0.0,0.5,0.75,1.75,1.25,1.75,0.0,5.5,1.5,6.0,6.5,4.75,5.75,-0.11,0.08,0.95,589.96,-3.1,-56.1,1.25,0.75,0.75,2.75,1.75,0.75,0.25,0.0,0.25,1.0,0.0,0.5,0.0,-0.48,-0.55,2.27,135.49,-10.0,39.3
2.42,0.0,0.5,0.75,2.5,1.25,2.0,0.0,5.5,2.5,5.75,6.5,4.25,5.25,-0.11,0.08,0.95,569.86,-2.3,-51.0,1.0,0.75,0.75,1.5,0.5,0.75,0.25,0.0,0.25,0.75,0.75,0.25,0.5,-0.36,1.7,1.14,137.94,-9.9,20.0
2.44,0.25,0.5,0.75,3.25,2.25,2.0,0.75,5.5,2.5,5.75,6.0,4.0,5.5,-0.11,0.08,0.95,555.6,-1.7,-43.8,0.25,0.75,0.75,1.25,0.5,0.75,0.25,0.0,0.25,0.5,0.75,0.0,0.75,0.77,-0.23,0.7,132.68,-7.1,13.9
2.46,0.25,0.5,1.25,3.25,2.5,2.0,0.75,5.5,2.75,5.75,5.75,4.0,5.0,-0.11,0.08,0.95,539.4,-1.1,-40.6,0.0,0.75,0.75,1.5,2.25,1.0,0.25,0.0,0.25,0.75,0.75,0.0,0.5,-0.05,-2.05,1.08,128.29,-3.5,23.4
2.48,0.0,0.5,1.25,3.25,2.75,2.0,0.75,5.5,3.0,5.5,6.0,4.0,4.0,-0.11,0.08,0.95,538.72,-0.7,-38.9,0.0,0.0,0.5,2.25,2.25,1.75,0.75,0.0,1.0,1.25,1.25,0.0,0.5,1.52,-1.23,0.77,141.69,-2.0,8.1
2.5,0.25,0.5,1.5,3.5,2.75,2.25,1.0,5.25,3.0,4.75,5.75,4.0,4.25,-0.11,0.08,0.95,534.32,0.0,-35.6,1.0,0.75,2.0,3.25,5.25,2.0,1.0,1.5,1.0,1.25,2.0,0.0,1.5,0.27,0.2,1.08,209.04,-4.3,16.9
2.52,0.25,0.5,1.75,4.5,2.75,2.25,1.0,5.25,3.0,4.5,5.5,3.25,3.75,-0.11,0.08,0.95,521.82,0.8,-29.4,0.5,0.0,1.75,4.0,1.75,2.5,0.75,0.0,1.0,1.25,1.5,0.5,0.0,-0.05,-0.05,0.95,235.41,-7.8,19.5
2.54,0.75,0.25,1.75,5.25,3.5,2.75,0.75,5.25,3.25,4.5,5.5,3.0,3.75,-0.11,0.08,0.95,522.23,1.0,-24.3,1.25,0.75,5.0,5.75,5.0,3.0,1.75,0.0,1.0,0.75,1.0,0.25,1.0,0.02,0.14,0.95,298.29,-11.0,36.7
2.56,0.75,0.25,2.0,5.25,4.25,2.75,1.0,5.25,3.25,4.5,5.5,3.0,3.25,-0.11,0.08,0.95,530.9,1.4,-20.9,1.25,1.0,6.0,6.0,5.25,2.5,1.75,0.5,0.75,0.75,0.0,0.0,0.75,0.08,0.08,1.02,348.12,-12.3,44.8
2.58,0.75,0.75,2.0,5.25,4.25,2.75,1.5,5.0,3.25,4.5,5.5,3.0,2.5,-0.11,0.08,0.95,541.76,2.1,-17.3,1.25,0.75,5.75,6.0,5.25,1.0,1.0,0.0,0.5,1.0,0.0,0.0,0.0,0.08,0.14,0.95,379.46,-15.1,51.4
2.6,1.5,0.75,2.0,6.0,5.0,2.75,1.5,5.0,3.25,3.5,5.25,3.0,2.5,-0.11,0.08,0.95,558.95,3.2,-10.8,2.25,0.75,7.75,6.75,4.75,0.75,2.0,0.0,0.25,0.0,0.0,0.0,0.0,0.08,0.14,1.02,395.59,-20.1,59.7
2.62,1.25,0.5,2.25,7.0,5.25,2.75,1.5,5.0,3.25,3.0,5.0,2.25,2.5,-0.11,0.08,0.95,571.19,3.6,-6.5,4.25,1.25,7.75,8.5,4.75,2.5,1.5,0.25,0.25,0.5,0.0,0.0,0.5,0.02,0.14,1.02,446.49,-17.0,55.8
2.64,1.5,0.0,2.25,7.25,5.25,2.75,1.75,5.0,3.25,3.0,4.5,2.0,1.75,-0.11,0.08,0.95,573.07,4.0,-3.3,6.25,2.5,8.75,9.5,5.0,2.0,2.0,0.0,0.25,0.5,0.0,0.0,0.0,0.02,0.14,1.14,521.77,-19.4,62.7
2.66,1.25,0.5,2.25,7.5,5.25,2.75,1.75,5.0,3.25,3.0,4.0,2.0,1.5,-0.11,0.08,0.95,569.01,4.1,-0.6,7.75,2.5,9.5,9.5,6.25,1.25,1.75,0.0,0.25,0.5,0.25,0.0,0.75,0.02,0.2,1.08,614.47,-19.5,60.0
2.68,1.0,0.75,2.25,7.5,5.75,2.75,2.0,4.5,3.25,2.25,4.0,2.0,1.5,-0.11,0.08,0.95,562.2,4.6,2.1,8.25,2.75,9.5,9.75,6.5,1.0,2.0,0.0,0.25,0.5,1.0,0.0,0.75,0.08,0.27,1.02,697.93,-19.6,58.3
2.7,1.25,0.75,3.0,8.25,6.0,2.5,2.0,4.0,3.0,1.25,3.25,1.0,1.25,-0.11,0.08,0.95,550.65,6.5,13.4,9.0,3.0,9.75,9.75,5.5,0.75,1.5,0.0,0.25,0.5,1.0,0.0,0.75,0.02,0.27,1.02,741.64,-20.7,59.7
2.72,1.0,1.0,2.5,8.5,6.0,2.25,2.25,4.0,2.5,1.25,3.25,1.0,1.25,-0.11,0.08,0.95,536.16,6.2,13.8,9.0,2.75,11.0,9.5,4.5,0.0,1.5,0.0,0.25,0.0,0.75,0.0,0.25,0.02,0.33,1.14,739.45,-23.8,64.9
2.74,1.75,1.25,3.0,9.5,6.75,2.5,2.25,3.5,1.75,1.25,2.5,1.0,1.0,-0.11,0.08,0.95,535.87,7.3,23.0,9.75,3.25,11.0,8.5,3.5,0.0,1.0,0.0,0.25,0.75,0.0,0.0,0.25,0.02,0.33,1.14,712.21,-24.3,66.6
2.76,2.75,1.25,3.0,11.0,6.75,2.25,2.5,2.5,1.0,1.25,0.0,1.0,0.75,-0.11,0.08,1.02,529.88,9.2,36.9,10.0,3.0,11.0,7.75,0.5,0.0,1.0,0.0,0.25,0.5,0.75,0.0,0.0,0.08,0.39,1.27,662.69,-27.7,67.5
2.78,1.5,1.5,4.75,11.0,7.0,2.0,2.25,2.25,0.0,1.0,0.0,1.0,0.75,-0.11,0.14,1.08,522.8,10.2,40.2,9.75,2.5,9.5,5.25,0.0,0.0,1.0,0.0,0.25,0.5,0.75,0.0,0.75,0.14,0.45,1.7,574.31,-27.8,63.5
2.8,2.75,1.25,5.0,11.0,7.25,1.5,1.75,2.25,0.25,1.25,1.5,1.0,0.25,-0.23,0.14,1.39,529.16,11.5,38.3,9.75,2.5,8.25,4.0,0.0,0.0,1.0,0.0,0.25,0.5,1.0,0.0,0.75,0.14,0.52,1.77,494.47,-27.7,62.7
2.82,3.5,0.5,4.75,9.0,6.0,0.75,1.5,2.25,0.5,1.0,1.75,0.75,0.25,-0.23,0.14,1.27,507.22,13.0,36.7,9.0,1.5,7.0,3.25,0.0,0.0,0.75,0.0,0.25,0.5,1.5,0.0,1.0,0.08,0.77,1.77,412.64,-27.1,55.9
2.84,4.5,1.0,5.5,8.5,5.5,0.0,0.5,2.25,0.0,1.25,1.75,1.0,0.5,-0.36,0.2,1.39,488.65,14.4,37.6,8.0,0.75,5.75,2.75,0.0,0.25,1.0,0.0,0.25,0.5,0.5,0.0,0.5,0.14,0.64,1.52,334.9,-28.2,62.3
2.86,4.75,0.75,4.0,7.25,2.75,0.0,0.0,1.5,0.5,1.25,1.75,1.0,0.25,-0.36,0.33,1.45,429.58,16.2,35.5,7.0,0.75,3.5,2.25,0.0,0.0,0.75,0.0,0.25,0.5,0.75,0.0,0.5,-0.17,0.14,1.2,266.05,-27.1,59.1
2.88,4.25,0.5,2.25,5.5,1.5,0.0,0.0,1.5,0.5,1.0,1.25,1.0,0.25,-0.67,0.52,1.27,355.96,15.7,31.6,5.75,0.75,3.5,1.25,0.0,0.0,0.5,0.0,0.25,0.5,1.75,0.0,0.75,-0.61,0.33,0.77,211.91,-25.4,44.4
2.9,2.75,0.25,1.5,3.5,0.0,0.0,0.0,1.75,0.5,1.0,1.5,0.75,0.0,-0.36,0.64,2.33,270.05,14.7,17.0,3.75,0.75,2.75,1.25,0.0,0.5,0.75,0.0,0.25,0.5,1.0,0.0,0.5,-2.61,0.83,-2.17,158.56,-22.8,45.0
2.92,1.5,0.0,0.5,3.25,0.0,0.0,0.0,1.75,0.0,1.0,1.5,0.0,0.25,-0.11,0.58,2.27,191.77,9.6,8.6,1.25,0.75,2.5,1.25,0.5,0.75,0.5,0.0,0.25,0.5,1.0,0.0,0.75,-0.17,1.27,-3.05,115.43,-15.8,28.4
2.94,2.0,0.25,1.25,0.0,0.0,0.0,2.75,0.0,0.0,0.0,0.0,0.0,0.0,-0.3,0.27,1.39,103.89,33.9,68.2,1.25,0.5,2.0,1.25,0.25,0.75,0.25,0.25,0.25,0.5,0.0,0.0,0.5,0.95,1.14,-1.86,78.84,-15.5,38.5
2.96,1.25,0.0,0.0,0.5,0.0,0.0,0.5,0.0,0.0,0.0,1.5,0.0,0.0,-0.55,0.2,1.14,29.42,21.6,12.2,0.5,0.75,1.75,1.25,0.5,0.75,0.25,0.0,0.25,0.5,0.25,0.0,0.0,2.27,4.14,0.64,54.04,-14.9,44.5
2.98,0.0,0.0,0.0,0.0,0.0,0.0,0.5,0.0,0.0,0.0,0.0,0.0,0.0,-0.55,0.02,0.89,0.0,32.4,27.3,1.0,0.75,2.0,1.25,0.5,0.75,0.25,0.5,0.25,0.5,0.5,0.0,0.0,0.83,6.39,3.45,49.55,-14.7,39.5
3.0,0.0,0.0,0.0,0.0,0.0,0.0,1.25,0.0,0.0,0.0,0.0,0.0,0.0,-0.61,-0.05,0.58,0.0,32.4,27.3,0.5,0.5,1.25,1.25,0.5,0.75,0.25,0.0,0.25,0.5,0.75,0.0,0.5,-0.05,0.77,1.02,50.51,-10.9,21.6
3.02,1.0,0.0,0.0,0.0,0.0,0.0,1.0,0.0,0.0,0.0,0.0,0.0,0.0,-0.48,-0.17,0.52,0.0,34.1,73.9,0.0,0.0,0.5,0.0,0.0,0.0,0.0,0.0,0.25,0.5,0.0,0.0,0.0,-0.8,-4.48,-3.17,25.53,-11.7,-12.6
3.04,0.0,0.0,0.0,0.0,0.0,0.0,1.25,0.0,0.0,0.0,0.0,0.0,0.0,-0.23,0.2,0.33,0.0,32.4,27.3,0.0,0.75,2.0,1.25,0.5,0.75,0.25,0.0,0.25,0.5,0.75,0.0,0.0,1.45,-4.17,-0.36,35.29,-14.2,33.3
3.06,0.0,0.0,0.0,0.0,0.0,0.0,4.25,0.0,0.0,0.0,0.0,0.0,0.0,-0.36,0.08,0.52,0.0,32.4,27.4,0.0,0.0,1.25,1.25,1.0,0.0,0.25,0.0,0.0,0.0,1.25,0.0,0.25,2.52,-4.42,1.33,38.2,-15.2,18.7
3.08,0.0,0.0,0.0,0.0,0.0,0.0,1.25,0.0,0.0,0.0,0.5,0.0,0.0,-0.17,0.14,0.45,0.0,22.7,-18.5,0.25,0.75,0.75,1.25,0.5,0.75,0.5,0.0,0.25,0.5,0.75,0.0,0.25,-3.92,-1.05,3.27,58.55,-9.3,24.2
3.1,0.0,0.0,0.0,1.75,0.0,0.0,0.0,0.0,0.5,0.5,0.0,0.0,0.25,7.39,6.39,2.33,0.0,8.4,6.8,0.0,0.75,1.0,1.25,0.5,0.75,0.25,0.0,0.25,0.5,0.25,0.0,0.0,-0.36,-1.23,1.14,67.27,-10.0,37.7
3.12,0.0,0.5,0.5,1.25,0.0,0.0,0.75,0.0,0.5,0.5,1.5,0.75,0.25,0.64,0.14,1.83,19.73,12.5,-17.6,0.25,0.5,1.5,1.25,1.0,0.75,0.5,0.0,0.25,0.5,0.75,0.0,0.25,-2.17,3.83,-0.61,87.53,-11.2,27.7
3.14,0.25,0.25,0.5,1.75,0.0,0.0,1.75,0.0,0.5,0.5,0.0,0.5,0.0,1.08,-0.11,-0.98,54.09,17.8,18.8,0.25,0.75,1.0,1.25,1.0,0.5,0.5,0.0,0.25,0.5,0.75,0.0,0.5,-0.61,7.83,-0.86,97.71,-9.5,22.7
3.16,0.0,0.0,0.5,0.0,0.0,0.0,1.25,0.0,1.25,0.0,0.0,0.25,0.0,2.08,4.58,1.52,62.25,21.7,-10.4,0.0,0.75,0.75,1.25,1.0,0.75,0.25,0.0,0.25,0.5,0.25,0.0,0.0,0.33,4.27,-2.36,101.38,-7.4,38.2
3.18,0.0,0.0,0.0,1.25,0.0,0.0,0.75,0.0,2.0,0.75,0.0,0.0,0.25,2.27,2.39,-2.92,72.03,9.2,-16.2,0.0,0.5,1.0,1.25,0.5,0.75,0.25,0.0,0.25,0.5,0.25,0.0,0.0,1.2,1.27,-2.48,98.19,-9.9,34.7
3.2,0.0,0.0,0.5,1.0,0.0,0.0,0.25,0.0,0.5,0.5,0.0,0.0,0.25,1.95,3.58,-3.92,66.28,12.3,3.4,0.0,0.75,1.25,1.0,1.0,1.0,0.25,0.0,0.25,0.5,0.25,0.0,0.0,0.89,0.39,-0.05,98.4,-8.4,39.1
3.22,0.0,0.25,0.5,0.5,0.0,0.0,0.25,0.0,2.75,0.75,0.0,0.25,0.0,0.27,2.83,0.58,73.14,11.5,-19.1,0.0,0.75,1.25,1.0,0.5,0.75,0.25,0.0,0.25,0.5,1.0,0.0,0.0,0.64,0.58,1.08,97.92,-10.9,24.6
3.24,0.0,0.0,0.0,0.75,0.0,0.0,3.75,0.0,0.5,0.0,0.0,0.0,0.0,-1.36,1.7,3.45,67.06,25.2,24.6,0.25,0.75,1.0,1.0,1.25,0.75,0.25,0.0,0.25,0.5,0.5,0.0,0.25,0.58,1.14,0.89,105.32,-8.0,31.4
3.26,0.0,0.0,0.25,0.0,0.0,0.0,0.5,0.0,0.0,0.0,0.0,0.0,0.0,-0.86,0.58,2.77,50.72,35.4,44.8,0.0,0.5,0.75,0.5,0.5,0.75,0.25,0.0,0.25,0.5,0.75,0.0,0.25,0.14,0.89,-0.36,100.14,-6.1,11.4
3.28,0.0,0.0,0.0,1.25,0.0,0.0,0.0,0.0,0.25,0.25,0.0,0.0,0.0,0.77,-0.67,-0.3,37.78,11.9,26.2,0.0,0.75,1.25,1.0,1.0,0.75,0.5,0.0,0.25,0.5,0.75,0.0,0.5,-3.73,-0.61,0.77,101.18,-8.4,20.7
3.3,0.25,0.5,0.5,1.0,0.0,0.0,0.25,0.0,0.25,0.5,0.75,0.25,0.25,2.83,-0.23,-2.61,41.29,13.1,2.6,0.0,0.5,1.0,0.75,1.0,0.75,0.75,0.0,0.25,0.5,0.75,0.0,0.5,-1.55,1.08,-0.67,101.18,-7.1,14.7
3.32,0.0,0.25,0.5,1.5,0.0,0.0,0.25,0.0,0.25,1.25,1.25,0.5,0.25,-0.17,-2.3,-0.11,57.85,8.6,-21.4,0.0,0.75,1.0,1.25,0.5,0.75,0.25,0.0,0.25,0.5,0.75,0.0,0.5,-1.17,1.14,-0.98,103.16,-8.2,17.6
3.34,0.0,0.25,0.5,0.0,0.0,0.0,0.25,0.0,0.25,0.5,1.0,0.25,0.25,-1.36,-4.42,-1.3,58.72,10.0,-37.1,0.0,0.5,1.0,1.25,1.5,0.75,0.5,0.0,0.25,0.5,1.5,0.0,0.5,-0.86,0.77,-0.86,111.58,-7.0,12.0
3.36,0.0,0.0,0.5,1.25,0.0,0.0,0.25,0.0,0.5,0.5,0.0,0.0,0.0,-3.67,-2.61,0.77,57.78,15.0,18.2,0.0,0.5,1.0,0.75,1.0,0.75,0.25,0.0,0.25,0.5,0.75,0.0,0.0,-0.23,0.39,-0.3,107.83,-7.9,25.3
3.38,0.25,0.25,0.5,0.75,0.0,0.0,0.25,0.0,0.0,0.0,1.0,0.0,0.0,-0.3,-1.61,-0.48,52.59,20.4,19.2,0.0,0.5,0.75,1.0,1.0,0.75,0.5,0.25,0.25,0.5,0.5,0.0,0.5,-0.11,0.33,-0.23,107.28,-4.8,15.7
3.4,0.0,0.5,0.25,1.0,0.0,0.0,0.0,0.0,0.0,0.5,0.5,0.0,0.0,0.45,7.33,-1.55,48.72,11.3,18.9,0.25,0.5,1.25,0.5,1.0,0.75,0.5,0.0,0.25,0.5,0.25,0.0,0.25,-0.11,0.45,-0.17,102.18,-9.2,30.7
3.42,0.0,0.25,0.25,0.0,0.0,0.0,0.0,0.0,0.0,0.5,1.0,0.0,0.25,-1.8,5.02,0.08,41.13,5.4,-43.6,0.0,0.5,1.0,0.75,1.5,0.75,0.25,0.0,0.25,0.5,0.75,0.0,0.25,-0.3,0.64,-0.3,103.02,-6.1,22.5
3.44,0.0,0.0,0.25,0.25,0.0,0.0,0.0,0.0,0.5,0.0,1.25,0.0,0.0,-1.42,2.77,-0.73,38.76,15.0,-35.7,0.0,0.5,1.5,0.5,1.25,0.75,0.25,0.25,0.25,0.5,0.75,0.0,0.25,-0.42,0.95,-0.48,103.06,-7.7,20.5
3.46,0.0,0.25,0.5,1.25,0.0,0.0,4.5,0.0,2.75,0.5,1.75,0.5,0.25,-0.61,0.39,0.14,74.89,16.1,-16.3,0.0,0.5,1.0,0.0,1.25,0.75,0.25,0.0,0.25,0.5,0.25,0.0,0.25,-0.42,1.08,-0.61,97.63,-4.5,24.6
3.48,0.0,0.25,1.25,0.25,0.0,0.0,0.25,0.0,0.25,0.5,1.0,0.0,0.0,-0.3,0.08,0.7,79.19,18.2,0.5,0.0,0.75,0.75,0.5,0.5,0.75,0.25,0.0,0.25,0.5,0.5,0.0,0.25,-0.3,1.14,-0.55,90.12,-6.2,20.1
3.5,0.0,0.25,0.5,0.0,0.0,0.0,0.25,0.0,0.25,0.25,1.0,0.0,0.25,-0.3,0.08,0.64,76.75,12.5,-26.6,0.0,0.5,1.0,0.5,0.5,0.75,0.5,0.0,0.25,0.5,0.5,0.0,0.5,-0.17,1.02,-0.42,84.38,-7.0,12.2
3.52,0.0,0.25,0.5,0.0,0.0,0.0,0.25,0.0,0.0,0.25,1.0,0.0,0.25,-0.11,0.45,0.02,56.86,12.6,-25.3,0.0,0.5,0.75,1.0,1.0,0.75,0.75,0.0,0.25,0.5,0.75,0.0,0.5,-0.17,1.08,-0.3,86.38,-6.3,14.6
3.54,0.0,0.25,0.5,0.5,0.0,0.0,0.25,0.0,0.25,0.25,1.25,0.0,0.0,0.52,0.89,-0.67,47.87,15.3,-9.3,0.0,0.5,0.75,0.5,1.0,0.75,0.25,0.0,0.25,0.5,0.75,0.0,0.75,-0.17,1.14,-0.3,88.88,-3.5,5.1
3.56,0.0,0.0,0.5,0.25,0.0,0.0,0.25,0.0,0.25,0.5,1.25,0.0,0.25,5.45,1.89,-0.98,42.07,10.5,-37.6,0.0,0.5,0.75,0.75,1.5,0.75,0.25,0.0,0.25,0.5,0.5,0.0,0.5,-0.3,1.2,-0.36,94.58,-3.8,19.3
3.58,0.5,0.75,0.5,1.25,0.0,0.0,0.25,0.0,0.25,0.0,1.5,0.25,0.25,1.27,1.58,-1.23,59.72,16.6,10.7,0.0,0.5,1.0,0.5,1.0,0.75,0.75,0.0,0.25,0.5,1.25,0.0,0.5,-0.3,1.08,-0.42,98.5,-7.0,6.6
3.6,0.0,0.0,0.5,0.25,0.0,0.0,0.25,0.0,0.25,0.5,1.0,0.0,0.25,0.08,1.02,-0.55,59.33,10.5,-34.4,0.0,0.5,1.0,0.25,1.0,0.75,0.25,0.25,0.25,0.5,0.75,0.0,0.5,-0.3,0.95,-0.36,99.72,-4.3,8.2
3.62,0.0,0.25,0.5,0.25,0.0,0.0,0.25,0.0,0.25,0.75,1.0,0.0,0.0,-0.05,0.33,-0.61,57.41,10.5,-20.4,0.0,0.75,1.0,0.5,1.25,0.75,0.5,0.0,0.25,0.5,1.25,0.0,0.25,-0.3,0.83,-0.3,102.73,-7.1,15.9
3.64,0.25,0.5,0.5,0.5,0.0,0.0,0.25,0.0,0.0,0.5,1.5,0.25,0.25,-0.11,0.39,-0.48,57.4,12.3,-14.6,0.0,0.75,1.0,0.5,0.5,0.75,0.5,0.0,0.25,0.5,0.75,0.0,0.25,-0.36,0.83,-0.3,99.03,-8.4,18.0
3.66,0.0,0.25,0.5,0.5,0.0,0.0,0.25,0.0,0.0,0.5,1.0,0.0,0.25,0.14,0.7,-0.36,53.97,11.1,-15.4,0.0,0.5,0.75,0.5,0.5,0.75,0.25,0.0,0.25,0.5,0.75,0.0,0.5,-0.36,0.83,-0.42,93.39,-5.1,5.4
3.68,0.5,0.5,0.5,0.5,0.0,0.0,0.25,0.0,0.0,0.25,1.0,0.0,0.25,0.33,1.02,-0.36,53.09,16.1,11.4,0.25,0.5,0.75,0.25,1.0,0.75,0.25,0.0,0.25,0.5,1.25,0.0,0.25,-0.42,0.77,-0.42,91.38,-6.2,9.7
3.7,0.0,0.25,0.5,0.5,0.0,0.0,0.25,0.0,0.25,0.25,1.0,0.25,0.25,0.45,1.2,-0.36,49.88,13.0,-19.6,0.0,0.5,1.0,0.5,0.5,0.75,0.25,0.0,0.25,0.5,0.75,0.0,0.25,-0.42,0.77,-0.36,88.48,-7.7,13.8
3.72,0.0,0.5,0.5,0.25,0.0,0.0,0.25,0.0,0.25,0.5,1.25,0.0,0.25,0.45,1.33,-0.42,56.87,10.8,-18.2,0.25,0.5,1.0,0.25,1.5,0.75,0.25,0.0,0.25,0.5,0.75,0.0,0.25,-0.48,0.77,-0.36,91.59,-6.3,22.3
3.74,0.0,0.5,0.0,1.0,0.0,0.0,0.25,0.0,0.25,0.5,1.25,0.0,0.25,0.45,1.2,-0.36,57.82,8.4,-13.3,0.0,0.25,0.75,0.25,1.75,0.75,0.75,0.0,0.25,0.5,0.75,0.0,0.5,-0.48,0.77,-0.36,93.93,-3.4,11.2
3.76,0.0,0.25,0.75,1.0,0.0,0.0,0.25,0.0,0.25,0.25,1.25,0.0,0.25,0.33,1.02,-0.36,61.25,15.2,-2.7,0.0,0.5,1.0,0.0,0.5,0.75,0.25,0.0,0.25,0.5,1.25,0.0,0.5,-0.42,0.77,-0.36,91.77,-6.0,-4.2
3.78,0.0,0.25,0.5,1.0,0.0,0.0,0.25,0.0,0.25,0.25,1.0,0.0,0.25,0.27,0.89,-0.3,60.63,13.8,-2.4,0.0,0.25,1.0,0.5,1.75,0.75,0.25,0.0,0.25,0.5,0.75,0.0,0.5,-0.42,0.83,-0.36,95.42,-4.3,14.4
3.8,0.0,0.25,0.5,0.5,0.0,0.0,0.25,0.0,0.25,0.5,1.25,0.0,0.25,0.27,0.83,-0.3,59.2,11.1,-21.0,0.0,0.25,1.0,0.25,1.0,0.75,0.25,0.0,0.25,0.5,0.75,0.0,0.25,-0.42,0.89,-0.36,90.92,-5.7,11.8
3.82,0.0,0.5,0.5,0.75,0.0,0.0,0.25,0.0,0.25,0.5,1.25,0.5,0.25,0.27,0.89,-0.36,62.12,11.3,-19.4,0.0,0.5,0.75,0.5,2.25,0.75,0.5,0.0,0.25,0.5,0.25,0.0,0.25,-0.42,0.95,-0.36,96.36,-3.3,30.9
3.84,0.25,0.0,0.5,0.75,0.0,0.0,0.25,0.0,0.25,0.5,1.25,0.25,0.25,0.33,0.83,-0.42,64.67,12.6,-22.1,0.0,0.5,1.0,0.0,2.25,0.75,0.5,0.0,0.25,0.5,0.25,0.0,0.25,-0.36,1.02,-0.36,98.64,-3.6,29.9
3.86,0.0,0.0,0.5,0.25,0.0,0.0,0.25,0.0,0.25,0.25,1.25,0.5,0.25,0.39,0.89,-0.48,61.97,12.2,-45.5,0.0,0.75,0.75,0.5,1.5,0.75,0.25,0.0,0.25,0.5,0.75,0.0,0.25,-0.36,1.02,-0.36,102.53,-4.6,22.6
3.88,0.0,0.25,0.5,0.0,0.0,0.0,0.25,0.0,0.0,0.5,1.0,0.75,0.25,0.39,0.83,-0.42,58.37,9.6,-47.8,0.0,0.25,1.25,0.25,1.25,0.75,0.5,0.0,0.25,0.5,0.75,0.0,0.25,-0.3,0.95,-0.36,101.32,-7.2,16.3
3.9,0.5,0.25,0.5,0.25,0.0,0.0,0.25,0.0,0.25,0.25,1.25,0.75,0.25,0.33,0.83,-0.42,60.38,14.5,-25.1,0.0,0.5,0.75,0.25,1.25,0.5,0.5,0.25,0.25,0.5,1.25,0.0,0.25,-0.3,0.95,-0.36,100.23,-5.3,5.9
3.92,0.0,0.25,0.5,0.5,0.0,0.0,0.25,0.0,0.25,0.25,1.25,0.5,0.25,0.27,0.83,-0.42,59.32,12.6,-28.9,0.0,0.5,1.0,0.25,1.25,0.75,0.25,0.0,0.25,0.5,0.75,0.0,0.0,-0.36,0.95,-0.36,95.35,-6.5,23.7
3.94,0.0,0.0,0.5,0.0,0.0,0.0,0.25,0.0,0.25,0.25,1.25,0.5,0.25,0.27,0.89,-0.42,57.15,11.8,-54.2,0.0,0.25,1.0,0.0,1.0,0.75,0.5,0.0,0.25,0.5,0.75,0.0,0.5,-0.36,0.89,-0.36,90.65,-4.8,4.1
3.96,0.0,0.25,0.5,0.0,0.0,0.0,0.25,0.0,0.25,0.25,1.25,0.75,0.25,0.2,0.89,-0.48,56.3,11.6,-47.1,0.0,0.25,0.75,0.25,1.0,0.75,0.5,0.0,0.25,0.5,0.75,0.0,0.0,-0.3,0.89,-0.36,83.9,-5.7,16.0
3.98,0.0,0.5,0.5,0.5,0.0,0.0,0.25,0.0,0.25,0.25,1.25,0.5,0.25,0.14,0.95,-0.48,57.4,12.6,-20.9,0.0,0.25,1.5,0.0,1.25,0.75,0.0,0.0,0.25,0.5,1.0,0.0,0.25,-0.3,0.89,-0.36,85.1,-7.3,12.2
4.0,0.0,0.0,0.5,0.0,0.0,0.0,0.25,0.0,0.5,0.25,0.75,0.75,0.25,0.14,0.95,-0.48,55.13,11.7,-54.1,0.0,0.5,0.75,0.0,1.0,0.75,0.25,0.0,0.25,0.5,0.75,0.0,0.25,-0.3,0.83,-0.42,82.23,-3.8,11.4
4.02,0.25,0.5,0.5,0.5,0.0,0.0,0.25,0.0,0.0,0.0,1.0,0.75,0.25,0.08,0.89,-0.55,56.86,15.6,-11.4,0.0,0.25,1.0,0.5,0.5,0.75,0.25,0.0,0.25,0.5,0.5,0.0,0.0,-0.36,0.83,-0.36,77.42,-8.5,20.9
4.04,0.25,0.25,0.5,0.5,0.0,0.0,0.25,0.0,0.25,0.0,1.25,0.75,0.25,0.08,0.89,-0.55,58.29,15.3,-23.7,0.0,0.5,0.75,0.25,0.5,0.75,0.5,0.0,0.25,0.5,0.5,0.0,0.0,-0.36,0.83,-0.36,72.33,-7.1,21.1
4.06,0.5,0.0,0.5,0.25,0.0,0.0,0.25,0.0,0.25,0.25,1.0,1.0,0.25,0.08,0.89,-0.48,60.18,14.5,-35.1,0.0,0.75,1.0,0.25,1.25,0.75,0.25,0.0,0.25,0.5,0.0,0.0,0.25,-0.36,0.89,-0.36,73.7,-5.2,34.3
4.08,0.0,0.5,0.5,0.0,0.0,0.0,0.25,0.0,0.25,0.25,1.25,0.75,0.25,0.14,0.89,-0.48,61.19,11.7,-37.3,0.0,0.25,1.0,0.0,1.0,0.75,0.25,0.25,0.25,0.5,0.75,0.0,0.5,-0.36,0.89,-0.36,76.7,-3.3,1.6
4.1,0.0,0.25,0.5,0.5,0.0,0.0,0.25,0.0,0.25,0.5,1.25,0.75,0.25,0.14,0.89,-0.48,64.48,10.7,-36.1,0.0,0.25,1.0,0.25,1.75,0.75,0.5,0.0,0.25,0.5,1.0,0.0,0.25,-0.42,0.89,-0.36,87.03,-5.2,14.4
4.12,0.0,0.25,0.5,0.75,0.0,0.0,0.25,0.0,0.25,0.25,1.25,0.75,0.25,0.2,0.89,-0.48,65.62,12.6,-28.3,0.0,0.25,1.25,0.0,1.0,0.75,0.25,0.0,0.25,0.5,0.5,0.0,0.5,-0.42,0.89,-0.3,88.61,-5.6,10.0
4.14,0.0,0.25,0.5,0.25,0.0,0.0,0.25,0.0,0.25,0.5,1.25,0.75,0.25,0.27,0.95,-0.42,66.16,10.3,-42.1,0.0,0.0,1.5,0.0,0.5,0.75,0.25,0.0,0.25,0.5,0.75,0.0,0.25,-0.36,0.95,-0.36,85.43,-9.4,4.7
4.16,0.0,0.25,0.5,0.5,0.0,0.0,0.25,0.0,0.25,0.25,1.0,0.5,0.25,0.27,0.89,-0.42,63.49,12.7,-25.8,0.0,0.25,1.0,0.0,1.0,0.75,0.25,0.0,0.25,0.5,0.5,0.0,0.25,-0.36,0.89,-0.36,80.48,-4.9,13.7
4.18,0.0,0.0,0.5,0.5,0.0,0.0,0.25,0.0,0.25,0.25,1.0,0.75,0.25,0.27,0.89,-0.42,61.04,12.4,-40.4,0.0,0.5,1.75,0.5,1.5,0.75,0.25,0.75,0.25,0.5,0.5,0.0,0.5,-0.36,0.89,-0.36,94.17,-5.9,17.9
4.2,0.0,0.25,0.5,0.25,0.0,0.0,0.25,0.0,0.5,0.0,1.25,0.5,0.25,0.27,0.89,-0.42,57.43,14.2,-32.6,0.0,0.5,1.0,0.25,1.25,0.5,0.25,0.0,0.25,0.5,0.75,0.0,0.25,-0.36,0.95,-0.36,95.65,-6.8,17.1
4.22,0.0,0.25,0.5,0.5,0.0,0.0,0.25,0.0,0.25,0.25,1.0,0.5,0.25,0.2,0.89,-0.42,55.67,12.7,-25.8,0.0,0.5,0.75,0.25,1.0,0.5,0.5,0.0,0.25,0.5,0.75,0.0,0.0,-0.36,0.95,-0.36,94.48,-7.5,19.5
4.24,0.0,0.0,0.5,0.5,0.0,0.0,0.25,0.0,0.25,0.25,1.25,0.75,0.25,0.2,0.89,-0.42,56.93,12.3,-42.6,0.25,0.5,1.25,0.0,0.5,0.75,0.25,0.0,0.25,0.5,0.75,0.0,0.25,-0.36,0.95,-0.36,90.12,-9.5,15.5
4.26,0.0,0.25,0.5,0.75,0.0,0.0,0.25,0.0,0.25,0.25,1.0,0.5,0.25,0.14,0.95,-0.42,57.39,13.0,-20.1,0.0,0.25,1.25,0.0,0.5,0.75,0.5,0.0,0.25,0.5,0.5,0.0,0.5,-0.36,0.89,-0.36,83.88,-7.3,5.2
4.28,0.0,0.25,0.5,0.25,0.0,0.0,0.25,0.0,0.25,0.25,1.0,0.75,0.25,0.14,0.95,-0.42,57.18,12.1,-37.6,0.0,0.25,1.0,0.25,1.0,0.75,0.5,0.0,0.25,0.5,0.75,0.0,0.25,-0.36,0.89,-0.36,81.16,-6.3,12.2
4.3,0.0,0.25,0.5,0.25,0.0,0.0,0.25,0.0,0.25,0.25,1.25,0.5,0.25,0.14,0.95,-0.42,56.3,12.2,-35.2,0.0,0.25,1.0,0.0,1.25,0.75,0.5,0.0,0.25,0.5,0.75,0.0,0.5,-0.36,0.89,-0.36,82.41,-4.4,6.6
4.32,0.25,0.5,0.5,0.0,0.0,0.0,0.25,0.0,0.25,0.0,1.0,0.75,0.25,0.14,0.89,-0.42,55.15,15.2,-23.3,0.0,0.25,0.75,0.5,0.5,0.75,0.5,0.0,0.25,0.5,0.75,0.0,0.25,-0.36,0.89,-0.36,81.46,-6.4,7.1
4.34,0.25,0.0,0.5,0.25,0.0,0.0,0.25,0.0,0.25,0.25,1.25,0.75,0.25,0.14,0.89,-0.42,55.88,13.4,-40.9,0.0,0.5,0.75,0.0,0.5,0.75,0.5,0.0,0.25,0.5,0.75,0.0,0.25,-0.36,0.89,-0.36,77.13,-5.5,6.4
4.36,0.25,0.5,0.5,0.25,0.0,0.0,0.25,0.0,0.0,0.0,1.0,0.75,0.25,0.14,0.89,-0.42,55.93,15.5,-16.4,0.0,0.25,1.0,0.25,1.5,0.75,0.25,0.0,0.25,0.5,0.25,0.0,0.0,-0.36,0.89,-0.36,78.0,-5.2,31.0
4.38,0.0,0.25,0.5,0.5,0.0,0.0,0.25,0.0,0.25,0.25,1.0,0.25,0.25,0.14,0.95,-0.42,55.13,13.0,-19.6,0.0,0.25,1.5,0.5,1.0,0.75,0.25,0.0,0.25,0.5,0.25,0.0,0.25,-0.36,0.89,-0.3,80.9,-8.9,26.1
4.4,0.0,0.25,0.5,0.5,0.0,0.0,0.25,0.0,0.25,0.5,1.0,0.5,0.25,0.2,0.95,-0.42,56.17,10.9,-29.0,0.0,0.25,1.0,0.0,1.5,0.75,0.25,0.0,0.25,0.5,0.5,0.0,0.25,-0.36,0.95,-0.36,82.39,-4.0,18.0
4.42,0.0,0.0,0.75,0.25,0.0,0.0,0.25,0.0,0.25,0.5,0.75,0.75,0.25,0.2,0.95,-0.42,56.17,12.1,-40.4,0.0,0.25,0.75,0.0,1.0,0.75,0.25,0.0,0.25,0.5,0.5,0.0,0.25,-0.36,0.95,-0.3,78.84,-3.0,11.0
4.44,0.0,0.25,0.5,0.0,0.0,0.0,0.25,0.0,0.0,0.25,0.75,0.75,0.25,0.2,0.95,-0.42,52.75,11.7,-43.0,0.0,0.25,0.75,0.0,0.5,0.75,0.25,0.0,0.25,0.5,1.0,0.0,0.5,-0.36,0.95,-0.36,77.46,-3.6,-9.8
4.46,0.25,0.25,0.5,0.0,0.0,0.0,0.25,0.0,0.25,0.25,0.75,1.0,0.25,0.2,0.95,-0.42,52.8,13.1,-38.2,0.0,0.5,0.75,0.25,1.5,0.75,0.5,0.0,0.25,0.5,0.25,0.0,0.0,-0.42,0.95,-0.36,78.32,-4.6,32.8
4.48,0.0,0.25,0.5,0.25,0.0,0.0,0.25,0.0,0.0,0.0,0.75,0.75,0.25,0.2,0.89,-0.42,48.8,14.6,-31.0,0.0,0.5,1.0,0.25,1.25,0.75,0.25,0.0,0.25,0.5,0.75,0.0,0.25,-0.36,0.89,-0.3,82.76,-5.6,17.8
4.5,0.0,0.25,0.5,0.25,0.0,0.0,0.25,0.0,0.25,0.0,0.75,0.5,0.25,0.2,0.89,-0.42,46.34,14.9,-24.9,0.0,0.25,0.75,0.0,1.25,0.75,0.25,0.0,0.25,0.5,0.0,0.0,0.5,-0.36,0.89,-0.3,81.66,-0.8,16.1
4.52,0.0,0.0,0.25,0.25,0.0,0.0,0.25,0.0,0.25,0.25,0.75,0.5,0.25,0.2,0.89,-0.42,43.07,9.9,-50.4,0.0,0.25,0.75,0.5,1.25,0.75,0.5,0.0,0.25,0.5,0.5,0.0,0.25,-0.36,0.89,-0.36,83.98,-4.6,18.2
4.54,0.25,0.25,0.5,0.25,0.0,0.0,0.25,0.0,0.25,0.0,0.75,0.75,0.25,0.2,0.89,-0.42,44.68,15.9,-22.6,0.0,0.5,0.75,0.0,0.25,0.5,0.5,0.0,0.25,0.5,0.75,0.0,0.25,-0.36,0.89,-0.36,76.63,-7.8,1.4
4.56,0.25,0.5,0.5,0.25,0.0,0.0,0.25,0.0,0.25,0.0,0.75,0.75,0.25,0.2,0.95,-0.42,47.75,15.6,-14.0,0.0,0.5,0.75,0.25,1.0,0.75,0.25,0.0,0.25,0.5,0.25,0.0,0.25,-0.36,0.89,-0.36,76.01,-3.9,22.7
4.58,0.25,0.25,0.5,0.25,0.0,0.0,0.25,0.0,0.0,0.25,0.0,0.5,0.25,0.2,0.95,-0.42,45.31,15.2,-1.4,0.5,0.25,0.75,0.0,1.25,0.75,0.5,0.0,0.25,0.5,1.25,0.0,0.25,-0.36,0.89,-0.36,80.4,-6.6,9.7
4.6,0.25,0.25,0.5,0.25,0.0,0.0,0.25,0.0,0.25,0.25,0.5,0.75,0.25,0.2,0.89,-0.42,47.25,13.9,-22.8,0.0,0.25,0.75,0.0,1.5,0.75,0.25,0.0,0.25,0.5,0.75,0.0,0.5,-0.36,0.89,-0.36,84.69,-1.9,6.1
4.62,0.25,0.0,0.5,0.0,0.0,0.0,0.25,0.0,0.25,0.25,0.5,0.75,0.25,0.2,0.89,-0.42,45.43,13.7,-41.2,0.0,0.25,0.75,0.0,1.0,0.75,0.25,0.5,0.25,0.75,0.75,0.0,0.75,-0.36,0.89,-0.36,89.29,0.5,-10.5
4.64,0.5,0.0,0.25,0.0,0.0,0.0,0.25,0.0,0.0,0.25,0.25,1.0,0.25,0.2,0.89,-0.42,43.7,13.1,-42.5,0.0,0.25,0.75,0.0,1.25,0.75,0.5,0.0,0.25,0.5,1.0,0.0,0.5,-0.36,0.89,-0.36,90.96,-3.2,0.6
4.66,0.25,0.25,0.5,0.5,0.0,0.0,0.25,0.0,0.0,0.25,0.75,0.5,0.25,0.2,0.95,-0.42,45.76,14.4,-12.7,0.0,0.25,1.0,0.0,1.25,0.5,0.25,0.0,0.25,0.5,0.25,0.0,0.0,-0.36,0.95,-0.3,85.61,-6.6,27.7
4.68,0.25,0.5,0.5,0.25,0.0,0.0,0.25,0.0,0.5,0.25,0.5,0.5,0.25,0.2,0.95,-0.42,50.38,14.0,-9.2,0.0,0.0,1.25,0.0,1.0,0.75,0.25,0.0,0.25,0.5,0.75,0.0,0.5,-0.42,0.95,-0.3,82.26,-5.5,1.7
4.7,0.25,0.25,0.25,0.25,0.0,0.0,0.25,0.0,0.0,0.25,0.0,0.75,0.25,0.2,0.95,-0.42,47.01,12.1,-19.5,0.0,0.75,0.75,0.0,1.25,0.75,0.25,0.0,0.25,0.5,0.0,0.0,0.25,-0.42,0.95,-0.36,79.2,-2.8,31.6
4.72,0.25,0.25,0.5,0.0,0.0,0.0,0.25,0.0,0.25,0.0,0.25,0.75,0.25,0.2,0.95,-0.42,44.88,16.7,-20.9,0.0,0.25,0.75,0.0,0.5,0.75,0.25,0.0,0.25,0.5,0.25,0.0,0.0,-0.36,0.89,-0.3,71.14,-4.7,19.1
4.74,0.25,0.25,0.5,0.0,0.0,0.0,0.25,0.0,0.0,0.5,0.0,0.5,0.25,0.2,0.95,-0.42,40.37,11.7,-15.8,0.0,0.0,0.75,0.25,1.0,0.75,0.25,0.0,0.25,0.5,0.75,0.0,0.25,-0.36,0.89,-0.3,70.35,-3.6,4.4
4.76,0.5,0.5,0.5,0.0,0.0,0.0,0.25,0.0,0.0,0.5,0.0,0.5,0.25,0.2,0.95,-0.42,40.53,13.7,3.7,0.0,0.25,0.75,0.0,1.25,0.75,0.5,0.0,0.25,0.5,0.5,0.0,0.5,-0.36,0.89,-0.3,71.7,-2.4,7.8
4.78,0.25,0.25,0.5,0.25,0.0,0.0,0.25,0.25,0.25,0.25,0.0,0.75,0.25,0.2,0.95,-0.42,42.07,11.9,-15.9,0.0,0.25,0.75,0.5,1.25,0.75,0.5,0.0,0.25,0.5,0.75,0.0,0.25,-0.36,0.89,-0.36,78.99,-4.9,14.2
4.8,0.5,0.25,0.5,0.25,0.0,0.0,0.25,0.0,0.0,0.0,0.0,0.75,0.25,0.2,0.95,-0.42,43.44,19.3,4.1,0.0,0.25,0.75,0.0,1.25,0.75,0.5,0.0,0.25,0.5,0.5,0.0,0.25,-0.36,0.89,-0.36,79.3,-3.3,13.9
4.82,0.25,0.0,0.5,0.25,0.0,0.0,0.25,0.0,0.0,0.5,0.0,0.5,0.25,0.2,0.89,-0.42,41.94,12.2,-20.1,0.0,0.0,0.75,0.0,1.25,0.75,0.25,0.0,0.25,0.5,0.5,0.0,0.5,-0.42,0.89,-0.36,78.96,-1.2,2.4
4.84,0.5,0.0,0.5,0.25,0.0,0.0,0.25,0.0,0.25,0.0,0.0,0.75,0.25,0.2,0.89,-0.42,40.06,19.3,-9.2,0.0,0.25,1.0,0.0,1.25,0.75,0.25,0.0,0.25,0.5,0.5,0.0,0.25,-0.42,0.89,-0.36,78.88,-4.4,16.0
4.86,0.25,0.0,0.5,0.5,0.0,0.0,0.25,0.0,0.5,0.25,0.75,0.75,0.25,0.2,0.89,-0.42,45.71,13.9,-29.7,0.0,0.0,0.75,0.25,2.25,0.75,0.5,0.0,0.25,0.5,0.5,0.0,0.0,-0.36,0.89,-0.3,83.53,-2.9,25.5
4.88,0.5,0.0,0.5,0.25,0.0,0.0,0.25,0.0,0.25,0.25,0.0,0.75,0.25,0.2,0.89,-0.42,46.46,16.2,-15.0,0.0,0.25,0.75,0.0,1.0,0.75,0.25,0.25,0.25,0.5,0.5,0.0,0.0,-0.36,0.89,-0.36,81.69,-2.8,15.2
4.9,0.25,0.0,0.25,0.25,0.0,0.0,0.25,0.0,0.0,0.5,0.0,0.75,0.25,0.2,0.95,-0.42,44.77,9.1,-38.2,0.0,0.25,0.75,0.0,1.0,0.75,0.5,0.0,0.25,0.5,0.25,0.0,0.5,-0.42,0.89,-0.36,80.59,-2.4,9.2
4.92,0.5,0.0,0.5,0.25,0.0,0.0,0.25,0.0,0.0,0.25,0.5,0.5,0.25,0.2,0.95,-0.42,44.08,16.3,-14.9,0.0,0.0,0.75,0.0,1.25,0.75,0.5,0.0,0.25,0.5,0.75,0.0,0.5,-0.42,0.89,-0.36,78.94,-2.3,-0.6
4.94,0.25,0.0,0.25,0.25,0.0,0.0,0.25,0.0,0.25,0.25,0.0,0.5,0.25,0.2,0.95,-0.42,40.12,12.4,-25.5,0.0,0.25,0.75,0.0,0.25,0.75,0.75,0.0,0.25,0.5,0.25,0.0,0.25,-0.42,0.89,-0.3,71.76,-5.9,7.7
4.96,0.5,0.0,0.5,0.0,0.0,0.0,0.25,0.5,0.0,0.0,0.25,0.75,0.25,0.2,0.95,-0.42,39.73,13.0,-23.7,0.0,0.25,0.75,0.0,1.25,0.75,0.5,0.0,0.25,0.25,0.25,0.0,0.5,-0.42,0.89,-0.3,71.23,-3.0,16.5
4.98,0.25,0.0,0.75,0.0,0.0,0.0,0.25,0.5,0.0,0.25,0.0,0.75,0.25,0.2,0.95,-0.42,40.34,11.2,-26.1,0.0,0.25,0.75,0.0,1.0,0.5,0.25,0.0,0.25,0.5,0.5,0.0,0.0,-0.42,0.89,-0.3,66.22,-5.5,17.4
5.0,0.25,0.25,0.5,0.0,0.0,0.0,0.25,0.0,0.0,0.25,0.25,1.25,0.25,0.2,0.95,-0.42,43.88,13.2,-38.1,0.0,0.5,1.75,0.0,0.5,0.75,0.5,0.0,0.25,0.5,0.25,0.0,0.75,-0.42,0.89,-0.36,73.2,-9.3,12.8
5.02,0.25,0.0,0.5,0.0,0.0,0.0,0.25,0.0,0.25,0.5,0.25,0.75,0.25,0.2,0.89,-0.42,44.98,11.4,-41.3,0.0,0.25,1.0,0.0,1.25,0.5,0.25,0.0,0.25,0.5,0.75,0.0,0.5,-0.42,0.89,-0.36,76.65,-5.0,4.9
5.04,0.25,0.5,0.25,0.0,0.0,0.0,0.25,0.0,0.0,0.5,0.5,0.75,0.25,0.2,0.89,-0.42,47.22,9.2,-29.4,0.0,0.25,0.75,0.0,1.0,0.75,0.25,0.0,0.25,0.5,0.75,0.0,0.5,-0.42,0.89,-0.3,80.62,-2.5,0.6
5.06,0.5,0.0,0.5,0.0,0.0,0.0,0.25,0.0,0.0,0.0,0.0,0.5,0.25,0.2,0.95,-0.42,41.43,22.0,-1.3,0.0,0.25,0.75,0.0,1.5,0.75,0.25,0.0,0.25,0.25,0.75,0.0,0.25,-0.42,0.89,-0.3,81.16,-3.5,16.0
5.08,0.5,0.25,0.5,0.0,0.0,0.0,0.25,0.0,0.0,0.25,0.25,0.75,0.25,0.2,0.95,-0.42,40.79,15.7,-14.5,0.25,0.25,0.75,0.0,1.25,0.75,0.25,0.0,0.25,0.5,0.75,0.0,0.25,-0.42,0.89,-0.3,82.15,-4.4,13.2
5.1,0.25,0.0,0.75,0.0,0.0,0.0,0.25,0.0,0.0,0.25,0.5,0.5,0.25,0.2,0.89,-0.42,38.7,16.7,-24.9,0.0,0.5,0.75,0.0,1.25,0.75,0.25,0.0,0.25,0.5,0.25,0.0,0.5,-0.42,0.95,-0.36,82.22,-1.9,15.9
5.12,0.25,0.0,0.5,0.0,0.0,0.0,0.25,0.0,0.25,0.25,0.0,0.75,0.25,0.2,0.89,-0.42,39.15,14.3,-34.2,0.0,0.25,0.75,0.25,0.5,0.75,0.25,0.0,0.25,0.5,0.5,0.0,0.0,-0.42,0.95,-0.3,77.37,-5.9,15.8
5.14,0.25,0.0,0.75,0.0,0.0,0.0,0.25,0.0,0.25,0.0,0.0,0.25,0.25,0.2,0.89,-0.42,35.6,23.0,4.3,0.0,0.25,1.25,0.0,0.5,0.5,0.25,0.0,0.25,0.5,1.0,0.0,0.25,-0.42,0.89,-0.3,75.13,-9.7,1.2
5.16,0.25,0.0,0.5,0.0,0.0,0.0,0.25,0.0,0.0,0.25,0.0,0.75,0.25,0.2,0.89,-0.42,33.55,14.5,-33.7,0.0,0.25,0.75,0.0,1.0,0.75,0.25,0.0,0.25,0.5,1.25,0.0,0.5,-0.42,0.89,-0.3,76.61,-3.2,-6.0
5.18,0.25,0.25,0.75,0.25,0.0,0.0,0.25,0.0,0.0,0.25,0.0,1.0,0.25,0.2,0.89,-0.42,37.31,16.1,-13.4,0.0,0.5,0.75,0.0,1.25,0.75,0.75,0.0,0.25,0.25,0.75,0.0,0.5,-0.42,0.89,-0.3,81.76,-4.8,12.5
5.2,0.25,0.25,0.5,0.25,0.0,0.0,0.25,0.0,0.5,0.25,0.0,0.5,0.25,0.2,0.89,-0.42,40.0,14.7,-7.8,0.0,0.25,1.0,0.0,1.5,0.75,0.25,0.0,0.25,0.5,0.75,0.0,0.25,-0.42,0.89,-0.36,85.4,-4.3,14.0
5.22,0.25,0.0,0.5,0.0,0.0,0.0,0.25,0.0,0.25,0.5,0.0,0.5,0.25,0.2,0.95,-0.42,40.59,11.7,-30.6,0.0,0.5,0.75,0.0,1.5,0.75,0.25,0.0,0.25,0.5,0.75,0.0,0.25,-0.42,0.89,-0.3,88.83,-3.1,15.7
5.24,0.25,0.25,0.5,0.25,0.0,0.0,0.25,0.0,0.25,0.5,0.0,0.5,0.25,0.2,0.95,-0.42,42.28,12.3,-11.0,0.0,0.0,0.75,0.0,1.5,0.75,0.0,0.0,0.25,0.5,0.75,0.0,0.5,-0.42,0.89,-0.3,86.73,-0.6,1.0
5.26,0.25,0.5,0.5,0.25,0.0,0.0,0.25,0.0,0.0,0.5,0.0,0.75,0.25,0.14,0.95,-0.42,45.03,12.0,-7.6,0.0,0.25,0.75,0.0,1.0,0.75,0.25,0.0,0.25,0.5,0.75,0.0,0.75,-0.42,0.89,-0.3,85.18,-1.7,-4.7
5.28,0.0,0.25,0.5,0.25,0.0,0.0,0.25,0.0,0.0,0.25,0.0,0.75,0.25,0.14,0.95,-0.42,43.46,12.6,-22.3,0.0,0.5,0.5,0.0,1.5,0.5,0.25,0.0,0.25,0.5,0.25,0.0,0.25,-0.42,0.89,-0.36,81.19,-1.6,21.9
5.3,0.25,0.0,0.5,0.0,0.0,0.0,0.25,0.0,0.0,0.5,0.5,1.0,0.25,0.14,0.95,-0.42,46.65,11.1,-49.7,0.0,0.25,0.75,0.0,1.5,0.75,0.5,0.0,0.25,0.5,0.0,0.0,0.5,-0.42,0.89,-0.36,79.91,-1.3,18.5
5.32,0.5,0.0,0.5,0.25,0.0,0.0,0.25,0.0,0.0,0.25,0.25,0.75,0.25,0.14,0.95,-0.42,46.0,16.1,-18.1,0.0,0.5,1.0,0.0,1.75,0.5,0.25,0.0,0.25,0.5,0.5,0.0,0.25,-0.42,0.89,-0.3,83.06,-5.1,22.9
5.34,0.5,0.25,0.0,0.0,0.0,0.0,0.25,0.0,0.0,0.5,0.0,0.75,0.25,0.14,0.95,-0.42,43.98,7.9,-31.2,0.0,0.0,0.75,0.0,1.5,0.75,0.25,0.0,0.25,0.5,0.75,0.0,0.0,-0.42,0.89,-0.3,82.53,-3.0,13.5
5.36,0.75,0.25,0.5,0.0,0.0,0.0,0.25,0.0,0.0,0.5,0.0,0.75,0.25,0.14,0.95,-0.42,45.0,15.0,-6.2,0.0,0.25,0.75,0.0,0.25,0.75,0.5,0.0,0.25,0.5,0.5,0.0,0.5,-0.42,0.89,-0.36,76.63,-4.1,-5.3
5.38,0.75,0.0,0.75,0.25,0.0,0.0,0.25,0.0,0.0,0.25,0.0,0.75,0.25,0.14,0.95,-0.42,46.93,19.8,1.6,0.0,0.0,0.75,0.0,0.5,0.5,0.5,0.0,0.25,0.5,0.5,0.0,0.25,-0.36,0.89,-0.36,66.15,-6.0,-3.2
5.4,1.0,0.25,0.5,0.25,0.0,0.0,0.25,0.0,0.25,0.5,0.0,0.5,0.25,0.2,0.95,-0.42,51.44,16.7,10.1,0.0,0.25,1.0,0.0,1.0,0.75,0.25,0.0,0.25,0.5,0.25,0.0,0.0,-0.42,0.95,-0.36,62.5,-5.7,26.3
5.42,1.0,0.25,0.5,0.0,0.0,0.0,0.25,0.0,0.25,0.25,0.0,0.75,0.25,0.2,0.89,-0.42,53.23,18.5,3.9,0.0,0.0,0.75,0.0,1.5,0.75,0.25,0.0,0.25,0.5,0.75,0.0,0.25,-0.42,0.95,-0.36,65.36,-2.1,7.3
5.44,0.75,0.0,0.75,0.0,0.0,0.0,0.25,0.0,0.0,0.25,0.25,0.75,0.25,0.2,0.89,-0.42,53.99,19.3,-9.2,0.0,0.0,0.75,0.0,1.0,0.75,0.5,0.0,0.25,0.5,0.25,0.0,0.25,-0.42,0.95,-0.3,66.25,-2.7,11.1
5.46,0.75,0.25,0.25,0.0,0.0,0.0,0.25,0.0,0.0,0.25,0.0,0.75,0.25,0.2,0.89,-0.42,49.8,15.7,-6.1,0.0,0.25,1.75,0.0,1.5,0.5,0.25,0.0,0.25,0.5,0.75,0.0,0.5,-0.42,0.95,-0.3,79.02,-8.7,13.9
5.48,0.75,0.0,0.25,0.0,0.0,0.0,0.25,0.0,0.0,0.25,0.25,0.75,0.25,0.14,0.95,-0.42,44.91,15.5,-23.2,0.0,0.25,0.75,0.0,1.5,0.75,0.25,0.0,0.25,0.5,0.25,0.0,0.25,-0.42,0.89,-0.36,81.08,-1.8,20.4
5.5,0.75,0.0,0.25,0.0,0.0,0.0,0.25,0.0,0.25,0.25,0.5,0.5,0.25,0.14,0.95,-0.42,42.64,15.4,-21.4,0.0,0.0,1.0,0.0,1.25,0.75,0.5,0.0,0.25,0.5,0.25,0.0,0.25,-0.42,0.89,-0.3,81.79,-4.3,16.5
5.52,0.5,0.25,0.75,0.25,0.0,0.0,0.25,0.0,0.25,0.25,0.75,0.5,0.25,0.14,0.95,-0.42,48.22,16.9,-7.6,0.0,0.25,0.75,0.0,0.5,0.5,0.25,0.0,0.25,0.5,0.0,0.0,0.5,-0.42,0.83,-0.3,71.73,-3.4,5.5
5.54,0.5,0.25,0.5,0.0,0.0,0.0,0.25,0.0,0.0,0.25,0.0,0.75,0.25,0.14,0.89,-0.42,46.84,16.2,-8.8,0.0,0.0,1.0,0.0,0.0,0.75,0.25,0.0,0.25,0.5,0.75,0.0,0.25,-0.42,0.89,-0.3,63.98,-7.4,-11.2
5.56,0.5,0.25,0.75,0.0,0.0,0.0,0.25,0.0,0.0,0.25,0.0,0.75,0.25,0.14,0.89,-0.42,47.77,18.1,-2.6,0.0,0.5,0.75,0.0,1.0,0.5,0.5,0.0,0.25,0.5,0.75,0.0,0.25,-0.42,0.83,-0.3,64.24,-5.8,10.7
5.58,0.5,0.0,0.25,0.0,0.0,0.0,0.25,0.0,0.0,0.0,0.0,0.75,0.25,0.14,0.95,-0.42,40.04,17.9,-24.6,0.0,0.25,1.0,0.0,1.5,0.75,0.25,0.0,0.25,0.5,0.25,0.0,0.25,-0.48,0.83,-0.3,71.19,-3.6,22.5
5.6,0.5,0.25,0.5,0.0,0.0,0.0,0.25,0.0,0.0,0.25,0.0,1.0,0.25,0.14,0.95,-0.42,38.86,15.5,-17.6,0.0,0.25,0.75,0.0,1.25,0.5,0.25,0.0,0.25,0.5,1.0,0.0,0.5,-0.48,0.89,-0.3,78.44,-3.7,-1.4
5.62,1.0,0.25,0.25,0.0,0.0,0.0,0.25,0.0,0.0,0.25,0.0,0.75,0.25,0.14,0.95,-0.42,38.42,17.3,2.4,0.0,0.25,1.5,0.0,1.5,0.75,0.25,0.0,0.25,0.5,0.75,0.0,0.5,-0.48,0.89,-0.3,88.36,-6.3,12.8
5.64,0.75,0.25,0.5,0.0,0.0,0.0,0.25,0.0,0.0,0.25,0.0,0.75,0.25,0.14,0.89,-0.42,41.45,17.7,-0.1,0.0,0.0,0.75,0.0,0.5,0.75,0.25,0.0,0.25,0.5,0.25,0.0,0.5,-0.48,0.89,-0.3,80.42,-1.6,-4.5
5.66,0.5,0.25,0.5,0.0,0.0,0.0,0.25,0.0,0.0,0.0,0.0,1.0,0.25,0.14,0.89,-0.42,42.07,18.5,-12.1,0.0,0.5,1.0,0.0,1.5,0.5,0.25,0.0,0.25,0.5,0.25,0.0,0.25,-0.48,0.83,-0.3,80.64,-5.3,25.8
5.68,0.5,0.25,0.5,0.0,0.0,0.0,0.25,0.0,0.0,0.25,0.25,0.5,0.25,0.14,0.95,-0.42,42.38,16.4,-5.4,0.0,0.5,1.25,0.0,0.5,0.5,0.25,0.0,0.25,0.5,0.5,0.0,0.25,-0.48,0.83,-0.3,75.3,-9.8,15.1
