time,left pressure 0[N/cm²],left pressure 1[N/cm²],left pressure 2[N/cm²],left pressure 3[N/cm²],left pressure 4[N/cm²],left pressure 5[N/cm²],left pressure 6[N/cm²],left pressure 7[N/cm²],left pressure 8[N/cm²],left pressure 9[N/cm²],left pressure 10[N/cm²],left pressure 11[N/cm²],left pressure 12[N/cm²],left acceleration X[g],left acceleration Y[g],left acceleration Z[g],left total force[N],left center of pressure X[mm],left center of pressure Y[mm],right pressure 0[N/cm²],right pressure 1[N/cm²],right pressure 2[N/cm²],right pressure 3[N/cm²],right pressure 4[N/cm²],right pressure 5[N/cm²],right pressure 6[N/cm²],right pressure 7[N/cm²],right pressure 8[N/cm²],right pressure 9[N/cm²],right pressure 10[N/cm²],right pressure 11[N/cm²],right pressure 12[N/cm²],right acceleration X[g],right acceleration Y[g],right acceleration Z[g],right total force[N],right center of pressure X[mm],right center of pressure Y[mm]
0.02,1.0,0.5,0.5,0.5,1.0,0.0,0.0,2.75,0.5,0.75,1.0,0.25,0.25,-0.55,-0.48,1.02,139.08,2.3,-4.9,1.0,0.25,0.75,0.75,2.5,1.0,0.25,1.0,0.75,1.75,1.5,0.75,1.75,-0.67,0.64,1.02,121.44,-0.9,-13.3
0.04,1.0,0.5,1.0,0.75,1.0,0.0,0.0,2.75,0.5,1.0,1.0,0.25,0.0,-0.73,0.58,1.45,140.45,4.5,1.1,1.0,0.25,0.25,0.75,1.25,0.75,0.75,1.0,0.75,1.5,1.5,0.5,1.5,-0.17,0.52,1.14,114.18,-1.5,-19.5
0.06,1.25,0.5,0.75,0.75,1.75,0.0,0.0,2.75,0.5,0.75,1.25,0.25,0.0,-0.86,1.02,1.33,146.04,4.3,6.0,0.25,0.0,0.0,0.0,0.0,0.75,0.5,1.0,0.75,1.75,1.5,0.75,1.25,0.27,0.64,0.64,97.61,3.7,-58.7
0.08,2.75,0.5,0.75,2.0,1.5,0.0,0.0,2.75,0.5,1.0,1.0,0.25,0.25,-0.61,0.58,1.45,166.39,8.1,17.4,1.0,0.25,0.0,0.5,0.0,1.0,0.5,1.0,0.75,2.0,1.5,1.0,1.5,-0.17,0.58,0.77,97.06,0.4,-39.6
0.1,3.25,0.5,1.0,2.75,1.75,0.0,0.0,2.75,0.5,0.75,1.5,0.25,0.5,-0.23,0.64,2.14,194.52,9.8,19.7,1.0,0.25,1.0,0.5,1.75,0.75,0.25,1.0,0.75,1.75,1.5,1.0,1.5,-0.42,0.39,1.08,113.59,-2.5,-18.5
0.12,4.5,0.75,2.25,4.75,3.25,0.0,0.0,2.75,0.5,0.75,1.0,0.25,0.5,-0.48,0.39,1.08,246.33,12.5,35.8,1.0,0.25,1.0,0.5,1.75,1.25,0.25,1.0,0.75,1.75,1.25,1.0,1.5,-0.3,0.27,1.27,133.02,-1.5,-15.6
0.14,5.5,0.5,2.5,7.0,5.25,0.75,0.0,2.75,0.0,0.75,1.0,0.25,0.5,-0.05,0.2,1.83,308.79,11.6,42.2,1.0,0.25,0.75,0.5,2.5,0.75,0.25,1.0,0.75,1.75,1.25,1.0,1.5,-0.23,0.2,1.2,156.07,-1.3,-14.3
0.16,5.5,1.5,0.0,9.0,0.0,1.5,0.0,2.5,0.25,0.75,1.0,0.25,0.5,-0.11,0.14,1.08,346.38,12.4,40.8,1.0,0.25,0.0,0.5,0.0,1.0,0.0,0.75,0.75,1.75,1.25,1.0,1.5,-0.23,0.14,1.2,156.06,0.7,-39.4
0.18,5.75,1.75,0.0,5.5,0.0,0.25,1.0,2.75,0.0,0.0,1.0,0.0,0.25,-0.3,0.14,1.39,341.8,15.9,48.2,1.0,0.25,0.5,0.5,2.25,0.75,0.25,1.0,0.5,1.75,1.25,0.75,1.5,-0.23,0.02,1.27,163.18,-0.3,-15.1
0.2,5.75,1.75,4.0,9.0,7.75,3.25,1.75,2.75,0.0,0.75,0.25,0.25,0.0,-0.23,0.2,1.39,421.39,10.7,50.5,1.0,0.25,0.75,0.5,1.75,1.25,0.25,1.0,0.75,2.5,1.5,1.0,1.5,0.02,-0.05,1.33,170.87,0.0,-21.2
0.22,6.0,1.75,5.25,9.25,8.25,3.5,2.75,4.25,2.25,1.0,2.0,1.0,1.25,-0.11,0.14,1.08,566.83,9.9,32.1,1.0,0.25,0.75,0.5,2.25,1.0,0.25,1.0,0.5,1.75,1.25,0.75,1.5,0.14,-0.05,1.2,178.68,-0.6,-12.6
0.24,5.5,1.75,5.5,9.0,8.25,3.5,3.0,4.5,3.25,1.5,3.25,1.25,1.25,-0.11,0.08,1.02,737.82,9.5,25.5,1.0,0.25,0.75,0.5,1.75,0.75,0.25,1.0,0.75,1.75,1.25,1.0,1.5,0.14,0.02,1.14,181.26,-1.6,-19.0
0.26,5.5,1.75,4.75,8.25,8.25,3.75,3.0,5.0,3.5,2.0,3.5,1.25,1.25,-0.11,0.02,1.02,865.38,8.3,22.1,1.0,0.25,0.5,0.75,2.25,0.75,0.25,1.0,1.0,2.25,1.25,0.75,1.5,0.2,0.02,1.08,188.88,-0.4,-16.7
0.28,5.25,1.75,3.25,8.0,8.0,3.5,3.0,5.0,3.25,2.25,3.75,1.25,1.25,-0.11,0.08,0.95,916.38,7.3,19.4,1.0,0.25,0.75,0.5,2.5,1.25,0.5,1.0,0.75,1.25,1.25,1.25,1.25,0.33,-0.05,1.08,193.27,-1.8,-9.9
0.3,4.5,1.25,3.75,7.0,7.25,3.5,2.75,5.0,3.25,2.5,3.5,1.25,1.25,-0.17,0.08,0.95,886.54,6.9,16.3,1.0,0.25,0.75,0.5,2.5,0.75,0.25,1.0,0.75,1.5,1.25,0.25,1.25,0.33,-0.11,1.08,189.91,-1.5,-5.2
0.32,4.5,1.0,4.0,6.75,7.25,3.25,2.25,4.75,3.0,2.25,3.5,1.5,1.25,-0.11,0.08,0.95,831.83,7.3,16.1,1.0,0.25,0.5,0.5,2.5,0.75,0.25,1.0,0.75,1.5,1.25,1.0,1.0,0.39,-0.11,1.02,184.97,-1.5,-10.7
0.34,4.25,0.75,2.5,6.25,6.75,2.75,2.25,4.5,2.75,2.25,3.5,1.75,1.25,-0.11,0.08,0.95,759.57,6.4,12.1,1.0,0.25,0.75,0.5,2.5,0.75,0.25,1.0,0.75,1.5,1.25,1.0,1.0,0.45,-0.23,1.02,181.95,-2.2,-9.2
0.36,3.0,0.5,2.25,4.5,6.0,2.75,2.0,4.5,2.75,2.5,3.5,2.25,1.25,-0.11,0.14,0.95,670.15,4.8,3.0,1.0,0.25,1.0,0.5,2.25,1.25,0.25,1.0,0.5,1.5,1.25,1.0,1.0,0.64,-0.36,0.95,182.47,-2.0,-7.1
0.38,2.75,0.5,1.25,4.5,5.75,2.5,1.75,4.5,2.75,2.5,3.75,2.5,1.25,-0.11,0.08,0.95,589.52,3.8,-1.1,1.0,0.25,0.75,0.0,2.5,0.75,0.25,1.0,0.75,2.0,1.25,1.0,0.75,0.7,-0.36,0.95,181.52,-1.2,-12.7
0.4,2.75,0.5,1.25,3.25,5.5,2.5,1.5,4.5,2.75,2.5,4.75,2.5,1.25,-0.11,0.08,0.95,527.16,3.5,-5.9,1.0,0.25,0.75,0.5,1.75,0.75,0.25,1.0,0.75,1.5,1.25,1.0,1.0,0.64,-0.42,0.95,178.82,-2.7,-13.8
0.42,2.0,0.5,2.0,2.75,5.0,2.75,1.5,5.0,2.75,3.5,5.0,3.25,2.5,-0.11,0.08,0.95,489.21,2.2,-16.2,1.0,0.25,0.75,0.5,1.75,0.75,0.25,1.0,0.75,1.5,1.25,1.0,1.0,0.58,-0.48,0.89,172.22,-2.7,-13.8
0.44,2.0,0.5,1.5,2.75,5.0,2.75,1.25,5.25,2.75,4.25,5.25,3.5,2.5,-0.11,0.08,0.95,459.87,1.2,-19.6,1.0,0.25,0.75,0.5,1.75,0.5,0.25,1.0,0.75,1.0,1.25,0.75,1.0,0.58,-0.61,0.89,164.14,-3.9,-9.8
0.46,2.0,0.5,1.25,2.75,5.0,2.75,1.25,5.5,2.75,4.5,5.5,3.75,3.75,-0.17,0.08,0.95,469.61,0.4,-24.2,1.0,0.25,0.5,0.5,1.75,0.5,0.25,1.0,0.75,1.5,1.25,1.0,0.75,0.45,-0.55,0.89,159.99,-2.8,-14.4
0.48,1.25,0.5,1.5,2.75,5.0,3.25,1.25,6.0,2.75,5.5,5.75,4.0,3.75,-0.17,0.08,0.95,497.29,-0.5,-27.2,1.0,0.25,0.75,0.5,2.5,1.25,0.25,1.0,0.75,1.75,1.25,1.0,0.75,0.33,-0.36,0.95,166.7,-1.3,-7.0
0.5,1.5,0.5,2.0,2.75,5.25,3.25,0.75,6.25,2.25,5.5,6.0,4.25,4.0,-0.17,0.08,0.95,533.74,-0.3,-26.4,1.0,0.25,0.75,0.5,2.5,0.75,0.25,1.0,0.75,1.5,1.25,1.0,0.75,0.2,-0.23,0.83,171.22,-2.6,-7.1
0.52,1.25,0.5,1.5,2.75,4.5,3.25,0.75,6.5,2.25,5.5,5.75,4.25,5.0,-0.17,0.08,0.95,564.37,-1.3,-31.5,1.0,0.25,0.75,0.5,2.25,0.5,0.25,1.0,0.75,1.25,1.25,1.0,0.75,-0.05,-0.17,0.7,173.14,-3.6,-8.0
0.54,1.25,0.5,1.25,2.75,5.0,3.5,0.75,6.5,1.75,5.5,5.75,4.5,5.0,-0.17,0.08,0.95,588.97,-1.8,-30.9,1.0,0.25,0.75,0.5,2.5,0.5,0.25,1.0,0.75,1.5,1.25,0.75,0.75,-0.17,-0.23,0.95,173.75,-2.9,-5.8
0.56,1.25,0.5,1.25,2.75,4.0,3.5,0.75,6.75,1.75,6.0,5.5,4.5,5.0,-0.17,0.08,0.95,603.07,-2.1,-33.5,1.0,0.25,0.25,0.5,2.25,0.5,0.25,1.0,0.5,1.5,1.25,1.0,0.75,-0.36,-0.36,0.83,168.67,-1.4,-12.1
0.58,1.25,0.5,0.75,2.5,4.75,3.5,0.5,6.75,1.75,6.5,5.75,4.5,5.0,-0.17,0.08,0.95,618.28,-2.9,-34.3,1.0,0.25,0.75,0.5,2.25,0.75,0.25,1.0,0.75,1.75,1.25,1.0,0.75,-0.61,-0.3,0.7,169.83,-2.3,-9.9
0.6,1.25,0.5,0.5,1.75,4.5,3.5,0.75,6.75,1.75,6.5,5.5,4.5,5.25,-0.17,0.08,0.95,622.03,-3.5,-37.2,1.0,0.25,0.75,1.75,2.5,1.5,0.25,0.75,0.75,1.0,1.25,1.0,0.75,0.02,-0.05,0.52,179.5,-3.7,4.2
0.62,1.25,0.5,0.25,2.0,4.25,3.5,0.5,6.75,1.5,6.5,5.5,4.5,5.75,-0.17,0.14,0.95,621.45,-4.0,-38.8,1.5,0.25,1.0,2.25,3.0,3.25,0.5,1.0,0.75,1.25,1.25,1.0,0.75,-0.05,0.2,0.7,209.51,-2.3,11.9
0.64,1.25,0.5,0.5,1.25,4.0,3.5,0.5,7.0,1.25,6.5,5.75,4.5,6.0,-0.17,0.08,0.95,616.05,-4.2,-41.3,2.0,0.5,1.75,4.0,5.75,4.5,0.75,1.0,1.0,1.75,1.0,1.0,1.25,0.14,0.14,1.02,270.32,-2.8,21.2
0.66,1.0,0.5,1.25,0.75,3.5,3.5,0.5,7.0,1.25,6.5,0.0,5.0,6.0,-0.17,0.08,0.95,573.3,-6.0,-38.7,2.5,1.0,3.75,4.25,6.0,5.0,1.75,2.5,1.25,3.5,2.0,1.25,1.5,0.14,0.14,0.95,366.5,-3.9,14.3
0.68,1.0,0.5,0.75,1.0,3.25,3.5,0.5,7.0,1.25,7.0,5.5,5.25,6.25,-0.17,0.08,0.95,575.01,-4.4,-45.7,2.75,1.0,3.75,5.0,6.75,5.5,2.0,3.25,1.75,4.75,3.25,2.5,2.5,0.08,0.08,1.02,511.52,-3.1,3.7
0.7,1.0,0.5,0.5,0.75,4.0,3.5,0.5,7.25,1.25,7.25,0.0,5.25,6.5,-0.17,0.08,0.95,548.68,-7.1,-41.4,2.5,1.0,3.75,5.5,7.5,6.0,2.25,4.0,1.75,5.5,3.75,2.5,2.75,0.08,0.02,1.02,659.31,-2.2,1.8
0.72,1.0,0.5,0.5,0.75,3.25,3.25,0.25,7.25,1.25,7.25,0.0,5.25,6.5,-0.17,0.08,0.95,532.65,-7.2,-44.3,2.75,1.0,3.75,5.5,7.5,6.25,2.5,4.75,2.0,4.75,3.75,2.25,2.75,0.14,0.08,0.95,770.88,-2.3,3.4
0.74,0.25,0.5,0.75,0.75,2.75,3.25,0.25,7.25,1.0,7.25,5.25,5.25,6.75,-0.17,0.08,0.95,540.62,-5.7,-51.7,3.25,1.25,4.0,5.5,7.75,6.5,2.5,5.0,2.0,4.75,3.75,2.0,2.75,0.14,0.08,0.95,848.62,-2.5,5.9
0.76,0.25,0.5,0.5,0.5,2.5,2.75,0.25,7.25,1.0,7.25,5.75,5.25,7.25,-0.17,0.08,0.95,560.81,-5.8,-55.8,3.5,1.25,4.0,5.5,7.75,7.0,2.5,5.0,2.0,4.75,3.75,2.25,2.75,0.14,0.08,0.95,894.7,-2.5,6.0
0.78,0.0,0.5,0.75,0.5,2.25,2.75,0.0,7.25,0.75,7.25,6.0,5.25,7.25,-0.17,0.08,0.95,577.4,-5.9,-57.2,3.5,1.25,4.0,5.5,8.0,7.0,2.5,5.25,2.0,4.75,3.75,2.0,2.75,0.14,0.08,0.95,919.1,-2.3,6.6
0.8,0.0,0.5,0.75,0.5,1.75,2.75,0.0,7.5,0.75,7.25,6.0,5.25,7.25,-0.23,0.08,0.95,587.8,-6.0,-58.7,3.5,1.25,4.75,5.5,8.25,7.0,2.5,5.25,2.0,4.75,3.5,2.0,2.75,0.14,0.08,0.95,932.67,-2.8,8.0
0.82,0.0,0.5,0.0,0.5,2.0,2.5,0.0,7.5,0.5,7.5,5.75,5.25,7.25,-0.23,0.08,0.95,589.72,-7.0,-60.9,3.75,1.0,4.0,5.5,8.25,7.0,2.5,5.25,1.75,5.5,3.5,2.0,2.75,0.14,0.08,0.95,927.04,-2.1,6.2
0.84,0.0,0.5,0.5,0.5,0.75,2.0,0.0,7.5,0.5,7.5,5.5,5.25,7.5,-0.23,0.08,0.95,579.36,-6.5,-65.0,3.5,1.25,4.0,5.5,8.0,7.0,2.25,5.25,1.75,5.0,3.5,1.75,2.75,0.14,0.08,0.95,901.64,-2.1,7.3
0.86,0.0,0.5,0.5,0.5,0.75,2.0,0.0,7.5,0.5,8.0,5.25,5.25,7.75,-0.23,0.08,0.95,574.65,-6.8,-65.4,3.25,1.25,4.0,5.5,8.25,7.0,2.25,5.25,1.75,5.5,3.5,1.75,2.75,0.14,0.08,0.95,869.88,-1.7,6.3
0.88,0.0,0.5,0.75,0.5,2.0,2.0,0.0,7.5,0.5,8.0,5.25,5.25,7.75,-0.23,0.08,0.95,581.37,-6.4,-60.3,3.0,1.0,3.75,5.5,8.0,7.0,2.0,5.25,1.5,5.5,3.5,1.5,2.75,0.14,0.08,0.95,825.06,-1.2,5.6
0.9,0.0,0.5,0.25,0.5,1.75,1.5,0.0,7.5,0.5,8.0,5.0,5.25,7.75,-0.23,0.02,0.95,582.89,-6.9,-63.8,2.5,1.0,3.75,5.5,8.0,7.0,2.0,5.5,1.5,5.0,3.5,2.0,2.75,0.14,0.08,0.95,787.8,-1.0,4.2
0.92,0.0,0.5,0.5,0.5,0.75,1.5,0.0,7.5,0.5,8.0,5.0,5.0,8.0,-0.23,0.08,1.02,573.95,-6.9,-66.6,2.0,1.0,3.75,5.25,8.0,7.25,1.75,6.0,1.5,4.5,3.5,1.75,2.75,0.14,0.08,0.95,754.82,-0.4,4.1
0.94,0.0,0.5,0.25,0.5,1.5,1.5,0.0,7.25,0.5,8.0,5.0,4.5,8.25,-0.3,0.02,1.08,569.72,-7.3,-64.6,2.0,1.25,2.75,5.0,8.0,7.5,1.25,6.0,1.5,5.5,3.5,1.75,3.25,0.14,0.08,0.95,737.26,1.1,0.4
0.96,1.0,0.5,0.0,0.5,0.75,1.5,0.0,7.0,0.5,7.25,3.75,4.25,8.0,-0.36,0.02,1.02,541.56,-7.0,-63.0,1.75,1.0,2.75,4.25,7.75,7.5,1.25,6.0,1.5,6.25,3.5,2.0,3.5,0.14,0.08,0.95,721.79,1.8,-4.0
0.98,1.0,0.5,0.0,0.5,1.5,0.75,0.0,6.75,0.5,6.5,3.5,3.5,7.75,-0.42,0.02,1.14,501.07,-6.8,-60.4,1.75,1.0,2.0,3.5,7.75,7.25,1.25,6.25,1.5,6.25,3.5,2.0,3.5,0.14,0.08,0.95,700.91,2.8,-6.5
1.0,1.0,0.5,0.0,0.5,1.0,0.75,0.0,6.25,0.5,5.5,3.25,2.5,7.25,-0.48,0.02,1.33,448.58,-6.9,-59.9,1.25,1.0,1.0,3.25,7.75,7.5,1.25,6.75,1.5,6.5,3.5,2.0,3.5,0.14,0.08,0.95,677.86,4.5,-9.9
1.02,0.25,0.5,0.5,0.5,0.75,0.75,0.0,5.75,0.5,4.5,2.75,2.5,6.5,-0.48,0.08,1.45,392.53,-6.8,-61.0,1.25,0.75,1.25,3.25,7.75,7.25,1.25,6.75,1.25,6.5,3.5,2.5,3.5,0.14,0.08,0.95,659.49,4.2,-11.2
1.04,0.0,0.5,0.0,0.5,1.0,0.75,0.0,5.0,0.5,2.75,2.25,1.25,6.0,-0.55,0.08,1.33,329.96,-8.4,-59.4,1.0,1.0,1.0,3.25,7.75,7.25,1.25,6.75,1.25,6.5,3.5,2.5,3.75,0.14,0.08,0.95,647.91,4.6,-12.1
1.06,0.0,0.5,0.0,0.5,0.75,0.75,0.0,4.25,0.5,2.5,1.25,1.25,4.25,-0.42,0.08,0.89,271.74,-8.6,-55.7,1.0,1.0,1.0,3.25,7.5,7.25,1.0,7.25,1.25,7.0,3.5,2.75,4.5,0.14,0.08,0.95,652.48,5.0,-15.5
1.08,0.25,0.5,0.25,0.5,1.25,0.5,0.0,4.25,0.5,1.25,1.0,1.0,2.5,-0.3,0.08,0.83,214.24,-5.9,-37.9,1.0,0.75,1.0,3.25,7.5,7.25,0.75,7.25,1.25,7.0,3.5,2.75,4.5,0.14,0.08,0.95,658.05,5.2,-16.3
1.1,1.0,0.5,0.0,0.5,0.75,0.25,0.0,4.0,0.25,1.0,1.0,0.5,2.5,0.02,1.08,0.52,161.67,-4.8,-34.2,1.25,0.75,1.0,3.25,7.5,7.5,0.75,7.25,1.25,7.5,3.5,2.5,5.0,0.14,0.08,0.95,671.71,5.3,-16.6
1.12,1.0,0.5,0.5,0.5,1.25,0.0,0.0,3.25,0.0,1.0,0.5,0.5,1.5,-0.42,1.39,0.33,118.29,-1.7,-16.8,1.0,1.0,1.25,2.75,7.5,7.25,0.75,7.5,1.25,7.75,3.75,2.5,5.0,0.14,0.08,0.95,683.99,5.4,-17.8
1.14,1.0,0.5,0.0,0.5,0.75,0.25,0.0,3.25,0.0,1.0,0.0,0.5,1.5,0.08,1.08,1.02,87.64,-5.0,-21.1,1.0,0.75,1.0,2.5,7.25,7.25,0.75,7.5,1.25,8.0,4.25,2.5,5.0,0.14,0.08,0.95,690.66,5.7,-20.5
1.16,1.0,0.0,0.5,0.75,0.75,0.0,0.0,3.25,0.25,0.5,1.0,0.25,1.25,-0.11,0.7,1.14,72.05,-0.1,-20.8,1.0,0.75,1.0,2.0,6.75,7.25,0.75,7.5,1.25,8.0,3.75,2.75,5.5,0.14,0.08,0.95,687.06,6.2,-23.1
1.18,1.25,0.5,0.0,0.0,0.75,0.25,0.0,3.25,0.25,1.0,0.5,0.5,1.25,-0.36,0.7,0.77,67.67,-3.7,-23.4,1.0,0.5,0.75,2.0,5.75,7.0,0.75,7.5,1.25,8.0,3.75,3.25,5.75,0.14,0.08,0.95,673.63,6.4,-27.8
1.2,0.25,0.0,0.25,0.0,1.75,0.0,0.0,2.75,0.0,0.75,0.75,0.5,0.75,-0.36,0.52,0.95,65.67,-5.6,-26.2,1.0,0.5,0.75,1.75,5.75,6.75,0.75,7.5,1.25,8.5,4.75,4.0,6.0,0.14,0.08,0.95,677.35,6.0,-31.6
1.22,1.0,0.5,0.5,0.5,1.0,0.0,0.0,2.75,0.0,0.25,1.0,0.25,1.25,-0.36,0.39,0.89,74.82,0.9,-11.0,1.0,0.25,0.75,0.75,5.75,6.5,0.75,7.5,1.0,8.75,5.5,4.75,6.5,0.14,0.08,0.95,691.13,6.3,-37.3
1.24,0.25,0.0,0.25,0.0,0.0,0.0,0.0,3.0,0.0,1.0,0.75,0.5,1.25,-0.36,0.33,1.02,77.96,-7.6,-57.7,1.0,0.25,0.5,0.5,4.25,6.0,0.5,7.5,1.0,8.75,5.5,5.25,7.0,0.14,0.08,0.95,701.45,6.6,-44.0
1.26,1.0,0.5,0.0,0.5,0.0,0.0,0.0,1.5,0.0,1.0,0.0,0.5,0.5,-0.48,0.08,1.2,73.9,0.8,-13.1,1.0,0.25,0.25,0.5,3.0,5.25,0.5,7.0,0.75,8.5,5.5,5.25,7.75,0.14,0.14,0.95,694.06,6.8,-49.9
1.28,1.0,0.5,0.75,0.5,0.5,0.0,0.0,3.25,0.0,1.0,1.0,0.25,1.0,-0.3,0.02,0.95,91.57,0.4,-16.7,0.75,0.25,0.0,0.5,2.75,4.5,0.5,6.75,0.75,8.75,5.5,5.5,8.0,0.08,0.08,0.95,679.65,7.0,-54.3
1.3,1.0,0.5,1.25,0.5,0.0,0.0,0.0,2.75,0.0,1.0,1.0,0.5,1.25,-0.36,0.02,0.83,108.56,3.3,-20.4,1.0,0.25,0.0,0.5,2.75,3.5,0.5,6.0,0.75,8.5,5.5,5.75,8.0,0.08,0.08,1.02,655.3,6.1,-55.9
1.32,1.0,0.5,0.75,0.25,0.0,0.0,0.0,2.5,0.0,1.0,0.5,0.25,1.25,-0.36,-0.11,0.89,117.09,0.6,-21.6,1.0,0.25,0.0,0.5,2.5,3.25,0.25,5.5,0.75,8.0,4.75,6.0,8.25,0.14,0.08,1.14,627.61,6.1,-57.7
1.34,1.0,0.5,0.75,0.5,0.0,0.0,0.0,3.25,0.0,1.0,0.25,0.5,1.0,-0.36,-0.17,0.95,122.67,0.0,-19.1,1.0,0.25,0.0,0.5,2.75,3.0,0.25,5.0,0.75,7.75,4.0,5.75,8.5,0.2,0.08,1.14,597.27,6.3,-57.2
1.36,1.0,0.5,0.5,0.5,0.0,0.0,0.0,2.75,0.0,1.0,1.0,0.5,1.25,-0.55,-0.3,0.95,126.28,0.3,-27.4,1.0,0.25,0.0,0.5,2.75,2.75,0.25,4.0,0.75,7.5,3.5,5.5,8.5,0.27,-0.05,0.77,562.45,6.1,-57.6
1.38,1.0,0.5,0.25,0.5,0.0,0.0,0.0,2.5,0.25,1.0,0.0,0.5,1.25,-0.61,-0.36,0.95,121.97,-1.2,-24.4,1.0,0.25,0.0,0.5,2.5,2.0,0.25,4.0,0.75,7.25,3.5,5.5,8.5,0.2,0.02,0.89,530.2,5.8,-60.1
1.4,1.0,0.5,0.25,0.5,0.0,0.0,0.0,2.5,0.25,1.0,0.0,0.5,1.25,-0.73,-0.3,0.89,117.64,-1.2,-24.4,1.0,0.25,0.0,0.5,2.5,2.25,0.25,3.25,0.75,7.25,3.5,5.75,8.25,0.33,-0.05,1.02,503.86,5.5,-60.0
1.42,1.0,0.5,0.5,0.5,0.0,0.0,0.0,2.5,0.0,1.0,0.0,0.5,1.25,-0.86,-0.3,0.83,115.76,-0.3,-21.1,1.0,0.25,0.0,0.5,2.5,2.0,0.5,2.75,0.5,7.0,3.5,5.75,9.0,0.33,-0.11,0.89,486.56,5.3,-61.7
1.44,1.0,0.5,0.5,0.5,0.0,0.0,0.0,3.25,0.0,1.0,0.25,0.25,0.25,-0.98,-0.23,0.77,113.97,-0.1,-9.5,1.0,0.25,0.0,0.5,2.5,1.75,0.25,2.5,0.75,7.0,3.25,5.75,9.0,0.45,-0.05,0.95,472.54,5.2,-62.6
1.46,1.0,0.5,1.0,0.5,0.0,0.0,0.0,2.75,0.5,1.0,1.0,0.25,0.75,-1.48,0.2,-0.3,119.81,3.6,-16.3,1.0,0.25,0.0,0.5,2.5,1.5,0.25,2.5,0.75,7.25,2.75,6.0,9.25,0.27,-0.23,0.52,468.38,5.4,-63.8
1.48,1.0,0.5,0.75,0.5,0.0,0.0,0.0,2.25,0.5,1.0,1.25,0.25,1.0,-0.48,-0.36,-0.05,126.09,3.5,-21.5,0.75,0.25,0.0,0.5,2.5,1.25,0.25,2.5,0.75,7.5,3.0,5.75,10.0,0.27,-0.23,0.83,474.12,5.8,-66.4
1.5,1.0,0.5,0.75,0.5,0.0,0.0,0.0,2.5,0.5,0.75,0.0,0.25,1.25,-0.98,0.02,0.58,126.32,1.8,-15.1,1.0,0.25,0.0,0.25,2.5,0.25,0.25,2.5,0.75,7.25,2.75,5.75,10.5,0.45,-0.11,0.77,478.09,5.4,-69.5
1.52,1.0,0.5,0.75,0.5,0.75,0.0,0.0,2.5,0.5,1.0,0.0,0.25,1.0,-1.36,-0.8,1.7,126.26,1.2,-7.3,1.0,0.25,0.0,0.5,2.5,1.0,0.25,2.5,0.5,7.5,2.75,6.0,10.5,0.52,-0.17,0.83,488.49,5.6,-67.1
1.54,1.0,0.5,0.75,0.5,0.0,0.0,0.0,2.25,0.5,1.0,0.0,0.25,1.25,-1.05,0.39,1.33,124.51,1.8,-16.2,1.0,0.5,0.0,1.0,2.5,0.5,0.25,2.5,0.5,7.5,2.75,6.0,11.0,0.33,-0.17,1.02,502.75,5.1,-66.0
1.56,1.0,0.5,0.75,0.5,0.0,0.0,0.0,2.5,0.5,0.75,0.0,0.25,1.25,0.52,0.45,0.83,123.41,1.8,-15.1,1.0,0.0,0.0,0.5,2.5,0.5,0.25,2.5,0.5,7.5,2.75,5.75,11.5,0.33,-0.42,0.52,514.63,5.9,-70.5
1.58,1.0,0.5,1.25,0.5,0.0,0.0,0.0,2.5,0.5,0.75,1.25,0.25,0.25,0.2,0.39,1.2,124.28,7.0,-7.8,1.0,0.0,0.0,0.5,2.5,1.25,0.25,2.5,0.75,7.75,2.75,5.75,11.5,0.45,-0.23,0.83,529.15,6.1,-68.3
1.6,1.25,0.5,0.75,0.5,0.0,0.0,0.0,2.75,0.5,0.75,0.25,0.25,0.5,0.7,0.27,1.14,124.17,3.9,-5.2,1.0,0.0,0.0,0.5,2.5,0.75,0.25,2.5,0.5,7.75,2.75,6.0,12.0,0.52,-0.3,0.83,542.12,6.1,-70.7
1.62,0.25,0.5,0.75,0.5,0.0,0.0,0.0,2.75,0.5,1.0,0.75,0.25,1.25,-0.05,-0.17,0.89,125.63,-1.1,-31.9,1.0,0.0,0.0,0.5,2.5,1.0,0.25,2.5,0.5,7.75,3.0,6.0,12.0,0.64,-0.3,0.52,553.94,6.1,-70.1
1.64,1.0,0.5,0.5,0.5,0.0,0.0,0.0,2.5,0.5,0.0,1.25,0.25,1.0,-0.67,-0.67,0.77,122.81,4.1,-18.0,0.75,0.0,0.0,0.5,2.5,0.5,0.25,2.5,0.5,7.75,3.0,6.25,12.0,0.7,-0.3,0.7,559.67,6.0,-72.7
1.66,0.0,0.5,0.5,0.5,0.0,0.0,0.0,2.5,0.0,1.0,1.25,0.5,1.0,-0.92,-0.17,0.45,120.75,-2.4,-40.9,0.75,0.0,0.0,0.25,2.5,1.25,0.25,2.5,0.5,7.75,3.25,6.0,12.0,0.58,-0.67,0.64,565.36,6.5,-71.4
1.68,1.0,0.5,1.0,0.5,0.0,0.0,0.0,2.5,0.25,1.0,0.25,1.25,1.5,-0.73,0.02,0.89,125.7,2.6,-27.7,1.0,0.25,0.0,0.5,2.5,1.0,0.25,2.5,0.5,7.5,3.25,5.75,12.0,1.14,-1.86,0.45,565.89,5.8,-68.6
1.7,1.0,0.5,1.0,0.0,0.0,0.0,0.0,2.75,0.5,1.0,1.0,2.25,2.5,-0.42,-0.11,0.83,147.28,1.4,-47.8,1.0,0.25,0.0,0.5,2.5,0.5,0.25,2.5,0.5,6.75,2.75,5.0,10.5,1.33,-2.23,0.14,538.26,5.6,-67.0
1.72,0.75,0.5,0.5,0.5,0.0,0.0,0.0,2.75,0.5,1.25,0.5,2.75,3.75,-0.11,-0.23,0.89,175.98,-1.6,-57.8,1.0,0.25,0.0,0.5,2.5,0.75,0.25,2.5,0.25,5.75,2.5,3.75,8.75,1.77,-2.8,0.02,482.55,5.8,-61.6
1.74,1.0,0.5,0.75,0.5,0.0,0.0,0.0,2.5,0.25,1.25,0.5,3.5,5.25,-0.05,-0.05,1.27,209.87,-1.1,-61.6,1.0,0.5,0.0,0.25,1.0,1.0,0.25,2.5,0.5,3.25,1.5,2.25,7.5,1.33,-1.98,0.7,391.17,6.2,-60.7
1.76,1.0,0.5,0.5,0.5,0.0,0.0,0.0,2.5,0.25,1.5,1.0,3.5,5.0,-0.3,-0.17,0.89,234.15,-1.4,-63.4,1.0,0.25,0.0,0.0,1.25,0.75,0.0,1.0,0.5,3.0,1.25,1.25,3.75,0.7,-0.61,1.58,292.31,5.0,-50.7
1.78,1.0,0.5,1.0,0.5,0.0,0.0,0.0,3.0,0.25,1.75,1.75,3.75,6.0,-0.36,-0.23,0.77,263.37,-1.0,-63.2,1.0,0.25,0.0,0.5,0.0,0.75,0.0,1.0,0.5,2.25,0.0,1.25,3.25,1.89,-0.23,0.77,210.27,4.8,-52.1
1.8,1.0,0.5,0.5,0.0,0.0,0.0,0.0,2.5,0.25,2.25,1.75,4.5,6.0,-0.23,-0.17,1.02,282.1,-2.1,-72.5,0.0,0.0,0.0,0.0,2.25,0.25,0.25,1.0,0.5,2.25,1.25,1.25,2.75,1.08,0.58,1.08,149.43,5.9,-51.3
1.82,1.0,0.25,0.5,0.5,0.0,0.0,0.0,1.5,0.0,2.5,0.5,5.25,6.25,-0.23,-0.23,0.83,292.43,-1.9,-75.4,0.75,0.25,0.0,0.75,0.0,0.75,0.0,0.75,0.25,2.0,0.0,1.0,1.5,1.52,0.45,0.77,92.11,3.5,-38.1
1.84,1.0,0.5,0.5,0.5,0.0,0.0,0.0,1.0,0.0,2.5,2.5,5.75,7.25,-0.3,-0.23,0.95,310.63,-0.6,-76.6,1.0,0.25,0.0,0.5,2.5,0.5,0.25,1.0,0.5,1.25,1.25,1.0,2.0,0.52,0.58,0.77,79.65,0.6,-21.0
1.86,1.0,0.5,0.5,0.25,0.0,0.0,0.0,2.25,0.0,2.5,2.0,5.75,7.25,-0.17,-0.23,0.95,327.1,-1.9,-76.1,1.0,0.25,0.0,0.5,2.5,0.75,0.25,1.0,0.75,2.25,1.25,1.25,2.25,0.83,-0.05,0.52,88.22,1.9,-27.4
1.88,1.0,0.5,0.5,0.5,0.0,0.0,0.0,1.75,0.0,2.5,2.25,5.75,7.5,-0.23,-0.3,0.89,340.83,-1.4,-75.7,0.75,0.0,0.0,0.5,2.25,0.5,0.25,1.0,0.75,1.75,1.25,1.0,2.0,2.14,-0.48,0.64,99.72,1.9,-30.2
1.9,1.0,0.5,0.5,0.0,0.0,0.0,0.0,2.5,0.0,2.5,2.5,5.75,7.75,-0.48,-0.23,0.95,350.26,-2.3,-77.9,0.75,0.0,0.5,0.5,2.5,1.0,0.25,1.0,0.75,1.5,1.25,1.0,1.5,1.7,-0.3,-0.05,112.32,0.3,-18.1
1.92,1.0,0.5,0.5,0.25,0.0,0.0,0.0,2.25,0.0,2.5,2.0,6.0,7.75,-0.48,-0.23,0.89,353.03,-2.1,-77.2,1.0,0.25,0.0,0.25,1.75,0.75,0.25,1.0,0.75,1.75,1.25,1.0,1.75,0.58,-0.73,-0.3,121.98,1.4,-27.9
1.94,1.0,0.5,0.5,0.0,0.0,0.0,0.0,2.25,0.0,2.5,2.75,6.0,7.75,-0.42,-0.3,0.77,353.17,-1.9,-78.7,1.0,0.25,0.25,0.5,2.25,1.0,0.25,1.0,0.75,1.75,1.25,0.75,1.5,0.08,-1.11,-0.17,138.62,0.6,-16.2
1.96,1.0,0.5,0.5,0.25,0.0,0.0,0.0,2.0,0.0,2.5,2.75,6.25,8.25,-0.55,-0.3,0.83,355.96,-1.7,-78.6,1.0,0.25,0.25,0.5,2.25,0.75,0.25,1.0,0.5,1.75,1.25,1.0,1.5,-0.3,-0.92,0.39,151.86,0.2,-18.5
1.98,1.0,0.5,0.5,0.25,0.0,0.0,0.0,2.5,0.0,2.5,2.25,6.25,8.25,-0.36,-0.36,1.08,358.26,-2.2,-77.8,1.0,0.0,0.75,0.5,2.25,0.75,0.25,1.0,0.75,2.0,1.25,1.0,1.5,0.08,-0.8,0.7,170.71,-0.9,-19.2
2.0,0.75,0.5,0.5,0.5,0.0,0.0,0.0,2.0,0.0,2.5,2.25,6.0,8.0,-0.23,-0.61,0.89,354.35,-2.1,-78.2,1.0,0.25,0.75,0.5,1.75,1.0,0.25,1.0,0.25,1.75,1.25,1.0,1.5,1.64,-1.05,1.02,178.76,-0.7,-17.2
2.02,1.0,0.5,0.25,0.5,0.0,0.0,0.0,2.75,0.0,2.5,2.25,5.5,7.75,-1.8,-1.86,0.33,347.25,-2.7,-75.7,1.0,0.25,0.75,0.5,2.25,0.75,0.25,1.0,0.5,1.5,1.25,1.0,1.25,0.95,-0.92,0.77,181.71,-1.8,-12.2
2.04,1.0,0.5,0.25,0.5,0.0,0.0,0.0,2.75,0.0,2.5,1.75,4.5,7.25,-2.86,-2.73,-0.05,330.8,-3.3,-73.2,1.0,0.25,0.5,0.5,2.25,1.25,0.25,1.0,0.75,1.75,1.25,0.5,1.25,-0.11,-0.17,-0.3,181.45,0.1,-9.9
2.06,1.0,0.5,0.25,0.5,0.0,0.0,0.0,2.25,0.0,1.75,1.75,3.5,5.75,-2.05,-2.61,-0.05,297.09,-2.2,-68.7,1.0,0.0,0.75,0.5,2.25,0.75,0.25,1.0,0.75,2.25,1.25,1.0,1.25,-0.23,0.27,-0.05,184.41,-0.8,-18.5
2.08,1.0,0.0,0.0,0.5,0.0,0.0,0.0,2.5,0.0,1.0,1.25,1.25,4.0,-0.98,-1.73,0.89,247.43,-4.1,-63.4,1.0,0.25,0.75,0.5,1.75,1.25,0.25,1.0,0.75,1.75,1.25,1.0,1.25,-0.55,0.52,0.14,182.02,-1.0,-15.2
2.1,1.0,0.5,0.0,0.5,0.0,0.0,0.0,0.0,0.25,1.0,0.0,1.25,1.25,-0.86,-0.11,1.33,173.52,5.0,-33.0,0.0,0.25,0.75,0.5,0.0,0.5,0.25,0.0,0.5,0.0,0.0,0.0,0.5,-1.23,0.64,-0.11,139.69,-10.7,14.8
2.12,1.0,0.5,0.25,0.25,0.0,0.0,0.0,2.5,0.0,1.0,0.25,0.75,1.5,-1.61,1.02,4.14,116.79,-2.0,-33.6,0.0,0.0,0.0,0.0,0.0,0.5,0.25,0.5,0.25,0.0,0.0,0.25,0.75,-1.55,-0.05,0.2,94.34,8.7,-51.5
2.14,1.0,0.5,0.25,0.0,0.0,0.0,0.0,2.5,0.25,1.0,0.5,0.5,1.25,-1.55,0.39,2.2,77.16,-1.7,-33.2,0.0,0.0,0.0,0.0,0.0,0.75,0.25,0.5,0.25,0.75,0.0,0.0,0.75,-1.55,-1.05,0.02,51.76,12.9,-46.1
2.16,0.75,0.5,0.0,0.0,0.0,0.0,0.0,2.5,0.5,1.0,0.5,0.5,0.75,-0.17,-0.11,2.52,59.62,-3.1,-35.6,0.0,0.0,0.0,0.0,0.0,1.25,0.25,0.25,0.5,2.0,0.0,1.0,0.5,-0.42,-1.17,-0.3,44.07,9.1,-54.4
2.18,1.25,0.5,0.5,0.25,0.0,0.0,0.0,1.25,0.25,1.0,0.75,0.5,1.25,0.64,-0.48,2.52,53.74,4.3,-23.1,1.0,0.25,0.5,0.5,2.25,1.5,0.25,1.0,0.5,1.5,1.25,1.0,1.5,0.33,-1.11,-0.36,84.64,0.4,-13.1
2.2,1.0,0.5,0.25,0.5,0.0,0.0,0.0,2.5,0.25,1.0,0.75,0.5,1.5,0.08,0.02,0.77,61.74,-0.6,-31.1,1.0,0.25,0.75,0.5,2.5,1.25,0.25,1.0,0.75,1.75,1.25,1.0,1.25,0.58,-1.05,0.02,132.49,-0.7,-10.8
2.22,0.75,0.0,0.5,0.0,0.0,0.0,0.0,2.5,0.5,0.25,1.0,0.25,1.25,-1.92,0.14,-0.05,62.8,0.0,-39.7,0.75,0.25,0.75,0.5,2.5,0.75,0.25,1.0,0.5,1.75,1.25,1.0,1.25,0.33,-0.98,-0.05,164.77,-0.8,-14.0
2.24,0.0,0.5,0.0,0.5,0.0,0.0,0.0,1.25,0.25,0.0,0.0,0.25,1.25,-1.73,0.33,-0.42,51.8,-4.3,-35.6,0.75,0.0,0.75,0.5,0.25,1.0,0.25,0.0,0.0,0.0,0.0,0.0,0.0,0.39,-0.92,0.2,138.9,-13.2,58.8
2.26,0.0,0.0,0.25,0.0,0.0,0.0,0.0,1.0,0.0,0.0,0.0,0.25,0.25,-1.86,0.08,-0.48,30.79,-4.6,-44.6,0.0,0.0,0.0,0.0,0.0,1.5,0.0,0.0,0.75,1.5,0.0,0.75,0.0,0.39,-1.05,0.14,109.13,9.1,-39.8
2.28,0.0,0.0,0.25,0.0,0.0,0.0,0.0,1.25,0.0,0.0,0.0,0.25,0.0,-2.17,-0.55,-0.17,15.05,-5.0,-34.2,1.0,0.25,0.75,0.5,1.75,0.75,0.25,1.0,0.5,1.5,1.25,0.75,1.0,0.45,-0.92,0.08,110.98,-2.3,-11.2
2.3,0.0,0.0,0.25,0.0,0.0,0.0,0.0,1.0,0.0,0.0,0.0,0.25,0.25,-2.67,-0.8,0.27,8.01,-4.6,-44.6,1.0,0.25,0.75,0.5,2.5,0.5,0.25,0.75,0.5,1.5,1.25,1.0,1.0,0.33,-1.11,-0.36,133.72,-2.9,-8.9
2.32,1.0,0.5,0.75,0.5,0.0,0.0,0.0,2.0,0.0,0.0,0.0,0.25,1.25,-2.61,-0.8,1.02,34.52,4.5,-4.2,1.0,0.25,1.0,0.5,2.25,0.75,0.25,1.0,0.75,1.5,1.25,1.0,0.75,0.14,-0.98,-0.17,164.64,-3.5,-7.1
2.34,0.0,0.0,0.25,0.0,0.0,0.0,0.0,1.0,0.0,0.0,0.0,0.25,0.0,-1.3,-0.61,1.14,33.47,-3.1,-33.4,1.0,0.0,0.75,0.5,1.75,1.0,0.25,1.0,0.5,1.75,1.25,0.75,0.75,0.39,-0.98,0.2,182.17,-1.5,-11.9
2.36,0.0,0.0,0.25,0.0,0.0,0.0,0.0,1.0,0.0,0.0,0.0,0.25,0.0,-0.23,0.33,0.27,28.21,-3.1,-33.4,1.0,0.25,0.75,0.5,2.25,0.75,0.25,1.0,0.75,1.5,1.25,0.75,0.75,0.89,-1.3,0.58,185.88,-2.6,-6.5
2.38,1.0,0.5,0.25,0.5,0.0,0.0,0.0,1.0,0.25,0.75,0.0,0.25,0.5,0.14,0.83,0.2,36.2,5.5,0.0,1.0,0.25,0.75,0.5,1.75,1.0,0.25,0.75,0.25,1.5,1.25,1.0,1.0,1.08,-1.73,0.64,177.0,-2.1,-11.2
2.4,1.0,0.5,0.75,0.5,0.0,0.0,0.0,1.75,0.25,0.0,0.0,0.25,1.25,0.64,0.7,0.33,56.03,5.7,-4.1,1.0,0.25,0.75,0.5,1.75,0.75,0.25,1.0,0.5,1.5,1.25,1.0,1.0,0.89,-1.67,0.45,171.77,-2.5,-13.3
2.42,0.0,0.0,0.25,0.0,0.0,0.0,0.0,1.0,0.0,0.0,0.0,0.25,0.0,0.95,0.45,0.27,48.99,-3.1,-33.4,1.0,0.25,0.75,0.5,1.75,0.75,0.25,0.75,0.5,2.0,1.25,1.0,1.0,0.89,-1.11,0.39,169.04,-2.1,-15.4
2.44,1.0,0.5,0.75,0.25,0.0,0.0,0.0,2.25,0.5,1.0,0.0,0.5,0.5,2.27,-0.48,0.7,71.98,3.1,-12.1,0.0,0.25,1.0,0.0,2.25,0.75,0.25,1.0,0.5,1.75,1.25,0.75,1.0,0.45,-0.67,0.33,168.59,0.9,-20.2
2.46,1.0,0.5,0.75,0.5,0.0,0.0,0.0,2.5,0.5,1.0,1.0,0.5,1.0,1.2,-0.3,-1.11,98.63,2.9,-23.0,1.0,0.25,0.75,0.5,1.75,0.75,0.25,1.0,0.75,1.5,1.25,0.5,1.25,0.02,-0.11,0.08,172.0,-2.0,-11.9
2.48,1.0,0.25,0.75,0.5,0.0,0.0,0.0,2.5,0.5,0.75,0.0,0.5,1.25,0.83,-1.17,-0.73,119.24,1.6,-21.7,1.0,0.25,0.25,0.5,2.25,0.5,0.25,1.0,0.25,1.75,1.25,1.0,1.25,0.02,0.14,-0.11,174.57,-0.1,-17.2
2.5,1.0,0.5,1.0,0.5,0.0,0.0,0.0,2.0,0.25,0.75,0.0,0.25,0.25,0.7,-1.98,-0.42,123.96,6.7,5.5,0.0,0.0,0.75,0.0,1.25,0.0,0.25,1.0,0.0,0.25,1.25,0.5,1.0,0.08,0.27,-0.17,146.32,-1.7,-29.8
2.52,0.75,0.5,0.75,0.5,0.0,0.0,0.0,2.75,0.5,1.0,0.0,0.25,1.0,0.08,-1.98,0.02,129.01,0.2,-18.0,0.0,0.0,0.75,0.0,1.75,1.75,0.0,0.0,0.5,1.75,0.0,1.0,0.0,0.14,0.2,-0.11,124.72,3.5,-6.3
2.54,0.75,0.25,1.0,0.25,0.0,0.0,0.0,2.5,0.5,0.75,0.0,0.25,0.5,-0.98,-1.55,0.02,121.92,2.8,-12.5,0.0,0.0,0.75,0.0,2.25,0.5,0.25,0.25,0.0,0.0,0.0,0.0,0.0,0.39,-0.05,-0.11,94.4,-2.3,46.4
2.56,1.0,0.5,1.0,0.5,0.0,0.0,0.0,2.5,0.25,0.75,0.25,0.25,0.75,-1.05,-0.92,-0.23,120.97,4.0,-7.4,0.0,0.0,0.0,0.5,0.0,0.75,0.5,0.75,0.75,2.75,1.25,0.0,0.75,0.45,-0.42,0.02,92.03,5.6,-49.4
2.58,1.0,0.5,1.25,0.25,0.0,0.0,0.0,2.25,0.5,0.75,0.0,0.25,0.75,-1.11,0.08,-0.23,123.95,5.4,-5.1,1.0,0.25,0.75,0.25,2.25,0.75,0.25,0.75,0.5,2.5,1.25,1.0,0.75,0.64,-0.67,0.2,114.06,-1.1,-14.2
2.6,0.5,0.25,1.0,0.5,0.0,0.0,0.0,2.5,0.5,0.75,0.0,0.25,0.75,-0.92,0.45,-0.11,120.47,1.6,-17.1,1.0,0.25,1.0,0.5,1.5,0.75,0.25,1.0,0.5,1.5,1.25,0.75,1.0,0.89,-0.73,0.33,137.36,-3.3,-11.2
2.62,0.25,0.25,1.0,0.0,0.0,0.0,0.0,2.5,0.5,0.75,0.0,0.25,1.25,-0.42,0.14,-0.11,112.54,-1.8,-33.8,0.75,0.25,0.75,0.5,1.5,1.75,0.25,0.75,0.75,1.75,1.25,0.25,1.25,1.08,-0.73,0.39,156.44,0.5,-10.7
2.64,1.0,0.5,1.25,0.5,0.0,0.0,0.0,2.5,0.5,0.75,0.5,0.25,1.5,-0.05,-0.36,-0.05,120.22,3.8,-16.6,1.0,0.25,1.0,0.5,1.75,1.0,0.25,0.75,0.5,1.5,1.25,0.75,1.0,1.27,-0.86,0.39,165.43,-3.0,-8.1
2.66,0.75,0.25,0.75,0.5,0.0,0.0,0.0,2.5,0.5,0.75,0.0,0.25,1.25,0.27,-0.92,0.45,119.91,0.4,-22.5,1.0,0.75,1.0,0.25,1.75,0.5,0.25,1.0,0.5,1.75,1.25,1.0,1.0,1.2,-0.86,0.52,172.47,-3.4,-10.7
2.68,1.0,0.0,1.0,0.25,0.0,0.0,0.0,2.5,0.5,0.75,0.0,0.25,1.25,0.58,-0.86,0.52,115.46,1.7,-22.9,1.0,0.0,1.0,0.5,1.75,0.75,0.25,0.75,0.25,1.75,1.25,0.75,1.0,1.02,-0.98,0.52,171.06,-2.7,-12.3
2.7,1.0,0.5,1.0,0.25,0.0,0.0,0.0,2.5,0.5,0.75,0.0,0.25,1.0,0.64,-0.8,0.08,114.35,3.0,-11.9,1.0,0.25,0.75,0.5,1.75,0.5,0.25,0.75,0.5,1.25,1.25,1.0,1.25,0.83,-0.8,0.52,170.96,-3.5,-14.6
2.72,1.25,0.5,0.5,0.5,0.0,0.0,0.0,2.5,0.5,0.75,0.0,0.25,1.0,0.08,-0.55,0.08,116.06,2.1,-11.1,1.0,0.25,0.75,0.5,2.25,0.75,0.25,0.75,0.5,1.5,1.25,0.5,1.0,0.64,-0.67,0.39,172.78,-2.3,-5.2
2.74,1.25,0.0,0.75,0.25,0.0,0.0,0.0,2.5,0.25,0.75,0.0,0.25,1.0,-0.23,-0.36,0.27,111.97,1.7,-18.2,1.0,0.25,0.75,0.5,2.25,0.75,0.25,0.75,0.75,1.5,1.25,1.0,1.25,0.52,-0.48,0.33,179.28,-2.4,-12.2
2.76,1.25,0.5,0.75,0.5,0.0,0.0,0.0,2.0,0.5,0.75,0.0,0.25,0.25,-0.48,-0.05,0.52,108.4,6.7,5.0,1.0,0.5,0.75,0.75,1.75,0.75,0.25,0.75,0.5,1.5,1.25,0.75,1.25,0.45,-0.42,0.2,179.21,-2.9,-8.8
2.78,0.0,0.0,0.75,0.0,0.0,0.0,0.0,2.5,0.5,0.75,0.0,0.25,0.5,-0.61,-0.67,0.58,98.1,-4.3,-39.6,1.0,0.25,1.0,0.5,1.5,0.5,0.25,0.75,0.25,1.5,1.25,1.0,1.0,0.45,-0.36,0.27,174.74,-4.2,-13.2
2.8,0.75,0.25,1.0,0.0,0.0,0.0,0.0,2.5,0.5,0.75,0.0,0.25,1.0,-3.36,-1.98,1.45,95.74,1.0,-22.2,1.0,0.25,1.0,0.25,1.25,1.0,0.25,0.75,0.5,1.5,1.25,0.75,1.0,0.45,-0.36,0.27,164.99,-3.0,-13.0
2.82,0.25,0.25,0.25,0.0,0.0,0.0,0.0,1.25,0.25,0.25,0.0,0.25,0.0,-5.3,-1.05,0.33,74.44,0.5,-14.6,1.0,0.25,1.0,0.5,2.25,1.0,0.25,0.75,0.5,1.5,1.25,0.75,1.0,0.45,-0.42,0.33,164.3,-2.7,-5.1
2.84,1.0,0.5,0.5,0.5,0.0,0.0,0.0,2.5,0.5,0.75,0.0,0.25,0.5,-1.92,-0.67,-0.23,80.23,2.1,-7.4,1.0,0.25,1.0,0.5,1.75,1.0,0.25,0.75,0.5,1.5,1.25,1.0,0.75,0.52,-0.48,0.39,165.68,-3.5,-8.0
2.86,1.0,0.5,0.75,0.5,0.0,0.0,0.0,2.5,0.5,0.75,0.0,0.25,0.75,-0.61,0.27,0.27,86.09,2.8,-8.6,1.0,0.25,1.0,0.25,1.5,0.75,0.25,1.0,0.5,1.75,1.25,1.0,1.0,0.58,-0.61,0.45,166.84,-2.7,-16.3
2.88,0.75,0.5,1.0,0.5,0.0,0.0,0.0,2.25,0.5,0.75,0.0,0.25,0.5,-1.23,0.45,0.14,96.59,4.4,-4.8,1.0,0.25,1.0,0.5,1.5,0.75,0.25,0.75,0.25,1.5,1.25,1.0,1.0,0.58,-0.67,0.52,164.89,-3.7,-12.2
2.9,1.25,0.5,0.75,0.5,0.0,0.0,0.0,2.25,0.5,0.75,0.0,0.25,0.5,-1.23,0.7,-0.3,104.36,5.1,-0.5,1.0,0.25,1.0,0.5,1.75,0.75,0.25,0.75,0.5,1.75,1.25,1.0,1.0,0.64,-0.67,0.52,166.15,-3.3,-12.5
2.92,0.75,0.0,0.75,0.25,0.0,0.0,0.0,2.25,0.5,0.75,0.0,0.25,0.75,-0.61,0.33,-0.17,103.31,1.0,-23.0,1.0,0.25,1.0,0.5,1.25,1.25,0.25,0.75,0.75,1.25,1.25,1.0,1.0,0.64,-0.67,0.52,165.66,-3.5,-11.7
2.94,1.25,0.5,1.0,0.5,0.0,0.0,0.0,2.25,0.5,0.75,0.75,0.25,0.5,0.08,-0.17,0.2,109.67,6.7,-5.2,1.0,0.25,0.75,0.5,2.25,0.75,0.25,1.0,0.5,1.5,1.25,0.75,0.75,0.58,-0.67,0.52,167.32,-2.4,-5.8
2.96,1.0,0.25,1.0,0.5,0.0,0.0,0.0,2.25,0.5,1.0,0.0,0.25,0.75,-0.05,-0.3,0.14,111.41,3.7,-11.1,1.0,0.0,1.0,0.0,1.75,0.75,0.25,0.75,0.5,1.5,1.0,1.0,1.0,0.52,-0.61,0.45,162.32,-2.6,-15.8
2.98,1.0,0.5,1.0,0.5,0.0,0.0,0.0,2.25,0.25,0.75,0.0,0.25,1.0,-0.55,-0.36,-0.11,117.0,3.8,-7.7,1.0,0.25,0.75,0.0,1.25,0.75,0.25,0.75,0.5,1.5,1.25,1.0,0.75,0.52,-0.55,0.39,155.14,-2.9,-17.8
3.0,1.0,0.5,0.75,0.5,0.0,0.0,0.0,2.25,0.5,1.0,0.0,0.25,1.0,-1.05,-0.55,-0.11,118.81,2.3,-13.1,1.0,0.0,1.0,0.5,1.75,1.25,0.25,0.75,0.5,0.5,1.25,0.75,1.0,0.52,-0.48,0.33,152.23,-4.0,-3.3
3.02,0.75,0.5,1.0,0.5,0.0,0.0,0.0,2.0,0.5,0.75,0.25,0.25,0.75,-1.3,-0.61,-0.05,118.89,4.7,-9.7,1.0,0.25,0.75,0.5,1.75,0.5,0.25,0.75,0.5,1.5,1.25,0.5,1.0,0.52,-0.48,0.27,151.24,-3.2,-9.2
3.04,0.75,0.25,0.5,0.5,0.0,0.0,0.0,2.25,0.5,0.75,0.0,0.25,0.75,-1.36,-0.48,-0.05,111.78,0.7,-18.3,1.0,0.5,1.0,0.25,0.5,0.75,0.25,0.75,0.25,1.5,1.25,1.0,1.0,0.58,-0.48,0.27,147.3,-4.4,-18.9
3.06,1.0,0.5,1.0,0.5,0.0,0.0,0.0,2.25,0.5,0.75,0.0,0.25,0.5,-1.42,-0.42,-0.05,111.33,5.4,-1.5,1.0,0.0,1.0,0.5,1.0,0.5,0.25,0.75,0.5,2.25,1.25,1.0,1.0,0.64,-0.48,0.27,148.1,-3.3,-24.2
3.08,1.25,0.5,0.75,0.5,0.0,0.0,0.0,2.0,0.5,0.75,0.25,0.25,0.75,-1.36,-0.3,-0.05,108.64,5.4,-5.4,1.0,0.25,1.0,0.5,1.5,0.75,0.25,0.75,0.25,2.25,1.25,0.75,0.75,0.64,-0.48,0.27,152.7,-2.7,-12.0
3.1,0.75,0.25,0.75,0.5,0.0,0.0,0.0,2.25,0.5,0.75,0.0,0.25,0.5,-1.11,-0.17,-0.05,105.63,2.7,-11.5,1.0,0.5,0.75,0.5,1.25,0.75,0.25,0.75,0.5,1.5,1.25,0.75,1.0,0.64,-0.48,0.27,154.75,-3.3,-11.4
3.12,1.25,0.5,0.75,0.0,0.0,0.0,0.0,2.25,0.5,0.75,0.0,0.25,0.5,-0.86,-0.11,0.14,104.2,4.2,-5.1,1.0,0.25,0.75,0.5,1.5,0.75,0.25,0.75,0.25,1.75,1.25,0.75,1.0,0.64,-0.55,0.33,155.94,-2.3,-13.2
3.14,1.0,0.5,0.75,0.25,0.0,0.0,0.0,2.0,0.25,0.75,0.0,0.25,0.75,-0.61,-0.17,0.08,100.91,3.4,-7.8,1.0,0.25,1.0,0.5,1.75,0.5,0.25,0.75,0.5,1.25,1.25,1.0,1.0,0.64,-0.48,0.33,157.66,-4.7,-10.6
3.16,1.25,0.25,0.75,0.5,0.0,0.0,0.0,2.25,0.5,0.75,0.0,0.25,1.0,-0.55,-0.23,0.08,103.52,3.6,-11.5,1.0,0.25,1.0,0.5,1.75,1.0,0.25,0.75,0.5,3.0,1.25,1.0,1.0,0.64,-0.55,0.33,168.81,-1.0,-17.6
3.18,0.75,0.0,0.5,0.25,0.0,0.0,0.0,2.25,0.5,0.75,0.0,0.25,1.0,-0.61,-0.42,0.14,98.31,-1.0,-30.1,1.0,0.25,0.75,0.5,1.25,0.75,0.25,0.75,0.25,1.5,1.25,1.0,1.0,0.58,-0.55,0.33,166.51,-3.0,-15.8
3.2,0.75,0.5,0.5,0.5,0.0,0.0,0.0,2.25,0.5,0.75,0.0,0.25,1.0,-0.73,-0.48,0.08,100.93,0.6,-17.3,1.0,0.25,0.75,0.5,1.75,0.5,0.25,1.0,0.5,1.5,1.25,0.75,1.0,0.58,-0.55,0.33,167.8,-2.9,-12.2
3.22,1.0,0.5,0.75,0.5,0.0,0.0,0.0,2.25,0.5,0.75,0.25,0.25,0.5,-0.86,-0.61,0.08,102.64,4.4,-6.2,1.0,0.25,1.0,0.5,2.25,0.75,0.25,0.75,0.5,1.75,1.25,1.0,0.75,0.58,-0.55,0.33,169.51,-3.3,-7.3
3.24,1.25,0.5,0.75,0.5,0.0,0.0,0.0,2.0,0.5,0.75,0.5,0.25,0.75,-0.98,-0.67,0.14,108.39,5.6,-7.6,1.0,0.25,0.75,0.0,1.25,0.75,0.25,0.75,0.25,1.5,1.25,1.0,0.75,0.58,-0.55,0.39,161.09,-2.7,-17.3
3.26,1.0,0.5,0.75,0.5,0.0,0.0,0.0,2.25,0.5,0.75,0.75,0.25,1.0,-0.98,-0.61,0.14,114.89,3.6,-16.7,1.0,0.0,1.0,0.5,1.5,0.5,0.25,0.75,0.25,1.5,1.25,0.75,1.0,0.58,-0.48,0.39,156.09,-3.9,-13.7
3.28,1.0,0.25,1.0,0.5,0.0,0.0,0.0,2.25,0.5,0.75,0.5,0.25,1.25,-0.92,-0.48,0.08,120.43,3.7,-19.1,1.0,0.5,0.75,0.0,1.25,1.0,0.25,0.75,0.5,1.75,1.25,1.0,1.0,0.58,-0.48,0.39,154.15,-1.8,-17.4
3.3,1.0,0.5,0.75,0.5,0.0,0.0,0.0,2.0,0.5,0.75,0.75,0.25,1.0,-0.86,-0.42,0.08,121.88,4.2,-16.0,1.0,0.0,1.0,0.0,1.5,0.5,0.25,0.75,0.25,1.75,1.25,1.0,1.0,0.58,-0.48,0.33,150.81,-2.9,-21.2
3.32,0.75,0.5,1.0,0.0,0.0,0.0,0.0,2.0,0.0,0.75,0.5,0.25,0.5,-0.86,-0.42,0.08,114.18,4.0,-11.5,1.0,0.25,1.0,0.25,1.25,0.75,0.25,0.75,0.25,1.5,1.25,1.0,1.0,0.58,-0.48,0.33,149.28,-3.5,-15.8
3.34,1.0,0.5,0.75,0.0,0.0,0.0,0.0,2.5,0.25,0.75,0.5,0.25,1.0,-0.86,-0.36,0.02,112.29,1.5,-20.1,1.0,0.25,1.0,0.5,1.5,0.5,0.25,0.75,0.25,1.5,1.25,0.75,0.75,0.58,-0.48,0.33,149.3,-4.6,-8.5
3.36,1.25,0.5,0.75,0.5,0.0,0.0,0.0,2.25,0.5,0.75,0.75,0.25,0.75,-0.92,-0.42,0.08,113.81,5.0,-10.6,0.75,0.0,0.75,0.5,1.75,0.75,0.25,0.75,0.25,1.75,1.25,0.75,1.0,0.58,-0.48,0.33,149.61,-1.1,-16.5
3.38,0.75,0.5,0.75,0.5,0.0,0.0,0.0,2.25,0.5,0.75,0.75,0.25,0.75,-0.92,-0.42,0.08,115.82,3.2,-17.1,1.0,0.25,0.75,0.0,1.5,0.5,0.25,1.0,0.5,1.75,1.25,0.75,1.0,0.58,-0.48,0.39,148.61,-1.9,-19.0
3.4,1.0,0.5,0.5,0.25,0.0,0.0,0.0,2.0,0.5,0.75,0.75,0.25,0.75,-0.98,-0.48,0.02,114.27,3.2,-18.1,1.0,0.25,1.0,0.5,1.75,1.5,0.25,0.75,0.5,1.5,1.0,1.0,0.75,0.64,-0.48,0.39,156.01,-2.3,-4.9
3.42,1.0,0.0,0.75,0.25,0.0,0.0,0.0,2.25,0.5,0.75,0.75,0.25,0.75,-0.98,-0.42,0.08,112.12,3.1,-24.4,0.75,0.25,1.0,0.0,1.25,0.75,0.25,0.75,0.5,1.5,1.25,0.75,0.75,0.64,-0.48,0.33,153.95,-2.9,-16.2
3.44,1.0,0.5,0.75,0.25,0.0,0.0,0.0,2.25,0.5,0.75,0.75,0.25,0.75,-0.98,-0.36,0.08,110.83,3.7,-16.2,1.0,0.25,1.0,0.5,1.25,0.75,0.25,1.0,0.25,1.75,1.25,0.75,1.0,0.7,-0.48,0.33,155.93,-2.8,-13.8
3.46,1.0,0.5,0.5,0.5,0.0,0.0,0.0,2.0,0.5,0.75,0.25,0.25,0.5,-0.86,-0.36,0.08,106.43,3.9,-7.6,1.0,0.25,0.75,0.0,0.5,0.0,0.25,0.75,0.25,1.5,1.25,0.75,1.0,0.7,-0.48,0.39,142.12,-4.9,-29.4
3.48,1.0,0.5,0.75,0.5,0.0,0.0,0.0,2.0,0.5,0.75,0.0,0.25,0.5,-0.86,-0.36,0.08,104.49,4.9,-2.5,1.0,0.25,1.0,0.5,1.75,0.5,0.25,0.75,0.5,1.5,1.25,0.75,0.75,0.77,-0.42,0.39,146.66,-4.5,-7.5
3.5,1.25,0.25,1.0,0.5,0.0,0.0,0.0,2.25,0.5,0.75,0.75,0.25,0.5,-0.86,-0.36,0.08,108.16,6.5,-8.6,1.0,0.0,1.0,0.5,1.25,0.75,0.25,0.75,0.25,0.0,1.25,0.75,1.0,0.77,-0.36,0.33,137.54,-6.8,-4.0
3.52,1.0,0.25,1.0,0.0,0.0,0.0,0.0,2.25,0.5,0.75,0.5,0.25,0.75,-0.86,-0.36,0.08,108.64,3.9,-18.2,1.0,0.25,0.75,0.25,1.25,0.5,0.25,0.75,0.5,1.5,1.25,0.5,0.75,0.77,-0.3,0.33,138.46,-3.6,-12.2
3.54,1.0,0.5,0.75,0.5,0.0,0.0,0.0,2.0,0.25,0.75,0.0,0.25,0.75,-0.8,-0.36,0.14,107.79,3.9,-5.3,1.25,0.25,1.0,0.5,1.25,0.75,0.25,0.75,0.5,1.5,1.25,1.0,0.75,0.77,-0.3,0.27,143.36,-5.1,-9.9
3.56,0.5,0.25,0.75,0.5,0.0,0.0,0.0,2.25,0.5,0.75,0.5,0.25,1.25,-0.86,-0.42,0.14,108.46,0.5,-29.1,1.0,0.0,1.0,0.25,1.0,0.5,0.25,0.75,0.25,1.5,1.25,0.75,0.75,0.77,-0.23,0.27,141.8,-4.5,-17.3
3.58,1.25,0.5,1.0,0.0,0.0,0.0,0.0,2.0,0.5,0.5,0.75,0.25,0.75,-0.86,-0.42,0.2,108.53,6.8,-9.8,1.0,0.25,0.75,0.5,1.25,0.75,0.25,0.75,0.0,1.75,1.25,0.75,1.0,0.83,-0.17,0.2,143.98,-2.2,-14.4
3.6,1.0,0.25,0.75,0.0,0.0,0.25,0.0,2.0,0.5,0.75,0.75,0.25,0.75,-0.8,-0.42,0.14,107.61,2.8,-20.6,1.0,0.25,0.75,0.5,1.25,0.75,0.25,0.75,0.5,0.0,1.25,0.75,0.75,0.83,-0.17,0.2,138.37,-6.8,-0.8
3.62,1.0,0.5,0.75,0.5,0.0,0.0,0.0,2.25,0.5,0.75,0.75,0.25,0.75,-0.8,-0.42,0.08,112.23,4.2,-13.7,1.0,0.25,1.0,0.5,2.25,0.75,0.25,0.75,0.5,1.5,1.25,0.25,0.75,0.89,-0.17,0.14,147.01,-3.4,1.0
3.64,0.75,0.25,0.75,0.5,0.0,0.0,0.0,2.0,0.5,0.75,0.75,0.25,0.75,-0.8,-0.42,0.08,111.84,3.6,-20.5,1.25,0.25,1.0,0.5,1.0,1.5,0.25,0.75,0.25,1.5,1.0,0.75,1.0,0.89,-0.17,0.14,151.05,-2.7,-6.7
3.66,1.0,0.0,0.5,0.5,0.0,0.0,0.0,2.25,0.5,0.75,0.75,0.25,0.75,-0.8,-0.42,0.08,110.45,2.4,-24.5,1.0,0.25,0.75,0.25,1.5,0.75,0.25,0.75,0.5,1.5,1.25,0.75,0.75,0.89,-0.17,0.14,156.21,-3.0,-11.6
3.68,0.75,0.5,0.75,0.25,0.0,0.0,0.0,2.0,0.5,0.75,0.75,0.25,1.0,-0.86,-0.42,0.08,109.39,2.8,-22.2,1.0,0.0,1.0,0.5,1.5,0.75,0.25,1.0,0.5,2.0,1.0,0.75,1.0,0.89,-0.23,0.2,159.58,-2.1,-15.2
3.7,0.75,0.25,0.75,0.5,0.0,0.0,0.0,2.0,0.5,0.75,1.0,0.25,0.5,-0.92,-0.42,0.08,109.04,4.5,-19.1,1.0,0.25,1.0,0.5,1.0,0.5,0.25,0.75,0.5,1.5,1.25,1.0,1.0,0.83,-0.23,0.2,159.39,-4.8,-17.5
3.72,0.75,0.0,0.75,0.0,0.0,0.0,0.0,2.25,0.25,0.75,1.0,0.25,1.0,-0.98,-0.36,0.08,106.96,0.8,-36.0,1.0,0.25,0.75,0.25,1.0,0.5,0.25,0.75,0.25,1.75,1.25,0.75,0.75,0.83,-0.23,0.27,151.65,-3.3,-17.8
3.74,1.0,0.0,1.0,0.0,0.0,0.0,0.0,2.25,0.25,0.75,1.0,0.25,0.75,-0.98,-0.3,0.08,105.65,3.8,-25.6,1.0,0.5,1.0,0.75,1.75,0.75,0.25,0.75,0.25,1.5,1.25,1.0,1.0,0.77,-0.3,0.27,157.91,-4.0,-6.6
3.76,0.75,0.5,0.75,0.5,0.0,0.0,0.0,2.25,0.5,0.5,0.75,0.25,0.75,-1.05,-0.23,0.08,107.89,3.9,-15.1,1.0,0.25,1.0,0.0,1.25,0.75,0.25,0.5,0.25,2.5,1.25,0.75,1.0,0.77,-0.3,0.27,157.34,-1.7,-20.4
3.78,0.75,0.25,0.75,0.25,0.0,0.0,0.0,2.25,0.5,0.75,1.0,0.25,1.0,-1.05,-0.17,0.08,109.75,2.1,-28.4,1.0,0.25,1.0,0.5,1.0,0.5,0.25,0.75,0.5,1.75,1.25,0.75,1.0,0.77,-0.3,0.27,157.32,-4.3,-16.7
3.8,1.0,0.0,1.0,0.0,0.0,0.0,0.0,2.25,0.5,0.75,0.75,0.25,0.75,-1.05,-0.11,0.08,109.04,3.8,-24.3,1.0,0.25,1.0,0.5,1.5,0.75,0.25,0.75,0.5,1.5,1.25,1.0,1.0,0.77,-0.3,0.27,159.81,-3.8,-12.8
3.82,1.0,0.25,0.75,0.25,0.0,0.0,0.0,2.25,0.25,0.5,0.75,0.25,1.0,-0.98,-0.11,0.02,108.51,3.2,-20.8,1.0,0.0,0.75,0.25,1.5,0.75,0.25,0.75,0.5,1.75,1.25,0.75,1.0,0.77,-0.3,0.27,157.72,-1.9,-18.3
3.84,1.0,0.25,1.0,0.5,0.0,0.0,0.0,2.0,0.5,0.75,0.75,0.25,0.75,-0.98,-0.11,0.08,110.34,5.7,-14.2,1.0,0.0,1.0,0.25,1.0,0.75,0.25,0.75,0.25,1.5,1.0,1.0,1.0,0.7,-0.3,0.27,151.61,-3.3,-19.4
3.86,0.5,0.25,1.0,0.0,0.0,0.0,0.0,2.0,0.5,0.75,0.75,0.25,1.0,-0.98,-0.11,0.08,108.14,2.2,-30.6,1.0,0.25,0.75,0.5,1.25,1.0,0.25,0.75,0.0,1.5,1.0,1.0,1.0,0.7,-0.36,0.27,147.71,-2.0,-12.7
3.88,1.0,0.5,0.75,0.0,0.0,0.0,0.0,2.0,0.0,0.75,0.75,0.25,0.75,-0.98,-0.11,0.08,106.11,3.4,-16.6,1.0,0.25,1.0,0.5,1.75,0.75,0.25,0.75,0.25,0.75,1.0,1.0,1.0,0.7,-0.36,0.27,148.41,-4.7,-4.3
3.9,1.0,0.25,0.5,0.5,0.0,0.0,0.0,1.75,0.5,0.75,1.0,0.25,1.0,-0.98,-0.11,0.02,106.21,3.7,-23.8,1.0,0.25,1.0,0.5,1.25,0.75,0.25,0.75,0.5,1.5,1.25,0.25,1.0,0.7,-0.36,0.27,149.0,-3.7,-7.6
3.92,0.75,0.0,1.0,0.0,0.0,0.0,0.0,1.75,0.5,0.75,0.75,0.25,0.75,-1.05,-0.05,0.02,102.02,4.3,-27.6,1.0,0.25,1.0,0.5,1.25,1.0,0.25,0.75,0.5,1.5,1.25,0.5,1.0,0.7,-0.36,0.27,151.63,-3.2,-9.0
3.94,1.0,0.5,1.0,0.0,0.0,0.0,0.0,1.5,0.0,0.75,0.75,0.25,0.75,-1.05,-0.05,0.02,99.71,6.3,-11.8,1.0,0.25,1.0,0.5,1.25,0.75,0.25,0.75,0.25,1.75,1.0,0.75,1.0,0.7,-0.36,0.27,153.46,-3.1,-11.8
3.96,0.5,0.5,0.75,0.5,0.0,0.0,0.0,2.0,0.5,0.75,0.75,0.25,0.75,-1.11,-0.05,0.02,100.74,2.9,-20.0,1.0,0.25,1.0,0.0,1.5,0.75,0.25,1.0,0.25,1.5,1.25,0.5,1.0,0.7,-0.36,0.27,152.62,-2.2,-11.7
3.98,0.0,0.5,0.75,0.25,0.0,0.0,0.0,1.75,0.25,0.5,0.75,0.25,1.0,-1.11,-0.05,0.02,97.07,0.3,-32.5,1.0,0.25,1.0,0.25,1.0,0.5,0.25,1.0,0.25,1.5,1.25,1.0,1.0,0.7,-0.36,0.27,149.23,-3.8,-19.4
4.0,1.25,0.25,0.75,0.0,0.0,0.0,0.0,1.5,0.25,0.75,0.75,0.25,0.75,-1.11,-0.05,0.02,95.52,6.0,-16.2,1.0,0.25,0.75,0.5,1.0,0.5,0.25,0.75,0.25,1.25,1.25,0.75,1.0,0.7,-0.36,0.27,145.61,-4.2,-15.1
4.02,1.0,0.25,1.0,0.25,0.0,0.0,0.0,1.25,0.25,0.5,0.75,0.25,1.0,-1.11,-0.05,0.02,94.52,7.7,-14.8,1.0,0.25,1.0,0.0,1.75,0.75,0.25,0.75,0.25,1.5,1.25,0.75,1.0,0.7,-0.36,0.27,146.73,-2.7,-11.6
4.04,1.0,0.25,0.75,0.5,0.0,0.0,0.0,1.0,0.5,0.75,1.0,0.25,1.0,-1.05,-0.05,0.08,97.41,7.2,-19.1,1.0,0.25,1.0,0.5,1.0,0.75,0.25,0.75,0.25,0.75,1.25,0.75,1.0,0.77,-0.36,0.27,143.51,-5.5,-8.6
4.06,1.0,0.5,0.75,0.0,0.0,0.0,0.0,1.25,0.5,0.5,1.0,0.25,0.75,-0.98,-0.05,0.08,96.82,7.4,-15.6,1.0,0.25,1.0,0.5,1.5,0.75,0.25,0.75,0.5,1.5,1.25,0.25,1.0,0.77,-0.36,0.27,148.15,-3.5,-5.9
4.08,1.0,0.25,1.0,0.0,0.0,0.0,0.0,1.5,0.25,0.5,0.75,0.25,0.5,-0.98,-0.11,0.08,95.03,8.1,-10.8,1.0,0.25,1.0,0.5,1.0,0.5,0.25,0.75,0.25,1.5,1.0,0.75,0.75,0.7,-0.36,0.27,145.17,-4.9,-10.5
4.1,1.0,0.5,0.75,0.5,0.0,0.0,0.0,1.0,0.5,0.75,0.25,0.25,1.0,-0.92,-0.11,0.08,95.7,7.0,-8.1,1.0,0.25,1.0,0.25,1.25,0.75,0.25,0.75,0.25,2.0,1.0,0.75,0.75,0.7,-0.36,0.27,146.46,-2.7,-12.6
4.12,1.0,0.5,0.75,0.25,0.0,0.0,0.0,1.0,0.25,0.75,0.75,0.25,1.0,-0.92,-0.05,0.08,95.49,6.7,-14.7,1.0,0.25,1.0,0.5,1.25,0.75,0.25,0.75,0.25,1.5,1.25,1.0,0.75,0.7,-0.36,0.27,147.33,-4.3,-11.6
4.14,1.0,0.5,0.75,0.5,0.0,0.0,0.0,1.0,0.25,0.75,0.75,0.25,0.75,-0.92,-0.05,0.08,96.57,7.9,-8.0,1.0,0.25,1.0,0.25,1.25,1.25,0.25,0.75,0.25,1.75,1.25,0.25,0.75,0.7,-0.36,0.27,149.48,-1.9,-5.7
4.16,1.0,0.5,0.75,0.5,0.0,0.0,0.0,1.0,0.5,0.5,0.75,0.25,1.0,-0.92,-0.05,0.08,99.16,8.1,-10.5,0.75,0.5,1.0,0.0,1.0,0.5,0.25,0.75,0.5,1.5,1.25,0.75,1.0,0.77,-0.36,0.27,146.99,-3.6,-18.9
4.18,1.0,0.5,0.75,0.5,0.0,0.0,0.0,1.25,0.5,0.75,0.75,0.25,1.0,-0.98,-0.05,0.02,103.09,6.4,-13.7,1.0,0.0,1.0,0.0,1.0,0.5,0.25,0.75,0.25,1.75,1.25,0.75,1.0,0.77,-0.36,0.27,143.29,-3.1,-23.4
4.2,1.0,0.5,0.5,0.5,0.0,0.0,0.0,1.0,0.5,0.75,0.75,0.25,1.0,-1.05,-0.05,0.02,103.5,6.1,-15.6,0.75,0.0,1.0,0.0,1.5,0.75,0.25,0.75,0.25,2.0,1.25,0.5,1.0,0.77,-0.36,0.27,142.33,-0.8,-19.6
4.22,1.0,0.5,0.5,0.5,0.0,0.0,0.0,1.25,0.5,0.75,0.75,0.25,1.0,-1.05,-0.05,0.02,105.42,5.3,-16.4,0.75,0.25,1.0,0.5,1.5,0.75,0.25,0.75,0.25,0.0,1.25,0.75,0.75,0.77,-0.36,0.27,137.96,-6.5,1.2
4.24,1.0,0.5,0.75,0.5,0.0,0.0,0.0,1.0,0.25,0.75,1.0,0.25,1.25,-1.05,-0.05,0.02,106.4,6.5,-17.5,1.25,0.25,1.0,0.25,0.5,0.5,0.25,0.75,0.5,1.5,1.25,1.0,1.0,0.77,-0.36,0.27,138.74,-5.7,-20.9
4.26,1.0,0.5,1.0,0.25,0.0,0.0,0.0,1.0,0.25,0.75,0.5,0.25,0.75,-1.05,-0.05,0.02,103.57,8.7,-5.3,1.0,0.0,1.0,0.0,1.25,0.5,0.25,0.75,0.25,1.5,1.25,0.75,0.75,0.77,-0.36,0.27,135.92,-3.9,-17.2
4.28,1.0,0.5,0.5,0.5,0.0,0.0,0.0,1.0,0.5,0.75,0.75,0.25,1.0,-0.98,-0.05,0.08,102.46,6.1,-15.6,0.75,0.25,1.0,0.5,1.0,1.0,0.25,0.75,0.5,1.5,0.75,0.75,0.5,0.77,-0.36,0.27,137.33,-3.3,-7.4
4.3,1.0,0.5,0.5,0.5,0.0,0.0,0.0,0.75,0.5,0.75,0.75,0.25,0.25,-0.98,-0.05,0.08,97.33,9.8,-1.9,1.0,0.25,0.75,0.25,1.25,0.75,0.25,0.75,0.25,1.5,1.0,0.75,0.75,0.77,-0.36,0.27,136.49,-2.7,-11.3
4.32,0.75,0.5,0.75,0.5,0.0,0.0,0.0,1.0,0.25,0.75,0.75,0.25,0.75,-0.98,-0.05,0.08,95.42,6.9,-11.9,1.0,0.25,1.0,0.5,1.0,0.75,0.25,0.75,0.25,0.75,1.0,0.75,0.5,0.77,-0.36,0.27,135.06,-6.5,-0.8
4.34,0.75,0.25,0.75,0.5,0.0,0.0,0.0,0.75,0.5,0.75,1.0,0.25,0.75,-0.98,-0.05,0.08,92.41,8.0,-19.0,1.0,0.25,1.0,0.5,1.5,1.0,0.25,0.75,0.25,1.75,1.0,0.5,0.5,0.77,-0.36,0.27,139.54,-3.0,-1.6
4.36,0.5,0.25,0.75,0.0,0.0,0.0,0.0,1.0,0.5,0.75,0.75,0.25,1.0,-0.98,-0.05,0.08,89.9,3.9,-33.3,1.0,0.25,1.0,0.5,1.5,0.75,0.25,0.75,0.5,1.25,1.0,0.75,0.75,0.77,-0.36,0.27,144.27,-4.5,-5.0
4.38,1.0,0.25,1.0,0.0,0.0,0.0,0.0,1.0,0.25,0.75,1.0,0.25,0.75,-0.98,-0.05,0.08,89.25,8.3,-17.8,0.75,0.25,1.0,0.25,1.25,0.5,0.25,0.75,0.25,1.5,1.0,0.75,0.75,0.77,-0.36,0.27,144.52,-3.5,-13.2
4.4,1.0,0.25,0.75,0.5,0.0,0.0,0.0,1.0,0.25,0.25,1.0,0.25,0.75,-0.98,-0.05,0.08,88.46,9.8,-9.7,1.0,0.25,1.0,0.5,1.25,0.5,0.25,0.75,0.25,1.25,1.0,0.75,0.75,0.7,-0.36,0.27,144.11,-5.2,-6.9
4.42,1.0,0.5,0.75,0.0,0.0,0.0,0.0,1.0,0.25,0.75,0.75,0.25,0.75,-0.98,-0.05,0.08,88.33,7.1,-13.8,1.0,0.25,1.0,0.5,1.0,0.75,0.25,0.5,0.25,1.25,1.0,0.75,0.5,0.77,-0.36,0.27,140.24,-5.9,-3.9
4.44,0.75,0.0,0.5,0.0,0.0,0.0,0.0,1.25,0.25,0.75,0.75,0.25,0.75,-0.98,-0.05,0.08,84.47,2.6,-34.8,1.0,0.25,1.25,0.25,0.25,0.75,0.25,0.75,0.25,1.25,1.0,0.75,0.75,0.77,-0.36,0.27,134.39,-6.2,-13.8
