time,left pressure 0[N/cm²],left pressure 1[N/cm²],left pressure 2[N/cm²],left pressure 3[N/cm²],left pressure 4[N/cm²],left pressure 5[N/cm²],left pressure 6[N/cm²],left pressure 7[N/cm²],left pressure 8[N/cm²],left pressure 9[N/cm²],left pressure 10[N/cm²],left pressure 11[N/cm²],left pressure 12[N/cm²],left acceleration X[g],left acceleration Y[g],left acceleration Z[g],left total force[N],left center of pressure X[mm],left center of pressure Y[mm],right pressure 0[N/cm²],right pressure 1[N/cm²],right pressure 2[N/cm²],right pressure 3[N/cm²],right pressure 4[N/cm²],right pressure 5[N/cm²],right pressure 6[N/cm²],right pressure 7[N/cm²],right pressure 8[N/cm²],right pressure 9[N/cm²],right pressure 10[N/cm²],right pressure 11[N/cm²],right pressure 12[N/cm²],right acceleration X[g],right acceleration Y[g],right acceleration Z[g],right total force[N],right center of pressure X[mm],right center of pressure Y[mm]
0.02,0.0,0.0,0.0,0.0,0.0,0.0,0.0,0.0,0.0,0.0,0.0,0.0,0.0,-0.3,0.33,1.27,113.35,0.0,0.0,0.0,0.0,0.5,0.5,1.5,7.5,0.25,0.25,0.25,1.0,0.0,0.0,0.0,0.89,-0.17,1.83,0.0,13.2,26.5
0.04,0.0,0.0,0.0,1.0,0.0,0.0,0.0,4.75,0.5,6.0,0.0,5.0,6.0,-0.11,0.2,1.08,199.77,-8.1,-77.6,0.5,0.0,1.0,1.5,1.25,0.0,0.25,0.0,0.5,1.25,0.25,0.0,0.0,0.89,-1.23,0.58,0.0,-10.7,22.4
0.06,0.0,0.0,0.0,0.0,0.0,0.0,0.0,4.75,0.5,6.0,4.75,5.0,6.0,-0.17,0.08,0.95,279.97,-5.8,-82.5,0.75,0.25,1.5,1.25,1.25,0.5,0.25,0.0,0.5,1.25,0.25,0.0,0.0,0.52,-1.36,0.39,0.0,-11.0,29.2
0.08,0.0,0.0,0.0,0.25,1.0,0.0,0.0,5.0,1.0,6.0,5.25,5.0,6.0,-0.17,0.08,0.95,380.62,-5.0,-74.7,0.5,0.5,1.25,0.75,1.5,1.0,0.25,0.25,0.5,1.25,0.25,0.0,0.5,0.39,-0.42,1.08,0.0,-4.6,17.5
0.1,0.0,0.0,0.0,0.75,0.0,1.0,0.25,5.5,1.25,6.0,0.0,5.0,6.0,-0.17,0.08,0.95,432.88,-8.4,-72.2,1.25,0.25,1.5,0.75,1.5,1.0,0.25,0.0,0.5,1.0,0.25,0.0,0.5,0.2,-0.3,0.45,0.36,-8.9,27.0
0.12,0.0,0.0,0.0,2.25,0.0,0.75,0.25,5.5,2.0,6.0,6.0,5.0,6.0,-0.17,0.08,0.95,506.56,-3.3,-66.7,0.5,0.5,1.5,1.25,1.25,1.0,0.25,0.0,0.5,1.25,0.25,0.0,0.5,0.39,-0.3,0.7,30.25,-7.2,21.6
0.14,0.0,0.0,0.0,0.0,0.0,0.75,0.25,5.5,2.0,6.25,6.5,5.0,6.0,-0.11,0.08,0.95,530.0,-4.7,-76.0,0.5,0.25,1.25,1.25,1.5,1.0,0.25,0.0,0.5,1.0,0.25,0.0,0.5,0.45,-0.3,0.83,65.72,-6.4,22.0
0.16,0.75,0.0,0.0,1.5,0.0,0.0,0.5,5.75,1.75,6.25,6.5,5.0,6.0,-0.11,0.08,0.95,560.5,-2.5,-68.1,0.5,0.5,1.5,1.25,1.5,1.0,0.25,0.0,0.5,1.0,0.25,0.0,0.5,0.39,-0.05,0.77,98.27,-7.5,25.3
0.18,1.0,0.0,1.0,0.25,1.0,1.0,0.75,5.75,2.25,6.0,6.5,4.5,5.5,-0.17,0.08,0.95,578.69,-2.0,-59.2,0.5,0.25,1.5,1.25,1.5,1.75,0.25,0.0,0.5,0.75,0.25,0.0,0.5,0.33,0.2,0.83,125.05,-5.6,26.7
0.2,0.0,0.0,1.25,2.5,2.75,1.5,0.75,5.75,3.0,6.0,6.0,4.0,5.25,-0.17,0.08,0.95,598.83,-1.7,-46.4,0.25,0.5,1.25,0.75,1.5,1.25,0.25,0.0,0.5,1.25,0.25,0.0,0.5,0.33,0.27,0.95,139.6,-3.6,17.4
0.22,0.0,0.0,1.25,3.5,2.75,2.0,0.75,6.0,2.75,4.5,5.75,4.0,4.5,-0.11,0.08,0.95,593.01,-0.9,-39.9,0.5,0.25,1.5,0.75,1.5,1.0,0.25,0.0,0.25,1.0,0.25,0.0,0.5,0.27,0.27,1.14,139.71,-6.5,22.8
0.24,1.0,0.5,1.25,4.5,3.75,2.0,0.75,5.75,3.0,4.75,5.5,3.0,4.25,-0.11,0.08,0.95,596.01,0.3,-27.5,0.5,0.25,1.5,0.75,1.5,2.0,0.25,0.0,0.5,1.25,0.25,0.25,0.5,0.2,0.33,1.33,140.74,-3.2,16.3
0.26,1.5,0.75,1.25,4.5,4.25,2.5,1.0,5.75,3.0,4.25,5.0,2.5,3.0,-0.11,0.08,0.95,583.88,0.9,-18.1,0.25,0.25,1.25,0.75,1.25,1.0,0.25,0.0,0.75,1.0,0.25,0.25,0.5,0.2,0.52,1.52,129.68,-5.4,10.1
0.28,1.5,0.75,1.5,5.0,4.5,2.5,1.0,5.5,3.0,3.25,4.0,2.0,2.75,-0.11,0.08,0.95,545.43,1.7,-10.9,0.25,0.25,1.5,0.75,1.25,1.0,0.25,0.0,0.5,1.25,0.25,0.0,0.5,0.33,0.64,1.58,129.49,-5.5,14.3
0.3,1.5,0.75,2.0,7.0,5.5,2.75,1.0,5.5,3.0,3.25,4.0,1.25,1.75,-0.11,0.08,0.95,547.02,3.0,0.1,0.5,0.25,1.5,0.75,1.25,1.0,0.25,0.0,0.5,1.0,0.25,0.0,0.5,0.45,0.64,1.7,123.66,-7.1,19.7
0.32,1.0,0.75,2.75,8.0,6.0,2.25,1.0,5.5,2.75,2.0,3.25,1.0,1.5,-0.11,0.08,0.95,547.94,4.4,7.7,0.25,0.0,1.25,0.75,1.5,1.0,0.25,0.0,0.5,0.75,0.25,0.0,0.25,0.64,0.77,1.89,116.51,-5.9,22.3
0.34,1.75,1.0,2.75,8.0,6.25,3.75,1.25,5.25,2.75,1.5,3.0,1.0,1.5,-0.11,0.08,0.95,565.25,4.4,13.0,0.0,0.25,1.25,0.75,1.5,1.0,0.25,0.0,0.5,1.0,0.25,0.0,0.0,0.45,1.02,2.14,110.3,-5.1,24.0
0.36,2.5,1.0,3.0,9.0,7.0,3.25,1.5,5.0,2.5,1.5,2.5,1.0,1.0,-0.11,0.08,0.95,578.88,5.9,19.8,0.5,0.25,1.25,0.75,1.75,1.0,0.25,0.0,0.5,1.0,0.25,0.0,0.25,0.14,1.39,2.2,112.04,-6.0,25.1
0.38,2.75,1.0,3.0,9.5,7.5,3.25,1.5,4.75,2.0,1.0,2.5,0.75,1.0,-0.11,0.08,0.95,600.42,6.4,24.2,0.5,0.25,1.5,0.75,1.5,1.0,0.0,0.25,0.5,0.75,0.25,0.0,0.0,-0.36,2.02,1.77,113.75,-7.7,31.1
0.4,2.75,1.25,3.0,10.5,7.5,3.5,1.5,4.75,2.0,1.25,1.75,0.0,0.5,-0.11,0.08,0.95,612.6,6.5,30.9,0.5,0.25,1.25,0.75,1.25,0.25,0.25,0.0,0.5,1.0,0.25,0.0,0.25,-0.55,2.45,1.02,110.18,-9.9,21.6
0.42,2.75,1.5,3.5,11.0,8.0,3.5,1.5,4.5,1.5,1.5,1.5,0.5,0.5,-0.11,0.08,0.95,630.83,6.9,31.8,0.5,0.0,0.75,0.75,1.25,1.0,0.5,0.0,0.5,1.0,0.0,0.0,0.0,-1.36,3.33,0.7,104.64,-5.0,25.9
0.44,2.75,2.25,4.75,11.5,8.25,3.5,1.5,3.75,1.25,1.25,1.5,0.0,0.25,-0.11,0.14,0.95,653.04,8.6,39.1,0.5,0.0,0.75,0.75,1.25,1.0,0.25,0.0,0.5,0.5,0.75,0.0,0.5,-1.92,3.83,0.27,102.06,-5.2,12.2
0.46,2.75,1.75,4.75,12.5,8.5,3.5,1.5,3.5,1.0,1.0,1.0,0.0,0.5,-0.11,0.14,0.95,672.88,8.8,40.8,0.5,0.25,0.5,0.5,1.5,0.75,0.25,0.0,0.25,0.0,0.25,0.0,0.5,-2.48,3.64,0.39,93.58,-5.4,31.6
0.48,2.75,2.5,5.5,12.5,8.75,3.75,1.5,3.5,1.0,0.75,0.75,0.0,0.25,-0.11,0.14,0.95,695.67,9.4,44.4,0.0,0.0,0.0,0.0,1.25,0.0,0.25,0.25,0.0,0.25,0.0,0.75,1.75,0.33,-0.67,0.52,82.88,5.8,-49.3
0.5,3.25,2.5,6.0,13.0,9.0,4.0,1.5,3.5,0.5,1.0,0.75,0.0,0.25,-0.17,0.14,1.02,724.46,9.6,45.5,0.0,0.5,0.0,0.5,0.0,0.0,0.0,0.0,0.0,1.75,2.0,3.5,5.75,1.02,-1.48,1.83,131.4,2.9,-87.0
0.52,4.0,2.5,6.0,14.0,9.0,3.5,1.75,3.0,0.25,0.75,0.75,0.25,0.25,-0.17,0.14,1.02,751.79,11.0,47.8,0.5,0.25,0.75,0.75,1.25,1.25,0.0,0.25,0.5,7.0,3.75,6.25,8.0,-0.55,0.7,0.52,246.69,3.1,-69.5
0.54,2.5,2.75,6.75,13.0,9.0,3.25,1.5,2.5,0.0,0.0,0.75,0.0,0.25,-0.17,0.14,1.08,744.48,11.4,51.1,0.5,0.25,0.5,0.5,1.5,0.0,0.25,1.75,0.5,8.0,6.25,6.25,8.25,0.27,0.14,2.27,367.99,2.8,-73.2
0.56,0.0,0.0,6.5,2.75,8.5,0.0,1.5,2.5,0.0,0.0,0.0,0.0,0.0,-0.17,0.14,1.02,587.28,11.2,45.2,0.75,0.25,0.5,0.75,1.5,0.75,0.25,3.25,0.75,8.0,6.5,6.0,8.25,0.2,0.33,1.08,508.93,3.2,-67.3
0.58,0.0,0.0,0.0,3.75,0.0,0.0,0.0,0.0,0.0,0.0,0.0,0.0,0.0,-0.17,0.2,1.02,345.1,17.2,57.9,0.75,0.25,0.5,0.75,1.5,2.25,0.25,4.0,0.75,8.25,6.5,6.0,8.0,-0.05,0.08,0.95,617.13,4.2,-63.0
0.6,6.75,4.0,6.5,14.0,8.25,2.25,1.0,1.75,0.25,0.5,0.75,0.0,0.0,-0.23,0.27,1.08,378.71,14.6,57.4,0.5,0.25,1.25,0.75,1.5,2.25,0.0,4.5,1.0,8.5,6.5,5.75,8.0,0.14,0.14,0.95,684.16,3.9,-61.1
0.62,7.0,4.0,6.75,14.0,7.5,0.75,0.25,1.5,0.0,0.25,0.0,0.0,0.5,-0.23,0.27,1.2,445.04,16.3,60.8,0.5,0.25,0.75,0.75,1.5,2.75,0.25,5.25,1.0,8.5,6.5,5.75,8.0,0.08,0.08,0.95,721.53,4.8,-60.9
0.64,7.25,3.75,7.5,13.0,0.0,0.25,0.0,1.5,0.25,0.5,0.75,0.0,0.0,-0.3,0.33,1.33,525.64,22.3,61.1,0.5,0.25,1.0,0.75,1.5,3.75,0.25,5.5,1.0,8.75,6.75,5.75,7.75,0.14,0.08,0.95,753.06,4.9,-57.9
0.66,7.25,2.25,6.75,10.5,0.0,0.0,0.0,1.75,0.75,0.5,0.75,0.0,0.25,-0.48,0.39,1.58,517.42,22.4,55.9,0.5,0.25,1.25,1.0,2.25,4.5,0.25,6.0,1.0,8.75,6.5,5.5,7.75,0.08,0.08,0.95,779.69,5.1,-52.4
0.68,6.5,1.25,4.75,8.25,0.0,0.0,0.0,1.75,0.0,0.25,0.75,0.0,0.25,-0.73,0.64,1.52,445.01,22.4,56.5,0.5,0.5,1.5,1.5,3.75,4.5,0.25,6.25,1.0,8.5,6.5,5.25,7.75,0.08,0.08,0.95,800.94,4.5,-45.4
0.7,5.5,1.0,2.75,5.25,0.0,0.0,0.0,1.75,0.5,0.5,0.75,0.0,0.25,-0.98,1.14,2.2,331.77,20.2,48.7,0.75,0.75,1.5,2.0,4.25,4.75,0.25,6.5,1.25,8.5,5.5,4.75,7.25,0.14,0.08,0.95,804.42,4.4,-39.3
0.72,2.75,0.0,1.25,4.25,0.0,0.0,0.0,0.0,0.25,0.5,0.75,0.0,0.25,-0.48,0.95,2.52,233.33,21.4,45.5,0.75,0.75,1.25,2.25,5.0,5.25,0.25,6.5,1.25,8.0,5.25,4.0,7.0,0.14,0.08,0.95,784.12,4.8,-34.8
0.74,0.0,0.0,1.0,1.0,0.0,0.0,0.0,0.0,0.0,0.5,0.75,0.0,0.25,-0.55,0.45,2.39,134.14,15.1,0.7,0.5,1.0,1.5,2.75,5.25,5.5,0.75,6.5,1.5,8.0,5.25,4.0,6.5,0.14,0.08,0.95,752.63,4.2,-31.4
0.76,0.0,0.0,0.25,1.0,0.0,0.0,0.0,0.0,0.0,0.25,0.0,0.0,0.0,-0.92,-0.17,2.02,37.71,15.3,36.9,0.5,0.5,1.75,3.0,5.25,5.75,0.75,6.5,1.5,7.5,5.0,3.25,6.25,0.14,0.08,0.95,714.22,4.2,-29.1
0.78,0.0,0.0,0.0,0.5,0.0,0.0,0.0,0.0,0.0,0.0,0.0,0.0,0.0,-1.17,-0.92,0.77,0.0,17.2,57.9,1.0,1.0,2.0,3.75,5.75,6.0,0.75,6.0,1.75,7.0,4.5,2.75,5.5,0.14,0.08,0.95,698.99,2.9,-20.2
0.8,0.0,0.0,0.0,0.5,0.0,0.0,0.0,0.0,0.0,0.0,0.0,0.0,0.0,-1.48,-1.17,0.7,0.0,17.2,57.9,1.5,1.0,2.75,4.5,6.25,6.0,1.0,6.25,1.75,6.5,4.25,2.25,4.5,0.14,0.08,0.95,696.25,1.4,-12.0
0.82,0.0,0.0,0.0,2.5,0.0,0.0,0.0,0.0,0.0,0.0,0.0,0.0,0.0,-0.92,-0.98,0.45,0.0,17.2,57.9,1.75,1.0,3.0,5.25,6.75,6.0,1.25,5.5,1.75,6.0,3.75,1.25,4.25,0.14,0.08,0.95,696.44,0.5,-4.7
0.84,0.0,0.0,0.25,2.5,0.0,0.0,0.0,0.0,0.0,0.0,0.0,0.0,0.25,-0.61,-0.3,0.45,0.0,16.3,44.3,1.75,1.5,3.0,5.5,7.25,6.5,1.25,5.5,1.75,5.5,2.5,1.25,3.5,0.14,0.08,0.95,695.54,0.5,2.1
0.86,0.0,0.0,0.25,2.5,0.0,0.0,0.0,0.0,0.25,0.5,0.0,0.0,0.25,-0.42,-0.3,0.33,0.0,11.9,23.6,1.75,1.25,3.25,7.25,7.75,6.75,1.5,5.0,1.75,4.25,2.5,1.0,3.0,0.14,0.08,0.95,698.25,-0.9,9.1
0.88,0.0,0.0,0.25,2.75,0.0,0.0,0.0,0.0,0.0,0.0,0.0,0.0,0.25,-0.55,-0.23,0.64,0.0,16.4,45.4,1.75,1.75,4.5,7.25,8.25,7.0,2.25,4.5,1.5,3.75,2.0,0.75,2.5,0.14,0.08,0.95,706.74,-2.4,16.7
0.9,0.0,0.0,0.0,0.0,0.0,0.0,0.5,0.0,0.0,0.0,0.0,0.0,0.0,-0.67,-0.23,0.7,0.0,32.4,27.3,2.5,1.75,5.25,9.0,8.5,7.0,2.0,4.5,1.25,3.0,1.75,0.75,2.5,0.14,0.08,0.95,732.61,-4.0,22.3
0.92,0.0,0.0,0.0,0.0,0.0,0.0,0.5,0.0,0.0,0.0,0.0,0.0,0.0,-0.61,-0.05,0.89,0.0,32.4,27.3,3.25,1.75,5.5,9.25,8.5,7.0,2.5,4.25,1.25,3.0,2.0,0.75,2.0,0.14,0.08,0.95,765.63,-5.1,24.9
0.94,0.0,0.0,0.0,0.0,0.0,0.0,1.75,0.0,0.0,0.0,0.0,0.0,0.0,-0.48,0.08,1.02,0.0,32.4,27.4,3.25,2.0,6.25,11.0,9.5,7.0,2.5,3.5,1.0,2.75,2.0,0.5,1.75,0.14,0.08,0.95,814.8,-6.3,30.5
0.96,0.0,0.0,0.0,0.5,0.0,0.0,0.0,0.0,0.0,0.0,0.0,0.0,0.0,-0.36,0.2,1.14,0.0,17.2,57.9,4.25,2.0,6.75,11.0,9.5,7.0,2.5,3.0,1.0,2.75,1.0,0.25,1.25,0.08,0.08,0.95,848.99,-7.4,36.6
0.98,0.0,0.0,0.0,0.5,0.0,0.0,0.0,0.0,0.0,0.0,0.0,0.0,0.0,-0.23,0.33,1.33,5.09,17.2,57.9,4.5,2.0,7.0,12.5,9.75,7.0,3.0,3.0,0.75,1.25,0.75,0.0,1.5,0.08,0.08,0.95,879.43,-8.6,41.7
1.0,0.0,0.0,0.0,0.5,0.0,0.0,0.0,0.0,0.0,0.0,0.0,0.0,0.0,-0.23,0.45,1.45,6.61,17.2,57.9,5.5,2.5,7.75,12.5,11.0,7.0,3.0,2.0,0.5,1.25,0.5,0.0,1.25,0.08,0.14,0.95,914.18,-9.7,46.8
1.02,0.0,0.0,0.0,0.5,0.0,0.0,0.0,0.0,0.25,0.0,0.0,0.0,0.0,-0.23,0.58,1.58,7.05,15.5,27.0,5.5,2.5,8.0,14.0,11.0,7.25,3.0,1.75,0.5,1.25,0.75,0.0,1.5,0.08,0.14,0.95,957.14,-9.9,46.3
1.04,0.0,0.0,0.0,0.5,0.0,0.0,0.0,0.0,0.0,0.0,0.0,0.0,0.0,-0.3,0.58,1.77,4.2,17.2,57.9,6.5,2.5,8.75,14.0,11.0,7.0,3.0,1.75,0.5,1.5,0.25,0.0,1.0,0.08,0.14,0.95,998.45,-10.9,49.2
1.06,0.0,0.0,0.0,1.25,0.0,0.0,0.0,0.0,0.25,0.0,0.0,0.0,0.0,-0.48,0.64,1.95,8.52,16.4,42.6,7.25,3.25,8.75,14.5,11.5,6.75,3.0,0.5,0.5,1.25,0.25,0.0,1.25,0.08,0.14,1.02,1040.6,-11.9,52.3
1.08,0.0,0.0,0.0,0.25,0.0,0.0,0.0,0.0,0.25,0.0,0.0,0.0,0.0,-0.42,0.77,2.27,8.08,14.7,11.1,7.75,3.25,9.25,15.5,11.5,6.75,3.0,0.5,0.5,1.25,0.75,0.0,1.0,0.08,0.14,1.02,1084.92,-12.4,52.5
1.1,0.0,0.0,0.0,0.25,0.0,0.0,0.0,0.0,0.0,0.0,0.0,0.0,0.0,-0.17,0.89,2.45,7.41,17.2,57.9,8.25,3.0,9.25,15.5,12.0,6.25,2.25,0.25,0.5,1.25,0.25,0.0,0.75,0.08,0.2,1.02,1106.48,-12.9,55.0
1.12,0.0,0.0,0.0,0.5,0.0,0.0,0.0,0.0,0.0,0.0,0.0,0.0,0.0,0.7,1.58,1.83,7.54,17.2,57.9,8.75,3.5,9.25,15.5,11.0,5.5,2.0,0.25,0.5,1.25,0.25,0.0,0.25,0.08,0.27,1.08,1105.05,-14.0,57.5
1.14,0.0,0.0,1.0,1.25,0.0,0.0,0.0,0.0,0.25,0.0,0.0,0.0,0.25,0.77,2.08,1.58,23.19,21.6,35.4,8.75,3.25,9.25,14.0,11.0,4.0,1.25,0.75,0.5,1.25,0.75,0.0,0.5,0.14,0.27,1.2,1070.7,-14.3,55.4
1.16,0.0,0.0,0.0,0.5,0.0,0.0,0.0,0.0,0.0,0.0,0.0,0.0,0.25,1.39,2.83,0.83,22.54,7.0,2.6,9.0,3.25,8.75,13.5,9.5,1.75,1.0,0.25,0.5,1.25,0.75,0.0,0.75,0.14,0.33,1.27,996.61,-16.4,56.6
1.18,0.0,0.0,0.5,1.25,0.0,0.0,0.0,0.0,0.0,0.5,0.0,0.0,0.0,2.33,4.08,0.45,31.82,14.7,29.8,8.5,2.5,7.75,12.0,8.25,0.5,0.75,0.0,0.5,1.25,0.75,0.0,0.75,0.14,0.33,1.33,876.34,-17.5,56.6
1.2,0.0,0.0,0.5,1.0,0.0,0.0,0.0,0.0,0.0,0.0,0.0,0.0,0.0,2.83,3.83,0.77,32.13,24.1,58.9,7.5,1.25,5.5,7.25,5.5,0.0,0.75,0.25,0.5,1.0,0.25,0.0,0.75,0.52,0.58,1.77,681.96,-18.6,56.1
1.22,0.0,0.0,0.75,0.5,0.0,0.0,0.0,0.0,0.25,0.25,0.0,0.0,0.25,-0.17,0.02,1.58,35.51,16.6,10.1,5.0,0.0,1.75,3.25,1.25,0.0,0.0,0.0,0.0,0.0,0.0,0.0,0.0,0.83,1.45,2.7,409.42,-25.2,74.3
1.24,0.0,0.0,0.25,0.25,0.0,0.0,0.0,0.0,0.25,1.0,0.0,0.25,0.75,-0.98,-0.73,2.08,39.6,-2.4,-59.6,4.25,0.75,1.5,3.25,1.5,0.0,0.5,0.0,0.5,1.25,0.5,0.0,0.5,0.08,0.64,2.52,257.44,-17.5,45.0
1.26,0.0,0.0,0.0,0.0,0.0,0.0,0.0,0.0,0.5,4.5,0.0,3.5,3.25,0.14,0.33,1.02,101.0,-6.7,-93.8,1.5,0.0,1.5,1.25,0.0,0.25,0.25,0.0,0.5,1.25,0.25,0.0,0.0,0.02,0.33,2.14,111.24,-17.9,28.3
1.28,0.0,0.0,0.0,0.0,0.0,0.0,1.0,0.0,0.0,0.0,0.0,0.0,0.0,-0.17,0.52,3.64,88.57,32.4,27.3,0.0,0.25,1.75,2.0,0.0,0.0,0.0,0.0,0.5,1.25,0.0,0.0,0.0,1.02,-0.17,2.08,9.07,-16.0,24.2
1.3,0.0,0.0,0.0,0.0,0.0,0.0,0.0,4.75,0.25,6.25,5.0,5.0,6.25,-0.11,0.45,1.08,216.01,-6.0,-83.0,1.5,0.5,1.75,1.0,1.25,0.5,0.0,0.0,0.5,1.25,0.25,0.0,0.0,0.95,-1.17,1.64,0.0,-13.3,36.9
1.32,0.0,0.0,0.0,1.0,0.0,0.0,0.0,5.0,0.0,6.0,1.0,5.0,6.25,-0.05,0.08,1.02,285.32,-7.9,-78.3,0.5,0.5,2.0,1.75,1.5,1.0,0.0,0.0,0.5,1.25,0.25,0.0,0.0,0.77,-1.36,0.7,0.0,-9.9,33.7
1.34,0.0,0.0,0.0,1.0,0.0,0.0,0.25,5.0,1.0,6.0,0.0,4.75,6.25,-0.17,0.08,0.95,365.4,-7.8,-75.9,0.5,0.25,2.0,1.25,1.25,1.0,0.25,0.0,0.5,1.25,0.25,0.0,0.5,0.58,-0.48,1.14,0.0,-8.8,21.6
1.36,0.0,0.0,0.0,1.25,0.0,0.0,0.25,5.5,1.0,6.0,6.0,5.0,6.0,-0.17,0.08,0.95,432.23,-4.0,-74.1,0.5,0.5,1.75,1.0,1.5,1.25,0.25,0.0,0.5,1.25,0.0,0.0,0.5,0.2,-0.42,0.52,0.0,-6.6,25.6
1.38,1.0,0.0,0.0,1.25,1.0,0.75,0.25,5.25,1.75,6.5,0.0,5.0,6.25,-0.17,0.08,0.95,476.75,-5.9,-60.3,0.5,0.25,1.75,0.75,1.5,1.25,0.25,0.0,0.5,1.25,0.25,0.0,0.5,0.27,-0.42,0.45,25.32,-6.2,19.7
1.4,0.5,0.0,0.0,1.75,0.75,0.5,0.25,5.5,1.75,6.5,6.25,5.0,6.0,-0.17,0.08,0.95,527.48,-3.1,-64.4,0.5,0.5,1.75,1.0,1.5,1.25,0.25,0.0,0.5,1.25,0.25,0.0,0.5,0.39,-0.42,0.83,55.82,-6.7,22.9
1.42,1.0,0.0,0.5,0.75,0.0,0.75,0.25,5.5,2.0,6.5,6.5,5.25,6.25,-0.11,0.02,0.95,562.31,-2.5,-66.9,0.25,0.25,1.75,0.75,1.5,1.25,0.25,0.0,0.5,1.25,0.25,0.0,0.5,0.39,-0.42,0.89,84.08,-5.4,17.6
1.44,1.5,0.0,0.25,1.5,0.0,0.25,0.5,5.5,2.0,6.25,6.5,5.0,6.0,-0.17,0.02,0.95,595.33,-1.4,-63.1,0.25,0.25,1.75,0.75,1.5,1.0,0.25,0.0,0.5,1.25,0.25,0.0,0.75,0.33,-0.11,0.83,112.44,-5.6,13.3
1.46,1.75,0.0,1.25,1.0,0.0,1.5,0.75,5.5,2.5,6.0,6.5,5.0,6.0,-0.17,0.08,0.95,606.47,-0.6,-56.6,0.5,0.25,1.5,0.75,1.5,1.0,0.25,0.0,0.5,1.25,0.25,0.0,0.5,0.33,0.14,0.89,128.64,-6.0,18.0
1.48,1.5,0.0,1.5,2.0,1.25,1.25,0.75,5.5,2.75,6.0,6.5,5.0,6.0,-0.11,0.08,0.95,619.96,0.0,-50.1,0.5,0.25,1.75,1.0,1.5,1.0,0.25,0.0,0.5,1.25,0.25,0.0,0.5,0.39,0.14,1.08,131.63,-7.3,20.4
1.5,0.75,0.0,1.5,2.5,1.25,1.0,0.75,5.5,3.0,5.75,6.5,4.75,5.5,-0.11,0.02,0.95,613.44,0.0,-50.4,0.5,0.25,1.75,0.75,2.25,1.0,0.0,0.25,0.5,1.25,0.25,0.0,0.5,0.33,0.2,1.27,141.72,-5.1,20.8
1.52,1.75,0.0,1.25,2.5,2.25,1.5,1.0,5.5,3.25,5.25,6.0,4.25,5.25,-0.11,0.02,0.95,608.25,0.4,-41.5,0.0,0.25,1.5,0.75,1.25,1.25,0.0,0.0,0.5,1.25,0.75,0.0,0.5,0.27,0.45,1.39,137.38,-3.8,7.0
1.54,2.75,0.0,2.0,2.75,2.5,1.25,1.0,5.5,3.25,4.75,5.75,4.0,4.25,-0.11,0.08,0.95,572.44,2.6,-32.5,0.0,0.25,1.75,1.0,1.25,1.25,0.25,0.0,0.5,1.0,0.25,0.0,1.0,0.33,0.58,1.52,133.7,-4.7,10.5
1.56,2.75,0.0,2.75,2.75,2.5,2.0,1.5,5.25,3.5,4.75,5.5,3.0,4.0,-0.11,0.08,0.95,563.06,3.1,-26.4,0.25,0.25,1.5,0.75,1.25,1.0,0.25,0.0,0.5,1.0,0.25,0.0,0.75,0.45,0.58,1.64,127.15,-5.6,13.1
1.58,2.75,0.0,3.0,3.0,3.0,2.0,1.5,5.0,3.5,3.5,5.5,2.5,2.75,-0.11,0.08,0.95,538.05,4.6,-18.3,0.5,0.25,1.75,0.75,1.5,1.0,0.25,0.0,0.5,1.25,0.25,0.0,0.5,0.64,0.64,1.83,128.02,-7.0,19.3
1.6,3.0,0.0,3.0,4.25,3.5,2.0,1.75,4.75,3.25,3.25,4.5,2.25,2.5,-0.11,0.08,0.95,519.3,5.4,-10.3,0.5,0.25,1.5,0.75,1.25,1.0,0.25,0.25,0.5,1.0,0.0,0.0,0.5,0.64,0.83,2.02,124.45,-6.2,20.8
1.62,4.25,0.5,3.25,4.5,4.0,2.0,1.75,4.75,3.25,2.25,4.0,2.0,1.75,-0.11,0.08,0.95,515.17,7.4,1.7,0.0,0.25,1.5,0.75,1.25,1.0,0.25,0.0,0.5,1.0,0.25,0.0,0.75,0.45,1.27,2.08,122.14,-4.6,10.5
1.64,4.25,0.75,3.25,6.25,4.5,2.0,2.25,4.75,3.0,1.5,3.5,1.25,1.5,-0.11,0.08,0.95,517.26,8.4,11.7,1.0,0.25,1.5,0.75,1.25,1.0,0.25,0.0,0.5,0.75,0.0,0.0,0.75,0.27,1.64,2.14,121.51,-8.6,25.9
1.66,5.0,1.0,4.5,7.25,4.5,2.0,2.25,4.25,3.0,1.5,3.0,1.0,1.25,-0.11,0.08,0.95,539.86,10.5,19.8,0.5,0.25,1.5,0.75,1.75,1.0,0.25,0.0,0.5,1.25,0.25,0.0,0.75,-0.05,1.95,1.52,126.29,-5.1,15.5
1.68,5.5,1.0,4.5,8.0,5.25,2.0,2.75,4.0,2.5,1.5,2.5,1.0,1.0,-0.11,0.08,0.95,567.92,11.1,25.1,0.5,0.25,1.5,0.75,1.25,1.0,0.0,0.0,0.5,1.0,0.25,0.0,0.25,-0.61,2.64,0.83,123.98,-7.4,24.1
1.7,5.5,1.0,5.25,9.0,5.75,2.0,2.75,3.5,2.0,1.5,2.5,0.75,0.5,-0.11,0.08,0.95,596.02,12.2,31.0,0.25,0.0,0.0,0.0,0.0,0.0,0.0,0.0,0.0,0.0,0.0,0.0,0.0,-1.48,3.77,0.52,83.94,-34.9,97.9
1.72,5.5,1.0,6.0,10.5,6.5,2.0,3.0,3.5,2.0,1.0,1.75,0.5,0.5,-0.11,0.08,0.95,631.25,12.9,36.8,0.5,0.25,1.25,0.75,1.5,1.25,0.0,0.0,0.5,0.5,0.0,0.0,0.75,-2.05,3.52,0.33,83.06,-4.9,24.9
1.74,5.5,1.0,6.5,11.5,7.5,2.0,3.25,3.5,1.25,1.5,1.5,0.25,0.5,-0.11,0.08,0.95,676.17,12.7,39.4,0.0,0.0,0.0,0.5,0.5,1.25,0.25,0.0,0.5,0.25,0.25,0.0,0.75,0.02,1.64,0.77,64.78,5.2,-8.7
1.76,5.5,1.25,6.75,12.0,7.5,2.0,3.5,3.5,1.0,0.75,1.25,0.0,0.5,-0.11,0.08,0.95,710.59,13.4,43.8,0.5,0.25,1.0,0.75,1.75,0.0,0.0,0.0,0.0,2.0,0.25,0.5,1.5,0.89,-0.48,0.7,87.65,-2.2,-11.9
1.78,5.75,2.0,7.25,12.5,7.75,2.0,3.5,3.0,1.0,1.0,1.0,0.0,0.5,-0.11,0.14,0.95,748.81,13.9,46.2,0.25,0.25,0.0,0.75,0.0,0.5,0.0,0.0,0.0,4.25,0.0,3.0,5.5,0.33,-0.36,1.77,138.11,7.0,-79.2
1.8,6.5,2.5,7.5,13.5,8.25,0.0,3.75,2.25,0.0,0.0,0.75,0.0,0.25,-0.11,0.14,1.08,764.23,17.2,56.0,0.75,0.25,0.25,0.75,1.5,1.25,0.25,0.25,0.25,7.25,2.5,6.0,8.5,-0.36,0.2,1.14,254.62,4.4,-69.3
1.82,0.0,0.0,6.0,7.5,5.5,0.0,0.5,0.0,0.0,0.0,0.0,0.0,0.0,-0.11,0.14,1.08,598.12,17.3,57.1,0.5,0.25,0.25,0.75,1.25,0.0,0.25,1.75,0.5,8.0,4.5,6.0,9.0,-0.86,0.45,2.58,363.04,4.0,-74.7
1.84,7.0,3.25,8.25,14.0,7.75,0.0,3.5,2.25,0.25,0.75,1.0,0.0,0.0,-0.11,0.14,1.02,623.52,17.4,55.0,0.25,0.25,0.5,0.5,1.5,1.75,0.25,3.0,1.0,8.75,6.25,6.0,8.5,1.08,0.2,1.27,506.37,4.5,-68.1
1.86,4.5,1.75,1.75,4.75,6.75,0.0,2.75,1.5,1.25,0.0,0.75,0.0,0.25,-0.11,0.2,1.08,497.64,13.0,48.8,0.5,0.0,0.75,0.75,3.0,2.25,0.25,4.25,1.0,8.75,6.5,6.0,8.5,-0.3,0.14,1.2,631.53,4.5,-59.8
1.88,5.5,2.5,8.25,12.0,7.25,0.75,3.25,2.0,0.75,0.75,0.75,0.0,0.25,-0.17,0.2,1.08,557.08,16.5,51.7,0.5,0.25,1.5,0.75,1.5,3.75,0.5,4.75,1.0,8.75,7.0,6.0,8.5,0.2,0.14,0.95,725.83,4.1,-57.9
1.9,7.0,2.5,8.75,13.0,6.75,0.25,1.75,1.75,0.75,0.25,0.75,0.0,0.25,-0.23,0.27,1.27,582.83,18.4,55.9,0.5,0.25,1.25,0.75,2.25,4.25,0.25,5.5,1.0,8.75,6.75,5.75,8.25,0.14,0.08,0.95,784.12,4.9,-54.7
1.92,7.5,2.5,8.75,11.0,6.0,0.0,1.0,1.25,0.75,0.75,0.75,0.0,0.25,-0.23,0.33,1.39,642.03,19.2,56.3,0.5,0.25,1.0,1.0,3.0,4.5,0.25,5.75,1.0,8.75,6.75,5.5,8.25,0.14,0.08,0.95,824.39,5.2,-51.9
1.94,7.25,1.75,8.0,9.0,0.0,0.0,0.75,0.0,0.75,0.5,0.75,0.0,0.25,-0.48,0.52,1.45,558.53,26.1,60.7,1.0,0.25,1.25,0.75,3.25,4.5,0.25,5.5,1.0,8.75,6.5,5.25,8.0,0.14,0.08,0.95,837.56,4.8,-49.0
1.96,6.75,1.0,7.0,6.5,0.0,0.0,0.5,1.75,0.5,0.75,0.75,0.0,0.25,-0.73,0.64,1.64,467.05,23.6,52.1,0.5,0.25,1.5,1.25,3.75,4.5,0.25,5.5,1.0,8.5,6.5,5.0,8.0,0.14,0.08,0.95,823.74,4.7,-46.9
1.98,6.5,1.0,4.0,4.5,0.0,0.0,0.75,0.0,0.5,0.5,0.75,0.0,0.25,-0.8,1.14,2.39,348.79,26.1,59.6,0.5,0.25,1.5,2.0,4.5,5.0,0.25,5.5,1.0,8.25,6.0,4.0,7.75,0.14,0.08,0.95,802.34,4.8,-40.4
2.0,3.5,0.0,3.0,3.5,0.0,0.0,0.25,0.0,0.5,0.5,0.75,0.0,0.25,-0.8,0.95,2.45,252.92,24.9,48.1,0.5,0.75,1.5,2.75,5.25,5.5,0.75,5.5,1.0,8.0,5.75,3.5,6.75,0.14,0.08,0.95,767.01,4.2,-31.9
2.02,0.0,0.0,2.25,0.0,0.0,0.0,0.25,0.0,0.0,0.0,0.75,0.0,0.25,-0.61,0.33,2.77,142.7,28.3,17.9,0.5,0.75,1.75,3.0,5.25,5.75,0.5,5.5,1.0,7.5,4.75,2.75,6.5,0.14,0.08,0.95,714.48,4.4,-27.6
2.04,1.0,0.0,1.0,1.75,0.0,0.0,0.0,0.0,0.25,0.0,0.25,0.0,0.25,-0.92,-0.42,2.52,61.69,23.2,44.9,0.75,1.0,1.75,3.25,5.25,6.0,0.75,5.5,1.25,7.0,4.5,2.75,6.0,0.14,0.08,0.95,671.34,3.7,-23.7
2.06,0.0,0.0,0.75,0.5,0.0,0.0,0.0,0.0,0.25,0.0,0.0,0.0,0.0,-1.8,-1.36,2.2,0.0,26.9,44.0,0.5,1.0,2.75,3.75,5.75,6.0,0.75,5.5,1.5,6.75,4.0,2.25,5.75,0.14,0.08,0.95,652.65,2.8,-18.4
2.08,0.0,0.0,0.0,2.5,0.0,0.0,0.0,0.0,0.25,0.0,0.5,0.0,0.0,-1.73,-1.36,-0.17,0.0,15.9,31.5,1.0,1.0,2.75,4.5,6.75,6.25,1.0,5.25,1.5,6.25,3.75,1.25,5.0,0.14,0.08,0.95,647.71,2.1,-9.3
2.1,0.25,0.0,0.75,2.25,0.0,0.0,0.25,0.0,0.25,0.5,0.0,0.0,0.0,-0.98,-0.48,0.64,0.0,18.2,38.4,1.25,1.25,2.75,5.5,7.0,6.5,1.0,4.75,1.75,5.5,3.5,1.25,4.5,0.14,0.08,0.95,654.13,1.0,-3.4
2.12,0.25,0.0,1.0,1.25,0.0,0.0,0.25,0.0,0.5,0.5,0.75,0.0,0.25,-0.67,-0.3,0.27,0.0,16.3,5.3,1.25,1.75,3.0,5.75,7.75,6.75,1.25,4.5,1.75,5.25,2.75,1.0,3.5,0.14,0.08,0.95,665.37,0.4,4.2
2.14,0.25,0.0,1.25,2.5,0.0,0.0,0.5,0.0,0.25,0.5,0.5,0.0,0.5,-0.55,-0.36,0.33,0.0,16.9,19.4,1.5,1.75,4.0,7.25,8.25,7.0,1.25,4.5,1.75,4.25,2.5,0.75,3.25,0.14,0.08,0.95,690.51,-1.2,11.6
2.16,0.25,0.0,1.25,2.0,0.0,0.0,0.25,0.0,0.25,0.0,0.0,0.0,0.25,-0.48,-0.42,0.7,0.0,22.8,44.3,1.25,1.75,5.25,8.75,8.5,7.0,2.0,3.75,1.5,3.0,2.25,0.75,2.25,0.14,0.08,0.95,713.98,-3.7,20.6
2.18,0.25,0.0,1.25,1.75,0.0,0.0,0.25,0.0,0.5,0.5,0.0,0.0,0.25,-0.42,-0.05,0.77,25.6,18.5,26.6,2.25,2.0,5.75,9.25,8.5,7.0,2.0,3.5,1.5,3.0,1.75,0.25,2.25,0.14,0.08,0.95,745.05,-4.8,25.9
2.2,0.0,0.0,0.75,2.75,0.0,0.0,1.5,0.0,0.5,0.5,0.25,0.0,0.25,-0.36,0.2,0.83,47.76,16.9,22.2,3.25,2.0,6.75,10.5,9.25,7.0,2.25,2.5,1.0,2.75,2.0,0.0,2.0,0.14,0.08,0.95,786.23,-6.8,32.4
2.22,1.0,0.0,0.5,1.75,0.0,0.0,0.25,0.0,0.5,0.5,0.0,0.0,0.25,-0.23,0.39,0.89,65.32,17.7,31.6,3.25,2.25,7.25,11.0,9.5,6.75,2.5,1.75,1.0,2.25,1.75,0.0,1.5,0.14,0.08,0.95,819.75,-8.2,37.4
2.24,1.0,0.0,1.25,0.75,0.0,0.0,0.0,0.0,0.5,0.5,0.5,0.0,0.25,-0.11,0.45,1.08,77.14,20.1,19.7,4.5,2.5,7.75,11.5,9.5,6.5,2.5,1.75,1.0,1.5,1.0,0.0,1.5,0.08,0.14,0.95,851.4,-9.6,42.7
2.26,0.75,0.0,1.5,1.75,0.0,0.0,0.25,0.0,0.5,0.5,0.5,0.0,0.25,0.2,0.52,1.45,89.8,20.0,25.3,5.5,2.75,8.75,12.5,9.5,6.25,2.5,1.25,1.0,1.5,0.75,0.0,1.5,0.08,0.14,0.95,890.02,-11.2,45.9
2.28,0.25,0.0,1.0,1.25,0.0,0.0,0.0,0.0,0.5,0.5,0.25,0.0,0.5,0.14,0.58,1.58,84.86,14.7,6.9,5.5,2.5,8.75,12.5,9.5,6.0,2.75,1.0,0.75,1.25,0.25,0.0,1.0,0.08,0.14,0.95,903.28,-11.9,49.7
2.3,0.25,0.0,0.5,1.0,0.0,0.0,0.0,0.0,0.5,0.5,0.0,0.0,0.25,-0.05,0.64,1.64,74.21,13.3,9.7,5.75,2.5,9.25,12.5,9.5,6.0,2.75,0.25,0.5,1.5,0.25,0.0,1.0,0.08,0.14,0.95,907.75,-12.5,51.1
2.32,1.0,0.0,1.0,1.0,0.0,0.0,0.25,0.0,0.25,0.5,0.0,0.0,0.25,-0.11,0.77,1.7,66.66,20.7,34.4,6.0,2.5,9.25,12.5,9.5,5.75,2.5,1.0,0.5,1.25,0.25,0.0,0.5,0.08,0.14,0.89,902.97,-12.7,52.4
2.34,0.75,0.0,1.25,0.75,0.0,0.0,0.25,0.0,0.5,0.5,0.0,0.0,0.25,-0.23,0.95,1.77,62.92,20.7,26.7,6.25,2.5,9.25,12.5,9.5,5.5,2.75,0.25,0.5,1.25,0.25,0.0,1.25,0.08,0.14,0.95,898.0,-13.0,51.5
2.36,1.0,0.0,1.25,1.0,0.0,0.0,0.0,0.0,0.25,0.5,0.0,0.0,0.25,-0.17,1.02,1.83,63.75,21.4,36.2,6.75,2.5,10.5,12.5,9.5,4.75,3.0,0.0,0.5,1.25,0.25,0.0,0.75,0.08,0.14,0.95,895.04,-14.8,54.3
2.38,0.75,0.0,0.75,0.75,0.0,0.0,0.0,0.0,0.5,0.25,0.0,0.0,0.25,-0.05,1.14,1.77,59.55,20.3,29.1,6.75,2.5,10.5,12.5,9.25,4.5,3.0,0.0,0.5,1.25,0.25,0.0,0.75,0.02,0.14,0.95,889.58,-15.1,54.4
2.4,1.0,0.0,1.25,0.5,0.0,0.0,0.0,0.0,0.5,0.25,0.0,0.0,0.25,0.33,0.95,1.14,60.43,23.9,35.7,6.75,2.0,10.5,11.0,8.5,2.5,3.25,0.25,0.5,1.25,0.25,0.0,0.25,0.02,0.2,1.02,847.81,-17.1,55.9
2.42,1.0,0.0,0.75,0.75,0.0,0.0,0.0,0.0,0.5,0.25,0.0,0.0,0.25,0.08,1.27,1.45,56.08,21.2,33.7,6.0,1.0,10.5,9.0,7.75,2.25,2.5,0.0,0.25,0.0,0.25,0.0,0.0,0.02,0.2,1.02,754.1,-18.9,60.8
2.44,1.0,0.0,1.0,0.5,0.0,0.0,0.0,0.0,0.5,0.5,0.0,0.0,0.25,0.14,1.14,1.08,55.86,20.2,26.5,6.0,0.75,9.25,8.0,5.25,0.0,1.75,0.0,0.25,0.0,0.0,0.0,0.0,0.08,0.27,1.08,615.7,-23.0,64.5
2.46,1.0,0.0,1.25,0.5,0.0,0.0,0.0,0.0,0.5,0.5,0.0,0.0,0.0,0.39,1.33,0.77,57.55,23.8,38.3,6.0,0.25,9.25,7.25,5.25,0.0,1.25,0.0,0.0,0.0,0.0,0.0,0.0,0.08,0.27,1.27,498.09,-23.4,65.2
2.48,1.0,0.0,0.75,0.75,0.0,0.0,0.0,0.0,0.5,0.0,0.0,0.0,0.25,0.52,1.83,0.64,56.49,24.1,42.1,6.25,0.0,9.25,5.5,1.5,0.0,0.75,0.0,0.0,0.0,0.0,0.0,0.0,0.14,0.33,1.33,382.1,-29.0,68.4
2.5,0.0,0.0,1.0,0.5,0.0,0.0,0.0,0.0,0.25,0.5,0.0,0.0,0.25,0.45,2.27,0.45,50.14,15.6,6.8,6.0,0.0,8.75,4.5,0.5,0.0,0.5,0.0,0.0,0.0,0.0,0.0,0.0,0.27,0.45,1.39,303.47,-31.1,69.9
2.52,0.0,0.0,0.75,0.5,0.0,0.0,0.0,0.0,0.0,1.25,0.0,0.0,0.5,0.52,2.89,0.02,47.53,3.8,-24.0,5.75,0.0,8.0,3.25,0.0,0.0,0.25,0.0,0.0,0.0,0.25,0.0,0.0,0.39,0.45,1.45,248.79,-32.7,69.6
2.54,0.25,0.0,0.75,0.5,0.0,0.0,0.0,0.0,0.5,2.25,0.0,1.0,1.75,0.27,0.7,0.64,68.04,0.2,-56.0,4.5,0.0,7.0,3.0,0.0,0.0,0.5,0.0,0.0,0.0,0.0,0.0,0.0,0.2,0.45,1.45,198.82,-32.7,70.2
2.56,0.0,0.0,0.25,0.5,0.0,0.0,0.0,0.0,0.25,4.75,2.75,2.0,4.5,-1.42,0.58,3.45,134.29,-4.6,-83.0,3.0,0.0,6.0,3.25,1.5,0.75,0.75,0.0,0.5,1.25,0.0,0.0,1.0,0.27,0.52,1.27,175.31,-19.7,41.6
2.58,0.25,0.0,0.0,0.25,0.0,0.0,0.0,0.0,0.0,3.25,0.0,1.0,3.0,-0.05,0.52,1.77,155.67,-9.1,-83.8,3.0,0.5,4.75,3.0,0.0,1.0,1.0,0.25,0.5,1.25,0.0,0.0,0.25,0.2,0.58,1.08,156.11,-21.1,46.5
2.6,0.25,0.0,0.0,0.5,0.0,0.0,0.0,3.5,0.25,1.5,0.0,0.0,1.75,0.08,0.02,0.95,164.57,-11.1,-51.6,0.25,0.0,3.0,0.75,1.25,0.0,0.5,0.0,0.0,0.0,0.25,0.0,0.0,0.33,0.33,1.89,106.34,-24.1,53.4
2.62,0.0,0.0,0.0,1.0,0.0,0.0,0.0,3.25,0.0,1.5,0.0,0.0,1.5,-0.17,0.2,1.02,150.58,-11.0,-47.4,0.5,0.5,2.75,1.75,1.75,1.0,0.25,0.0,0.5,0.75,0.25,0.0,0.5,0.77,-0.05,1.77,88.05,-11.9,34.3
2.64,0.75,0.0,0.0,2.0,0.0,0.0,0.25,4.0,0.25,3.25,0.5,1.0,1.5,-0.23,0.14,0.89,165.75,-4.3,-39.6,0.5,0.25,2.75,1.25,1.25,1.0,0.25,0.5,0.5,1.25,0.75,0.0,0.5,1.08,-1.8,0.08,82.32,-9.8,17.3
2.66,0.25,0.0,0.0,2.0,0.0,1.25,0.0,4.75,1.0,4.75,2.25,2.0,2.5,-0.11,0.2,0.95,213.94,-5.7,-51.2,0.25,0.5,2.75,1.0,1.25,1.0,0.0,0.0,0.5,0.75,0.0,0.0,0.75,1.83,-0.23,1.08,87.72,-10.8,28.3
2.68,0.0,0.0,0.0,1.5,1.0,1.5,0.25,5.0,1.0,4.75,4.0,2.0,3.0,-0.05,0.02,1.02,274.5,-5.6,-51.6,0.25,0.25,2.75,0.75,1.25,1.0,0.25,0.0,0.5,1.25,0.25,0.0,0.75,0.02,1.77,1.39,95.4,-9.5,17.3
2.7,0.0,0.0,0.0,2.5,0.5,2.25,0.0,5.75,1.0,4.75,3.5,2.0,2.75,-0.23,0.02,0.89,325.78,-5.9,-45.9,0.5,0.25,2.75,0.75,1.25,0.75,0.0,0.25,0.5,1.25,0.25,0.0,0.5,1.89,-0.92,0.7,104.14,-10.6,20.8
2.72,2.25,0.0,1.25,2.5,2.0,3.5,0.25,6.0,1.5,4.75,3.25,1.0,2.75,-0.17,0.08,0.95,381.18,-2.0,-20.3,0.5,0.5,2.5,0.75,1.25,1.0,0.25,0.0,0.5,1.5,0.0,0.0,0.75,-1.67,1.77,1.45,113.26,-8.7,20.2
2.74,2.5,1.0,1.25,4.25,4.0,4.75,0.25,6.25,1.25,3.25,2.5,1.0,1.5,-0.11,0.08,0.95,441.64,-0.6,2.1,0.5,0.25,2.75,1.0,1.25,1.0,0.5,0.0,0.5,1.0,0.25,0.0,1.0,1.52,-0.36,0.27,121.49,-10.6,19.4
2.76,2.75,1.0,1.25,4.5,5.25,5.5,0.5,6.25,1.0,2.25,1.0,1.0,1.25,-0.17,0.08,0.95,489.72,-0.7,12.9,0.25,0.5,2.5,0.75,1.5,1.0,0.25,0.5,0.5,0.0,0.25,0.0,0.75,-3.17,0.45,0.33,127.14,-10.4,29.5
2.78,2.75,1.0,1.5,6.25,6.25,6.25,0.25,5.75,0.75,1.5,0.75,0.5,0.5,-0.17,0.14,0.95,529.14,0.3,25.6,0.25,0.25,2.75,1.25,1.75,1.0,0.25,0.0,0.5,1.25,0.0,0.0,0.5,-5.11,-3.42,1.45,135.14,-9.7,27.1
2.8,2.75,1.75,1.5,7.75,7.75,7.25,0.0,5.0,0.5,1.5,0.75,0.0,0.25,-0.11,0.2,1.02,576.36,0.7,34.3,0.5,0.25,2.0,0.75,1.25,1.0,0.25,0.0,0.5,0.75,0.0,0.0,0.5,-0.55,1.2,-0.42,129.61,-9.7,28.4
2.82,4.25,2.5,2.0,8.0,8.25,7.5,0.0,4.5,0.25,1.5,0.5,0.0,0.25,-0.11,0.2,1.08,638.25,2.6,40.5,0.5,0.25,2.25,1.0,1.5,0.75,0.0,0.0,0.5,1.0,0.0,0.0,0.5,-1.17,0.14,1.08,133.07,-10.2,27.9
2.84,4.75,2.5,1.75,9.0,8.75,7.75,0.0,3.5,0.0,1.0,0.75,0.0,0.25,-0.17,0.27,1.08,681.29,3.5,44.7,0.5,0.25,2.0,0.75,1.25,1.0,0.25,0.0,0.5,1.25,0.0,0.0,0.5,-1.36,0.02,1.14,132.38,-8.2,22.2
2.86,0.0,2.75,1.25,8.0,9.0,7.25,0.0,3.0,0.0,0.75,0.5,0.0,0.25,-0.3,0.27,1.27,655.97,-0.6,40.7,0.5,0.25,1.75,0.75,1.75,1.0,0.25,0.0,0.5,0.5,0.25,0.0,0.5,-0.42,0.08,0.83,127.15,-8.7,29.2
2.88,0.0,3.75,0.0,8.75,8.5,6.5,0.0,2.25,0.0,0.5,0.0,0.0,0.5,-0.23,0.2,1.2,600.61,-0.5,45.4,0.5,0.25,1.75,0.75,1.5,1.0,0.25,0.0,0.5,1.0,0.75,0.0,1.0,-0.3,-0.05,0.08,130.57,-6.6,9.8
2.9,6.75,4.0,0.25,7.75,0.0,4.25,0.0,2.0,0.0,0.5,0.75,0.0,0.25,-0.17,0.27,1.14,505.46,11.1,55.1,0.25,0.25,1.75,0.75,1.5,1.0,0.25,0.0,0.5,1.25,0.0,0.0,0.0,-1.23,-0.48,-0.17,128.32,-7.4,28.6
2.92,6.25,4.0,0.0,7.0,0.0,2.75,0.0,0.0,0.0,0.5,0.75,0.0,0.25,-0.17,0.33,1.02,409.03,14.9,64.1,0.25,0.25,1.5,0.75,1.5,1.0,0.25,0.0,0.5,0.75,0.0,0.0,0.75,-2.8,-1.36,0.77,124.28,-5.7,20.4
2.94,7.0,3.25,0.0,4.5,0.0,0.0,0.0,0.0,0.0,0.5,0.0,0.0,0.25,-0.17,0.45,1.14,315.92,22.1,76.7,0.25,0.25,1.75,0.75,1.25,1.0,0.25,0.0,0.5,1.0,0.25,0.0,0.5,-1.61,0.02,-0.42,119.98,-7.3,18.7
2.96,5.5,2.5,0.0,3.75,0.0,0.0,0.0,0.0,0.0,0.5,0.0,0.0,0.25,-0.48,0.64,0.95,244.94,21.6,74.1,0.25,0.5,1.5,0.75,1.25,1.0,0.25,0.0,0.5,1.0,0.75,0.0,1.0,0.14,0.08,0.08,122.64,-5.5,7.2
2.98,3.25,1.0,0.0,2.5,0.0,0.0,0.0,0.0,0.0,0.5,0.0,0.0,0.5,-3.55,1.77,-0.48,163.65,19.3,59.2,0.5,0.25,1.5,0.75,1.5,0.75,0.0,0.0,0.5,1.0,0.25,0.0,0.75,1.2,0.45,-0.48,122.5,-6.5,16.2
3.0,0.75,0.0,0.0,1.5,0.0,0.0,0.0,0.0,0.0,0.0,0.0,0.0,0.25,-3.98,1.45,1.64,72.01,18.9,51.9,0.0,0.25,1.5,0.5,1.5,0.0,0.5,0.25,0.5,1.5,1.0,0.25,0.25,-1.42,0.77,-2.11,123.06,-7.5,-2.6
3.02,0.0,0.0,0.0,0.0,0.0,0.0,0.0,0.0,0.0,0.25,0.0,0.0,0.0,-2.17,-0.42,-0.05,0.0,-15.7,-75.5,0.25,0.0,1.25,0.75,1.25,0.5,0.25,0.0,0.5,1.0,0.0,0.0,1.0,-4.42,1.02,1.39,116.11,-5.1,5.2
3.04,0.0,0.0,0.0,0.25,0.0,0.0,0.0,0.0,0.0,0.0,0.0,0.0,0.0,-0.73,2.33,4.64,0.0,17.2,57.9,0.5,0.25,1.25,0.75,1.5,1.0,0.25,0.0,0.5,1.0,0.25,0.0,0.5,-4.23,0.83,1.14,116.75,-5.7,19.6
3.06,0.0,0.0,0.0,0.0,0.0,0.0,0.0,0.0,0.0,0.0,0.0,0.0,0.0,2.58,2.02,1.14,0.0,0.0,0.0,0.0,0.25,1.5,0.75,1.5,0.75,0.0,0.0,0.25,1.0,0.25,0.0,0.5,-1.23,-0.05,1.64,111.75,-5.2,17.3
3.08,0.0,0.0,0.0,0.0,0.0,0.0,0.0,0.0,0.0,0.0,0.0,0.0,0.0,0.02,0.2,1.14,0.0,0.0,0.0,0.0,0.25,1.5,0.75,2.25,0.5,0.25,0.0,0.5,0.75,0.0,0.0,1.0,-0.98,2.52,1.95,115.89,-5.0,16.7
3.1,0.0,0.0,0.0,0.0,0.0,0.0,0.0,0.0,0.0,0.0,0.0,0.0,0.0,-0.48,-0.8,1.27,0.0,0.0,0.0,0.25,0.5,1.5,0.75,1.25,0.25,0.25,0.0,0.5,1.0,0.0,0.0,0.25,0.14,0.77,0.89,111.93,-10.2,27.0
3.12,0.0,0.0,0.0,0.5,0.0,0.0,0.0,0.0,0.0,0.5,0.0,0.0,0.0,-0.36,-0.48,1.77,0.0,1.1,-7.2,0.25,0.25,0.75,0.75,1.25,0.5,0.0,0.0,0.5,1.0,0.25,0.0,0.5,-0.55,0.7,0.64,106.49,-3.9,10.4
3.14,1.0,0.0,0.0,0.5,0.0,0.0,0.0,0.0,0.0,0.5,0.0,0.0,0.0,0.33,-1.3,0.39,0.0,17.2,42.8,0.5,0.25,1.5,0.75,1.0,0.25,0.25,0.0,0.25,0.75,0.25,0.0,0.75,-0.8,-0.17,1.08,102.49,-10.6,17.4
3.16,1.0,0.0,0.0,0.5,0.0,0.0,0.0,0.0,0.0,0.5,0.0,0.0,0.25,-0.36,-0.36,-0.05,0.0,13.6,25.1,0.5,0.25,1.75,0.75,1.25,0.5,0.25,0.0,0.5,1.25,0.25,0.0,0.5,-0.8,-1.17,0.45,106.58,-9.2,17.2
3.18,0.25,0.0,0.0,0.0,0.0,0.0,0.0,0.0,0.0,0.5,0.0,0.0,0.25,-1.11,1.08,-0.23,0.0,-3.2,-43.5,0.25,0.25,1.0,0.75,1.25,0.5,0.0,0.0,0.25,0.75,0.0,0.0,0.5,-0.73,-2.42,0.08,101.15,-5.7,22.2
3.2,1.0,0.0,0.0,0.5,0.0,0.0,0.0,0.0,0.0,0.25,0.0,0.0,0.0,-1.42,1.58,-0.48,11.05,22.1,60.2,0.25,0.0,1.5,0.75,2.25,0.5,0.25,0.25,0.25,1.0,0.25,0.0,0.75,-0.17,-1.3,0.39,109.9,-4.8,14.9
3.22,0.0,0.0,0.0,0.5,0.0,0.0,0.0,0.0,0.0,0.5,0.0,0.0,0.0,-1.48,0.95,-0.61,17.82,1.1,-7.2,0.25,0.0,1.5,0.75,1.25,0.25,0.25,0.0,0.25,1.0,0.0,0.0,0.5,0.45,-0.36,0.27,106.09,-8.9,17.8
3.24,0.75,0.0,0.0,0.5,0.0,0.0,0.0,0.0,0.0,0.5,0.0,0.0,0.0,-1.73,0.52,-0.55,26.78,14.8,35.4,0.25,0.25,0.75,0.75,0.0,0.5,0.25,0.25,0.25,1.0,0.25,0.0,1.25,0.33,0.2,0.08,100.01,-2.7,-16.6
3.26,0.0,0.0,0.0,0.5,0.0,0.0,0.0,0.0,0.0,0.5,0.0,0.0,0.25,-1.92,0.39,-0.55,26.59,-1.8,-27.8,0.25,0.0,1.5,0.75,1.5,0.75,0.0,0.0,0.5,1.25,0.5,0.0,0.75,-0.11,-0.05,0.08,103.55,-4.9,5.5
3.28,0.0,0.0,0.0,0.5,0.0,0.0,0.0,0.0,0.25,0.5,0.0,0.0,0.0,-1.36,0.83,-0.11,26.36,3.2,-13.3,0.25,0.25,1.25,0.75,1.25,0.75,0.25,0.0,0.25,1.0,0.75,0.0,0.75,-1.42,-0.23,0.14,107.87,-5.4,6.9
3.3,0.0,0.0,0.0,0.5,0.0,0.0,0.0,0.0,0.25,0.5,0.0,0.0,0.25,-0.36,0.52,-0.17,25.2,0.4,-29.6,0.0,0.25,1.5,0.75,1.25,0.75,0.25,0.0,0.5,1.0,0.0,0.0,0.75,-2.3,-0.36,0.77,111.89,-5.4,12.7
3.32,0.0,0.0,0.0,0.5,0.0,0.0,0.0,0.0,0.25,0.5,0.0,0.0,0.25,0.08,0.2,-0.36,24.77,0.4,-29.6,0.25,0.25,1.25,0.75,1.25,1.0,0.25,0.0,0.25,1.25,0.25,0.0,0.5,-2.05,-0.17,0.77,113.94,-4.1,14.5
3.34,0.0,0.0,0.0,0.5,0.0,0.0,0.0,0.0,0.25,0.25,0.0,0.0,0.25,0.33,0.39,-0.23,22.69,3.5,-20.6,0.25,0.25,1.5,0.75,1.5,0.5,0.25,0.0,0.25,0.75,0.0,0.0,0.5,-1.17,-0.05,0.64,113.82,-8.3,26.6
3.36,0.25,0.0,0.0,0.5,0.0,0.0,0.0,0.0,0.25,0.5,0.0,0.0,0.25,0.64,0.58,0.2,23.14,4.9,-12.7,0.25,0.0,0.75,0.75,1.25,0.25,0.25,0.0,0.25,0.75,0.0,0.0,0.25,-0.55,0.08,0.33,100.92,-6.7,22.6
3.38,0.0,0.0,0.0,0.5,0.0,0.0,0.0,0.0,0.0,0.5,0.0,0.0,0.25,-1.36,0.58,-0.67,21.53,-1.8,-27.8,0.25,0.0,1.0,0.75,1.5,0.5,0.0,0.0,0.25,1.0,0.0,0.0,0.5,0.14,1.39,0.64,94.78,-4.1,16.3
3.4,0.0,0.0,0.0,0.5,0.0,0.0,0.0,0.0,0.25,0.5,0.0,0.0,0.0,-2.3,0.64,-0.8,21.26,3.2,-13.3,0.25,0.0,1.0,0.75,1.25,0.5,0.25,0.0,0.25,0.75,0.0,0.0,0.5,-0.86,-1.17,-0.17,88.86,-5.9,18.7
3.42,0.0,0.0,0.0,0.75,0.0,0.0,0.0,0.0,0.25,0.5,0.0,0.0,0.0,-2.48,-0.73,-1.17,22.37,5.6,-1.1,0.0,0.25,1.25,0.75,1.25,1.0,0.25,0.0,0.25,1.0,0.25,0.0,0.75,-1.17,-0.48,0.58,95.47,-3.2,10.4
3.44,0.0,0.0,0.0,0.5,0.0,0.0,0.0,0.0,0.25,0.5,0.0,0.0,0.0,-2.48,-0.73,0.14,21.33,3.2,-13.3,0.25,0.0,1.25,0.75,1.5,0.75,0.5,0.0,0.25,1.0,0.25,0.0,0.5,-1.11,-0.3,0.45,99.55,-5.6,15.8
3.46,0.75,0.0,0.0,0.5,0.0,0.0,0.0,0.0,0.25,0.0,0.0,0.0,0.25,-1.73,-0.36,0.33,24.41,19.0,35.3,0.5,0.25,1.0,0.5,1.25,1.0,0.25,0.0,0.25,0.5,0.0,0.0,1.0,-0.98,-0.42,0.33,105.12,-4.0,17.7
3.48,0.5,0.0,0.0,0.5,0.0,0.0,0.0,0.0,0.25,0.25,0.0,0.0,0.5,-1.23,0.08,0.33,27.23,8.6,-4.4,0.25,0.25,1.25,0.75,1.25,0.75,0.25,0.0,0.25,1.0,0.25,0.0,0.0,-0.67,-0.36,0.27,104.11,-7.4,27.4
3.5,0.0,0.0,0.0,0.5,0.0,0.0,0.0,0.0,0.25,0.25,0.0,0.0,0.5,-0.8,0.33,0.02,28.29,0.6,-35.5,0.5,0.25,0.5,0.75,1.5,1.0,0.25,0.0,0.25,0.75,0.0,0.0,0.5,-0.61,-0.3,0.39,101.33,-2.1,24.2
3.52,1.0,0.0,0.0,0.5,0.0,0.0,0.0,0.0,0.25,0.5,0.0,0.0,0.25,-0.55,0.45,-0.23,33.08,13.5,18.7,0.25,0.0,1.0,0.75,1.0,0.75,0.25,0.0,0.25,0.75,0.25,0.0,0.75,-0.73,-0.36,0.39,98.6,-4.6,8.4
3.54,1.0,0.0,0.0,0.5,0.0,0.0,0.0,0.0,0.25,0.25,0.0,0.0,0.25,-0.36,0.39,-0.11,35.81,16.8,29.4,0.25,0.0,1.25,0.5,1.25,0.75,0.25,0.0,0.25,0.75,0.25,0.0,1.0,-0.86,-0.42,0.45,99.2,-4.4,5.9
3.56,1.0,0.0,0.0,0.5,0.0,0.0,0.0,0.0,0.25,0.5,0.0,0.0,0.25,-0.3,0.27,0.2,39.91,13.5,18.7,0.25,0.0,0.75,0.75,1.0,0.5,0.0,0.0,0.25,1.0,0.25,0.0,0.5,-0.8,-0.48,0.58,94.42,-3.5,6.1
3.58,1.0,0.0,0.0,0.75,0.0,0.0,0.0,0.0,0.25,0.5,0.0,0.0,0.25,-0.48,0.08,0.33,43.47,13.8,22.5,0.0,0.0,1.25,0.5,1.5,0.5,0.25,0.0,0.25,0.5,0.25,0.0,1.0,-0.73,-0.42,0.64,94.9,-4.7,6.8
3.6,1.0,0.0,0.0,0.5,0.0,0.0,0.0,0.0,0.25,0.25,0.0,0.0,0.5,-0.55,0.08,0.02,44.91,13.6,14.8,0.5,0.0,0.75,0.5,1.25,0.5,0.0,0.0,0.25,1.0,0.5,0.0,0.75,-0.86,-0.55,0.7,94.28,-3.4,1.6
3.62,1.0,0.0,0.0,0.5,0.0,0.0,0.0,0.25,0.25,0.5,0.0,0.0,0.25,-1.11,0.08,-0.11,46.55,10.7,13.4,0.25,0.0,1.25,0.5,1.25,0.5,0.25,0.0,0.25,1.0,0.25,0.0,0.5,-0.92,-0.42,0.7,94.01,-6.1,11.2
3.64,1.0,0.0,0.0,0.5,0.0,0.0,0.0,0.0,0.25,0.25,0.0,0.0,0.25,-1.48,0.14,-0.36,44.48,16.8,29.4,0.25,0.25,0.5,0.75,1.5,0.5,0.25,0.0,0.25,1.25,0.25,0.0,0.5,-0.98,-0.36,0.64,95.19,-1.7,9.2
3.66,1.0,0.0,0.0,0.5,0.0,0.0,0.0,0.75,0.25,0.5,0.0,0.0,0.5,-1.67,0.2,-0.3,48.78,4.9,-3.2,0.0,0.0,1.0,0.75,1.25,0.5,0.0,0.0,0.25,0.75,0.25,0.0,0.5,-0.98,-0.3,0.58,91.79,-4.3,11.0
3.68,0.5,0.0,0.0,0.5,0.0,0.0,0.0,1.0,0.25,0.25,0.25,0.0,0.25,-1.61,0.14,-0.17,49.36,2.2,-12.6,0.25,0.25,1.25,0.75,1.25,0.5,0.0,0.0,0.25,1.0,0.25,0.0,1.25,-0.92,-0.3,0.58,98.05,-4.2,2.9
3.7,1.0,0.0,0.0,0.25,0.0,0.0,0.0,1.25,0.25,0.0,0.0,0.0,0.25,-1.17,0.14,0.02,50.72,5.3,6.8,0.25,0.0,0.75,0.75,1.25,0.75,0.25,0.0,0.25,0.5,0.0,0.0,0.0,-0.86,-0.3,0.52,92.19,-6.0,35.9
3.72,1.0,0.0,0.0,0.5,0.0,0.0,0.0,1.25,0.25,0.5,0.0,0.0,0.25,-0.8,0.14,0.08,54.2,3.3,-0.6,0.0,0.0,1.0,0.75,1.75,0.25,0.25,0.0,0.25,0.75,0.0,0.0,0.5,-0.73,-0.3,0.52,92.14,-5.0,18.4
3.74,1.0,0.0,0.0,0.5,0.0,0.0,0.0,1.75,0.25,0.5,0.0,0.0,0.25,-0.73,0.14,0.08,60.27,0.9,-5.1,0.0,0.0,0.75,0.5,1.25,0.5,0.25,0.0,0.25,1.0,0.0,0.0,1.0,-0.73,-0.36,0.52,87.75,0.0,-4.2
3.76,1.0,0.0,0.0,0.5,0.0,0.0,0.0,1.5,0.25,0.5,0.0,0.0,0.25,-0.86,0.14,0.02,63.23,2.0,-3.0,0.25,0.0,0.75,0.75,1.75,0.25,0.25,0.0,0.25,0.75,0.25,0.0,0.5,-0.8,-0.36,0.52,89.78,-5.0,15.8
3.78,1.0,0.0,0.0,0.5,0.0,0.0,0.0,1.75,0.0,0.25,0.0,0.0,0.25,-0.92,0.14,0.02,64.7,1.3,1.8,0.0,0.0,1.5,0.5,1.25,0.5,0.0,0.0,0.25,1.0,0.25,0.0,0.5,-0.92,-0.36,0.58,90.15,-5.9,9.7
3.8,1.0,0.0,0.0,0.5,0.0,0.0,0.0,1.75,0.25,0.25,0.0,0.0,0.25,-0.86,0.14,-0.05,65.47,1.9,-0.7,0.0,0.25,0.5,0.5,1.25,0.0,0.0,0.0,0.25,0.75,0.25,0.0,0.5,-0.92,-0.36,0.64,85.03,-3.1,5.2
3.82,0.75,0.0,0.0,1.0,0.0,0.0,0.0,1.75,0.25,0.25,0.0,0.0,0.5,-0.98,0.14,-0.05,68.03,1.1,-5.2,0.0,0.0,0.75,0.75,1.5,0.5,0.0,0.0,0.0,0.25,0.25,0.0,0.5,-0.92,-0.36,0.58,80.02,-3.8,22.6
3.84,0.75,0.0,0.0,0.5,0.0,0.0,0.0,1.75,0.25,0.25,0.0,0.0,0.25,-1.11,0.14,-0.05,66.7,0.0,-6.8,0.25,0.0,0.5,0.75,1.25,1.0,0.0,0.25,0.25,0.5,0.25,0.0,0.5,-0.86,-0.36,0.64,79.89,-0.2,13.6
3.86,1.0,0.0,0.0,0.5,0.0,0.0,0.0,1.25,0.25,0.25,0.0,0.0,0.25,-1.23,0.14,-0.05,64.06,4.6,4.7,0.25,0.0,0.5,0.75,1.25,0.5,0.25,0.0,0.25,0.75,0.0,0.0,0.75,-0.8,-0.36,0.64,80.61,-1.9,8.5
3.88,0.25,0.0,0.0,0.5,0.0,0.0,0.0,1.75,0.25,0.25,0.0,0.0,0.25,-1.17,0.02,-0.05,58.72,-5.1,-21.8,0.25,0.0,0.75,0.75,1.25,0.25,0.25,0.0,0.25,0.75,0.0,0.0,0.5,-0.73,-0.42,0.58,80.96,-5.7,15.9
3.9,0.0,0.0,0.0,0.5,0.0,0.0,0.0,1.75,0.25,0.5,0.0,0.0,0.25,-1.05,0.02,-0.05,54.02,-8.7,-34.5,0.25,0.0,0.75,0.75,1.0,0.25,0.0,0.0,0.25,1.0,0.0,0.0,0.5,-0.73,-0.42,0.64,80.16,-4.5,8.8
3.92,0.0,0.0,0.0,0.5,0.0,0.0,0.0,1.75,0.0,0.25,0.0,0.0,0.25,-0.98,0.02,-0.11,48.39,-10.0,-30.4,0.25,0.25,0.75,0.75,1.25,0.25,0.25,0.0,0.25,1.0,0.0,0.0,0.75,-0.73,-0.42,0.64,82.96,-4.2,10.1
3.94,0.0,0.0,0.0,0.5,0.0,0.0,0.0,1.25,0.25,0.25,0.0,0.0,0.25,-0.92,0.02,-0.11,42.91,-6.4,-29.6,0.5,0.25,1.0,0.75,1.25,0.5,0.25,0.0,0.25,0.5,0.0,0.0,0.0,-0.73,-0.48,0.7,85.68,-10.5,43.0
3.96,0.0,0.0,0.0,0.5,0.0,0.0,0.0,1.5,0.25,0.25,0.0,0.0,0.0,-0.92,0.02,-0.11,38.06,-6.7,-22.3,0.25,0.0,1.0,0.75,1.25,0.0,0.0,0.0,0.25,0.75,0.25,0.0,0.5,-0.8,-0.42,0.64,85.84,-8.2,12.8
3.98,0.0,0.0,0.0,0.5,0.0,0.0,0.0,1.5,0.25,0.25,0.5,0.0,0.0,-0.98,0.02,-0.11,37.92,-3.9,-30.8,0.25,0.0,0.5,0.75,1.25,0.5,0.25,0.0,0.25,0.5,0.25,0.0,0.5,-0.73,-0.42,0.7,84.5,-4.0,14.6
4.0,0.0,0.0,0.0,0.5,0.0,0.0,0.0,1.25,0.25,0.25,0.0,0.0,0.0,-0.98,-0.05,-0.11,35.49,-5.6,-20.5,0.25,0.25,0.5,0.75,1.25,0.5,0.25,0.0,0.25,0.75,0.25,0.0,1.0,-0.73,-0.48,0.64,87.55,-2.0,4.0
4.02,0.0,0.0,0.0,0.5,0.0,0.0,0.0,1.75,0.25,0.25,0.0,0.0,0.0,-0.98,-0.05,-0.17,36.51,-7.6,-23.8,0.0,0.0,0.25,0.75,1.0,0.0,0.0,0.0,0.0,0.5,0.25,0.0,0.5,-0.73,-0.48,0.64,77.11,-2.0,3.0
4.04,0.0,0.0,0.0,0.5,0.0,0.0,0.0,1.5,0.0,0.0,0.0,0.0,0.0,-0.92,-0.05,-0.17,32.99,-7.9,-13.7,0.5,0.0,0.25,0.5,1.25,0.5,0.25,0.25,0.0,0.75,0.25,0.0,0.5,-0.67,-0.42,0.58,77.04,-0.6,9.3
4.06,0.0,0.0,0.0,0.5,0.0,0.0,0.0,1.5,0.25,0.25,0.0,0.0,0.0,-0.92,-0.05,-0.17,33.47,-6.7,-22.3,0.25,0.25,0.25,0.75,1.25,0.25,0.25,0.0,0.0,0.75,0.25,0.0,1.0,-0.61,-0.42,0.64,75.72,-0.9,1.9
4.08,0.0,0.0,0.0,0.25,0.0,0.0,0.0,1.5,0.0,0.25,0.0,0.0,0.0,-0.92,0.02,-0.17,31.38,-12.2,-30.7,0.0,0.25,0.5,0.75,2.25,0.0,0.25,0.25,0.25,0.25,0.25,0.0,1.0,-0.61,-0.48,0.64,84.32,-2.4,11.9
4.1,0.0,0.0,0.0,0.5,0.0,0.0,0.0,1.5,0.0,0.0,0.0,0.0,0.0,-0.98,0.02,-0.17,30.9,-7.9,-13.7,0.5,0.0,0.0,0.75,1.75,0.0,0.25,0.0,0.25,1.0,0.25,0.0,0.5,-0.61,-0.48,0.64,86.52,-1.8,7.9
4.12,0.0,0.0,0.0,0.25,0.0,0.0,0.0,1.75,0.25,0.25,0.0,0.0,0.0,-0.98,0.02,-0.17,32.28,-10.2,-32.3,0.25,0.25,0.5,0.75,1.25,0.5,0.0,0.0,0.25,0.5,0.25,0.0,0.5,-0.67,-0.48,0.58,88.45,-3.7,18.5
4.14,0.0,0.0,0.0,0.5,0.0,0.0,0.0,0.0,0.25,0.25,0.0,0.0,0.0,-0.98,0.02,-0.17,26.74,7.9,1.8,0.25,0.0,0.5,0.75,1.25,0.25,0.0,0.0,0.25,0.5,0.25,0.0,1.0,-0.67,-0.48,0.64,85.55,-2.8,1.2
4.16,0.0,0.0,0.0,0.5,0.0,0.0,0.0,0.75,0.0,0.25,0.0,0.0,0.0,-0.98,0.02,-0.17,24.46,-4.9,-11.5,0.0,0.25,0.25,0.5,1.25,0.25,0.0,0.0,0.25,0.5,0.25,0.0,0.75,-0.61,-0.48,0.7,78.98,0.1,1.4
4.18,0.0,0.0,0.0,0.5,0.0,0.0,0.0,0.0,0.25,0.0,0.0,0.0,0.0,-0.98,-0.05,-0.17,17.57,15.5,27.0,0.5,0.0,1.25,0.75,1.5,0.0,0.25,0.0,0.0,0.75,0.25,0.0,0.5,-0.61,-0.48,0.7,82.94,-10.3,22.7
4.2,0.0,0.0,0.0,0.5,0.0,0.0,0.0,1.5,0.25,0.5,0.0,0.0,0.0,-0.98,-0.05,-0.17,23.78,-7.5,-27.1,0.25,0.0,0.5,0.75,1.25,0.0,0.25,0.25,0.25,0.75,0.0,0.0,0.5,-0.61,-0.55,0.7,81.48,-4.2,9.8
4.22,0.0,0.0,0.0,0.5,0.0,0.0,0.0,1.25,0.25,0.5,0.0,0.0,0.0,-0.98,-0.05,-0.11,28.14,-6.6,-25.9,0.5,0.0,0.5,0.75,1.25,0.5,0.25,0.0,0.0,0.5,0.25,0.0,0.5,-0.67,-0.48,0.7,82.98,-5.0,21.0
4.24,0.0,0.0,0.0,0.5,0.0,0.0,0.0,1.75,0.25,0.25,0.0,0.0,0.0,-0.98,-0.05,-0.11,36.62,-7.6,-23.8,0.0,0.0,0.75,0.75,1.5,0.25,0.25,0.0,0.0,0.5,0.25,0.0,0.5,-0.67,-0.48,0.7,80.68,-4.7,17.1
4.26,0.0,0.0,0.0,0.5,0.0,0.0,0.0,0.25,0.25,0.25,0.0,0.0,0.0,-0.98,-0.05,-0.17,32.62,3.0,-6.1,0.25,0.0,1.25,0.75,1.0,0.0,0.25,0.0,0.25,0.75,0.25,0.0,0.5,-0.67,-0.48,0.64,83.19,-10.8,13.3
4.28,0.0,0.0,0.0,0.5,0.0,0.0,0.0,1.0,0.25,0.25,0.0,0.0,0.0,-0.98,-0.05,-0.11,32.54,-4.3,-18.2,0.25,0.0,0.5,0.75,1.75,0.0,0.25,0.0,0.0,0.5,0.5,0.0,0.5,-0.61,-0.48,0.7,81.08,-5.5,15.5
4.3,0.0,0.0,0.0,0.5,0.0,0.0,0.0,0.25,0.25,0.5,0.0,0.0,0.0,-1.05,-0.05,-0.11,27.3,0.0,-17.5,0.25,0.25,0.5,0.75,1.25,0.5,0.0,0.0,0.25,0.75,0.25,0.0,0.5,-0.61,-0.48,0.7,83.22,-2.9,14.2
4.32,0.0,0.0,0.0,1.25,0.0,0.0,0.0,0.0,0.25,0.25,0.0,0.0,0.0,-0.98,-0.05,-0.11,28.04,11.9,26.2,0.25,0.25,0.5,0.75,1.25,0.25,0.0,0.0,0.25,0.75,0.25,0.0,0.5,-0.67,-0.48,0.7,83.45,-4.0,13.3
4.34,0.0,0.0,0.0,0.25,0.0,0.0,0.0,0.0,0.25,0.25,0.0,0.0,0.0,-0.92,-0.05,-0.11,21.96,4.7,-17.4,0.0,0.0,0.25,0.5,1.25,0.0,0.0,0.0,0.0,0.0,0.0,0.0,0.75,-0.67,-0.48,0.7,72.59,-1.1,12.8
4.36,0.0,0.0,0.0,0.5,0.0,0.0,0.0,0.0,0.0,0.0,0.0,0.0,0.0,-0.98,-0.05,-0.11,16.85,17.2,57.9,0.25,0.0,1.0,0.5,1.5,0.0,0.0,0.0,0.25,0.75,0.0,0.0,0.5,-0.67,-0.42,0.7,72.18,-6.9,17.1
4.38,0.0,0.0,0.0,0.5,0.0,0.0,0.0,0.0,0.25,0.25,0.25,0.0,0.0,-0.98,-0.05,-0.11,15.2,8.4,-12.9,0.25,0.0,0.25,0.75,1.25,0.0,0.25,0.0,0.0,0.5,0.25,0.0,0.75,-0.61,-0.48,0.7,68.0,-3.4,5.4
4.4,0.0,0.0,0.0,0.5,0.0,0.0,0.0,0.0,0.25,0.0,0.0,0.0,0.0,-1.05,-0.05,-0.17,12.11,15.5,27.0,0.25,0.25,0.5,0.5,1.25,0.25,0.25,0.0,0.25,0.5,0.25,0.0,0.5,-0.61,-0.48,0.7,71.37,-5.0,15.8
4.42,0.0,0.0,0.0,0.25,0.0,0.0,0.0,0.0,0.25,0.0,0.0,0.0,0.0,-1.05,-0.05,-0.17,9.32,14.7,11.1,0.0,0.0,0.5,0.5,1.5,0.25,0.0,0.0,0.0,0.5,0.25,0.0,0.5,-0.67,-0.48,0.7,68.79,-1.2,11.7
4.44,0.0,0.0,0.0,0.5,0.0,0.0,0.0,0.25,0.25,0.0,0.0,0.0,0.25,-0.98,-0.05,-0.17,9.96,3.3,-13.4,0.25,0.0,0.25,0.75,1.0,0.0,0.25,0.0,0.25,0.75,0.25,0.0,1.0,-0.67,-0.48,0.7,71.86,-2.3,-10.0
4.46,0.0,0.0,0.0,0.5,0.0,0.0,0.0,0.0,0.25,0.25,0.0,0.0,0.0,-0.98,-0.05,-0.17,11.64,7.9,1.8,0.25,0.0,0.25,0.5,1.0,0.25,0.0,0.0,0.0,1.0,0.0,0.0,0.5,-0.61,-0.48,0.7,66.76,1.2,1.7
4.48,0.0,0.0,0.0,0.75,0.0,0.0,0.0,0.0,0.25,0.0,0.0,0.0,0.25,-0.92,-0.05,-0.17,14.89,10.0,5.9,0.25,0.0,0.5,0.5,1.25,0.25,0.25,0.75,0.25,0.75,0.25,0.0,0.5,-0.61,-0.48,0.77,72.42,-0.8,0.5
4.5,0.0,0.0,0.0,0.5,0.0,0.0,0.0,0.0,0.25,0.0,0.0,0.0,0.0,-0.98,-0.05,-0.17,15.15,15.5,27.0,0.25,0.25,0.5,0.75,1.25,0.0,0.25,0.0,0.25,0.75,0.25,0.0,1.0,-0.61,-0.48,0.7,77.68,-4.1,1.4
4.52,0.0,0.0,0.25,0.5,0.0,0.0,0.0,0.0,0.25,0.0,0.0,0.0,0.0,-0.98,-0.05,-0.17,15.88,21.2,35.5,0.0,0.0,0.0,0.75,1.0,0.0,0.0,0.0,0.0,0.75,0.0,0.0,0.5,-0.61,-0.48,0.7,71.65,2.8,-1.7
4.54,0.0,0.0,0.0,0.25,0.0,0.0,0.0,0.0,0.25,0.0,0.0,0.0,0.0,-0.98,-0.05,-0.17,12.89,14.7,11.1,0.5,0.0,0.25,0.5,1.25,0.0,0.0,0.0,0.25,0.75,0.5,0.0,0.75,-0.61,-0.48,0.7,72.42,-3.2,-3.7
4.56,0.0,0.0,0.25,0.5,0.0,0.0,0.0,0.0,0.25,0.0,0.25,0.0,0.25,-0.98,-0.05,-0.17,16.45,13.7,-6.5,0.25,0.0,0.75,0.75,1.0,0.25,0.25,0.25,0.0,0.75,0.25,0.0,0.5,-0.61,-0.42,0.7,73.8,-5.0,9.3
4.58,0.0,0.0,0.0,0.5,0.0,0.0,0.0,0.0,0.25,0.0,0.0,0.0,0.25,-0.98,-0.05,-0.17,17.3,8.2,-7.2,0.5,0.0,0.25,0.5,1.25,0.0,0.0,0.0,0.25,0.75,0.5,0.0,0.5,-0.61,-0.48,0.7,75.78,-4.2,2.1
4.6,0.0,0.0,0.25,0.5,0.0,0.0,0.0,0.0,0.25,0.0,0.0,0.0,0.0,-0.98,-0.05,-0.17,18.68,21.2,35.5,0.5,0.0,0.5,0.5,1.25,0.0,0.0,0.0,0.0,0.5,0.25,0.0,0.5,-0.61,-0.48,0.7,72.31,-6.6,17.1
4.62,0.0,0.0,0.25,0.5,0.0,0.0,0.0,0.0,0.25,0.5,0.0,0.0,0.25,-0.98,-0.05,-0.17,21.62,5.8,-16.5,0.0,0.0,0.75,0.75,1.75,0.0,0.25,0.25,0.0,0.75,0.25,0.0,1.0,-0.61,-0.48,0.7,80.33,-2.1,1.0
4.64,0.25,0.0,0.25,0.5,0.0,0.0,0.0,0.0,0.25,0.0,0.0,0.0,0.0,-0.98,-0.11,-0.17,23.42,23.8,47.0,0.5,0.0,0.25,0.75,1.25,0.0,0.25,0.0,0.0,0.5,0.25,0.0,0.5,-0.61,-0.42,0.7,77.56,-6.1,17.3
4.66,0.0,0.0,0.0,0.5,0.0,0.0,0.0,0.0,0.25,0.25,0.0,0.0,0.0,-0.98,-0.05,-0.17,22.13,7.9,1.8,0.0,0.0,0.25,0.5,0.5,0.0,0.25,0.0,0.0,1.0,0.25,0.0,0.5,-0.61,-0.42,0.7,69.2,-0.2,-21.6
4.68,0.0,0.0,0.0,0.5,0.0,0.0,0.0,0.0,0.25,0.0,0.0,0.0,0.0,-0.98,-0.05,-0.17,18.45,15.5,27.0,0.25,0.0,0.75,0.5,1.25,0.0,0.25,0.0,0.0,0.5,0.25,0.0,0.5,-0.61,-0.48,0.7,66.12,-7.7,15.7
4.7,0.0,0.0,0.0,0.5,0.0,0.0,0.0,0.0,0.25,0.0,0.0,0.0,0.0,-0.98,-0.05,-0.17,15.92,15.5,27.0,0.25,0.25,0.25,0.75,1.25,0.0,0.25,0.0,0.0,0.5,0.0,0.0,1.0,-0.61,-0.48,0.7,66.33,-2.5,8.5
4.72,0.0,0.0,0.0,0.5,0.0,0.0,0.0,0.0,0.25,0.0,0.0,0.0,0.0,-0.92,-0.05,-0.17,13.51,15.5,27.0,0.25,0.0,0.5,0.75,1.0,0.0,0.25,0.0,0.0,0.5,0.25,0.0,0.5,-0.61,-0.48,0.7,65.02,-7.1,12.8
4.74,0.0,0.0,0.25,0.5,0.0,0.0,0.0,0.0,0.25,0.5,0.0,0.0,0.0,-0.98,-0.11,-0.17,16.93,9.1,-0.8,0.0,0.25,0.25,0.5,1.5,0.0,0.25,0.0,0.0,1.0,0.25,0.0,0.5,-0.55,-0.48,0.7,68.51,0.0,3.7
4.76,0.0,0.0,0.25,0.5,0.0,0.0,0.0,0.0,0.0,0.25,0.0,0.0,0.0,-0.98,-0.11,-0.17,17.66,14.4,26.3,0.25,0.0,0.25,0.75,1.25,0.0,0.0,0.0,0.0,0.0,0.0,0.0,0.5,-0.55,-0.48,0.7,65.06,-6.0,32.3
4.78,0.0,0.0,0.0,0.5,0.0,0.0,0.0,0.0,0.0,0.25,0.0,0.0,0.0,-0.98,-0.11,-0.17,17.03,6.5,14.7,0.5,0.0,0.25,0.75,1.25,0.0,0.0,0.0,0.0,0.75,0.0,0.0,0.5,-0.55,-0.48,0.7,63.35,-3.8,16.8
4.8,0.25,0.0,0.0,0.5,0.0,0.0,0.0,0.0,0.0,0.25,0.0,0.0,0.0,-1.05,-0.11,-0.17,15.85,13.1,34.0,0.5,0.0,0.25,0.5,1.25,0.0,0.25,0.0,0.0,0.5,0.0,0.0,0.75,-0.61,-0.48,0.7,61.89,-3.8,12.1
4.82,0.0,0.0,0.0,0.25,0.0,0.0,0.0,0.25,0.25,0.25,0.0,0.0,0.0,-1.05,-0.11,-0.17,15.45,-0.6,-22.7,0.25,0.0,1.0,0.5,0.5,0.0,0.0,0.0,0.25,0.5,0.25,0.0,0.5,-0.61,-0.48,0.7,62.38,-11.7,6.4
4.84,0.0,0.0,0.0,0.5,0.0,0.0,0.0,0.0,0.25,0.5,0.0,0.0,0.0,-0.98,-0.05,-0.17,16.46,3.2,-13.3,0.25,0.0,0.5,0.5,1.75,0.0,0.0,0.0,0.0,0.75,0.0,0.0,0.5,-0.61,-0.48,0.7,65.38,-2.4,17.4
4.86,0.0,0.0,0.0,0.5,0.0,0.0,0.0,0.0,0.25,0.25,0.0,0.0,0.0,-0.98,-0.05,-0.17,16.51,7.9,1.8,0.0,0.0,0.25,0.5,1.25,0.0,0.0,0.0,0.0,0.5,0.25,0.0,0.75,-0.61,-0.48,0.7,63.31,0.4,-4.6
4.88,0.0,0.0,0.25,0.5,0.0,0.0,0.0,0.0,0.25,0.25,0.0,0.0,0.0,-0.98,0.02,-0.17,19.14,14.0,13.7,0.0,0.0,0.25,0.75,1.0,0.0,0.0,0.25,0.25,0.75,0.25,0.0,0.5,-0.61,-0.48,0.77,65.28,-0.5,-6.5
4.9,0.25,0.0,0.0,0.25,0.0,0.0,0.0,0.25,0.25,0.0,0.0,0.0,0.25,-0.92,0.02,-0.17,19.95,6.3,-7.5,0.5,0.0,0.25,0.5,1.25,0.0,0.25,0.0,0.0,1.0,0.0,0.0,0.75,-0.55,-0.48,0.77,67.02,-1.7,2.6
4.92,0.0,0.0,0.25,0.5,0.0,0.0,0.0,0.0,0.25,0.0,0.0,0.0,0.25,-0.92,-0.05,-0.23,21.1,14.2,6.4,0.5,0.25,0.5,0.5,1.5,0.0,0.25,0.0,0.0,0.75,0.25,0.0,0.5,-0.55,-0.48,0.77,72.57,-5.8,19.0
4.94,0.0,0.0,0.25,0.25,0.0,0.0,0.0,0.75,0.25,0.0,0.0,0.0,0.25,-0.92,-0.05,-0.23,23.66,0.7,-20.3,0.5,0.0,0.5,0.5,1.0,0.0,0.25,0.0,0.0,0.25,0.25,0.0,0.75,-0.55,-0.48,0.77,71.9,-8.2,12.5
4.96,0.0,0.0,0.0,0.5,0.0,0.0,0.0,1.0,0.25,0.25,0.0,0.0,0.25,-0.98,-0.05,-0.17,28.65,-5.3,-28.5,0.5,0.0,0.25,0.75,1.0,0.0,0.25,0.0,0.0,1.0,0.0,0.0,0.5,-0.61,-0.48,0.77,72.57,-3.9,9.2
4.98,0.0,0.0,0.0,0.5,0.0,0.0,0.0,0.0,0.25,0.25,0.0,0.0,0.25,-0.98,-0.05,-0.17,27.6,3.5,-20.6,0.25,0.0,0.5,0.75,0.5,0.0,0.0,0.0,0.0,0.5,0.25,0.0,0.5,-0.61,-0.48,0.77,65.5,-8.0,5.3
5.0,0.0,0.0,0.0,0.5,0.0,0.0,0.0,0.0,0.25,0.25,0.0,0.0,0.25,-0.98,-0.05,-0.17,26.45,3.5,-20.6,0.0,0.0,0.5,0.75,1.25,0.0,0.0,0.0,0.0,0.75,0.25,0.0,0.75,-0.61,-0.48,0.77,66.24,-1.9,-1.2
5.02,0.0,0.0,0.0,0.5,0.0,0.0,0.0,0.0,0.25,0.0,0.0,0.0,0.25,-0.98,-0.05,-0.17,22.37,8.2,-7.2,0.25,0.0,0.5,0.5,1.75,0.0,0.0,0.0,0.0,0.75,0.25,0.0,0.5,-0.61,-0.48,0.77,68.01,-2.9,12.7
5.04,0.0,0.0,0.0,0.5,0.0,0.0,0.0,0.0,0.25,0.0,0.0,0.0,0.25,-0.98,-0.05,-0.17,19.18,8.2,-7.2,0.5,0.0,0.5,0.5,1.25,0.0,0.0,0.0,0.0,0.75,0.25,0.0,0.5,-0.61,-0.42,0.7,71.35,-5.3,11.9
5.06,0.0,0.0,0.0,0.5,0.0,0.0,0.0,0.0,0.25,0.0,0.0,0.0,0.25,-0.98,-0.05,-0.17,16.88,8.2,-7.2,0.5,0.0,0.25,0.5,1.25,0.0,0.25,0.25,0.0,0.5,0.25,0.0,0.5,-0.61,-0.42,0.7,71.96,-4.1,11.6
5.08,0.0,0.0,0.0,0.5,0.0,0.0,0.0,0.25,0.25,0.0,0.0,0.0,0.25,-0.98,-0.05,-0.17,17.42,3.3,-13.4,0.0,0.0,0.25,0.75,1.25,0.0,0.0,0.0,0.0,1.0,0.25,0.0,0.75,-0.61,-0.48,0.7,71.34,1.1,-8.8
5.1,0.0,0.0,0.0,0.25,0.0,0.0,0.0,1.25,0.25,0.0,0.0,0.0,0.25,-0.98,-0.05,-0.17,22.26,-8.4,-35.2,0.25,0.25,0.25,0.5,1.0,0.0,0.0,0.0,0.0,0.75,0.25,0.0,0.5,-0.55,-0.48,0.7,68.4,-2.6,6.3
5.12,0.5,0.0,0.0,0.25,0.0,0.0,0.0,1.5,0.25,0.0,0.0,0.0,0.25,-0.98,-0.05,-0.17,30.41,-1.7,-12.8,0.0,0.0,0.25,0.5,1.0,0.0,0.0,0.0,0.0,0.75,0.0,0.0,0.5,-0.61,-0.48,0.7,60.69,1.1,-1.6
5.14,0.0,0.0,0.0,0.5,0.0,0.0,0.0,1.25,0.25,0.0,0.0,0.0,0.25,-0.98,-0.05,-0.17,35.11,-5.4,-24.5,0.25,0.0,0.25,0.5,1.25,0.0,0.25,0.0,0.0,0.5,0.5,0.0,0.5,-0.61,-0.48,0.77,59.46,-4.0,4.5
5.16,0.0,0.0,0.0,0.5,0.0,0.0,0.0,0.5,0.25,0.0,0.0,0.0,0.25,-0.98,-0.05,-0.17,33.81,0.0,-17.5,0.25,0.0,0.5,0.5,1.25,0.0,0.0,0.25,0.0,1.0,0.25,0.0,0.5,-0.61,-0.48,0.7,62.92,-1.6,0.4
5.18,0.25,0.0,0.0,0.5,0.0,0.0,0.0,0.25,0.25,0.0,0.0,0.0,0.25,-0.98,-0.05,-0.17,30.53,8.2,3.7,0.5,0.0,0.25,0.5,1.25,0.0,0.0,0.0,0.0,0.5,0.25,0.0,0.5,-0.61,-0.48,0.7,65.04,-4.5,14.3
5.2,0.75,0.0,0.0,0.25,0.0,0.0,0.0,0.0,0.25,0.0,0.0,0.0,0.25,-0.98,-0.05,-0.17,27.59,19.4,31.3,0.25,0.0,0.0,0.5,1.25,0.0,0.25,0.0,0.0,0.75,0.25,0.0,0.5,-0.55,-0.48,0.7,64.33,0.0,0.6
5.22,0.0,0.0,0.0,0.5,0.0,0.0,0.0,1.25,0.25,0.0,0.0,0.0,0.25,-0.98,-0.05,-0.17,30.23,-5.4,-24.5,0.25,0.0,0.5,0.5,1.25,0.0,0.0,0.0,0.0,0.5,0.25,0.0,0.5,-0.55,-0.48,0.7,63.82,-4.9,12.4
5.24,0.0,0.0,0.0,1.0,0.0,0.0,0.0,1.5,0.25,0.25,0.0,0.0,0.25,-0.98,-0.05,-0.17,38.63,-3.5,-16.4,0.25,0.0,0.5,0.75,1.25,0.0,0.0,0.0,0.0,1.0,0.25,0.0,0.5,-0.61,-0.48,0.7,65.91,-3.4,5.6
5.26,0.0,0.0,0.0,0.5,0.0,0.0,0.0,1.5,0.25,0.25,0.0,0.0,0.25,-0.98,-0.05,-0.17,43.89,-7.4,-30.4,0.25,0.0,0.75,0.5,1.0,0.0,0.0,0.25,0.0,1.0,0.25,0.0,0.5,-0.61,-0.48,0.7,68.9,-3.9,0.4
5.28,0.0,0.0,0.0,0.25,0.0,0.0,0.0,1.75,0.25,0.25,0.0,0.0,0.25,-0.98,-0.05,-0.17,47.11,-10.6,-39.5,0.5,0.0,0.0,0.75,1.25,0.0,0.0,0.0,0.0,1.0,0.25,0.0,0.5,-0.61,-0.42,0.7,71.77,-1.1,4.0
5.3,0.0,0.0,0.0,0.5,0.0,0.0,0.0,1.5,0.25,0.0,0.25,0.0,0.25,-0.98,-0.05,-0.17,46.88,-5.0,-30.2,0.25,0.0,0.25,0.5,1.75,0.0,0.0,0.0,0.0,0.5,0.25,0.0,0.5,-0.61,-0.48,0.7,72.26,-1.8,15.0
5.32,0.0,0.0,0.0,0.0,0.0,0.0,0.0,1.75,0.5,0.0,0.0,0.0,0.25,-0.98,-0.05,-0.17,45.18,-10.7,-46.0,0.25,0.25,0.5,0.5,0.5,0.0,0.0,0.0,0.0,0.75,0.0,0.0,0.5,-0.61,-0.48,0.7,66.52,-5.7,8.2
5.34,0.25,0.0,0.0,0.5,0.0,0.0,0.0,1.5,0.25,0.0,0.0,0.0,0.25,-0.98,-0.05,-0.17,43.96,-3.0,-15.4,0.25,0.25,0.75,0.5,1.25,0.0,0.25,0.0,0.0,0.75,0.25,0.0,0.5,-0.61,-0.48,0.7,69.4,-6.7,15.4
5.36,0.25,0.0,0.0,0.5,0.0,0.0,0.0,1.75,0.25,0.25,0.0,0.0,0.25,-0.98,-0.05,-0.17,46.64,-5.1,-21.8,0.25,0.0,0.75,0.5,0.25,0.0,0.0,0.0,0.0,0.5,0.25,0.0,0.5,-0.61,-0.48,0.7,62.13,-10.8,1.0
5.38,0.5,0.0,0.0,0.5,0.0,0.0,0.0,1.5,0.25,0.0,0.0,0.0,0.25,-0.98,-0.05,-0.17,49.07,-0.1,-6.6,0.25,0.0,0.25,0.75,1.0,0.0,0.0,0.0,0.0,1.0,0.25,0.0,0.5,-0.61,-0.48,0.7,62.53,-1.8,-1.0
5.4,0.75,0.0,0.0,0.5,0.0,0.0,0.0,1.5,0.25,0.25,0.0,0.0,0.25,-0.98,-0.05,-0.17,53.12,1.1,-4.5,0.0,0.0,0.25,0.5,1.5,0.0,0.25,0.0,0.0,0.5,0.25,0.0,0.75,-0.61,-0.48,0.7,61.35,-0.2,0.3
5.42,0.5,0.0,0.0,1.0,0.0,0.0,0.0,1.5,0.25,0.0,0.25,0.0,0.25,-0.98,-0.05,-0.17,56.81,2.9,-2.0,0.25,0.0,0.5,0.5,1.0,0.0,0.0,0.0,0.0,0.75,0.25,0.0,0.5,-0.61,-0.48,0.7,62.99,-4.2,3.8
5.44,0.75,0.0,0.25,0.5,0.0,0.0,0.0,1.5,0.25,0.25,0.0,0.0,0.25,-0.98,-0.05,-0.17,59.65,3.6,0.0,0.25,0.25,0.25,0.75,1.25,0.0,0.0,0.0,0.0,0.5,0.25,0.0,0.5,-0.61,-0.48,0.7,64.06,-4.1,17.5
5.46,0.5,0.0,0.25,0.5,0.0,0.0,0.0,1.0,0.25,0.0,0.0,0.0,0.25,-0.98,-0.05,-0.17,55.68,6.5,5.5,0.0,0.25,0.25,0.5,1.0,0.0,0.25,0.0,0.0,0.75,0.0,0.0,0.75,-0.61,-0.48,0.7,62.95,0.0,-1.2
5.48,0.75,0.0,0.0,0.5,0.0,0.0,0.0,1.0,0.25,0.0,0.0,0.0,0.25,-0.98,-0.05,-0.17,51.52,5.9,8.1,0.5,0.25,0.25,0.75,1.25,0.25,0.0,0.0,0.0,0.25,0.25,0.0,0.5,-0.61,-0.48,0.7,65.96,-5.4,27.8
5.5,0.0,0.0,0.0,0.25,0.0,0.0,0.0,0.0,0.25,0.0,0.0,0.0,0.25,-0.98,-0.05,-0.17,36.78,5.2,-29.5,0.25,0.25,0.25,0.5,1.25,0.0,0.0,0.0,0.0,0.75,0.25,0.0,0.75,-0.61,-0.48,0.7,67.75,-1.2,2.6
5.52,0.0,0.0,0.0,0.5,0.0,0.0,0.0,0.0,0.25,0.25,0.0,0.0,0.25,-0.98,-0.05,-0.17,26.66,3.5,-20.6,0.0,0.0,0.5,0.5,1.0,0.0,0.25,0.0,0.0,0.5,0.25,0.0,0.5,-0.61,-0.48,0.7,65.91,-4.6,4.0
5.54,0.25,0.0,0.0,0.0,0.0,0.0,0.0,0.0,0.25,0.0,0.0,0.0,0.25,-0.98,-0.05,-0.17,15.35,10.3,-20.2,0.25,0.0,0.0,0.75,1.25,0.0,0.25,0.0,0.0,0.0,0.0,0.0,0.5,-0.61,-0.48,0.7,60.57,-4.4,29.8
5.56,0.0,0.0,0.25,0.5,0.0,0.0,0.0,0.0,0.5,0.0,0.0,0.0,0.25,-0.98,-0.05,-0.17,14.37,13.9,-0.8,0.25,0.0,1.25,0.5,1.75,0.0,0.0,0.0,0.0,0.75,0.25,0.0,0.75,-0.61,-0.48,0.7,70.11,-6.8,13.7
5.58,0.0,0.0,0.25,0.5,0.0,0.0,0.0,0.0,0.25,0.0,0.0,0.0,0.25,-0.98,-0.05,-0.17,12.83,14.2,6.4,0.5,0.25,0.75,0.5,1.5,0.0,0.25,0.25,0.0,0.75,0.25,0.0,0.75,-0.61,-0.48,0.7,79.24,-5.4,12.7
5.6,0.75,0.0,0.25,0.25,0.0,0.0,0.0,0.0,0.25,0.25,0.0,0.0,0.25,-0.98,-0.05,-0.17,18.35,17.4,21.6,0.25,0.25,0.25,0.75,0.5,0.0,0.25,0.0,0.0,0.75,0.25,0.0,0.5,-0.61,-0.48,0.7,78.93,-5.4,3.2
5.62,0.0,0.0,0.25,0.75,0.0,0.0,0.0,0.0,0.25,0.25,0.0,0.0,0.25,-0.98,-0.05,-0.17,21.02,10.5,2.5,0.5,0.0,0.5,0.5,1.25,0.0,0.0,0.0,0.0,0.75,0.0,0.0,0.5,-0.61,-0.48,0.7,76.03,-5.0,16.9
5.64,0.0,0.0,0.25,0.5,0.0,0.0,0.0,0.0,0.25,0.0,0.0,0.0,0.25,-0.98,-0.05,-0.17,20.71,14.2,6.4,0.25,0.0,0.25,0.5,1.0,0.0,0.0,0.0,0.0,1.0,0.25,0.0,0.5,-0.61,-0.48,0.7,69.46,-0.7,-4.9
5.66,0.25,0.0,0.0,0.0,0.0,0.0,0.0,0.0,0.5,0.0,0.0,0.0,0.25,-0.98,-0.05,-0.17,17.44,10.8,-24.8,0.5,0.0,0.0,0.5,1.25,0.0,0.0,0.0,0.0,0.25,0.25,0.0,0.5,-0.61,-0.48,0.7,62.84,-3.5,17.3
5.68,0.0,0.0,0.0,0.5,0.0,0.0,0.0,0.0,0.25,0.0,0.0,0.0,0.25,-0.98,-0.05,-0.17,15.48,8.2,-7.2,0.25,0.0,0.25,0.75,2.5,0.0,0.25,0.25,0.0,0.75,0.25,0.0,0.5,-0.55,-0.48,0.7,71.88,-0.9,16.7
5.7,0.0,0.0,0.0,0.5,0.0,0.0,0.0,0.0,0.25,0.0,0.0,0.0,0.25,-0.98,-0.05,-0.17,14.81,8.2,-7.2,0.5,0.25,0.25,0.5,1.25,0.0,0.25,0.0,0.0,0.25,0.25,0.0,0.5,-0.61,-0.48,0.7,73.13,-7.1,25.5
5.72,0.25,0.0,0.25,0.5,0.0,0.0,0.0,0.0,0.25,0.0,0.0,0.0,0.25,-0.98,0.02,-0.17,18.11,17.4,20.4,0.25,0.0,0.25,0.75,1.0,0.0,0.0,0.0,0.0,0.5,0.5,0.0,0.5,-0.61,-0.48,0.7,72.0,-4.5,3.8
5.74,0.75,0.0,0.5,0.25,0.0,0.0,0.0,0.0,0.25,0.0,0.0,0.0,0.25,-0.98,-0.05,-0.17,25.3,24.3,39.0,0.25,0.0,0.0,0.5,1.0,0.0,0.25,0.0,0.0,0.5,0.25,0.0,0.5,-0.61,-0.48,0.7,63.63,-1.5,1.7
5.76,0.5,0.0,0.5,0.25,0.0,0.0,0.0,0.0,0.25,0.25,0.0,0.0,0.25,-0.98,-0.05,-0.17,29.8,18.0,17.8,0.5,0.0,0.25,0.5,0.5,0.0,0.0,0.0,0.0,0.75,0.25,0.0,0.5,-0.61,-0.48,0.7,57.8,-5.1,-2.6
5.78,0.5,0.0,0.5,0.5,0.0,0.0,0.0,0.0,0.25,0.0,0.0,0.0,0.25,-0.98,-0.05,-0.17,33.49,22.1,34.6,0.0,0.0,0.25,0.5,1.25,0.0,0.25,0.0,0.0,0.5,0.25,0.0,0.75,-0.55,-0.48,0.7,53.79,-0.5,-3.6
5.8,0.75,0.0,0.5,0.5,0.0,0.0,0.0,0.0,0.0,0.0,0.25,0.0,0.25,-0.98,-0.05,-0.17,36.11,23.3,37.4,0.5,0.0,0.5,0.75,1.0,0.0,0.0,0.0,0.0,1.0,0.25,0.0,0.5,-0.55,-0.48,0.7,58.16,-5.4,7.2
5.82,0.75,0.0,0.25,0.0,0.0,0.0,0.0,0.0,0.25,0.0,0.25,0.0,0.25,-0.98,-0.05,-0.17,34.92,21.4,16.5,0.25,0.0,0.25,0.5,1.25,0.0,0.25,0.0,0.0,0.5,0.25,0.0,0.5,-0.55,-0.48,0.7,61.44,-3.6,9.6
5.84,0.25,0.0,0.0,0.25,0.0,0.0,0.0,0.0,0.25,0.0,0.25,0.0,0.25,-0.98,-0.05,-0.17,29.98,11.8,-14.5,0.25,0.0,0.25,0.5,2.75,0.0,0.25,0.0,0.0,0.75,0.25,0.0,0.5,-0.55,-0.48,0.7,74.97,-0.7,19.0
5.86,0.0,0.0,0.25,0.5,0.0,0.0,0.0,0.0,0.25,0.25,0.25,0.0,0.25,-0.98,-0.05,-0.17,28.6,9.5,-16.2,0.25,0.0,0.5,0.75,1.25,0.0,0.0,0.0,0.0,0.5,0.25,0.0,0.5,-0.55,-0.48,0.7,74.76,-5.7,15.2
5.88,0.25,0.0,0.25,0.5,0.0,0.0,0.0,0.0,0.0,0.25,0.0,0.0,0.25,-0.98,-0.05,-0.17,27.11,12.8,14.2,0.0,0.0,1.25,0.5,1.25,0.0,0.0,0.0,0.0,0.5,0.0,0.0,0.5,-0.55,-0.48,0.7,75.71,-9.0,21.5
5.9,0.25,0.0,0.75,0.5,0.0,0.0,0.0,0.0,0.25,0.0,0.0,0.0,0.25,-0.98,-0.05,-0.17,29.72,22.7,30.7,0.25,0.25,1.75,0.5,1.5,0.0,0.0,0.0,0.0,0.5,0.25,0.0,0.5,-0.61,-0.48,0.7,80.94,-12.2,29.0
5.92,0.0,0.0,0.5,0.5,0.0,0.0,0.0,0.0,0.25,0.0,0.0,0.0,0.25,-0.98,0.02,-0.17,28.74,18.2,15.5,0.25,0.0,0.25,0.5,0.25,0.0,0.25,0.0,0.0,0.5,0.25,0.0,0.5,-0.61,-0.48,0.7,69.49,-6.5,-9.3
5.94,0.5,0.0,0.75,0.25,0.0,0.0,0.0,0.0,0.25,0.0,0.0,0.0,0.25,-0.98,0.02,-0.17,31.05,24.8,34.9,0.5,0.0,0.0,0.75,1.0,0.0,0.25,0.5,0.0,1.0,0.0,0.0,0.5,-0.61,-0.48,0.7,70.74,0.2,1.0
5.96,0.0,0.0,0.5,0.25,0.0,0.0,0.0,0.0,0.25,0.0,0.0,0.0,0.25,-0.98,0.02,-0.17,26.75,18.5,6.8,0.5,0.0,0.75,0.5,0.5,0.0,0.0,0.0,0.0,0.5,0.25,0.0,0.5,-0.61,-0.48,0.7,63.92,-11.3,11.5
5.98,0.25,0.0,1.0,0.25,0.0,0.0,0.0,0.0,0.25,0.0,0.5,0.0,0.25,-0.98,-0.05,-0.17,30.98,22.6,10.5,0.25,0.0,1.0,0.5,1.25,0.0,0.0,0.0,0.0,0.25,0.25,0.0,0.5,-0.55,-0.48,0.7,66.34,-10.2,23.5
6.0,0.0,0.0,0.75,0.25,0.0,0.0,0.0,0.0,0.25,0.0,0.5,0.0,0.25,-0.98,-0.05,-0.17,31.41,19.1,-5.9,0.25,0.25,0.5,0.75,1.25,0.0,0.0,0.0,0.0,0.25,0.25,0.0,0.5,-0.55,-0.48,0.7,65.27,-7.4,25.6
6.02,0.0,0.0,1.0,0.5,0.0,0.0,0.0,0.0,0.25,0.0,0.25,0.0,0.25,-0.98,-0.05,-0.17,35.41,21.9,16.1,0.25,0.0,0.25,0.5,1.0,0.0,0.0,0.0,0.0,0.75,0.25,0.0,0.5,-0.55,-0.48,0.7,63.83,-1.9,-0.1
6.04,0.25,0.0,0.75,0.5,0.0,0.0,0.0,0.0,0.0,0.0,0.5,0.0,0.25,-0.98,-0.05,-0.17,36.86,21.3,15.6,0.5,0.0,0.0,0.5,1.0,0.0,0.0,0.0,0.0,0.5,0.25,0.0,0.5,-0.55,-0.48,0.7,58.93,-2.7,7.4
6.06,0.25,0.0,0.75,0.5,0.0,0.0,0.0,0.0,0.25,0.25,0.25,0.0,0.25,-0.98,-0.05,-0.17,40.45,17.7,10.0,0.25,0.0,0.0,0.5,2.25,0.0,0.25,0.0,0.0,0.5,0.25,0.0,0.75,-0.61,-0.48,0.7,63.64,0.6,11.0
6.08,0.25,0.0,0.75,0.5,0.0,0.0,0.0,0.0,0.25,0.0,0.5,0.0,0.25,-0.98,-0.05,-0.17,41.77,20.4,10.3,0.0,0.0,0.0,0.5,1.25,0.0,0.25,0.0,0.0,0.5,0.25,0.0,0.5,-0.61,-0.48,0.7,59.31,1.2,-0.4
6.1,0.0,0.0,1.0,0.5,0.0,0.0,0.0,0.0,0.25,0.0,0.25,0.0,0.25,-0.98,-0.05,-0.17,41.48,21.9,16.1,0.0,0.0,0.0,0.5,1.25,0.0,0.25,0.0,0.0,0.5,0.25,0.0,0.5,-0.55,-0.48,0.7,58.24,1.2,-0.4
6.12,0.0,0.0,0.75,0.25,0.0,0.0,0.0,0.0,0.25,0.0,0.5,0.0,0.25,-0.98,-0.05,-0.17,39.06,19.1,-5.9,0.0,0.0,0.5,0.5,1.0,0.0,0.25,0.0,0.0,0.5,0.25,0.0,0.5,-0.55,-0.48,0.7,55.24,-4.6,4.0
6.14,0.0,0.0,1.0,0.0,0.0,0.0,0.0,0.0,0.25,0.0,0.5,0.0,0.25,-0.98,-0.05,-0.17,36.09,21.8,-5.7,0.25,0.0,0.0,0.5,0.25,0.0,0.0,0.0,0.0,0.0,0.25,0.0,0.25,-0.61,-0.48,0.7,43.59,-9.9,14.3
6.16,0.25,0.0,1.0,0.5,0.0,0.0,0.0,0.0,0.25,0.0,0.5,0.0,0.25,-0.98,-0.05,-0.17,38.74,22.0,15.0,0.25,0.0,0.0,0.5,2.75,0.0,0.0,0.0,0.0,0.5,0.25,0.0,0.75,-0.61,-0.48,0.7,56.22,1.6,15.1
6.18,0.25,0.0,0.75,0.25,0.0,0.0,0.0,0.0,0.25,0.0,0.25,0.0,0.25,-0.98,-0.05,-0.17,37.15,22.0,14.4,0.25,0.0,0.0,0.75,1.25,0.0,0.25,0.0,0.0,0.25,0.25,0.0,0.5,-0.61,-0.48,0.7,55.96,-3.4,15.4
6.2,0.25,0.0,0.75,0.5,0.0,0.0,0.0,0.0,0.5,0.0,0.5,0.0,0.25,-0.98,-0.05,-0.17,40.69,19.7,5.9,0.0,0.25,0.0,0.5,1.25,0.0,0.25,0.0,0.0,0.5,0.25,0.0,0.5,-0.61,-0.48,0.7,60.98,0.2,6.6
6.22,0.0,0.0,0.75,0.5,0.0,0.0,0.0,0.0,0.25,0.0,0.0,0.0,0.25,-0.98,-0.05,-0.17,36.6,21.1,22.0,0.0,0.25,0.0,0.75,1.25,0.0,0.25,0.0,0.0,0.25,0.25,0.0,0.5,-0.61,-0.48,0.7,58.66,-2.0,16.0
6.24,0.25,0.0,0.75,0.5,0.0,0.0,0.0,0.0,0.25,0.0,0.5,0.0,0.25,-0.98,-0.05,-0.17,38.43,20.4,10.3,0.0,0.0,0.0,0.5,1.25,0.0,0.25,0.0,0.0,0.5,0.25,0.0,0.5,-0.55,-0.48,0.77,57.54,1.2,-0.4
6.26,0.25,0.0,0.75,0.5,0.0,0.0,0.0,0.0,0.25,0.0,0.5,0.0,0.25,-0.98,-0.05,-0.17,38.02,20.4,10.3,0.0,0.0,0.0,0.5,1.25,0.0,0.25,0.0,0.0,0.25,0.25,0.0,0.5,-0.55,-0.48,0.7,53.22,0.0,5.5
6.28,0.0,0.0,1.0,0.0,0.0,0.0,0.0,0.0,0.25,0.0,0.5,0.0,0.25,-0.98,-0.05,-0.17,36.94,21.8,-5.7,0.0,0.0,0.0,0.5,1.25,0.0,0.0,0.0,0.0,0.5,0.25,0.25,0.5,-0.55,-0.48,0.7,52.08,1.6,-9.2
6.3,0.25,0.0,1.0,0.75,0.0,0.0,0.0,0.0,0.0,0.0,0.5,0.0,0.25,-0.98,-0.05,-0.17,39.64,22.5,23.7,0.0,0.0,0.0,0.5,1.25,0.0,0.0,0.0,0.0,0.25,0.25,0.0,0.5,-0.55,-0.48,0.7,49.84,1.3,4.7
6.32,0.0,0.0,0.75,0.75,0.0,0.0,0.0,0.0,0.25,0.0,0.5,0.0,0.25,-0.98,-0.05,-0.17,40.75,18.7,7.1,0.0,0.0,0.0,0.75,1.5,0.0,0.25,0.0,0.0,0.0,0.25,0.0,0.5,-0.55,-0.48,0.7,52.06,-2.1,19.6
