time,left pressure 0[N/cm²],left pressure 1[N/cm²],left pressure 2[N/cm²],left pressure 3[N/cm²],left pressure 4[N/cm²],left pressure 5[N/cm²],left pressure 6[N/cm²],left pressure 7[N/cm²],left pressure 8[N/cm²],left pressure 9[N/cm²],left pressure 10[N/cm²],left pressure 11[N/cm²],left pressure 12[N/cm²],left acceleration X[g],left acceleration Y[g],left acceleration Z[g],left total force[N],left center of pressure X[mm],left center of pressure Y[mm],right pressure 0[N/cm²],right pressure 1[N/cm²],right pressure 2[N/cm²],right pressure 3[N/cm²],right pressure 4[N/cm²],right pressure 5[N/cm²],right pressure 6[N/cm²],right pressure 7[N/cm²],right pressure 8[N/cm²],right pressure 9[N/cm²],right pressure 10[N/cm²],right pressure 11[N/cm²],right pressure 12[N/cm²],right acceleration X[g],right acceleration Y[g],right acceleration Z[g],right total force[N],right center of pressure X[mm],right center of pressure Y[mm]
0.02,0.0,0.0,1.0,1.0,0.0,0.0,0.0,0.0,0.25,0.25,0.5,0.0,0.25,1.33,1.08,1.27,59.83,17.5,9.1,0.0,0.0,0.0,0.5,0.0,0.0,0.0,0.0,0.0,0.0,0.0,0.0,0.0,0.77,-1.48,1.64,0.0,-17.2,57.9
0.04,0.25,0.0,0.75,0.75,0.0,0.0,0.0,0.0,0.25,0.0,0.0,0.0,0.25,-1.3,-1.67,1.08,53.56,22.1,33.8,0.0,0.0,0.0,0.25,0.25,0.5,0.0,0.25,0.0,0.0,0.0,0.0,0.0,0.58,-0.98,0.33,0.0,8.9,29.1
0.06,0.0,0.0,0.25,0.25,0.0,0.0,0.0,0.0,0.0,1.5,0.0,1.5,1.75,-0.36,-0.8,0.83,65.06,-3.8,-83.6,0.0,0.0,0.0,0.5,0.25,0.75,0.0,0.25,0.0,0.0,0.0,0.0,0.0,0.58,-0.73,1.08,0.0,6.9,34.0
0.08,0.25,0.0,0.75,0.5,0.0,0.0,0.0,0.0,0.25,3.0,0.75,4.0,4.25,0.52,0.33,1.02,123.71,-1.0,-80.0,0.0,0.0,0.0,0.5,0.25,0.25,0.0,0.0,0.0,0.0,0.0,0.0,0.0,0.08,-0.55,0.7,0.0,-2.5,51.3
0.1,0.25,0.0,0.25,0.25,0.0,0.0,0.0,0.0,0.75,5.75,0.0,4.75,6.25,0.02,0.33,2.64,200.23,-5.7,-88.8,0.0,0.0,0.0,0.25,0.0,0.0,0.0,0.25,0.0,0.0,0.0,0.0,0.0,0.08,-0.42,0.52,0.0,-0.6,10.6
0.12,0.0,0.0,0.0,0.25,0.0,0.0,0.0,2.25,0.0,6.25,4.75,5.0,6.75,-0.3,0.27,1.45,286.77,-5.2,-87.0,0.0,0.0,0.0,0.5,0.25,0.5,0.0,0.25,0.0,0.0,0.0,0.0,0.0,0.39,-0.36,0.83,0.0,4.5,34.0
0.14,0.5,0.0,0.0,0.25,0.0,0.0,0.0,5.0,0.0,6.5,0.0,4.75,6.75,-0.05,0.14,1.08,348.65,-9.1,-79.7,0.0,0.0,0.0,0.25,0.25,0.5,0.0,0.25,0.0,0.0,0.0,0.0,0.0,0.45,-0.17,0.89,0.0,8.9,29.1
0.16,0.0,0.0,0.0,0.0,0.0,0.0,0.0,5.25,0.75,6.5,0.0,5.25,6.75,-0.17,0.08,0.95,394.34,-9.3,-83.5,0.0,0.0,0.0,0.25,0.25,0.5,0.0,0.25,0.0,0.0,0.0,0.0,0.0,0.52,0.02,0.83,0.0,8.9,29.1
0.18,0.0,0.0,0.0,0.25,0.25,0.0,0.0,5.25,1.5,6.5,0.0,5.25,6.75,-0.17,0.08,0.95,419.6,-8.3,-79.3,0.0,0.0,0.0,0.5,0.25,0.0,0.0,0.25,0.0,0.0,0.0,0.0,0.0,0.52,0.33,0.83,1.56,-3.6,33.9
0.2,0.0,0.0,0.0,2.0,0.0,0.75,0.0,5.5,1.75,6.5,5.75,5.25,6.75,-0.17,0.08,0.95,481.5,-4.1,-69.5,0.0,0.0,0.0,0.25,0.25,0.0,0.0,0.25,0.0,0.0,0.0,0.0,0.0,0.52,0.39,0.89,13.76,0.8,26.1
0.22,0.75,0.0,0.0,1.75,0.0,1.0,0.25,5.5,1.75,6.5,5.75,5.5,6.75,-0.17,0.08,0.95,536.32,-3.4,-66.4,0.0,0.0,0.0,0.25,0.0,0.0,0.0,0.25,0.0,0.0,0.0,0.0,0.0,0.52,0.45,1.2,11.15,-0.6,10.6
0.24,1.25,0.0,0.0,1.5,0.5,1.25,0.25,6.0,1.75,6.5,3.75,5.5,6.75,-0.17,0.02,0.95,578.67,-4.1,-61.5,0.0,0.0,0.0,0.25,0.0,0.0,0.0,0.25,0.0,0.0,0.0,0.0,0.0,0.45,0.58,1.33,9.06,-0.6,10.6
0.26,0.75,0.0,0.0,1.5,0.0,1.25,0.5,6.0,1.75,6.5,5.25,5.0,6.5,-0.17,0.08,0.95,593.74,-4.0,-64.8,0.0,0.0,0.0,0.25,0.0,0.0,0.0,0.0,0.0,0.0,0.0,0.0,0.0,0.45,0.7,1.52,6.76,-17.2,57.9
0.28,0.0,0.0,0.0,2.0,0.0,1.5,0.25,6.0,2.0,6.5,6.5,5.0,6.25,-0.17,0.08,0.95,596.12,-4.1,-65.7,0.0,0.0,0.0,0.5,0.25,0.25,0.25,0.25,0.0,0.0,0.0,0.0,0.0,0.58,0.77,1.58,10.52,-1.6,33.4
0.3,0.0,0.0,0.0,2.0,0.0,1.5,0.5,6.0,2.25,6.0,6.25,4.75,6.0,-0.17,0.02,0.95,577.01,-3.8,-64.4,0.0,0.0,0.0,0.5,0.0,1.0,0.25,0.25,0.25,0.0,0.0,0.25,0.0,0.7,0.83,1.83,20.23,3.2,8.2
0.32,0.25,0.0,0.0,2.5,2.0,2.0,0.75,6.0,2.25,5.75,6.0,4.0,5.5,-0.17,0.02,0.95,561.61,-3.5,-50.9,0.5,1.0,0.75,0.75,0.25,2.0,0.5,0.25,0.25,1.0,0.25,0.25,0.5,0.64,1.14,2.08,62.16,-2.1,16.2
0.34,0.0,0.5,0.0,3.0,2.0,2.0,0.75,6.0,2.75,5.5,5.5,3.5,5.25,-0.11,0.02,0.95,547.48,-3.2,-46.3,1.0,0.0,0.5,0.5,0.5,0.0,0.25,0.25,0.25,0.0,0.5,0.0,0.5,0.39,1.52,1.89,76.49,-14.4,18.0
0.36,0.0,0.75,0.25,4.0,3.25,2.0,0.75,5.75,2.75,4.5,5.5,3.0,4.25,-0.11,0.08,0.95,530.01,-1.6,-34.3,1.25,0.75,0.5,0.75,0.0,1.5,0.25,0.0,0.25,1.0,0.0,0.25,0.5,0.02,2.08,1.95,100.37,-5.5,22.1
0.38,0.0,0.5,0.0,4.25,3.5,2.5,0.75,5.75,2.75,4.25,5.0,2.5,3.5,-0.11,0.08,0.95,506.46,-2.2,-30.1,1.25,0.75,0.5,0.25,0.5,1.75,0.25,0.25,0.25,0.25,0.25,0.25,0.5,-0.42,2.58,0.45,110.94,-4.6,27.5
0.4,2.0,1.0,1.5,5.5,3.75,2.75,1.0,5.75,2.75,3.25,4.0,2.0,2.75,-0.11,0.08,0.95,502.69,2.2,-9.1,1.25,1.0,0.75,0.75,0.5,1.75,0.25,0.25,0.25,1.25,0.25,0.25,0.5,-1.23,3.64,0.39,131.33,-4.2,20.7
0.42,0.25,1.0,2.0,6.25,5.0,3.0,1.0,5.5,2.75,3.0,4.0,2.0,2.75,-0.11,0.08,0.95,505.59,1.5,-8.1,0.0,0.0,0.0,0.25,0.0,0.0,0.0,0.0,0.25,1.0,0.0,0.25,0.0,-1.92,4.14,0.27,107.08,3.4,-55.3
0.44,1.5,1.0,2.5,7.5,5.5,3.25,1.0,5.25,2.75,2.75,3.5,1.25,1.75,-0.11,0.08,0.95,524.05,3.6,5.0,1.25,0.75,0.0,0.5,0.0,0.0,0.0,0.25,0.25,0.25,0.25,0.25,0.5,-2.55,3.2,0.33,97.62,-12.3,19.1
0.46,2.0,1.0,2.75,7.75,6.25,3.25,1.0,5.25,2.5,1.75,3.0,1.0,1.5,-0.11,0.08,0.95,545.78,4.5,12.7,0.0,0.75,0.0,0.75,0.5,1.75,0.25,0.25,0.25,3.0,1.25,2.75,1.75,0.77,-0.11,1.52,126.62,3.6,-47.3
0.48,2.0,1.0,3.0,8.75,7.0,3.5,1.25,5.25,2.25,1.25,2.5,1.0,1.5,-0.11,0.08,0.95,573.42,5.0,17.6,0.75,0.75,0.75,0.75,0.5,1.75,0.25,0.25,0.25,5.0,2.25,5.25,6.25,0.08,-0.3,1.08,216.83,2.2,-61.2
0.5,2.25,1.25,3.0,9.25,7.0,3.75,1.5,4.75,2.0,1.25,2.5,1.0,1.5,-0.11,0.08,0.95,594.15,5.5,20.2,0.0,0.75,0.25,0.0,0.5,0.5,0.25,2.0,0.5,7.5,4.5,5.75,7.5,-0.55,0.95,2.33,315.8,4.7,-77.5
0.52,2.25,1.25,3.0,10.0,7.5,4.0,1.5,4.5,1.75,1.25,2.25,1.0,1.25,-0.11,0.08,0.95,615.69,5.6,23.5,0.0,0.75,0.5,0.5,0.25,2.75,0.0,2.0,0.5,8.5,5.5,6.0,7.5,0.2,0.08,1.02,437.38,5.1,-69.2
0.54,2.0,1.75,3.75,11.5,8.0,4.0,1.5,4.5,1.25,1.0,2.0,0.75,1.5,-0.11,0.08,0.95,648.72,6.3,28.0,0.75,0.75,0.5,0.5,1.5,2.0,0.25,4.75,0.5,8.5,6.75,5.75,8.0,-0.05,0.14,1.08,565.51,4.4,-61.8
0.56,2.5,2.5,4.75,11.5,8.25,4.25,1.75,4.25,0.75,1.25,1.5,1.0,1.25,-0.11,0.08,0.95,689.38,7.3,32.5,1.25,0.75,0.5,0.5,1.25,2.0,0.25,4.75,1.0,8.5,6.25,5.25,8.0,0.2,0.08,0.89,646.04,4.1,-59.7
0.58,3.75,2.5,5.25,12.5,8.5,4.25,1.75,3.25,0.75,1.25,1.25,0.75,1.0,-0.11,0.14,0.95,735.05,9.0,38.6,0.75,1.0,0.75,1.25,0.5,4.0,0.25,5.75,0.75,8.5,6.25,5.5,8.0,0.14,0.08,0.95,713.61,4.9,-55.7
0.6,3.75,2.5,6.0,13.5,8.75,4.25,2.0,3.25,0.0,1.25,1.25,0.5,0.75,-0.17,0.14,1.02,776.85,9.7,42.2,1.25,1.0,0.5,1.25,2.25,4.5,0.25,5.75,1.0,8.25,6.25,5.5,8.0,0.14,0.08,0.89,758.69,4.7,-48.8
0.62,5.25,3.0,6.0,13.5,8.75,4.25,2.25,2.25,0.5,1.25,1.0,0.25,0.5,-0.17,0.14,1.02,812.34,11.2,47.3,1.25,1.0,0.5,2.0,2.5,4.5,0.25,6.0,1.0,8.5,6.25,5.25,8.0,0.08,0.08,0.95,797.09,4.6,-46.2
0.64,4.5,3.75,6.75,14.0,8.75,4.0,2.0,3.0,0.0,1.0,1.0,0.5,0.5,-0.17,0.14,1.08,839.5,11.2,47.2,1.25,1.0,0.75,2.75,3.5,5.0,0.25,6.5,1.0,8.25,6.0,4.75,7.5,0.08,0.08,0.95,819.06,4.3,-39.1
0.66,0.0,3.75,7.0,14.5,9.0,3.0,1.75,3.0,2.5,0.0,0.0,0.0,0.5,-0.17,0.14,1.08,825.74,10.5,45.5,1.25,1.0,0.75,2.75,4.5,5.75,0.5,6.5,1.0,8.25,5.25,4.25,7.25,0.14,0.08,0.95,826.85,4.8,-34.1
0.68,0.0,0.0,7.75,4.75,4.5,0.0,0.0,0.0,0.0,0.0,0.0,0.0,0.0,-0.17,0.2,1.08,609.2,20.5,57.9,1.25,1.0,0.75,2.75,4.5,6.0,0.5,6.5,1.0,8.0,4.5,4.0,6.5,0.14,0.08,0.95,794.04,5.0,-31.3
0.7,6.75,2.5,7.25,12.5,7.5,0.75,0.75,2.75,0.0,1.0,0.75,0.0,0.25,-0.23,0.27,1.14,586.61,15.3,52.7,1.25,1.0,1.0,2.75,4.75,6.0,0.75,6.5,1.0,7.75,4.5,3.0,6.25,0.14,0.08,0.95,742.55,4.8,-27.7
0.72,7.25,3.75,7.25,12.5,7.75,0.75,0.25,2.25,0.5,0.5,0.75,0.0,0.5,-0.3,0.33,1.39,583.73,15.7,55.2,1.5,1.0,1.0,3.75,4.75,6.25,0.75,6.5,1.0,7.5,4.5,3.5,6.0,0.14,0.08,0.95,706.74,4.0,-25.1
0.74,6.0,2.0,6.75,9.25,5.25,0.0,0.0,1.5,0.5,0.5,0.25,0.0,0.5,-0.48,0.39,1.7,571.58,17.9,55.6,1.25,1.25,1.75,4.5,5.75,6.75,0.75,6.5,1.25,6.75,4.5,2.5,5.5,0.14,0.08,0.95,698.48,3.1,-16.7
0.76,7.25,1.25,3.75,7.75,0.0,0.0,0.0,2.25,0.5,0.5,0.0,0.0,0.25,-0.73,0.58,1.83,471.44,21.1,56.2,1.5,1.5,1.75,5.25,6.5,6.75,1.0,6.5,1.25,6.5,3.75,1.75,4.75,0.14,0.08,0.95,702.87,2.6,-8.9
0.78,6.25,1.0,2.75,6.0,0.0,0.0,0.0,1.75,0.5,0.5,0.75,0.0,0.25,-1.11,1.14,2.33,366.39,20.6,50.8,1.5,1.75,2.25,5.5,7.0,7.0,1.25,6.25,1.25,6.0,3.25,1.5,4.0,0.14,0.08,0.95,710.87,1.8,-2.6
0.8,2.75,0.0,1.25,2.5,0.0,0.0,0.0,1.75,0.0,0.0,0.0,0.0,0.25,-0.55,0.83,2.58,235.21,17.8,45.4,1.5,1.75,2.25,7.0,8.0,7.25,1.25,5.75,1.0,5.0,2.5,0.75,3.25,0.14,0.08,0.95,716.4,1.1,7.4
0.82,0.0,0.5,0.0,2.0,0.0,0.0,0.0,0.0,0.25,0.5,0.0,0.0,0.0,-0.36,0.33,2.64,105.29,11.2,37.2,1.5,2.0,2.5,7.5,8.25,7.5,1.25,5.75,1.0,3.75,2.5,0.75,2.5,0.14,0.08,0.95,714.26,0.2,13.3
0.84,0.5,0.0,0.25,2.0,0.0,0.0,0.0,0.0,0.25,0.25,0.0,0.0,0.25,-1.05,-0.42,1.95,8.33,16.1,35.2,1.5,2.0,2.5,8.75,8.25,7.5,1.25,5.5,1.25,4.0,2.5,0.75,2.25,0.14,0.08,0.95,720.87,-0.3,14.7
0.86,0.5,0.0,0.0,2.0,0.0,0.0,0.0,0.0,0.5,0.0,0.25,0.0,0.25,-0.98,-0.48,1.52,0.0,16.1,28.5,1.75,2.0,2.75,9.0,9.25,7.75,1.25,4.75,1.25,3.0,2.5,0.5,2.25,0.14,0.08,0.95,733.13,-1.1,19.9
0.88,0.75,0.0,0.25,2.0,0.0,0.0,0.0,0.0,0.25,0.25,0.0,0.0,0.25,-1.23,-1.3,0.33,0.0,17.3,39.1,1.75,2.0,3.25,10.5,9.25,7.75,1.25,4.75,1.0,2.5,2.0,0.75,2.25,0.14,0.08,0.95,754.95,-2.1,23.0
0.9,0.0,0.0,0.5,2.0,0.0,0.0,0.0,0.5,0.0,0.25,0.0,0.0,0.25,-0.8,-0.92,0.39,0.0,11.0,23.8,2.75,2.25,4.0,10.5,9.5,7.75,1.5,4.75,1.0,3.0,1.5,0.75,1.75,0.14,0.08,0.95,788.14,-3.2,26.8
0.92,0.25,0.0,0.25,2.0,0.0,0.0,0.0,0.0,0.25,0.25,0.0,0.0,0.0,-0.55,-0.3,0.58,0.0,17.2,42.6,3.0,2.5,4.75,11.5,11.0,8.0,1.75,3.5,0.75,2.75,1.25,0.0,1.5,0.14,0.08,0.95,830.9,-4.4,34.8
0.94,0.25,0.0,0.25,2.0,0.0,0.0,0.0,1.5,0.5,0.25,0.0,0.0,0.25,-0.42,-0.36,0.27,0.0,5.3,6.9,3.0,2.75,5.0,12.5,11.0,8.0,1.75,3.25,0.5,2.25,1.5,0.5,1.5,0.14,0.08,0.95,872.09,-5.2,35.6
0.96,0.25,0.0,0.0,2.0,0.0,0.0,0.0,0.5,0.25,0.25,0.0,0.0,0.25,-0.55,-0.23,0.58,0.0,8.7,19.0,3.25,3.0,5.0,12.5,11.5,8.0,1.75,3.25,0.5,1.75,1.0,0.25,1.5,0.08,0.14,0.95,900.82,-5.4,39.0
0.98,0.25,0.0,0.5,1.75,0.0,0.0,0.0,0.75,0.25,0.25,0.0,0.0,0.25,-0.61,-0.3,0.83,4.97,10.3,18.2,4.25,3.0,5.75,14.0,12.0,8.0,1.75,2.5,0.5,2.25,1.0,0.25,1.25,0.08,0.14,0.95,945.72,-6.7,41.6
1.0,0.75,0.0,1.0,1.25,0.0,0.0,0.0,1.5,0.25,0.25,0.0,0.0,0.25,-0.55,-0.05,0.89,35.92,10.7,17.4,5.25,3.0,6.5,14.0,12.0,8.0,1.75,2.0,0.5,2.0,0.75,0.25,1.25,0.08,0.14,0.95,986.96,-7.8,44.4
1.02,0.5,0.0,1.25,0.5,0.0,0.0,0.0,1.5,0.25,0.0,0.0,0.0,0.25,-0.42,0.2,1.02,54.46,11.4,13.6,5.75,2.75,6.75,15.5,13.0,8.0,1.5,2.0,0.25,1.25,0.0,0.25,0.5,0.08,0.14,1.02,1029.18,-8.7,50.6
1.04,0.75,0.0,0.75,1.25,0.0,0.0,0.0,0.25,0.25,0.25,0.0,0.0,0.25,-0.3,0.27,1.14,67.51,17.9,33.0,6.5,4.25,7.0,15.5,13.5,8.0,1.25,1.75,0.5,1.5,0.25,0.25,1.0,0.08,0.14,1.08,1087.55,-8.9,50.1
1.06,0.75,0.0,1.0,1.0,0.0,0.0,0.0,0.25,0.25,0.25,0.0,0.0,0.25,-0.17,0.39,1.39,68.99,19.3,33.2,6.75,4.25,7.25,15.5,13.5,7.75,1.25,1.0,0.25,1.25,0.5,0.0,0.5,0.08,0.2,1.02,1122.19,-9.8,53.9
1.08,0.75,0.0,1.0,1.0,0.0,0.0,0.0,0.0,0.0,0.25,0.0,0.0,0.25,-0.17,0.45,1.45,63.66,22.6,44.0,7.25,3.25,7.5,15.5,13.5,7.5,1.0,1.0,0.25,0.75,0.5,0.25,0.0,0.08,0.2,1.08,1130.05,-10.6,55.4
1.1,0.5,0.0,0.25,1.25,0.0,0.0,0.0,0.0,0.0,0.25,0.0,0.0,0.25,-0.23,0.58,1.58,54.4,16.2,35.4,7.75,3.5,6.75,13.0,11.0,6.75,0.75,0.5,0.5,0.25,0.75,0.25,0.25,0.14,0.27,1.08,1066.26,-11.6,56.5
1.12,0.75,0.0,0.25,1.0,0.0,0.0,0.0,0.0,0.0,0.25,0.0,0.0,0.25,-0.42,0.58,1.77,47.33,17.8,38.8,7.25,3.25,6.25,12.5,11.0,4.5,0.75,0.5,0.25,0.75,0.25,0.25,0.0,0.14,0.33,1.27,968.43,-12.4,58.1
1.14,0.75,0.0,0.25,0.75,0.0,0.0,0.0,0.0,0.25,0.25,0.0,0.0,0.5,-0.48,0.7,2.08,43.12,14.4,16.2,7.75,3.25,3.5,12.5,9.0,2.75,0.75,0.5,0.25,0.75,0.75,0.25,0.5,0.2,0.33,1.33,836.77,-12.8,56.1
1.16,0.75,0.0,0.25,1.0,0.0,0.0,0.0,0.0,0.0,0.25,0.0,0.0,0.25,-0.36,0.89,2.45,39.76,17.8,38.8,7.0,2.0,2.0,9.0,8.0,2.25,0.25,0.5,0.25,2.0,0.75,0.25,0.5,0.52,0.52,1.58,683.23,-10.7,49.3
1.18,0.75,0.0,0.0,1.25,0.0,0.0,0.0,0.0,0.0,0.25,0.0,0.0,0.25,-0.17,1.39,2.39,37.54,15.7,38.6,5.25,1.25,0.0,5.5,4.75,0.75,0.25,0.25,0.25,0.0,0.75,0.25,0.5,0.89,1.27,1.89,472.15,-12.7,54.5
1.2,0.5,0.0,0.0,1.25,0.0,0.0,0.0,0.0,0.0,0.25,0.0,0.0,0.5,0.2,1.89,1.83,37.65,10.9,18.1,3.75,1.25,0.0,4.0,2.5,0.0,0.25,0.25,0.0,0.0,0.75,0.0,0.25,0.14,0.64,2.58,297.83,-15.5,58.8
1.22,0.25,0.0,0.5,1.0,0.0,0.0,0.0,0.0,0.0,0.25,0.0,0.0,0.5,0.83,2.52,1.27,36.63,13.6,15.4,1.75,1.0,0.0,3.0,0.0,1.75,0.0,0.25,0.25,1.0,0.0,0.25,0.0,-0.17,0.52,2.08,167.83,-7.7,41.0
1.24,0.0,0.0,1.0,1.25,0.0,0.0,0.0,0.0,0.25,0.25,0.5,0.0,0.25,1.52,3.27,0.7,41.89,17.5,12.6,0.0,0.0,0.0,0.75,0.5,0.0,0.0,0.25,0.0,0.0,0.0,0.0,0.0,0.95,0.14,2.39,22.18,-4.5,41.3
1.26,0.25,0.0,1.0,1.75,0.0,0.0,0.0,0.0,0.5,0.25,0.75,0.0,0.25,2.02,4.33,0.45,55.69,17.7,14.6,0.5,0.0,0.0,0.5,0.0,0.0,0.0,0.25,0.0,0.0,0.0,0.0,0.0,1.14,-0.67,1.77,0.0,-17.0,53.4
1.28,0.0,0.0,1.0,1.5,0.0,0.0,0.0,0.0,0.25,0.25,0.0,0.0,0.25,2.77,3.39,2.2,60.15,18.4,28.9,1.0,0.75,0.0,2.0,0.0,1.5,0.0,0.0,0.0,0.0,0.0,0.0,0.0,0.77,-0.86,0.14,0.0,-8.8,64.6
1.3,0.0,0.0,1.0,1.0,0.0,0.0,0.0,0.0,0.0,0.25,0.0,0.5,0.5,-1.11,-0.3,0.95,61.17,15.2,-1.9,0.0,0.0,0.0,0.5,0.25,0.0,0.0,0.25,0.0,0.0,0.0,0.0,0.0,0.83,-0.86,1.33,0.0,-3.6,33.9
1.32,0.25,0.0,1.0,0.25,0.0,0.0,0.0,0.0,0.25,1.25,0.0,2.25,2.75,-0.86,-0.67,1.39,86.91,2.0,-69.2,0.0,0.0,0.0,0.5,0.0,0.0,0.0,0.25,0.0,0.0,0.0,0.0,0.0,0.33,-0.3,0.39,0.0,-6.2,26.6
1.34,0.5,0.0,1.0,1.0,0.0,0.0,0.0,1.5,0.5,4.5,0.0,5.0,6.0,0.64,0.39,2.08,173.05,-2.7,-72.9,1.0,1.0,0.0,1.75,0.25,1.5,0.0,0.25,0.25,1.0,0.0,0.25,0.5,0.27,-0.36,0.27,0.0,-2.8,23.7
1.36,0.25,0.0,0.0,0.0,0.0,0.0,0.0,0.0,0.75,5.75,5.25,5.0,6.75,-0.17,0.33,2.64,262.05,-2.9,-89.9,0.0,0.0,0.0,0.5,0.25,0.0,0.0,0.0,0.0,0.0,0.0,0.0,0.0,0.45,-0.3,0.58,0.0,-9.9,56.3
1.38,0.25,0.0,0.0,0.0,0.0,0.0,0.0,4.5,0.75,6.5,4.75,5.0,6.75,-0.3,0.39,1.14,356.45,-5.6,-81.7,0.0,0.0,0.0,0.5,0.0,0.0,0.0,0.0,0.0,0.0,0.0,0.0,0.0,0.58,-0.36,0.83,0.0,-17.2,57.9
1.4,0.25,0.0,0.0,0.0,0.0,0.0,0.0,5.0,0.0,6.5,4.25,5.5,6.75,-0.05,0.08,1.02,431.51,-6.3,-82.6,0.0,0.0,0.0,0.25,0.25,0.0,0.0,0.25,0.0,0.0,0.0,0.0,0.0,0.64,-0.23,0.83,0.0,0.8,26.1
1.42,0.25,0.0,0.0,1.0,0.0,0.0,0.0,4.5,0.75,6.5,5.5,5.5,6.75,-0.17,0.08,0.95,494.34,-4.2,-77.2,0.0,0.0,0.0,0.25,0.0,0.0,0.0,0.25,0.0,0.0,0.0,0.0,0.0,0.64,0.02,0.77,0.0,-0.6,10.6
1.44,0.25,0.0,0.0,1.0,0.0,1.0,0.0,5.25,0.75,6.5,5.0,5.5,6.75,-0.17,0.08,0.95,529.14,-5.3,-73.1,0.0,0.0,0.0,0.25,0.0,0.0,0.0,0.25,0.0,0.0,0.0,0.0,0.0,0.58,0.14,0.95,0.0,-0.6,10.6
1.46,0.0,0.0,0.0,0.25,0.0,1.5,0.25,5.5,1.5,6.5,5.75,5.5,6.75,-0.17,0.02,0.95,560.22,-5.6,-74.5,0.25,0.5,0.0,1.0,0.0,1.5,0.0,0.25,0.25,1.0,0.0,0.75,0.0,0.45,0.27,1.08,23.89,1.8,1.1
1.48,0.0,0.0,0.0,0.0,0.0,1.5,0.25,5.75,0.75,6.5,0.0,5.5,6.75,-0.17,0.08,0.95,535.93,-9.8,-76.2,0.0,0.0,0.0,0.5,0.0,1.0,0.0,0.0,0.25,1.0,0.0,0.25,0.0,0.39,0.39,1.2,41.98,7.7,-16.8
1.5,1.0,0.0,0.0,1.0,0.0,1.25,0.5,5.75,0.0,6.75,6.5,5.5,6.75,-0.17,0.02,0.95,550.23,-4.3,-68.5,1.0,1.0,1.75,1.25,0.5,1.25,0.25,0.25,0.0,0.0,0.25,0.0,0.5,0.45,0.39,1.45,79.52,-13.0,46.3
1.52,0.75,0.0,0.75,2.0,0.0,1.5,0.25,5.75,1.5,6.5,6.5,5.5,6.75,-0.17,0.02,0.95,567.58,-2.6,-61.8,0.0,0.0,0.0,0.5,0.0,0.5,0.25,0.25,0.0,0.0,0.0,0.0,0.0,0.45,0.33,1.64,67.85,1.5,29.3
1.54,0.0,0.0,1.0,1.25,0.0,1.75,0.5,5.5,2.25,6.25,6.5,5.25,6.25,-0.17,0.02,0.95,580.42,-2.9,-64.3,0.0,0.25,0.0,0.5,0.25,1.0,0.25,0.25,0.0,0.0,0.0,0.0,0.0,0.52,0.45,1.77,67.64,4.4,40.7
1.56,1.25,0.0,1.0,0.0,0.0,1.25,0.75,5.5,2.25,5.75,6.5,5.0,6.25,-0.17,0.02,0.95,566.29,-1.9,-64.0,0.25,0.25,0.0,0.5,0.5,1.0,0.0,0.25,0.25,1.0,0.25,0.25,0.0,0.45,0.64,1.83,60.36,3.3,0.3
1.58,1.25,0.0,1.0,1.5,0.75,1.25,0.75,5.25,2.5,5.75,6.5,5.0,6.0,-0.17,0.02,0.95,555.52,-0.8,-55.7,0.25,0.25,0.5,0.5,1.25,1.0,0.25,0.25,0.25,0.25,0.0,0.25,0.5,0.27,0.89,2.08,70.75,-1.3,18.2
1.6,1.0,0.0,1.25,2.0,1.75,1.25,0.75,5.25,2.75,5.75,6.5,4.75,5.5,-0.11,0.02,0.95,549.8,-0.4,-49.8,1.25,1.0,0.75,1.0,0.5,0.5,0.25,0.25,0.25,0.0,0.25,0.25,0.5,0.14,1.52,2.33,93.68,-13.3,37.8
1.62,2.0,0.0,1.0,2.25,1.75,1.25,0.75,5.25,2.75,4.75,6.25,4.25,5.25,-0.11,0.08,0.95,538.35,0.6,-44.1,1.25,0.75,0.0,0.5,0.25,1.5,0.25,0.25,0.25,1.0,0.0,0.25,0.25,0.2,1.95,1.52,106.77,-1.8,21.9
1.64,1.25,0.25,0.0,2.5,1.75,1.5,0.75,5.25,3.0,4.5,6.0,4.0,4.25,-0.11,0.02,0.95,518.84,-0.6,-44.8,1.5,0.75,0.5,0.75,0.25,1.25,0.25,0.25,0.0,1.25,0.5,0.25,0.25,0.02,2.45,0.7,119.67,-6.3,20.2
1.66,0.5,0.5,1.0,2.75,1.75,1.0,1.25,5.0,3.0,4.5,5.5,4.0,4.25,-0.11,0.08,0.95,495.45,0.5,-42.9,1.25,1.0,0.75,1.0,0.5,1.5,0.25,0.25,0.25,0.5,0.5,0.25,0.0,-1.05,3.52,0.33,126.81,-8.8,36.3
1.68,1.75,0.75,1.5,3.75,1.75,2.0,1.5,4.5,3.25,4.0,5.5,3.25,4.0,-0.11,0.08,0.95,480.89,2.6,-28.7,1.25,0.75,0.0,0.75,0.25,1.75,0.25,0.25,0.25,0.75,0.5,0.25,0.5,-1.92,4.39,0.02,128.2,-2.2,15.8
1.7,2.0,1.0,2.25,4.0,3.0,2.0,1.5,4.5,3.25,3.0,5.5,3.0,2.75,-0.11,0.02,0.95,479.36,4.5,-16.7,1.5,1.0,0.5,0.75,0.5,1.25,0.25,0.25,0.25,1.0,0.25,0.25,0.5,-1.98,3.77,2.45,130.43,-6.2,23.8
1.72,3.75,1.0,2.75,4.0,3.25,2.0,1.75,4.5,3.0,3.0,5.25,3.0,2.75,-0.11,0.02,0.95,498.88,6.1,-9.8,1.25,0.75,0.75,0.5,0.5,1.25,0.25,0.25,0.25,1.25,0.75,0.75,1.25,1.83,-0.61,0.52,140.08,-4.1,-5.0
1.74,3.75,1.0,3.0,4.75,3.25,2.0,1.75,4.5,3.0,2.5,4.5,2.0,1.75,-0.11,0.08,0.95,500.61,7.3,-0.3,1.25,1.0,0.5,0.5,0.5,2.0,0.25,0.25,0.0,5.25,0.75,3.0,5.5,0.77,-0.36,1.33,198.49,4.2,-49.9
1.76,4.5,1.0,3.25,6.25,3.5,2.0,2.25,4.5,3.0,1.5,4.0,2.0,1.5,-0.11,0.08,0.95,517.27,9.2,8.4,1.25,0.5,0.5,0.5,0.25,2.0,0.25,2.0,0.25,7.75,2.5,4.0,8.0,-1.36,1.2,2.39,288.29,5.6,-63.6
1.78,5.0,1.0,4.5,7.5,4.75,2.25,2.5,4.5,2.75,1.25,3.75,1.25,1.5,-0.11,0.08,0.95,553.03,10.2,17.7,1.25,1.0,0.75,0.5,0.5,4.25,0.0,3.5,0.75,9.0,4.75,6.0,8.25,0.14,0.08,1.45,426.49,5.1,-57.4
1.8,5.25,1.0,4.75,8.0,5.5,2.25,2.75,3.5,2.5,1.25,3.0,1.0,1.5,-0.11,0.08,0.95,587.56,11.0,23.7,1.5,0.75,0.75,1.25,2.75,4.5,0.25,6.25,1.0,9.5,7.0,5.75,8.5,-0.17,0.27,1.14,614.47,4.6,-49.0
1.82,5.25,1.25,5.75,10.0,6.0,2.25,2.75,3.5,1.75,1.25,2.25,1.0,1.25,-0.11,0.08,0.95,631.39,11.9,30.5,1.5,1.0,0.75,0.75,2.75,4.75,0.25,6.5,1.0,9.25,7.0,5.5,8.25,0.14,0.14,0.95,762.77,4.8,-48.2
1.84,6.25,2.0,6.75,11.5,7.25,2.5,3.75,3.25,1.25,1.25,1.75,1.0,1.0,-0.11,0.08,0.95,703.08,12.9,37.9,1.5,0.75,1.0,1.25,3.0,5.0,0.25,6.5,1.0,9.0,6.5,5.25,8.25,0.2,0.08,0.95,851.67,4.7,-45.6
1.86,7.0,2.5,7.5,12.5,8.0,2.25,4.0,3.25,0.75,1.25,1.25,0.5,0.75,-0.11,0.08,1.02,783.57,13.8,44.4,1.5,1.0,1.0,1.0,3.0,5.5,0.25,6.5,1.0,9.0,6.25,5.25,8.0,0.14,0.08,0.95,885.43,5.0,-44.1
1.88,7.0,2.5,6.75,12.5,8.0,2.0,4.0,2.75,0.75,1.25,1.25,0.5,0.75,-0.11,0.08,1.08,834.19,13.9,45.0,1.5,1.0,1.5,1.5,3.75,5.5,0.25,6.5,1.0,8.75,6.25,4.5,8.0,0.14,0.08,0.95,892.41,4.4,-39.1
1.9,7.0,2.5,8.25,13.0,8.25,2.0,3.75,2.5,0.0,1.0,1.25,0.0,0.75,-0.11,0.14,1.08,866.49,14.9,49.6,1.75,0.75,1.75,2.25,4.25,5.5,0.5,6.5,1.0,8.75,5.75,4.0,7.75,0.08,0.08,0.95,883.58,3.9,-34.6
1.92,0.0,0.0,8.0,11.0,8.25,3.0,3.25,2.5,1.5,1.75,1.25,0.0,0.5,-0.17,0.14,1.08,802.55,10.2,33.6,1.75,1.0,1.5,2.5,4.5,6.0,0.75,6.5,1.0,8.25,5.0,3.0,7.5,0.08,0.08,0.95,856.88,4.3,-29.6
1.94,2.25,0.0,3.25,12.5,0.0,0.0,1.0,0.0,0.0,0.0,0.0,0.75,0.0,-0.17,0.2,1.14,595.62,22.7,55.6,1.75,1.0,1.75,2.75,4.5,6.0,0.75,6.5,1.0,7.75,4.5,2.75,6.5,0.14,0.08,0.95,808.83,3.8,-25.6
1.96,8.0,2.75,5.25,12.5,6.25,0.0,1.75,0.0,0.5,1.0,1.0,0.5,0.25,-0.23,0.2,1.27,547.69,18.3,56.3,1.75,1.0,2.0,2.75,4.75,6.0,0.75,6.5,1.0,7.5,3.75,2.25,6.25,0.14,0.08,0.95,749.62,3.9,-22.2
1.98,8.5,2.0,8.0,11.5,6.5,0.0,1.75,1.75,0.0,0.0,1.25,0.0,0.0,-0.3,0.27,1.39,540.23,19.5,58.8,1.75,1.25,2.0,2.75,4.75,6.5,0.75,6.25,1.0,7.25,3.75,2.0,5.75,0.14,0.08,0.95,690.75,3.8,-19.1
2.0,8.0,0.0,2.25,3.25,0.0,0.0,1.0,0.0,0.0,0.5,0.0,0.25,0.0,-0.55,0.39,1.64,413.63,29.0,70.5,2.0,1.0,2.25,2.75,4.75,6.5,0.75,6.25,1.25,6.75,2.5,1.0,5.5,0.14,0.08,0.95,636.51,3.8,-14.0
2.02,7.5,1.25,6.0,7.75,0.0,0.0,0.0,1.75,0.5,0.5,0.75,0.25,0.25,-0.8,0.58,1.64,365.93,23.0,53.6,3.0,1.25,2.25,3.25,5.5,6.75,1.0,6.5,1.0,6.75,2.5,1.0,5.0,0.14,0.08,0.95,617.73,2.8,-7.5
2.04,6.75,1.0,4.5,4.25,0.0,0.0,0.25,0.0,0.5,0.5,0.75,0.0,0.25,-0.92,1.08,3.2,288.6,26.6,60.6,3.0,1.25,2.5,4.0,6.25,6.75,1.25,6.5,1.0,6.75,2.5,1.5,4.5,0.14,0.08,0.95,626.94,1.9,-4.8
2.06,3.5,0.0,2.75,2.25,0.0,0.0,0.25,2.0,0.5,0.5,0.75,0.0,0.5,-0.48,0.77,2.83,220.39,18.1,30.1,3.75,1.5,2.5,4.5,6.5,7.0,1.25,6.5,1.0,6.5,2.5,1.5,4.25,0.14,0.08,0.95,662.26,1.1,-0.7
2.08,2.25,0.0,1.75,0.0,0.0,0.0,0.0,0.0,1.25,0.0,0.0,0.0,0.25,-0.48,0.27,2.7,115.73,28.5,44.4,4.25,1.25,2.5,5.25,6.75,7.25,1.25,6.25,1.0,6.0,2.5,1.0,4.0,0.14,0.08,0.95,694.07,0.4,3.6
2.1,0.0,0.0,1.25,0.0,0.0,0.0,0.0,0.0,3.25,0.0,0.25,0.0,0.25,-1.17,-0.67,2.02,47.72,17.5,-18.3,5.0,1.5,2.75,5.25,6.75,7.25,1.75,6.0,1.0,5.5,2.5,1.25,3.25,0.14,0.08,0.95,722.36,-0.9,8.1
2.12,0.0,0.0,0.0,0.0,0.0,0.0,3.25,0.0,0.0,0.0,0.0,0.0,0.0,-1.11,-0.48,1.14,0.0,32.4,27.4,5.5,1.75,3.75,5.5,7.5,7.25,1.75,5.75,1.0,5.25,2.5,0.75,3.25,0.08,0.08,0.95,754.61,-2.1,13.2
2.14,0.0,0.0,0.0,0.0,0.0,0.0,2.0,0.0,0.0,0.0,0.0,0.0,0.0,-1.3,-1.48,-0.3,0.0,32.4,27.3,5.5,1.75,4.25,6.25,8.0,7.25,2.0,5.75,1.0,3.75,2.25,0.5,2.25,0.14,0.08,0.95,777.71,-3.5,21.1
2.16,0.0,0.0,0.0,0.0,0.0,0.0,0.0,0.0,0.0,0.0,0.0,0.0,0.0,-0.8,-1.11,0.7,0.0,0.0,0.0,6.0,1.75,4.75,7.0,8.0,7.25,2.25,5.0,1.0,3.75,2.0,0.5,2.25,0.14,0.08,0.95,804.96,-4.7,24.1
2.18,0.0,0.0,0.0,0.0,0.0,0.0,1.75,0.0,0.0,0.0,0.0,0.0,0.0,-0.55,-0.23,0.45,0.0,32.4,27.4,6.25,1.75,4.75,7.25,8.0,7.25,2.5,4.75,1.0,3.0,1.5,0.25,2.25,0.08,0.14,0.95,815.54,-5.3,28.0
2.2,0.0,0.0,0.0,0.0,0.0,0.0,3.0,0.0,0.75,0.0,0.0,0.0,0.0,-0.42,-0.36,0.08,0.0,25.5,4.9,6.25,1.75,5.0,7.25,8.0,7.25,2.5,4.75,1.0,4.0,1.5,0.5,1.5,0.08,0.14,0.95,824.91,-5.3,27.6
2.22,0.0,0.0,0.0,0.25,0.0,0.0,2.75,0.0,0.0,0.0,0.5,0.0,0.0,-0.67,-0.36,0.89,0.0,25.4,7.1,6.25,1.75,5.0,7.25,8.0,7.25,2.5,4.75,1.0,2.5,1.75,0.5,2.0,0.08,0.14,0.89,820.95,-5.8,28.8
2.24,0.0,0.0,0.0,0.25,0.0,0.0,0.0,0.0,0.0,0.0,0.0,0.0,0.0,-0.61,-0.05,1.02,0.0,17.2,57.9,6.5,1.75,5.0,7.25,8.0,7.0,2.5,4.5,1.0,2.75,1.5,0.5,1.75,0.08,0.14,0.95,813.95,-6.2,30.1
2.26,0.0,0.0,0.0,0.0,0.0,0.0,0.75,0.0,0.5,0.25,0.0,0.0,0.0,-0.67,0.39,0.95,0.0,12.4,-25.4,6.25,1.75,5.0,7.25,8.0,7.0,2.75,4.25,1.0,2.75,2.0,0.5,1.75,0.08,0.14,0.95,801.11,-6.3,29.1
2.28,0.0,0.0,0.0,0.25,0.0,0.0,0.0,0.0,0.0,0.0,0.0,0.0,0.0,-0.61,0.58,1.2,0.0,17.2,57.9,6.0,1.75,5.25,7.0,8.0,6.75,2.5,4.0,1.0,2.75,1.75,0.25,1.75,0.08,0.14,0.95,783.27,-6.4,30.3
2.3,0.0,0.0,0.0,0.25,0.0,0.0,0.0,0.0,0.0,0.0,0.0,0.0,0.0,-0.48,0.64,1.52,0.0,17.2,57.9,6.0,1.5,4.75,7.0,8.0,6.75,2.5,3.5,1.0,2.75,2.0,0.5,1.5,0.08,0.14,0.95,761.46,-6.4,29.9
2.32,0.25,0.0,0.0,0.25,0.0,0.0,0.0,0.0,0.0,0.0,0.0,0.0,0.0,-0.42,0.77,1.58,0.0,25.5,76.7,6.0,1.5,4.75,6.75,7.75,6.5,2.25,3.25,0.75,2.25,1.5,0.25,1.25,0.14,0.14,0.95,725.47,-6.9,34.2
2.34,0.25,0.0,0.0,0.25,0.0,0.0,0.0,0.0,0.0,0.0,0.0,0.0,0.0,-1.3,0.83,1.39,2.54,25.5,76.7,6.0,1.5,4.0,6.75,8.0,6.75,1.75,3.25,0.5,1.5,1.0,0.25,1.25,0.14,0.14,0.95,684.06,-6.3,37.5
2.36,0.5,0.0,0.0,0.25,0.0,0.0,0.0,0.0,0.0,0.0,0.0,0.0,0.0,-0.92,0.83,1.77,7.9,28.6,83.5,5.75,1.0,2.5,6.25,8.0,6.5,1.25,2.0,0.5,2.5,0.25,0.25,0.25,0.2,0.2,1.02,616.05,-5.2,40.9
2.38,0.5,0.0,0.0,1.0,0.0,0.0,0.25,0.0,0.25,0.25,0.0,0.0,0.25,-0.67,0.89,2.27,19.5,14.1,22.1,5.75,1.25,1.25,5.75,8.0,6.0,0.75,2.0,0.25,1.25,0.75,0.25,0.5,0.2,0.14,1.77,547.39,-4.7,42.6
2.4,0.0,0.0,1.0,0.75,0.0,0.0,0.25,0.0,0.25,0.25,0.0,0.0,0.25,-0.61,1.14,2.58,31.35,19.4,20.4,5.75,1.0,0.75,5.25,6.75,4.5,0.75,1.5,0.5,1.0,0.25,0.25,0.75,0.27,0.27,1.52,464.01,-5.8,43.7
2.42,0.0,0.0,1.0,1.0,0.0,0.0,0.0,0.0,0.5,0.5,0.0,0.0,0.25,-0.67,1.33,2.45,43.45,15.6,11.5,5.5,1.0,0.0,3.25,4.75,2.0,0.75,1.0,0.25,0.25,0.5,0.25,0.5,0.39,0.2,1.83,361.41,-9.1,48.9
2.44,0.25,0.0,1.25,1.0,0.0,0.0,0.0,0.0,0.25,0.0,0.0,0.0,0.0,-0.23,1.58,1.52,50.18,27.8,54.1,3.75,0.5,0.0,1.0,1.5,1.75,0.75,0.75,0.25,0.5,0.25,0.0,0.5,-0.11,0.14,2.14,254.86,-8.4,41.7
2.46,0.5,0.0,1.25,1.0,0.0,0.0,0.0,0.0,0.25,0.25,0.0,0.0,0.25,0.52,1.39,1.08,59.1,22.2,36.0,2.5,0.0,0.0,0.5,1.75,1.25,0.25,0.25,0.0,0.75,0.0,0.25,0.0,-0.23,0.33,1.58,152.3,-6.3,42.6
2.48,0.5,0.0,1.25,1.0,0.0,0.0,0.0,0.0,0.25,0.25,0.0,0.0,0.5,1.58,2.77,1.02,65.39,19.8,26.1,2.0,1.0,0.5,1.75,0.5,2.0,0.25,0.25,0.25,0.0,0.0,0.25,0.0,0.33,0.33,1.08,75.4,-10.4,55.3
2.5,0.5,0.0,1.25,1.0,0.0,0.0,0.25,0.0,0.25,0.25,0.0,0.0,0.0,2.33,3.7,0.27,67.76,25.3,46.7,1.5,0.0,0.75,2.0,1.25,2.0,0.25,0.25,0.0,0.0,0.25,0.0,0.5,0.27,0.14,0.52,33.93,-7.0,41.9
2.52,0.25,0.0,1.0,0.5,0.0,0.0,0.0,0.0,0.25,0.25,0.0,0.0,0.25,1.02,1.89,0.58,63.4,20.5,23.3,1.75,1.0,0.0,1.25,0.0,2.0,0.0,0.5,0.0,0.25,0.25,0.25,0.5,0.2,0.33,0.33,18.86,-4.5,34.3
2.54,0.5,0.0,1.25,0.25,0.0,0.0,0.0,0.0,0.25,0.5,0.0,0.0,0.25,-0.42,0.64,0.95,59.93,20.4,21.1,1.5,0.75,0.75,0.25,0.0,0.75,0.25,0.25,0.25,1.0,0.0,0.25,0.0,0.08,0.33,0.27,7.71,-11.3,31.3
2.56,0.75,0.0,1.0,0.0,0.0,0.0,0.0,0.0,0.25,1.25,0.0,2.0,1.5,-0.42,-1.3,-1.92,76.08,6.4,-53.3,1.0,0.25,1.0,0.5,0.5,1.75,0.25,0.25,0.25,0.75,0.25,0.25,0.5,0.02,0.39,0.14,11.9,-4.5,16.6
2.58,0.5,0.0,0.25,0.0,0.0,0.0,0.0,0.0,0.0,4.75,0.0,5.5,6.5,-0.42,-0.61,2.2,156.48,-5.1,-92.6,0.0,0.0,0.0,0.25,0.0,0.0,0.0,0.25,0.25,1.5,0.25,0.0,0.0,-0.05,0.39,-0.05,0.0,7.0,-54.2
2.6,0.5,0.0,0.0,0.0,0.0,0.0,0.0,0.0,0.75,6.0,4.75,4.5,7.5,-0.05,0.95,2.14,250.72,-3.5,-88.4,0.0,0.0,0.0,0.25,0.0,0.0,0.25,0.25,0.0,0.0,0.0,0.0,0.0,-0.05,0.27,0.02,0.0,-6.6,13.8
2.62,0.0,0.0,0.0,0.0,0.0,0.0,0.0,0.0,0.0,6.5,0.0,4.25,0.0,-0.8,0.2,1.58,266.41,-6.0,-89.0,0.0,7.75,0.0,0.5,0.5,0.5,0.0,0.5,0.5,0.5,0.25,0.25,0.0,0.14,0.02,0.14,30.44,-7.9,64.6
2.64,0.0,0.0,0.0,2.0,0.0,1.5,0.25,4.25,2.5,6.0,6.75,4.0,5.5,0.14,0.58,1.33,351.87,-3.0,-64.3,0.0,0.0,1.0,0.25,0.0,0.75,0.0,0.25,0.0,0.0,0.0,0.0,0.0,0.2,0.14,0.58,36.4,-10.4,41.0
2.66,2.25,0.75,1.25,1.25,0.0,1.25,0.25,4.25,2.75,5.75,6.25,3.0,4.25,-0.17,0.2,1.02,409.55,1.0,-45.2,0.0,0.0,0.0,0.25,0.0,0.5,0.0,0.25,0.0,0.0,0.0,0.0,0.0,0.14,0.27,0.39,41.31,10.6,21.9
2.68,3.5,0.75,1.75,2.25,0.75,1.5,0.0,4.25,3.5,5.75,0.0,3.0,4.0,-0.17,0.14,0.89,464.26,1.5,-24.9,0.0,0.0,0.0,0.25,0.0,0.5,0.0,0.25,0.0,0.0,0.0,0.0,0.0,0.08,0.64,0.33,23.43,10.6,21.9
2.7,2.75,1.0,1.75,1.0,0.75,0.0,0.75,3.5,3.75,5.75,0.0,3.0,4.0,-0.11,0.14,0.95,460.12,2.3,-32.9,0.25,0.0,0.25,0.5,0.5,2.0,0.5,0.25,0.25,1.0,0.25,0.5,0.5,0.2,1.33,0.52,40.1,4.2,-8.2
2.72,3.0,0.0,2.5,0.25,0.0,0.0,0.75,3.5,4.0,6.0,7.25,3.0,4.0,-0.05,0.08,0.95,492.62,4.5,-47.5,0.0,0.0,1.5,0.25,0.25,0.25,0.25,0.5,0.0,0.0,0.25,0.0,0.5,2.08,2.89,-3.67,37.63,-13.0,11.3
2.74,4.0,0.0,1.75,2.0,0.0,0.0,0.75,3.25,4.0,5.75,6.75,3.0,4.0,-0.11,0.08,0.95,502.85,5.5,-39.9,0.0,0.0,1.0,0.25,0.5,0.0,0.25,0.25,0.0,0.0,0.0,0.25,0.0,2.52,2.58,-2.8,44.67,-17.6,30.2
2.76,3.75,0.0,2.5,2.0,0.0,0.0,1.0,3.25,4.25,5.75,7.25,3.25,4.0,-0.11,0.08,0.95,526.98,6.2,-39.3,0.0,0.0,0.0,0.25,0.0,0.0,0.0,0.25,0.0,0.0,0.0,0.0,0.0,0.77,2.64,0.27,32.41,-0.6,10.6
2.78,4.0,0.0,2.75,2.0,0.0,0.0,0.75,2.75,4.5,5.75,7.25,3.0,4.0,-0.11,0.08,0.95,538.43,6.9,-37.4,0.75,1.0,0.0,0.5,0.0,0.0,0.0,0.25,0.0,0.0,0.0,0.0,0.0,0.33,3.08,-0.05,29.99,-16.8,76.3
2.8,4.0,0.0,2.75,1.25,0.0,0.0,0.75,3.0,4.75,6.0,7.75,3.0,4.0,-0.11,0.08,0.95,538.96,6.4,-40.3,1.25,1.0,0.25,0.5,0.5,1.75,0.75,0.25,0.0,0.0,0.25,0.0,0.5,1.89,2.77,-0.8,50.37,-5.4,41.8
2.82,3.5,0.0,2.75,0.0,0.0,0.0,0.75,3.25,5.0,6.25,7.75,3.0,4.0,-0.11,0.08,0.95,522.88,5.4,-46.0,0.0,0.0,1.0,0.5,0.5,0.5,0.25,0.25,0.0,0.0,0.0,0.0,0.5,0.39,1.58,0.14,61.26,-8.1,22.1
2.84,3.75,0.0,2.75,0.0,0.0,0.0,0.75,1.75,5.5,5.75,0.0,3.0,4.25,-0.11,0.08,0.95,463.51,5.7,-36.8,1.25,0.5,0.0,0.5,0.0,2.0,0.0,0.25,0.25,1.0,0.0,0.0,0.0,-1.42,0.77,3.27,77.75,0.6,29.5
2.86,3.75,0.0,2.0,0.0,0.0,0.0,0.75,1.5,5.0,5.75,0.0,3.0,4.0,-0.05,0.08,1.02,405.22,5.0,-39.0,0.5,0.25,0.0,0.5,0.25,2.0,0.25,0.25,0.25,0.5,0.0,0.25,0.5,-2.8,-1.3,3.77,78.92,4.8,8.2
2.88,3.5,0.0,0.0,0.0,0.0,0.0,1.0,0.0,5.0,5.75,7.5,3.0,4.0,-0.11,0.08,0.95,367.92,5.1,-56.2,1.25,0.25,1.25,0.5,0.25,2.0,0.75,0.5,0.25,0.75,0.25,0.25,0.5,-2.98,-2.17,2.95,108.2,-6.0,18.1
2.9,3.0,0.0,0.0,0.0,0.0,0.0,0.75,0.0,5.25,5.75,8.0,3.0,4.0,-0.05,0.08,0.95,367.56,4.7,-59.2,1.25,0.5,0.5,0.5,0.5,2.0,0.25,0.25,0.5,0.5,0.25,0.0,0.0,-0.67,-1.42,1.2,114.78,-4.6,35.4
2.92,2.25,0.0,1.25,0.0,0.0,0.0,0.5,0.0,1.5,5.75,7.75,3.0,3.75,-0.05,0.08,0.95,359.01,4.4,-60.2,1.25,0.75,1.5,0.5,0.5,1.5,0.25,0.25,0.25,0.25,0.25,0.25,0.5,-0.36,-0.86,0.39,127.55,-10.2,32.7
2.94,2.75,0.0,1.75,0.0,0.0,0.0,0.75,0.0,5.5,5.5,7.75,2.5,3.75,-0.05,0.08,1.02,366.62,6.7,-51.4,1.25,0.75,1.25,0.5,0.25,2.0,0.75,0.25,0.25,1.0,0.25,0.25,0.5,0.02,-0.73,-0.23,135.18,-6.5,21.8
2.96,1.5,0.0,2.0,0.5,0.0,0.0,1.0,0.0,5.75,4.75,7.5,2.0,3.5,-0.05,0.02,1.02,358.54,6.9,-51.7,0.5,0.0,1.25,0.25,0.5,1.75,0.25,0.0,0.0,0.0,0.0,0.0,0.0,0.77,-0.17,-1.05,124.76,-7.8,52.6
2.98,2.25,0.0,1.25,0.25,0.0,0.0,1.0,0.0,5.5,4.5,7.75,2.0,2.75,0.14,0.02,1.02,350.68,7.5,-50.5,1.25,1.0,0.0,0.5,0.0,1.5,0.5,0.0,0.25,0.25,0.25,0.5,0.5,7.95,2.89,-4.05,117.48,-6.0,23.4
3.0,1.75,0.0,1.75,0.5,0.0,0.0,1.0,0.0,5.5,3.75,7.75,2.25,2.75,0.08,0.08,1.14,341.12,8.4,-49.7,0.5,1.0,1.0,0.5,0.25,2.0,0.5,0.25,0.25,0.0,0.25,0.0,0.5,2.2,1.2,-1.17,111.53,-5.3,34.7
3.02,2.0,0.0,1.5,0.0,0.0,0.0,0.75,0.0,5.0,3.0,7.75,2.25,2.75,0.02,0.02,1.14,330.21,8.7,-51.6,0.75,0.0,1.25,0.25,0.25,0.0,0.0,0.0,0.0,0.0,0.25,0.0,0.5,-0.8,0.27,0.33,91.12,-22.1,31.2
3.04,1.25,0.0,1.5,0.25,0.0,0.0,0.75,0.0,3.5,3.0,7.5,3.0,1.75,0.02,0.02,1.14,310.24,8.7,-54.9,0.0,0.0,0.0,0.25,0.0,0.0,0.0,0.25,0.0,0.0,0.0,0.0,0.0,-0.42,-0.11,-0.05,56.7,-0.6,10.6
3.06,1.25,0.0,1.25,0.25,0.0,0.0,0.75,0.0,2.75,2.25,6.75,2.0,1.5,0.08,-0.17,1.08,283.35,9.4,-51.8,0.0,0.0,0.0,0.25,0.0,0.25,0.0,0.0,0.0,0.0,0.0,0.0,0.0,-0.23,-0.05,-0.05,29.19,1.7,46.6
3.08,1.0,0.0,1.25,0.0,0.0,0.0,0.0,0.0,1.75,1.25,6.0,2.0,1.5,0.58,-0.05,0.77,251.32,9.8,-56.2,0.0,0.0,0.0,0.25,0.0,0.25,0.0,0.0,0.0,0.0,0.0,0.0,0.0,1.02,0.45,0.14,3.71,1.7,46.6
3.1,2.25,0.0,1.75,0.0,0.0,0.0,0.5,0.0,0.5,1.25,5.5,1.75,1.0,1.08,0.14,0.83,211.63,13.9,-35.5,0.0,0.0,0.0,0.25,0.0,0.25,0.0,0.25,0.0,0.0,0.0,0.0,0.0,1.45,0.83,0.08,0.0,6.8,18.0
3.12,1.5,0.0,1.25,0.0,0.0,0.0,0.0,0.0,1.5,1.25,3.5,1.5,0.5,1.33,0.14,0.7,166.8,12.9,-38.1,0.0,0.0,0.0,0.5,0.0,0.75,0.25,0.0,0.0,0.0,0.0,0.0,0.0,1.39,0.7,-0.05,0.0,2.4,42.7
3.14,2.25,0.0,0.0,0.0,0.0,0.0,0.75,0.0,0.75,1.25,1.25,1.75,0.5,0.83,-0.05,0.95,123.83,12.1,-31.1,0.0,0.0,0.0,0.25,0.0,0.0,0.0,0.0,0.0,0.0,0.0,0.0,0.0,1.39,0.27,-0.17,0.0,-17.2,57.9
3.16,2.25,0.0,0.75,0.0,0.0,0.0,0.75,0.0,0.0,1.25,2.75,1.25,0.5,-0.05,0.52,1.02,97.0,14.3,-25.3,0.0,0.0,0.0,0.25,0.0,0.0,0.0,0.0,0.0,0.0,0.0,0.0,0.0,0.83,0.02,0.02,0.0,-17.2,57.9
3.18,1.5,0.0,1.25,0.0,0.0,0.0,0.5,0.0,0.0,0.75,0.0,1.25,0.5,-0.11,-0.8,0.52,62.72,18.0,-5.0,0.0,0.0,0.0,0.25,0.0,0.0,0.0,0.25,0.0,0.0,0.0,0.0,0.0,0.39,-0.11,0.14,0.0,-0.6,10.6
3.2,0.0,0.0,0.0,0.0,0.0,0.0,0.0,0.0,0.0,0.0,0.0,0.0,0.0,-0.17,-0.86,1.33,15.39,0.0,0.0,0.5,0.75,0.0,1.25,0.0,2.0,0.25,0.25,0.25,0.5,0.0,0.25,0.0,0.14,-0.05,0.02,24.84,-0.4,31.2
3.22,0.0,0.0,0.0,0.0,0.0,0.0,0.0,0.0,0.0,0.0,0.0,0.0,0.0,-0.48,-0.86,1.45,0.0,0.0,0.0,1.25,0.75,1.5,0.5,0.25,1.75,0.25,0.25,0.25,1.25,0.25,0.25,0.5,0.2,-0.05,-0.11,70.49,-6.8,19.7
3.24,0.0,0.0,0.0,0.0,0.0,0.0,0.0,0.0,0.75,0.75,0.0,0.0,0.0,0.14,-1.23,1.58,0.0,-1.8,-57.1,0.0,0.0,1.0,0.5,0.25,2.0,0.25,0.25,0.0,1.0,0.25,0.0,0.5,0.58,0.27,-1.67,97.33,2.7,2.7
3.26,1.25,0.0,1.25,0.25,0.0,0.0,0.5,0.0,0.75,1.0,0.0,0.0,0.0,1.02,-1.61,0.58,0.0,20.3,23.4,1.0,0.5,1.25,0.5,0.5,1.5,0.25,0.25,0.25,0.75,0.25,0.25,0.5,1.95,0.89,-1.86,122.61,-6.7,20.4
3.28,1.25,0.0,0.0,0.25,0.0,0.0,1.5,0.0,0.75,1.0,0.0,0.0,0.0,-0.8,0.27,0.08,0.0,15.9,11.5,1.25,0.75,1.25,0.5,0.5,1.75,0.25,0.25,0.25,1.0,0.25,0.25,0.5,0.64,0.58,-1.86,137.48,-6.2,22.4
3.3,1.0,0.0,0.0,0.25,0.0,0.0,0.0,0.0,0.75,1.0,0.5,0.0,0.25,-0.17,0.58,1.08,21.82,8.7,-16.9,0.75,0.5,1.0,0.5,0.5,1.25,0.25,0.25,0.25,1.0,0.25,0.25,0.5,-0.55,0.83,-0.48,138.91,-4.9,12.6
3.32,1.0,0.0,0.0,0.0,0.0,0.0,0.25,0.0,0.75,1.0,0.0,0.0,0.25,-0.36,0.52,0.45,29.46,8.6,-12.3,1.25,0.75,1.25,0.5,0.5,1.5,0.25,0.25,0.25,0.25,0.0,0.25,0.5,-0.42,0.58,-0.73,139.12,-9.2,35.2
3.34,1.5,0.0,1.25,0.0,0.0,0.0,0.25,0.0,0.75,0.75,0.5,0.0,0.25,0.08,0.39,0.45,44.4,20.0,13.6,1.0,1.0,1.0,0.5,0.25,1.25,0.25,0.25,0.25,1.0,0.25,0.25,0.5,-0.17,0.33,-0.61,139.04,-6.6,19.5
3.36,1.25,0.0,1.0,0.0,0.0,0.0,0.25,0.0,0.5,0.25,0.0,0.0,0.25,0.39,-0.23,0.52,49.4,24.9,34.4,1.0,0.5,1.0,0.5,0.25,1.75,0.25,0.25,0.25,1.0,0.0,0.0,0.5,0.2,0.14,-0.55,135.2,-4.0,22.5
3.38,1.25,0.0,1.25,0.0,0.0,0.0,0.25,0.0,0.5,0.5,0.0,0.0,0.25,0.7,-0.92,0.33,58.56,23.1,29.0,1.0,0.5,1.0,0.75,0.5,2.0,0.25,0.25,0.25,1.25,0.25,0.25,0.5,0.45,-0.17,-0.61,137.32,-3.2,15.5
3.4,0.5,0.0,1.25,0.0,0.0,0.0,0.25,0.0,0.75,0.25,0.75,0.0,0.25,1.08,-1.36,0.39,61.31,20.5,-0.7,1.25,0.5,1.25,0.5,0.5,1.75,0.25,0.25,0.25,0.75,0.25,0.25,0.5,0.89,-0.17,-0.42,136.84,-6.7,23.0
3.42,0.75,0.0,0.75,0.0,0.0,0.0,0.25,0.0,0.75,0.25,1.0,0.0,0.25,1.08,-1.23,0.33,66.28,18.3,-7.8,0.75,0.75,0.75,0.5,0.25,1.75,0.25,0.25,0.25,1.0,0.25,0.25,0.5,1.2,-0.05,-0.42,130.79,-2.5,13.7
3.44,1.25,0.0,1.0,0.0,0.0,0.0,0.25,0.0,0.75,0.25,0.0,0.0,0.25,0.7,-0.86,0.27,67.0,24.0,29.3,1.0,0.5,1.0,0.5,0.25,1.75,0.25,0.25,0.25,0.75,0.25,0.25,0.5,1.39,0.02,-0.42,121.57,-5.1,18.1
3.46,1.0,0.0,1.25,0.0,0.0,0.0,0.0,1.5,0.5,0.25,0.0,0.0,0.0,0.27,-0.42,0.27,68.54,13.1,16.5,1.25,0.5,0.75,0.75,0.5,2.0,0.25,0.25,0.25,1.0,0.25,0.0,0.5,1.02,0.08,-0.3,121.42,-3.4,23.1
3.48,1.25,0.0,1.0,0.25,0.0,0.0,0.0,1.25,0.5,0.5,0.0,0.0,0.0,0.02,-0.23,0.33,70.58,13.1,18.4,0.75,0.5,1.0,0.5,0.5,1.5,0.25,0.25,0.25,0.0,0.25,0.25,0.5,0.7,0.08,-0.3,115.93,-7.1,27.2
3.5,0.75,0.0,1.0,0.0,0.0,0.0,0.0,0.0,0.5,0.75,0.0,0.0,0.0,0.14,-0.23,0.33,63.66,19.5,18.7,0.75,0.5,1.0,0.5,0.25,2.0,0.5,0.25,0.25,0.0,0.25,0.25,0.5,0.64,0.02,-0.36,110.53,-5.9,26.5
3.52,0.25,0.0,1.0,0.0,0.0,0.0,0.25,1.5,0.5,0.5,0.0,0.0,0.25,0.33,-0.55,0.52,64.17,5.0,-13.1,0.5,0.5,0.75,0.5,0.25,1.75,0.25,0.25,0.25,0.75,0.0,0.25,0.0,0.64,0.02,-0.48,102.0,-2.7,25.0
3.54,1.0,0.0,1.0,0.25,0.0,0.0,0.0,0.0,0.5,0.5,0.0,0.0,0.0,0.58,-0.92,0.77,59.12,23.2,34.9,1.25,0.5,1.0,0.5,0.5,1.75,0.25,0.25,0.25,1.0,0.25,0.75,0.5,0.58,0.08,-0.67,110.56,-5.2,11.3
3.56,0.5,0.0,1.0,0.25,0.0,0.0,0.0,0.0,0.5,0.75,0.0,0.0,0.25,0.77,-0.98,0.89,55.75,15.6,6.0,1.0,0.75,1.0,0.5,0.5,1.5,0.25,0.25,0.25,0.5,0.25,0.25,0.5,0.58,0.2,-0.73,111.89,-6.6,25.0
3.58,0.75,0.0,0.25,0.25,0.0,0.0,0.0,0.0,0.25,0.5,0.0,0.0,0.25,0.7,-0.73,0.89,45.94,13.7,10.7,1.0,0.75,1.25,0.5,0.25,1.25,0.25,0.25,0.25,0.75,0.25,0.25,0.5,0.45,0.27,-0.8,116.36,-8.3,21.4
3.6,0.75,0.0,1.0,0.25,0.0,0.0,0.0,0.0,0.25,0.5,0.0,0.0,0.25,0.52,-0.42,0.64,45.79,20.0,23.6,1.0,0.75,1.25,0.5,0.25,1.25,0.25,0.25,0.25,1.0,0.25,0.25,0.5,0.45,0.33,-0.8,117.35,-7.5,18.2
3.62,1.25,0.0,1.0,0.25,0.0,0.0,0.0,0.0,0.5,0.5,0.0,0.0,0.25,0.45,-0.17,0.52,47.94,21.4,28.8,0.5,0.5,0.75,0.5,0.5,2.0,0.25,0.25,0.25,0.25,0.25,0.25,0.5,0.45,0.33,-0.73,112.98,-1.9,20.0
3.64,1.25,0.0,1.0,0.25,0.0,0.0,0.0,0.0,0.5,0.5,0.0,0.0,0.25,0.45,-0.23,0.33,53.0,21.4,28.8,0.75,0.5,1.0,0.5,0.5,1.25,0.25,0.25,0.25,1.25,0.25,0.25,0.5,0.58,0.27,-0.67,112.51,-4.2,9.6
3.66,1.25,0.0,1.0,0.25,0.0,0.0,0.0,0.0,0.5,0.5,0.0,0.0,0.25,0.52,-0.42,0.33,57.33,21.4,28.8,0.75,0.75,1.25,0.5,0.5,1.75,0.25,0.25,0.25,0.0,0.25,0.0,0.5,0.64,0.2,-0.61,111.61,-7.4,36.3
3.68,1.25,0.0,1.0,0.25,0.0,0.0,0.0,1.5,0.5,0.5,0.0,0.0,0.25,0.58,-0.61,0.39,67.26,10.4,9.3,1.0,0.5,0.75,0.5,0.5,1.25,0.25,0.25,0.25,0.75,0.25,0.25,0.5,0.7,0.14,-0.55,110.92,-5.4,16.9
3.7,1.25,0.0,1.0,0.5,0.0,0.0,0.0,1.5,0.5,0.5,0.0,0.0,0.25,0.58,-0.73,0.45,76.36,10.7,11.7,1.25,0.5,1.0,0.5,0.5,1.25,0.25,0.25,0.25,0.75,0.25,0.25,0.5,0.77,0.14,-0.55,112.01,-7.5,21.0
3.72,0.75,0.0,1.0,0.5,0.0,0.0,0.0,1.5,0.25,0.25,0.0,0.0,0.25,0.52,-0.73,0.58,79.68,9.6,10.3,1.25,0.5,1.0,0.75,0.25,1.25,0.25,0.25,0.25,0.5,0.0,0.25,0.5,0.77,0.14,-0.48,112.48,-9.1,28.0
3.74,0.75,0.0,0.5,0.5,0.0,0.0,0.0,1.5,0.5,0.25,0.0,0.0,0.25,0.33,-0.67,0.58,79.14,6.2,1.3,1.0,0.5,0.75,0.5,0.25,1.75,0.25,0.25,0.25,0.0,0.25,0.25,0.5,0.83,0.14,-0.48,108.48,-6.2,27.5
3.76,1.25,0.0,1.0,0.5,0.0,0.0,0.0,1.5,0.25,0.5,0.0,0.0,0.25,0.27,-0.67,0.58,80.89,10.6,14.0,0.75,0.75,1.0,0.5,0.25,1.75,0.25,0.25,0.25,1.0,0.0,0.0,0.5,0.83,0.2,-0.55,108.12,-3.3,22.8
3.78,1.25,0.0,1.0,0.25,0.0,0.0,0.0,1.5,0.5,0.25,0.0,0.0,0.25,0.2,-0.67,0.52,82.02,11.7,13.6,1.0,0.75,0.75,0.5,0.5,1.5,0.25,0.25,0.25,0.75,0.25,0.5,0.5,0.77,0.2,-0.61,109.84,-4.9,16.0
3.8,1.5,0.0,1.0,0.5,0.0,0.0,0.0,1.5,0.25,0.5,0.0,0.0,0.25,0.27,-0.67,0.52,86.56,11.7,17.6,0.75,0.5,0.75,0.5,0.25,1.25,0.25,0.25,0.25,1.0,0.25,0.25,0.5,0.64,0.2,-0.61,109.01,-3.9,8.9
3.82,1.25,0.0,1.0,0.5,0.0,0.0,0.0,1.5,0.25,0.5,0.0,0.0,0.25,0.33,-0.73,0.58,88.45,10.6,14.0,1.25,0.75,1.0,0.5,0.25,1.25,0.25,0.25,0.25,0.75,0.25,0.0,0.5,0.58,0.27,-0.61,110.56,-8.1,27.1
3.84,1.0,0.0,1.0,0.5,0.0,0.0,0.0,1.5,0.25,0.5,0.0,0.0,0.25,0.39,-0.73,0.58,87.03,9.5,10.1,0.75,0.5,0.75,0.5,0.5,1.25,0.25,0.25,0.25,0.5,0.25,0.25,0.5,0.52,0.27,-0.67,106.98,-5.2,17.5
3.86,1.25,0.0,1.0,0.5,0.0,0.0,0.0,1.5,0.5,0.5,0.0,0.0,0.25,0.39,-0.73,0.58,86.64,10.7,11.7,1.25,0.25,1.0,0.5,0.25,1.0,0.25,0.25,0.25,1.0,0.25,0.25,0.5,0.52,0.27,-0.67,106.68,-8.0,12.7
3.88,1.0,0.0,1.0,0.5,0.0,0.0,0.0,1.5,0.5,0.5,0.0,0.0,0.25,0.39,-0.73,0.58,85.79,9.6,7.8,1.25,0.75,0.75,0.5,0.25,1.25,0.25,0.25,0.25,0.75,0.0,0.25,0.5,0.58,0.2,-0.61,105.57,-6.9,24.5
3.9,0.75,0.0,0.5,0.5,0.0,0.0,0.0,1.5,0.5,0.25,0.0,0.0,0.25,0.39,-0.67,0.52,79.66,6.2,1.3,0.75,0.5,0.75,0.5,0.5,1.0,0.25,0.25,0.25,1.0,0.25,0.0,0.5,0.64,0.2,-0.55,104.53,-4.4,14.6
3.92,1.25,0.0,1.0,0.5,0.0,0.0,0.0,1.5,0.25,0.25,0.0,0.0,0.25,0.39,-0.67,0.58,77.68,11.9,18.6,1.0,0.5,1.0,0.5,0.5,1.25,0.25,0.25,0.25,0.25,0.25,0.0,0.5,0.77,0.14,-0.55,103.34,-8.3,30.8
3.94,1.0,0.0,1.0,0.25,0.0,0.0,0.0,1.5,0.25,0.5,0.0,0.0,0.25,0.39,-0.67,0.58,75.66,9.1,7.5,0.75,0.5,0.75,0.5,0.25,1.0,0.25,0.25,0.25,1.0,0.25,0.25,0.5,0.83,0.2,-0.48,100.78,-4.9,8.0
3.96,1.25,0.0,1.0,0.25,0.0,0.0,0.0,1.5,0.25,0.5,0.0,0.0,0.25,0.39,-0.73,0.52,77.14,10.3,11.7,0.5,0.5,0.75,0.5,0.25,1.25,0.25,0.25,0.25,1.0,0.25,0.25,0.5,0.83,0.14,-0.48,99.54,-2.8,5.6
3.98,1.0,0.0,1.0,0.25,0.0,0.0,0.0,0.0,0.25,0.25,0.0,0.0,0.25,0.45,-0.73,0.52,67.25,24.2,37.8,0.75,0.75,0.75,0.5,0.25,1.5,0.25,0.25,0.25,0.75,0.25,0.25,0.5,0.83,0.2,-0.36,101.03,-4.1,16.2
4.0,1.5,0.0,1.0,0.25,0.0,0.0,0.0,0.0,0.25,0.5,0.0,0.0,0.25,0.45,-0.67,0.52,62.5,22.8,37.7,1.0,0.75,0.75,0.5,0.5,1.5,0.25,0.25,0.25,0.0,0.25,0.25,0.5,0.83,0.27,-0.36,102.59,-7.1,31.2
4.02,1.25,0.0,1.0,0.5,0.0,0.0,0.0,0.0,0.25,0.25,0.0,0.0,0.25,0.39,-0.67,0.58,56.73,24.4,43.3,0.75,0.75,0.75,0.5,0.25,1.25,0.25,0.25,0.25,0.5,0.25,0.25,0.5,0.77,0.27,-0.42,102.78,-5.8,19.2
4.04,0.5,0.0,1.0,0.25,0.0,0.0,0.0,0.0,0.25,0.25,0.0,0.0,0.25,0.39,-0.61,0.58,48.97,22.2,26.6,1.0,0.5,0.75,0.5,0.5,1.75,0.25,0.25,0.25,0.75,0.25,0.25,0.5,0.77,0.27,-0.55,107.67,-3.6,18.0
4.06,0.5,0.0,1.0,0.75,0.0,0.0,0.0,0.0,0.5,0.5,0.0,0.0,0.25,0.39,-0.61,0.58,48.21,18.0,19.5,0.75,0.75,1.0,0.5,0.25,1.0,0.25,0.25,0.25,1.0,0.25,0.25,0.5,0.7,0.27,-0.55,108.33,-6.5,13.4
4.08,1.25,0.0,1.0,0.25,0.0,0.0,0.0,0.0,0.25,0.25,0.0,0.0,0.25,0.39,-0.61,0.52,47.77,25.0,42.1,1.25,0.75,0.75,0.5,0.25,1.0,0.25,0.25,0.5,0.5,0.0,0.0,0.5,0.64,0.27,-0.55,107.95,-9.0,30.8
4.1,1.25,0.0,1.0,0.25,0.0,0.0,0.0,0.0,0.25,0.25,0.0,0.0,0.25,0.39,-0.67,0.45,48.77,25.0,42.1,1.25,0.5,0.75,0.5,0.25,1.75,0.25,0.25,0.25,1.25,0.25,0.25,0.5,0.64,0.2,-0.55,112.04,-3.5,13.0
4.12,1.25,0.0,1.0,0.25,0.0,0.0,0.0,0.0,0.25,0.25,0.0,0.0,0.25,0.33,-0.73,0.45,49.49,25.0,42.1,0.75,0.25,0.75,0.5,0.5,1.25,0.25,0.25,0.25,0.75,0.0,0.25,0.5,0.64,0.2,-0.55,108.33,-3.8,14.0
4.14,1.25,0.0,1.0,0.25,0.0,0.0,0.0,0.0,0.25,0.25,0.0,0.0,0.25,0.27,-0.73,0.52,51.16,25.0,42.1,0.75,0.5,0.75,0.5,0.25,1.0,0.25,0.25,0.25,1.0,0.25,0.25,0.5,0.7,0.2,-0.55,105.91,-4.9,8.0
4.16,1.0,0.0,1.0,0.25,0.0,0.0,0.0,0.0,0.25,0.25,0.0,0.0,0.25,0.27,-0.73,0.52,49.37,24.2,37.8,1.0,0.5,0.75,0.5,0.5,1.0,0.25,0.25,0.5,0.75,0.25,0.0,0.5,0.7,0.2,-0.55,103.66,-6.5,18.9
4.18,1.0,0.0,1.0,0.25,0.0,0.0,0.0,0.0,0.25,0.25,0.0,0.0,0.25,0.33,-0.73,0.52,49.0,24.2,37.8,0.5,0.5,1.0,0.5,0.25,1.5,0.25,0.25,0.25,1.5,0.25,0.25,0.5,0.7,0.2,-0.55,106.83,-2.0,3.0
4.2,0.75,0.0,1.0,0.0,0.0,0.0,0.0,0.0,0.5,0.25,0.0,0.0,0.25,0.33,-0.73,0.52,47.14,22.8,23.8,1.25,0.75,1.0,0.5,0.25,1.25,0.25,0.25,0.25,1.0,0.25,0.25,0.5,0.7,0.2,-0.55,111.31,-7.3,19.2
4.22,0.5,0.0,1.0,0.5,0.0,0.0,0.0,0.0,0.25,0.25,0.0,0.0,0.25,0.39,-0.73,0.58,46.74,21.7,29.6,1.0,0.5,1.0,0.5,0.25,1.0,0.25,0.25,0.25,1.0,0.25,0.25,0.5,0.7,0.27,-0.55,112.06,-7.2,13.0
4.24,1.0,0.0,1.0,0.5,0.0,0.0,0.0,0.0,0.5,0.25,0.0,0.0,0.25,0.33,-0.73,0.58,49.18,22.8,33.9,0.75,0.5,1.0,0.5,0.25,1.0,0.25,0.25,0.5,0.75,0.25,0.0,0.5,0.7,0.27,-0.55,109.48,-7.2,16.2
4.26,1.0,0.0,1.0,0.5,0.0,0.0,0.0,0.0,0.25,0.25,0.0,0.0,0.25,0.33,-0.73,0.58,51.89,23.6,39.4,0.75,0.5,0.75,0.5,0.25,1.0,0.25,0.25,0.25,1.5,0.25,0.25,0.5,0.7,0.27,-0.55,106.76,-3.4,1.9
4.28,1.25,0.0,1.0,0.25,0.0,0.0,0.0,0.0,0.25,0.25,0.0,0.0,0.25,0.33,-0.73,0.52,54.37,25.0,42.1,0.5,0.5,0.75,0.5,0.25,0.75,0.25,0.25,0.25,1.25,0.25,0.5,0.5,0.64,0.27,-0.61,102.03,-4.2,-4.0
4.3,1.0,0.0,1.0,0.25,0.0,0.0,0.0,0.0,0.25,0.25,0.0,0.0,0.25,0.33,-0.73,0.52,52.85,24.2,37.8,1.0,0.5,0.75,0.5,0.25,1.25,0.25,0.25,0.0,0.5,0.25,0.25,0.5,0.64,0.27,-0.61,99.51,-6.4,21.2
4.32,1.0,0.0,1.0,0.5,0.0,0.0,0.0,0.0,0.25,0.25,0.0,0.0,0.25,0.33,-0.73,0.52,53.6,23.6,39.4,0.5,0.5,1.0,0.5,0.5,1.25,0.25,0.25,0.25,0.5,0.25,0.25,0.5,0.64,0.27,-0.55,98.81,-5.4,16.3
4.34,1.25,0.0,1.0,0.25,0.0,0.0,0.0,0.0,0.25,0.25,0.0,0.0,0.25,0.39,-0.67,0.52,53.52,25.0,42.1,0.75,0.75,1.0,0.5,0.25,0.75,0.25,0.25,0.5,1.0,0.25,0.25,0.5,0.7,0.27,-0.55,100.98,-7.7,10.8
4.36,1.5,0.0,1.0,0.25,0.0,0.0,0.0,0.0,0.25,0.25,0.0,0.0,0.25,0.39,-0.67,0.52,55.84,25.6,45.9,1.25,0.5,0.75,0.5,0.5,1.25,0.25,0.25,0.25,0.75,0.25,0.25,0.5,0.7,0.27,-0.55,105.9,-6.4,19.5
4.38,0.75,0.0,0.75,0.75,0.0,0.0,0.0,0.0,0.5,0.25,0.0,0.0,0.25,0.39,-0.67,0.45,56.24,20.3,29.1,1.0,0.5,1.25,0.5,0.25,1.0,0.25,0.25,0.25,0.75,0.25,0.0,0.5,0.7,0.27,-0.55,106.74,-9.2,22.8
4.4,1.0,0.0,1.0,0.25,0.0,0.0,0.0,0.0,0.25,0.25,0.0,0.0,0.25,0.45,-0.67,0.52,55.16,24.2,37.8,0.75,0.5,0.75,0.5,0.5,0.75,0.25,0.25,0.0,1.0,0.25,0.25,0.5,0.7,0.27,-0.55,103.74,-5.3,11.0
4.42,1.0,0.0,1.0,0.25,0.0,0.0,0.0,0.0,0.5,0.25,0.0,0.0,0.25,0.45,-0.61,0.52,54.34,23.3,31.9,0.5,0.5,0.75,0.75,0.25,1.25,0.25,0.25,0.25,0.5,0.0,0.25,0.5,0.7,0.27,-0.55,98.79,-4.7,18.2
4.44,1.25,0.0,1.0,0.5,0.0,0.0,0.0,0.0,0.25,0.25,0.0,0.0,0.25,0.45,-0.61,0.52,55.62,24.4,43.3,1.0,0.25,1.0,0.5,0.25,1.25,0.25,0.25,0.25,0.25,0.0,0.25,0.5,0.7,0.27,-0.55,95.14,-8.6,25.1
4.46,1.0,0.0,1.0,0.5,0.0,0.0,0.0,0.0,0.5,0.25,0.0,0.0,0.25,0.52,-0.61,0.52,56.75,22.8,33.9,0.5,0.75,0.75,0.5,0.25,1.0,0.25,0.25,0.25,1.0,0.25,0.25,0.5,0.7,0.27,-0.55,95.6,-4.2,8.4
4.48,1.25,0.0,1.0,0.25,0.0,0.0,0.0,0.0,0.25,0.25,0.0,0.0,0.25,0.52,-0.61,0.52,56.49,25.0,42.1,0.75,0.5,0.75,0.5,0.25,1.25,0.25,0.25,0.25,0.75,0.25,0.25,0.5,0.7,0.27,-0.55,96.85,-4.7,12.2
4.5,1.25,0.0,1.0,0.5,0.0,0.0,0.0,0.0,0.25,0.25,0.0,0.0,0.25,0.52,-0.61,0.58,57.89,24.4,43.3,1.25,0.5,0.75,0.5,0.25,1.25,0.25,0.25,0.25,0.75,0.25,0.25,0.5,0.7,0.27,-0.55,101.0,-6.8,18.1
4.52,1.0,0.0,1.0,0.5,0.0,0.0,0.0,0.0,0.5,0.25,0.0,0.0,0.25,0.52,-0.61,0.58,58.23,22.8,33.9,0.5,0.5,1.0,0.75,0.25,0.75,0.25,0.25,0.0,1.0,0.25,0.25,0.5,0.7,0.27,-0.55,100.67,-6.5,9.8
4.54,0.5,0.0,0.75,0.25,0.0,0.0,0.0,0.0,0.5,0.0,0.0,0.0,0.25,0.52,-0.61,0.52,51.58,23.4,26.9,0.75,0.5,0.75,0.5,0.25,1.25,0.25,0.25,0.25,0.75,0.25,0.25,0.5,0.7,0.27,-0.55,100.57,-4.7,12.2
4.56,1.25,0.0,1.0,0.5,0.0,0.0,0.0,0.0,0.25,0.25,0.0,0.0,0.25,0.45,-0.61,0.52,52.3,24.4,43.3,1.0,0.5,0.75,0.5,0.25,1.25,0.25,0.25,0.25,1.0,0.25,0.25,0.5,0.7,0.27,-0.55,101.58,-5.0,11.9
4.58,1.25,0.0,1.0,0.5,0.0,0.0,0.0,0.0,0.5,0.25,0.0,0.0,0.25,0.45,-0.61,0.52,54.52,23.6,37.9,0.5,0.75,0.75,0.5,0.5,1.25,0.25,0.0,0.25,0.75,0.25,0.5,0.5,0.64,0.27,-0.55,102.84,-4.6,11.7
4.6,1.0,0.0,1.0,0.75,0.0,0.0,0.0,0.0,0.25,0.25,0.0,0.0,0.25,0.52,-0.61,0.52,57.64,23.1,40.8,0.75,0.75,0.75,0.5,0.25,1.25,0.25,0.0,0.25,1.0,0.25,0.25,0.5,0.7,0.27,-0.55,104.12,-5.1,14.2
4.62,1.0,0.0,1.0,0.25,0.0,0.0,0.0,0.0,0.5,0.25,0.0,0.0,0.25,0.52,-0.61,0.52,57.59,23.3,31.9,1.0,0.5,0.75,0.5,0.5,0.75,0.25,0.0,0.25,1.0,0.25,0.25,0.5,0.7,0.27,-0.55,104.27,-7.5,14.2
4.64,1.0,0.0,1.0,0.25,0.0,0.0,0.0,0.0,0.25,0.25,0.0,0.0,0.25,0.52,-0.61,0.58,55.71,24.2,37.8,0.5,0.5,0.75,0.5,0.25,0.75,0.25,0.0,0.25,0.75,0.25,0.25,0.5,0.7,0.27,-0.55,98.33,-6.8,9.0
4.66,1.25,0.0,1.0,0.5,0.0,0.0,0.0,0.0,0.25,0.25,0.0,0.0,0.25,0.52,-0.61,0.58,55.34,24.4,43.3,0.5,0.5,0.75,0.5,0.0,1.25,0.25,0.0,0.25,1.0,0.25,0.25,0.5,0.7,0.27,-0.55,93.9,-4.0,5.2
4.68,1.25,0.0,1.0,0.25,0.0,0.0,0.0,0.0,0.5,0.25,0.0,0.0,0.25,0.52,-0.61,0.58,55.48,24.0,36.4,0.75,0.25,0.75,0.5,1.25,1.25,0.25,0.0,0.25,0.75,0.25,0.25,0.5,0.7,0.27,-0.55,97.05,-3.9,17.7
4.7,1.0,0.0,1.0,1.0,0.0,0.0,0.0,0.0,0.5,0.25,0.0,0.0,0.25,0.52,-0.61,0.58,60.47,22.1,37.0,1.0,0.5,1.0,0.5,0.5,1.0,0.25,0.0,0.25,0.75,0.25,0.25,0.5,0.7,0.27,-0.55,100.37,-8.5,20.1
4.72,1.25,0.0,1.0,0.5,0.0,0.0,0.0,0.0,0.25,0.25,0.0,0.0,0.25,0.52,-0.61,0.58,61.53,24.4,43.3,0.75,0.5,0.75,0.5,0.25,1.25,0.25,0.25,0.25,1.0,0.25,0.25,0.5,0.7,0.27,-0.55,103.2,-3.9,8.9
4.74,1.25,0.0,1.0,0.5,0.0,0.0,0.0,0.0,0.25,0.25,0.0,0.0,0.25,0.52,-0.61,0.58,61.97,24.4,43.3,0.5,0.25,1.0,0.5,0.25,0.75,0.25,0.0,0.25,1.0,0.25,0.25,0.5,0.7,0.27,-0.55,98.88,-7.0,3.5
4.76,1.0,0.0,1.0,0.5,0.0,0.0,0.0,0.0,0.25,0.25,0.0,0.0,0.25,0.52,-0.61,0.58,59.54,23.6,39.4,0.75,0.5,0.75,0.5,0.25,1.25,0.25,0.0,0.25,1.0,0.0,0.25,0.75,0.7,0.27,-0.55,98.33,-3.8,9.2
4.78,1.0,0.0,0.75,0.25,0.0,0.0,0.0,0.0,0.25,0.25,0.0,0.0,0.25,0.52,-0.61,0.58,54.82,22.8,35.6,0.75,0.5,0.75,0.5,0.5,0.75,0.25,0.0,0.25,1.0,0.0,0.25,0.75,0.7,0.27,-0.55,95.56,-5.5,9.4
4.8,1.25,0.0,1.0,0.25,0.0,0.0,0.0,0.0,0.25,0.25,0.0,0.0,0.25,0.58,-0.55,0.58,52.01,25.0,42.1,1.25,0.5,1.0,0.5,0.5,1.25,0.25,0.0,0.25,1.0,0.25,0.25,0.5,0.7,0.27,-0.55,102.56,-7.5,19.7
4.82,1.0,0.0,1.0,0.25,0.0,0.0,0.0,0.0,0.25,0.25,0.0,0.0,0.25,0.58,-0.55,0.58,50.16,24.2,37.8,1.0,0.25,0.75,0.5,0.25,1.5,0.25,0.0,0.25,1.0,0.25,0.25,0.5,0.7,0.27,-0.55,104.57,-4.5,11.2
4.84,1.0,0.0,1.0,0.5,0.0,0.0,0.0,0.0,0.25,0.0,0.0,0.0,0.25,0.58,-0.61,0.58,50.46,26.9,49.0,1.0,0.25,0.75,0.5,0.25,0.75,0.25,0.0,0.25,1.0,0.25,0.25,0.5,0.7,0.27,-0.55,102.91,-7.9,8.5
4.86,1.0,0.0,1.0,0.0,0.0,0.0,0.0,0.0,0.25,0.25,0.0,0.0,0.0,0.52,-0.55,0.52,47.11,28.9,51.1,1.25,0.5,0.75,0.75,0.5,0.5,0.25,0.0,0.25,1.0,0.25,0.25,0.5,0.7,0.27,-0.55,103.0,-10.0,18.1
4.88,1.25,0.0,1.0,0.25,0.0,0.0,0.0,0.0,0.0,0.25,0.0,0.0,0.25,0.45,-0.55,0.52,47.21,26.0,48.9,0.5,0.25,0.75,0.75,0.25,1.0,0.25,0.0,0.25,1.0,0.25,0.25,0.5,0.7,0.27,-0.55,98.9,-4.9,4.6
4.9,1.0,0.0,1.0,0.25,0.0,0.0,0.0,0.0,0.0,0.25,0.0,0.0,0.25,0.45,-0.55,0.52,45.07,25.3,44.7,0.5,0.5,0.75,0.5,0.5,1.5,0.25,0.0,0.25,0.25,0.0,0.25,0.5,0.7,0.27,-0.55,94.94,-4.4,25.5
4.92,1.0,0.0,1.0,0.25,0.0,0.0,0.0,0.0,0.25,0.25,0.0,0.0,0.25,0.45,-0.55,0.52,46.24,24.2,37.8,0.75,0.25,0.75,0.75,0.25,1.0,0.25,0.0,0.25,0.75,0.25,0.0,0.5,0.7,0.27,-0.55,90.7,-6.9,17.1
4.94,1.5,0.0,1.0,0.25,0.0,0.0,0.0,0.0,0.25,0.25,0.0,0.0,0.25,0.45,-0.55,0.52,49.83,25.6,45.9,0.75,0.25,0.75,0.5,0.25,0.75,0.25,0.0,0.25,0.75,0.25,0.0,0.5,0.7,0.27,-0.55,86.94,-7.7,14.3
4.96,1.25,0.0,1.0,0.25,0.0,0.0,0.0,0.0,0.25,0.25,0.0,0.0,0.25,0.52,-0.61,0.58,52.9,25.0,42.1,0.75,0.25,0.75,0.5,0.5,1.25,0.25,0.0,0.25,0.5,0.25,0.25,0.5,0.7,0.27,-0.55,87.01,-5.8,16.4
4.98,1.25,0.0,1.0,0.25,0.0,0.0,0.0,0.0,0.25,0.25,0.0,0.0,0.25,0.58,-0.61,0.64,54.65,25.0,42.1,0.5,0.25,1.0,0.5,0.5,1.0,0.25,0.0,0.25,1.0,0.0,0.25,0.5,0.7,0.27,-0.55,88.24,-5.2,10.4
5.0,1.25,0.0,1.0,0.25,0.0,0.0,0.0,0.0,0.5,0.0,0.0,0.0,0.25,0.58,-0.61,0.64,55.44,27.1,45.1,1.0,0.25,1.0,0.5,0.25,1.25,0.25,0.0,0.0,0.5,0.25,0.25,0.5,0.7,0.27,-0.55,89.79,-8.5,22.1
5.02,1.0,0.0,1.0,0.5,0.0,0.0,0.25,0.0,0.5,0.5,0.0,0.0,0.25,0.52,-0.55,0.64,59.01,20.6,26.6,0.75,0.5,1.0,0.5,0.25,0.5,0.25,0.0,0.25,0.0,0.0,0.25,0.5,0.7,0.27,-0.55,84.92,-14.9,33.0
5.04,1.25,0.0,1.0,0.25,0.0,0.0,0.0,0.0,0.5,0.25,0.0,0.0,0.25,0.52,-0.55,0.58,59.45,24.0,36.4,0.75,0.25,0.75,0.5,0.25,0.75,0.25,0.0,0.0,0.25,0.25,0.0,0.5,0.7,0.27,-0.55,78.44,-10.2,27.5
5.06,1.25,0.0,1.0,0.25,0.0,0.0,0.0,0.0,0.25,0.25,0.0,0.0,0.25,0.45,-0.55,0.58,59.49,25.0,42.1,0.5,0.25,0.75,0.5,0.25,1.0,0.25,0.0,0.0,0.5,0.25,0.25,0.5,0.7,0.27,-0.55,75.09,-6.0,12.2
5.08,1.0,0.0,1.0,0.25,0.0,0.0,0.0,0.0,0.25,0.25,0.0,0.0,0.25,0.45,-0.61,0.58,56.68,24.2,37.8,1.25,0.25,1.0,0.5,0.25,1.25,0.25,0.0,0.25,0.75,0.25,0.25,0.5,0.7,0.27,-0.55,82.95,-8.7,18.8
5.1,1.25,0.0,1.0,0.25,0.0,0.0,0.0,0.0,0.5,0.25,0.0,0.0,0.25,0.45,-0.61,0.52,56.8,24.0,36.4,0.5,0.5,0.75,0.5,0.25,0.75,0.25,0.0,0.25,1.25,0.25,0.25,0.5,0.7,0.27,-0.55,87.0,-4.9,1.8
5.12,1.25,0.0,1.0,0.25,0.0,0.0,0.0,0.0,0.25,0.25,0.0,0.0,0.25,0.45,-0.61,0.58,55.27,25.0,42.1,0.75,0.5,0.75,0.5,0.25,1.0,0.25,0.0,0.25,0.5,0.25,0.25,0.5,0.7,0.27,-0.55,91.56,-7.8,17.5
5.14,1.25,0.0,1.0,0.25,0.0,0.0,0.0,0.0,0.25,0.25,0.0,0.0,0.25,0.52,-0.61,0.58,55.4,25.0,42.1,0.5,0.25,1.0,0.5,0.25,0.75,0.25,0.0,0.25,0.75,0.25,0.25,0.5,0.7,0.27,-0.55,89.97,-8.1,7.2
5.16,1.25,0.0,1.0,0.25,0.0,0.0,0.0,0.0,0.25,0.0,0.0,0.0,0.25,0.52,-0.61,0.58,53.54,28.4,52.1,0.5,0.25,0.75,0.5,0.5,1.25,0.25,0.0,0.0,0.75,0.25,0.25,0.5,0.7,0.27,-0.55,89.5,-3.3,11.3
5.18,1.25,0.5,1.0,0.25,0.0,0.0,0.0,0.0,0.5,0.0,0.0,0.0,0.75,0.52,-0.55,0.58,58.74,20.4,32.8,0.5,0.5,0.75,0.5,0.25,1.5,0.25,0.0,0.0,0.0,0.0,0.5,0.5,0.7,0.27,-0.55,86.28,-5.7,25.4
5.2,1.25,0.0,1.0,0.25,0.0,0.0,0.0,0.0,0.5,0.25,0.0,0.0,0.25,0.52,-0.55,0.58,59.49,24.0,36.4,0.5,0.25,1.0,0.5,0.5,1.0,0.25,0.0,0.0,1.0,0.25,0.0,0.5,0.7,0.27,-0.55,87.05,-4.9,14.1
5.22,1.25,0.0,1.0,0.25,0.0,0.0,0.0,0.0,0.5,0.25,0.0,0.0,0.25,0.45,-0.61,0.58,60.61,24.0,36.4,0.5,0.75,1.0,0.5,0.25,1.25,0.25,0.0,0.25,0.5,0.25,0.25,0.5,0.7,0.27,-0.55,91.18,-7.0,20.3
5.24,1.25,0.0,1.0,0.25,0.0,0.0,0.0,0.0,0.25,0.25,0.0,0.0,0.25,0.45,-0.61,0.52,58.28,25.0,42.1,1.0,0.5,0.75,0.5,0.25,0.5,0.25,0.0,0.0,1.0,0.25,0.25,0.5,0.7,0.27,-0.55,92.53,-9.2,13.6
5.26,1.0,0.0,1.0,0.25,0.0,0.0,0.0,0.0,0.25,0.25,0.0,0.0,0.25,0.52,-0.61,0.58,55.12,24.2,37.8,0.75,0.25,0.75,0.5,0.5,1.0,0.25,0.0,0.25,0.5,0.0,0.5,0.5,0.7,0.27,-0.55,93.29,-6.9,14.0
5.28,1.25,0.0,1.0,0.25,0.0,0.0,0.0,0.0,0.5,0.25,0.0,0.0,0.25,0.52,-0.55,0.58,55.0,24.0,36.4,0.5,0.5,0.75,0.5,0.25,1.25,0.25,0.0,0.25,0.0,0.25,0.25,0.5,0.7,0.27,-0.55,89.53,-7.4,23.7
5.3,1.0,0.0,1.0,0.25,0.0,0.0,0.0,0.0,0.25,0.25,0.0,0.0,0.25,0.52,-0.55,0.58,53.24,24.2,37.8,0.5,0.5,1.0,0.5,0.25,1.0,0.25,0.0,0.0,0.75,0.25,0.0,0.5,0.7,0.27,-0.55,87.03,-6.7,20.2
5.32,1.25,0.0,1.0,0.25,0.0,0.0,0.0,0.0,0.5,0.0,0.0,0.0,0.25,0.52,-0.55,0.58,53.75,27.1,45.1,0.5,0.25,1.0,0.5,0.25,1.25,0.25,0.0,0.25,1.0,0.0,0.25,0.5,0.7,0.27,-0.55,86.8,-4.4,9.2
5.34,1.25,0.0,1.0,0.25,0.0,0.0,0.0,0.0,0.25,0.0,0.0,0.0,0.0,0.52,-0.61,0.58,50.75,32.4,67.5,0.75,0.5,0.75,0.5,0.5,1.0,0.25,0.0,0.0,0.5,0.25,0.0,0.5,0.7,0.27,-0.55,88.26,-6.9,27.8
5.36,1.25,0.0,1.0,0.25,0.0,0.0,0.0,0.0,0.25,0.25,0.0,0.0,0.25,0.52,-0.61,0.58,51.6,25.0,42.1,0.5,0.5,0.75,0.5,0.5,0.75,0.25,0.0,0.0,1.0,0.0,0.25,0.5,0.7,0.27,-0.55,88.33,-4.8,13.4
5.38,1.0,0.0,1.0,0.25,0.0,0.0,0.0,0.0,0.25,0.25,0.0,0.0,0.25,0.45,-0.61,0.58,50.09,24.2,37.8,0.75,0.5,1.0,0.5,0.25,1.25,0.25,0.0,0.0,0.5,0.0,0.25,0.5,0.7,0.27,-0.55,89.18,-7.5,26.6
5.4,1.25,0.0,1.0,0.25,0.0,0.0,0.0,0.0,0.25,0.25,0.0,0.0,0.25,0.52,-0.61,0.58,51.29,25.0,42.1,0.5,0.0,0.75,0.5,0.25,1.0,0.25,0.0,0.0,0.5,0.25,0.25,0.5,0.7,0.27,-0.55,83.52,-5.6,7.3
5.42,1.25,0.0,1.0,0.25,0.0,0.0,0.0,0.0,0.25,0.25,0.0,0.0,0.25,0.52,-0.61,0.58,51.52,25.0,42.1,0.5,0.5,1.0,0.5,0.25,1.0,0.25,0.0,0.25,0.5,0.25,0.25,0.5,0.7,0.27,-0.55,84.31,-8.0,16.1
5.44,1.25,0.0,1.0,0.25,0.0,0.0,0.0,0.0,0.25,0.25,0.0,0.0,0.25,0.52,-0.61,0.58,53.5,25.0,42.1,1.0,0.25,1.0,0.5,0.25,1.25,0.25,0.0,0.25,0.75,0.25,0.25,0.5,0.7,0.27,-0.55,88.25,-7.7,15.8
5.46,1.25,0.0,1.0,0.25,0.0,0.0,0.0,0.0,0.5,0.25,0.0,0.0,0.25,0.52,-0.55,0.58,55.32,24.0,36.4,1.0,0.5,1.0,0.5,0.25,1.25,0.25,0.0,0.25,0.25,0.25,0.25,0.5,0.7,0.27,-0.55,93.62,-9.9,26.9
5.48,1.25,0.0,1.0,0.25,0.0,0.0,0.0,0.0,0.5,0.0,0.0,0.0,0.25,0.52,-0.55,0.58,55.86,27.1,45.1,0.5,0.25,0.75,1.5,0.25,0.75,0.25,0.0,0.25,1.25,0.25,0.25,0.5,0.7,0.27,-0.55,99.77,-6.5,6.8
5.5,1.25,0.0,1.0,0.75,0.0,0.0,0.0,0.0,0.5,0.25,0.0,0.0,0.25,0.45,-0.55,0.58,60.26,23.1,39.2,0.75,0.5,0.75,0.5,0.5,1.25,0.25,0.0,0.25,0.25,0.0,0.25,0.5,0.7,0.27,-0.55,99.58,-6.8,28.1
5.52,1.0,0.0,1.0,0.25,0.0,0.0,0.0,0.0,0.25,0.25,0.0,0.0,0.25,0.45,-0.61,0.58,57.79,24.2,37.8,1.0,0.25,1.0,0.5,0.25,0.75,0.25,0.0,0.25,0.5,0.25,0.0,0.5,0.7,0.27,-0.55,96.25,-11.5,24.3
5.54,1.25,0.0,1.0,0.25,0.0,0.0,0.0,0.0,0.25,0.25,0.0,0.0,0.25,0.45,-0.61,0.58,57.69,25.0,42.1,1.0,0.5,0.75,0.75,0.25,1.25,0.25,0.0,0.0,0.5,0.0,0.25,0.5,0.7,0.27,-0.55,94.17,-7.7,29.4
5.56,1.25,0.0,1.0,0.25,0.0,0.0,0.0,0.0,0.25,0.25,0.0,0.0,0.25,0.45,-0.61,0.58,55.52,25.0,42.1,1.25,0.5,0.75,0.75,0.5,0.75,0.25,0.0,0.0,0.0,0.25,0.25,0.5,0.7,0.27,-0.55,93.41,-13.0,37.8
5.58,1.0,0.0,1.0,0.25,0.0,0.0,0.0,0.0,0.5,0.25,0.0,0.0,0.25,0.52,-0.61,0.58,55.11,23.3,31.9,1.0,0.5,0.75,0.5,0.25,1.25,0.25,0.0,0.25,0.5,0.25,0.25,0.5,0.7,0.27,-0.55,95.42,-7.6,21.2
5.6,1.0,0.0,1.0,0.25,0.0,0.0,0.0,0.25,0.25,0.25,0.0,0.0,0.25,0.52,-0.61,0.58,53.95,21.0,31.8,0.75,0.25,0.75,0.5,0.25,1.0,0.25,0.0,0.25,0.5,0.25,0.25,0.5,0.7,0.27,-0.55,92.75,-7.5,13.6
5.62,1.0,0.0,1.0,0.25,0.0,0.0,0.0,0.0,0.5,0.25,0.0,0.0,0.25,0.45,-0.55,0.58,54.05,23.3,31.9,1.0,0.5,0.75,0.5,0.25,0.75,0.25,0.0,0.25,0.75,0.0,0.25,0.5,0.7,0.27,-0.55,91.82,-9.0,20.0
5.64,1.0,0.0,1.0,0.25,0.0,0.0,0.0,0.75,0.25,0.0,0.0,0.0,0.25,0.45,-0.61,0.58,55.02,18.2,29.4,0.75,0.5,0.75,0.75,0.25,0.75,0.25,0.0,0.25,0.5,0.0,0.25,0.5,0.7,0.27,-0.55,88.99,-9.4,22.9
5.66,0.5,0.0,1.0,0.25,0.0,0.0,0.0,0.5,0.25,0.0,0.0,0.0,0.25,0.45,-0.61,0.58,51.76,18.5,24.0,0.75,0.5,1.0,0.5,0.25,1.5,0.25,0.0,0.25,0.25,0.0,0.25,0.5,0.7,0.27,-0.55,89.34,-7.5,28.6
5.68,1.25,0.0,1.0,0.25,0.0,0.0,0.0,0.75,0.25,0.25,0.0,0.0,0.25,0.45,-0.61,0.58,55.78,17.0,26.8,0.5,0.75,0.75,0.5,0.25,1.0,0.25,0.0,0.0,1.25,0.25,0.25,0.5,0.7,0.27,-0.55,91.02,-3.9,8.7
5.7,1.0,0.0,1.0,0.25,0.0,0.0,0.0,0.5,0.5,0.25,0.0,0.0,0.25,0.45,-0.61,0.58,57.5,17.9,22.4,0.5,0.5,0.75,0.5,0.25,0.75,0.25,0.0,0.0,0.75,0.0,0.25,0.5,0.7,0.27,-0.55,87.88,-6.4,15.5
5.72,1.25,0.0,1.0,0.25,0.0,0.0,0.0,0.0,0.25,0.25,0.0,0.0,0.25,0.45,-0.61,0.58,58.3,25.0,42.1,0.75,0.5,0.75,0.75,0.25,0.75,0.25,0.0,0.25,1.0,0.25,0.25,0.5,0.7,0.27,-0.55,90.08,-7.4,11.0
5.74,1.0,0.0,1.0,0.25,0.0,0.0,0.0,0.0,0.25,0.25,0.0,0.0,0.25,0.45,-0.61,0.58,55.42,24.2,37.8,0.5,0.25,0.75,0.5,0.5,1.0,0.25,0.0,0.0,0.75,0.25,0.25,0.5,0.7,0.27,-0.55,88.24,-4.5,10.3
5.76,1.0,0.0,1.0,0.25,0.0,0.0,0.0,0.0,0.25,0.25,0.0,0.0,0.25,0.45,-0.61,0.58,53.72,24.2,37.8,0.75,0.5,0.75,0.5,0.25,1.25,0.25,0.0,0.0,0.5,0.25,0.25,0.5,0.7,0.27,-0.55,89.08,-6.3,20.7
5.78,1.25,0.0,1.0,0.25,0.0,0.0,0.0,0.0,0.25,0.25,0.0,0.0,0.25,0.45,-0.61,0.58,52.4,25.0,42.1,1.0,0.25,1.0,0.5,0.25,0.75,0.25,0.0,0.25,0.25,0.25,0.0,0.5,0.7,0.27,-0.55,85.99,-12.8,29.2
5.8,1.0,0.0,1.0,0.25,0.0,0.0,0.0,0.5,0.25,0.25,0.0,0.0,0.25,0.45,-0.61,0.58,53.65,18.3,26.8,0.5,0.5,0.75,0.5,0.25,0.75,0.25,0.0,0.0,0.75,0.25,0.25,0.5,0.7,0.27,-0.55,84.58,-6.6,11.3
5.82,0.5,0.0,1.0,0.25,0.0,0.0,0.0,0.0,0.25,0.0,0.0,0.0,0.5,0.45,-0.61,0.58,50.25,22.3,22.8,0.75,0.5,0.75,0.5,0.25,1.0,0.25,0.0,0.0,1.0,0.25,0.25,0.5,0.7,0.27,-0.55,85.82,-5.6,11.9
5.84,0.75,0.0,1.0,0.25,0.0,0.0,0.0,0.0,0.25,0.25,0.0,0.0,0.25,0.45,-0.61,0.58,48.0,23.3,32.7,1.0,0.5,0.75,0.5,0.5,0.75,0.25,0.0,0.25,0.0,0.25,0.25,0.5,0.7,0.27,-0.55,86.96,-11.8,30.8
5.86,1.0,0.0,1.0,0.25,0.0,0.0,0.0,0.0,0.25,0.25,0.0,0.0,0.25,0.45,-0.61,0.58,46.7,24.2,37.8,1.0,0.5,0.75,0.5,0.25,1.25,0.25,0.0,0.0,0.5,0.25,0.25,0.5,0.7,0.27,-0.55,89.88,-7.4,23.7
5.88,1.0,0.0,1.0,0.25,0.0,0.0,0.0,0.0,0.25,0.25,0.0,0.0,0.25,0.45,-0.61,0.58,47.07,24.2,37.8,0.75,0.5,1.0,0.5,0.25,0.75,0.25,0.0,0.0,0.75,0.0,0.5,0.5,0.7,0.27,-0.55,90.37,-9.1,15.5
5.9,1.0,0.0,1.0,0.25,0.0,0.0,0.0,0.0,0.25,0.25,0.0,0.0,0.25,0.45,-0.61,0.58,47.99,24.2,37.8,0.5,0.5,0.75,0.5,0.25,0.75,0.25,0.0,0.25,0.5,0.25,0.25,0.5,0.7,0.27,-0.55,88.01,-7.9,13.1
5.92,1.0,0.0,1.0,0.25,0.0,0.0,0.0,0.0,0.25,0.25,0.0,0.0,0.25,0.45,-0.61,0.58,48.37,24.2,37.8,0.75,0.25,0.75,1.0,0.25,1.0,0.25,0.0,0.0,0.5,0.25,0.25,0.5,0.7,0.27,-0.55,87.98,-8.2,20.0
5.94,1.25,0.0,1.0,0.25,0.0,0.0,0.0,0.0,0.25,0.25,0.0,0.0,0.25,0.45,-0.61,0.58,50.81,25.0,42.1,0.75,0.25,0.75,0.5,0.25,1.5,0.25,0.0,0.0,0.25,0.0,0.0,0.5,0.7,0.27,-0.55,85.08,-5.3,33.6
5.96,1.0,0.0,0.75,0.25,0.0,0.0,0.0,0.0,0.75,0.25,0.0,0.0,0.25,0.45,-0.61,0.58,52.09,21.2,24.2,0.5,0.25,0.75,0.5,0.25,1.0,0.25,0.0,0.0,0.75,0.0,0.25,0.5,0.7,0.27,-0.55,81.53,-4.6,12.0
5.98,1.0,0.0,1.0,0.25,0.0,0.0,0.0,0.0,0.25,0.25,0.0,0.0,0.25,0.45,-0.61,0.58,52.22,24.2,37.8,0.75,0.25,0.75,0.5,0.25,1.0,0.25,0.0,0.25,0.75,0.25,0.25,0.5,0.7,0.27,-0.55,82.65,-6.5,9.6
6.0,1.0,0.0,1.0,0.25,0.0,0.0,0.0,0.0,0.25,0.25,0.0,0.0,0.25,0.45,-0.61,0.58,51.58,24.2,37.8,0.5,0.5,0.75,0.5,0.25,1.25,0.25,0.0,0.0,0.75,0.0,0.25,0.5,0.7,0.27,-0.55,83.62,-3.8,17.2
6.02,1.0,0.0,1.0,0.25,0.0,0.0,0.0,0.0,0.25,0.25,0.0,0.0,0.25,0.45,-0.61,0.58,50.87,24.2,37.8,0.5,0.5,0.75,0.75,0.25,0.75,0.25,0.0,0.25,0.5,0.25,0.25,0.5,0.7,0.27,-0.55,85.05,-8.4,15.3
6.04,1.25,0.0,1.0,0.25,0.0,0.0,0.0,0.0,0.25,0.25,0.0,0.0,0.25,0.45,-0.61,0.58,52.12,25.0,42.1,0.75,0.25,0.75,0.5,0.25,1.0,0.25,0.0,0.0,0.0,0.25,0.5,0.5,0.7,0.27,-0.55,82.7,-9.8,19.1
6.06,0.75,0.0,1.0,0.25,0.0,0.0,0.0,0.0,0.25,0.25,0.0,0.0,0.25,0.45,-0.61,0.58,50.9,23.3,32.7,0.5,0.5,1.0,0.5,0.25,1.0,0.25,0.0,0.0,0.5,0.0,0.25,0.5,0.7,0.27,-0.55,81.98,-7.7,23.1
6.08,1.0,0.0,0.75,0.25,0.0,0.0,0.0,0.0,0.25,0.25,0.0,0.0,0.25,0.45,-0.61,0.58,48.9,22.8,35.6,1.0,0.5,0.75,0.5,0.25,1.25,0.25,0.0,0.25,0.75,0.0,0.25,0.5,0.7,0.27,-0.55,86.26,-6.5,21.1
6.1,1.0,0.0,1.0,0.25,0.0,0.0,0.0,0.0,0.25,0.25,0.0,0.0,0.25,0.45,-0.61,0.58,48.15,24.2,37.8,0.75,0.5,0.75,0.75,0.25,0.75,0.25,0.0,0.0,0.0,0.25,0.25,0.5,0.7,0.27,-0.55,85.32,-11.9,31.2
6.12,1.0,0.0,0.75,0.25,0.0,0.0,0.0,0.0,0.5,0.25,0.0,0.0,0.25,0.45,-0.61,0.58,48.2,22.0,29.4,0.75,0.5,0.75,0.5,0.25,0.75,0.25,0.0,0.0,1.0,0.25,0.25,0.5,0.7,0.27,-0.55,87.85,-6.8,11.0
