time,left pressure 0[N/cm²],left pressure 1[N/cm²],left pressure 2[N/cm²],left pressure 3[N/cm²],left pressure 4[N/cm²],left pressure 5[N/cm²],left pressure 6[N/cm²],left pressure 7[N/cm²],left pressure 8[N/cm²],left pressure 9[N/cm²],left pressure 10[N/cm²],left pressure 11[N/cm²],left pressure 12[N/cm²],left acceleration X[g],left acceleration Y[g],left acceleration Z[g],left total force[N],left center of pressure X[mm],left center of pressure Y[mm],right pressure 0[N/cm²],right pressure 1[N/cm²],right pressure 2[N/cm²],right pressure 3[N/cm²],right pressure 4[N/cm²],right pressure 5[N/cm²],right pressure 6[N/cm²],right pressure 7[N/cm²],right pressure 8[N/cm²],right pressure 9[N/cm²],right pressure 10[N/cm²],right pressure 11[N/cm²],right pressure 12[N/cm²],right acceleration X[g],right acceleration Y[g],right acceleration Z[g],right total force[N],right center of pressure X[mm],right center of pressure Y[mm]
0.02,0.75,0.5,0.75,0.5,0.0,0.0,0.25,0.0,0.25,0.5,0.0,1.0,0.0,-0.3,1.39,2.33,76.83,17.7,10.0,1.0,0.5,0.5,0.5,1.75,0.5,0.25,0.75,0.25,0.5,0.5,0.0,0.0,0.77,0.08,2.02,39.74,-5.9,30.9
0.04,0.5,0.5,0.75,0.5,0.0,0.0,0.25,0.0,0.0,0.5,0.0,1.0,0.0,0.39,2.2,2.27,56.16,17.0,7.8,0.0,0.0,0.0,0.5,0.0,0.75,0.25,1.0,0.25,0.5,0.0,0.0,0.0,0.95,-0.92,1.52,0.0,8.0,-9.1
0.06,0.25,0.5,0.5,0.5,0.0,0.0,0.25,0.0,0.25,0.5,0.0,1.0,0.0,1.45,2.83,1.58,47.44,14.0,-4.8,1.0,0.5,0.5,0.75,0.25,0.75,0.5,0.75,0.25,0.25,0.75,0.25,0.0,0.7,-0.98,1.45,0.0,-9.5,20.2
0.08,0.25,0.5,0.5,0.5,0.0,0.0,0.25,0.0,0.0,0.5,0.0,0.75,0.0,2.08,3.33,0.89,44.02,14.6,6.0,1.0,0.5,0.75,0.5,2.25,0.75,0.75,0.0,0.25,0.25,0.25,0.0,0.0,0.7,-1.17,1.14,0.0,-9.2,48.4
0.1,0.75,0.5,0.5,0.5,0.0,0.0,0.25,0.0,0.0,0.5,0.0,1.0,0.0,2.08,4.33,0.08,49.01,16.6,9.7,0.5,0.5,0.5,0.5,1.75,0.75,0.5,0.0,0.25,0.5,0.5,0.0,0.0,0.2,-0.36,0.64,0.0,-5.9,34.3
0.12,0.0,0.5,0.5,0.5,0.0,0.0,0.25,0.0,0.25,0.75,0.75,0.5,0.0,2.83,3.2,0.45,48.46,10.9,-15.2,0.0,0.0,0.5,0.0,0.0,0.0,0.0,0.0,0.25,0.0,0.0,0.0,0.0,0.2,-0.36,0.33,0.0,-29.8,28.7
0.14,0.0,0.5,0.5,0.5,0.0,0.0,0.25,0.75,0.25,1.75,1.25,2.0,1.25,-0.86,-1.23,2.45,80.07,1.7,-56.8,0.75,0.5,0.75,0.5,0.5,0.75,0.75,0.0,0.25,0.25,0.25,0.0,0.0,0.39,-0.23,0.52,0.0,-13.2,43.9
0.16,1.0,0.5,0.0,0.25,0.0,0.0,0.0,0.75,0.0,2.0,0.0,3.25,2.5,0.58,-0.11,1.27,113.41,-0.6,-64.3,0.25,0.5,1.25,0.5,1.5,0.75,0.25,0.0,0.25,0.5,0.5,0.0,0.0,0.45,-0.23,0.77,1.42,-8.6,34.4
0.18,0.0,0.0,0.0,0.0,0.0,0.0,0.0,2.75,0.0,0.0,2.25,0.0,5.0,0.64,0.64,0.89,144.58,-9.2,-83.0,0.25,0.5,1.5,0.5,1.75,0.5,0.25,0.0,0.25,0.25,0.25,0.0,0.0,0.39,-0.05,0.89,43.96,-11.4,45.2
0.2,0.0,0.5,0.25,0.5,0.0,0.25,0.25,4.5,0.0,5.25,4.5,5.25,5.0,-0.42,0.45,2.08,241.36,-4.2,-73.9,0.25,0.5,0.5,0.5,2.25,0.75,0.5,0.25,0.25,0.5,0.25,0.0,0.0,0.39,0.14,0.89,78.07,-3.0,35.0
0.22,1.0,0.5,0.0,0.5,0.0,0.0,0.25,4.25,0.5,5.75,4.5,5.25,5.75,-0.05,0.08,1.08,319.78,-3.2,-71.0,0.5,0.5,0.5,0.5,1.5,0.75,0.5,0.25,0.25,0.25,0.5,0.25,0.25,0.45,0.33,1.02,98.32,-5.6,23.5
0.24,0.25,0.5,0.0,0.5,0.0,0.0,0.25,5.0,1.5,5.75,5.75,5.25,5.75,-0.17,0.08,0.95,414.39,-3.4,-73.2,0.25,0.5,0.75,0.5,1.5,0.75,0.25,0.25,0.25,0.25,0.25,0.25,0.0,0.39,0.33,1.33,101.34,-5.9,32.1
0.26,1.0,0.5,0.0,0.5,0.0,0.25,0.25,5.25,0.0,5.75,5.75,5.25,5.75,-0.17,0.08,0.95,475.55,-3.5,-69.8,0.5,0.5,0.5,0.5,1.75,0.75,0.25,0.5,0.25,0.25,0.25,0.0,0.0,0.33,0.52,1.45,101.68,-4.2,37.3
0.28,0.5,0.5,0.25,1.5,0.0,0.0,0.5,5.25,1.5,6.0,6.25,5.5,6.0,-0.17,0.08,0.95,532.55,-2.0,-66.9,0.5,0.5,0.25,0.5,2.25,0.5,0.25,0.25,0.25,0.5,0.25,0.0,0.25,0.39,0.64,1.58,104.96,-2.5,30.6
0.3,1.0,0.5,0.0,1.5,0.0,1.0,0.5,5.25,1.5,6.25,6.25,5.5,6.0,-0.17,0.08,0.95,562.86,-2.4,-62.9,0.0,0.5,2.0,0.5,1.25,0.5,0.25,0.0,0.25,0.5,0.25,0.25,0.25,0.45,0.64,1.77,105.11,-11.9,27.5
0.32,1.0,0.5,0.5,1.75,0.0,0.25,0.5,5.25,1.75,6.25,6.25,5.5,6.0,-0.17,0.08,0.95,586.95,-1.2,-62.0,0.5,0.5,0.5,0.5,1.75,0.5,0.5,0.5,0.25,0.25,0.25,0.0,0.0,0.64,0.77,1.95,105.04,-5.8,37.2
0.34,1.0,0.5,0.0,2.5,0.0,0.25,0.5,5.5,2.0,6.0,6.25,5.5,6.0,-0.11,0.08,0.95,599.61,-1.3,-60.7,0.25,0.5,1.5,0.5,1.5,0.5,0.25,0.25,0.25,0.25,0.25,0.0,0.0,0.58,1.08,2.14,106.95,-11.0,41.4
0.36,1.0,0.5,0.25,2.0,1.25,1.0,0.0,5.75,2.25,6.0,5.5,5.0,5.75,-0.17,0.08,0.95,598.97,-2.3,-54.1,0.5,0.5,1.75,0.5,1.75,0.75,0.25,0.5,0.25,0.25,0.25,0.0,0.0,0.2,1.77,2.33,113.67,-10.1,41.4
0.38,1.0,0.5,0.0,1.75,2.75,1.5,0.0,5.75,2.5,5.75,6.25,5.0,5.25,-0.17,0.08,0.95,595.14,-2.4,-49.1,0.5,0.5,0.5,0.5,1.25,0.75,0.75,0.0,0.25,0.25,0.25,0.75,0.0,-0.42,2.27,1.02,106.55,-8.3,23.4
0.4,1.0,0.5,0.0,2.75,2.75,1.5,0.0,5.75,2.5,5.75,6.25,5.0,5.0,-0.17,0.08,0.95,591.75,-1.8,-45.9,0.5,0.5,0.5,0.5,2.25,0.5,0.25,0.25,0.25,0.25,0.25,0.25,0.0,-0.8,3.2,0.45,106.28,-5.5,36.1
0.42,1.0,0.5,0.0,3.25,2.75,2.0,0.5,5.75,2.75,4.75,5.75,4.25,4.0,-0.17,0.02,0.95,569.07,-1.2,-38.6,0.75,0.5,1.5,0.5,1.5,0.5,0.25,0.25,0.25,0.25,0.25,0.0,0.25,-1.67,4.2,0.27,107.49,-11.7,39.6
0.44,1.25,0.5,0.5,4.5,3.25,2.25,0.75,5.75,3.0,4.5,5.5,4.0,3.75,-0.11,0.08,0.95,546.51,0.1,-30.0,0.5,0.5,0.5,0.5,0.0,0.75,0.25,0.25,0.25,0.25,0.25,0.25,0.0,-3.11,4.27,1.45,94.64,-9.5,25.0
0.46,1.25,0.5,0.25,5.5,3.75,2.25,1.0,5.5,3.0,4.5,5.25,3.25,3.0,-0.11,0.08,0.95,534.32,0.5,-23.4,0.0,0.0,0.5,0.5,1.75,0.5,0.0,1.0,0.0,0.0,0.5,0.0,0.25,0.39,0.02,0.83,87.83,0.7,15.6
0.48,1.25,0.5,1.25,6.5,5.0,2.25,1.0,5.5,3.0,3.0,4.75,3.0,2.5,-0.11,0.08,0.95,535.65,2.4,-12.0,0.0,0.5,0.5,0.5,1.0,0.75,0.25,1.25,0.25,2.0,0.0,2.25,1.0,1.2,-0.36,1.95,105.54,2.3,-35.5
0.5,1.25,0.5,1.25,6.75,5.25,2.75,1.25,5.25,2.75,3.0,4.0,2.25,1.25,-0.11,0.08,0.95,528.61,2.6,-3.4,0.0,0.25,0.75,0.25,1.25,0.5,0.0,0.0,0.25,4.75,0.25,5.0,5.0,-0.73,0.39,0.7,172.28,3.9,-70.9
0.52,1.25,1.0,2.5,8.0,6.75,2.75,1.25,5.25,2.5,2.5,3.75,1.75,1.25,-0.11,0.08,0.95,547.38,4.1,7.0,0.5,0.25,0.5,0.0,0.5,1.25,0.25,1.75,0.25,6.5,4.0,5.25,6.25,-0.61,0.77,2.89,264.83,4.2,-72.3
0.54,1.25,1.5,2.5,9.0,7.0,3.0,1.0,5.0,2.5,1.5,3.0,1.75,1.25,-0.11,0.08,0.95,565.86,4.7,13.6,0.0,0.0,0.0,0.5,0.0,2.0,0.0,3.0,1.0,8.25,4.75,6.25,8.0,0.14,0.33,1.2,378.69,6.2,-77.6
0.56,1.75,1.75,2.75,9.25,7.5,3.0,1.5,4.75,2.0,1.25,2.75,1.25,1.25,-0.11,0.08,0.95,590.71,5.6,19.8,0.5,0.5,0.5,0.5,0.0,2.75,0.5,4.75,1.0,8.5,6.0,5.75,8.0,-0.11,0.08,1.08,514.37,5.1,-66.4
0.58,2.5,1.75,3.0,10.5,7.75,3.5,1.75,4.5,1.75,1.25,2.25,1.0,1.25,-0.11,0.08,0.95,620.17,6.3,25.3,0.5,0.0,1.0,0.0,0.0,1.25,0.25,5.5,1.0,7.75,5.5,5.75,7.5,0.2,0.08,0.89,598.37,4.6,-71.6
0.6,2.75,1.75,4.0,10.5,8.0,3.5,1.75,4.5,1.5,1.25,2.25,1.0,1.25,-0.11,0.08,0.95,653.66,7.1,27.1,0.5,0.5,0.75,0.5,2.75,3.25,0.0,5.5,1.0,8.5,5.75,6.25,8.0,0.08,0.08,0.95,681.26,5.2,-56.3
0.62,2.75,1.75,3.75,11.5,8.5,3.5,1.75,3.75,1.0,1.25,2.0,1.0,1.0,-0.11,0.08,0.95,677.1,7.5,31.1,0.25,0.5,0.5,0.5,3.0,3.75,0.25,6.25,1.0,8.75,5.5,6.0,8.0,0.08,0.08,0.95,736.15,6.2,-55.3
0.64,2.75,1.75,4.75,12.0,8.75,3.5,1.75,3.0,0.5,1.25,1.5,1.0,1.0,-0.11,0.14,0.95,695.98,8.5,35.4,0.75,0.5,0.5,0.75,3.0,4.0,0.25,6.25,1.0,8.5,6.5,6.0,8.0,0.08,0.08,0.95,785.6,5.3,-52.9
0.66,3.0,2.25,5.5,13.0,8.5,3.5,1.75,2.75,0.5,1.25,1.5,1.0,1.0,-0.17,0.14,0.95,722.71,9.6,37.7,0.75,0.0,0.5,0.5,3.0,3.25,0.25,6.25,1.0,8.5,5.75,5.75,8.0,0.14,0.08,0.95,794.76,5.7,-56.1
0.68,4.25,3.25,5.75,13.0,9.5,3.5,1.75,2.75,0.5,0.25,1.25,1.0,1.0,-0.11,0.14,1.02,758.78,10.6,43.8,0.75,0.5,0.5,1.25,3.0,4.5,0.5,6.25,1.0,8.5,5.5,5.25,8.0,0.14,0.08,0.95,798.01,5.7,-49.1
0.7,4.5,3.25,5.75,14.0,9.5,3.5,1.5,2.75,0.5,1.0,1.25,1.0,0.5,-0.17,0.14,1.08,800.66,10.7,44.2,0.75,0.5,0.5,1.25,3.5,5.25,0.75,6.75,1.25,8.25,5.5,5.25,7.75,0.14,0.08,0.95,783.99,5.8,-45.8
0.72,4.75,3.25,6.5,14.0,9.5,3.25,1.25,2.75,0.5,1.25,0.75,1.0,0.0,-0.17,0.14,1.08,832.59,11.5,46.9,1.0,0.5,1.0,2.0,4.25,5.5,0.75,7.0,1.25,8.0,5.5,4.75,7.25,0.14,0.08,0.95,769.98,4.9,-38.6
0.74,4.5,3.5,6.5,14.5,9.0,2.75,0.5,2.5,0.25,0.0,0.0,0.0,0.0,-0.17,0.2,1.08,823.82,12.8,56.9,1.0,0.5,1.75,2.75,4.5,5.75,0.75,7.0,1.5,7.75,5.5,4.0,6.75,0.14,0.08,0.95,753.59,3.9,-32.7
0.76,5.25,0.0,4.5,10.0,5.75,0.0,2.0,0.75,1.75,0.0,0.0,0.5,0.0,-0.23,0.2,1.08,688.87,18.0,52.3,1.0,0.5,1.75,3.25,5.75,6.0,0.75,7.0,1.5,7.5,4.75,3.25,6.25,0.14,0.08,0.95,735.71,4.0,-26.1
0.78,7.25,3.5,6.5,13.0,8.0,0.75,0.0,0.0,0.5,1.0,0.0,1.0,0.0,-0.23,0.27,1.2,656.52,16.8,58.6,1.0,0.5,1.25,3.25,6.0,6.25,1.25,6.75,1.5,6.75,3.75,2.75,5.75,0.14,0.08,0.95,705.2,4.4,-22.3
0.8,6.5,3.25,6.75,11.5,7.75,0.25,0.0,2.25,0.5,1.25,1.0,1.0,0.0,-0.3,0.33,1.33,632.5,15.1,49.3,1.0,1.25,2.5,5.25,6.25,6.5,1.25,6.25,1.5,6.5,3.75,2.0,5.0,0.14,0.08,0.95,701.21,2.1,-10.9
0.82,7.25,3.5,5.75,5.25,0.0,0.0,0.0,1.75,0.5,1.0,1.25,1.0,0.0,-0.48,0.39,1.45,542.6,21.5,49.0,1.0,1.0,2.0,5.5,7.5,6.75,1.25,6.25,1.5,5.75,2.75,1.25,3.75,0.14,0.08,0.95,689.9,2.6,-3.0
0.84,2.75,1.75,3.5,8.0,0.0,0.0,0.0,2.25,0.5,0.75,0.5,1.0,0.0,-0.73,0.58,1.45,417.88,17.1,38.7,1.0,1.25,4.0,7.0,7.75,7.0,1.75,6.25,1.5,4.75,2.75,1.25,3.5,0.14,0.08,0.95,706.88,-0.1,4.6
0.86,5.5,0.75,2.0,4.75,0.0,0.0,0.0,0.0,0.5,0.75,0.0,0.75,0.0,-0.92,1.02,2.2,298.47,23.7,55.9,1.0,1.25,3.25,7.25,8.25,7.25,2.0,5.75,1.25,3.5,2.0,1.25,2.75,0.14,0.08,0.95,707.48,-0.1,10.7
0.88,1.75,0.5,0.0,2.75,0.0,0.0,0.0,0.0,0.0,1.75,0.0,0.5,0.0,-0.36,0.95,2.45,184.07,12.3,26.2,1.25,1.5,4.25,8.5,9.0,7.5,2.0,5.5,1.0,3.5,1.5,1.0,2.75,0.14,0.08,0.95,733.28,-1.3,16.6
0.9,0.5,0.25,0.75,2.5,0.0,0.0,0.0,0.0,0.5,0.75,0.5,1.0,0.0,-0.36,0.52,2.27,79.04,14.9,7.1,2.0,2.0,4.0,9.25,9.5,7.5,2.0,5.5,1.0,3.25,1.5,1.0,2.25,0.14,0.08,0.95,760.47,-2.1,21.1
0.92,0.25,0.0,0.0,1.0,0.0,0.0,0.0,0.0,0.5,0.5,0.75,0.5,0.0,-0.92,-0.05,2.08,0.0,10.4,-23.6,2.0,2.0,4.25,11.0,9.5,7.75,2.25,4.75,1.0,2.5,1.5,0.75,1.75,0.14,0.08,0.95,791.91,-3.4,26.9
0.94,0.0,0.5,0.0,0.5,0.0,0.0,0.0,0.0,0.25,0.25,0.25,0.25,0.0,-1.17,-0.8,0.77,0.0,9.5,3.6,2.25,2.25,5.0,11.0,10.0,7.75,2.25,4.25,1.0,2.0,1.5,0.75,1.75,0.14,0.08,0.95,820.69,-4.4,30.0
0.96,0.0,0.25,1.0,0.75,0.0,0.0,0.25,0.0,0.5,0.25,0.0,0.25,0.0,-1.11,-0.86,1.64,0.0,20.2,22.5,3.0,2.25,5.25,12.0,10.5,7.75,2.25,4.0,0.75,2.0,1.5,0.5,1.75,0.08,0.08,0.95,858.17,-5.2,33.1
0.98,0.0,0.25,1.0,1.0,0.0,0.0,0.25,0.0,0.25,0.25,0.0,0.5,0.0,-0.73,-1.17,0.14,0.0,19.7,20.0,3.75,2.5,5.0,12.5,11.5,8.0,1.75,3.25,0.5,2.0,1.25,0.5,1.75,0.08,0.08,0.95,896.83,-5.4,36.5
1.0,0.0,0.5,0.5,0.75,0.0,0.0,0.25,0.0,0.5,0.25,0.0,0.5,0.0,-0.55,-0.23,0.7,0.0,15.7,12.1,5.0,2.75,5.5,13.5,11.5,8.0,2.0,2.75,0.25,2.0,0.75,0.5,1.5,0.08,0.14,0.95,940.89,-6.8,41.3
1.02,0.0,0.5,0.0,0.75,0.0,0.0,0.25,0.0,0.5,0.25,0.0,0.5,0.0,-0.42,-0.36,0.27,0.0,11.4,2.7,5.5,2.0,5.75,14.5,12.5,8.0,2.25,2.0,0.25,0.75,0.5,0.25,1.0,0.08,0.14,0.95,972.22,-8.1,47.8
1.04,0.0,0.5,0.0,0.75,0.0,0.0,0.25,0.0,0.5,0.25,0.0,0.5,0.0,-0.55,-0.17,0.52,0.0,11.4,2.7,5.75,2.5,5.75,13.5,12.5,7.75,1.5,1.5,0.25,1.25,0.25,0.25,0.75,0.08,0.14,1.02,977.87,-8.2,49.5
1.06,0.0,0.5,0.75,0.75,0.0,0.0,0.25,0.0,0.25,0.5,0.0,0.5,0.0,-0.61,-0.17,0.64,0.0,15.4,13.0,6.5,3.5,5.75,14.5,12.0,7.75,1.75,1.25,0.25,1.0,0.0,0.0,0.75,0.08,0.14,1.02,987.46,-9.1,53.2
1.08,0.0,0.5,0.75,0.5,0.0,0.0,0.25,0.0,0.25,0.25,0.0,0.5,0.0,-0.61,-0.05,0.83,14.33,17.9,16.6,7.75,3.5,5.75,14.5,10.5,7.25,0.75,1.0,0.25,1.0,0.75,0.25,0.75,0.14,0.2,1.08,980.57,-10.3,52.5
1.1,0.25,0.5,0.5,0.75,0.0,0.0,0.25,0.0,0.5,0.5,0.0,0.25,0.0,-0.55,0.14,0.95,33.52,15.2,20.5,8.0,3.75,6.25,14.5,11.5,6.5,0.75,1.25,0.25,1.25,0.75,0.25,0.0,0.08,0.27,1.08,989.13,-10.9,54.5
1.12,0.25,0.5,0.5,0.5,0.0,0.0,0.25,0.0,0.25,0.5,0.5,1.0,0.0,-0.48,0.27,1.08,49.71,13.6,-13.0,8.25,3.5,5.0,14.0,11.5,5.25,0.75,1.25,0.25,0.75,0.25,0.25,0.75,0.14,0.27,1.14,962.71,-10.9,54.8
1.14,0.5,0.5,1.25,0.5,0.0,0.0,4.0,0.0,0.25,0.25,2.0,1.0,0.0,-0.42,0.39,1.2,79.4,21.1,-3.1,8.25,3.5,5.0,12.5,10.0,3.25,0.75,1.25,0.25,0.5,0.25,0.25,0.75,0.2,0.33,1.27,899.97,-12.7,56.2
1.16,0.5,0.5,1.25,0.5,0.0,0.0,0.25,0.0,0.25,0.5,0.0,0.5,0.0,-0.42,0.52,1.39,85.67,20.3,25.7,7.5,1.5,3.25,8.5,8.25,0.75,0.75,1.25,0.25,0.5,0.75,0.25,0.75,0.33,0.39,1.39,742.32,-13.7,52.3
1.18,0.25,0.5,0.25,0.5,0.0,0.0,0.25,0.0,0.0,0.25,0.0,1.0,0.0,-0.42,0.64,1.52,80.18,14.6,-1.6,7.0,1.25,0.5,5.5,3.75,0.5,0.75,0.75,0.25,0.0,0.0,0.0,0.0,0.58,0.83,2.33,517.01,-16.8,66.6
1.2,0.25,0.5,0.5,0.5,0.0,0.0,1.75,0.0,0.25,0.5,0.0,1.0,0.0,-0.48,0.64,1.77,72.83,17.0,0.4,3.75,0.0,0.0,4.0,1.25,0.5,0.5,0.0,0.25,0.25,0.25,0.25,0.25,0.52,1.14,3.27,305.91,-16.8,52.5
1.22,0.25,0.5,0.0,0.5,0.0,0.0,0.25,0.0,0.0,0.5,0.0,1.0,0.0,-0.55,0.7,2.02,61.53,9.8,-13.6,2.25,0.5,0.0,1.0,0.0,0.25,0.25,0.0,0.25,0.5,0.0,0.25,0.0,-0.17,0.33,2.52,152.44,-18.7,50.6
1.24,0.0,0.5,1.0,0.5,0.0,0.0,0.25,0.0,0.0,0.5,0.0,1.0,0.0,-0.42,1.14,2.52,58.13,16.2,0.1,0.75,0.5,0.5,2.25,1.5,0.75,0.25,0.75,0.25,0.5,0.25,0.0,0.75,0.14,0.27,1.95,45.92,-5.2,24.9
1.26,0.0,0.5,0.5,0.5,0.0,0.0,0.25,0.0,0.0,0.75,0.0,0.5,0.0,0.2,2.14,1.95,53.08,10.8,1.6,1.0,0.5,0.5,1.75,2.25,0.75,0.25,1.0,0.25,0.75,0.25,0.0,0.0,0.89,0.08,2.02,0.0,-4.9,34.1
1.28,0.0,0.5,0.75,2.0,0.0,0.0,0.25,0.0,0.25,0.5,0.0,0.5,0.0,0.89,2.7,1.64,61.51,15.9,25.4,1.0,0.5,0.5,0.5,1.5,0.5,0.25,1.0,0.25,0.75,0.25,0.5,0.0,0.83,-0.92,1.52,0.0,-4.8,18.3
1.3,0.0,0.0,0.5,0.5,0.0,0.0,0.25,0.0,0.25,0.5,0.0,0.25,0.0,1.7,2.95,0.83,51.04,13.9,-4.4,0.5,0.5,0.5,0.5,1.5,0.75,0.25,0.5,0.25,0.25,0.5,0.25,0.0,0.52,-0.8,1.39,0.0,-5.0,26.4
1.32,0.0,0.25,0.5,0.25,0.0,0.0,0.0,0.0,0.25,0.5,0.0,0.0,0.0,2.27,3.58,0.64,42.84,12.6,13.9,0.0,0.0,0.0,0.0,0.0,0.0,0.0,0.0,0.25,0.0,0.0,0.0,0.0,0.58,-1.17,1.02,0.0,-12.1,-38.5
1.34,0.0,0.25,0.5,0.5,0.0,0.0,0.0,0.0,0.0,0.5,0.0,0.5,0.0,2.27,3.83,0.52,33.22,12.4,-2.2,0.0,0.0,0.0,0.0,0.0,0.0,0.0,0.0,0.25,0.0,0.0,0.0,0.0,0.2,-0.36,0.7,0.0,-12.1,-38.5
1.36,0.0,0.5,0.75,0.0,0.0,0.0,0.0,0.0,0.5,0.0,0.75,0.25,0.0,0.2,1.2,0.64,31.31,18.9,-1.0,0.0,0.0,0.0,0.0,0.0,0.0,0.0,0.0,0.25,0.0,0.0,0.0,0.0,0.02,-0.36,0.45,0.0,-12.1,-38.5
1.38,0.0,0.5,0.5,0.5,0.0,0.0,0.0,0.0,0.25,1.25,0.75,1.0,0.5,-1.48,-2.17,1.45,45.27,5.3,-40.0,0.0,0.0,0.0,0.0,0.0,0.0,0.0,0.0,0.0,0.0,0.0,0.0,0.0,0.2,-0.3,0.45,0.0,0.0,0.0
1.4,0.0,0.0,0.5,0.0,0.0,0.0,0.0,0.0,0.0,1.25,0.0,2.25,2.5,0.2,-0.61,0.83,76.1,-2.3,-89.9,0.0,0.0,0.0,0.0,0.0,0.0,0.0,0.0,0.0,0.0,0.0,0.0,0.0,0.39,-0.23,0.64,0.0,0.0,0.0
1.42,1.0,0.5,0.25,0.0,0.0,0.0,0.0,1.0,0.5,4.5,1.5,4.25,5.0,1.02,0.52,0.64,161.52,-2.6,-74.4,0.0,0.0,1.0,0.0,2.75,0.0,0.25,0.5,0.25,0.0,0.25,0.0,0.25,0.52,-0.17,0.77,0.0,-4.7,28.8
1.44,0.0,0.25,0.0,0.0,0.0,0.0,0.0,0.0,0.0,5.5,0.0,5.25,0.0,-0.73,0.39,2.2,192.39,-3.3,-87.7,0.5,0.5,0.0,0.5,0.0,0.75,0.25,0.0,0.25,0.25,0.0,0.25,0.0,0.52,0.08,0.83,19.72,-6.7,32.0
1.46,0.0,0.25,0.0,0.0,0.0,0.0,0.25,4.75,0.5,6.25,4.25,5.25,6.0,-0.05,0.39,1.14,284.84,-5.7,-80.6,0.5,0.5,1.25,0.5,2.25,0.75,0.25,0.5,0.25,0.5,0.25,0.25,0.25,0.45,0.33,0.89,66.87,-5.8,28.2
1.48,0.5,0.5,0.25,0.0,0.0,0.25,0.25,4.5,0.5,6.25,4.25,5.25,6.0,0.02,0.08,1.08,355.12,-4.5,-74.2,0.0,0.5,1.25,0.5,1.75,0.75,0.25,0.5,0.25,0.25,0.25,0.25,0.5,0.39,0.39,1.08,87.88,-4.7,20.2
1.5,0.0,0.5,0.0,0.5,0.0,0.25,0.25,4.5,0.75,6.5,0.0,5.0,6.25,-0.17,0.08,0.95,408.42,-8.0,-75.5,0.5,0.5,1.0,0.5,1.75,0.75,0.25,0.5,0.25,0.25,0.25,0.0,0.25,0.39,0.52,1.33,110.21,-6.1,33.5
1.52,1.0,0.5,0.0,0.5,0.0,1.0,0.25,5.25,1.25,6.5,5.0,5.25,6.0,-0.17,0.08,0.95,466.74,-4.0,-66.7,0.25,0.5,1.5,0.5,1.75,0.5,0.25,0.25,0.25,0.5,0.25,0.0,0.25,0.39,0.64,1.39,119.61,-8.5,32.1
1.54,0.0,0.5,0.0,1.5,0.0,0.75,0.5,5.5,1.5,6.5,6.25,5.25,6.25,-0.17,0.08,0.95,526.17,-3.7,-67.9,0.5,0.5,0.5,0.5,2.25,0.75,0.25,0.25,0.25,0.25,0.5,0.25,0.25,0.52,0.7,1.52,128.82,-4.0,27.1
1.56,1.0,0.5,0.5,2.5,1.75,1.0,0.5,5.75,2.0,6.5,5.75,5.25,6.25,-0.11,0.08,0.95,587.52,-1.8,-51.4,0.5,0.5,0.5,0.5,1.25,0.75,0.25,0.25,0.25,0.5,0.25,0.0,0.25,0.64,0.77,1.7,126.67,-4.2,27.5
1.58,1.25,0.5,0.5,2.5,1.5,1.5,0.5,5.75,2.25,6.25,6.25,5.0,5.75,-0.11,0.08,0.95,625.86,-1.4,-49.2,0.75,0.5,1.0,0.5,1.75,0.75,0.25,0.25,0.25,0.5,0.25,0.0,0.0,0.7,1.08,2.08,125.5,-7.8,39.8
1.6,1.25,0.5,0.0,2.5,2.75,1.75,0.5,6.0,2.5,5.75,6.0,5.0,5.75,-0.17,0.08,0.95,656.15,-2.0,-45.8,0.25,0.0,0.5,0.0,1.0,0.75,0.5,0.5,0.25,0.25,0.25,0.5,0.25,0.7,1.64,1.83,111.81,-2.0,-0.4
1.62,1.0,0.5,0.25,2.75,3.25,1.5,0.5,6.0,2.5,5.75,5.75,4.25,5.0,-0.11,0.08,0.95,645.34,-1.8,-41.6,0.0,0.0,1.5,0.5,0.25,0.75,0.25,0.0,0.25,0.0,0.0,0.25,0.0,0.27,2.08,1.95,94.37,-16.3,35.4
1.64,1.0,0.5,0.5,3.25,3.0,1.5,0.75,5.75,2.75,4.75,5.5,4.0,4.5,-0.11,0.08,0.95,614.13,-0.6,-37.5,0.5,0.5,0.75,0.5,0.25,0.75,0.75,0.75,0.25,0.5,0.25,0.25,0.0,-0.67,2.7,1.02,85.08,-7.6,18.0
1.66,1.25,0.5,0.75,4.5,3.25,2.25,1.0,5.75,2.75,4.5,5.5,3.25,3.75,-0.11,0.08,0.95,578.93,0.3,-27.6,0.0,0.25,0.75,0.5,0.0,0.75,0.5,0.0,0.25,0.5,0.0,0.0,0.0,-1.48,3.7,0.58,67.43,-8.7,26.5
1.68,1.25,0.5,1.25,4.5,3.5,2.25,1.25,5.75,2.75,4.0,4.0,3.0,3.0,-0.11,0.08,0.95,548.35,0.9,-20.7,0.0,0.5,0.5,0.5,0.25,0.5,0.5,0.75,0.25,0.5,0.25,0.25,0.5,-1.98,4.58,0.39,66.94,-2.2,-5.4
1.7,1.25,0.75,1.5,6.5,5.0,2.25,1.0,5.5,2.75,3.0,4.0,2.25,2.5,-0.11,0.08,0.95,527.34,2.4,-7.5,0.0,0.0,0.0,0.25,0.0,0.5,0.0,0.0,0.25,0.0,0.25,0.0,0.75,-3.05,2.89,0.7,47.0,5.6,-40.8
1.72,1.25,0.75,2.0,6.75,5.75,2.75,1.5,5.25,2.75,3.0,3.5,2.0,2.0,-0.11,0.08,0.95,533.73,2.9,-1.1,0.0,0.0,0.0,0.5,1.25,0.5,0.25,1.0,0.25,2.0,0.5,1.0,2.5,1.08,-0.05,1.64,80.56,7.0,-50.7
1.74,1.5,0.75,2.25,8.0,6.25,2.75,1.5,5.0,2.5,2.75,3.0,2.0,1.25,-0.11,0.08,0.95,549.2,4.1,6.5,0.0,0.0,0.5,0.0,1.5,0.0,0.25,1.25,0.0,2.0,0.5,2.75,5.0,0.02,-0.17,1.14,131.17,5.3,-69.6
1.76,2.0,1.25,2.25,8.25,6.75,2.75,1.5,5.0,2.5,1.75,2.0,1.5,1.25,-0.11,0.08,0.95,552.24,4.9,15.4,0.0,0.5,0.5,0.0,0.0,0.0,0.25,1.5,0.25,6.0,2.75,4.25,6.0,-0.61,0.89,1.95,221.07,4.7,-81.0
1.78,2.25,1.5,3.0,9.0,7.0,2.75,1.75,4.75,2.0,1.25,2.5,1.0,1.0,-0.11,0.08,0.95,566.34,6.4,21.8,0.0,0.0,0.5,0.0,2.25,1.25,0.0,3.25,0.75,8.0,4.5,5.75,6.75,0.14,0.14,1.14,329.47,5.5,-68.0
1.8,2.75,1.75,3.75,9.25,7.25,3.0,1.75,4.5,1.75,1.25,2.25,1.0,1.0,-0.11,0.08,0.95,586.72,7.3,25.7,0.0,0.5,0.0,0.5,2.25,3.25,0.25,5.0,1.0,8.25,4.75,6.0,7.5,-0.05,0.14,1.08,472.09,6.7,-60.4
1.82,2.0,1.75,3.75,10.5,8.0,3.0,1.75,4.5,1.5,1.25,2.0,1.0,1.25,-0.11,0.08,0.95,615.87,6.8,26.2,0.5,0.5,0.0,0.75,0.0,3.25,0.0,4.5,1.0,8.5,4.5,5.5,7.25,0.14,0.08,0.89,574.56,6.5,-65.2
1.84,2.75,1.75,4.75,11.5,8.0,3.5,2.0,4.5,1.5,1.25,1.5,1.0,1.25,-0.11,0.08,0.95,661.13,7.8,30.0,0.25,0.5,0.0,0.5,2.75,3.5,0.25,5.5,1.0,8.5,5.5,5.5,8.0,0.14,0.08,0.95,666.43,6.6,-57.5
1.86,2.75,1.75,5.5,11.5,8.25,3.5,2.25,3.75,1.0,1.25,1.25,1.0,1.25,-0.11,0.08,0.95,698.27,8.7,33.1,0.25,0.5,1.5,0.5,3.0,3.75,0.25,5.75,1.0,8.5,5.5,5.25,8.0,0.14,0.08,0.89,724.15,5.2,-51.7
1.88,2.75,1.75,5.5,12.5,8.5,3.5,2.25,2.75,0.5,1.25,1.25,1.0,1.25,-0.11,0.14,0.95,724.41,9.3,36.1,0.5,0.5,0.5,0.75,3.25,4.5,0.5,6.25,1.0,8.25,5.5,5.25,8.0,0.14,0.08,0.95,764.9,6.1,-50.3
1.9,3.5,2.25,5.5,13.0,8.75,3.5,2.25,3.0,0.5,1.0,0.75,1.0,1.25,-0.11,0.14,0.95,746.68,9.8,39.4,1.0,0.5,0.5,1.25,3.0,4.5,0.75,6.25,1.0,8.5,5.5,5.25,7.75,0.08,0.08,0.95,789.02,5.4,-47.8
1.92,3.5,3.25,5.5,13.5,8.75,3.5,2.25,2.5,0.5,1.25,1.5,1.0,1.0,-0.11,0.14,1.02,774.51,10.2,40.2,1.0,0.5,0.75,1.5,3.25,5.25,0.75,6.25,1.0,8.5,5.25,4.75,7.75,0.14,0.08,0.95,798.5,5.5,-44.0
1.94,4.5,3.25,6.0,12.0,9.25,0.0,1.75,2.75,0.5,1.0,0.25,1.0,1.0,-0.11,0.14,1.02,763.97,12.9,45.1,1.0,0.5,0.5,2.0,3.5,5.5,0.75,6.75,1.0,8.25,5.25,4.25,7.25,0.14,0.08,0.95,786.85,5.7,-40.7
1.96,4.75,4.0,6.5,14.0,9.5,3.0,1.0,4.5,0.5,1.25,0.75,1.0,1.0,-0.17,0.14,1.08,813.43,10.2,41.9,1.0,0.5,0.75,2.0,3.75,5.75,0.75,6.75,1.0,8.0,4.75,4.0,7.25,0.14,0.08,0.95,755.22,5.7,-38.3
1.98,6.0,3.25,6.5,12.0,9.25,1.75,1.0,1.75,0.0,0.25,1.25,0.5,0.5,-0.17,0.2,1.08,799.39,13.9,52.3,1.0,0.5,0.75,3.25,4.75,6.0,0.75,7.0,1.25,7.75,4.75,3.5,7.0,0.14,0.08,0.95,734.92,5.1,-31.8
2.0,6.0,0.0,5.5,9.75,8.0,0.0,1.0,2.25,0.25,1.0,0.75,1.0,0.0,-0.23,0.2,1.08,722.96,14.8,45.4,1.0,0.5,1.0,3.25,6.0,6.25,0.75,7.0,1.5,7.75,4.5,2.75,6.25,0.14,0.08,0.95,712.94,5.0,-25.9
2.02,7.0,3.25,7.25,13.0,5.0,1.0,1.25,0.25,0.5,1.0,1.25,1.0,0.0,-0.23,0.27,1.2,677.37,18.4,53.6,1.0,0.75,0.0,3.25,6.0,6.5,1.0,7.0,1.5,7.25,3.75,2.75,5.75,0.14,0.08,0.95,685.68,5.9,-24.4
2.04,7.25,3.25,6.75,11.5,7.5,0.25,0.0,1.75,0.5,0.75,0.5,0.75,0.25,-0.36,0.33,1.39,650.76,16.2,54.0,1.0,0.75,1.75,3.75,6.5,6.5,1.0,6.5,1.5,6.5,3.75,2.25,5.25,0.14,0.08,0.95,675.83,3.7,-16.5
2.06,7.25,2.25,5.5,10.5,6.25,0.0,0.0,2.0,0.5,1.25,0.75,1.0,0.0,-0.61,0.45,1.52,617.12,16.0,49.5,1.0,1.0,1.0,5.5,7.0,6.75,1.5,6.25,1.5,6.25,3.0,1.25,4.5,0.14,0.08,0.95,671.09,3.6,-8.0
2.08,6.5,1.75,3.75,8.0,3.0,0.0,0.0,2.0,0.5,0.75,0.75,1.0,0.0,-0.73,0.64,1.45,525.77,17.2,47.7,1.0,1.25,2.0,5.5,7.75,7.25,1.5,6.25,1.5,5.75,2.75,1.25,3.75,0.14,0.08,0.95,674.99,2.6,-1.7
2.1,4.5,0.75,2.0,4.5,0.0,0.0,0.0,2.0,0.5,1.0,0.5,0.75,0.25,-0.92,1.08,2.7,382.8,16.8,33.9,1.25,1.25,2.75,7.25,7.75,7.25,1.75,6.25,1.25,4.75,2.25,1.5,3.0,0.14,0.08,0.95,691.33,0.6,5.6
2.12,0.5,0.5,0.5,2.75,0.0,0.0,0.0,2.25,0.5,0.75,0.75,0.25,0.0,-0.05,0.64,2.64,245.71,6.6,5.6,1.0,1.25,3.25,7.5,8.75,7.5,1.75,5.75,1.25,4.25,1.5,1.0,2.75,0.14,0.08,0.95,708.48,0.3,11.7
2.14,1.25,0.5,0.75,1.25,0.0,0.0,0.0,0.0,0.5,0.5,1.0,0.0,0.0,-0.48,0.45,2.08,119.47,18.8,27.6,1.25,1.75,3.25,9.0,9.0,7.75,2.0,5.5,1.0,3.5,1.5,0.75,2.5,0.14,0.08,0.95,730.73,-0.7,18.0
2.16,0.0,0.5,1.0,1.25,0.0,0.0,0.0,0.0,0.5,0.0,1.0,0.0,0.25,-0.98,-0.42,1.77,19.28,17.7,15.1,1.5,2.0,3.25,9.0,9.0,7.75,2.0,5.5,1.0,3.25,1.5,0.75,2.25,0.14,0.08,0.95,747.75,-1.0,19.9
2.18,0.0,0.0,0.25,0.0,0.0,0.0,0.5,0.0,0.0,0.0,0.0,0.25,0.0,-1.17,-0.92,1.45,0.0,26.6,-6.7,2.0,2.0,4.0,10.5,10.0,7.75,2.25,5.25,1.0,2.5,1.5,1.0,1.75,0.14,0.08,0.95,784.04,-2.9,25.5
2.2,0.0,0.0,0.0,0.0,0.0,0.0,1.5,0.0,0.0,0.0,0.0,0.0,0.5,-1.17,-1.11,1.27,0.0,13.1,-29.9,2.25,2.0,4.75,11.0,10.5,7.75,2.5,4.25,1.0,2.25,1.5,0.75,1.75,0.14,0.08,0.95,819.04,-4.1,29.3
2.22,0.0,0.5,0.75,0.75,0.0,0.0,0.5,0.0,0.5,0.0,0.0,0.25,0.0,-0.61,-1.11,-0.3,0.0,21.4,33.9,2.5,2.0,5.25,11.0,10.5,8.0,2.5,4.25,1.0,2.0,1.5,0.75,1.75,0.14,0.14,0.95,854.75,-4.5,30.4
2.24,0.0,0.5,0.5,1.0,0.0,0.0,0.5,0.0,0.5,0.5,0.0,0.0,0.0,-0.55,-0.3,0.7,0.0,15.1,28.0,2.75,2.25,5.75,12.5,11.5,8.0,2.5,3.75,1.0,2.0,1.25,0.5,1.75,0.14,0.14,0.95,900.93,-5.4,34.2
2.26,0.0,0.5,0.5,1.0,0.0,0.0,0.75,0.0,0.75,0.0,1.0,0.25,0.0,-0.42,-0.42,0.33,0.0,17.6,5.4,3.5,2.25,6.0,12.5,11.5,8.0,2.5,3.25,0.75,2.0,1.25,0.5,1.5,0.14,0.14,0.95,937.43,-6.1,36.7
2.28,0.25,0.75,0.0,1.0,0.0,0.0,1.0,0.0,0.75,0.25,0.5,0.25,0.25,-0.48,-0.23,0.64,0.0,13.3,7.4,3.5,2.5,5.25,14.0,11.5,8.0,2.5,3.0,0.5,2.0,1.0,0.25,1.5,0.14,0.14,0.95,961.78,-6.1,39.1
2.3,0.0,0.5,0.5,1.25,0.0,0.0,1.0,0.0,0.75,0.75,0.0,0.5,0.25,-0.55,-0.11,0.7,3.6,12.3,0.6,4.5,2.75,5.75,14.5,13.0,8.25,2.5,2.5,0.25,1.75,0.5,0.25,1.25,0.08,0.14,0.95,995.98,-6.8,44.1
2.32,0.0,0.0,1.25,0.0,0.0,0.0,2.75,0.0,0.0,0.0,0.0,0.0,0.0,-0.61,0.08,0.83,25.12,35.3,44.0,5.0,2.5,6.75,14.5,13.0,8.25,2.0,1.5,0.25,0.25,0.75,0.25,1.0,0.08,0.14,0.95,1012.28,-8.6,49.5
2.34,0.0,0.5,0.0,0.5,0.0,0.0,0.0,0.0,0.5,1.0,0.0,1.0,0.0,-0.48,0.27,0.95,43.86,4.1,-34.7,5.75,2.75,7.0,14.5,13.0,8.0,2.0,1.5,0.25,1.5,0.5,0.25,0.25,0.14,0.14,1.02,1031.55,-9.0,50.3
2.36,1.0,0.5,1.0,1.5,0.0,0.0,1.25,0.0,3.25,1.5,1.25,1.5,0.0,-0.36,0.33,1.14,94.49,13.8,-14.8,6.5,3.5,7.0,15.0,13.5,7.75,1.75,1.5,0.25,1.0,0.5,0.0,0.75,0.14,0.2,1.02,1057.61,-9.4,52.0
2.38,2.0,0.5,0.75,2.25,0.0,0.0,0.25,0.0,2.5,1.75,0.0,0.75,0.0,-0.23,0.45,1.33,131.43,14.6,10.5,7.0,3.5,5.75,15.0,11.5,7.5,0.75,0.0,0.25,0.75,0.0,0.0,0.25,0.14,0.2,1.02,1028.01,-10.4,58.3
2.4,0.0,0.0,0.0,0.25,0.0,0.0,0.0,0.0,2.75,1.5,0.0,0.25,0.0,-0.3,0.58,1.45,134.19,3.4,-48.7,7.5,3.5,7.0,14.5,11.5,6.75,1.25,1.5,0.25,1.0,0.25,0.25,0.75,0.08,0.27,1.08,1017.99,-10.7,52.9
2.42,0.0,0.25,0.5,0.5,0.0,0.0,0.25,0.0,0.25,0.5,0.0,0.75,0.0,-0.36,0.7,1.58,112.89,12.9,-13.2,7.0,2.0,6.0,13.5,11.5,5.75,0.75,1.5,0.25,0.5,0.5,0.0,0.75,0.08,0.27,1.08,953.72,-10.5,52.7
2.44,0.25,0.5,0.5,0.5,0.0,0.0,0.25,0.0,0.0,0.5,0.0,1.0,0.0,-0.42,0.7,1.7,84.85,14.1,-2.3,7.75,2.75,4.75,13.0,10.5,4.5,0.75,1.25,0.25,0.5,0.25,0.25,0.75,0.14,0.33,1.14,888.45,-11.3,54.6
2.46,0.25,0.5,0.5,0.5,0.0,0.0,0.25,0.0,0.0,0.5,0.0,0.75,0.0,-0.55,0.7,1.95,60.25,14.6,6.0,7.5,2.0,3.5,11.0,9.25,3.25,0.75,1.25,0.0,0.75,0.25,0.0,0.75,0.33,0.39,1.39,770.9,-11.4,54.5
2.48,0.5,0.5,0.5,0.5,0.0,0.0,0.25,0.0,0.0,0.5,0.0,1.0,0.0,-0.42,0.83,2.2,52.34,15.5,4.0,5.25,0.5,0.5,5.5,6.75,0.0,0.75,1.25,0.0,0.0,0.0,0.0,0.0,0.45,0.64,1.77,549.63,-12.3,60.3
2.5,0.0,0.0,0.5,0.0,0.0,0.0,4.25,0.0,0.25,0.5,0.0,1.25,0.0,-0.23,1.02,2.27,56.21,20.2,-21.2,3.5,0.0,0.0,3.25,2.5,0.0,0.25,0.0,0.25,0.0,0.0,0.0,0.0,0.52,1.08,2.45,325.15,-17.1,67.0
2.52,0.0,0.5,0.75,0.5,0.0,0.0,0.25,0.0,0.0,0.5,0.0,1.0,0.0,0.08,1.14,1.7,54.92,14.5,-4.4,1.75,0.0,0.0,3.0,2.25,0.0,0.25,0.0,0.25,0.0,0.0,0.0,0.0,0.02,0.64,2.39,173.64,-14.1,61.3
2.54,0.0,0.0,0.75,0.25,0.0,0.0,0.25,0.0,0.0,0.5,0.0,0.5,0.0,0.2,1.39,1.58,44.55,16.0,-12.4,1.0,0.5,0.0,2.5,3.25,0.5,0.5,1.0,0.25,0.5,0.25,0.0,0.0,0.14,0.33,1.77,67.99,-4.7,39.2
2.56,0.0,0.5,0.75,0.5,0.0,0.0,0.25,0.0,0.0,0.25,0.0,0.75,0.0,0.77,2.08,1.08,39.17,17.6,10.5,1.0,0.5,0.5,2.0,2.5,0.75,0.25,0.75,0.25,1.25,0.75,0.0,0.0,0.83,0.27,2.14,16.52,-4.8,26.9
2.58,0.0,0.25,0.5,0.0,0.0,0.0,0.25,0.0,0.0,0.5,0.0,0.0,0.0,1.39,4.14,0.64,24.39,13.6,16.0,0.75,0.5,0.5,1.25,1.75,0.75,0.25,0.75,0.25,0.5,0.25,0.0,0.0,0.95,-1.8,1.52,0.0,-5.1,35.1
2.6,0.5,0.5,0.75,0.5,0.0,0.0,0.25,0.0,0.0,0.5,0.0,0.0,0.25,2.14,2.89,0.58,24.33,17.0,35.2,0.5,0.5,1.0,1.25,2.75,0.75,0.25,0.75,0.25,0.5,0.25,0.0,0.0,0.33,-1.05,0.45,0.0,-5.1,37.3
2.62,0.0,0.25,0.75,0.5,0.0,0.0,0.25,0.5,0.25,0.5,0.5,0.0,0.25,1.27,1.7,0.64,35.58,9.3,-6.9,0.5,0.5,1.75,0.75,1.75,0.75,0.0,0.5,0.25,0.0,0.25,0.0,0.0,0.45,-0.67,0.89,0.0,-10.9,46.2
2.64,0.0,0.5,0.75,0.0,0.0,0.0,0.25,0.0,0.25,0.5,0.75,0.25,0.0,-0.36,0.64,1.58,47.14,14.4,-8.9,0.25,0.5,0.5,0.75,2.5,1.0,0.0,0.75,0.25,0.25,0.25,0.25,0.5,0.08,-0.3,0.33,0.0,-0.1,21.8
2.66,0.0,0.25,0.75,0.5,0.0,0.0,0.0,0.0,0.0,1.25,0.0,1.0,1.0,-1.23,0.14,0.77,58.88,3.5,-44.2,0.5,0.5,0.75,0.5,3.0,1.0,0.25,0.75,0.25,0.25,0.25,0.25,0.0,0.14,-0.42,0.2,25.42,-2.7,34.1
2.68,0.25,0.5,0.5,0.5,0.0,0.0,0.0,1.0,0.25,3.0,0.0,2.0,1.5,0.39,-0.11,1.58,93.46,-2.1,-55.1,0.5,0.5,0.5,0.5,2.25,0.75,0.25,0.25,0.25,0.25,0.25,0.25,0.0,0.33,-0.42,0.64,47.49,-4.5,36.1
2.7,0.0,0.25,0.25,0.5,0.0,0.0,0.0,0.0,0.5,5.75,2.0,4.5,6.0,0.52,0.2,2.45,181.45,-4.3,-85.4,0.5,0.5,0.5,0.5,1.75,0.75,0.5,0.75,0.25,0.5,0.25,0.0,0.5,0.45,0.08,0.77,73.69,-2.0,20.1
2.72,0.0,0.0,0.0,0.0,0.0,0.0,0.0,4.5,0.5,6.75,0.0,4.5,6.5,-0.36,0.2,1.45,262.75,-9.9,-84.2,0.0,0.5,0.75,0.5,1.25,0.75,0.25,0.5,0.25,0.25,0.25,0.0,0.5,0.52,0.33,0.64,90.11,-2.4,18.9
2.74,0.25,0.0,0.0,0.0,0.0,0.25,0.25,5.25,1.25,6.75,0.0,5.25,6.75,0.27,0.27,1.33,341.59,-8.5,-79.4,0.0,0.5,1.25,0.5,2.5,0.75,0.25,0.75,0.25,1.0,0.25,0.25,0.75,0.39,0.58,0.77,110.6,-1.2,10.4
2.76,0.0,0.0,0.0,0.0,0.0,0.25,0.25,5.0,0.5,6.5,4.5,5.0,6.5,-0.17,0.08,0.95,412.69,-6.4,-81.1,0.25,0.5,0.5,0.75,3.0,0.75,0.25,0.5,0.25,0.25,0.25,0.25,0.5,0.33,0.77,1.02,116.37,-1.5,25.6
2.78,0.0,0.25,0.0,0.5,0.0,0.25,0.25,5.75,1.25,6.75,4.75,5.0,6.5,-0.17,0.08,0.95,479.98,-5.6,-75.2,0.5,0.5,0.5,0.5,2.5,0.75,0.25,0.5,0.25,0.25,0.25,0.0,0.5,0.27,0.83,1.08,119.93,-2.1,29.0
2.8,0.0,0.5,0.0,0.5,0.0,0.75,0.5,6.0,1.5,6.75,5.25,5.0,6.5,-0.11,0.08,0.95,528.38,-5.2,-71.3,0.25,0.5,0.5,0.5,2.25,0.5,0.25,0.5,0.25,0.25,0.25,0.0,0.5,0.39,1.14,1.02,116.35,-2.0,25.4
2.82,1.0,0.5,0.0,0.5,0.0,1.0,0.5,6.0,1.5,7.5,5.75,5.25,6.5,-0.17,0.08,0.95,575.73,-4.2,-66.6,0.5,0.5,0.75,0.5,2.5,0.75,0.25,0.5,0.25,0.25,0.25,0.25,0.75,0.45,1.39,0.95,120.69,-2.9,21.5
2.84,1.0,0.5,0.5,1.0,1.0,1.0,0.5,6.0,1.5,7.5,6.25,5.5,6.75,-0.17,0.08,0.95,620.84,-3.1,-60.3,0.0,0.5,1.25,0.5,2.25,0.75,0.25,0.25,0.25,0.25,0.0,0.0,0.75,0.27,1.45,0.89,116.84,-3.8,27.9
2.86,1.0,0.5,0.75,1.0,1.25,1.0,0.5,6.0,1.5,7.5,6.25,5.5,7.25,-0.11,0.08,0.95,655.78,-3.0,-59.3,0.0,0.25,0.0,0.5,1.5,0.5,0.25,0.5,0.25,0.25,0.25,0.25,0.75,0.7,3.14,2.95,106.54,2.8,-1.8
2.88,1.0,0.5,0.75,0.75,1.25,1.0,0.5,6.0,1.75,7.25,6.25,5.5,7.0,-0.11,0.02,0.95,669.53,-2.9,-59.6,0.0,0.0,0.0,0.25,1.25,0.0,0.25,1.5,0.0,0.0,0.75,0.0,0.0,-1.98,5.33,1.58,87.87,3.3,-4.2
2.9,0.5,0.5,0.75,0.75,1.25,1.0,0.5,6.0,1.5,6.75,6.25,5.25,6.75,-0.17,0.08,0.95,653.52,-3.3,-60.8,0.75,0.0,0.0,0.0,1.25,0.0,0.25,0.75,0.0,0.0,0.25,0.0,0.25,-0.48,1.27,1.39,69.21,-2.8,20.9
2.92,0.75,0.25,0.5,1.25,1.5,0.75,0.5,6.0,1.5,6.75,6.25,5.25,6.75,-0.17,0.08,0.95,626.93,-3.0,-59.8,1.0,0.5,0.5,1.0,2.5,1.75,0.25,0.25,0.25,0.25,0.5,0.0,0.0,-0.05,1.27,0.58,87.03,-3.7,42.0
2.94,0.5,0.25,0.5,1.0,1.0,0.25,0.5,6.0,1.5,6.75,4.75,5.25,6.5,-0.17,0.08,0.95,579.86,-3.7,-63.9,1.0,0.5,1.5,2.0,3.25,1.75,0.0,0.25,0.25,0.25,0.25,0.0,0.75,-0.48,-0.86,1.27,124.58,-5.7,38.6
2.96,0.25,0.5,0.5,0.0,1.0,0.25,0.5,5.75,1.5,6.75,5.75,5.5,6.5,-0.17,0.08,0.95,551.13,-3.8,-68.3,2.0,0.75,2.25,3.0,3.25,1.0,0.25,0.25,0.25,0.25,0.25,0.0,0.75,0.14,0.2,1.45,174.53,-11.8,46.1
2.98,1.0,0.5,0.5,0.5,1.0,0.5,0.5,5.75,1.5,6.75,5.75,5.5,6.5,-0.11,0.08,0.95,533.04,-2.9,-62.6,4.5,1.25,3.0,3.25,3.25,0.75,0.25,0.25,0.25,0.25,0.25,0.0,0.75,-0.17,0.33,1.02,225.65,-16.4,55.1
3.0,1.0,0.0,0.0,1.0,1.0,0.75,0.5,5.5,2.0,6.75,6.5,5.5,6.5,-0.11,0.08,0.95,530.11,-3.0,-64.3,6.5,2.0,3.25,3.25,3.5,0.5,0.25,0.0,0.25,0.25,0.25,0.0,0.75,0.08,0.27,1.02,274.37,-18.8,61.9
3.02,0.75,0.5,0.5,1.0,1.25,0.75,0.5,5.5,2.0,6.75,6.25,5.5,6.75,-0.11,0.08,0.95,534.65,-2.6,-60.7,7.75,2.25,3.0,3.25,3.25,0.5,0.25,0.25,0.25,0.25,0.25,0.0,0.75,0.27,0.39,1.27,313.18,-19.2,63.2
3.04,1.0,0.5,1.25,1.75,1.25,1.0,0.75,5.5,2.0,6.75,5.75,5.5,6.75,-0.11,0.08,0.95,546.88,-1.4,-54.0,8.25,3.0,1.75,2.5,1.5,0.5,0.25,0.0,0.25,0.25,0.25,0.25,0.25,0.2,0.39,1.45,327.5,-21.8,70.8
3.06,0.75,0.25,1.0,1.75,1.25,0.75,0.5,5.5,2.25,6.75,6.25,5.75,6.75,-0.11,0.02,0.95,557.46,-1.6,-58.0,8.75,3.0,0.5,2.0,0.0,0.5,0.25,0.0,0.25,0.25,0.25,0.25,0.5,0.14,0.52,1.83,315.0,-23.2,71.8
3.08,1.0,0.5,0.0,2.0,1.25,0.5,0.75,5.5,2.5,6.5,6.25,5.75,6.75,-0.11,0.08,0.95,562.91,-1.8,-58.4,8.5,2.5,0.5,1.25,0.0,0.5,0.25,0.0,0.25,0.25,0.25,0.0,0.5,0.02,0.39,1.77,289.6,-23.9,74.4
3.1,1.5,0.5,0.5,1.5,1.5,1.0,1.0,5.5,2.5,6.5,6.75,5.75,6.5,-0.11,0.08,0.95,574.82,-1.0,-54.4,8.0,2.25,0.5,0.75,0.0,0.5,0.25,0.0,0.25,0.25,0.25,0.0,0.25,-0.05,0.33,1.52,262.45,-24.8,77.4
3.12,1.0,0.5,0.0,1.25,1.25,0.75,1.0,5.25,2.75,6.5,6.25,5.5,6.5,-0.11,0.08,0.95,572.4,-2.0,-59.3,7.75,2.0,0.5,0.5,0.25,0.5,0.25,0.25,0.25,0.25,0.25,0.0,0.5,-0.11,0.27,1.33,238.23,-22.8,70.4
3.14,1.0,0.5,0.0,2.5,1.25,1.0,1.0,5.25,3.0,5.75,6.25,5.5,6.5,-0.11,0.02,0.95,572.86,-1.1,-54.4,7.0,1.5,0.5,0.5,0.0,0.5,0.25,0.0,0.25,0.25,0.25,0.0,0.5,-0.23,0.2,1.02,210.98,-24.1,70.2
3.16,1.0,0.5,1.5,2.5,1.5,1.0,1.0,5.25,2.75,5.75,6.25,5.0,6.0,-0.11,0.08,0.95,568.38,0.2,-47.8,6.5,1.5,0.5,0.5,0.0,0.5,0.25,0.5,0.25,0.5,0.75,0.25,0.75,-0.23,0.45,0.58,191.94,-19.6,48.5
3.18,1.0,0.5,0.0,2.5,1.75,1.0,1.0,5.0,2.75,4.5,6.0,4.25,5.75,-0.11,0.08,0.95,544.2,-0.8,-48.8,5.5,1.25,0.75,0.5,0.0,0.75,0.25,0.0,0.25,0.25,0.25,0.0,0.5,-0.8,1.45,-0.36,167.87,-22.1,64.4
3.2,1.25,0.5,0.0,2.5,2.5,1.0,1.0,4.5,2.5,3.0,5.25,3.0,4.0,-0.17,0.02,0.95,482.83,0.2,-37.1,2.25,0.5,0.5,0.5,0.0,0.5,0.25,0.25,0.25,0.25,0.25,0.0,0.25,-0.61,2.02,-3.67,127.62,-17.4,46.0
3.22,1.5,0.5,0.0,3.25,2.75,1.0,1.25,4.5,2.25,2.25,4.0,2.0,2.5,-0.11,0.08,0.95,408.36,1.5,-22.5,1.0,0.5,0.5,0.5,0.25,0.5,0.25,0.0,0.25,0.25,0.25,0.25,0.5,0.7,0.2,-0.67,85.8,-11.6,22.2
3.24,1.25,0.5,2.25,4.5,3.0,1.0,1.25,4.0,1.5,1.25,2.75,1.75,1.75,-0.11,0.08,0.95,358.2,5.7,-3.0,1.0,0.5,0.75,0.5,0.25,0.75,0.25,0.0,0.25,0.5,0.5,0.25,0.5,2.27,1.02,3.7,60.45,-10.2,16.2
3.26,2.75,0.75,2.25,6.25,3.0,1.0,1.5,3.0,0.5,1.25,0.0,1.0,1.25,-0.11,0.08,1.02,321.22,8.9,24.8,0.5,0.5,0.0,0.5,0.5,0.75,0.25,0.25,0.25,0.25,0.25,0.0,0.5,0.7,-0.55,1.02,44.01,-1.8,16.4
3.28,0.0,0.0,3.0,0.0,4.5,1.0,1.25,4.25,0.0,1.75,0.0,0.0,1.25,-0.11,0.14,1.02,273.15,-1.0,4.5,0.5,0.5,0.5,0.5,1.0,0.75,0.25,0.0,0.25,0.5,0.25,0.25,0.75,-0.36,0.89,-0.61,49.63,-4.1,11.6
3.3,2.75,0.75,2.5,6.5,0.0,0.25,0.0,4.5,0.5,1.5,1.0,1.25,1.25,-0.17,0.14,1.2,261.09,9.6,9.9,1.0,0.5,1.0,0.5,0.5,0.5,0.25,0.25,0.25,0.5,0.25,0.25,0.75,-0.67,4.08,2.02,60.52,-9.9,15.3
3.32,4.5,1.5,1.0,6.25,0.0,1.25,4.25,4.5,2.5,0.25,0.0,1.0,1.5,-0.17,0.14,1.08,269.19,11.2,20.3,1.0,0.5,0.5,0.5,1.25,0.75,0.25,0.0,0.25,0.25,0.25,0.0,0.75,-1.86,4.2,-0.73,71.28,-6.6,28.2
3.34,3.25,0.5,2.5,4.5,4.25,0.0,2.0,1.25,0.0,0.25,1.0,0.75,0.5,-0.17,0.14,1.02,268.77,14.2,38.5,1.0,0.5,1.0,0.5,1.0,0.5,0.25,0.0,0.25,0.25,0.25,0.0,0.75,-2.67,0.52,-3.42,78.15,-10.8,29.5
3.36,5.5,1.75,2.0,6.5,2.75,0.5,0.0,2.75,0.25,1.25,0.75,1.0,1.25,-0.17,0.27,0.95,292.33,11.7,32.6,0.75,0.5,1.5,0.5,0.25,0.5,0.25,0.0,0.25,0.0,0.25,0.0,0.25,-0.61,-3.3,-1.36,77.62,-19.0,45.3
3.38,6.5,1.75,2.25,6.5,4.5,0.0,0.0,2.75,0.5,1.25,1.25,1.0,1.25,-0.17,0.27,0.95,331.45,12.1,33.9,0.75,0.5,0.5,0.5,1.0,0.75,0.25,0.0,0.25,1.5,0.25,0.0,0.5,1.77,-4.3,-0.92,84.99,-2.7,10.8
3.4,7.0,1.75,2.25,5.75,1.5,0.0,0.0,2.75,0.5,1.25,1.25,1.0,0.75,-0.17,0.27,0.89,352.16,15.0,34.6,0.5,0.5,0.75,0.5,1.0,0.5,0.25,0.0,0.25,0.5,0.0,0.25,0.75,2.64,-1.92,0.89,86.05,-6.4,16.5
3.42,7.25,1.5,2.25,4.75,3.0,0.0,0.0,2.5,0.5,1.25,1.25,1.0,1.25,-0.17,0.33,0.89,368.19,13.7,32.7,0.75,0.5,0.75,0.5,0.25,0.75,0.25,0.0,0.25,0.25,0.25,0.0,0.5,1.39,-1.17,1.02,87.74,-10.4,27.9
3.44,7.75,2.5,2.0,3.75,0.0,0.0,0.0,2.5,0.5,1.25,1.25,1.0,1.25,-0.17,0.39,0.89,361.7,16.1,32.4,0.5,0.5,1.25,0.5,1.0,0.75,0.25,0.0,0.25,0.25,0.25,0.0,0.25,-0.11,0.52,1.33,91.65,-10.9,38.0
3.46,8.25,3.5,2.25,4.5,0.0,0.0,0.0,0.0,0.5,1.25,1.0,1.0,0.25,-0.17,0.45,0.95,348.08,21.8,53.8,0.5,0.5,0.5,0.5,1.0,0.75,0.25,0.0,0.25,0.0,0.25,0.0,0.25,-1.23,3.2,1.83,87.16,-7.8,40.3
3.48,8.0,3.25,2.0,3.5,0.0,0.0,0.0,1.0,0.5,1.25,0.0,0.75,1.0,-0.23,0.52,1.02,324.41,19.3,50.0,0.25,0.5,0.5,0.5,1.5,0.75,0.25,0.0,0.25,0.25,0.25,0.25,0.75,-0.3,4.14,1.02,89.02,-3.0,15.8
3.5,8.25,3.75,2.0,3.5,0.0,0.0,0.0,0.0,0.5,1.0,0.0,0.25,0.75,-0.36,0.58,1.14,309.02,22.3,63.9,0.5,0.5,0.5,0.5,1.5,0.5,0.5,0.0,0.25,0.25,0.25,0.0,0.75,-0.67,4.45,-4.17,90.97,-5.6,23.8
3.52,8.25,3.25,0.5,2.75,0.0,0.0,0.0,0.0,0.5,1.25,0.0,1.0,0.25,-0.67,0.83,1.27,287.18,21.3,59.2,0.5,0.5,0.5,0.5,0.5,0.5,0.25,0.25,0.25,0.25,0.25,0.0,0.0,0.77,3.64,-2.67,84.24,-9.6,36.4
3.54,8.25,3.25,0.25,2.5,0.0,0.0,0.0,0.0,0.5,1.0,0.0,0.75,0.25,-1.05,1.08,1.58,262.17,21.9,63.8,0.5,0.25,0.5,0.5,1.5,0.5,0.25,0.0,0.25,0.0,0.25,0.0,0.75,0.7,1.77,-1.23,82.5,-5.7,24.7
3.56,8.0,2.0,0.25,0.5,0.0,0.0,0.0,0.0,0.5,1.0,0.0,1.0,0.75,-1.23,1.02,1.77,230.24,21.7,51.0,0.5,0.5,1.0,0.5,1.25,0.75,0.25,0.25,0.25,0.25,0.25,0.0,0.75,0.14,0.89,0.14,88.11,-6.2,23.3
3.58,7.25,1.75,0.25,0.5,0.0,0.0,0.0,0.0,0.5,0.75,0.0,1.0,0.75,-1.17,0.77,1.89,201.57,21.9,49.9,0.5,0.5,0.75,0.5,0.25,0.75,0.25,0.0,0.25,0.25,0.25,0.0,0.5,-0.36,0.7,0.45,85.56,-9.2,24.4
3.6,6.0,1.0,0.25,0.5,0.0,0.0,0.0,0.0,0.5,0.5,0.0,0.5,0.5,-0.92,0.64,1.95,159.95,23.7,56.1,0.5,0.5,1.25,0.5,1.0,0.75,0.25,0.25,0.25,0.25,0.25,0.25,0.5,-0.67,0.52,0.39,92.74,-8.8,23.6
3.62,3.5,0.0,0.25,0.0,0.0,0.0,0.0,0.0,0.5,0.25,0.0,0.0,0.0,-0.73,0.39,2.2,106.75,29.5,69.7,0.5,0.5,0.5,0.5,1.25,0.75,0.25,0.0,0.25,0.25,0.0,0.0,0.5,-0.67,-0.05,0.08,90.85,-4.9,33.6
3.64,1.5,0.5,0.25,0.0,0.0,0.0,0.0,0.0,0.0,0.0,0.0,0.0,0.0,-0.55,-0.42,1.95,53.8,30.0,93.7,0.5,0.5,1.0,0.5,1.5,0.75,0.25,0.25,0.25,0.25,0.25,0.25,0.5,-0.36,0.14,-0.42,99.54,-6.6,24.8
3.66,0.0,0.25,0.0,0.25,0.0,0.0,0.0,0.0,0.5,0.0,0.0,0.75,0.0,-0.23,-0.92,-1.05,5.89,11.6,-34.2,0.25,0.5,1.25,0.5,1.25,0.5,0.25,0.0,0.25,0.25,0.25,0.0,0.75,-0.17,0.2,-0.67,99.83,-8.5,24.2
3.68,0.0,0.0,0.0,0.0,0.0,0.0,0.0,0.0,0.25,0.0,0.5,0.0,0.0,0.45,-1.73,-0.8,0.0,11.2,-63.0,0.5,0.5,1.5,0.5,0.5,0.75,0.25,0.25,0.0,0.25,0.25,0.25,0.5,-0.36,0.33,-0.23,101.34,-11.1,24.9
3.7,0.0,0.0,0.5,0.0,0.0,0.0,0.0,0.0,0.0,0.0,0.75,0.0,0.0,0.95,-0.55,0.45,0.0,22.2,-18.8,0.25,0.5,0.5,0.5,1.5,0.75,0.25,0.0,0.25,0.25,0.25,0.0,0.75,-0.48,0.33,-0.23,99.14,-2.8,21.2
3.72,0.0,0.25,0.0,0.5,0.0,0.0,0.0,0.0,0.25,0.0,0.5,0.0,0.0,0.95,-0.48,-0.17,0.0,13.5,6.4,0.5,0.5,0.75,0.5,1.25,0.5,0.25,0.0,0.25,0.5,0.25,0.25,0.5,-0.48,0.58,-0.3,98.01,-7.0,20.0
3.74,0.25,0.5,0.5,0.5,0.0,0.0,0.25,0.0,0.5,0.75,0.0,0.0,0.0,0.39,0.33,-0.23,0.0,13.1,20.0,0.5,0.5,1.0,0.5,1.0,0.75,0.25,0.25,0.25,0.25,0.25,0.0,0.75,-0.48,1.2,-0.61,99.12,-6.6,21.9
3.76,0.0,0.5,0.0,0.25,0.0,0.0,1.5,0.0,0.5,0.0,0.5,0.5,0.25,2.64,5.45,-5.05,0.0,14.3,-16.2,0.25,0.5,1.0,0.5,1.0,0.75,0.25,0.0,0.25,0.0,0.25,0.0,0.75,-0.3,1.33,-0.86,97.28,-7.5,25.9
3.78,0.0,0.5,0.75,1.25,0.0,0.0,0.25,0.0,0.25,0.5,0.75,0.25,0.5,1.14,3.02,-4.48,20.7,12.2,-1.7,0.5,0.5,0.5,0.5,1.5,0.75,0.25,0.0,0.25,0.0,0.25,0.0,0.25,-0.05,1.27,-0.8,93.49,-6.6,41.7
3.8,0.0,0.5,0.5,0.5,0.0,0.0,0.25,0.0,0.5,0.75,0.75,0.0,0.5,-0.86,2.77,-1.36,38.53,8.2,-17.0,0.25,0.5,0.5,0.5,1.25,0.75,0.25,0.0,0.25,0.25,0.25,0.25,0.75,0.02,1.33,-0.55,91.25,-3.3,14.0
3.82,0.25,0.5,0.5,0.0,0.0,0.0,0.0,0.0,0.25,0.5,0.75,1.0,0.25,-1.23,1.64,-1.67,51.62,10.7,-33.6,0.5,0.5,0.75,0.5,1.25,0.5,0.25,0.0,0.25,0.25,0.25,0.0,0.75,-0.11,1.27,-0.48,91.86,-7.0,23.9
3.84,0.5,0.75,0.5,0.5,0.0,0.0,0.25,0.0,0.25,0.5,0.5,1.0,0.25,-0.73,0.83,0.39,64.84,13.1,-6.9,0.5,0.25,0.25,0.5,1.25,0.75,0.25,0.0,0.25,0.5,0.25,0.75,0.75,-0.17,1.14,-0.48,92.22,-2.4,-1.6
3.86,0.0,0.25,0.75,0.5,0.0,0.0,0.25,0.0,0.5,0.5,0.75,0.0,0.25,-0.92,0.33,0.45,69.75,13.1,-9.2,0.0,0.5,0.5,0.5,1.25,0.75,0.25,0.0,0.25,0.5,0.0,0.0,0.75,-0.3,1.08,-0.42,90.62,-0.5,15.9
3.88,0.0,0.5,0.5,0.0,0.0,0.0,0.25,0.0,0.25,0.5,0.75,0.25,0.5,-0.23,-0.61,0.02,67.74,8.3,-29.6,0.5,0.5,1.0,0.5,1.25,0.75,0.25,0.0,0.25,0.25,0.25,0.0,0.75,-0.3,0.95,-0.36,93.3,-7.1,25.8
3.9,0.0,0.0,0.75,0.5,0.0,0.0,0.25,0.0,0.25,0.25,0.75,0.5,0.25,-0.23,0.14,-0.11,62.92,14.8,-25.1,0.5,0.5,1.25,0.5,1.0,0.75,0.25,0.0,0.25,0.25,0.25,0.0,0.75,-0.3,0.77,-0.42,96.22,-8.9,25.9
3.92,0.0,0.5,0.5,0.5,0.0,0.0,0.25,0.0,0.25,0.5,0.5,0.5,0.25,0.08,0.52,-0.17,60.93,11.0,-13.8,0.25,0.5,2.0,0.5,0.25,0.5,0.25,0.0,0.25,0.0,0.25,0.0,0.75,-0.23,0.7,-0.36,95.37,-16.3,27.7
3.94,0.0,0.75,0.75,0.25,0.0,0.0,0.25,0.0,0.5,0.25,0.0,0.25,0.25,1.02,0.2,-0.36,56.43,15.2,15.2,0.25,0.5,1.0,0.5,1.25,0.5,0.25,0.0,0.25,0.5,0.25,0.25,0.75,-0.23,0.64,-0.42,96.93,-6.4,13.5
3.96,0.25,0.25,0.75,0.25,0.0,0.0,0.0,0.0,0.25,0.25,0.75,0.25,0.25,1.08,1.2,-0.23,53.55,15.7,-8.6,0.5,0.25,0.5,0.5,1.5,0.5,0.25,0.0,0.25,0.5,0.25,0.0,0.75,-0.17,0.58,-0.42,95.63,-3.9,16.2
3.98,0.0,0.5,0.5,0.25,0.0,0.0,0.0,0.0,0.25,0.0,0.75,0.0,0.25,0.89,0.83,-0.05,46.76,15.0,1.9,0.5,0.5,1.5,0.5,1.25,0.5,0.25,0.0,0.25,0.25,0.25,0.0,0.75,-0.11,0.58,-0.42,99.64,-10.6,28.2
4.0,0.0,0.5,0.75,0.25,0.0,0.0,0.0,0.0,0.25,0.25,0.0,0.0,0.25,0.7,0.7,0.02,41.06,15.6,24.5,0.5,0.25,0.75,0.5,0.0,0.75,0.25,0.0,0.25,0.25,0.25,0.0,0.5,-0.17,0.58,-0.42,89.26,-9.8,17.7
4.02,0.25,0.75,0.5,0.5,0.0,0.0,0.25,0.0,0.0,0.25,0.0,0.5,0.25,0.77,0.95,-0.11,40.57,14.9,19.7,0.0,0.5,0.75,0.5,1.5,0.75,0.25,0.0,0.25,0.25,0.25,0.0,0.75,-0.23,0.64,-0.42,89.7,-3.0,19.9
4.04,0.0,0.0,0.75,0.0,0.0,0.0,0.25,0.0,0.25,0.5,0.0,0.0,0.25,0.7,1.64,-0.48,36.04,13.2,-13.2,0.5,0.5,1.0,0.5,1.5,0.5,0.25,0.0,0.25,0.25,0.25,0.0,0.75,-0.23,0.7,-0.55,90.74,-7.8,26.7
4.06,0.25,0.5,0.75,0.75,0.0,0.0,0.25,0.0,0.25,0.5,0.5,0.0,0.0,0.52,1.7,-0.55,42.82,16.9,23.4,0.5,0.5,0.5,0.5,1.5,0.75,0.25,0.0,0.25,0.25,0.25,0.0,1.0,-0.11,0.83,-0.61,95.92,-3.3,18.7
4.08,0.0,0.5,0.75,0.5,0.0,0.0,0.0,0.0,0.25,0.0,0.25,0.25,0.0,0.2,1.2,-0.55,41.96,20.7,28.7,0.25,0.5,0.75,0.5,1.25,0.5,0.25,0.0,0.25,0.5,0.25,0.0,0.75,-0.05,0.83,-0.55,96.29,-4.9,16.7
4.1,0.0,0.25,0.5,0.25,0.0,0.0,0.25,0.0,0.25,0.5,0.5,0.75,0.25,-0.05,0.83,-0.36,47.87,10.2,-35.0,0.0,0.5,0.75,0.5,1.0,0.75,0.25,0.0,0.25,0.25,0.25,0.0,0.75,-0.05,0.89,-0.61,93.74,-3.7,16.2
4.12,0.0,0.5,0.5,0.5,0.0,0.0,0.25,0.0,0.25,0.0,0.5,0.25,0.0,0.14,0.64,-0.36,45.81,18.6,16.0,0.0,0.5,1.5,0.5,1.0,0.75,0.25,0.0,0.25,0.25,0.25,0.25,0.75,-0.05,0.95,-0.61,93.85,-8.1,16.7
4.14,0.0,0.5,0.5,0.5,0.0,0.0,0.25,0.0,0.25,0.0,0.5,0.25,0.0,0.33,0.64,-0.23,45.65,18.6,16.0,0.25,0.25,0.5,0.5,1.25,0.5,0.25,0.0,0.25,0.25,0.25,0.0,0.75,-0.11,1.02,-0.61,88.58,-3.8,14.8
4.16,1.0,0.25,0.75,0.0,0.0,0.0,0.0,0.0,0.5,0.25,0.5,0.75,0.25,0.52,0.77,-0.11,51.21,18.1,-4.9,0.5,0.25,0.5,0.5,1.5,0.75,0.25,0.0,0.25,0.5,0.25,0.0,0.75,-0.11,1.02,-0.55,91.46,-2.8,16.8
4.18,1.0,0.0,0.5,0.25,0.0,0.0,0.25,0.0,0.25,0.25,0.0,1.0,0.25,0.52,0.77,-0.23,54.97,18.2,-6.8,0.25,0.5,1.25,0.5,1.5,0.5,0.25,0.0,0.25,0.25,0.25,0.0,0.75,-0.05,1.02,-0.55,94.36,-8.0,25.5
4.2,1.0,0.5,0.75,0.5,0.0,0.0,0.25,0.0,0.25,0.0,0.5,0.0,0.25,0.39,0.83,-0.42,61.48,22.4,38.6,0.25,0.5,0.5,0.5,1.0,0.5,0.5,0.25,0.25,0.25,0.25,0.5,0.75,-0.05,0.95,-0.48,95.93,-4.7,4.1
4.22,1.0,0.5,0.75,0.25,0.0,0.0,0.0,0.0,0.0,0.25,0.75,0.25,0.0,0.27,0.83,-0.48,63.76,21.4,27.9,0.25,0.25,0.5,0.5,1.25,0.5,0.25,0.0,0.25,0.25,0.25,0.0,0.75,-0.11,0.95,-0.42,91.26,-3.8,14.8
4.24,1.0,0.5,0.75,0.25,0.0,0.0,0.25,0.0,0.0,0.0,0.5,0.5,0.0,0.27,0.83,-0.36,64.69,24.2,32.6,0.25,0.5,0.5,0.5,1.25,0.5,0.25,0.0,0.25,0.25,0.25,0.25,0.5,-0.17,0.95,-0.48,88.97,-5.3,19.1
4.26,1.0,0.5,0.75,0.25,0.0,0.0,0.25,0.0,0.25,0.0,0.75,0.75,0.0,0.33,0.83,-0.23,66.6,21.8,14.2,0.5,0.25,1.0,0.5,1.0,0.5,0.25,0.0,0.25,0.25,0.25,0.0,0.75,-0.11,0.89,-0.55,85.51,-8.7,20.6
4.28,0.25,0.5,0.5,0.0,0.0,0.0,0.25,0.0,0.25,0.25,0.5,0.75,0.0,0.33,0.83,-0.3,62.54,15.8,-12.3,0.25,0.5,0.0,0.5,0.0,0.75,0.25,0.0,0.25,0.0,0.25,0.0,0.75,-0.11,0.83,-0.55,73.12,-1.9,5.6
4.3,0.0,0.5,0.75,0.0,0.0,0.0,0.25,0.0,0.0,0.0,0.75,0.75,0.0,0.2,0.83,-0.36,55.93,18.9,-12.2,0.5,0.25,0.75,0.5,1.0,0.5,0.25,0.0,0.25,0.25,0.25,0.0,0.5,-0.23,0.89,-0.48,73.0,-8.3,25.2
4.32,0.5,0.5,0.75,0.25,0.0,0.0,0.25,0.0,0.25,0.0,0.75,0.5,0.25,0.14,0.89,-0.42,56.04,18.7,3.9,0.5,0.25,1.25,0.5,1.0,0.75,0.25,0.0,0.25,1.0,0.25,0.25,0.75,-0.36,0.89,-0.55,82.71,-6.1,7.6
4.34,0.25,0.25,0.5,0.0,0.0,0.0,0.25,0.0,0.25,0.0,0.5,0.75,0.25,0.2,0.95,-0.42,51.1,16.2,-25.6,0.25,0.5,0.5,0.5,1.25,0.5,0.25,0.0,0.25,0.25,0.25,0.25,1.0,-0.42,0.95,-0.55,88.68,-3.6,7.7
4.36,0.25,0.5,0.5,0.25,0.0,0.0,0.25,0.0,0.25,0.0,0.75,0.75,0.0,0.39,0.95,-0.42,51.11,17.9,-6.6,0.0,0.5,0.5,0.5,1.5,0.5,0.25,0.0,0.25,0.25,0.25,0.0,0.75,-0.36,0.89,-0.48,90.28,-2.5,17.3
4.38,0.0,0.25,0.75,0.0,0.0,0.0,0.25,0.0,0.25,0.25,0.75,1.0,0.0,0.39,0.95,-0.3,49.8,15.5,-34.6,0.25,0.25,0.75,0.5,1.5,0.5,0.25,0.0,0.25,0.25,0.25,0.0,0.5,-0.23,0.83,-0.42,90.3,-5.9,25.1
4.4,0.0,0.0,0.5,0.0,0.0,0.0,0.25,0.0,0.0,0.0,0.5,0.75,0.0,0.39,0.95,-0.3,42.14,19.0,-44.9,0.5,0.5,0.5,0.5,0.25,0.5,0.25,0.0,0.25,0.5,0.25,0.5,0.75,-0.11,0.89,-0.42,85.41,-6.8,-2.2
4.42,0.0,0.5,0.75,0.25,0.0,0.0,0.0,0.0,0.25,0.0,0.5,1.0,0.25,0.39,0.95,-0.23,43.37,15.3,-19.8,0.0,0.5,0.5,0.25,1.75,0.5,0.25,0.0,0.25,0.0,0.25,0.25,0.75,-0.05,0.89,-0.48,83.87,-2.6,15.7
4.44,0.0,0.25,0.5,0.0,0.0,0.0,0.25,0.25,0.5,0.5,0.5,1.0,0.25,0.39,0.95,-0.3,47.66,8.0,-46.5,0.0,0.5,0.5,0.5,1.5,0.5,0.25,0.0,0.25,0.25,0.25,0.25,0.75,-0.11,0.95,-0.55,86.16,-2.8,11.7
4.46,0.0,0.5,0.5,0.0,0.0,0.0,0.25,0.0,0.25,0.25,0.5,0.75,0.0,0.33,0.89,-0.36,48.44,14.2,-21.2,0.0,0.5,0.5,0.5,1.5,0.5,0.25,0.0,0.25,0.25,0.25,0.0,0.75,-0.11,1.02,-0.55,87.73,-2.5,17.3
4.48,0.0,0.5,0.75,0.25,0.0,0.0,0.25,0.0,0.25,0.25,0.75,1.0,0.0,0.39,0.89,-0.36,52.52,15.4,-19.5,0.25,0.25,1.75,0.5,1.5,0.75,0.25,0.0,0.0,0.5,0.25,0.25,0.75,-0.17,0.95,-0.48,96.98,-8.0,19.7
4.5,0.0,0.0,0.5,0.75,0.0,0.0,0.25,0.0,0.25,0.0,0.75,0.75,0.25,0.39,0.89,-0.36,52.85,15.0,-27.7,0.5,0.5,0.5,0.5,1.25,0.5,0.25,0.0,0.25,0.25,0.25,0.0,0.75,-0.23,0.95,-0.48,97.41,-5.5,22.2
4.52,0.0,0.5,0.5,0.5,0.0,0.0,0.25,0.0,0.25,0.0,0.5,0.75,0.0,0.39,0.83,-0.36,53.3,17.1,-3.7,0.0,0.5,0.75,0.5,1.25,0.5,0.25,0.0,0.25,0.25,0.25,0.0,0.75,-0.23,0.89,-0.48,96.5,-4.5,17.4
4.54,0.0,0.5,0.5,0.25,0.0,0.0,0.25,0.25,0.0,0.5,0.5,0.5,0.0,0.45,0.83,-0.3,50.89,10.2,-11.9,0.25,0.5,0.25,0.5,1.0,0.5,0.25,0.0,0.25,0.25,0.25,0.25,0.75,-0.23,0.83,-0.42,87.79,-3.1,8.4
4.56,0.0,0.5,0.5,0.0,0.0,0.0,0.25,1.0,0.25,0.0,0.75,1.0,0.25,0.45,0.83,-0.36,56.48,6.7,-35.4,0.25,0.5,0.5,0.5,0.5,0.75,0.25,0.0,0.25,0.25,0.25,0.0,0.75,-0.23,0.83,-0.42,81.15,-4.3,13.2
4.58,0.0,0.5,0.5,0.0,0.0,0.0,0.25,1.0,0.25,1.0,0.5,1.0,0.0,0.45,0.83,-0.36,64.9,3.0,-37.7,0.25,0.5,0.5,0.5,1.0,0.75,0.25,0.0,0.25,0.25,0.0,0.0,0.75,-0.23,0.89,-0.42,79.09,-3.1,22.1
4.6,0.0,0.5,0.5,0.0,0.0,0.0,0.25,1.0,0.25,0.25,0.25,0.75,0.0,0.52,0.83,-0.36,65.27,5.9,-22.4,0.5,0.5,0.5,0.5,0.5,0.5,0.25,0.0,0.25,0.0,0.25,0.0,0.75,-0.23,0.95,-0.48,75.68,-8.4,21.6
4.62,0.0,0.5,0.5,0.0,0.0,0.0,0.25,1.0,0.25,0.0,0.5,1.0,0.0,0.52,0.83,-0.3,65.31,7.8,-27.9,0.0,0.25,1.0,0.5,1.25,0.5,0.5,0.0,0.25,0.0,0.25,0.25,0.75,-0.23,0.95,-0.48,78.67,-7.5,14.3
4.64,0.25,0.5,0.5,0.0,0.0,0.0,0.25,1.0,0.25,0.25,0.5,0.75,0.25,0.52,0.89,-0.36,65.58,6.6,-24.1,0.5,0.5,0.5,0.5,1.25,0.5,0.25,0.0,0.5,0.25,0.25,0.75,0.75,-0.17,0.89,-0.48,86.09,-6.1,4.9
4.66,0.0,0.5,0.5,0.0,0.0,0.0,0.25,1.0,0.25,0.25,0.5,1.0,0.0,0.45,0.89,-0.3,64.05,6.4,-30.8,0.5,0.5,0.5,0.5,1.25,0.5,0.25,0.0,0.25,0.0,0.25,0.0,0.75,-0.17,0.89,-0.48,88.24,-6.5,26.8
4.68,0.25,0.5,0.75,0.0,0.0,0.0,0.25,1.0,0.0,0.0,0.75,1.0,0.25,0.45,0.83,-0.3,66.73,9.6,-23.1,0.5,0.5,1.25,0.5,1.25,0.5,0.25,0.0,0.25,0.25,0.25,0.0,0.75,-0.17,0.83,-0.48,94.31,-9.5,26.9
4.7,0.25,0.5,0.5,0.5,0.0,0.0,0.25,1.0,0.25,0.25,0.5,0.75,0.25,0.45,0.83,-0.23,71.74,7.7,-15.3,0.5,0.5,1.5,0.5,0.25,0.5,0.25,0.0,0.25,0.0,0.25,0.0,0.75,-0.23,0.83,-0.48,91.93,-15.0,27.6
4.72,0.25,0.5,0.5,0.5,0.0,0.0,0.25,1.0,0.5,0.5,0.5,0.75,0.25,0.52,0.83,-0.23,77.06,6.8,-19.1,0.0,0.25,0.5,0.5,1.5,0.5,0.25,0.0,0.25,0.25,0.25,0.25,0.5,-0.23,0.89,-0.48,88.72,-3.1,13.4
4.74,0.25,0.5,0.5,0.5,0.0,0.0,0.25,1.0,0.25,0.0,0.5,0.75,0.25,0.58,0.89,-0.23,77.89,9.0,-12.0,0.25,0.5,0.5,0.5,1.25,0.5,0.25,0.0,0.25,0.25,0.25,0.25,0.75,-0.23,0.89,-0.48,87.99,-4.4,13.1
4.76,0.25,0.5,0.5,0.5,0.0,0.0,0.25,1.0,0.5,0.5,0.5,0.75,0.25,0.58,0.89,-0.3,80.98,6.8,-19.1,0.25,0.5,0.5,0.5,1.25,0.5,0.25,0.0,0.25,0.25,0.25,0.25,0.75,-0.23,0.89,-0.48,88.63,-4.4,13.1
4.78,0.5,0.5,0.5,0.5,0.0,0.0,0.25,1.0,0.25,0.25,0.5,1.0,0.0,0.58,0.89,-0.3,80.99,10.1,-10.0,0.5,0.25,0.75,0.5,1.25,0.5,0.25,0.0,0.25,0.25,0.25,0.0,0.75,-0.3,0.89,-0.48,89.53,-6.7,20.4
4.8,0.25,0.5,0.75,0.25,0.0,0.0,0.25,1.0,0.25,0.5,0.5,1.0,0.25,0.52,0.89,-0.3,81.96,7.7,-22.4,0.5,0.5,0.25,0.5,0.0,0.5,0.25,0.0,0.25,0.25,0.25,0.0,0.75,-0.3,0.89,-0.48,80.65,-6.6,7.9
4.82,0.25,0.5,0.75,0.5,0.0,0.0,0.25,1.0,0.25,0.0,0.5,0.75,0.25,0.45,0.83,-0.3,81.01,10.5,-8.2,0.0,0.5,0.5,0.5,1.25,0.5,0.25,0.0,0.25,0.25,0.25,0.0,0.5,-0.3,0.89,-0.42,77.61,-3.7,21.9
4.84,0.25,0.5,0.5,0.5,0.0,0.0,0.25,1.0,0.25,0.5,0.5,0.75,0.0,0.45,0.83,-0.3,80.7,7.6,-13.4,0.25,0.25,1.25,0.5,1.0,0.5,0.25,0.0,0.25,0.25,0.25,0.0,0.5,-0.3,0.89,-0.42,76.84,-10.1,25.4
4.86,0.5,0.5,0.75,0.25,0.0,0.0,0.25,1.0,0.25,0.25,0.5,1.0,0.25,0.52,0.83,-0.3,80.66,9.9,-14.7,0.25,0.25,1.5,0.5,0.5,0.5,0.25,0.0,0.0,0.0,0.25,0.0,0.5,-0.3,0.89,-0.42,74.88,-14.7,33.0
4.88,0.5,0.5,0.5,0.5,0.0,0.0,0.25,0.0,0.25,0.5,0.5,0.75,0.25,0.52,0.83,-0.3,76.43,13.4,-7.3,0.5,0.5,0.5,0.25,1.25,0.75,0.25,0.0,0.25,0.5,0.25,0.0,0.75,-0.3,0.89,-0.42,79.93,-2.9,16.8
4.9,0.5,0.5,0.5,0.5,0.0,0.0,0.25,1.0,0.0,0.5,0.5,0.5,0.25,0.45,0.89,-0.3,75.8,7.5,-7.0,0.5,0.25,0.75,0.5,1.5,0.75,0.25,0.0,0.25,0.25,0.0,0.0,0.75,-0.3,0.89,-0.42,86.25,-4.8,26.6
4.92,0.5,0.5,0.5,0.25,0.0,0.0,0.25,0.0,0.25,0.5,0.5,1.0,0.25,0.45,0.89,-0.3,71.2,12.9,-17.1,0.25,0.5,1.0,0.25,1.25,0.5,0.25,0.0,0.25,0.25,0.25,0.25,0.75,-0.3,0.89,-0.42,90.4,-6.8,15.3
4.94,0.25,0.5,0.5,0.25,0.0,0.0,0.25,1.0,0.25,0.5,0.5,0.5,0.25,0.45,0.89,-0.3,69.93,5.8,-17.6,0.25,0.25,0.5,0.5,1.5,0.5,0.25,0.0,0.25,0.25,0.25,0.25,0.75,-0.3,0.89,-0.42,91.86,-3.7,11.3
4.96,0.5,0.5,1.0,0.5,0.0,0.0,0.25,1.0,0.25,0.5,0.5,0.5,0.25,0.45,0.89,-0.3,74.3,10.5,-2.1,0.0,0.25,0.5,0.5,1.0,0.5,0.25,0.0,0.25,0.5,0.25,0.25,0.75,-0.3,0.89,-0.42,88.57,-2.1,-1.8
4.98,0.75,0.5,0.5,0.25,0.0,0.0,0.0,1.0,0.25,0.0,0.5,0.5,0.0,0.45,0.89,-0.3,73.32,12.1,6.3,0.5,0.5,0.5,0.5,1.5,0.5,0.25,0.0,0.25,0.5,0.25,0.0,0.75,-0.3,0.89,-0.48,90.62,-4.2,19.6
5.0,0.5,0.5,0.5,0.25,0.0,0.0,0.25,1.0,0.25,0.25,0.75,0.75,0.25,0.45,0.83,-0.3,74.98,8.6,-16.7,0.5,0.5,1.0,0.25,0.25,0.5,0.25,0.0,0.25,0.25,0.25,0.5,0.75,-0.3,0.89,-0.42,87.66,-10.5,4.5
5.02,0.5,0.5,0.5,0.0,0.0,0.0,0.25,0.0,0.0,0.0,0.5,1.0,0.25,0.39,0.83,-0.3,66.4,16.9,-12.7,0.5,0.5,0.5,0.5,1.5,0.5,0.25,0.0,0.25,0.0,0.25,0.25,0.75,-0.3,0.89,-0.42,91.33,-6.1,22.3
5.04,0.25,0.5,0.75,0.25,0.0,0.0,0.25,0.0,0.25,0.0,0.5,0.5,0.0,0.39,0.83,-0.3,59.23,20.8,12.3,0.5,0.5,0.5,0.5,1.5,0.5,0.25,0.0,0.25,0.25,0.0,0.25,0.75,-0.3,0.89,-0.42,93.2,-5.0,22.1
5.06,0.5,0.5,0.5,0.25,0.0,0.0,0.25,1.0,0.25,0.25,0.5,0.75,0.25,0.39,0.83,-0.3,59.81,8.5,-13.8,0.25,0.5,0.5,0.25,1.25,0.5,0.25,0.0,0.25,0.25,0.25,0.0,0.75,-0.36,0.83,-0.42,90.13,-3.6,16.8
5.08,0.5,0.5,0.5,0.5,0.0,0.0,0.25,0.0,0.25,0.5,0.5,0.75,0.25,0.45,0.89,-0.36,62.0,13.4,-7.3,0.5,0.5,1.0,0.5,1.0,0.5,0.25,0.0,0.25,0.0,0.25,0.0,0.75,-0.36,0.83,-0.42,89.16,-10.0,28.5
5.1,0.5,0.5,0.75,0.0,0.0,0.0,0.0,0.0,0.25,0.5,0.75,0.75,0.25,0.45,0.89,-0.36,63.93,13.8,-16.1,0.5,0.5,0.5,0.5,1.25,0.5,0.25,0.0,0.25,0.25,0.0,0.0,0.75,-0.36,0.83,-0.42,87.74,-5.3,26.6
5.12,0.5,0.5,0.5,0.5,0.0,0.0,0.25,0.0,0.0,0.25,1.0,1.0,0.25,0.45,0.89,-0.3,66.79,14.5,-14.6,0.25,0.25,0.5,0.5,1.25,0.5,0.25,0.0,0.25,0.25,0.25,0.0,0.75,-0.36,0.83,-0.42,84.61,-3.8,14.8
5.14,0.5,0.5,0.5,0.5,0.0,0.0,0.25,0.0,0.25,0.25,0.5,1.0,0.25,0.45,0.89,-0.3,67.24,14.8,-9.3,0.5,0.25,1.25,0.5,0.5,0.5,0.25,0.0,0.25,0.25,0.25,0.0,0.75,-0.36,0.89,-0.42,83.1,-11.5,18.9
5.16,0.5,0.5,0.5,0.5,0.0,0.0,0.25,0.0,0.25,0.25,0.75,1.0,0.25,0.45,0.83,-0.3,68.25,14.6,-12.7,0.5,0.25,0.5,0.5,1.25,0.5,0.25,0.0,0.25,0.0,0.25,0.25,0.5,-0.36,0.95,-0.42,82.25,-7.3,23.3
5.18,0.5,0.5,1.0,0.5,0.0,0.0,0.25,0.0,0.25,0.25,0.5,0.75,0.25,0.45,0.83,-0.3,69.77,17.7,3.8,0.0,0.5,0.5,0.25,1.25,0.5,0.25,0.0,0.25,0.25,0.25,0.0,0.75,-0.36,0.95,-0.42,79.98,-2.0,12.9
5.2,0.5,0.5,0.5,0.25,0.0,0.0,0.0,0.0,0.5,0.5,0.5,0.5,0.25,0.45,0.89,-0.3,67.97,12.8,-8.2,0.5,0.5,1.5,0.5,1.0,0.5,0.25,0.0,0.25,1.0,0.25,0.5,0.75,-0.36,0.89,-0.42,91.88,-8.4,7.9
5.22,0.25,0.5,0.5,0.5,0.0,0.0,0.25,0.0,0.25,0.25,0.5,0.75,0.25,0.45,0.89,-0.3,66.05,14.0,-9.3,0.25,0.5,0.5,0.0,1.5,0.75,0.25,0.0,0.25,0.25,0.25,0.25,0.75,-0.36,0.89,-0.42,92.75,-1.7,11.9
5.24,0.25,0.5,0.5,0.5,0.0,0.0,0.25,0.0,0.25,0.5,0.5,1.0,0.25,0.45,0.89,-0.3,65.14,12.0,-18.7,0.0,0.25,0.5,0.5,1.5,0.5,0.25,0.0,0.25,0.25,0.25,0.25,0.75,-0.36,0.89,-0.42,93.8,-2.3,7.5
5.26,0.5,0.5,0.5,0.5,0.0,0.0,0.25,0.0,0.25,0.25,0.5,0.75,0.25,0.39,0.89,-0.3,65.36,15.2,-3.2,0.25,0.5,0.5,0.25,1.25,0.5,0.25,0.0,0.25,0.25,0.25,0.0,0.75,-0.36,0.89,-0.42,87.97,-3.6,16.8
5.28,0.5,0.5,0.5,0.25,0.0,0.0,0.0,0.0,0.25,0.25,0.5,0.75,0.25,0.39,0.89,-0.3,62.41,14.5,-8.5,0.25,0.5,0.5,0.5,0.0,0.5,0.25,0.0,0.25,0.25,0.25,0.25,0.75,-0.36,0.89,-0.42,79.29,-7.1,-0.9
5.3,0.25,0.5,0.5,0.25,0.0,0.0,0.25,0.0,0.25,0.5,0.5,0.75,0.25,0.39,0.89,-0.3,59.82,11.9,-18.1,0.25,0.25,0.25,0.5,1.5,0.75,0.25,0.0,0.25,0.25,0.25,0.0,0.75,-0.36,0.89,-0.42,77.89,-0.6,15.5
5.32,0.5,0.5,0.5,0.25,0.0,0.0,0.25,0.0,0.0,0.5,0.5,0.75,0.25,0.45,0.89,-0.36,58.98,13.2,-9.8,0.25,0.25,0.75,0.25,1.0,0.75,0.25,0.0,0.25,0.5,0.25,0.0,0.75,-0.36,0.89,-0.42,77.94,-3.1,9.4
5.34,0.5,0.5,0.5,0.5,0.0,0.0,0.25,0.0,0.25,0.25,0.5,0.5,0.25,0.45,0.89,-0.3,58.78,15.6,3.5,0.5,0.25,1.75,0.5,0.5,0.5,0.25,0.0,0.25,0.0,0.25,0.0,0.75,-0.36,0.89,-0.42,83.13,-15.2,27.2
5.36,0.25,0.5,0.5,0.5,0.0,0.0,0.25,0.0,0.0,0.25,0.5,1.0,0.25,0.39,0.83,-0.3,58.45,13.8,-13.8,0.5,0.25,1.0,0.5,1.25,0.5,0.25,0.0,0.25,0.25,0.25,0.0,0.5,-0.36,0.89,-0.42,86.28,-9.1,28.3
5.38,0.5,0.5,0.75,0.5,0.0,0.0,0.25,0.0,0.25,0.5,0.5,1.0,0.5,0.39,0.83,-0.3,65.35,13.1,-14.0,0.25,0.5,1.25,0.5,1.25,0.5,0.25,0.0,0.25,0.75,0.25,0.25,0.5,-0.36,0.89,-0.42,94.02,-7.6,16.8
5.4,0.5,0.5,0.5,0.25,0.0,0.0,0.25,0.0,0.25,0.0,0.5,0.75,0.25,0.39,0.89,-0.3,63.68,17.2,-2.6,0.5,0.5,0.5,0.5,1.0,0.5,0.25,0.0,0.25,0.0,0.25,0.25,0.5,-0.36,0.89,-0.42,91.43,-8.2,25.5
5.42,0.5,0.5,0.5,0.25,0.0,0.0,0.25,0.0,0.25,0.5,0.5,0.75,0.25,0.45,0.89,-0.36,64.75,13.2,-11.5,0.0,0.25,0.5,0.5,0.5,0.5,0.25,0.0,0.25,0.25,0.25,0.0,0.75,-0.36,0.89,-0.42,82.02,-3.5,1.5
5.44,0.5,0.5,0.5,0.25,0.0,0.0,0.25,0.0,0.25,0.25,0.5,1.0,0.5,0.45,0.89,-0.36,64.81,13.0,-19.2,0.75,0.5,0.5,0.5,1.25,0.5,0.25,0.0,0.25,0.25,0.25,0.0,0.75,-0.36,0.89,-0.42,81.65,-6.7,25.2
5.46,0.5,0.5,0.75,0.5,0.0,0.0,0.25,0.0,0.0,0.0,0.0,0.75,0.25,0.39,0.89,-0.3,62.13,20.1,19.7,0.5,0.25,1.75,0.5,0.5,0.5,0.25,0.0,0.25,0.75,0.25,0.25,0.5,-0.36,0.89,-0.42,87.49,-12.4,15.0
5.48,0.5,0.5,0.5,0.0,0.0,0.0,0.25,0.0,0.25,0.25,0.0,0.75,0.5,0.39,0.89,-0.3,57.72,13.3,-10.5,0.0,0.25,0.5,0.0,1.25,0.5,0.25,0.0,0.25,0.0,0.25,0.0,0.5,-0.36,0.89,-0.42,81.53,-2.5,18.1
5.5,0.5,0.5,0.75,0.25,0.0,0.0,0.25,0.0,0.75,0.0,0.5,0.5,0.25,0.39,0.89,-0.3,59.16,18.4,3.4,0.5,0.25,0.5,0.5,1.25,0.5,0.25,0.0,0.25,0.25,0.25,0.0,0.75,-0.36,0.89,-0.42,82.57,-5.2,18.4
5.52,0.5,0.5,0.5,0.25,0.0,0.0,0.25,0.0,0.25,0.0,0.5,1.0,0.5,0.39,0.89,-0.36,60.53,14.8,-15.8,0.25,0.5,1.25,0.5,1.5,0.5,0.25,0.0,0.25,0.25,0.25,0.5,0.75,-0.36,0.89,-0.42,90.27,-8.0,15.7
5.54,0.5,0.5,0.75,0.25,0.0,0.0,0.25,1.0,0.25,0.25,0.5,1.0,0.25,0.39,0.89,-0.36,68.41,9.9,-14.7,0.0,0.5,0.5,0.5,1.25,0.5,0.25,0.0,0.25,0.25,0.25,0.0,0.5,-0.36,0.89,-0.42,87.49,-3.7,21.9
5.56,0.5,0.5,0.75,0.25,0.0,0.0,0.25,0.0,0.25,0.0,0.5,0.75,0.0,0.39,0.89,-0.3,67.04,20.9,9.5,0.25,0.5,0.75,0.5,1.25,0.5,0.25,0.0,0.25,0.25,0.25,0.0,0.75,-0.36,0.89,-0.42,89.21,-5.8,20.8
5.58,0.5,0.5,0.75,0.25,0.0,0.0,0.25,1.0,0.25,0.25,0.5,0.75,0.5,0.39,0.89,-0.36,73.62,8.9,-14.8,0.5,0.5,1.25,0.5,1.25,0.75,0.25,0.0,0.0,0.25,0.25,0.0,0.5,-0.36,0.89,-0.42,92.44,-9.1,35.6
5.6,0.25,0.5,0.75,0.25,0.0,0.0,0.25,1.0,0.25,0.25,0.5,1.0,0.25,0.39,0.89,-0.36,75.17,8.8,-19.8,0.5,0.25,0.5,0.25,1.5,0.5,0.25,0.0,0.25,1.25,0.25,0.0,0.75,-0.36,0.89,-0.42,95.9,-1.0,3.6
5.62,0.5,0.5,0.5,0.5,0.0,0.0,0.25,1.0,0.25,0.25,0.5,1.0,0.25,0.39,0.89,-0.36,80.01,8.9,-14.7,0.0,0.25,0.75,0.5,1.25,0.5,0.25,0.0,0.25,0.25,0.25,0.0,0.5,-0.36,0.89,-0.42,90.9,-5.1,19.9
5.64,0.5,0.5,0.5,0.5,0.0,0.0,0.25,0.0,0.25,0.0,0.5,0.75,0.5,0.39,0.89,-0.36,77.09,15.3,-5.5,0.5,0.5,1.5,0.5,1.25,0.0,0.25,0.0,0.25,0.0,0.25,0.5,0.5,-0.36,0.89,-0.42,95.1,-15.2,26.6
5.66,0.5,0.5,0.5,0.25,0.0,0.0,0.25,0.75,0.0,0.25,0.5,0.75,0.25,0.39,0.89,-0.3,74.63,9.7,-11.0,0.25,0.25,0.5,0.5,1.5,0.5,0.25,0.0,0.25,0.5,0.25,0.0,0.5,-0.36,0.89,-0.42,91.85,-3.3,18.6
5.68,0.25,0.5,0.0,0.25,0.0,0.0,0.25,0.0,0.25,0.25,0.5,1.0,0.5,0.39,0.89,-0.3,67.06,8.0,-38.2,0.0,0.5,0.5,0.5,1.0,0.5,0.25,0.0,0.25,0.25,0.25,0.0,0.5,-0.36,0.89,-0.42,84.75,-4.1,19.9
5.7,0.25,0.5,0.5,0.25,0.0,0.0,0.25,0.0,0.25,0.25,0.5,1.0,0.25,0.39,0.89,-0.36,63.04,13.5,-20.2,0.25,0.5,0.5,0.25,1.25,0.5,0.25,0.0,0.25,0.75,0.25,0.0,0.75,-0.36,0.89,-0.42,83.94,-1.8,8.6
5.72,0.25,0.5,1.0,0.5,0.0,0.0,0.0,1.0,0.25,0.0,0.25,1.0,0.25,0.39,0.89,-0.36,65.89,11.3,-7.3,0.5,0.5,0.5,0.5,1.5,0.5,0.25,0.0,0.25,0.25,0.0,0.75,0.75,-0.36,0.89,-0.42,89.55,-5.3,11.8
5.74,0.25,0.5,0.5,0.25,0.0,0.0,0.25,1.0,0.25,0.25,0.0,1.0,0.25,0.39,0.89,-0.3,66.38,6.9,-18.4,0.25,0.5,0.5,0.5,1.5,0.5,0.25,0.0,0.25,0.25,0.25,0.0,0.25,-0.36,0.89,-0.42,87.48,-5.6,33.8
5.76,0.25,0.5,0.5,0.25,0.0,0.0,0.25,1.0,0.0,0.25,0.0,1.0,0.25,0.39,0.89,-0.3,66.3,6.6,-17.2,0.0,0.25,0.75,0.5,1.25,0.5,0.25,0.0,0.25,0.25,0.25,0.0,0.5,-0.36,0.89,-0.42,84.48,-5.1,19.9
5.78,0.5,0.5,0.25,0.25,0.0,0.0,0.25,0.25,0.25,0.25,0.0,0.25,0.25,0.39,0.89,-0.36,58.22,12.0,12.9,0.5,0.5,1.0,0.5,0.25,0.5,0.25,0.0,0.25,0.0,0.25,0.5,0.5,-0.36,0.89,-0.42,82.23,-13.5,17.4
5.8,0.5,0.5,0.5,0.25,0.0,0.0,0.25,1.0,0.0,0.25,0.0,1.0,0.25,0.39,0.89,-0.36,59.42,8.1,-11.0,0.5,0.5,0.5,0.25,1.25,0.5,0.25,0.0,0.25,0.0,0.0,0.25,0.75,-0.36,0.89,-0.42,79.35,-5.9,23.3
5.82,0.5,0.5,0.5,0.25,0.0,0.0,0.25,1.0,0.25,0.25,0.0,1.0,0.25,0.39,0.89,-0.36,60.13,8.3,-12.5,0.0,0.25,0.5,0.5,1.0,0.5,0.25,0.0,0.25,0.25,0.25,0.0,0.75,-0.36,0.89,-0.42,75.03,-2.7,8.1
5.84,0.5,0.5,0.75,0.5,0.0,0.0,0.25,1.0,0.25,0.25,0.25,1.0,0.25,0.39,0.89,-0.36,69.75,10.3,-8.4,0.0,0.5,1.0,0.5,1.25,0.5,0.25,0.0,0.25,0.25,0.25,0.5,0.75,-0.36,0.89,-0.42,81.66,-6.3,8.9
5.86,0.5,0.5,0.25,0.25,0.0,0.0,0.25,1.0,0.25,0.0,0.0,0.75,0.25,0.39,0.89,-0.36,69.4,7.8,-7.1,0.25,0.5,0.5,0.25,1.5,0.5,0.25,0.0,0.25,0.25,0.0,0.25,0.75,-0.36,0.89,-0.42,84.22,-3.1,17.1
5.88,0.5,0.5,0.5,0.5,0.0,0.0,0.25,0.0,0.25,0.25,0.0,1.0,0.25,0.39,0.89,-0.36,68.89,15.3,-1.0,0.25,0.25,0.5,0.25,1.0,0.5,0.25,0.0,0.25,0.25,0.25,0.25,1.0,-0.36,0.89,-0.42,83.38,-2.9,-2.1
5.9,0.5,0.5,0.75,0.25,0.0,0.0,0.25,0.0,0.25,0.25,0.0,1.0,0.25,0.39,0.89,-0.36,64.35,16.7,-0.9,0.5,0.5,0.75,0.5,1.25,0.5,0.25,0.0,0.25,0.5,0.25,0.25,0.75,-0.36,0.89,-0.42,89.06,-6.1,14.7
5.92,0.5,0.5,0.5,0.25,0.0,0.0,0.25,0.0,0.25,0.25,0.0,1.0,0.25,0.39,0.89,-0.3,60.75,15.2,-5.3,0.25,0.5,0.75,0.5,1.25,0.5,0.25,0.0,0.25,0.25,0.25,0.0,0.75,-0.36,0.89,-0.42,90.63,-5.8,20.8
5.94,0.5,0.25,0.5,0.25,0.0,0.0,0.25,0.0,0.25,0.25,0.0,1.0,0.5,0.39,0.89,-0.3,57.05,13.3,-20.1,0.25,0.5,0.5,0.0,0.25,0.5,0.25,0.0,0.25,0.0,0.25,0.0,0.5,-0.36,0.89,-0.42,78.07,-7.9,17.7
5.96,0.5,0.25,0.5,0.25,0.0,0.0,0.25,0.0,0.25,0.25,0.0,1.0,0.25,0.39,0.89,-0.36,53.87,15.4,-13.3,0.5,0.5,1.0,0.5,1.5,0.5,0.25,0.0,0.25,0.25,0.25,0.0,0.5,-0.36,0.89,-0.42,82.27,-8.7,32.5
5.98,0.5,0.5,0.5,0.25,0.0,0.0,0.25,1.0,0.25,0.0,0.0,0.75,0.25,0.39,0.89,-0.36,56.93,9.7,-2.8,0.0,0.25,1.0,0.5,0.5,0.5,0.25,0.0,0.25,0.0,0.25,0.0,0.75,-0.36,0.89,-0.42,76.83,-8.9,13.2
6.0,0.5,0.5,0.5,0.25,0.0,0.0,0.5,1.25,0.0,0.25,0.0,0.75,0.25,0.39,0.89,-0.3,61.2,7.3,-6.1,0.5,0.25,0.5,0.25,1.0,0.5,0.25,0.0,0.25,1.5,0.25,0.0,0.75,-0.36,0.89,-0.42,82.98,-0.7,-4.4
6.02,0.5,0.5,0.5,0.5,0.0,0.0,0.25,1.0,0.25,0.25,0.0,1.0,0.25,0.39,0.89,-0.36,67.87,8.8,-8.7,0.0,0.5,0.5,0.25,1.25,0.5,0.25,0.0,0.25,0.25,0.25,0.0,0.75,-0.36,0.89,-0.42,80.13,-2.0,12.9
6.04,0.5,0.5,0.5,0.5,0.0,0.0,0.25,1.0,0.25,0.25,0.0,1.0,0.25,0.39,0.89,-0.36,71.59,8.8,-8.7,0.5,0.5,1.25,0.5,1.25,1.0,0.25,0.0,0.25,0.0,0.25,0.25,0.75,-0.36,0.89,-0.42,92.31,-8.2,26.2
6.06,0.5,0.5,0.5,0.25,0.0,0.0,0.0,1.0,0.25,0.25,0.5,1.0,0.5,0.39,0.89,-0.36,76.16,6.9,-24.0,0.0,0.5,0.5,0.5,0.5,0.5,0.25,0.0,0.25,0.0,0.25,0.0,0.75,-0.36,0.89,-0.42,83.34,-5.3,12.6
6.08,0.5,0.5,0.75,0.25,0.0,0.0,0.25,1.0,0.25,0.25,0.5,1.0,0.25,0.39,0.89,-0.3,79.92,9.9,-14.7,0.0,0.5,1.0,0.5,1.0,0.5,0.25,0.0,0.25,0.25,0.25,0.0,0.5,-0.36,0.89,-0.42,83.06,-7.6,24.1
6.1,0.25,0.5,0.75,0.25,0.0,0.0,0.25,0.0,0.0,0.25,0.5,1.0,0.25,0.39,0.89,-0.36,76.22,15.2,-13.7,0.0,0.25,0.25,0.5,1.0,0.5,0.25,0.0,0.25,0.25,0.25,0.25,0.75,-0.36,0.89,-0.42,76.35,-1.0,-1.3
6.12,0.5,0.5,0.75,0.25,0.0,0.0,0.25,0.0,0.25,0.25,0.5,1.0,0.25,0.39,0.89,-0.3,73.47,16.1,-9.1,0.0,0.5,0.5,0.5,1.0,0.5,0.25,0.0,0.25,0.25,0.25,0.0,0.75,-0.36,0.89,-0.42,75.74,-3.2,12.9
6.14,0.5,0.25,1.0,0.25,0.0,0.0,0.25,0.25,0.25,0.25,0.5,1.0,0.25,0.39,0.89,-0.3,71.4,15.7,-12.9,0.25,0.5,1.0,0.5,1.25,0.5,0.25,0.0,0.25,0.25,0.25,0.0,0.75,-0.36,0.89,-0.42,79.53,-7.2,22.6
6.16,0.5,0.5,0.5,0.25,0.0,0.0,0.25,1.0,0.25,0.25,0.5,1.0,0.25,0.39,0.89,-0.3,73.97,8.5,-18.5,0.5,0.25,1.25,0.0,1.5,0.5,0.25,0.0,0.25,0.25,0.25,0.5,0.5,-0.36,0.89,-0.42,88.51,-9.0,17.1
