time,left pressure 0[N/cm²],left pressure 1[N/cm²],left pressure 2[N/cm²],left pressure 3[N/cm²],left pressure 4[N/cm²],left pressure 5[N/cm²],left pressure 6[N/cm²],left pressure 7[N/cm²],left pressure 8[N/cm²],left pressure 9[N/cm²],left pressure 10[N/cm²],left pressure 11[N/cm²],left pressure 12[N/cm²],left acceleration X[g],left acceleration Y[g],left acceleration Z[g],left total force[N],left center of pressure X[mm],left center of pressure Y[mm],right pressure 0[N/cm²],right pressure 1[N/cm²],right pressure 2[N/cm²],right pressure 3[N/cm²],right pressure 4[N/cm²],right pressure 5[N/cm²],right pressure 6[N/cm²],right pressure 7[N/cm²],right pressure 8[N/cm²],right pressure 9[N/cm²],right pressure 10[N/cm²],right pressure 11[N/cm²],right pressure 12[N/cm²],right acceleration X[g],right acceleration Y[g],right acceleration Z[g],right total force[N],right center of pressure X[mm],right center of pressure Y[mm]
0.02,5.75,0.25,1.25,4.5,0.0,0.0,0.0,1.25,0.25,0.0,0.0,0.0,0.25,-0.98,1.2,2.83,333.01,22.4,61.0,0.25,0.0,1.25,0.5,1.25,2.0,0.25,6.0,1.0,8.75,7.25,5.5,8.0,0.2,0.08,0.95,733.79,4.5,-64.1
0.04,1.25,0.0,1.25,2.5,0.0,0.0,0.0,1.25,0.25,0.0,0.0,0.0,0.25,-0.48,0.77,2.77,202.93,16.6,37.8,0.25,0.25,1.75,0.75,1.25,2.25,0.25,6.0,1.0,8.5,7.0,5.25,7.75,0.14,0.08,0.95,778.69,3.9,-59.6
0.06,0.0,0.0,0.25,2.0,0.0,0.0,0.0,0.0,0.0,0.0,0.0,0.0,0.25,-0.55,0.52,2.58,78.25,16.2,41.6,1.0,0.0,2.0,1.0,1.5,2.75,0.25,6.0,1.25,8.5,6.5,5.25,7.5,0.08,0.08,0.95,794.86,3.2,-54.2
0.08,0.0,0.0,0.0,0.25,0.0,0.0,0.0,0.0,0.0,0.0,0.0,0.0,0.25,-1.3,-0.67,2.08,0.0,1.8,-25.2,1.0,0.0,2.25,0.75,1.5,3.25,0.25,6.0,1.25,8.0,6.5,5.0,6.75,0.08,0.08,0.95,785.82,3.1,-51.6
0.1,0.0,0.0,0.25,0.25,0.0,0.0,0.0,0.0,0.0,0.0,0.0,0.0,0.0,-1.23,-0.61,2.2,0.0,27.6,59.4,1.0,0.5,2.25,1.0,1.5,4.25,0.5,6.0,1.5,7.75,6.25,3.75,6.5,0.08,0.08,0.95,762.84,3.3,-44.6
0.12,0.0,0.0,0.0,0.75,0.0,0.0,0.0,0.0,0.25,0.0,0.0,0.0,0.25,-1.11,-1.48,-0.17,0.0,10.0,5.9,1.25,0.5,3.5,1.5,3.75,4.25,0.75,5.75,1.5,7.0,5.75,2.75,5.75,0.14,0.08,0.95,730.79,1.5,-30.1
0.14,0.0,0.0,0.0,0.5,0.0,0.0,0.0,0.0,0.5,0.0,0.0,0.0,0.5,-0.8,-0.55,1.2,0.0,5.2,-29.5,2.0,0.0,3.5,2.0,5.25,4.0,1.0,5.5,1.5,7.0,5.25,2.5,5.25,0.14,0.08,0.95,699.85,0.7,-23.6
0.16,0.0,0.0,0.0,0.25,0.0,0.0,0.0,0.0,0.5,0.0,0.0,0.0,0.5,-0.48,-0.42,0.33,0.0,2.7,-47.5,2.0,0.5,3.75,3.25,5.25,4.5,1.25,5.25,1.5,6.5,4.5,2.25,4.5,0.14,0.08,0.95,667.62,-0.2,-15.1
0.18,0.0,0.0,0.0,0.5,0.0,0.0,0.0,0.0,0.25,0.0,0.0,0.0,0.0,-0.42,-0.36,0.33,0.0,15.5,27.0,2.5,0.5,3.75,3.75,5.25,5.0,1.25,5.0,1.5,5.75,4.25,1.25,4.0,0.14,0.08,0.95,638.81,-0.8,-7.7
0.2,0.75,0.0,0.0,0.75,0.0,0.0,0.0,0.0,0.0,0.0,0.0,0.0,0.5,-0.55,-0.3,0.64,0.0,15.4,28.7,3.75,0.5,5.0,4.5,5.25,5.5,1.25,5.0,1.5,4.75,3.5,1.0,3.25,0.14,0.08,0.95,631.28,-3.2,3.5
0.22,0.5,0.0,0.0,0.5,0.0,0.0,0.0,0.0,0.0,0.0,0.0,0.0,0.25,-0.55,-0.36,0.83,0.0,17.4,38.2,4.0,1.0,5.75,5.5,6.5,5.75,1.75,4.75,1.5,4.25,2.75,0.75,2.5,0.14,0.08,0.95,649.4,-4.6,13.8
0.24,0.25,0.0,0.0,0.5,0.0,0.0,0.0,0.0,0.0,0.0,0.0,0.0,0.5,-0.42,-0.17,0.95,0.0,7.9,-2.6,5.25,1.0,5.75,6.25,7.0,5.75,2.0,3.75,1.25,3.5,2.0,0.5,2.25,0.14,0.08,0.95,673.89,-6.3,22.8
0.26,0.0,0.0,0.0,0.0,0.0,0.0,0.0,0.0,0.0,0.0,0.0,0.0,0.0,-0.42,0.02,1.02,0.0,0.0,0.0,5.0,1.25,6.5,7.5,7.25,6.0,2.5,3.75,1.0,3.25,2.0,0.25,1.75,0.14,0.08,0.95,708.81,-7.3,27.7
0.28,0.0,0.0,0.0,0.5,0.0,0.0,0.0,0.0,0.0,0.25,0.0,0.0,0.25,-0.36,0.14,1.27,7.32,1.5,-16.3,5.5,1.5,7.0,8.75,8.25,5.5,2.5,3.25,1.0,2.25,2.0,0.0,1.5,0.08,0.08,0.95,745.91,-9.0,34.6
0.3,0.5,0.0,0.0,1.25,0.0,0.0,0.0,0.0,0.0,0.0,0.0,0.0,0.5,-0.3,0.33,1.45,18.95,13.8,28.3,5.75,1.75,7.25,9.25,8.25,6.0,3.0,2.5,1.0,2.0,1.5,0.0,1.0,0.08,0.08,0.95,777.43,-9.9,39.9
0.32,0.0,0.0,0.0,0.0,0.0,0.0,0.0,0.0,0.0,0.0,0.0,0.0,0.5,-0.23,0.52,1.77,19.54,-13.7,-109.8,6.0,1.75,8.0,10.5,8.5,6.0,3.0,2.5,0.75,2.0,1.25,0.0,0.75,0.08,0.08,0.95,813.95,-10.7,42.7
0.34,0.0,0.0,0.0,0.0,0.0,0.0,0.25,0.0,0.0,0.0,0.0,0.0,0.0,-0.3,0.58,1.89,14.57,32.4,27.3,6.5,1.75,8.0,11.0,9.25,6.0,3.0,2.25,0.5,1.5,1.0,0.0,0.75,0.08,0.08,0.95,846.13,-11.1,46.0
0.36,0.25,0.0,0.0,0.75,0.0,0.0,0.0,0.0,0.25,0.0,0.0,0.0,0.25,-0.42,0.64,2.33,15.23,13.8,20.0,6.5,2.0,8.0,12.0,9.5,6.0,3.0,1.75,0.25,1.5,0.75,0.0,0.75,0.08,0.14,0.95,874.36,-11.4,48.4
0.38,0.25,0.0,0.0,0.5,0.0,0.0,0.0,0.0,0.25,0.0,0.0,0.0,0.25,-0.48,1.08,2.58,16.14,13.2,12.1,7.25,2.25,8.5,12.5,9.75,6.0,2.5,1.0,0.25,1.5,0.75,0.0,0.75,0.08,0.14,0.95,901.33,-12.3,50.8
0.4,0.5,0.0,0.0,0.5,0.0,0.0,0.0,0.0,0.25,0.0,0.0,0.0,0.5,-0.36,1.64,2.7,21.12,12.1,5.6,7.0,2.5,8.75,12.5,11.0,6.0,2.5,0.75,0.5,0.75,0.75,0.0,0.75,0.08,0.14,0.95,929.07,-12.4,52.7
0.42,0.25,0.0,0.0,0.5,0.0,0.0,0.5,0.0,0.25,0.0,0.0,0.0,0.25,0.2,2.95,1.14,24.19,16.2,14.6,7.5,2.75,8.75,13.5,11.0,6.0,2.5,0.75,0.25,1.25,0.75,0.0,0.75,0.08,0.14,1.02,963.44,-12.5,52.7
0.44,0.75,0.0,0.0,0.5,0.0,0.0,0.0,0.0,0.25,0.0,0.0,0.0,0.5,0.89,3.08,1.02,28.82,14.8,16.5,8.0,3.25,8.75,14.5,11.0,6.0,2.25,0.75,0.25,0.0,0.25,0.0,0.75,0.08,0.14,1.02,990.08,-13.3,57.5
0.46,0.25,0.0,0.0,0.5,0.0,0.0,0.0,0.0,0.25,0.0,0.0,0.0,0.0,1.77,3.77,0.52,26.43,20.1,43.4,8.25,3.25,8.75,14.5,11.0,5.75,1.5,0.75,0.25,1.5,0.25,0.0,0.0,0.02,0.2,1.02,1010.75,-13.0,56.8
0.48,0.0,0.0,0.0,0.5,0.0,0.0,0.0,1.25,0.25,0.0,0.0,0.0,0.5,2.2,4.52,0.45,31.89,-6.3,-33.2,8.75,3.75,8.75,14.0,11.0,5.25,1.25,0.75,0.25,1.5,0.75,0.0,0.0,0.02,0.2,0.95,1023.84,-13.4,56.6
0.5,0.0,0.0,0.0,0.5,0.0,0.0,0.0,0.0,0.25,0.5,0.0,0.0,0.25,2.02,2.77,0.27,30.4,0.4,-29.6,9.0,3.5,8.75,14.5,11.0,5.0,1.25,0.75,0.5,1.25,0.5,0.0,0.0,0.08,0.27,1.02,1028.06,-13.8,57.4
0.52,0.25,0.0,0.0,0.5,0.0,0.0,0.0,0.0,0.0,1.25,0.0,0.5,0.75,-0.98,-0.17,2.52,39.56,-2.6,-55.1,9.5,3.5,8.75,14.0,9.75,2.0,0.75,0.75,0.25,0.0,0.75,0.0,0.5,0.08,0.33,1.14,986.22,-16.8,60.7
0.54,0.0,0.0,0.0,0.25,0.0,0.0,0.0,0.0,0.25,3.0,0.25,4.25,4.25,0.02,-0.36,1.02,102.83,-4.8,-95.8,9.25,3.0,8.0,12.5,9.0,0.0,0.75,0.75,0.25,0.25,0.25,0.0,0.0,0.14,0.33,1.27,895.39,-18.7,64.0
0.56,1.25,0.0,0.0,0.5,0.0,0.0,0.0,0.0,0.0,5.75,0.0,2.75,6.25,0.45,0.83,2.52,178.12,-6.2,-78.0,8.75,1.5,7.0,11.0,7.75,0.0,0.5,0.75,0.25,1.25,0.5,0.0,0.5,0.2,0.39,1.39,774.79,-17.7,56.7
0.58,0.0,0.0,0.0,0.0,0.0,0.0,0.0,3.0,0.0,0.0,5.5,0.0,3.25,-0.48,0.33,1.58,212.98,-3.3,-75.9,8.0,1.25,5.25,7.25,5.25,0.0,0.25,0.75,0.25,0.75,0.0,0.0,0.0,0.52,0.83,2.08,605.66,-19.4,62.6
0.6,0.0,0.0,0.0,0.5,0.0,0.0,0.0,5.25,1.0,6.75,5.25,5.0,6.75,-0.11,0.27,1.08,305.47,-5.5,-79.1,6.25,0.0,2.0,2.5,1.5,0.0,0.25,0.75,0.0,0.0,0.25,0.0,0.5,0.89,1.64,3.2,385.96,-22.2,60.5
0.62,0.0,0.0,0.0,0.5,0.0,0.5,0.0,5.25,1.0,6.75,5.5,4.5,6.25,-0.17,0.08,0.95,388.33,-5.7,-76.3,4.5,0.0,0.75,2.75,1.0,0.0,0.5,0.75,0.25,0.5,0.25,0.0,0.0,0.14,0.27,2.7,242.2,-19.5,54.5
0.64,0.0,0.0,0.0,0.5,0.0,1.25,0.0,5.25,1.5,6.75,0.0,4.5,6.25,-0.17,0.08,0.95,446.95,-9.2,-72.7,1.25,0.0,1.75,0.75,1.25,0.0,0.25,0.0,0.0,0.0,0.0,0.0,0.0,0.33,0.27,2.02,101.82,-23.0,65.8
0.66,0.0,0.0,0.0,0.5,0.0,1.5,0.0,5.25,2.0,6.5,0.0,4.5,6.25,-0.17,0.08,0.95,465.52,-8.9,-71.1,0.0,6.25,0.5,0.0,0.0,0.0,0.0,0.0,0.25,0.75,0.0,0.0,0.0,1.08,-0.23,2.33,16.31,-11.5,75.7
0.68,0.0,0.0,0.0,0.75,0.0,1.5,0.5,5.75,0.75,6.25,5.5,4.25,6.0,-0.11,0.08,0.95,494.24,-6.0,-70.1,0.5,0.0,0.5,1.0,0.0,0.0,0.0,0.0,0.25,0.5,0.0,0.0,0.0,1.02,-0.8,1.14,0.0,-17.7,32.5
0.7,0.0,0.0,0.0,1.25,0.0,1.5,0.5,5.75,1.0,6.0,5.75,4.0,5.5,-0.11,0.02,0.95,502.73,-5.2,-66.7,0.0,0.0,0.5,0.0,0.0,0.0,0.0,0.5,0.0,0.0,0.0,0.0,0.0,0.7,-1.73,0.45,0.0,-11.1,11.8
0.72,0.0,0.0,0.0,1.0,0.0,2.0,0.5,5.75,2.0,6.0,5.5,3.75,5.5,-0.11,0.08,0.95,514.13,-5.4,-64.9,0.0,0.0,0.5,0.0,0.0,0.0,0.0,0.0,0.0,0.0,0.0,0.0,0.0,0.64,-0.73,1.39,0.0,-38.2,60.9
0.74,0.25,0.0,0.0,1.0,3.25,2.25,0.75,6.0,2.5,5.25,5.25,3.0,4.25,-0.11,0.08,0.95,522.59,-4.5,-46.0,0.0,0.0,0.5,0.0,0.0,0.0,0.0,0.0,0.0,0.0,0.0,0.0,0.0,0.14,-0.55,0.39,0.0,-38.2,60.9
0.76,0.0,0.0,0.0,1.5,4.0,2.5,0.75,5.75,2.5,4.75,4.75,2.75,4.25,-0.11,0.08,0.95,511.76,-4.6,-40.9,0.0,0.0,0.5,0.0,0.0,0.0,0.0,0.0,0.0,0.0,0.0,0.0,0.0,0.33,-0.42,0.58,0.0,-38.2,60.9
0.78,0.0,0.0,0.0,2.0,4.5,2.75,1.0,5.75,2.75,4.75,4.25,2.25,3.25,-0.11,0.08,0.95,485.44,-4.3,-33.3,0.0,0.0,0.5,0.0,0.0,0.0,0.0,0.0,0.0,0.0,0.0,0.0,0.0,0.33,-0.42,0.89,0.0,-38.2,60.9
0.8,0.25,0.0,0.0,4.0,5.25,2.75,1.0,5.5,2.75,3.5,3.5,1.75,3.0,-0.11,0.08,0.95,468.0,-2.6,-20.1,0.0,0.0,0.5,0.0,0.0,0.0,0.0,0.0,0.0,0.0,0.0,0.0,0.0,0.27,-0.36,0.95,0.0,-38.2,60.9
0.82,0.0,1.0,0.5,4.75,5.5,3.0,1.0,5.25,2.75,3.0,3.25,1.0,1.75,-0.11,0.08,0.95,455.57,-1.0,-6.2,0.0,0.0,0.5,0.0,0.0,0.0,0.0,0.0,0.0,0.0,0.0,0.0,0.0,0.2,-0.11,0.95,0.0,-38.2,60.9
0.84,1.25,1.0,0.5,7.5,6.25,3.0,1.0,5.25,2.5,1.75,2.5,1.0,1.75,-0.11,0.08,0.95,456.06,1.6,7.7,0.0,0.0,0.5,0.0,0.0,0.0,0.25,0.75,0.0,0.0,0.0,0.0,0.0,0.27,0.14,1.14,0.0,-7.9,4.0
0.86,1.5,1.0,1.25,8.0,6.75,3.75,1.25,4.75,2.25,2.0,1.5,0.75,0.5,-0.11,0.08,0.95,480.95,2.7,19.2,0.0,0.0,0.5,0.0,0.0,0.0,0.0,0.0,0.0,0.0,0.0,0.0,0.0,0.27,0.2,1.39,0.0,-38.2,60.9
0.88,2.0,1.0,2.0,8.75,7.25,3.5,1.25,4.5,2.0,1.5,1.5,0.75,0.5,-0.11,0.08,0.95,514.23,4.6,24.4,0.0,0.0,0.5,0.0,0.0,0.0,0.0,0.0,0.0,0.0,0.0,0.0,0.0,0.2,0.33,1.58,0.0,-38.2,60.9
0.9,2.5,1.0,3.0,9.0,7.75,3.75,1.25,4.5,1.75,1.5,1.0,0.0,0.5,-0.11,0.08,0.95,541.17,5.4,31.3,0.0,0.0,0.5,0.0,0.0,0.0,0.0,0.0,0.0,0.0,0.0,0.0,0.0,0.2,0.52,1.64,0.82,-38.2,60.9
0.92,2.75,1.25,3.0,10.5,8.0,4.0,1.25,4.0,1.5,1.25,0.75,0.25,0.5,-0.11,0.08,0.95,571.91,6.2,35.1,0.0,0.0,0.5,0.0,0.0,0.0,0.0,0.0,0.0,0.0,0.0,0.0,0.0,0.27,0.64,1.83,7.54,-38.2,60.9
0.94,3.0,1.25,3.0,10.5,8.25,4.0,1.5,3.25,1.0,1.25,0.5,0.0,0.5,-0.11,0.08,0.95,591.41,6.7,39.6,0.0,0.0,0.5,0.0,0.0,0.0,0.0,0.0,0.0,0.0,0.0,0.0,0.0,0.52,0.7,2.08,8.76,-38.2,60.9
0.96,3.0,2.25,3.5,11.5,8.5,4.0,1.5,3.0,0.5,0.5,0.25,0.0,0.5,-0.11,0.14,0.95,613.45,8.0,46.3,0.0,0.0,0.5,0.0,0.0,0.0,0.0,0.0,0.0,0.0,0.0,0.0,0.0,0.64,1.08,2.2,9.21,-38.2,60.9
0.98,2.25,2.5,4.75,11.5,8.75,4.0,1.25,3.0,0.5,0.0,0.0,0.0,0.5,-0.11,0.14,0.95,629.19,8.6,48.6,0.0,0.0,0.5,0.0,0.0,0.0,0.0,0.0,0.0,0.0,0.0,0.0,0.0,0.39,1.77,2.27,9.21,-38.2,60.9
1.0,3.0,2.5,5.25,12.5,8.75,4.0,1.25,2.75,0.0,0.5,0.0,0.0,0.5,-0.11,0.14,1.02,655.59,9.5,49.9,0.0,0.0,0.5,0.0,0.0,0.0,0.0,0.0,0.0,0.0,0.0,0.0,0.0,0.02,2.33,2.02,8.94,-38.2,60.9
1.02,3.25,2.5,5.75,12.5,9.25,4.0,1.25,2.5,0.0,0.0,0.0,0.0,0.5,-0.17,0.14,1.02,678.75,10.2,52.3,0.0,0.0,0.5,0.0,0.0,0.0,0.0,0.0,0.0,0.0,0.0,0.0,0.0,-0.48,2.83,1.02,8.81,-38.2,60.9
1.04,3.25,3.0,6.0,13.0,9.5,3.25,1.25,1.75,0.25,0.25,0.0,0.0,0.5,-0.17,0.14,1.08,700.84,11.3,53.6,0.0,0.0,0.5,0.75,0.0,0.0,0.0,0.0,0.0,0.0,0.0,0.0,0.0,-1.11,3.45,0.64,13.54,-25.5,59.1
1.06,5.75,3.75,0.0,13.5,8.75,3.0,1.25,1.5,0.0,0.0,0.0,0.0,0.0,-0.17,0.2,1.08,679.27,9.7,60.4,0.0,0.25,0.5,1.0,0.0,0.0,0.25,0.75,0.25,1.0,0.0,0.0,0.5,-1.92,4.14,0.33,34.26,-2.8,-11.1
1.08,0.0,0.0,0.0,6.75,0.0,0.0,0.0,0.0,0.0,0.0,0.0,0.0,0.0,-0.17,0.2,1.08,444.44,17.2,57.9,0.0,0.0,0.0,0.0,0.0,0.0,0.0,0.0,0.0,0.75,0.0,0.0,0.75,-2.8,3.89,0.95,38.69,14.6,-92.9
1.1,5.75,2.75,5.75,13.0,8.5,1.5,0.25,1.25,0.5,0.0,0.0,0.0,0.25,-0.17,0.27,1.14,449.95,14.7,59.2,0.0,0.0,1.25,0.5,1.25,0.0,0.25,0.75,0.25,2.25,0.25,1.0,1.75,1.2,-0.73,0.39,82.97,0.0,-35.6
1.12,7.25,4.0,7.0,11.5,8.5,0.75,0.0,1.25,0.5,0.0,0.0,0.0,0.5,-0.23,0.27,1.2,476.22,16.3,61.3,0.0,0.0,1.0,0.75,0.0,0.0,0.0,0.5,0.0,5.5,2.0,4.25,6.75,0.77,-1.05,2.45,179.75,3.7,-81.2
1.14,7.75,4.0,6.75,10.5,0.0,0.25,0.0,1.25,0.0,0.5,0.0,0.0,0.0,-0.3,0.33,1.39,505.65,23.2,67.0,0.0,0.0,0.0,0.5,0.0,0.0,0.25,1.5,0.25,8.25,4.25,6.5,8.5,-1.17,1.2,1.89,296.45,5.2,-88.0
1.16,7.75,2.5,6.0,9.75,0.0,0.0,0.0,1.25,0.25,0.5,0.0,0.0,0.5,-0.48,0.39,1.64,477.42,23.1,61.9,0.0,0.0,0.75,0.5,1.25,1.25,0.25,3.75,1.0,9.0,7.25,6.5,9.0,0.77,0.08,1.27,464.06,4.3,-72.1
1.18,7.25,1.0,4.5,7.75,0.0,0.0,0.0,1.25,0.0,0.0,0.0,0.0,0.25,-0.86,0.7,1.64,407.95,24.5,65.3,0.0,0.0,0.75,0.0,1.25,0.0,0.25,5.0,1.0,9.0,7.5,6.5,8.5,-0.11,0.2,1.14,616.78,4.2,-75.4
1.2,5.75,0.0,2.25,3.75,0.0,0.0,0.0,0.0,0.25,0.25,0.0,0.0,0.5,-1.05,1.33,2.83,292.44,26.6,64.1,0.0,0.0,0.75,0.75,1.25,0.0,0.25,5.25,0.75,9.25,7.25,6.0,8.5,0.2,0.08,0.89,717.23,4.3,-72.4
1.22,1.75,0.0,1.5,2.5,0.0,0.0,0.0,0.0,0.0,0.0,0.0,0.0,0.25,-0.3,0.64,2.77,182.79,26.0,62.3,0.0,0.0,0.75,0.75,1.25,2.0,0.25,6.0,1.0,9.0,6.75,5.75,8.25,0.14,0.08,0.95,764.15,5.4,-66.3
1.24,0.0,0.0,0.25,0.5,0.0,0.0,0.0,0.0,0.25,0.5,0.0,0.0,0.25,-0.73,0.33,2.64,72.71,5.8,-16.5,0.0,0.5,0.75,1.0,1.25,2.0,0.25,6.0,0.75,9.0,6.5,5.75,8.25,0.14,0.08,0.95,782.87,5.2,-63.6
1.26,0.0,0.0,0.0,0.5,0.0,0.0,0.0,0.0,0.0,0.0,0.0,0.0,0.5,-1.3,-0.92,2.02,0.0,1.8,-25.2,0.0,0.0,0.75,0.0,1.25,2.75,0.25,6.0,1.0,8.75,6.75,5.25,8.0,0.08,0.08,0.95,775.87,6.2,-66.0
1.28,0.0,0.0,0.0,0.5,0.0,0.0,0.0,0.0,0.0,0.0,0.0,0.0,0.25,-0.86,0.02,2.27,0.0,7.0,2.6,0.0,0.25,1.0,1.0,1.5,2.75,0.25,6.0,1.0,8.5,6.25,5.0,7.75,0.08,0.08,0.95,759.44,5.3,-59.5
1.3,0.0,0.0,0.0,0.75,0.0,0.0,0.0,0.0,0.25,0.0,0.0,0.0,0.5,-1.3,-1.3,0.45,0.0,6.1,-13.2,0.25,0.5,1.5,1.25,1.75,4.25,0.25,6.0,1.0,8.0,6.0,3.75,7.0,0.14,0.08,0.95,728.38,5.1,-48.7
1.32,0.0,0.0,0.0,0.5,0.0,0.0,0.0,0.0,0.25,0.25,0.0,0.0,0.5,-0.86,-0.48,0.83,0.0,0.6,-35.5,0.75,0.25,1.75,1.0,2.5,4.0,0.25,6.0,1.0,7.75,4.75,3.25,6.5,0.14,0.08,0.95,679.85,5.0,-43.7
1.34,1.25,0.0,0.0,0.5,0.0,0.0,0.0,0.0,0.25,0.0,0.0,0.0,0.0,-0.42,-0.42,0.39,0.0,27.2,69.7,1.0,0.0,2.0,1.75,4.75,4.75,0.5,6.0,1.25,7.25,4.25,2.5,5.75,0.14,0.08,0.95,629.7,4.3,-30.5
1.36,0.5,0.0,0.0,0.5,0.0,0.0,0.0,0.0,0.25,0.0,0.0,0.0,0.5,-0.42,-0.3,0.52,0.0,12.1,5.6,1.5,0.0,2.25,2.75,5.25,5.5,0.75,6.0,1.0,6.75,4.0,2.0,5.25,0.14,0.08,0.95,595.19,3.4,-21.4
1.38,1.25,0.0,0.0,0.0,0.0,0.0,0.0,0.0,0.25,0.0,0.0,0.0,0.0,-0.48,-0.23,0.58,0.0,31.0,74.0,1.25,0.5,3.25,4.0,5.25,6.0,1.0,6.0,1.25,6.25,3.25,1.0,4.25,0.14,0.08,0.95,584.38,2.0,-10.0
1.4,0.5,0.0,0.0,0.0,0.0,0.0,0.0,0.0,0.0,0.0,0.0,0.0,0.25,-0.61,-0.17,0.7,0.0,17.6,24.0,2.25,0.75,3.5,4.25,6.25,6.0,1.25,6.0,1.25,5.25,2.5,0.5,3.5,0.14,0.08,0.95,589.18,0.5,1.0
1.42,1.25,0.0,0.0,0.0,0.0,0.0,0.0,0.0,0.0,0.25,0.0,0.0,0.25,-0.61,-0.05,0.95,0.0,19.9,40.0,2.25,1.0,3.75,5.0,7.0,6.25,1.25,5.25,1.25,4.5,2.0,0.5,2.75,0.14,0.08,0.95,604.58,-0.5,9.1
1.44,1.25,0.0,0.0,0.0,0.0,0.0,0.0,0.0,0.0,0.25,0.0,0.0,0.25,-0.55,0.14,1.02,8.37,19.9,40.0,2.5,1.0,3.75,5.75,7.75,6.75,1.25,5.0,1.0,3.5,2.0,0.25,2.5,0.14,0.08,0.95,619.2,-1.1,15.5
1.46,1.25,0.0,0.0,0.0,0.0,0.0,0.0,0.0,0.0,0.0,0.0,0.0,0.0,-0.48,0.27,1.27,20.06,34.9,97.9,2.75,1.25,4.0,7.5,8.25,6.75,1.5,4.25,1.0,3.25,2.0,0.0,1.75,0.14,0.08,0.95,640.58,-2.9,23.2
1.48,1.25,0.0,0.0,0.5,0.0,0.0,0.0,0.0,0.0,0.0,0.0,0.0,0.5,-0.42,0.45,1.33,29.94,19.4,39.9,3.75,1.75,5.0,8.75,8.5,6.75,1.5,3.75,1.0,3.25,1.5,0.0,1.5,0.14,0.08,0.95,682.64,-4.9,29.9
1.5,1.25,0.0,0.0,0.0,0.0,0.0,0.0,0.0,0.0,0.25,0.0,0.0,0.25,-0.36,0.58,1.64,31.31,19.9,40.0,3.75,1.5,5.75,9.25,9.25,7.0,1.5,3.75,0.75,1.75,1.5,0.0,1.5,0.14,0.08,0.95,725.01,-5.9,34.4
1.52,1.0,0.0,0.0,0.0,0.0,0.0,0.0,0.0,0.0,0.25,0.0,0.0,0.0,-0.36,0.64,1.77,28.89,24.2,61.2,3.75,1.75,5.75,11.0,9.5,7.0,1.75,2.5,0.25,1.75,0.75,0.0,1.5,0.08,0.08,0.95,761.3,-6.8,40.1
1.54,0.5,0.0,0.0,0.0,0.0,0.0,0.0,1.25,0.0,0.0,0.0,0.0,0.25,-0.55,0.7,1.95,28.14,-4.1,-15.7,4.5,2.5,6.0,11.0,9.75,7.0,1.5,2.5,0.25,2.0,0.25,0.0,1.0,0.08,0.14,0.95,793.89,-7.4,44.1
1.56,0.75,0.0,0.0,0.0,0.0,0.0,0.0,0.0,0.0,0.0,0.0,0.0,0.0,-0.67,0.89,2.7,22.8,35.0,97.9,5.25,2.25,6.75,12.5,11.0,7.25,1.25,2.25,0.25,1.5,0.5,0.0,0.75,0.08,0.14,0.95,842.68,-8.5,47.2
1.58,0.75,0.0,0.0,0.5,0.0,0.0,0.0,1.25,0.0,0.0,0.0,0.0,0.25,-0.42,1.52,2.39,28.94,3.2,8.1,5.75,2.5,7.0,12.5,11.0,7.0,1.25,2.0,0.25,1.5,0.75,0.0,0.75,0.08,0.14,0.95,884.26,-9.1,47.9
1.6,0.5,0.0,0.0,0.5,0.0,0.0,0.0,1.25,0.0,0.25,0.0,0.0,0.25,0.14,2.08,2.45,34.86,-1.1,-7.1,5.75,3.0,7.25,13.0,11.0,6.5,1.25,1.0,0.25,1.5,0.25,0.0,0.75,0.08,0.14,1.02,914.2,-10.2,51.4
1.62,0.75,0.0,0.0,0.25,0.0,0.0,0.0,1.25,0.0,0.0,0.0,0.0,0.0,0.89,2.58,1.64,39.77,3.6,15.9,6.25,3.0,7.25,14.5,11.5,6.0,1.25,0.75,0.0,1.25,0.25,0.0,0.75,0.08,0.14,1.02,940.8,-11.0,53.6
1.64,0.0,0.0,0.0,0.5,0.0,0.0,0.0,1.0,0.0,0.25,0.0,0.0,0.0,1.7,3.14,0.95,37.45,-6.5,-15.4,7.0,3.5,7.75,14.5,11.5,6.75,1.0,0.75,0.25,1.5,0.0,0.0,0.75,0.08,0.2,1.02,975.3,-10.9,54.0
1.66,1.0,0.0,0.0,0.5,0.0,0.0,0.0,1.25,0.0,0.25,0.0,0.0,0.25,2.14,4.33,0.45,42.15,4.1,8.1,7.5,4.0,7.75,14.5,11.5,6.25,0.75,0.75,0.25,1.5,0.0,0.0,0.5,0.08,0.2,1.02,1002.85,-11.5,55.8
1.68,0.0,0.0,0.0,0.5,0.0,0.0,0.0,1.25,0.0,0.25,0.0,0.0,0.25,2.02,3.83,0.2,40.55,-8.5,-28.6,8.25,3.75,7.75,14.5,11.0,5.75,0.75,0.75,0.25,1.25,0.0,0.0,0.5,0.08,0.27,1.08,1015.09,-12.3,56.9
1.7,1.25,0.0,0.0,0.5,0.0,0.0,0.0,0.0,0.25,0.5,0.0,0.0,0.0,-0.36,0.7,1.02,42.75,18.4,39.9,8.75,4.25,7.25,14.0,11.0,4.0,0.75,0.75,0.25,1.25,0.25,0.0,0.5,0.14,0.33,1.14,1004.0,-13.3,57.7
1.72,0.0,0.0,0.0,0.5,0.0,0.0,0.0,0.0,0.25,1.25,0.0,1.5,1.25,-0.86,-0.61,1.2,57.06,-2.4,-78.9,8.75,3.5,7.0,13.0,9.5,1.75,0.25,0.75,0.25,1.5,0.25,0.0,0.75,0.14,0.33,1.27,939.23,-14.9,56.8
1.74,0.0,0.0,0.0,0.25,0.0,0.0,0.0,0.0,0.0,4.75,1.5,4.25,5.5,0.27,0.27,0.83,139.02,-5.7,-94.1,8.5,2.75,5.75,12.5,8.5,0.0,0.25,0.75,0.25,1.25,0.25,0.0,0.5,0.27,0.39,1.33,833.94,-16.4,58.4
1.76,0.0,0.0,0.0,0.0,0.0,0.0,0.0,0.0,0.75,6.75,4.75,5.5,6.75,0.39,0.52,3.45,243.04,-3.8,-91.8,7.25,1.25,2.75,6.0,7.0,0.0,0.25,0.75,0.0,0.75,0.0,0.0,0.5,0.58,0.77,2.58,635.06,-15.1,59.1
1.78,0.0,0.0,0.0,0.5,0.0,0.0,0.0,5.25,1.0,7.25,5.75,5.75,7.5,-0.17,0.45,1.14,365.12,-5.3,-80.4,5.75,0.0,0.5,3.75,1.75,0.0,0.25,0.75,0.25,1.25,0.0,0.0,0.5,0.83,1.58,3.77,401.66,-16.0,47.9
1.8,0.25,0.0,0.0,0.5,1.5,0.75,0.0,6.0,1.0,7.5,6.25,5.5,7.0,-0.05,0.08,1.02,496.87,-5.3,-69.1,3.75,0.0,0.5,2.0,1.25,0.0,0.25,0.75,0.25,0.0,0.0,0.0,0.0,-0.23,0.39,3.2,236.55,-19.3,61.9
1.82,0.0,0.0,0.0,0.5,2.0,1.5,0.25,6.0,1.0,7.0,0.0,5.0,6.75,-0.17,0.08,0.95,551.38,-9.1,-62.8,2.0,0.25,0.0,1.25,0.0,0.0,0.0,0.0,0.25,1.0,0.0,0.0,0.0,0.33,0.33,2.39,91.12,-16.7,42.5
1.84,0.0,0.0,0.0,0.5,1.75,1.5,0.25,6.0,1.0,6.75,6.0,5.0,6.75,-0.17,0.02,0.95,595.38,-5.8,-65.7,0.0,0.0,0.0,0.0,1.25,0.0,0.25,0.0,0.25,0.0,0.0,0.0,0.0,1.33,-0.8,2.02,0.0,-1.1,39.2
1.86,0.0,0.0,0.0,0.0,0.0,1.5,0.5,6.0,1.0,6.75,6.0,5.0,6.25,-0.11,0.02,0.95,595.24,-6.1,-74.1,0.0,0.0,0.0,0.0,0.0,0.0,0.0,0.0,0.0,0.0,0.0,0.0,0.0,0.95,-0.3,0.33,0.0,0.0,0.0
1.88,0.0,0.0,0.0,0.5,0.0,2.0,0.5,6.0,2.25,6.75,6.0,4.25,6.25,-0.11,0.02,0.95,602.74,-5.6,-68.5,0.0,0.0,0.5,0.0,0.0,0.0,0.0,0.0,0.0,0.0,0.0,0.0,0.0,0.7,-1.61,0.45,0.0,-38.2,60.9
1.9,0.0,0.0,0.0,0.5,2.75,2.25,0.5,6.0,2.5,6.0,5.5,4.0,5.75,-0.11,0.02,0.95,598.52,-5.4,-55.6,0.0,0.0,0.5,0.0,0.0,0.0,0.0,0.0,0.0,0.0,0.0,0.0,0.0,0.58,-0.61,1.33,0.0,-38.2,60.9
1.92,0.0,0.0,0.0,0.5,3.25,2.25,0.75,6.0,2.5,5.75,4.75,3.0,5.5,-0.11,0.02,0.95,584.74,-5.9,-50.9,0.0,0.0,0.5,0.0,0.0,0.0,0.0,0.0,0.0,0.0,0.0,0.0,0.0,-0.05,-0.36,0.33,0.0,-38.2,60.9
1.94,0.0,0.0,0.5,0.5,4.0,2.25,0.5,6.0,2.5,4.75,4.25,2.75,4.25,-0.11,0.08,0.95,540.67,-5.0,-42.8,0.0,0.0,0.5,0.0,0.0,0.0,0.0,0.0,0.0,0.0,0.0,0.0,0.0,0.14,-0.23,0.27,0.0,-38.2,60.9
1.96,1.0,0.0,1.25,2.5,3.75,2.75,1.0,5.75,2.5,4.75,3.25,1.75,3.25,-0.11,0.08,0.95,492.06,-2.0,-24.4,0.0,0.0,0.5,0.0,0.0,0.0,0.0,0.0,0.0,0.0,0.0,0.0,0.0,0.39,-0.3,0.39,0.0,-38.2,60.9
1.98,1.25,0.0,1.0,2.75,4.5,2.75,1.25,5.25,2.5,3.0,3.25,1.25,2.75,-0.11,0.02,0.95,440.02,-0.8,-15.3,0.0,0.0,0.5,0.0,0.0,0.0,0.0,0.0,0.0,0.0,0.0,0.0,0.0,0.58,-0.36,0.64,0.0,-38.2,60.9
2.0,3.0,0.0,1.5,3.75,5.25,3.0,1.25,5.25,2.5,3.0,2.5,1.0,1.75,-0.11,0.08,0.95,424.05,1.9,0.5,0.0,0.0,0.5,0.0,0.0,0.0,0.0,0.0,0.0,0.0,0.0,0.0,0.0,0.58,-0.17,0.89,0.0,-38.2,60.9
2.02,3.75,0.25,2.25,4.5,5.25,3.0,1.75,5.0,2.5,1.75,2.25,1.0,1.75,-0.11,0.08,0.95,430.16,4.7,9.6,0.0,0.0,0.5,0.0,0.0,0.0,0.0,0.0,0.0,0.0,0.0,0.0,0.0,0.64,0.2,0.89,0.0,-38.2,60.9
2.04,4.5,0.75,2.25,4.75,5.5,3.0,1.75,4.5,2.5,1.5,1.5,1.0,1.25,-0.11,0.08,0.95,451.09,6.0,18.3,0.0,0.0,0.5,0.0,0.0,0.0,0.0,0.0,0.0,0.0,0.0,0.0,0.0,0.64,0.39,1.02,0.0,-38.2,60.9
2.06,5.25,1.0,3.5,6.25,6.0,3.0,1.75,4.5,2.25,1.5,1.5,0.5,1.0,-0.11,0.08,0.95,492.27,8.1,26.9,0.0,0.0,0.5,0.0,0.0,0.0,0.0,0.0,0.0,0.0,0.0,0.0,0.0,0.52,0.45,1.33,4.14,-38.2,60.9
2.08,5.75,1.0,4.0,7.25,6.0,3.0,2.25,4.25,1.75,1.25,1.0,0.25,0.5,-0.11,0.08,0.95,522.5,9.8,35.1,0.0,0.0,0.5,0.0,0.0,0.0,0.0,0.0,0.0,0.0,0.0,0.0,0.0,0.45,0.58,1.52,8.34,-38.2,60.9
2.1,6.5,1.0,4.5,8.0,6.75,3.0,2.75,3.5,1.5,1.25,0.75,0.25,0.5,-0.11,0.08,0.95,565.89,11.0,39.9,0.0,0.0,0.5,0.0,0.0,0.0,0.0,0.0,0.0,0.0,0.0,0.0,0.0,0.52,0.7,1.64,9.76,-38.2,60.9
2.12,6.5,1.0,4.75,9.0,6.5,2.75,2.75,3.25,1.25,1.0,0.5,0.0,0.5,-0.11,0.08,0.95,592.61,12.1,43.8,0.0,0.0,0.5,0.0,0.0,0.0,0.0,0.0,0.0,0.0,0.0,0.0,0.0,0.58,0.77,1.95,9.21,-38.2,60.9
2.14,7.25,1.0,5.75,9.0,7.0,2.75,3.25,3.0,1.0,0.75,0.0,0.0,0.5,-0.11,0.08,0.95,624.84,13.4,48.4,0.25,0.0,0.5,0.0,0.0,0.0,0.0,0.0,0.0,0.0,0.0,0.0,0.0,0.77,0.95,2.33,10.74,-37.2,72.5
2.16,7.25,1.0,6.0,10.5,7.0,2.75,3.25,3.0,0.75,0.5,0.0,0.0,0.5,-0.11,0.14,0.95,654.91,13.9,50.1,0.0,0.0,0.5,0.0,0.0,0.0,0.0,0.0,0.0,0.0,0.0,0.0,0.0,0.52,1.39,2.45,10.63,-38.2,60.9
2.18,7.25,1.0,6.0,10.5,7.5,2.75,3.5,2.75,0.5,0.75,0.0,0.0,0.5,-0.11,0.14,0.95,681.32,13.7,50.3,0.0,0.0,0.5,0.75,0.0,0.0,0.0,0.0,0.25,0.0,0.0,0.0,0.0,0.14,2.02,2.27,16.68,-23.4,43.5
2.2,7.5,1.0,6.75,11.5,7.75,2.5,3.5,2.25,0.25,0.5,0.0,0.0,0.5,-0.11,0.14,1.02,705.22,14.9,53.3,0.0,0.0,1.0,0.0,1.25,0.0,0.25,0.75,0.0,0.0,0.0,0.0,0.0,-0.11,2.45,1.2,32.12,-7.7,34.1
2.22,8.0,1.25,6.75,11.5,7.75,2.25,3.25,1.75,0.25,0.5,0.0,0.0,0.5,-0.11,0.14,1.02,719.46,15.7,55.3,0.0,0.0,0.5,0.75,0.0,0.0,0.0,0.0,0.25,0.75,0.0,0.0,0.0,-0.48,2.83,0.64,39.82,-10.6,4.6
2.24,7.75,1.25,7.25,12.5,8.0,1.75,3.25,1.5,0.0,0.5,0.25,0.0,0.5,-0.11,0.14,1.02,730.14,16.3,55.8,0.25,0.25,0.75,1.0,1.25,0.0,0.25,0.75,0.25,0.5,0.0,0.0,0.75,-1.23,4.2,0.2,65.9,-4.8,12.3
2.26,7.75,1.75,7.75,12.5,7.75,1.25,3.25,1.5,0.0,0.5,0.0,0.0,0.5,-0.11,0.2,1.02,735.82,17.1,57.3,0.0,0.0,0.75,0.0,0.0,0.0,0.0,0.0,0.0,0.0,0.0,0.0,0.0,-2.11,4.64,0.27,56.54,-38.2,60.9
2.28,8.0,2.0,8.25,13.0,7.75,0.75,3.0,1.25,0.0,0.5,0.0,0.0,0.5,-0.11,0.2,1.02,744.37,18.0,58.6,0.0,0.0,1.0,0.0,1.0,0.0,0.0,0.75,0.0,1.5,0.0,0.0,0.75,-0.61,0.2,0.64,69.46,2.1,-19.6
2.3,8.0,2.0,7.5,13.0,7.25,0.25,2.75,1.5,0.25,0.0,0.0,0.0,0.5,-0.11,0.27,1.08,732.14,18.5,59.5,0.0,0.0,0.0,0.75,0.0,0.0,0.25,0.75,0.0,3.5,0.5,2.0,4.25,1.64,-0.42,1.45,114.98,7.2,-81.6
2.32,7.25,1.25,8.25,12.5,5.75,0.0,2.25,1.25,0.0,0.25,0.0,0.0,0.25,-0.17,0.27,1.2,693.78,20.1,60.2,0.0,0.25,0.5,0.5,0.0,0.0,0.0,0.75,0.0,6.5,1.75,5.0,7.75,0.39,0.52,0.45,217.32,5.5,-85.5
2.34,8.25,2.0,8.0,11.5,0.0,0.0,1.25,1.25,0.25,0.5,0.0,0.0,0.5,-0.23,0.33,1.39,613.25,24.2,60.9,0.0,0.0,0.5,0.75,0.0,0.0,0.0,2.0,0.25,8.0,3.75,5.75,8.5,-0.48,0.39,2.77,321.3,5.1,-83.5
2.36,8.25,1.25,7.5,9.75,0.0,0.0,1.0,1.25,0.25,0.5,0.0,0.0,0.5,-0.42,0.45,1.52,524.49,24.7,60.3,0.0,0.0,0.75,0.75,1.25,2.0,0.0,3.75,1.0,9.0,5.75,5.75,8.5,0.45,0.33,1.2,471.62,5.3,-68.2
2.38,7.75,1.0,6.0,7.25,0.0,0.0,0.5,1.25,0.25,0.5,0.0,0.0,0.5,-0.61,0.64,1.7,423.16,24.5,59.7,0.0,0.0,0.75,0.75,1.25,1.75,0.25,5.0,1.0,9.0,6.5,5.5,8.5,-0.05,0.2,1.02,605.82,5.2,-67.5
2.4,6.75,0.25,2.75,4.5,0.0,0.0,0.75,1.25,0.25,0.25,0.0,0.0,0.5,-0.92,1.2,2.39,320.59,23.6,57.6,0.0,0.0,0.75,0.5,1.5,3.0,0.25,6.0,1.0,9.0,6.25,5.25,8.25,0.2,0.14,0.95,701.92,6.2,-63.3
2.42,4.75,0.0,3.0,2.75,0.0,0.0,0.5,0.0,0.25,0.25,0.0,0.0,0.5,-0.73,0.83,2.77,234.79,27.6,60.9,0.0,0.0,0.75,1.25,1.25,3.75,0.25,6.0,1.0,9.0,6.0,5.0,8.25,0.14,0.08,0.95,751.65,6.3,-59.9
2.44,0.25,0.0,1.75,2.5,0.0,0.0,0.25,0.0,0.25,0.5,0.0,0.0,0.5,-0.42,0.2,2.83,133.36,18.9,30.4,0.0,0.0,0.75,0.75,1.5,4.0,0.25,6.0,1.0,8.75,6.0,4.5,8.0,0.14,0.08,0.95,766.6,6.7,-59.0
2.46,0.0,0.0,0.25,0.5,0.0,0.0,0.0,0.0,0.0,0.0,0.0,0.0,0.0,-0.92,-0.55,2.2,22.05,24.1,58.9,1.25,0.5,1.25,1.0,1.75,4.25,0.25,6.0,1.0,8.5,5.25,3.75,7.75,0.14,0.08,0.95,761.36,5.2,-47.8
2.48,0.0,0.0,0.0,0.5,0.0,0.0,0.0,0.0,0.0,0.0,0.0,0.0,0.0,-1.36,-1.3,1.83,0.0,17.2,57.9,0.0,0.0,1.5,1.25,2.5,4.5,0.25,6.0,1.0,8.0,5.25,3.5,7.5,0.14,0.08,0.95,737.09,6.1,-48.7
2.5,0.75,0.0,0.25,0.5,0.0,0.0,0.0,0.0,0.0,0.0,0.0,0.0,0.25,-1.36,-1.3,1.33,0.0,22.9,49.6,0.5,0.75,1.5,1.25,3.5,4.5,0.25,6.0,1.0,8.0,4.75,2.75,6.75,0.14,0.08,0.95,708.28,5.6,-38.9
2.52,0.25,0.0,0.0,0.5,0.0,0.0,0.0,0.0,0.0,0.5,0.0,0.0,0.5,-0.98,-0.86,0.39,0.0,1.2,-23.2,0.0,0.0,1.75,1.5,5.25,5.0,0.25,6.0,1.25,7.5,4.25,2.5,6.5,0.14,0.08,0.95,667.78,6.0,-34.8
2.54,0.0,0.0,0.0,0.5,0.0,0.0,0.0,0.0,0.0,0.0,0.0,0.0,0.5,-0.55,-0.36,0.27,0.0,1.8,-25.2,0.5,0.25,2.0,2.25,5.25,5.5,0.5,5.5,1.0,7.0,3.75,2.25,6.0,0.14,0.08,0.95,624.11,4.9,-26.9
2.56,0.5,0.0,0.25,0.5,0.0,0.0,0.0,0.0,0.0,0.0,0.0,0.0,0.5,-0.36,-0.42,0.33,0.0,15.9,19.9,0.75,0.75,2.25,3.25,5.25,5.5,0.75,5.0,1.25,7.0,3.25,1.75,5.5,0.14,0.08,0.95,594.27,3.5,-19.3
2.58,0.0,0.0,0.5,0.5,0.0,0.0,0.0,0.0,0.0,0.0,0.0,0.0,0.25,-0.36,-0.36,0.89,0.0,19.4,25.8,1.0,0.5,2.25,3.25,5.25,5.75,0.75,5.25,1.5,6.5,3.25,1.0,5.0,0.14,0.08,0.95,572.13,3.5,-15.9
2.6,0.5,0.0,0.25,0.5,0.0,0.0,0.25,0.0,0.0,0.0,0.0,0.0,0.5,-0.36,-0.3,1.02,0.0,17.0,20.4,1.0,0.5,3.25,4.5,5.75,5.75,1.25,5.0,1.5,6.25,3.0,1.0,4.5,0.14,0.08,0.95,573.75,1.5,-8.8
2.62,0.25,0.0,0.5,0.5,0.0,0.0,0.25,0.0,0.0,0.25,0.0,0.0,0.25,-0.3,0.02,1.08,0.0,17.5,21.4,1.0,1.0,3.5,5.5,7.0,6.0,1.25,5.0,1.75,5.75,3.0,1.0,4.25,0.14,0.08,0.95,603.29,0.5,-2.4
2.64,0.5,0.0,0.25,0.5,0.0,0.0,0.0,0.0,0.0,0.0,0.0,0.0,0.5,-0.23,0.39,1.14,2.74,15.9,19.9,1.0,0.75,3.75,5.75,7.0,6.0,1.5,5.0,1.5,5.0,2.5,0.5,3.5,0.14,0.08,0.95,622.66,0.0,3.1
2.66,0.5,0.0,0.5,0.5,0.0,0.0,0.0,0.5,0.0,0.25,0.0,0.0,0.5,-0.05,0.58,1.33,22.21,9.2,4.5,0.75,1.25,5.0,7.5,7.5,6.25,2.0,4.75,1.5,4.5,2.0,0.5,2.5,0.14,0.08,0.95,655.48,-2.1,12.8
2.68,0.5,0.0,0.0,0.5,0.0,0.0,0.25,0.0,0.0,0.25,0.0,0.0,0.5,0.27,0.64,1.33,32.36,9.7,2.0,1.5,1.0,5.75,7.75,8.25,6.5,2.25,4.0,1.5,3.5,2.0,0.25,2.5,0.14,0.08,0.95,685.26,-3.7,18.8
2.7,0.5,0.0,0.0,0.5,0.0,0.0,0.0,1.25,0.0,0.0,0.0,0.0,0.5,0.2,0.64,1.45,41.37,-0.9,-10.5,2.0,1.25,5.75,9.25,8.25,6.5,2.5,3.75,1.5,3.5,2.0,0.25,2.0,0.14,0.08,0.95,723.78,-4.8,23.0
2.72,1.25,0.0,0.25,0.5,0.0,0.0,0.0,1.25,0.0,0.25,0.0,0.0,0.5,0.08,0.64,1.64,49.96,7.0,9.1,2.25,1.75,6.75,9.25,8.5,6.5,2.75,3.75,1.25,3.5,2.0,0.0,1.75,0.14,0.08,0.95,762.77,-5.8,26.7
2.74,1.25,0.0,0.0,0.5,0.0,0.0,0.0,1.0,0.0,0.0,0.0,0.0,0.5,-0.17,0.83,1.77,54.54,8.1,15.3,2.5,2.25,7.25,9.75,8.5,6.5,3.0,2.75,1.0,3.25,1.5,0.0,1.5,0.08,0.08,0.95,795.78,-7.1,32.3
2.76,0.25,0.0,0.25,0.5,0.0,0.0,0.25,1.25,0.0,0.0,0.0,0.0,0.0,-0.17,0.89,1.83,53.37,4.1,9.9,3.0,2.0,7.5,9.75,9.0,6.5,3.25,2.5,1.0,2.5,1.25,0.0,1.5,0.08,0.08,0.95,815.79,-7.9,35.5
2.78,1.25,0.0,0.0,0.5,0.0,0.0,0.0,1.25,0.0,0.25,0.0,0.0,0.25,-0.11,1.02,1.89,55.62,6.2,14.1,3.75,1.75,8.0,11.0,9.5,6.25,3.5,2.5,1.0,2.0,0.75,0.0,1.5,0.08,0.14,0.95,839.09,-9.0,39.2
2.8,1.25,0.0,0.0,0.5,0.0,0.0,0.0,1.25,0.0,0.25,0.0,0.0,0.5,-0.05,1.14,1.83,57.38,4.8,5.5,3.75,1.75,8.0,11.0,9.5,6.25,3.5,2.5,1.0,1.25,1.0,0.0,1.0,0.08,0.08,0.95,847.68,-9.7,41.9
2.82,1.25,0.0,0.0,0.5,0.0,0.0,0.25,1.0,0.25,0.0,0.0,0.0,0.5,0.27,1.2,1.08,59.89,9.2,12.0,5.0,2.0,8.75,12.5,9.5,6.0,3.75,2.0,1.0,1.5,0.75,0.0,1.0,0.08,0.14,0.95,877.18,-11.2,44.8
2.84,1.25,0.0,0.0,0.5,0.0,0.0,0.0,1.25,0.0,0.25,0.0,0.0,0.25,0.08,1.58,1.2,60.67,6.2,14.1,5.75,2.5,8.75,12.5,9.5,6.0,4.0,1.25,0.5,1.5,0.25,0.0,0.75,0.08,0.14,0.95,893.87,-12.1,49.8
2.86,1.25,0.0,0.25,0.5,0.0,0.0,0.0,0.25,0.0,0.0,0.0,0.0,0.5,0.64,1.7,1.02,57.55,17.8,34.6,5.75,2.25,9.0,12.5,10.5,6.0,4.0,0.75,0.25,1.5,0.25,0.0,0.75,0.08,0.14,0.95,912.87,-12.1,51.0
2.88,1.25,0.0,0.0,0.5,0.0,0.0,0.0,1.0,0.0,0.0,0.0,0.0,0.5,1.27,1.95,0.7,55.16,8.1,15.3,6.25,2.25,9.5,13.0,11.0,4.5,3.5,0.75,0.25,0.0,0.25,0.0,0.75,0.08,0.14,1.02,915.87,-14.1,55.8
2.9,1.25,0.0,0.25,0.5,0.0,0.0,0.0,0.25,0.0,0.0,0.0,0.0,0.25,1.33,2.33,0.58,49.36,21.1,49.8,6.75,2.25,9.5,13.0,11.0,2.5,3.25,0.75,0.25,0.5,0.0,0.0,0.75,0.08,0.14,1.02,901.73,-15.4,56.4
2.92,1.0,0.0,0.0,0.0,0.0,0.0,0.0,1.25,0.0,0.5,0.0,0.0,0.25,0.95,2.52,0.39,47.8,0.1,-7.8,7.0,2.5,9.5,12.5,11.0,5.5,2.5,0.75,0.25,0.0,0.0,0.0,0.75,0.08,0.2,1.08,899.86,-13.5,57.0
2.94,0.25,0.0,0.0,0.25,0.0,0.0,0.0,0.0,0.25,1.5,0.0,1.0,1.0,-0.17,0.58,0.45,54.23,-3.0,-72.0,7.0,1.75,8.75,13.0,11.0,4.5,1.75,0.75,0.25,1.0,0.0,0.0,0.75,0.08,0.2,1.39,887.23,-13.2,54.4
2.96,0.0,0.0,0.0,0.0,0.0,0.0,0.0,0.0,0.75,5.75,0.0,4.0,5.5,-2.05,0.39,3.77,132.25,-7.6,-94.3,7.25,2.25,8.0,11.5,10.5,2.0,1.25,0.75,0.25,1.25,0.0,0.0,0.25,0.33,0.27,1.64,843.67,-14.8,57.2
2.98,0.0,0.0,0.0,0.5,0.0,0.0,0.0,4.5,1.0,4.75,4.0,3.25,5.5,0.64,0.64,1.64,228.93,-5.7,-76.9,7.0,1.25,7.25,9.0,8.25,0.0,0.75,0.75,0.25,1.5,0.0,0.0,0.0,0.39,0.33,1.89,732.14,-17.2,57.5
3.0,0.0,0.0,0.0,0.5,0.0,0.0,0.0,3.25,0.75,3.0,0.0,2.0,3.5,-0.23,-0.11,0.89,260.0,-8.8,-73.6,5.75,0.75,5.25,5.5,5.25,0.0,0.75,0.75,0.25,0.0,0.0,0.0,0.25,0.52,0.45,2.45,554.73,-19.2,61.3
3.02,0.0,0.0,0.5,0.5,0.0,0.0,0.0,3.0,0.75,3.0,0.5,2.0,2.5,0.02,0.08,0.95,264.26,-5.6,-66.0,4.25,0.0,1.75,3.25,1.5,0.0,0.75,0.75,0.25,1.25,0.0,0.0,0.0,0.08,0.77,3.45,352.5,-17.9,49.2
3.04,0.0,0.0,0.0,0.5,0.0,0.0,0.25,4.25,1.0,4.75,2.5,3.0,3.0,-0.17,0.2,0.89,274.41,-5.7,-72.0,0.25,0.0,2.0,0.75,1.25,0.0,0.25,0.75,0.0,0.0,0.0,0.0,0.0,0.14,0.45,1.7,196.97,-16.1,45.5
3.06,0.0,0.0,0.0,0.75,2.0,0.75,0.5,4.75,1.75,4.75,3.75,3.25,4.25,-0.17,0.02,0.95,311.26,-4.8,-57.3,0.0,0.0,0.5,1.25,0.0,1.0,0.0,0.0,0.25,0.5,0.0,0.0,0.0,0.58,0.02,1.7,52.12,-4.4,26.2
3.08,1.25,0.0,0.0,0.75,2.5,1.5,0.25,5.0,1.75,4.75,3.75,3.0,4.25,-0.05,0.02,0.95,363.21,-4.0,-46.3,0.0,0.0,2.0,0.75,1.25,0.5,0.25,0.75,0.25,0.75,0.0,0.0,0.0,0.77,-0.48,1.52,0.0,-8.9,26.0
3.1,2.0,0.0,0.75,0.5,2.75,2.25,0.5,5.25,1.75,4.5,3.5,2.25,3.75,-0.11,0.02,0.89,411.37,-2.7,-34.5,0.0,0.0,2.0,0.0,0.25,0.0,0.0,0.0,0.0,0.75,0.0,0.0,0.0,0.64,-0.36,-0.05,0.0,-21.3,27.2
3.12,3.0,0.0,0.75,2.5,3.0,2.75,0.5,5.25,1.0,3.0,1.75,1.0,2.5,-0.17,0.02,0.95,424.7,-0.8,-8.6,0.0,0.0,0.5,0.0,1.25,0.0,0.0,0.75,0.0,0.0,0.0,0.0,0.0,0.83,-0.3,0.08,0.0,-0.8,29.4
3.14,4.5,1.0,1.25,4.5,4.5,3.75,1.0,5.25,1.0,1.5,1.25,1.0,1.5,-0.11,0.08,0.95,449.44,3.4,17.2,0.0,0.0,0.5,0.0,0.0,0.0,0.0,0.0,0.0,0.0,0.0,0.0,0.0,0.33,-0.42,0.77,0.0,-38.2,60.9
3.16,5.75,1.0,1.25,4.5,5.0,4.75,0.75,4.75,0.5,1.25,0.25,0.25,0.5,-0.17,0.08,1.02,458.92,4.1,34.4,0.0,0.0,0.75,0.0,0.0,0.0,0.0,0.0,0.0,0.0,0.0,0.0,0.0,0.02,0.2,0.77,0.0,-38.2,60.9
3.18,7.0,1.25,1.5,8.0,7.0,5.25,0.75,4.0,0.5,0.75,0.0,0.0,0.5,-0.17,0.14,1.02,511.89,6.4,45.2,0.0,0.0,0.75,1.25,0.0,0.5,0.0,0.0,0.0,0.5,0.0,0.0,0.0,-0.17,0.33,0.52,0.0,-10.9,33.1
3.2,7.25,2.25,2.5,8.0,7.75,5.25,0.5,3.25,0.0,0.5,0.0,0.0,0.5,-0.11,0.14,1.14,560.75,7.9,51.1,0.0,0.0,2.25,0.0,1.25,0.0,0.25,0.75,0.0,0.0,0.0,0.0,0.75,-0.17,0.64,0.33,0.0,-11.9,19.9
3.22,7.75,2.5,3.0,9.0,7.75,5.25,0.0,2.0,0.0,0.5,0.0,0.0,0.25,-0.17,0.14,1.27,620.84,9.6,56.4,0.0,0.0,0.5,0.0,0.0,0.0,0.0,0.0,0.0,0.0,0.0,0.0,0.0,0.02,0.95,0.2,0.0,-38.2,60.9
3.24,7.5,3.25,0.0,9.0,8.0,4.75,0.0,2.0,0.0,0.5,0.0,0.0,0.0,-0.17,0.14,1.08,640.24,7.6,58.1,0.0,0.0,0.5,0.0,0.0,0.0,0.0,0.0,0.25,0.0,0.0,0.0,0.0,0.27,1.27,-0.05,0.0,-29.8,28.7
3.26,8.0,4.0,1.5,9.0,8.25,4.0,0.0,1.75,0.0,0.5,0.0,0.0,0.5,-0.17,0.2,1.08,649.17,9.6,58.3,0.0,0.0,0.5,0.0,0.0,0.0,0.0,0.0,0.0,0.0,0.0,0.0,0.0,0.27,1.39,-0.23,1.96,-38.2,60.9
3.28,0.0,4.0,0.5,9.0,8.5,3.0,0.0,0.0,0.0,0.25,0.0,0.0,0.25,-0.17,0.27,1.08,562.27,4.7,57.2,0.0,0.0,0.5,0.5,0.0,0.0,0.0,0.0,0.0,0.0,0.0,0.0,0.0,0.27,1.08,-0.05,5.93,-27.6,59.4
3.3,0.0,4.0,0.5,8.0,0.0,0.0,0.0,0.0,0.0,0.25,0.0,0.0,0.25,-0.23,0.33,1.2,407.3,15.4,64.8,0.0,0.0,0.75,0.0,0.0,0.0,0.25,0.0,0.0,0.0,0.0,0.0,0.0,0.14,0.83,0.27,4.11,-37.5,56.4
3.32,8.75,4.5,0.0,7.25,0.0,0.0,0.0,0.0,0.0,0.25,0.0,0.0,0.5,-0.3,0.45,1.2,334.7,21.9,76.6,0.0,0.0,0.75,0.0,0.0,0.0,0.0,0.0,0.0,0.0,0.0,0.0,0.0,-0.17,0.89,0.39,6.13,-38.2,60.9
3.34,0.0,4.25,0.25,6.5,0.0,0.0,0.0,0.0,0.0,0.5,0.0,0.0,0.5,-0.48,0.64,1.27,254.2,13.4,60.1,0.0,0.0,0.5,0.0,0.0,0.0,0.0,0.0,0.0,0.0,0.0,0.0,0.0,-0.48,1.27,0.2,8.64,-38.2,60.9
3.36,0.0,4.0,0.0,4.5,0.0,0.0,0.0,0.0,0.0,0.5,0.0,0.0,0.0,-0.42,0.77,1.52,190.68,13.4,68.8,0.0,0.0,0.5,0.0,0.0,0.0,0.0,0.0,0.0,0.0,0.0,0.0,0.0,-0.61,1.33,0.27,6.96,-38.2,60.9
3.38,0.0,2.5,0.0,2.5,0.0,0.0,0.0,0.0,0.0,0.0,0.0,0.0,0.0,-0.55,0.77,1.64,107.05,14.9,78.2,0.0,0.0,0.5,0.0,0.0,0.0,0.0,0.0,0.0,0.0,0.0,0.0,0.0,-0.8,1.02,0.08,6.01,-38.2,60.9
3.4,0.0,2.0,0.25,2.25,0.0,0.0,0.0,0.0,0.0,0.5,0.0,0.0,0.0,-0.42,0.7,1.45,51.05,13.2,61.5,0.0,0.0,0.5,0.0,0.0,0.0,0.0,0.0,0.0,0.0,0.0,0.0,0.0,-1.67,0.7,0.83,3.79,-38.2,60.9
3.42,7.0,1.25,0.0,1.0,0.0,0.0,0.0,0.0,0.0,0.25,0.0,0.0,0.0,-3.05,0.89,3.52,26.73,28.3,88.6,0.0,0.25,0.5,0.75,0.0,0.5,0.0,0.0,0.25,0.25,0.0,0.0,0.0,-1.42,0.52,0.7,14.39,-9.7,35.6
3.44,6.0,1.0,0.0,0.5,0.0,0.0,0.0,0.0,0.0,0.25,0.0,0.0,0.0,-0.05,1.08,-0.05,26.78,28.9,89.3,0.0,0.5,2.25,1.0,1.25,0.5,0.25,0.75,0.25,0.75,0.0,0.0,0.0,-1.05,0.58,0.58,56.4,-10.4,33.2
3.46,0.0,0.0,0.0,0.0,0.0,0.0,0.0,0.0,0.25,0.0,0.0,0.0,0.0,-1.55,1.08,5.58,0.0,12.1,-38.5,0.0,0.0,2.25,0.0,1.25,0.0,0.25,0.0,0.0,0.0,0.0,0.0,0.0,-0.8,0.08,-0.36,76.58,-22.6,57.1
3.48,0.75,0.0,0.0,0.5,0.0,0.0,0.0,1.0,0.25,0.0,0.0,0.0,0.0,-2.3,1.77,-0.23,0.0,7.9,20.4,0.0,0.0,0.5,0.0,0.0,0.0,0.0,0.0,0.0,0.0,0.0,0.0,0.0,-3.92,3.52,1.83,67.34,-38.2,60.9
3.5,1.25,0.0,0.0,0.5,0.0,0.0,0.0,1.25,0.25,0.0,0.0,0.0,0.0,0.02,-0.3,1.45,0.0,10.0,27.1,0.0,0.0,0.5,0.0,0.0,0.0,0.0,0.0,0.0,0.0,0.0,0.0,0.0,-2.42,3.27,-0.61,46.25,-38.2,60.9
3.52,1.25,0.0,0.0,0.5,0.0,0.0,0.0,0.5,0.25,0.0,0.0,0.0,0.0,0.83,-3.8,2.08,0.0,18.2,47.4,0.0,0.0,0.5,0.0,0.0,0.0,0.0,0.0,0.0,0.0,0.0,0.0,0.0,0.64,0.64,-1.11,26.04,-38.2,60.9
3.54,0.5,0.0,0.0,0.5,0.0,0.0,0.0,0.0,0.0,0.0,0.0,0.0,0.0,0.27,-1.98,-0.61,0.0,25.5,76.7,0.0,0.0,0.5,0.0,0.0,0.0,0.0,0.0,0.0,0.0,0.0,0.0,0.0,1.2,0.45,-0.55,13.05,-38.2,60.9
3.56,1.25,0.0,0.0,0.5,0.0,0.0,0.0,0.0,0.0,0.0,0.0,0.0,0.0,-0.92,0.14,-1.92,0.0,29.4,85.5,0.0,0.0,0.5,0.0,0.0,0.0,0.0,0.0,0.0,0.0,0.0,0.0,0.0,1.45,0.64,-1.42,8.93,-38.2,60.9
3.58,1.25,0.0,0.0,0.5,0.0,0.0,0.0,0.0,0.0,0.25,0.0,0.0,0.0,0.02,2.64,-2.55,6.51,23.6,64.7,0.75,0.0,0.5,0.75,0.0,0.0,0.0,0.0,0.0,0.0,0.0,0.0,0.0,1.14,-0.8,-0.36,17.97,-28.8,72.6
3.6,0.25,0.0,0.0,0.5,0.0,0.0,0.0,0.0,0.0,0.0,0.0,0.0,0.0,0.33,1.77,-1.55,5.01,22.6,70.2,0.0,0.0,0.5,0.0,0.0,0.0,0.0,0.0,0.0,0.0,0.0,0.0,0.0,0.27,0.52,-0.55,14.54,-38.2,60.9
3.62,0.0,0.0,0.0,0.5,0.0,0.0,0.0,0.0,0.0,0.0,0.0,0.0,0.0,1.2,0.52,0.08,2.9,17.2,57.9,0.0,0.0,0.5,0.0,0.0,0.0,0.0,0.0,0.0,0.0,0.0,0.0,0.0,-1.73,0.95,-0.05,11.13,-38.2,60.9
3.64,0.0,0.0,0.0,0.5,0.0,0.0,0.0,0.0,0.0,0.0,0.0,0.0,0.0,1.39,0.02,0.33,0.0,17.2,57.9,0.0,0.0,0.5,0.0,0.0,0.0,0.0,0.0,0.0,0.0,0.0,0.0,0.0,-2.42,0.77,0.58,4.9,-38.2,60.9
3.66,0.0,0.0,0.0,0.5,0.0,0.0,0.25,0.0,0.0,0.0,0.0,0.0,0.0,0.02,1.39,-0.55,0.0,20.0,52.2,0.0,0.0,0.5,0.0,0.0,0.0,0.0,0.0,0.0,0.0,0.0,0.0,0.0,-2.36,1.7,0.39,0.69,-38.2,60.9
3.68,0.0,0.0,0.0,0.5,0.0,0.0,0.25,0.0,0.0,0.0,0.0,0.0,0.0,-1.36,1.39,-1.23,0.28,20.0,52.2,0.0,0.0,0.5,0.0,0.0,0.0,0.0,0.0,0.0,0.0,0.0,0.0,0.0,-1.8,1.58,0.33,0.0,-38.2,60.9
3.7,0.0,0.0,0.0,0.5,0.0,0.0,0.25,0.0,0.25,0.0,0.0,0.0,0.0,-1.05,0.77,-0.61,8.38,17.8,27.0,0.0,0.0,0.5,0.0,0.0,0.0,0.0,0.0,0.0,0.0,0.0,0.0,0.0,-0.8,0.7,0.27,5.63,-38.2,60.9
3.72,0.25,0.0,0.0,0.5,0.0,0.0,0.25,0.0,0.25,0.0,0.25,0.0,0.0,0.02,0.7,0.02,10.68,19.5,21.0,0.0,0.0,0.5,0.0,0.0,0.0,0.0,0.0,0.0,0.0,0.0,0.0,0.0,-0.42,0.2,0.33,9.21,-38.2,60.9
3.74,0.25,0.0,0.0,0.5,0.0,0.0,0.25,0.0,0.25,0.0,0.0,0.0,0.25,-0.05,0.58,-0.11,14.8,14.8,13.5,0.0,0.0,0.5,0.0,0.0,0.0,0.0,0.0,0.0,0.0,0.0,0.0,0.0,-0.55,0.27,0.33,8.67,-38.2,60.9
3.76,0.5,0.0,0.0,0.5,0.0,0.0,0.0,0.0,0.25,0.25,0.0,0.0,0.0,-0.05,0.83,-0.3,20.22,16.4,32.0,0.0,0.0,0.5,0.5,0.0,0.0,0.0,0.0,0.25,0.25,0.0,0.0,0.0,-1.05,0.33,0.52,14.18,-18.1,21.7
3.78,0.75,0.0,0.0,0.5,0.0,0.0,0.25,0.0,0.0,0.0,0.0,0.0,0.0,-0.67,0.95,-0.42,23.51,27.8,76.0,0.0,0.0,0.75,0.0,1.25,0.0,0.25,0.75,0.0,0.0,0.0,0.0,0.0,-1.17,0.02,0.27,28.51,-5.2,31.9
3.8,1.25,0.0,0.0,0.5,0.0,0.0,0.0,0.0,0.25,0.0,0.0,0.0,0.0,-1.05,0.83,-0.36,28.15,27.2,69.7,0.0,0.0,0.5,0.0,0.0,0.0,0.0,0.0,0.0,0.0,0.0,0.0,0.0,-1.23,-0.42,0.2,26.77,-38.2,60.9
3.82,0.75,0.0,0.0,0.5,0.0,0.0,0.0,0.0,0.25,0.0,0.0,0.0,0.25,-1.17,0.83,-0.42,30.71,19.0,35.3,0.0,0.0,0.5,0.0,0.0,0.0,0.0,0.0,0.0,0.0,0.0,0.0,0.0,-1.3,-0.73,0.14,23.0,-38.2,60.9
3.84,1.25,0.0,0.0,0.5,0.0,0.0,0.0,0.0,0.25,0.25,0.0,0.0,0.25,-0.92,0.83,-0.17,37.71,18.5,35.9,0.0,0.0,0.5,0.0,0.0,0.0,0.0,0.0,0.0,0.0,0.0,0.0,0.0,-1.11,-0.67,0.39,16.94,-38.2,60.9
3.86,0.0,0.0,0.0,0.5,0.0,0.0,0.0,0.0,0.25,0.0,0.0,0.0,0.25,-0.73,0.7,-0.11,32.94,8.2,-7.2,0.0,0.0,0.5,0.0,0.0,0.0,0.0,0.0,0.0,0.0,0.0,0.0,0.0,-0.92,-0.3,0.52,12.46,-38.2,60.9
3.88,0.5,0.0,0.0,0.5,0.0,0.0,0.0,0.0,0.0,0.0,0.0,0.0,0.0,-0.55,0.7,-0.05,28.64,25.5,76.7,0.0,0.0,0.5,0.0,0.0,0.0,0.0,0.0,0.0,0.0,0.0,0.0,0.0,-1.05,0.02,0.58,9.21,-38.2,60.9
3.9,0.0,0.0,0.0,0.25,0.0,0.0,0.0,0.0,0.25,0.0,0.0,0.0,0.25,-0.48,0.58,-0.05,20.46,5.2,-29.5,0.0,0.0,0.5,0.0,0.0,0.0,0.0,0.0,0.0,0.0,0.0,0.0,0.0,-1.17,0.02,0.64,9.21,-38.2,60.9
3.92,0.0,0.0,0.0,0.5,0.0,0.0,0.0,0.0,0.0,0.0,0.0,0.0,0.25,-0.67,0.52,-0.17,15.82,7.0,2.6,0.0,0.0,0.5,0.0,0.0,0.0,0.0,0.0,0.0,0.0,0.0,0.0,0.0,-1.17,-0.11,0.64,8.88,-38.2,60.9
3.94,0.0,0.0,0.0,0.5,0.0,0.0,0.0,0.0,0.0,0.25,0.0,0.0,0.0,-0.86,0.77,-0.23,11.96,6.5,14.7,0.0,0.0,0.5,0.0,0.0,0.0,0.0,0.0,0.0,0.0,0.0,0.0,0.0,-1.3,-0.36,0.45,7.84,-38.2,60.9
3.96,0.0,0.0,0.0,0.25,0.0,0.0,0.0,0.0,0.0,0.25,0.0,0.0,0.25,-0.98,0.7,-0.3,10.54,-3.8,-41.5,0.0,0.0,0.5,0.0,0.0,0.0,0.0,0.0,0.0,0.0,0.0,0.0,0.0,-1.23,-0.36,0.33,7.24,-38.2,60.9
3.98,0.25,0.0,0.0,0.5,0.0,0.0,0.0,0.0,0.0,0.25,0.0,0.0,0.0,-0.92,0.7,-0.23,11.48,13.1,34.0,0.0,0.0,0.5,0.0,0.0,0.0,0.0,0.0,0.0,0.0,0.0,0.0,0.0,-0.92,-0.42,0.39,6.64,-38.2,60.9
4.0,0.75,0.0,0.0,0.5,0.0,0.0,0.0,0.0,0.0,0.0,0.0,0.0,0.25,-0.73,0.7,-0.17,15.39,20.2,47.6,0.0,0.0,0.5,0.0,0.0,0.0,0.0,0.0,0.0,0.0,0.0,0.0,0.0,-0.8,-0.23,0.33,6.04,-38.2,60.9
4.02,0.25,0.0,0.0,0.25,0.0,0.0,0.0,0.0,0.0,0.0,0.0,0.0,0.0,-0.67,0.7,0.02,13.6,25.5,76.7,0.0,0.0,0.25,0.0,0.0,0.0,0.0,0.0,0.0,0.0,0.0,0.0,0.0,-0.8,-0.11,0.33,4.99,-38.2,60.9
4.04,0.5,0.0,0.0,0.0,0.0,0.0,0.0,0.0,0.0,0.0,0.0,0.0,0.0,-0.67,0.77,0.02,11.21,34.9,97.9,0.0,0.0,0.25,0.0,0.0,0.0,0.0,0.0,0.0,0.0,0.0,0.0,0.0,-0.8,-0.05,0.27,6.11,-38.2,60.9
4.06,0.5,0.0,0.0,0.0,0.0,0.0,0.0,0.0,0.0,0.0,0.0,0.0,0.0,-0.67,0.83,0.02,8.54,34.9,97.9,0.0,0.0,0.5,0.0,0.0,0.0,0.0,0.0,0.0,0.0,0.0,0.0,0.0,-0.8,-0.05,0.27,6.34,-38.2,60.9
4.08,0.5,0.0,0.0,0.25,0.0,0.0,0.0,0.0,0.0,0.0,0.0,0.0,0.0,-0.67,0.77,0.02,8.85,28.6,83.5,0.0,0.0,0.5,0.0,0.0,0.0,0.0,0.0,0.0,0.0,0.0,0.0,0.0,-0.73,-0.11,0.27,7.15,-38.2,60.9
4.1,0.5,0.0,0.0,0.0,0.0,0.0,0.0,0.0,0.0,0.0,0.0,0.0,0.0,-0.67,0.77,0.02,9.1,34.9,97.9,0.0,0.0,0.5,0.0,0.0,0.0,0.0,0.0,0.0,0.0,0.0,0.0,0.0,-0.73,-0.17,0.27,8.18,-38.2,60.9
4.12,0.5,0.0,0.0,0.0,0.0,0.0,0.0,0.0,0.0,0.0,0.0,0.0,0.5,-0.67,0.77,-0.05,11.53,9.4,-11.0,0.0,0.0,0.5,0.0,0.0,0.0,0.0,0.0,0.0,0.0,0.0,0.0,0.0,-0.67,-0.3,0.33,8.87,-38.2,60.9
4.14,0.5,0.0,0.0,0.0,0.0,0.0,0.0,0.0,0.0,0.25,0.0,0.0,0.25,-0.73,0.77,0.02,13.33,9.1,-1.5,0.0,0.0,0.5,0.0,0.0,0.0,0.0,0.0,0.0,0.0,0.0,0.0,0.0,-0.8,-0.3,0.45,9.21,-38.2,60.9
4.16,0.5,0.0,0.0,0.0,0.0,0.0,0.0,0.0,0.0,0.0,0.0,0.0,0.0,-0.73,0.77,0.02,12.29,34.9,97.9,0.0,0.0,0.5,0.0,0.0,0.0,0.0,0.0,0.0,0.0,0.0,0.0,0.0,-0.86,-0.55,0.64,9.21,-38.2,60.9
4.18,0.5,0.0,0.0,0.0,0.0,0.0,0.0,0.0,0.0,0.25,0.0,0.0,0.5,-0.8,0.7,0.02,14.26,4.3,-24.1,0.0,0.0,0.5,0.0,0.0,0.0,0.0,0.0,0.0,0.0,0.0,0.0,0.0,-0.98,-0.67,0.64,9.3,-38.2,60.9
4.2,0.25,0.0,0.0,0.25,0.0,0.0,0.0,0.0,0.0,0.0,0.0,0.0,0.25,-0.86,0.7,-0.05,13.68,12.1,12.9,0.0,0.0,0.5,0.0,0.0,0.0,0.0,0.0,0.0,0.0,0.0,0.0,0.0,-1.11,-0.67,0.64,9.44,-38.2,60.9
4.22,0.25,0.0,0.0,0.25,0.0,0.0,0.0,0.0,0.0,0.0,0.0,0.0,0.5,-0.8,0.7,0.08,14.73,5.5,-18.3,0.0,0.0,0.5,0.0,0.0,0.0,0.0,0.0,0.0,0.0,0.0,0.0,0.0,-1.05,-0.61,0.64,9.53,-38.2,60.9
4.24,0.25,0.0,0.0,0.0,0.0,0.0,0.0,0.0,0.0,0.0,0.0,0.0,0.5,-0.8,0.77,0.02,13.81,1.4,-45.0,0.0,0.0,0.5,0.0,0.0,0.0,0.0,0.0,0.0,0.0,0.0,0.0,0.0,-1.05,-0.55,0.58,9.62,-38.2,60.9
4.26,0.0,0.0,0.0,0.25,0.0,0.0,0.0,0.0,0.0,0.0,0.0,0.0,0.0,-0.73,0.95,-0.05,11.76,17.2,57.9,0.0,0.0,0.5,0.0,0.0,0.0,0.0,0.0,0.0,0.0,0.0,0.0,0.0,-0.92,-0.42,0.45,9.71,-38.2,60.9
4.28,0.25,0.0,0.0,0.5,0.0,0.0,0.0,0.0,0.0,0.0,0.0,0.0,0.25,-0.61,0.95,-0.23,12.41,13.4,24.5,0.0,0.0,0.25,0.0,0.0,0.0,0.0,0.0,0.0,0.0,0.0,0.0,0.0,-0.73,-0.36,0.33,7.88,-38.2,60.9
4.3,1.0,0.0,0.0,0.25,0.0,0.0,0.0,0.0,0.0,0.0,0.0,0.0,0.0,-0.55,0.95,-0.17,15.42,31.0,89.1,0.0,0.0,0.5,0.0,0.0,0.0,0.0,0.0,0.0,0.0,0.0,0.0,0.0,-0.61,-0.36,0.52,7.72,-38.2,60.9
4.32,0.25,0.0,0.0,0.5,0.0,0.0,0.0,0.0,0.0,0.0,0.0,0.0,0.25,-0.42,0.95,0.08,17.42,13.4,24.5,0.0,0.0,0.5,0.0,0.0,0.0,0.0,0.0,0.0,0.0,0.0,0.0,0.0,-0.48,-0.3,0.45,7.83,-38.2,60.9
4.34,0.0,0.0,0.0,0.25,0.0,0.0,0.0,0.0,0.0,0.0,0.0,0.0,0.0,-0.8,0.77,0.14,14.19,17.2,57.9,0.0,0.0,0.5,0.0,0.0,0.0,0.0,0.0,0.0,0.0,0.0,0.0,0.0,-0.86,-0.17,0.58,8.52,-38.2,60.9
4.36,0.0,0.0,0.0,0.5,0.0,0.0,0.0,0.0,0.0,0.0,0.0,0.0,0.0,-0.98,0.58,0.08,11.64,17.2,57.9,0.0,0.0,0.25,0.0,0.0,0.0,0.0,0.0,0.0,0.0,0.0,0.0,0.0,-1.11,-0.11,0.52,7.26,-38.2,60.9
4.38,0.25,0.0,0.0,0.5,0.0,0.0,0.0,0.0,0.0,0.0,0.0,0.0,0.25,-0.8,0.7,-0.05,11.82,13.4,24.5,0.0,0.0,0.5,0.0,0.0,0.0,0.0,0.0,0.0,0.0,0.0,0.0,0.0,-1.36,-0.05,0.64,7.72,-38.2,60.9
4.4,0.0,0.0,0.0,0.5,0.0,0.0,0.0,0.0,0.0,0.0,0.0,0.0,0.25,-0.55,0.7,0.02,12.1,7.0,2.6,0.0,0.0,0.5,0.0,0.0,0.0,0.0,0.0,0.0,0.0,0.0,0.0,0.0,-1.42,-0.05,0.83,7.83,-38.2,60.9
4.42,0.0,0.0,0.0,0.25,0.0,0.0,0.0,0.0,0.0,0.0,0.0,0.0,0.25,-0.48,0.77,-0.17,10.99,1.8,-25.2,0.0,0.0,0.5,0.0,0.0,0.0,0.0,0.0,0.0,0.0,0.0,0.0,0.0,-1.36,0.02,0.64,8.52,-38.2,60.9
4.44,0.25,0.0,0.0,0.25,0.0,0.0,0.0,0.0,0.0,0.0,0.0,0.0,0.0,-0.55,0.89,-0.17,10.38,25.5,76.7,0.0,0.0,0.5,0.0,0.0,0.0,0.0,0.0,0.0,0.0,0.0,0.0,0.0,-0.98,-0.23,0.45,8.96,-38.2,60.9
4.46,0.0,0.0,0.0,0.25,0.0,0.0,0.0,0.0,0.0,0.0,0.0,0.0,0.25,-0.67,0.77,-0.11,8.7,1.8,-25.2,0.0,0.0,0.5,0.0,0.0,0.0,0.0,0.0,0.0,0.0,0.0,0.0,0.0,-0.61,-0.42,0.39,9.35,-38.2,60.9
4.48,0.0,0.0,0.0,0.25,0.0,0.0,0.0,0.0,0.0,0.0,0.0,0.0,0.25,-0.73,0.7,0.02,7.7,1.8,-25.2,0.0,0.0,0.5,0.0,0.0,0.0,0.0,0.0,0.0,0.0,0.0,0.0,0.0,-0.55,-0.42,0.33,9.39,-38.2,60.9
4.5,0.0,0.0,0.0,0.25,0.0,0.0,0.0,0.0,0.0,0.0,0.0,0.0,0.25,-0.86,0.64,0.02,7.23,1.8,-25.2,0.0,0.0,0.5,0.0,0.0,0.0,0.0,0.0,0.0,0.0,0.0,0.0,0.0,-0.61,-0.48,0.27,9.44,-38.2,60.9
4.52,0.25,0.0,0.0,0.25,0.0,0.0,0.0,0.0,0.0,0.0,0.0,0.0,0.0,-0.8,0.64,0.02,6.98,25.5,76.7,0.0,0.0,0.5,0.0,0.0,0.0,0.0,0.0,0.0,0.0,0.0,0.0,0.0,-0.86,-0.61,0.45,9.58,-38.2,60.9
4.54,0.0,0.0,0.0,0.0,0.0,0.0,0.0,0.0,0.0,0.0,0.0,0.0,0.0,-0.8,0.64,-0.05,4.2,0.0,0.0,0.0,0.0,0.5,0.0,0.0,0.0,0.0,0.0,0.0,0.0,0.0,0.0,0.0,-0.98,-0.55,0.52,9.35,-38.2,60.9
4.56,0.75,0.0,0.0,0.25,0.0,0.0,0.25,0.0,0.0,0.0,0.0,0.0,0.0,-0.73,0.7,-0.05,9.11,30.4,80.4,0.0,0.0,0.25,0.0,0.0,0.0,0.0,0.0,0.0,0.0,0.0,0.0,0.0,-1.11,-0.48,0.64,7.79,-38.2,60.9
4.58,0.5,0.0,0.0,0.5,0.0,0.0,0.25,0.0,0.0,0.0,0.0,0.0,0.0,-0.73,0.77,-0.11,13.5,26.3,71.4,0.0,0.0,0.0,0.0,0.0,0.0,0.0,0.0,0.0,0.0,0.0,0.0,0.0,-0.98,-0.42,0.64,4.73,0.0,0.0
4.6,0.0,0.0,0.0,0.0,0.0,0.0,0.0,0.0,0.0,0.0,0.0,0.0,0.0,-0.67,0.77,-0.11,10.86,0.0,0.0,0.0,0.0,0.25,0.0,0.0,0.0,0.0,0.0,0.0,0.0,0.0,0.0,0.0,-0.92,-0.42,0.58,3.51,-38.2,60.9
4.62,0.25,0.0,0.0,0.5,0.0,0.0,0.25,0.0,0.0,0.0,0.0,0.0,0.0,-0.67,0.77,-0.05,12.12,24.0,64.3,0.0,0.0,0.5,0.0,0.0,0.0,0.0,0.0,0.0,0.0,0.0,0.0,0.0,-0.8,-0.42,0.52,4.27,-38.2,60.9
4.64,0.25,0.0,0.0,0.5,0.0,0.0,0.0,0.0,0.0,0.0,0.0,0.0,0.0,-0.67,0.77,0.02,12.5,22.6,70.2,0.0,0.0,0.5,0.0,0.0,0.0,0.0,0.0,0.0,0.0,0.0,0.0,0.0,-0.73,-0.42,0.45,6.11,-38.2,60.9
4.66,0.5,0.0,0.0,0.25,0.0,0.0,0.0,0.0,0.0,0.0,0.0,0.0,0.0,-0.73,0.77,0.02,13.73,28.6,83.5,0.0,0.0,0.5,0.0,0.0,0.0,0.0,0.0,0.0,0.0,0.0,0.0,0.0,-0.73,-0.42,0.45,7.83,-38.2,60.9
4.68,0.5,0.0,0.0,0.25,0.0,0.0,0.0,0.0,0.0,0.0,0.0,0.0,0.0,-0.8,0.77,0.02,13.86,28.6,83.5,0.0,0.0,0.25,0.0,0.0,0.0,0.0,0.0,0.0,0.0,0.0,0.0,0.0,-0.8,-0.42,0.45,7.26,-38.2,60.9
