time,left pressure 0[N/cm²],left pressure 1[N/cm²],left pressure 2[N/cm²],left pressure 3[N/cm²],left pressure 4[N/cm²],left pressure 5[N/cm²],left pressure 6[N/cm²],left pressure 7[N/cm²],left pressure 8[N/cm²],left pressure 9[N/cm²],left pressure 10[N/cm²],left pressure 11[N/cm²],left pressure 12[N/cm²],left acceleration X[g],left acceleration Y[g],left acceleration Z[g],left total force[N],left center of pressure X[mm],left center of pressure Y[mm],right pressure 0[N/cm²],right pressure 1[N/cm²],right pressure 2[N/cm²],right pressure 3[N/cm²],right pressure 4[N/cm²],right pressure 5[N/cm²],right pressure 6[N/cm²],right pressure 7[N/cm²],right pressure 8[N/cm²],right pressure 9[N/cm²],right pressure 10[N/cm²],right pressure 11[N/cm²],right pressure 12[N/cm²],right acceleration X[g],right acceleration Y[g],right acceleration Z[g],right total force[N],right center of pressure X[mm],right center of pressure Y[mm]
0.02,1.25,0.25,1.0,2.0,0.0,0.0,0.0,0.0,0.25,0.25,0.0,0.0,0.25,1.02,2.83,1.27,91.6,21.7,50.3,2.75,0.75,0.0,2.75,0.0,1.75,0.25,0.0,0.25,1.0,0.0,0.0,0.0,0.02,0.58,2.14,127.02,-11.0,50.7
0.04,0.25,0.25,1.0,1.75,0.0,0.0,0.0,0.0,0.25,0.25,0.0,0.0,0.5,1.77,3.89,0.7,86.25,17.0,30.3,1.25,0.5,0.75,2.5,0.25,1.75,0.25,0.25,0.5,1.0,1.25,0.0,0.0,0.45,0.2,1.83,33.08,-8.5,24.1
0.06,0.25,0.0,1.0,1.75,0.0,0.0,0.0,0.0,0.25,0.5,0.0,0.0,0.5,3.08,4.64,0.64,78.45,15.4,20.1,1.25,0.75,0.75,0.75,1.25,0.0,0.25,0.0,0.5,0.0,1.25,0.0,0.0,0.83,-0.36,1.64,0.0,-16.5,37.4
0.08,0.0,0.0,1.0,1.75,0.0,0.0,0.0,0.0,0.5,1.0,0.75,0.0,0.5,-0.05,-0.3,0.58,77.66,11.0,-6.6,0.0,0.25,0.0,0.0,0.25,0.0,0.0,0.0,0.25,0.5,0.0,0.0,0.0,0.83,-0.48,0.64,0.0,1.9,-4.8
0.1,0.5,0.25,1.0,1.25,0.0,0.0,0.0,0.0,0.25,1.25,0.0,2.0,1.5,-0.8,-0.73,2.77,90.86,7.5,-34.8,0.0,0.0,0.0,0.0,0.0,0.0,0.0,0.0,0.0,0.0,0.0,0.0,0.0,0.77,-0.98,0.52,0.0,0.0,0.0
0.12,0.0,0.25,1.0,0.0,0.0,0.0,0.0,0.0,0.5,4.5,0.5,3.75,4.25,0.14,0.27,1.14,146.17,-2.9,-80.5,0.0,0.25,0.25,2.25,0.25,1.75,0.25,0.0,0.5,0.5,0.25,0.0,0.0,0.64,-0.61,1.14,0.0,-3.1,28.8
0.14,0.0,0.0,0.0,0.25,0.0,0.0,0.0,0.0,0.75,6.0,1.75,5.0,6.0,-0.36,0.64,3.95,219.53,-5.1,-91.6,0.5,0.25,0.0,0.5,0.0,0.0,0.0,0.0,0.0,0.0,0.0,0.0,0.0,0.2,-0.3,0.52,0.0,-22.9,81.3
0.16,0.0,0.0,0.0,0.0,0.0,0.0,0.25,5.25,0.75,6.5,6.0,5.0,6.0,-0.05,0.45,1.08,314.77,-5.2,-80.6,1.25,1.0,0.0,2.0,0.25,1.75,0.25,0.0,0.0,0.0,0.75,0.0,0.25,0.14,-0.3,0.39,0.0,-8.0,44.9
0.18,1.0,0.25,0.0,2.0,0.0,0.0,0.25,5.25,0.75,5.75,0.0,5.0,6.0,-0.11,0.08,1.02,377.81,-5.0,-62.7,0.0,0.0,0.0,0.0,0.0,0.0,0.0,0.0,0.0,0.0,0.0,0.0,0.0,0.33,-0.23,0.7,0.0,0.0,0.0
0.2,0.0,0.0,0.0,0.25,0.0,0.0,0.5,5.0,0.75,5.75,5.25,4.25,6.0,-0.17,0.08,0.95,434.68,-5.2,-78.6,0.5,0.5,0.5,1.0,0.25,1.5,0.0,0.0,0.25,1.0,0.0,0.0,0.0,0.45,-0.23,0.77,18.26,-2.6,30.4
0.22,0.0,0.0,0.0,2.0,0.0,0.25,0.0,5.5,0.75,5.75,0.0,4.25,5.75,-0.17,0.08,0.95,433.43,-7.6,-67.9,1.0,0.75,1.75,1.25,2.25,1.5,0.25,0.0,0.5,1.0,0.25,0.0,0.5,0.39,0.02,0.77,76.27,-7.3,33.4
0.24,0.0,0.0,0.0,1.75,0.0,1.0,0.5,5.5,1.25,6.0,5.75,4.25,5.5,-0.17,0.08,0.95,464.68,-4.2,-66.5,0.0,0.0,1.5,0.0,1.75,0.0,0.5,0.0,0.25,0.0,0.0,0.0,0.0,0.39,0.14,0.83,94.34,-15.5,49.2
0.26,0.0,0.25,0.0,2.0,0.0,1.25,0.5,5.5,1.75,6.25,0.0,4.25,5.75,-0.17,0.08,0.95,457.27,-7.0,-61.0,0.5,0.75,0.25,1.25,0.5,1.5,0.25,0.0,0.5,1.0,0.25,0.0,0.25,0.27,0.2,1.02,105.95,-2.5,22.4
0.28,0.0,0.25,0.0,2.0,0.0,0.75,0.75,6.0,1.75,6.0,6.0,4.25,5.5,-0.11,0.02,0.95,492.35,-3.5,-63.8,0.75,0.5,1.25,1.25,1.5,1.25,0.25,0.0,0.5,1.0,0.5,0.0,0.5,0.27,0.27,1.27,122.77,-6.6,23.8
0.3,0.0,0.5,0.0,2.25,1.0,1.25,0.5,6.0,2.25,6.0,6.0,4.0,5.5,-0.17,0.02,0.95,516.19,-3.5,-56.1,1.0,0.75,1.75,1.0,1.25,2.0,0.25,0.0,0.5,0.75,0.75,0.25,0.5,0.27,0.45,1.45,149.84,-7.6,25.0
0.32,0.0,0.75,0.0,2.75,1.25,1.75,0.75,6.25,2.75,5.75,6.0,4.0,5.25,-0.17,0.08,0.95,546.28,-2.9,-50.3,0.75,0.75,1.75,1.25,2.25,2.0,0.25,0.0,0.5,1.0,1.0,0.0,0.5,0.27,0.58,1.58,173.76,-5.8,25.7
0.34,0.5,0.0,0.0,4.0,2.25,2.0,0.0,6.25,2.75,5.75,6.0,4.0,5.25,-0.17,0.02,0.95,563.84,-2.5,-45.0,0.5,0.0,1.5,0.0,1.0,0.0,0.25,0.0,0.0,0.0,1.0,0.0,0.5,0.45,0.64,1.7,156.84,-16.5,15.8
0.36,0.25,1.0,0.0,4.25,2.75,2.25,0.0,6.25,3.0,5.5,5.75,3.25,4.25,-0.17,0.02,0.95,565.39,-2.2,-36.0,0.0,0.0,0.0,0.0,0.25,0.0,0.0,0.0,0.0,0.0,0.0,0.0,0.0,0.58,0.7,1.89,107.77,3.3,53.4
0.38,0.5,1.0,1.75,5.5,2.75,2.5,0.75,6.25,3.25,4.5,5.5,3.0,4.0,-0.11,0.02,0.95,570.47,0.8,-25.0,0.0,0.0,0.0,0.0,0.0,0.0,0.0,0.0,0.0,0.0,0.0,0.0,0.0,0.52,0.95,2.2,54.29,0.0,0.0
0.4,1.25,1.0,2.25,6.25,4.5,3.0,1.0,6.0,3.25,4.5,5.25,2.0,2.75,-0.11,0.08,0.95,587.63,2.0,-11.2,0.0,0.0,0.0,0.0,0.0,0.25,0.0,0.0,0.0,0.0,0.0,0.0,0.0,0.27,1.39,2.2,11.71,22.9,34.0
0.42,2.0,1.0,2.5,7.5,5.25,3.0,1.25,6.0,3.0,3.0,4.0,1.75,2.0,-0.11,0.08,0.95,615.47,3.8,1.2,0.0,0.0,0.0,0.0,0.0,0.0,0.0,0.0,0.0,0.0,0.0,0.0,0.0,-0.23,2.08,1.2,0.0,0.0,0.0
0.44,2.25,0.75,2.75,7.75,5.25,3.0,1.25,5.5,2.5,2.25,3.75,1.0,1.5,-0.11,0.08,0.95,615.66,4.9,8.3,0.75,0.25,0.0,0.5,0.0,2.0,0.0,0.0,0.25,1.0,0.0,0.0,0.0,-0.05,2.39,0.64,4.1,4.1,22.4
0.46,2.25,1.25,3.0,8.75,6.0,3.0,1.25,5.25,2.25,1.75,2.5,1.0,1.5,-0.11,0.08,0.95,616.41,5.5,16.2,1.25,0.5,1.0,1.25,1.25,1.25,0.25,0.0,0.5,0.5,0.25,0.0,0.25,-0.98,3.2,0.77,46.81,-9.5,38.9
0.48,2.25,1.25,3.0,9.0,6.75,3.75,1.25,5.25,2.25,1.25,2.5,1.0,1.5,-0.11,0.08,0.95,614.58,5.1,18.7,2.0,0.75,1.0,0.5,1.5,1.75,0.25,0.0,0.25,1.0,0.5,0.0,0.0,-2.23,4.27,0.45,96.36,-8.0,40.6
0.5,1.75,1.5,3.0,10.0,7.0,3.75,1.5,4.75,1.75,1.25,2.25,1.0,1.25,-0.11,0.08,0.95,620.04,5.4,22.3,1.0,0.75,1.0,0.5,1.5,1.75,0.25,0.0,0.25,1.0,0.75,0.0,0.5,-2.67,3.27,0.64,123.73,-4.2,23.4
0.52,2.25,2.25,3.0,10.5,7.75,3.75,1.5,4.75,1.75,1.25,1.75,1.0,1.0,-0.11,0.08,0.95,633.31,5.9,27.4,1.25,1.0,0.5,0.5,0.5,1.0,0.25,0.0,0.5,2.5,1.25,1.25,1.5,0.7,-0.73,0.7,149.49,-2.7,-21.9
0.54,2.25,2.5,4.5,11.5,8.0,4.25,1.5,4.5,1.0,1.25,1.5,1.0,1.0,-0.11,0.08,0.95,666.54,6.9,31.9,1.25,1.0,0.75,0.25,1.25,1.75,0.25,0.25,0.25,4.0,2.25,5.25,6.0,0.77,-1.42,1.39,226.04,1.2,-53.9
0.56,2.75,2.5,4.5,11.5,8.25,4.5,1.5,4.5,0.75,1.25,1.5,0.75,0.75,-0.11,0.08,0.95,697.57,7.1,34.6,1.5,1.0,0.75,0.75,0.0,2.0,0.5,1.0,0.5,7.5,3.75,6.0,8.0,-1.3,0.89,2.45,325.93,2.4,-62.4
0.58,3.5,2.5,5.0,12.5,8.5,4.5,1.5,4.0,0.25,1.25,1.25,0.75,1.0,-0.11,0.14,0.95,732.04,8.1,37.8,0.0,0.0,1.25,0.0,0.25,1.25,1.0,2.75,0.5,7.75,5.5,5.75,8.0,0.7,0.08,1.83,449.09,3.8,-74.5
0.6,3.75,2.5,5.5,12.5,8.5,4.25,1.5,3.75,0.0,1.25,1.25,0.25,0.5,-0.17,0.14,0.95,751.69,9.0,42.4,1.25,0.0,0.0,0.5,0.25,1.5,0.0,3.0,1.0,8.0,6.25,5.5,7.5,0.27,0.39,1.08,550.91,4.0,-70.9
0.62,3.75,3.0,5.75,13.5,8.75,4.0,1.25,3.75,0.0,1.25,0.5,0.25,0.5,-0.17,0.14,0.95,769.09,9.4,45.4,1.25,0.0,1.0,0.75,2.5,2.75,0.25,4.25,1.0,8.75,7.0,6.0,8.0,0.02,0.08,1.02,653.82,3.5,-56.6
0.64,3.5,4.0,6.0,13.5,9.0,4.5,1.25,3.75,0.0,1.0,1.25,0.25,0.5,-0.17,0.14,0.95,793.45,9.3,45.1,1.25,1.0,1.25,0.5,2.25,2.25,0.25,5.5,1.0,8.75,7.25,6.0,8.0,0.14,0.08,0.95,727.9,3.1,-54.3
0.66,0.0,4.0,6.0,13.5,9.5,4.25,0.75,3.5,0.25,1.0,1.0,0.25,0.5,-0.17,0.14,1.02,791.36,7.5,42.3,1.25,0.75,1.0,0.75,2.5,2.5,0.25,5.5,1.0,8.75,7.5,6.0,8.0,0.14,0.08,0.95,783.25,3.3,-54.1
0.68,4.25,4.0,5.75,14.0,9.5,4.5,0.75,3.5,0.0,1.0,1.0,0.0,0.5,-0.17,0.14,1.02,815.85,9.4,47.9,1.0,1.0,1.5,0.75,2.75,4.25,0.25,5.5,1.0,8.75,7.5,6.0,8.0,0.08,0.08,0.95,821.97,3.7,-49.2
0.7,0.0,4.25,6.75,14.5,9.5,3.75,0.0,2.0,0.0,0.75,0.25,0.25,0.25,-0.17,0.2,1.02,786.02,9.4,50.2,1.0,0.5,1.75,1.25,2.75,4.0,0.5,5.5,1.25,8.75,7.5,6.0,8.0,0.08,0.08,0.95,844.11,3.1,-49.2
0.72,0.0,0.0,3.5,4.75,4.75,0.0,2.25,1.5,0.0,0.0,0.0,0.0,0.0,-0.17,0.2,1.02,568.07,12.9,46.4,1.25,0.5,2.0,2.0,3.75,4.5,0.75,5.5,1.5,8.5,7.5,6.0,8.0,0.08,0.08,0.95,862.6,2.4,-42.9
0.74,0.0,0.0,0.0,7.75,0.0,0.0,0.0,0.0,0.0,0.0,0.0,0.0,0.0,-0.23,0.27,1.14,340.81,17.2,57.9,1.5,1.0,2.25,1.5,3.75,4.0,0.75,5.5,1.5,8.5,7.0,5.5,7.75,0.14,0.08,0.95,856.2,2.1,-40.7
0.76,0.5,0.0,0.0,7.0,0.0,0.0,0.0,0.0,0.0,0.5,0.0,0.25,0.0,-0.23,0.33,1.2,191.65,16.0,47.4,2.0,0.75,2.5,2.25,4.25,4.5,0.75,5.5,1.75,8.25,7.0,5.5,7.5,0.08,0.08,0.95,847.87,1.3,-36.0
0.78,7.5,3.0,6.0,11.0,7.25,0.0,0.0,0.0,0.25,0.25,0.0,0.0,0.25,-0.36,0.33,1.33,230.75,18.5,65.7,3.0,0.75,2.5,2.25,4.25,4.5,1.0,5.5,1.75,8.0,7.0,5.25,7.5,0.08,0.08,0.95,824.42,0.6,-33.0
0.8,7.0,2.5,4.5,10.0,0.0,0.0,0.0,2.0,0.5,0.0,0.0,0.0,0.25,-0.55,0.45,1.52,260.75,21.7,61.5,3.25,1.25,2.75,2.5,4.5,4.75,1.25,5.5,1.75,7.75,7.0,5.0,6.75,0.08,0.08,0.95,811.84,0.0,-27.7
0.82,7.0,1.25,2.75,7.0,0.0,0.0,0.0,0.0,0.5,0.5,0.0,0.0,0.25,-0.86,0.7,1.52,283.84,24.6,66.5,4.0,1.0,3.75,2.75,4.5,5.0,1.25,5.5,1.75,7.5,6.5,4.0,6.25,0.08,0.08,0.95,804.26,-1.1,-21.3
0.84,0.0,1.0,1.25,5.0,0.0,0.0,0.0,0.0,0.5,0.5,0.0,0.0,0.25,-0.92,1.27,2.83,222.29,16.6,45.2,5.75,1.25,5.0,4.0,4.75,5.75,2.25,4.5,2.25,6.0,5.5,2.75,4.75,0.08,0.08,0.95,807.48,-4.4,-4.3
0.86,1.5,0.75,0.5,3.25,0.0,0.0,0.0,0.0,0.25,0.5,0.0,0.0,0.25,-0.23,0.58,2.52,141.11,18.1,51.6,6.5,1.5,5.5,5.25,5.25,5.5,2.5,4.25,2.0,5.25,4.5,2.25,4.0,0.08,0.08,0.95,810.79,-6.0,5.2
0.88,0.0,0.5,1.0,2.75,0.0,0.0,0.0,0.0,0.0,0.25,0.0,0.0,0.25,-0.8,0.39,2.39,47.44,17.8,47.3,7.25,1.75,6.5,5.25,6.0,6.0,3.0,4.25,1.75,4.25,3.75,1.25,3.25,0.08,0.08,0.95,825.32,-7.3,15.7
0.9,0.75,0.0,0.0,2.25,0.0,0.0,0.0,0.0,0.25,0.25,0.0,0.0,0.25,-1.17,-0.61,1.89,2.47,15.9,38.9,7.75,1.75,6.75,5.75,6.5,5.75,3.0,3.25,1.75,3.5,3.25,1.25,2.25,0.08,0.08,0.95,828.12,-9.0,23.2
0.92,1.25,0.5,0.25,2.0,0.0,0.0,0.0,0.0,0.25,0.25,0.0,0.0,0.0,-0.61,-0.05,0.83,0.0,20.3,60.4,8.25,1.75,7.25,6.75,6.5,5.5,3.5,3.0,1.5,2.75,2.5,0.75,2.25,0.08,0.08,0.95,826.63,-10.4,29.7
0.94,0.5,0.5,0.0,2.0,0.0,0.0,0.0,0.0,0.75,0.25,0.0,0.0,0.25,-0.86,-1.11,0.2,9.19,13.9,32.9,8.5,2.0,7.5,7.75,6.75,5.75,4.0,3.0,1.0,2.5,2.5,0.75,1.5,0.08,0.08,0.95,832.14,-11.2,34.4
0.96,0.0,0.25,1.0,2.0,0.0,0.0,0.0,0.5,0.25,0.25,0.0,0.0,0.25,-0.73,-0.48,0.89,31.68,14.2,28.8,9.0,2.25,8.0,9.0,7.75,5.75,4.0,1.75,1.0,2.5,2.5,0.75,1.5,0.08,0.08,0.95,858.76,-12.1,38.2
0.98,0.25,0.0,1.0,2.0,0.0,0.0,0.0,0.5,0.5,0.25,0.0,0.0,0.25,-0.48,-0.36,0.58,29.23,15.1,24.9,9.25,1.75,8.5,8.75,8.0,6.0,4.25,1.5,1.0,2.5,2.0,0.5,1.25,0.08,0.14,0.95,883.19,-12.5,40.8
1.0,1.5,0.0,1.0,2.0,0.0,0.0,0.0,0.25,0.25,0.25,0.0,0.0,0.25,-0.42,-0.3,0.45,26.13,20.9,46.0,9.5,2.0,8.5,10.5,8.25,6.0,4.25,1.5,0.75,2.25,1.5,0.25,1.25,0.08,0.14,0.95,913.62,-12.8,44.5
1.02,1.0,0.25,1.0,2.0,0.0,0.0,0.0,0.25,0.5,0.25,0.0,0.0,0.25,-0.61,-0.23,0.64,22.04,18.9,40.4,10.5,2.5,8.5,10.5,9.25,6.0,4.0,1.5,0.5,1.25,1.5,0.25,1.0,0.08,0.14,0.95,944.04,-13.5,49.3
1.04,1.0,0.0,1.25,2.0,0.0,0.0,0.0,0.5,0.25,0.25,0.0,0.0,0.25,-0.67,-0.23,0.77,53.06,18.8,38.6,10.5,3.0,8.5,12.0,9.25,6.0,3.5,1.5,0.5,1.25,1.0,0.25,1.25,0.08,0.14,1.02,980.45,-13.4,50.4
1.06,0.5,0.0,1.25,2.0,0.0,0.0,0.0,0.75,0.25,0.25,0.0,0.0,0.25,-0.61,0.02,0.89,72.77,15.8,29.8,10.5,3.25,8.75,11.5,9.5,6.0,3.0,0.75,0.5,1.25,0.25,0.25,0.75,0.08,0.14,1.02,992.8,-14.0,55.0
1.08,0.25,0.0,1.25,2.0,0.0,0.0,0.0,0.0,0.5,0.0,0.0,0.0,0.25,-0.48,0.14,0.95,80.85,21.9,40.1,11.0,3.25,8.75,12.5,10.5,5.75,2.5,0.25,0.25,0.0,1.25,0.0,0.75,0.08,0.2,1.02,1007.6,-14.8,58.2
1.1,0.25,0.0,1.25,2.0,0.0,0.0,0.0,0.75,0.5,0.0,0.0,0.0,0.25,-0.36,0.2,1.2,82.24,16.3,28.5,9.75,3.0,8.75,11.0,9.25,4.75,1.5,0.0,0.5,0.25,0.75,0.0,0.5,0.08,0.2,1.02,962.01,-15.5,59.4
1.12,0.75,0.0,1.0,2.0,0.0,0.0,0.0,0.0,0.0,0.25,0.0,0.0,0.25,-0.36,0.33,1.39,79.69,21.3,47.4,10.5,3.25,8.25,11.5,9.25,4.5,1.25,0.0,0.25,0.0,0.0,0.0,0.0,0.08,0.27,1.02,913.89,-16.3,65.2
1.14,1.0,0.0,1.25,2.0,0.0,0.0,0.0,0.25,0.0,0.25,0.0,0.0,0.25,-0.36,0.52,1.52,81.62,20.9,46.1,10.0,3.25,7.75,11.5,8.5,2.0,0.75,0.0,0.25,0.0,0.0,0.0,0.0,0.08,0.27,1.14,833.16,-18.2,67.0
1.16,0.75,0.0,1.0,2.0,0.0,0.0,0.0,0.0,0.0,0.5,0.0,0.0,0.25,-0.36,0.58,1.64,78.86,19.3,40.7,9.75,3.0,7.5,10.5,8.25,0.5,0.5,0.0,0.25,0.0,0.0,0.0,0.0,0.08,0.33,1.2,748.98,-19.5,68.2
1.18,1.0,0.0,1.25,2.0,0.0,0.0,0.0,0.25,0.0,0.5,0.0,0.0,0.25,-0.48,0.58,1.83,82.63,19.2,40.4,9.25,2.5,6.5,9.5,7.5,0.0,0.25,0.0,0.25,0.0,0.25,0.0,0.25,0.14,0.39,1.27,650.96,-19.7,66.7
1.2,1.0,0.0,1.0,2.0,0.0,0.0,0.0,0.0,0.0,0.25,0.0,0.0,0.25,-0.55,0.7,2.14,80.13,22.0,50.0,9.0,1.75,3.5,5.0,5.5,0.0,0.75,0.0,0.25,0.0,0.25,0.0,0.5,0.45,0.64,2.52,512.7,-19.9,66.8
1.22,0.5,0.0,1.25,2.0,0.0,0.0,0.0,0.0,0.0,0.25,0.0,0.0,0.5,-0.55,1.02,2.52,78.71,19.6,36.8,8.0,1.0,1.5,4.25,2.25,0.0,0.5,0.0,0.25,0.0,1.0,0.0,0.75,0.77,1.27,2.89,369.29,-21.3,60.2
1.24,0.25,0.0,1.0,2.0,0.0,0.0,0.0,0.0,0.25,0.25,0.0,0.0,0.25,-0.48,1.58,2.33,73.14,19.2,36.5,5.75,0.0,0.0,1.25,0.0,0.0,0.25,0.0,0.0,0.0,0.0,0.0,0.0,0.14,0.39,2.7,225.32,-31.5,88.9
1.26,0.25,0.0,1.0,1.75,0.0,0.0,0.0,0.25,0.25,0.25,0.0,0.0,0.25,0.02,2.08,2.02,69.69,17.1,30.5,3.75,1.0,0.25,0.75,0.5,0.0,0.25,0.0,0.25,0.0,0.0,0.0,0.0,0.27,0.39,2.08,105.1,-25.1,81.3
1.28,0.0,0.0,1.0,2.0,0.0,0.0,0.0,2.0,0.25,0.25,0.0,0.0,0.25,1.83,3.14,0.7,75.48,6.3,8.4,1.25,3.5,2.0,0.0,0.0,0.0,0.25,0.0,0.25,0.0,0.0,0.0,0.0,0.89,0.14,1.95,15.1,-23.8,82.0
1.3,0.0,0.0,1.25,2.0,0.0,0.0,0.0,0.5,0.25,0.25,0.5,0.0,0.5,2.14,4.52,0.58,80.12,13.7,10.9,0.5,0.75,1.0,2.0,0.25,0.0,0.25,0.0,0.25,0.0,0.25,0.0,0.25,0.89,-1.05,1.7,0.0,-19.3,48.7
1.32,0.0,0.25,1.25,1.75,0.0,0.0,0.0,0.5,0.25,0.25,0.0,0.0,0.25,2.08,3.95,0.08,81.76,15.3,28.9,0.5,0.25,2.25,0.5,0.5,0.0,0.25,0.0,0.25,1.0,0.0,0.0,0.0,0.83,-0.67,0.45,0.0,-19.3,34.8
1.34,0.0,0.0,1.0,1.5,0.0,0.0,0.0,0.75,0.25,0.5,0.0,0.0,0.5,-0.8,0.02,0.77,78.58,9.0,4.5,1.25,0.0,2.25,0.0,0.5,0.0,0.25,0.0,0.25,0.0,0.5,0.0,0.5,0.64,-1.05,1.27,0.0,-24.4,34.4
1.36,0.0,0.0,1.0,1.75,0.0,0.0,0.0,1.0,0.25,1.25,0.0,1.0,1.0,-1.73,-0.23,1.14,88.32,4.3,-26.5,0.5,0.0,0.75,0.0,0.0,0.0,0.0,0.0,0.0,1.0,0.0,0.0,0.25,0.2,-0.36,0.52,0.0,-10.6,-4.4
1.38,0.0,0.0,1.0,0.0,0.0,0.0,0.0,0.0,0.25,2.25,0.0,3.0,3.5,-0.48,-0.55,1.2,117.46,-1.5,-83.1,0.0,0.0,2.0,0.0,1.0,0.0,0.25,0.0,0.0,0.0,0.5,0.25,0.0,0.08,-0.36,0.33,0.0,-21.2,31.2
1.4,0.0,0.0,1.0,0.25,0.0,0.0,0.0,3.5,0.75,5.75,0.0,5.25,6.25,1.14,0.64,2.77,208.38,-6.0,-78.5,0.0,0.0,2.25,0.0,1.0,0.25,0.75,0.0,0.0,0.0,0.0,0.0,0.0,0.33,-0.3,0.39,0.0,-22.3,54.3
1.42,0.25,0.0,0.0,0.0,0.0,0.0,0.0,0.0,1.0,6.75,6.0,5.25,7.0,-0.67,0.2,1.2,293.15,-2.8,-88.8,1.25,0.75,0.75,1.5,0.0,1.25,0.0,0.0,0.25,1.0,0.0,0.25,0.5,0.45,-0.23,0.7,16.96,-8.3,26.7
1.44,0.0,0.0,0.0,0.0,0.0,0.0,0.0,5.5,0.75,6.75,5.75,5.25,6.75,-0.05,0.27,1.2,395.42,-5.7,-81.6,0.0,0.0,2.0,0.25,0.5,0.0,0.25,0.0,0.0,0.0,0.25,0.0,0.0,0.52,-0.17,0.83,38.12,-26.9,48.0
1.46,0.5,0.5,0.0,1.5,0.0,0.0,0.25,5.5,0.75,6.75,6.0,5.5,6.75,-0.11,0.08,1.02,491.02,-3.5,-69.7,0.0,0.0,0.5,0.0,0.0,0.0,0.0,0.0,0.0,0.0,0.0,0.0,0.0,0.52,0.08,0.83,37.52,-38.2,60.9
1.48,1.75,0.0,0.0,1.0,0.0,0.0,0.5,6.0,1.0,6.75,0.0,5.25,6.75,-0.17,0.08,0.95,521.1,-5.5,-65.5,0.0,0.0,0.75,0.0,0.0,0.0,0.0,0.0,0.0,0.0,0.0,0.0,0.0,0.45,0.33,0.95,25.47,-38.2,60.9
1.5,0.0,0.0,0.0,1.25,0.0,1.0,0.5,6.0,1.25,6.75,0.0,5.25,6.75,-0.17,0.08,0.95,518.79,-8.0,-70.2,0.0,0.0,0.75,0.5,0.0,0.0,0.0,0.0,0.0,0.0,0.0,0.0,0.0,0.39,0.39,1.14,10.99,-29.7,59.7
1.52,0.0,0.0,0.0,0.5,0.0,1.25,0.25,5.5,1.75,6.75,0.0,5.0,6.75,-0.17,0.02,0.95,496.23,-8.7,-73.0,0.0,0.0,0.5,0.0,0.0,0.0,0.0,0.0,0.0,0.0,0.0,0.0,0.0,-0.55,0.77,1.39,0.34,-38.2,60.9
1.54,0.5,0.0,0.0,0.25,0.0,1.25,0.5,6.0,1.75,6.5,0.0,5.0,6.5,-0.17,0.02,0.95,480.72,-8.1,-70.0,0.0,0.5,0.75,0.0,0.0,0.0,0.0,0.0,0.0,0.0,0.0,0.0,0.0,0.89,0.83,1.02,4.08,-28.0,76.1
1.56,0.25,0.0,0.0,0.25,0.0,1.75,0.5,6.0,1.75,6.5,6.5,5.0,6.25,-0.11,0.02,0.95,502.59,-5.1,-70.4,0.0,0.0,0.5,0.0,0.0,0.0,0.0,0.0,0.0,0.0,0.0,0.0,0.0,0.58,0.7,1.7,2.68,-38.2,60.9
1.58,0.0,0.25,0.0,2.0,0.0,1.75,0.5,6.0,1.75,6.0,6.0,4.25,6.0,-0.17,0.02,0.95,519.93,-4.3,-62.1,0.0,0.25,0.5,0.0,0.0,0.0,0.0,0.0,0.0,0.0,0.0,0.0,0.0,0.33,0.7,1.95,3.03,-29.7,73.6
1.6,1.75,0.5,0.0,2.0,1.25,1.75,0.75,6.0,2.5,5.75,6.0,4.0,5.5,-0.17,0.02,0.95,540.64,-1.9,-47.7,0.0,0.0,0.5,0.0,0.0,0.0,0.0,0.0,0.0,0.0,0.0,0.0,0.0,0.45,0.89,2.02,1.07,-38.2,60.9
1.62,2.0,0.75,0.0,2.25,1.25,1.75,0.75,6.0,2.75,5.75,5.75,4.0,5.25,-0.17,0.02,0.95,542.54,-1.3,-44.4,0.0,0.0,0.5,0.0,0.0,0.0,0.0,0.0,0.0,0.0,0.0,0.0,0.0,0.39,1.08,1.95,0.0,-38.2,60.9
1.64,0.0,0.25,0.0,2.5,1.75,2.0,0.25,5.75,2.75,4.75,5.5,3.25,4.25,-0.17,0.02,0.95,512.0,-3.3,-47.5,0.0,0.0,0.5,0.75,0.0,1.25,0.0,0.0,0.25,0.0,0.0,0.0,0.0,0.45,1.58,1.7,11.56,-3.3,39.4
1.66,1.25,0.75,0.0,3.5,2.5,2.25,0.75,5.5,3.0,4.5,5.5,3.0,4.0,-0.11,0.02,0.95,496.0,-0.8,-33.2,1.25,1.0,2.0,1.25,1.5,1.75,0.25,0.0,0.25,1.0,0.75,0.0,0.5,0.14,1.33,1.52,75.24,-8.9,32.3
1.68,2.0,1.0,2.0,3.25,2.75,2.5,0.75,5.5,3.0,4.5,5.25,2.25,3.25,-0.11,0.08,0.95,491.21,1.7,-21.0,1.25,0.75,2.0,1.0,1.0,1.5,0.25,0.0,0.25,0.0,0.25,0.0,0.5,-0.11,1.83,1.33,120.55,-13.0,46.4
1.7,2.25,1.0,2.5,3.25,2.75,2.5,0.75,5.5,3.0,3.0,4.25,2.0,2.75,-0.11,0.08,0.95,487.67,3.1,-13.3,1.0,1.0,0.0,0.25,0.0,2.0,0.75,0.0,0.25,0.0,0.25,0.0,0.0,-1.05,2.27,0.95,134.1,-4.8,51.3
1.72,3.5,1.0,2.75,5.25,4.0,3.0,1.0,5.5,2.75,3.0,4.0,1.5,2.0,-0.11,0.08,0.95,513.51,4.7,1.1,1.0,1.0,2.25,0.5,1.0,1.5,0.25,0.0,0.5,1.0,0.25,0.25,0.25,-1.73,3.83,0.2,149.26,-10.5,31.8
1.74,4.0,1.0,3.0,6.0,5.25,3.0,1.5,5.5,2.75,2.25,3.25,1.25,1.75,-0.11,0.08,0.95,542.94,5.7,9.9,1.5,1.0,1.75,0.75,1.0,2.0,0.25,0.0,0.25,1.0,0.25,0.0,0.5,-1.73,3.64,0.27,160.43,-8.2,35.7
1.76,4.5,1.0,3.0,7.25,5.25,3.0,1.5,5.25,2.75,1.75,3.25,1.0,1.5,-0.11,0.02,0.95,575.07,6.9,15.2,1.25,0.25,1.25,0.5,0.5,1.25,0.25,0.0,0.25,1.0,0.5,0.0,0.5,0.33,-0.23,0.52,157.05,-8.5,19.6
1.78,4.5,1.0,3.0,7.75,5.75,3.0,1.5,4.75,2.5,1.25,2.75,1.0,1.5,-0.11,0.08,0.95,590.73,7.4,19.6,1.25,0.75,1.0,0.0,0.5,1.0,0.25,0.0,0.25,1.5,1.0,1.75,3.25,1.27,0.08,1.52,171.84,-2.4,-35.0
1.8,5.25,1.0,3.0,8.0,6.25,3.5,1.5,4.75,2.25,1.25,2.5,1.0,1.5,-0.11,0.08,0.95,609.29,7.4,22.6,1.25,0.75,0.0,0.5,0.5,2.0,0.25,0.25,0.25,6.0,2.0,5.25,7.0,0.14,-0.17,0.7,248.17,4.1,-64.2
1.82,5.25,1.25,3.25,9.0,6.75,3.5,1.75,4.75,1.75,1.25,2.25,1.0,1.25,-0.11,0.08,0.95,633.65,7.8,26.7,1.25,0.5,1.0,0.5,0.5,1.5,0.25,1.5,0.5,8.0,3.75,6.0,8.5,-1.17,0.77,2.14,347.47,3.1,-66.2
1.84,5.5,1.25,4.5,10.0,7.0,3.5,2.0,4.5,1.75,1.25,2.0,1.0,1.25,-0.11,0.08,0.95,670.85,9.2,29.8,1.0,0.0,1.75,0.0,0.5,2.0,0.25,3.0,0.75,8.75,6.25,6.0,8.5,0.7,0.27,1.33,485.09,3.1,-66.8
1.86,5.75,2.25,4.75,10.5,7.5,3.75,2.0,4.25,1.25,1.25,1.75,0.75,1.0,-0.11,0.08,0.95,716.38,9.5,35.6,1.25,0.5,2.0,0.0,1.0,3.75,0.25,4.25,1.0,8.75,5.25,6.0,7.75,-0.11,0.33,1.2,608.76,3.6,-55.3
1.88,6.0,2.5,5.25,11.5,8.0,3.75,2.25,3.75,0.75,1.25,1.5,0.75,0.75,-0.11,0.08,0.95,764.34,10.4,40.0,1.0,0.75,2.0,0.25,2.5,1.75,0.25,5.5,1.0,8.75,4.75,5.75,7.75,0.14,0.08,0.95,686.26,3.4,-53.0
1.9,5.75,2.5,5.75,12.5,8.25,3.75,2.25,3.75,0.75,1.25,1.25,0.5,1.0,-0.11,0.08,0.95,801.81,10.5,41.0,1.25,0.5,2.25,0.5,2.5,4.0,0.25,5.5,1.0,8.75,6.25,5.75,8.0,0.08,0.14,0.95,743.96,3.4,-48.9
1.92,6.25,2.5,6.0,12.5,8.5,3.75,2.0,3.75,0.75,1.25,1.0,0.25,0.5,-0.11,0.14,1.02,828.09,11.0,44.6,1.25,1.0,2.0,0.25,2.75,4.5,0.25,5.5,1.25,8.75,6.25,5.75,8.0,0.14,0.08,0.95,793.32,3.7,-47.0
1.94,6.5,2.75,6.75,13.5,8.75,3.75,2.25,3.5,0.5,1.25,1.0,0.25,0.75,-0.17,0.14,1.02,861.56,11.6,45.7,2.0,0.75,2.0,1.25,2.5,4.5,0.5,5.5,1.25,8.75,7.0,5.5,8.0,0.08,0.08,0.95,834.68,2.6,-44.0
1.96,0.0,0.0,7.0,6.5,0.0,0.0,0.0,4.5,1.0,1.0,0.0,0.25,0.0,-0.17,0.14,1.08,648.55,15.2,24.9,2.25,0.75,2.0,1.25,3.25,4.5,0.75,5.75,1.5,8.75,7.0,5.25,8.0,0.08,0.08,0.95,855.58,2.4,-41.1
1.98,6.75,3.75,2.5,13.5,8.75,3.0,3.5,4.5,0.0,0.0,0.0,0.0,0.5,-0.17,0.14,1.08,643.64,10.4,52.1,3.25,0.25,2.5,1.25,4.25,4.5,0.75,5.5,1.5,8.5,6.5,5.0,7.75,0.08,0.08,0.95,864.4,1.4,-35.7
2.0,0.0,0.0,0.0,6.75,0.5,0.0,0.0,0.0,0.0,0.0,0.0,0.0,0.0,-0.17,0.2,1.08,386.59,15.6,57.5,4.25,0.5,2.5,1.25,4.25,4.5,0.75,5.5,1.5,8.25,6.25,4.0,7.5,0.14,0.08,0.95,845.92,0.8,-30.3
2.02,0.0,0.0,1.25,14.0,0.0,0.0,0.0,0.0,0.0,0.0,0.0,0.0,0.0,-0.23,0.27,1.08,296.03,18.9,58.1,3.75,1.0,2.75,2.5,4.25,4.5,1.0,5.5,1.75,8.0,5.75,4.0,7.0,0.08,0.08,0.95,813.35,0.1,-26.0
2.04,8.0,4.0,0.0,12.5,0.0,1.0,0.5,2.5,0.25,0.0,0.75,0.0,0.25,-0.23,0.27,1.2,264.33,16.5,59.0,4.25,1.0,3.25,2.25,4.25,4.5,1.25,5.5,1.75,7.75,5.5,3.5,6.5,0.08,0.08,0.95,775.64,-0.5,-22.1
2.06,8.0,3.25,5.0,11.5,0.0,0.5,1.75,1.25,0.5,0.75,0.75,0.0,0.5,-0.3,0.33,1.33,311.53,21.1,56.8,5.25,1.0,4.0,2.75,4.5,5.0,1.25,5.5,1.75,7.75,5.5,3.0,6.25,0.08,0.08,0.95,772.08,-1.6,-15.9
2.08,7.75,2.5,5.25,10.0,0.0,0.0,0.0,0.0,0.5,0.5,0.75,0.0,0.5,-0.48,0.39,1.7,332.9,24.0,61.9,5.75,1.0,4.25,2.75,4.5,5.25,1.5,5.5,1.75,7.5,4.75,2.75,6.0,0.08,0.08,0.95,775.19,-2.1,-12.2
2.1,7.0,1.25,3.0,7.75,0.0,0.0,0.0,2.0,0.5,0.5,0.0,0.0,0.25,-0.73,0.58,1.58,329.25,20.8,56.6,6.25,0.75,4.75,2.75,4.5,5.5,1.75,5.5,1.75,7.0,4.75,2.75,5.5,0.08,0.08,0.95,785.71,-2.9,-9.2
2.12,5.5,1.0,1.25,4.5,0.0,0.0,0.0,2.0,0.5,0.5,0.0,0.0,0.25,-0.73,1.14,2.83,279.37,18.4,51.4,6.75,1.5,5.0,4.0,4.75,5.25,2.25,5.5,1.75,6.75,4.5,2.5,5.5,0.14,0.08,0.95,808.14,-4.1,-3.5
2.14,3.0,0.75,1.0,3.0,0.0,0.0,0.0,0.0,0.25,0.5,0.0,0.0,0.25,-0.11,0.58,2.2,197.27,22.0,59.4,7.25,1.25,5.0,3.75,4.75,5.5,2.5,5.5,1.75,6.25,4.25,1.75,4.75,0.08,0.08,0.95,814.17,-4.5,0.8
2.16,0.75,0.5,1.0,2.5,0.0,0.0,0.0,0.0,0.0,0.25,0.0,0.0,0.0,-0.48,0.58,2.02,115.21,21.8,61.6,7.75,1.25,6.0,3.0,4.75,5.5,2.5,4.75,1.75,6.0,3.75,1.5,4.0,0.08,0.08,0.95,809.89,-5.9,5.9
2.18,0.5,0.0,0.5,1.0,0.0,0.0,0.0,0.0,0.0,0.5,0.0,0.0,0.25,-1.11,-0.17,2.08,47.91,15.3,25.7,8.0,1.5,6.5,4.5,5.25,5.75,3.0,4.25,1.75,5.25,3.25,1.25,3.25,0.08,0.08,0.95,809.88,-7.3,14.2
2.2,1.25,0.0,0.0,2.0,0.0,0.0,0.0,0.0,0.5,0.5,0.0,0.0,0.0,-0.92,-1.05,1.52,25.64,17.6,42.0,8.75,1.25,6.75,4.0,5.5,5.75,3.25,4.25,1.75,4.0,2.5,1.25,3.25,0.08,0.14,0.95,804.13,-8.3,18.4
2.22,0.5,0.0,0.0,2.0,0.0,0.0,0.0,0.25,0.25,0.5,0.75,0.0,0.0,-0.73,-1.23,-0.05,0.0,11.9,12.8,9.0,1.25,7.0,5.25,5.75,5.75,3.5,3.25,1.75,3.75,2.5,1.0,2.25,0.08,0.14,0.95,802.33,-9.8,25.1
2.24,1.5,0.0,0.0,2.0,0.0,0.0,0.0,0.75,0.5,0.5,0.0,0.0,0.25,-0.73,-0.61,0.83,20.61,12.2,26.2,9.5,1.25,7.5,5.25,6.5,5.75,4.0,3.0,1.5,2.75,2.5,0.75,2.25,0.08,0.14,0.95,805.3,-10.9,29.9
2.26,0.0,0.0,0.25,2.0,0.0,0.0,0.0,0.0,0.25,0.75,0.75,0.0,0.25,-0.42,-0.3,0.58,0.9,9.5,-2.8,9.5,1.5,7.75,6.75,6.5,5.75,4.5,3.0,1.25,2.75,2.5,0.75,1.75,0.08,0.14,0.95,821.52,-11.5,32.9
2.28,0.0,0.0,0.25,2.0,0.0,0.0,0.0,0.75,0.5,0.5,0.0,0.0,0.25,-0.48,-0.36,0.27,0.0,6.4,5.2,10.0,1.75,8.25,7.25,6.5,6.0,4.5,2.75,1.0,2.5,2.25,0.75,1.5,0.08,0.14,0.95,841.68,-12.3,36.7
2.3,0.25,0.0,0.25,2.0,0.0,0.0,0.25,0.5,0.0,0.5,0.0,0.0,0.25,-0.67,-0.36,0.64,0.0,9.6,19.6,10.0,2.0,8.5,8.25,6.75,5.75,5.0,1.75,1.0,2.5,1.5,0.5,1.25,0.08,0.14,0.95,858.97,-13.4,41.9
2.32,1.0,0.25,0.0,2.0,0.0,0.0,0.0,0.5,0.25,0.5,0.0,0.0,0.25,-0.73,-0.36,0.89,21.77,11.5,29.9,10.5,1.5,8.75,9.0,7.25,5.5,5.25,1.5,1.0,2.5,1.75,0.25,1.25,0.08,0.14,0.95,881.74,-13.9,42.9
2.34,1.25,0.0,0.0,2.0,0.0,0.0,0.0,0.5,0.5,0.5,0.0,0.0,0.25,-0.67,0.08,0.89,44.08,12.5,26.1,10.5,1.25,9.25,9.0,7.5,5.75,5.25,1.5,1.0,2.0,1.0,0.25,1.25,0.08,0.14,0.95,893.91,-14.2,45.5
2.36,1.25,0.0,0.0,2.0,0.0,0.0,0.0,0.0,0.25,0.25,0.75,0.0,0.25,-0.61,0.39,0.89,63.0,16.9,26.1,11.0,1.75,9.25,10.0,8.0,5.75,5.5,1.5,0.5,1.5,0.5,0.25,1.25,0.08,0.14,0.95,913.6,-14.6,49.6
2.38,0.75,0.25,0.0,1.25,0.0,0.0,0.0,0.75,0.25,0.5,0.0,0.0,0.25,-0.55,0.39,1.2,70.41,7.2,16.2,10.5,2.0,9.25,10.5,8.25,5.5,5.5,1.5,0.5,1.5,0.25,0.0,1.25,0.08,0.14,0.95,930.4,-14.6,50.9
2.4,0.5,0.0,0.25,2.0,0.0,0.0,0.0,0.25,0.25,0.25,0.0,0.0,0.25,-0.42,0.52,1.39,70.37,14.0,30.4,11.0,1.5,9.75,12.0,8.25,5.5,5.5,1.25,0.5,1.25,0.25,0.0,1.25,0.08,0.14,0.95,955.79,-15.3,52.1
2.42,0.25,0.0,1.0,2.0,0.0,0.0,0.0,0.5,0.25,0.25,0.0,0.0,0.25,-0.36,0.7,1.45,71.14,15.3,28.3,10.5,1.0,10.0,11.5,8.25,5.0,5.25,0.75,0.5,1.0,0.25,0.25,0.75,0.08,0.14,0.95,948.77,-16.2,53.7
2.44,0.5,0.0,1.0,2.0,0.0,0.0,0.0,0.0,0.25,0.5,0.0,0.0,0.25,-0.42,0.7,1.52,71.0,18.1,33.5,11.0,1.75,9.75,12.5,8.75,5.5,5.0,0.5,0.5,1.0,0.75,0.0,0.75,0.08,0.2,1.08,965.34,-15.8,54.6
2.46,0.5,0.0,1.0,2.0,0.0,0.0,0.0,0.0,0.25,0.5,0.0,0.0,0.25,-0.55,0.7,1.64,73.64,18.1,33.5,11.5,2.0,9.5,12.5,8.75,4.0,4.5,0.0,0.5,1.0,1.0,0.0,0.75,0.08,0.2,1.02,960.74,-17.1,56.1
2.48,0.25,0.0,0.5,2.0,0.0,0.0,0.0,0.0,0.25,0.5,0.0,0.0,0.5,-0.61,0.7,1.77,71.8,12.6,17.4,11.5,1.75,9.0,12.0,8.25,4.0,3.75,0.25,0.5,1.25,0.75,0.0,0.5,0.14,0.27,1.08,943.0,-16.9,56.4
2.5,0.5,0.0,0.5,2.0,0.0,0.0,0.0,0.0,0.25,0.25,0.0,0.0,0.5,-0.61,0.83,1.95,70.9,15.6,27.7,11.0,1.75,9.25,12.0,8.25,2.75,2.75,0.0,0.5,1.0,1.0,0.0,0.5,0.14,0.33,1.02,902.99,-17.9,57.3
2.52,0.75,0.0,0.75,2.0,0.0,0.0,0.0,0.0,0.25,0.25,0.0,0.0,0.25,-0.61,0.95,1.95,69.74,19.8,41.7,10.5,2.0,8.5,10.5,7.75,1.5,1.75,0.0,0.5,1.0,1.0,0.0,0.5,0.08,0.33,1.2,834.6,-18.5,58.0
2.54,0.5,0.0,0.0,1.75,0.0,0.0,0.0,0.0,0.25,0.5,0.75,0.0,0.5,-0.3,0.83,1.77,68.26,10.2,-1.5,9.5,1.75,6.75,9.0,6.5,0.0,1.25,0.0,0.5,1.0,1.0,0.0,0.5,0.14,0.39,1.27,720.59,-19.6,57.9
2.56,1.25,0.0,1.25,1.75,0.0,0.0,0.0,0.0,0.25,0.25,0.75,0.0,0.5,-0.73,1.14,1.83,77.69,20.1,26.4,8.75,1.5,5.0,6.5,4.75,0.0,1.25,0.0,0.5,1.0,1.0,0.0,0.5,0.45,0.58,1.39,577.96,-19.9,56.8
2.58,1.25,0.25,1.0,2.0,0.0,0.0,0.0,0.0,0.25,0.25,0.0,0.0,0.25,0.02,1.08,1.08,84.2,21.7,50.3,8.25,0.75,3.25,5.0,2.5,0.0,1.25,0.0,0.5,1.25,0.75,0.0,0.5,0.45,0.77,1.95,427.5,-21.0,54.5
2.6,1.25,0.0,1.0,1.75,0.0,0.0,0.0,0.0,0.5,0.25,0.0,0.0,0.25,0.64,1.45,1.27,88.83,21.9,43.1,7.5,1.0,2.5,4.0,0.5,0.5,1.25,0.0,0.25,1.0,0.75,0.0,0.5,-0.42,0.45,2.33,310.42,-22.3,55.6
2.62,1.0,0.25,1.0,2.0,0.0,0.0,0.0,0.0,0.25,0.5,0.0,0.0,0.25,1.27,2.64,1.02,90.68,19.3,42.3,5.5,0.25,1.0,1.25,0.0,0.0,0.25,0.0,0.0,0.0,0.0,0.0,0.0,0.08,0.7,1.33,197.58,-31.6,85.3
2.64,1.25,0.0,1.0,1.75,0.0,0.0,0.0,0.0,0.25,0.25,0.0,0.0,0.5,1.33,2.7,0.27,89.59,20.5,39.3,4.0,0.0,1.0,0.5,0.0,0.0,0.25,0.0,0.0,0.0,0.0,0.0,0.0,0.39,0.33,1.27,87.75,-33.8,85.4
2.66,0.75,0.0,1.0,1.75,0.0,0.0,0.0,0.0,0.5,0.5,0.5,0.0,0.25,0.52,1.58,0.52,88.14,17.9,21.8,4.0,0.0,1.0,0.75,0.0,0.0,0.25,0.0,0.0,0.0,0.0,0.0,0.5,0.45,0.45,1.08,5.17,-29.1,68.0
2.68,0.75,0.0,1.25,1.25,0.0,0.0,0.0,0.0,0.25,0.5,0.0,0.0,0.25,-0.17,0.89,0.89,82.9,20.4,34.2,1.25,0.0,0.75,2.25,0.0,0.0,0.25,0.0,0.0,0.75,0.0,0.0,0.0,0.52,0.02,0.83,0.0,-19.9,47.3
2.7,0.75,0.25,1.0,0.75,0.0,0.0,0.0,1.0,0.25,1.25,0.25,0.0,0.5,0.27,1.58,0.58,86.44,7.1,-2.5,1.75,0.25,2.0,1.75,0.25,0.0,0.25,0.0,0.25,1.0,0.25,0.0,0.5,0.33,-0.23,0.2,0.0,-19.1,33.6
2.72,1.0,0.25,0.75,0.0,0.0,0.0,0.0,0.0,0.25,1.75,0.75,2.0,2.75,0.27,0.02,1.95,108.89,2.9,-59.1,1.5,0.75,2.5,1.25,0.0,0.0,0.25,0.0,0.25,0.0,0.0,0.0,0.0,0.08,0.02,-0.36,0.0,-29.0,68.5
2.74,0.0,0.0,0.5,0.25,0.0,0.0,0.0,0.0,0.5,4.5,0.0,3.0,5.5,0.02,0.02,2.14,159.99,-6.3,-87.5,1.25,0.0,1.75,1.75,0.0,0.5,0.25,0.0,0.5,0.0,0.0,0.0,0.0,0.52,0.02,0.52,0.0,-23.8,56.1
2.76,0.0,0.0,0.0,0.25,0.0,0.0,0.0,0.0,0.75,5.0,4.0,4.0,6.25,-0.36,0.58,2.08,230.3,-3.7,-90.0,1.25,0.0,1.5,1.0,0.0,1.25,0.25,0.0,0.5,0.0,0.0,0.0,0.5,0.02,0.45,0.08,9.42,-15.4,39.0
2.78,0.0,0.0,0.25,2.25,0.0,0.0,0.0,0.0,5.0,0.0,0.0,1.5,0.0,-0.48,0.27,1.64,227.25,13.7,-22.3,0.5,0.0,1.75,0.0,0.0,0.0,0.25,0.0,0.0,0.0,0.0,0.0,0.0,0.02,0.45,0.08,10.74,-37.3,66.5
2.8,0.0,0.0,0.0,0.0,0.0,0.0,2.0,5.5,1.25,4.5,2.0,3.0,5.0,-0.05,0.14,1.14,271.05,-6.2,-72.5,0.75,0.0,1.75,0.0,0.0,0.0,0.25,0.0,0.0,0.0,0.0,0.0,0.0,-0.11,0.95,-0.3,13.01,-37.1,69.3
2.82,2.0,0.25,0.0,2.0,0.0,1.0,0.5,3.75,1.5,4.5,4.5,3.0,4.0,-0.11,0.08,1.08,305.62,-0.2,-48.2,0.25,0.0,1.25,0.0,0.0,0.0,0.25,0.0,0.0,0.0,0.0,0.0,0.0,-0.11,1.27,-0.36,9.36,-37.3,63.7
2.84,0.5,1.0,0.25,2.5,0.0,1.5,0.25,4.75,1.5,4.5,5.5,2.25,2.75,-0.11,0.14,0.95,357.71,-1.4,-43.4,0.25,0.0,1.5,0.0,0.0,0.0,0.25,0.0,0.0,0.0,0.0,0.0,0.0,-0.17,1.52,-0.17,13.43,-37.5,63.4
2.86,0.75,0.75,0.0,3.25,1.0,1.25,0.5,4.5,2.5,4.5,5.5,2.0,2.75,-0.11,0.08,0.95,392.67,-0.3,-37.5,0.25,0.25,1.75,0.25,0.0,0.0,0.25,0.0,0.25,0.0,0.0,0.0,0.0,-0.36,1.45,-0.05,24.5,-31.4,57.2
2.88,2.25,1.0,0.0,4.0,2.0,1.75,0.0,4.5,3.0,4.0,5.5,2.0,2.5,-0.11,0.08,0.95,439.2,1.5,-23.3,0.25,0.0,2.5,0.0,0.5,0.0,0.25,0.0,0.0,0.0,0.25,0.0,0.5,-0.48,1.27,-0.05,38.26,-24.4,32.6
2.9,2.5,1.0,2.0,0.0,2.75,1.75,0.75,4.75,3.0,3.0,5.25,1.5,1.75,-0.11,0.02,0.95,446.1,3.0,-19.4,0.75,0.0,1.5,0.25,0.0,0.0,0.25,0.0,0.0,0.0,0.0,0.0,0.0,-0.3,1.08,-0.11,40.15,-35.0,68.9
2.92,3.5,1.0,0.5,5.75,2.75,1.75,1.25,4.5,3.25,2.0,4.0,1.0,1.5,-0.11,0.08,0.95,462.65,5.6,0.7,0.0,0.0,1.5,0.0,0.0,0.0,0.25,0.0,0.0,0.0,0.0,0.0,0.0,0.02,0.89,-0.11,35.23,-37.8,58.5
2.94,4.5,1.25,1.25,6.0,3.75,1.5,1.25,4.0,3.0,1.25,4.0,1.0,1.0,-0.11,0.08,0.95,480.85,8.3,11.9,1.25,0.75,1.5,1.0,0.25,1.25,0.25,0.0,0.25,1.0,0.0,0.0,0.0,0.2,0.7,-0.11,59.53,-12.3,43.3
2.96,5.25,1.25,2.0,6.25,4.25,1.0,1.5,3.75,2.75,1.25,2.5,1.0,0.5,-0.11,0.08,0.95,494.31,10.3,22.2,0.0,0.0,2.5,0.0,0.5,0.0,0.75,0.0,0.25,0.0,0.0,0.0,0.0,0.2,0.52,0.02,65.61,-29.6,50.0
2.98,5.25,1.25,2.5,5.75,4.5,1.0,1.5,3.75,2.75,1.25,1.0,1.0,0.5,-0.11,0.08,0.95,492.63,10.5,27.0,0.25,0.0,1.25,0.0,0.25,0.0,0.75,0.0,0.25,0.0,0.25,0.0,0.0,0.08,0.45,0.2,66.61,-27.7,37.2
3.0,4.5,1.25,3.0,6.25,3.0,1.25,1.75,3.75,3.5,1.25,3.5,1.0,0.5,-0.11,0.08,0.95,499.54,11.2,16.5,0.0,0.0,2.0,0.0,0.25,0.0,0.25,0.0,0.0,0.0,0.0,0.0,0.0,-4.3,7.52,-4.23,58.09,-33.1,58.4
3.02,4.75,1.0,3.0,4.5,2.75,1.0,1.75,3.25,4.0,1.75,4.5,1.0,1.0,-0.11,0.08,0.95,499.45,11.0,7.7,0.0,0.0,2.5,0.0,0.5,0.0,0.25,0.0,0.0,0.0,0.75,0.0,0.5,0.77,3.08,-1.86,63.83,-22.4,17.6
3.04,5.25,1.0,2.75,5.25,0.25,1.0,1.75,2.5,4.25,1.25,5.0,1.0,0.5,-0.11,0.02,0.95,463.91,14.2,8.4,0.25,0.0,1.0,0.0,0.0,0.0,0.0,0.0,0.0,0.0,0.0,0.0,0.0,2.14,1.52,-0.55,47.82,-37.6,67.8
3.06,5.25,1.0,3.0,4.75,1.0,1.0,1.75,2.0,4.25,1.25,4.75,1.0,0.5,-0.11,0.08,0.95,442.19,14.4,10.7,0.0,0.0,1.0,0.0,0.0,0.0,0.0,0.0,0.5,0.5,0.0,0.0,0.0,1.27,0.52,0.7,42.2,-18.5,2.9
3.08,5.25,1.0,4.0,4.75,0.0,0.75,2.0,2.0,4.25,1.25,4.75,1.0,0.5,-0.11,0.08,0.95,423.26,16.2,10.7,0.75,0.0,1.25,0.5,0.0,1.5,0.0,0.0,0.5,1.25,0.0,0.25,0.0,0.2,0.14,-0.3,55.63,-6.5,14.3
3.1,5.75,1.0,5.25,6.0,0.0,0.0,2.25,2.75,4.75,1.25,5.0,1.0,0.5,-0.05,0.08,0.95,432.52,17.4,12.7,1.0,0.0,2.5,0.0,0.5,0.0,0.75,0.0,0.0,0.0,0.25,0.0,0.5,0.45,1.33,-1.36,68.18,-26.2,41.2
3.12,6.25,1.0,5.5,6.0,0.0,0.0,3.0,2.25,4.75,1.25,5.25,1.0,0.25,-0.05,0.08,0.95,449.75,18.6,15.4,0.0,0.0,1.0,0.0,0.0,0.0,0.25,0.0,0.0,0.0,0.0,0.0,0.0,1.14,1.33,0.2,58.0,-37.6,57.4
3.14,6.75,1.0,6.0,6.25,0.0,0.0,3.5,2.0,4.5,1.0,4.5,1.0,0.25,-0.05,0.08,0.95,473.91,19.9,20.9,0.0,0.0,0.75,0.0,0.0,0.0,0.0,0.0,0.0,0.0,0.0,0.0,0.0,0.58,-0.11,1.02,42.66,-38.2,60.9
3.16,7.0,1.0,7.25,7.0,0.0,0.0,3.0,2.0,4.0,0.5,4.0,0.25,0.25,-0.05,0.08,0.95,486.23,21.5,30.2,1.25,0.75,1.0,0.5,0.0,1.5,0.0,0.0,0.25,1.25,0.0,0.25,0.0,0.02,-0.11,3.08,56.69,-7.8,30.1
3.18,7.0,1.0,7.5,7.0,0.0,0.0,4.25,2.25,3.0,0.5,2.75,0.0,0.25,-0.05,0.08,1.02,489.1,22.3,36.7,0.0,0.75,0.75,0.25,0.0,1.75,0.25,0.0,0.0,0.0,0.0,0.0,0.0,-1.55,-4.17,-0.23,55.97,-2.7,55.4
3.2,7.25,0.75,0.0,7.0,0.0,0.0,4.75,1.5,1.75,0.5,2.0,0.0,0.25,-0.05,0.08,1.08,426.71,19.5,38.5,0.75,0.5,1.0,0.25,0.0,0.75,0.25,0.0,0.25,0.0,0.0,0.0,0.0,0.33,-1.73,1.14,67.7,-18.3,60.1
3.22,0.0,1.0,0.0,6.0,0.0,0.0,4.75,2.0,0.0,0.75,0.0,0.0,0.25,-0.11,0.14,1.39,322.73,11.5,29.0,0.75,0.0,1.0,0.0,0.0,0.0,0.25,0.0,0.0,0.0,0.0,0.0,0.0,0.89,-0.23,-0.8,58.74,-36.6,72.7
3.24,8.0,1.0,0.0,0.0,0.0,0.0,4.0,2.0,0.0,0.0,0.0,0.0,0.25,0.27,0.27,0.2,247.76,23.6,61.5,0.0,0.25,1.25,0.0,0.5,0.0,0.25,0.0,0.0,0.0,0.0,0.0,0.0,1.7,7.95,-1.98,50.78,-24.2,61.6
3.26,0.0,1.0,0.0,4.0,0.0,0.0,2.0,2.0,0.75,0.5,0.0,0.25,0.25,0.08,0.14,1.77,174.87,8.3,17.2,0.0,0.0,0.5,0.0,0.0,0.25,0.25,0.0,0.0,0.0,0.0,0.0,0.0,0.95,3.7,1.7,30.76,-20.9,49.0
3.28,8.5,0.0,0.0,4.5,0.0,0.0,0.25,0.0,2.5,0.0,0.0,0.0,0.25,-0.11,0.02,2.02,160.94,25.1,60.0,1.25,0.75,1.0,0.25,0.25,1.75,0.25,0.0,0.25,0.75,0.25,0.0,0.5,0.2,-0.42,-0.3,57.23,-6.5,28.7
3.3,7.5,0.75,0.0,2.75,0.0,0.0,3.75,0.0,2.5,0.25,0.0,0.0,0.0,-0.8,0.27,1.95,161.24,25.6,56.9,0.0,0.0,0.75,0.0,0.0,0.0,0.25,0.0,0.0,0.0,0.0,0.0,0.0,-1.36,-0.8,3.08,45.36,-37.5,56.4
3.32,3.75,0.0,0.0,0.0,0.0,0.0,3.75,0.0,2.0,0.0,0.0,0.0,0.0,0.08,0.14,2.08,135.29,28.1,43.4,0.0,0.0,1.0,0.0,0.0,0.5,0.0,0.0,0.0,0.0,0.0,0.0,0.25,-1.98,-1.92,-0.92,42.23,-14.2,28.7
3.34,0.0,0.0,0.0,1.0,0.0,0.0,0.0,0.0,0.75,0.0,0.0,0.0,0.0,-0.55,0.33,2.45,68.56,15.1,17.9,1.25,0.75,2.0,0.75,0.5,1.25,0.25,0.0,0.0,0.0,0.25,0.0,0.0,-0.17,-0.8,-5.05,63.22,-17.4,60.5
3.36,0.0,0.0,1.5,1.0,0.0,0.0,0.0,0.0,0.75,1.0,0.0,0.0,0.5,-0.67,-2.48,0.27,23.44,13.0,-1.2,0.5,0.0,0.75,0.0,0.0,0.0,0.5,0.0,0.5,0.0,0.25,0.0,0.5,1.95,4.39,0.77,64.38,-20.2,2.0
3.38,0.0,0.0,1.0,1.0,0.0,0.0,0.0,0.0,0.75,0.5,0.0,0.0,0.0,-1.11,0.08,1.52,0.0,17.6,17.2,1.0,0.5,0.75,0.0,1.0,2.0,0.25,0.0,0.25,1.0,0.5,0.25,0.5,0.08,-1.05,-0.92,87.42,-1.6,14.4
3.4,0.0,0.0,1.25,1.75,0.0,0.0,4.75,0.0,0.5,0.5,0.0,0.0,0.0,-0.73,-0.3,-0.17,2.66,23.8,29.7,1.25,0.25,2.25,0.25,0.5,1.5,0.25,0.0,0.25,1.0,0.5,0.0,0.5,1.2,-0.05,-0.3,105.68,-11.0,23.9
3.42,0.0,0.0,1.25,1.25,0.0,0.0,0.25,0.0,4.25,2.0,0.0,0.0,0.25,-1.42,0.08,0.08,42.64,10.0,-20.0,1.5,0.75,2.0,0.25,0.5,1.75,0.25,0.0,0.25,1.0,0.25,0.0,0.5,2.08,0.27,-0.17,133.88,-10.0,32.2
3.44,1.0,0.5,1.25,0.75,0.0,0.0,0.25,0.0,1.0,1.25,0.0,0.0,0.0,1.33,0.95,-0.67,71.63,16.7,23.3,1.0,0.75,2.25,0.25,0.5,1.75,0.25,0.0,0.25,1.0,0.5,0.0,0.5,2.02,0.14,-0.36,144.87,-9.6,26.6
3.46,0.0,0.0,0.0,0.5,0.0,0.0,1.75,0.0,0.0,0.5,0.0,0.0,0.0,7.95,7.95,1.27,60.41,15.2,8.3,1.25,0.5,2.0,0.0,0.5,1.5,0.25,0.0,0.5,1.0,0.5,0.0,0.75,1.45,0.58,0.33,153.12,-9.3,18.2
3.48,0.0,0.0,1.25,0.25,0.0,0.0,0.75,0.0,0.0,0.5,0.0,0.0,0.0,3.33,2.77,0.83,39.58,23.9,27.2,1.25,0.5,2.25,0.75,0.5,1.0,0.25,0.0,0.5,1.0,0.5,0.0,0.5,0.89,0.58,-0.05,154.68,-13.2,25.8
3.5,1.25,0.0,1.0,0.0,0.0,0.0,0.0,0.0,0.0,0.25,0.0,0.0,0.0,-0.05,1.89,-0.55,24.42,31.2,64.6,1.75,0.5,2.25,0.25,0.5,1.25,0.25,0.0,0.25,1.0,0.25,0.0,0.5,0.08,1.64,-0.67,152.88,-13.3,32.7
3.52,0.75,0.0,0.0,0.25,0.0,0.0,0.75,0.0,0.0,0.5,0.0,0.0,0.25,-1.36,2.89,0.64,13.05,14.0,13.2,1.25,0.75,2.0,0.0,0.5,1.25,0.25,0.0,0.25,0.0,0.25,0.0,0.5,-0.3,0.89,-0.3,142.41,-14.9,44.5
3.54,0.5,0.0,1.25,0.25,0.0,0.0,0.0,0.0,0.0,0.5,0.0,0.0,0.0,-0.86,0.77,-0.48,20.82,24.7,40.3,0.0,0.0,1.0,0.0,0.0,0.5,0.0,0.0,0.0,0.0,0.0,0.0,0.0,-0.17,-0.17,0.14,108.21,-19.0,52.5
3.56,0.5,0.0,1.25,1.0,0.0,0.0,0.0,0.0,0.0,0.5,0.0,0.0,0.0,0.08,-0.48,0.39,37.7,22.9,44.5,0.0,0.0,0.75,0.0,0.0,0.0,0.25,0.0,0.0,0.0,0.0,0.0,0.0,-0.11,-0.55,-0.11,65.06,-37.5,56.4
3.58,1.0,0.0,1.25,1.25,0.0,0.0,0.0,0.0,0.0,0.5,0.0,0.0,0.0,0.95,-1.11,0.95,49.94,23.9,51.5,0.25,0.0,0.75,0.75,0.0,1.5,0.25,0.0,0.25,0.0,0.0,0.0,0.0,0.2,-0.48,-0.42,41.11,-7.2,44.0
3.6,0.0,0.0,1.25,1.25,0.0,0.0,0.0,0.0,0.0,0.5,0.0,0.0,0.0,1.08,-2.48,0.02,48.99,20.6,37.6,0.25,0.0,0.75,0.0,0.0,0.0,0.0,0.0,0.0,0.0,0.0,0.0,0.0,1.08,-0.23,-1.67,21.78,-37.5,69.5
3.62,0.5,0.0,1.25,1.5,0.0,0.0,0.0,0.0,0.0,0.25,0.0,0.0,0.0,1.95,0.14,1.39,53.35,24.8,54.9,0.0,0.0,0.75,0.0,0.0,0.0,0.0,0.0,0.0,0.0,0.0,0.0,0.0,2.89,0.33,-0.98,5.43,-38.2,60.9
3.64,0.25,0.0,1.25,1.5,0.0,0.0,0.0,0.0,0.0,0.5,0.0,0.0,0.25,1.52,0.64,0.77,53.91,18.9,32.8,0.0,0.0,0.5,0.0,0.0,0.0,0.25,0.0,0.0,0.0,0.0,0.0,0.0,1.39,0.02,-0.42,0.0,-37.1,54.6
3.66,0.0,0.0,1.0,1.0,0.0,0.0,0.0,0.0,0.0,0.25,0.0,0.0,0.0,1.08,0.45,0.64,49.95,22.9,44.9,0.0,0.0,0.5,0.0,0.0,0.25,0.25,0.0,0.0,0.0,0.0,0.0,0.0,0.33,0.27,-0.3,0.0,-20.9,49.0
3.68,0.0,0.0,1.0,1.0,0.0,0.0,0.0,0.0,0.25,0.5,0.0,0.0,0.25,-0.23,0.2,0.39,52.1,15.9,15.5,0.25,0.0,0.5,0.0,0.0,0.0,0.25,0.0,0.0,0.0,0.0,0.25,0.0,0.39,0.2,-0.3,0.0,-30.4,27.0
3.7,0.25,0.0,1.0,0.25,0.0,0.0,0.0,0.0,0.25,0.25,0.0,0.0,0.25,-0.05,0.14,0.45,48.31,20.9,19.3,2.25,1.0,2.0,0.25,0.5,1.25,0.25,0.0,0.25,1.0,0.25,0.0,0.5,0.7,0.02,-0.3,42.95,-13.6,38.8
3.72,0.0,0.0,1.0,0.25,0.0,0.0,0.0,0.0,0.5,0.25,0.0,0.0,0.0,0.08,-0.73,0.45,41.59,22.6,19.6,0.5,0.0,0.75,0.25,0.25,0.25,0.25,0.0,0.0,0.0,0.0,0.0,0.0,0.95,0.08,-0.36,51.21,-22.3,62.8
3.74,0.25,0.0,1.0,1.25,0.0,0.0,0.0,0.0,0.25,0.5,0.0,0.0,0.0,0.52,-1.17,0.64,43.2,19.6,34.3,0.0,0.0,0.75,0.0,0.25,0.0,0.25,0.0,0.0,0.0,0.0,0.0,0.0,0.95,0.14,-0.48,53.32,-27.5,55.7
3.76,0.0,0.0,1.0,0.25,0.0,0.0,0.0,0.0,0.25,0.5,0.0,0.0,0.25,1.33,-0.55,0.64,40.96,15.4,1.0,0.0,0.0,0.5,0.0,0.0,0.0,0.25,0.0,0.0,0.0,0.0,0.0,0.0,0.83,0.33,-0.48,36.02,-37.1,54.6
3.78,0.25,0.0,1.25,0.75,0.0,0.0,0.0,0.0,0.25,0.25,0.0,0.0,0.25,1.7,-0.3,0.83,43.46,21.7,29.4,0.25,0.0,0.75,0.0,0.0,0.0,0.0,0.0,0.0,0.0,0.0,0.0,0.0,0.77,0.33,-0.55,28.22,-37.5,69.5
3.8,0.25,0.0,1.0,0.75,0.0,0.0,0.0,0.0,0.5,0.0,0.0,0.0,0.5,1.7,-0.23,0.83,43.97,19.6,18.1,0.0,0.0,2.25,0.0,0.5,0.0,0.5,0.0,0.0,0.0,0.0,0.0,0.25,0.64,0.33,-0.61,30.26,-26.8,44.3
3.82,0.25,0.0,1.0,0.75,0.0,0.0,0.0,0.0,0.25,0.25,0.0,0.0,0.25,1.08,-0.17,0.83,45.61,20.2,26.5,0.0,0.25,0.5,0.0,0.0,0.0,0.0,0.0,0.0,0.0,0.0,0.0,0.0,0.58,0.2,-0.55,26.79,-29.7,73.6
3.84,0.0,0.0,1.0,0.5,0.0,0.0,0.0,0.0,0.25,0.5,0.0,0.0,0.25,0.58,-0.05,0.39,44.03,15.6,6.8,0.0,0.0,0.5,0.0,0.0,0.0,0.25,0.0,0.25,0.0,0.0,0.0,0.25,0.64,0.14,-0.48,28.97,-20.2,-2.7
3.86,0.0,0.0,1.0,0.25,0.0,0.0,0.0,0.0,0.5,0.25,0.0,0.0,0.25,0.45,-0.11,0.33,40.92,18.5,5.1,1.0,0.75,0.75,0.25,0.25,0.5,0.75,0.0,0.5,1.0,0.75,0.0,0.5,0.7,0.08,-0.48,51.57,-10.2,9.9
3.88,0.25,0.0,1.0,0.25,0.0,0.0,0.0,0.0,0.25,0.25,0.0,0.0,0.25,0.33,-0.42,0.39,38.67,20.9,19.3,1.25,0.75,0.75,0.25,0.25,1.25,0.25,0.0,0.25,1.0,0.0,0.0,0.25,0.83,0.14,-0.48,73.35,-7.3,32.7
3.9,0.0,0.0,1.0,0.25,0.0,0.0,0.0,0.0,0.5,0.5,0.0,0.0,0.25,0.39,-0.61,0.27,38.64,15.1,-2.8,1.25,0.75,2.0,0.5,0.5,1.5,0.5,0.0,0.25,1.0,0.75,0.0,0.5,0.89,0.14,-0.48,108.67,-10.8,25.5
3.92,0.0,0.0,1.0,0.75,0.0,0.0,0.0,0.75,0.25,0.5,0.0,0.0,0.25,0.27,-0.42,0.45,44.28,8.9,1.0,1.25,0.75,2.0,0.5,0.5,1.5,0.25,0.0,0.25,1.0,0.25,0.0,0.5,0.83,0.2,-0.48,130.09,-10.5,31.1
3.94,0.0,0.0,1.0,0.5,0.0,0.0,0.0,0.25,0.25,0.25,0.0,0.0,0.25,0.33,-0.23,0.27,45.22,15.5,10.4,1.25,0.75,2.0,0.25,0.5,1.25,0.25,0.0,0.25,1.0,0.25,0.0,0.5,0.77,0.14,-0.48,142.23,-11.2,30.2
3.96,0.25,0.0,1.0,0.75,0.0,0.0,0.0,0.0,0.25,0.25,0.0,0.0,0.5,0.89,-0.36,0.27,48.03,17.3,15.0,1.0,0.5,2.0,0.25,0.5,1.25,0.25,0.0,0.25,1.0,0.25,0.0,0.5,0.7,0.14,-0.48,147.56,-10.4,25.8
3.98,0.5,0.0,1.0,0.75,0.0,0.0,0.0,1.25,0.5,0.5,0.0,0.0,0.5,0.95,-0.23,0.33,58.18,7.8,-1.5,1.25,0.75,2.0,1.0,0.5,0.75,0.25,0.0,0.25,1.0,0.25,0.0,0.5,0.7,0.14,-0.48,150.23,-13.7,32.5
4.0,0.0,0.0,1.0,0.5,0.0,0.0,0.0,0.25,0.25,0.25,0.0,0.0,0.25,0.95,-0.17,0.39,56.66,15.5,10.4,1.25,0.5,2.0,0.5,0.5,1.0,0.25,0.0,0.25,1.0,0.25,0.0,0.5,0.7,0.2,-0.48,147.31,-12.4,28.7
4.02,0.0,0.0,1.0,0.25,0.0,0.0,0.0,0.0,0.25,0.25,0.0,0.0,0.25,0.83,-0.11,0.39,50.15,19.3,10.3,0.5,0.75,2.0,0.25,0.5,1.25,0.25,0.0,0.25,1.0,0.25,0.0,0.5,0.7,0.2,-0.48,141.84,-9.0,23.8
4.04,1.0,0.0,1.0,0.25,0.0,0.0,0.0,0.0,0.25,0.25,0.0,0.0,0.25,0.83,-0.11,0.45,47.71,24.2,37.8,1.0,0.5,2.0,0.5,0.5,2.0,0.5,0.0,0.25,0.0,0.75,0.25,0.5,0.77,0.2,-0.48,141.16,-11.2,29.7
4.06,1.0,0.0,1.0,0.5,0.0,0.0,0.0,0.25,0.25,0.25,0.75,0.0,0.25,0.77,-0.17,0.52,54.12,19.0,15.0,1.0,0.75,2.0,0.0,0.5,1.25,0.25,0.0,0.25,1.0,0.25,0.0,0.5,0.77,0.2,-0.48,137.69,-10.3,27.2
4.08,0.75,0.0,1.0,0.5,0.0,0.0,0.0,1.75,0.25,0.5,0.5,0.0,0.25,0.7,-0.3,0.52,67.02,7.3,-3.3,1.25,0.5,2.0,0.25,0.5,1.25,0.25,0.0,0.25,0.75,0.5,0.0,0.5,0.77,0.2,-0.48,132.78,-12.0,28.0
4.1,1.0,0.0,1.0,0.5,0.0,0.0,0.0,0.25,0.5,0.25,0.75,0.0,0.25,0.7,-0.42,0.58,74.82,18.6,12.0,1.25,0.75,2.0,0.5,0.5,1.25,0.25,0.0,0.25,1.0,0.75,0.0,0.5,0.77,0.2,-0.48,131.1,-11.4,25.2
4.12,0.5,0.0,1.0,0.75,0.0,0.0,0.0,0.0,0.25,0.25,0.5,0.0,0.5,0.7,-0.48,0.52,75.04,17.6,8.5,1.25,0.25,2.0,0.5,0.5,1.0,0.25,0.0,0.25,1.0,0.5,0.0,0.5,0.77,0.2,-0.48,129.6,-12.3,23.2
4.14,0.25,0.0,0.75,0.5,0.0,0.0,0.0,0.5,0.25,0.25,1.0,0.0,0.5,0.64,-0.55,0.52,70.39,10.1,-19.2,0.75,0.5,2.0,0.5,0.5,1.25,0.25,0.0,0.25,1.0,0.5,0.0,0.5,0.77,0.2,-0.48,126.63,-10.0,21.6
4.16,0.25,0.0,1.0,0.25,0.0,0.0,0.0,0.0,0.25,0.0,0.75,0.0,0.25,0.7,-0.48,0.45,60.02,21.5,2.9,1.0,0.25,2.0,0.25,0.5,1.25,0.25,0.0,0.25,1.0,0.25,0.0,0.5,0.77,0.2,-0.48,122.95,-10.4,23.2
4.18,0.25,0.0,1.0,0.25,0.0,0.0,0.0,0.0,0.25,0.0,0.75,0.0,0.25,0.7,-0.42,0.45,52.6,21.5,2.9,1.25,0.5,2.0,0.0,0.5,1.0,0.25,0.0,0.25,1.0,0.5,0.0,0.5,0.77,0.2,-0.48,121.37,-12.0,23.4
4.2,0.25,0.0,1.0,0.75,0.0,0.0,0.0,1.25,0.25,0.0,0.75,0.0,0.25,0.7,-0.42,0.45,55.59,10.4,-2.1,1.25,1.25,1.25,0.25,0.25,1.0,0.25,0.0,0.25,0.75,0.0,0.0,0.25,0.77,0.14,-0.48,115.14,-12.0,44.1
4.22,0.25,0.0,0.75,0.5,0.0,0.0,0.0,0.25,0.25,0.0,0.75,0.0,0.25,0.64,-0.42,0.45,53.28,16.5,-0.6,0.25,0.0,2.0,0.0,0.5,0.0,0.25,0.0,0.0,0.0,0.25,0.0,0.5,0.77,0.14,-0.42,94.95,-22.5,28.7
4.24,0.0,0.0,1.0,0.25,0.0,0.0,0.0,1.25,0.5,0.0,0.75,0.0,0.25,0.64,-0.42,0.45,58.38,8.2,-18.0,0.0,0.0,0.0,0.25,0.0,0.0,0.0,0.0,0.0,0.0,0.0,0.0,0.0,0.77,0.2,-0.42,57.36,-17.2,57.9
4.26,0.5,0.0,1.0,0.25,0.0,0.0,0.0,1.0,0.25,0.0,0.75,0.0,0.25,0.7,-0.42,0.52,59.02,12.7,-1.9,0.25,0.0,0.25,0.0,0.0,0.0,0.0,0.0,0.0,0.0,0.0,0.0,0.25,0.77,0.2,-0.42,24.77,-19.3,13.7
4.28,0.0,0.0,1.0,0.5,0.0,0.0,0.0,0.25,0.25,0.0,0.75,0.0,0.25,0.77,-0.42,0.52,54.97,17.0,-3.0,0.0,0.0,0.25,0.0,0.0,0.0,0.0,0.0,0.0,0.0,0.0,0.0,0.0,0.77,0.2,-0.42,0.0,-38.2,60.9
4.3,0.5,0.0,1.0,0.25,0.0,0.0,0.0,0.25,0.25,0.0,0.75,0.0,0.25,0.7,-0.42,0.58,51.17,19.5,6.5,0.0,0.0,0.0,0.0,0.0,0.25,0.0,0.0,0.0,0.0,0.0,0.0,0.0,0.7,0.2,-0.42,0.0,22.9,34.0
4.32,0.0,0.0,1.0,0.25,0.0,0.0,0.0,0.5,0.25,0.25,0.75,0.0,0.25,0.7,-0.42,0.52,49.16,11.9,-16.1,1.25,0.25,0.5,0.5,0.0,1.25,0.25,0.0,0.25,1.0,0.0,0.0,0.0,0.77,0.2,-0.36,7.53,-7.3,31.9
4.34,0.25,0.0,1.0,0.25,0.0,0.0,0.0,0.25,0.25,0.25,0.75,0.0,0.25,0.7,-0.42,0.52,49.85,15.7,-6.2,1.25,0.75,2.0,0.75,0.5,1.25,0.25,0.0,0.25,1.0,0.25,0.0,0.5,0.77,0.27,-0.36,53.9,-11.6,31.8
4.36,0.25,0.0,1.0,0.25,0.0,0.0,0.0,0.0,0.25,0.0,0.75,0.0,0.25,0.64,-0.42,0.52,47.43,21.5,2.9,1.25,1.0,2.0,0.75,0.5,1.25,0.25,0.0,0.25,1.0,0.75,0.0,0.5,0.77,0.27,-0.36,99.67,-11.6,28.2
4.38,0.25,0.0,1.0,0.25,0.0,0.0,0.0,0.0,0.25,0.0,0.75,0.0,0.25,0.64,-0.42,0.58,45.88,21.5,2.9,0.0,0.0,2.0,0.0,0.5,0.0,0.25,0.0,0.0,0.0,0.0,0.0,0.0,0.83,0.33,-0.36,97.59,-29.3,57.9
4.4,0.25,0.0,0.75,0.25,0.0,0.0,0.0,0.25,0.25,0.0,0.75,0.0,0.25,0.64,-0.42,0.52,43.86,16.5,-6.2,0.0,0.0,0.25,0.0,0.0,0.0,0.0,0.0,0.0,0.0,0.0,0.0,0.0,0.83,0.33,-0.36,71.18,-38.2,60.9
4.42,0.25,0.0,1.0,0.25,0.0,0.0,0.0,0.25,0.5,0.0,0.75,0.0,0.25,0.64,-0.42,0.52,44.54,17.9,-3.3,0.0,0.0,0.0,0.0,0.0,0.0,0.0,0.0,0.0,0.0,0.0,0.0,0.0,0.83,0.33,-0.36,34.45,0.0,0.0
4.44,0.0,0.0,1.0,0.0,0.0,0.0,0.0,0.25,0.25,0.25,0.75,0.0,0.25,0.7,-0.42,0.52,42.53,13.9,-21.1,0.0,0.0,0.0,0.0,0.0,0.0,0.0,0.0,0.0,0.0,0.0,0.0,0.25,0.83,0.33,-0.36,11.71,13.7,-109.8
4.46,0.25,0.0,0.75,0.0,0.0,0.0,0.0,0.25,0.25,0.25,0.75,0.0,0.25,0.64,-0.48,0.52,42.9,13.5,-18.7,0.0,0.0,0.0,0.0,0.0,0.0,0.0,0.0,0.25,1.0,0.0,0.25,0.0,0.77,0.27,-0.42,10.45,7.0,-75.1
4.48,0.25,0.0,1.0,0.25,0.0,0.0,0.0,0.25,0.25,0.25,0.75,0.0,0.25,0.58,-0.48,0.52,44.04,15.7,-6.2,1.25,0.75,1.75,0.5,0.5,1.25,0.25,0.0,0.25,1.25,0.25,0.25,0.5,0.77,0.27,-0.36,57.02,-9.7,23.0
4.5,0.25,0.0,1.0,0.25,0.0,0.0,0.0,0.25,0.25,0.0,0.75,0.0,0.25,0.52,-0.48,0.52,45.48,18.3,-0.4,1.25,0.5,2.0,0.25,0.5,0.0,0.25,0.0,0.0,0.0,0.5,0.0,0.75,0.77,0.2,-0.36,81.88,-21.3,36.7
4.52,0.5,0.0,1.0,0.25,0.0,0.0,0.0,0.25,0.25,0.0,0.75,0.0,0.25,0.52,-0.48,0.52,48.68,19.5,6.5,0.0,0.0,0.5,0.0,0.25,0.0,0.25,0.0,0.0,0.0,0.0,0.0,0.0,0.77,0.2,-0.42,72.97,-24.5,54.2
4.54,0.75,0.0,1.0,0.25,0.0,0.0,0.0,0.0,0.25,0.0,0.75,0.0,0.25,0.52,-0.48,0.52,50.55,23.5,16.7,0.0,0.0,0.0,0.0,0.0,0.0,0.25,0.0,0.0,0.0,0.0,0.0,0.0,0.77,0.2,-0.42,43.63,-32.4,27.3
4.56,0.75,0.0,1.0,0.0,0.0,0.0,0.0,0.25,0.25,0.0,0.5,0.0,0.25,0.58,-0.55,0.58,51.06,21.7,15.9,0.0,0.0,0.5,0.0,0.25,0.5,0.25,0.0,0.0,0.0,0.0,0.0,0.25,0.77,0.27,-0.42,21.02,-5.0,22.9
4.58,0.25,0.0,1.0,0.25,0.0,0.0,0.0,0.25,0.25,0.0,0.5,0.0,0.25,0.64,-0.55,0.64,49.08,19.0,6.0,0.0,0.0,0.5,0.0,0.0,0.0,0.0,0.0,0.0,0.0,0.0,0.0,0.0,0.77,0.27,-0.42,4.06,-38.2,60.9
4.6,0.0,0.0,1.0,0.0,0.0,0.0,0.0,0.0,0.5,0.0,0.5,0.25,0.25,0.64,-0.61,0.64,45.41,19.6,-19.2,0.0,0.0,0.5,0.0,0.0,0.0,0.25,0.0,0.0,0.0,0.0,0.0,0.25,0.77,0.27,-0.42,5.69,-22.5,7.1
4.62,0.75,0.0,1.0,0.25,0.0,0.0,0.0,0.0,0.25,0.25,0.5,0.0,0.25,0.64,-0.61,0.64,46.64,21.4,16.4,1.0,0.0,0.0,0.0,0.0,0.5,0.0,0.0,0.0,0.0,0.0,0.0,0.0,0.77,0.27,-0.42,16.95,-15.5,76.4
4.64,0.25,0.0,1.0,0.25,0.0,0.0,0.0,0.0,0.25,0.25,0.75,0.0,0.25,0.64,-0.61,0.64,46.58,18.4,-3.5,0.0,0.0,0.0,0.25,0.0,1.0,0.25,0.0,0.25,0.5,0.25,0.25,0.5,0.77,0.27,-0.42,28.7,6.5,-32.1
4.66,1.0,0.0,1.0,0.25,0.0,0.0,0.0,0.0,0.25,0.0,0.5,0.0,0.5,0.64,-0.42,0.39,50.88,22.4,19.2,0.25,0.0,0.75,0.0,0.0,0.0,0.25,0.0,0.0,0.0,0.0,0.0,0.25,0.77,0.27,-0.42,26.66,-27.5,32.5
4.68,0.75,0.0,1.0,0.25,0.0,0.0,0.0,0.0,0.25,0.25,1.0,0.0,0.25,0.64,-0.42,0.45,55.02,20.0,4.5,0.0,0.0,0.25,0.0,0.0,0.0,0.0,0.0,0.0,0.0,0.0,0.0,0.0,0.77,0.27,-0.42,17.86,-38.2,60.9
4.7,1.0,0.0,1.0,0.25,0.0,0.0,0.0,0.0,0.25,0.25,0.5,0.0,0.25,0.64,-0.42,0.45,57.56,22.3,21.9,0.5,0.25,0.5,0.0,0.25,1.0,0.25,0.0,0.25,0.5,0.0,0.25,0.5,0.77,0.27,-0.42,27.55,-2.6,5.4
4.72,1.0,0.0,1.0,0.25,0.0,0.0,0.0,0.0,0.25,0.25,0.75,0.0,0.25,0.64,-0.42,0.45,59.2,21.5,15.6,1.25,0.5,2.0,0.25,0.5,1.25,0.25,0.0,0.25,1.25,0.25,0.25,0.5,0.77,0.27,-0.42,62.7,-10.3,20.8
4.74,1.25,0.0,1.0,0.25,0.0,0.0,0.0,0.0,0.25,0.25,0.5,0.0,0.25,0.64,-0.42,0.45,61.08,23.1,26.7,1.25,0.5,2.0,0.25,0.25,0.5,0.25,0.0,0.5,1.0,0.5,0.0,0.5,0.77,0.27,-0.42,98.53,-15.0,20.7
4.76,1.25,0.0,1.0,0.25,0.0,0.0,0.0,0.0,0.5,0.25,0.5,0.0,0.25,0.64,-0.36,0.45,63.52,22.4,22.6,0.0,0.25,0.75,0.25,0.25,1.5,0.25,0.0,0.25,1.25,0.25,0.25,0.5,0.77,0.27,-0.42,114.4,1.9,-9.1
4.78,1.0,0.0,1.0,0.25,0.0,0.0,0.0,0.25,0.25,0.25,0.25,0.0,0.25,0.64,-0.36,0.52,62.9,20.3,24.4,1.0,0.0,2.0,0.25,0.5,0.0,0.25,0.0,0.0,0.0,0.75,0.0,0.75,0.77,0.27,-0.42,114.61,-21.1,23.2
4.8,1.25,0.0,1.0,0.25,0.0,0.0,0.0,0.0,0.25,0.25,0.25,0.0,0.25,0.64,-0.36,0.52,62.51,24.0,33.9,0.0,0.0,0.5,0.0,0.0,0.0,0.25,0.0,0.0,0.0,0.0,0.0,0.0,0.77,0.27,-0.42,82.04,-37.1,54.6
4.82,1.25,0.0,1.0,0.25,0.0,0.0,0.0,0.0,0.25,0.25,0.25,0.0,0.25,0.7,-0.36,0.52,61.03,24.0,33.9,0.0,0.0,0.25,0.0,0.0,0.0,0.0,0.0,0.0,0.0,0.0,0.0,0.0,0.77,0.27,-0.42,50.26,-38.2,60.9
4.84,1.0,0.0,1.0,0.25,0.0,0.0,0.0,0.0,0.25,0.25,0.0,0.0,0.25,0.7,-0.36,0.45,57.32,24.2,37.8,0.0,0.0,0.0,0.0,0.0,0.0,0.0,0.0,0.0,0.0,0.0,0.0,0.0,0.77,0.27,-0.42,20.39,0.0,0.0
4.86,1.25,0.0,1.0,0.25,0.0,0.0,0.0,0.0,0.5,0.0,0.5,0.0,0.25,0.7,-0.36,0.52,57.29,25.0,29.3,0.25,0.0,0.5,0.25,0.0,0.0,0.25,0.0,0.0,0.0,0.0,0.0,0.25,0.77,0.27,-0.42,11.87,-23.6,32.0
4.88,1.0,0.0,1.0,0.25,0.0,0.0,0.0,0.0,0.25,0.25,0.25,0.0,0.25,0.7,-0.36,0.52,55.73,23.2,29.3,0.0,0.25,0.0,0.0,0.25,0.0,0.25,0.0,0.0,0.0,0.0,0.0,0.0,0.77,0.27,-0.42,4.36,-9.2,66.3
4.9,1.0,0.0,1.0,0.5,0.0,0.0,0.0,0.0,0.25,0.25,0.25,0.0,0.25,0.7,-0.36,0.52,56.26,22.7,31.4,0.0,0.0,0.0,0.0,0.0,0.0,0.0,0.0,0.0,0.0,0.0,0.0,0.0,0.77,0.27,-0.42,0.33,0.0,0.0
4.92,1.25,0.0,1.0,0.25,0.0,0.0,0.0,0.0,0.25,0.25,0.25,0.0,0.25,0.7,-0.36,0.52,56.14,24.0,33.9,0.0,0.0,0.0,0.0,0.0,0.0,0.0,0.0,0.0,0.0,0.0,0.0,0.0,0.77,0.27,-0.42,0.0,0.0,0.0
4.94,1.0,0.0,1.0,0.25,0.0,0.0,0.0,0.25,0.25,0.25,0.25,0.0,0.25,0.7,-0.36,0.52,56.84,20.3,24.4,0.0,0.0,0.5,0.0,0.0,0.5,0.0,0.0,0.0,0.0,0.0,0.0,0.0,0.77,0.27,-0.42,0.0,-9.0,48.1
4.96,1.0,0.0,1.0,0.25,0.0,0.0,0.0,0.0,0.25,0.0,0.0,0.0,0.25,0.7,-0.36,0.52,52.92,27.8,48.2,0.25,0.0,0.0,0.0,0.0,0.0,0.0,0.0,0.0,0.0,0.0,0.0,0.0,0.7,0.27,-0.42,0.0,-34.9,97.9
4.98,1.25,0.0,1.0,0.25,0.0,0.0,0.0,0.0,0.25,0.25,0.0,0.0,0.25,0.7,-0.36,0.52,52.41,25.0,42.1,0.0,0.0,0.5,0.0,0.0,0.0,0.0,0.0,0.0,0.0,0.0,0.0,0.0,0.7,0.27,-0.42,0.0,-38.2,60.9
5.0,1.25,0.0,1.0,0.25,0.0,0.0,0.0,0.0,0.25,0.0,0.0,0.0,0.25,0.7,-0.36,0.52,50.78,28.4,52.1,0.25,0.0,0.25,0.0,0.0,0.0,0.25,0.0,0.0,0.0,0.0,0.0,0.0,0.7,0.27,-0.42,0.19,-35.8,68.5
5.02,1.25,0.0,1.0,0.25,0.0,0.0,0.0,0.0,0.25,0.25,0.0,0.0,0.25,0.7,-0.3,0.52,51.97,25.0,42.1,0.0,0.0,0.0,0.0,0.0,0.0,0.0,0.0,0.0,0.0,0.0,0.0,0.0,0.7,0.27,-0.42,1.58,0.0,0.0
5.04,1.25,0.0,1.0,0.25,0.0,0.0,0.0,0.0,0.5,0.0,0.0,0.0,0.25,0.7,-0.36,0.52,52.58,27.1,45.1,0.5,0.0,0.25,0.0,0.0,0.0,0.0,0.0,0.0,0.0,0.0,0.0,0.25,0.7,0.27,-0.42,9.07,-23.0,33.7
5.06,1.0,0.0,1.5,0.5,0.0,0.0,0.0,0.25,0.25,0.25,0.0,0.0,0.25,0.77,-0.36,0.52,58.1,23.0,37.3,0.25,0.25,0.0,0.0,0.0,0.0,0.25,0.0,0.0,0.0,0.0,0.0,0.25,0.77,0.27,-0.42,11.38,-13.5,26.9
5.08,1.25,0.0,1.0,0.25,0.0,0.0,0.0,0.25,0.25,0.25,0.0,0.0,0.25,0.77,-0.36,0.58,59.36,21.9,36.3,0.0,0.0,0.25,0.0,0.25,0.0,0.25,0.0,0.0,0.0,0.0,0.0,0.0,0.77,0.27,-0.42,13.1,-19.1,51.7
5.1,1.25,0.0,1.0,0.25,0.0,0.0,0.0,0.25,0.25,0.25,0.0,0.0,0.25,0.77,-0.36,0.52,60.01,21.9,36.3,0.0,0.0,0.0,0.0,0.0,0.0,0.25,0.0,0.0,0.0,0.0,0.0,0.25,0.77,0.33,-0.42,10.67,-0.9,-66.3
5.12,1.0,0.0,1.0,0.25,0.0,0.0,0.0,0.25,0.25,0.0,0.0,0.0,0.25,0.7,-0.36,0.58,57.04,24.1,40.9,0.0,0.25,0.25,0.0,0.0,0.0,0.25,0.0,0.0,0.0,0.0,0.0,0.0,0.77,0.33,-0.42,11.81,-26.7,70.0
5.14,1.0,0.0,1.0,0.25,0.0,0.0,0.0,0.0,0.25,0.25,0.0,0.0,0.25,0.7,-0.3,0.52,54.03,24.2,37.8,0.0,0.0,0.25,0.0,0.0,0.0,0.25,0.0,0.0,0.0,0.0,0.0,0.25,0.77,0.27,-0.42,11.07,-16.0,-14.6
5.16,1.25,0.0,1.0,0.25,0.0,0.0,0.0,0.0,0.25,0.25,0.0,0.0,0.25,0.7,-0.3,0.52,52.77,25.0,42.1,0.5,0.0,0.5,0.0,0.25,0.25,0.25,0.0,0.0,0.0,0.0,0.0,0.25,0.77,0.27,-0.42,18.39,-15.9,40.1
5.18,1.25,0.0,1.0,0.25,0.0,0.0,0.0,0.0,0.25,0.25,0.0,0.0,0.25,0.7,-0.3,0.52,53.21,25.0,42.1,0.5,0.25,0.5,0.0,0.25,0.0,0.25,0.0,0.0,0.0,0.0,0.0,0.5,0.77,0.33,-0.42,26.56,-16.2,29.9
5.2,1.0,0.0,1.0,0.25,0.0,0.0,0.0,0.0,0.25,0.25,0.0,0.0,0.25,0.7,-0.3,0.52,52.67,24.2,37.8,0.75,0.0,0.5,0.0,0.25,0.5,0.25,0.0,0.0,0.0,0.25,0.0,0.25,0.77,0.33,-0.42,37.66,-13.6,34.0
