time,left pressure 0[N/cm²],left pressure 1[N/cm²],left pressure 2[N/cm²],left pressure 3[N/cm²],left pressure 4[N/cm²],left pressure 5[N/cm²],left pressure 6[N/cm²],left pressure 7[N/cm²],left pressure 8[N/cm²],left pressure 9[N/cm²],left pressure 10[N/cm²],left pressure 11[N/cm²],left pressure 12[N/cm²],left acceleration X[g],left acceleration Y[g],left acceleration Z[g],left total force[N],left center of pressure X[mm],left center of pressure Y[mm],right pressure 0[N/cm²],right pressure 1[N/cm²],right pressure 2[N/cm²],right pressure 3[N/cm²],right pressure 4[N/cm²],right pressure 5[N/cm²],right pressure 6[N/cm²],right pressure 7[N/cm²],right pressure 8[N/cm²],right pressure 9[N/cm²],right pressure 10[N/cm²],right pressure 11[N/cm²],right pressure 12[N/cm²],right acceleration X[g],right acceleration Y[g],right acceleration Z[g],right total force[N],right center of pressure X[mm],right center of pressure Y[mm]
0.02,0.0,0.0,0.0,0.0,0.0,0.5,0.0,4.75,1.0,6.0,4.25,5.0,6.0,-0.17,0.08,0.95,333.78,-6.1,-79.9,0.0,0.0,0.5,0.5,1.5,0.0,0.0,0.25,0.5,2.25,0.0,0.25,0.0,0.89,-0.3,1.7,0.0,1.3,-11.8
0.04,0.0,0.0,0.0,1.25,3.5,1.0,0.25,5.25,1.0,6.0,4.25,4.75,6.0,-0.17,0.08,0.95,432.16,-5.2,-55.6,0.75,0.0,0.75,0.75,0.0,0.0,0.0,0.5,0.5,2.25,0.0,0.25,0.0,0.77,-0.48,1.14,0.0,-5.5,-12.9
0.06,0.0,0.0,0.0,2.25,0.0,1.25,0.25,5.5,1.25,6.0,2.75,4.75,5.5,-0.17,0.08,0.95,486.42,-5.4,-63.7,0.0,0.0,0.0,0.5,0.0,0.0,0.0,0.25,0.0,0.0,0.0,0.0,0.0,0.77,-0.98,0.95,0.0,-6.2,26.6
0.08,0.5,0.0,0.0,2.5,0.0,2.0,0.5,5.75,2.0,6.25,5.75,5.0,6.0,-0.17,0.08,0.95,551.84,-3.4,-59.8,0.5,0.25,0.0,0.75,0.0,0.75,0.0,0.0,0.0,0.0,0.25,0.0,0.25,0.58,-0.67,1.2,0.0,-5.8,34.7
0.1,1.0,0.0,0.0,2.5,2.5,1.75,0.5,6.0,2.0,6.0,5.75,4.5,6.0,-0.11,0.08,0.95,586.54,-3.0,-49.1,0.0,0.0,0.5,0.5,1.5,0.0,0.0,0.0,0.0,0.75,0.25,0.0,0.0,0.2,-0.3,0.52,0.0,-3.6,21.1
0.12,0.0,0.0,0.0,2.5,3.5,2.25,0.5,6.0,2.25,6.0,5.5,4.0,5.5,-0.11,0.08,0.95,617.96,-4.2,-46.7,0.0,0.25,0.25,0.5,0.0,1.25,0.0,0.5,0.5,1.5,0.0,0.0,0.0,0.2,-0.3,0.39,0.0,6.5,-8.4
0.14,0.0,0.0,0.25,2.75,3.75,2.5,1.0,6.0,2.5,6.0,5.75,4.0,5.5,-0.11,0.08,0.95,636.98,-3.5,-43.8,0.0,0.0,0.25,0.5,1.25,0.0,0.0,0.25,0.0,0.75,0.0,0.0,0.0,0.33,-0.23,0.77,0.0,0.5,17.6
0.16,0.0,0.0,1.0,3.75,4.75,2.5,0.75,6.25,2.5,6.0,5.5,3.5,4.75,-0.11,0.08,0.95,643.91,-2.4,-34.5,0.0,0.0,0.0,0.5,0.0,0.0,0.0,0.5,0.0,0.25,0.0,0.0,0.0,0.45,-0.23,0.83,0.0,2.5,-6.2
0.18,1.0,0.25,1.25,3.5,5.0,2.5,0.75,6.0,2.75,5.0,5.5,3.0,4.25,-0.11,0.08,0.95,630.35,-0.8,-27.2,0.0,0.0,1.75,0.5,1.5,0.0,0.0,0.0,0.5,2.0,0.0,0.0,0.0,0.45,-0.05,0.83,28.38,-7.1,9.6
0.2,1.5,0.5,1.25,4.25,5.0,2.75,1.0,6.0,2.5,4.75,4.5,2.5,3.75,-0.11,0.08,0.95,618.6,-0.2,-19.2,0.5,0.25,0.25,0.75,1.5,1.0,0.25,1.0,0.5,2.25,0.25,0.25,0.0,0.33,0.2,0.77,73.33,2.4,-1.4
0.22,0.0,1.0,1.5,6.25,5.75,3.25,1.0,6.0,2.75,3.5,4.0,2.0,2.5,-0.11,0.08,0.95,595.31,0.2,-8.6,0.0,0.0,1.0,0.75,1.5,1.0,0.0,0.75,0.5,2.25,0.0,0.25,0.5,0.27,0.27,0.95,106.77,2.4,-7.8
0.24,1.0,1.0,1.5,6.5,6.0,3.25,1.0,5.75,2.5,3.25,3.5,1.5,2.25,-0.11,0.08,0.95,570.57,1.1,-1.6,0.25,0.25,1.5,0.75,1.25,1.25,0.25,1.0,0.5,2.0,0.25,0.25,0.5,0.2,0.33,1.2,137.63,-1.1,-0.2
0.26,2.0,1.0,1.75,7.75,6.5,3.75,1.0,5.5,2.5,2.5,3.25,1.0,1.75,-0.11,0.08,0.95,575.99,2.7,8.8,0.0,0.0,1.25,0.75,1.25,1.25,0.0,1.0,0.0,0.5,0.25,0.0,0.25,0.2,0.39,1.39,139.11,-0.8,17.6
0.28,2.75,1.0,2.5,8.0,7.0,3.75,1.0,5.25,2.5,1.75,2.75,1.0,1.5,-0.11,0.08,0.95,587.53,4.4,15.7,0.0,0.0,0.25,0.5,0.0,0.0,0.0,0.5,0.0,0.75,0.0,0.0,0.0,0.27,0.58,1.52,110.34,0.6,-14.7
0.3,2.75,1.0,2.75,9.0,7.5,4.0,1.0,5.25,2.25,1.75,2.25,1.0,1.25,-0.11,0.08,0.95,610.31,4.7,19.8,0.5,0.25,0.0,0.75,0.0,1.0,0.0,0.0,0.5,2.25,0.0,0.0,0.0,0.39,0.64,1.7,94.56,3.4,-7.7
0.32,2.25,1.0,3.0,9.0,7.75,4.5,1.25,5.0,2.0,1.75,2.0,1.0,1.0,-0.11,0.08,0.95,619.44,4.4,21.6,0.5,0.25,1.0,0.75,1.25,1.0,0.0,0.75,0.5,2.0,0.0,0.0,0.5,0.52,0.7,1.77,99.24,-0.1,3.8
0.34,2.5,1.0,3.0,10.5,8.0,4.5,1.25,4.75,2.0,1.75,1.5,1.0,0.5,-0.11,0.08,0.95,637.25,5.3,26.6,0.0,0.25,1.0,0.75,1.25,1.0,0.25,0.75,0.5,2.0,0.25,0.25,0.0,0.45,0.89,2.02,112.24,0.0,0.2
0.36,2.5,1.25,3.0,10.5,8.25,4.5,1.5,4.75,1.5,1.5,1.5,0.5,0.75,-0.11,0.08,0.95,647.51,5.2,29.3,1.25,0.25,1.25,0.75,1.25,1.0,0.25,1.0,0.5,1.25,0.25,0.0,0.5,0.08,1.27,2.33,132.63,-5.2,15.7
0.38,2.5,1.25,3.25,11.5,8.5,4.5,1.5,4.5,1.0,1.25,1.0,0.25,0.5,-0.11,0.08,0.95,653.64,5.8,35.1,0.5,0.25,1.0,0.75,1.75,1.25,0.25,1.0,0.5,2.0,0.0,0.25,0.5,-0.92,1.89,3.08,148.67,0.4,3.8
0.4,2.75,1.75,4.75,11.5,8.75,4.5,1.5,3.0,1.0,1.25,1.0,0.25,0.5,-0.11,0.14,0.95,666.02,8.0,39.8,0.25,0.25,0.5,0.75,1.25,1.0,0.0,1.0,0.5,1.75,0.0,0.25,0.5,-0.3,2.33,0.89,145.98,3.0,-4.7
0.42,3.5,2.5,4.75,12.5,9.0,4.5,1.5,3.25,0.75,1.0,1.0,0.0,0.5,-0.11,0.14,0.95,694.72,8.6,43.6,0.75,0.0,0.5,0.75,1.25,1.0,0.25,0.75,0.5,2.0,0.25,0.25,0.0,-0.86,3.2,0.64,136.27,-0.2,1.6
0.44,3.25,2.5,5.5,12.5,9.5,4.75,1.5,3.25,0.25,1.0,0.5,0.0,0.5,-0.11,0.14,0.95,721.73,8.5,45.8,0.75,0.25,0.5,0.75,1.25,1.0,0.0,1.0,0.5,2.0,1.25,0.25,0.5,-2.23,4.33,0.45,139.07,0.0,-10.2
0.46,3.25,2.5,6.0,13.5,9.5,4.5,1.5,3.5,0.0,0.75,0.75,0.0,0.5,-0.11,0.14,1.02,751.99,9.2,46.3,0.5,0.25,0.5,0.75,1.25,0.75,0.0,0.75,0.5,2.5,0.25,0.25,0.5,-2.17,3.14,0.39,139.79,1.8,-10.0
0.48,4.0,2.5,6.0,14.0,9.5,4.5,1.5,2.75,0.25,1.0,0.75,0.0,0.5,-0.17,0.14,1.02,778.73,10.0,47.4,0.75,0.25,0.5,0.75,1.75,1.0,0.0,1.0,0.5,4.5,1.5,3.0,4.0,0.58,0.64,2.39,192.92,3.1,-49.3
0.5,0.0,3.0,6.0,14.0,10.0,4.5,1.5,2.75,0.0,0.25,0.75,0.0,0.25,-0.17,0.14,1.02,766.72,8.3,47.3,0.0,0.0,0.5,0.5,1.25,1.5,0.0,1.0,0.5,6.75,2.5,5.5,7.0,-0.42,0.08,1.27,274.11,5.4,-71.7
0.52,0.0,0.0,0.0,8.0,0.0,0.0,0.0,0.0,0.0,0.0,0.0,0.0,0.0,-0.17,0.2,1.08,505.37,17.2,57.9,0.75,0.0,0.5,0.75,1.25,0.0,0.0,2.75,0.75,8.5,6.25,6.0,7.75,-0.55,0.77,2.33,389.87,3.0,-71.7
0.54,0.0,0.0,0.0,8.25,0.0,1.5,0.0,0.0,0.25,0.75,0.0,0.0,0.0,-0.17,0.27,1.08,317.92,9.7,43.6,0.5,0.0,0.5,0.5,1.5,2.25,0.0,4.75,1.0,9.0,6.25,6.0,8.0,0.14,0.39,1.08,525.72,5.2,-65.5
0.56,7.25,4.0,7.0,14.0,9.5,2.0,0.25,2.0,0.5,0.75,0.25,0.0,0.25,-0.23,0.27,1.14,362.77,14.1,56.8,0.75,0.25,0.5,0.75,1.25,1.25,0.25,5.25,1.0,9.0,5.0,5.75,7.75,0.02,0.14,1.02,622.43,4.9,-64.4
0.58,7.25,3.5,7.0,12.5,0.0,0.75,0.0,2.0,0.5,0.75,0.5,0.0,0.25,-0.3,0.33,1.33,400.04,20.6,57.2,0.75,0.25,1.0,0.75,1.5,3.25,0.0,5.75,1.25,9.0,6.5,5.5,7.75,0.2,0.08,0.95,699.59,4.8,-57.8
0.6,7.25,2.75,6.5,11.5,8.0,0.0,0.0,1.0,0.25,0.75,0.5,0.0,0.25,-0.36,0.33,1.45,513.44,16.8,58.8,0.5,0.25,0.5,0.75,1.0,4.0,0.25,6.0,1.25,8.75,6.0,5.25,7.5,0.14,0.08,0.95,728.75,6.0,-58.8
0.62,7.25,1.25,4.75,8.25,0.0,0.0,0.0,2.0,0.5,0.5,0.5,0.0,0.25,-0.67,0.58,1.7,474.38,21.9,54.8,0.5,0.25,0.5,0.75,1.5,4.5,0.0,6.0,1.25,8.75,6.25,5.25,7.25,0.14,0.08,0.89,749.41,6.1,-56.3
0.64,5.0,1.0,2.25,5.75,0.0,0.0,0.0,1.75,0.5,0.75,0.25,0.0,0.25,-1.05,1.33,2.39,378.87,18.9,48.9,0.5,0.25,0.5,0.75,3.0,4.5,0.25,6.25,1.25,8.75,6.25,4.25,7.25,0.08,0.08,0.95,754.42,6.3,-50.4
0.66,4.25,0.0,1.0,3.0,0.0,0.0,0.0,1.75,0.5,0.5,0.5,0.0,0.25,-0.67,1.02,2.45,251.71,17.4,38.1,0.75,0.75,0.5,1.0,3.5,5.0,0.25,6.5,1.25,8.25,5.75,3.75,6.0,0.08,0.08,0.95,741.61,6.0,-41.7
0.68,1.0,0.0,0.5,2.75,0.0,0.0,0.0,0.0,0.0,0.5,0.75,0.0,0.25,-0.36,0.27,2.27,150.02,16.9,29.0,1.0,0.5,1.0,2.25,5.0,5.75,0.25,6.75,1.25,8.25,4.75,3.0,6.5,0.14,0.08,0.95,730.24,5.6,-32.1
0.7,0.0,0.0,0.25,2.5,0.0,0.0,0.0,0.0,0.0,0.0,0.0,0.0,0.0,-0.98,-0.23,2.02,57.06,19.0,58.1,0.75,1.0,1.25,3.0,5.25,6.0,0.25,6.75,1.25,8.0,4.75,3.0,6.0,0.14,0.08,0.95,716.33,4.9,-27.5
0.72,0.0,0.0,0.0,2.5,0.0,0.0,0.0,0.0,0.0,0.0,0.0,0.0,0.0,-1.17,-0.92,0.83,0.0,17.2,57.9,1.0,1.0,1.75,3.25,5.25,6.25,0.25,6.75,1.25,7.75,4.5,2.5,5.5,0.14,0.08,0.95,697.35,4.3,-22.9
0.74,0.0,0.0,0.0,2.5,0.0,0.0,0.0,0.0,0.0,0.0,0.0,0.0,0.0,-1.3,-1.05,1.27,0.0,17.2,57.9,0.75,1.0,1.75,4.5,6.5,7.0,0.25,6.75,1.25,7.25,3.75,1.5,4.5,0.14,0.08,0.95,686.25,4.3,-13.0
0.76,0.0,0.0,0.0,1.75,0.0,0.0,0.0,0.0,0.0,0.5,0.0,0.0,0.25,-0.73,-0.92,0.27,0.0,7.7,15.4,1.25,1.0,2.0,5.5,7.0,7.0,0.5,6.75,1.25,6.75,2.5,1.5,4.0,0.14,0.08,0.95,685.99,3.3,-5.8
0.78,0.0,0.0,0.0,2.0,0.0,0.0,0.0,0.0,0.25,0.75,0.0,0.0,0.5,-0.61,-0.36,0.83,0.0,5.6,-0.3,1.25,1.25,1.5,5.5,7.75,7.5,0.75,6.75,1.25,6.0,2.5,0.75,3.0,0.14,0.08,0.95,684.71,3.5,0.7
0.8,0.0,0.0,0.0,1.75,0.0,0.0,0.0,0.0,0.25,0.5,0.0,0.0,0.25,-0.42,-0.42,0.45,0.0,8.1,10.7,1.5,1.75,1.75,7.25,8.25,7.5,0.75,6.0,1.25,5.25,2.0,0.75,2.25,0.14,0.08,0.95,694.3,1.7,9.9
0.82,0.0,0.0,0.0,1.75,0.0,0.0,0.0,0.0,0.25,0.0,0.0,0.0,0.5,-0.55,-0.23,0.64,0.0,10.5,15.4,1.5,1.75,2.75,7.5,8.75,7.75,0.75,6.0,1.0,5.0,0.25,0.25,2.25,0.14,0.08,0.95,697.89,1.4,17.1
0.84,0.0,0.0,0.0,1.5,0.0,0.0,0.0,0.0,0.25,0.5,0.0,0.0,0.25,-0.61,-0.23,0.7,0.0,7.2,5.9,1.75,1.75,2.75,8.25,9.0,7.75,0.75,5.5,0.75,4.0,1.0,0.25,1.5,0.14,0.08,0.95,704.17,0.1,22.0
0.86,0.0,0.0,0.25,1.0,0.0,0.0,0.5,0.0,0.25,0.5,0.0,0.0,0.25,-0.67,-0.05,0.7,0.0,10.6,2.8,2.0,2.0,2.5,9.0,9.5,8.0,0.75,5.25,0.5,4.0,0.5,0.25,1.25,0.14,0.08,0.95,710.67,0.0,26.0
0.88,0.0,0.0,0.5,1.0,0.0,0.0,0.0,0.0,0.25,0.5,0.0,0.0,0.25,-0.61,0.08,1.02,15.97,11.4,6.4,2.0,2.0,2.75,9.25,9.5,8.0,0.75,5.0,0.5,4.0,0.25,0.25,1.25,0.14,0.08,0.95,717.42,-0.3,27.3
0.9,0.0,0.0,0.5,1.25,0.0,0.0,0.0,0.0,0.0,0.5,0.0,0.0,0.25,-0.48,0.27,1.14,29.16,11.9,15.9,2.0,2.25,3.0,10.0,11.0,8.0,0.75,4.25,0.5,3.75,0.25,0.25,1.0,0.14,0.08,0.95,736.78,-1.1,31.6
0.92,0.0,0.0,0.25,0.75,0.0,0.0,0.0,0.0,0.0,0.25,0.0,0.0,0.25,-0.42,0.39,1.33,31.99,10.2,9.0,2.0,2.5,2.75,11.0,11.0,8.25,0.25,4.0,0.5,3.75,0.25,0.25,1.0,0.14,0.14,0.95,756.32,-1.1,32.7
0.94,0.0,0.0,0.5,0.5,0.0,0.0,0.0,0.0,0.0,0.0,0.0,0.0,0.25,-0.36,0.58,1.39,28.34,19.4,25.8,2.0,2.75,2.75,11.0,11.0,8.5,0.25,3.75,0.5,3.25,0.25,0.25,1.0,0.14,0.14,0.95,774.42,-1.4,34.5
0.96,0.0,0.0,0.5,0.5,0.0,0.0,0.0,0.0,0.25,0.5,0.0,0.0,0.25,-0.42,0.64,1.58,26.14,9.9,-6.7,2.25,2.75,3.25,12.0,12.0,8.5,0.25,3.75,0.5,3.25,0.25,0.25,1.0,0.08,0.14,0.95,806.35,-2.1,36.0
0.98,0.0,0.0,0.5,0.75,0.0,0.0,0.0,0.0,0.0,0.75,0.0,0.0,0.75,-0.55,0.7,1.7,29.88,3.8,-22.8,2.75,2.0,3.0,12.5,12.5,8.5,0.25,2.5,0.5,2.75,0.25,0.25,0.75,0.08,0.14,0.95,821.9,-2.9,39.6
1.0,0.0,0.0,0.5,0.5,0.0,0.0,0.0,0.0,0.0,0.25,0.25,0.0,0.25,-0.55,0.77,2.33,29.68,13.3,-2.0,3.5,2.75,3.25,12.5,12.5,8.5,0.25,2.5,0.5,2.5,0.75,0.25,0.5,0.08,0.14,0.95,846.84,-3.9,41.6
1.02,0.0,0.0,0.5,1.0,0.0,0.0,0.0,0.0,0.25,0.75,0.75,0.0,0.25,-0.48,0.95,2.45,38.54,9.3,-16.1,3.75,3.0,3.25,14.0,13.5,8.5,0.25,1.75,0.5,2.25,0.25,0.25,0.25,0.08,0.14,0.95,875.27,-4.7,46.3
1.04,0.0,0.0,0.5,1.0,0.0,0.0,0.0,0.0,0.25,0.5,0.5,0.0,0.25,-0.55,1.45,2.52,43.57,11.3,-6.5,4.75,3.75,4.25,14.0,14.0,8.5,0.0,1.75,0.5,2.25,0.0,0.25,0.0,0.08,0.14,1.02,922.55,-5.8,49.5
1.06,0.0,0.0,0.5,1.0,0.0,0.0,0.0,0.0,0.25,0.75,0.5,0.0,0.25,-0.17,1.52,1.45,49.23,9.2,-11.7,5.5,4.0,5.0,15.0,14.0,8.25,0.25,1.75,0.5,2.25,0.25,0.0,0.5,0.14,0.2,1.02,984.41,-6.8,49.4
1.08,0.0,0.0,0.5,1.25,0.0,0.0,0.0,0.0,0.25,0.5,0.5,0.0,0.0,0.33,2.02,1.52,50.71,13.9,7.6,6.5,4.5,5.75,15.5,14.0,8.0,0.25,1.75,0.5,2.25,0.25,0.25,0.5,0.08,0.2,1.02,1058.52,-7.9,50.1
1.1,0.0,0.0,0.0,0.75,0.0,0.0,0.0,0.0,0.25,0.5,0.5,0.0,0.0,1.95,2.2,1.52,46.32,6.8,-19.0,7.0,4.75,5.75,15.5,14.0,7.75,0.0,1.0,0.5,2.0,0.75,0.25,0.0,0.08,0.27,1.02,1109.24,-8.8,52.7
1.12,0.0,0.0,0.0,0.5,0.0,0.0,0.0,0.0,0.25,0.75,0.5,0.0,0.25,2.77,3.89,0.39,42.09,0.8,-44.4,7.5,4.75,5.25,15.5,13.5,7.25,0.0,0.75,0.5,2.25,0.0,0.25,0.75,0.08,0.27,1.08,1129.18,-8.8,52.5
1.14,0.0,0.0,0.0,0.5,0.0,0.0,0.0,0.0,0.25,0.5,0.5,0.0,0.0,1.39,3.58,-0.05,35.5,5.3,-30.4,7.75,4.5,3.25,14.0,12.5,6.0,0.25,1.0,0.5,2.25,0.25,0.25,0.0,0.14,0.33,1.2,1077.33,-8.7,53.6
1.16,0.0,0.0,0.25,0.5,0.0,0.0,0.0,0.0,0.25,0.5,0.0,0.0,0.25,-0.55,0.27,1.08,32.16,5.8,-16.5,7.0,2.75,2.75,12.5,11.0,4.5,0.25,0.75,0.5,2.25,0.25,0.25,0.25,0.14,0.33,1.39,959.23,-9.0,51.2
1.18,0.0,0.0,0.0,0.5,0.0,0.0,0.0,0.0,0.25,1.75,0.0,1.25,1.5,-0.67,-0.73,2.02,50.56,-4.8,-78.6,6.5,2.0,0.5,8.5,9.0,2.25,0.0,1.0,0.0,2.25,0.25,0.0,0.25,0.45,0.58,1.77,757.65,-8.1,50.8
1.2,0.75,0.0,0.0,0.5,0.0,0.0,0.0,0.0,0.25,4.5,0.0,4.25,4.25,0.45,-0.17,0.7,121.39,-3.8,-82.0,5.5,0.5,0.0,4.5,5.75,1.0,0.25,1.0,0.0,0.75,0.25,0.0,0.0,0.83,1.27,2.08,510.96,-10.0,55.0
1.22,0.0,0.0,0.0,0.0,0.0,0.0,0.0,0.0,0.0,0.0,4.5,0.0,6.25,0.27,0.64,3.08,164.46,-3.8,-96.0,2.0,0.0,0.0,3.0,1.25,1.25,0.0,0.0,0.25,2.25,0.0,0.25,0.0,0.33,0.89,2.83,295.72,-5.5,26.5
1.24,0.75,0.0,0.0,0.0,0.0,0.0,0.0,4.75,1.0,6.75,5.25,5.0,6.75,-0.17,0.39,1.39,278.9,-4.8,-78.0,0.5,0.0,0.0,0.75,1.5,0.0,0.0,1.0,0.0,0.0,0.0,0.0,0.0,-0.05,0.45,2.14,134.51,-1.8,36.4
1.26,0.0,0.0,0.0,0.0,0.0,0.5,0.0,5.5,1.0,6.75,0.0,5.25,6.75,0.02,0.14,1.02,348.47,-9.5,-80.4,0.0,0.0,0.0,2.5,1.25,0.0,0.0,0.5,0.0,0.0,0.0,0.0,0.0,0.77,0.39,2.02,0.0,-6.9,45.9
1.28,0.0,0.0,0.0,0.0,2.25,1.0,0.0,5.5,1.0,6.75,5.75,5.0,6.25,-0.17,0.08,0.95,458.37,-5.9,-67.0,0.0,0.0,0.0,0.5,1.75,1.25,0.0,0.0,0.5,2.0,0.0,0.25,0.0,0.89,-0.98,1.64,0.0,7.3,-2.8
1.3,0.0,0.0,0.0,1.25,0.0,1.25,0.25,5.75,2.0,6.75,5.75,5.25,6.25,-0.17,0.08,0.95,528.46,-4.6,-69.6,0.75,0.25,0.75,1.25,1.75,0.0,0.0,0.75,0.5,1.75,0.25,0.25,0.25,0.64,-0.8,-0.17,0.0,-4.5,8.0
1.32,0.75,0.0,0.0,1.25,0.0,1.25,0.25,6.0,2.0,6.75,6.25,5.0,6.25,-0.11,0.08,0.95,593.64,-3.8,-65.9,0.0,0.25,0.5,1.0,2.25,2.0,0.25,1.0,0.5,2.25,0.0,0.25,0.5,0.64,-0.98,1.27,0.0,5.2,1.1
1.34,1.0,0.0,0.0,1.0,0.0,1.0,0.25,6.0,2.0,6.5,5.75,5.25,6.25,-0.11,0.02,0.95,612.3,-3.6,-66.5,0.0,0.25,0.5,0.75,1.5,1.75,0.0,1.0,0.5,2.0,0.0,0.25,0.75,0.14,-0.48,0.83,0.0,6.0,-7.3
1.36,1.0,0.0,0.0,1.0,0.0,2.0,0.5,6.0,2.0,6.5,6.25,5.0,6.25,-0.11,0.02,0.95,626.09,-3.9,-63.4,0.0,0.5,0.5,0.75,1.5,2.0,0.0,1.0,0.5,2.0,0.25,0.25,0.75,0.02,-0.42,0.39,19.65,5.6,-5.3
1.38,0.0,0.0,0.0,1.5,0.0,1.5,0.5,6.0,2.25,6.0,6.25,5.0,6.0,-0.11,0.02,0.95,618.08,-4.0,-66.6,0.0,0.5,0.5,0.75,1.75,1.5,0.0,0.75,0.5,2.25,0.0,0.25,0.25,0.33,-0.36,0.58,51.22,4.6,1.1
1.4,0.5,0.0,0.0,2.25,2.5,2.0,0.75,6.0,2.5,6.0,6.0,4.25,5.5,-0.11,0.08,0.95,611.89,-3.3,-49.6,0.0,0.25,0.5,0.75,1.5,1.25,0.25,1.0,0.5,2.0,0.0,0.25,0.25,0.52,-0.23,0.83,79.76,4.1,-2.9
1.42,0.0,0.0,1.25,1.75,3.25,2.0,0.75,6.0,2.75,6.0,5.75,4.0,5.25,-0.11,0.02,0.95,600.14,-2.6,-45.9,0.0,0.0,1.0,0.5,1.5,0.75,0.0,0.25,0.5,2.0,0.0,0.0,0.0,0.52,-0.17,0.83,95.86,0.4,4.5
1.44,0.0,0.0,1.25,2.75,4.0,2.5,0.75,6.0,3.0,5.0,5.5,3.25,4.25,-0.11,0.02,0.95,578.96,-1.9,-35.9,0.0,0.25,0.5,0.75,1.75,1.75,0.0,1.0,0.5,2.0,0.25,0.25,0.25,0.58,0.2,0.83,120.62,5.1,-1.6
1.46,2.75,0.0,1.25,2.75,4.25,2.5,1.0,6.0,3.0,4.75,5.25,3.0,4.0,-0.11,0.08,0.95,567.39,0.4,-25.1,0.0,0.25,0.75,0.75,1.5,1.25,0.0,1.25,0.5,2.0,0.25,0.0,0.25,0.58,0.33,0.89,132.66,3.7,-1.5
1.48,2.75,0.0,2.0,4.0,5.0,3.0,1.0,5.75,3.0,3.25,4.25,2.0,2.75,-0.11,0.08,0.95,542.72,2.1,-9.8,0.0,0.25,0.5,0.75,2.25,1.5,0.25,1.0,0.5,2.0,0.5,0.25,0.5,0.52,0.39,1.02,146.4,4.0,-3.4
1.5,2.75,0.25,2.25,4.5,5.25,3.0,1.0,5.5,3.0,3.25,4.0,1.5,2.0,-0.11,0.08,0.95,539.56,2.9,-3.3,0.0,0.5,0.5,0.75,1.25,1.75,0.0,1.0,0.5,2.0,0.25,0.25,0.75,0.45,0.52,1.2,146.97,5.2,-8.0
1.52,3.5,0.75,2.75,5.25,5.25,3.0,1.25,5.5,3.0,2.25,3.0,1.0,1.5,-0.11,0.08,0.95,531.25,4.9,8.6,0.0,0.5,0.5,0.75,1.25,1.75,0.0,1.25,0.5,1.75,0.25,0.25,0.25,0.45,0.64,1.39,145.28,4.8,-1.2
1.54,4.5,0.75,2.75,6.0,6.0,3.25,1.5,5.25,2.5,1.75,2.75,1.0,1.5,-0.11,0.08,0.95,543.76,5.9,15.4,0.0,0.25,0.25,0.75,1.5,1.5,0.0,0.75,0.5,2.0,0.5,0.25,0.5,0.52,0.7,1.45,138.19,5.4,-10.2
1.56,4.0,1.0,3.0,6.75,6.5,3.75,1.5,5.0,2.75,1.75,2.25,1.0,1.5,-0.11,0.08,0.95,564.53,5.7,17.9,0.0,0.25,0.5,0.75,1.25,1.25,0.0,1.0,0.5,2.0,0.0,0.0,0.5,0.7,0.7,1.58,131.01,5.4,-5.5
1.58,4.5,1.0,3.0,8.0,6.5,3.75,1.5,4.75,2.0,1.75,2.25,1.0,1.0,-0.11,0.08,0.95,588.22,6.6,23.1,0.0,0.25,0.5,0.75,1.25,1.25,0.0,1.0,0.5,1.75,0.25,0.0,0.5,0.83,0.77,1.7,126.84,4.6,-5.4
1.6,5.5,1.25,3.0,8.75,7.5,3.75,1.75,4.75,2.0,1.5,1.75,1.0,0.75,-0.11,0.08,0.95,622.25,7.5,29.0,0.0,0.25,0.5,0.75,2.5,1.0,0.0,0.75,0.5,2.25,0.75,0.25,0.5,0.77,0.95,1.95,133.69,3.2,-6.4
1.62,5.5,1.0,3.5,9.0,7.5,3.75,1.75,4.5,1.75,1.5,1.25,0.5,0.75,-0.11,0.08,0.95,643.94,7.9,32.8,0.5,0.25,0.5,0.75,1.5,1.25,0.25,1.0,0.5,2.0,0.0,0.25,0.75,0.45,1.27,1.89,139.12,2.7,-3.8
1.64,5.5,1.0,4.75,10.5,7.75,3.75,2.25,4.25,1.25,1.5,1.5,0.25,0.75,-0.11,0.08,0.95,676.29,9.3,35.9,0.5,0.0,0.5,0.75,1.25,1.0,0.0,1.0,0.5,2.0,0.25,0.25,0.25,0.14,1.64,1.83,138.33,2.1,-6.0
1.66,6.0,1.25,4.75,10.5,8.0,3.75,2.25,3.75,1.0,1.25,1.0,0.25,0.5,-0.11,0.14,0.95,696.89,10.0,41.0,0.5,0.25,0.5,0.75,1.5,1.25,0.25,1.0,0.5,2.0,0.25,0.0,0.5,-0.05,1.95,1.2,138.63,2.4,0.0
1.68,6.25,1.0,5.0,11.0,8.0,3.5,2.25,3.5,1.0,1.0,1.0,0.0,0.5,-0.11,0.14,0.95,713.58,10.9,43.3,0.25,0.25,0.5,0.75,1.25,1.0,0.0,0.75,0.5,1.75,0.5,0.25,0.25,-0.61,2.52,1.08,130.78,1.4,-4.6
1.7,6.5,1.5,5.75,11.5,8.5,3.5,2.5,3.5,0.75,1.0,0.75,0.0,0.5,-0.11,0.14,0.95,733.93,11.4,45.8,0.25,0.25,0.5,0.75,1.25,1.0,0.0,0.75,0.5,2.0,0.25,0.0,0.25,-1.73,4.02,0.33,125.38,2.6,-1.3
1.72,6.75,1.5,6.0,12.0,8.5,3.0,2.75,3.25,0.75,0.75,0.75,0.0,0.5,-0.11,0.14,0.95,753.43,12.4,47.4,0.0,0.0,0.5,0.5,1.5,1.0,0.0,0.75,0.25,2.0,0.25,0.0,0.25,-2.11,3.45,0.33,116.36,5.6,-6.8
1.74,7.25,2.0,6.0,12.5,8.5,2.75,2.75,3.25,0.0,0.75,0.75,0.0,0.5,-0.11,0.14,1.02,771.76,12.9,50.0,0.5,0.25,0.5,0.75,1.75,1.0,0.25,1.0,0.25,2.25,0.25,0.25,0.75,-0.3,0.64,1.77,125.01,2.6,-5.7
1.76,7.25,2.5,6.75,13.0,8.75,3.0,2.75,2.75,0.0,0.75,0.75,0.0,0.5,-0.11,0.14,1.02,795.3,13.4,51.7,0.75,0.25,0.25,0.75,1.25,1.0,0.0,1.0,0.25,4.0,0.0,1.5,2.75,1.58,0.2,0.95,151.76,5.5,-40.1
1.78,6.75,2.5,6.75,6.75,8.75,0.0,2.5,2.25,0.0,0.0,0.75,0.0,0.25,-0.11,0.14,1.02,730.2,16.3,56.3,0.0,0.25,0.0,0.75,1.5,1.0,0.0,1.5,0.25,6.75,1.5,5.5,7.5,0.52,-0.73,1.08,242.13,6.7,-72.2
1.8,8.0,2.5,0.0,12.0,0.0,1.5,2.0,1.75,0.25,0.75,0.5,0.0,0.25,-0.11,0.2,1.08,603.56,16.5,55.8,0.0,0.0,0.25,0.75,0.0,1.25,0.0,1.5,0.5,8.25,3.25,6.5,9.0,-1.05,0.89,2.7,339.12,5.9,-81.8
1.82,6.25,2.5,7.5,12.0,8.5,1.5,1.75,2.0,0.0,0.75,0.75,0.0,0.25,-0.17,0.2,1.08,592.75,15.0,54.0,0.5,0.0,0.25,0.5,1.75,2.25,0.0,3.0,0.5,9.0,6.25,6.0,8.25,0.89,0.2,2.14,475.07,5.3,-67.3
1.84,7.75,2.0,7.0,12.0,8.0,0.0,1.5,2.0,0.25,0.25,0.25,0.0,0.25,-0.23,0.27,1.14,591.9,17.3,58.0,0.5,0.25,0.25,0.75,1.5,2.0,0.0,4.0,0.75,9.25,6.5,5.5,8.5,0.08,0.39,1.2,590.51,5.3,-65.9
1.86,8.25,1.5,7.0,11.0,8.0,0.0,0.75,1.75,0.25,0.75,0.75,0.0,0.25,-0.23,0.27,1.27,619.85,17.1,55.7,0.75,0.25,0.5,0.75,1.5,3.75,0.0,5.25,1.25,9.25,6.75,5.5,8.25,0.14,0.08,1.02,691.87,5.5,-59.2
1.88,8.25,2.0,6.25,10.0,6.5,0.0,0.25,1.75,0.5,0.5,0.75,0.0,0.25,-0.3,0.39,1.33,608.4,17.7,56.6,0.75,0.25,0.5,0.75,2.5,4.5,0.0,6.0,1.25,9.0,6.25,5.25,8.0,0.14,0.14,0.95,752.71,6.0,-53.7
1.9,7.25,1.0,5.75,8.0,0.0,0.0,0.0,1.75,0.5,0.25,0.0,0.0,0.25,-0.55,0.58,1.64,511.27,23.7,59.4,0.75,0.25,1.0,0.75,2.5,4.5,0.0,6.0,1.25,9.0,5.75,5.25,8.0,0.14,0.08,0.95,788.24,5.7,-52.1
1.92,6.25,1.0,1.75,6.5,0.0,0.0,0.0,1.75,0.75,0.75,0.0,0.0,0.0,-0.92,0.95,1.89,376.34,19.8,54.7,1.0,0.5,0.5,0.75,3.0,4.5,0.0,5.75,1.25,9.0,6.0,5.25,8.0,0.14,0.08,0.95,804.98,5.7,-50.6
1.94,5.5,0.0,1.75,3.75,0.0,0.0,0.0,1.75,0.25,0.0,0.0,0.0,0.25,-0.92,1.08,2.64,264.54,21.8,55.9,0.75,0.25,1.0,1.25,3.5,4.5,0.25,6.0,1.25,8.75,5.25,4.25,7.75,0.08,0.08,0.95,794.93,5.7,-45.9
1.96,2.25,0.0,1.25,0.5,0.0,0.0,0.0,0.0,0.75,0.0,0.25,0.0,0.25,-0.23,0.58,2.58,154.5,27.1,46.4,1.25,0.75,1.0,1.5,4.75,4.5,0.25,6.0,1.25,8.5,5.75,4.25,7.5,0.14,0.08,0.95,785.74,4.6,-39.2
1.98,1.25,0.0,1.0,2.5,0.0,0.0,0.25,0.0,0.0,0.0,0.0,0.0,0.25,-0.67,0.39,2.7,62.25,24.2,58.4,1.25,0.5,1.5,1.75,5.0,4.75,0.25,6.0,1.25,8.25,5.0,3.75,7.0,0.14,0.08,0.95,755.9,4.4,-35.0
2.0,0.0,0.0,0.0,1.75,0.0,0.0,0.0,0.0,0.25,0.0,0.5,0.0,0.25,-1.11,-0.55,1.89,0.0,12.8,11.2,1.25,0.75,1.75,2.25,5.25,5.0,0.5,6.0,1.25,8.25,4.5,3.0,6.5,0.14,0.08,0.95,721.05,4.1,-29.2
2.02,0.0,0.0,0.25,2.0,0.0,0.0,0.0,0.0,0.25,0.0,0.0,0.0,0.25,-0.73,-0.42,1.39,0.0,15.8,34.7,1.75,0.75,1.75,3.0,5.25,5.5,0.75,6.0,1.5,8.0,4.75,3.0,6.25,0.14,0.08,0.95,692.71,3.2,-25.4
2.04,0.0,0.0,0.75,1.75,0.0,0.0,0.25,0.0,0.0,0.0,0.0,0.0,0.25,-0.92,-1.11,0.02,0.0,20.6,43.0,2.0,1.0,2.5,3.0,5.5,5.5,1.0,5.75,1.75,7.75,4.5,3.0,6.0,0.14,0.08,0.95,689.08,2.0,-21.3
2.06,0.0,0.0,0.5,1.75,0.0,0.0,0.0,0.0,0.25,0.5,0.0,0.0,0.25,-0.61,-0.23,0.39,0.0,12.7,18.4,2.0,1.0,2.75,3.25,5.5,6.0,1.0,5.75,1.75,7.25,4.5,2.75,5.5,0.14,0.08,0.95,690.11,1.7,-18.0
2.08,0.0,0.0,0.75,1.25,0.0,0.0,0.25,0.0,0.0,0.75,0.0,0.0,0.25,-0.48,-0.36,0.08,0.0,12.6,12.8,2.0,1.0,3.5,4.5,5.5,6.0,1.25,5.75,1.75,7.25,3.75,2.25,5.25,0.14,0.08,0.95,702.61,0.7,-12.5
2.1,0.0,0.0,0.75,1.25,0.0,0.0,0.0,0.0,0.25,0.5,0.0,0.0,0.25,-0.61,-0.3,0.58,0.0,14.1,15.3,2.0,1.0,3.5,5.25,6.5,6.0,1.25,5.5,1.75,6.75,3.75,1.5,4.5,0.14,0.08,0.95,712.78,0.2,-6.0
2.12,0.0,0.0,0.5,1.25,0.0,0.0,0.0,0.0,0.25,0.5,0.0,0.0,0.25,-0.61,-0.36,0.7,0.0,11.9,11.1,2.0,1.0,3.75,5.5,7.0,6.0,1.5,4.75,1.75,6.5,3.0,1.5,4.0,0.14,0.08,0.95,717.14,-0.4,-1.5
2.14,0.0,0.0,1.0,1.0,0.0,0.0,0.25,0.0,0.0,0.0,0.0,0.0,0.25,-0.48,-0.11,0.83,0.67,23.5,40.1,2.0,1.25,4.75,5.75,7.25,6.25,1.75,4.75,1.75,6.0,3.0,1.5,3.25,0.14,0.08,0.95,726.78,-1.6,3.5
2.16,0.0,0.0,0.75,1.0,0.0,0.0,0.25,0.0,0.0,0.0,0.0,0.0,0.25,-0.3,0.14,0.89,13.96,21.8,37.6,2.25,1.75,5.5,7.25,7.75,6.5,2.0,5.25,1.75,5.25,2.75,1.0,3.0,0.14,0.08,0.95,756.99,-2.8,10.8
2.18,0.0,0.0,0.75,0.0,0.0,0.0,0.0,0.0,0.0,0.5,0.0,0.0,0.25,-0.17,0.33,1.08,19.82,11.8,-12.3,2.25,1.75,5.5,7.5,8.25,6.5,2.5,4.75,1.75,5.0,2.5,0.75,2.0,0.14,0.08,0.95,780.14,-3.5,16.0
2.2,0.0,0.0,0.25,0.75,0.0,0.0,0.0,0.0,0.0,0.0,0.0,0.0,0.25,0.08,0.45,1.27,22.33,15.2,25.3,2.5,1.75,6.25,9.0,8.5,6.75,2.5,4.0,1.75,4.25,2.25,0.75,2.25,0.14,0.08,0.95,810.73,-4.9,20.4
2.22,0.0,0.0,0.5,1.25,0.0,0.0,0.0,0.0,0.0,0.5,0.0,0.0,0.25,0.2,0.52,1.33,25.66,11.9,15.9,3.5,2.0,6.75,9.25,8.5,6.75,2.5,4.25,1.5,4.0,2.0,0.5,1.5,0.14,0.08,0.95,838.75,-6.0,26.2
2.24,0.0,0.0,0.75,0.5,0.0,0.0,0.0,0.0,0.0,0.0,0.0,0.0,0.25,0.08,0.58,1.45,26.08,22.5,31.6,3.75,2.0,7.0,10.5,9.0,7.0,2.75,3.75,1.25,3.75,0.75,0.25,1.25,0.14,0.08,0.95,862.35,-6.7,32.8
2.26,0.0,0.0,0.25,1.0,0.0,0.0,0.0,0.0,0.0,0.0,0.0,0.0,0.25,-0.05,0.58,1.52,25.39,15.5,30.7,3.75,2.0,7.0,11.0,9.5,7.0,2.75,2.75,1.25,3.75,1.25,0.25,1.25,0.14,0.14,0.95,878.15,-7.1,33.6
2.28,0.0,0.0,0.0,0.5,0.0,0.0,0.0,0.0,0.0,0.5,0.0,0.0,0.25,-0.23,0.7,1.77,21.07,-1.8,-27.8,4.5,2.5,8.0,11.0,9.5,7.0,3.25,2.5,1.25,3.75,0.75,0.25,1.25,0.14,0.14,0.95,905.48,-8.3,36.8
2.3,0.0,0.0,0.25,1.25,0.0,0.0,0.0,0.0,0.25,0.5,0.0,0.0,0.25,-0.42,0.89,1.77,25.9,9.3,6.2,5.0,2.5,8.0,12.5,9.25,7.0,3.0,2.5,1.25,2.75,0.75,0.25,1.0,0.08,0.14,0.95,931.22,-9.3,40.5
2.32,0.0,0.0,0.25,1.0,0.0,0.0,0.0,0.0,0.25,0.0,0.0,0.0,0.25,-0.55,1.08,1.77,26.43,15.1,21.3,5.5,2.5,8.25,12.5,9.5,6.75,3.0,2.5,1.0,2.5,0.25,0.25,1.25,0.08,0.14,0.95,950.87,-9.7,42.3
2.34,0.0,0.0,0.25,1.25,0.0,0.0,0.0,0.0,0.25,0.5,0.0,0.0,0.25,-0.48,1.52,1.7,33.15,9.3,6.2,5.5,2.5,8.5,12.5,10.0,6.5,3.0,2.0,0.75,2.25,0.25,0.25,1.0,0.08,0.08,0.95,958.88,-10.3,44.9
2.36,0.0,0.0,0.25,0.5,0.0,0.0,0.0,0.0,0.0,0.0,0.0,0.0,0.25,-0.17,1.52,1.52,28.83,14.7,17.0,5.75,2.75,8.75,12.5,9.75,6.25,3.0,1.5,0.5,2.25,0.25,0.25,1.0,0.08,0.14,0.95,956.02,-11.0,46.6
2.38,0.0,0.0,0.25,0.5,0.0,0.0,0.0,0.0,0.25,0.25,0.0,0.0,0.25,0.08,1.52,1.2,27.46,9.3,-6.9,5.75,2.75,8.75,12.5,9.75,4.5,2.5,1.25,0.5,2.25,0.25,0.25,0.5,0.08,0.14,0.95,926.77,-12.4,49.1
2.4,0.0,0.0,0.25,1.0,0.0,0.0,0.0,0.0,0.25,0.0,0.0,0.0,0.25,0.27,1.39,1.02,26.06,15.1,21.3,6.5,2.5,9.0,12.5,9.5,3.75,2.5,1.0,0.5,2.25,0.25,0.25,0.5,0.08,0.14,0.95,895.95,-13.5,50.1
2.42,0.0,0.0,0.25,0.5,0.0,0.0,0.0,0.0,0.25,0.5,0.0,0.0,0.25,0.52,1.58,0.89,27.07,5.8,-16.5,6.75,2.75,9.25,12.5,9.5,3.75,2.25,1.0,0.5,2.25,0.25,0.25,0.0,0.02,0.2,0.95,874.19,-14.0,52.3
2.44,0.0,0.0,0.5,0.5,0.0,0.0,0.0,0.0,0.25,0.0,0.0,0.0,0.25,0.33,1.83,0.39,26.33,18.2,15.5,6.25,2.25,8.75,11.0,9.25,2.25,1.75,1.0,0.5,2.25,0.25,0.25,0.5,0.08,0.2,0.95,824.0,-14.2,50.0
2.46,0.0,0.0,1.0,0.5,0.0,0.0,0.0,0.0,0.25,0.5,0.0,0.0,0.25,0.08,1.77,0.33,31.17,15.6,6.8,6.25,2.0,8.5,9.75,8.5,4.25,1.25,1.0,0.5,2.25,0.25,0.25,0.0,0.08,0.2,1.02,773.19,-13.0,50.6
2.48,0.0,0.0,0.5,0.0,0.0,0.0,0.0,0.0,0.25,0.25,0.0,0.0,0.25,0.83,2.2,0.77,28.97,12.0,-19.9,5.75,1.75,8.0,9.0,8.0,2.75,0.75,0.75,0.5,1.75,0.0,0.25,0.25,0.14,0.27,1.2,695.56,-14.1,52.0
2.5,0.0,0.0,0.0,0.0,0.0,0.0,0.0,0.0,0.0,0.75,0.0,0.0,0.25,0.45,1.7,0.58,25.19,-15.1,-84.2,5.5,1.25,7.0,7.25,7.0,2.25,0.5,0.75,0.5,1.75,0.25,0.25,0.5,0.2,0.33,1.39,603.65,-13.9,48.7
2.52,0.0,0.0,0.0,0.5,0.0,0.0,0.0,0.0,0.25,1.75,0.0,2.0,1.5,-0.17,-0.05,2.08,50.94,-3.1,-82.5,3.5,0.0,5.5,4.5,5.0,0.0,0.25,0.25,0.0,0.25,0.0,0.0,0.0,0.2,0.33,1.52,435.69,-19.3,60.9
2.54,0.0,0.0,0.0,0.5,0.0,0.0,0.0,0.0,0.5,3.75,0.0,4.0,5.25,0.39,0.08,1.39,122.87,-5.8,-92.0,2.25,0.0,2.75,3.25,1.25,0.0,0.0,0.0,0.0,0.5,0.0,0.0,0.0,0.14,0.33,1.27,282.21,-22.1,59.8
2.56,0.0,0.0,0.0,0.0,0.0,0.0,0.0,0.0,0.0,4.5,4.0,1.5,5.5,-0.61,0.52,2.77,191.69,-6.0,-91.3,1.75,0.0,0.75,2.75,0.0,0.0,0.25,0.0,0.0,0.75,0.0,0.0,0.0,0.02,0.39,1.52,149.3,-20.8,52.0
2.58,0.5,0.0,0.0,0.5,0.0,0.0,0.0,0.0,0.25,4.5,3.0,3.0,5.0,-0.11,0.2,1.02,245.19,-3.2,-82.6,1.0,0.0,0.5,1.25,0.0,0.0,0.25,0.25,0.0,0.25,0.0,0.0,0.0,-0.05,0.52,1.39,24.18,-20.9,51.3
2.6,1.0,0.0,0.5,0.5,0.0,0.0,0.0,4.0,0.0,4.75,0.0,2.0,4.0,-0.11,0.08,0.95,270.87,-7.0,-61.3,0.75,0.0,0.5,0.75,0.0,0.0,0.25,0.0,0.0,0.5,0.0,0.0,0.0,-0.05,0.52,1.08,0.0,-20.5,42.3
2.62,0.0,0.0,0.0,0.75,0.0,0.0,0.0,4.75,1.0,4.75,3.0,3.25,4.0,-0.17,0.14,0.95,299.8,-5.8,-72.5,0.0,0.0,0.5,0.5,0.0,0.0,0.0,0.0,0.0,0.75,0.0,0.0,0.0,0.02,0.52,0.77,0.0,-9.4,2.8
2.64,2.25,0.0,0.0,1.25,1.75,1.75,0.25,4.75,1.75,5.0,3.75,3.25,4.25,-0.17,0.08,0.95,353.55,-2.4,-43.0,0.0,0.0,0.25,0.5,0.0,0.0,0.0,0.75,0.0,0.5,0.0,0.0,0.0,0.08,0.58,0.52,0.0,0.7,-10.2
2.66,3.5,0.0,0.0,2.5,2.75,2.5,0.5,5.5,1.75,4.75,4.25,2.0,3.75,-0.11,0.02,0.95,416.47,-1.0,-25.6,0.0,0.0,0.75,0.5,0.0,0.0,0.0,0.0,0.0,0.0,0.0,0.0,0.0,0.14,0.58,0.45,0.0,-29.7,59.7
2.68,4.0,0.5,1.25,2.0,4.0,2.75,0.25,5.5,1.75,3.5,3.5,1.25,2.25,-0.11,0.02,0.95,472.09,1.2,-7.2,0.0,0.0,0.25,0.5,0.0,0.0,0.0,0.0,0.0,0.0,0.0,0.0,0.25,0.08,0.58,0.33,0.0,-14.7,17.0
2.7,5.5,1.25,1.5,2.5,5.0,4.0,0.75,5.5,2.0,3.25,2.75,1.0,1.75,-0.11,0.08,0.95,530.75,2.7,7.6,0.0,0.0,1.25,0.5,1.25,0.0,0.0,0.0,0.0,0.0,0.0,0.0,0.0,0.02,0.58,0.14,0.0,-16.4,57.1
2.72,6.5,1.0,1.5,3.75,5.25,4.5,0.75,5.5,1.5,2.5,2.25,1.0,1.5,-0.11,0.08,0.95,573.15,3.8,15.8,0.0,0.0,0.25,0.5,0.0,0.0,0.0,0.0,0.0,0.0,0.0,0.0,0.0,0.02,0.58,-0.05,0.0,-24.1,58.9
2.74,6.75,1.0,2.0,4.5,5.75,5.0,0.5,5.5,1.0,2.0,1.5,0.75,1.0,-0.11,0.08,0.95,600.35,4.4,24.9,0.75,0.25,0.25,1.0,0.0,0.0,0.0,0.75,0.0,0.75,0.0,0.0,0.5,0.02,0.64,-0.23,0.0,-5.6,6.5
2.76,7.25,1.25,2.0,4.5,6.5,5.25,0.5,5.25,0.75,1.75,1.25,0.5,0.5,-0.11,0.14,0.95,611.12,4.9,31.9,0.0,0.0,0.25,0.5,0.0,0.0,0.0,0.5,0.0,0.25,0.0,0.0,0.0,0.02,0.7,-0.36,8.05,-4.2,5.0
2.78,7.5,2.5,2.5,6.5,7.75,6.5,0.0,4.75,0.0,1.0,0.75,0.25,0.5,-0.11,0.14,1.02,643.43,5.5,43.1,0.0,0.0,0.25,0.5,0.0,0.0,0.0,0.0,0.0,0.75,0.0,0.0,0.0,-0.05,0.64,-0.3,23.33,-4.6,-6.9
2.8,7.75,2.5,2.25,7.0,8.0,6.75,0.0,4.5,0.0,1.25,0.75,0.25,0.5,-0.17,0.14,1.02,677.55,5.4,43.3,0.0,0.0,0.75,0.5,0.0,0.0,0.25,0.0,0.0,0.75,0.0,0.0,0.0,-0.3,0.58,-0.3,26.57,-14.1,11.0
2.82,7.75,2.5,2.0,7.0,8.25,7.0,0.0,3.75,0.0,0.5,0.5,0.0,0.25,-0.17,0.2,0.95,692.94,5.9,49.6,0.0,0.0,0.25,0.25,0.0,0.0,0.0,0.25,0.0,0.75,0.0,0.0,0.0,-0.36,0.33,0.02,27.65,1.0,-23.3
2.84,7.75,2.75,1.5,7.75,8.5,7.5,0.0,3.5,0.0,1.0,0.75,0.0,0.5,-0.17,0.2,0.95,705.73,5.1,47.1,0.0,0.0,0.5,0.25,0.0,0.0,0.0,0.25,0.0,0.5,0.0,0.0,0.0,-0.86,0.52,0.33,25.96,-7.9,-0.5
2.86,8.0,3.75,1.5,8.0,8.75,7.5,0.0,3.25,0.0,0.5,0.75,0.0,0.5,-0.17,0.2,1.02,711.45,5.8,50.6,0.0,0.0,0.25,0.5,0.0,0.0,0.0,0.0,0.0,0.75,0.0,0.0,0.0,-1.3,0.52,0.39,24.84,-4.6,-6.9
2.88,0.0,4.0,1.25,8.0,9.0,8.0,0.0,3.5,0.0,0.75,0.5,0.0,0.25,-0.17,0.27,1.02,664.5,-0.8,41.6,0.0,0.0,0.5,0.25,0.0,0.0,0.0,0.0,0.0,0.25,0.0,0.0,0.0,-1.17,0.58,0.52,21.83,-19.7,26.9
2.9,0.0,4.0,0.0,8.0,9.5,8.0,0.0,3.0,0.0,0.25,0.0,0.0,0.25,-0.17,0.27,1.02,608.98,-2.0,45.5,0.0,0.0,0.25,0.5,0.0,0.0,0.0,0.0,0.0,0.5,0.0,0.0,0.0,-1.05,0.52,0.39,19.42,-8.5,6.4
2.92,0.0,4.0,0.0,7.25,9.5,7.75,0.0,2.25,0.0,0.5,0.0,0.0,0.25,-0.17,0.27,1.14,546.73,-2.1,46.3,0.0,0.0,1.25,0.5,1.25,1.75,0.25,0.5,0.5,2.0,0.0,0.25,0.0,-0.73,0.45,0.77,56.35,1.4,3.5
2.94,0.0,4.75,0.0,7.5,9.5,7.5,0.0,2.0,0.0,0.25,0.0,0.0,0.25,-0.17,0.33,1.2,503.58,-1.2,49.3,0.0,0.0,0.5,0.5,0.0,0.25,0.0,0.25,0.25,0.75,0.0,0.0,0.0,-1.98,1.14,0.77,59.11,-4.1,-2.4
2.96,0.0,4.75,0.0,6.25,0.0,0.0,0.0,0.0,0.0,0.0,0.5,0.0,0.25,-0.36,0.33,1.14,360.47,14.4,65.5,0.5,0.25,0.25,0.75,0.0,1.25,0.0,1.0,0.5,2.25,0.0,0.25,0.0,-0.86,0.27,0.7,86.3,4.0,-11.8
2.98,8.0,5.25,0.0,4.5,0.0,0.0,0.0,0.0,0.0,0.0,0.75,0.0,0.25,-0.42,0.39,0.89,294.21,22.3,78.3,0.75,0.25,1.75,0.75,1.75,1.0,0.0,0.75,0.5,2.25,0.25,0.25,0.25,-0.36,-0.36,0.33,116.52,-3.8,9.1
3.0,7.75,5.0,0.0,4.5,0.0,0.0,0.0,0.0,0.0,0.0,0.5,0.0,0.25,-0.36,0.52,0.95,241.28,22.4,79.9,0.5,0.25,1.75,0.75,1.5,1.25,0.25,1.0,0.5,2.25,0.25,0.25,0.5,-0.3,-0.23,0.45,151.35,-2.2,2.9
3.02,7.25,5.0,0.0,3.0,0.0,0.0,0.0,0.0,0.0,0.5,0.0,0.0,0.25,-0.67,0.64,0.95,211.86,21.7,81.4,0.5,0.25,1.75,0.75,1.25,1.25,0.25,0.75,0.5,2.25,0.75,0.25,0.5,-1.17,-0.17,0.64,170.81,-3.1,-0.8
3.04,0.0,4.0,0.0,2.5,0.0,0.0,0.0,0.0,0.0,0.0,0.0,0.0,0.25,-1.36,1.2,0.77,147.67,13.3,75.8,0.75,0.25,1.5,0.75,1.5,1.25,0.0,1.0,0.5,2.0,0.25,0.25,0.75,-1.23,-0.11,0.02,183.23,-1.7,2.5
3.06,5.5,1.25,0.75,1.75,0.0,0.0,0.0,0.0,0.0,0.0,0.0,0.0,0.25,-2.11,2.27,-0.11,115.0,27.2,81.3,0.5,0.25,1.0,0.75,1.25,1.0,0.0,1.0,0.5,2.25,0.0,0.25,0.75,-0.86,-0.23,-0.17,181.47,0.8,-5.2
3.08,3.5,0.75,0.25,0.5,0.0,0.0,0.0,0.0,0.0,0.0,0.0,0.0,0.25,-2.05,1.77,1.14,55.78,27.4,81.5,0.5,0.25,1.0,0.75,1.25,0.25,0.0,0.75,0.5,2.25,0.25,0.25,0.5,-0.67,-0.61,-0.11,169.37,-2.0,-6.3
3.1,0.0,0.0,0.0,0.0,0.0,0.0,0.0,0.0,0.0,0.0,0.0,0.0,0.0,0.45,0.58,-0.48,0.0,0.0,0.0,0.25,0.25,0.75,0.75,1.25,0.0,0.25,1.0,0.5,2.0,0.25,0.0,0.5,-0.55,-0.73,-0.11,154.39,-0.8,-7.8
3.12,0.0,0.0,0.0,0.0,0.0,0.0,0.0,0.0,0.0,0.5,0.0,0.0,0.0,1.58,1.45,-0.36,0.0,-15.7,-75.5,0.5,0.25,0.25,0.75,1.25,0.0,0.25,0.75,0.5,1.5,0.0,0.25,0.5,-0.36,-0.8,0.64,136.68,-1.0,-4.7
3.14,0.0,0.0,0.0,0.0,0.0,0.0,0.0,0.0,0.0,0.5,0.0,0.0,0.0,-0.61,0.95,0.14,0.0,-15.7,-75.5,0.5,0.25,0.5,0.75,1.0,1.0,0.0,1.0,0.25,1.75,0.25,0.0,0.5,0.64,-0.36,1.14,125.62,2.3,-1.6
3.16,0.0,0.0,0.0,0.0,0.0,0.0,0.0,0.0,0.25,0.5,0.0,0.0,0.25,-0.55,-0.17,0.45,0.0,-8.3,-75.2,0.5,0.0,0.25,0.5,1.25,1.0,0.25,1.0,0.25,1.75,0.75,0.25,0.5,-2.8,0.39,-0.42,118.45,3.1,-13.8
3.18,0.0,0.0,0.0,0.0,0.0,0.0,0.0,0.0,0.25,0.5,0.0,0.0,0.25,-0.42,-1.11,0.89,0.0,-8.3,-75.2,0.5,0.25,0.75,0.75,1.5,1.0,0.0,1.0,0.5,2.0,0.25,0.25,0.75,-2.17,-1.3,0.33,128.15,1.2,-5.1
3.2,0.0,0.0,0.0,0.5,0.0,0.0,0.0,0.0,0.25,0.5,0.0,0.0,0.25,-0.42,-0.8,1.52,0.0,0.4,-29.6,0.75,0.25,0.5,0.75,1.5,1.0,0.25,1.0,0.5,1.75,0.25,0.0,0.25,-1.86,-1.67,2.02,127.26,0.1,7.1
3.22,0.25,0.0,0.0,1.0,0.0,0.0,0.0,0.0,0.0,0.5,0.0,0.0,0.25,-0.67,-0.92,0.77,0.0,7.2,8.5,0.5,0.0,1.0,0.75,1.5,0.75,0.25,1.0,0.5,2.0,0.25,0.25,0.5,-1.73,0.14,1.45,130.79,-0.7,-3.9
3.24,0.0,0.0,0.0,0.5,0.0,0.0,0.0,0.0,0.0,0.5,0.0,0.0,0.25,-1.92,-0.11,0.27,0.0,-1.8,-27.8,0.5,0.0,0.5,0.75,2.25,1.0,0.0,0.75,0.5,1.75,0.25,0.0,0.25,-0.92,1.7,1.14,131.93,1.7,7.6
3.26,0.75,0.0,0.0,0.5,0.0,0.0,0.0,0.0,0.25,0.5,0.0,0.0,0.25,-2.3,0.83,-0.17,0.79,11.2,10.4,0.5,0.0,0.5,0.75,1.25,1.25,0.0,0.75,0.5,1.75,0.25,0.25,0.5,-0.3,2.08,1.14,130.63,2.2,-5.0
3.28,0.0,0.0,0.25,0.5,0.0,0.0,0.0,0.0,0.25,0.5,0.0,0.0,0.25,-1.48,0.58,-0.17,14.46,5.8,-16.5,0.5,0.25,0.5,0.5,1.75,1.0,0.0,1.0,0.5,1.75,0.25,0.0,0.5,-0.86,1.64,1.14,130.67,2.5,0.9
3.3,0.0,0.0,0.0,0.5,0.0,0.0,0.0,0.0,0.25,0.25,0.0,0.0,0.25,-0.73,0.14,0.14,17.29,3.5,-20.6,0.25,0.0,0.5,0.75,1.25,1.0,0.0,1.25,0.25,1.75,0.25,0.25,0.5,-0.3,0.77,1.08,128.73,3.9,-10.1
3.32,0.0,0.0,0.0,0.5,0.0,0.0,0.0,0.0,0.25,0.5,0.0,0.0,0.25,-0.48,0.39,0.52,23.6,0.4,-29.6,0.5,0.0,0.5,0.75,1.5,1.0,0.25,1.0,0.25,1.75,0.0,0.25,0.5,-0.23,0.52,0.58,128.43,2.4,-1.6
3.34,0.0,0.0,0.0,0.5,0.0,0.0,0.0,0.0,0.25,0.5,0.0,0.0,0.25,-0.8,0.39,0.95,27.2,0.4,-29.6,0.5,0.25,1.25,0.5,1.75,1.0,0.0,1.0,0.25,2.0,0.25,0.25,0.5,-0.42,-0.67,0.33,134.42,-0.2,1.9
3.36,0.0,0.0,0.0,0.5,0.0,0.0,0.0,0.0,0.25,0.25,0.5,0.0,0.25,-2.23,1.08,0.83,26.92,5.5,-35.6,0.5,0.0,0.5,0.5,1.0,0.75,0.0,1.0,0.25,1.75,0.25,0.25,0.25,-0.92,-1.92,0.14,127.22,2.0,-8.5
3.38,0.0,0.0,0.0,0.5,0.0,0.0,0.0,0.0,0.0,0.0,0.0,0.0,0.25,-2.11,0.14,-1.42,22.16,7.0,2.6,0.5,0.0,0.5,0.75,1.75,1.0,0.0,1.0,0.5,2.25,0.0,0.25,0.5,-1.11,-2.17,0.39,129.45,3.2,-5.2
3.4,0.25,0.0,0.0,0.5,0.0,0.0,0.0,0.0,0.0,0.25,0.0,0.0,0.25,-0.98,0.02,-1.11,20.74,7.6,4.7,0.5,0.0,0.75,0.5,1.5,1.0,0.0,1.0,0.25,1.75,0.25,0.25,0.5,-0.73,-0.86,0.14,126.27,1.8,-4.0
3.42,1.0,0.0,0.0,0.5,0.0,0.0,0.0,0.0,0.0,0.25,0.25,0.0,0.25,0.08,0.83,-0.48,24.5,16.6,25.5,0.5,0.25,0.5,0.5,1.75,1.0,0.25,0.75,0.25,2.0,0.25,0.0,0.25,-0.23,-0.17,-0.11,126.92,2.1,4.8
3.44,0.0,0.0,0.75,0.5,0.0,0.0,0.0,0.0,0.25,0.0,0.5,0.0,0.25,0.45,1.02,-0.05,29.5,18.9,1.3,0.5,0.25,0.5,0.5,1.25,0.75,0.0,0.75,0.5,2.0,0.0,0.25,0.75,-0.17,0.14,-0.17,124.32,2.3,-9.3
3.46,0.25,0.0,0.0,0.5,0.0,0.0,0.0,0.0,0.25,0.0,0.5,0.0,0.25,0.52,0.83,-0.05,31.0,12.5,-12.1,0.5,0.0,1.25,0.75,1.75,1.0,0.25,1.0,0.25,2.0,0.25,0.25,0.25,-0.55,0.52,-0.11,131.68,-1.1,4.1
3.48,0.25,0.0,0.0,0.5,0.0,0.0,0.0,0.0,0.25,0.5,0.5,0.0,0.25,0.39,0.58,-0.48,33.88,6.2,-26.2,0.5,0.0,0.5,0.5,1.5,1.0,0.0,1.25,0.25,2.0,0.25,0.25,0.75,-1.17,0.52,0.39,133.03,4.1,-11.9
3.5,0.0,0.0,0.0,0.5,0.0,0.0,0.0,0.0,0.25,0.0,0.5,0.0,0.25,-0.11,0.58,-0.48,30.37,9.0,-29.1,0.5,0.25,0.75,0.75,1.5,1.0,0.0,1.0,0.25,2.25,0.25,0.0,0.25,-1.98,0.27,0.89,136.12,1.6,2.6
3.52,0.5,0.0,0.0,0.5,0.0,0.0,0.0,0.0,0.25,0.5,0.5,0.0,0.25,-0.42,0.45,-0.3,33.5,8.9,-14.5,0.5,0.0,0.5,0.75,1.5,1.0,0.0,1.0,0.25,1.75,0.25,0.25,0.25,-1.73,0.02,0.95,132.54,2.1,-0.8
3.54,0.0,0.0,0.0,0.5,0.0,0.0,0.0,0.0,0.5,0.0,0.5,0.0,0.25,-0.3,0.14,-0.17,31.98,9.5,-30.4,0.25,0.0,0.5,0.5,1.25,1.0,0.0,0.25,0.25,1.75,0.0,0.25,0.5,-1.42,0.02,0.77,122.03,3.4,-6.1
3.56,0.0,0.0,0.0,0.5,0.0,0.0,0.0,0.0,0.25,0.5,0.5,0.0,0.25,-0.8,-0.11,0.33,33.29,2.9,-40.6,0.5,0.0,0.5,0.75,1.75,1.0,0.25,1.0,0.25,2.0,0.25,0.25,0.25,-0.98,0.02,0.52,121.51,2.1,-0.7
3.58,0.0,0.0,0.0,0.5,0.0,0.0,0.0,0.0,0.25,0.0,0.5,0.0,0.25,-1.86,0.14,0.33,29.7,9.0,-29.1,0.5,0.0,0.5,0.5,0.5,0.75,0.0,1.0,0.25,1.75,0.25,0.25,0.5,-0.67,0.08,0.33,112.29,2.4,-17.6
3.6,0.0,0.0,0.0,0.5,0.0,0.0,0.0,0.0,0.25,0.25,0.5,0.0,0.25,-2.42,0.08,-0.23,28.97,5.5,-35.6,0.5,0.0,0.5,0.5,1.25,1.0,0.0,0.25,0.25,2.0,0.0,0.25,0.5,-0.48,0.02,0.33,111.08,2.6,-5.1
3.62,0.0,0.0,0.0,0.5,0.0,0.0,0.0,0.0,0.25,0.0,0.5,0.0,0.25,-2.3,0.27,-0.55,26.17,9.0,-29.1,0.5,0.0,0.5,0.75,1.75,0.75,0.0,1.0,0.25,2.0,0.25,0.0,0.25,-0.36,-0.05,0.39,111.09,2.3,1.1
3.64,0.0,0.0,0.0,0.5,0.0,0.0,0.0,0.0,0.25,0.25,0.5,0.0,0.25,-1.86,0.39,-0.36,25.5,5.5,-35.6,0.5,0.0,0.5,0.75,1.25,1.0,0.0,0.75,0.25,1.75,0.25,0.25,0.25,-0.48,-0.3,0.45,113.5,1.6,-1.6
3.66,0.0,0.0,0.0,0.5,0.0,0.0,0.0,0.0,0.25,0.25,0.5,0.0,0.25,-1.3,0.39,0.08,25.02,5.5,-35.6,0.75,0.0,1.0,0.75,1.5,1.0,0.25,0.75,0.25,1.5,0.25,0.25,0.25,-0.8,-0.67,0.58,119.11,-2.5,9.2
3.68,0.0,0.0,0.0,0.5,0.0,0.0,0.0,0.0,0.25,0.25,0.75,0.0,0.25,-0.98,0.39,0.27,27.67,6.1,-40.4,0.0,0.0,0.5,0.5,1.75,0.75,0.25,1.0,0.25,1.75,0.5,0.25,0.75,-0.92,-0.92,0.83,121.55,4.1,-15.6
3.7,0.0,0.0,0.0,0.5,0.0,0.0,0.0,0.0,0.25,0.0,0.0,0.0,0.25,-0.8,0.39,0.39,24.37,8.2,-7.2,0.5,0.0,0.5,0.5,0.5,0.5,0.25,1.0,0.25,2.0,0.25,0.25,0.25,-0.98,-0.8,0.89,115.12,1.1,-17.3
3.72,0.0,0.0,0.0,0.5,0.0,0.0,0.0,0.0,0.25,0.25,0.0,0.0,0.25,-0.61,0.45,0.45,21.91,3.5,-20.6,0.5,0.0,0.25,0.5,1.25,0.75,0.25,1.0,0.25,1.75,0.25,0.0,0.5,-0.92,-0.48,0.77,111.27,3.7,-8.0
3.74,0.0,0.0,0.0,0.5,0.0,0.0,0.0,0.0,0.25,0.25,0.25,0.0,0.25,-0.48,0.45,0.27,20.68,4.7,-29.3,0.5,0.0,0.5,0.5,1.25,1.0,0.0,0.75,0.25,1.5,0.5,0.25,0.25,-0.73,-0.36,0.58,109.05,1.4,-3.6
3.76,0.0,0.0,0.0,0.5,0.0,0.0,0.0,0.0,0.25,0.5,0.0,0.0,0.25,-0.48,0.39,0.14,20.57,0.4,-29.6,0.5,0.0,1.5,0.5,1.5,0.5,0.0,1.0,0.25,2.0,0.25,0.0,0.25,-0.67,-0.3,0.52,115.97,-2.5,3.9
3.78,0.25,0.0,0.0,0.5,0.0,0.0,0.0,0.0,0.25,0.0,0.0,0.0,0.25,-0.67,0.33,-0.05,20.8,13.2,12.1,0.25,0.0,0.5,0.5,1.25,0.75,0.25,1.0,0.25,1.75,0.25,0.25,0.25,-0.61,-0.17,0.52,115.62,2.7,-8.9
3.8,0.25,0.0,0.0,0.5,0.0,0.0,0.0,0.0,0.25,0.25,0.0,0.0,0.25,-0.98,0.27,-0.05,21.93,8.4,-2.3,0.5,0.0,0.5,0.5,1.25,1.0,0.0,1.0,0.25,2.0,0.5,0.25,0.25,-0.8,-0.17,0.52,118.75,2.7,-9.1
3.82,0.75,0.0,0.0,0.5,0.0,0.0,0.0,0.0,0.25,0.0,0.0,0.0,0.25,-1.23,0.14,0.02,24.63,19.0,35.3,0.25,0.0,0.0,0.5,1.25,0.5,0.0,1.0,0.25,2.0,0.25,0.0,0.5,-0.92,-0.3,0.52,112.72,7.1,-19.0
3.84,1.0,0.0,0.0,0.5,0.0,0.0,0.0,0.0,0.25,0.25,0.0,0.0,0.25,-1.23,0.08,0.08,29.34,16.8,29.4,0.75,0.0,0.5,0.5,1.0,1.0,0.0,0.75,0.25,1.5,0.25,0.25,0.25,-0.92,-0.3,0.58,109.35,0.5,-0.1
3.86,1.0,0.0,0.0,0.5,0.0,0.0,0.0,0.0,0.25,0.25,0.0,0.0,0.25,-1.23,0.08,0.08,33.91,16.8,29.4,0.0,0.0,0.5,0.5,1.25,0.5,0.25,0.5,0.25,2.0,0.0,0.25,0.5,-0.92,-0.3,0.58,102.07,3.7,-15.9
3.88,0.0,0.0,0.0,0.5,0.0,0.0,0.0,0.0,0.25,0.0,0.0,0.0,0.25,-1.17,0.08,0.08,30.02,8.2,-7.2,0.5,0.0,0.5,0.75,1.5,0.5,0.0,1.0,0.25,1.5,0.25,0.25,0.25,-0.86,-0.23,0.58,105.06,0.4,-0.5
3.9,0.0,0.0,0.0,0.5,0.0,0.0,0.0,0.0,0.25,0.5,0.0,0.0,0.25,-1.05,0.2,0.08,27.61,0.4,-29.6,0.25,0.25,0.5,0.5,1.0,0.75,0.0,1.0,0.25,1.5,0.25,0.0,0.25,-0.8,-0.3,0.58,102.58,2.7,-1.8
3.92,0.0,0.0,0.0,0.5,0.0,0.0,0.0,0.0,0.25,0.25,0.0,0.0,0.25,-0.98,0.2,0.14,23.29,3.5,-20.6,0.5,0.0,0.0,0.5,1.5,1.0,0.0,0.75,0.25,1.75,0.0,0.25,0.25,-0.73,-0.36,0.64,104.55,5.8,-3.6
3.94,0.0,0.0,0.0,0.5,0.0,0.0,0.0,0.0,0.25,0.5,0.0,0.0,0.25,-0.86,0.27,0.14,23.11,0.4,-29.6,0.75,0.0,0.5,0.5,1.5,1.0,0.0,1.0,0.25,1.75,0.25,0.25,0.25,-0.86,-0.36,0.7,110.85,1.7,0.1
3.96,0.0,0.0,0.0,0.5,0.0,0.0,0.0,0.0,0.25,0.25,0.0,0.0,0.25,-0.86,0.27,0.14,21.04,3.5,-20.6,0.25,0.0,0.5,0.5,1.25,0.5,0.0,0.75,0.25,1.5,0.25,0.0,0.25,-0.92,-0.42,0.77,106.12,2.0,-3.2
3.98,0.0,0.0,0.25,0.5,0.0,0.0,0.0,0.0,0.25,0.25,0.0,0.0,0.25,-0.86,0.27,0.08,22.19,9.3,-6.9,0.5,0.0,0.75,0.5,1.5,0.5,0.0,0.75,0.25,1.75,0.25,0.0,0.25,-0.86,-0.48,0.77,107.25,0.0,2.0
4.0,0.0,0.0,0.25,0.5,0.0,0.0,0.0,0.0,0.25,0.25,0.0,0.0,0.25,-1.05,0.2,0.08,22.5,9.3,-6.9,0.5,0.0,0.5,0.5,1.25,0.75,0.0,1.0,0.25,1.75,0.25,0.0,0.25,-0.8,-0.48,0.7,106.08,2.5,-2.5
4.02,0.0,0.0,0.25,0.5,0.0,0.0,0.0,0.0,0.25,0.25,0.0,0.0,0.25,-1.05,0.14,0.08,23.14,9.3,-6.9,0.5,0.0,0.5,0.5,0.25,0.5,0.0,0.75,0.25,2.0,0.25,0.25,0.25,-0.67,-0.48,0.7,102.01,1.0,-20.7
4.04,0.0,0.0,0.5,0.5,0.0,0.0,0.0,0.0,0.25,0.0,0.0,0.0,0.25,-1.05,0.08,0.02,23.53,18.2,15.5,0.5,0.0,1.0,0.75,1.25,0.5,0.0,0.75,0.25,1.5,0.0,0.0,0.25,-0.61,-0.48,0.64,101.89,-2.4,9.6
4.06,0.5,0.0,0.5,0.5,0.0,0.0,0.0,0.0,0.25,0.25,0.0,0.0,0.25,-1.11,0.08,0.02,28.2,17.9,22.4,0.5,0.25,0.5,0.5,1.5,0.5,0.0,1.0,0.25,1.5,0.25,0.0,0.25,-0.55,-0.48,0.58,105.12,0.8,4.6
4.08,0.25,0.0,0.5,0.5,0.0,0.0,0.0,0.0,0.25,0.25,0.5,0.0,0.25,-1.05,0.14,0.02,33.48,15.0,-3.4,0.5,0.0,0.0,0.5,1.25,1.0,0.0,1.0,0.25,1.75,0.0,0.25,0.25,-0.67,-0.42,0.64,105.81,6.3,-7.3
4.1,0.0,0.0,0.0,0.5,0.0,0.0,0.0,0.0,0.25,0.25,0.0,0.0,0.0,-1.05,0.14,0.02,30.67,7.9,1.8,0.5,0.0,1.0,0.75,1.25,0.75,0.0,1.0,0.25,1.75,0.25,0.0,0.25,-0.73,-0.42,0.64,111.52,-0.7,3.5
4.12,0.25,0.0,0.25,0.5,0.0,0.0,0.0,0.0,0.25,0.25,0.5,0.0,0.25,-0.98,0.14,0.08,33.27,12.3,-10.8,0.5,0.0,0.25,0.5,0.25,0.75,0.0,1.0,0.25,1.5,0.25,0.0,0.5,-0.73,-0.42,0.7,104.3,4.1,-18.2
4.14,0.0,0.0,0.5,0.5,0.0,0.0,0.0,0.0,0.0,0.25,0.5,0.0,0.25,-0.92,0.14,0.08,32.08,13.0,-10.8,0.5,0.0,0.5,0.5,1.25,0.5,0.0,0.75,0.25,1.75,0.25,0.25,0.25,-0.73,-0.36,0.64,104.11,0.9,-6.3
4.16,0.0,0.0,0.25,0.5,0.0,0.0,0.0,0.0,0.25,0.25,0.5,0.0,0.25,-0.92,0.14,0.02,33.04,9.7,-23.3,0.75,0.0,0.5,0.5,0.25,0.5,0.0,1.0,0.25,1.5,0.25,0.25,0.25,-0.73,-0.42,0.64,96.33,-0.9,-12.2
4.18,0.0,0.0,0.5,0.5,0.0,0.0,0.0,0.0,0.25,0.5,0.5,0.0,0.25,-0.92,0.14,0.02,35.36,10.1,-19.9,0.5,0.0,0.5,0.75,0.0,0.5,0.0,0.75,0.25,1.5,0.25,0.0,0.25,-0.86,-0.42,0.7,89.67,-0.8,-11.4
4.2,0.0,0.0,0.0,0.5,0.0,0.0,0.0,0.0,0.25,0.0,0.5,0.0,0.25,-0.98,0.08,0.02,33.09,9.0,-29.1,0.5,0.0,0.5,0.5,1.25,0.75,0.0,0.75,0.25,1.5,0.0,0.25,0.25,-0.8,-0.42,0.7,91.13,1.5,0.2
4.22,0.0,0.0,0.25,0.5,0.0,0.0,0.0,0.0,0.25,0.25,0.5,0.0,0.25,-0.98,0.08,0.02,32.16,9.7,-23.3,0.75,0.0,0.5,0.5,1.0,0.5,0.0,1.0,0.25,1.75,0.25,0.25,0.25,-0.73,-0.42,0.7,95.62,0.1,-6.4
4.24,0.0,0.0,0.25,0.5,0.0,0.0,0.0,0.0,0.25,0.5,0.5,0.0,0.25,-1.05,0.08,0.08,31.97,6.9,-29.1,0.5,0.0,0.5,0.5,1.5,0.5,0.0,1.0,0.25,1.75,0.25,0.25,0.5,-0.61,-0.42,0.7,104.62,1.9,-8.5
4.26,0.75,0.0,0.0,0.25,0.0,0.0,0.0,0.0,0.25,0.25,0.5,0.0,0.25,-1.11,0.08,0.08,33.64,13.5,-4.3,0.5,0.0,0.25,0.5,1.0,0.5,0.0,0.75,0.25,1.75,0.25,0.25,0.25,-0.55,-0.48,0.64,104.53,2.3,-11.7
4.28,0.25,0.0,0.0,0.5,0.0,0.0,0.0,0.0,0.25,0.5,0.5,0.0,0.25,-1.05,0.08,0.02,34.14,6.2,-26.2,0.5,0.0,0.5,0.5,1.5,0.5,0.0,1.0,0.25,1.25,0.25,0.25,0.5,-0.55,-0.55,0.64,106.94,0.9,-3.9
4.3,0.0,0.0,0.0,0.5,0.0,0.0,0.0,0.0,0.25,0.0,0.5,0.0,0.25,-0.98,0.08,0.02,30.87,9.0,-29.1,0.75,0.0,0.25,0.5,1.5,0.25,0.0,1.0,0.25,1.75,0.25,0.25,0.25,-0.55,-0.55,0.64,107.0,1.0,-5.3
4.32,0.0,0.0,0.0,0.5,0.0,0.0,0.0,0.0,0.25,0.25,0.5,0.0,0.25,-0.92,0.08,0.02,29.31,5.5,-35.6,0.25,0.25,0.25,0.5,1.0,0.75,0.0,0.75,0.25,1.5,0.25,0.0,0.25,-0.48,-0.55,0.64,103.98,3.8,-2.9
4.34,0.5,0.0,0.0,0.5,0.0,0.0,0.0,0.0,0.25,0.25,1.0,0.0,0.25,-0.92,0.14,0.02,32.76,11.5,-19.8,0.5,0.0,0.25,0.5,0.25,0.5,0.0,1.0,0.25,2.0,0.25,0.0,0.25,-0.48,-0.55,0.64,97.33,3.9,-21.3
4.36,0.0,0.0,0.0,0.5,0.0,0.0,0.0,0.0,0.25,0.5,0.75,0.0,0.25,-0.92,0.08,0.02,34.11,3.7,-44.3,0.5,0.0,1.5,0.5,1.25,0.5,0.0,1.0,0.25,1.5,0.25,0.25,0.25,-0.48,-0.55,0.64,105.15,-4.1,3.5
4.38,0.0,0.0,0.0,0.5,0.0,0.0,0.0,0.0,0.25,0.5,0.5,0.0,0.25,-0.92,0.08,0.02,35.11,2.9,-40.6,0.5,0.25,0.25,0.5,1.0,0.5,0.0,1.0,0.25,1.5,0.25,0.0,0.25,-0.61,-0.55,0.64,102.96,2.2,-2.0
4.4,0.0,0.0,0.0,0.5,0.0,0.0,0.0,0.0,0.25,0.25,0.5,0.0,0.25,-0.98,0.08,0.02,32.96,5.5,-35.6,0.5,0.0,0.0,0.5,1.25,0.75,0.0,0.25,0.25,2.0,0.25,0.25,0.5,-0.61,-0.55,0.7,104.38,4.5,-14.2
4.42,0.0,0.0,0.0,0.5,0.0,0.0,0.0,0.0,0.25,0.5,0.5,0.0,0.25,-1.05,0.08,0.02,31.91,2.9,-40.6,0.5,0.0,0.5,0.5,1.0,0.5,0.0,1.0,0.25,1.5,0.25,0.0,0.25,-0.67,-0.48,0.7,101.33,1.2,-3.5
4.44,0.25,0.0,0.0,0.5,0.0,0.0,0.0,0.0,0.25,0.0,0.5,0.0,0.25,-1.05,0.08,0.02,29.79,12.5,-12.1,0.5,0.0,0.0,0.5,1.75,0.5,0.0,1.0,0.25,1.5,0.25,0.0,0.25,-0.67,-0.48,0.7,100.62,4.5,-1.1
4.46,0.0,0.0,0.0,0.5,0.0,0.0,0.0,0.0,0.25,0.25,0.5,0.0,0.25,-1.05,0.08,0.02,28.31,5.5,-35.6,0.5,0.0,0.25,0.5,1.0,0.0,0.0,0.75,0.25,2.0,0.25,0.0,0.25,-0.67,-0.42,0.7,95.07,1.7,-13.9
4.48,0.0,0.0,0.0,0.5,0.0,0.0,0.0,0.0,0.25,0.25,0.5,0.0,0.25,-1.05,0.08,0.02,27.39,5.5,-35.6,0.25,0.0,0.5,0.5,1.25,0.25,0.25,1.0,0.25,1.5,0.25,0.25,0.25,-0.67,-0.48,0.7,95.86,0.8,-9.4
4.5,0.0,0.0,0.0,0.5,0.0,0.0,0.0,0.0,0.25,0.25,0.25,0.0,0.25,-1.05,0.08,-0.05,25.68,4.7,-29.3,0.0,0.0,0.25,0.5,1.25,0.5,0.0,1.0,0.25,1.75,0.25,0.0,0.25,-0.61,-0.48,0.7,94.7,6.2,-14.1
4.52,0.0,0.0,0.0,0.5,0.0,0.0,0.0,0.0,0.25,0.0,0.5,0.0,0.25,-0.98,0.14,-0.05,24.07,9.0,-29.1,0.25,0.25,0.25,0.5,0.5,0.25,0.0,0.5,0.25,1.5,0.25,0.0,0.25,-0.61,-0.48,0.64,86.73,1.4,-11.4
4.54,0.0,0.0,0.0,0.5,0.0,0.0,0.0,0.0,0.25,0.25,0.5,0.0,0.25,-0.98,0.14,-0.05,24.43,5.5,-35.6,0.75,0.0,0.5,0.75,1.25,0.0,0.0,0.75,0.25,1.75,0.25,0.25,0.25,-0.55,-0.48,0.64,90.79,-2.4,-3.1
4.56,0.0,0.0,0.0,0.25,0.0,0.0,0.0,0.0,0.25,0.0,0.5,0.0,0.25,-0.98,0.14,0.02,22.07,7.3,-47.3,0.5,0.0,0.0,0.5,1.75,0.25,0.0,1.0,0.25,1.75,0.25,0.25,0.5,-0.55,-0.48,0.64,96.77,4.1,-12.4
4.58,1.0,0.0,0.25,0.5,0.0,0.0,0.0,0.0,0.25,0.25,0.5,0.0,0.25,-0.98,0.08,0.02,30.09,17.7,14.9,0.5,0.0,0.5,0.5,1.25,0.5,0.25,1.0,0.25,1.75,0.25,0.0,0.5,-0.55,-0.48,0.64,104.0,1.6,-7.0
4.6,1.0,0.0,0.0,0.5,0.0,0.0,0.0,0.0,0.25,0.0,0.25,0.0,0.0,-0.98,0.14,0.02,33.16,24.3,48.2,0.5,0.0,0.5,0.5,1.25,0.0,0.0,1.0,0.25,2.0,0.25,0.0,0.25,-0.61,-0.48,0.7,104.47,0.8,-9.1
4.62,1.0,0.0,0.0,0.5,0.0,0.0,0.0,0.0,0.25,0.25,0.5,0.0,0.25,-0.98,0.14,-0.05,39.92,15.7,10.5,0.5,0.0,1.25,0.5,0.5,0.5,0.0,1.0,0.25,2.0,0.25,0.0,0.25,-0.67,-0.48,0.7,108.36,-2.2,-6.2
4.64,1.0,0.0,0.0,0.5,0.0,0.0,0.0,0.0,0.25,0.25,0.5,0.0,0.25,-0.98,0.14,-0.05,42.65,15.7,10.5,0.5,0.0,0.25,0.75,1.25,0.25,0.0,1.0,0.25,1.75,0.25,0.0,0.25,-0.61,-0.55,0.77,106.17,1.8,-5.1
4.66,1.0,0.0,0.0,0.5,0.0,0.0,0.0,0.0,0.25,0.25,0.5,0.0,0.25,-0.98,0.08,-0.05,45.58,15.7,10.5,0.75,0.0,0.5,0.5,0.25,0.5,0.0,1.0,0.25,1.75,0.25,0.25,0.25,-0.61,-0.55,0.77,102.47,-0.2,-14.8
4.68,1.0,0.0,0.0,0.5,0.0,0.0,0.0,0.0,0.25,0.25,0.5,0.0,0.25,-1.05,0.08,-0.05,46.38,15.7,10.5,0.5,0.0,0.25,0.5,0.5,0.25,0.0,1.0,0.25,2.0,0.25,0.0,0.5,-0.55,-0.48,0.7,97.71,3.5,-23.6
4.7,1.0,0.0,0.0,0.25,0.0,0.0,0.0,0.0,0.25,0.0,0.5,0.0,0.25,-1.05,0.08,-0.05,44.44,19.1,14.7,0.5,0.0,0.5,0.5,1.5,0.5,0.0,1.0,0.25,1.75,0.25,0.25,0.5,-0.55,-0.42,0.77,103.28,1.9,-8.5
4.72,1.0,0.0,0.0,0.5,0.0,0.0,0.0,0.0,0.25,0.0,0.25,0.0,0.25,-1.05,0.14,-0.05,42.52,19.8,29.8,0.5,0.0,0.75,0.5,1.75,0.25,0.0,1.0,0.25,1.75,0.25,0.25,0.25,-0.61,-0.48,0.7,109.04,-0.3,-1.9
4.74,1.0,0.0,0.0,0.25,0.0,0.0,0.0,0.0,0.25,0.25,0.5,0.0,0.25,-1.05,0.14,-0.05,41.07,15.5,5.4,0.0,0.0,0.5,0.5,1.0,0.5,0.0,0.75,0.25,1.5,0.25,0.25,0.25,-0.61,-0.48,0.7,106.21,3.0,-14.5
4.76,0.75,0.0,0.0,0.25,0.0,0.0,0.0,0.0,0.25,0.5,0.5,0.0,0.25,-0.98,0.14,-0.05,40.23,10.5,-11.5,0.5,0.0,0.5,0.5,1.0,0.25,0.0,1.0,0.25,1.5,0.25,0.0,0.25,-0.67,-0.48,0.7,102.34,0.3,-5.0
4.78,0.0,0.0,0.0,0.25,0.0,0.0,0.0,0.0,0.25,0.25,0.5,0.0,0.25,-0.98,0.08,-0.05,34.7,3.5,-52.0,0.75,0.0,0.0,0.5,1.0,0.5,0.0,1.0,0.25,1.5,0.25,0.0,0.25,-0.67,-0.48,0.7,95.33,3.1,-5.1
4.8,0.0,0.0,0.0,0.25,0.0,0.0,0.0,0.0,0.25,0.25,0.0,0.0,0.25,-0.98,0.08,0.02,26.84,0.0,-40.8,0.25,0.0,0.25,0.5,1.25,0.25,0.0,1.0,0.25,1.75,0.25,0.0,0.25,-0.67,-0.48,0.7,92.52,4.0,-11.7
4.82,0.0,0.0,0.0,0.25,0.0,0.0,0.0,0.0,0.25,0.25,0.5,0.0,0.25,-0.98,0.08,0.02,21.59,3.5,-52.0,0.5,0.0,0.5,0.5,1.25,0.0,0.0,1.0,0.25,1.25,0.25,0.0,0.5,-0.61,-0.42,0.77,91.83,-0.3,-5.2
4.84,0.0,0.0,0.25,0.25,0.0,0.0,0.25,0.0,0.25,0.25,0.5,0.0,0.25,-0.98,0.08,0.02,21.59,10.1,-31.4,0.75,0.25,1.25,0.75,1.25,0.25,0.0,1.0,0.0,1.5,0.25,0.0,0.25,-0.55,-0.48,0.7,102.16,-5.0,13.5
4.86,0.0,0.0,0.25,0.25,0.0,0.0,0.0,0.0,0.25,0.25,0.5,0.0,0.25,-0.92,0.08,-0.05,22.27,8.6,-35.4,0.5,0.0,0.5,0.5,0.5,0.0,0.0,1.0,0.0,1.5,0.25,0.0,0.5,-0.55,-0.55,0.7,96.85,0.3,-16.5
4.88,0.0,0.0,0.0,0.25,0.0,0.0,0.0,0.0,0.25,0.25,0.25,0.0,0.5,-0.92,0.08,-0.05,23.16,-0.5,-58.1,0.5,0.0,0.25,0.75,1.0,0.25,0.0,0.75,0.0,1.75,0.25,0.0,0.25,-0.55,-0.55,0.7,95.29,1.7,-5.2
4.9,0.25,0.0,0.0,0.25,0.0,0.0,0.0,0.0,0.25,0.0,0.5,0.0,0.25,-0.98,0.08,-0.05,22.65,11.7,-24.4,0.5,0.0,0.25,0.5,1.0,0.0,0.0,1.0,0.0,1.5,0.25,0.0,0.25,-0.55,-0.48,0.7,87.96,1.8,-8.3
4.92,0.25,0.0,0.0,0.5,0.0,0.0,0.0,0.0,0.25,0.0,0.5,0.0,0.25,-0.98,0.08,-0.05,23.19,12.5,-12.1,0.75,0.25,0.25,0.75,1.25,0.0,0.0,0.75,0.0,1.75,0.25,0.0,0.5,-0.55,-0.48,0.7,91.01,-0.2,-0.5
4.94,0.5,0.0,1.0,0.5,0.0,0.0,0.0,0.0,0.25,0.25,0.5,0.0,0.25,-1.05,0.08,-0.05,33.12,20.1,13.9,0.5,0.25,0.25,0.5,1.25,0.0,0.0,1.0,0.0,1.5,0.25,0.0,0.25,-0.61,-0.48,0.7,89.22,1.2,-0.6
4.96,0.0,0.0,0.0,0.25,0.0,0.0,0.0,0.0,0.25,0.0,0.5,0.0,0.25,-1.05,0.08,-0.05,31.26,7.3,-47.3,0.25,0.5,0.25,0.5,1.25,0.25,0.0,1.0,0.0,1.5,0.25,0.0,0.25,-0.61,-0.48,0.7,93.8,2.8,1.0
4.98,0.75,0.0,0.0,0.5,0.0,0.0,0.0,0.0,0.25,0.25,0.5,0.0,0.25,-1.05,0.08,-0.05,36.02,13.9,2.2,1.0,0.0,0.25,0.0,1.25,0.5,0.0,1.0,0.0,2.0,0.25,0.0,0.25,-0.55,-0.48,0.7,97.39,3.3,-5.4
5.0,1.0,0.0,0.25,0.25,0.0,0.0,0.0,0.0,0.25,0.0,0.25,0.0,0.25,-0.98,0.08,-0.05,36.43,22.3,30.1,0.75,0.0,0.25,0.5,1.25,0.25,0.0,1.0,0.0,1.75,0.25,0.0,0.25,-0.48,-0.48,0.7,98.35,1.8,-2.7
5.02,1.0,0.0,0.0,0.5,0.0,0.0,0.0,0.0,0.25,0.0,0.5,0.0,0.25,-0.98,0.08,-0.05,40.29,18.9,19.3,0.5,0.0,0.0,0.5,1.25,0.0,0.0,1.0,0.25,1.5,0.25,0.0,0.25,-0.48,-0.48,0.7,94.75,3.1,-9.6
5.04,1.0,0.0,0.25,0.5,0.0,0.0,0.0,0.0,0.25,0.0,0.0,0.0,0.25,-0.98,0.08,-0.05,40.26,22.9,44.9,0.75,0.0,0.25,0.5,1.25,0.5,0.0,1.0,0.0,1.5,0.25,0.0,0.25,-0.55,-0.48,0.7,95.37,2.1,1.4
5.06,1.25,0.0,0.5,0.25,0.0,0.0,0.0,0.0,0.25,0.0,0.5,0.0,0.0,-0.92,0.08,0.02,43.67,27.4,42.9,0.75,0.0,0.0,0.5,1.5,0.25,0.0,1.0,0.0,1.75,0.25,0.0,0.25,-0.55,-0.48,0.7,95.91,3.5,-2.7
5.08,1.0,0.0,0.5,0.5,0.0,0.0,0.0,0.0,0.25,0.0,0.5,0.0,0.25,-0.98,0.14,-0.05,46.87,22.3,26.6,0.5,0.0,0.0,0.5,1.5,0.0,0.0,1.0,0.0,1.5,0.25,0.0,0.5,-0.55,-0.48,0.7,94.8,4.2,-9.6
5.1,1.0,0.0,0.0,0.25,0.0,0.0,0.0,0.0,0.25,0.0,0.5,0.0,0.25,-0.98,0.08,-0.05,45.2,19.1,14.7,0.5,0.0,0.0,0.5,1.75,0.0,0.0,0.5,0.0,1.5,0.25,0.0,0.25,-0.55,-0.55,0.7,93.17,2.5,0.9
5.12,1.0,0.0,0.5,0.5,0.0,0.0,0.0,0.0,0.25,0.0,0.5,0.0,0.25,-1.05,0.08,0.02,47.5,22.3,26.6,0.5,0.0,0.5,0.5,1.25,0.5,0.0,1.0,0.0,1.75,0.25,0.0,0.25,-0.55,-0.48,0.7,95.03,2.3,-2.4
5.14,1.0,0.0,0.25,0.25,0.0,0.0,0.0,0.0,0.25,0.25,0.75,0.0,0.25,-1.11,0.14,0.02,47.65,17.1,3.6,0.5,0.0,0.0,0.5,1.25,0.0,0.0,0.75,0.0,1.5,0.25,0.0,0.5,-0.48,-0.55,0.7,90.59,3.6,-11.7
5.16,1.0,0.0,0.25,0.5,0.0,0.0,0.0,0.0,0.25,0.0,0.5,0.0,0.25,-1.11,0.14,0.02,47.67,20.8,23.3,0.75,0.0,0.25,0.75,1.25,0.0,0.0,1.0,0.0,1.5,0.25,0.0,0.5,-0.42,-0.55,0.77,92.53,0.2,-3.0
5.18,1.0,0.0,0.25,0.5,0.0,0.0,0.0,0.0,0.25,0.25,0.5,0.0,0.25,-0.98,0.2,-0.05,47.83,17.7,14.9,0.75,0.0,0.25,0.5,0.5,0.0,0.0,1.0,0.0,1.75,0.25,0.0,0.25,-0.42,-0.55,0.7,88.25,0.7,-13.5
5.2,1.0,0.0,0.25,0.5,0.0,0.0,0.0,0.0,0.25,0.0,0.0,0.0,0.25,-0.92,0.2,-0.05,46.48,22.9,44.9,0.75,0.0,0.0,0.5,1.25,0.0,0.0,1.0,0.0,2.0,0.25,0.0,0.25,-0.42,-0.55,0.77,89.76,3.3,-9.7
5.22,0.75,0.0,0.0,0.5,0.0,0.0,0.0,0.0,0.25,0.25,0.5,0.0,0.25,-0.92,0.2,-0.05,43.02,13.9,2.2,0.5,0.0,0.75,0.5,1.25,0.0,0.0,1.0,0.0,1.25,0.25,0.0,0.25,-0.48,-0.55,0.7,89.02,-2.1,3.4
5.24,0.5,0.0,0.25,0.5,0.0,0.0,0.0,0.0,0.25,0.25,0.5,0.0,0.25,-0.92,0.2,-0.05,40.65,14.4,-0.6,0.75,0.0,0.25,0.5,1.25,0.25,0.0,0.75,0.0,1.5,0.25,0.0,0.25,-0.48,-0.55,0.77,91.1,0.6,1.8
5.26,1.0,0.0,0.0,0.25,0.0,0.0,0.0,0.0,0.25,0.0,0.5,0.0,0.25,-0.98,0.14,0.02,38.29,19.1,14.7,0.75,0.0,0.25,0.5,1.25,0.0,0.0,1.0,0.0,2.0,0.25,0.0,0.5,-0.48,-0.48,0.77,94.73,2.1,-10.8
5.28,0.75,0.0,0.5,0.25,0.0,0.0,0.0,0.0,0.25,0.0,0.5,0.0,0.0,-0.98,0.08,0.02,36.75,25.8,31.2,0.75,0.0,0.5,0.5,1.5,0.0,0.0,1.0,0.0,1.5,0.25,0.0,0.25,-0.48,-0.48,0.77,97.42,-0.9,3.7
5.3,1.0,0.0,0.25,0.5,0.0,0.0,0.0,0.0,0.25,0.5,0.5,0.0,0.0,-1.05,0.08,-0.05,39.61,17.6,18.1,0.5,0.0,0.25,0.5,1.25,0.25,0.0,1.0,0.0,1.5,0.25,0.0,0.25,-0.48,-0.55,0.77,97.05,2.7,-3.6
5.32,1.0,0.0,0.0,0.25,0.0,0.0,0.0,0.0,0.25,0.0,0.25,0.0,0.5,-1.05,0.14,-0.05,38.72,16.2,10.1,0.75,0.0,0.25,0.5,1.25,0.0,0.0,1.0,0.0,2.0,0.25,0.0,0.25,-0.48,-0.55,0.77,97.89,1.6,-6.9
5.34,0.25,0.0,0.5,0.5,0.0,0.0,0.0,0.0,0.25,0.0,0.25,0.0,0.0,-1.05,0.14,-0.05,36.05,24.1,32.2,0.5,0.0,0.25,0.5,1.25,0.0,0.0,1.0,0.0,1.5,0.25,0.0,0.25,-0.42,-0.55,0.77,94.48,1.9,-5.1
5.36,0.0,0.0,0.25,0.25,0.0,0.0,0.0,0.0,0.25,0.0,0.0,0.0,0.5,-0.98,0.2,-0.05,28.11,8.0,-27.4,0.5,0.0,0.0,0.5,1.0,0.0,0.0,1.0,0.0,1.75,0.25,0.0,0.25,-0.42,-0.55,0.77,89.38,4.3,-14.7
5.38,1.0,0.0,0.25,0.25,0.0,0.0,0.25,0.0,0.25,0.0,0.25,0.0,0.5,-0.98,0.2,0.02,30.26,19.2,15.9,0.5,0.0,0.5,0.5,1.25,0.0,0.0,1.0,0.0,1.5,0.25,0.0,0.5,-0.42,-0.55,0.77,89.98,0.7,-6.7
5.4,1.0,0.0,0.0,0.5,0.0,0.0,0.0,0.0,0.25,0.25,0.25,0.0,0.25,-0.98,0.2,0.02,32.41,16.2,19.0,0.5,0.0,0.5,0.5,0.0,0.0,0.0,1.0,0.0,1.5,0.0,0.0,0.5,-0.48,-0.55,0.77,81.68,0.5,-22.3
5.42,1.0,0.0,0.25,0.5,0.0,0.0,0.0,0.0,0.25,0.0,0.5,0.0,0.25,-0.98,0.2,0.02,38.42,20.8,23.3,0.5,0.0,0.25,0.5,1.25,0.0,0.0,1.0,0.0,1.75,0.25,0.0,0.25,-0.48,-0.55,0.77,83.49,2.4,-8.1
5.44,1.0,0.0,0.25,0.25,0.0,0.0,0.0,0.0,0.25,0.25,0.0,0.0,0.25,-0.98,0.2,0.02,39.81,19.2,29.7,0.5,0.0,0.25,0.5,1.25,0.0,0.0,1.0,0.0,1.5,0.25,0.0,0.25,-0.42,-0.55,0.77,82.26,1.9,-5.1
5.46,0.75,0.0,0.25,0.5,0.0,0.0,0.0,0.0,0.25,0.0,0.25,0.0,0.0,-0.98,0.14,0.02,38.7,24.8,44.0,0.5,0.0,0.5,0.5,1.25,0.0,0.0,1.0,0.0,1.75,0.25,0.0,0.25,-0.42,-0.55,0.77,87.46,0.7,-5.2
5.48,1.0,0.0,0.25,0.25,0.0,0.0,0.0,0.0,0.25,0.0,0.75,0.0,0.5,-1.05,0.14,0.02,40.47,17.2,0.4,0.75,0.0,0.5,0.5,1.25,0.0,0.0,1.0,0.0,1.75,0.25,0.0,0.25,-0.48,-0.55,0.77,91.41,-0.5,-1.5
5.5,1.0,0.0,0.25,0.25,0.0,0.0,0.0,0.0,0.25,0.0,0.0,0.0,0.25,-1.05,0.14,0.02,38.49,23.7,43.1,1.0,0.0,0.5,0.5,1.25,0.0,0.0,1.0,0.0,1.75,0.25,0.0,0.25,-0.42,-0.55,0.77,97.3,-1.7,1.9
5.52,1.0,0.0,0.0,0.5,0.0,0.0,0.0,0.0,0.25,0.25,0.25,0.0,0.25,-0.98,0.14,0.02,39.64,16.2,19.0,0.5,0.0,0.5,0.5,1.25,0.25,0.0,1.0,0.0,1.5,0.25,0.0,0.25,-0.42,-0.55,0.77,98.66,1.0,-0.9
5.54,1.0,0.0,0.0,0.5,0.0,0.0,0.0,0.0,0.25,0.0,0.25,0.0,0.0,-0.98,0.2,0.02,37.28,24.3,48.2,0.75,0.0,0.0,0.5,0.5,0.0,0.0,0.75,0.0,1.75,0.25,0.0,0.25,-0.42,-0.55,0.77,91.41,1.9,-16.2
5.56,1.0,0.0,0.5,0.25,0.0,0.0,0.0,0.0,0.25,0.0,0.25,0.0,0.25,-0.98,0.2,0.02,39.62,24.0,33.3,0.5,0.0,0.25,0.5,1.0,0.0,0.0,1.0,0.0,1.5,0.25,0.0,0.25,-0.36,-0.55,0.77,86.72,1.8,-8.3
5.58,0.75,0.0,0.25,0.25,0.0,0.0,0.0,0.0,0.25,0.0,0.25,0.0,0.25,-0.98,0.2,0.02,37.02,20.8,22.0,0.75,0.0,0.0,0.5,1.0,0.0,0.0,0.75,0.0,1.75,0.25,0.0,0.25,-0.36,-0.55,0.7,82.97,2.0,-8.7
5.6,1.0,0.0,0.0,0.5,0.0,0.0,0.0,0.0,0.25,0.0,0.25,0.0,0.5,-0.98,0.2,0.02,38.23,16.3,15.1,0.5,0.0,0.25,0.5,1.25,0.0,0.0,1.0,0.0,1.5,0.25,0.0,0.25,-0.42,-0.55,0.7,83.77,1.9,-5.1
5.62,1.0,0.0,0.25,0.5,0.0,0.0,0.0,0.0,0.25,0.0,0.5,0.0,0.5,-0.98,0.14,0.02,40.33,17.8,11.7,0.5,0.0,0.5,0.5,0.0,0.0,0.0,1.0,0.0,1.5,0.25,0.0,0.25,-0.48,-0.55,0.77,77.96,-0.8,-20.2
5.64,1.0,0.0,0.25,0.25,0.0,0.0,0.0,0.0,0.25,0.0,0.75,0.0,0.25,-0.98,0.14,0.02,42.86,20.2,11.0,0.75,0.0,0.5,0.5,1.25,0.0,0.0,1.0,0.0,1.75,0.25,0.0,0.25,-0.48,-0.48,0.77,84.95,-0.5,-1.5
5.66,0.75,0.0,0.25,0.5,0.0,0.0,0.0,0.0,0.25,0.25,0.5,0.0,0.25,-1.05,0.14,0.02,44.47,16.2,7.8,0.5,0.0,0.0,0.5,0.5,0.0,0.0,1.0,0.0,1.5,0.25,0.0,0.25,-0.48,-0.48,0.77,77.81,3.9,-20.0
5.68,1.0,0.0,0.25,0.25,0.0,0.0,0.0,0.0,0.25,0.25,0.25,0.0,0.0,-1.05,0.14,0.02,42.94,22.2,34.4,0.5,0.0,0.25,0.5,1.25,0.0,0.0,1.0,0.0,1.75,0.25,0.0,0.25,-0.48,-0.48,0.77,82.08,2.4,-8.1
5.7,1.0,0.0,0.25,0.5,0.0,0.0,0.0,0.0,0.25,0.0,0.25,0.0,0.25,-1.05,0.14,0.02,42.26,21.7,33.0,0.5,0.0,0.5,0.5,0.25,0.0,0.0,1.0,0.0,1.5,0.25,0.0,0.25,-0.48,-0.48,0.77,76.94,-0.5,-15.7
5.72,0.5,0.0,0.25,0.25,0.0,0.0,0.0,0.0,0.25,0.0,0.5,0.0,0.25,-0.98,0.14,0.08,37.63,17.9,1.1,0.5,0.0,0.25,0.5,1.25,0.0,0.0,1.0,0.0,1.25,0.25,0.0,0.25,-0.48,-0.48,0.77,79.75,1.2,-1.9
5.74,1.25,0.0,0.25,0.25,0.0,0.0,0.0,0.0,0.25,0.25,0.75,0.0,0.25,-0.98,0.14,0.02,42.27,18.5,10.6,0.5,0.0,0.0,0.5,1.25,0.0,0.0,1.0,0.0,1.75,0.25,0.0,0.25,-0.48,-0.48,0.7,80.63,4.3,-11.2
5.76,1.0,0.0,0.25,0.25,0.0,0.0,0.0,0.0,0.25,0.0,0.0,0.0,0.25,-0.98,0.14,0.02,39.41,23.7,43.1,0.5,0.0,0.25,0.5,1.0,0.0,0.0,0.75,0.0,1.5,0.25,0.0,0.25,-0.48,-0.48,0.7,82.27,1.1,-6.8
5.78,1.0,0.0,0.25,0.25,0.0,0.0,0.0,0.0,0.25,0.0,0.25,0.0,0.0,-0.98,0.14,0.08,38.4,27.1,48.6,0.5,0.0,0.25,0.5,1.25,0.0,0.0,0.75,0.0,1.75,0.25,0.25,0.25,-0.55,-0.48,0.77,85.9,1.4,-11.0
5.8,1.0,0.0,0.25,0.25,0.0,0.0,0.0,0.0,0.25,0.0,0.5,0.0,0.25,-0.98,0.14,0.08,37.15,21.2,19.6,0.5,0.0,0.75,0.5,1.75,0.0,0.0,0.75,0.0,1.5,0.0,0.0,0.25,-0.55,-0.48,0.77,90.56,-1.3,9.6
5.82,0.5,0.0,0.25,0.25,0.0,0.0,0.0,0.0,0.25,0.0,0.25,0.0,0.25,-0.98,0.14,0.08,33.94,18.9,11.8,0.5,0.0,0.0,0.5,1.25,0.0,0.0,1.0,0.0,1.75,0.25,0.0,0.25,-0.55,-0.48,0.77,91.62,4.3,-11.2
5.84,0.5,0.0,0.25,0.25,0.0,0.0,0.0,0.0,0.25,0.5,0.5,0.0,0.25,-0.98,0.14,0.08,33.79,11.1,-14.3,0.5,0.0,0.25,0.5,1.25,0.0,0.0,0.75,0.0,1.5,0.25,0.0,0.25,-0.55,-0.48,0.77,90.31,1.2,-3.6
5.86,1.0,0.0,0.0,0.25,0.0,0.0,0.0,0.0,0.25,0.0,0.25,0.0,0.25,-0.98,0.14,0.02,32.26,20.2,26.0,1.0,0.0,0.75,0.5,1.25,0.0,0.0,1.0,0.0,2.0,0.25,0.0,0.25,-0.55,-0.48,0.77,97.59,-2.4,1.3
5.88,0.5,0.0,0.25,0.25,0.0,0.0,0.0,0.0,0.25,0.25,0.5,0.0,0.25,-0.98,0.14,0.02,33.59,14.1,-7.4,0.5,0.0,0.0,0.5,1.25,0.0,0.0,1.0,0.0,1.75,0.25,0.0,0.25,-0.55,-0.48,0.77,95.01,4.3,-11.2
5.9,0.5,0.0,0.0,0.25,0.0,0.0,0.0,0.0,0.25,0.25,0.5,0.0,0.25,-0.98,0.14,0.02,31.75,10.9,-16.4,0.5,0.0,0.5,0.5,1.25,0.0,0.0,1.0,0.0,1.75,0.25,0.0,0.25,-0.55,-0.48,0.77,97.81,0.7,-5.2
5.92,0.75,0.0,0.25,0.25,0.0,0.0,0.0,0.0,0.25,0.0,0.0,0.0,0.25,-0.98,0.14,0.02,30.82,22.2,35.7,0.75,0.0,0.0,0.5,1.0,0.0,0.0,1.0,0.0,1.5,0.25,0.0,0.25,-0.55,-0.48,0.77,92.15,2.1,-7.0
5.94,1.0,0.0,0.25,0.25,0.0,0.0,0.0,0.0,0.25,0.0,0.25,0.0,0.25,-0.98,0.14,0.02,31.61,22.3,30.1,0.75,0.0,0.5,0.5,1.25,0.0,0.0,1.0,0.0,2.0,0.25,0.0,0.25,-0.55,-0.48,0.77,96.27,0.1,-4.2
5.96,1.0,0.0,0.0,0.5,0.0,0.0,0.0,0.0,0.25,0.0,0.0,0.0,0.25,-0.98,0.14,0.08,32.23,20.9,42.7,0.5,0.0,0.0,0.5,0.5,0.0,0.0,0.5,0.0,1.75,0.25,0.0,0.25,-0.55,-0.48,0.77,84.72,3.0,-21.0
5.98,0.75,0.0,0.25,0.25,0.0,0.0,0.0,0.0,0.25,0.0,0.0,0.0,0.25,-1.05,0.14,0.08,31.13,22.2,35.7,0.5,0.0,0.25,0.5,1.25,0.0,0.0,1.0,0.0,1.5,0.25,0.0,0.25,-0.55,-0.48,0.77,84.91,1.9,-5.1
6.0,1.0,0.0,0.25,0.5,0.0,0.0,0.0,0.0,0.25,0.25,0.25,0.0,0.25,-0.98,0.14,0.08,36.17,18.3,23.0,0.5,0.0,0.5,0.5,0.25,0.0,0.0,1.0,0.0,1.5,0.25,0.0,0.25,-0.55,-0.48,0.77,77.94,-0.5,-15.7
6.02,1.0,0.0,0.25,0.25,0.0,0.0,0.0,0.0,0.25,0.0,0.0,0.0,0.25,-0.98,0.14,0.08,36.02,23.7,43.1,0.5,0.0,0.0,0.5,1.25,0.0,0.0,1.0,0.0,1.5,0.25,0.0,0.25,-0.48,-0.48,0.77,78.34,3.8,-8.3
6.04,1.0,0.0,0.25,0.0,0.0,0.0,0.0,0.0,0.25,0.0,0.5,0.0,0.25,-0.98,0.14,0.02,36.79,21.6,15.0,0.5,0.0,0.75,0.5,1.5,0.0,0.0,1.0,0.0,1.5,0.25,0.0,0.25,-0.48,-0.48,0.77,83.81,-1.2,2.6
6.06,1.0,0.0,0.25,0.25,0.0,0.0,0.0,0.0,0.25,0.25,0.5,0.0,0.0,-0.98,0.14,0.08,38.18,21.0,23.5,0.5,0.0,0.0,0.5,1.5,0.0,0.0,1.0,0.0,2.0,0.25,0.0,0.25,-0.48,-0.48,0.77,90.15,4.7,-10.8
6.08,1.0,0.0,0.0,0.25,0.0,0.0,0.0,0.0,0.25,0.25,0.5,0.0,0.25,-0.98,0.14,0.08,39.15,15.5,5.4,0.25,0.25,0.25,0.5,0.5,0.0,0.0,1.0,0.0,2.0,0.25,0.25,0.25,-0.48,-0.48,0.77,89.72,3.3,-24.7
6.1,1.0,0.0,0.25,0.5,0.0,0.0,0.0,0.0,0.25,0.0,0.25,0.0,0.25,-0.98,0.14,0.08,40.71,21.7,33.0,0.5,0.0,0.0,0.5,1.25,0.0,0.0,1.0,0.0,1.5,0.25,0.0,0.25,-0.55,-0.48,0.77,86.9,3.8,-8.3
6.12,0.75,0.0,0.25,0.25,0.0,0.0,0.0,0.0,0.25,0.0,0.5,0.0,0.25,-0.98,0.14,0.08,39.99,19.7,11.3,0.75,0.0,0.5,0.5,0.5,0.0,0.0,1.0,0.0,1.5,0.25,0.0,0.5,-0.55,-0.48,0.77,86.11,-1.1,-11.7
6.14,1.0,0.0,0.25,0.5,0.0,0.0,0.0,0.0,0.25,0.25,0.5,0.0,0.25,-0.98,0.14,0.08,43.52,17.7,14.9,0.75,0.0,0.0,0.5,1.25,0.0,0.0,1.0,0.0,1.75,0.25,0.0,0.5,-0.55,-0.48,0.77,87.54,3.2,-11.2
6.16,1.25,0.0,0.25,0.25,0.0,0.0,0.0,0.0,0.25,0.0,0.25,0.0,0.5,-0.98,0.14,0.02,44.44,19.9,22.5,0.5,0.0,0.5,0.5,0.5,0.0,0.0,1.0,0.0,1.5,0.25,0.0,0.25,-0.55,-0.48,0.77,85.3,-0.3,-11.8
6.18,1.0,0.0,0.25,0.5,0.0,0.0,0.0,0.0,0.25,0.25,0.5,0.0,0.25,-0.98,0.14,0.02,47.15,17.7,14.9,0.5,0.0,0.5,0.5,1.25,0.0,0.0,1.0,0.0,1.5,0.25,0.0,0.25,-0.55,-0.48,0.77,87.88,0.1,-2.3
6.2,1.0,0.0,0.25,0.5,0.0,0.0,0.0,0.0,0.25,0.0,0.5,0.0,0.0,-0.98,0.14,0.02,46.4,24.4,37.3,0.5,0.0,0.0,0.5,1.0,0.0,0.0,1.0,0.0,1.25,0.0,0.0,0.25,-0.48,-0.48,0.77,83.31,3.9,-5.0
6.22,1.25,0.0,0.0,0.25,0.0,0.0,0.0,0.0,0.25,0.0,0.5,0.0,0.25,-0.98,0.14,0.02,44.99,20.7,22.7,0.75,0.0,0.0,0.5,1.0,0.0,0.0,1.0,0.0,1.5,0.25,0.0,0.25,-0.48,-0.48,0.77,81.7,2.1,-7.0
6.24,1.0,0.0,0.25,0.25,0.0,0.0,0.0,0.0,0.25,0.0,0.5,0.0,0.25,-0.98,0.14,0.02,42.31,21.2,19.6,0.5,0.0,0.25,0.5,0.5,0.0,0.0,1.0,0.0,2.0,0.25,0.0,0.25,-0.48,-0.48,0.77,79.27,2.9,-21.3
6.26,0.75,0.0,0.25,0.5,0.0,0.0,0.0,0.0,0.25,0.25,0.5,0.0,0.25,-0.98,0.14,0.02,42.88,16.2,7.8,0.75,0.0,0.25,0.5,1.25,0.0,0.0,1.0,0.0,1.25,0.25,0.0,0.25,-0.55,-0.48,0.77,81.66,-0.2,2.1
6.28,1.25,0.0,0.25,0.5,0.0,0.0,0.0,0.0,0.25,0.25,0.5,0.0,0.25,-0.98,0.14,0.02,46.1,18.9,21.0,0.5,0.0,0.5,0.5,0.5,0.0,0.0,1.0,0.0,1.5,0.25,0.0,0.25,-0.55,-0.48,0.77,79.63,-0.3,-11.8
6.3,1.0,0.0,0.25,0.5,0.0,0.0,0.0,0.0,0.25,0.0,0.25,0.0,0.5,-0.98,0.14,0.08,46.8,18.4,19.5,0.5,0.0,0.25,0.5,1.25,0.0,0.0,1.0,0.0,1.5,0.25,0.0,0.25,-0.48,-0.48,0.77,83.2,1.9,-5.1
