time,left pressure 0[N/cm²],left pressure 1[N/cm²],left pressure 2[N/cm²],left pressure 3[N/cm²],left pressure 4[N/cm²],left pressure 5[N/cm²],left pressure 6[N/cm²],left pressure 7[N/cm²],left pressure 8[N/cm²],left pressure 9[N/cm²],left pressure 10[N/cm²],left pressure 11[N/cm²],left pressure 12[N/cm²],left acceleration X[g],left acceleration Y[g],left acceleration Z[g],left total force[N],left center of pressure X[mm],left center of pressure Y[mm],right pressure 0[N/cm²],right pressure 1[N/cm²],right pressure 2[N/cm²],right pressure 3[N/cm²],right pressure 4[N/cm²],right pressure 5[N/cm²],right pressure 6[N/cm²],right pressure 7[N/cm²],right pressure 8[N/cm²],right pressure 9[N/cm²],right pressure 10[N/cm²],right pressure 11[N/cm²],right pressure 12[N/cm²],right acceleration X[g],right acceleration Y[g],right acceleration Z[g],right total force[N],right center of pressure X[mm],right center of pressure Y[mm]
0.02,8.25,3.0,5.5,12.0,9.75,5.25,2.75,2.5,0.25,1.0,1.75,0.5,0.0,-0.17,0.14,1.02,798.39,11.4,49.0,1.0,0.25,0.75,0.5,1.5,1.0,0.25,0.75,0.0,0.75,0.75,0.0,0.25,0.14,0.02,1.02,120.61,-3.9,19.8
0.04,8.25,2.5,5.5,11.5,9.75,5.25,3.0,3.0,0.5,1.0,1.75,0.25,1.25,-0.11,0.08,1.02,919.19,10.5,44.1,1.25,0.25,0.75,0.5,1.5,1.0,0.25,0.75,0.0,0.5,1.0,0.0,0.5,0.14,-0.05,0.95,122.0,-5.1,18.0
0.06,7.75,2.0,5.5,11.0,9.5,5.5,3.0,3.25,0.75,1.0,1.75,0.5,1.25,-0.11,0.08,0.95,980.56,10.0,41.3,1.0,0.25,0.75,0.5,1.5,1.0,0.25,0.75,0.0,0.75,0.75,0.0,0.25,0.2,-0.11,1.02,121.61,-3.9,19.8
0.08,7.75,1.75,5.25,10.5,9.5,5.25,2.75,3.25,0.75,1.0,1.75,0.25,1.0,-0.11,0.08,0.95,978.23,10.0,42.3,1.0,0.25,0.5,0.5,1.5,1.0,0.25,0.5,0.0,0.75,0.75,0.0,0.0,0.27,-0.17,1.08,119.04,-4.1,25.1
0.1,7.75,1.5,5.25,10.5,9.0,5.0,2.5,3.25,0.5,1.0,1.75,0.25,1.25,-0.17,0.14,0.95,927.42,10.1,41.6,1.0,0.25,0.75,0.5,1.5,1.0,0.25,0.75,0.0,0.75,0.25,0.25,0.25,0.27,-0.05,0.89,117.61,-3.7,21.6
0.12,7.25,1.75,4.75,9.5,8.75,5.25,2.5,3.25,1.0,1.0,1.75,0.5,1.0,-0.17,0.14,0.95,873.36,9.5,39.9,1.0,0.25,0.75,0.5,1.5,0.75,0.25,0.75,0.0,0.75,0.5,0.0,0.0,0.27,-0.05,0.95,114.12,-5.3,27.3
0.14,7.25,1.5,4.25,9.25,8.75,5.0,2.25,3.5,1.0,1.0,1.75,0.5,1.25,-0.11,0.08,0.95,833.35,9.0,38.1,0.75,0.25,0.75,0.25,1.5,0.75,0.25,0.25,0.0,0.5,0.0,0.0,0.0,0.2,-0.17,0.95,105.12,-5.9,43.1
0.16,7.25,1.5,3.5,9.25,8.5,4.25,2.0,3.25,1.25,1.0,1.75,0.5,1.0,-0.11,0.08,0.95,791.05,9.3,38.5,1.0,0.25,0.75,0.5,1.5,0.75,0.25,0.25,0.0,0.5,1.0,0.25,0.5,0.14,-0.3,1.02,104.99,-6.6,14.6
0.18,6.5,1.5,3.5,8.0,8.25,4.5,2.0,4.0,1.75,0.75,2.0,0.75,1.0,-0.11,0.08,0.95,747.35,8.3,34.0,1.0,0.25,0.75,0.5,1.5,0.75,0.25,0.75,0.0,0.75,0.75,0.0,0.25,0.27,-0.42,1.08,106.95,-4.8,19.3
0.2,6.5,1.5,3.5,8.0,8.0,4.5,2.0,4.25,2.0,1.0,2.75,1.25,1.25,-0.11,0.08,0.95,727.36,8.0,28.4,1.0,0.25,0.75,0.5,1.5,0.75,0.25,0.75,0.0,0.5,0.75,0.0,0.25,0.14,-0.3,1.02,111.01,-5.5,22.6
0.22,5.75,1.25,3.0,6.75,8.0,4.75,1.75,5.0,2.25,1.25,2.75,1.25,1.25,-0.11,0.08,0.95,686.49,6.2,23.7,0.5,0.25,0.75,0.5,1.5,0.75,0.25,0.5,0.0,0.5,1.0,0.0,0.75,0.14,-0.23,0.89,112.72,-3.2,7.3
0.24,5.25,1.0,2.25,7.0,7.75,4.75,1.75,5.0,2.25,2.0,3.25,1.25,1.25,-0.11,0.08,0.95,651.57,5.2,19.1,1.0,0.25,0.75,0.5,1.5,0.75,0.25,0.5,0.0,0.75,0.5,0.0,0.0,0.14,-0.23,0.89,112.11,-6.1,29.7
0.26,4.25,1.5,2.0,6.75,7.75,5.25,1.25,5.25,2.5,2.5,3.5,1.5,1.25,-0.11,0.08,0.95,644.14,3.7,15.2,0.75,0.25,0.75,0.5,1.5,0.75,0.25,0.5,0.0,0.5,0.25,0.0,0.25,0.2,-0.23,1.08,107.0,-4.9,29.7
0.28,4.0,0.75,1.75,5.75,7.5,5.0,1.25,5.75,2.25,2.5,3.5,2.25,1.25,-0.17,0.08,0.95,629.37,2.8,9.2,1.0,0.25,0.75,0.5,1.5,0.75,0.25,0.75,0.0,1.0,1.0,0.25,0.0,0.2,-0.23,0.83,111.03,-5.0,13.6
0.3,3.25,0.75,2.0,5.0,7.0,5.25,1.0,6.0,2.25,2.75,3.75,2.5,1.25,-0.17,0.08,0.95,613.07,2.0,4.7,1.0,0.25,0.75,0.5,1.5,0.5,0.25,0.25,0.0,0.5,0.0,0.0,0.0,0.2,0.08,0.77,105.71,-8.9,46.5
0.32,2.75,0.75,1.75,4.75,7.0,5.25,1.0,6.25,2.25,2.75,4.25,2.25,1.25,-0.17,0.08,0.95,596.9,1.2,2.5,1.0,0.25,0.5,0.5,1.5,0.5,0.25,0.5,0.0,0.75,1.0,0.0,0.5,0.14,0.08,0.89,108.69,-4.8,11.6
0.34,2.75,0.5,1.75,4.75,7.0,5.0,1.0,6.25,2.25,2.75,4.25,2.5,1.25,-0.17,0.08,0.95,585.14,1.4,1.1,1.0,0.25,0.75,0.5,1.5,0.5,0.25,0.75,0.0,0.5,0.75,0.25,0.0,0.02,0.14,0.77,108.05,-7.3,22.3
0.36,2.75,0.5,1.75,4.75,7.0,5.25,1.0,6.25,2.25,3.25,4.25,2.75,1.5,-0.17,0.08,0.95,584.86,1.0,-0.8,1.25,0.25,0.75,0.25,1.5,0.5,0.25,0.75,0.0,0.5,1.0,0.0,0.25,-0.11,0.33,0.33,112.03,-7.1,20.1
0.38,2.75,0.5,1.75,3.25,7.0,5.25,1.0,6.5,2.25,4.0,4.5,2.5,1.75,-0.17,0.08,0.95,586.09,0.0,-4.9,1.0,0.25,0.25,0.0,1.25,0.75,0.25,0.5,0.0,0.5,0.0,0.0,0.0,0.02,-1.36,2.27,100.74,-2.6,38.1
0.4,2.5,0.5,1.75,2.75,7.0,5.0,1.0,6.5,2.25,4.25,4.75,2.75,2.25,-0.17,0.08,0.95,589.68,-0.4,-9.1,0.5,0.5,0.0,0.25,2.25,1.0,0.25,0.5,0.0,0.5,0.0,0.0,0.0,0.64,0.08,1.2,96.11,2.5,38.8
0.42,2.75,0.5,1.75,3.25,6.75,5.25,0.75,6.5,2.25,4.25,5.0,3.25,2.5,-0.17,0.08,0.95,598.87,-0.1,-10.1,1.0,0.75,0.25,0.5,4.75,3.0,0.25,0.5,0.0,0.75,1.0,0.0,0.0,0.02,0.2,0.95,130.1,2.0,34.8
0.44,2.75,0.5,1.75,2.75,6.5,5.25,1.0,6.75,2.25,4.25,5.0,3.25,2.5,-0.17,0.08,0.95,604.7,-0.3,-11.3,1.25,1.0,0.25,1.75,5.25,5.25,0.25,0.75,0.0,0.0,0.0,0.0,0.25,0.08,0.14,1.08,181.51,3.0,47.3
0.46,2.75,0.5,1.75,3.0,6.5,5.0,0.75,6.75,2.25,4.25,5.0,3.25,2.5,-0.17,0.08,0.95,611.85,-0.2,-11.3,1.0,0.25,0.5,2.0,7.0,5.5,0.0,0.75,0.25,0.0,0.0,0.0,0.25,0.2,0.08,1.2,233.4,3.6,44.3
0.48,2.75,0.5,1.75,3.0,6.25,5.25,0.75,6.75,2.25,4.25,5.0,3.5,2.5,-0.17,0.08,0.95,615.97,-0.2,-12.0,2.0,1.0,0.75,3.25,7.25,6.5,0.5,1.0,0.5,1.0,1.0,0.0,0.25,0.14,0.14,1.02,294.25,0.5,37.5
0.5,2.75,0.5,1.75,2.75,6.25,5.25,0.75,6.75,1.75,4.25,5.0,3.5,2.5,-0.17,0.08,0.95,614.92,-0.4,-12.1,1.0,0.25,1.0,3.25,7.25,6.0,0.5,2.25,0.0,0.0,0.0,0.0,0.75,0.14,0.14,0.95,333.91,2.7,37.2
0.52,2.75,0.5,1.75,3.0,6.25,5.25,0.75,6.75,2.25,4.25,5.0,3.5,2.5,-0.17,0.08,0.95,618.73,-0.2,-12.0,2.0,1.0,1.0,3.25,7.25,6.75,0.5,2.25,0.5,1.25,0.25,0.75,1.0,0.14,0.08,0.95,382.66,1.6,28.3
0.54,2.75,0.5,1.75,2.75,6.0,5.5,0.5,6.75,2.25,4.25,5.25,3.5,2.5,-0.17,0.14,0.95,619.24,-0.4,-13.0,3.75,1.0,1.0,3.25,7.25,6.75,0.75,3.25,1.0,2.25,1.25,0.5,1.0,0.14,0.08,0.95,442.44,0.0,23.6
0.56,2.75,0.5,1.75,2.75,5.75,5.25,0.5,6.75,2.0,4.5,5.25,3.5,3.0,-0.17,0.14,0.95,619.46,-0.6,-15.1,4.0,1.0,2.0,3.25,7.25,6.75,1.25,3.75,1.25,2.75,2.5,0.75,1.25,0.08,0.08,0.95,521.81,-1.3,17.6
0.58,2.75,0.5,1.75,2.75,5.75,5.25,0.5,7.0,2.0,5.25,5.25,3.5,3.0,-0.17,0.08,0.95,623.02,-0.9,-16.2,5.0,1.0,3.0,3.25,7.5,6.5,1.5,4.0,1.25,3.75,3.25,1.75,2.0,0.14,0.08,0.95,614.48,-2.6,11.3
0.6,2.75,0.5,1.5,2.75,5.75,5.25,0.5,7.0,1.75,5.25,5.25,3.75,3.75,-0.17,0.14,0.95,628.45,-1.4,-18.6,5.5,1.0,3.75,3.25,7.0,6.5,1.75,4.25,1.75,4.5,3.75,2.25,2.0,0.08,0.08,0.95,707.28,-3.6,8.2
0.62,2.75,0.5,1.75,3.25,5.5,5.25,0.5,7.0,2.0,5.5,5.25,4.25,3.75,-0.17,0.14,0.95,643.19,-0.9,-19.1,5.75,1.25,4.0,3.25,7.25,6.25,1.75,3.75,1.75,5.25,4.5,2.25,2.75,0.08,0.08,0.95,786.42,-3.8,5.6
0.64,2.75,0.5,1.75,2.0,5.5,5.0,0.5,7.0,1.75,5.5,5.25,4.25,3.75,-0.17,0.14,0.95,642.31,-1.3,-21.5,6.25,1.0,4.0,3.25,6.25,6.25,2.25,4.5,1.75,5.25,5.0,3.0,3.0,0.08,0.08,0.95,834.51,-4.0,1.3
0.66,2.5,0.5,1.75,1.25,5.5,5.0,0.5,7.0,1.75,5.25,5.5,4.25,3.75,-0.17,0.14,0.95,632.64,-1.7,-23.5,6.5,1.0,4.75,3.25,6.5,6.0,2.5,4.25,1.75,5.25,5.25,3.25,3.0,0.08,0.08,0.95,866.58,-5.0,2.1
0.68,2.25,0.5,1.5,1.25,5.25,4.75,0.5,7.0,1.5,5.5,5.5,4.25,3.75,-0.17,0.14,0.95,613.44,-2.2,-25.7,6.75,1.0,5.25,3.25,5.75,5.75,2.5,3.75,1.75,5.25,5.25,3.5,3.0,0.08,0.08,0.95,877.9,-6.0,2.0
0.7,2.25,0.5,1.5,1.5,4.75,4.75,0.5,7.0,1.25,5.75,5.5,4.25,4.0,-0.17,0.14,0.95,596.91,-2.3,-26.9,7.0,1.0,5.25,3.25,5.75,5.5,2.5,3.75,1.75,5.25,5.0,3.5,3.0,0.08,0.08,0.95,875.8,-6.2,2.6
0.72,1.75,0.5,1.25,1.0,4.0,4.25,0.5,7.0,1.5,5.75,5.5,4.5,5.0,-0.17,0.14,0.95,583.84,-3.0,-34.8,7.0,1.0,5.25,3.25,5.5,5.5,2.5,4.0,1.75,5.25,5.25,3.5,3.25,0.08,0.08,0.95,864.29,-6.1,1.2
0.74,1.25,0.5,1.5,1.0,3.25,4.25,0.5,7.0,1.5,5.5,5.5,4.25,5.0,-0.17,0.14,0.95,569.84,-3.2,-36.8,7.0,1.0,5.25,3.25,5.5,5.25,2.5,3.75,1.75,6.0,5.25,3.75,3.75,0.08,0.08,0.95,860.67,-5.8,-1.3
0.76,1.0,0.5,1.0,0.75,3.25,3.5,0.5,7.0,0.75,5.5,5.0,4.25,5.0,-0.17,0.14,0.95,543.63,-4.3,-40.4,7.0,1.0,5.25,3.25,5.25,5.25,2.5,3.75,1.75,6.0,5.25,4.5,4.5,0.08,0.08,0.95,853.64,-5.6,-4.6
0.78,0.75,0.25,1.0,0.75,2.5,2.5,0.0,6.75,0.5,5.0,3.75,3.25,5.0,-0.17,0.08,1.02,489.87,-5.3,-43.8,6.75,1.0,5.25,3.0,5.25,5.25,2.5,4.0,2.0,6.0,6.5,5.0,4.75,0.08,0.08,0.95,858.88,-5.4,-8.6
0.8,0.25,0.5,0.0,0.75,2.0,2.25,0.0,6.5,0.5,4.5,3.5,3.25,5.0,-0.17,0.08,1.08,430.31,-7.0,-50.3,6.5,0.75,5.0,3.0,5.25,4.5,2.25,4.0,2.25,6.75,6.75,5.25,5.25,0.08,0.08,0.95,862.6,-5.0,-13.1
0.82,0.25,0.25,0.5,0.75,2.0,1.75,0.0,6.25,0.5,4.25,3.0,2.75,5.0,-0.17,0.08,1.14,378.11,-6.5,-49.4,6.5,0.75,5.0,2.75,5.25,4.5,2.5,4.25,2.5,6.75,6.75,5.75,5.75,0.08,0.08,0.95,871.08,-4.8,-15.2
0.84,1.0,0.25,0.25,0.75,2.0,1.5,0.0,5.75,0.5,3.5,2.5,2.0,4.0,-0.36,0.08,1.2,330.39,-5.7,-41.6,6.25,0.75,5.0,2.5,5.25,4.5,2.0,4.25,2.25,7.25,7.25,5.75,5.75,0.08,0.08,0.95,875.72,-4.4,-17.1
0.86,0.0,0.5,0.25,0.75,2.0,1.5,0.0,5.25,0.5,2.5,2.5,2.25,3.75,-0.36,0.08,1.2,291.42,-6.2,-44.4,6.25,0.75,4.75,2.0,4.5,4.5,2.25,4.5,2.5,7.25,7.5,6.0,6.25,0.08,0.08,0.95,876.28,-4.1,-20.8
0.88,0.0,0.5,0.5,0.75,0.75,1.5,0.0,5.0,0.5,2.5,1.75,1.25,3.75,-0.3,0.02,1.14,258.57,-7.2,-45.9,5.75,0.5,4.5,2.0,4.25,4.5,2.0,4.25,2.25,7.25,7.5,6.25,6.75,0.08,0.08,0.95,863.75,-3.6,-24.2
0.9,0.0,0.25,0.75,0.75,0.75,1.5,0.0,4.75,0.5,2.0,1.5,1.25,2.5,-0.3,0.02,1.08,223.84,-6.1,-40.3,5.75,0.5,4.25,2.0,3.5,4.5,1.75,4.25,2.25,7.5,7.75,6.25,6.75,0.08,0.08,0.95,845.48,-3.4,-26.3
0.92,0.25,0.25,0.25,0.75,1.75,1.0,0.0,4.0,0.5,1.25,1.5,1.25,1.75,-0.3,-0.05,1.08,187.73,-4.8,-31.3,5.75,0.5,4.0,2.0,3.0,4.0,1.75,4.0,2.0,7.75,7.75,6.5,6.75,0.08,0.08,0.95,821.81,-3.5,-28.6
0.94,0.0,0.5,0.75,0.0,0.0,2.25,1.0,0.0,0.25,1.25,0.0,0.0,0.0,-0.17,-0.05,1.02,122.29,-2.5,14.7,5.5,0.75,4.0,2.0,2.5,4.0,1.75,4.25,2.0,7.75,8.0,6.5,7.5,0.08,0.08,0.95,809.59,-3.2,-30.8
0.96,1.0,0.25,0.0,0.75,0.0,1.0,0.0,0.0,0.5,1.0,0.0,0.75,0.0,0.14,0.58,0.89,66.2,4.8,3.5,5.5,0.5,4.0,2.0,2.5,3.75,1.75,3.75,2.0,8.0,8.0,7.0,7.75,0.08,0.08,0.95,804.04,-3.3,-32.8
0.98,0.75,0.25,0.5,0.75,1.75,0.75,0.0,2.75,0.5,1.0,1.0,0.5,1.25,0.2,1.27,0.58,59.59,-1.7,-13.9,5.25,0.5,4.0,2.0,2.25,3.75,1.75,3.75,1.75,8.0,8.0,7.0,7.75,0.08,0.08,0.95,799.76,-3.2,-33.8
1.0,0.0,0.0,0.0,0.0,0.0,0.0,0.0,0.0,0.0,1.0,0.0,0.5,0.0,0.33,1.64,0.77,23.51,-7.5,-86.9,5.0,0.75,3.75,1.25,2.5,3.75,1.75,3.75,1.75,8.25,8.25,7.0,7.75,0.08,0.08,0.95,796.11,-2.7,-35.5
1.02,1.0,0.25,0.0,0.5,0.0,0.75,0.0,2.75,0.25,1.0,1.0,0.5,1.25,0.27,1.39,1.2,42.19,-3.5,-31.5,4.5,0.5,3.75,1.25,2.25,3.75,1.5,4.0,1.75,8.25,8.5,7.5,8.0,0.08,0.08,0.95,797.16,-2.2,-39.1
1.04,0.0,0.0,1.0,0.0,0.75,0.0,2.25,4.5,1.75,0.0,2.25,0.0,0.0,-0.3,1.08,1.14,65.59,3.5,-23.4,3.75,0.75,3.75,1.0,2.25,3.25,1.25,4.0,1.75,8.25,8.75,7.75,8.25,0.08,0.08,0.95,799.52,-1.9,-42.3
1.06,0.0,0.0,0.0,0.0,0.0,0.0,3.25,0.0,0.0,0.0,0.0,0.0,0.0,-0.42,0.89,0.95,51.54,32.4,27.4,3.75,0.5,3.5,0.5,2.25,3.5,1.25,4.0,1.75,8.25,8.5,7.75,8.25,0.08,0.08,0.95,796.92,-1.4,-43.9
1.08,1.25,0.5,0.0,0.75,0.0,0.25,0.0,4.75,0.0,0.25,0.25,0.0,0.0,-0.42,0.77,0.95,62.38,-3.2,-0.3,3.5,0.25,2.75,0.5,2.25,3.5,1.0,4.25,1.75,8.25,8.5,7.75,8.25,0.08,0.08,0.95,791.28,-0.5,-47.0
1.1,1.0,0.0,0.0,0.0,0.0,0.25,0.0,2.25,0.0,0.0,0.75,0.25,0.0,-0.42,0.45,1.14,53.88,-0.1,-15.9,3.25,0.25,2.25,0.5,1.75,3.5,0.75,4.0,1.75,8.25,8.25,7.75,8.25,0.08,0.08,0.95,775.26,0.0,-50.0
1.12,0.5,0.0,0.0,0.0,0.0,0.25,3.25,4.75,0.0,0.0,1.0,0.25,0.0,-0.36,0.39,1.08,75.19,-0.6,-22.8,2.5,0.75,2.25,0.5,1.75,3.25,0.75,4.25,1.75,8.25,8.75,7.75,8.25,0.08,0.08,0.95,764.98,0.2,-51.1
1.14,0.0,0.0,0.25,1.0,0.0,0.5,2.75,4.75,0.5,1.0,1.75,0.5,0.0,-0.36,0.33,1.02,103.48,-0.6,-28.8,2.0,0.5,1.75,0.0,2.25,3.25,1.0,3.75,1.5,8.25,8.5,7.75,8.25,0.08,0.08,0.95,746.16,1.1,-54.4
1.16,0.0,0.0,0.5,0.0,0.0,0.0,1.0,3.75,0.0,0.0,2.25,0.0,0.5,-0.36,0.2,1.14,122.75,-1.5,-43.2,2.0,0.25,1.25,0.5,1.75,3.25,0.75,3.75,1.25,8.0,8.0,7.5,8.25,0.08,0.08,0.95,720.35,1.7,-56.3
1.18,0.0,0.0,0.0,0.0,0.0,0.0,0.0,0.0,0.0,0.0,0.0,0.0,0.0,-0.36,0.14,1.08,92.21,0.0,0.0,1.75,0.25,1.0,0.5,1.75,3.25,0.75,3.0,1.25,7.25,8.0,7.0,8.0,0.08,0.08,0.95,678.67,1.6,-56.8
1.2,1.5,0.5,0.0,0.0,0.0,0.0,0.5,2.5,0.0,0.0,1.75,0.5,0.0,-0.36,0.14,1.02,83.77,6.4,-12.3,1.75,0.5,1.0,0.5,1.5,3.25,0.75,2.25,1.25,6.5,7.0,6.5,7.5,0.08,0.08,0.95,622.64,1.3,-54.8
1.22,1.5,0.0,0.25,1.25,0.5,0.0,0.5,3.25,0.0,0.0,1.25,0.0,0.25,-0.23,0.14,1.02,87.16,4.9,2.4,2.0,0.75,1.0,0.5,1.75,1.75,0.75,2.25,1.0,4.75,5.5,5.5,6.25,0.02,0.08,0.95,535.98,-0.2,-49.8
1.24,0.0,0.0,0.0,0.0,0.0,0.0,0.0,0.0,0.0,0.0,0.0,0.0,0.0,-0.11,0.14,1.08,65.41,0.0,0.0,0.5,0.25,1.0,0.5,1.5,2.0,0.5,1.0,0.75,2.25,3.25,3.5,4.5,-0.05,0.14,1.02,399.67,0.6,-48.5
1.26,0.0,0.0,0.0,0.0,0.0,0.0,0.0,2.25,0.0,0.0,0.75,0.0,0.5,-0.05,0.08,1.08,53.37,-10.6,-56.9,1.0,0.5,1.0,0.25,1.5,0.5,0.25,0.75,0.5,1.5,2.5,2.25,2.5,0.08,0.58,1.52,283.25,-3.3,-35.8
1.28,0.0,0.0,0.0,0.0,0.0,0.0,0.0,0.0,0.0,0.0,0.0,1.0,0.0,-0.17,0.08,1.08,32.56,8.8,-109.9,1.0,0.25,1.0,0.0,0.25,0.75,0.75,0.75,0.75,1.25,1.0,1.25,1.75,0.58,1.7,1.02,181.11,-4.2,-31.9
1.3,0.0,0.0,0.25,0.0,0.0,0.0,0.0,2.25,0.5,0.75,1.0,0.5,0.25,-0.3,0.02,1.08,47.13,-4.0,-55.4,1.0,0.25,1.0,0.5,1.5,1.25,0.25,0.75,0.5,0.75,2.0,0.75,1.25,0.39,1.2,0.7,109.27,-4.0,-10.8
1.32,1.0,0.5,0.25,1.0,0.0,0.0,0.0,2.25,0.0,0.0,1.0,0.0,0.25,-0.3,0.08,0.89,54.55,5.8,4.8,1.0,0.25,1.0,0.5,1.5,1.75,0.25,0.75,0.25,1.0,1.75,0.75,1.0,0.33,1.14,0.89,69.96,-2.5,-6.3
1.34,1.0,0.5,0.75,0.75,0.0,0.0,2.25,2.5,0.5,0.75,1.0,0.0,0.25,-0.36,0.08,0.89,93.34,8.4,-1.0,1.0,0.25,1.0,0.5,1.5,1.75,0.5,0.75,0.75,1.75,1.25,0.75,0.5,0.02,0.95,0.52,64.53,-2.4,-4.4
1.36,1.0,0.5,0.0,0.0,0.0,0.0,0.75,0.0,0.25,0.5,0.0,0.25,0.0,-4.86,-7.92,1.14,82.96,17.1,27.7,1.0,0.25,1.0,0.5,1.5,2.0,0.25,0.75,0.5,1.0,1.0,0.75,0.75,0.08,0.89,0.77,65.31,-2.0,0.6
1.38,1.75,0.0,0.25,0.0,0.0,1.25,0.0,0.0,2.0,0.75,0.0,0.5,0.0,-1.55,-2.55,0.52,90.59,9.0,4.5,0.0,0.0,1.0,0.5,1.5,1.5,0.5,0.75,0.5,0.75,1.25,0.75,0.25,0.02,0.64,0.83,62.24,-1.7,-7.1
1.4,1.75,0.5,0.25,1.25,0.0,1.5,0.0,2.25,2.0,1.25,1.0,0.5,1.25,0.08,-0.23,0.39,126.78,2.0,-13.1,1.0,0.25,1.0,0.5,1.5,2.0,0.5,0.75,0.5,1.0,1.25,0.75,0.25,0.02,0.52,0.83,73.28,-3.3,4.4
1.42,1.0,0.25,0.0,0.0,0.0,0.0,0.0,2.25,0.75,1.25,0.0,0.0,1.0,-1.05,0.45,1.7,131.46,-4.1,-31.9,1.0,0.25,1.5,0.5,1.5,1.75,0.25,0.75,0.5,1.0,1.25,0.75,0.25,-0.17,0.45,0.77,90.49,-5.1,6.1
1.44,0.0,0.0,0.0,0.0,0.0,2.25,2.5,4.0,2.0,1.5,0.5,0.25,0.0,0.27,1.52,-0.05,149.43,-5.9,-26.3,1.0,0.25,1.5,0.5,1.75,1.5,0.25,0.75,0.5,1.0,1.0,0.75,0.25,-0.42,0.52,0.58,114.12,-5.4,8.5
1.46,0.0,0.25,0.0,1.0,0.0,0.25,0.0,2.25,0.0,0.75,0.0,0.25,0.0,0.14,0.83,1.33,131.67,-6.5,-16.0,1.0,0.25,1.0,0.5,1.75,1.25,0.5,0.75,0.5,0.75,1.0,0.75,0.25,-0.36,0.33,0.83,131.95,-5.2,7.6
1.48,0.0,0.25,0.75,1.0,0.0,0.0,0.0,2.25,0.0,0.75,0.0,0.25,0.0,1.14,-0.23,1.52,122.44,0.6,-7.1,1.0,0.25,2.0,0.5,1.75,1.25,0.25,0.75,0.5,1.0,1.25,0.75,0.25,-0.23,1.39,1.14,153.49,-7.6,8.6
1.5,0.75,0.0,1.5,0.0,0.25,0.0,0.5,2.25,0.0,0.0,0.0,0.0,0.0,-0.23,0.14,1.08,95.47,10.4,19.4,0.5,0.0,1.0,0.0,1.5,0.5,0.25,0.75,0.5,0.5,0.75,0.0,0.25,-1.61,-7.98,1.2,139.82,-5.0,7.9
1.52,1.0,0.25,0.0,1.0,0.75,0.0,0.5,2.25,0.5,1.0,1.5,0.25,0.5,0.14,-0.05,1.14,107.81,2.3,-15.5,1.0,0.25,1.0,0.5,1.5,1.25,0.25,0.75,0.5,1.0,1.0,0.75,0.75,0.58,-7.11,-2.92,142.35,-3.7,-1.6
1.54,1.0,0.25,0.0,1.75,0.0,0.75,1.25,1.25,1.25,2.0,0.75,1.25,1.0,-0.17,0.39,1.08,126.93,3.2,-24.3,1.0,0.25,1.0,0.5,1.5,1.0,0.25,0.25,0.5,1.0,1.5,0.75,0.5,-0.17,-1.61,1.2,137.59,-6.2,-1.3
1.56,0.25,0.5,0.75,2.75,1.75,0.75,1.25,2.5,2.0,2.25,2.5,1.25,1.25,-0.17,0.02,1.02,185.32,2.9,-18.9,1.0,0.25,1.0,0.5,1.5,1.0,0.5,0.75,0.5,0.75,1.5,0.75,0.5,0.7,0.02,2.14,144.38,-5.9,-1.0
1.58,0.5,0.5,2.0,2.75,2.25,0.75,1.75,3.0,1.75,2.0,3.25,1.5,1.25,-0.05,0.08,0.95,243.27,5.3,-13.2,1.0,0.25,1.0,0.5,1.5,1.25,0.25,1.0,0.5,1.0,1.0,0.75,0.25,0.14,2.39,0.02,146.83,-4.1,2.9
1.6,1.0,0.5,2.0,3.0,2.5,1.25,1.5,3.25,1.75,2.5,3.25,1.5,1.5,-0.11,0.08,0.95,294.99,4.4,-11.4,0.75,0.25,1.0,0.5,1.5,1.0,0.25,0.75,0.5,1.0,1.0,0.75,1.0,0.45,-1.67,1.52,151.31,-3.2,-7.3
1.62,1.0,0.5,2.0,2.75,1.75,1.5,1.75,3.0,1.75,2.5,3.5,1.5,2.0,-0.17,0.14,0.95,328.05,4.3,-16.2,1.0,0.25,1.0,0.5,1.5,0.75,0.25,0.5,0.5,1.0,0.5,1.5,1.25,0.33,0.08,0.95,152.21,-4.6,-11.8
1.64,1.0,0.5,2.0,2.75,2.25,1.5,1.5,4.0,2.25,2.75,3.5,2.25,2.5,-0.11,0.08,0.95,363.0,3.1,-20.8,1.0,0.25,1.0,0.5,1.5,1.0,0.25,0.75,0.5,1.0,1.0,2.25,1.75,-0.3,-0.05,1.27,160.08,-3.4,-23.6
1.66,1.0,0.5,1.75,2.75,3.0,1.5,1.25,4.0,2.25,4.25,3.75,2.5,3.0,-0.11,0.08,0.95,400.36,1.4,-24.8,1.0,0.25,1.0,0.5,1.5,1.25,0.25,0.5,0.5,1.0,1.25,2.25,2.25,-0.17,-0.17,0.95,172.94,-2.8,-26.5
1.68,1.0,0.25,1.75,2.75,1.75,1.5,1.0,4.75,2.25,4.75,4.75,3.5,4.0,-0.11,0.08,0.95,447.27,0.8,-36.9,1.0,0.25,1.0,0.25,1.5,1.0,0.25,0.75,0.5,1.0,1.5,3.5,3.25,0.39,-0.17,0.89,196.53,-2.2,-41.7
1.7,1.0,0.25,0.5,1.0,1.75,1.5,1.0,5.0,1.75,5.75,5.5,4.75,5.75,-0.11,0.08,0.95,504.86,-2.4,-53.7,1.0,0.25,1.0,0.5,1.5,1.0,0.25,0.5,0.5,1.0,2.75,4.75,3.75,0.14,-0.17,0.89,228.54,-3.2,-48.9
1.72,1.0,0.5,0.75,1.0,1.75,1.5,0.5,5.0,2.0,6.25,5.75,4.75,6.5,-0.11,0.08,0.95,553.86,-2.4,-53.9,1.0,0.25,0.75,0.5,1.5,0.75,0.25,0.75,0.5,1.0,2.0,5.5,4.5,0.08,-0.17,0.89,256.79,-2.0,-55.0
1.74,0.25,0.25,0.25,0.75,1.75,1.5,0.0,5.25,1.75,6.5,6.0,5.25,6.75,-0.17,0.08,0.95,583.73,-4.3,-62.3,1.0,0.25,1.0,0.5,1.5,0.75,0.0,0.5,0.5,1.0,2.25,6.0,4.75,-0.17,-0.23,0.89,280.52,-2.6,-56.5
1.76,0.0,0.25,0.25,0.75,1.25,1.25,0.0,5.25,1.25,6.5,6.0,5.75,7.25,-0.17,0.08,0.95,593.19,-4.7,-67.5,1.0,0.25,0.75,0.5,1.25,0.5,0.25,0.5,0.5,1.0,2.25,6.25,6.0,-0.05,-0.23,1.14,296.2,-1.8,-63.9
1.78,0.0,0.5,0.5,0.75,1.5,0.75,0.0,5.5,1.25,7.25,6.0,5.75,7.25,-0.17,0.08,0.95,598.22,-4.3,-65.8,1.0,0.25,0.75,0.5,1.5,0.5,0.25,0.5,0.5,1.0,2.5,6.25,6.5,0.08,-0.3,0.95,314.67,-1.5,-63.6
1.8,0.0,0.25,0.5,0.75,1.5,1.0,0.0,5.5,0.75,7.25,6.0,5.75,7.75,-0.17,0.08,0.95,595.58,-4.9,-67.2,1.25,0.25,0.5,0.5,1.5,0.75,0.25,0.5,0.5,1.0,2.75,7.0,6.0,-0.23,-0.23,1.08,329.66,-1.8,-62.9
1.82,1.0,0.5,0.5,0.75,0.5,0.75,0.0,5.5,0.5,7.25,5.5,5.75,7.75,-0.23,0.08,0.95,588.35,-4.0,-66.4,1.25,0.25,0.75,0.5,1.25,0.5,0.25,0.5,0.5,1.0,2.5,7.0,6.75,0.02,-0.42,0.83,341.48,-1.9,-65.4
1.84,1.0,0.25,0.0,0.75,1.75,1.0,0.0,5.75,0.5,7.25,5.0,5.5,7.75,-0.17,0.08,0.95,580.28,-5.2,-63.4,1.0,0.75,0.75,0.5,1.5,0.5,0.0,0.0,0.25,1.0,2.25,6.75,7.5,0.39,-0.42,0.45,346.97,-1.2,-64.1
1.86,0.75,0.25,0.0,0.75,1.5,1.5,0.0,5.75,0.5,7.25,4.75,5.25,7.75,-0.3,0.08,0.89,567.39,-5.9,-63.7,1.0,0.25,0.75,0.5,1.5,0.5,0.25,0.5,0.25,0.5,2.5,6.25,7.5,0.02,-0.86,0.39,344.26,-1.0,-65.7
1.88,1.0,0.25,0.5,0.75,1.25,1.0,0.0,5.75,0.5,7.25,3.25,5.0,7.75,-0.23,0.02,0.95,540.73,-5.5,-62.2,1.0,0.25,0.5,0.5,1.5,0.75,0.25,0.0,0.25,1.0,2.25,5.75,6.75,-0.98,-1.48,0.83,330.13,-0.6,-64.2
1.9,1.0,0.25,0.0,0.75,1.5,0.75,0.0,5.75,0.5,7.25,3.25,4.75,7.75,-0.3,-0.05,0.89,513.89,-6.2,-63.4,1.0,0.25,0.5,0.0,1.5,0.0,0.25,0.5,0.5,0.75,2.0,5.0,6.0,-0.11,-1.36,0.58,304.55,-1.0,-66.4
1.92,0.25,0.25,0.5,0.75,0.75,1.0,0.0,5.75,0.5,7.25,3.5,4.75,8.0,-0.3,0.02,0.89,492.71,-6.5,-67.7,1.0,0.25,1.25,0.5,0.5,0.5,0.25,0.25,0.25,0.75,1.25,4.0,5.0,0.39,-1.11,0.58,273.18,-3.1,-56.7
1.94,0.75,0.25,0.5,0.75,1.5,0.75,0.0,6.25,0.25,7.5,3.5,4.5,8.0,-0.3,0.02,0.95,484.73,-6.2,-62.7,1.0,0.25,0.75,0.5,1.25,1.25,0.25,0.25,0.0,1.0,0.75,3.5,4.25,0.33,0.02,0.77,241.8,-0.3,-45.6
1.96,1.0,0.25,0.0,0.75,1.75,0.75,0.0,6.25,0.25,7.5,2.5,4.25,8.0,-0.3,0.02,0.89,475.51,-7.2,-61.7,1.0,0.25,0.75,0.25,1.25,0.75,0.25,0.5,0.0,0.5,0.25,2.25,2.75,0.39,0.27,0.77,197.85,-1.8,-32.2
1.98,1.0,0.25,0.0,0.75,1.5,0.75,0.0,6.5,0.25,7.25,3.25,4.25,7.75,-0.3,-0.05,0.89,473.2,-6.8,-62.4,1.25,0.25,0.75,0.25,1.25,0.75,0.25,0.5,0.0,0.5,1.0,1.5,1.75,0.27,-0.11,0.89,159.06,-4.3,-18.5
2.0,1.0,0.25,0.0,0.75,1.0,1.0,0.0,6.5,0.5,7.75,3.25,4.25,8.0,-0.36,0.02,0.89,474.56,-7.0,-64.0,1.0,0.25,0.75,0.25,1.0,0.75,0.25,0.75,0.25,0.5,1.0,1.0,1.5,0.39,-0.55,1.08,124.87,-3.7,-17.3
2.02,1.0,0.25,0.0,0.75,0.75,0.75,0.0,6.75,0.25,7.75,2.25,5.0,7.75,-0.3,0.02,0.89,472.64,-7.2,-66.1,1.0,0.0,1.0,0.25,0.0,0.75,0.25,0.25,0.25,0.5,1.25,0.75,1.25,0.89,-1.05,0.64,95.61,-7.8,-23.9
2.04,0.75,0.25,0.5,0.75,0.75,1.0,0.0,7.0,0.25,7.25,4.0,5.25,7.75,-0.23,0.02,0.95,485.69,-5.9,-65.1,1.25,0.25,1.0,0.25,0.0,0.75,0.25,0.5,0.25,1.0,0.75,0.75,1.0,0.7,-0.92,1.2,79.16,-7.0,-14.0
2.06,0.0,0.25,0.0,0.75,0.5,1.5,0.0,7.0,0.5,7.0,4.75,5.25,7.25,-0.3,0.02,0.95,495.65,-7.0,-69.2,1.0,0.25,1.0,0.5,1.0,0.75,0.5,0.5,0.25,0.5,0.25,0.75,1.0,0.64,-0.8,1.08,75.23,-6.6,2.7
2.08,0.0,0.25,0.0,0.75,1.25,1.5,0.0,7.0,0.0,6.5,4.75,4.5,6.0,-0.67,-0.23,0.89,488.72,-7.2,-63.7,1.0,0.25,1.0,0.5,0.5,0.75,0.25,0.25,0.5,0.5,0.75,0.75,1.0,0.77,-0.3,1.39,77.28,-8.1,-6.0
2.1,0.25,0.25,0.0,0.75,1.75,2.0,0.0,7.0,0.0,5.5,3.75,4.25,5.0,-1.11,-0.3,0.77,462.36,-7.2,-56.1,1.0,0.25,1.0,0.0,0.25,0.75,0.25,0.5,0.25,0.5,0.75,0.75,0.5,0.83,-0.11,1.2,75.54,-8.5,-5.6
2.12,0.0,0.5,0.0,0.75,0.5,2.25,0.0,7.0,0.0,4.25,2.75,2.5,3.75,-1.86,-0.48,0.77,400.22,-8.9,-53.2,0.75,0.0,1.0,0.25,0.25,0.75,0.25,0.5,0.5,0.5,1.0,0.75,0.5,0.7,0.2,1.14,77.68,-8.0,-14.3
2.14,0.5,0.25,0.0,0.75,0.75,1.75,0.0,6.75,0.0,2.75,1.75,2.25,2.5,-2.98,-1.11,0.83,333.02,-8.0,-45.2,1.0,0.25,1.0,0.0,1.5,0.75,0.25,0.5,0.25,0.5,1.0,0.75,0.75,0.45,0.39,0.89,89.67,-5.9,-0.7
2.16,1.0,0.25,0.0,0.75,1.25,1.0,0.0,6.25,0.0,2.5,1.75,1.25,2.5,-3.05,-1.05,1.58,276.21,-6.8,-37.9,1.0,0.25,1.0,0.5,1.0,1.0,0.25,0.0,0.25,0.5,0.0,0.75,0.5,0.2,0.83,0.83,96.03,-8.2,17.4
2.18,1.0,0.25,0.0,0.75,0.25,0.75,0.0,5.0,0.0,1.25,1.5,0.5,2.25,-2.48,-0.42,3.02,219.92,-6.1,-37.4,1.0,0.25,1.0,0.5,1.5,0.75,0.25,0.25,0.25,0.5,0.25,0.75,1.0,-0.11,0.7,0.02,108.71,-6.2,7.2
2.2,0.5,0.25,0.0,0.75,0.0,0.25,0.0,2.75,0.0,1.0,0.0,0.75,1.25,-0.55,-1.42,1.08,150.76,-6.0,-37.2,1.0,0.25,1.0,0.0,1.25,0.75,0.25,0.5,0.25,0.5,1.0,0.75,0.5,-0.36,0.45,-0.86,116.31,-6.9,0.7
2.22,0.0,0.25,0.0,0.5,0.5,0.25,0.0,3.0,0.0,1.0,1.0,0.25,1.25,0.2,1.39,3.2,96.05,-8.1,-41.8,1.0,0.0,1.0,0.25,0.25,1.0,0.25,0.25,0.25,0.5,0.75,0.75,0.5,-0.55,0.27,-0.67,113.3,-8.5,-4.5
2.24,0.0,0.25,0.0,0.75,0.0,0.25,0.0,0.0,0.0,1.0,1.0,0.0,1.5,0.7,0.39,2.02,42.07,-3.1,-49.9,1.0,0.25,1.0,0.25,1.5,0.75,0.25,0.75,0.25,0.5,1.0,0.75,0.25,-0.42,-0.42,0.52,117.81,-6.8,6.5
2.26,1.0,0.5,0.0,0.75,0.0,0.25,0.0,2.25,0.0,1.0,1.0,0.25,1.25,0.14,0.58,1.95,27.17,-1.3,-25.3,1.0,0.25,1.0,0.5,1.0,0.75,0.25,0.5,0.25,0.5,0.75,0.75,0.75,0.58,-1.42,1.52,121.19,-7.1,1.3
2.28,1.0,0.0,0.0,0.0,0.0,0.5,0.0,2.25,0.0,1.0,0.5,0.25,1.25,0.08,1.08,2.08,18.39,-6.2,-39.0,1.0,0.25,1.0,0.5,1.25,0.75,0.25,0.5,0.25,0.5,1.0,0.75,0.75,1.14,-1.42,1.7,127.16,-6.9,0.9
2.3,1.0,0.0,0.0,0.75,0.0,0.25,0.0,2.25,0.0,0.75,0.0,0.0,1.25,0.27,1.08,1.2,25.24,-4.2,-22.4,1.0,0.25,1.0,0.0,1.25,0.75,0.25,0.5,0.25,0.75,1.0,0.75,0.5,1.08,-1.11,0.52,128.03,-6.2,-1.5
2.32,1.0,0.25,0.25,0.75,0.0,0.0,0.0,2.25,0.25,1.0,0.0,0.0,1.5,-1.17,0.27,0.27,36.95,-1.6,-22.5,1.0,0.25,1.0,0.25,0.5,0.75,0.25,0.5,0.0,0.0,0.75,0.75,0.5,0.77,-1.11,0.27,121.18,-10.1,6.3
2.34,1.0,0.0,0.0,0.75,0.0,0.0,0.0,2.25,0.0,1.0,0.0,0.0,1.25,-1.42,-0.11,-0.42,47.45,-3.9,-26.7,1.0,0.0,1.0,0.0,1.25,0.75,0.25,0.5,0.25,0.5,0.75,0.75,0.25,0.7,-0.98,0.39,115.65,-7.3,3.7
2.36,1.0,0.0,0.0,0.0,0.0,0.0,0.0,2.5,0.25,1.0,0.0,0.25,1.25,-0.92,-0.3,-0.36,60.41,-6.0,-41.7,0.0,0.0,0.0,0.0,0.0,0.75,0.25,0.5,0.25,0.75,0.75,0.75,0.5,0.64,-0.73,0.45,96.18,5.1,-58.3
2.38,0.5,0.25,0.0,0.75,0.0,0.0,0.0,2.25,0.25,1.0,0.0,0.0,1.25,-0.86,-0.36,-0.48,69.07,-5.5,-31.3,0.0,0.0,1.0,0.0,1.25,0.0,0.25,0.25,0.0,0.0,0.0,0.0,0.0,0.83,-0.48,0.39,73.86,-12.0,47.0
2.4,0.0,0.0,0.0,0.0,0.0,0.0,0.0,2.25,0.25,0.5,0.0,0.0,1.25,-0.67,-0.23,-0.36,69.75,-14.0,-64.4,1.0,0.25,1.0,0.0,1.0,0.75,0.5,0.5,0.25,0.75,0.75,0.75,0.0,0.7,-0.42,0.08,77.51,-8.2,6.8
2.42,1.0,0.25,0.25,0.75,0.0,0.25,0.0,2.25,0.5,1.0,0.75,0.0,1.25,-1.05,0.02,0.64,87.75,-0.4,-23.3,1.0,0.25,1.0,0.25,1.25,0.5,0.0,0.5,0.25,0.5,0.75,0.75,0.0,0.02,-0.23,0.02,85.38,-9.2,11.9
2.44,0.0,0.0,0.0,0.0,0.0,0.0,0.0,2.25,0.0,0.0,0.0,0.0,0.25,-1.42,-0.17,1.39,74.82,-16.4,-46.1,1.25,0.25,1.0,0.5,1.25,0.5,0.25,1.0,0.25,0.5,1.0,0.5,0.0,-0.23,-0.23,0.45,103.72,-9.0,14.0
2.46,1.0,0.25,0.0,0.75,0.0,0.25,0.0,2.25,0.25,0.75,0.75,0.0,1.25,-1.55,-0.48,0.95,85.26,-1.6,-23.9,1.0,0.0,1.0,0.5,0.5,0.75,0.25,0.5,0.25,0.75,0.75,0.5,0.5,-0.23,-0.67,0.45,109.73,-7.7,-1.2
2.48,1.0,0.25,0.0,0.75,0.0,0.25,0.0,2.0,0.25,1.0,0.0,0.0,1.25,-1.61,-0.42,-0.55,87.47,-2.9,-19.7,1.0,0.25,1.0,0.25,1.25,0.75,0.25,0.5,0.25,0.5,1.0,0.75,0.5,0.27,-0.67,0.33,117.65,-7.2,2.6
2.5,1.0,0.25,0.25,0.75,0.0,0.0,0.0,2.25,0.25,1.0,0.75,0.0,1.25,-1.36,-0.48,-0.61,99.81,-0.1,-24.5,1.0,0.25,1.0,0.5,1.25,1.0,0.25,0.0,0.25,0.5,1.0,0.5,0.5,0.64,-0.73,0.14,119.86,-8.1,11.4
2.52,1.0,0.25,0.0,0.75,0.0,0.0,0.0,2.0,0.5,1.0,0.0,0.0,1.25,-0.98,-0.55,-0.23,102.18,-1.6,-22.3,1.0,0.25,1.0,0.5,1.75,0.5,0.25,0.5,0.25,0.0,0.5,0.75,0.5,0.77,-0.73,0.08,123.66,-8.9,17.0
2.54,1.0,0.25,0.5,0.75,0.0,0.0,0.0,2.25,0.5,0.75,0.0,0.0,1.25,-0.73,-0.23,0.08,108.62,1.0,-15.2,1.0,0.25,1.0,0.25,1.25,0.5,0.25,0.5,0.25,0.25,0.25,0.75,0.0,0.83,-0.73,0.02,120.15,-10.4,22.0
2.56,0.0,0.25,0.0,0.25,0.0,0.0,0.0,2.25,0.25,1.0,0.0,0.0,0.25,-0.48,-0.42,0.08,94.24,-10.8,-37.4,1.0,0.25,1.0,0.5,1.25,1.0,0.25,0.5,0.25,0.25,1.0,0.25,0.5,0.89,-0.67,0.02,123.67,-7.2,14.8
2.58,1.0,0.25,0.0,0.0,0.0,0.25,0.0,2.0,0.25,1.0,0.0,0.0,1.25,-0.11,-0.36,0.27,90.4,-5.6,-30.0,0.0,0.0,1.0,0.0,0.0,0.5,0.25,0.5,0.0,0.0,0.0,0.0,0.0,1.08,-0.61,-0.05,94.83,-11.3,29.6
2.6,1.0,0.25,0.25,0.0,0.0,0.0,0.0,2.25,0.25,1.0,0.0,0.0,1.25,-0.05,-0.17,0.2,87.43,-3.5,-29.0,1.0,0.25,1.0,0.5,1.0,0.75,0.25,0.0,0.0,0.0,1.0,0.5,0.5,0.95,-0.55,-0.11,94.44,-11.3,17.1
2.62,1.0,0.25,0.25,0.0,0.0,0.0,0.0,2.0,0.25,1.0,0.0,0.0,1.25,-0.42,-0.05,0.08,88.63,-3.0,-28.6,1.0,0.25,1.0,0.5,0.0,0.5,0.0,0.0,0.0,0.0,0.0,0.0,0.0,0.95,-0.42,-0.11,73.06,-22.8,70.2
2.64,1.0,0.25,0.0,0.0,0.0,0.0,0.0,2.25,0.0,1.0,0.0,0.0,1.25,-0.67,-0.11,0.14,88.0,-6.1,-32.6,0.0,0.0,0.0,0.0,0.0,0.0,0.0,0.0,0.0,0.75,0.0,0.5,0.0,1.08,-0.36,-0.05,50.12,5.9,-89.2
2.66,1.0,0.25,0.25,0.0,0.0,0.0,0.0,1.5,0.25,0.75,0.0,0.0,1.25,-0.86,-0.3,0.2,83.73,-1.1,-25.4,1.0,0.0,1.0,0.5,1.5,0.75,0.25,0.0,0.25,0.25,0.0,0.5,0.0,0.89,-0.23,0.02,54.33,-11.0,36.7
2.68,1.0,0.25,0.25,0.0,0.0,0.0,0.0,2.0,0.25,1.0,0.0,0.0,1.25,-0.8,-0.36,0.14,85.38,-3.0,-28.6,0.0,0.0,1.0,0.0,1.25,0.5,0.0,0.0,0.0,0.0,0.0,0.0,0.0,0.89,-0.17,0.02,49.07,-8.0,53.0
2.7,1.0,0.25,0.25,0.0,0.0,0.0,0.0,1.5,0.0,1.0,0.0,0.0,1.0,-1.05,-0.8,-0.05,76.9,-1.8,-22.9,1.25,0.25,0.0,0.25,0.0,1.0,0.0,0.0,0.25,0.25,0.25,0.5,0.25,0.89,-0.17,0.02,53.59,-7.1,13.9
2.72,1.0,0.25,0.75,0.25,0.0,0.25,0.0,1.5,0.25,1.0,0.0,0.0,1.25,-1.3,-0.73,-0.17,83.23,1.3,-15.0,0.75,0.25,1.0,0.0,0.25,0.75,0.0,0.0,0.25,0.5,0.0,0.25,0.0,0.77,-0.3,0.02,51.94,-11.9,30.6
2.74,1.0,0.25,0.25,0.0,0.0,0.0,0.0,2.25,0.25,0.75,0.5,0.0,1.25,-1.55,-0.67,0.14,87.32,-2.0,-30.7,0.0,0.0,1.0,0.0,1.25,1.0,0.25,0.5,0.0,0.25,1.0,0.5,0.5,0.83,-0.42,0.02,67.67,-1.9,-7.4
2.76,1.0,0.25,0.25,0.0,0.0,0.0,0.0,1.5,0.25,1.0,0.0,0.0,1.25,-1.36,-0.73,0.14,88.6,-1.7,-27.7,1.0,0.25,1.0,0.0,1.25,0.75,0.25,0.5,0.0,0.5,0.25,0.25,0.5,0.83,-0.42,0.08,80.14,-6.1,19.2
2.78,1.0,0.5,0.25,0.0,0.0,0.0,0.0,1.25,0.25,0.75,0.0,0.0,1.25,-1.17,-0.67,0.08,85.61,0.3,-18.6,1.0,0.25,1.0,0.25,1.0,0.5,0.25,0.5,0.0,0.5,0.75,0.5,0.5,0.7,-0.42,0.02,96.85,-8.3,7.6
2.8,1.0,0.25,0.0,0.0,0.0,0.0,0.0,2.25,0.25,0.75,0.0,0.0,1.25,-1.05,-0.55,0.08,85.67,-4.9,-31.0,0.0,0.0,1.0,0.0,1.75,0.25,0.25,0.25,0.0,0.0,0.0,0.0,0.0,0.7,-0.36,-0.05,91.68,-7.3,47.2
2.82,0.75,0.25,0.5,0.0,0.0,0.0,0.0,1.75,0.5,0.75,0.0,0.0,1.0,-0.98,-0.48,0.14,82.33,-0.3,-23.8,0.0,0.0,0.0,0.0,0.0,0.25,0.0,0.0,0.0,0.0,0.0,0.0,0.0,0.64,-0.36,-0.05,65.59,22.9,34.0
2.84,0.75,0.25,0.5,0.0,0.0,0.0,0.0,2.25,0.25,0.75,0.0,0.0,1.25,-0.86,-0.36,0.14,84.21,-2.7,-28.2,0.0,0.0,0.0,0.0,0.0,0.25,0.0,0.0,0.0,0.0,0.25,0.0,0.0,0.58,-0.36,0.02,33.4,5.8,-21.3
2.86,1.0,0.25,0.5,0.0,0.0,0.0,0.0,1.5,0.25,0.75,0.0,0.0,1.25,-0.73,-0.36,0.08,84.47,0.7,-21.3,0.0,0.0,0.0,0.0,0.0,0.25,0.0,0.0,0.0,0.0,0.0,0.0,0.0,0.58,-0.36,0.02,11.54,22.9,34.0
2.88,1.0,0.25,0.5,0.0,0.0,0.0,0.0,2.0,0.25,0.75,0.0,0.0,1.25,-0.67,-0.42,0.08,86.84,-0.7,-22.8,0.0,0.0,0.0,0.0,0.0,0.0,0.0,0.0,0.0,0.0,0.0,0.0,0.0,0.58,-0.42,0.14,0.0,0.0,0.0
2.9,1.0,0.25,0.25,0.0,0.0,0.0,0.0,2.0,0.25,0.75,0.0,0.0,1.25,-0.8,-0.48,0.08,86.22,-2.4,-26.6,0.0,0.0,1.0,0.0,1.25,0.25,0.5,0.5,0.0,0.5,1.0,0.25,1.0,0.52,-0.48,0.14,21.04,-3.1,-18.6
2.92,1.0,0.25,0.25,0.25,0.0,0.0,0.0,1.75,0.25,0.75,0.0,0.0,1.25,-0.92,-0.42,0.2,86.2,-0.9,-22.2,1.0,0.0,1.0,0.0,1.25,1.0,0.25,0.25,0.0,0.0,1.0,0.0,0.25,0.45,-0.55,0.08,52.46,-8.7,26.2
2.94,1.0,0.25,0.25,0.0,0.0,0.0,0.0,1.5,0.25,0.75,0.0,0.0,1.0,-0.86,-0.36,0.27,82.19,-0.4,-21.0,0.0,0.0,0.0,0.0,0.0,0.5,0.25,0.5,0.0,0.0,1.0,0.0,0.25,0.52,-0.61,0.08,56.93,3.6,-43.7
2.96,1.0,0.25,0.25,0.25,0.0,0.0,0.0,2.0,0.25,0.75,0.0,0.0,1.25,-0.92,-0.36,0.2,83.02,-1.6,-22.9,1.0,0.25,1.0,0.25,1.0,0.75,0.25,0.25,0.25,0.25,0.75,0.25,0.0,0.58,-0.67,0.14,73.02,-11.0,26.5
2.98,1.0,0.25,0.5,0.25,0.0,0.0,0.0,1.5,0.25,0.75,0.0,0.0,1.25,-0.98,-0.3,0.02,84.06,1.4,-17.7,1.0,0.25,1.0,0.0,1.0,0.75,0.25,0.25,0.25,0.5,0.75,0.75,0.5,0.64,-0.73,0.2,86.9,-8.0,2.6
3.0,1.0,0.25,0.5,0.0,0.0,0.0,0.0,2.0,0.25,0.75,0.0,0.0,1.25,-0.92,-0.36,-0.05,87.54,-0.7,-22.8,1.0,0.25,1.0,0.25,1.25,0.75,0.25,0.5,0.25,0.5,0.75,0.25,0.0,0.64,-0.73,0.14,103.05,-8.5,21.6
3.02,1.0,0.25,0.5,0.0,0.0,0.0,0.0,1.0,0.25,0.75,0.0,0.0,1.25,-0.92,-0.42,0.08,83.97,2.4,-19.6,1.0,0.0,1.0,0.25,1.25,0.75,0.25,0.75,0.25,0.25,0.5,0.25,0.25,0.64,-0.73,0.14,113.65,-7.4,18.4
3.04,1.0,0.25,0.5,0.5,0.0,0.0,0.0,1.75,0.5,0.75,0.0,0.0,1.25,-0.86,-0.36,0.08,88.29,1.8,-16.3,1.0,0.25,1.0,0.5,1.5,0.75,0.25,0.5,0.0,0.25,0.75,0.25,0.25,0.64,-0.8,0.14,126.83,-8.2,24.9
3.06,1.0,0.25,0.25,0.5,0.0,0.0,0.0,1.5,0.25,0.75,0.0,0.0,1.25,-0.8,-0.36,0.02,87.73,0.5,-17.8,1.0,0.25,1.0,0.25,0.5,0.75,0.25,0.25,0.0,0.5,0.75,0.25,0.75,0.64,-0.73,0.14,125.31,-8.3,6.0
3.08,1.0,0.25,0.5,0.25,0.0,0.0,0.0,1.5,0.25,0.75,0.25,0.0,1.0,-0.73,-0.36,0.08,88.68,2.5,-16.0,1.0,0.25,1.0,0.5,1.25,0.75,0.25,0.25,0.0,0.25,0.5,0.25,0.25,0.58,-0.73,0.14,121.64,-9.6,29.8
3.1,0.75,0.25,0.5,0.0,0.0,0.0,0.0,1.75,0.0,0.75,0.0,0.0,1.25,-0.67,-0.3,0.08,85.2,-2.1,-26.7,1.0,0.0,1.0,0.0,1.5,0.5,0.25,0.25,0.0,0.25,0.75,0.5,0.5,0.52,-0.73,0.14,116.7,-8.6,11.0
3.12,1.0,0.25,0.5,0.5,0.0,0.0,0.0,1.5,0.25,0.75,0.0,0.0,1.0,-0.67,-0.36,0.08,85.59,2.8,-10.2,1.0,0.25,1.0,0.5,1.25,0.5,0.25,0.25,0.0,0.5,1.0,0.25,0.5,0.52,-0.67,0.14,115.97,-9.1,14.1
3.14,1.0,0.25,1.25,0.5,0.0,0.0,0.0,1.5,0.25,0.75,0.5,0.0,1.25,-0.73,-0.48,0.08,93.23,6.5,-10.5,1.0,0.25,1.0,0.25,1.25,0.75,0.25,0.5,0.25,0.5,0.75,0.25,0.5,0.52,-0.61,0.08,114.45,-7.0,12.5
3.16,1.0,0.25,0.5,0.5,0.0,0.0,0.0,2.0,0.25,0.75,0.0,0.0,1.25,-0.8,-0.55,0.14,97.65,0.7,-16.3,1.0,0.0,1.0,0.25,1.5,0.5,0.25,0.25,0.0,0.5,1.0,0.5,0.5,0.52,-0.67,0.08,117.31,-8.1,6.8
3.18,1.0,0.25,0.25,0.5,0.0,0.0,0.0,0.5,0.25,0.75,0.0,0.0,1.25,-0.86,-0.48,0.14,92.72,4.2,-13.4,1.0,0.25,0.75,0.25,1.25,0.75,0.25,0.25,0.0,0.25,0.75,0.25,0.25,0.58,-0.67,0.14,113.97,-8.2,23.2
3.2,1.0,0.25,0.5,0.75,0.0,0.0,0.0,1.5,0.25,0.75,0.0,0.0,0.5,-0.92,-0.55,0.08,88.73,5.1,2.3,1.0,0.25,1.0,0.25,1.0,0.75,0.25,0.5,0.0,0.0,0.75,0.25,0.5,0.58,-0.67,0.14,106.72,-9.0,19.5
3.22,1.0,0.25,0.25,0.25,0.0,0.0,0.0,1.75,0.5,0.75,0.0,0.0,1.0,-0.92,-0.55,0.08,85.6,0.1,-18.9,1.25,0.25,1.0,0.25,1.5,0.75,0.25,0.5,0.0,0.5,0.75,0.5,0.25,0.58,-0.61,0.14,109.63,-8.0,18.4
3.24,1.0,0.25,0.5,0.5,0.0,0.0,0.0,1.25,0.25,1.0,0.0,0.0,1.25,-0.92,-0.55,0.08,86.51,2.2,-16.0,1.0,0.25,1.0,0.0,1.25,0.5,0.25,0.25,0.0,0.0,1.0,0.25,0.5,0.52,-0.61,0.14,106.75,-10.4,17.6
3.26,1.0,0.25,0.5,0.5,0.0,0.0,0.0,2.0,0.5,0.75,0.0,0.0,1.0,-0.86,-0.55,0.14,91.06,1.7,-13.4,1.0,0.25,1.0,0.25,1.5,1.0,0.25,0.75,0.0,0.5,1.0,0.25,0.75,0.52,-0.61,0.14,116.0,-4.4,8.3
3.28,1.0,0.25,0.5,0.5,0.0,0.0,0.0,1.5,0.25,0.75,0.25,0.0,1.0,-0.8,-0.55,0.14,92.59,3.2,-12.8,1.0,0.25,1.0,0.5,1.5,0.5,0.25,0.5,0.0,0.75,1.0,0.25,0.25,0.58,-0.61,0.14,119.23,-7.7,15.0
3.3,1.0,0.25,0.25,0.5,0.0,0.0,0.0,1.5,0.5,0.75,0.5,0.0,1.25,-0.86,-0.48,0.08,95.34,1.7,-22.9,1.25,0.25,1.0,0.25,1.0,0.5,0.25,0.5,0.0,0.5,1.0,0.25,0.5,0.58,-0.61,0.14,120.89,-9.2,11.8
3.32,1.0,0.25,0.25,0.5,0.0,0.0,0.0,1.25,0.25,0.75,0.0,0.0,1.0,-0.86,-0.42,0.08,90.4,2.0,-12.3,1.0,0.25,1.0,0.0,0.25,0.5,0.25,0.5,0.0,0.5,0.5,0.25,0.5,0.64,-0.61,0.14,107.92,-9.6,6.9
3.34,1.0,0.25,0.25,0.5,0.0,0.0,0.0,1.5,0.5,0.5,0.0,0.0,1.0,-0.8,-0.42,0.08,87.53,2.4,-11.8,1.0,0.25,1.0,0.0,1.25,0.5,0.25,0.0,0.0,0.5,0.5,0.25,0.25,0.64,-0.61,0.08,99.84,-10.3,25.4
3.36,1.0,0.25,0.0,0.5,0.0,0.0,0.0,1.75,0.25,0.5,0.0,0.0,1.0,-0.86,-0.42,0.08,81.97,-0.6,-15.4,1.0,0.25,1.0,0.0,1.25,0.5,0.25,0.5,0.0,0.5,0.75,0.5,0.5,0.64,-0.67,0.08,97.28,-7.5,7.6
3.38,1.0,0.25,0.5,0.5,0.0,0.0,0.0,1.5,0.25,0.75,0.0,0.0,0.75,-0.92,-0.48,0.08,81.33,3.6,-5.5,1.0,0.25,1.0,0.25,2.5,0.75,0.25,0.75,0.0,0.5,0.75,0.25,0.25,0.7,-0.67,0.14,109.86,-5.0,23.0
3.4,1.0,0.25,0.25,0.5,0.0,0.0,0.0,1.25,0.25,0.75,0.0,0.0,1.0,-0.92,-0.48,0.08,80.8,2.0,-12.3,1.0,0.25,1.0,0.0,1.5,0.5,0.25,0.25,0.0,0.5,0.75,0.25,0.75,0.64,-0.61,0.14,114.13,-7.1,11.0
3.42,1.0,0.25,0.5,0.5,0.0,0.0,0.0,1.0,0.25,0.75,0.0,0.0,1.0,-0.92,-0.42,0.08,81.3,4.7,-7.5,1.25,0.25,1.0,0.5,1.5,0.5,0.25,0.25,0.0,0.5,0.25,0.25,0.75,0.64,-0.61,0.14,118.79,-8.4,22.8
3.44,1.0,0.25,0.5,0.5,0.0,0.0,0.0,1.0,0.25,0.75,0.0,0.0,1.0,-0.92,-0.42,0.02,79.56,4.7,-7.5,1.25,0.0,1.0,0.25,1.5,0.75,0.25,0.25,0.0,0.25,0.75,0.25,0.5,0.64,-0.61,0.14,115.49,-8.7,20.7
3.46,1.0,0.25,0.25,0.5,0.0,0.0,0.0,1.5,0.25,0.5,0.0,0.0,1.0,-0.86,-0.42,0.02,78.85,2.0,-10.6,1.0,0.25,1.0,0.25,1.25,0.75,0.25,0.25,0.0,0.5,0.75,0.25,0.5,0.58,-0.61,0.14,112.68,-7.6,16.2
3.48,1.0,0.25,0.5,0.5,0.0,0.0,0.0,0.5,0.5,0.75,0.0,0.0,1.5,-0.86,-0.42,0.02,79.4,5.3,-15.6,1.0,0.0,1.0,0.25,1.25,0.5,0.25,0.75,0.0,0.0,0.75,0.25,0.25,0.58,-0.61,0.14,107.13,-9.4,20.2
3.5,1.0,0.25,0.25,0.5,0.0,0.0,0.0,0.5,0.25,0.75,0.0,0.0,0.75,-0.86,-0.42,0.02,74.49,6.3,-1.7,1.0,0.25,0.75,0.0,1.25,0.5,0.25,0.25,0.0,0.5,0.75,0.25,0.0,0.58,-0.61,0.14,100.15,-9.0,22.9
3.52,1.0,0.25,0.25,0.25,0.0,0.0,0.0,0.5,0.25,0.5,0.25,0.0,0.75,-0.86,-0.42,0.02,69.04,7.3,-5.5,1.0,0.25,0.75,0.5,1.25,0.5,0.25,0.0,0.0,0.5,0.75,0.25,0.25,0.58,-0.73,0.2,98.43,-9.8,22.8
3.54,1.0,0.5,0.25,0.5,0.0,0.0,0.0,1.25,0.25,0.75,0.0,0.0,1.0,-0.86,-0.48,0.08,71.2,2.5,-7.1,1.0,0.25,1.0,0.25,1.5,0.5,0.25,0.5,0.0,0.5,0.25,0.25,0.5,0.58,-0.73,0.2,100.6,-7.1,21.6
3.56,1.0,0.25,0.5,0.75,0.0,0.0,0.0,0.5,0.25,0.75,0.25,0.0,1.25,-0.86,-0.42,0.14,75.75,6.7,-9.3,1.0,0.25,1.75,0.0,1.0,0.75,0.25,0.5,0.0,0.25,1.0,0.25,0.5,0.58,-0.67,0.14,107.08,-11.0,16.2
3.58,1.0,0.25,0.25,0.75,0.0,0.0,0.0,0.5,0.5,0.75,0.0,0.0,0.25,-0.92,-0.42,0.08,74.63,9.8,12.9,1.0,0.25,1.0,0.25,1.5,0.5,0.25,0.25,0.0,0.5,0.0,0.25,0.5,0.58,-0.67,0.14,105.98,-7.9,27.8
3.6,1.0,0.25,0.5,0.5,0.0,0.0,0.0,1.0,0.25,0.75,0.0,0.0,1.25,-0.92,-0.42,0.08,78.05,3.8,-12.2,1.0,0.25,1.0,0.25,1.25,0.5,0.25,0.0,0.0,0.25,1.0,0.25,0.25,0.58,-0.67,0.2,103.47,-11.7,23.0
3.62,1.0,0.25,0.25,0.5,0.0,0.0,0.0,0.75,0.25,0.75,0.0,0.0,0.75,-0.92,-0.36,0.08,74.98,5.0,-3.8,1.0,0.0,1.25,0.0,1.25,0.5,0.25,0.25,0.0,0.5,1.0,0.25,0.5,0.58,-0.67,0.2,101.64,-9.4,9.2
3.64,1.0,0.25,0.25,0.5,0.0,0.0,0.0,0.5,0.25,0.75,0.0,0.0,0.75,-0.92,-0.36,0.08,71.7,6.3,-1.7,1.0,0.25,1.0,0.5,0.5,0.75,0.25,0.0,0.0,0.0,0.0,0.25,0.25,0.58,-0.61,0.14,93.55,-14.7,45.7
3.66,1.0,0.25,0.75,0.25,0.0,0.0,0.0,0.25,0.5,0.75,0.0,0.0,1.0,-0.92,-0.36,0.08,70.29,9.6,-4.0,1.0,0.0,1.0,0.0,1.25,0.5,0.25,0.5,0.0,0.25,1.25,0.25,0.5,0.52,-0.61,0.14,94.46,-8.3,5.5
3.68,1.0,0.25,0.5,0.5,0.0,0.0,0.0,0.5,0.25,0.5,0.0,0.0,0.5,-0.92,-0.36,0.08,67.87,11.1,13.8,0.75,0.0,1.0,0.0,0.5,0.75,0.25,0.0,0.0,0.0,0.5,0.25,0.5,0.52,-0.61,0.14,84.59,-11.4,15.8
3.7,1.0,0.25,0.25,0.5,0.0,0.0,0.0,0.0,0.25,0.75,0.0,0.0,1.0,-0.92,-0.36,0.08,65.02,7.9,-4.0,1.0,0.25,1.0,0.0,1.25,0.5,0.0,0.25,0.0,0.25,0.75,0.25,0.0,0.58,-0.67,0.14,85.46,-10.9,28.9
3.72,1.0,0.25,0.25,0.5,0.0,0.0,0.0,0.25,0.25,0.75,0.0,0.0,0.5,-0.86,-0.36,0.08,61.59,9.3,8.1,0.75,0.25,1.0,0.25,1.25,0.5,0.25,0.25,0.0,0.5,0.75,0.25,0.25,0.64,-0.67,0.2,87.1,-8.6,17.6
3.74,1.0,0.25,0.25,0.5,0.0,0.0,0.0,0.25,0.25,0.75,0.0,0.0,1.0,-0.92,-0.42,0.08,62.21,6.5,-6.1,1.0,0.25,1.0,0.0,1.0,0.75,0.25,0.0,0.0,0.25,0.75,0.25,0.25,0.64,-0.67,0.2,89.85,-10.8,24.5
3.76,1.0,0.25,0.25,0.5,0.0,0.0,0.0,0.5,0.25,0.75,0.0,0.0,1.0,-0.92,-0.42,0.08,63.01,5.2,-7.9,1.0,0.25,1.0,0.25,1.0,0.75,0.25,0.5,0.0,0.25,1.25,0.25,0.0,0.64,-0.67,0.14,94.55,-9.9,19.0
3.78,1.0,0.25,0.5,0.5,0.0,0.0,0.0,0.5,0.25,0.75,0.0,0.0,1.0,-0.92,-0.42,0.08,66.14,7.0,-4.2,1.0,0.25,1.0,0.5,1.25,0.75,0.25,0.25,0.0,0.5,0.75,0.25,0.25,0.64,-0.67,0.14,101.08,-8.8,22.4
3.8,1.0,0.25,0.25,0.75,0.0,0.0,0.0,0.0,0.25,0.75,0.0,0.0,0.5,-0.92,-0.42,0.08,65.33,11.6,14.7,1.25,0.25,1.0,0.0,1.0,0.75,0.25,0.5,0.0,0.25,0.75,0.25,0.5,0.64,-0.61,0.2,105.19,-8.6,17.2
3.82,1.0,0.25,0.25,0.75,0.0,0.0,0.0,0.0,0.5,0.75,0.0,0.0,1.0,-0.92,-0.42,0.08,67.45,8.7,-2.3,1.0,0.25,1.0,0.0,1.25,0.5,0.25,0.0,0.0,0.0,0.75,0.25,0.5,0.58,-0.61,0.14,103.06,-11.5,23.9
3.84,1.0,0.25,0.5,0.5,0.0,0.0,0.0,0.0,0.5,0.75,0.0,0.0,1.0,-0.86,-0.42,0.08,67.37,9.9,-2.2,1.0,0.25,1.0,0.0,1.5,0.5,0.25,0.25,0.0,0.5,0.75,0.25,0.5,0.58,-0.61,0.14,104.82,-7.9,15.5
3.86,1.0,0.25,0.25,0.75,0.0,0.0,0.0,0.75,0.25,0.75,0.0,0.0,0.75,-0.92,-0.42,0.08,71.07,5.7,-0.4,1.0,0.25,1.0,0.25,1.25,0.5,0.25,0.25,0.0,0.25,0.75,0.25,0.25,0.58,-0.61,0.14,103.41,-10.6,24.4
3.88,1.0,0.25,0.25,0.5,0.0,0.0,0.0,0.5,0.25,0.75,0.0,0.0,0.5,-0.92,-0.42,0.08,69.29,7.6,5.2,1.0,0.25,1.0,0.25,0.0,0.75,0.25,0.0,0.0,0.25,0.5,0.25,0.5,0.58,-0.61,0.14,96.12,-13.3,17.2
3.9,0.75,0.25,0.25,0.75,0.0,0.25,0.0,0.5,0.5,0.5,0.0,0.0,0.75,-0.86,-0.42,0.08,70.26,5.5,0.5,0.75,0.25,1.0,0.0,1.0,0.5,0.25,0.5,0.0,0.5,0.0,0.25,0.5,0.58,-0.61,0.14,90.76,-6.4,17.6
3.92,1.0,0.5,0.5,0.5,0.0,0.25,0.0,0.0,0.5,0.5,0.0,0.0,0.5,-0.86,-0.42,0.08,69.86,12.6,23.3,1.0,0.0,1.0,0.25,1.0,0.5,0.25,0.0,0.0,0.25,1.25,0.25,0.25,0.58,-0.67,0.14,90.15,-12.4,14.2
3.94,1.0,0.25,0.25,0.75,0.0,0.25,0.0,1.25,0.5,0.75,0.0,0.0,1.25,-0.86,-0.42,0.08,79.0,1.5,-12.7,1.0,0.25,1.0,0.5,1.25,0.5,0.25,0.25,0.0,0.5,0.75,0.25,0.75,0.64,-0.67,0.14,96.42,-8.2,12.6
3.96,1.0,0.25,0.25,0.5,0.0,0.0,0.0,0.5,0.5,0.75,0.0,0.0,0.75,-0.92,-0.42,0.08,78.33,6.6,-3.7,1.0,0.25,1.0,0.0,1.25,0.5,0.25,0.75,0.0,0.5,1.0,0.25,0.25,0.64,-0.67,0.2,102.16,-7.4,11.5
3.98,1.5,0.25,0.25,0.25,0.0,0.0,0.0,0.5,0.25,0.75,0.0,0.0,0.75,-0.92,-0.42,0.08,77.9,8.7,5.1,1.0,0.25,1.0,0.0,0.5,0.5,0.25,0.25,0.0,0.25,0.25,0.25,0.25,0.64,-0.67,0.14,96.72,-12.8,27.5
4.0,1.0,0.25,0.25,0.5,0.0,0.0,0.0,0.25,0.25,0.75,0.0,0.0,0.5,-0.92,-0.42,0.08,70.45,9.3,8.1,1.0,0.25,1.0,0.25,0.25,0.75,0.25,0.5,0.0,0.0,0.5,0.25,0.5,0.64,-0.67,0.2,90.57,-10.9,18.3
4.02,1.0,0.25,0.25,0.5,0.0,0.25,0.0,0.0,0.25,0.75,0.0,0.0,0.75,-0.92,-0.42,0.08,66.46,7.5,5.0,1.0,0.25,1.0,0.5,0.0,0.75,0.25,0.0,0.0,0.25,0.75,0.25,0.5,0.58,-0.67,0.2,84.35,-13.3,15.0
4.04,1.0,0.25,0.25,0.75,0.0,0.25,0.0,0.5,0.25,0.5,0.0,0.0,0.75,-0.92,-0.42,0.08,65.82,6.7,7.7,0.75,0.25,1.0,0.0,0.5,0.5,0.5,0.5,0.0,0.5,0.75,0.25,0.25,0.58,-0.61,0.14,83.37,-9.5,7.7
4.06,1.0,0.25,0.25,0.75,0.0,0.25,0.0,0.25,0.25,0.75,0.0,0.0,0.75,-0.92,-0.42,0.08,67.27,6.7,5.6,1.0,0.25,1.0,0.25,1.25,0.5,0.25,0.0,0.0,0.0,1.0,0.25,0.25,0.58,-0.61,0.14,87.04,-12.8,27.1
4.08,1.0,0.25,0.25,0.5,0.0,0.25,0.0,0.5,0.25,0.75,0.0,0.0,1.0,-0.92,-0.42,0.08,70.24,3.8,-5.8,1.25,0.5,1.0,0.5,0.25,0.5,0.25,0.5,0.0,0.0,0.75,0.25,0.25,0.58,-0.61,0.14,90.69,-14.7,27.9
4.1,1.0,0.25,0.5,0.75,0.0,0.0,0.0,0.5,0.5,0.5,0.5,0.0,0.5,-0.86,-0.42,0.08,73.72,11.4,4.9,1.0,0.25,1.0,0.25,1.5,0.5,0.25,0.25,0.0,0.25,0.75,0.25,0.0,0.58,-0.61,0.14,96.29,-10.9,31.2
4.12,1.0,0.25,0.5,0.5,0.0,0.0,0.0,0.5,0.25,0.5,0.0,0.0,1.0,-0.92,-0.36,0.08,73.98,8.2,-0.2,0.75,0.25,1.0,0.5,1.25,0.5,0.25,0.5,0.0,0.0,0.75,0.25,0.0,0.58,-0.61,0.14,98.27,-10.9,30.2
4.14,1.0,0.25,0.25,0.75,0.0,0.0,0.0,0.5,0.25,0.75,0.0,0.0,0.5,-0.92,-0.42,0.08,71.6,8.2,8.4,1.0,0.0,1.0,0.5,0.5,0.5,0.25,0.0,0.0,0.0,0.75,0.25,0.5,0.58,-0.61,0.14,93.37,-14.6,18.6
4.16,1.0,0.25,0.25,0.5,0.0,0.0,0.0,0.0,0.25,0.75,0.0,0.0,1.0,-0.92,-0.42,0.08,67.45,7.9,-4.0,1.0,0.25,1.0,0.25,1.25,0.5,0.0,0.25,0.0,0.5,0.25,0.25,0.0,0.64,-0.61,0.14,91.2,-10.1,34.6
4.18,0.75,0.25,0.25,0.75,0.0,0.0,0.0,0.25,0.25,0.75,0.0,0.0,0.75,-0.92,-0.42,0.08,64.24,6.8,-1.3,1.0,0.25,1.0,0.0,1.5,0.5,0.25,0.25,0.0,0.5,0.75,0.25,0.25,0.64,-0.61,0.14,93.91,-8.7,20.5
4.2,1.0,0.25,0.25,0.5,0.0,0.25,0.0,0.5,0.25,0.75,0.75,0.0,0.75,-0.92,-0.42,0.08,69.36,5.6,-10.4,1.0,0.25,1.0,0.5,1.5,0.5,0.5,0.25,0.0,0.25,0.75,0.25,0.25,0.64,-0.61,0.14,101.94,-10.6,26.9
4.22,1.0,0.25,0.25,0.5,0.0,0.25,0.0,0.75,0.25,0.5,0.5,0.0,0.25,-0.92,-0.42,0.08,70.83,7.5,6.7,1.0,0.25,1.0,0.25,0.5,0.5,0.25,0.0,0.0,0.25,0.5,0.25,0.25,0.58,-0.61,0.14,98.49,-14.5,27.4
4.24,0.75,0.25,0.25,0.75,0.0,0.25,0.0,0.5,0.25,0.75,0.5,0.0,1.0,-0.92,-0.42,0.08,75.91,3.7,-13.7,1.0,0.25,1.0,0.0,1.25,0.75,0.25,0.5,0.0,0.0,0.75,0.25,0.25,0.64,-0.61,0.14,99.11,-9.0,24.8
