time,left pressure 0[N/cm²],left pressure 1[N/cm²],left pressure 2[N/cm²],left pressure 3[N/cm²],left pressure 4[N/cm²],left pressure 5[N/cm²],left pressure 6[N/cm²],left pressure 7[N/cm²],left pressure 8[N/cm²],left pressure 9[N/cm²],left pressure 10[N/cm²],left pressure 11[N/cm²],left pressure 12[N/cm²],left acceleration X[g],left acceleration Y[g],left acceleration Z[g],left total force[N],left center of pressure X[mm],left center of pressure Y[mm],right pressure 0[N/cm²],right pressure 1[N/cm²],right pressure 2[N/cm²],right pressure 3[N/cm²],right pressure 4[N/cm²],right pressure 5[N/cm²],right pressure 6[N/cm²],right pressure 7[N/cm²],right pressure 8[N/cm²],right pressure 9[N/cm²],right pressure 10[N/cm²],right pressure 11[N/cm²],right pressure 12[N/cm²],right acceleration X[g],right acceleration Y[g],right acceleration Z[g],right total force[N],right center of pressure X[mm],right center of pressure Y[mm]
0.02,0.0,0.5,0.5,1.25,0.0,0.0,0.0,0.0,0.0,0.0,3.0,0.0,4.5,0.2,0.45,1.27,127.54,1.6,-57.7,0.0,0.75,1.0,1.25,1.5,1.0,0.25,0.0,0.25,0.5,0.75,0.25,0.0,0.39,-0.17,0.52,40.16,-7.0,28.0
0.04,0.0,0.0,0.0,1.25,0.0,0.0,0.0,2.25,0.5,4.75,4.25,4.75,4.5,-0.3,0.33,1.58,210.23,-2.7,-77.5,0.0,0.5,1.0,1.25,1.25,1.0,0.25,0.0,0.25,0.75,0.75,0.25,0.0,0.45,-0.17,0.7,65.12,-6.4,21.0
0.06,0.5,0.5,0.25,1.25,0.0,0.0,0.25,4.0,0.5,4.75,4.0,4.5,5.5,-0.11,0.2,1.08,283.41,-2.8,-67.4,0.25,0.75,1.0,1.25,1.5,0.0,0.25,0.25,0.0,0.75,0.75,0.0,0.0,0.39,-0.05,0.89,85.58,-10.0,30.7
0.08,1.25,0.0,0.5,1.25,0.0,0.0,0.0,3.5,0.5,4.75,3.75,4.25,5.25,-0.17,0.08,0.95,347.55,-1.6,-64.9,0.0,0.75,0.75,1.25,1.0,1.0,0.25,0.0,0.25,0.75,0.75,0.25,0.0,0.27,0.14,0.95,99.34,-5.8,21.0
0.1,0.0,0.5,0.0,1.25,0.0,0.25,0.5,4.0,0.5,5.25,3.25,4.75,5.25,-0.17,0.08,0.95,388.8,-4.3,-70.2,0.0,0.5,1.0,1.25,1.25,0.75,0.25,0.0,0.25,0.5,0.75,0.25,0.0,0.27,0.2,1.08,105.36,-8.2,24.1
0.12,0.0,0.5,0.0,1.25,0.0,0.75,0.5,3.75,0.5,5.75,4.25,5.0,6.0,-0.17,0.08,0.95,425.85,-4.3,-70.5,0.0,0.5,1.0,1.5,1.25,0.75,0.25,0.0,0.5,0.5,0.75,0.0,0.0,0.27,0.33,1.27,106.39,-8.6,27.8
0.14,0.0,0.5,0.0,1.25,0.0,0.75,0.75,4.0,0.5,5.75,0.0,5.5,6.0,-0.17,0.08,0.95,425.3,-6.5,-69.6,0.0,0.5,1.0,1.25,1.5,0.5,0.25,0.0,0.25,0.25,0.75,0.25,0.0,0.33,0.45,1.33,106.48,-9.7,28.7
0.16,0.0,0.5,0.0,1.5,0.0,0.75,0.75,5.0,0.5,6.5,0.0,5.5,6.0,-0.17,0.08,0.95,431.48,-6.9,-67.4,0.0,0.75,0.75,1.25,1.25,0.75,0.25,0.0,0.25,0.75,0.75,0.25,0.0,0.33,0.58,1.45,108.06,-6.4,21.9
0.18,1.0,0.5,0.25,1.75,0.0,1.25,0.75,5.0,1.5,6.5,6.5,5.5,6.25,-0.11,0.02,0.95,483.65,-2.0,-60.9,0.0,0.75,0.75,1.25,1.25,1.5,0.25,0.0,0.25,0.25,0.5,0.0,0.0,0.39,0.64,1.64,107.85,-4.8,38.6
0.2,1.25,0.5,0.25,2.75,0.0,0.0,0.75,5.5,0.75,6.5,6.5,5.5,6.25,-0.11,0.02,0.95,529.69,-1.0,-59.7,0.0,0.5,0.75,1.25,1.75,0.75,0.25,0.0,0.25,0.0,0.75,0.25,0.0,0.58,0.7,1.7,107.71,-7.8,32.6
0.22,1.25,0.5,0.5,3.25,1.5,1.5,0.75,5.5,1.75,6.5,6.5,5.5,6.0,-0.17,0.02,0.95,587.37,-1.0,-48.5,0.0,0.5,0.75,1.25,1.5,0.75,0.25,0.0,0.25,0.5,0.75,0.25,0.0,0.52,0.83,1.89,108.4,-6.6,23.9
0.24,1.25,0.5,0.25,3.0,0.25,1.5,0.75,5.75,2.5,6.25,6.5,5.25,6.0,-0.17,0.02,0.95,613.79,-1.1,-52.9,0.0,0.75,0.75,1.25,1.25,0.5,0.25,0.0,0.5,0.5,0.75,0.0,0.0,0.27,1.2,2.14,106.75,-8.4,27.9
0.26,1.25,0.5,0.5,3.25,2.0,1.75,0.0,5.5,2.75,5.75,6.5,5.0,6.0,-0.11,0.02,0.95,628.52,-1.0,-45.8,0.0,0.75,0.75,1.25,1.25,0.5,0.25,0.0,0.25,0.0,0.75,0.25,0.0,-0.05,2.02,2.02,103.69,-10.3,33.4
0.28,1.25,0.5,0.5,3.5,2.0,2.0,0.75,5.5,2.75,5.75,6.5,4.5,5.0,-0.11,0.02,0.95,611.88,-0.5,-41.6,0.25,0.75,0.75,1.25,1.75,0.75,0.25,0.0,0.25,0.5,0.75,0.0,0.0,-0.23,2.33,1.02,108.03,-7.2,34.5
0.3,1.25,0.5,0.5,4.0,2.75,2.0,0.75,5.5,2.75,4.75,6.0,4.0,4.25,-0.11,0.02,0.95,595.91,0.0,-34.6,0.0,0.75,0.75,1.25,1.0,0.5,0.25,0.0,0.25,0.0,0.25,0.0,0.0,-0.73,3.08,0.33,100.75,-11.1,49.6
0.32,1.5,0.5,0.5,5.25,2.75,2.0,0.75,5.25,2.75,4.5,5.5,3.25,3.75,-0.11,0.02,0.95,569.74,0.9,-27.3,0.0,0.5,0.75,1.25,1.25,0.75,0.25,0.0,0.25,0.5,0.75,0.25,0.0,-1.55,4.02,0.08,101.3,-7.0,22.6
0.34,1.25,0.5,1.25,6.0,4.0,2.5,0.75,5.0,3.0,3.0,5.25,3.0,3.0,-0.11,0.02,0.95,550.55,2.3,-16.5,0.0,0.75,0.75,1.25,1.25,0.5,0.25,0.0,0.25,0.75,0.75,0.0,0.0,-2.8,3.39,0.39,100.34,-7.4,26.4
0.36,1.25,0.5,1.25,7.0,5.25,2.5,1.5,5.0,2.75,3.0,4.5,2.5,2.5,-0.11,0.08,0.95,544.83,2.7,-7.9,0.0,0.25,0.5,1.25,1.0,0.5,0.25,0.25,0.25,3.0,0.75,1.25,1.0,0.83,-0.8,0.52,118.35,0.8,-32.5
0.38,1.25,0.5,2.25,7.25,5.25,2.75,1.5,5.0,3.0,3.0,4.0,2.0,1.75,-0.11,0.08,0.95,549.03,3.7,-1.6,0.0,0.25,0.5,0.25,1.25,0.0,0.25,0.75,0.25,5.25,2.0,4.25,5.25,0.33,-0.23,1.52,189.08,3.9,-72.8
0.4,1.25,0.75,2.25,8.25,5.5,3.0,1.75,4.75,3.0,1.75,4.0,2.0,1.25,-0.11,0.08,0.95,550.59,5.0,5.3,0.0,0.75,0.75,0.5,1.0,0.0,0.25,1.5,0.0,7.75,4.0,5.75,7.25,-0.86,0.89,2.14,285.54,3.6,-73.0
0.42,1.25,0.75,2.5,8.75,6.75,2.75,1.75,4.75,2.75,1.75,3.25,1.75,1.25,-0.11,0.08,0.95,555.01,5.1,10.3,0.0,0.0,0.75,1.25,2.25,1.0,0.25,4.75,1.0,8.5,5.75,5.25,7.25,-0.05,0.2,1.08,417.67,4.4,-62.2
0.44,1.25,1.25,3.25,9.5,6.75,3.25,2.0,4.5,2.5,1.25,3.0,1.25,1.25,-0.11,0.08,0.95,572.65,6.0,17.2,0.0,0.75,0.75,1.25,3.0,3.25,1.0,5.5,1.0,8.5,6.0,5.5,7.75,0.14,0.08,0.95,574.96,4.8,-52.2
0.46,1.25,1.5,3.75,10.0,7.0,3.25,2.25,4.25,2.0,1.25,2.75,1.0,1.25,-0.11,0.08,0.95,590.68,6.6,21.3,0.0,1.0,0.75,1.25,2.5,3.25,0.25,5.5,1.0,8.5,6.25,5.5,7.75,0.14,0.08,0.95,690.14,5.0,-53.5
0.48,1.75,1.75,4.25,11.0,7.75,3.5,2.5,4.25,1.75,1.25,2.5,1.0,1.25,-0.11,0.08,0.95,630.36,7.3,25.4,0.0,0.75,0.75,1.25,2.5,3.0,0.25,5.5,1.0,8.5,6.75,5.25,7.75,0.14,0.08,0.95,753.41,4.9,-54.8
0.5,2.75,1.75,5.0,12.0,8.0,3.5,2.75,3.75,1.5,1.25,2.5,1.0,1.25,-0.11,0.08,0.95,680.32,8.8,29.3,0.0,0.75,0.75,1.0,2.75,3.5,0.25,6.0,1.0,8.75,6.75,5.5,8.0,0.14,0.08,0.95,789.31,5.4,-54.4
0.52,2.75,1.75,5.5,12.0,8.25,3.75,2.75,2.75,1.0,1.25,2.25,1.0,1.25,-0.11,0.08,0.95,720.88,9.4,32.6,0.0,0.75,0.75,1.25,3.25,3.75,0.5,6.25,1.25,8.5,6.0,5.25,7.75,0.08,0.08,0.95,802.77,5.4,-50.5
0.54,2.5,1.75,5.75,13.0,8.5,4.0,2.75,2.5,0.5,1.25,2.0,1.0,1.25,-0.11,0.14,0.95,752.3,9.4,34.8,0.0,0.75,0.75,1.25,4.25,4.5,0.5,5.75,1.0,8.75,5.0,5.25,6.25,0.08,0.08,0.95,792.18,5.7,-44.1
0.56,3.0,2.0,6.5,13.5,8.75,3.5,2.75,2.25,0.25,1.0,1.75,1.0,1.0,-0.11,0.14,0.95,773.47,10.9,39.3,0.0,0.75,0.75,1.25,4.25,4.5,0.5,6.25,1.25,8.5,6.0,4.5,7.25,0.14,0.08,0.95,780.95,5.8,-44.9
0.58,3.25,3.25,6.0,14.0,8.75,3.5,2.75,2.0,1.25,0.0,1.5,0.0,0.75,-0.17,0.14,1.02,785.87,11.7,46.9,0.0,0.75,0.75,1.75,4.25,5.0,0.75,6.25,1.25,8.5,6.0,4.0,7.25,0.14,0.08,0.95,763.52,5.7,-42.1
0.6,4.25,2.75,1.0,14.0,4.0,1.25,0.75,0.0,0.0,0.0,0.0,1.0,0.5,-0.17,0.14,1.08,671.87,14.4,56.7,0.5,0.5,1.0,2.5,4.5,5.0,0.75,6.5,1.5,8.25,6.0,4.0,6.75,0.14,0.08,0.95,745.16,4.6,-37.8
0.62,5.75,3.25,7.0,14.5,8.5,2.75,3.5,0.0,0.0,0.5,0.0,0.25,0.0,-0.17,0.14,1.08,679.7,15.7,60.2,0.5,1.25,1.5,3.0,4.75,5.75,1.0,6.75,1.5,8.0,5.75,3.5,6.25,0.14,0.08,0.95,725.26,4.0,-30.0
0.64,6.75,3.25,7.25,14.5,8.25,2.25,2.0,3.0,0.5,1.25,0.0,1.0,0.0,-0.23,0.2,1.08,711.15,13.9,50.3,1.0,1.0,1.75,4.0,5.0,5.75,1.0,6.5,1.5,7.75,5.25,2.75,6.0,0.14,0.08,0.95,711.54,3.2,-24.3
0.66,0.0,0.0,1.25,13.0,5.75,2.25,0.25,1.5,0.5,0.0,0.0,0.75,0.0,-0.23,0.27,1.14,608.58,7.6,42.9,0.75,0.75,2.5,4.25,6.0,6.25,1.0,6.25,1.5,7.25,4.75,2.75,5.5,0.14,0.08,0.95,706.33,2.7,-19.4
0.68,6.75,3.25,7.25,12.0,0.0,0.5,0.5,2.25,0.0,0.75,1.5,1.0,0.25,-0.36,0.33,1.33,561.86,20.3,48.8,1.0,0.75,2.75,4.25,6.5,6.5,1.25,6.25,1.5,6.5,4.0,2.25,5.0,0.14,0.08,0.95,702.29,2.3,-13.6
0.7,7.25,2.0,6.5,10.5,5.75,0.0,0.0,2.0,0.5,0.75,1.75,1.0,0.25,-0.55,0.39,1.52,533.05,17.0,46.9,1.0,0.75,3.0,6.0,6.75,6.5,1.5,6.25,1.5,5.5,4.0,1.25,4.0,0.14,0.08,0.95,704.63,1.0,-4.7
0.72,6.75,1.5,5.5,7.5,1.25,0.0,0.0,1.75,0.0,0.75,1.75,0.0,0.5,-0.73,0.58,1.52,463.26,20.2,48.6,1.25,1.0,3.5,6.0,7.5,6.5,1.5,6.25,1.5,5.75,3.25,1.0,3.5,0.14,0.08,0.95,710.36,0.6,0.3
0.74,4.75,0.5,2.25,5.25,0.0,0.0,0.0,0.0,0.5,1.0,1.5,0.0,0.25,-0.98,1.02,2.27,345.47,21.7,44.6,1.25,1.25,3.5,6.75,8.0,7.0,1.5,6.25,1.5,5.25,3.25,1.0,3.0,0.14,0.08,0.95,725.35,0.2,4.5
0.76,0.0,0.75,1.75,3.5,0.0,0.0,0.0,0.0,0.5,0.0,1.0,1.0,0.25,-0.23,0.83,2.64,240.8,18.2,18.8,1.25,1.5,3.5,7.75,8.25,7.0,1.75,5.75,1.5,4.75,2.5,0.75,2.75,0.14,0.08,0.95,739.7,-0.4,10.1
0.78,0.75,0.0,0.0,2.5,0.0,0.0,0.0,0.0,0.75,0.5,0.0,0.0,0.0,-0.61,0.45,2.27,120.21,15.5,33.7,1.25,1.5,4.0,8.25,8.75,7.25,2.0,5.5,1.25,4.75,2.0,0.75,2.25,0.14,0.08,0.95,755.93,-1.0,14.3
0.8,0.0,0.0,1.25,1.25,0.0,0.0,0.0,0.0,2.0,0.75,0.0,0.0,0.25,-0.92,-0.36,1.83,24.96,14.4,-1.2,1.25,1.5,4.0,9.5,9.25,7.5,2.0,5.5,1.0,3.5,2.0,0.75,1.75,0.14,0.08,0.95,767.07,-1.8,19.8
0.82,0.0,0.0,0.0,0.0,0.0,0.0,3.0,0.0,0.0,0.0,0.0,0.0,0.0,-1.48,-0.92,1.58,0.0,32.4,27.3,1.5,2.0,4.75,9.75,9.25,7.5,2.0,5.0,1.0,3.0,2.0,0.0,1.75,0.08,0.08,0.95,779.14,-2.9,25.3
0.84,0.0,0.0,0.0,0.0,0.0,0.0,0.0,0.0,0.0,0.0,0.0,0.0,0.0,-1.36,-1.17,1.14,0.0,0.0,0.0,2.0,2.5,5.5,11.5,10.5,7.75,2.0,4.25,1.0,2.25,2.0,0.25,1.75,0.08,0.08,0.95,818.54,-4.6,30.7
0.86,0.0,0.0,0.0,0.0,0.0,0.0,0.0,0.0,0.0,0.0,0.0,0.0,0.0,-0.92,-1.05,0.08,0.0,0.0,0.0,2.5,2.5,5.75,11.5,11.0,7.75,2.25,4.25,1.0,2.25,2.0,0.25,1.75,0.08,0.08,0.95,864.92,-4.9,31.6
0.88,0.0,0.0,0.0,0.0,0.0,0.0,0.0,0.0,0.0,0.0,0.0,0.0,0.0,-0.67,-0.17,0.33,0.0,0.0,0.0,2.75,2.5,5.75,13.0,11.0,8.0,2.25,3.5,0.75,2.25,1.5,0.25,1.75,0.08,0.08,0.95,911.98,-5.5,34.8
0.9,0.0,0.0,0.0,0.0,0.0,0.0,0.5,0.0,0.0,0.0,0.0,0.0,0.0,-0.36,-0.3,0.52,0.0,32.4,27.3,3.75,2.75,6.0,14.0,12.0,8.0,2.0,3.0,0.5,2.25,0.75,0.25,1.25,0.08,0.08,0.95,957.14,-6.4,40.7
0.92,0.0,0.0,0.0,0.0,0.0,0.0,0.5,0.0,0.0,0.0,0.0,0.0,0.0,-0.42,-0.11,0.58,0.0,32.4,27.3,3.75,2.75,6.75,15.0,12.0,8.0,2.0,2.75,0.5,2.0,1.5,0.0,1.25,0.08,0.08,0.95,1003.52,-7.3,41.3
0.94,0.0,0.0,0.0,0.0,0.0,0.0,0.25,0.0,1.75,1.5,0.0,0.25,0.0,-0.55,-0.11,0.7,0.0,0.9,-56.7,5.0,3.25,7.0,15.0,13.0,8.0,2.0,1.5,0.25,2.0,0.75,0.0,1.0,0.08,0.14,0.95,1043.33,-8.3,47.3
0.96,0.0,0.0,2.5,0.0,0.0,0.0,1.5,0.0,2.5,1.5,0.25,0.0,0.25,-0.55,0.08,0.83,11.8,16.4,-10.1,3.75,2.5,6.5,13.0,11.5,7.25,1.75,1.25,0.5,1.0,0.0,0.0,0.0,0.08,0.14,1.02,993.0,-8.8,52.2
0.98,0.75,0.25,0.75,0.0,0.0,0.0,0.5,0.0,0.0,0.0,0.0,0.0,0.25,-0.42,0.2,0.89,41.86,27.6,53.6,5.75,3.0,6.0,15.5,12.0,7.5,1.0,0.0,0.25,1.0,0.0,0.0,0.0,0.08,0.14,1.08,968.33,-10.0,57.1
1.0,0.5,0.5,0.0,1.25,0.0,0.0,0.75,0.0,2.25,0.75,2.0,0.0,0.5,-0.3,0.27,1.14,82.95,10.6,-20.1,5.75,2.5,7.25,13.0,12.5,6.5,1.25,1.25,0.25,1.25,0.0,0.0,0.25,0.08,0.2,1.08,931.06,-9.9,53.4
1.02,1.5,0.25,0.75,1.75,0.0,0.0,0.25,0.0,1.5,1.5,0.0,1.0,0.0,-0.3,0.39,1.27,107.52,14.4,4.7,7.0,4.0,7.0,15.0,12.0,6.5,1.0,0.0,0.25,0.0,0.0,0.0,0.0,0.08,0.27,1.08,930.96,-12.1,61.7
1.04,1.75,0.25,1.25,1.75,0.0,0.0,2.25,0.0,0.25,0.25,0.5,0.25,0.25,-0.3,0.58,1.33,127.47,23.6,36.8,7.0,3.25,6.0,12.0,10.0,5.5,0.5,1.25,0.25,1.5,0.75,0.25,0.75,0.08,0.27,1.14,892.33,-10.5,50.4
1.06,0.75,0.25,0.75,1.25,0.0,0.0,0.25,0.0,0.25,0.5,1.5,0.75,0.5,-0.3,0.64,1.45,130.96,14.2,-11.3,7.0,2.5,4.75,13.0,11.0,3.5,0.75,1.0,0.5,1.25,0.75,0.0,0.5,0.14,0.33,1.2,848.55,-11.3,52.5
1.08,2.25,0.25,0.75,1.25,0.0,0.0,0.25,0.0,1.0,0.5,0.75,0.5,0.5,-0.42,0.64,1.64,137.58,18.2,14.8,5.0,1.25,2.5,9.75,9.0,1.0,0.25,0.0,0.5,1.0,0.0,0.25,0.5,0.33,0.45,1.7,684.59,-11.9,53.7
1.1,0.25,0.5,0.75,1.25,0.0,0.0,0.5,0.0,0.25,0.5,0.75,0.75,0.25,-0.55,0.64,1.83,124.72,14.5,-1.6,5.0,0.75,0.0,6.0,5.5,0.5,0.5,0.75,0.25,0.5,0.75,0.0,0.25,0.58,0.77,1.7,483.83,-11.4,51.7
1.12,0.5,0.5,0.75,1.25,0.0,0.0,0.25,0.0,0.25,0.5,1.0,0.75,0.0,-0.42,0.77,2.27,114.08,16.1,3.6,2.75,0.5,0.0,4.0,4.25,0.5,0.5,0.5,0.25,0.75,0.25,0.0,0.25,0.27,0.83,2.39,306.76,-8.7,46.8
1.14,0.25,0.25,0.75,1.25,0.0,0.0,0.25,0.0,0.25,0.5,0.75,0.75,0.0,-0.23,1.08,2.33,99.44,15.6,-1.9,1.25,0.75,0.0,3.25,2.75,0.75,0.25,0.5,0.25,1.0,0.5,0.0,0.0,0.08,0.7,2.08,193.75,-6.0,38.3
1.16,0.25,0.5,0.5,1.25,0.0,0.0,0.25,0.0,0.25,0.25,0.75,0.75,0.0,0.02,1.58,2.08,87.48,15.9,4.1,0.75,0.5,0.5,2.75,2.75,1.0,0.25,0.75,0.25,0.5,0.75,0.0,0.0,0.27,0.39,1.77,106.1,-5.6,35.4
1.18,0.25,0.5,0.75,1.25,0.0,0.0,0.25,0.0,0.25,0.5,0.75,0.75,0.0,0.58,2.08,1.58,77.76,15.5,3.1,0.25,0.75,0.5,2.25,2.25,0.75,0.25,0.5,0.5,1.0,0.75,0.0,0.0,0.77,-0.11,1.58,54.36,-4.6,26.4
1.2,0.25,0.5,0.5,1.25,0.0,0.0,0.25,0.0,0.0,0.5,1.25,0.25,0.25,1.39,2.7,0.89,73.21,13.1,0.0,0.0,0.75,0.75,1.25,2.25,0.75,0.25,0.25,0.25,1.0,0.75,0.0,0.0,0.89,-1.05,1.27,26.95,-3.7,25.4
1.22,0.0,0.5,0.5,1.25,0.0,0.0,0.25,0.0,0.25,0.5,0.75,0.0,0.0,2.02,4.14,0.64,69.03,14.1,15.1,0.25,0.75,0.75,1.25,1.75,0.5,0.25,0.25,0.25,0.5,0.75,0.0,0.0,0.58,-0.67,0.7,0.0,-7.4,32.0
1.24,0.25,0.5,0.5,1.25,0.0,0.0,0.25,0.0,0.0,0.5,1.0,0.0,0.0,2.14,3.58,0.45,60.77,15.2,17.6,0.0,0.75,0.5,1.25,2.5,0.5,0.25,0.25,0.25,0.25,0.75,0.0,0.0,0.52,-0.67,1.27,0.0,-5.0,35.0
1.26,0.5,0.25,0.5,1.25,0.0,0.0,0.25,0.0,0.0,0.5,0.75,1.0,0.25,0.39,1.08,1.77,62.84,13.7,-9.3,0.0,0.75,0.75,1.25,2.75,1.25,0.25,0.0,0.25,0.5,0.75,0.0,0.0,0.14,-0.36,0.83,6.39,-3.5,35.3
1.28,0.5,0.5,0.5,1.25,0.0,0.0,0.25,0.0,0.25,1.25,1.25,0.75,0.75,-1.86,-1.98,1.45,76.84,8.5,-21.6,0.0,0.75,0.75,1.25,2.5,1.0,0.25,0.0,0.25,0.5,0.75,0.25,0.0,0.02,-0.3,0.64,33.57,-4.6,30.5
1.3,0.0,0.25,0.5,0.0,0.0,0.0,0.0,0.0,0.25,1.25,0.0,2.0,1.5,-0.17,-0.67,1.2,87.55,0.4,-75.0,0.0,0.75,0.75,1.25,2.25,1.0,0.25,0.0,0.5,0.75,0.75,0.0,0.0,0.33,-0.17,0.7,64.0,-4.4,28.7
1.32,0.0,0.5,0.5,0.5,0.0,0.0,0.0,0.0,0.5,3.25,0.0,4.0,4.0,0.77,0.33,0.52,136.97,-2.3,-77.7,0.25,0.75,0.75,1.25,2.5,1.25,0.25,0.25,0.25,0.75,0.75,0.0,0.0,0.45,-0.05,0.7,99.66,-3.4,31.3
1.34,0.0,0.5,0.75,1.25,0.0,0.0,0.0,0.0,0.5,5.75,0.0,5.0,5.25,-0.42,0.33,2.7,204.53,-2.8,-73.8,0.25,0.5,0.75,1.25,2.25,1.0,0.25,0.0,0.25,0.5,0.75,0.0,0.0,0.58,0.2,0.64,115.68,-5.4,33.8
1.36,0.0,0.25,0.0,0.0,0.0,0.0,0.25,4.25,0.5,5.75,0.0,5.0,6.0,-0.17,0.33,1.14,271.22,-8.5,-82.4,0.0,0.75,0.75,1.25,2.25,0.5,0.25,0.25,0.25,1.0,0.75,0.25,0.0,0.58,0.33,0.77,124.57,-4.6,21.2
1.38,0.25,0.5,0.25,0.5,0.0,0.0,0.5,4.5,0.5,5.75,3.0,5.0,6.0,-0.05,0.08,1.02,338.98,-4.8,-73.2,0.0,0.75,0.75,1.25,2.25,0.75,0.25,0.0,0.25,0.0,0.75,0.25,0.0,0.52,0.39,1.02,123.58,-7.1,36.5
1.4,0.0,0.5,0.0,1.25,0.0,0.25,0.25,4.25,0.0,5.75,4.0,5.0,6.0,-0.17,0.08,0.95,394.96,-4.8,-72.7,0.0,0.75,0.75,1.25,2.25,1.0,0.25,0.0,0.25,0.5,0.5,0.25,0.0,0.45,0.52,1.27,124.47,-4.7,32.8
1.42,0.0,0.5,0.0,1.25,0.25,0.75,0.5,5.0,0.5,6.25,0.0,5.0,6.0,-0.17,0.08,0.95,423.86,-7.5,-66.9,0.0,0.75,0.75,1.0,2.25,0.75,0.25,0.0,0.25,0.0,0.75,0.5,0.0,0.52,0.64,1.33,122.07,-6.8,30.9
1.44,0.25,0.5,0.0,1.5,0.0,1.25,0.75,5.25,1.5,6.5,0.0,5.0,6.0,-0.17,0.08,0.95,444.08,-6.5,-62.3,0.0,0.75,0.75,1.25,1.5,0.75,0.25,0.0,0.25,0.5,0.75,0.0,0.25,0.64,0.77,1.33,119.61,-6.0,26.4
1.46,0.0,0.5,0.0,2.0,0.0,0.75,0.75,5.75,1.5,6.5,5.75,5.0,6.25,-0.17,0.08,0.95,491.48,-3.6,-65.1,0.0,0.25,0.75,1.25,1.25,0.75,0.25,0.0,0.25,1.0,0.25,0.25,0.25,0.7,0.83,1.45,112.13,-4.0,14.2
1.48,1.25,0.5,0.25,2.5,1.25,1.5,0.5,5.75,1.75,6.5,6.0,5.0,6.25,-0.11,0.08,0.95,550.26,-2.2,-51.6,0.0,0.5,0.75,1.25,1.75,0.75,0.25,0.0,0.25,0.75,0.75,0.0,0.25,0.77,0.83,1.52,109.97,-4.7,21.5
1.5,0.0,0.5,0.5,3.25,1.75,2.0,0.75,5.75,1.5,6.5,6.0,4.75,6.0,-0.17,0.08,0.95,599.36,-2.9,-49.6,0.0,0.75,0.75,1.25,1.75,0.75,0.25,0.0,0.5,0.5,0.75,0.0,0.25,0.64,0.95,1.7,110.55,-5.8,25.4
1.52,0.0,0.5,0.0,3.25,1.75,2.0,0.25,6.0,2.0,5.75,5.75,4.0,5.75,-0.17,0.08,0.95,613.21,-3.5,-49.1,0.0,0.75,0.75,1.25,1.5,0.75,0.25,0.0,0.25,0.5,0.75,0.0,0.25,0.52,1.27,2.02,111.65,-6.0,26.4
1.54,1.0,0.5,1.25,3.5,2.75,2.25,0.0,6.0,2.25,5.75,5.5,4.0,5.25,-0.11,0.08,0.95,617.08,-1.3,-37.3,0.0,0.75,0.75,1.25,1.0,0.75,0.25,0.0,0.25,0.25,0.75,0.0,0.0,0.2,1.39,1.58,106.68,-8.6,33.9
1.56,1.25,0.5,1.5,3.25,2.75,2.75,0.75,6.0,2.25,5.0,5.5,3.0,5.0,-0.11,0.08,0.95,593.2,-0.8,-32.0,0.0,0.75,0.75,1.25,0.5,0.75,0.25,0.0,0.25,0.0,0.5,0.25,0.0,-0.23,2.02,1.39,96.91,-11.0,35.2
1.58,1.25,0.5,1.75,5.25,3.25,2.75,1.0,5.75,2.25,4.5,4.25,3.0,4.0,-0.11,0.08,0.95,576.79,0.7,-21.3,0.0,0.75,0.5,1.5,1.5,0.5,0.25,0.0,0.25,0.0,0.75,0.0,0.0,-0.92,2.2,1.14,93.9,-8.8,40.0
1.6,1.25,0.5,0.0,6.25,5.0,3.0,1.0,5.75,2.25,4.0,4.0,2.0,3.25,-0.11,0.08,0.95,560.3,-0.7,-13.6,0.0,0.75,0.75,1.25,1.75,0.5,0.25,0.0,0.25,0.0,0.75,0.0,0.0,-1.73,3.27,0.83,94.03,-9.1,40.7
1.62,1.25,0.75,2.0,7.25,5.25,3.25,1.25,5.75,2.0,3.0,3.75,2.0,2.5,-0.11,0.08,0.95,563.51,2.2,-2.4,0.0,0.5,0.5,1.25,1.0,1.0,0.25,0.0,0.25,0.5,0.75,0.0,0.0,-2.55,3.95,0.39,95.04,-5.0,25.4
1.64,1.5,0.75,2.0,8.25,5.75,3.5,1.25,5.5,2.0,3.0,3.25,1.5,2.0,-0.11,0.08,0.95,572.43,2.7,4.4,0.0,0.5,0.5,1.25,1.25,0.25,0.25,0.0,0.25,0.75,0.75,0.75,0.5,0.14,0.7,0.39,99.33,-5.7,-1.7
1.66,1.5,1.0,2.25,8.5,6.5,4.0,1.25,5.5,1.75,2.25,2.75,1.0,1.5,-0.11,0.08,0.95,583.19,3.0,12.7,0.0,0.5,0.5,1.25,0.5,0.75,0.25,0.5,0.25,3.0,0.75,2.5,2.75,0.7,-0.05,1.95,136.02,1.9,-50.0
1.68,2.0,1.25,1.5,9.5,6.75,4.0,1.25,5.0,1.5,2.0,2.25,1.0,1.75,-0.17,0.08,0.95,586.58,3.2,16.6,0.0,0.5,0.5,1.0,0.25,0.0,0.25,1.25,0.25,6.5,2.0,5.5,6.25,-0.67,0.02,1.64,223.23,3.7,-75.6
1.7,1.75,1.5,2.25,9.75,7.25,4.25,1.25,5.0,1.5,1.25,0.5,1.0,1.25,-0.11,0.08,0.95,581.93,3.8,25.9,0.0,0.0,0.0,0.0,0.0,0.0,0.25,3.0,0.75,7.75,4.0,6.25,6.5,0.45,0.33,2.83,312.47,5.4,-85.8
1.72,2.25,1.75,2.5,11.0,8.0,4.5,1.5,5.0,1.25,1.25,1.5,1.0,1.25,-0.11,0.08,0.95,607.43,4.7,26.9,0.0,0.0,0.5,1.25,2.25,0.75,0.25,3.75,1.0,7.75,5.75,5.75,7.25,0.2,0.39,1.08,436.44,3.9,-64.7
1.74,2.5,1.75,2.5,11.0,8.0,4.75,1.5,4.75,0.75,1.25,1.5,1.0,1.25,-0.17,0.08,0.95,632.07,4.8,28.5,0.0,0.75,0.75,1.25,2.25,2.75,0.0,5.25,1.0,8.5,6.5,6.0,8.0,-0.05,0.14,0.89,579.18,4.7,-57.5
1.76,2.75,1.75,3.75,12.0,8.5,5.0,1.5,4.25,0.5,1.25,1.75,1.0,1.25,-0.11,0.14,0.95,677.08,6.1,31.3,0.0,0.75,1.0,1.25,2.5,2.5,0.25,5.5,1.0,8.5,6.25,5.75,8.0,0.2,0.08,0.95,686.55,4.5,-55.8
1.78,2.75,1.75,3.75,12.0,8.5,5.0,1.5,4.25,0.5,1.25,1.5,1.0,1.25,-0.11,0.14,0.95,704.65,6.1,31.9,0.0,0.75,0.75,1.25,2.75,3.25,0.25,5.75,1.25,8.5,6.5,5.5,8.0,0.14,0.08,0.95,757.58,5.0,-54.0
1.8,2.75,2.0,3.75,13.0,9.0,5.0,1.0,2.75,0.0,1.25,1.5,1.0,1.25,-0.17,0.14,0.95,727.61,6.8,36.2,0.0,0.75,0.75,1.25,3.5,3.5,0.25,6.25,1.25,8.5,6.25,5.5,7.75,0.14,0.08,0.95,797.46,5.2,-50.9
1.82,2.75,2.5,4.25,13.5,9.5,5.0,1.0,2.5,0.0,1.25,1.5,1.0,1.25,-0.17,0.14,0.95,747.48,7.3,38.0,0.5,0.75,0.75,1.5,4.25,4.0,0.5,6.25,1.25,8.5,6.75,5.25,7.75,0.08,0.08,0.95,826.04,4.7,-45.9
1.84,3.0,3.0,4.0,14.0,9.5,5.25,1.0,2.5,0.0,1.25,1.5,1.0,1.0,-0.17,0.14,0.95,770.04,7.4,39.8,0.5,0.75,0.75,1.5,4.25,4.5,0.75,6.25,1.5,8.25,6.25,4.75,7.25,0.14,0.08,0.95,826.95,4.8,-43.1
1.86,2.25,3.25,4.0,14.5,9.75,5.0,1.0,2.5,0.0,1.25,1.25,1.0,1.25,-0.17,0.14,1.02,786.71,7.1,39.4,0.5,0.75,0.75,1.75,4.25,5.25,0.75,6.25,1.5,7.75,6.0,4.0,6.75,0.14,0.08,0.95,807.57,5.1,-39.0
1.88,2.75,3.25,4.75,14.5,9.5,5.0,0.75,2.5,0.0,1.0,1.25,1.0,1.25,-0.17,0.2,1.02,802.92,8.0,40.8,0.75,0.75,1.0,2.75,4.75,5.5,1.0,6.25,1.5,7.5,5.25,3.25,6.25,0.14,0.08,0.95,768.37,4.4,-31.2
1.9,3.5,3.25,2.25,14.5,8.75,4.75,0.25,1.5,0.0,1.0,0.5,1.0,0.75,-0.17,0.2,1.02,775.11,7.7,46.0,1.25,0.75,1.25,3.0,4.75,5.75,1.0,6.25,1.5,7.75,5.0,3.0,6.0,0.14,0.08,0.95,725.15,3.9,-27.7
1.92,0.0,3.25,5.25,14.5,9.5,4.25,0.0,2.0,0.0,1.0,0.75,1.0,1.0,-0.17,0.2,1.02,748.34,7.5,41.0,1.25,0.75,1.25,4.0,6.0,6.0,1.0,6.25,1.5,7.0,4.5,2.5,5.25,0.14,0.08,0.95,693.15,3.5,-19.6
1.94,6.5,3.25,4.75,14.5,9.5,3.5,0.0,2.25,0.25,0.0,1.25,0.75,0.5,-0.23,0.27,1.08,753.37,11.6,50.8,1.25,0.75,2.25,4.25,6.5,6.25,1.5,6.25,1.5,6.75,4.0,1.75,4.75,0.14,0.08,0.95,683.1,2.5,-12.8
1.96,6.0,3.25,5.0,14.0,7.5,2.75,0.0,1.75,0.25,0.75,0.75,1.0,0.0,-0.23,0.27,1.14,737.52,12.9,51.6,1.25,0.75,2.75,5.25,6.5,6.5,1.5,6.25,1.5,6.0,3.75,1.25,3.75,0.14,0.08,0.95,676.72,1.5,-5.8
1.98,6.5,2.0,3.75,12.0,8.25,1.5,0.0,1.0,0.25,0.75,1.0,1.0,0.5,-0.36,0.33,1.27,696.53,13.1,49.4,1.25,1.0,3.5,6.0,7.5,6.5,1.75,6.0,1.75,5.5,3.25,1.0,3.5,0.14,0.08,0.95,687.87,0.2,0.8
2.0,6.75,1.75,1.75,10.5,7.5,0.75,0.0,1.75,0.5,0.5,0.0,1.0,0.25,-0.48,0.39,1.52,613.23,12.5,51.5,1.25,1.5,3.5,6.75,8.0,7.0,2.0,5.5,1.25,4.75,2.75,1.25,2.75,0.14,0.08,0.95,703.0,-0.3,7.7
2.02,5.75,1.25,0.25,7.25,4.0,0.75,0.0,0.0,0.5,0.75,0.0,0.0,0.25,-1.17,0.83,2.89,464.26,14.2,59.7,2.0,1.5,3.5,7.75,8.25,7.0,2.0,5.5,1.25,3.5,2.0,0.5,2.5,0.14,0.08,0.95,713.64,-1.4,16.4
2.04,3.25,0.5,0.25,4.75,0.0,0.0,0.0,1.5,0.25,0.25,0.0,0.0,0.25,-0.67,1.08,2.7,300.84,16.1,48.6,2.0,1.5,4.0,8.25,8.5,7.5,2.0,5.25,1.25,4.0,2.0,0.75,1.75,0.14,0.08,0.95,730.3,-1.9,18.4
2.06,0.75,0.5,0.25,1.25,0.0,0.0,0.0,0.0,0.0,0.5,0.0,0.0,0.25,0.02,0.33,2.33,161.1,14.6,40.9,2.75,1.5,4.75,9.75,9.25,7.25,2.5,4.25,1.0,2.5,2.0,0.75,1.75,0.14,0.08,0.95,756.3,-4.4,26.2
2.08,0.0,0.5,0.25,3.25,0.0,0.0,0.0,0.0,0.25,0.25,0.75,0.0,0.0,-0.8,0.33,2.2,47.42,15.1,33.4,3.25,2.0,5.5,10.0,9.25,7.5,2.5,4.25,1.0,2.25,2.0,0.5,1.75,0.14,0.08,0.95,795.0,-5.3,29.4
2.1,0.0,0.0,0.25,0.75,0.0,0.0,0.0,0.0,0.25,0.5,0.0,0.0,0.0,-1.11,-0.55,1.83,0.0,10.3,7.7,3.75,2.5,5.75,11.0,9.75,7.5,2.5,3.25,1.0,2.25,2.0,0.75,1.5,0.14,0.08,0.95,841.38,-6.4,32.9
2.12,0.0,0.0,0.0,0.0,0.0,0.0,0.0,0.0,0.0,0.0,0.0,0.0,0.0,-0.98,-0.48,0.77,0.0,0.0,0.0,3.75,2.5,5.75,11.5,11.0,7.5,2.5,3.0,1.0,2.0,1.5,0.25,1.75,0.14,0.08,0.95,884.23,-6.3,36.1
2.14,1.0,0.0,0.0,3.0,0.0,0.0,2.5,0.0,2.0,0.0,0.0,0.0,0.0,-0.92,-1.42,0.58,0.0,20.6,31.7,4.5,2.5,6.0,12.0,11.0,7.75,2.5,3.0,0.75,2.25,0.75,0.25,1.0,0.14,0.14,0.95,916.56,-6.9,40.6
2.16,0.0,0.0,0.0,0.0,0.0,0.0,2.5,0.0,2.0,1.25,0.0,0.25,0.0,-0.67,-0.86,1.02,0.0,9.7,-35.3,5.0,2.5,6.5,13.0,11.0,7.75,2.5,2.25,0.25,2.0,0.0,0.25,1.0,0.08,0.14,0.95,936.41,-8.0,45.5
2.18,0.0,0.0,0.5,1.0,0.0,0.0,0.0,0.0,0.5,0.5,0.0,0.0,0.0,-0.36,-0.3,0.58,0.0,14.0,13.7,5.0,2.5,7.0,13.0,12.0,7.75,2.5,2.0,0.5,1.75,0.0,0.0,1.0,0.08,0.14,0.95,956.36,-8.2,47.0
2.2,0.5,0.0,0.5,1.25,0.0,0.0,0.25,0.0,0.5,0.5,0.0,0.0,0.25,-0.36,-0.3,0.39,0.0,15.5,19.4,5.5,2.5,7.0,14.5,12.0,7.75,2.5,1.5,0.25,1.5,0.75,0.25,1.0,0.08,0.14,0.95,984.37,-9.0,47.1
2.22,0.0,0.0,0.5,0.5,0.0,0.0,0.25,0.0,0.0,0.0,0.0,0.0,0.25,-0.61,-0.11,0.58,0.0,20.5,25.9,5.75,3.0,7.25,13.0,12.0,7.5,2.0,1.5,0.25,0.0,0.75,0.25,0.75,0.08,0.14,0.95,986.22,-9.9,51.8
2.24,1.0,0.25,0.5,0.0,0.0,0.0,0.25,0.0,0.25,0.25,0.0,0.0,0.25,-0.73,0.02,0.58,0.0,21.3,36.7,5.75,1.0,7.0,15.0,11.5,7.5,1.75,0.5,0.25,0.75,0.0,0.0,0.0,0.08,0.14,1.02,962.26,-10.5,55.1
2.26,0.5,0.5,0.5,0.25,0.0,0.0,0.25,0.0,0.0,0.5,0.0,0.0,0.25,-0.67,0.2,0.83,11.41,15.0,30.5,6.5,3.0,8.0,15.0,13.0,7.25,2.0,1.25,0.25,0.5,0.0,0.0,0.75,0.08,0.2,1.02,983.15,-10.6,54.4
2.28,0.5,0.5,0.5,0.25,0.0,0.0,0.25,0.0,0.0,0.5,0.0,0.0,0.25,-0.48,0.33,0.95,32.25,15.0,30.5,5.75,3.25,8.25,15.0,11.0,7.25,1.75,1.25,0.25,0.0,0.25,0.0,0.75,0.08,0.2,1.02,979.0,-11.2,54.8
2.3,0.0,0.0,0.5,0.0,0.0,0.0,0.25,0.0,0.0,0.5,0.0,0.0,0.25,-0.42,0.45,1.08,31.87,8.7,-22.5,7.0,3.25,8.0,16.0,13.0,6.75,1.0,0.0,0.25,0.5,0.25,0.0,0.0,0.14,0.2,1.08,1001.33,-11.9,59.0
2.32,0.0,0.0,0.25,0.25,0.0,0.0,0.5,0.0,0.0,0.5,0.0,0.0,0.25,-0.42,0.58,1.27,26.55,7.0,-18.8,7.5,3.0,7.75,15.0,12.0,5.75,1.0,0.75,0.25,0.75,0.5,0.0,0.75,0.14,0.27,1.14,998.28,-11.9,55.0
2.34,0.5,0.5,0.25,1.0,0.0,0.0,0.25,0.0,0.25,0.5,0.0,0.0,0.0,-0.42,0.7,1.39,33.35,15.7,40.9,7.0,2.75,7.0,15.0,11.0,4.0,1.0,0.5,0.25,0.0,0.75,0.0,0.75,0.14,0.33,1.2,959.27,-13.3,56.7
2.36,0.5,0.25,0.5,1.0,0.0,0.0,0.25,0.0,0.25,0.5,0.0,0.0,0.25,-0.36,0.77,1.45,39.53,15.4,26.6,6.5,2.5,5.25,12.5,10.0,2.5,0.75,0.5,0.5,0.75,0.5,0.0,0.0,0.27,0.39,1.27,851.09,-13.4,57.5
2.38,0.5,0.5,0.25,1.0,0.0,0.0,0.25,0.0,0.0,0.5,0.0,0.0,0.0,-0.48,0.7,1.58,42.35,16.0,47.6,4.5,1.0,0.25,7.5,8.25,1.0,0.75,0.75,0.25,0.0,0.75,0.0,0.25,0.45,0.58,1.83,635.42,-9.8,54.0
2.4,0.5,0.25,0.25,1.0,0.0,0.0,0.25,0.0,0.25,0.5,0.0,0.0,0.25,-0.55,0.77,1.83,50.77,13.6,23.8,2.75,0.75,0.0,5.0,4.25,0.0,0.25,0.0,0.0,0.0,0.0,0.0,0.25,0.58,1.02,2.27,393.75,-12.5,62.6
2.42,0.5,0.5,0.5,0.75,0.0,0.0,0.25,0.0,0.25,0.5,0.0,0.0,0.25,-0.55,1.08,2.14,55.48,15.1,29.7,1.25,1.0,0.0,4.0,4.25,0.25,0.5,0.5,0.5,0.75,0.0,0.0,0.0,-0.11,0.77,2.27,247.45,-7.2,47.4
2.44,0.5,0.25,0.25,1.0,0.0,0.0,0.25,0.0,0.25,0.5,0.0,0.5,0.25,-0.23,1.33,1.95,57.35,12.9,5.6,1.25,0.75,0.5,2.75,3.25,0.75,0.25,0.25,0.25,0.0,0.0,0.0,0.0,0.33,0.33,1.83,136.44,-9.0,57.4
2.46,0.25,0.0,0.25,0.5,0.0,0.0,0.25,0.0,0.25,0.5,0.0,0.5,0.25,0.27,1.77,2.14,54.52,10.2,-22.0,0.0,0.0,0.75,2.75,2.5,0.75,0.25,0.0,0.5,0.5,0.5,0.0,0.0,0.64,0.27,1.89,58.82,-6.8,34.2
2.48,0.25,0.0,0.0,0.5,0.0,0.0,0.25,0.0,0.0,0.5,0.0,0.5,0.25,1.02,2.45,1.52,46.94,6.6,-30.1,0.5,0.5,0.5,1.75,3.0,0.75,0.25,0.25,0.25,0.0,0.75,0.0,0.0,0.58,-2.23,-0.48,15.14,-6.4,42.1
2.5,0.25,0.25,0.5,0.5,0.0,0.0,0.25,0.0,0.0,0.5,0.0,0.75,0.25,1.39,2.89,0.27,45.63,12.4,-10.9,0.0,0.75,0.75,1.5,2.5,0.75,0.25,0.25,0.25,0.75,0.25,0.0,0.0,0.27,-1.17,0.7,0.0,-4.0,36.3
2.52,0.5,0.25,0.5,1.0,0.0,0.0,0.25,0.0,0.0,0.25,0.5,0.5,0.5,1.83,3.95,0.14,51.89,14.4,0.0,0.0,0.75,0.75,1.5,2.5,0.75,0.25,0.25,0.25,0.0,0.25,0.0,0.0,0.27,-0.36,0.7,0.0,-6.0,47.4
2.54,0.5,0.5,0.25,1.25,0.0,0.0,0.25,0.0,0.25,0.75,0.75,0.25,0.25,3.33,3.64,2.52,63.71,11.6,3.0,0.0,0.75,0.75,1.25,2.75,0.75,0.25,0.25,0.25,0.0,0.5,0.0,0.0,0.08,-0.36,0.33,0.0,-5.4,43.5
2.56,0.75,0.5,0.5,1.25,0.0,0.0,0.0,0.25,0.25,1.25,0.5,1.0,0.75,-0.8,-0.42,0.77,82.62,7.9,-16.6,0.0,0.75,0.75,1.25,2.5,0.5,0.25,0.0,0.5,0.5,0.25,0.0,0.25,0.2,-0.48,0.45,8.49,-5.4,34.5
2.58,0.0,0.5,0.25,1.25,0.0,0.0,0.0,0.0,0.0,1.25,0.0,2.0,1.5,-0.42,-0.67,1.7,97.63,2.2,-49.5,0.0,0.75,0.5,1.75,0.25,0.5,1.0,0.0,0.0,0.75,0.5,0.0,0.25,0.27,-0.48,0.64,25.25,-9.3,23.4
2.6,0.0,0.5,0.25,0.0,0.0,0.0,0.0,0.0,0.5,3.5,0.75,4.0,4.0,0.64,0.33,0.83,149.06,-3.3,-85.4,0.0,0.75,0.75,1.25,2.25,0.75,0.25,0.0,0.25,0.5,0.75,0.25,0.0,0.33,-0.3,0.58,58.53,-5.7,29.5
2.62,0.0,0.0,0.0,0.0,0.0,0.0,0.0,0.0,0.5,5.75,0.0,4.0,0.0,-0.55,0.45,2.95,172.52,-4.7,-87.0,0.0,0.0,0.75,0.0,2.5,0.0,0.25,0.0,0.0,0.0,0.5,0.0,0.0,0.33,-0.05,0.64,69.59,-6.8,39.5
2.64,0.75,0.0,0.0,1.25,0.0,0.0,0.25,4.5,0.75,5.75,4.0,5.0,6.0,-0.17,0.27,1.08,267.58,-3.7,-71.3,0.0,0.75,0.75,1.25,1.75,0.5,0.25,0.0,0.25,0.0,0.5,0.0,0.0,0.33,0.08,0.7,82.47,-9.1,45.3
2.66,1.0,0.25,0.0,0.25,0.0,0.75,0.25,4.25,1.5,6.5,5.5,5.0,6.0,0.02,0.14,0.95,354.18,-3.5,-70.3,0.0,0.0,0.75,0.0,0.25,0.0,0.0,0.0,0.0,0.0,0.0,0.0,0.0,0.2,0.27,0.89,53.53,-26.9,58.9
2.68,0.25,0.5,0.0,0.0,0.0,1.5,0.25,4.5,1.5,6.5,5.75,5.25,6.0,-0.17,0.08,0.95,456.04,-4.7,-71.5,0.0,0.0,0.0,0.0,0.0,0.0,0.0,0.0,0.0,0.0,0.0,0.0,0.0,0.2,0.52,1.14,27.87,0.0,0.0
2.7,0.0,0.5,0.0,1.25,0.0,1.25,0.5,5.0,1.5,6.5,5.75,5.5,6.0,-0.17,0.08,0.95,527.04,-4.0,-67.8,0.0,0.75,0.0,1.25,0.25,0.75,0.0,0.0,0.25,0.25,0.0,0.0,0.0,0.14,0.77,1.27,19.99,-3.9,45.7
2.72,1.25,0.5,0.0,1.25,0.0,0.75,0.5,5.5,1.5,6.5,6.5,5.5,6.0,-0.11,0.08,0.95,579.88,-2.3,-63.4,0.0,0.75,0.75,1.25,2.25,0.5,0.5,0.0,0.25,0.25,0.0,0.0,0.0,0.08,0.95,1.33,43.04,-7.3,49.9
2.74,1.25,0.5,0.0,1.25,0.0,1.5,0.5,5.5,1.5,6.5,6.5,5.5,6.5,-0.17,0.08,0.95,607.05,-2.9,-62.2,0.0,0.0,0.0,0.0,0.25,1.0,0.0,0.0,0.25,0.25,0.0,0.25,0.0,0.33,1.08,1.33,42.0,10.7,-4.0
2.76,1.25,0.5,0.5,1.5,1.25,1.5,0.0,5.75,1.25,6.5,7.0,5.5,6.5,-0.11,0.08,0.95,633.87,-2.4,-56.2,0.0,0.75,0.75,1.0,1.75,0.5,0.25,0.0,0.0,0.25,0.75,0.25,0.25,0.33,1.2,1.08,66.68,-6.9,27.3
2.78,1.5,0.25,0.5,1.25,1.5,1.75,0.75,5.75,0.5,6.5,7.0,5.5,6.25,-0.11,0.08,0.95,648.91,-2.4,-54.9,0.0,0.0,0.5,1.5,2.5,0.75,0.25,0.25,0.25,0.25,0.0,0.0,0.0,-3.48,7.95,-2.73,80.79,-3.0,40.6
2.8,1.0,0.0,1.0,1.75,1.25,1.75,0.5,5.75,0.75,6.5,7.0,5.5,6.0,-0.11,0.08,0.95,648.28,-2.1,-55.3,0.0,0.0,1.0,1.75,0.5,0.5,0.25,0.0,0.25,0.0,0.0,0.0,0.0,-2.73,2.45,0.27,84.39,-15.2,49.0
2.82,1.25,0.5,0.0,1.5,1.5,1.5,0.5,5.5,1.5,6.5,7.0,5.5,6.0,-0.11,0.08,0.95,635.88,-2.4,-55.7,0.0,0.0,0.75,0.5,1.0,0.0,0.25,0.0,0.25,0.5,0.5,0.25,0.0,0.45,0.58,1.33,78.82,-10.1,7.7
2.84,1.25,0.5,0.0,1.25,1.25,1.5,0.75,5.5,1.0,6.5,6.75,5.5,6.0,-0.11,0.08,0.95,609.38,-2.7,-57.2,0.0,0.75,0.5,2.0,1.5,1.25,0.25,0.0,0.25,0.5,0.25,0.0,0.0,0.08,-0.36,1.27,93.35,-4.6,40.5
2.86,1.25,0.5,0.5,1.75,1.5,1.25,0.75,5.25,1.75,5.75,6.75,5.5,6.0,-0.11,0.08,0.95,589.44,-1.1,-53.1,0.0,0.75,0.75,3.0,3.75,1.0,0.25,0.0,0.0,0.0,0.0,0.5,0.0,0.02,-3.23,0.7,125.76,-6.2,48.9
2.88,1.25,0.5,0.5,2.0,1.25,0.75,0.25,5.0,1.5,5.75,6.5,5.25,6.0,-0.11,0.08,0.95,552.15,-1.1,-54.5,0.0,0.0,2.25,2.0,2.75,0.5,0.5,0.0,0.0,1.0,0.0,0.0,0.25,0.39,0.39,1.14,147.65,-9.6,36.7
2.9,1.25,0.5,0.75,2.25,1.25,1.5,0.5,5.0,1.75,5.75,6.5,5.25,6.0,-0.11,0.08,0.95,544.09,-0.9,-50.9,1.25,0.25,3.75,3.0,4.75,0.5,0.5,0.0,0.0,0.0,0.0,0.25,0.0,0.08,0.39,0.95,193.97,-15.2,56.8
2.92,1.25,0.5,0.75,2.0,2.0,1.5,0.75,5.0,2.5,5.75,6.5,5.5,6.0,-0.11,0.08,0.95,547.37,-0.6,-49.3,2.75,1.0,3.75,4.75,2.75,2.0,0.25,0.0,0.25,0.25,0.0,0.0,0.0,-0.05,0.08,1.2,235.92,-15.7,59.9
2.94,1.25,0.25,0.75,2.5,2.0,1.75,0.25,5.0,2.5,5.75,6.5,5.5,6.0,-0.11,0.08,0.95,555.78,-0.8,-48.8,5.75,1.5,5.25,6.0,4.75,0.5,1.0,0.0,0.25,0.5,0.75,0.0,0.0,0.08,0.2,1.33,299.78,-19.2,60.0
2.96,1.25,0.5,0.5,1.75,1.5,1.5,0.5,5.0,2.75,5.75,6.75,5.5,6.0,-0.11,0.08,0.95,558.95,-0.9,-52.6,7.5,1.25,6.25,5.5,4.25,0.5,0.5,0.0,0.0,0.5,0.0,0.0,0.0,0.14,0.2,1.33,364.65,-21.7,67.1
2.98,1.25,0.5,0.5,2.5,2.0,1.5,0.75,5.0,3.0,5.75,7.0,5.5,6.0,-0.11,0.08,0.95,569.61,-0.4,-48.8,8.25,2.5,6.0,4.0,3.0,0.5,0.25,0.0,0.25,0.5,0.75,0.0,0.25,0.08,0.27,1.33,419.64,-22.3,64.4
3.0,1.25,0.5,0.25,2.75,1.75,1.5,0.75,5.0,3.25,5.75,7.25,5.5,6.0,-0.11,0.08,0.95,578.79,-0.3,-49.6,8.25,2.5,6.0,4.0,0.5,0.25,0.25,0.0,0.25,0.0,0.25,0.25,0.0,0.02,0.27,1.27,418.34,-27.5,72.3
3.02,1.25,0.5,0.0,3.25,2.0,1.5,1.0,5.0,3.25,5.75,7.25,5.5,6.0,-0.11,0.02,0.95,591.71,-0.3,-48.0,8.75,2.5,5.0,3.0,0.0,0.0,0.25,0.0,0.25,0.5,0.5,0.0,0.0,0.02,0.33,1.2,395.15,-28.1,72.1
3.04,1.25,0.5,0.0,3.25,2.0,1.5,0.75,5.0,3.5,5.75,7.0,5.5,5.5,-0.11,0.02,0.95,596.22,-0.2,-47.2,8.5,2.5,3.5,2.75,0.0,0.0,0.25,0.0,0.25,0.5,0.5,0.0,0.0,-0.11,0.39,1.02,357.81,-27.3,72.9
3.06,1.25,0.5,0.5,3.25,2.5,1.5,1.0,5.0,3.75,4.75,6.75,5.0,5.0,-0.11,0.08,0.95,589.84,0.7,-41.7,8.5,2.5,3.25,2.0,0.0,0.0,0.25,0.0,0.25,0.25,0.5,0.5,0.5,-0.11,0.45,0.83,323.54,-26.5,65.5
3.08,1.25,0.5,2.0,3.25,2.75,1.5,1.25,5.0,3.75,4.5,6.5,5.0,4.5,-0.11,0.08,0.95,581.94,2.4,-35.8,8.5,2.25,2.75,1.25,0.0,0.0,0.25,0.0,0.25,0.5,0.75,0.0,0.25,-0.11,0.45,0.83,290.29,-27.1,69.4
3.1,1.25,0.5,1.25,3.5,2.75,1.25,1.5,4.75,3.75,4.75,6.5,4.0,4.0,-0.11,0.08,0.95,560.44,2.1,-34.6,8.5,2.25,2.0,1.5,0.0,0.0,0.25,0.0,0.0,0.0,0.75,0.0,0.5,-0.11,0.64,1.08,266.04,-27.3,73.1
3.12,0.0,0.5,0.5,3.0,2.5,1.25,1.5,4.5,3.5,3.25,6.25,4.0,3.75,-0.11,0.08,0.95,517.29,0.8,-40.8,8.25,1.5,1.25,1.5,0.0,0.5,0.5,0.0,0.25,0.0,0.75,0.0,0.75,-0.11,0.77,1.2,242.28,-24.8,65.2
3.14,0.5,0.5,1.25,5.25,2.75,1.5,1.5,4.25,3.25,3.0,5.5,3.0,2.5,-0.11,0.08,0.95,473.47,3.3,-23.1,7.75,1.75,1.0,1.5,0.0,0.0,0.25,0.0,0.25,0.25,0.5,0.0,0.5,-0.17,0.64,1.39,214.87,-25.9,69.5
3.16,1.25,0.5,1.5,6.5,3.75,1.5,1.75,4.0,2.75,1.25,4.0,2.0,1.5,-0.11,0.08,0.95,433.37,5.8,-2.4,7.0,1.25,0.75,1.25,0.0,0.0,0.25,0.0,0.25,0.0,0.75,0.0,0.25,-0.05,0.77,1.33,185.24,-27.3,71.1
3.18,1.25,0.5,3.0,7.5,5.25,1.5,2.25,3.0,1.75,1.25,3.25,1.25,1.25,-0.11,0.08,1.02,418.41,7.9,12.7,6.25,1.25,0.5,0.25,0.0,0.0,0.25,0.0,0.25,0.75,0.25,0.25,0.25,-0.3,0.58,-1.3,154.39,-24.6,62.3
3.2,0.5,0.75,0.0,8.25,5.25,1.5,2.25,2.5,0.5,0.25,2.5,1.0,1.25,-0.11,0.08,1.08,381.73,5.1,17.3,5.75,0.75,0.75,1.25,0.0,0.5,0.25,0.0,0.25,0.25,0.75,0.0,0.5,-2.61,0.58,-2.17,141.17,-22.9,57.2
3.22,3.0,1.25,4.75,8.25,5.5,0.5,1.75,2.5,0.5,1.25,2.25,1.0,1.0,-0.23,0.14,1.58,394.58,12.0,29.1,3.0,0.75,0.5,1.25,0.0,0.75,0.25,0.0,0.25,0.0,0.25,0.0,0.5,-1.67,2.2,-3.23,118.9,-18.8,55.4
3.24,4.5,0.75,4.75,8.25,5.25,0.75,1.25,2.25,0.5,0.5,2.25,1.0,1.0,-0.17,0.14,1.2,407.18,13.6,33.6,1.0,0.75,0.5,1.25,0.0,0.5,0.25,0.0,0.25,0.25,0.75,0.0,0.0,2.83,-1.55,-0.98,95.2,-15.8,39.5
3.26,0.0,1.0,4.25,7.25,4.0,0.0,0.75,2.5,0.0,1.0,2.25,1.0,1.25,-0.3,0.2,1.27,389.18,10.1,18.4,0.5,0.75,0.75,1.25,0.0,0.0,0.25,0.0,0.25,0.0,0.75,0.0,0.25,1.95,1.02,1.7,69.15,-19.1,33.3
3.28,6.25,0.5,3.75,7.0,2.0,0.25,0.0,1.5,0.0,1.0,1.75,1.0,0.75,-0.36,0.27,1.45,369.93,17.1,36.7,0.25,0.75,0.75,1.25,0.0,0.75,0.25,0.0,0.25,0.5,0.5,0.0,0.0,0.2,2.08,1.77,54.89,-11.2,32.2
3.3,7.25,0.0,2.25,5.25,0.0,0.0,0.0,2.25,0.5,1.25,1.75,1.25,0.25,-0.42,0.33,1.52,330.27,18.1,28.8,0.0,0.75,0.75,1.0,0.25,0.0,0.25,0.0,0.25,0.5,0.25,0.25,0.0,-0.36,7.7,2.33,42.53,-14.2,25.9
3.32,0.0,0.75,1.75,3.25,0.0,0.0,0.0,0.0,0.5,0.5,0.0,1.0,0.0,-0.3,0.58,1.83,247.27,18.1,27.3,0.5,1.0,0.75,0.75,0.5,0.5,0.25,0.0,0.25,0.5,0.75,0.0,0.25,-1.73,3.02,-2.92,49.7,-10.5,26.9
3.34,5.75,0.0,0.75,0.75,0.0,0.0,2.25,0.0,1.5,1.5,1.75,0.0,0.25,-0.42,0.64,1.77,194.28,21.2,24.8,0.25,0.75,0.75,1.0,0.5,0.75,0.25,0.0,0.25,0.5,0.75,0.0,0.0,-0.17,-2.73,-1.42,57.09,-9.5,28.6
3.36,0.0,0.0,0.0,0.0,0.0,0.0,0.25,0.0,0.5,1.25,0.0,0.5,0.0,-0.48,0.39,1.39,103.76,-2.2,-69.8,0.25,0.25,0.75,1.25,0.5,0.5,0.75,0.0,0.25,1.0,0.5,0.25,0.25,3.14,-5.61,-1.48,67.95,-8.6,8.2
3.38,5.0,0.5,0.5,1.25,0.0,0.0,0.0,0.0,0.25,1.0,1.5,1.0,1.0,-0.3,0.33,1.27,87.02,17.8,16.9,0.0,0.5,0.75,1.25,0.25,1.5,0.25,0.0,0.25,0.5,0.5,0.0,0.0,2.14,-2.67,0.64,74.04,-5.2,27.8
3.4,5.25,0.5,0.5,0.75,0.0,0.0,1.25,0.0,0.75,0.0,1.75,0.0,0.0,-0.42,0.27,1.2,71.62,26.4,47.9,0.0,0.75,0.75,1.25,0.25,0.5,0.25,0.0,0.25,0.5,0.5,0.0,0.25,1.08,-0.11,2.02,77.69,-9.7,23.3
3.42,0.0,0.0,0.5,0.0,0.0,0.0,0.25,0.0,0.5,0.0,1.25,0.0,0.0,-0.36,0.39,1.27,45.32,18.2,-32.3,0.0,0.5,0.75,1.0,0.25,0.5,0.25,0.0,0.0,0.25,0.5,0.25,0.0,-1.8,1.45,1.02,73.0,-11.8,26.4
3.44,0.0,0.0,0.0,0.0,0.0,0.0,0.0,0.0,0.0,0.0,0.0,0.0,0.0,-0.36,0.08,0.02,0.0,0.0,0.0,0.0,0.75,0.75,1.25,0.5,0.5,0.25,0.0,0.25,0.5,0.75,0.0,0.25,-1.55,1.89,0.64,77.01,-9.1,20.7
3.46,0.0,0.0,0.0,0.0,0.0,0.0,0.0,0.0,0.0,0.0,0.0,0.0,0.0,-0.11,-0.36,-0.3,0.0,0.0,0.0,0.0,0.0,0.75,0.0,0.25,0.5,0.25,0.0,0.25,0.25,0.25,0.0,0.25,-0.92,4.52,0.77,66.6,-7.4,2.6
3.48,0.0,0.0,0.0,0.0,0.0,0.0,0.0,0.0,0.0,0.0,0.0,0.0,0.0,-0.17,-0.17,0.52,0.0,0.0,0.0,0.0,0.75,0.75,1.25,0.5,0.5,0.25,0.0,0.25,0.0,0.25,0.25,0.25,-0.86,4.33,-0.61,70.74,-11.4,33.1
3.5,0.0,0.0,0.0,0.0,0.0,0.0,0.0,0.0,0.0,0.0,0.0,0.0,0.0,0.27,1.08,1.14,0.0,0.0,0.0,0.0,0.75,0.75,1.0,0.5,0.75,0.25,0.0,0.25,0.25,0.25,0.25,0.0,-0.42,1.89,-1.11,71.16,-9.4,33.8
3.52,0.0,0.0,0.0,0.0,0.0,0.0,0.0,0.0,0.0,0.0,0.0,0.0,0.0,2.27,0.83,-2.3,0.0,0.0,0.0,0.5,0.75,0.75,0.5,0.5,0.75,0.25,0.0,0.25,0.5,0.25,0.0,0.5,0.52,1.58,-0.48,78.59,-7.5,24.9
3.54,0.0,0.0,0.0,0.0,0.0,0.0,0.0,0.0,0.0,0.0,0.0,0.0,0.0,3.02,1.64,-2.23,0.0,0.0,0.0,0.0,0.5,0.75,1.0,0.5,0.75,0.25,0.0,0.25,0.25,0.5,0.0,0.5,0.27,1.39,-0.42,80.85,-7.0,18.2
3.56,0.0,0.0,0.0,0.0,0.0,0.0,0.0,0.0,0.0,0.0,0.0,0.0,0.0,1.64,1.95,-0.8,0.0,0.0,0.0,0.0,0.75,0.75,1.25,0.5,0.75,0.25,0.0,0.25,0.5,0.25,0.0,0.25,-0.17,1.27,0.2,84.89,-7.5,29.7
3.58,0.0,0.0,0.5,0.0,0.0,0.0,0.0,0.0,0.25,0.0,0.75,0.0,0.0,0.33,2.08,-3.36,0.0,20.5,-22.1,0.0,0.5,0.75,0.5,0.5,0.75,0.25,0.0,0.25,0.5,0.75,0.0,0.5,-0.42,0.83,-0.05,84.38,-5.1,5.4
3.6,0.0,0.0,0.25,0.0,0.0,0.0,0.0,0.0,0.0,0.0,0.0,0.5,0.0,-1.67,4.83,1.02,0.0,18.9,-51.5,0.0,0.25,0.75,0.75,0.25,0.25,0.25,0.0,0.25,0.25,0.75,0.0,0.5,-0.48,0.45,-0.23,78.23,-10.4,1.2
3.62,0.0,0.0,1.0,0.0,0.0,0.0,0.0,0.0,0.0,0.0,0.0,0.0,0.0,-0.48,1.33,-0.48,0.0,38.2,60.9,0.0,0.5,0.75,0.5,0.5,0.75,0.25,0.0,0.25,0.75,0.75,0.0,0.25,-0.36,0.45,-0.55,78.47,-5.0,7.2
3.64,0.0,0.0,0.5,0.25,0.0,0.0,3.0,0.0,2.5,0.0,0.0,0.0,0.0,0.14,-4.55,-1.73,27.41,21.5,-1.9,0.0,0.25,0.75,0.25,0.25,0.75,0.25,0.0,0.25,0.5,0.25,0.0,0.75,-0.36,0.58,-0.61,73.24,-2.6,-4.7
3.66,0.0,0.0,0.0,0.0,0.0,0.0,4.25,0.0,2.5,0.0,0.0,0.0,0.0,0.08,-2.36,0.2,55.38,21.3,-8.7,0.0,1.0,0.75,1.0,1.0,0.0,0.25,0.0,0.0,0.0,0.25,0.0,0.5,-0.48,0.7,-0.48,75.79,-11.5,40.9
3.68,0.0,0.0,0.75,0.0,0.0,0.0,1.5,0.0,0.0,0.0,1.0,0.0,0.0,-0.67,-1.98,-0.3,61.96,25.7,-2.5,0.0,0.75,0.75,1.0,0.5,0.75,0.25,0.0,0.25,0.0,0.5,0.0,0.25,-0.48,0.7,-0.36,76.81,-9.5,33.7
3.7,0.0,0.5,0.5,1.25,0.0,0.0,0.25,0.0,0.25,0.75,0.75,0.75,0.25,-0.61,-2.11,-1.3,73.45,10.5,-13.4,0.0,0.5,0.75,0.5,0.5,0.5,0.25,0.0,0.25,0.5,0.25,0.0,0.5,-0.36,0.7,-0.36,77.86,-6.0,12.6
3.72,0.0,0.5,0.5,1.25,0.0,0.0,0.25,0.0,0.25,0.75,0.75,1.0,0.25,-0.48,-0.8,-0.17,81.77,10.4,-17.8,0.0,0.5,0.75,0.75,0.5,0.75,0.25,0.0,0.25,0.0,0.0,0.5,0.5,-0.11,0.77,-0.42,74.87,-7.5,17.1
3.74,0.25,0.5,0.5,1.25,0.0,0.0,0.25,0.0,0.25,0.0,0.75,0.0,0.25,0.08,1.27,0.77,83.09,17.3,23.3,0.0,0.5,0.75,0.5,0.5,0.25,0.25,0.0,0.25,0.75,0.75,0.0,0.5,0.02,0.89,-0.42,74.94,-6.7,-1.3
3.76,0.0,0.0,0.25,0.0,0.0,0.0,0.0,0.0,0.0,0.0,0.75,0.0,0.25,-0.23,1.45,0.77,66.72,11.4,-54.3,0.0,0.5,0.75,0.75,0.25,0.5,0.25,0.0,0.25,0.5,0.75,0.0,0.5,0.08,0.95,-0.42,75.43,-7.6,4.0
3.78,0.0,0.0,0.25,0.0,0.0,0.0,0.0,0.0,0.0,0.0,1.0,0.0,0.25,-0.11,1.83,0.64,51.53,11.3,-57.7,0.0,0.5,0.75,0.25,0.5,0.5,0.25,0.0,0.25,0.0,0.5,0.0,0.0,-0.05,0.89,-0.42,69.21,-11.5,34.0
3.8,0.0,0.25,0.25,1.25,0.0,0.0,0.0,0.0,0.25,0.5,0.0,1.0,0.0,-0.05,2.14,0.64,45.98,11.1,-11.0,0.0,0.75,0.75,0.5,0.5,0.5,0.25,0.0,0.25,0.5,0.25,0.0,0.5,-0.17,0.89,-0.42,70.32,-6.3,17.3
3.82,0.0,0.0,0.5,0.0,0.0,0.0,0.25,0.5,0.0,0.0,1.0,0.0,0.25,0.39,1.58,0.33,40.09,9.3,-36.4,0.0,0.75,0.75,0.5,0.5,1.0,0.25,0.0,0.25,0.5,0.75,0.25,0.5,-0.23,0.95,-0.42,77.18,-4.5,5.7
3.84,0.0,0.0,0.25,0.0,0.0,0.0,0.0,0.0,0.25,0.0,0.5,0.0,0.0,0.89,1.27,-0.23,31.97,18.3,-30.7,0.0,0.5,0.75,0.0,0.5,0.75,0.25,0.0,0.25,0.5,0.5,0.0,0.25,-0.3,0.95,-0.42,76.38,-4.4,10.6
3.86,0.0,0.0,0.25,0.0,0.0,0.0,0.25,0.0,0.25,0.0,0.75,0.0,0.0,0.58,1.33,-0.17,23.4,18.2,-33.6,0.0,0.25,0.75,0.25,0.5,0.75,0.25,0.0,0.25,0.25,0.5,0.0,0.5,-0.36,0.89,-0.42,73.52,-4.8,5.8
3.88,0.5,0.25,0.5,1.25,0.0,0.0,0.25,0.0,0.0,0.5,1.0,0.5,0.25,0.33,1.39,-0.36,34.79,14.1,-2.4,0.0,0.5,0.75,0.5,0.5,0.5,0.25,0.0,0.25,0.5,0.5,0.0,0.5,-0.36,0.83,-0.42,72.78,-6.2,8.1
3.9,0.25,0.5,0.5,1.25,0.0,0.0,0.25,0.0,0.25,0.5,0.75,0.0,0.25,0.2,1.52,-0.55,48.39,13.6,12.2,0.0,0.5,0.75,0.0,0.5,0.5,0.25,0.0,0.25,0.5,0.5,0.0,0.25,-0.36,0.83,-0.42,67.83,-6.1,9.2
3.92,0.25,0.0,0.5,0.5,0.0,0.0,0.0,0.0,0.5,0.25,0.75,0.25,0.25,0.27,1.2,-0.67,56.02,14.0,-19.6,0.0,0.75,0.75,0.0,0.5,1.0,0.25,0.0,0.25,0.5,0.75,0.0,0.75,-0.36,0.83,-0.36,72.28,-2.2,0.5
3.94,0.5,0.5,0.5,1.25,0.0,0.0,0.0,0.0,0.25,0.5,0.75,0.25,0.0,0.52,1.33,-0.36,63.57,15.5,16.4,0.0,0.5,0.75,0.0,0.5,0.75,0.25,0.0,0.25,0.5,0.5,0.0,0.75,-0.3,0.83,-0.42,73.7,-2.4,-2.5
3.96,0.5,0.25,0.5,1.25,0.0,0.0,0.0,0.0,0.25,0.5,1.0,0.25,0.25,0.7,1.27,-0.3,70.35,13.8,0.5,0.0,0.5,0.75,0.25,0.5,0.5,0.25,0.0,0.25,0.5,0.75,0.0,0.5,-0.17,0.83,-0.36,75.39,-5.8,1.0
3.98,0.5,0.5,0.5,1.25,0.0,0.0,0.0,0.0,0.25,0.5,1.25,0.5,0.25,0.77,1.2,-0.23,80.48,13.4,-3.1,0.0,0.5,0.75,0.25,0.5,0.25,0.25,0.0,0.25,0.5,0.25,0.0,0.25,-0.17,0.77,-0.3,69.66,-8.4,16.5
4.0,0.5,0.5,0.5,1.25,0.0,0.0,0.0,0.0,0.25,0.25,0.75,0.5,0.0,0.7,0.95,-0.23,83.94,16.8,14.6,0.0,0.5,0.75,0.0,0.5,1.0,0.25,0.0,0.25,0.0,0.5,0.0,0.5,-0.17,0.83,-0.3,68.02,-4.2,14.8
4.02,0.5,0.5,0.5,1.25,0.0,0.0,0.0,0.0,0.25,0.5,0.75,0.5,0.0,0.64,0.77,-0.17,85.61,15.1,9.8,0.0,0.0,0.75,0.25,0.5,0.5,0.25,0.0,0.25,0.5,0.5,0.0,0.25,-0.17,0.89,-0.17,62.71,-5.9,0.1
4.04,0.5,0.25,0.5,1.0,0.0,0.0,0.0,0.0,0.25,0.25,0.75,0.5,0.0,0.64,0.89,0.08,79.13,17.1,6.3,0.5,0.5,0.75,0.25,0.5,0.5,0.25,0.0,0.25,0.5,0.5,0.0,0.5,-0.17,1.02,-0.17,66.0,-8.3,13.9
4.06,0.5,0.25,0.5,1.25,0.0,0.0,0.25,0.0,0.25,0.25,0.75,0.5,0.0,0.7,1.02,0.27,77.62,17.5,10.0,0.0,0.5,0.75,0.25,0.5,0.75,0.25,0.0,0.25,0.0,0.5,0.0,0.25,-0.23,0.95,-0.23,65.32,-7.8,24.6
4.08,0.5,0.5,0.5,1.25,0.0,0.0,0.25,0.0,0.25,0.5,0.75,0.75,0.25,0.7,1.02,0.14,79.82,13.8,-0.9,0.0,0.75,0.5,0.5,0.5,0.5,0.25,0.0,0.25,0.25,0.5,0.0,0.5,-0.3,0.95,-0.17,69.76,-6.0,14.9
4.1,0.5,0.5,0.5,1.25,0.0,0.0,0.25,0.0,0.25,0.25,0.75,0.5,0.25,0.52,1.02,-0.11,79.82,15.6,8.3,0.0,0.75,0.5,0.0,0.5,0.5,0.25,0.0,0.25,0.25,0.5,0.0,0.5,-0.42,0.95,-0.17,66.9,-4.5,9.3
4.12,0.5,0.5,0.5,1.25,0.0,0.0,0.25,0.0,0.0,0.5,0.75,0.5,0.25,0.39,0.95,-0.17,79.09,14.2,6.4,0.0,0.5,0.5,0.25,0.5,0.5,0.25,0.0,0.25,0.25,0.5,0.0,0.5,-0.48,1.02,-0.17,65.15,-4.8,6.6
4.14,0.5,0.25,0.5,1.25,0.0,0.0,0.0,0.0,0.25,0.25,0.75,0.5,0.25,0.39,0.83,-0.17,77.71,15.3,2.7,0.0,0.75,0.5,0.0,0.5,0.5,0.25,0.0,0.25,0.25,0.25,0.0,0.0,-0.55,1.14,-0.23,59.54,-6.9,34.9
4.16,0.5,0.25,0.5,1.25,0.0,0.0,0.0,0.0,0.25,0.5,0.75,0.5,0.25,0.39,0.7,-0.17,76.86,13.7,-1.3,0.0,0.75,2.0,0.0,1.25,0.5,0.0,0.0,0.25,0.25,0.75,0.0,0.5,-0.48,1.14,-0.23,73.03,-11.2,24.0
4.18,0.5,0.25,0.5,1.25,0.0,0.0,0.0,0.0,0.25,0.5,0.75,0.5,0.0,0.33,0.64,-0.17,72.91,15.3,4.8,0.0,0.5,0.5,0.25,1.25,0.5,0.25,0.0,0.25,0.25,0.5,0.0,0.25,-0.42,1.08,-0.17,76.57,-4.3,22.1
4.2,0.75,0.5,0.5,1.0,0.0,0.0,0.0,0.0,0.25,0.25,0.75,0.5,0.25,0.27,0.7,-0.17,73.38,16.0,9.5,0.0,0.25,0.5,0.0,0.5,0.5,0.25,0.5,0.25,0.25,0.5,0.0,0.25,-0.23,0.95,-0.05,75.13,-1.7,-1.4
4.22,0.5,0.25,0.5,1.25,0.0,0.0,0.0,0.0,0.25,0.25,0.75,0.5,0.25,0.27,0.7,-0.23,72.41,15.3,2.7,0.0,0.75,0.5,0.25,0.5,0.5,0.25,0.0,0.25,0.25,0.75,0.0,0.0,-0.3,1.02,-0.23,70.46,-8.1,22.8
4.24,0.5,0.5,0.5,1.25,0.0,0.0,0.0,0.0,0.25,0.25,1.25,0.25,0.0,0.33,0.77,-0.3,74.29,16.6,11.9,0.0,0.5,0.5,0.5,0.5,0.5,0.25,0.0,0.25,0.25,0.25,0.0,0.25,-0.3,1.02,-0.36,65.26,-6.5,23.6
4.26,0.5,0.5,0.5,1.25,0.0,0.0,0.0,0.0,0.25,0.5,0.75,0.0,0.25,0.39,0.77,-0.36,73.74,14.2,16.2,0.0,0.75,0.5,0.0,0.5,0.5,0.25,0.0,0.25,0.25,0.75,0.0,0.5,-0.23,0.89,-0.23,63.29,-4.8,4.4
4.28,0.5,0.5,0.5,1.25,0.0,0.0,0.0,0.0,0.25,0.25,0.75,0.5,0.0,0.39,0.77,-0.36,73.77,16.8,14.6,0.0,0.5,0.5,0.0,0.5,0.0,0.25,0.0,0.25,0.25,0.25,0.0,0.5,-0.23,0.83,-0.23,56.71,-7.6,4.5
4.3,0.5,0.25,0.5,1.25,0.0,0.0,0.0,0.0,0.25,0.25,0.75,0.5,0.25,0.45,0.77,-0.3,71.99,15.3,2.7,0.0,0.25,0.5,0.0,0.5,0.5,0.25,0.0,0.0,0.0,0.25,0.0,0.5,-0.23,0.83,-0.17,51.93,-3.5,12.0
4.32,0.5,0.25,0.75,1.0,0.0,0.0,0.0,0.0,0.25,0.25,0.0,0.5,0.25,0.45,0.77,-0.23,67.58,17.6,17.8,0.0,0.25,0.5,0.0,0.5,0.5,0.25,0.0,0.25,0.25,0.5,0.0,0.5,-0.3,0.83,-0.11,48.41,-3.3,-4.1
4.34,0.5,0.25,0.5,1.0,0.0,0.0,0.0,0.0,0.25,0.25,0.0,0.5,0.25,0.45,0.7,-0.23,62.85,16.1,14.6,0.0,0.5,0.5,0.0,0.5,0.25,0.25,0.0,0.0,0.0,0.25,0.25,0.5,-0.3,0.89,-0.17,45.93,-6.9,7.6
4.36,0.5,0.25,0.5,1.0,0.0,0.0,0.0,0.0,0.25,0.25,0.0,0.25,0.25,0.39,0.7,-0.17,57.41,16.7,24.1,0.0,0.5,0.5,0.0,0.5,0.0,0.25,0.0,0.25,0.25,0.5,0.0,0.5,-0.36,0.95,-0.17,45.75,-7.8,-1.4
4.38,0.5,0.25,0.5,1.0,0.0,0.0,0.0,0.0,0.25,0.25,0.0,0.25,0.25,0.33,0.7,-0.17,53.82,16.7,24.1,0.0,0.5,0.5,0.5,0.5,0.5,0.25,0.0,0.25,0.0,0.5,0.0,0.25,-0.42,1.02,-0.17,49.22,-8.3,23.9
4.4,0.25,0.25,0.25,1.25,0.0,0.0,0.0,0.0,0.25,0.25,0.0,0.0,0.25,0.33,0.77,-0.17,48.77,13.9,29.5,0.0,0.5,0.5,0.25,0.5,0.0,0.25,0.0,0.25,0.0,0.5,0.25,0.0,-0.42,1.02,-0.17,47.92,-14.5,19.6
4.42,0.5,0.25,0.75,1.25,0.0,0.0,0.0,0.0,0.25,0.25,0.0,0.0,0.25,0.33,0.77,-0.05,50.21,18.8,38.6,0.0,0.5,0.5,0.0,0.5,0.5,0.25,0.0,0.25,0.25,0.5,0.0,0.25,-0.36,1.02,-0.23,51.71,-5.2,11.5
4.44,0.5,0.0,0.5,1.25,0.0,0.0,0.0,0.0,0.25,0.25,0.0,0.5,0.25,0.39,0.77,-0.05,50.92,16.5,11.7,0.0,0.5,0.5,0.0,0.5,0.5,0.25,0.0,0.25,0.0,0.5,0.25,0.25,-0.3,1.02,-0.23,52.89,-7.0,9.0
4.46,0.5,0.25,0.5,1.25,0.0,0.0,0.0,0.0,0.25,0.25,0.25,0.25,0.25,0.39,0.83,-0.11,54.66,16.3,20.0,0.0,0.25,0.5,0.0,0.5,0.5,0.25,0.0,0.25,0.25,0.75,0.0,0.5,-0.23,0.95,-0.3,54.69,-3.8,-8.8
4.48,0.5,0.25,0.5,1.25,0.0,0.0,0.25,0.0,0.25,0.25,0.0,0.25,0.25,0.45,0.89,-0.11,56.42,17.2,26.6,0.0,0.25,0.5,0.0,0.5,0.5,0.25,0.0,0.25,0.25,0.25,0.0,0.0,-0.23,0.89,-0.23,51.45,-5.8,22.5
4.5,0.75,0.25,0.5,1.0,0.0,0.0,0.0,0.0,0.25,0.25,0.0,0.5,0.25,0.45,0.89,-0.17,58.93,17.3,19.8,0.0,0.5,0.5,0.0,0.5,0.5,0.25,0.0,0.25,0.0,0.25,0.25,0.25,-0.23,0.83,-0.23,51.58,-6.7,15.4
4.52,0.5,0.25,0.5,1.0,0.0,0.0,0.0,0.0,0.0,0.25,0.0,0.25,0.25,0.45,0.95,-0.17,56.24,17.1,29.1,0.0,0.5,0.5,0.25,0.5,1.0,0.25,0.0,0.25,0.25,0.5,0.0,0.0,-0.23,0.89,-0.17,55.81,-3.9,25.3
4.54,0.5,0.25,0.5,1.0,0.0,0.0,0.0,0.0,0.0,0.25,0.0,0.25,0.25,0.45,1.02,-0.17,54.01,17.1,29.1,0.0,0.5,0.5,0.0,0.5,0.5,0.25,0.0,0.25,0.25,0.75,0.25,0.25,-0.36,0.95,-0.11,59.12,-5.8,-1.5
4.56,0.5,0.25,0.0,1.0,0.0,0.0,0.0,0.0,0.25,0.5,0.0,0.0,0.25,0.52,1.33,-0.3,50.14,10.5,20.2,0.0,0.75,0.5,0.0,0.5,0.0,0.25,0.0,0.25,0.25,0.25,0.0,0.25,-0.42,1.02,-0.17,57.28,-9.9,22.5
4.58,0.5,0.25,0.5,1.0,0.0,0.0,0.0,0.0,0.25,0.25,0.0,0.25,0.25,0.39,1.39,-0.36,50.33,16.7,24.1,0.0,0.75,0.5,0.0,0.5,0.5,0.25,0.0,0.25,0.0,0.25,0.0,0.25,-0.55,1.02,-0.17,56.4,-7.0,31.8
4.6,0.5,0.25,0.5,1.0,0.0,0.0,0.0,0.0,0.25,0.5,0.0,0.0,0.25,0.27,1.33,-0.3,51.03,14.8,26.6,0.0,0.0,0.5,0.0,1.0,0.5,0.25,0.0,0.0,0.0,0.25,0.0,0.25,-0.61,1.08,-0.11,51.45,-2.9,23.9
4.62,0.5,0.0,0.5,0.25,0.0,0.0,0.0,0.0,0.0,0.0,0.0,0.75,0.25,0.27,0.83,-0.17,46.15,19.4,-7.9,0.0,0.5,0.5,0.0,0.5,0.5,0.25,0.0,0.25,0.0,0.75,0.25,0.25,-0.61,1.02,-0.11,52.32,-7.3,3.4
4.64,0.5,0.25,0.5,1.25,0.0,0.0,0.0,0.0,0.0,0.5,0.0,0.5,0.25,0.27,0.83,-0.23,49.89,14.4,15.1,0.0,0.5,0.5,0.0,0.5,0.5,0.25,0.0,0.25,0.25,0.25,0.0,0.25,-0.55,0.95,-0.11,52.24,-4.8,18.0
4.66,0.5,0.25,0.5,1.0,0.0,0.0,0.0,0.0,0.25,0.25,0.0,0.75,0.25,0.27,0.89,-0.23,52.16,15.7,6.5,0.0,0.5,0.5,0.0,1.0,0.0,0.25,0.0,0.25,0.25,0.5,0.0,0.25,-0.55,0.83,-0.11,54.8,-7.6,15.3
4.68,0.5,0.25,0.5,1.25,0.0,0.0,0.0,0.0,0.25,0.5,0.0,1.0,0.25,0.27,0.95,-0.23,60.73,13.7,-1.3,0.0,0.25,0.5,0.25,0.5,0.5,0.25,0.0,0.25,0.0,0.5,0.25,0.25,-0.48,0.83,-0.17,55.06,-7.4,6.0
4.7,0.5,0.25,0.5,1.0,0.0,0.0,0.0,0.0,0.25,0.5,0.0,1.0,0.25,0.27,1.02,-0.23,64.89,13.4,-5.0,0.0,0.5,0.5,0.0,0.5,0.5,0.25,0.0,0.25,0.25,0.25,0.0,0.25,-0.48,0.77,-0.17,54.76,-4.8,18.0
4.72,0.5,0.5,0.5,1.0,0.0,0.0,0.25,0.0,0.25,0.25,0.0,1.0,0.25,0.27,1.02,-0.23,70.09,15.6,5.9,0.0,0.5,0.5,0.0,0.5,0.25,0.25,0.0,0.25,0.0,0.0,0.0,0.25,-0.55,0.83,-0.17,50.0,-9.0,35.2
4.74,0.5,0.5,0.5,1.0,0.0,0.0,0.0,0.0,0.0,0.25,0.0,0.75,0.25,0.33,1.02,-0.23,68.83,15.7,15.7,0.25,0.75,0.5,0.0,0.5,0.5,0.25,0.0,0.25,0.25,0.5,0.0,0.25,-0.61,0.89,-0.17,52.98,-7.5,22.3
4.76,0.5,0.25,0.5,0.75,0.0,0.0,0.0,0.0,0.25,0.25,0.0,0.75,0.25,0.33,0.95,-0.17,65.86,15.6,2.7,0.0,0.25,0.5,0.25,0.5,0.0,0.25,0.0,0.25,0.0,0.25,0.0,0.25,-0.55,0.89,-0.17,48.3,-12.7,20.2
4.78,0.5,0.25,0.5,1.0,0.0,0.0,0.25,0.0,0.25,0.25,0.0,0.75,0.25,0.33,0.95,-0.17,64.16,16.2,7.1,0.0,0.25,0.5,0.0,0.5,0.25,0.25,0.0,0.25,0.25,0.5,0.0,0.0,-0.67,0.89,-0.17,47.27,-8.8,12.7
4.8,0.75,0.0,0.5,1.0,0.0,0.0,0.25,0.0,0.0,0.75,0.0,0.75,0.5,0.27,0.95,-0.17,65.5,12.2,-7.1,0.0,0.0,0.5,0.25,0.5,0.5,0.25,0.0,0.25,0.25,0.25,0.0,0.0,-0.67,0.89,-0.23,44.49,-6.3,18.7
4.82,0.5,0.5,0.5,1.0,0.0,0.0,0.25,0.0,0.25,0.5,0.0,0.75,0.25,0.27,0.95,-0.17,68.02,14.2,7.8,0.0,0.5,0.5,0.0,0.5,0.5,0.25,0.0,0.25,0.5,0.5,0.0,0.25,-0.48,0.95,-0.3,48.53,-3.8,5.6
4.84,0.5,0.25,0.5,1.0,0.0,0.0,0.0,0.0,0.25,0.5,0.0,1.0,0.25,0.27,0.95,-0.23,69.49,13.4,-5.0,0.0,0.25,0.5,0.0,0.5,0.0,0.25,0.0,0.25,0.25,0.25,0.0,0.25,-0.36,0.89,-0.36,45.41,-9.3,6.5
4.86,0.5,0.25,0.5,1.0,0.0,0.0,0.25,0.0,0.25,0.25,0.0,1.0,0.25,0.27,0.95,-0.23,69.48,15.7,0.1,0.0,0.25,0.5,0.0,0.5,0.5,0.25,0.0,0.0,0.5,0.75,0.0,0.5,-0.36,0.83,-0.3,49.47,-1.9,-11.3
4.88,0.5,0.25,0.5,1.0,0.0,0.0,0.25,0.0,0.0,0.25,0.0,1.0,0.25,0.27,0.95,-0.23,65.7,16.0,2.6,0.0,0.25,0.5,0.0,0.5,0.5,0.25,0.0,0.25,0.25,0.25,0.0,0.25,-0.42,0.83,-0.23,48.78,-4.1,10.9
4.9,0.5,0.25,0.25,1.0,0.0,0.0,0.25,0.0,0.25,0.25,0.0,0.75,0.25,0.33,0.95,-0.17,62.19,14.6,3.3,0.0,0.5,0.5,0.0,0.5,0.25,0.25,0.0,0.0,0.0,0.25,0.0,0.0,-0.42,0.83,-0.3,45.58,-11.5,48.2
4.92,0.75,0.25,0.5,1.0,0.0,0.0,0.25,0.0,0.0,0.25,0.0,0.75,0.25,0.27,0.95,-0.17,60.93,17.6,15.5,0.0,0.0,0.5,0.0,0.5,0.0,0.25,0.0,0.0,0.25,0.5,0.0,0.5,-0.36,0.89,-0.36,41.29,-6.4,-18.8
4.94,0.5,0.25,0.5,0.75,0.0,0.0,0.25,0.0,0.25,0.25,0.0,0.75,0.25,0.27,0.89,-0.17,59.47,16.1,3.5,0.0,0.25,0.5,0.0,1.0,0.5,0.25,0.0,0.25,0.0,0.5,0.0,0.25,-0.42,0.95,-0.42,45.46,-4.8,18.2
4.96,0.5,0.25,0.5,1.0,0.0,0.0,0.25,0.0,0.0,0.5,0.0,0.75,0.25,0.27,0.89,-0.17,60.09,14.4,4.7,0.0,0.25,0.5,0.0,0.5,0.25,0.25,0.0,0.25,0.25,0.0,0.0,0.25,-0.42,0.95,-0.42,43.98,-6.1,17.2
4.98,0.5,0.25,0.5,1.0,0.0,0.0,0.25,0.0,0.25,0.25,0.0,0.75,0.25,0.27,0.89,-0.17,60.78,16.2,7.1,0.25,0.5,0.5,0.0,0.5,0.5,0.25,0.0,0.25,0.25,0.75,0.0,0.5,-0.48,0.95,-0.36,51.96,-6.0,3.8
5.0,0.5,0.25,0.5,0.75,0.0,0.0,0.25,0.0,0.25,0.25,0.0,0.5,0.25,0.27,0.89,-0.17,58.89,16.6,11.8,0.0,0.5,0.5,0.25,0.5,0.5,0.25,0.0,0.25,0.0,0.75,0.25,0.5,-0.55,0.89,-0.3,59.29,-6.6,0.0
5.02,0.5,0.0,0.5,1.25,0.0,0.0,0.25,0.0,0.25,0.25,0.0,0.75,0.25,0.27,0.89,-0.17,58.69,16.5,4.5,0.0,0.75,0.5,0.25,0.5,0.75,0.25,0.0,0.5,0.0,0.5,0.0,0.25,-0.55,0.83,-0.23,66.1,-6.5,23.2
5.04,0.5,0.25,0.5,1.25,0.0,0.0,0.0,0.0,0.25,0.25,0.0,0.75,0.25,0.27,0.95,-0.17,59.89,15.8,9.8,0.0,0.25,0.5,0.0,0.5,0.25,0.25,0.0,0.25,0.25,0.25,0.0,0.0,-0.55,0.77,-0.3,59.42,-8.6,21.4
5.06,0.5,0.0,0.5,1.0,0.0,0.0,0.0,0.0,0.0,0.5,0.0,0.75,0.25,0.33,1.08,-0.17,58.92,13.9,-2.8,0.0,0.5,0.5,0.0,1.25,1.0,0.25,0.0,0.25,0.0,0.5,0.0,0.5,-0.55,0.77,-0.23,65.69,-1.0,19.3
5.08,0.5,0.0,0.5,0.75,0.0,0.0,0.25,0.0,0.25,0.5,0.25,0.75,0.25,0.33,1.08,-0.17,59.22,14.0,-12.8,0.0,0.5,0.5,0.0,0.5,0.5,0.25,0.0,0.25,0.0,0.75,0.0,0.25,-0.55,0.77,-0.3,62.89,-7.1,11.7
5.1,0.5,0.25,0.5,1.0,0.0,0.0,0.25,0.0,0.0,0.25,0.5,0.75,0.25,0.33,1.14,-0.17,61.05,15.8,0.2,0.0,0.25,0.5,0.0,1.0,0.0,0.25,0.0,0.25,0.0,0.25,0.0,0.25,-0.55,0.77,-0.3,59.06,-8.9,23.6
5.12,0.5,0.25,0.5,0.75,0.0,0.0,0.25,0.0,0.0,0.5,0.75,0.75,0.25,0.33,1.08,-0.17,63.93,13.6,-11.7,0.0,0.5,0.5,0.0,0.5,0.5,0.25,0.0,0.25,0.0,0.25,0.25,0.25,-0.55,0.83,-0.3,55.72,-6.7,15.4
5.14,0.5,0.25,0.5,1.0,0.0,0.0,0.25,0.0,0.25,0.25,0.25,1.0,0.25,0.33,1.08,-0.17,66.66,15.5,-3.9,0.0,0.5,0.5,0.0,0.5,0.5,0.25,0.0,0.25,0.25,0.25,0.0,0.25,-0.55,0.89,-0.3,54.17,-4.8,18.0
5.16,0.0,0.0,0.5,0.25,0.0,0.0,0.0,0.0,0.25,0.25,0.0,0.75,0.25,0.33,1.02,-0.17,57.51,11.6,-40.4,0.0,0.25,0.5,0.0,0.5,0.5,0.25,0.0,0.25,0.0,0.0,0.25,0.5,-0.55,0.89,-0.3,50.18,-4.1,4.7
5.18,0.5,0.0,0.25,1.0,0.0,0.0,0.0,0.0,0.25,0.25,0.75,1.0,0.25,0.27,1.02,-0.11,58.04,13.2,-23.2,0.0,0.25,0.5,0.0,0.5,0.0,0.25,0.0,0.25,0.25,0.0,0.0,0.0,-0.55,0.89,-0.3,42.53,-12.1,31.8
5.2,0.5,0.25,0.5,1.0,0.0,0.0,0.0,0.0,0.25,0.25,0.5,0.75,0.25,0.27,0.95,-0.11,58.45,15.1,-2.7,0.0,0.5,0.5,0.0,0.5,0.75,0.25,0.0,0.25,0.0,0.0,0.25,0.5,-0.55,0.89,-0.23,45.08,-2.9,13.7
5.22,0.5,0.0,0.5,1.0,0.0,0.0,0.0,0.0,0.0,0.25,0.0,0.75,0.25,0.27,0.95,-0.11,57.97,16.2,2.6,0.0,0.0,0.5,0.0,0.5,0.5,0.25,0.0,0.25,0.25,0.25,0.0,0.25,-0.55,0.89,-0.23,41.4,-3.3,2.5
5.24,0.5,0.25,0.5,0.75,0.0,0.0,0.0,0.0,0.0,0.25,0.0,1.0,0.25,0.27,0.95,-0.17,57.09,15.3,-2.3,0.0,0.25,0.5,0.0,0.5,0.0,0.25,0.0,0.25,0.0,0.25,0.25,0.25,-0.55,0.89,-0.23,40.66,-11.8,3.1
5.26,0.5,0.25,0.5,0.75,0.0,0.0,0.0,0.0,0.0,0.25,0.5,0.75,0.25,0.27,0.95,-0.17,57.01,15.2,-4.6,0.0,0.0,0.25,0.0,0.5,0.0,0.25,0.0,0.25,0.25,0.25,0.0,0.25,-0.55,0.89,-0.23,35.54,-5.1,-12.8
5.28,0.5,0.25,0.25,1.0,0.0,0.0,0.25,0.0,0.25,0.25,0.75,0.75,0.25,0.27,0.95,-0.17,60.08,14.0,-9.7,0.0,0.0,0.5,0.0,1.0,0.0,0.25,0.0,0.25,0.0,0.25,0.0,0.25,-0.55,0.89,-0.23,36.09,-8.6,15.9
5.3,0.5,0.0,0.5,0.75,0.0,0.0,0.25,0.0,0.0,0.5,0.75,0.75,0.25,0.27,0.95,-0.17,61.67,13.7,-18.6,0.0,0.0,0.5,0.0,0.5,0.0,0.25,0.0,0.25,0.25,0.0,0.0,0.25,-0.55,0.89,-0.23,31.1,-8.7,4.5
5.32,0.5,0.25,0.5,1.0,0.0,0.0,0.25,0.0,0.0,0.5,0.75,0.75,0.25,0.27,0.95,-0.17,66.58,13.8,-7.8,0.0,0.0,0.5,0.0,0.5,0.0,0.25,0.0,0.0,0.25,0.5,0.0,0.25,-0.55,0.89,-0.23,32.35,-8.8,-8.1
5.34,0.25,0.0,0.5,1.0,0.0,0.0,0.25,0.0,0.0,0.25,1.25,0.75,0.25,0.27,0.95,-0.17,67.57,14.1,-23.3,0.0,0.0,0.5,0.0,0.5,0.5,0.25,0.0,0.25,0.25,0.5,0.0,0.0,-0.55,0.89,-0.23,34.91,-5.6,6.2
5.36,0.5,0.25,0.5,1.0,0.0,0.0,0.25,0.0,0.0,0.5,0.0,1.0,0.25,0.27,0.95,-0.17,68.22,14.1,-2.0,0.0,0.25,0.75,0.0,0.5,0.5,0.25,0.0,0.0,0.25,0.25,0.0,0.25,-0.55,0.83,-0.23,39.54,-6.4,19.4
5.38,0.5,0.0,0.5,1.0,0.0,0.0,0.25,0.0,0.25,0.25,0.0,0.75,0.25,0.27,0.95,-0.17,65.24,16.4,0.6,0.5,0.25,0.5,0.0,0.5,0.5,0.25,0.0,0.25,0.25,0.5,0.0,0.5,-0.55,0.83,-0.23,48.8,-7.0,8.0
5.4,0.5,0.25,0.5,1.0,0.0,0.0,0.25,0.0,0.25,0.25,0.0,0.75,0.25,0.27,0.95,-0.17,64.75,16.2,7.1,0.0,0.0,0.5,0.0,0.5,0.0,0.25,0.0,0.25,0.0,0.5,0.0,0.5,-0.55,0.89,-0.23,48.55,-9.2,-15.0
5.42,0.5,0.0,0.5,1.0,0.0,0.0,0.0,0.0,0.0,0.25,0.0,0.75,0.25,0.27,0.95,-0.17,58.53,16.2,2.6,0.0,0.5,0.5,0.0,0.5,0.25,0.25,0.0,0.25,0.0,0.25,0.0,0.25,-0.55,0.89,-0.23,49.17,-9.1,25.3
5.44,0.5,0.25,0.5,0.5,0.0,0.0,0.25,0.0,0.0,0.25,0.75,0.75,0.25,0.27,1.02,-0.17,58.22,15.3,-12.3,0.0,0.5,0.5,0.0,0.5,0.0,0.25,0.0,0.25,0.25,0.75,0.25,0.25,-0.55,0.89,-0.23,49.32,-9.7,-6.3
5.46,0.25,0.25,0.5,0.5,0.0,0.0,0.25,0.0,0.0,0.5,0.25,0.5,0.25,0.27,1.02,-0.17,54.52,12.6,-8.1,0.0,0.0,0.5,0.0,0.5,0.25,0.25,0.0,0.25,0.25,0.5,0.0,0.25,-0.55,0.89,-0.23,48.75,-6.3,-7.2
5.48,0.25,0.25,0.5,1.0,0.0,0.0,0.25,0.0,0.0,0.25,0.0,0.5,0.25,0.27,1.02,-0.17,52.22,15.7,13.2,0.75,0.25,0.5,0.0,0.5,0.5,0.25,0.0,0.25,0.25,0.25,0.0,0.0,-0.55,0.89,-0.23,52.37,-11.9,38.1
5.5,0.0,0.0,0.5,0.0,0.0,0.0,0.25,0.0,0.25,0.5,0.0,0.5,0.25,0.27,1.02,-0.17,43.56,9.1,-44.7,0.0,0.25,0.5,0.0,0.5,0.0,0.25,0.0,0.0,0.25,0.25,0.0,0.25,-0.55,0.89,-0.23,48.34,-9.0,11.5
5.52,0.0,0.0,0.75,0.5,0.0,0.0,0.25,0.0,0.0,0.5,0.0,0.75,0.25,0.27,1.02,-0.17,40.78,12.9,-23.0,0.0,0.0,0.5,0.0,0.5,0.75,0.25,0.0,0.25,0.0,0.5,0.0,0.25,-0.55,0.89,-0.23,47.92,-3.5,5.3
5.54,0.0,0.0,0.5,0.5,0.0,0.0,0.25,0.0,0.0,0.25,0.0,0.5,0.25,0.27,1.02,-0.17,34.9,13.6,-16.9,0.0,0.25,0.5,0.0,1.0,0.75,0.25,0.0,0.25,0.25,0.5,0.0,0.25,-0.55,0.89,-0.23,52.28,-1.9,13.2
5.56,0.0,0.0,0.5,0.75,0.0,0.0,0.25,0.0,0.0,0.5,0.0,0.75,0.25,0.27,0.95,-0.17,35.81,11.0,-23.1,0.0,0.5,0.5,0.0,0.5,0.5,0.25,0.0,0.25,0.25,0.25,0.0,0.25,-0.55,0.83,-0.23,54.14,-4.8,18.0
5.58,0.25,0.0,0.5,0.5,0.0,0.0,0.25,0.0,0.0,0.25,0.0,0.75,0.25,0.27,0.95,-0.17,35.85,15.1,-15.5,0.0,0.25,0.5,0.0,1.0,0.5,0.25,0.0,0.25,0.0,0.25,0.25,0.25,-0.55,0.83,-0.23,56.47,-4.6,15.6
5.6,0.25,0.25,0.5,0.5,0.0,0.0,0.25,0.0,0.0,0.25,0.0,0.75,0.25,0.27,0.95,-0.17,39.17,14.8,-5.4,0.0,0.5,0.5,0.0,0.5,0.0,0.25,0.0,0.25,0.25,0.25,0.0,0.0,-0.55,0.89,-0.23,51.87,-12.1,28.3
5.62,0.5,0.5,0.5,0.5,0.0,0.0,0.25,0.0,0.0,0.5,0.0,0.75,0.25,0.27,0.95,-0.17,45.36,13.9,3.7,0.0,0.25,0.5,0.0,1.0,0.5,0.25,0.0,0.25,0.25,0.25,0.0,0.5,-0.55,0.89,-0.23,54.49,-1.8,9.2
5.64,0.25,0.0,0.25,0.75,0.0,0.0,0.25,0.0,0.0,0.25,0.0,1.0,0.25,0.27,0.95,-0.17,46.42,12.7,-23.8,0.25,0.5,0.5,0.0,0.5,0.25,0.25,0.0,0.25,0.25,0.25,0.0,0.25,-0.55,0.89,-0.23,53.84,-9.1,22.7
5.66,0.25,0.0,0.5,0.0,0.0,0.0,0.25,0.0,0.0,0.25,0.0,0.75,0.25,0.27,0.95,-0.17,43.08,14.5,-33.7,0.0,0.75,0.5,0.0,0.5,0.5,0.25,0.0,0.25,0.0,0.5,0.0,0.0,-0.55,0.83,-0.23,54.93,-9.0,35.1
5.68,0.25,0.0,0.5,0.75,0.0,0.0,0.25,0.0,0.0,0.5,0.0,0.75,0.25,0.27,0.95,-0.17,43.36,12.8,-14.2,0.0,0.5,0.5,0.0,0.5,0.0,0.25,0.0,0.25,0.25,0.5,0.0,0.25,-0.55,0.83,-0.23,52.43,-9.7,7.9
5.7,0.25,0.0,0.5,1.0,0.0,0.0,0.25,0.0,0.0,0.25,0.0,0.75,0.25,0.27,0.95,-0.17,45.5,15.4,-3.4,0.0,0.25,0.5,0.0,0.5,0.25,0.25,0.0,0.25,0.25,0.25,0.0,0.25,-0.55,0.83,-0.23,49.83,-6.5,8.9
5.72,0.25,0.25,0.5,0.75,0.0,0.0,0.25,0.0,0.0,0.25,0.0,0.75,0.25,0.27,0.95,-0.17,48.37,15.0,-0.1,0.0,0.25,0.5,0.0,0.5,0.5,0.25,0.0,0.25,0.0,0.25,0.25,0.25,-0.55,0.89,-0.23,47.05,-6.2,8.1
5.74,0.5,0.25,0.5,0.5,0.0,0.0,0.25,0.0,0.0,0.5,0.0,0.75,0.25,0.27,0.95,-0.17,52.07,14.0,-3.4,0.0,0.25,0.5,0.0,1.0,0.5,0.25,0.0,0.25,0.25,0.5,0.0,0.5,-0.55,0.89,-0.23,52.27,-2.3,4.1
5.76,0.5,0.25,0.5,0.25,0.0,0.0,0.25,0.0,0.0,0.25,0.0,0.75,0.25,0.27,1.02,-0.17,51.26,16.3,-2.7,0.0,0.25,0.5,0.0,0.5,0.25,0.25,0.0,0.25,0.0,0.25,0.0,0.25,-0.55,0.89,-0.23,48.61,-8.8,17.5
5.78,0.25,0.25,0.5,1.0,0.0,0.0,0.25,0.0,0.0,0.25,0.0,1.0,0.25,0.27,1.02,-0.17,53.92,14.8,-3.4,0.0,0.0,0.5,0.0,0.5,0.0,0.25,0.0,0.25,0.25,0.25,0.0,0.25,-0.55,0.89,-0.23,43.79,-8.9,-4.2
5.8,0.25,0.25,0.5,1.0,0.0,0.0,0.25,0.0,0.25,0.25,0.0,1.0,0.25,0.27,0.95,-0.17,56.52,14.6,-5.6,0.0,0.5,0.5,0.0,0.5,0.5,0.25,0.0,0.0,0.25,0.0,0.0,0.0,-0.55,0.83,-0.23,40.92,-5.4,46.4
5.82,0.5,0.0,0.5,1.0,0.0,0.0,0.25,0.0,0.0,0.5,0.0,0.75,0.25,0.33,0.95,-0.17,59.2,14.5,-1.8,0.0,0.25,0.5,0.0,1.0,0.5,0.25,0.0,0.25,0.25,0.5,0.25,0.25,-0.55,0.83,-0.23,46.89,-3.7,4.4
5.84,0.5,0.25,0.25,0.25,0.0,0.0,0.0,0.0,0.0,0.25,0.0,0.75,0.25,0.33,0.95,-0.17,53.59,13.2,-10.8,0.0,0.5,0.5,0.0,0.5,0.5,0.25,0.0,0.25,0.5,0.0,0.0,0.5,-0.55,0.89,-0.23,50.99,-1.5,8.3
5.86,0.5,0.0,0.25,0.5,0.0,0.0,0.25,0.0,0.0,0.25,0.0,0.75,0.25,0.27,0.95,-0.17,48.46,14.6,-12.9,0.0,0.75,0.5,0.25,1.0,0.75,0.25,0.0,0.25,0.0,0.25,0.0,0.25,-0.55,0.89,-0.23,60.43,-4.6,36.5
5.88,0.5,0.0,0.5,0.5,0.0,0.0,0.25,0.0,0.0,0.25,0.0,0.75,0.25,0.33,0.95,-0.17,45.45,16.7,-6.3,0.0,0.25,0.5,0.0,0.5,0.75,0.25,0.0,0.0,0.25,0.25,0.0,0.25,-0.55,0.89,-0.23,59.37,-1.3,17.0
5.9,0.5,0.0,0.5,1.0,0.0,0.0,0.25,0.0,0.0,0.25,0.5,0.75,0.25,0.33,0.95,-0.17,49.53,16.0,-6.3,0.0,0.25,0.5,0.25,0.5,0.5,0.25,0.0,0.25,0.5,0.5,0.0,0.5,-0.48,0.89,-0.23,61.71,-3.0,-4.5
5.92,0.5,0.25,0.5,1.0,0.0,0.0,0.25,0.0,0.0,0.25,0.75,0.75,0.25,0.27,0.95,-0.17,56.53,15.5,-3.9,0.0,0.5,0.5,0.0,0.5,0.5,0.25,0.0,0.25,0.0,0.25,0.0,0.25,-0.55,0.89,-0.23,56.82,-6.6,26.0
5.94,0.5,0.0,1.0,0.75,0.0,0.0,0.25,0.0,0.0,0.5,0.75,0.75,0.25,0.27,0.95,-0.17,65.25,16.4,-9.8,0.0,0.0,0.5,0.0,1.0,0.5,0.25,0.0,0.25,0.25,0.25,0.0,0.5,-0.55,0.89,-0.23,57.12,-1.0,2.6
5.96,0.5,0.0,0.75,1.0,0.0,0.0,0.25,0.0,0.0,0.25,0.75,0.25,0.25,0.33,0.95,-0.17,67.55,18.1,7.0,0.0,0.25,0.5,0.0,0.5,0.5,0.25,0.0,0.25,0.0,0.5,0.0,0.25,-0.55,0.89,-0.23,52.81,-6.4,11.2
5.98,0.5,0.0,0.25,0.75,0.0,0.0,0.25,0.0,0.0,0.25,0.75,0.75,0.25,0.33,0.95,-0.17,65.01,14.0,-20.4,0.0,0.0,0.5,0.0,0.5,0.5,0.25,0.0,0.25,0.25,0.0,0.0,0.25,-0.55,0.83,-0.23,48.31,-2.6,10.2
6.0,0.5,0.0,0.5,0.75,0.0,0.0,0.25,0.0,0.0,0.25,0.25,0.5,0.25,0.27,0.95,-0.11,59.35,16.9,1.8,0.0,0.25,0.5,0.0,0.5,0.0,0.25,0.0,0.25,0.0,0.25,0.0,0.25,-0.55,0.83,-0.23,43.09,-12.1,15.8
