time,left pressure 0[N/cm²],left pressure 1[N/cm²],left pressure 2[N/cm²],left pressure 3[N/cm²],left pressure 4[N/cm²],left pressure 5[N/cm²],left pressure 6[N/cm²],left pressure 7[N/cm²],left pressure 8[N/cm²],left pressure 9[N/cm²],left pressure 10[N/cm²],left pressure 11[N/cm²],left pressure 12[N/cm²],left acceleration X[g],left acceleration Y[g],left acceleration Z[g],left total force[N],left center of pressure X[mm],left center of pressure Y[mm],right pressure 0[N/cm²],right pressure 1[N/cm²],right pressure 2[N/cm²],right pressure 3[N/cm²],right pressure 4[N/cm²],right pressure 5[N/cm²],right pressure 6[N/cm²],right pressure 7[N/cm²],right pressure 8[N/cm²],right pressure 9[N/cm²],right pressure 10[N/cm²],right pressure 11[N/cm²],right pressure 12[N/cm²],right acceleration X[g],right acceleration Y[g],right acceleration Z[g],right total force[N],right center of pressure X[mm],right center of pressure Y[mm]
0.02,0.5,0.25,0.0,1.0,2.0,1.25,0.5,1.5,2.0,1.5,1.0,1.0,0.0,-0.48,-0.3,0.64,172.66,0.4,-10.2,1.0,0.25,1.0,0.5,0.5,1.25,0.25,0.75,0.5,0.75,0.75,0.75,1.25,-0.05,0.77,0.64,46.55,-4.0,-10.4
0.04,1.25,0.0,0.0,0.0,2.75,0.5,0.5,1.5,0.5,1.0,0.75,0.25,0.0,-0.73,-0.36,0.27,164.26,0.2,8.0,1.25,0.0,1.0,0.5,0.5,1.0,0.5,1.0,0.5,0.75,0.75,0.75,1.0,0.08,0.64,0.64,59.88,-5.5,-9.4
0.06,0.0,0.0,0.0,0.0,1.75,0.5,0.0,1.25,2.25,1.25,1.0,0.75,0.0,-1.23,-0.67,1.58,151.51,-1.5,-29.0,1.0,0.25,1.0,0.5,0.5,1.0,0.5,0.75,0.5,0.75,0.25,0.75,1.5,-0.17,0.52,0.89,78.59,-4.2,-10.5
0.08,1.75,0.5,0.0,0.25,0.0,2.25,0.75,2.25,2.0,0.0,1.0,0.0,0.0,-0.98,-0.92,1.08,147.35,2.7,7.1,1.25,0.0,1.0,0.5,0.5,0.5,0.5,1.0,0.5,0.75,0.75,0.75,1.0,-0.3,0.39,1.08,93.91,-7.0,-11.8
0.1,1.5,0.25,0.0,1.5,0.0,0.0,1.25,4.5,0.25,0.75,1.0,0.25,0.0,-1.05,-1.73,2.02,147.79,2.5,-6.7,1.0,0.0,1.0,0.5,0.5,1.25,0.5,0.75,0.5,0.75,0.75,0.75,1.25,-0.11,0.39,1.27,110.95,-4.1,-13.0
0.12,2.5,0.25,0.0,4.0,4.5,0.0,0.0,1.25,0.0,1.0,1.0,0.5,0.0,-2.17,1.39,2.39,178.94,7.5,33.3,1.0,0.25,1.0,0.5,0.5,1.25,0.25,0.25,0.5,0.75,0.5,0.75,1.0,0.02,0.33,1.27,116.39,-5.6,-3.8
0.14,1.75,0.25,0.25,6.75,6.25,0.0,0.0,1.5,0.25,0.75,1.0,0.5,0.0,-0.48,0.39,2.33,228.19,7.2,36.5,1.0,0.0,1.0,0.5,0.5,0.5,0.5,0.75,0.5,0.75,0.25,0.75,0.75,-0.05,0.33,1.2,115.21,-7.4,-6.8
0.16,0.0,1.5,0.0,8.25,8.0,0.0,0.0,1.5,0.25,1.0,0.0,0.25,0.25,-1.17,0.02,1.39,277.29,4.3,41.8,1.0,0.0,1.0,0.5,0.5,0.75,0.25,0.75,0.5,0.75,0.25,0.75,1.0,0.02,0.27,1.2,113.53,-5.5,-9.5
0.18,2.75,1.5,0.0,9.25,9.0,3.75,0.0,1.5,0.0,0.75,1.5,0.25,0.25,-0.3,0.2,1.27,357.94,4.3,42.6,1.25,0.25,1.0,0.5,0.5,0.75,0.25,0.75,0.5,0.75,0.5,0.75,0.25,0.08,0.14,1.27,113.77,-8.6,5.0
0.2,2.5,1.5,0.0,9.5,9.25,5.0,0.0,1.5,0.0,0.25,1.5,0.25,0.25,-0.17,0.2,1.14,437.51,3.4,43.9,1.0,0.25,1.0,0.5,0.25,0.75,0.25,0.75,0.5,0.75,1.0,0.75,0.25,0.14,0.02,1.2,114.77,-8.4,-4.4
0.22,2.75,1.5,0.0,9.5,10.0,6.5,0.0,1.5,0.25,1.25,0.0,0.25,0.5,-0.17,0.14,1.14,525.3,1.5,43.9,1.0,0.0,1.0,0.5,0.5,1.0,0.75,0.75,0.5,0.75,1.25,0.75,1.0,0.14,-0.05,1.2,121.08,-6.0,-14.2
0.24,2.75,1.5,0.0,9.5,9.5,7.0,0.75,2.75,0.5,1.0,0.0,0.25,0.0,-0.17,0.14,1.02,581.67,1.3,43.1,1.0,0.25,1.0,0.5,0.5,1.0,0.25,0.75,0.5,0.75,0.25,0.75,1.0,0.14,-0.11,1.08,124.16,-4.9,-4.9
0.26,3.5,1.5,0.5,9.25,10.0,7.0,1.25,4.25,0.0,1.0,1.5,0.75,0.25,-0.23,0.14,1.02,650.04,1.9,35.3,1.0,0.0,1.0,0.5,0.5,0.75,0.5,0.5,0.5,0.5,0.5,0.75,1.0,0.14,-0.11,0.95,122.83,-7.5,-7.9
0.28,3.25,1.5,0.0,9.5,10.0,7.0,1.5,4.75,0.25,1.0,1.75,1.0,0.5,-0.23,0.14,0.95,699.73,1.3,31.1,1.0,0.25,1.0,0.5,0.5,0.5,0.5,0.5,0.5,0.75,0.0,0.75,1.0,0.2,-0.11,0.83,118.78,-7.6,-3.5
0.3,3.5,1.5,1.75,9.25,9.75,7.0,1.5,5.0,0.5,1.5,1.75,0.5,0.5,-0.11,0.14,0.95,746.92,2.6,31.9,1.0,0.25,0.75,0.5,0.5,0.5,0.5,0.75,0.5,0.75,0.25,0.75,0.75,0.27,-0.17,0.77,115.44,-6.6,-5.5
0.32,2.5,1.5,1.75,9.25,9.5,7.0,1.5,5.25,1.25,1.25,1.75,0.75,0.25,-0.17,0.14,0.95,765.32,2.2,29.5,1.0,0.0,1.0,0.5,0.5,0.75,0.5,0.75,0.5,0.75,0.25,0.75,0.5,0.33,-0.17,0.83,113.01,-7.2,-2.0
0.34,2.5,1.5,1.75,9.0,9.25,6.75,1.25,5.0,1.25,1.25,1.75,1.0,0.0,-0.17,0.14,0.95,759.22,2.5,29.5,1.0,0.0,1.0,0.5,0.5,0.5,0.5,0.75,0.5,0.5,0.25,0.75,1.0,0.27,-0.17,0.83,112.07,-7.5,-8.0
0.36,2.5,1.5,1.0,8.25,9.0,6.75,1.25,5.0,1.0,1.0,1.75,1.0,0.25,-0.17,0.14,0.95,720.07,1.5,28.4,1.0,0.25,1.0,0.5,0.5,0.25,0.25,0.5,0.5,0.5,0.5,0.75,0.75,0.33,-0.17,0.89,111.18,-10.0,-3.7
0.38,2.5,1.5,1.5,8.25,9.0,6.25,1.25,5.0,1.25,0.75,1.75,1.0,0.25,-0.17,0.14,0.95,683.81,2.4,29.0,1.0,0.0,1.0,0.5,0.5,0.5,0.25,0.75,0.5,0.75,0.25,0.75,1.25,0.39,-0.17,0.83,112.71,-5.7,-14.0
0.4,2.5,1.5,1.25,8.25,8.75,6.0,1.0,4.75,1.5,1.0,1.25,1.0,0.5,-0.17,0.14,0.95,646.54,2.2,28.3,1.0,0.0,1.0,0.5,0.5,0.5,0.5,0.75,0.5,0.25,0.25,0.75,1.0,0.39,-0.11,0.77,110.89,-8.3,-5.7
0.42,2.5,1.5,1.25,7.75,8.5,6.25,0.25,4.75,1.25,0.75,1.0,1.0,0.5,-0.17,0.14,0.95,606.98,1.6,29.5,1.0,0.25,1.0,0.5,0.5,0.5,0.5,0.5,0.5,0.75,0.5,0.75,1.0,0.33,-0.05,0.83,113.68,-7.8,-7.8
0.44,2.5,1.5,1.75,7.75,8.5,6.25,0.25,5.0,1.0,1.5,1.75,1.0,0.5,-0.17,0.14,0.95,593.68,1.7,26.1,1.0,0.0,1.0,0.5,0.5,0.5,0.25,0.75,0.5,0.5,0.25,0.75,1.0,0.39,-0.11,0.83,112.59,-7.1,-8.6
0.46,2.5,1.5,1.75,8.0,8.5,6.25,0.0,5.25,1.25,1.75,2.0,0.75,1.0,-0.17,0.14,0.95,592.46,1.4,23.4,1.25,0.0,1.0,0.5,0.5,0.5,0.25,0.75,0.5,0.25,0.5,0.75,0.75,0.45,-0.05,0.83,112.43,-9.6,-1.7
0.48,2.75,1.5,1.75,8.0,8.5,6.5,0.75,5.25,1.5,2.0,2.0,1.25,1.0,-0.17,0.14,0.95,607.99,1.7,21.5,1.0,0.0,1.0,0.5,0.5,0.25,0.25,0.75,0.25,0.25,0.25,0.75,0.75,0.39,-0.05,0.7,107.43,-9.7,-2.4
0.5,3.25,1.5,1.75,8.0,8.5,6.5,0.75,5.75,1.75,2.5,2.5,1.25,1.0,-0.17,0.08,0.95,634.31,1.8,19.2,1.0,0.0,1.0,0.5,0.5,0.5,0.25,0.25,0.5,0.75,0.25,0.75,0.5,0.39,0.02,0.7,104.51,-9.6,-1.0
0.52,3.5,1.5,1.75,7.5,8.5,6.75,0.75,6.0,1.75,2.75,2.75,1.25,1.0,-0.17,0.08,0.95,665.3,1.5,17.9,1.0,0.25,1.0,0.5,0.5,0.5,0.25,0.5,0.5,0.5,0.25,0.75,0.0,0.45,0.02,0.7,100.63,-11.6,13.1
0.54,4.0,1.5,1.75,7.25,8.5,6.75,0.75,6.0,2.0,3.0,2.75,1.25,1.25,-0.17,0.08,0.95,693.57,1.7,17.0,1.0,0.25,1.0,0.5,0.5,0.5,0.5,0.75,0.25,0.25,0.25,0.75,0.75,0.33,-0.05,0.58,101.89,-9.1,3.0
0.56,4.0,1.5,1.75,7.0,8.5,6.75,0.75,6.0,2.25,2.75,2.75,1.25,1.25,-0.17,0.08,0.95,713.06,1.7,17.0,1.0,0.0,0.75,0.5,0.5,0.5,0.25,0.5,0.5,0.5,0.25,0.75,0.5,-0.3,-0.48,1.39,99.96,-8.5,-2.1
0.58,4.0,1.5,1.75,7.0,8.5,6.75,0.75,6.0,1.75,2.5,2.75,1.25,1.25,-0.17,0.14,0.95,721.35,1.7,18.0,1.5,0.0,1.0,0.5,1.0,0.75,0.25,0.75,0.25,0.25,0.25,0.75,0.0,0.2,0.33,2.02,104.36,-10.7,22.5
0.6,3.75,1.5,1.75,7.0,8.5,6.75,0.75,6.0,1.75,3.0,2.5,1.25,1.0,-0.17,0.14,0.95,720.83,1.4,17.8,2.0,0.25,0.75,0.5,1.0,2.0,0.0,0.75,0.25,0.25,0.0,0.75,0.75,-0.17,0.2,1.08,117.83,-4.6,20.3
0.62,3.25,1.5,1.75,7.0,8.5,6.5,1.0,6.0,1.75,2.25,2.75,1.25,1.0,-0.17,0.14,0.95,709.17,1.6,18.0,2.0,0.5,1.0,1.25,1.25,2.75,0.5,0.0,0.25,0.0,0.5,0.75,0.0,-0.05,0.14,1.08,138.52,-8.8,39.7
0.64,2.75,1.5,1.75,6.75,8.5,6.5,0.75,6.0,1.5,2.5,2.25,1.25,1.25,-0.17,0.14,0.95,690.92,0.7,17.0,3.75,0.25,1.25,2.0,2.25,2.75,0.75,0.75,0.5,0.5,0.25,0.75,0.0,-0.05,0.02,1.27,180.37,-9.6,40.1
0.66,2.5,1.25,1.75,7.0,8.5,6.25,0.75,6.0,1.75,2.75,2.75,1.25,1.25,-0.17,0.14,0.95,675.66,0.8,14.4,5.0,0.0,2.75,2.0,1.25,2.75,1.5,0.75,1.0,0.75,1.75,1.75,0.0,-0.11,0.14,0.89,232.08,-14.2,24.3
0.68,2.5,1.25,1.25,6.25,8.5,6.25,0.75,6.25,1.5,2.5,2.75,1.5,1.25,-0.17,0.14,0.95,652.65,0.0,12.8,5.0,0.5,3.75,1.25,1.25,2.75,1.75,2.0,1.75,2.0,3.75,4.25,1.0,-0.05,0.14,0.95,302.67,-10.7,-4.6
0.7,2.5,0.75,1.25,5.25,8.0,6.25,0.75,6.25,1.5,4.25,2.75,1.75,2.0,-0.17,0.14,0.95,636.02,-1.2,3.8,5.0,0.75,3.75,1.25,1.25,2.75,1.75,2.5,1.75,4.5,5.75,5.5,3.25,0.02,-0.05,0.95,404.83,-7.1,-22.2
0.72,2.5,0.5,0.75,4.75,7.75,6.0,0.75,6.5,1.5,4.5,2.5,2.0,2.25,-0.17,0.14,0.95,614.45,-2.1,-0.1,4.25,0.5,3.0,0.5,1.25,3.0,1.5,3.0,2.0,5.75,6.5,6.0,4.75,0.02,0.08,0.95,521.75,-3.9,-35.2
0.74,1.5,0.75,0.25,4.75,7.75,6.0,0.5,6.75,1.25,5.5,3.5,2.25,3.5,-0.17,0.14,0.95,609.56,-3.8,-9.4,3.75,0.5,2.75,0.5,1.0,3.25,1.25,3.75,2.25,6.5,7.75,6.5,5.75,0.14,0.08,0.95,632.04,-2.4,-41.9
0.76,1.25,0.5,0.0,3.5,7.5,6.0,0.5,6.75,1.25,5.5,3.5,2.5,3.75,-0.17,0.14,0.95,594.72,-5.0,-14.7,3.0,0.5,2.25,0.5,1.25,3.5,1.25,3.75,2.25,7.25,8.0,7.25,6.75,0.08,0.08,0.95,723.26,-0.9,-47.5
0.78,1.0,0.5,0.0,3.0,7.25,5.75,0.5,7.0,1.25,6.25,4.0,3.5,4.75,-0.17,0.14,0.95,596.5,-5.4,-22.8,2.5,0.25,1.75,0.5,1.0,2.75,1.0,4.25,1.75,7.25,8.25,7.75,7.75,0.08,0.08,0.95,784.59,0.0,-55.3
0.8,1.0,0.5,0.0,2.75,6.5,5.25,0.5,7.0,0.75,6.5,4.25,3.5,5.75,-0.17,0.14,0.95,593.18,-5.7,-27.8,2.0,0.5,1.0,0.5,0.5,2.75,0.75,4.25,1.75,7.75,8.25,7.75,8.0,0.08,0.08,0.95,813.03,1.3,-60.1
0.82,1.0,0.5,0.0,3.0,6.25,5.25,0.25,7.0,1.0,6.5,4.25,4.0,5.75,-0.17,0.14,0.95,599.67,-5.4,-28.9,2.0,0.25,1.0,0.5,1.0,2.75,0.75,4.25,1.75,7.75,8.5,7.75,8.25,0.08,0.08,0.95,823.93,1.4,-59.9
0.84,1.0,0.25,0.0,2.5,6.0,5.0,0.5,7.0,0.0,6.5,4.5,4.25,6.25,-0.17,0.14,0.95,599.12,-6.0,-32.8,1.75,0.5,1.0,0.5,0.5,2.75,0.5,4.0,1.75,7.75,8.25,8.0,8.25,0.08,0.08,0.95,813.2,1.5,-61.9
0.86,1.0,0.5,0.0,1.25,5.25,4.75,0.25,7.0,1.0,7.0,4.25,4.0,6.5,-0.17,0.14,0.95,599.17,-6.5,-37.5,2.0,0.5,1.0,0.5,0.5,2.75,0.5,4.0,1.75,7.75,8.25,8.5,8.25,0.02,0.08,0.95,799.39,1.2,-61.6
0.88,0.0,0.25,0.0,1.0,5.0,4.5,0.0,7.0,0.5,7.0,5.0,4.5,6.5,-0.17,0.08,0.95,593.3,-7.5,-44.7,1.5,0.5,1.0,0.5,0.5,2.75,0.75,4.0,1.5,7.75,8.5,8.5,8.75,0.08,0.08,0.95,781.87,1.6,-63.7
0.9,0.0,0.5,0.0,1.0,4.5,4.25,0.0,7.0,0.5,7.25,4.5,4.75,7.0,-0.17,0.14,0.95,589.55,-7.6,-46.6,1.25,0.25,1.0,0.5,0.5,2.5,0.5,4.25,1.25,8.0,8.25,8.75,9.0,0.08,0.08,0.95,765.39,2.2,-66.7
0.92,0.75,0.5,0.0,1.0,4.5,4.0,0.0,7.0,0.5,7.25,0.0,5.0,7.25,-0.17,0.08,0.95,564.47,-8.7,-42.0,1.25,0.5,1.0,0.5,0.5,2.0,0.5,3.75,1.25,8.25,8.25,9.0,9.0,0.08,0.08,0.95,745.41,1.7,-67.4
0.94,0.75,0.5,0.0,1.0,4.5,3.5,0.0,7.0,0.5,7.25,4.25,5.0,7.25,-0.17,0.08,0.95,567.2,-6.7,-46.1,1.0,0.25,1.0,0.5,1.0,1.75,0.5,4.0,1.25,8.25,8.5,9.5,9.25,0.08,0.08,0.95,739.5,1.9,-68.7
0.96,0.0,0.25,0.0,1.0,4.5,3.5,0.0,7.0,0.25,7.25,4.5,4.5,7.5,-0.23,0.08,0.95,565.82,-7.8,-49.4,1.5,0.25,1.0,0.5,0.5,1.25,0.5,3.75,1.25,8.25,8.5,9.5,9.75,0.08,0.08,0.95,737.17,1.3,-70.3
0.98,0.0,0.25,0.0,1.0,4.5,3.0,0.0,7.0,0.5,7.25,4.25,4.25,7.5,-0.23,0.08,1.02,567.81,-7.7,-49.8,1.25,0.25,1.0,0.5,0.25,1.25,0.5,3.75,1.0,8.5,8.75,9.75,9.75,0.08,0.08,0.95,737.06,1.5,-72.3
1.0,0.0,0.25,0.0,1.0,4.25,2.5,0.0,6.75,0.25,7.25,3.75,4.25,7.5,-0.23,0.08,1.02,556.78,-7.8,-51.4,1.25,0.0,1.0,0.5,0.5,1.0,0.25,3.75,1.0,8.5,8.5,9.75,10.0,0.08,0.08,0.95,736.55,1.7,-73.5
1.02,0.0,0.25,0.0,1.0,4.0,2.0,0.0,6.5,0.25,6.75,3.5,4.0,7.5,-0.23,0.08,1.08,534.85,-7.7,-52.5,1.0,0.0,1.0,0.5,0.5,0.75,0.5,3.75,1.0,8.5,8.5,10.5,10.5,0.08,0.02,0.89,745.96,1.7,-75.6
1.04,0.0,0.25,0.0,1.0,4.0,1.5,0.0,6.0,0.5,5.75,3.25,3.75,7.25,-0.3,0.02,1.14,499.11,-7.2,-52.1,1.0,0.0,1.0,0.5,0.5,0.5,0.5,3.75,1.0,8.75,8.25,10.5,11.0,0.08,0.08,0.95,755.6,1.8,-76.5
1.06,0.0,0.25,0.0,1.0,3.5,1.5,0.0,5.5,0.5,5.25,2.75,2.25,7.0,-0.36,0.14,1.27,447.95,-8.0,-50.3,1.0,0.25,1.0,0.5,0.5,0.5,0.5,3.75,1.0,8.75,8.25,10.5,11.0,0.08,0.08,0.95,765.32,1.7,-75.6
1.08,0.0,0.25,0.0,1.0,3.5,1.5,0.0,4.75,0.5,4.25,1.25,2.25,6.5,-0.42,0.2,1.52,390.27,-8.4,-47.1,1.5,0.0,0.75,0.5,0.5,0.5,0.5,3.75,1.0,8.75,8.5,10.5,11.0,0.08,0.08,0.95,773.45,1.6,-75.6
1.1,0.0,0.25,0.0,1.0,3.0,1.5,0.0,4.25,0.5,2.25,1.75,1.25,5.0,-0.36,0.14,1.2,325.92,-7.7,-40.5,1.0,0.0,1.0,0.5,0.0,0.5,0.5,4.0,1.0,8.25,8.5,9.75,11.5,0.08,0.02,0.95,769.61,2.0,-77.8
1.12,0.0,0.25,0.0,1.0,3.25,1.25,0.0,3.25,0.5,2.0,1.5,1.0,3.5,-0.3,0.08,1.08,269.02,-6.8,-32.3,0.75,0.25,0.0,0.5,0.0,0.5,0.25,2.5,0.75,9.0,7.75,10.5,9.5,0.08,0.02,0.95,736.66,2.4,-82.0
1.14,0.0,0.0,0.0,0.0,1.75,1.25,0.0,1.75,0.25,1.0,0.0,1.0,2.25,-0.23,0.14,0.95,193.32,-10.3,-38.6,1.0,0.0,0.0,0.0,0.5,0.0,0.5,2.5,0.5,8.25,8.0,10.0,11.5,0.08,0.02,0.95,710.71,2.7,-84.3
1.16,0.0,0.25,0.0,1.0,3.25,1.75,0.0,2.75,0.5,1.0,0.25,0.5,1.25,-0.3,1.39,0.39,147.51,-7.3,-5.5,1.0,0.0,0.75,0.25,0.0,0.5,0.0,2.5,0.5,8.75,8.5,10.5,9.75,0.14,0.02,0.89,689.19,1.7,-81.1
1.18,0.0,0.0,0.0,0.0,2.25,0.5,0.0,1.5,0.0,0.75,0.0,0.25,1.0,-0.11,1.45,0.83,82.32,-10.3,-15.1,1.0,0.0,0.0,0.5,0.25,0.5,0.25,2.75,0.5,9.0,8.25,10.5,11.5,0.14,0.02,0.95,694.21,2.9,-82.4
1.2,0.75,0.25,0.0,1.0,0.75,1.0,0.0,1.75,0.0,1.0,0.0,0.5,1.25,0.58,1.14,1.02,57.25,-4.4,-12.6,1.0,1.5,0.0,0.5,0.5,0.25,0.0,2.25,0.5,9.0,7.5,10.5,10.5,0.14,0.02,0.95,693.67,2.1,-76.1
1.22,0.0,0.25,0.0,1.0,3.0,1.0,0.0,2.25,0.0,1.0,0.0,0.5,1.25,-0.11,1.02,0.89,53.86,-7.2,-5.0,1.0,0.0,0.75,0.5,0.5,0.5,0.25,3.25,0.5,8.5,7.75,10.5,11.5,0.14,0.02,0.89,708.56,2.3,-78.8
1.24,0.0,0.25,0.0,1.0,2.75,0.75,0.0,1.75,0.0,1.0,1.0,0.25,1.0,-0.61,0.83,0.77,67.82,-5.0,-7.4,1.0,0.25,0.75,0.5,0.5,0.5,0.25,2.5,0.5,8.5,7.75,10.5,11.5,0.14,0.02,0.89,711.8,2.0,-78.5
1.26,1.0,0.0,0.0,1.0,1.25,1.25,0.75,3.0,0.0,0.0,1.25,0.0,1.25,-0.48,0.64,0.77,83.79,-2.3,-6.6,1.0,0.0,0.75,0.25,0.5,0.25,0.25,2.5,0.5,8.25,7.5,10.5,11.5,0.14,0.02,0.95,708.51,2.1,-81.0
1.28,0.0,0.0,0.0,0.0,0.0,0.0,0.0,0.0,0.0,0.0,0.0,0.0,0.0,-0.23,0.45,1.02,46.65,0.0,0.0,1.0,0.25,0.75,0.25,0.5,0.5,0.25,2.25,0.5,8.25,7.25,9.75,11.5,0.14,0.02,0.95,696.03,2.3,-79.0
1.3,0.75,0.25,0.0,1.0,0.0,0.75,0.0,2.25,0.5,1.0,0.0,0.25,1.0,-0.17,0.33,1.08,52.51,-3.8,-18.5,1.0,0.25,0.75,0.5,0.0,0.5,0.0,1.75,0.5,7.75,6.5,9.5,11.0,0.08,0.02,0.89,667.26,2.1,-80.4
1.32,0.75,0.25,0.0,1.0,1.75,1.0,0.0,1.5,0.5,1.0,0.0,0.5,1.0,-0.3,0.27,1.08,65.52,-2.8,-2.6,1.0,0.0,0.75,0.5,0.5,0.5,0.25,2.0,0.5,7.0,5.5,8.75,9.75,0.14,0.02,0.95,619.78,2.1,-77.5
1.34,0.75,0.25,0.0,1.0,3.0,0.75,0.0,1.5,0.5,1.0,0.0,0.5,1.0,-0.42,0.2,1.08,105.12,-2.4,4.1,1.0,0.25,0.5,0.5,0.5,0.25,0.25,2.0,0.5,6.5,5.5,7.75,9.5,0.14,0.02,0.95,567.87,2.1,-76.9
1.36,0.75,0.25,0.0,1.0,2.75,0.75,0.0,1.5,0.5,1.0,0.0,0.5,1.0,-0.3,0.14,1.08,131.89,-2.4,2.7,1.0,0.0,0.75,0.5,0.5,0.25,0.25,1.0,0.5,5.0,3.75,6.5,8.25,0.14,0.02,1.14,486.28,1.4,-75.8
1.38,0.75,0.25,0.0,1.0,2.0,0.75,0.0,1.5,0.5,1.0,0.0,0.25,1.0,-0.23,0.02,1.14,148.53,-2.6,1.0,1.0,0.25,0.75,0.5,0.5,0.25,0.0,0.75,0.5,3.5,2.5,5.0,6.75,0.14,0.14,1.27,386.92,0.8,-70.2
1.4,1.0,0.25,0.0,1.0,2.0,1.0,0.0,1.5,0.5,1.0,0.0,0.5,1.0,-0.23,-0.05,1.02,150.02,-1.9,1.3,1.0,0.0,0.75,0.5,0.25,0.5,0.25,0.75,0.25,1.5,1.5,2.25,4.5,0.08,0.14,1.27,281.82,-0.1,-58.3
1.42,0.0,0.0,0.0,1.0,0.0,1.0,0.0,0.0,0.5,0.0,0.0,0.5,0.0,-0.3,-0.05,1.02,118.21,2.2,6.4,0.75,0.25,0.75,0.5,0.0,0.5,0.0,0.75,0.5,1.75,1.5,2.25,3.0,0.14,0.89,0.83,201.99,-1.1,-55.0
1.44,0.75,0.25,0.0,0.0,2.0,1.0,0.5,1.5,0.5,0.75,0.0,0.75,1.25,-0.3,-0.11,1.02,116.1,-3.8,-10.8,1.0,0.0,1.0,0.5,0.0,0.5,0.25,0.75,0.5,1.25,1.0,2.25,2.75,0.02,1.02,0.58,133.31,-3.4,-48.9
1.46,1.0,0.5,0.0,1.25,1.75,0.5,0.25,1.5,0.75,0.0,0.0,0.25,1.0,-0.42,-0.11,1.02,114.96,2.2,13.3,0.75,0.0,0.0,0.25,0.0,0.25,0.25,0.75,0.5,1.0,1.0,2.25,2.5,-0.11,1.14,0.95,85.25,0.0,-67.4
1.48,0.75,0.25,0.0,1.0,2.5,0.75,0.0,1.5,0.5,1.0,0.0,0.25,1.0,-0.48,-0.11,0.95,133.11,-2.7,4.1,1.0,0.0,1.0,0.5,0.0,0.5,0.25,0.5,0.5,0.75,1.25,2.25,1.75,-0.11,1.02,0.58,61.87,-6.7,-42.3
1.5,0.75,0.25,0.0,0.25,2.5,0.75,0.0,1.5,0.5,0.75,0.0,0.25,1.0,-0.73,-0.17,1.02,138.67,-4.1,1.5,1.0,0.0,1.0,0.25,0.0,0.25,0.0,0.75,0.5,0.75,1.0,2.25,1.5,0.02,0.95,0.7,51.27,-6.7,-45.1
1.52,0.75,0.25,0.0,0.0,2.0,0.0,0.0,1.5,0.5,1.0,0.0,0.5,1.0,-2.8,-5.55,1.58,139.53,-3.1,-13.1,1.0,0.0,1.0,0.5,0.0,0.5,0.25,0.5,0.5,0.75,0.75,1.75,2.0,-0.11,0.77,0.83,50.99,-5.8,-38.8
1.54,0.0,0.25,0.0,0.0,2.0,0.5,0.0,1.5,0.5,1.0,0.0,0.5,1.25,-1.48,-1.92,0.95,122.86,-8.0,-23.4,1.25,0.25,1.0,0.5,0.0,0.5,0.25,0.75,0.5,0.75,0.75,1.5,1.75,-0.17,0.77,0.64,57.54,-6.6,-28.0
1.56,0.0,0.25,0.0,0.0,0.5,0.5,0.0,1.5,0.0,1.25,0.0,0.5,1.25,-0.61,-0.17,1.08,105.5,-11.5,-47.2,1.0,0.0,1.0,0.5,0.0,0.5,0.25,0.75,0.5,0.75,0.75,1.5,1.0,-0.11,0.83,0.58,64.58,-7.5,-27.9
1.58,0.75,0.25,0.0,1.0,1.75,0.75,0.0,1.5,0.5,1.0,0.0,0.5,1.0,-0.92,-0.8,1.77,111.7,-2.3,-3.5,1.0,0.0,0.25,0.0,0.0,0.0,0.0,0.75,0.0,0.0,1.0,0.75,1.75,-0.05,-4.11,2.39,61.23,-4.0,-50.4
1.6,0.75,0.25,0.0,1.0,2.5,0.75,0.25,1.5,0.5,1.0,0.0,0.25,1.0,0.89,1.77,1.83,124.69,-2.2,4.3,1.0,0.0,1.0,0.5,0.0,0.25,0.25,0.75,0.5,0.75,0.75,1.75,1.75,0.08,-2.55,1.2,80.47,-6.5,-38.7
1.62,0.75,0.25,0.0,1.0,1.75,0.75,0.25,1.5,0.5,1.0,1.0,0.75,1.0,-0.55,0.33,1.33,142.14,-0.4,-12.2,1.0,0.0,1.0,0.25,0.25,0.5,0.0,0.75,0.5,1.25,1.25,2.25,1.5,0.64,-1.17,0.77,105.83,-4.8,-42.8
1.64,0.25,0.25,0.0,0.25,0.0,0.0,0.25,0.5,0.75,1.0,0.0,1.25,1.0,-0.05,0.14,1.02,129.78,0.3,-56.8,1.0,0.0,1.0,0.25,0.0,0.25,0.25,0.75,0.5,1.25,1.5,2.25,3.25,1.08,-1.48,3.39,141.36,-3.1,-56.5
1.66,0.75,0.25,0.0,0.0,1.75,0.0,0.0,1.75,1.0,1.25,1.0,2.0,0.75,-0.48,-0.05,0.89,139.81,0.1,-34.9,1.0,0.25,1.25,0.5,0.0,0.5,0.25,0.5,0.5,0.75,1.25,2.25,2.75,1.08,-0.3,2.14,159.66,-5.7,-42.8
1.68,0.75,0.25,0.25,0.5,1.75,0.5,0.0,1.75,0.75,2.0,2.25,2.25,2.0,-0.23,0.08,0.95,160.47,-0.4,-40.7,1.0,0.0,1.0,0.5,0.0,0.5,0.25,0.5,0.5,1.0,1.0,2.0,2.0,-0.36,-0.17,0.14,165.43,-5.5,-42.4
1.7,0.0,0.25,0.0,0.25,2.25,0.75,0.0,1.75,0.75,2.5,2.0,3.0,3.0,-0.11,0.14,0.95,199.86,-4.2,-53.1,1.0,0.0,1.0,0.25,0.25,0.25,0.25,0.75,0.5,0.75,0.5,2.25,2.0,-0.23,-0.3,0.58,160.56,-5.4,-43.2
1.72,0.25,0.25,0.0,1.0,2.5,0.5,0.0,2.25,1.25,2.75,2.75,4.25,4.25,-0.17,0.14,0.95,253.55,-2.2,-53.9,1.0,0.0,1.0,0.25,0.0,0.5,0.25,0.5,0.5,1.0,0.75,2.25,3.0,-0.55,0.33,0.52,160.51,-3.4,-52.0
1.74,0.75,0.0,0.0,1.0,2.5,0.0,0.0,2.5,1.0,4.25,3.0,5.25,5.75,-0.17,0.14,0.95,311.58,-2.5,-61.1,1.0,0.0,1.0,0.0,0.5,0.25,0.25,0.5,0.5,1.5,1.5,3.5,4.5,0.02,-0.23,1.27,184.22,-1.7,-63.9
1.76,0.75,0.25,0.25,1.0,1.75,0.0,0.0,2.5,1.25,4.5,4.25,6.0,6.5,-0.11,0.08,0.95,378.41,-1.4,-65.0,1.0,0.0,1.0,0.5,0.25,0.25,0.0,0.5,0.5,1.25,1.75,4.0,5.75,0.45,-0.05,1.14,216.37,-1.5,-67.6
1.78,0.75,0.25,0.0,1.0,2.0,0.0,0.0,3.0,1.25,5.5,5.75,6.25,7.0,-0.05,0.08,0.95,451.29,-2.0,-66.4,1.0,0.0,0.75,0.5,0.5,0.25,0.25,0.75,0.5,1.25,1.5,4.5,6.0,0.7,-0.23,0.83,247.45,-0.7,-68.2
1.8,0.75,0.0,0.0,1.0,2.0,0.5,0.0,2.75,1.25,5.5,5.75,6.25,7.25,-0.11,0.08,0.95,509.82,-2.4,-66.8,1.0,0.0,0.75,0.0,0.25,0.5,0.0,0.75,0.5,1.25,1.5,4.75,6.5,0.2,-0.23,0.58,268.26,0.5,-74.9
1.82,0.0,0.25,0.0,1.0,2.0,0.75,0.0,3.0,1.25,5.75,5.5,6.5,7.75,-0.11,0.14,0.95,549.59,-3.5,-69.0,1.0,0.0,0.75,0.0,0.5,0.25,0.25,0.0,0.25,2.0,1.5,5.5,7.75,-0.05,-0.23,0.83,287.07,0.7,-79.1
1.84,0.0,0.0,0.0,0.25,1.25,0.5,0.0,2.5,0.75,6.25,6.25,6.75,7.75,-0.17,0.08,0.95,564.57,-3.9,-78.9,1.0,0.25,0.5,0.0,0.5,0.25,0.0,0.0,0.5,1.75,2.0,6.25,8.0,0.14,-0.3,0.95,301.93,0.4,-80.2
1.86,0.0,0.25,0.0,0.0,0.75,0.25,0.0,3.25,0.5,6.5,0.0,6.75,7.75,-0.17,0.08,0.95,529.52,-7.8,-82.5,1.0,0.25,1.25,0.5,0.5,0.0,0.5,0.0,0.25,2.0,2.5,6.25,8.25,0.02,-0.36,0.83,326.5,-1.5,-73.1
1.88,0.75,0.25,0.0,0.0,0.0,0.75,0.0,3.25,0.5,6.5,6.25,7.0,8.25,-0.17,0.08,1.02,532.37,-3.8,-79.9,1.0,0.0,0.0,0.25,0.5,0.0,0.25,0.0,0.25,1.75,1.5,6.25,8.5,0.39,-0.36,0.95,333.95,1.6,-86.4
1.9,0.0,0.25,0.0,0.0,1.75,0.25,0.0,2.5,0.25,6.5,6.5,7.25,8.25,-0.17,0.08,0.95,527.4,-3.9,-78.6,1.0,0.0,0.0,0.25,0.25,0.0,0.0,0.0,0.25,1.75,1.75,6.25,8.25,0.39,-0.73,0.95,334.83,1.5,-88.7
1.92,0.0,0.25,0.0,0.0,0.0,0.5,0.0,2.75,0.5,6.5,6.25,7.25,8.5,-0.17,0.08,0.95,531.64,-4.3,-85.7,1.0,0.0,0.0,0.5,0.5,0.25,0.0,0.0,0.25,1.5,2.0,6.0,8.25,0.33,-1.48,0.95,328.67,1.3,-83.1
1.94,0.0,0.25,0.0,0.0,0.0,0.75,0.0,2.25,0.5,6.5,6.0,7.25,8.75,-0.17,0.02,1.02,525.0,-4.4,-85.8,1.0,0.0,0.0,0.5,0.0,0.25,0.0,0.25,0.25,0.75,1.5,5.25,7.75,0.45,-2.36,1.52,307.63,1.3,-85.6
1.96,0.0,0.25,0.0,0.0,0.0,0.5,0.0,2.75,0.5,6.5,5.75,7.25,9.0,-0.17,0.02,1.02,517.82,-4.6,-86.2,1.0,0.25,0.0,0.25,0.25,0.25,0.0,0.5,0.25,0.75,1.75,3.5,6.0,0.2,-3.17,1.77,277.6,1.2,-75.4
1.98,0.25,0.25,0.0,0.0,0.0,0.5,0.0,2.75,0.5,6.5,5.75,7.25,9.0,-0.23,0.02,1.02,506.82,-4.4,-84.9,1.0,0.0,0.0,0.5,0.5,0.25,0.0,0.5,0.5,0.5,0.75,2.0,2.75,-0.3,-2.05,0.77,224.15,-1.1,-53.6
2.0,0.5,0.25,0.0,0.0,0.0,0.5,0.0,2.5,0.5,6.5,5.5,7.0,9.0,-0.23,-0.05,0.89,496.63,-4.2,-83.8,1.0,0.0,0.5,0.5,0.25,0.25,0.0,0.25,0.25,0.75,0.25,1.5,2.0,-0.11,0.14,0.2,166.31,-3.9,-40.8
2.02,0.75,0.25,0.0,0.0,0.0,0.75,0.0,2.5,0.5,6.5,5.25,6.75,9.0,-0.23,-0.05,0.89,490.53,-4.3,-81.5,1.0,0.0,0.75,0.0,0.0,0.25,0.25,0.25,0.25,0.75,0.0,1.5,1.5,-0.67,2.14,0.52,110.56,-6.2,-40.9
2.04,0.0,0.25,0.0,0.0,0.0,0.5,0.0,2.75,0.5,6.5,5.25,6.75,9.0,-0.3,-0.05,0.95,484.76,-5.1,-86.0,1.0,0.0,1.0,0.25,0.0,0.25,0.0,0.25,0.25,0.75,0.5,1.25,1.25,-0.17,3.27,-1.17,75.52,-8.4,-31.6
2.06,0.0,0.25,0.0,0.0,0.0,0.75,0.0,2.5,0.5,6.5,5.0,6.75,9.0,-0.3,-0.05,0.95,478.41,-5.3,-85.6,1.0,0.0,0.75,0.5,0.5,0.25,0.25,0.75,0.5,0.5,0.5,1.25,1.75,-1.11,1.89,1.39,64.26,-5.3,-29.1
2.08,0.0,0.25,0.0,0.0,0.25,0.75,0.0,2.5,0.5,6.5,4.5,6.75,9.0,-0.36,-0.05,0.89,472.94,-5.5,-84.4,1.0,0.0,1.0,0.5,0.0,0.25,0.0,0.5,0.25,0.75,0.25,1.0,1.5,-0.05,-1.11,0.95,59.21,-6.9,-27.1
2.1,0.0,0.25,0.0,0.0,0.75,0.75,0.0,3.0,0.5,6.5,4.25,6.75,9.0,-0.36,-0.11,0.7,472.63,-5.7,-81.3,1.0,0.0,1.0,0.0,0.0,0.25,0.25,0.75,0.25,0.75,0.5,0.75,1.0,3.89,-3.86,1.33,56.44,-7.4,-25.5
2.12,0.0,0.25,0.0,0.25,0.0,0.75,0.0,2.5,0.5,6.5,4.0,6.75,9.0,-0.36,-0.11,0.83,459.22,-5.6,-84.7,1.0,0.0,1.0,0.25,0.0,0.25,0.25,0.0,0.5,0.75,0.0,0.75,1.25,2.02,-1.3,1.64,53.32,-9.9,-20.2
2.14,0.0,0.25,0.0,0.5,0.0,0.75,0.0,2.5,0.5,6.5,4.0,6.75,9.0,-0.42,-0.05,0.95,456.31,-5.4,-83.5,1.0,0.0,0.75,0.5,0.0,0.25,0.0,0.5,0.5,0.75,0.25,0.75,1.0,1.52,-1.11,0.77,54.48,-7.5,-21.1
2.16,0.25,0.0,0.0,0.0,0.0,0.75,0.0,3.0,0.25,5.5,2.75,7.0,8.25,-0.48,-0.11,0.77,435.6,-6.0,-86.0,1.0,0.0,1.0,0.5,0.0,0.25,0.25,0.75,0.25,0.5,0.25,0.75,1.25,1.52,-0.86,0.02,61.32,-8.1,-18.4
2.18,0.0,0.25,0.25,1.0,0.0,0.75,0.0,3.25,0.25,4.5,5.25,6.5,7.25,-0.86,-0.3,0.7,423.48,-3.3,-77.3,1.25,0.25,1.0,0.5,0.0,0.25,0.25,0.75,0.25,0.75,0.0,0.75,1.5,0.83,-0.61,0.14,78.04,-7.4,-13.9
2.2,0.0,0.25,0.0,1.0,0.0,0.75,0.0,3.25,0.25,4.25,5.0,6.25,6.5,-1.8,-0.73,0.39,401.83,-3.5,-77.4,1.0,0.25,1.0,0.5,0.5,0.25,0.25,0.5,0.25,0.75,0.25,0.75,1.5,0.95,-0.42,0.33,95.31,-6.7,-13.3
2.22,0.0,0.25,0.0,1.0,0.0,0.75,0.0,3.0,0.25,4.25,3.75,5.5,6.0,-2.3,-0.92,0.58,377.69,-4.2,-76.2,1.0,0.0,0.75,0.5,0.5,0.25,0.0,0.5,0.25,0.5,0.25,0.75,1.0,0.95,-0.05,0.14,102.1,-7.2,-11.4
2.24,0.0,0.25,0.0,1.0,0.0,0.75,0.0,3.5,0.25,4.0,2.5,4.25,5.75,-1.8,-1.23,0.7,343.85,-5.8,-73.2,1.0,0.0,1.0,0.5,0.5,0.25,0.5,0.5,0.25,0.5,0.25,0.75,1.25,0.52,0.27,0.14,105.39,-8.4,-11.0
2.26,0.25,0.25,0.0,1.0,0.0,0.75,0.0,3.5,0.25,2.5,2.75,3.5,3.75,-1.73,-0.73,0.83,297.43,-4.0,-65.3,1.0,0.0,0.75,0.5,0.5,0.25,0.25,0.25,0.25,0.75,0.5,0.75,1.25,0.33,0.08,0.2,104.31,-7.0,-17.9
2.28,0.75,0.25,0.0,0.75,0.0,0.75,0.0,3.25,0.25,1.5,2.5,2.0,3.25,-1.92,-0.17,1.2,252.97,-3.4,-56.1,1.0,0.0,1.0,0.5,0.5,0.25,0.0,0.5,0.5,0.25,0.25,0.75,1.5,0.02,-0.3,0.08,104.79,-7.8,-14.6
2.3,0.0,0.25,0.0,0.25,0.0,0.75,0.0,1.75,0.0,0.75,0.0,1.25,2.25,-2.05,0.2,1.64,180.47,-9.6,-61.8,1.0,0.0,0.75,0.5,0.5,0.25,0.0,0.75,0.25,0.75,0.25,0.75,1.25,-1.36,-1.23,0.33,104.68,-4.8,-18.2
2.32,0.5,0.0,0.0,0.0,1.5,0.0,0.0,1.75,0.0,0.25,1.75,0.25,1.25,-4.23,0.2,0.33,116.47,-2.6,-32.9,1.0,0.0,0.75,0.5,0.5,0.25,0.0,0.25,0.25,0.5,0.75,0.75,1.25,-0.05,-1.55,-0.23,105.88,-7.6,-18.7
2.34,0.0,0.0,0.0,0.0,0.0,0.0,0.0,0.0,0.0,0.0,0.0,0.0,0.0,-0.61,2.02,3.89,27.58,0.0,0.0,1.0,0.0,1.0,0.5,0.5,0.25,0.0,0.25,0.25,0.75,0.25,0.75,1.25,-0.48,-1.98,0.39,105.22,-7.6,-13.7
2.36,0.0,0.0,0.0,0.0,0.0,0.0,0.0,0.0,0.0,1.5,0.0,0.25,0.0,-1.17,0.83,2.08,0.0,-12.2,-80.3,1.0,0.0,0.75,0.5,0.25,0.25,0.25,0.5,0.25,0.5,0.25,0.75,1.0,-0.36,-1.67,0.33,100.57,-8.2,-13.7
2.38,0.0,0.0,0.0,0.0,0.0,1.0,0.0,1.5,1.25,0.0,0.0,0.0,0.0,-1.48,0.52,2.14,0.0,-8.6,-20.0,1.0,0.0,0.75,0.25,0.25,0.25,0.25,0.5,0.25,0.5,0.0,0.75,1.5,-0.17,-0.8,0.64,95.92,-5.9,-22.4
2.4,0.25,0.0,0.0,0.0,0.0,0.25,1.5,0.0,0.0,0.0,0.0,0.25,0.0,-0.73,0.77,1.7,0.0,19.6,16.2,1.0,0.25,1.0,0.5,0.25,0.25,0.25,0.5,0.25,0.25,0.25,0.75,1.0,0.2,-0.42,0.2,94.01,-10.5,-3.7
2.42,0.0,0.0,0.0,0.0,0.0,0.25,0.0,0.5,0.0,0.0,0.0,0.25,1.0,0.77,0.95,3.27,0.0,-12.7,-75.3,1.0,0.0,1.25,0.5,0.0,0.25,0.0,0.5,0.25,0.5,0.25,0.75,1.25,0.2,-0.36,0.33,93.84,-9.8,-15.3
2.44,0.75,0.0,0.0,0.0,0.0,2.0,0.0,1.5,0.5,0.0,0.0,0.0,1.0,1.83,-0.3,0.58,0.0,-9.2,-10.2,1.0,0.0,0.75,0.5,1.0,0.25,0.0,0.75,0.25,0.25,0.25,0.75,1.0,0.33,-0.23,0.39,97.57,-6.3,-4.6
2.46,0.0,0.0,0.0,0.0,9.0,2.0,2.75,4.0,2.0,1.0,0.75,0.75,0.5,-1.17,1.14,-0.05,103.0,-3.8,6.9,1.0,0.0,1.0,0.5,0.25,0.25,0.0,0.5,0.25,0.5,0.25,0.75,1.5,0.52,-0.23,0.39,100.07,-7.3,-18.9
2.48,0.0,0.0,0.0,0.0,0.0,2.0,2.75,4.5,2.0,0.5,1.0,0.75,0.0,-0.17,-0.23,-0.3,150.2,-3.5,-28.8,1.0,0.0,0.75,0.5,0.25,0.25,0.25,0.5,0.25,0.5,0.5,0.75,1.25,0.77,-0.36,0.45,100.16,-7.4,-19.7
2.5,0.25,0.0,0.25,0.0,0.0,2.25,2.75,3.75,2.0,0.0,2.0,0.0,0.25,0.2,-0.48,0.77,189.21,-0.7,-21.0,1.0,0.25,1.0,0.5,0.0,0.25,0.25,0.5,0.25,0.25,0.25,0.75,1.0,0.64,-0.23,0.14,97.64,-11.2,-6.4
2.52,0.0,0.0,0.5,0.0,0.0,0.25,0.0,0.0,0.0,0.0,0.25,0.0,0.5,0.77,-0.92,0.39,146.88,6.5,-23.4,1.0,0.0,1.0,0.5,0.0,0.25,0.25,0.0,0.25,0.25,0.5,0.75,1.25,0.58,-0.36,-0.05,93.6,-12.4,-15.7
2.54,1.25,0.0,0.0,0.25,0.0,2.25,3.5,4.5,3.0,1.5,1.25,0.5,0.0,0.08,-0.73,0.64,172.54,0.3,-18.8,1.0,0.0,1.25,0.5,0.5,0.25,0.5,0.5,0.25,0.75,0.25,0.75,1.0,0.45,-0.98,-0.05,97.98,-9.4,-7.2
2.56,1.0,0.25,0.25,0.0,0.0,0.75,0.75,1.75,0.25,0.75,1.75,0.25,1.0,-0.55,-0.67,0.39,150.87,1.1,-28.6,1.0,0.0,0.75,0.5,0.0,0.25,0.0,0.0,0.25,0.5,0.0,0.75,1.0,0.39,-1.92,0.2,91.19,-10.7,-13.1
2.58,0.75,0.25,0.0,0.0,0.0,0.75,0.0,1.25,0.25,0.75,0.5,0.25,1.25,-0.67,-0.48,0.45,148.56,-4.7,-34.0,1.0,0.0,0.75,0.5,0.5,0.25,0.25,0.75,0.25,0.5,0.5,0.75,1.0,0.45,-1.98,0.7,95.45,-6.9,-13.9
2.6,0.75,0.0,0.0,0.0,0.0,0.25,0.0,1.5,0.0,0.0,1.75,0.0,1.0,-1.23,-0.61,0.58,120.75,-0.3,-43.1,1.0,0.0,1.0,0.25,0.5,0.25,0.5,0.5,0.25,0.75,0.25,0.75,1.0,0.14,-0.73,0.64,96.77,-8.1,-12.3
2.62,0.0,0.0,0.0,0.0,0.0,0.25,0.0,0.0,0.0,0.0,0.5,0.25,0.25,-2.05,-0.42,0.08,81.24,-1.2,-68.6,1.0,0.0,1.0,0.5,0.25,0.25,0.25,0.5,0.25,0.5,0.25,0.75,1.0,-0.05,-0.23,0.33,98.74,-9.4,-10.7
2.64,0.75,0.25,0.0,0.25,0.0,0.75,0.0,1.0,0.25,0.75,1.25,0.25,1.0,-1.8,-0.05,-0.42,67.16,-1.2,-31.7,1.0,0.0,1.0,0.5,0.25,0.25,0.0,0.75,0.25,0.5,0.25,0.75,1.0,0.08,0.02,0.39,98.12,-8.0,-12.5
2.66,0.75,0.25,0.25,0.5,0.0,0.75,0.0,1.75,0.25,0.75,1.25,0.25,1.0,-1.23,-0.3,-0.73,67.56,-0.8,-26.2,1.0,0.25,0.75,0.5,0.0,0.25,0.25,0.5,0.25,0.5,0.25,0.75,0.5,0.14,0.14,0.39,94.6,-11.0,-3.1
2.68,0.75,0.25,0.0,0.5,0.0,0.75,0.0,1.5,0.25,0.75,1.75,0.25,1.0,-1.8,-0.3,-0.92,80.0,-0.9,-31.8,1.0,0.25,0.75,0.0,0.0,0.25,0.0,0.75,0.5,0.75,0.25,0.75,1.0,0.39,-0.05,0.39,92.39,-5.9,-23.5
2.7,0.75,0.25,0.5,0.0,0.0,0.75,0.0,1.5,0.25,0.75,1.25,0.25,1.0,-1.86,0.33,-0.17,82.57,-0.2,-28.8,1.0,0.25,1.0,0.5,0.0,0.25,0.0,0.25,0.25,0.5,0.0,0.75,1.25,0.89,-0.42,0.52,90.46,-9.8,-10.3
2.72,0.75,0.25,0.0,0.0,0.0,0.5,0.0,1.5,0.25,0.75,1.25,0.0,1.25,-1.42,-0.17,-0.11,97.39,-3.3,-38.4,1.0,0.0,1.0,0.5,0.25,0.25,0.0,0.5,0.25,0.5,0.25,0.75,1.0,1.14,-0.73,0.45,92.17,-9.0,-11.4
2.74,0.75,0.25,0.75,0.0,0.0,0.75,0.0,1.5,0.25,0.75,1.75,0.25,1.0,-1.23,-0.42,-0.3,103.23,1.7,-28.7,1.0,0.0,1.5,0.5,0.25,0.25,0.0,0.5,0.25,0.25,0.25,0.75,1.0,1.27,-0.67,0.27,95.01,-12.2,-3.3
2.76,0.75,0.25,0.0,0.0,0.5,0.75,0.0,1.0,0.25,0.75,1.25,0.25,1.0,-1.11,-0.3,-0.11,103.88,-2.1,-27.8,1.0,0.0,1.0,0.5,0.0,0.25,0.0,0.75,0.25,0.5,0.5,0.75,1.0,1.33,-0.42,0.14,96.72,-8.6,-17.8
2.78,0.75,0.25,0.25,0.0,0.0,0.0,0.0,1.0,0.25,0.75,0.0,0.25,1.0,-0.92,-0.42,-0.11,87.27,0.0,-30.2,1.0,0.0,1.0,0.25,0.5,0.25,0.25,0.5,0.25,0.25,0.75,0.75,1.25,1.2,-0.17,0.14,99.35,-8.7,-16.5
2.8,0.25,0.25,0.0,0.0,0.0,0.0,0.0,1.0,0.25,0.75,1.5,0.25,1.0,-0.67,-0.3,0.14,88.8,-1.9,-58.7,1.0,0.25,0.75,0.5,0.25,0.25,0.0,0.5,0.25,0.5,0.25,0.75,1.0,1.02,-0.11,0.2,99.57,-7.9,-9.8
2.82,0.0,0.25,0.25,0.0,0.0,0.25,0.0,1.25,0.25,0.75,1.25,0.25,1.25,-0.42,-0.23,0.33,88.38,-4.2,-56.6,1.0,0.25,1.0,0.5,0.5,0.25,0.5,0.5,0.25,0.25,0.25,0.75,1.0,0.83,-0.11,0.27,100.83,-10.3,-0.8
2.84,0.25,0.25,0.25,0.0,0.0,0.0,0.0,1.25,0.25,0.75,1.75,0.25,1.0,-0.36,-0.11,0.27,90.71,-0.3,-53.4,1.0,0.0,1.0,0.5,0.25,0.25,0.25,0.75,0.25,0.5,0.0,0.75,1.0,0.2,-0.36,1.08,100.12,-8.3,-9.3
2.86,0.5,0.25,0.5,0.0,0.25,0.0,0.0,1.0,0.25,0.75,1.25,0.25,1.0,-0.55,-0.05,0.14,91.99,2.3,-36.3,1.0,0.0,1.0,0.5,0.5,0.25,0.25,0.75,0.25,0.5,0.0,0.75,0.75,0.83,-0.3,0.02,100.88,-8.7,-2.5
2.88,0.75,0.25,0.25,0.0,0.5,0.25,0.0,1.5,0.25,0.75,1.25,0.25,1.0,-0.61,-0.05,0.02,93.58,-0.3,-29.5,1.0,0.0,1.0,0.5,0.5,0.25,0.0,0.75,0.25,0.25,0.25,0.75,1.0,0.39,-0.36,0.64,100.6,-8.4,-7.1
2.9,0.75,0.25,0.25,0.0,0.0,0.25,0.0,1.25,0.25,0.75,1.25,0.25,1.0,-0.67,-0.11,0.14,93.25,0.5,-36.9,1.0,0.0,1.0,0.5,0.0,0.25,0.0,0.5,0.5,0.5,0.25,0.75,1.0,0.7,-0.23,0.27,99.17,-9.7,-15.5
2.92,0.75,0.25,0.25,0.0,0.0,0.25,0.0,1.25,0.25,0.5,1.0,0.25,1.25,-0.86,-0.23,0.14,92.73,0.2,-36.9,1.0,0.0,1.0,0.5,0.5,0.25,0.0,0.5,0.25,0.5,0.0,0.75,1.0,0.7,-0.05,0.27,97.65,-8.3,-6.0
2.94,0.75,0.25,0.25,0.25,0.0,0.25,0.0,1.0,0.25,0.75,1.25,0.25,1.0,-1.23,-0.42,0.08,92.43,1.9,-32.8,1.0,0.0,0.5,0.25,0.0,0.25,0.0,0.5,0.25,0.5,0.25,0.75,1.25,0.89,0.02,0.27,91.52,-5.4,-29.6
2.96,0.75,0.25,0.25,0.0,0.0,0.25,0.0,1.25,0.25,0.75,1.25,0.25,1.0,-1.48,-0.48,0.02,92.83,0.5,-36.9,1.0,0.0,1.0,0.25,0.0,0.25,0.25,0.5,0.25,0.5,0.75,0.75,1.0,0.89,-0.05,0.39,90.7,-9.8,-21.4
2.98,0.75,0.25,0.0,0.0,0.0,0.0,0.0,0.75,0.25,0.75,1.25,0.25,1.0,-1.36,-0.48,0.02,88.54,1.4,-44.8,1.0,0.25,1.0,0.5,0.5,0.25,0.0,0.75,0.25,0.5,0.25,0.75,1.25,0.95,-0.05,0.27,95.64,-6.9,-9.3
3.0,0.75,0.25,0.0,0.25,0.0,0.5,0.0,1.25,0.25,0.75,1.0,0.25,1.25,-1.23,-0.42,0.08,92.05,-2.0,-35.8,1.0,0.0,1.25,0.5,0.0,0.25,0.25,0.75,0.25,0.5,0.25,0.75,0.75,0.89,-0.17,0.33,97.87,-11.1,-7.8
3.02,0.75,0.25,0.25,0.0,0.0,0.0,0.0,0.75,0.25,0.5,1.5,0.25,1.0,-1.17,-0.23,0.02,89.81,4.4,-39.8,1.0,0.0,1.0,0.5,0.0,0.25,0.25,0.5,0.25,0.5,0.25,0.75,1.25,0.83,-0.23,0.33,98.37,-9.1,-17.6
3.04,0.25,0.25,0.25,0.25,0.0,0.25,0.0,1.25,0.25,0.75,1.25,0.25,1.0,-1.05,-0.17,0.02,89.84,-1.3,-43.3,1.0,0.0,1.0,0.5,0.25,0.25,0.25,0.0,0.25,0.5,0.0,0.75,1.0,0.77,-0.17,0.33,94.47,-11.7,-5.4
3.06,0.75,0.25,0.25,0.0,0.0,0.25,0.0,0.75,0.25,0.75,1.0,0.25,1.0,-0.92,-0.11,0.08,86.04,1.7,-35.0,1.0,0.0,1.0,0.5,0.25,0.25,0.0,0.5,0.25,0.25,0.0,0.75,0.25,0.77,-0.11,0.33,87.68,-13.6,9.9
3.08,0.0,0.25,0.25,0.0,0.0,0.25,0.0,0.75,0.25,0.75,1.0,0.25,1.25,-0.86,-0.05,0.08,83.91,-3.7,-57.5,1.0,0.25,1.25,0.25,0.0,0.25,0.25,0.75,0.25,0.75,0.75,0.75,1.25,0.83,-0.05,0.33,93.51,-8.3,-19.9
3.1,0.0,0.25,0.25,0.0,0.0,0.0,0.0,1.25,0.25,0.75,1.25,0.0,0.75,-0.8,-0.17,0.08,78.97,-2.9,-52.6,1.0,0.0,1.0,0.5,0.5,0.25,0.25,0.5,0.25,0.75,0.5,0.75,1.0,0.89,0.02,0.33,99.26,-8.1,-12.5
3.12,0.25,0.25,0.0,0.0,0.0,0.25,0.0,1.5,0.25,0.75,1.25,0.25,0.75,-0.8,-0.23,0.08,79.35,-4.2,-49.7,1.0,0.0,1.0,0.5,0.25,0.25,0.0,0.5,0.25,0.5,0.5,0.75,1.0,0.95,0.02,0.33,102.79,-9.0,-13.8
3.14,0.75,0.25,0.25,0.25,0.0,0.0,0.0,0.75,0.25,0.75,1.5,0.25,1.25,-0.8,-0.3,0.08,84.21,3.3,-40.0,1.0,0.0,1.5,0.25,0.5,0.25,0.25,0.75,0.25,0.75,0.25,0.75,1.0,0.89,-0.05,0.33,107.59,-8.9,-8.8
3.16,0.75,0.25,0.0,0.0,0.0,0.25,0.0,1.0,0.25,0.75,1.25,0.25,1.0,-0.8,-0.36,0.08,86.75,-0.3,-41.3,1.25,0.25,0.75,0.5,0.0,0.25,0.0,0.75,0.25,0.25,0.5,0.75,1.25,0.83,-0.05,0.33,107.0,-8.6,-13.7
3.18,0.75,0.25,0.5,0.25,0.0,0.5,0.0,1.25,0.25,0.75,0.75,0.25,1.0,-0.8,-0.67,0.14,91.12,1.1,-23.7,1.0,0.0,1.0,0.5,0.5,0.25,0.25,0.5,0.25,0.25,0.25,0.75,1.0,0.7,-0.11,0.39,104.91,-9.8,-5.3
3.2,0.75,0.25,0.25,0.25,0.0,0.5,0.0,0.5,0.25,0.75,1.0,0.25,1.25,-0.86,-0.61,0.45,91.48,1.5,-31.3,1.0,0.0,1.0,0.25,0.5,0.25,0.0,0.5,0.25,0.75,0.25,0.75,1.0,0.77,-0.11,0.39,101.44,-7.2,-13.8
3.22,0.75,0.25,0.0,0.25,0.0,0.0,0.0,0.75,0.25,0.75,1.25,0.25,1.0,-0.92,-0.8,-0.11,89.96,2.2,-39.9,1.0,0.0,1.0,0.25,0.0,0.25,0.0,0.25,0.25,0.5,0.0,0.75,1.0,0.77,-0.11,0.33,93.7,-10.4,-14.2
3.24,0.75,0.25,0.0,0.0,0.0,0.5,0.0,1.25,0.25,0.75,1.0,0.0,1.0,-0.73,-0.67,0.2,87.26,-2.9,-33.6,1.0,0.0,1.0,0.5,0.0,0.25,0.0,0.75,0.25,0.5,0.25,0.75,1.0,0.77,-0.11,0.33,92.16,-8.5,-15.5
3.26,0.75,0.25,0.0,0.25,0.0,0.5,0.0,1.0,0.25,0.5,1.0,0.25,1.0,-0.8,-0.55,0.27,86.63,-0.2,-30.6,1.0,0.0,1.5,0.25,0.0,0.25,0.25,0.5,0.25,0.5,0.25,0.75,0.75,0.83,-0.11,0.33,90.62,-13.1,-6.4
3.28,0.75,0.25,0.25,0.25,0.0,0.5,0.0,0.75,0.25,0.5,0.75,0.25,0.5,-0.8,-0.42,0.27,82.21,3.4,-15.0,1.0,0.0,1.0,0.25,0.0,0.25,0.0,0.5,0.25,0.25,0.25,0.75,1.0,0.77,-0.11,0.39,88.16,-10.4,-15.2
3.3,0.75,0.25,0.25,0.25,0.0,0.0,0.0,1.5,0.25,0.5,1.25,0.25,0.75,-0.8,-0.3,0.2,83.94,2.8,-30.9,1.0,0.0,1.0,0.5,0.25,0.25,0.25,0.75,0.25,0.25,0.25,0.75,0.75,0.77,-0.11,0.33,88.19,-10.3,-5.0
3.32,0.75,0.25,0.25,0.25,0.0,0.0,0.0,0.5,0.25,0.75,1.0,0.25,1.0,-0.86,-0.36,0.2,81.85,4.5,-33.3,1.0,0.0,1.0,0.0,0.5,0.25,0.0,0.5,0.25,0.25,0.0,0.75,1.0,0.77,-0.11,0.33,84.9,-8.6,-8.9
3.34,0.75,0.25,0.25,0.25,0.0,0.0,0.0,0.75,0.25,0.75,1.0,0.25,1.0,-0.92,-0.42,0.2,82.0,3.5,-33.6,1.0,0.0,0.75,0.0,0.25,0.25,0.25,0.5,0.25,0.0,0.25,0.75,0.75,0.77,-0.11,0.33,80.67,-10.9,-10.0
3.36,0.75,0.25,0.0,0.5,0.0,0.0,0.0,1.5,0.25,0.75,0.75,0.25,1.0,-0.92,-0.48,0.2,83.16,-0.2,-32.6,1.0,0.0,0.5,0.25,0.0,0.25,0.0,0.5,0.25,0.25,0.25,0.5,0.75,0.7,-0.11,0.27,73.64,-8.6,-13.3
3.38,0.75,0.25,0.0,0.25,0.0,0.0,0.0,1.25,0.25,0.75,1.0,0.25,1.0,-0.98,-0.48,0.2,85.04,0.1,-38.3,1.0,0.0,0.75,0.25,0.0,0.25,0.0,0.25,0.25,0.0,0.0,0.75,1.0,0.77,-0.05,0.33,68.28,-11.7,-11.7
3.4,0.75,0.25,0.25,0.0,0.0,0.0,0.0,1.25,0.25,0.5,1.0,0.25,0.75,-0.92,-0.42,0.27,83.56,2.6,-32.9,1.0,0.0,0.75,0.25,0.0,0.25,0.0,0.5,0.25,0.0,0.25,0.5,1.25,0.77,-0.05,0.33,67.78,-9.1,-16.3
3.42,0.75,0.25,0.25,0.0,0.0,0.25,0.0,0.75,0.25,0.75,1.25,0.25,1.0,-0.86,-0.36,0.27,84.09,2.1,-36.7,1.25,0.25,0.75,0.5,0.25,0.25,0.0,0.5,0.25,0.0,0.25,0.5,0.75,0.77,-0.11,0.33,72.88,-12.2,9.8
3.44,0.75,0.25,0.0,0.25,0.0,0.0,0.0,1.25,0.25,0.75,1.75,0.25,1.0,-0.8,-0.3,0.2,89.36,1.3,-42.5,1.0,0.5,0.75,0.5,0.25,0.25,0.0,0.5,0.25,0.25,0.25,0.5,0.75,0.83,-0.11,0.33,80.05,-10.1,6.5
3.46,0.75,0.25,0.0,0.25,0.0,0.25,0.0,1.25,0.25,0.75,1.0,0.25,1.0,-0.86,-0.3,0.2,91.4,-0.7,-35.4,1.25,0.0,0.75,0.25,0.25,0.25,0.0,0.5,0.25,0.5,0.25,0.5,0.75,0.83,-0.11,0.33,84.13,-9.4,-4.4
3.48,0.75,0.0,0.0,0.25,0.0,0.0,0.0,1.25,0.25,0.75,1.25,0.25,0.75,-0.86,-0.3,0.14,90.88,0.7,-43.1,1.25,0.0,0.75,0.0,0.25,0.5,0.0,0.5,0.0,0.25,0.25,0.5,0.75,0.83,-0.05,0.33,82.4,-8.6,-0.6
3.5,0.75,0.25,0.0,0.75,0.0,0.0,0.0,1.25,0.25,0.5,1.0,0.25,0.5,-0.92,-0.36,0.14,88.26,3.8,-20.6,1.0,0.5,0.75,0.5,0.25,0.25,0.0,0.5,0.0,0.25,0.25,0.5,0.75,0.83,-0.05,0.27,83.65,-10.0,8.5
3.52,1.0,0.25,0.25,0.25,0.0,0.0,0.0,1.25,0.25,0.75,1.0,0.25,1.0,-0.92,-0.42,0.14,88.96,3.0,-29.0,1.0,0.0,0.75,0.0,0.25,0.25,0.0,0.5,0.25,0.0,0.25,0.25,0.75,0.83,-0.05,0.33,77.78,-10.5,0.6
3.54,1.0,0.25,0.0,0.25,0.0,0.0,0.25,1.25,0.25,0.5,1.0,0.25,1.0,-0.92,-0.36,0.2,87.52,2.9,-29.9,1.0,0.0,0.75,0.0,0.25,0.25,0.25,0.5,0.25,0.5,0.25,0.5,0.75,0.83,-0.05,0.27,76.94,-8.4,-11.5
3.56,0.75,0.25,0.0,0.25,0.0,0.0,0.0,1.0,0.25,0.75,1.0,0.25,1.0,-0.86,-0.3,0.14,87.3,0.9,-38.3,1.0,0.0,0.75,0.5,0.25,0.25,0.0,0.5,0.25,0.0,0.25,0.5,1.0,0.83,-0.05,0.27,77.79,-9.9,-4.2
3.58,1.0,0.25,0.0,0.0,0.0,0.0,0.0,1.25,0.25,0.5,1.0,0.25,1.0,-0.86,-0.3,0.14,85.27,1.5,-35.4,1.0,0.0,0.75,0.5,0.25,0.25,0.0,0.5,0.25,0.0,0.25,0.75,0.75,0.83,-0.05,0.27,80.42,-11.0,-4.0
3.6,0.75,0.25,0.25,0.0,0.0,0.0,0.0,1.0,0.25,0.5,1.25,0.0,1.0,-0.92,-0.3,0.14,82.25,2.8,-34.7,1.0,0.0,0.5,0.5,0.0,0.25,0.0,0.5,0.25,0.0,0.25,0.5,0.75,0.83,-0.05,0.33,77.06,-10.5,-5.6
3.62,0.75,0.25,0.25,0.5,0.0,0.0,0.0,0.75,0.25,0.5,1.0,0.25,1.0,-0.98,-0.3,0.14,80.83,5.0,-27.3,1.0,0.0,0.5,0.25,0.25,0.25,0.0,0.5,0.25,0.5,0.25,0.5,1.0,0.77,-0.05,0.33,77.22,-5.7,-17.3
3.64,0.75,0.25,0.25,0.0,0.0,0.5,0.0,1.25,0.25,0.5,0.75,0.25,1.0,-0.98,-0.3,0.14,81.33,-0.5,-29.0,1.0,0.0,0.75,0.5,0.0,0.25,0.25,0.0,0.25,0.25,0.25,0.5,0.75,0.83,-0.05,0.33,73.64,-14.2,-1.2
3.66,0.75,0.25,0.25,0.5,0.0,0.5,0.0,1.25,0.25,0.75,0.5,0.25,1.0,-1.05,-0.23,0.14,84.78,0.0,-21.7,1.0,0.0,0.75,0.5,0.25,0.25,0.25,0.75,0.25,0.0,0.25,0.75,0.75,0.83,-0.05,0.33,77.0,-10.2,-4.9
3.68,0.75,0.25,0.25,0.25,0.0,0.25,0.0,0.75,0.25,0.75,0.75,0.25,0.5,-1.05,-0.23,0.14,81.95,3.7,-20.3,1.0,0.0,0.75,0.5,0.25,0.25,0.0,0.5,0.25,0.25,0.5,0.5,1.0,0.83,-0.05,0.27,81.04,-8.8,-10.3
3.7,0.75,0.25,0.25,0.25,0.0,0.25,0.0,1.5,0.25,0.5,0.75,0.25,1.0,-0.98,-0.23,0.14,84.69,0.4,-28.1,1.0,0.0,0.75,0.25,0.25,0.25,0.25,0.5,0.25,0.25,0.25,0.5,0.75,0.83,-0.05,0.33,83.16,-10.0,-4.8
3.72,0.75,0.25,0.25,0.25,0.0,0.25,0.0,1.5,0.25,0.75,1.0,0.25,0.75,-0.98,-0.23,0.14,86.66,0.7,-28.4,1.0,0.0,1.0,0.5,0.25,0.25,0.0,0.25,0.25,0.25,0.25,0.5,0.75,0.83,-0.05,0.27,83.79,-12.5,2.3
3.74,0.75,0.25,0.25,0.5,0.0,0.0,0.0,1.25,0.25,0.5,0.0,0.0,1.0,-0.92,-0.23,0.14,83.08,1.4,-14.4,1.0,0.0,0.75,0.25,0.0,0.25,0.25,0.25,0.25,0.0,0.0,0.5,0.75,0.83,-0.05,0.27,77.17,-14.1,1.5
3.76,0.75,0.25,0.25,0.25,0.0,0.0,0.0,1.5,0.25,0.5,1.0,0.25,0.5,-0.92,-0.23,0.14,81.49,3.2,-25.2,1.0,0.25,0.75,0.5,0.0,0.25,0.25,0.5,0.25,0.0,0.25,0.75,1.0,0.77,-0.05,0.27,79.43,-11.1,-6.5
3.78,1.0,0.25,0.0,0.25,0.0,0.0,0.0,1.25,0.25,0.75,1.0,0.25,1.25,-0.98,-0.3,0.2,85.06,0.9,-36.1,0.75,0.0,1.75,0.5,0.5,0.25,0.0,0.0,0.25,0.0,0.0,0.5,0.75,0.77,-0.05,0.27,80.1,-17.1,18.4
3.8,0.75,0.25,0.25,0.25,0.0,0.25,0.0,1.0,0.25,0.5,0.0,0.25,1.25,-0.98,-0.3,0.14,82.7,0.0,-24.3,1.0,0.0,0.75,0.25,0.0,0.25,0.25,0.0,0.25,0.25,0.0,0.5,1.0,0.77,0.02,0.27,77.77,-12.5,-7.1
3.82,1.0,0.25,0.0,0.25,0.0,0.0,0.0,1.25,0.25,0.5,0.5,0.25,1.25,-0.92,-0.23,0.14,82.53,0.8,-30.8,1.0,0.0,0.0,0.25,0.0,0.25,0.25,0.5,0.25,0.25,0.25,0.5,1.0,0.83,0.02,0.33,72.85,-4.4,-26.8
3.84,0.75,0.25,0.25,0.25,0.0,0.0,0.0,1.25,0.25,0.5,1.0,0.25,1.0,-0.92,-0.23,0.14,83.14,2.5,-32.2,1.0,0.0,1.0,0.5,0.0,0.25,0.0,0.0,0.25,0.0,0.0,0.5,0.75,0.83,-0.05,0.33,69.09,-17.1,10.2
3.86,0.75,0.25,0.25,0.25,0.0,0.0,0.0,0.75,0.25,0.5,1.0,0.0,0.25,-0.86,-0.23,0.14,76.85,7.5,-12.5,1.0,0.0,0.75,0.5,0.25,0.25,0.0,0.0,0.25,0.0,0.0,0.5,1.0,0.83,-0.05,0.27,67.02,-12.8,3.3
3.88,1.0,0.25,0.0,0.25,0.0,0.25,0.0,1.25,0.25,0.75,1.0,0.25,1.0,-0.92,-0.23,0.2,80.03,0.6,-30.4,1.0,0.0,0.75,0.5,0.0,0.25,0.0,0.5,0.25,0.0,0.25,0.5,0.75,0.83,-0.05,0.27,67.96,-12.0,-2.0
3.9,0.75,0.25,0.25,0.5,0.0,0.5,0.0,0.75,0.25,0.75,0.75,0.25,0.75,-0.92,-0.23,0.2,81.62,2.4,-18.5,1.0,0.0,1.0,0.25,0.0,0.25,0.25,0.25,0.25,0.0,0.25,0.5,0.75,0.83,-0.05,0.33,69.09,-15.3,0.8
3.92,0.75,0.25,0.25,0.5,0.0,0.0,0.0,1.25,0.25,0.75,0.5,0.25,0.75,-0.98,-0.23,0.2,84.28,2.4,-22.4,1.0,0.0,0.75,0.25,0.0,0.25,0.0,0.0,0.25,0.25,0.0,0.5,1.0,0.77,-0.05,0.33,68.1,-12.0,-8.1
3.94,0.5,0.0,0.0,0.25,0.0,0.0,0.0,1.25,0.25,0.75,1.0,0.25,0.75,-0.98,-0.23,0.14,81.63,-1.3,-48.1,1.0,0.0,1.25,0.5,0.0,0.25,0.25,0.5,0.25,0.0,0.25,0.5,0.75,0.83,-0.05,0.33,73.05,-15.0,4.6
3.96,0.75,0.25,0.25,0.25,0.0,0.0,0.0,0.75,0.25,0.75,0.75,0.25,0.5,-0.98,-0.17,0.14,78.23,5.0,-23.1,1.0,0.0,1.5,0.5,0.0,0.25,0.0,0.0,0.25,0.0,0.0,0.5,1.25,0.83,-0.05,0.27,76.74,-16.1,3.5
3.98,0.75,0.25,0.25,0.5,0.0,0.0,0.0,1.25,0.25,0.75,1.0,0.25,1.0,-0.98,-0.17,0.14,81.96,2.4,-30.1,1.0,0.0,1.25,0.25,0.0,0.25,0.0,0.5,0.25,0.0,0.25,0.5,0.75,0.83,-0.05,0.27,79.64,-14.4,1.3
4.0,0.75,0.0,0.0,0.5,0.0,0.0,0.0,1.25,0.25,0.75,1.0,0.25,0.5,-0.98,-0.11,0.14,80.39,1.8,-33.2,1.0,0.0,0.5,0.25,0.0,0.25,0.0,0.5,0.0,0.0,0.25,0.5,1.0,0.83,-0.05,0.27,74.89,-8.5,-14.0
4.02,0.75,0.0,0.25,0.0,0.0,0.0,0.0,1.0,0.25,0.75,1.25,0.25,1.0,-0.98,-0.11,0.14,83.42,1.8,-46.3,1.0,0.0,0.75,0.25,0.25,0.25,0.0,0.25,0.25,0.25,0.25,0.5,0.75,0.83,-0.05,0.27,74.46,-10.8,-3.9
4.04,0.75,0.25,0.25,0.5,0.0,0.0,0.0,1.25,0.25,0.5,1.0,0.0,1.0,-0.98,-0.11,0.08,84.78,2.9,-24.7,1.0,0.0,1.75,0.5,0.0,0.25,0.0,0.5,0.25,0.25,0.25,0.5,0.75,0.83,-0.05,0.27,80.63,-15.3,5.6
4.06,0.75,0.25,0.25,0.25,0.0,0.0,0.0,1.25,0.25,0.5,1.0,0.0,1.0,-0.98,-0.17,0.14,84.52,2.3,-28.7,1.0,0.0,0.75,0.25,0.0,0.25,0.0,0.5,0.25,0.25,0.25,0.5,0.75,0.83,0.02,0.33,79.95,-10.2,-9.2
4.08,0.75,0.25,0.25,0.25,0.0,0.0,0.0,1.0,0.25,0.5,0.75,0.0,0.25,-0.98,-0.17,0.14,77.48,5.8,-10.5,1.0,0.0,0.75,0.0,0.0,0.25,0.0,0.25,0.25,0.25,0.0,0.5,1.0,0.83,-0.05,0.27,76.45,-9.9,-14.0
4.1,0.75,0.25,0.25,1.0,0.0,0.0,0.0,1.5,0.25,0.5,0.75,0.0,1.0,-0.98,-0.17,0.14,82.04,3.0,-16.4,1.0,0.0,0.75,0.25,0.0,0.25,0.0,0.5,0.25,0.0,0.25,0.5,0.75,0.83,-0.05,0.27,72.36,-11.7,-5.5
4.12,0.75,0.25,0.0,0.25,0.0,0.25,0.0,1.25,0.25,0.5,1.0,0.0,0.75,-0.92,-0.17,0.14,79.22,0.1,-26.2,1.0,0.0,1.0,0.25,0.25,0.25,0.0,0.25,0.25,0.25,0.0,0.5,0.75,0.83,-0.05,0.33,71.42,-12.3,3.2
4.14,0.75,0.25,0.25,0.5,0.0,0.25,0.0,1.25,0.25,0.5,1.0,0.25,0.75,-0.98,-0.17,0.14,84.27,2.9,-22.2,1.0,0.0,0.75,0.0,0.25,0.25,0.0,0.75,0.0,0.25,0.25,0.5,0.75,0.83,-0.05,0.33,71.01,-7.5,-9.2
4.16,0.75,0.25,0.25,0.5,0.0,0.5,0.0,1.25,0.25,0.5,0.75,0.25,1.0,-0.98,-0.17,0.14,87.71,0.9,-21.7,1.0,0.0,1.25,0.5,0.0,0.25,0.5,0.5,0.25,0.0,0.25,0.5,0.75,0.83,-0.05,0.27,76.58,-15.4,5.1
4.18,0.75,0.0,0.0,0.5,0.0,0.0,0.0,1.25,0.25,0.75,1.0,0.25,0.75,-0.98,-0.17,0.14,88.75,1.0,-36.8,1.0,0.0,0.5,0.5,0.25,0.25,0.25,0.5,0.25,0.0,0.25,0.5,1.0,0.83,0.02,0.27,78.37,-9.0,-6.8
4.2,0.75,0.25,0.25,0.5,0.0,0.0,0.0,1.25,0.25,0.5,1.0,0.25,1.0,-0.98,-0.17,0.14,88.92,3.2,-28.2,1.0,0.0,1.0,0.5,0.0,0.25,0.25,0.5,0.25,0.0,0.25,0.5,0.75,0.83,-0.05,0.27,80.54,-13.8,1.8
4.22,1.0,0.25,0.25,0.25,0.0,0.25,0.0,1.25,0.25,0.5,0.75,0.25,1.0,-0.98,-0.11,0.14,88.5,2.5,-22.7,1.0,0.0,1.5,0.25,0.25,0.25,0.0,0.25,0.0,0.25,0.25,0.5,0.75,0.83,-0.05,0.27,82.06,-14.8,7.2
4.24,0.75,0.25,0.25,0.25,0.0,0.25,0.0,1.25,0.25,0.75,0.75,0.25,1.0,-0.98,-0.11,0.14,90.0,0.4,-29.6,1.0,0.0,0.75,0.5,0.0,0.25,0.25,0.5,0.25,0.0,0.25,0.5,1.0,0.77,-0.05,0.27,82.05,-11.2,-6.8
4.26,0.75,0.0,0.25,0.0,0.0,0.0,0.0,1.5,0.25,0.5,1.0,0.25,1.0,-0.98,-0.17,0.2,88.32,0.5,-43.0,1.0,0.0,0.75,0.5,0.0,0.25,0.25,0.5,0.25,0.0,0.25,0.5,1.0,0.77,-0.05,0.27,80.66,-11.2,-6.8
4.28,1.0,0.25,0.25,0.25,0.0,0.0,0.0,1.25,0.25,0.75,0.75,0.25,0.75,-0.98,-0.11,0.14,87.87,3.5,-23.4,1.25,0.0,1.0,0.5,0.5,0.25,0.0,0.25,0.25,0.0,0.5,0.5,1.0,0.77,-0.05,0.27,85.19,-12.6,3.7
4.3,0.5,0.0,0.25,0.5,0.0,0.0,0.0,1.5,0.25,0.5,1.0,0.25,0.5,-0.98,-0.11,0.14,84.8,2.0,-32.6,1.0,0.0,0.75,0.0,0.0,0.25,0.0,0.75,0.25,0.5,0.0,0.5,0.75,0.77,-0.05,0.27,83.4,-7.0,-14.7
4.32,1.0,0.0,0.25,0.0,0.0,0.0,0.0,1.0,0.25,0.5,1.0,0.25,1.0,-0.98,-0.17,0.2,82.26,3.7,-37.1,1.0,0.0,0.75,0.0,0.0,0.25,0.25,0.25,0.25,0.25,0.25,0.5,0.75,0.77,-0.05,0.27,78.52,-12.0,-10.6
4.34,0.75,0.25,0.25,0.25,0.0,0.0,0.0,1.25,0.25,0.75,0.75,0.25,0.75,-0.98,-0.17,0.14,79.79,2.1,-28.6,1.0,0.0,1.0,0.5,0.25,0.25,0.0,0.25,0.25,0.25,0.25,0.5,0.75,0.83,-0.05,0.27,77.23,-12.5,2.3
4.36,1.0,0.25,0.25,0.5,0.0,0.0,0.0,1.0,0.25,0.5,1.0,0.25,1.0,-0.98,-0.17,0.14,82.78,5.3,-22.9,1.0,0.0,0.75,0.0,0.0,0.25,0.0,0.25,0.25,0.25,0.0,0.5,1.0,0.83,-0.05,0.27,71.87,-9.9,-14.0
4.38,0.25,0.0,0.25,0.0,0.0,0.25,0.0,0.25,0.25,0.5,1.0,0.25,1.0,-0.98,-0.17,0.2,76.3,0.5,-56.4,1.0,0.0,1.5,0.0,0.25,0.25,0.25,0.5,0.0,0.25,0.25,0.5,0.75,0.83,-0.05,0.27,74.85,-13.6,3.0
4.4,1.0,0.25,0.25,0.25,0.0,0.25,0.0,0.0,0.25,0.5,0.5,0.25,1.0,-0.98,-0.11,0.14,72.2,7.4,-15.3,1.0,0.0,0.75,0.25,0.0,0.25,0.0,0.0,0.0,0.0,0.0,0.5,0.75,0.83,-0.05,0.27,67.36,-15.8,6.4
4.42,0.25,0.0,0.25,0.25,0.0,0.0,0.0,0.0,0.25,0.75,1.0,0.25,0.75,-0.98,-0.11,0.14,64.94,4.2,-52.8,1.0,0.0,0.5,0.5,0.0,0.25,0.0,0.5,0.25,0.0,0.25,0.5,0.75,0.83,-0.05,0.27,67.63,-10.5,-5.6
4.44,0.75,0.25,0.0,0.5,0.0,0.0,0.0,0.25,0.25,0.5,1.0,0.25,1.0,-0.98,-0.11,0.14,63.99,5.5,-30.9,1.0,0.0,0.5,0.5,0.0,0.25,0.0,0.25,0.25,0.25,0.0,0.5,1.0,0.83,-0.05,0.27,64.68,-9.1,-9.9
4.46,0.5,0.25,0.25,0.0,0.0,0.0,0.0,0.0,0.25,0.5,1.5,0.25,1.0,-0.98,-0.11,0.14,63.9,6.3,-47.1,0.75,0.0,0.75,0.5,1.0,0.25,0.0,0.25,0.25,0.0,0.0,0.5,1.0,0.83,0.02,0.27,71.46,-7.9,5.3
4.48,0.0,0.0,0.25,0.0,0.0,0.0,0.0,0.0,0.25,0.75,1.0,0.25,1.0,-0.98,-0.11,0.14,62.71,-0.1,-75.4,1.0,0.0,1.0,0.5,0.0,0.25,0.25,0.5,0.25,0.25,0.25,0.5,0.75,0.83,-0.05,0.27,76.2,-12.4,-1.8
4.5,0.25,0.25,0.25,0.75,0.0,0.0,0.0,0.75,0.25,0.75,0.5,0.25,1.0,-0.98,-0.17,0.2,66.25,1.3,-32.2,1.0,0.0,1.0,0.0,0.25,0.25,0.0,0.0,0.0,0.5,0.25,0.5,0.75,0.83,-0.05,0.27,76.73,-12.0,-3.9
4.52,0.0,0.25,0.0,0.0,0.0,0.0,0.0,0.25,0.25,0.5,1.0,0.25,0.5,-0.98,-0.11,0.2,59.89,0.0,-63.1,1.0,0.0,1.5,0.5,0.25,0.25,0.0,0.5,0.0,0.0,0.25,0.75,0.75,0.83,0.02,0.27,81.75,-14.6,6.0
