time,left pressure 0[N/cm²],left pressure 1[N/cm²],left pressure 2[N/cm²],left pressure 3[N/cm²],left pressure 4[N/cm²],left pressure 5[N/cm²],left pressure 6[N/cm²],left pressure 7[N/cm²],left pressure 8[N/cm²],left pressure 9[N/cm²],left pressure 10[N/cm²],left pressure 11[N/cm²],left pressure 12[N/cm²],left acceleration X[g],left acceleration Y[g],left acceleration Z[g],left total force[N],left center of pressure X[mm],left center of pressure Y[mm],right pressure 0[N/cm²],right pressure 1[N/cm²],right pressure 2[N/cm²],right pressure 3[N/cm²],right pressure 4[N/cm²],right pressure 5[N/cm²],right pressure 6[N/cm²],right pressure 7[N/cm²],right pressure 8[N/cm²],right pressure 9[N/cm²],right pressure 10[N/cm²],right pressure 11[N/cm²],right pressure 12[N/cm²],right acceleration X[g],right acceleration Y[g],right acceleration Z[g],right total force[N],right center of pressure X[mm],right center of pressure Y[mm]
0.02,0.0,0.0,0.5,0.5,0.0,0.0,0.0,0.0,0.25,3.25,0.5,3.0,3.0,0.39,-0.36,0.7,96.78,-2.6,-80.8,3.5,0.5,0.0,3.25,3.25,0.0,0.25,1.0,0.5,2.25,0.25,0.0,0.0,0.2,0.77,2.7,332.13,-8.4,34.9
0.04,0.0,0.0,0.0,0.0,0.0,0.0,0.0,0.0,0.75,4.5,1.5,4.5,6.25,0.95,0.45,2.02,177.95,-5.3,-95.2,0.25,0.0,0.0,0.75,1.25,0.0,0.0,0.75,0.0,0.0,0.0,0.0,0.0,0.08,0.39,2.27,166.38,-1.3,36.2
0.06,0.0,0.0,0.0,0.0,0.0,0.0,0.0,0.0,0.75,5.75,4.25,5.0,6.75,-0.73,0.27,1.77,262.65,-3.9,-92.4,0.0,0.0,0.0,0.5,0.0,0.0,0.0,1.0,0.0,0.25,0.5,0.0,0.75,0.83,0.33,2.08,16.88,5.6,-49.0
0.08,0.0,0.0,0.0,0.5,0.0,0.5,0.0,4.75,1.0,6.5,4.75,5.0,6.75,-0.23,0.33,1.2,357.05,-5.8,-78.1,0.75,0.25,1.25,0.5,1.0,0.0,0.0,0.5,0.0,0.5,0.0,0.0,0.0,1.02,-1.3,1.83,0.0,-13.3,42.1
0.1,0.0,0.0,0.0,0.0,0.0,0.0,0.0,5.25,0.5,6.75,5.0,5.25,6.75,-0.17,0.08,0.95,439.25,-6.2,-82.5,0.0,0.0,0.0,0.5,0.0,0.0,0.0,0.0,0.25,0.0,0.0,0.0,0.0,0.77,-1.05,0.52,0.0,-15.5,27.0
0.12,0.0,0.0,0.0,0.0,0.0,0.5,0.0,5.5,1.0,6.75,5.0,5.5,6.75,-0.17,0.14,1.02,506.57,-6.1,-79.9,0.75,0.25,0.0,0.75,0.0,0.5,0.0,1.0,0.25,0.0,0.0,0.0,0.0,0.64,-0.86,1.39,0.0,-4.8,31.0
0.14,0.0,0.0,0.0,1.0,1.75,0.75,0.25,5.75,1.0,6.75,5.75,5.5,6.75,-0.17,0.08,0.95,561.3,-5.0,-66.6,0.5,0.25,0.0,0.75,1.75,1.25,0.25,1.25,0.5,2.0,0.75,0.0,0.5,0.14,-0.48,0.52,0.0,4.3,-6.2
0.16,0.75,0.0,0.0,0.5,2.0,1.5,0.25,6.0,2.0,6.75,6.25,5.75,6.75,-0.11,0.08,0.95,615.49,-4.2,-62.1,0.0,0.25,1.75,1.0,1.75,1.25,0.0,1.0,0.5,2.25,0.25,0.0,0.25,0.2,-0.42,0.39,0.0,-0.9,6.6
0.18,0.0,0.0,0.0,1.5,2.0,1.0,0.25,6.0,2.0,6.75,6.25,5.5,6.75,-0.11,0.08,0.95,649.33,-4.2,-62.6,0.0,0.25,0.75,0.75,2.25,1.0,0.25,1.0,0.5,2.0,0.25,0.0,0.5,0.33,-0.36,0.64,27.88,2.7,0.9
0.2,0.0,0.0,0.0,1.25,0.0,1.75,0.25,6.0,2.0,6.75,6.25,5.25,6.75,-0.11,0.08,0.95,656.21,-4.9,-68.7,0.0,0.5,1.0,0.75,1.5,1.0,0.0,0.75,0.5,2.25,0.25,0.0,0.5,0.45,-0.3,0.83,74.35,1.5,-0.9
0.22,0.25,0.0,0.0,1.75,0.5,1.5,0.5,6.0,2.0,6.25,5.75,5.0,6.25,-0.17,0.08,0.95,636.44,-4.1,-63.0,0.0,0.25,2.25,0.75,2.25,1.25,0.0,1.0,0.5,2.25,0.25,0.0,0.5,0.45,-0.17,0.89,122.22,-1.6,7.6
0.24,0.0,0.0,0.0,1.5,2.0,1.25,0.75,6.0,2.25,6.0,6.0,4.75,6.0,-0.17,0.08,0.95,606.57,-3.9,-58.9,0.25,0.25,1.0,0.75,1.75,1.0,0.0,0.75,0.5,2.25,0.25,0.0,0.5,0.52,0.14,0.83,143.67,1.0,0.4
0.26,1.0,0.0,0.0,2.0,3.25,1.25,0.75,6.0,2.75,5.75,5.75,4.0,5.5,-0.11,0.08,0.95,578.63,-2.6,-47.0,0.0,0.25,0.75,0.75,1.75,1.25,0.0,1.0,0.5,2.0,0.25,0.0,0.5,0.58,0.33,0.95,156.77,3.6,-1.8
0.28,0.0,0.0,0.25,2.5,3.25,2.5,0.75,5.75,2.75,4.75,5.5,3.25,4.5,-0.11,0.08,0.95,543.59,-3.2,-41.7,0.5,0.25,1.5,0.75,1.25,1.0,0.25,1.0,0.5,2.25,0.25,0.0,0.25,0.52,0.33,1.14,164.13,-2.3,5.0
0.3,0.0,0.5,0.0,2.5,3.5,2.5,1.0,5.5,3.0,4.5,5.25,3.0,4.0,-0.11,0.08,0.95,510.93,-2.9,-37.4,0.5,0.25,0.75,0.75,2.25,1.25,0.0,1.0,0.5,2.25,0.25,0.0,1.25,0.52,0.45,1.39,168.59,3.0,-3.8
0.32,0.5,0.5,1.5,1.75,4.75,2.5,1.0,5.5,2.75,3.5,4.0,2.0,2.75,-0.11,0.08,0.95,467.2,-1.1,-21.7,0.0,0.0,0.75,0.75,1.5,1.0,0.25,1.0,0.5,2.25,0.25,0.0,0.25,0.52,0.64,1.58,158.59,3.1,-6.2
0.34,1.75,0.75,1.75,5.75,5.0,2.75,1.0,5.5,3.0,3.25,4.0,1.5,1.75,-0.11,0.08,0.95,470.61,2.6,-3.1,0.5,0.25,2.25,0.75,1.75,1.0,0.0,1.0,0.5,2.25,0.25,0.0,0.5,0.58,0.7,1.64,165.14,-3.8,8.4
0.36,2.5,1.0,2.25,6.25,5.75,3.0,1.0,5.5,2.75,2.0,3.0,1.0,1.5,-0.11,0.08,0.95,481.21,4.0,9.2,0.0,0.0,1.25,0.75,1.5,1.0,0.0,1.0,0.5,2.0,0.25,0.0,0.25,0.77,0.77,1.83,151.29,0.8,-0.7
0.38,2.75,0.75,3.0,7.75,6.25,2.75,1.25,5.25,2.5,1.5,2.75,1.0,1.5,-0.11,0.08,0.95,512.97,5.7,14.8,0.5,0.25,0.75,0.75,1.5,1.0,0.0,0.75,0.5,2.0,0.25,0.0,0.5,0.83,1.2,2.27,142.7,0.7,1.6
0.4,2.75,0.75,3.0,8.25,7.0,3.75,1.5,4.75,2.25,1.5,2.25,1.0,1.5,-0.11,0.08,0.95,546.54,5.3,18.8,0.25,0.0,1.5,0.75,1.5,1.0,0.25,1.0,0.5,2.0,0.25,0.0,0.5,0.58,1.77,2.02,138.62,-1.1,0.7
0.42,2.75,1.25,3.0,9.0,7.75,4.0,1.5,4.75,2.0,1.5,1.75,1.0,1.0,-0.11,0.08,0.95,586.33,5.4,24.3,0.5,0.25,1.0,0.75,1.5,1.0,0.25,1.0,0.5,1.75,0.25,0.0,0.25,0.08,2.58,1.7,138.61,-1.0,7.8
0.44,4.25,1.0,3.0,10.0,7.75,3.75,1.75,4.5,1.5,1.0,1.5,0.5,0.75,-0.11,0.08,0.95,615.08,7.2,32.5,0.0,0.0,0.75,0.5,1.75,0.0,0.25,1.0,0.0,0.0,0.25,0.0,0.25,-0.42,2.83,0.83,116.94,-3.6,21.0
0.46,4.25,1.75,4.5,11.5,8.25,3.75,1.75,3.75,1.0,1.0,1.0,0.25,0.5,-0.11,0.08,0.95,653.62,9.1,40.7,0.0,0.0,0.0,0.0,0.0,0.0,0.0,0.0,0.0,0.0,0.0,0.0,0.0,-1.23,3.52,0.7,70.1,0.0,0.0
0.48,4.25,2.0,4.75,11.5,8.5,3.75,1.5,3.5,0.75,0.75,1.0,0.0,0.25,-0.11,0.14,0.95,680.33,9.5,44.6,0.75,0.25,0.0,0.75,1.75,0.0,0.0,1.0,0.5,2.0,0.25,0.0,0.5,-2.05,4.33,0.33,70.41,1.5,-4.4
0.5,6.0,2.5,6.0,12.5,9.0,4.0,1.75,2.75,0.0,0.75,0.75,0.0,0.5,-0.11,0.14,1.02,730.98,11.4,50.2,0.75,0.25,0.75,0.0,1.5,0.5,0.0,1.0,0.25,2.25,0.25,0.0,0.5,-3.05,3.33,2.02,76.7,1.5,-5.2
0.52,5.5,2.5,6.0,14.0,9.25,3.75,1.75,2.75,0.0,0.5,0.75,0.0,0.5,-0.17,0.14,1.08,776.68,11.6,50.7,0.0,0.0,0.75,0.5,0.0,0.0,0.0,1.0,0.0,3.75,0.25,0.5,2.0,1.64,-0.67,2.58,102.29,6.5,-61.4
0.54,0.0,0.0,6.25,7.0,9.25,0.0,1.5,2.5,0.0,0.0,0.0,0.0,0.0,-0.11,0.2,1.02,663.6,11.5,47.4,0.0,0.0,0.0,0.5,0.5,0.5,0.0,1.0,0.0,4.0,0.25,3.5,6.25,0.33,-0.61,1.2,164.09,8.2,-81.9
0.56,0.0,0.0,0.0,7.0,0.0,0.0,0.0,0.0,0.0,0.0,0.0,0.0,0.0,-0.17,0.2,1.08,421.2,17.2,57.9,0.0,0.0,0.0,0.75,0.0,0.5,0.0,1.0,0.5,7.75,3.5,5.75,8.25,-1.36,1.33,2.27,266.46,5.6,-85.3
0.58,7.25,3.25,6.0,14.0,8.5,0.0,1.0,1.75,0.25,0.0,0.75,0.0,0.25,-0.17,0.27,1.02,427.0,16.4,58.7,0.0,0.25,0.5,0.25,1.5,0.5,0.25,3.75,0.5,8.75,6.25,6.5,8.25,0.7,0.02,2.58,391.21,4.6,-73.3
0.6,7.25,3.25,6.75,12.5,8.5,1.25,0.75,2.0,0.25,0.5,0.75,0.0,0.25,-0.23,0.27,1.2,482.71,15.2,56.2,0.5,0.25,0.75,0.75,1.75,2.25,0.0,5.25,0.75,9.25,6.5,6.25,8.25,0.02,0.33,1.2,554.94,4.9,-62.7
0.62,8.25,2.5,6.75,11.0,7.75,0.0,0.0,1.25,0.5,0.5,0.0,0.0,0.25,-0.23,0.33,1.33,573.95,17.6,60.8,0.75,0.25,1.25,0.75,1.0,2.25,0.0,5.75,1.25,9.25,6.5,6.0,8.25,0.14,0.08,0.95,683.83,4.2,-61.9
0.64,8.0,2.5,6.0,10.5,0.0,0.0,0.0,0.0,0.5,0.25,0.75,0.0,0.25,-0.42,0.39,1.39,547.61,25.0,64.9,0.5,0.25,0.75,0.75,1.75,2.25,0.0,6.0,1.25,9.25,6.5,6.0,8.25,0.14,0.08,0.95,761.73,5.0,-61.7
0.66,7.75,1.5,4.5,9.0,0.0,0.0,0.0,1.75,0.5,0.25,0.5,0.0,0.25,-0.61,0.58,1.58,481.98,22.4,58.2,0.5,0.25,1.0,0.75,1.75,3.5,0.0,5.75,1.25,9.25,6.75,6.0,8.25,0.14,0.08,0.95,805.05,5.0,-58.7
0.68,7.0,0.75,1.25,5.0,0.0,0.0,0.0,0.0,0.25,0.5,0.5,0.0,0.25,-1.05,1.45,3.14,337.1,24.4,64.3,1.0,0.25,1.5,0.75,1.75,4.5,0.25,6.25,1.25,9.0,6.75,5.75,8.0,0.08,0.08,0.95,833.51,4.5,-52.9
0.7,5.0,0.0,0.25,3.75,0.0,0.0,0.0,0.0,0.25,0.5,0.25,0.0,0.25,-0.48,0.83,2.83,233.87,23.2,60.0,0.75,0.25,1.0,0.75,3.0,4.5,0.25,6.5,1.25,9.0,6.5,5.25,8.0,0.08,0.08,0.95,842.69,5.4,-50.8
0.72,2.5,0.0,0.5,1.75,0.0,0.0,0.0,0.0,0.25,0.5,0.5,0.0,0.25,-0.36,0.64,2.45,138.32,21.0,41.1,0.75,0.75,1.5,1.25,3.25,4.5,0.25,6.5,1.25,8.75,6.25,5.0,7.75,0.14,0.08,0.95,832.65,4.6,-45.3
0.74,1.0,0.0,0.25,0.5,0.0,0.0,0.0,0.0,0.0,0.0,0.0,0.0,0.25,-1.11,-0.11,2.45,45.07,24.3,55.3,0.75,0.75,2.0,1.75,4.25,4.5,0.25,6.25,1.25,8.25,5.5,4.25,7.5,0.14,0.08,0.95,810.24,4.0,-38.5
0.76,0.75,0.0,0.0,0.5,0.0,0.0,0.0,0.0,0.0,0.0,0.5,0.0,0.25,-1.3,-1.11,1.52,0.0,17.9,17.3,1.0,1.0,2.0,2.75,5.25,4.75,0.5,6.25,1.25,8.25,4.75,3.75,6.5,0.14,0.08,0.95,774.92,3.4,-29.6
0.78,1.0,0.0,0.0,2.5,0.0,0.0,0.0,0.0,0.0,0.0,0.0,0.0,0.25,-1.3,-1.36,1.27,0.0,19.4,56.3,1.25,1.0,1.75,3.0,5.25,5.5,0.75,6.0,1.5,7.75,4.75,3.0,6.25,0.14,0.08,0.95,729.21,3.4,-25.7
0.8,1.0,0.0,0.0,1.75,0.0,0.0,0.0,0.0,0.25,0.25,0.0,0.0,0.25,-0.67,-0.92,0.52,0.0,16.9,40.0,2.0,1.0,2.75,3.25,5.25,5.5,1.0,6.0,1.75,7.25,4.75,2.75,5.5,0.14,0.08,0.95,701.84,1.5,-19.3
0.82,1.0,0.0,0.5,1.75,0.0,0.0,0.0,0.0,0.25,0.0,0.0,0.0,0.25,-0.48,-0.3,0.64,0.0,22.0,50.4,2.0,1.0,4.0,4.5,5.75,5.75,1.0,6.0,1.75,6.75,4.0,2.25,5.0,0.14,0.08,0.95,700.12,0.1,-10.9
0.84,0.0,0.0,0.25,1.25,0.0,0.0,0.0,0.0,0.5,0.25,0.0,0.0,0.25,-0.42,-0.36,0.2,0.0,12.0,9.8,2.0,1.25,3.75,5.25,6.25,6.0,1.75,5.5,1.75,6.0,3.75,1.5,4.0,0.14,0.08,0.95,705.1,-0.5,-3.2
0.86,0.0,0.0,0.25,0.5,0.0,0.0,0.0,0.0,0.5,0.0,0.0,0.0,0.25,-0.55,-0.23,0.52,0.0,13.9,-0.8,2.0,1.25,4.5,5.5,7.0,6.0,2.25,5.25,1.75,5.5,2.5,1.25,3.25,0.14,0.08,0.95,710.18,-1.5,4.3
0.88,1.25,0.0,0.0,1.25,0.0,0.0,0.0,0.0,0.25,0.5,0.0,0.0,0.25,-0.61,-0.3,0.83,0.0,15.7,32.8,3.0,1.25,5.75,7.25,7.0,6.0,2.25,5.25,1.5,5.0,2.5,1.0,2.25,0.14,0.08,0.95,728.15,-4.1,13.5
0.9,1.0,0.0,0.0,1.0,0.0,0.0,0.0,0.0,0.25,0.0,0.0,0.0,0.25,-0.55,-0.17,0.95,0.63,20.1,45.9,3.75,1.75,5.75,7.5,8.0,6.25,2.5,4.25,1.25,4.0,2.5,0.75,2.25,0.14,0.08,0.95,750.09,-5.2,20.4
0.92,0.0,0.0,0.0,0.0,0.0,0.0,1.25,0.0,0.0,0.0,0.0,0.0,0.0,-0.48,0.02,0.95,10.94,32.4,27.3,4.5,1.75,6.5,9.0,8.25,6.25,3.0,4.0,1.25,4.0,2.0,0.5,1.75,0.14,0.08,0.95,789.01,-6.7,26.5
0.94,1.0,0.0,0.0,1.0,0.0,0.0,0.0,0.0,0.25,0.0,0.0,0.0,0.25,-0.36,0.2,1.02,22.29,20.1,45.9,5.5,1.75,7.25,9.5,8.25,6.25,3.25,4.0,1.25,3.75,1.5,0.5,1.5,0.14,0.08,0.95,834.0,-8.0,30.6
0.96,0.25,0.0,0.25,0.5,0.0,0.0,0.0,0.0,0.5,0.0,0.0,0.0,0.25,-0.23,0.27,1.52,25.45,16.7,12.2,6.25,2.0,8.0,11.0,9.5,6.25,3.75,2.5,1.25,3.0,0.75,0.0,1.5,0.08,0.08,0.95,887.34,-9.8,39.5
0.98,0.25,0.0,0.25,0.75,0.0,0.0,0.0,0.0,0.25,0.0,0.0,0.0,0.25,-0.11,0.39,1.7,28.0,17.4,25.9,6.75,2.0,8.25,12.0,9.5,6.25,4.25,2.5,0.75,2.5,0.75,0.0,1.25,0.08,0.14,0.95,933.05,-10.7,42.8
1.0,0.0,0.0,0.25,0.5,0.0,0.0,0.0,0.0,0.25,0.0,0.0,0.0,0.25,-0.11,0.52,1.77,22.46,14.2,6.4,7.25,2.0,9.0,12.5,9.5,6.0,4.25,2.5,0.5,2.25,0.25,0.0,1.25,0.08,0.14,0.95,970.72,-11.5,45.5
1.02,1.0,0.0,0.25,1.0,0.0,0.0,0.0,0.0,0.5,0.0,0.0,0.0,0.25,-0.23,0.58,1.95,29.82,21.0,40.2,8.0,1.0,9.25,12.5,9.5,6.0,4.25,2.25,0.5,2.5,0.5,0.0,0.75,0.08,0.14,0.95,989.91,-12.2,46.0
1.04,0.0,0.0,0.25,0.5,0.0,0.0,0.0,0.0,0.25,0.0,0.0,0.0,0.25,-0.36,0.64,2.39,26.41,14.2,6.4,8.5,2.75,9.75,14.0,10.5,4.75,4.5,1.25,0.5,2.25,0.25,0.0,0.5,0.08,0.14,1.02,1022.31,-13.9,51.9
1.06,0.0,0.0,0.25,0.5,0.0,0.0,0.0,0.0,0.5,0.5,0.0,0.0,0.25,-0.23,0.95,2.7,28.95,6.6,-19.2,8.75,2.75,10.5,14.0,10.5,5.75,4.5,1.0,0.5,2.25,0.25,0.0,0.5,0.02,0.14,1.02,1059.68,-13.8,52.3
1.08,0.0,0.0,0.25,1.0,0.0,0.0,0.0,0.0,0.25,0.0,0.0,0.0,0.25,0.77,2.2,2.2,28.76,15.1,21.3,9.5,3.0,11.0,14.0,10.5,4.75,4.25,1.25,0.5,2.25,0.75,0.0,0.5,0.02,0.2,1.02,1102.46,-14.6,52.1
1.1,0.0,0.0,0.25,1.0,0.0,0.0,0.0,0.0,0.5,0.25,0.0,0.0,0.0,0.77,2.45,2.2,30.81,14.6,18.7,10.0,3.0,11.0,14.5,9.75,4.5,3.75,1.0,0.5,2.25,0.25,0.0,0.5,0.08,0.2,1.02,1120.83,-15.3,54.0
1.12,0.0,0.0,0.25,0.75,0.0,0.0,0.0,0.0,0.25,0.5,0.0,0.0,0.0,1.02,2.83,0.64,28.64,10.3,7.7,10.5,3.25,11.0,14.0,9.5,2.25,3.0,1.0,0.5,2.25,0.75,0.0,0.5,0.08,0.27,1.14,1106.95,-16.8,54.3
1.14,0.0,0.0,0.0,1.0,0.0,0.0,0.0,0.0,0.25,0.5,0.0,0.0,0.25,2.14,4.27,0.27,31.66,4.7,-7.2,11.0,2.75,11.0,13.0,8.5,1.0,2.25,1.0,0.5,2.25,0.5,0.0,0.5,0.14,0.33,1.27,1050.74,-18.2,55.4
1.16,0.0,0.0,0.25,1.0,0.0,0.0,0.0,0.0,0.25,0.25,0.0,0.0,0.25,3.45,4.83,0.27,33.17,11.3,9.5,10.5,2.25,9.5,12.5,6.75,0.0,1.5,1.25,0.5,1.75,0.75,0.0,0.5,0.14,0.39,1.33,945.35,-19.2,55.3
1.18,0.0,0.0,0.0,0.5,0.0,0.0,0.0,0.0,0.5,1.25,0.0,0.0,0.25,-0.17,-0.55,0.58,34.89,-3.2,-44.1,9.5,1.0,8.25,9.25,5.25,0.0,1.25,1.0,0.5,2.25,0.5,0.0,0.5,0.2,0.45,1.39,790.79,-19.4,52.4
1.2,0.0,0.0,0.0,1.0,0.0,0.0,0.0,0.0,0.25,1.5,0.0,2.0,1.75,-0.98,-0.61,1.08,63.15,-1.4,-72.6,7.75,0.25,5.75,5.5,1.0,0.0,1.25,1.0,0.5,2.0,0.25,0.0,0.5,0.58,0.83,2.02,571.44,-21.8,48.5
1.22,0.0,0.0,0.0,0.5,0.0,0.0,0.0,0.0,0.5,4.75,0.75,1.0,5.5,-0.05,0.33,0.58,125.78,-9.1,-86.2,6.5,0.0,3.75,2.0,1.0,0.0,1.0,1.0,0.5,1.25,0.0,0.0,0.0,0.45,1.02,2.83,366.35,-23.0,53.2
1.24,0.0,0.0,0.0,0.0,0.0,0.0,0.0,3.5,0.0,0.0,4.25,0.5,6.0,-0.48,0.45,3.77,183.23,-6.6,-82.5,2.25,0.0,2.75,0.75,0.0,0.0,1.0,1.0,0.0,0.75,0.0,0.0,0.0,0.02,0.39,2.02,210.12,-22.9,42.9
1.26,0.25,0.0,0.0,0.0,0.0,0.5,0.0,5.5,1.25,6.5,4.75,5.0,6.25,0.08,0.33,1.08,288.78,-5.8,-77.2,1.25,0.0,2.75,0.5,1.5,0.0,0.25,0.5,0.0,0.0,0.0,0.0,0.0,0.77,0.14,2.08,81.63,-21.5,57.2
1.28,0.0,0.0,0.0,0.0,2.0,1.5,0.0,5.75,1.25,6.25,0.0,4.25,6.0,-0.11,0.08,0.95,364.01,-9.7,-62.6,1.75,0.0,1.25,1.0,1.5,0.0,0.25,1.0,0.0,0.25,0.5,0.0,0.5,0.89,-0.48,1.83,0.0,-12.3,30.2
1.3,1.0,0.0,0.0,1.25,0.0,2.0,0.25,6.0,1.5,6.0,4.25,3.25,5.5,-0.17,0.02,0.95,445.54,-5.3,-58.4,0.0,0.0,1.25,1.0,0.0,0.0,0.0,0.5,0.5,2.25,0.0,0.0,0.0,0.7,-0.3,0.7,0.0,-5.3,-12.4
1.32,0.25,0.0,0.0,0.5,2.25,2.75,0.25,6.0,1.75,5.5,4.75,3.0,5.0,-0.17,0.08,0.95,490.79,-6.4,-52.1,1.0,0.25,3.0,1.0,1.25,0.5,0.25,1.0,0.5,2.25,0.25,0.0,0.5,0.58,-1.23,0.77,0.0,-9.2,13.4
1.34,0.0,0.0,0.0,2.0,3.5,2.5,0.25,6.0,1.75,5.25,4.25,2.5,4.25,-0.11,0.08,0.95,519.75,-5.6,-41.0,1.0,0.25,3.25,1.0,1.75,1.0,0.25,1.0,0.5,2.25,0.25,0.0,0.5,0.39,-0.36,1.02,2.64,-8.1,16.9
1.36,1.25,0.0,0.25,2.75,4.25,3.0,0.25,6.0,1.5,4.75,4.0,2.0,4.0,-0.17,0.08,0.95,525.96,-3.8,-27.6,0.75,0.25,2.75,0.75,1.5,1.0,0.25,1.0,0.5,2.0,0.25,0.0,0.5,0.08,-0.36,0.45,46.11,-6.8,13.4
1.38,0.75,0.75,1.25,4.0,4.75,3.25,0.25,6.0,2.0,5.0,4.0,2.0,4.0,-0.11,0.08,0.95,553.8,-2.0,-20.2,0.75,0.25,3.25,0.75,2.25,0.75,0.25,1.0,0.5,2.0,0.25,0.0,0.5,0.2,-0.3,0.45,87.8,-7.9,17.7
1.4,0.75,1.0,1.25,4.25,5.0,3.75,0.75,6.0,2.0,4.75,4.0,1.75,3.0,-0.11,0.08,0.95,575.83,-1.5,-14.0,0.75,0.25,4.0,0.75,2.25,1.0,0.0,1.0,0.5,2.25,0.5,0.0,0.5,0.33,-0.36,0.77,132.36,-8.5,17.0
1.42,0.0,1.0,1.25,4.25,5.0,3.75,0.75,6.0,2.5,3.25,3.5,1.0,2.75,-0.11,0.08,0.95,567.98,-1.8,-10.4,0.75,0.25,2.5,0.75,2.25,1.0,0.25,1.0,0.5,2.25,0.25,0.0,0.5,0.33,-0.36,0.89,160.98,-5.0,13.5
1.44,1.75,1.0,1.25,6.0,5.75,3.75,0.75,6.0,2.5,3.25,3.25,1.0,1.75,-0.11,0.08,0.95,569.27,0.8,1.9,0.75,0.25,2.75,0.75,1.5,0.5,0.25,1.0,0.5,2.25,0.25,0.0,0.25,0.33,-0.11,0.89,176.93,-8.0,13.4
1.46,1.5,1.0,1.5,6.5,6.25,3.75,0.75,6.0,2.75,3.25,3.0,0.75,1.75,-0.11,0.08,0.95,568.86,1.0,4.1,0.75,0.25,2.5,0.75,1.25,1.25,0.25,1.0,0.5,2.25,0.25,0.0,0.25,0.33,0.14,1.02,183.03,-5.7,12.6
1.48,2.0,1.0,2.0,7.5,6.25,4.0,0.75,6.0,2.5,2.0,2.5,1.25,1.5,-0.11,0.08,0.95,578.16,2.7,10.6,0.75,0.25,2.5,0.75,2.25,1.25,0.25,1.0,0.5,2.5,0.25,0.0,0.25,0.33,0.14,1.14,189.64,-4.4,14.6
1.5,2.5,1.0,2.5,8.0,6.5,4.5,1.0,5.5,2.5,1.75,2.25,1.0,1.5,-0.11,0.08,0.95,587.65,3.7,15.8,0.75,0.25,2.25,0.75,1.5,1.0,0.0,0.75,0.5,2.0,0.25,0.0,0.25,0.27,0.27,1.33,180.65,-6.0,15.2
1.52,2.75,1.0,3.0,8.5,7.25,4.5,1.0,5.5,2.25,1.5,2.25,0.5,1.25,-0.11,0.08,0.95,618.11,4.4,21.2,0.75,0.25,1.75,0.75,1.25,1.0,0.25,1.0,0.5,2.25,0.25,0.25,0.5,0.27,0.45,1.52,173.96,-3.6,2.9
1.54,2.75,1.0,3.0,9.0,7.75,4.5,1.25,5.25,2.0,1.5,1.75,0.5,0.75,-0.11,0.08,0.95,632.19,4.8,25.6,0.75,0.25,2.0,0.75,1.5,1.0,0.25,1.0,0.5,2.25,0.25,0.0,0.25,0.39,0.58,1.7,167.0,-4.5,10.9
1.56,2.75,1.0,3.0,9.5,7.75,4.5,1.5,4.75,2.0,1.5,1.5,0.25,0.5,-0.11,0.08,0.95,638.83,5.3,29.1,0.75,0.0,2.0,0.75,1.25,0.5,0.25,1.0,0.5,2.25,0.25,0.0,0.25,0.52,0.64,1.83,153.79,-5.9,6.3
1.58,2.75,1.25,3.0,10.5,7.75,4.5,1.5,4.75,1.75,1.5,1.25,0.0,0.5,-0.11,0.08,0.95,644.92,5.6,32.1,0.75,0.0,2.75,0.75,2.25,0.5,0.25,1.0,0.5,2.0,0.25,0.0,0.25,0.7,0.77,2.02,155.7,-7.6,16.5
1.6,2.75,1.25,3.5,10.5,8.0,4.5,1.5,4.5,1.5,1.25,1.0,0.0,0.5,-0.11,0.08,0.95,644.56,6.1,34.7,0.75,0.25,2.0,0.75,1.75,0.5,0.25,0.75,0.5,2.25,0.25,0.0,0.0,0.64,1.02,2.27,154.18,-6.6,15.4
1.62,2.75,1.25,4.25,11.5,8.25,4.0,1.5,4.25,1.0,0.5,0.75,0.0,0.25,-0.11,0.08,0.95,642.58,7.8,40.9,0.75,0.25,2.25,0.75,1.25,0.5,0.25,1.0,0.5,2.25,0.25,0.0,0.25,0.33,1.58,2.33,153.58,-6.8,9.9
1.64,2.75,2.25,5.0,12.0,8.5,4.25,1.75,3.5,1.0,1.25,0.75,0.0,0.5,-0.11,0.14,0.95,665.19,8.3,41.3,1.0,0.25,2.25,0.75,1.5,0.0,0.25,1.0,0.5,1.5,0.5,0.0,0.0,-0.05,1.95,1.89,148.7,-11.1,19.9
1.66,2.75,2.5,5.5,12.5,8.5,4.0,1.75,3.5,0.75,0.5,0.75,0.0,0.5,-0.11,0.14,0.95,687.19,9.3,44.5,0.75,0.0,1.75,0.5,1.25,0.5,0.0,1.0,0.5,1.75,0.25,0.0,0.5,-0.48,2.39,0.89,143.52,-4.9,4.1
1.68,4.0,2.5,6.0,13.0,8.5,3.75,1.75,3.5,0.25,0.75,0.75,0.0,0.25,-0.11,0.14,0.95,713.11,10.5,47.4,0.75,0.25,1.25,0.75,1.25,0.0,0.25,1.0,0.5,2.0,0.25,0.0,0.25,-1.11,3.95,0.58,135.23,-5.4,5.0
1.7,4.25,2.5,6.0,13.5,8.75,3.75,2.0,3.25,0.0,0.75,0.75,0.0,0.25,-0.11,0.14,0.95,737.22,10.8,48.6,0.75,0.0,1.75,0.75,1.0,0.5,0.25,1.0,0.5,2.0,0.0,0.0,0.5,-2.42,4.14,0.39,130.9,-5.1,4.3
1.72,2.75,2.5,6.25,14.0,9.25,3.75,2.0,3.0,0.25,0.5,0.75,0.0,0.5,-0.11,0.14,1.02,754.04,10.3,47.2,0.75,0.25,2.0,0.75,1.0,0.75,0.0,1.0,0.5,2.0,0.25,0.0,0.5,-1.67,2.02,0.83,133.93,-5.3,6.8
1.74,5.5,2.75,7.0,14.0,9.25,3.75,1.5,2.25,0.25,0.75,0.75,0.0,0.25,-0.11,0.14,1.02,781.87,12.4,51.9,0.75,0.25,1.5,0.75,1.25,0.5,0.0,0.75,0.25,2.25,0.0,0.0,0.5,0.45,-0.05,0.7,135.24,-3.6,6.9
1.76,0.0,3.0,7.5,13.5,9.25,3.5,2.0,3.75,0.0,0.0,0.75,0.0,0.25,-0.17,0.14,1.02,769.44,9.8,46.5,0.75,0.0,1.25,0.75,1.25,0.0,0.25,1.0,0.25,3.75,0.25,1.25,4.0,0.77,-0.8,0.33,163.22,1.9,-44.5
1.78,5.25,2.5,0.0,14.0,0.0,2.5,0.0,0.0,0.25,0.0,0.0,0.0,0.0,-0.17,0.2,1.02,622.2,16.3,66.8,0.0,0.0,0.75,0.75,2.25,1.0,0.25,1.0,0.25,6.75,1.5,4.75,7.5,-0.36,0.08,1.08,244.38,5.5,-65.1
1.8,7.25,3.75,1.25,15.0,0.0,2.0,0.0,0.0,0.5,0.25,0.75,0.0,0.0,-0.17,0.2,1.08,526.48,18.4,64.6,0.75,0.0,1.25,0.75,0.5,0.25,0.25,2.25,0.5,8.0,3.25,6.0,8.75,-1.55,0.64,2.77,341.63,3.3,-72.4
1.82,6.0,4.0,8.25,14.5,8.5,1.25,1.5,1.75,0.75,0.25,0.5,0.0,0.25,-0.23,0.27,1.14,559.97,15.9,56.7,0.5,0.0,2.5,0.5,2.25,0.0,0.25,3.25,0.5,9.0,5.0,6.0,8.25,1.02,0.14,1.39,470.13,2.1,-62.6
1.84,7.25,3.75,8.25,12.5,8.0,0.5,1.0,1.75,0.75,0.5,0.5,0.0,0.5,-0.23,0.33,1.27,624.73,16.8,56.4,0.75,0.25,1.0,0.75,1.5,2.5,0.5,4.75,1.0,9.25,5.75,5.75,8.5,-0.23,0.33,1.27,599.36,4.5,-60.4
1.86,7.75,2.75,8.25,12.5,6.0,0.0,0.25,1.75,0.75,0.5,0.5,0.0,0.25,-0.23,0.33,1.39,671.99,18.6,57.4,0.75,0.25,1.75,0.75,1.5,2.5,0.25,5.25,1.25,9.25,5.25,5.5,8.5,0.27,0.14,0.95,689.4,4.2,-57.7
1.88,7.5,2.5,7.75,10.5,5.25,0.0,0.0,1.75,0.5,0.5,0.5,0.0,0.25,-0.42,0.45,1.52,658.29,18.9,57.7,1.25,0.25,1.25,0.75,2.25,4.5,0.25,6.0,1.25,9.25,6.25,5.5,8.5,0.08,0.08,0.95,763.32,4.9,-51.8
1.9,7.25,1.25,7.0,8.0,0.0,0.0,0.0,0.0,0.0,1.0,0.5,0.0,0.25,-0.73,0.64,1.77,538.13,25.9,62.0,1.25,0.25,2.25,0.75,1.75,4.5,0.25,6.0,1.25,9.25,6.5,5.5,8.25,0.14,0.08,0.95,810.93,3.8,-50.4
1.92,6.5,1.0,4.75,5.25,0.0,0.0,0.0,0.0,0.25,0.25,0.5,0.0,0.25,-0.86,1.2,2.27,387.33,27.1,65.1,1.75,0.25,2.0,0.75,2.75,4.5,0.25,6.0,1.25,9.25,6.5,5.5,8.25,0.14,0.08,0.95,846.1,3.7,-47.1
1.94,4.25,0.5,3.0,3.5,0.0,0.0,0.0,0.0,0.25,0.5,0.75,0.0,0.25,-0.67,0.83,2.33,271.97,25.1,54.7,2.0,0.25,2.0,0.75,3.25,4.5,0.25,6.0,1.25,9.0,6.5,5.25,8.25,0.14,0.08,0.95,856.19,3.5,-44.8
1.96,2.0,0.0,1.25,2.75,0.0,0.0,0.0,0.0,0.0,0.5,0.5,0.0,0.25,-0.92,0.45,2.83,172.77,21.7,44.7,2.0,0.25,2.25,1.25,3.5,4.5,0.25,6.0,1.25,8.75,5.75,5.0,8.0,0.14,0.08,0.95,846.55,3.2,-41.3
1.98,0.0,0.0,0.5,2.5,0.0,0.0,0.0,0.0,0.0,0.25,0.25,0.0,0.25,-1.05,-0.23,2.39,72.56,15.4,30.2,2.0,0.5,2.5,1.25,3.0,4.5,0.75,6.0,1.25,8.5,5.5,4.0,7.75,0.14,0.08,0.95,809.38,2.9,-38.6
2.0,0.75,0.0,0.0,2.5,0.0,0.0,0.0,0.0,0.0,0.0,0.5,0.0,0.0,-1.05,0.14,0.58,8.79,19.6,48.2,2.0,0.75,3.25,2.0,5.25,4.5,0.75,6.0,1.5,8.25,5.0,4.0,7.25,0.08,0.08,0.95,777.43,1.8,-28.9
2.02,1.0,0.0,1.0,1.25,0.0,0.0,0.0,0.0,0.25,0.0,0.25,0.0,0.25,-1.55,-0.92,0.7,0.0,24.0,43.2,2.0,0.75,3.5,2.75,5.75,4.75,1.0,5.5,1.75,8.0,4.75,3.0,6.5,0.08,0.08,0.95,745.8,1.1,-22.4
2.04,1.0,0.0,0.0,2.5,0.0,0.0,0.0,0.0,0.25,0.5,0.25,0.0,0.25,-0.92,-0.42,0.45,0.0,14.9,31.0,2.5,0.75,3.75,3.0,5.25,5.5,1.25,5.25,1.75,7.25,4.0,2.75,6.0,0.08,0.08,0.95,726.38,0.5,-17.3
2.06,0.25,0.0,0.5,2.5,0.0,0.0,0.0,0.0,0.25,0.5,0.0,0.0,0.25,-0.67,0.14,0.14,0.0,14.7,29.8,2.75,1.0,4.0,3.25,5.25,5.5,1.25,5.25,1.75,7.0,3.75,2.25,5.5,0.14,0.08,0.95,709.88,0.0,-12.7
2.08,0.75,0.0,0.0,2.5,0.0,0.0,0.0,0.0,0.25,0.5,0.0,0.0,0.25,-0.3,-0.05,0.27,0.0,14.1,33.4,3.0,1.0,4.5,4.25,5.5,5.75,1.25,5.25,1.75,6.75,3.75,2.0,5.0,0.14,0.08,0.95,709.8,-1.0,-7.6
2.1,0.0,0.0,0.0,2.5,0.0,0.0,0.0,0.0,0.25,0.5,0.0,0.0,0.25,0.14,-0.36,0.64,0.0,10.1,21.0,3.5,1.0,5.0,5.25,6.25,6.0,1.75,5.25,1.75,6.0,2.75,2.0,4.0,0.08,0.08,0.95,720.97,-2.4,1.2
2.12,0.0,0.0,0.0,2.0,0.0,0.0,0.25,0.0,0.25,0.25,0.0,0.0,0.25,0.27,-0.3,0.52,0.0,11.9,22.8,3.5,1.25,5.75,5.5,7.0,6.0,2.25,5.0,1.75,6.0,2.75,1.25,4.0,0.08,0.08,0.95,744.38,-3.1,5.6
2.14,0.0,0.0,0.75,1.75,0.0,0.0,0.0,0.0,0.25,0.25,0.0,0.0,0.25,-0.11,0.02,0.45,12.8,16.8,28.7,3.5,1.25,5.75,6.25,7.25,6.0,2.5,4.5,1.75,5.25,2.5,1.5,3.25,-0.05,-0.05,1.08,764.95,-4.0,10.0
2.16,0.0,0.0,0.0,2.25,0.0,0.0,0.0,0.0,0.25,0.5,0.0,0.0,0.25,-0.3,0.08,0.52,27.62,9.5,18.1,3.5,1.75,6.0,7.25,8.0,6.0,2.5,4.0,1.75,4.5,2.5,0.75,2.5,0.14,0.14,0.95,782.85,-5.1,18.2
2.18,0.0,0.0,0.0,2.0,0.0,0.0,0.0,0.0,0.25,0.5,0.0,0.0,0.25,-0.36,0.08,0.64,38.78,8.9,14.7,3.75,1.75,6.75,8.5,8.25,6.25,3.0,4.0,1.75,4.0,2.25,0.75,2.25,0.08,0.08,0.95,809.73,-6.3,22.4
2.2,0.0,0.0,0.0,1.25,0.0,0.0,0.0,0.0,0.25,0.25,0.0,0.0,0.0,-0.48,0.14,0.77,38.75,11.9,26.2,3.75,1.75,7.0,9.0,8.5,6.25,3.0,4.0,1.5,4.0,1.5,0.5,1.75,0.08,0.08,0.95,830.35,-6.6,26.6
2.22,0.0,0.0,0.0,1.0,0.0,0.0,0.0,0.0,0.25,0.25,0.0,0.0,0.25,-0.73,0.33,0.83,33.94,7.5,2.2,3.75,1.75,7.5,9.75,8.5,6.25,3.5,3.25,1.25,3.75,1.5,0.25,1.5,0.08,0.14,0.95,846.24,-7.7,30.5
2.24,0.0,0.0,0.25,1.0,0.0,0.0,0.0,0.0,0.25,0.25,0.0,0.0,0.25,-1.05,0.45,1.7,27.83,11.3,9.5,4.5,2.0,8.0,11.0,9.0,6.0,3.5,2.5,1.25,3.75,1.25,0.0,1.25,0.08,0.14,0.95,866.69,-9.0,35.7
2.26,0.0,0.0,0.5,0.75,0.0,0.0,0.0,0.0,0.25,0.5,0.0,0.0,0.25,-0.42,0.33,1.77,26.49,10.7,0.5,4.75,1.75,8.25,11.0,9.5,6.0,4.0,2.5,1.25,3.25,1.25,0.0,1.25,0.08,0.14,0.95,889.12,-9.4,36.9
2.28,0.5,0.0,0.75,0.5,0.0,0.0,0.0,0.0,0.25,0.5,0.0,0.0,0.25,-0.48,0.52,2.08,30.48,16.8,17.1,5.0,2.0,8.75,11.0,9.5,6.0,4.25,2.5,1.25,2.75,0.75,0.0,1.25,0.08,0.14,0.95,907.88,-10.1,39.7
2.3,1.0,0.0,0.75,0.25,0.0,0.0,0.0,0.0,0.25,0.5,0.0,0.0,0.25,-0.67,0.64,1.95,37.38,19.6,26.2,5.5,1.75,9.0,11.0,9.5,5.75,4.5,2.25,1.0,2.25,0.25,0.0,1.0,0.08,0.14,0.95,909.94,-11.1,43.7
2.32,1.0,0.0,1.25,0.25,0.0,0.0,0.0,0.0,0.25,0.25,0.0,0.0,0.0,-0.55,0.89,1.95,43.67,28.7,52.5,5.5,1.75,9.0,11.0,8.75,5.5,4.5,1.5,0.5,2.25,0.25,0.0,1.0,0.08,0.14,0.95,888.63,-11.9,45.6
2.34,0.0,0.0,1.0,0.5,0.0,0.0,0.0,0.0,0.25,0.5,0.0,0.0,0.25,0.52,1.02,1.33,44.64,15.6,6.8,5.5,1.75,8.75,11.0,8.5,3.75,4.0,1.0,0.5,2.25,0.25,0.0,0.5,0.08,0.14,0.95,839.68,-13.6,48.5
2.36,1.0,0.0,1.0,0.0,0.0,0.0,0.0,0.0,0.25,0.0,0.0,0.0,0.25,-0.05,1.89,1.89,44.46,29.0,47.1,5.5,1.75,8.75,10.0,8.5,2.25,3.5,0.5,0.5,1.75,0.25,0.0,0.0,0.08,0.14,1.02,768.46,-15.6,53.2
2.38,1.0,0.0,1.0,0.25,0.0,0.0,0.0,0.0,0.5,0.0,0.25,0.0,0.0,-0.3,2.02,1.27,45.67,28.7,44.6,5.5,0.25,8.75,7.5,7.5,2.25,3.5,0.0,0.25,1.0,0.0,0.0,0.0,0.08,0.2,1.27,663.58,-17.4,56.4
2.4,0.25,0.0,1.25,0.5,0.0,0.0,0.0,0.0,0.25,0.0,0.5,0.0,0.25,0.39,2.58,0.83,48.01,23.4,18.9,6.0,0.0,8.75,7.0,5.25,0.0,2.5,1.0,0.25,1.0,0.0,0.0,0.5,0.2,0.27,1.39,553.31,-20.3,53.1
2.42,0.25,0.0,1.0,0.25,0.0,0.0,0.0,0.0,0.25,0.5,0.5,0.0,0.25,0.89,2.89,0.27,49.97,16.2,-3.7,5.5,0.0,8.5,5.5,1.5,0.0,1.75,1.0,0.25,0.75,0.0,0.0,0.0,0.27,0.33,1.7,424.66,-25.1,57.0
2.44,0.0,0.0,0.75,0.25,0.0,0.0,0.0,0.0,0.25,1.25,0.0,0.0,0.25,1.08,4.08,-0.55,49.44,4.9,-25.0,5.25,0.0,8.0,3.25,0.0,0.0,1.0,1.0,0.25,1.0,0.0,0.0,0.0,0.2,0.2,1.77,322.11,-27.5,55.4
2.46,0.0,0.0,0.25,0.25,0.0,0.0,0.0,0.0,0.25,3.25,0.0,3.0,3.75,0.58,1.58,-0.23,97.39,-5.5,-89.8,3.75,0.0,6.5,2.75,0.0,0.0,1.0,0.75,0.25,0.75,0.0,0.0,0.5,0.39,0.39,1.52,243.72,-26.2,49.2
2.48,0.0,0.0,0.5,0.25,0.0,0.0,0.75,0.0,1.0,5.5,0.0,2.25,0.0,-1.61,1.14,6.39,130.12,-1.8,-65.1,2.25,0.0,4.0,0.75,0.0,0.0,0.75,1.0,0.25,0.75,0.0,0.0,0.0,0.2,0.45,1.33,156.47,-24.6,43.5
2.5,0.25,0.0,0.0,0.25,0.0,0.0,0.0,4.75,0.0,3.5,0.0,2.0,4.0,0.39,1.7,2.02,185.28,-10.8,-72.8,2.0,0.0,2.25,0.75,0.0,0.0,0.25,0.75,0.0,0.75,0.0,0.0,0.0,0.27,0.58,1.08,73.82,-22.3,43.5
2.52,0.0,0.0,0.0,0.0,0.0,0.0,0.0,3.5,0.25,1.5,0.0,0.0,1.5,-0.17,-0.17,0.83,179.49,-14.7,-63.0,0.75,0.0,0.75,0.5,0.0,0.0,0.25,0.75,0.0,0.5,0.0,0.0,0.0,0.27,0.33,0.83,0.0,-13.8,24.4
2.54,0.25,0.0,0.0,1.0,0.0,0.0,0.0,3.5,0.25,3.25,0.0,1.0,1.5,-0.23,-0.11,0.89,187.41,-8.5,-54.1,0.25,0.0,0.75,0.5,0.0,0.0,0.25,0.5,0.0,0.75,0.0,0.0,0.0,0.08,0.2,0.14,0.0,-10.5,9.4
2.56,0.0,0.0,0.0,2.0,0.0,2.0,0.0,4.25,1.5,4.75,0.0,2.0,1.75,-0.23,0.33,0.89,210.28,-7.7,-44.4,0.0,0.0,1.25,0.5,0.0,0.0,0.0,0.5,0.0,0.75,0.0,0.0,0.0,0.08,0.27,0.14,0.0,-12.4,10.7
2.58,0.0,0.0,0.0,1.25,2.0,2.0,0.0,5.5,2.0,6.0,5.5,3.0,3.5,-0.11,0.08,1.02,291.13,-5.0,-51.9,1.0,0.25,3.25,1.0,1.25,0.75,0.25,1.0,0.5,2.25,0.25,0.0,0.25,-0.05,0.27,0.33,0.0,-9.7,17.5
2.6,0.0,0.0,0.0,2.0,2.0,2.5,0.25,5.5,2.0,6.0,5.5,3.0,3.5,-0.05,0.02,0.95,376.52,-4.6,-47.6,0.75,0.25,3.0,0.75,1.0,1.0,0.25,1.0,0.5,2.25,0.25,0.0,0.5,-0.11,0.27,0.83,38.65,-7.5,10.6
2.62,2.0,0.0,1.25,2.0,3.5,3.0,0.0,6.0,2.5,6.0,5.5,2.25,2.75,-0.17,0.02,0.95,475.25,-1.4,-28.2,0.75,0.0,3.0,0.75,1.75,0.5,0.25,1.0,0.5,2.25,0.25,0.0,0.5,-0.17,0.08,0.27,96.97,-7.8,10.9
2.64,1.75,0.0,1.0,2.5,4.5,3.75,0.25,6.25,2.75,5.75,5.5,2.0,2.75,-0.17,0.08,0.95,546.6,-2.0,-23.9,0.0,0.0,1.25,0.5,0.0,0.0,0.0,0.0,0.0,0.75,0.0,0.0,0.0,-0.17,0.27,-0.23,84.92,-18.1,20.3
2.66,2.75,0.75,1.0,3.0,4.75,3.75,0.25,6.25,2.5,5.0,5.0,2.0,2.5,-0.11,0.08,0.95,593.85,-0.5,-14.8,0.0,0.0,1.5,0.5,0.0,0.0,0.0,0.0,0.0,0.75,0.0,0.0,0.0,-0.36,0.39,-0.17,68.94,-19.9,24.0
2.68,2.75,1.0,1.5,4.0,5.0,4.5,0.25,6.25,2.5,4.75,4.0,1.25,1.75,-0.17,0.08,0.95,619.45,0.0,-4.3,0.0,0.0,0.75,0.5,0.0,0.0,0.0,0.0,0.0,0.25,0.0,0.0,0.0,-0.98,0.08,-0.3,35.08,-22.4,37.8
2.7,4.25,1.0,1.0,4.0,5.5,5.0,0.0,6.25,2.0,3.75,3.0,1.0,1.5,-0.17,0.08,0.95,627.72,0.3,5.1,0.75,0.25,0.75,0.75,0.0,0.5,0.0,0.0,0.25,0.5,0.0,0.0,0.0,-1.23,-0.17,-0.17,34.09,-14.7,41.6
2.72,4.25,1.0,1.25,4.25,6.75,5.5,0.0,6.25,1.25,3.25,2.5,1.0,1.25,-0.11,0.14,0.95,639.24,0.2,11.5,0.0,0.0,4.0,0.5,1.25,0.0,0.0,1.0,0.25,0.75,0.0,0.0,0.75,-5.86,-3.3,0.77,68.83,-14.2,19.0
2.74,5.0,1.0,1.5,5.5,6.0,6.0,0.25,6.25,0.75,2.5,1.5,0.75,0.5,-0.11,0.14,0.95,632.04,1.7,22.3,0.75,0.0,3.25,0.75,1.25,1.0,0.25,1.0,0.5,1.75,0.25,0.0,0.5,-1.17,-0.3,-1.8,116.52,-8.8,14.6
2.76,5.5,1.25,1.25,6.0,7.5,6.75,0.0,5.75,0.75,1.5,1.0,0.5,0.25,-0.11,0.14,0.95,635.45,2.0,31.8,0.75,0.25,2.75,0.75,1.5,1.0,0.25,1.0,0.5,2.25,0.25,0.0,0.5,-0.8,0.27,-0.8,154.31,-6.3,11.6
2.78,5.5,1.75,1.5,6.25,8.0,7.0,0.0,5.25,0.0,1.5,0.75,0.25,0.5,-0.11,0.2,1.02,624.87,2.1,36.2,0.75,0.25,2.75,0.75,1.25,1.0,0.25,1.0,0.5,1.5,0.25,0.0,0.5,-0.92,0.39,0.02,169.9,-8.1,16.5
2.8,5.5,2.25,1.5,7.0,8.25,7.5,0.0,4.75,0.5,1.5,0.75,0.0,0.25,-0.17,0.27,1.02,625.38,2.6,39.4,0.75,0.25,2.5,0.75,1.5,1.0,0.25,1.0,0.5,2.25,0.25,0.25,0.5,-0.73,0.39,0.39,178.09,-5.7,8.0
2.82,5.5,2.5,1.25,7.25,8.5,8.0,0.0,4.5,0.25,1.5,0.75,0.0,0.25,-0.11,0.2,1.08,628.3,2.3,40.7,0.75,0.25,2.75,0.75,1.25,1.0,0.25,1.0,0.5,2.0,0.25,0.0,0.5,-0.61,0.45,0.33,176.01,-7.1,12.4
2.84,5.75,2.5,1.0,7.25,8.5,8.0,0.0,2.75,0.0,1.0,0.75,0.0,0.25,-0.23,0.33,1.14,625.26,3.2,46.5,0.75,0.0,3.0,0.75,1.25,1.0,0.25,1.0,0.5,2.0,0.25,0.0,0.5,-0.8,0.33,1.02,181.5,-7.6,11.6
2.86,6.5,2.5,0.0,7.5,9.25,8.0,0.0,3.25,0.0,0.75,0.75,0.0,0.25,-0.67,0.33,1.14,622.44,2.7,47.0,0.75,0.25,2.5,0.75,1.75,1.0,0.25,1.0,0.5,2.25,0.25,0.0,0.5,-0.17,0.52,1.08,188.58,-5.4,11.5
2.88,0.0,2.5,0.0,6.0,8.75,7.5,0.0,3.5,0.25,0.5,0.0,0.0,0.25,-0.17,0.33,1.02,553.68,-3.9,38.9,0.75,0.25,2.75,0.5,1.25,1.0,0.25,1.0,0.0,1.75,0.25,0.0,0.0,-0.8,1.2,0.83,187.55,-8.2,22.4
2.9,0.0,2.5,0.0,2.0,8.5,6.75,0.0,2.75,0.25,0.5,0.5,0.0,0.25,-0.17,0.39,1.08,461.49,-6.3,35.8,0.75,0.25,2.75,0.25,1.5,1.25,0.25,1.0,0.5,2.25,0.25,0.0,0.0,-1.48,-0.61,0.7,183.28,-6.1,15.5
2.92,0.0,2.25,0.0,0.0,8.0,0.0,0.0,0.0,0.0,0.5,0.0,0.0,0.25,-1.11,0.77,0.64,323.47,-1.0,53.4,0.5,0.25,2.75,0.75,1.25,1.0,0.25,1.0,0.5,2.0,0.25,0.0,0.0,-0.92,-1.42,-1.8,175.37,-7.5,16.5
2.94,0.0,0.0,0.0,0.0,0.0,0.0,0.0,1.0,0.0,0.5,0.5,0.0,0.25,-4.61,1.52,-0.23,192.19,-10.2,-63.0,0.75,0.25,1.75,0.75,1.75,0.5,0.0,1.0,0.5,1.75,0.25,0.0,0.0,-0.48,0.08,1.02,163.34,-5.9,17.3
2.96,0.0,0.0,0.0,0.5,0.0,0.0,0.0,0.0,0.0,0.5,0.75,0.0,0.25,-3.17,0.7,0.64,60.5,2.7,-45.0,0.75,0.25,2.0,0.75,1.5,0.5,0.25,1.0,0.5,2.0,0.25,0.25,0.5,-1.55,0.45,-0.36,155.7,-5.9,6.2
2.98,0.0,0.0,0.0,0.0,0.0,0.0,0.0,0.0,0.0,0.0,0.0,0.0,0.25,-2.23,0.7,1.45,0.0,-13.7,-109.8,0.75,0.25,1.5,0.75,1.5,0.5,0.25,1.0,0.5,2.25,0.25,0.0,0.25,-2.11,-1.11,-0.11,150.06,-4.1,7.2
3.0,0.0,0.0,0.0,0.0,0.0,0.0,0.0,0.0,0.0,0.0,0.0,0.0,0.0,-3.11,2.7,2.7,0.0,0.0,0.0,0.75,0.25,1.5,0.5,1.25,0.5,0.25,1.0,0.5,2.25,0.25,0.0,0.0,-2.42,-0.17,-0.3,143.97,-4.4,7.6
3.02,0.0,0.0,0.0,0.0,0.0,0.0,0.0,0.0,0.0,0.0,0.0,0.0,0.0,0.39,1.89,3.89,0.0,0.0,0.0,0.5,0.25,1.0,0.75,2.25,0.5,0.25,1.0,0.5,2.25,0.25,0.0,0.5,-2.42,-0.23,-0.11,143.75,-0.6,3.4
3.04,0.0,0.0,0.0,0.0,0.0,0.0,0.0,0.0,0.0,0.0,0.0,0.0,0.0,1.52,1.27,0.77,0.0,0.0,0.0,0.5,0.0,1.75,0.75,1.25,0.5,0.25,1.0,0.5,2.0,0.25,0.25,0.25,-0.98,-0.36,-0.3,140.25,-4.9,1.6
3.06,0.0,0.0,0.0,0.0,0.0,0.0,0.0,0.0,0.0,0.0,0.0,0.0,0.0,0.64,1.27,2.27,0.0,0.0,0.0,0.75,0.0,1.75,0.5,1.25,0.5,0.25,1.0,0.5,2.0,0.25,0.0,0.25,0.27,-0.48,0.45,137.77,-5.2,5.5
3.08,0.0,0.0,0.0,0.0,0.0,0.0,0.0,0.0,0.0,0.0,0.0,0.0,0.0,1.2,0.83,1.52,0.0,0.0,0.0,0.75,0.25,1.75,0.5,1.25,0.5,0.25,1.0,0.5,2.0,0.25,0.0,0.0,-0.8,0.33,1.58,135.18,-6.0,11.4
3.1,0.0,0.0,0.0,0.0,0.0,0.0,0.0,0.0,0.0,0.0,0.0,0.0,0.0,0.58,-1.48,-0.42,0.0,0.0,0.0,0.75,0.0,1.75,0.5,1.5,0.75,0.25,1.0,0.5,2.25,0.25,0.0,0.5,-2.11,0.7,1.83,138.97,-3.3,2.6
3.12,0.0,0.0,0.0,0.0,0.0,0.0,0.0,0.0,0.0,0.0,0.0,0.0,0.0,-1.67,-0.48,-0.11,0.0,0.0,0.0,0.75,0.25,2.0,0.5,1.25,0.5,0.25,1.0,0.5,1.5,0.25,0.25,0.5,-1.05,-0.11,1.39,141.12,-7.0,7.6
3.14,0.0,0.0,0.0,0.0,0.0,0.0,0.0,0.0,0.0,0.0,0.0,0.0,0.0,-2.73,0.14,-0.86,0.0,0.0,0.0,0.75,0.0,2.0,0.75,1.25,0.25,0.25,1.0,0.5,2.0,0.25,0.0,0.5,-0.42,0.02,0.58,142.49,-6.6,4.6
3.16,0.0,0.0,0.0,0.0,0.0,0.0,0.0,0.0,0.0,0.0,0.0,0.0,0.0,-2.86,1.14,-1.11,0.0,0.0,0.0,0.75,0.25,2.0,0.75,1.25,0.5,0.25,1.0,0.5,2.0,0.25,0.0,0.5,-0.48,-0.42,0.45,146.29,-6.1,7.7
3.18,0.0,0.0,0.0,0.0,0.0,0.0,0.0,2.0,0.0,0.5,0.0,0.0,0.25,-2.05,0.58,-0.55,11.9,-16.3,-52.1,0.75,0.25,1.75,0.5,1.0,0.75,0.25,1.0,0.5,2.0,0.25,0.0,0.5,-0.17,-1.23,-0.11,146.29,-4.5,4.1
3.2,0.0,0.0,0.0,0.0,0.0,0.0,0.0,1.75,0.0,0.5,0.0,0.0,0.25,-1.36,0.02,0.02,27.08,-16.2,-53.4,0.75,0.0,2.75,0.75,1.75,0.75,0.0,1.0,0.5,1.5,0.25,0.0,0.5,-0.17,-1.48,0.02,152.31,-7.8,16.0
3.22,0.0,0.0,0.0,0.0,0.0,0.0,0.0,1.75,0.25,0.5,0.0,0.0,0.25,-0.98,-0.67,0.2,42.32,-13.7,-52.0,0.5,0.25,1.75,0.75,1.25,0.5,0.25,1.0,0.5,1.75,0.25,0.0,0.5,-0.11,-1.11,0.45,150.66,-5.0,6.2
3.24,0.0,0.0,0.0,0.0,0.0,0.0,0.0,1.5,0.25,0.5,0.0,0.0,0.25,-0.48,-0.67,0.08,47.91,-13.4,-53.4,0.75,0.0,2.0,0.75,1.25,0.5,0.25,1.0,0.5,2.0,0.25,0.0,0.5,0.08,-0.42,0.02,151.52,-5.9,5.3
3.26,0.75,0.0,0.0,0.0,0.0,0.0,0.0,1.75,0.25,0.5,0.0,0.0,0.25,0.08,-0.17,0.64,54.59,-3.8,-21.6,0.75,0.0,1.25,0.5,1.5,0.75,0.25,1.0,0.5,2.25,0.25,0.0,0.25,0.27,-0.17,-0.23,146.25,-1.8,2.5
3.28,0.0,0.0,0.0,0.0,0.0,0.0,0.0,1.5,0.0,0.5,0.25,0.0,0.25,0.83,0.02,0.95,53.55,-13.5,-57.0,0.5,0.0,1.75,0.5,1.75,1.0,0.0,1.0,0.5,1.5,0.25,0.0,0.5,0.2,-0.36,-0.11,145.86,-2.8,8.4
3.3,0.0,0.0,0.0,0.0,0.0,0.0,0.0,1.75,0.0,0.5,0.5,0.0,0.25,0.58,-0.11,0.52,55.81,-11.8,-56.9,0.5,0.0,1.75,0.5,1.25,0.75,0.0,1.0,0.5,2.0,0.25,0.0,0.5,-0.61,-0.61,0.14,141.83,-2.9,0.4
3.32,0.0,0.0,0.25,0.0,0.0,0.0,0.0,1.75,0.0,0.5,0.25,0.0,0.25,-0.36,0.2,0.27,55.98,-9.4,-45.4,0.5,0.0,1.75,0.5,1.25,0.75,0.25,1.0,0.25,2.0,0.25,0.0,0.5,-1.3,-0.73,0.52,139.29,-3.0,1.8
3.34,0.25,0.0,0.0,0.0,0.0,0.0,0.0,1.75,0.0,0.25,0.25,0.0,0.25,-0.98,0.39,0.02,54.56,-9.5,-40.4,0.75,0.0,1.5,0.75,1.5,0.75,0.0,1.0,0.5,2.0,0.25,0.5,0.5,-1.61,-0.55,0.77,141.82,-3.2,-1.2
3.36,0.0,0.0,0.25,0.0,0.0,0.0,0.0,1.5,0.0,0.25,0.0,0.0,0.25,-1.92,0.39,-0.3,49.18,-10.0,-39.5,0.75,0.25,2.0,0.75,1.25,0.25,0.25,1.0,0.5,1.75,0.25,0.0,0.25,-1.55,-0.3,0.83,142.45,-7.9,12.5
3.38,0.0,0.0,0.25,0.0,0.0,0.0,0.0,1.5,0.25,0.5,0.0,0.0,0.25,-2.42,-0.3,-1.11,46.86,-8.5,-42.7,0.5,0.25,1.75,0.5,1.25,0.25,0.25,1.0,0.5,2.0,0.25,0.0,0.5,-1.36,-0.11,0.77,141.24,-4.9,1.8
3.4,0.0,0.0,0.25,0.0,0.0,0.0,0.0,1.75,0.25,0.5,0.0,0.0,0.5,-2.11,-0.55,-0.11,47.37,-9.6,-47.7,0.5,0.25,1.75,0.75,1.25,0.5,0.25,1.0,0.5,2.0,0.25,0.0,0.5,-1.11,-0.11,0.58,141.13,-4.5,4.1
3.42,0.0,0.0,0.0,0.0,0.0,0.0,0.0,1.75,0.25,0.5,0.0,0.0,0.25,-1.48,-0.67,0.08,45.74,-13.7,-52.0,0.5,0.0,1.75,0.5,1.75,0.5,0.0,1.0,0.5,2.0,0.25,0.0,0.5,-0.86,-0.11,0.52,141.56,-3.1,2.7
3.44,0.0,0.0,0.0,0.25,0.0,0.0,0.0,1.75,0.25,0.5,0.0,0.0,0.25,-1.3,-0.48,0.39,47.59,-11.0,-42.5,0.75,0.25,1.75,0.5,1.25,0.5,0.25,1.0,0.5,1.75,0.25,0.0,0.25,-0.73,-0.17,0.52,139.91,-6.0,10.4
3.46,0.0,0.0,0.0,0.25,0.0,0.0,0.0,1.75,0.25,0.5,0.0,0.0,0.25,-1.3,-0.23,0.33,47.84,-11.0,-42.5,0.5,0.25,1.0,0.5,1.75,0.5,0.25,1.0,0.5,2.0,0.25,0.0,0.5,-0.8,-0.36,0.64,139.68,-0.8,0.9
3.48,0.0,0.0,0.0,0.0,0.0,0.0,0.0,1.5,0.25,0.5,0.0,0.0,0.25,-1.17,-0.05,0.2,45.75,-13.4,-53.4,0.5,0.25,1.75,0.5,1.5,0.25,0.25,1.0,0.5,2.25,0.25,0.0,0.5,-0.92,-0.42,0.58,140.76,-4.1,1.3
3.5,0.0,0.0,0.0,0.0,0.0,0.0,0.0,1.75,0.25,0.5,0.0,0.0,0.0,-0.98,0.08,0.08,42.79,-13.7,-46.1,0.75,0.25,1.75,0.5,1.25,0.5,0.25,1.0,0.25,2.25,0.25,0.0,0.5,-0.92,-0.55,0.58,142.05,-4.2,3.9
3.52,0.0,0.0,0.0,0.25,0.0,0.0,0.0,1.0,0.25,0.5,0.0,0.0,0.25,-0.73,0.2,0.08,39.97,-9.1,-43.7,0.5,0.0,1.75,0.5,1.25,0.5,0.0,0.75,0.5,2.0,0.25,0.0,0.25,-0.92,-0.73,0.58,137.95,-4.7,3.9
3.54,1.0,0.0,0.0,0.25,0.0,0.0,0.0,1.75,0.25,0.25,0.0,0.0,0.5,-0.61,0.2,0.08,46.07,0.0,-11.6,0.75,0.25,1.5,0.5,1.0,0.5,0.25,1.0,0.25,2.0,0.25,0.0,0.5,-0.8,-0.92,0.52,135.49,-4.0,2.9
3.56,0.25,0.0,0.0,0.25,0.0,0.0,0.0,1.75,0.25,0.5,0.0,0.0,0.25,-0.8,0.27,0.08,48.64,-7.7,-32.4,0.5,0.25,1.75,0.5,1.0,0.0,0.25,1.0,0.25,1.75,0.25,0.0,0.5,-0.67,-0.8,0.45,128.97,-6.4,2.6
3.58,1.0,0.0,0.0,0.25,0.0,0.0,0.0,1.5,0.25,0.25,0.0,0.0,0.5,-0.8,0.2,0.08,54.71,1.0,-9.8,0.75,0.25,1.75,0.5,1.25,0.75,0.25,1.0,0.5,2.0,0.25,0.0,0.5,-0.55,-0.67,0.39,132.94,-4.2,5.6
3.6,0.0,0.0,0.0,0.25,0.0,0.0,0.0,1.25,0.25,0.25,0.0,0.0,0.25,-0.8,0.2,0.08,49.55,-9.2,-39.7,0.5,0.25,1.25,0.5,1.25,0.25,0.25,1.0,0.5,2.0,0.25,0.0,0.5,-0.42,-0.55,0.45,131.71,-2.9,-1.7
3.62,0.75,0.0,0.0,0.25,0.0,0.0,0.0,1.5,0.25,0.25,0.5,0.0,0.0,-0.8,0.2,0.08,50.43,2.3,-11.4,0.75,0.25,1.25,0.5,1.5,0.0,0.25,1.0,0.25,1.75,0.25,0.0,0.5,-0.48,-0.36,0.33,131.61,-4.5,5.2
3.64,1.0,0.0,0.0,0.25,0.0,0.0,0.0,1.75,0.25,0.25,0.5,0.0,0.25,-0.98,0.2,0.08,53.67,2.0,-13.0,0.75,0.0,1.5,0.75,1.25,0.0,0.25,1.0,0.25,1.5,0.25,0.0,0.5,-0.61,-0.42,0.33,126.92,-6.7,6.4
3.66,0.25,0.0,0.0,0.25,0.0,0.0,0.0,1.5,0.25,0.5,0.0,0.0,0.25,-1.11,0.2,0.08,53.94,-6.9,-31.9,0.75,0.0,1.5,0.5,1.25,0.5,0.25,1.0,0.25,2.0,0.25,0.0,0.5,-0.73,-0.48,0.33,127.64,-3.5,1.7
3.68,0.0,0.0,0.0,0.25,0.0,0.0,0.0,1.75,0.25,0.25,0.0,0.0,0.25,-1.05,0.14,0.08,51.58,-10.6,-39.5,0.5,0.25,1.75,0.5,1.25,0.5,0.25,1.0,0.5,2.0,0.25,0.0,0.5,-0.86,-0.42,0.45,130.88,-4.2,2.6
3.7,0.0,0.0,0.0,0.25,0.0,0.0,0.0,1.5,0.25,0.5,0.25,0.0,0.25,-0.92,0.08,0.14,49.75,-8.7,-45.5,0.5,0.25,1.75,0.5,1.25,0.0,0.25,1.0,0.5,2.0,0.25,0.0,0.5,-0.98,-0.3,0.45,133.03,-5.6,0.9
3.72,0.0,0.0,0.0,0.25,0.0,0.0,0.0,1.75,0.25,0.0,0.25,0.0,0.25,-0.73,0.08,0.27,46.95,-8.2,-39.4,0.75,0.0,1.5,0.5,1.5,0.0,0.25,1.0,0.25,1.75,0.25,0.0,0.5,-0.98,-0.3,0.52,132.25,-5.3,4.0
3.74,0.0,0.0,0.0,0.25,0.0,0.0,0.0,1.5,0.25,0.25,0.0,0.0,0.25,-0.67,0.08,0.27,43.15,-9.9,-39.6,0.5,0.0,1.5,0.5,1.25,0.0,0.25,1.0,0.25,2.25,0.25,0.0,0.25,-1.05,-0.23,0.58,128.65,-4.1,-1.7
3.76,0.0,0.0,0.0,0.25,0.0,0.0,0.0,1.75,0.25,0.5,0.5,0.0,0.25,-0.61,0.08,0.14,46.36,-8.0,-47.0,0.5,0.0,1.5,0.75,1.25,0.0,0.0,1.0,0.25,1.5,0.25,0.0,0.5,-1.11,-0.23,0.64,124.04,-5.4,3.4
3.78,0.0,0.0,0.0,0.25,0.0,0.0,0.0,1.75,0.25,0.0,0.25,0.0,0.0,-0.73,0.08,0.14,43.18,-7.7,-32.1,0.75,0.25,1.75,0.5,1.25,0.0,0.25,1.0,0.25,2.0,0.25,0.0,0.5,-1.11,-0.23,0.58,125.14,-6.2,4.6
3.8,0.25,0.0,0.0,0.25,0.0,0.0,0.0,1.0,0.25,0.25,0.75,0.0,0.0,-1.42,0.52,0.14,43.05,1.0,-30.9,0.5,0.0,1.5,0.5,1.25,0.0,0.0,1.0,0.25,2.5,0.25,0.0,0.5,-1.05,-0.23,0.52,125.43,-2.6,-7.5
3.82,0.75,0.0,0.0,0.25,0.0,0.0,0.0,1.75,0.25,0.5,0.25,0.0,0.25,-1.98,0.58,-0.36,47.56,-1.5,-19.7,0.75,0.0,1.0,0.5,1.25,0.0,0.25,1.0,0.25,2.0,0.25,0.0,0.5,-0.98,-0.17,0.39,123.19,-2.8,-4.0
3.84,0.5,0.0,0.0,0.25,0.0,0.0,0.0,1.75,0.25,0.25,0.25,0.0,0.25,-1.8,0.27,-0.42,51.12,-2.9,-23.5,0.75,0.0,2.0,0.5,1.25,0.0,0.25,1.0,0.0,1.5,0.25,0.25,0.5,-0.92,-0.11,0.33,124.42,-8.2,6.0
3.86,1.0,0.0,0.0,0.25,0.0,0.0,0.0,1.5,0.25,0.25,0.5,0.0,0.25,-1.11,0.39,-0.11,55.35,3.2,-11.3,0.5,0.0,0.5,0.5,1.25,0.0,0.25,1.0,0.25,2.0,0.25,0.0,0.5,-0.92,-0.17,0.33,117.36,0.7,-12.1
3.88,1.0,0.0,0.0,0.25,0.0,0.0,0.0,1.75,0.25,0.5,0.5,0.0,0.25,-1.05,0.39,-0.17,61.42,1.0,-16.5,0.5,0.25,0.75,0.5,1.25,0.0,0.25,1.0,0.25,2.25,0.25,0.25,0.5,-0.86,-0.17,0.39,116.19,-0.7,-11.2
3.9,1.0,0.0,0.0,0.25,0.0,0.0,0.0,1.75,0.25,0.0,0.5,0.0,0.25,-1.05,0.45,-0.3,65.2,3.1,-9.0,0.75,0.0,1.25,0.5,1.25,0.0,0.25,1.0,0.25,2.25,0.25,0.0,0.25,-0.92,-0.17,0.39,115.44,-3.9,-0.8
3.92,0.0,0.0,0.0,0.25,0.0,0.0,0.0,1.75,0.25,0.0,0.5,0.0,0.25,-0.92,0.45,-0.3,60.92,-6.7,-42.3,0.5,0.0,1.75,0.5,1.25,0.0,0.25,1.0,0.25,1.75,0.25,0.0,0.5,-0.92,-0.17,0.45,118.5,-5.8,1.3
3.94,0.0,0.0,0.0,0.25,0.0,0.0,0.0,1.75,0.0,0.0,0.5,0.0,0.25,-0.86,0.45,-0.3,54.81,-8.4,-42.6,0.5,0.0,1.25,0.5,1.25,0.0,0.25,1.0,0.25,1.5,0.25,0.0,0.5,-0.98,-0.17,0.45,116.73,-4.3,-0.1
3.96,0.0,0.0,0.0,0.25,0.0,0.0,0.0,1.75,0.0,0.0,0.5,0.0,0.25,-0.73,0.39,-0.23,49.28,-8.4,-42.6,0.5,0.25,0.75,0.5,1.25,0.0,0.25,1.0,0.25,2.0,0.25,0.0,0.5,-0.98,-0.17,0.52,116.06,-1.0,-5.9
3.98,0.0,0.0,0.0,0.25,0.0,0.0,0.0,1.75,0.0,0.25,0.0,0.0,0.25,-0.61,0.27,-0.05,43.83,-12.8,-39.6,0.75,0.0,1.5,0.5,1.25,0.0,0.25,1.0,0.25,2.0,0.25,0.0,0.5,-0.92,-0.11,0.58,118.12,-5.0,0.0
4.0,0.0,0.0,0.25,0.25,0.0,0.0,0.0,1.75,0.0,0.25,0.5,0.0,0.25,-0.73,0.2,0.08,44.17,-5.2,-37.0,0.75,0.0,0.5,0.5,1.5,0.0,0.25,1.0,0.25,1.75,0.25,0.25,0.25,-0.98,-0.17,0.58,115.68,-1.5,-3.7
4.02,0.0,0.0,0.0,0.25,0.0,0.0,0.0,1.75,0.0,0.25,0.5,0.0,0.25,-0.8,0.2,0.14,45.48,-9.0,-45.4,1.25,0.0,0.5,0.5,1.25,0.0,0.25,0.5,0.0,1.25,0.25,0.25,0.75,-1.05,-0.17,0.7,111.36,-5.1,1.8
4.04,0.0,0.0,0.0,0.25,0.0,0.0,0.0,1.75,0.25,0.25,0.5,0.0,0.25,-0.86,0.2,0.14,47.39,-7.4,-44.9,0.75,0.0,0.5,0.5,1.25,0.0,0.25,0.5,0.25,1.5,0.25,0.0,0.5,-0.98,-0.23,0.58,104.88,-3.0,-0.9
4.06,0.0,0.0,0.0,0.25,0.0,0.0,0.0,1.75,0.0,0.25,0.5,0.0,0.25,-0.98,0.14,0.08,46.66,-9.0,-45.4,0.75,0.0,0.75,0.5,1.25,0.0,0.25,0.5,0.25,1.25,0.25,0.0,0.5,-1.05,-0.17,0.52,99.78,-5.1,4.5
4.08,0.0,0.0,0.0,0.25,0.0,0.0,0.0,1.75,0.0,0.25,0.5,0.0,0.25,-1.17,0.14,0.08,47.22,-9.0,-45.4,1.0,0.0,0.5,0.5,1.25,0.0,0.25,0.5,0.25,1.25,0.25,0.0,0.5,-1.05,-0.05,0.45,95.46,-4.9,5.6
4.1,0.0,0.0,0.0,0.0,0.0,0.0,0.0,1.75,0.0,0.0,0.5,0.0,0.25,-1.3,0.08,0.02,43.85,-11.1,-53.2,0.5,0.25,0.75,0.75,1.5,0.0,0.25,0.5,0.0,1.5,0.25,0.0,0.5,-0.92,0.08,0.39,97.97,-3.5,7.6
4.12,0.0,0.0,0.0,0.0,0.0,0.0,0.0,1.5,0.0,0.0,0.5,0.0,0.25,-1.42,0.02,0.02,40.47,-10.4,-54.8,0.75,0.0,0.5,0.5,1.75,0.0,0.25,0.5,0.25,1.5,0.25,0.0,0.5,-0.92,0.14,0.33,99.5,-2.4,3.6
4.14,0.0,0.0,0.0,0.25,0.0,0.0,0.0,1.75,0.0,0.0,0.5,0.0,0.25,-1.36,-0.05,0.08,40.48,-8.4,-42.6,0.5,0.25,0.75,0.5,1.75,0.0,0.0,0.5,0.25,1.5,0.0,0.0,0.5,-0.92,0.08,0.27,101.89,-2.2,8.5
4.16,0.0,0.0,0.0,0.5,0.0,0.0,0.0,1.75,0.0,0.25,0.25,0.0,0.5,-1.17,-0.05,0.08,44.11,-8.7,-40.0,0.75,0.0,0.75,0.75,1.25,0.0,0.25,0.5,0.25,1.0,0.0,0.0,0.5,-0.98,0.02,0.33,99.79,-6.3,13.2
4.18,0.0,0.0,0.0,0.25,0.0,0.0,0.0,1.75,0.25,0.0,0.0,0.0,0.25,-0.98,0.02,0.08,43.41,-10.0,-35.9,1.0,0.0,0.5,0.5,1.25,0.0,0.25,0.5,0.25,1.5,0.25,0.0,0.5,-1.05,0.02,0.33,99.48,-4.1,2.5
4.2,0.0,0.0,0.0,0.25,0.0,0.0,0.0,1.75,0.0,0.25,0.25,0.0,0.25,-0.86,0.14,0.08,43.86,-10.7,-42.7,1.25,0.25,0.5,0.5,1.25,0.0,0.25,0.5,0.25,1.25,0.25,0.0,0.5,-1.05,0.02,0.39,100.04,-6.2,12.3
4.22,0.0,0.0,0.0,0.25,0.0,0.0,0.0,1.75,0.0,0.5,0.0,0.0,0.0,-0.8,0.27,0.08,41.51,-13.0,-36.0,0.5,0.25,0.5,0.5,1.25,0.0,0.25,0.5,0.25,1.5,0.25,0.0,0.5,-1.05,0.02,0.45,99.23,-2.2,-0.5
4.24,0.0,0.0,0.0,0.25,0.0,0.0,0.0,1.75,0.25,0.25,0.0,0.0,0.25,-0.86,0.33,0.02,41.07,-10.6,-39.5,0.75,0.0,0.5,0.0,1.25,0.0,0.25,0.5,0.25,1.5,0.25,0.0,0.25,-1.05,0.02,0.39,95.37,-2.4,-1.4
4.26,0.0,0.0,0.0,0.25,0.0,0.0,0.0,1.75,0.25,0.0,0.5,0.0,0.25,-0.98,0.39,0.02,42.51,-6.7,-42.3,0.5,0.25,0.5,0.5,1.25,0.0,0.25,0.5,0.0,1.5,0.25,0.0,0.5,-0.98,0.02,0.45,93.63,-1.8,1.0
4.28,0.0,0.0,0.0,0.25,0.0,0.0,0.0,1.75,0.25,0.25,0.5,0.0,0.25,-1.05,0.39,0.02,46.47,-7.4,-44.9,0.5,0.25,0.5,0.5,1.25,0.0,0.25,0.5,0.25,1.5,0.25,0.0,0.5,-0.98,0.08,0.39,93.24,-2.2,-0.5
4.3,0.0,0.0,0.0,0.25,0.0,0.0,0.0,1.75,0.25,0.0,0.5,0.0,0.0,-1.11,0.39,-0.11,46.69,-6.0,-36.0,0.75,0.25,0.5,0.5,1.25,0.25,0.25,0.5,0.0,0.25,0.25,0.25,0.5,-0.98,0.08,0.39,90.98,-6.4,18.7
4.32,0.0,0.0,0.0,0.25,0.0,0.0,0.0,1.75,0.25,0.5,0.25,0.0,0.0,-1.11,0.33,-0.17,47.64,-9.0,-39.4,0.5,0.0,0.5,0.5,1.25,0.0,0.25,0.5,0.25,1.25,0.25,0.0,0.5,-1.05,0.08,0.45,89.73,-2.5,-1.7
4.34,0.0,0.0,0.0,0.25,0.0,0.0,0.0,1.75,0.25,0.25,0.0,0.0,0.25,-1.05,0.27,-0.23,46.41,-10.6,-39.5,0.75,0.0,0.5,0.75,1.25,0.0,0.25,0.5,0.25,1.25,0.25,0.0,0.25,-1.11,0.08,0.39,90.1,-5.0,9.2
4.36,0.0,0.0,0.0,0.25,0.0,0.0,0.0,1.75,0.25,0.25,0.25,0.0,0.25,-0.98,0.2,-0.17,46.81,-8.8,-42.4,0.5,0.0,1.0,0.5,1.25,0.0,0.0,0.5,0.0,1.5,0.25,0.0,0.5,-1.11,0.08,0.39,91.68,-3.7,1.3
4.38,0.25,0.0,0.25,0.25,0.0,0.0,0.0,1.75,0.25,0.25,0.25,0.0,0.25,-0.86,0.2,-0.17,48.61,-2.4,-25.4,0.5,0.0,0.5,0.5,0.5,0.0,0.25,0.5,0.0,1.25,0.25,0.25,0.5,-1.11,0.14,0.33,86.25,-3.3,-14.9
4.4,0.25,0.0,0.0,0.25,0.0,0.0,0.0,1.75,0.25,0.5,0.5,0.0,0.25,-0.86,0.2,-0.11,53.15,-5.3,-38.0,0.5,0.0,0.5,0.5,1.25,0.0,0.25,0.5,0.25,1.5,0.25,0.25,0.5,-0.98,0.14,0.33,88.6,-2.0,-8.8
4.42,0.75,0.0,0.0,0.25,0.0,0.0,0.0,1.75,0.25,0.0,0.25,0.0,0.25,-0.86,0.2,-0.11,55.69,0.4,-11.6,0.75,0.0,0.75,0.5,1.25,0.0,0.0,0.5,0.0,1.0,0.25,0.0,0.5,-0.92,0.08,0.33,87.33,-5.2,9.4
4.44,0.25,0.0,0.25,0.25,0.0,0.0,0.0,1.75,0.25,0.25,0.5,0.0,0.0,-0.86,0.27,-0.05,56.25,-0.7,-22.7,0.5,0.0,0.5,0.5,1.5,0.0,0.25,0.5,0.0,1.5,0.25,0.0,0.5,-0.92,0.08,0.33,90.31,-1.1,-0.6
4.46,0.0,0.0,0.0,0.0,0.0,0.0,0.0,1.75,0.25,0.0,0.25,0.0,0.25,-0.86,0.27,0.02,51.47,-10.9,-49.6,0.5,0.0,0.0,0.5,1.75,0.0,0.0,0.5,0.25,1.25,0.25,0.0,0.5,-0.98,0.02,0.39,90.42,1.8,-2.3
4.48,0.75,0.0,0.0,0.25,0.0,0.0,0.0,1.75,0.25,0.25,0.5,0.0,0.25,-0.92,0.27,0.02,53.42,0.1,-19.5,0.5,0.0,1.0,0.5,1.25,0.0,0.25,0.5,0.0,1.5,0.25,0.0,0.25,-0.98,0.02,0.39,93.14,-5.0,6.6
4.5,0.0,0.0,0.0,0.25,0.0,0.0,0.0,1.75,0.25,0.25,0.5,0.0,0.25,-0.92,0.27,-0.05,52.5,-7.4,-44.9,0.75,0.0,1.25,0.5,1.25,0.0,0.25,0.5,0.0,1.25,0.25,0.25,0.5,-0.98,0.02,0.45,97.04,-7.5,6.1
4.52,0.25,0.0,0.0,0.25,0.0,0.0,0.0,1.75,0.25,0.0,0.5,0.0,0.25,-0.92,0.27,-0.05,53.04,-3.7,-32.2,0.5,0.0,0.5,0.5,1.25,0.0,0.25,0.5,0.25,0.75,0.25,0.0,0.5,-0.98,0.08,0.45,94.12,-4.2,5.2
4.54,0.25,0.0,0.0,0.25,0.0,0.0,0.0,1.75,0.25,0.25,0.5,0.0,0.25,-0.98,0.27,-0.05,53.53,-4.5,-35.3,0.5,0.0,0.5,0.5,1.25,0.0,0.0,0.5,0.25,1.25,0.25,0.0,0.5,-0.98,0.02,0.45,92.86,-1.8,-2.3
4.56,0.25,0.0,0.0,0.25,0.0,0.0,0.0,1.75,0.25,0.25,0.25,0.0,0.25,-1.05,0.33,-0.05,52.55,-5.7,-32.3,0.5,0.0,0.75,0.5,1.5,0.0,0.25,0.5,0.0,0.5,0.25,0.0,0.5,-1.05,0.02,0.45,88.69,-6.0,16.2
4.58,0.0,0.0,0.0,0.25,0.0,0.0,0.0,1.75,0.25,0.25,0.5,0.0,0.25,-1.05,0.33,0.02,51.93,-7.4,-44.9,0.5,0.0,0.5,0.75,1.25,0.0,0.25,0.5,0.0,1.5,0.25,0.25,0.25,-1.05,0.02,0.39,89.58,-2.9,-0.5
4.6,0.0,0.0,0.0,0.25,0.0,0.0,0.0,1.75,0.25,0.25,0.5,0.0,0.25,-1.05,0.39,0.02,51.22,-7.4,-44.9,0.5,0.25,0.5,0.5,1.25,0.0,0.25,0.5,0.0,1.25,0.25,0.0,0.5,-0.98,0.02,0.39,89.73,-2.5,4.2
4.62,0.0,0.0,0.0,0.25,0.0,0.0,0.0,1.75,0.25,0.0,0.5,0.0,0.25,-1.05,0.39,0.02,49.89,-6.7,-42.3,0.75,0.0,0.5,0.5,1.25,0.0,0.0,0.5,0.25,1.5,0.25,0.0,0.25,-0.98,0.02,0.39,92.09,-3.1,3.1
4.64,0.0,0.0,0.0,0.25,0.0,0.0,0.0,1.75,0.25,0.25,0.5,0.0,0.25,-1.11,0.39,-0.05,49.89,-7.4,-44.9,0.75,0.0,0.5,0.5,1.25,0.0,0.25,0.5,0.25,1.5,0.25,0.25,0.5,-0.92,0.02,0.39,94.38,-3.2,-5.0
4.66,0.0,0.0,0.0,0.25,0.0,0.0,0.0,1.75,0.25,0.25,0.25,0.0,0.25,-1.11,0.33,0.02,49.09,-8.8,-42.4,0.5,0.0,0.5,0.5,1.25,0.0,0.0,0.5,0.0,1.25,0.25,0.0,0.5,-0.98,0.02,0.45,92.09,-1.4,-0.6
4.68,0.5,0.0,0.0,0.25,0.0,0.0,0.0,1.75,0.25,0.25,0.5,0.0,0.25,-1.05,0.27,0.02,51.55,-2.0,-26.9,0.75,0.0,0.75,0.5,1.25,0.0,0.25,0.5,0.25,1.5,0.25,0.0,0.25,-1.05,0.02,0.39,94.01,-5.1,6.0
4.7,0.25,0.0,0.0,0.25,0.0,0.0,0.0,1.75,0.25,0.0,0.5,0.0,0.25,-0.98,0.27,0.08,51.24,-3.7,-32.2,0.5,0.0,0.75,0.5,1.25,0.0,0.0,0.5,0.0,1.25,0.25,0.25,0.5,-1.05,0.02,0.45,93.01,-3.3,-2.5
4.72,0.0,0.0,0.0,0.0,0.0,0.0,0.0,1.75,0.25,0.0,0.5,0.0,0.25,-0.92,0.2,0.08,48.89,-9.0,-51.9,0.5,0.25,0.5,0.75,1.25,0.0,0.25,0.5,0.25,1.5,0.25,0.0,0.5,-1.11,0.02,0.45,96.62,-2.8,1.7
4.74,0.0,0.0,0.0,0.25,0.0,0.0,0.0,1.75,0.25,0.25,0.5,0.0,0.25,-0.86,0.2,0.08,49.29,-7.4,-44.9,0.5,0.0,0.5,0.5,1.25,0.0,0.25,0.5,0.25,1.5,0.25,0.25,0.5,-1.05,0.02,0.45,97.02,-2.0,-8.8
4.76,0.0,0.0,0.0,0.25,0.0,0.0,0.0,1.75,0.25,0.0,0.5,0.0,0.0,-0.86,0.27,0.08,46.63,-6.0,-36.0,0.25,0.25,0.5,0.5,1.25,0.0,0.25,0.5,0.25,0.75,0.25,0.0,0.25,-0.98,0.08,0.39,93.92,-4.1,11.5
4.78,0.0,0.0,0.0,0.25,0.0,0.0,0.0,1.5,0.25,0.0,0.75,0.0,0.0,-0.92,0.27,0.08,44.66,-3.5,-39.2,0.5,0.0,1.25,0.5,1.25,0.0,0.25,0.5,0.0,1.25,0.25,0.0,0.5,-0.98,0.02,0.39,94.21,-6.4,7.3
4.8,0.0,0.0,0.0,0.25,0.0,0.0,0.0,1.75,0.25,0.0,0.5,0.0,0.0,-0.98,0.27,0.08,42.85,-6.0,-36.0,0.5,0.0,0.5,0.5,1.25,0.0,0.0,0.5,0.0,1.0,0.25,0.0,0.25,-0.98,0.02,0.39,87.87,-3.0,8.7
4.82,0.25,0.0,0.0,0.25,0.0,0.0,0.0,1.75,0.25,0.0,0.0,0.0,0.25,-0.98,0.27,0.08,41.78,-6.2,-24.6,0.5,0.0,1.0,0.5,1.25,0.0,0.25,0.5,0.0,1.5,0.25,0.0,0.5,-1.05,0.02,0.45,90.47,-4.3,1.8
4.84,0.25,0.0,0.0,0.0,0.0,0.0,0.0,1.5,0.25,0.0,0.0,0.0,0.0,-0.98,0.27,0.08,36.81,-7.0,-22.6,0.75,0.25,1.0,0.5,1.5,0.5,0.25,0.5,0.25,2.0,0.25,0.25,0.25,-1.05,0.02,0.45,102.66,-3.3,5.4
4.86,0.75,0.0,0.0,0.25,0.0,0.0,0.0,1.75,0.25,0.25,0.0,0.0,0.0,-0.92,0.27,0.08,39.95,-0.4,-3.9,0.75,0.0,0.5,0.5,1.25,0.0,0.0,0.5,0.0,1.5,0.25,0.0,0.25,-0.98,-0.05,0.52,102.7,-2.7,5.0
4.88,0.75,0.0,0.0,0.25,0.0,0.0,0.0,1.75,0.25,0.25,0.0,0.0,0.25,-0.92,0.27,0.08,43.95,-1.3,-11.7,0.5,0.25,0.5,0.5,1.25,0.0,0.0,0.5,0.25,1.25,0.25,0.0,0.5,-0.98,-0.05,0.45,101.41,-2.3,2.0
4.9,0.75,0.0,0.0,0.25,0.0,0.0,0.0,1.75,0.25,0.25,0.0,0.0,0.25,-0.98,0.27,0.08,49.31,-1.3,-11.7,0.25,0.0,0.25,0.5,1.25,0.0,0.25,0.5,0.25,2.0,0.25,0.0,0.5,-0.98,0.02,0.45,96.81,2.4,-17.2
4.92,0.0,0.0,0.0,0.25,0.0,0.0,0.0,1.75,0.25,0.25,0.0,0.0,0.25,-0.98,0.27,0.08,48.8,-10.6,-39.5,0.5,0.0,0.5,0.5,1.25,0.0,0.0,0.5,0.25,1.5,0.25,0.0,0.5,-0.92,-0.05,0.45,93.49,-1.1,-5.4
4.94,0.0,0.0,0.0,0.25,0.0,0.0,0.0,1.75,0.25,0.5,0.0,0.0,0.0,-0.98,0.27,0.08,47.89,-10.7,-36.2,0.5,0.0,0.5,0.5,1.25,0.0,0.25,0.5,0.0,1.25,0.25,0.0,0.5,-0.98,-0.05,0.39,89.28,-2.0,0.0
4.96,0.0,0.0,0.0,0.25,0.0,0.0,0.0,1.75,0.25,0.0,0.0,0.0,0.25,-0.98,0.27,0.08,43.88,-10.0,-35.9,0.75,0.0,0.5,0.5,1.25,0.0,0.0,0.5,0.0,1.75,0.25,0.25,0.5,-0.98,-0.05,0.45,92.02,-1.6,-7.1
4.98,0.0,0.0,0.0,0.25,0.0,0.0,0.0,1.75,0.25,0.25,0.0,0.0,0.25,-0.98,0.27,0.08,42.48,-10.6,-39.5,0.5,0.0,0.5,0.5,1.25,0.0,0.25,0.5,0.0,0.75,0.25,0.0,0.5,-1.05,0.02,0.45,88.55,-3.8,7.3
5.0,0.0,0.0,0.0,0.25,0.0,0.0,0.0,1.5,0.25,0.25,0.0,0.0,0.0,-0.98,0.27,0.08,39.67,-9.5,-31.6,0.5,0.25,0.5,0.5,1.25,0.0,0.25,0.5,0.0,0.75,0.25,0.0,0.5,-1.05,-0.05,0.45,86.62,-4.2,11.7
5.02,0.0,0.0,0.0,0.25,0.0,0.0,0.0,1.25,0.25,0.0,0.0,0.0,0.0,-0.98,0.27,0.08,34.78,-7.6,-24.3,0.5,0.0,0.5,0.75,1.25,0.0,0.25,0.5,0.0,1.5,0.25,0.0,0.5,-1.05,0.02,0.45,86.38,-2.0,-0.6
5.04,0.0,0.0,0.0,0.25,0.0,0.0,0.0,0.0,0.25,0.25,0.0,0.0,0.0,-0.98,0.27,0.08,24.56,4.7,-17.4,0.5,0.0,0.5,0.5,1.25,0.0,0.0,0.5,0.0,1.5,0.25,0.0,0.25,-1.05,0.02,0.45,85.9,-1.3,1.0
5.06,0.0,0.0,0.0,0.0,0.0,0.0,0.0,0.25,0.25,0.0,0.0,0.0,0.0,-0.98,0.27,0.08,14.57,-2.3,-38.7,0.5,0.25,0.5,0.5,1.25,0.0,0.0,0.5,0.0,1.25,0.25,0.0,0.5,-1.05,0.02,0.45,85.37,-1.9,3.8
5.08,0.0,0.0,0.0,0.25,0.0,0.0,0.0,0.0,0.25,0.0,0.0,0.0,0.0,-0.98,0.27,0.08,6.71,14.7,11.1,0.75,0.0,0.5,0.5,1.25,0.0,0.0,0.5,0.25,1.25,0.25,0.0,0.5,-0.98,-0.05,0.45,86.86,-3.1,1.6
5.1,0.0,0.0,0.0,0.25,0.0,0.0,0.0,1.75,0.25,0.0,0.0,0.0,0.0,-0.98,0.27,0.08,10.96,-9.6,-27.5,0.0,0.0,0.5,0.5,1.25,0.5,0.25,0.5,0.25,1.25,0.25,0.0,0.5,-0.92,-0.05,0.45,89.8,2.1,-6.7
5.12,0.25,0.0,0.0,0.25,0.0,0.0,0.0,1.75,0.25,0.0,0.5,0.0,0.0,-0.98,0.27,0.08,22.11,-2.8,-25.5,0.75,0.25,0.5,0.5,1.25,0.0,0.25,0.5,0.0,0.75,0.25,0.0,0.5,-0.92,-0.11,0.45,89.21,-5.5,15.3
5.14,0.25,0.0,0.0,0.25,0.0,0.0,0.0,1.75,0.25,0.0,0.0,0.0,0.25,-0.98,0.27,0.08,32.64,-6.2,-24.6,0.25,0.0,0.25,0.5,1.25,0.0,0.25,0.5,0.25,1.0,0.25,0.0,0.5,-0.92,-0.11,0.45,85.67,-0.1,-5.8
5.16,1.0,0.0,0.0,0.25,0.0,0.0,0.0,1.75,0.25,0.0,0.0,0.0,0.0,-0.98,0.27,0.08,42.84,3.3,9.1,0.75,0.0,0.5,0.5,1.25,0.0,0.25,0.5,0.0,1.25,0.25,0.0,0.5,-0.98,-0.11,0.52,86.43,-3.4,3.8
5.18,0.75,0.0,0.0,0.25,0.0,0.0,0.0,0.0,0.25,0.0,0.0,0.0,0.0,-0.98,0.27,0.08,38.47,26.4,61.3,0.5,0.0,0.5,0.5,1.25,0.0,0.0,0.5,0.25,0.75,0.25,0.0,0.5,-0.98,-0.17,0.52,83.99,-3.5,4.6
5.2,0.75,0.0,0.0,0.25,0.0,0.0,0.0,0.0,0.25,0.0,0.0,0.0,0.0,-0.98,0.2,0.08,32.78,26.4,61.3,0.25,0.0,0.5,0.75,1.25,0.0,0.25,0.5,0.25,1.25,0.25,0.25,0.5,-0.98,-0.17,0.52,87.12,-2.1,-7.3
5.22,1.0,0.0,0.0,0.25,0.0,0.0,0.0,0.0,0.25,0.0,0.0,0.0,0.0,-0.98,0.2,0.08,27.42,27.8,67.2,0.5,0.0,0.5,0.5,1.25,0.0,0.25,0.5,0.0,1.25,0.25,0.25,0.5,-0.92,-0.17,0.52,88.66,-2.3,-4.7
5.24,0.75,0.0,0.0,0.25,0.0,0.0,0.0,0.0,0.25,0.0,0.0,0.0,0.0,-0.98,0.2,0.08,25.12,26.4,61.3,0.5,0.25,0.5,0.5,1.25,0.0,0.25,0.5,0.0,0.0,0.25,0.0,0.5,-0.92,-0.17,0.52,84.79,-7.5,26.0
5.26,1.0,0.0,0.0,0.25,0.0,0.0,0.0,0.0,0.25,0.0,0.0,0.0,0.0,-0.98,0.2,0.14,25.1,27.8,67.2,0.5,0.0,0.25,0.5,1.25,0.0,0.0,0.5,0.0,1.25,0.25,0.0,0.25,-0.98,-0.11,0.52,80.54,-0.2,1.7
5.28,1.0,0.0,0.0,0.25,0.0,0.0,0.0,0.0,0.25,0.0,0.0,0.0,0.25,-0.98,0.2,0.14,27.11,21.5,40.4,0.5,0.25,0.5,0.75,1.25,0.0,0.0,0.5,0.25,1.5,0.25,0.0,0.5,-0.98,-0.11,0.52,85.53,-2.2,1.3
5.3,1.0,0.0,0.0,0.25,0.0,0.0,0.0,0.0,0.25,0.0,0.0,0.0,0.0,-0.98,0.2,0.14,26.9,27.8,67.2,0.75,0.0,0.25,0.5,1.25,0.0,0.25,0.5,0.0,0.75,0.25,0.25,0.5,-0.98,-0.17,0.52,85.11,-3.7,3.2
5.32,1.0,0.0,0.0,0.25,0.0,0.0,0.0,0.0,0.25,0.0,0.0,0.0,0.0,-0.98,0.2,0.14,25.28,27.8,67.2,0.75,0.0,0.5,0.5,1.25,0.0,0.25,0.5,0.0,1.25,0.25,0.0,0.5,-0.92,-0.17,0.52,88.33,-3.4,3.8
5.34,1.0,0.0,0.0,0.25,0.0,0.0,0.0,0.0,0.25,0.0,0.0,0.0,0.0,-0.98,0.2,0.14,23.44,27.8,67.2,0.5,0.0,0.5,0.75,1.25,0.0,0.0,0.5,0.0,1.5,0.25,0.0,0.25,-0.92,-0.17,0.52,89.17,-2.0,3.6
5.36,1.0,0.0,0.0,0.25,0.0,0.0,0.0,0.0,0.25,0.25,0.0,0.0,0.0,-0.98,0.2,0.14,24.45,21.4,46.1,0.25,0.25,0.5,0.75,1.25,0.0,0.25,0.5,0.0,0.0,0.25,0.0,0.5,-0.92,-0.17,0.58,85.32,-6.6,24.2
5.38,1.0,0.0,0.0,0.25,0.0,0.0,0.0,0.0,0.25,0.0,0.0,0.0,0.0,-0.98,0.2,0.14,24.96,27.8,67.2,0.5,0.0,0.5,0.5,1.25,0.0,0.0,0.5,0.0,1.0,0.25,0.0,0.25,-0.92,-0.23,0.58,81.4,-3.0,8.7
5.4,1.0,0.0,0.0,0.25,0.0,0.0,0.0,0.0,0.25,0.0,0.0,0.0,0.0,-0.98,0.2,0.14,25.77,27.8,67.2,0.5,0.0,0.5,0.5,1.25,0.0,0.25,0.5,0.0,1.25,0.25,0.0,0.5,-0.92,-0.23,0.58,81.16,-2.0,0.0
5.42,1.0,0.0,0.0,0.25,0.0,0.0,0.0,0.0,0.25,0.0,0.0,0.0,0.0,-0.98,0.2,0.14,26.94,27.8,67.2,0.5,0.0,0.25,0.5,1.25,0.0,0.0,0.5,0.0,1.75,0.25,0.0,0.5,-0.86,-0.23,0.58,83.26,1.7,-10.0
5.44,1.0,0.0,0.0,0.25,0.0,0.0,0.0,0.0,0.25,0.0,0.0,0.0,0.0,-0.98,0.2,0.14,26.44,27.8,67.2,0.5,0.0,0.25,0.5,1.25,0.0,0.25,0.5,0.0,1.25,0.25,0.25,0.5,-0.8,-0.23,0.58,84.29,-0.7,-7.8
5.46,1.0,0.0,0.0,0.25,0.0,0.0,0.0,0.0,0.25,0.0,0.0,0.0,0.0,-0.98,0.2,0.14,25.93,27.8,67.2,0.5,0.0,0.5,0.5,1.25,0.0,0.25,0.5,0.0,1.25,0.25,0.25,0.5,-0.8,-0.3,0.58,87.36,-2.3,-4.7
5.48,1.0,0.0,0.0,0.25,0.0,0.0,0.0,0.0,0.25,0.0,0.0,0.0,0.0,-0.98,0.2,0.14,25.94,27.8,67.2,0.5,0.0,0.75,0.5,1.25,0.0,0.0,0.5,0.0,0.25,0.25,0.25,0.25,-0.86,-0.3,0.58,84.32,-8.3,18.7
5.5,1.0,0.0,0.0,0.25,0.0,0.0,0.0,0.0,0.25,0.0,0.0,0.0,0.0,-0.98,0.2,0.14,25.65,27.8,67.2,0.5,0.0,0.25,0.5,1.25,0.0,0.0,0.5,0.0,1.0,0.25,0.0,0.25,-0.86,-0.3,0.58,79.5,-1.1,5.8
5.52,1.0,0.0,0.0,0.25,0.0,0.0,0.0,0.0,0.25,0.0,0.0,0.0,0.25,-0.98,0.2,0.14,26.72,21.5,40.4,0.5,0.0,0.5,0.5,1.25,0.0,0.25,0.5,0.0,0.5,0.25,0.25,0.5,-0.86,-0.3,0.58,76.82,-5.0,5.6
5.54,1.0,0.0,0.0,0.25,0.0,0.0,0.0,0.0,0.25,0.0,0.0,0.0,0.0,-0.98,0.2,0.14,26.8,27.8,67.2,0.5,0.0,0.75,0.5,1.25,0.0,0.0,0.5,0.0,0.25,0.25,0.0,0.5,-0.86,-0.3,0.58,76.11,-7.0,18.5
5.56,1.0,0.0,0.0,0.25,0.0,0.0,0.0,0.0,0.25,0.0,0.0,0.0,0.0,-0.98,0.2,0.14,26.68,27.8,67.2,0.75,0.0,0.25,0.5,1.25,0.0,0.0,0.5,0.0,1.25,0.25,0.0,0.5,-0.86,-0.3,0.58,78.2,-1.1,0.6
5.58,1.0,0.0,0.0,0.25,0.0,0.0,0.0,0.0,0.25,0.0,0.0,0.0,0.0,-0.98,0.2,0.14,26.14,27.8,67.2,0.25,0.25,0.5,0.5,1.25,0.0,0.0,0.5,0.0,1.5,0.25,0.25,0.5,-0.8,-0.3,0.58,83.38,-0.1,-7.9
5.6,1.0,0.0,0.0,0.25,0.0,0.0,0.0,0.0,0.25,0.0,0.0,0.0,0.0,-0.98,0.2,0.14,25.86,27.8,67.2,0.5,0.0,0.5,0.5,1.25,0.0,0.0,0.5,0.0,1.5,0.25,0.0,0.5,-0.8,-0.3,0.58,87.19,-0.6,-3.9
5.62,1.0,0.0,0.0,0.25,0.0,0.0,0.0,0.0,0.25,0.0,0.0,0.0,0.0,-0.98,0.2,0.14,25.81,27.8,67.2,0.5,0.25,0.5,0.5,0.5,0.0,0.0,0.5,0.0,1.0,0.25,0.0,0.5,-0.8,-0.3,0.58,82.86,-3.8,-1.2
5.64,1.0,0.0,0.0,0.0,0.0,0.0,0.0,0.0,0.25,0.0,0.0,0.0,0.25,-0.98,0.2,0.14,25.39,22.3,37.2,0.75,0.0,0.5,0.5,1.25,0.0,0.0,0.5,0.0,1.5,0.25,0.0,0.5,-0.8,-0.36,0.64,85.01,-2.0,0.0
5.66,1.5,0.0,0.0,0.25,0.0,0.0,0.0,0.0,0.25,0.0,0.0,0.0,0.25,-0.98,0.2,0.14,29.6,24.4,52.8,0.5,0.0,0.25,0.5,1.25,0.0,0.25,0.5,0.25,1.0,0.25,0.0,0.5,-0.8,-0.36,0.58,83.75,-1.6,-1.2
5.68,1.0,0.0,0.0,0.25,0.0,0.0,0.0,0.0,0.25,0.25,0.0,0.0,0.25,-0.98,0.2,0.14,31.64,16.7,25.5,0.75,0.0,0.5,0.5,1.25,0.0,0.0,0.5,0.0,1.25,0.25,0.25,0.25,-0.8,-0.36,0.64,86.53,-3.8,3.5
5.7,1.0,0.0,0.0,0.0,0.0,0.0,0.0,0.0,0.0,0.25,0.25,0.0,0.25,-0.98,0.2,0.14,32.0,16.5,15.4,0.25,0.0,0.5,0.5,1.25,0.0,0.25,0.5,0.0,1.25,0.25,0.0,0.5,-0.8,-0.36,0.64,85.77,-0.6,-4.3
5.72,1.0,0.0,0.0,0.25,0.0,0.0,0.0,0.0,0.25,0.0,0.0,0.0,0.25,-0.98,0.2,0.14,31.22,21.5,40.4,0.5,0.0,0.25,0.5,1.25,0.0,0.25,0.5,0.0,2.0,0.25,0.0,0.25,-0.8,-0.3,0.64,88.58,1.1,-7.6
5.74,1.0,0.0,0.0,0.25,0.0,0.0,0.0,0.0,0.25,0.25,0.25,0.0,0.25,-0.98,0.2,0.14,32.78,16.1,14.4,0.5,0.0,0.25,0.5,1.25,0.0,0.25,0.5,0.0,1.25,0.25,0.0,0.5,-0.8,-0.36,0.64,86.33,-0.3,-3.0
5.76,0.75,0.0,0.0,0.0,0.0,0.0,0.0,0.0,0.25,0.0,0.0,0.0,0.25,-0.98,0.2,0.14,28.8,19.9,25.5,0.5,0.5,0.5,1.25,1.25,0.0,0.25,0.5,0.0,1.0,0.25,0.0,0.5,-0.8,-0.36,0.64,92.88,-5.3,17.3
5.78,1.0,0.0,0.0,0.25,0.0,0.0,0.0,0.0,0.25,0.25,0.0,0.0,0.0,-0.98,0.2,0.14,28.94,21.4,46.1,0.5,0.0,0.25,0.25,1.25,0.0,0.25,0.5,0.0,0.75,0.25,0.0,0.25,-0.8,-0.36,0.64,85.99,-2.0,8.0
5.8,1.0,0.0,0.0,0.0,0.0,0.0,0.0,0.0,0.25,0.0,0.0,0.0,0.0,-0.98,0.2,0.14,25.5,30.2,69.3,0.5,0.0,0.5,0.5,1.25,0.0,0.0,0.5,0.0,1.0,0.25,0.0,0.5,-0.73,-0.42,0.64,84.31,-2.2,2.8
5.82,1.0,0.0,0.0,0.25,0.0,0.0,0.0,0.0,0.25,0.0,0.0,0.0,0.25,-0.98,0.2,0.14,26.28,21.5,40.4,0.5,0.0,0.25,0.5,1.25,0.0,0.25,0.5,0.0,1.0,0.25,0.0,0.25,-0.73,-0.42,0.64,78.53,-1.9,6.4
5.84,1.0,0.0,0.0,0.25,0.0,0.0,0.0,0.0,0.0,0.0,0.0,0.0,0.0,-0.98,0.2,0.14,23.91,31.0,89.1,0.5,0.0,0.5,0.5,1.25,0.0,0.25,0.5,0.0,0.75,0.25,0.0,0.25,-0.73,-0.42,0.64,77.56,-4.7,13.5
5.86,1.0,0.0,0.0,0.0,0.0,0.0,0.0,0.0,0.25,0.0,0.0,0.0,0.25,-0.98,0.2,0.14,24.12,22.3,37.2,0.5,0.25,0.5,0.5,1.25,0.0,0.0,0.5,0.0,1.0,0.25,0.0,0.5,-0.73,-0.42,0.64,78.86,-2.7,7.4
5.88,0.75,0.0,0.0,0.25,0.0,0.0,0.0,0.0,0.25,0.0,0.0,0.0,0.25,-0.98,0.2,0.14,23.22,19.4,31.3,0.5,0.25,0.25,0.5,1.25,0.0,0.25,0.5,0.0,1.25,0.25,0.0,0.25,-0.73,-0.36,0.64,80.52,-1.6,7.0
5.9,1.0,0.0,0.0,0.25,0.0,0.0,0.0,0.0,0.25,0.25,0.0,0.0,0.25,-0.98,0.2,0.14,25.79,16.7,25.5,0.5,0.0,0.25,0.5,1.25,0.5,0.0,0.5,0.0,0.25,0.25,0.25,0.5,-0.73,-0.36,0.64,80.65,-1.0,9.1
5.92,1.0,0.0,0.0,0.5,0.0,0.0,0.0,0.0,0.25,0.0,0.0,0.0,0.25,-0.98,0.2,0.14,29.21,20.9,42.7,0.5,0.0,0.5,0.5,1.25,0.0,0.25,0.5,0.0,0.75,0.25,0.0,0.5,-0.73,-0.36,0.64,79.7,-3.8,7.3
5.94,0.75,0.0,0.0,0.25,0.0,0.0,0.0,0.0,0.25,0.0,0.0,0.0,0.25,-0.98,0.2,0.14,29.26,19.4,31.3,0.5,0.25,0.5,0.5,1.25,0.0,0.0,0.5,0.0,1.25,0.25,0.0,0.25,-0.73,-0.42,0.64,81.46,-2.6,9.1
5.96,1.25,0.0,0.0,0.25,0.0,0.0,0.0,0.0,0.25,0.0,0.0,0.0,0.25,-0.98,0.2,0.14,30.99,23.1,47.3,0.5,0.25,0.5,0.5,1.25,0.0,0.0,0.5,0.0,1.25,0.25,0.0,0.5,-0.73,-0.42,0.64,83.98,-1.9,3.8
5.98,0.75,0.0,0.0,0.25,0.0,0.0,0.0,0.0,0.25,0.0,0.0,0.0,0.25,-0.98,0.2,0.14,28.97,19.4,31.3,0.75,0.0,0.25,0.5,1.25,0.25,0.0,0.5,0.0,1.0,0.25,0.25,0.5,-0.73,-0.36,0.64,86.71,-1.2,0.5
6.0,1.0,0.0,0.0,0.25,0.0,0.0,0.0,0.0,0.25,0.0,0.0,0.0,0.25,-0.98,0.2,0.14,29.72,21.5,40.4,0.5,0.0,0.25,0.5,1.25,0.0,0.0,0.5,0.0,0.75,0.25,0.25,0.5,-0.73,-0.42,0.64,84.59,-1.6,-1.8
6.02,1.0,0.0,0.0,0.25,0.0,0.0,0.0,0.0,0.25,0.0,0.0,0.0,0.25,-0.98,0.2,0.14,28.88,21.5,40.4,0.5,0.0,0.5,0.5,1.25,0.0,0.0,0.5,0.0,0.5,0.25,0.0,0.25,-0.73,-0.42,0.64,81.33,-5.1,18.2
6.04,1.0,0.0,0.0,0.25,0.0,0.0,0.0,0.0,0.25,0.25,0.0,0.0,0.25,-0.98,0.2,0.14,31.02,16.7,25.5,0.5,0.0,0.25,0.5,1.25,0.0,0.0,0.5,0.0,1.5,0.25,0.0,0.25,-0.73,-0.42,0.64,78.72,0.4,-1.9
6.06,0.75,0.0,0.0,0.25,0.0,0.0,0.0,0.0,0.25,0.0,0.0,0.0,0.0,-0.98,0.2,0.14,27.88,26.4,61.3,0.5,0.0,0.5,0.5,1.25,0.0,0.25,0.5,0.0,0.5,0.25,0.25,0.5,-0.73,-0.42,0.64,78.1,-5.0,5.6
6.08,1.0,0.0,0.0,0.25,0.0,0.0,0.0,0.0,0.25,0.0,0.0,0.0,0.0,-0.98,0.2,0.14,27.17,27.8,67.2,0.5,0.0,0.25,0.5,1.25,0.0,0.0,0.5,0.0,1.0,0.25,0.25,0.5,-0.67,-0.36,0.64,78.75,-0.7,-5.3
6.1,1.0,0.0,0.0,0.0,0.0,0.0,0.0,0.0,0.25,0.25,0.0,0.0,0.0,-0.98,0.2,0.14,25.05,22.2,44.0,0.5,0.0,0.25,0.5,1.25,0.0,0.0,0.5,0.0,1.25,0.25,0.0,0.25,-0.67,-0.42,0.7,78.19,-0.2,1.7
6.12,1.0,0.0,0.0,0.0,0.0,0.0,0.0,0.0,0.25,0.0,0.0,0.0,0.0,-0.98,0.2,0.14,23.01,30.2,69.3,0.5,0.25,0.5,0.5,1.25,0.0,0.0,0.5,0.0,0.0,0.25,0.25,0.5,-0.73,-0.42,0.7,77.5,-6.9,18.8
6.14,1.0,0.0,0.0,0.25,0.0,0.0,0.0,0.0,0.25,0.0,0.0,0.0,0.25,-0.98,0.2,0.14,23.88,21.5,40.4,0.5,0.0,0.5,0.5,1.25,0.0,0.0,0.5,0.0,1.0,0.25,0.0,0.5,-0.73,-0.42,0.64,78.03,-2.2,2.8
6.16,1.0,0.0,0.0,0.25,0.0,0.0,0.0,0.0,0.25,0.0,0.0,0.0,0.25,-0.98,0.2,0.14,25.77,21.5,40.4,0.5,0.0,0.5,0.25,1.25,0.0,0.25,0.5,0.0,0.5,0.25,0.0,0.25,-0.73,-0.42,0.7,74.46,-5.2,16.0
6.18,1.0,0.0,0.0,0.5,0.0,0.0,0.0,0.0,0.0,0.0,0.0,0.0,0.25,-0.98,0.2,0.14,28.17,22.2,54.4,0.5,0.0,0.75,0.5,1.25,0.0,0.0,0.5,0.0,1.5,0.25,0.0,0.5,-0.73,-0.42,0.7,79.74,-2.3,-1.1
6.2,1.0,0.0,0.0,0.25,0.0,0.0,0.0,0.0,0.0,0.0,0.0,0.0,0.25,-0.98,0.2,0.14,27.46,23.1,53.8,0.5,0.0,0.5,0.5,1.25,0.0,0.25,0.5,0.0,1.5,0.25,0.0,0.25,-0.67,-0.42,0.7,82.61,-2.0,1.5
6.22,1.0,0.0,0.0,0.25,0.0,0.0,0.0,0.0,0.0,0.0,0.0,0.0,0.25,-0.98,0.2,0.14,27.26,23.1,53.8,0.5,0.0,0.5,0.5,1.25,0.0,0.25,0.5,0.0,0.25,0.25,0.25,0.5,-0.67,-0.42,0.64,83.3,-6.1,9.8
6.24,1.0,0.0,0.0,0.0,0.0,0.0,0.0,0.0,0.0,0.0,0.0,0.0,0.25,-0.98,0.2,0.14,24.28,24.4,52.9,0.5,0.0,0.5,0.5,1.25,0.0,0.0,0.5,0.0,1.25,0.25,0.25,0.5,-0.67,-0.42,0.64,85.36,-1.7,-5.4
6.26,1.0,0.0,0.0,0.0,0.0,0.0,0.0,0.0,0.25,0.0,0.0,0.0,0.25,-0.98,0.2,0.14,23.63,22.3,37.2,0.75,0.0,0.25,0.5,1.25,0.0,0.0,0.5,0.0,0.75,0.25,0.0,0.25,-0.61,-0.42,0.64,82.3,-3.7,14.8
6.28,1.0,0.0,0.0,0.25,0.0,0.0,0.0,0.0,0.25,0.25,0.0,0.0,0.25,-0.98,0.2,0.14,26.2,16.7,25.5,0.5,0.25,0.5,0.5,1.25,0.0,0.0,0.5,0.0,1.5,0.25,0.0,0.25,-0.67,-0.42,0.7,84.19,-1.8,5.4
6.3,1.0,0.0,0.0,0.25,0.0,0.0,0.0,0.0,0.25,0.0,0.0,0.0,0.25,-0.98,0.2,0.14,28.45,21.5,40.4,0.5,0.0,0.25,0.5,1.25,0.0,0.0,0.5,0.0,0.75,0.25,0.0,0.25,-0.67,-0.42,0.7,79.56,-2.1,10.4
6.32,1.0,0.0,0.0,0.0,0.0,0.0,0.0,0.0,0.25,0.0,0.0,0.0,0.25,-0.98,0.2,0.14,28.04,22.3,37.2,0.5,0.0,0.5,0.5,1.25,0.0,0.0,0.5,0.0,1.25,0.25,0.0,0.5,-0.67,-0.42,0.64,81.91,-1.4,-0.6
6.34,1.0,0.0,0.0,0.0,0.0,0.0,0.0,0.0,0.0,0.0,0.0,0.0,0.25,-0.98,0.2,0.14,25.62,24.4,52.9,0.5,0.0,0.25,0.5,1.25,0.0,0.25,0.5,0.0,1.5,0.25,0.0,0.5,-0.67,-0.36,0.7,82.33,0.3,-6.2
6.36,1.0,0.0,0.0,0.0,0.0,0.0,0.0,0.0,0.0,0.25,0.0,0.0,0.25,-0.98,0.2,0.14,24.24,17.5,30.6,0.5,0.0,0.5,0.5,1.25,0.0,0.0,0.5,0.0,1.0,0.25,0.0,0.5,-0.61,-0.42,0.7,83.35,-2.2,2.8
6.38,1.0,0.0,0.0,0.0,0.0,0.0,0.0,0.0,0.0,0.0,0.0,0.0,0.25,-0.98,0.2,0.14,21.72,24.4,52.9,0.5,0.0,0.5,0.5,1.25,0.0,0.0,0.5,0.0,1.25,0.25,0.0,0.25,-0.67,-0.48,0.77,82.74,-2.1,4.7
6.4,1.0,0.0,0.0,0.25,0.0,0.0,0.0,0.0,0.0,0.0,0.0,0.0,0.25,-0.98,0.2,0.14,22.57,23.1,53.8,0.5,0.0,0.5,0.5,1.25,0.0,0.25,0.5,0.0,1.25,0.25,0.0,0.5,-0.61,-0.48,0.7,84.33,-2.0,0.0
6.42,1.0,0.0,0.0,0.25,0.0,0.0,0.0,0.0,0.25,0.0,0.0,0.0,0.25,-0.98,0.2,0.14,24.79,21.5,40.4,0.5,0.0,0.5,0.5,1.25,0.0,0.0,0.5,0.0,1.0,0.25,0.0,0.25,-0.61,-0.42,0.77,81.79,-3.0,8.7
6.44,1.0,0.0,0.0,0.0,0.0,0.0,0.0,0.0,0.0,0.0,0.0,0.0,0.25,-0.98,0.2,0.14,24.39,24.4,52.9,0.5,0.0,0.75,0.5,1.25,0.0,0.0,0.5,0.0,0.5,0.25,0.0,0.5,-0.61,-0.42,0.7,81.09,-5.9,13.8
6.46,1.0,0.0,0.0,0.0,0.0,0.0,0.0,0.0,0.25,0.25,0.0,0.0,0.25,-0.98,0.2,0.2,25.65,16.7,20.5,0.5,0.0,0.5,0.5,1.25,0.0,0.0,0.5,0.0,1.0,0.25,0.0,0.25,-0.61,-0.42,0.77,79.85,-3.0,8.7
6.48,1.0,0.0,0.0,0.25,0.0,0.0,0.0,0.0,0.0,0.0,0.0,0.0,0.25,-0.98,0.2,0.14,25.46,23.1,53.8,0.5,0.0,0.5,0.5,1.25,0.0,0.0,0.5,0.0,1.75,0.25,0.0,0.25,-0.61,-0.42,0.77,82.05,-0.6,-2.3
6.5,1.0,0.0,0.0,0.25,0.0,0.0,0.0,0.0,0.0,0.25,0.0,0.0,0.25,-0.98,0.2,0.2,26.74,17.4,34.8,0.5,0.0,0.75,0.5,1.25,0.0,0.0,0.5,0.0,1.0,0.25,0.0,0.25,-0.61,-0.42,0.77,82.89,-4.8,11.3
6.52,1.0,0.0,0.0,0.25,0.0,0.0,0.0,0.0,0.25,0.0,0.0,0.0,0.25,-0.98,0.2,0.2,27.53,21.5,40.4,0.0,0.25,0.5,0.5,1.25,0.0,0.25,0.5,0.0,1.0,0.25,0.0,0.5,-0.61,-0.42,0.7,82.53,-0.4,-0.3
6.54,1.0,0.0,0.0,0.25,0.0,0.0,0.0,0.0,0.0,0.0,0.0,0.0,0.25,-0.98,0.2,0.14,28.05,23.1,53.8,0.5,0.0,0.75,0.5,1.25,0.0,0.0,0.5,0.0,1.0,0.25,0.0,0.5,-0.61,-0.42,0.77,83.93,-3.9,5.6
6.56,1.0,0.0,0.0,0.25,0.0,0.0,0.0,0.0,0.25,0.0,0.0,0.0,0.25,-0.98,0.2,0.2,28.86,21.5,40.4,0.5,0.0,0.5,0.5,1.25,0.0,0.0,0.5,0.0,1.0,0.25,0.0,0.5,-0.61,-0.42,0.77,82.63,-2.2,2.8
6.58,1.0,0.0,0.0,0.25,0.0,0.0,0.0,0.0,0.0,0.0,0.0,0.0,0.25,-0.98,0.2,0.14,27.93,23.1,53.8,0.75,0.0,0.25,0.5,1.25,0.0,0.0,0.5,0.0,2.0,0.25,0.0,0.25,-0.61,-0.42,0.7,85.75,0.3,-4.2
6.6,1.25,0.0,0.0,0.25,0.0,0.0,0.0,0.0,0.0,0.0,0.0,0.0,0.25,-0.98,0.2,0.14,28.65,24.8,59.9,0.25,0.0,0.5,0.5,1.25,0.0,0.25,0.5,0.0,0.25,0.25,0.0,0.25,-0.61,-0.42,0.7,79.94,-5.5,19.6
6.62,1.0,0.0,0.0,0.0,0.0,0.0,0.0,0.0,0.0,0.25,0.0,0.0,0.25,-0.98,0.2,0.2,27.28,17.5,30.6,0.5,0.25,0.5,0.5,1.25,0.0,0.0,0.5,0.0,1.25,0.25,0.25,0.5,-0.61,-0.42,0.77,83.71,-2.2,-0.9
6.64,1.0,0.0,0.0,0.0,0.0,0.0,0.0,0.0,0.25,0.0,0.0,0.0,0.25,-0.98,0.2,0.2,26.32,22.3,37.2,0.5,0.0,0.25,0.5,1.25,0.0,0.0,0.5,0.0,1.25,0.25,0.0,0.25,-0.55,-0.48,0.77,80.53,-0.2,1.7
6.66,1.0,0.0,0.0,0.75,0.0,0.0,0.0,0.0,0.0,0.0,0.0,0.0,0.25,-0.98,0.2,0.14,28.55,21.5,54.9,0.75,0.25,0.5,0.5,1.25,0.0,0.0,0.5,0.0,0.75,0.25,0.0,0.5,-0.55,-0.48,0.77,84.03,-4.9,15.1
6.68,1.0,0.0,0.0,0.5,0.0,0.0,0.0,0.0,0.0,0.25,0.0,0.0,0.25,-0.98,0.2,0.14,31.11,17.4,37.9,0.5,0.0,0.5,0.5,1.25,0.0,0.0,0.5,0.0,0.75,0.25,0.0,0.25,-0.48,-0.48,0.77,80.39,-4.0,13.2
6.7,1.0,0.0,0.0,0.25,0.0,0.0,0.0,0.0,0.25,0.0,0.0,0.0,0.25,-0.98,0.2,0.14,31.49,21.5,40.4,0.5,0.25,0.5,0.25,1.25,0.0,0.0,0.5,0.0,1.25,0.25,0.0,0.5,-0.48,-0.48,0.77,82.31,-1.2,1.2
6.72,1.0,0.0,0.0,0.0,0.0,0.0,0.0,0.0,0.25,0.0,0.0,0.0,0.25,-0.98,0.2,0.14,29.68,22.3,37.2,0.75,0.0,0.5,0.5,1.25,0.0,0.25,0.5,0.25,0.75,0.25,0.0,0.25,-0.48,-0.48,0.77,81.83,-6.4,14.8
6.74,1.0,0.0,0.0,0.0,0.0,0.0,0.0,0.0,0.25,0.0,0.25,0.0,0.25,-0.98,0.2,0.2,28.55,20.7,21.0,0.5,0.25,0.5,0.5,1.25,0.0,0.25,0.5,0.0,2.0,0.25,0.25,0.25,-0.48,-0.48,0.77,89.4,-1.3,-4.6
6.76,1.0,0.0,0.0,0.25,0.0,0.0,0.0,0.0,0.25,0.0,0.0,0.0,0.25,-0.98,0.2,0.2,28.01,21.5,40.4,0.5,0.0,0.5,0.5,1.25,0.0,0.0,0.5,0.0,1.25,0.25,0.0,0.25,-0.48,-0.48,0.77,88.71,-2.1,4.7
6.78,1.0,0.0,0.0,0.0,0.0,0.0,0.0,0.0,0.0,0.0,0.0,0.0,0.25,-0.98,0.2,0.2,25.68,24.4,52.9,0.5,0.5,0.5,0.5,1.25,0.0,0.25,0.5,0.0,1.0,0.25,0.0,0.25,-0.48,-0.48,0.77,90.36,-4.5,17.4
6.8,1.0,0.0,0.0,0.25,0.0,0.0,0.0,0.0,0.25,0.0,0.0,0.0,0.25,-0.98,0.2,0.14,26.36,21.5,40.4,0.5,0.0,0.5,0.5,1.25,0.0,0.0,0.5,0.0,0.75,0.25,0.0,0.25,-0.48,-0.48,0.77,84.89,-4.0,13.2
6.82,1.0,0.0,0.0,0.0,0.0,0.0,0.0,0.0,0.0,0.0,0.0,0.0,0.25,-0.98,0.2,0.14,24.13,24.4,52.9,0.5,0.0,0.5,0.5,1.25,0.0,0.0,0.5,0.25,0.75,0.25,0.0,0.5,-0.48,-0.48,0.77,83.13,-3.5,4.6
