time,left pressure 0[N/cm²],left pressure 1[N/cm²],left pressure 2[N/cm²],left pressure 3[N/cm²],left pressure 4[N/cm²],left pressure 5[N/cm²],left pressure 6[N/cm²],left pressure 7[N/cm²],left pressure 8[N/cm²],left pressure 9[N/cm²],left pressure 10[N/cm²],left pressure 11[N/cm²],left pressure 12[N/cm²],left acceleration X[g],left acceleration Y[g],left acceleration Z[g],left total force[N],left center of pressure X[mm],left center of pressure Y[mm],right pressure 0[N/cm²],right pressure 1[N/cm²],right pressure 2[N/cm²],right pressure 3[N/cm²],right pressure 4[N/cm²],right pressure 5[N/cm²],right pressure 6[N/cm²],right pressure 7[N/cm²],right pressure 8[N/cm²],right pressure 9[N/cm²],right pressure 10[N/cm²],right pressure 11[N/cm²],right pressure 12[N/cm²],right acceleration X[g],right acceleration Y[g],right acceleration Z[g],right total force[N],right center of pressure X[mm],right center of pressure Y[mm]
0.02,5.25,1.5,1.0,9.0,8.75,7.0,0.25,5.25,1.25,1.0,0.75,1.25,1.0,-0.11,0.14,0.95,663.83,2.8,31.2,2.0,0.75,0.5,5.25,6.25,3.25,0.0,0.0,0.25,0.5,1.0,0.25,0.0,0.14,0.33,1.2,229.56,-4.9,45.5
0.04,4.5,1.75,1.0,9.0,8.75,7.0,0.25,5.5,1.25,1.25,1.75,1.25,1.0,-0.11,0.14,0.95,678.36,2.4,27.3,3.0,1.0,0.75,6.0,7.25,2.0,0.25,0.0,0.25,0.75,1.0,0.0,0.0,0.08,0.2,1.2,288.23,-7.8,50.0
0.06,4.25,1.5,1.5,9.0,8.75,7.25,0.25,5.75,1.0,1.0,2.0,1.25,1.0,-0.11,0.14,0.95,688.18,2.4,26.9,3.5,1.5,1.0,7.25,8.5,5.5,0.25,0.0,0.0,0.75,1.0,0.0,0.0,0.14,0.2,1.02,368.33,-5.1,51.2
0.08,4.25,1.25,1.75,8.5,8.75,7.25,0.25,5.75,1.5,1.5,2.5,1.5,1.0,-0.11,0.14,0.95,702.19,2.4,22.8,4.5,1.75,2.25,9.0,9.5,6.5,0.5,0.5,0.25,1.25,0.0,0.0,0.0,0.14,0.14,1.33,474.84,-6.1,52.7
0.1,4.25,1.5,1.75,8.5,8.75,7.0,0.25,6.0,1.25,1.5,2.5,1.25,1.0,-0.11,0.14,0.95,710.03,2.4,23.9,3.75,1.0,2.75,9.0,9.75,7.25,1.25,1.75,0.0,1.0,0.75,0.0,0.75,0.02,0.08,1.02,585.38,-4.6,43.6
0.12,3.5,2.25,1.75,8.5,8.75,7.0,0.25,6.0,1.5,1.75,2.5,1.25,1.0,-0.11,0.14,0.95,719.93,2.0,23.1,4.5,1.75,3.5,9.0,9.75,7.75,1.75,3.0,0.75,1.5,1.0,0.25,0.75,0.08,0.14,1.02,703.4,-5.0,39.1
0.14,3.0,1.5,1.75,7.75,8.75,7.25,0.25,6.25,1.5,2.25,2.5,1.5,1.0,-0.11,0.14,0.95,715.79,0.9,18.5,4.5,2.0,3.5,7.5,9.75,8.0,1.75,5.0,1.25,4.25,1.0,0.75,1.25,0.14,0.08,0.95,815.95,-2.4,25.8
0.16,2.75,1.25,1.25,7.75,8.5,6.75,0.25,6.25,1.5,2.5,2.5,1.5,1.0,-0.17,0.14,0.95,699.11,0.4,16.2,3.75,1.75,2.75,7.25,9.75,8.0,1.75,6.0,1.75,4.5,3.25,1.25,1.75,0.14,0.08,0.95,912.0,-1.3,14.9
0.18,2.75,1.25,1.0,7.25,8.25,7.0,0.25,6.25,1.75,2.25,2.75,1.5,1.25,-0.17,0.14,0.95,678.92,0.0,14.3,3.75,1.5,2.0,7.25,9.5,8.0,1.75,6.5,1.75,5.25,3.5,2.0,2.25,0.14,0.08,0.95,976.08,-0.3,8.7
0.2,2.75,1.5,1.0,7.0,8.25,7.0,0.0,6.25,1.75,2.5,2.75,1.5,1.25,-0.17,0.14,0.95,662.09,-0.1,14.0,2.75,1.5,1.5,5.5,9.5,8.0,1.5,6.75,1.5,5.25,3.5,1.5,2.25,0.14,0.08,0.95,972.24,1.5,6.0
0.22,2.5,1.5,1.0,6.75,8.0,7.0,0.0,6.5,1.75,2.75,3.25,1.5,1.25,-0.17,0.14,0.95,652.98,-0.4,11.3,2.0,1.5,1.0,5.25,8.5,7.75,1.25,6.5,1.25,4.25,3.25,1.25,2.0,0.14,0.08,0.95,901.89,2.2,6.2
0.24,2.0,1.0,1.5,6.5,8.0,6.5,0.0,6.5,2.0,3.0,3.25,1.5,1.25,-0.17,0.14,0.95,643.04,-0.4,8.6,2.0,1.5,1.0,4.25,8.5,7.75,1.0,6.0,1.25,5.25,3.25,0.75,1.75,0.14,0.08,0.95,815.33,3.0,5.6
0.26,1.25,0.5,1.0,5.0,7.5,6.25,0.0,6.75,0.5,3.5,3.5,2.5,1.25,-0.17,0.14,0.95,609.55,-2.6,-0.4,1.5,1.0,1.0,3.25,8.5,7.75,0.75,6.0,1.25,4.25,3.0,1.0,1.75,0.14,0.08,0.95,722.87,3.9,3.7
0.28,1.0,1.0,0.75,4.75,7.0,6.0,0.0,6.5,1.25,4.0,3.5,2.5,1.25,-0.17,0.14,0.95,577.19,-2.7,-2.8,1.25,1.0,0.75,3.25,7.75,7.5,0.75,6.0,1.25,4.5,3.25,1.0,1.75,0.14,0.08,0.95,646.59,4.3,0.6
0.3,1.25,0.75,0.25,3.75,7.0,6.0,0.0,6.5,0.5,3.5,3.5,2.5,1.25,-0.17,0.14,0.95,533.22,-3.8,-3.8,1.25,1.0,0.75,3.25,7.25,7.5,0.75,6.0,1.25,5.25,3.25,1.25,1.75,0.14,0.08,0.95,590.2,4.4,-2.1
0.32,1.0,0.5,0.0,3.5,6.25,5.25,0.0,6.5,1.25,3.75,3.5,2.25,1.25,-0.17,0.14,0.95,491.82,-4.1,-8.8,1.0,1.0,0.5,3.25,7.75,7.25,0.75,6.25,1.25,5.5,3.25,2.25,1.75,0.14,0.08,0.95,563.58,4.6,-5.7
0.34,1.0,0.5,0.0,3.25,5.75,5.25,0.0,6.5,1.25,2.5,3.25,1.5,1.25,-0.17,0.14,0.95,445.7,-4.3,-5.1,1.0,0.75,1.0,2.5,7.25,7.25,0.5,6.75,1.25,6.5,3.75,2.5,2.25,0.14,0.08,0.95,557.52,5.0,-12.1
0.36,1.0,0.5,0.0,3.25,5.5,5.25,0.0,6.25,0.75,3.0,2.75,1.5,1.25,-0.17,0.14,0.95,409.79,-4.9,-4.8,1.0,0.75,0.75,2.0,7.0,7.25,0.5,7.0,1.0,6.75,4.75,3.5,3.0,0.14,0.08,0.95,565.58,5.2,-19.2
0.38,0.0,0.5,0.25,2.25,4.5,4.25,0.0,6.25,0.0,2.25,2.5,1.25,1.25,-0.17,0.14,1.02,360.74,-6.6,-9.8,1.0,0.75,0.75,1.5,6.5,7.25,0.5,7.25,1.25,7.25,5.25,3.75,4.5,0.14,0.08,0.95,588.56,5.6,-25.7
0.4,0.0,0.5,0.0,1.0,3.25,3.5,0.0,5.75,0.0,1.0,1.75,1.0,0.5,-0.11,0.14,1.02,294.94,-8.3,-8.9,1.25,0.75,0.75,1.5,6.25,7.25,0.5,7.5,1.25,7.75,6.25,4.75,5.25,0.14,0.08,0.95,634.57,5.1,-29.9
0.42,0.75,0.0,0.0,1.25,3.25,2.75,0.0,5.25,0.25,1.0,1.5,0.5,0.25,-0.17,0.2,1.14,244.17,-6.3,-2.7,1.0,0.5,0.75,1.0,5.75,7.25,0.5,7.5,1.25,8.25,6.25,5.25,5.75,0.14,0.08,0.95,682.21,5.7,-35.0
0.44,0.5,0.5,0.0,1.25,3.0,2.0,0.0,5.0,0.0,1.0,0.75,0.5,0.0,-0.17,0.33,1.45,195.72,-6.5,2.9,1.0,0.75,0.75,0.5,5.5,6.75,0.5,7.75,1.25,8.5,6.5,5.5,6.25,0.14,0.08,0.95,731.27,5.7,-38.0
0.46,1.0,0.5,0.25,1.25,2.25,1.5,0.0,4.25,0.25,1.0,1.5,0.25,0.0,-0.55,0.52,1.27,163.42,-2.5,2.4,1.0,0.5,1.0,0.5,5.25,6.75,0.5,7.75,1.0,8.75,6.5,5.5,6.75,0.14,0.08,0.95,766.49,5.8,-39.5
0.48,1.5,0.0,0.25,1.25,2.0,0.75,0.0,3.5,0.75,0.0,1.25,0.25,0.0,-0.48,1.58,1.2,136.39,1.9,8.0,1.0,0.75,0.5,0.5,5.25,6.75,0.5,8.0,1.0,8.75,6.75,5.75,7.25,0.14,0.08,0.95,795.03,6.1,-41.0
0.5,1.0,0.25,0.5,1.25,2.0,0.75,0.0,2.5,0.0,0.0,1.5,0.5,0.0,0.27,1.77,0.83,118.18,3.0,10.5,1.0,0.5,0.5,0.5,5.25,6.5,0.5,8.0,0.75,9.25,6.75,6.0,7.5,0.14,0.08,0.95,816.63,6.3,-43.0
0.52,1.75,0.75,0.5,1.25,2.0,0.5,1.75,2.5,0.0,0.75,1.5,0.0,0.0,0.83,1.7,1.45,115.09,6.3,19.3,1.0,0.25,0.5,0.5,3.75,6.25,0.5,8.0,0.75,9.25,6.75,6.0,7.75,0.14,0.08,0.95,820.23,6.5,-47.7
0.54,1.0,0.5,0.75,1.25,2.0,1.25,0.0,2.5,0.0,1.0,0.75,0.5,0.25,0.89,1.45,0.89,118.67,0.6,9.9,1.0,0.25,0.5,0.5,3.25,6.25,0.5,8.0,0.5,9.25,6.5,6.25,7.75,0.14,0.08,0.95,811.38,6.6,-49.1
0.56,1.0,0.5,0.75,2.0,2.0,1.75,0.0,2.25,0.0,0.25,1.0,0.5,0.0,0.2,1.45,1.14,130.93,2.6,21.0,1.0,0.5,0.5,0.5,2.75,6.0,0.5,7.75,0.5,9.0,6.75,6.0,8.0,0.14,0.08,0.95,792.62,6.4,-50.0
0.58,0.5,0.75,0.25,1.25,1.75,1.0,0.0,2.25,0.0,0.75,1.0,0.5,0.0,-0.11,1.27,1.02,131.97,-0.4,8.0,1.0,0.0,0.75,0.5,2.25,6.0,0.5,7.75,0.75,9.5,6.75,6.25,8.25,0.14,0.08,0.95,781.03,6.4,-52.9
0.6,0.0,0.5,0.5,1.25,1.75,2.0,0.0,2.25,0.0,0.5,1.0,0.5,0.0,-0.05,1.2,1.14,135.45,-3.0,7.4,1.0,0.25,0.5,0.5,2.25,6.0,0.25,8.0,0.75,9.25,6.75,6.5,8.25,0.14,0.08,0.95,772.86,6.5,-53.0
0.62,0.0,0.25,0.25,2.0,2.5,0.75,0.0,2.25,0.0,0.75,1.75,0.5,0.0,-0.05,1.14,1.27,142.66,-0.3,1.3,1.0,0.25,0.75,0.5,2.25,5.75,0.25,8.0,0.5,9.25,6.75,6.5,8.25,0.14,0.08,0.95,767.51,6.3,-52.9
0.64,0.0,0.0,0.5,2.0,1.75,0.0,0.25,2.25,0.0,0.5,0.0,0.5,0.0,-0.23,0.95,1.27,136.06,1.4,10.6,1.0,0.25,0.75,0.5,2.25,5.5,0.25,8.0,0.5,9.75,6.75,6.25,8.25,0.14,0.08,0.95,762.56,6.4,-53.3
0.66,0.25,0.5,0.25,1.75,1.25,1.5,1.25,4.25,1.25,1.0,0.0,0.5,0.0,-0.42,0.77,1.27,151.6,-2.2,-0.3,1.0,0.25,1.0,0.5,1.75,5.5,0.5,8.0,0.5,9.75,6.75,6.5,8.75,0.14,0.08,0.95,765.46,6.1,-54.6
0.68,1.5,0.5,1.25,0.0,1.25,0.0,2.25,3.25,0.0,0.0,0.0,0.75,0.0,-0.55,0.64,1.2,150.5,8.9,17.0,1.0,0.5,0.75,0.5,1.75,5.5,0.25,8.0,0.5,9.75,6.75,6.5,8.75,0.14,0.08,0.95,767.08,6.3,-54.6
0.7,1.25,0.25,0.0,2.0,0.0,0.0,0.0,4.75,0.5,1.0,0.5,0.0,0.25,-0.55,0.52,1.14,154.91,-0.7,-7.8,1.0,0.25,0.75,0.5,1.75,5.25,0.25,8.0,0.5,9.75,6.75,6.25,8.75,0.14,0.08,0.95,765.12,6.4,-55.5
0.72,1.5,0.75,0.0,2.0,0.0,1.75,2.75,4.75,1.25,1.0,0.0,0.75,0.0,-0.55,0.33,1.08,173.59,1.7,2.5,1.0,0.5,0.5,0.5,2.25,5.0,0.25,7.75,0.5,9.5,6.75,6.25,8.75,0.14,0.08,0.95,760.39,6.3,-54.5
0.74,1.0,0.5,0.0,1.25,0.0,0.75,2.0,4.5,0.0,0.75,0.0,0.5,0.0,-0.55,0.27,0.95,171.35,-0.6,-1.6,1.0,0.25,0.5,0.5,1.75,5.0,0.25,7.5,0.5,9.25,6.25,5.75,9.0,0.14,0.08,0.95,743.95,6.8,-56.1
0.76,1.0,0.5,0.25,1.0,1.0,0.5,0.0,2.25,0.0,0.5,0.0,0.5,0.0,-0.61,0.14,0.95,154.93,1.4,15.3,1.0,0.25,0.0,0.5,1.75,3.75,0.0,7.5,0.5,8.75,5.25,5.5,8.75,0.14,0.08,0.95,706.89,7.3,-58.9
0.78,1.0,0.25,0.25,1.25,1.5,0.5,0.0,2.25,0.25,0.5,0.0,0.25,0.0,-0.55,0.08,0.95,139.01,1.3,18.9,1.0,0.25,0.0,0.25,1.5,3.25,0.0,6.75,0.5,8.25,4.5,5.25,8.25,0.14,0.08,0.95,649.6,7.4,-60.5
0.8,1.0,0.25,0.25,1.25,0.75,0.75,0.0,2.25,0.25,0.75,0.0,0.5,0.0,-0.48,-0.05,1.02,127.3,0.8,8.7,1.0,0.0,0.0,0.5,1.5,3.25,0.0,6.0,0.5,7.25,3.25,3.5,8.0,0.2,0.08,1.14,569.12,8.3,-57.5
0.82,1.25,0.25,0.75,0.0,0.5,0.0,0.0,2.5,0.0,0.0,0.0,0.0,0.25,-0.42,-0.11,0.95,107.51,4.7,16.7,1.0,0.0,0.0,0.5,1.5,3.0,0.25,5.0,0.5,6.0,2.5,2.5,7.5,0.33,0.14,1.39,477.46,8.4,-54.7
0.84,0.0,0.0,0.0,0.0,0.0,0.0,0.0,0.0,0.5,0.0,0.0,0.0,0.0,-0.42,-0.17,0.95,66.14,12.1,-38.5,1.0,0.0,0.0,0.5,1.75,1.25,0.0,3.5,0.5,4.25,2.25,0.75,5.25,0.39,0.27,1.52,364.98,7.3,-49.2
0.86,1.0,0.25,0.0,1.25,0.0,0.25,1.75,4.25,1.25,1.25,0.0,1.0,0.0,-0.42,-0.17,0.83,84.68,1.1,-17.0,0.0,0.0,0.0,0.5,0.0,1.25,0.25,2.25,0.5,2.5,1.0,1.0,2.5,0.33,0.2,1.14,257.63,8.7,-59.1
0.88,0.25,0.25,0.25,0.75,0.75,0.0,0.0,4.0,0.0,0.75,0.0,0.5,0.0,-0.48,-0.23,0.77,87.51,-5.5,-14.4,1.0,0.25,0.5,0.5,1.5,0.5,0.0,2.25,0.25,1.0,1.25,0.0,1.75,0.39,0.14,1.02,165.49,1.2,-15.8
0.9,1.0,0.5,0.25,1.25,0.0,0.5,0.0,2.5,0.0,0.5,0.25,0.5,0.0,-0.42,-0.23,0.77,98.88,2.4,5.8,1.0,0.0,0.0,0.0,0.0,0.75,0.0,0.75,0.25,0.75,0.75,0.0,0.25,0.27,1.45,0.83,61.47,0.1,-14.3
0.92,1.0,0.5,0.25,1.25,0.0,0.25,2.25,4.5,0.25,0.25,0.0,0.25,0.0,-0.36,-0.3,0.95,114.38,2.8,4.3,1.0,0.25,1.5,0.5,1.5,2.0,0.75,1.25,0.25,1.75,1.25,0.5,1.0,0.45,1.58,0.14,40.52,-1.8,-3.0
0.94,1.25,0.5,0.25,1.0,0.0,0.0,0.0,2.25,0.25,1.0,0.0,0.75,0.0,-0.3,-0.3,0.64,116.04,4.3,-1.7,0.75,0.0,0.75,0.5,1.5,2.25,0.0,1.0,0.5,1.25,1.25,0.75,1.0,-0.11,1.14,0.58,36.35,1.3,-10.9
0.96,1.5,0.5,0.5,2.75,0.0,0.0,2.5,0.0,0.25,0.0,0.0,0.5,0.0,-0.73,-0.67,1.33,114.45,23.5,48.9,1.0,0.0,0.75,0.5,1.5,1.25,0.25,0.75,0.5,0.75,1.0,0.0,1.0,-0.86,1.08,1.2,48.29,-2.2,1.5
0.98,1.25,0.5,0.0,1.25,0.0,0.25,0.0,2.25,0.25,0.5,0.0,0.5,0.0,-0.73,-0.61,0.89,113.02,3.9,8.9,1.0,0.0,0.75,0.5,1.5,1.25,0.0,0.75,0.5,1.25,1.0,0.75,0.0,-0.55,0.7,1.08,54.05,-3.1,0.4
1.0,1.25,0.25,0.25,1.25,0.0,0.0,0.0,2.0,0.0,0.0,0.0,0.25,0.0,-1.17,-0.86,1.14,105.66,8.6,24.1,1.0,0.25,1.0,0.5,1.25,1.25,0.0,0.75,0.25,1.25,1.0,0.75,0.25,0.08,0.83,1.02,66.97,-3.8,1.1
1.02,2.5,0.5,0.25,3.0,0.0,0.0,0.0,2.25,0.0,0.5,0.0,0.5,0.25,-0.42,0.45,1.08,117.71,11.0,27.6,1.0,0.0,0.75,0.5,1.5,0.75,0.0,0.75,0.5,1.75,1.0,0.75,0.0,0.08,0.77,0.89,77.88,-3.4,-5.2
1.04,2.75,0.5,0.25,3.25,1.75,0.0,0.0,2.0,0.5,0.25,0.0,0.5,0.25,-0.73,0.95,2.7,146.8,10.3,34.6,1.0,0.0,1.0,0.5,1.5,0.75,0.0,0.75,0.5,1.25,1.0,0.75,0.0,-0.05,0.64,1.14,93.41,-5.4,0.4
1.06,2.75,0.5,0.75,7.0,4.5,0.75,0.0,2.0,0.25,0.75,0.0,0.25,0.25,-0.36,0.27,0.7,214.87,8.4,42.5,1.0,0.25,0.5,0.5,1.0,0.75,0.0,0.75,0.25,1.25,1.0,0.75,0.0,-0.17,0.52,1.27,105.57,-4.0,-2.8
1.08,0.0,1.5,1.25,8.25,7.75,2.0,0.0,2.0,0.0,0.25,0.0,0.0,0.25,-0.36,0.39,1.08,281.1,4.1,46.3,1.0,0.0,0.75,0.5,1.5,1.0,0.25,0.75,0.5,1.0,1.0,1.0,0.25,0.02,0.45,1.2,122.31,-4.3,-3.8
1.1,4.25,1.5,0.25,9.25,8.75,3.75,0.0,2.0,0.25,0.5,0.5,0.5,0.25,-0.36,0.2,1.33,375.78,5.6,46.4,1.0,0.0,0.75,0.5,1.5,1.0,0.0,0.75,0.5,0.75,1.0,0.5,0.25,0.08,0.39,1.14,128.97,-4.2,3.8
1.12,4.25,1.75,0.0,11.0,9.5,0.0,0.0,2.25,2.0,0.0,1.25,0.25,0.0,-0.3,0.27,1.14,472.49,9.5,45.3,1.0,0.25,0.75,0.5,1.5,1.25,0.0,0.75,0.5,1.25,1.0,0.75,0.25,0.14,0.27,1.14,136.73,-2.9,0.1
1.14,4.0,0.0,0.0,8.5,0.0,0.75,2.75,5.0,0.0,0.0,0.0,0.0,0.0,-0.23,0.2,1.14,453.87,11.5,38.0,1.0,0.0,0.75,0.5,1.75,1.25,0.25,0.75,0.5,1.5,1.0,0.25,0.0,0.14,0.08,1.2,140.43,-2.5,6.1
1.16,4.0,2.0,1.5,11.0,9.5,6.5,0.5,2.25,0.0,0.75,0.0,0.75,0.5,-0.23,0.2,1.02,534.15,4.8,45.7,1.0,0.0,0.75,0.5,1.5,1.0,0.0,0.75,0.5,1.0,1.0,0.75,0.25,0.2,0.02,1.14,136.59,-3.8,-1.4
1.18,5.5,3.25,1.75,12.0,9.5,7.0,1.0,3.0,0.25,0.75,0.0,0.5,0.5,-0.17,0.14,1.02,634.11,5.9,47.9,1.0,0.0,0.75,0.5,1.5,0.75,0.0,0.75,0.5,1.25,1.0,0.75,0.0,0.33,-0.17,1.27,136.63,-4.5,-1.3
1.2,5.75,3.25,0.0,11.5,11.0,7.0,1.25,4.0,0.5,1.0,0.0,0.5,0.5,-0.17,0.14,1.02,759.75,3.8,44.8,1.0,0.0,1.25,0.5,1.5,1.25,0.0,0.75,0.5,1.25,1.0,0.75,0.0,0.27,-0.17,1.08,140.96,-4.9,3.6
1.22,5.75,2.5,2.75,12.0,10.5,7.0,1.75,4.25,1.0,1.0,0.25,0.5,0.5,-0.17,0.08,1.02,862.68,6.0,43.0,1.0,0.0,1.0,0.5,1.5,0.75,0.0,0.75,0.5,2.25,1.0,0.5,0.0,0.2,-0.11,0.83,143.18,-3.2,-4.4
1.24,5.5,2.25,2.0,11.5,10.5,7.0,1.5,4.25,0.75,0.75,1.5,0.75,0.75,-0.11,0.14,0.95,923.78,5.3,38.6,1.0,0.25,0.75,0.5,1.5,1.0,0.0,0.75,0.5,1.0,1.0,0.5,0.25,0.27,-0.23,0.83,143.25,-3.9,4.3
1.26,5.25,2.0,2.75,11.0,10.5,7.0,1.0,4.0,0.5,0.75,0.0,0.5,0.5,-0.17,0.14,0.95,907.54,5.4,44.2,1.0,0.0,0.75,0.5,1.5,1.25,0.0,0.75,0.25,1.5,1.0,0.5,0.0,0.2,-0.3,0.95,142.33,-2.2,2.4
1.28,4.5,1.75,1.5,11.0,9.75,7.0,0.75,4.0,0.5,0.5,0.0,0.75,0.5,-0.17,0.14,0.95,847.23,4.1,42.2,1.0,0.25,0.75,0.5,1.5,0.75,0.0,0.75,0.5,1.0,1.0,0.75,0.0,0.33,-0.36,1.02,139.56,-5.3,3.6
1.3,3.5,1.75,1.25,10.5,9.5,7.0,0.0,3.75,0.5,0.5,0.75,0.5,0.5,-0.17,0.14,0.95,776.42,3.1,40.0,1.0,0.0,1.0,0.5,1.5,1.0,0.0,0.5,0.5,1.0,1.0,0.5,0.25,0.39,-0.23,0.77,137.02,-5.2,4.4
1.32,4.25,1.5,1.75,9.75,9.5,7.0,0.25,3.5,0.0,0.75,0.75,0.5,0.5,-0.17,0.14,0.95,716.19,3.7,41.2,1.0,0.0,1.0,0.5,1.5,0.5,0.0,0.75,0.5,0.75,1.0,0.5,0.25,0.33,-0.17,0.77,132.06,-6.8,3.8
1.34,2.75,1.5,0.0,9.5,9.5,6.75,0.25,3.5,0.0,0.0,0.75,0.75,0.75,-0.17,0.14,0.89,645.8,1.2,38.4,1.0,0.0,0.5,0.5,1.75,0.75,0.0,0.75,0.25,1.5,1.0,0.25,0.0,0.33,-0.23,0.83,129.7,-2.1,3.9
1.36,2.75,1.5,0.0,9.5,9.5,7.0,0.0,4.0,0.0,0.75,0.75,0.5,0.5,-0.17,0.14,0.89,606.41,0.5,37.1,1.0,0.0,0.75,0.5,1.5,0.5,0.0,0.75,0.5,1.5,1.0,0.5,0.0,0.64,-0.42,0.95,127.55,-4.5,-1.3
1.38,2.5,1.5,0.75,9.5,9.25,7.25,0.0,4.0,0.0,0.75,1.0,0.5,0.5,-0.17,0.14,0.95,579.34,0.9,36.3,1.0,0.0,0.75,0.5,1.5,0.5,0.0,0.75,0.5,1.0,1.0,0.25,0.25,0.83,-0.67,1.08,125.47,-5.0,3.1
1.4,2.75,1.75,1.0,9.5,9.5,7.75,0.0,4.25,0.0,0.75,0.75,0.75,1.0,-0.17,0.14,0.95,559.17,0.8,34.8,1.0,0.0,1.0,0.5,1.5,0.5,0.0,0.5,0.25,0.75,1.0,0.5,0.25,0.7,-0.42,0.77,122.92,-7.4,6.5
1.42,2.75,1.5,0.5,9.0,9.5,7.75,0.0,5.0,0.0,0.75,0.75,0.5,0.75,-0.17,0.14,0.95,557.39,-0.1,34.2,1.0,0.25,0.75,0.5,1.25,0.5,0.25,0.75,0.25,1.25,1.0,0.75,0.0,-0.23,-0.05,0.83,122.74,-5.9,0.3
1.44,2.5,1.5,0.25,8.5,9.5,8.0,0.0,5.25,0.0,0.75,0.0,1.25,0.75,-0.17,0.14,0.95,561.21,-1.1,32.2,0.5,0.0,0.75,0.5,1.5,0.5,0.25,0.75,0.0,0.5,1.0,0.0,0.0,-0.55,-0.17,1.45,113.0,-5.1,15.1
1.46,1.5,1.5,0.25,8.25,9.5,8.0,0.0,5.75,0.0,0.75,1.5,0.75,1.0,-0.17,0.14,0.95,561.54,-2.0,26.6,1.0,0.25,1.0,0.5,1.5,0.5,0.0,0.5,0.5,1.0,1.0,0.25,0.25,-0.36,-0.42,0.52,115.86,-6.9,9.0
1.48,2.25,1.5,0.0,8.25,9.5,8.25,0.0,6.0,0.25,1.0,1.5,1.25,1.0,-0.17,0.2,0.95,577.77,-1.7,24.6,1.0,0.0,0.75,0.5,1.5,0.5,0.0,0.75,0.25,0.25,1.0,0.25,0.5,-0.3,-0.11,0.52,113.38,-6.3,8.5
1.5,2.0,1.5,0.0,7.25,9.5,8.25,0.0,6.25,0.25,0.75,1.5,1.0,1.0,-0.17,0.2,0.95,585.52,-2.5,24.4,1.0,0.25,0.75,0.5,1.5,1.0,0.0,0.5,0.0,1.0,1.0,0.5,0.5,-1.23,-1.55,3.33,120.02,-3.5,4.6
1.52,1.5,1.5,0.0,7.0,9.5,8.5,0.0,6.25,0.0,1.25,1.5,1.0,1.0,-0.17,0.2,0.95,591.54,-3.4,22.5,1.0,0.25,0.75,0.5,1.5,2.0,0.0,0.75,0.5,1.25,1.0,1.0,0.25,0.33,-0.23,2.33,134.06,-1.3,-0.1
1.54,1.25,1.5,0.0,7.0,9.0,8.5,0.0,6.25,0.0,1.25,1.5,0.75,1.25,-0.17,0.2,0.95,585.66,-3.8,21.6,1.0,0.25,1.0,0.5,1.5,2.0,0.5,1.75,1.25,4.75,3.25,4.75,3.0,0.39,0.08,1.02,214.54,0.4,-47.2
1.56,1.0,1.5,0.25,5.5,9.0,8.5,0.0,6.25,0.25,1.0,1.5,1.25,1.25,-0.17,0.2,0.95,571.1,-4.3,18.4,1.25,0.25,1.0,0.5,1.5,1.25,0.5,2.25,1.25,6.25,5.5,6.25,6.75,-0.05,0.08,1.02,318.04,1.0,-60.6
1.58,1.25,1.5,0.0,5.25,9.0,8.5,0.0,6.25,0.25,0.75,1.25,1.0,1.0,-0.23,0.2,0.95,551.71,-4.5,21.4,1.25,0.0,1.0,0.5,1.5,0.75,0.75,2.25,1.25,6.75,6.5,6.75,7.75,0.08,-0.11,0.89,447.6,0.8,-65.3
1.6,1.0,1.5,0.0,4.25,8.75,9.0,0.0,6.25,0.5,1.0,0.75,0.75,1.0,-0.23,0.2,0.95,525.2,-5.9,20.8,1.5,0.25,0.75,0.5,1.5,1.25,0.75,2.25,1.25,7.25,6.75,7.25,7.75,-0.05,0.14,0.95,567.99,1.0,-63.6
1.62,0.0,1.5,0.0,3.5,8.75,9.0,0.0,6.25,0.0,1.25,1.25,1.0,1.25,-0.23,0.2,0.95,497.68,-7.6,14.8,1.75,0.0,0.75,0.5,1.5,1.25,0.75,2.25,1.25,7.25,6.75,7.75,8.25,0.02,0.08,0.95,650.28,0.9,-64.9
1.64,0.25,1.5,0.0,3.25,8.75,9.0,0.0,6.25,0.0,1.0,1.0,1.0,1.25,-0.23,0.2,0.95,474.7,-7.5,16.4,1.25,0.25,0.75,0.5,1.5,0.75,0.75,2.25,1.25,8.0,7.5,8.5,9.0,0.02,0.08,0.95,709.75,1.1,-68.8
1.66,1.0,1.5,0.0,3.25,8.75,9.0,0.0,6.25,0.0,1.0,1.0,0.75,1.25,-0.23,0.2,0.95,465.45,-6.8,18.9,1.25,0.25,1.0,0.5,1.5,0.75,0.75,2.25,1.25,8.25,8.0,8.5,9.25,0.02,0.08,0.95,752.37,0.9,-68.4
1.68,1.0,1.5,0.0,2.5,8.75,9.0,0.0,6.25,0.0,1.0,1.0,1.25,1.0,-0.23,0.2,0.95,457.85,-7.1,17.1,1.75,0.25,1.0,0.5,1.5,1.0,0.75,2.25,1.25,8.25,8.0,9.0,9.25,0.02,0.02,0.89,790.13,0.5,-66.5
1.7,1.25,0.5,0.0,2.75,8.75,9.25,0.0,6.25,0.0,0.75,0.75,0.75,1.25,-0.23,0.27,0.95,448.61,-7.7,17.9,2.0,0.25,1.0,0.5,1.5,1.0,0.75,2.25,1.25,8.5,7.75,8.5,9.25,0.02,0.08,0.95,802.27,0.6,-65.2
1.72,1.0,1.5,0.0,2.5,8.5,9.5,0.0,6.25,0.0,0.75,0.75,1.0,1.0,-0.23,0.27,0.95,444.75,-7.5,19.3,2.0,0.0,1.0,0.5,1.5,1.25,0.75,2.5,1.25,8.25,7.5,8.0,9.25,0.02,0.08,0.95,793.56,1.0,-64.8
1.74,0.5,1.5,0.0,1.25,8.25,9.5,0.0,6.25,0.25,0.75,0.0,0.75,1.25,-0.23,0.27,0.95,430.2,-9.7,17.9,2.0,0.0,1.0,0.5,1.5,2.0,0.75,3.0,1.25,8.25,7.5,7.75,9.0,0.02,0.08,0.95,771.57,1.5,-62.4
1.76,0.0,1.5,0.0,1.25,8.0,9.5,0.0,6.25,0.0,0.75,0.75,0.75,1.0,-0.23,0.27,0.95,414.95,-10.1,15.7,1.75,0.0,1.25,0.5,1.5,2.75,0.75,3.5,1.25,8.25,7.0,7.75,9.0,0.08,0.08,0.95,746.52,2.1,-60.6
1.78,0.0,1.25,0.0,1.25,7.75,9.5,0.0,5.75,0.0,0.75,0.75,0.5,0.75,-0.23,0.27,0.95,395.35,-10.4,17.7,1.75,0.0,1.0,0.5,1.5,2.5,0.5,3.75,1.25,8.75,6.75,7.75,9.0,0.02,0.08,0.95,719.52,2.6,-62.0
1.8,0.0,1.0,0.0,1.25,7.25,9.25,0.0,5.75,0.0,0.75,0.0,0.5,0.5,-0.3,0.27,0.89,375.55,-11.2,19.7,1.25,0.0,1.0,0.5,1.5,2.75,0.75,3.75,1.25,8.75,6.75,7.25,9.0,0.08,0.08,0.95,701.58,3.2,-62.4
1.82,0.0,1.0,0.0,1.25,7.0,9.25,0.0,5.75,0.0,0.75,0.0,0.5,0.5,-0.3,0.2,0.83,358.25,-11.3,19.4,1.25,0.0,1.0,0.5,1.5,3.25,0.75,4.0,1.25,8.75,6.75,7.25,9.0,0.08,0.08,0.95,696.56,3.4,-61.3
1.84,0.0,0.75,0.0,1.25,7.0,9.25,0.0,5.75,0.0,1.0,0.5,0.5,0.75,-0.3,0.2,0.89,350.08,-11.2,14.9,1.75,0.0,1.25,0.5,1.5,3.25,0.75,4.75,1.0,8.75,6.75,7.5,9.0,0.08,0.08,0.95,699.71,3.1,-59.0
1.86,0.0,0.75,0.0,1.25,7.0,9.0,0.0,5.75,0.0,1.0,0.5,0.5,0.5,-0.3,0.2,0.95,345.21,-11.0,15.9,2.0,0.25,0.75,0.5,1.5,3.25,0.75,5.0,1.0,9.0,6.75,7.25,9.0,0.08,0.08,0.95,704.88,3.4,-58.4
1.88,0.0,0.75,0.0,1.25,6.5,9.0,0.0,5.75,0.0,0.75,1.25,0.5,0.75,-0.23,0.27,1.08,343.36,-10.6,12.3,2.0,0.0,1.0,0.5,1.5,2.75,0.75,5.0,1.25,9.25,6.75,7.25,9.0,0.08,0.08,0.95,710.24,3.1,-59.5
1.9,0.0,1.0,0.0,1.25,6.0,8.5,0.0,5.25,0.0,0.75,0.0,0.5,0.5,-0.23,0.27,1.2,331.54,-11.2,18.5,2.0,0.0,1.0,0.5,1.5,3.25,0.75,5.0,1.25,9.0,6.75,7.25,9.0,0.08,0.08,0.95,715.44,3.2,-58.5
1.92,0.0,0.75,0.0,1.25,4.75,7.75,0.0,4.5,0.0,0.75,0.75,0.5,0.25,-0.23,0.27,1.45,309.13,-10.7,15.1,2.0,0.0,1.0,0.5,1.5,3.25,0.75,5.25,1.0,9.25,6.75,6.75,9.0,0.08,0.08,0.95,716.54,3.6,-58.0
1.94,0.0,0.5,0.0,1.25,3.25,6.25,0.0,4.0,0.0,0.25,1.0,0.5,0.5,-0.23,0.33,1.45,276.51,-10.2,9.6,2.0,0.0,1.0,0.5,1.5,3.25,0.75,5.25,1.0,9.25,6.75,7.0,9.0,0.08,0.08,0.95,718.44,3.5,-58.3
1.96,0.0,0.5,0.0,0.5,3.25,5.25,0.0,3.25,0.0,0.75,0.0,0.0,0.25,0.02,0.39,1.58,236.38,-12.8,17.1,2.0,0.0,1.0,0.5,1.75,3.25,0.75,5.5,1.0,9.25,6.75,7.0,9.0,0.08,0.08,0.95,722.3,3.6,-57.5
1.98,0.0,0.0,0.0,0.0,2.5,3.25,0.0,2.75,0.0,0.75,0.0,0.0,0.0,0.08,0.45,1.33,183.02,-14.5,10.1,2.0,0.25,1.0,0.5,1.5,3.25,0.5,6.0,0.75,9.5,6.5,6.75,9.0,0.08,0.08,0.95,723.84,4.0,-57.2
2.0,0.0,0.5,0.0,1.25,2.0,2.75,0.0,2.25,0.0,0.75,0.25,0.75,0.0,0.27,2.58,0.7,145.63,-7.3,8.8,1.25,0.0,0.75,0.5,1.5,3.25,0.5,6.0,0.75,9.5,6.5,6.5,9.0,0.08,0.08,0.95,717.58,5.0,-60.8
2.02,0.0,0.5,0.0,0.5,2.0,1.5,0.0,2.25,0.0,0.0,0.75,0.0,0.25,1.7,0.89,0.83,108.81,-7.2,10.3,1.25,0.25,0.75,0.5,1.5,3.0,0.5,6.0,0.75,9.75,6.25,6.5,9.0,0.08,0.08,0.95,710.87,5.0,-60.4
2.04,0.0,0.5,0.0,1.25,0.5,2.25,0.0,1.75,0.0,0.0,0.0,0.5,0.0,0.77,1.33,1.2,82.78,-6.8,15.9,1.25,0.25,1.75,0.25,1.75,3.25,0.5,6.75,0.5,9.5,6.25,6.25,9.0,0.08,0.08,0.95,709.64,4.5,-56.7
2.06,0.0,0.5,0.25,1.25,2.0,2.0,0.0,2.25,0.0,0.25,1.0,0.5,0.0,0.14,1.52,0.64,81.19,-3.7,9.4,1.25,0.25,0.75,0.0,1.5,3.25,0.25,6.75,0.75,9.75,5.5,5.75,9.0,0.08,0.08,0.95,695.78,6.1,-60.1
2.08,0.0,0.5,0.0,0.5,0.25,1.5,0.0,1.5,0.0,0.75,0.0,0.5,0.0,-0.67,1.39,0.52,63.78,-9.1,-4.4,1.0,0.25,0.75,0.0,1.5,3.25,0.0,6.75,0.5,9.5,5.25,5.5,9.0,0.08,0.08,0.95,676.41,6.7,-60.9
2.1,0.0,0.0,0.25,0.0,1.5,1.5,0.0,2.25,0.0,0.0,0.25,0.5,0.0,-0.86,1.02,0.52,58.78,-9.2,-0.5,1.0,0.0,1.0,0.0,1.5,3.25,0.0,6.75,0.5,9.75,5.25,5.5,9.0,0.14,0.08,0.95,661.02,6.6,-61.2
2.12,0.0,0.0,0.0,0.0,0.0,1.5,0.0,1.25,0.0,0.0,0.0,0.0,0.0,-0.61,0.77,0.83,33.73,-20.0,0.0,1.0,0.0,0.75,0.0,1.5,3.25,0.0,6.75,0.5,9.5,5.0,5.25,9.0,0.14,0.08,0.95,644.27,7.0,-61.5
2.14,0.0,0.25,0.0,0.0,0.0,1.5,0.0,1.25,0.0,0.0,0.0,0.5,0.0,-0.48,0.45,1.08,25.87,-13.3,-8.5,1.0,0.0,0.75,0.0,1.5,3.25,0.0,6.25,0.5,9.25,4.0,5.0,8.5,0.08,0.08,0.95,616.19,7.2,-60.4
2.16,0.0,0.5,0.0,1.25,0.0,1.5,0.0,1.5,0.0,0.75,1.0,0.25,0.0,-0.55,0.45,0.89,36.44,-4.1,-5.9,1.0,0.25,0.5,0.0,0.5,1.0,0.0,5.5,0.5,7.75,3.25,3.25,8.0,0.14,0.08,1.02,543.28,7.1,-66.6
2.18,0.0,0.5,0.0,1.0,2.0,1.5,0.0,2.25,0.0,0.5,1.0,0.5,0.25,-0.73,0.45,0.89,75.07,-5.1,0.2,1.0,0.25,0.75,0.25,0.5,1.0,0.0,5.0,0.5,7.0,2.5,2.5,7.75,0.14,0.08,1.08,464.61,6.9,-62.8
2.2,0.0,0.0,0.0,0.0,0.75,1.0,0.0,1.75,0.0,0.0,1.25,0.25,0.0,-0.8,0.45,1.02,84.14,-7.6,-21.4,1.0,0.0,0.5,0.25,1.5,2.0,0.0,3.75,0.25,6.25,1.5,2.25,6.75,0.14,0.08,1.08,384.75,8.0,-55.3
2.22,0.0,0.0,0.0,0.0,0.75,1.0,0.0,2.0,0.0,0.25,0.25,0.5,0.0,-0.92,0.45,1.14,85.83,-11.4,-18.8,1.0,0.0,0.5,0.0,1.25,1.0,0.0,3.0,0.5,5.0,1.0,1.5,5.75,0.14,0.14,1.39,314.22,7.4,-56.3
2.24,0.0,0.5,0.0,0.0,1.75,1.5,0.0,2.25,0.0,0.5,1.0,0.5,0.0,-1.11,0.52,1.08,92.95,-7.7,-5.5,1.0,0.0,0.5,0.0,1.5,0.5,0.0,2.25,0.5,3.5,1.0,1.0,4.0,0.58,0.33,1.39,251.83,5.5,-48.4
2.26,0.0,0.5,0.0,0.0,0.0,1.0,0.0,1.5,0.0,0.5,1.0,0.0,0.25,-1.11,0.39,0.77,85.79,-8.7,-24.3,1.0,0.25,0.75,0.25,1.0,0.75,0.0,2.0,0.5,2.0,1.0,1.0,3.0,0.45,0.52,1.58,191.91,2.3,-36.9
2.28,0.0,0.5,0.0,0.5,0.0,1.5,0.0,1.25,0.0,0.0,0.5,0.5,0.25,-1.11,0.33,0.58,81.98,-6.4,-7.7,1.0,0.0,1.0,0.5,1.0,1.0,0.0,1.0,0.5,2.25,1.0,0.75,2.5,0.52,0.64,1.27,140.62,0.6,-30.6
2.3,0.0,0.0,0.0,0.0,0.0,0.75,0.0,1.25,0.0,0.0,0.25,0.5,0.0,-1.17,0.08,0.58,64.93,-11.1,-36.0,1.0,0.0,1.0,0.5,1.5,1.25,0.0,0.75,0.5,1.75,1.0,0.75,1.75,-1.48,2.45,0.77,107.02,-0.5,-18.1
2.32,0.0,0.0,0.0,0.0,0.25,0.75,0.0,0.75,0.0,0.0,0.0,0.25,0.0,-1.05,-0.11,0.7,52.45,-13.8,-8.4,1.0,0.0,1.0,0.5,1.25,0.75,0.0,0.75,0.5,2.25,1.0,0.75,1.75,-0.86,1.45,0.7,90.22,-0.9,-24.4
2.34,0.0,0.0,0.0,0.0,0.25,0.75,0.0,0.5,0.0,0.0,0.0,0.0,0.0,-0.8,-0.17,0.89,31.95,-17.0,13.5,1.0,0.0,1.0,0.25,1.5,1.0,0.0,0.75,0.5,1.5,1.0,1.0,1.25,0.58,1.08,1.02,83.48,-1.9,-17.4
2.36,0.0,0.0,0.0,0.0,1.0,0.5,0.0,0.75,0.0,0.0,0.0,0.5,0.0,-0.61,-0.23,1.14,30.04,-7.9,-1.9,1.0,0.0,0.75,0.5,1.5,1.0,0.0,0.75,0.5,1.25,1.25,0.75,1.0,-0.3,0.83,1.14,84.3,-2.2,-12.9
2.38,0.0,0.0,0.0,0.0,0.75,0.5,0.0,1.0,0.0,0.25,0.25,0.0,0.0,-0.36,-0.23,0.77,27.43,-11.2,-4.7,1.0,0.0,1.0,0.25,1.25,1.0,0.0,0.75,0.5,1.25,1.0,0.5,1.0,-0.55,0.45,1.27,87.92,-2.5,-10.8
2.4,1.0,0.5,0.0,1.0,0.75,1.25,0.0,0.75,0.0,0.0,0.0,0.0,0.0,-0.11,0.14,0.52,44.2,2.7,49.2,1.0,0.0,1.0,0.0,1.5,1.0,0.0,0.75,0.25,2.25,1.0,0.75,1.0,0.45,0.45,1.02,100.93,-0.2,-18.5
2.42,0.0,0.0,0.0,0.0,0.75,0.25,0.0,0.75,0.0,0.0,0.0,0.0,0.0,0.14,0.02,0.7,40.97,-11.2,13.7,1.0,0.0,1.0,0.25,1.5,0.75,0.0,0.75,0.5,1.25,1.0,0.75,1.0,1.02,0.33,0.77,108.68,-3.1,-12.5
2.44,0.0,0.0,0.0,0.0,0.0,0.25,0.0,0.5,0.0,0.0,0.0,0.0,0.0,-0.23,-1.3,0.64,34.34,-18.7,-15.4,1.0,0.0,1.0,0.5,1.5,0.75,0.0,0.75,0.5,1.0,1.0,1.0,1.0,1.02,0.2,0.45,120.54,-4.1,-11.5
2.46,1.0,0.25,0.25,0.0,0.0,1.0,0.0,1.5,0.0,0.75,0.0,0.25,0.5,-1.42,-2.48,2.64,42.78,-3.2,-6.2,1.0,0.0,1.0,0.5,1.0,0.75,0.0,0.75,0.5,1.25,1.0,0.75,1.25,1.77,-3.86,1.14,128.97,-3.4,-17.0
2.48,1.25,0.25,0.0,0.0,0.0,1.0,0.0,2.75,0.5,0.75,3.25,0.0,2.5,1.39,0.45,4.08,91.09,-2.5,-43.9,1.0,0.0,1.25,0.0,0.5,0.5,0.0,0.75,0.25,1.0,1.0,0.75,0.25,2.7,-6.17,0.08,123.28,-7.9,-11.1
2.5,1.0,0.5,0.0,0.25,0.25,1.25,0.0,2.0,1.25,2.25,2.25,2.75,2.5,-0.3,-0.61,0.95,160.5,-1.5,-51.3,1.0,0.0,1.0,0.5,1.25,0.75,0.0,0.75,0.5,1.5,1.0,1.0,1.0,0.64,-0.86,0.89,128.83,-3.3,-16.4
2.52,1.0,0.0,0.0,0.0,0.75,0.75,0.0,2.5,0.5,0.0,1.5,1.5,2.5,-0.11,0.14,0.95,189.91,-2.6,-46.3,1.0,0.0,1.0,0.0,0.25,0.75,0.0,0.75,0.25,2.0,1.0,1.25,1.75,1.58,2.58,0.39,132.48,-1.0,-40.4
2.54,1.25,0.25,0.0,0.25,0.0,1.0,0.0,3.25,1.25,3.25,3.25,4.0,3.75,-0.17,0.14,0.95,249.86,-2.2,-62.3,1.0,0.0,1.0,0.25,1.25,0.75,0.0,0.75,0.25,1.5,1.0,1.25,2.75,0.08,1.45,3.77,147.99,-0.4,-33.7
2.56,1.0,0.25,0.0,0.25,0.0,1.0,0.5,3.75,2.25,4.25,5.0,5.5,5.25,-0.17,0.14,0.95,315.94,-1.7,-67.9,1.0,0.0,1.0,0.5,1.5,0.5,0.0,0.75,0.25,1.25,1.0,1.0,2.25,0.27,-0.05,1.83,155.24,-2.0,-24.6
2.58,1.0,0.25,0.0,1.25,0.5,1.0,0.0,3.75,2.25,5.5,5.5,5.75,6.5,-0.11,0.02,0.95,410.98,-2.1,-64.8,1.0,0.0,1.0,0.5,1.5,0.75,0.0,0.75,0.5,1.25,1.0,0.75,1.75,-0.8,-0.67,-0.48,161.32,-2.3,-17.7
2.6,1.0,0.5,0.0,1.25,0.0,1.5,0.25,3.75,2.25,5.5,6.25,6.25,6.5,-0.17,0.08,0.95,504.34,-1.7,-64.8,1.0,0.0,1.25,0.5,1.5,0.75,0.0,0.75,0.25,1.75,1.0,1.5,2.0,-0.36,-0.48,0.58,167.15,-2.2,-25.4
2.62,1.0,0.5,0.25,1.25,0.5,1.25,0.0,4.0,2.25,6.25,6.75,6.5,7.25,-0.17,0.08,0.95,590.77,-1.8,-64.4,1.0,0.0,0.75,0.0,1.25,0.75,0.0,0.75,0.25,1.5,1.25,1.75,3.75,0.27,-0.05,1.14,178.66,1.2,-46.9
2.64,0.0,0.25,0.5,1.25,0.5,1.25,0.0,4.5,2.25,6.5,7.0,6.75,7.5,-0.17,0.08,0.95,643.84,-2.7,-69.1,1.0,0.0,0.75,0.5,1.25,0.5,0.0,0.75,0.25,1.25,1.0,2.25,5.0,0.7,-0.36,1.2,196.35,0.9,-51.2
2.66,0.25,0.25,0.25,1.25,1.0,1.25,0.0,4.5,1.75,6.5,7.0,6.75,7.75,-0.11,0.08,0.95,676.04,-3.1,-67.7,1.0,0.0,0.75,0.25,1.5,0.5,0.0,0.75,0.0,1.5,1.0,2.5,5.75,0.64,-0.42,0.89,216.65,2.1,-55.4
2.68,0.25,0.25,0.25,1.25,0.75,1.25,0.0,4.0,1.5,6.5,0.0,6.75,7.75,-0.11,0.08,0.95,632.46,-6.0,-67.9,1.0,0.0,1.0,0.0,1.0,0.5,0.0,0.75,0.25,1.5,1.0,3.25,5.75,-0.05,-0.42,0.83,234.32,1.0,-61.5
2.7,0.0,0.25,0.0,1.25,1.0,1.0,0.0,4.25,1.25,6.5,6.5,7.0,8.0,-0.17,0.08,0.95,621.64,-3.7,-71.4,0.25,0.0,0.25,0.25,1.5,0.5,0.0,0.75,0.0,1.5,1.0,3.5,6.25,-0.05,-0.86,0.83,246.55,4.7,-70.9
2.72,0.25,0.25,0.0,1.25,0.75,1.0,0.0,4.25,1.25,7.0,6.75,7.0,8.25,-0.11,0.02,0.95,610.78,-3.6,-71.6,1.0,0.75,0.25,0.5,1.5,0.5,0.0,0.5,0.0,1.5,1.25,2.5,6.25,0.33,-1.48,0.95,252.95,2.3,-52.3
2.74,1.0,0.25,0.0,1.25,1.25,1.25,0.0,5.0,1.25,7.25,7.0,7.0,8.25,-0.11,0.08,0.95,633.69,-3.3,-65.8,1.0,0.0,0.0,0.25,1.0,0.5,0.0,0.5,0.0,1.25,1.0,2.25,5.75,0.58,-2.73,1.08,242.94,4.1,-65.5
2.76,1.0,0.25,0.25,1.25,1.5,1.25,0.0,5.0,1.25,7.25,7.0,7.0,8.25,-0.17,0.08,0.95,650.28,-3.1,-64.2,1.0,0.0,0.0,0.25,1.5,0.5,0.0,0.5,0.0,1.25,1.0,0.75,4.0,0.45,-2.42,1.08,218.74,4.2,-46.0
2.78,0.0,0.25,0.0,1.25,0.5,1.0,0.0,5.0,0.75,7.25,6.25,6.5,8.25,-0.17,0.08,0.95,629.57,-4.8,-72.9,1.0,0.0,0.5,0.25,1.0,0.5,0.0,0.75,0.25,0.0,1.0,0.75,2.25,0.33,-1.17,0.77,180.13,-2.1,-27.7
2.8,1.0,0.25,0.0,1.25,1.0,0.75,0.0,5.5,0.5,7.25,5.25,6.25,8.25,-0.23,0.02,0.95,600.25,-4.4,-66.8,1.0,0.0,1.0,0.25,1.5,0.5,0.0,0.5,0.25,1.25,1.0,0.5,1.75,0.2,-0.23,-0.11,153.62,-2.6,-17.5
2.82,0.5,0.5,0.25,1.25,0.5,1.0,0.0,5.5,0.5,7.25,4.75,6.25,8.25,-0.23,-0.05,0.89,569.88,-4.9,-68.0,1.0,0.0,1.0,0.5,1.25,0.5,0.0,0.75,0.25,1.25,1.0,0.75,1.75,-0.11,1.58,-0.11,136.97,-2.8,-20.4
2.84,1.0,0.25,0.0,1.25,0.0,0.75,0.0,5.25,0.5,7.25,4.0,6.25,8.25,-0.23,0.08,0.95,542.78,-4.9,-70.7,1.0,0.0,1.0,0.5,1.5,0.5,0.0,0.75,0.5,1.25,1.0,0.75,1.25,0.14,1.64,-0.36,131.63,-3.7,-14.2
2.86,1.0,0.25,0.0,1.25,0.0,0.75,0.0,5.25,0.5,7.25,4.75,5.75,8.25,-0.17,-0.05,0.89,523.08,-4.8,-70.3,1.0,0.0,1.0,0.25,1.25,0.5,0.0,0.75,0.5,1.0,1.0,0.5,1.25,-0.98,0.45,1.27,125.23,-3.9,-14.2
2.88,1.0,0.25,0.0,0.5,0.25,0.75,0.0,5.25,0.5,7.25,5.25,6.0,8.25,-0.23,0.02,0.95,516.53,-5.0,-72.5,1.0,0.0,0.75,0.5,1.25,0.5,0.0,0.5,0.5,1.0,1.0,0.75,1.0,0.39,-1.11,1.83,119.4,-4.5,-13.4
2.9,1.0,0.25,0.0,0.5,0.0,0.75,0.0,5.25,0.5,7.0,4.75,6.0,8.25,-0.3,0.02,0.89,509.65,-5.1,-73.5,1.0,0.0,0.75,0.5,1.25,0.5,0.0,0.75,0.25,1.25,1.0,0.75,1.0,0.58,-1.8,2.14,114.83,-3.2,-15.1
2.92,1.0,0.25,0.0,1.25,0.0,0.75,0.0,5.25,0.5,6.5,4.5,6.25,7.75,-0.73,-0.11,0.83,501.95,-4.3,-70.1,1.0,0.0,0.75,0.25,1.25,0.5,0.0,0.5,0.25,1.0,1.0,0.75,1.0,1.08,-1.17,1.14,110.48,-3.9,-14.9
2.94,1.0,0.25,0.0,1.0,0.0,0.75,0.0,5.0,0.5,6.5,4.75,0.0,7.25,-0.92,-0.17,0.83,440.21,-7.2,-61.8,1.0,0.0,0.75,0.5,1.0,0.5,0.0,0.5,0.25,0.75,1.0,0.75,1.0,0.7,-0.92,0.83,108.85,-5.2,-13.1
2.96,1.0,0.25,0.0,0.0,0.0,0.75,0.0,5.0,0.5,5.5,5.5,6.25,6.5,-1.42,-0.36,0.89,422.25,-3.9,-74.1,1.0,0.0,0.75,0.5,0.5,0.5,0.0,0.5,0.25,1.0,1.0,0.75,1.0,0.64,-0.92,0.27,107.58,-5.2,-20.1
2.98,0.0,0.25,0.0,0.25,0.0,0.75,0.0,5.0,0.5,5.5,5.5,6.0,6.25,-1.55,-0.86,0.83,403.53,-5.0,-77.7,1.0,0.0,1.0,0.25,1.25,0.75,0.0,0.75,0.25,1.0,1.0,0.75,0.5,0.64,-0.86,0.02,114.1,-4.6,-6.3
3.0,1.0,0.25,0.0,0.25,0.0,0.75,0.0,4.5,0.5,4.75,4.0,5.5,6.0,-1.17,-0.92,0.77,391.64,-4.1,-71.7,1.0,0.0,1.0,0.25,0.5,0.5,0.0,0.5,0.25,1.25,1.0,0.75,1.0,1.77,-1.05,0.64,115.85,-5.2,-21.8
3.02,1.0,0.25,0.0,1.25,0.0,0.75,0.0,4.5,0.5,4.25,3.75,4.5,6.0,-0.86,-1.17,0.58,375.15,-3.7,-65.1,1.0,0.0,0.75,0.5,1.25,0.5,0.0,0.75,0.25,1.0,1.0,0.75,1.0,0.7,0.08,0.2,121.72,-3.7,-13.4
3.04,1.0,0.25,0.0,1.0,0.0,0.75,0.0,4.5,0.5,4.25,3.25,3.75,5.25,-0.55,0.08,0.77,350.6,-4.3,-63.5,1.0,0.0,0.75,0.25,1.0,0.5,0.0,0.5,0.25,0.75,1.0,0.75,1.0,0.64,0.33,-0.3,118.23,-4.8,-15.5
3.06,1.0,0.25,0.0,1.0,0.0,0.75,0.0,4.25,0.5,2.5,2.5,2.75,4.0,-0.98,-0.05,1.39,303.71,-3.7,-56.8,1.0,0.0,1.0,0.5,1.25,0.75,0.0,0.5,0.25,1.25,1.0,0.75,0.75,0.52,0.2,-0.23,123.76,-4.5,-8.4
3.08,0.0,0.25,0.0,1.0,0.0,0.75,0.0,3.25,0.25,0.75,2.0,1.75,2.75,-1.17,0.02,1.89,247.01,-4.7,-57.2,1.0,0.0,1.0,0.5,1.0,0.5,0.0,0.5,0.25,1.0,1.0,0.75,0.5,0.02,-0.11,0.14,122.7,-6.8,-6.6
3.1,1.0,0.0,0.0,0.5,0.0,0.5,0.0,3.0,0.25,0.0,1.5,0.5,1.25,-1.67,0.02,2.08,174.58,-1.6,-34.9,1.0,0.0,0.75,0.5,1.25,0.5,0.0,0.75,0.0,1.0,1.0,0.75,0.25,-0.42,-0.42,0.45,123.12,-5.2,-3.2
3.12,0.0,0.5,0.0,0.0,0.0,1.75,0.0,2.25,0.0,0.0,0.0,0.0,1.25,-2.86,-0.3,1.33,98.87,-15.2,-21.2,1.0,0.0,0.75,0.5,1.0,0.5,0.0,0.5,0.25,1.0,1.0,0.75,0.75,-0.05,-1.23,0.02,121.07,-5.1,-12.0
3.14,0.5,0.0,0.0,0.0,1.25,1.0,0.0,0.0,0.0,1.0,1.0,1.25,1.25,-0.36,1.02,2.89,54.35,-2.9,-36.8,1.0,0.0,0.75,0.5,1.0,0.5,0.0,0.5,0.25,1.0,1.0,0.75,0.5,-0.73,-1.55,0.64,119.46,-5.8,-8.8
3.16,1.0,0.5,0.25,0.0,0.5,0.0,0.0,2.25,0.0,0.75,0.75,0.0,1.25,0.2,0.02,2.02,34.61,-1.6,-20.6,1.0,0.0,1.0,0.5,1.25,0.5,0.0,0.5,0.0,1.0,1.0,0.75,0.5,0.33,-1.23,0.45,120.16,-6.3,-3.4
3.18,1.0,0.25,0.0,0.0,0.75,0.5,0.0,2.0,0.0,0.75,0.75,0.0,1.25,0.39,-0.05,2.02,35.45,-4.5,-20.6,1.0,0.0,0.75,0.25,1.25,0.5,0.0,1.0,0.0,0.5,1.0,0.5,1.25,-0.05,-1.23,0.58,120.43,-2.9,-12.0
3.2,1.0,0.25,0.25,0.0,0.0,0.25,0.0,2.25,0.0,0.75,0.0,0.0,1.25,-0.11,0.45,0.77,27.31,-4.4,-24.2,1.0,0.0,0.75,0.5,0.5,0.5,0.0,0.5,0.25,1.0,1.0,0.75,0.25,0.33,-0.61,0.27,115.69,-7.2,-10.2
3.22,1.0,0.25,0.0,1.25,0.0,0.25,0.0,2.0,0.0,0.75,0.0,0.0,1.25,-0.05,0.2,-0.8,34.47,-1.4,-11.0,1.0,0.0,0.75,0.5,1.25,0.75,0.0,0.5,0.0,0.75,1.0,0.75,0.25,0.33,-0.42,0.27,113.62,-5.7,1.4
3.24,1.0,0.25,0.25,1.25,0.0,0.25,0.0,2.25,0.0,0.75,0.0,0.0,1.5,0.95,-0.55,0.58,47.08,-1.0,-12.8,1.0,0.25,0.75,0.5,0.25,0.5,0.0,0.5,0.25,0.75,1.0,0.75,0.75,0.33,-0.3,0.33,110.04,-7.2,-13.7
3.26,1.0,0.25,0.0,1.25,0.75,0.25,0.0,2.0,0.25,0.75,1.0,0.5,1.25,0.39,-0.67,0.2,72.17,0.5,-17.6,1.0,0.0,1.0,0.5,1.25,0.5,0.0,0.5,0.25,0.75,1.0,0.75,0.5,0.39,-0.17,0.33,112.96,-7.1,-2.3
3.28,1.0,0.25,0.25,1.25,0.5,0.25,0.0,1.75,0.25,0.75,0.0,0.5,1.25,-0.48,-0.48,0.14,92.0,1.1,-10.1,1.0,0.0,1.0,0.5,0.5,0.5,0.0,0.5,0.25,0.75,1.0,0.75,0.5,0.52,-0.23,0.45,111.61,-8.4,-9.0
3.3,1.0,0.25,0.0,1.25,0.5,0.25,0.0,1.75,0.25,0.75,1.5,0.5,1.25,-0.48,-0.42,0.2,115.16,1.6,-22.3,1.0,0.0,0.75,0.25,0.5,0.5,0.0,0.5,0.25,0.75,1.0,0.75,0.0,0.77,-0.36,0.39,105.95,-8.6,-6.3
3.32,1.0,0.25,0.25,1.25,0.75,0.25,0.0,2.0,0.5,0.75,0.25,0.5,1.25,-0.42,-0.17,0.39,129.57,1.1,-11.4,1.0,0.0,0.75,0.25,1.25,0.5,0.0,0.5,0.25,0.75,1.0,0.75,0.25,0.52,-0.36,0.14,105.59,-6.4,-2.9
3.34,1.0,0.25,0.0,1.25,0.25,0.25,0.0,1.75,0.25,0.75,0.5,0.5,1.0,-0.61,0.08,0.27,131.65,1.2,-15.6,1.0,0.0,0.75,0.0,1.0,0.75,0.0,0.5,0.25,1.0,1.0,0.75,0.25,0.39,-0.61,0.14,105.19,-4.7,-8.6
3.36,1.0,0.25,0.0,1.25,0.0,0.25,0.0,2.0,0.5,0.75,0.75,0.5,1.25,-1.05,-0.05,-0.05,130.66,0.9,-23.9,1.0,0.0,1.0,0.0,1.25,0.5,0.0,0.5,0.0,1.0,1.0,0.75,0.25,0.52,-1.23,0.27,107.2,-6.2,-4.1
3.38,1.0,0.25,0.0,1.0,0.0,0.25,0.0,2.25,0.25,0.75,0.5,0.5,1.0,-1.86,-0.23,-0.05,124.06,-0.3,-22.2,1.0,0.0,1.0,0.25,1.0,0.5,0.0,0.5,0.0,0.75,1.0,0.75,0.25,0.64,-1.61,0.52,107.59,-7.8,-1.6
3.4,1.0,0.25,0.0,1.0,0.0,0.25,0.0,1.75,0.25,0.75,0.5,0.5,0.75,-1.92,-0.48,-0.17,117.28,1.3,-17.8,1.0,0.0,0.75,0.25,1.25,0.5,0.0,0.5,0.0,0.75,1.0,0.75,0.5,0.64,-1.42,0.58,109.36,-5.5,-5.4
3.42,1.0,0.25,0.0,1.0,0.0,0.25,0.0,2.25,0.25,0.75,0.5,0.5,0.75,-1.48,-0.55,-0.11,112.84,0.1,-19.2,1.0,0.0,0.75,0.5,1.0,0.5,0.0,0.5,0.25,1.0,1.0,0.75,0.5,0.52,-0.8,0.45,112.04,-5.8,-8.8
3.44,1.0,0.25,0.0,0.75,0.0,0.25,0.0,2.25,0.5,0.75,0.0,0.5,1.0,-1.73,-0.55,-0.36,109.5,-1.2,-22.1,1.0,0.0,0.75,0.5,1.25,0.5,0.0,0.5,0.0,1.0,1.0,0.75,0.5,0.39,-0.3,0.33,115.59,-5.2,-5.6
3.46,1.0,0.25,0.0,0.0,0.0,0.25,0.0,2.0,0.25,0.75,0.0,0.5,1.25,-1.48,-0.05,-0.17,101.34,-4.0,-34.6,1.0,0.0,1.0,0.5,1.25,0.5,0.0,0.5,0.0,0.75,1.0,0.75,0.75,0.39,-0.05,0.33,119.24,-6.3,-4.6
3.48,1.0,0.25,0.0,0.0,0.0,0.25,0.0,2.25,0.25,0.75,0.0,0.5,1.0,-1.23,0.02,0.27,94.18,-4.1,-31.6,1.0,0.0,1.0,0.25,0.5,0.5,0.0,0.5,0.25,0.75,1.0,0.75,0.5,0.45,0.08,0.33,116.38,-8.1,-11.5
3.5,1.0,0.25,0.0,0.0,0.0,0.25,0.0,2.25,0.5,0.5,0.0,0.5,1.25,-1.11,-0.17,0.14,90.36,-3.4,-33.3,1.0,0.0,1.0,0.5,1.0,0.5,0.0,0.5,0.0,1.25,1.25,0.5,0.25,0.58,0.02,0.27,117.07,-6.6,-3.2
3.52,1.0,0.25,0.0,0.25,0.0,0.25,0.0,1.25,0.5,0.75,0.0,0.25,1.0,-0.92,-0.23,0.27,84.56,-0.6,-22.7,1.0,0.0,0.75,0.0,1.0,0.5,0.25,0.5,0.0,0.75,0.75,0.75,1.0,0.83,-0.17,0.2,113.94,-4.3,-14.7
3.54,1.0,0.25,0.0,0.0,0.0,0.25,0.0,1.75,0.25,0.75,0.0,0.5,0.75,-0.61,-0.36,0.39,79.33,-2.5,-27.2,1.0,0.0,0.75,0.25,1.0,0.5,0.0,0.5,0.0,0.75,1.0,0.75,0.5,0.83,-0.36,0.33,111.97,-5.9,-7.8
3.56,1.0,0.25,0.0,0.0,0.0,0.25,0.0,2.25,0.25,0.5,0.0,0.0,1.0,-0.48,-0.3,0.33,76.53,-4.8,-22.5,1.0,0.0,1.0,0.25,0.5,0.5,0.0,0.75,0.25,1.0,1.0,0.75,0.75,0.95,-0.36,0.27,110.98,-5.8,-17.7
3.58,1.0,0.25,0.25,0.0,0.0,0.25,0.0,1.75,0.25,0.75,0.0,0.25,0.5,-0.36,-0.11,0.27,74.99,-0.5,-14.8,1.0,0.0,1.0,0.25,0.5,0.5,0.0,0.5,0.0,0.75,1.0,0.75,0.5,1.02,-0.23,0.08,108.15,-7.9,-10.5
3.6,1.0,0.25,0.25,0.0,0.0,0.25,0.0,1.75,0.25,0.75,0.0,0.25,1.0,-0.36,-0.05,0.27,75.56,-1.6,-23.4,1.0,0.0,1.0,0.5,0.5,0.5,0.0,0.5,0.0,0.75,1.0,0.5,0.75,1.02,-0.11,0.08,106.63,-7.4,-8.1
3.62,1.0,0.25,0.0,0.25,0.0,0.25,0.0,2.0,0.25,0.5,0.0,0.5,0.75,-0.36,-0.11,0.27,78.15,-1.6,-21.7,1.0,0.0,1.0,0.0,1.0,0.5,0.0,0.5,0.0,0.75,1.0,0.75,0.5,0.95,-0.05,0.08,105.2,-6.6,-7.8
3.64,1.25,0.0,0.0,0.0,0.0,0.25,0.0,2.0,0.25,0.5,0.0,0.0,1.25,-0.61,-0.23,0.2,79.01,-3.7,-26.4,1.0,0.0,1.0,0.0,0.5,0.5,0.0,0.5,0.0,0.75,1.0,0.75,0.5,0.95,0.02,0.08,101.85,-7.5,-13.2
3.66,1.0,0.25,0.0,0.25,0.0,0.25,0.0,2.0,0.25,0.5,0.0,0.25,0.75,-0.92,-0.3,0.27,79.12,-2.1,-17.7,1.0,0.0,1.0,0.5,1.25,0.5,0.0,0.5,0.0,1.25,0.75,0.5,0.75,0.95,0.02,0.2,107.3,-4.8,-3.6
3.68,1.25,0.25,0.0,0.5,0.0,0.25,0.0,1.75,0.25,0.75,0.0,0.5,1.25,-1.11,-0.36,0.2,85.94,-0.5,-22.6,1.0,0.0,0.75,0.25,1.0,0.75,0.0,0.5,0.0,0.75,1.0,0.75,0.5,0.95,0.02,0.2,109.06,-5.0,-6.5
3.7,1.0,0.25,0.25,0.25,0.0,0.25,0.0,1.75,0.25,0.5,0.0,0.5,0.75,-1.3,-0.42,-0.05,87.75,0.7,-17.2,1.0,0.0,1.0,0.0,1.25,0.5,0.0,0.5,0.0,1.0,1.0,0.75,0.5,0.89,0.02,0.14,113.07,-5.5,-7.7
3.72,1.0,0.25,0.0,0.5,0.0,0.25,0.0,2.0,0.25,0.75,0.0,0.5,1.0,-1.42,-0.42,-0.05,92.3,-1.9,-24.1,1.0,0.0,1.0,0.5,1.0,0.75,0.0,0.5,0.0,0.75,1.0,0.75,0.75,0.89,0.08,0.14,116.89,-5.8,-5.5
3.74,1.0,0.0,0.0,0.75,0.0,0.25,0.0,1.75,0.25,0.75,0.0,0.5,1.25,-1.36,-0.3,0.08,94.69,-1.6,-28.5,1.0,0.0,1.0,0.25,1.25,0.75,0.0,0.5,0.0,0.75,1.0,0.75,0.75,0.89,0.08,0.14,120.33,-5.1,-5.5
3.76,1.0,0.25,0.25,0.5,0.0,0.25,0.0,1.25,0.25,0.75,0.0,0.5,1.0,-1.17,-0.11,0.08,95.61,1.6,-18.6,1.0,0.0,1.0,0.5,1.25,0.75,0.0,0.5,0.0,0.75,1.0,0.75,0.5,0.89,0.08,0.14,123.28,-6.1,-0.1
3.78,0.75,0.25,0.0,0.5,0.0,0.0,0.0,2.0,0.25,0.5,0.0,0.5,1.25,-1.05,0.02,0.08,94.18,-2.4,-32.6,1.0,0.0,1.0,0.5,1.5,0.5,0.0,0.5,0.0,1.0,1.0,0.75,0.5,0.89,0.08,0.08,126.5,-5.9,-1.5
3.8,1.0,0.25,0.0,0.25,0.0,0.0,0.0,1.75,0.25,0.75,0.0,0.25,0.75,-0.92,0.02,0.14,89.06,-1.1,-21.8,1.0,0.0,1.0,0.0,0.5,0.5,0.0,0.75,0.0,0.75,1.0,0.75,0.5,0.89,0.08,0.08,119.93,-6.6,-14.2
3.82,0.5,0.25,0.0,0.25,0.0,0.25,0.0,2.0,0.25,0.5,0.0,0.0,1.0,-0.86,-0.11,0.2,83.17,-6.7,-28.7,1.0,0.0,1.0,0.5,1.0,0.75,0.0,0.5,0.0,1.0,1.0,0.75,1.0,0.83,0.02,0.14,122.45,-4.6,-10.7
3.84,1.0,0.25,0.0,0.25,0.0,0.25,0.0,1.75,0.25,0.75,0.0,0.5,0.75,-0.86,-0.17,0.2,81.06,-1.6,-23.3,1.0,0.0,1.0,0.25,0.5,0.5,0.0,0.5,0.0,0.75,0.75,0.75,0.75,0.83,-0.05,0.2,114.6,-7.0,-11.9
3.86,1.0,0.25,0.0,0.5,0.0,0.25,0.0,1.5,0.25,0.75,0.0,0.5,0.75,-0.86,-0.23,0.2,81.78,-0.1,-18.9,1.0,0.0,1.0,0.25,1.0,0.5,0.0,0.5,0.0,0.75,1.0,0.5,0.5,0.83,-0.05,0.2,112.43,-7.0,-1.8
3.88,1.0,0.25,0.0,0.25,0.0,0.25,0.0,1.75,0.25,0.5,0.0,0.0,1.0,-0.92,-0.3,0.2,80.97,-2.5,-16.9,1.0,0.0,1.0,0.25,1.25,0.5,0.0,0.5,0.0,0.75,1.0,0.75,0.5,0.83,-0.05,0.27,110.82,-6.6,-3.2
3.9,1.0,0.25,0.0,0.25,0.0,0.0,0.0,1.5,0.25,0.5,0.0,0.5,0.75,-0.92,-0.3,0.2,78.01,0.8,-22.7,1.0,0.0,1.0,0.5,1.25,0.5,0.0,0.5,0.0,0.75,1.0,0.75,0.5,0.83,-0.05,0.2,113.35,-7.0,-1.2
3.92,1.0,0.25,0.0,0.5,0.0,0.0,0.0,2.0,0.5,0.5,0.0,0.0,0.75,-0.98,-0.3,0.2,77.8,-0.1,-13.1,1.0,0.0,0.75,0.25,1.5,0.5,0.0,0.5,0.0,0.75,1.0,0.75,0.5,0.83,-0.05,0.2,114.82,-5.2,-3.2
3.94,1.0,0.25,0.0,0.5,0.0,0.0,0.0,1.75,0.5,0.5,0.75,0.25,1.25,-0.98,-0.23,0.14,84.58,0.9,-29.9,1.0,0.0,1.0,0.0,1.25,0.75,0.0,0.5,0.0,0.75,1.0,0.5,0.25,0.83,-0.05,0.2,113.29,-5.9,3.3
3.96,1.0,0.25,0.0,0.75,0.0,0.0,0.0,1.5,0.25,0.5,0.5,0.5,1.0,-0.98,-0.23,0.14,88.7,2.3,-23.6,1.0,0.0,1.0,0.0,1.25,0.5,0.0,0.5,0.25,0.75,1.0,0.75,0.5,0.83,-0.05,0.2,113.02,-6.4,-6.4
3.98,1.0,0.25,0.0,0.75,0.0,0.0,0.0,1.75,0.25,0.5,0.25,0.5,0.75,-0.92,-0.23,0.2,92.0,1.9,-18.4,1.0,0.0,1.0,0.25,1.5,0.5,0.0,0.5,0.0,1.25,1.0,0.0,1.0,0.83,-0.05,0.2,115.64,-3.4,-2.6
4.0,1.0,0.25,0.0,0.75,0.0,0.0,0.0,1.75,0.25,0.5,0.75,0.5,0.5,-0.92,-0.23,0.2,93.88,3.2,-19.1,1.0,0.0,1.0,0.0,1.5,0.5,0.0,0.5,0.0,0.75,1.5,0.5,1.0,0.83,-0.05,0.27,119.88,-4.9,-10.7
4.02,1.0,0.25,0.0,0.25,0.0,0.0,0.0,0.75,0.25,0.5,0.75,0.25,1.0,-0.92,-0.23,0.27,88.08,3.8,-28.1,1.0,0.0,1.0,0.25,1.25,0.5,0.0,0.5,0.0,0.75,1.0,0.5,0.75,0.83,-0.05,0.2,120.68,-5.9,-3.3
4.04,1.0,0.25,0.0,0.5,0.0,0.0,0.0,1.0,0.25,0.5,0.75,0.25,0.75,-0.92,-0.23,0.27,84.07,4.3,-20.3,1.0,0.0,1.0,0.0,1.25,0.75,0.0,0.5,0.0,0.75,1.0,0.75,0.5,0.83,-0.05,0.2,120.52,-5.3,-4.1
4.06,1.0,0.25,0.0,1.0,0.0,0.0,0.0,0.5,0.25,0.5,0.5,0.25,1.0,-0.92,-0.23,0.27,80.58,6.4,-12.5,1.0,0.0,1.0,0.5,1.0,0.75,0.0,0.5,0.0,0.75,1.0,0.75,0.25,0.83,-0.05,0.2,117.78,-7.1,1.4
4.08,0.75,0.25,0.0,0.25,0.0,0.0,0.0,1.0,0.25,0.5,0.0,0.25,0.75,-0.92,-0.23,0.27,72.57,0.5,-22.3,1.0,0.0,1.0,0.5,1.5,0.5,0.0,0.5,0.0,1.0,1.0,0.75,0.25,0.83,-0.11,0.2,120.36,-6.6,1.8
4.1,1.0,0.0,0.0,0.5,0.0,0.0,0.0,0.5,0.25,0.5,0.75,0.25,0.75,-0.98,-0.23,0.27,68.03,6.2,-25.1,1.0,0.0,1.0,0.25,1.0,0.75,0.0,0.5,0.0,1.0,1.0,0.5,0.25,0.83,-0.11,0.2,117.57,-5.9,0.6
4.12,1.0,0.25,0.0,0.5,0.0,0.0,0.0,0.5,0.25,0.5,0.0,0.25,0.5,-0.98,-0.17,0.2,61.83,7.2,-0.8,1.0,0.0,1.0,0.5,1.25,0.5,0.0,0.5,0.0,0.75,1.0,0.5,0.25,0.83,-0.05,0.2,116.42,-7.6,6.2
4.14,1.0,0.25,0.0,0.5,0.0,0.0,0.0,0.75,0.25,0.5,0.75,0.25,1.0,-0.98,-0.17,0.2,64.52,4.4,-23.8,1.0,0.0,0.75,0.0,1.0,0.75,0.0,0.25,0.0,0.75,1.0,0.75,0.75,0.83,-0.05,0.14,111.88,-4.6,-11.5
4.16,1.0,0.0,0.0,0.25,0.0,0.0,0.0,0.25,0.25,0.5,0.5,0.25,1.0,-0.98,-0.17,0.27,60.56,5.4,-32.2,1.0,0.0,1.0,0.0,1.5,0.5,0.0,0.25,0.0,0.75,0.75,0.75,0.5,0.83,-0.05,0.14,110.0,-6.5,0.4
4.18,1.0,0.25,0.0,0.75,0.0,0.0,0.0,0.75,0.25,0.5,0.0,0.25,0.75,-0.98,-0.17,0.14,62.92,5.2,-5.8,1.0,0.0,1.0,0.0,1.25,0.75,0.0,0.5,0.0,0.75,1.0,0.75,0.25,0.83,-0.05,0.14,108.97,-6.0,-0.4
4.2,1.0,0.25,0.0,0.5,0.0,0.25,0.0,0.5,0.25,0.5,0.25,0.25,0.5,-0.98,-0.11,0.14,62.42,5.7,-3.2,1.0,0.0,0.75,0.0,1.25,0.5,0.0,0.5,0.0,0.75,1.0,0.75,0.5,0.83,-0.05,0.14,107.63,-5.1,-7.8
4.22,1.0,0.0,0.0,0.5,0.0,0.25,0.0,0.75,0.25,0.75,0.5,0.25,0.5,-0.98,-0.11,0.2,65.25,3.2,-18.3,1.0,0.0,1.0,0.5,1.25,0.5,0.0,0.5,0.0,0.75,1.0,0.75,0.5,0.83,-0.05,0.08,110.88,-7.0,-1.2
4.24,1.0,0.25,0.0,0.25,0.0,0.25,0.0,0.75,0.25,0.5,0.75,0.25,1.0,-0.98,-0.11,0.14,69.09,2.6,-25.3,1.0,0.0,1.0,0.0,1.5,0.5,0.0,0.5,0.0,0.75,1.0,0.75,0.5,0.83,-0.05,0.08,113.03,-5.9,-3.1
4.26,1.0,0.25,0.0,0.75,0.0,0.25,0.0,0.25,0.0,0.75,0.75,0.25,0.25,-0.98,-0.11,0.2,71.41,7.7,-1.4,1.0,0.0,1.0,0.25,1.5,0.75,0.0,0.5,0.0,0.75,1.0,0.75,0.5,0.83,-0.05,0.08,118.2,-5.4,-0.1
4.28,1.0,0.25,0.0,0.5,0.0,0.25,0.0,0.75,0.25,0.75,0.75,0.25,0.75,-0.98,-0.17,0.2,76.01,3.2,-19.6,1.0,0.0,1.0,0.0,1.25,0.75,0.0,0.5,0.0,0.75,1.0,0.75,0.5,0.83,-0.05,0.08,118.07,-5.3,-4.1
4.3,0.25,0.0,0.0,0.0,0.0,0.0,0.0,0.5,0.25,0.5,0.5,0.5,0.75,-0.98,-0.17,0.2,69.95,-1.8,-67.9,1.0,0.0,1.0,0.25,0.0,0.5,0.5,0.75,0.0,1.0,1.0,0.5,0.75,0.89,-0.05,0.14,113.95,-7.1,-18.0
4.32,1.0,0.25,0.0,0.25,0.0,0.0,0.0,0.75,0.0,0.5,0.0,0.25,0.5,-0.98,-0.17,0.2,64.95,4.3,-5.3,1.0,0.0,1.0,0.0,1.25,0.5,0.0,0.5,0.0,0.5,1.5,0.5,0.5,0.89,-0.05,0.2,111.5,-7.2,-4.1
4.34,1.0,0.0,0.0,0.5,0.0,0.0,0.0,0.5,0.25,0.5,0.75,0.25,0.5,-0.98,-0.11,0.2,60.76,7.4,-19.9,1.0,0.0,1.0,0.25,1.0,0.5,0.0,0.5,0.0,0.75,1.0,0.75,0.25,0.89,-0.05,0.27,109.53,-7.8,-1.6
4.36,1.0,0.25,0.0,0.75,0.0,0.0,0.0,0.5,0.0,0.5,0.75,0.25,0.5,-0.98,-0.11,0.2,62.49,8.1,-7.4,1.0,0.0,1.0,0.25,1.25,0.5,0.0,0.5,0.0,0.75,1.0,0.75,0.5,0.89,-0.05,0.27,111.25,-6.6,-3.2
4.38,1.0,0.25,0.0,0.5,0.0,0.0,0.0,1.0,0.0,0.5,0.75,0.25,0.5,-0.98,-0.11,0.2,65.29,4.9,-14.4,1.0,0.0,1.0,0.25,1.25,0.5,0.0,0.5,0.0,0.75,1.0,0.75,0.5,0.89,0.02,0.27,113.09,-6.6,-3.2
4.4,0.75,0.0,0.0,0.0,0.0,0.0,0.0,0.5,0.25,0.5,0.75,0.0,0.5,-0.98,-0.17,0.27,61.77,3.7,-34.3,1.0,0.0,1.0,0.25,1.25,0.5,0.0,0.5,0.0,0.5,1.0,0.75,0.25,0.89,-0.05,0.2,112.86,-8.1,3.1
4.42,1.25,0.25,0.0,1.0,0.0,0.0,0.0,0.5,0.25,0.5,0.5,0.5,0.5,-0.98,-0.17,0.2,67.25,9.8,-2.6,1.0,0.0,1.0,0.0,1.0,0.5,0.0,0.5,0.0,0.75,1.0,0.75,0.25,0.89,0.02,0.14,109.38,-7.4,-3.9
4.44,1.0,0.25,0.0,0.25,0.0,0.0,0.0,0.5,0.25,0.75,0.75,0.0,0.75,-0.98,-0.17,0.2,66.52,4.6,-20.9,0.0,0.0,1.0,0.0,1.25,0.75,0.0,0.5,0.25,0.75,1.0,0.75,0.75,0.83,0.02,0.08,106.73,-1.0,-22.4
4.46,1.0,0.25,0.0,1.0,0.0,0.0,0.0,0.5,0.0,0.5,0.5,0.0,0.5,-0.98,-0.17,0.2,68.19,8.4,6.4,1.0,0.0,1.0,0.0,1.0,0.5,0.0,0.0,0.0,0.75,1.0,0.5,0.25,0.83,0.02,0.14,100.34,-9.4,3.2
4.48,1.0,0.0,0.0,0.75,0.0,0.0,0.0,0.0,0.25,0.5,0.75,0.25,0.5,-0.98,-0.17,0.2,65.29,11.2,-12.4,1.0,0.0,1.0,0.5,1.25,0.5,0.0,0.5,0.0,0.75,1.0,0.5,0.5,0.83,0.02,0.14,104.14,-6.9,2.3
4.5,1.0,0.25,0.0,0.5,0.0,0.25,0.0,0.75,0.25,0.5,0.75,0.0,0.5,-0.98,-0.17,0.2,68.36,4.8,-6.9,1.0,0.0,0.75,0.25,0.5,0.5,0.0,0.5,0.0,0.75,1.0,0.5,0.25,0.83,0.02,0.14,99.43,-7.5,-5.2
4.52,1.25,0.25,0.0,0.5,0.0,0.0,0.0,0.0,0.25,0.5,0.75,0.0,0.25,-0.98,-0.17,0.2,64.72,14.2,10.7,1.0,0.0,1.0,0.0,1.25,0.5,0.0,0.5,0.0,0.75,1.0,0.75,0.5,0.83,0.02,0.14,104.11,-6.3,-5.4
4.54,1.0,0.25,0.0,0.25,0.0,0.25,0.0,0.0,0.25,0.5,0.75,0.25,1.0,-0.98,-0.11,0.2,66.71,5.8,-23.0,1.0,0.0,1.0,0.0,1.0,0.5,0.0,0.5,0.0,0.5,1.0,0.75,0.25,0.89,0.02,0.14,101.97,-8.3,-1.2
4.56,0.75,0.25,0.0,1.0,0.0,0.25,0.0,0.0,0.25,0.5,0.25,0.25,0.5,-0.98,-0.11,0.2,64.87,8.3,3.3,1.0,0.0,1.0,0.25,1.0,0.5,0.0,0.5,0.0,0.75,1.0,0.75,0.25,0.89,-0.05,0.14,104.36,-7.8,-1.6
4.58,1.25,0.25,0.25,0.5,0.0,0.0,0.0,0.0,0.25,0.5,0.5,0.25,1.0,-0.98,-0.11,0.2,67.32,10.9,-8.1,1.0,0.0,1.0,0.25,1.25,0.5,0.0,0.5,0.0,0.75,1.0,0.75,0.5,0.95,-0.05,0.14,107.34,-6.6,-3.2
4.6,1.0,0.25,0.0,1.0,0.0,0.0,0.0,0.0,0.25,0.25,0.75,0.25,0.75,-0.98,-0.11,0.2,68.18,11.7,-3.9,1.0,0.0,1.0,0.25,0.5,0.5,0.0,0.5,0.0,0.5,0.75,0.75,0.25,0.89,0.02,0.14,103.78,-9.7,-0.9
4.62,0.75,0.5,0.0,1.0,0.0,0.25,0.0,0.0,0.25,0.5,0.25,0.25,0.5,-0.92,-0.11,0.2,69.49,8.5,9.1,0.0,0.0,1.0,0.0,0.5,0.75,0.0,0.0,0.25,1.0,0.0,0.75,0.0,0.89,0.02,0.08,90.57,-3.5,-11.3
4.64,1.0,0.25,0.0,0.0,0.0,0.0,0.0,0.0,0.25,0.5,0.0,0.5,0.5,-0.98,-0.11,0.2,61.9,9.6,-14.0,1.0,0.0,1.0,0.25,1.25,0.5,0.0,0.5,0.0,0.75,1.5,0.5,0.75,0.89,0.02,0.14,96.77,-6.2,-7.6
4.66,1.0,0.25,0.0,0.75,0.0,0.0,0.0,0.0,0.25,0.5,0.0,0.5,0.5,-0.98,-0.11,0.2,57.77,11.2,1.0,0.0,0.0,1.0,0.0,1.25,0.75,0.0,0.5,0.0,0.0,1.0,0.0,0.5,0.83,0.02,0.14,90.18,-2.6,2.9
4.68,1.0,0.0,0.0,0.5,0.0,0.0,0.0,0.0,0.25,0.5,0.5,0.5,0.5,-0.98,-0.11,0.2,55.05,10.6,-19.8,1.0,0.0,1.0,0.0,1.5,0.75,0.0,0.75,0.0,0.75,1.0,0.75,0.5,0.77,0.02,0.14,102.48,-4.4,-3.2
4.7,1.0,0.25,0.25,0.75,0.0,0.25,0.0,0.0,0.25,0.5,0.0,0.5,0.75,-0.98,-0.11,0.2,59.7,9.5,-0.1,1.0,0.0,1.0,0.25,1.5,0.5,0.0,0.5,0.0,0.75,1.0,0.75,0.5,0.83,-0.05,0.14,109.32,-6.3,-1.1
4.72,1.25,0.25,0.0,1.0,0.0,0.25,0.0,0.0,0.25,0.5,0.5,0.5,0.75,-0.98,-0.11,0.2,67.65,9.7,-2.8,1.0,0.0,1.0,0.25,1.5,0.5,0.0,0.5,0.0,0.5,1.0,0.5,0.5,0.83,-0.05,0.14,116.01,-6.9,4.9
4.74,0.75,0.0,0.25,0.5,0.0,0.25,0.0,0.0,0.25,0.5,0.75,0.25,0.5,-0.98,-0.11,0.2,68.32,9.1,-16.0,1.0,0.0,1.0,0.25,1.0,0.5,0.0,0.25,0.0,0.75,1.0,0.75,0.5,0.83,-0.05,0.14,114.77,-7.9,-4.3
4.76,0.75,0.25,0.0,0.5,0.0,0.0,0.0,0.0,0.25,0.5,0.75,0.25,0.75,-0.98,-0.11,0.2,67.02,7.8,-22.5,1.0,0.0,1.0,0.5,1.25,0.5,0.0,0.5,0.0,0.75,1.0,0.25,0.5,0.83,-0.05,0.14,115.04,-6.8,6.0
4.78,1.0,0.0,0.25,0.0,0.0,0.0,0.0,0.0,0.25,0.5,0.75,0.25,0.5,-0.98,-0.11,0.2,60.09,11.8,-23.0,1.0,0.0,1.0,0.0,1.5,0.5,0.0,0.5,0.0,0.5,0.75,0.25,0.5,0.83,-0.05,0.14,111.75,-6.3,10.1
4.8,1.0,0.25,0.0,0.25,0.0,0.0,0.0,0.0,0.25,0.5,0.75,0.5,0.5,-0.98,-0.11,0.2,58.18,10.3,-20.6,1.0,0.0,1.0,0.25,1.5,0.5,0.25,0.0,0.0,0.75,0.75,0.75,0.75,0.83,-0.05,0.14,112.67,-7.4,0.4
4.82,1.0,0.25,0.25,0.5,0.0,0.0,0.0,0.0,0.25,0.5,0.5,0.25,0.25,-0.98,-0.11,0.2,56.43,14.5,6.3,1.0,0.0,1.0,0.0,1.25,0.5,0.0,0.5,0.0,0.5,1.0,0.75,0.5,0.83,-0.05,0.14,112.28,-7.0,-2.9
4.84,0.5,0.25,0.0,0.5,0.0,0.0,0.0,0.0,0.25,0.5,0.75,0.25,0.5,-0.98,-0.11,0.2,55.9,7.6,-24.2,1.0,0.0,1.0,0.25,1.5,0.5,0.0,0.25,0.0,0.75,1.0,0.5,0.5,0.83,-0.05,0.14,115.14,-7.0,3.7
4.86,1.0,0.25,0.25,0.5,0.0,0.0,0.0,0.0,0.25,0.5,0.5,0.5,0.5,-0.98,-0.11,0.2,59.07,12.4,-7.6,1.0,0.0,1.0,0.25,1.0,0.75,0.0,0.5,0.0,0.5,1.0,0.75,0.5,0.89,-0.05,0.14,114.24,-6.8,-1.8
4.88,1.0,0.25,0.25,0.5,0.0,0.0,0.0,0.0,0.25,0.5,0.25,0.5,0.5,-0.98,-0.11,0.2,60.73,12.5,-3.4,1.0,0.0,1.0,0.5,1.25,0.5,0.0,0.5,0.0,0.75,1.0,0.5,0.5,0.89,-0.05,0.14,114.1,-6.9,2.3
4.9,1.0,0.5,0.25,0.5,0.0,0.0,0.0,0.0,0.25,0.5,0.0,0.5,0.5,-0.98,-0.11,0.2,61.77,12.6,7.5,1.0,0.0,1.0,0.0,1.25,0.5,0.0,0.5,0.0,0.75,1.0,0.5,0.5,0.83,-0.05,0.14,113.33,-6.2,-1.7
4.92,1.0,0.25,0.25,0.5,0.0,0.0,0.0,0.0,0.25,0.25,0.0,0.5,0.5,-0.98,-0.11,0.2,59.53,14.7,6.7,1.0,0.0,0.75,0.25,1.5,0.5,0.0,0.5,0.0,1.0,1.0,0.75,0.25,0.83,-0.05,0.14,112.92,-5.1,-2.0
4.94,1.0,0.25,0.25,0.25,0.0,0.25,0.0,0.0,0.25,0.5,0.0,0.25,0.5,-0.98,-0.11,0.2,57.31,10.1,7.1,1.0,0.0,1.0,0.0,1.25,0.25,0.0,0.5,0.0,1.25,0.75,0.25,0.75,0.83,-0.05,0.14,111.55,-4.6,-5.7
4.96,0.75,0.25,0.0,0.25,0.0,0.25,0.0,0.0,0.25,0.5,0.0,0.0,0.5,-0.98,-0.11,0.2,51.17,5.5,4.9,1.0,0.0,1.0,0.0,1.25,0.5,0.0,0.5,0.0,0.75,1.0,0.5,0.25,0.83,-0.05,0.14,109.98,-6.9,2.2
4.98,1.0,0.25,0.0,1.0,0.0,0.0,0.0,0.0,0.25,0.5,0.0,0.5,0.5,-0.98,-0.11,0.2,54.48,11.6,4.7,1.0,0.0,1.0,0.25,1.25,0.5,0.0,0.5,0.0,0.75,1.0,0.5,0.5,0.83,-0.05,0.14,110.01,-6.6,0.3
5.0,1.25,0.5,0.25,0.5,0.0,0.0,0.0,0.0,0.25,0.5,0.0,0.5,0.25,-0.98,-0.11,0.2,57.42,15.7,20.4,1.0,0.0,1.0,0.0,1.25,0.5,0.0,0.5,0.0,0.75,1.0,0.5,0.5,0.83,-0.05,0.14,109.22,-6.2,-1.7
5.02,1.5,0.25,0.25,0.0,0.0,0.0,0.0,0.0,0.25,0.5,0.0,0.5,0.5,-0.98,-0.11,0.2,59.88,14.8,5.4,1.0,0.0,1.0,0.0,1.25,0.5,0.0,0.5,0.0,0.75,1.0,0.75,0.5,0.89,-0.05,0.14,110.22,-6.3,-5.4
5.04,1.0,0.25,0.0,0.5,0.0,0.0,0.0,0.0,0.25,0.5,0.0,0.5,0.5,-0.98,-0.11,0.2,58.52,10.7,-3.2,1.0,0.0,1.0,0.0,1.25,0.5,0.0,0.5,0.0,0.75,1.0,0.5,0.5,0.83,-0.05,0.14,109.2,-6.2,-1.7
5.06,0.75,0.0,0.25,0.25,0.0,0.0,0.0,0.0,0.25,0.25,0.75,0.25,0.5,-0.98,-0.11,0.2,55.09,12.7,-21.1,1.0,0.0,1.0,0.0,1.0,0.75,0.0,0.25,0.0,0.5,1.0,0.25,0.75,0.83,-0.05,0.14,106.71,-6.4,1.1
5.08,1.25,0.25,0.0,0.25,0.0,0.0,0.0,0.0,0.25,0.5,0.75,0.5,0.5,-0.98,-0.11,0.2,56.57,11.7,-13.9,1.0,0.0,1.0,0.25,1.25,0.5,0.0,0.5,0.0,0.75,1.0,0.75,0.75,0.83,-0.05,0.14,109.34,-6.0,-6.7
5.1,1.25,0.25,0.0,0.5,0.0,0.0,0.0,0.0,0.25,0.25,0.75,0.25,0.25,-0.98,-0.11,0.2,56.51,15.9,8.5,1.0,0.0,1.0,0.25,1.0,0.5,0.0,0.25,0.0,0.25,0.75,0.25,0.25,0.83,-0.05,0.14,102.51,-10.8,19.4
5.12,1.0,0.25,0.0,1.0,0.0,0.0,0.0,0.0,0.25,0.25,0.5,0.25,0.5,-0.98,-0.11,0.2,60.48,13.4,7.2,1.0,0.0,1.0,0.25,0.5,0.5,0.0,0.0,0.0,0.75,0.75,0.5,0.25,0.83,-0.05,0.14,95.85,-11.0,4.0
