time,left pressure 0[N/cm²],left pressure 1[N/cm²],left pressure 2[N/cm²],left pressure 3[N/cm²],left pressure 4[N/cm²],left pressure 5[N/cm²],left pressure 6[N/cm²],left pressure 7[N/cm²],left pressure 8[N/cm²],left pressure 9[N/cm²],left pressure 10[N/cm²],left pressure 11[N/cm²],left pressure 12[N/cm²],left acceleration X[g],left acceleration Y[g],left acceleration Z[g],left total force[N],left center of pressure X[mm],left center of pressure Y[mm],right pressure 0[N/cm²],right pressure 1[N/cm²],right pressure 2[N/cm²],right pressure 3[N/cm²],right pressure 4[N/cm²],right pressure 5[N/cm²],right pressure 6[N/cm²],right pressure 7[N/cm²],right pressure 8[N/cm²],right pressure 9[N/cm²],right pressure 10[N/cm²],right pressure 11[N/cm²],right pressure 12[N/cm²],right acceleration X[g],right acceleration Y[g],right acceleration Z[g],right total force[N],right center of pressure X[mm],right center of pressure Y[mm]
0.02,7.5,1.75,7.25,9.25,0.0,0.0,0.0,0.0,0.25,0.25,0.0,0.0,0.25,-0.55,0.39,1.58,448.8,26.7,68.2,0.0,0.0,0.5,0.5,0.5,1.75,0.0,4.0,1.0,9.0,7.0,6.25,8.25,0.14,0.39,1.14,471.58,5.0,-73.6
0.04,7.25,1.25,5.5,6.5,0.0,0.0,0.0,0.0,0.0,0.0,0.0,0.0,0.25,-0.8,0.58,1.64,379.02,28.0,72.2,0.0,0.0,0.5,0.5,0.5,0.0,0.25,5.0,1.0,9.0,7.25,5.75,8.25,0.08,0.08,1.02,605.46,4.5,-76.5
0.06,5.5,0.5,3.0,4.5,0.0,0.0,0.0,0.0,0.25,0.25,0.0,0.0,0.0,-0.98,1.08,2.33,286.66,27.5,70.7,0.0,0.0,0.5,0.5,0.25,2.0,0.25,5.0,1.0,9.0,7.25,5.75,8.25,0.2,0.14,0.95,692.0,5.4,-72.2
0.08,1.75,0.0,1.25,2.5,0.0,0.0,0.0,0.0,0.0,0.25,0.0,0.0,0.0,-0.67,0.83,2.27,174.82,25.4,64.1,0.0,0.0,0.75,0.75,0.5,2.0,0.25,5.75,1.0,9.0,7.0,5.75,8.25,0.08,0.08,0.95,736.15,5.2,-69.0
0.1,0.0,0.0,1.25,2.5,0.0,0.0,0.0,0.0,0.0,0.0,0.0,0.0,0.0,-0.67,0.27,2.7,77.96,24.1,58.9,0.0,0.0,0.75,0.75,0.5,2.0,0.25,5.75,1.0,9.0,6.5,5.75,8.0,0.08,0.08,0.95,753.07,5.4,-68.7
0.12,0.0,0.0,0.5,0.5,0.0,0.0,0.0,0.0,0.0,0.25,0.0,0.0,0.25,-0.98,-0.36,2.27,0.0,13.7,9.4,0.0,0.0,0.75,0.75,1.0,3.0,0.25,6.0,1.0,8.5,6.75,5.25,7.75,0.08,0.08,0.95,754.81,5.7,-63.6
0.14,0.5,0.0,0.5,0.75,0.0,0.0,0.0,0.0,0.0,0.0,0.0,0.0,0.25,-0.86,-0.17,0.7,0.0,22.7,46.5,0.0,0.0,0.75,0.75,1.25,4.0,0.5,6.0,1.0,8.25,6.5,4.5,7.5,0.08,0.08,0.95,740.48,6.3,-58.9
0.16,0.0,0.0,0.0,0.5,0.0,0.0,0.0,0.0,0.25,0.0,0.0,0.0,0.25,-1.17,-1.3,0.08,0.0,8.2,-7.2,0.25,0.0,0.75,1.0,2.25,4.25,0.25,6.0,1.25,8.0,6.0,4.0,6.75,0.14,0.08,0.95,713.51,6.1,-51.8
0.18,0.0,0.0,0.25,0.75,0.0,0.0,0.0,0.0,0.25,0.0,0.0,0.0,0.0,-0.86,-0.23,0.77,0.0,20.4,40.0,1.0,0.0,1.75,1.0,2.75,4.25,0.25,6.0,1.25,7.75,5.25,3.5,6.5,0.14,0.08,0.95,677.58,4.6,-43.4
0.2,0.25,0.0,0.0,0.5,0.0,0.0,0.0,0.0,0.0,0.0,0.0,0.0,0.0,-0.48,-0.36,0.2,0.0,22.6,70.2,1.0,0.0,2.0,1.5,3.75,4.25,0.5,6.0,1.5,7.25,4.5,2.5,5.75,0.14,0.08,0.95,623.79,4.1,-34.5
0.22,0.0,0.0,0.25,0.5,0.0,0.0,0.0,0.0,0.0,0.0,0.0,0.0,0.25,-0.42,-0.23,0.52,0.0,14.7,17.0,1.25,0.25,2.0,2.25,4.75,5.0,0.75,6.0,1.5,7.0,4.5,2.5,5.25,0.14,0.08,0.95,591.14,3.4,-26.5
0.24,0.25,0.0,0.0,0.5,0.0,0.0,0.0,0.0,0.0,0.0,0.0,0.0,0.0,-0.48,-0.3,0.64,0.0,22.6,70.2,2.0,0.5,2.5,3.25,4.75,5.5,1.0,5.75,1.5,6.5,4.0,1.75,4.5,0.14,0.08,0.95,579.07,1.8,-15.8
0.26,0.5,0.0,0.0,0.5,0.0,0.0,0.0,0.0,0.0,0.0,0.0,0.0,0.25,-0.55,-0.17,0.77,0.0,17.4,38.2,2.25,0.75,3.5,3.25,5.0,5.75,1.25,5.5,1.5,5.75,3.25,1.0,3.75,0.14,0.08,0.95,579.86,0.4,-6.2
0.28,0.5,0.0,0.0,0.5,0.0,0.0,0.0,0.0,0.0,0.0,0.0,0.0,0.25,-0.48,0.02,0.83,0.0,17.4,38.2,2.5,1.0,3.75,4.75,5.75,6.0,1.25,5.0,1.5,5.25,3.0,1.0,3.25,0.14,0.08,0.95,598.45,-0.9,1.7
0.3,0.75,0.0,0.0,0.5,0.0,0.0,0.0,0.0,0.0,0.0,0.0,0.0,0.25,-0.42,0.14,0.95,1.28,20.2,47.6,3.75,1.0,4.0,5.75,7.0,6.0,1.5,5.0,1.5,4.25,2.0,0.75,2.5,0.14,0.08,0.95,624.92,-2.7,13.4
0.32,0.0,0.0,0.0,0.5,0.0,0.0,0.0,0.0,0.0,0.0,0.0,0.0,0.0,-0.36,0.27,1.14,10.3,17.2,57.9,3.75,1.0,4.5,5.75,7.0,6.0,1.75,4.75,1.25,3.5,2.0,0.5,2.5,0.14,0.08,0.95,644.87,-3.5,16.8
0.34,0.0,0.0,0.0,0.75,0.0,0.0,0.0,0.0,0.0,0.0,0.0,0.0,0.0,-0.23,0.39,1.33,12.74,17.2,57.9,4.0,1.25,5.25,7.5,7.75,6.5,2.0,3.75,1.0,3.5,1.5,0.25,1.75,0.14,0.08,0.95,675.51,-5.1,26.2
0.36,0.25,0.0,0.0,0.5,0.0,0.0,0.0,0.0,0.0,0.0,0.0,0.0,0.0,-0.23,0.52,1.45,12.74,22.6,70.2,5.0,1.75,5.75,7.75,8.0,6.5,2.25,3.25,1.0,3.25,1.75,0.25,1.75,0.14,0.08,0.95,714.17,-6.6,29.8
0.38,0.5,0.0,0.0,0.5,0.0,0.0,0.0,0.0,0.0,0.0,0.0,0.0,0.0,-0.3,0.64,1.64,13.73,25.5,76.7,5.75,1.75,5.75,9.25,8.75,6.75,2.5,3.5,1.0,2.75,1.25,0.0,1.75,0.14,0.08,0.95,767.61,-7.1,34.4
0.4,0.5,0.0,0.0,0.5,0.0,0.0,0.0,0.0,0.0,0.0,0.0,0.0,0.0,-0.42,0.7,1.77,15.66,25.5,76.7,5.75,1.75,6.0,9.25,8.75,6.75,2.5,2.75,0.5,2.0,1.25,0.0,1.5,0.08,0.08,0.95,797.19,-8.0,38.9
0.42,0.5,0.0,0.0,0.5,0.0,0.0,0.0,0.0,0.0,0.0,0.0,0.0,0.0,-0.42,0.77,2.2,17.17,25.5,76.7,6.25,2.0,6.5,11.0,9.25,6.75,2.5,2.25,0.25,2.0,1.0,0.0,1.5,0.08,0.08,0.95,837.02,-9.0,42.4
0.44,0.5,0.0,0.0,0.5,0.0,0.0,0.0,0.0,0.0,0.0,0.0,0.0,0.0,-0.42,1.08,2.33,18.04,25.5,76.7,6.5,2.25,7.0,11.0,9.25,6.75,2.5,2.25,0.25,1.5,0.25,0.0,1.25,0.08,0.14,0.95,857.58,-9.8,46.8
0.46,0.5,0.0,0.0,0.5,0.0,0.0,0.0,0.0,0.0,0.0,0.0,0.0,0.25,-0.17,1.64,2.2,19.12,17.4,38.2,7.0,2.75,7.0,12.5,9.75,6.75,2.0,2.25,0.25,1.5,0.25,0.0,1.0,0.08,0.14,0.95,891.43,-10.1,48.9
0.48,0.5,0.0,0.0,0.5,0.0,0.0,0.0,0.0,0.0,0.0,0.0,0.0,0.0,0.27,2.14,1.83,19.06,25.5,76.7,7.5,2.75,7.25,12.5,11.0,6.75,2.0,1.0,0.25,0.75,0.0,0.0,0.75,0.08,0.14,1.02,915.0,-11.2,54.7
0.5,0.5,0.0,0.0,0.25,0.0,0.0,0.0,0.0,0.0,0.0,0.0,0.0,0.0,0.77,2.52,1.08,17.13,28.6,83.5,7.75,3.25,7.5,13.0,11.0,6.75,1.75,1.0,0.25,1.25,0.75,0.0,1.0,0.08,0.14,1.02,956.12,-11.1,51.8
0.52,0.25,0.0,0.0,0.5,0.0,0.0,0.0,0.0,0.0,0.0,0.0,0.0,0.0,1.64,3.2,0.77,15.52,22.6,70.2,8.0,3.25,7.75,13.5,11.0,6.5,1.75,0.75,0.25,1.5,0.75,0.0,0.5,0.08,0.2,1.02,982.42,-11.7,53.5
0.54,0.5,0.0,0.0,0.5,0.0,0.0,0.0,0.0,0.25,0.0,0.0,0.0,0.25,2.08,3.89,0.39,18.26,16.6,25.5,8.5,3.5,8.0,14.0,11.0,6.0,1.25,0.75,0.25,1.5,0.75,0.0,0.5,0.08,0.2,1.02,1009.38,-12.3,54.4
0.56,0.5,0.0,0.0,0.5,0.0,0.0,0.0,0.0,0.0,0.0,0.0,0.0,0.0,1.39,2.95,0.39,19.27,25.5,76.7,8.5,3.75,7.75,14.0,11.0,6.0,1.0,0.75,0.25,1.5,0.25,0.0,0.0,0.08,0.27,1.02,1015.96,-12.4,57.3
0.58,0.5,0.0,0.0,0.5,0.0,0.0,0.0,0.0,0.0,0.25,0.0,0.0,0.0,-0.61,0.02,0.95,20.87,17.2,46.0,9.0,4.0,7.0,13.0,10.5,4.25,0.75,0.75,0.25,1.5,0.25,0.0,0.75,0.08,0.27,1.08,990.24,-13.0,56.2
0.6,0.5,0.0,0.0,0.5,0.0,0.0,0.0,0.0,0.0,1.25,0.0,1.0,1.0,-0.8,-0.61,1.77,38.46,0.1,-56.4,8.75,3.5,6.25,12.5,9.25,2.0,0.25,0.5,0.25,1.25,0.25,0.0,0.75,0.14,0.33,1.2,911.02,-14.7,57.8
0.62,0.5,0.0,0.0,0.5,0.0,0.0,0.0,0.0,0.0,4.0,0.75,4.25,5.25,0.39,0.2,1.2,120.34,-4.3,-87.2,8.5,3.0,5.0,11.0,8.25,0.0,0.25,0.75,0.25,1.5,0.5,0.0,0.75,0.14,0.33,1.33,795.32,-15.7,56.0
0.64,0.0,0.0,0.0,0.25,0.0,0.0,0.0,0.0,0.0,5.75,2.5,5.75,6.75,1.02,0.33,2.52,217.69,-4.9,-94.4,8.0,2.0,2.25,7.5,6.75,0.0,0.25,1.0,0.25,1.0,0.25,0.0,0.0,0.52,0.64,1.77,626.7,-15.3,60.1
0.66,0.0,0.0,0.0,0.5,0.0,0.0,0.0,1.75,0.75,6.5,4.75,5.25,6.75,0.02,0.2,1.14,310.67,-4.2,-85.2,6.5,1.0,0.5,3.25,2.25,0.0,0.25,0.75,0.25,1.25,0.25,0.0,0.75,0.83,1.39,2.83,413.7,-15.3,48.8
0.68,0.0,0.0,0.0,0.5,0.0,0.0,0.0,3.75,0.75,6.5,3.5,5.25,6.75,-0.23,0.08,0.95,391.0,-5.8,-82.2,3.0,0.0,0.5,2.75,0.5,0.0,0.0,0.75,0.25,0.0,0.25,0.0,0.0,0.08,0.39,2.58,248.16,-19.7,55.7
0.7,0.0,0.0,0.0,0.5,0.0,0.0,0.0,4.25,0.75,6.5,5.25,5.25,6.75,-0.17,0.08,0.95,462.45,-5.1,-81.1,1.0,0.0,0.0,0.75,0.0,0.0,0.0,0.0,0.0,0.0,0.0,0.0,0.0,0.14,0.39,2.33,85.22,-26.8,79.6
0.72,0.0,0.0,0.0,0.5,0.0,0.0,0.0,4.5,0.75,6.5,5.5,5.25,6.75,-0.17,0.08,0.95,503.03,-5.0,-80.7,1.0,0.0,0.0,0.75,0.0,0.0,0.0,0.0,0.25,1.0,0.0,0.0,0.0,1.02,0.14,2.39,0.0,-11.2,17.4
0.74,0.0,0.0,0.0,0.5,0.25,1.25,0.25,4.5,1.5,6.5,6.0,5.0,6.75,-0.11,0.08,0.95,539.03,-5.0,-73.6,0.0,0.0,0.5,0.75,0.0,0.0,0.0,0.0,0.25,1.0,0.0,0.0,0.0,1.08,-1.3,-0.11,0.0,-8.0,-3.2
0.76,0.0,0.0,0.0,0.5,0.0,1.5,0.5,4.5,1.5,6.5,6.0,5.0,6.25,-0.11,0.02,0.95,556.09,-4.9,-73.0,0.0,0.0,0.0,0.0,0.0,0.0,0.0,0.0,0.0,0.0,0.0,0.0,0.0,0.7,-1.36,0.89,0.0,0.0,0.0
0.78,0.0,0.0,0.0,0.5,0.0,2.0,0.5,4.75,2.25,6.25,5.75,4.75,6.25,-0.11,0.02,0.95,565.46,-5.0,-70.1,0.0,0.0,0.0,0.0,0.0,0.0,0.0,0.0,0.0,0.0,0.0,0.0,0.0,0.77,-0.98,1.52,0.0,0.0,0.0
0.8,0.0,0.0,0.0,0.0,0.75,2.0,0.75,4.75,2.25,5.75,5.75,4.0,5.5,-0.11,0.02,0.95,549.05,-5.1,-66.4,0.0,0.0,0.0,0.75,0.0,0.0,0.0,0.0,0.25,0.0,0.0,0.0,0.0,0.14,-0.55,0.27,0.0,-16.0,34.8
0.82,0.25,0.0,0.0,0.0,3.0,2.0,0.75,4.5,2.5,5.25,5.25,3.25,5.0,-0.11,0.02,0.95,522.15,-4.7,-53.3,0.0,0.0,0.0,0.0,0.0,0.0,0.0,0.0,0.0,0.0,0.0,0.0,0.0,0.33,-0.42,0.45,0.0,0.0,0.0
0.84,0.0,0.0,0.25,2.5,3.25,2.75,1.0,4.5,2.5,4.5,4.75,3.0,4.0,-0.11,0.02,0.95,488.35,-2.9,-38.5,0.0,0.0,1.25,0.0,0.0,0.0,0.0,0.0,0.0,0.0,0.0,0.0,0.0,0.39,-0.42,0.7,0.0,-38.2,61.0
0.86,0.0,0.0,0.75,2.5,4.25,2.75,1.25,4.5,2.5,3.25,3.5,2.0,3.0,-0.11,0.08,0.95,438.62,-2.1,-25.2,0.0,0.0,0.0,0.0,0.0,0.0,0.0,0.0,0.0,0.0,0.0,0.0,0.0,0.45,-0.42,0.95,0.0,0.0,0.0
0.88,2.25,0.0,1.25,3.25,4.5,2.75,1.25,4.25,2.5,3.0,3.0,1.25,2.25,-0.11,0.08,0.95,415.69,1.4,-7.3,0.0,0.0,0.5,0.75,0.0,0.0,0.0,0.5,0.0,0.0,0.0,0.0,0.0,0.33,-0.05,0.95,0.0,-13.7,31.9
0.9,3.0,0.25,1.25,4.5,5.25,2.75,1.25,4.0,2.5,2.25,2.5,1.0,1.5,-0.11,0.08,0.95,408.5,3.5,6.2,0.0,0.0,0.0,0.0,0.0,0.0,0.0,0.0,0.0,0.0,0.0,0.0,0.0,0.39,0.2,0.89,0.0,0.0,0.0
0.92,3.75,0.75,1.75,4.5,5.5,3.0,1.5,3.25,2.25,1.25,1.75,1.0,1.5,-0.11,0.08,0.95,414.41,5.6,17.2,0.0,0.0,0.25,0.0,0.0,0.0,0.0,0.0,0.0,0.0,0.0,0.0,0.0,0.45,0.33,1.02,0.0,-38.2,60.9
0.94,3.75,0.75,2.0,6.5,5.75,2.75,1.5,3.0,2.0,1.25,1.5,1.0,1.0,-0.11,0.08,0.95,427.41,7.1,23.9,0.0,0.0,0.5,0.0,0.0,0.0,0.0,0.0,0.0,0.0,0.0,0.0,0.0,0.39,0.33,1.33,3.32,-38.2,60.9
0.96,3.75,0.75,2.75,7.5,6.75,3.5,1.5,3.0,1.75,1.25,1.25,0.75,0.75,-0.11,0.08,0.95,458.66,7.2,29.9,0.0,0.0,0.0,0.0,0.0,0.0,0.0,0.0,0.0,0.0,0.0,0.0,0.0,0.33,0.58,1.52,1.3,0.0,0.0
0.98,4.0,1.0,3.0,8.25,7.0,3.5,1.5,2.5,1.5,1.25,1.0,0.25,0.5,-0.11,0.08,0.95,487.35,8.2,37.0,0.0,0.0,0.5,0.0,0.0,0.0,0.0,0.0,0.0,0.0,0.0,0.0,0.0,0.39,0.77,1.64,3.68,-38.2,60.9
1.0,4.75,1.0,3.0,9.0,7.5,3.75,1.5,2.25,1.25,1.0,0.75,0.5,0.5,-0.11,0.08,0.95,522.79,8.8,40.3,0.0,0.0,0.0,0.0,0.0,0.0,0.0,0.0,0.0,0.0,0.0,0.0,0.0,0.52,0.77,1.7,3.56,0.0,0.0
1.02,5.0,1.0,3.0,10.0,8.0,4.0,1.75,1.5,0.75,1.25,0.5,0.25,0.25,-0.11,0.08,0.95,553.67,9.3,45.9,0.0,0.0,0.0,0.0,0.0,0.0,0.0,0.0,0.0,0.0,0.0,0.0,0.0,0.77,0.77,1.89,1.88,0.0,0.0
1.04,5.25,1.25,3.0,10.5,8.0,4.0,2.0,1.25,0.75,0.75,0.25,0.0,0.25,-0.11,0.08,0.95,578.42,10.2,50.7,0.0,0.0,0.5,0.0,0.0,0.0,0.0,0.0,0.0,0.0,0.0,0.0,0.0,0.77,1.27,2.08,2.01,-38.2,60.9
1.06,5.25,1.5,4.5,11.5,8.25,4.0,2.0,1.25,0.5,0.5,0.0,0.0,0.25,-0.11,0.14,0.95,608.41,11.5,53.7,0.0,0.0,0.0,0.0,0.0,0.0,0.0,0.0,0.0,0.0,0.0,0.0,0.0,0.52,1.45,1.83,1.61,0.0,0.0
1.08,4.75,2.25,4.75,12.0,8.75,4.0,2.0,1.25,0.25,0.25,0.0,0.0,0.25,-0.11,0.14,0.95,640.25,11.5,55.5,0.0,0.0,0.0,0.0,0.0,0.0,0.0,0.0,0.0,0.0,0.0,0.0,0.0,0.08,1.89,1.58,0.06,0.0,0.0
1.1,5.25,2.5,5.5,12.5,8.75,4.0,2.0,1.0,0.25,0.25,0.0,0.0,0.25,-0.11,0.14,0.95,678.9,12.5,56.9,0.0,0.0,0.5,0.0,0.0,0.0,0.0,0.0,0.25,0.0,0.25,0.0,0.75,-0.36,2.02,1.02,9.68,-8.3,-45.7
1.12,5.0,2.25,6.0,12.5,8.75,2.75,1.75,0.5,0.0,0.0,0.0,0.0,0.25,-0.11,0.14,1.02,686.34,14.2,59.8,0.0,0.25,0.0,0.75,0.0,0.0,0.0,0.0,0.0,0.0,0.0,0.0,0.0,-0.8,2.77,1.08,14.39,-16.0,68.0
1.14,5.5,2.5,5.25,13.5,8.5,3.0,2.0,0.5,0.0,0.5,0.0,0.0,0.25,-0.11,0.14,1.02,697.49,13.6,58.6,0.0,0.0,1.0,0.0,1.25,0.0,0.25,1.0,0.0,0.0,0.0,0.0,0.0,-1.8,4.02,0.08,35.01,-6.0,29.1
1.16,5.5,2.75,6.25,14.0,9.0,2.75,1.5,0.0,0.0,0.25,0.0,0.0,0.0,-0.11,0.14,1.02,705.31,14.8,62.0,0.0,0.0,0.0,0.0,0.0,0.0,0.0,0.0,0.0,0.0,0.0,0.0,0.0,-2.61,3.52,1.08,28.61,0.0,0.0
1.18,6.5,3.0,0.0,14.0,8.25,2.0,1.25,0.0,0.0,0.25,0.0,0.0,0.25,-0.17,0.2,1.08,664.59,12.1,63.0,0.0,0.0,0.0,0.0,0.0,0.0,0.0,0.0,0.0,0.0,0.25,0.0,0.0,0.2,-0.36,0.39,23.78,-10.7,-75.5
1.2,6.5,3.5,5.5,14.0,8.5,0.0,1.0,0.0,0.0,0.25,0.0,0.0,0.25,-0.17,0.27,1.08,655.71,17.2,64.6,0.0,0.0,0.0,0.0,0.0,0.0,0.0,0.0,0.0,3.5,0.0,1.25,4.5,1.08,0.08,1.39,70.09,11.4,-97.0
1.22,7.0,2.75,6.25,13.0,8.0,0.0,0.5,0.0,0.0,0.25,0.0,0.0,0.25,-0.23,0.27,1.27,637.45,18.1,64.8,0.0,0.0,0.0,0.0,0.0,0.0,0.0,0.0,0.0,5.75,1.25,5.0,6.75,-0.17,0.02,0.45,167.66,6.7,-97.2
1.24,6.75,1.75,6.75,11.5,0.0,0.0,0.0,0.0,0.0,0.25,0.0,0.0,0.25,-0.3,0.33,1.39,552.53,25.6,67.7,0.0,0.0,0.25,0.5,0.0,0.0,0.0,1.0,0.25,8.5,3.75,6.0,8.5,-0.92,0.7,2.95,286.77,5.4,-87.8
1.26,7.0,2.5,6.0,10.5,6.0,0.0,0.0,0.0,0.0,0.25,0.0,0.0,0.25,-0.48,0.39,1.52,512.17,19.4,66.1,0.0,0.0,0.5,0.5,0.0,2.0,0.0,3.75,0.75,9.0,7.0,5.75,8.25,0.39,0.39,1.08,435.22,5.4,-74.8
1.28,6.75,1.25,4.75,8.0,0.0,0.0,0.0,0.0,0.0,0.0,0.0,0.0,0.25,-0.73,0.58,1.58,404.3,26.7,71.0,0.0,0.0,0.5,0.5,0.5,1.0,0.0,5.0,0.75,9.0,6.5,5.25,8.25,-0.11,0.2,1.08,572.69,5.7,-73.9
1.3,5.0,0.5,2.25,5.25,0.0,0.0,0.0,0.0,0.0,0.25,0.0,0.0,0.0,-1.05,1.2,2.64,300.4,26.3,71.6,0.0,0.0,0.75,0.5,0.5,2.0,0.25,5.75,1.0,9.0,6.75,5.25,8.25,0.2,0.14,0.95,672.35,5.7,-69.3
1.32,1.0,0.0,1.25,2.75,0.0,0.0,0.0,0.0,0.0,0.0,0.0,0.0,0.25,-0.36,0.89,3.02,184.7,23.8,57.5,0.0,0.0,1.0,0.75,0.5,2.75,0.25,6.0,1.0,9.0,6.75,5.25,8.0,0.08,0.08,0.95,727.53,5.6,-65.5
1.34,0.0,0.0,0.5,2.5,0.0,0.0,0.0,0.0,0.0,0.0,0.0,0.0,0.25,-0.36,0.58,2.77,76.0,18.0,45.6,0.5,0.0,0.75,0.75,1.25,3.75,0.0,5.5,1.0,9.0,6.75,5.25,8.0,0.14,0.08,0.95,761.71,5.7,-60.4
1.36,0.0,0.0,0.0,1.0,0.0,0.0,0.0,0.0,0.0,0.25,0.0,0.0,0.25,-1.17,-0.61,2.2,0.0,6.7,8.6,1.0,0.0,0.75,0.75,1.0,3.75,0.25,5.75,1.0,9.0,6.75,5.25,8.0,0.14,0.08,0.95,778.31,5.2,-59.0
1.38,0.0,0.0,0.0,0.5,0.0,0.0,0.0,0.0,0.0,0.0,0.0,0.0,0.0,-1.23,-0.67,0.83,0.0,17.2,57.9,1.0,0.0,1.0,0.75,1.0,3.75,0.25,5.75,1.0,8.5,6.5,5.0,7.75,0.08,0.08,0.95,773.72,5.0,-57.4
1.4,0.0,0.0,0.0,0.5,0.0,0.0,0.0,0.0,0.0,0.0,0.0,0.0,0.25,-0.86,-1.23,-0.36,0.0,7.0,2.6,1.25,0.0,1.75,1.0,1.0,4.0,0.75,5.75,1.0,8.25,6.25,4.25,7.75,0.14,0.08,0.95,756.82,4.0,-51.6
1.42,0.0,0.0,0.0,0.5,0.0,0.0,0.0,0.0,0.0,0.0,0.0,0.0,0.25,-0.73,-0.23,0.64,0.0,7.0,2.6,2.0,0.0,2.0,1.0,2.25,4.0,0.75,5.25,1.0,8.0,6.0,3.75,7.0,0.08,0.08,0.95,717.79,2.9,-43.0
1.44,0.0,0.0,0.0,0.5,0.0,0.0,0.0,0.0,0.0,0.0,0.0,0.0,0.25,-0.42,-0.3,0.08,0.0,7.0,2.6,2.25,0.0,2.75,1.0,2.5,4.25,0.75,5.0,1.25,7.75,5.5,3.75,6.75,0.14,0.08,0.95,674.36,1.9,-38.4
1.46,0.0,0.0,0.0,1.0,0.0,0.0,0.0,0.0,0.0,0.0,0.0,0.0,0.0,-0.55,-0.23,0.39,0.0,17.2,57.9,2.75,0.0,3.75,1.0,3.75,4.25,1.0,5.0,1.5,7.5,5.25,2.75,6.25,0.08,0.08,0.95,639.62,0.6,-28.7
1.48,0.0,0.0,0.25,0.5,0.0,0.0,0.0,0.0,0.0,0.0,0.0,0.0,0.0,-0.61,-0.3,0.52,0.0,24.1,58.9,3.75,0.25,3.5,2.0,3.75,4.25,1.25,4.75,1.5,7.0,4.5,2.5,5.75,0.08,0.08,0.95,618.18,-0.6,-20.8
1.5,0.0,0.0,0.0,0.5,0.0,0.0,0.0,0.0,0.0,0.0,0.0,0.0,0.0,-0.48,-0.11,0.77,0.0,17.2,57.9,4.25,0.25,3.75,3.25,4.25,4.25,1.25,5.0,1.5,7.0,4.25,2.5,5.5,0.14,0.08,0.95,624.29,-1.5,-15.4
1.52,0.0,0.0,0.0,0.5,0.0,0.0,0.0,0.0,0.0,0.0,0.0,0.0,0.0,-0.3,0.2,0.77,0.0,17.2,57.9,5.25,0.25,3.75,3.25,5.0,5.0,1.5,4.75,1.5,6.5,4.0,1.75,4.75,0.14,0.08,0.95,643.02,-2.2,-6.9
1.54,0.0,0.0,0.5,0.5,0.0,0.0,0.0,0.0,0.25,0.0,0.0,0.0,0.0,-0.17,0.45,0.83,0.0,24.6,40.6,5.75,0.75,5.0,3.75,5.25,5.5,2.0,4.5,1.5,5.75,3.75,1.0,4.25,0.14,0.08,0.95,672.44,-4.0,2.9
1.56,0.0,0.0,0.5,0.5,0.0,0.0,0.0,0.0,0.0,0.0,0.0,0.0,0.25,0.02,0.58,1.02,9.93,19.4,25.8,5.75,0.75,5.75,5.25,5.0,5.75,2.25,4.25,1.5,5.0,3.0,1.0,3.5,0.14,0.08,0.95,698.58,-5.6,10.0
1.58,0.0,0.0,0.25,0.5,0.0,0.0,0.0,0.0,0.0,0.0,0.0,0.0,0.25,0.14,0.7,1.14,16.09,14.7,17.0,5.75,1.0,5.75,5.5,6.5,6.0,2.5,4.0,1.5,4.0,2.25,0.5,2.75,0.14,0.08,0.95,719.43,-6.0,19.1
1.6,0.0,0.0,0.5,0.5,0.0,0.0,0.0,0.0,0.0,0.0,0.0,0.0,0.25,0.14,0.77,1.2,20.68,19.4,25.8,5.75,1.25,6.0,6.25,6.75,6.0,2.25,3.75,1.5,3.5,2.0,0.5,2.5,0.14,0.14,0.95,734.35,-6.7,23.0
1.62,0.0,0.0,0.25,0.25,0.0,0.0,0.0,0.0,0.0,0.0,0.0,0.0,0.25,0.02,0.83,1.58,19.19,13.9,3.3,5.75,1.5,7.0,7.5,7.5,6.0,2.5,3.75,1.0,3.25,2.0,0.25,1.75,0.14,0.14,0.95,760.76,-7.9,29.5
1.64,0.0,0.0,0.25,0.25,0.0,0.0,0.0,0.0,0.0,0.0,0.0,0.0,0.25,-0.11,0.89,1.64,16.59,13.9,3.3,6.0,1.75,7.0,8.0,8.0,6.0,3.0,3.0,1.0,3.0,1.25,0.0,1.5,0.14,0.14,0.95,781.22,-8.7,35.3
1.66,0.0,0.0,0.0,0.25,0.0,0.0,0.0,0.0,0.0,0.0,0.0,0.0,0.25,-0.3,1.02,1.52,12.59,1.8,-25.2,5.75,1.75,7.25,9.25,8.25,6.25,3.0,2.5,1.0,2.25,0.25,0.0,1.5,0.08,0.14,0.95,797.5,-9.4,40.6
1.68,0.0,0.0,0.0,0.25,0.0,0.0,0.0,0.0,0.0,0.0,0.0,0.0,0.0,-0.36,0.95,1.39,8.9,17.2,57.9,6.0,2.0,8.0,9.5,8.25,6.25,3.0,2.25,1.0,2.0,1.5,0.0,1.0,0.08,0.14,0.95,816.89,-10.5,41.2
1.7,0.0,0.0,0.25,0.5,0.0,0.0,0.0,0.0,0.0,0.0,0.0,0.0,0.25,-0.36,0.89,1.33,9.96,14.7,17.0,6.0,2.0,8.0,11.0,9.25,6.25,3.0,2.25,0.75,2.0,0.75,0.0,1.25,0.08,0.14,0.95,845.6,-10.3,43.3
1.72,0.0,0.0,0.25,0.25,0.0,0.0,0.0,0.0,0.0,0.0,0.0,0.0,0.0,-0.36,0.89,1.45,9.67,27.6,59.4,6.25,2.0,8.5,11.5,9.25,6.0,3.0,2.0,0.25,1.5,0.75,0.0,1.0,0.08,0.14,0.95,866.11,-11.4,46.9
1.74,0.0,0.0,0.0,0.5,0.0,0.0,0.0,0.0,0.0,0.0,0.0,0.0,0.25,-0.23,0.89,1.58,11.06,7.0,2.6,6.5,2.75,8.75,12.5,9.25,6.0,3.25,1.0,0.25,1.5,0.5,0.0,1.0,0.08,0.14,0.95,890.0,-12.3,50.3
1.76,0.0,0.0,0.25,0.5,0.0,0.0,0.0,0.0,0.0,0.0,0.0,0.0,0.25,-0.11,0.95,1.58,12.42,14.7,17.0,7.0,2.75,9.0,12.5,9.5,6.0,3.25,0.25,0.25,1.5,0.25,0.0,0.75,0.08,0.14,0.95,905.78,-13.1,53.4
1.78,0.0,0.0,0.25,0.5,0.0,0.0,0.0,0.0,0.0,0.0,0.0,0.0,0.5,0.08,1.14,1.27,15.34,9.1,-8.1,7.0,2.75,9.5,12.5,9.75,6.0,3.0,1.0,0.25,1.0,0.25,0.0,0.75,0.08,0.14,0.95,921.62,-13.1,53.5
1.8,0.25,0.0,0.0,0.5,0.0,0.0,0.0,0.0,0.0,0.0,0.0,0.0,0.25,0.45,1.45,1.02,16.81,13.4,24.5,7.75,3.0,9.5,13.5,9.75,4.75,3.5,0.75,0.25,0.25,0.25,0.0,1.0,0.08,0.2,0.95,934.81,-14.7,56.1
1.82,0.0,0.0,0.25,0.5,0.0,0.0,0.0,0.0,0.0,0.0,0.0,0.0,0.0,0.33,2.14,0.64,16.99,24.1,58.9,8.0,3.25,11.0,14.0,9.5,4.25,3.0,0.75,0.25,0.0,0.25,0.0,1.25,0.08,0.2,0.95,957.89,-15.8,56.8
1.84,0.0,0.0,0.0,0.5,0.0,0.0,0.0,0.0,0.0,0.0,0.0,0.0,0.0,-0.23,1.89,0.27,14.53,17.2,57.9,8.5,3.5,11.0,14.5,9.5,4.25,3.0,0.5,0.25,0.75,0.75,0.0,0.75,0.02,0.2,1.02,986.42,-15.9,56.4
1.86,0.0,0.0,0.0,0.5,0.0,0.0,0.0,0.0,0.0,0.25,0.0,0.0,0.0,1.08,2.08,0.52,13.62,6.5,14.7,8.75,3.5,11.0,14.5,9.25,3.25,3.0,0.75,0.25,1.5,0.5,0.0,0.75,0.02,0.27,1.02,1005.8,-16.2,55.3
1.88,0.0,0.0,0.0,0.5,0.0,0.0,0.0,0.0,0.0,0.25,0.0,0.0,0.25,-0.11,0.95,2.33,13.98,1.5,-16.3,8.75,3.5,11.0,13.5,8.5,2.0,2.5,0.5,0.25,1.0,0.25,0.0,1.0,0.02,0.27,1.02,986.84,-17.6,57.4
1.9,0.0,0.0,0.0,0.5,0.0,0.0,0.0,0.0,0.0,0.75,0.0,0.25,0.5,0.08,-0.73,1.2,21.46,-3.7,-54.0,9.0,3.5,11.0,12.5,8.25,0.0,1.75,0.75,0.25,1.5,0.0,0.0,1.25,0.08,0.33,1.14,938.43,-18.6,56.7
1.92,0.0,0.0,0.0,0.0,0.0,0.0,0.0,0.0,0.0,2.0,0.0,2.25,2.75,-0.23,0.33,0.95,61.03,-7.1,-100.1,9.25,3.25,11.0,12.5,6.75,0.0,1.25,0.5,0.25,1.25,0.0,0.0,0.75,0.08,0.33,1.14,867.51,-20.2,59.9
1.94,0.0,0.0,0.0,0.0,0.0,0.0,0.0,0.0,0.0,5.75,2.0,3.75,6.0,0.08,0.14,2.39,153.72,-6.8,-94.8,8.0,2.0,8.75,9.25,1.75,0.0,0.75,0.0,0.0,0.0,0.0,0.0,0.0,0.2,0.45,1.27,691.65,-26.2,70.6
1.96,0.0,0.0,0.0,0.0,0.0,0.0,0.0,2.0,0.0,0.0,3.75,0.0,6.25,-0.8,0.45,1.52,199.92,-6.8,-87.7,7.75,0.75,8.0,6.0,0.5,0.0,0.5,0.0,0.0,0.0,0.0,0.0,0.0,0.27,0.58,1.52,506.1,-29.6,72.3
1.98,0.0,0.0,0.0,0.5,0.0,0.0,0.0,4.25,0.75,6.75,4.5,4.25,6.75,-0.05,0.27,1.2,293.69,-6.1,-80.2,6.25,0.0,4.5,3.25,0.0,0.0,0.25,0.0,0.0,0.0,0.0,0.0,0.0,0.58,0.95,1.77,321.23,-31.7,75.3
2.0,0.0,0.0,0.0,0.5,0.0,0.0,0.0,4.5,0.75,6.5,3.5,4.0,6.25,-0.17,0.08,1.02,358.65,-6.7,-79.1,4.0,0.0,2.25,1.0,0.0,0.0,0.25,0.0,0.0,0.0,0.0,0.0,0.0,0.14,0.95,2.64,188.52,-33.4,79.0
2.02,0.0,0.0,0.0,0.5,0.0,0.0,0.0,4.75,0.75,6.5,0.0,3.25,6.0,-0.17,0.08,0.95,394.98,-10.0,-77.8,2.5,0.0,1.25,0.75,0.0,0.0,0.0,0.0,0.0,0.0,0.0,0.0,0.0,0.08,0.39,2.14,56.11,-32.7,79.9
2.04,0.0,0.0,0.0,0.5,0.0,1.0,0.0,5.0,0.0,6.5,2.75,3.0,6.0,-0.17,0.08,0.95,409.65,-9.1,-73.8,0.0,0.0,0.75,0.5,0.0,0.0,0.0,0.0,0.0,0.0,0.0,0.0,0.0,0.58,0.33,1.58,0.0,-29.7,59.7
2.06,0.0,0.0,0.0,0.5,2.5,0.75,0.0,5.25,0.75,6.5,4.0,3.0,6.0,-0.17,0.08,0.95,441.5,-7.2,-61.1,0.25,0.0,2.5,1.5,0.0,0.0,0.0,0.0,0.25,0.25,0.0,0.0,0.0,0.89,-0.23,1.52,0.0,-27.2,49.7
2.08,0.0,0.0,0.0,0.0,2.5,2.25,0.25,5.75,0.75,6.75,4.75,3.0,6.0,-0.11,0.08,0.95,475.24,-7.9,-58.6,0.0,0.25,3.0,0.75,0.5,0.0,0.25,0.75,0.25,0.75,0.25,0.0,0.0,1.14,-1.05,0.08,0.0,-17.3,26.4
2.1,0.0,0.0,0.0,1.25,3.0,2.75,0.5,6.0,1.5,6.75,3.75,2.5,5.75,-0.11,0.02,0.95,507.6,-7.3,-48.4,0.0,0.0,0.5,0.75,0.0,0.0,0.0,0.0,0.25,0.75,0.0,0.0,0.0,1.02,-1.11,1.2,0.0,-10.6,4.6
2.12,0.0,0.0,0.0,2.0,3.25,2.75,0.5,6.0,1.5,6.5,3.5,2.0,5.5,-0.17,0.02,0.95,525.89,-7.0,-43.2,0.0,0.0,2.75,0.75,0.5,0.0,0.25,0.0,0.25,0.75,0.0,0.0,0.0,0.33,-0.23,1.02,0.0,-21.6,35.0
2.14,0.5,0.0,0.0,2.5,4.0,3.0,0.5,6.0,1.5,6.5,3.25,2.0,5.25,-0.17,0.08,0.95,526.83,-6.1,-36.3,0.0,0.0,2.75,0.75,0.5,0.0,0.25,0.5,0.25,0.5,0.0,0.0,0.25,0.14,-0.3,0.33,0.0,-18.4,27.0
2.16,0.0,0.0,0.0,2.5,4.0,3.5,0.5,6.0,1.5,5.75,3.0,1.5,4.5,-0.17,0.08,0.95,499.32,-6.9,-33.2,0.0,0.0,2.5,0.75,0.5,0.0,0.0,0.5,0.25,0.75,0.25,0.0,0.0,0.27,-0.17,0.27,1.24,-16.8,22.8
2.18,0.0,0.0,0.0,2.5,4.5,4.0,0.5,6.0,1.25,5.75,2.5,1.0,4.25,-0.11,0.08,0.95,469.66,-7.7,-28.2,0.0,0.0,2.25,0.75,0.5,0.0,0.25,0.75,0.25,0.75,0.0,0.0,0.0,0.45,-0.17,0.64,38.97,-14.9,22.6
2.2,0.0,0.0,0.0,2.5,5.25,4.0,0.5,6.0,1.0,4.75,2.0,1.0,4.0,-0.17,0.08,0.95,444.06,-7.7,-23.0,0.0,0.0,2.0,0.75,0.5,0.0,0.25,0.75,0.25,0.75,0.0,0.0,0.0,0.39,-0.23,1.08,63.48,-13.7,20.8
2.22,0.5,0.0,0.75,2.5,5.25,4.75,0.25,6.0,0.75,4.5,1.5,1.0,2.75,-0.17,0.08,0.95,416.02,-6.5,-13.0,0.0,0.0,2.25,0.75,0.5,0.0,0.25,0.75,0.25,1.0,0.0,0.0,0.0,0.33,0.2,1.14,81.64,-13.6,18.4
2.24,1.25,0.5,1.25,3.75,5.5,5.0,0.0,5.75,0.75,3.25,1.25,0.75,2.0,-0.17,0.08,0.95,416.13,-3.5,2.4,0.0,0.0,2.5,0.75,0.5,0.0,0.25,0.5,0.25,0.75,0.0,0.0,0.0,0.33,0.45,1.14,90.32,-17.4,27.2
2.26,1.5,1.0,1.25,4.0,5.75,5.25,0.0,5.25,0.25,2.5,0.0,0.5,1.5,-0.11,0.08,0.95,410.34,-3.1,15.5,0.0,0.0,2.25,0.75,0.5,0.0,0.25,0.75,0.25,0.75,0.25,0.0,0.25,0.45,0.45,1.2,96.59,-13.5,13.1
2.28,3.25,1.0,1.25,4.5,6.5,5.25,0.0,4.75,0.5,1.25,0.0,0.0,1.25,-0.17,0.14,0.95,408.84,0.0,29.1,0.0,0.0,2.25,0.75,0.5,0.0,0.25,0.25,0.25,0.75,0.0,0.0,0.75,0.45,0.58,1.52,97.45,-13.8,10.3
2.3,3.5,1.0,1.25,4.5,6.75,5.25,0.0,4.5,0.25,1.25,0.0,0.0,0.5,-0.17,0.08,0.95,403.41,0.6,34.6,0.0,0.0,1.75,0.75,0.5,0.0,0.0,0.0,0.25,0.5,0.0,0.0,0.0,0.39,0.83,1.58,85.42,-19.3,35.5
2.32,5.0,1.5,1.25,6.0,7.0,5.5,0.0,3.0,0.0,1.25,0.0,0.0,0.5,-0.17,0.14,1.02,419.58,3.6,43.8,0.0,0.0,2.25,0.75,0.5,0.0,0.25,0.75,0.25,0.5,0.0,0.0,0.5,0.52,0.95,1.58,85.58,-13.7,15.1
2.34,1.75,2.25,1.25,6.5,7.5,5.5,0.0,2.0,0.0,1.25,0.0,0.0,0.25,-0.17,0.14,1.08,419.96,1.6,44.2,0.0,0.0,2.25,0.75,0.5,0.0,0.5,0.75,0.25,1.0,0.0,0.0,0.25,0.58,1.14,1.52,89.74,-12.8,13.2
2.36,0.0,2.5,0.0,6.5,8.0,5.25,0.0,1.25,0.0,0.5,0.0,0.0,0.5,-0.23,0.14,1.14,402.22,-1.1,45.2,0.0,0.0,2.0,0.5,0.5,0.0,0.25,0.75,0.25,0.75,0.0,0.0,0.25,0.33,1.45,1.39,87.52,-12.2,12.6
2.38,0.0,2.5,0.0,6.5,8.0,5.0,0.0,1.25,0.0,0.5,0.0,0.0,0.5,-0.23,0.14,1.14,381.44,-0.9,45.3,0.0,0.0,2.0,0.75,0.0,0.0,0.25,0.0,0.25,1.0,0.0,0.0,0.0,0.14,1.58,1.14,81.16,-19.8,21.2
2.4,6.5,2.75,0.0,6.5,7.75,4.75,0.0,1.0,0.0,0.25,0.0,0.0,0.25,-0.23,0.2,1.02,393.94,6.8,59.1,0.0,0.0,2.0,0.75,0.5,0.0,0.25,0.5,0.25,0.25,0.0,0.0,0.5,0.02,1.89,0.89,79.64,-15.4,19.9
2.42,7.0,3.25,0.0,6.5,7.75,3.0,0.0,0.0,0.0,0.0,0.0,0.0,0.25,-0.3,0.33,1.14,402.51,10.0,66.5,0.0,0.0,1.75,0.75,0.0,0.0,0.25,0.5,0.25,0.5,0.0,0.0,0.0,-0.11,1.95,0.58,71.67,-18.5,23.2
2.44,7.5,3.75,0.0,4.5,0.0,2.25,0.0,0.0,0.0,0.5,0.0,0.0,0.25,-0.36,0.33,1.45,363.2,17.0,72.9,0.0,0.0,1.75,0.0,1.0,0.0,0.25,0.75,0.0,0.25,0.0,0.0,0.5,-7.98,7.52,3.58,69.81,-9.9,15.3
2.46,7.0,3.5,0.0,4.0,0.0,0.0,0.0,0.0,0.0,0.25,0.0,0.0,0.25,-0.36,0.39,1.45,301.96,22.8,80.3,0.0,0.0,1.5,0.5,0.5,0.0,0.0,0.0,0.25,0.75,1.0,0.0,1.0,-2.48,2.45,-0.86,72.67,-9.5,-17.1
2.48,0.0,2.75,0.0,2.5,0.0,0.0,0.0,0.0,0.0,0.25,0.0,0.0,0.25,-0.36,0.52,1.33,212.8,12.2,64.5,0.0,0.0,2.0,0.75,0.5,0.0,0.5,0.5,0.25,1.25,2.0,0.5,0.75,-1.11,2.7,0.14,93.67,-9.9,-22.5
2.5,5.0,2.5,0.0,2.5,0.0,0.0,0.0,0.0,0.0,0.25,0.0,0.0,0.25,0.08,0.52,1.7,155.56,22.5,78.7,0.0,0.0,1.75,0.75,0.25,0.0,0.0,0.5,0.25,1.5,3.0,2.25,1.0,0.02,0.33,3.58,125.86,-7.9,-48.6
2.52,0.0,1.25,0.0,1.0,0.0,0.0,0.0,0.0,0.0,0.25,0.0,0.0,0.25,-0.42,0.64,1.52,72.18,9.4,49.5,0.0,0.0,1.75,0.0,1.0,0.0,0.25,0.0,0.25,0.0,2.25,1.0,0.0,0.14,0.14,0.83,129.6,-16.0,-16.6
2.54,4.25,1.0,0.0,0.75,0.0,0.0,0.0,0.0,0.0,0.25,0.0,0.0,0.25,-0.23,0.52,1.45,48.07,25.0,77.6,0.0,0.0,0.5,0.75,0.0,0.0,0.0,0.0,1.0,1.5,2.0,2.25,0.0,0.45,0.02,1.02,135.98,-7.8,-58.5
2.56,3.25,0.75,0.0,0.5,0.0,0.0,0.0,0.0,0.0,0.25,0.0,0.0,0.0,-0.67,0.58,1.14,17.32,26.4,84.0,0.0,0.0,2.75,0.75,0.5,0.0,0.25,0.0,1.0,0.0,4.5,1.25,1.0,-0.17,0.14,0.83,147.11,-15.0,-30.5
2.58,2.5,0.75,0.0,0.5,0.0,0.0,0.0,0.0,0.0,0.0,0.0,0.0,0.25,-1.42,0.64,-0.48,10.87,24.9,78.9,1.25,0.0,1.75,0.75,0.0,0.0,0.0,0.75,1.5,0.25,4.75,2.5,1.5,0.02,0.14,0.95,177.49,-11.8,-42.0
2.6,2.25,0.0,0.0,0.5,0.0,0.0,0.0,0.0,0.0,0.25,0.0,0.0,0.25,-2.55,0.89,-0.23,0.0,23.9,60.2,3.75,0.0,4.0,1.0,0.5,0.0,0.75,1.0,1.5,1.5,6.5,2.25,1.0,0.14,0.08,1.02,235.56,-15.5,-15.0
2.62,0.0,0.0,0.0,0.25,0.0,0.0,0.0,0.0,0.0,0.0,0.0,0.0,0.0,-1.05,0.64,0.33,0.0,17.2,57.9,5.75,0.0,5.75,1.25,0.5,0.0,1.25,0.0,1.5,1.25,5.25,1.0,0.75,-0.11,0.02,0.95,285.68,-21.6,12.0
2.64,0.0,0.0,0.0,0.0,0.0,0.0,0.0,0.0,0.0,0.25,0.0,0.0,0.0,-0.8,1.7,-2.8,0.0,-15.7,-75.5,7.0,0.0,7.0,3.25,0.5,0.0,1.5,0.5,1.5,1.25,4.25,0.5,0.75,0.02,0.2,0.95,345.49,-22.6,26.1
2.66,0.0,0.0,0.0,0.0,0.0,0.0,0.0,0.0,0.0,0.0,0.0,0.0,0.0,0.02,0.45,0.77,0.0,0.0,0.0,8.0,0.25,7.25,3.25,0.5,0.0,2.0,0.25,1.0,0.75,3.25,0.0,0.75,0.02,0.14,1.02,383.54,-25.2,39.9
2.68,0.0,0.0,0.0,0.0,0.0,0.0,0.0,0.0,0.0,0.0,0.0,0.0,0.0,0.14,0.45,0.52,0.0,0.0,0.0,8.5,0.25,8.0,3.25,0.5,0.0,1.5,0.75,1.0,0.25,2.0,0.0,0.5,-0.05,0.08,1.14,407.3,-26.8,49.4
2.7,0.0,0.0,0.0,0.5,0.0,0.0,3.5,0.0,0.0,0.25,0.0,0.0,0.0,0.14,1.33,0.08,0.0,24.2,23.4,7.5,0.0,7.25,1.75,0.0,0.0,0.75,0.0,0.25,0.0,0.0,0.0,0.0,0.02,0.14,1.2,371.28,-34.1,73.7
2.72,0.0,0.0,0.0,0.5,0.0,0.0,0.0,0.0,0.0,0.25,0.0,0.0,0.0,0.45,2.14,-1.36,0.0,6.5,14.7,8.0,0.0,7.0,1.0,0.0,0.0,0.0,0.0,0.25,0.5,0.0,0.0,0.0,0.08,0.14,1.89,331.66,-33.4,71.8
2.74,0.0,0.0,0.0,0.25,0.0,0.0,0.0,0.0,0.0,0.0,0.0,0.0,0.0,0.2,3.08,-1.48,0.0,17.2,57.9,6.5,0.0,6.0,0.75,0.0,0.0,0.0,0.0,0.25,0.0,0.0,0.0,0.0,-0.36,-0.11,1.64,281.99,-35.0,75.8
2.76,0.0,0.0,0.0,0.25,0.0,0.0,2.25,0.0,0.0,0.0,0.0,0.0,0.0,1.33,1.2,1.2,4.21,29.4,33.3,4.25,0.0,3.5,0.0,0.0,0.0,0.0,0.0,0.25,0.25,0.0,0.0,0.0,-0.67,-0.48,1.14,228.63,-34.2,71.8
2.78,0.0,0.0,0.0,0.25,0.0,0.0,0.0,0.0,0.0,0.0,0.0,0.0,0.0,1.45,-0.55,2.58,0.0,17.2,57.9,3.25,0.0,0.0,0.75,0.0,0.0,0.0,0.0,0.25,0.5,0.0,0.0,0.0,-0.23,-1.55,0.95,156.56,-25.1,64.6
2.8,0.0,0.0,0.0,0.25,0.0,0.0,0.0,0.0,0.0,0.25,0.0,0.0,0.0,-0.86,-2.17,0.14,1.83,1.1,-7.2,0.0,0.0,0.0,0.0,0.0,0.0,0.0,0.0,0.25,0.0,0.0,0.0,0.0,-0.73,-2.36,1.08,69.83,-12.1,-38.5
2.82,0.0,0.0,0.0,0.5,0.0,0.0,0.0,0.0,0.0,0.25,0.0,0.0,0.0,-0.67,-1.55,-1.3,4.99,6.5,14.7,0.0,0.0,0.5,0.0,0.0,0.0,0.0,0.0,0.25,0.0,0.0,0.0,0.0,-1.36,-1.86,1.64,0.0,-29.8,28.7
2.84,0.0,0.0,0.0,0.5,0.0,0.0,0.0,0.0,0.0,0.25,0.0,0.0,0.0,-1.48,-0.48,-1.05,9.82,6.5,14.7,0.25,0.0,0.5,0.75,0.0,0.0,0.0,0.0,0.25,0.25,0.0,0.0,0.0,-1.23,-0.92,1.14,0.0,-19.9,35.1
2.86,0.0,0.0,0.0,0.5,0.0,0.0,0.0,0.0,0.0,0.0,0.0,0.0,0.0,-2.61,0.33,-1.55,11.57,17.2,57.9,0.0,0.0,1.75,0.0,0.0,0.0,0.0,0.5,0.0,0.0,1.25,0.0,0.75,-0.61,-0.05,0.83,0.0,-14.7,-20.0
2.88,0.0,0.0,0.0,0.5,0.0,0.0,0.0,0.0,0.0,0.25,0.0,0.0,0.0,-1.55,0.45,-1.48,12.18,6.5,14.7,0.0,0.0,0.5,0.0,0.0,0.0,0.0,0.0,0.0,0.0,0.0,0.0,0.0,-0.42,0.2,1.14,0.0,-38.2,60.9
2.9,0.0,0.0,0.0,0.5,0.0,0.0,0.0,0.0,0.0,0.25,0.0,0.0,0.0,0.33,0.45,-0.3,12.25,6.5,14.7,0.0,0.0,0.25,0.0,0.0,0.0,0.0,0.0,0.0,0.0,0.0,0.0,0.0,-0.36,0.27,1.33,0.0,-38.2,60.9
2.92,0.0,0.0,0.0,0.25,0.0,0.0,0.0,0.0,0.0,0.25,0.0,0.0,0.0,0.27,0.14,-0.73,10.12,1.1,-7.2,0.0,0.0,0.5,0.5,0.0,0.0,0.0,0.0,0.0,0.5,0.0,0.0,0.0,0.14,0.02,1.77,0.0,-13.5,15.5
2.94,0.0,0.0,0.0,0.25,0.0,0.0,0.0,0.0,0.0,0.0,0.0,0.0,0.0,-0.17,0.14,-0.73,6.72,17.2,57.9,0.0,0.0,0.75,0.5,0.25,0.0,0.0,0.5,0.25,0.75,0.75,0.0,0.0,0.7,0.45,2.27,0.0,-7.4,-12.4
2.96,0.0,0.0,0.0,0.5,0.0,0.0,0.0,0.0,0.0,0.0,0.0,0.0,0.0,-0.55,0.39,-0.55,7.93,17.2,57.9,0.0,0.0,0.5,0.5,0.0,0.0,0.0,0.0,0.25,0.25,0.0,0.0,0.0,0.58,0.95,1.08,0.0,-18.1,21.7
2.98,0.0,0.0,0.0,0.5,0.0,0.0,0.0,0.0,0.0,0.0,0.0,0.0,0.0,0.77,0.58,0.08,7.79,17.2,57.9,0.0,0.0,1.0,0.5,0.0,0.0,0.0,0.25,0.25,0.75,0.0,0.0,0.25,0.2,1.52,0.77,22.35,-10.4,-3.6
3.0,0.0,0.0,0.0,0.5,0.0,0.0,0.0,0.0,0.0,0.0,0.0,0.0,0.0,-2.17,1.27,-1.17,7.84,17.2,57.9,0.0,0.0,1.25,0.5,0.0,0.0,0.0,0.25,0.25,0.25,0.25,0.0,0.5,-0.8,1.39,0.7,38.86,-14.7,-1.2
3.02,0.25,0.0,0.0,0.5,0.0,0.0,0.0,0.0,0.0,0.0,0.0,0.0,0.25,-2.3,0.02,-0.67,11.79,13.4,24.5,0.0,0.0,1.0,0.5,0.5,0.0,0.25,0.5,0.25,0.75,0.0,0.0,0.25,-1.3,0.95,0.7,54.22,-7.4,3.3
3.04,0.0,0.0,0.0,0.5,0.0,0.0,0.0,0.0,0.0,0.0,0.0,0.0,0.0,-1.8,-0.23,0.02,11.54,17.2,57.9,0.0,0.0,0.75,0.5,0.0,0.0,0.0,0.5,0.25,0.5,0.25,0.0,0.25,-1.11,0.52,0.33,57.66,-8.0,-11.7
3.06,0.0,0.0,0.0,0.5,0.0,0.0,0.0,0.0,0.0,0.0,0.0,0.0,0.0,-1.3,-0.23,0.33,11.1,17.2,57.9,0.0,0.0,0.5,0.0,0.0,0.0,0.0,0.0,0.0,0.0,0.0,0.0,0.0,-1.05,0.08,0.27,43.96,-38.2,60.9
3.08,0.0,0.0,0.0,0.5,0.0,0.0,0.0,0.0,0.0,0.0,0.0,0.0,0.0,-0.61,-0.11,0.39,10.06,17.2,57.9,0.0,0.0,1.75,0.5,1.25,0.0,0.0,0.25,0.25,1.0,0.0,0.0,0.5,-1.3,-0.61,0.27,56.91,-8.5,11.4
3.1,0.0,0.0,0.0,0.25,0.0,0.0,0.0,0.0,0.0,0.25,0.0,0.0,0.0,-0.3,0.02,0.27,9.34,1.1,-7.2,0.0,0.0,0.5,0.0,0.0,0.0,0.0,0.0,0.0,0.0,0.0,0.0,0.0,-1.3,-1.11,0.52,41.88,-38.2,60.9
3.12,0.0,0.0,0.0,0.5,0.0,0.0,0.0,0.0,0.0,0.0,0.0,0.0,0.0,-0.23,0.2,0.02,8.77,17.2,57.9,0.0,0.0,0.0,0.0,0.25,0.0,0.0,0.0,0.0,0.0,0.0,0.0,0.0,-1.11,-1.23,0.95,33.94,3.3,53.4
3.14,0.0,0.0,0.0,0.5,0.0,0.0,0.0,0.0,0.0,0.0,0.0,0.0,0.0,-0.3,0.39,-0.3,9.03,17.2,57.9,0.0,0.0,0.0,0.75,0.0,0.0,0.0,0.0,0.25,0.25,0.0,0.0,0.0,-0.86,-1.11,1.08,21.07,-9.8,13.3
3.16,0.0,0.0,0.0,0.5,0.0,0.0,0.0,0.0,0.0,0.0,0.0,0.0,0.0,-0.8,0.7,-0.8,9.47,17.2,57.9,0.0,0.0,0.75,0.75,0.0,0.0,0.0,0.5,0.0,0.25,0.0,0.0,1.0,-0.73,-0.8,0.52,27.04,-4.9,-17.6
3.18,0.0,0.0,0.0,0.5,0.0,0.0,0.0,0.0,0.0,0.0,0.0,0.0,0.0,-1.23,0.89,-1.23,9.37,17.2,57.9,0.0,0.0,0.75,0.5,0.5,0.0,0.0,0.5,0.25,0.25,0.0,0.0,0.5,-0.92,-0.55,0.58,33.98,-5.9,1.1
3.2,0.0,0.0,0.0,0.25,0.0,0.0,0.0,0.0,0.0,0.0,0.0,0.0,0.25,-1.17,0.95,-1.23,8.67,1.8,-25.2,0.0,0.0,1.75,0.5,0.0,0.0,0.5,0.0,0.25,0.25,0.25,0.0,0.5,-0.55,-0.36,0.45,49.23,-21.0,11.4
3.22,0.0,0.0,0.0,0.25,0.0,0.0,0.0,0.0,0.0,0.0,0.0,0.0,0.25,-0.86,0.89,-0.8,8.19,1.8,-25.2,0.0,0.0,0.75,0.75,0.25,0.0,0.0,0.75,0.0,0.5,0.0,0.0,0.0,-0.3,-0.3,0.39,53.36,-7.0,13.3
3.24,0.0,0.0,0.0,0.25,0.0,0.0,0.0,0.0,0.0,0.0,0.0,0.0,0.25,-0.48,0.58,-0.67,7.74,1.8,-25.2,0.0,0.0,0.75,0.5,0.0,0.0,0.0,0.0,0.25,0.75,0.0,0.0,0.5,-0.36,-0.3,0.45,51.6,-8.1,-16.1
3.26,0.0,0.0,0.0,0.5,0.0,0.0,0.0,0.0,0.0,0.0,0.0,0.0,0.25,-0.55,0.39,-0.48,9.12,7.0,2.6,0.0,0.0,0.5,0.75,0.25,0.0,0.25,0.25,0.0,0.25,0.0,0.0,0.75,-0.48,-0.23,0.58,49.4,-5.8,-5.9
3.28,0.0,0.0,0.0,0.5,0.0,0.0,0.0,0.0,0.0,0.0,0.0,0.0,0.25,-0.98,0.14,-0.42,11.02,7.0,2.6,0.0,0.0,0.5,0.5,0.0,0.0,0.0,0.25,0.0,0.5,0.0,0.0,0.5,-0.48,-0.17,0.52,45.59,-4.1,-18.3
3.3,0.0,0.0,0.0,0.25,0.0,0.0,0.0,0.0,0.0,0.0,0.0,0.0,0.25,-0.98,-0.05,-0.3,10.79,1.8,-25.2,0.0,0.0,0.5,0.5,0.25,0.0,0.0,0.5,0.25,0.25,0.0,0.0,1.0,-0.36,-0.23,0.45,47.7,-1.2,-24.9
3.32,0.0,0.0,0.0,0.25,0.0,0.0,0.0,0.0,0.0,0.0,0.0,0.0,0.25,-0.8,-0.17,-0.17,9.99,1.8,-25.2,0.0,0.0,1.25,0.5,0.25,0.0,0.0,0.25,0.25,0.25,0.0,0.0,0.75,-0.36,-0.48,0.45,49.78,-11.5,0.3
3.34,0.0,0.0,0.0,0.25,0.0,0.0,0.0,0.0,0.0,0.0,0.0,0.0,0.25,-0.8,-0.17,-0.11,8.96,1.8,-25.2,0.0,0.0,0.5,0.5,0.0,0.0,0.0,0.75,0.0,0.25,0.0,0.0,0.5,-0.42,-0.8,0.45,52.37,-2.0,-16.7
3.36,0.0,0.0,0.0,0.25,0.0,0.0,0.0,0.0,0.0,0.0,0.0,0.0,0.25,-0.86,-0.05,-0.05,8.22,1.8,-25.2,0.0,0.0,0.5,0.5,0.0,0.0,0.25,0.25,0.0,0.5,0.5,0.0,0.5,-0.55,-1.3,0.58,49.64,-6.4,-25.9
3.38,0.0,0.0,0.0,0.0,0.0,0.0,0.0,0.0,0.0,0.0,0.0,0.0,0.25,-0.73,0.39,-0.3,6.81,-13.7,-109.8,0.0,0.0,0.5,0.5,0.5,0.0,0.0,0.5,0.0,0.25,0.0,0.0,0.75,-0.48,-1.55,0.95,47.09,-1.2,-9.6
3.4,0.0,0.0,0.0,0.5,0.0,0.0,0.0,0.0,0.0,0.0,0.0,0.0,0.25,-0.8,0.58,-0.48,8.57,7.0,2.6,0.0,0.0,0.5,0.5,0.0,0.0,0.0,0.0,0.25,0.25,0.25,0.0,0.75,-0.05,-1.23,0.89,42.55,-7.7,-27.3
3.42,0.0,0.0,0.0,0.5,0.0,0.0,0.0,0.0,0.0,0.0,0.0,0.0,0.25,-1.17,0.33,-0.48,10.13,7.0,2.6,0.0,0.0,0.5,0.5,0.25,0.0,0.25,0.75,0.25,0.5,0.25,0.0,1.0,0.14,-1.05,0.77,48.94,-0.6,-30.1
3.44,0.0,0.0,0.0,0.5,0.0,0.0,0.0,0.0,0.0,0.0,0.0,0.0,0.25,-1.48,-0.11,-0.36,11.92,7.0,2.6,0.0,0.0,1.0,0.5,0.25,0.0,0.0,0.5,0.0,0.25,0.0,0.0,0.5,0.02,-0.92,0.64,50.58,-9.0,4.4
3.46,0.0,0.0,0.0,0.5,0.0,0.0,0.0,0.0,0.0,0.0,0.0,0.0,0.25,-1.23,-0.05,-0.17,12.75,7.0,2.6,0.0,0.0,0.5,0.5,0.25,0.0,0.0,0.5,0.0,0.5,0.0,0.0,0.0,-0.17,-0.73,0.64,49.02,-4.9,8.6
3.48,0.0,0.0,0.0,0.25,0.0,0.0,0.0,0.0,0.0,0.0,0.0,0.0,0.25,-0.92,-0.05,-0.11,11.62,1.8,-25.2,0.0,0.0,0.5,0.5,0.0,0.0,0.0,0.25,0.0,0.25,0.25,0.0,0.5,-0.05,-0.61,0.58,43.2,-7.0,-18.1
3.5,0.0,0.0,0.0,0.25,0.0,0.0,0.0,0.0,0.0,0.0,0.0,0.0,0.25,-0.8,0.02,-0.11,10.02,1.8,-25.2,0.0,0.0,0.5,0.5,0.0,0.0,0.0,0.25,0.0,0.25,0.0,0.0,0.75,0.08,-0.48,0.45,38.54,-4.3,-22.3
3.52,0.0,0.0,0.0,0.5,0.0,0.0,0.0,0.0,0.0,0.0,0.0,0.0,0.25,-0.8,0.02,-0.11,10.49,7.0,2.6,0.0,0.0,0.5,0.5,0.0,0.0,0.0,0.75,0.0,0.25,0.0,0.0,0.75,0.02,-0.42,0.45,37.66,-0.5,-25.2
3.54,0.0,0.0,0.0,0.5,0.0,0.0,0.0,0.0,0.0,0.0,0.0,0.0,0.25,-0.8,0.08,-0.17,11.64,7.0,2.6,0.0,0.0,0.5,0.75,0.0,0.0,0.25,0.25,0.0,0.25,0.0,0.0,0.75,-0.11,-0.48,0.52,37.75,-6.8,-12.3
3.56,0.0,0.0,0.0,0.5,0.0,0.0,0.0,0.0,0.0,0.0,0.0,0.0,0.25,-0.98,0.14,-0.17,12.62,7.0,2.6,0.0,0.0,0.5,0.5,0.25,0.0,0.0,0.75,0.25,0.75,0.0,0.0,0.5,-0.23,-0.61,0.52,44.41,0.1,-20.7
3.58,0.0,0.0,0.0,0.25,0.0,0.0,0.0,0.0,0.0,0.0,0.0,0.0,0.25,-1.11,0.14,-0.17,11.59,1.8,-25.2,0.0,0.0,0.75,0.5,0.0,0.0,0.0,0.75,0.0,0.25,0.0,0.0,0.75,-0.23,-0.67,0.52,47.19,-3.7,-18.0
3.6,0.0,0.0,0.0,0.25,0.0,0.0,0.0,0.0,0.0,0.0,0.0,0.0,0.25,-1.11,0.08,-0.17,10.27,1.8,-25.2,0.0,0.0,0.5,0.5,0.0,0.0,0.0,0.75,0.0,0.5,0.0,0.0,0.5,-0.17,-0.86,0.52,46.92,-0.4,-22.0
3.62,0.0,0.0,0.0,0.25,0.0,0.0,0.0,0.0,0.0,0.0,0.0,0.0,0.25,-1.05,0.08,-0.17,8.68,1.8,-25.2,0.0,0.0,0.5,0.5,0.0,0.0,0.0,0.5,0.0,0.25,0.0,0.0,0.75,-0.17,-0.86,0.58,43.68,-2.2,-23.9
3.64,0.0,0.0,0.0,0.25,0.0,0.0,0.0,0.0,0.0,0.0,0.0,0.0,0.25,-1.05,0.08,-0.11,7.61,1.8,-25.2,0.0,0.0,0.75,0.5,0.0,0.0,0.0,0.5,0.0,0.25,0.0,0.0,0.5,-0.11,-0.8,0.64,41.72,-7.5,-6.7
3.66,0.0,0.0,0.0,0.25,0.0,0.0,0.0,0.0,0.0,0.0,0.0,0.0,0.25,-0.98,0.08,-0.05,7.4,1.8,-25.2,0.0,0.0,0.75,0.5,0.0,0.0,0.0,0.5,0.0,0.5,0.25,0.0,0.75,-0.05,-0.73,0.64,42.99,-4.3,-25.0
3.68,0.0,0.0,0.0,0.25,0.0,0.0,0.0,0.0,0.0,0.0,0.0,0.0,0.25,-0.92,0.02,0.02,7.49,1.8,-25.2,0.0,0.0,0.5,0.25,0.0,0.0,0.0,0.5,0.0,0.25,0.0,0.0,0.5,-0.11,-0.73,0.83,40.48,-2.3,-23.6
3.7,0.0,0.0,0.0,0.0,0.0,0.0,0.0,0.0,0.0,0.0,0.0,0.0,0.25,-0.8,0.02,0.02,6.49,-13.7,-109.8,0.0,0.0,0.75,0.5,0.0,0.0,0.0,0.25,0.0,0.25,0.0,0.0,0.5,-0.05,-0.8,0.77,39.69,-10.1,-3.3
3.72,0.0,0.0,0.0,0.5,0.0,0.0,0.0,0.0,0.0,0.0,0.0,0.0,0.25,-1.05,0.02,-0.05,8.29,7.0,2.6,0.0,0.0,0.5,0.25,0.0,0.0,0.0,0.5,0.0,0.25,0.0,0.0,0.25,0.02,-0.8,0.7,33.89,-4.6,-11.2
3.74,0.0,0.0,0.0,0.25,0.0,0.0,0.0,0.0,0.0,0.0,0.0,0.0,0.0,-1.17,0.08,-0.11,6.91,17.2,57.9,0.0,0.0,0.5,0.5,0.0,0.0,0.0,0.5,0.0,0.25,0.25,0.0,0.5,0.02,-0.8,0.7,33.92,-4.7,-20.1
3.76,0.0,0.0,0.0,0.25,0.0,0.0,0.0,0.0,0.0,0.0,0.0,0.0,0.5,-0.73,0.14,-0.05,8.91,-3.2,-53.2,0.0,0.0,0.5,0.5,0.0,0.0,0.0,0.0,0.0,0.25,0.0,0.0,0.5,0.02,-0.73,0.77,29.97,-9.8,-7.6
3.78,0.0,0.0,0.0,0.25,0.0,0.0,0.0,0.0,0.0,0.0,0.0,0.0,0.0,-0.92,0.14,-0.05,7.41,17.2,57.9,0.0,0.0,0.5,0.75,0.0,0.0,0.0,0.5,0.0,0.25,0.0,0.0,1.0,-0.05,-0.67,0.77,35.35,-2.2,-24.1
3.8,0.0,0.0,0.0,0.25,0.0,0.0,0.0,0.0,0.0,0.25,0.0,0.0,0.0,-1.05,0.2,-0.11,8.05,1.1,-7.2,0.0,0.0,0.5,0.5,0.0,0.0,0.0,0.5,0.0,0.25,0.0,0.0,0.75,-0.05,-0.61,0.7,36.31,-2.2,-23.9
3.82,0.0,0.0,0.0,0.25,0.0,0.0,0.0,0.0,0.0,0.0,0.0,0.0,0.0,-1.11,0.27,-0.11,6.39,17.2,57.9,0.0,0.0,0.5,0.5,0.0,0.0,0.0,0.25,0.0,0.25,0.0,0.0,0.25,-0.05,-0.61,0.7,35.54,-9.5,2.7
3.84,0.0,0.0,0.0,0.5,0.0,0.0,0.0,0.0,0.0,0.0,0.0,0.0,0.0,-1.11,0.27,-0.11,7.31,17.2,57.9,0.0,0.0,1.5,0.5,0.25,0.0,0.0,0.25,0.0,0.75,0.0,0.0,0.75,-0.05,-0.61,0.7,44.94,-9.8,-2.7
3.86,0.0,0.0,0.0,0.25,0.0,0.0,0.0,0.0,0.0,0.0,0.0,0.0,0.0,-1.11,0.27,-0.11,6.11,17.2,57.9,0.0,0.0,0.5,0.75,0.0,0.0,0.0,0.5,0.0,0.25,0.0,0.0,0.5,-0.05,-0.61,0.64,45.41,-5.4,-6.9
3.88,0.0,0.0,0.0,0.25,0.0,0.0,0.0,0.0,0.0,0.0,0.0,0.0,0.25,-1.05,0.27,-0.11,6.86,1.8,-25.2,0.0,0.0,0.5,0.5,0.0,0.0,0.25,0.5,0.0,0.25,0.0,0.0,0.75,0.02,-0.67,0.7,46.56,-3.6,-21.6
3.9,0.0,0.0,0.0,0.5,0.0,0.0,0.0,0.0,0.0,0.0,0.0,0.0,0.0,-0.98,0.27,-0.11,7.49,17.2,57.9,0.0,0.0,0.5,0.5,0.0,0.0,0.0,0.5,0.0,0.5,0.0,0.0,0.0,0.02,-0.67,0.77,41.31,-6.1,2.2
3.92,0.0,0.0,0.0,0.25,0.0,0.0,0.0,0.0,0.0,0.0,0.0,0.0,0.0,-0.98,0.27,-0.05,6.86,17.2,57.9,0.0,0.0,0.5,0.5,0.0,0.0,0.0,0.0,0.25,0.25,0.0,0.0,0.25,0.08,-0.73,0.77,37.57,-13.5,2.8
3.94,0.0,0.0,0.0,0.25,0.0,0.0,0.0,0.0,0.0,0.0,0.0,0.0,0.0,-0.98,0.27,-0.05,5.92,17.2,57.9,0.0,0.0,0.5,0.5,0.0,0.0,0.0,0.25,0.0,0.25,0.0,0.0,0.75,0.08,-0.73,0.77,33.99,-4.3,-22.3
3.96,0.0,0.0,0.0,0.25,0.0,0.0,0.0,0.0,0.0,0.0,0.0,0.0,0.0,-0.98,0.33,-0.05,4.75,17.2,57.9,0.0,0.0,0.5,0.5,0.0,0.0,0.0,0.5,0.0,0.25,0.0,0.0,0.5,0.08,-0.73,0.7,33.91,-4.0,-14.3
3.98,0.0,0.0,0.0,0.25,0.0,0.0,0.0,0.0,0.0,0.0,0.0,0.0,0.0,-0.98,0.33,-0.05,4.51,17.2,57.9,0.0,0.0,0.5,0.5,0.0,0.0,0.0,0.5,0.0,0.25,0.0,0.0,0.5,0.14,-0.67,0.7,34.38,-4.0,-14.3
4.0,0.0,0.0,0.0,0.25,0.0,0.0,0.0,0.0,0.0,0.0,0.0,0.0,0.25,-0.98,0.33,-0.05,5.14,1.8,-25.2,0.0,0.0,0.5,0.5,0.0,0.0,0.0,0.5,0.0,0.25,0.0,0.0,0.75,0.14,-0.67,0.7,35.98,-2.2,-23.9
4.02,0.0,0.0,0.0,0.25,0.0,0.0,0.0,0.0,0.0,0.0,0.0,0.0,0.0,-1.05,0.33,-0.05,5.47,17.2,57.9,0.0,0.0,0.5,0.5,0.0,0.0,0.0,0.25,0.0,0.25,0.0,0.0,0.75,0.08,-0.61,0.7,35.42,-4.3,-22.3
4.04,0.0,0.0,0.0,0.25,0.0,0.0,0.0,0.0,0.0,0.0,0.0,0.0,0.0,-1.05,0.33,-0.05,5.24,17.2,57.9,0.0,0.0,0.5,0.5,0.0,0.0,0.0,0.25,0.0,0.25,0.0,0.0,0.5,0.08,-0.61,0.64,34.35,-6.5,-11.4
4.06,0.0,0.0,0.0,0.25,0.0,0.0,0.0,0.0,0.0,0.0,0.0,0.0,0.0,-1.05,0.33,-0.05,4.76,17.2,57.9,0.0,0.0,0.5,0.5,0.0,0.0,0.0,0.25,0.0,0.5,0.0,0.0,0.5,0.08,-0.61,0.64,33.81,-4.1,-18.3
4.08,0.0,0.0,0.0,0.25,0.0,0.0,0.0,0.0,0.0,0.0,0.0,0.0,0.0,-1.05,0.33,-0.05,4.38,17.2,57.9,0.0,0.0,0.5,0.5,0.0,0.0,0.0,0.0,0.0,0.25,0.0,0.0,0.5,0.08,-0.61,0.64,30.5,-9.8,-7.6
4.1,0.0,0.0,0.0,0.25,0.0,0.0,0.0,0.0,0.0,0.0,0.0,0.0,0.0,-0.98,0.33,-0.05,4.32,17.2,57.9,0.0,0.0,0.5,0.5,0.0,0.0,0.0,0.25,0.0,0.25,0.0,0.0,0.25,0.14,-0.61,0.7,30.34,-9.5,2.7
4.12,0.0,0.0,0.0,0.25,0.0,0.0,0.0,0.0,0.0,0.0,0.0,0.0,0.0,-0.98,0.33,-0.05,4.24,17.2,57.9,0.0,0.0,0.5,0.5,0.0,0.0,0.25,0.25,0.0,0.25,0.0,0.0,0.5,0.14,-0.67,0.7,30.76,-8.0,-9.2
4.14,0.0,0.0,0.0,0.25,0.0,0.0,0.0,0.0,0.0,0.0,0.0,0.0,0.0,-0.98,0.33,-0.05,4.4,17.2,57.9,0.0,0.0,1.0,0.5,0.0,0.0,0.0,0.75,0.0,0.25,0.0,0.0,0.75,0.08,-0.67,0.7,38.36,-6.4,-11.9
4.16,0.0,0.0,0.0,0.25,0.0,0.0,0.0,0.0,0.0,0.0,0.0,0.0,0.0,-0.98,0.33,-0.05,4.61,17.2,57.9,0.0,0.0,0.5,0.5,0.0,0.0,0.0,0.5,0.0,0.25,0.0,0.0,0.75,0.08,-0.67,0.7,40.59,-2.2,-23.9
4.18,0.0,0.0,0.0,0.0,0.0,0.0,0.0,0.0,0.0,0.0,0.0,0.0,0.0,-0.98,0.33,-0.05,2.94,0.0,0.0,0.0,0.0,0.5,0.5,0.0,0.0,0.0,0.25,0.0,0.25,0.0,0.0,0.5,0.08,-0.67,0.7,39.72,-6.5,-11.4
4.2,0.0,0.0,0.0,0.5,0.0,0.0,0.0,0.0,0.0,0.0,0.0,0.0,0.25,-0.92,0.33,0.02,5.86,7.0,2.6,0.0,0.0,0.5,0.5,0.0,0.0,0.0,0.5,0.0,0.25,0.0,0.0,0.5,0.08,-0.67,0.7,38.02,-4.0,-14.3
4.22,0.0,0.0,0.0,0.25,0.0,0.0,0.0,0.0,0.0,0.0,0.0,0.0,0.0,-0.98,0.33,0.02,5.74,17.2,57.9,0.0,0.0,0.5,0.5,0.0,0.0,0.25,0.0,0.0,0.25,0.0,0.0,0.5,0.08,-0.67,0.64,34.69,-11.2,-5.4
4.24,0.0,0.0,0.0,0.25,0.0,0.0,0.0,0.0,0.0,0.0,0.0,0.0,0.25,-0.98,0.33,-0.05,7.39,1.8,-25.2,0.0,0.0,0.5,0.5,0.0,0.0,0.0,0.0,0.0,0.25,0.0,0.0,0.5,0.08,-0.67,0.7,31.51,-9.8,-7.6
4.26,0.0,0.0,0.0,0.25,0.0,0.0,0.0,0.0,0.0,0.0,0.0,0.0,0.0,-0.92,0.33,-0.05,6.65,17.2,57.9,0.0,0.0,0.5,0.5,0.0,0.0,0.0,0.25,0.0,0.25,0.0,0.0,0.5,0.08,-0.67,0.7,31.02,-6.5,-11.4
4.28,0.0,0.0,0.0,0.25,0.0,0.0,0.0,0.0,0.0,0.0,0.0,0.0,0.0,-0.92,0.33,-0.05,6.31,17.2,57.9,0.0,0.0,0.5,0.5,0.0,0.0,0.0,0.5,0.0,0.25,0.0,0.0,0.75,0.08,-0.67,0.7,33.74,-2.2,-23.9
4.3,0.0,0.0,0.0,0.25,0.0,0.0,0.0,0.0,0.0,0.0,0.0,0.0,0.0,-0.98,0.33,-0.05,5.19,17.2,57.9,0.0,0.0,0.5,0.5,0.0,0.0,0.0,0.0,0.0,0.25,0.0,0.0,0.5,0.08,-0.67,0.7,32.31,-9.8,-7.6
4.32,0.0,0.0,0.0,0.25,0.0,0.0,0.0,0.0,0.0,0.0,0.0,0.0,0.0,-0.98,0.33,-0.05,4.94,17.2,57.9,0.0,0.0,0.5,0.5,0.0,0.0,0.0,0.0,0.0,0.5,0.0,0.0,0.25,0.14,-0.67,0.7,31.3,-9.6,-2.4
4.34,0.0,0.0,0.0,0.0,0.0,0.0,0.0,0.0,0.0,0.0,0.0,0.0,0.0,-0.98,0.33,-0.05,3.14,0.0,0.0,0.0,0.0,1.0,0.5,0.0,0.0,0.0,0.0,0.0,0.25,0.0,0.0,0.5,0.14,-0.67,0.7,32.07,-16.1,7.6
4.36,0.0,0.0,0.0,0.5,0.0,0.0,0.0,0.0,0.0,0.0,0.0,0.0,0.0,-0.92,0.33,-0.05,4.77,17.2,57.9,0.0,0.0,0.75,0.5,0.0,0.0,0.0,0.25,0.0,0.25,0.0,0.0,0.5,0.14,-0.67,0.7,33.06,-10.1,-3.3
4.38,0.0,0.0,0.0,0.25,0.0,0.0,0.0,0.0,0.0,0.0,0.0,0.0,0.0,-0.98,0.33,-0.05,4.74,17.2,57.9,0.0,0.0,0.5,0.5,0.0,0.0,0.0,0.25,0.0,0.25,0.0,0.0,0.0,0.08,-0.67,0.7,30.63,-13.3,21.5
4.4,0.0,0.0,0.0,0.0,0.0,0.0,0.0,0.0,0.0,0.0,0.0,0.0,0.0,-0.98,0.33,-0.05,3.59,0.0,0.0,0.0,0.0,0.5,0.5,0.0,0.0,0.0,0.0,0.0,0.25,0.0,0.0,0.75,0.08,-0.67,0.7,31.47,-6.8,-20.3
4.42,0.0,0.0,0.0,0.0,0.0,0.0,0.0,0.0,0.0,0.0,0.0,0.0,0.0,-0.98,0.33,0.02,1.65,0.0,0.0,0.0,0.0,0.5,0.5,0.0,0.0,0.0,0.5,0.0,0.75,0.0,0.0,0.5,0.08,-0.67,0.7,34.99,-0.5,-25.2
4.44,0.0,0.0,0.0,0.0,0.0,0.0,0.0,0.0,0.0,0.0,0.0,0.0,0.0,-0.92,0.33,0.02,0.0,0.0,0.0,0.0,0.0,0.5,0.5,0.0,0.0,0.0,0.0,0.0,0.5,0.0,0.0,0.5,0.08,-0.67,0.7,34.8,-6.7,-15.8
4.46,0.0,0.0,0.0,0.0,0.0,0.0,0.0,0.0,0.0,0.0,0.0,0.0,0.0,-0.98,0.33,0.02,0.0,0.0,0.0,0.0,0.0,0.5,0.5,0.0,0.0,0.0,0.25,0.0,0.75,0.0,0.0,0.5,0.08,-0.67,0.7,37.45,-2.2,-23.9
4.48,0.0,0.0,0.0,0.0,0.0,0.0,0.0,0.0,0.0,0.0,0.0,0.0,0.0,-0.98,0.33,0.02,0.0,0.0,0.0,0.0,0.0,0.5,0.5,0.0,0.0,0.0,0.5,0.0,0.25,0.0,0.0,0.5,0.08,-0.67,0.64,37.48,-4.0,-14.3
4.5,0.0,0.0,0.0,0.25,0.0,0.0,0.0,0.25,0.0,0.0,0.0,0.0,0.0,-0.98,0.33,0.02,2.13,0.6,10.6,0.0,0.0,0.5,0.5,0.0,0.0,0.0,0.0,0.0,0.25,0.0,0.0,0.5,0.08,-0.67,0.7,34.88,-9.8,-7.6
4.52,0.0,0.0,0.0,0.25,0.0,0.0,0.0,0.0,0.0,0.0,0.0,0.0,0.0,-0.98,0.33,0.02,3.51,17.2,57.9,0.0,0.0,1.0,0.5,0.0,0.0,0.0,0.0,0.0,0.25,0.0,0.0,0.75,0.14,-0.67,0.7,35.92,-13.1,-4.1
4.54,0.0,0.0,0.0,0.25,0.0,0.0,0.0,0.0,0.0,0.0,0.0,0.0,0.0,-0.98,0.33,0.02,4.82,17.2,57.9,0.0,0.0,0.5,0.5,0.0,0.0,0.0,0.25,0.0,0.25,0.0,0.0,0.5,0.14,-0.67,0.64,35.27,-6.5,-11.4
4.56,0.0,0.0,0.0,0.25,0.0,0.0,0.0,0.25,0.0,0.0,0.0,0.0,0.0,-0.98,0.33,0.02,6.37,0.6,10.6,0.0,0.0,0.5,0.5,0.0,0.0,0.0,0.25,0.0,0.25,0.0,0.0,0.75,0.14,-0.67,0.64,35.77,-4.3,-22.3
4.58,0.0,0.0,0.0,0.25,0.0,0.0,0.0,0.25,0.0,0.0,0.0,0.0,0.0,-0.98,0.33,0.02,7.8,0.6,10.6,0.0,0.0,0.5,0.5,0.0,0.0,0.0,0.25,0.0,0.25,0.0,0.0,0.5,0.14,-0.67,0.64,33.96,-6.5,-11.4
4.6,0.25,0.0,0.0,0.25,0.0,0.0,0.0,0.0,0.0,0.0,0.0,0.0,0.0,-0.98,0.33,0.02,8.73,25.5,76.7,0.0,0.0,0.5,0.5,0.25,0.0,0.0,0.25,0.0,0.25,0.0,0.0,0.5,0.14,-0.61,0.64,35.48,-5.3,-3.3
4.62,0.75,0.0,0.0,0.25,0.0,0.0,0.0,0.5,0.0,0.0,0.0,0.0,0.0,-0.98,0.33,0.02,15.7,14.1,44.0,0.0,0.0,0.5,0.5,0.0,0.0,0.0,0.25,0.0,0.5,0.0,0.0,0.5,0.14,-0.61,0.64,35.52,-4.1,-18.3
4.64,0.25,0.0,0.0,0.25,0.0,0.0,0.0,0.0,0.0,0.0,0.0,0.0,0.0,-0.98,0.33,0.02,16.03,25.5,76.7,0.0,0.0,0.25,0.5,0.0,0.0,0.0,0.25,0.0,0.25,0.0,0.0,0.75,0.14,-0.67,0.64,34.3,0.0,-32.8
4.66,0.0,0.0,0.0,0.0,0.0,0.0,0.0,0.0,0.0,0.0,0.0,0.0,0.0,-0.98,0.33,0.02,12.4,0.0,0.0,0.0,0.0,0.5,0.5,0.0,0.0,0.0,0.0,0.0,0.75,0.0,0.0,0.75,0.14,-0.67,0.64,35.6,-2.4,-31.1
4.68,0.0,0.0,0.0,0.25,0.0,0.0,0.0,0.0,0.0,0.0,0.0,0.0,0.0,-0.98,0.33,0.02,8.52,17.2,57.9,0.0,0.0,0.25,0.25,0.0,0.0,0.0,0.5,0.0,0.25,0.0,0.0,0.5,0.14,-0.67,0.7,33.46,2.8,-35.8
4.7,0.0,0.0,0.0,0.0,0.0,0.0,0.0,0.0,0.0,0.0,0.0,0.0,0.0,-0.98,0.33,0.02,4.23,0.0,0.0,0.0,0.0,0.5,0.5,0.0,0.0,0.0,0.5,0.0,0.25,0.0,0.0,0.5,0.14,-0.67,0.7,33.92,-4.0,-14.3
4.72,0.0,0.0,0.0,0.25,0.0,0.0,0.0,0.25,0.0,0.0,0.0,0.0,0.0,-0.98,0.33,0.02,4.14,0.6,10.6,0.0,0.0,0.5,0.5,0.0,0.0,0.25,0.5,0.0,0.25,0.0,0.0,0.5,0.14,-0.67,0.7,34.86,-5.4,-12.3
4.74,0.0,0.0,0.0,0.25,0.0,0.0,0.0,0.0,0.0,0.0,0.0,0.0,0.0,-0.98,0.33,0.02,3.74,17.2,57.9,0.0,0.0,0.5,0.25,0.0,0.0,0.0,0.0,0.0,0.5,0.0,0.0,0.5,0.14,-0.67,0.7,33.22,-5.1,-26.6
4.76,0.0,0.0,0.0,0.25,0.0,0.0,0.0,0.0,0.0,0.0,0.0,0.0,0.0,-0.98,0.33,0.02,4.76,17.2,57.9,0.0,0.0,0.5,0.5,0.0,0.0,0.0,0.5,0.0,0.25,0.0,0.0,0.25,0.14,-0.67,0.7,32.11,-6.2,-2.3
4.78,0.0,0.0,0.0,0.0,0.0,0.0,0.0,0.5,0.0,0.0,0.0,0.0,0.0,-0.98,0.33,0.02,5.18,-16.7,-38.7,0.0,0.0,0.5,0.5,0.0,0.0,0.0,0.0,0.0,0.25,0.0,0.0,0.5,0.14,-0.67,0.7,30.48,-9.8,-7.6
4.8,0.0,0.0,0.0,0.25,0.0,0.0,0.0,0.0,0.0,0.0,0.0,0.0,0.0,-0.98,0.33,0.02,4.74,17.2,57.9,0.0,0.0,0.5,0.5,0.0,0.0,0.0,0.25,0.0,0.25,0.0,0.0,0.75,0.14,-0.67,0.7,31.63,-4.3,-22.3
4.82,0.0,0.0,0.0,0.0,0.0,0.0,0.0,0.0,0.25,0.0,0.0,0.0,0.0,-0.98,0.33,0.02,4.11,12.1,-38.5,0.0,0.0,0.5,0.5,0.0,0.0,0.0,0.0,0.0,0.25,0.0,0.0,0.5,0.14,-0.67,0.7,30.2,-9.8,-7.6
4.84,0.0,0.0,0.0,0.0,0.0,0.0,0.0,0.0,0.0,0.0,0.0,0.0,0.0,-0.98,0.33,0.02,1.97,0.0,0.0,0.0,0.0,0.5,0.5,0.0,0.0,0.0,0.0,0.0,0.25,0.0,0.0,0.75,0.14,-0.67,0.7,30.9,-6.8,-20.3
4.86,0.0,0.0,0.0,0.0,0.0,0.0,0.0,0.0,0.0,0.0,0.0,0.0,0.0,-0.98,0.33,0.02,0.37,0.0,0.0,0.0,0.0,1.5,0.25,0.0,0.0,0.0,0.25,0.0,0.25,0.0,0.0,0.75,0.14,-0.67,0.64,36.73,-14.6,-1.3
4.88,0.0,0.0,0.0,0.0,0.0,0.0,0.0,0.0,0.0,0.0,0.0,0.0,0.0,-0.98,0.33,0.02,0.04,0.0,0.0,0.0,0.0,0.75,0.5,0.0,0.0,0.0,0.0,0.0,0.5,0.0,0.0,0.5,0.14,-0.67,0.64,38.41,-10.2,-7.3
4.9,0.0,0.0,0.0,0.25,0.0,0.0,0.0,0.0,0.0,0.0,0.0,0.0,0.0,-0.92,0.33,0.02,1.36,17.2,57.9,0.0,0.0,0.5,0.5,0.0,0.0,0.0,0.75,0.0,0.25,0.0,0.0,0.75,0.14,-0.67,0.64,41.63,-0.5,-25.2
4.92,0.0,0.0,0.0,0.0,0.0,0.0,0.0,0.5,0.0,0.0,0.0,0.0,0.0,-0.92,0.33,0.02,3.48,-16.7,-38.7,0.0,0.0,0.5,0.25,0.0,0.0,0.0,0.0,0.0,0.25,0.0,0.0,0.5,0.14,-0.67,0.64,36.65,-8.5,-18.7
4.94,0.0,0.0,0.0,0.25,0.0,0.0,0.0,0.75,0.0,0.0,0.0,0.0,0.0,-0.92,0.33,0.02,8.72,-7.9,-13.7,0.0,0.0,0.5,0.5,0.0,0.0,0.0,0.0,0.0,0.25,0.0,0.0,0.25,0.14,-0.67,0.64,32.06,-13.7,9.4
4.96,0.25,0.0,0.0,0.25,0.0,0.0,0.0,0.5,0.0,0.0,0.0,0.0,0.0,-0.98,0.33,0.02,12.88,4.3,18.7,0.0,0.0,0.5,0.5,0.0,0.0,0.0,0.25,0.0,0.25,0.0,0.0,0.5,0.14,-0.67,0.64,29.45,-6.5,-11.4
4.98,0.0,0.0,0.0,0.25,0.0,0.0,0.0,0.75,0.0,0.0,0.0,0.0,0.0,-0.98,0.33,0.02,16.3,-7.9,-13.7,0.0,0.0,0.5,0.5,0.0,0.0,0.0,0.0,0.0,0.0,0.0,0.0,0.5,0.14,-0.67,0.64,27.69,-13.9,3.3
5.0,0.25,0.0,0.0,1.0,0.0,0.0,0.0,0.5,0.0,0.0,0.0,0.0,0.0,-0.98,0.33,0.02,22.82,9.9,36.0,0.0,0.0,0.5,0.5,0.0,0.0,0.0,0.0,0.0,0.0,0.0,0.0,0.5,0.14,-0.67,0.64,25.98,-13.9,3.3
5.02,0.0,0.0,0.0,0.0,0.0,0.0,0.0,0.5,0.0,0.0,0.0,0.0,0.0,-0.92,0.33,0.02,20.31,-16.7,-38.7,0.0,0.0,0.25,0.0,0.0,0.0,0.0,0.0,0.0,0.25,0.5,0.0,0.5,0.14,-0.67,0.64,24.86,-2.7,-63.9
5.04,0.0,0.0,0.0,0.25,0.0,0.0,0.0,0.75,0.0,0.0,0.0,0.0,0.0,-0.92,0.33,0.02,20.49,-7.9,-13.7,0.0,0.0,0.5,0.5,0.0,0.0,0.0,0.0,0.0,0.25,0.0,0.0,0.0,0.14,-0.67,0.64,22.7,-19.2,33.2
5.06,0.0,0.0,0.0,0.0,0.0,0.0,0.0,0.5,0.0,0.0,0.0,0.0,0.0,-0.98,0.33,0.02,15.85,-16.7,-38.7,0.0,0.0,0.5,0.25,0.0,0.0,0.0,0.0,0.0,0.25,0.0,0.0,0.75,0.2,-0.67,0.64,23.04,-5.3,-31.7
5.08,0.0,0.0,0.0,0.25,0.0,0.0,0.0,0.25,0.0,0.0,0.0,0.0,0.0,-0.98,0.33,0.02,13.56,0.6,10.6,0.0,0.0,0.5,0.25,0.0,0.0,0.0,0.25,0.0,0.25,0.0,0.0,0.25,0.2,-0.67,0.64,22.36,-8.1,-6.7
5.1,0.0,0.0,0.0,0.0,0.0,0.0,0.0,0.75,0.0,0.0,0.0,0.0,0.0,-0.98,0.33,0.02,11.61,-16.7,-38.8,0.0,0.0,0.5,0.25,0.0,0.0,0.0,0.25,0.0,0.25,0.5,0.0,0.5,0.2,-0.67,0.64,26.24,-6.2,-33.0
5.12,0.5,0.0,0.0,0.0,0.0,0.0,0.0,0.75,0.0,0.0,0.0,0.0,0.0,-0.98,0.33,0.02,14.52,3.0,13.6,0.0,0.0,0.5,0.5,0.25,0.0,0.0,0.25,0.0,0.25,0.0,0.0,0.5,0.2,-0.67,0.64,31.05,-5.3,-3.3
5.14,0.5,0.0,0.0,0.25,0.0,0.0,0.0,1.0,0.0,0.0,0.0,0.0,0.0,-0.98,0.33,0.02,19.83,2.3,12.7,0.0,0.0,0.0,0.25,0.0,0.0,0.0,0.25,0.0,0.25,0.0,0.0,0.5,0.2,-0.67,0.64,29.71,8.3,-54.8
5.16,0.5,0.0,0.0,0.0,0.0,0.0,0.0,0.75,0.0,0.0,0.0,0.0,0.0,-0.98,0.33,0.02,21.71,3.0,13.6,0.0,0.0,0.5,0.25,0.0,0.0,0.0,0.25,0.0,0.25,0.0,0.0,0.5,0.2,-0.67,0.64,29.74,-5.0,-21.5
5.18,0.25,0.0,0.0,0.25,0.0,0.0,0.0,0.75,0.0,0.0,0.0,0.0,0.0,-0.92,0.33,0.02,22.59,0.0,7.1,0.0,0.0,0.75,0.5,0.0,0.0,0.0,0.25,0.0,0.25,0.0,0.0,0.5,0.2,-0.67,0.64,31.16,-10.1,-3.3
5.2,0.0,0.0,0.0,0.5,0.0,0.0,0.0,0.25,0.0,0.0,0.0,0.0,0.0,-0.92,0.33,0.02,19.44,6.2,26.6,0.0,0.0,0.5,0.0,0.0,0.0,0.0,0.25,0.0,0.25,0.5,0.0,0.75,0.14,-0.67,0.64,33.92,-2.7,-52.2
5.22,0.0,0.0,0.0,0.25,0.0,0.0,0.0,0.0,0.0,0.0,0.0,0.0,0.0,-0.98,0.33,0.02,13.73,17.2,57.9,0.0,0.0,0.5,0.5,0.0,0.0,0.0,0.0,0.0,0.25,0.0,0.0,0.5,0.2,-0.67,0.64,33.92,-9.8,-7.6
5.24,0.0,0.0,0.0,0.25,0.0,0.0,0.0,0.0,0.0,0.0,0.0,0.0,0.0,-0.98,0.33,0.02,8.39,17.2,57.9,0.0,0.0,1.0,0.25,0.0,0.0,0.0,0.0,0.0,0.25,0.0,0.0,0.75,0.2,-0.67,0.64,35.81,-12.7,-11.1
5.26,0.0,0.0,0.0,0.25,0.0,0.0,0.0,0.0,0.0,0.0,0.0,0.0,0.0,-0.98,0.33,0.02,5.97,17.2,57.9,0.0,0.0,0.25,0.25,0.0,0.0,0.0,0.25,0.0,0.25,0.0,0.0,0.5,0.2,-0.67,0.64,32.04,0.5,-35.3
5.28,0.5,0.0,0.0,0.25,0.0,0.0,0.0,0.0,0.0,0.0,0.0,0.0,0.0,-0.98,0.33,0.02,6.86,28.6,83.5,0.0,0.0,0.5,0.25,0.0,0.0,0.0,0.0,0.0,0.25,0.0,0.0,0.5,0.2,-0.67,0.64,28.8,-8.5,-18.7
5.3,0.5,0.0,0.0,0.25,0.0,0.0,0.0,0.0,0.0,0.0,0.0,0.0,0.0,-0.98,0.33,0.02,8.99,28.6,83.5,0.0,0.0,0.5,0.5,0.0,0.0,0.0,0.25,0.0,0.25,0.0,0.0,0.5,0.2,-0.67,0.64,28.16,-6.5,-11.4
5.32,0.25,0.0,0.0,0.25,0.0,0.0,0.0,0.0,0.0,0.0,0.0,0.0,0.0,-0.92,0.33,0.02,9.47,25.5,76.7,0.0,0.0,0.25,0.25,0.0,0.0,0.0,0.0,0.0,0.25,0.0,0.0,0.75,0.2,-0.67,0.64,26.96,0.0,-47.2
5.34,0.5,0.0,0.0,0.25,0.0,0.0,0.0,0.0,0.0,0.0,0.0,0.0,0.0,-0.92,0.33,0.02,10.18,28.6,83.5,0.0,0.0,0.5,0.5,0.0,0.0,0.0,0.25,0.0,0.25,0.0,0.0,0.75,0.2,-0.67,0.64,29.37,-4.3,-22.3
5.36,0.5,0.0,0.0,0.25,0.0,0.0,0.0,0.0,0.0,0.0,0.0,0.0,0.0,-0.98,0.39,0.02,10.52,28.6,83.5,0.0,0.0,0.5,0.5,0.0,0.0,0.0,0.0,0.0,0.25,0.0,0.0,0.25,0.2,-0.67,0.64,28.38,-13.7,9.4
5.38,1.0,0.0,0.0,0.25,0.0,0.0,0.0,0.0,0.0,0.0,0.0,0.0,0.0,-0.98,0.33,0.02,14.52,31.0,89.1,0.0,0.0,0.5,0.0,0.0,0.0,0.0,0.0,0.0,0.25,0.0,0.0,0.5,0.2,-0.67,0.64,26.36,-6.8,-34.4
5.4,0.5,0.0,0.0,0.25,0.0,0.0,0.0,0.0,0.0,0.0,0.0,0.0,0.0,-0.98,0.39,0.02,15.66,28.6,83.5,0.0,0.0,0.5,0.25,0.0,0.0,0.0,0.0,0.0,0.25,0.0,0.0,0.5,0.2,-0.67,0.64,23.23,-8.5,-18.7
5.42,0.5,0.0,0.0,0.0,0.0,0.0,0.0,0.0,0.0,0.0,0.0,0.0,0.0,-0.98,0.39,0.02,14.84,34.9,97.9,0.0,0.0,0.5,0.5,0.0,0.0,0.0,0.0,0.0,0.5,0.0,0.0,0.75,0.2,-0.67,0.64,25.98,-4.4,-26.3
5.44,0.75,0.0,0.0,0.25,0.0,0.0,0.0,0.0,0.0,0.0,0.0,0.0,0.0,-0.98,0.39,0.02,15.85,30.1,87.0,0.0,0.0,0.5,0.5,0.0,0.0,0.0,0.25,0.0,0.5,0.0,0.0,0.5,0.2,-0.67,0.64,29.89,-4.1,-18.3
5.46,0.5,0.0,0.0,0.25,0.0,0.0,0.0,0.0,0.0,0.0,0.0,0.0,0.0,-0.92,0.39,0.02,15.45,28.6,83.5,0.0,0.0,0.5,0.25,0.0,0.0,0.0,0.0,0.0,0.25,0.0,0.0,0.75,0.2,-0.67,0.64,31.33,-5.3,-31.7
5.48,0.5,0.0,0.0,0.25,0.0,0.0,0.0,0.25,0.0,0.0,0.0,0.0,0.0,-0.92,0.33,0.02,16.43,17.0,52.2,0.0,0.0,0.5,0.25,0.0,0.0,0.0,0.0,0.0,0.25,0.0,0.0,0.5,0.2,-0.67,0.64,29.58,-8.5,-18.7
5.5,0.5,0.0,0.0,0.25,0.0,0.0,0.0,0.0,0.0,0.0,0.0,0.25,0.0,-0.92,0.39,0.02,16.78,23.5,34.3,0.0,0.0,0.25,0.5,0.0,0.0,0.0,0.0,0.0,0.25,0.0,0.0,0.25,0.2,-0.67,0.64,26.14,-8.8,-0.8
5.52,0.5,0.0,0.0,0.0,0.0,0.0,0.0,0.0,0.0,0.0,0.0,0.0,0.0,-0.98,0.39,0.02,14.53,34.9,97.9,0.0,0.0,0.5,0.5,0.0,0.0,0.0,0.0,0.0,0.25,0.0,0.0,0.75,0.2,-0.67,0.64,26.44,-6.8,-20.3
5.54,0.5,0.0,0.0,0.25,0.0,0.0,0.0,0.0,0.0,0.0,0.0,0.0,0.0,-0.92,0.39,0.02,13.54,28.6,83.5,0.0,0.0,0.5,0.0,0.0,0.0,0.0,0.0,0.0,0.25,0.0,0.0,0.75,0.2,-0.67,0.64,25.32,-3.3,-47.0
5.56,0.5,0.0,0.0,0.25,0.0,0.0,0.0,0.0,0.0,0.0,0.0,0.0,0.0,-0.92,0.39,0.02,12.84,28.6,83.5,0.0,0.0,1.75,0.5,0.0,0.0,0.0,0.25,0.0,0.25,0.0,0.0,0.5,0.2,-0.67,0.64,36.4,-18.8,16.4
5.58,0.25,0.0,0.0,0.25,0.0,0.0,0.0,0.0,0.0,0.0,0.0,0.0,0.0,-0.92,0.39,0.02,11.22,25.5,76.7,0.0,0.0,0.5,0.5,0.0,0.0,0.0,0.0,0.0,0.25,0.0,0.0,0.5,0.2,-0.67,0.64,36.01,-9.8,-7.6
5.6,0.25,0.0,0.0,0.0,0.0,0.0,0.0,0.0,0.0,0.0,0.0,0.0,0.0,-0.98,0.33,0.02,8.14,34.9,97.9,0.0,0.0,0.5,0.25,0.0,0.0,0.0,0.25,0.0,0.25,0.0,0.0,0.5,0.2,-0.67,0.64,36.32,-5.0,-21.5
5.62,0.25,0.0,0.0,0.25,0.0,0.0,0.0,0.0,0.0,0.0,0.0,0.0,0.0,-0.98,0.33,0.02,7.2,25.5,76.7,0.0,0.0,0.75,0.5,0.0,0.0,0.0,0.0,0.0,0.25,0.0,0.0,0.5,0.2,-0.67,0.64,33.83,-13.3,0.9
5.64,0.0,0.0,0.0,0.25,0.0,0.0,0.0,0.0,0.0,0.0,0.0,0.0,0.0,-0.92,0.39,0.02,5.57,17.2,57.9,0.0,0.0,0.5,0.5,0.0,0.0,0.0,0.25,0.0,0.25,0.0,0.0,0.75,0.2,-0.67,0.64,34.01,-4.3,-22.3
5.66,0.0,0.0,0.0,0.25,0.0,0.0,0.0,0.0,0.0,0.0,0.0,0.0,0.0,-0.92,0.39,0.02,4.41,17.2,57.9,0.0,0.0,0.5,0.25,0.0,0.0,0.0,0.5,0.0,0.25,0.0,0.0,0.75,0.2,-0.61,0.64,34.2,-0.5,-33.3
5.68,0.0,0.0,0.0,0.25,0.0,0.0,0.0,0.0,0.0,0.0,0.0,0.0,0.0,-0.92,0.39,0.02,3.13,17.2,57.9,0.0,0.0,0.5,0.0,0.0,0.0,0.0,0.0,0.0,0.25,0.0,0.0,0.75,0.2,-0.61,0.64,32.37,-3.3,-47.0
5.7,0.25,0.0,0.0,0.25,0.0,0.0,0.0,0.0,0.0,0.0,0.0,0.0,0.0,-0.92,0.39,0.02,4.61,25.5,76.7,0.0,0.0,0.5,0.5,0.0,0.0,0.0,0.0,0.0,0.25,0.0,0.0,0.25,0.2,-0.67,0.64,30.39,-13.7,9.4
5.72,0.25,0.0,0.0,0.25,0.0,0.0,0.0,0.0,0.0,0.0,0.0,0.0,0.0,-0.98,0.39,0.08,5.68,25.5,76.7,0.0,0.0,0.5,0.0,0.0,0.0,0.0,0.0,0.0,0.25,0.0,0.0,0.75,0.2,-0.67,0.64,26.92,-3.3,-47.0
5.74,0.25,0.0,0.0,0.25,0.0,0.0,0.0,0.0,0.0,0.0,0.0,0.0,0.0,-0.98,0.39,0.02,7.33,25.5,76.7,0.0,0.0,1.0,0.5,0.0,0.0,0.0,0.0,0.0,0.25,0.0,0.0,0.5,0.27,-0.67,0.64,29.26,-16.1,7.6
5.76,0.25,0.0,0.0,0.0,0.0,0.0,0.0,0.0,0.0,0.0,0.0,0.0,0.0,-0.92,0.39,0.02,6.83,34.9,97.9,0.0,0.0,0.5,0.5,0.0,0.0,0.0,0.0,0.0,0.5,0.0,0.0,0.75,0.2,-0.67,0.64,31.03,-4.4,-26.3
5.78,0.25,0.0,0.0,0.25,0.0,0.0,0.0,0.0,0.0,0.0,0.0,0.0,0.0,-0.92,0.39,0.08,7.22,25.5,76.7,0.0,0.0,0.5,0.25,0.0,0.0,0.0,0.0,0.0,0.25,0.0,0.0,0.5,0.2,-0.67,0.64,30.01,-8.5,-18.7
5.8,0.0,0.0,0.0,0.25,0.0,0.0,0.0,0.0,0.0,0.0,0.0,0.0,0.0,-0.92,0.39,0.02,6.15,17.2,57.9,0.0,0.0,0.75,0.5,0.0,0.0,0.0,0.0,0.0,0.25,0.0,0.0,0.5,0.2,-0.67,0.64,30.04,-13.3,0.9
5.82,0.0,0.0,0.0,0.25,0.0,0.0,0.0,0.0,0.0,0.0,0.0,0.25,0.0,-0.92,0.39,0.08,7.02,13.1,-23.7,0.0,0.0,0.5,0.0,0.0,0.0,0.0,0.0,0.0,0.25,0.5,0.0,0.5,0.2,-0.67,0.64,29.9,-7.9,-45.7
5.84,0.0,0.0,0.0,0.25,0.0,0.0,0.0,0.0,0.0,0.0,0.0,0.0,0.0,-0.92,0.39,0.08,6.19,17.2,57.9,0.0,0.0,0.5,0.25,0.0,0.0,0.0,0.0,0.0,0.25,0.0,0.0,0.5,0.2,-0.67,0.64,27.6,-8.5,-18.7
5.86,0.0,0.0,0.0,0.25,0.0,0.0,0.0,0.0,0.0,0.0,0.0,0.0,0.0,-0.92,0.39,0.02,5.65,17.2,57.9,0.0,0.0,1.25,0.5,0.0,0.0,0.0,0.25,0.0,0.25,0.0,0.0,0.25,0.2,-0.67,0.64,31.57,-18.1,20.2
5.88,0.0,0.0,0.0,0.25,0.0,0.0,0.0,0.0,0.0,0.0,0.0,0.0,0.0,-0.98,0.39,0.02,4.95,17.2,57.9,0.0,0.0,0.5,0.5,0.0,0.0,0.0,0.5,0.0,0.25,0.0,0.0,0.75,0.2,-0.61,0.64,35.37,-2.2,-23.9
5.9,0.0,0.0,0.0,0.25,0.0,0.0,0.0,0.0,0.0,0.0,0.0,0.0,0.0,-0.98,0.39,0.08,4.53,17.2,57.9,0.0,0.0,0.5,0.5,0.0,0.0,0.0,0.0,0.0,0.25,0.0,0.0,0.5,0.2,-0.61,0.64,35.38,-9.8,-7.6
5.92,0.0,0.0,0.0,0.25,0.0,0.0,0.0,0.0,0.0,0.0,0.0,0.0,0.0,-0.92,0.39,0.08,4.15,17.2,57.9,0.0,0.0,0.5,0.25,0.0,0.0,0.0,0.0,0.0,0.25,0.0,0.0,0.5,0.2,-0.67,0.64,32.13,-8.5,-18.7
5.94,0.0,0.0,0.0,0.25,0.0,0.0,0.0,0.0,0.0,0.0,0.0,0.0,0.0,-0.98,0.39,0.02,3.94,17.2,57.9,0.0,0.0,0.5,0.25,0.0,0.0,0.0,0.0,0.0,0.25,0.0,0.0,0.75,0.2,-0.67,0.64,29.5,-5.3,-31.7
5.96,0.0,0.0,0.0,0.25,0.0,0.0,0.0,0.0,0.0,0.0,0.0,0.0,0.0,-0.98,0.39,0.02,4.07,17.2,57.9,0.0,0.0,0.25,0.5,0.0,0.0,0.0,0.0,0.0,0.25,0.5,0.0,0.75,0.2,-0.67,0.64,30.15,-4.1,-41.1
5.98,0.0,0.0,0.0,0.25,0.0,0.0,0.0,0.0,0.0,0.0,0.0,0.0,0.0,-0.98,0.39,0.02,4.18,17.2,57.9,0.0,0.0,0.0,0.5,0.0,0.0,0.0,0.0,0.0,0.25,0.0,0.0,0.5,0.2,-0.67,0.64,26.58,1.5,-35.0
6.0,0.0,0.0,0.0,0.25,0.0,0.0,0.0,0.0,0.0,0.0,0.0,0.0,0.0,-0.92,0.39,0.08,4.37,17.2,57.9,0.0,0.0,0.5,0.0,0.0,0.0,0.0,0.0,0.0,0.25,0.0,0.0,0.75,0.2,-0.67,0.64,26.32,-3.3,-47.0
6.02,0.25,0.0,0.0,0.25,0.0,0.0,0.0,0.0,0.0,0.0,0.0,0.0,0.0,-0.92,0.39,0.02,5.82,25.5,76.7,0.0,0.0,0.5,0.5,0.0,0.0,0.0,0.25,0.0,0.25,0.0,0.0,0.75,0.2,-0.67,0.64,28.48,-4.3,-22.3
6.04,0.25,0.0,0.0,0.25,0.0,0.0,0.0,0.0,0.0,0.0,0.0,0.0,0.0,-0.98,0.39,0.02,7.48,25.5,76.7,0.0,0.0,0.5,0.5,0.0,0.0,0.0,0.0,0.0,0.5,0.0,0.0,0.5,0.2,-0.67,0.64,29.69,-6.7,-15.8
6.06,0.25,0.0,0.0,0.25,0.0,0.0,0.0,0.0,0.0,0.0,0.0,0.0,0.0,-0.92,0.39,0.02,8.77,25.5,76.7,0.0,0.0,0.5,0.5,0.0,0.0,0.0,0.0,0.0,0.25,0.0,0.0,0.75,0.2,-0.67,0.64,31.25,-6.8,-20.3
