time,left pressure 0[N/cm²],left pressure 1[N/cm²],left pressure 2[N/cm²],left pressure 3[N/cm²],left pressure 4[N/cm²],left pressure 5[N/cm²],left pressure 6[N/cm²],left pressure 7[N/cm²],left pressure 8[N/cm²],left pressure 9[N/cm²],left pressure 10[N/cm²],left pressure 11[N/cm²],left pressure 12[N/cm²],left acceleration X[g],left acceleration Y[g],left acceleration Z[g],left total force[N],left center of pressure X[mm],left center of pressure Y[mm],right pressure 0[N/cm²],right pressure 1[N/cm²],right pressure 2[N/cm²],right pressure 3[N/cm²],right pressure 4[N/cm²],right pressure 5[N/cm²],right pressure 6[N/cm²],right pressure 7[N/cm²],right pressure 8[N/cm²],right pressure 9[N/cm²],right pressure 10[N/cm²],right pressure 11[N/cm²],right pressure 12[N/cm²],right acceleration X[g],right acceleration Y[g],right acceleration Z[g],right total force[N],right center of pressure X[mm],right center of pressure Y[mm]
0.02,0.0,0.0,0.0,2.25,1.0,1.5,0.5,6.0,2.25,6.5,6.5,5.0,6.0,-0.11,0.02,0.95,607.31,-3.6,-60.4,0.0,0.0,0.0,0.5,0.0,0.0,0.0,0.0,0.0,0.0,0.0,0.0,0.0,0.08,0.2,1.27,28.68,-17.2,57.9
0.04,0.0,0.0,1.0,2.5,0.0,1.75,0.5,6.0,2.75,6.5,6.5,5.0,6.0,-0.11,0.02,0.95,622.76,-2.2,-58.9,0.0,0.0,1.25,0.5,0.25,0.0,0.25,0.25,0.25,0.0,0.75,0.0,0.5,0.08,0.33,1.45,34.45,-15.3,-0.7
0.06,0.0,0.25,1.0,2.5,1.75,2.0,0.75,6.0,2.75,5.75,6.25,4.25,5.5,-0.11,0.02,0.95,618.14,-2.1,-49.0,0.0,0.0,0.0,0.0,0.0,0.0,0.0,0.25,0.0,0.0,0.0,0.0,0.0,0.14,0.58,1.58,23.39,16.7,-38.7
0.08,0.0,0.75,1.25,3.0,2.75,2.0,0.75,6.0,2.75,5.75,6.0,4.0,5.25,-0.11,0.02,0.95,608.65,-1.5,-41.1,0.0,0.0,0.0,0.5,0.0,0.0,0.0,0.25,0.0,0.0,0.0,0.0,0.0,0.27,0.58,1.58,23.44,-6.2,26.6
0.1,0.0,1.0,1.5,4.0,2.75,2.0,1.0,6.0,3.0,5.25,5.5,3.5,4.25,-0.11,0.02,0.95,592.68,-0.3,-33.2,0.0,0.0,0.0,0.5,0.0,0.0,0.0,0.0,0.0,0.0,0.0,0.0,0.0,0.45,0.64,1.83,14.74,-17.2,57.9
0.12,1.25,1.0,1.25,4.25,4.0,2.0,0.75,6.0,3.0,4.5,5.5,3.0,4.0,-0.11,0.02,0.95,584.51,0.6,-24.4,0.0,0.25,0.0,0.5,0.0,0.0,0.0,0.25,0.0,0.0,0.0,0.0,0.0,0.52,0.83,2.08,12.13,-7.8,44.7
0.14,0.0,1.0,1.25,4.5,4.25,2.5,1.25,6.0,3.25,4.5,5.0,2.75,3.0,-0.11,0.08,0.95,551.2,-0.1,-22.5,0.0,0.0,0.0,0.5,0.0,0.25,0.0,0.0,0.0,0.0,0.0,0.0,0.0,0.27,1.14,2.14,6.96,-4.7,50.5
0.16,1.0,1.0,1.5,6.25,5.0,2.75,1.25,5.75,3.25,3.0,4.25,2.0,2.75,-0.11,0.08,0.95,550.16,1.9,-8.3,0.0,0.0,0.0,0.5,0.0,0.0,0.0,0.0,0.0,0.0,0.0,0.0,0.0,-0.36,1.7,1.7,5.28,-17.2,57.9
0.18,1.75,1.0,2.0,7.0,5.75,3.0,1.0,5.5,3.0,3.0,4.0,2.0,1.75,-0.11,0.08,0.95,558.88,3.2,0.3,0.0,0.0,0.0,0.5,0.0,0.0,0.0,0.0,0.0,0.0,0.0,0.0,0.0,-0.23,2.33,0.7,1.92,-17.2,57.9
0.2,1.75,1.0,1.25,8.0,6.25,3.25,1.25,5.5,2.75,2.0,3.75,1.0,1.5,-0.11,0.08,0.95,563.5,3.1,7.8,0.0,0.0,0.0,0.0,0.0,0.0,0.0,0.0,0.0,0.0,0.0,0.0,0.0,-0.61,2.7,0.7,0.0,0.0,0.0
0.22,1.75,1.0,2.25,8.75,6.0,3.25,1.25,5.25,2.75,1.25,3.0,1.0,1.5,-0.11,0.08,0.95,565.24,4.7,13.3,0.0,0.0,0.0,0.5,0.0,0.0,0.0,0.0,0.0,0.0,0.0,0.0,0.0,-1.86,3.95,0.45,3.1,-17.2,57.9
0.24,2.5,1.0,3.0,9.0,7.25,3.5,1.5,5.0,2.5,1.25,2.5,1.0,1.0,-0.11,0.08,0.95,580.9,5.8,20.6,0.0,0.0,0.0,0.5,0.0,0.0,0.0,0.0,0.0,0.0,0.0,0.0,0.0,-2.42,3.64,0.2,4.43,-17.2,57.9
0.26,2.5,1.0,3.0,10.5,7.75,3.75,1.5,4.75,2.25,1.25,2.5,1.0,1.0,-0.11,0.08,0.95,607.78,6.0,23.2,0.0,0.0,0.0,0.5,0.0,0.0,0.0,0.25,0.0,0.0,0.0,0.25,0.25,0.14,-0.23,0.45,8.98,-2.7,-27.3
0.28,2.5,1.25,3.25,10.5,7.75,4.0,1.5,4.5,2.0,1.25,2.5,1.0,0.5,-0.11,0.08,0.95,632.6,6.4,26.2,0.0,0.0,0.0,0.0,0.0,0.0,0.0,0.25,0.0,2.0,0.0,3.0,4.0,1.39,-0.92,0.77,64.92,7.0,-100.6
0.3,2.75,2.0,4.0,11.5,8.25,4.0,1.75,4.5,1.75,1.25,2.25,1.0,0.5,-0.11,0.08,0.95,674.67,7.3,30.3,0.0,0.0,0.0,0.5,0.0,0.0,0.0,0.25,0.25,5.5,2.0,4.5,6.0,-0.67,0.83,1.77,168.13,5.3,-90.0
0.32,2.75,2.0,4.75,11.5,8.25,4.0,1.75,3.75,1.25,1.25,1.75,1.0,0.5,-0.11,0.08,0.95,700.28,8.2,33.9,0.5,1.0,0.5,0.5,0.5,0.0,0.25,2.25,0.75,7.25,4.75,5.25,6.25,0.02,0.33,1.08,284.96,2.5,-68.8
0.34,2.75,2.5,5.25,12.5,8.5,4.0,1.75,3.5,1.0,1.0,1.5,1.0,0.5,-0.11,0.08,0.95,730.27,8.9,37.5,0.5,0.25,0.75,0.0,0.5,0.25,0.25,4.75,1.0,8.0,6.25,5.25,7.0,0.08,0.27,1.02,413.13,3.8,-71.8
0.36,3.25,2.5,5.5,13.0,8.75,4.0,2.0,3.5,1.0,1.0,1.5,0.75,0.5,-0.11,0.14,0.95,756.44,9.4,39.3,1.0,0.5,0.75,1.5,1.25,2.75,0.25,4.75,1.0,8.0,6.25,5.0,7.0,0.08,0.08,0.95,554.36,3.6,-54.4
0.38,4.5,2.75,6.25,14.0,8.75,4.0,1.75,3.25,0.5,1.0,1.25,0.75,0.25,-0.11,0.14,1.02,795.13,10.8,44.2,1.0,0.75,0.75,0.75,1.0,3.25,0.25,4.75,1.0,8.0,6.25,5.25,7.25,0.14,0.08,0.95,649.95,4.2,-56.0
0.4,5.5,3.75,6.75,14.0,9.0,3.75,1.75,3.5,0.75,1.0,1.5,0.75,0.5,-0.11,0.14,1.08,846.74,11.4,44.4,1.5,0.5,1.25,0.75,1.5,3.25,0.25,5.0,1.0,8.5,6.5,5.5,7.5,0.14,0.08,0.95,719.65,3.4,-53.2
0.42,0.0,3.75,7.0,15.0,9.25,3.25,1.75,2.75,0.75,0.75,1.0,0.5,0.25,-0.11,0.14,1.08,844.5,10.1,44.0,1.25,0.75,1.0,0.75,1.75,3.75,0.25,5.5,1.25,8.75,7.0,5.5,7.5,0.08,0.08,0.95,769.12,3.9,-52.3
0.44,4.75,0.0,7.0,9.25,6.0,0.0,3.0,1.0,0.0,0.0,1.5,0.0,0.0,-0.17,0.2,1.08,725.31,19.2,52.7,1.75,0.75,1.75,0.75,2.25,4.25,0.5,5.75,1.25,8.75,7.0,5.5,7.5,0.08,0.08,0.95,812.47,3.0,-46.6
0.46,2.0,0.0,4.25,12.0,7.5,1.5,3.0,1.5,0.0,0.0,0.0,0.0,0.0,-0.17,0.2,1.08,601.47,12.8,52.4,1.5,1.0,2.0,1.25,2.5,4.5,0.75,5.75,1.5,8.5,7.0,5.25,7.5,0.08,0.08,0.95,838.88,2.6,-43.1
0.48,7.0,3.5,7.25,13.5,1.0,0.75,1.75,2.75,0.5,0.5,1.25,0.25,0.25,-0.23,0.27,1.27,551.55,19.3,51.8,1.75,1.0,2.0,2.0,3.25,4.5,0.75,5.75,1.75,8.5,7.0,5.25,7.25,0.14,0.08,0.95,855.39,2.0,-38.9
0.5,7.25,3.25,7.25,11.5,7.0,0.0,0.0,2.5,0.75,0.5,1.5,0.0,0.5,-0.23,0.33,1.39,567.65,16.4,51.8,1.75,0.75,2.25,2.25,4.25,4.0,0.75,5.75,1.75,8.25,7.0,5.0,6.75,0.08,0.08,0.95,846.37,1.5,-35.9
0.52,6.75,2.5,6.5,10.5,6.0,0.0,0.0,2.25,0.5,0.5,0.75,0.0,0.5,-0.55,0.45,1.58,574.0,16.7,53.5,1.75,0.75,2.5,3.0,4.5,4.75,1.25,5.75,1.75,7.75,7.0,4.25,6.25,0.08,0.08,0.95,818.84,1.0,-30.0
0.54,5.0,1.0,4.75,7.25,0.0,0.0,0.0,2.0,0.75,0.5,1.25,0.0,0.25,-0.8,0.64,1.58,477.78,20.5,45.1,1.75,1.0,2.75,3.0,4.5,4.5,1.25,5.75,1.75,7.75,6.5,4.25,6.0,0.08,0.08,0.95,784.84,0.7,-28.3
0.56,4.0,1.0,2.5,4.5,0.0,0.0,0.0,1.75,0.5,0.5,1.25,0.0,0.5,-0.92,1.08,2.27,349.65,18.0,37.8,2.25,1.25,3.75,3.25,4.5,4.75,1.25,5.75,2.0,7.25,6.25,3.25,5.5,0.08,0.08,0.95,761.96,-0.5,-20.9
0.58,2.75,0.75,1.25,4.0,0.0,0.0,0.0,0.0,0.5,0.25,1.0,0.0,0.25,-0.36,0.7,2.39,230.89,21.3,47.2,3.0,1.25,4.75,4.5,4.75,5.75,1.75,5.75,2.25,6.75,5.5,3.0,5.0,0.08,0.08,0.95,771.1,-1.9,-11.9
0.6,0.0,0.0,1.25,2.25,0.0,0.0,0.0,0.0,0.5,0.0,0.75,0.25,0.0,-0.48,0.39,2.2,113.67,20.7,22.2,3.0,1.25,5.0,4.75,4.75,5.75,1.75,5.25,2.0,6.0,4.75,2.5,4.0,0.08,0.08,0.95,767.39,-2.7,-5.9
0.62,0.0,0.0,0.0,2.75,0.0,0.0,1.0,0.0,1.5,1.0,1.75,0.75,0.0,-1.05,-0.67,1.95,42.24,11.1,-19.6,3.25,1.5,5.0,5.5,6.0,5.75,2.25,4.75,2.0,5.75,4.5,1.5,3.25,0.14,0.08,0.95,771.87,-3.5,2.5
0.64,0.0,0.0,1.5,2.75,0.0,0.0,1.75,0.0,2.25,0.75,2.0,0.75,0.75,-0.73,-0.17,0.83,31.55,14.3,-14.6,3.25,1.75,5.5,5.5,6.5,6.0,2.5,4.75,1.75,4.5,3.75,1.5,3.0,0.08,0.08,0.95,763.73,-4.2,8.3
0.66,0.25,0.5,0.75,2.5,0.0,0.0,2.25,0.0,0.5,0.5,2.0,0.0,0.5,-0.92,-1.11,0.08,38.53,15.7,4.9,3.0,1.75,6.25,7.25,6.75,6.0,2.5,4.75,1.75,3.75,3.5,1.25,2.25,0.08,0.08,0.95,767.21,-5.5,14.8
0.68,0.0,0.5,1.75,2.75,0.0,0.0,0.5,0.0,2.0,1.0,1.0,0.75,0.5,-0.73,-0.3,0.89,59.46,14.2,-2.7,3.0,2.0,6.5,7.75,7.5,6.0,2.75,4.0,1.5,3.5,2.5,1.0,2.25,0.08,0.08,0.95,768.35,-6.0,20.5
0.7,0.0,0.0,1.5,2.75,0.0,0.0,1.5,0.0,0.75,0.5,0.75,0.0,0.5,-0.48,-0.42,0.52,51.44,17.5,13.5,3.0,2.0,6.75,9.0,8.0,6.25,3.0,3.75,1.5,2.75,2.5,1.0,1.75,0.08,0.08,0.95,784.19,-6.9,25.1
0.72,0.25,0.0,0.5,2.75,0.0,0.0,0.25,0.0,1.75,0.25,0.75,0.0,0.25,-0.48,-0.36,0.64,40.82,15.3,8.3,3.25,2.0,7.5,9.75,8.25,6.5,3.0,3.5,1.25,2.5,2.5,0.75,1.25,0.08,0.08,0.95,804.21,-7.9,29.8
0.74,0.0,0.0,1.75,2.25,0.0,0.0,3.25,0.0,0.75,0.5,1.75,0.25,0.0,-0.55,-0.42,0.7,52.44,20.4,7.5,3.5,2.25,7.5,11.0,8.5,6.5,3.25,3.5,1.25,3.25,2.5,0.5,1.25,0.08,0.08,0.95,842.15,-7.9,30.4
0.76,0.75,0.0,0.75,2.5,0.0,0.0,0.25,0.0,1.25,0.75,1.25,0.25,0.5,-0.55,-0.3,0.89,76.9,14.0,-1.0,4.25,2.5,7.75,12.0,9.25,6.75,3.5,3.25,1.25,2.75,2.0,0.5,1.25,0.08,0.08,0.95,891.96,-8.6,34.6
0.78,0.5,0.0,1.5,2.5,0.0,0.0,1.25,0.0,1.0,0.5,2.0,0.5,0.5,-0.42,-0.17,0.83,110.08,16.8,-2.6,4.5,2.75,8.5,12.5,9.25,6.75,3.5,2.0,1.0,3.0,1.5,0.25,1.25,0.08,0.08,0.95,934.25,-9.6,38.8
0.8,0.25,0.0,1.5,1.5,0.0,0.0,1.25,0.0,0.75,0.5,1.25,0.0,0.5,-0.3,0.08,0.95,115.18,17.4,1.4,5.5,2.5,8.5,14.0,11.0,7.0,3.5,2.0,0.75,0.5,1.5,0.25,1.25,0.08,0.08,0.95,979.85,-10.7,45.7
0.82,0.0,0.0,1.0,1.75,0.0,0.0,0.25,0.0,0.5,0.25,1.5,0.0,0.25,-0.23,0.14,1.2,109.38,16.3,-0.6,5.75,3.5,9.25,14.0,11.0,6.75,3.5,2.0,0.75,1.25,1.25,0.5,1.25,0.08,0.14,0.95,1029.66,-11.0,45.4
0.84,0.0,0.0,1.0,1.75,0.0,0.0,0.0,0.0,0.5,0.25,0.75,0.0,0.5,-0.17,0.27,1.45,92.29,15.2,4.0,6.75,3.5,9.25,15.0,11.0,7.0,3.5,1.0,0.5,0.25,1.5,0.0,0.5,0.08,0.14,1.02,1069.43,-12.6,53.0
0.86,0.0,0.0,1.5,1.75,0.0,0.0,0.0,0.0,0.5,0.25,1.0,0.0,0.5,-0.17,0.39,1.58,79.36,17.1,5.8,6.75,3.5,9.25,15.5,11.5,6.0,3.0,1.25,0.75,1.5,1.25,0.25,0.5,0.08,0.14,1.08,1102.25,-12.2,49.9
0.88,0.0,0.0,1.25,1.5,0.0,0.0,0.0,0.0,0.5,0.25,1.25,0.25,0.25,-0.23,0.45,1.77,71.77,16.9,-2.8,7.75,3.75,9.25,15.5,11.5,6.5,2.5,0.75,0.5,0.0,1.5,0.25,0.5,0.08,0.14,1.08,1120.04,-13.1,54.5
0.9,0.25,0.0,1.0,1.25,0.0,0.0,0.0,0.0,0.5,0.25,0.75,0.0,0.25,-0.42,0.52,2.08,68.16,17.7,9.4,8.25,3.75,9.5,15.5,11.0,5.75,2.0,0.5,0.5,0.25,1.25,0.25,0.0,0.08,0.2,1.08,1115.85,-14.2,57.0
0.92,0.25,0.0,1.0,1.25,0.0,0.0,0.0,0.0,0.5,0.25,0.75,0.0,0.5,-0.48,0.77,2.39,64.48,16.0,2.6,8.25,3.5,9.25,14.5,10.5,3.0,1.25,0.5,0.5,1.0,1.0,0.25,0.5,0.14,0.27,1.2,1067.45,-15.2,55.3
0.94,0.5,0.0,1.0,1.0,0.0,0.0,0.0,0.0,0.5,0.25,0.5,0.0,0.25,-0.3,1.2,2.52,60.93,19.2,16.4,8.25,3.5,8.5,12.5,9.25,1.75,1.25,0.5,0.5,1.0,1.25,0.25,0.5,0.14,0.33,1.33,977.32,-16.2,55.1
0.96,0.5,0.0,1.0,0.5,0.0,0.0,0.0,0.0,0.5,0.25,0.75,0.0,0.25,0.14,1.89,2.45,55.13,18.9,4.7,8.0,2.75,7.5,11.0,8.0,0.5,0.75,0.25,0.5,0.0,1.25,0.25,0.5,0.27,0.39,1.39,839.21,-18.2,58.2
0.98,0.75,0.0,0.75,1.0,0.0,0.0,0.0,0.0,0.5,0.5,1.0,0.0,0.5,0.89,2.58,1.52,56.61,14.7,-2.0,7.0,1.0,4.0,7.5,4.25,0.0,0.25,0.5,0.5,0.0,1.25,0.0,0.25,0.52,0.58,1.83,621.0,-19.5,57.5
1.0,0.75,0.0,0.25,0.5,0.0,0.0,0.0,0.0,0.5,0.25,0.0,0.0,0.25,1.39,3.02,0.64,49.34,16.8,19.4,4.25,0.25,0.0,3.25,0.0,0.0,0.25,0.25,0.25,0.0,0.0,0.0,0.0,0.7,1.27,2.89,354.52,-24.6,72.1
1.02,0.5,0.0,1.0,0.5,0.0,0.0,0.0,0.0,0.5,0.25,0.0,0.0,0.25,2.02,4.45,0.58,46.22,20.9,24.0,1.75,0.0,0.0,2.25,0.0,0.0,0.25,0.0,0.0,0.0,0.0,0.0,0.0,0.08,0.7,2.33,174.28,-24.7,72.9
1.04,0.75,0.0,0.75,0.5,0.0,0.0,0.0,0.0,0.5,0.5,0.0,0.0,0.5,1.83,3.52,0.2,46.29,15.4,9.3,0.5,0.25,0.0,0.75,0.0,0.0,0.25,0.25,0.25,0.0,0.0,0.0,0.0,0.2,0.27,1.77,0.29,-16.8,47.3
1.06,0.75,0.0,1.0,0.5,0.0,0.0,0.0,0.0,0.75,0.5,0.75,0.25,0.25,0.27,1.08,2.33,54.82,17.0,-3.1,0.0,0.0,1.5,1.0,0.5,0.0,0.5,0.25,0.0,0.0,1.25,0.0,0.0,0.83,-0.11,1.89,0.0,-18.8,18.7
1.08,0.0,0.0,1.0,1.0,0.0,0.0,0.0,0.0,0.5,1.25,0.75,1.0,1.25,-2.05,-1.48,1.33,72.7,6.2,-43.2,0.5,0.25,1.25,2.0,0.0,1.5,0.25,0.25,0.5,0.0,1.5,0.25,0.25,0.83,-0.98,1.64,0.0,-11.0,15.4
1.1,0.0,0.0,0.0,0.5,0.0,0.0,0.0,0.0,0.5,3.0,0.0,3.0,4.0,0.33,-0.42,0.83,118.53,-5.5,-89.5,0.5,0.75,1.75,1.5,0.25,1.0,0.25,0.25,0.5,0.75,1.0,0.5,0.5,0.64,-1.23,0.45,0.0,-10.7,11.0
1.12,0.0,0.0,1.0,0.5,0.0,0.0,0.0,0.0,1.0,4.75,2.75,4.25,6.0,1.33,0.52,1.64,201.19,-1.5,-80.9,0.5,0.75,1.75,1.0,0.5,1.0,0.25,0.25,0.5,1.0,0.25,0.25,0.5,0.58,-0.55,1.2,0.0,-9.1,18.0
1.14,0.0,0.0,0.0,0.0,0.0,0.0,0.0,0.0,0.0,6.0,4.75,5.0,0.0,-0.8,0.33,1.08,244.08,0.0,-86.4,0.5,1.0,2.0,1.25,0.5,1.0,0.25,0.5,0.5,1.0,0.25,0.25,0.5,0.2,-0.3,0.33,0.0,-9.5,20.9
1.16,0.0,0.0,0.0,0.75,0.0,0.0,0.0,5.25,1.0,6.5,5.5,5.0,6.25,-0.17,0.27,1.08,333.67,-4.9,-77.4,0.5,0.75,1.75,1.25,0.5,1.25,0.25,0.25,0.75,0.75,0.5,0.25,0.5,0.14,-0.36,0.2,31.1,-9.3,18.1
1.18,0.0,0.0,0.0,1.5,0.0,0.0,0.25,5.5,1.0,6.5,5.25,5.0,6.25,-0.05,0.08,1.02,411.09,-4.5,-73.3,0.75,0.75,1.25,1.25,0.25,1.0,0.25,0.5,0.25,0.0,0.25,0.25,0.5,0.33,-0.3,0.64,56.22,-11.1,30.5
1.2,0.0,0.0,0.0,1.75,0.0,0.75,0.25,5.75,0.75,6.5,4.75,4.5,6.25,-0.17,0.08,0.95,488.94,-5.4,-69.1,0.5,0.75,1.5,1.0,0.5,1.25,0.25,0.25,0.25,0.5,0.75,0.25,0.5,0.39,-0.3,0.83,86.54,-8.8,19.0
1.22,0.0,0.0,0.0,1.25,0.0,1.5,0.25,6.0,1.75,6.5,0.0,4.25,6.0,-0.17,0.08,0.95,498.37,-8.5,-65.7,0.5,0.0,1.75,0.25,0.5,0.0,0.25,0.25,0.0,0.0,0.25,0.0,0.5,0.33,-0.05,0.83,94.82,-19.6,28.4
1.24,0.0,0.0,0.0,2.25,0.0,1.25,0.5,6.0,1.75,6.5,5.5,4.0,6.0,-0.17,0.08,0.95,531.75,-4.5,-63.4,0.0,0.0,0.0,0.5,0.0,0.0,0.0,0.25,0.0,0.0,0.0,0.0,0.0,0.27,0.2,0.89,76.72,-6.2,26.6
1.26,0.0,0.0,1.0,2.5,2.75,2.0,0.75,6.25,2.0,6.0,5.5,4.0,5.5,-0.17,0.08,0.95,559.14,-3.0,-46.3,0.0,0.0,0.0,0.5,0.0,0.0,0.0,0.25,0.0,0.0,0.0,0.0,0.0,0.2,0.27,1.08,42.58,-6.2,26.6
1.28,0.0,0.25,1.0,3.25,3.25,2.25,0.75,6.25,2.25,5.75,5.75,3.25,5.25,-0.17,0.08,0.95,591.34,-2.5,-39.6,0.0,0.0,0.0,0.25,0.0,0.0,0.0,0.25,0.0,0.0,0.0,0.0,0.0,0.08,0.33,1.39,12.86,-0.6,10.6
1.3,0.75,1.0,1.25,4.0,4.0,2.75,0.75,6.25,2.5,5.75,5.5,3.0,4.25,-0.17,0.08,0.95,618.0,-1.0,-27.2,0.0,0.0,0.0,0.5,0.0,0.0,0.0,0.25,0.0,0.0,0.0,0.0,0.0,0.08,0.52,1.45,0.0,-6.2,26.6
1.32,0.75,1.0,1.25,4.5,4.5,3.25,0.75,6.25,2.5,4.5,4.0,2.25,4.25,-0.11,0.08,0.95,618.19,-1.2,-19.4,0.0,0.0,0.0,0.5,0.0,0.0,0.0,0.0,0.0,0.0,0.0,0.0,0.0,0.14,0.58,1.58,0.0,-17.2,57.9
1.34,1.0,1.0,1.25,6.0,5.25,3.75,0.75,6.25,2.25,4.5,4.0,2.0,3.0,-0.11,0.08,0.95,614.37,-0.4,-10.2,0.0,0.0,0.0,0.75,1.0,0.75,0.25,0.25,0.5,0.0,0.25,0.0,0.5,0.27,0.58,1.7,3.88,1.2,7.3
1.36,1.5,1.0,1.25,6.5,6.0,4.0,0.75,6.0,2.25,3.0,3.25,1.0,2.0,-0.17,0.08,0.95,595.32,0.6,2.6,0.0,0.0,0.0,0.5,0.0,0.0,0.0,0.0,0.25,0.5,0.0,0.0,0.0,0.39,0.64,1.83,6.21,-3.2,-13.3
1.38,1.5,1.0,1.5,7.75,6.25,4.25,0.75,6.0,2.0,2.75,2.75,1.0,1.75,-0.11,0.08,0.95,595.09,1.2,7.8,0.0,0.0,1.0,0.5,0.5,0.0,0.25,0.0,0.0,0.0,0.0,0.0,0.0,0.39,0.83,2.08,16.21,-22.3,56.5
1.4,1.75,0.75,1.75,8.0,7.0,4.5,0.75,5.75,1.75,1.5,2.5,1.0,1.5,-0.11,0.14,0.95,578.97,2.1,14.1,0.0,0.0,0.0,0.25,0.0,0.0,0.0,0.0,0.0,0.0,0.0,0.0,0.0,0.14,1.27,2.33,8.64,-17.2,57.9
1.42,2.0,1.0,2.25,9.0,7.5,4.75,0.75,5.5,1.75,1.25,2.0,1.0,1.25,-0.11,0.14,0.95,593.4,3.2,20.2,0.0,0.0,0.0,0.5,0.0,0.0,0.0,0.25,0.0,0.0,0.0,0.0,0.5,-0.23,1.95,2.39,11.07,1.7,-27.8
1.44,2.5,1.25,2.25,9.0,7.75,4.75,1.0,5.0,1.5,1.25,1.5,1.0,1.0,-0.11,0.08,0.95,602.76,3.8,24.9,0.0,0.0,0.0,0.5,0.0,0.0,0.0,0.0,0.0,0.0,0.0,0.0,0.0,-0.17,1.95,0.83,5.77,-17.2,57.9
1.46,2.5,1.5,2.75,10.5,8.25,4.75,1.0,4.75,1.25,1.25,1.75,1.0,1.0,-0.11,0.14,0.95,629.23,4.8,27.6,0.0,0.0,0.0,0.0,0.0,0.0,0.0,0.0,0.0,0.0,0.0,0.0,0.0,-0.8,2.7,0.89,6.73,0.0,0.0
1.48,2.5,2.25,2.75,10.5,8.25,5.0,1.0,4.5,1.25,1.25,1.25,1.0,0.5,-0.11,0.14,0.95,642.12,5.1,32.1,0.75,0.75,0.0,0.75,0.0,1.0,0.0,0.0,0.25,1.0,0.0,0.25,0.5,-1.92,3.89,0.45,33.52,-1.6,10.3
1.5,2.5,2.5,2.75,11.5,8.5,5.0,1.0,4.5,1.0,1.25,0.75,1.0,0.5,-0.11,0.14,0.95,663.82,5.2,34.8,0.5,0.0,0.0,0.5,0.0,0.0,0.25,0.25,0.0,0.0,0.0,0.0,0.0,-3.05,3.95,0.39,35.38,-18.4,51.1
1.52,2.75,2.5,3.0,11.5,8.5,5.0,1.0,4.25,1.0,1.0,1.25,1.0,0.5,-0.11,0.14,0.95,681.32,5.9,35.1,0.0,0.5,0.0,0.75,0.0,1.0,0.0,0.0,0.25,2.0,0.25,0.25,0.5,0.7,-0.86,0.95,58.68,5.8,-24.3
1.54,2.75,2.5,3.0,12.0,9.0,5.0,1.0,4.0,1.0,1.0,1.25,1.0,0.5,-0.11,0.14,0.95,700.19,6.0,36.0,0.0,0.0,0.0,0.0,0.0,0.0,0.25,0.25,0.0,2.5,0.0,2.5,4.0,1.08,-0.42,1.58,99.07,7.8,-97.2
1.56,2.75,2.5,3.5,12.5,9.0,5.0,1.0,3.5,0.75,1.0,1.25,0.75,0.75,-0.11,0.14,0.95,715.4,6.6,37.8,0.0,0.0,0.0,0.25,0.0,0.0,0.0,0.25,0.0,6.0,1.25,5.5,6.25,-0.42,0.52,0.77,190.64,6.1,-94.1
1.58,2.5,2.75,4.5,12.5,9.0,4.75,1.0,3.5,0.75,0.75,1.0,0.5,0.5,-0.17,0.14,0.95,724.83,7.6,41.2,0.75,0.5,0.0,0.0,0.0,1.0,0.0,2.0,1.0,8.75,5.25,6.0,7.5,-0.3,0.52,4.08,306.69,4.5,-76.9
1.6,3.0,3.25,4.75,13.0,9.0,4.75,1.0,3.5,0.5,0.75,1.5,0.5,0.25,-0.11,0.14,0.95,744.16,8.3,42.8,0.75,0.5,0.75,0.5,0.5,2.25,0.25,4.75,1.0,8.75,6.25,5.5,8.25,0.2,0.27,1.08,467.65,4.6,-64.5
1.62,4.25,4.0,5.5,13.5,9.25,4.75,1.0,3.5,0.0,0.75,1.0,0.25,0.5,-0.11,0.14,0.95,776.74,9.3,47.4,1.0,0.5,0.5,0.75,0.5,2.25,0.25,4.75,1.0,8.75,4.5,5.25,8.0,0.08,0.08,0.95,594.85,5.2,-62.4
1.64,4.25,4.0,5.5,14.0,10.0,4.75,0.75,2.5,0.0,0.75,1.25,0.25,0.5,-0.17,0.14,1.02,810.09,9.6,48.8,1.0,0.5,0.75,0.75,0.5,2.25,0.25,5.0,1.0,8.75,4.5,5.25,8.0,0.14,0.08,0.95,671.03,5.0,-61.4
1.66,4.5,4.0,0.0,14.0,10.0,4.5,0.75,3.0,0.0,0.75,0.75,0.25,1.0,-0.17,0.2,1.02,794.01,5.8,46.1,1.0,0.5,0.75,0.75,0.5,3.75,0.25,5.75,1.0,8.75,4.75,5.25,8.0,0.14,0.08,0.95,709.64,5.7,-57.8
1.68,0.0,4.0,0.0,14.5,10.0,4.0,0.75,2.5,0.5,0.5,0.0,0.25,0.25,-0.17,0.2,1.02,727.8,3.9,47.0,1.5,0.5,0.75,0.75,1.0,4.5,0.25,5.75,1.0,8.75,4.5,5.25,8.0,0.14,0.08,0.95,732.34,5.6,-52.9
1.7,6.25,4.0,7.0,14.5,9.5,3.25,0.75,2.5,0.5,0.5,0.5,0.25,0.25,-0.17,0.2,1.02,749.05,12.8,53.7,1.5,0.5,0.75,0.75,1.75,4.5,0.25,5.75,1.0,8.75,5.5,5.25,8.0,0.08,0.08,0.95,754.1,5.2,-51.3
1.72,6.25,3.5,6.75,14.5,0.0,2.0,0.25,1.75,0.5,0.0,0.5,0.0,0.5,-0.23,0.27,1.08,678.24,19.3,57.5,1.5,1.0,1.25,0.75,2.25,4.5,0.25,6.0,1.0,8.75,6.0,5.0,8.0,0.08,0.08,0.95,774.82,4.5,-46.9
1.74,6.75,4.0,7.5,14.0,8.5,0.75,0.0,2.0,0.5,0.5,0.75,0.0,1.0,-0.3,0.33,1.27,711.7,15.1,53.9,1.75,0.75,1.25,1.5,2.75,4.5,0.5,6.25,1.5,8.5,4.75,4.25,7.5,0.14,0.08,0.95,776.51,4.2,-40.9
1.76,7.0,4.0,7.25,12.5,8.0,0.25,0.0,2.0,0.5,0.25,0.75,0.0,0.5,-0.3,0.33,1.33,702.33,16.2,56.7,1.75,1.0,2.0,2.5,4.25,4.75,0.75,6.25,1.75,8.25,5.25,4.25,7.25,0.14,0.08,0.95,776.86,2.7,-32.6
1.78,7.0,2.5,6.25,9.0,6.25,0.0,0.0,0.0,0.5,0.5,0.0,0.0,0.25,-0.55,0.52,1.52,643.73,19.1,63.8,1.75,1.0,2.25,3.0,4.5,5.5,1.0,6.25,1.75,8.0,5.5,3.75,6.5,0.14,0.08,0.95,765.41,2.3,-27.7
1.8,6.0,1.5,4.75,7.75,0.0,0.0,0.0,2.0,0.75,0.5,0.75,0.0,0.25,-0.8,0.64,2.39,500.9,21.0,50.9,1.75,1.25,2.5,3.0,4.5,5.75,1.25,6.5,1.75,7.75,4.75,3.0,6.25,0.14,0.08,0.95,748.24,2.3,-23.6
1.82,5.5,1.0,2.25,4.75,0.0,0.0,0.0,1.75,0.5,0.5,0.0,0.0,0.25,-0.92,1.2,2.58,354.02,20.1,53.5,1.75,1.5,2.5,3.25,4.75,6.0,1.25,6.0,1.75,7.5,4.5,2.75,5.75,0.14,0.08,0.95,728.34,2.0,-19.8
1.84,0.0,0.5,1.0,4.0,0.0,0.0,0.0,0.0,0.75,0.25,0.0,0.0,0.5,-0.42,0.64,2.39,219.08,16.0,34.8,2.0,1.5,2.5,4.25,5.25,6.0,1.25,6.0,1.75,6.75,4.0,2.25,5.25,0.14,0.08,0.95,720.89,1.4,-13.4
1.86,0.0,0.0,0.75,1.5,0.0,0.0,0.0,0.0,0.0,0.25,0.75,0.0,0.0,-0.67,0.39,2.2,86.71,18.2,19.4,1.75,1.5,2.5,5.25,6.5,6.25,1.25,5.75,1.75,6.25,3.25,1.5,4.0,0.14,0.08,0.95,715.48,1.1,-4.3
1.88,0.0,0.0,0.0,2.25,0.0,0.0,0.0,0.0,0.5,0.25,0.75,0.0,0.25,-1.11,-0.61,1.89,0.0,11.4,3.7,1.75,1.5,2.5,5.5,6.5,6.5,1.25,5.75,1.5,5.5,2.5,1.25,3.75,0.14,0.08,0.95,698.82,1.1,-0.1
1.9,0.0,0.0,0.0,2.25,0.0,0.0,0.0,0.0,0.5,0.25,0.0,0.0,0.25,-0.98,-0.17,1.77,0.0,11.6,20.9,1.75,1.75,3.0,6.5,7.5,7.0,1.5,5.75,1.5,5.25,2.5,1.0,3.25,0.14,0.08,0.95,703.62,0.2,6.0
1.92,0.0,0.0,0.0,2.25,0.0,0.0,0.0,0.0,0.25,0.25,0.5,0.0,0.5,-0.98,-1.17,0.2,0.0,9.8,3.8,1.75,2.0,4.0,7.25,8.0,7.0,1.25,5.75,1.25,4.25,2.5,0.75,2.5,0.14,0.08,0.95,715.0,-1.1,13.3
1.94,0.25,0.25,1.25,2.25,0.0,0.0,0.0,0.0,0.25,0.25,0.0,0.0,0.25,-0.73,-0.42,1.02,0.0,19.7,42.2,1.75,2.0,4.0,8.0,8.25,7.0,1.75,5.0,1.0,4.0,2.5,0.75,2.25,0.14,0.08,0.95,729.35,-1.9,16.5
1.96,1.0,0.25,1.0,2.0,0.0,0.0,0.0,0.0,0.0,0.25,0.0,0.0,0.25,-0.55,-0.3,0.64,0.0,21.5,52.6,1.75,2.0,4.75,9.0,8.25,7.5,1.75,4.75,1.0,3.5,2.0,0.75,2.25,0.14,0.08,0.95,747.93,-2.8,20.4
1.98,0.0,0.0,1.0,2.25,0.0,0.0,0.0,0.0,0.5,0.25,0.0,0.0,0.25,-0.42,-0.36,0.52,0.0,17.8,30.3,2.0,2.25,4.75,9.25,9.25,7.5,1.75,4.75,1.0,3.25,1.75,0.5,2.0,0.14,0.08,0.95,771.41,-3.0,24.3
2.0,0.75,0.0,0.25,2.5,0.0,0.0,0.0,0.0,0.5,0.25,0.0,0.0,0.25,-0.55,-0.23,0.7,0.0,17.0,37.0,2.75,2.5,5.0,11.0,9.25,7.5,2.0,4.75,1.0,2.75,1.25,0.5,1.75,0.14,0.08,0.95,802.76,-4.4,29.5
2.02,0.75,0.0,0.25,2.25,0.0,0.0,0.0,0.0,0.5,0.25,0.0,0.0,0.25,-0.61,-0.11,0.89,19.14,17.0,35.8,3.75,2.5,5.0,11.5,9.5,7.75,2.0,3.75,1.0,2.75,0.5,0.25,1.5,0.14,0.08,0.95,832.94,-5.3,35.3
2.04,1.0,0.0,0.25,2.0,0.0,0.0,0.0,0.0,0.75,0.0,0.0,0.0,0.25,-0.55,0.08,0.95,42.35,19.6,40.0,3.25,2.5,5.75,12.5,11.0,7.75,2.0,3.5,0.75,2.75,0.0,0.25,1.25,0.14,0.08,0.95,872.63,-5.6,38.5
2.06,0.75,0.0,0.5,1.75,0.0,0.0,0.0,0.0,0.5,0.25,0.0,0.0,0.25,-0.42,0.27,1.08,57.6,18.3,34.5,3.5,2.75,6.5,12.5,11.0,7.75,2.25,3.5,0.5,2.0,0.75,0.25,1.5,0.08,0.08,0.95,909.23,-6.5,39.0
2.08,1.0,0.0,1.0,1.75,0.0,0.0,0.0,0.0,0.5,0.25,0.0,0.0,0.25,-0.3,0.39,1.2,72.53,21.3,40.4,4.5,3.0,6.5,14.0,11.0,7.75,2.25,2.5,0.5,1.5,1.0,0.25,1.25,0.08,0.08,0.95,949.42,-8.0,43.4
2.1,1.0,0.0,1.0,1.25,0.0,0.0,0.0,0.0,0.5,0.25,0.0,0.0,0.25,-0.3,0.52,1.39,75.07,21.8,38.3,4.5,3.0,6.75,14.0,12.0,7.75,2.25,2.0,0.5,1.5,0.5,0.25,1.25,0.08,0.14,0.95,981.64,-8.1,45.4
2.12,0.75,0.0,1.0,1.25,0.0,0.0,0.0,0.0,0.5,0.25,0.25,0.0,0.25,-0.23,0.64,1.52,74.09,20.4,28.6,5.5,3.0,7.25,14.5,12.0,7.75,2.25,2.0,0.5,1.75,0.75,0.25,1.0,0.08,0.14,0.95,1020.95,-8.8,46.1
2.14,0.5,0.25,1.0,1.25,0.0,0.0,0.0,0.0,0.5,0.25,0.0,0.0,0.25,-0.3,0.7,1.7,71.46,19.7,35.3,5.75,3.5,7.5,15.5,12.0,7.75,2.0,2.0,0.5,1.0,0.75,0.25,0.75,0.08,0.14,1.02,1053.79,-9.6,49.2
2.16,0.75,0.0,1.0,1.25,0.0,0.0,0.0,0.0,0.5,0.25,0.5,0.0,0.25,-0.42,0.77,1.89,70.84,19.9,23.0,6.0,3.5,7.5,15.5,11.5,7.5,1.5,0.25,0.5,1.0,0.75,0.25,0.0,0.14,0.14,1.02,1055.82,-11.0,54.4
2.18,0.75,0.0,1.25,0.75,0.0,0.0,0.0,0.0,0.5,0.0,0.0,0.0,0.25,-0.55,0.83,2.02,65.36,25.4,41.2,6.75,3.5,8.25,15.5,12.0,7.0,1.75,1.25,0.5,1.0,0.75,0.0,0.5,0.14,0.2,1.08,1070.26,-11.1,52.8
2.2,0.75,0.0,1.0,1.25,0.0,0.0,0.0,0.0,0.5,0.5,0.0,0.0,0.25,-0.42,0.95,2.2,66.38,18.9,28.4,7.0,3.5,8.5,15.0,12.0,6.0,1.25,0.75,0.5,1.25,1.0,0.0,0.25,0.08,0.2,1.14,1061.82,-12.0,53.8
2.22,0.75,0.0,1.0,1.0,0.0,0.0,0.0,0.0,0.5,0.5,0.5,0.0,0.25,-0.17,1.14,2.2,67.79,18.1,15.5,7.25,3.5,7.75,15.5,11.0,4.5,1.25,0.5,0.5,1.25,0.75,0.25,0.25,0.08,0.27,1.2,1033.78,-13.1,54.7
2.24,1.0,0.0,1.0,1.0,0.0,0.0,0.0,0.0,0.5,0.25,0.0,0.0,0.25,0.2,1.39,2.08,68.0,22.1,37.0,7.25,3.0,7.5,14.0,9.25,2.25,0.75,0.5,0.5,1.0,0.75,0.25,0.5,0.2,0.33,1.39,947.22,-15.0,55.0
2.26,0.75,0.0,1.0,1.0,0.0,0.0,0.0,0.0,0.5,0.25,0.0,0.0,0.25,0.7,1.58,1.14,66.18,21.3,33.2,6.0,2.0,6.5,11.5,8.0,0.5,0.75,0.5,0.25,0.0,0.25,0.0,0.5,0.45,0.45,1.52,794.15,-16.9,59.8
2.28,0.25,0.0,0.5,0.5,0.0,0.0,0.0,0.0,0.5,0.25,0.0,0.0,0.25,1.58,3.39,0.77,55.3,15.6,8.0,4.5,0.25,2.25,5.5,3.0,0.0,0.25,0.25,0.0,0.0,0.0,0.0,0.0,0.45,0.7,2.08,518.43,-19.9,66.6
2.3,0.0,0.0,0.5,0.5,0.0,0.0,0.0,0.0,0.5,0.25,0.0,0.0,0.25,1.95,4.39,0.08,43.48,13.3,-2.1,2.0,0.25,0.0,3.25,0.0,0.0,0.25,0.25,0.0,0.0,0.0,0.0,0.0,0.64,1.2,3.14,280.55,-21.5,67.6
2.32,0.0,0.0,0.5,0.5,0.0,0.0,0.0,0.0,0.5,0.25,0.0,0.0,0.25,1.64,2.39,0.45,32.79,13.3,-2.1,1.0,0.0,0.0,2.5,0.0,0.0,0.25,0.25,0.0,0.0,0.0,0.0,0.0,-0.11,0.89,2.45,105.67,-19.7,60.3
2.34,0.0,0.0,0.75,0.5,0.0,0.0,0.0,0.0,0.5,0.25,0.0,0.0,0.25,0.39,1.39,1.14,29.58,16.1,4.8,0.0,0.25,0.0,0.75,0.0,0.0,0.25,0.25,0.0,0.25,0.0,0.0,0.0,0.58,0.39,2.2,0.0,-7.5,27.4
2.36,0.25,0.0,1.0,0.5,0.0,0.0,0.0,0.0,0.5,1.0,0.75,0.25,0.25,-0.36,-0.17,3.02,39.85,11.8,-19.7,0.5,1.0,0.0,2.5,0.0,0.5,0.0,0.25,0.0,1.0,0.0,0.25,0.0,1.02,-0.55,2.08,0.0,-7.5,33.3
2.38,0.0,0.0,0.5,0.0,0.0,0.0,0.0,0.0,0.5,1.25,0.0,2.0,1.5,-1.17,0.08,1.7,62.12,0.4,-81.2,0.5,1.0,1.0,2.0,0.5,0.0,0.25,0.5,0.5,1.0,0.75,0.25,0.5,0.64,-0.73,0.83,0.0,-10.4,12.8
2.4,0.0,0.0,0.0,0.25,0.0,0.0,0.0,0.0,0.5,3.0,0.0,4.25,4.25,0.39,-0.05,0.77,120.92,-4.7,-95.1,0.5,0.5,1.0,2.0,0.5,0.0,0.25,0.5,0.25,1.0,0.25,0.25,0.25,0.52,-1.48,-0.48,0.0,-11.0,18.7
2.42,0.25,0.0,0.5,0.0,0.0,0.0,0.0,0.0,0.0,0.0,4.75,0.0,6.25,0.33,0.64,2.45,163.56,-0.9,-84.8,0.5,0.5,1.0,1.5,0.5,0.0,0.25,0.25,0.25,1.0,0.25,0.25,0.5,0.52,-0.48,0.95,0.0,-10.6,12.9
2.44,0.0,0.0,0.0,0.75,0.0,0.25,0.0,3.25,1.75,6.5,0.0,5.0,0.0,-0.23,0.33,1.2,218.58,-4.7,-67.3,0.5,0.75,1.0,1.25,0.5,1.0,0.25,0.25,0.25,1.0,0.25,0.25,0.5,0.08,-0.36,0.33,0.0,-6.3,16.8
2.46,0.0,0.0,0.0,1.0,0.0,0.5,0.25,5.5,1.0,6.5,5.75,4.75,6.0,0.08,0.14,1.14,308.43,-4.9,-73.3,0.5,0.75,1.0,1.25,0.25,1.0,0.25,0.25,0.25,1.0,0.25,0.25,0.5,0.08,-0.42,0.33,7.71,-6.7,15.4
2.48,0.0,0.0,0.0,0.0,0.0,1.25,0.25,5.5,0.0,6.5,5.75,5.0,6.0,-0.17,0.02,0.95,396.88,-6.5,-76.8,0.5,0.5,1.0,1.25,0.25,1.5,0.25,0.25,0.25,1.0,0.5,0.0,0.5,0.2,-0.36,0.7,46.24,-4.7,14.9
2.5,0.0,0.0,0.0,0.0,0.0,1.5,0.25,5.75,1.0,6.5,6.0,5.0,6.0,-0.17,0.08,0.95,487.59,-6.0,-74.5,0.75,0.75,1.0,1.0,0.25,1.25,0.25,0.25,0.25,1.0,0.0,0.0,0.75,0.27,-0.23,0.7,83.79,-5.4,19.9
2.52,0.0,0.0,0.0,1.25,0.0,1.0,0.5,5.75,1.75,6.5,6.5,5.0,6.0,-0.17,0.08,0.95,549.93,-4.1,-69.7,0.5,0.5,1.0,0.75,0.25,1.0,0.25,0.25,0.25,1.0,0.5,0.25,0.5,0.33,0.08,0.83,110.84,-5.8,5.9
2.54,0.0,0.0,0.0,2.25,0.0,1.5,0.5,6.0,2.5,6.5,6.75,5.25,6.25,-0.11,0.08,0.95,603.54,-3.4,-64.6,0.5,1.0,1.0,0.75,0.25,1.0,0.25,0.25,0.25,1.0,0.25,0.25,0.5,0.39,0.2,0.89,119.16,-6.2,15.3
2.56,0.0,0.0,0.0,2.25,0.25,1.5,0.75,6.0,2.75,6.5,7.25,5.5,6.25,-0.11,0.08,0.95,637.52,-2.9,-63.7,0.5,0.75,1.25,0.75,0.25,1.0,0.25,0.25,0.25,1.0,0.0,0.25,0.5,0.39,0.39,1.08,117.13,-6.9,17.1
2.58,0.0,0.0,0.0,2.0,0.0,1.5,0.75,6.0,2.75,6.5,7.25,5.25,6.25,-0.11,0.08,0.95,657.41,-3.1,-65.1,0.5,0.75,1.0,1.0,0.5,1.0,0.25,0.25,0.25,1.0,0.25,0.25,0.5,0.33,0.52,1.27,116.91,-5.9,15.4
2.6,0.0,0.0,0.25,1.5,0.0,1.25,0.75,6.0,2.75,6.5,7.0,5.0,6.0,-0.11,0.08,0.95,652.4,-3.1,-65.9,0.5,0.75,1.0,1.0,0.5,1.0,0.25,0.25,0.25,1.0,0.25,0.25,0.5,0.39,0.64,1.39,113.46,-5.9,15.4
2.62,0.0,0.0,0.0,2.25,1.75,2.0,0.75,6.0,2.75,6.25,6.5,4.75,6.0,-0.11,0.02,0.95,640.55,-3.5,-55.7,0.5,0.5,1.0,1.25,0.5,1.0,0.25,0.25,0.25,1.0,0.25,0.25,0.5,0.52,0.64,1.52,114.43,-6.1,14.0
2.64,0.75,0.0,1.25,2.5,2.5,2.0,0.75,6.0,3.0,5.75,6.5,4.25,5.25,-0.11,0.08,0.95,624.68,-1.1,-44.2,0.25,0.75,1.0,0.75,0.5,0.75,0.25,0.25,0.5,1.0,0.25,0.5,0.5,0.58,0.7,1.7,114.64,-5.9,4.4
2.66,0.0,0.0,1.25,2.25,2.75,2.25,0.75,6.0,3.25,5.25,6.25,3.25,4.25,-0.11,0.08,0.95,595.18,-1.8,-42.1,0.5,0.75,0.75,0.75,0.5,1.25,0.25,0.25,0.25,0.75,0.75,0.25,0.25,0.52,0.83,2.02,113.65,-5.2,14.4
2.68,0.0,0.75,1.25,3.75,4.0,2.5,0.75,6.0,3.25,4.5,5.5,3.0,4.0,-0.11,0.08,0.95,564.97,-0.9,-29.3,0.5,0.75,0.75,0.75,0.25,0.5,0.25,0.25,0.25,1.0,0.25,0.25,0.5,0.39,1.02,2.27,106.53,-6.8,8.5
2.7,1.0,0.25,1.25,4.25,4.25,2.75,0.75,5.75,3.25,4.5,5.5,2.25,2.75,-0.11,0.08,0.95,533.07,0.2,-21.4,0.5,0.75,1.0,0.75,0.5,0.0,0.25,0.25,0.25,0.75,0.25,0.25,0.5,0.33,1.14,1.83,100.79,-10.9,14.4
2.72,2.0,0.75,1.5,5.5,5.5,3.25,0.75,5.75,3.25,3.0,4.25,2.0,2.0,-0.11,0.08,0.95,534.92,2.0,-4.6,0.0,0.25,0.0,0.5,0.0,0.5,0.0,0.0,0.25,0.0,0.0,0.0,0.0,-0.11,1.08,0.7,72.02,-2.9,41.6
2.74,2.5,0.75,1.5,6.25,6.0,3.5,1.0,5.5,3.0,3.0,4.0,1.25,1.5,-0.11,0.08,0.95,540.14,2.7,3.0,0.5,0.5,0.0,0.75,0.0,1.25,0.0,0.0,0.25,0.0,0.0,0.0,0.0,-0.11,0.7,0.14,57.07,-3.8,54.1
2.76,2.5,1.25,2.25,7.25,6.25,3.25,1.0,5.5,2.75,2.0,3.75,1.0,1.5,-0.11,0.08,0.95,557.13,4.2,10.3,0.0,0.25,0.25,0.75,0.25,1.0,0.5,0.25,0.25,0.75,0.0,0.0,1.0,0.95,0.27,0.33,52.25,3.0,-9.5
2.78,2.75,1.25,2.75,7.5,7.0,3.5,1.0,5.25,2.75,1.25,3.25,1.0,1.25,-0.11,0.08,0.95,573.51,5.1,16.4,0.0,0.0,0.0,0.5,0.0,0.0,0.0,0.75,0.25,2.5,0.0,0.25,1.5,0.33,0.08,2.02,63.79,10.1,-67.7
2.8,2.25,1.5,2.75,8.5,7.5,3.75,1.0,4.75,2.5,1.25,2.5,1.0,1.0,-0.11,0.08,0.95,589.56,5.1,21.1,0.5,0.5,0.0,0.75,0.5,1.5,0.25,2.0,0.25,6.75,1.25,2.0,5.75,0.14,0.08,1.77,158.77,8.2,-60.5
2.82,2.5,2.25,3.0,9.0,7.5,3.75,1.0,4.75,1.75,1.25,2.5,1.0,1.0,-0.11,0.08,0.95,609.25,5.7,24.7,0.5,0.5,0.5,0.5,0.0,2.25,0.25,3.5,0.0,7.5,2.5,3.0,6.0,-0.42,0.52,2.52,255.82,7.5,-61.7
2.84,2.75,1.75,3.0,9.5,7.5,4.0,1.0,4.75,1.75,1.25,2.25,1.0,0.75,-0.11,0.08,0.95,623.79,5.8,26.1,0.5,0.5,0.5,0.5,0.5,3.25,0.25,3.5,0.5,7.5,3.0,3.0,6.25,0.14,0.45,1.14,348.11,7.3,-56.6
2.86,2.75,1.75,3.0,10.0,8.0,4.0,1.0,4.25,1.75,1.25,2.0,1.0,0.5,-0.11,0.14,0.95,635.52,6.2,29.0,0.75,0.5,0.5,0.5,0.5,4.5,0.25,3.5,0.25,6.75,2.5,2.0,6.0,0.02,0.02,0.95,405.59,8.4,-48.6
2.88,2.75,2.5,3.0,9.75,8.25,4.0,1.0,4.0,1.5,1.25,1.75,1.0,0.5,-0.11,0.14,0.95,644.85,6.2,31.7,0.5,0.0,0.75,0.75,0.5,4.5,0.25,4.75,0.25,6.75,2.0,1.5,5.0,0.14,0.14,0.89,435.4,9.3,-46.2
2.9,3.5,2.5,3.5,10.0,8.25,3.75,1.0,3.75,1.5,1.25,1.5,1.0,0.5,-0.11,0.14,0.95,658.14,7.4,34.3,1.0,0.5,0.75,0.75,1.0,5.75,0.25,5.0,0.25,6.75,2.0,1.75,5.0,0.2,0.08,0.89,448.35,8.6,-37.0
2.92,4.0,2.75,4.75,11.0,8.25,4.25,1.0,3.5,1.0,1.25,1.5,0.75,0.5,-0.11,0.14,0.95,683.08,8.6,38.6,1.0,0.5,0.75,0.75,2.75,6.0,0.25,5.75,0.5,6.75,2.5,1.75,4.75,0.14,0.14,0.95,473.08,8.1,-31.2
2.94,4.0,2.75,4.75,10.5,8.25,4.0,1.0,3.5,1.0,0.5,1.0,0.5,0.5,-0.11,0.14,0.95,691.24,9.1,42.5,1.25,1.0,0.75,0.75,4.5,7.0,0.25,6.5,0.0,6.25,3.25,1.5,4.0,0.2,0.08,0.95,515.19,7.6,-20.4
2.96,4.0,3.25,4.5,10.5,8.25,4.0,0.75,3.5,0.25,0.5,1.0,0.25,0.5,-0.17,0.14,1.02,689.2,8.8,45.4,1.75,1.0,0.75,1.0,4.75,7.5,0.25,6.5,0.5,5.5,2.5,1.25,3.25,0.14,0.08,0.95,547.38,6.9,-12.6
2.98,3.75,3.75,3.0,10.5,8.5,4.0,0.5,3.25,0.0,0.25,1.0,0.25,0.5,-0.17,0.14,1.02,667.89,7.7,47.1,1.5,1.25,0.75,2.0,4.75,7.75,0.25,6.5,0.5,5.25,2.5,1.5,2.25,0.14,0.14,0.95,562.74,6.1,-7.8
3.0,0.0,4.0,4.5,11.0,7.75,4.0,0.5,3.25,0.0,0.5,1.0,0.0,0.25,-0.17,0.14,1.14,631.66,6.8,44.6,1.75,1.25,0.75,2.75,6.0,7.75,0.25,7.0,1.0,5.25,3.75,0.5,2.5,0.14,0.08,0.89,584.78,5.2,-4.6
3.02,4.25,3.75,4.75,10.5,8.5,3.25,0.25,3.0,0.0,0.5,0.75,0.0,0.25,-0.17,0.14,1.2,622.24,9.9,51.0,1.75,1.5,0.75,3.0,6.5,8.25,0.25,7.25,1.0,4.75,3.0,1.0,2.25,0.2,0.08,0.95,601.51,5.1,-1.1
3.04,5.25,4.0,3.0,7.75,8.5,3.0,0.0,2.75,0.25,0.5,0.75,0.25,0.25,-0.17,0.2,1.2,597.09,9.0,50.6,1.75,1.5,0.75,4.0,7.5,8.5,0.25,7.25,1.0,4.0,2.5,1.0,2.25,0.2,0.08,0.95,618.04,4.6,4.1
3.06,5.0,4.0,3.0,9.25,8.25,1.75,1.5,3.25,0.5,0.25,1.0,0.0,0.5,-0.23,0.27,1.45,590.49,10.3,48.9,2.0,2.0,0.75,5.5,8.25,9.0,0.25,6.75,1.0,4.25,2.5,0.75,2.25,0.2,0.14,0.95,661.04,3.6,9.3
3.08,5.25,2.75,1.25,7.5,7.5,0.75,0.0,2.25,1.0,0.5,0.75,0.0,0.25,-0.42,0.2,2.14,529.43,10.2,49.5,1.75,2.25,1.0,5.75,9.25,9.5,0.25,6.5,0.5,3.5,2.0,0.75,2.25,0.14,0.08,0.95,701.24,3.6,14.3
3.1,3.25,2.5,1.25,5.25,3.0,0.0,0.0,2.25,0.5,0.0,0.75,0.25,0.25,-0.11,0.45,2.27,413.02,12.3,46.2,2.0,2.25,1.0,7.25,9.25,9.75,0.25,5.75,0.25,2.75,1.5,0.25,2.25,0.14,0.08,1.02,728.5,2.8,21.3
3.12,1.75,1.0,0.5,3.5,0.0,0.0,0.0,0.0,0.75,0.25,0.75,0.25,0.25,-0.11,0.52,2.2,276.07,18.1,38.3,2.75,2.25,1.0,7.5,10.5,10.0,0.25,4.75,0.25,2.75,1.0,0.25,1.75,0.14,0.08,0.95,745.85,1.9,27.5
3.14,0.75,0.75,0.0,2.5,0.0,0.0,0.0,0.0,0.5,0.0,0.75,0.0,0.25,0.52,-0.17,1.58,156.7,16.0,34.9,2.5,2.25,0.75,8.75,11.0,10.5,0.25,3.75,0.25,2.75,0.0,0.25,1.25,0.08,0.14,1.02,749.28,1.8,33.4
3.16,0.0,0.0,0.0,1.75,0.0,0.0,0.0,0.0,0.5,0.25,0.5,0.0,0.25,-0.23,-0.17,1.64,40.27,10.6,1.0,3.0,1.75,0.75,8.5,11.0,11.0,0.25,3.5,0.0,2.25,0.25,0.25,1.25,0.08,0.14,1.14,743.26,1.7,34.6
3.18,0.0,0.0,0.0,0.0,0.0,0.0,2.75,0.0,0.75,0.0,0.25,0.0,1.0,-0.3,-1.67,0.52,0.0,12.0,-37.2,3.25,1.5,0.75,7.5,11.0,10.5,0.0,2.0,0.25,1.5,0.0,0.25,0.5,0.08,0.14,1.2,705.63,0.9,41.7
3.2,1.0,0.5,0.0,2.0,0.0,0.0,0.0,0.75,2.75,0.0,0.0,0.0,0.25,0.14,-1.36,1.64,0.0,12.6,14.0,4.0,2.75,0.0,7.25,11.0,9.5,0.0,2.0,0.0,1.0,0.0,0.0,0.5,0.08,0.27,1.27,667.54,0.1,47.3
3.22,2.0,0.5,0.5,2.75,0.0,0.0,3.75,0.0,1.5,0.75,0.25,0.25,0.0,-0.48,-0.8,1.02,0.0,20.4,31.2,4.5,3.0,0.0,5.5,11.0,9.5,0.0,1.75,0.0,1.25,0.0,0.0,0.5,0.02,0.2,1.2,622.59,0.4,47.5
3.24,0.75,0.0,1.25,2.5,0.0,0.0,0.25,0.0,0.75,0.0,0.0,0.25,0.25,-1.11,-0.36,0.58,7.14,21.8,36.4,4.5,2.25,0.0,4.0,9.5,8.75,0.0,0.75,0.0,1.5,0.0,0.0,0.5,-0.05,0.33,1.14,554.3,0.6,47.4
3.26,0.75,0.0,1.25,1.0,0.0,0.0,0.0,0.0,0.25,0.0,0.0,0.0,0.25,-1.36,0.14,0.08,2.65,25.7,48.0,3.75,3.0,0.0,3.0,8.25,8.0,0.0,0.0,0.25,1.0,0.0,0.0,0.5,-0.23,0.52,1.08,477.61,0.2,50.9
3.28,1.0,0.0,1.75,1.75,0.0,0.0,0.0,0.0,0.5,0.25,0.75,0.0,0.25,-1.11,0.33,0.14,14.67,22.1,29.6,3.0,3.0,0.0,3.0,7.5,6.5,0.0,0.0,0.0,0.0,0.0,0.0,0.5,0.39,0.64,0.7,394.29,-0.6,56.6
3.3,0.0,0.0,1.0,0.5,0.0,0.0,0.25,0.0,0.5,0.0,0.75,0.0,0.0,-0.3,0.64,0.52,9.96,22.8,7.8,3.25,2.25,0.0,2.0,4.75,6.0,0.0,0.0,0.25,1.0,0.0,0.0,0.0,2.7,1.33,0.02,319.43,-0.5,52.8
3.32,0.75,0.0,0.0,1.25,0.0,0.0,0.0,0.0,0.5,0.5,1.0,0.0,0.25,0.45,3.45,0.64,28.06,12.3,-3.2,2.0,1.5,0.0,1.25,4.5,3.75,0.0,0.5,0.0,0.0,0.25,0.0,0.0,4.58,2.83,0.33,250.23,-0.2,54.4
3.34,0.75,0.0,1.0,2.25,0.0,0.0,0.0,0.0,0.0,0.0,0.75,0.0,0.25,-0.42,0.64,-0.11,51.44,21.4,36.4,0.0,0.0,0.0,0.0,2.75,2.0,0.0,0.0,0.25,0.5,0.0,0.25,0.0,1.27,-2.92,2.2,157.0,9.2,26.3
3.36,0.75,0.0,0.25,2.0,0.0,0.0,0.0,0.0,1.0,0.0,0.75,0.25,0.25,2.52,1.95,0.89,71.68,16.8,10.8,0.5,1.25,0.0,0.75,1.25,3.5,0.0,0.5,0.25,0.0,0.0,0.25,0.25,3.14,4.45,-1.3,89.44,4.7,37.9
3.38,1.75,0.0,1.25,0.0,0.0,0.0,0.0,0.0,0.75,0.0,0.0,0.0,0.0,1.58,1.08,-0.67,70.94,31.5,57.3,0.5,1.0,0.0,0.75,1.0,3.5,0.0,0.0,0.25,0.0,0.0,0.25,0.0,-1.36,1.83,1.52,38.75,4.3,45.7
3.4,0.75,0.0,0.0,2.25,0.0,0.0,0.0,0.0,0.5,0.25,0.75,0.0,0.0,1.64,0.83,0.08,71.72,16.5,24.8,0.5,1.25,0.0,0.75,1.25,2.75,0.0,0.5,0.25,1.0,0.0,0.25,0.5,-1.73,1.2,-0.92,32.19,4.8,21.5
3.42,1.0,0.0,0.0,1.25,0.0,0.0,0.0,0.0,0.25,0.25,0.0,0.0,0.25,-2.98,-0.23,1.77,59.84,16.9,36.8,0.5,0.5,0.0,0.75,1.75,2.25,0.0,0.25,0.0,1.0,0.0,0.25,0.25,-0.48,0.08,-0.36,31.83,5.2,23.7
3.44,0.75,0.0,0.0,2.0,0.0,0.0,0.0,0.0,0.5,0.0,0.75,0.0,0.25,1.08,-0.11,-0.55,55.59,16.5,20.5,0.5,0.25,0.0,0.75,1.0,2.25,0.0,0.25,0.25,1.0,0.0,0.25,0.0,-0.11,0.14,1.2,34.34,5.2,19.7
3.46,0.75,0.0,0.25,0.75,0.0,0.0,0.0,0.0,0.5,0.0,0.75,0.5,0.25,1.08,-0.36,0.08,52.47,16.8,-7.2,0.5,0.75,0.0,0.75,1.0,2.25,0.0,0.5,0.25,1.0,0.0,0.0,0.25,0.02,-0.36,1.7,40.37,5.1,23.1
3.48,0.75,0.0,0.25,1.5,0.0,0.0,0.0,0.0,0.5,0.0,0.75,1.0,0.25,0.89,0.02,0.14,64.16,16.1,-7.2,0.5,0.75,0.0,0.75,0.5,2.25,0.0,0.5,0.0,1.0,0.0,0.0,0.5,1.39,-0.55,0.52,49.78,6.2,17.7
3.5,1.25,0.0,0.25,0.5,0.0,0.0,0.0,0.0,0.5,0.5,0.75,1.0,0.25,0.64,-0.11,0.64,68.66,14.4,-18.0,0.5,0.5,0.0,0.75,0.5,2.25,0.0,0.5,0.25,1.0,0.0,0.0,0.5,3.14,-0.3,-0.86,61.57,6.2,12.5
3.52,0.75,0.0,0.5,1.0,0.0,0.0,0.0,0.0,0.5,0.5,1.75,1.0,0.0,0.95,-0.05,0.64,77.23,14.7,-22.4,0.5,0.75,0.0,0.75,0.5,2.25,0.25,0.5,0.25,1.0,0.0,0.0,0.5,3.08,0.77,-1.11,75.81,4.9,15.9
3.54,1.25,0.0,0.0,1.25,0.0,0.0,0.0,0.0,0.5,0.0,1.75,1.0,0.25,0.95,-0.17,0.58,85.3,15.7,-15.9,0.5,0.75,0.0,0.75,0.5,2.25,0.25,0.25,0.25,1.0,0.0,0.0,0.5,2.7,0.14,-0.73,89.45,4.5,17.9
3.56,0.75,0.0,0.0,0.5,0.0,0.0,0.0,1.0,0.5,0.25,0.0,1.0,0.0,1.14,0.14,0.77,79.05,6.9,-21.9,0.5,0.5,0.0,0.75,0.5,2.25,0.25,0.5,0.25,1.0,0.0,0.0,0.5,1.83,-0.8,-0.48,99.52,5.6,12.8
3.58,1.0,0.0,0.0,0.75,0.0,0.0,0.0,1.75,0.5,0.0,1.0,1.0,0.25,1.2,0.2,0.02,82.59,6.2,-25.9,0.5,0.75,0.0,0.75,0.5,2.25,0.0,0.5,0.25,1.0,0.0,0.25,0.0,0.95,-0.67,0.39,105.24,4.4,20.7
3.6,0.75,0.0,0.0,0.5,0.0,0.0,0.0,1.75,0.75,0.25,0.75,1.0,0.0,1.83,0.45,0.08,83.95,4.5,-31.7,0.5,0.5,0.25,0.25,0.5,2.25,0.25,0.25,0.25,0.75,0.25,0.25,0.5,0.14,-0.86,0.64,101.86,3.7,8.5
3.62,0.75,0.0,1.0,1.75,0.0,0.0,0.0,1.75,1.0,0.25,1.5,0.75,0.25,1.7,-0.11,-0.61,105.2,10.3,-11.8,0.5,0.75,0.5,0.0,0.5,2.25,0.25,0.25,0.25,1.0,0.0,0.25,0.5,0.27,-0.73,0.7,102.53,3.3,11.9
3.64,0.75,0.0,0.5,1.0,0.0,0.0,0.0,2.0,0.5,0.0,1.25,0.25,0.25,0.64,-0.36,0.27,108.57,7.1,-12.8,0.5,0.5,0.5,0.75,0.5,2.25,0.25,0.0,0.25,1.0,0.0,0.25,0.5,0.39,-0.3,0.89,104.36,1.1,15.6
3.66,1.0,0.0,0.75,0.5,0.0,0.0,0.0,1.75,0.5,0.25,1.0,0.0,0.25,-1.23,-0.98,0.64,110.73,8.5,-6.4,0.5,0.5,0.5,0.75,0.5,2.25,0.25,0.25,0.25,1.0,0.0,0.25,0.5,0.14,-0.23,0.95,109.65,1.6,13.8
3.68,0.75,0.0,0.75,0.75,0.0,0.0,0.0,1.75,0.5,0.25,0.0,0.5,0.25,-0.67,-0.8,1.2,101.0,7.4,-4.9,0.5,0.5,0.75,0.75,0.5,2.25,0.0,0.25,0.25,0.75,0.0,0.25,0.5,-1.23,0.77,0.33,112.9,0.3,18.3
3.7,1.0,0.0,0.25,0.5,0.0,0.0,0.0,1.75,0.5,0.25,0.0,0.25,0.25,0.95,-0.23,0.52,90.61,4.8,-5.0,0.5,0.5,0.5,0.5,0.5,2.25,0.25,0.25,0.25,1.0,0.0,0.25,0.5,-1.36,1.08,-0.23,113.18,2.3,12.1
3.72,0.75,0.0,0.25,1.25,0.0,0.0,0.0,1.75,0.25,0.0,0.0,0.0,0.25,3.45,0.08,-0.17,79.85,5.9,12.0,0.5,0.5,0.5,0.5,0.5,2.0,0.25,0.25,0.25,1.0,0.0,0.25,0.5,-0.48,0.83,-0.61,111.97,1.6,11.4
3.74,0.75,0.0,0.0,1.0,0.0,0.0,0.0,1.75,0.25,0.0,0.0,0.0,0.25,2.45,-0.17,-0.05,71.23,3.1,5.8,0.25,0.75,0.5,0.5,0.25,2.25,0.25,0.25,0.25,1.0,0.0,0.25,0.5,0.52,0.52,-0.48,109.7,3.0,10.7
3.76,0.0,0.0,0.0,0.0,0.0,0.0,0.25,0.0,1.25,0.0,0.0,0.0,0.0,0.7,-0.67,0.7,50.74,13.9,-32.7,0.5,0.5,0.5,0.5,0.5,2.25,0.25,0.25,0.25,1.0,0.0,0.0,0.5,0.77,0.2,-0.23,108.26,2.7,16.5
3.78,1.0,0.0,0.0,0.5,0.0,0.0,4.0,0.0,0.5,0.25,0.0,0.0,0.0,0.89,-0.73,0.45,49.06,25.7,33.1,0.5,0.5,0.75,0.5,1.25,2.0,0.0,0.25,0.5,1.25,0.0,0.25,0.5,2.08,-0.17,-0.17,115.54,1.1,13.0
3.8,1.0,0.0,0.25,0.5,0.0,0.0,0.0,0.0,0.5,0.0,0.0,0.0,0.25,1.02,-0.36,0.39,40.51,21.9,36.5,0.5,0.75,0.75,0.5,0.5,2.25,0.25,0.25,0.25,0.75,0.0,0.25,0.5,2.7,-0.23,-0.8,117.86,0.0,19.8
3.82,0.75,0.0,0.75,0.5,0.0,0.0,0.0,0.0,0.5,0.25,0.0,0.0,0.25,0.95,-0.17,0.58,39.28,20.5,26.6,0.5,0.75,0.5,0.75,0.5,2.0,0.25,0.25,0.25,1.0,0.0,0.25,0.25,2.27,-0.11,-0.8,118.76,0.0,20.6
3.84,0.75,0.0,1.0,0.5,0.0,0.0,0.0,0.0,0.5,0.0,0.0,0.25,0.25,0.83,-0.11,0.77,38.85,23.8,26.7,0.5,0.5,0.75,0.5,0.5,2.0,0.25,0.25,0.25,1.0,0.25,0.25,0.25,1.64,-0.05,-0.55,116.27,-0.6,14.6
3.86,0.75,0.0,1.0,0.5,0.0,0.0,0.0,0.0,0.5,0.0,0.0,0.0,0.25,-0.17,-0.17,0.64,40.56,25.1,38.0,0.75,0.5,0.5,0.75,0.5,2.0,0.25,0.25,0.25,1.0,0.0,0.25,0.5,0.83,0.14,-0.23,115.27,-0.1,15.8
3.88,0.75,0.0,1.0,0.5,0.0,0.0,0.0,0.0,0.5,0.25,0.0,0.0,0.25,-0.48,-0.17,0.39,44.49,21.9,29.3,0.5,0.75,0.75,0.75,0.5,2.0,0.25,0.25,0.25,1.0,0.25,0.25,0.5,0.33,0.27,0.02,116.99,-1.1,14.7
3.9,0.75,0.0,1.0,0.5,0.0,0.0,0.0,0.0,0.5,0.25,0.0,0.25,0.25,-0.55,-0.42,0.08,48.42,21.0,19.4,0.5,0.5,0.75,0.5,0.5,2.25,0.25,0.25,0.25,0.75,0.25,0.25,0.5,0.2,0.14,0.27,117.45,0.0,13.9
3.92,0.75,0.0,1.0,0.5,0.0,0.0,0.0,0.0,0.5,0.25,0.0,0.0,0.25,-0.11,-0.67,-0.17,51.34,21.9,29.3,0.5,0.5,0.75,0.75,0.25,2.0,0.25,0.25,0.25,0.75,0.0,0.25,0.25,0.52,-0.11,0.58,114.47,-1.7,21.3
3.94,0.75,0.0,1.0,0.5,0.0,0.0,0.0,0.0,0.5,0.0,0.0,0.0,0.25,0.45,-1.05,-0.05,51.8,25.1,38.0,0.5,0.75,0.75,0.75,0.25,2.25,0.25,0.0,0.0,0.25,0.0,0.25,0.75,0.45,-0.36,0.52,110.53,-1.6,26.5
3.96,0.75,0.0,0.25,1.0,0.0,0.0,0.0,1.5,0.25,0.25,0.0,0.0,0.25,0.7,-1.11,-0.11,57.8,5.3,7.0,0.5,0.5,0.75,0.75,0.25,2.0,0.25,0.25,0.25,1.0,0.0,0.25,0.25,0.64,-0.42,0.2,107.78,-1.0,17.8
3.98,0.75,0.0,0.0,0.5,0.0,0.0,0.0,0.0,0.5,0.25,0.0,0.0,0.25,0.95,-1.17,-0.05,52.61,14.4,14.6,0.5,0.5,0.75,0.5,0.5,1.75,0.25,0.25,0.25,0.75,0.25,0.25,0.5,1.02,-0.42,-0.23,106.17,-1.5,12.6
4.0,0.75,0.0,0.0,0.5,0.0,0.0,0.0,1.25,0.5,0.25,0.0,0.5,0.25,0.83,-1.11,0.02,56.28,3.9,-17.7,0.25,0.5,0.5,0.75,0.5,2.0,0.25,0.25,0.25,1.0,0.0,0.25,0.5,0.95,-0.3,-0.3,105.59,2.1,10.2
4.02,0.75,0.0,0.0,0.5,0.0,0.0,0.0,0.0,0.25,0.25,0.0,0.0,0.25,0.77,-0.98,0.02,45.51,14.6,21.3,0.5,0.5,0.75,0.75,0.5,1.75,0.25,0.25,0.25,1.0,0.0,0.25,0.5,0.83,-0.17,-0.3,106.86,-1.1,14.1
4.04,1.0,0.0,0.0,0.5,0.0,0.0,0.0,0.0,0.25,0.0,0.0,0.25,0.25,0.64,-0.73,0.2,42.77,19.6,25.6,0.5,0.5,0.75,0.5,0.25,2.0,0.25,0.25,0.25,1.0,0.0,0.25,0.5,0.77,-0.11,-0.17,107.36,0.0,11.5
4.06,0.75,0.0,0.0,0.5,0.0,0.0,0.0,0.0,0.5,0.0,0.0,0.0,0.25,0.52,-0.42,0.33,34.84,18.2,26.1,0.5,0.5,0.75,0.75,0.25,2.0,0.25,0.25,0.25,0.75,0.0,0.25,0.5,0.83,0.08,-0.11,107.37,-1.1,16.4
4.08,1.0,0.0,0.0,0.5,0.0,0.0,0.0,0.0,0.5,0.0,0.0,0.0,0.25,0.58,-0.23,0.2,33.62,20.0,33.7,0.5,0.5,0.75,0.5,0.5,1.75,0.25,0.25,0.25,1.0,0.0,0.25,0.5,0.83,0.2,-0.17,106.82,-0.5,12.4
4.1,0.75,0.0,0.0,0.5,0.0,0.0,0.0,0.0,0.5,0.25,0.0,0.0,0.25,0.77,-0.17,0.33,32.1,14.4,14.6,0.5,0.25,0.75,0.5,0.5,1.25,0.25,0.25,0.25,0.0,0.0,0.25,0.5,0.95,0.33,-0.23,98.2,-5.2,23.2
4.12,1.0,0.0,0.0,0.5,0.0,0.0,0.0,0.0,0.5,0.5,0.0,0.0,0.25,0.83,-0.17,0.33,35.05,13.4,13.5,0.5,0.5,0.5,0.5,0.5,1.75,0.25,0.25,0.25,0.5,0.25,0.25,0.5,0.95,0.33,-0.3,96.25,-0.6,14.1
4.14,1.0,0.0,0.25,0.5,0.0,0.0,0.0,0.0,0.25,0.25,0.0,0.0,0.25,0.83,-0.3,0.39,36.96,19.0,32.7,0.5,0.5,0.75,1.5,0.25,1.75,0.25,0.25,0.25,0.75,0.0,0.25,0.5,0.95,0.39,-0.3,101.13,-3.6,20.3
4.16,0.75,0.0,0.0,0.5,0.0,0.0,0.0,0.0,0.5,0.0,0.0,0.0,0.25,0.7,-0.42,0.45,35.76,18.2,26.1,1.25,1.25,0.5,1.0,0.25,1.75,0.0,0.25,0.25,0.75,0.0,0.25,0.5,0.89,0.39,-0.36,111.94,-4.7,30.8
4.18,0.75,0.0,0.0,0.5,0.0,0.0,0.0,0.0,0.5,0.25,0.0,0.0,0.25,0.52,-0.55,0.39,34.93,14.4,14.6,0.5,0.5,0.75,0.5,0.5,2.0,0.25,0.25,0.25,1.0,0.0,0.25,0.25,0.83,0.45,-0.42,114.07,-0.2,17.8
4.2,0.75,0.0,0.0,0.5,0.0,0.0,0.0,0.0,0.25,0.0,0.0,0.0,0.25,0.52,-0.55,0.33,31.52,19.0,35.3,0.5,0.5,0.75,0.75,0.25,2.0,0.25,0.25,0.25,0.5,0.0,0.0,0.5,0.83,0.45,-0.3,112.37,-1.5,25.0
4.22,0.75,0.0,0.25,0.5,0.0,0.0,0.0,0.0,0.5,0.25,0.0,0.0,0.25,0.52,-0.61,0.33,34.58,16.8,19.4,0.5,0.5,0.75,0.5,0.5,1.25,0.25,0.25,0.25,0.0,0.0,0.25,0.5,0.77,0.39,-0.23,102.57,-5.6,26.8
4.24,0.75,0.0,0.25,0.5,0.0,0.0,0.0,0.0,0.25,0.5,0.0,0.0,0.25,0.52,-0.61,0.39,35.82,14.0,15.6,0.5,0.75,0.75,0.0,0.25,1.25,0.25,0.25,0.25,1.0,0.0,0.25,0.5,0.7,0.33,-0.17,95.45,-1.6,8.4
4.26,1.0,0.0,0.5,0.5,0.0,0.0,0.0,0.0,0.5,0.25,0.0,0.25,0.25,0.58,-0.55,0.39,44.14,19.3,18.5,0.5,0.75,0.75,0.25,0.25,0.25,0.25,0.25,0.25,0.75,0.0,0.25,0.5,0.64,0.27,-0.11,85.84,-8.0,10.4
4.28,1.0,0.0,0.25,0.5,0.0,0.0,0.0,0.0,0.25,0.25,0.0,0.25,0.25,0.58,-0.55,0.52,46.02,18.1,19.6,0.5,0.5,0.75,0.75,0.5,2.0,0.25,0.25,0.25,0.75,0.0,0.25,0.5,0.77,0.2,-0.11,92.72,-0.9,17.9
4.3,0.75,0.0,0.0,0.5,0.0,0.0,0.0,0.0,0.5,0.25,0.0,0.0,0.25,0.64,-0.42,0.45,44.84,14.4,14.6,0.25,0.5,0.75,0.5,0.25,1.75,0.25,0.25,0.25,0.0,0.0,0.25,0.5,0.83,0.2,-0.17,90.29,-2.2,22.9
4.32,1.0,0.0,0.25,0.5,0.0,0.0,0.0,0.0,0.5,0.25,0.0,0.0,0.25,0.7,-0.36,0.45,44.31,18.4,26.2,1.0,0.5,0.75,0.5,0.25,2.0,0.25,0.25,0.25,1.0,0.0,0.25,0.5,0.89,0.14,-0.17,100.08,-2.1,17.0
4.34,1.0,0.0,0.0,0.5,0.0,0.0,0.0,0.0,0.25,0.0,0.0,0.25,0.25,0.77,-0.3,0.39,41.42,19.6,25.6,0.5,1.0,0.5,0.5,0.25,1.25,0.25,0.25,0.25,0.5,0.0,0.25,0.5,0.64,-0.17,0.2,98.4,-3.4,21.6
4.36,1.0,0.0,0.25,0.5,0.0,0.0,0.0,0.0,0.0,0.25,0.0,0.0,0.25,0.7,-0.3,0.39,39.91,19.8,40.6,0.5,0.5,0.5,0.0,0.5,1.5,0.25,0.25,0.25,0.75,0.0,0.0,0.5,1.2,-0.11,-0.17,94.27,1.4,14.5
4.38,0.75,0.0,0.25,0.5,0.0,0.0,0.0,0.0,0.25,0.25,0.0,0.0,0.25,0.77,-0.3,0.45,38.66,17.4,25.8,1.0,0.5,0.75,0.75,0.5,1.25,0.25,0.25,0.25,1.0,0.0,0.25,0.5,1.02,0.08,-0.3,96.79,-4.9,18.3
4.4,1.0,0.0,0.0,0.5,0.0,0.0,0.0,0.0,0.25,0.75,0.0,0.0,0.25,0.77,-0.3,0.39,40.79,10.8,10.0,0.5,0.5,0.5,0.25,0.5,1.75,0.25,0.25,0.25,1.0,0.0,0.25,0.5,0.89,0.2,-0.23,98.35,1.6,8.6
4.42,1.0,0.0,0.0,0.5,0.0,0.0,0.0,0.0,0.5,0.25,0.0,0.0,0.25,0.77,-0.3,0.39,40.62,16.3,22.5,0.5,1.0,0.75,1.0,0.5,1.0,0.25,0.25,0.25,0.75,0.0,0.25,0.25,0.83,0.2,-0.17,104.4,-6.4,28.3
4.44,0.75,0.0,0.5,0.5,0.0,0.0,0.0,0.0,0.25,0.25,0.0,0.0,0.25,0.77,-0.3,0.45,41.56,19.5,29.5,0.5,0.25,0.5,0.5,0.5,1.75,0.25,0.25,0.25,0.0,0.0,0.25,0.25,0.77,0.2,-0.23,98.75,-1.9,29.0
4.46,0.75,0.0,0.0,0.5,0.0,0.0,0.0,0.0,0.25,0.25,0.0,0.0,0.25,0.77,-0.3,0.45,38.02,14.6,21.3,1.0,0.5,0.5,1.0,0.5,1.5,0.25,0.25,0.25,1.0,0.0,0.25,0.5,0.7,0.2,-0.23,105.51,-3.3,18.7
4.48,1.0,0.0,0.0,0.5,0.0,0.0,0.0,0.0,0.25,0.5,0.25,0.0,0.25,0.83,-0.3,0.33,39.1,13.2,10.3,0.5,0.5,0.75,0.25,0.25,1.75,0.25,0.25,0.25,1.0,0.0,0.25,0.5,0.77,0.2,-0.23,102.41,0.0,8.7
4.5,0.75,0.0,0.0,0.5,0.0,0.0,0.0,0.0,0.0,0.25,0.0,0.0,0.25,0.89,-0.61,0.2,34.72,15.0,29.8,0.5,1.0,0.75,0.5,0.25,1.0,0.25,0.25,0.25,1.0,0.0,0.25,0.5,0.77,0.2,-0.3,104.04,-4.2,15.2
4.52,0.75,0.0,0.0,0.5,0.0,0.0,0.0,0.0,0.25,0.25,0.0,0.0,0.25,1.27,-0.61,0.02,34.05,14.6,21.3,0.5,0.5,0.75,0.5,0.25,1.25,0.25,0.25,0.25,0.0,0.0,0.0,0.5,0.77,0.27,-0.3,94.28,-5.9,32.2
4.54,0.75,0.0,0.0,0.5,0.0,0.0,0.0,0.0,0.25,0.25,0.0,0.0,0.25,1.64,-0.86,0.33,32.19,14.6,21.3,0.5,1.0,0.75,0.5,0.25,1.25,0.25,0.25,0.25,1.0,0.0,0.25,0.5,0.77,0.2,-0.3,97.24,-3.3,15.8
4.56,0.75,0.0,0.5,0.5,0.0,0.0,0.0,0.0,0.25,0.25,0.0,0.0,0.25,1.39,-0.86,0.27,34.77,19.5,29.5,0.25,0.5,0.5,0.5,0.5,2.0,0.25,0.25,0.25,1.0,0.0,0.25,0.5,0.77,0.2,-0.23,96.61,2.9,8.3
4.58,0.75,0.0,0.75,0.5,0.0,0.0,0.0,0.0,0.25,0.25,0.0,0.0,0.25,0.95,-0.61,0.27,38.99,21.3,32.4,0.25,0.25,0.75,0.25,0.5,1.5,0.25,0.25,0.0,0.75,0.0,0.25,0.5,0.77,0.2,-0.17,94.96,1.0,7.9
4.6,0.75,0.0,0.5,0.5,0.0,0.0,0.0,0.0,0.25,0.25,0.0,0.5,0.25,0.7,-0.42,0.27,43.8,17.7,6.3,0.5,0.5,0.75,0.5,0.25,1.25,0.25,0.25,0.0,0.25,0.25,0.0,0.5,0.83,0.2,-0.17,89.95,-4.8,25.3
4.62,0.75,0.0,0.0,0.5,0.0,0.0,0.0,0.5,0.25,0.25,0.0,0.0,0.25,0.39,-0.17,0.27,44.3,8.3,9.2,0.5,0.75,0.75,0.75,0.25,1.5,0.25,0.25,0.25,1.0,0.0,0.0,0.5,0.95,0.2,-0.17,91.97,-2.3,19.6
4.64,0.75,0.0,0.25,0.5,0.0,0.0,0.0,0.25,0.25,0.25,0.0,0.0,0.25,0.33,0.02,0.33,43.67,13.9,19.3,0.5,0.5,0.0,0.5,0.25,1.25,0.25,0.5,0.25,0.0,0.25,0.0,0.0,0.95,0.2,-0.23,83.38,-1.2,34.0
4.66,0.75,0.0,0.25,0.5,0.0,0.0,0.0,0.25,0.25,0.25,0.0,0.0,0.25,0.39,0.08,0.39,42.64,13.9,19.3,0.5,0.5,0.5,0.5,0.25,1.25,0.25,0.5,0.25,0.75,0.25,0.0,0.5,0.89,0.27,-0.23,84.6,-1.0,9.7
4.68,0.75,0.0,0.5,0.5,0.0,0.0,0.0,1.5,0.25,0.25,0.0,0.0,0.25,0.52,0.02,0.39,50.03,5.9,3.8,1.25,0.75,0.5,0.5,0.25,1.75,0.25,0.5,0.25,0.75,0.25,0.25,0.5,0.89,0.27,-0.23,94.65,-3.3,18.5
4.7,0.75,0.0,0.0,0.5,0.0,0.0,0.0,1.5,0.25,0.25,0.0,0.0,0.25,0.77,-0.17,0.39,54.23,1.1,-4.5,0.5,1.0,0.75,0.5,0.25,1.75,0.25,0.25,0.25,0.75,0.0,0.25,0.5,0.83,0.27,-0.23,102.02,-2.2,20.4
4.72,0.75,0.0,0.0,0.5,0.0,0.0,0.0,1.5,0.25,0.25,0.0,0.0,0.25,1.02,-0.3,0.39,57.9,1.1,-4.5,0.5,0.5,0.75,0.75,0.25,1.25,0.25,0.25,0.25,1.0,0.0,0.25,0.5,0.77,0.27,-0.17,105.58,-3.1,10.9
4.74,0.75,0.0,0.0,0.5,0.0,0.0,0.0,0.5,0.25,0.25,0.0,0.0,0.25,1.2,-0.42,0.39,53.95,8.3,9.2,1.25,0.5,0.5,0.5,0.25,2.0,0.25,0.25,0.25,0.75,0.0,0.25,0.5,0.77,0.2,-0.17,109.8,-2.5,21.3
4.76,0.75,0.0,0.0,0.5,0.0,0.0,0.0,1.5,0.25,0.25,0.0,0.0,0.25,1.27,-0.48,0.39,53.95,1.1,-4.5,0.25,0.75,0.75,0.75,0.25,1.0,0.25,0.25,0.25,1.0,0.25,0.25,0.5,0.77,0.2,-0.17,108.09,-3.6,7.1
4.78,0.75,0.0,0.25,0.5,0.0,0.0,0.0,1.5,0.5,0.5,0.0,0.0,0.25,1.2,-0.42,0.39,57.09,3.0,-6.7,0.5,0.5,0.5,0.5,0.25,1.75,0.25,0.25,0.25,0.75,0.25,0.25,0.5,0.77,0.2,-0.17,104.37,-0.2,8.7
4.8,0.75,0.0,0.0,0.5,0.0,0.0,0.0,0.0,0.25,0.0,0.0,0.0,0.25,0.95,-0.36,0.39,49.63,19.0,35.3,1.25,0.75,0.5,0.5,0.25,1.75,0.25,0.25,0.25,0.75,0.0,0.25,0.5,0.83,0.2,-0.23,107.38,-3.7,23.8
4.82,0.75,0.0,1.0,0.5,0.0,0.0,0.0,1.75,0.0,0.25,0.0,0.0,0.25,0.7,-0.3,0.39,57.1,8.0,10.3,0.5,0.75,0.75,0.5,0.25,1.0,0.25,0.25,0.25,0.75,0.25,0.25,0.5,0.89,0.14,-0.23,106.0,-5.0,11.8
4.84,0.75,0.0,0.25,0.5,0.0,0.0,0.0,1.75,0.0,0.25,0.0,0.0,0.25,0.58,-0.23,0.33,58.0,1.7,-0.1,0.25,0.25,1.0,0.25,0.25,2.0,0.25,0.25,0.25,0.75,0.0,0.25,0.5,0.89,0.14,-0.23,102.72,0.4,8.1
4.86,0.75,0.0,1.0,0.5,0.0,0.0,0.0,1.5,0.0,0.25,0.0,0.0,0.25,0.52,-0.23,0.33,65.07,9.4,13.2,0.25,0.5,0.75,0.75,0.25,2.25,0.25,0.25,0.25,1.0,0.0,0.25,0.5,0.89,0.14,-0.23,103.88,1.3,11.1
4.88,0.75,0.0,0.75,0.5,0.0,0.0,0.0,1.75,0.25,0.25,0.0,0.0,0.25,0.52,-0.3,0.39,68.12,6.5,4.7,0.5,1.0,0.75,0.75,0.25,1.5,0.25,0.25,0.25,1.0,0.0,0.25,0.5,0.89,0.14,-0.23,108.16,-2.9,18.0
4.9,0.75,0.0,1.0,0.5,0.0,0.0,0.0,1.75,0.25,0.25,0.0,0.0,0.25,0.58,-0.36,0.39,74.01,8.2,7.8,0.5,0.5,0.75,0.5,0.25,1.5,0.25,0.25,0.25,1.0,0.0,0.25,0.5,0.83,0.14,-0.23,105.21,-1.6,9.8
4.92,0.75,0.0,1.0,0.5,0.0,0.0,0.0,1.75,0.25,0.25,0.0,0.0,0.25,0.64,-0.48,0.39,75.89,8.2,7.8,0.0,0.5,0.75,0.75,0.25,1.25,0.25,0.25,0.25,1.0,0.0,0.25,0.5,0.83,0.14,-0.23,100.37,-0.6,4.0
4.94,0.75,0.0,0.5,0.5,0.0,0.0,0.0,1.75,0.25,0.25,0.0,0.25,0.25,0.7,-0.55,0.33,76.78,4.8,-4.8,0.5,0.5,0.75,0.5,0.25,1.75,0.0,0.25,0.25,1.0,0.25,0.25,0.5,0.77,0.14,-0.23,100.75,-0.5,7.2
4.96,0.75,0.0,0.5,0.5,0.0,0.0,0.0,1.75,0.5,0.25,0.0,0.0,0.25,0.77,-0.55,0.39,76.52,4.9,-0.8,0.5,0.0,0.75,0.75,0.25,1.25,0.25,0.25,0.25,1.0,0.25,0.25,0.5,0.77,0.14,-0.23,97.41,-2.6,0.0
4.98,0.75,0.0,0.75,0.5,0.0,0.0,0.0,1.75,0.5,0.25,0.0,0.0,0.25,0.77,-0.55,0.39,76.76,6.7,2.5,0.75,0.75,0.75,0.75,0.25,2.0,0.25,0.25,0.25,0.75,0.0,0.25,0.5,0.83,0.14,-0.23,103.17,-2.6,21.9
5.0,0.75,0.0,0.75,0.5,0.0,0.0,0.0,1.75,0.25,0.25,0.0,0.0,0.25,0.77,-0.42,0.39,75.27,6.5,4.7,0.25,0.75,0.75,0.5,0.25,0.5,0.25,0.25,0.25,1.0,0.25,0.25,0.5,0.83,0.14,-0.17,99.57,-5.1,2.6
5.02,0.75,0.0,1.0,0.5,0.0,0.0,0.0,1.75,0.25,0.25,0.0,0.0,0.5,0.77,-0.36,0.39,77.31,7.0,1.7,0.5,0.5,0.75,0.5,0.5,1.75,0.25,0.25,0.25,0.5,0.0,0.25,0.5,0.83,0.14,-0.17,100.78,-1.8,19.3
5.04,0.75,0.0,0.5,0.5,0.0,0.0,0.0,1.75,0.25,0.25,0.0,0.0,0.25,0.77,-0.3,0.39,75.5,4.5,1.3,0.5,0.5,0.75,0.5,0.5,1.5,0.25,0.25,0.25,1.0,0.25,0.25,0.5,0.83,0.14,-0.17,100.76,-1.7,8.6
5.06,0.75,0.0,0.0,0.5,0.0,0.0,0.0,1.75,0.25,0.5,0.0,0.0,0.25,0.83,-0.3,0.39,69.52,-1.0,-11.2,0.5,0.75,0.75,0.75,0.25,1.5,0.25,0.25,0.25,0.75,0.25,0.25,0.5,0.83,0.14,-0.17,104.82,-3.5,15.1
5.08,0.75,0.0,0.75,0.5,0.0,0.0,0.0,1.75,0.25,0.25,0.0,0.0,0.25,0.83,-0.3,0.39,68.55,6.5,4.7,0.5,0.5,0.75,0.25,0.25,2.0,0.0,0.25,0.25,1.0,0.25,0.25,0.5,0.89,0.14,-0.17,105.01,0.9,6.2
5.1,0.75,0.0,0.25,0.5,0.0,0.0,0.0,1.75,0.25,0.25,0.0,0.0,0.25,0.89,-0.3,0.45,65.11,2.3,-2.5,0.5,0.5,0.75,0.5,0.5,2.0,0.25,0.25,0.25,0.75,0.0,0.25,0.5,0.89,0.14,-0.23,106.72,-0.3,16.4
5.12,0.75,0.0,0.75,0.5,0.0,0.0,0.0,1.75,0.25,0.25,0.0,0.0,0.25,0.89,-0.3,0.39,66.3,6.5,4.7,0.0,0.75,0.75,0.75,0.25,1.25,0.25,0.25,0.25,0.5,0.25,0.25,0.5,0.89,0.14,-0.17,102.93,-2.9,11.6
5.14,0.75,0.0,0.5,0.5,0.0,0.0,0.0,1.75,0.0,0.25,0.0,0.0,0.25,0.89,-0.36,0.45,64.69,4.1,3.8,0.5,0.5,0.75,0.5,0.5,1.75,0.25,0.25,0.25,0.75,0.25,0.25,0.5,0.83,0.14,-0.17,104.35,-1.5,12.6
5.16,0.75,0.0,0.75,0.5,0.0,0.0,0.0,1.75,0.0,0.25,0.0,0.0,0.25,0.89,-0.36,0.45,65.86,6.1,7.2,0.5,0.5,0.5,0.5,0.25,1.75,0.25,0.25,0.25,1.0,0.25,0.25,0.5,0.83,0.14,-0.23,103.1,0.3,5.5
5.18,0.75,0.0,1.0,0.5,0.0,0.0,0.0,1.5,0.0,0.25,0.0,0.0,0.25,0.83,-0.42,0.39,65.92,9.4,13.2,0.5,0.75,0.75,0.5,0.25,1.25,0.25,0.25,0.25,1.0,0.0,0.25,0.5,0.83,0.14,-0.23,102.53,-2.9,12.5
5.2,0.75,0.0,1.0,0.5,0.0,0.0,0.0,1.75,0.25,0.25,0.0,0.0,0.25,0.7,-0.42,0.39,69.3,8.2,7.8,0.25,0.5,0.75,0.5,0.25,1.5,0.25,0.25,0.25,0.75,0.0,0.25,0.5,0.83,0.14,-0.23,98.69,-1.0,9.9
5.22,0.75,0.0,0.0,0.5,0.0,0.0,0.0,1.75,0.25,0.25,0.0,0.0,0.25,0.7,-0.42,0.39,65.95,0.0,-6.8,0.5,0.0,0.5,0.5,0.25,1.25,0.25,0.25,0.25,0.75,0.0,0.25,0.5,0.83,0.14,-0.23,90.79,-0.6,1.3
5.24,0.5,0.0,0.0,0.5,0.0,0.0,0.25,1.25,0.0,0.25,0.0,0.0,0.25,0.7,-0.42,0.39,58.69,0.2,-5.6,1.25,0.5,0.75,0.5,0.5,2.0,0.0,0.25,0.25,1.0,0.0,0.25,0.5,0.83,0.14,-0.23,99.05,-2.4,20.6
5.26,0.5,0.0,0.5,0.5,0.0,0.0,0.0,1.75,0.0,0.25,0.0,0.0,0.25,0.7,-0.42,0.39,55.51,2.1,-2.0,0.0,0.0,0.75,0.0,0.25,0.0,0.25,0.25,0.0,0.0,0.25,0.0,0.0,0.89,0.14,-0.23,74.33,-18.4,22.6
5.28,0.75,0.0,1.0,0.5,0.0,0.0,0.0,1.5,0.0,0.25,0.0,0.0,0.25,0.7,-0.42,0.39,58.0,9.4,13.2,0.0,0.0,0.0,0.0,0.0,0.0,0.0,0.0,0.0,0.0,0.0,0.0,0.0,0.83,0.14,-0.17,44.55,0.0,0.0
5.3,0.75,0.0,0.75,0.5,0.0,0.0,0.0,1.75,0.0,0.25,0.75,0.0,0.25,0.7,-0.42,0.39,65.13,6.8,-4.7,0.0,0.0,0.0,0.0,0.0,1.25,0.0,0.0,0.25,0.5,0.0,0.0,0.0,0.89,0.14,-0.17,22.67,16.5,-3.6
5.32,0.75,0.0,0.5,0.5,0.0,0.0,0.0,1.25,0.0,0.25,0.75,0.0,0.25,0.77,-0.42,0.39,67.54,7.7,-4.7,0.25,0.25,1.0,0.25,0.25,1.5,0.25,0.25,0.25,0.0,0.0,0.25,0.5,0.89,0.14,-0.17,30.4,-4.0,18.5
5.34,0.75,0.0,0.0,0.5,0.0,0.0,0.0,1.75,0.0,0.25,0.5,0.0,0.25,0.77,-0.42,0.39,67.52,0.4,-13.2,0.5,0.5,1.0,0.5,0.25,2.0,0.25,0.25,0.25,0.0,0.0,0.5,0.5,0.89,0.14,-0.23,52.37,-4.2,22.4
5.36,0.75,0.0,0.5,0.5,0.0,0.0,0.0,1.25,0.0,0.25,0.75,0.0,0.25,0.77,-0.42,0.45,65.79,7.7,-4.7,0.5,0.5,0.75,0.5,0.25,1.5,0.25,0.25,0.25,0.5,0.25,0.25,0.5,0.89,0.14,-0.23,75.43,-3.3,13.4
5.38,0.75,0.0,0.5,0.5,0.0,0.0,0.0,1.75,0.0,0.25,0.75,0.0,0.25,0.83,-0.36,0.45,67.7,5.1,-8.3,0.5,0.5,0.75,0.0,0.25,1.25,0.25,0.25,0.25,0.75,0.25,0.25,0.5,0.89,0.14,-0.17,86.65,-2.3,4.4
5.4,0.75,0.0,0.25,0.5,0.0,0.0,0.0,1.25,0.0,0.25,0.75,0.0,0.25,0.83,-0.36,0.45,66.06,5.7,-9.0,0.5,0.5,0.75,1.0,0.25,1.25,0.25,0.25,0.25,0.75,0.0,0.25,0.5,0.83,0.14,-0.17,94.24,-4.4,16.2
5.42,0.75,0.0,0.75,0.25,0.0,0.0,0.0,1.0,0.0,0.25,0.75,0.0,0.25,0.77,-0.42,0.45,65.48,10.6,-2.5,0.5,0.5,0.5,0.5,0.25,1.25,0.25,0.25,0.0,0.5,0.25,0.25,0.5,0.77,0.14,-0.17,92.99,-2.4,12.6
5.44,0.75,0.0,0.75,0.25,0.0,0.0,0.0,1.0,0.0,0.25,0.5,0.0,0.25,0.77,-0.42,0.39,62.93,10.6,2.2,0.5,0.75,0.75,0.5,0.25,1.25,0.25,0.25,0.25,0.75,0.25,0.25,0.5,0.7,0.14,-0.23,98.15,-3.9,12.6
5.46,1.25,0.0,1.0,0.25,0.0,0.0,0.0,1.75,0.0,0.25,0.75,0.0,0.25,0.77,-0.42,0.39,70.79,10.2,4.1,0.5,0.75,0.75,0.75,0.5,1.25,0.25,0.25,0.25,0.75,0.25,0.25,0.5,0.7,0.14,-0.23,105.16,-4.1,16.0
5.48,0.75,0.0,1.0,0.25,0.0,0.0,0.0,1.75,0.0,0.25,0.5,0.0,0.25,0.77,-0.42,0.39,73.3,7.7,-1.0,0.5,0.25,0.75,0.5,0.25,1.25,0.25,0.25,0.25,0.75,0.25,0.25,0.5,0.77,0.14,-0.23,106.33,-3.2,5.0
5.5,0.75,0.0,1.0,0.5,0.0,0.0,0.0,1.75,0.0,0.0,0.5,0.0,0.25,0.7,-0.42,0.39,76.18,9.5,6.1,0.5,0.5,0.75,0.5,0.5,1.25,0.25,0.25,0.0,0.0,0.25,0.0,0.5,0.89,0.14,-0.23,105.69,-5.3,31.7
5.52,0.75,0.0,1.0,0.25,0.0,0.0,0.0,1.75,0.0,0.0,0.75,0.0,0.25,0.7,-0.42,0.39,75.92,9.1,-0.9,0.5,0.75,0.0,0.5,0.0,1.0,0.0,0.0,0.25,0.75,0.0,0.25,0.0,0.89,0.08,-0.17,91.63,-1.7,23.0
5.54,0.75,0.0,1.0,0.25,0.0,0.0,0.0,1.75,0.0,0.25,0.75,0.0,0.25,0.7,-0.42,0.39,77.21,7.9,-4.6,0.5,0.25,0.5,0.25,0.25,1.5,0.25,0.25,0.25,0.75,0.0,0.25,0.5,0.95,0.08,-0.17,83.15,0.6,4.6
5.56,0.75,0.0,0.5,0.25,0.0,0.0,0.0,1.75,0.0,0.25,0.75,0.0,0.25,0.77,-0.42,0.39,75.01,4.4,-12.2,0.25,0.5,0.5,0.5,0.25,1.75,0.25,0.25,0.25,0.5,0.25,0.25,0.25,0.95,0.14,-0.23,79.04,-0.1,14.2
5.58,0.75,0.0,0.25,0.25,0.0,0.0,0.0,1.75,0.0,0.25,0.75,0.0,0.25,0.77,-0.42,0.39,71.75,2.3,-16.7,0.75,0.75,0.75,0.25,0.25,1.25,0.25,0.25,0.25,0.75,0.25,0.25,0.5,0.95,0.14,-0.23,86.02,-4.5,13.9
5.6,0.75,0.0,0.5,0.25,0.0,0.0,0.0,1.5,0.0,0.25,0.75,0.0,0.25,0.77,-0.42,0.45,68.33,5.6,-10.6,0.75,0.75,0.75,0.5,0.25,1.25,0.25,0.25,0.25,0.75,0.25,0.25,0.5,0.89,0.2,-0.23,94.41,-5.0,15.6
5.62,0.75,0.0,0.0,0.25,0.0,0.0,0.0,1.75,0.0,0.25,0.75,0.0,0.25,0.77,-0.42,0.45,64.17,0.0,-21.8,0.5,0.75,0.5,0.25,0.25,0.75,0.25,0.25,0.25,0.75,0.25,0.25,0.5,0.83,0.14,-0.23,94.31,-4.0,6.2
5.64,0.75,0.0,0.25,0.25,0.0,0.0,0.0,1.25,0.0,0.25,0.75,0.0,0.25,0.77,-0.42,0.39,60.69,4.9,-13.7,0.5,0.75,0.5,0.5,0.25,0.75,0.25,0.25,0.25,0.75,0.0,0.25,0.5,0.77,0.14,-0.17,91.12,-4.3,12.4
5.66,0.75,0.0,1.0,0.25,0.0,0.0,0.0,1.0,0.0,0.25,1.0,0.0,0.25,0.77,-0.42,0.39,61.85,12.2,-2.8,0.5,0.25,0.75,0.25,0.25,1.5,0.25,0.25,0.25,0.5,0.0,0.25,0.5,0.7,0.14,-0.17,87.18,-1.9,11.1
5.68,0.75,0.0,0.5,0.25,0.0,0.0,0.0,1.75,0.0,0.25,0.75,0.0,0.25,0.77,-0.42,0.39,63.31,4.4,-12.2,0.5,0.0,0.75,0.5,0.25,1.0,0.25,0.25,0.25,1.0,0.0,0.25,0.5,0.83,0.14,-0.17,84.08,-2.6,-0.8
5.7,0.75,0.0,0.25,0.25,0.0,0.0,0.0,1.25,0.0,0.25,0.75,0.0,0.5,0.7,-0.36,0.39,61.94,3.7,-20.0,1.25,0.75,0.75,0.5,0.25,2.0,0.25,0.25,0.25,1.0,0.0,0.25,0.5,0.83,0.14,-0.17,96.85,-3.4,22.1
5.72,0.75,0.0,0.5,0.25,0.0,0.0,0.0,1.75,0.0,0.25,0.75,0.0,0.25,0.77,-0.36,0.39,64.23,4.4,-12.2,0.25,0.75,0.75,0.5,0.25,0.5,0.25,0.25,0.25,1.0,0.25,0.25,0.5,0.83,0.14,-0.17,98.72,-5.1,2.6
5.74,0.75,0.0,0.5,0.25,0.0,0.0,0.0,1.0,0.0,0.25,0.75,0.0,0.5,0.7,-0.42,0.39,62.8,7.2,-13.5,0.5,0.5,0.75,0.5,0.25,1.25,0.25,0.25,0.25,1.0,0.25,0.25,0.5,0.83,0.08,-0.17,103.01,-2.8,5.6
5.76,0.75,0.0,0.75,0.25,0.0,0.0,0.0,1.25,0.0,0.25,0.75,0.0,0.25,0.77,-0.42,0.39,63.51,9.0,-4.6,0.0,0.5,0.75,0.25,0.25,1.25,0.25,0.25,0.25,0.5,0.0,0.25,0.5,0.89,0.14,-0.17,94.01,-0.5,6.4
5.78,0.75,0.0,0.75,0.25,0.0,0.0,0.0,1.0,0.0,0.25,1.0,0.0,0.5,0.77,-0.42,0.39,64.88,9.2,-12.6,0.5,0.75,0.75,0.5,0.25,1.0,0.25,0.25,0.25,0.75,0.0,0.25,0.25,0.89,0.14,-0.17,90.9,-5.6,21.1
5.8,0.75,0.0,0.5,0.25,0.0,0.0,0.0,1.75,0.25,0.5,0.5,0.0,0.25,0.77,-0.42,0.39,68.84,3.4,-13.7,0.5,0.25,0.75,0.5,0.25,1.25,0.25,0.25,0.25,0.5,0.0,0.25,0.5,0.89,0.14,-0.17,85.27,-3.7,12.4
