time,left pressure 0[N/cm²],left pressure 1[N/cm²],left pressure 2[N/cm²],left pressure 3[N/cm²],left pressure 4[N/cm²],left pressure 5[N/cm²],left pressure 6[N/cm²],left pressure 7[N/cm²],left pressure 8[N/cm²],left pressure 9[N/cm²],left pressure 10[N/cm²],left pressure 11[N/cm²],left pressure 12[N/cm²],left acceleration X[g],left acceleration Y[g],left acceleration Z[g],left total force[N],left center of pressure X[mm],left center of pressure Y[mm],right pressure 0[N/cm²],right pressure 1[N/cm²],right pressure 2[N/cm²],right pressure 3[N/cm²],right pressure 4[N/cm²],right pressure 5[N/cm²],right pressure 6[N/cm²],right pressure 7[N/cm²],right pressure 8[N/cm²],right pressure 9[N/cm²],right pressure 10[N/cm²],right pressure 11[N/cm²],right pressure 12[N/cm²],right acceleration X[g],right acceleration Y[g],right acceleration Z[g],right total force[N],right center of pressure X[mm],right center of pressure Y[mm]
0.02,3.75,1.0,3.0,6.5,5.25,3.0,1.5,5.25,2.75,1.5,3.5,1.0,1.5,-0.11,0.08,0.95,545.1,6.4,12.9,1.25,1.0,0.0,1.0,1.75,2.0,0.25,0.25,0.25,3.5,1.25,3.25,3.25,0.95,0.52,2.89,186.52,1.8,-33.8
0.04,3.5,1.0,3.0,7.75,6.0,2.75,1.5,5.0,2.25,1.25,3.0,1.0,1.25,-0.11,0.08,0.95,557.87,6.9,18.1,0.5,0.75,0.75,0.5,0.5,2.0,0.25,0.25,0.25,6.25,2.5,5.5,7.0,-0.36,0.39,1.33,261.73,3.7,-65.5
0.06,4.0,1.0,3.25,8.75,6.75,3.0,1.75,4.75,2.0,1.25,2.5,1.0,1.0,-0.11,0.08,0.95,584.97,7.5,23.8,0.5,0.75,0.0,0.0,1.0,0.75,0.25,1.75,0.25,6.75,5.5,5.5,8.0,0.14,0.39,3.14,355.45,4.1,-73.6
0.08,4.75,1.25,4.0,9.0,7.0,3.5,2.0,4.5,1.75,1.0,2.5,1.0,1.0,-0.11,0.08,0.95,618.1,8.5,27.9,1.25,0.75,0.5,0.5,0.5,1.75,0.0,3.5,1.0,8.5,7.0,6.0,8.0,0.2,0.27,1.08,485.46,3.2,-65.0
0.1,5.25,2.0,4.75,10.5,7.75,3.5,2.0,4.25,1.0,1.25,2.25,1.0,0.5,-0.11,0.08,0.95,670.88,9.6,34.8,1.25,1.0,0.75,1.0,1.75,2.0,0.25,4.5,1.0,8.75,7.0,6.0,8.0,-0.05,0.14,1.08,614.47,3.0,-56.5
0.12,5.75,2.5,5.25,11.0,8.0,3.5,2.25,3.75,1.0,1.0,1.75,1.0,0.5,-0.11,0.08,0.95,726.5,10.6,39.2,1.25,0.75,0.0,1.5,1.0,2.5,0.0,5.0,1.0,8.75,6.25,5.5,8.0,0.2,0.08,0.89,698.93,4.5,-58.5
0.14,6.25,1.75,6.0,11.5,8.25,3.75,2.25,3.75,0.75,1.0,1.5,0.75,0.5,-0.11,0.14,0.95,774.4,11.1,41.2,1.25,0.75,1.0,1.5,1.75,2.25,0.25,5.5,0.75,9.0,6.25,5.5,7.75,0.14,0.08,0.95,739.65,3.5,-53.4
0.16,6.0,2.5,6.0,12.5,8.5,3.5,2.25,3.75,0.5,0.0,1.25,0.75,0.5,-0.17,0.14,1.02,806.9,11.8,45.7,1.25,0.75,1.0,2.0,2.75,4.5,0.25,5.5,1.0,8.75,6.25,5.25,7.75,0.14,0.08,0.89,779.03,4.1,-45.1
0.18,0.0,2.75,6.75,13.0,8.75,3.5,2.25,3.75,0.0,1.0,1.5,0.75,0.5,-0.17,0.14,1.08,796.43,8.7,37.6,1.5,1.0,1.0,2.75,3.0,4.5,0.5,6.0,1.0,8.5,6.25,5.25,7.5,0.08,0.08,0.95,806.25,3.4,-40.7
0.2,0.0,3.0,6.75,13.5,8.75,2.25,1.5,3.5,0.0,1.0,0.0,0.5,0.5,-0.17,0.14,1.08,759.6,9.6,43.6,1.25,0.75,0.75,2.75,4.25,5.5,0.5,6.25,1.0,8.5,6.25,4.5,7.5,0.08,0.08,0.95,826.37,4.5,-37.4
0.22,0.0,0.0,7.25,10.5,0.5,4.25,0.0,0.0,0.0,0.75,0.0,0.5,0.0,-0.17,0.2,1.08,594.02,15.3,47.2,1.5,1.0,1.0,2.75,4.5,5.75,0.75,6.25,1.0,8.25,5.5,4.0,6.75,0.14,0.08,0.95,816.31,4.1,-31.8
0.24,8.0,3.75,7.5,13.5,8.5,1.75,1.25,2.75,0.5,0.5,1.0,0.0,0.25,-0.17,0.2,1.08,632.24,15.0,54.4,1.5,1.0,0.75,2.75,4.75,6.0,0.75,6.25,1.0,8.0,4.5,3.0,6.25,0.14,0.08,0.95,775.72,4.8,-27.8
0.26,8.25,3.0,7.5,12.5,8.0,0.25,0.75,2.75,0.5,1.0,0.75,0.25,0.5,-0.23,0.27,1.27,654.38,15.9,52.1,1.25,1.0,1.75,3.0,4.75,6.25,0.75,6.25,1.0,7.75,4.5,3.0,6.0,0.14,0.08,0.95,729.19,4.0,-25.0
0.28,8.25,2.5,6.75,11.5,6.75,0.0,0.0,2.5,0.5,0.75,0.0,0.25,0.25,-0.3,0.33,1.39,687.79,16.9,56.1,1.5,1.25,1.75,4.0,5.75,6.5,0.75,6.25,1.25,7.5,4.5,2.5,5.5,0.14,0.08,0.95,707.09,3.2,-18.0
0.3,8.0,2.25,6.0,9.25,0.0,0.0,0.0,0.0,0.5,0.5,0.0,0.0,0.25,-0.48,0.39,1.52,579.01,25.5,67.3,1.5,1.25,1.75,4.75,6.5,6.75,0.75,6.25,1.25,6.75,3.75,1.75,4.75,0.14,0.08,0.95,697.89,3.0,-10.5
0.32,7.0,1.5,4.5,6.75,0.0,0.0,0.0,0.0,0.75,0.75,0.75,0.0,0.25,-0.86,0.64,2.27,451.95,24.6,59.1,1.5,1.75,2.0,5.25,7.0,7.0,0.75,6.25,1.25,6.25,3.0,1.5,4.0,0.14,0.08,0.95,697.01,2.5,-3.5
0.34,5.5,0.75,1.75,3.25,0.0,0.0,0.0,0.0,0.5,0.0,0.0,0.0,0.25,-0.92,1.08,2.58,291.83,26.9,70.7,1.5,1.75,2.25,5.5,7.5,7.25,1.0,6.0,1.0,5.5,2.5,1.0,3.25,0.14,0.08,0.95,693.03,2.0,3.3
0.36,3.0,0.0,1.25,2.5,0.0,0.0,0.0,0.0,0.25,0.0,0.0,0.0,0.0,-0.3,0.58,2.33,177.9,28.0,71.1,1.5,1.75,2.25,7.0,8.25,7.5,1.25,5.5,1.0,4.75,2.5,1.0,3.0,0.14,0.08,0.95,700.02,1.0,8.5
0.38,0.0,0.0,0.5,1.75,0.0,0.0,0.0,0.0,0.5,0.0,1.0,0.0,0.25,-0.48,0.52,2.45,68.0,15.7,4.2,1.5,1.75,1.5,7.25,8.5,7.75,1.25,5.5,1.0,4.0,2.25,0.75,2.25,0.14,0.08,0.95,689.44,1.3,12.8
0.4,0.0,0.0,0.0,0.25,0.0,0.0,0.0,0.0,0.0,0.0,0.0,0.0,0.0,-1.05,-0.55,1.89,0.0,17.2,57.9,1.5,1.75,2.75,8.75,9.0,7.75,1.25,5.5,1.0,3.5,2.25,0.5,2.25,0.14,0.08,0.95,704.38,-0.3,17.5
0.42,0.0,0.0,0.0,0.25,0.0,0.0,0.0,0.0,0.0,0.25,0.0,0.0,0.0,-0.73,-0.48,1.52,0.0,1.1,-7.2,1.5,2.0,2.75,9.0,9.25,8.0,1.25,4.5,1.0,2.75,1.5,0.75,1.75,0.14,0.08,0.95,709.38,-1.0,23.4
0.44,0.5,0.0,0.0,2.0,0.0,0.0,0.0,0.0,0.0,0.5,0.0,0.0,0.25,-0.73,-1.05,0.2,0.0,12.3,30.4,1.75,2.5,2.5,10.5,10.5,8.0,1.25,4.5,1.0,2.75,1.5,0.25,1.75,0.14,0.08,0.95,741.29,-1.4,27.6
0.46,0.0,0.0,0.25,2.0,0.0,0.0,0.0,0.0,0.25,0.25,0.0,0.25,0.25,-0.8,-0.61,0.83,0.0,13.0,15.8,2.5,2.5,3.25,10.5,11.0,8.0,1.25,3.25,0.75,3.0,1.5,0.5,1.5,0.14,0.08,0.95,772.29,-2.8,30.9
0.48,0.0,0.0,0.75,2.0,0.0,0.0,0.0,0.0,0.5,0.5,0.0,0.0,0.0,-0.48,-0.42,0.45,0.0,16.5,28.9,3.0,3.0,4.0,11.5,11.0,8.0,1.25,3.25,0.5,2.5,1.5,0.25,1.5,0.14,0.14,0.95,816.73,-4.1,35.1
0.5,0.5,0.0,0.5,1.75,0.0,0.0,0.0,0.0,0.0,0.0,0.0,0.25,0.25,-0.48,-0.36,0.52,0.0,19.9,38.4,3.0,3.25,4.75,12.5,11.5,8.0,1.25,3.25,0.5,2.5,1.25,0.25,1.25,0.08,0.14,0.95,861.04,-4.8,37.6
0.52,1.0,0.0,0.0,2.0,0.0,0.0,0.0,0.0,0.75,0.25,0.0,0.0,0.25,-0.61,-0.3,0.64,0.0,16.4,32.0,4.0,3.25,5.0,12.5,12.0,8.25,1.0,2.0,0.5,2.25,0.25,0.5,1.25,0.08,0.14,0.95,897.68,-5.7,42.5
0.54,0.5,0.0,0.0,1.75,0.0,0.0,0.0,0.0,0.5,0.0,0.0,0.0,0.25,-0.67,-0.3,0.83,10.65,16.5,34.2,4.75,2.5,5.0,13.5,12.0,8.25,1.0,1.75,0.5,1.75,0.0,0.25,1.25,0.08,0.14,0.95,922.79,-6.5,45.4
0.56,1.0,0.0,0.0,1.5,0.0,0.0,0.0,0.0,0.5,0.0,0.0,0.0,0.25,-0.55,-0.11,0.89,30.23,19.1,41.4,5.25,2.5,5.25,13.5,12.5,8.0,0.75,1.75,0.5,1.0,0.0,0.25,0.75,0.08,0.14,0.95,933.33,-7.4,49.3
0.58,1.25,0.0,0.25,1.25,0.0,0.0,0.0,0.0,0.75,0.5,0.0,0.0,0.25,-0.42,0.08,1.08,51.09,16.7,26.2,6.0,4.25,5.5,14.0,13.5,8.0,0.75,1.5,0.5,1.25,0.25,0.25,1.0,0.08,0.14,1.02,976.66,-7.8,50.3
0.6,1.25,0.0,0.5,1.5,0.0,0.0,0.0,0.0,0.5,0.25,0.0,0.0,0.25,-0.23,0.2,1.27,64.9,20.2,40.0,6.75,4.75,6.25,15.0,13.5,8.0,0.75,1.25,0.5,0.5,0.25,0.0,0.5,0.08,0.2,1.02,1024.73,-9.3,55.5
0.62,0.75,0.0,0.25,1.25,0.0,0.0,0.0,0.0,0.25,0.25,0.0,0.0,0.25,-0.11,0.33,1.39,66.5,17.3,34.2,7.5,4.75,6.75,15.5,13.5,7.5,0.75,0.75,0.25,1.25,0.25,0.25,0.0,0.08,0.2,1.02,1079.69,-10.2,56.5
0.64,1.0,0.0,0.25,1.5,0.0,0.0,0.0,2.0,0.25,0.25,0.0,0.0,0.25,-0.05,0.45,1.52,76.98,5.7,11.5,6.75,4.25,6.25,13.0,11.0,6.75,0.25,0.25,0.25,1.25,0.0,0.0,0.25,0.08,0.27,1.02,1037.32,-10.5,57.5
0.66,1.0,0.0,0.25,1.25,0.0,0.0,0.0,2.0,0.25,0.0,0.0,0.0,0.25,-0.17,0.52,1.64,78.91,6.1,13.5,7.5,3.75,7.0,12.5,11.0,5.5,0.75,0.25,0.5,1.0,0.75,0.0,0.0,0.14,0.33,1.08,986.62,-12.3,57.2
0.68,0.5,0.0,0.25,1.25,0.0,0.0,0.0,0.5,0.25,0.5,0.0,0.0,0.25,-0.36,0.52,1.7,73.52,9.0,11.9,7.75,4.75,6.75,13.5,11.0,4.5,0.5,0.0,0.25,0.0,0.75,0.0,0.5,0.14,0.33,1.2,925.45,-13.4,60.6
0.7,0.25,0.0,0.0,1.25,0.0,0.0,0.0,0.0,0.5,0.0,0.0,0.0,0.25,-0.55,0.58,2.02,61.14,14.4,22.3,8.25,4.25,5.5,12.5,8.25,2.0,0.25,0.0,0.25,1.0,0.25,0.0,0.0,0.14,0.39,1.33,832.29,-15.6,63.0
0.72,0.0,0.25,0.0,1.0,0.0,0.0,0.0,0.0,0.25,0.25,0.0,0.0,0.25,-0.48,0.77,2.27,47.99,8.1,14.3,7.75,2.5,2.5,10.5,7.5,1.25,0.25,0.25,0.25,0.75,0.75,0.25,0.5,0.39,0.58,1.58,700.03,-14.1,56.8
0.74,0.25,0.0,0.5,1.25,0.0,0.0,0.0,0.0,0.5,0.25,0.25,0.0,0.25,-0.36,1.08,2.39,43.8,15.6,13.8,5.25,1.0,0.0,5.25,4.75,0.0,0.5,0.0,0.0,0.0,0.25,0.25,0.25,0.89,1.39,2.08,477.66,-15.0,62.9
0.76,0.25,0.0,0.5,1.25,0.0,0.0,0.0,0.0,0.25,0.25,0.75,0.25,0.25,-0.11,1.45,2.2,45.94,14.7,-2.2,5.0,1.0,0.0,3.0,3.25,0.0,0.25,0.25,0.0,0.0,0.25,0.25,0.5,0.45,1.14,2.89,304.47,-15.4,59.6
0.78,0.5,0.0,0.75,1.0,0.0,0.0,0.0,0.0,0.0,0.25,0.25,0.0,0.25,0.2,1.83,1.27,49.33,19.4,28.9,1.5,1.0,0.0,3.25,2.25,1.5,0.5,0.0,0.25,1.25,0.0,0.25,0.0,-0.11,0.39,2.2,184.59,-6.1,42.1
0.8,0.25,0.0,1.0,1.5,0.0,0.0,0.0,0.0,0.25,0.75,0.0,0.0,0.25,0.95,2.52,0.89,55.29,15.2,20.0,1.5,1.0,0.25,2.75,2.5,2.0,0.25,0.25,0.25,1.0,0.75,0.25,0.5,0.83,0.08,2.39,110.18,-4.3,30.5
0.82,0.25,0.0,1.0,1.75,0.0,0.0,0.0,0.0,0.5,0.25,0.0,0.0,0.25,2.02,4.08,0.89,59.46,18.9,30.6,0.0,0.0,0.5,0.5,3.25,0.0,0.25,0.0,0.0,0.0,0.25,0.0,0.5,1.02,-1.05,1.64,27.28,-2.7,33.7
0.84,0.25,0.0,1.0,1.5,0.0,0.0,0.0,0.0,0.25,0.25,0.0,0.0,0.25,2.27,3.83,0.2,61.1,19.5,33.4,0.0,0.0,0.0,0.5,0.0,0.0,0.0,0.0,0.0,0.0,0.0,0.0,0.0,0.83,-0.73,1.39,0.0,-17.2,57.9
0.86,0.25,0.0,1.0,0.5,0.0,0.0,0.0,1.75,0.25,0.75,0.0,0.25,0.25,-0.61,-0.11,1.02,67.36,3.4,-14.6,0.0,0.0,0.0,0.5,0.0,0.0,0.0,0.0,0.0,0.0,0.0,0.0,0.0,0.52,-1.36,0.33,0.0,-17.2,57.9
0.88,0.0,0.0,1.25,0.5,0.0,0.0,0.0,0.0,0.25,1.25,0.0,1.0,1.25,-1.05,-0.23,1.33,75.21,5.8,-43.9,0.0,0.0,0.0,0.5,0.25,0.0,0.0,0.0,0.0,0.0,0.0,0.0,0.0,0.39,-0.42,1.02,0.0,-9.9,56.3
0.9,0.25,0.0,0.25,0.0,0.0,0.0,0.0,0.0,0.0,3.5,0.0,4.0,5.25,0.2,-0.55,1.2,132.77,-5.6,-93.9,0.0,0.0,0.0,0.5,0.0,0.0,0.0,0.0,0.0,0.0,0.0,0.0,0.0,0.08,-0.42,0.33,0.0,-17.2,57.9
0.92,0.0,0.0,0.0,0.0,0.0,0.0,0.0,0.0,0.5,6.5,3.0,5.0,6.75,0.7,0.64,3.08,221.88,-5.3,-93.4,0.0,0.0,0.0,0.5,0.25,0.0,0.0,0.0,0.0,0.0,0.0,0.0,0.0,0.27,-0.3,0.39,0.0,-9.9,56.3
0.94,0.0,0.0,0.0,0.0,0.0,0.0,0.0,5.0,0.75,7.0,6.25,5.75,7.25,-0.23,0.33,1.45,335.77,-5.3,-83.0,0.0,0.0,0.0,0.25,0.5,0.0,0.0,0.0,0.0,0.0,0.0,0.0,0.0,0.39,-0.3,0.64,0.0,-3.0,54.8
0.96,0.0,0.0,0.0,1.0,0.0,0.0,0.0,5.5,0.75,7.5,6.5,5.75,7.25,0.02,0.14,1.2,457.04,-4.8,-77.9,1.25,1.0,0.25,2.0,0.0,2.0,0.0,0.0,0.25,1.0,0.0,0.0,0.0,0.45,-0.3,0.77,0.0,-5.7,43.2
0.98,0.0,0.0,0.0,1.25,0.0,0.0,0.25,6.0,0.5,6.75,6.0,5.75,6.75,-0.17,0.08,0.95,547.86,-4.7,-75.8,1.0,0.25,1.0,0.25,1.75,0.0,0.25,0.0,0.0,0.0,0.25,0.0,0.5,0.52,0.08,0.83,34.33,-13.4,43.0
1.0,0.0,0.0,0.0,1.5,0.0,0.0,0.5,6.25,0.75,6.75,0.0,5.25,6.75,-0.17,0.08,0.95,552.96,-7.7,-72.8,0.25,0.0,0.0,0.5,0.0,0.0,0.0,0.0,0.0,0.0,0.0,0.0,0.0,0.52,0.39,0.89,40.49,-22.6,70.2
1.02,0.5,0.0,0.0,0.0,0.0,1.0,0.0,6.25,0.75,6.75,0.0,5.0,6.75,-0.17,0.02,0.95,526.47,-9.5,-74.3,1.25,1.0,1.25,1.75,2.25,2.0,0.25,0.0,0.25,0.0,0.25,0.0,0.5,0.52,0.52,1.02,88.56,-7.8,47.8
1.04,0.0,0.0,0.0,0.0,0.0,0.75,0.5,6.25,1.75,6.5,5.75,4.75,6.5,-0.17,0.02,0.95,524.35,-5.6,-75.4,0.0,0.0,1.25,0.25,2.25,0.0,0.25,0.0,0.0,0.25,0.25,0.0,0.0,0.39,0.58,1.27,95.08,-10.0,41.7
1.06,0.0,0.0,0.0,2.0,0.5,1.75,0.5,6.25,1.5,6.75,6.0,4.0,6.0,-0.17,0.02,0.95,541.2,-5.0,-61.3,0.0,0.0,0.0,0.25,0.0,0.0,0.0,0.0,0.0,0.0,0.0,0.0,0.0,0.33,0.83,1.39,84.17,-17.2,57.9
1.08,1.0,0.0,0.0,2.0,1.25,1.75,0.5,6.25,1.75,6.0,5.75,4.0,6.0,-0.17,0.02,0.95,563.52,-3.6,-53.9,1.25,1.0,0.75,0.5,1.5,0.0,0.25,0.0,0.0,0.0,0.25,0.0,0.5,0.45,0.77,1.39,87.64,-14.1,51.5
1.1,0.0,0.75,0.0,2.5,1.5,2.0,0.75,6.25,2.0,5.75,5.5,3.25,5.25,-0.17,0.02,0.95,562.7,-4.0,-48.3,0.5,0.5,0.0,1.0,0.0,2.0,0.0,0.0,0.25,0.75,0.0,0.25,0.0,0.64,0.77,1.52,87.39,1.7,24.8
1.12,0.0,0.0,0.25,2.0,2.25,2.5,0.5,6.25,2.25,5.5,5.5,2.75,4.5,-0.17,0.02,0.95,539.11,-4.5,-46.5,1.25,1.0,0.75,1.0,1.75,2.0,0.25,0.0,0.25,1.0,0.25,0.25,0.5,0.7,0.77,1.58,116.5,-3.9,30.3
1.14,1.25,0.5,0.0,3.5,2.75,3.0,0.75,6.25,2.25,4.5,4.5,2.0,4.0,-0.17,0.02,0.95,498.01,-2.6,-28.8,1.25,0.75,1.25,1.25,0.5,2.0,0.25,0.0,0.25,1.0,0.25,0.25,0.5,0.64,0.89,1.64,136.86,-7.0,27.3
1.16,1.75,0.5,1.5,4.25,3.25,3.0,0.75,6.0,2.75,3.5,4.0,1.75,2.75,-0.11,0.02,0.95,474.46,0.8,-14.6,0.25,0.0,0.5,0.75,1.5,2.0,0.25,0.25,0.25,1.0,0.5,0.25,0.25,0.33,1.58,3.27,147.48,2.1,9.4
1.18,1.5,1.0,2.0,5.5,4.5,3.5,0.75,6.0,2.25,3.0,3.25,1.25,2.0,-0.17,0.08,0.95,474.6,1.4,-1.2,0.25,0.0,0.25,0.5,0.0,0.0,0.0,0.0,0.0,0.0,0.0,0.0,0.0,0.08,1.08,1.52,106.9,-26.6,67.8
1.2,2.5,0.75,2.25,6.0,5.25,3.75,0.75,5.75,2.25,3.0,3.0,1.25,1.75,-0.11,0.08,0.95,500.93,2.5,4.5,1.0,0.75,0.5,1.25,1.75,0.75,0.5,0.0,0.25,1.0,0.25,0.25,0.5,-0.11,1.27,1.45,106.51,-6.2,25.9
1.22,3.0,1.0,2.75,7.25,6.0,3.75,0.75,5.5,2.25,2.0,2.5,1.0,1.5,-0.11,0.08,0.95,538.63,4.3,14.5,0.0,0.0,0.5,0.5,0.5,0.75,0.0,0.0,0.25,0.0,0.0,0.25,0.5,-0.3,1.64,1.39,83.88,-2.6,7.0
1.24,3.75,1.0,2.75,7.75,6.25,4.25,1.0,5.5,2.0,1.25,2.5,1.25,1.5,-0.11,0.08,0.95,578.43,5.1,18.2,1.0,1.0,0.25,1.25,1.25,0.5,0.25,0.0,0.0,0.0,0.25,0.0,0.0,-0.86,2.14,0.89,90.81,-11.8,62.5
1.26,3.5,1.25,2.75,8.0,6.75,4.25,1.0,5.25,1.75,1.75,2.25,1.0,1.5,-0.11,0.08,0.95,603.56,4.7,19.9,1.5,0.75,0.75,1.0,1.25,1.25,0.25,0.0,0.25,1.0,0.25,0.25,0.5,-1.36,3.08,0.64,101.14,-7.0,28.3
1.28,3.75,1.25,2.75,9.0,7.0,4.25,1.0,4.75,1.75,1.25,2.0,0.75,1.5,-0.11,0.08,0.95,618.98,5.6,24.7,1.25,1.0,0.0,0.5,0.0,1.75,0.25,0.0,0.25,1.0,0.5,0.25,0.5,-1.86,3.33,0.45,117.6,-2.3,14.4
1.3,4.25,1.75,2.75,9.25,7.75,4.25,1.25,4.75,1.25,1.25,1.5,1.0,1.25,-0.17,0.08,0.95,641.21,6.0,29.1,1.25,1.0,0.25,0.75,1.25,1.5,0.0,0.0,0.25,2.75,0.75,1.25,1.25,-0.23,0.83,-0.11,142.67,0.0,-11.8
1.32,5.0,1.75,3.25,10.0,8.0,4.25,1.25,4.5,1.0,1.25,1.5,1.0,1.25,-0.11,0.08,0.95,671.73,7.0,31.9,1.0,0.0,0.5,0.5,1.0,1.75,0.25,0.5,0.25,5.5,2.0,5.25,6.0,1.39,-0.67,2.7,218.8,3.4,-64.0
1.34,5.25,2.5,3.5,11.0,8.0,4.25,1.25,4.5,0.75,0.5,1.5,0.75,1.0,-0.17,0.08,0.95,705.5,8.1,37.9,0.5,0.5,0.5,1.0,0.0,1.25,0.25,1.75,0.5,8.0,4.5,6.5,8.25,-0.11,0.77,1.77,325.95,3.6,-72.7
1.36,5.25,2.5,4.5,11.5,8.25,4.25,1.25,3.75,0.75,1.0,1.5,0.75,1.0,-0.11,0.14,0.95,741.56,8.9,38.8,1.25,0.75,0.75,0.5,1.0,2.0,0.25,3.25,0.75,8.75,7.0,6.5,8.25,0.33,0.08,1.83,474.6,3.0,-62.9
1.38,5.25,2.5,4.75,11.5,8.5,4.25,1.25,3.75,0.25,1.25,1.0,0.5,1.0,-0.17,0.14,0.95,762.91,8.9,41.2,1.25,0.75,0.75,0.5,2.75,2.75,0.25,4.5,1.0,8.75,7.5,6.25,8.25,-0.05,0.27,1.2,636.67,3.5,-55.2
1.4,5.25,2.5,5.25,12.5,8.5,4.25,1.5,3.75,0.25,1.25,1.25,0.0,0.75,-0.17,0.14,1.02,781.42,9.5,43.5,1.25,0.75,1.0,1.0,2.75,4.25,0.25,5.5,1.0,9.0,7.0,5.5,8.0,0.14,0.14,0.95,758.7,4.2,-49.1
1.42,3.5,3.5,5.5,12.5,8.5,4.25,1.0,3.5,0.0,1.0,1.0,0.25,0.75,-0.17,0.14,1.02,779.86,9.0,44.3,1.5,0.75,0.75,1.25,2.25,4.5,0.25,6.25,1.0,8.75,6.5,5.5,7.75,0.14,0.08,0.95,822.18,4.5,-48.3
1.44,3.0,4.0,5.0,13.0,8.75,3.75,1.25,3.5,0.0,1.25,0.75,0.0,0.5,-0.17,0.14,1.02,772.65,8.8,46.1,1.5,0.75,1.0,1.5,2.75,5.25,0.25,6.25,1.0,8.75,6.5,5.25,7.5,0.14,0.08,0.95,846.25,4.4,-44.1
1.46,4.75,4.0,6.0,13.5,8.75,3.5,1.25,3.0,0.0,0.75,0.0,0.0,0.5,-0.17,0.14,1.02,773.33,11.1,52.5,1.5,0.75,1.0,1.75,4.25,5.75,0.25,6.75,1.25,8.75,6.5,4.5,7.5,0.08,0.08,0.95,870.44,4.7,-38.4
1.48,6.25,4.0,6.5,14.0,8.0,3.25,0.25,2.75,0.0,1.75,0.0,0.25,0.5,-0.17,0.2,1.02,789.14,12.0,51.3,1.5,0.75,1.0,2.5,4.25,6.0,0.5,7.25,1.25,8.5,6.25,3.75,6.75,0.14,0.08,0.95,866.13,4.6,-33.9
1.5,0.0,2.0,6.75,13.0,8.75,3.0,2.75,4.75,1.5,0.0,0.0,0.0,0.0,-0.17,0.2,1.02,757.29,9.4,42.8,1.5,1.0,1.75,2.75,4.75,6.5,0.75,7.25,1.25,8.0,5.5,3.0,6.25,0.14,0.08,0.95,847.38,4.0,-26.6
1.52,6.5,1.25,6.25,12.5,7.5,1.75,3.0,4.5,0.75,0.0,0.0,0.0,0.0,-0.17,0.27,1.08,733.71,13.9,50.7,1.5,1.0,1.75,2.75,4.75,6.75,0.75,6.5,1.0,7.75,4.5,2.5,5.5,0.14,0.08,0.95,800.64,4.2,-22.5
1.54,7.5,4.0,4.25,13.5,5.75,0.0,2.75,2.0,0.0,0.5,0.75,0.0,0.5,-0.17,0.27,1.08,689.65,16.6,56.6,1.75,1.25,2.25,2.75,5.25,6.75,0.75,6.5,1.25,7.0,4.0,1.5,5.0,0.14,0.08,0.95,742.93,3.5,-15.2
1.56,8.0,4.0,6.75,12.5,8.0,0.0,0.0,2.0,0.0,0.5,0.75,0.0,0.5,-0.23,0.33,1.2,685.17,16.4,58.0,2.5,1.5,2.25,3.25,5.75,7.25,0.75,6.25,1.0,6.75,3.75,1.5,4.0,0.14,0.08,0.95,695.4,2.6,-7.7
1.58,8.0,4.0,6.0,11.5,0.0,0.0,0.0,2.0,0.25,0.5,0.0,0.0,0.25,-0.36,0.39,1.33,604.62,21.7,62.7,2.75,1.75,2.25,4.25,6.0,7.5,0.75,6.25,1.0,6.0,2.5,1.0,3.75,0.14,0.08,0.95,669.68,2.1,0.0
1.6,7.75,2.5,4.75,9.75,0.0,0.0,0.0,2.0,0.25,0.5,0.0,0.0,0.25,-0.55,0.52,1.64,512.93,21.7,60.8,3.0,1.75,2.25,4.5,6.5,7.5,1.0,6.25,1.0,5.25,2.5,1.0,3.25,0.14,0.08,0.95,660.04,1.4,4.0
1.62,7.0,1.25,3.0,6.5,0.0,0.0,0.0,2.0,0.5,0.25,0.0,0.0,0.5,-0.8,0.77,2.33,386.43,21.0,56.1,3.25,1.75,2.75,5.25,7.25,7.75,1.0,6.25,1.0,5.25,2.5,1.0,2.75,0.14,0.08,0.95,673.59,0.5,8.2
1.64,5.25,1.0,1.25,3.75,0.0,0.0,0.0,0.0,0.25,0.25,0.0,0.0,0.5,-0.61,0.95,2.45,273.53,24.1,66.0,4.0,1.75,2.5,5.5,8.0,8.0,1.25,6.0,1.0,4.0,2.25,1.0,2.25,0.14,0.08,0.95,690.18,-0.3,14.7
1.66,2.75,0.75,0.75,2.25,0.0,0.0,0.0,0.0,0.25,0.5,0.75,0.0,0.0,-0.05,0.33,2.2,169.99,21.7,51.5,4.5,1.75,2.75,5.75,8.25,8.0,1.25,5.5,1.0,3.5,2.0,0.75,2.25,0.14,0.08,0.95,705.78,-1.2,18.8
1.68,0.0,0.25,1.25,2.0,0.0,0.0,0.0,0.0,0.0,0.0,0.0,0.0,0.0,-0.61,0.39,2.14,63.07,24.3,61.9,4.75,2.0,2.5,7.0,8.5,8.5,1.25,5.5,0.75,3.5,2.0,0.25,2.25,0.14,0.08,0.95,727.12,-1.2,22.4
1.7,0.25,0.0,0.0,2.0,0.0,0.0,0.0,0.0,0.0,0.25,0.0,0.0,0.25,-0.98,-0.48,1.89,0.0,12.9,34.2,5.25,2.5,2.5,7.25,9.25,8.5,1.25,5.5,0.5,2.75,1.5,1.0,1.75,0.14,0.14,0.95,753.26,-2.0,26.7
1.72,1.25,0.0,1.25,2.0,0.0,0.0,0.0,0.0,0.0,0.5,0.0,0.0,0.25,-0.55,-0.36,0.64,0.0,21.6,46.7,5.5,2.5,2.5,7.25,9.25,8.5,1.0,4.5,0.5,3.25,1.5,0.25,1.75,0.14,0.14,0.95,770.04,-2.2,29.4
1.74,0.0,0.0,1.5,2.0,0.0,0.0,0.0,1.0,0.0,0.5,0.0,0.0,0.25,-0.73,-1.17,0.45,0.0,12.4,20.5,5.75,3.0,2.5,8.75,9.25,8.75,1.0,4.5,0.5,2.75,1.25,0.25,1.5,0.14,0.14,0.95,793.79,-3.0,33.6
1.76,0.0,0.0,1.25,1.5,0.0,0.0,0.0,0.0,0.0,0.25,0.0,0.0,0.25,-0.86,-0.86,0.77,0.0,20.4,36.3,5.75,3.25,2.5,8.75,10.5,8.75,1.25,4.5,0.5,2.75,1.25,0.25,1.5,0.14,0.14,0.95,823.73,-3.0,34.5
1.78,0.0,0.0,1.25,2.0,0.0,0.0,0.0,0.0,0.0,0.5,0.0,0.0,0.25,-0.48,-0.42,0.52,0.0,17.8,32.3,6.0,3.25,2.5,9.0,11.0,8.75,1.0,3.25,0.5,2.5,1.25,0.25,1.5,0.14,0.14,0.95,843.42,-3.6,37.4
1.8,0.0,0.0,0.75,2.0,0.0,0.0,0.0,0.0,0.0,0.5,0.0,0.0,0.25,-0.48,-0.42,0.52,0.0,14.9,28.2,6.75,3.25,2.5,10.5,11.0,8.75,1.0,3.25,0.5,2.5,0.75,0.25,1.25,0.14,0.14,0.95,868.25,-4.5,40.6
1.82,0.25,0.0,1.0,2.0,0.0,0.0,0.0,0.0,0.0,0.75,0.0,0.0,0.25,-0.61,-0.3,0.77,0.0,15.6,27.9,6.75,3.25,2.75,10.5,11.0,8.75,1.0,3.25,0.5,2.5,0.75,0.25,1.25,0.08,0.14,0.95,887.57,-4.6,40.7
1.84,0.75,0.0,0.5,2.0,0.0,0.0,0.0,1.0,0.0,0.5,0.0,0.0,0.25,-0.8,-0.11,0.77,24.46,10.2,22.9,7.0,3.25,2.75,10.5,11.5,8.5,1.0,2.25,0.25,2.25,0.25,0.25,0.75,0.08,0.14,0.95,888.12,-5.4,46.2
1.86,0.75,0.0,1.25,2.0,0.0,0.0,0.0,0.0,0.0,0.5,0.0,0.0,0.25,-0.86,0.2,0.77,51.01,20.3,41.7,7.0,3.25,3.5,11.5,11.5,8.5,1.0,1.75,0.0,1.75,0.25,0.25,1.0,0.08,0.14,0.89,887.37,-6.4,48.2
1.88,1.25,0.0,1.25,2.0,0.0,0.0,0.0,0.0,0.0,0.5,0.0,0.0,0.25,-0.67,0.39,0.95,72.52,21.6,46.7,7.5,3.25,2.5,12.5,12.0,8.5,1.0,1.75,0.0,1.5,0.0,0.0,1.0,0.08,0.14,0.95,890.3,-6.2,50.6
1.9,1.25,0.0,1.0,2.0,0.0,0.0,0.0,0.75,0.0,0.5,0.0,0.0,0.25,-0.61,0.45,1.14,86.56,15.9,35.0,7.5,3.25,4.0,12.5,12.0,8.5,0.75,1.75,0.0,1.5,0.25,0.25,1.0,0.08,0.14,0.89,907.01,-7.1,49.6
1.92,1.25,0.0,1.0,2.0,0.0,0.0,0.0,0.75,0.0,0.5,0.25,0.0,0.25,-0.61,0.7,1.33,96.45,15.7,30.6,7.75,3.25,3.75,12.5,12.0,8.5,0.75,1.75,0.0,1.25,0.0,0.25,0.75,0.08,0.2,0.95,914.98,-7.3,51.7
1.94,1.25,0.0,1.0,2.0,0.0,0.0,0.0,1.75,0.0,0.5,0.0,0.0,0.25,-0.67,0.77,1.45,103.66,11.1,24.1,7.75,3.25,4.5,14.0,12.0,8.5,0.75,1.5,0.0,0.75,0.25,0.0,0.5,0.08,0.2,0.95,935.26,-8.4,54.5
1.96,1.25,0.0,1.25,2.0,0.0,0.0,0.0,2.0,0.0,0.5,0.0,0.0,0.25,-0.8,0.89,1.52,110.76,11.1,23.3,7.75,2.75,2.75,12.5,11.0,8.25,0.25,0.0,0.0,0.0,0.0,0.0,0.75,0.08,0.2,0.95,888.12,-8.3,58.7
1.98,1.25,0.0,1.0,2.0,0.0,0.0,0.0,0.25,0.0,0.5,0.0,0.0,0.5,-0.8,0.83,1.64,109.74,17.4,34.9,7.0,3.0,2.5,12.5,11.0,7.75,0.25,0.0,0.0,0.0,0.0,0.0,0.25,0.08,0.2,0.95,828.94,-8.3,60.5
2.0,1.25,0.0,1.0,2.0,0.0,0.0,0.0,0.0,0.0,0.25,0.5,0.0,0.25,-0.86,0.95,1.83,105.53,21.5,40.6,7.75,3.25,3.75,14.0,12.5,8.0,0.25,0.0,0.25,0.0,0.0,0.0,0.25,0.08,0.27,1.02,816.54,-9.2,60.3
2.02,1.25,0.0,1.0,2.0,0.0,0.0,0.0,0.5,0.25,0.25,0.5,0.0,0.5,-0.8,1.08,1.77,102.51,16.7,25.0,8.0,3.25,2.75,14.0,12.0,7.75,0.25,0.5,0.25,1.25,0.5,0.25,0.5,0.08,0.27,1.02,830.68,-8.1,53.6
2.04,1.25,0.0,0.5,1.75,0.0,0.0,0.0,0.5,0.25,0.25,0.75,0.0,0.25,-0.8,1.2,1.64,97.68,15.8,22.0,6.75,2.5,2.25,11.0,12.0,6.5,0.25,0.25,0.25,1.5,0.25,0.25,0.5,0.14,0.33,1.14,801.44,-7.2,52.3
2.06,1.25,0.0,1.0,1.75,0.0,0.0,0.0,0.0,0.25,0.5,0.0,0.0,0.25,-0.8,1.14,1.39,92.11,20.5,41.2,7.25,2.75,0.75,12.0,11.0,5.0,0.25,0.25,0.0,0.0,0.25,0.0,0.5,0.27,0.39,1.33,744.11,-8.7,59.6
2.08,1.25,0.0,1.0,1.75,0.0,0.0,0.0,0.0,0.25,0.5,0.0,0.0,0.25,-0.8,1.2,1.83,87.47,20.5,41.2,5.75,1.75,0.0,8.75,8.25,2.25,0.25,0.0,0.0,0.0,0.0,0.0,0.0,0.33,0.45,1.39,593.62,-10.3,64.7
2.1,1.25,0.0,1.0,2.0,0.0,0.0,0.0,0.0,0.25,0.5,0.0,0.0,0.25,-0.05,0.95,1.02,85.78,20.3,42.0,5.5,1.75,0.0,5.75,7.5,2.0,0.25,0.0,0.5,1.0,0.0,0.5,0.25,0.77,0.77,1.2,452.8,-8.8,53.4
2.12,1.25,0.0,1.0,1.75,0.0,0.0,0.25,0.0,0.25,0.25,0.0,0.0,0.5,0.45,1.27,1.95,83.24,20.8,39.0,4.75,1.0,0.0,5.0,4.75,1.0,0.25,0.0,0.25,0.75,0.75,0.75,0.5,0.45,0.77,2.83,328.64,-10.9,44.9
2.14,0.5,0.0,1.5,1.75,0.0,0.0,0.0,0.0,0.5,0.5,0.0,0.0,0.5,1.77,2.27,1.33,83.06,18.3,24.7,2.5,0.0,0.0,2.75,4.5,0.0,0.25,0.0,0.0,0.0,0.0,0.0,0.0,-0.3,0.45,2.02,228.1,-11.1,64.2
2.16,0.25,0.0,1.0,1.75,0.0,0.0,0.0,0.0,0.25,0.25,0.5,0.0,0.25,1.58,2.77,0.27,77.53,18.4,22.7,1.5,0.25,0.25,1.5,4.25,0.0,0.25,0.0,0.0,0.0,0.0,0.25,0.5,0.08,0.52,1.58,137.64,-7.7,48.6
2.18,0.25,0.0,1.25,1.5,0.0,0.0,0.0,0.0,0.0,0.5,0.0,0.0,0.5,0.14,2.14,0.2,71.21,16.9,23.8,0.0,0.0,0.0,1.25,0.0,2.0,0.25,0.0,0.25,0.0,0.5,0.25,0.5,0.52,0.2,1.08,43.86,2.7,2.8
2.2,0.25,0.0,0.75,1.25,0.0,0.0,0.0,0.5,0.0,0.25,0.25,0.0,0.5,-0.42,1.08,0.83,63.93,11.3,8.5,1.5,0.75,0.5,0.5,2.5,0.5,0.25,0.25,0.0,0.0,0.0,0.0,0.5,0.45,-0.36,0.7,2.61,-8.0,51.3
2.22,0.25,0.0,1.0,0.25,0.0,0.0,0.0,1.75,0.25,1.25,0.0,1.0,0.75,0.64,1.7,0.7,74.05,0.6,-40.5,0.0,0.0,0.75,0.5,2.75,0.5,0.25,0.0,0.0,0.0,0.0,0.0,0.0,0.2,0.08,-0.73,0.0,-4.1,52.6
2.24,0.0,0.0,1.0,0.0,0.0,0.0,0.0,0.0,0.0,3.0,0.25,2.0,3.25,0.14,-0.23,2.77,104.29,-3.4,-79.9,1.0,0.75,0.25,2.75,2.25,2.0,0.25,0.0,0.25,1.0,0.0,0.25,0.75,0.14,-0.05,0.02,0.0,-2.8,30.7
2.26,0.0,0.0,0.0,0.0,0.0,0.0,0.0,0.0,0.25,4.75,3.0,0.0,6.25,0.52,0.08,1.77,159.57,-8.9,-90.3,1.25,0.75,0.75,1.25,2.75,2.0,0.25,0.0,0.5,1.0,0.0,0.0,0.5,0.39,0.14,0.45,34.07,-3.2,35.6
2.28,0.0,0.0,0.0,1.0,0.0,0.0,0.0,0.0,0.75,5.75,4.5,4.0,6.75,-0.55,0.45,2.2,242.1,-3.3,-84.6,1.0,1.0,0.5,2.25,2.25,2.0,0.25,0.0,0.25,1.0,0.0,0.25,0.5,-0.11,0.39,0.39,84.62,-3.5,34.8
2.3,0.0,0.0,0.0,1.0,0.0,0.0,0.0,0.0,0.0,5.0,0.0,1.25,0.0,-0.23,0.2,1.27,233.99,-6.7,-62.1,1.25,0.75,0.75,1.5,2.5,1.75,0.25,0.0,0.25,0.75,0.0,0.25,0.5,-0.17,0.58,0.14,113.59,-4.6,36.7
2.32,0.0,0.0,0.0,0.0,0.0,0.0,0.0,0.0,0.0,4.75,4.0,3.0,5.25,-0.17,0.08,1.02,259.11,-4.7,-92.4,1.5,1.0,0.75,2.0,2.25,1.5,0.25,0.0,0.5,1.0,0.25,0.25,0.5,-0.23,0.83,-0.17,145.73,-6.5,33.6
2.34,1.25,0.5,0.0,0.0,0.0,1.25,2.75,5.0,1.75,5.25,0.0,3.0,0.0,-0.11,0.08,1.02,260.69,-2.9,-38.8,1.25,1.0,0.0,0.25,0.25,2.0,0.25,0.0,0.25,0.75,0.0,0.0,0.0,-0.17,1.2,-0.36,131.76,-1.6,43.1
2.36,1.25,1.0,0.75,0.25,0.0,1.0,0.5,4.75,1.75,4.5,5.5,2.0,3.5,-0.11,0.14,0.95,305.07,-1.1,-49.0,1.5,0.75,0.25,1.75,0.5,2.0,0.25,0.0,0.5,0.75,0.25,0.0,0.5,-0.23,1.39,-0.36,136.38,-5.5,32.0
2.38,2.0,1.0,0.0,4.0,0.0,1.0,0.5,4.75,2.75,3.25,4.75,2.0,2.75,-0.11,0.08,0.95,345.14,2.3,-29.7,0.0,0.0,0.0,0.0,0.0,0.75,0.0,0.0,0.0,0.0,0.0,0.0,0.0,-0.3,1.39,-0.17,94.87,22.9,34.0
2.4,2.25,1.0,2.25,3.25,2.25,1.75,0.5,4.5,2.75,3.0,4.0,1.25,1.75,-0.11,0.08,0.95,400.5,4.3,-9.3,0.0,0.0,0.0,0.25,0.25,0.75,0.0,0.0,0.0,0.0,0.0,0.0,0.0,-0.48,1.27,0.02,60.06,10.0,43.5
2.42,3.0,1.0,1.25,4.0,2.75,1.0,1.0,4.5,3.0,2.75,4.0,1.0,1.5,-0.11,0.08,0.95,432.08,5.3,-5.0,0.0,0.0,0.0,0.0,0.25,0.75,0.0,0.0,0.0,0.0,0.0,0.0,0.0,-0.36,1.08,0.02,22.16,17.2,39.7
2.44,4.5,1.0,1.0,3.75,3.0,1.0,1.25,4.25,2.75,1.75,3.75,1.0,1.5,-0.11,0.08,0.95,447.06,7.1,2.7,1.5,1.0,0.0,1.25,0.5,2.0,0.75,0.0,0.25,1.0,0.0,0.25,0.5,-0.17,0.95,-0.11,45.49,-3.9,29.2
2.46,5.5,1.0,1.25,4.25,3.0,1.0,1.5,3.75,2.75,1.25,2.5,1.0,1.0,-0.11,0.02,0.95,445.35,9.5,14.7,1.25,0.5,0.75,0.25,1.5,1.25,0.25,0.0,0.0,0.0,0.0,0.0,0.75,0.14,0.95,-0.11,62.04,-6.4,42.7
2.48,6.5,1.0,2.25,5.25,3.75,0.0,1.5,3.75,2.0,1.25,1.5,0.75,0.5,-0.11,0.02,0.95,444.18,12.6,28.4,0.0,0.0,0.0,0.25,0.0,0.75,0.0,0.0,0.0,0.0,0.0,0.0,0.0,0.14,0.89,-0.11,50.51,12.0,40.5
2.5,6.75,1.25,2.75,7.0,4.0,1.0,1.5,2.75,1.75,1.25,1.5,0.5,0.5,-0.05,0.08,0.95,459.47,13.2,35.7,0.0,0.0,0.0,0.0,0.25,0.5,0.0,0.0,0.0,0.0,0.0,0.0,0.0,0.02,0.7,0.08,30.06,15.4,41.4
2.52,7.0,1.0,3.75,7.0,2.75,1.0,1.0,2.5,1.75,1.25,1.5,0.5,0.5,-0.11,0.08,0.89,470.71,15.0,36.3,0.0,0.0,0.0,0.0,0.0,0.5,0.0,0.0,0.0,0.0,0.0,0.0,0.0,0.02,0.52,0.14,4.9,22.9,34.0
2.54,7.0,1.0,4.25,6.25,1.25,0.0,1.25,2.5,2.5,1.25,1.75,0.25,0.5,-0.11,0.14,0.89,473.87,17.7,33.6,0.0,0.0,0.0,0.0,0.25,0.75,0.25,0.0,0.25,1.0,0.0,1.0,0.0,0.77,1.39,-4.55,6.71,5.1,-45.0
2.56,7.0,1.0,3.75,6.0,2.5,0.0,2.5,3.5,2.75,1.25,2.5,0.25,0.5,-0.11,0.08,1.02,466.26,15.4,28.5,0.0,0.0,0.0,0.0,0.0,0.5,0.0,0.0,0.0,0.0,0.0,0.0,0.0,1.39,3.77,-5.8,2.16,22.9,34.0
2.58,7.0,1.25,4.5,5.25,0.0,0.0,1.75,2.0,1.75,1.0,1.25,0.25,0.5,-0.11,0.02,1.02,426.34,20.5,39.0,1.25,1.0,0.0,0.5,0.25,0.0,0.25,0.0,0.0,1.25,0.0,0.25,0.5,2.2,1.95,0.77,35.78,-8.0,16.9
2.6,7.25,1.0,5.5,7.0,0.0,0.25,0.0,2.25,1.5,0.75,1.25,0.0,0.5,-0.17,0.08,0.95,401.1,20.6,43.8,0.0,0.0,0.5,0.0,1.5,0.0,0.25,0.0,0.0,0.0,0.25,0.0,0.0,0.7,0.64,2.52,40.39,-7.8,41.8
2.62,7.25,1.0,6.0,7.75,0.0,0.5,0.0,2.0,0.75,0.75,1.25,0.0,0.5,-0.11,0.14,0.95,387.91,21.0,47.4,1.5,0.75,1.75,0.5,1.75,1.25,0.25,0.0,0.25,1.0,0.25,0.0,0.5,-1.11,-1.17,2.77,91.42,-9.1,35.1
2.64,7.25,1.0,6.75,7.5,0.0,0.0,2.25,1.75,1.0,0.5,1.0,0.0,0.25,-0.05,0.08,0.95,388.95,23.7,50.7,0.25,0.0,0.75,0.0,0.5,0.5,0.25,0.0,0.25,0.0,0.0,0.0,0.25,-1.3,0.7,-1.55,82.75,-10.5,30.7
2.66,7.25,1.0,7.0,7.0,0.0,0.5,0.0,1.25,1.25,0.5,0.0,0.0,0.25,-0.05,0.14,0.89,381.14,23.9,56.9,0.0,0.0,0.0,0.5,0.0,2.0,0.0,0.0,0.25,1.0,0.0,0.25,0.0,1.52,1.39,-2.86,83.61,11.4,-4.5
2.68,7.5,1.25,7.25,7.75,0.0,0.5,3.0,0.75,1.75,0.75,0.75,0.0,0.5,-0.05,0.14,0.89,396.52,23.8,50.5,1.25,0.75,0.25,0.5,0.0,2.0,0.25,0.0,0.25,0.25,0.0,0.0,0.5,3.64,1.95,-2.23,78.83,-3.8,38.2
2.7,7.5,1.25,7.25,7.75,0.0,0.0,3.75,0.25,1.75,0.5,1.25,0.0,0.5,-0.11,0.08,1.08,406.9,25.4,51.0,0.25,0.75,0.0,0.5,0.25,2.0,0.0,0.0,0.25,0.75,0.25,0.5,0.0,0.64,-0.3,2.45,88.65,3.4,12.9
2.72,7.75,1.0,6.75,7.75,0.0,0.0,4.25,1.25,0.0,0.5,0.75,0.0,0.5,-0.11,0.08,1.08,410.25,25.0,55.0,1.25,0.75,1.5,0.5,1.25,2.0,0.25,0.0,0.25,0.75,0.25,0.25,0.75,-2.67,-4.23,5.27,118.12,-6.1,27.1
2.74,7.75,1.25,0.0,6.75,0.0,0.0,4.25,2.0,0.0,0.0,0.0,0.0,0.5,0.08,0.08,1.14,366.68,20.6,57.9,1.25,0.75,0.5,0.5,1.25,2.0,0.25,0.0,0.25,1.0,0.25,0.25,0.5,-1.36,-3.3,1.39,135.64,-2.3,24.2
2.76,0.0,1.25,0.0,7.0,0.0,0.0,3.75,2.0,0.0,0.0,0.0,0.0,0.25,-0.05,0.14,1.14,292.65,12.8,39.1,0.0,0.0,0.75,0.5,0.5,1.0,0.25,0.0,0.0,0.0,0.0,0.0,0.0,0.08,-1.05,-2.11,120.96,-6.4,48.9
2.78,0.0,1.0,9.25,0.0,0.0,0.0,3.5,1.5,0.0,0.0,0.25,0.0,0.25,-0.23,0.2,1.33,240.18,28.5,43.8,0.0,0.0,0.0,0.5,0.0,2.0,0.0,0.0,0.0,0.0,0.0,0.0,0.0,3.2,4.7,-7.98,90.73,14.1,39.2
2.8,0.0,1.0,0.0,4.0,0.0,0.0,0.0,2.0,0.0,0.25,0.0,0.0,0.25,-0.05,0.2,1.83,167.76,5.7,28.4,0.0,0.0,0.25,0.0,0.0,0.75,0.0,0.0,0.0,0.0,0.0,0.0,0.0,0.14,0.64,0.33,55.3,6.5,41.2
2.82,9.0,1.0,8.75,5.5,0.0,0.0,0.0,1.25,0.0,0.0,0.0,0.0,0.0,-0.23,0.2,1.89,213.56,28.6,69.1,0.0,0.0,0.0,0.0,0.25,0.75,0.0,0.0,0.0,0.0,0.25,0.0,0.0,0.08,-1.48,1.58,26.89,11.7,17.2
2.84,8.5,0.75,6.25,3.75,0.0,0.0,0.0,0.0,0.75,0.0,0.0,0.0,0.0,-0.11,0.14,1.7,233.56,30.8,72.9,1.0,0.75,0.0,0.0,0.0,0.5,0.0,0.0,0.0,0.0,0.25,0.0,0.0,-2.11,-1.11,-3.8,20.22,-14.1,68.4
2.86,0.0,0.0,3.75,0.0,0.0,0.0,0.0,0.0,0.0,0.0,0.0,0.0,0.0,0.2,0.2,1.95,194.31,38.2,61.0,0.0,0.0,0.0,0.0,0.0,0.5,0.0,0.0,0.0,0.0,0.0,0.0,0.0,0.45,1.58,-1.42,9.2,22.9,34.0
2.88,0.0,0.0,0.0,0.0,0.0,0.0,0.0,0.0,0.0,0.0,0.0,0.0,0.0,-0.42,0.45,0.95,103.73,0.0,0.0,0.0,0.0,0.0,0.0,0.25,1.25,0.0,0.0,0.25,0.75,0.0,0.5,0.0,0.45,-1.23,0.08,20.39,10.9,-21.9
2.9,0.0,0.0,0.0,0.0,0.0,0.0,0.0,0.0,0.0,0.0,0.0,0.0,0.0,-1.23,0.89,2.64,11.65,0.0,0.0,1.25,0.75,1.0,0.5,1.25,2.0,0.25,0.0,0.25,0.75,0.5,0.5,0.75,1.58,-0.67,-1.3,60.55,-4.6,19.2
2.92,1.25,0.0,1.5,0.5,0.0,0.0,0.0,0.0,0.75,0.5,0.0,0.0,0.25,-1.73,-1.92,1.14,0.0,22.5,30.4,1.25,0.75,1.75,0.5,1.25,2.0,0.25,0.0,0.25,1.0,0.25,0.25,0.5,1.27,-0.67,-1.3,102.48,-6.9,28.9
2.94,0.0,0.0,2.0,1.75,0.0,0.0,0.0,0.0,1.25,1.75,0.0,0.0,0.0,-0.42,-0.67,-0.36,0.0,14.2,7.5,1.5,0.75,1.0,0.5,1.0,2.0,0.25,0.0,0.25,1.0,0.25,0.25,0.5,0.83,0.02,-0.42,133.58,-5.3,27.2
2.96,0.0,0.5,1.75,1.0,0.0,0.0,0.0,0.0,1.25,1.0,0.0,0.0,0.25,3.33,3.58,0.33,27.75,15.2,11.9,1.25,0.0,1.25,0.0,0.5,1.25,0.25,0.0,0.0,1.5,0.25,0.25,0.5,0.77,0.58,-0.8,136.8,-5.7,7.5
2.98,0.0,0.0,1.25,1.0,0.0,0.0,0.0,0.0,0.5,0.25,0.0,0.0,0.0,3.33,2.64,0.14,39.82,22.5,32.8,0.25,0.75,1.5,0.5,0.5,2.0,0.25,0.0,0.25,1.0,0.0,0.0,0.0,0.83,0.52,-0.48,137.31,-4.6,34.3
3.0,0.0,0.0,1.25,0.25,0.0,0.0,0.0,0.0,0.25,0.5,0.0,0.0,0.25,1.08,1.95,0.83,31.73,17.7,7.0,1.5,0.75,1.75,0.5,1.0,2.0,0.25,0.25,0.25,0.0,0.25,0.0,0.5,0.52,0.77,-0.23,143.2,-9.8,43.6
3.02,0.0,0.0,1.5,0.5,0.0,0.0,0.0,0.0,0.0,0.25,0.0,0.0,0.0,0.39,4.33,-0.17,14.55,27.7,45.5,1.25,0.75,0.0,0.5,0.25,2.0,0.25,0.0,0.25,1.25,0.25,0.25,0.5,0.27,0.83,0.02,139.7,0.0,13.5
3.04,0.0,0.0,1.25,0.75,0.0,0.0,0.0,0.0,0.0,0.5,0.0,0.0,0.25,-0.98,1.02,-0.86,10.15,18.1,20.4,1.25,0.75,1.5,0.5,0.5,2.0,0.25,0.0,0.25,1.0,0.25,0.75,0.5,0.2,0.45,0.08,148.62,-7.1,18.4
3.06,0.0,0.0,1.25,0.75,0.0,0.0,0.0,0.5,0.0,0.5,0.0,0.0,0.25,-0.92,-1.86,-0.17,8.71,12.9,11.5,1.0,0.75,1.5,0.5,1.0,2.0,0.25,0.0,0.25,1.0,0.25,0.25,0.5,0.33,0.27,0.02,151.51,-5.7,25.5
3.08,0.0,0.0,1.25,1.25,0.0,0.0,0.0,0.25,0.0,0.5,0.0,0.0,0.0,0.2,-1.55,0.83,34.27,17.8,31.9,1.25,0.75,2.0,0.5,0.5,2.0,0.25,0.0,0.25,1.0,0.25,0.25,0.5,0.39,0.02,-0.67,155.18,-8.7,27.5
3.1,0.0,0.0,1.25,1.75,0.0,0.0,0.0,0.5,0.0,0.5,0.0,0.0,0.0,1.77,-0.3,0.95,59.44,15.6,30.9,1.0,0.75,0.75,0.5,1.5,2.0,0.25,0.0,0.25,1.0,0.25,0.25,0.5,2.52,0.08,-1.42,152.59,-2.3,24.3
3.12,0.0,0.0,1.25,2.0,0.0,0.0,0.0,0.0,0.0,0.5,0.0,0.0,0.0,1.14,0.2,0.77,64.88,19.9,41.7,1.25,0.75,1.5,0.5,0.5,2.0,0.25,0.0,0.25,1.0,0.5,0.25,0.75,0.77,0.2,-0.98,149.14,-6.5,19.2
3.14,0.25,0.0,1.25,1.75,0.0,0.0,0.0,0.5,0.0,0.5,0.0,0.0,0.0,0.7,0.77,0.7,67.19,16.7,34.5,1.25,0.75,1.25,0.5,0.5,2.0,0.25,0.0,0.25,0.75,0.25,0.5,0.5,-0.05,-0.05,-0.67,140.92,-6.8,23.5
3.16,0.25,0.0,1.25,1.25,0.0,0.0,0.0,0.0,0.0,0.5,0.0,0.0,0.25,0.7,0.14,0.77,62.17,19.1,30.9,1.25,0.75,1.5,0.5,1.0,2.0,0.25,0.0,0.25,1.0,0.25,0.25,0.5,0.83,-0.36,-0.42,143.56,-6.4,27.3
3.18,0.25,0.0,1.25,1.75,0.0,0.0,0.0,0.25,0.0,0.5,0.0,0.0,0.25,0.27,0.14,0.45,65.85,16.8,30.2,1.25,0.75,1.0,0.5,0.5,2.0,0.25,0.0,0.25,1.0,0.25,0.25,0.5,1.02,-0.05,-0.67,141.14,-5.1,23.4
3.2,0.0,0.0,1.25,1.25,0.0,0.0,0.0,1.0,0.0,0.25,0.0,0.0,0.25,0.58,0.02,0.45,68.23,11.5,16.6,1.25,0.75,0.5,0.5,0.5,2.0,0.25,0.0,0.25,1.25,0.25,0.25,0.5,0.64,-0.11,-0.61,137.71,-2.3,17.9
3.22,0.75,0.0,1.25,1.25,0.0,0.0,0.0,0.5,0.0,0.5,0.0,0.0,0.25,0.83,-0.36,0.39,74.38,16.8,30.1,1.25,0.75,1.25,0.5,0.5,2.0,0.25,0.0,0.25,1.0,0.25,0.5,0.5,0.83,-0.11,-0.3,134.82,-6.2,20.7
3.24,0.25,0.0,1.25,1.25,0.0,0.0,0.0,0.5,0.0,0.5,0.0,0.0,0.25,1.14,-0.48,0.33,73.69,14.7,22.4,1.25,0.75,1.25,0.5,0.5,2.0,0.25,0.0,0.25,1.0,0.25,0.25,0.5,0.89,-0.11,-0.42,132.97,-6.1,24.5
3.26,1.25,0.0,1.25,1.25,0.0,0.0,0.0,0.0,0.0,0.5,0.0,0.0,0.25,1.2,-0.3,0.39,76.09,22.3,44.7,1.25,0.75,0.75,0.5,1.25,2.0,0.25,0.0,0.25,1.0,0.5,0.25,0.5,0.77,-0.05,-0.36,136.71,-3.5,22.6
3.28,1.0,0.0,1.25,0.75,0.0,0.0,0.0,0.25,0.0,0.25,0.0,0.0,0.0,0.83,-0.05,0.58,70.93,24.9,53.2,1.25,0.75,1.25,0.5,0.5,2.0,0.25,0.0,0.25,1.5,0.25,0.25,0.5,0.83,0.02,-0.42,137.34,-4.9,19.0
3.3,0.25,0.0,1.25,0.75,0.0,0.0,0.0,0.5,0.25,0.5,0.0,0.0,0.25,0.52,0.08,0.64,67.39,14.2,13.6,1.25,0.75,1.0,0.5,0.5,1.75,0.25,0.0,0.25,0.75,0.25,0.5,0.5,0.77,0.08,-0.36,135.0,-6.7,22.0
3.32,1.0,0.0,1.0,0.5,0.0,0.0,0.0,0.25,0.25,0.25,0.0,0.0,0.0,0.58,0.14,0.77,61.03,23.5,45.2,1.25,0.75,1.0,0.5,0.5,2.0,0.25,0.0,0.25,1.0,0.25,0.25,0.5,0.77,0.14,-0.42,132.24,-5.1,23.4
3.34,1.25,0.0,1.0,0.75,0.0,0.0,0.0,0.25,0.25,0.25,0.0,0.0,0.0,0.95,-0.17,0.77,59.88,23.7,49.4,1.25,0.75,0.5,0.5,0.5,2.0,0.25,0.0,0.25,1.0,0.25,0.25,0.5,0.77,0.08,-0.42,127.38,-2.9,20.9
3.36,0.5,0.0,1.25,0.75,0.0,0.0,0.0,0.25,0.25,0.5,0.0,0.0,0.25,1.33,-0.36,0.77,59.25,17.5,22.2,1.25,0.75,0.75,0.5,0.5,2.0,0.25,0.0,0.25,1.0,0.25,0.25,0.5,0.83,0.02,-0.48,125.42,-4.0,22.2
3.38,0.25,0.0,1.25,0.75,0.0,0.0,0.0,0.25,0.25,0.25,0.0,0.0,0.0,1.27,-0.3,0.89,56.41,21.5,35.6,1.25,0.75,0.75,0.5,0.5,2.0,0.25,0.0,0.25,0.75,0.25,0.25,0.5,0.77,0.02,-0.48,123.32,-4.7,25.3
3.4,0.0,0.0,1.0,0.25,0.0,0.0,0.0,0.25,0.25,0.25,0.0,0.0,0.25,0.7,-0.42,0.64,48.57,15.3,5.0,1.5,0.75,1.0,0.5,0.5,2.0,0.25,0.0,0.25,1.0,0.25,0.0,0.5,0.77,-0.05,-0.48,125.35,-5.8,29.5
3.42,1.0,0.0,1.0,0.5,0.0,0.0,0.0,0.25,0.5,0.25,0.0,0.0,0.0,0.33,-0.42,0.39,47.9,22.7,39.3,1.25,0.5,0.75,0.5,0.5,2.0,0.25,0.0,0.25,1.0,0.25,0.25,0.5,0.77,0.02,-0.48,124.54,-3.8,19.7
3.44,1.25,0.0,1.0,1.0,0.0,0.0,0.0,0.25,0.25,0.25,0.0,0.0,0.0,0.14,-0.42,0.2,52.48,23.3,50.0,1.25,0.75,0.5,0.5,1.25,2.0,0.25,0.0,0.25,1.25,0.25,0.25,0.75,0.7,0.02,-0.55,130.22,-1.3,17.7
3.46,1.25,0.0,1.0,1.0,0.0,0.0,0.0,0.25,0.25,0.25,0.0,0.0,0.0,0.2,-0.48,0.27,59.0,23.3,50.0,1.0,0.5,1.25,0.5,1.75,1.5,0.25,0.0,0.25,0.75,0.25,0.25,0.5,0.77,0.02,-0.55,133.04,-5.8,27.5
3.48,1.25,0.0,1.0,1.0,0.0,0.0,0.0,0.25,0.25,0.5,0.0,0.0,0.0,0.52,-0.42,0.33,65.85,21.0,42.6,1.25,0.75,1.25,0.5,0.5,1.25,0.25,0.0,0.5,0.5,0.25,0.5,0.5,0.7,0.02,-0.48,132.14,-10.4,23.8
3.5,1.0,0.0,1.0,0.75,0.0,0.0,0.0,0.25,0.25,0.25,0.0,0.0,0.0,0.7,-0.42,0.33,65.99,23.0,46.2,1.25,0.75,1.0,0.5,0.5,2.0,0.25,0.0,0.5,1.0,0.25,1.0,0.5,0.77,0.02,-0.48,135.24,-5.6,11.1
3.52,0.75,0.25,1.0,1.0,0.0,0.0,0.0,0.25,0.25,0.25,0.0,0.0,0.25,0.89,-0.42,0.27,67.56,18.9,37.4,1.0,0.75,1.0,0.5,0.5,2.0,0.25,0.0,0.25,1.5,0.25,0.25,0.5,0.77,0.02,-0.48,135.32,-3.1,15.6
3.54,1.25,0.0,1.0,1.0,0.0,0.0,0.0,0.25,0.5,0.25,0.0,0.0,0.5,0.45,-0.23,0.27,70.89,18.7,28.0,1.25,0.75,1.5,0.5,0.5,2.0,0.25,0.0,0.25,1.0,0.25,0.25,0.5,0.7,0.02,-0.48,138.13,-7.0,25.6
3.56,0.75,0.0,1.0,1.0,0.0,0.0,0.0,0.25,0.25,0.25,0.0,0.0,0.25,0.7,-0.36,0.33,70.54,19.3,33.2,1.25,0.75,1.0,0.5,1.25,2.0,0.25,0.0,0.25,0.75,0.25,0.25,0.5,0.7,-0.05,-0.55,139.48,-4.9,29.1
3.58,1.25,0.0,1.25,0.75,0.0,0.0,0.0,0.25,0.25,0.25,0.0,0.0,0.0,0.77,-0.48,0.39,70.84,24.7,50.2,1.25,0.75,1.25,0.5,0.5,2.0,0.25,0.0,0.25,0.5,0.25,0.75,0.5,0.7,0.02,-0.55,139.85,-7.5,22.6
3.6,1.0,0.0,1.0,0.5,0.0,0.0,0.0,0.25,0.5,0.25,0.0,0.0,0.5,0.7,-0.48,0.58,69.5,18.0,20.1,1.25,0.75,1.0,0.5,0.5,2.0,0.25,0.0,0.25,1.0,0.0,0.0,0.5,0.7,0.02,-0.55,134.81,-4.8,30.7
3.62,1.0,0.0,1.0,0.5,0.0,0.0,0.0,0.25,0.25,0.5,0.0,0.0,0.25,0.64,-0.48,0.58,67.64,18.3,26.5,1.0,0.75,1.0,0.5,0.5,2.0,0.25,0.0,0.25,0.75,0.25,0.25,0.5,0.77,0.02,-0.55,129.85,-4.9,24.3
3.64,1.25,0.0,1.0,0.5,0.0,0.0,0.0,0.25,0.5,0.25,0.0,0.0,0.5,0.64,-0.48,0.58,67.27,18.9,24.4,1.0,0.75,1.25,0.5,1.5,1.25,0.25,0.0,0.25,0.25,0.25,0.5,0.5,0.7,0.02,-0.48,128.23,-8.5,30.7
3.66,0.5,0.0,1.0,0.5,0.0,0.0,0.0,0.25,0.25,0.25,0.0,0.0,1.0,0.64,-0.48,0.58,63.73,12.0,-3.2,0.75,0.75,1.0,0.5,0.5,1.75,0.25,0.0,0.25,0.5,0.0,0.25,0.5,0.77,0.02,-0.48,120.93,-5.3,28.6
3.68,1.0,0.0,1.0,0.5,0.0,0.0,0.0,0.75,0.25,0.25,0.0,0.0,0.25,0.64,-0.48,0.58,63.69,16.0,24.7,1.25,0.75,1.25,0.5,0.5,1.75,0.25,0.0,0.25,1.0,0.0,0.25,0.5,0.77,0.02,-0.48,120.96,-6.8,27.2
3.7,0.75,0.0,1.0,0.5,0.0,0.0,0.0,1.0,0.25,0.25,0.5,0.0,0.25,0.64,-0.48,0.52,65.5,12.6,6.6,1.25,0.5,0.75,0.5,0.5,1.5,0.25,0.0,0.25,0.75,0.25,0.5,0.5,0.77,0.02,-0.48,117.28,-6.3,17.6
3.72,0.75,0.0,1.0,0.5,0.0,0.0,0.0,0.25,0.25,0.25,1.0,0.0,0.5,0.64,-0.48,0.45,67.97,15.8,-1.3,1.25,0.75,1.0,0.5,0.5,2.0,0.25,0.0,0.25,1.0,0.0,0.0,0.5,0.77,0.02,-0.48,119.3,-4.8,30.7
3.74,1.0,0.0,1.0,0.25,0.0,0.0,0.0,1.75,0.5,0.25,0.75,0.0,0.25,0.58,-0.48,0.45,76.06,9.4,-3.4,1.25,0.75,1.25,0.5,0.5,1.75,0.25,0.0,0.25,1.0,0.25,0.25,0.5,0.77,0.02,-0.48,121.03,-6.9,24.2
3.76,0.5,0.0,1.25,0.5,0.0,0.0,0.0,0.75,0.25,0.25,0.25,0.0,0.5,0.58,-0.48,0.45,75.3,13.2,5.1,1.25,0.75,0.5,0.5,0.5,1.75,0.25,0.0,0.25,0.75,0.25,0.25,0.5,0.77,0.02,-0.48,120.68,-4.4,23.8
3.78,0.25,0.0,1.0,0.5,0.0,0.0,0.0,0.25,0.25,0.25,0.0,0.0,0.25,0.52,-0.48,0.45,66.84,17.1,17.7,1.25,0.75,1.0,0.5,0.5,1.75,0.25,0.0,0.25,1.5,0.25,0.25,0.5,0.77,0.02,-0.48,124.3,-4.6,17.3
3.8,0.25,0.0,1.0,0.5,0.0,0.0,0.0,0.25,0.25,0.25,0.75,0.0,0.25,0.58,-0.48,0.45,60.29,15.8,-1.4,0.75,0.75,1.0,0.5,0.5,2.0,0.25,0.0,0.25,1.0,0.25,0.0,0.5,0.77,0.02,-0.48,122.9,-3.1,23.2
3.82,0.25,0.0,1.0,0.25,0.0,0.0,0.0,1.25,0.25,0.25,0.5,0.0,0.5,0.58,-0.48,0.52,58.5,6.6,-16.2,1.0,0.75,1.0,0.5,0.5,2.0,0.25,0.0,0.25,1.0,0.0,0.25,0.5,0.77,0.02,-0.48,124.4,-4.0,24.2
3.84,0.0,0.0,1.0,0.25,0.0,0.0,0.0,1.5,0.25,0.25,0.75,0.0,0.5,0.64,-0.48,0.52,60.92,4.1,-26.4,1.25,0.5,1.0,0.5,0.5,1.75,0.25,0.0,0.5,0.5,0.25,0.0,0.5,0.77,0.02,-0.48,121.36,-7.3,29.6
3.86,0.0,0.0,1.0,0.25,0.0,0.0,0.0,2.0,0.25,0.25,0.5,0.0,0.25,0.64,-0.48,0.58,64.69,2.4,-20.4,1.25,0.75,0.75,0.5,0.5,2.0,0.25,0.0,0.25,0.0,0.25,0.5,0.5,0.77,0.02,-0.48,119.87,-6.9,31.1
3.88,0.0,0.0,1.0,0.25,0.0,0.0,0.0,2.0,0.25,0.25,0.5,0.0,0.5,0.64,-0.48,0.58,68.65,1.5,-25.3,1.25,0.75,1.0,0.5,0.5,1.75,0.25,0.0,0.25,0.75,0.5,0.25,0.5,0.77,0.02,-0.48,120.97,-6.7,23.2
3.9,0.0,0.0,1.0,0.5,0.0,0.0,0.0,1.5,0.25,0.25,0.0,0.0,0.0,0.64,-0.48,0.64,65.31,6.2,1.8,1.25,0.75,0.75,0.5,0.5,1.75,0.25,0.0,0.25,1.0,0.25,0.25,0.5,0.77,0.02,-0.48,122.58,-4.8,21.8
3.92,1.0,0.0,1.0,0.5,0.0,0.0,0.0,0.75,0.25,0.0,0.0,0.0,0.25,0.64,-0.48,0.58,62.76,18.1,31.4,1.25,0.75,0.75,0.5,0.5,2.0,0.25,0.0,0.25,1.0,0.25,0.25,0.5,0.77,0.02,-0.48,124.3,-4.0,22.2
3.94,1.25,0.0,1.0,0.5,0.0,0.0,0.0,0.5,0.25,0.25,0.0,0.0,0.25,0.58,-0.48,0.64,61.86,19.2,33.0,1.0,0.75,1.0,0.5,1.25,1.75,0.25,0.0,0.25,0.25,0.25,0.25,0.5,0.77,0.02,-0.48,126.15,-6.1,33.5
3.96,1.25,0.0,1.0,0.75,0.0,0.0,0.0,1.0,0.25,0.25,0.0,0.0,0.5,0.58,-0.55,0.58,68.29,13.8,19.7,1.25,0.5,0.5,0.5,0.25,2.0,0.25,0.0,0.25,0.75,0.25,0.5,0.5,0.77,0.02,-0.42,122.31,-3.7,15.7
3.98,1.25,0.0,1.0,0.5,0.0,0.0,0.0,0.0,0.25,0.25,0.0,0.0,0.0,0.58,-0.55,0.64,65.51,27.4,55.6,1.25,0.75,0.75,0.5,0.5,1.5,0.25,0.0,0.25,1.0,0.25,0.25,0.5,0.77,0.02,-0.48,120.4,-5.7,21.5
4.0,1.25,0.0,1.0,0.25,0.0,0.0,0.0,0.0,0.25,0.25,0.0,0.0,0.25,0.58,-0.55,0.64,64.0,25.0,42.1,1.0,0.5,0.5,0.5,1.0,2.0,0.25,0.0,0.25,1.0,0.25,0.25,0.5,0.77,0.08,-0.42,120.54,-1.2,18.5
4.02,1.0,0.0,1.0,0.25,0.0,0.0,0.0,0.0,0.25,0.25,0.0,0.0,0.75,0.58,-0.55,0.58,59.76,18.6,16.0,1.0,0.75,0.5,0.5,0.5,2.0,0.25,0.0,0.25,1.0,0.25,0.25,0.5,0.77,0.02,-0.48,119.62,-1.9,18.6
4.04,0.5,0.0,1.0,0.75,0.0,0.0,0.0,0.25,0.25,0.25,0.0,0.0,0.25,0.58,-0.48,0.58,55.38,18.4,26.6,1.0,0.75,1.0,0.5,0.5,1.75,0.25,0.0,0.25,0.75,0.25,0.25,0.5,0.77,0.02,-0.48,120.28,-5.7,24.0
4.06,1.5,0.0,1.0,0.25,0.0,0.0,0.0,0.0,0.25,0.25,0.0,0.0,0.5,0.58,-0.48,0.52,55.31,22.9,35.1,1.0,0.75,0.75,0.5,0.5,2.0,0.25,0.0,0.25,1.0,0.25,0.25,0.5,0.77,0.02,-0.42,121.15,-3.1,19.9
4.08,1.0,0.0,1.0,0.25,0.0,0.0,0.0,0.0,0.25,0.25,0.0,0.0,0.75,0.58,-0.48,0.52,55.53,18.6,16.0,1.25,0.75,0.5,0.5,0.5,1.75,0.25,0.0,0.25,1.0,0.25,0.25,0.5,0.77,0.02,-0.48,120.77,-3.7,20.5
4.1,1.5,0.0,1.0,0.25,0.0,0.0,0.0,0.0,0.25,0.25,0.0,0.0,0.25,0.52,-0.48,0.52,56.76,25.6,45.9,1.0,0.75,0.5,0.5,0.5,1.5,0.25,0.0,0.25,0.5,0.25,0.25,0.5,0.77,0.02,-0.48,115.01,-5.0,24.6
4.12,1.0,0.0,1.0,0.25,0.0,0.0,0.0,0.0,0.25,0.25,0.0,0.0,0.25,0.52,-0.55,0.52,53.82,24.2,37.8,1.25,0.5,0.75,0.5,0.5,1.75,0.25,0.0,0.25,0.75,0.25,0.25,0.5,0.77,0.02,-0.48,113.28,-5.3,22.5
4.14,1.25,0.0,1.0,0.25,0.0,0.0,0.0,0.0,0.25,0.25,0.0,0.0,0.25,0.52,-0.55,0.58,53.48,25.0,42.1,1.25,0.5,0.75,0.5,0.5,1.5,0.25,0.0,0.25,0.75,0.5,0.25,0.5,0.77,0.02,-0.48,112.3,-6.4,18.8
4.16,1.25,0.0,1.0,0.5,0.0,0.0,0.0,0.0,0.25,0.25,0.25,0.0,0.25,0.52,-0.55,0.58,54.56,23.5,35.6,1.0,0.5,0.5,0.5,0.5,2.0,0.25,0.0,0.25,1.0,0.25,0.25,0.5,0.77,0.02,-0.48,112.69,-1.6,15.7
4.18,1.25,0.0,1.0,0.25,0.0,0.0,0.0,0.0,0.25,0.25,0.0,0.0,0.25,0.58,-0.55,0.58,54.53,25.0,42.1,1.25,0.75,0.75,0.5,0.5,1.75,0.25,0.0,0.25,1.25,0.0,0.25,0.5,0.77,0.02,-0.48,116.25,-4.0,21.7
4.2,1.0,0.0,1.0,0.25,0.0,0.0,0.0,0.0,0.5,0.25,0.5,0.0,0.25,0.52,-0.55,0.58,56.79,21.6,17.9,1.25,0.75,0.25,0.5,1.0,1.75,0.25,0.0,0.25,0.5,0.5,0.25,0.5,0.77,0.02,-0.48,119.18,-3.5,24.9
4.22,0.75,0.0,1.0,0.25,0.0,0.0,0.0,0.25,0.25,0.25,0.5,0.0,0.25,0.52,-0.55,0.58,57.83,18.6,12.5,1.25,0.75,0.75,0.5,0.5,2.0,0.25,0.0,0.25,1.0,0.25,0.25,0.5,0.77,0.02,-0.48,122.43,-4.0,22.2
4.24,1.25,0.0,1.0,0.25,0.0,0.0,0.0,0.25,0.25,0.25,0.5,0.0,0.25,0.52,-0.55,0.58,60.51,20.6,22.6,1.0,0.75,1.0,0.5,0.5,1.75,0.25,0.0,0.25,1.25,0.25,0.25,0.5,0.77,0.02,-0.48,124.69,-4.4,17.9
4.26,1.0,0.0,1.0,0.25,0.0,0.0,0.0,0.25,0.25,0.25,0.75,0.0,0.25,0.52,-0.55,0.58,61.76,19.1,12.1,1.0,0.75,0.75,0.25,0.5,1.5,0.25,0.0,0.25,0.5,0.25,0.0,0.5,0.77,0.02,-0.48,118.85,-5.7,29.9
4.28,1.25,0.0,1.0,0.25,0.0,0.0,0.0,0.0,0.25,0.25,0.75,0.0,0.25,0.52,-0.55,0.52,64.04,22.3,20.4,1.25,0.75,1.0,0.5,0.5,1.75,0.25,0.0,0.25,0.25,0.25,0.25,0.75,0.77,0.02,-0.48,118.24,-7.4,28.3
4.3,1.25,0.0,0.75,0.75,0.0,0.0,0.0,0.25,0.5,0.25,0.5,0.0,0.75,0.52,-0.55,0.58,69.89,15.3,7.6,1.25,0.75,0.5,0.5,0.5,1.75,0.25,0.0,0.25,1.0,0.25,0.5,0.5,0.77,0.02,-0.48,118.11,-3.9,16.4
4.32,1.25,0.0,0.5,0.5,0.0,0.0,0.0,0.25,0.25,0.25,0.75,0.0,0.25,0.52,-0.55,0.58,70.2,17.4,13.9,1.25,0.75,0.5,0.5,0.5,1.25,0.25,0.0,0.5,1.0,0.25,0.0,0.5,0.77,0.02,-0.48,117.55,-5.6,22.1
4.34,1.5,0.0,1.0,0.25,0.0,0.0,0.0,0.25,0.25,0.25,0.25,0.0,0.25,0.52,-0.55,0.58,70.36,22.0,33.1,1.0,0.75,0.5,0.5,0.5,1.5,0.25,0.0,0.25,0.75,0.25,0.25,0.5,0.77,0.02,-0.48,114.58,-4.3,20.9
4.36,0.75,0.0,0.5,0.75,0.0,0.0,0.0,0.0,0.25,0.25,0.0,0.0,0.25,0.52,-0.55,0.58,62.1,19.3,32.2,1.0,0.75,0.75,0.5,0.5,1.5,0.25,0.0,0.25,0.5,0.25,0.25,0.5,0.77,0.02,-0.48,111.55,-6.3,25.9
4.38,0.5,0.0,0.5,0.25,0.0,0.0,0.0,0.0,0.25,0.25,0.0,0.0,0.25,0.52,-0.55,0.58,50.28,18.0,17.8,1.0,0.75,0.75,0.5,0.5,2.0,0.25,0.0,0.25,0.75,0.25,0.25,0.5,0.77,0.02,-0.48,112.6,-3.7,23.1
4.4,1.25,0.0,1.0,0.25,0.0,0.0,0.0,0.25,0.25,0.25,0.0,0.0,0.25,0.52,-0.55,0.58,47.72,21.9,36.3,1.25,0.75,0.75,0.5,0.5,1.75,0.25,0.0,0.25,1.0,0.25,0.25,0.5,0.77,0.02,-0.48,115.63,-4.8,21.8
4.42,1.0,0.0,1.0,0.25,0.0,0.0,0.0,0.0,0.25,0.25,0.0,0.0,0.25,0.52,-0.55,0.58,46.52,24.2,37.8,1.0,0.75,0.75,0.5,0.5,1.75,0.25,0.0,0.25,0.25,0.25,0.5,0.5,0.77,0.02,-0.48,115.89,-6.2,25.0
4.44,1.0,0.0,1.0,0.5,0.0,0.0,0.0,0.25,0.25,0.25,0.0,0.0,0.25,0.52,-0.55,0.58,50.41,20.7,33.8,1.25,0.75,1.0,0.5,0.25,1.5,0.25,0.0,0.25,0.5,0.25,0.25,0.5,0.77,0.02,-0.48,115.42,-8.8,28.5
4.46,1.25,0.0,0.75,0.5,0.0,0.0,0.0,0.0,0.25,0.25,0.5,0.0,0.25,0.52,-0.55,0.58,53.95,21.6,26.6,1.25,0.75,0.75,0.5,0.5,2.0,0.25,0.0,0.25,1.0,0.25,0.5,0.5,0.77,0.02,-0.48,119.49,-4.2,18.3
4.48,1.0,0.0,1.0,0.5,0.0,0.0,0.0,0.0,0.25,0.25,0.5,0.0,0.25,0.52,-0.55,0.58,57.38,21.9,24.5,1.25,0.75,0.75,0.5,0.5,1.75,0.25,0.0,0.25,0.5,0.25,0.25,0.5,0.77,0.02,-0.48,119.84,-6.3,28.5
4.5,1.5,0.0,0.75,0.75,0.0,0.0,0.0,0.0,0.25,0.25,0.75,0.0,0.25,0.52,-0.55,0.58,62.77,21.5,26.6,1.25,0.75,0.75,0.5,0.5,1.75,0.25,0.0,0.25,0.5,0.25,0.25,0.5,0.77,0.02,-0.48,120.79,-6.3,28.5
4.52,1.0,0.0,0.75,1.0,0.0,0.0,0.0,0.0,0.25,0.25,0.5,0.0,0.25,0.52,-0.55,0.58,65.25,20.3,26.5,1.25,0.5,0.5,0.5,0.5,2.0,0.25,0.0,0.25,0.25,0.25,0.25,0.5,0.77,0.02,-0.48,116.1,-4.6,28.6
4.54,0.5,0.0,1.0,0.25,0.0,0.0,0.0,0.25,0.25,0.25,0.5,0.0,0.25,0.52,-0.55,0.58,62.55,17.5,6.3,1.0,0.5,0.75,0.5,0.5,2.0,0.25,0.0,0.25,1.0,0.25,0.25,0.5,0.77,0.02,-0.48,116.55,-2.8,17.3
4.56,1.25,0.0,0.75,0.5,0.0,0.0,0.0,0.25,0.25,0.25,0.5,0.0,0.25,0.52,-0.55,0.58,63.61,19.2,22.4,1.25,0.75,0.75,0.5,0.5,1.75,0.25,0.0,0.0,0.5,0.25,0.25,0.5,0.77,0.02,-0.48,114.96,-6.0,30.8
4.58,1.5,0.0,0.75,0.5,0.0,0.0,0.0,0.25,0.25,0.25,0.5,0.0,0.5,0.52,-0.55,0.58,66.73,18.1,18.7,1.0,0.5,0.75,0.25,0.5,1.75,0.25,0.0,0.25,0.75,0.25,0.25,0.5,0.77,0.02,-0.48,112.88,-3.8,18.5
4.6,1.0,0.0,0.5,0.5,0.0,0.0,0.0,0.25,0.25,0.25,0.5,0.0,0.25,0.58,-0.55,0.58,65.65,16.7,14.5,1.25,0.5,0.75,0.5,0.25,1.5,0.25,0.0,0.25,0.5,0.25,0.25,0.5,0.77,0.02,-0.48,108.82,-7.5,24.4
4.62,1.0,0.0,0.5,0.5,0.0,0.0,0.0,0.25,0.25,0.25,0.25,0.0,0.25,0.58,-0.55,0.58,62.02,17.2,21.2,1.25,0.5,0.75,0.5,0.5,2.0,0.25,0.0,0.25,0.75,0.25,0.5,0.5,0.77,0.02,-0.48,111.46,-4.5,18.6
4.64,0.75,0.0,0.5,0.0,0.0,0.0,0.0,0.75,0.25,0.25,0.25,0.0,0.25,0.52,-0.55,0.58,54.74,10.0,-1.3,1.0,0.75,0.25,0.5,0.5,1.75,0.25,0.0,0.5,0.75,0.25,0.0,0.5,0.77,0.02,-0.48,110.24,-2.2,22.5
4.66,0.75,0.0,0.5,0.25,0.0,0.0,0.0,0.0,0.25,0.25,0.25,0.0,0.25,0.52,-0.48,0.58,47.51,18.9,16.2,1.25,0.75,0.75,0.5,0.5,1.75,0.25,0.0,0.25,0.75,0.25,0.25,0.5,0.77,0.02,-0.48,114.51,-5.5,25.0
4.68,1.25,0.25,0.5,0.25,0.0,0.0,0.0,0.0,0.25,0.0,0.25,0.0,0.25,0.52,-0.55,0.58,44.51,23.8,44.1,1.25,0.5,0.5,0.5,0.5,1.75,0.25,0.0,0.25,0.75,0.25,0.25,0.5,0.77,0.02,-0.48,113.47,-4.1,21.1
4.7,0.75,0.0,0.5,0.25,0.0,0.0,0.0,0.0,0.25,0.25,0.25,0.0,0.25,0.52,-0.55,0.58,41.05,18.9,16.2,1.0,0.75,0.75,0.5,0.5,1.75,0.25,0.0,0.25,1.0,0.25,0.5,0.5,0.77,0.02,-0.48,116.82,-4.1,15.4
4.72,1.25,0.0,0.75,0.5,0.0,0.0,0.0,0.25,0.25,0.25,0.25,0.0,0.25,0.52,-0.55,0.58,46.58,19.7,28.8,1.25,0.5,0.75,0.5,0.5,2.0,0.25,0.0,0.25,0.0,0.25,0.25,0.5,0.7,0.02,-0.55,115.05,-6.6,33.6
4.74,1.0,0.0,0.75,1.0,0.0,0.0,0.0,0.0,0.25,0.25,0.0,0.0,0.25,0.52,-0.55,0.58,50.32,21.6,40.6,1.25,0.5,0.5,0.5,0.5,1.5,0.25,0.0,0.25,1.0,0.25,0.25,0.5,0.77,0.08,-0.55,114.58,-4.3,17.2
4.76,1.0,0.0,0.75,0.5,0.0,0.0,0.0,0.0,0.25,0.25,0.0,0.0,0.25,0.58,-0.48,0.58,52.72,22.3,37.5,0.75,0.75,0.75,0.5,0.5,1.5,0.25,0.0,0.25,0.25,0.25,0.25,0.5,0.77,0.02,-0.55,109.65,-6.1,27.3
4.78,0.5,0.0,0.5,0.25,0.0,0.0,0.0,0.0,0.25,0.25,0.0,0.0,0.25,0.52,-0.48,0.58,46.0,18.0,17.8,0.75,0.25,0.75,0.5,0.5,1.25,0.25,0.0,0.25,1.0,0.25,0.25,0.5,0.77,0.08,-0.55,104.81,-4.1,9.2
4.8,1.0,0.0,0.5,0.25,0.0,0.0,0.0,0.0,0.25,0.25,0.0,0.0,0.25,0.52,-0.48,0.58,41.61,21.2,32.9,1.25,0.75,0.5,0.5,0.5,1.25,0.25,0.0,0.25,0.0,0.25,0.75,0.5,0.7,0.08,-0.55,102.96,-9.0,24.3
4.82,1.0,0.0,0.5,0.5,0.0,0.0,0.0,0.0,0.25,0.25,0.0,0.0,0.25,0.52,-0.48,0.58,40.0,20.8,35.3,0.75,0.75,0.75,0.5,0.5,1.5,0.25,0.0,0.25,1.0,0.5,0.25,0.5,0.77,0.08,-0.55,106.09,-4.0,13.4
4.84,1.25,0.0,0.5,0.5,0.0,0.0,0.0,0.25,0.25,0.0,0.0,0.25,0.25,0.52,-0.55,0.58,44.76,20.9,31.5,1.25,0.75,0.75,0.5,0.5,1.25,0.25,0.0,0.25,1.0,0.25,0.5,0.5,0.7,0.08,-0.55,110.92,-6.7,16.8
4.86,1.0,0.0,0.5,0.5,0.0,0.0,0.0,0.25,0.25,0.25,0.0,0.0,0.25,0.58,-0.48,0.58,47.79,17.7,29.1,1.0,0.5,0.5,0.5,0.5,1.25,0.25,0.0,0.5,1.0,0.25,0.25,0.5,0.7,0.08,-0.55,110.82,-4.5,11.9
4.88,1.25,0.0,0.75,0.5,0.0,0.0,0.0,0.0,0.25,0.25,0.0,0.0,0.25,0.52,-0.48,0.58,51.96,23.3,41.9,1.25,0.5,0.75,0.5,1.0,1.25,0.25,0.0,0.25,0.25,0.25,0.25,0.5,0.7,0.08,-0.48,112.05,-8.0,31.3
4.9,1.25,0.0,0.75,0.25,0.0,0.0,0.0,0.0,0.25,0.25,0.0,0.0,0.25,0.58,-0.48,0.58,52.01,23.8,40.5,1.25,0.75,0.5,0.5,0.5,1.75,0.25,0.0,0.25,1.25,0.25,0.25,0.5,0.77,0.02,-0.55,114.65,-3.1,17.4
4.92,1.0,0.0,0.75,0.75,0.0,0.0,0.0,2.0,0.25,0.25,0.0,0.0,0.25,0.58,-0.48,0.58,62.99,7.1,9.4,1.25,0.75,0.75,0.5,0.5,1.25,0.25,0.0,0.25,0.5,0.25,0.5,0.5,0.77,0.08,-0.55,115.24,-8.3,23.3
4.94,0.5,0.0,0.75,0.0,0.0,0.0,0.0,1.75,0.25,0.25,0.0,0.0,0.25,0.58,-0.48,0.58,64.38,3.2,-8.4,1.25,0.5,0.75,0.5,0.5,1.5,0.25,0.0,0.25,0.75,0.25,0.0,0.5,0.77,0.08,-0.55,114.21,-6.1,26.9
4.96,0.5,0.0,0.75,0.25,0.0,0.0,0.0,0.0,0.25,0.25,0.0,0.0,0.25,0.58,-0.48,0.58,58.29,20.3,22.7,1.0,0.75,0.75,0.5,0.5,1.75,0.25,0.0,0.25,1.0,0.25,0.25,0.5,0.77,0.08,-0.55,116.66,-3.9,19.5
4.98,1.0,0.0,0.75,0.5,0.0,0.0,0.0,0.0,0.5,0.25,0.0,0.0,0.25,0.58,-0.48,0.58,55.31,21.6,31.7,1.0,0.5,1.25,0.5,0.5,1.25,0.25,0.0,0.25,1.0,0.25,0.25,0.5,0.77,0.08,-0.55,117.22,-7.7,18.7
5.0,0.5,0.0,0.5,0.25,0.0,0.0,0.0,0.0,0.25,0.25,0.0,0.0,0.25,0.52,-0.48,0.58,46.63,18.0,17.8,1.25,0.75,0.75,0.5,0.5,1.5,0.25,0.0,0.25,0.5,0.25,0.25,0.5,0.7,0.08,-0.55,117.07,-7.2,28.3
5.02,0.75,0.0,0.75,0.25,0.0,0.0,0.0,0.0,0.25,0.25,0.0,0.0,0.25,0.58,-0.48,0.58,43.03,21.7,29.7,1.25,0.5,0.75,0.5,0.5,1.75,0.25,0.0,0.25,0.75,0.25,0.25,0.5,0.7,0.08,-0.55,116.93,-5.3,22.5
5.04,1.0,0.0,0.75,0.5,0.0,0.0,0.0,0.0,0.25,0.25,0.0,0.0,0.25,0.58,-0.48,0.58,42.49,22.3,37.5,1.25,0.5,1.0,0.5,0.5,2.0,0.25,0.0,0.25,1.0,0.25,0.0,0.5,0.77,0.08,-0.55,119.18,-4.7,25.1
5.06,0.75,0.0,0.75,1.0,0.0,0.0,0.0,0.0,0.25,0.25,0.0,0.0,0.25,0.58,-0.48,0.58,47.09,20.6,36.5,1.25,0.75,0.75,1.0,0.5,1.0,0.25,0.0,0.25,0.5,0.25,0.25,0.5,0.77,0.08,-0.55,117.97,-9.9,30.1
5.08,1.0,0.0,0.5,0.5,0.0,0.0,0.0,0.0,0.25,0.25,0.0,0.0,0.25,0.58,-0.48,0.58,46.77,20.8,35.3,1.0,0.5,0.75,0.5,0.25,1.5,0.25,0.0,0.5,1.25,0.25,0.25,0.5,0.77,0.08,-0.55,117.18,-4.4,9.7
5.1,1.25,0.0,0.5,0.5,0.0,0.0,0.0,0.0,0.25,0.25,0.25,0.0,0.75,0.58,-0.48,0.58,51.72,16.3,11.9,0.75,0.75,0.75,0.5,0.25,2.0,0.25,0.0,0.25,1.0,0.25,0.25,0.5,0.77,0.08,-0.55,116.26,-2.4,16.1
5.12,1.25,0.0,0.5,1.0,0.0,0.0,0.0,0.0,0.25,0.25,0.0,0.0,0.25,0.52,-0.48,0.58,54.32,21.2,42.9,1.0,0.5,0.5,0.5,0.5,1.5,0.25,0.0,0.25,0.5,0.25,0.25,0.5,0.77,0.08,-0.55,110.36,-4.7,21.6
5.14,1.25,0.0,1.0,1.0,0.0,0.0,0.0,0.0,0.5,0.0,0.0,0.0,0.25,0.52,-0.48,0.58,60.18,25.2,47.6,1.25,0.5,0.75,0.5,0.5,1.25,0.25,0.0,0.25,0.75,0.25,0.25,0.5,0.77,0.08,-0.55,107.86,-7.2,21.7
5.16,1.25,0.0,0.75,0.5,0.0,0.0,0.0,0.0,0.25,0.0,0.0,0.0,0.25,0.52,-0.48,0.58,58.37,26.5,51.8,1.0,0.5,0.0,0.5,0.5,1.75,0.25,0.0,0.25,0.5,0.25,0.0,0.5,0.77,0.08,-0.55,101.6,-0.5,24.2
5.18,1.25,0.0,1.0,0.5,0.0,0.0,0.0,0.0,0.25,0.0,0.0,0.0,0.25,0.58,-0.48,0.58,60.36,27.5,52.5,1.25,0.5,0.75,0.5,0.5,1.75,0.25,0.0,0.25,0.5,0.25,0.25,0.5,0.77,0.02,-0.55,103.59,-6.0,25.9
5.2,1.25,0.0,0.5,0.25,0.0,0.0,0.0,0.0,0.25,0.25,0.0,0.0,0.25,0.58,-0.48,0.58,55.46,22.4,38.5,0.75,0.75,0.75,0.5,0.25,1.5,0.25,0.0,0.25,1.0,0.25,0.25,0.5,0.77,0.02,-0.55,102.97,-4.1,14.9
5.22,1.25,0.0,1.0,0.25,0.0,0.0,0.0,0.0,0.25,0.0,0.0,0.0,0.25,0.58,-0.48,0.58,52.99,28.4,52.1,1.0,0.75,0.5,0.5,0.5,1.75,0.25,0.0,0.25,0.0,0.25,0.25,0.5,0.77,0.08,-0.55,103.83,-5.6,32.8
5.24,1.25,0.0,1.0,0.25,0.0,0.0,0.0,0.0,0.25,0.25,0.0,0.0,0.5,0.58,-0.48,0.58,54.02,22.1,30.9,1.25,0.75,0.75,0.5,0.5,1.5,0.25,0.0,0.25,1.0,0.25,0.25,0.5,0.77,0.08,-0.48,108.42,-5.7,21.5
5.26,1.25,0.0,0.75,0.25,0.0,0.0,0.0,0.0,0.25,0.25,0.0,0.0,0.0,0.52,-0.48,0.58,51.71,27.4,54.8,1.25,0.5,0.75,0.5,0.5,1.25,0.25,0.0,0.25,0.25,0.25,0.25,0.5,0.77,0.08,-0.48,106.95,-9.0,29.3
5.28,1.0,0.0,0.75,0.25,0.0,0.0,0.0,0.0,0.25,0.0,0.0,0.0,0.25,0.52,-0.48,0.58,47.93,26.7,46.8,0.75,0.75,0.25,0.75,0.5,1.5,0.25,0.0,0.25,0.75,0.25,0.25,0.5,0.77,0.08,-0.55,106.41,-2.4,18.1
5.3,0.75,0.0,0.75,0.5,0.0,0.0,0.0,0.0,0.25,0.0,0.0,0.0,0.25,0.52,-0.48,0.58,44.19,25.0,43.2,1.25,0.75,0.75,0.5,0.5,1.5,0.25,0.0,0.25,0.0,0.25,0.0,0.5,0.77,0.08,-0.55,104.8,-9.0,41.9
5.32,1.25,0.0,1.0,0.5,0.0,0.0,0.0,0.0,0.5,0.25,0.0,0.0,0.25,0.58,-0.48,0.58,48.71,23.6,37.9,1.25,0.5,0.75,0.5,0.5,1.5,0.25,0.0,0.25,0.75,0.5,0.0,0.5,0.77,0.08,-0.55,107.49,-6.3,23.4
5.34,0.75,0.0,1.0,0.25,0.0,0.0,0.0,0.0,0.25,0.25,0.0,0.0,0.25,0.58,-0.48,0.58,47.25,23.3,32.7,1.25,0.5,0.75,0.5,0.5,1.25,0.25,0.0,0.25,0.5,0.25,0.25,0.5,0.77,0.08,-0.55,107.01,-8.1,25.3
5.36,0.25,0.0,1.0,0.25,0.0,0.0,0.0,0.0,0.5,0.25,0.0,0.0,0.25,0.58,-0.48,0.58,46.21,20.0,13.6,1.25,0.75,0.75,0.5,0.5,1.5,0.25,0.0,0.25,1.0,0.25,0.25,0.5,0.77,0.02,-0.55,112.83,-5.7,21.5
5.38,0.0,0.0,1.0,1.0,0.0,0.0,0.0,0.0,0.25,0.0,0.0,0.0,0.25,0.58,-0.48,0.58,43.77,22.0,33.1,1.25,0.75,0.25,0.5,0.5,1.75,0.25,0.0,0.25,1.0,0.25,0.25,0.5,0.77,0.08,-0.48,114.74,-2.5,19.1
5.4,0.0,0.0,1.0,0.25,0.0,0.0,0.0,0.0,0.5,0.25,0.0,0.0,0.25,0.52,-0.48,0.58,40.68,18.5,5.1,0.75,0.75,0.75,0.5,0.5,1.25,0.25,0.0,0.25,1.0,0.25,0.0,0.5,0.77,0.08,-0.55,113.67,-4.6,20.6
5.42,0.5,0.25,1.0,0.5,0.0,0.0,0.0,0.0,0.5,0.0,0.0,0.0,0.25,0.52,-0.48,0.58,42.29,23.2,38.6,1.25,0.5,0.75,0.5,0.5,1.5,0.25,0.0,0.25,0.0,0.25,0.25,0.5,0.77,0.08,-0.48,109.02,-8.8,33.6
5.44,0.5,0.0,0.75,0.25,0.0,0.0,0.0,0.0,0.25,0.25,0.0,0.0,0.25,0.52,-0.48,0.58,40.6,20.3,22.7,1.25,0.5,0.5,0.5,0.5,1.25,0.25,0.0,0.0,1.25,0.25,0.25,0.5,0.77,0.08,-0.48,107.65,-4.2,15.3
5.46,1.0,0.0,1.0,0.5,0.0,0.0,0.0,0.0,0.25,0.25,0.0,0.0,0.25,0.58,-0.48,0.58,45.56,23.6,39.4,1.0,0.5,0.75,0.5,0.5,1.5,0.25,0.0,0.25,0.25,0.25,0.25,0.5,0.77,0.08,-0.48,104.75,-6.9,27.0
5.48,0.0,0.0,1.0,0.5,0.0,0.0,0.0,0.0,0.25,0.25,0.0,0.0,0.25,0.52,-0.48,0.58,42.72,19.0,15.7,1.0,0.5,0.75,0.5,0.5,1.5,0.25,0.0,0.25,0.75,0.25,0.5,0.5,0.77,0.08,-0.48,106.1,-5.4,15.0
5.5,0.5,0.0,0.75,0.75,0.0,0.0,0.0,0.0,0.25,0.25,0.0,0.0,0.25,0.52,-0.48,0.58,45.01,19.7,29.3,1.0,0.75,0.75,0.5,0.5,1.5,0.25,0.0,0.25,1.0,0.0,0.25,0.5,0.77,0.02,-0.48,109.31,-4.6,22.3
