time,left pressure 0[N/cm²],left pressure 1[N/cm²],left pressure 2[N/cm²],left pressure 3[N/cm²],left pressure 4[N/cm²],left pressure 5[N/cm²],left pressure 6[N/cm²],left pressure 7[N/cm²],left pressure 8[N/cm²],left pressure 9[N/cm²],left pressure 10[N/cm²],left pressure 11[N/cm²],left pressure 12[N/cm²],left acceleration X[g],left acceleration Y[g],left acceleration Z[g],left total force[N],left center of pressure X[mm],left center of pressure Y[mm],right pressure 0[N/cm²],right pressure 1[N/cm²],right pressure 2[N/cm²],right pressure 3[N/cm²],right pressure 4[N/cm²],right pressure 5[N/cm²],right pressure 6[N/cm²],right pressure 7[N/cm²],right pressure 8[N/cm²],right pressure 9[N/cm²],right pressure 10[N/cm²],right pressure 11[N/cm²],right pressure 12[N/cm²],right acceleration X[g],right acceleration Y[g],right acceleration Z[g],right total force[N],right center of pressure X[mm],right center of pressure Y[mm]
0.02,0.5,0.25,0.0,0.0,0.0,0.0,1.75,3.25,0.5,0.75,1.5,0.5,0.25,-0.73,-0.61,1.45,168.55,0.3,-36.3,0.0,0.0,0.0,0.5,0.0,0.5,0.0,0.5,0.5,1.25,0.0,0.75,0.25,-0.61,1.14,1.08,47.01,4.8,-46.3
0.04,0.0,0.25,0.25,0.0,2.5,0.0,0.0,0.75,0.0,0.5,0.75,0.5,0.25,-0.48,-0.55,1.33,144.7,-1.3,-1.3,1.25,0.0,1.0,0.5,1.25,0.5,0.5,0.75,0.5,1.5,0.75,0.75,1.5,-0.55,0.83,0.83,34.94,-4.1,-15.0
0.06,1.5,0.25,0.25,1.25,0.0,0.0,0.0,1.0,0.5,0.5,0.75,0.5,0.25,-0.8,-1.11,1.14,125.88,11.1,3.1,1.25,0.25,1.0,0.0,1.25,0.5,0.25,0.75,0.0,0.0,0.5,0.75,1.0,-0.11,0.95,0.95,22.13,-7.5,5.1
0.08,2.5,0.25,0.0,1.25,0.0,0.25,0.0,2.25,0.5,0.5,0.0,0.5,0.5,-1.23,0.52,0.77,125.45,7.1,9.8,0.0,0.0,1.0,0.0,1.25,0.5,0.5,0.5,0.5,1.0,0.5,0.75,0.0,-0.05,0.77,0.95,26.53,-3.9,-10.8
0.1,2.75,0.0,0.25,2.25,0.0,0.25,0.0,2.0,0.25,0.75,0.0,0.5,0.5,-0.17,0.83,1.77,127.24,9.5,16.6,1.25,0.0,1.0,0.5,1.25,1.25,0.25,0.75,0.5,1.25,0.75,0.75,1.25,-0.3,0.52,1.33,54.46,-2.9,-8.6
0.12,4.0,0.0,0.0,3.0,0.0,0.0,0.0,2.25,0.5,0.75,0.0,0.5,0.5,-0.36,0.52,1.45,142.85,12.1,24.0,1.0,0.0,1.0,0.5,1.25,1.25,0.5,0.75,0.5,1.25,0.75,0.75,1.0,-0.17,0.39,1.39,84.96,-3.0,-8.0
0.14,4.25,0.5,0.25,3.75,4.5,0.75,0.0,2.25,0.5,0.75,0.0,0.5,0.5,-0.17,0.39,0.77,196.43,7.5,37.2,1.0,0.0,1.0,0.5,1.25,1.75,0.5,1.25,0.5,1.25,0.5,0.75,1.0,-0.11,0.33,1.33,115.91,-0.8,-6.2
0.16,5.75,0.75,0.0,6.0,6.25,0.0,0.0,0.75,0.25,0.75,0.0,0.5,0.5,0.08,0.14,1.33,255.88,11.5,51.1,1.25,0.0,1.0,0.5,1.25,1.0,0.25,0.75,0.5,1.25,0.5,0.75,0.5,-0.05,0.2,1.2,130.24,-4.7,0.2
0.18,6.0,0.5,0.0,7.5,7.75,0.0,0.0,2.0,0.0,0.0,0.0,0.0,0.5,-0.11,0.14,1.2,309.3,10.5,54.9,0.5,0.5,1.0,0.5,1.25,1.25,0.5,0.75,0.5,1.25,0.5,0.75,1.0,0.08,0.02,1.27,141.43,-1.8,-5.9
0.2,6.0,1.25,0.0,8.25,8.25,0.0,0.0,0.75,1.75,0.75,0.25,0.5,0.25,-0.3,0.2,1.27,384.23,11.2,48.9,1.25,0.25,1.0,0.25,1.25,1.25,0.5,0.5,0.5,1.25,0.5,0.75,0.75,0.14,-0.05,1.27,143.28,-4.4,0.5
0.22,6.0,1.25,1.25,7.5,8.25,4.25,0.0,2.25,0.0,0.75,1.5,0.75,0.5,-0.17,0.14,1.14,478.64,6.7,41.4,1.0,0.0,1.0,0.5,1.25,1.25,0.5,0.75,0.5,1.25,0.5,0.75,1.0,0.14,-0.05,1.02,148.72,-2.8,-6.4
0.24,6.25,1.25,2.0,7.25,8.5,4.5,1.25,4.0,1.25,1.0,1.75,1.5,1.0,-0.17,0.14,1.02,580.64,6.4,30.2,1.25,0.25,1.0,0.5,1.25,1.0,0.5,0.75,0.5,1.25,0.5,0.75,0.5,0.14,-0.11,0.95,152.61,-5.3,3.2
0.26,6.0,1.5,2.0,7.0,8.5,4.5,1.75,5.0,3.0,2.5,3.25,2.5,1.25,-0.17,0.08,1.02,708.22,5.5,16.3,0.75,0.0,1.0,0.5,1.25,1.25,0.5,0.75,0.5,1.25,0.75,0.75,0.25,0.2,-0.17,0.95,152.19,-3.6,-2.3
0.28,6.0,1.5,2.0,6.5,8.0,4.5,2.0,5.25,3.5,2.75,4.75,2.5,1.25,-0.11,0.02,1.02,812.11,5.5,11.5,1.0,0.0,1.0,0.5,1.25,1.25,0.5,0.5,0.5,1.25,0.25,0.75,0.75,0.27,-0.23,0.89,145.48,-3.6,-0.9
0.3,5.5,1.25,1.75,4.75,7.75,4.5,1.75,5.75,3.5,3.0,5.0,3.25,1.5,-0.11,0.02,0.95,862.73,4.2,4.1,1.25,0.0,1.0,0.5,1.25,1.0,0.25,0.75,0.5,1.25,0.5,0.75,0.5,0.27,-0.17,0.77,144.57,-4.7,0.2
0.32,5.5,1.25,0.25,4.75,7.75,4.5,1.5,5.5,3.5,2.25,5.0,3.0,1.75,-0.17,0.08,0.95,854.46,3.3,3.6,1.0,0.0,1.0,0.5,1.25,1.0,0.5,0.5,0.5,1.0,0.25,0.5,0.25,0.33,-0.3,0.7,136.53,-5.9,10.5
0.34,4.5,0.75,0.25,5.25,7.5,4.0,1.5,5.25,3.25,2.5,4.75,2.75,1.5,-0.17,0.08,0.95,805.06,3.0,2.3,1.0,0.25,1.0,0.5,1.25,1.25,0.25,0.25,0.5,1.25,0.75,0.75,0.5,0.33,-0.36,0.7,133.82,-4.8,1.5
0.36,4.0,0.5,1.0,3.75,7.25,3.25,1.25,5.0,2.75,2.5,4.25,2.25,1.25,-0.17,0.08,0.95,719.78,3.1,2.3,0.75,0.0,1.0,0.5,1.25,1.0,0.5,0.75,0.5,1.25,0.5,0.75,0.0,0.33,-0.36,0.77,130.9,-4.6,1.9
0.38,4.0,0.75,1.0,3.5,7.0,3.5,1.25,4.75,2.75,2.5,4.0,2.5,1.25,-0.11,0.08,0.95,644.29,3.1,2.4,1.5,0.25,1.0,0.5,1.25,1.0,0.25,0.5,0.5,1.0,0.5,0.75,0.5,0.39,-0.36,0.83,134.56,-6.8,8.4
0.4,4.0,0.75,1.0,3.25,6.5,2.75,1.25,4.5,2.5,2.5,4.25,2.75,1.25,-0.11,0.08,0.95,580.27,3.7,0.0,1.25,0.25,1.0,0.5,1.25,1.0,0.5,0.75,0.5,0.75,0.5,0.75,0.75,0.52,-0.36,0.77,137.89,-5.9,4.2
0.42,4.0,0.5,1.0,3.25,6.25,3.0,1.25,4.5,2.5,2.5,4.75,3.5,1.25,-0.11,0.08,0.95,540.88,3.7,-3.9,1.0,0.25,1.0,0.25,1.25,1.0,0.25,0.75,0.5,1.0,0.5,0.75,0.25,0.27,-0.48,1.27,137.23,-4.9,4.2
0.44,4.0,0.5,1.5,3.25,6.25,3.0,1.25,4.5,2.5,2.75,5.0,4.0,1.75,-0.11,0.08,0.95,523.06,3.9,-6.7,1.0,0.0,0.75,0.5,0.0,1.0,0.25,0.25,0.5,1.0,0.0,0.75,0.0,0.39,-0.61,1.33,120.54,-8.0,3.1
0.46,4.0,0.5,1.5,3.25,6.25,3.0,1.25,5.0,3.0,3.5,5.5,4.25,2.5,-0.11,0.08,0.95,533.13,3.2,-11.8,1.25,0.25,0.75,0.5,1.25,1.0,0.25,0.75,0.5,0.75,0.5,0.75,0.5,0.39,-0.61,1.33,120.55,-5.1,5.6
0.48,4.0,0.5,1.75,3.25,6.0,3.0,1.25,5.0,3.0,4.0,6.0,5.0,3.25,-0.11,0.08,0.95,559.8,3.1,-16.4,1.25,0.5,0.75,1.0,1.5,2.0,0.25,0.5,0.25,0.75,0.5,0.75,0.5,0.52,-0.98,1.33,130.23,-3.5,16.5
0.5,4.0,0.5,1.5,3.25,5.75,2.75,1.0,5.0,3.25,4.25,6.5,5.5,3.75,-0.17,0.08,0.95,592.95,3.0,-20.6,1.5,0.25,1.0,2.0,1.75,3.25,0.5,0.5,0.5,1.25,0.25,0.25,0.5,-0.17,-0.23,1.45,159.52,-2.5,24.7
0.52,3.5,0.5,1.0,3.0,5.75,2.75,1.0,5.0,3.25,4.5,6.75,5.5,4.0,-0.11,0.08,0.95,619.08,2.0,-24.3,1.5,0.75,0.0,2.5,1.5,3.25,0.5,0.5,0.25,0.75,0.5,0.75,0.0,0.14,0.27,1.08,179.86,-2.4,29.0
0.54,3.0,0.5,0.25,1.75,5.75,2.75,0.75,5.25,3.25,5.0,7.0,5.75,5.0,-0.17,0.08,0.95,637.7,0.0,-32.7,2.0,0.5,1.0,3.25,4.75,3.5,0.75,0.75,0.5,1.25,0.5,0.75,1.0,-0.3,-0.05,1.7,230.86,-2.8,25.8
0.56,2.5,0.75,0.25,1.25,5.75,3.25,0.75,5.25,3.25,5.5,7.0,5.75,5.0,-0.17,0.08,0.95,651.19,-0.8,-34.1,2.5,0.75,2.0,2.5,5.25,4.25,1.25,2.25,1.25,2.5,1.75,1.5,1.25,0.14,0.14,1.02,294.32,-2.5,10.5
0.58,2.5,0.5,0.25,1.75,5.5,2.75,0.75,5.25,2.75,5.25,7.0,6.0,5.0,-0.17,0.08,0.95,655.98,-0.4,-35.2,2.25,0.75,1.75,2.5,5.25,4.5,1.25,2.5,1.25,3.0,2.75,2.25,2.25,0.02,0.08,0.95,371.94,-1.3,-1.3
0.6,2.5,0.5,1.0,1.25,5.5,2.75,0.75,5.25,3.0,5.5,7.0,6.0,5.25,-0.17,0.08,0.95,664.47,-0.1,-35.3,1.5,0.75,1.0,2.0,5.25,5.25,1.25,3.75,1.25,4.25,4.0,3.0,2.75,0.08,0.02,0.95,453.79,1.8,-14.9
0.62,2.5,0.75,1.0,1.25,5.25,2.75,0.75,5.5,2.75,5.5,7.0,6.25,5.5,-0.17,0.08,0.95,669.95,-0.1,-35.9,2.0,0.75,1.0,1.75,5.25,6.0,1.0,4.75,1.25,5.25,4.75,3.5,3.25,0.08,0.08,0.95,537.06,2.4,-18.9
0.64,2.5,0.5,1.25,1.5,5.25,3.0,0.5,5.25,2.75,5.25,7.0,6.25,5.25,-0.17,0.08,0.95,671.17,0.0,-34.7,1.75,0.75,1.0,1.75,5.25,6.0,1.0,5.0,1.75,6.25,4.75,4.75,4.5,0.14,0.08,0.95,614.07,2.9,-26.3
0.66,1.75,0.5,1.0,1.25,5.0,3.0,0.5,5.25,2.75,5.5,7.25,6.25,5.5,-0.17,0.08,0.95,665.58,-0.8,-39.2,2.0,0.75,1.0,1.75,5.25,6.0,1.25,5.75,1.75,6.75,6.0,5.25,4.75,0.14,0.08,0.95,690.1,2.5,-28.8
0.68,2.25,0.5,1.0,1.25,5.0,2.5,0.5,5.5,2.5,5.25,7.25,6.5,6.0,-0.17,0.08,0.95,661.83,-0.4,-39.6,2.0,1.0,1.0,1.75,5.25,6.0,1.25,6.0,1.75,6.75,6.25,5.5,5.75,0.08,0.08,0.95,758.77,2.6,-30.5
0.7,2.5,0.5,1.0,1.25,5.0,2.75,0.5,5.5,2.5,5.75,7.25,6.5,6.0,-0.17,0.08,0.95,663.87,-0.5,-38.9,2.0,0.75,1.0,1.75,5.25,6.0,1.25,6.0,1.75,6.75,6.0,5.5,6.0,0.08,0.08,0.95,797.5,2.8,-31.4
0.72,2.5,0.5,1.0,1.25,5.0,2.75,0.5,5.75,2.5,6.0,7.25,6.5,6.0,-0.17,0.08,0.95,671.65,-0.6,-39.1,2.0,0.75,1.0,1.75,5.25,6.0,1.25,6.0,1.75,6.75,6.0,5.5,5.75,0.08,0.08,0.95,810.39,2.8,-31.0
0.74,2.25,0.5,1.0,1.25,5.0,2.5,0.5,5.75,2.5,6.0,7.5,6.75,6.5,-0.17,0.08,0.95,686.18,-0.7,-41.4,1.75,0.75,1.75,1.5,5.25,5.75,1.25,6.0,1.75,6.75,6.5,5.5,6.0,0.08,0.08,0.95,810.15,2.3,-31.8
0.76,1.75,0.5,1.25,1.5,5.0,2.75,0.5,5.75,2.0,6.5,7.5,6.75,6.5,-0.17,0.08,0.95,700.05,-1.2,-41.7,2.25,0.75,1.5,1.5,5.25,5.5,1.25,5.75,1.75,6.75,6.5,5.5,5.75,0.08,0.08,0.95,796.15,1.9,-30.9
0.78,1.5,0.5,1.0,1.5,5.0,1.75,0.5,5.75,2.25,6.5,7.5,6.75,6.5,-0.17,0.08,0.95,703.37,-1.1,-44.4,2.0,0.75,2.25,1.75,5.25,5.5,1.25,5.75,1.75,6.75,6.5,5.75,6.0,0.08,0.08,0.95,781.38,1.4,-30.4
0.8,1.5,0.0,0.25,1.25,5.0,2.0,0.5,5.75,2.0,6.5,7.5,6.75,6.5,-0.17,0.08,0.95,695.55,-2.2,-48.1,2.25,0.75,2.5,1.5,5.25,5.5,1.25,5.75,1.75,7.0,6.5,6.0,6.0,0.08,0.08,0.95,774.38,1.1,-30.4
0.82,1.0,0.25,0.0,1.5,5.0,2.25,0.5,5.75,1.5,6.0,7.25,6.75,6.5,-0.17,0.08,0.95,678.36,-2.8,-48.0,2.25,0.75,2.5,1.5,5.0,5.25,1.25,5.75,1.75,7.25,6.5,6.25,6.0,0.08,0.08,0.95,773.86,1.0,-31.8
0.84,1.0,0.5,0.0,1.25,4.5,1.75,0.5,5.5,2.0,6.0,7.25,6.5,6.5,-0.17,0.08,0.95,656.15,-2.4,-49.6,2.0,0.5,2.25,1.25,4.75,5.25,1.25,6.0,1.75,7.25,6.75,6.25,6.25,0.08,0.08,0.95,768.24,1.6,-35.1
0.86,1.0,0.5,0.5,1.25,3.75,2.0,0.5,5.25,1.5,5.0,7.25,6.25,6.5,-0.17,0.08,0.95,625.58,-1.8,-49.1,2.0,0.25,2.25,1.0,4.25,5.5,1.25,6.0,1.75,7.5,7.25,6.25,6.5,0.08,0.08,0.95,764.08,1.9,-37.9
0.88,0.75,0.5,0.0,1.25,3.5,1.75,0.5,5.0,1.25,5.25,6.75,6.25,6.5,-0.17,0.08,0.95,592.7,-2.7,-52.6,2.25,0.5,1.75,1.0,4.25,5.25,1.25,6.0,1.75,7.75,7.75,6.75,7.0,0.08,0.08,0.95,771.38,1.9,-39.8
0.9,1.0,0.5,0.0,1.25,3.5,1.75,0.25,5.0,0.75,5.0,6.5,6.25,6.25,-0.17,0.08,0.95,558.47,-2.7,-51.4,2.25,0.75,1.5,0.5,3.25,5.25,1.25,6.0,1.75,8.0,7.75,7.0,7.5,0.08,0.08,0.95,778.51,2.3,-43.8
0.92,0.75,0.25,0.0,1.25,3.5,1.5,0.0,4.5,1.25,4.25,6.0,5.75,6.0,-0.17,0.08,0.95,516.95,-2.6,-52.3,2.0,0.5,1.25,0.5,3.5,5.25,0.75,6.25,1.75,8.25,7.75,7.25,7.75,0.08,0.08,0.95,791.52,3.1,-46.2
0.94,1.0,0.25,0.25,1.25,3.25,0.75,0.0,2.5,0.75,3.5,5.5,5.25,6.0,-0.11,0.14,1.2,458.62,-0.9,-52.4,2.0,0.75,1.0,0.5,3.0,5.25,1.0,6.25,1.75,8.25,7.75,7.5,8.0,0.08,0.08,0.95,802.39,3.1,-47.6
0.96,1.0,0.25,0.25,1.0,3.0,0.75,0.0,3.25,0.5,2.5,4.0,4.5,5.0,-0.23,0.2,1.58,390.28,-1.5,-48.4,2.0,0.75,1.0,0.5,3.0,5.25,0.75,6.5,1.75,8.25,7.75,7.75,8.0,0.08,0.08,0.95,812.21,3.2,-48.0
0.98,0.75,0.25,0.25,1.25,2.25,0.75,0.0,3.0,0.5,1.5,3.25,3.5,3.75,-0.11,0.2,1.52,320.24,-0.9,-44.2,2.0,0.5,1.0,0.5,2.5,5.25,0.75,6.25,1.75,8.5,7.75,7.75,8.0,0.08,0.08,0.95,812.73,3.2,-50.1
1.0,1.0,0.25,0.25,1.25,2.25,1.0,0.0,2.25,0.5,1.0,2.5,2.5,2.5,-0.11,0.08,1.27,258.69,0.2,-30.8,2.0,0.5,1.0,0.5,1.75,5.25,0.75,6.75,1.75,8.5,8.0,7.75,8.25,0.08,0.08,0.95,815.4,3.4,-52.1
1.02,0.75,0.25,0.25,1.25,1.25,1.0,0.0,2.25,0.5,0.75,2.5,2.25,1.5,-0.11,0.14,1.08,201.95,1.0,-31.8,1.75,0.75,1.0,0.5,2.25,5.25,0.75,6.75,1.75,8.75,8.25,7.75,8.25,0.08,0.08,0.95,820.86,3.4,-51.1
1.04,1.0,0.25,0.25,1.25,0.75,1.0,0.0,2.25,0.5,0.75,2.25,1.5,1.25,-0.05,0.45,0.89,154.03,1.4,-26.5,1.5,0.25,1.0,0.5,1.75,5.25,0.75,6.75,1.75,8.75,8.5,7.75,8.25,0.08,0.08,0.95,822.41,3.7,-54.5
1.06,1.0,0.25,0.25,1.25,0.75,0.0,0.0,2.25,0.25,0.75,2.0,1.5,1.25,0.08,1.02,0.45,117.92,3.0,-30.1,1.0,0.5,1.0,0.5,2.25,5.0,0.75,6.75,1.75,8.75,8.25,8.25,8.5,0.08,0.08,0.95,828.21,3.9,-55.0
1.08,0.75,0.5,0.25,1.25,2.5,0.0,0.0,2.25,0.5,1.0,1.75,1.5,1.25,0.14,1.2,0.64,110.27,1.4,-17.9,1.25,0.25,1.0,0.5,1.75,5.0,0.5,6.75,1.75,9.0,8.25,8.5,8.5,0.08,0.08,0.95,830.98,3.9,-56.8
1.1,0.75,0.25,0.25,1.25,2.5,0.0,0.25,2.25,0.5,0.75,1.75,1.25,1.25,0.27,1.08,0.77,112.34,1.7,-16.9,2.0,0.25,1.0,0.5,1.75,5.0,0.75,6.75,1.75,9.25,8.25,8.5,8.75,0.08,0.08,0.95,840.12,3.4,-55.0
1.12,1.0,0.5,0.25,1.25,2.5,0.0,0.0,2.25,0.5,0.75,1.75,1.5,1.25,0.08,0.83,1.08,125.39,2.3,-14.9,1.25,0.5,1.0,0.5,1.75,5.0,0.75,6.75,1.75,9.25,8.25,8.5,8.75,0.08,0.08,0.95,843.96,3.8,-56.2
1.14,0.75,0.25,0.5,1.25,0.75,0.5,0.25,2.25,0.5,0.75,1.75,1.25,1.25,-0.3,0.58,0.83,128.42,2.3,-25.2,1.25,0.25,1.0,0.5,1.75,4.5,0.75,6.75,1.75,9.25,8.5,8.5,8.75,0.08,0.08,0.95,847.39,3.7,-57.9
1.16,1.0,0.25,0.25,1.25,0.75,0.25,0.25,2.25,0.5,1.0,1.75,1.25,1.25,-0.36,0.58,0.83,134.52,2.3,-26.8,1.5,0.5,1.0,0.5,1.75,4.5,0.75,6.75,1.5,9.25,8.5,8.75,8.75,0.08,0.08,0.95,848.64,3.4,-56.8
1.18,0.75,0.5,0.25,1.0,2.25,0.5,0.25,2.25,0.5,0.75,1.5,1.25,1.25,-0.23,0.45,1.02,146.2,0.6,-14.8,1.0,0.25,1.0,0.5,1.75,4.5,0.5,6.75,1.75,9.25,8.75,8.75,9.0,0.08,0.08,0.95,851.12,3.8,-59.3
1.2,1.0,0.5,0.0,0.25,2.0,0.75,0.25,2.25,0.75,1.0,1.75,1.25,0.75,-0.17,0.27,1.2,156.92,-0.1,-18.4,1.0,0.25,1.0,0.5,1.5,4.5,0.75,6.75,1.5,9.25,8.75,8.75,9.0,0.08,0.08,0.95,850.57,3.8,-59.8
1.22,1.0,0.5,0.25,0.5,2.5,0.75,0.75,2.25,0.5,0.75,1.75,1.0,0.5,-0.23,0.2,1.14,169.92,1.5,-6.1,1.25,0.5,1.0,0.5,1.5,4.5,0.5,6.75,1.5,9.25,8.75,8.75,9.0,0.08,0.08,0.95,851.5,3.7,-58.6
1.24,1.0,0.5,0.25,0.0,1.0,0.5,0.25,2.25,1.0,1.0,1.75,0.75,0.75,-0.3,0.14,1.08,168.15,1.0,-23.4,0.75,0.25,1.0,0.5,1.75,4.5,0.5,6.75,1.5,9.25,8.75,8.75,9.0,0.08,0.08,0.95,848.95,4.1,-60.1
1.26,1.0,0.5,0.25,0.0,0.75,0.5,0.5,2.25,0.5,0.5,1.75,1.5,0.25,-0.17,0.08,1.08,159.84,3.1,-23.7,1.25,0.5,1.0,0.5,1.75,4.25,0.5,6.75,1.5,9.25,8.75,8.75,9.0,0.08,0.08,0.95,848.23,3.6,-58.4
1.28,1.0,0.5,1.25,1.75,0.0,2.25,2.25,5.0,1.25,0.75,2.75,1.0,0.5,-0.17,0.02,1.08,189.24,2.9,-12.4,1.25,0.5,1.0,0.5,1.5,4.25,0.5,6.75,1.5,9.25,8.75,8.75,9.0,0.08,0.08,0.95,846.55,3.6,-59.0
1.3,1.0,0.25,0.25,0.25,2.25,0.5,0.5,2.25,0.5,0.75,1.75,1.0,0.25,-0.23,-0.05,1.02,186.8,1.6,-10.3,1.0,0.25,1.0,0.5,1.5,4.0,0.25,6.75,1.25,9.25,8.5,8.75,9.0,0.08,0.08,0.95,837.2,4.0,-61.1
1.32,0.75,0.25,0.25,0.0,2.25,0.5,0.25,2.25,0.5,0.75,1.5,1.0,0.75,-0.17,-0.05,1.02,184.01,-0.6,-17.8,1.0,0.25,1.0,0.5,1.5,3.75,0.5,6.5,1.25,9.0,8.5,8.5,8.75,0.08,0.08,0.95,820.07,3.7,-60.9
1.34,0.75,0.25,0.0,0.25,1.0,0.5,0.0,2.25,0.25,0.0,1.5,0.75,0.5,-0.17,-0.11,1.02,157.32,-0.2,-19.5,1.0,0.25,1.0,0.5,1.5,3.25,0.5,5.75,1.25,8.25,8.5,8.25,8.25,0.08,0.08,0.95,785.22,3.1,-61.2
1.36,1.5,0.5,0.0,2.0,0.0,2.25,0.25,2.25,0.5,0.75,1.5,1.0,0.5,-0.23,-0.11,1.08,159.86,1.6,-4.1,1.0,0.25,1.0,0.5,1.25,3.25,0.5,5.5,1.25,8.0,7.75,7.75,8.0,0.08,0.08,0.95,741.14,3.2,-60.9
1.38,0.75,0.25,0.0,0.0,0.0,0.5,0.0,2.0,0.5,0.75,1.5,1.0,0.25,-0.23,-0.05,0.95,136.4,-0.1,-39.3,1.0,0.25,1.0,0.5,1.25,2.5,0.5,5.0,1.25,6.75,7.25,7.0,7.75,0.08,0.08,0.95,678.39,2.7,-61.0
1.4,0.75,0.25,0.0,0.0,0.0,0.5,1.25,2.5,0.25,1.0,1.75,1.0,0.25,-0.23,-0.05,0.95,131.68,0.6,-36.7,1.25,0.25,1.0,0.5,1.25,0.75,0.25,3.75,0.75,5.5,6.5,6.25,6.25,0.08,0.08,0.95,582.19,0.8,-61.9
1.42,0.75,0.25,0.0,0.0,0.0,0.5,0.0,2.25,0.5,1.0,1.5,0.75,0.5,-0.23,-0.05,1.02,118.58,-1.9,-40.5,1.25,0.25,1.0,0.5,1.25,2.25,0.5,2.5,0.5,3.25,4.0,4.75,4.75,0.08,0.14,1.02,455.51,0.8,-49.8
1.44,0.75,0.25,0.0,0.0,0.0,0.5,0.0,2.25,0.5,0.75,1.5,1.0,0.75,-0.23,-0.05,1.02,115.29,-1.5,-43.7,1.0,0.25,1.0,0.5,1.25,2.5,0.5,2.25,0.5,2.5,2.75,3.5,3.5,0.14,0.2,1.39,342.13,1.2,-41.3
1.46,0.75,0.25,0.0,0.0,0.0,0.5,0.0,0.5,0.25,0.25,1.5,0.75,0.5,-0.23,0.02,0.95,94.81,4.4,-36.1,1.0,0.0,1.0,0.5,1.0,2.0,0.75,1.75,0.5,2.5,1.75,2.5,3.25,0.2,0.2,1.27,259.14,1.2,-39.8
1.48,0.75,0.25,0.0,0.0,0.0,0.5,0.0,1.25,0.5,1.0,1.5,0.5,0.5,-0.17,0.02,0.95,89.67,-0.1,-38.2,1.0,0.0,1.0,0.5,1.25,2.0,0.25,1.25,0.5,2.0,2.0,2.25,2.0,0.14,0.52,0.83,194.08,-0.2,-31.8
1.5,0.75,0.25,0.25,0.0,0.0,0.0,0.0,0.5,0.5,0.75,1.5,0.25,0.5,-0.11,0.08,0.89,74.81,6.6,-34.5,1.0,0.0,1.0,0.5,1.25,2.0,0.75,1.0,0.5,2.0,2.25,2.25,1.5,-0.05,0.95,0.52,149.71,-1.5,-28.9
1.52,1.0,0.25,0.0,0.0,0.0,0.0,0.0,0.75,0.5,0.5,1.5,0.5,0.25,-0.05,0.08,1.02,64.8,7.4,-31.4,1.0,0.25,1.0,0.0,1.25,2.0,0.25,0.75,0.5,1.75,2.0,1.5,1.25,-0.05,1.08,0.64,117.29,-1.0,-22.9
1.54,0.75,0.25,0.0,0.0,0.0,0.0,0.0,2.0,0.5,0.75,1.5,0.5,0.75,0.02,0.02,1.02,76.1,-0.2,-44.5,1.0,0.0,1.0,0.5,1.25,2.0,0.25,1.0,0.5,1.5,1.75,1.5,1.0,-0.11,0.89,0.83,101.19,-1.5,-18.7
1.56,0.75,0.25,0.0,0.0,0.0,0.25,0.0,0.75,0.5,0.75,1.5,0.25,0.5,0.02,0.02,0.89,76.86,2.7,-36.3,1.25,0.0,1.0,0.5,1.25,2.0,0.25,0.75,0.5,1.25,1.5,1.25,1.25,-0.17,0.77,0.77,94.23,-2.2,-14.0
1.58,0.75,0.25,0.0,0.0,0.0,0.0,0.0,1.75,0.5,0.75,1.5,0.5,0.75,0.08,-0.05,0.83,85.06,0.3,-44.7,1.5,0.5,1.0,0.5,1.25,2.0,0.25,0.75,0.5,1.25,1.75,1.0,1.5,-0.17,0.64,0.83,104.9,-2.9,-9.0
1.6,0.75,0.25,0.0,0.0,0.0,0.0,0.0,2.0,0.25,0.5,1.5,0.5,0.75,0.02,-0.11,0.83,86.51,-0.1,-43.5,1.0,0.0,1.0,0.5,1.25,1.75,0.5,0.75,0.5,1.25,1.5,0.75,1.0,-0.11,0.52,1.02,110.1,-2.4,-10.5
1.62,1.0,0.25,0.0,0.0,0.0,0.0,0.0,2.0,0.25,0.5,1.0,0.75,0.75,-0.42,-0.3,0.64,94.44,0.6,-38.5,1.0,0.0,1.0,0.5,1.25,2.0,0.25,0.5,0.5,1.25,1.25,0.75,1.0,-0.05,0.39,1.02,119.93,-1.8,-8.0
1.64,1.0,0.25,0.0,0.0,0.0,0.0,0.0,2.0,0.5,0.5,0.0,0.5,0.75,-0.92,-0.36,0.39,88.59,-1.0,-28.7,1.25,0.0,1.0,0.5,1.25,1.25,0.25,0.75,0.5,1.25,1.25,0.75,1.0,-0.11,0.39,0.89,128.41,-3.7,-9.1
1.66,1.0,0.5,0.0,1.25,0.0,0.0,0.0,2.0,0.25,1.0,0.0,0.75,0.5,-1.86,-1.17,1.64,95.63,2.0,-11.3,1.25,0.5,1.0,0.25,1.25,1.75,0.5,0.75,0.5,1.25,1.0,0.75,1.25,-0.05,0.27,1.02,141.56,-2.5,-4.6
1.68,1.25,0.0,0.0,1.75,0.0,0.0,4.5,3.75,2.75,0.0,0.0,0.0,0.0,-0.55,0.2,1.27,123.68,9.6,2.5,1.0,0.0,1.0,0.5,1.25,1.5,0.25,0.5,0.5,1.25,1.5,0.75,0.75,0.02,0.14,1.08,145.22,-3.5,-8.9
1.7,2.5,0.25,0.0,2.0,0.0,1.75,0.75,0.5,0.0,0.75,0.0,0.75,0.5,-0.67,0.2,1.2,141.35,8.0,24.6,1.0,0.0,1.0,0.5,1.25,1.0,0.25,0.75,0.5,1.25,0.0,0.75,1.25,-0.05,0.2,0.89,143.52,-2.2,-7.1
1.72,2.5,0.5,0.0,2.75,0.0,1.75,1.25,2.25,1.25,1.0,2.25,1.25,1.25,-0.23,0.14,1.02,186.47,5.6,-7.7,1.0,0.0,1.0,0.5,1.25,1.25,0.5,0.75,0.5,1.25,0.75,0.75,1.0,-0.05,0.2,0.83,142.89,-3.0,-8.0
1.74,2.75,0.5,0.0,5.25,4.0,2.25,1.75,2.75,2.25,1.75,3.0,1.5,1.25,-0.11,0.02,1.02,265.73,4.7,4.0,0.75,0.0,1.0,0.5,1.25,1.25,0.5,0.75,0.5,1.25,0.75,0.75,1.0,0.02,0.2,0.89,140.8,-2.2,-10.5
1.76,3.5,0.5,2.25,5.25,6.25,2.5,2.0,4.0,2.25,2.0,3.25,1.5,1.25,-0.05,0.02,1.02,372.43,5.9,10.7,1.0,0.0,1.0,0.5,0.5,1.25,0.25,0.5,0.5,1.25,0.75,0.75,1.0,0.02,0.2,0.83,136.59,-3.7,-13.5
1.78,4.0,0.75,3.25,6.25,6.75,2.5,2.25,4.0,2.25,1.75,3.25,1.5,1.25,-0.11,0.02,0.95,501.21,7.5,16.1,1.0,0.0,1.0,0.5,1.25,1.25,0.25,0.75,0.5,1.25,0.75,0.75,1.0,0.02,0.2,0.95,137.76,-2.6,-8.4
1.8,4.0,1.25,2.0,6.5,6.5,3.0,2.25,4.0,2.25,1.75,3.0,1.5,1.25,-0.11,0.08,0.95,601.89,6.3,16.5,1.25,0.0,1.0,0.5,1.25,1.0,0.25,0.5,0.5,1.25,0.75,0.75,0.75,-0.05,0.2,0.95,137.92,-5.0,-3.5
1.82,4.25,1.25,1.5,7.0,7.5,3.0,2.25,4.0,2.25,2.25,2.75,1.5,1.25,-0.17,0.08,0.95,666.43,5.6,17.4,0.25,0.0,1.0,0.5,1.25,1.25,0.5,0.25,0.5,1.25,0.0,1.0,0.0,0.14,-7.98,3.89,129.34,-3.0,1.0
1.84,4.5,1.25,2.0,7.0,7.5,3.0,2.75,4.25,2.5,2.5,2.75,1.5,1.25,-0.11,0.08,0.95,705.46,6.1,17.2,0.0,0.0,1.0,0.0,1.25,0.5,0.25,0.75,0.5,1.0,0.75,0.75,0.0,0.83,-3.73,-1.92,116.78,-2.9,-14.8
1.86,5.25,1.0,3.75,7.0,7.5,3.0,2.75,4.25,2.75,2.25,2.25,1.25,1.25,-0.11,0.08,0.95,740.3,8.0,21.8,1.25,0.25,1.0,0.5,1.25,1.25,0.5,0.5,0.5,1.0,0.5,0.75,1.0,-0.17,-1.17,1.58,121.88,-4.7,1.1
1.88,5.5,0.75,4.5,7.0,7.5,3.0,2.75,4.25,2.75,2.25,2.5,1.25,1.25,-0.11,0.08,0.95,767.74,8.6,21.9,1.5,0.0,1.0,0.5,1.25,0.75,0.25,0.75,0.5,1.25,0.5,0.75,1.25,0.64,1.7,1.58,129.3,-4.7,-6.5
1.9,5.5,0.5,4.25,7.0,7.25,2.75,3.0,4.25,2.75,2.5,3.25,1.75,1.75,-0.11,0.02,0.95,783.49,8.4,16.0,1.0,0.25,1.0,0.5,1.25,1.25,0.25,0.75,0.5,1.25,0.75,1.0,1.75,0.64,0.45,-0.48,145.23,-1.9,-15.0
1.92,5.5,0.5,4.25,6.75,6.75,2.5,3.0,4.25,3.0,2.5,3.0,2.25,2.5,-0.11,0.08,0.95,781.92,8.3,11.9,1.0,0.0,1.0,0.5,1.25,0.75,0.5,0.75,0.5,1.25,0.25,0.75,1.5,0.14,0.33,0.89,150.65,-3.0,-12.0
1.94,5.0,0.5,4.5,6.25,6.5,2.5,3.0,4.25,3.25,2.5,3.5,2.5,2.5,-0.11,0.08,0.95,768.8,8.2,8.7,1.0,0.0,1.0,0.5,1.25,0.75,0.25,0.75,0.5,1.25,0.25,0.75,1.5,-1.3,-1.11,1.08,152.03,-2.6,-12.5
1.96,4.5,0.5,4.5,6.0,6.5,2.25,2.75,4.25,3.25,3.0,4.0,2.75,2.75,-0.11,0.02,0.95,742.27,7.6,4.3,1.5,0.0,1.0,0.5,1.25,1.0,0.25,0.75,0.5,1.25,0.75,0.75,1.25,-0.61,0.08,0.45,152.06,-4.2,-7.2
1.98,4.25,0.5,3.75,5.25,6.5,2.25,2.75,4.5,3.25,4.0,4.5,3.0,3.5,-0.11,0.08,0.95,719.99,5.9,-3.1,1.0,0.0,1.0,0.5,1.25,1.0,0.5,0.5,0.5,1.25,0.25,0.75,1.5,0.14,0.08,0.83,150.91,-2.8,-10.3
2.0,4.25,0.5,3.5,5.0,6.0,2.25,2.75,4.5,3.25,4.25,4.75,3.5,3.75,-0.11,0.08,0.95,706.92,5.6,-6.9,1.0,0.0,1.0,0.5,1.25,0.75,0.75,0.75,0.5,1.25,0.25,1.0,1.0,0.39,-0.05,0.58,150.26,-4.3,-8.9
2.02,4.0,0.5,3.75,3.25,5.75,2.25,2.75,4.5,3.25,4.25,5.0,4.0,4.25,-0.11,0.08,0.95,693.11,5.1,-12.5,1.0,0.0,1.0,0.5,1.25,1.25,0.5,0.75,0.5,1.25,0.5,1.5,1.75,0.33,0.08,1.08,155.72,-2.1,-19.9
2.04,3.5,0.5,3.5,3.25,5.75,2.0,2.5,4.75,3.25,4.5,5.5,4.5,5.0,-0.11,0.08,0.95,686.66,4.3,-18.0,1.25,0.25,1.0,0.5,1.25,1.25,0.25,0.75,0.5,1.5,0.75,1.75,2.0,-0.05,0.14,1.14,168.34,-2.2,-21.5
2.06,2.75,0.5,3.5,3.25,5.0,2.0,2.25,4.5,3.25,5.5,5.75,4.5,5.75,-0.11,0.08,0.95,675.62,3.3,-24.0,1.25,0.0,1.0,0.5,1.25,1.25,0.25,1.0,0.5,1.5,1.5,2.25,3.0,-0.05,0.14,1.08,189.67,-1.3,-35.2
2.08,3.5,0.5,2.75,3.25,5.0,1.75,2.0,4.75,3.25,5.5,6.0,5.25,6.0,-0.11,0.08,0.95,674.23,3.2,-26.0,1.0,0.0,1.0,0.5,1.0,0.75,0.5,0.75,0.5,1.5,1.75,2.25,3.25,0.08,0.08,0.95,204.18,-2.1,-42.8
2.1,2.75,0.25,2.25,3.25,5.0,1.75,1.75,4.75,3.0,5.5,6.0,5.25,6.5,-0.11,0.08,0.95,668.06,2.0,-30.5,1.0,0.25,1.0,0.5,1.25,1.25,0.5,1.0,0.5,1.5,1.75,2.25,2.75,0.08,0.08,0.95,214.49,-1.6,-33.9
2.12,2.5,0.25,2.25,3.0,3.75,1.75,1.5,4.5,2.75,6.25,6.0,5.75,6.75,-0.11,0.08,0.95,663.88,1.6,-36.3,1.0,0.25,1.0,0.25,1.25,1.25,0.25,0.75,0.5,1.75,2.0,2.25,3.25,0.14,0.08,0.95,222.65,-0.8,-39.6
2.14,2.5,0.25,1.75,1.75,3.5,1.75,1.5,4.75,2.75,6.5,6.25,5.75,7.25,-0.11,0.08,0.95,657.54,0.4,-41.9,0.75,0.0,1.0,0.5,1.25,0.75,0.25,0.75,0.5,2.0,1.75,3.5,3.75,0.14,0.08,1.02,234.42,-0.8,-51.5
2.16,1.25,0.5,1.75,1.25,3.25,1.75,1.25,4.75,2.25,6.5,6.5,6.25,7.75,-0.11,0.08,0.95,652.31,-0.7,-48.4,1.0,0.0,1.0,0.5,1.0,1.0,0.25,0.5,0.5,2.25,1.75,4.75,4.75,0.08,0.08,1.02,254.9,-0.7,-57.6
2.18,1.0,0.25,1.75,0.0,3.25,1.5,0.75,4.75,2.25,7.0,6.75,6.25,7.75,-0.11,0.08,0.95,643.33,-1.7,-54.7,1.0,0.0,1.0,0.25,1.25,0.75,0.25,0.75,0.5,2.5,2.0,5.25,5.5,-0.05,0.08,0.95,278.76,-0.1,-61.9
2.2,1.0,0.25,0.0,1.25,2.75,1.0,0.75,4.5,1.75,7.25,6.5,6.5,8.25,-0.11,0.08,0.95,630.38,-2.9,-59.9,1.0,0.0,1.0,0.5,1.25,1.0,0.0,0.75,0.5,2.25,2.0,5.5,6.0,0.02,0.02,1.08,299.53,0.1,-61.4
2.22,1.0,0.25,0.25,1.25,3.25,1.0,0.5,4.75,1.25,7.25,6.75,6.75,8.5,-0.17,0.08,0.95,627.0,-2.9,-58.7,1.0,0.0,1.0,0.5,1.25,0.75,0.25,0.75,0.5,2.5,1.75,6.0,6.75,0.14,0.08,1.2,323.95,0.2,-64.6
2.24,1.0,0.25,0.25,1.25,3.0,1.0,0.5,4.5,1.25,7.25,6.0,6.5,8.75,-0.17,0.02,0.95,618.79,-3.2,-59.3,1.0,0.0,1.0,0.5,1.25,2.5,0.0,0.75,0.5,2.0,2.75,5.75,7.0,0.02,0.02,0.89,345.86,1.3,-58.8
2.26,1.0,0.25,0.75,1.25,3.5,1.0,0.5,4.25,1.0,7.25,5.5,6.25,8.5,-0.17,0.08,0.95,609.77,-2.8,-55.7,1.0,0.0,1.0,0.5,1.0,0.5,0.25,0.0,0.5,2.25,2.25,7.0,7.25,-0.05,-0.05,0.95,355.54,-1.0,-70.9
2.28,1.0,0.25,0.5,1.25,2.25,1.0,0.5,4.0,0.75,6.5,5.5,6.25,8.5,-0.17,0.08,1.02,583.95,-2.9,-60.4,1.0,0.0,1.0,0.5,1.25,0.5,0.25,0.5,0.5,1.75,2.5,7.0,8.0,-0.11,0.02,1.02,365.88,-0.5,-69.9
2.3,0.75,0.25,0.25,1.25,2.5,0.75,0.25,4.0,0.5,6.5,5.0,6.0,8.25,-0.17,0.02,0.89,553.23,-3.7,-61.6,0.75,0.0,1.0,0.25,1.25,0.5,0.0,0.75,0.5,1.75,2.5,7.5,8.25,0.08,-0.11,1.02,373.87,0.2,-74.2
2.32,1.0,0.25,0.0,1.25,1.25,0.75,0.25,4.0,0.5,6.5,5.0,5.75,8.25,-0.23,0.02,0.83,518.53,-3.8,-65.8,2.0,0.75,1.0,0.5,1.25,0.75,0.25,0.5,0.5,1.5,3.25,7.75,7.75,0.14,-0.11,1.08,387.88,-2.6,-59.5
2.34,0.75,0.25,0.5,1.25,0.75,0.5,0.25,3.25,0.5,6.5,4.75,5.75,8.25,-0.17,0.08,0.95,488.15,-3.1,-68.4,0.0,0.0,1.0,0.5,1.75,0.0,0.0,0.0,0.25,0.25,1.5,7.0,7.75,0.02,-0.17,0.83,365.67,-0.4,-77.1
2.36,0.75,0.25,0.5,1.0,0.75,1.0,0.0,3.5,0.5,6.5,4.75,5.75,8.25,-0.17,0.02,1.02,469.43,-3.8,-68.0,0.0,0.0,0.75,0.0,1.75,0.0,0.0,0.75,0.0,0.5,0.75,7.0,8.25,0.02,-0.23,0.95,342.42,2.1,-82.2
2.38,1.0,0.25,0.75,0.0,0.0,0.75,0.0,3.25,0.5,6.5,4.75,5.75,8.25,-0.17,0.08,1.02,451.23,-3.6,-74.2,1.0,0.25,2.5,0.5,1.75,0.5,0.25,0.75,0.5,1.25,2.0,8.0,8.75,-0.05,-0.23,0.95,348.52,-2.5,-60.7
2.4,1.0,0.25,0.25,0.0,0.0,0.5,0.0,3.25,0.5,6.5,4.75,5.75,8.25,-0.23,0.02,0.89,438.17,-4.2,-77.3,1.0,0.0,0.75,0.5,1.25,0.5,0.0,0.5,0.5,1.5,2.0,8.5,9.0,-0.23,-0.23,0.7,358.1,0.0,-75.3
2.42,1.0,0.25,0.5,0.0,0.0,1.0,0.0,3.75,0.5,6.5,4.75,6.0,8.5,-0.23,0.08,1.02,438.12,-4.3,-74.5,1.25,0.0,0.75,0.5,1.25,0.5,0.0,0.5,0.5,1.25,2.5,8.5,9.0,-0.05,-0.36,1.14,374.0,-0.6,-73.8
2.44,0.0,0.25,0.5,0.0,0.0,1.0,0.0,3.25,0.5,6.5,4.75,6.0,8.75,-0.11,0.02,1.08,438.62,-5.3,-80.5,0.0,0.0,0.0,0.0,0.0,0.0,0.0,0.0,0.0,0.25,1.5,7.0,8.25,-0.05,-0.42,0.89,342.71,2.4,-106.4
2.46,0.0,0.25,0.5,0.0,0.0,1.0,0.0,3.0,0.5,6.5,4.75,6.0,9.0,-0.17,-0.05,1.02,442.04,-5.3,-81.1,1.0,0.0,0.0,0.5,0.0,0.25,0.0,0.0,0.25,1.25,1.0,7.75,8.25,-0.11,-1.17,0.95,322.04,0.8,-89.7
2.48,0.0,0.25,0.0,0.0,0.0,0.75,0.0,3.0,0.5,6.5,4.25,6.0,9.0,-0.05,-0.05,1.08,440.74,-6.2,-84.5,1.0,0.0,0.0,0.5,1.25,0.5,0.0,0.5,0.25,1.25,2.5,7.0,9.0,-0.23,-2.17,1.52,312.14,1.5,-78.0
2.5,0.0,0.25,0.0,0.0,0.0,0.5,0.0,2.25,0.5,6.5,3.5,5.75,9.0,-0.05,-0.11,0.95,429.35,-6.3,-86.7,1.0,0.5,0.0,0.5,1.25,0.5,0.25,0.0,0.25,1.25,2.0,5.75,8.0,-0.3,-3.73,1.64,305.87,0.9,-70.7
2.52,0.0,0.25,0.0,0.0,0.0,0.5,0.0,2.25,0.5,6.5,3.75,5.75,9.0,-0.17,0.02,1.14,419.78,-6.2,-86.6,1.0,0.0,0.0,0.5,1.25,0.5,0.0,0.5,0.25,0.75,1.5,3.5,5.75,-0.42,-3.05,1.08,279.11,1.6,-64.4
2.54,0.0,0.25,0.0,0.0,0.0,0.0,0.0,2.25,0.5,6.5,3.5,5.75,9.0,-0.3,-0.11,0.83,409.53,-6.1,-88.7,1.0,0.0,0.75,0.0,1.0,0.5,0.0,0.5,0.25,0.75,0.75,2.25,2.75,-0.3,0.02,0.45,230.26,-1.8,-45.2
2.56,0.75,0.25,0.0,0.0,0.0,0.0,0.0,2.25,0.5,6.5,3.25,5.5,9.0,-0.23,-0.05,1.02,403.87,-5.3,-84.0,1.25,0.25,1.0,0.25,0.0,0.5,0.0,0.5,0.25,0.75,0.5,2.0,2.25,0.64,1.83,2.14,174.67,-5.4,-38.1
2.58,0.75,0.25,0.0,0.0,0.0,0.5,0.0,2.25,0.5,6.5,3.0,5.25,9.0,-0.3,-0.11,0.83,399.29,-5.9,-81.8,1.0,0.0,1.0,0.5,0.5,0.5,0.25,0.75,0.25,0.75,0.5,1.5,2.25,1.02,3.08,0.7,130.84,-3.8,-32.5
2.6,1.0,0.25,0.25,0.0,0.0,0.5,0.0,2.5,0.5,6.5,2.5,5.25,9.0,-0.42,-0.11,0.77,397.78,-5.5,-78.8,1.0,0.0,0.75,0.5,0.5,0.5,0.0,0.25,0.25,1.0,0.75,1.25,1.75,-0.05,2.08,-0.86,98.07,-4.1,-31.3
2.62,0.75,0.25,0.25,0.0,0.0,0.75,0.0,2.5,0.25,6.5,2.75,4.75,9.0,-0.67,0.02,0.95,394.93,-6.3,-79.1,1.25,0.0,0.75,0.5,0.25,0.5,0.0,0.5,0.5,1.0,0.75,1.0,1.5,-0.11,-0.73,0.64,79.85,-5.3,-26.4
2.64,0.75,0.25,0.0,0.25,0.0,0.75,0.0,2.75,0.25,6.5,2.75,4.5,9.0,-0.61,0.02,0.83,392.23,-6.7,-78.5,1.0,0.0,0.75,0.5,0.5,0.5,0.0,0.75,0.5,1.0,0.5,1.0,1.75,0.95,-3.8,4.27,78.05,-2.9,-28.5
2.66,0.75,0.25,0.25,0.25,0.0,0.75,0.0,3.0,0.25,6.25,2.75,4.5,9.0,-0.48,-0.3,0.7,390.76,-6.3,-76.9,1.0,0.0,1.0,0.5,2.25,0.5,0.0,0.75,0.5,1.0,0.0,1.0,1.5,1.14,-2.86,2.39,89.89,-2.6,-6.0
2.68,0.75,0.25,0.25,0.25,0.0,1.0,0.0,3.0,0.0,6.25,2.5,4.5,9.0,-0.48,-0.23,0.83,390.66,-6.7,-76.3,1.0,0.25,0.75,0.5,1.0,0.5,0.0,0.75,0.5,1.25,0.0,0.75,1.0,1.02,-1.11,0.2,95.34,-3.1,-7.7
2.7,0.75,0.25,0.5,1.0,0.0,0.75,0.0,3.25,0.0,5.75,2.5,4.5,8.75,-0.61,-0.11,1.08,390.92,-5.4,-71.6,1.25,0.0,0.75,0.25,0.5,0.5,0.0,0.5,0.25,1.25,0.5,0.75,1.25,1.52,-0.55,-0.17,92.04,-4.0,-20.5
2.72,0.75,0.25,0.25,1.0,0.0,0.5,0.0,3.25,0.0,5.5,2.0,4.5,8.5,-0.8,-0.11,0.77,385.33,-5.8,-73.3,1.0,0.0,1.0,0.5,0.0,0.5,0.5,0.75,0.25,1.0,0.5,0.75,1.0,1.64,-0.48,-0.23,88.82,-6.7,-18.5
2.74,1.0,0.25,0.25,1.25,0.0,0.75,0.0,3.0,0.0,5.25,2.25,4.5,8.25,-0.67,-0.3,0.7,380.09,-4.9,-69.6,1.0,0.25,0.75,0.5,0.5,0.5,0.25,0.5,0.5,1.0,0.5,0.75,1.5,1.02,-0.48,-0.17,98.18,-4.5,-18.6
2.76,0.75,0.25,0.0,0.5,0.0,0.75,0.0,3.25,0.0,4.25,2.5,3.75,7.25,-1.73,-0.73,0.64,357.75,-6.1,-73.4,1.0,0.0,0.75,0.5,1.25,0.5,0.0,0.5,0.25,0.75,0.5,0.75,1.0,0.64,-0.11,0.27,106.7,-4.5,-6.9
2.78,0.75,0.25,0.5,1.0,1.75,0.5,0.0,3.5,0.0,2.75,1.75,2.5,6.0,-2.36,-1.36,0.52,325.99,-4.5,-51.4,1.0,0.0,1.0,0.5,1.0,0.5,0.0,0.5,0.5,0.75,0.25,0.75,1.0,0.14,-0.05,0.83,114.16,-6.0,-5.8
2.8,1.0,0.25,0.0,1.25,2.5,0.5,0.0,2.25,0.0,2.5,1.75,1.25,5.0,-2.48,-1.55,0.7,285.57,-4.2,-39.6,1.0,0.0,0.75,0.5,0.0,0.5,0.0,0.25,0.5,1.0,0.25,0.75,1.0,-0.11,0.14,0.77,108.25,-6.4,-20.5
2.82,0.75,0.25,0.0,1.25,0.5,0.5,0.0,2.25,0.0,0.75,1.5,0.0,3.5,-2.17,-0.98,0.95,228.94,-4.0,-38.0,1.0,0.0,0.75,0.25,0.5,0.5,0.25,0.75,0.5,1.0,0.0,0.75,1.25,-0.48,0.33,-0.11,106.06,-3.3,-19.2
2.84,0.0,0.0,0.0,0.0,2.25,0.0,0.0,1.25,0.0,0.0,0.0,0.0,2.5,-1.98,-0.61,1.27,154.82,-10.0,-29.8,1.0,0.0,0.75,0.5,0.25,0.5,0.0,0.5,0.25,1.0,0.5,0.75,1.25,-0.92,0.39,-0.17,103.01,-4.4,-22.5
2.86,0.0,0.0,0.0,0.0,0.0,0.0,0.0,0.0,0.0,0.0,0.0,0.0,0.0,-1.05,0.64,3.33,58.53,0.0,0.0,1.0,0.0,0.75,0.5,0.5,0.5,0.0,0.75,0.5,0.5,0.25,0.75,1.0,-1.05,0.02,-0.17,102.28,-5.5,-11.8
2.88,0.75,0.25,0.0,0.0,0.0,0.5,0.0,1.5,0.0,0.0,0.0,0.0,1.5,-1.55,0.83,1.2,5.83,-6.5,-26.3,1.0,0.0,0.75,0.5,1.0,0.5,0.25,0.5,0.5,1.25,0.25,0.75,1.0,-0.55,-1.05,-0.17,107.3,-4.0,-11.6
2.9,0.0,0.0,0.0,0.0,0.0,0.0,0.0,0.0,0.0,0.0,0.0,0.0,0.0,-0.61,0.95,0.89,0.0,0.0,0.0,1.0,0.0,0.75,0.5,1.25,0.5,0.0,0.75,0.25,0.75,0.25,0.75,0.0,-0.8,-2.48,0.58,107.72,-6.3,9.7
2.92,0.0,0.0,0.0,0.0,0.0,0.0,0.0,0.0,0.0,0.0,0.0,0.0,0.0,-0.11,0.7,0.95,0.0,0.0,0.0,1.0,0.0,0.75,0.5,0.5,0.5,0.25,0.5,0.5,0.75,0.25,0.75,1.0,0.7,-1.23,-0.61,109.54,-6.0,-12.4
2.94,0.0,0.0,0.0,0.0,0.0,0.0,0.0,0.0,0.0,0.0,0.0,0.0,0.0,0.2,0.64,1.02,0.0,0.0,0.0,1.5,0.25,0.75,0.5,0.25,0.5,0.0,0.5,0.5,0.75,0.25,0.75,0.5,0.52,-0.98,-0.05,107.78,-9.6,2.8
2.96,0.0,0.0,0.0,0.0,0.0,0.0,0.0,0.0,0.0,0.0,0.0,0.0,0.0,0.33,0.52,1.27,0.0,0.0,0.0,1.0,0.0,0.75,0.5,0.5,0.5,0.0,0.5,0.25,0.75,0.5,0.75,1.25,0.27,-0.73,0.33,107.35,-4.8,-17.7
2.98,0.0,0.0,0.0,0.0,0.0,0.0,0.0,0.0,0.0,0.0,0.0,0.0,0.0,-0.05,-0.36,0.7,0.0,0.0,0.0,1.0,0.0,0.75,0.5,1.25,0.5,0.0,0.25,0.25,0.75,0.75,0.75,1.0,0.33,-0.67,0.27,109.96,-5.4,-8.0
3.0,0.0,0.0,0.0,0.0,0.0,0.0,0.5,0.0,0.0,0.0,0.0,0.0,0.0,-0.55,-0.86,0.2,0.0,32.4,27.3,1.0,0.0,0.75,0.5,1.0,0.5,0.25,0.5,0.25,1.0,0.25,0.75,1.0,0.2,-0.86,0.52,113.67,-4.4,-8.7
3.02,0.0,0.0,0.0,0.0,0.0,0.0,0.0,0.5,0.0,0.0,0.25,0.0,1.25,-0.23,-1.17,0.02,0.0,-11.5,-88.2,1.0,0.0,1.0,0.5,0.5,0.5,0.25,0.75,0.25,0.75,0.75,0.75,1.0,0.2,-1.3,0.7,117.27,-6.4,-13.9
3.04,0.0,0.0,0.0,0.0,0.0,0.0,0.0,0.5,0.0,0.0,0.25,0.0,1.25,0.39,-1.61,0.14,0.0,-11.5,-88.2,1.0,0.0,0.75,0.5,0.25,0.5,0.0,0.5,0.5,0.75,0.0,0.75,0.75,0.27,-1.36,0.52,111.27,-6.6,-9.8
3.06,0.0,0.0,0.0,0.0,0.0,0.0,0.0,0.75,0.0,0.0,0.0,0.0,1.25,-0.05,-1.23,0.2,18.49,-14.8,-83.7,1.0,0.0,0.75,0.5,1.25,0.5,0.0,0.5,0.25,1.0,0.25,0.75,1.0,0.02,-1.3,0.39,112.32,-3.7,-7.0
3.08,0.25,0.0,0.0,0.0,0.0,0.0,0.0,0.75,0.0,0.0,0.0,0.0,0.5,-0.48,-0.48,0.27,28.29,-7.6,-41.9,1.0,0.0,0.75,0.5,0.5,0.5,0.0,0.5,0.5,0.75,0.0,0.75,0.75,0.08,-1.17,0.45,106.58,-6.1,-7.0
3.1,0.0,0.0,0.0,0.0,0.0,0.0,0.0,0.5,0.0,0.0,0.0,0.0,0.75,-0.86,0.33,0.45,31.38,-14.9,-81.9,1.0,0.0,0.75,0.25,0.5,0.5,0.25,0.5,0.25,1.0,0.0,0.75,0.5,0.08,-0.86,0.39,102.07,-5.9,-6.3
3.12,0.0,0.0,0.0,0.0,0.0,0.0,0.0,0.25,0.0,0.0,0.0,0.0,0.75,-1.17,0.58,0.45,25.2,-14.4,-92.5,1.0,0.0,0.75,0.5,0.5,0.5,0.0,0.25,0.5,1.0,0.25,0.75,0.75,0.08,-0.55,0.39,98.97,-6.3,-10.8
3.14,0.25,0.0,0.25,0.0,0.0,0.0,0.0,0.5,0.0,0.0,0.0,0.0,0.75,-1.48,0.33,0.2,28.92,-0.5,-37.2,1.0,0.0,1.0,0.5,1.0,0.5,0.0,0.5,0.25,0.75,0.25,0.75,0.5,0.14,-0.42,0.39,102.07,-7.2,2.8
3.16,0.25,0.0,0.0,0.0,0.0,0.0,0.0,0.75,0.0,0.0,0.0,0.0,0.75,-0.86,-0.11,-0.42,29.85,-8.5,-51.8,1.25,0.0,0.75,0.5,0.5,0.5,0.0,0.5,0.25,0.75,0.5,0.75,0.5,0.2,-0.42,0.45,102.08,-8.0,-3.2
3.18,0.0,0.0,0.0,0.0,0.0,0.0,0.0,0.5,0.0,0.0,0.25,0.0,0.75,-0.17,-0.17,-0.92,30.74,-10.8,-80.9,1.0,0.0,0.75,0.5,1.0,0.5,0.0,0.25,0.5,1.0,0.25,0.75,0.75,0.33,-0.48,0.39,105.5,-5.6,-5.7
3.2,0.0,0.0,0.0,0.0,0.0,0.0,0.0,0.25,0.0,0.0,0.0,0.0,0.75,-0.11,-0.67,-0.92,27.52,-14.4,-92.5,1.0,0.0,0.75,0.5,0.5,0.5,0.25,0.25,0.25,0.75,0.5,0.75,1.25,0.39,-0.67,0.33,106.3,-6.0,-16.2
3.22,0.75,0.25,0.25,0.0,0.0,0.0,0.25,1.75,0.5,0.75,0.0,0.25,1.25,-1.3,-1.67,0.08,48.63,-1.5,-33.9,1.0,0.0,0.75,0.5,1.0,0.5,0.0,0.25,0.25,0.5,0.75,0.75,1.0,0.52,-0.8,0.33,107.96,-6.5,-8.1
3.24,0.75,0.25,0.5,0.25,0.0,0.0,0.0,2.0,0.5,0.75,1.0,0.5,1.25,-1.48,-1.3,0.08,76.98,1.2,-36.4,1.0,0.0,1.0,0.5,1.0,0.5,0.25,0.75,0.25,1.0,0.5,0.75,0.75,0.52,-0.8,0.33,113.78,-5.6,-6.2
3.26,0.75,0.25,0.0,0.25,0.0,0.0,0.0,1.75,0.5,0.75,0.75,0.5,1.25,-1.17,-0.42,0.08,98.83,-1.2,-42.4,1.0,0.0,0.75,0.5,1.0,0.5,0.0,0.75,0.25,1.0,0.75,0.75,0.5,0.39,-0.55,0.33,117.79,-4.9,-7.7
3.28,0.75,0.25,0.25,0.25,0.0,0.0,0.0,1.0,0.5,0.75,1.0,0.5,1.25,-0.92,-0.11,-0.17,111.15,2.5,-39.9,1.0,0.0,0.75,0.5,0.5,0.5,0.0,0.5,0.5,1.0,0.5,0.75,0.75,0.39,-0.42,0.33,117.75,-5.7,-13.9
3.3,0.75,0.25,0.25,0.0,0.0,0.0,0.0,1.5,0.5,0.5,1.0,0.5,1.25,-1.23,0.27,-0.11,115.61,1.2,-42.4,1.0,0.0,0.75,0.5,1.0,0.5,0.0,0.5,0.25,1.25,0.5,0.75,0.25,0.45,-0.42,0.39,115.65,-5.4,-3.1
3.32,0.75,0.25,1.0,0.0,0.0,0.0,0.0,1.5,0.5,0.75,0.0,0.5,1.25,-1.05,0.02,-0.17,114.18,3.5,-26.5,1.0,0.0,0.75,0.5,1.0,0.5,0.25,0.25,0.25,0.75,0.5,0.75,0.5,0.52,-0.42,0.39,113.27,-7.5,-0.1
3.34,0.75,0.25,0.25,0.0,0.0,0.0,0.0,1.75,0.5,0.75,0.0,0.5,1.25,-0.98,-0.3,0.08,110.1,-1.7,-38.3,1.0,0.0,0.75,0.5,1.0,0.5,0.0,0.5,0.25,1.0,0.5,0.75,1.0,0.64,-0.36,0.39,114.16,-4.2,-11.3
3.36,1.0,0.5,0.25,0.0,0.0,0.0,0.0,1.75,0.25,0.0,0.0,0.0,1.25,-0.8,-0.42,0.27,102.28,1.0,-12.1,1.0,0.0,1.0,0.5,1.0,0.5,0.5,0.5,0.25,0.75,0.0,0.75,0.25,0.77,-0.36,0.39,111.49,-8.7,10.7
3.38,0.75,0.5,0.0,0.0,0.0,0.0,0.0,2.0,0.0,0.0,0.0,0.0,1.5,-0.86,-0.48,0.02,92.34,-4.9,-26.8,1.0,0.0,1.0,0.5,1.5,0.5,0.0,0.5,0.25,0.75,0.5,0.75,1.0,0.89,-0.36,0.39,117.51,-5.3,-2.7
3.4,0.0,0.0,0.25,0.0,0.0,0.0,0.0,1.0,0.0,0.0,0.0,0.25,0.25,-0.61,-0.48,0.14,68.48,-4.6,-44.6,1.0,0.0,1.0,0.25,0.5,0.5,0.0,0.5,0.25,0.75,0.0,0.75,0.75,0.95,-0.3,0.39,111.14,-6.8,-5.7
3.42,0.0,0.0,0.0,0.0,0.0,0.0,0.0,0.5,0.0,0.0,0.0,0.0,1.0,-0.67,-0.48,0.08,47.21,-14.7,-86.6,1.0,0.0,0.75,0.25,1.0,0.5,0.0,0.75,0.25,0.75,1.25,0.75,1.0,1.08,-0.3,0.39,114.92,-4.3,-18.0
3.44,1.0,0.25,0.5,0.0,0.0,0.0,0.0,1.5,0.0,0.0,0.75,0.0,1.25,-0.67,-0.42,0.08,46.39,3.9,-20.3,1.0,0.0,1.0,0.5,1.0,0.5,0.0,1.0,0.25,0.75,0.5,0.75,1.25,1.08,-0.23,0.39,118.23,-4.0,-11.8
3.46,0.25,0.0,0.0,0.0,0.0,0.0,0.0,0.75,0.0,0.0,0.0,0.0,0.5,-0.8,-0.3,0.08,31.63,-7.6,-41.9,1.0,0.0,1.0,0.5,0.5,0.5,0.0,0.25,0.25,0.75,0.0,0.75,1.0,1.08,-0.11,0.33,114.55,-7.3,-5.9
3.48,0.25,0.0,0.0,0.0,0.0,0.0,0.0,0.0,0.0,0.0,0.5,0.0,0.5,-0.86,-0.23,0.02,23.71,5.1,-57.0,1.0,0.0,1.0,0.25,1.0,0.5,0.25,0.5,0.25,0.5,0.25,0.75,0.5,0.89,0.02,0.33,109.95,-8.1,4.0
3.5,0.25,0.0,0.0,0.0,0.0,0.0,0.0,1.0,0.0,0.75,0.0,0.25,0.5,-0.98,-0.17,0.02,23.53,-9.1,-56.9,1.0,0.25,0.75,0.5,0.5,0.5,0.0,0.5,0.25,0.75,0.5,0.75,1.25,0.89,0.08,0.27,109.27,-5.1,-13.7
3.52,0.75,0.25,0.25,0.25,0.0,0.5,0.0,1.25,0.5,0.75,1.0,0.25,1.25,-1.17,-0.3,0.02,48.29,0.0,-32.3,1.0,0.0,0.75,0.5,1.0,0.5,0.25,0.75,0.25,1.0,0.25,0.75,1.0,0.77,0.08,0.39,112.39,-3.7,-9.6
3.54,0.25,0.0,0.0,0.0,0.0,0.0,0.0,0.5,0.0,0.0,0.0,0.0,0.25,-1.3,-0.42,-0.05,40.05,-3.7,-25.0,1.0,0.0,0.75,0.5,1.25,0.5,0.0,0.5,0.25,0.75,0.0,0.75,1.0,0.7,-0.05,0.33,112.92,-4.1,-2.4
3.56,0.5,0.0,0.25,0.0,0.0,0.0,0.0,0.5,0.25,0.0,0.0,0.0,0.5,-1.3,-0.36,-0.05,39.89,6.9,-12.1,1.0,0.0,1.0,0.5,1.0,0.5,0.0,0.5,0.25,0.75,0.25,0.75,1.0,0.77,-0.11,0.39,115.48,-5.8,-4.7
3.58,0.75,0.0,0.75,0.0,0.0,0.0,0.0,0.5,0.0,0.0,0.0,0.0,0.75,-1.17,-0.23,-0.11,35.87,12.7,4.1,1.25,0.0,1.25,0.5,1.0,0.5,0.25,0.25,0.25,0.75,0.25,0.75,1.0,0.77,-0.17,0.2,117.65,-8.8,1.9
3.6,0.75,0.25,0.25,0.5,0.0,0.0,0.0,0.25,0.25,0.0,0.5,0.0,0.75,-0.98,-0.23,-0.05,41.63,11.4,-0.1,1.0,0.0,0.75,0.5,0.0,0.5,0.0,0.75,0.25,0.75,0.0,0.75,1.0,0.7,-0.3,0.33,110.15,-5.0,-16.9
3.62,1.0,0.25,0.25,1.0,0.0,0.0,0.25,1.25,0.5,0.5,0.75,0.0,1.0,-0.92,-0.23,0.02,62.88,5.8,-11.5,1.0,0.0,1.0,0.5,1.0,0.5,0.0,0.5,0.25,1.0,0.25,0.75,0.25,0.77,-0.17,0.45,108.0,-7.1,4.1
3.64,0.75,0.25,0.5,0.75,0.0,0.0,0.0,2.0,0.25,0.5,0.25,0.0,1.25,-0.86,-0.3,-0.05,85.18,1.1,-17.3,1.0,0.0,0.75,0.5,0.25,0.5,0.0,0.5,0.25,0.75,0.5,0.75,1.0,0.95,-0.05,0.45,103.92,-5.9,-17.3
3.66,0.75,0.25,0.5,1.0,0.0,0.0,0.0,1.25,0.5,0.5,0.0,0.0,1.0,-0.73,-0.3,-0.05,96.41,4.9,-5.5,1.0,0.0,0.75,0.5,1.0,0.5,0.0,0.25,0.25,0.75,0.25,0.75,1.0,1.02,-0.05,0.39,103.6,-5.4,-5.9
3.68,1.0,0.25,0.5,0.5,0.0,0.0,0.0,1.0,0.5,0.5,0.0,0.0,1.25,-0.73,-0.36,-0.05,96.58,5.1,-10.5,1.0,0.0,0.75,0.5,1.25,0.5,0.25,0.25,0.25,0.75,0.25,0.75,1.0,1.02,-0.11,0.33,106.35,-5.5,-3.1
3.7,0.75,0.25,0.5,0.5,0.0,0.0,0.0,0.0,0.5,0.0,0.25,0.25,1.25,-0.73,-0.42,-0.05,91.4,11.6,-11.7,1.0,0.0,0.75,0.25,1.0,0.5,0.25,0.5,0.25,0.75,0.5,0.75,1.0,0.89,-0.11,0.33,110.73,-4.8,-10.9
3.72,0.75,0.25,0.5,0.5,0.0,0.0,0.0,1.5,0.5,0.25,0.25,0.25,1.25,-0.73,-0.48,0.02,89.95,3.4,-21.1,1.0,0.0,0.75,0.5,1.0,0.5,0.25,0.75,0.25,0.75,0.25,0.75,1.0,0.77,-0.11,0.33,113.06,-4.4,-7.5
3.74,1.0,0.25,0.75,1.0,0.0,0.0,0.0,1.75,0.5,0.5,0.25,0.25,1.25,-0.73,-0.48,0.02,97.46,5.2,-11.5,1.0,0.0,1.75,0.25,1.0,0.5,0.25,0.75,0.25,0.75,0.5,0.75,1.0,0.7,-0.11,0.33,119.73,-8.2,-3.3
3.76,0.75,0.25,0.25,0.5,0.0,0.0,0.0,1.25,0.25,0.5,0.5,0.25,1.25,-0.8,-0.55,0.08,99.07,1.8,-27.9,1.0,0.0,1.0,0.5,0.25,0.5,0.0,0.25,0.25,0.75,0.5,0.75,1.0,0.64,-0.11,0.39,115.83,-8.0,-13.5
3.78,0.75,0.25,0.5,1.25,0.0,0.0,0.0,1.75,0.5,0.75,0.0,0.25,1.5,-0.86,-0.61,0.08,111.13,2.1,-18.3,1.0,0.0,0.75,0.5,1.0,0.5,0.0,0.25,0.25,1.0,0.25,0.75,1.0,0.64,-0.17,0.33,115.01,-4.7,-8.2
3.8,0.75,0.25,0.25,1.0,0.0,0.0,0.0,1.75,0.5,0.75,0.25,0.25,1.0,-0.92,-0.61,0.08,109.7,1.6,-19.4,1.0,0.0,1.25,0.5,1.25,0.5,0.0,0.25,0.25,0.75,0.25,0.75,1.0,0.64,-0.17,0.39,115.36,-7.2,0.5
3.82,0.75,0.25,0.25,0.75,0.0,0.0,0.0,0.75,0.25,0.5,0.5,0.25,1.25,-0.86,-0.61,0.08,102.6,4.2,-22.9,1.0,0.0,1.0,0.0,0.0,0.5,0.0,0.5,0.25,0.5,0.5,0.75,1.0,0.64,-0.23,0.39,107.42,-7.7,-21.5
3.84,0.75,0.25,0.5,0.5,0.0,0.0,0.0,0.5,0.5,0.75,0.75,0.25,1.25,-0.8,-0.55,0.2,95.03,5.7,-27.1,1.0,0.0,1.0,0.25,1.0,0.5,0.0,0.75,0.0,0.75,0.0,0.75,1.0,0.7,-0.23,0.33,106.83,-4.2,-4.6
3.86,0.75,0.25,0.25,1.0,0.0,0.0,0.0,0.5,0.5,0.5,0.75,0.25,1.25,-0.8,-0.48,0.14,90.56,6.2,-21.4,1.0,0.0,0.75,0.5,1.0,0.5,0.0,0.5,0.0,0.5,0.25,0.75,1.0,0.7,-0.17,0.33,103.6,-5.1,-3.4
3.88,0.75,0.25,0.5,0.75,0.0,0.0,0.0,0.75,0.5,0.5,0.5,0.25,1.25,-0.86,-0.48,0.2,90.08,6.0,-19.9,1.0,0.0,0.75,0.5,1.0,0.5,0.0,0.5,0.0,0.5,0.0,0.75,1.0,0.7,-0.17,0.39,103.07,-4.9,-0.8
3.9,0.75,0.25,0.25,1.0,0.0,0.0,0.0,1.5,0.5,0.5,0.25,0.25,1.25,-0.86,-0.42,0.14,92.89,2.4,-20.1,1.0,0.0,1.0,0.25,1.0,0.5,0.0,0.5,0.0,0.5,0.5,0.75,1.0,0.77,-0.17,0.39,102.6,-6.1,-5.8
3.92,1.0,0.25,0.25,1.0,0.0,0.0,0.0,0.5,0.5,0.5,0.5,0.25,1.25,-0.98,-0.36,0.08,93.71,7.2,-14.6,1.25,0.5,1.0,0.25,0.5,0.5,0.0,0.5,0.0,0.5,0.5,0.75,1.0,0.77,-0.17,0.39,105.51,-8.2,0.2
3.94,0.75,0.25,0.5,0.5,0.0,0.0,0.0,0.5,0.25,0.5,0.75,0.25,1.25,-0.92,-0.3,0.08,90.12,6.4,-24.4,1.0,0.0,1.0,0.0,0.5,0.0,0.0,0.75,0.0,0.5,0.5,0.75,1.0,0.77,-0.17,0.33,100.57,-7.8,-18.7
3.96,0.75,0.0,0.5,0.75,0.0,0.0,0.0,0.5,0.5,0.5,0.75,0.25,1.0,-0.92,-0.17,0.02,84.41,7.9,-22.9,1.0,0.25,1.0,0.5,0.5,0.5,0.0,0.5,0.0,0.75,0.5,0.75,1.0,0.77,-0.17,0.39,102.18,-6.7,-6.9
3.98,1.0,0.25,0.5,1.25,0.0,0.0,0.0,0.5,0.5,0.25,0.75,0.25,1.5,-0.92,-0.23,0.02,88.0,8.9,-12.5,1.0,0.0,1.0,0.5,0.5,0.5,0.0,0.75,0.0,0.0,0.5,0.75,1.0,0.77,-0.11,0.33,100.27,-8.1,-4.4
4.0,1.0,0.25,0.5,1.0,0.0,0.0,0.0,0.25,0.5,0.75,0.75,0.25,1.25,-0.98,-0.3,0.08,92.37,8.6,-15.3,1.0,0.0,1.0,0.5,1.0,0.5,0.0,0.5,0.0,0.5,0.5,0.25,1.0,0.77,-0.11,0.33,103.62,-6.3,4.1
4.02,0.75,0.25,0.25,0.75,0.0,0.0,0.0,0.0,0.5,0.5,0.0,0.25,1.25,-0.98,-0.36,0.08,85.84,7.4,-15.5,1.0,0.0,0.75,0.5,0.25,0.5,0.0,0.5,0.0,0.5,0.5,0.75,1.0,0.77,-0.11,0.39,99.44,-6.5,-14.1
4.04,0.75,0.25,0.25,0.75,0.0,0.0,0.0,0.0,0.5,0.5,0.25,0.25,1.0,-1.05,-0.3,0.08,79.58,8.8,-13.3,1.0,0.0,0.5,0.0,1.0,0.5,0.0,0.5,0.0,0.5,0.5,0.75,1.0,0.77,-0.17,0.33,98.19,-3.0,-13.8
4.06,1.0,0.25,0.5,1.0,0.0,0.0,0.0,0.5,0.5,0.5,0.0,0.25,1.25,-0.98,-0.3,0.08,79.24,8.3,-6.2,1.0,0.0,0.25,0.25,0.0,0.5,0.0,0.75,0.0,0.5,0.5,0.75,1.0,0.77,-0.17,0.33,91.25,-2.4,-29.4
4.08,1.0,0.25,0.5,0.75,0.0,0.0,0.0,0.0,0.5,0.5,0.0,0.25,1.0,-0.98,-0.23,0.08,75.36,11.6,-0.7,1.0,0.0,0.75,0.5,0.5,0.5,0.0,0.5,0.0,0.75,0.5,0.75,1.0,0.77,-0.17,0.33,91.81,-5.3,-13.5
4.1,1.0,0.25,0.25,1.0,0.0,0.0,0.0,0.0,0.5,0.5,0.0,0.25,1.0,-0.98,-0.17,0.02,74.4,10.5,-0.8,1.0,0.25,1.0,0.5,0.5,0.5,0.0,0.75,0.0,0.5,0.25,0.75,1.0,0.77,-0.17,0.39,95.98,-6.5,-3.2
4.12,0.75,0.0,0.5,0.5,0.0,0.0,0.0,0.0,0.5,0.5,0.25,0.25,1.25,-0.98,-0.17,0.08,70.85,8.5,-25.1,1.0,0.0,0.75,0.5,0.0,0.5,0.0,0.25,0.0,0.5,0.25,0.75,0.5,0.77,-0.11,0.33,91.2,-10.2,-3.8
4.14,0.75,0.25,0.25,0.5,0.0,0.0,0.0,0.0,0.25,0.5,0.25,0.25,1.25,-0.98,-0.23,0.08,66.71,6.7,-22.0,1.0,0.0,0.75,0.25,0.25,0.5,0.0,0.5,0.0,0.5,0.25,0.75,0.25,0.77,-0.17,0.39,85.07,-8.9,0.0
4.16,0.75,0.25,0.25,0.75,0.0,0.0,0.0,0.0,0.5,0.5,0.5,0.25,1.0,-1.05,-0.23,0.08,65.65,8.9,-16.5,1.0,0.25,1.0,0.5,1.0,0.5,0.25,0.5,0.0,0.5,0.5,0.75,1.0,0.77,-0.11,0.33,93.01,-7.1,0.3
4.18,1.0,0.25,0.25,1.0,0.0,0.0,0.0,0.0,0.5,0.5,0.5,0.25,1.25,-1.05,-0.3,0.08,70.72,9.3,-12.4,1.0,0.0,0.75,0.5,0.5,0.5,0.0,0.25,0.0,0.5,0.5,0.75,1.0,0.77,-0.11,0.33,94.96,-7.0,-10.0
4.2,0.75,0.25,0.25,0.5,0.0,0.0,0.0,0.5,0.25,0.5,0.75,0.25,1.25,-1.05,-0.23,0.08,73.95,4.9,-28.6,1.0,0.0,1.0,0.5,0.0,0.5,0.25,0.5,0.0,0.5,0.75,0.75,1.0,0.77,-0.11,0.39,98.07,-8.8,-15.6
4.22,1.0,0.25,0.25,1.0,0.0,0.0,0.0,0.0,0.5,0.5,0.0,0.25,1.25,-0.98,-0.23,0.08,76.02,9.2,-6.4,1.0,0.0,0.75,0.5,0.25,0.5,0.25,0.5,0.0,0.5,0.5,0.75,0.75,0.77,-0.11,0.39,97.45,-7.9,-9.2
4.24,0.75,0.25,0.25,1.0,0.0,0.0,0.0,0.0,0.25,0.25,0.5,0.0,1.25,-0.98,-0.23,0.08,75.19,9.3,-7.9,1.0,0.0,0.75,0.5,0.0,0.5,0.0,0.5,0.25,0.5,0.5,0.75,1.0,0.77,-0.11,0.39,96.38,-7.2,-18.2
4.26,1.0,0.25,0.5,1.0,0.0,0.0,0.0,0.0,0.5,0.5,0.0,0.0,1.25,-0.98,-0.23,0.08,76.95,10.7,2.1,1.0,0.0,0.75,0.5,0.0,0.5,0.0,0.25,0.0,0.5,0.25,0.75,1.25,0.77,-0.11,0.39,91.55,-6.9,-18.1
4.28,1.0,0.25,0.5,0.75,0.0,0.0,0.0,0.0,0.25,0.25,0.75,0.0,1.25,-0.98,-0.23,0.08,76.18,11.6,-6.1,1.0,0.0,0.75,0.0,0.25,0.5,0.0,0.5,0.0,0.5,0.25,0.75,0.75,0.77,-0.11,0.39,86.67,-6.2,-13.7
4.3,0.75,0.25,0.25,0.25,0.0,0.0,0.0,0.0,0.5,0.5,0.0,0.25,1.25,-0.98,-0.23,0.08,71.08,6.2,-25.1,1.0,0.0,1.25,0.5,0.25,0.5,0.25,0.0,0.0,0.5,0.25,0.75,1.0,0.77,-0.11,0.39,87.74,-11.4,-2.6
4.32,0.5,0.25,0.5,0.5,0.0,0.0,0.0,0.0,0.25,0.25,0.25,0.0,1.25,-0.98,-0.23,0.08,66.25,8.5,-14.5,1.0,0.0,0.75,0.5,0.5,0.5,0.25,0.25,0.0,0.75,0.0,0.75,0.75,0.83,-0.11,0.39,87.29,-7.1,-2.3
4.34,0.25,0.0,0.25,1.0,0.0,0.0,0.0,0.0,0.5,0.25,0.75,0.25,1.25,-0.92,-0.17,0.02,64.88,6.7,-35.7,1.0,0.0,0.75,0.25,1.0,0.5,0.0,0.25,0.0,0.5,0.5,0.75,0.75,0.83,-0.05,0.39,91.76,-6.5,-3.0
4.36,0.75,0.25,0.5,0.5,0.0,0.0,0.0,0.0,0.5,0.25,0.25,0.25,1.0,-0.92,-0.23,0.08,63.94,11.5,-9.5,1.0,0.0,1.0,0.5,0.25,0.5,0.25,0.5,0.0,0.5,0.5,0.75,1.0,0.83,-0.05,0.39,96.32,-8.2,-10.4
4.38,0.75,0.25,0.25,0.5,0.0,0.0,0.0,0.0,0.25,0.5,0.25,0.25,1.25,-0.98,-0.23,0.08,63.58,6.7,-22.0,1.0,0.0,1.0,0.5,0.0,0.5,0.0,0.25,0.0,0.5,0.0,0.75,1.0,0.83,-0.11,0.39,92.96,-9.2,-7.6
4.4,1.0,0.25,0.5,0.5,0.0,0.0,0.0,0.0,0.25,0.5,0.75,0.25,1.25,-0.98,-0.17,0.08,68.09,9.9,-17.5,1.0,0.0,1.0,0.5,0.5,0.5,0.0,0.5,0.0,0.5,0.25,0.75,0.5,0.83,-0.05,0.39,91.38,-8.9,2.9
4.42,0.75,0.25,0.5,0.5,0.0,0.0,0.0,0.0,0.25,0.25,0.5,0.25,1.0,-0.98,-0.23,0.02,67.62,11.4,-11.6,1.0,0.0,0.75,0.5,1.0,0.5,0.25,0.5,0.25,0.5,0.25,0.75,0.75,0.83,-0.11,0.39,96.81,-6.5,-0.2
4.44,0.75,0.25,0.25,0.5,0.0,0.0,0.0,0.0,0.25,0.5,0.25,0.25,1.25,-0.98,-0.17,0.08,67.19,6.7,-22.0,1.0,0.0,1.0,0.5,1.0,0.5,0.25,0.25,0.0,0.5,0.75,0.75,1.0,0.83,-0.11,0.39,104.49,-7.8,-4.2
4.46,1.0,0.25,0.25,0.5,0.0,0.0,0.0,0.0,0.5,0.5,0.5,0.25,1.0,-0.98,-0.17,0.02,67.98,9.7,-14.9,1.25,0.0,1.0,0.5,0.25,0.5,0.25,0.0,0.25,0.5,0.5,0.75,0.5,0.77,-0.11,0.39,104.69,-13.3,3.2
4.48,0.75,0.25,0.25,0.5,0.0,0.0,0.0,0.0,0.25,0.25,0.5,0.25,1.25,-0.98,-0.17,0.08,67.12,8.3,-21.9,1.0,0.0,1.0,0.5,0.5,0.5,0.0,0.25,0.0,0.75,0.25,0.75,0.75,0.77,-0.11,0.39,104.12,-8.1,-3.1
4.5,1.0,0.25,0.25,1.0,0.0,0.0,0.0,0.0,0.5,0.25,0.5,0.0,1.5,-0.98,-0.17,0.08,71.49,9.4,-9.6,1.0,0.0,1.0,0.25,0.5,0.5,0.25,0.5,0.0,0.5,1.25,0.75,0.75,0.77,-0.11,0.39,104.72,-8.5,-13.4
4.52,1.0,0.25,0.25,0.5,0.0,0.0,0.0,0.0,0.5,0.5,0.25,0.25,1.75,-0.98,-0.23,0.08,75.48,6.2,-26.1,1.0,0.0,1.25,0.25,0.5,0.5,0.0,0.5,0.0,0.5,0.25,0.75,0.75,0.77,-0.11,0.39,102.34,-8.9,-1.5
4.54,0.75,0.25,0.25,1.0,0.0,0.0,0.0,0.0,0.5,0.25,0.75,0.25,1.25,-0.98,-0.23,0.08,80.25,9.5,-17.2,1.0,0.0,1.0,0.5,0.0,0.5,0.0,0.5,0.0,0.25,0.25,0.75,0.75,0.77,-0.11,0.39,96.0,-10.3,-4.1
4.56,0.75,0.25,0.25,0.5,0.0,0.0,0.0,0.0,0.25,0.25,0.5,0.25,1.5,-0.98,-0.23,0.08,77.1,7.0,-26.9,1.0,0.0,0.75,0.5,1.0,0.5,0.0,0.5,0.0,0.5,0.25,0.75,0.75,0.77,-0.11,0.33,96.82,-5.8,0.7
4.58,0.75,0.25,0.5,0.75,0.0,0.0,0.0,0.0,0.5,0.0,0.5,0.0,1.25,-0.98,-0.17,0.08,74.73,12.0,-5.7,1.0,0.0,0.75,0.0,0.0,0.5,0.25,0.5,0.0,0.5,0.5,0.75,0.75,0.77,-0.11,0.39,89.96,-7.6,-19.3
4.6,0.75,0.25,0.25,1.0,0.0,0.0,0.0,0.0,0.25,0.0,0.25,0.0,1.0,-0.98,-0.17,0.08,68.65,12.4,7.8,1.0,0.0,1.0,0.25,1.0,0.5,0.0,0.75,0.0,0.5,0.5,0.75,0.75,0.77,-0.11,0.39,95.13,-6.0,-3.2
4.62,0.75,0.25,0.5,0.5,0.0,0.0,0.0,0.0,0.5,0.0,0.25,0.25,0.75,-0.98,-0.17,0.08,63.89,15.1,1.6,1.0,0.0,1.0,0.5,0.25,0.5,0.0,0.5,0.0,0.5,0.5,0.75,1.0,0.77,-0.11,0.33,96.12,-7.8,-11.1
4.64,0.75,0.25,0.25,0.75,0.0,0.0,0.0,0.5,0.5,0.25,0.75,0.25,1.5,-0.98,-0.17,0.08,69.09,5.8,-26.6,1.0,0.0,1.0,0.5,0.5,0.5,0.0,0.25,0.0,0.5,0.25,0.75,1.0,0.77,-0.11,0.39,97.77,-8.1,-4.6
4.66,0.5,0.25,0.25,0.0,0.0,0.0,0.0,0.5,0.5,0.25,0.75,0.0,1.25,-0.98,-0.17,0.08,69.57,3.1,-39.3,1.0,0.0,1.0,0.25,1.0,0.5,0.0,0.25,0.0,0.5,0.0,0.75,0.75,0.77,-0.11,0.39,95.74,-7.5,5.4
4.68,1.0,0.25,0.25,1.0,0.0,0.0,0.0,0.0,0.25,0.0,0.5,0.0,1.0,-0.98,-0.17,0.08,70.32,13.6,8.0,1.0,0.0,1.0,0.25,0.5,0.5,0.0,0.5,0.0,0.5,0.25,0.75,0.5,0.77,-0.05,0.39,93.77,-8.6,0.4
4.7,1.0,0.25,0.5,0.75,0.0,0.0,0.0,0.0,0.25,0.0,0.75,0.25,1.25,-0.98,-0.17,0.08,71.43,12.9,-7.8,1.0,0.0,1.0,0.25,1.75,0.5,0.25,0.5,0.0,0.5,0.5,0.75,1.0,0.77,-0.11,0.39,103.57,-5.4,1.0
4.72,0.75,0.25,0.25,1.0,0.0,0.0,0.0,0.0,0.25,0.0,0.75,0.25,1.25,-0.98,-0.17,0.08,72.55,10.7,-13.1,1.0,0.0,1.0,0.5,0.25,0.5,0.25,0.0,0.0,0.5,0.5,0.75,1.0,0.77,-0.11,0.39,101.82,-10.3,-8.1
4.74,0.75,0.25,0.25,1.25,0.0,0.0,0.0,0.0,0.25,0.0,0.25,0.25,1.5,-0.98,-0.17,0.08,72.63,9.7,-8.1,1.0,0.0,0.75,0.25,1.0,0.5,0.25,0.5,0.0,0.5,0.5,0.75,1.0,0.77,-0.11,0.39,105.82,-5.3,-7.7
4.76,0.75,0.25,0.5,1.0,0.0,0.0,0.0,0.25,0.25,0.0,0.5,0.25,1.0,-0.98,-0.17,0.08,74.11,12.0,-2.1,1.0,0.0,0.75,0.5,0.5,0.5,0.5,0.5,0.0,0.5,0.5,0.75,1.0,0.77,-0.11,0.39,104.94,-7.0,-9.7
4.78,0.75,0.0,0.5,0.0,0.0,0.0,0.0,0.0,0.25,0.0,0.75,0.25,1.25,-0.98,-0.17,0.08,69.49,10.6,-35.7,1.0,0.0,0.5,0.5,0.25,0.5,0.0,0.5,0.0,0.5,0.25,0.75,1.0,0.77,-0.11,0.33,100.34,-4.9,-14.9
4.8,0.75,0.25,0.25,0.5,0.0,0.0,0.0,0.0,0.25,0.0,0.5,0.25,1.25,-0.98,-0.17,0.08,65.72,9.8,-18.6,1.0,0.0,1.0,0.5,0.5,0.5,0.0,0.5,0.0,0.75,0.75,0.75,1.0,0.77,-0.11,0.33,100.96,-6.6,-12.9
4.82,1.25,0.5,0.25,0.25,0.0,0.0,0.0,0.0,0.25,0.0,0.75,0.25,1.25,-0.98,-0.17,0.08,65.99,12.1,-7.8,1.0,0.0,0.75,0.5,1.0,0.5,0.5,0.75,0.0,0.5,0.5,0.75,1.0,0.77,-0.11,0.39,106.35,-5.4,-5.9
4.84,0.75,0.25,0.25,1.0,0.0,0.0,0.0,0.0,0.25,0.0,0.75,0.25,1.25,-0.98,-0.17,0.08,68.58,10.7,-13.1,1.0,0.0,0.25,0.5,1.0,0.5,0.5,0.0,0.0,0.25,0.25,0.75,0.75,0.77,-0.11,0.39,101.68,-7.0,3.2
4.86,0.5,0.25,0.5,1.25,0.0,0.0,0.0,0.0,0.5,0.0,0.75,0.0,1.25,-0.98,-0.17,0.08,72.43,11.4,-7.2,1.0,0.0,0.75,0.5,0.0,0.5,0.0,0.25,0.0,0.5,0.25,0.75,1.0,0.77,-0.11,0.39,95.39,-7.9,-13.8
4.88,1.0,0.25,0.25,0.5,0.0,0.0,0.0,0.0,0.25,0.0,0.75,0.25,1.25,-0.98,-0.17,0.08,71.94,11.2,-15.6,1.0,0.0,0.75,0.5,1.0,0.5,0.0,0.5,0.0,0.5,0.25,0.75,0.75,0.77,-0.11,0.39,94.78,-5.8,0.7
4.9,1.0,0.25,0.5,1.0,0.0,0.0,0.0,0.0,0.25,0.0,0.0,0.0,1.25,-0.98,-0.17,0.08,72.16,13.7,13.5,1.0,0.0,1.25,0.5,0.0,0.5,0.0,0.25,0.0,0.5,0.25,0.75,1.0,0.77,-0.11,0.33,91.89,-10.5,-7.4
4.92,1.0,0.25,0.25,0.75,0.0,0.0,0.0,0.0,0.25,0.0,0.75,0.25,1.25,-0.98,-0.17,0.02,71.13,11.5,-11.5,1.0,0.0,1.0,0.5,0.5,0.5,0.0,0.5,0.0,0.5,0.75,0.75,1.0,0.77,-0.11,0.39,96.08,-7.4,-10.7
4.94,1.0,0.25,0.25,0.75,0.0,0.0,0.0,0.0,0.5,0.0,0.75,0.0,1.25,-0.98,-0.17,0.08,71.54,11.7,-7.8,1.0,0.0,1.0,0.25,0.25,0.5,0.0,0.5,0.0,0.5,0.5,0.75,1.0,0.77,-0.11,0.39,95.44,-7.4,-14.0
4.96,1.0,0.25,0.25,0.5,0.0,0.0,0.0,0.0,0.5,0.0,1.0,0.0,1.25,-0.98,-0.17,0.08,72.43,11.3,-14.9,1.0,0.0,1.0,0.5,1.0,0.5,0.0,0.25,0.0,0.5,0.25,0.75,1.0,0.77,-0.11,0.39,101.14,-7.2,0.2
4.98,1.25,0.25,0.25,0.25,0.0,0.0,0.0,0.0,0.25,0.0,0.75,0.25,1.25,-0.98,-0.17,0.08,71.72,12.1,-14.0,1.0,0.0,0.75,0.25,0.5,0.5,0.25,0.5,0.0,0.5,0.25,0.75,0.75,0.77,-0.11,0.39,96.63,-6.8,-6.4
5.0,0.75,0.25,0.25,0.5,0.0,0.0,0.0,0.0,0.5,0.0,0.75,0.0,1.25,-0.98,-0.17,0.08,69.62,10.0,-17.7,1.25,0.0,1.5,0.25,1.0,0.5,0.0,0.0,0.0,0.5,0.25,0.75,0.75,0.77,-0.11,0.39,100.75,-11.7,11.4
5.02,0.5,0.25,0.25,1.0,0.0,0.0,0.0,0.0,0.5,0.0,0.75,0.0,1.25,-0.98,-0.17,0.08,69.07,9.6,-14.9,1.0,0.0,1.0,0.5,0.5,0.5,0.0,0.5,0.0,0.5,0.5,0.75,1.0,0.77,-0.11,0.33,101.48,-7.3,-8.4
5.04,0.75,0.25,0.5,1.0,0.0,0.0,0.0,0.0,0.25,0.0,0.75,0.0,1.25,-0.98,-0.17,0.08,69.81,12.2,-4.0,1.0,0.0,1.25,0.25,0.0,0.5,0.5,0.5,0.0,0.5,0.5,0.75,0.75,0.77,-0.11,0.39,99.94,-11.0,-8.5
5.06,1.0,0.25,0.25,0.75,0.0,0.0,0.0,0.0,0.5,0.0,0.75,0.0,1.25,-0.98,-0.17,0.08,70.98,11.7,-7.8,1.0,0.0,1.25,0.5,0.5,0.5,0.0,0.25,0.0,0.5,0.5,0.75,1.0,0.77,-0.11,0.33,101.37,-9.4,-4.6
5.08,0.75,0.25,0.25,0.25,0.0,0.0,0.0,0.0,0.5,0.0,0.25,0.0,1.25,-0.98,-0.17,0.08,65.86,9.4,-15.3,1.0,0.0,1.0,0.25,0.0,0.5,0.0,0.25,0.0,0.5,0.5,0.75,0.75,0.77,-0.11,0.33,96.42,-10.1,-11.9
5.1,0.5,0.25,0.25,0.5,0.0,0.0,0.0,0.0,0.5,0.0,0.0,0.0,1.25,-0.98,-0.17,0.08,59.35,8.1,-13.1,1.0,0.0,1.0,0.25,0.25,0.5,0.25,0.0,0.0,0.5,0.25,0.75,0.5,0.77,-0.11,0.33,89.33,-12.3,1.8
5.12,0.0,0.25,0.25,0.75,0.0,0.0,0.0,0.0,0.25,0.0,0.5,0.0,1.25,-0.98,-0.17,0.08,53.08,5.1,-30.3,1.0,0.0,0.75,0.5,1.0,0.5,0.0,0.25,0.0,0.5,0.0,0.75,0.5,0.77,-0.11,0.33,86.11,-7.5,10.3
5.14,1.0,0.25,0.5,0.5,0.0,0.0,0.0,0.0,0.25,0.0,0.75,0.0,1.25,-0.98,-0.17,0.08,55.66,12.8,-6.0,1.0,0.0,1.25,0.5,0.0,0.5,0.5,0.5,0.0,0.25,0.5,0.75,0.5,0.77,-0.11,0.39,87.11,-13.5,1.6
5.16,1.0,0.0,0.25,0.0,0.0,0.0,0.0,0.0,0.25,0.0,0.75,0.0,1.0,-0.98,-0.17,0.08,52.5,12.3,-22.0,1.0,0.0,1.25,0.5,0.5,0.5,0.0,0.25,0.0,0.5,0.0,0.75,0.75,0.77,-0.11,0.33,88.94,-10.2,5.4
5.18,0.75,0.25,0.25,0.5,0.0,0.0,0.0,0.0,0.25,0.0,0.75,0.0,1.25,-0.98,-0.17,0.08,55.73,9.9,-16.4,1.0,0.0,1.0,0.5,0.5,0.5,0.0,0.25,0.0,0.5,0.25,0.75,0.75,0.77,-0.11,0.39,91.24,-9.0,-0.1
5.2,0.25,0.25,0.25,0.5,0.0,0.0,0.0,0.0,0.25,0.0,0.75,0.0,1.25,-0.98,-0.17,0.08,53.96,6.6,-31.5,1.0,0.0,1.0,0.5,0.5,0.5,0.5,0.5,0.0,0.5,0.5,0.75,0.75,0.77,-0.11,0.33,95.75,-9.0,-3.2
5.22,1.0,0.25,0.25,0.5,0.0,0.0,0.0,0.0,0.25,0.0,0.75,0.0,1.25,-0.98,-0.17,0.08,57.72,11.3,-10.1,0.5,0.0,0.75,0.5,1.0,0.5,0.0,0.0,0.0,0.25,0.0,0.75,0.5,0.77,-0.11,0.39,90.35,-7.3,8.9
5.24,0.75,0.0,0.25,1.0,0.0,0.0,0.0,0.0,0.25,0.0,0.75,0.0,0.75,-0.98,-0.17,0.08,57.5,14.0,-1.1,1.0,0.0,0.75,0.25,0.5,0.5,0.0,0.25,0.0,0.5,0.5,0.75,1.0,0.77,-0.11,0.39,89.41,-6.5,-12.9
5.26,0.75,0.0,0.25,0.5,0.0,0.0,0.0,0.0,0.25,0.0,0.75,0.0,1.25,-0.98,-0.17,0.08,58.03,9.7,-24.3,1.0,0.0,1.0,0.25,0.0,0.5,0.0,0.75,0.0,0.25,0.75,0.75,0.75,0.77,-0.11,0.39,87.99,-8.9,-14.1
5.28,1.0,0.25,0.5,0.5,0.0,0.0,0.0,0.5,0.25,0.25,0.25,0.0,1.25,-0.98,-0.17,0.08,63.12,8.4,-6.0,1.0,0.0,0.75,0.5,0.25,0.5,0.25,0.5,0.0,0.5,0.5,0.75,0.75,0.77,-0.11,0.33,90.31,-7.9,-9.2
5.3,1.25,0.5,0.25,0.0,0.0,0.0,0.0,0.0,0.25,0.0,0.25,0.25,1.25,-0.98,-0.17,0.08,64.52,11.9,-3.9,1.0,0.0,0.75,0.5,0.5,0.5,0.0,0.5,0.0,0.5,0.25,0.75,0.5,0.77,-0.11,0.33,90.03,-7.6,0.3
5.32,1.0,0.25,0.5,0.5,0.0,0.0,0.0,0.0,0.25,0.25,0.0,0.25,1.25,-0.98,-0.17,0.08,67.7,11.3,-4.3,1.0,0.0,1.0,0.5,0.0,0.5,0.0,0.25,0.0,0.5,0.5,0.75,0.25,0.77,-0.11,0.33,88.56,-12.8,1.2
5.34,1.0,0.0,0.25,1.0,0.0,0.0,0.0,0.5,0.25,0.0,0.0,0.25,1.0,-0.98,-0.17,0.08,67.98,10.1,-0.3,1.0,0.0,1.0,0.5,0.0,0.5,0.0,0.0,0.0,0.5,0.25,0.75,0.5,0.77,-0.11,0.33,83.43,-13.0,1.2
5.36,0.75,0.0,0.5,0.0,0.0,0.0,0.0,0.5,0.25,0.5,0.5,0.25,1.25,-0.98,-0.17,0.08,69.46,4.6,-38.3,1.0,0.0,1.5,0.5,0.0,0.5,0.5,0.5,0.0,0.5,0.5,0.75,0.25,0.77,-0.11,0.39,85.1,-14.4,5.5
5.38,0.75,0.25,0.25,0.5,0.0,0.0,0.0,0.25,0.25,0.5,0.25,0.25,1.25,-0.98,-0.17,0.08,69.16,5.4,-23.0,1.0,0.0,0.5,0.25,0.25,0.5,0.0,0.25,0.0,0.5,0.0,0.75,0.25,0.77,-0.11,0.33,78.39,-8.5,2.8
5.4,0.25,0.25,0.5,1.0,0.0,0.0,0.0,0.0,0.25,0.0,0.25,0.25,1.25,-0.98,-0.17,0.08,68.71,9.6,-13.7,1.0,0.0,0.75,0.25,0.0,0.5,0.25,0.75,0.0,0.5,0.5,0.75,0.25,0.77,-0.11,0.39,78.38,-9.0,-7.6
5.42,0.75,0.0,0.25,0.0,0.0,0.0,0.0,0.0,0.25,0.75,0.0,0.0,1.25,-0.98,-0.17,0.08,62.2,2.4,-38.0,1.0,0.0,1.5,0.0,0.5,0.5,0.0,0.25,0.0,0.5,0.25,0.75,0.5,0.77,-0.05,0.33,80.1,-11.9,4.9
5.44,1.0,0.0,0.5,0.0,0.0,0.0,0.0,0.25,0.5,0.5,0.0,0.25,1.25,-0.98,-0.17,0.08,61.04,7.3,-26.5,1.0,0.0,0.75,0.0,0.25,0.5,0.0,0.0,0.0,0.5,0.0,0.75,0.5,0.77,-0.05,0.33,76.06,-9.9,-1.4
5.46,0.5,0.25,0.25,0.5,0.0,0.0,0.0,0.25,0.5,0.5,0.0,0.25,1.25,-0.98,-0.17,0.08,60.46,3.9,-27.5,1.0,0.0,1.5,0.5,0.0,0.5,0.0,0.25,0.0,0.5,0.25,0.75,0.5,0.77,-0.11,0.39,79.92,-14.0,4.8
5.48,1.0,0.25,0.25,0.5,0.0,0.0,0.0,0.0,0.25,0.25,0.0,0.25,1.25,-0.98,-0.17,0.08,61.68,9.6,-8.5,1.0,0.0,1.0,0.25,0.5,0.5,0.0,0.5,0.0,0.5,0.5,0.75,0.5,0.77,-0.11,0.39,83.23,-8.7,-2.6
5.5,1.0,0.0,0.25,0.0,0.0,0.0,0.0,0.5,0.5,0.5,0.0,0.25,1.0,-0.98,-0.17,0.08,61.0,5.1,-27.6,1.0,0.0,1.0,0.25,0.25,0.5,0.25,0.25,0.0,0.5,0.25,0.75,0.0,0.77,-0.11,0.39,83.2,-13.6,11.6
5.52,0.75,0.25,0.25,0.5,0.0,0.0,0.0,0.5,0.5,0.25,0.0,0.25,1.25,-0.98,-0.17,0.08,63.08,5.5,-19.0,1.0,0.0,0.75,0.25,0.5,0.5,0.25,0.25,0.0,0.5,0.25,0.75,0.5,0.77,-0.11,0.39,83.16,-8.9,0.0
