time,left pressure 0[N/cm²],left pressure 1[N/cm²],left pressure 2[N/cm²],left pressure 3[N/cm²],left pressure 4[N/cm²],left pressure 5[N/cm²],left pressure 6[N/cm²],left pressure 7[N/cm²],left pressure 8[N/cm²],left pressure 9[N/cm²],left pressure 10[N/cm²],left pressure 11[N/cm²],left pressure 12[N/cm²],left acceleration X[g],left acceleration Y[g],left acceleration Z[g],left total force[N],left center of pressure X[mm],left center of pressure Y[mm],right pressure 0[N/cm²],right pressure 1[N/cm²],right pressure 2[N/cm²],right pressure 3[N/cm²],right pressure 4[N/cm²],right pressure 5[N/cm²],right pressure 6[N/cm²],right pressure 7[N/cm²],right pressure 8[N/cm²],right pressure 9[N/cm²],right pressure 10[N/cm²],right pressure 11[N/cm²],right pressure 12[N/cm²],right acceleration X[g],right acceleration Y[g],right acceleration Z[g],right total force[N],right center of pressure X[mm],right center of pressure Y[mm]
0.02,0.0,0.0,0.0,0.5,0.0,0.0,0.0,0.0,0.25,1.5,0.0,1.0,1.75,-0.36,-0.48,0.77,42.31,-5.4,-78.8,4.5,1.0,0.0,5.0,1.25,0.0,0.0,0.0,0.25,0.0,0.0,0.0,0.0,0.77,1.27,2.27,367.88,-20.4,72.7
0.04,0.0,0.0,0.0,0.75,0.0,0.0,0.0,0.0,0.0,3.25,0.75,3.25,4.0,0.58,0.39,0.95,108.81,-4.7,-87.7,2.0,0.0,0.75,3.0,2.5,0.0,0.25,0.25,0.0,0.0,1.0,0.0,0.0,0.02,0.7,2.52,218.79,-14.9,48.6
0.06,0.0,0.0,0.5,0.0,0.0,0.0,0.0,0.0,0.0,0.0,0.0,0.0,0.0,-0.36,0.39,2.77,97.63,38.2,60.9,0.5,0.0,0.0,3.25,1.25,0.5,0.0,0.25,0.25,0.5,0.0,0.0,0.0,0.02,0.39,1.89,82.57,-7.4,41.1
0.08,0.0,0.0,0.0,0.0,0.0,0.0,0.0,0.0,0.0,0.0,0.0,4.75,0.0,-0.17,0.33,1.2,104.55,8.8,-109.9,0.5,0.5,0.0,1.25,0.25,0.0,0.25,0.5,0.5,0.0,1.5,0.0,0.0,0.83,0.08,2.14,0.0,-11.9,8.4
0.1,0.0,0.0,0.0,0.0,0.0,0.0,0.0,4.5,1.0,6.0,4.0,5.0,5.75,-0.05,0.08,0.95,204.26,-5.8,-82.0,0.5,0.25,0.5,0.5,1.5,0.25,0.0,0.25,0.5,1.25,1.5,0.0,0.0,0.89,-0.92,1.58,0.0,-4.8,0.1
0.12,0.0,0.0,0.0,0.75,0.0,0.0,0.0,4.5,0.5,6.0,4.75,5.0,5.5,-0.17,0.08,0.95,293.12,-4.9,-78.3,0.0,0.25,1.5,1.5,1.0,1.25,0.25,0.25,0.5,0.75,1.25,0.25,0.0,0.89,-0.98,0.2,0.0,-7.7,12.7
0.14,0.25,0.0,0.0,2.0,1.5,0.5,0.25,5.25,0.0,5.75,4.0,5.0,6.0,-0.17,0.08,0.95,394.17,-4.7,-61.8,0.0,0.25,1.0,1.0,1.25,1.25,0.5,0.25,0.5,1.0,1.25,0.25,0.0,0.64,-0.73,1.39,0.0,-4.5,5.9
0.16,1.0,0.0,0.0,1.0,0.0,0.0,0.25,5.25,1.25,6.25,4.0,5.0,6.0,-0.17,0.08,0.95,470.47,-3.8,-69.8,0.25,0.5,1.25,1.25,1.5,1.0,0.25,0.25,0.5,1.25,0.75,0.0,0.25,0.2,-0.42,0.7,0.0,-5.4,16.4
0.18,1.0,0.0,0.0,1.25,0.0,0.0,0.25,5.25,1.5,6.25,6.0,5.25,6.0,-0.17,0.08,0.95,528.86,-2.6,-69.2,0.5,0.25,1.5,0.75,1.5,1.5,0.25,0.25,0.5,1.0,0.75,0.0,0.0,0.2,-0.36,0.45,20.28,-5.9,22.3
0.2,0.25,0.0,0.0,2.0,0.0,0.25,0.5,5.5,1.5,6.25,6.5,5.25,6.0,-0.11,0.02,0.95,552.75,-2.8,-68.5,0.5,0.25,1.0,0.75,1.5,1.25,0.25,0.25,0.5,1.0,0.5,0.0,0.0,0.33,-0.3,0.64,52.82,-4.4,22.4
0.22,0.0,0.0,0.0,2.5,0.0,0.75,0.5,5.5,2.0,6.25,6.5,5.0,6.0,-0.11,0.02,0.95,579.82,-2.9,-65.6,0.25,0.25,1.25,0.75,1.75,1.25,0.25,0.25,0.5,1.0,0.5,0.0,0.0,0.33,-0.3,0.83,83.15,-4.4,22.6
0.24,1.0,0.0,0.0,1.0,0.0,0.25,0.5,5.75,2.5,6.0,6.5,5.0,6.0,-0.17,0.08,0.95,591.68,-2.3,-67.5,0.5,0.25,1.5,0.75,1.5,1.0,0.25,0.25,0.5,1.25,0.75,0.0,0.0,0.27,-0.11,0.89,108.1,-6.8,18.8
0.26,1.0,0.0,0.25,2.5,2.0,1.25,0.75,5.75,2.5,6.0,6.5,5.0,5.5,-0.17,0.02,0.95,607.07,-1.5,-51.0,0.5,0.25,1.5,0.75,1.5,1.25,0.25,0.25,0.5,0.0,0.5,0.0,0.0,0.27,0.14,0.95,122.63,-9.6,38.5
0.28,0.75,0.0,1.0,2.5,3.0,1.5,0.75,5.75,2.75,5.0,6.5,4.5,5.25,-0.17,0.02,0.95,611.93,-0.8,-44.3,0.5,0.5,0.5,0.75,1.25,1.0,0.25,0.5,0.5,1.0,0.75,0.0,0.0,0.27,0.2,1.02,123.49,-3.1,15.6
0.3,0.0,0.0,0.0,3.25,3.25,1.5,0.75,5.75,3.0,5.0,6.0,4.0,4.5,-0.11,0.02,0.95,605.36,-2.1,-44.3,0.0,0.0,1.25,0.5,1.5,0.0,0.0,0.25,0.0,0.0,0.75,0.0,0.0,0.2,0.2,1.27,107.95,-12.4,30.3
0.32,0.0,0.0,1.25,3.75,3.5,1.5,0.75,5.5,3.25,4.75,5.5,3.25,4.0,-0.11,0.02,0.95,566.89,-0.4,-35.6,0.5,0.25,0.5,0.75,0.0,1.0,0.25,0.25,0.0,0.0,0.5,0.0,0.0,0.14,0.33,1.45,87.49,-9.4,35.9
0.34,0.0,0.0,1.25,4.0,4.5,2.0,1.0,5.5,3.25,4.5,5.5,3.0,3.0,-0.11,0.08,0.95,525.68,-0.1,-28.3,0.0,0.0,0.5,0.5,0.0,0.0,0.0,0.0,0.25,0.0,0.0,0.0,0.0,0.14,0.52,1.64,52.04,-24.6,40.6
0.36,0.5,0.75,1.25,4.5,4.75,2.0,1.0,5.25,3.25,3.5,5.0,2.5,2.75,-0.11,0.08,0.95,509.76,1.1,-18.6,0.5,0.25,0.75,0.75,0.0,1.25,0.0,0.0,0.5,0.75,0.0,0.0,0.0,0.27,0.58,1.83,46.18,-6.3,27.2
0.38,1.0,1.0,2.0,4.75,4.75,2.5,1.25,5.25,3.25,3.0,4.0,2.0,1.75,-0.11,0.08,0.95,498.75,2.6,-7.2,0.5,0.25,1.25,0.75,1.5,1.25,0.25,0.25,0.5,1.0,0.75,0.0,0.0,0.58,0.64,2.02,66.5,-5.7,20.7
0.4,1.0,1.0,2.75,6.5,5.75,2.25,1.25,5.25,2.75,1.75,4.0,2.0,1.5,-0.11,0.08,0.95,506.51,4.6,2.2,0.5,0.25,1.25,0.75,1.5,1.0,0.25,0.25,0.5,1.25,0.5,0.0,0.0,0.45,1.02,2.2,91.81,-5.7,20.2
0.42,1.75,1.0,2.75,7.5,6.25,2.25,1.5,5.0,3.0,1.75,3.25,1.0,1.5,-0.11,0.08,0.95,520.21,5.4,10.6,0.5,0.25,1.25,0.75,1.25,1.0,0.0,0.25,0.5,1.25,0.5,0.0,0.25,0.14,1.7,2.27,111.12,-5.0,14.7
0.44,2.0,1.0,3.0,8.0,6.5,2.25,1.5,4.5,2.75,1.25,3.25,1.0,1.0,-0.11,0.08,0.95,534.27,6.7,16.1,0.5,0.25,1.25,0.75,1.75,1.0,0.25,0.25,0.0,0.0,0.75,0.0,0.5,-0.05,2.27,1.95,119.61,-7.3,29.5
0.46,2.75,1.0,3.0,9.0,7.0,2.25,1.75,4.5,2.75,1.75,2.75,0.75,0.5,-0.11,0.08,0.95,556.59,7.3,21.6,0.0,0.25,0.5,0.5,1.25,0.0,0.0,0.0,0.0,0.0,0.5,0.0,0.0,-0.36,2.89,0.83,99.68,-10.0,39.7
0.48,2.75,1.0,3.25,9.75,7.5,2.75,1.75,4.5,2.5,1.25,2.5,0.5,0.5,-0.11,0.08,0.95,580.49,7.4,26.0,0.75,0.25,0.0,0.75,0.0,1.0,0.25,0.0,0.5,1.25,0.75,0.0,0.25,-0.92,3.52,0.27,89.34,-2.5,-3.8
0.5,2.75,1.0,4.75,10.5,7.75,3.0,2.25,4.25,2.0,1.5,1.75,0.5,0.5,-0.11,0.08,0.95,612.79,8.5,30.4,0.5,0.25,0.75,0.75,1.5,1.0,0.25,0.25,0.5,1.0,0.75,0.0,0.0,-1.8,3.89,0.2,94.64,-4.3,17.6
0.52,2.75,1.75,5.25,11.5,8.25,3.25,2.25,3.5,1.5,1.25,1.5,0.5,0.5,-0.11,0.08,0.95,653.03,9.3,36.0,0.5,0.0,0.0,0.75,1.75,0.75,0.0,0.25,0.5,1.25,0.5,0.25,0.5,-1.61,2.52,0.83,104.37,1.4,-2.7
0.54,3.5,2.25,6.0,12.5,8.5,3.25,2.75,3.25,0.75,1.0,1.25,0.5,0.5,-0.11,0.08,0.95,703.44,10.6,41.4,0.5,0.25,1.0,0.5,1.25,0.5,0.25,0.25,0.5,2.75,1.25,1.5,2.25,1.14,-0.73,1.2,139.8,-0.7,-37.8
0.56,4.25,2.5,6.75,13.0,8.75,3.25,2.75,3.25,0.25,0.5,1.0,0.0,0.5,-0.11,0.14,0.95,747.56,11.7,47.4,0.5,0.25,0.5,0.25,1.75,0.0,0.0,0.25,0.5,3.0,2.25,4.25,6.0,1.08,-0.86,1.58,204.67,1.5,-67.3
0.58,5.5,2.5,7.25,14.0,9.0,3.0,2.75,3.0,0.5,0.5,0.75,0.25,0.25,-0.17,0.14,1.08,798.21,13.0,49.7,0.0,0.0,1.0,0.75,1.5,1.25,0.25,0.5,0.5,7.0,3.75,6.0,8.0,-0.73,0.77,0.95,298.22,3.5,-70.3
0.6,0.0,0.0,7.5,8.0,9.25,0.0,2.75,2.5,0.0,0.5,1.0,0.25,0.0,-0.17,0.14,1.08,703.52,12.6,41.1,0.5,0.25,0.5,0.75,1.75,1.25,0.0,2.0,0.5,8.0,6.25,6.0,7.75,0.52,0.08,2.33,411.57,3.5,-66.9
0.62,4.25,0.0,7.25,8.25,0.0,0.75,0.0,0.0,0.0,0.0,0.0,0.0,0.0,-0.17,0.2,1.14,538.95,26.8,65.8,0.25,0.0,1.0,0.75,2.5,0.0,0.25,3.5,0.75,8.5,6.75,6.0,8.0,0.14,0.33,1.08,540.35,3.0,-66.7
0.64,6.5,3.25,8.25,12.5,8.75,0.75,2.0,0.0,0.5,0.25,0.0,0.0,0.0,-0.17,0.2,1.14,531.21,18.1,63.2,0.5,0.25,0.5,0.75,1.25,2.25,0.0,4.5,1.0,8.5,6.5,6.0,8.0,0.02,0.08,1.02,637.61,4.7,-64.6
0.66,7.25,3.0,7.5,14.0,7.75,0.25,0.75,1.75,1.0,0.25,0.5,0.0,0.0,-0.23,0.27,1.27,571.5,17.3,57.9,0.5,0.25,0.75,0.75,1.5,0.0,0.25,5.5,1.0,8.75,7.0,6.0,8.0,0.2,0.14,0.95,698.4,3.5,-67.5
0.68,3.25,2.5,7.5,11.5,0.0,0.0,1.75,2.5,0.75,0.0,0.75,0.0,0.25,-0.3,0.33,1.45,550.2,21.0,50.4,0.5,0.25,1.0,0.75,1.5,3.5,0.25,5.75,1.0,8.75,7.25,6.0,8.0,0.08,0.08,0.95,749.3,4.7,-59.0
0.7,7.0,1.25,7.5,9.0,0.0,0.0,0.0,1.5,0.25,0.25,0.75,0.25,0.25,-0.61,0.45,1.58,495.92,24.2,56.2,0.5,0.25,1.0,0.75,1.5,4.25,0.25,5.75,1.25,8.75,7.5,6.0,8.0,0.08,0.08,0.95,788.51,4.8,-57.6
0.72,5.75,0.75,4.75,6.5,0.0,0.0,0.0,1.5,0.75,0.5,0.75,0.25,0.25,-0.8,0.64,1.52,392.54,22.2,48.5,0.5,0.5,0.5,0.75,2.5,4.5,0.25,5.75,1.0,8.75,7.25,5.75,8.0,0.08,0.08,0.95,807.87,5.5,-54.5
0.74,5.5,0.0,2.25,4.25,0.0,0.0,0.0,1.25,0.5,0.5,0.75,0.0,0.25,-0.92,1.14,2.33,287.17,21.5,47.1,0.5,0.25,1.5,1.5,3.5,4.5,0.25,6.0,1.25,8.75,6.75,5.5,8.0,0.08,0.08,0.95,820.31,4.4,-47.8
0.76,2.0,0.0,1.75,1.0,0.0,0.0,0.0,0.0,0.0,0.0,0.75,0.0,0.25,-0.48,0.89,2.64,175.55,27.4,47.4,0.5,0.25,0.75,1.25,2.5,4.5,0.25,6.25,1.25,8.5,6.5,5.25,7.5,0.14,0.08,0.95,799.58,5.4,-51.4
0.78,0.0,0.0,1.25,1.75,0.0,0.0,0.0,0.0,0.25,0.0,0.75,0.0,0.25,-0.61,0.33,2.27,80.48,20.2,21.1,0.5,0.75,1.5,2.0,4.75,4.75,0.5,6.25,1.25,8.25,6.5,4.75,7.25,0.14,0.08,0.95,782.09,4.1,-39.2
0.8,0.0,0.0,0.25,0.0,0.0,0.0,0.0,0.0,0.0,0.0,0.0,0.0,0.0,-0.98,-0.36,1.89,0.0,38.2,60.9,0.5,0.75,1.5,2.75,5.25,5.5,0.5,6.25,1.25,8.0,6.5,4.0,6.5,0.14,0.08,0.95,755.32,4.0,-33.2
0.82,0.0,0.0,0.0,0.5,0.0,0.0,0.0,0.0,0.25,0.25,0.0,0.0,0.0,-0.92,-0.17,0.64,0.0,7.9,1.8,0.75,1.0,1.25,3.0,5.0,5.75,0.5,6.5,1.5,8.0,6.0,3.75,6.25,0.14,0.08,0.95,736.52,4.1,-30.9
0.84,0.0,0.0,0.0,2.5,0.0,0.0,0.0,0.0,0.0,0.0,0.0,0.0,0.25,-1.61,-1.3,0.02,0.0,14.4,42.8,0.5,1.0,1.75,3.25,5.25,6.0,0.75,6.25,1.75,7.25,5.5,3.25,5.75,0.14,0.08,0.95,713.54,3.5,-26.4
0.86,0.0,0.0,0.0,0.0,0.0,0.0,1.0,0.0,0.0,0.0,0.0,0.0,0.0,-0.92,-0.61,0.77,0.0,32.4,27.3,0.5,1.0,2.0,4.25,6.0,6.0,0.75,6.25,1.75,7.0,5.0,2.5,5.0,0.14,0.08,0.95,700.51,3.0,-19.3
0.88,0.0,0.0,0.0,3.0,0.0,0.0,0.0,0.0,3.5,0.0,0.0,0.0,0.0,-0.61,-0.3,0.58,0.0,14.5,7.3,0.75,1.25,1.75,5.25,7.0,6.5,1.0,6.0,1.75,6.5,4.5,2.25,4.25,0.14,0.08,0.95,697.53,2.4,-11.4
0.9,0.0,0.0,1.75,0.0,0.0,0.0,2.0,0.0,0.0,0.0,1.25,0.0,0.0,-0.42,-0.36,0.45,0.0,28.4,11.2,1.25,1.25,2.75,5.5,7.0,6.75,1.25,5.75,1.75,5.75,3.75,1.5,4.0,0.14,0.08,0.95,698.93,1.2,-4.0
0.92,1.0,0.0,1.25,2.0,0.0,0.0,0.0,0.0,0.5,0.0,0.75,0.0,0.25,-0.48,-0.23,0.64,11.12,22.1,32.6,1.5,1.25,3.5,6.0,7.25,7.0,1.25,5.75,1.75,5.5,3.25,1.25,3.25,0.14,0.08,0.95,706.46,0.2,1.8
0.94,0.5,0.0,1.25,1.75,0.0,0.0,0.0,0.0,0.5,0.25,0.75,0.0,0.25,-0.55,-0.11,0.83,35.33,19.4,20.5,1.75,1.5,3.5,7.25,8.25,7.0,1.25,5.75,1.5,4.25,2.75,1.25,2.75,0.14,0.08,0.95,721.13,-0.7,9.6
0.96,0.0,0.0,1.25,1.0,0.0,0.0,0.0,0.0,0.5,0.0,0.5,0.0,0.25,-0.48,0.02,0.89,53.74,21.0,15.4,1.75,1.75,3.5,8.0,8.25,7.25,1.25,5.5,1.5,4.25,2.5,0.75,2.25,0.14,0.08,0.95,734.43,-1.0,14.1
0.98,0.0,0.0,1.25,1.75,0.0,0.0,0.0,0.0,0.5,0.25,0.75,0.0,0.25,-0.42,0.14,1.02,67.55,17.9,13.1,2.0,1.75,3.75,9.0,8.5,7.5,1.5,4.75,1.25,3.0,2.5,0.75,2.0,0.14,0.08,0.95,744.09,-2.4,20.1
1.0,0.0,0.0,1.25,1.5,0.0,0.0,0.0,0.0,0.5,0.0,0.75,0.0,0.25,-0.3,0.27,1.08,75.87,19.9,15.5,2.0,2.0,4.25,9.5,9.5,7.5,1.75,4.75,1.0,3.0,2.5,0.75,1.75,0.14,0.08,0.95,768.13,-2.9,23.0
1.02,0.5,0.0,1.0,1.0,0.0,0.0,0.0,0.0,0.25,0.5,0.75,0.0,0.25,-0.23,0.33,1.39,77.87,17.1,9.0,2.0,2.0,5.0,11.0,9.75,7.75,1.75,4.25,1.0,2.75,2.5,0.25,1.5,0.14,0.08,0.95,797.09,-4.0,27.8
1.04,0.0,0.0,1.0,1.0,0.0,0.0,0.0,0.0,0.75,0.0,0.0,0.0,0.25,-0.17,0.52,1.52,71.18,20.4,21.6,2.25,2.25,5.25,11.0,11.0,7.75,2.0,3.5,1.0,2.75,2.0,0.25,1.5,0.14,0.08,0.95,834.72,-4.5,31.2
1.06,1.0,0.0,1.0,1.0,0.0,0.0,0.0,0.0,0.5,0.25,0.0,0.0,0.25,-0.23,0.58,1.7,68.35,22.1,37.0,3.5,2.5,5.75,12.5,11.0,7.75,1.75,3.25,0.75,2.75,1.5,0.0,1.25,0.08,0.08,0.95,880.81,-5.8,36.8
1.08,0.25,0.0,1.0,0.75,0.0,0.0,0.0,0.0,0.5,0.5,0.0,0.0,0.25,-0.42,0.64,1.83,59.79,16.8,13.9,3.75,2.75,6.5,13.5,11.5,8.0,1.75,2.75,0.5,1.5,1.5,0.0,1.25,0.08,0.14,0.95,927.26,-7.1,41.7
1.1,0.5,0.0,0.75,1.0,0.0,0.0,0.0,0.0,0.5,0.25,0.0,0.0,0.25,-0.55,0.7,2.14,56.36,19.0,26.5,5.0,3.25,7.0,14.0,12.5,8.0,2.25,2.0,0.5,1.25,1.0,0.0,1.0,0.08,0.14,0.95,980.89,-8.4,47.0
1.12,0.0,0.0,0.75,1.0,0.0,0.0,0.0,0.0,0.25,0.0,0.0,0.0,0.25,-0.36,0.89,2.58,44.23,20.2,30.1,5.5,2.75,7.0,15.0,12.5,7.75,1.5,2.0,0.5,1.25,0.75,0.0,0.5,0.08,0.14,1.02,1018.38,-8.9,49.2
1.14,0.25,0.0,1.0,0.5,0.0,0.0,0.0,0.0,0.5,0.25,0.0,0.0,0.25,0.08,1.45,2.52,42.7,19.7,17.8,6.25,3.5,7.75,15.5,12.5,7.75,1.25,1.5,0.5,1.25,0.25,0.25,0.5,0.08,0.14,1.08,1061.98,-9.9,51.7
1.16,0.75,0.0,1.0,1.5,0.0,0.0,0.0,0.0,0.25,0.75,0.0,0.0,0.25,0.7,2.08,1.7,48.91,17.2,28.0,7.0,3.75,8.0,15.5,12.5,7.5,1.25,0.5,0.5,1.25,1.0,0.5,0.25,0.14,0.2,1.08,1093.09,-11.0,52.6
1.18,1.0,0.0,1.0,1.0,0.0,0.0,0.0,0.0,0.25,0.5,0.0,0.0,0.25,1.45,2.77,1.14,56.79,20.3,34.6,7.75,3.75,7.75,15.5,12.5,6.75,0.75,0.5,0.5,1.25,1.25,0.0,0.5,0.14,0.2,1.2,1111.37,-11.3,53.5
1.2,1.0,0.0,0.75,0.5,0.0,0.0,0.0,0.0,0.5,0.25,0.0,0.0,0.25,2.02,4.02,0.52,59.64,21.6,31.7,8.0,3.5,7.25,14.5,11.0,5.5,0.75,0.25,0.5,1.25,1.25,0.0,0.5,0.14,0.27,1.08,1077.4,-12.4,54.1
1.22,1.0,0.0,1.0,0.5,0.0,0.0,0.0,0.0,0.25,0.0,0.0,0.0,0.25,2.33,3.83,0.27,56.46,26.9,49.0,8.0,3.25,6.5,12.5,9.75,2.75,0.5,0.25,0.5,1.25,1.25,0.0,0.25,0.14,0.33,1.33,978.12,-14.2,55.7
1.24,1.0,0.0,1.0,0.5,0.0,0.0,0.0,0.0,0.25,0.5,0.0,0.0,0.25,1.45,0.83,3.2,56.11,20.8,31.2,7.0,2.0,5.0,9.5,8.5,0.0,0.5,0.25,0.25,0.0,0.75,0.0,0.5,0.39,0.45,1.58,789.11,-16.8,60.1
1.26,0.0,0.0,1.0,0.5,0.0,0.0,0.0,0.0,0.25,0.75,0.5,0.0,0.25,-1.48,-1.36,1.89,53.32,12.5,-11.5,5.5,1.25,0.75,5.5,4.75,0.25,0.25,0.5,0.25,1.25,0.75,0.25,0.5,0.7,0.77,1.95,545.45,-12.6,47.2
1.28,0.0,0.0,1.0,0.5,0.0,0.0,0.0,0.0,0.25,1.5,0.25,1.25,2.75,-0.55,-0.36,0.77,78.49,0.3,-65.0,2.0,0.0,0.0,4.5,1.0,0.0,0.25,0.25,0.0,0.0,0.0,0.0,0.0,0.7,1.2,2.89,303.89,-17.5,63.0
1.3,1.0,0.0,0.0,0.5,0.0,0.0,0.0,0.0,1.25,4.75,0.0,4.0,5.25,0.33,0.33,2.27,151.05,-3.3,-78.1,2.0,0.25,0.0,3.0,0.5,1.0,0.0,0.25,0.5,0.0,1.0,0.0,0.25,-0.17,0.58,2.33,161.42,-12.3,36.9
1.32,0.0,0.0,0.0,0.0,0.0,0.0,0.0,0.0,0.0,0.0,0.0,0.0,2.25,-0.55,0.33,2.2,142.01,-13.6,-109.9,0.0,0.0,0.0,0.75,0.0,0.0,0.0,0.0,0.0,0.0,0.5,0.0,0.0,0.33,0.39,1.95,1.58,-14.7,7.0
1.34,0.0,0.0,0.0,0.0,0.0,0.0,0.0,4.75,0.75,6.0,0.0,4.5,6.25,-0.17,0.33,1.08,223.74,-9.5,-83.2,0.0,0.0,0.0,0.5,0.0,0.0,0.0,0.0,0.0,0.0,0.0,0.0,0.0,0.95,-0.48,1.52,0.0,-17.2,57.9
1.36,0.0,0.0,0.0,0.25,0.0,0.0,0.0,5.0,1.0,6.25,3.5,4.5,6.25,-0.11,0.08,0.95,289.61,-6.6,-79.9,0.0,0.0,0.25,0.5,0.25,1.25,0.0,0.0,0.5,1.25,0.0,0.0,0.0,0.77,-0.86,0.7,0.0,5.6,-2.9
1.38,1.0,0.0,0.0,1.0,1.5,0.0,0.25,4.5,1.0,6.0,4.75,4.75,6.0,-0.17,0.08,0.95,385.14,-3.3,-63.6,0.0,0.0,0.5,0.5,1.5,1.25,0.0,0.0,0.5,0.0,0.0,0.0,0.0,0.64,-1.3,0.83,0.0,-0.4,39.5
1.4,0.0,0.0,0.0,1.25,1.5,0.75,0.25,5.25,1.0,6.25,0.0,5.0,6.25,-0.17,0.08,0.95,434.91,-7.6,-63.7,0.0,0.0,0.5,0.5,0.0,0.0,0.0,0.0,0.0,0.0,0.0,0.0,0.0,0.27,-0.36,0.77,0.0,-27.6,59.4
1.42,0.0,0.0,0.0,1.75,0.0,0.0,0.25,5.0,1.75,6.5,0.0,5.25,6.25,-0.17,0.08,0.95,469.96,-6.3,-71.6,0.0,0.0,0.0,0.5,0.5,0.0,0.0,0.0,0.0,0.0,0.0,0.0,0.0,0.08,-0.42,0.39,0.0,-6.4,55.5
1.44,1.0,0.0,0.0,2.0,0.0,0.25,0.25,5.5,2.0,6.75,5.5,5.0,6.25,-0.17,0.02,0.95,507.78,-2.7,-64.9,0.0,0.0,0.0,0.5,0.0,0.0,0.0,0.0,0.0,0.0,0.0,0.0,0.0,0.27,-0.36,0.52,0.0,-17.2,57.9
1.46,1.0,0.0,0.0,2.0,0.25,0.75,0.5,5.75,2.0,6.75,6.5,5.0,6.25,-0.11,0.02,0.95,548.54,-2.6,-62.5,0.0,0.0,0.0,0.5,0.25,0.0,0.0,0.0,0.0,0.0,0.0,0.0,0.0,0.39,-0.36,0.83,0.0,-9.9,56.3
1.48,0.0,0.0,0.0,2.0,1.5,1.5,0.75,6.0,2.0,6.25,6.5,5.0,6.0,-0.17,0.02,0.95,593.41,-3.6,-59.2,0.0,0.0,1.0,0.5,0.0,0.0,0.0,0.0,0.0,0.0,0.0,0.0,0.0,0.39,-0.3,0.83,0.0,-31.1,59.9
1.5,0.5,0.0,0.0,2.5,2.5,1.75,0.75,6.0,2.75,5.75,6.0,4.25,5.75,-0.17,0.02,0.95,616.8,-2.9,-49.6,0.0,0.0,0.0,0.5,0.0,0.0,0.0,0.0,0.0,0.0,0.0,0.0,0.0,0.39,0.08,0.77,0.0,-17.2,57.9
1.52,0.5,0.0,1.25,2.75,3.25,2.0,0.75,6.0,3.0,5.5,5.5,3.5,5.25,-0.11,0.02,0.95,618.51,-1.6,-40.0,0.0,0.0,0.0,0.5,0.0,0.0,0.0,0.0,0.0,0.0,0.0,0.0,0.0,0.33,0.27,0.95,0.0,-17.2,57.9
1.54,0.75,0.0,1.25,4.25,4.5,2.0,0.75,6.0,3.0,4.75,5.5,3.0,4.0,-0.11,0.02,0.95,602.73,-0.2,-28.2,0.5,0.25,0.25,0.75,2.25,1.25,0.0,0.25,0.5,1.25,0.5,0.0,0.25,0.33,0.27,1.14,44.56,1.0,14.9
1.56,1.75,0.75,1.5,4.5,4.5,2.25,0.75,5.75,3.0,3.75,4.0,1.75,2.75,-0.11,0.08,0.95,582.01,1.3,-12.0,0.5,0.25,0.25,0.75,1.0,1.0,0.25,0.25,0.5,1.25,0.5,0.0,0.25,0.27,0.33,1.33,79.55,-0.7,6.2
1.58,2.0,1.0,1.5,6.5,5.25,2.75,1.0,5.5,3.0,3.25,4.0,1.25,2.25,-0.11,0.08,0.95,558.96,2.6,-1.4,0.5,0.25,0.5,0.75,0.5,1.0,0.0,0.0,0.5,1.25,0.25,0.0,0.5,0.27,0.52,1.45,100.68,-1.8,3.7
1.6,1.75,1.0,1.75,7.5,6.0,2.75,1.0,5.25,2.5,2.0,3.0,1.0,1.5,-0.11,0.08,0.95,548.43,3.6,9.3,0.5,0.25,1.0,0.75,1.25,1.0,0.25,0.25,0.5,1.0,0.25,0.0,0.25,0.39,0.7,1.58,113.1,-4.8,19.4
1.62,1.75,1.0,2.5,8.0,6.25,3.25,1.0,5.0,2.5,1.5,2.5,1.0,1.5,-0.11,0.08,0.95,552.71,4.4,14.2,0.0,0.0,0.5,0.25,0.0,0.0,0.0,0.0,0.0,0.0,0.0,0.0,0.0,0.58,0.7,1.7,90.02,-31.1,59.9
1.64,1.75,1.0,2.5,9.0,6.75,3.25,1.0,4.75,2.0,1.5,2.25,1.0,1.25,-0.11,0.08,0.95,558.56,4.8,18.3,0.0,0.0,1.75,0.5,1.25,0.0,0.0,0.0,0.0,0.0,0.0,0.0,0.0,0.7,0.77,1.83,81.0,-19.4,57.6
1.66,2.75,1.0,3.0,9.25,7.5,3.75,1.25,4.5,2.25,1.5,2.0,0.5,1.0,-0.11,0.08,0.95,577.02,5.7,24.8,0.5,0.25,0.25,0.75,0.0,1.0,0.0,0.25,0.5,1.25,0.25,0.0,0.0,0.52,1.2,2.08,74.1,-1.2,4.6
1.68,2.75,1.25,3.0,10.5,7.75,3.75,1.25,4.5,1.5,1.5,1.5,0.75,0.75,-0.11,0.08,0.95,592.69,6.0,28.9,0.0,0.0,0.5,0.5,0.0,0.0,0.0,0.0,0.0,0.0,0.0,0.0,0.0,0.27,1.58,2.14,59.66,-27.6,59.4
1.7,2.75,1.75,3.0,10.5,8.0,4.0,1.5,4.25,1.25,1.0,1.5,0.5,0.5,-0.11,0.08,0.95,612.96,6.4,33.7,0.0,0.0,0.25,0.5,0.0,0.0,0.25,0.25,0.0,0.0,0.0,0.0,0.0,0.02,2.08,1.64,41.94,-16.1,34.4
1.72,2.75,2.25,3.25,11.5,8.25,4.0,1.5,3.5,1.0,1.0,1.25,0.5,0.5,-0.11,0.08,0.95,633.79,7.3,37.8,0.0,0.0,0.0,0.0,0.0,1.25,0.0,0.0,0.5,1.0,0.0,0.0,0.0,-0.11,2.45,0.52,34.55,13.7,-20.3
1.74,2.75,2.5,4.25,11.5,8.5,4.0,1.5,3.25,1.0,1.0,1.0,0.25,0.5,-0.11,0.14,0.95,654.18,8.1,40.8,0.0,0.25,0.0,0.5,1.75,1.0,0.0,0.0,0.0,0.0,0.0,0.0,0.25,-1.05,3.33,0.58,40.3,4.8,41.9
1.76,2.75,2.5,5.0,12.5,8.5,4.0,1.5,3.25,1.0,1.0,0.75,0.0,0.5,-0.11,0.14,0.95,679.65,8.8,43.0,0.0,0.0,0.0,0.5,0.0,0.0,0.25,0.25,0.0,0.0,0.0,0.0,0.0,-2.48,4.2,1.39,27.35,-9.7,26.7
1.78,2.75,2.5,4.5,12.5,8.5,4.0,1.5,3.25,0.75,0.75,1.0,0.0,0.5,-0.11,0.14,0.95,693.91,8.6,43.3,0.5,0.25,0.0,0.75,1.5,0.0,0.25,0.25,0.5,1.5,0.75,0.25,0.5,-2.55,3.45,0.45,50.5,-1.7,-9.5
1.8,2.75,2.5,6.0,13.0,9.0,4.0,1.5,3.0,0.25,0.0,0.75,0.0,0.25,-0.11,0.14,0.95,709.46,10.2,49.1,0.0,0.25,1.25,0.5,1.5,0.0,0.0,0.25,0.25,3.5,1.5,4.0,4.75,0.77,0.58,2.58,134.8,0.8,-62.9
1.82,4.25,3.0,6.0,14.0,9.25,4.0,1.5,2.5,0.0,0.75,0.75,0.5,0.5,-0.17,0.14,1.02,741.8,10.8,48.2,0.0,0.0,0.5,0.75,1.25,1.25,0.5,0.25,0.5,6.25,3.0,6.0,7.75,-0.42,0.08,0.89,252.08,4.0,-73.2
1.84,5.5,3.75,6.0,14.0,9.25,3.5,1.5,2.5,0.0,0.75,0.75,0.0,0.5,-0.17,0.14,1.02,782.12,11.7,52.0,0.5,0.25,0.5,0.5,1.5,0.25,0.25,2.0,0.5,8.25,6.25,6.5,8.25,-0.17,0.58,2.83,383.22,3.0,-72.5
1.86,0.0,0.0,6.5,8.0,9.25,0.0,1.5,2.0,0.0,0.0,0.75,0.0,0.25,-0.17,0.14,1.08,669.25,12.1,44.9,0.5,0.25,0.5,0.75,1.5,2.25,0.25,3.25,1.0,8.75,7.25,6.5,8.25,0.2,0.39,1.14,549.11,3.9,-65.4
1.88,0.0,0.0,0.0,8.0,1.75,0.0,0.0,0.0,0.0,0.0,0.0,0.0,0.0,-0.17,0.2,1.02,440.99,13.2,57.0,0.5,0.25,0.5,0.75,1.5,2.25,0.25,4.75,1.0,8.75,7.25,6.0,8.25,0.02,0.08,1.08,671.18,4.5,-63.9
1.9,0.0,0.0,0.0,7.75,1.0,0.0,0.0,0.0,0.0,0.0,0.0,0.0,0.0,-0.17,0.2,1.08,269.06,14.6,57.3,0.5,0.0,0.5,0.75,1.75,2.75,0.25,4.75,1.0,8.75,6.75,5.75,8.0,0.2,0.08,0.95,739.82,5.0,-62.3
1.92,7.25,4.0,7.5,13.5,8.5,0.75,0.75,1.5,0.25,0.5,0.5,0.25,0.25,-0.23,0.27,1.2,321.19,16.3,58.0,0.5,0.25,1.25,0.75,1.5,3.25,0.25,5.25,1.0,8.75,6.5,5.5,8.0,0.14,0.08,0.95,775.69,4.6,-58.2
1.94,7.25,4.0,7.25,11.0,7.0,0.0,0.0,1.5,0.5,0.5,0.0,0.0,0.5,-0.3,0.33,1.33,399.81,17.3,59.8,0.5,0.25,0.5,0.75,2.75,4.25,0.25,5.75,1.0,8.75,6.5,5.5,8.0,0.14,0.08,0.95,795.31,5.8,-54.5
1.96,6.25,2.5,6.5,9.25,6.25,0.0,0.0,1.5,0.25,0.5,0.5,0.0,0.25,-0.48,0.39,1.52,498.07,17.3,57.4,0.5,0.25,0.25,0.75,2.5,4.5,0.25,5.75,1.25,8.75,7.25,5.5,8.0,0.08,0.08,0.95,807.08,5.8,-55.6
1.98,6.25,1.5,5.0,8.0,0.0,0.0,0.0,1.5,0.25,0.5,0.5,0.0,0.0,-0.73,0.58,1.58,455.66,22.8,58.4,0.5,0.25,1.0,1.0,3.0,4.5,0.25,6.0,1.25,8.75,7.25,5.5,7.75,0.08,0.08,0.95,816.53,5.0,-51.3
2.0,5.0,0.0,3.0,4.5,0.0,0.0,0.0,1.25,0.25,0.0,0.0,0.0,0.25,-1.05,1.14,2.2,343.85,23.9,58.4,0.75,0.25,0.5,0.75,2.5,4.5,0.25,6.25,1.25,8.5,7.25,5.25,7.5,0.14,0.08,0.95,803.44,5.4,-53.0
2.02,2.25,0.0,0.25,1.25,0.0,0.0,0.0,0.0,0.5,0.5,0.0,0.0,0.0,-0.61,1.02,3.02,204.08,22.3,51.5,0.5,0.75,1.25,1.25,4.75,5.5,0.25,6.25,1.25,8.5,6.5,4.25,7.5,0.14,0.08,0.95,783.42,5.2,-40.2
2.04,0.25,0.0,0.75,2.75,0.0,0.0,0.0,0.0,0.0,0.5,0.0,0.0,0.25,-0.48,0.39,3.14,93.58,16.3,36.7,0.5,1.0,1.5,2.0,5.25,5.75,0.25,6.5,1.5,8.0,6.5,4.0,6.5,0.14,0.08,0.95,755.85,4.4,-33.8
2.06,0.25,0.0,0.0,0.5,0.0,0.0,0.0,0.0,0.25,0.0,0.25,0.0,0.0,-1.05,-0.55,2.14,4.25,18.3,20.3,0.5,0.75,1.5,3.0,5.25,6.0,0.5,6.5,1.5,8.0,6.0,3.5,6.25,0.14,0.08,0.95,734.87,4.3,-30.5
2.08,0.0,0.0,0.0,0.5,0.0,0.0,0.0,0.0,0.0,0.0,0.0,0.0,0.0,-1.86,-0.67,1.52,0.0,17.2,57.9,0.75,1.0,1.0,3.0,5.25,6.0,0.5,6.5,1.75,7.5,5.5,3.0,6.0,0.14,0.08,0.95,708.0,4.5,-28.1
2.1,0.0,0.0,0.0,0.5,0.0,0.0,0.0,0.0,0.0,0.0,0.0,0.0,0.0,-1.67,-1.3,1.14,0.0,17.2,57.9,1.0,1.0,1.75,3.25,5.5,6.5,0.75,6.25,1.75,7.0,4.75,2.75,5.5,0.14,0.08,0.95,690.98,3.6,-21.8
2.12,0.0,0.0,0.0,0.5,0.0,0.0,0.0,0.0,0.0,0.0,0.0,0.0,0.0,-0.92,-0.55,0.58,0.0,17.2,57.9,0.75,1.0,2.0,4.5,6.75,6.75,0.75,6.25,1.75,6.75,4.75,2.25,4.5,0.14,0.08,0.95,690.36,2.9,-14.3
2.14,0.0,0.0,0.0,0.5,0.0,0.0,0.0,0.0,0.0,0.0,0.0,0.0,0.0,-0.61,-0.11,0.27,0.0,17.2,57.9,1.25,1.25,3.0,5.25,7.0,7.0,1.0,5.75,1.75,6.25,4.0,1.25,4.0,0.14,0.08,0.95,699.54,1.4,-4.5
2.16,0.0,0.0,0.0,0.5,0.0,0.0,0.0,0.0,0.0,0.0,0.0,0.0,0.0,-0.48,-0.17,0.33,0.0,17.2,57.9,1.25,1.5,3.25,5.5,7.75,7.0,1.25,5.75,1.75,5.5,3.75,1.25,3.25,0.14,0.08,0.95,711.97,0.6,0.8
2.18,0.0,0.0,0.0,0.0,0.0,0.0,0.0,0.0,0.0,0.0,0.0,0.0,0.0,-0.42,-0.11,0.64,0.0,0.0,0.0,1.25,1.75,3.5,6.5,8.0,7.25,1.25,5.75,1.75,4.75,2.75,1.25,3.0,0.14,0.08,0.95,724.7,0.0,6.6
2.2,0.0,0.0,0.0,0.5,0.0,0.0,0.5,0.0,0.0,0.0,0.0,0.0,0.0,-0.36,0.02,0.64,0.0,21.9,48.3,1.75,1.75,3.75,7.25,8.25,7.25,1.25,5.25,1.75,4.0,2.5,0.75,2.25,0.14,0.08,0.95,731.11,-1.2,14.1
2.22,0.0,0.0,0.0,0.5,0.0,0.0,0.0,0.0,0.25,0.5,0.0,0.0,0.0,-0.3,0.2,0.39,0.0,3.2,-13.3,2.0,1.75,4.5,8.0,8.5,7.5,1.25,4.75,1.5,3.0,2.5,0.75,2.25,0.14,0.08,0.95,739.9,-2.5,18.9
2.24,0.0,0.0,0.5,1.25,0.0,0.0,0.0,0.0,0.25,0.25,0.0,0.0,0.25,-0.36,0.33,0.45,3.1,14.6,19.6,2.0,2.0,4.0,9.0,9.25,7.5,1.5,4.75,1.25,3.0,2.5,0.75,1.75,0.14,0.14,0.95,755.76,-2.6,21.9
2.26,0.0,0.0,0.25,1.5,0.0,0.0,0.0,0.0,0.25,0.5,0.0,0.0,0.25,-0.36,0.27,0.64,28.02,10.0,10.9,2.0,2.0,5.25,9.25,9.5,7.75,1.75,4.0,1.0,3.0,2.25,0.25,1.5,0.14,0.14,0.95,772.86,-3.8,27.0
2.28,0.0,0.0,0.25,1.0,0.0,0.0,0.5,0.0,0.25,0.5,0.0,0.0,0.0,-0.55,0.2,0.95,38.32,13.4,15.5,2.0,2.0,6.0,10.5,9.75,7.75,1.75,3.25,1.0,2.75,1.75,0.0,1.5,0.14,0.14,0.95,794.99,-4.9,31.6
2.3,0.0,0.0,0.0,1.25,0.0,0.0,0.0,0.0,0.25,0.5,0.0,0.0,0.25,-0.48,0.33,1.02,44.24,6.1,0.1,3.0,2.25,6.25,11.0,10.5,7.75,1.75,3.25,1.0,2.75,1.5,0.0,1.25,0.14,0.14,0.95,830.6,-5.7,35.0
2.32,0.0,0.0,0.25,1.0,0.0,0.0,0.0,0.0,0.25,0.25,0.0,0.0,0.25,-0.42,0.33,1.14,43.19,11.3,9.5,3.5,2.5,6.25,11.5,10.5,7.75,1.75,2.25,0.75,2.25,1.5,0.0,1.25,0.14,0.14,0.95,857.18,-6.7,38.9
2.34,0.0,0.0,0.25,1.25,0.0,0.0,0.0,0.0,0.25,0.5,0.0,0.0,0.25,-0.48,0.33,1.27,43.84,9.3,6.2,4.0,2.75,7.0,12.5,11.0,7.75,1.75,2.0,0.5,1.75,1.5,0.5,1.25,0.08,0.14,0.95,894.71,-7.8,40.9
2.36,0.0,0.0,0.5,0.75,0.0,0.0,0.0,0.0,0.25,0.5,0.0,0.0,0.25,-0.61,0.39,1.45,43.08,10.7,0.5,4.5,2.75,7.0,12.5,11.0,7.75,1.75,2.0,0.5,1.5,1.25,0.25,1.25,0.08,0.14,0.95,919.25,-8.1,43.1
2.38,0.0,0.0,0.5,1.25,0.0,0.0,0.0,0.0,0.25,0.5,0.0,0.0,0.25,-0.61,0.39,1.64,46.37,11.9,11.1,5.5,2.75,7.75,13.5,12.0,7.75,1.75,1.75,0.5,1.25,1.25,0.25,1.25,0.08,0.14,0.95,967.18,-9.1,45.6
2.4,0.0,0.0,0.5,1.0,0.0,0.0,0.0,0.0,0.25,0.5,0.0,0.0,0.25,-0.42,0.52,1.77,46.57,11.4,6.4,5.5,3.25,8.0,14.0,12.5,7.5,1.75,1.25,0.5,1.25,0.75,0.0,0.75,0.08,0.14,0.95,1002.81,-9.7,50.1
2.42,0.0,0.0,0.5,0.5,0.0,0.0,0.0,0.0,0.25,0.5,0.0,0.0,0.25,-0.3,0.58,1.77,43.5,9.9,-6.7,6.0,3.25,8.5,14.5,12.5,6.5,1.75,0.25,0.5,1.25,0.25,0.0,0.5,0.08,0.14,1.02,1025.59,-11.4,54.3
2.44,0.0,0.0,0.5,0.5,0.0,0.0,0.0,0.0,0.0,0.5,0.0,0.0,0.25,-0.17,0.7,1.7,37.06,9.6,-2.4,6.75,3.5,8.75,15.0,12.5,7.0,1.75,0.5,0.5,1.25,0.75,0.0,0.5,0.08,0.2,1.02,1054.93,-11.4,53.4
2.46,0.0,0.0,0.25,0.75,0.0,0.0,0.0,0.0,0.0,0.25,0.0,0.0,0.25,-0.11,0.89,1.7,30.59,10.2,9.0,7.0,3.25,9.25,15.5,12.5,6.5,1.25,0.25,0.5,1.25,1.0,0.0,0.5,0.08,0.2,1.02,1076.13,-12.1,53.6
2.48,0.0,0.0,0.5,0.5,0.0,0.0,0.0,0.0,0.25,0.25,0.0,0.0,0.25,-0.11,1.02,1.7,26.84,13.5,2.8,8.0,3.5,9.5,15.5,11.5,6.0,1.25,0.25,0.5,1.25,0.75,0.0,0.5,0.08,0.27,1.02,1089.32,-13.1,55.2
2.5,0.0,0.0,0.5,0.5,0.0,0.0,0.0,0.0,0.25,0.25,0.0,0.0,0.25,-0.11,1.2,1.27,25.94,13.5,2.8,8.0,3.25,9.25,14.5,11.0,5.25,1.25,0.5,0.5,1.25,1.25,0.0,0.0,0.08,0.33,1.08,1070.64,-13.6,55.2
2.52,0.0,0.0,0.0,0.5,0.0,0.0,0.0,0.0,0.25,0.5,0.0,0.0,0.25,-0.05,1.52,0.89,24.92,0.4,-29.6,8.5,3.0,10.0,14.0,9.75,2.25,1.0,0.25,0.0,0.25,1.0,0.0,0.5,0.14,0.33,1.14,1006.97,-17.1,59.6
2.54,0.0,0.0,0.25,0.5,0.0,0.0,0.0,0.0,0.25,0.0,0.0,0.0,0.5,0.2,1.83,0.52,23.56,9.6,-12.9,8.0,2.0,9.25,11.5,8.0,0.5,0.5,0.25,0.5,1.0,0.25,0.0,0.0,0.27,0.45,1.33,874.35,-18.9,60.5
2.56,0.0,0.0,0.0,0.5,0.0,0.0,0.0,0.0,0.25,0.5,0.0,0.0,0.25,0.7,1.83,0.58,22.04,0.4,-29.6,7.25,1.25,8.25,9.25,6.0,0.0,0.75,0.25,0.0,0.0,0.25,0.0,0.0,0.39,0.52,1.45,701.84,-21.5,65.3
2.58,0.0,0.0,0.0,0.5,0.0,0.0,0.0,0.0,0.25,0.5,0.0,0.0,0.25,0.39,1.77,0.52,20.93,0.4,-29.6,7.5,1.25,6.5,7.5,5.5,0.0,1.0,0.25,0.5,1.0,0.75,0.0,0.5,0.52,0.77,1.7,556.03,-19.4,55.5
2.6,0.0,0.0,0.0,0.5,0.0,0.0,0.0,0.0,0.25,0.5,0.0,0.0,0.25,0.02,1.52,0.52,20.79,0.4,-29.6,5.75,1.0,3.25,5.5,3.5,0.0,1.0,0.25,0.0,0.0,0.25,0.0,0.5,0.58,1.27,3.33,392.72,-20.0,62.2
2.62,0.0,0.0,0.5,0.5,0.0,0.0,0.0,0.0,0.25,1.0,0.75,0.0,0.25,-3.86,2.7,0.52,30.43,6.2,-32.5,3.25,0.75,0.5,3.75,0.0,0.5,0.25,0.0,0.5,1.0,0.0,0.0,0.0,-0.42,0.77,2.7,255.89,-18.0,53.9
2.64,0.0,0.0,0.0,0.0,0.0,0.0,1.75,0.0,0.25,1.5,0.0,1.25,2.5,-0.05,0.14,0.95,60.99,-2.7,-81.1,0.0,0.25,1.5,3.0,1.75,1.0,0.25,0.25,0.5,1.0,0.0,0.0,0.0,0.77,0.27,1.89,144.19,-7.9,34.9
2.66,0.0,0.0,0.0,0.0,0.0,0.0,0.0,0.0,0.5,6.0,1.5,4.0,6.0,-0.8,0.39,1.45,154.85,-6.7,-93.7,0.5,0.25,1.5,2.75,1.75,1.0,0.25,0.25,0.5,1.0,0.5,0.25,0.0,0.64,-0.67,1.27,62.87,-9.0,28.7
2.68,0.0,0.0,0.0,0.0,0.0,0.0,0.0,4.5,0.5,6.75,5.25,5.0,6.5,-0.55,0.7,3.64,271.07,-5.9,-83.1,0.5,0.25,1.75,2.0,1.5,1.25,0.25,0.25,0.5,2.0,0.5,0.0,0.25,0.58,-0.86,0.39,21.94,-6.0,17.4
2.7,1.0,0.0,0.0,0.5,0.0,0.0,0.0,5.25,1.5,6.0,6.25,4.25,6.0,0.39,0.39,1.39,378.61,-3.4,-71.5,0.5,0.5,1.75,2.0,1.5,1.25,0.25,0.25,0.5,1.0,0.25,0.25,0.0,0.58,-0.48,0.64,13.89,-8.8,30.9
2.72,0.0,0.0,0.0,0.75,1.75,0.0,0.0,4.5,1.5,4.75,5.0,3.25,4.25,-0.23,-0.05,0.89,439.33,-4.0,-63.0,0.5,0.25,1.5,1.25,1.5,1.0,0.25,0.25,0.5,1.25,0.25,0.0,0.25,0.2,-0.11,-0.05,17.55,-6.6,22.5
2.74,1.25,0.0,0.0,1.25,0.0,0.25,0.25,4.5,1.5,5.0,3.25,3.25,4.25,-0.11,0.14,0.95,450.45,-2.9,-60.3,0.25,0.5,1.0,1.25,1.75,1.25,0.25,0.25,0.5,1.25,0.75,0.0,0.5,0.14,0.27,-0.3,29.99,-3.0,13.4
2.76,0.5,0.0,0.0,1.25,0.0,0.0,0.25,5.0,2.0,6.0,5.5,4.0,4.25,-0.17,0.08,0.95,458.05,-2.7,-67.1,0.5,0.5,2.0,1.25,1.5,1.0,0.25,0.25,0.5,1.25,0.25,0.25,0.5,0.08,0.39,-0.23,51.83,-7.9,19.8
2.78,0.25,0.0,0.0,1.5,0.0,0.25,0.25,5.0,1.75,5.75,6.0,4.0,4.25,-0.11,0.08,0.95,463.55,-2.8,-66.8,0.5,0.25,1.75,1.0,1.5,1.25,0.25,0.25,0.5,1.0,0.25,0.0,0.0,-0.11,0.52,-0.23,72.54,-7.7,29.7
2.8,0.0,0.0,0.0,2.5,1.75,1.5,0.5,5.25,2.5,4.75,5.5,3.0,4.0,-0.17,0.02,0.89,480.66,-2.9,-48.8,0.5,0.25,1.75,1.25,1.25,1.25,0.25,0.25,0.5,0.75,0.25,0.0,0.5,-0.3,0.7,-0.17,92.08,-7.7,24.6
2.82,1.75,0.0,1.25,2.5,2.75,2.0,0.5,5.25,2.5,4.75,5.5,3.0,2.75,-0.11,0.02,0.95,498.73,0.5,-30.9,0.0,0.0,1.5,0.5,2.25,0.0,0.0,0.25,0.0,0.0,0.75,0.0,0.0,-7.3,7.83,1.95,90.15,-11.1,35.3
2.84,2.0,0.0,1.25,2.75,3.25,2.0,0.75,5.25,2.5,4.75,5.0,2.5,2.75,-0.11,0.08,0.95,504.09,0.6,-26.0,0.5,0.5,1.75,1.0,1.25,1.25,0.5,0.0,0.5,1.0,0.5,0.0,0.5,-3.48,0.08,-7.36,110.82,-8.0,22.1
2.86,2.75,0.25,1.25,2.75,3.75,2.25,0.5,5.25,2.5,4.0,4.5,2.0,2.25,-0.17,0.08,0.95,494.31,1.4,-16.7,0.5,0.0,1.75,0.5,1.5,0.25,0.25,0.25,0.5,1.25,0.75,0.0,0.5,0.45,-0.23,0.2,116.24,-8.6,6.8
2.88,3.5,0.75,1.5,4.25,4.5,2.75,0.75,5.25,2.0,3.25,4.25,2.0,1.25,-0.11,0.02,0.95,494.07,3.4,-1.9,0.5,0.5,1.75,1.0,2.75,1.0,0.25,0.25,0.5,1.0,0.5,0.0,0.5,0.14,0.14,0.7,134.35,-6.0,25.4
2.9,4.25,1.0,1.75,4.5,5.0,3.25,0.75,5.25,2.5,2.0,3.25,1.0,1.25,-0.11,0.08,0.95,493.67,4.4,10.0,0.5,0.25,1.75,0.75,1.25,1.0,0.25,0.25,0.5,1.25,0.5,0.0,0.5,-0.36,-0.36,0.33,135.73,-6.8,13.9
2.92,5.5,1.0,2.75,6.5,6.0,4.0,1.0,5.0,2.0,1.5,2.5,1.0,0.5,-0.11,0.08,0.95,527.89,6.8,24.1,0.0,0.0,1.5,0.5,1.0,0.0,0.25,0.25,0.5,0.5,0.5,0.0,0.0,-0.67,0.14,0.52,121.47,-13.2,17.0
2.94,5.5,1.0,3.0,8.0,6.25,4.25,0.75,4.5,1.5,1.5,1.5,1.0,0.5,-0.11,0.08,0.95,569.13,7.2,30.0,0.0,0.0,0.25,0.5,0.0,0.0,0.0,0.0,0.0,0.0,0.0,0.0,0.0,-1.48,-0.92,-1.8,78.41,-24.1,58.9
2.96,6.5,1.25,3.0,8.5,7.5,4.75,0.75,4.5,1.0,1.5,1.25,0.75,0.5,-0.11,0.14,1.02,625.25,7.2,35.3,0.0,0.0,0.5,0.5,0.0,0.0,0.0,0.0,0.0,0.0,0.0,0.0,0.0,0.08,1.08,1.14,40.3,-27.6,59.4
2.98,7.25,1.5,3.25,9.0,7.75,4.75,0.5,3.5,0.75,1.5,0.75,0.25,0.75,-0.11,0.14,1.02,659.12,8.2,41.6,0.5,0.25,0.5,0.5,0.0,1.25,0.0,0.0,0.5,0.0,0.0,0.0,0.0,-0.61,0.52,0.2,24.29,-7.9,44.8
3.0,7.25,2.0,3.25,9.25,8.0,4.75,0.25,3.25,0.5,1.0,0.75,0.25,0.5,-0.11,0.14,1.2,679.6,8.7,45.8,0.5,0.0,1.25,0.75,1.25,1.0,0.25,0.25,0.5,1.25,0.5,0.0,0.5,-0.48,0.58,0.83,49.24,-4.5,8.2
3.02,7.5,1.5,3.5,9.25,8.25,4.5,0.0,2.75,0.0,1.0,0.75,0.0,0.25,-0.17,0.2,1.14,679.43,9.4,49.7,0.5,0.25,1.5,0.75,1.5,1.25,0.25,0.25,0.5,1.0,0.25,0.0,0.5,-0.98,0.83,0.52,84.17,-5.2,19.5
3.04,7.25,2.5,3.0,8.5,8.25,3.75,0.0,2.5,0.0,0.5,0.25,0.0,0.25,-0.17,0.27,1.08,657.38,9.9,54.6,0.5,0.0,0.75,0.75,1.5,1.25,0.25,0.25,0.5,1.0,0.25,0.0,0.5,-1.17,1.2,0.27,106.9,-1.6,12.6
3.06,0.0,3.25,0.0,9.75,8.25,3.0,0.0,1.75,0.25,0.5,0.75,0.0,0.25,-0.11,0.27,1.08,572.3,3.1,45.2,0.5,0.25,1.75,0.75,1.25,1.0,0.25,0.25,0.5,1.0,0.25,0.25,0.5,-0.86,1.08,0.08,122.5,-7.4,15.5
3.08,7.75,4.0,2.0,9.0,8.0,2.0,0.0,1.75,0.0,0.5,0.75,0.0,0.25,-0.11,0.27,1.08,553.46,11.8,57.9,0.5,0.5,1.75,0.75,1.25,1.0,0.25,0.25,0.5,1.0,0.25,0.0,0.5,-0.8,0.64,0.45,127.45,-7.5,21.6
3.1,7.5,4.0,1.5,9.0,7.75,1.25,0.0,1.5,0.0,0.5,0.75,0.0,0.25,-0.17,0.33,1.14,528.56,12.2,58.8,0.5,0.25,1.75,0.75,1.5,1.0,0.25,0.25,0.5,1.0,0.25,0.0,0.5,-2.05,1.33,-0.3,133.79,-7.0,20.4
3.12,7.75,4.0,0.5,8.0,7.75,0.0,0.0,0.0,0.0,0.25,0.75,0.0,0.25,-0.05,0.33,1.2,499.16,14.4,66.0,0.5,0.25,1.5,0.75,1.25,1.0,0.25,0.25,0.5,1.25,0.25,0.0,0.5,-3.55,3.89,3.2,136.3,-5.7,15.1
3.14,7.75,4.0,0.5,7.0,0.0,0.0,0.0,0.0,0.0,0.0,0.0,0.0,0.25,-0.05,0.33,1.27,400.53,22.9,79.3,0.5,0.25,1.75,0.75,1.25,1.0,0.25,0.25,0.5,1.0,0.25,0.0,0.5,-1.55,0.45,0.77,142.31,-7.3,19.2
3.16,7.75,4.0,1.0,6.25,0.0,0.0,0.0,0.0,0.0,0.5,0.0,0.0,0.25,-0.42,0.58,1.33,331.01,22.6,75.7,0.5,0.0,1.75,0.75,1.25,1.0,0.25,0.25,0.5,1.25,0.25,0.0,0.5,-0.36,0.83,0.52,144.45,-6.5,13.9
3.18,7.25,4.0,0.0,4.5,0.0,0.0,0.0,0.0,0.0,0.5,0.0,0.0,0.25,-0.61,0.83,1.58,264.19,21.9,78.0,0.25,0.25,1.75,0.75,1.25,0.75,0.25,0.25,0.5,1.25,0.5,0.5,0.5,-0.55,0.58,-0.23,145.45,-6.9,4.2
3.2,0.0,2.5,1.0,3.75,0.0,0.0,0.0,0.0,0.0,0.5,0.25,0.0,0.25,-0.8,0.83,1.45,186.55,15.3,54.0,0.5,0.25,1.25,0.75,1.25,1.0,0.25,0.25,0.5,0.75,0.25,0.0,0.5,1.08,0.45,-0.61,136.96,-6.0,19.5
3.22,6.5,1.5,0.0,2.75,0.0,0.0,0.0,0.0,0.0,0.25,0.0,0.0,0.25,1.7,2.64,3.39,139.74,24.8,78.7,0.0,0.25,0.5,0.25,1.25,0.0,0.25,0.25,0.0,0.0,0.25,0.0,0.5,2.89,-0.3,-0.98,107.95,-4.9,18.9
3.24,5.5,1.0,0.25,2.5,0.0,0.0,0.0,0.0,0.0,0.5,0.0,0.0,0.25,0.45,0.77,-0.61,104.42,24.1,72.0,0.5,0.25,1.0,0.75,1.25,0.5,0.25,0.25,0.5,1.0,0.25,0.0,0.5,3.77,-0.67,-1.92,98.38,-6.0,13.7
3.26,2.25,0.75,1.0,1.25,0.0,0.0,0.0,0.0,0.0,0.0,0.0,0.0,0.25,-3.73,2.02,-0.36,67.12,25.8,71.7,0.5,0.25,1.0,0.75,1.5,1.0,0.25,0.25,0.5,1.0,0.25,0.0,0.5,-2.92,-6.42,-0.11,98.91,-3.9,16.4
3.28,0.0,0.0,1.0,0.0,0.0,0.0,0.0,0.0,0.0,0.0,0.0,0.0,0.0,-0.92,-0.67,-0.8,11.49,38.2,60.9,0.5,0.25,0.5,0.75,1.5,1.0,0.25,0.25,0.25,0.75,0.25,0.0,0.5,-2.98,-2.67,-3.3,103.08,-1.7,18.4
3.3,0.0,0.0,0.25,0.0,0.0,0.0,0.0,0.0,0.0,0.0,0.0,0.0,0.0,-0.3,1.89,-0.98,0.0,38.2,60.9,0.5,0.25,0.75,0.75,1.25,1.0,0.25,0.25,0.5,0.0,0.25,0.25,0.5,-6.3,-1.36,4.7,102.89,-6.0,22.2
3.32,0.0,0.0,0.0,0.5,0.0,0.0,0.0,0.0,0.0,0.0,0.25,0.0,0.0,-0.8,0.77,0.7,0.0,15.1,15.7,0.5,0.25,1.25,0.5,1.25,1.0,0.25,0.25,0.25,0.75,0.25,0.0,0.25,-2.55,0.58,0.77,104.45,-6.1,25.1
3.34,0.5,0.0,0.0,0.5,0.0,0.0,0.0,0.0,0.0,0.25,0.25,0.0,0.0,-0.36,0.7,0.45,0.0,16.2,26.2,0.5,0.25,1.25,0.75,1.25,1.0,0.25,0.25,0.25,1.0,0.25,0.0,0.5,-0.05,0.02,0.58,107.15,-5.0,18.3
3.36,0.0,0.0,1.0,0.0,0.0,0.0,0.0,0.0,0.0,0.0,0.0,0.0,0.0,-0.42,0.2,0.77,0.0,38.2,60.9,0.25,0.0,1.25,0.75,1.5,1.0,0.25,0.25,0.5,1.0,0.25,0.0,0.5,-0.42,0.02,1.14,110.45,-3.8,12.6
3.38,0.0,0.0,0.0,0.0,0.0,0.0,1.5,1.25,0.75,0.0,0.0,0.0,0.0,-0.42,-0.98,0.58,0.0,4.1,-21.1,0.5,0.25,0.5,0.75,1.5,0.75,0.25,0.25,0.5,1.0,0.25,0.0,0.5,-0.98,0.7,0.7,112.53,-2.3,12.6
3.4,0.0,0.0,0.0,0.0,0.0,0.0,0.0,2.75,0.5,0.0,0.0,0.0,0.0,-0.73,-0.73,0.89,0.0,-12.3,-38.7,0.5,0.25,1.75,1.0,1.75,1.0,0.0,0.25,0.25,0.75,0.25,0.0,0.5,-1.05,1.02,1.2,121.36,-7.1,27.1
3.42,0.0,0.0,0.0,0.0,0.0,0.0,1.75,2.5,0.75,0.0,0.0,0.0,0.0,-0.67,-0.73,0.45,15.46,-1.4,-25.1,0.25,0.25,1.25,0.5,1.25,1.25,0.25,0.25,0.25,1.0,0.25,0.0,0.5,-0.92,1.77,1.58,121.46,-2.8,14.8
3.44,0.0,0.0,0.0,0.0,0.0,0.0,0.0,0.0,2.0,0.0,0.0,0.5,0.0,-1.23,0.89,-0.42,28.45,11.5,-52.9,0.5,0.25,1.0,0.75,1.25,0.75,0.25,0.25,0.5,0.75,0.25,0.0,0.5,-0.48,1.7,1.27,121.56,-5.8,17.5
3.46,0.0,0.0,0.0,0.5,0.0,0.0,0.0,0.0,0.0,0.5,0.0,0.0,0.0,-1.17,1.08,-0.11,23.34,1.1,-7.2,0.5,0.0,1.0,0.75,1.25,0.75,0.25,0.25,0.5,1.25,0.25,0.0,0.5,-0.17,1.08,0.95,119.18,-4.0,8.3
3.48,0.25,0.0,0.0,0.5,0.0,0.0,0.0,0.0,0.0,0.5,0.0,0.0,0.0,-1.05,0.7,-0.23,21.49,7.4,12.2,0.5,0.25,1.25,0.75,1.25,1.0,0.25,0.25,0.25,0.0,0.25,0.25,0.5,0.14,0.7,0.58,113.23,-8.2,27.4
3.5,1.0,0.0,0.0,0.5,0.0,0.0,0.0,0.0,0.0,0.5,0.0,0.0,0.0,-0.98,0.33,0.27,26.38,17.2,42.8,0.5,0.25,1.0,0.75,1.25,1.0,0.25,0.25,0.5,1.0,0.25,0.0,0.5,-0.61,-2.17,-1.42,113.42,-4.1,15.0
3.52,1.0,0.0,0.0,0.5,0.0,0.0,0.0,0.0,0.0,0.5,0.25,0.0,0.0,-2.3,0.14,0.58,32.63,16.5,29.8,0.5,0.25,1.75,0.75,1.25,1.0,0.25,0.25,0.5,0.5,0.25,0.0,0.5,-2.48,-3.73,0.27,117.74,-8.8,25.3
3.54,1.0,0.0,0.0,0.5,0.0,0.0,0.0,0.0,0.25,0.25,0.0,0.0,0.0,-1.61,0.58,0.58,34.96,20.8,47.7,0.5,0.0,0.75,0.75,1.25,0.75,0.25,0.25,0.25,1.0,0.25,0.0,0.5,-1.8,-1.48,1.7,114.25,-3.2,11.2
3.56,1.0,0.0,0.0,0.5,0.0,0.0,0.0,0.0,0.25,0.25,0.0,0.0,0.0,-0.55,0.14,-0.61,35.48,20.8,47.7,0.5,0.25,1.25,0.75,2.25,0.5,0.25,0.25,0.5,1.0,0.25,0.0,0.5,-0.92,0.2,0.02,119.67,-5.7,20.5
3.58,0.75,0.0,0.0,0.5,0.0,0.0,0.0,0.0,0.25,0.5,0.25,0.0,0.0,-0.17,0.89,-0.3,35.05,14.1,15.0,0.5,0.25,1.75,0.75,1.5,0.75,0.25,0.25,0.25,1.0,0.25,0.0,0.25,-0.73,-0.05,0.45,121.2,-8.4,26.1
3.6,0.0,0.0,0.0,0.5,0.0,0.0,0.0,0.0,0.25,0.25,0.0,0.0,0.0,0.2,1.2,0.27,27.73,7.9,1.8,0.25,0.0,1.25,0.75,1.25,0.75,0.25,0.25,0.25,1.0,0.25,0.0,0.5,-0.61,0.58,0.27,118.8,-4.7,12.0
3.62,0.0,0.0,0.0,0.5,0.0,0.0,0.0,0.0,0.25,0.0,0.0,0.0,0.25,0.64,1.08,0.33,20.58,8.2,-7.2,0.0,0.0,1.0,0.75,1.25,1.0,0.25,0.25,0.5,1.0,0.25,0.0,0.5,-0.67,0.64,0.64,113.32,-1.7,6.1
3.64,0.0,0.0,0.0,0.5,0.0,0.0,0.0,0.0,0.25,0.25,0.0,0.0,0.25,0.52,0.77,-0.55,16.57,3.5,-20.6,0.5,0.0,1.0,0.75,1.5,1.0,0.25,0.25,0.25,0.75,0.5,0.0,0.5,-0.98,0.33,0.95,111.51,-4.2,15.4
3.66,0.0,0.0,0.0,0.5,0.0,0.0,0.0,0.0,0.25,0.5,0.0,0.0,0.0,-0.42,0.95,-0.48,15.92,3.2,-13.3,0.5,0.25,0.5,0.75,1.75,1.0,0.25,0.25,0.25,0.5,0.25,0.0,0.5,-1.23,0.39,0.83,110.15,-2.1,23.3
3.68,0.25,0.0,0.0,0.5,0.0,0.0,0.0,0.0,0.5,0.5,0.0,0.0,0.0,-0.92,0.89,-0.55,20.22,8.7,-2.0,0.0,0.0,0.5,0.75,1.25,0.75,0.25,0.25,0.5,1.0,0.25,0.0,0.5,-1.23,0.14,0.64,104.11,0.3,0.4
3.7,0.25,0.0,0.0,0.75,0.0,0.0,0.0,0.0,0.25,0.5,0.0,0.0,0.0,-0.61,0.39,-0.55,24.37,9.5,11.9,0.5,0.25,0.5,0.5,1.25,0.75,0.25,0.25,0.25,1.0,0.25,0.0,0.5,-1.23,0.02,0.64,100.39,-1.5,10.8
3.72,0.25,0.0,0.0,0.5,0.0,0.0,0.0,0.0,0.25,0.5,0.0,0.0,0.0,-1.3,0.02,-0.48,24.8,8.1,3.9,0.5,0.0,1.5,0.75,1.0,0.5,0.25,0.25,0.5,0.75,0.25,0.0,0.25,-1.05,0.2,0.52,98.59,-10.3,20.6
3.74,0.0,0.0,0.0,0.5,0.0,0.0,0.0,0.0,0.25,0.25,0.0,0.0,0.0,-2.48,-0.05,-0.61,21.19,7.9,1.8,0.5,0.0,0.0,0.5,1.5,0.5,0.25,0.25,0.25,0.75,0.25,0.0,0.5,-0.86,-0.11,0.52,91.21,0.8,7.0
3.76,0.0,0.0,0.0,0.5,0.0,0.0,0.0,0.0,0.5,0.5,0.0,0.0,0.0,-2.92,-0.05,-0.92,20.8,4.7,-17.4,0.5,0.0,1.25,0.75,1.25,0.75,0.25,0.25,0.25,0.75,0.25,0.0,0.5,-0.61,-0.42,0.33,94.27,-6.5,18.1
3.78,0.0,0.0,0.0,0.5,0.0,0.0,0.0,0.0,0.25,0.5,0.0,0.0,0.25,-2.11,0.27,-0.67,20.83,0.4,-29.6,0.25,0.0,0.25,0.5,1.75,0.5,0.25,0.0,0.5,1.25,0.25,0.0,0.5,-0.61,-0.61,0.39,93.33,0.7,1.3
3.8,1.0,0.0,0.0,0.5,0.0,0.0,0.0,0.0,0.25,0.25,0.25,0.0,0.0,-1.42,0.39,-0.17,26.78,19.7,34.1,0.0,0.25,0.25,0.75,1.25,1.0,0.25,0.25,0.25,1.0,0.25,0.0,0.5,-0.61,-0.48,0.45,92.7,2.8,4.9
3.82,0.75,0.0,0.0,0.5,0.0,0.0,0.0,0.0,0.25,0.25,0.0,0.0,0.0,-0.67,0.39,-0.05,29.68,18.9,40.9,0.5,0.0,1.5,0.75,1.5,0.5,0.25,0.25,0.25,1.0,0.25,0.0,0.5,-0.61,-0.42,0.52,99.61,-7.4,17.3
3.84,0.0,0.0,0.0,0.5,0.0,0.0,0.0,0.0,0.25,0.25,0.0,0.0,0.0,-0.36,0.39,0.08,28.14,7.9,1.8,0.5,0.0,0.5,0.5,1.0,0.5,0.0,0.25,0.5,0.5,0.25,0.25,0.5,-0.67,-0.42,0.58,96.49,-4.1,3.1
3.86,0.0,0.0,0.0,0.5,0.0,0.0,0.0,0.0,0.25,0.0,0.0,0.0,0.0,-0.17,0.39,0.14,22.01,15.5,27.0,0.5,0.0,0.75,0.5,1.25,0.75,0.25,0.25,0.25,0.75,0.25,0.25,0.5,-0.67,-0.42,0.58,96.69,-3.5,7.9
3.88,0.0,0.0,0.0,0.5,0.0,0.0,0.0,0.0,0.25,0.5,0.0,0.0,0.0,-0.3,0.33,0.27,18.81,3.2,-13.3,0.25,0.0,0.75,0.5,1.25,0.75,0.25,0.25,0.25,1.0,0.25,0.0,0.5,-0.73,-0.42,0.58,93.7,-1.3,5.8
3.9,0.0,0.0,0.0,0.5,0.0,0.0,0.0,0.0,0.25,0.0,0.0,0.0,0.0,-0.48,0.33,0.33,14.89,15.5,27.0,0.5,0.25,1.25,0.75,1.5,0.75,0.25,0.25,0.25,0.75,0.25,0.0,0.5,-0.8,-0.3,0.64,102.43,-6.3,22.3
3.92,0.0,0.0,0.0,0.5,0.0,0.0,0.0,0.0,0.25,0.5,0.0,0.0,0.0,-0.61,0.27,0.27,15.42,3.2,-13.3,0.5,0.25,0.5,0.5,1.5,0.75,0.25,0.25,0.25,0.25,0.25,0.25,0.5,-0.86,-0.23,0.64,101.84,-3.7,18.5
3.94,0.0,0.0,0.0,1.0,0.0,0.0,0.0,0.0,0.25,0.5,0.0,0.0,0.25,-1.11,0.14,-0.05,21.06,4.7,-7.2,0.25,0.0,0.75,0.5,1.25,0.75,0.25,0.25,0.5,1.0,0.25,0.0,0.5,-0.98,-0.17,0.7,102.69,-1.7,4.1
3.96,0.0,0.0,0.0,0.5,0.0,0.0,0.0,0.0,0.25,0.5,0.5,0.0,1.0,-1.55,0.2,-0.3,31.68,-1.6,-59.8,0.25,0.0,0.5,0.75,1.25,0.5,0.25,0.25,0.25,0.75,0.25,0.25,0.5,-0.98,-0.17,0.7,97.78,-2.4,3.1
3.98,0.0,0.0,0.0,0.5,0.0,0.0,0.0,0.0,0.25,0.5,0.0,0.0,0.0,-1.73,0.2,-0.3,31.09,3.2,-13.3,0.5,0.25,0.75,0.75,1.25,0.75,0.25,0.25,0.25,1.0,0.25,0.0,0.5,-0.92,-0.17,0.7,100.27,-3.5,14.5
4.0,0.0,0.0,0.0,0.5,0.0,0.0,0.0,0.0,0.25,0.5,0.25,0.0,0.5,-1.55,0.14,-0.17,33.0,-0.1,-45.2,0.5,0.0,1.25,0.75,1.5,0.5,0.25,0.25,0.25,0.75,0.25,0.0,0.5,-0.86,-0.11,0.58,101.89,-7.1,19.1
4.02,0.25,0.0,0.0,0.5,0.0,0.0,0.0,1.0,0.25,0.5,0.25,0.0,0.25,-1.23,0.14,0.02,36.89,-1.7,-26.4,0.5,0.25,0.5,0.5,1.75,0.25,0.0,0.25,0.25,1.0,0.25,0.0,0.5,-0.86,-0.11,0.58,103.47,-2.3,12.7
4.04,0.0,0.0,0.0,0.75,0.0,0.0,0.0,1.5,0.25,0.25,0.5,0.0,0.25,-0.98,0.2,0.08,44.87,-3.0,-30.0,0.25,0.0,0.75,0.75,1.25,0.5,0.25,0.25,0.25,0.75,0.25,0.25,0.5,-0.86,-0.17,0.58,101.17,-4.0,5.6
4.06,0.0,0.0,0.0,0.5,0.0,0.0,0.0,1.5,0.25,0.5,0.0,0.0,0.25,-0.86,0.27,0.02,50.02,-8.1,-34.1,0.5,0.0,0.5,0.5,1.25,0.5,0.25,0.25,0.25,0.75,0.25,0.0,0.5,-0.98,-0.17,0.58,95.26,-2.8,9.6
4.08,0.25,0.0,0.0,0.5,0.0,0.0,0.0,1.5,0.25,0.25,0.25,0.0,0.25,-0.8,0.33,0.02,54.7,-3.0,-24.5,0.5,0.0,0.75,0.5,1.25,0.25,0.25,0.25,0.25,0.5,0.25,0.0,0.5,-0.98,-0.23,0.64,90.45,-6.6,15.0
4.1,0.0,0.0,0.0,0.5,0.0,0.0,0.0,1.5,0.25,0.25,0.0,0.0,0.25,-0.73,0.27,0.02,52.98,-7.4,-30.4,0.5,0.25,0.5,0.5,1.0,0.5,0.25,0.25,0.25,0.5,0.25,0.0,0.5,-0.92,-0.23,0.64,84.77,-4.5,15.6
4.12,0.25,0.0,0.0,0.5,0.0,0.0,0.0,1.5,0.25,0.25,0.5,0.0,0.25,-0.8,0.2,0.02,53.76,-2.0,-28.1,0.5,0.25,0.5,0.5,1.25,0.5,0.25,0.25,0.25,0.25,0.25,0.0,0.5,-0.8,-0.23,0.58,82.82,-5.0,22.0
4.14,0.25,0.0,0.0,0.5,0.0,0.0,0.0,1.5,0.25,0.25,0.5,0.0,0.25,-0.92,0.08,-0.05,54.64,-2.0,-28.1,0.25,0.0,0.5,0.5,1.25,0.5,0.25,0.25,0.25,1.0,0.25,0.25,0.5,-0.67,-0.23,0.58,83.1,-1.0,-2.6
4.16,0.25,0.0,0.0,0.5,0.0,0.0,0.0,1.5,0.25,0.5,0.5,0.0,0.0,-1.05,0.02,-0.11,55.84,-2.1,-25.4,0.5,0.25,1.0,0.75,1.25,0.25,0.25,0.25,0.25,1.0,0.25,0.0,0.5,-0.61,-0.3,0.58,90.53,-6.8,14.9
4.18,0.25,0.0,0.0,0.5,0.0,0.0,0.0,1.5,0.25,0.5,0.5,0.0,0.0,-1.11,0.02,-0.17,55.85,-2.1,-25.4,0.5,0.0,0.5,0.5,0.5,0.25,0.25,0.25,0.25,1.25,0.25,0.25,0.5,-0.67,-0.3,0.64,87.76,-3.5,-12.7
4.2,0.0,0.0,0.0,0.25,0.0,0.0,0.0,1.5,0.25,0.5,0.5,0.0,0.0,-1.11,0.08,-0.17,54.1,-6.7,-42.3,0.25,0.25,0.5,0.75,1.25,0.5,0.25,0.25,0.25,0.25,0.25,0.25,0.5,-0.67,-0.36,0.7,87.97,-4.5,14.6
4.22,0.0,0.0,0.0,0.5,0.0,0.0,0.0,1.5,0.25,0.5,0.0,0.0,0.25,-1.11,0.08,-0.17,52.42,-8.1,-34.1,0.5,0.25,0.5,0.75,1.25,0.5,0.25,0.25,0.25,0.75,0.25,0.0,0.5,-0.73,-0.36,0.7,88.26,-3.9,15.5
4.24,0.0,0.0,0.0,0.5,0.0,0.0,0.0,1.5,0.25,0.25,0.5,0.0,0.25,-0.98,0.14,-0.17,50.42,-4.7,-37.1,0.5,0.0,1.0,0.5,1.25,0.5,0.25,0.25,0.25,0.5,0.25,0.0,0.5,-0.73,-0.36,0.77,90.45,-6.8,17.8
4.26,0.0,0.0,0.0,0.5,0.0,0.0,0.0,1.5,0.25,0.5,0.25,0.0,0.5,-0.92,0.14,-0.17,51.56,-7.2,-42.5,0.5,0.25,0.5,0.75,1.5,0.25,0.25,0.25,0.0,0.0,0.25,0.0,0.25,-0.73,-0.36,0.83,88.2,-8.3,40.2
4.28,0.0,0.0,0.0,0.0,0.0,0.0,0.0,1.5,0.25,0.5,0.5,0.0,0.25,-0.92,0.14,-0.17,51.31,-9.4,-57.0,0.5,0.25,0.5,0.5,1.25,0.5,0.25,0.25,0.25,0.5,0.25,0.25,0.5,-0.67,-0.36,0.89,89.63,-4.3,12.1
4.3,0.0,0.0,0.0,0.5,0.0,0.0,0.0,0.0,0.25,0.5,0.0,0.0,0.25,-0.92,0.14,-0.11,42.62,0.4,-29.6,0.5,0.25,0.5,0.5,1.25,0.0,0.25,0.25,0.25,0.5,0.25,0.25,0.5,-0.73,-0.36,0.89,87.57,-6.7,10.2
4.32,0.0,0.0,0.0,1.0,0.0,0.0,0.0,1.5,0.25,0.5,0.5,0.0,0.25,-0.98,0.14,-0.17,46.22,-2.5,-27.1,0.25,0.0,0.5,0.5,1.25,0.25,0.25,0.25,0.25,0.5,0.25,0.25,0.25,-0.73,-0.36,0.83,83.36,-4.7,8.8
4.34,0.0,0.0,0.0,0.5,0.0,0.0,0.0,1.5,0.25,0.25,1.0,0.0,0.25,-1.05,0.08,-0.11,49.26,-2.7,-42.0,0.5,0.0,1.0,0.75,1.25,0.25,0.25,0.25,0.25,0.5,0.25,0.0,0.25,-0.73,-0.36,0.77,83.96,-9.5,24.9
4.36,0.0,0.0,0.0,0.5,0.0,0.0,0.0,1.5,0.25,0.5,0.75,0.0,0.25,-1.05,0.02,-0.17,54.96,-4.4,-42.1,0.25,0.0,0.5,0.5,1.5,0.25,0.25,0.25,0.25,1.0,0.25,0.25,0.5,-0.67,-0.36,0.77,85.64,-1.7,-1.3
4.38,0.0,0.0,0.0,0.5,0.0,0.0,0.0,1.5,0.25,0.5,0.5,0.0,0.25,-0.98,0.02,-0.17,56.8,-5.5,-39.8,0.25,0.25,0.5,0.5,1.25,0.25,0.25,0.25,0.0,0.75,0.25,0.25,0.25,-0.61,-0.36,0.77,84.29,-3.7,11.5
4.4,0.0,0.0,0.0,0.75,0.0,0.0,0.0,1.5,0.25,0.25,0.5,0.0,0.25,-0.98,0.08,-0.17,57.7,-3.0,-30.0,0.25,0.25,0.5,0.5,1.25,0.0,0.25,0.25,0.0,0.75,0.25,0.25,0.5,-0.55,-0.36,0.77,82.32,-4.1,4.3
4.42,0.0,0.0,0.0,0.5,0.0,0.0,0.0,1.5,0.0,0.5,0.5,0.0,0.25,-0.98,0.08,-0.17,55.18,-6.8,-39.9,0.5,0.25,0.5,0.75,1.25,0.0,0.25,0.25,0.25,0.75,0.25,0.0,0.5,-0.55,-0.42,0.77,84.35,-6.1,13.9
4.44,0.0,0.0,0.0,0.5,0.0,0.0,0.0,1.5,0.25,0.25,0.25,0.0,0.25,-0.98,0.08,-0.17,52.01,-5.9,-34.0,0.5,0.25,0.5,0.75,1.25,0.25,0.25,0.25,0.25,0.75,0.25,0.0,0.5,-0.55,-0.42,0.77,86.17,-4.9,14.7
4.46,0.0,0.0,0.0,0.5,0.0,0.0,0.0,1.5,0.25,0.5,0.5,0.0,0.25,-0.98,0.08,-0.17,52.54,-5.5,-39.8,0.25,0.25,1.25,0.5,1.5,0.5,0.25,0.25,0.0,0.5,0.25,0.25,0.5,-0.55,-0.48,0.77,92.27,-6.6,18.7
4.48,0.0,0.0,0.0,0.5,0.0,0.0,0.0,1.5,0.25,0.25,0.5,0.0,0.25,-0.98,0.08,-0.11,51.73,-4.7,-37.1,0.5,0.25,1.0,0.75,1.25,0.25,0.25,0.25,0.0,0.5,0.25,0.25,0.5,-0.55,-0.48,0.77,96.75,-8.5,19.4
4.5,0.0,0.0,0.0,0.5,0.0,0.0,0.0,1.5,0.25,0.25,0.0,0.0,0.25,-1.05,0.08,-0.11,49.12,-7.4,-30.4,0.5,0.25,0.5,0.5,1.25,0.5,0.25,0.25,0.25,0.5,0.25,0.5,0.25,-0.55,-0.48,0.77,97.7,-5.3,12.3
4.52,0.0,0.0,0.0,0.5,0.0,0.0,0.0,1.5,0.25,0.5,0.5,0.0,0.25,-0.98,0.08,-0.11,50.66,-5.5,-39.8,0.5,0.0,0.5,0.5,1.25,0.0,0.25,0.25,0.25,0.5,0.25,0.0,0.5,-0.55,-0.42,0.77,90.77,-6.3,11.6
4.54,0.0,0.0,0.0,0.5,0.0,0.0,0.0,1.5,0.25,0.25,0.5,0.0,0.5,-0.98,0.08,-0.11,52.21,-5.3,-42.4,0.5,0.0,0.5,0.5,1.25,0.25,0.25,0.25,0.25,0.5,0.25,0.0,0.5,-0.55,-0.42,0.77,86.12,-4.9,12.7
4.56,0.0,0.0,0.0,0.5,0.0,0.0,0.0,0.0,0.25,0.25,0.5,0.0,0.25,-0.98,0.08,-0.11,42.9,5.5,-35.6,0.0,0.25,1.25,0.75,1.5,0.25,0.25,0.25,0.25,1.0,0.25,0.25,0.5,-0.48,-0.42,0.77,91.37,-5.7,8.2
4.58,0.0,0.0,0.0,0.5,0.0,0.0,0.0,0.75,0.25,0.5,0.5,0.0,0.25,-1.05,0.08,-0.11,41.14,-2.4,-40.1,0.5,0.25,0.5,0.75,1.25,0.5,0.25,0.25,0.25,0.0,0.25,0.0,0.5,-0.48,-0.48,0.77,90.63,-6.6,28.3
4.6,0.0,0.0,0.0,0.5,0.0,0.0,0.0,1.5,0.25,0.25,0.0,0.0,0.25,-1.05,0.02,-0.11,39.03,-7.4,-30.4,0.5,0.0,0.5,0.5,1.25,0.0,0.25,0.25,0.25,0.75,0.25,0.0,0.5,-0.42,-0.48,0.77,89.25,-5.2,7.3
4.62,0.0,0.0,0.0,0.25,0.0,0.0,0.0,1.5,0.25,0.25,0.0,0.0,0.25,-0.98,0.02,-0.11,38.68,-9.9,-39.6,0.5,0.0,0.25,0.75,1.25,0.25,0.25,0.25,0.25,0.5,0.25,0.0,0.5,-0.42,-0.48,0.77,85.31,-3.9,12.6
4.64,0.0,0.0,0.0,0.5,0.0,0.0,0.0,1.5,0.25,0.25,0.0,0.0,0.25,-0.98,0.02,-0.11,38.98,-7.4,-30.4,0.5,0.0,1.25,0.5,1.25,0.0,0.25,0.25,0.0,1.25,0.25,0.0,0.25,-0.42,-0.48,0.77,85.87,-8.3,14.4
4.66,0.0,0.0,0.0,0.5,0.0,0.0,0.0,1.5,0.25,0.0,0.25,0.0,0.25,-0.98,0.02,-0.11,40.38,-5.0,-30.2,0.5,0.0,0.75,0.5,1.5,0.25,0.25,0.25,0.0,0.5,0.25,0.0,0.25,-0.48,-0.48,0.77,83.13,-6.7,26.1
4.68,0.0,0.0,0.0,0.5,0.0,0.0,0.0,1.5,0.25,0.25,0.25,0.0,0.25,-0.98,0.02,-0.11,42.22,-5.9,-34.0,0.5,0.0,0.25,0.5,1.25,0.0,0.25,0.0,0.0,0.75,0.25,0.0,0.5,-0.48,-0.48,0.77,78.26,-4.1,9.4
4.7,0.0,0.0,0.0,0.5,0.0,0.0,0.0,1.25,0.25,0.5,0.25,0.0,0.25,-1.05,0.02,-0.11,43.57,-5.8,-37.0,0.25,0.0,0.25,0.75,1.25,0.25,0.25,0.0,0.0,0.75,0.25,0.0,0.5,-0.48,-0.48,0.77,74.28,-1.9,9.0
4.72,0.75,0.0,0.0,0.25,0.0,0.0,0.0,1.5,0.25,0.25,0.5,0.0,0.25,-1.05,0.02,-0.11,49.25,1.2,-18.2,0.5,0.0,0.25,0.75,0.5,0.0,0.25,0.0,0.0,0.5,0.25,0.0,0.5,-0.42,-0.48,0.77,65.23,-8.4,8.2
4.74,0.0,0.0,0.0,0.5,0.0,0.0,0.0,1.25,0.25,0.5,0.25,0.0,0.25,-1.05,0.02,-0.11,50.11,-5.8,-37.0,0.5,0.0,0.5,0.5,1.75,0.0,0.25,0.0,0.0,0.5,0.25,0.0,0.5,-0.48,-0.48,0.77,66.82,-6.1,21.7
4.76,0.0,0.0,0.0,0.75,0.0,0.0,0.0,1.5,0.25,0.25,0.25,0.0,0.25,-0.98,0.02,-0.11,51.06,-4.1,-26.7,0.5,0.0,0.75,0.5,0.5,0.0,0.0,0.0,0.0,1.0,0.25,0.0,0.5,-0.42,-0.48,0.77,64.09,-8.0,0.9
4.78,0.0,0.0,0.0,0.5,0.0,0.0,0.0,1.5,0.25,0.0,0.0,0.0,0.25,-0.98,0.02,-0.11,47.43,-6.6,-25.9,0.5,0.25,0.25,0.75,1.5,0.0,0.0,0.0,0.0,1.0,0.5,0.0,0.5,-0.42,-0.48,0.83,71.45,-3.5,10.3
4.8,0.0,0.0,0.0,0.5,0.0,0.0,0.0,1.5,0.25,0.0,0.0,0.0,0.25,-0.98,0.02,-0.11,44.82,-6.6,-25.9,0.5,0.0,0.25,0.5,1.0,0.0,0.0,0.0,0.0,0.5,0.75,0.0,0.75,-0.42,-0.48,0.83,69.52,-4.7,-5.3
4.82,0.25,0.0,0.0,0.5,0.0,0.0,0.0,0.75,0.25,0.0,0.5,0.0,0.5,-0.98,0.02,-0.11,41.47,2.0,-28.5,1.0,0.25,0.25,0.75,1.25,0.0,0.25,0.0,0.0,0.75,0.25,0.0,0.75,-0.42,-0.48,0.83,78.39,-6.9,17.7
4.84,0.0,0.0,0.0,0.5,0.0,0.0,0.0,1.25,0.25,0.25,0.0,0.0,0.25,-1.05,0.02,-0.11,39.97,-6.4,-29.6,0.25,0.5,0.25,0.5,1.25,0.0,0.25,0.0,0.0,0.5,0.25,0.0,0.5,-0.42,-0.55,0.83,75.76,-4.6,20.2
4.86,0.0,0.0,0.0,0.5,0.0,0.0,0.0,1.25,0.25,0.0,0.0,0.0,0.25,-1.05,0.02,-0.11,37.66,-5.4,-24.5,0.0,0.25,0.25,0.75,1.25,0.0,0.25,0.0,0.0,0.5,0.25,0.0,0.5,-0.42,-0.48,0.83,73.42,-3.2,13.2
4.88,0.0,0.0,0.0,0.5,0.0,0.0,0.0,0.5,0.25,0.0,0.0,0.0,0.25,-0.98,0.02,-0.11,31.53,0.0,-17.5,0.5,0.75,0.25,1.0,1.25,0.25,0.0,0.0,0.0,0.5,0.25,0.0,0.25,-0.42,-0.48,0.77,75.78,-6.6,38.2
4.9,0.0,0.0,0.0,0.5,0.0,0.0,0.0,0.25,0.25,0.0,0.0,0.0,0.25,-0.98,0.02,-0.11,24.9,3.3,-13.4,0.25,0.25,0.25,1.5,1.25,0.0,0.25,0.0,0.0,0.5,0.25,0.0,0.25,-0.36,-0.55,0.77,78.76,-7.9,30.9
4.92,0.25,0.0,0.0,0.5,0.0,0.0,0.0,0.25,0.25,0.0,0.0,0.0,0.25,-0.98,0.02,-0.17,20.58,8.2,3.7,0.5,0.25,0.25,0.75,1.25,0.25,0.25,0.0,0.0,0.75,0.25,0.0,0.25,-0.36,-0.48,0.77,80.99,-4.9,24.4
4.94,0.0,0.0,0.0,0.25,0.0,0.0,0.0,0.0,0.25,0.0,0.0,0.0,0.25,-0.98,0.02,-0.17,14.5,5.2,-29.5,0.5,0.0,0.0,0.5,1.25,0.25,0.25,0.0,0.0,0.0,0.25,0.0,0.5,-0.36,-0.55,0.83,73.99,-4.1,25.3
4.96,0.25,0.0,0.0,0.5,0.0,0.0,0.0,0.0,0.25,0.0,0.0,0.0,0.25,-0.98,0.02,-0.11,13.54,13.2,12.1,0.5,0.0,0.25,0.5,1.25,0.25,0.25,0.0,0.0,0.5,0.25,0.25,0.5,-0.42,-0.48,0.83,72.57,-4.1,8.9
4.98,0.0,0.0,0.0,0.5,0.0,0.0,0.0,0.0,0.25,0.0,0.0,0.0,0.25,-0.98,0.02,-0.11,12.33,8.2,-7.2,0.25,0.0,0.25,0.5,1.25,0.0,0.25,0.0,0.0,1.0,0.25,0.0,0.5,-0.36,-0.48,0.77,67.46,-1.3,-0.1
5.0,0.25,0.0,0.0,0.25,0.0,0.0,0.0,0.0,0.25,0.0,0.25,0.0,0.25,-0.98,0.02,-0.17,13.48,11.8,-14.5,0.5,0.0,0.25,0.5,1.25,0.0,0.25,0.0,0.0,0.5,0.25,0.0,0.5,-0.36,-0.48,0.77,66.5,-5.4,14.6
5.02,0.0,0.0,0.0,0.25,0.0,0.0,0.0,0.0,0.25,0.0,0.0,0.0,0.25,-1.05,0.02,-0.17,11.63,5.2,-29.5,0.5,0.0,0.75,0.5,1.25,0.0,0.25,0.0,0.0,0.25,0.25,0.0,0.5,-0.36,-0.48,0.77,66.22,-10.5,25.3
5.04,0.0,0.0,0.0,0.5,0.0,0.0,0.0,0.0,0.25,0.0,0.25,0.0,0.25,-0.98,0.02,-0.17,13.17,8.7,-20.2,0.25,0.25,0.25,0.5,1.25,0.0,0.25,0.0,0.0,0.5,0.25,0.25,0.5,-0.36,-0.55,0.77,67.51,-4.4,8.1
5.06,0.0,0.0,0.0,0.5,0.0,0.0,0.0,0.0,0.25,0.0,0.0,0.0,0.25,-0.98,0.02,-0.17,12.92,8.2,-7.2,0.25,0.25,0.5,0.5,1.25,0.0,0.25,0.0,0.0,0.25,0.25,0.0,0.25,-0.36,-0.55,0.83,65.35,-8.9,32.5
5.08,0.0,0.0,0.0,0.25,0.0,0.0,0.0,0.0,0.0,0.0,0.0,0.0,0.25,-0.98,0.02,-0.17,11.23,1.8,-25.2,0.5,0.0,0.5,0.75,0.5,0.5,0.25,0.0,0.0,0.0,0.25,0.25,0.25,-0.36,-0.55,0.77,63.36,-11.4,26.8
5.1,0.0,0.0,0.0,0.5,0.0,0.0,0.0,0.0,0.0,0.0,0.0,0.0,0.25,-0.98,0.02,-0.17,10.8,7.0,2.6,0.5,0.25,0.25,0.5,1.25,0.0,0.25,0.0,0.0,0.5,0.25,0.0,0.25,-0.36,-0.55,0.77,63.03,-7.0,27.9
5.12,0.0,0.0,0.0,0.5,0.0,0.0,0.0,0.0,0.25,0.0,0.0,0.0,0.25,-0.98,0.02,-0.17,12.08,8.2,-7.2,0.5,0.0,0.25,0.5,1.25,0.0,0.25,0.0,0.0,1.0,0.25,0.0,0.25,-0.36,-0.55,0.77,63.42,-4.0,11.6
5.14,0.0,0.0,0.0,0.75,0.0,0.0,0.0,0.0,0.0,0.0,0.25,0.0,0.25,-0.98,0.02,-0.17,15.01,9.8,-0.8,0.5,0.0,0.5,0.5,1.25,0.0,0.25,0.0,0.0,1.0,0.25,0.0,0.25,-0.3,-0.55,0.77,67.55,-6.0,14.4
5.16,0.0,0.0,0.0,0.25,0.0,0.0,0.0,0.0,0.25,0.0,0.0,0.0,0.25,-0.98,-0.05,-0.17,14.6,5.2,-29.5,0.5,0.0,0.5,0.5,1.0,0.0,0.25,0.0,0.0,0.25,0.25,0.5,0.5,-0.3,-0.55,0.77,69.12,-9.6,5.6
5.18,0.0,0.0,0.0,0.5,0.0,0.0,0.0,0.0,0.25,0.0,0.0,0.0,0.25,-0.98,-0.05,-0.17,16.05,8.2,-7.2,0.5,0.0,0.25,0.5,1.25,0.0,0.25,0.0,0.0,0.75,0.25,0.25,0.5,-0.3,-0.55,0.77,71.48,-4.4,2.9
5.2,0.0,0.0,0.0,0.0,0.0,0.0,0.0,0.0,0.0,0.0,0.0,0.0,0.25,-0.98,-0.05,-0.17,11.42,-13.7,-109.8,0.5,0.0,0.5,0.5,1.25,0.5,0.25,0.0,0.0,0.0,0.25,0.0,0.5,-0.3,-0.55,0.77,70.92,-6.7,30.0
5.22,0.0,0.0,0.0,0.25,0.0,0.0,0.0,0.0,0.25,0.0,0.0,0.0,0.25,-0.98,-0.05,-0.17,10.72,5.2,-29.5,0.5,0.0,0.25,0.5,1.25,0.0,0.25,0.0,0.0,0.25,0.25,0.0,0.5,-0.3,-0.55,0.77,68.62,-6.7,20.5
5.24,0.0,0.0,0.0,0.0,0.0,0.0,0.0,0.0,0.25,0.0,0.0,0.0,0.25,-0.98,0.02,-0.17,8.63,-1.0,-75.0,0.5,0.0,0.5,0.75,1.25,0.0,0.25,0.0,0.0,0.5,0.25,0.0,0.5,-0.23,-0.55,0.77,70.05,-7.9,19.7
5.26,0.0,0.0,0.0,0.5,0.0,0.0,0.0,0.0,0.25,0.0,0.0,0.0,0.25,-0.98,0.02,-0.17,11.36,8.2,-7.2,0.25,0.25,0.5,0.5,1.25,0.0,0.25,0.0,0.0,0.0,0.25,0.0,0.5,-0.3,-0.55,0.77,67.77,-9.0,30.0
5.28,0.0,0.0,0.0,0.5,0.0,0.0,0.0,0.0,0.25,0.0,0.0,0.0,0.25,-0.98,0.02,-0.17,12.9,8.2,-7.2,0.5,0.0,0.25,0.5,1.25,0.0,0.25,0.0,0.0,1.0,0.25,0.0,0.5,-0.23,-0.55,0.77,69.81,-3.0,4.8
5.3,0.0,0.0,0.0,0.25,0.0,0.0,0.0,0.0,0.25,0.0,0.0,0.0,0.25,-1.05,0.02,-0.17,13.89,5.2,-29.5,0.25,0.0,0.25,0.5,1.25,0.0,0.0,0.0,0.0,0.0,0.25,0.25,0.25,-0.3,-0.55,0.77,63.88,-7.3,22.5
5.32,0.0,0.0,0.0,0.25,0.0,0.0,0.0,0.0,0.25,0.0,0.0,0.0,0.25,-1.05,0.02,-0.17,13.5,5.2,-29.5,0.25,0.0,0.5,0.5,1.25,0.0,0.0,0.0,0.0,0.0,0.25,0.0,0.5,-0.3,-0.55,0.83,60.75,-7.9,25.0
5.34,0.0,0.0,0.0,0.25,0.0,0.0,0.0,0.0,0.25,0.0,0.0,0.0,0.25,-0.98,0.02,-0.17,12.25,5.2,-29.5,0.5,0.0,0.5,0.5,0.5,0.0,0.25,0.0,0.0,0.0,0.25,0.25,0.25,-0.3,-0.55,0.83,53.26,-16.3,22.9
5.36,0.0,0.0,0.0,0.25,0.0,0.0,0.0,0.0,0.25,0.0,0.0,0.0,0.25,-0.98,0.02,-0.17,11.59,5.2,-29.5,0.25,0.0,0.25,0.5,1.25,0.0,0.25,0.0,0.0,0.5,0.25,0.25,0.5,-0.3,-0.55,0.83,54.89,-3.9,2.3
5.38,0.5,0.0,0.0,0.25,0.0,0.0,0.0,0.0,0.25,0.0,0.0,0.0,0.25,-0.98,0.02,-0.17,14.47,16.4,18.7,0.5,0.0,0.0,0.5,1.25,0.0,0.25,0.0,0.0,0.0,0.25,0.25,0.25,-0.3,-0.55,0.83,53.21,-7.7,25.0
5.4,0.0,0.0,0.0,0.25,0.0,0.0,0.0,0.0,0.25,0.0,0.0,0.0,0.25,-0.98,0.02,-0.17,14.87,5.2,-29.5,0.0,0.0,0.25,0.5,1.25,0.0,0.25,0.0,0.0,0.0,0.25,0.0,0.25,-0.23,-0.55,0.83,51.45,-5.9,28.1
5.42,0.0,0.0,0.0,0.5,0.0,0.0,0.0,0.0,0.0,0.0,0.0,0.0,0.25,-1.05,0.02,-0.17,14.89,7.0,2.6,0.5,0.25,0.25,0.75,1.25,0.0,0.25,0.0,0.0,0.25,0.25,0.5,0.25,-0.23,-0.55,0.83,57.3,-9.0,20.3
5.44,0.0,0.0,0.0,0.5,0.0,0.0,0.0,0.0,0.25,0.0,0.0,0.0,0.25,-0.98,0.02,-0.17,15.39,8.2,-7.2,0.25,0.25,0.25,0.5,1.25,0.0,0.25,0.0,0.0,0.25,0.25,0.0,0.25,-0.23,-0.55,0.77,58.59,-6.8,30.5
5.46,0.0,0.0,0.0,0.0,0.0,0.0,0.0,0.0,0.0,0.0,0.0,0.0,0.25,-0.98,0.02,-0.17,11.7,-13.7,-109.8,0.5,0.0,0.25,0.5,1.25,0.0,0.25,0.0,0.0,0.75,0.25,0.0,0.25,-0.23,-0.55,0.77,62.67,-5.3,17.0
5.48,0.0,0.0,0.0,0.5,0.0,0.0,0.0,0.0,0.25,0.0,0.0,0.0,0.25,-0.98,0.02,-0.17,12.51,8.2,-7.2,0.25,0.0,0.25,0.5,1.25,0.0,0.0,0.0,0.0,0.5,0.25,0.25,0.5,-0.23,-0.55,0.77,62.66,-3.0,1.6
5.5,0.0,0.0,0.0,0.5,0.0,0.0,0.0,0.0,0.25,0.0,0.0,0.0,0.25,-0.98,0.02,-0.23,13.14,8.2,-7.2,0.5,0.25,0.5,0.5,1.25,0.25,0.25,0.0,0.0,0.5,0.25,0.0,0.5,-0.23,-0.55,0.77,69.78,-6.1,22.6
5.52,0.0,0.0,0.0,0.5,0.0,0.0,0.0,0.0,0.0,0.0,0.0,0.0,0.25,-0.98,0.02,-0.23,14.06,7.0,2.6,0.5,0.0,0.5,0.5,1.5,0.0,0.25,0.0,0.0,0.5,0.25,0.25,0.5,-0.23,-0.55,0.77,73.77,-6.8,13.0
5.54,0.0,0.0,0.0,0.25,0.0,0.0,0.0,0.0,0.25,0.0,0.0,0.0,0.25,-0.92,0.08,-0.23,13.54,5.2,-29.5,0.25,0.25,0.25,0.5,1.25,0.0,0.25,0.0,0.0,0.25,0.25,0.0,0.5,-0.23,-0.55,0.77,74.03,-5.4,21.1
5.56,0.0,0.0,0.0,0.5,0.0,0.0,0.0,0.0,0.0,0.0,0.0,0.0,0.25,-0.98,0.08,-0.23,13.22,7.0,2.6,0.5,0.0,0.25,0.5,1.25,0.0,0.25,0.0,0.0,0.0,0.25,0.25,0.5,-0.23,-0.55,0.77,70.87,-8.3,18.4
5.58,0.0,0.0,0.0,0.25,0.0,0.0,0.0,0.0,0.25,0.0,0.0,0.0,0.25,-0.98,0.08,-0.17,12.3,5.2,-29.5,0.5,0.0,0.5,0.5,1.25,0.0,0.0,0.0,0.0,0.25,0.25,0.0,0.5,-0.23,-0.55,0.77,67.97,-8.0,23.0
5.6,0.0,0.0,0.0,0.5,0.0,0.0,0.0,0.0,0.25,0.0,0.0,0.0,0.25,-1.05,0.02,-0.17,13.28,8.2,-7.2,0.5,0.0,0.25,0.5,1.25,0.0,0.25,0.0,0.0,0.25,0.25,0.0,0.25,-0.23,-0.55,0.77,63.71,-8.2,30.0
5.62,0.0,0.0,0.0,0.25,0.0,0.0,0.0,0.0,0.5,0.0,0.0,0.0,0.25,-0.98,0.02,-0.17,14.36,6.9,-31.7,0.5,0.25,0.25,0.5,1.25,0.0,0.25,0.0,0.0,0.0,0.25,0.25,0.25,-0.23,-0.55,0.77,63.16,-10.1,32.4
5.64,0.0,0.0,0.0,0.25,0.0,0.0,0.0,0.0,0.25,0.0,0.0,0.0,0.25,-0.98,0.02,-0.17,14.54,5.2,-29.5,0.5,0.0,0.25,0.5,1.25,0.0,0.25,0.0,0.0,0.25,0.25,0.0,0.5,-0.23,-0.55,0.77,62.39,-6.7,20.5
5.66,0.0,0.0,0.0,0.25,0.0,0.0,0.0,0.0,0.25,0.0,0.0,0.0,0.25,-0.98,0.02,-0.17,13.59,5.2,-29.5,0.5,0.0,0.25,0.5,1.25,0.0,0.25,0.0,0.0,0.75,0.25,0.0,0.5,-0.23,-0.55,0.83,63.67,-4.1,9.4
5.68,0.0,0.0,0.0,0.0,0.0,0.0,0.0,0.0,0.25,0.0,0.0,0.0,0.25,-0.98,0.02,-0.17,11.56,-1.0,-75.0,0.0,0.0,0.25,0.75,1.25,0.0,0.0,0.0,0.0,0.25,0.25,0.25,0.5,-0.23,-0.55,0.77,62.69,-3.3,4.7
5.7,0.0,0.0,0.0,0.25,0.0,0.0,0.0,0.0,0.25,0.0,0.0,0.0,0.25,-0.98,0.02,-0.23,11.25,5.2,-29.5,0.5,0.0,0.25,0.5,1.25,0.0,0.0,0.0,0.0,0.5,0.25,0.0,0.5,-0.23,-0.55,0.77,62.72,-4.5,14.3
5.72,0.0,0.0,0.0,0.5,0.0,0.0,0.0,0.0,0.25,0.0,0.0,0.0,0.25,-1.05,0.02,-0.23,12.08,8.2,-7.2,0.5,0.0,0.25,0.5,1.25,0.0,0.25,0.0,0.0,0.75,0.25,0.25,0.5,-0.23,-0.55,0.77,64.96,-4.4,2.9
5.74,0.0,0.0,0.0,0.25,0.0,0.0,0.0,0.0,0.0,0.0,0.0,0.0,0.25,-1.05,0.02,-0.23,11.28,1.8,-25.2,0.25,0.0,0.75,0.5,1.25,0.0,0.25,0.0,0.0,0.0,0.25,0.0,0.5,-0.17,-0.55,0.77,64.65,-10.7,27.5
5.76,0.0,0.0,0.0,0.75,0.0,0.0,0.0,0.0,0.25,0.0,0.0,0.0,0.0,-1.05,0.02,-0.23,13.66,16.0,34.8,0.5,0.25,0.25,0.5,1.25,0.0,0.25,0.0,0.0,1.0,0.25,0.0,0.5,-0.17,-0.55,0.77,69.78,-3.6,9.8
5.78,0.0,0.0,0.0,0.25,0.0,0.0,0.0,0.0,0.25,0.0,0.0,0.0,0.25,-1.05,0.02,-0.23,13.09,5.2,-29.5,0.0,0.0,0.25,0.5,1.25,0.0,0.25,0.0,0.0,0.25,0.25,0.0,0.5,-0.17,-0.55,0.77,66.07,-2.8,9.8
5.8,0.0,0.0,0.0,0.25,0.0,0.0,0.0,0.0,0.0,0.0,0.0,0.0,0.25,-1.05,0.02,-0.23,11.74,1.8,-25.2,0.5,0.0,0.5,0.5,1.25,0.0,0.25,0.0,0.0,0.75,0.25,0.25,0.5,-0.17,-0.55,0.77,69.82,-6.2,6.0
5.82,0.0,0.0,0.0,0.25,0.0,0.0,0.0,0.0,0.25,0.0,0.0,0.0,0.25,-0.98,0.02,-0.23,10.89,5.2,-29.5,0.5,0.25,0.25,0.5,1.25,0.0,0.0,0.0,0.0,0.75,0.25,0.25,0.5,-0.17,-0.55,0.77,70.86,-4.1,7.6
5.84,0.0,0.0,0.0,0.5,0.0,0.0,0.0,0.0,0.25,0.0,0.0,0.0,0.25,-0.92,0.02,-0.23,12.4,8.2,-7.2,0.25,0.25,0.25,0.5,1.25,0.0,0.0,0.0,0.0,1.5,0.25,0.0,0.5,-0.17,-0.55,0.77,75.66,0.5,-3.2
5.86,0.0,0.0,0.0,0.25,0.0,0.0,0.0,0.0,0.0,0.0,0.0,0.0,0.25,-0.92,0.02,-0.23,11.35,1.8,-25.2,0.5,0.0,0.5,0.5,1.25,0.0,0.25,0.0,0.0,0.75,0.25,0.0,0.5,-0.17,-0.55,0.77,75.95,-6.1,12.3
5.88,0.0,0.0,0.0,0.5,0.0,0.0,0.0,0.0,0.0,0.0,0.0,0.0,0.0,-0.92,-0.05,-0.23,10.88,17.2,57.9,0.5,0.0,0.25,0.5,1.25,0.0,0.25,0.0,0.0,1.0,0.25,0.0,0.5,-0.17,-0.55,0.77,76.31,-3.0,4.8
5.9,0.0,0.0,0.0,0.25,0.0,0.0,0.0,0.0,0.25,0.0,0.0,0.0,0.0,-0.92,-0.05,-0.23,9.48,14.7,11.1,0.25,0.0,0.25,0.5,1.25,0.0,0.0,0.0,0.0,1.0,0.25,0.0,0.5,-0.17,-0.55,0.77,72.79,-0.5,-0.9
5.92,0.0,0.0,0.0,0.25,0.0,0.0,0.0,0.0,0.25,0.0,0.25,0.0,0.0,-0.98,-0.05,-0.3,9.75,13.4,-16.8,0.5,0.0,0.25,0.5,1.25,0.0,0.25,0.0,0.0,0.25,0.25,0.0,0.5,-0.17,-0.55,0.77,68.77,-6.7,20.5
5.94,0.0,0.0,0.0,0.25,0.0,0.0,0.0,0.0,0.25,0.0,0.0,0.0,0.0,-0.92,0.02,-0.3,8.7,14.7,11.1,0.25,0.0,0.25,0.5,1.25,0.0,0.25,0.0,0.0,0.25,0.25,0.0,0.25,-0.17,-0.55,0.77,62.41,-6.3,25.2
5.96,0.0,0.0,0.0,0.25,0.0,0.0,0.0,0.0,0.25,0.0,0.0,0.0,0.25,-0.86,0.02,-0.3,9.82,5.2,-29.5,0.0,0.0,0.25,0.5,1.25,0.0,0.0,0.0,0.0,0.5,0.25,0.0,0.25,-0.17,-0.55,0.77,56.52,-1.6,12.1
5.98,0.0,0.0,0.0,0.25,0.0,0.0,0.0,0.0,0.25,0.0,0.0,0.0,0.25,-0.8,0.02,-0.3,10.68,5.2,-29.5,0.5,0.25,0.0,0.75,1.25,0.0,0.0,0.0,0.0,0.5,0.25,0.0,0.5,-0.17,-0.55,0.77,58.16,-3.8,19.3
6.0,0.0,0.0,0.0,0.25,0.0,0.0,0.0,0.0,0.25,0.0,0.0,0.0,0.25,-0.8,0.08,-0.3,11.14,5.2,-29.5,0.5,0.0,0.25,0.5,1.25,0.0,0.25,0.0,0.0,1.0,0.25,0.0,0.5,-0.17,-0.55,0.77,62.01,-3.0,4.8
6.02,0.0,0.0,0.0,0.5,0.0,0.0,0.0,0.0,0.0,0.0,0.0,0.0,0.25,-0.86,0.08,-0.23,12.1,7.0,2.6,0.5,0.0,0.0,0.5,0.5,0.0,0.25,0.0,0.0,0.0,0.25,0.0,0.5,-0.17,-0.55,0.77,56.25,-9.3,14.4
6.04,0.0,0.0,0.0,0.5,0.0,0.0,0.0,0.0,0.25,0.25,0.0,0.0,0.25,-0.92,0.08,-0.23,15.23,3.5,-20.6,0.5,0.25,0.5,0.5,1.25,0.0,0.25,0.0,0.0,0.5,0.25,0.25,0.5,-0.17,-0.55,0.77,61.1,-7.7,15.2
6.06,0.0,0.0,0.0,0.5,0.0,0.0,0.0,1.25,0.25,0.0,0.0,0.0,0.25,-0.98,0.08,-0.17,22.99,-5.4,-24.5,0.5,0.0,0.5,0.5,1.25,0.0,0.0,0.0,0.25,0.75,0.25,0.25,0.5,-0.17,-0.55,0.83,65.82,-5.9,3.3
6.08,0.0,0.0,0.0,0.25,0.0,0.0,0.0,1.25,0.25,0.0,0.0,0.0,0.25,-1.11,0.02,-0.11,29.01,-8.4,-35.2,0.5,0.0,0.75,0.5,1.5,0.0,0.25,0.0,0.0,0.0,0.25,0.25,0.25,-0.17,-0.55,0.83,70.94,-12.4,33.3
6.1,0.0,0.0,0.0,0.0,0.0,0.0,0.0,0.0,0.25,0.0,0.0,0.0,0.25,-1.05,-0.05,-0.05,26.09,-1.0,-75.0,0.5,0.0,0.25,0.5,1.0,0.0,0.25,0.0,0.0,0.75,0.25,0.25,0.25,-0.17,-0.55,0.83,70.34,-6.1,6.5
6.12,0.0,0.0,0.0,0.5,0.0,0.0,0.0,0.0,0.0,0.0,0.0,0.0,0.25,-0.92,-0.05,-0.05,21.7,7.0,2.6,0.5,0.0,0.5,0.5,1.25,0.0,0.25,0.0,0.0,0.0,0.25,0.0,0.5,-0.17,-0.55,0.83,69.34,-10.3,29.5
6.14,0.0,0.0,0.0,0.5,0.0,0.0,0.0,0.0,0.0,0.0,0.25,0.0,0.25,-0.92,-0.05,-0.05,17.84,7.9,-15.8,0.5,0.0,0.25,0.5,1.25,0.0,0.25,0.0,0.0,0.75,0.25,0.0,0.5,-0.17,-0.55,0.77,68.41,-4.1,9.4
6.16,0.0,0.0,0.0,0.5,0.0,0.0,0.0,0.0,0.0,0.0,0.5,0.0,0.25,-0.98,-0.05,-0.11,17.42,8.4,-27.2,0.25,0.25,0.5,0.5,1.25,0.25,0.25,0.0,0.0,0.0,0.25,0.0,0.25,-0.17,-0.55,0.83,66.89,-8.5,39.7
6.18,0.0,0.0,0.0,0.5,0.0,0.0,0.0,0.0,0.0,0.0,0.25,0.0,0.25,-1.17,0.08,-0.11,17.23,7.9,-15.8,0.5,0.25,0.25,0.5,1.25,0.0,0.25,0.0,0.0,0.5,0.25,0.25,0.25,-0.17,-0.55,0.83,68.82,-7.1,19.9
6.2,0.0,0.0,0.0,0.5,0.0,0.0,0.0,0.0,0.0,0.0,0.0,0.0,0.0,-1.23,0.08,-0.11,15.18,17.2,57.9,0.5,0.0,0.25,0.5,1.25,0.0,0.25,0.0,0.0,0.0,0.25,0.25,0.5,-0.17,-0.55,0.77,66.71,-8.3,18.4
6.22,0.0,0.0,0.0,0.5,0.0,0.0,0.0,0.0,0.0,0.0,0.0,0.0,0.25,-1.17,0.14,-0.11,13.35,7.0,2.6,0.5,0.0,0.25,0.5,1.25,0.0,0.0,0.0,0.0,0.75,0.25,0.0,0.25,-0.17,-0.55,0.77,65.2,-4.4,16.7
6.24,0.0,0.0,0.0,0.5,0.0,0.0,0.0,0.0,0.0,0.0,0.0,0.0,0.25,-1.05,0.14,-0.11,11.44,7.0,2.6,0.25,0.0,0.25,0.5,1.25,0.0,0.25,0.0,0.0,0.0,0.25,0.0,0.5,-0.17,-0.55,0.77,60.71,-6.5,22.3
6.26,0.0,0.0,0.0,0.5,0.0,0.0,0.0,0.0,0.0,0.0,0.0,0.0,0.25,-0.98,0.14,-0.11,10.72,7.0,2.6,0.5,0.0,0.0,0.75,1.25,0.0,0.0,0.0,0.0,0.5,0.25,0.25,0.5,-0.17,-0.55,0.77,62.14,-3.5,6.8
