time,left pressure 0[N/cm²],left pressure 1[N/cm²],left pressure 2[N/cm²],left pressure 3[N/cm²],left pressure 4[N/cm²],left pressure 5[N/cm²],left pressure 6[N/cm²],left pressure 7[N/cm²],left pressure 8[N/cm²],left pressure 9[N/cm²],left pressure 10[N/cm²],left pressure 11[N/cm²],left pressure 12[N/cm²],left acceleration X[g],left acceleration Y[g],left acceleration Z[g],left total force[N],left center of pressure X[mm],left center of pressure Y[mm],right pressure 0[N/cm²],right pressure 1[N/cm²],right pressure 2[N/cm²],right pressure 3[N/cm²],right pressure 4[N/cm²],right pressure 5[N/cm²],right pressure 6[N/cm²],right pressure 7[N/cm²],right pressure 8[N/cm²],right pressure 9[N/cm²],right pressure 10[N/cm²],right pressure 11[N/cm²],right pressure 12[N/cm²],right acceleration X[g],right acceleration Y[g],right acceleration Z[g],right total force[N],right center of pressure X[mm],right center of pressure Y[mm]
0.02,0.0,0.0,0.0,0.5,0.0,0.0,0.0,5.0,1.0,6.5,5.25,5.0,6.25,-0.05,0.08,1.02,252.48,-5.2,-78.9,5.75,0.0,1.0,4.0,0.5,0.0,0.25,1.5,0.5,1.0,0.75,0.0,0.0,0.64,1.45,2.83,388.26,-18.2,43.8
0.04,0.0,0.0,0.0,0.5,0.0,0.0,0.0,5.25,1.0,6.5,3.5,5.0,6.25,-0.17,0.08,0.95,317.68,-6.2,-78.8,2.0,0.0,0.0,2.25,0.0,0.0,0.0,1.5,0.0,0.5,0.5,0.0,0.0,0.02,0.33,2.39,220.18,-11.6,27.8
0.06,0.0,0.0,0.0,0.5,0.0,0.75,0.0,5.25,1.0,6.75,3.5,5.0,6.25,-0.17,0.08,0.95,410.38,-6.7,-76.0,1.75,0.0,0.0,2.0,0.0,0.0,0.0,0.0,0.0,0.25,0.0,0.0,0.0,0.27,0.27,2.27,64.87,-22.4,65.9
0.08,0.0,0.0,0.0,0.75,0.0,0.75,0.0,5.25,1.0,6.75,2.75,5.0,6.0,-0.17,0.08,0.95,464.41,-6.9,-74.5,0.0,0.0,0.5,1.0,2.25,0.0,0.25,1.5,0.0,0.25,0.25,0.0,0.0,1.08,-0.42,1.7,0.0,-1.0,22.2
0.1,0.0,0.0,0.0,0.5,0.0,1.5,0.5,5.75,2.0,6.75,0.0,5.0,6.0,-0.11,0.08,0.95,493.56,-8.4,-70.1,0.0,0.0,0.5,0.75,0.0,0.0,0.0,0.0,0.0,0.25,0.0,0.0,0.0,0.89,-1.05,-0.42,0.0,-18.8,37.4
0.12,0.75,0.0,0.0,1.0,0.0,1.75,0.25,5.75,2.25,6.25,6.0,4.25,6.0,-0.11,0.02,0.95,514.06,-4.2,-64.0,0.0,0.0,0.5,0.5,0.0,0.0,0.0,0.0,0.0,0.5,0.0,0.0,0.0,0.95,-1.23,1.45,0.0,-13.5,15.5
0.14,0.75,0.0,0.0,1.75,0.0,2.0,0.5,6.0,2.5,5.75,6.0,4.25,5.5,-0.17,0.08,0.95,535.54,-3.4,-59.0,0.0,0.0,0.5,0.5,0.0,0.0,0.0,0.0,0.0,0.5,0.0,0.0,0.0,0.39,-0.36,0.52,0.0,-13.5,15.5
0.16,0.0,0.0,0.0,2.25,2.5,2.0,0.75,6.0,3.0,5.75,5.75,4.0,5.25,-0.17,0.08,0.95,569.28,-3.6,-50.2,0.0,0.0,0.5,0.5,0.0,0.0,0.0,0.0,0.0,0.75,0.0,0.0,0.0,0.2,-0.48,0.33,0.0,-9.4,2.8
0.18,1.5,0.0,0.0,2.25,3.25,2.0,0.75,6.0,3.0,5.5,5.5,3.25,4.5,-0.11,0.02,0.95,573.04,-2.2,-39.5,0.0,0.0,0.5,2.25,0.0,0.0,0.0,0.0,0.5,2.5,0.0,0.0,0.0,0.39,-0.36,0.7,0.0,-4.6,-6.8
0.2,2.0,0.0,0.0,1.25,3.5,2.5,0.75,5.75,3.0,4.75,5.0,3.0,4.0,-0.11,0.02,0.95,558.05,-2.2,-36.0,0.0,0.0,1.75,1.75,2.5,0.0,0.0,1.5,0.25,2.0,0.5,0.0,0.75,0.45,-0.42,0.83,0.0,-2.7,2.6
0.22,2.25,0.0,0.25,2.75,4.25,2.75,1.0,5.5,3.0,4.25,5.0,2.25,3.0,-0.11,0.08,0.95,541.65,-0.5,-23.4,0.5,0.0,1.75,1.75,2.5,0.0,0.25,1.5,0.5,0.0,0.5,0.0,0.75,0.39,-0.3,0.95,68.54,-8.3,21.3
0.24,2.0,0.0,1.0,4.0,5.0,2.75,1.0,5.25,3.25,3.0,3.75,2.0,2.75,-0.11,0.08,0.95,519.56,0.9,-12.7,0.0,0.0,1.75,1.25,2.5,0.0,0.25,1.5,0.5,2.0,0.75,0.0,0.75,0.33,0.08,0.89,131.9,-2.7,-2.0
0.26,2.75,0.25,1.25,4.5,5.25,2.75,1.0,5.25,3.0,2.75,3.5,1.25,1.75,-0.11,0.08,0.95,485.09,2.4,-1.7,0.25,0.5,1.0,1.5,2.5,0.0,0.25,1.5,0.5,2.0,0.75,0.0,0.75,0.33,0.2,0.95,170.3,-1.8,1.5
0.28,3.25,0.75,1.5,6.5,5.5,2.75,1.25,5.0,2.75,1.5,2.75,1.0,1.5,-0.11,0.08,0.95,494.18,4.7,11.5,0.0,0.25,1.25,1.25,2.5,0.0,0.25,1.5,0.5,2.5,0.25,0.0,0.5,0.2,0.2,1.14,184.84,-0.5,-0.2
0.3,3.25,1.0,2.25,7.25,6.25,2.75,1.5,4.5,2.5,1.5,2.0,1.0,1.25,-0.11,0.08,0.95,511.03,5.9,18.7,0.0,0.0,1.0,1.25,2.5,0.0,0.25,1.5,0.5,1.75,0.75,0.0,0.75,0.14,0.33,1.33,184.09,-0.6,-4.9
0.32,3.25,1.0,3.0,8.5,6.75,3.25,1.5,4.5,2.5,1.5,1.75,1.0,0.75,-0.11,0.08,0.95,541.76,6.7,23.7,0.25,0.0,1.5,1.25,2.5,0.0,0.25,1.5,0.5,2.75,0.5,0.0,0.75,0.2,0.45,1.45,188.19,-1.3,-4.5
0.34,3.25,1.0,3.0,9.0,7.5,3.0,1.75,4.0,2.0,1.25,1.5,0.5,0.5,-0.11,0.08,0.95,560.97,7.3,30.3,0.25,0.25,1.25,1.25,2.5,0.0,0.25,1.5,0.5,2.0,0.5,0.0,0.75,0.27,0.52,1.64,190.68,-1.9,0.9
0.36,4.25,1.0,3.75,10.5,7.75,3.25,2.0,3.75,1.5,1.25,1.0,0.25,0.5,-0.11,0.08,0.95,590.37,8.7,37.0,0.25,0.0,1.0,1.25,2.5,0.0,0.25,1.5,0.5,1.75,0.5,0.0,0.75,0.39,0.58,1.89,185.28,-1.1,-1.0
0.38,4.5,1.25,4.75,10.5,8.0,3.25,2.25,3.0,1.5,1.0,0.75,0.25,0.25,-0.11,0.08,0.95,619.23,10.4,42.0,0.25,0.25,0.75,1.5,2.5,0.0,0.0,1.5,0.5,1.75,0.5,0.0,0.75,0.52,0.77,1.95,178.39,-0.6,0.9
0.4,4.5,1.25,5.25,11.5,8.0,3.25,2.25,3.0,1.0,0.5,0.5,0.25,0.5,-0.11,0.14,0.95,647.97,11.0,44.7,0.25,0.0,1.25,1.0,2.5,0.0,0.0,1.5,0.5,2.0,0.5,0.0,0.75,0.27,1.14,2.2,170.2,-0.9,-3.0
0.42,5.5,2.25,5.75,11.5,8.5,3.25,2.25,2.5,0.75,0.5,0.25,0.0,0.5,-0.11,0.14,0.95,682.74,12.0,50.4,0.5,0.0,0.75,1.25,2.5,0.0,0.25,1.5,0.5,2.0,0.75,0.0,0.75,-0.17,1.58,2.39,162.91,-0.8,-3.7
0.44,5.75,2.5,6.0,12.5,8.5,3.25,2.5,2.75,0.75,0.5,0.25,0.0,0.5,-0.11,0.14,1.02,725.28,12.3,50.6,0.0,0.0,0.75,0.0,2.5,0.0,0.25,1.5,0.0,0.25,0.5,0.0,0.0,-0.55,2.39,1.64,136.35,0.0,15.2
0.46,6.0,2.5,6.5,13.0,8.75,3.0,2.25,2.5,0.0,0.5,0.25,0.0,0.5,-0.11,0.14,1.08,757.67,12.9,53.1,0.0,0.0,0.25,1.25,0.0,0.0,0.0,0.0,0.25,1.5,0.0,0.0,0.0,-0.86,3.2,0.52,101.74,-3.5,-9.4
0.48,6.75,2.5,6.75,13.5,8.75,2.75,2.25,2.25,0.0,0.75,0.0,0.0,0.25,-0.11,0.14,1.08,784.94,13.8,55.3,0.0,0.0,0.5,0.0,2.5,0.0,0.25,1.5,0.0,0.0,0.5,0.0,0.75,-1.42,4.08,0.33,82.23,2.6,1.5
0.5,7.0,3.0,0.0,14.0,0.0,4.25,0.0,0.0,0.75,0.5,0.0,0.0,0.0,-0.11,0.2,1.08,675.33,14.5,63.1,0.0,0.0,0.25,0.0,0.0,0.0,0.0,0.0,0.0,0.25,0.0,0.0,0.0,-1.73,4.27,1.14,42.69,-11.6,-6.2
0.52,0.0,0.0,7.0,14.0,0.5,1.75,1.25,0.0,0.0,0.5,0.0,0.0,0.0,-0.11,0.2,1.02,538.65,19.8,53.7,0.0,0.0,0.0,0.0,0.0,0.0,0.0,0.0,0.0,1.25,0.0,0.0,0.25,0.64,-0.11,0.7,22.01,15.3,-81.3
0.54,6.75,3.0,6.75,13.0,0.0,0.75,1.25,1.25,0.25,0.5,0.0,0.0,0.25,-0.17,0.27,1.08,469.58,21.8,61.2,0.0,0.0,0.0,0.0,0.0,0.0,0.0,0.5,0.0,3.25,0.25,1.25,4.25,1.2,-0.67,2.83,55.31,11.0,-93.6
0.56,8.0,2.75,7.5,12.5,8.25,0.0,0.75,1.25,0.25,0.25,0.25,0.0,0.25,-0.23,0.27,1.27,506.88,17.9,60.9,0.0,0.0,0.0,0.0,0.0,0.0,0.0,1.0,0.0,6.5,1.5,4.75,7.75,-0.17,-0.3,1.27,162.3,7.8,-93.9
0.58,8.25,2.5,6.5,10.5,0.0,0.0,0.0,1.25,0.5,0.0,0.25,0.0,0.25,-0.3,0.33,1.39,489.32,24.2,64.2,0.0,0.0,0.0,0.5,2.5,0.0,0.0,3.0,0.25,7.5,4.5,5.75,8.5,-1.17,0.58,2.89,289.56,5.6,-73.5
0.6,7.75,2.0,6.0,9.0,0.0,0.0,0.0,1.25,0.5,0.25,0.0,0.0,0.25,-0.55,0.52,1.7,457.32,24.1,63.3,0.25,0.0,0.75,1.25,2.5,0.0,0.25,4.0,0.75,9.25,6.5,6.25,8.5,0.52,0.2,1.08,451.32,3.5,-66.4
0.62,7.5,1.0,4.75,6.5,0.0,0.0,0.0,1.25,0.5,0.5,0.0,0.0,0.25,-0.8,0.64,1.7,378.07,24.1,60.5,0.0,0.0,0.75,1.25,2.5,2.0,0.0,5.25,1.25,9.25,7.25,6.0,8.5,-0.11,0.14,1.14,620.03,4.7,-62.1
0.64,5.75,0.0,1.25,4.5,0.0,0.0,0.0,0.0,0.5,0.25,0.25,0.0,0.25,-0.92,1.2,2.77,278.09,25.3,62.8,0.5,0.0,0.75,1.25,2.5,1.75,0.0,5.5,1.25,9.25,7.25,6.0,8.25,0.27,0.14,0.95,735.61,4.2,-60.5
0.66,4.25,0.0,1.25,1.5,0.0,0.0,0.0,0.0,0.5,0.5,0.0,0.0,0.25,-0.3,0.58,2.52,180.86,25.9,58.5,1.5,0.0,0.5,1.25,2.75,2.0,0.25,5.75,1.25,9.25,7.25,6.0,8.25,0.08,0.08,0.95,808.04,3.7,-56.4
0.68,2.5,0.0,0.5,0.25,0.0,0.0,0.0,0.0,0.25,0.25,0.0,0.0,0.25,-0.67,0.27,2.7,83.46,26.2,56.5,1.25,0.0,1.25,1.5,2.75,2.5,0.25,6.25,1.25,9.25,7.25,5.5,8.0,0.14,0.08,0.95,850.01,3.5,-52.7
0.7,0.0,0.0,0.25,0.5,0.0,0.0,0.0,0.0,0.5,0.0,0.0,0.0,0.0,-1.23,-0.86,2.08,0.0,19.5,21.1,1.5,0.0,1.75,1.25,2.75,3.25,0.25,6.25,1.5,9.0,7.25,5.25,7.75,0.08,0.08,0.95,868.33,3.1,-49.3
0.72,0.0,0.0,0.75,0.5,0.0,0.0,0.0,0.0,0.75,0.0,0.25,0.0,0.25,-0.8,-0.23,1.64,0.0,18.4,0.9,1.25,0.0,1.75,1.5,3.25,4.25,0.25,6.25,1.75,8.5,6.5,4.0,7.25,0.08,0.08,0.95,853.23,3.8,-43.4
0.74,0.0,0.0,0.25,1.25,0.0,0.0,0.0,0.0,1.0,0.25,0.25,0.0,0.0,-0.86,-1.11,-0.05,0.0,14.1,5.3,1.75,0.5,2.0,1.5,5.0,4.25,0.25,6.25,1.75,8.0,5.75,3.25,6.5,0.14,0.08,0.95,825.21,3.1,-32.7
0.76,0.25,0.0,0.25,1.0,0.0,0.0,0.75,0.0,1.25,0.25,0.0,0.0,0.0,-0.67,-0.3,0.83,0.0,17.3,12.5,2.25,0.0,2.0,2.5,5.5,4.25,0.75,6.25,1.75,7.5,5.0,2.75,5.75,0.14,0.08,0.95,770.46,2.3,-26.2
0.78,2.0,0.0,1.25,1.0,0.0,0.0,1.5,0.0,2.0,0.75,0.0,0.0,0.0,-0.42,-0.36,0.39,0.0,22.0,27.3,3.0,0.25,2.75,3.5,5.75,5.0,0.75,5.75,1.75,6.75,4.5,1.75,5.0,0.14,0.08,0.95,722.39,0.7,-14.4
0.8,2.25,0.0,0.75,1.25,0.0,0.0,1.75,0.0,0.5,0.25,0.0,0.0,0.0,-0.42,-0.23,0.52,0.0,26.8,54.4,4.0,0.75,3.5,4.0,5.75,5.5,0.75,5.5,1.5,6.25,4.0,1.25,4.25,0.14,0.08,0.95,691.99,-0.8,-4.3
0.82,0.5,0.0,0.0,0.5,0.0,0.0,0.0,0.0,0.25,0.25,0.0,0.0,0.25,-0.55,-0.3,0.64,11.85,11.9,11.0,3.75,0.75,3.75,4.5,6.0,5.75,1.0,5.5,1.5,5.75,2.75,1.25,3.5,0.14,0.08,0.95,673.49,-1.2,1.2
0.84,0.25,0.0,0.0,0.25,0.0,0.0,0.0,0.0,0.5,0.0,0.0,0.0,0.25,-0.61,-0.17,0.83,6.84,12.1,-7.4,5.0,0.5,3.75,5.5,7.25,6.0,1.25,5.25,1.5,5.25,2.75,0.75,2.5,0.14,0.08,0.95,678.87,-2.6,10.8
0.86,0.0,0.0,0.0,0.0,0.0,0.0,0.0,0.0,0.25,0.0,0.0,0.0,0.0,-0.55,0.02,0.89,0.0,12.1,-38.5,5.25,0.75,4.0,6.0,7.5,6.0,1.25,4.75,1.25,4.5,2.75,0.75,2.5,0.14,0.08,0.95,690.03,-3.6,14.9
0.88,1.75,0.0,0.0,0.0,0.0,0.0,0.0,0.0,0.0,0.0,0.0,0.0,0.25,-0.42,0.2,0.95,6.29,28.3,69.6,5.5,1.25,4.75,6.75,8.0,6.25,1.5,4.25,1.25,4.5,2.5,0.75,2.0,0.14,0.08,0.95,719.62,-4.8,20.4
0.9,1.25,0.0,0.0,0.0,0.0,0.0,0.0,0.0,0.25,0.25,0.0,0.0,0.5,-0.3,0.27,1.27,14.95,15.0,13.4,5.5,1.5,5.0,7.75,8.75,6.5,1.75,4.25,1.25,4.5,2.0,0.25,1.75,0.14,0.08,0.95,755.11,-5.1,25.2
0.92,1.0,0.0,0.0,0.0,0.0,0.0,0.0,0.0,0.25,0.25,0.0,0.0,0.25,-0.23,0.39,1.39,24.4,16.7,20.5,5.5,1.75,5.75,9.25,8.75,6.75,1.75,4.25,1.25,4.25,1.5,0.0,1.75,0.14,0.08,0.95,803.67,-5.8,29.2
0.94,0.0,0.0,0.0,0.0,0.0,0.0,0.25,0.0,0.25,0.5,0.0,0.0,0.25,-0.17,0.52,1.58,22.49,-3.9,-64.3,5.75,2.0,5.75,9.0,9.5,6.75,1.75,3.5,0.75,3.5,0.75,0.0,1.75,0.14,0.08,0.95,832.25,-6.3,34.8
0.96,1.5,0.0,0.0,0.0,0.0,0.0,0.0,0.0,0.25,0.25,0.0,0.0,0.25,-0.36,0.64,1.83,22.49,20.6,37.3,5.75,1.75,6.0,11.5,9.75,6.75,1.75,3.0,0.25,3.25,0.25,0.0,1.5,0.08,0.14,0.95,860.4,-7.3,39.5
0.98,1.5,0.0,0.0,0.0,0.0,0.0,0.0,1.0,0.25,0.0,0.0,0.0,0.25,-0.48,0.77,2.02,27.04,10.9,20.8,6.25,2.0,6.5,11.5,10.0,6.5,1.75,3.0,0.75,3.25,0.25,0.0,1.0,0.08,0.14,0.95,883.68,-8.2,41.3
1.0,0.75,0.0,0.0,0.0,0.0,0.0,0.0,0.0,0.25,0.0,0.0,0.0,0.25,-0.48,0.95,2.27,23.79,19.9,25.5,6.0,2.25,7.0,12.5,11.0,7.0,1.25,3.0,0.25,2.75,0.25,0.0,1.25,0.08,0.14,0.95,919.22,-8.0,43.1
1.02,0.75,0.0,0.0,0.0,0.0,0.0,0.0,0.0,0.25,0.25,0.0,0.0,0.25,-0.3,1.2,2.39,21.81,13.7,8.1,6.0,2.5,7.0,13.0,11.5,7.0,1.25,2.25,0.5,2.75,0.25,0.0,1.0,0.08,0.14,0.95,950.68,-8.4,45.1
1.04,1.5,0.0,0.0,0.0,0.0,0.0,0.0,0.0,0.25,0.0,0.0,0.0,0.0,0.02,1.58,2.39,25.19,31.5,77.4,6.25,2.5,7.25,13.0,11.5,6.75,1.25,1.75,0.5,2.75,0.5,0.0,0.75,0.08,0.14,0.95,974.34,-9.1,46.4
1.06,1.0,0.0,0.0,0.0,0.0,0.0,0.0,0.0,0.25,0.0,0.0,0.0,0.25,0.58,2.14,1.52,27.49,22.3,37.2,6.75,3.0,7.25,14.0,11.5,6.75,1.25,1.5,0.5,2.75,0.25,0.0,0.75,0.08,0.14,1.02,998.58,-9.6,48.3
1.08,1.25,0.0,0.0,0.0,0.0,0.0,0.0,0.0,0.25,0.0,0.0,0.0,0.0,1.14,2.83,0.95,26.6,31.0,74.0,7.25,3.5,7.75,15.0,11.5,6.75,0.75,1.5,0.5,2.75,0.5,0.0,0.75,0.08,0.2,1.02,1030.5,-10.1,49.0
1.1,1.5,0.0,0.0,0.0,0.0,0.0,0.0,0.0,0.25,0.0,0.0,0.0,0.25,1.7,3.52,0.64,28.97,25.4,52.1,7.75,3.5,8.0,14.5,12.0,6.75,0.75,1.5,0.5,2.75,0.5,0.0,0.75,0.08,0.2,1.02,1063.86,-10.3,49.4
1.12,1.5,0.0,0.0,0.25,0.0,0.0,0.0,0.0,0.25,0.0,0.0,0.0,0.25,2.39,4.45,0.33,31.35,24.4,52.8,8.25,4.0,8.0,14.5,11.5,6.0,0.75,1.5,0.5,2.5,0.5,0.0,0.75,0.08,0.2,1.02,1083.68,-11.1,50.9
1.14,1.5,0.0,0.0,0.5,0.0,0.0,0.0,0.0,0.25,0.25,0.0,0.0,0.25,1.77,1.89,2.14,37.5,20.0,41.3,8.5,4.0,8.0,14.5,11.5,5.5,0.5,1.5,0.5,2.5,0.75,0.0,0.75,0.08,0.27,1.08,1091.82,-11.4,50.7
1.16,0.0,0.0,0.0,0.0,0.0,0.0,0.0,0.0,0.25,1.25,0.0,0.0,1.25,-1.42,-0.23,1.39,44.46,-12.3,-88.1,8.5,4.0,7.25,14.5,11.5,3.25,0.25,1.5,0.5,2.75,0.75,0.0,0.75,0.14,0.33,1.14,1067.45,-12.2,50.7
1.18,0.0,0.0,0.0,0.0,0.0,0.0,0.0,0.0,0.25,3.0,0.0,3.25,4.25,-0.05,-0.3,0.83,98.53,-6.9,-98.7,8.5,3.75,7.0,13.0,9.75,1.25,0.25,1.5,0.5,2.5,0.75,0.0,0.75,0.14,0.33,1.27,991.82,-13.9,51.3
1.2,1.25,0.0,0.0,0.0,0.0,0.0,0.0,0.0,0.0,5.75,1.25,5.75,6.75,1.02,0.52,2.39,192.51,-3.8,-86.7,8.0,3.0,5.75,12.0,8.75,0.0,0.25,1.5,0.5,2.25,0.5,0.0,0.75,0.27,0.39,1.39,870.83,-14.5,51.4
1.22,0.0,0.0,0.0,0.5,0.0,0.0,0.0,0.0,1.0,6.75,5.25,5.75,7.5,-0.55,0.27,1.89,292.04,-3.1,-88.7,7.25,1.0,2.25,6.25,7.5,0.0,0.25,1.5,0.25,2.25,0.5,0.0,0.75,0.64,0.95,2.02,668.89,-11.8,45.3
1.24,0.25,0.0,0.0,0.0,0.0,0.0,0.0,4.5,1.0,6.75,5.5,5.75,7.25,-0.17,0.27,1.14,399.66,-5.0,-82.3,5.5,0.5,0.5,4.25,2.75,0.0,0.25,1.5,0.25,2.5,0.5,0.0,0.75,0.58,1.33,2.95,443.13,-10.7,32.8
1.26,0.0,0.0,0.0,0.0,0.0,0.0,0.0,5.25,1.0,6.75,5.0,5.75,7.25,-0.11,0.02,1.02,492.08,-5.8,-82.7,2.25,0.0,0.5,1.75,2.5,0.0,0.25,1.5,0.0,0.25,0.25,0.0,0.0,-0.11,0.39,2.83,260.87,-9.7,42.9
1.28,0.0,0.0,0.0,0.5,0.0,0.0,0.0,5.25,1.0,6.75,5.5,5.25,6.75,-0.17,0.08,0.95,542.4,-5.3,-79.3,0.25,0.0,0.0,1.25,0.0,0.0,0.0,0.0,0.0,0.0,0.0,0.0,0.0,0.39,0.39,2.39,93.19,-19.8,63.9
1.3,0.0,0.0,0.0,0.5,1.5,0.75,0.0,5.75,1.0,6.75,5.5,5.0,6.75,-0.17,0.02,0.95,572.79,-5.8,-69.3,0.0,0.0,0.0,1.25,0.0,0.0,0.0,0.0,0.0,0.75,0.0,0.0,0.0,1.14,-0.36,1.7,0.0,-5.2,9.3
1.32,0.0,0.0,0.0,0.75,1.25,1.25,0.25,6.0,2.0,6.75,5.75,5.0,6.25,-0.11,0.08,0.95,595.59,-5.1,-66.0,0.0,0.0,0.0,0.5,0.0,0.0,0.0,0.0,0.0,0.25,0.0,0.0,0.0,0.83,-0.61,0.83,0.0,-6.5,14.7
1.34,1.25,0.0,0.0,1.75,0.0,2.0,0.25,6.0,2.0,6.0,5.75,4.0,6.0,-0.11,0.02,0.95,600.43,-3.6,-57.9,0.0,0.0,0.5,0.25,0.25,0.0,0.0,0.0,0.0,0.75,0.0,0.0,0.0,0.52,-1.55,1.45,0.0,-6.3,2.9
1.36,0.75,0.0,0.0,2.0,2.75,2.25,0.5,6.0,2.0,5.75,5.0,3.25,5.5,-0.11,0.02,0.95,594.79,-4.3,-45.9,0.0,0.0,0.25,0.75,0.0,0.0,0.0,0.0,0.0,0.0,0.0,0.0,0.0,0.45,-0.42,0.77,0.0,-22.4,58.6
1.38,1.5,0.0,0.25,2.0,2.75,2.5,0.75,6.0,2.5,4.75,3.5,2.25,4.25,-0.11,0.02,0.95,553.99,-3.2,-34.5,0.0,0.0,0.5,2.0,0.25,0.0,0.0,0.0,0.0,0.75,0.0,0.0,0.0,0.02,-0.42,0.39,0.0,-11.7,30.5
1.4,1.5,0.5,1.0,3.5,4.75,2.75,0.5,6.0,2.5,4.75,2.75,2.0,3.75,-0.11,0.08,0.95,530.25,-1.7,-18.4,0.0,0.0,1.25,0.25,2.5,0.0,0.0,0.0,0.0,0.0,0.0,0.0,0.0,0.27,-0.3,0.39,0.0,-9.9,55.9
1.42,1.75,1.0,1.25,4.5,5.25,3.25,0.5,6.0,2.25,3.0,2.25,1.0,2.75,-0.11,0.08,0.95,499.75,-0.2,-2.2,0.0,0.0,0.5,1.25,0.0,0.0,0.25,1.5,0.0,0.0,0.25,0.0,0.75,0.45,-0.3,0.64,0.0,-2.9,-11.3
1.44,2.0,1.0,0.5,6.5,6.0,3.75,0.75,5.5,2.0,2.5,1.75,1.0,1.75,-0.11,0.08,0.95,490.97,0.5,8.4,0.0,0.0,0.5,0.25,0.0,0.0,0.0,0.0,0.0,0.0,0.0,0.0,0.0,0.45,-0.3,0.77,0.0,-31.1,59.9
1.46,2.0,1.0,1.25,7.0,6.5,4.0,0.75,5.25,2.0,1.5,1.75,1.0,1.5,-0.11,0.08,0.95,492.28,2.0,14.6,0.0,0.0,0.5,0.0,0.0,0.0,0.0,0.0,0.0,0.5,0.0,0.0,0.0,0.39,-0.05,0.83,0.0,-11.6,-6.2
1.48,2.25,1.0,1.25,8.0,6.75,4.5,0.75,5.25,2.0,1.5,1.25,1.0,1.5,-0.11,0.08,0.95,510.5,2.1,18.0,0.0,0.0,0.5,0.0,0.0,0.0,0.0,0.0,0.0,0.0,0.0,0.0,0.0,0.39,0.2,0.89,0.0,-38.2,60.9
1.5,2.5,1.0,1.5,8.25,7.5,4.5,0.5,5.0,1.75,1.5,1.0,1.0,1.5,-0.11,0.08,0.95,531.61,2.4,21.2,0.0,0.0,0.5,1.0,0.0,0.0,0.0,0.0,0.0,1.25,0.0,0.0,0.0,0.33,0.33,1.08,17.61,-6.4,-0.8
1.52,3.25,1.25,2.0,9.0,8.0,4.5,0.75,5.0,1.25,1.25,0.75,0.5,1.0,-0.11,0.08,0.95,557.95,3.9,30.1,0.0,0.0,0.75,1.25,2.5,0.0,0.25,1.5,0.25,1.5,0.5,0.0,0.75,0.27,0.33,1.33,68.07,0.4,-2.2
1.54,3.0,1.0,2.25,10.0,8.0,4.5,0.75,4.5,1.0,1.5,0.25,0.0,1.0,-0.11,0.08,0.95,574.32,4.2,33.9,0.5,0.0,1.25,1.5,2.5,0.0,0.25,1.5,0.5,1.5,0.25,0.0,0.75,0.2,0.52,1.45,116.03,-3.3,7.3
1.56,3.25,1.75,2.75,10.5,8.25,4.75,0.75,4.5,1.0,1.25,0.25,0.0,1.0,-0.11,0.14,0.95,602.14,5.0,37.0,0.0,0.0,0.75,1.5,2.5,0.0,0.0,1.5,0.5,1.75,0.25,0.0,0.75,0.27,0.64,1.58,149.06,0.7,-1.9
1.58,3.25,2.25,3.0,11.5,8.5,4.75,0.75,4.0,1.0,0.75,0.25,0.0,0.75,-0.11,0.14,0.95,631.03,6.2,41.7,0.5,0.25,1.5,1.25,2.5,0.0,0.25,1.5,0.5,1.5,0.25,0.0,0.75,0.33,0.64,1.77,170.0,-4.0,9.5
1.6,3.25,2.5,3.0,11.5,8.5,4.75,1.0,3.25,0.75,0.75,0.25,0.0,0.75,-0.11,0.14,0.95,651.44,6.7,43.9,0.0,0.0,0.5,0.0,0.0,0.0,0.0,0.0,0.0,0.0,0.0,0.0,0.0,0.64,0.77,1.89,130.18,-38.2,60.9
1.62,3.25,2.5,3.0,11.5,8.5,4.5,0.75,3.0,0.75,0.5,0.25,0.0,0.5,-0.11,0.14,0.95,655.83,7.2,46.3,0.0,0.0,0.25,0.0,0.0,0.0,0.0,0.0,0.0,0.0,0.0,0.0,0.0,0.58,0.89,2.02,82.46,-38.2,60.9
1.64,3.25,2.5,4.25,12.5,8.75,4.5,1.0,3.0,0.25,0.5,0.25,0.0,0.5,-0.11,0.14,0.95,664.88,8.4,48.0,0.0,0.0,0.5,0.0,0.0,0.0,0.0,0.0,0.0,0.0,0.0,0.0,0.0,0.33,1.2,2.2,37.04,-38.2,60.9
1.66,3.25,2.5,4.75,12.5,8.75,4.5,1.0,2.75,0.25,0.5,0.0,0.0,0.5,-0.11,0.14,0.95,673.01,8.9,49.4,0.0,0.0,0.5,0.0,0.0,0.0,0.0,0.0,0.0,0.0,0.0,0.0,0.0,0.02,1.64,1.89,15.87,-38.2,60.9
1.68,4.75,2.5,5.25,13.0,9.0,3.75,1.0,2.25,0.25,0.0,0.25,0.0,0.5,-0.11,0.14,0.95,690.55,11.2,53.2,0.0,0.0,0.25,0.0,0.0,0.0,0.0,0.0,0.0,0.0,0.0,0.0,0.0,-0.23,2.14,0.89,2.26,-38.2,60.9
1.7,4.25,2.5,6.0,14.0,9.25,3.5,1.0,2.25,0.25,0.5,0.0,0.0,0.75,-0.11,0.14,1.02,715.44,11.2,51.4,0.0,0.0,0.0,0.0,0.0,0.0,0.0,0.0,0.0,0.0,0.0,0.0,0.0,-0.8,2.89,0.7,0.0,0.0,0.0
1.72,5.5,2.5,6.5,14.0,9.5,3.25,1.25,1.75,0.25,0.5,0.25,0.0,0.5,-0.11,0.14,1.02,746.77,12.6,53.9,0.0,0.0,0.0,0.0,0.0,0.0,0.0,0.0,0.0,0.5,0.0,0.0,0.0,-1.8,4.14,0.14,0.0,15.7,-75.5
1.74,2.75,3.5,5.75,14.0,9.5,2.75,1.25,1.5,0.25,0.5,0.0,0.0,0.5,-0.11,0.2,1.02,744.89,11.4,53.7,0.0,0.0,0.0,0.75,0.0,0.0,0.0,0.0,0.25,0.0,0.0,0.0,0.0,-2.17,3.39,0.45,0.0,-16.0,34.8
1.76,6.25,3.75,6.75,14.5,8.75,2.5,1.0,1.25,0.0,0.5,0.0,0.0,0.25,-0.11,0.2,1.02,761.68,14.4,59.3,0.0,0.0,0.0,0.0,0.0,0.0,0.0,0.25,0.0,1.25,0.75,0.0,0.0,-0.36,-0.3,0.39,0.0,7.1,-71.3
1.78,5.25,4.0,7.25,14.5,8.75,1.5,0.75,1.5,0.25,0.5,0.25,0.0,0.25,-0.17,0.27,1.08,765.67,14.7,57.6,0.0,0.0,0.0,0.0,1.0,0.0,0.25,0.0,0.0,2.5,0.0,1.5,3.0,1.14,-0.61,1.2,43.64,8.1,-74.9
1.8,7.25,3.75,7.5,14.0,8.25,0.0,0.25,1.5,0.0,0.5,0.0,0.0,0.25,-0.23,0.27,1.2,762.94,17.1,61.2,0.0,0.0,0.5,1.25,2.5,0.0,0.0,1.5,0.25,7.5,1.75,5.5,7.75,0.52,-0.36,1.58,195.16,5.1,-67.9
1.82,7.5,3.25,7.5,13.0,7.0,0.0,0.0,1.25,0.0,0.25,0.0,0.0,0.5,-0.23,0.33,1.33,732.73,18.1,61.8,0.0,0.0,0.5,0.0,2.5,0.0,0.0,1.5,0.0,8.25,3.25,6.0,8.25,-0.86,0.64,2.33,316.73,5.6,-75.4
1.84,6.25,2.5,7.25,11.0,0.0,0.0,0.0,1.5,0.0,0.0,0.0,0.0,0.25,-0.42,0.39,1.45,618.37,23.7,63.8,0.0,0.0,0.5,1.25,2.5,2.0,0.25,4.25,0.75,9.25,6.5,6.0,8.75,0.52,0.33,1.52,507.9,5.1,-63.5
1.86,7.0,1.75,6.0,8.0,0.0,0.0,0.0,0.75,0.0,0.0,0.0,0.0,0.0,-0.67,0.58,1.45,481.02,26.1,69.8,0.25,0.0,0.75,1.75,2.5,1.25,0.25,5.5,1.0,9.25,6.5,5.25,8.25,-0.11,0.2,1.14,651.3,4.4,-59.7
1.88,6.0,1.0,3.75,6.5,0.0,0.0,0.0,1.25,0.0,0.25,0.0,0.0,0.25,-1.05,0.89,2.27,349.92,23.3,62.1,1.25,0.0,0.75,1.25,2.75,2.0,0.25,5.75,1.0,9.25,6.5,5.0,8.25,0.2,0.08,0.95,757.77,4.3,-55.2
1.9,3.5,0.25,2.5,4.5,0.0,0.0,0.0,0.0,0.0,0.5,0.0,0.0,0.25,-1.05,1.14,2.39,246.77,24.7,61.2,1.0,0.0,0.75,1.25,2.75,4.0,0.25,6.25,1.25,9.0,6.0,4.0,8.0,0.14,0.08,0.89,798.57,5.7,-50.0
1.92,2.75,0.0,1.25,2.5,0.0,0.0,0.0,0.0,0.25,0.5,0.0,0.0,0.25,-0.17,0.45,3.14,146.97,23.5,54.2,1.25,0.0,0.75,1.5,3.25,4.25,0.25,6.25,1.25,8.75,5.75,4.0,7.75,0.14,0.08,0.95,819.49,5.4,-46.3
1.94,0.0,0.0,0.75,0.0,0.0,0.0,0.0,0.0,0.0,0.25,0.0,0.0,0.25,-0.86,0.08,2.52,33.01,17.2,0.0,1.25,0.0,1.0,1.5,4.5,4.5,0.25,6.25,1.25,8.5,5.5,3.25,7.5,0.14,0.08,0.95,815.82,5.3,-40.4
1.96,0.0,0.0,0.0,0.5,0.0,0.0,0.0,0.0,0.25,0.25,0.0,0.0,0.25,-1.36,-0.36,1.14,0.0,3.5,-20.6,0.25,0.0,1.5,1.75,5.5,5.5,0.25,6.25,1.25,8.25,4.75,2.75,6.75,0.14,0.08,0.95,793.77,6.1,-34.8
1.98,0.0,0.0,0.0,0.5,0.0,0.0,0.0,0.0,0.0,0.0,0.0,0.0,0.25,-1.61,-1.23,0.83,0.0,7.0,2.6,1.25,0.25,1.75,2.0,5.75,5.5,0.25,6.25,1.25,7.75,4.75,2.25,6.25,0.14,0.08,0.95,762.12,4.7,-27.6
2.0,0.0,0.0,0.5,0.0,0.0,0.0,0.0,0.0,0.0,0.0,0.0,0.0,0.25,-0.73,-0.67,-0.05,0.0,20.9,4.0,1.75,0.0,2.0,3.0,5.75,6.0,0.5,6.25,1.25,7.5,4.0,1.25,5.75,0.14,0.08,0.95,723.71,4.1,-20.0
2.02,0.0,0.0,1.0,0.75,0.0,0.0,0.0,0.0,0.0,0.25,0.0,0.0,0.25,-0.55,-0.05,0.14,0.0,19.5,26.3,1.25,0.75,2.0,4.0,5.75,6.0,0.5,6.0,1.25,6.75,3.0,1.0,5.0,0.14,0.08,0.95,675.8,3.7,-13.0
2.04,0.75,0.0,1.25,0.25,0.0,0.0,0.0,0.0,0.25,0.25,0.0,0.0,0.25,-0.36,-0.17,0.27,0.0,24.5,35.1,1.25,0.75,2.25,5.25,7.5,6.5,0.75,5.5,1.25,6.25,2.75,1.0,4.25,0.14,0.08,0.95,650.6,2.6,-4.1
2.06,1.0,0.0,1.25,0.25,0.0,0.0,0.0,0.0,0.25,0.25,0.0,0.0,0.25,-0.23,-0.11,0.64,0.0,25.3,39.6,1.0,1.0,3.0,6.25,7.5,6.5,0.75,5.5,1.25,5.75,2.75,0.75,3.5,0.14,0.08,0.95,652.61,1.3,1.5
2.08,0.5,0.0,1.25,0.5,0.0,0.0,0.0,0.0,0.25,0.25,0.0,0.0,0.25,-0.23,-0.05,0.58,0.0,23.1,32.2,1.25,1.25,3.5,7.0,8.25,7.0,1.25,5.5,1.25,5.5,2.75,0.75,2.75,0.14,0.08,0.95,675.0,0.1,7.5
2.1,0.0,0.0,0.0,0.5,0.0,0.0,0.0,1.25,0.25,0.25,0.0,0.0,0.25,-0.23,0.08,0.52,2.74,-6.4,-29.6,1.75,1.5,3.75,7.75,8.75,7.0,1.25,5.25,1.25,4.75,2.5,0.25,2.5,0.14,0.08,0.95,707.68,-0.9,14.2
2.12,0.5,0.0,0.0,0.5,0.0,0.0,0.0,1.0,0.0,0.0,0.0,0.0,0.25,-0.23,0.27,0.52,16.32,2.2,3.9,2.0,1.5,4.0,9.0,8.75,6.75,1.25,4.75,1.25,4.5,1.75,0.0,2.25,0.14,0.08,0.95,734.98,-1.9,19.6
2.14,0.25,0.0,0.0,0.5,0.0,0.0,0.0,1.25,0.25,0.0,0.0,0.0,0.25,-0.11,0.33,0.64,28.72,-1.7,-13.1,2.5,1.75,5.0,9.5,9.5,7.25,1.25,4.25,1.25,4.75,1.5,0.0,1.75,0.14,0.08,0.95,771.35,-3.1,24.5
2.16,0.0,0.0,0.0,0.5,0.0,0.0,0.0,1.25,0.25,0.0,0.0,0.0,0.25,-0.05,0.27,0.83,35.32,-5.4,-24.5,2.5,1.75,5.75,10.5,9.75,7.25,1.5,4.25,1.25,4.0,1.75,0.0,1.75,0.14,0.08,0.95,812.59,-4.2,26.8
2.18,0.25,0.0,0.0,0.5,0.0,0.0,0.0,1.25,0.0,0.0,0.0,0.0,0.5,-0.17,0.33,1.08,41.2,-4.3,-20.5,2.75,2.0,5.75,11.0,9.75,7.25,1.75,3.25,1.0,3.5,1.5,0.0,1.75,0.14,0.14,0.95,843.54,-5.1,30.9
2.2,0.75,0.0,0.0,0.5,0.0,0.0,0.0,1.25,0.25,0.0,0.0,0.0,0.25,-0.36,0.33,1.2,43.92,4.0,4.2,3.75,2.0,6.75,11.5,10.0,7.0,1.75,3.0,0.5,3.0,1.0,0.25,1.5,0.14,0.14,0.95,871.5,-6.8,36.0
2.22,0.75,0.0,0.0,0.5,0.0,0.0,0.0,1.25,0.0,0.0,0.0,0.0,0.25,-0.55,0.39,1.33,45.23,3.2,8.1,3.75,1.75,7.25,12.0,11.0,6.75,2.0,3.0,0.75,3.0,0.75,0.0,1.25,0.08,0.14,0.95,897.99,-7.2,38.0
2.24,0.75,0.0,0.0,0.5,0.0,0.0,0.0,1.25,0.25,0.0,0.0,0.0,0.25,-0.55,0.45,1.45,46.42,4.0,4.2,4.5,2.25,7.25,13.0,11.0,6.75,2.0,2.5,0.5,1.5,0.5,0.0,1.25,0.08,0.14,0.95,917.3,-8.6,44.5
2.26,0.75,0.0,0.0,0.5,0.0,0.0,0.0,0.0,0.25,0.0,0.0,0.0,0.25,-0.61,0.52,1.52,39.81,19.0,35.3,5.0,2.5,8.0,13.0,11.5,6.75,2.0,1.75,0.75,2.75,0.5,0.0,0.75,0.08,0.14,0.95,946.52,-9.2,45.0
2.28,0.5,0.0,0.0,0.5,0.0,0.0,0.0,0.5,0.25,0.25,0.0,0.0,0.0,-0.61,0.58,1.58,35.83,8.0,14.2,5.25,2.5,8.0,13.0,11.5,6.5,2.0,1.75,0.5,2.5,0.25,0.0,0.75,0.08,0.14,0.95,960.84,-9.5,46.7
2.3,0.0,0.0,0.25,0.5,0.0,0.0,0.0,1.25,0.25,0.0,0.25,0.0,0.25,-0.61,0.52,1.7,35.64,0.0,-21.0,5.75,2.5,8.75,13.0,11.5,6.5,2.25,1.5,0.5,2.5,0.5,0.0,0.75,0.08,0.14,0.95,980.92,-10.3,47.1
2.32,0.5,0.0,0.0,0.5,0.0,0.0,0.0,1.25,0.0,0.0,0.0,0.0,0.25,-0.3,0.64,1.77,37.35,0.3,-0.2,5.75,2.5,8.75,13.5,11.5,6.0,2.25,1.5,0.5,2.0,0.5,0.0,0.75,0.08,0.14,0.95,985.61,-10.8,48.4
2.34,0.5,0.0,0.0,0.5,0.0,0.0,0.0,1.25,0.0,0.0,0.0,0.0,0.25,-0.17,0.77,1.52,39.33,0.3,-0.2,6.25,2.5,9.0,13.5,11.5,4.5,2.25,1.5,0.5,2.25,0.5,0.0,0.75,0.08,0.14,0.95,986.43,-11.9,48.7
2.36,0.0,0.0,0.0,0.5,0.0,0.0,0.0,0.0,0.25,0.0,0.0,0.0,0.25,-0.05,0.95,1.39,31.97,8.2,-7.2,7.0,2.5,9.25,14.5,11.5,4.75,2.25,1.5,0.5,2.75,0.25,0.0,0.75,0.08,0.14,0.95,999.74,-12.0,48.9
2.38,0.75,0.0,0.0,0.5,0.0,0.0,0.0,1.25,0.25,0.0,0.0,0.0,0.25,0.2,1.2,1.33,35.33,4.0,4.2,7.25,2.75,9.5,14.5,11.5,5.75,2.25,1.5,0.5,2.5,0.5,0.0,0.75,0.08,0.2,1.02,1023.55,-11.8,49.1
2.4,1.5,0.0,0.0,0.5,0.0,0.0,0.0,1.25,0.25,0.0,0.0,0.0,0.25,0.14,1.39,1.39,42.44,9.9,22.0,8.0,2.75,10.5,14.5,11.5,5.0,1.75,1.5,0.5,2.5,0.25,0.0,0.75,0.08,0.2,1.14,1053.33,-12.8,50.7
2.42,1.5,0.0,0.0,0.5,0.0,0.0,0.0,1.25,0.25,0.25,0.0,0.0,0.0,-0.11,1.58,0.58,52.08,9.8,24.6,8.25,2.75,11.0,14.5,11.0,4.25,1.25,1.5,0.5,2.5,0.25,0.0,0.75,0.08,0.27,1.2,1069.29,-13.6,51.2
2.44,1.5,0.0,0.0,0.5,0.0,0.0,0.0,1.25,0.25,0.5,0.0,0.0,0.25,0.14,2.14,0.33,61.01,6.8,10.3,7.75,1.0,9.25,9.5,6.0,0.0,0.25,0.5,0.0,0.25,0.0,0.0,0.0,0.39,0.39,1.64,885.08,-21.6,64.7
2.46,1.5,0.0,0.0,0.5,0.0,0.0,0.0,1.25,0.25,0.5,0.0,0.0,0.25,0.33,2.14,0.45,67.73,6.8,10.3,7.0,0.0,8.0,7.0,4.5,0.0,0.75,0.0,0.0,0.0,0.0,0.0,0.0,0.58,0.52,1.7,661.96,-24.0,67.0
2.48,0.0,0.0,0.0,0.0,0.0,0.0,0.0,0.5,0.25,1.25,0.0,0.0,0.75,0.7,2.95,-0.05,64.37,-12.8,-75.1,5.25,0.0,5.0,4.0,2.25,0.0,0.5,0.5,0.0,0.5,0.0,0.0,0.0,0.77,0.83,2.89,414.46,-23.4,62.2
2.5,0.0,0.0,0.0,0.0,0.0,0.0,0.0,1.25,0.25,5.0,0.0,5.0,6.0,-1.42,0.27,3.14,146.03,-7.7,-94.1,2.25,0.0,1.75,2.0,0.0,0.0,0.25,0.0,0.0,0.25,0.0,0.0,0.0,-0.23,0.58,3.83,234.9,-28.0,66.1
2.52,0.0,0.0,0.0,0.0,0.0,0.0,0.0,0.75,0.5,6.25,3.5,5.5,7.25,-0.3,0.7,2.39,241.12,-5.1,-92.2,0.5,0.0,1.0,1.25,0.0,0.0,0.0,0.0,0.0,0.0,0.0,0.0,0.0,0.08,0.2,2.58,74.61,-27.9,65.6
2.54,1.5,0.0,0.0,0.0,0.0,0.0,0.0,4.25,0.5,5.75,5.0,5.0,6.75,-0.11,0.27,1.77,339.93,-3.6,-75.2,0.0,0.0,0.5,1.25,0.0,0.0,0.0,0.0,0.0,0.0,0.0,0.0,0.0,0.7,-0.61,2.14,0.0,-23.1,58.7
2.56,0.5,0.0,0.0,0.25,0.0,0.0,0.0,4.5,0.25,5.75,4.25,4.0,6.0,-0.11,0.02,1.02,402.36,-5.7,-77.8,0.0,0.0,0.75,0.5,0.0,0.0,0.0,0.0,0.0,0.5,0.0,0.0,0.0,0.77,-1.92,-0.42,0.0,-17.1,22.0
2.58,0.5,0.0,0.0,0.5,0.0,0.75,0.0,5.25,1.25,6.0,4.5,4.0,5.75,-0.17,0.2,1.02,456.99,-5.5,-71.0,0.0,0.5,0.5,1.5,0.0,0.0,0.0,0.0,0.5,1.75,0.0,0.0,0.0,0.7,-1.67,1.52,0.0,-6.5,4.5
2.6,0.0,0.0,0.0,0.5,2.0,1.75,0.0,5.75,1.25,6.0,5.25,4.0,5.5,-0.11,0.08,1.02,491.28,-6.1,-60.7,0.0,0.0,0.75,0.75,0.0,0.0,0.0,0.0,0.0,0.0,0.0,0.0,0.0,0.33,-0.73,1.14,0.0,-27.6,59.4
2.62,1.25,0.0,0.0,0.5,2.25,2.0,0.0,5.75,1.75,5.75,5.0,3.0,5.25,-0.11,0.02,0.95,513.55,-4.9,-50.9,0.0,0.0,0.75,1.25,0.0,0.0,0.0,0.0,0.0,0.0,0.0,0.0,0.0,-0.05,-0.67,0.7,0.0,-25.0,59.0
2.64,0.0,0.0,0.0,1.75,2.75,2.75,0.0,6.0,1.5,4.75,3.5,2.0,4.0,-0.17,0.02,0.95,504.61,-6.7,-41.2,0.0,0.0,0.5,0.5,0.0,0.0,0.0,0.0,0.0,0.0,0.0,0.0,0.0,0.08,-0.23,1.14,0.0,-27.6,59.4
2.66,3.5,0.5,1.0,2.5,4.0,3.75,0.0,5.75,1.5,2.5,2.75,1.0,2.5,-0.17,0.08,0.95,498.79,-0.2,-3.4,0.0,0.0,0.5,0.5,0.0,0.0,0.0,0.0,0.0,0.5,0.0,0.0,0.0,0.14,0.2,1.14,0.0,-13.5,15.5
2.68,6.0,1.0,1.25,4.75,6.25,5.0,0.25,5.25,1.0,1.5,0.75,1.0,1.25,-0.11,0.14,1.02,516.74,3.2,25.4,0.0,0.0,0.5,0.5,0.25,0.0,0.0,0.0,0.0,0.25,0.0,0.0,0.0,0.2,0.77,0.95,0.0,-15.1,36.9
2.7,6.75,1.75,1.5,6.75,7.25,5.25,0.25,4.5,0.5,1.25,0.25,0.0,1.0,-0.17,0.14,1.02,551.6,4.9,39.8,0.0,0.0,0.5,0.25,0.0,0.0,0.0,0.0,0.0,0.0,0.0,0.0,0.0,0.14,0.95,0.7,0.0,-31.1,59.9
2.72,7.25,2.5,2.25,8.0,7.75,5.5,0.0,3.25,0.25,0.75,0.25,0.0,0.75,-0.11,0.14,1.08,594.82,7.1,48.2,0.0,0.0,0.75,0.0,0.0,0.0,0.0,0.0,0.0,0.25,0.0,0.0,0.0,-0.05,1.2,0.95,0.0,-25.0,27.5
2.74,7.25,2.5,2.5,7.25,8.0,5.0,0.0,3.0,0.0,0.5,0.25,0.0,0.5,-0.17,0.14,1.39,606.4,7.8,51.4,0.0,0.0,0.5,0.5,0.0,0.0,0.0,0.0,0.0,0.5,0.0,0.0,0.0,-0.61,1.58,0.95,11.57,-13.5,15.5
2.76,0.0,3.75,0.0,8.0,8.0,4.75,0.0,1.5,0.0,0.5,0.0,0.0,0.5,-0.17,0.2,1.08,551.57,0.6,47.8,0.0,0.0,0.5,0.25,0.0,0.0,0.0,0.0,0.0,0.25,0.0,0.0,0.0,-0.86,1.45,1.14,14.92,-19.7,26.9
2.78,0.0,4.0,0.0,8.0,8.0,4.5,0.0,1.5,0.25,0.5,0.0,0.0,0.5,-0.11,0.2,1.08,493.82,1.0,47.6,0.0,0.0,0.75,0.25,0.0,0.0,0.0,0.0,0.0,0.0,0.0,0.0,0.0,-0.98,1.39,1.52,15.21,-32.9,60.2
2.8,7.75,3.75,0.0,7.75,7.75,0.0,0.0,1.25,0.0,0.0,0.0,0.0,0.25,-0.17,0.27,1.02,455.34,13.0,66.1,0.0,0.0,0.5,0.0,0.0,0.0,0.0,0.0,0.0,0.25,0.0,0.0,0.0,-1.3,1.39,1.39,12.45,-20.6,16.3
2.82,7.75,4.0,0.0,6.5,8.0,0.0,0.0,0.0,0.0,0.5,0.0,0.0,0.25,-0.36,0.39,1.2,427.69,13.4,68.8,0.0,0.0,0.5,0.0,0.0,0.0,0.0,0.0,0.0,0.25,0.0,0.0,0.0,-1.36,1.02,1.45,9.99,-20.6,16.3
2.84,8.25,4.0,0.0,5.0,0.0,0.0,0.0,0.0,0.0,0.25,0.0,0.0,0.25,-0.61,0.45,1.27,359.36,22.9,80.7,0.0,0.0,0.5,0.0,0.0,0.0,0.0,0.0,0.0,0.0,0.0,0.0,0.0,-1.3,0.7,1.33,9.7,-38.2,60.9
2.86,0.0,4.0,0.0,4.5,0.0,0.0,0.0,0.0,0.0,0.25,0.25,0.0,0.25,-0.73,0.77,1.27,272.5,13.3,64.2,0.0,0.0,0.5,0.0,0.0,0.0,0.0,0.0,0.0,0.25,0.0,0.0,0.0,-0.73,0.33,0.89,9.32,-20.6,16.3
2.88,7.5,4.0,0.75,2.5,0.0,0.0,0.0,0.0,0.0,0.0,0.0,0.0,0.25,-0.92,0.95,1.7,220.8,24.9,85.5,0.0,0.0,0.5,0.0,0.0,0.0,0.0,0.0,0.0,0.25,0.0,0.0,0.0,-0.48,-0.17,0.77,10.0,-20.6,16.3
2.9,0.0,2.25,0.75,1.5,0.0,0.0,0.0,0.0,0.0,0.25,0.0,0.0,0.25,-1.98,1.58,1.27,129.38,15.1,61.9,0.0,0.0,0.5,0.0,0.0,0.0,0.0,0.0,0.0,0.0,0.0,0.0,0.0,-0.73,-0.17,0.77,9.05,-38.2,60.9
2.92,0.0,1.0,0.0,0.5,0.0,0.0,0.0,0.0,0.0,0.0,0.0,0.0,0.25,-2.67,2.52,0.02,46.24,10.1,57.4,0.0,0.0,0.5,0.0,0.0,0.0,0.0,0.0,0.0,2.0,0.0,0.0,0.0,-1.17,0.02,1.02,19.65,4.6,-47.5
2.94,0.0,0.0,0.0,0.0,0.0,0.0,0.0,0.0,0.0,0.5,0.0,0.25,0.25,-3.3,2.64,0.95,0.0,-9.1,-92.7,0.0,0.0,1.75,1.25,2.5,0.0,0.0,1.5,0.25,2.0,0.5,0.0,0.75,-1.05,0.08,0.89,75.21,-2.0,0.0
2.96,0.0,0.0,0.0,0.0,0.0,0.0,0.0,0.0,0.25,0.0,0.0,0.25,0.0,-0.42,4.27,2.58,0.0,10.5,-74.3,0.0,0.0,1.75,1.75,2.5,0.0,0.25,1.5,0.25,1.5,0.25,0.0,0.75,-0.8,0.27,0.52,123.29,-3.7,8.2
2.98,1.5,0.0,0.0,0.5,0.0,0.0,0.5,0.0,0.0,0.25,0.0,0.0,0.0,4.95,-0.86,2.64,0.0,25.6,64.2,0.0,0.0,1.75,0.0,2.5,0.0,0.25,1.5,0.0,0.0,0.5,0.0,0.75,-0.86,0.39,0.08,146.3,-4.3,11.6
3.0,1.5,0.0,0.0,0.25,0.0,0.0,0.0,0.0,0.25,0.25,0.0,0.0,0.0,1.77,-1.86,1.83,0.0,24.3,57.3,0.0,0.0,0.5,0.0,0.0,0.0,0.0,0.0,0.0,0.25,0.0,0.0,0.0,-0.92,-0.05,0.33,118.15,-20.6,16.3
3.02,1.5,0.0,0.0,0.5,0.0,0.0,0.0,0.0,0.25,0.25,0.0,0.0,0.25,0.89,-1.61,1.02,0.0,20.0,41.3,0.0,0.0,0.5,0.25,0.0,0.0,0.0,0.0,0.0,1.25,0.0,0.0,0.0,-0.98,-0.8,0.58,86.52,-2.2,-23.6
3.04,1.25,0.0,0.0,0.5,0.0,0.0,0.0,0.0,0.25,0.0,0.0,0.0,0.25,-0.23,-0.61,0.89,0.0,22.4,48.6,0.0,0.0,1.0,1.25,2.5,0.0,0.25,1.5,0.25,1.5,0.25,0.0,1.0,-0.98,-0.98,0.83,95.16,0.0,-1.5
3.06,1.25,0.0,0.0,0.5,0.0,0.0,0.0,0.0,0.25,0.25,0.0,0.0,0.0,-0.36,-0.67,0.64,0.0,22.3,53.1,0.0,0.0,1.5,1.75,2.5,0.0,0.0,1.5,0.25,1.5,0.25,0.0,0.75,-1.23,-0.8,1.08,122.55,-2.6,6.7
3.08,0.0,0.0,0.0,0.5,0.0,0.0,0.0,1.25,0.0,0.0,0.0,0.0,0.25,-0.92,0.14,0.64,2.67,-7.6,-22.8,0.0,0.0,1.75,1.25,2.5,0.0,0.0,1.5,0.25,1.5,0.25,0.0,0.75,-1.55,-0.42,0.89,152.13,-2.7,5.5
3.1,1.0,0.0,0.0,0.5,0.0,0.0,0.0,1.25,0.0,0.25,0.0,0.0,0.25,-1.36,2.08,0.2,20.5,4.1,8.1,0.0,0.25,1.5,1.0,2.5,0.0,0.25,1.5,0.25,1.5,0.5,0.0,0.75,-1.55,-0.05,1.2,168.15,-2.2,3.4
3.12,1.0,0.0,0.0,0.25,0.0,0.0,0.0,0.0,0.0,0.0,0.0,0.0,0.25,-2.67,2.27,-1.73,21.19,23.1,53.8,0.0,0.0,1.25,1.25,2.5,0.0,0.0,1.5,0.25,1.75,0.25,0.0,0.75,-1.05,0.52,1.02,170.49,-0.4,0.6
3.14,1.5,0.0,0.0,0.5,0.0,0.0,0.0,0.0,0.0,0.25,0.0,0.0,0.25,-3.17,2.14,-0.8,37.25,20.7,49.4,0.0,0.0,0.5,0.0,0.0,0.0,0.0,0.0,0.0,0.25,0.0,0.0,0.0,-0.67,0.64,1.45,120.51,-20.6,16.3
3.16,0.75,0.0,0.0,0.5,0.0,0.0,0.0,1.25,0.0,0.25,0.0,0.0,0.25,-2.05,2.39,-0.17,42.84,1.7,1.0,0.0,0.0,0.5,0.0,0.0,0.0,0.0,0.0,0.0,0.0,0.0,0.0,0.0,-0.42,0.83,1.58,69.22,-38.2,60.9
3.18,0.5,0.0,0.0,0.5,0.0,0.0,0.0,1.25,0.25,0.25,0.0,0.0,0.25,-1.55,1.89,-0.05,46.84,0.0,-9.7,0.0,0.0,0.5,0.0,0.0,0.0,0.0,0.0,0.0,0.0,0.0,0.0,0.0,-0.11,1.2,1.08,21.27,-38.2,60.9
3.2,0.5,0.0,0.0,0.5,0.0,0.0,0.0,0.0,0.25,0.0,0.0,0.0,0.25,-0.86,1.52,0.39,40.24,16.6,25.5,0.0,0.0,0.5,0.0,0.0,0.0,0.0,0.0,0.0,0.0,0.0,0.0,0.0,-0.61,1.39,0.45,1.39,-38.2,60.9
3.22,0.0,0.0,0.0,0.25,0.0,0.0,0.0,0.0,0.25,0.25,0.0,0.0,0.25,-0.11,1.33,0.7,30.16,0.0,-40.8,0.0,0.0,0.5,0.0,0.0,0.0,0.0,0.0,0.0,0.0,0.0,0.0,0.0,-0.67,1.08,0.33,0.0,-38.2,60.9
3.24,0.0,0.0,0.0,0.5,0.0,0.0,0.0,0.0,0.25,0.0,0.0,0.0,0.25,0.52,0.77,0.45,21.42,8.2,-7.2,0.0,0.0,0.5,0.0,0.0,0.0,0.0,0.0,0.0,0.0,0.0,0.0,0.0,-0.36,0.52,-0.05,0.0,-38.2,60.9
3.26,0.25,0.0,0.0,0.5,0.0,0.0,0.0,0.0,0.25,0.25,0.0,0.0,0.25,0.45,0.33,0.08,17.88,8.4,-2.3,0.0,0.0,0.25,0.0,0.0,0.0,0.0,0.0,0.0,0.0,0.0,0.0,0.0,-0.3,-0.11,0.08,0.0,-38.2,60.9
3.28,0.0,0.0,0.0,0.5,0.0,0.0,0.0,0.0,0.25,0.0,0.0,0.0,0.25,0.27,0.33,-0.05,15.38,8.2,-7.2,0.0,0.0,0.5,0.25,0.0,0.0,0.0,0.0,0.0,0.0,0.0,0.0,0.0,-0.11,-0.92,0.77,0.0,-31.1,59.9
3.3,0.0,0.0,0.0,0.5,0.0,0.0,0.0,0.0,0.25,0.0,0.0,0.0,0.25,0.14,0.2,0.08,14.5,8.2,-7.2,0.0,0.0,0.5,0.0,0.0,0.0,0.0,0.0,0.0,0.0,0.0,0.0,0.0,-0.11,-0.92,0.27,0.0,-38.2,60.9
3.32,0.0,0.0,0.0,0.5,0.0,0.0,0.0,0.0,0.25,0.0,0.0,0.0,0.25,-0.05,0.2,0.14,13.15,8.2,-7.2,0.0,0.0,0.5,0.0,0.0,0.0,0.0,0.0,0.0,0.0,0.0,0.0,0.0,-0.3,-0.8,0.08,0.0,-38.2,60.9
3.34,0.0,0.0,0.0,0.5,0.0,0.0,0.0,0.0,0.25,0.25,0.0,0.0,0.25,-0.17,0.14,0.14,13.04,3.5,-20.6,0.0,0.0,0.5,0.0,0.0,0.0,0.0,0.0,0.0,0.0,0.0,0.0,0.0,-0.55,-0.73,0.33,0.0,-38.2,60.9
3.36,0.0,0.0,0.0,0.5,0.0,0.0,0.0,1.25,0.25,0.25,0.0,0.0,0.25,-0.42,0.2,0.14,21.32,-6.4,-29.6,0.0,0.0,0.5,1.25,0.0,0.0,0.0,0.0,0.0,2.0,0.0,0.0,0.0,-0.67,-0.61,0.39,18.22,-2.8,-11.4
3.38,0.5,0.0,0.0,0.5,0.0,0.0,0.0,1.25,0.25,0.0,0.0,0.0,0.25,-0.8,0.33,0.27,29.76,1.4,-3.7,0.0,0.0,1.25,0.0,2.5,0.0,0.25,0.0,0.0,0.0,0.0,0.0,0.0,-0.86,-0.48,0.45,48.25,-10.1,55.0
3.4,0.0,0.0,0.0,0.5,0.0,0.0,0.0,1.25,0.25,0.5,0.0,0.0,0.25,-2.67,1.08,0.58,38.13,-7.3,-33.7,0.0,0.0,0.5,0.0,0.0,0.0,0.0,0.0,0.0,0.0,0.0,0.0,0.0,-0.98,-0.42,0.64,45.62,-38.2,60.9
3.42,0.25,0.0,0.0,0.5,0.0,0.0,0.0,0.0,0.0,0.0,0.0,0.0,0.25,-4.17,-0.11,-1.17,34.75,13.4,24.5,0.0,0.0,0.5,0.0,0.0,0.0,0.0,0.0,0.0,0.5,0.0,0.0,0.0,-1.11,-0.36,0.52,39.04,-11.6,-6.2
3.44,0.0,0.0,0.0,0.75,0.0,0.0,0.0,0.75,0.25,0.0,0.0,0.0,0.25,-1.92,0.14,0.2,35.21,0.2,-10.4,0.0,0.0,0.0,0.0,0.0,0.0,0.0,0.0,0.0,0.0,0.0,0.0,0.0,-1.17,-0.3,0.45,22.14,0.0,0.0
3.46,0.25,0.0,0.0,0.5,0.0,0.0,0.0,0.0,0.25,0.0,0.0,0.0,0.25,-0.86,0.33,0.14,29.05,13.2,12.1,0.0,0.5,0.5,1.25,0.0,0.0,0.0,0.0,0.25,1.5,0.0,0.0,0.0,-0.98,-0.36,0.39,33.35,-6.8,8.6
3.48,0.25,0.0,0.0,0.5,0.0,0.0,0.0,0.0,0.25,0.0,0.0,0.0,0.25,-0.67,0.39,0.02,25.83,13.2,12.1,0.25,0.0,0.75,1.25,2.5,0.0,0.25,1.5,0.0,1.5,0.0,0.0,0.0,-0.92,-0.61,0.45,69.48,-0.7,15.9
3.5,1.5,0.0,0.0,0.5,0.0,0.0,0.0,1.25,0.25,0.25,0.0,0.0,0.25,-0.55,0.77,-0.17,37.73,8.2,15.8,0.0,0.0,0.75,0.5,0.0,0.0,0.0,0.0,0.0,0.25,0.0,0.0,0.0,-1.36,-1.42,1.08,71.58,-22.4,37.8
3.52,1.25,0.0,0.0,0.5,0.0,0.0,0.0,1.0,0.25,0.25,0.0,0.0,0.25,-0.55,0.83,-1.11,48.28,8.3,14.2,0.0,0.0,0.25,1.0,0.0,0.0,0.0,0.0,0.0,1.5,0.0,0.0,0.0,-1.11,-0.98,0.58,70.45,-1.5,-13.1
3.54,1.5,0.0,0.0,0.5,0.0,0.0,0.0,1.25,0.25,0.0,0.0,0.0,0.25,-0.67,1.08,0.08,58.35,9.9,22.0,0.0,0.0,0.0,0.0,0.0,0.0,0.0,0.0,0.0,0.0,0.0,0.0,0.0,-0.98,-0.61,0.89,42.88,0.0,0.0
3.56,1.5,0.0,0.0,0.5,0.0,0.0,0.0,1.25,0.25,0.25,0.0,0.0,0.25,-0.98,0.89,0.08,63.87,8.2,15.8,0.0,0.0,0.0,0.0,0.0,0.0,0.0,0.0,0.0,0.0,0.0,0.0,0.0,-1.17,-0.48,0.7,21.75,0.0,0.0
3.58,1.5,0.0,0.0,0.5,0.0,0.0,0.0,1.25,0.0,0.0,0.0,0.0,0.25,-1.73,0.52,-0.23,65.06,9.7,26.4,0.0,0.0,0.0,0.0,0.0,0.0,0.0,0.0,0.0,0.25,0.0,0.0,0.0,-1.3,-0.36,0.64,3.0,15.7,-75.5
3.6,0.0,0.0,0.0,0.5,0.0,0.0,0.0,0.75,0.0,0.0,0.0,0.0,0.25,-1.55,0.39,0.08,51.86,-4.6,-17.6,0.0,0.0,0.25,1.25,0.0,0.0,0.0,0.0,0.25,1.5,0.0,0.0,0.25,-1.3,-0.55,0.52,16.16,-2.3,-16.6
3.62,0.0,0.0,0.0,0.5,0.0,0.0,0.0,1.0,0.0,0.0,0.0,0.0,0.25,-0.98,0.39,0.39,41.87,-6.3,-20.6,0.0,0.0,0.75,1.5,2.5,0.0,0.0,1.5,0.25,1.75,0.25,0.0,0.75,-0.61,-0.48,0.7,65.88,1.0,-1.0
3.64,0.75,0.0,0.0,0.25,0.0,0.0,0.0,1.25,0.0,0.0,0.0,0.0,0.25,-0.36,0.52,0.14,37.66,1.8,2.8,0.0,0.0,0.75,1.25,2.5,0.0,0.25,1.5,0.0,1.5,0.25,0.0,1.0,-0.36,-0.55,0.33,109.31,1.4,-2.3
3.66,0.0,0.0,0.0,0.25,0.0,0.0,0.0,1.25,0.0,0.0,0.0,0.0,0.25,-0.86,0.33,0.2,33.42,-11.3,-34.8,0.0,0.0,0.75,1.25,2.5,0.0,0.0,1.5,0.0,1.75,0.5,0.0,0.75,-0.36,-0.61,0.39,139.36,1.6,-3.5
3.68,0.0,0.0,0.0,0.5,0.0,0.0,0.0,1.25,0.25,0.0,0.0,0.0,0.25,-0.73,0.52,0.2,32.29,-5.4,-24.5,0.0,0.0,0.75,1.25,2.5,0.0,0.0,1.25,0.25,1.5,0.25,0.0,0.75,-0.3,-0.61,0.39,150.22,0.7,0.3
3.7,0.5,0.0,0.0,0.5,0.0,0.0,0.0,1.25,0.25,0.25,0.0,0.0,0.25,-0.92,0.58,-0.05,36.44,0.0,-9.7,0.0,0.0,0.75,1.0,2.5,0.0,0.0,1.25,0.0,1.5,0.25,0.0,0.75,-0.23,-0.61,0.52,149.48,1.7,-0.2
3.72,0.0,0.0,0.0,0.25,0.0,0.0,0.0,1.25,0.25,0.25,0.0,0.0,0.25,-0.8,0.64,0.02,35.69,-9.2,-39.7,0.0,0.0,0.75,1.25,2.5,0.0,0.0,1.5,0.0,1.75,0.25,0.0,0.75,-0.23,-0.67,0.64,150.34,1.9,-1.6
3.74,0.5,0.0,0.0,0.5,0.0,0.0,0.0,1.25,0.25,0.25,0.0,0.0,0.25,-0.73,0.7,0.02,37.42,0.0,-9.7,0.0,0.0,0.75,0.75,2.5,0.0,0.0,1.5,0.25,1.5,0.25,0.0,0.75,-0.3,-0.67,0.64,154.29,2.3,-4.2
3.76,0.0,0.0,0.0,0.75,0.0,0.0,0.0,1.25,0.25,0.0,0.0,0.0,0.25,-0.8,0.77,0.02,38.4,-3.1,-16.0,0.0,0.0,0.75,1.25,2.5,0.0,0.0,1.25,0.25,1.5,0.25,0.0,0.75,-0.48,-0.67,0.64,154.91,0.7,0.3
3.78,0.0,0.0,0.0,0.25,0.0,0.0,0.0,1.25,0.0,0.25,0.0,0.0,0.25,-0.86,0.7,0.08,36.69,-11.8,-39.8,0.0,0.25,0.75,1.25,2.25,0.0,0.0,1.25,0.25,1.5,0.25,0.0,0.75,-0.61,-0.67,0.64,154.12,0.3,1.4
3.8,0.0,0.0,0.0,0.25,0.0,0.0,0.0,1.25,0.0,0.25,0.0,0.0,0.25,-0.92,0.58,0.08,33.98,-11.8,-39.8,0.0,0.0,0.5,1.25,2.5,0.0,0.0,1.5,0.0,2.0,0.25,0.0,0.75,-0.61,-0.67,0.58,151.54,3.4,-5.4
3.82,0.75,0.0,0.0,0.25,0.0,0.0,0.0,1.25,0.0,0.0,0.0,0.0,0.25,-0.86,0.58,0.2,35.91,1.8,2.8,0.0,0.0,0.75,1.25,2.5,0.0,0.0,1.25,0.0,1.75,0.25,0.0,0.5,-0.61,-0.73,0.58,144.92,1.1,2.5
3.84,0.25,0.0,0.0,0.5,0.0,0.0,0.0,1.25,0.0,0.0,0.0,0.0,0.25,-0.8,0.58,0.27,36.82,-3.2,-10.4,0.0,0.0,0.75,1.25,2.5,0.0,0.0,1.25,0.25,1.5,0.25,0.0,0.75,-0.67,-0.8,0.64,138.73,0.7,0.3
3.86,0.25,0.0,0.0,0.5,0.0,0.0,0.0,1.25,0.0,0.25,0.0,0.0,0.25,-0.86,0.58,0.14,37.63,-4.4,-16.8,0.0,0.0,0.75,1.25,2.5,0.0,0.0,1.25,0.0,1.5,0.25,0.0,0.75,-0.67,-0.8,0.64,132.75,1.1,1.4
3.88,0.75,0.0,0.0,0.5,0.0,0.0,0.0,0.0,0.25,0.0,0.0,0.0,0.25,-0.86,0.52,0.14,34.76,19.0,35.3,0.0,0.0,0.75,1.25,2.5,0.0,0.0,1.25,0.0,1.5,0.25,0.0,0.75,-0.73,-0.67,0.58,132.54,1.1,1.4
3.9,0.75,0.0,0.0,0.5,0.0,0.0,0.0,0.0,0.25,0.0,0.0,0.0,0.25,-0.86,0.58,0.08,32.59,19.0,35.3,0.0,0.0,0.75,1.25,2.5,0.0,0.0,1.25,0.0,1.5,0.5,0.0,0.75,-0.67,-0.67,0.58,133.04,0.8,-0.5
3.92,0.75,0.0,0.0,0.25,0.0,0.0,0.0,0.0,0.0,0.0,0.0,0.0,0.0,-0.8,0.64,0.08,25.08,30.1,87.0,0.0,0.0,0.5,0.25,2.5,0.0,0.0,1.5,0.0,1.75,0.25,0.0,0.75,-0.67,-0.61,0.52,128.43,5.7,-11.5
3.94,0.75,0.0,0.0,0.5,0.0,0.0,0.0,0.0,0.0,0.0,0.0,0.0,0.25,-0.8,0.64,0.02,22.64,20.2,47.6,0.25,0.0,0.75,1.25,2.5,0.0,0.25,1.25,0.0,1.5,0.25,0.0,0.75,-0.61,-0.61,0.58,130.47,-0.2,4.2
3.96,0.75,0.0,0.0,0.25,0.0,0.0,0.0,0.25,0.0,0.0,0.0,0.0,0.25,-0.8,0.64,0.02,21.34,14.4,31.1,0.0,0.0,0.5,1.25,2.5,0.0,0.0,1.5,0.0,1.5,0.25,0.0,1.0,-0.55,-0.67,0.64,130.56,3.0,-4.5
3.98,0.75,0.0,0.0,0.25,0.0,0.0,0.0,0.0,0.25,0.0,0.0,0.0,0.25,-0.8,0.7,0.02,21.54,19.4,31.3,0.0,0.0,0.75,1.25,2.5,0.0,0.0,1.25,0.0,1.5,0.5,0.0,0.75,-0.61,-0.67,0.52,133.49,0.8,-0.5
4.0,0.75,0.0,0.0,0.5,0.0,0.0,0.0,0.0,0.25,0.0,0.0,0.0,0.25,-0.73,0.7,-0.05,23.87,19.0,35.3,0.25,0.0,0.5,1.25,2.25,0.0,0.0,1.5,0.0,1.5,0.25,0.0,1.0,-0.61,-0.61,0.52,133.63,2.0,-3.7
4.02,0.75,0.0,0.0,0.25,0.0,0.0,0.0,0.0,0.25,0.0,0.0,0.0,0.25,-0.8,0.7,0.02,24.41,19.4,31.3,0.0,0.0,0.75,1.25,2.5,0.0,0.0,1.25,0.0,1.5,0.25,0.0,0.75,-0.55,-0.67,0.45,133.85,1.1,1.4
4.04,0.75,0.0,0.0,0.25,0.0,0.0,0.0,0.0,0.25,0.0,0.0,0.0,0.25,-0.8,0.7,0.08,24.09,19.4,31.3,0.0,0.0,0.75,1.25,2.25,0.0,0.0,1.5,0.0,1.5,0.25,0.0,0.75,-0.48,-0.67,0.58,132.49,1.5,-1.4
4.06,0.75,0.0,0.0,0.25,0.0,0.0,0.0,0.0,0.25,0.0,0.0,0.0,0.25,-0.8,0.64,0.08,23.3,19.4,31.3,0.0,0.0,0.75,1.25,2.5,0.0,0.0,1.25,0.0,1.5,0.25,0.0,0.75,-0.48,-0.73,0.52,132.11,1.1,1.4
4.08,0.25,0.0,0.0,0.25,0.0,0.0,0.0,0.0,0.25,0.0,0.0,0.0,0.25,-0.8,0.64,0.08,20.62,12.1,0.2,0.5,0.0,0.5,1.25,2.5,0.0,0.0,1.0,0.0,1.5,0.5,0.0,0.75,-0.48,-0.73,0.52,133.16,-0.3,3.8
4.1,0.75,0.0,0.0,0.5,0.0,0.0,0.0,0.0,0.25,0.0,0.0,0.0,0.25,-0.8,0.64,0.14,22.57,19.0,35.3,0.0,0.0,0.75,1.25,2.5,0.0,0.0,1.25,0.0,1.5,0.5,0.0,0.75,-0.48,-0.8,0.58,134.35,0.8,-0.5
4.12,0.75,0.0,0.0,0.25,0.0,0.0,0.0,0.0,0.25,0.25,0.0,0.0,0.25,-0.8,0.58,0.14,24.72,14.3,15.7,0.0,0.0,0.75,1.25,2.25,0.0,0.0,1.5,0.0,1.75,0.75,0.0,0.75,-0.42,-0.8,0.58,137.0,1.2,-7.1
4.14,0.75,0.0,0.0,0.5,0.0,0.0,0.0,0.0,0.25,0.0,0.0,0.0,0.25,-0.86,0.58,0.14,27.7,19.0,35.3,0.0,0.0,0.75,0.75,2.5,0.0,0.25,1.5,0.0,1.75,0.25,0.0,0.75,-0.42,-0.86,0.58,136.32,2.6,-4.8
4.16,0.75,0.0,0.0,0.25,0.0,0.0,0.0,0.0,0.25,0.0,0.0,0.0,0.25,-0.86,0.64,0.2,27.7,19.4,31.3,0.0,0.0,0.75,1.25,2.5,0.0,0.0,1.25,0.0,1.5,0.0,0.0,0.75,-0.36,-0.86,0.64,134.58,1.4,3.6
4.18,0.75,0.0,0.0,0.5,0.0,0.0,0.0,0.0,0.25,0.25,0.0,0.0,0.25,-0.86,0.64,0.14,29.7,14.6,21.3,0.0,0.0,0.5,1.25,2.5,0.0,0.0,1.25,0.0,1.5,0.25,0.0,0.75,-0.42,-0.86,0.58,130.72,2.3,-0.3
4.2,0.75,0.0,0.0,0.25,0.0,0.0,0.0,0.0,0.25,0.0,0.0,0.0,0.25,-0.86,0.58,0.14,28.22,19.4,31.3,0.0,0.0,0.75,1.25,2.5,0.0,0.0,1.5,0.0,1.75,0.25,0.0,0.75,-0.42,-0.86,0.52,132.56,1.9,-1.6
4.22,0.75,0.0,0.0,0.5,0.0,0.0,0.0,0.0,0.25,0.0,0.0,0.0,0.25,-0.86,0.58,0.14,28.97,19.0,35.3,0.5,0.0,0.75,0.75,2.25,0.0,0.0,1.5,0.0,1.5,0.25,0.0,0.75,-0.48,-0.86,0.52,131.9,0.6,0.3
4.24,0.75,0.0,0.0,0.25,0.0,0.0,0.0,0.0,0.0,0.0,0.0,0.0,0.25,-0.86,0.64,0.14,26.16,20.8,45.4,0.0,0.0,0.75,1.25,2.25,0.0,0.0,1.25,0.0,1.5,0.25,0.0,0.75,-0.48,-0.86,0.52,131.17,1.0,-0.3
4.26,1.0,0.0,0.0,0.25,0.0,0.0,0.0,0.0,0.25,0.0,0.0,0.0,0.25,-0.86,0.64,0.08,27.31,21.5,40.4,0.0,0.25,0.75,1.25,2.5,0.0,0.0,1.25,0.0,1.5,0.25,0.0,0.75,-0.48,-0.8,0.52,132.36,0.7,4.2
4.28,0.75,0.0,0.0,0.25,0.0,0.0,0.0,0.0,0.25,0.0,0.0,0.0,0.25,-0.86,0.58,0.14,25.98,19.4,31.3,0.0,0.0,0.5,1.25,1.75,0.0,0.0,1.25,0.0,1.5,0.25,0.0,0.75,-0.48,-0.8,0.45,126.24,2.2,-6.4
4.3,0.75,0.0,0.0,0.25,0.0,0.0,0.0,0.0,0.25,0.0,0.0,0.0,0.25,-0.8,0.58,0.14,25.99,19.4,31.3,0.0,0.0,0.75,1.25,2.5,0.0,0.0,1.0,0.0,1.5,0.25,0.0,0.5,-0.48,-0.73,0.45,124.47,0.2,6.1
4.32,0.75,0.0,0.0,0.25,0.0,0.0,0.0,0.0,0.25,0.0,0.0,0.0,0.25,-0.8,0.52,0.14,25.24,19.4,31.3,0.0,0.0,0.75,1.25,2.5,0.0,0.0,1.25,0.0,1.5,0.25,0.0,0.75,-0.48,-0.73,0.45,124.79,1.1,1.4
4.34,1.0,0.0,0.0,0.25,0.0,0.0,0.0,0.0,0.25,0.0,0.0,0.0,0.25,-0.8,0.58,0.2,25.9,21.5,40.4,1.0,0.0,0.5,1.25,2.25,0.0,0.0,1.25,0.0,1.25,0.25,0.0,1.0,-0.48,-0.73,0.45,130.06,-1.5,6.9
4.36,0.75,0.0,0.0,0.25,0.0,0.0,0.0,0.5,0.25,0.0,0.0,0.0,0.25,-0.8,0.58,0.14,28.17,10.2,13.4,0.0,0.0,0.75,0.75,2.5,0.0,0.0,1.0,0.0,1.5,0.25,0.0,0.75,-0.48,-0.73,0.45,127.9,1.8,-0.9
4.38,0.75,0.0,0.0,0.25,0.0,0.0,0.0,0.75,0.25,0.0,0.0,0.0,0.25,-0.86,0.58,0.14,31.75,7.1,7.5,0.0,0.0,0.5,0.75,2.25,0.0,0.0,1.5,0.0,1.25,0.25,0.0,0.75,-0.42,-0.73,0.45,124.62,3.6,-5.1
4.4,0.5,0.0,0.0,0.25,0.0,0.0,0.0,0.75,0.0,0.0,0.0,0.0,0.25,-0.8,0.58,0.14,31.97,2.7,2.0,0.0,0.0,0.75,1.0,1.75,0.0,0.0,1.25,0.0,1.5,0.25,0.0,0.75,-0.42,-0.73,0.52,118.83,1.5,-6.4
4.42,1.5,0.0,0.0,0.5,0.0,0.0,0.0,1.25,0.25,0.0,0.0,0.0,0.25,-0.8,0.52,0.14,42.48,9.9,22.0,0.0,0.0,0.5,1.25,2.5,0.0,0.0,1.25,0.0,1.5,0.25,0.0,0.75,-0.42,-0.67,0.52,119.25,2.3,-0.3
4.44,1.0,0.0,0.0,0.25,0.0,0.0,0.0,1.0,0.25,0.0,0.0,0.0,0.25,-0.73,0.52,0.2,46.01,7.3,11.1,0.0,0.0,0.5,1.25,2.25,0.0,0.0,1.25,0.0,1.75,0.25,0.0,1.0,-0.42,-0.67,0.52,121.81,3.0,-7.5
4.46,0.75,0.0,0.0,0.0,0.0,0.0,0.0,0.75,0.0,0.0,0.0,0.0,0.0,-0.8,0.58,0.2,42.63,8.2,27.2,0.0,0.0,0.5,1.25,2.5,0.0,0.0,1.25,0.0,1.5,0.25,0.0,0.75,-0.42,-0.73,0.45,125.93,2.3,-0.3
4.48,1.0,0.0,0.0,0.25,0.0,0.0,0.0,0.5,0.0,0.0,0.25,0.0,0.5,-0.86,0.58,0.2,41.15,9.9,5.0,0.0,0.0,0.5,1.25,2.5,0.0,0.0,1.0,0.0,1.5,0.25,0.0,0.75,-0.36,-0.8,0.45,126.8,1.8,0.8
4.5,1.25,0.0,0.0,0.25,0.0,0.0,0.0,1.0,0.25,0.0,0.0,0.0,0.25,-0.86,0.58,0.2,42.81,9.5,18.0,0.0,0.0,0.5,1.25,2.5,0.0,0.0,1.0,0.0,1.5,0.25,0.0,0.75,-0.36,-0.8,0.45,126.28,1.8,0.8
4.52,1.25,0.0,0.0,0.25,0.0,0.0,0.0,1.25,0.25,0.0,0.0,0.0,0.25,-0.8,0.58,0.2,47.26,7.4,13.5,0.0,0.0,0.75,1.25,2.5,0.0,0.0,1.25,0.0,1.5,0.25,0.0,0.75,-0.36,-0.73,0.45,128.34,1.1,1.4
4.54,0.5,0.0,0.0,0.25,0.0,0.0,0.0,0.75,0.25,0.0,0.0,0.0,0.25,-0.8,0.58,0.27,44.49,3.9,-3.0,0.0,0.0,0.75,1.25,2.25,0.0,0.0,1.0,0.0,1.5,0.25,0.0,0.75,-0.36,-0.73,0.39,126.8,0.5,0.8
4.56,0.75,0.0,0.0,0.5,0.0,0.0,0.0,1.25,0.25,0.0,0.0,0.0,0.25,-0.8,0.58,0.27,46.79,4.0,4.2,0.0,0.0,0.5,1.25,2.5,0.0,0.0,1.25,0.0,1.25,0.0,0.0,0.75,-0.42,-0.8,0.45,125.6,2.3,4.3
4.58,0.75,0.0,0.0,0.25,0.0,0.0,0.0,1.0,0.25,0.0,0.0,0.0,0.25,-0.8,0.58,0.27,43.39,4.7,2.8,0.0,0.0,0.5,1.25,2.25,0.0,0.0,1.25,0.0,1.5,0.25,0.0,0.75,-0.42,-0.8,0.45,124.66,2.3,-2.2
4.6,0.75,0.0,0.0,0.25,0.0,0.0,0.0,1.0,0.25,0.0,0.0,0.0,0.25,-0.8,0.52,0.33,42.14,4.7,2.8,0.0,0.0,0.5,1.25,2.25,0.0,0.0,1.5,0.0,1.5,0.25,0.0,0.75,-0.42,-0.8,0.52,125.97,2.7,-3.3
4.62,1.0,0.0,0.0,0.25,0.0,0.0,0.0,1.0,0.25,0.0,0.0,0.0,0.25,-0.8,0.58,0.39,41.84,7.3,11.1,0.0,0.0,0.5,1.25,2.5,0.0,0.0,1.0,0.0,1.5,0.25,0.0,0.75,-0.36,-0.86,0.52,125.65,1.8,0.8
4.64,1.5,0.0,0.0,0.25,0.0,0.0,0.0,1.25,0.25,0.0,0.0,0.0,0.25,-0.8,0.52,0.33,47.22,9.3,19.3,0.0,0.0,0.5,1.25,2.25,0.0,0.0,1.25,0.0,1.5,0.25,0.0,0.75,-0.36,-0.8,0.45,125.06,2.3,-2.2
4.66,1.5,0.0,0.0,0.25,0.0,0.0,0.0,1.25,0.25,0.0,0.0,0.0,0.25,-0.86,0.52,0.33,50.82,9.3,19.3,0.5,0.25,0.5,1.25,2.25,0.0,0.0,1.25,0.0,1.5,0.25,0.0,0.75,-0.3,-0.8,0.45,128.06,0.0,5.9
4.68,1.25,0.0,0.0,0.25,0.0,0.0,0.0,0.25,0.25,0.0,0.0,0.0,0.25,-0.86,0.52,0.33,49.54,18.6,37.5,0.0,0.0,0.75,1.25,2.5,0.0,0.0,1.25,0.0,1.5,0.25,0.0,0.75,-0.3,-0.86,0.52,130.23,1.1,1.4
4.7,1.25,0.0,0.0,0.25,0.0,0.0,0.0,0.25,0.25,0.0,0.0,0.0,0.25,-0.86,0.52,0.33,45.95,18.6,37.5,0.5,0.25,0.75,1.25,2.25,0.0,0.0,0.75,0.0,1.5,0.25,0.0,0.75,-0.23,-0.86,0.52,132.79,-2.1,10.1
4.72,1.0,0.0,0.0,0.25,0.0,0.0,0.0,0.0,0.25,0.0,0.0,0.0,0.25,-0.86,0.52,0.33,37.26,21.5,40.4,0.0,0.0,0.75,1.25,2.25,0.0,0.0,1.0,0.0,1.5,0.25,0.0,0.75,-0.23,-0.92,0.45,130.94,0.5,0.8
4.74,0.75,0.0,0.0,0.25,0.0,0.0,0.0,0.0,0.25,0.25,0.0,0.0,0.25,-0.8,0.52,0.33,31.33,14.3,15.7,0.0,0.0,0.5,1.25,2.25,0.0,0.0,1.0,0.0,1.5,0.25,0.0,0.75,-0.17,-0.92,0.45,127.42,1.8,-1.0
4.76,1.25,0.0,0.0,0.25,0.0,0.0,0.0,0.0,0.25,0.0,0.0,0.0,0.25,-0.86,0.52,0.33,29.42,23.1,47.3,0.0,0.0,0.5,0.75,2.25,0.0,0.0,1.0,0.0,1.5,0.25,0.0,0.75,-0.17,-0.92,0.45,120.56,3.1,-5.2
4.78,1.5,0.0,0.0,0.25,0.0,0.0,0.0,0.0,0.25,0.0,0.0,0.0,0.25,-0.86,0.52,0.33,31.78,24.4,52.8,0.0,0.0,0.75,1.25,2.5,0.0,0.0,1.25,0.0,1.5,0.25,0.0,1.0,-0.17,-0.92,0.45,123.94,1.4,-1.7
4.8,1.5,0.0,0.0,0.25,0.0,0.0,0.0,0.75,0.25,0.0,0.0,0.0,0.25,-0.86,0.52,0.33,36.9,13.8,29.2,0.0,0.0,0.5,0.5,2.5,0.0,0.0,1.25,0.0,1.5,0.25,0.0,0.75,-0.17,-0.92,0.45,121.02,4.3,-6.2
4.82,1.5,0.0,0.0,0.25,0.0,0.0,0.0,1.0,0.25,0.0,0.0,0.0,0.25,-0.8,0.52,0.33,43.67,11.4,23.9,0.25,0.0,0.5,1.25,2.25,0.0,0.0,1.25,0.0,1.75,0.0,0.0,0.75,-0.11,-0.86,0.45,123.8,2.0,0.4
4.84,1.5,0.0,0.0,0.5,0.0,0.0,0.0,1.25,0.25,0.0,0.0,0.0,0.25,-0.8,0.52,0.39,51.61,9.9,22.0,0.0,0.0,0.75,1.25,2.25,0.0,0.0,1.25,0.0,1.5,0.25,0.0,1.0,-0.17,-0.86,0.39,125.38,1.4,-3.5
4.86,1.0,0.0,0.0,0.25,0.0,0.0,0.0,1.0,0.25,0.0,0.0,0.0,0.5,-0.73,0.45,0.45,52.35,5.5,0.5,0.0,0.0,0.75,1.25,2.5,0.0,0.0,1.0,0.0,1.5,0.25,0.0,0.75,-0.17,-0.86,0.45,127.83,0.6,2.6
4.88,1.0,0.0,0.0,0.25,0.0,0.0,0.0,1.25,0.25,0.0,0.0,0.0,0.25,-0.73,0.45,0.39,52.14,5.3,6.8,0.0,0.0,0.5,1.25,2.25,0.0,0.0,1.25,0.0,1.5,0.25,0.0,0.75,-0.11,-0.8,0.45,126.44,2.3,-2.2
4.9,0.75,0.0,0.0,0.25,0.0,0.0,0.0,1.25,0.25,0.0,0.0,0.0,0.25,-0.8,0.52,0.33,49.51,2.7,-0.9,0.0,0.0,0.75,1.25,2.5,0.0,0.0,1.25,0.0,1.5,0.25,0.0,0.75,-0.11,-0.86,0.39,128.24,1.1,1.4
4.92,1.0,0.0,0.0,0.25,0.0,0.0,0.0,1.0,0.25,0.0,0.0,0.0,0.25,-0.86,0.52,0.33,48.44,7.3,11.1,0.0,0.0,0.5,1.25,2.5,0.0,0.0,1.0,0.0,1.5,0.25,0.0,0.75,-0.11,-0.86,0.33,127.64,1.8,0.8
4.94,1.5,0.0,0.0,0.25,0.0,0.0,0.0,1.0,0.25,0.0,0.0,0.0,0.25,-0.8,0.52,0.39,49.56,11.4,23.9,0.25,0.0,0.5,1.25,2.5,0.0,0.0,1.0,0.0,1.5,0.25,0.0,0.75,-0.05,-0.86,0.39,128.54,0.8,3.5
4.96,1.25,0.0,0.0,0.5,0.0,0.0,0.0,1.25,0.25,0.0,0.0,0.0,0.25,-0.8,0.52,0.39,53.16,8.2,16.9,0.25,0.0,0.5,1.25,2.5,0.0,0.0,1.25,0.0,1.5,0.25,0.0,0.75,-0.05,-0.86,0.45,130.34,1.3,2.3
4.98,0.75,0.0,0.0,0.25,0.0,0.0,0.0,1.25,0.25,0.0,0.0,0.0,0.25,-0.8,0.52,0.39,51.46,2.7,-0.9,0.0,0.0,0.5,1.25,2.25,0.0,0.0,1.25,0.0,1.5,0.25,0.0,0.75,-0.11,-0.86,0.45,129.3,2.3,-2.2
5.0,0.5,0.0,0.0,0.25,0.0,0.0,0.0,1.25,0.25,0.0,0.0,0.0,0.25,-0.8,0.58,0.33,47.07,-0.2,-10.2,0.0,0.0,0.75,1.25,2.5,0.0,0.0,1.25,0.0,1.5,0.25,0.0,0.75,-0.17,-0.86,0.45,130.27,1.1,1.4
5.02,0.5,0.0,0.0,0.25,0.0,0.0,0.0,1.25,0.25,0.0,0.0,0.0,0.25,-0.8,0.58,0.33,42.13,-0.2,-10.2,0.0,0.0,0.5,1.25,2.25,0.0,0.0,1.0,0.0,1.5,0.25,0.0,1.0,-0.17,-0.86,0.45,127.36,2.2,-4.4
5.04,0.0,0.0,0.0,0.25,0.0,0.0,0.0,1.25,0.25,0.0,0.0,0.25,0.25,-0.8,0.58,0.33,37.46,-6.5,-43.4,0.0,0.0,0.5,1.25,2.25,0.0,0.0,1.0,0.0,1.5,0.25,0.0,0.75,-0.17,-0.86,0.52,125.63,1.8,-1.0
5.06,0.5,0.0,0.0,0.25,0.0,0.0,0.0,1.25,0.25,0.0,0.0,0.0,0.25,-0.8,0.52,0.33,35.9,-0.2,-10.2,0.0,0.25,0.5,1.25,2.5,0.0,0.0,1.0,0.0,1.5,0.25,0.0,1.0,-0.23,-0.86,0.52,125.96,1.8,0.4
5.08,0.75,0.0,0.0,0.25,0.0,0.0,0.0,1.25,0.25,0.0,0.0,0.0,0.25,-0.8,0.52,0.33,37.42,2.7,-0.9,0.0,0.0,0.5,1.25,2.5,0.0,0.0,1.25,0.0,1.5,0.25,0.0,0.75,-0.17,-0.92,0.52,126.8,2.3,-0.3
5.1,0.75,0.0,0.0,0.25,0.0,0.0,0.0,1.25,0.25,0.0,0.0,0.0,0.25,-0.8,0.58,0.33,39.98,2.7,-0.9,0.0,0.0,0.5,1.25,2.25,0.0,0.0,1.0,0.0,1.5,0.5,0.0,1.0,-0.17,-0.92,0.52,127.47,1.8,-6.5
5.12,1.0,0.0,0.0,0.25,0.0,0.0,0.0,1.25,0.25,0.0,0.0,0.0,0.25,-0.8,0.58,0.33,42.77,5.3,6.8,0.0,0.0,0.5,0.75,2.5,0.0,0.0,0.75,0.0,1.5,0.25,0.0,0.75,-0.17,-0.92,0.45,122.76,2.7,-1.8
5.14,1.25,0.0,0.0,0.25,0.0,0.0,0.0,1.25,0.25,0.0,0.0,0.0,0.25,-0.8,0.58,0.33,46.48,7.4,13.5,0.25,0.0,0.5,0.5,1.75,0.0,0.0,1.0,0.0,1.5,0.25,0.0,0.75,-0.17,-0.92,0.52,114.49,2.6,-9.1
5.16,1.0,0.0,0.0,0.25,0.0,0.0,0.0,1.0,0.25,0.0,0.0,0.0,0.25,-0.8,0.58,0.33,46.54,7.3,11.1,0.0,0.0,0.75,0.75,2.5,0.0,0.0,1.0,0.0,1.5,0.25,0.0,0.75,-0.17,-0.86,0.52,113.05,1.8,-0.9
5.18,0.75,0.0,0.0,0.25,0.0,0.0,0.0,1.25,0.25,0.0,0.0,0.0,0.25,-0.8,0.58,0.33,45.63,2.7,-0.9,0.25,0.0,0.75,1.25,2.5,0.0,0.0,0.75,0.0,1.5,0.25,0.0,1.0,-0.17,-0.8,0.45,117.54,-0.3,3.0
5.2,0.75,0.0,0.0,0.0,0.0,0.0,0.0,1.25,0.0,0.0,0.0,0.0,0.25,-0.8,0.58,0.33,41.85,0.0,-3.7,0.0,0.0,0.75,0.75,2.25,0.0,0.0,1.25,0.0,1.5,0.25,0.0,0.75,-0.17,-0.8,0.45,119.81,2.2,-4.1
5.22,0.75,0.0,0.0,0.25,0.0,0.0,0.0,1.25,0.25,0.0,0.0,0.0,0.25,-0.73,0.58,0.33,42.02,2.7,-0.9,0.25,0.0,0.5,1.25,1.75,0.0,0.0,1.0,0.0,1.5,0.5,0.0,1.0,-0.17,-0.8,0.45,121.88,0.6,-7.8
5.24,0.5,0.0,0.0,0.25,0.0,0.0,0.0,1.25,0.0,0.0,0.0,0.0,0.25,-0.73,0.58,0.33,39.0,-1.6,-7.1,0.0,0.0,0.75,0.5,1.75,0.0,0.0,0.75,0.0,1.5,0.25,0.0,0.75,-0.17,-0.8,0.45,114.0,1.8,-9.0
5.26,0.75,0.0,0.0,0.25,0.0,0.0,0.0,1.25,0.0,0.0,0.0,0.0,0.25,-0.73,0.58,0.33,39.0,1.8,2.8,0.0,0.0,0.5,1.25,2.25,0.0,0.0,1.0,0.0,1.5,0.25,0.0,0.75,-0.17,-0.86,0.45,114.05,1.8,-1.0
5.28,1.5,0.0,0.0,0.25,0.0,0.0,0.0,1.25,0.0,0.0,0.0,0.0,0.25,-0.8,0.58,0.33,42.85,9.1,23.8,0.0,0.0,0.5,0.75,2.5,0.0,0.0,0.75,0.0,1.5,0.25,0.0,0.75,-0.17,-0.86,0.45,111.2,2.7,-1.8
5.3,1.0,0.0,0.0,0.25,0.0,0.0,0.0,1.0,0.25,0.0,0.0,0.0,0.25,-0.8,0.58,0.33,44.11,7.3,11.1,0.0,0.0,0.75,1.25,2.25,0.0,0.0,0.75,0.0,1.5,0.25,0.0,0.75,-0.17,-0.92,0.52,114.85,0.0,2.1
5.32,0.75,0.0,0.0,0.25,0.0,0.0,0.0,0.75,0.0,0.0,0.0,0.0,0.25,-0.8,0.58,0.27,40.79,6.5,13.3,0.0,0.0,0.75,1.25,2.25,0.0,0.0,1.25,0.0,1.5,0.25,0.0,0.75,-0.17,-0.92,0.52,119.82,1.0,-0.3
5.34,0.75,0.0,0.0,0.25,0.0,0.0,0.0,0.75,0.25,0.0,0.0,0.0,0.25,-0.8,0.58,0.27,37.85,7.1,7.5,0.0,0.0,0.75,1.0,2.5,0.0,0.0,1.0,0.0,1.5,0.25,0.0,0.75,-0.17,-0.86,0.52,124.12,1.2,0.9
5.36,0.75,0.0,0.0,0.25,0.0,0.0,0.0,0.25,0.0,0.0,0.0,0.0,0.25,-0.8,0.58,0.33,31.41,14.4,31.1,0.0,0.0,0.5,1.25,2.5,0.0,0.0,0.75,0.0,1.5,0.25,0.0,0.75,-0.17,-0.86,0.52,125.12,1.4,2.0
5.38,0.75,0.0,0.0,0.25,0.0,0.0,0.0,0.0,0.25,0.0,0.0,0.0,0.25,-0.8,0.58,0.33,26.76,19.4,31.3,0.25,0.0,0.75,1.0,2.25,0.0,0.0,0.75,0.0,1.5,0.25,0.0,0.75,-0.17,-0.86,0.52,124.15,-0.3,3.0
5.4,0.75,0.0,0.0,0.25,0.0,0.0,0.0,0.0,0.25,0.0,0.0,0.0,0.25,-0.8,0.64,0.33,23.84,19.4,31.3,0.0,0.0,0.75,1.25,2.25,0.0,0.0,0.75,0.0,1.5,0.25,0.0,0.75,-0.17,-0.86,0.58,122.35,0.0,2.1
5.42,1.0,0.0,0.0,0.25,0.0,0.0,0.0,0.0,0.25,0.0,0.0,0.0,0.25,-0.73,0.64,0.27,24.21,21.5,40.4,0.5,0.0,0.5,1.25,2.5,0.0,0.0,0.75,0.0,1.5,0.25,0.0,0.75,-0.17,-0.86,0.52,124.44,-0.5,7.3
5.44,1.25,0.0,0.0,0.25,0.0,0.0,0.0,0.0,0.25,0.0,0.0,0.0,0.25,-0.73,0.64,0.27,26.3,23.1,47.3,0.0,0.0,0.5,1.25,2.25,0.0,0.0,1.0,0.0,1.5,0.5,0.0,0.75,-0.17,-0.86,0.52,125.82,1.4,-3.2
5.46,1.5,0.0,0.0,0.25,0.0,0.0,0.0,0.0,0.25,0.0,0.0,0.0,0.25,-0.73,0.64,0.27,30.0,24.4,52.8,1.0,0.0,0.75,0.75,2.5,0.0,0.0,0.75,0.0,1.5,0.25,0.0,0.75,-0.17,-0.86,0.52,129.77,-2.5,10.7
5.48,1.5,0.0,0.0,0.25,0.0,0.0,0.0,0.0,0.25,0.0,0.0,0.0,0.25,-0.73,0.64,0.27,33.55,24.4,52.8,0.0,0.0,0.5,1.25,2.5,0.0,0.0,0.75,0.0,1.5,0.25,0.0,0.75,-0.17,-0.86,0.52,128.57,1.4,2.0
5.5,1.0,0.0,0.0,0.25,0.0,0.0,0.0,0.0,0.25,0.0,0.0,0.0,0.25,-0.8,0.64,0.27,32.53,21.5,40.4,0.0,0.0,0.5,1.0,2.25,0.0,0.0,1.0,0.0,1.5,0.25,0.0,0.75,-0.17,-0.86,0.52,124.38,2.4,-3.0
5.52,0.75,0.0,0.0,0.25,0.0,0.0,0.0,0.0,0.0,0.0,0.0,0.0,0.25,-0.8,0.58,0.27,28.17,20.8,45.4,0.5,0.0,0.75,0.75,2.5,0.0,0.0,0.75,0.25,1.75,0.25,0.0,0.75,-0.23,-0.86,0.45,125.5,-0.5,2.2
5.54,0.75,0.0,0.0,0.25,0.0,0.0,0.0,0.0,0.25,0.0,0.0,0.0,0.25,-0.8,0.58,0.27,25.89,19.4,31.3,1.0,0.0,0.5,0.75,1.75,0.0,0.0,0.75,0.0,1.5,0.25,0.0,0.75,-0.23,-0.86,0.52,121.72,-2.0,4.1
5.56,0.75,0.0,0.0,0.0,0.0,0.0,0.0,0.0,0.0,0.0,0.0,0.0,0.25,-0.8,0.64,0.27,21.47,21.9,42.0,0.0,0.0,0.75,0.75,2.5,0.0,0.0,1.0,0.0,1.5,0.25,0.0,0.75,-0.23,-0.86,0.52,121.19,1.8,-0.9
5.58,1.0,0.0,0.0,0.25,0.0,0.0,0.0,0.0,0.25,0.0,0.0,0.0,0.25,-0.8,0.64,0.27,22.7,21.5,40.4,0.0,0.0,0.5,1.25,2.5,0.0,0.0,1.0,0.0,1.5,0.25,0.0,0.75,-0.23,-0.86,0.52,121.61,1.8,0.8
5.6,1.25,0.0,0.0,0.25,0.0,0.0,0.0,0.0,0.0,0.0,0.0,0.0,0.25,-0.73,0.64,0.27,24.94,24.8,59.9,0.5,0.0,0.5,1.25,2.25,0.0,0.0,0.75,0.0,1.5,0.25,0.0,0.75,-0.23,-0.86,0.52,123.32,-0.7,5.7
5.62,0.75,0.0,0.0,0.25,0.0,0.0,0.0,0.0,0.0,0.0,0.0,0.0,0.25,-0.8,0.64,0.27,24.55,20.8,45.4,0.0,0.0,0.5,1.25,2.25,0.0,0.0,0.75,0.0,1.5,0.25,0.0,0.75,-0.23,-0.8,0.52,121.14,1.3,0.1
5.64,1.0,0.0,0.0,0.25,0.0,0.0,0.0,0.0,0.25,0.0,0.0,0.0,0.25,-0.73,0.64,0.27,25.48,21.5,40.4,0.0,0.0,0.5,1.25,2.5,0.0,0.0,1.0,0.0,1.5,0.25,0.0,0.5,-0.23,-0.8,0.52,121.07,1.5,4.4
5.66,1.5,0.0,0.0,0.0,0.0,0.0,0.0,0.0,0.25,0.0,0.0,0.0,0.25,-0.73,0.64,0.27,27.46,25.4,52.1,0.0,0.0,0.5,1.0,2.5,0.0,0.0,1.0,0.0,1.5,0.25,0.0,0.75,-0.23,-0.8,0.52,120.12,2.5,-1.0
5.68,1.25,0.0,0.0,0.25,0.0,0.0,0.0,0.0,0.25,0.0,0.0,0.0,0.25,-0.73,0.64,0.27,29.95,23.1,47.3,0.0,0.0,0.5,1.25,2.5,0.0,0.0,0.75,0.0,1.5,0.25,0.0,0.75,-0.23,-0.8,0.52,120.48,1.4,2.0
5.7,1.5,0.0,0.0,0.25,0.0,0.0,0.0,0.0,0.25,0.0,0.0,0.0,0.25,-0.73,0.58,0.27,33.54,24.4,52.8,0.5,0.0,0.5,1.0,2.5,0.0,0.0,0.75,0.0,1.5,0.25,0.0,0.75,-0.23,-0.86,0.52,121.88,0.0,5.7
5.72,1.5,0.0,0.0,0.25,0.0,0.0,0.0,0.0,0.25,0.25,0.0,0.0,0.25,-0.73,0.64,0.27,38.19,20.3,39.5,0.0,0.0,0.5,1.25,2.25,0.0,0.0,0.5,0.0,1.5,0.25,0.0,0.75,-0.23,-0.8,0.52,120.2,0.8,1.4
5.74,1.5,0.0,0.0,0.25,0.0,0.0,0.0,0.0,0.0,0.0,0.0,0.0,0.25,-0.8,0.64,0.27,39.2,26.0,64.5,0.0,0.0,0.5,1.25,2.5,0.0,0.0,0.5,0.0,1.5,0.25,0.0,0.75,-0.23,-0.8,0.52,119.13,0.9,3.3
5.76,1.5,0.0,0.0,0.25,0.0,0.0,0.0,0.0,0.0,0.0,0.0,0.0,0.25,-0.8,0.64,0.27,38.83,26.0,64.5,0.0,0.0,0.5,1.25,2.5,0.0,0.0,0.5,0.0,1.75,0.5,0.0,0.75,-0.23,-0.8,0.52,119.46,1.0,-1.3
5.78,1.5,0.0,0.0,0.25,0.0,0.0,0.0,0.0,0.0,0.0,0.0,0.0,0.25,-0.73,0.58,0.27,37.39,26.0,64.5,0.0,0.0,0.5,1.25,2.25,0.0,0.0,0.75,0.0,1.5,0.25,0.0,0.75,-0.23,-0.8,0.52,119.5,1.3,0.1
5.8,1.25,0.0,0.0,0.25,0.0,0.0,0.0,0.0,0.0,0.25,0.0,0.0,0.25,-0.73,0.64,0.27,36.24,19.5,42.4,0.0,0.0,0.5,1.25,1.5,0.0,0.0,1.0,0.0,1.5,0.0,0.0,0.75,-0.23,-0.8,0.52,113.83,2.1,-5.3
5.82,1.25,0.0,0.0,0.25,0.0,0.0,0.0,0.0,0.25,0.0,0.0,0.25,0.25,-0.73,0.64,0.27,35.88,21.5,29.4,0.0,0.0,0.5,1.25,2.5,0.0,0.0,1.0,0.0,1.5,0.25,0.0,0.75,-0.23,-0.86,0.52,115.9,1.8,0.8
5.84,1.25,0.0,0.0,0.25,0.0,0.0,0.0,0.0,0.25,0.0,0.0,0.0,0.25,-0.8,0.64,0.27,35.56,23.1,47.3,0.0,0.0,0.75,1.25,1.5,0.0,0.0,1.0,0.0,1.5,0.25,0.0,0.75,-0.23,-0.86,0.52,113.5,0.2,-5.3
5.86,1.5,0.0,0.0,0.25,0.0,0.0,0.0,0.0,0.25,0.25,0.0,0.0,0.25,-0.8,0.64,0.27,37.97,20.3,39.5,0.0,0.0,0.5,0.75,2.5,0.0,0.0,0.75,0.0,1.5,0.25,0.0,0.75,-0.23,-0.86,0.52,113.76,2.7,-1.8
5.88,1.5,0.0,0.0,0.25,0.0,0.0,0.0,0.0,0.0,0.0,0.0,0.0,0.25,-0.8,0.64,0.27,36.61,26.0,64.5,0.0,0.0,0.5,1.25,2.5,0.0,0.0,0.75,0.0,1.5,0.25,0.0,1.0,-0.23,-0.8,0.52,116.29,1.8,-1.4
5.9,1.5,0.0,0.0,0.25,0.0,0.0,0.0,0.0,0.0,0.0,0.0,0.0,0.25,-0.73,0.64,0.27,36.01,26.0,64.5,0.0,0.0,0.5,1.25,2.5,0.0,0.0,0.75,0.0,1.5,0.25,0.0,0.75,-0.23,-0.8,0.52,119.18,1.4,2.0
5.92,1.5,0.0,0.0,0.25,0.0,0.0,0.0,0.0,0.0,0.0,0.0,0.0,0.25,-0.8,0.64,0.27,34.65,26.0,64.5,0.75,0.0,0.75,1.0,1.75,0.0,0.0,0.75,0.0,2.0,0.5,0.0,0.75,-0.17,-0.8,0.52,123.37,-1.8,-1.9
5.94,1.5,0.0,0.0,0.25,0.0,0.0,0.0,0.0,0.0,0.0,0.0,0.0,0.25,-0.8,0.64,0.27,34.03,26.0,64.5,0.0,0.25,0.5,1.0,2.25,0.0,0.0,0.5,0.0,1.5,0.25,0.0,0.75,-0.17,-0.86,0.52,121.63,1.0,2.8
5.96,1.5,0.0,0.0,0.25,0.0,0.0,0.0,0.0,0.0,0.0,0.0,0.0,0.25,-0.73,0.64,0.27,33.66,26.0,64.5,0.0,0.0,0.5,0.75,2.25,0.0,0.0,0.75,0.0,1.5,0.25,0.0,0.75,-0.23,-0.86,0.52,118.33,2.7,-4.0
5.98,1.5,0.0,0.0,0.25,0.0,0.0,0.0,0.0,0.0,0.0,0.0,0.0,0.25,-0.8,0.64,0.27,34.04,26.0,64.5,0.0,0.0,0.5,1.25,2.25,0.0,0.0,0.75,0.0,1.5,0.75,0.0,0.75,-0.23,-0.86,0.52,117.75,0.6,-4.3
6.0,1.0,0.0,0.0,0.25,0.0,0.0,0.0,0.0,0.0,0.0,0.0,0.0,0.25,-0.8,0.64,0.27,31.04,23.1,53.8,0.0,0.0,0.75,0.75,2.5,0.0,0.0,1.0,0.0,1.5,0.25,0.0,0.75,-0.23,-0.86,0.52,118.51,1.8,-0.9
6.02,1.5,0.0,0.0,0.25,0.0,0.0,0.0,0.0,0.0,0.0,0.0,0.0,0.25,-0.73,0.64,0.27,31.1,26.0,64.5,0.5,0.0,0.5,1.25,2.5,0.0,0.0,0.75,0.0,1.5,0.25,0.0,0.75,-0.23,-0.86,0.52,123.67,-0.5,7.3
6.04,1.5,0.0,0.0,0.25,0.0,0.0,0.0,0.0,0.0,0.0,0.0,0.0,0.25,-0.8,0.64,0.27,31.24,26.0,64.5,0.25,0.0,0.5,1.25,2.25,0.0,0.0,0.5,0.0,1.5,0.25,0.0,1.0,-0.23,-0.86,0.52,124.44,0.2,0.6
6.06,1.5,0.0,0.0,0.25,0.0,0.0,0.0,0.0,0.0,0.0,0.0,0.0,0.25,-0.8,0.64,0.27,32.38,26.0,64.5,0.0,0.0,0.5,0.75,1.75,0.0,0.0,1.0,0.0,1.5,0.25,0.0,0.75,-0.23,-0.8,0.52,117.96,3.1,-10.2
6.08,1.25,0.0,0.0,0.25,0.0,0.0,0.0,0.0,0.0,0.0,0.0,0.0,0.25,-0.8,0.64,0.27,31.61,24.8,59.9,0.0,0.0,0.5,1.0,2.25,0.0,0.0,0.75,0.0,1.5,0.25,0.0,1.0,-0.23,-0.8,0.52,115.5,2.4,-5.5
6.1,1.25,0.0,0.0,0.25,0.0,0.0,0.0,0.0,0.0,0.0,0.0,0.0,0.25,-0.73,0.64,0.27,30.76,24.8,59.9,0.0,0.0,0.75,1.25,2.25,0.0,0.0,0.5,0.0,1.5,0.25,0.0,0.75,-0.23,-0.8,0.52,113.9,-0.4,3.4
6.12,1.25,0.0,0.0,0.25,0.0,0.0,0.0,0.0,0.0,0.0,0.0,0.0,0.25,-0.73,0.64,0.27,29.9,24.8,59.9,0.0,0.0,0.5,1.25,1.75,0.0,0.0,1.0,0.0,1.5,0.25,0.0,0.75,-0.23,-0.86,0.52,112.57,1.7,-5.3
6.14,1.5,0.0,0.0,0.25,0.0,0.0,0.0,0.0,0.0,0.0,0.0,0.0,0.25,-0.8,0.64,0.27,30.75,26.0,64.5,0.0,0.0,0.5,1.0,2.25,0.0,0.0,0.75,0.0,1.5,0.25,0.0,0.75,-0.23,-0.86,0.52,112.49,2.0,-1.8
6.16,1.5,0.0,0.0,0.25,0.0,0.0,0.0,0.0,0.0,0.0,0.0,0.0,0.25,-0.8,0.64,0.27,32.0,26.0,64.5,0.0,0.0,0.5,1.0,1.75,0.0,0.0,0.75,0.0,1.5,0.0,0.0,0.75,-0.23,-0.86,0.52,108.23,2.3,-4.0
6.18,1.5,0.0,0.0,0.25,0.0,0.0,0.0,0.0,0.0,0.0,0.0,0.0,0.25,-0.8,0.64,0.27,33.36,26.0,64.5,0.75,0.0,0.5,1.0,1.75,0.0,0.0,0.5,0.0,1.5,0.25,0.0,0.75,-0.23,-0.86,0.52,108.41,-2.1,4.5
6.2,1.5,0.0,0.0,0.25,0.0,0.0,0.0,0.0,0.0,0.0,0.0,0.0,0.25,-0.8,0.64,0.27,34.09,26.0,64.5,0.0,0.0,0.75,1.25,2.5,0.0,0.0,0.75,0.0,1.5,0.25,0.0,0.75,-0.23,-0.86,0.52,112.51,0.1,3.9
6.22,1.5,0.0,0.0,0.25,0.0,0.0,0.0,0.0,0.0,0.0,0.0,0.0,0.25,-0.8,0.64,0.27,34.49,26.0,64.5,0.0,0.0,0.75,0.75,1.75,0.0,0.0,0.5,0.0,1.5,0.25,0.0,0.75,-0.17,-0.86,0.52,109.33,0.5,-5.2
6.24,1.5,0.0,0.0,0.25,0.0,0.0,0.0,0.0,0.0,0.0,0.0,0.0,0.25,-0.8,0.64,0.27,34.66,26.0,64.5,0.0,0.25,0.5,1.25,1.75,0.0,0.0,0.75,0.0,1.25,0.25,0.0,1.0,-0.23,-0.86,0.52,110.41,0.6,-1.8
6.26,1.5,0.0,0.0,0.25,0.0,0.0,0.0,0.0,0.25,0.0,0.0,0.0,0.25,-0.8,0.64,0.27,35.55,24.4,52.8,0.0,0.0,0.5,1.0,2.5,0.0,0.0,0.5,0.0,1.5,0.25,0.0,0.75,-0.17,-0.86,0.52,110.39,1.5,1.4
6.28,1.5,0.0,0.0,0.25,0.0,0.0,0.0,0.0,0.25,0.25,0.0,0.0,0.25,-0.8,0.64,0.27,38.1,20.3,39.5,0.25,0.0,0.5,1.25,1.5,0.0,0.0,1.0,0.0,1.5,0.25,0.0,0.5,-0.17,-0.86,0.52,110.49,0.0,-0.5
6.3,1.5,0.0,0.0,0.25,0.0,0.0,0.0,0.0,0.25,0.0,0.0,0.0,0.25,-0.73,0.64,0.27,39.23,24.4,52.8,0.0,0.0,0.75,1.25,1.75,0.0,0.0,1.0,0.0,1.5,0.25,0.0,0.75,-0.17,-0.8,0.45,112.04,0.3,-3.1
6.32,1.5,0.0,0.0,0.25,0.0,0.0,0.0,0.0,0.25,0.0,0.0,0.0,0.25,-0.8,0.58,0.27,39.81,24.4,52.8,0.5,0.0,0.75,1.0,1.75,0.0,0.0,1.0,0.0,1.5,0.25,0.0,1.0,-0.17,-0.8,0.52,115.69,-0.6,-2.6
6.34,1.5,0.0,0.0,0.25,0.0,0.0,0.0,0.0,0.25,0.0,0.0,0.0,0.25,-0.8,0.64,0.27,39.4,24.4,52.8,0.0,0.0,0.5,1.25,2.25,0.0,0.0,0.75,0.0,1.5,0.25,0.0,0.75,-0.23,-0.8,0.52,117.85,1.3,0.1
6.36,1.5,0.0,0.0,0.25,0.0,0.0,0.0,0.0,0.25,0.0,0.0,0.0,0.25,-0.73,0.64,0.27,38.93,24.4,52.8,0.0,0.0,0.5,1.0,1.75,0.0,0.0,0.25,0.0,1.5,0.25,0.0,0.75,-0.17,-0.86,0.52,112.17,0.7,-4.0
6.38,1.5,0.0,0.0,0.25,0.0,0.0,0.0,0.0,0.25,0.0,0.0,0.0,0.25,-0.73,0.64,0.27,38.42,24.4,52.8,0.0,0.0,0.5,1.25,2.25,0.0,0.0,0.5,0.0,1.5,0.25,0.0,0.75,-0.17,-0.86,0.52,111.71,0.8,1.4
6.4,1.5,0.0,0.0,0.25,0.0,0.0,0.0,0.0,0.25,0.0,0.0,0.0,0.25,-0.8,0.64,0.27,38.42,24.4,52.8,0.0,0.0,0.75,1.0,2.5,0.0,0.0,0.75,0.0,1.5,0.25,0.0,0.75,-0.23,-0.86,0.52,113.72,0.7,2.1
6.42,1.5,0.0,0.0,0.25,0.0,0.0,0.0,0.0,0.25,0.0,0.0,0.0,0.25,-0.8,0.64,0.27,38.35,24.4,52.8,0.0,0.0,0.5,1.25,2.25,0.0,0.0,0.25,0.0,1.5,0.25,0.0,1.25,-0.17,-0.86,0.52,115.31,1.1,-4.6
