time,left pressure 0[N/cm²],left pressure 1[N/cm²],left pressure 2[N/cm²],left pressure 3[N/cm²],left pressure 4[N/cm²],left pressure 5[N/cm²],left pressure 6[N/cm²],left pressure 7[N/cm²],left pressure 8[N/cm²],left pressure 9[N/cm²],left pressure 10[N/cm²],left pressure 11[N/cm²],left pressure 12[N/cm²],left acceleration X[g],left acceleration Y[g],left acceleration Z[g],left total force[N],left center of pressure X[mm],left center of pressure Y[mm],right pressure 0[N/cm²],right pressure 1[N/cm²],right pressure 2[N/cm²],right pressure 3[N/cm²],right pressure 4[N/cm²],right pressure 5[N/cm²],right pressure 6[N/cm²],right pressure 7[N/cm²],right pressure 8[N/cm²],right pressure 9[N/cm²],right pressure 10[N/cm²],right pressure 11[N/cm²],right pressure 12[N/cm²],right acceleration X[g],right acceleration Y[g],right acceleration Z[g],right total force[N],right center of pressure X[mm],right center of pressure Y[mm]
0.02,0.0,0.0,0.0,1.25,0.0,0.0,0.0,1.75,0.25,0.25,0.75,0.0,0.25,2.14,4.83,0.33,56.84,-0.7,-22.8,0.25,0.25,2.25,2.5,0.5,0.0,0.5,0.0,0.0,0.25,0.0,0.0,0.0,0.89,-0.98,1.7,0.0,-22.6,55.4
0.04,0.0,0.0,0.0,1.0,0.0,0.0,0.0,0.0,0.25,0.5,0.75,0.0,0.25,-0.36,0.58,0.89,54.93,6.2,-25.0,0.0,0.75,0.75,0.75,0.0,1.0,0.25,0.25,0.0,1.0,0.0,0.0,0.0,0.83,-1.05,0.27,0.0,-3.2,25.6
0.06,0.0,0.0,0.0,1.0,0.0,0.0,0.0,0.0,0.0,1.25,0.0,1.0,1.25,-1.55,-1.36,1.7,59.81,-2.2,-62.1,0.0,0.0,0.75,0.25,0.0,0.0,0.25,0.25,0.25,0.0,0.25,0.25,0.0,0.64,-0.73,1.27,0.0,-19.4,0.3
0.08,0.0,0.0,0.25,0.25,0.0,0.0,0.0,0.0,0.0,2.5,0.0,3.0,3.0,-0.11,-0.3,0.77,92.29,-4.4,-90.7,0.0,0.0,2.25,1.0,0.5,0.25,0.5,0.0,0.0,0.0,1.0,0.0,0.5,0.27,-0.3,0.52,0.0,-18.7,19.9
0.1,0.0,0.0,0.75,0.0,0.0,0.0,0.0,1.75,0.25,3.75,2.0,3.75,6.25,0.77,0.7,1.39,173.67,-4.8,-84.6,2.0,1.0,0.75,1.25,0.0,2.0,0.25,0.25,0.5,1.0,0.75,0.25,0.0,0.2,-0.36,0.39,0.0,-8.9,29.7
0.12,0.0,0.0,0.0,0.0,0.0,0.0,0.0,0.0,0.5,5.75,4.0,4.5,6.25,-0.8,0.33,2.33,251.81,-4.3,-92.4,0.25,1.0,2.25,2.0,1.0,1.0,0.25,0.0,0.5,1.0,0.75,0.25,0.0,0.39,-0.3,0.7,33.65,-12.0,29.7
0.14,0.0,0.0,0.0,0.0,0.0,0.0,0.0,5.0,0.0,6.25,4.75,5.25,6.25,-0.17,0.27,1.08,339.41,-6.3,-83.4,0.5,0.5,2.0,1.25,0.5,1.25,0.5,0.0,0.25,1.0,0.75,0.25,0.5,0.33,-0.3,0.83,83.67,-10.2,16.7
0.16,0.25,0.0,0.0,0.25,0.0,0.0,0.0,5.25,0.5,6.5,5.5,5.0,6.25,-0.17,0.08,0.95,418.29,-5.3,-79.0,1.5,0.75,2.0,2.0,1.0,0.5,0.5,0.0,0.25,0.0,0.75,0.0,0.5,0.27,-0.11,0.83,127.17,-17.6,43.8
0.18,0.0,0.0,0.0,2.0,0.0,0.25,0.0,5.0,0.75,6.25,3.25,5.0,6.25,-0.17,0.08,0.95,472.14,-5.2,-71.2,0.0,0.0,0.25,0.75,0.0,0.0,0.25,0.0,0.5,1.0,0.0,0.25,0.0,0.27,0.14,0.83,116.18,-6.8,-19.7
0.2,0.0,0.0,0.0,0.75,0.0,1.25,0.25,5.5,0.75,6.5,0.0,5.0,6.25,-0.17,0.08,0.95,477.43,-9.1,-72.3,1.0,0.5,2.0,0.75,0.5,1.75,0.5,0.25,0.25,1.0,0.5,0.25,0.5,0.2,0.14,1.14,120.36,-8.7,20.2
0.22,0.0,0.0,0.0,1.5,0.0,1.25,0.25,5.75,1.5,6.5,0.0,5.0,6.25,-0.17,0.08,0.95,476.26,-7.8,-67.4,1.25,0.5,2.0,1.25,0.5,1.25,0.5,0.0,0.25,0.75,0.75,0.25,0.25,0.14,0.2,1.33,124.22,-13.5,28.8
0.24,0.0,0.0,0.0,0.5,0.0,1.25,0.25,5.75,1.5,6.5,1.75,5.0,6.25,-0.17,0.08,0.95,472.69,-7.6,-72.5,1.25,0.75,2.0,1.25,0.5,1.75,0.5,0.0,0.25,1.0,0.5,0.25,0.25,0.14,0.33,1.52,148.41,-11.1,30.8
0.26,0.25,0.0,0.75,0.0,1.25,1.5,0.5,6.0,1.75,6.25,5.75,4.75,6.0,-0.17,0.08,0.95,504.31,-4.4,-63.3,1.25,1.0,2.0,1.0,0.5,1.5,0.5,0.0,0.5,1.0,0.75,0.25,0.5,0.27,0.52,1.52,158.7,-11.1,24.2
0.28,0.25,0.5,0.0,2.5,2.0,2.0,0.75,6.0,1.75,5.75,5.75,4.25,5.75,-0.17,0.08,0.95,538.19,-3.5,-49.7,0.0,0.5,2.0,1.0,0.25,1.5,0.25,0.0,0.25,1.0,0.5,0.25,0.25,0.33,0.58,1.83,155.97,-8.4,16.5
0.3,0.0,0.75,0.0,2.0,2.0,2.25,0.5,6.0,2.5,5.75,5.5,4.0,5.25,-0.17,0.08,0.95,556.38,-3.9,-49.1,1.5,0.75,2.0,1.0,0.5,1.5,0.25,0.0,0.25,0.75,0.75,0.25,0.5,0.52,0.7,1.95,154.82,-12.0,28.0
0.32,0.0,0.75,0.0,4.0,3.25,2.75,0.75,6.0,2.5,4.75,5.5,3.25,4.25,-0.17,0.08,0.95,553.04,-2.5,-34.5,1.25,0.5,2.0,0.5,0.5,1.5,0.25,0.25,0.5,1.0,0.75,0.25,0.5,0.45,1.08,2.14,146.71,-9.7,16.7
0.34,0.25,1.0,0.75,4.25,3.5,2.75,0.5,6.0,2.75,4.5,5.25,3.0,4.0,-0.17,0.08,0.95,542.01,-1.3,-28.3,1.25,0.75,2.0,1.0,0.5,1.0,0.25,0.0,0.5,1.0,0.75,0.25,0.0,0.14,1.58,2.33,146.19,-13.9,29.1
0.36,0.25,1.0,1.0,6.0,5.0,3.25,0.75,6.0,2.5,3.5,4.0,2.0,2.75,-0.17,0.08,0.95,537.53,-0.3,-11.3,1.5,0.75,2.0,1.0,0.5,1.25,0.5,0.0,0.5,1.0,0.75,0.25,0.5,-0.48,2.45,1.58,151.09,-12.4,23.8
0.38,1.5,1.0,1.5,7.0,5.5,3.25,0.75,5.75,2.5,3.0,4.0,1.75,2.25,-0.17,0.08,0.95,548.62,1.9,-1.7,1.25,1.0,1.75,0.5,0.5,1.25,0.5,0.0,0.25,1.0,0.75,0.25,0.5,-0.61,2.83,0.45,152.98,-10.9,22.7
0.4,0.5,1.0,1.5,7.75,6.0,3.75,1.0,5.5,2.25,2.75,3.25,1.0,1.5,-0.17,0.08,0.95,556.28,1.3,5.0,1.25,0.75,2.0,1.25,0.5,0.75,0.25,0.0,0.25,0.75,0.75,0.5,0.5,-1.67,3.83,0.7,152.89,-14.1,23.1
0.42,1.75,1.0,0.0,8.5,6.75,4.0,1.0,5.5,2.25,1.25,2.75,1.0,1.5,-0.11,0.08,0.95,561.99,1.5,12.2,1.25,1.0,1.75,0.5,0.5,1.25,0.5,0.0,0.5,1.0,0.75,0.25,0.5,-2.48,4.14,0.52,152.52,-10.9,21.1
0.44,2.25,1.0,2.5,9.0,7.0,4.0,1.0,5.25,1.75,1.25,2.25,1.0,1.5,-0.11,0.08,0.95,577.51,4.3,19.2,1.25,0.75,1.0,1.25,0.5,1.0,0.5,0.0,0.25,2.5,0.25,1.5,1.25,-1.73,2.89,0.39,155.36,-4.9,-10.3
0.46,2.25,1.25,2.25,10.0,7.5,4.5,1.0,4.75,1.5,1.25,2.25,1.0,1.25,-0.11,0.08,0.95,596.12,4.3,22.9,0.75,0.5,1.25,0.5,0.5,1.25,0.25,0.25,0.25,4.5,2.0,5.25,5.75,0.7,0.39,1.64,217.58,0.9,-62.0
0.48,2.25,1.5,2.75,10.5,8.0,4.75,1.25,4.75,1.5,1.25,1.75,1.0,1.0,-0.11,0.08,0.95,623.57,4.8,26.6,2.25,0.0,1.0,0.75,0.5,1.0,0.25,1.75,0.5,7.75,4.5,6.0,7.75,-0.61,1.02,1.7,314.25,1.4,-63.5
0.5,2.25,2.0,2.75,11.5,8.25,4.75,1.25,4.5,0.75,1.25,1.75,1.0,1.0,-0.17,0.08,0.95,650.8,5.1,29.9,0.75,0.25,1.5,1.25,0.0,2.25,0.25,3.25,1.0,8.75,6.0,6.5,7.5,0.33,0.08,1.52,450.92,2.5,-63.5
0.52,2.25,2.5,3.75,11.5,8.5,4.75,1.5,4.25,0.75,1.25,1.5,1.0,0.5,-0.17,0.14,0.95,683.07,6.3,34.1,1.25,1.0,1.0,1.75,1.25,2.25,0.25,5.25,1.0,8.75,7.5,6.0,8.0,0.02,0.27,1.08,607.85,2.6,-54.7
0.54,3.0,2.5,4.25,12.5,8.75,4.75,1.5,3.5,0.0,1.25,1.5,0.5,0.75,-0.17,0.14,0.95,712.08,7.4,39.2,0.5,1.0,1.5,1.25,1.0,3.0,0.25,5.5,1.0,8.75,6.25,6.0,8.0,0.14,0.08,0.95,709.15,3.7,-55.7
0.56,2.25,2.5,4.5,12.5,8.75,4.75,1.25,3.5,0.0,1.0,1.25,0.75,0.5,-0.17,0.14,0.95,724.39,7.4,39.7,1.25,0.75,1.25,1.25,1.25,4.25,0.5,5.5,1.0,8.5,6.75,5.75,8.0,0.14,0.08,0.95,773.99,3.7,-51.4
0.58,2.25,2.5,4.5,13.0,8.75,4.75,1.0,3.5,0.5,1.0,1.0,0.25,0.5,-0.17,0.14,0.95,730.27,7.4,41.4,1.25,0.75,1.5,1.25,1.25,4.0,0.5,5.75,1.0,8.5,7.0,5.75,7.75,0.14,0.08,0.95,800.42,3.3,-51.0
0.6,3.5,3.25,5.5,13.5,9.5,4.75,1.0,3.25,0.5,1.25,1.0,0.5,0.5,-0.17,0.14,1.02,762.32,8.7,43.4,1.25,0.25,1.5,2.0,2.25,4.5,0.5,6.0,1.0,8.5,6.25,5.5,7.5,0.14,0.08,0.95,814.99,3.6,-46.3
0.62,0.0,3.25,5.75,13.5,9.5,4.75,0.75,3.5,0.5,1.0,0.75,0.25,0.5,-0.17,0.14,1.02,763.73,6.9,41.4,0.0,0.75,1.25,2.0,2.75,4.5,0.5,6.5,1.0,8.5,6.25,5.25,7.5,0.08,0.08,0.95,815.7,4.9,-47.2
0.64,0.0,2.5,6.0,12.5,9.75,3.25,0.75,3.0,0.0,0.0,0.0,0.0,0.25,-0.17,0.2,1.02,726.31,8.6,49.3,0.5,0.75,1.5,2.25,3.0,5.25,0.75,6.5,1.0,8.25,6.25,5.25,7.25,0.14,0.08,0.95,813.29,4.2,-42.2
0.66,0.0,2.5,6.5,12.5,9.5,3.75,0.25,0.0,1.25,0.0,0.0,0.25,0.5,-0.17,0.2,1.08,673.0,10.5,51.3,1.75,1.0,2.0,2.75,4.25,5.5,0.75,6.5,1.0,8.0,5.25,4.75,6.75,0.14,0.08,0.95,802.62,2.9,-30.9
0.68,6.5,2.75,5.75,14.0,8.25,2.75,0.0,1.75,0.0,0.0,0.75,0.0,0.25,-0.23,0.27,1.08,665.4,13.7,57.1,1.0,1.0,2.0,2.75,4.5,6.0,0.75,6.5,1.25,8.0,5.5,4.25,6.5,0.14,0.08,0.95,780.69,3.5,-30.6
0.7,7.0,4.0,6.75,13.5,8.5,0.0,0.0,1.75,0.25,0.5,0.75,0.0,0.5,-0.23,0.33,1.2,678.58,15.9,57.1,1.5,1.0,2.0,2.75,4.5,6.0,0.75,6.5,1.75,7.75,6.0,4.25,6.25,0.14,0.08,0.95,756.28,2.7,-29.3
0.72,7.0,3.5,5.75,12.5,7.25,0.75,0.0,2.0,0.5,0.5,0.75,0.0,0.25,-0.36,0.33,1.39,682.68,15.4,56.1,1.5,1.75,2.5,3.5,4.75,6.0,1.25,6.5,1.75,7.5,6.25,4.25,6.0,0.14,0.08,0.95,754.01,1.5,-24.2
0.74,7.5,2.5,5.0,10.0,6.25,0.0,0.0,2.0,0.5,0.5,0.25,0.0,0.25,-0.61,0.45,1.52,637.51,16.5,57.5,1.5,1.0,2.5,3.0,4.75,6.0,1.25,6.5,1.75,7.0,6.0,3.5,5.5,0.14,0.08,0.95,739.15,1.9,-24.1
0.76,6.25,1.0,2.5,7.0,0.0,0.0,0.0,2.0,0.0,0.0,0.0,0.0,0.25,-0.92,0.7,1.58,476.98,21.2,60.3,1.75,1.0,3.25,4.25,5.75,6.0,1.5,6.25,1.75,6.75,4.75,3.0,5.0,0.14,0.08,0.95,738.28,0.7,-15.0
0.78,5.25,0.5,0.0,4.25,0.0,0.0,0.0,1.0,0.5,0.25,0.0,0.0,0.25,-1.05,1.2,2.83,314.16,19.9,57.5,1.75,1.25,4.0,5.25,6.5,6.5,1.75,5.75,1.75,6.0,4.5,2.75,4.25,0.14,0.08,0.95,748.54,-0.5,-6.9
0.8,0.0,0.0,0.0,2.0,0.0,0.0,0.0,0.0,0.0,0.25,0.0,0.0,0.25,-0.23,0.45,2.58,164.3,10.9,28.4,3.5,1.5,4.75,5.25,6.5,6.5,2.0,5.5,1.75,5.25,4.5,2.0,3.75,0.14,0.08,0.95,768.48,-2.6,1.5
0.82,0.0,0.0,0.5,0.5,0.0,0.0,0.0,0.0,0.0,0.25,0.0,0.0,0.25,-0.8,0.33,2.27,29.23,13.7,9.4,3.0,1.75,5.0,6.0,6.5,6.75,2.5,5.5,1.75,4.0,3.75,1.5,3.25,0.14,0.08,0.95,777.07,-3.2,7.7
0.84,0.5,0.0,0.0,2.0,0.0,0.0,0.0,0.0,0.25,0.25,0.0,0.0,0.25,-1.23,-0.8,1.64,0.0,14.4,33.2,3.75,1.75,5.25,6.75,7.5,6.5,2.5,4.5,1.75,4.0,3.25,1.5,2.5,0.14,0.08,0.95,789.68,-4.6,14.4
0.86,0.0,0.0,0.0,2.0,0.0,0.0,0.0,0.0,0.25,0.25,0.0,0.0,0.0,-0.67,-0.11,1.58,0.0,13.5,35.8,3.75,2.0,6.25,7.5,8.0,6.75,3.0,4.5,1.5,3.0,2.5,1.0,2.25,0.14,0.08,0.95,801.16,-5.7,22.1
0.88,0.0,0.25,0.0,2.0,0.0,0.0,0.0,0.0,0.25,0.25,0.0,0.0,0.25,-1.05,-1.05,0.45,0.0,11.2,29.0,4.75,2.0,6.75,8.75,8.25,6.75,3.0,3.75,1.25,2.75,2.5,1.0,2.25,0.14,0.08,0.95,825.1,-7.2,26.4
0.9,0.0,0.25,0.0,2.0,0.0,0.0,0.0,0.0,0.25,0.25,0.0,0.0,0.25,-0.86,-0.67,0.7,0.0,11.2,29.0,5.5,2.25,7.25,9.75,8.25,6.75,3.5,3.25,1.0,2.5,2.5,1.0,2.0,0.08,0.08,0.95,860.06,-8.5,30.6
0.92,0.0,0.0,0.0,2.0,0.0,0.0,0.0,0.0,0.0,0.25,0.0,0.0,0.25,-0.61,-0.36,0.64,0.0,10.9,28.4,6.0,2.0,7.5,10.5,9.0,6.75,3.75,3.25,1.0,2.5,2.0,0.75,1.5,0.08,0.08,0.95,900.3,-9.1,34.5
0.94,0.25,0.0,0.25,1.25,0.0,0.0,0.0,0.0,0.0,0.25,0.0,0.0,0.5,-0.48,-0.36,0.52,0.0,11.5,15.1,6.75,2.25,8.25,11.5,9.25,6.75,4.0,2.0,1.0,2.5,2.0,0.75,1.5,0.08,0.14,0.95,945.32,-10.5,38.0
0.96,1.0,0.0,0.0,2.0,0.0,0.0,0.0,0.0,0.0,0.0,0.0,0.0,0.25,-0.55,-0.23,0.64,0.0,19.8,56.1,7.75,2.25,8.5,12.5,9.25,6.75,4.5,1.75,0.5,1.5,1.5,0.25,1.25,0.08,0.14,0.95,978.78,-11.9,45.3
0.98,1.25,0.0,0.0,2.0,0.0,0.0,0.0,0.0,0.0,0.0,0.0,0.0,0.25,-0.61,-0.17,0.77,0.0,20.8,58.8,8.25,2.5,9.0,13.0,10.5,6.75,4.5,1.75,0.5,1.5,1.5,0.25,0.75,0.08,0.14,0.95,1026.58,-12.2,47.7
1.0,0.5,0.0,0.0,2.0,0.0,0.0,0.0,0.0,0.25,0.25,0.0,0.0,0.25,-0.42,0.14,1.02,32.49,14.4,33.2,8.75,2.25,9.25,14.0,11.0,6.5,4.25,1.75,0.5,1.0,1.0,0.25,0.0,0.02,0.14,1.02,1058.21,-13.1,52.3
1.02,0.5,0.0,0.0,2.0,0.0,0.0,0.0,0.0,0.25,0.25,0.0,0.0,0.25,-0.36,0.27,1.2,49.55,14.4,33.2,9.0,3.5,9.5,14.0,11.0,6.0,4.0,0.75,0.5,1.25,1.25,0.25,1.0,0.02,0.14,1.02,1096.13,-13.4,51.4
1.04,0.0,0.0,0.0,2.0,0.0,0.0,0.0,0.0,0.25,0.25,0.0,0.0,0.25,-0.3,0.39,1.39,56.07,11.0,22.6,9.75,3.25,10.0,13.5,11.0,6.0,3.5,0.75,0.5,1.25,1.5,0.25,1.0,0.08,0.2,1.02,1123.09,-13.8,51.4
1.06,0.0,0.0,0.0,2.0,0.0,0.0,0.0,0.0,0.25,0.25,0.0,0.0,0.25,-0.36,0.52,1.58,52.64,11.0,22.6,10.0,3.0,9.75,14.0,11.0,5.5,3.0,0.5,0.5,1.0,1.5,0.25,0.5,0.08,0.2,1.08,1131.47,-14.5,53.8
1.08,0.0,0.0,0.0,2.0,0.0,0.0,0.0,0.0,0.25,0.0,0.0,0.0,0.25,-0.36,0.58,1.83,47.17,13.6,32.1,10.5,3.5,9.25,14.0,9.25,4.0,2.25,0.25,0.5,1.0,1.0,0.25,0.5,0.08,0.27,1.14,1092.77,-16.0,56.7
1.1,0.25,0.0,0.0,2.0,0.0,0.0,0.0,0.0,0.25,0.25,0.0,0.0,0.25,-0.48,0.64,2.14,48.05,12.8,28.3,10.5,2.75,8.75,12.0,8.75,2.0,1.25,0.25,0.5,1.0,1.5,0.25,1.0,0.14,0.33,1.27,1005.93,-17.0,54.3
1.12,0.25,0.0,0.25,2.0,0.0,0.0,0.0,0.0,0.25,0.25,0.0,0.0,0.25,-0.61,0.89,2.52,50.0,14.8,30.8,9.75,2.25,8.0,11.5,8.0,0.5,1.25,0.25,0.25,1.0,1.5,0.25,0.5,0.08,0.33,1.27,884.96,-18.4,55.9
1.14,0.0,0.0,0.0,1.75,0.0,0.0,0.0,0.0,0.25,0.25,0.0,0.0,0.25,-0.36,1.33,2.52,48.58,10.4,19.1,8.25,2.0,6.25,8.0,6.5,0.0,1.25,0.25,0.5,1.0,1.25,0.25,0.5,0.39,0.52,1.64,720.16,-18.5,54.2
1.16,0.0,0.0,0.5,1.5,0.0,0.0,0.0,0.0,0.25,0.0,0.0,0.0,0.25,0.02,1.89,2.39,46.83,17.8,32.6,7.0,0.75,2.5,4.0,4.25,0.0,1.25,0.25,0.5,1.0,1.25,0.25,0.0,0.77,1.27,3.08,508.05,-18.1,51.4
1.18,0.0,0.0,0.5,1.75,0.0,0.0,0.0,0.0,0.25,0.25,0.0,0.0,0.0,0.83,2.27,1.45,45.4,17.6,38.3,4.5,0.25,1.75,3.25,0.5,0.5,1.25,0.25,0.25,0.0,1.0,0.0,0.0,-0.05,0.45,2.52,311.89,-22.9,55.9
1.2,0.0,0.0,0.25,2.0,0.0,0.0,0.0,0.0,0.25,0.25,0.5,0.0,0.25,1.52,3.14,0.77,48.29,13.0,12.2,3.25,1.0,0.25,2.75,0.25,1.5,0.25,0.0,0.5,1.25,0.0,0.25,0.0,0.14,0.33,1.95,187.1,-12.4,46.0
1.22,0.0,0.0,0.5,1.75,0.0,0.0,0.0,0.0,0.25,0.25,0.0,0.0,0.25,2.08,4.7,0.39,50.0,15.0,26.0,2.0,0.75,1.25,2.75,0.0,0.25,0.25,0.0,0.5,1.0,0.0,0.25,0.0,0.77,0.2,2.08,76.61,-18.5,44.2
1.24,0.5,0.0,0.5,1.75,0.0,0.0,0.0,0.0,0.25,0.25,0.75,0.0,0.25,3.02,4.02,0.45,58.62,16.5,16.7,1.5,0.5,2.0,2.5,0.5,0.75,0.25,0.25,0.25,0.5,1.25,0.25,0.0,0.89,-1.05,1.83,20.81,-16.3,33.2
1.26,0.5,0.0,0.5,1.0,0.0,0.0,0.0,0.0,0.75,1.0,0.0,0.5,0.5,-0.92,-0.05,1.2,65.93,9.3,-16.2,0.0,0.0,2.0,0.75,1.0,1.0,0.25,0.25,0.5,1.25,1.0,0.25,0.5,0.77,-1.23,1.14,0.0,-6.6,-1.3
1.28,0.0,0.0,0.5,0.25,0.0,0.0,0.0,0.0,0.25,1.25,0.0,2.0,1.75,-1.23,-0.42,0.77,82.88,0.0,-78.1,0.0,0.25,0.5,0.25,1.0,0.0,0.5,0.0,0.0,0.0,1.25,0.0,0.5,0.7,-0.86,1.45,0.0,-9.0,-1.7
1.3,0.5,0.0,0.0,0.25,0.0,0.0,0.0,2.75,0.5,4.0,0.0,3.75,5.25,0.33,0.33,1.02,155.15,-7.1,-80.1,1.0,0.5,0.75,2.0,0.0,1.25,0.25,0.0,0.25,1.0,0.0,0.25,0.0,0.27,-0.48,0.52,0.0,-10.0,34.0
1.32,0.0,0.0,0.0,0.0,0.0,0.0,2.0,0.0,0.75,5.75,1.75,4.0,6.25,0.08,0.52,3.83,227.43,-4.3,-87.3,1.25,0.5,2.25,2.0,0.5,1.25,0.5,0.25,0.25,1.0,1.0,0.25,0.25,0.2,-0.42,0.33,0.0,-12.9,25.5
1.34,0.5,0.0,0.0,0.0,0.0,0.0,0.0,5.25,0.5,6.5,4.5,5.0,6.25,-0.11,0.33,1.14,319.4,-5.7,-79.0,1.25,0.5,2.25,1.25,0.5,1.5,0.75,0.25,0.0,0.0,0.5,0.0,0.5,0.39,-0.42,0.7,34.46,-14.5,41.3
1.36,0.25,0.0,0.0,1.25,0.0,0.0,0.0,5.5,0.5,6.25,3.75,5.0,6.0,-0.05,0.08,1.02,395.55,-5.4,-73.6,1.0,0.25,0.5,1.25,0.0,2.0,0.25,0.0,0.5,1.25,0.0,0.25,0.0,0.45,-0.48,0.95,61.63,-3.9,21.5
1.38,0.0,0.0,0.0,1.5,0.0,0.25,0.25,5.5,0.5,6.25,4.5,4.75,6.0,-0.17,0.08,0.95,464.9,-5.2,-72.3,1.5,0.75,2.25,1.5,0.5,1.5,0.5,0.0,0.25,0.75,1.0,0.5,0.5,0.33,-0.17,0.95,105.88,-13.0,24.9
1.4,0.0,0.0,0.0,0.25,0.0,0.5,0.25,5.5,0.0,6.25,4.5,4.5,6.25,-0.17,0.08,0.95,486.62,-6.9,-78.1,1.25,1.0,2.0,0.75,1.0,1.25,0.25,0.25,0.25,1.0,0.75,0.25,0.5,0.39,0.08,1.08,134.74,-10.0,24.7
1.42,0.0,0.0,0.0,0.0,0.0,1.5,0.25,5.25,0.75,6.25,5.25,5.0,6.25,-0.17,0.08,0.95,507.86,-6.4,-75.6,1.25,0.5,2.0,1.5,0.5,1.25,0.5,0.0,0.25,0.75,1.0,0.25,0.5,0.39,0.14,1.27,151.89,-12.8,23.5
1.44,0.0,0.0,0.0,0.0,0.0,1.25,0.25,5.5,1.0,6.5,0.0,5.0,6.0,-0.17,0.08,0.95,483.87,-9.6,-75.6,1.25,1.0,2.0,1.25,0.5,1.25,0.25,0.25,0.25,1.0,0.75,0.25,0.5,0.33,0.2,1.45,159.78,-11.1,24.8
1.46,0.25,0.0,0.0,0.0,0.0,1.5,0.5,5.5,1.25,6.25,6.0,5.0,6.0,-0.11,0.02,0.95,498.79,-5.3,-72.8,0.5,0.5,2.0,1.25,0.5,1.75,0.5,0.0,0.25,1.0,0.25,0.25,0.5,0.14,0.52,1.52,158.79,-8.5,22.5
1.48,0.25,0.5,0.0,0.25,0.0,1.5,0.75,5.5,2.0,6.0,6.5,5.0,6.0,-0.17,0.02,0.95,512.91,-4.0,-68.1,1.25,0.25,2.0,1.25,0.5,1.25,0.25,0.0,0.25,1.0,0.75,0.25,0.5,0.2,0.58,1.83,154.27,-11.7,20.3
1.5,0.25,0.25,0.0,2.25,1.0,2.0,0.75,5.5,2.75,5.75,6.5,4.75,5.75,-0.17,0.02,0.95,545.12,-2.8,-55.8,1.25,0.5,2.0,0.0,0.5,1.5,0.5,0.25,0.25,1.0,0.25,0.25,0.5,0.33,0.52,1.89,147.75,-9.4,21.2
1.52,1.25,0.0,0.0,2.25,2.0,1.5,0.75,5.5,2.75,5.75,6.5,4.25,5.5,-0.17,0.02,0.95,558.13,-1.8,-49.8,1.5,0.75,2.0,1.0,0.5,1.0,0.5,0.0,0.5,1.0,0.75,0.25,0.5,0.58,0.7,1.95,150.83,-13.2,23.5
1.54,2.25,0.75,0.0,2.75,2.0,1.5,0.75,5.5,3.0,5.0,6.25,4.0,5.25,-0.11,0.02,0.95,561.59,0.0,-40.3,0.5,0.75,2.0,1.0,0.5,1.75,0.5,0.25,0.25,1.25,1.0,0.25,0.5,0.58,1.02,1.83,149.16,-7.3,12.7
1.56,0.75,1.0,0.0,3.75,2.25,2.0,1.0,5.5,3.5,4.5,5.75,3.25,4.25,-0.11,0.02,0.95,547.04,-0.6,-35.6,0.25,0.75,2.0,1.0,0.5,1.5,0.5,0.0,0.25,1.0,0.75,0.25,0.5,0.02,1.39,1.77,146.76,-8.6,16.2
1.58,1.25,1.0,0.0,3.25,3.0,2.0,1.0,5.0,3.25,4.0,5.5,3.0,3.5,-0.11,0.02,0.95,516.04,0.0,-30.0,1.5,0.25,1.75,0.0,0.5,1.25,0.25,0.0,0.25,0.75,0.75,0.25,0.5,0.14,1.64,2.02,139.45,-11.5,18.1
1.6,2.0,1.0,2.75,4.0,3.25,2.0,1.5,5.0,3.25,3.0,5.0,2.5,2.75,-0.11,0.02,0.95,510.3,4.5,-13.4,1.5,0.75,2.25,1.25,0.5,0.75,0.75,0.0,0.25,0.75,0.75,0.0,0.5,0.2,2.27,1.33,140.45,-16.0,32.8
1.62,3.0,1.0,2.75,6.0,3.5,2.0,1.5,4.75,3.0,3.0,4.0,2.0,1.75,-0.11,0.08,0.95,513.97,6.2,-0.5,1.5,0.75,2.0,1.0,0.5,1.5,0.25,0.0,0.25,1.0,0.5,0.25,0.25,-0.67,3.08,0.27,139.49,-12.0,31.6
1.64,3.5,1.0,2.75,7.0,4.75,2.0,1.75,4.75,3.0,1.75,4.0,1.25,1.5,-0.11,0.08,0.95,532.8,7.4,9.5,0.75,0.25,1.5,0.5,0.5,1.5,0.25,0.0,0.25,1.0,0.75,0.25,0.5,-1.86,4.39,0.14,135.23,-7.0,9.8
1.66,3.75,1.0,3.75,7.75,5.5,2.5,2.0,4.5,2.75,1.25,3.25,1.0,1.5,-0.11,0.08,0.95,559.03,8.3,17.5,1.5,0.25,2.0,0.5,0.5,1.0,0.5,0.0,0.25,1.0,0.75,0.25,0.5,-2.55,3.58,0.64,134.41,-13.1,18.8
1.68,3.75,1.0,4.5,8.75,5.75,2.75,2.25,4.25,2.5,1.25,2.75,1.0,1.25,-0.11,0.08,0.95,591.98,9.2,22.2,1.25,0.5,1.0,0.75,0.5,1.25,0.5,0.0,0.25,1.75,0.25,1.25,1.25,0.7,-0.17,0.2,137.95,-4.9,-8.4
1.7,4.75,1.0,5.25,9.0,6.25,2.75,2.5,3.5,2.25,1.25,2.5,1.0,1.0,-0.11,0.08,0.95,617.54,10.8,28.0,1.5,0.75,1.25,0.75,0.5,1.75,0.25,0.25,0.25,5.5,1.25,4.75,6.0,1.14,-0.8,0.89,211.7,1.2,-52.4
1.72,5.25,1.25,5.75,10.0,7.0,2.75,2.75,3.5,1.75,1.5,2.25,0.75,0.75,-0.11,0.08,0.95,657.65,11.3,33.0,1.25,0.75,0.75,0.5,0.5,2.0,0.25,1.75,0.5,7.75,3.75,6.0,8.25,-1.42,1.52,2.2,311.2,3.5,-63.9
1.74,5.25,1.75,5.75,11.0,7.75,2.75,2.75,3.75,1.25,1.25,1.75,1.0,0.5,-0.11,0.08,0.95,701.51,11.3,36.8,1.25,1.0,1.25,0.5,0.5,2.0,0.25,3.25,1.0,8.75,6.25,6.0,8.0,0.52,0.2,1.7,456.24,2.5,-60.7
1.76,5.25,2.5,6.75,11.5,7.5,2.75,3.0,3.5,0.75,1.25,1.5,1.0,0.75,-0.11,0.08,0.95,748.28,12.1,39.3,1.75,0.5,2.0,1.25,2.5,4.25,0.5,5.5,1.0,8.75,6.5,6.0,8.25,0.02,0.33,1.2,626.52,2.9,-46.5
1.78,6.0,2.5,6.75,12.5,8.0,2.5,3.0,3.5,0.75,0.5,0.75,0.5,0.5,-0.11,0.08,0.95,784.46,13.1,46.7,1.5,0.5,2.0,0.25,2.25,4.25,0.5,5.5,1.0,8.75,7.5,6.0,8.0,0.14,0.14,0.95,752.52,3.2,-50.4
1.8,5.75,2.5,7.5,12.5,8.0,2.75,3.25,2.0,1.0,1.5,0.0,0.5,0.5,-0.17,0.14,1.02,807.97,13.7,48.1,1.5,1.0,2.0,0.5,3.0,4.5,0.75,5.5,1.0,8.5,7.0,5.25,8.0,0.08,0.08,0.95,825.69,3.1,-44.4
1.82,5.75,2.25,7.75,13.5,7.5,4.25,4.5,1.75,2.5,0.5,0.0,0.5,0.0,-0.17,0.14,1.02,833.05,14.2,49.4,1.75,1.0,2.0,1.75,3.25,4.5,0.75,5.5,1.0,8.5,6.5,5.0,7.5,0.14,0.08,0.89,851.99,2.5,-39.1
1.84,7.0,3.25,7.75,14.0,7.75,3.5,5.5,5.0,0.0,0.5,0.75,0.75,0.0,-0.11,0.14,1.02,879.35,13.4,47.8,3.5,0.5,2.5,1.25,4.25,5.0,0.75,5.5,1.25,8.0,6.25,4.25,7.5,0.14,0.08,0.95,860.75,1.5,-31.6
1.86,0.0,0.5,8.5,13.0,8.0,3.25,5.5,0.0,0.0,0.0,0.0,0.0,0.0,-0.17,0.2,1.08,797.85,14.8,54.0,3.0,1.0,2.5,1.75,4.5,5.5,1.0,5.5,1.5,7.75,6.25,4.25,6.75,0.08,0.08,0.95,857.23,1.3,-28.0
1.88,6.75,0.0,6.5,10.5,1.75,0.0,1.75,0.0,0.0,0.0,0.0,0.0,0.0,-0.17,0.2,1.08,642.71,25.5,66.7,3.75,1.0,2.5,2.5,4.25,5.5,1.25,5.5,1.5,7.5,5.5,3.25,6.25,0.08,0.08,0.95,841.93,0.6,-21.8
1.9,6.75,0.0,6.75,8.5,2.0,0.0,3.5,1.0,0.0,0.0,0.0,0.0,0.0,-0.23,0.27,1.2,496.33,24.6,62.1,4.5,0.75,3.75,3.0,4.5,5.5,1.25,5.5,1.75,7.25,5.25,3.0,6.0,0.14,0.08,0.95,831.23,-1.0,-16.2
1.92,6.5,0.0,7.0,8.5,0.0,0.0,2.75,2.0,0.0,0.0,0.0,0.0,0.0,-0.3,0.33,1.27,390.06,25.5,59.1,6.0,0.75,4.75,2.75,4.5,5.5,1.5,5.5,1.75,6.75,4.5,3.0,5.5,0.14,0.08,0.95,818.42,-2.8,-9.6
1.94,5.5,0.0,3.5,5.25,0.0,0.0,0.0,0.0,0.0,0.0,0.0,0.0,0.0,-0.36,0.33,1.39,286.9,28.9,73.1,6.0,1.0,4.75,3.25,4.75,5.5,1.75,5.0,1.75,6.75,4.5,3.0,5.5,0.08,0.08,0.95,805.13,-3.2,-7.7
1.96,8.25,0.0,7.5,7.75,0.0,0.0,1.0,0.0,0.5,0.5,0.75,0.0,0.75,-0.48,0.52,1.52,275.51,27.0,57.0,7.25,1.0,5.0,3.5,4.75,5.75,2.25,4.75,1.75,6.25,4.5,2.25,4.75,0.08,0.08,0.95,802.29,-4.6,-0.6
1.98,5.5,1.0,4.5,4.25,0.0,0.0,0.0,0.0,0.75,0.5,0.75,0.0,0.25,-0.92,1.14,2.39,238.48,25.8,56.9,7.5,1.25,5.5,4.25,4.75,5.75,2.5,4.5,1.75,6.0,4.0,1.75,4.0,0.08,0.08,0.95,804.73,-5.7,5.6
2.0,3.75,0.75,2.75,3.25,0.0,0.0,0.0,0.0,0.5,0.5,0.75,0.0,0.0,-0.61,0.89,2.2,195.85,24.9,55.3,7.75,1.25,6.0,4.5,4.75,5.75,2.5,4.5,1.75,5.5,3.75,1.5,4.0,0.08,0.08,0.95,806.82,-6.4,8.5
2.02,3.25,0.75,0.0,2.75,0.0,0.0,3.5,0.0,1.75,1.25,2.75,0.0,0.0,-0.61,0.33,2.58,152.52,17.8,16.0,8.25,1.0,6.5,5.25,4.75,5.75,3.0,4.5,1.75,5.25,3.75,1.5,3.5,0.08,0.08,0.95,821.78,-7.5,11.7
2.04,2.0,0.0,0.0,0.0,0.0,0.0,0.75,0.0,0.0,0.0,0.0,0.0,0.0,-0.92,0.08,2.27,72.8,34.5,86.5,8.5,1.25,6.75,5.25,5.0,5.75,3.0,3.75,1.75,4.25,3.25,1.5,3.25,0.08,0.08,0.95,826.06,-8.6,16.8
2.06,0.0,0.0,0.0,0.0,0.0,0.0,0.0,0.0,0.0,0.0,0.0,0.0,0.0,-1.11,-0.86,1.64,0.0,0.0,0.0,8.75,1.0,7.0,5.25,5.25,5.75,3.5,3.25,1.75,3.75,2.75,1.0,2.25,0.08,0.08,0.95,815.13,-9.9,23.6
2.08,0.0,0.0,0.0,0.0,0.0,0.0,0.0,0.0,0.0,0.0,0.0,0.0,0.0,-0.86,-0.23,1.89,0.0,0.0,0.0,9.25,1.25,7.5,5.75,6.0,5.75,3.75,3.25,1.75,3.25,2.5,1.0,2.25,0.08,0.08,0.95,816.73,-10.5,27.3
2.1,0.0,0.0,0.0,0.0,0.0,0.0,0.0,0.0,0.0,0.0,0.0,0.0,0.0,-1.23,-1.05,0.39,0.0,0.0,0.0,9.5,1.0,7.5,7.0,6.5,5.75,4.25,3.25,1.5,2.75,2.5,0.75,2.25,0.08,0.14,0.95,828.23,-11.0,30.2
2.12,0.0,0.5,0.0,2.5,0.0,0.0,0.5,0.0,1.25,0.75,0.0,0.25,0.0,-0.8,-0.73,0.27,0.0,11.5,13.8,9.5,2.0,8.25,7.5,6.5,5.75,4.5,3.25,1.25,2.5,2.5,0.75,1.5,0.08,0.14,0.95,853.72,-12.0,35.0
2.14,0.0,0.75,1.5,2.5,0.0,0.0,5.0,0.0,1.0,0.75,0.0,0.0,0.0,-0.61,-0.3,0.52,1.98,21.1,32.3,9.5,1.75,8.5,8.0,6.5,5.5,4.75,2.0,1.0,2.5,2.5,0.75,1.5,0.08,0.14,0.95,866.07,-13.0,37.1
2.16,0.0,0.0,1.0,0.0,0.0,0.0,0.75,0.0,0.0,0.0,1.0,0.0,0.5,-0.42,-0.42,0.45,21.31,18.9,-19.8,10.5,2.0,8.5,8.75,6.75,5.75,5.0,1.75,1.0,2.25,2.0,0.25,1.5,0.08,0.14,0.95,886.59,-13.6,42.0
2.18,0.0,0.0,0.0,2.25,0.0,0.0,0.0,0.0,0.75,1.5,0.0,0.0,0.0,-0.42,-0.36,0.64,38.0,5.6,-1.1,10.5,1.75,9.25,9.0,7.0,5.5,5.25,1.75,1.0,1.75,1.5,0.25,1.25,0.08,0.14,0.95,896.1,-14.5,45.0
2.2,0.0,0.0,0.0,0.0,0.0,0.0,0.0,0.0,0.0,0.0,0.0,0.0,0.0,-0.48,-0.3,0.89,7.74,0.0,0.0,10.5,1.75,9.25,10.5,7.5,5.75,5.75,1.75,1.0,1.5,1.5,0.25,1.25,0.08,0.14,0.95,923.03,-14.5,45.9
2.22,0.0,0.0,0.0,0.0,0.0,0.0,0.0,0.0,1.25,0.0,0.0,0.0,0.0,-0.42,-0.11,1.02,7.65,12.1,-38.5,10.5,2.0,9.5,10.5,8.0,5.5,5.75,1.75,0.75,1.5,1.5,0.25,1.0,0.08,0.14,0.95,947.69,-14.7,47.4
2.24,0.0,0.0,1.5,2.0,0.0,0.0,0.5,0.0,0.25,0.25,0.75,0.0,0.0,-0.36,0.14,1.02,24.77,21.5,27.2,10.5,1.0,10.5,12.0,8.25,5.75,6.0,1.5,0.75,1.0,1.25,0.25,1.0,0.08,0.14,0.95,980.25,-15.4,48.9
2.26,0.0,0.0,1.0,2.0,0.0,0.0,0.0,0.0,0.25,0.25,0.75,0.0,0.0,-0.23,0.33,1.27,48.24,18.9,23.2,11.0,0.75,10.5,12.0,8.25,4.5,6.0,0.25,0.5,1.0,1.25,0.25,1.0,0.08,0.14,0.95,982.95,-17.1,51.8
2.28,0.0,0.25,1.0,2.0,0.0,0.0,0.0,0.0,0.5,0.5,1.0,0.0,0.25,-0.11,0.45,1.39,77.72,14.9,9.1,10.5,2.0,10.5,12.5,8.25,4.25,6.0,0.5,0.5,1.0,1.5,0.25,0.75,0.08,0.14,0.95,992.33,-17.0,52.4
2.3,0.0,0.0,1.0,1.5,0.0,0.0,0.0,0.0,0.5,0.25,0.75,0.0,0.25,0.02,0.58,1.58,82.06,16.8,7.5,10.5,2.0,10.5,13.5,8.75,4.5,5.75,0.25,0.5,1.0,1.0,0.25,0.5,0.08,0.14,1.02,998.51,-17.0,54.7
2.32,0.0,0.0,0.75,1.75,0.0,0.0,0.0,0.0,0.25,0.25,0.75,0.0,0.0,-0.11,0.58,1.7,78.37,17.7,18.2,9.75,1.5,10.5,14.0,8.75,4.5,5.25,0.5,0.5,1.0,1.0,0.25,0.75,0.08,0.2,1.02,999.09,-16.4,52.7
2.34,0.0,0.0,0.75,1.5,0.0,0.0,0.0,0.0,0.25,0.25,0.75,0.0,0.25,-0.3,0.64,1.89,67.59,15.6,6.9,10.5,2.0,10.5,13.5,9.0,4.25,4.5,0.25,0.5,1.0,0.75,0.25,0.5,0.08,0.27,1.08,997.51,-16.9,55.6
2.36,0.0,0.0,0.75,1.5,0.0,0.0,0.0,0.0,0.5,0.25,0.75,0.0,0.25,-0.48,0.77,2.08,61.37,15.4,4.1,10.5,2.0,9.25,12.5,8.0,3.25,3.0,0.0,0.5,1.0,0.75,0.25,0.75,0.08,0.33,1.08,953.47,-17.3,55.9
2.38,0.0,0.0,0.0,1.5,0.0,0.0,0.0,0.0,0.25,0.25,0.75,0.0,0.25,-0.48,0.95,2.2,56.19,9.9,-6.7,9.5,2.0,8.25,11.5,8.25,2.25,2.25,0.25,0.5,1.25,0.75,0.25,0.5,0.14,0.33,1.14,882.52,-16.9,55.3
2.4,0.25,0.0,0.75,1.0,0.0,0.0,0.0,0.0,0.25,0.25,0.75,0.0,0.25,-0.11,2.02,2.02,59.95,16.7,5.4,9.0,2.0,7.5,10.5,6.5,0.0,1.5,0.0,0.25,1.0,0.5,0.25,0.5,0.2,0.45,1.27,759.29,-19.8,58.8
2.42,0.25,0.0,1.0,1.0,0.0,0.0,0.0,0.0,0.25,0.25,0.75,0.0,0.25,-0.23,1.02,1.58,59.14,18.2,9.1,8.5,1.25,5.75,8.0,6.25,0.0,1.25,0.0,0.25,1.0,1.25,0.25,0.0,0.52,0.7,1.39,625.16,-19.4,57.2
2.44,0.5,0.0,0.75,1.0,0.0,0.0,0.0,0.0,0.5,0.25,0.75,0.0,0.25,-0.11,1.33,1.83,62.78,17.5,8.0,7.75,0.25,4.0,5.5,4.25,0.0,1.25,0.25,0.25,1.0,0.75,0.25,0.5,0.39,0.7,2.08,469.5,-19.4,52.7
2.46,0.5,0.0,0.75,1.0,0.0,0.0,0.0,0.0,0.25,0.25,0.75,0.0,0.25,0.83,1.39,1.33,60.05,17.8,11.1,6.75,1.0,2.5,4.5,1.25,0.0,1.25,0.25,0.25,1.0,1.0,0.25,0.5,-0.36,0.64,2.45,340.64,-20.9,49.8
2.48,0.25,0.0,0.75,0.5,0.0,0.0,0.0,0.0,0.25,0.25,0.75,0.0,0.25,1.33,2.58,0.77,53.52,16.6,-3.7,4.25,1.0,1.25,3.25,0.25,0.0,1.25,0.0,0.25,1.0,0.0,0.25,0.0,0.02,0.77,1.64,232.1,-22.1,56.7
2.5,0.25,0.0,1.0,0.5,0.0,0.0,0.0,0.0,0.5,0.25,0.75,0.0,0.25,1.33,2.83,0.27,52.71,17.9,-1.4,4.25,0.75,2.5,2.75,0.5,0.0,1.0,0.0,0.25,0.75,0.0,0.0,0.5,0.39,0.45,1.39,154.06,-23.0,55.6
2.52,0.25,0.0,0.75,0.5,0.0,0.0,0.0,0.0,0.5,0.25,0.75,0.0,0.25,0.58,1.58,0.64,49.73,16.3,-6.3,1.25,0.25,2.5,0.5,0.5,0.0,0.75,0.0,0.25,0.0,0.75,0.0,0.0,0.58,0.2,1.2,62.69,-26.7,47.1
2.54,0.0,0.0,1.0,0.25,0.0,0.0,0.0,0.0,0.25,0.25,1.0,0.0,0.25,0.02,0.83,0.89,48.7,16.5,-17.1,1.5,0.0,1.0,0.5,0.0,0.0,0.25,0.0,0.0,0.0,0.0,0.0,0.0,0.58,-0.23,0.83,0.0,-32.9,75.9
2.56,0.0,0.0,0.75,1.0,0.0,0.0,0.0,0.0,0.0,1.25,0.0,0.5,0.5,0.52,1.77,-0.98,52.14,6.2,-23.9,0.5,0.0,2.5,0.25,0.0,0.0,0.25,0.0,0.0,0.0,0.25,0.0,0.0,0.77,-0.55,0.39,0.0,-34.3,55.3
2.58,0.25,0.0,0.75,0.0,0.0,0.0,0.0,0.0,0.0,1.25,0.0,3.0,2.75,0.39,0.33,1.08,82.33,0.7,-82.2,1.0,0.0,1.25,0.5,0.0,0.0,0.25,0.0,0.0,0.0,0.0,0.0,0.0,0.14,-0.23,-0.73,0.0,-33.1,71.0
2.6,0.0,0.0,0.0,0.0,0.0,0.0,0.0,0.0,0.0,3.75,0.0,5.0,6.0,0.02,0.14,1.64,150.03,-6.6,-101.2,0.25,0.0,1.0,0.5,0.0,0.0,0.25,0.0,0.0,0.0,0.0,0.0,0.0,0.39,0.02,0.58,0.0,-31.7,62.5
2.62,0.5,1.25,0.0,0.0,0.0,0.0,0.0,0.0,1.5,0.0,2.75,0.0,1.0,-0.23,0.52,1.33,158.65,9.4,-28.5,0.5,0.0,2.25,0.5,0.0,0.0,0.25,0.0,0.0,0.0,0.0,0.0,0.25,0.02,0.33,0.08,0.0,-31.0,52.2
2.64,0.5,0.0,0.0,0.0,0.0,0.0,1.25,4.25,1.25,5.25,5.0,4.0,0.0,0.02,0.64,2.83,223.53,-0.7,-65.4,0.25,0.0,1.5,0.5,0.0,0.0,0.25,0.0,0.0,0.0,0.0,0.0,0.25,-0.05,0.39,0.02,0.0,-28.6,45.6
2.66,0.25,0.0,0.0,0.0,0.0,0.25,0.25,4.25,1.0,4.5,4.5,3.0,4.25,0.2,0.33,1.14,269.63,-4.9,-74.6,0.25,0.5,1.5,0.5,0.0,0.0,0.25,0.0,0.0,0.0,0.0,0.0,0.0,0.02,0.7,-0.3,0.0,-29.5,68.6
2.68,1.5,0.0,0.5,1.0,0.0,1.25,0.5,3.5,2.5,4.5,5.5,2.25,2.75,-0.11,-0.11,0.95,325.23,0.2,-49.6,0.25,0.0,1.75,0.25,0.0,1.75,0.75,0.0,0.25,1.0,0.25,0.25,0.5,0.39,1.27,-2.36,18.54,-6.1,4.0
2.7,2.0,1.0,1.25,2.5,0.0,1.25,0.75,3.5,3.25,4.25,5.5,2.0,2.25,-0.11,0.2,0.95,371.08,3.9,-30.7,0.5,0.0,1.25,0.5,0.0,0.0,0.25,0.0,0.0,0.0,0.0,0.0,0.0,1.83,3.39,-2.73,32.14,-32.7,65.8
2.72,3.75,1.0,2.5,4.0,2.0,1.5,1.0,3.75,3.25,3.0,5.5,2.0,1.75,-0.11,0.08,1.02,442.75,7.5,-8.2,0.0,0.25,1.5,0.5,0.0,0.0,0.25,0.0,0.0,0.0,0.0,0.0,0.0,0.14,2.58,-1.05,40.67,-30.7,62.6
2.74,3.5,1.0,0.0,4.0,1.75,0.25,1.0,3.5,3.25,3.0,5.5,2.0,1.5,-0.11,0.08,0.95,461.96,6.3,-16.1,0.5,0.0,1.5,0.0,0.0,0.0,1.0,0.0,0.0,0.0,0.25,0.0,0.5,-0.61,1.52,0.02,41.3,-26.6,24.0
2.76,4.5,1.0,0.0,3.5,2.0,1.25,1.5,3.5,3.5,1.5,4.75,1.0,1.25,-0.11,0.02,0.95,463.73,7.4,-2.4,0.5,0.0,1.75,0.5,0.25,0.0,0.25,0.0,0.0,0.0,0.0,0.0,0.0,-0.48,1.02,0.52,50.09,-30.3,63.9
2.78,5.25,1.0,3.0,4.0,1.75,0.0,1.5,3.5,3.0,1.25,4.0,1.0,0.5,-0.11,0.08,0.95,455.96,13.5,11.6,0.25,0.0,1.5,0.5,0.0,0.0,0.25,0.0,0.0,0.0,0.0,0.0,0.0,-0.3,0.83,0.7,48.09,-33.1,62.2
2.8,6.25,1.25,0.0,6.0,1.75,0.0,1.5,2.75,2.75,1.25,3.25,1.0,0.25,-0.11,0.08,0.95,435.89,12.9,18.7,0.25,0.0,1.25,0.5,0.0,0.0,0.25,0.0,0.25,0.0,0.0,0.0,0.0,-0.05,0.95,0.08,46.07,-30.4,52.0
2.82,6.5,1.5,0.0,7.5,0.0,0.75,2.25,2.0,2.0,0.5,0.0,0.75,0.25,-0.05,0.02,1.02,394.15,16.3,41.9,0.5,0.25,2.25,0.75,0.25,0.0,0.75,0.0,0.0,0.0,0.25,0.0,0.5,-0.42,0.77,-0.86,59.7,-24.4,39.8
2.84,6.25,1.5,0.0,5.5,0.0,0.5,2.25,1.75,1.75,0.5,1.0,0.25,0.25,-0.05,0.14,0.95,352.18,16.8,39.8,0.25,0.25,1.75,0.5,0.25,0.75,0.75,0.0,0.25,0.0,0.25,0.0,0.5,-0.61,1.33,-1.3,70.53,-15.9,29.6
2.86,6.5,1.5,0.0,6.75,0.0,0.25,2.25,1.75,1.75,0.5,0.0,0.75,0.5,-0.05,0.2,0.83,325.19,17.2,41.6,1.75,0.75,2.25,0.5,0.25,2.0,1.0,0.25,0.25,1.0,0.25,0.25,0.5,0.02,1.64,-0.55,108.57,-11.2,29.2
2.88,6.25,1.0,0.0,6.25,0.0,0.0,2.5,1.75,2.5,0.5,1.5,0.5,0.25,-0.05,0.14,1.02,295.14,17.5,32.1,0.75,0.75,1.5,0.75,0.0,1.75,0.25,0.0,0.25,1.0,0.25,0.25,0.5,0.14,1.45,-1.61,125.85,-7.4,20.0
2.9,6.0,1.0,0.0,5.25,0.0,0.5,2.75,1.75,1.75,0.5,2.25,0.25,0.25,-0.11,0.08,1.08,283.99,16.5,30.5,0.25,0.0,2.5,0.0,0.5,0.0,0.5,0.0,0.0,0.0,0.0,0.0,0.0,-0.42,1.39,-0.73,118.03,-31.0,59.9
2.92,6.0,1.25,0.0,4.75,0.0,0.0,2.75,1.75,1.0,0.25,1.75,0.0,0.25,-0.11,0.14,1.08,268.43,18.4,39.6,1.75,0.5,1.0,1.0,0.0,2.0,0.25,0.0,0.0,0.0,0.0,0.25,0.0,-1.98,-0.42,0.83,113.69,-12.9,57.8
2.94,6.5,1.0,7.0,6.0,0.0,0.0,2.75,1.75,0.75,0.25,1.0,0.0,0.25,-0.05,0.14,1.02,287.55,24.5,50.9,0.25,0.0,2.5,0.25,0.5,0.0,0.5,0.0,0.0,0.0,0.25,0.0,0.5,-1.8,-1.3,1.39,102.53,-24.2,33.9
2.96,6.25,1.0,0.0,5.25,0.0,0.0,0.0,1.75,0.75,0.25,0.0,0.0,0.5,0.02,0.14,0.95,266.79,17.9,52.4,0.0,0.0,1.25,0.0,0.0,0.0,0.25,0.0,0.0,0.0,0.0,0.0,0.0,-0.55,-1.42,-0.11,76.09,-37.7,58.1
2.98,7.0,1.0,7.75,3.25,0.0,0.0,2.5,1.75,0.75,0.25,0.5,0.0,0.25,0.02,0.14,1.02,288.43,26.3,54.1,1.5,0.5,1.0,1.0,0.0,0.0,0.25,0.0,0.0,0.0,0.0,0.0,0.0,0.95,-0.67,-0.86,67.35,-28.4,76.5
3.0,6.5,1.0,7.5,2.25,0.0,0.0,2.25,1.75,0.75,0.25,0.0,0.25,0.25,0.02,0.14,0.83,289.02,26.5,54.0,0.5,0.25,2.5,0.5,0.0,0.0,0.25,0.0,0.0,0.0,0.5,0.0,0.25,1.7,-0.23,-1.92,67.07,-28.3,42.0
3.02,6.25,0.75,7.25,0.0,0.0,0.0,1.75,0.0,1.0,0.25,1.0,0.0,0.25,0.14,0.14,0.77,284.17,31.1,55.7,0.0,0.0,1.0,0.25,0.0,0.0,0.25,0.0,0.25,0.0,0.0,0.0,0.0,3.39,2.14,-2.55,53.03,-30.6,43.2
3.04,6.5,0.5,0.0,0.0,0.0,0.0,1.75,0.0,0.75,0.25,1.5,0.0,0.25,0.08,0.14,1.08,239.51,26.0,47.6,0.0,0.0,1.0,0.25,0.0,0.0,0.25,0.0,0.0,0.0,0.0,0.25,0.0,0.7,0.27,-0.42,37.77,-30.1,32.5
3.06,5.75,0.0,0.0,2.0,0.0,0.0,0.0,0.0,1.5,0.25,1.25,0.0,0.25,-0.11,0.14,1.27,202.36,23.2,42.3,0.0,0.0,1.0,0.25,0.0,0.0,0.25,0.0,0.0,0.0,0.0,0.0,0.0,-0.61,-0.48,0.02,22.21,-33.8,57.5
3.08,5.5,0.0,0.0,1.25,0.0,0.0,0.0,0.0,1.0,0.0,1.5,0.0,0.25,-0.17,0.2,1.33,157.88,24.7,44.0,0.0,0.0,0.75,0.25,0.0,0.0,0.25,0.0,0.0,0.0,0.0,0.0,0.0,-0.67,-0.55,-0.3,10.63,-32.8,56.8
3.1,5.0,0.0,0.0,2.0,0.0,0.0,1.5,0.0,1.25,0.0,0.75,0.0,0.25,-0.05,0.2,1.14,133.21,24.9,48.1,0.0,0.0,1.25,0.0,0.0,0.0,0.25,0.0,0.0,0.0,0.0,0.0,0.0,-0.05,0.33,-1.36,4.55,-37.7,58.1
3.12,2.75,0.0,0.0,2.0,0.0,0.0,1.0,0.0,1.25,0.0,1.5,0.0,0.25,-0.05,0.2,1.14,113.45,20.8,24.7,1.0,0.0,1.0,0.25,0.0,0.0,0.25,0.0,0.0,0.0,0.0,0.0,0.0,0.14,0.27,-1.55,16.46,-34.3,73.6
3.14,0.0,0.0,0.0,2.0,0.0,0.0,0.75,0.0,0.75,0.25,1.75,0.0,0.25,-0.05,0.14,1.39,87.62,12.5,-13.4,0.0,0.0,0.75,0.0,0.0,0.0,0.25,0.0,0.0,0.0,0.0,0.0,0.0,0.02,0.02,-1.05,16.75,-37.5,56.4
3.16,0.0,0.0,0.0,1.75,0.0,0.0,0.25,0.0,0.75,0.0,0.5,0.0,0.0,0.39,0.02,0.83,50.86,15.6,13.9,0.25,0.0,0.75,0.0,0.0,0.0,0.25,0.0,0.0,0.0,0.0,0.0,0.0,0.83,0.2,-0.86,14.52,-36.9,65.0
3.18,0.0,0.0,1.25,0.0,0.0,0.0,0.25,0.0,2.25,0.0,0.0,0.0,0.25,1.02,-1.23,0.08,22.34,19.7,-8.2,0.75,0.0,1.0,0.25,0.0,0.0,0.25,0.0,0.0,0.0,0.0,0.0,0.25,1.33,0.14,-0.92,22.02,-29.0,51.2
3.2,0.0,0.0,1.25,0.0,0.0,0.0,0.0,0.0,0.0,0.0,0.0,0.0,0.0,1.45,-1.61,0.58,1.78,38.2,61.0,0.25,0.0,0.75,0.25,0.0,0.0,0.25,0.0,0.0,0.0,0.0,0.0,0.0,1.52,0.2,-0.55,23.81,-33.2,63.7
3.22,0.0,0.0,0.0,0.0,0.0,0.0,0.0,0.0,0.0,0.0,0.0,0.0,0.0,0.77,-0.3,0.27,0.0,0.0,0.0,0.5,0.0,1.0,0.0,0.0,0.0,0.25,0.0,0.0,0.0,0.0,0.0,0.0,1.58,0.33,-0.05,23.81,-36.9,69.1
3.24,0.0,0.0,0.0,0.0,0.0,0.0,0.0,0.0,0.0,0.0,0.0,0.0,0.0,0.27,1.14,0.58,0.0,0.0,0.0,0.0,0.0,1.0,0.0,0.0,0.0,0.25,0.0,0.0,0.0,0.0,0.0,0.0,1.45,0.2,0.08,23.13,-37.6,57.4
3.26,0.0,0.0,0.0,0.0,0.0,0.0,0.0,0.0,0.0,0.0,0.0,0.0,0.0,0.45,1.83,0.89,0.0,0.0,0.0,0.0,0.0,1.0,0.25,0.0,0.0,0.25,0.0,0.0,0.0,0.0,0.0,0.0,1.08,0.14,0.33,25.59,-33.8,57.5
3.28,0.0,0.0,0.0,0.0,0.0,0.0,0.0,0.0,0.0,0.0,0.0,0.0,0.0,1.45,0.14,1.27,0.0,0.0,0.0,0.5,0.0,1.0,0.5,0.0,0.0,0.25,0.0,0.0,0.0,0.0,0.0,0.0,0.45,0.14,0.52,28.38,-32.0,66.4
3.3,0.0,0.0,0.0,0.0,0.0,0.0,0.0,0.0,0.0,0.0,0.0,0.0,0.0,0.14,-0.67,0.89,0.0,0.0,0.0,0.0,0.0,1.0,0.25,0.0,0.0,0.25,0.0,0.0,0.0,0.0,0.0,0.0,0.14,-0.11,0.27,28.7,-33.8,57.5
3.32,0.0,0.0,0.0,0.0,0.0,0.0,0.0,0.0,0.0,0.0,0.0,0.0,0.0,-0.05,-1.42,0.95,0.0,0.0,0.0,0.5,0.0,1.25,0.0,0.0,0.0,0.25,0.0,0.0,0.0,0.0,0.0,0.0,-0.05,-0.36,0.14,31.44,-37.1,68.0
3.34,0.0,0.0,0.0,0.0,0.0,0.0,0.0,0.0,0.5,0.0,0.0,0.0,0.0,-0.05,-1.61,0.2,0.0,12.1,-38.5,0.0,0.0,0.75,0.75,0.0,0.0,0.25,0.0,0.0,0.0,0.0,0.0,0.0,0.08,-0.3,-0.11,30.59,-27.9,57.1
3.36,0.0,0.0,0.0,0.0,0.0,0.0,0.0,0.0,0.5,0.25,0.0,0.25,0.0,0.2,-0.3,1.02,0.0,4.3,-65.7,0.25,0.0,1.0,0.0,0.0,0.0,0.25,0.0,0.0,0.25,0.25,0.0,0.5,0.83,0.64,-2.3,33.7,-18.0,-2.0
3.38,1.5,0.0,1.0,0.0,0.0,0.0,0.0,0.0,0.5,0.25,0.0,0.0,0.0,0.77,-0.42,1.08,16.47,28.5,51.0,0.0,0.0,1.0,0.75,0.25,0.75,0.25,0.0,0.5,0.75,0.0,0.25,0.0,1.52,1.08,-2.11,48.11,-8.1,10.8
3.4,1.25,0.0,1.0,0.0,0.0,0.0,0.0,0.0,0.5,0.25,0.0,0.0,0.25,0.7,-0.42,0.89,35.99,24.6,34.6,0.0,0.25,1.0,0.25,0.25,0.0,0.25,0.0,0.0,0.0,0.0,0.0,0.0,0.08,1.08,-1.55,48.08,-25.5,62.4
3.42,1.25,0.0,1.0,0.0,0.0,0.0,0.0,0.0,0.5,0.5,0.0,0.0,0.25,0.52,0.08,0.89,52.12,21.7,26.6,0.0,0.0,0.75,0.25,0.0,0.0,0.25,0.0,0.0,0.0,0.0,0.25,0.0,-0.11,0.52,-0.55,42.91,-28.6,27.2
3.44,1.0,0.0,1.0,0.25,0.0,0.0,0.0,0.0,0.5,0.5,0.0,0.0,0.25,0.52,0.33,0.83,62.45,20.4,24.2,1.5,0.5,2.25,0.5,0.5,1.25,0.5,0.0,0.25,1.0,0.25,0.25,1.0,0.08,0.14,-0.8,79.58,-11.5,20.3
3.46,1.25,0.0,1.0,0.25,0.0,0.0,0.0,0.0,0.5,0.5,0.0,0.0,0.25,0.45,0.27,0.7,68.83,21.4,28.8,0.5,0.25,2.25,1.0,0.5,1.25,0.5,0.0,0.25,1.0,0.5,0.25,0.5,0.33,0.14,-0.48,108.15,-10.8,16.9
3.48,1.5,0.0,1.0,0.0,0.0,0.0,0.0,0.0,0.25,0.0,0.0,0.25,0.25,0.45,-0.05,0.52,68.11,28.3,42.3,1.25,0.5,2.0,0.75,0.5,1.25,0.5,0.0,0.25,0.75,0.5,0.25,0.5,0.52,-0.05,-0.42,136.43,-12.5,25.9
3.5,0.75,0.0,0.75,0.25,0.0,0.0,0.0,0.0,0.25,0.5,0.0,0.0,0.5,0.45,-0.42,0.45,65.18,15.5,8.9,1.0,0.75,2.5,0.5,0.5,1.25,0.5,0.0,0.25,1.0,0.25,0.25,1.0,0.83,-0.17,-0.3,153.07,-11.1,19.7
3.52,1.25,0.0,0.75,0.5,0.0,0.0,0.0,0.0,0.5,0.25,0.0,0.0,0.25,0.33,-0.8,0.45,64.79,22.5,36.2,0.5,0.25,2.0,1.0,0.25,1.25,0.5,0.0,0.25,1.0,0.25,0.25,0.5,1.02,-0.17,-0.17,154.73,-10.4,17.0
3.54,0.5,0.0,1.0,0.5,0.0,0.0,0.0,0.0,0.25,0.5,0.0,0.0,0.25,0.39,-0.86,0.39,61.29,18.6,20.9,1.25,0.5,2.25,1.0,0.25,1.25,0.75,0.25,0.25,1.0,0.25,0.25,0.5,1.2,-0.11,-0.23,157.04,-12.6,25.1
3.56,0.5,0.0,0.75,0.25,0.0,0.0,0.0,0.0,0.25,0.25,0.0,0.0,0.25,0.45,-0.92,0.27,54.08,20.3,22.7,1.25,0.5,2.5,0.75,0.25,1.25,0.25,0.0,0.25,1.0,0.5,0.25,0.5,1.2,0.02,-0.3,156.89,-13.4,24.2
3.58,0.75,0.0,1.0,0.75,0.0,0.0,0.0,0.0,0.5,0.5,0.0,0.0,0.0,0.52,-0.92,0.33,53.64,21.5,34.2,1.25,0.75,2.5,0.5,0.25,1.25,0.5,0.0,0.25,1.0,0.25,0.25,0.5,1.02,0.08,-0.36,159.19,-13.6,28.1
3.6,0.75,0.0,0.75,0.5,0.0,0.0,0.0,0.0,0.25,0.5,0.0,0.0,0.0,0.52,-0.8,0.27,49.56,21.2,35.9,1.5,0.5,2.0,1.0,0.5,1.5,0.5,0.0,0.25,1.0,0.25,0.25,0.75,0.77,0.14,-0.42,160.36,-10.9,25.0
3.62,1.0,0.0,0.75,1.25,0.0,0.0,0.0,0.0,0.25,0.5,0.0,0.0,0.25,0.33,-0.86,0.27,54.27,19.0,34.5,1.25,0.75,2.0,0.5,0.25,1.25,0.25,0.0,0.25,1.0,0.25,0.25,0.75,0.64,0.2,-0.48,155.94,-11.1,22.0
3.64,1.25,0.0,0.75,1.25,0.0,0.0,0.0,0.0,0.25,0.25,0.0,0.0,0.25,0.2,-0.67,0.27,59.69,22.1,45.0,1.25,1.0,2.0,0.5,0.25,1.25,0.5,0.0,0.25,0.75,1.5,0.25,0.5,0.64,0.2,-0.61,156.3,-12.7,18.0
3.66,1.0,0.0,0.25,1.0,0.0,0.0,0.0,0.0,0.25,0.5,0.0,0.0,0.25,0.45,-0.42,0.45,60.94,16.0,28.4,1.25,0.75,2.25,0.5,0.25,0.75,0.5,0.0,0.25,0.75,0.25,0.25,0.5,0.58,0.2,-0.67,145.1,-15.9,29.9
3.68,1.0,0.0,0.75,1.0,0.0,0.0,0.0,0.0,0.25,0.25,0.0,0.0,0.25,0.45,-0.23,0.52,60.75,21.6,40.6,0.5,0.5,2.25,0.5,0.25,1.25,0.25,0.0,0.25,1.0,0.25,0.25,0.5,0.58,0.2,-0.73,132.0,-10.6,18.2
3.7,0.75,0.0,0.75,0.75,0.0,0.0,0.0,0.0,0.25,0.5,0.0,0.0,0.25,0.27,-0.23,0.64,58.39,18.1,26.2,1.25,0.5,2.25,1.5,0.5,1.0,0.25,0.0,0.25,1.0,0.25,0.25,0.5,0.52,0.14,-0.73,134.35,-13.5,29.2
3.72,1.0,0.0,0.75,1.0,0.0,0.0,0.0,0.0,0.25,0.5,0.0,0.0,0.25,0.89,-0.23,0.83,60.09,19.1,32.8,1.25,0.5,2.0,1.0,0.5,1.25,0.25,0.0,0.25,1.0,0.25,0.25,0.5,0.45,0.14,-0.67,135.78,-11.6,26.7
3.74,1.25,0.0,0.75,1.0,0.0,0.0,0.0,0.0,0.25,0.5,0.0,0.0,0.25,0.89,-0.3,0.39,62.63,20.0,36.6,1.25,0.75,2.25,0.5,0.5,1.0,0.25,0.0,0.25,1.0,0.25,0.25,0.5,0.52,0.14,-0.61,137.42,-13.1,27.8
3.76,0.25,0.0,0.75,1.0,0.0,0.0,0.0,0.0,0.5,0.25,0.0,0.0,0.25,0.95,-0.42,0.39,60.37,17.7,21.0,0.75,1.0,2.0,0.5,0.5,1.25,0.5,0.0,0.25,1.0,0.25,0.25,0.5,0.7,0.2,-0.61,137.07,-10.4,25.3
3.78,0.0,0.0,0.75,1.0,0.0,0.0,0.0,0.0,0.25,0.25,0.0,0.0,0.25,0.77,-0.42,0.39,54.7,16.7,19.8,1.5,1.0,2.0,0.5,0.25,1.25,0.25,0.0,0.25,1.0,0.25,0.25,0.5,0.77,0.2,-0.55,136.85,-12.5,30.1
3.8,0.25,0.0,0.75,0.75,0.0,0.0,0.0,0.0,0.25,0.0,0.0,0.0,0.25,0.64,-0.48,0.52,46.76,22.1,33.8,1.25,1.0,2.25,0.75,0.5,1.25,0.25,0.0,0.25,1.0,0.5,0.25,0.5,0.77,0.2,-0.55,140.82,-12.2,28.1
3.82,0.75,0.0,0.75,0.25,0.0,0.0,0.0,0.0,0.5,0.25,0.0,0.0,0.25,0.52,-0.48,0.58,42.09,20.8,23.6,1.0,0.5,2.0,0.0,0.5,1.75,0.25,0.0,0.25,1.0,0.25,0.25,0.5,0.77,0.2,-0.55,137.41,-8.2,21.1
3.84,0.75,0.0,0.75,1.0,0.0,0.0,0.0,0.0,0.25,0.25,0.0,0.0,0.25,0.45,-0.55,0.58,44.1,20.6,36.5,1.25,0.25,2.0,0.5,0.25,0.75,0.5,0.0,0.25,0.0,0.5,0.0,0.5,0.77,0.2,-0.48,126.8,-19.0,36.8
3.86,0.75,0.0,0.75,1.0,0.0,0.0,0.0,0.0,0.25,0.25,0.0,0.0,0.25,0.39,-0.67,0.52,47.31,20.6,36.5,2.0,0.75,2.0,0.25,0.25,1.25,0.75,0.0,0.25,1.0,0.25,0.25,0.5,0.77,0.2,-0.48,128.45,-14.0,30.7
3.88,0.75,0.0,0.75,0.75,0.0,0.0,0.0,0.0,0.25,0.25,0.0,0.0,0.25,0.39,-0.73,0.52,49.8,20.9,34.6,1.5,0.25,2.0,0.5,0.5,1.0,0.25,0.0,0.25,0.75,0.25,0.25,0.5,0.77,0.2,-0.55,124.92,-13.8,27.4
3.9,0.75,0.0,0.75,1.0,0.0,0.0,0.0,0.0,0.25,0.25,0.0,0.0,0.25,0.39,-0.73,0.45,52.29,20.6,36.5,0.5,0.75,2.0,0.5,0.25,1.75,0.5,0.0,0.25,1.0,0.25,0.25,0.5,0.7,0.2,-0.55,127.51,-8.2,20.5
3.92,1.0,0.0,0.75,1.25,0.0,0.0,0.0,0.0,0.25,0.25,0.0,0.0,0.25,0.39,-0.73,0.45,55.93,21.3,41.8,1.5,0.5,2.0,1.0,0.5,2.0,0.5,0.0,0.25,1.0,0.25,0.25,0.5,0.7,0.2,-0.55,136.29,-10.0,28.9
3.94,1.0,0.0,0.75,1.0,0.0,0.0,0.0,0.0,0.25,0.25,0.0,0.0,0.25,0.39,-0.73,0.45,58.2,21.6,40.6,1.5,0.5,2.0,0.5,0.25,1.0,0.25,0.0,0.25,1.0,0.75,0.25,0.5,0.7,0.2,-0.55,137.39,-13.3,19.9
3.96,1.25,0.0,0.75,1.0,0.0,0.0,0.0,0.0,0.25,0.0,0.0,0.0,0.25,0.39,-0.73,0.45,60.18,25.1,52.7,1.0,0.5,2.25,0.75,0.25,1.25,0.5,0.0,0.25,0.75,0.25,0.25,0.5,0.7,0.2,-0.55,136.75,-13.3,27.0
3.98,1.0,0.0,0.75,0.25,0.0,0.0,0.0,0.0,0.5,0.0,0.0,0.0,0.75,0.39,-0.67,0.52,59.02,19.2,15.3,1.75,0.5,2.0,1.25,0.5,1.25,0.25,0.0,0.25,1.0,0.25,0.25,0.5,0.7,0.2,-0.55,140.89,-12.9,31.0
4.0,1.25,0.0,0.75,0.5,0.0,0.0,0.0,0.0,0.5,0.0,0.0,0.0,0.25,0.45,-0.67,0.52,58.71,25.4,44.9,1.25,0.25,2.25,0.0,0.25,0.5,0.25,0.0,0.25,1.0,0.25,0.25,0.5,0.7,0.2,-0.55,131.19,-15.9,18.7
4.02,1.25,0.0,0.75,0.75,0.0,0.0,0.0,0.0,0.25,0.0,0.0,0.0,0.25,0.52,-0.61,0.52,57.38,25.8,52.3,1.25,0.75,2.0,0.5,0.5,1.0,0.5,0.0,0.25,1.0,0.25,0.25,0.5,0.7,0.2,-0.55,130.42,-12.6,26.8
4.04,1.25,0.0,0.75,1.0,0.0,0.0,0.0,0.0,0.25,0.0,0.0,0.0,0.25,0.58,-0.61,0.64,58.38,25.1,52.7,1.0,0.5,2.0,0.5,0.5,1.25,0.5,0.0,0.25,1.0,0.5,0.25,0.5,0.7,0.2,-0.55,128.92,-10.9,20.0
4.06,1.0,0.0,0.75,1.0,0.0,0.0,0.0,0.0,0.25,0.0,0.0,0.0,0.25,0.58,-0.61,0.64,57.55,24.4,49.5,1.0,0.25,2.0,0.75,0.25,1.25,0.25,0.0,0.25,0.75,0.25,0.25,0.5,0.7,0.2,-0.55,128.43,-12.2,23.4
4.08,1.25,0.0,0.75,1.25,0.0,0.0,0.0,0.0,0.25,0.0,0.0,0.0,0.25,0.52,-0.61,0.58,60.09,24.6,53.1,1.5,0.25,2.0,1.25,0.5,1.5,0.25,0.0,0.25,1.0,0.25,0.25,0.5,0.7,0.2,-0.55,133.32,-11.5,27.6
4.1,1.0,0.0,0.75,0.75,0.0,0.0,0.0,0.0,0.25,0.25,0.0,0.0,0.25,0.45,-0.61,0.52,58.87,21.9,39.2,1.0,0.5,2.0,0.5,0.5,1.0,0.25,0.0,0.25,0.75,0.25,0.25,0.5,0.7,0.2,-0.55,129.21,-12.5,25.5
4.12,1.5,0.0,0.75,1.0,0.0,0.0,0.0,0.0,0.25,0.0,0.0,0.0,0.25,0.45,-0.67,0.45,61.1,25.8,55.5,1.25,0.75,2.0,0.5,0.25,0.75,0.25,0.0,0.25,1.0,0.25,0.25,0.5,0.7,0.2,-0.48,128.55,-13.9,25.6
4.14,1.5,0.0,0.75,0.5,0.0,0.0,0.0,0.0,0.25,0.0,0.0,0.0,0.75,0.39,-0.67,0.52,61.02,21.5,32.3,1.25,0.5,2.0,0.5,0.5,1.25,0.25,0.0,0.25,1.0,0.0,0.25,0.75,0.7,0.2,-0.48,126.48,-10.5,23.5
4.16,1.25,0.0,0.75,0.5,0.0,0.0,0.0,0.0,0.25,0.0,0.0,0.0,0.25,0.33,-0.73,0.52,58.42,26.5,51.8,2.0,0.75,2.0,0.5,0.5,1.25,0.25,0.0,0.25,1.0,0.25,0.25,0.5,0.77,0.2,-0.48,133.2,-13.1,32.3
4.18,1.25,0.0,0.75,0.5,0.0,0.0,0.0,0.0,0.5,0.0,0.0,0.0,0.25,0.39,-0.67,0.52,56.63,25.4,44.9,1.5,0.5,2.0,0.0,0.25,1.0,0.25,0.0,0.5,1.0,0.25,0.25,0.5,0.77,0.2,-0.42,131.85,-13.2,21.4
4.2,1.25,0.0,0.75,0.5,0.0,0.0,0.0,0.0,0.25,0.0,0.0,0.0,0.25,0.39,-0.73,0.52,53.83,26.5,51.8,0.75,0.75,2.0,0.5,0.5,1.0,0.25,0.0,0.25,1.0,0.25,0.25,0.5,0.77,0.2,-0.48,130.72,-11.0,22.6
4.22,1.25,0.0,0.75,1.0,0.0,0.0,0.0,0.0,0.25,0.0,0.0,0.0,0.25,0.45,-0.67,0.52,55.31,25.1,52.7,1.0,0.5,2.0,0.5,0.25,0.75,0.25,0.0,0.25,0.75,0.25,0.25,0.75,0.77,0.27,-0.42,124.13,-13.3,19.5
4.24,1.0,0.0,0.75,0.5,0.0,0.0,0.0,0.0,0.25,0.0,0.0,0.0,0.25,0.45,-0.67,0.58,51.9,25.8,47.9,0.5,0.25,2.0,0.5,0.25,1.25,0.25,0.0,0.25,1.0,0.25,0.25,0.5,0.77,0.27,-0.42,119.02,-9.5,13.8
4.26,1.25,0.0,0.75,0.5,0.0,0.0,0.0,0.0,0.25,0.0,0.0,0.0,0.25,0.45,-0.67,0.58,51.35,26.5,51.8,1.25,0.5,2.0,0.75,0.25,1.0,0.25,0.0,0.25,0.75,0.25,0.25,0.5,0.77,0.27,-0.42,116.72,-13.9,27.7
4.28,1.25,0.0,0.75,0.5,0.0,0.0,0.0,0.0,0.25,0.0,0.0,0.0,0.25,0.52,-0.67,0.58,49.56,26.5,51.8,1.25,0.5,1.75,0.5,0.25,1.0,0.25,0.0,0.25,0.25,0.25,0.25,0.5,0.77,0.27,-0.48,113.82,-15.0,32.9
4.3,1.25,0.0,0.75,0.25,0.0,0.0,0.0,0.0,0.5,0.0,0.0,0.0,0.25,0.52,-0.67,0.52,49.19,26.2,43.7,0.0,0.0,1.25,0.5,0.25,0.0,0.5,0.0,0.0,0.0,0.25,0.0,0.5,0.77,0.2,-0.48,91.49,-19.5,18.1
4.32,1.25,0.0,0.75,1.0,0.0,0.0,0.0,0.0,0.25,0.0,0.0,0.0,0.25,0.45,-0.67,0.52,51.83,25.1,52.7,1.25,0.5,2.25,1.25,0.5,1.0,0.5,0.0,0.25,1.0,0.25,0.25,0.5,0.77,0.2,-0.48,102.09,-13.7,28.4
4.34,1.0,0.0,0.75,0.75,0.0,0.0,0.0,0.0,0.5,0.25,0.0,0.0,0.25,0.45,-0.67,0.52,54.91,21.2,33.7,1.5,0.5,2.0,0.5,0.25,1.25,0.5,0.0,0.25,1.0,0.25,0.25,0.5,0.7,0.2,-0.48,110.58,-12.7,25.9
4.36,0.75,0.0,0.75,0.5,0.0,0.0,0.0,0.0,0.25,0.25,0.0,0.0,0.25,0.39,-0.67,0.52,52.84,21.3,32.4,1.0,0.5,2.0,1.0,0.5,1.5,0.25,0.0,0.25,0.25,0.5,0.25,0.75,0.7,0.27,-0.48,125.16,-11.7,26.9
4.38,1.0,0.0,0.75,0.5,0.0,0.0,0.0,0.0,0.25,0.25,0.0,0.0,0.25,0.39,-0.67,0.52,51.71,22.3,37.5,1.5,0.5,2.0,0.5,0.25,1.25,0.25,0.0,0.25,1.0,0.25,0.25,0.5,0.7,0.27,-0.48,129.93,-12.5,25.8
4.4,1.0,0.0,0.75,0.5,0.0,0.0,0.0,0.0,0.25,0.0,0.0,0.0,0.25,0.39,-0.67,0.52,49.31,25.8,47.9,1.25,0.75,2.0,0.5,0.5,0.75,0.25,0.0,0.25,1.0,0.25,0.25,0.5,0.7,0.27,-0.55,133.96,-13.3,26.6
4.42,1.25,0.0,0.75,1.0,0.0,0.0,0.0,0.0,0.25,0.0,0.0,0.0,0.25,0.39,-0.73,0.52,52.0,25.1,52.7,0.5,0.0,2.0,0.5,0.25,0.0,0.25,0.0,0.0,0.0,0.5,0.0,0.5,0.7,0.27,-0.48,113.83,-23.6,28.5
4.44,1.0,0.0,0.75,1.0,0.0,0.0,0.0,0.0,0.5,0.0,0.0,0.0,0.25,0.39,-0.73,0.58,54.88,23.6,43.3,1.0,0.0,1.25,0.5,0.0,0.5,0.25,0.0,0.0,0.0,0.0,0.25,0.0,0.7,0.27,-0.48,90.96,-24.0,53.6
4.46,1.25,0.0,0.5,1.25,0.0,0.0,0.0,0.0,0.5,0.0,0.0,0.0,0.75,0.39,-0.73,0.52,62.06,18.4,27.6,0.0,0.25,1.25,0.5,0.0,0.75,0.75,0.0,0.25,0.0,0.25,0.25,0.25,0.7,0.27,-0.48,73.07,-14.8,20.5
4.48,1.25,0.0,0.75,0.75,0.0,0.0,0.0,0.0,0.25,0.25,0.0,0.0,0.25,0.39,-0.73,0.52,63.54,22.8,43.1,0.25,0.0,1.25,0.5,0.25,0.5,0.75,0.0,0.25,0.0,0.25,0.25,0.5,0.77,0.27,-0.48,63.82,-15.1,13.9
4.5,1.0,0.0,0.5,0.5,0.0,0.0,0.0,0.0,0.25,0.25,0.0,0.0,0.25,0.33,-0.73,0.52,59.05,20.8,35.3,1.25,0.5,1.25,0.5,0.25,1.0,0.75,0.25,0.25,1.0,0.25,0.25,0.5,0.77,0.27,-0.48,77.61,-9.9,17.7
4.52,0.75,0.0,0.25,0.5,0.0,0.0,0.0,0.0,0.25,0.25,0.0,0.0,0.25,0.33,-0.73,0.52,50.04,17.4,25.8,1.75,0.5,2.0,0.75,0.5,1.0,0.25,0.0,0.25,1.0,0.25,0.25,0.75,0.77,0.27,-0.48,103.55,-12.8,25.4
4.54,1.25,0.0,0.0,0.5,0.0,0.0,0.0,0.0,0.5,0.0,0.0,0.0,0.25,0.33,-0.73,0.45,43.85,21.4,39.8,0.5,0.25,2.0,0.5,0.5,1.0,0.25,0.0,0.25,0.75,0.25,0.25,0.75,0.77,0.27,-0.48,115.1,-10.1,13.4
4.56,1.0,0.0,0.0,0.5,0.0,0.0,0.0,0.0,0.25,0.0,0.0,0.0,0.25,0.33,-0.73,0.52,36.99,20.9,42.7,0.5,0.5,2.0,1.0,0.25,0.75,0.25,0.0,0.25,1.0,0.25,0.25,0.5,0.77,0.27,-0.48,116.44,-12.2,18.5
4.58,1.25,0.0,0.0,0.25,0.0,0.0,0.0,0.0,0.25,0.25,0.0,0.0,0.25,0.33,-0.73,0.45,34.91,18.7,33.3,1.0,0.0,2.0,1.25,0.5,1.5,0.25,0.0,0.25,1.0,0.25,0.25,0.5,0.7,0.27,-0.48,124.24,-10.2,21.7
4.6,1.25,0.0,0.0,0.5,0.0,0.0,0.0,0.0,0.25,0.0,0.0,0.0,0.25,0.39,-0.67,0.45,34.22,22.4,48.6,1.25,0.25,2.0,0.0,0.5,1.5,0.25,0.0,0.25,1.0,0.25,0.25,0.5,0.7,0.27,-0.48,126.46,-9.8,20.4
4.62,0.5,0.0,0.0,0.5,0.0,0.0,0.0,0.0,0.25,0.0,0.0,0.0,0.5,0.39,-0.67,0.52,30.52,12.1,5.6,1.25,0.5,2.0,0.5,0.25,0.75,0.25,0.0,0.25,1.0,0.25,0.25,0.5,0.7,0.27,-0.48,128.23,-14.0,23.1
4.64,1.0,0.0,0.25,0.25,0.0,0.0,0.0,0.0,0.25,0.0,0.5,0.0,0.25,0.45,-0.67,0.52,31.26,21.2,19.6,1.0,0.75,2.0,0.5,0.25,1.0,0.25,0.0,0.25,0.75,0.25,0.25,0.5,0.7,0.27,-0.48,130.11,-13.1,27.0
4.66,1.25,0.0,0.25,0.5,0.0,0.0,0.0,0.0,0.25,0.25,0.25,0.0,0.25,0.52,-0.67,0.52,35.17,19.6,28.9,1.25,0.75,2.0,0.5,0.25,1.0,0.25,0.0,0.25,1.0,0.5,0.25,0.5,0.7,0.27,-0.48,135.07,-12.8,22.9
4.68,1.25,0.0,0.5,0.25,0.0,0.0,0.0,0.0,0.25,0.0,0.0,0.0,0.25,0.52,-0.67,0.52,38.38,26.3,50.2,1.25,0.25,2.0,0.25,0.5,1.25,0.25,0.0,0.25,1.0,0.25,0.25,0.5,0.7,0.27,-0.48,133.01,-11.1,21.3
4.7,0.75,0.0,0.5,0.75,0.0,0.0,0.0,0.0,0.5,0.0,0.0,0.0,0.25,0.52,-0.61,0.45,41.93,21.8,35.6,1.0,0.75,2.25,0.5,0.5,0.75,0.25,0.0,0.25,0.75,0.25,0.25,0.5,0.7,0.27,-0.48,131.91,-14.4,28.8
4.72,1.0,0.0,0.25,0.25,0.0,0.0,0.0,0.0,0.25,0.0,0.25,0.0,0.25,0.52,-0.61,0.52,41.84,22.3,30.1,0.5,0.5,2.0,0.5,0.25,0.75,0.25,0.0,0.25,1.0,0.5,0.25,0.5,0.7,0.27,-0.48,124.46,-11.8,12.5
4.74,1.25,0.0,0.25,0.5,0.0,0.0,0.0,0.0,0.25,0.0,0.0,0.0,0.25,0.52,-0.61,0.52,42.76,24.1,49.9,0.5,0.5,2.0,0.5,0.25,0.75,0.25,0.0,0.25,1.0,0.25,0.25,0.5,0.7,0.27,-0.48,115.89,-11.8,15.6
4.76,0.75,0.0,0.0,0.5,0.0,0.0,0.0,0.0,0.25,0.0,0.0,0.0,0.25,0.52,-0.61,0.52,37.78,19.0,35.3,1.25,0.25,2.0,1.25,0.25,1.25,0.25,0.0,0.25,1.0,0.25,0.25,0.5,0.7,0.27,-0.48,119.31,-12.3,24.6
4.78,1.0,0.0,0.5,0.75,0.0,0.0,0.0,0.0,0.25,0.25,0.0,0.0,0.25,0.52,-0.67,0.52,41.61,20.5,37.3,1.25,0.5,2.0,0.5,0.5,1.0,0.25,0.0,0.25,1.0,0.25,0.25,0.5,0.7,0.27,-0.48,123.89,-12.3,24.5
4.8,1.25,0.0,0.25,0.25,0.0,0.0,0.0,0.0,0.25,0.25,0.0,0.0,0.25,0.45,-0.67,0.52,41.78,20.8,36.2,1.25,0.5,2.0,0.5,0.5,0.75,0.25,0.0,0.25,1.0,0.25,0.25,0.75,0.7,0.27,-0.48,127.17,-12.5,20.0
4.82,1.25,0.0,0.5,0.5,0.0,0.0,0.0,0.0,0.25,0.0,0.0,0.0,0.25,0.52,-0.67,0.52,45.09,25.4,50.9,1.25,0.5,2.0,0.5,0.25,0.75,0.25,0.0,0.0,0.75,0.25,0.25,0.5,0.7,0.27,-0.48,123.26,-15.1,28.7
4.84,1.0,0.0,0.5,0.5,0.0,0.0,0.0,0.0,0.5,0.25,0.0,0.0,0.25,0.52,-0.61,0.52,47.08,20.1,29.2,0.5,0.75,2.0,0.5,0.25,0.75,0.25,0.0,0.25,1.0,0.25,0.25,0.5,0.7,0.27,-0.48,119.94,-11.9,18.6
4.86,0.75,0.0,0.75,0.25,0.0,0.0,0.0,0.0,0.25,0.25,0.0,0.0,0.25,0.52,-0.61,0.52,46.81,21.7,29.7,1.25,0.25,2.0,0.5,0.25,1.0,0.25,0.0,0.25,1.0,0.25,0.25,0.5,0.7,0.27,-0.48,117.09,-12.9,20.9
4.88,1.0,0.0,0.75,0.25,0.0,0.0,0.0,0.0,0.25,0.0,0.0,0.0,0.25,0.52,-0.61,0.52,44.71,26.7,46.8,1.0,0.5,2.0,0.0,0.25,1.25,0.25,0.0,0.25,0.75,0.25,0.25,0.5,0.7,0.27,-0.48,114.24,-11.6,22.3
4.9,1.25,0.0,0.5,0.5,0.0,0.0,0.0,0.0,0.25,0.0,0.0,0.0,0.25,0.52,-0.61,0.52,44.76,25.4,50.9,1.25,0.5,2.0,0.5,0.25,1.75,0.25,0.0,0.25,1.0,0.5,0.25,0.5,0.7,0.27,-0.48,121.62,-9.9,21.6
4.92,0.75,0.0,0.25,0.75,0.0,0.0,0.0,0.0,0.5,0.0,0.0,0.0,0.25,0.52,-0.61,0.52,44.42,20.1,33.0,1.25,0.5,2.0,0.75,0.25,1.25,0.25,0.0,0.25,1.0,0.25,0.25,0.5,0.7,0.27,-0.48,126.81,-12.0,24.8
4.94,1.25,0.0,0.75,0.25,0.0,0.0,0.0,0.0,0.5,0.0,0.25,0.0,0.25,0.52,-0.61,0.52,47.71,25.0,34.7,1.25,0.5,2.0,0.5,0.25,1.25,0.25,0.0,0.0,0.5,0.25,0.25,0.5,0.7,0.27,-0.48,127.08,-13.7,32.6
4.96,1.25,0.0,0.75,0.5,0.0,0.0,0.0,0.0,0.25,0.0,0.0,0.0,0.25,0.52,-0.61,0.52,50.25,26.5,51.8,1.0,0.25,2.0,0.5,0.5,0.75,0.25,0.0,0.25,0.0,0.25,0.5,0.5,0.7,0.27,-0.48,120.58,-16.8,28.7
4.98,0.75,0.0,0.5,0.25,0.0,0.0,0.0,0.0,0.25,0.0,0.25,0.0,0.25,0.45,-0.61,0.52,47.31,22.8,26.5,1.25,0.5,2.0,0.5,0.5,0.75,0.25,0.0,0.25,0.25,0.25,0.5,0.5,0.7,0.27,-0.48,117.37,-16.1,29.8
5.0,1.0,0.0,0.5,0.25,0.0,0.0,0.0,0.0,0.25,0.0,0.25,0.0,0.25,0.45,-0.67,0.52,44.77,24.0,33.3,1.25,0.5,2.25,0.5,0.25,0.75,0.25,0.0,0.25,0.75,0.25,0.25,0.5,0.7,0.27,-0.48,115.53,-15.8,27.6
5.02,1.25,0.0,0.5,0.25,0.0,0.0,0.0,0.0,0.25,0.25,0.25,0.0,0.25,0.52,-0.61,0.52,44.17,21.5,29.2,1.25,0.5,2.0,0.5,0.25,0.75,0.25,0.0,0.25,1.0,0.25,0.25,0.5,0.7,0.27,-0.48,117.77,-14.0,23.1
5.04,1.25,0.0,0.5,0.25,0.0,0.0,0.0,0.0,0.25,0.0,0.0,0.0,0.25,0.52,-0.61,0.52,43.67,26.3,50.2,1.5,0.75,1.75,0.5,0.25,0.75,0.25,0.0,0.25,1.0,0.5,0.25,0.5,0.7,0.27,-0.48,122.37,-13.7,23.5
5.06,1.0,0.0,0.0,0.25,0.0,0.0,0.0,0.0,0.25,0.25,0.0,0.0,0.25,0.52,-0.61,0.52,39.72,16.7,25.5,1.25,0.5,2.25,0.5,0.5,0.75,0.25,0.0,0.25,1.0,0.25,0.25,0.5,0.7,0.27,-0.48,126.44,-14.1,25.4
5.08,1.0,0.0,0.5,0.25,0.0,0.0,0.0,0.0,0.25,0.0,0.0,0.0,0.25,0.52,-0.61,0.52,38.08,25.4,45.2,1.25,0.5,2.5,0.5,0.5,0.75,0.25,0.0,0.25,0.75,0.25,0.25,0.5,0.77,0.27,-0.48,128.76,-15.8,29.6
5.1,1.25,0.0,0.25,0.25,0.0,0.0,0.0,0.0,0.25,0.0,0.25,0.0,0.25,0.45,-0.61,0.52,37.78,23.5,36.6,1.0,0.5,2.25,0.5,0.5,1.25,0.25,0.0,0.25,0.75,0.25,0.25,0.5,0.77,0.27,-0.48,129.6,-12.3,26.9
5.12,1.25,0.0,0.25,0.5,0.0,0.0,0.0,0.0,0.25,0.0,0.25,0.0,0.25,0.45,-0.61,0.52,39.67,22.9,38.6,1.25,0.5,2.0,0.5,0.25,1.0,0.0,0.0,0.25,0.75,0.25,0.25,0.5,0.77,0.27,-0.48,126.96,-13.5,26.7
5.14,1.0,0.0,0.5,0.25,0.0,0.0,0.0,0.0,0.25,0.25,0.25,0.0,0.25,0.52,-0.61,0.52,41.71,20.3,23.2,1.25,0.5,2.0,0.5,0.5,1.25,0.25,0.0,0.25,1.0,0.75,0.25,0.25,0.7,0.27,-0.48,128.7,-12.0,23.2
5.16,1.0,0.0,0.0,0.25,0.0,0.0,0.0,0.0,0.5,0.25,0.25,0.0,0.25,0.52,-0.67,0.52,41.95,15.7,9.0,1.25,0.5,2.0,0.5,0.5,0.75,0.25,0.25,0.25,1.0,0.5,0.25,0.75,0.7,0.27,-0.48,131.57,-11.6,15.6
5.18,1.25,0.0,0.25,0.25,0.0,0.0,0.0,0.0,0.25,0.25,0.25,0.0,0.25,0.45,-0.61,0.52,42.36,19.8,26.1,1.25,0.25,2.0,0.5,0.25,0.75,0.25,0.25,0.25,1.0,0.25,0.25,0.5,0.7,0.27,-0.48,130.25,-13.0,18.5
5.2,1.25,0.0,0.25,0.25,0.0,0.0,0.0,0.0,0.25,0.25,0.25,0.0,0.25,0.45,-0.61,0.52,43.22,19.8,26.1,1.25,0.75,2.0,0.5,0.25,0.75,0.25,0.0,0.25,1.0,0.25,0.25,0.75,0.7,0.27,-0.48,129.6,-13.0,21.3
5.22,1.0,0.0,0.5,0.25,0.0,0.0,0.0,0.0,0.25,0.25,0.25,0.0,0.25,0.45,-0.61,0.52,44.67,20.3,23.2,1.25,0.75,2.0,0.5,0.25,0.75,0.25,0.0,0.25,1.0,0.25,0.25,0.5,0.7,0.27,-0.48,126.91,-13.9,25.6
5.24,0.25,0.0,0.0,0.25,0.0,0.0,0.0,0.0,0.25,0.0,0.0,0.0,0.5,0.45,-0.67,0.52,36.16,6.8,-22.3,1.5,0.25,2.0,0.5,0.25,1.0,0.25,0.0,0.25,1.0,0.25,0.25,1.0,0.7,0.27,-0.48,127.34,-11.8,15.0
5.26,1.0,0.0,0.25,0.25,0.0,0.0,0.0,0.0,0.25,0.25,0.0,0.0,0.25,0.45,-0.67,0.52,34.55,19.2,29.7,1.25,0.75,2.0,0.5,0.25,1.0,0.25,0.0,0.25,1.0,0.25,0.25,0.5,0.7,0.27,-0.48,127.32,-12.8,25.8
5.28,1.0,0.0,0.5,0.25,0.0,0.0,0.0,0.0,0.25,0.0,0.0,0.0,0.25,0.45,-0.67,0.52,33.52,25.4,45.2,1.25,0.5,2.0,1.0,0.25,1.0,0.25,0.0,0.25,0.75,0.25,0.25,0.5,0.7,0.27,-0.48,128.46,-14.0,28.7
5.3,1.0,0.0,0.75,0.25,0.0,0.0,0.0,0.0,0.25,0.0,0.0,0.0,0.25,0.45,-0.67,0.52,36.92,26.7,46.8,1.0,0.75,2.0,0.5,0.25,0.75,0.25,0.0,0.25,0.75,0.25,0.25,0.5,0.7,0.27,-0.48,124.82,-14.3,26.7
5.32,0.75,0.0,0.25,0.25,0.0,0.0,0.0,0.0,0.25,0.25,0.0,0.0,0.25,0.45,-0.67,0.52,35.45,17.4,21.6,1.0,0.5,2.0,0.5,0.5,0.75,0.25,0.0,0.25,0.75,0.25,0.25,0.75,0.77,0.27,-0.48,122.63,-12.7,20.8
5.34,1.0,0.0,0.25,0.25,0.0,0.0,0.0,0.0,0.25,0.0,0.0,0.0,0.25,0.45,-0.67,0.52,35.05,23.7,43.1,1.0,0.25,2.0,1.0,0.25,0.75,0.25,0.0,0.25,1.0,0.25,0.25,0.5,0.77,0.27,-0.48,120.39,-13.6,20.7
5.36,1.0,0.0,0.25,0.25,0.0,0.0,0.0,0.0,0.25,0.0,0.0,0.0,0.25,0.45,-0.67,0.52,32.97,23.7,43.1,1.25,0.25,2.0,1.0,0.5,1.25,0.25,0.0,0.25,1.0,0.25,0.25,0.5,0.77,0.27,-0.48,125.02,-11.6,24.6
5.38,1.0,0.0,0.25,0.25,0.0,0.0,0.0,0.0,0.25,0.25,0.0,0.0,0.25,0.45,-0.67,0.52,33.41,19.2,29.7,1.0,0.75,2.0,0.5,0.25,1.0,0.25,0.0,0.25,1.0,0.5,0.25,0.5,0.7,0.27,-0.48,126.02,-12.2,20.8
5.4,0.75,0.0,0.0,0.0,0.0,0.0,0.0,0.0,0.25,0.0,0.0,0.0,0.25,0.45,-0.67,0.52,28.62,19.9,25.5,1.25,0.5,2.0,0.5,0.25,0.75,0.25,0.0,0.25,1.0,0.25,0.25,0.5,0.7,0.27,-0.48,126.07,-14.0,23.1
5.42,1.0,0.0,0.0,0.0,0.0,0.0,0.0,0.0,0.25,0.0,0.0,0.0,0.25,0.45,-0.67,0.52,25.86,22.3,37.2,1.5,0.0,2.0,0.5,0.25,1.0,0.25,0.0,0.25,1.0,0.25,0.25,0.5,0.7,0.27,-0.48,123.65,-13.6,20.6
5.44,1.25,0.0,0.25,0.0,0.0,0.0,0.0,0.0,0.25,0.0,0.0,0.0,0.25,0.45,-0.61,0.52,26.27,26.0,47.7,1.25,0.75,2.0,0.5,0.25,1.0,0.25,0.0,0.25,1.0,0.25,0.25,0.5,0.7,0.27,-0.48,123.68,-12.8,25.8
5.46,1.0,0.0,0.25,0.25,0.0,0.0,0.0,0.0,0.25,0.0,0.0,0.0,0.25,0.45,-0.61,0.52,28.68,23.7,43.1,1.0,0.5,2.0,0.5,0.25,1.0,0.25,0.0,0.25,0.75,0.25,0.25,0.5,0.7,0.27,-0.48,120.86,-13.1,24.4
5.48,1.25,0.0,0.25,0.25,0.0,0.0,0.0,0.0,0.25,0.0,0.0,0.0,0.25,0.45,-0.61,0.52,32.94,24.9,48.9,0.75,0.75,2.0,0.5,0.5,0.75,0.25,0.0,0.25,0.75,0.25,0.25,0.5,0.7,0.27,-0.48,119.7,-12.9,25.5
5.5,1.0,0.0,0.25,0.0,0.0,0.0,0.0,0.0,0.25,0.0,0.0,0.0,0.25,0.45,-0.67,0.52,31.95,24.7,40.8,1.5,1.0,2.0,0.5,0.25,1.25,0.25,0.0,0.0,1.0,0.25,0.25,0.5,0.7,0.27,-0.48,124.76,-12.5,32.1
5.52,1.0,0.0,0.25,0.25,0.0,0.0,0.0,0.0,0.25,0.0,0.0,0.0,0.25,0.45,-0.67,0.52,32.74,23.7,43.1,1.0,0.25,2.0,1.0,0.5,1.0,0.25,0.0,0.25,0.75,0.25,0.25,0.5,0.77,0.27,-0.48,126.23,-12.8,25.3
5.54,1.0,0.0,0.25,0.0,0.0,0.0,0.0,0.0,0.25,0.0,0.0,0.0,0.25,0.45,-0.67,0.52,30.76,24.7,40.8,1.25,0.5,2.0,0.5,0.25,0.75,0.25,0.0,0.25,0.5,0.25,0.25,0.5,0.77,0.27,-0.48,123.78,-16.0,30.0
5.56,0.75,0.0,0.5,0.0,0.0,0.0,0.0,0.0,0.25,0.25,0.0,0.0,0.25,0.45,-0.67,0.52,31.7,20.1,21.9,1.25,0.25,2.0,0.5,0.25,1.0,0.25,0.0,0.25,1.0,0.25,0.25,0.5,0.77,0.27,-0.48,121.19,-12.9,20.9
5.58,0.75,0.0,0.25,0.0,0.0,0.0,0.0,0.0,0.25,0.25,0.0,0.0,0.25,0.45,-0.67,0.52,30.21,17.4,16.0,1.25,0.25,2.0,0.5,0.25,0.75,0.25,0.0,0.25,1.0,0.75,0.25,0.5,0.77,0.27,-0.48,120.02,-13.8,14.6
5.6,1.0,0.0,0.25,0.0,0.0,0.0,0.0,0.0,0.25,0.25,0.0,0.0,0.25,0.45,-0.67,0.52,31.2,19.5,25.9,1.25,0.5,2.0,0.5,0.25,1.0,0.25,0.0,0.25,0.75,0.25,0.25,0.5,0.77,0.27,-0.48,119.13,-13.8,26.7
5.62,1.25,0.0,0.25,0.0,0.0,0.0,0.0,0.0,0.25,0.0,0.0,0.0,0.25,0.45,-0.67,0.52,31.94,26.0,47.7,1.25,0.5,2.0,0.5,0.25,0.75,0.25,0.0,0.25,1.0,0.25,0.25,0.5,0.77,0.27,-0.48,120.13,-14.0,23.1
5.64,1.0,0.0,0.0,0.0,0.0,0.0,0.0,0.0,0.25,0.25,0.0,0.0,0.25,0.45,-0.67,0.52,31.59,16.7,20.5,0.5,0.5,2.0,0.5,0.25,0.75,0.25,0.0,0.25,0.75,0.25,0.25,0.5,0.77,0.27,-0.48,115.69,-12.9,19.0
5.66,1.25,0.0,0.25,0.0,0.0,0.0,0.0,0.0,0.25,0.0,0.0,0.0,0.25,0.45,-0.67,0.52,31.61,26.0,47.7,1.25,0.75,2.0,0.5,0.5,0.75,0.25,0.0,0.25,1.0,0.25,0.25,0.5,0.77,0.27,-0.48,118.63,-13.3,26.6
5.68,1.0,0.0,0.25,0.0,0.0,0.0,0.0,0.0,0.25,0.0,0.0,0.0,0.25,0.45,-0.67,0.52,30.16,24.7,40.8,1.25,0.5,2.0,0.5,0.5,1.25,0.25,0.0,0.25,0.75,0.25,0.25,0.5,0.77,0.27,-0.48,121.2,-12.1,27.9
5.7,1.0,0.0,0.25,0.0,0.0,0.0,0.0,0.0,0.25,0.0,0.0,0.0,0.25,0.45,-0.61,0.52,29.7,24.7,40.8,1.25,0.5,2.0,0.5,0.5,0.75,0.25,0.0,0.25,0.75,0.75,0.25,0.75,0.77,0.27,-0.48,126.93,-13.2,17.4
5.72,1.0,0.0,0.5,0.0,0.0,0.0,0.0,0.0,0.25,0.0,0.0,0.0,0.25,0.45,-0.67,0.52,30.44,26.5,43.5,1.25,0.5,2.0,0.5,0.25,0.75,0.25,0.0,0.25,1.0,0.25,0.25,0.5,0.77,0.27,-0.48,125.95,-14.0,23.1
5.74,1.0,0.0,0.25,0.0,0.0,0.0,0.0,0.0,0.25,0.0,0.0,0.0,0.25,0.45,-0.67,0.52,30.55,24.7,40.8,0.0,0.5,2.0,0.5,0.25,0.75,0.25,0.0,0.25,1.0,0.25,0.25,0.5,0.77,0.27,-0.48,117.9,-10.2,9.6
5.76,1.0,0.0,0.25,0.0,0.0,0.0,0.0,0.0,0.25,0.0,0.0,0.0,0.25,0.45,-0.67,0.52,29.98,24.7,40.8,1.75,0.25,1.75,0.75,0.5,1.25,0.25,0.0,0.25,1.0,0.25,0.25,0.5,0.77,0.27,-0.48,121.74,-11.9,26.4
5.78,1.0,0.0,0.0,0.0,0.0,0.0,0.0,0.0,0.25,0.0,0.0,0.0,0.25,0.45,-0.67,0.52,27.86,22.3,37.2,1.25,0.25,2.0,0.5,0.5,0.75,0.25,0.0,0.25,0.0,0.0,0.0,0.5,0.77,0.27,-0.48,114.47,-18.4,46.6
5.8,1.25,0.0,0.0,0.0,0.0,0.0,0.0,0.0,0.25,0.0,0.0,0.0,0.25,0.45,-0.67,0.52,27.48,24.1,45.7,0.0,0.25,0.5,0.5,0.0,1.25,0.25,0.0,0.0,0.25,0.0,0.25,0.0,0.77,0.27,-0.48,92.91,-2.3,27.3
5.82,1.25,0.0,0.25,0.0,0.0,0.0,0.0,0.0,0.25,0.0,0.0,0.0,0.25,0.45,-0.67,0.52,28.84,26.0,47.7,1.5,0.25,2.25,0.5,0.25,0.75,0.5,0.0,0.25,0.75,0.25,0.25,0.5,0.7,0.27,-0.48,94.99,-16.7,27.4
5.84,1.25,0.0,0.0,0.0,0.0,0.0,0.0,0.0,0.25,0.0,0.0,0.0,0.25,0.45,-0.67,0.52,29.18,24.1,45.7,1.25,0.0,1.75,1.25,0.25,1.0,0.25,0.0,0.25,1.0,0.25,0.25,0.5,0.7,0.27,-0.48,100.88,-12.5,20.7
5.86,1.0,0.0,0.25,0.0,0.0,0.0,0.0,0.0,0.25,0.25,0.0,0.0,0.25,0.45,-0.67,0.52,30.79,19.5,25.9,0.75,0.5,2.0,0.5,0.25,0.75,0.25,0.0,0.25,1.0,0.25,0.25,0.5,0.77,0.27,-0.48,108.17,-12.6,18.3
5.88,1.25,0.0,0.25,0.0,0.0,0.0,0.0,0.0,0.25,0.0,0.0,0.0,0.25,0.45,-0.67,0.52,32.05,26.0,47.7,1.25,0.5,2.0,0.5,0.5,0.75,0.25,0.0,0.25,1.0,0.25,0.25,0.5,0.77,0.27,-0.48,115.76,-13.3,24.2
5.9,1.0,0.0,0.0,0.0,0.0,0.0,0.0,0.0,0.25,0.0,0.0,0.0,0.25,0.45,-0.67,0.52,29.86,22.3,37.2,0.5,0.5,2.0,0.75,0.25,0.75,0.25,0.0,0.25,0.75,0.0,0.25,0.5,0.77,0.27,-0.48,114.66,-13.1,23.9
5.92,1.25,0.0,0.0,0.0,0.0,0.0,0.0,0.0,0.25,0.0,0.0,0.0,0.25,0.45,-0.67,0.52,29.18,24.1,45.7,1.25,0.75,2.0,0.5,0.25,1.0,0.25,0.0,0.25,1.0,0.5,0.25,0.5,0.77,0.27,-0.48,119.62,-12.8,22.9
5.94,1.25,0.0,0.25,0.0,0.0,0.0,0.0,0.0,0.25,0.0,0.0,0.0,0.25,0.45,-0.67,0.52,29.96,26.0,47.7,1.0,0.0,2.0,0.75,0.25,0.5,0.25,0.0,0.25,0.5,0.25,0.25,0.5,0.77,0.27,-0.48,113.86,-17.1,23.0
5.96,1.25,0.0,0.25,0.0,0.0,0.0,0.0,0.0,0.25,0.0,0.0,0.0,0.25,0.45,-0.67,0.52,31.45,26.0,47.7,1.0,0.75,2.0,0.5,0.5,1.0,0.25,0.0,0.25,1.0,0.25,0.25,0.5,0.77,0.27,-0.48,121.42,-11.6,24.8
5.98,0.5,0.0,0.0,0.0,0.0,0.0,0.0,0.0,0.25,0.0,0.0,0.0,0.25,0.45,-0.67,0.52,26.94,16.2,8.1,1.25,0.25,2.0,0.5,0.25,1.0,0.25,0.0,0.25,0.75,0.25,0.25,0.5,0.7,0.27,-0.48,120.24,-13.8,24.2
6.0,1.0,0.0,0.25,0.0,0.0,0.0,0.0,0.0,0.25,0.0,0.0,0.0,0.25,0.45,-0.67,0.52,26.87,24.7,40.8,0.75,0.25,2.0,0.75,0.25,0.75,0.25,0.0,0.25,0.75,0.25,0.25,0.5,0.77,0.27,-0.48,118.66,-13.8,20.1
6.02,1.25,0.0,0.0,0.0,0.0,0.0,0.0,0.0,0.25,0.0,0.0,0.0,0.25,0.45,-0.67,0.58,26.11,24.1,45.7,1.0,0.25,2.0,1.0,0.25,0.75,0.25,0.0,0.25,0.75,0.25,0.25,0.5,0.77,0.27,-0.48,119.08,-14.6,23.9
