time,left pressure 0[N/cm²],left pressure 1[N/cm²],left pressure 2[N/cm²],left pressure 3[N/cm²],left pressure 4[N/cm²],left pressure 5[N/cm²],left pressure 6[N/cm²],left pressure 7[N/cm²],left pressure 8[N/cm²],left pressure 9[N/cm²],left pressure 10[N/cm²],left pressure 11[N/cm²],left pressure 12[N/cm²],left acceleration X[g],left acceleration Y[g],left acceleration Z[g],left total force[N],left center of pressure X[mm],left center of pressure Y[mm],right pressure 0[N/cm²],right pressure 1[N/cm²],right pressure 2[N/cm²],right pressure 3[N/cm²],right pressure 4[N/cm²],right pressure 5[N/cm²],right pressure 6[N/cm²],right pressure 7[N/cm²],right pressure 8[N/cm²],right pressure 9[N/cm²],right pressure 10[N/cm²],right pressure 11[N/cm²],right pressure 12[N/cm²],right acceleration X[g],right acceleration Y[g],right acceleration Z[g],right total force[N],right center of pressure X[mm],right center of pressure Y[mm]
0.02,7.5,2.5,3.75,10.5,0.0,0.0,0.0,1.25,0.25,0.5,0.5,0.0,0.25,-0.42,0.39,1.45,536.96,21.7,60.7,0.0,0.0,1.0,0.75,2.5,1.75,0.0,4.5,1.0,9.0,7.25,6.5,8.25,-0.05,0.2,1.14,613.94,4.2,-64.1
0.04,6.75,1.0,2.75,8.0,0.0,0.0,0.0,1.25,0.25,0.25,0.5,0.25,0.0,-0.67,0.52,1.64,414.13,22.4,58.8,0.25,0.0,0.75,0.75,3.0,2.0,0.0,5.5,1.25,9.25,7.25,6.0,8.25,0.27,0.08,0.89,742.07,4.7,-60.8
0.06,5.75,0.75,0.25,5.25,0.0,0.0,0.0,0.0,0.25,0.25,0.5,0.0,0.25,-0.86,1.2,2.7,285.6,23.0,64.1,0.5,0.0,0.75,1.0,2.25,2.0,0.25,5.5,1.25,9.25,7.25,6.0,8.25,0.08,0.08,0.95,811.14,4.3,-61.2
0.08,3.25,0.0,1.0,3.5,0.0,0.0,0.0,0.0,0.25,0.5,0.0,0.0,0.25,-0.36,0.77,2.52,187.15,22.9,56.8,0.75,0.0,0.75,1.0,1.75,2.0,0.25,5.5,1.25,9.25,7.5,6.0,8.0,0.14,0.08,0.89,837.03,4.0,-61.7
0.1,1.0,0.0,0.0,2.0,0.0,0.0,0.0,0.0,0.25,0.0,0.0,0.0,0.25,-0.3,0.52,2.39,69.92,19.3,49.5,1.0,0.0,1.0,1.25,2.25,2.0,0.25,6.0,1.25,8.75,7.5,5.75,8.0,0.08,0.08,0.95,844.79,3.5,-57.3
0.12,0.0,0.0,0.0,0.0,0.0,0.0,0.0,0.0,0.25,0.0,0.0,0.0,0.0,-1.11,-0.36,2.27,0.0,12.1,-38.5,1.25,0.0,0.75,1.25,2.25,3.25,0.25,6.25,1.5,8.75,7.25,5.5,7.75,0.08,0.08,0.95,841.92,4.1,-54.0
0.14,0.0,0.0,0.0,0.0,0.0,0.0,0.0,0.0,0.25,0.25,0.0,0.0,0.25,-1.17,-1.05,1.89,0.0,-5.8,-75.1,1.25,0.0,1.75,1.25,2.5,4.0,0.25,6.25,1.75,8.25,7.0,5.25,7.5,0.14,0.08,0.95,830.25,3.3,-48.4
0.16,0.0,0.0,0.0,0.5,0.0,0.0,0.0,0.0,0.25,0.0,0.5,0.0,0.25,-1.11,-1.17,0.58,0.0,9.0,-29.1,1.25,0.0,1.0,1.25,3.0,4.25,0.25,6.25,1.75,8.25,6.75,4.75,6.5,0.14,0.08,0.95,793.88,4.1,-46.3
0.18,0.0,0.0,0.0,0.0,0.0,0.0,0.0,0.0,0.25,0.0,0.5,0.0,0.25,-0.73,-0.36,1.08,0.0,4.7,-75.2,1.25,0.0,2.0,1.25,3.5,4.25,0.5,6.25,1.75,8.0,6.5,4.0,6.5,0.14,0.08,0.95,749.01,3.3,-41.1
0.2,0.0,0.0,0.0,0.5,0.0,0.0,0.0,0.0,0.25,0.0,0.0,0.0,0.25,-0.48,-0.42,0.58,0.0,8.2,-7.2,2.5,0.0,2.5,2.25,5.25,4.25,0.75,6.25,1.75,7.75,6.25,3.25,5.75,0.14,0.08,0.95,708.61,1.4,-28.0
0.22,0.0,0.0,0.0,0.0,0.0,0.0,0.0,0.0,0.25,0.0,0.0,0.0,0.0,-0.48,-0.3,0.58,0.0,12.1,-38.5,2.5,0.25,3.5,3.25,5.5,4.25,1.25,6.0,1.75,7.5,5.5,3.0,5.5,0.08,0.08,0.95,693.31,0.0,-21.1
0.24,0.0,0.0,0.0,0.25,0.0,0.0,0.0,0.0,0.25,0.0,0.0,0.0,0.0,-0.61,-0.36,0.64,0.0,14.7,11.1,2.75,0.5,3.75,3.5,5.5,4.5,1.25,5.5,1.75,6.75,5.0,2.75,4.5,0.14,0.08,0.95,685.12,-0.9,-14.8
0.26,0.5,0.0,0.0,0.5,0.0,0.0,0.0,0.0,0.25,0.25,0.0,0.0,0.0,-0.67,-0.3,0.83,0.0,16.4,32.0,3.5,0.75,3.75,4.0,5.5,5.25,1.25,5.5,1.75,6.25,4.5,2.0,4.0,0.14,0.08,0.95,687.2,-1.4,-7.3
0.28,0.5,0.0,0.0,0.5,0.0,0.0,0.25,0.0,0.25,0.0,0.0,0.0,0.0,-0.55,-0.11,0.83,0.0,23.7,51.4,4.0,0.75,4.5,5.0,5.75,5.5,2.0,5.5,1.75,6.0,4.0,1.5,3.25,0.14,0.08,0.95,699.35,-2.8,0.6
0.3,0.25,0.0,0.0,0.25,0.0,0.0,0.0,0.0,0.0,0.25,0.0,0.0,0.0,-0.36,0.08,1.02,0.0,11.7,25.6,5.0,1.0,5.25,5.75,6.75,5.75,2.25,5.25,1.75,5.0,3.75,1.25,2.5,0.14,0.08,0.95,728.63,-4.7,10.3
0.32,0.0,0.0,0.0,0.0,0.0,0.0,0.0,0.0,0.25,0.0,0.5,0.0,0.0,-0.3,0.14,1.14,6.67,11.2,-63.0,5.25,1.0,5.75,5.75,7.25,5.75,2.5,4.75,1.75,4.5,2.75,1.0,2.25,0.14,0.08,0.95,750.79,-5.5,16.1
0.34,0.5,0.0,0.0,0.5,0.0,0.0,0.0,0.0,0.25,0.0,0.0,0.0,0.25,-0.23,0.2,1.33,16.64,16.6,25.5,5.75,1.0,6.25,7.5,7.25,6.0,2.5,4.25,1.75,4.25,2.5,0.5,1.5,0.14,0.08,0.95,777.45,-7.0,23.5
0.36,0.0,0.0,0.0,0.5,0.0,0.0,0.0,0.5,0.0,0.0,0.0,0.0,0.0,-0.11,0.39,1.52,18.8,0.6,10.6,5.75,1.0,7.0,7.75,8.0,6.0,3.0,4.25,1.5,4.0,2.5,0.5,1.5,0.14,0.08,0.95,806.48,-7.5,25.5
0.38,0.25,0.0,0.0,0.5,0.0,0.0,0.0,1.25,0.25,0.25,0.0,0.0,0.25,-0.11,0.52,1.58,27.61,-2.9,-18.8,6.25,1.5,7.25,9.25,8.5,6.0,3.0,4.0,1.25,3.75,2.25,0.25,1.5,0.08,0.08,0.95,848.26,-8.3,30.3
0.4,0.5,0.0,0.5,0.5,0.0,0.0,0.0,1.25,0.25,0.0,0.0,0.0,0.25,-0.23,0.52,1.83,38.81,7.2,6.4,6.5,1.75,7.25,9.25,8.5,6.0,3.25,3.25,1.25,3.0,2.0,0.25,1.5,0.08,0.14,0.95,875.73,-9.2,33.9
0.42,1.0,0.0,0.0,0.5,0.0,0.0,0.0,1.25,0.25,0.0,0.0,0.0,0.25,-0.48,0.64,2.08,49.56,6.2,11.0,7.0,1.75,7.5,10.5,9.0,6.25,3.25,3.0,1.25,3.0,1.5,0.0,1.25,0.08,0.14,0.95,907.32,-9.7,37.9
0.44,0.5,0.0,0.0,0.0,0.0,0.0,0.0,1.25,0.25,0.0,0.0,0.0,0.25,-0.11,1.45,2.33,49.49,-2.3,-18.2,7.25,1.75,8.0,11.0,9.75,6.5,3.25,3.0,1.0,2.75,1.25,0.0,1.25,0.08,0.14,0.95,938.02,-9.9,40.1
0.46,0.0,0.0,0.0,0.5,0.0,0.0,0.0,0.0,0.25,0.25,0.0,0.0,0.0,0.27,1.95,2.27,41.06,7.9,1.8,7.5,2.0,8.25,11.5,9.75,6.5,3.0,2.75,0.75,2.5,1.25,0.0,1.25,0.08,0.14,0.95,966.87,-10.3,42.1
0.48,0.0,0.0,0.0,0.5,0.0,0.0,0.0,0.0,0.0,0.0,0.0,0.0,0.5,0.77,2.39,1.83,29.86,1.8,-25.2,8.0,2.0,8.0,12.5,10.5,6.75,3.0,2.0,0.75,3.25,1.25,0.25,0.75,0.08,0.14,0.95,1003.97,-10.4,43.1
0.5,0.0,0.0,0.0,0.5,0.0,0.0,0.0,0.0,0.25,0.0,0.0,0.0,0.25,1.27,3.02,0.89,21.02,8.2,-7.2,8.25,1.75,8.75,12.5,11.0,6.5,3.0,1.75,0.75,1.25,0.75,0.0,0.75,0.08,0.14,1.02,1018.09,-11.9,49.6
0.52,0.0,0.0,0.0,0.5,0.0,0.0,0.0,0.0,0.25,0.0,0.25,0.0,0.25,1.64,3.7,0.45,18.57,8.7,-20.2,8.75,2.5,8.75,13.5,11.0,6.5,2.5,1.5,0.75,2.0,0.25,0.0,0.5,0.08,0.14,1.02,1038.14,-12.0,51.4
0.54,0.0,0.0,0.0,0.5,0.0,0.0,0.0,0.0,0.25,0.0,0.0,0.0,0.25,2.14,4.14,0.39,17.05,8.2,-7.2,9.0,3.25,8.75,14.5,11.0,6.0,2.25,1.5,0.5,2.0,0.25,0.0,0.5,0.08,0.2,1.02,1057.34,-12.4,52.9
0.56,0.0,0.0,0.0,0.5,0.0,0.0,0.0,0.0,0.25,0.25,0.5,0.0,0.25,1.39,3.08,0.45,19.67,5.5,-35.6,9.25,3.25,8.75,14.0,11.0,5.75,1.25,1.5,0.5,2.5,0.5,0.0,0.0,0.08,0.2,1.08,1070.74,-12.4,53.1
0.58,0.0,0.0,0.0,0.25,0.0,0.0,0.0,0.0,0.25,0.5,0.0,0.0,0.25,-0.86,-0.92,0.95,18.71,-3.0,-47.7,9.5,3.25,8.5,13.0,11.0,4.5,1.25,1.5,0.5,2.25,0.25,0.0,0.0,0.08,0.27,1.08,1051.01,-13.2,54.7
0.6,0.0,0.0,0.0,0.25,0.0,0.0,0.0,0.0,0.25,1.5,0.75,2.0,2.25,-0.92,-0.98,1.89,55.28,-3.1,-90.2,9.5,3.0,8.0,12.5,9.75,2.25,0.75,1.5,0.5,2.0,0.5,0.0,0.5,0.14,0.33,1.2,989.23,-14.6,53.7
0.62,1.0,0.0,0.0,0.0,0.0,0.0,0.0,0.0,0.25,4.25,0.25,5.0,5.5,0.64,0.7,1.2,137.67,-3.7,-87.4,9.0,2.0,7.25,11.0,9.0,0.5,0.25,1.5,0.5,1.75,0.25,0.25,0.5,0.08,0.33,1.45,877.31,-15.7,53.4
0.64,0.0,0.0,0.0,0.0,0.0,0.0,0.0,0.0,1.0,5.75,5.5,5.0,6.75,0.52,0.39,2.58,243.89,-2.9,-91.0,8.0,1.25,5.0,7.75,7.25,0.0,0.25,1.5,0.5,2.0,0.25,0.25,0.5,0.45,0.52,1.64,713.31,-15.1,49.6
0.66,0.0,0.0,0.0,0.0,0.0,0.0,0.0,0.0,0.0,0.0,0.0,0.0,0.0,-0.61,0.33,1.95,215.32,0.0,0.0,7.0,0.0,1.25,3.5,3.5,0.0,0.5,1.0,0.5,1.5,0.0,0.0,0.0,0.77,1.08,1.77,478.09,-16.0,52.3
0.68,0.0,0.0,0.0,0.0,0.0,0.0,0.0,0.0,0.0,6.75,0.0,5.5,0.0,-0.05,0.2,1.14,225.34,-4.6,-90.8,5.75,0.0,0.75,3.5,2.25,0.0,0.25,1.5,0.5,2.0,0.25,0.0,0.0,0.39,0.83,2.58,310.24,-13.5,40.6
0.7,0.0,0.0,0.0,0.25,0.0,0.0,0.0,5.25,0.75,6.75,3.0,5.25,6.5,-0.17,0.08,0.95,274.68,-6.9,-81.0,3.75,0.0,1.0,2.25,1.5,0.0,0.0,1.5,0.5,1.75,0.5,0.0,0.0,0.02,0.45,1.95,195.84,-12.0,30.2
0.72,0.0,0.0,0.0,0.5,2.0,0.5,0.0,4.5,1.5,6.75,5.0,5.0,6.25,-0.17,0.08,0.95,365.77,-5.0,-67.8,2.25,0.0,0.75,1.25,1.75,0.0,0.25,1.5,0.5,2.0,0.25,0.25,0.0,0.77,0.33,2.33,105.6,-7.1,15.3
0.74,0.0,0.0,0.0,0.5,3.0,0.75,0.0,4.5,1.25,6.75,0.0,5.0,6.0,-0.17,0.08,0.95,431.93,-7.9,-60.5,1.25,0.0,1.25,1.25,2.25,0.0,0.25,1.5,0.5,2.25,0.25,0.0,0.0,0.95,-0.8,1.83,49.1,-5.1,13.2
0.76,0.0,0.0,0.0,0.5,2.0,1.25,0.0,5.25,2.0,6.75,5.75,5.0,6.25,-0.17,0.08,0.95,523.74,-5.1,-64.8,0.0,0.0,1.5,0.5,1.5,0.0,0.25,1.5,0.0,0.0,0.25,0.0,0.0,0.7,-0.98,0.52,0.0,-7.7,25.4
0.78,0.0,0.0,0.0,2.25,0.0,1.5,0.25,5.75,2.0,6.0,6.25,4.75,6.0,-0.17,0.08,0.95,561.51,-3.8,-64.1,0.0,0.0,0.5,0.75,0.0,0.0,0.0,0.5,0.0,0.0,0.0,0.0,0.0,0.7,-0.92,1.14,0.0,-13.7,31.9
0.8,0.25,0.0,0.0,2.5,0.0,1.75,0.25,5.75,2.25,5.75,6.25,4.25,5.5,-0.17,0.08,0.95,571.78,-3.3,-59.8,0.0,0.0,0.5,0.5,0.0,0.0,0.0,0.25,0.0,0.75,0.0,0.0,0.0,0.27,-0.42,0.58,0.0,-6.2,-2.2
0.82,0.0,0.0,0.0,2.5,3.5,1.75,0.5,5.75,2.5,5.75,5.75,4.0,5.25,-0.11,0.08,0.95,582.97,-3.5,-47.2,0.0,0.0,0.5,0.5,0.0,0.0,0.0,0.0,0.0,0.0,0.0,0.0,0.0,0.27,-0.48,0.39,0.0,-27.6,59.4
0.84,1.0,0.0,0.0,1.5,3.25,2.25,0.75,5.75,2.75,4.75,5.5,3.25,4.25,-0.11,0.08,0.95,567.19,-2.9,-41.7,0.5,0.0,0.75,1.25,0.0,0.0,0.0,0.25,0.5,1.75,0.0,0.0,0.0,0.45,-0.42,0.83,0.0,-8.4,1.5
0.86,1.25,0.0,0.0,2.5,5.0,2.5,0.75,5.75,3.0,4.75,5.5,3.0,3.75,-0.11,0.08,0.95,556.63,-2.0,-31.2,0.25,0.0,2.0,1.0,1.75,0.5,0.25,1.5,0.5,1.5,0.5,0.0,0.0,0.45,-0.48,1.02,0.0,-5.4,11.0
0.88,1.5,0.25,0.5,2.0,5.5,2.75,0.75,5.25,3.0,3.25,4.5,2.0,2.75,-0.11,0.08,0.95,529.13,-1.1,-19.4,0.0,0.0,1.25,1.0,0.0,0.5,0.0,0.0,0.5,2.25,0.0,0.25,0.0,0.39,-0.23,0.95,39.23,-5.0,-10.5
0.9,1.75,0.75,1.0,4.25,5.75,2.75,1.0,5.25,3.0,3.0,4.0,2.0,1.75,-0.11,0.08,0.95,536.0,1.4,-6.5,0.0,0.0,1.75,1.25,1.75,0.0,0.25,1.5,0.5,1.75,0.25,0.0,0.0,0.2,0.2,0.95,89.85,-4.8,7.5
0.92,2.75,1.0,1.25,5.5,5.25,3.0,1.0,5.25,3.0,2.0,3.5,1.0,1.5,-0.11,0.08,0.95,506.81,3.3,5.4,0.0,0.0,1.5,1.0,1.75,0.25,0.25,1.5,0.5,2.0,0.25,0.0,0.25,0.2,0.33,1.02,111.9,-1.8,0.0
0.94,3.25,1.0,1.25,6.75,6.5,3.25,1.25,4.75,2.75,1.5,3.0,1.0,1.5,-0.11,0.08,0.95,510.97,4.2,13.4,0.5,0.0,1.0,1.0,1.75,0.0,0.25,1.5,0.75,2.25,0.25,0.0,0.0,0.14,0.2,1.33,132.37,-2.3,0.6
0.96,3.25,1.0,1.75,8.0,7.5,3.5,1.25,4.5,2.5,1.5,2.5,1.0,0.5,-0.11,0.08,0.95,535.46,5.2,21.8,0.5,0.0,1.75,1.0,1.75,0.0,0.25,1.5,0.5,1.75,0.25,0.25,0.0,0.08,0.39,1.45,143.92,-6.0,7.5
0.98,3.25,1.0,2.75,9.0,7.75,3.5,1.5,4.5,2.0,1.5,2.25,0.75,0.5,-0.11,0.08,0.95,572.39,6.2,26.1,0.0,0.0,1.75,0.0,1.75,0.0,0.25,1.5,0.0,0.25,0.25,0.0,0.0,0.08,0.52,1.45,137.8,-6.6,21.2
1.0,3.25,1.0,3.25,9.5,8.0,3.5,1.5,4.0,2.0,1.25,1.75,0.75,0.5,-0.11,0.08,0.95,594.38,7.1,29.7,0.0,0.0,0.5,0.0,0.0,0.0,0.0,0.0,0.0,0.25,0.0,0.0,0.0,0.2,0.58,1.58,102.75,-20.6,16.3
1.02,3.75,1.25,2.75,10.5,8.25,3.75,1.5,3.0,1.25,1.0,1.5,0.25,0.5,-0.11,0.08,0.95,611.81,7.6,37.5,0.0,0.0,0.0,0.0,0.0,0.0,0.0,0.0,0.0,0.25,0.0,0.0,0.0,0.39,0.58,1.77,59.42,15.7,-75.5
1.04,4.75,1.5,4.0,10.5,8.5,3.75,1.75,3.0,1.25,1.0,1.25,0.0,0.5,-0.11,0.14,0.95,637.41,9.2,41.5,0.0,0.0,0.5,0.0,0.0,0.0,0.0,0.0,0.0,0.25,0.0,0.0,0.0,0.58,0.7,1.83,23.53,-20.6,16.3
1.06,4.75,2.25,4.75,11.5,8.75,3.75,1.75,3.0,1.0,0.75,0.75,0.25,0.25,-0.11,0.14,0.95,670.0,10.1,45.8,0.0,0.0,0.5,0.0,0.0,0.0,0.0,0.0,0.0,0.0,0.0,0.0,0.0,0.33,0.95,2.02,0.49,-38.2,60.9
1.08,4.25,2.5,4.75,11.5,8.75,3.75,1.25,2.5,0.75,0.5,0.75,0.0,0.5,-0.11,0.14,0.95,692.31,10.0,47.8,0.0,0.0,0.5,0.0,0.0,0.0,0.0,0.0,0.0,0.0,0.0,0.0,0.0,0.2,1.52,1.95,0.0,-38.2,60.9
1.1,5.0,2.5,5.75,12.5,8.75,3.75,1.75,3.0,0.0,0.5,0.75,0.0,0.5,-0.17,0.14,1.02,722.4,11.0,49.4,0.0,0.0,0.0,0.0,0.0,0.0,0.0,0.0,0.0,0.0,0.0,0.0,0.0,-0.11,1.52,1.45,0.0,0.0,0.0
1.12,5.25,2.5,6.0,13.0,9.5,3.75,1.5,2.25,0.25,0.5,0.75,0.0,0.25,-0.17,0.14,1.02,751.63,11.6,51.8,0.0,0.0,1.25,0.75,1.75,0.0,0.25,0.0,0.0,2.0,0.0,0.25,0.5,-0.23,2.2,0.83,17.65,-3.3,0.1
1.14,0.0,2.75,6.25,13.5,9.75,3.5,1.5,1.75,0.0,0.0,0.0,0.0,0.5,-0.17,0.14,1.02,729.15,9.7,51.3,0.5,0.0,1.5,0.0,1.75,0.0,0.0,1.5,0.0,0.0,0.0,0.0,0.5,-1.11,3.2,0.7,44.06,-6.0,22.0
1.16,5.75,3.5,5.5,12.5,9.0,0.0,1.0,1.75,0.0,0.0,0.75,0.0,0.25,-0.17,0.2,1.02,706.82,15.2,58.1,0.0,0.0,1.5,0.0,0.0,0.0,0.0,0.0,0.0,1.5,0.0,0.0,0.0,-2.23,4.2,0.39,56.95,-11.6,-6.2
1.18,7.0,3.75,0.0,14.0,5.0,1.5,0.0,0.0,0.5,0.5,0.0,0.0,0.0,-0.17,0.2,1.08,626.53,14.3,65.3,1.25,0.0,0.5,1.0,1.75,0.0,0.0,1.5,0.25,2.25,0.0,0.25,0.5,-2.36,3.45,0.33,91.5,-1.0,-0.7
1.2,7.25,4.0,6.75,14.0,9.5,1.5,0.5,1.25,0.25,0.5,0.0,0.0,0.25,-0.17,0.27,1.08,659.04,15.1,60.3,0.75,0.0,0.75,1.0,1.75,0.25,0.25,1.5,0.0,4.25,1.25,2.75,4.75,0.52,0.14,1.02,168.87,2.9,-51.9
1.22,7.75,3.75,7.0,12.5,0.0,0.75,0.0,1.5,0.25,0.25,0.5,0.0,0.25,-0.23,0.27,1.2,605.98,21.8,62.0,0.0,0.0,0.0,1.0,1.5,0.5,0.0,1.5,0.5,6.0,2.5,6.0,7.5,-0.17,-0.17,1.14,271.95,5.0,-74.8
1.24,8.0,3.0,6.0,11.5,8.25,0.0,0.0,1.25,0.25,0.25,0.5,0.0,0.25,-0.3,0.33,1.39,624.63,16.9,60.7,1.0,0.0,1.5,1.0,1.5,1.25,0.25,3.0,0.75,9.0,6.5,6.75,8.5,-0.67,0.7,3.02,427.51,2.2,-63.7
1.26,7.5,2.5,5.5,9.5,0.0,0.0,0.0,1.0,0.25,0.0,0.5,0.0,0.0,-0.42,0.39,1.77,522.51,24.4,66.0,0.75,0.0,1.0,0.75,1.75,2.0,0.0,4.25,1.25,9.25,7.5,6.5,8.25,0.2,0.52,1.08,600.9,3.5,-63.4
1.28,6.5,1.0,2.5,7.25,0.0,0.0,0.0,0.75,0.75,0.0,0.5,0.0,0.25,-0.86,0.64,1.7,405.44,23.2,60.0,1.25,0.0,0.75,1.0,1.75,1.25,0.25,5.5,1.25,9.25,7.75,6.25,8.25,0.08,0.14,1.02,735.69,3.2,-62.1
1.3,6.0,0.75,1.25,4.5,0.0,0.0,0.0,0.0,0.5,0.25,0.75,0.0,0.0,-0.98,1.27,2.83,284.21,24.9,63.8,1.25,0.0,1.25,0.75,1.75,2.0,0.25,5.5,1.25,9.0,7.5,6.0,8.0,0.27,0.08,0.95,803.97,3.2,-59.2
1.32,3.75,0.0,0.5,0.75,0.0,0.0,0.0,0.0,0.25,0.0,0.0,0.0,0.25,-0.3,0.7,2.64,173.54,29.2,71.9,1.25,0.0,1.5,0.75,1.75,2.0,0.25,5.5,1.25,9.25,7.75,5.75,8.0,0.14,0.08,0.95,834.52,3.0,-58.4
1.34,0.0,0.0,1.0,2.5,0.0,0.0,0.0,0.0,0.25,0.0,0.5,0.0,0.0,-0.92,0.27,2.83,66.89,21.1,38.4,1.25,0.0,1.25,1.0,2.25,2.0,0.25,5.5,1.25,9.25,7.75,6.0,8.0,0.14,0.08,0.95,840.3,3.0,-57.3
1.36,0.0,0.0,0.5,0.0,0.0,0.0,0.0,0.0,0.25,0.25,0.0,0.0,0.25,-1.3,-1.05,2.08,0.0,12.0,-19.9,1.25,0.0,1.75,1.0,2.25,2.75,0.25,5.5,1.25,9.0,7.75,6.0,8.0,0.08,0.08,0.95,839.35,2.8,-54.5
1.38,0.0,0.0,0.0,1.0,0.0,0.0,0.0,0.0,0.25,0.25,1.0,0.0,0.5,-0.8,-0.17,1.02,0.0,6.7,-32.1,2.25,0.0,2.5,1.25,2.25,3.0,0.25,5.5,1.5,8.5,7.5,5.5,7.5,0.08,0.08,0.95,835.54,1.2,-47.0
1.4,0.0,0.0,0.0,1.0,0.0,0.0,0.0,0.0,0.25,0.0,0.0,0.0,0.25,-0.98,-1.05,0.14,0.0,11.2,14.7,2.5,0.0,2.5,1.25,2.25,3.25,0.25,5.5,1.75,8.5,7.0,4.75,7.25,0.14,0.08,0.95,810.54,1.3,-44.1
1.42,0.0,0.0,0.25,0.0,0.0,0.0,0.0,0.0,0.25,0.0,0.0,0.0,0.0,-0.73,-0.3,0.83,0.0,25.5,12.2,2.5,0.0,2.75,1.25,3.0,3.25,0.75,5.5,2.0,8.25,7.0,5.0,6.75,0.14,0.08,0.95,774.98,0.6,-40.9
1.44,0.0,0.0,0.0,0.5,0.0,0.0,0.0,0.0,0.25,0.0,0.0,0.0,0.0,-0.48,-0.36,0.33,0.0,15.5,27.0,3.0,0.0,3.25,1.25,3.75,4.0,0.75,5.5,1.75,8.25,7.0,4.5,6.5,0.14,0.08,0.95,743.82,0.4,-34.7
1.46,0.0,0.0,0.0,0.0,0.0,0.0,0.0,0.0,0.25,0.0,0.0,0.0,0.0,-0.61,-0.3,0.52,0.0,12.1,-38.5,4.0,0.0,3.75,2.0,4.25,4.0,1.0,5.5,1.75,8.0,6.75,4.25,6.5,0.08,0.08,0.95,730.0,-0.9,-28.1
1.48,0.0,0.0,0.5,0.0,0.0,0.0,0.0,0.0,0.25,0.0,0.0,0.0,0.25,-0.73,-0.36,0.7,0.0,18.8,-6.2,5.0,0.0,3.75,2.5,4.75,4.25,1.25,5.5,1.75,7.5,6.5,4.0,6.0,0.14,0.08,0.95,731.06,-1.8,-21.8
1.5,0.0,0.0,0.0,0.0,0.0,0.0,0.0,0.0,0.0,0.0,0.0,0.0,0.0,-0.73,-0.23,0.77,0.0,0.0,0.0,5.75,0.25,4.75,3.25,5.25,4.25,1.25,5.5,2.0,7.25,6.25,3.5,5.5,0.14,0.08,0.95,762.46,-3.3,-14.1
1.52,0.0,0.0,0.0,0.0,0.0,0.0,0.0,0.0,0.25,0.0,0.0,0.0,0.25,-0.61,0.02,0.77,0.0,-1.0,-75.0,6.5,0.25,5.0,3.5,5.25,4.25,1.75,5.0,2.25,6.75,5.75,2.75,4.75,0.14,0.08,0.95,784.27,-4.6,-7.8
1.54,0.0,0.0,0.0,0.0,0.0,0.0,0.0,0.0,0.25,0.0,0.0,0.0,0.0,-0.55,0.2,0.95,0.0,12.1,-38.5,7.0,0.5,5.5,3.5,5.5,4.25,2.0,4.5,2.0,6.0,5.0,2.5,4.25,0.14,0.08,0.95,794.85,-5.8,-1.3
1.56,0.0,0.0,0.0,0.0,0.0,0.0,0.0,0.0,0.25,0.0,0.0,0.0,0.25,-0.42,0.33,1.14,0.0,-1.0,-75.0,7.75,0.75,6.0,4.75,5.5,4.25,2.5,4.25,2.0,5.5,4.5,2.25,3.5,0.14,0.08,0.95,804.18,-7.5,6.3
1.58,0.0,0.0,0.0,0.0,0.0,0.0,0.0,0.0,0.25,0.25,0.0,0.0,0.25,-0.36,0.45,1.27,1.7,-5.8,-75.1,8.0,0.75,6.75,5.75,5.75,4.25,3.0,4.25,1.75,4.25,3.75,1.25,2.25,0.14,0.08,0.95,802.99,-9.3,17.6
1.6,0.0,0.0,0.0,0.0,0.0,0.0,0.0,0.0,0.25,0.0,0.0,0.0,0.25,-0.3,0.45,1.39,6.26,-1.0,-75.0,8.75,1.0,7.5,6.25,6.25,4.25,3.5,3.0,1.75,4.0,2.5,0.75,1.75,0.14,0.08,0.95,802.48,-11.2,27.4
1.62,0.0,0.0,0.0,0.0,0.0,0.0,0.0,0.0,0.25,0.0,0.0,0.0,0.25,-0.3,0.45,1.58,6.69,-1.0,-75.0,8.75,1.0,8.0,7.5,7.25,4.25,4.0,3.0,1.5,4.0,2.5,0.25,1.5,0.14,0.14,0.95,818.93,-11.5,31.3
1.64,0.0,0.0,0.0,0.0,0.0,0.0,0.0,0.0,0.25,0.0,0.0,0.0,0.0,-0.36,0.58,1.64,6.69,12.1,-38.5,8.75,1.0,8.5,8.5,7.5,4.25,4.5,3.0,1.25,3.0,2.5,0.25,1.5,0.14,0.08,0.95,843.22,-12.4,34.6
1.66,0.0,0.0,0.0,0.0,0.0,0.0,0.0,0.0,0.25,0.0,0.0,0.0,0.25,-0.36,0.64,2.08,7.61,-1.0,-75.0,9.0,1.0,8.75,9.5,8.0,4.25,4.5,2.75,1.25,2.75,2.0,0.25,1.25,0.08,0.14,0.95,870.31,-12.9,38.2
1.68,0.0,0.0,0.0,0.5,0.0,0.0,0.0,0.0,0.25,0.0,0.0,0.0,0.25,-0.3,0.7,2.2,10.04,8.2,-7.2,9.0,1.75,9.0,10.5,8.75,4.5,4.75,2.5,1.25,2.5,2.0,0.0,1.0,0.08,0.14,0.95,909.43,-13.2,41.8
1.7,0.0,0.0,0.0,0.5,0.0,0.0,0.0,0.0,0.25,0.0,0.0,0.0,0.25,-0.23,1.02,2.2,13.64,8.2,-7.2,9.25,1.75,9.25,11.0,8.75,4.5,5.0,2.0,1.0,2.25,1.5,0.0,0.75,0.08,0.14,0.95,937.18,-14.0,45.6
1.72,0.0,0.0,0.0,0.5,0.0,0.0,0.0,0.0,0.25,0.0,0.0,0.0,0.0,-0.05,1.39,1.95,14.85,15.5,27.0,9.75,1.75,9.25,11.5,8.75,4.25,5.0,1.5,0.75,2.25,1.25,0.0,0.75,0.08,0.14,0.95,954.13,-14.7,47.9
1.74,0.0,0.0,0.0,0.5,0.0,0.0,0.0,0.0,0.25,0.0,0.0,0.0,0.25,0.33,1.89,1.58,16.92,8.2,-7.2,9.75,1.75,10.5,12.5,9.25,4.0,4.75,1.5,0.75,2.5,1.25,0.0,0.5,0.08,0.14,1.02,980.97,-15.2,48.7
1.76,0.0,0.0,0.0,0.0,0.0,0.0,0.0,0.0,0.0,0.0,0.0,0.0,0.25,0.7,2.14,1.33,13.05,-13.7,-109.8,11.0,2.25,11.0,12.5,9.75,2.0,4.75,1.5,0.75,2.5,1.25,0.0,0.5,0.08,0.14,1.02,1013.36,-16.8,50.7
1.78,0.5,0.0,0.0,0.5,0.0,0.0,0.0,0.0,0.25,0.0,0.0,0.0,0.0,1.45,2.7,0.64,15.71,22.9,53.7,11.0,2.5,11.0,13.0,10.5,4.25,4.5,1.5,0.75,2.5,1.25,0.0,0.5,0.08,0.2,1.02,1067.96,-15.1,50.5
1.8,0.0,0.0,0.0,0.5,0.0,0.0,0.0,0.0,0.25,0.0,0.0,0.0,0.25,1.58,3.52,0.33,15.88,8.2,-7.2,11.0,2.75,11.0,13.0,9.75,3.75,3.5,1.75,0.5,2.25,0.75,0.0,0.5,0.08,0.2,1.02,1092.1,-15.6,52.5
1.82,0.0,0.0,0.0,0.5,0.0,0.0,0.0,0.0,0.25,0.25,0.5,0.0,0.0,0.77,2.77,0.7,20.14,8.8,-22.9,11.5,2.75,11.0,13.0,9.75,2.5,2.75,2.0,0.5,2.25,1.25,0.0,0.5,0.08,0.27,1.08,1104.47,-16.2,51.9
1.84,0.0,0.0,0.0,0.0,0.0,0.0,0.0,0.0,0.25,0.0,0.0,0.0,0.25,0.02,1.77,0.77,17.56,-1.0,-75.0,12.0,3.0,11.0,12.5,9.25,2.0,2.0,1.25,0.5,2.5,0.75,0.0,0.0,0.08,0.33,1.14,1075.39,-17.4,55.9
1.86,0.0,0.0,0.0,0.0,0.0,0.0,0.0,0.0,0.25,1.25,0.0,0.25,1.25,-1.55,-1.05,0.7,31.24,-10.5,-89.9,11.0,2.75,9.5,12.5,8.75,0.0,1.25,1.5,0.5,2.5,0.5,0.0,0.0,0.08,0.33,1.2,1000.57,-17.9,56.0
1.88,0.0,0.0,0.0,0.0,0.0,0.0,0.0,0.0,0.25,3.0,0.0,3.25,4.25,-0.42,-0.36,1.83,90.21,-6.9,-98.7,10.5,2.5,9.0,11.0,8.0,0.0,1.0,1.5,0.5,2.5,0.25,0.0,0.75,0.14,0.33,1.2,906.09,-17.4,53.4
1.9,0.0,0.0,0.0,0.0,0.0,0.0,0.0,0.0,0.25,6.25,2.75,5.5,7.0,-0.05,0.77,1.95,198.82,-5.3,-95.0,9.75,1.75,8.0,9.25,7.0,0.0,0.75,1.5,0.5,2.0,0.5,0.0,0.75,0.27,0.52,1.45,786.66,-17.6,52.3
1.92,0.0,0.0,0.0,0.0,0.0,0.75,0.0,3.5,0.75,6.75,6.0,5.5,6.75,-0.3,0.39,2.58,311.19,-5.2,-81.9,8.75,1.0,5.25,5.5,4.5,0.0,0.75,1.5,0.5,2.0,0.75,0.0,0.5,0.7,0.89,1.89,618.71,-17.6,48.5
1.94,0.0,0.0,0.0,0.5,0.0,0.5,0.0,5.75,2.0,7.5,6.25,5.75,6.75,0.02,0.45,1.33,446.46,-4.8,-76.3,7.25,0.25,3.5,3.25,2.5,0.0,0.75,1.5,0.5,2.25,0.25,0.0,0.5,0.39,1.14,3.14,437.06,-17.0,42.5
1.96,0.0,0.0,0.0,0.75,3.0,1.25,0.0,5.75,2.0,7.0,6.5,5.25,6.75,-0.05,0.08,0.95,572.17,-4.8,-61.3,5.75,0.0,2.5,3.0,2.5,0.0,0.25,1.5,0.5,2.25,0.5,0.0,0.0,-0.23,0.45,2.7,302.36,-15.1,39.2
1.98,0.0,0.0,0.0,1.0,2.0,1.5,0.25,6.0,2.0,6.75,6.5,5.0,6.75,-0.17,0.08,0.95,646.66,-4.8,-62.5,4.25,0.0,2.25,2.0,2.5,0.0,0.25,1.5,0.0,0.0,0.75,0.0,0.0,0.27,0.2,1.89,206.05,-17.6,51.1
2.0,0.0,0.0,0.0,0.5,1.25,1.5,0.25,6.0,2.0,6.75,6.5,5.0,6.5,-0.17,0.08,0.95,672.45,-5.1,-66.7,2.5,0.0,0.75,1.0,0.0,0.0,0.0,0.0,0.0,0.0,0.0,0.0,0.0,1.08,-0.3,2.08,85.84,-31.1,80.9
2.02,0.0,0.0,0.0,0.5,2.25,1.75,0.25,6.0,2.0,6.75,6.0,5.0,6.25,-0.17,0.08,0.95,673.9,-5.3,-61.9,0.0,0.0,0.75,0.5,0.0,0.0,0.0,0.25,0.0,0.25,0.0,0.0,0.0,0.77,-1.11,-0.36,0.0,-16.9,27.1
2.04,1.5,0.0,0.0,0.5,3.0,1.5,0.25,6.0,2.0,6.75,6.5,5.0,6.25,-0.11,0.08,0.95,676.78,-3.5,-54.4,0.0,0.0,1.0,0.5,0.0,0.0,0.0,0.0,0.0,0.0,0.0,0.0,0.0,0.77,-1.05,0.89,0.0,-31.1,59.9
2.06,1.5,0.0,0.0,0.5,3.75,2.0,0.25,6.25,2.25,6.75,6.5,5.0,6.0,-0.11,0.02,0.95,680.59,-3.7,-50.5,0.0,0.0,1.0,0.5,0.0,0.0,0.0,0.0,0.0,0.5,0.0,0.0,0.0,0.58,-0.61,0.83,0.0,-19.7,26.9
2.08,1.5,0.0,0.0,1.25,3.75,1.75,0.5,5.5,2.5,6.5,6.25,4.75,6.0,-0.11,0.08,0.95,672.93,-2.8,-48.2,0.0,0.0,0.75,0.0,0.0,0.0,0.0,0.0,0.0,0.25,0.0,0.0,0.0,0.02,-0.48,0.39,0.0,-25.0,27.5
2.1,1.5,0.0,0.0,1.25,3.25,1.5,0.5,5.75,2.5,6.0,6.0,4.25,5.5,-0.11,0.08,0.95,637.8,-2.7,-48.0,0.0,0.0,1.25,0.0,0.0,0.0,0.0,0.0,0.0,0.5,0.0,0.0,0.0,0.2,-0.3,0.33,0.0,-23.1,22.7
2.12,1.75,0.0,0.0,1.25,3.25,2.0,0.75,5.75,2.5,5.75,6.0,4.0,5.5,-0.11,0.08,0.95,595.19,-2.6,-45.3,0.0,0.0,1.5,0.0,0.0,0.0,0.0,0.0,0.0,0.5,0.0,0.0,0.0,0.33,-0.3,0.52,0.0,-25.0,27.5
2.14,2.0,0.0,0.25,2.0,3.25,2.0,0.75,5.75,2.5,5.75,5.5,3.75,4.5,-0.11,0.08,0.95,550.71,-1.6,-39.0,0.0,0.0,0.75,0.0,0.0,0.0,0.0,0.0,0.0,0.0,0.0,0.0,0.0,0.52,-0.23,0.89,0.0,-38.2,60.9
2.16,1.5,0.0,1.0,2.0,3.25,2.0,1.0,5.75,2.75,4.75,5.5,3.25,4.25,-0.11,0.08,0.95,515.71,-0.7,-35.9,0.0,0.0,0.75,0.0,0.0,0.0,0.0,0.0,0.0,0.5,0.0,0.0,0.0,0.52,-0.05,0.89,0.0,-17.0,7.3
2.18,2.5,0.0,1.25,2.5,4.25,2.0,1.0,5.5,3.0,4.75,5.25,3.0,4.0,-0.11,0.08,0.95,500.32,0.6,-26.9,0.0,0.0,1.75,0.0,0.0,0.0,0.0,0.0,0.0,0.5,0.0,0.0,0.0,0.52,0.33,0.95,0.0,-26.5,31.3
2.2,2.75,0.0,1.25,2.5,4.5,2.25,1.0,5.5,3.0,4.75,4.75,3.0,3.75,-0.11,0.08,0.95,496.36,0.6,-24.1,0.0,0.0,0.5,0.0,0.0,0.0,0.0,0.0,0.0,0.5,0.0,0.0,0.0,0.58,0.52,1.08,0.0,-11.6,-6.2
2.22,3.25,0.0,1.75,2.75,4.5,2.5,1.25,5.25,3.0,4.0,3.5,2.25,3.0,-0.11,0.08,0.95,490.44,1.9,-13.8,1.25,0.0,2.25,1.0,2.5,0.5,0.25,1.5,0.5,1.25,0.25,0.0,0.5,0.58,0.52,1.2,68.62,-7.3,20.3
2.24,3.25,0.0,2.0,4.25,4.5,2.5,1.5,5.25,3.0,3.0,4.0,2.0,2.75,-0.11,0.08,0.95,491.89,3.5,-8.1,0.0,0.0,0.5,0.0,0.0,0.0,0.0,0.0,0.0,0.5,0.0,0.0,0.0,0.52,0.7,1.39,72.43,-11.6,-6.2
2.26,4.25,0.0,2.75,4.5,5.25,2.5,1.5,4.75,3.0,2.5,3.75,1.0,1.75,-0.11,0.08,0.95,494.54,5.8,5.1,0.0,0.0,0.75,0.0,0.0,0.0,0.0,0.0,0.0,0.0,0.0,0.0,0.0,0.52,0.83,1.52,68.07,-38.2,60.9
2.28,4.75,0.5,3.0,5.75,5.5,2.5,1.75,4.25,2.75,1.5,2.75,1.0,1.5,-0.11,0.08,0.95,502.47,7.7,16.1,0.0,0.0,1.0,0.0,0.0,0.0,0.0,0.0,0.0,0.25,0.0,0.0,0.0,0.58,0.83,1.52,42.12,-27.7,34.3
2.3,5.75,0.75,3.0,6.5,5.75,2.5,2.25,4.5,2.5,1.5,2.25,1.0,1.0,-0.11,0.08,0.95,522.61,8.7,22.7,0.0,0.0,1.0,0.0,0.0,0.0,0.0,0.0,0.0,0.25,0.0,0.0,0.0,0.77,0.83,1.58,30.73,-27.7,34.3
2.32,6.0,1.0,4.25,8.0,5.75,2.5,2.25,3.75,2.0,1.25,2.0,0.75,0.5,-0.11,0.08,0.95,552.46,11.1,31.9,0.0,0.0,0.5,0.0,0.0,0.0,0.0,0.0,0.0,0.0,0.0,0.0,0.0,0.83,0.89,1.64,15.43,-38.2,60.9
2.34,6.75,1.0,4.5,8.0,6.0,2.25,2.5,3.25,1.5,1.25,1.5,0.25,0.5,-0.11,0.08,0.95,574.07,12.2,38.4,0.0,0.0,0.75,0.0,0.0,0.0,0.0,0.0,0.0,0.0,0.0,0.0,0.0,0.7,0.95,1.64,13.21,-38.2,60.9
2.36,7.25,1.0,5.5,9.0,5.75,2.0,2.75,2.75,1.25,1.25,0.75,0.25,0.5,-0.11,0.14,0.95,593.03,14.1,43.7,0.0,0.0,1.0,0.0,0.0,0.0,0.0,0.0,0.0,0.0,0.0,0.0,0.0,0.58,1.02,1.45,13.49,-38.2,60.9
2.38,7.25,1.0,6.0,9.0,7.25,2.0,2.75,2.75,1.0,0.75,0.5,0.0,0.5,-0.11,0.14,0.95,613.74,14.1,47.9,0.0,0.0,0.75,1.0,0.0,0.0,0.0,0.0,0.5,1.25,0.0,0.5,0.0,0.39,1.02,1.27,27.45,-9.4,-14.8
2.4,7.5,1.25,6.0,10.5,7.0,2.0,3.0,2.25,0.75,0.75,1.0,0.0,0.75,-0.11,0.14,0.95,641.62,14.7,47.9,1.0,0.0,2.0,1.0,2.5,0.0,0.25,1.5,0.5,2.25,0.0,0.25,0.0,0.08,1.02,1.33,82.61,-6.1,13.9
2.42,8.0,1.0,0.0,10.5,7.0,1.75,2.75,2.75,0.0,0.5,0.5,0.0,0.25,-0.11,0.14,1.08,610.2,11.2,51.7,0.0,0.0,1.75,0.0,2.5,0.0,0.25,1.5,0.0,0.0,0.25,0.0,0.5,-0.23,0.95,1.33,108.47,-4.7,19.0
2.44,0.75,1.0,6.75,10.5,7.0,1.25,2.75,1.25,0.0,0.5,1.0,0.0,0.5,-0.11,0.14,1.08,569.49,13.6,45.5,0.0,0.0,0.5,0.0,0.0,0.0,0.0,0.0,0.25,0.0,0.0,0.0,0.0,-0.61,1.14,1.33,94.35,-29.8,28.7
2.46,7.5,1.0,0.0,10.5,7.25,1.25,2.25,1.5,0.0,0.5,0.75,0.0,0.75,-0.17,0.2,1.08,524.7,11.8,51.4,0.0,0.0,0.5,0.0,0.0,0.0,0.0,0.0,0.0,0.0,0.0,0.0,0.0,-0.86,1.45,1.02,60.3,-38.2,60.9
2.48,8.25,1.0,6.25,10.5,7.0,0.75,1.75,1.5,0.5,0.5,0.5,0.0,0.5,-0.17,0.2,1.08,535.93,17.1,54.8,0.0,0.0,0.5,0.0,0.0,0.0,0.0,0.0,0.0,0.0,0.0,0.0,0.0,-0.73,1.7,0.52,38.28,-38.2,60.9
2.5,8.5,1.25,6.75,10.5,6.75,0.0,1.0,1.5,0.25,0.25,0.25,0.0,0.5,-0.17,0.27,1.14,550.99,18.5,58.4,1.25,0.0,0.5,1.0,0.0,0.0,0.0,0.0,0.25,1.5,0.0,0.0,0.25,-0.61,2.27,0.39,40.0,-11.5,11.6
2.52,8.75,1.25,6.0,9.5,6.0,0.0,0.25,2.0,0.25,0.5,0.0,0.0,0.25,-0.3,0.39,1.2,558.83,18.1,58.9,0.75,0.0,1.5,1.0,1.75,0.0,0.25,1.5,0.0,3.25,0.75,4.0,1.75,-0.92,2.58,0.14,113.68,-2.4,-39.4
2.54,8.5,1.25,6.0,8.75,5.75,0.0,0.0,1.25,0.25,0.5,0.0,0.0,0.0,-0.48,0.52,1.39,537.0,19.2,62.3,0.75,0.0,0.75,1.25,2.5,0.5,0.25,1.5,0.25,5.0,2.5,6.75,8.25,-0.42,0.89,0.08,247.76,2.3,-63.0
2.56,8.5,1.0,4.25,7.75,4.5,0.0,0.0,1.25,0.25,0.5,0.75,0.0,0.0,-0.61,0.58,1.58,486.59,19.1,59.3,0.75,0.0,0.5,1.0,2.5,0.0,0.25,1.5,0.5,7.25,4.5,6.5,8.5,0.14,0.83,4.14,371.96,2.6,-67.6
2.58,8.25,0.75,1.75,4.5,0.0,0.0,0.0,0.0,0.0,0.5,0.5,0.0,0.25,-0.67,0.89,2.64,370.71,26.0,68.4,0.5,0.0,0.75,1.0,2.5,1.0,0.25,2.0,1.25,7.75,6.5,5.5,7.25,0.58,0.39,3.02,503.52,2.4,-62.0
2.6,7.25,0.0,0.5,3.25,0.0,0.0,0.25,0.0,0.0,0.25,0.0,0.0,0.5,-0.55,0.58,3.52,271.03,26.6,70.7,1.25,0.0,1.5,1.25,2.5,2.0,0.25,3.0,1.25,7.5,7.25,5.25,6.5,0.27,0.7,1.27,601.27,1.2,-52.0
2.62,5.75,0.0,0.25,0.5,0.0,0.0,0.0,0.0,0.0,0.25,0.0,0.0,0.25,-0.48,0.52,2.58,170.82,29.9,78.7,1.75,0.0,1.75,1.25,3.5,3.25,0.25,3.0,1.75,8.0,7.75,5.25,6.0,0.08,0.02,0.95,674.21,0.9,-44.3
2.64,2.0,0.0,1.0,1.0,0.0,0.0,0.0,0.0,0.25,0.5,0.0,0.0,0.0,-1.11,0.08,2.39,81.79,25.1,55.1,2.5,0.0,2.75,1.5,4.75,3.25,0.25,3.0,2.5,7.75,8.5,5.25,6.0,0.08,0.2,0.95,741.65,-0.8,-36.7
2.66,0.5,0.0,0.0,0.0,0.0,0.0,0.0,0.0,0.0,0.25,0.0,0.0,0.25,-1.36,-0.73,1.58,0.0,9.1,-1.5,2.5,0.0,3.5,2.0,4.75,2.75,0.25,3.0,2.5,7.75,8.5,4.75,5.5,0.14,0.14,0.95,798.03,-1.9,-33.3
2.68,0.0,0.0,0.0,0.0,0.0,0.0,0.0,0.0,0.25,0.0,0.5,0.0,0.25,-1.42,0.45,-0.67,0.0,4.7,-75.2,2.75,0.25,3.5,3.0,4.75,2.0,0.25,3.0,2.5,7.25,8.5,4.75,5.0,0.14,0.08,0.95,824.5,-3.2,-29.7
2.7,0.75,0.0,0.25,0.0,0.0,0.0,0.0,0.0,0.0,0.25,0.5,0.0,0.25,-1.73,-0.42,0.02,0.0,16.4,0.2,4.0,0.25,4.0,3.25,4.75,2.0,0.25,2.25,2.5,6.5,8.5,4.0,4.25,0.08,0.08,0.95,809.58,-5.2,-21.5
2.72,1.25,0.0,0.0,0.0,0.0,0.0,0.0,0.0,0.25,0.0,0.0,0.0,0.5,-0.61,0.2,0.27,0.0,19.0,24.9,5.0,0.5,5.5,3.25,4.5,2.0,0.25,1.5,2.5,5.75,7.5,2.5,3.25,0.08,0.02,0.95,769.19,-8.0,-8.5
2.74,0.5,0.0,0.0,0.0,0.0,0.0,0.0,0.0,0.25,0.0,1.0,0.0,0.25,0.02,0.64,0.33,0.0,13.5,-33.6,5.75,1.0,5.75,3.75,5.25,2.0,0.5,1.5,2.5,4.25,7.0,2.25,2.25,0.08,0.08,0.95,724.37,-9.9,2.8
2.76,0.0,0.0,0.0,0.0,0.0,0.0,0.0,0.0,0.25,0.0,0.0,0.0,0.0,0.33,0.83,-0.05,0.0,12.1,-38.5,6.75,1.0,7.0,4.5,5.25,2.0,0.75,1.5,2.5,4.75,6.25,1.5,1.75,0.08,0.14,0.95,697.67,-11.4,10.9
2.78,1.5,0.0,0.0,0.0,0.0,0.0,0.0,0.0,0.25,0.0,0.5,0.0,0.25,0.08,0.95,-0.61,0.0,22.4,26.2,7.25,1.0,7.25,4.75,5.25,2.0,0.75,1.5,2.75,3.25,6.25,1.5,1.5,0.02,0.14,0.95,682.51,-12.9,15.7
2.8,0.5,0.0,0.0,0.0,0.0,0.0,0.0,0.0,0.25,0.0,0.0,0.0,0.0,0.02,1.08,-0.61,0.0,27.1,50.7,7.75,1.0,8.0,5.0,4.75,2.0,0.75,1.5,2.5,2.75,5.5,1.0,1.25,0.08,0.14,0.95,676.67,-14.4,22.1
2.82,0.0,0.0,0.0,0.0,0.0,0.0,0.0,0.0,0.25,0.0,0.0,0.0,0.0,0.08,1.02,-0.11,0.0,12.1,-38.5,8.25,1.5,8.0,5.75,4.75,2.0,0.75,1.5,1.75,2.25,4.0,0.5,1.0,0.02,0.02,1.14,662.6,-15.4,32.5
2.84,1.25,0.0,0.0,0.0,0.0,0.0,0.0,0.0,0.0,0.0,0.0,0.0,0.5,0.7,1.02,0.08,0.0,20.0,34.3,9.0,1.75,8.5,5.75,4.5,0.5,0.5,1.5,1.25,2.25,2.5,0.25,0.5,0.02,0.02,1.27,630.44,-18.2,42.0
2.86,1.0,0.0,0.0,0.25,0.0,0.0,0.0,0.0,0.25,0.25,0.0,0.0,0.5,1.02,0.77,0.14,14.92,13.2,9.7,9.0,1.75,8.25,5.5,3.25,0.0,0.25,1.5,1.25,2.25,2.5,0.25,0.5,0.14,0.27,1.64,584.52,-19.4,41.4
2.88,1.75,0.0,0.0,0.5,0.0,0.0,0.0,0.0,0.25,0.0,0.0,0.0,0.5,0.08,1.64,-0.8,31.36,21.2,42.5,8.5,1.0,7.25,3.5,2.5,0.0,0.25,0.25,0.75,0.25,2.0,0.0,0.0,0.02,-0.05,2.08,488.88,-24.9,57.1
2.9,0.0,0.0,0.25,0.5,0.0,0.0,0.0,0.0,0.25,0.0,0.25,0.0,0.0,-1.8,2.77,-3.48,34.31,19.2,14.3,6.5,0.0,2.75,1.0,0.0,0.0,0.0,0.0,0.5,1.0,0.0,0.0,0.0,0.89,0.33,0.08,339.51,-28.7,64.0
2.92,0.0,0.0,0.0,0.5,0.0,0.0,0.5,0.0,0.25,0.0,0.0,0.0,0.0,-2.11,3.39,-5.67,30.45,19.5,27.1,3.25,0.0,0.0,1.25,2.75,0.0,0.0,0.0,1.0,1.75,0.0,0.0,0.0,-1.11,-1.42,1.58,230.99,-10.0,36.3
2.94,0.75,0.0,0.25,0.5,0.0,0.0,0.0,0.5,0.25,0.0,0.0,0.0,0.0,-0.86,2.64,-0.3,29.72,17.0,38.4,1.25,0.0,0.0,0.0,0.0,0.0,0.0,0.75,0.5,0.0,0.0,0.0,0.0,-0.11,-4.42,1.14,99.82,-14.2,27.4
2.96,0.25,0.0,0.5,0.0,0.0,0.0,0.0,0.0,0.25,0.25,0.5,0.0,0.5,-1.3,1.45,-0.11,31.43,11.2,-29.9,1.25,0.0,0.25,1.0,0.0,0.0,0.0,0.0,0.75,2.25,0.0,0.0,0.0,0.83,-2.92,2.2,17.18,-7.7,-1.4
2.98,0.25,0.0,0.0,0.0,0.0,0.0,0.0,0.0,0.25,0.0,0.0,0.0,0.25,-0.55,0.02,2.45,26.81,10.3,-20.2,1.25,0.0,0.75,0.5,2.25,0.0,0.0,1.5,0.5,0.75,0.75,0.0,0.0,2.89,-1.8,1.39,0.0,-5.5,16.6
3.0,0.75,0.0,0.0,0.25,0.0,0.0,0.0,0.0,0.25,0.0,0.0,0.0,0.25,3.27,-3.3,2.89,26.43,19.4,31.3,1.25,0.0,0.75,0.75,2.5,0.0,0.0,0.0,0.5,2.0,0.0,0.0,0.0,2.27,-0.67,1.39,0.0,-6.0,23.6
3.02,1.5,0.0,0.0,0.0,0.0,0.0,0.0,0.0,0.25,0.0,0.0,0.0,0.25,1.08,-3.11,2.45,26.48,25.4,52.1,0.25,0.0,1.5,0.75,0.5,0.0,0.0,0.0,0.5,1.0,0.25,0.0,0.0,0.14,0.52,1.89,0.0,-14.7,16.5
3.04,0.75,0.0,0.0,0.25,0.0,0.0,0.0,0.0,0.0,0.0,0.5,0.0,0.25,-0.3,-1.92,0.2,28.18,18.0,11.0,0.0,0.0,0.5,0.5,2.5,0.0,0.25,1.5,0.25,1.5,0.5,0.0,0.0,-1.48,1.2,1.52,4.03,2.2,0.3
3.06,0.0,0.0,0.0,0.5,0.0,0.0,0.0,0.0,0.25,0.0,0.0,0.0,0.0,-4.48,1.58,-1.98,23.2,15.5,27.0,0.0,0.0,0.5,0.0,0.0,0.0,0.25,0.5,0.0,0.0,0.25,0.0,0.0,-0.98,2.02,2.64,0.0,-12.9,-2.1
3.08,0.0,0.0,0.0,0.75,0.0,0.0,0.0,0.0,0.0,0.0,0.0,0.0,0.25,-4.23,1.89,-2.3,19.07,9.5,16.5,0.75,0.0,0.5,0.0,0.0,0.0,0.0,0.0,0.25,0.0,0.0,0.0,0.0,-2.42,2.2,2.14,0.0,-32.3,61.8
3.1,0.0,0.0,0.0,0.5,0.0,0.0,0.0,0.0,0.0,0.0,0.0,0.0,0.25,-0.23,1.83,-1.8,13.91,7.0,2.6,0.0,0.0,0.5,0.0,1.25,0.0,0.0,0.25,0.0,0.0,0.0,0.0,0.0,-1.8,0.83,1.64,0.0,-4.8,44.8
3.12,0.0,0.0,0.0,0.5,0.0,0.0,0.0,0.0,0.0,0.0,0.0,0.0,0.25,-0.17,-0.3,-0.73,11.26,7.0,2.6,0.0,0.0,0.5,0.0,0.0,0.0,0.0,0.0,0.0,0.0,0.0,0.0,0.0,-0.05,0.89,2.08,0.0,-38.2,60.9
3.14,0.75,0.0,0.0,0.5,0.0,0.0,0.0,0.0,0.25,0.0,0.5,0.0,0.25,0.02,-0.11,0.02,19.33,17.2,11.0,0.0,0.0,0.5,0.0,0.0,0.0,0.0,0.0,0.0,0.0,0.5,0.0,0.0,0.7,1.14,2.08,0.0,-24.9,-5.1
3.16,0.5,0.0,0.0,0.75,0.0,0.0,0.0,0.0,0.25,0.0,0.0,0.0,0.25,-0.23,-0.3,-0.48,24.04,16.7,30.4,0.0,0.0,0.25,0.0,0.0,0.0,0.0,0.0,0.0,0.0,0.0,0.0,0.0,0.58,1.7,0.64,0.0,-38.2,60.9
3.18,1.75,0.0,0.0,0.25,0.0,0.0,0.0,0.0,0.25,0.0,0.25,0.0,0.25,-0.48,0.2,-0.3,33.35,24.1,45.0,0.0,0.0,0.0,0.0,0.0,0.0,0.0,0.0,0.0,0.0,0.0,0.0,0.0,0.02,1.7,0.52,0.0,0.0,0.0
3.2,0.0,0.0,0.0,0.25,0.0,0.0,0.0,0.0,0.25,0.0,0.5,0.0,0.25,-0.3,0.58,-0.11,31.97,7.3,-47.3,0.0,0.0,0.5,0.0,0.0,0.0,0.0,0.0,0.0,0.0,0.0,0.0,0.0,-0.86,1.2,1.14,0.0,-38.2,60.9
3.22,0.25,0.0,0.0,0.5,0.0,0.0,0.0,0.0,0.25,0.0,0.5,0.0,0.25,-0.48,0.27,-0.23,32.67,12.5,-12.1,0.0,0.0,0.75,0.0,0.0,0.0,0.0,0.0,0.0,0.0,0.0,0.0,0.0,-1.48,0.77,1.08,0.0,-38.2,60.9
3.24,0.25,0.0,0.0,0.5,0.0,0.0,0.0,0.0,0.25,0.0,0.25,0.0,0.0,-0.92,0.52,-0.36,26.39,18.3,20.3,0.0,0.0,0.5,0.0,0.0,0.0,0.0,0.0,0.0,0.0,0.0,0.0,0.0,-1.73,0.45,0.52,0.0,-38.2,60.9
3.26,0.5,0.0,0.0,0.25,0.0,0.0,0.0,0.0,0.25,0.0,0.25,0.0,0.0,-1.17,0.58,-0.8,24.0,21.7,27.1,0.0,0.0,0.0,0.0,0.0,0.0,0.0,1.0,0.0,0.0,0.25,0.0,0.0,-1.11,0.2,0.64,1.97,11.4,-45.9
3.28,0.0,0.0,0.0,0.0,0.0,0.0,0.0,0.0,0.25,0.0,0.25,0.0,0.0,-1.8,0.7,-0.92,17.83,11.5,-56.8,0.0,0.0,0.25,0.0,2.5,0.0,0.25,0.0,0.0,0.25,0.0,0.0,0.0,-0.8,-0.48,0.77,22.36,0.0,43.9
3.3,0.0,0.0,0.0,0.25,0.0,0.0,0.0,0.0,0.25,0.0,0.0,0.0,0.25,-1.8,1.33,-0.67,14.97,5.2,-29.5,0.0,0.0,0.0,0.0,0.0,0.0,0.25,1.5,0.0,0.0,0.0,0.0,0.0,-0.61,-1.17,1.02,32.24,13.1,-33.9
3.32,0.75,0.0,0.25,0.5,0.0,0.0,0.0,0.0,0.25,0.25,0.0,0.0,0.0,-0.55,1.77,-0.23,19.1,21.4,43.5,1.0,0.0,0.0,1.0,1.0,0.0,0.25,0.5,0.5,1.75,0.25,0.0,0.0,-0.36,-1.67,1.64,60.1,-3.7,4.5
3.34,0.5,0.0,0.0,0.5,0.0,0.0,0.0,0.0,0.25,0.0,0.0,0.0,0.25,1.33,2.27,-1.36,21.61,16.6,25.5,0.0,0.0,0.75,0.0,0.0,0.0,0.0,0.0,0.0,0.0,0.0,0.0,0.0,-0.17,-1.17,1.02,51.7,-38.2,60.9
3.36,0.25,0.0,0.0,0.25,0.0,0.0,0.0,0.0,0.25,0.0,0.5,0.0,0.25,0.33,0.83,-1.23,23.32,11.7,-24.4,0.0,0.0,0.0,0.0,0.0,0.0,0.0,0.0,0.0,0.0,0.0,0.0,0.0,0.08,-0.61,0.08,41.17,0.0,0.0
3.38,0.0,0.0,0.0,0.5,0.0,0.0,0.0,0.0,0.25,0.0,0.0,0.0,0.0,-0.8,-0.17,-0.67,18.95,15.5,27.0,0.0,0.0,0.0,0.0,0.0,0.0,0.0,0.0,0.0,0.0,0.0,0.0,0.0,-0.3,-0.3,0.02,19.55,0.0,0.0
3.4,0.25,0.0,0.25,0.5,0.0,0.0,0.0,0.0,0.25,0.0,0.0,0.0,0.0,-1.11,-0.67,-0.55,19.03,23.8,47.0,0.0,0.0,0.0,0.0,0.0,0.0,0.0,0.0,0.0,0.25,0.0,0.0,0.0,-1.05,-0.23,0.2,10.05,15.7,-75.5
3.42,0.5,0.0,0.0,0.25,0.0,0.0,0.0,0.0,0.25,0.0,0.0,0.0,0.25,-1.3,-0.73,0.14,17.68,16.4,18.7,0.0,0.0,0.0,0.0,0.0,0.0,0.0,0.0,0.0,0.25,0.0,0.0,0.0,-0.98,-0.36,0.33,2.34,15.7,-75.5
3.44,1.0,0.0,0.0,0.0,0.0,0.0,0.0,0.0,0.25,0.0,0.0,0.0,0.25,-1.05,-0.73,0.27,21.34,22.3,37.2,0.0,0.0,0.5,0.0,1.75,0.0,0.25,1.5,0.0,0.0,0.25,0.0,0.0,-0.61,-0.36,0.45,24.78,1.2,15.1
3.46,1.25,0.0,0.0,0.0,0.0,0.0,0.0,0.0,0.25,0.0,0.0,0.0,0.25,-0.73,-0.61,0.08,24.55,24.1,45.7,1.25,0.0,0.75,1.0,2.5,0.0,0.0,1.5,0.5,0.0,0.25,0.0,0.5,-0.42,-0.42,0.52,70.12,-6.4,26.0
3.48,1.75,0.0,0.0,0.0,0.0,0.0,0.0,0.0,0.25,0.0,0.0,0.0,0.25,-0.73,-0.23,-0.11,30.97,26.5,57.1,0.0,0.0,0.5,0.5,0.0,0.0,0.0,0.0,0.25,1.5,0.0,0.0,0.0,-0.36,-0.61,0.52,76.04,-2.9,-21.9
3.5,0.5,0.0,0.0,0.5,0.0,0.0,0.0,0.0,0.25,0.0,0.0,0.0,0.0,-0.8,0.08,-0.42,30.05,22.9,53.7,1.0,0.0,0.5,1.0,2.25,0.0,0.0,1.5,0.0,0.75,0.25,0.0,0.5,-0.3,-0.73,0.52,102.4,-2.5,16.4
3.52,0.5,0.0,0.0,0.25,0.0,0.0,0.0,0.0,0.25,0.0,0.0,0.0,0.25,-0.98,0.33,-0.55,28.02,16.4,18.7,1.25,0.0,0.0,0.5,0.0,0.0,0.0,0.0,0.5,1.5,0.0,0.0,0.0,-0.05,-0.8,0.45,91.67,-8.7,3.3
3.54,0.25,0.0,0.0,0.5,0.0,0.0,0.0,0.0,0.25,0.0,0.0,0.0,0.25,-1.11,0.33,-0.48,23.9,13.2,12.1,0.0,0.0,0.5,0.0,2.5,0.0,0.25,1.5,0.0,0.0,0.25,0.0,0.25,0.2,-0.92,0.39,97.59,2.1,15.3
3.56,0.25,0.0,0.0,0.5,0.0,0.0,0.0,0.0,0.25,0.0,0.0,0.0,0.25,-1.17,0.2,-0.42,21.22,13.2,12.1,0.0,0.0,0.0,0.0,0.0,0.0,0.0,0.0,0.0,0.25,0.0,0.0,0.0,0.33,-1.05,0.45,64.2,15.7,-75.5
3.58,0.5,0.0,0.0,0.25,0.0,0.0,0.0,0.0,0.25,0.0,0.0,0.0,0.25,-1.17,0.02,-0.3,20.64,16.4,18.7,0.0,0.0,0.0,0.0,0.0,0.0,0.0,0.0,0.0,0.0,0.0,0.0,0.0,0.2,-1.05,0.7,46.26,0.0,0.0
3.6,0.0,0.0,0.0,0.0,0.0,0.0,0.0,0.0,0.25,0.0,0.0,0.0,0.25,-0.98,-0.17,-0.3,16.68,-1.0,-75.0,0.0,0.0,0.0,0.0,0.0,0.0,0.0,0.0,0.0,0.0,0.0,0.0,0.0,0.14,-1.05,0.77,17.81,0.0,0.0
3.62,0.75,0.0,0.0,0.0,0.0,0.0,0.0,0.0,0.25,0.0,0.0,0.0,0.25,-0.8,-0.3,-0.17,16.82,19.9,25.5,0.0,0.0,0.0,0.0,0.0,0.0,0.0,0.0,0.0,0.0,0.0,0.0,0.0,0.14,-0.98,0.64,2.06,0.0,0.0
3.64,0.25,0.0,0.0,0.25,0.0,0.0,0.0,0.0,0.25,0.0,0.25,0.0,0.0,-0.8,-0.3,-0.17,14.63,18.5,10.3,1.0,0.0,0.0,1.0,0.0,0.0,0.0,0.0,0.0,0.0,0.0,0.0,0.0,0.2,-0.86,0.45,4.36,-25.5,76.7
3.66,0.75,0.0,0.0,0.25,0.0,0.0,0.0,0.0,0.25,0.25,0.5,0.0,0.25,-0.92,-0.11,-0.36,21.36,13.5,-4.3,0.0,0.0,0.5,0.5,2.5,0.0,0.25,0.25,0.5,1.5,0.0,0.25,0.0,0.14,-0.73,0.39,35.21,-0.5,7.7
3.68,1.25,0.0,0.0,0.5,0.0,0.0,0.0,0.0,0.25,0.0,0.5,0.0,0.25,-0.92,0.02,-0.36,30.17,20.3,26.2,1.0,0.0,1.0,0.75,2.5,0.0,0.0,1.5,0.5,1.5,0.25,0.0,0.25,0.08,-0.61,0.45,79.81,-3.3,12.1
3.7,1.0,0.0,0.0,0.25,0.0,0.0,0.0,0.0,0.25,0.0,0.5,0.0,0.5,-0.92,0.08,-0.42,37.17,15.7,1.6,1.0,0.0,0.75,0.75,2.5,0.0,0.0,1.25,0.5,2.0,0.0,0.0,0.5,-0.11,-0.67,0.52,117.36,-1.3,6.6
3.72,1.0,0.0,0.0,0.25,0.0,0.0,0.0,0.0,0.25,0.0,0.5,0.0,0.25,-0.92,0.02,-0.3,39.9,19.1,14.7,1.25,0.0,1.0,1.0,2.5,0.0,0.0,1.5,0.5,1.75,0.25,0.0,0.5,-0.23,-0.67,0.52,151.37,-3.5,10.1
3.74,0.5,0.0,0.0,0.25,0.0,0.0,0.0,0.0,0.25,0.0,0.0,0.0,0.25,-0.98,-0.05,-0.3,35.71,16.4,18.7,0.0,0.0,0.0,0.0,0.0,0.0,0.0,0.0,0.0,0.25,0.0,0.0,0.0,-0.36,-0.73,0.58,115.78,15.7,-75.5
3.76,0.75,0.0,0.0,0.25,0.0,0.0,0.0,0.0,0.25,0.0,0.25,0.0,0.25,-1.05,-0.05,-0.36,32.63,18.2,16.1,1.0,0.0,0.0,0.0,0.0,0.0,0.0,0.0,0.0,1.75,0.0,0.0,0.5,-0.42,-0.8,0.58,94.32,0.5,-30.4
3.78,0.0,0.0,0.0,0.0,0.0,0.0,0.0,0.0,0.25,0.0,0.5,0.0,0.25,-0.98,0.02,-0.36,25.97,4.7,-75.2,1.25,0.0,0.75,1.25,2.25,0.0,0.25,1.5,0.25,1.75,0.0,0.0,0.5,-0.42,-0.73,0.7,102.37,-3.1,12.3
3.8,0.5,0.0,0.0,0.25,0.0,0.0,0.0,0.0,0.25,0.0,0.0,0.0,0.0,-0.92,0.08,-0.42,22.34,24.4,52.6,0.75,0.0,0.5,1.0,2.25,0.0,0.0,1.25,0.25,1.5,0.25,0.25,0.5,-0.36,-0.73,0.64,123.67,-1.1,2.9
3.82,0.0,0.0,0.0,0.25,0.0,0.0,0.0,0.0,0.25,0.0,0.0,0.0,0.25,-0.86,0.08,-0.42,17.08,5.2,-29.5,0.75,0.0,0.5,1.0,2.5,0.0,0.0,1.25,0.25,1.5,0.0,0.0,0.5,-0.3,-0.73,0.58,139.94,-0.4,10.1
3.84,0.0,0.0,0.0,0.25,0.0,0.0,0.0,0.0,0.5,0.25,0.0,0.0,0.25,-0.86,0.08,-0.42,16.7,2.4,-40.4,0.75,0.0,0.75,0.75,2.5,0.0,0.25,1.25,0.5,1.25,0.0,0.0,0.5,-0.23,-0.73,0.58,148.41,-2.3,11.4
3.86,0.0,0.0,0.0,0.25,0.0,0.0,0.0,0.0,0.25,0.0,0.0,0.0,0.25,-0.86,0.08,-0.36,12.65,5.2,-29.5,1.0,0.0,0.75,1.0,2.5,0.0,0.0,1.25,0.25,1.5,0.25,0.0,0.5,-0.23,-0.73,0.58,151.03,-2.6,11.4
3.88,0.0,0.0,0.0,0.0,0.0,0.0,0.0,0.0,0.25,0.25,0.0,0.0,0.25,-0.92,0.08,-0.36,11.25,-5.8,-75.1,1.0,0.0,0.5,1.0,2.5,0.0,0.0,1.25,0.25,2.0,0.0,0.0,0.5,-0.17,-0.73,0.64,145.82,-0.4,7.7
3.9,0.0,0.0,0.0,0.25,0.0,0.0,0.0,0.0,0.25,0.0,0.0,0.0,0.25,-0.98,0.08,-0.42,8.57,5.2,-29.5,1.25,0.0,0.5,0.75,2.5,0.0,0.0,1.0,0.25,1.75,0.25,0.0,0.5,-0.17,-0.73,0.64,143.81,-2.0,9.9
3.92,0.25,0.0,0.0,0.25,0.0,0.0,0.0,0.0,0.25,0.0,0.25,0.0,0.25,-0.98,0.14,-0.42,10.74,11.8,-14.5,1.25,0.0,0.75,1.0,1.75,0.0,0.0,1.25,0.25,1.5,0.0,0.0,0.5,-0.17,-0.73,0.64,141.55,-3.8,12.0
3.94,0.25,0.0,0.0,0.25,0.0,0.0,0.0,0.0,0.25,0.0,0.0,0.0,0.25,-0.98,0.14,-0.36,12.32,12.1,0.2,1.0,0.0,1.25,0.75,1.75,0.0,0.0,1.5,0.25,1.0,0.0,0.0,0.5,-0.11,-0.73,0.64,139.55,-5.2,14.9
3.96,0.5,0.0,0.0,0.25,0.0,0.0,0.0,0.0,0.25,0.0,0.0,0.0,0.25,-0.92,0.14,-0.36,15.94,16.4,18.7,0.75,0.0,0.75,0.75,2.25,0.0,0.25,1.25,0.25,1.5,0.25,0.0,0.5,-0.11,-0.73,0.64,139.58,-1.9,6.6
3.98,0.5,0.0,0.0,0.25,0.0,0.0,0.0,0.0,0.25,0.0,0.0,0.0,0.25,-0.92,0.08,-0.36,18.46,16.4,18.7,0.75,0.0,0.75,1.0,2.5,0.0,0.0,1.25,0.25,0.25,0.25,0.0,0.5,-0.11,-0.73,0.58,139.26,-4.5,22.6
4.0,0.75,0.0,0.0,0.25,0.0,0.0,0.0,0.0,0.25,0.0,0.0,0.0,0.25,-0.92,0.14,-0.36,21.42,19.4,31.3,1.0,0.0,0.75,1.0,2.25,0.0,0.0,1.25,0.25,1.75,0.25,0.0,0.5,-0.11,-0.73,0.64,136.5,-2.3,7.8
4.02,0.5,0.0,0.0,0.25,0.0,0.0,0.0,0.0,0.25,0.25,0.0,0.0,0.25,-0.92,0.14,-0.36,23.71,11.0,2.8,1.0,0.0,0.5,1.0,2.25,0.0,0.25,1.5,0.5,2.5,0.25,0.0,0.25,-0.11,-0.73,0.64,138.57,-0.6,1.3
4.04,0.25,0.0,0.0,0.25,0.0,0.0,0.0,0.0,0.25,0.0,0.0,0.0,0.0,-0.92,0.14,-0.36,21.32,21.1,38.4,1.25,0.0,1.0,0.75,2.25,0.0,0.25,1.5,0.25,1.75,0.25,0.0,0.5,-0.05,-0.73,0.64,146.37,-3.5,9.0
4.06,0.0,0.0,0.0,0.0,0.0,0.0,0.0,0.0,0.25,0.0,0.0,0.0,0.25,-0.92,0.14,-0.36,16.94,-1.0,-75.0,0.5,0.0,0.75,1.0,2.5,0.0,0.0,1.25,0.25,1.5,0.0,0.0,0.5,-0.05,-0.73,0.64,144.47,-0.6,9.2
4.08,1.0,0.0,0.0,0.25,0.0,0.0,0.0,0.0,0.25,0.0,0.0,0.0,0.25,-0.92,0.2,-0.36,19.36,21.5,40.4,1.25,0.0,0.5,0.75,2.5,0.0,0.0,1.25,0.25,1.25,0.0,0.0,0.5,-0.05,-0.8,0.64,140.97,-2.3,15.8
4.1,0.25,0.0,0.0,0.25,0.0,0.0,0.0,0.0,0.25,0.0,0.0,0.0,0.25,-0.98,0.2,-0.36,18.8,12.1,0.2,0.75,0.0,1.0,0.75,2.25,0.0,0.0,1.5,0.25,1.25,0.25,0.0,0.5,-0.05,-0.73,0.7,137.0,-2.5,8.9
4.12,0.25,0.0,0.0,0.5,0.0,0.0,0.0,0.0,0.25,0.0,0.0,0.0,0.25,-0.92,0.2,-0.36,20.53,13.2,12.1,0.5,0.0,0.75,1.0,2.5,0.0,0.0,1.25,0.25,1.5,0.0,0.0,0.5,-0.05,-0.73,0.7,134.67,-0.6,9.2
4.14,0.25,0.0,0.0,0.25,0.0,0.0,0.0,0.0,0.25,0.0,0.0,0.0,0.25,-0.92,0.14,-0.36,18.96,12.1,0.2,1.0,0.5,0.75,0.75,2.5,0.0,0.0,1.25,0.0,1.75,0.0,0.0,0.5,-0.05,-0.73,0.7,138.05,-1.8,16.2
4.16,0.25,0.0,0.0,0.5,0.0,0.0,0.0,0.0,0.25,0.0,0.0,0.0,0.25,-0.92,0.14,-0.36,19.48,13.2,12.1,1.25,0.0,0.75,0.75,2.5,0.0,0.0,1.25,0.25,1.75,0.25,0.0,0.5,-0.05,-0.73,0.7,142.28,-2.5,10.0
4.18,0.75,0.0,0.0,0.25,0.0,0.0,0.0,0.0,0.25,0.0,0.0,0.0,0.25,-0.92,0.2,-0.36,20.61,19.4,31.3,1.0,0.0,0.5,0.75,2.5,0.0,0.0,1.25,0.25,1.75,0.0,0.0,0.5,-0.05,-0.73,0.7,141.91,-0.4,8.5
4.2,0.5,0.0,0.0,0.5,0.0,0.0,0.0,0.0,0.25,0.0,0.0,0.0,0.25,-0.98,0.2,-0.36,22.86,16.6,25.5,1.0,0.0,0.5,1.25,2.5,0.0,0.0,1.25,0.25,1.5,0.0,0.0,0.5,-0.05,-0.73,0.7,141.4,-1.8,13.7
4.22,0.25,0.0,0.0,0.25,0.0,0.0,0.0,0.0,0.25,0.0,0.0,0.0,0.25,-0.98,0.2,-0.36,21.62,12.1,0.2,1.0,0.0,0.5,0.75,2.5,0.0,0.0,1.5,0.0,1.75,0.0,0.0,0.5,-0.05,-0.73,0.7,138.88,0.3,8.5
4.24,0.0,0.0,0.0,0.0,0.0,0.0,0.0,0.0,0.0,0.0,0.0,0.0,0.25,-0.92,0.2,-0.36,15.8,-13.7,-109.8,0.5,0.0,0.5,0.75,2.5,0.0,0.0,1.25,0.25,1.5,0.25,0.0,0.5,-0.05,-0.73,0.64,133.67,0.7,3.7
4.26,0.0,0.0,0.0,0.25,0.0,0.0,0.0,0.0,0.25,0.0,0.0,0.0,0.25,-0.92,0.2,-0.36,12.67,5.2,-29.5,1.0,0.0,0.75,0.75,2.5,0.0,0.0,1.0,0.25,1.5,0.0,0.0,0.5,-0.05,-0.73,0.64,131.63,-2.5,13.9
4.28,0.75,0.0,0.0,0.0,0.0,0.0,0.0,0.0,0.5,0.0,0.0,0.0,0.25,-0.92,0.2,-0.36,14.82,18.6,14.6,1.0,0.0,0.75,0.75,2.75,0.0,0.0,1.25,0.25,1.5,0.0,0.0,0.5,0.02,-0.73,0.64,134.3,-1.8,13.7
4.3,0.0,0.0,0.0,0.0,0.0,0.0,0.0,0.0,0.0,0.25,0.0,0.0,0.25,-0.92,0.2,-0.3,13.05,-14.6,-92.9,0.75,0.0,0.75,0.75,2.5,0.0,0.0,1.25,0.0,0.25,0.25,0.0,0.25,0.02,-0.73,0.64,128.37,-4.5,28.2
4.32,1.25,0.0,0.0,0.25,0.0,0.0,0.0,0.0,0.25,0.0,0.0,0.0,0.25,-0.92,0.2,-0.3,19.88,23.1,47.3,1.25,0.0,0.5,0.75,2.5,0.0,0.0,1.25,0.25,1.25,0.0,0.0,0.0,0.02,-0.73,0.64,126.42,-3.3,23.8
4.34,0.75,0.0,0.0,0.0,0.0,0.0,0.0,0.0,0.0,0.0,0.0,0.0,0.25,-0.92,0.2,-0.3,20.25,21.9,42.0,0.75,0.0,0.5,0.75,2.25,0.0,0.0,1.25,0.25,1.0,0.25,0.0,0.0,-0.05,-0.73,0.64,119.68,-2.4,18.1
4.36,0.5,0.0,0.0,0.0,0.0,0.0,0.0,0.0,0.25,0.0,0.0,0.0,0.25,-0.98,0.2,-0.36,20.11,16.2,8.1,1.0,0.0,0.5,0.75,2.5,0.0,0.0,1.25,0.0,1.5,0.0,0.25,0.25,0.02,-0.73,0.64,120.87,-1.2,12.6
4.38,0.5,0.0,0.0,0.0,0.0,0.0,0.0,0.0,0.25,0.25,0.0,0.0,0.25,-0.98,0.2,-0.36,18.62,9.7,-9.0,1.25,0.0,0.5,0.75,2.25,0.0,0.25,1.25,0.25,1.5,0.0,0.0,0.5,0.02,-0.73,0.64,122.91,-2.3,12.1
4.4,0.5,0.0,0.0,0.0,0.0,0.0,0.0,0.0,0.25,0.0,0.0,0.0,0.25,-0.92,0.2,-0.3,17.6,16.2,8.1,0.75,0.0,0.75,0.75,2.25,0.0,0.0,1.25,0.5,1.25,0.0,0.0,0.5,-0.05,-0.73,0.64,126.44,-2.0,9.7
4.42,0.0,0.0,0.0,0.0,0.0,0.0,0.0,0.0,0.25,0.25,0.0,0.0,0.25,-0.92,0.2,-0.3,15.52,-5.8,-75.1,1.0,0.0,0.75,0.75,2.5,0.0,0.0,1.25,0.25,1.5,0.0,0.25,0.25,0.02,-0.73,0.64,130.73,-2.6,12.5
4.44,0.75,0.0,0.0,0.0,0.0,0.0,0.0,0.0,0.25,0.0,0.0,0.0,0.25,-0.92,0.2,-0.3,16.96,19.9,25.5,0.75,0.0,0.5,1.0,2.25,0.0,0.25,1.5,0.25,1.5,0.0,0.0,0.5,0.02,-0.67,0.64,132.34,-0.5,7.5
4.46,0.25,0.0,0.0,0.0,0.0,0.0,0.0,0.0,0.0,0.0,0.0,0.0,0.25,-0.92,0.2,-0.3,14.58,9.4,-11.0,0.75,0.0,0.5,1.0,2.5,0.0,0.25,1.5,0.25,1.0,0.25,0.0,0.5,0.02,-0.67,0.64,134.47,-1.6,11.4
4.48,0.25,0.0,0.0,0.0,0.0,0.0,0.0,0.0,0.25,0.25,0.0,0.0,0.25,-0.92,0.2,-0.3,14.48,3.7,-34.2,0.75,0.0,0.5,0.75,1.75,0.0,0.25,1.25,0.25,1.25,0.0,0.0,0.5,0.08,-0.67,0.64,128.11,-1.3,6.4
4.5,0.75,0.0,0.0,0.0,0.0,0.0,0.0,0.0,0.25,0.0,0.0,0.0,0.25,-0.92,0.2,-0.3,14.94,19.9,25.5,0.5,0.0,0.75,0.75,2.25,0.0,0.0,1.25,0.25,2.0,0.0,0.0,0.5,0.08,-0.67,0.64,127.95,0.6,1.3
4.52,0.75,0.0,0.0,0.0,0.0,0.0,0.0,0.0,0.25,0.25,0.0,0.0,0.25,-0.98,0.2,-0.3,18.23,13.7,8.1,1.0,0.0,0.5,0.75,1.75,0.0,0.0,1.25,0.25,1.5,0.0,0.0,0.5,0.08,-0.67,0.64,123.6,-1.3,6.2
4.54,0.5,0.0,0.0,0.0,0.0,0.0,0.0,0.0,0.25,0.25,0.0,0.0,0.25,-0.98,0.2,-0.3,19.78,9.7,-9.0,0.5,0.0,0.5,1.0,2.25,0.0,0.0,1.25,0.25,1.5,0.0,0.0,0.5,0.08,-0.67,0.7,124.64,0.3,6.0
4.56,0.5,0.0,0.0,0.0,0.0,0.0,0.0,0.0,0.25,0.0,0.0,0.0,0.25,-0.92,0.2,-0.3,18.86,16.2,8.1,0.75,0.0,0.5,1.0,2.25,0.0,0.0,1.5,0.25,1.5,0.0,0.25,0.5,0.08,-0.73,0.7,126.58,-0.3,3.9
4.58,0.5,0.0,0.0,0.0,0.0,0.0,0.0,0.0,0.25,0.0,0.0,0.0,0.25,-0.92,0.2,-0.3,18.37,16.2,8.1,0.75,0.0,0.5,0.75,2.5,0.0,0.0,1.25,0.25,1.5,0.25,0.0,0.5,0.08,-0.73,0.7,129.77,-0.2,6.2
4.6,0.25,0.0,0.0,0.0,0.0,0.0,0.0,0.0,0.25,0.0,0.0,0.0,0.25,-0.92,0.2,-0.3,15.35,10.3,-20.2,0.75,0.0,0.5,0.75,1.75,0.0,0.25,1.25,0.0,1.5,0.0,0.0,0.5,0.08,-0.73,0.64,124.59,-0.4,5.2
4.62,0.5,0.0,0.0,0.0,0.0,0.0,0.0,0.0,0.0,0.0,0.0,0.0,0.25,-0.98,0.2,-0.3,13.41,17.6,24.0,0.75,0.0,0.5,0.75,2.5,0.0,0.0,1.25,0.0,1.25,0.0,0.0,0.25,0.08,-0.67,0.64,121.55,-0.5,16.8
4.64,0.5,0.0,0.0,0.0,0.0,0.0,0.0,0.0,0.25,0.25,0.0,0.0,0.0,-0.98,0.2,-0.3,13.68,16.0,17.9,0.75,0.0,0.75,0.75,2.25,0.0,0.0,1.25,0.25,1.5,0.0,0.0,0.5,0.08,-0.67,0.64,121.84,-1.2,8.6
4.66,0.5,0.0,0.0,0.0,0.0,0.0,0.0,0.0,0.25,0.0,0.0,0.0,0.25,-0.98,0.27,-0.3,14.4,16.2,8.1,0.75,0.0,0.5,1.0,2.5,0.0,0.0,1.25,0.25,1.5,0.0,0.0,0.5,0.08,-0.67,0.64,124.96,-0.4,10.1
4.68,0.25,0.0,0.0,0.0,0.0,0.0,0.0,0.0,0.25,0.0,0.0,0.0,0.25,-0.98,0.27,-0.3,13.43,10.3,-20.2,0.5,0.0,0.5,1.0,2.5,0.0,0.25,1.25,0.25,2.0,0.0,0.25,0.5,0.08,-0.67,0.64,131.61,0.6,0.3
4.7,0.25,0.0,0.0,0.0,0.0,0.0,0.0,0.0,0.25,0.0,0.0,0.0,0.25,-0.92,0.2,-0.3,12.76,10.3,-20.2,1.0,0.0,0.5,0.5,2.5,0.0,0.0,1.5,0.0,2.25,0.0,0.0,0.5,0.08,-0.67,0.64,136.71,1.7,2.5
4.72,0.5,0.0,0.0,0.0,0.0,0.0,0.0,0.0,0.25,0.0,0.0,0.0,0.25,-0.92,0.2,-0.3,12.6,16.2,8.1,1.25,0.0,0.5,0.75,1.75,0.0,0.0,1.25,0.25,1.25,0.0,0.0,0.5,0.02,-0.67,0.7,133.83,-2.9,11.6
4.74,0.5,0.0,0.0,0.0,0.0,0.0,0.0,0.0,0.25,0.0,0.0,0.0,0.25,-0.92,0.2,-0.3,13.18,16.2,8.1,0.75,0.0,0.5,0.75,2.25,0.0,0.0,1.0,0.0,1.25,0.0,0.0,0.5,0.02,-0.67,0.7,126.2,-0.7,12.8
4.76,0.25,0.0,0.0,0.0,0.0,0.0,0.0,0.0,0.25,0.25,0.0,0.0,0.25,-0.92,0.27,-0.3,14.27,3.7,-34.2,0.75,0.0,0.5,0.75,1.75,0.0,0.25,1.25,0.0,1.25,0.0,0.0,0.5,0.02,-0.67,0.7,118.5,-1.0,8.0
4.78,0.5,0.0,0.0,0.0,0.0,0.0,0.0,0.0,0.0,0.0,0.0,0.0,0.25,-0.92,0.27,-0.3,14.19,17.6,24.0,0.5,0.0,0.5,0.75,2.25,0.0,0.0,1.5,0.0,1.5,0.0,0.0,0.5,0.02,-0.67,0.7,115.94,1.8,4.3
4.8,0.5,0.0,0.0,0.0,0.0,0.0,0.0,0.0,0.25,0.0,0.0,0.0,0.25,-0.92,0.27,-0.3,14.91,16.2,8.1,0.5,0.0,0.5,0.75,2.5,0.0,0.0,1.0,0.0,1.5,0.0,0.0,0.5,0.02,-0.67,0.7,114.96,0.9,8.9
4.82,0.75,0.0,0.0,0.0,0.0,0.0,0.0,0.0,0.25,0.0,0.0,0.0,0.25,-0.92,0.27,-0.3,16.66,19.9,25.5,0.5,0.0,0.5,0.75,1.75,0.0,0.0,1.5,0.0,2.25,0.0,0.0,0.5,0.02,-0.67,0.7,117.58,3.0,-6.6
4.84,1.25,0.25,0.0,0.0,0.0,0.0,0.0,0.0,0.25,0.0,0.5,0.0,0.25,-0.92,0.27,-0.3,25.88,20.2,27.1,0.75,0.0,0.75,0.75,2.25,0.0,0.0,1.25,0.0,1.0,0.0,0.0,0.25,0.02,-0.67,0.64,117.33,-2.5,20.1
4.86,1.0,0.25,0.0,0.0,0.0,0.0,0.0,0.0,0.0,0.0,0.25,0.0,0.25,-0.92,0.2,-0.3,29.94,20.7,41.6,0.5,0.0,0.5,1.0,2.25,0.0,0.0,1.0,0.25,1.25,0.0,0.0,0.5,0.02,-0.67,0.64,116.52,-0.6,10.1
4.88,0.25,0.0,0.0,0.0,0.0,0.0,0.0,0.0,0.25,0.0,0.5,0.0,0.25,-0.92,0.2,-0.3,29.79,10.5,-42.1,0.5,0.0,0.5,0.5,2.25,0.0,0.0,1.25,0.0,1.25,0.0,0.25,0.5,0.02,-0.67,0.64,113.51,1.2,2.7
4.9,0.5,0.0,0.0,0.0,0.0,0.0,0.0,0.0,0.25,0.0,0.5,0.0,0.25,-0.92,0.2,-0.3,27.84,14.4,-19.6,0.75,0.0,0.5,1.0,2.25,0.0,0.0,1.25,0.25,1.5,0.0,0.0,0.5,0.02,-0.67,0.64,117.45,-0.6,8.6
4.92,0.5,0.0,0.0,0.0,0.0,0.0,0.0,0.0,0.25,0.0,0.5,0.0,0.25,-0.92,0.27,-0.3,25.92,14.4,-19.6,0.5,0.0,0.5,0.75,1.75,0.0,0.0,1.25,0.0,1.5,0.0,0.0,0.5,0.02,-0.67,0.7,114.47,1.2,1.7
4.94,0.75,0.0,0.0,0.0,0.0,0.0,0.0,0.0,0.0,0.0,0.25,0.0,0.25,-0.92,0.27,-0.3,23.47,19.6,18.3,0.5,0.0,0.5,0.75,1.75,0.0,0.25,1.25,0.0,1.25,0.0,0.0,0.5,0.02,-0.67,0.7,112.64,0.1,5.0
4.96,0.75,0.0,0.0,0.0,0.0,0.0,0.0,0.0,0.25,0.0,0.25,0.0,0.25,-0.92,0.2,-0.3,23.4,18.3,8.6,0.5,0.5,0.5,1.0,2.25,0.0,0.25,1.25,0.0,1.75,0.0,0.0,0.5,0.02,-0.67,0.7,119.05,0.0,10.7
4.98,0.75,0.0,0.0,0.0,0.0,0.0,0.0,0.0,0.0,0.0,0.25,0.0,0.25,-0.92,0.2,-0.3,22.67,19.6,18.3,0.75,0.0,0.5,0.75,2.25,0.0,0.0,1.25,0.0,1.25,0.0,0.25,0.5,0.02,-0.67,0.7,121.09,-0.4,7.3
5.0,0.75,0.0,0.0,0.0,0.0,0.0,0.0,0.0,0.25,0.0,0.25,0.0,0.25,-0.92,0.27,-0.3,22.96,18.3,8.6,0.5,0.0,0.5,1.0,2.25,0.0,0.0,1.25,0.25,1.25,0.0,0.0,0.5,0.02,-0.67,0.7,123.25,-0.1,8.6
5.02,0.5,0.0,0.0,0.0,0.0,0.0,0.0,0.0,0.25,0.0,0.25,0.0,0.25,-0.92,0.27,-0.3,21.36,15.2,-8.5,0.5,0.0,0.5,0.75,1.5,0.0,0.0,1.25,0.0,1.5,0.0,0.0,0.5,0.02,-0.67,0.7,116.75,1.1,-0.4
5.04,0.0,0.0,0.0,0.0,0.0,0.0,0.0,0.0,0.0,0.0,0.25,0.0,0.25,-0.92,0.27,-0.3,16.54,-1.8,-93.2,0.5,0.0,0.5,0.75,2.5,0.0,0.0,1.25,0.0,1.75,0.0,0.0,0.5,0.02,-0.67,0.7,118.78,1.8,4.9
5.06,0.0,0.0,0.0,0.0,0.0,0.0,0.0,0.0,0.25,0.0,0.5,0.0,0.25,-0.92,0.27,-0.3,14.49,4.7,-75.2,0.5,0.0,0.5,0.75,2.5,0.0,0.0,1.25,0.0,1.5,0.0,0.0,0.5,0.02,-0.67,0.7,118.13,1.4,7.4
5.08,0.75,0.0,0.0,0.0,0.0,0.0,0.0,0.0,0.0,0.0,0.5,0.0,0.25,-0.92,0.27,-0.3,15.47,18.1,2.5,0.5,0.0,0.5,0.75,2.25,0.0,0.0,1.0,0.0,1.5,0.0,0.0,0.5,0.02,-0.61,0.7,118.43,0.8,7.2
5.1,0.5,0.0,0.0,0.0,0.0,0.0,0.0,0.0,0.25,0.0,0.25,0.0,0.25,-0.92,0.27,-0.3,17.7,15.2,-8.5,0.75,0.0,0.5,0.75,1.75,0.0,0.0,1.25,0.0,1.5,0.0,0.0,0.5,0.02,-0.61,0.7,116.31,0.0,4.8
5.12,0.75,0.0,0.0,0.0,0.0,0.0,0.0,0.0,0.25,0.0,0.5,0.0,0.25,-0.92,0.27,-0.3,21.77,17.3,-3.4,1.0,0.0,0.5,0.75,2.5,0.0,0.0,1.25,0.0,1.5,0.0,0.0,0.5,0.02,-0.67,0.7,120.35,-0.5,12.4
5.14,0.5,0.0,0.0,0.0,0.0,0.0,0.0,0.0,0.0,0.0,0.5,0.0,0.25,-0.92,0.27,-0.3,21.65,14.9,-15.8,0.5,0.25,0.5,0.5,1.5,0.0,0.25,1.25,0.0,1.25,0.0,0.0,0.5,0.02,-0.67,0.77,114.26,0.1,4.4
5.16,0.75,0.0,0.0,0.0,0.0,0.0,0.0,0.0,0.25,0.0,0.5,0.0,0.25,-0.92,0.27,-0.3,24.03,17.3,-3.4,0.25,0.0,0.5,0.75,2.25,0.0,0.0,1.25,0.0,1.0,0.0,0.0,0.5,0.02,-0.67,0.77,112.04,1.5,8.4
5.18,0.5,0.0,0.0,0.0,0.0,0.0,0.0,0.0,0.25,0.0,0.5,0.0,0.25,-0.92,0.27,-0.3,23.68,14.4,-19.6,0.5,0.0,0.5,0.75,2.25,0.0,0.25,1.5,0.0,1.75,0.0,0.0,0.5,0.02,-0.67,0.77,113.92,1.8,2.2
5.2,0.5,0.0,0.0,0.0,0.0,0.0,0.0,0.0,0.25,0.0,0.5,0.0,0.25,-0.92,0.27,-0.3,24.2,14.4,-19.6,0.75,0.0,0.5,0.5,2.5,0.0,0.0,1.0,0.0,1.25,0.0,0.0,0.5,0.02,-0.61,0.77,113.97,0.0,12.8
5.22,0.5,0.0,0.0,0.0,0.0,0.0,0.0,0.0,0.25,0.0,0.5,0.0,0.25,-0.92,0.27,-0.3,23.85,14.4,-19.6,0.5,0.0,0.5,0.75,2.25,0.0,0.0,1.25,0.0,1.25,0.0,0.0,0.5,0.02,-0.61,0.7,115.36,0.9,8.4
5.24,0.25,0.0,0.0,0.0,0.0,0.0,0.0,0.0,0.0,0.0,0.5,0.0,0.25,-0.92,0.27,-0.3,21.41,10.1,-43.0,0.5,0.0,0.5,0.5,2.5,0.0,0.0,1.25,0.0,1.5,0.0,0.0,0.5,0.02,-0.61,0.7,116.5,2.0,5.7
5.26,0.75,0.0,0.0,0.0,0.0,0.0,0.0,0.0,0.0,0.0,0.5,0.0,0.25,-0.92,0.27,-0.3,21.82,18.1,2.5,0.5,0.0,0.5,0.75,2.5,0.0,0.0,1.0,0.0,1.5,0.25,0.0,0.5,0.02,-0.61,0.7,118.89,0.6,6.3
5.28,0.5,0.0,0.0,0.0,0.0,0.0,0.0,0.0,0.25,0.0,0.5,0.0,0.25,-0.92,0.27,-0.3,21.91,14.4,-19.6,0.5,0.0,0.5,0.75,2.5,0.0,0.0,1.0,0.0,0.5,0.0,0.0,0.5,0.02,-0.61,0.77,113.77,-1.2,21.6
5.3,0.75,0.0,0.0,0.0,0.0,0.0,0.0,0.0,0.25,0.0,0.5,0.0,0.25,-0.92,0.27,-0.3,23.75,17.3,-3.4,0.0,0.0,0.5,0.75,2.25,0.0,0.0,1.0,0.0,1.25,0.0,0.25,0.5,0.02,-0.61,0.77,111.01,2.4,-0.1
5.32,0.75,0.0,0.0,0.0,0.0,0.0,0.0,0.0,0.5,0.0,0.5,0.0,0.25,-0.92,0.27,-0.3,26.47,16.6,-7.9,0.5,0.0,0.5,0.75,2.25,0.0,0.0,1.25,0.0,1.5,0.0,0.0,0.5,0.02,-0.61,0.77,111.73,1.3,5.7
5.34,0.75,0.0,0.0,0.0,0.0,0.0,0.0,0.0,0.25,0.0,0.5,0.0,0.25,-0.92,0.27,-0.3,28.16,17.3,-3.4,0.5,0.0,0.75,1.0,2.25,0.0,0.0,1.25,0.0,1.0,0.0,0.0,0.5,0.02,-0.61,0.77,113.84,-1.5,14.6
5.36,0.75,0.0,0.0,0.0,0.0,0.0,0.0,0.0,0.25,0.0,0.5,0.0,0.25,-0.92,0.27,-0.3,28.41,17.3,-3.4,0.5,0.0,0.5,0.75,2.5,0.0,0.25,1.25,0.0,2.25,0.0,0.0,0.5,0.02,-0.61,0.77,121.22,2.2,0.6
5.38,0.5,0.0,0.0,0.0,0.0,0.0,0.0,0.0,0.0,0.0,0.5,0.0,0.25,-0.92,0.27,-0.3,25.65,14.9,-15.8,0.5,0.0,0.5,0.75,2.5,0.0,0.0,1.25,0.0,1.5,0.0,0.0,0.5,0.02,-0.61,0.77,124.97,1.4,7.4
5.4,0.75,0.0,0.0,0.0,0.0,0.0,0.0,0.0,0.0,0.0,0.5,0.0,0.25,-0.92,0.27,-0.3,24.16,18.1,2.5,0.5,0.0,0.5,0.75,2.5,0.0,0.0,1.25,0.25,1.25,0.0,0.0,0.5,0.02,-0.61,0.77,125.83,0.5,8.6
5.42,1.0,0.0,0.0,0.0,0.0,0.0,0.0,0.0,0.0,0.25,0.5,0.0,0.25,-0.92,0.27,-0.3,25.94,15.8,3.9,0.5,0.0,0.75,0.75,2.5,0.0,0.25,1.0,0.0,1.5,0.0,0.0,0.5,0.02,-0.61,0.77,124.84,-0.7,10.8
5.44,0.75,0.0,0.0,0.0,0.0,0.0,0.0,0.0,0.0,0.0,0.5,0.0,0.25,-0.92,0.27,-0.3,25.9,18.1,2.5,0.5,0.0,0.5,0.75,2.25,0.0,0.0,1.25,0.0,2.0,0.0,0.0,0.5,0.02,-0.61,0.77,125.47,2.2,0.7
5.46,0.75,0.0,0.0,0.0,0.0,0.0,0.0,0.0,0.0,0.25,0.5,0.0,0.25,-0.92,0.27,-0.3,26.95,13.1,-8.9,0.75,0.0,0.5,0.75,2.25,0.0,0.0,0.75,0.0,1.5,0.0,0.0,0.5,0.02,-0.61,0.77,122.2,-0.8,11.6
5.48,0.75,0.0,0.0,0.0,0.0,0.0,0.0,0.0,0.25,0.0,0.5,0.0,0.25,-0.92,0.27,-0.3,27.16,17.3,-3.4,0.5,0.0,0.5,0.75,1.5,0.0,0.0,1.25,0.0,2.0,0.0,0.0,0.5,0.08,-0.61,0.77,117.9,2.1,-5.5
5.5,1.0,0.0,0.0,0.0,0.0,0.0,0.0,0.0,0.25,0.0,0.5,0.0,0.25,-0.92,0.27,-0.3,28.56,19.4,8.8,0.5,0.0,0.5,0.75,2.25,0.0,0.0,1.25,0.0,1.5,0.0,0.0,0.5,0.08,-0.61,0.77,116.52,1.3,5.7
5.52,0.5,0.0,0.0,0.0,0.0,0.0,0.0,0.0,0.25,0.0,0.5,0.0,0.25,-0.92,0.27,-0.3,26.73,14.4,-19.6,0.5,0.0,0.5,0.5,2.5,0.0,0.0,1.25,0.0,1.25,0.0,0.0,0.5,0.08,-0.61,0.77,115.33,1.6,8.4
5.54,0.75,0.0,0.0,0.0,0.0,0.0,0.0,0.0,0.0,0.0,0.5,0.0,0.25,-0.92,0.27,-0.3,25.6,18.1,2.5,0.5,0.0,0.5,0.75,2.5,0.0,0.0,1.25,0.0,1.25,0.0,0.0,0.5,0.02,-0.61,0.77,115.86,0.9,10.1
5.56,0.75,0.0,0.0,0.0,0.0,0.0,0.0,0.0,0.0,0.0,0.5,0.0,0.25,-0.92,0.27,-0.3,23.99,18.1,2.5,0.75,0.0,0.5,0.75,1.75,0.0,0.0,1.25,0.0,1.25,0.0,0.0,0.5,0.02,-0.61,0.77,112.78,-0.4,7.7
5.58,0.75,0.0,0.0,0.0,0.0,0.0,0.0,0.0,0.25,0.0,0.5,0.0,0.25,-0.92,0.27,-0.3,24.76,17.3,-3.4,0.5,0.0,0.5,0.5,1.75,0.0,0.0,1.25,0.0,1.25,0.0,0.0,0.5,0.02,-0.61,0.7,107.82,1.4,2.5
5.6,0.75,0.0,0.0,0.0,0.0,0.0,0.0,0.0,0.0,0.0,0.25,0.0,0.25,-0.92,0.27,-0.3,23.08,19.6,18.3,0.5,0.0,1.25,0.75,2.25,0.0,0.0,1.25,0.0,1.25,0.25,0.0,0.5,0.02,-0.61,0.7,112.32,-3.0,10.8
5.62,0.75,0.0,0.0,0.0,0.0,0.0,0.0,0.0,0.25,0.0,0.5,0.0,0.25,-0.92,0.27,-0.3,24.53,17.3,-3.4,0.75,0.0,0.5,0.75,1.5,0.0,0.25,1.25,0.0,1.0,0.0,0.0,0.5,0.02,-0.61,0.77,109.6,-1.8,9.2
5.64,0.75,0.0,0.0,0.0,0.0,0.0,0.0,0.0,0.0,0.0,0.5,0.0,0.25,-0.92,0.27,-0.3,23.52,18.1,2.5,0.5,0.0,0.75,1.0,2.25,0.0,0.0,1.0,0.0,1.5,0.0,0.0,0.5,0.02,-0.61,0.77,114.54,-1.0,10.6
5.66,0.75,0.0,0.0,0.0,0.0,0.0,0.0,0.0,0.25,0.0,0.5,0.0,0.25,-0.92,0.27,-0.3,24.64,17.3,-3.4,0.5,0.0,0.5,0.5,1.75,0.0,0.0,1.0,0.0,2.25,0.0,0.0,0.5,0.02,-0.61,0.77,112.6,2.8,-6.7
5.68,0.75,0.0,0.0,0.0,0.0,0.0,0.0,0.0,0.0,0.0,0.5,0.0,0.25,-0.92,0.27,-0.3,24.3,18.1,2.5,0.25,0.0,0.5,0.75,1.75,0.0,0.0,1.25,0.0,1.5,0.0,0.0,0.5,0.02,-0.61,0.77,111.1,2.4,-1.4
5.7,0.75,0.0,0.0,0.0,0.0,0.0,0.0,0.0,0.0,0.0,0.5,0.0,0.25,-0.92,0.27,-0.3,24.04,18.1,2.5,0.75,0.0,0.5,0.75,2.25,0.0,0.0,1.0,0.25,1.5,0.0,0.0,0.5,0.02,-0.61,0.77,112.84,-0.6,8.4
5.72,0.75,0.0,0.0,0.0,0.0,0.0,0.0,0.0,0.25,0.0,0.5,0.0,0.25,-0.92,0.27,-0.3,24.6,17.3,-3.4,0.5,0.0,0.5,0.75,1.5,0.0,0.0,1.0,0.0,2.25,0.0,0.0,0.5,0.02,-0.61,0.77,112.29,2.1,-6.8
5.74,0.75,0.0,0.0,0.0,0.0,0.0,0.0,0.0,0.0,0.0,0.25,0.0,0.25,-0.92,0.27,-0.3,23.12,19.6,18.3,0.25,0.0,0.5,0.75,2.25,0.0,0.25,1.0,0.0,1.5,0.0,0.0,0.5,0.02,-0.61,0.77,112.57,1.4,4.6
5.76,0.75,0.0,0.0,0.0,0.0,0.0,0.0,0.0,0.25,0.0,0.75,0.0,0.25,-0.92,0.27,-0.3,25.82,16.4,-12.4,1.0,0.0,0.5,0.75,2.25,0.0,0.0,1.25,0.0,1.5,0.0,0.0,0.5,0.02,-0.61,0.77,116.52,-0.7,11.0
5.78,0.75,0.0,0.0,0.0,0.0,0.0,0.0,0.0,0.25,0.0,0.5,0.0,0.25,-0.92,0.27,-0.3,26.35,17.3,-3.4,0.5,0.0,0.5,0.75,2.5,0.0,0.0,1.25,0.0,1.25,0.0,0.0,0.5,0.02,-0.61,0.77,118.93,0.9,10.1
5.8,0.75,0.0,0.0,0.0,0.0,0.0,0.0,0.0,0.25,0.0,0.5,0.0,0.25,-0.92,0.27,-0.3,27.56,17.3,-3.4,0.5,0.0,0.5,0.75,2.5,0.0,0.0,1.25,0.0,1.5,0.25,0.0,0.5,0.02,-0.61,0.77,122.63,1.0,5.0
5.82,0.75,0.0,0.0,0.0,0.0,0.0,0.0,0.0,0.0,0.0,0.5,0.0,0.25,-0.92,0.27,-0.3,26.18,18.1,2.5,0.25,0.0,0.5,0.5,2.25,0.0,0.0,1.5,0.0,1.5,0.0,0.0,0.5,0.02,-0.61,0.77,120.4,3.7,-0.5
5.84,0.75,0.0,0.0,0.0,0.0,0.0,0.0,0.0,0.0,0.0,0.5,0.0,0.25,-0.92,0.27,-0.3,25.44,18.1,2.5,0.0,0.0,0.5,0.75,2.5,0.0,0.0,1.0,0.0,1.25,0.0,0.0,0.5,0.02,-0.61,0.77,115.93,2.8,6.0
5.86,0.75,0.0,0.0,0.0,0.0,0.0,0.0,0.0,0.25,0.0,0.5,0.0,0.25,-0.92,0.27,-0.3,25.1,17.3,-3.4,0.5,0.0,0.5,1.0,2.25,0.0,0.0,1.0,0.0,1.5,0.0,0.0,0.5,0.02,-0.61,0.77,115.68,0.2,8.9
5.88,0.75,0.0,0.0,0.0,0.0,0.0,0.0,0.0,0.0,0.0,0.5,0.0,0.25,-0.92,0.27,-0.3,24.57,18.1,2.5,0.5,0.0,0.5,0.75,2.25,0.0,0.0,1.0,0.0,1.5,0.0,0.25,0.5,0.02,-0.61,0.77,115.19,0.5,3.4
5.9,0.75,0.0,0.0,0.0,0.0,0.0,0.0,0.0,0.0,0.0,0.5,0.0,0.25,-0.92,0.27,-0.3,24.19,18.1,2.5,1.0,0.0,0.5,1.0,2.25,0.0,0.0,1.0,0.0,1.5,0.0,0.0,0.5,0.02,-0.61,0.77,119.98,-1.7,14.0
5.92,0.75,0.0,0.0,0.0,0.0,0.0,0.0,0.0,0.0,0.0,0.5,0.0,0.25,-0.92,0.27,-0.3,23.72,18.1,2.5,0.25,0.0,0.5,0.75,2.25,0.0,0.0,1.0,0.0,1.25,0.0,0.0,0.5,0.02,-0.61,0.77,116.8,1.5,7.1
