time,left pressure 0[N/cm²],left pressure 1[N/cm²],left pressure 2[N/cm²],left pressure 3[N/cm²],left pressure 4[N/cm²],left pressure 5[N/cm²],left pressure 6[N/cm²],left pressure 7[N/cm²],left pressure 8[N/cm²],left pressure 9[N/cm²],left pressure 10[N/cm²],left pressure 11[N/cm²],left pressure 12[N/cm²],left acceleration X[g],left acceleration Y[g],left acceleration Z[g],left total force[N],left center of pressure X[mm],left center of pressure Y[mm],right pressure 0[N/cm²],right pressure 1[N/cm²],right pressure 2[N/cm²],right pressure 3[N/cm²],right pressure 4[N/cm²],right pressure 5[N/cm²],right pressure 6[N/cm²],right pressure 7[N/cm²],right pressure 8[N/cm²],right pressure 9[N/cm²],right pressure 10[N/cm²],right pressure 11[N/cm²],right pressure 12[N/cm²],right acceleration X[g],right acceleration Y[g],right acceleration Z[g],right total force[N],right center of pressure X[mm],right center of pressure Y[mm]
0.02,1.5,0.75,2.25,8.25,5.5,3.0,1.25,5.0,2.5,2.75,3.75,2.0,1.5,-0.11,0.08,0.95,548.59,4.1,3.7,0.0,0.75,0.0,1.25,2.75,0.5,0.25,1.0,0.25,2.5,2.0,4.0,4.5,0.7,-1.48,1.58,196.9,2.2,-48.9
0.04,1.5,1.25,2.25,8.5,6.25,3.25,1.5,4.5,2.5,2.0,3.0,1.0,1.25,-0.11,0.08,0.95,555.33,4.6,13.8,0.0,0.5,0.5,0.0,2.5,0.0,0.25,1.25,0.25,5.5,3.75,4.5,5.75,-0.86,1.08,2.33,266.07,3.4,-65.7
0.06,1.75,1.5,2.25,9.5,7.0,3.5,1.5,4.5,2.0,1.25,2.5,1.0,1.25,-0.11,0.08,0.95,568.19,5.0,20.4,0.0,0.25,0.0,0.0,0.0,1.75,0.0,3.25,0.5,6.25,4.75,5.5,5.75,0.27,0.2,1.08,341.39,5.8,-76.5
0.08,2.5,1.75,3.0,10.0,7.25,3.5,1.75,4.25,2.0,1.25,2.0,1.0,1.0,-0.11,0.08,0.95,589.46,6.6,25.9,0.5,0.75,0.5,1.25,2.75,0.5,0.0,4.25,1.0,7.75,5.5,5.25,6.5,0.02,0.2,1.02,445.78,3.2,-56.3
0.1,2.75,1.75,3.5,11.0,8.0,3.5,1.75,4.0,1.5,1.25,2.25,1.0,0.5,-0.11,0.08,0.95,621.17,7.5,30.2,0.0,0.75,0.5,1.25,2.5,3.25,0.25,4.0,1.0,7.75,6.75,5.25,6.5,0.14,0.08,0.95,550.23,4.4,-53.5
0.12,2.75,1.75,4.0,11.5,8.0,3.75,1.75,3.5,1.5,1.25,2.0,1.0,1.0,-0.11,0.08,0.95,653.33,7.8,30.7,0.0,0.75,0.5,1.25,2.5,3.25,0.25,4.75,1.0,7.75,6.75,5.25,6.75,0.14,0.08,0.95,631.56,4.6,-53.6
0.14,2.25,1.75,4.75,12.0,8.25,4.0,2.0,3.25,0.75,1.25,2.0,1.0,0.5,-0.11,0.08,0.95,681.39,8.3,34.1,0.0,0.75,0.5,1.25,4.25,3.25,0.25,5.25,1.0,8.0,7.25,5.25,7.25,0.14,0.08,0.95,701.2,4.7,-49.6
0.16,2.75,2.0,5.5,12.5,8.5,4.0,2.0,2.25,0.5,1.25,1.5,1.0,1.0,-0.11,0.14,0.95,708.33,9.4,37.5,0.0,0.75,0.5,1.25,4.25,3.25,0.25,5.5,1.25,8.0,7.25,5.5,7.0,0.14,0.08,0.95,749.75,4.6,-49.4
0.18,2.75,2.0,5.5,13.0,8.75,4.0,2.0,2.25,0.5,1.0,0.5,1.0,0.5,-0.11,0.14,0.95,719.9,9.8,42.7,0.0,0.75,0.5,1.25,3.75,3.5,0.5,5.5,1.5,8.25,7.5,5.5,7.25,0.08,0.08,0.95,779.0,4.5,-50.6
0.2,4.5,2.75,5.5,13.5,9.0,4.0,2.0,2.75,0.5,1.0,0.75,1.0,0.75,-0.17,0.14,1.02,755.75,10.3,43.4,0.75,0.75,0.5,1.25,3.75,3.5,0.25,5.75,1.5,8.0,7.5,5.5,7.25,0.14,0.08,0.95,791.47,4.0,-48.4
0.22,4.5,3.25,6.0,14.5,9.5,4.0,2.0,2.25,0.25,1.25,1.5,1.0,0.25,-0.17,0.14,1.02,802.59,10.9,45.0,0.25,0.75,1.5,1.25,4.5,4.5,0.5,6.25,1.5,8.25,7.25,5.25,6.75,0.14,0.08,0.95,800.69,4.0,-42.8
0.24,4.5,3.25,6.5,14.5,9.5,3.5,1.75,1.75,0.25,1.0,1.25,0.5,0.25,-0.17,0.14,1.08,833.27,11.9,49.0,0.0,0.75,0.75,1.5,4.75,4.5,0.5,6.25,1.5,8.25,6.75,5.25,6.5,0.14,0.08,0.95,786.06,4.8,-43.4
0.26,0.0,2.5,6.0,13.0,8.5,2.75,1.25,0.5,0.0,0.5,0.75,0.75,0.5,-0.17,0.2,1.08,764.63,10.9,46.9,0.25,0.75,0.75,2.5,5.25,5.0,0.5,6.25,1.5,8.0,7.0,5.0,6.25,0.14,0.08,0.95,772.42,4.2,-38.0
0.28,6.5,3.25,5.0,14.5,7.75,2.25,3.0,1.25,0.0,0.75,1.25,0.75,0.5,-0.23,0.2,1.08,753.87,14.1,50.8,0.0,0.75,0.75,2.5,5.25,5.5,0.75,6.25,2.0,7.75,6.75,4.5,6.0,0.14,0.08,0.95,754.67,4.4,-36.3
0.3,6.5,3.5,7.25,13.5,8.25,1.25,0.75,0.75,0.25,1.0,0.75,1.0,0.25,-0.23,0.27,1.2,734.44,15.7,53.5,0.5,0.75,1.25,3.25,6.25,5.5,0.75,6.25,2.25,7.5,6.0,4.0,5.75,0.14,0.08,0.95,742.6,3.4,-28.7
0.32,6.5,3.25,7.25,12.5,8.0,0.75,0.0,0.5,0.5,1.25,0.75,1.0,0.25,-0.3,0.33,1.27,727.48,16.0,52.8,0.75,0.75,1.75,4.0,6.5,5.75,0.75,6.25,2.25,6.75,6.0,3.25,5.0,0.14,0.08,0.95,728.6,2.4,-21.9
0.34,7.25,2.5,6.5,11.0,0.0,0.0,0.0,1.75,0.5,1.0,1.0,1.0,0.25,-0.42,0.33,1.45,636.68,21.2,49.0,0.75,0.75,2.25,4.0,6.5,6.0,1.0,6.25,2.25,6.5,5.25,2.75,4.25,0.14,0.08,0.95,717.07,2.1,-17.3
0.36,6.75,1.75,5.0,8.5,0.0,0.0,0.0,1.5,0.5,0.75,1.0,1.0,0.0,-0.67,0.58,1.7,520.78,21.6,48.7,1.0,0.75,3.0,4.75,7.5,6.0,1.25,5.75,2.25,5.75,5.25,2.25,3.5,0.14,0.08,0.95,714.11,0.5,-9.1
0.38,5.5,0.5,2.25,6.25,0.0,0.0,0.0,0.0,0.25,0.75,1.5,0.75,0.25,-0.98,0.89,2.14,367.12,22.1,43.8,1.0,1.25,3.5,5.75,8.0,6.5,1.5,5.5,2.0,4.75,4.25,1.25,3.0,0.14,0.08,0.95,711.87,-0.2,1.5
0.4,2.75,0.5,1.25,0.0,0.0,0.0,0.0,0.0,0.0,1.5,1.0,0.75,0.25,-0.3,0.83,2.64,232.43,17.2,10.7,1.0,1.5,3.25,6.75,8.25,6.5,1.75,5.5,1.75,3.5,4.0,1.25,2.5,0.14,0.08,0.95,712.48,-1.0,7.2
0.42,1.75,0.0,0.0,3.25,0.0,0.0,0.0,0.0,0.5,0.5,1.0,0.0,0.25,-0.17,0.45,2.39,121.04,16.6,27.4,1.25,1.75,3.75,7.75,8.75,6.75,2.0,5.0,1.5,3.5,3.25,1.25,1.75,0.14,0.08,0.95,719.63,-2.1,14.3
0.44,0.5,0.0,0.5,1.25,0.0,0.0,0.0,0.0,0.5,0.25,0.0,0.0,0.0,-0.73,0.08,2.02,12.64,19.9,37.8,1.5,1.75,4.5,8.5,9.0,6.75,1.5,4.25,1.5,3.25,3.25,1.0,1.75,0.14,0.08,0.95,732.68,-3.2,18.2
0.46,0.0,0.25,0.0,1.75,0.0,0.0,0.25,0.0,0.5,0.5,2.0,0.0,0.0,-1.05,-0.61,1.58,0.0,11.2,-13.2,1.75,2.5,5.5,9.5,9.25,6.75,2.0,4.25,1.5,2.25,2.5,0.75,1.75,0.14,0.08,0.95,759.28,-4.8,25.5
0.48,0.0,0.25,0.0,1.5,0.0,0.0,0.25,0.0,0.5,0.25,0.75,0.0,0.0,-0.67,-0.23,0.52,0.0,12.8,7.9,2.0,2.5,6.0,11.0,10.5,7.25,2.25,3.75,1.25,2.0,2.0,0.75,1.75,0.14,0.08,0.95,806.24,-5.4,30.2
0.5,0.0,0.5,0.5,1.25,0.0,0.0,0.5,0.0,0.5,0.25,0.0,0.0,0.25,-0.67,-0.98,-0.11,0.0,15.3,27.5,2.75,2.5,6.0,11.5,11.0,7.25,2.5,3.25,1.0,2.0,2.0,0.5,1.5,0.14,0.08,0.95,853.24,-6.1,33.9
0.52,0.0,0.5,0.0,1.25,0.0,0.0,0.25,0.0,0.5,0.5,0.75,0.0,0.0,-0.61,-0.3,0.83,0.0,10.6,5.0,3.5,2.5,7.25,11.5,11.0,7.25,2.75,3.0,1.0,2.0,2.0,0.5,1.25,0.14,0.08,0.95,903.11,-7.5,36.2
0.54,0.75,0.5,0.5,1.5,0.0,0.0,0.25,0.0,0.5,0.5,0.75,0.0,0.25,-0.48,-0.36,0.39,0.0,15.5,19.5,3.75,3.0,7.25,13.0,12.0,7.25,2.5,2.0,1.0,1.75,1.75,0.5,1.0,0.14,0.08,0.95,951.51,-8.2,40.9
0.56,0.25,0.5,0.5,1.25,0.0,0.0,0.5,0.0,0.5,0.5,0.0,0.0,0.25,-0.48,-0.23,0.58,0.0,14.5,25.2,5.0,3.0,8.0,13.5,12.0,7.25,2.5,1.5,1.0,1.5,1.5,0.25,1.0,0.14,0.14,0.95,999.32,-9.6,44.8
0.58,0.25,0.5,0.25,1.25,0.0,0.0,0.25,0.0,0.5,0.75,0.0,0.0,0.0,-0.55,-0.3,0.7,7.64,12.2,25.2,5.5,3.0,8.0,14.5,12.5,7.25,2.5,1.0,0.75,0.25,1.5,0.0,0.75,0.08,0.14,0.95,1032.89,-10.6,50.5
0.6,0.5,0.5,0.75,2.0,0.0,0.0,1.5,0.0,1.75,1.75,0.0,0.75,0.25,-0.48,-0.17,0.83,54.93,11.9,-2.6,5.25,2.25,8.25,13.0,12.5,5.5,2.25,1.25,0.25,0.0,0.75,0.0,0.5,0.08,0.14,1.02,1008.55,-11.5,53.5
0.62,1.5,0.5,0.75,2.75,0.0,0.0,3.75,0.0,3.25,0.75,0.0,0.75,0.0,-0.36,0.08,0.89,113.24,18.7,15.6,6.5,2.75,8.0,14.5,11.0,6.5,1.25,0.0,0.25,0.0,0.0,0.0,0.0,0.08,0.14,1.02,974.17,-12.7,60.6
0.64,0.0,0.5,0.5,1.25,0.0,0.0,0.25,0.0,0.5,0.5,0.0,1.0,0.0,-0.23,0.14,1.08,121.12,13.4,-1.0,6.75,2.75,8.25,13.0,11.0,5.5,1.0,0.0,0.25,0.0,0.0,0.0,0.0,0.14,0.2,1.02,918.35,-13.4,61.4
0.66,0.75,0.0,1.25,0.0,0.0,0.0,2.75,0.0,3.25,0.75,1.0,1.0,0.5,-0.17,0.2,1.33,136.5,16.0,-24.2,7.0,2.5,8.0,12.5,11.0,4.5,0.75,0.0,0.25,0.75,0.0,0.0,0.0,0.08,0.27,1.08,867.78,-13.6,59.9
0.68,0.75,0.5,0.5,1.5,0.0,0.0,1.5,0.0,1.25,1.25,0.0,0.25,0.25,-0.17,0.33,1.45,130.32,13.5,9.1,8.0,3.25,8.25,13.0,11.0,3.25,1.0,0.75,0.25,0.75,0.75,0.0,0.0,0.14,0.27,1.14,849.7,-14.5,58.3
0.7,0.0,0.0,1.0,2.25,0.0,0.0,4.5,0.0,1.75,1.75,0.0,0.75,0.0,-0.23,0.45,1.52,139.23,15.3,-2.2,8.0,3.0,7.5,13.0,9.5,1.0,0.75,0.75,0.25,0.25,0.75,0.0,0.0,0.08,0.33,1.2,804.77,-16.8,60.9
0.72,0.25,0.5,0.75,1.25,0.0,0.0,1.75,0.0,1.0,1.75,0.25,0.75,0.25,-0.3,0.45,1.77,133.73,11.0,-10.3,7.25,2.5,5.75,11.0,8.25,0.5,1.0,1.0,0.25,0.25,1.0,0.0,0.0,0.27,0.39,1.33,721.93,-16.6,59.0
0.74,0.25,0.5,0.0,1.25,0.0,0.0,4.75,0.0,0.25,0.25,1.25,0.25,0.25,-0.42,0.52,1.95,130.11,18.5,5.6,5.25,0.5,3.25,5.75,6.5,0.0,0.5,0.25,0.25,0.25,1.5,0.0,0.0,0.58,0.64,1.89,544.13,-16.2,54.3
0.76,0.0,0.5,0.5,1.25,0.0,0.0,0.5,0.0,0.5,0.5,0.5,0.5,0.5,-0.42,0.77,2.52,110.03,11.2,-7.8,3.75,0.75,0.5,4.0,4.5,0.5,0.5,0.5,0.25,0.25,1.25,0.0,0.0,0.58,1.14,2.45,366.18,-12.1,50.0
0.78,0.75,0.5,0.5,1.25,0.0,0.0,0.25,0.0,0.25,0.5,0.75,0.75,0.25,-0.11,1.14,2.33,96.3,14.7,3.1,2.0,0.75,0.5,3.25,3.5,0.5,0.5,0.25,0.25,0.5,1.0,0.0,0.0,0.14,0.58,2.14,239.17,-10.4,44.9
0.8,0.5,0.0,0.25,1.25,0.0,0.0,0.0,0.0,0.25,0.5,0.75,0.5,0.0,0.58,1.95,2.39,78.46,14.0,-4.8,1.0,0.75,0.5,2.75,2.5,0.5,0.5,0.0,0.25,0.25,1.25,0.0,0.0,0.14,0.33,1.77,140.17,-10.6,40.7
0.82,0.25,0.5,0.5,1.25,0.0,0.0,0.0,0.0,0.25,0.5,0.75,0.0,0.0,1.33,2.45,1.77,66.16,14.8,19.5,0.5,0.75,0.5,1.5,3.5,0.5,0.25,0.5,0.25,0.25,0.75,0.0,0.0,0.7,0.08,1.7,72.56,-5.2,39.0
0.84,0.25,0.25,0.5,1.25,0.0,0.0,0.25,0.0,0.0,0.5,0.0,0.0,0.25,2.02,3.64,0.52,50.61,14.4,29.0,0.0,0.0,0.5,0.0,3.0,0.0,0.5,0.0,0.25,0.0,1.0,0.0,0.0,0.89,-0.42,1.45,15.44,-5.4,25.9
0.86,1.0,0.5,0.5,1.25,0.0,0.0,0.25,0.0,0.25,0.5,0.0,0.25,0.25,2.2,4.64,0.33,52.8,17.0,32.2,0.0,0.0,0.0,0.0,0.25,0.0,0.0,0.0,0.25,0.0,0.75,0.0,0.0,0.77,-0.73,0.64,0.0,-7.8,-38.6
0.88,0.0,0.5,0.5,1.25,0.0,0.0,0.25,0.0,0.25,0.5,0.25,0.5,0.25,2.08,1.89,2.64,56.01,12.2,3.1,0.0,0.0,0.0,0.0,0.25,0.0,0.0,0.0,0.25,0.0,0.0,0.0,0.0,0.64,-1.05,0.89,0.0,-3.8,11.1
0.9,0.0,0.0,0.5,1.25,0.0,0.0,0.25,0.0,0.25,1.25,0.75,0.0,0.25,-0.8,0.02,0.95,55.41,7.6,-17.2,0.0,0.0,0.0,0.0,0.5,0.0,0.0,0.0,0.25,0.0,0.0,0.0,0.0,0.33,-0.23,0.83,0.0,-1.3,25.9
0.92,0.0,0.5,0.5,1.25,0.0,0.0,0.0,0.0,0.0,1.25,0.0,1.0,1.5,-1.05,-0.23,2.02,66.6,2.7,-35.0,0.0,0.75,0.5,1.25,1.25,0.5,0.0,0.0,0.25,0.25,0.0,0.0,0.0,0.14,-0.3,0.45,0.0,-7.0,49.6
0.94,0.75,0.5,0.5,0.0,0.0,0.0,0.0,0.25,0.5,3.0,0.0,3.0,3.75,0.2,0.14,0.83,112.66,-1.7,-69.5,0.0,0.75,0.75,1.25,3.5,0.75,0.25,0.0,0.25,0.25,0.0,0.0,0.5,0.33,-0.17,0.52,0.0,-3.2,41.0
0.96,0.0,0.0,0.0,1.25,0.0,0.0,0.0,0.0,0.5,5.75,0.0,5.0,0.0,0.08,0.52,1.77,156.72,-1.4,-73.7,0.0,0.75,1.0,1.25,2.5,0.75,0.25,0.0,0.25,0.25,1.0,0.0,0.0,0.45,-0.11,0.64,40.76,-7.1,35.6
0.98,0.0,0.5,0.0,1.0,0.0,0.0,0.5,2.75,0.5,5.75,5.25,5.0,5.5,0.02,0.27,1.08,254.67,-2.8,-75.2,0.0,0.75,0.5,1.25,3.0,0.5,0.25,0.0,0.25,0.25,0.75,0.0,0.0,0.52,-0.05,0.77,90.25,-5.1,38.7
1.0,0.0,0.0,0.0,1.25,0.0,0.0,0.25,4.0,0.0,5.75,5.0,5.0,6.0,-0.05,0.08,1.02,331.04,-4.3,-77.3,0.0,0.75,0.5,1.25,3.0,0.75,0.25,0.0,0.25,0.25,1.0,0.0,0.75,0.45,0.14,0.89,118.76,-2.9,23.0
1.02,0.0,0.5,0.0,1.25,0.0,0.75,0.5,4.25,0.75,5.75,0.0,4.75,6.0,-0.17,0.08,0.95,386.22,-7.1,-68.3,0.0,0.75,1.0,1.25,3.0,0.75,0.0,0.0,0.25,0.25,0.75,0.0,0.25,0.39,0.27,1.02,133.46,-5.4,35.7
1.04,0.0,0.25,0.0,2.0,0.0,0.75,0.5,4.75,0.5,5.75,5.25,5.0,6.0,-0.17,0.08,0.95,443.07,-3.8,-67.7,0.0,0.75,0.5,1.25,3.0,0.75,0.25,0.0,0.25,0.25,0.75,0.0,0.25,0.39,0.39,1.2,141.32,-3.7,34.0
1.06,0.0,0.5,0.0,1.75,0.0,1.0,0.75,5.0,1.5,6.0,5.75,5.0,6.0,-0.17,0.08,0.95,493.54,-3.4,-65.4,0.0,0.75,0.5,1.25,3.0,0.75,0.25,0.0,0.25,0.25,1.0,0.0,0.25,0.33,0.52,1.39,147.84,-3.9,31.0
1.08,1.0,0.25,0.0,3.0,0.0,0.5,0.5,5.25,1.5,6.25,6.25,5.0,6.0,-0.17,0.08,0.95,541.68,-1.6,-59.4,0.0,0.75,1.25,1.25,3.25,0.5,0.25,0.25,0.25,0.25,1.0,0.0,0.25,0.39,0.7,1.39,158.82,-6.6,32.1
1.1,0.0,0.5,0.5,3.0,1.5,0.75,0.0,5.5,1.75,6.25,6.25,5.0,6.0,-0.11,0.08,0.95,582.51,-2.3,-55.0,0.0,0.75,0.5,1.25,2.75,0.75,0.25,0.0,0.25,0.25,1.25,0.0,0.25,0.45,0.77,1.52,158.7,-4.4,27.2
1.12,1.0,0.5,0.75,3.25,2.0,2.0,0.5,5.5,2.5,6.0,5.75,4.75,5.75,-0.11,0.08,0.95,624.14,-1.2,-43.9,0.0,0.75,0.5,1.25,2.75,0.75,0.5,0.0,0.25,0.25,1.0,0.0,0.25,0.58,0.7,1.7,153.94,-4.6,30.1
1.14,0.0,0.5,1.25,3.25,2.5,2.0,0.5,5.75,2.5,5.75,5.75,4.0,5.25,-0.11,0.08,0.95,631.63,-1.6,-42.1,0.0,0.75,0.5,1.25,2.5,0.5,0.25,0.0,0.25,0.25,1.0,0.0,0.0,0.64,0.83,1.7,141.64,-5.9,33.9
1.16,0.25,0.5,0.0,3.75,2.75,2.25,1.0,5.75,2.75,5.75,5.5,4.0,5.0,-0.11,0.08,0.95,623.17,-2.3,-41.1,0.0,0.75,0.5,1.25,2.5,0.5,0.25,0.0,0.25,0.25,1.0,0.0,0.25,0.45,1.02,1.89,130.57,-5.3,29.2
1.18,0.5,0.5,0.0,5.25,3.0,2.75,1.0,5.75,2.75,4.75,5.5,3.25,4.25,-0.11,0.08,0.95,598.12,-1.2,-31.1,0.0,0.75,0.5,1.25,2.75,0.75,0.25,0.0,0.25,0.25,1.5,0.0,0.25,0.2,1.39,1.95,128.03,-4.5,24.4
1.2,1.25,0.5,1.25,5.25,4.25,2.75,1.0,5.75,2.75,4.5,5.5,3.0,3.75,-0.11,0.08,0.95,589.82,0.6,-21.4,0.0,0.75,0.5,1.25,2.25,0.75,0.25,0.0,0.25,0.25,0.75,0.0,0.0,0.02,1.83,1.77,124.54,-5.2,36.8
1.22,1.0,0.5,1.5,7.0,5.0,2.75,1.5,5.5,2.75,4.0,4.5,2.25,2.75,-0.11,0.08,0.95,578.41,1.8,-10.3,0.0,0.75,0.5,1.25,2.75,0.5,0.25,0.0,0.25,0.25,0.75,0.0,0.25,-0.42,2.14,0.77,124.17,-4.8,33.3
1.24,1.25,0.5,2.0,7.25,5.25,2.75,1.5,5.25,2.75,3.0,4.0,2.0,2.25,-0.11,0.08,0.95,580.38,3.1,-3.4,0.0,0.75,0.5,1.25,2.5,0.5,0.5,0.0,0.25,0.25,1.0,0.0,0.25,-1.23,2.83,0.83,122.11,-5.7,29.2
1.26,1.5,0.75,2.0,8.25,5.75,3.25,1.5,5.0,2.5,3.0,3.75,1.75,1.5,-0.11,0.08,0.95,585.3,3.6,4.1,0.0,0.75,0.75,1.25,3.0,0.5,0.25,0.25,0.25,0.25,1.25,0.0,0.0,-1.86,3.58,0.33,127.87,-5.7,31.0
1.28,1.75,1.0,2.25,8.5,6.25,3.5,1.5,5.0,2.5,2.25,3.25,1.0,1.25,-0.11,0.08,0.95,581.76,4.2,12.1,0.0,0.75,0.5,1.25,2.75,0.5,0.25,0.25,0.25,0.25,0.5,0.0,0.0,-2.42,2.83,0.7,126.4,-4.5,39.3
1.3,1.5,1.25,2.5,9.5,6.75,3.5,1.75,5.0,2.25,1.5,3.0,1.0,1.25,-0.11,0.08,0.95,588.95,4.9,16.7,0.0,0.75,0.5,1.25,2.5,0.5,0.0,0.5,0.25,1.25,1.5,1.0,1.0,0.77,-0.3,0.95,141.11,-1.4,-8.7
1.32,1.75,1.5,3.0,9.75,6.75,3.75,1.75,4.75,2.0,1.25,2.5,1.0,1.25,-0.11,0.08,0.95,597.96,5.6,20.9,0.0,0.75,0.5,0.75,1.75,0.5,0.25,1.0,0.25,3.25,1.25,3.5,4.5,0.64,-1.11,2.27,187.83,2.9,-53.7
1.34,2.0,1.75,3.75,11.0,7.75,4.0,1.75,4.5,1.5,1.25,2.5,1.0,1.25,-0.11,0.08,0.95,630.23,6.4,25.5,0.0,0.0,0.0,0.0,1.25,0.5,0.25,0.0,0.25,6.25,1.25,5.25,6.0,-0.8,0.45,1.89,247.21,6.2,-81.7
1.36,2.5,1.75,4.25,11.0,8.0,4.0,2.0,4.25,1.5,1.25,2.25,1.0,1.0,-0.11,0.08,0.95,662.94,7.2,28.5,0.0,0.0,0.75,0.25,2.75,0.75,0.0,1.75,0.5,7.75,5.25,5.75,8.0,0.77,0.08,2.39,347.97,4.2,-68.6
1.38,2.75,1.75,4.75,12.0,8.0,4.0,2.25,4.25,1.25,1.25,2.0,1.0,1.0,-0.11,0.08,0.95,703.59,8.0,30.7,0.0,0.0,0.75,0.0,2.5,1.0,0.25,4.25,0.25,7.75,6.5,5.5,8.0,0.02,0.33,1.2,465.08,4.9,-67.7
1.4,2.75,1.75,5.25,12.0,8.25,4.0,2.25,3.5,1.0,1.25,1.75,1.0,0.75,-0.11,0.14,0.95,726.35,8.7,34.0,0.0,0.0,0.75,0.0,1.25,1.25,0.0,4.5,0.75,8.25,6.5,6.0,7.75,-0.05,0.14,1.02,571.88,5.0,-71.8
1.42,3.0,1.75,5.5,13.0,8.5,4.0,2.0,3.0,0.5,1.25,1.5,1.0,1.25,-0.11,0.14,0.95,747.22,9.0,35.7,0.0,0.75,0.5,1.25,3.0,1.25,0.25,5.25,1.0,8.5,6.0,5.75,7.75,0.2,0.08,0.89,652.24,4.5,-58.0
1.44,2.75,2.25,5.5,13.5,8.75,4.0,2.0,2.5,0.25,1.25,1.5,1.0,0.5,-0.11,0.14,0.95,754.0,9.6,40.1,0.0,0.75,0.5,1.25,2.75,3.25,0.25,5.75,1.0,8.5,5.75,6.0,8.0,0.14,0.08,0.95,716.27,5.5,-55.0
1.46,3.25,2.5,5.5,13.5,8.75,4.0,1.75,2.5,0.25,1.25,1.5,1.0,0.5,-0.11,0.14,0.95,764.83,9.8,41.0,0.0,0.75,0.5,1.25,4.25,3.25,0.25,6.0,1.5,8.5,6.75,6.0,8.0,0.14,0.08,0.95,772.46,4.9,-51.2
1.48,3.5,3.25,5.25,14.5,9.25,4.0,1.75,2.5,0.25,1.25,1.5,1.0,0.5,-0.11,0.14,1.02,788.09,9.8,42.6,0.0,0.75,0.5,1.25,4.25,3.5,0.25,6.25,1.5,8.5,7.0,5.25,8.0,0.08,0.08,0.95,808.21,5.2,-49.9
1.5,4.75,2.75,5.75,14.5,9.5,4.0,1.75,2.0,0.25,0.75,0.75,0.75,0.5,-0.17,0.14,1.02,805.56,11.1,48.1,0.0,0.75,0.5,1.25,4.25,4.5,0.5,6.25,1.5,8.5,6.75,5.0,7.5,0.14,0.08,0.95,825.11,5.5,-47.0
1.52,5.0,3.25,6.25,14.5,9.5,3.5,1.5,2.5,0.25,1.0,1.0,1.0,0.5,-0.17,0.14,1.02,831.59,11.4,46.3,0.0,0.75,0.5,1.5,4.25,4.5,0.75,6.25,1.5,8.25,6.25,4.0,7.25,0.14,0.08,0.95,804.88,5.7,-44.0
1.54,6.0,3.25,6.5,14.5,9.5,3.75,1.25,2.0,0.5,0.0,1.25,0.0,0.25,-0.17,0.2,1.08,843.35,12.8,53.6,0.0,0.75,0.5,2.25,4.75,5.25,0.75,6.25,1.5,7.75,6.0,4.0,6.75,0.14,0.08,0.95,771.83,5.4,-38.7
1.56,6.25,3.25,0.0,14.5,6.25,2.75,2.5,1.0,0.5,1.0,0.0,1.0,0.0,-0.17,0.2,1.02,766.82,11.4,52.6,0.5,0.75,1.25,2.75,4.75,5.5,0.75,6.25,1.5,7.75,5.5,3.25,6.25,0.14,0.08,0.95,730.84,4.4,-31.9
1.58,7.0,3.25,7.25,14.5,8.25,1.5,0.0,1.5,0.25,1.0,0.75,0.75,0.25,-0.23,0.27,1.14,754.5,15.1,53.2,0.5,0.75,1.25,3.75,5.75,5.5,0.75,6.25,1.5,7.25,5.25,2.75,5.75,0.14,0.08,0.95,700.43,3.9,-25.5
1.6,6.5,3.25,7.25,13.0,8.0,0.75,0.25,1.5,0.5,1.0,0.75,1.0,0.25,-0.23,0.33,1.2,727.17,15.5,51.5,1.0,0.75,1.75,4.0,6.5,6.0,1.0,6.25,1.5,6.75,4.5,2.25,5.0,0.14,0.08,0.95,679.46,3.1,-17.2
1.62,7.25,2.5,6.5,12.0,7.5,0.5,0.0,1.75,0.5,0.5,1.0,0.75,0.25,-0.3,0.33,1.27,707.45,16.1,52.4,1.0,0.75,1.75,4.25,6.5,6.25,1.25,6.25,1.5,6.5,4.25,1.75,4.5,0.14,0.08,0.95,670.23,3.1,-13.8
1.64,7.25,2.0,5.5,10.5,6.75,0.0,0.0,0.5,0.5,0.75,1.0,1.0,0.25,-0.48,0.45,1.52,644.9,17.2,52.6,1.0,0.75,3.0,5.75,7.5,6.5,1.25,6.25,1.5,5.75,3.75,1.25,3.75,0.14,0.08,0.95,679.92,1.3,-3.5
1.66,6.75,1.5,2.75,8.25,0.0,0.0,0.0,0.75,0.5,0.75,0.75,0.25,0.25,-0.73,0.7,1.45,501.06,21.5,54.4,1.0,1.5,2.75,7.75,8.25,6.75,2.0,5.5,1.5,4.75,2.75,1.25,2.75,0.14,0.08,0.95,694.39,-0.1,7.4
1.68,5.25,0.5,1.0,5.25,0.0,0.0,0.0,0.0,0.5,0.5,0.75,0.5,0.25,-0.86,1.2,2.58,339.16,22.1,49.7,1.0,1.5,4.0,8.0,8.5,6.75,2.0,5.5,1.5,3.5,2.5,0.75,2.0,0.14,0.08,0.95,709.15,-1.7,15.1
1.7,2.0,0.5,0.25,3.25,0.0,0.0,0.0,0.0,0.25,0.5,1.0,0.0,0.0,-0.17,0.77,2.45,205.47,18.7,42.0,1.25,1.75,4.0,9.5,9.0,7.0,2.0,5.25,1.5,3.25,2.25,0.75,1.75,0.14,0.08,0.95,733.49,-2.4,19.6
1.72,0.5,0.0,0.5,3.25,0.0,0.0,0.0,0.0,0.0,0.25,1.0,0.0,0.0,-0.3,0.58,2.2,88.23,18.0,32.5,2.0,2.25,4.75,9.5,9.5,7.25,2.0,4.25,1.25,2.5,2.0,0.75,1.75,0.14,0.08,0.95,762.62,-3.9,26.0
1.74,0.0,0.0,0.0,0.0,0.0,0.0,0.0,0.0,0.0,0.5,0.75,0.0,0.0,-1.05,-0.17,1.95,0.0,0.0,-75.5,2.0,2.5,6.0,11.0,9.75,7.25,2.25,4.25,1.0,2.0,2.0,0.5,1.75,0.14,0.08,0.95,806.88,-5.3,30.2
1.76,0.0,0.0,0.25,1.0,0.0,0.0,0.0,0.0,0.25,0.5,0.0,0.0,0.0,-1.17,-0.8,1.14,0.0,11.2,14.1,2.0,2.5,6.25,11.5,11.0,7.25,2.25,3.25,1.0,2.0,2.0,0.5,1.5,0.14,0.14,0.95,850.55,-5.9,33.2
1.78,0.0,0.0,0.0,1.25,0.0,0.0,0.0,0.0,0.5,0.5,1.0,0.0,0.0,-1.11,-1.23,0.64,0.0,9.5,-16.5,2.5,2.5,6.25,12.0,10.5,7.25,2.5,3.0,1.0,1.75,1.75,0.25,1.25,0.14,0.14,0.95,880.9,-6.7,36.5
1.8,0.0,0.0,0.0,1.25,0.0,0.0,0.0,0.0,0.5,0.5,0.0,0.0,0.0,-0.55,-1.17,0.89,0.0,8.9,8.2,3.25,2.5,7.0,13.0,10.5,7.25,2.5,3.0,1.0,1.75,2.0,0.0,1.25,0.14,0.14,0.95,916.13,-7.7,38.1
1.82,0.5,0.0,0.0,1.25,0.0,0.0,0.0,0.0,0.25,0.25,0.75,0.0,0.25,-0.48,-0.23,0.77,0.0,12.9,3.0,3.5,2.5,7.0,13.0,11.5,7.5,2.25,2.5,0.75,1.5,1.5,0.25,1.0,0.14,0.14,0.95,940.64,-7.7,41.3
1.84,0.0,0.25,0.0,1.25,0.0,0.0,0.0,0.0,0.25,0.5,0.0,0.0,0.25,-0.42,-0.3,0.27,0.0,6.7,10.0,4.25,3.0,7.5,14.5,12.0,7.25,2.0,1.5,0.5,0.5,1.25,0.0,1.0,0.08,0.14,0.95,968.67,-9.4,48.3
1.86,0.75,0.0,0.25,0.5,0.0,0.0,0.0,0.0,0.5,0.25,0.0,0.0,0.25,-0.61,-0.11,0.52,0.0,16.8,19.4,5.0,2.5,7.75,14.5,12.0,7.5,2.25,1.5,0.25,0.5,1.5,0.0,0.75,0.08,0.14,0.95,990.11,-9.9,49.0
1.88,1.25,0.5,0.5,1.0,0.0,0.0,0.25,0.0,0.25,0.5,0.0,0.0,0.25,-0.67,-0.11,0.64,0.0,18.4,42.3,5.5,1.75,8.0,13.0,12.5,6.75,2.25,1.0,0.25,0.0,0.75,0.0,0.0,0.08,0.14,0.95,973.12,-11.1,54.8
1.9,1.0,0.0,0.5,1.25,0.0,0.0,0.25,0.75,0.25,0.5,0.0,0.0,0.0,-0.61,0.02,0.89,27.97,14.0,28.6,6.25,3.75,8.0,15.0,11.0,7.0,1.75,1.5,0.25,0.0,0.0,0.0,0.5,0.08,0.2,1.02,977.9,-11.4,56.5
1.92,1.25,0.5,0.5,1.25,0.0,0.0,0.25,0.0,0.5,0.5,0.0,0.0,0.0,-0.48,0.2,0.95,56.15,19.8,47.3,7.0,4.0,8.5,14.5,11.5,6.5,2.0,1.25,0.25,0.5,0.0,0.0,0.75,0.08,0.2,1.02,990.71,-11.8,55.8
1.94,1.25,0.0,0.5,1.25,0.0,0.0,0.25,0.0,0.25,0.25,0.0,0.25,0.0,-0.42,0.33,1.08,68.55,22.8,43.8,7.5,4.0,9.0,13.0,11.5,5.5,1.75,1.25,0.25,1.0,0.5,0.0,0.25,0.08,0.2,1.08,998.73,-12.6,55.8
1.96,1.0,0.0,0.5,1.75,0.0,0.0,0.25,0.0,0.25,0.5,0.0,0.5,0.0,-0.36,0.39,1.2,77.1,18.8,28.0,8.0,4.0,8.75,15.0,11.5,4.5,1.0,1.0,0.25,0.75,1.0,0.0,0.75,0.14,0.27,1.08,1012.05,-13.3,55.1
1.98,1.25,0.5,0.25,1.25,0.0,0.0,0.25,0.0,0.25,0.5,0.0,0.5,0.0,-0.3,0.58,1.39,80.66,18.0,34.2,8.0,2.5,7.5,12.0,9.5,3.25,0.75,1.25,0.25,0.5,0.75,0.0,0.0,0.14,0.33,1.14,935.95,-14.5,57.6
2.0,0.5,0.25,0.25,1.25,0.0,0.0,0.25,0.75,0.25,0.5,0.0,0.25,0.0,-0.23,0.64,1.45,78.11,9.7,15.0,8.0,2.75,8.0,13.0,9.25,1.0,0.75,0.25,0.25,0.5,1.5,0.0,0.25,0.08,0.33,1.2,860.16,-17.1,58.0
2.02,1.25,0.25,0.5,0.75,0.0,0.0,0.25,0.0,0.25,0.5,0.0,0.5,0.0,-0.36,0.64,1.58,75.41,19.7,28.8,7.5,2.5,7.0,11.5,8.25,0.5,0.75,0.75,0.25,0.25,1.0,0.0,0.75,0.33,0.52,1.27,752.54,-16.9,56.8
2.04,1.0,0.0,0.5,1.25,0.0,0.0,0.25,0.25,0.25,0.5,0.0,0.25,0.0,-0.42,0.64,1.83,73.62,17.4,28.5,6.0,0.75,3.5,7.5,5.5,0.25,0.5,0.75,0.25,0.25,1.0,0.0,0.0,0.45,0.77,1.83,578.03,-17.0,56.6
2.06,1.0,0.5,0.5,2.0,0.0,0.0,0.25,0.0,0.25,0.25,0.0,0.5,0.0,-0.42,0.7,2.08,77.64,19.7,41.6,4.5,0.75,0.5,4.0,4.25,0.25,0.5,0.5,0.25,0.5,1.25,0.0,0.25,0.64,1.27,2.64,388.45,-12.9,47.9
2.08,1.25,0.5,0.5,1.25,0.0,0.0,0.25,0.0,0.25,0.5,0.0,0.5,0.0,-0.36,0.83,2.14,80.38,19.1,35.7,2.25,0.75,0.5,3.75,2.75,0.5,0.5,1.0,0.25,0.5,1.5,0.0,0.0,-0.11,0.64,2.33,259.77,-10.4,37.3
2.1,1.25,0.5,0.25,1.5,0.0,0.0,0.0,0.0,0.25,0.5,0.0,0.5,0.0,0.02,1.2,2.08,82.07,17.6,35.7,1.0,0.75,1.25,2.75,2.75,0.5,0.75,0.0,0.25,0.25,1.0,0.0,0.0,0.14,0.33,1.64,158.89,-12.4,44.7
2.12,1.25,0.25,0.5,1.0,0.0,0.0,0.0,0.0,0.0,0.5,0.0,0.25,0.0,0.52,1.7,1.89,75.32,20.3,44.6,0.5,0.75,0.5,2.0,3.0,0.5,0.25,0.5,0.25,0.25,1.5,0.0,0.0,0.83,0.2,1.89,82.49,-6.7,31.1
2.14,0.75,0.0,0.5,1.25,0.0,0.0,0.0,0.0,0.25,0.5,0.0,0.25,0.25,1.02,2.33,1.08,69.66,16.0,19.3,0.0,0.75,0.0,1.25,0.0,0.0,0.0,0.0,0.0,0.0,0.0,0.0,0.0,0.77,-0.73,-0.48,0.0,-15.4,73.1
2.16,1.0,0.0,0.5,1.0,0.0,0.0,0.0,0.0,0.25,0.5,0.0,0.25,0.25,1.77,2.95,0.7,63.68,17.1,21.4,0.0,0.0,0.0,0.25,0.25,0.0,0.0,0.0,0.25,0.0,0.0,0.0,0.0,0.45,-0.73,0.7,0.0,-8.2,26.4
2.18,1.25,0.25,0.5,1.25,0.0,0.0,0.0,0.0,0.25,0.5,0.0,0.0,0.25,2.27,4.08,0.45,64.58,18.3,40.2,0.0,0.75,0.25,1.25,0.5,0.75,0.0,0.0,0.25,0.25,0.0,0.0,0.0,0.64,-0.73,1.27,0.0,-5.6,47.2
2.2,0.75,0.25,0.5,1.25,0.0,0.0,0.0,0.0,0.25,0.5,0.0,0.25,0.0,1.52,2.7,0.58,63.07,17.8,33.5,0.0,0.0,0.75,0.0,0.0,0.0,0.0,0.0,0.25,0.0,0.0,0.0,0.0,0.2,-0.3,0.45,0.0,-31.9,36.8
2.22,1.0,0.0,0.5,0.0,0.0,0.0,0.0,0.0,0.0,0.0,0.75,0.0,0.25,-0.42,0.33,0.89,55.27,23.3,16.3,0.0,0.0,0.0,0.0,0.25,0.0,0.0,0.0,0.25,0.0,0.0,0.0,0.0,0.08,-0.3,0.33,0.0,-3.8,11.1
2.24,0.0,0.0,0.5,1.0,0.0,0.0,0.0,0.25,0.0,1.25,0.0,1.0,0.0,-0.98,-0.17,1.52,54.43,5.6,-29.8,0.0,0.0,0.0,0.0,0.25,0.0,0.0,0.0,0.25,0.0,0.0,0.0,0.0,0.33,-0.23,0.45,0.0,-3.8,11.1
2.26,1.0,0.5,0.25,0.5,0.0,0.0,0.0,0.25,0.0,3.0,0.0,3.75,3.25,0.14,-0.17,0.77,102.64,-0.4,-65.7,0.0,0.0,0.0,0.0,0.25,0.0,0.0,0.0,0.25,0.0,0.0,0.0,0.0,0.45,-0.17,0.7,0.0,-3.8,11.1
2.28,0.0,0.0,0.25,0.0,0.0,0.0,0.0,0.0,0.0,4.5,3.25,4.25,5.75,0.45,0.7,2.27,180.4,-3.8,-92.8,0.0,0.0,0.75,0.0,0.25,0.0,0.0,0.0,0.25,0.0,0.0,0.0,0.0,0.39,-0.05,0.7,0.0,-24.1,40.5
2.3,0.0,0.0,0.0,0.5,0.0,0.0,0.25,4.25,1.25,6.25,4.75,5.0,5.75,-0.23,0.2,1.27,281.78,-4.6,-78.7,0.0,0.0,0.0,0.0,0.25,0.0,0.0,0.0,0.25,0.0,0.0,0.0,0.0,0.39,0.27,0.83,0.0,-3.8,11.1
2.32,0.5,0.5,0.0,1.25,0.0,0.0,0.25,5.0,0.75,6.0,6.0,4.75,6.0,-0.05,0.08,1.08,379.36,-3.2,-69.2,0.0,0.75,0.5,1.25,2.75,0.75,0.25,0.0,0.25,0.25,0.5,0.0,0.0,0.39,0.33,1.08,24.33,-4.4,41.7
2.34,0.0,0.0,0.0,1.25,0.0,0.5,0.25,4.5,0.75,6.0,5.5,5.0,6.0,-0.11,0.08,0.95,459.92,-4.3,-73.8,0.0,0.75,0.75,1.25,2.25,0.5,0.25,0.0,0.25,0.25,1.25,0.0,0.25,0.33,0.52,1.14,70.57,-6.8,26.2
2.36,0.0,0.25,0.0,1.25,0.0,0.75,0.5,5.0,1.5,6.5,6.0,5.0,6.0,-0.17,0.08,0.95,518.03,-3.9,-70.0,0.0,0.75,1.25,1.25,3.0,0.5,0.25,0.0,0.25,0.25,0.75,0.0,0.25,0.2,0.77,1.27,117.21,-7.4,36.4
2.38,1.25,0.0,0.0,2.0,0.0,0.75,0.25,5.5,1.5,6.5,6.25,5.0,6.0,-0.11,0.08,0.95,558.8,-2.5,-62.7,0.0,0.75,0.5,1.25,2.25,0.5,0.0,0.0,0.25,0.25,0.75,0.0,0.0,0.27,0.7,1.52,135.51,-5.7,37.1
2.4,1.0,0.5,0.0,1.75,0.0,1.25,0.5,5.75,2.0,6.5,6.5,5.0,6.0,-0.17,0.08,0.95,593.0,-2.6,-60.3,0.0,0.75,0.5,1.25,2.25,0.5,0.5,0.0,0.25,0.25,0.75,0.0,0.25,0.33,0.77,1.58,141.82,-5.9,31.6
2.42,1.25,0.5,0.0,2.25,1.5,1.25,0.75,5.75,1.25,6.5,6.5,5.0,6.0,-0.11,0.02,0.95,620.88,-2.3,-52.7,0.0,0.75,0.5,1.25,2.75,0.5,0.25,0.0,0.25,0.25,0.75,0.0,0.5,0.39,0.95,1.52,140.67,-4.2,28.8
2.44,0.0,0.25,0.5,2.5,2.25,1.75,0.5,5.75,1.75,6.25,6.5,5.0,6.0,-0.11,0.02,0.95,642.39,-2.9,-52.5,0.0,0.75,1.0,1.25,2.5,0.5,0.25,0.0,0.25,0.25,0.75,0.0,0.0,0.39,1.02,1.58,144.56,-7.9,39.1
2.46,1.25,0.5,0.0,3.25,2.5,2.0,0.75,5.75,1.75,5.75,6.5,4.0,5.25,-0.11,0.08,0.95,639.0,-1.8,-41.8,0.0,0.75,0.5,1.25,2.75,0.5,0.25,0.25,0.25,0.25,1.0,0.0,0.0,0.08,1.14,1.45,146.73,-4.9,32.4
2.48,0.5,0.5,0.5,3.5,2.75,2.25,1.0,5.75,1.5,5.75,6.0,4.0,5.0,-0.11,0.08,0.95,617.88,-2.0,-40.1,0.0,0.75,0.5,1.25,2.75,0.5,0.25,0.0,0.25,0.25,1.0,0.0,0.25,-1.23,1.83,2.27,146.55,-5.0,30.1
2.5,1.25,0.0,1.25,4.25,2.75,2.75,1.0,5.75,2.5,5.0,5.5,3.25,4.0,-0.11,0.08,0.95,583.35,0.0,-30.2,0.0,0.75,0.5,1.25,2.5,0.5,0.0,0.0,0.25,0.25,0.75,0.0,0.0,-0.23,1.83,0.77,140.24,-5.3,37.7
2.52,1.25,0.5,1.25,5.25,3.75,2.75,0.75,5.75,2.75,4.5,5.0,3.0,3.75,-0.11,0.08,0.95,563.87,0.5,-22.0,0.0,0.75,0.5,1.25,2.5,0.5,0.25,0.25,0.25,0.25,0.75,0.0,0.0,-0.61,1.64,0.89,133.55,-5.0,35.0
2.54,1.25,0.5,1.5,5.5,4.5,2.75,0.75,5.75,2.75,4.5,4.75,2.75,2.75,-0.11,0.08,0.95,551.8,1.0,-16.2,0.5,0.75,1.5,1.5,2.25,0.25,0.25,0.0,0.25,0.25,1.0,0.0,0.0,-1.55,5.27,0.58,133.87,-12.7,40.6
2.56,1.25,0.5,2.0,6.75,5.25,2.75,1.0,5.5,2.75,3.25,4.0,2.0,2.5,-0.11,0.08,0.95,553.93,2.4,-5.7,0.75,0.75,0.5,2.25,1.0,0.0,0.5,0.0,0.25,1.0,0.75,0.75,0.0,-1.73,3.83,-0.48,130.31,-11.8,18.8
2.58,2.0,0.5,2.0,7.0,5.25,3.0,1.5,5.5,2.75,3.0,4.0,2.0,2.0,-0.11,0.08,0.95,561.25,3.4,-1.3,1.0,0.75,0.5,2.75,1.75,0.5,0.25,0.25,0.25,1.75,2.0,2.75,2.75,0.52,-1.17,2.58,170.69,-4.3,-23.7
2.6,1.5,0.75,2.25,7.5,5.25,3.25,1.5,5.25,2.75,3.0,3.75,2.0,1.5,-0.11,0.08,0.95,564.2,3.6,1.5,0.0,0.0,0.0,1.25,0.0,0.0,0.0,0.0,0.25,1.75,1.5,2.75,4.25,-0.05,0.39,1.45,188.22,1.8,-80.6
2.62,1.5,1.0,2.25,8.5,6.0,3.0,1.5,5.0,2.5,3.0,3.5,1.25,1.25,-0.11,0.08,0.95,570.21,4.1,8.2,0.0,0.0,0.75,1.25,1.0,0.0,1.0,1.0,0.25,0.5,2.0,1.25,4.25,-0.05,0.2,1.33,205.12,-1.0,-50.0
2.64,1.5,0.75,2.25,8.5,6.25,3.5,1.5,5.0,2.25,1.75,3.25,1.0,1.25,-0.11,0.08,0.95,566.85,4.2,12.5,1.0,0.0,0.5,1.25,0.0,0.0,0.25,0.5,0.25,0.5,1.75,1.25,1.0,0.08,-0.23,0.58,181.7,-9.9,-29.9
2.66,1.5,1.0,2.5,8.75,6.75,3.5,1.75,5.0,2.5,1.5,3.25,1.25,1.25,-0.11,0.08,0.95,575.13,4.7,13.8,3.5,0.75,3.0,4.0,1.0,0.0,0.75,0.0,0.5,1.75,2.0,2.25,3.25,-0.05,0.33,1.27,224.46,-13.0,-0.5
2.68,1.5,1.25,3.25,9.5,6.75,3.5,1.75,5.0,2.25,1.25,3.0,1.0,1.25,-0.11,0.08,0.95,588.29,5.6,18.1,3.75,0.75,4.0,4.0,1.25,0.0,1.75,1.0,1.0,2.25,3.25,2.75,3.5,0.08,0.08,0.95,279.3,-12.3,-5.8
2.7,1.75,2.0,3.5,9.75,6.75,3.75,1.75,4.75,2.5,1.25,2.75,1.0,1.25,-0.11,0.08,0.95,614.7,6.2,21.1,5.0,0.75,5.0,4.5,1.0,0.0,2.0,1.25,1.0,3.5,3.75,2.75,3.75,0.02,0.14,0.95,366.97,-12.7,-4.2
2.72,2.0,1.5,3.75,9.5,7.0,3.5,1.75,4.75,2.5,1.25,2.5,1.0,1.25,-0.11,0.08,0.95,631.61,6.4,21.3,5.25,0.75,5.75,5.75,1.0,0.0,3.0,1.75,1.25,3.5,3.75,3.0,4.0,0.02,0.08,0.95,464.71,-13.2,-1.7
2.74,2.5,1.25,3.75,10.5,7.5,3.25,2.0,4.5,2.0,1.25,2.5,1.0,1.25,-0.11,0.08,0.95,650.73,7.1,23.9,5.5,0.75,6.25,5.75,1.25,0.0,3.75,1.25,1.5,4.75,4.0,3.5,4.5,0.02,0.08,0.89,562.79,-12.7,-4.8
2.76,2.5,1.25,4.25,11.0,7.75,3.5,2.25,4.25,2.0,1.25,2.25,1.0,1.0,-0.11,0.08,0.95,666.79,7.7,26.7,5.75,0.75,7.0,6.0,2.75,0.5,4.0,2.75,1.5,5.0,4.5,3.5,4.5,0.02,0.08,0.95,658.68,-11.3,-2.4
2.78,2.5,1.75,4.75,11.0,8.0,4.0,2.25,4.25,2.0,1.25,2.25,1.0,0.75,-0.11,0.08,0.95,691.59,7.8,28.9,5.75,1.0,7.25,6.0,3.5,0.75,4.5,3.0,1.5,5.75,4.5,3.5,4.75,0.02,0.08,0.95,748.19,-10.4,-2.1
2.8,2.75,1.75,5.5,11.5,8.0,3.75,2.5,4.0,1.25,1.25,2.25,1.0,0.75,-0.11,0.08,0.95,714.74,8.9,31.5,5.75,1.25,7.25,6.0,3.5,1.0,4.5,3.25,1.5,6.0,5.25,4.0,5.0,0.02,0.08,0.95,832.13,-9.9,-4.6
2.82,2.75,1.75,5.5,12.0,8.0,3.75,2.75,3.25,1.25,1.25,2.0,1.0,0.75,-0.11,0.08,0.95,730.77,9.4,33.5,5.75,1.25,6.75,6.0,3.0,2.25,4.25,4.25,1.75,6.5,5.25,3.5,5.25,0.08,0.08,0.89,889.44,-8.2,-6.0
2.84,2.75,2.0,6.25,13.0,8.5,3.5,2.75,2.75,1.25,0.25,1.75,0.75,0.75,-0.11,0.14,0.95,744.79,10.9,39.5,5.75,1.0,6.25,6.0,2.5,3.25,4.0,5.0,1.5,6.0,4.5,2.75,5.0,0.08,0.08,0.95,913.58,-7.3,-3.9
2.86,3.0,2.0,6.5,13.0,8.5,3.0,2.75,2.5,0.0,1.5,1.5,0.75,0.5,-0.11,0.14,0.95,746.91,11.1,40.8,5.75,1.5,5.75,6.25,4.5,4.0,4.25,5.5,1.5,5.75,4.0,1.25,4.25,0.08,0.08,0.95,919.66,-6.4,5.0
2.88,3.0,2.0,5.75,13.5,8.5,3.0,2.5,2.25,0.0,0.5,1.5,1.0,0.25,-0.11,0.14,1.08,736.19,11.5,43.8,5.75,1.5,6.0,6.75,5.0,5.25,4.0,5.5,1.25,4.75,3.25,1.25,3.5,0.08,0.08,0.95,909.62,-6.4,11.5
2.9,3.5,0.0,0.0,7.0,0.0,0.0,2.25,2.25,0.0,0.0,1.5,0.75,0.25,-0.17,0.14,1.2,530.29,15.6,28.5,5.75,1.75,5.5,7.75,5.0,6.0,4.0,5.5,1.0,3.5,2.0,0.75,2.75,0.08,0.08,0.95,872.65,-6.7,20.4
2.92,3.75,2.25,6.75,13.0,8.25,1.5,1.5,2.5,0.5,0.5,1.25,0.0,0.25,-0.17,0.14,1.14,525.79,13.4,48.5,6.0,1.75,5.5,7.75,6.25,6.25,4.0,4.75,1.0,3.25,2.0,0.75,1.75,0.14,0.14,0.95,847.11,-7.2,25.9
2.94,4.5,2.0,6.5,12.5,6.75,1.25,0.75,2.25,0.5,0.25,1.0,1.0,0.25,-0.17,0.2,1.14,509.17,14.6,47.1,6.25,1.75,5.5,7.75,6.75,6.5,4.25,4.25,1.0,2.0,2.0,0.75,1.75,0.14,0.14,0.95,822.34,-8.0,29.8
2.96,5.75,2.0,7.25,9.75,6.75,0.0,0.75,2.25,0.75,1.25,1.25,1.0,0.25,-0.23,0.27,1.27,557.13,15.7,44.1,6.25,1.75,5.5,7.75,7.0,6.75,4.25,4.0,0.5,2.0,1.5,0.25,1.5,0.08,0.08,0.95,793.82,-7.9,34.4
2.98,5.5,1.75,6.75,9.5,0.0,0.0,0.0,2.0,0.5,1.25,1.25,0.75,0.25,-0.3,0.33,1.39,505.47,20.4,43.2,6.75,1.25,3.75,8.25,6.0,7.0,4.0,2.75,0.25,1.75,0.0,0.0,1.0,0.08,0.14,0.95,728.17,-8.1,42.7
3.0,5.75,1.5,5.5,6.75,2.5,0.0,0.0,1.75,0.25,0.5,1.0,1.0,0.5,-0.36,0.39,1.33,454.81,18.6,44.8,7.0,2.0,3.5,9.5,6.25,6.75,4.75,1.5,0.25,1.0,0.75,0.0,1.0,0.08,0.14,0.95,683.07,-9.9,46.9
3.02,4.0,0.75,4.75,6.0,0.25,0.0,0.0,0.0,0.5,0.5,1.0,0.75,0.0,-0.42,0.52,1.39,342.57,24.0,48.6,5.75,1.25,4.25,8.25,7.0,6.75,4.75,1.25,0.25,0.25,0.0,0.0,0.0,0.08,0.14,0.89,622.18,-10.4,53.8
3.04,2.5,0.5,2.25,3.25,0.0,0.0,0.0,1.75,0.5,0.75,1.25,0.25,0.25,-0.23,0.64,1.64,253.49,15.9,24.6,6.25,1.5,5.0,9.5,7.25,7.0,5.25,0.25,0.25,0.0,0.0,0.0,0.0,0.02,0.14,0.95,602.22,-12.1,57.7
3.06,0.0,0.25,2.0,3.0,0.0,0.0,0.0,0.0,0.5,0.5,1.25,0.75,0.25,-0.3,0.83,2.33,166.72,17.3,8.6,6.5,1.5,5.5,9.5,8.0,6.75,5.25,0.0,0.25,0.0,0.0,0.0,0.25,0.08,0.2,1.02,600.76,-12.5,57.6
3.08,0.25,0.5,2.0,2.25,0.0,0.0,0.25,0.0,0.5,0.25,1.0,0.75,0.0,-0.17,0.39,2.08,96.87,20.2,18.9,7.0,1.5,5.5,9.75,8.25,6.25,5.0,0.0,0.25,0.0,0.0,0.0,0.0,0.08,0.2,1.14,618.44,-13.1,59.4
3.1,0.0,0.5,1.25,2.75,0.0,0.0,0.0,0.0,0.5,0.25,0.75,0.5,0.25,-0.48,0.08,1.83,48.32,16.8,17.4,7.0,1.75,5.0,9.5,8.0,5.5,4.5,0.0,0.0,0.0,0.0,0.0,0.0,0.02,0.27,1.14,616.18,-13.4,60.9
3.12,0.0,0.0,1.0,1.5,0.0,0.0,0.5,0.0,0.5,0.25,0.75,0.25,0.0,-1.05,-0.92,1.45,15.27,18.9,8.8,7.5,2.0,4.5,11.5,7.0,4.0,3.75,0.0,0.0,0.0,0.0,0.0,0.0,-0.11,0.33,0.89,611.64,-15.2,62.9
3.14,0.25,0.0,1.0,1.25,0.0,0.0,0.5,0.0,0.25,0.5,0.25,0.0,0.0,-1.05,-0.48,0.45,0.0,19.9,26.9,7.0,2.0,2.0,7.75,7.5,0.75,3.0,0.0,0.0,0.0,0.25,0.0,0.0,-0.48,1.14,1.02,540.78,-15.9,65.3
3.16,0.0,0.0,0.75,1.25,0.0,0.0,0.5,0.0,0.5,0.5,0.75,0.0,0.0,-0.48,-0.11,0.45,0.0,16.2,4.4,7.75,2.5,1.75,6.0,4.75,0.0,1.75,0.0,0.25,0.0,0.0,0.0,0.0,0.02,0.33,1.39,446.46,-19.3,71.2
3.18,0.0,0.5,0.75,1.0,0.0,0.0,0.75,0.0,0.25,0.25,0.75,0.25,0.25,-0.05,0.33,0.2,0.0,16.1,6.7,6.25,2.0,1.5,4.0,1.75,0.0,1.5,0.0,0.25,0.25,0.0,0.0,0.0,0.45,0.14,1.2,335.58,-22.3,71.8
3.2,0.0,0.5,0.0,2.5,0.0,0.0,3.5,0.0,0.0,0.0,2.0,0.0,0.0,0.14,0.39,0.14,0.0,18.7,15.1,6.0,2.5,1.75,4.0,2.5,0.25,1.0,0.0,0.25,0.5,0.0,0.0,0.0,0.02,1.14,1.39,276.15,-19.7,69.3
3.22,0.0,0.5,0.5,0.75,0.0,0.0,0.5,0.0,0.75,0.75,0.0,0.0,0.25,0.08,0.58,0.08,17.01,10.8,5.5,6.25,2.5,0.75,3.75,0.5,0.25,1.0,0.0,0.25,0.25,0.75,0.0,0.5,0.64,0.83,1.2,228.99,-21.1,62.7
3.24,0.0,0.25,1.0,1.5,0.0,0.0,0.75,0.0,0.25,0.5,0.0,0.5,0.25,0.08,0.77,0.08,35.66,16.3,12.4,5.5,1.75,0.75,2.75,1.0,0.5,0.75,0.0,0.25,0.25,0.75,0.0,0.5,0.27,1.39,1.2,194.25,-19.4,58.8
3.26,0.75,0.5,0.5,1.25,0.0,0.0,0.5,0.0,0.25,0.5,0.0,0.0,0.25,0.2,0.95,0.08,48.44,16.9,36.8,3.5,1.0,0.5,2.5,0.25,0.5,0.5,0.0,0.25,0.25,0.75,0.0,0.0,-0.3,2.45,0.52,147.22,-20.1,57.9
3.28,0.25,0.5,1.0,1.0,0.0,0.0,0.25,0.0,0.25,0.25,0.0,0.0,0.0,0.27,1.14,-0.05,54.33,21.8,50.0,1.0,0.75,0.5,1.5,0.0,0.5,0.5,0.0,0.25,0.25,1.5,0.0,0.5,-0.3,1.7,-0.86,91.26,-13.4,16.9
3.3,0.0,0.5,1.5,0.75,0.0,0.0,2.75,0.0,0.5,0.5,0.0,0.5,0.0,0.33,1.27,-0.11,66.14,22.0,20.4,0.25,0.75,1.0,1.25,0.0,0.5,0.5,0.0,0.25,0.25,0.25,0.0,0.0,0.64,1.14,-0.42,35.37,-16.3,44.6
3.32,1.0,0.25,0.75,2.5,0.0,0.0,1.25,0.0,3.5,0.0,0.0,0.0,0.0,0.27,1.2,-0.17,92.59,19.9,23.0,0.0,0.75,0.75,1.25,0.5,0.75,0.0,0.0,0.25,0.25,0.5,0.0,0.0,0.45,0.2,-1.42,3.85,-9.3,37.0
3.34,2.0,0.25,0.0,1.25,0.0,0.0,0.0,0.0,0.75,0.75,0.0,0.5,0.0,0.2,1.14,-0.17,100.47,17.1,26.6,0.0,0.75,2.0,1.25,1.0,0.75,0.25,0.0,0.25,0.5,1.0,0.0,0.0,-0.36,-2.48,-2.05,11.77,-12.8,31.4
3.36,1.5,0.25,1.25,2.75,0.0,0.0,4.5,0.0,3.0,0.25,0.0,0.0,0.0,0.14,0.89,-0.17,133.92,22.6,29.8,0.0,0.5,0.5,1.0,0.0,0.75,0.0,0.0,0.25,0.25,0.0,0.0,0.0,-0.11,-2.8,-1.67,8.33,-8.2,42.2
3.38,0.0,0.25,0.5,1.25,0.0,0.0,0.5,0.0,0.25,0.75,0.0,0.25,0.0,0.08,0.7,-0.11,116.91,13.0,12.8,0.0,0.0,0.0,0.0,0.0,0.75,0.0,0.0,0.0,0.25,0.0,0.5,0.0,-0.23,-0.55,-0.8,3.75,10.8,-33.9
3.4,1.0,0.25,2.25,1.5,0.0,0.0,4.0,0.0,1.25,0.5,0.0,1.0,0.0,-0.05,0.39,-0.11,132.69,23.6,21.3,0.0,0.75,0.5,1.25,0.0,0.5,0.0,0.0,0.25,0.5,0.0,0.0,0.0,-3.8,4.33,-0.8,5.25,-9.5,39.9
3.42,0.0,0.25,2.25,1.25,0.0,0.0,5.0,0.0,3.25,0.5,0.0,0.5,0.0,-0.05,0.14,-0.05,139.21,21.7,8.7,0.5,0.75,0.5,1.25,2.25,0.75,0.5,0.0,0.25,0.5,0.75,0.0,0.0,-0.98,2.14,0.64,37.38,-6.7,36.7
3.44,0.5,0.0,0.5,1.75,0.0,0.0,0.25,0.0,0.25,0.75,0.0,0.5,0.0,-0.05,-0.05,-0.17,128.32,15.1,14.8,0.5,0.75,0.5,1.25,0.5,0.5,0.25,0.0,0.25,0.25,0.75,0.0,0.0,-0.73,2.27,1.58,52.22,-12.1,36.0
3.46,0.5,0.5,1.0,1.25,0.0,0.0,0.25,0.0,0.25,0.5,0.0,0.75,0.25,1.02,7.95,-1.8,113.54,16.7,15.6,0.0,0.75,0.5,1.25,1.25,0.5,0.5,0.0,0.25,0.25,0.75,0.0,0.0,-0.11,1.89,0.39,74.9,-8.5,33.5
3.48,0.0,0.5,0.5,1.25,0.0,0.0,0.25,0.5,0.25,0.25,0.0,0.0,0.25,-1.48,5.27,-1.61,89.56,10.7,23.0,0.0,0.75,0.75,1.25,0.5,0.75,0.0,0.0,0.25,0.25,0.5,0.0,0.0,-0.05,1.52,-0.98,82.01,-9.3,37.0
3.5,0.5,0.5,0.5,1.25,0.0,0.0,0.25,0.0,3.0,0.0,0.0,0.25,0.0,-1.05,1.89,1.08,84.66,17.4,10.7,0.0,0.75,0.5,1.0,0.5,0.5,0.25,0.0,0.25,0.25,0.75,0.0,0.0,0.58,1.14,-0.11,83.76,-9.6,28.7
3.52,0.25,0.5,0.5,1.25,0.0,0.0,0.25,0.5,0.25,0.25,0.0,0.0,0.0,0.08,-2.73,0.77,69.38,13.9,37.0,0.0,0.75,0.5,1.0,0.0,0.5,0.25,0.0,0.25,0.25,0.5,0.0,0.25,0.27,0.7,0.64,76.82,-9.9,22.7
3.54,1.0,0.5,0.5,1.25,0.0,0.0,0.25,0.0,0.5,1.0,0.0,0.0,0.0,0.39,0.83,0.14,70.27,15.4,32.3,0.0,0.75,0.5,1.0,0.5,0.5,0.5,0.0,0.25,0.25,1.0,0.0,0.25,0.02,0.39,0.7,79.05,-9.0,17.2
3.56,0.0,0.5,0.75,0.0,0.0,0.0,0.0,0.0,0.0,0.25,0.0,0.0,0.0,-0.67,5.52,0.45,48.62,20.8,51.5,0.0,0.75,0.5,1.0,0.5,0.5,0.5,0.0,0.25,0.25,1.5,0.0,0.25,-0.17,0.33,0.52,82.69,-9.2,9.5
3.58,1.25,0.5,0.75,1.25,0.0,0.0,0.25,0.0,0.25,0.5,0.75,0.0,0.0,2.33,3.77,-3.67,56.06,19.8,35.3,0.0,0.75,0.5,1.0,0.5,0.5,0.25,0.0,0.25,0.25,0.5,0.0,0.5,-0.23,0.58,0.27,83.81,-7.1,19.4
3.6,0.25,0.25,0.75,0.0,0.0,0.0,0.75,0.75,0.0,0.0,0.75,0.0,0.0,1.77,-0.17,-2.3,44.75,15.4,6.9,0.0,0.75,0.5,1.0,0.5,0.75,0.25,0.0,0.25,0.5,0.75,0.0,0.5,-0.42,0.77,0.02,90.46,-5.0,11.9
3.62,0.0,0.0,0.0,0.0,0.0,0.0,4.25,4.0,3.0,0.5,0.5,0.0,0.0,-1.8,-7.36,-2.92,82.85,3.2,-28.8,0.0,0.75,0.5,0.75,0.5,0.75,0.25,0.0,0.25,0.25,0.25,0.0,0.25,-0.55,1.08,-0.3,85.03,-6.0,30.5
3.64,0.0,0.5,1.5,0.25,0.0,0.0,3.75,3.75,0.5,0.25,2.25,0.25,0.0,-2.23,-2.86,1.45,110.84,8.4,-14.9,0.0,0.5,0.5,0.75,0.5,0.25,0.25,0.0,0.25,0.25,0.75,0.0,0.0,-0.67,1.14,-0.48,74.23,-10.8,21.8
3.66,0.25,0.5,0.5,1.25,0.0,0.0,0.25,0.0,0.25,0.25,0.75,0.25,0.0,-1.48,-1.61,2.02,113.79,16.7,17.7,0.0,0.75,0.5,0.5,0.5,0.5,0.25,0.0,0.25,0.0,0.75,0.0,0.0,-0.98,1.14,-0.48,65.36,-10.2,31.4
3.68,0.0,0.5,0.5,1.25,0.0,0.0,0.25,0.0,0.25,1.0,0.0,0.0,0.0,3.02,0.77,3.08,102.75,10.7,20.6,0.0,0.5,0.5,1.0,0.5,0.5,0.25,0.0,0.25,0.0,0.75,0.0,0.25,-1.11,1.2,-0.3,66.75,-9.5,22.5
3.7,0.5,0.5,0.75,1.25,0.0,0.0,0.25,0.0,0.0,0.5,0.0,0.0,0.0,0.2,-0.36,2.2,82.29,19.2,50.2,0.0,0.5,0.5,1.0,0.5,0.75,0.25,0.0,0.25,0.25,0.75,0.0,0.0,-0.92,1.14,-0.11,68.48,-7.8,25.1
3.72,0.5,0.5,0.5,1.25,0.0,0.0,0.25,0.0,0.0,0.25,0.0,0.0,0.0,-0.92,3.02,1.39,66.57,20.4,59.2,0.0,0.75,0.5,1.0,0.5,0.75,0.25,0.0,0.25,0.25,0.75,0.0,0.0,-0.61,0.95,-0.05,73.81,-8.0,28.9
3.74,0.0,0.5,0.5,1.25,0.0,0.0,0.25,0.0,0.0,0.25,0.0,0.0,0.0,-0.8,5.33,-1.3,52.66,17.9,52.6,0.0,0.75,0.0,0.75,0.5,0.75,0.25,0.0,0.25,0.25,0.75,0.0,0.0,-0.48,0.77,0.08,73.33,-3.8,23.2
3.76,0.0,0.5,0.75,1.25,0.0,0.0,0.25,0.0,0.25,0.25,0.75,0.0,0.25,-1.48,5.52,-3.61,57.06,15.6,15.6,0.0,0.75,0.5,1.0,0.0,0.5,0.0,0.0,0.25,0.25,0.75,0.0,0.0,-0.36,0.77,0.27,70.42,-10.8,25.1
3.78,0.0,0.5,0.5,1.25,0.0,0.0,0.25,0.0,0.25,0.5,0.0,0.0,0.25,-0.92,2.45,-0.92,54.88,12.7,24.8,0.0,0.75,0.25,1.0,1.25,0.75,0.25,0.0,0.25,0.25,0.75,0.0,0.0,-0.3,0.7,0.33,74.68,-4.9,31.3
3.8,0.5,0.5,1.0,1.0,0.0,0.0,0.25,0.0,0.25,0.5,0.0,0.0,0.0,-0.3,1.52,0.83,57.47,20.1,44.8,0.0,0.75,1.0,1.0,0.5,0.5,0.0,0.0,0.25,0.25,0.25,0.0,0.0,-0.17,0.83,0.33,76.31,-12.1,43.1
3.82,0.75,0.5,0.25,1.25,0.0,0.0,0.25,0.75,0.0,0.5,0.75,0.0,0.0,0.08,1.02,0.45,59.92,11.2,19.0,0.0,0.75,1.25,1.0,0.5,0.5,0.25,0.0,0.25,0.25,0.75,0.0,0.0,-0.17,0.77,0.2,83.58,-13.6,33.2
3.84,0.75,0.5,0.75,1.25,0.0,0.0,0.25,0.0,0.25,0.25,0.75,0.0,0.0,0.45,0.7,0.39,65.82,20.2,35.0,0.0,0.75,0.75,0.75,0.25,0.5,0.25,0.0,0.25,0.25,0.75,0.0,0.0,-0.17,0.77,0.08,81.51,-11.6,27.2
3.86,0.5,0.5,0.75,1.25,0.0,0.0,0.25,0.0,0.0,0.5,0.75,0.0,0.0,0.77,0.33,0.2,65.33,17.8,29.5,0.0,0.75,0.5,0.75,0.5,0.5,0.5,0.0,0.25,0.25,0.75,0.0,0.0,-0.17,0.77,-0.05,81.39,-9.7,27.0
3.88,0.5,0.5,0.25,1.25,0.0,0.0,0.25,0.75,0.0,0.5,0.75,0.0,0.0,0.7,0.08,-0.11,70.8,10.0,15.0,0.0,0.75,1.25,1.0,0.25,0.5,0.25,0.0,0.25,0.25,0.75,0.0,0.0,-0.23,0.83,-0.17,81.42,-14.5,32.1
3.9,0.5,0.5,0.5,1.25,0.0,0.0,0.25,0.0,0.25,0.0,1.0,0.0,0.0,0.45,0.02,-0.23,75.13,19.9,30.1,0.0,0.75,1.0,0.5,0.5,0.5,0.25,0.0,0.25,0.25,0.75,0.0,0.5,-0.86,1.52,-0.92,82.75,-9.4,15.3
3.92,0.75,0.5,0.5,1.25,0.0,0.0,0.25,0.5,0.25,0.5,1.0,0.25,0.25,0.39,-0.05,-0.67,81.68,12.4,5.9,0.0,0.75,1.5,1.0,1.0,0.5,0.25,0.0,0.25,0.25,0.75,0.0,0.0,-1.36,2.02,-0.98,90.9,-13.1,36.2
3.94,1.25,0.5,0.5,1.25,0.0,0.0,0.25,0.5,0.5,0.25,0.75,0.75,0.0,0.39,0.45,-1.05,90.4,16.0,12.8,0.0,0.75,1.25,1.0,0.5,0.5,0.5,0.25,0.25,0.25,0.75,0.0,0.25,-0.92,1.45,-0.55,96.35,-11.6,24.1
3.96,0.0,0.5,0.75,1.0,0.0,0.0,0.25,0.0,0.25,0.25,1.0,0.5,0.0,-0.05,1.14,-0.98,88.85,16.2,1.3,0.0,0.75,0.5,0.5,1.0,0.5,0.5,0.0,0.25,0.25,0.5,0.0,0.25,-0.23,0.83,-0.11,94.77,-6.5,26.3
3.98,0.25,0.5,0.5,1.25,0.0,0.0,0.25,0.5,0.25,0.0,1.0,0.5,0.0,-0.48,1.2,-0.92,86.55,14.3,5.6,0.0,0.75,0.5,1.0,0.25,0.5,0.5,0.0,0.25,0.25,0.75,0.0,0.0,-0.05,0.58,-0.05,88.32,-11.0,27.0
4.0,0.5,0.25,0.5,1.25,0.0,0.0,0.25,0.5,0.25,0.5,0.75,0.25,0.0,-0.42,1.02,-0.8,81.52,12.7,6.7,0.0,0.5,0.5,0.5,1.25,0.5,0.25,0.0,0.25,0.25,0.75,0.0,0.25,0.08,0.39,-0.11,83.63,-5.3,19.3
4.02,1.0,0.25,0.5,1.25,0.0,0.0,0.25,0.0,0.25,0.0,1.0,0.5,0.0,0.02,0.89,-0.48,79.96,20.6,18.6,0.0,0.5,0.75,0.75,1.0,0.75,0.25,0.0,0.25,0.25,0.75,0.0,0.0,-0.05,0.33,-0.05,81.81,-7.6,28.3
4.04,0.75,0.5,0.75,1.25,0.0,0.0,0.25,0.0,0.25,0.5,0.75,0.0,0.0,0.27,0.77,-0.36,78.75,18.3,29.3,0.0,0.5,0.75,0.5,1.25,0.5,0.25,0.5,0.25,0.5,1.5,0.0,0.0,-0.17,0.52,-0.05,89.4,-5.4,7.4
4.06,1.0,0.5,0.5,1.25,0.0,0.0,0.25,0.0,0.0,0.25,1.0,0.5,0.0,0.33,0.7,-0.23,80.6,18.8,20.8,0.0,0.75,0.75,0.75,1.75,0.5,0.25,0.0,0.25,0.25,0.75,0.0,0.25,-0.17,0.58,-0.11,96.85,-6.6,28.8
4.08,1.25,0.5,1.0,1.25,0.0,0.0,0.25,0.0,0.25,0.5,0.75,0.5,0.0,0.2,0.7,-0.3,87.58,19.7,24.6,0.0,0.75,0.5,0.75,0.0,0.5,0.5,0.0,0.25,0.25,0.75,0.0,0.25,-0.17,0.83,-0.17,91.42,-10.1,15.1
4.1,1.0,0.5,0.75,1.25,0.0,0.0,0.25,0.0,0.25,0.75,1.0,0.25,0.0,0.08,0.83,-0.42,91.61,16.8,17.4,0.0,0.75,0.5,0.5,1.25,0.5,0.25,0.0,0.25,0.25,1.0,0.0,0.5,-0.3,1.02,-0.23,90.43,-5.0,13.2
4.12,0.25,0.5,0.5,1.25,0.0,0.0,0.25,0.0,0.25,0.25,1.0,0.5,0.25,-0.11,1.08,-0.55,89.13,14.4,0.0,0.0,0.75,1.0,0.5,1.0,0.75,0.25,0.0,0.25,0.25,0.75,0.0,0.5,-0.42,1.33,-0.23,89.72,-6.9,19.7
4.14,0.0,0.25,0.5,1.25,0.0,0.0,0.25,0.0,0.0,0.25,1.0,0.5,0.0,-0.23,1.27,-0.67,79.23,15.3,-2.6,0.0,0.75,0.75,0.5,1.25,0.5,0.25,0.0,0.25,0.25,0.75,0.0,0.25,-0.48,1.52,-0.23,90.77,-7.1,24.9
4.16,0.0,0.5,0.5,1.25,0.0,0.0,0.25,0.0,0.0,0.25,0.75,0.5,0.25,-0.3,1.27,-0.67,70.47,13.7,1.1,0.0,0.5,0.5,0.5,0.5,0.5,0.25,0.0,0.25,0.25,0.75,0.0,0.25,-0.61,1.45,-0.17,82.81,-7.0,12.2
4.18,0.25,0.25,0.75,1.25,0.0,0.0,0.25,0.0,0.0,0.25,1.0,0.25,0.25,-0.3,1.08,-0.48,66.56,16.4,6.1,0.0,0.75,0.5,0.5,0.25,0.5,0.0,0.0,0.25,0.25,0.75,0.0,0.25,-0.55,1.2,-0.17,76.33,-7.4,14.3
4.2,0.5,0.5,0.5,1.25,0.0,0.0,0.25,0.0,0.25,0.25,1.0,0.25,0.0,-0.05,0.89,-0.42,68.67,17.3,16.9,0.0,0.75,0.5,0.75,0.25,0.5,0.25,0.25,0.25,0.25,0.75,0.0,0.0,-0.42,1.02,-0.11,71.07,-8.5,21.5
4.22,0.5,0.5,0.75,1.25,0.0,0.0,0.25,0.0,0.25,0.25,1.0,0.75,0.25,0.14,0.77,-0.48,75.03,16.1,1.9,0.0,0.75,1.5,1.0,1.0,0.5,0.0,0.0,0.25,0.25,0.75,0.0,0.5,-0.36,0.83,-0.11,80.64,-10.7,25.2
4.24,1.25,0.5,0.75,1.0,0.0,0.0,0.25,0.0,0.25,0.0,1.0,0.25,0.0,0.14,0.77,-0.61,79.58,22.5,32.7,0.0,0.5,0.5,0.5,1.5,0.5,0.25,0.0,0.25,0.25,1.0,0.0,0.25,-0.3,0.7,-0.11,85.13,-5.0,17.0
4.26,1.25,0.5,0.5,1.25,0.0,0.0,0.25,0.0,0.25,0.0,1.0,0.25,0.0,0.14,0.7,-0.61,82.47,21.4,32.5,0.0,0.25,0.5,0.75,0.5,0.5,0.25,0.0,0.25,0.25,0.5,0.0,0.25,-0.17,0.7,-0.17,81.35,-7.1,15.0
4.28,1.25,0.5,0.5,1.25,0.0,0.0,0.25,0.0,0.0,0.5,1.0,0.5,0.0,0.14,0.64,-0.48,85.19,17.9,19.7,0.0,0.75,0.5,0.75,1.25,0.5,0.5,0.0,0.25,0.25,0.5,0.0,0.25,-0.17,0.7,-0.17,81.72,-6.5,29.3
4.3,1.25,0.5,0.75,1.25,0.0,0.0,0.25,0.0,0.0,0.5,1.0,0.75,0.0,0.14,0.7,-0.48,90.04,18.4,16.1,0.0,0.5,0.5,0.5,0.25,0.75,0.25,0.0,0.25,0.25,0.75,0.0,0.5,-0.3,0.77,-0.11,76.08,-4.9,3.6
4.32,1.25,0.5,0.5,1.25,0.0,0.0,0.25,0.0,0.0,0.25,0.75,0.25,0.0,0.14,0.83,-0.48,88.39,20.5,36.0,0.0,0.75,0.75,0.5,2.25,0.5,0.5,0.0,0.25,0.25,0.75,0.0,0.5,-0.42,0.95,-0.11,88.94,-5.1,24.7
4.34,1.0,0.25,1.0,1.25,0.0,0.0,0.25,0.0,0.25,0.25,0.75,0.5,0.0,0.14,0.95,-0.48,89.8,21.0,22.5,0.0,0.5,0.5,0.5,1.0,0.5,0.5,0.0,0.25,0.25,0.75,0.0,0.5,-0.48,1.02,-0.11,87.5,-5.4,11.1
4.36,1.25,0.25,0.75,1.25,0.0,0.0,0.25,0.0,0.0,0.25,1.0,0.5,0.0,0.08,1.02,-0.48,89.63,20.7,22.3,0.0,0.5,0.75,0.5,1.25,0.5,0.25,0.0,0.25,0.25,0.75,0.0,0.25,-0.55,1.08,-0.11,91.54,-6.8,21.3
4.38,1.25,0.25,1.0,1.25,0.0,0.0,0.25,0.0,0.25,0.0,1.0,0.5,0.0,0.02,1.02,-0.48,91.07,22.8,25.8,0.0,0.75,1.5,0.5,0.5,0.5,0.25,0.0,0.25,0.25,0.75,0.0,0.5,-0.42,1.02,-0.11,91.23,-11.9,19.4
4.4,1.0,0.5,0.5,1.25,0.0,0.0,0.25,0.25,0.0,0.25,1.0,0.5,0.25,-0.11,1.02,-0.48,90.57,15.7,12.1,0.0,0.5,0.5,0.5,1.0,0.5,0.25,0.0,0.25,0.25,0.5,0.0,0.25,-0.48,1.02,-0.05,87.08,-5.5,22.2
4.42,1.0,0.25,0.5,1.25,0.0,0.0,0.25,0.0,0.25,0.25,0.75,0.5,0.25,-0.11,0.95,-0.55,88.27,17.5,11.9,0.0,0.5,1.5,0.75,0.5,0.5,0.25,0.0,0.25,0.25,0.75,0.0,0.25,-0.36,0.95,-0.11,85.83,-13.4,23.5
4.44,1.0,0.5,0.75,1.25,0.0,0.0,0.25,0.0,0.25,0.5,0.75,0.5,0.25,-0.05,0.95,-0.55,89.22,16.8,14.2,0.0,0.5,0.5,0.0,0.25,0.5,0.25,0.0,0.25,0.25,0.5,0.0,0.5,-0.36,0.89,-0.11,73.2,-4.5,-1.2
4.46,1.0,0.25,0.75,1.25,0.0,0.0,0.25,0.0,0.0,0.25,0.75,0.5,0.0,0.02,0.89,-0.55,85.03,20.5,23.5,0.0,0.5,0.5,0.0,1.25,0.5,0.25,0.0,0.25,0.25,1.0,0.0,0.5,-0.36,0.89,-0.11,72.4,-3.3,4.1
4.48,1.0,0.5,0.75,1.25,0.0,0.0,0.25,0.0,0.25,0.5,1.0,0.5,0.25,0.08,0.89,-0.48,88.92,16.6,10.6,0.0,0.75,1.25,0.25,0.5,0.5,0.25,0.0,0.25,0.25,1.0,0.0,0.25,-0.36,0.89,-0.11,73.65,-11.6,17.4
4.5,1.0,0.5,0.5,1.0,0.0,0.0,0.25,0.0,0.0,0.25,0.75,0.75,0.25,0.14,0.89,-0.48,85.96,17.1,10.5,0.0,0.5,0.75,1.0,0.0,0.5,0.25,0.0,0.25,0.25,0.5,0.0,0.5,-0.36,0.95,-0.11,74.43,-10.0,12.8
4.52,1.25,0.5,0.25,1.25,0.0,0.0,0.25,0.0,0.25,0.25,0.75,0.75,0.0,0.14,0.89,-0.48,86.26,18.2,17.7,0.0,0.5,0.5,0.5,0.5,0.5,0.25,0.0,0.25,0.25,0.75,0.0,0.5,-0.36,0.95,-0.11,71.24,-5.8,5.2
4.54,1.25,0.5,0.5,1.25,0.0,0.0,0.25,0.75,0.0,0.25,0.75,0.5,0.0,0.14,0.89,-0.48,87.57,15.2,20.2,0.0,0.75,0.5,0.5,0.5,0.5,0.25,0.0,0.25,0.25,0.75,0.0,0.25,-0.42,0.95,-0.11,70.33,-7.4,17.2
4.56,1.25,0.5,0.5,1.0,0.0,0.0,0.25,0.0,0.0,0.25,0.75,0.5,0.0,0.14,0.89,-0.48,86.03,20.1,27.3,0.0,0.5,1.0,0.5,0.5,0.5,0.25,0.0,0.25,0.25,0.75,0.0,0.25,-0.42,0.95,-0.11,69.46,-10.4,17.5
4.58,1.25,0.25,0.75,1.25,0.0,0.0,0.25,0.0,0.25,0.25,0.75,0.5,0.0,0.14,0.89,-0.48,85.49,20.8,23.9,0.0,0.75,1.25,0.5,0.5,0.5,0.5,0.0,0.25,0.25,1.25,0.0,0.25,-0.42,0.95,-0.11,77.86,-12.2,15.5
4.6,1.0,0.25,1.0,1.25,0.0,0.0,0.25,0.0,0.25,0.5,0.75,0.5,0.25,0.08,0.89,-0.48,87.21,17.9,12.5,0.0,0.75,0.5,0.25,1.75,0.75,0.5,0.0,0.25,0.25,0.5,0.0,0.0,-0.42,0.89,-0.11,84.3,-4.2,35.8
4.62,1.25,0.25,0.5,1.25,0.0,0.0,0.25,0.0,0.0,0.25,0.75,0.5,0.0,0.08,0.95,-0.48,85.08,20.3,25.1,0.0,0.75,0.75,0.5,0.5,0.75,0.5,0.0,0.25,0.25,0.75,0.0,0.0,-0.42,0.89,-0.11,85.62,-9.3,27.4
4.64,1.25,0.25,0.5,1.0,0.0,0.0,0.25,0.0,0.0,0.25,0.75,0.75,0.25,0.08,0.95,-0.48,83.19,18.2,10.0,0.0,0.5,0.5,0.5,0.5,0.5,0.25,0.0,0.25,0.0,0.75,0.0,0.0,-0.42,0.89,-0.11,78.68,-10.0,26.7
4.66,0.75,0.0,0.0,0.75,0.0,0.0,0.25,0.0,0.0,0.5,0.75,0.5,0.25,0.02,1.02,-0.48,72.52,11.9,-16.2,0.0,0.5,0.5,0.5,1.0,0.5,0.25,0.0,0.25,0.25,1.0,0.0,0.25,-0.42,0.95,-0.11,76.92,-6.0,12.7
4.68,1.25,0.5,1.25,0.75,0.0,0.0,0.25,0.0,0.0,0.25,0.75,0.5,0.25,0.08,0.95,-0.48,75.2,21.1,24.2,0.0,0.75,0.0,0.0,0.5,0.5,0.5,0.0,0.25,0.25,0.5,0.0,0.0,-0.42,0.95,-0.11,66.48,-2.9,21.4
4.7,1.25,0.25,0.5,0.5,0.0,0.0,0.0,0.0,0.25,0.25,1.0,0.5,0.25,0.14,0.89,-0.42,72.69,17.7,3.6,0.0,0.25,0.75,0.5,0.25,0.5,0.0,0.0,0.25,0.25,1.25,0.0,0.25,-0.42,0.95,-0.11,63.54,-9.0,-3.1
4.72,1.25,0.25,0.5,0.5,0.0,0.0,0.25,0.0,0.0,0.5,1.25,0.5,0.25,0.14,0.89,-0.42,75.42,16.4,-1.4,0.0,0.25,1.25,0.5,0.5,0.5,0.25,0.0,0.25,0.25,0.75,0.0,0.25,-0.42,0.95,-0.11,64.91,-11.8,15.5
4.74,1.0,0.5,0.5,0.75,0.0,0.0,0.25,0.0,0.0,0.25,1.0,0.5,0.0,0.14,0.89,-0.42,74.3,19.0,16.5,0.0,0.5,1.0,0.25,0.5,0.75,0.25,0.0,0.25,0.25,0.5,0.0,0.0,-0.42,0.95,-0.11,67.65,-9.6,29.1
4.76,0.75,0.5,0.5,0.75,0.0,0.0,0.25,0.0,0.0,0.5,0.75,0.5,0.5,0.14,0.89,-0.42,74.67,13.4,-0.8,0.0,0.5,0.5,0.0,1.0,0.5,0.25,0.0,0.25,0.25,1.25,0.0,0.5,-0.42,0.95,-0.11,70.78,-4.1,-2.5
4.78,0.5,0.0,0.5,0.75,0.0,0.0,0.25,0.0,0.0,0.25,0.75,0.5,0.25,0.14,0.95,-0.48,66.62,16.1,-8.4,0.0,0.5,0.75,0.5,1.5,0.5,0.25,0.0,0.25,0.25,0.75,0.0,0.5,-0.36,0.89,-0.11,79.11,-5.4,17.1
4.8,1.0,0.0,0.5,0.5,0.0,0.0,0.25,0.0,0.25,0.25,0.75,0.5,0.25,0.14,0.95,-0.48,63.79,17.9,-2.3,0.0,0.75,0.5,0.25,1.25,0.5,0.25,0.0,0.25,0.25,1.0,0.0,0.25,-0.36,0.95,-0.11,83.19,-5.3,16.9
4.82,1.0,0.0,0.5,0.25,0.0,0.0,0.25,0.0,0.25,0.5,0.75,0.5,0.25,0.14,0.95,-0.48,60.12,15.9,-10.7,0.0,0.75,1.0,0.0,1.25,0.5,0.25,0.0,0.25,0.25,0.75,0.0,0.25,-0.42,0.95,-0.11,85.99,-7.6,23.4
4.84,0.75,0.5,0.5,0.5,0.0,0.0,0.25,0.0,0.0,0.0,0.75,0.25,0.25,0.14,0.89,-0.42,58.14,19.4,20.5,0.0,0.75,0.5,0.5,0.25,0.5,0.25,0.0,0.25,0.25,0.75,0.0,0.25,-0.42,0.95,-0.11,81.68,-8.1,14.7
4.86,0.5,0.5,0.5,0.75,0.0,0.0,0.25,0.0,0.0,0.0,0.75,0.0,0.25,0.14,0.89,-0.48,56.25,18.9,27.7,0.0,0.5,0.5,0.0,0.5,0.5,0.25,0.25,0.25,0.25,1.0,0.0,0.25,-0.42,0.95,-0.11,76.6,-4.5,-1.5
4.88,0.25,0.25,0.5,0.75,0.0,0.0,0.25,0.25,0.0,0.25,0.75,0.5,0.25,0.14,0.89,-0.48,56.24,12.6,-9.6,0.0,0.5,0.5,0.0,1.25,0.5,0.25,0.0,0.25,0.25,0.75,0.0,0.0,-0.42,0.95,-0.11,72.05,-4.9,22.3
4.9,0.5,0.25,0.5,0.75,0.0,0.0,0.25,0.0,0.0,0.25,0.75,0.25,0.25,0.14,0.89,-0.48,55.64,16.3,6.1,0.0,0.75,0.75,0.25,0.5,0.5,0.25,0.0,0.25,0.25,0.75,0.0,0.25,-0.42,0.95,-0.11,70.46,-8.6,17.4
4.92,0.0,0.5,0.5,0.75,0.0,0.0,0.25,0.0,0.0,0.5,0.75,0.25,0.25,0.14,0.95,-0.48,53.9,11.5,-4.6,0.0,0.5,0.5,0.0,1.75,0.5,0.25,0.0,0.25,0.25,0.5,0.0,0.25,-0.42,0.95,-0.11,73.98,-2.7,23.9
4.94,0.0,0.25,0.25,0.75,0.0,0.0,0.25,0.0,0.25,0.5,0.25,0.5,0.25,0.14,0.95,-0.48,51.69,9.2,-18.4,0.0,0.5,0.5,0.25,0.5,0.5,0.25,0.0,0.25,0.25,0.75,0.0,0.0,-0.42,0.95,-0.11,69.0,-7.8,17.5
4.96,0.0,0.25,0.5,0.75,0.0,0.0,0.25,0.25,0.25,0.25,0.75,0.5,0.25,0.14,0.95,-0.48,52.86,11.2,-17.9,0.0,0.75,1.5,0.0,1.5,0.5,0.25,0.0,0.25,0.25,0.75,0.0,0.75,-0.42,0.95,-0.11,80.66,-7.9,17.3
4.98,0.0,0.25,0.75,0.5,0.0,0.0,0.25,0.75,0.0,0.25,0.75,0.75,0.25,0.14,0.95,-0.48,56.7,9.1,-24.2,0.0,0.5,1.0,0.0,0.0,0.5,0.25,0.0,0.25,0.25,0.75,0.0,0.25,-0.42,0.95,-0.11,73.85,-11.7,6.0
5.0,0.0,0.25,0.25,0.5,0.0,0.0,0.25,0.75,0.25,0.25,0.75,0.5,0.25,0.14,0.89,-0.48,58.96,5.4,-30.9,0.0,0.5,0.75,0.25,0.5,0.5,0.25,0.0,0.25,0.25,1.25,0.0,0.25,-0.42,0.95,-0.11,74.61,-8.6,3.3
5.02,0.25,0.25,0.5,0.75,0.0,0.0,0.25,0.5,0.0,0.25,0.5,0.25,0.25,0.14,0.89,-0.48,60.09,10.9,-0.5,0.0,0.5,0.5,0.0,1.0,0.5,0.25,0.0,0.25,0.25,0.75,0.0,0.0,-0.42,0.95,-0.11,67.86,-5.5,20.1
5.04,0.0,0.25,0.5,0.75,0.0,0.0,0.25,0.75,0.0,0.25,0.0,0.5,0.25,0.14,0.89,-0.48,57.61,7.2,-7.3,0.0,0.5,0.5,0.25,1.0,0.5,0.5,0.0,0.25,0.25,0.75,0.0,0.25,-0.42,0.95,-0.11,70.56,-5.8,15.2
5.06,0.0,0.25,1.0,0.75,0.0,0.0,0.25,0.75,0.0,0.25,0.0,0.5,0.25,0.14,0.95,-0.48,58.59,11.2,1.5,0.0,0.75,0.75,0.25,1.25,0.5,0.25,0.0,0.25,0.25,0.75,0.0,0.25,-0.42,0.95,-0.11,74.65,-6.6,23.3
5.08,0.0,0.25,0.5,0.5,0.0,0.0,0.25,0.0,0.25,0.25,0.0,0.75,0.25,0.14,0.95,-0.48,53.72,13.0,-16.4,0.0,0.75,0.5,0.0,1.0,0.5,0.25,0.0,0.25,0.25,1.0,0.0,0.25,-0.42,0.95,-0.11,78.41,-5.1,12.5
5.1,0.0,0.25,0.5,0.5,0.0,0.0,0.25,0.0,0.0,0.25,0.0,0.5,0.25,0.14,0.95,-0.48,47.91,13.5,-4.6,0.0,0.5,0.5,0.0,1.5,0.5,0.25,0.0,0.25,0.25,0.75,0.0,0.25,-0.42,0.95,-0.11,79.94,-3.5,17.2
5.12,0.0,0.5,1.0,0.75,0.0,0.0,0.25,0.5,0.0,0.25,0.0,0.5,0.25,0.14,0.89,-0.48,50.23,13.1,10.4,0.0,0.75,0.5,0.25,1.25,0.5,0.25,0.0,0.25,0.25,0.75,0.0,0.0,-0.42,0.95,-0.11,79.26,-6.0,28.4
5.14,0.0,0.25,0.75,0.5,0.0,0.0,0.25,0.5,0.0,0.25,0.0,0.75,0.25,0.14,0.89,-0.48,50.87,10.6,-12.3,0.0,0.75,0.5,0.0,1.5,0.5,0.25,0.0,0.25,0.25,0.75,0.0,0.0,-0.42,0.95,-0.11,79.46,-4.9,28.3
5.16,0.0,0.25,0.75,0.75,0.0,0.0,0.25,0.75,0.25,0.25,0.5,0.5,0.25,0.14,0.89,-0.48,57.91,9.6,-12.5,0.0,0.5,1.0,0.5,0.0,0.5,0.25,0.0,0.25,0.25,0.75,0.0,0.0,-0.42,0.95,-0.11,73.7,-14.1,20.6
5.18,0.0,0.25,0.5,0.75,0.0,0.0,0.25,0.75,0.25,0.25,0.5,0.5,0.25,0.14,0.89,-0.48,61.33,7.9,-17.1,0.0,0.75,1.0,0.25,0.5,0.5,0.25,0.0,0.25,0.25,0.75,0.0,0.25,-0.42,0.89,-0.11,73.94,-10.2,19.7
5.2,0.0,0.5,0.75,0.75,0.0,0.0,0.0,0.5,0.25,0.5,0.25,0.25,0.25,0.14,0.95,-0.48,64.27,9.2,0.7,0.0,0.5,0.5,0.0,1.25,0.5,0.25,0.0,0.25,0.25,0.75,0.0,0.5,-0.42,0.95,-0.11,72.61,-2.9,8.2
5.22,0.5,0.5,0.0,0.75,0.0,0.0,0.25,0.0,0.0,0.5,0.75,0.5,0.25,0.14,0.89,-0.48,63.19,10.6,-7.7,0.0,0.5,0.75,0.0,0.5,0.5,0.5,0.0,0.25,0.25,0.75,0.0,0.0,-0.42,0.95,-0.11,70.99,-10.0,18.0
5.24,0.25,0.25,0.25,0.75,0.0,0.0,0.25,0.0,0.0,0.5,1.0,0.5,0.25,0.14,0.89,-0.48,62.88,10.8,-20.8,0.0,0.5,1.5,0.25,0.5,0.5,0.25,0.0,0.25,0.25,0.75,0.0,0.0,-0.42,0.95,-0.11,71.35,-14.4,27.0
5.26,0.0,0.25,0.5,0.75,0.0,0.0,0.25,0.5,0.0,0.25,0.0,0.5,0.25,0.14,0.89,-0.48,58.54,9.0,-4.8,0.0,0.5,0.5,0.25,1.0,0.5,0.0,0.0,0.25,0.25,0.75,0.0,0.25,-0.42,0.95,-0.11,70.59,-4.4,14.5
5.28,0.0,0.25,0.5,0.5,0.0,0.0,0.25,0.0,0.0,0.25,0.0,0.5,0.5,0.14,0.89,-0.48,51.98,10.9,-14.7,0.0,0.5,0.75,0.0,1.0,0.5,0.25,0.0,0.25,0.25,0.75,0.0,0.0,-0.42,0.95,-0.11,69.67,-7.5,22.5
5.3,0.0,0.25,0.25,0.75,0.0,0.0,0.25,0.0,0.0,0.5,0.0,0.5,0.25,0.14,0.89,-0.48,46.19,8.8,-11.4,0.0,0.25,0.5,0.0,0.0,0.5,0.25,0.0,0.25,0.25,0.75,0.0,0.0,-0.42,0.95,-0.11,58.45,-8.8,-2.6
5.32,0.0,0.25,0.75,0.75,0.0,0.0,0.25,0.0,0.0,0.25,0.0,0.5,0.25,0.14,0.89,-0.48,44.53,16.0,6.6,0.0,0.5,0.5,0.25,0.5,0.5,0.25,0.0,0.25,0.25,0.5,0.0,0.25,-0.42,0.95,-0.11,56.38,-6.1,14.7
5.34,0.25,0.25,1.25,0.5,0.0,0.0,0.25,0.0,0.0,0.25,0.0,0.5,0.25,0.14,0.89,-0.48,46.57,20.5,17.1,0.0,0.75,0.75,0.25,1.25,0.5,0.0,0.0,0.25,0.25,0.5,0.0,0.25,-0.42,0.95,-0.11,60.84,-5.8,28.0
5.36,0.5,0.25,0.75,0.75,0.0,0.0,0.25,0.0,0.0,0.25,0.0,0.5,0.25,0.14,0.95,-0.48,48.84,18.6,19.1,0.0,0.75,1.0,0.0,0.5,0.75,0.25,0.0,0.25,0.25,0.75,0.0,0.0,-0.42,0.95,-0.11,66.14,-9.4,25.8
5.38,0.5,0.5,0.5,0.75,0.0,0.0,0.25,0.0,0.0,0.5,0.75,0.5,0.25,0.14,0.95,-0.48,56.96,13.8,0.3,0.0,0.75,1.0,0.0,0.0,0.5,0.25,0.0,0.25,0.25,0.25,0.0,0.25,-0.42,0.95,-0.11,65.11,-11.9,24.7
5.4,0.25,0.5,0.75,0.5,0.0,0.0,0.25,0.0,0.0,0.25,0.5,0.5,0.25,0.14,0.95,-0.48,58.58,16.2,4.4,0.0,0.75,1.75,0.0,1.25,0.5,0.25,0.0,0.25,0.25,0.75,0.0,0.25,-0.42,0.95,-0.11,77.15,-11.5,28.1
5.42,0.5,0.25,0.5,0.75,0.0,0.0,0.25,0.0,0.0,0.25,0.5,0.25,0.25,0.14,0.95,-0.48,59.07,16.7,11.9,0.0,0.5,0.5,0.25,1.75,0.5,0.25,0.0,0.25,0.5,0.75,0.0,0.0,-0.42,0.95,-0.11,81.71,-3.7,22.9
5.44,0.5,0.25,0.5,0.5,0.0,0.0,0.25,0.0,0.0,0.25,0.75,0.5,0.25,0.14,0.89,-0.48,58.02,15.7,-5.6,0.0,0.75,0.75,0.0,1.5,0.5,0.25,0.5,0.25,0.25,1.0,0.0,0.25,-0.42,0.95,-0.11,91.16,-3.9,14.2
5.46,0.5,0.5,0.25,0.5,0.0,0.0,0.25,0.0,0.0,0.25,0.75,0.5,0.25,0.14,0.89,-0.48,57.98,13.9,-2.9,0.0,0.5,0.75,0.25,0.5,0.5,0.25,0.0,0.25,0.25,0.5,0.0,0.0,-0.42,0.95,-0.11,84.56,-9.7,26.6
5.48,0.5,0.25,0.5,0.5,0.0,0.0,0.25,1.0,0.0,0.25,0.75,0.5,0.25,0.14,0.89,-0.48,62.96,8.7,-12.8,0.0,0.5,0.5,0.5,0.0,0.5,0.25,0.0,0.25,0.25,0.75,0.0,0.25,-0.36,0.95,-0.11,76.26,-8.7,5.6
5.5,0.5,0.25,0.75,0.5,0.0,0.0,0.25,0.75,0.0,0.25,0.0,0.5,0.25,0.14,0.95,-0.48,65.1,11.9,5.4,0.0,0.5,1.0,0.0,0.25,0.5,0.25,0.0,0.25,0.25,0.75,0.0,0.25,-0.42,0.95,-0.11,67.33,-10.6,9.5
5.52,0.5,0.5,0.5,0.5,0.0,0.0,0.25,0.25,0.0,0.25,0.0,0.25,0.25,0.14,0.89,-0.48,63.12,14.6,24.6,0.0,0.75,1.0,0.5,0.25,0.5,0.0,0.0,0.25,0.25,0.75,0.0,0.0,-0.42,0.95,-0.11,66.39,-12.3,27.3
5.54,0.5,0.25,0.25,0.5,0.0,0.0,0.25,0.25,0.0,0.25,0.0,0.25,0.25,0.14,0.89,-0.48,55.32,12.5,13.8,0.0,0.25,0.75,0.0,0.5,0.5,0.25,0.0,0.25,0.25,0.75,0.0,0.25,-0.42,0.95,-0.11,63.49,-7.4,3.1
5.56,0.5,0.25,0.5,0.5,0.0,0.0,0.25,0.5,0.0,0.25,0.0,0.25,0.25,0.14,0.95,-0.48,50.95,12.2,13.5,0.0,0.5,0.5,0.25,1.0,0.5,0.5,0.0,0.25,0.25,0.5,0.0,0.25,-0.42,0.95,-0.11,64.75,-5.5,20.2
5.58,0.5,0.25,0.5,0.75,0.0,0.0,0.25,0.25,0.0,0.5,0.0,0.5,0.25,0.14,0.95,-0.48,50.58,12.4,5.7,0.0,0.5,0.5,0.5,1.25,0.5,0.5,0.0,0.25,0.25,0.75,0.0,0.0,-0.42,0.95,-0.11,68.78,-6.9,26.2
