time,left pressure 0[N/cm²],left pressure 1[N/cm²],left pressure 2[N/cm²],left pressure 3[N/cm²],left pressure 4[N/cm²],left pressure 5[N/cm²],left pressure 6[N/cm²],left pressure 7[N/cm²],left pressure 8[N/cm²],left pressure 9[N/cm²],left pressure 10[N/cm²],left pressure 11[N/cm²],left pressure 12[N/cm²],left acceleration X[g],left acceleration Y[g],left acceleration Z[g],left total force[N],left center of pressure X[mm],left center of pressure Y[mm],right pressure 0[N/cm²],right pressure 1[N/cm²],right pressure 2[N/cm²],right pressure 3[N/cm²],right pressure 4[N/cm²],right pressure 5[N/cm²],right pressure 6[N/cm²],right pressure 7[N/cm²],right pressure 8[N/cm²],right pressure 9[N/cm²],right pressure 10[N/cm²],right pressure 11[N/cm²],right pressure 12[N/cm²],right acceleration X[g],right acceleration Y[g],right acceleration Z[g],right total force[N],right center of pressure X[mm],right center of pressure Y[mm]
0.02,1.5,0.25,0.25,0.0,0.0,0.0,0.0,1.25,0.0,0.5,0.75,0.0,0.5,-0.48,1.64,0.45,63.91,6.9,-3.9,1.0,0.25,1.0,0.25,0.25,1.75,0.25,0.5,0.5,2.5,0.75,0.5,1.25,-0.48,1.14,1.2,36.58,0.1,-19.7
0.04,0.5,0.5,0.25,1.25,0.0,0.0,0.0,1.5,0.5,0.5,0.75,0.25,0.25,-0.86,0.77,0.95,73.5,5.5,-5.9,1.0,0.25,1.0,0.5,1.25,1.75,0.5,1.0,0.5,2.0,0.75,0.5,1.5,0.08,0.7,1.2,65.05,0.1,-11.1
0.06,2.75,0.25,0.25,1.25,0.0,0.0,0.0,2.0,0.25,0.25,0.0,0.25,0.25,-0.05,0.14,0.95,90.84,12.1,27.9,1.0,0.0,0.75,0.5,1.25,1.25,0.0,1.0,0.5,2.25,0.5,0.5,0.5,0.08,0.83,0.83,83.21,0.4,-8.8
0.08,2.75,0.0,0.25,2.0,0.0,0.0,0.0,1.75,0.25,0.25,0.75,0.5,0.25,-0.42,0.52,0.95,112.93,13.2,17.8,1.0,0.0,1.0,0.5,1.0,1.25,0.25,1.0,0.5,1.5,1.0,0.5,1.0,-0.11,0.83,0.83,99.87,-1.9,-11.6
0.1,3.75,0.25,0.25,3.25,0.0,0.0,0.0,1.75,0.25,0.5,0.75,0.5,0.5,-0.55,0.77,1.52,144.61,14.1,25.7,1.0,0.0,1.0,0.5,0.25,1.25,0.25,0.75,0.5,1.5,1.25,0.25,1.5,-0.17,0.58,1.2,110.88,-2.1,-21.0
0.12,4.75,0.25,0.0,3.75,0.0,0.0,0.0,1.75,0.5,0.5,0.5,0.0,0.5,-0.17,0.27,0.77,171.79,15.6,37.9,1.0,0.0,0.75,0.5,1.25,1.0,0.25,0.75,0.5,1.25,0.75,0.25,1.0,-0.23,0.52,1.33,121.33,-2.0,-6.0
0.14,3.75,0.5,1.0,5.25,0.0,0.5,0.0,1.5,0.25,0.5,0.25,0.25,0.5,-0.3,0.27,1.52,201.88,15.4,40.8,1.0,0.0,1.0,0.5,1.25,1.25,0.25,0.5,0.5,1.25,0.75,0.25,0.75,-0.23,0.52,1.27,126.36,-3.3,0.6
0.16,0.0,0.75,0.0,7.0,0.0,0.0,0.0,1.75,0.0,0.5,0.0,0.25,0.5,-0.17,0.2,1.14,206.88,8.4,28.0,1.0,0.0,0.75,0.5,1.25,0.75,0.25,0.5,0.5,1.25,0.75,0.25,1.0,-0.17,0.45,1.2,128.82,-3.2,-6.2
0.18,6.0,1.0,0.0,8.5,0.0,0.0,0.0,0.0,0.0,0.5,0.0,0.0,0.5,-0.17,0.2,1.02,234.01,20.9,64.7,1.0,0.0,1.0,0.5,1.25,1.25,0.5,0.75,0.5,1.25,0.5,0.0,1.0,-0.05,0.33,1.27,136.7,-2.3,1.7
0.2,5.75,0.75,0.0,7.75,0.0,0.0,0.5,1.25,0.0,0.75,0.0,0.25,0.0,-0.23,0.14,1.2,250.72,18.7,56.5,1.0,0.0,1.0,0.5,1.25,1.0,0.25,0.5,0.5,1.25,0.75,0.25,0.75,0.02,0.27,1.2,135.82,-4.0,-0.2
0.22,7.0,1.5,0.0,8.5,0.0,3.75,1.0,2.25,0.0,0.75,0.0,0.5,0.5,-0.23,0.14,1.02,298.81,11.3,47.4,1.0,0.0,1.0,0.5,1.5,1.25,0.5,0.75,0.5,1.25,0.75,0.0,0.75,0.08,0.2,1.14,136.42,-2.8,4.3
0.24,7.0,1.25,2.0,8.5,8.25,4.5,1.5,3.25,1.75,0.75,2.0,1.5,1.25,-0.11,0.08,1.02,435.72,7.8,31.6,1.0,0.25,1.0,0.5,1.0,1.0,0.25,0.5,0.5,1.25,0.5,0.25,1.0,0.14,0.08,1.08,133.97,-3.8,-0.2
0.26,6.5,1.75,3.25,8.5,8.25,4.25,2.0,4.25,2.75,1.5,3.25,1.5,1.25,-0.17,0.02,1.02,618.97,7.9,25.3,1.0,0.0,1.0,0.5,1.25,1.0,0.25,0.75,0.5,0.0,0.75,0.0,0.75,0.14,0.02,1.02,129.11,-6.3,14.1
0.28,6.25,1.5,3.25,7.75,8.25,4.5,1.75,4.75,3.0,2.0,3.5,1.5,1.25,-0.11,0.02,0.95,774.51,7.0,21.6,1.0,0.0,1.0,0.5,1.25,1.25,0.25,0.75,0.5,1.25,0.75,0.0,0.75,0.2,-0.05,0.95,129.08,-2.6,2.5
0.3,6.0,1.5,2.0,7.5,8.25,4.5,1.5,5.0,2.75,2.25,3.5,1.5,1.25,-0.17,0.02,0.95,853.77,5.6,19.4,1.0,0.25,0.75,0.5,1.25,1.25,0.75,0.75,0.5,1.0,0.75,0.0,0.75,0.14,-0.11,0.89,132.37,-3.1,6.3
0.32,6.0,1.25,2.0,7.25,8.25,4.25,1.5,5.0,2.75,1.75,3.25,1.5,1.25,-0.17,0.08,0.95,869.94,5.9,20.2,1.0,0.0,1.0,0.5,1.25,0.75,0.0,0.25,0.5,1.25,0.25,0.0,0.75,0.08,-0.11,0.83,128.23,-4.4,7.8
0.34,5.5,1.5,2.0,7.0,8.0,4.5,1.25,5.0,2.5,0.75,3.5,1.5,1.25,-0.17,0.08,0.95,838.26,5.8,21.4,1.0,0.0,1.0,0.5,1.25,0.75,0.0,0.5,0.5,1.25,1.0,0.0,0.5,0.2,-0.17,0.95,127.13,-4.9,2.8
0.36,5.0,1.5,1.75,7.0,7.75,4.5,1.25,5.0,2.25,1.0,3.25,1.5,1.25,-0.11,0.08,0.95,799.85,5.2,20.5,1.0,0.0,1.0,0.5,1.25,0.75,0.0,0.75,0.5,1.25,0.75,0.0,0.75,0.14,-0.17,0.89,126.56,-3.6,0.4
0.38,4.25,1.25,1.25,7.0,7.5,4.25,1.25,4.75,2.0,1.25,3.25,1.5,1.25,-0.11,0.08,0.95,750.53,4.4,18.0,1.0,0.0,0.75,0.5,1.0,0.75,0.25,0.5,0.5,1.25,1.0,0.0,0.75,0.2,-0.11,0.83,124.63,-4.0,-3.9
0.4,4.0,1.25,1.75,5.25,7.25,4.25,0.75,5.0,2.0,2.0,3.25,1.5,1.25,-0.11,0.08,0.95,697.32,3.5,13.8,1.0,0.0,1.0,0.5,0.25,1.0,0.25,0.5,0.25,1.25,0.75,0.0,1.0,0.2,-0.17,0.77,120.03,-4.1,-7.3
0.42,3.5,0.5,1.75,5.0,7.25,4.25,0.75,5.0,2.25,2.5,3.5,2.0,1.25,-0.17,0.08,0.95,640.37,2.8,7.4,1.0,0.25,1.0,0.5,1.25,0.75,0.0,0.5,0.5,1.25,0.75,0.0,0.75,0.27,-0.23,0.77,121.99,-4.4,4.5
0.44,2.75,0.75,1.25,5.0,7.0,4.25,0.75,5.0,2.25,2.5,3.5,2.5,1.25,-0.17,0.08,0.95,591.54,1.9,3.8,1.0,0.0,0.75,0.5,0.5,0.5,0.25,0.5,0.25,1.25,1.25,0.0,0.5,0.27,-0.23,0.64,116.05,-6.0,-7.3
0.46,2.75,0.75,1.5,4.0,7.0,4.25,0.75,5.5,2.25,2.5,4.0,2.5,1.25,-0.17,0.08,0.95,548.31,1.6,1.2,1.0,0.0,1.0,0.5,1.0,0.75,0.25,0.0,0.25,1.0,0.75,0.0,0.5,1.02,-1.23,0.95,111.75,-7.6,11.1
0.48,3.0,0.5,1.25,3.5,7.0,4.25,0.5,5.75,2.25,3.5,4.75,3.25,1.75,-0.17,0.08,0.95,528.59,0.8,-6.7,1.0,0.0,0.5,0.5,1.25,0.5,0.0,0.75,0.25,1.0,0.25,0.0,0.25,0.64,-0.8,1.83,104.95,-3.0,13.4
0.5,2.75,0.5,1.25,3.75,7.0,4.5,0.5,6.0,2.0,4.25,5.0,3.5,2.5,-0.17,0.08,0.95,544.65,0.0,-10.6,1.0,0.25,0.5,0.5,1.0,0.5,0.25,0.5,0.5,1.0,0.5,0.0,0.25,0.33,-0.92,1.39,102.25,-5.5,12.0
0.52,2.75,0.5,1.25,3.5,7.0,4.5,0.5,6.25,2.25,4.25,5.0,3.5,2.5,-0.17,0.08,0.95,568.72,0.0,-11.3,1.25,0.25,0.75,1.25,1.5,0.75,0.0,0.25,0.25,1.25,0.75,0.0,0.25,0.58,-0.98,1.52,109.74,-6.6,21.0
0.54,2.5,0.5,1.0,3.25,6.75,4.5,0.5,6.25,2.25,4.25,5.5,3.75,2.75,-0.17,0.08,0.95,588.87,-0.4,-14.9,1.75,0.25,0.75,2.25,2.75,2.5,0.25,0.75,0.25,1.0,0.75,0.0,0.25,0.08,0.14,1.58,146.58,-3.5,31.1
0.56,2.5,0.5,1.0,3.5,6.5,4.5,0.5,6.25,1.75,4.25,5.5,4.25,3.0,-0.17,0.08,0.95,602.15,-0.4,-16.3,2.0,0.5,1.0,3.25,4.5,3.25,0.5,0.25,0.5,1.0,0.25,0.0,0.5,0.2,0.27,1.2,199.69,-4.0,39.5
0.58,2.25,0.5,1.0,3.75,6.5,4.5,0.5,6.5,1.75,4.5,5.5,4.25,3.25,-0.17,0.08,0.95,614.13,-0.8,-17.5,2.5,0.75,1.0,3.25,2.5,1.75,0.75,0.5,0.5,1.25,0.25,0.0,0.0,0.02,0.02,1.27,228.27,-8.9,42.5
0.6,2.0,0.5,1.0,3.25,6.25,4.25,0.5,6.5,2.0,4.25,5.5,4.0,3.75,-0.17,0.08,0.95,616.05,-1.1,-20.0,3.5,0.75,3.75,3.25,4.25,3.75,1.75,0.75,0.5,1.5,0.75,0.75,0.25,0.08,0.14,1.02,284.45,-9.6,36.2
0.62,2.0,0.5,0.5,3.25,6.25,4.5,0.5,6.5,1.75,4.25,5.5,4.25,3.75,-0.17,0.08,0.95,615.35,-1.7,-21.1,3.75,0.75,3.75,3.25,5.25,4.5,1.75,2.0,1.75,2.5,2.5,2.0,1.5,0.08,0.14,0.95,369.41,-6.2,12.6
0.64,1.5,0.5,1.0,3.25,6.25,4.5,0.5,6.5,1.5,4.75,5.5,4.25,3.75,-0.17,0.08,0.95,612.42,-1.8,-21.9,3.75,0.75,3.0,3.25,5.25,5.25,2.0,3.5,1.75,5.25,4.5,3.5,2.75,0.02,0.02,1.02,504.84,-2.8,-6.7
0.66,1.75,0.5,0.5,3.0,6.25,4.25,0.5,6.5,1.75,5.5,5.5,4.5,3.75,-0.17,0.08,0.95,610.97,-2.2,-24.5,3.5,0.75,2.75,3.25,5.25,5.5,1.75,4.0,2.25,6.25,5.5,4.25,4.0,0.08,0.02,0.95,644.44,-1.6,-15.2
0.68,1.5,0.75,0.5,3.0,5.75,4.5,0.5,6.5,1.75,5.5,5.75,4.5,3.75,-0.17,0.08,0.95,608.99,-2.3,-25.4,2.5,0.75,2.0,2.0,5.25,5.5,1.75,5.0,2.0,6.75,6.25,4.75,5.5,0.14,0.08,0.95,753.57,0.8,-26.2
0.7,1.25,0.5,0.75,3.25,5.75,4.75,0.5,6.75,1.75,5.5,6.0,4.5,3.75,-0.17,0.08,0.95,611.06,-2.4,-25.8,2.0,0.75,1.5,2.0,5.5,5.75,1.25,5.25,1.75,7.5,6.5,5.25,5.75,0.14,0.08,0.95,818.52,2.1,-30.0
0.72,1.0,0.75,0.5,3.25,5.75,4.25,0.5,6.75,1.75,5.75,6.0,5.25,4.75,-0.17,0.08,0.95,621.41,-2.6,-30.3,2.0,0.75,1.0,1.75,5.25,5.5,1.25,5.75,1.75,7.5,6.75,5.5,6.5,0.14,0.08,0.95,851.3,2.7,-34.0
0.74,1.0,0.5,0.5,3.0,5.75,4.25,0.5,6.75,1.75,6.5,6.0,5.25,5.0,-0.17,0.08,0.95,636.7,-3.1,-32.6,2.0,0.5,1.25,1.5,5.5,5.5,1.25,5.75,1.75,7.5,6.5,5.5,6.75,0.08,0.08,0.95,864.11,2.8,-34.4
0.76,1.0,0.75,0.75,2.0,5.5,4.25,0.5,6.75,1.5,6.5,6.25,5.25,5.25,-0.17,0.08,0.95,649.58,-3.3,-34.6,2.0,0.5,1.0,1.75,5.0,5.25,1.5,5.25,1.75,7.25,6.0,5.5,6.75,0.08,0.08,0.95,848.06,2.6,-34.9
0.78,0.75,0.5,0.25,1.75,5.0,4.25,0.5,7.0,1.25,6.25,6.25,5.75,6.0,-0.17,0.08,0.95,657.43,-4.3,-40.6,2.0,0.25,1.25,1.25,4.5,4.5,1.25,5.0,1.75,7.25,6.5,5.5,6.75,0.08,0.08,0.95,815.47,2.3,-38.8
0.8,0.25,0.5,0.25,2.5,5.0,4.25,0.0,7.0,1.25,6.25,6.5,5.75,6.0,-0.17,0.08,0.95,662.18,-4.5,-40.8,2.0,0.25,1.0,1.25,3.5,4.5,1.25,5.0,1.75,7.25,6.5,5.5,6.5,0.08,0.08,0.95,771.17,2.4,-41.3
0.82,1.0,0.5,0.25,1.75,4.5,3.75,0.25,6.75,1.25,6.25,6.25,5.75,6.0,-0.17,0.08,0.95,656.0,-4.0,-42.1,2.0,0.75,1.5,0.75,3.5,4.25,1.25,5.0,1.75,7.5,6.25,5.75,6.75,0.08,0.08,0.95,736.51,2.0,-40.9
0.84,0.0,0.5,0.25,1.5,3.5,3.5,0.5,6.75,1.25,6.5,6.5,5.5,6.0,-0.17,0.08,0.95,641.47,-4.8,-48.6,2.0,0.25,1.75,0.5,2.25,4.5,1.0,5.0,1.75,7.75,6.75,6.25,7.5,0.08,0.08,0.95,705.67,2.3,-47.6
0.86,0.0,0.5,0.25,1.25,3.5,3.25,0.25,6.75,1.25,6.5,6.25,6.0,6.0,-0.17,0.08,0.95,625.4,-4.9,-50.5,2.0,0.25,1.25,0.5,1.75,4.0,1.25,5.0,1.75,8.25,6.75,6.75,7.75,0.08,0.08,0.95,692.12,2.5,-52.0
0.88,0.0,0.25,0.0,1.25,3.5,3.25,0.0,6.5,0.75,6.5,5.5,5.5,6.0,-0.17,0.08,0.95,596.44,-6.0,-51.5,1.25,0.5,1.0,0.5,1.75,3.75,0.75,5.25,1.75,8.25,7.75,7.0,8.25,0.08,0.08,0.95,695.53,3.1,-56.1
0.9,0.0,0.25,0.0,1.0,3.25,2.0,0.0,6.5,0.25,5.5,5.75,5.25,6.0,-0.17,0.08,1.02,555.92,-5.6,-55.2,1.5,0.25,1.0,0.5,1.5,3.75,0.75,5.0,1.75,8.5,7.75,7.75,8.5,0.08,0.08,0.95,710.19,2.9,-58.2
0.92,0.0,0.5,0.0,1.25,2.25,1.75,0.0,6.25,0.25,5.75,5.25,5.25,6.0,-0.17,0.08,1.02,515.39,-5.5,-57.4,1.0,0.25,1.0,0.5,1.5,3.5,0.75,5.25,1.5,9.0,7.75,7.75,9.0,0.08,0.08,0.95,729.5,3.6,-60.9
0.94,0.0,0.25,0.0,1.25,2.0,1.5,0.0,5.75,0.25,5.5,4.75,4.5,6.25,-0.17,0.08,1.27,471.24,-5.9,-59.4,1.0,0.25,1.0,0.5,1.5,3.5,0.75,5.5,1.25,9.25,8.0,8.25,9.0,0.08,0.08,0.95,750.22,3.6,-61.5
0.96,0.0,0.5,0.0,0.75,2.0,1.5,0.0,5.0,0.25,4.0,3.5,3.75,6.0,-0.3,0.14,1.33,411.82,-6.4,-57.3,1.25,0.0,1.0,0.5,1.5,3.25,0.5,5.5,1.25,9.25,8.25,8.5,9.25,0.08,0.08,0.95,771.1,3.4,-62.8
0.98,0.0,0.25,0.0,1.25,2.0,0.75,0.0,4.5,0.25,2.75,2.5,2.5,5.0,-0.36,0.2,1.45,346.15,-6.1,-52.5,1.0,0.5,0.75,0.5,1.25,3.25,0.75,5.5,1.25,9.25,8.25,8.5,9.75,0.08,0.08,0.95,790.95,3.6,-63.5
1.0,0.0,0.5,0.0,1.5,1.75,1.25,0.0,4.0,0.25,1.5,2.0,2.0,3.75,-0.36,0.2,1.45,282.95,-5.4,-41.2,1.0,0.25,0.75,0.5,1.25,3.25,0.5,5.5,1.25,9.25,8.25,8.75,9.75,0.08,0.08,0.95,805.39,3.7,-64.8
1.02,0.0,0.25,0.0,1.25,1.0,1.0,0.0,3.75,0.25,1.25,1.75,1.25,2.5,-0.36,0.08,1.14,222.56,-5.9,-41.6,1.0,0.25,1.0,0.5,1.0,3.25,0.0,5.25,1.25,9.25,8.25,8.75,9.75,0.08,0.08,0.95,809.95,3.6,-65.4
1.04,0.0,0.0,0.0,0.0,1.5,1.0,0.0,3.25,0.0,0.0,1.75,0.5,1.5,-0.17,0.58,1.02,154.09,-8.3,-36.5,1.0,0.0,1.25,0.5,0.5,3.25,0.0,5.0,1.25,9.5,8.25,9.0,9.75,0.08,0.08,0.95,808.22,3.4,-67.4
1.06,0.0,0.0,0.0,0.0,0.0,0.5,0.0,2.25,0.0,0.75,0.25,0.0,0.0,0.2,1.52,0.45,73.61,-15.5,-39.3,1.0,0.25,1.0,0.5,1.25,3.25,0.5,5.0,1.25,9.5,8.25,9.25,10.5,0.08,0.08,0.95,816.31,3.5,-65.6
1.08,0.25,0.0,0.25,0.0,0.0,0.0,0.0,2.5,0.0,0.75,0.0,0.0,0.25,0.14,1.7,0.45,12.82,-9.8,-35.8,1.0,0.0,1.0,0.5,0.5,2.5,0.25,5.0,1.0,9.5,8.5,9.5,11.0,0.08,0.08,0.95,820.31,3.4,-71.0
1.1,0.0,0.0,0.0,1.0,0.0,0.0,0.0,0.0,0.0,1.0,0.0,0.0,0.0,0.95,1.39,1.2,0.0,1.1,-7.2,1.0,0.0,0.75,0.5,1.25,2.25,0.5,5.0,1.0,9.5,8.5,9.5,11.0,0.08,0.08,0.95,827.07,3.5,-69.8
1.12,0.0,0.0,0.0,0.0,0.0,0.0,0.0,0.0,0.0,0.0,0.0,0.0,0.0,0.27,0.89,1.14,0.0,0.0,0.0,1.0,0.0,1.0,0.5,1.25,2.0,0.25,5.0,1.0,9.75,8.5,9.5,11.0,0.08,0.08,0.95,829.37,3.3,-69.9
1.14,0.0,0.0,0.0,0.0,0.0,0.0,0.0,0.0,0.0,0.0,0.0,0.0,0.0,-0.23,0.83,0.95,0.0,0.0,0.0,1.0,0.0,1.75,0.5,1.25,1.75,0.25,4.75,0.75,9.75,8.5,9.5,11.0,0.08,0.08,0.95,829.88,2.6,-68.6
1.16,0.0,0.0,0.0,0.0,0.0,0.0,0.0,0.0,0.0,0.0,0.0,0.0,0.0,-0.23,0.64,0.77,0.0,0.0,0.0,1.75,0.25,0.75,0.5,1.5,1.25,0.5,5.0,0.75,9.75,8.25,9.5,11.0,0.08,0.08,0.95,826.15,2.7,-68.0
1.18,0.0,0.0,0.0,0.0,0.0,0.0,0.0,0.0,0.0,0.0,0.0,0.0,0.0,-0.05,0.52,1.14,0.0,0.0,0.0,1.0,0.25,0.75,0.25,1.25,1.25,0.5,4.75,0.75,9.5,8.25,9.5,11.5,0.08,0.08,0.95,817.79,3.3,-72.3
1.2,0.0,0.0,0.0,0.0,0.0,0.0,0.0,0.0,2.75,1.75,0.0,0.5,0.0,0.02,0.27,1.33,0.0,2.0,-58.7,1.0,0.0,0.75,0.5,1.25,1.0,0.75,4.25,0.5,9.5,8.25,9.5,11.0,0.08,0.08,0.95,801.14,2.9,-72.9
1.22,0.25,0.0,0.0,0.5,0.75,2.25,2.75,5.25,2.25,0.0,1.0,0.0,0.75,-0.11,0.14,1.27,52.51,-3.7,-16.7,1.0,0.0,0.25,0.5,0.5,1.0,0.25,4.0,0.5,9.5,8.0,9.25,11.0,0.08,0.08,0.95,772.54,3.6,-77.3
1.24,0.25,0.0,0.0,0.5,0.0,1.75,3.5,5.0,2.25,0.0,0.0,0.0,0.0,-0.17,0.08,1.14,115.08,-2.0,-10.9,1.0,0.0,0.25,0.5,0.5,1.0,0.25,3.75,0.5,9.25,7.75,8.75,11.0,0.14,0.02,0.95,739.89,3.7,-77.2
1.26,1.5,0.0,0.0,1.25,0.0,2.25,3.0,4.5,2.5,0.0,0.5,0.0,0.0,-0.11,0.08,1.14,171.91,2.1,1.3,1.0,0.0,0.0,0.25,1.25,1.25,0.25,3.75,0.75,8.25,7.5,8.75,11.0,0.14,0.08,0.95,709.97,3.9,-75.4
1.28,0.5,0.0,0.0,0.0,0.0,0.0,3.5,4.5,1.25,0.0,0.0,0.0,0.5,-0.17,-0.05,1.2,177.19,0.3,-22.2,1.0,0.0,0.0,0.5,1.25,0.75,0.25,3.25,0.5,8.25,6.5,7.75,10.0,0.14,0.08,1.02,660.9,3.9,-74.8
1.3,0.0,0.0,0.0,0.0,0.0,1.75,2.75,3.0,2.25,0.5,0.0,0.0,0.0,-0.17,-0.05,1.08,174.46,-3.0,-16.9,0.0,1.0,0.0,0.0,0.0,0.0,0.25,2.5,0.5,7.75,5.75,7.5,8.75,0.2,0.08,1.02,586.83,4.0,-83.2
1.32,0.0,0.0,0.0,0.0,0.0,1.0,3.5,5.0,1.5,0.0,0.0,0.0,0.0,-0.23,-0.11,1.08,160.0,-3.6,-19.0,0.0,0.0,0.0,0.0,1.25,0.0,0.25,2.25,0.0,6.0,4.5,5.75,8.25,0.27,0.14,1.27,491.64,5.3,-82.7
1.34,0.0,0.75,0.0,1.75,0.0,1.75,3.25,4.5,2.25,0.0,0.0,0.0,0.0,-0.17,-0.11,1.02,174.5,0.4,1.7,0.0,0.0,0.0,0.5,0.5,0.5,0.5,0.75,0.5,3.75,3.25,5.0,8.25,0.33,0.14,1.33,390.83,4.2,-83.8
1.36,0.5,0.75,0.75,2.25,0.25,2.25,0.75,3.75,2.5,0.5,0.75,0.5,0.5,-0.23,-0.05,0.95,200.0,1.4,-2.6,1.0,0.0,0.0,0.5,0.0,0.5,0.0,0.75,0.25,3.75,2.0,3.5,6.0,0.14,0.08,1.14,300.56,3.8,-76.1
1.38,1.0,0.25,0.0,1.25,0.0,0.5,0.0,2.0,0.5,0.75,0.0,0.5,0.5,-0.23,-0.05,1.02,186.29,0.7,-7.6,1.0,0.0,0.0,0.5,0.0,0.5,0.0,1.0,0.25,1.25,1.25,2.25,5.75,0.08,0.02,0.95,229.45,3.6,-71.9
1.4,0.0,0.0,0.75,0.0,0.0,0.0,3.5,4.5,0.5,0.75,0.25,0.5,0.0,-0.3,-0.11,1.14,171.3,1.0,-25.7,1.0,0.25,0.0,0.5,0.0,0.25,0.0,0.0,0.25,2.5,1.25,2.25,4.0,-0.05,-0.05,0.83,165.17,1.6,-67.9
1.42,1.0,0.25,0.0,1.25,0.0,0.5,0.0,2.25,1.25,0.25,0.0,0.75,0.25,-0.36,-0.05,1.02,141.5,3.1,-7.1,1.0,0.0,1.5,0.0,1.25,0.5,0.0,0.5,0.0,1.75,0.75,0.75,3.0,-0.17,0.95,0.52,110.91,-1.1,-31.1
1.44,1.0,0.25,0.75,0.5,0.0,0.5,4.0,4.5,0.25,0.75,0.0,0.25,0.75,-0.36,0.02,0.95,138.12,2.9,-7.8,0.0,0.0,0.75,0.0,0.0,0.0,0.0,0.5,0.0,0.75,0.75,1.25,2.25,-0.11,1.2,0.45,58.8,0.5,-75.2
1.46,1.0,0.25,0.25,1.25,0.0,0.25,0.0,2.25,0.0,0.75,0.0,0.5,0.75,-0.36,0.08,0.89,120.36,0.9,-9.2,1.0,0.0,0.75,0.5,0.0,0.5,0.0,0.75,0.5,1.25,0.75,1.25,1.75,0.02,1.02,0.89,36.27,-3.1,-38.7
1.48,1.0,0.25,0.0,1.25,0.0,0.5,0.0,2.0,0.25,0.75,0.0,0.25,0.75,-0.48,0.08,0.89,118.71,-0.4,-6.7,1.0,0.0,0.75,0.5,0.0,0.5,0.25,0.5,0.5,1.25,0.25,0.75,1.5,-0.11,0.83,1.08,20.79,-4.0,-28.2
1.5,1.0,0.25,0.0,0.0,0.0,0.5,0.0,2.0,0.5,0.75,0.0,0.0,0.75,-0.42,-0.11,0.83,100.11,-4.3,-18.5,1.0,0.0,0.75,0.5,0.0,0.5,0.25,0.75,0.5,1.25,1.0,0.75,1.75,-0.11,0.83,0.89,29.96,-3.4,-34.8
1.52,1.0,0.25,0.0,0.0,0.0,0.5,0.0,2.0,0.0,0.0,0.0,0.0,0.5,-0.48,-0.17,0.83,82.5,-3.7,-0.2,1.0,0.25,1.25,0.25,0.0,0.5,0.25,0.5,0.5,1.25,0.75,0.75,1.5,0.14,0.64,0.95,44.4,-6.2,-24.3
1.54,1.0,0.25,0.0,0.0,0.0,0.0,0.0,1.25,0.5,0.25,0.0,0.0,0.75,-0.61,-0.42,0.77,61.2,1.6,-13.7,1.0,0.0,1.25,0.25,0.0,0.5,0.25,0.5,0.5,1.25,0.75,0.75,1.25,0.02,0.58,0.95,62.51,-6.7,-25.5
1.56,1.0,0.25,0.25,0.0,0.0,0.0,0.0,1.75,0.25,0.75,0.0,0.5,0.75,-0.23,-0.61,0.58,55.77,0.2,-25.7,1.0,0.0,1.0,0.0,1.0,0.0,0.25,0.5,0.0,0.0,0.5,0.25,1.25,0.02,0.52,1.08,65.32,-9.3,-0.9
1.58,1.0,0.25,0.5,0.0,0.0,0.0,0.0,2.25,0.0,0.75,0.75,1.25,1.25,-0.8,0.08,2.77,69.79,0.9,-41.2,1.0,0.0,0.25,0.5,0.0,0.5,0.0,0.75,0.5,1.25,0.75,0.75,1.0,0.14,0.39,1.27,74.47,-2.0,-33.2
1.6,0.0,0.0,0.0,1.25,0.0,1.0,0.0,0.5,0.0,0.75,0.5,1.5,2.0,-0.42,0.45,1.58,87.79,-3.8,-52.3,1.0,0.0,1.0,0.5,0.25,0.75,0.25,0.5,0.5,1.25,0.75,0.75,1.0,-0.05,0.45,0.89,88.22,-5.5,-18.6
1.62,2.75,0.25,0.5,3.25,0.0,0.5,0.5,1.0,0.75,0.25,0.0,2.0,2.5,0.39,0.02,1.14,138.06,9.9,-4.2,1.0,0.0,0.75,0.5,0.0,0.5,0.25,1.0,0.5,1.25,0.75,0.75,0.75,-0.05,0.33,0.95,99.17,-4.8,-23.7
1.64,3.25,0.5,1.5,4.0,0.0,1.5,0.25,2.25,1.0,0.75,2.25,1.25,2.5,-0.17,-0.05,1.14,200.63,8.5,-1.4,1.0,0.0,1.0,0.5,0.0,0.5,0.0,0.0,0.5,1.25,0.75,0.75,0.25,0.02,0.08,1.2,100.74,-10.5,-12.1
1.66,4.25,0.25,1.0,6.0,0.0,1.75,1.5,1.75,1.0,1.0,2.75,1.75,2.5,-0.17,0.02,1.02,266.62,10.1,2.4,1.0,0.0,0.75,0.5,0.0,0.5,0.25,0.5,0.5,1.25,0.75,0.75,1.0,-0.05,-0.05,1.08,105.03,-5.6,-25.7
1.68,5.75,0.5,2.75,7.0,4.5,2.25,2.0,3.0,0.5,2.0,1.5,1.5,2.5,-0.05,0.08,0.95,367.98,8.8,20.0,1.0,0.0,0.75,0.25,0.5,0.5,0.25,0.25,0.5,1.25,0.25,0.75,1.25,-0.11,-0.05,0.89,106.09,-4.2,-21.7
1.7,6.75,0.5,2.75,7.5,7.0,2.5,2.25,2.5,0.5,2.0,2.25,1.5,2.5,-0.17,0.08,1.02,502.2,8.9,23.8,1.0,0.25,1.0,0.25,0.0,0.5,0.5,0.75,0.5,1.25,1.0,0.75,1.75,0.7,-7.98,2.33,114.02,-4.6,-30.2
1.72,7.25,1.5,3.75,8.25,7.25,2.5,2.25,3.25,0.75,2.0,1.75,1.25,2.5,-0.05,0.08,0.95,642.35,9.5,28.4,1.0,0.0,0.75,0.5,0.0,0.5,0.25,0.5,0.5,1.25,0.75,0.75,1.5,1.52,-7.98,-3.8,118.35,-4.4,-31.0
1.74,7.25,1.5,3.75,8.5,7.5,2.5,1.5,3.75,1.0,1.75,0.75,1.5,2.75,-0.17,0.02,0.95,739.96,9.0,28.9,1.0,0.0,1.0,0.5,0.0,0.5,0.25,0.75,0.5,1.0,1.0,0.75,1.25,-0.36,-1.61,1.27,122.26,-6.1,-25.9
1.76,7.75,1.5,3.75,8.5,7.75,3.5,2.25,3.5,1.0,1.5,0.75,1.5,2.5,-0.11,0.08,0.95,809.51,9.1,31.6,1.0,0.0,1.5,0.0,1.0,0.5,0.25,0.25,0.5,1.25,0.75,1.0,1.5,2.27,3.77,3.45,128.91,-6.1,-20.0
1.78,7.75,1.75,4.0,8.5,7.5,3.0,2.25,3.5,0.25,1.25,1.75,1.25,2.5,0.27,0.08,0.95,833.14,9.8,32.2,1.0,0.0,1.25,0.5,0.5,0.5,0.25,0.5,0.5,1.25,1.0,1.25,1.75,0.77,0.52,0.45,138.2,-5.5,-28.5
1.8,7.75,1.5,5.0,8.5,8.0,3.5,2.0,3.0,0.0,1.0,1.75,0.75,2.5,-0.23,0.08,0.95,839.59,10.3,36.1,1.0,0.0,1.0,0.5,1.25,0.75,0.25,0.5,0.5,1.25,0.75,0.75,1.75,0.89,0.89,1.39,146.81,-3.0,-17.3
1.82,7.75,1.5,4.75,8.5,8.0,3.5,2.0,3.25,0.25,0.75,1.5,1.25,2.25,-0.23,0.08,0.95,831.07,10.3,35.6,1.0,0.0,0.75,0.5,0.25,0.5,0.25,0.75,0.5,1.25,0.75,0.75,1.75,-0.92,-0.55,0.7,144.88,-3.0,-30.8
1.84,7.75,1.5,5.0,8.5,7.75,3.5,1.75,3.25,0.75,1.5,1.5,1.25,1.75,-0.11,0.08,0.95,820.05,10.4,34.7,1.0,0.0,1.0,0.5,0.0,0.5,0.0,0.75,0.5,1.25,0.75,0.75,1.75,-0.92,-0.67,0.89,141.16,-3.8,-31.7
1.86,7.75,1.5,4.75,8.25,7.75,3.5,1.5,3.25,0.0,0.75,1.5,1.25,1.5,-0.11,0.08,0.95,782.4,10.6,38.4,1.0,0.0,1.0,0.5,0.5,0.5,0.25,0.5,0.5,1.25,0.75,0.75,1.75,-1.23,0.39,1.2,137.89,-4.3,-25.3
1.88,8.0,1.5,4.75,8.25,7.5,3.5,1.5,3.0,0.0,0.75,1.5,1.25,1.25,-0.11,0.08,0.95,743.19,11.2,40.0,1.0,0.0,1.0,0.25,0.25,0.5,0.25,0.75,0.5,1.25,0.75,0.75,1.25,0.39,0.14,1.27,132.42,-4.7,-25.9
1.9,8.0,1.5,4.5,8.25,7.25,3.5,1.5,3.25,0.5,0.75,1.5,1.25,1.75,-0.11,0.08,0.95,709.97,10.7,36.6,1.0,0.0,1.0,0.5,1.0,0.75,0.0,0.75,0.5,1.25,0.5,0.75,1.5,0.58,0.02,0.77,133.88,-2.6,-16.6
1.92,8.25,1.5,4.0,8.25,7.5,3.5,1.5,3.25,0.75,1.0,1.5,1.25,2.0,-0.11,0.08,0.95,687.08,10.1,34.9,1.0,0.0,1.25,0.5,1.25,0.5,0.25,0.75,0.5,1.25,0.75,1.0,1.75,0.58,-0.05,0.83,141.63,-4.1,-19.2
1.94,8.25,1.5,3.75,8.25,7.25,3.5,1.5,3.0,0.75,1.25,1.5,1.25,2.5,-0.11,0.08,0.95,677.43,9.8,32.7,1.0,0.0,1.25,0.5,0.5,0.5,0.0,0.5,0.5,1.25,1.0,1.5,2.25,-0.05,0.02,0.7,149.79,-4.4,-34.8
1.96,8.25,1.5,3.0,7.75,7.25,3.25,1.5,3.25,1.0,1.5,1.75,1.25,2.5,-0.11,0.08,0.95,669.65,9.1,29.9,1.0,0.0,1.0,0.25,0.5,0.5,0.5,0.75,0.5,1.25,1.0,2.25,3.0,-0.36,-0.05,0.95,165.01,-2.7,-46.9
1.98,8.25,1.5,4.0,7.25,7.0,3.25,1.5,3.25,1.0,1.25,1.75,1.5,2.5,-0.11,0.08,0.95,666.39,9.9,30.0,1.0,0.0,1.0,0.5,1.25,0.5,0.25,0.5,0.5,1.25,0.75,2.25,3.0,-0.23,0.02,1.2,176.81,-2.5,-38.3
2.0,8.0,1.5,4.25,7.25,7.0,3.25,1.5,3.25,1.0,1.5,1.75,1.25,2.5,-0.11,0.08,0.95,662.26,9.8,30.0,1.0,0.0,1.25,0.5,0.25,0.5,0.0,0.5,0.5,1.25,0.75,3.0,4.0,0.14,-0.05,1.08,191.2,-2.5,-54.2
2.02,8.0,1.5,3.75,7.0,6.25,3.0,1.25,3.25,1.0,1.5,1.75,1.5,2.5,-0.17,0.14,0.95,649.34,9.8,28.1,1.0,0.0,0.75,0.5,0.0,0.5,0.25,0.5,0.5,0.0,1.25,2.5,4.5,0.14,-0.11,0.77,195.47,-2.7,-59.6
2.04,7.75,1.25,3.5,7.0,6.25,3.0,1.25,3.25,0.0,2.0,2.0,1.25,2.5,0.02,0.08,0.95,629.51,9.1,27.6,1.0,0.0,0.5,0.5,0.25,0.5,0.25,0.0,0.5,1.25,1.5,4.75,4.5,0.08,-0.11,0.89,214.49,-2.2,-69.0
2.06,7.75,0.75,2.5,6.25,5.75,3.0,1.25,3.75,0.25,2.25,2.5,1.5,2.5,-0.23,0.08,0.95,602.32,7.9,20.9,1.0,0.0,0.75,0.5,1.0,0.0,0.25,0.25,0.25,1.0,2.0,5.5,5.75,-0.11,-0.11,1.02,240.58,-2.3,-68.6
2.08,7.25,0.5,2.0,5.25,5.75,3.0,1.0,4.0,0.5,2.5,2.75,2.0,3.25,-0.11,0.08,0.95,577.11,6.1,11.9,0.0,0.0,0.75,0.25,1.0,0.5,0.0,0.0,0.0,1.5,1.75,5.75,6.25,0.02,-0.17,0.77,263.78,1.2,-79.7
2.1,7.25,0.5,2.0,5.25,5.25,3.0,0.75,4.0,0.5,2.5,3.25,2.5,3.75,-0.11,0.08,0.95,563.17,6.0,7.1,0.0,0.0,1.0,0.0,0.0,0.0,0.0,0.5,0.5,1.75,0.75,5.5,6.5,0.08,-0.11,1.14,274.94,1.5,-89.9
2.12,6.5,0.5,1.75,4.25,5.0,3.0,0.75,4.0,0.75,2.75,3.5,2.5,3.75,-0.17,0.08,0.95,544.46,5.0,2.1,0.0,0.0,1.0,0.0,0.0,0.5,0.0,0.5,0.25,1.5,2.0,6.0,7.0,0.02,-0.11,1.14,287.43,1.3,-87.8
2.14,6.0,0.5,1.5,3.25,3.5,3.0,0.5,4.0,1.25,3.25,3.5,2.75,5.0,-0.11,0.08,0.95,520.83,3.6,-9.4,1.0,0.25,1.0,0.0,1.0,0.75,0.0,0.5,0.25,1.5,2.0,6.75,7.25,-0.17,-0.17,0.95,303.95,-0.2,-70.4
2.16,5.25,0.5,1.25,3.25,3.25,2.5,0.5,4.0,1.25,4.25,4.0,3.5,5.0,-0.11,0.08,0.95,501.41,2.8,-17.3,0.0,0.0,1.25,0.0,0.25,0.5,0.0,0.5,0.25,1.75,2.0,6.25,7.75,-0.23,-0.17,0.95,316.72,1.3,-84.9
2.18,4.0,0.5,0.25,3.25,4.25,2.5,0.5,4.25,1.5,4.25,4.75,4.5,6.0,-0.17,0.08,0.95,498.39,0.6,-26.5,0.0,0.0,0.0,0.0,0.0,0.5,0.0,0.25,0.0,0.75,1.75,6.5,6.75,-0.11,-0.3,0.83,307.96,2.7,-99.6
2.2,2.75,0.25,0.25,2.0,3.25,2.25,0.5,4.5,1.5,5.0,5.5,4.75,6.0,-0.11,0.08,0.95,496.93,-0.9,-39.3,0.0,0.0,0.0,0.0,0.0,1.0,0.0,0.0,0.0,1.0,0.75,6.5,7.25,-0.11,-0.23,1.08,294.18,4.4,-98.1
2.22,1.0,0.25,0.75,1.25,2.25,2.25,0.5,4.5,1.5,5.5,6.0,5.25,6.5,-0.11,0.08,0.95,501.44,-2.3,-51.7,0.0,0.0,0.75,0.0,0.5,0.0,0.0,0.0,0.0,1.25,0.75,7.75,7.75,-0.11,-0.3,1.08,289.93,1.3,-94.4
2.24,1.0,0.25,0.5,1.25,0.5,1.75,0.0,4.5,1.5,5.5,6.0,5.75,6.75,-0.17,0.08,1.02,498.11,-2.4,-61.5,1.0,0.0,0.25,0.0,0.5,0.0,0.25,0.25,0.0,1.25,2.0,7.75,8.25,-2.92,-1.05,2.45,297.52,0.2,-87.7
2.26,0.0,0.25,0.0,1.25,1.75,1.75,0.0,4.0,1.25,5.5,5.5,6.25,7.25,0.14,0.08,1.02,496.56,-4.1,-64.5,0.0,0.0,0.0,0.0,1.0,0.0,0.25,0.0,0.0,0.0,2.0,6.25,7.5,-0.11,-1.55,1.52,291.96,1.7,-94.0
2.28,0.0,0.25,0.5,0.0,2.0,1.5,0.0,4.0,0.75,6.0,6.75,6.5,7.5,-0.17,0.08,0.95,501.58,-4.0,-68.3,0.0,0.0,0.0,0.0,0.0,0.0,0.0,0.0,0.0,0.0,0.75,5.5,6.5,0.45,-2.48,1.64,268.03,2.7,-107.9
2.3,0.0,0.25,0.5,0.5,0.75,1.0,0.0,4.0,0.75,6.0,6.5,6.75,7.75,-0.17,-0.05,0.89,505.87,-3.6,-73.5,1.0,0.0,0.25,0.25,1.0,0.5,0.25,0.5,0.25,0.75,0.75,4.75,6.0,0.02,-2.61,1.64,249.31,0.9,-69.4
2.32,0.0,0.25,0.5,0.5,0.25,1.0,0.0,3.25,0.25,6.0,7.0,6.75,7.75,-0.05,0.14,1.08,503.49,-3.3,-77.0,0.0,0.0,0.5,0.0,0.0,0.5,0.0,0.0,0.0,0.25,0.75,2.25,3.5,-0.61,-1.61,1.58,199.13,2.1,-85.6
2.34,0.5,0.25,0.75,0.0,0.75,1.0,0.0,4.0,0.5,6.25,6.25,6.75,7.75,-0.23,0.02,0.95,504.97,-3.4,-72.4,0.0,0.0,0.0,0.0,0.0,0.5,0.0,0.25,0.0,0.75,0.75,1.25,2.25,-0.36,0.52,1.33,147.03,6.8,-86.1
2.36,0.0,0.25,0.0,0.0,0.0,1.0,0.0,4.0,0.5,6.5,6.0,6.75,7.75,-0.11,0.02,0.95,498.99,-5.1,-81.3,0.25,0.0,0.0,0.5,0.0,0.0,0.0,0.0,0.0,0.0,0.0,0.75,1.75,0.33,1.2,0.58,83.3,0.2,-68.6
2.38,0.0,0.25,0.0,1.25,0.0,1.0,0.0,4.0,0.0,6.5,6.0,6.75,8.0,-0.48,0.02,0.89,497.86,-4.6,-76.8,1.0,0.0,0.75,0.25,0.0,0.5,0.0,0.0,0.5,0.75,0.75,1.0,1.75,1.02,2.2,-0.3,60.08,-5.8,-37.1
2.4,0.0,0.25,0.5,1.25,0.0,1.0,0.0,4.0,0.0,6.5,6.0,6.75,8.25,-0.23,0.08,0.95,499.21,-4.0,-74.9,1.0,0.0,1.25,0.5,0.0,0.5,0.0,0.0,0.25,0.0,0.75,0.75,1.75,-0.17,1.64,-0.3,48.15,-10.8,-18.9
2.42,0.0,0.25,0.5,1.25,0.0,0.75,0.0,3.75,0.25,6.5,6.0,6.75,8.25,-0.42,-0.11,0.83,502.8,-3.6,-75.7,1.0,0.0,0.75,0.0,1.25,0.0,0.25,0.5,0.25,0.75,0.0,0.75,1.5,-1.11,-0.55,0.77,56.59,-4.2,-16.7
2.44,1.0,0.5,0.25,1.25,0.0,0.25,0.0,4.5,0.5,6.5,6.25,6.75,7.75,-0.3,-0.05,0.89,511.03,-2.5,-70.8,1.0,0.0,0.0,0.5,0.5,0.5,0.25,0.25,0.25,1.0,0.75,0.75,1.5,0.89,-0.92,1.52,60.82,-1.2,-32.0
2.46,1.0,0.25,0.0,1.25,0.0,0.75,0.0,4.5,0.5,6.25,6.25,6.75,7.25,-0.23,-0.05,0.95,512.57,-2.9,-71.0,1.0,0.0,0.75,0.5,0.0,0.5,0.0,0.25,0.25,1.0,0.25,0.75,1.5,1.83,-1.98,3.39,62.7,-4.7,-26.7
2.48,1.0,0.25,0.0,1.25,0.75,1.0,0.0,4.5,0.5,5.5,6.25,6.75,7.0,-0.48,-0.17,0.89,511.73,-2.7,-66.8,1.0,0.0,1.0,0.5,1.0,0.75,0.0,0.75,0.25,1.0,0.75,0.75,1.75,1.58,-1.92,0.52,81.4,-2.6,-18.5
2.5,1.0,0.25,0.0,1.25,0.75,1.0,0.0,4.75,0.25,5.5,6.0,6.5,6.25,-1.05,-0.36,0.83,498.47,-2.8,-65.4,0.25,0.0,1.75,0.0,0.5,0.5,0.25,0.75,0.0,0.75,0.5,0.75,1.25,1.08,-1.05,-0.36,91.86,-5.2,-22.5
2.52,1.0,0.25,0.0,1.25,1.75,1.0,0.0,4.75,0.25,5.0,5.25,5.75,6.0,-2.23,-0.8,0.7,478.14,-3.2,-59.4,1.0,0.0,0.5,0.5,0.25,0.25,0.25,0.5,0.25,1.0,0.75,0.5,1.0,1.33,-0.92,-0.11,98.4,-5.4,-22.2
2.54,1.0,0.25,0.0,1.25,2.0,1.0,0.0,4.5,0.25,4.25,3.25,4.75,5.0,-2.23,-1.36,0.83,431.35,-3.7,-53.2,0.75,0.0,0.75,0.25,0.25,0.5,0.0,0.5,0.0,0.75,0.75,0.25,1.0,1.02,-0.61,0.7,92.9,-3.9,-18.9
2.56,1.0,0.25,0.0,1.0,1.75,1.0,0.0,4.5,0.5,4.25,2.5,4.5,5.0,-1.3,-0.98,0.95,388.26,-4.3,-54.2,1.0,0.0,1.0,0.0,1.0,0.5,0.5,0.0,0.25,0.5,0.5,0.75,1.0,0.58,-0.3,0.77,100.3,-8.5,-5.8
2.58,1.0,0.25,0.0,1.25,0.5,1.0,0.0,4.5,0.5,2.5,2.5,3.5,3.75,-0.36,0.39,1.14,331.82,-3.2,-52.4,1.0,0.0,1.75,0.5,0.25,0.5,0.0,0.5,0.25,1.0,0.75,0.75,1.0,0.33,-0.17,0.39,107.57,-9.4,-11.0
2.6,1.0,0.25,0.25,1.25,0.75,1.0,0.0,4.0,0.5,2.0,1.0,1.5,2.5,-0.86,-0.48,1.39,271.79,-3.7,-34.6,1.0,0.0,0.75,0.0,0.0,0.5,0.25,0.5,0.0,0.75,0.75,0.75,1.0,0.14,-0.11,-0.23,105.06,-5.8,-27.7
2.62,0.0,0.25,0.0,1.25,0.0,0.0,0.0,2.5,0.0,0.0,0.75,0.5,1.25,-2.17,-0.05,1.52,184.06,-3.2,-37.4,1.0,0.0,1.0,0.5,0.0,0.5,0.0,0.75,0.25,0.5,1.0,0.75,1.0,-0.11,-0.17,-0.42,104.87,-7.7,-19.9
2.64,0.0,0.0,0.0,0.0,0.0,0.0,0.0,1.25,0.0,0.0,0.0,0.0,0.0,-4.36,-0.61,0.83,78.95,-16.7,-38.8,1.0,0.0,0.25,0.0,0.25,0.5,0.25,0.5,0.0,0.75,0.75,0.75,1.0,-0.42,-0.42,-0.05,97.33,-2.5,-31.5
2.66,0.0,0.0,0.0,0.0,0.0,0.0,2.5,5.0,0.0,0.0,0.0,0.0,0.5,-1.17,1.52,3.45,18.54,-7.7,-32.4,1.0,0.0,0.75,0.5,0.0,0.5,0.0,0.75,0.0,0.75,0.75,0.75,1.0,-0.55,-0.67,0.33,96.12,-5.4,-22.4
2.68,0.0,0.0,0.0,0.5,0.0,1.75,3.0,0.0,1.75,1.25,0.0,0.5,0.0,-0.86,0.7,1.64,0.0,3.3,-12.6,1.0,0.0,0.75,0.25,0.0,0.5,0.25,0.5,0.0,0.75,0.75,0.75,1.0,-0.36,-0.73,0.58,92.02,-6.3,-24.2
2.7,0.0,0.0,0.0,0.5,0.25,1.5,2.5,5.0,1.5,0.0,0.0,0.25,0.0,-0.92,-3.42,2.45,20.14,-4.8,-14.9,1.0,0.0,0.75,0.5,0.0,0.5,0.0,0.5,0.25,1.0,0.75,0.75,1.0,-0.05,-0.86,0.39,95.44,-5.7,-24.3
2.72,0.5,0.0,0.0,1.5,0.0,2.25,1.75,4.5,1.75,1.0,0.0,0.5,0.0,0.39,1.08,2.14,62.9,-3.4,-10.9,1.0,0.0,0.75,0.5,0.0,0.5,0.0,0.75,0.25,1.0,1.0,0.75,1.0,0.14,-0.86,0.2,98.75,-5.1,-26.5
2.74,1.5,0.5,0.5,2.0,0.0,2.0,2.0,4.75,2.0,1.0,0.0,0.5,0.75,-0.05,0.95,0.77,122.19,1.3,-2.6,1.0,0.0,1.0,0.5,0.0,0.5,0.0,0.25,0.25,1.0,0.25,0.75,1.0,0.2,-0.92,0.52,101.42,-7.5,-16.6
2.76,1.75,0.25,0.75,1.25,0.0,0.0,1.75,4.5,1.5,1.0,0.75,0.5,0.5,0.2,-0.55,-0.17,151.65,5.2,-10.4,1.0,0.0,0.75,0.5,0.0,0.5,0.25,0.5,0.0,1.0,0.25,0.75,0.25,0.27,-0.86,0.64,96.88,-8.2,-6.3
2.78,1.5,0.25,0.5,0.5,0.0,2.0,0.75,4.25,2.5,1.5,0.0,1.0,1.0,0.83,-1.11,0.64,180.98,-1.3,-19.5,1.0,0.25,1.0,0.25,0.25,0.5,0.0,0.5,0.0,1.0,0.75,0.75,0.25,0.33,-0.61,0.64,95.58,-8.4,-5.1
2.8,1.0,0.25,1.25,0.0,0.0,0.25,0.0,0.5,0.0,0.0,0.0,0.25,1.0,0.39,-0.92,0.7,151.43,13.2,9.7,1.0,0.0,0.75,0.5,0.0,0.5,0.0,0.25,0.0,1.25,0.5,0.75,0.75,0.52,-0.55,0.45,92.21,-6.1,-19.7
2.82,0.5,0.0,0.0,0.0,0.0,0.0,0.0,0.5,0.0,0.0,0.0,0.0,1.0,-0.17,-0.73,0.08,111.5,-3.0,-43.4,1.0,0.0,1.5,0.25,0.0,0.5,0.0,0.5,0.0,0.75,0.75,0.75,1.0,0.64,-0.55,0.2,95.77,-9.4,-15.6
2.84,0.5,0.0,0.0,0.0,0.0,0.0,0.0,0.75,0.0,0.0,0.0,0.0,0.0,-0.42,-0.36,0.08,63.16,3.0,13.6,1.0,0.0,0.5,0.0,0.0,0.5,0.0,0.5,0.0,0.75,0.75,0.75,1.0,0.58,-0.61,0.27,93.97,-3.8,-32.9
2.86,0.5,0.0,0.0,0.0,0.0,0.0,0.0,0.5,0.25,0.5,0.0,0.0,0.0,-0.55,0.02,0.14,36.21,1.8,-12.2,1.0,0.0,1.0,0.5,0.0,0.5,0.0,0.5,0.0,0.75,1.0,0.75,1.0,0.45,-0.8,0.2,97.05,-7.6,-20.6
2.88,0.75,0.0,0.0,0.0,0.0,0.0,0.0,1.0,0.0,0.0,0.0,0.0,0.5,-1.11,0.2,0.14,17.74,0.3,-12.0,1.0,0.0,1.0,0.5,0.5,0.5,0.25,0.25,0.0,0.75,0.75,0.75,1.0,0.27,-0.86,0.33,100.41,-7.9,-11.3
2.9,1.0,0.25,0.5,1.0,0.0,0.0,0.0,1.0,0.5,0.75,0.0,0.5,1.25,-1.36,-0.05,-0.23,32.52,5.5,-14.9,1.0,0.0,0.75,0.0,1.0,0.5,0.0,0.5,0.0,0.75,0.5,0.75,1.25,0.14,-0.92,0.39,103.84,-3.0,-16.8
2.92,1.0,0.25,0.25,1.25,0.0,0.0,0.0,0.75,0.5,0.75,0.0,0.5,1.25,-0.8,0.08,-0.48,51.05,5.6,-14.1,1.0,0.0,1.0,0.25,0.0,0.5,0.0,0.5,0.0,1.0,0.75,0.75,1.0,0.08,-0.86,0.58,103.71,-6.2,-23.7
2.94,1.0,0.25,0.0,1.25,0.0,0.5,0.0,0.5,0.25,0.75,0.0,0.5,1.25,-0.67,-0.05,-0.73,64.51,2.7,-11.6,1.0,0.0,1.0,0.25,0.0,0.5,0.0,0.5,0.0,0.5,0.75,0.75,1.0,0.08,-0.8,0.58,100.45,-8.0,-19.6
2.96,1.0,0.25,0.25,1.25,0.0,0.5,0.0,0.25,0.0,0.0,0.0,0.25,1.25,-0.8,-0.48,-0.67,66.38,7.5,9.2,1.0,0.0,0.75,0.5,0.0,0.5,0.25,0.5,0.0,0.75,0.75,0.75,1.0,0.27,-0.73,0.39,98.57,-6.7,-20.9
2.98,1.0,0.25,0.0,1.25,0.0,0.5,0.0,1.25,0.5,0.75,0.0,0.5,1.0,-0.86,-0.8,-0.11,77.27,1.6,-11.8,1.0,0.0,1.0,0.25,0.0,0.5,0.0,0.5,0.0,1.0,0.0,0.75,1.0,0.27,-0.67,0.33,95.08,-5.7,-17.5
3.0,1.0,0.25,0.25,1.25,0.0,0.25,0.0,1.0,0.5,0.75,0.25,0.5,0.75,-1.23,-0.92,0.08,88.29,5.4,-8.2,1.0,0.0,1.25,0.0,0.0,0.5,0.25,0.0,0.0,0.5,0.75,0.75,1.0,0.27,-0.73,0.39,92.08,-11.6,-16.9
3.02,1.0,0.25,0.5,1.0,0.0,0.5,0.0,1.0,0.25,0.75,0.0,0.5,1.25,-1.61,-0.98,0.14,101.53,3.4,-10.8,1.0,0.0,0.75,0.5,1.0,0.5,0.0,0.5,0.0,0.75,0.75,0.75,1.0,0.27,-0.8,0.52,97.87,-4.8,-10.3
3.04,1.0,0.25,0.0,1.0,0.0,0.5,0.0,2.0,0.25,0.5,0.0,0.5,1.0,-1.23,-0.73,0.2,114.74,-0.7,-14.1,1.0,0.0,0.75,0.5,0.5,0.5,0.0,0.5,0.0,0.75,0.75,0.75,1.0,0.27,-0.98,0.64,101.76,-5.5,-15.6
3.06,1.0,0.25,0.25,0.5,0.0,0.5,0.0,1.5,0.25,0.75,0.0,0.5,1.25,-1.05,-0.55,0.14,116.23,-0.4,-21.0,1.0,0.0,0.5,0.5,1.0,0.5,0.25,0.5,0.0,0.75,0.75,0.75,1.25,0.2,-1.05,0.58,108.69,-3.5,-15.4
3.08,0.5,0.25,0.0,0.5,0.0,0.5,0.0,1.25,0.5,0.75,0.0,0.5,0.75,-1.11,-0.36,0.08,106.69,-2.7,-26.6,1.0,0.0,0.75,0.25,0.0,0.5,0.0,0.25,0.0,0.75,0.75,0.75,1.0,0.14,-1.05,0.52,103.96,-6.7,-24.6
3.1,0.0,0.0,0.0,0.0,0.0,0.0,0.0,0.5,0.0,0.5,0.0,0.5,0.0,-1.05,-0.23,0.08,77.7,-7.9,-74.6,1.0,0.0,1.0,0.5,0.0,0.5,0.0,0.0,0.0,1.0,0.75,0.75,1.0,0.14,-0.98,0.58,100.86,-8.5,-19.3
3.12,1.0,0.25,0.0,0.0,0.0,0.0,0.0,1.5,0.25,0.75,0.0,0.5,1.0,-0.86,-0.3,0.08,68.51,-1.4,-33.5,1.0,0.0,1.25,0.25,0.25,0.5,0.0,0.5,0.0,0.75,0.75,0.75,1.0,0.14,-0.86,0.45,99.32,-7.8,-15.6
3.14,1.0,0.25,0.0,0.0,0.0,0.0,0.0,1.5,0.25,0.75,0.0,0.25,1.0,-0.8,-0.23,0.14,60.48,-1.9,-29.7,1.0,0.0,0.75,0.5,1.25,0.5,0.0,0.5,0.0,0.75,1.0,0.75,1.0,0.14,-0.8,0.33,107.84,-4.7,-10.0
3.16,1.0,0.25,0.0,0.0,0.0,0.0,0.0,0.25,0.25,0.5,0.0,0.5,1.0,-0.67,-0.36,0.08,58.91,4.6,-29.0,1.0,0.0,1.75,0.5,1.25,0.5,0.0,0.5,0.0,0.75,0.75,0.75,1.0,0.2,-0.73,0.33,120.34,-8.4,0.0
3.18,1.0,0.25,0.0,0.0,0.0,0.5,0.0,1.0,0.5,0.75,0.0,0.5,1.0,-0.61,-0.42,0.08,63.95,-1.3,-27.4,1.0,0.0,1.0,0.5,0.0,0.5,0.0,0.5,0.0,0.5,0.75,0.75,1.0,0.2,-0.67,0.27,118.31,-8.4,-16.4
3.2,1.0,0.25,0.0,0.0,0.0,0.0,0.0,0.5,0.5,0.75,0.0,0.5,0.75,-0.61,-0.48,0.14,63.15,3.7,-27.9,1.0,0.0,0.75,0.5,0.0,0.5,0.0,0.25,0.0,1.0,0.75,0.75,1.0,0.27,-0.67,0.27,112.36,-6.3,-23.2
3.22,1.0,0.25,0.0,0.0,0.0,0.0,0.25,0.5,0.25,0.75,0.0,0.5,0.5,-0.55,-0.55,0.14,58.46,5.2,-20.0,1.0,0.0,1.0,0.25,0.25,0.5,0.25,0.5,0.0,0.75,0.75,0.75,1.0,0.33,-0.73,0.27,105.76,-7.1,-17.7
3.24,1.0,0.25,0.0,0.0,0.0,0.0,0.0,0.75,0.25,0.5,0.0,0.5,1.0,-0.48,-0.55,0.14,56.34,2.0,-30.1,1.0,0.0,1.0,0.5,0.0,0.5,0.0,0.0,0.0,0.75,0.75,0.75,1.0,0.33,-0.8,0.27,99.07,-9.4,-17.0
3.26,1.0,0.25,0.0,0.0,0.0,0.0,0.0,0.5,0.25,0.5,0.0,0.25,0.5,-0.48,-0.55,0.14,52.64,5.5,-10.5,1.0,0.0,0.5,0.25,0.25,0.5,0.25,0.5,0.0,0.75,0.75,0.75,1.0,0.39,-0.86,0.27,94.42,-4.6,-24.1
3.28,0.75,0.25,0.0,0.0,0.0,0.0,0.0,1.75,0.25,0.5,0.25,0.5,1.0,-0.55,-0.55,0.14,60.19,-2.5,-39.6,1.0,0.0,1.0,0.5,0.0,0.5,0.0,0.25,0.0,0.75,0.75,0.75,0.5,0.52,-0.86,0.33,92.34,-10.3,-9.9
3.3,0.25,0.25,0.25,0.0,0.0,0.0,0.0,1.0,0.5,0.75,0.25,0.5,0.75,-0.61,-0.55,0.08,65.08,-1.0,-46.2,1.0,0.0,0.75,0.25,0.5,0.5,0.25,0.25,0.0,0.75,0.75,0.75,0.5,0.58,-0.86,0.33,91.33,-8.0,-9.0
3.32,0.0,0.25,0.0,0.0,0.0,0.0,0.0,1.0,0.25,0.5,0.25,0.25,0.75,-0.73,-0.55,0.08,65.77,-7.3,-58.4,1.0,0.0,1.25,0.5,1.0,0.5,0.0,0.5,0.0,0.75,0.75,0.75,0.75,0.64,-0.86,0.45,99.87,-7.6,-2.4
3.34,0.0,0.25,0.0,0.0,0.0,0.0,0.0,0.75,0.5,0.5,0.25,0.5,1.0,-0.92,-0.61,0.08,64.94,-4.8,-65.3,1.0,0.25,1.0,0.5,0.0,0.5,0.0,0.0,0.0,0.75,0.75,0.75,0.75,0.64,-0.73,0.45,98.81,-10.5,-8.3
3.36,0.0,0.25,0.0,0.0,0.0,0.25,0.0,0.5,0.5,0.5,0.25,0.5,0.75,-1.11,-0.55,0.08,59.04,-4.5,-57.2,1.0,0.0,0.75,0.5,0.25,0.5,0.25,0.25,0.0,0.75,0.5,0.75,0.75,0.52,-0.61,0.39,97.4,-7.9,-10.7
3.38,0.0,0.25,0.0,0.0,0.0,0.0,0.0,0.75,0.25,0.5,0.0,0.5,1.0,-1.17,-0.55,0.08,56.71,-7.2,-66.6,1.0,0.0,0.75,0.5,0.0,0.5,0.25,0.5,0.0,0.75,0.75,0.75,1.0,0.45,-0.55,0.39,94.96,-6.7,-20.9
3.4,0.0,0.25,0.25,0.0,0.0,0.0,0.0,0.5,0.5,0.5,0.0,0.5,0.75,-1.23,-0.55,0.08,54.35,-1.0,-53.2,1.0,0.0,0.75,0.5,0.0,0.5,0.0,0.25,0.0,0.75,0.75,0.75,1.0,0.33,-0.55,0.39,93.59,-7.2,-21.1
3.42,0.5,0.25,0.5,0.25,0.0,0.0,0.0,1.0,0.25,0.5,0.0,0.5,1.25,-1.17,-0.55,0.02,60.76,1.7,-32.6,1.0,0.0,1.0,0.25,0.0,0.5,0.0,0.5,0.0,0.75,1.0,0.75,1.0,0.27,-0.55,0.33,95.86,-7.2,-23.7
3.44,1.0,0.25,0.0,0.0,0.0,0.0,0.0,0.25,0.25,0.5,0.0,0.5,1.0,-1.05,-0.55,0.08,60.85,4.6,-29.0,1.0,0.0,1.75,0.0,0.0,0.5,0.0,0.5,0.0,0.75,0.75,0.75,0.75,0.27,-0.55,0.33,97.86,-11.1,-11.9
3.46,0.0,0.25,0.25,0.0,0.0,0.0,0.0,0.0,0.25,0.5,0.0,0.5,0.5,-0.98,-0.55,0.02,54.01,2.4,-51.5,1.0,0.0,1.0,0.25,0.25,0.5,0.0,0.5,0.0,1.0,0.75,0.75,1.0,0.33,-0.55,0.33,101.04,-5.8,-20.5
3.48,1.0,0.25,0.25,0.0,0.0,0.0,0.0,0.0,0.25,0.5,0.0,0.5,0.75,-0.86,-0.48,0.02,50.51,10.0,-15.6,1.0,0.0,0.75,0.25,0.0,0.5,0.0,0.25,0.0,0.75,0.75,0.75,0.75,0.33,-0.55,0.27,96.71,-7.7,-20.7
3.5,0.0,0.25,0.25,0.0,0.0,0.0,0.0,0.0,0.25,0.5,0.0,0.5,0.75,-0.73,-0.48,-0.05,44.7,0.8,-57.4,1.0,0.0,0.75,0.0,0.0,0.5,0.0,0.5,0.0,0.75,0.75,0.75,1.0,0.39,-0.61,0.33,93.06,-5.3,-28.8
3.52,0.75,0.25,0.25,0.0,0.0,0.0,0.0,0.0,0.25,0.5,0.0,0.25,0.5,-0.48,-0.48,0.08,40.88,10.2,-7.8,1.0,0.0,0.5,0.0,0.5,0.5,0.0,0.5,0.0,0.75,0.25,0.75,1.0,0.39,-0.73,0.39,88.21,-2.5,-20.7
3.54,0.0,0.25,0.25,0.0,0.0,0.0,0.0,0.0,0.25,0.25,0.25,0.5,0.5,-0.42,-0.48,0.2,37.97,5.3,-51.4,1.0,0.0,1.75,0.5,1.0,0.5,0.0,0.5,0.0,0.75,0.75,0.75,1.0,0.39,-0.8,0.45,100.98,-8.8,-1.8
3.56,0.0,0.25,0.25,0.25,0.0,0.0,0.0,0.0,0.25,0.5,0.0,0.5,0.75,-0.61,-0.48,0.2,39.52,2.3,-46.6,1.0,0.0,1.0,0.25,0.0,0.5,0.0,0.25,0.0,0.75,0.25,0.75,1.0,0.45,-0.86,0.52,98.07,-7.8,-16.4
3.58,0.75,0.25,0.25,0.0,0.0,0.0,0.0,0.0,0.25,0.5,0.0,0.5,0.75,-0.8,-0.42,0.08,40.55,8.2,-23.8,1.0,0.0,1.0,0.5,0.25,0.5,0.0,0.5,0.0,0.5,0.75,0.75,1.0,0.45,-0.86,0.45,103.56,-7.9,-13.4
3.6,0.75,0.25,0.25,0.25,0.0,0.0,0.0,0.25,0.25,0.25,0.0,0.5,0.5,-0.92,-0.36,0.02,44.28,10.6,-7.5,1.0,0.0,0.0,0.0,0.0,0.5,0.25,0.5,0.0,0.75,0.75,0.75,0.75,0.45,-0.86,0.45,93.01,-1.8,-37.2
3.62,0.25,0.25,0.0,0.25,0.0,0.0,0.0,0.0,0.25,0.5,0.0,0.5,0.5,-1.05,-0.42,-0.05,43.15,3.3,-37.7,1.0,0.0,0.75,0.5,0.25,0.5,0.25,0.25,0.0,0.75,0.5,0.75,1.0,0.45,-0.86,0.45,92.45,-7.0,-14.7
3.64,0.75,0.25,0.0,0.25,0.0,0.0,0.0,0.0,0.25,0.5,0.0,0.5,1.0,-1.17,-0.48,-0.05,46.05,5.0,-30.2,1.0,0.0,2.0,0.5,0.25,0.5,0.0,0.25,0.0,0.75,0.75,0.75,1.0,0.39,-0.8,0.45,98.04,-11.9,-4.7
3.66,0.0,0.25,0.0,0.0,0.0,0.0,0.0,0.25,0.25,0.0,0.0,0.5,0.5,-1.11,-0.55,-0.05,39.56,-0.3,-59.3,1.0,0.0,0.5,0.5,0.5,0.5,0.0,0.0,0.0,0.5,0.75,0.75,1.25,0.39,-0.73,0.39,99.85,-5.9,-18.4
3.68,0.0,0.25,0.0,0.25,0.0,0.0,0.0,0.0,0.25,0.0,0.25,0.5,1.0,-0.98,-0.48,0.02,40.75,1.4,-61.0,1.0,0.0,0.75,0.25,0.5,0.5,0.0,0.0,0.0,0.75,0.5,0.75,1.0,0.33,-0.67,0.39,99.07,-6.6,-14.5
3.7,0.75,0.25,0.25,0.0,0.0,0.0,0.0,0.0,0.25,0.0,0.0,0.5,0.75,-0.92,-0.42,0.08,39.95,12.6,-14.3,1.0,0.0,1.0,0.5,0.0,0.5,0.25,0.5,0.0,0.75,0.75,0.75,1.0,0.33,-0.67,0.39,99.27,-7.9,-17.8
3.72,0.25,0.25,0.25,0.25,0.0,0.0,0.0,0.0,0.25,0.0,0.5,0.25,1.0,-0.86,-0.36,0.08,42.43,7.3,-35.5,1.0,0.0,0.75,0.25,0.0,0.5,0.0,0.0,0.0,0.75,0.5,0.75,1.0,0.27,-0.61,0.39,93.56,-7.6,-21.7
3.74,1.0,0.25,0.25,0.25,0.0,0.0,0.0,0.0,0.5,0.5,0.75,0.5,0.75,-0.73,-0.36,0.08,53.14,10.6,-21.9,1.0,0.0,1.0,0.25,0.0,0.5,0.25,0.5,0.0,0.75,0.75,0.75,1.0,0.27,-0.61,0.39,92.79,-7.5,-20.8
3.76,1.0,0.25,0.25,0.25,0.0,0.0,0.0,0.0,0.25,0.5,1.0,0.5,1.0,-0.73,-0.3,0.08,64.15,9.3,-28.3,1.0,0.0,0.75,0.5,0.0,0.5,0.0,0.25,0.0,0.75,0.75,0.75,1.0,0.27,-0.67,0.39,91.21,-7.2,-21.1
3.78,1.0,0.25,0.25,0.25,0.0,0.0,0.0,0.0,0.25,0.5,0.5,0.25,0.75,-0.8,-0.3,0.02,68.44,10.6,-12.1,1.0,0.0,0.75,0.0,1.0,0.5,0.25,0.25,0.0,0.75,0.75,0.75,0.75,0.27,-0.73,0.45,94.48,-5.8,-10.1
3.8,1.0,0.25,0.25,0.25,0.0,0.0,0.0,0.0,0.25,0.25,0.5,0.25,1.0,-0.86,-0.36,0.08,68.36,10.7,-14.5,1.0,0.0,1.0,0.5,0.0,0.5,0.25,0.5,0.0,0.75,0.75,0.5,1.0,0.33,-0.73,0.45,97.71,-7.9,-14.3
3.82,1.0,0.25,0.25,0.5,0.0,0.0,0.0,0.0,0.25,0.25,0.5,0.25,0.5,-0.92,-0.42,0.08,66.14,14.5,3.8,1.0,0.0,0.75,0.5,0.0,0.5,0.5,0.25,0.0,0.75,0.25,0.75,1.0,0.39,-0.73,0.45,96.23,-7.9,-14.8
3.84,1.0,0.25,0.25,0.75,0.0,0.0,0.0,0.25,0.25,0.25,0.75,0.5,1.0,-0.92,-0.48,0.08,71.28,10.0,-15.7,1.0,0.0,1.25,0.5,0.0,0.5,0.0,0.5,0.0,0.75,0.75,0.75,1.0,0.45,-0.73,0.45,98.93,-8.6,-15.7
3.86,1.0,0.25,0.25,0.25,0.0,0.0,0.0,0.0,0.25,0.5,1.0,0.5,0.75,-0.86,-0.48,0.08,73.75,10.5,-23.8,1.0,0.0,0.5,0.25,0.0,0.5,0.25,0.5,0.0,1.0,0.75,0.75,1.0,0.45,-0.86,0.39,96.09,-4.1,-29.7
3.88,1.0,0.25,0.25,0.0,0.0,0.0,0.0,0.0,0.25,0.25,1.0,0.5,0.75,-0.86,-0.48,0.08,73.78,11.7,-25.8,1.0,0.0,0.75,0.25,0.0,0.5,0.25,0.5,0.0,0.75,0.75,0.75,1.0,0.52,-0.86,0.39,95.44,-6.3,-24.2
3.9,0.0,0.25,0.25,0.5,0.0,0.0,0.0,0.0,0.25,0.25,1.0,0.5,0.5,-0.86,-0.48,0.08,68.98,8.2,-40.1,1.0,0.0,0.5,0.25,1.25,0.5,0.0,0.5,0.0,0.75,0.75,0.75,1.0,0.45,-0.8,0.39,101.08,-2.9,-12.7
3.92,0.75,0.25,0.25,0.25,0.0,0.0,0.0,0.0,0.5,0.25,0.0,0.5,0.5,-0.8,-0.48,0.08,61.07,12.8,-7.4,1.0,0.0,1.5,0.25,1.25,0.5,0.0,0.25,0.0,0.5,0.75,0.75,1.0,0.45,-0.67,0.39,109.5,-8.7,-0.3
3.94,1.0,0.25,0.25,0.0,0.0,0.0,0.0,0.0,0.25,0.0,0.75,0.5,1.0,-0.8,-0.48,0.08,57.54,11.8,-25.1,1.0,0.0,0.75,0.25,0.0,0.5,0.0,0.75,0.0,0.75,0.75,0.75,1.0,0.45,-0.55,0.39,107.88,-4.9,-25.7
3.96,1.0,0.25,0.25,0.25,0.0,0.0,0.0,0.0,0.25,0.5,0.75,0.5,1.0,-0.86,-0.48,0.08,60.05,9.2,-25.9,1.0,0.0,0.25,0.5,0.5,0.5,0.0,0.25,0.0,1.0,0.75,0.75,1.0,0.39,-0.48,0.33,106.11,-2.9,-23.1
3.98,0.0,0.25,0.25,0.0,0.0,0.0,0.0,0.0,0.25,0.5,0.75,0.5,1.0,-0.86,-0.42,0.08,59.85,1.8,-65.0,1.0,0.0,1.0,0.25,0.25,0.5,0.5,0.25,0.0,0.75,0.75,0.75,1.0,0.33,-0.61,0.27,102.42,-8.4,-16.1
4.0,1.0,0.25,0.25,0.0,0.0,0.0,0.0,0.0,0.25,0.5,0.75,0.5,0.75,-0.92,-0.42,0.02,61.95,10.1,-25.9,1.0,0.0,0.5,0.5,1.0,0.5,0.25,0.25,0.0,0.75,0.75,0.5,1.0,0.39,-0.67,0.27,102.8,-4.7,-7.8
4.02,1.0,0.25,0.25,0.0,0.0,0.0,0.0,0.5,0.25,0.25,0.25,0.5,0.75,-0.92,-0.42,0.08,61.61,8.3,-18.4,1.0,0.0,0.5,0.25,0.0,0.5,0.25,0.25,0.0,0.75,0.75,0.75,1.0,0.52,-0.73,0.33,96.86,-5.9,-27.3
4.04,1.0,0.25,0.25,0.0,0.0,0.0,0.0,0.0,0.25,0.0,0.5,0.5,0.5,-0.92,-0.42,0.08,57.14,16.1,-7.7,1.0,0.0,0.75,0.0,0.0,0.5,0.0,0.25,0.0,0.75,0.75,0.75,1.0,0.58,-0.73,0.27,92.52,-6.3,-28.4
4.06,1.0,0.25,0.25,0.0,0.0,0.0,0.0,0.25,0.5,0.25,1.0,0.5,0.75,-0.92,-0.42,0.08,59.58,10.2,-27.2,1.0,0.0,1.0,0.5,0.0,0.5,0.25,0.5,0.0,0.75,0.75,0.75,1.0,0.58,-0.67,0.27,93.18,-7.9,-17.8
4.08,1.0,0.25,0.25,0.25,0.0,0.0,0.0,0.0,0.25,0.25,0.75,0.5,0.5,-0.92,-0.42,0.08,59.54,13.8,-11.8,1.0,0.0,1.5,0.5,0.25,0.5,0.25,0.25,0.0,0.5,0.25,0.75,0.0,0.58,-0.55,0.2,90.47,-16.0,18.3
4.1,0.75,0.25,0.25,0.25,0.0,0.0,0.0,0.0,0.25,0.25,0.75,0.5,0.75,-0.92,-0.42,0.08,61.7,10.8,-24.6,0.75,0.0,0.75,0.25,0.5,0.5,0.25,0.0,0.0,0.75,0.5,0.75,1.0,0.64,-0.55,0.2,89.89,-6.0,-18.1
4.12,1.25,0.25,0.25,0.25,0.0,0.0,0.0,0.0,0.25,0.0,1.0,0.5,0.5,-0.92,-0.36,0.08,63.16,16.6,-5.5,1.0,0.0,0.5,0.5,0.25,0.5,0.0,0.5,0.0,0.5,0.75,0.75,1.0,0.58,-0.48,0.2,89.45,-5.4,-19.6
4.14,1.0,0.25,0.0,0.25,0.0,0.0,0.0,0.0,0.25,0.25,1.0,0.5,1.0,-0.92,-0.36,0.08,65.69,9.0,-30.8,1.0,0.0,1.0,0.25,0.0,0.5,0.0,0.25,0.0,0.75,0.75,0.75,1.0,0.58,-0.48,0.2,89.2,-8.0,-21.0
4.16,1.0,0.25,0.25,0.0,0.0,0.0,0.0,0.0,0.25,0.5,0.75,0.5,0.75,-0.92,-0.36,0.08,65.29,10.1,-25.9,1.0,0.0,1.75,0.5,1.0,0.5,0.0,0.5,0.0,0.75,0.75,0.75,1.0,0.64,-0.48,0.2,103.03,-8.8,-1.8
4.18,1.0,0.25,0.25,0.25,0.0,0.0,0.0,0.0,0.25,0.5,0.5,0.5,1.0,-0.92,-0.36,0.02,66.13,9.1,-23.2,1.0,0.0,0.75,0.0,0.25,0.5,0.0,0.25,0.0,0.75,0.75,0.75,1.0,0.7,-0.48,0.14,102.67,-5.8,-24.4
4.2,0.75,0.25,0.25,0.0,0.0,0.0,0.0,0.0,0.25,0.0,1.0,0.5,0.75,-0.92,-0.36,0.02,63.16,12.1,-30.3,1.0,0.0,1.0,0.0,0.25,0.5,0.0,0.0,0.0,0.75,0.75,0.75,1.0,0.7,-0.48,0.14,101.1,-8.1,-20.2
4.22,1.0,0.25,0.25,0.25,0.0,0.0,0.0,0.0,0.25,0.25,0.75,0.5,0.75,-0.92,-0.36,0.02,63.65,12.1,-17.8,1.0,0.0,1.0,0.0,0.5,0.5,0.25,0.5,0.0,0.75,0.75,0.5,1.0,0.77,-0.48,0.14,98.01,-6.2,-14.1
4.24,0.75,0.0,0.0,0.25,0.0,0.0,0.0,0.5,0.25,0.25,1.0,0.5,0.75,-0.92,-0.36,0.02,63.58,5.7,-42.0,1.0,0.0,1.0,0.0,0.0,0.5,0.0,0.5,0.0,0.75,0.75,0.75,1.0,0.83,-0.55,0.14,95.79,-6.7,-25.1
4.26,1.0,0.25,0.25,0.25,0.0,0.0,0.0,0.0,0.25,0.25,1.0,0.5,0.75,-0.92,-0.36,0.08,65.84,12.0,-20.9,1.0,0.0,1.25,0.5,0.0,0.5,0.0,0.25,0.0,0.75,0.75,0.75,1.0,0.77,-0.55,0.08,97.32,-9.6,-14.8
4.28,0.75,0.25,0.25,0.25,0.0,0.0,0.0,0.0,0.25,0.5,0.75,0.5,0.5,-0.92,-0.36,0.02,64.58,10.7,-22.2,1.0,0.0,1.0,0.5,0.5,0.5,0.25,0.25,0.0,1.0,0.75,0.75,0.75,0.83,-0.55,0.08,101.54,-7.8,-10.0
4.3,0.25,0.0,0.25,0.25,0.0,0.0,0.0,0.0,0.25,0.25,1.0,0.5,0.75,-0.92,-0.36,0.02,61.42,7.4,-53.7,1.0,0.0,0.75,0.5,1.0,0.5,0.25,0.25,0.0,0.75,0.75,0.5,1.0,0.77,-0.48,0.08,106.23,-5.9,-5.3
4.32,1.0,0.25,0.0,0.25,0.0,0.0,0.0,0.0,0.5,0.25,0.75,0.5,0.5,-0.92,-0.36,0.08,60.12,12.1,-18.2,1.0,0.0,0.5,0.25,0.5,0.5,0.0,0.75,0.0,0.75,0.75,0.75,0.75,0.77,-0.48,0.14,105.19,-3.6,-18.7
4.34,0.75,0.25,0.0,0.0,0.0,0.0,0.0,0.5,0.5,0.25,0.75,0.5,0.75,-0.92,-0.36,0.08,60.66,5.5,-37.5,1.0,0.0,0.0,0.5,0.5,0.5,0.25,0.5,0.0,0.75,0.75,0.75,1.0,0.7,-0.42,0.14,102.09,-2.0,-24.1
4.36,1.0,0.0,0.25,0.0,0.0,0.0,0.0,0.0,0.5,0.0,1.0,0.5,0.75,-0.92,-0.36,0.08,60.25,13.4,-31.7,1.0,0.0,1.0,0.25,0.25,0.5,0.25,0.25,0.0,0.75,0.75,0.75,1.0,0.7,-0.42,0.14,99.31,-8.0,-16.9
4.38,1.0,0.25,0.25,0.0,0.0,0.0,0.0,0.0,0.25,0.25,0.5,0.5,1.0,-0.92,-0.36,0.08,60.35,10.2,-25.2,1.0,0.0,1.0,0.0,0.5,0.5,0.25,0.25,0.0,0.75,0.75,0.75,1.0,0.7,-0.42,0.14,97.93,-7.1,-16.8
4.4,0.75,0.0,0.25,0.0,0.0,0.0,0.0,0.0,0.25,0.25,0.75,0.5,0.5,-0.86,-0.36,0.08,56.37,12.1,-34.5,1.0,0.0,0.25,0.5,0.0,0.5,0.0,0.5,0.0,0.75,0.75,0.75,1.0,0.7,-0.48,0.2,93.82,-3.5,-29.0
4.42,1.0,0.25,0.25,0.0,0.0,0.0,0.0,0.0,0.25,0.5,0.75,0.5,1.0,-0.86,-0.36,0.08,58.8,8.7,-30.8,1.0,0.0,0.75,0.0,0.0,0.5,0.0,0.25,0.0,0.25,0.25,0.75,0.75,0.7,-0.48,0.2,85.98,-9.4,-13.3
4.44,1.0,0.25,0.25,0.0,0.0,0.0,0.0,0.0,0.25,0.5,1.0,0.5,0.5,-0.92,-0.3,0.08,59.98,11.6,-23.6,1.0,0.0,0.75,0.0,0.0,0.5,0.25,0.5,0.0,0.5,0.75,0.5,1.0,0.7,-0.48,0.27,81.06,-6.7,-21.9
4.46,1.25,0.25,0.25,0.0,0.0,0.0,0.0,0.0,0.25,0.0,1.0,0.5,0.75,-0.92,-0.3,0.08,62.34,14.7,-15.9,1.0,0.0,0.5,0.5,0.5,0.5,0.25,0.0,0.0,1.0,0.75,0.75,1.0,0.7,-0.48,0.27,83.08,-5.6,-18.3
4.48,1.0,0.25,0.0,0.0,0.0,0.0,0.0,0.0,0.25,0.5,0.75,0.5,0.5,-0.92,-0.3,0.08,60.47,9.8,-26.2,1.0,0.0,1.0,0.25,0.0,0.5,0.25,0.25,0.0,0.5,0.75,0.5,1.0,0.7,-0.55,0.2,84.98,-9.5,-13.9
4.5,0.5,0.0,0.25,0.0,0.0,0.0,0.0,0.0,0.25,0.0,0.75,0.5,0.75,-0.92,-0.3,0.08,56.15,10.4,-48.0,1.0,0.0,1.0,0.25,0.0,0.5,0.25,0.5,0.0,0.75,0.75,0.75,1.0,0.7,-0.55,0.2,89.76,-7.5,-20.8
4.52,1.0,0.25,0.0,0.0,0.0,0.0,0.0,0.0,0.25,0.0,0.75,0.5,1.0,-0.98,-0.3,0.08,54.32,10.0,-31.1,1.0,0.0,1.0,0.25,0.5,0.5,0.0,0.25,0.0,0.75,0.75,0.5,1.0,0.64,-0.55,0.2,93.39,-7.0,-11.1
4.54,0.0,0.25,0.25,0.0,0.0,0.0,0.0,0.0,0.0,0.0,0.75,0.5,0.5,-0.98,-0.3,0.08,46.87,8.1,-55.3,1.0,0.0,1.0,0.0,1.25,0.5,0.0,0.0,0.0,0.75,0.25,0.5,0.75,0.7,-0.55,0.27,95.52,-6.7,5.4
4.56,1.25,0.5,0.25,0.0,0.0,0.0,0.0,0.0,0.25,0.0,0.75,0.5,0.75,-0.98,-0.3,0.08,51.24,14.8,-5.4,1.0,0.0,0.5,0.0,1.0,0.5,0.0,0.0,0.0,0.75,0.75,0.75,0.75,0.7,-0.48,0.2,95.05,-4.9,-12.7
4.58,1.5,0.5,0.25,0.0,0.0,0.0,0.0,0.0,0.25,0.25,0.75,0.5,0.5,-0.98,-0.3,0.08,56.74,15.8,2.1,1.0,0.0,0.5,0.25,1.0,0.5,0.0,0.0,0.0,0.75,0.25,0.75,1.0,0.7,-0.48,0.2,94.82,-4.1,-8.8
4.6,0.75,0.25,0.25,0.25,0.0,0.0,0.0,0.0,0.25,0.25,0.5,0.5,0.5,-0.92,-0.3,0.08,58.99,12.6,-14.7,1.0,0.0,0.5,0.0,0.25,0.5,0.25,0.25,0.0,0.75,0.75,0.75,1.0,0.7,-0.48,0.2,91.83,-4.9,-27.1
4.62,1.0,0.25,0.25,0.0,0.0,0.0,0.0,0.0,0.25,0.25,1.0,0.5,0.5,-0.98,-0.3,0.08,59.96,13.4,-20.3,1.0,0.0,1.0,0.0,1.0,0.5,0.25,0.25,0.0,1.0,0.75,0.75,1.0,0.7,-0.48,0.2,98.63,-5.6,-13.3
4.64,1.0,0.0,0.25,0.25,0.0,0.0,0.0,0.0,0.25,0.5,0.75,0.5,0.75,-0.98,-0.3,0.08,61.19,10.4,-28.4,1.0,0.0,1.0,0.0,1.0,0.5,0.0,0.25,0.0,0.75,0.75,0.75,1.0,0.7,-0.48,0.2,103.75,-5.9,-11.8
4.66,1.0,0.25,0.25,0.0,0.0,0.0,0.0,0.0,0.25,0.25,0.5,0.5,0.5,-0.98,-0.3,0.08,58.16,13.7,-12.6,1.0,0.0,0.5,0.25,0.0,0.5,0.0,0.25,0.0,0.75,0.75,0.75,0.75,0.77,-0.42,0.2,99.84,-6.2,-24.6
4.68,1.25,0.0,0.25,0.0,0.0,0.0,0.0,0.0,0.25,0.25,0.75,0.5,0.5,-0.98,-0.3,0.08,57.31,15.0,-17.6,1.0,0.0,1.0,0.0,0.0,0.5,0.0,0.5,0.0,0.5,0.75,0.5,1.0,0.77,-0.48,0.2,93.34,-7.5,-19.2
4.7,1.0,0.25,0.25,0.0,0.0,0.0,0.0,0.0,0.25,0.25,0.75,0.5,0.5,-0.98,-0.3,0.08,57.19,13.5,-16.7,1.0,0.0,0.5,0.0,0.0,0.5,0.0,0.5,0.0,0.75,0.75,0.75,1.0,0.7,-0.48,0.2,87.45,-3.8,-32.9
4.72,1.0,0.25,0.25,0.0,0.0,0.0,0.0,0.0,0.25,0.5,0.25,0.5,0.5,-0.98,-0.3,0.08,56.4,11.8,-12.7,1.0,0.0,0.75,0.0,0.0,0.5,0.0,0.0,0.0,0.75,0.25,0.75,1.0,0.7,-0.48,0.14,80.94,-7.0,-23.3
4.74,1.0,0.25,0.25,0.0,0.0,0.0,0.0,0.0,0.25,0.25,0.75,0.5,0.25,-0.92,-0.3,0.08,55.03,15.6,-9.7,1.0,0.0,0.0,0.25,0.5,0.5,0.0,0.5,0.0,0.75,0.75,0.75,0.75,0.7,-0.48,0.2,79.5,-1.4,-25.0
4.76,1.0,0.25,0.25,0.0,0.0,0.0,0.0,0.0,0.25,0.25,0.75,0.5,0.5,-0.92,-0.3,0.08,54.98,13.5,-16.7,1.0,0.0,0.75,0.0,0.0,0.5,0.25,0.25,0.0,0.75,0.75,0.5,1.0,0.7,-0.42,0.2,79.57,-6.7,-23.6
4.78,0.75,0.25,0.25,0.0,0.0,0.0,0.0,0.0,0.25,0.25,0.25,0.5,0.75,-0.92,-0.3,0.08,52.88,10.2,-23.6,1.0,0.0,1.25,0.0,0.25,0.5,0.0,0.5,0.0,0.75,0.75,0.75,0.75,0.7,-0.42,0.2,85.53,-8.3,-14.8
4.8,1.0,0.25,0.0,0.0,0.0,0.0,0.0,0.0,0.25,0.25,0.75,0.5,0.75,-0.92,-0.3,0.08,52.02,9.9,-28.7,1.0,0.0,1.0,0.25,1.0,0.5,0.0,0.5,0.0,0.5,0.75,0.75,1.0,0.7,-0.42,0.14,94.9,-6.2,-8.1
4.82,1.0,0.25,0.25,0.0,0.0,0.0,0.0,0.5,0.25,0.5,0.75,0.5,0.75,-0.92,-0.3,0.08,57.92,7.2,-27.3,1.0,0.0,0.75,0.0,1.25,0.5,0.25,0.0,0.0,0.5,0.75,0.75,0.75,0.7,-0.42,0.14,99.89,-7.1,-3.7
4.84,1.25,0.25,0.25,0.0,0.0,0.0,0.0,0.0,0.25,0.25,0.75,0.5,0.5,-0.92,-0.3,0.08,61.13,14.8,-9.9,1.0,0.0,0.5,0.25,1.0,0.5,0.0,0.0,0.0,0.75,0.75,0.75,1.0,0.7,-0.42,0.14,102.09,-4.6,-13.7
4.86,1.25,0.25,0.25,0.0,0.0,0.0,0.0,0.0,0.25,0.25,0.75,0.5,1.25,-0.92,-0.3,0.08,65.91,10.1,-26.3,1.0,0.0,1.25,0.5,0.25,0.5,0.0,0.5,0.0,0.75,0.75,0.75,1.0,0.77,-0.42,0.2,104.62,-8.1,-12.9
4.88,1.0,0.25,0.25,0.0,0.0,0.0,0.0,0.0,0.25,0.25,0.75,0.5,0.75,-0.92,-0.3,0.08,65.37,11.8,-22.8,1.0,0.0,0.75,0.0,0.0,0.5,0.5,0.5,0.0,0.75,0.75,0.5,1.0,0.77,-0.42,0.14,101.44,-6.2,-23.2
4.9,1.0,0.25,0.25,0.0,0.0,0.0,0.0,0.0,0.25,0.25,0.5,0.5,0.25,-0.92,-0.3,0.08,61.65,16.0,-4.7,1.0,0.0,0.75,0.25,0.5,0.5,0.0,0.25,0.0,0.5,0.75,0.75,1.0,0.77,-0.42,0.14,100.31,-6.7,-15.4
4.92,0.0,0.25,0.0,0.0,0.0,0.0,0.0,0.0,0.25,0.5,0.75,0.5,0.5,-0.98,-0.3,0.08,54.7,1.3,-68.4,1.0,0.0,1.25,0.25,0.25,0.5,0.0,0.5,0.0,0.75,0.75,0.75,1.0,0.77,-0.42,0.14,101.05,-7.8,-15.6
4.94,1.0,0.25,0.25,0.0,0.0,0.0,0.0,0.0,0.25,0.25,0.5,0.5,0.5,-0.98,-0.3,0.08,52.32,13.7,-12.6,1.0,0.0,1.0,0.25,0.5,0.5,0.0,0.5,0.0,0.75,0.75,0.75,0.75,0.77,-0.36,0.08,102.83,-7.0,-11.9
4.96,0.75,0.25,0.0,0.0,0.0,0.0,0.0,0.0,0.25,0.25,0.75,0.5,0.75,-0.98,-0.3,0.08,51.46,8.2,-37.2,1.0,0.0,1.25,0.25,0.5,0.5,0.0,0.5,0.0,0.75,0.75,0.75,1.0,0.77,-0.36,0.14,106.42,-7.4,-12.8
4.98,1.0,0.25,0.25,0.0,0.0,0.0,0.0,0.0,0.25,0.25,0.75,0.5,0.75,-0.92,-0.3,0.08,54.15,11.8,-22.8,1.0,0.0,1.0,0.0,0.25,0.5,0.0,0.5,0.0,0.75,0.75,0.5,1.0,0.77,-0.36,0.14,103.17,-6.1,-18.1
5.0,0.75,0.25,0.0,0.0,0.0,0.0,0.0,0.0,0.25,0.5,0.75,0.5,0.5,-0.92,-0.3,0.08,54.33,8.1,-34.6,1.0,0.0,0.75,0.25,1.25,0.5,0.0,0.5,0.0,0.75,0.75,0.75,1.0,0.77,-0.36,0.14,107.23,-4.1,-10.3
5.02,0.75,0.0,0.25,0.0,0.0,0.0,0.0,0.0,0.25,0.25,0.75,0.5,0.5,-0.92,-0.23,0.08,52.87,12.1,-34.5,1.0,0.0,0.75,0.25,0.25,0.5,0.25,0.5,0.0,0.75,0.5,0.5,0.75,0.77,-0.36,0.2,100.13,-6.4,-10.8
5.04,1.0,0.0,0.25,0.0,0.0,0.0,0.0,0.0,0.5,0.5,0.75,0.5,0.5,-0.98,-0.23,0.08,53.31,11.7,-29.4,1.0,0.0,0.75,0.5,0.0,0.5,0.0,0.25,0.0,0.75,0.75,0.5,0.75,0.77,-0.36,0.14,95.38,-8.1,-13.2
5.06,1.0,0.25,0.25,0.0,0.0,0.0,0.0,0.0,0.25,0.25,0.75,0.5,0.5,-0.98,-0.23,0.08,53.64,13.5,-16.7,1.0,0.0,1.0,0.5,0.0,0.5,0.0,0.25,0.0,0.75,0.75,0.75,1.0,0.77,-0.36,0.14,93.24,-8.4,-17.8
