time,left pressure 0[N/cm²],left pressure 1[N/cm²],left pressure 2[N/cm²],left pressure 3[N/cm²],left pressure 4[N/cm²],left pressure 5[N/cm²],left pressure 6[N/cm²],left pressure 7[N/cm²],left pressure 8[N/cm²],left pressure 9[N/cm²],left pressure 10[N/cm²],left pressure 11[N/cm²],left pressure 12[N/cm²],left acceleration X[g],left acceleration Y[g],left acceleration Z[g],left total force[N],left center of pressure X[mm],left center of pressure Y[mm],right pressure 0[N/cm²],right pressure 1[N/cm²],right pressure 2[N/cm²],right pressure 3[N/cm²],right pressure 4[N/cm²],right pressure 5[N/cm²],right pressure 6[N/cm²],right pressure 7[N/cm²],right pressure 8[N/cm²],right pressure 9[N/cm²],right pressure 10[N/cm²],right pressure 11[N/cm²],right pressure 12[N/cm²],right acceleration X[g],right acceleration Y[g],right acceleration Z[g],right total force[N],right center of pressure X[mm],right center of pressure Y[mm]
0.02,1.0,0.25,0.5,0.0,0.0,0.0,0.0,2.0,0.5,0.75,1.25,0.25,0.25,-1.17,-1.67,2.2,118.1,4.2,-22.7,0.0,0.0,0.0,0.0,0.0,0.5,0.0,0.75,0.0,0.0,0.75,0.0,0.75,-0.42,1.14,1.2,0.0,9.6,-56.1
0.04,2.75,0.25,0.75,0.0,0.0,0.0,0.0,2.0,0.25,0.75,0.0,0.25,0.25,0.08,1.02,0.77,116.95,11.1,17.5,0.5,0.0,0.0,0.0,0.0,0.5,0.0,0.0,0.0,0.0,0.25,0.0,0.0,-0.23,0.77,1.02,0.0,-6.9,36.8
0.06,4.25,0.25,0.25,0.5,0.0,0.0,0.0,0.75,0.5,0.5,0.0,0.0,0.5,-0.36,0.95,1.52,117.94,19.2,43.7,1.0,0.25,0.0,0.0,0.0,0.5,0.0,0.25,0.25,1.25,0.75,0.75,0.0,0.2,0.77,1.02,0.0,-3.8,-24.0
0.08,5.5,0.25,0.5,0.75,0.0,0.0,0.0,2.0,0.5,0.75,0.25,0.0,0.75,-0.73,0.64,0.89,136.97,15.4,31.8,1.0,0.25,1.0,0.5,1.5,1.25,0.25,0.75,0.25,1.0,1.0,0.75,0.5,0.14,0.83,0.83,9.15,-4.0,2.0
0.1,6.5,0.5,0.0,0.75,0.0,0.0,0.0,1.75,0.5,0.75,0.0,0.25,0.75,-0.11,0.33,0.95,158.85,16.5,38.2,1.0,0.25,0.75,0.5,1.5,1.5,0.25,0.75,0.5,2.0,1.0,0.75,0.25,-0.23,0.83,1.02,64.38,-1.4,-3.9
0.12,6.5,0.5,1.0,1.0,0.0,0.0,0.0,1.75,0.5,0.75,0.0,0.25,0.5,-0.23,0.89,1.33,182.29,19.0,43.5,0.0,0.0,0.75,0.0,1.5,1.0,0.25,0.75,0.5,0.0,1.0,0.0,0.25,-0.3,0.7,1.2,87.88,-1.0,4.3
0.14,8.25,1.25,2.0,4.5,0.0,0.0,0.0,0.5,0.5,0.75,0.25,0.25,0.75,-0.11,0.52,1.39,225.81,22.6,56.1,0.0,0.0,1.0,0.0,1.75,0.75,0.5,0.75,0.25,0.0,1.25,0.0,0.0,-0.23,0.7,1.33,99.64,-4.4,11.5
0.16,8.25,1.5,2.0,6.5,0.0,0.25,0.0,1.5,0.5,0.75,0.0,0.25,0.5,-0.3,0.33,1.08,272.16,20.3,55.6,0.0,0.0,0.0,0.0,1.75,0.75,0.25,0.75,0.5,0.25,0.5,0.25,0.0,-0.17,0.58,1.27,90.54,4.3,0.9
0.18,8.75,1.75,2.0,8.0,0.0,0.75,0.0,1.25,0.5,0.75,0.5,0.25,1.0,-0.3,0.33,1.08,327.32,18.9,51.7,0.0,0.0,0.0,0.0,0.0,0.5,0.25,0.5,0.0,1.25,0.25,0.0,0.0,-0.11,0.45,1.39,72.29,12.5,-43.6
0.2,8.75,2.0,4.5,9.25,0.0,0.0,0.25,0.75,0.0,0.75,1.0,0.25,1.0,-0.3,0.33,1.08,387.18,22.3,54.5,0.0,0.0,0.0,0.0,0.0,0.75,0.25,0.5,0.25,0.0,0.25,0.0,0.0,-0.05,0.33,1.39,51.01,8.3,-10.8
0.22,8.75,3.25,2.75,9.5,0.0,0.0,1.0,1.75,0.0,0.75,1.0,0.25,1.0,-0.11,0.27,1.14,442.99,19.6,52.6,0.0,0.0,0.0,0.0,0.0,0.75,0.25,0.25,0.5,0.0,0.0,0.0,0.0,0.02,0.2,1.2,34.3,6.6,-0.8
0.24,8.75,3.25,0.0,10.5,0.0,0.0,1.5,1.0,0.0,0.75,1.5,0.25,1.0,-0.11,0.2,1.02,465.91,18.6,52.0,0.0,0.25,0.0,0.0,0.0,0.0,0.25,0.5,0.25,0.0,0.5,0.0,0.0,0.02,0.14,1.08,21.64,-4.3,-22.7
0.26,7.5,0.0,5.25,7.25,8.5,3.5,1.75,2.0,0.5,0.0,1.5,0.0,0.25,-0.17,0.2,1.08,536.69,12.7,49.3,0.0,0.0,0.0,0.0,0.0,0.75,0.5,0.75,0.5,1.5,1.0,0.75,0.0,0.14,0.02,1.08,38.97,3.9,-52.8
0.28,7.75,1.75,0.0,9.25,0.0,4.25,5.25,2.5,0.0,0.0,0.0,0.25,0.0,-0.23,0.2,1.02,526.93,14.0,54.6,1.0,0.25,0.75,0.0,0.25,0.75,0.5,0.75,0.5,0.25,1.25,0.0,0.0,0.27,-0.11,1.02,56.52,-9.9,8.7
0.3,8.25,3.25,5.5,10.5,8.75,5.0,2.5,2.25,0.25,0.75,0.0,0.25,0.5,-0.23,0.2,1.02,645.55,11.8,53.7,0.5,0.0,0.5,0.0,0.25,0.75,0.75,0.75,0.5,0.0,1.25,0.25,0.0,0.27,-0.17,1.02,65.67,-7.7,-7.9
0.32,8.0,3.25,4.25,9.25,9.0,4.5,2.5,2.25,0.25,0.75,1.75,0.25,1.0,-0.17,0.2,1.02,723.47,10.7,46.9,0.0,0.0,0.0,0.0,0.0,0.75,0.25,0.75,0.25,0.0,0.75,0.0,0.0,0.27,-0.23,0.89,55.93,5.5,-25.8
0.34,8.25,3.25,5.5,10.5,8.25,5.25,2.0,2.25,0.5,0.75,1.5,0.25,0.75,-0.17,0.14,0.95,830.43,11.5,48.6,0.0,0.25,0.0,0.0,0.0,0.75,0.25,0.75,0.5,0.0,0.25,0.0,0.0,0.33,-0.42,0.89,48.9,5.0,-5.2
0.36,8.5,3.25,5.25,10.5,8.75,5.0,2.0,2.25,0.5,0.75,1.5,0.25,0.25,-0.17,0.14,0.95,871.15,11.7,50.5,1.0,0.5,0.25,0.0,0.25,1.5,0.75,0.75,0.5,1.0,1.25,0.0,0.0,0.33,-0.67,0.95,67.56,-2.5,2.3
0.38,8.0,3.25,3.5,9.75,8.75,5.25,0.75,2.25,0.5,0.75,1.5,0.25,0.5,-0.17,0.2,0.95,871.39,9.8,48.8,1.0,0.25,0.0,0.25,1.5,1.25,0.25,0.75,0.5,1.0,1.0,0.75,0.25,0.39,-0.86,0.95,93.82,-0.3,-4.4
0.4,7.75,3.25,3.25,9.25,8.75,5.25,0.0,2.0,0.0,0.75,1.5,0.25,1.0,-0.17,0.2,0.89,830.54,9.0,48.2,1.0,0.25,0.75,0.5,1.5,1.25,0.25,0.75,0.25,1.0,1.0,0.5,0.25,0.39,-0.67,1.02,124.9,-3.4,6.5
0.42,7.75,3.25,3.5,9.25,8.75,5.25,0.75,2.25,0.0,0.75,1.5,0.25,1.25,-0.17,0.2,0.89,797.45,9.1,46.7,1.0,0.25,0.75,0.5,1.5,1.25,0.25,0.75,0.5,0.75,1.0,0.25,0.0,0.33,-0.42,0.89,143.36,-4.5,14.3
0.44,7.75,3.25,3.75,9.25,8.75,5.75,0.75,2.5,0.0,0.75,1.25,0.25,1.25,-0.17,0.14,0.89,783.2,8.8,46.9,1.0,0.25,0.75,0.0,1.5,0.25,0.25,0.75,0.5,1.0,1.0,0.25,0.25,0.27,-0.05,1.2,145.7,-5.8,2.0
0.46,7.5,3.0,3.25,9.25,8.75,6.0,0.5,2.25,0.0,1.0,1.5,0.25,1.25,-0.17,0.14,0.89,768.74,8.1,45.3,1.0,0.25,0.5,0.5,1.5,1.25,0.25,0.75,0.25,1.0,1.0,0.25,0.25,0.08,0.02,1.02,145.0,-2.2,8.2
0.48,7.25,3.0,2.25,9.25,8.75,6.0,0.25,2.5,0.0,1.0,0.0,0.25,1.25,-0.17,0.14,0.95,739.71,6.9,48.3,1.0,0.25,0.0,0.5,1.5,1.0,0.25,0.75,0.25,0.0,1.0,0.25,0.5,0.08,-0.11,1.14,135.98,-2.4,11.0
0.5,7.0,3.0,2.25,9.25,9.0,6.5,0.0,3.0,0.5,1.0,0.5,0.5,0.75,-0.17,0.14,0.95,714.49,6.4,45.6,1.0,0.25,0.25,0.5,1.5,1.0,0.25,0.5,0.5,1.0,1.0,0.0,0.25,0.14,-0.17,1.39,132.48,-2.5,9.5
0.52,7.0,2.75,2.5,9.0,8.75,7.0,0.5,3.0,0.5,1.0,0.0,0.25,0.5,-0.17,0.14,0.95,695.39,6.4,48.2,1.0,0.25,0.75,0.0,1.5,0.75,0.25,0.5,0.75,0.75,1.0,0.5,0.25,0.2,0.14,0.95,131.85,-5.7,2.8
0.54,7.0,2.75,1.75,9.0,9.0,7.0,0.5,3.75,0.5,1.0,0.0,0.5,1.25,-0.17,0.14,0.95,674.87,5.1,42.9,1.0,0.25,0.25,0.5,1.5,0.75,0.25,0.5,0.25,0.5,1.0,0.25,0.25,0.02,0.33,1.02,129.63,-4.4,12.1
0.56,6.5,2.0,0.0,8.25,9.0,7.0,0.0,4.0,0.5,1.0,0.0,0.5,1.25,-0.17,0.14,0.95,651.99,2.7,39.8,1.0,0.25,0.0,0.5,1.5,1.5,0.25,0.75,0.5,1.0,1.0,0.25,0.25,-0.11,0.33,1.02,131.65,0.2,4.5
0.58,6.5,1.75,0.0,8.0,9.0,7.25,0.25,4.0,0.5,1.0,0.0,0.25,1.25,-0.17,0.14,0.95,630.1,2.4,40.1,1.0,0.25,0.25,0.5,2.25,1.25,0.25,0.5,0.25,0.5,1.0,0.0,0.25,0.08,0.27,1.14,130.35,-2.0,21.2
0.6,6.5,2.0,0.25,8.0,9.0,7.5,0.0,4.5,0.25,1.0,0.0,0.5,1.25,-0.17,0.14,0.95,617.07,2.2,39.2,1.25,0.25,0.5,1.25,2.25,2.0,0.25,0.5,0.25,0.75,1.0,0.25,0.25,0.08,0.2,1.02,141.5,-2.8,22.1
0.62,6.0,2.0,0.0,8.0,9.0,7.75,0.0,4.75,0.0,1.0,0.0,0.5,1.25,-0.17,0.14,0.95,612.18,1.3,38.4,2.0,0.25,0.75,1.75,3.75,2.5,0.5,0.0,0.0,0.75,0.5,0.25,0.25,0.08,0.14,1.02,167.24,-4.5,39.6
0.64,6.0,1.75,0.75,8.0,9.0,7.5,0.0,5.0,0.25,1.0,1.75,0.75,0.5,-0.17,0.14,0.95,621.2,2.7,34.9,2.25,0.5,1.0,1.75,5.25,3.5,0.75,0.5,0.5,0.75,0.0,0.5,0.25,0.08,0.14,1.08,211.09,-3.0,39.2
0.66,6.0,1.75,0.5,7.5,8.75,7.5,0.0,5.0,1.0,1.0,1.75,1.0,1.0,-0.17,0.14,0.95,631.69,2.3,30.6,3.5,0.75,1.75,3.25,5.25,4.25,0.75,0.75,0.75,1.25,1.0,0.5,0.5,0.08,0.14,1.02,271.09,-5.5,34.3
0.68,5.5,1.75,1.0,7.0,8.75,7.5,0.0,5.25,0.5,1.25,1.75,1.25,1.25,-0.17,0.14,0.95,642.66,1.8,28.1,3.75,0.75,2.5,3.0,5.25,4.5,1.25,2.0,1.25,1.5,1.75,0.5,1.0,0.08,0.14,0.95,338.99,-5.3,24.6
0.7,5.25,1.75,1.0,6.75,8.75,7.5,0.0,5.75,1.25,1.5,1.75,1.0,1.25,-0.17,0.14,0.95,652.81,1.4,25.8,4.0,1.0,2.75,3.0,5.25,5.25,1.75,2.5,1.75,5.75,3.25,3.0,2.0,0.08,0.08,0.95,454.81,-2.9,-1.2
0.72,5.5,1.5,1.25,6.75,8.5,7.75,0.0,5.75,1.25,1.5,2.25,1.25,1.25,-0.17,0.14,0.95,666.73,1.8,24.0,3.0,0.75,2.75,2.75,5.25,5.5,1.75,3.75,1.75,6.0,5.25,3.5,3.25,0.08,0.08,0.95,577.36,-1.2,-13.0
0.74,4.75,1.5,0.75,6.75,8.5,7.5,0.25,6.0,1.25,1.5,2.25,1.25,1.25,-0.17,0.14,0.95,667.38,0.9,22.1,2.5,0.5,2.0,2.75,5.25,5.75,1.25,5.0,1.75,6.75,5.25,4.5,4.75,0.08,0.08,0.95,687.1,1.0,-22.6
0.76,5.0,1.5,0.25,6.75,8.75,7.5,0.0,6.25,1.25,2.0,2.5,1.25,1.25,-0.17,0.14,0.95,673.62,0.3,20.2,2.25,0.75,1.25,1.25,5.25,5.75,1.25,5.5,1.75,7.25,6.25,5.0,5.5,0.14,0.08,0.95,759.56,2.5,-30.5
0.78,4.5,1.5,0.25,6.5,8.5,7.5,0.25,6.0,1.25,2.0,2.0,1.25,1.25,-0.17,0.14,0.95,666.33,0.0,20.4,2.0,0.75,1.0,0.75,5.25,5.75,1.0,6.0,1.75,7.75,6.25,5.5,6.0,0.08,0.08,0.95,809.96,3.4,-34.8
0.8,4.25,1.5,0.25,6.25,8.25,7.5,0.0,6.0,1.25,2.5,2.0,1.25,1.0,-0.17,0.14,0.95,657.25,-0.4,19.2,2.0,0.5,1.0,0.5,5.25,5.5,0.75,6.0,1.5,8.0,6.75,5.75,7.0,0.08,0.08,0.95,838.82,3.8,-38.9
0.82,4.0,1.5,0.0,5.75,8.25,7.5,0.0,6.25,1.25,2.5,2.75,1.25,1.25,-0.17,0.14,0.95,642.4,-1.0,15.3,1.25,0.25,1.0,0.5,4.5,5.5,0.75,6.0,1.5,8.25,6.75,5.75,7.0,0.08,0.08,0.95,845.88,4.5,-43.4
0.84,3.25,1.5,0.5,4.75,8.25,7.5,0.0,6.25,1.25,2.5,2.75,1.25,1.25,-0.17,0.14,0.95,623.56,-1.6,13.4,1.0,0.5,1.0,0.5,3.5,5.25,0.75,6.0,1.25,8.5,6.75,6.25,7.75,0.08,0.08,0.95,842.04,4.7,-48.0
0.86,2.75,1.5,0.25,4.5,8.0,7.25,0.0,6.5,1.25,2.5,2.75,0.75,1.25,-0.17,0.14,0.95,598.08,-2.5,12.6,1.0,0.25,0.75,0.5,2.5,5.0,0.75,6.0,1.25,8.25,6.75,6.25,8.0,0.08,0.08,0.95,816.41,4.9,-52.5
0.88,2.5,1.25,0.0,4.5,8.0,7.0,0.0,6.5,1.25,2.5,2.75,1.25,1.25,-0.17,0.14,0.95,572.15,-2.8,9.6,1.0,0.25,0.75,0.5,2.25,4.5,0.75,6.0,1.25,8.25,6.75,6.5,8.0,0.08,0.08,0.95,785.26,4.7,-54.3
0.9,1.75,1.0,0.0,3.75,7.5,7.0,0.25,6.5,1.25,2.5,2.75,1.25,1.25,-0.17,0.14,0.95,539.5,-3.9,5.7,1.0,0.25,0.75,0.5,1.75,4.25,0.5,6.0,1.25,8.5,6.75,7.0,8.25,0.08,0.08,0.95,755.82,4.7,-57.3
0.92,1.0,0.75,0.25,2.75,7.25,7.0,0.0,6.5,1.0,2.5,2.5,1.25,1.25,-0.17,0.14,0.95,498.35,-5.5,2.4,1.0,0.25,0.75,0.5,1.75,3.75,0.5,6.0,1.0,8.75,6.75,7.0,8.5,0.08,0.08,0.95,734.63,4.7,-58.8
0.94,1.0,0.5,0.0,2.75,7.0,7.0,0.0,6.5,0.75,2.5,2.0,1.25,1.25,-0.17,0.14,0.95,457.46,-6.4,2.2,1.0,0.25,0.75,0.0,1.5,2.75,0.25,6.0,1.25,8.75,6.75,7.5,8.75,0.08,0.08,0.95,714.53,4.5,-63.7
0.96,1.0,0.5,0.25,2.75,6.75,6.75,0.0,6.5,0.5,2.5,2.0,0.25,1.25,-0.17,0.14,0.95,421.98,-6.6,5.8,1.0,0.5,0.75,0.5,1.75,3.25,0.25,6.0,1.0,9.25,7.0,7.75,9.0,0.08,0.08,0.95,720.73,4.4,-60.6
0.98,1.0,0.5,0.0,2.5,6.0,6.0,0.0,6.25,0.25,1.75,1.75,0.25,1.25,-0.17,0.14,0.95,383.64,-6.9,6.3,1.75,0.25,0.75,0.5,1.5,3.0,0.25,6.0,0.5,9.25,6.75,7.75,9.25,0.08,0.08,0.95,724.91,4.2,-60.8
1.0,1.0,0.5,0.0,1.25,5.5,6.0,0.0,6.0,0.0,1.0,1.5,0.25,0.5,-0.17,0.14,0.95,340.16,-8.1,10.4,1.0,1.25,0.5,0.0,2.25,3.25,0.25,6.0,0.75,9.5,6.75,7.0,9.25,0.08,0.08,0.95,730.86,5.1,-58.2
1.02,1.0,0.25,0.25,0.75,4.25,5.25,0.0,5.5,0.0,1.0,1.25,0.25,0.5,-0.17,0.14,1.02,293.37,-8.2,7.1,1.0,0.25,0.5,0.5,1.75,2.75,0.25,6.25,0.75,9.5,6.75,7.75,9.5,0.08,0.08,0.95,734.74,5.0,-63.6
1.04,0.25,0.5,0.25,0.75,3.25,3.75,0.0,5.0,0.0,1.0,1.5,0.25,0.75,-0.17,0.2,1.2,251.1,-8.4,-1.9,1.0,0.25,0.5,0.5,1.5,3.25,0.75,6.5,0.75,9.5,6.75,7.25,9.5,0.14,0.08,0.95,739.09,5.2,-62.3
1.06,0.5,0.5,0.0,0.5,3.75,2.75,0.0,3.5,0.5,1.0,0.5,0.25,0.5,-0.11,0.2,1.33,207.41,-7.4,6.6,1.25,0.75,1.25,0.0,1.5,2.75,0.25,6.25,0.75,9.75,6.25,7.75,9.75,0.14,0.08,0.95,745.46,4.4,-61.3
1.08,1.0,0.5,0.0,0.75,3.25,1.5,0.0,3.75,0.0,1.0,0.75,0.25,0.75,-0.17,0.33,1.2,173.89,-5.1,3.5,1.0,0.25,0.0,0.0,1.5,1.5,0.25,6.75,0.75,9.75,6.25,7.25,10.0,0.14,0.08,0.95,736.37,5.9,-69.5
1.1,0.25,0.5,0.0,0.5,3.0,1.5,0.0,3.25,0.5,1.0,0.5,0.25,0.25,-0.73,2.08,0.7,144.68,-6.7,2.1,0.0,0.0,0.0,0.0,0.0,0.5,0.0,6.0,0.25,8.5,4.75,7.5,10.0,0.14,0.08,0.95,684.28,7.1,-84.2
1.12,0.0,0.0,0.0,0.5,2.0,1.5,0.0,2.0,0.5,1.0,0.5,0.5,0.75,-0.11,1.52,0.64,114.74,-7.9,-15.3,1.0,0.25,0.0,0.5,0.25,2.5,0.5,6.25,0.5,9.5,5.25,7.25,9.25,0.14,0.02,0.95,658.19,6.1,-69.1
1.14,0.0,0.5,0.0,0.75,1.75,1.5,0.0,2.5,0.5,1.0,0.75,0.25,1.0,1.27,1.58,1.27,101.74,-6.9,-12.4,1.25,0.75,0.0,0.5,1.5,2.5,0.25,6.75,0.5,9.5,5.25,6.75,10.0,0.14,0.02,0.89,652.41,6.1,-62.6
1.16,0.0,0.25,0.25,0.75,2.5,1.5,0.0,2.5,0.5,0.75,0.75,0.25,0.5,0.58,1.27,0.77,99.22,-5.5,-1.9,1.5,0.25,0.25,0.5,1.5,2.0,0.5,6.25,0.5,9.5,3.5,7.0,9.0,0.2,0.02,0.89,642.24,5.8,-62.7
1.18,0.0,0.0,0.25,0.0,0.0,3.25,0.0,0.0,2.75,1.5,0.0,0.5,0.0,-0.42,1.33,0.83,89.79,-5.7,-18.9,1.0,0.5,0.0,0.5,0.0,1.75,0.25,6.25,0.5,8.75,4.75,7.0,11.0,0.2,0.02,0.89,640.41,6.3,-72.3
1.2,0.0,0.0,0.0,0.0,0.0,0.0,0.0,0.0,0.0,0.0,0.0,0.0,0.0,-0.73,1.08,0.7,43.84,0.0,0.0,1.0,0.25,0.0,0.5,1.5,1.5,0.25,6.75,0.5,9.25,4.5,6.5,11.0,0.2,0.02,0.89,643.83,6.7,-68.1
1.22,0.0,0.5,0.0,1.0,0.0,2.0,0.0,0.0,2.5,0.0,0.0,0.0,0.0,-0.67,0.77,1.02,36.52,1.9,13.6,1.0,0.25,0.0,0.0,1.5,1.0,0.25,6.75,0.5,8.5,4.5,6.5,11.0,0.2,0.02,0.89,639.88,6.6,-70.7
1.24,0.0,0.5,1.0,0.5,2.0,1.0,1.25,4.25,0.5,0.75,1.5,0.25,0.5,-0.48,0.45,1.02,73.91,-1.5,-8.6,1.0,0.25,0.0,0.5,1.25,2.25,0.25,6.75,0.0,9.0,4.25,6.25,10.0,0.2,0.02,0.89,631.0,7.1,-66.2
1.26,0.25,0.5,0.75,0.5,2.0,1.0,0.0,2.25,0.5,0.75,0.25,0.25,0.5,-0.42,0.39,0.89,105.18,-2.2,4.3,0.0,0.0,0.0,0.0,1.5,1.0,0.25,6.25,0.25,9.5,4.25,6.5,9.25,0.27,0.02,0.95,612.66,7.7,-74.7
1.28,1.0,0.5,0.25,0.5,1.25,1.0,0.5,2.25,0.5,0.75,1.0,0.25,0.5,-0.42,0.27,0.95,132.39,0.1,-1.5,1.0,0.25,0.0,0.5,1.5,1.25,0.25,6.75,0.5,9.5,4.25,6.5,11.5,0.27,0.02,0.89,627.26,6.8,-69.1
1.3,1.5,0.5,0.0,0.25,1.5,1.75,0.5,3.0,0.0,0.0,1.25,0.5,0.25,-0.42,0.2,1.02,148.53,-1.1,6.3,1.0,0.25,0.0,0.0,1.5,0.75,0.25,6.0,0.75,9.5,4.0,6.5,9.25,0.27,0.02,0.89,616.35,6.3,-70.0
1.32,1.5,0.5,0.75,1.0,2.0,0.0,1.0,3.25,0.0,0.0,1.0,0.0,0.5,-0.42,0.14,1.02,159.18,5.3,15.7,1.0,0.25,0.0,0.5,1.5,1.0,0.25,6.0,0.5,9.75,4.0,6.25,11.5,0.2,-0.05,0.95,635.28,6.8,-70.0
1.34,2.0,0.0,0.0,0.0,0.0,0.0,1.0,2.25,0.0,0.0,2.0,0.0,0.5,-0.48,0.14,0.83,143.74,8.0,-13.3,1.0,0.25,0.0,0.5,1.5,1.25,0.25,6.0,0.5,9.75,3.5,6.25,11.5,0.27,-0.05,0.89,641.6,7.1,-69.3
1.36,0.0,0.0,0.0,0.0,0.0,0.0,0.0,0.0,0.0,0.75,0.0,0.0,0.0,-0.48,-0.05,0.83,102.08,-15.6,-75.5,1.0,0.75,0.0,0.5,1.5,1.0,0.25,6.0,0.5,9.25,3.25,5.75,11.5,0.33,0.02,0.89,638.28,6.9,-67.2
1.38,0.0,0.0,0.0,0.0,0.0,0.0,0.0,0.0,0.0,0.0,0.0,0.0,0.0,-0.55,-0.3,1.02,52.02,0.0,0.0,1.0,0.25,0.0,0.0,1.5,1.0,0.25,6.0,0.5,9.0,2.75,5.0,11.0,0.33,0.02,0.95,612.67,7.9,-69.6
1.4,1.25,0.5,0.0,1.0,0.0,1.0,1.75,3.75,0.5,1.0,1.0,0.5,0.25,-0.61,-0.36,0.89,72.26,0.8,-10.0,1.0,0.25,0.0,0.5,1.5,0.75,0.25,5.5,0.25,8.25,2.5,3.5,9.75,0.39,0.02,0.95,564.78,7.9,-65.6
1.42,0.0,0.0,0.75,1.75,0.75,1.5,0.75,3.75,0.5,1.0,1.75,0.25,0.0,-0.61,-0.23,0.77,111.27,-1.1,-11.0,1.0,0.25,0.0,0.25,1.5,0.75,0.25,5.0,0.25,7.5,1.75,3.0,9.0,0.39,0.02,1.02,496.15,8.4,-64.8
1.44,1.0,0.5,0.75,0.75,0.75,1.0,0.5,2.25,0.5,0.75,0.25,0.25,0.0,-0.42,-0.17,0.89,139.73,2.9,12.3,1.25,0.5,0.0,0.0,1.5,0.5,0.25,4.5,0.5,6.5,1.25,2.0,8.0,0.33,-0.05,1.14,418.66,8.1,-60.2
1.46,0.0,0.0,2.0,0.0,0.0,0.0,1.5,0.5,1.0,0.0,0.0,0.0,0.0,-0.3,-0.11,0.95,120.86,24.8,20.5,0.0,0.0,0.0,0.0,0.0,0.0,0.0,0.5,0.0,5.5,0.0,1.5,6.0,0.33,-0.05,1.2,313.88,12.1,-93.4
1.48,1.0,0.0,2.0,0.0,0.0,0.0,2.25,4.5,0.0,0.75,0.0,0.25,1.25,-0.48,-0.8,2.27,126.2,4.0,-14.1,0.0,0.0,0.0,0.0,1.5,0.0,0.25,2.25,0.25,1.75,0.0,0.25,4.75,0.27,0.08,1.14,229.5,11.4,-62.0
1.5,0.0,0.0,0.25,0.0,0.0,0.0,0.0,2.25,0.0,0.0,1.0,0.25,0.0,-0.98,-0.73,1.08,98.21,-4.0,-46.1,0.0,0.0,0.0,0.5,0.25,1.5,0.25,2.25,0.0,2.75,0.0,0.75,4.0,0.45,0.27,1.14,159.3,12.3,-59.9
1.52,1.0,0.25,0.5,0.0,0.0,0.75,0.0,0.75,0.25,1.0,0.0,0.25,0.0,0.08,-0.17,0.83,86.55,3.5,6.6,0.75,0.25,0.0,0.5,1.0,0.5,0.0,2.0,0.25,2.25,0.5,1.0,2.5,0.27,1.27,0.95,109.66,5.5,-41.4
1.54,1.0,0.25,0.25,0.0,0.0,0.5,0.0,2.25,0.5,1.0,0.5,0.25,1.0,-1.11,1.27,1.45,86.07,-2.5,-28.2,0.75,0.25,0.0,0.25,1.5,1.25,0.25,1.25,0.25,2.0,1.0,1.0,2.5,0.14,1.7,0.45,91.59,5.0,-34.8
1.56,1.0,0.25,0.25,0.5,0.0,0.75,0.0,1.5,0.0,0.75,0.0,0.25,0.5,-0.73,-0.11,1.08,89.56,-0.5,-2.0,1.25,0.25,0.0,0.25,1.5,1.25,0.25,0.75,0.25,1.75,1.0,0.75,2.25,-0.42,2.08,1.39,82.38,2.7,-25.1
1.58,1.0,0.25,0.5,0.5,0.5,0.75,0.0,1.75,0.25,0.75,0.0,0.25,0.0,-0.55,0.45,1.2,96.55,1.6,11.1,1.0,0.25,0.0,0.25,1.25,0.5,0.25,0.75,0.25,1.5,1.0,0.75,2.0,-0.05,1.14,1.14,75.95,1.5,-31.1
1.6,1.0,0.25,0.75,0.5,0.75,0.75,0.0,2.25,0.0,0.75,0.0,0.25,0.25,0.77,0.45,0.95,106.15,0.6,8.6,0.5,0.25,0.25,0.5,1.25,0.75,0.0,0.75,0.25,1.5,1.0,0.75,1.5,0.52,0.14,0.83,70.44,2.0,-27.3
1.62,1.0,0.25,0.5,0.5,0.5,0.5,0.0,1.75,0.0,0.75,0.0,0.25,0.25,-0.11,1.08,0.64,102.76,1.5,7.2,1.0,0.25,0.5,0.0,1.5,0.75,0.25,0.75,0.5,1.5,1.0,0.5,1.25,0.39,-0.23,0.77,76.45,-0.4,-16.5
1.64,1.0,0.0,0.25,0.0,0.5,0.5,0.0,2.25,0.25,0.75,0.0,0.25,0.25,0.08,0.64,1.08,90.8,-3.0,-9.1,1.25,0.0,0.5,0.0,1.25,0.75,0.25,0.75,0.25,1.25,1.0,0.75,1.25,-0.05,0.02,0.45,85.74,-1.4,-19.4
1.66,1.0,0.0,0.5,0.0,0.0,0.0,0.0,1.75,0.25,0.75,0.25,1.0,0.0,0.33,0.95,0.83,86.05,4.7,-25.5,0.75,0.25,0.25,0.0,0.0,0.5,0.25,0.75,0.5,1.5,1.0,1.0,1.5,-0.48,-0.42,1.27,93.83,0.1,-47.6
1.68,0.5,0.0,0.0,0.5,0.0,0.5,0.0,0.75,0.5,0.0,0.25,1.25,1.0,-0.3,0.02,1.27,84.23,1.4,-42.9,1.0,0.25,0.5,0.0,1.25,0.5,0.25,0.75,0.25,1.5,1.0,0.5,1.25,1.08,1.14,-0.55,106.13,-0.8,-19.5
1.7,1.0,0.25,0.75,0.5,0.0,0.5,0.0,2.25,0.25,1.0,1.5,2.5,2.75,-0.36,0.02,1.33,122.9,0.9,-49.5,1.25,0.0,0.75,0.0,1.25,0.5,0.25,0.75,0.25,2.5,1.0,1.25,2.5,4.2,-7.98,2.02,134.44,0.3,-37.6
1.72,1.0,0.25,0.25,0.5,0.0,0.75,0.0,2.25,0.5,1.25,2.0,4.25,3.75,-0.36,-0.11,0.52,175.13,-0.4,-62.7,0.75,0.25,0.5,0.0,1.25,1.0,0.25,0.75,0.25,2.25,1.0,1.25,3.25,1.77,1.95,0.08,155.82,3.4,-42.8
1.74,1.0,0.25,0.25,0.5,0.0,0.5,0.0,2.0,0.5,2.25,2.75,5.25,5.5,-0.05,0.02,0.95,244.39,-1.0,-71.5,1.0,0.25,0.0,0.5,0.5,1.25,0.25,0.75,0.25,2.0,1.0,1.25,3.25,0.83,0.39,0.95,170.44,3.7,-44.8
1.76,1.0,0.25,0.5,0.5,0.0,0.25,0.0,1.75,0.5,2.5,3.0,6.0,6.25,-0.3,-0.05,0.95,293.18,-0.3,-74.2,1.0,0.25,0.0,0.0,0.5,0.5,0.25,0.75,0.25,2.25,1.0,1.0,3.25,-0.86,-0.48,0.39,175.38,4.0,-54.1
1.78,1.0,0.25,0.25,0.5,0.0,0.25,0.0,2.25,0.5,2.5,3.5,6.25,7.25,-0.17,-0.11,0.89,343.87,-1.3,-76.7,1.0,0.25,0.0,0.0,0.5,0.75,0.25,0.75,0.25,2.5,1.0,2.0,3.75,-1.05,-0.23,0.7,185.01,4.0,-59.4
1.8,1.0,0.25,0.5,1.0,0.0,0.5,0.0,2.25,0.5,2.75,4.25,6.25,7.5,-0.11,-0.11,0.89,385.65,-0.6,-72.1,0.75,0.25,0.0,0.5,1.5,0.75,0.25,0.75,0.25,2.75,1.25,2.5,5.5,0.45,0.14,0.77,210.83,4.4,-57.6
1.82,1.0,0.25,0.5,0.25,0.0,0.5,0.5,1.25,1.0,4.25,4.0,6.75,7.75,-0.23,-0.17,0.83,422.43,-0.9,-76.7,1.0,0.25,0.0,0.25,1.25,0.5,0.25,0.75,0.25,2.5,1.25,3.25,6.5,1.77,-0.3,0.45,240.36,3.8,-65.1
1.84,1.0,0.5,0.25,0.0,0.0,0.5,0.0,1.5,0.5,3.5,3.25,7.0,8.25,-0.3,-0.11,0.89,441.07,-2.1,-80.0,1.0,0.25,0.0,0.0,0.5,1.0,0.0,0.75,0.25,3.0,1.5,3.75,7.25,0.89,-0.23,0.52,269.77,5.0,-73.6
1.86,1.0,0.25,0.25,0.25,0.0,0.25,0.0,1.75,0.5,4.25,3.5,7.25,8.25,-0.17,-0.11,0.89,456.45,-2.2,-81.1,1.0,0.5,0.0,0.0,1.25,0.75,0.25,0.75,0.25,3.75,1.5,3.5,7.75,0.45,-0.67,0.95,294.42,5.1,-67.4
1.88,1.25,0.5,0.5,1.0,0.0,0.5,0.0,2.25,0.25,4.25,3.5,7.25,8.25,-0.23,-0.17,0.83,467.75,-1.4,-71.9,0.75,0.25,0.0,0.0,1.25,0.75,0.0,0.75,0.0,4.0,1.75,3.5,8.0,0.39,-0.73,0.89,314.38,6.2,-72.9
1.9,0.75,0.25,0.5,0.0,0.0,0.25,0.0,2.25,0.5,4.5,5.0,7.5,8.5,-0.17,-0.11,0.89,480.51,-2.0,-81.9,1.0,0.25,0.0,0.0,1.25,1.25,0.25,0.75,0.0,2.5,1.5,3.75,8.0,0.83,-1.3,0.95,321.03,5.2,-68.1
1.92,0.75,0.25,0.25,0.0,0.0,0.0,0.0,2.0,0.5,4.5,5.0,7.5,8.75,-0.17,-0.11,1.08,482.48,-2.2,-84.7,1.0,0.0,0.0,0.25,1.5,0.5,0.25,0.75,0.0,2.5,1.25,2.5,7.0,1.08,-2.23,0.52,305.48,5.1,-65.3
1.94,0.25,0.25,0.25,0.0,0.0,0.25,0.0,2.0,0.5,4.5,5.0,7.5,8.75,-0.36,-0.11,0.95,475.72,-2.9,-86.7,1.25,0.25,0.0,0.25,1.25,0.75,0.0,0.75,0.0,2.25,1.0,1.75,6.0,1.33,-2.55,0.08,281.26,5.0,-56.3
1.96,0.75,0.25,0.0,0.0,0.0,0.25,0.0,2.25,0.25,4.75,5.25,7.5,9.0,-0.23,-0.17,0.89,472.94,-3.0,-85.1,1.0,0.25,0.0,0.25,0.0,0.5,0.0,0.75,0.25,1.75,1.0,1.0,4.0,0.95,-0.98,0.08,240.02,4.1,-61.1
1.98,1.0,0.25,0.0,0.0,0.0,0.25,0.0,2.25,0.25,5.0,5.25,7.5,9.0,-0.17,-0.17,1.02,471.29,-2.8,-83.6,1.0,0.25,0.0,0.5,0.25,0.5,0.25,0.75,0.0,1.5,1.0,0.75,3.0,0.39,-0.11,0.89,196.72,2.5,-47.1
2.0,0.5,0.25,0.0,0.0,0.0,0.5,0.0,1.5,0.25,5.25,5.25,7.5,9.0,-0.3,-0.05,1.14,468.67,-3.3,-86.6,1.0,0.25,0.0,0.0,1.25,0.0,0.25,0.75,0.25,1.0,1.0,0.0,2.25,-0.05,0.2,0.27,149.85,1.4,-30.3
2.02,0.5,0.25,0.0,0.0,0.0,0.0,0.0,2.25,0.0,5.25,5.0,7.5,9.25,-0.23,-0.11,1.02,466.05,-3.7,-87.9,1.0,0.5,0.0,0.0,1.5,0.25,0.25,0.75,0.25,1.5,1.0,0.75,1.5,-0.8,1.33,1.52,120.51,0.5,-24.7
2.04,0.0,0.25,0.0,0.0,0.0,0.0,0.0,2.25,0.25,5.25,5.0,7.5,9.0,-0.42,-0.17,1.08,460.81,-4.1,-90.3,1.0,0.25,0.5,0.0,1.25,0.5,0.25,0.75,0.5,1.5,1.0,0.75,1.5,0.08,0.02,1.45,104.39,-0.9,-24.7
2.06,1.0,0.25,0.0,0.0,0.0,0.25,0.0,2.0,0.25,4.75,5.0,7.5,9.25,-0.3,-0.17,0.95,458.06,-2.8,-84.3,1.0,0.25,0.25,0.0,1.25,0.25,0.25,0.75,0.25,2.0,1.0,0.75,1.25,0.39,-1.05,1.64,99.76,0.2,-28.6
2.08,0.75,0.25,0.0,0.0,0.0,0.25,0.0,2.25,0.0,4.5,5.0,7.25,9.0,-0.11,-0.17,0.95,450.38,-3.3,-85.4,1.0,0.25,0.5,0.0,1.5,1.0,0.25,0.75,0.25,1.25,1.0,0.75,1.25,1.02,-1.42,0.83,101.36,-0.2,-15.6
2.1,0.0,0.0,0.0,0.0,0.0,0.5,0.0,2.25,0.25,4.5,4.0,7.25,9.25,-0.36,-0.23,0.83,437.32,-5.0,-90.8,1.0,0.25,0.5,0.0,1.25,0.0,0.25,0.5,0.25,1.5,1.0,0.75,1.25,1.52,-0.86,0.39,98.7,-2.9,-24.5
2.12,0.75,0.25,0.0,0.25,0.0,0.25,0.0,2.25,0.0,4.5,3.75,7.25,9.25,-0.36,-0.17,0.89,425.9,-3.8,-84.7,1.0,0.25,0.5,0.25,1.5,0.5,0.25,0.75,0.0,1.25,1.0,0.75,1.25,1.45,-0.36,-0.36,104.06,-1.5,-15.5
2.14,1.0,0.0,0.0,0.5,0.0,0.5,0.0,2.25,0.25,4.5,2.75,7.0,9.25,-0.42,-0.3,0.89,414.28,-4.0,-82.3,1.0,0.0,0.75,0.5,1.25,0.5,0.25,0.75,0.25,1.5,1.0,0.5,1.25,1.08,-0.17,-0.61,111.52,-2.4,-16.3
2.16,1.0,0.25,0.0,0.5,0.0,0.5,0.0,2.25,0.25,4.5,3.25,6.75,9.25,-0.23,-0.3,0.95,409.43,-3.7,-80.3,1.25,0.5,0.75,0.25,1.25,0.5,0.25,0.75,0.5,1.25,1.0,0.75,1.25,1.08,-0.42,0.14,126.54,-4.1,-11.1
2.18,1.0,0.25,0.0,0.5,0.0,0.75,0.0,2.25,0.25,4.5,3.5,6.75,9.0,-0.42,-0.3,0.95,407.12,-3.7,-79.0,1.0,0.25,0.75,0.0,1.0,0.75,0.25,0.75,0.25,1.0,1.0,0.75,1.25,1.33,-0.8,0.83,131.66,-2.6,-17.5
2.2,0.25,0.0,0.0,0.25,0.0,0.5,0.0,2.25,0.25,4.25,2.75,6.5,9.0,-0.42,-0.3,1.02,395.41,-5.3,-87.8,1.0,0.25,0.75,0.25,1.5,1.25,0.25,0.75,0.25,1.25,1.0,0.75,1.25,0.83,-0.61,0.83,143.67,-1.0,-10.8
2.22,0.5,0.25,0.0,0.5,0.0,0.0,0.0,2.0,0.25,4.25,3.0,6.25,8.5,-0.8,-0.86,0.7,382.7,-3.9,-84.7,1.0,0.25,0.5,0.25,1.5,0.5,0.25,0.75,0.0,0.75,1.0,0.75,1.25,0.27,0.02,0.14,140.95,-2.5,-12.0
2.24,0.0,0.25,0.0,0.5,0.0,0.5,0.0,2.25,0.25,4.25,2.75,5.75,8.25,-2.11,-2.48,-0.11,367.94,-5.5,-84.7,1.0,0.25,0.75,0.0,1.25,1.0,0.25,0.5,0.25,1.25,1.0,0.75,1.25,-0.11,0.45,0.14,141.67,-1.8,-15.0
2.26,0.75,0.0,0.0,0.5,0.0,0.25,0.0,2.25,0.25,3.25,2.75,4.25,7.75,-2.61,-2.55,-0.23,342.19,-4.5,-80.5,1.0,0.25,0.75,0.5,1.5,1.0,0.25,0.5,0.25,1.0,1.0,0.75,1.25,-0.61,0.77,0.27,141.7,-2.9,-7.7
2.28,1.5,0.25,0.0,0.25,0.0,0.5,0.0,2.25,0.25,2.5,2.5,3.5,7.0,-1.05,-1.67,0.39,311.3,-3.4,-70.6,1.0,0.5,0.75,0.5,1.25,0.5,0.25,0.75,0.0,0.0,1.0,0.0,1.25,-0.8,0.7,-0.23,135.74,-5.9,9.3
2.3,0.5,0.25,0.0,0.5,0.75,0.0,0.0,2.75,0.25,1.0,1.75,2.25,5.0,-0.3,-0.67,1.14,268.53,-4.3,-64.7,1.0,0.0,0.5,0.0,1.5,0.25,0.25,0.75,0.25,1.25,1.0,0.75,1.25,0.33,0.45,-0.61,131.96,-1.7,-23.0
2.32,0.0,0.0,0.0,0.0,0.5,0.0,0.0,2.25,0.0,0.0,0.25,0.0,2.5,-0.92,0.08,1.58,191.64,-12.8,-63.3,1.0,0.25,0.0,0.5,1.25,1.0,0.25,0.5,0.25,1.0,1.0,0.75,1.25,0.2,-3.86,-0.36,129.13,0.0,-15.6
2.34,0.75,0.25,0.0,0.25,0.0,0.0,0.0,0.5,0.0,0.0,0.0,0.25,1.25,-2.3,-0.86,0.77,102.59,2.5,-24.2,0.0,0.0,0.5,0.0,1.5,0.5,0.25,0.75,0.25,1.0,1.0,0.25,1.25,0.33,-3.11,0.45,121.38,3.1,-28.9
2.36,1.0,0.25,0.0,0.5,0.0,0.25,0.0,2.25,0.0,0.5,0.0,0.5,1.25,0.39,-0.55,2.27,44.39,-2.9,-25.5,0.0,0.25,0.0,0.25,0.0,0.0,0.0,0.0,0.0,0.0,0.25,0.0,0.25,0.7,-0.61,1.33,81.88,-6.7,-5.7
2.38,1.25,0.0,0.0,0.0,0.0,0.5,0.0,0.5,0.0,0.5,0.5,0.25,1.25,-0.55,0.08,2.39,7.6,0.7,-28.3,0.5,0.25,0.0,0.25,1.5,0.5,0.0,0.25,0.25,1.0,0.0,0.75,0.0,0.02,0.2,0.64,69.34,0.4,3.4
2.4,0.5,0.25,0.25,0.5,0.0,0.25,0.0,1.75,0.0,0.0,1.0,0.25,1.25,-1.11,0.58,0.7,3.35,-0.2,-30.7,1.0,0.25,0.75,0.0,1.5,0.75,0.25,0.5,0.25,1.25,1.0,0.75,1.25,-0.42,-0.55,0.33,80.44,-2.2,-14.2
2.42,1.0,0.25,0.25,0.25,0.0,0.25,0.0,1.5,0.0,0.75,1.5,0.25,1.5,-1.67,0.33,-0.73,18.03,0.6,-35.6,1.0,0.25,0.75,0.0,1.25,0.5,0.25,0.5,0.25,1.5,0.75,0.75,1.25,-0.48,-0.8,0.27,100.87,-2.4,-17.7
2.44,1.0,0.25,0.25,0.0,0.0,0.25,0.0,2.0,0.0,0.25,0.75,0.25,1.5,-1.48,0.33,-0.61,31.52,-1.2,-32.1,1.25,0.25,0.75,0.25,1.0,0.75,0.25,0.75,0.25,1.0,1.0,0.75,1.0,0.02,-0.86,0.39,119.01,-4.3,-9.8
2.46,1.25,0.25,0.0,0.0,0.0,0.25,0.0,2.0,0.0,0.75,1.0,0.25,1.25,-0.73,-0.17,-0.42,43.33,-1.6,-33.0,1.0,0.25,0.75,0.0,1.0,1.0,0.25,0.75,0.25,1.0,1.0,0.75,1.0,0.52,-0.55,0.58,130.51,-2.4,-13.5
2.48,1.0,0.25,0.5,0.0,0.0,0.25,0.25,1.75,0.0,0.75,1.0,0.25,1.25,-0.42,-0.48,0.7,56.94,1.1,-29.2,1.0,0.5,0.75,0.0,1.25,0.0,0.25,0.5,0.5,0.5,0.75,0.75,1.25,1.2,-0.42,0.7,128.97,-6.7,-10.4
2.5,1.0,0.25,0.75,0.0,0.0,0.25,0.0,1.75,0.0,0.25,0.75,0.25,1.25,-0.3,-0.67,1.27,69.74,2.9,-21.3,1.0,0.25,0.75,0.0,1.25,0.5,0.25,0.5,0.25,1.25,1.0,0.25,1.0,0.95,-0.67,0.39,125.92,-3.3,-9.2
2.52,1.0,0.25,0.25,0.0,0.0,0.25,0.0,1.25,0.0,0.0,1.0,0.25,1.25,-0.48,-0.3,0.95,74.78,2.6,-27.5,1.0,0.25,0.75,0.5,1.5,0.5,0.25,0.75,0.25,1.0,1.0,0.75,1.0,0.64,-0.8,0.33,133.02,-4.1,-7.9
2.54,0.75,0.25,0.5,0.0,0.0,0.0,0.0,1.5,0.0,0.0,1.0,0.0,1.25,-0.36,0.52,0.08,80.66,2.8,-28.1,1.0,0.25,1.0,0.0,1.5,0.75,0.25,0.5,0.25,0.75,1.0,0.5,0.75,0.52,-1.11,0.27,134.94,-5.2,0.2
2.56,0.0,0.0,0.0,0.0,0.0,0.0,0.0,0.5,0.0,0.0,0.0,0.0,0.25,-0.3,0.7,0.08,61.52,-15.7,-62.9,0.75,0.25,0.75,0.0,1.5,0.25,0.25,0.5,0.25,1.0,1.0,0.5,1.0,0.52,-0.8,0.52,134.24,-3.6,-12.3
2.58,0.0,0.0,0.0,0.0,0.0,0.0,0.0,0.5,0.0,0.0,0.0,0.0,0.25,-0.36,0.7,0.08,36.69,-15.7,-62.9,1.0,0.25,0.75,0.0,1.5,0.5,0.25,0.5,0.5,0.0,1.0,0.0,0.75,0.45,-0.61,0.64,128.69,-7.1,11.3
2.6,0.0,0.0,0.75,0.0,0.0,0.25,0.0,0.75,0.0,0.0,0.0,0.0,0.0,-0.23,0.2,-0.11,17.78,6.5,14.8,0.0,0.0,0.0,0.0,0.0,0.0,0.0,0.0,0.0,0.0,0.0,0.0,0.0,0.27,-0.61,0.64,86.04,0.0,0.0
2.62,0.0,0.0,0.0,0.0,0.0,0.0,0.0,0.5,0.0,0.0,0.0,0.0,0.25,-1.36,-0.8,0.08,6.98,-15.7,-62.9,0.0,0.0,0.0,0.0,0.0,1.5,0.0,0.0,0.25,0.5,0.0,0.5,0.0,0.33,-0.55,0.45,52.1,12.3,-20.1
2.64,0.25,0.25,0.0,0.5,0.0,0.25,0.0,0.5,0.25,0.75,0.0,0.0,0.25,-1.61,-4.11,0.02,11.64,-1.8,-9.0,1.0,0.25,0.75,0.0,1.5,0.75,0.25,0.75,0.25,0.5,1.0,0.5,1.0,0.45,-0.55,0.39,58.32,-3.6,-3.8
2.66,1.0,0.0,0.5,0.0,0.0,0.25,0.0,1.5,0.25,0.75,0.0,0.25,1.25,-1.67,-1.67,0.77,33.72,-0.4,-28.3,1.0,0.25,1.0,0.5,1.0,0.5,0.25,0.5,0.25,1.25,1.0,0.75,1.0,0.45,-0.55,0.52,85.69,-5.5,-10.8
2.68,1.0,0.25,0.5,0.5,0.0,0.25,0.0,1.75,0.25,0.75,0.5,0.25,1.25,-0.73,-0.17,-0.17,64.48,1.5,-21.1,1.0,0.75,0.75,0.0,1.25,0.5,0.25,0.5,0.25,0.75,0.75,0.5,1.0,0.45,-0.48,0.52,108.0,-4.9,0.4
2.7,1.0,0.25,0.5,0.25,0.0,0.25,0.0,1.5,0.25,0.75,0.0,0.25,1.0,0.02,0.52,-0.36,81.21,1.4,-15.5,0.75,0.0,0.75,0.0,0.5,0.0,0.25,0.5,0.0,0.0,1.0,0.0,1.0,0.45,-0.55,0.52,104.2,-9.4,-11.9
2.72,0.75,0.0,0.5,0.0,0.0,0.25,0.0,1.75,0.25,0.75,0.0,0.25,1.25,0.2,-0.05,-0.3,91.31,-2.5,-33.9,0.0,0.0,0.0,0.0,0.0,0.25,0.0,0.0,0.0,0.0,0.0,0.0,0.0,0.45,-0.67,0.45,68.85,22.9,34.0
2.74,1.25,0.25,0.75,0.0,0.0,0.25,0.0,1.25,0.25,0.75,0.0,0.25,1.25,-0.67,-0.36,0.08,96.83,3.7,-14.2,0.0,0.0,0.0,0.0,0.0,0.0,0.0,0.0,0.0,0.0,0.0,0.0,0.0,0.39,-0.73,0.52,27.29,0.0,0.0
2.76,1.0,0.25,0.5,0.25,0.0,0.25,0.0,0.75,0.25,0.75,0.0,0.25,1.25,-1.36,-0.73,0.2,96.65,3.2,-16.8,0.75,0.5,0.0,0.0,0.0,0.5,0.25,0.5,0.0,1.25,1.0,0.5,1.0,0.39,-0.73,0.52,31.02,0.5,-35.6
2.78,0.75,0.25,0.75,0.25,0.0,0.25,0.0,0.5,0.25,0.75,0.25,0.25,1.25,-1.48,-0.73,0.27,96.55,4.8,-19.6,0.0,0.0,0.0,0.0,0.0,0.25,0.0,0.0,0.0,0.0,1.0,0.0,1.0,0.39,-0.67,0.52,30.85,4.0,-79.7
2.8,0.75,0.0,0.75,0.0,0.0,0.25,0.0,0.0,0.25,0.75,0.0,0.25,1.25,-1.17,-0.42,0.14,90.51,5.7,-26.2,0.0,0.0,0.0,0.0,0.0,0.75,0.25,0.5,0.0,0.0,1.0,0.0,1.25,0.33,-0.67,0.45,44.9,7.7,-57.6
2.82,1.0,0.25,0.75,0.0,0.0,0.25,0.0,0.5,0.25,0.75,0.75,0.25,1.25,-0.86,-0.05,-0.05,90.11,5.9,-23.0,0.0,0.0,0.75,0.0,1.5,0.0,0.25,0.5,0.0,0.0,0.0,0.0,0.0,0.33,-0.67,0.45,48.25,-6.1,39.6
2.84,1.0,0.25,0.75,0.0,0.0,0.25,0.0,0.0,0.25,0.75,1.0,0.25,1.25,-0.67,-0.23,0.02,87.4,8.1,-23.8,0.0,0.0,0.0,0.0,0.0,0.0,0.0,0.0,0.0,0.0,0.0,0.0,0.0,0.27,-0.61,0.45,33.8,0.0,0.0
2.86,1.0,0.25,0.75,0.0,0.0,0.25,0.0,0.0,0.25,0.75,0.75,0.25,1.25,-0.67,-0.42,0.14,87.16,8.0,-21.5,0.0,0.0,0.0,0.0,0.0,0.5,0.0,0.0,0.0,0.0,0.0,0.0,0.0,0.33,-0.55,0.52,10.34,22.9,34.0
2.88,1.0,0.25,0.5,0.0,0.0,0.25,0.0,0.0,0.25,0.75,0.75,0.25,1.25,-0.73,-0.61,0.33,81.76,6.5,-25.6,0.5,0.25,0.0,0.25,0.0,0.5,0.0,0.0,0.25,0.0,0.0,0.0,0.0,0.33,-0.61,0.58,2.56,-9.5,54.5
2.9,1.0,0.25,0.75,0.0,0.0,0.0,0.0,0.0,0.25,0.75,0.75,0.25,1.0,-0.8,-0.8,0.39,77.11,10.6,-19.6,1.0,0.25,0.0,0.5,0.0,0.5,0.0,0.0,0.25,1.0,0.0,0.5,0.0,0.39,-0.67,0.64,20.12,-6.5,6.0
2.92,1.0,0.0,0.5,0.0,0.0,0.0,0.0,0.0,0.25,0.75,0.5,0.25,1.0,-0.86,-0.73,0.39,69.83,8.7,-28.6,0.75,0.0,0.75,0.25,1.0,0.5,0.25,0.5,0.0,1.0,1.0,0.75,1.0,0.39,-0.73,0.7,58.3,-3.4,-19.5
2.94,1.0,0.0,0.5,0.0,0.0,0.0,0.0,0.0,0.25,0.75,0.75,0.25,1.25,-0.92,-0.55,0.33,68.64,7.6,-35.4,0.0,0.0,0.75,0.0,0.5,0.0,0.25,0.5,0.0,0.0,1.0,0.0,1.25,0.45,-0.73,0.64,76.23,-3.7,-36.0
2.96,1.0,0.25,0.25,0.0,0.0,0.0,0.0,0.0,0.25,0.75,0.75,0.25,1.25,-0.98,-0.36,0.27,67.76,6.2,-33.3,0.0,0.25,0.0,0.25,0.0,0.75,0.0,0.0,0.25,0.0,0.0,0.5,0.0,0.45,-0.67,0.64,72.35,0.5,0.3
2.98,0.25,0.0,0.25,0.0,0.0,0.0,0.0,0.0,0.25,0.75,1.0,0.25,1.25,-0.98,-0.17,0.2,66.74,1.0,-67.5,1.25,0.0,1.0,0.0,1.5,0.25,0.25,0.5,0.25,0.75,1.0,0.5,0.75,0.45,-0.61,0.52,85.97,-7.4,-2.0
3.0,1.0,0.25,0.25,0.25,0.0,0.0,0.0,0.5,0.25,0.75,0.75,0.25,1.0,-0.92,-0.17,0.14,70.12,5.5,-25.5,0.25,0.0,1.0,0.0,1.0,0.0,0.25,0.5,0.0,0.0,1.0,0.0,1.0,0.39,-0.55,0.52,83.74,-7.0,-10.8
3.02,1.0,0.0,0.25,0.5,0.0,0.0,0.0,0.0,0.25,0.75,0.75,0.25,1.25,-0.73,-0.36,0.14,71.96,7.0,-30.6,1.0,0.25,0.5,0.0,1.25,0.5,0.25,0.5,0.25,0.75,1.0,0.25,1.0,0.39,-0.55,0.45,103.46,-3.3,-7.2
3.04,1.0,0.25,0.25,0.25,0.0,0.0,0.0,0.0,0.25,0.75,0.5,0.25,0.5,-0.61,-0.48,0.27,69.03,10.5,-9.8,0.0,0.0,0.75,0.0,1.0,0.0,0.25,0.5,0.0,0.0,0.0,0.0,0.0,0.39,-0.55,0.45,89.1,-8.3,36.4
3.06,1.0,0.25,0.25,0.0,0.0,0.0,0.0,0.0,0.25,0.75,0.75,0.0,1.0,-0.61,-0.8,0.27,64.74,7.3,-24.1,1.0,0.25,0.0,0.0,0.0,0.5,0.25,0.5,0.0,0.5,1.0,0.5,1.0,0.39,-0.55,0.45,90.95,-2.5,-30.6
3.08,1.5,0.0,0.25,0.0,0.0,0.0,0.0,0.0,0.25,0.75,0.75,0.25,1.25,-0.73,-0.8,0.2,66.15,8.6,-27.8,1.25,0.5,1.0,0.0,1.0,0.5,0.25,0.5,0.25,0.75,0.75,0.5,1.0,0.45,-0.55,0.52,99.5,-6.9,0.1
3.1,0.75,0.25,0.25,0.25,0.0,0.25,0.0,0.0,0.25,0.75,0.75,0.25,1.25,-0.8,-0.67,0.2,69.06,4.0,-31.5,1.0,0.25,0.75,0.0,1.25,0.75,0.25,0.5,0.25,1.5,1.0,0.5,0.5,0.45,-0.55,0.45,114.5,-3.2,-6.8
3.12,1.25,0.25,0.25,0.25,0.0,0.0,0.0,0.0,0.25,0.75,0.75,0.0,0.75,-0.8,-0.42,0.14,70.25,10.5,-7.9,1.0,0.25,0.75,0.25,1.25,0.5,0.25,0.5,0.0,1.0,1.0,0.5,1.0,0.52,-0.48,0.45,124.88,-4.2,-7.2
3.14,1.0,0.0,0.25,0.0,0.0,0.0,0.0,0.5,0.25,0.75,0.5,0.0,1.25,-0.86,-0.36,0.14,70.67,2.9,-35.0,1.0,0.5,0.75,0.0,0.5,0.5,0.25,0.5,0.25,0.75,1.0,0.5,1.0,0.52,-0.55,0.45,126.01,-5.8,-11.7
3.16,0.75,0.25,0.0,0.5,0.0,0.0,0.0,0.0,0.25,0.5,0.75,0.0,1.25,-0.92,-0.3,0.2,68.26,5.2,-28.0,1.0,0.25,0.75,0.0,1.25,1.0,0.25,0.5,0.25,0.75,0.75,0.75,0.75,0.52,-0.55,0.52,128.01,-3.6,-3.6
3.18,1.0,0.25,0.25,0.0,0.0,0.0,0.0,0.0,0.25,0.75,0.75,0.0,1.0,-0.92,-0.42,0.2,65.13,7.3,-24.1,1.0,0.25,0.75,0.0,1.0,0.75,0.25,0.5,0.25,1.25,1.0,0.75,0.75,0.52,-0.55,0.52,130.02,-3.6,-13.0
3.2,1.0,0.25,0.0,0.5,0.0,0.25,0.0,0.0,0.25,0.75,0.5,0.0,1.0,-0.86,-0.48,0.2,65.04,4.9,-13.5,1.0,0.25,0.75,0.5,0.25,0.5,0.25,0.5,0.0,0.75,0.75,0.25,0.5,0.52,-0.48,0.52,121.37,-8.0,2.3
3.22,0.75,0.25,0.25,0.5,0.0,0.0,0.0,0.0,0.25,0.75,0.0,0.25,0.75,-0.86,-0.48,0.2,62.51,7.8,-10.1,1.0,0.0,1.0,0.5,0.25,0.5,0.25,0.5,0.0,0.75,1.0,0.5,0.75,0.52,-0.55,0.52,112.96,-8.3,-10.0
3.24,1.0,0.25,0.0,0.25,0.0,0.25,0.0,0.0,0.5,0.75,0.75,0.0,0.75,-0.86,-0.55,0.2,63.33,5.9,-16.9,0.0,0.0,0.75,0.0,1.0,0.25,0.25,0.0,0.0,0.0,0.75,0.0,0.0,0.52,-0.55,0.52,91.16,-10.6,21.7
3.26,1.0,0.25,0.0,0.25,0.0,0.25,0.0,0.0,0.5,0.75,0.75,0.0,1.25,-0.86,-0.55,0.2,66.71,3.9,-26.6,0.75,0.0,0.75,0.0,1.0,0.75,0.25,0.75,0.25,1.0,1.0,0.25,0.75,0.52,-0.48,0.52,91.87,-1.9,-12.6
3.28,1.0,0.5,0.25,0.0,0.0,0.25,0.0,0.0,0.0,0.5,1.0,0.0,0.75,-0.86,-0.55,0.2,67.66,8.5,-7.0,1.0,0.25,0.75,0.25,0.5,0.5,0.25,0.5,0.25,0.75,1.0,0.25,0.5,0.52,-0.48,0.58,91.85,-7.4,-1.9
3.3,0.75,0.25,0.25,0.25,0.0,0.25,0.0,0.0,0.25,0.5,1.0,0.25,1.0,-0.86,-0.48,0.14,68.7,6.4,-27.1,1.0,0.25,1.0,0.5,1.5,1.0,0.25,0.5,0.0,0.75,0.75,0.5,0.5,0.52,-0.48,0.52,106.07,-5.3,11.2
3.32,0.75,0.25,0.0,0.25,0.0,0.0,0.0,0.0,0.5,0.5,1.0,0.25,1.0,-0.8,-0.48,0.14,68.43,6.5,-36.1,1.0,0.25,1.0,0.5,1.0,0.5,0.25,0.25,0.0,0.75,1.0,0.75,0.5,0.52,-0.55,0.52,110.62,-8.7,1.7
3.34,1.0,0.0,0.25,0.0,0.0,0.0,0.0,0.0,0.25,0.5,1.0,0.25,0.75,-0.8,-0.42,0.2,65.95,10.1,-31.9,2.0,0.5,0.75,0.5,1.25,0.5,0.25,0.5,0.0,0.75,1.0,0.5,0.5,0.52,-0.48,0.58,125.37,-9.6,16.5
3.36,0.5,0.25,0.0,0.25,0.0,0.0,0.0,0.25,0.25,0.75,1.0,0.0,0.75,-0.8,-0.42,0.2,63.76,2.7,-37.0,1.0,0.5,0.75,0.0,0.5,0.75,0.25,0.5,0.0,0.75,1.0,0.5,0.5,0.58,-0.48,0.52,120.96,-6.1,-1.8
3.38,1.0,0.0,0.0,0.0,0.0,0.0,0.0,0.0,0.25,0.75,1.0,0.0,1.0,-0.86,-0.42,0.2,62.1,5.1,-40.9,1.0,0.25,1.0,0.0,0.25,1.0,0.25,0.5,0.25,0.75,0.75,0.5,0.75,0.58,-0.48,0.52,118.03,-5.8,-6.9
3.4,0.0,0.0,0.25,0.25,0.0,0.0,0.0,0.0,0.25,0.75,0.75,0.25,1.0,-0.86,-0.42,0.2,60.42,0.4,-65.4,0.75,0.25,0.75,0.5,0.5,0.75,0.25,0.5,0.25,1.0,0.75,0.5,0.75,0.58,-0.55,0.52,113.4,-4.4,-9.2
3.42,1.0,0.0,0.25,0.0,0.0,0.0,0.0,0.5,0.25,0.5,1.0,0.25,1.0,-0.86,-0.42,0.2,63.55,5.9,-36.9,1.0,0.0,0.75,0.0,0.5,0.5,0.25,0.5,0.25,0.5,1.0,0.5,0.5,0.58,-0.55,0.52,106.96,-7.8,-10.1
3.44,0.75,0.25,0.0,0.0,0.0,0.0,0.0,0.0,0.25,0.75,1.0,0.25,1.0,-0.86,-0.42,0.14,64.92,4.1,-44.1,0.75,0.25,0.75,0.0,1.25,0.5,0.25,0.5,0.25,1.0,1.0,0.25,0.5,0.58,-0.48,0.52,107.98,-4.1,-3.2
3.46,0.75,0.0,0.25,0.0,0.0,0.0,0.0,0.25,0.25,0.75,1.0,0.25,1.0,-0.86,-0.42,0.14,68.04,4.4,-46.0,1.0,0.0,1.0,0.0,1.5,0.5,0.25,0.5,0.25,0.75,1.0,0.5,0.75,0.52,-0.48,0.45,112.08,-5.8,-3.9
3.48,1.0,0.0,0.25,0.0,0.0,0.0,0.0,0.5,0.25,0.75,1.0,0.25,1.0,-0.86,-0.48,0.2,70.8,4.8,-38.9,1.0,0.25,0.75,0.0,1.25,0.25,0.25,0.5,0.0,0.75,1.0,0.5,0.75,0.52,-0.42,0.45,114.37,-5.9,-4.9
3.5,1.0,0.0,0.25,0.25,0.0,0.0,0.0,0.0,0.25,0.75,1.0,0.25,1.0,-0.8,-0.48,0.14,72.51,7.8,-33.5,1.0,0.0,1.0,0.0,1.0,0.5,0.25,0.5,0.0,0.75,0.75,0.75,0.75,0.52,-0.42,0.45,110.5,-6.2,-8.6
3.52,1.0,0.5,0.5,0.0,0.0,0.0,0.0,0.5,0.25,0.75,1.0,0.25,1.0,-0.86,-0.55,0.14,78.41,7.0,-21.9,1.0,0.25,1.0,0.0,1.0,0.75,0.25,0.5,0.0,1.0,1.0,0.25,0.5,0.52,-0.42,0.45,111.18,-5.4,2.3
3.54,1.25,0.25,0.25,0.0,0.0,0.5,0.0,0.5,0.5,0.75,1.0,0.25,1.0,-0.86,-0.55,0.27,84.97,4.4,-22.3,1.0,0.0,0.75,0.0,0.5,0.75,0.25,0.5,0.0,0.5,0.75,0.25,0.5,0.58,-0.48,0.45,101.27,-6.2,0.1
3.56,0.75,0.25,0.25,0.5,0.0,0.25,0.0,0.0,0.25,0.5,1.0,0.25,1.0,-0.8,-0.48,0.2,85.52,7.0,-22.6,1.25,0.25,0.75,0.0,1.0,0.5,0.25,0.5,0.0,0.5,1.0,0.5,0.5,0.64,-0.55,0.52,100.94,-7.8,3.8
3.58,1.0,0.25,0.25,0.25,0.0,0.0,0.0,0.5,0.5,0.75,1.0,0.25,1.0,-0.8,-0.42,0.2,87.4,6.0,-28.2,1.0,0.5,0.75,0.0,1.25,0.5,0.25,0.5,0.0,0.75,1.0,0.5,0.75,0.64,-0.55,0.52,104.49,-5.3,-0.2
3.6,1.0,0.0,0.25,0.25,0.0,0.0,0.0,0.25,0.25,0.5,1.0,0.25,1.0,-0.8,-0.42,0.2,82.57,7.7,-31.5,0.75,0.0,1.0,0.0,1.25,0.5,0.0,0.5,0.25,0.75,1.0,0.5,0.75,0.58,-0.48,0.52,109.9,-4.8,-9.9
3.62,0.75,0.25,0.5,0.0,0.0,0.0,0.0,0.0,0.25,0.25,0.75,0.25,1.0,-0.8,-0.42,0.27,74.97,10.6,-24.7,0.75,0.0,1.0,0.0,1.0,0.5,0.25,0.5,0.25,0.0,1.0,0.0,0.5,0.58,-0.48,0.45,104.22,-8.9,9.4
3.64,1.25,0.25,0.25,0.0,0.0,0.0,0.0,0.5,0.25,0.5,1.0,0.25,1.0,-0.8,-0.42,0.2,73.1,7.5,-24.1,1.0,0.25,1.0,0.0,0.5,0.0,0.25,0.5,0.25,1.0,1.0,0.5,0.75,0.52,-0.42,0.45,103.01,-8.7,-14.9
3.66,0.75,0.5,0.25,0.0,0.0,0.0,0.0,0.0,0.25,0.5,0.75,0.25,1.0,-0.8,-0.42,0.2,68.57,7.5,-25.3,1.0,0.25,0.75,0.25,1.0,0.5,0.25,0.25,0.0,0.25,1.0,0.25,0.75,0.52,-0.42,0.45,100.04,-8.2,7.2
3.68,0.0,0.25,0.25,0.0,0.0,0.0,0.0,0.5,0.25,0.75,1.0,0.0,0.75,-0.8,-0.42,0.2,65.37,-1.1,-53.9,1.25,0.5,1.0,0.0,1.5,0.75,0.25,0.5,0.0,0.75,1.0,0.5,0.75,0.52,-0.42,0.45,109.98,-6.0,6.8
3.7,1.25,0.25,0.25,0.0,0.0,0.0,0.0,0.0,0.25,0.0,1.0,0.0,0.75,-0.86,-0.48,0.2,60.01,15.4,-3.2,0.75,0.0,0.75,0.5,0.25,0.5,0.25,0.5,0.0,0.75,0.75,0.5,0.5,0.58,-0.42,0.45,105.19,-6.8,-10.4
3.72,1.0,0.25,0.25,0.0,0.0,0.0,0.0,0.0,0.25,0.25,0.75,0.25,0.75,-0.86,-0.48,0.2,56.46,12.0,-16.9,1.0,0.25,0.75,0.0,1.25,0.25,0.25,0.5,0.0,0.75,1.0,0.75,0.75,0.58,-0.42,0.45,110.47,-6.0,-8.4
3.74,0.75,0.25,0.25,0.0,0.0,0.0,0.0,0.5,0.25,0.5,0.25,0.25,1.0,-0.86,-0.48,0.2,54.58,3.7,-29.0,1.0,0.25,1.0,0.0,1.0,0.5,0.25,0.25,0.0,0.25,1.0,0.25,0.75,0.58,-0.48,0.45,105.3,-9.0,7.3
3.76,1.0,0.25,0.25,0.0,0.0,0.0,0.0,0.5,0.25,0.5,0.25,0.25,1.0,-0.86,-0.42,0.2,55.54,5.5,-22.0,1.25,0.25,1.0,0.0,1.25,0.5,0.25,0.5,0.0,0.75,0.75,0.25,0.75,0.58,-0.48,0.45,109.45,-6.8,7.5
3.78,1.0,0.25,0.25,0.0,0.0,0.0,0.0,0.5,0.25,0.0,1.0,0.25,1.0,-0.86,-0.48,0.2,59.2,8.7,-24.7,1.0,0.0,1.0,0.0,1.25,0.5,0.25,0.5,0.25,1.0,1.0,0.75,0.5,0.58,-0.48,0.45,113.03,-6.1,-8.1
3.8,0.25,0.25,0.25,0.0,0.0,0.0,0.0,0.75,0.25,0.75,0.5,0.25,1.0,-0.86,-0.42,0.2,63.11,-1.5,-48.8,1.0,0.0,1.0,0.0,0.5,0.5,0.25,0.25,0.0,0.5,1.0,0.25,0.75,0.58,-0.48,0.45,107.44,-9.0,-4.7
3.82,1.0,0.25,0.25,0.0,0.0,0.0,0.0,0.5,0.25,0.5,0.5,0.25,1.0,-0.86,-0.42,0.2,65.15,5.8,-24.9,1.0,0.0,0.75,0.0,0.5,0.75,0.25,0.5,0.0,0.5,1.0,0.25,0.5,0.58,-0.48,0.45,100.56,-6.3,-2.9
3.84,1.0,0.0,0.25,0.0,0.0,0.0,0.0,0.5,0.25,0.5,0.75,0.25,0.75,-0.86,-0.42,0.2,65.79,6.8,-30.2,0.75,0.5,1.0,0.5,0.5,0.5,0.25,0.5,0.0,0.5,0.75,0.5,0.75,0.58,-0.48,0.45,99.5,-8.0,1.6
3.86,0.5,0.25,0.25,0.0,0.0,0.0,0.0,0.75,0.25,0.5,0.75,0.25,1.0,-0.86,-0.42,0.27,67.48,1.7,-41.2,1.0,0.0,1.0,0.25,1.5,0.5,0.25,0.25,0.0,1.0,1.0,0.25,0.75,0.58,-0.48,0.45,105.6,-5.9,1.4
3.88,1.0,0.25,0.25,0.0,0.0,0.0,0.0,0.75,0.25,0.5,0.75,0.25,0.75,-0.86,-0.42,0.2,68.59,5.9,-23.5,1.0,0.5,0.75,0.5,0.5,0.5,0.25,0.5,0.0,0.75,1.0,0.5,0.5,0.58,-0.48,0.45,107.88,-7.9,1.3
3.9,1.0,0.25,0.25,0.0,0.0,0.0,0.0,0.5,0.25,0.25,1.0,0.25,0.75,-0.86,-0.42,0.2,69.96,8.6,-22.6,1.0,0.25,0.75,0.0,0.5,0.5,0.25,0.5,0.25,0.75,1.0,0.25,0.5,0.58,-0.48,0.45,106.56,-7.0,-4.4
3.92,1.25,0.25,0.25,0.0,0.0,0.0,0.0,0.5,0.25,0.5,1.0,0.25,0.5,-0.8,-0.48,0.27,71.38,9.9,-14.6,1.0,0.25,0.75,0.0,0.5,0.5,0.25,0.5,0.0,1.25,1.0,0.25,0.75,0.58,-0.48,0.52,104.34,-4.4,-12.3
3.94,1.0,0.0,0.25,0.0,0.0,0.0,0.0,0.5,0.25,0.5,0.75,0.25,0.75,-0.86,-0.48,0.27,69.46,6.8,-30.2,0.75,0.25,0.75,0.25,0.5,0.75,0.25,0.5,0.0,0.75,1.0,0.5,0.5,0.58,-0.48,0.52,102.72,-5.3,-6.8
3.96,1.0,0.0,0.25,0.0,0.0,0.0,0.0,0.5,0.25,0.5,1.0,0.25,0.75,-0.86,-0.48,0.27,68.72,7.0,-32.7,1.0,0.25,0.75,0.0,1.5,0.5,0.25,0.5,0.25,0.75,1.0,0.5,0.5,0.58,-0.48,0.52,106.4,-5.5,0.8
3.98,0.75,0.25,0.25,0.0,0.0,0.0,0.0,0.25,0.5,0.25,0.75,0.25,0.75,-0.86,-0.48,0.2,64.8,8.8,-26.4,0.75,0.0,1.0,0.0,1.0,0.5,0.25,0.25,0.25,1.5,1.0,0.5,0.5,0.58,-0.42,0.52,109.56,-4.8,-13.9
4.0,1.0,0.0,0.5,0.0,0.0,0.0,0.0,0.5,0.25,0.25,0.75,0.0,0.75,-0.86,-0.42,0.2,62.59,10.2,-16.3,0.75,0.25,1.0,0.5,1.25,0.5,0.25,0.0,0.0,0.75,0.75,0.5,0.5,0.58,-0.42,0.45,111.59,-8.2,8.7
4.02,1.0,0.25,0.25,0.0,0.0,0.0,0.0,0.5,0.25,0.5,0.75,0.0,1.0,-0.86,-0.42,0.2,62.69,5.9,-22.9,0.5,0.5,0.75,0.0,0.5,0.5,0.25,0.25,0.0,0.75,1.0,0.5,0.5,0.58,-0.42,0.45,105.07,-5.9,-9.5
4.04,0.75,0.0,0.5,0.0,0.0,0.0,0.0,0.5,0.25,0.5,0.75,0.0,0.75,-0.86,-0.42,0.27,61.54,7.1,-26.8,1.0,0.0,0.75,0.0,0.5,0.5,0.25,0.5,0.25,0.5,1.0,0.5,0.5,0.58,-0.42,0.45,100.36,-7.8,-10.1
4.06,1.25,0.25,0.25,0.0,0.0,0.0,0.0,0.5,0.25,0.5,1.0,0.0,1.0,-0.86,-0.42,0.27,65.89,7.5,-19.7,1.0,0.5,1.0,0.0,0.5,0.75,0.25,0.5,0.25,0.75,0.75,0.25,0.5,0.58,-0.42,0.45,98.58,-7.3,5.7
4.08,0.5,0.0,0.25,0.0,0.0,0.0,0.0,0.5,0.5,0.5,1.0,0.0,0.75,-0.86,-0.42,0.2,65.14,4.0,-43.6,0.75,0.25,1.0,0.0,1.25,0.5,0.25,0.25,0.0,1.0,1.0,0.25,0.5,0.64,-0.42,0.45,100.23,-5.8,1.6
4.1,0.5,0.25,0.25,0.0,0.0,0.0,0.0,0.75,0.25,0.25,0.75,0.0,1.0,-0.86,-0.48,0.2,64.37,2.4,-34.7,1.0,0.25,1.0,0.0,1.5,0.5,0.25,0.25,0.0,0.5,1.0,0.5,0.5,0.64,-0.42,0.45,105.54,-8.0,8.2
4.12,1.0,0.25,0.25,0.0,0.0,0.0,0.0,0.5,0.25,0.5,1.0,0.0,0.75,-0.86,-0.42,0.2,64.24,7.3,-20.7,0.5,0.25,1.0,0.0,0.25,0.5,0.25,0.5,0.0,0.75,1.0,0.5,0.5,0.58,-0.42,0.45,102.06,-6.6,-15.5
4.14,0.75,0.25,0.25,0.0,0.0,0.0,0.0,0.75,0.25,0.25,1.0,0.0,1.0,-0.86,-0.42,0.2,65.55,4.5,-30.0,0.5,0.5,1.0,0.0,1.0,0.5,0.25,0.25,0.0,1.0,0.75,0.5,0.5,0.64,-0.42,0.45,102.28,-5.4,-1.5
4.16,0.5,0.0,0.5,0.25,0.0,0.0,0.0,0.75,0.0,0.25,1.0,0.0,1.0,-0.86,-0.42,0.27,65.61,4.8,-33.4,1.0,0.5,1.0,0.0,0.25,0.5,0.25,0.5,0.0,0.75,0.75,0.25,0.75,0.64,-0.42,0.45,98.1,-7.8,-0.4
4.18,1.0,0.25,0.5,0.0,0.0,0.0,0.0,0.75,0.0,0.75,0.75,0.0,0.75,-0.86,-0.42,0.27,68.46,6.0,-16.3,0.75,0.25,1.0,0.0,0.5,0.5,0.25,0.25,0.25,1.0,0.75,0.5,0.5,0.64,-0.42,0.45,97.26,-7.2,-8.3
4.2,1.0,0.25,0.5,0.0,0.0,0.0,0.0,1.0,0.25,0.5,1.0,0.0,0.75,-0.86,-0.42,0.27,72.86,6.5,-18.4,0.75,0.0,1.0,0.0,1.0,0.5,0.25,0.5,0.0,1.0,1.0,0.5,0.5,0.58,-0.42,0.45,98.45,-5.3,-9.5
4.22,1.0,0.25,0.25,0.25,0.0,0.0,0.0,1.0,0.25,0.25,0.75,0.0,1.25,-0.86,-0.42,0.27,76.81,4.3,-22.1,1.25,0.25,0.75,0.0,1.25,0.75,0.25,0.25,0.0,0.75,1.0,0.25,0.5,0.58,-0.42,0.45,104.39,-6.4,9.4
4.24,0.75,0.25,0.5,0.0,0.0,0.0,0.0,1.0,0.25,0.0,1.0,0.0,1.0,-0.86,-0.42,0.27,76.8,6.3,-23.1,1.0,0.25,1.0,0.0,0.25,0.25,0.25,0.25,0.0,0.75,1.0,0.5,0.5,0.58,-0.42,0.45,101.17,-11.0,-7.5
4.26,1.0,0.0,0.25,0.0,0.0,0.0,0.0,1.0,0.25,0.75,1.0,0.0,1.0,-0.86,-0.42,0.27,78.48,2.5,-35.5,1.0,0.0,1.0,0.25,0.5,0.0,0.25,0.5,0.0,0.75,1.0,0.25,0.5,0.58,-0.42,0.45,97.82,-10.8,-4.9
4.28,1.0,0.25,0.5,0.0,0.0,0.0,0.0,1.0,0.0,0.25,1.0,0.0,0.75,-0.86,-0.42,0.27,76.93,7.4,-14.3,1.0,0.25,1.0,0.5,0.25,0.75,0.25,0.5,0.0,0.75,0.75,0.5,0.5,0.58,-0.48,0.45,97.67,-8.1,1.5
4.3,1.0,0.25,0.25,0.0,0.0,0.0,0.0,1.25,0.25,0.5,1.0,0.0,0.5,-0.86,-0.42,0.27,76.44,4.7,-18.8,0.75,0.5,1.0,0.0,1.0,0.5,0.25,0.5,0.0,0.75,1.0,0.25,0.75,0.58,-0.48,0.45,101.17,-5.7,0.3
4.32,1.0,0.0,0.5,0.0,0.0,0.0,0.0,1.0,0.25,0.0,1.0,0.0,1.0,-0.86,-0.42,0.27,75.01,7.4,-23.8,1.0,0.25,1.0,0.5,1.25,0.5,0.25,0.25,0.25,1.0,1.0,0.25,0.5,0.58,-0.48,0.45,110.43,-7.6,6.8
4.34,1.0,0.25,0.75,0.0,0.0,0.0,0.0,0.75,0.25,0.0,1.0,0.0,1.0,-0.86,-0.42,0.27,75.61,10.5,-12.2,0.5,0.5,1.0,0.0,0.5,0.5,0.25,0.5,0.0,0.5,0.75,0.5,0.5,0.58,-0.48,0.52,107.74,-7.1,-2.2
4.36,1.0,0.25,0.5,0.0,0.0,0.0,0.0,1.0,0.0,0.75,0.75,0.0,0.75,-0.86,-0.42,0.27,75.15,4.9,-17.5,0.5,0.0,1.0,0.0,1.0,0.0,0.25,0.25,0.0,0.5,1.0,0.5,0.5,0.58,-0.48,0.52,101.37,-9.3,-10.5
4.38,0.75,0.25,0.25,0.0,0.0,0.0,0.0,1.25,0.25,0.0,0.75,0.0,0.75,-0.86,-0.42,0.27,71.83,4.0,-20.8,0.75,0.25,0.75,0.0,1.25,0.0,0.25,0.5,0.25,1.25,1.0,0.5,0.75,0.58,-0.48,0.45,100.63,-4.7,-15.1
4.4,1.0,0.25,0.5,0.0,0.0,0.0,0.0,1.25,0.25,0.5,1.0,0.0,0.75,-0.86,-0.42,0.2,74.49,5.4,-19.3,1.0,0.5,1.0,0.0,0.25,0.25,0.25,0.0,0.0,0.75,1.0,0.5,0.5,0.58,-0.42,0.45,96.42,-12.3,-1.5
4.42,1.0,0.25,0.25,0.0,0.0,0.0,0.0,1.0,0.0,0.5,1.0,0.0,0.5,-0.86,-0.42,0.2,71.56,5.5,-16.6,1.25,0.0,0.75,0.25,1.25,0.5,0.25,0.25,0.0,0.75,1.0,0.5,0.5,0.58,-0.42,0.45,101.5,-7.6,3.1
4.44,1.0,0.25,0.5,0.0,0.0,0.0,0.0,1.0,0.25,0.0,0.75,0.0,1.0,-0.86,-0.42,0.2,71.87,7.5,-14.4,1.0,0.25,1.0,0.25,1.0,0.5,0.25,0.25,0.0,1.0,1.0,0.25,0.5,0.58,-0.42,0.45,105.12,-7.5,4.7
4.46,0.75,0.0,0.25,0.0,0.0,0.0,0.0,1.0,0.0,0.5,1.0,0.0,0.75,-0.86,-0.42,0.27,68.45,2.2,-35.7,1.0,0.0,1.0,0.25,0.5,0.75,0.25,0.25,0.25,0.75,0.75,0.5,0.5,0.58,-0.42,0.45,106.85,-8.2,-2.1
