time,left pressure 0[N/cm²],left pressure 1[N/cm²],left pressure 2[N/cm²],left pressure 3[N/cm²],left pressure 4[N/cm²],left pressure 5[N/cm²],left pressure 6[N/cm²],left pressure 7[N/cm²],left pressure 8[N/cm²],left pressure 9[N/cm²],left pressure 10[N/cm²],left pressure 11[N/cm²],left pressure 12[N/cm²],left acceleration X[g],left acceleration Y[g],left acceleration Z[g],left total force[N],left center of pressure X[mm],left center of pressure Y[mm],right pressure 0[N/cm²],right pressure 1[N/cm²],right pressure 2[N/cm²],right pressure 3[N/cm²],right pressure 4[N/cm²],right pressure 5[N/cm²],right pressure 6[N/cm²],right pressure 7[N/cm²],right pressure 8[N/cm²],right pressure 9[N/cm²],right pressure 10[N/cm²],right pressure 11[N/cm²],right pressure 12[N/cm²],right acceleration X[g],right acceleration Y[g],right acceleration Z[g],right total force[N],right center of pressure X[mm],right center of pressure Y[mm]
0.02,0.0,0.5,0.0,0.0,0.0,0.0,0.25,4.5,0.0,5.75,3.25,5.0,5.5,-0.3,0.45,1.2,262.29,-6.2,-79.4,0.0,0.0,0.25,1.0,0.0,0.75,0.0,0.0,0.25,0.0,0.0,0.0,0.0,0.33,0.14,0.95,10.26,-6.4,40.2
0.04,0.25,0.5,0.0,0.75,0.0,0.0,0.25,4.0,0.0,5.75,4.25,5.0,6.0,-0.05,0.08,1.08,343.77,-4.5,-75.0,0.0,0.0,0.5,0.0,0.0,0.0,0.5,0.25,0.25,0.0,0.0,0.0,0.0,0.27,0.2,1.14,3.1,-21.0,14.9
0.06,1.25,0.5,0.0,0.5,0.5,0.75,0.25,4.25,0.5,5.75,4.5,5.0,6.0,-0.17,0.08,0.95,415.4,-3.6,-64.7,0.0,0.25,0.75,1.0,2.25,0.75,0.25,0.25,0.25,0.0,0.75,0.0,0.5,0.2,0.27,1.33,40.6,-4.0,23.3
0.08,1.0,0.5,0.0,0.5,0.0,0.75,0.25,4.25,0.75,5.75,0.0,5.0,6.0,-0.17,0.08,0.95,438.93,-6.3,-66.9,0.0,0.0,0.5,0.0,0.0,0.75,0.5,0.0,0.25,0.25,0.5,0.0,0.0,0.2,0.45,1.52,46.52,-6.3,-1.1
0.1,1.25,0.5,0.0,0.5,0.0,0.75,0.5,5.0,1.5,5.75,0.0,5.0,6.0,-0.17,0.08,0.95,445.72,-5.6,-63.4,0.0,0.0,0.0,0.25,0.0,0.0,0.0,0.0,0.25,0.0,0.0,0.0,0.0,0.27,0.52,1.64,32.89,-14.7,11.1
0.12,0.0,0.5,0.0,1.75,0.0,0.75,0.75,5.0,1.5,5.75,5.0,5.0,6.25,-0.17,0.08,0.95,471.53,-3.5,-66.2,0.0,0.75,0.5,1.0,0.0,0.75,0.5,0.25,0.25,0.25,0.75,0.0,0.25,0.45,0.58,1.83,39.27,-7.6,15.5
0.14,0.0,0.5,0.5,2.25,1.0,0.0,0.75,5.25,0.75,5.75,6.0,5.0,6.0,-0.11,0.02,0.95,507.79,-2.1,-60.6,0.0,0.0,0.75,0.0,0.5,0.75,0.25,0.0,0.25,0.0,0.0,0.0,0.0,0.58,0.89,2.08,32.83,-7.5,39.5
0.16,1.25,0.5,0.0,1.75,2.5,2.0,0.75,5.75,2.25,5.75,6.0,4.25,5.25,-0.17,0.08,0.95,552.36,-2.5,-45.9,0.0,0.0,0.5,0.0,0.0,0.0,0.25,0.25,0.25,0.0,1.0,0.0,0.0,0.39,1.52,3.02,33.24,-15.6,-27.4
0.18,1.25,0.5,0.0,3.0,2.75,2.5,0.75,5.75,2.5,5.25,5.75,4.0,4.75,-0.17,0.08,0.95,580.68,-1.8,-38.8,0.0,0.5,0.0,0.0,0.0,0.0,0.0,0.0,0.25,0.0,0.0,0.0,0.75,-0.36,2.27,1.58,29.42,0.6,-28.2
0.2,1.25,0.5,1.0,4.5,4.0,2.75,0.0,5.75,2.75,4.5,5.5,3.25,4.0,-0.11,0.08,0.95,590.91,-0.2,-25.8,0.0,0.0,0.5,0.0,0.0,0.0,0.0,0.0,0.25,0.0,0.0,0.0,0.0,-0.42,2.95,0.77,26.41,-29.8,28.7
0.22,1.25,0.5,1.25,5.5,5.0,2.75,1.0,5.75,2.75,4.25,5.0,3.0,3.25,-0.11,0.02,0.95,594.89,0.8,-17.3,0.0,0.75,0.5,1.25,2.25,1.0,0.25,0.5,0.25,0.25,1.0,0.0,0.0,-0.92,3.39,0.39,61.07,-3.2,28.8
0.24,1.25,0.75,1.75,6.75,5.25,3.25,1.0,5.5,2.5,3.0,4.0,2.0,2.75,-0.11,0.08,0.95,588.25,1.9,-5.0,0.0,0.5,0.0,1.0,0.0,0.75,0.25,0.5,0.25,0.0,0.75,0.0,0.25,-2.11,3.89,0.52,69.29,-2.7,6.5
0.26,1.25,0.75,2.25,8.0,6.5,3.5,1.25,5.0,2.5,2.25,3.25,2.0,1.5,-0.11,0.08,0.95,595.13,3.5,6.5,0.0,0.0,0.0,1.0,2.25,0.5,0.25,0.0,0.25,0.0,0.0,1.0,0.25,-2.3,3.27,0.33,87.47,-1.8,12.6
0.28,1.5,1.25,2.25,9.0,6.75,3.5,1.5,5.0,2.25,1.25,3.25,1.25,1.5,-0.11,0.08,0.95,605.12,4.5,14.3,0.5,0.75,0.5,1.0,1.75,0.5,0.25,1.25,0.25,2.25,0.25,3.25,1.75,0.33,-0.48,0.58,131.76,-0.2,-31.6
0.3,1.5,1.5,2.75,9.25,7.0,3.75,1.5,4.5,2.0,1.25,2.5,1.0,1.5,-0.11,0.08,0.95,614.65,4.9,19.5,0.0,0.0,0.5,0.25,1.5,0.5,0.0,1.0,0.25,6.5,3.25,5.25,6.5,-0.42,0.39,1.77,231.7,4.6,-74.8
0.32,1.75,1.5,3.75,10.5,8.0,4.0,1.5,4.25,1.5,1.25,2.5,1.0,1.0,-0.11,0.08,0.95,640.36,6.2,25.6,0.0,0.0,0.5,0.0,1.75,1.5,0.0,1.5,1.0,7.75,5.5,6.25,6.25,0.39,0.52,3.39,341.19,4.0,-71.0
0.34,2.0,1.75,3.75,10.5,8.0,4.0,1.5,4.25,1.5,1.25,2.25,1.0,1.0,-0.11,0.08,0.95,656.56,6.3,27.0,0.0,0.75,0.0,1.0,0.0,2.75,0.0,3.0,1.0,8.25,5.75,6.0,6.25,0.08,0.33,1.08,464.38,5.0,-67.4
0.36,2.25,1.75,4.25,11.5,8.25,4.0,1.75,3.75,0.75,1.25,2.25,1.0,1.0,-0.11,0.08,0.95,676.17,7.3,30.5,0.0,0.75,0.5,1.0,1.75,0.0,0.0,4.5,1.0,8.25,6.25,6.0,7.25,0.02,0.08,0.95,572.67,3.6,-66.2
0.38,2.75,1.75,4.75,11.5,8.5,4.0,1.75,3.25,0.5,1.25,2.25,1.0,1.0,-0.11,0.14,0.95,694.68,8.1,32.8,0.0,0.75,0.5,1.0,2.5,3.25,0.5,5.25,1.0,8.25,6.75,6.0,7.5,0.2,0.08,0.95,670.74,4.9,-56.1
0.4,2.5,2.25,5.5,12.0,8.5,4.0,1.75,2.5,0.0,1.25,1.75,1.0,1.0,-0.11,0.08,0.95,708.42,9.0,37.2,0.0,0.75,0.5,1.0,3.0,3.25,0.25,5.5,1.0,8.5,7.25,6.0,7.75,0.08,0.08,0.95,742.68,4.9,-55.4
0.42,2.75,2.25,5.5,13.0,8.75,4.0,1.5,2.5,0.0,1.0,1.0,1.0,0.75,-0.11,0.14,0.95,719.26,9.4,41.4,1.0,0.75,0.5,1.0,3.5,3.25,0.25,6.0,1.25,8.5,7.5,6.0,7.5,0.14,0.08,0.95,801.81,4.0,-50.6
0.44,2.0,2.0,5.5,13.0,8.75,4.0,1.5,2.5,0.0,1.0,1.5,1.0,0.5,-0.17,0.14,1.02,718.81,9.1,39.8,0.0,0.75,0.5,1.0,3.5,3.25,0.25,6.0,1.5,8.5,7.25,6.0,7.75,0.14,0.08,0.95,831.68,4.9,-53.7
0.46,4.5,3.25,6.0,13.5,9.5,4.0,1.25,2.25,0.25,1.25,1.5,1.0,0.5,-0.17,0.14,1.02,757.55,10.5,44.1,0.0,0.75,0.5,1.0,3.5,3.75,0.25,6.25,1.5,8.5,7.5,6.0,7.75,0.08,0.08,0.95,841.59,5.0,-52.9
0.48,4.5,3.25,5.75,14.0,9.5,4.0,1.0,2.25,0.25,1.25,1.0,1.0,0.5,-0.17,0.14,1.02,790.15,10.4,45.4,0.5,0.5,0.5,1.0,3.5,4.5,0.25,6.25,1.5,8.5,7.5,6.0,7.75,0.14,0.08,0.95,844.02,5.0,-50.9
0.5,3.75,3.25,6.5,14.0,9.0,3.75,3.75,2.25,0.0,1.0,0.5,1.0,0.25,-0.17,0.14,1.02,816.19,11.7,47.4,0.25,0.75,0.5,1.25,3.5,4.5,0.5,6.25,1.5,8.5,7.25,5.5,7.25,0.14,0.08,0.95,821.26,5.0,-48.7
0.52,0.0,2.0,7.25,14.0,9.5,4.25,1.0,3.25,0.5,0.0,2.75,0.0,0.0,-0.17,0.2,1.02,799.86,9.3,41.2,0.0,0.75,0.5,1.5,4.25,5.25,1.0,6.25,1.5,8.25,7.25,5.25,7.0,0.14,0.08,0.95,792.83,5.1,-44.6
0.54,6.5,3.5,7.0,13.0,9.5,2.5,1.75,0.0,0.0,0.75,0.0,1.0,0.0,-0.17,0.2,1.02,789.49,15.1,58.2,0.5,0.75,0.5,2.25,4.25,5.5,0.75,6.25,1.5,8.0,7.0,5.25,6.75,0.14,0.08,0.95,765.47,4.5,-40.8
0.56,6.5,3.5,7.25,14.0,8.75,1.5,0.75,1.5,0.25,0.75,0.0,1.0,0.25,-0.23,0.27,1.14,777.49,15.0,54.6,0.75,0.75,1.0,2.75,5.25,5.5,0.75,6.5,1.75,7.75,6.75,4.5,6.0,0.14,0.08,0.95,750.79,3.7,-33.5
0.58,7.0,3.25,7.25,13.0,8.5,0.0,0.0,1.75,0.0,1.0,0.75,1.0,0.5,-0.23,0.27,1.27,765.22,15.7,51.9,1.0,0.75,1.25,3.5,6.25,6.0,0.75,6.25,1.75,7.25,6.0,4.0,5.75,0.14,0.08,0.95,738.98,3.3,-26.2
0.6,7.75,1.75,7.25,11.5,7.75,0.25,0.0,1.5,0.0,0.0,1.25,0.0,0.0,-0.36,0.33,1.39,719.42,17.8,58.7,1.0,0.75,1.75,3.75,6.25,6.0,1.0,6.25,1.75,6.5,5.75,3.0,5.0,0.14,0.08,0.95,719.67,2.6,-20.7
0.62,7.5,2.5,6.0,9.0,5.25,0.0,1.0,4.0,0.5,0.75,2.75,0.5,0.0,-0.55,0.45,1.52,668.09,15.7,42.7,1.0,0.75,2.25,4.0,6.75,6.25,1.25,6.25,1.75,6.25,5.25,2.75,4.25,0.14,0.08,0.95,704.69,2.0,-15.4
0.64,6.75,1.25,3.75,0.0,0.0,0.0,0.0,0.0,0.5,1.25,2.0,1.0,0.0,-0.86,0.7,1.58,467.48,24.8,37.9,1.25,1.0,3.25,5.75,7.75,6.5,1.25,6.0,1.75,5.75,4.25,2.25,3.75,0.14,0.08,0.95,713.88,0.4,-4.6
0.66,4.25,0.5,1.75,4.5,0.0,0.0,0.0,0.0,0.5,0.5,0.75,0.0,0.25,-0.86,1.08,2.7,310.36,22.9,52.5,0.75,1.5,3.25,6.0,8.0,6.5,1.25,5.5,1.75,4.75,4.25,1.25,3.0,0.14,0.08,0.95,713.32,0.0,1.7
0.68,1.25,0.5,0.0,2.75,0.0,0.0,0.0,0.0,0.5,0.25,1.25,0.0,0.25,-0.23,0.64,2.52,172.44,16.0,25.7,0.75,1.5,3.25,7.5,8.0,6.75,1.75,5.5,1.5,4.25,3.5,1.25,2.75,0.14,0.08,0.95,719.78,-0.5,6.6
0.7,0.0,0.5,0.25,2.75,0.0,0.0,0.0,0.0,0.25,0.0,0.75,0.0,0.25,-0.55,0.33,2.2,57.3,14.9,28.8,1.25,1.75,4.0,7.75,9.0,7.0,2.0,5.5,1.5,3.5,3.25,1.25,1.75,0.14,0.08,0.95,732.14,-1.9,14.3
0.72,0.0,0.5,0.0,0.0,0.0,0.0,0.0,0.0,0.0,0.25,0.0,0.25,0.25,-1.05,-0.48,1.77,0.0,0.9,-18.4,1.25,2.25,4.75,9.25,9.0,7.25,2.0,4.75,1.5,3.25,2.5,1.25,1.75,0.14,0.08,0.95,758.33,-3.1,19.8
0.74,0.0,0.5,0.75,0.5,0.0,0.0,0.0,0.0,0.5,0.25,0.25,0.5,0.0,-0.67,-0.11,0.83,0.0,16.4,5.3,1.25,2.25,5.5,9.75,9.25,7.25,2.0,4.25,1.5,2.25,2.0,1.0,1.75,0.14,0.08,0.95,779.24,-4.3,25.0
0.76,0.0,0.5,0.75,0.0,0.0,0.0,0.0,0.0,0.5,0.5,0.0,0.25,0.25,-1.17,-1.3,0.2,0.0,11.8,-5.1,2.0,2.5,5.75,11.5,10.5,7.25,2.5,3.75,1.0,2.0,2.0,0.75,1.5,0.14,0.08,0.95,820.38,-5.5,31.3
0.78,0.0,0.5,0.0,0.75,0.0,0.0,0.0,0.0,0.5,0.5,0.0,0.0,0.25,-0.8,-0.92,0.45,0.0,5.7,4.4,2.75,2.5,6.25,12.5,10.5,7.5,2.75,3.25,1.0,2.0,2.0,0.75,1.75,0.14,0.08,0.95,870.42,-6.4,32.9
0.8,0.0,0.5,0.0,1.0,0.0,0.0,0.0,0.0,0.25,0.5,0.0,0.0,0.0,-0.61,-0.3,0.64,0.0,8.5,27.8,3.5,3.0,7.0,13.0,12.0,7.5,2.5,3.0,1.0,1.75,1.5,0.75,1.25,0.08,0.14,0.95,936.27,-7.3,38.4
0.82,0.5,0.5,0.0,1.0,0.0,0.0,0.0,0.0,0.5,0.5,0.0,0.0,0.25,-0.42,-0.3,0.45,0.0,10.8,22.0,5.0,3.0,7.5,14.5,12.0,7.75,2.5,2.25,1.0,1.75,2.5,0.5,1.5,0.08,0.14,0.95,1018.97,-8.6,39.5
0.84,0.0,0.5,0.0,0.75,0.0,0.0,0.75,0.0,0.5,0.75,0.0,0.0,0.0,-0.55,-0.17,0.58,0.0,8.9,10.5,5.0,3.25,8.0,14.5,12.0,6.75,2.5,1.5,0.75,0.0,1.5,0.0,1.0,0.08,0.14,0.95,1052.75,-10.6,49.5
0.86,0.0,0.5,0.0,1.0,0.0,0.0,0.5,0.0,0.5,0.5,0.0,0.0,0.0,-0.55,-0.11,0.77,0.0,10.8,21.9,7.0,4.0,8.75,14.5,12.5,6.5,2.0,1.5,0.5,0.0,1.0,0.25,1.0,0.08,0.2,1.08,1090.26,-11.6,52.6
0.88,0.0,0.25,0.0,1.0,0.0,0.0,0.75,0.75,0.5,0.75,1.0,0.0,0.0,-0.48,0.02,0.89,30.5,5.4,-17.6,7.5,4.0,8.75,14.5,12.0,6.25,1.5,0.75,0.5,1.5,0.75,0.0,0.5,0.14,0.2,1.14,1097.14,-11.9,53.7
0.9,0.0,0.5,0.5,2.25,0.0,0.0,1.0,1.0,2.25,0.75,0.0,0.0,0.25,-0.36,0.2,0.95,68.63,9.5,2.8,7.75,4.0,8.75,14.5,11.5,5.0,1.25,1.5,0.25,1.25,1.75,0.0,0.75,0.14,0.27,1.14,1104.18,-12.4,51.3
0.92,0.5,0.5,0.0,1.5,0.0,0.0,2.75,0.25,0.5,0.5,0.0,0.0,0.0,-0.3,0.27,1.27,87.69,16.9,30.7,8.25,3.5,8.0,13.0,10.5,3.25,0.75,1.25,0.25,0.5,1.5,0.25,0.75,0.14,0.33,1.27,1042.8,-14.0,53.5
0.94,0.0,0.5,0.5,0.5,0.0,0.0,0.0,0.0,0.25,0.5,0.75,0.0,0.0,-0.3,0.33,1.39,85.67,12.6,3.5,7.5,2.5,7.0,11.0,8.25,0.75,1.0,1.0,0.25,0.75,1.0,0.25,0.75,0.27,0.39,1.39,907.68,-16.1,53.5
0.96,0.25,0.5,0.5,0.75,0.0,0.0,0.0,0.0,0.25,0.5,0.75,0.25,0.0,-0.3,0.52,1.45,78.36,14.0,5.6,5.75,0.75,3.75,7.0,6.25,0.5,0.75,1.0,0.25,0.75,0.25,0.0,0.0,0.58,0.58,1.83,674.58,-15.3,56.1
0.98,0.25,0.5,0.5,0.5,0.0,0.0,0.0,0.0,0.0,0.25,1.0,0.0,0.25,-0.3,0.58,1.64,65.16,14.2,4.7,3.5,0.0,0.5,4.0,3.5,0.5,0.75,1.0,0.25,0.5,1.0,0.0,0.0,0.83,1.2,2.52,417.66,-11.7,43.5
1.0,0.0,0.5,0.5,0.5,0.0,0.0,0.0,0.0,0.25,0.5,0.75,0.25,0.0,-0.48,0.58,1.83,57.83,12.3,-5.0,3.0,0.75,0.0,3.25,3.0,0.5,0.5,0.0,0.25,0.5,0.0,0.0,0.0,0.14,0.7,2.58,252.12,-12.3,59.5
1.02,0.25,0.5,0.5,0.5,0.0,0.0,0.0,0.0,0.5,0.5,1.0,0.0,0.0,-0.48,0.77,2.33,56.97,13.8,1.5,1.0,0.75,0.5,2.5,2.25,0.75,0.25,1.0,0.25,0.5,1.75,0.25,0.0,0.08,0.2,1.83,137.49,-7.1,23.1
1.04,0.0,0.5,0.5,1.25,0.0,0.0,0.0,0.0,0.0,0.5,1.0,0.0,0.0,-0.23,1.02,2.45,58.9,13.4,12.4,0.75,0.0,0.5,1.75,2.75,0.75,0.25,1.0,0.25,0.5,1.0,0.0,0.0,0.7,0.02,1.95,54.68,-4.2,25.0
1.06,0.0,0.0,0.25,0.5,0.0,0.0,0.0,0.0,0.25,0.5,1.0,0.0,0.25,0.45,1.83,2.33,52.47,7.6,-37.2,0.0,0.0,0.5,0.5,0.0,0.5,0.0,0.0,0.5,0.25,0.0,0.0,0.0,0.89,-0.61,1.7,0.0,-8.8,17.6
1.08,0.25,0.5,0.5,0.5,0.0,0.0,0.25,0.0,0.25,0.5,1.0,0.0,0.25,1.08,2.52,1.39,53.17,12.7,-2.5,0.0,0.0,0.5,0.0,0.5,0.0,0.75,0.75,0.25,0.0,0.75,0.0,0.0,0.64,-1.05,0.14,0.0,-8.7,-6.6
1.1,0.0,0.5,0.5,0.5,0.0,0.0,0.0,0.0,0.25,0.5,0.75,0.0,0.25,1.7,3.27,0.89,49.69,10.5,-5.3,0.0,0.0,0.5,1.25,0.0,0.75,0.0,0.0,0.5,0.75,0.0,0.25,0.0,0.58,-1.3,0.7,0.0,-5.5,7.0
1.12,0.0,0.5,0.5,0.5,0.0,0.0,0.0,0.0,0.25,0.5,1.0,0.0,0.25,2.02,4.33,0.2,48.82,10.5,-10.1,0.0,0.75,0.75,1.0,2.25,1.0,0.25,1.0,0.25,0.5,1.0,0.25,0.0,0.39,-0.3,0.89,0.0,-2.3,18.7
1.14,0.0,0.5,0.5,0.5,0.0,0.0,0.0,0.5,0.0,0.5,0.0,0.25,0.25,3.14,3.64,0.64,46.18,5.7,0.0,0.0,0.75,0.75,1.0,2.5,0.75,0.25,0.75,0.5,0.5,1.25,0.0,0.5,0.2,-0.36,0.39,0.0,-2.7,13.5
1.16,0.25,0.5,0.5,0.5,0.0,0.0,0.0,0.5,0.5,1.25,1.0,0.75,0.5,-0.55,-0.23,1.14,65.39,5.0,-33.3,0.0,0.75,0.5,1.0,2.75,0.0,0.25,0.75,0.25,0.0,1.0,0.0,0.75,0.33,-0.3,0.39,34.91,-3.7,17.4
1.18,0.0,0.5,0.5,0.5,0.0,0.0,0.0,0.0,0.25,1.25,0.0,1.0,1.5,-0.73,-0.61,1.33,77.61,1.1,-48.3,0.0,0.0,0.0,0.75,0.0,0.75,0.0,0.0,0.5,0.5,0.0,0.0,0.0,0.45,-0.3,0.7,44.35,1.8,5.1
1.2,0.0,0.5,0.5,0.25,0.0,0.0,0.0,0.5,0.0,0.0,0.0,0.0,3.75,0.33,0.33,0.83,89.19,-5.4,-61.2,0.0,0.0,0.75,0.0,2.5,0.0,0.25,0.0,0.25,0.0,0.0,0.0,0.0,0.39,-0.3,0.83,53.79,-6.6,48.5
1.22,0.0,0.0,0.0,0.75,0.0,0.0,0.0,3.25,0.75,5.25,0.0,4.75,0.0,-0.48,0.64,1.02,143.96,-4.9,-69.4,0.0,0.0,0.5,0.0,0.0,0.0,0.0,0.0,0.25,0.0,0.0,0.0,0.0,0.33,-0.11,0.83,31.89,-29.8,28.7
1.24,0.25,0.5,0.5,0.75,0.0,0.0,0.0,4.25,0.5,5.75,5.5,5.0,5.5,0.02,0.33,1.08,250.91,-2.9,-71.4,0.0,0.0,0.5,0.0,2.5,0.0,0.25,0.5,0.25,0.0,1.25,0.0,0.5,0.33,0.14,0.95,43.86,-2.4,2.1
1.26,0.5,0.5,0.0,0.75,0.0,0.5,0.0,4.25,0.5,5.75,4.25,5.0,5.5,-0.11,0.08,0.95,335.3,-4.3,-70.5,0.0,0.75,0.5,1.25,0.0,0.75,0.25,0.0,0.25,0.5,0.0,0.0,0.0,0.33,0.2,1.14,48.83,-8.3,39.2
1.28,0.5,0.5,0.0,0.0,0.0,0.75,0.5,4.25,1.25,5.75,0.0,5.0,5.5,-0.17,0.08,0.95,390.6,-6.9,-70.9,0.0,0.0,0.5,0.0,0.0,0.25,0.25,0.0,0.25,0.0,0.0,0.0,0.0,0.27,0.33,1.27,46.84,-18.9,29.7
1.3,1.25,0.5,0.0,0.75,0.0,0.75,0.5,4.75,1.5,5.75,1.0,5.0,6.0,-0.17,0.08,0.95,429.35,-4.7,-62.9,0.0,0.0,0.25,0.0,0.0,0.5,0.0,0.0,0.25,0.0,0.0,0.0,0.0,0.33,0.39,1.39,33.48,-2.1,22.8
1.32,0.5,0.5,0.0,1.0,0.0,0.75,0.75,5.0,0.5,5.75,0.0,5.25,6.0,-0.17,0.08,0.95,432.52,-6.6,-66.3,0.0,0.0,0.0,0.0,0.0,0.0,0.0,0.0,0.25,0.0,0.0,0.0,0.0,0.33,0.52,1.52,10.38,-12.1,-38.5
1.34,0.0,0.5,0.25,1.75,0.0,1.5,0.75,5.0,1.5,6.25,6.0,5.5,6.0,-0.17,0.08,0.95,480.96,-3.1,-63.9,0.0,0.75,0.0,1.0,0.0,0.75,0.0,0.0,0.25,0.25,0.0,0.0,0.0,0.45,0.58,1.7,9.74,-3.5,43.9
1.36,1.25,0.25,0.0,1.25,1.0,1.5,0.75,5.0,1.25,6.0,6.5,5.5,6.0,-0.11,0.08,0.95,529.52,-2.4,-58.9,0.0,0.75,0.5,1.0,2.25,0.75,0.25,0.25,0.25,0.25,1.0,0.0,0.0,0.58,0.64,1.95,40.56,-4.2,29.9
1.38,1.25,0.25,0.0,2.5,1.75,1.75,0.0,5.0,2.0,6.25,6.5,5.25,6.0,-0.11,0.08,0.95,589.92,-2.1,-52.1,0.0,0.0,0.75,0.0,1.75,0.25,0.0,0.0,0.25,0.0,0.0,0.0,0.0,0.52,1.08,2.33,56.95,-6.2,46.9
1.4,1.25,0.5,0.0,2.75,1.75,1.5,0.75,5.5,2.5,5.75,6.5,5.0,6.0,-0.17,0.08,0.95,619.38,-1.4,-49.1,0.0,0.0,0.0,0.0,0.0,0.0,0.0,0.0,0.25,0.0,0.0,0.0,0.0,0.33,2.39,2.45,49.82,-12.1,-38.5
1.42,1.25,0.5,0.25,2.75,2.75,2.0,1.0,5.75,2.75,5.75,6.5,4.5,5.25,-0.11,0.08,0.95,637.86,-1.2,-42.3,0.0,0.75,0.0,0.0,0.0,0.5,0.0,0.0,0.25,0.25,0.0,0.0,0.0,-0.17,2.2,1.27,40.56,1.1,36.8
1.44,1.25,0.5,0.5,3.5,2.75,2.25,0.75,5.75,2.75,5.0,6.0,4.0,4.75,-0.17,0.08,0.95,622.41,-0.7,-36.7,0.0,0.0,0.0,0.0,0.25,0.0,0.75,0.25,0.25,0.25,1.0,0.0,0.0,-0.36,2.7,0.52,30.61,-6.7,-36.3
1.46,1.25,0.5,1.25,4.5,3.25,2.5,0.75,5.5,3.0,4.5,5.5,3.75,4.0,-0.11,0.08,0.95,595.29,0.7,-27.8,0.0,0.0,0.5,0.0,0.25,0.0,0.25,0.25,0.25,0.0,1.0,0.0,0.5,-1.42,3.77,0.7,32.36,-8.5,-33.9
1.48,1.25,0.5,0.75,5.25,4.25,2.75,0.75,5.5,2.75,4.25,5.5,3.0,3.25,-0.11,0.08,0.95,573.18,0.4,-21.1,0.0,0.75,0.5,0.75,0.0,0.0,0.25,0.5,0.25,0.0,1.0,0.0,0.75,-2.67,4.33,0.39,45.63,-8.8,-6.4
1.5,1.25,0.5,1.5,6.5,5.0,2.75,1.0,5.0,3.0,3.0,4.75,3.0,2.75,-0.11,0.08,0.95,573.29,2.5,-11.3,0.0,0.75,0.5,1.0,2.75,0.5,0.25,0.75,0.25,1.5,1.0,1.25,0.25,-0.73,1.45,0.45,96.71,-1.3,-2.8
1.52,1.25,0.5,2.0,7.0,5.25,2.75,1.25,5.0,2.75,2.75,4.0,2.0,1.5,-0.11,0.08,0.95,564.47,3.5,-1.0,0.0,0.75,0.5,1.0,2.5,0.75,0.25,1.0,0.25,3.5,2.0,4.0,5.5,0.89,-0.55,3.33,190.92,2.8,-52.1
1.54,1.75,0.75,2.5,7.75,6.0,3.0,1.0,5.0,2.5,2.25,4.0,2.0,1.5,-0.11,0.08,0.95,567.81,4.4,5.0,0.5,0.0,0.25,0.0,2.25,0.5,0.25,1.5,0.25,7.0,2.5,6.0,6.25,-0.73,0.77,1.83,285.16,4.7,-69.8
1.56,1.25,1.25,2.25,8.25,6.75,3.5,1.5,4.75,2.5,1.5,3.25,1.5,1.5,-0.11,0.08,0.95,570.74,4.2,11.7,0.0,0.0,0.0,0.0,0.0,0.5,0.0,3.25,0.5,7.75,7.0,6.25,7.5,0.58,0.14,2.45,399.65,4.8,-84.3
1.58,1.25,1.5,2.75,9.25,6.75,3.5,1.5,4.5,2.25,1.25,3.25,1.0,1.5,-0.11,0.08,0.95,576.34,5.1,16.7,0.0,0.5,0.5,1.0,2.25,0.0,0.0,4.25,1.25,7.75,7.25,5.5,6.75,-0.05,0.2,1.14,520.32,3.0,-64.5
1.6,1.25,1.75,3.75,9.5,7.25,3.5,1.75,4.25,2.0,1.25,2.75,1.0,1.5,-0.11,0.08,0.95,594.32,6.0,20.8,0.0,0.75,0.5,1.0,2.5,3.25,0.25,5.5,1.0,8.5,6.5,6.0,7.25,0.14,0.14,0.95,638.76,5.1,-55.9
1.62,1.5,1.75,3.75,10.5,8.0,3.5,2.0,4.25,1.5,1.25,2.5,1.0,1.0,-0.11,0.08,0.95,618.81,6.5,25.6,0.0,0.75,0.5,1.0,2.5,3.25,0.5,5.25,1.0,8.25,6.75,5.25,7.5,0.14,0.08,0.95,716.32,5.1,-55.1
1.64,2.0,1.75,4.75,11.0,8.0,3.75,2.25,4.0,1.5,1.25,2.5,1.0,1.0,-0.11,0.08,0.95,653.74,7.7,27.9,0.0,0.75,0.5,1.0,3.5,4.0,0.25,5.5,1.0,8.25,6.5,5.25,7.5,0.14,0.08,0.89,769.22,5.6,-50.9
1.66,2.75,1.75,5.5,11.5,8.25,4.0,2.25,3.25,1.0,1.25,2.25,1.0,1.0,-0.11,0.08,0.95,691.55,8.8,32.4,0.0,0.75,0.5,1.25,3.5,4.5,0.25,6.0,1.5,8.5,6.5,5.25,7.25,0.14,0.08,0.95,796.46,5.6,-48.9
1.68,2.75,1.75,5.5,12.5,8.5,4.0,2.25,2.75,0.5,1.0,2.0,1.0,0.75,-0.11,0.14,0.95,721.31,9.4,36.6,0.0,0.75,0.5,1.5,3.75,5.25,0.25,6.25,1.5,8.25,6.25,5.0,7.0,0.14,0.08,0.95,808.55,5.8,-45.4
1.7,3.25,2.25,5.75,13.0,8.75,4.0,2.5,2.5,0.25,1.25,1.25,1.0,0.75,-0.11,0.14,0.95,747.38,9.9,40.3,0.5,0.75,0.5,2.25,4.25,5.5,0.25,6.25,1.5,8.0,6.0,4.25,6.75,0.14,0.08,0.95,801.87,5.3,-39.0
1.72,4.5,3.25,6.5,13.0,8.75,4.0,2.5,2.5,0.5,1.25,1.5,1.0,0.75,-0.11,0.14,1.02,788.63,11.0,42.2,0.25,0.75,0.5,2.75,4.75,5.75,0.75,6.25,1.5,7.75,6.0,4.0,6.25,0.14,0.08,0.95,781.87,5.1,-35.4
1.74,4.5,3.25,6.5,14.0,9.0,3.5,2.25,2.5,0.5,1.0,1.5,0.0,0.5,-0.11,0.14,1.08,819.0,11.6,47.1,0.25,0.75,0.5,2.75,5.5,6.0,0.75,6.25,1.5,7.75,5.75,3.25,6.0,0.14,0.08,0.95,748.56,5.4,-31.6
1.76,0.0,0.0,6.25,12.5,8.25,1.75,2.25,2.75,0.0,0.0,2.0,0.0,0.0,-0.17,0.2,1.08,742.03,11.2,40.9,0.5,0.75,0.75,3.75,6.25,6.25,0.75,6.25,1.5,7.5,5.25,2.75,5.75,0.14,0.08,0.95,719.27,4.7,-24.9
1.78,0.0,1.5,0.0,13.5,8.75,3.25,1.75,2.25,1.25,1.0,0.5,1.0,0.0,-0.17,0.2,1.02,651.71,4.5,36.0,0.75,0.75,1.25,3.75,6.25,6.5,0.75,6.25,1.5,7.0,4.75,2.75,5.25,0.14,0.08,0.95,699.26,4.1,-21.1
1.8,7.25,3.25,8.0,14.0,8.75,2.5,1.5,2.25,0.5,0.25,0.0,1.0,0.25,-0.23,0.2,1.08,675.19,14.9,53.9,0.75,1.0,1.75,4.0,7.0,6.75,1.0,6.25,1.5,6.5,4.25,2.25,4.5,0.14,0.08,0.95,689.39,3.4,-13.9
1.82,0.0,0.0,7.0,7.5,8.25,0.0,1.5,0.0,0.0,1.0,0.0,1.0,0.0,-0.3,0.27,1.27,563.51,14.4,45.3,1.0,1.5,2.25,5.75,7.75,6.75,1.0,6.25,1.5,5.75,4.0,1.25,3.5,0.14,0.08,0.95,696.05,1.8,-2.3
1.84,7.25,3.25,7.5,10.5,7.5,0.0,0.0,1.5,0.5,0.5,1.5,0.25,0.25,-0.36,0.33,1.39,580.86,17.2,54.4,1.0,1.5,2.5,5.75,8.0,7.25,1.25,6.0,1.5,5.0,3.75,1.25,2.75,0.14,0.08,0.95,700.83,1.3,2.2
1.86,6.25,0.0,5.25,0.0,0.0,0.0,0.0,1.5,0.0,0.0,1.5,0.0,0.25,-0.92,0.77,1.52,402.76,27.5,48.7,1.0,1.5,3.25,7.0,8.0,7.25,1.25,5.75,1.5,4.75,3.5,1.25,2.75,0.14,0.08,0.95,718.72,0.1,5.6
1.88,4.5,0.5,2.25,4.5,0.0,0.0,0.0,0.0,0.5,0.0,1.25,0.0,0.25,-0.98,0.95,2.27,298.19,24.7,53.8,1.0,1.5,3.25,7.5,8.75,7.25,1.25,5.25,1.5,3.5,3.0,1.0,1.5,0.14,0.08,0.95,717.7,-0.8,14.3
1.9,3.0,0.5,2.0,3.0,0.0,0.0,0.0,0.0,0.5,0.5,1.5,0.0,0.25,-0.55,0.95,2.64,185.09,22.0,39.0,1.0,2.0,3.25,7.75,9.0,7.5,1.5,5.25,1.5,3.5,2.5,1.0,1.0,0.14,0.08,0.95,721.06,-1.0,18.1
1.92,0.5,0.5,1.5,0.0,0.0,0.0,0.0,0.0,1.25,0.5,0.0,0.75,0.0,-0.36,0.39,2.7,92.0,19.1,4.7,1.5,2.25,3.25,9.25,9.25,7.75,1.75,5.0,1.25,3.25,2.0,0.75,1.75,0.14,0.08,0.95,737.04,-1.6,21.4
1.94,0.0,0.5,1.5,1.0,0.0,0.0,0.25,0.0,0.5,0.5,1.25,0.25,0.0,-0.8,-0.11,1.95,14.1,17.7,5.9,2.0,2.5,4.0,9.5,9.75,7.75,2.0,4.5,1.0,2.25,2.0,0.75,1.75,0.14,0.08,0.95,762.94,-3.1,26.5
1.96,0.0,0.5,1.25,1.0,0.0,0.0,0.0,0.0,0.5,0.5,0.25,0.5,0.0,-0.98,-0.8,1.7,0.0,17.2,13.2,1.75,2.5,4.75,11.0,10.5,7.75,1.75,4.0,1.0,2.25,2.0,0.75,1.75,0.14,0.08,0.95,803.01,-3.9,28.7
1.98,0.0,0.5,1.25,1.25,0.0,0.0,0.0,0.0,0.5,0.5,0.0,0.25,0.25,-0.73,-0.3,1.27,0.0,16.2,20.1,2.25,2.5,5.5,11.5,10.5,7.75,1.75,4.25,1.0,2.0,2.0,0.5,1.75,0.14,0.14,0.95,847.13,-4.7,30.9
2.0,0.0,0.5,1.25,1.0,0.0,0.0,0.75,0.0,0.5,0.5,0.0,0.5,0.25,-1.17,-0.92,-0.11,0.0,17.0,12.1,2.25,2.5,5.75,11.5,11.0,7.75,2.0,3.5,1.0,2.0,1.75,0.75,1.25,0.14,0.14,0.95,879.46,-5.3,33.4
2.02,0.25,0.5,1.0,1.0,0.0,0.0,0.5,0.0,0.25,0.25,0.0,0.5,0.25,-0.86,-0.55,0.52,0.0,18.4,21.4,2.5,2.75,5.75,13.0,12.0,8.0,2.0,3.0,1.0,2.0,1.5,0.25,1.25,0.14,0.14,0.95,916.79,-5.7,37.4
2.04,0.0,0.5,1.25,1.0,0.0,0.0,0.75,0.0,0.5,0.5,0.25,0.25,0.25,-0.61,-0.3,0.27,0.0,17.1,14.0,3.5,3.0,6.5,13.0,12.0,8.0,2.0,3.0,1.0,1.75,1.5,0.25,1.5,0.14,0.14,0.95,957.78,-6.6,38.8
2.06,0.0,0.5,0.75,0.75,0.0,0.0,0.5,0.0,0.5,0.5,0.0,0.25,0.0,-0.42,-0.3,0.45,0.4,16.2,18.5,3.75,3.25,7.0,14.5,12.5,8.0,2.0,2.5,0.75,1.75,1.75,0.25,1.0,0.14,0.14,0.95,1009.44,-7.6,41.9
2.08,0.0,0.5,1.0,1.0,0.0,0.0,0.75,1.0,0.5,0.75,0.0,0.25,0.0,-0.48,-0.3,0.7,17.93,10.1,7.8,4.5,3.25,7.25,14.5,13.0,8.0,1.75,1.5,0.25,1.5,0.25,0.25,0.75,0.08,0.14,0.95,1037.94,-8.4,49.0
2.1,0.25,0.5,1.5,1.0,0.0,0.0,1.25,0.75,0.5,0.5,0.25,0.75,0.0,-0.55,-0.11,0.7,61.99,15.8,8.8,5.0,3.0,7.5,14.5,13.5,7.75,2.0,1.5,0.25,0.25,1.25,0.0,0.75,0.08,0.14,0.95,1057.12,-9.3,50.5
2.12,0.0,0.5,0.75,0.0,0.0,0.0,0.25,0.75,1.5,0.5,0.5,0.5,0.0,-0.48,0.08,0.77,71.38,9.2,-22.2,5.5,4.0,8.0,15.0,13.5,7.75,1.5,1.5,0.25,0.25,1.0,0.0,0.0,0.08,0.14,1.02,1074.49,-10.1,54.6
2.14,0.0,0.5,0.75,0.75,0.0,0.0,0.25,0.5,0.25,0.5,0.0,0.75,0.0,-0.36,0.2,1.02,74.62,11.1,-0.3,6.25,4.0,8.0,15.5,13.0,7.25,1.25,1.25,0.25,0.5,1.75,0.0,0.75,0.14,0.2,1.08,1093.72,-10.5,51.6
2.16,0.0,0.5,0.75,0.75,0.0,0.0,0.25,0.0,0.25,0.5,0.75,0.0,0.25,-0.17,0.27,1.27,72.59,13.4,4.2,7.0,4.0,8.0,15.0,13.0,6.75,1.0,1.0,0.25,1.0,1.25,0.25,0.75,0.14,0.2,1.14,1103.68,-10.8,51.9
2.18,0.0,0.5,1.0,1.25,0.0,0.0,0.25,0.0,0.25,0.5,0.5,0.25,0.25,-0.17,0.45,1.33,69.99,15.1,11.3,7.0,4.0,8.0,14.5,12.0,6.0,1.0,1.25,0.25,0.75,1.25,0.0,0.0,0.14,0.27,1.08,1083.53,-11.8,55.1
2.2,0.0,0.5,0.75,0.5,0.0,0.0,0.25,0.0,0.25,0.5,0.75,0.5,0.0,-0.17,0.58,1.45,65.16,14.4,-6.3,7.25,3.25,7.5,14.5,11.5,4.0,0.75,1.0,0.25,0.5,1.0,0.0,0.25,0.14,0.33,1.2,1022.98,-13.1,56.2
2.22,0.0,0.5,1.0,0.5,0.0,0.0,0.25,0.0,0.25,0.25,0.75,0.5,0.0,-0.23,0.58,1.58,63.56,17.9,2.4,5.75,2.5,6.25,9.75,9.5,0.75,0.5,0.75,0.25,0.0,1.5,0.0,0.75,0.2,0.33,1.33,856.56,-14.9,54.0
2.24,0.0,0.5,0.75,0.5,0.0,0.0,0.25,0.0,0.25,0.25,0.75,0.75,0.25,-0.42,0.58,1.7,61.86,14.1,-14.8,4.5,0.75,2.75,6.5,7.25,0.0,0.25,0.0,0.25,0.0,0.0,0.0,0.0,0.52,0.52,1.95,607.62,-15.4,64.0
2.26,0.0,0.5,0.5,0.5,0.0,0.0,0.25,0.0,0.5,0.25,0.75,0.75,0.0,-0.48,0.7,1.89,59.93,14.3,-15.0,2.25,0.5,0.0,3.75,5.25,0.0,0.75,0.75,0.25,0.0,0.0,0.0,0.0,0.64,0.89,2.08,363.74,-9.2,55.8
2.28,0.0,0.5,0.5,0.5,0.0,0.0,0.25,0.0,0.0,0.5,1.0,0.5,0.25,-0.36,0.77,2.14,57.55,10.9,-19.9,1.25,0.0,0.0,2.5,0.0,0.75,0.0,0.0,0.25,0.0,0.0,0.0,0.0,0.27,0.89,2.33,185.45,-15.3,59.1
2.3,0.0,0.5,0.75,0.5,0.0,0.0,0.25,0.0,0.25,0.25,1.0,0.25,0.25,0.33,1.58,3.89,57.26,14.6,-6.4,0.75,1.0,0.5,2.75,3.5,0.75,0.75,0.5,0.25,0.25,1.0,0.0,0.25,0.2,0.52,2.08,81.14,-6.9,37.7
2.32,0.0,0.5,0.5,0.5,0.0,0.0,0.25,0.0,0.25,0.25,0.75,0.0,0.0,0.14,1.33,1.7,51.14,15.8,11.3,0.5,0.5,0.5,2.5,3.5,0.75,0.25,1.0,0.25,0.5,1.0,0.0,0.0,0.95,0.2,2.14,24.63,-4.3,31.1
2.34,0.0,0.5,0.5,0.5,0.0,0.0,0.25,0.0,0.25,0.0,0.75,0.25,0.0,0.14,1.7,1.2,47.12,18.0,8.4,0.0,0.0,0.0,1.25,0.0,0.75,0.0,0.0,0.25,0.25,0.0,0.0,0.0,0.83,-0.73,1.2,0.0,-2.1,28.4
2.36,0.0,0.5,0.5,0.5,0.0,0.0,0.0,0.0,0.5,0.5,0.75,0.5,0.25,1.27,2.7,0.83,50.52,10.4,-20.2,0.25,0.75,0.0,1.5,0.0,0.75,0.0,0.0,0.25,0.0,0.0,0.0,0.0,0.58,-1.11,0.39,0.0,-8.9,58.0
2.38,0.0,0.5,0.75,0.5,0.0,0.0,0.25,0.0,0.25,0.25,0.75,0.25,0.25,2.14,4.02,0.64,52.69,14.9,-1.9,0.0,0.0,0.0,0.75,0.0,0.75,0.0,0.0,0.25,0.0,0.0,0.0,0.0,0.45,-0.73,0.83,0.0,-0.1,34.5
2.4,0.0,0.5,0.5,0.5,0.0,0.0,0.0,0.0,0.0,0.5,1.0,0.25,0.25,2.08,3.39,0.83,53.75,10.3,-15.2,0.0,0.0,0.0,1.0,0.0,0.75,0.0,0.0,0.25,0.25,0.0,0.0,0.0,0.2,-0.17,0.2,0.0,-0.3,25.0
2.42,0.0,0.5,0.5,0.75,0.0,0.0,0.25,0.25,0.0,0.0,0.75,0.0,0.0,-0.11,0.2,0.27,51.43,16.2,22.9,0.25,0.75,0.5,1.0,0.0,0.75,0.25,0.0,0.25,0.5,0.0,0.0,0.5,0.33,-0.42,0.14,0.0,-6.7,24.6
2.44,0.0,0.5,0.75,0.5,0.0,0.0,0.0,0.0,0.25,1.25,1.0,1.0,0.75,-0.98,-0.17,1.89,65.66,6.1,-40.1,0.0,0.0,0.5,0.0,0.0,0.0,0.0,0.0,0.25,0.0,0.0,0.0,0.0,0.45,-0.48,0.45,0.0,-29.8,28.7
2.46,0.0,0.5,0.5,0.0,0.0,0.0,0.0,0.0,0.25,3.0,0.0,3.0,2.75,-0.17,-0.3,0.83,103.57,-2.9,-78.5,0.0,0.0,0.0,0.0,0.0,0.0,0.0,0.0,0.25,0.0,0.0,0.0,0.25,0.33,-0.36,0.64,0.0,1.0,-75.0
2.48,0.0,0.5,0.5,0.0,0.0,0.0,0.0,0.75,0.5,5.75,2.75,4.75,6.0,0.33,0.64,2.45,197.46,-3.9,-83.3,0.0,0.0,0.25,0.75,0.0,0.75,0.25,0.0,0.25,0.0,0.0,0.0,0.0,0.33,-0.11,0.7,0.0,-6.6,37.3
2.5,0.0,0.5,0.0,0.0,0.0,0.0,0.25,4.25,0.5,6.5,0.0,5.25,6.0,-0.17,0.27,1.2,274.95,-8.3,-80.4,0.0,0.0,0.0,0.0,0.0,0.0,0.0,0.0,0.25,0.0,0.0,0.0,0.0,0.45,0.2,0.83,0.0,-12.1,-38.5
2.52,0.5,0.5,0.0,0.5,0.0,0.0,0.25,5.0,0.5,6.5,4.75,5.0,6.5,-0.05,0.08,1.02,369.28,-4.7,-73.7,0.0,0.0,0.0,0.0,0.0,0.5,0.0,0.0,0.25,0.0,0.0,0.0,0.0,0.45,0.33,0.83,0.0,10.8,9.1
2.54,0.75,0.5,0.0,0.5,0.0,0.75,0.25,5.0,1.5,6.5,0.0,5.0,6.25,-0.17,0.08,0.95,422.11,-6.8,-67.4,0.0,0.0,0.0,0.0,0.0,0.0,0.0,0.0,0.25,0.0,0.0,0.0,0.0,0.33,0.58,0.83,0.0,-12.1,-38.5
2.56,0.25,0.25,0.0,0.75,0.0,1.5,0.25,5.0,0.5,6.5,5.0,5.0,6.25,-0.17,0.08,0.95,482.07,-5.6,-70.1,0.0,0.75,0.5,1.0,3.0,0.75,0.25,0.25,0.25,0.25,0.75,0.0,0.0,0.33,0.77,1.33,38.1,-3.2,35.6
2.58,0.0,0.5,0.0,0.5,0.0,1.5,0.5,5.25,0.5,6.5,5.75,5.5,6.5,-0.11,0.08,0.95,518.27,-5.3,-71.4,0.0,0.75,0.5,1.0,3.0,0.5,0.25,0.25,0.25,0.25,1.5,0.0,0.0,0.33,0.7,1.33,86.15,-4.6,26.2
2.6,0.5,0.5,0.0,0.75,0.0,1.5,0.5,5.5,1.0,6.5,6.5,5.5,6.75,-0.17,0.08,0.95,563.93,-4.2,-67.9,0.0,0.75,0.5,1.0,2.75,0.75,0.25,0.5,0.25,0.25,1.25,0.0,0.0,0.39,0.89,1.2,123.43,-3.3,26.5
2.62,1.25,0.5,0.25,0.75,0.0,1.5,0.75,5.5,1.5,6.75,6.5,5.5,6.75,-0.11,0.08,0.95,600.53,-2.9,-63.2,0.0,0.75,0.5,1.0,3.0,0.5,0.25,0.0,0.25,0.25,1.0,0.0,0.25,0.45,1.02,1.08,141.4,-4.3,30.0
2.64,1.25,0.5,0.0,1.0,0.0,1.5,0.5,5.75,1.5,6.75,6.75,5.5,6.75,-0.11,0.02,0.95,626.26,-3.2,-63.4,0.0,0.75,0.5,1.0,2.75,0.5,0.5,0.75,0.25,0.25,0.75,0.0,0.0,0.27,1.02,0.95,148.88,-3.4,30.3
2.66,1.25,0.5,0.0,1.5,1.0,1.25,0.75,5.75,1.5,6.75,6.5,5.5,6.5,-0.11,0.08,0.95,635.46,-2.7,-58.1,0.0,0.0,0.0,0.0,0.0,0.0,0.0,0.0,0.0,0.0,0.0,0.0,0.0,-1.67,2.83,1.02,106.62,0.0,0.0
2.68,1.25,0.5,0.75,1.25,1.25,0.75,0.75,5.75,1.5,6.5,6.5,5.5,6.75,-0.11,0.08,0.95,629.22,-1.7,-57.1,0.0,0.75,0.25,1.25,0.0,0.75,0.0,0.5,0.25,0.25,1.0,0.0,0.0,-0.8,-1.67,3.39,94.99,-5.4,14.2
2.7,1.25,0.5,1.0,1.25,1.5,0.75,0.0,5.5,1.5,6.5,6.5,5.25,6.5,-0.11,0.08,0.95,611.54,-1.7,-55.6,0.0,0.0,0.5,1.0,0.0,1.0,0.25,0.25,0.0,0.5,1.0,0.0,0.0,0.2,4.14,0.39,77.28,-4.2,1.6
2.72,1.25,0.25,0.0,1.0,1.25,1.5,0.75,5.5,1.5,6.5,6.5,5.25,6.25,-0.11,0.08,0.95,586.29,-3.0,-58.7,0.0,0.0,0.5,1.25,2.25,0.75,0.25,0.0,0.25,0.25,0.0,0.0,0.0,-0.42,-0.55,0.77,84.11,-3.5,42.6
2.74,1.25,0.5,0.0,0.0,1.5,1.5,0.0,5.5,2.0,6.25,6.5,5.0,6.0,-0.11,0.08,0.95,564.84,-3.6,-59.8,0.0,0.75,0.0,1.25,0.25,0.75,0.0,0.0,0.25,0.5,0.0,0.0,0.0,-0.17,-4.55,1.02,78.2,-2.6,37.8
2.76,1.25,0.5,0.5,2.75,1.25,1.5,0.75,5.5,2.5,5.75,6.5,5.0,6.0,-0.11,0.08,0.95,559.5,-0.8,-49.2,1.0,0.0,1.75,1.5,2.25,3.25,0.0,0.0,0.75,0.75,0.0,0.0,0.0,0.52,0.2,1.58,116.46,-4.1,39.3
2.78,1.25,0.5,1.0,2.75,2.0,1.5,0.75,5.25,2.5,5.75,6.5,5.0,6.0,-0.11,0.08,0.95,566.39,-0.3,-45.7,1.0,1.25,3.25,5.0,4.75,3.25,0.25,1.25,1.0,0.75,1.5,0.0,0.5,-0.05,0.2,1.08,203.68,-6.9,33.5
2.8,1.25,0.5,1.25,2.75,2.0,1.5,0.0,5.0,2.75,5.75,6.5,5.0,6.0,-0.11,0.08,0.95,570.17,-0.1,-45.6,2.0,1.5,2.25,5.75,4.25,3.75,0.25,1.25,1.0,0.75,1.5,0.25,0.75,0.02,0.02,1.02,279.21,-6.6,32.8
2.82,1.25,0.5,1.25,2.75,2.25,1.5,0.75,5.0,3.0,5.75,6.25,5.0,5.75,-0.11,0.08,0.95,574.29,0.1,-43.7,3.5,1.75,4.75,7.5,6.75,3.5,0.75,1.25,0.25,0.5,1.75,0.0,0.5,0.02,0.08,1.08,388.67,-10.6,45.1
2.84,1.25,0.5,1.5,2.75,2.5,1.5,0.75,5.5,3.0,5.75,6.5,5.0,5.75,-0.11,0.08,0.95,582.63,0.2,-42.5,3.75,1.25,3.75,6.0,6.25,1.5,0.25,0.0,0.25,0.0,0.75,0.0,0.0,0.08,0.14,1.39,433.51,-14.3,58.5
2.86,1.25,0.5,1.5,2.75,2.5,1.75,0.75,5.5,3.25,5.75,6.5,5.0,5.25,-0.11,0.02,0.95,587.57,0.3,-41.2,6.0,2.5,4.75,7.5,6.25,3.25,0.0,0.25,0.25,0.25,0.75,0.25,0.5,0.14,0.2,1.02,507.72,-13.5,55.9
2.88,1.25,0.5,1.5,3.0,2.75,1.75,0.25,5.5,3.25,5.75,6.5,4.75,5.25,-0.11,0.08,0.95,591.95,0.2,-39.9,7.5,2.75,5.75,7.5,7.25,2.75,0.25,0.0,0.25,0.25,1.5,0.0,1.0,0.08,0.2,1.02,570.0,-14.8,54.9
2.9,1.25,0.5,2.0,3.25,2.75,2.0,0.75,5.25,3.5,4.75,6.5,4.5,5.25,-0.11,0.08,0.95,591.52,1.3,-36.1,8.0,3.25,5.75,7.5,6.5,0.75,0.25,0.5,0.25,0.5,1.0,0.0,0.25,0.02,0.27,1.02,626.22,-17.5,60.4
2.92,1.25,0.5,2.0,4.0,2.75,1.75,0.5,5.0,3.5,4.5,6.25,4.0,4.5,-0.11,0.08,0.95,577.84,2.0,-32.0,8.5,4.0,5.75,7.5,6.25,0.75,0.25,0.0,0.25,0.25,1.0,0.0,0.5,0.08,0.33,1.02,648.06,-18.3,62.9
2.94,1.25,0.5,0.75,4.5,2.75,1.75,1.0,5.0,3.5,4.5,5.75,4.0,4.0,-0.11,0.08,0.95,555.35,1.3,-32.0,8.75,4.0,5.75,7.5,4.75,0.25,0.25,0.0,0.25,0.25,0.75,0.0,0.5,0.08,0.39,1.02,642.02,-20.1,65.0
2.96,1.25,0.5,1.25,4.5,2.75,2.0,1.5,5.0,3.5,4.0,5.5,3.75,4.0,-0.11,0.08,0.95,533.01,1.9,-28.7,9.25,4.0,5.75,6.0,3.5,0.25,0.25,0.0,0.25,0.5,1.5,0.0,0.75,0.08,0.45,1.14,607.87,-20.8,60.7
2.98,1.25,0.5,1.75,5.25,3.0,2.0,1.5,4.75,3.5,3.0,5.5,2.75,2.75,-0.11,0.08,0.95,507.55,3.7,-18.6,9.25,4.0,5.5,5.75,2.5,0.0,0.25,0.25,0.25,0.25,0.75,0.0,0.5,0.08,0.45,1.2,548.74,-22.5,66.4
3.0,1.25,0.5,2.0,6.75,4.75,2.25,2.0,4.25,3.25,2.25,4.0,2.0,2.25,-0.11,0.08,0.95,494.11,4.6,-3.4,9.0,3.75,3.75,3.75,0.0,0.0,0.25,0.0,0.25,0.25,0.75,0.0,0.5,0.02,0.64,1.39,449.3,-25.6,69.8
3.02,1.5,0.75,2.25,8.0,5.25,2.25,2.25,4.25,2.5,1.25,3.5,1.25,1.5,-0.11,0.08,0.95,487.2,6.1,9.6,8.75,3.0,1.75,3.75,0.5,0.0,0.5,0.0,0.25,0.25,0.75,0.0,0.5,0.02,0.83,1.58,360.97,-23.8,68.5
3.04,2.0,1.0,2.25,9.0,6.0,2.0,2.25,3.5,1.5,1.25,2.5,1.0,1.5,-0.11,0.08,1.02,486.62,7.0,19.2,8.5,2.5,0.5,3.25,0.0,0.0,0.25,0.0,0.25,0.25,1.0,0.0,0.0,-0.17,0.52,1.64,288.8,-25.0,72.5
3.06,1.0,1.0,3.75,9.25,6.5,1.75,2.25,2.5,0.5,1.0,0.0,1.0,1.5,-0.17,0.08,1.08,468.83,8.3,31.2,7.75,1.75,0.5,2.5,0.0,0.0,0.25,0.0,0.25,0.25,1.0,0.0,0.0,-0.3,0.52,1.45,235.1,-25.7,70.6
3.08,2.75,1.5,0.0,9.25,6.5,1.5,1.75,2.5,0.5,1.25,0.0,1.0,1.0,-0.23,0.14,1.45,440.29,6.2,33.7,7.0,1.5,0.5,2.5,0.0,0.25,0.25,0.0,0.25,0.25,1.5,0.0,0.25,-0.36,0.2,1.27,197.28,-23.4,59.5
3.1,3.75,0.75,5.5,9.25,5.75,1.25,1.0,2.25,0.0,1.25,1.75,1.0,1.5,-0.23,0.2,1.33,449.31,12.0,32.1,5.75,0.75,0.5,1.5,0.0,0.5,0.25,0.0,0.25,0.25,0.75,0.0,0.0,-0.3,0.39,0.83,149.23,-24.3,65.7
3.12,3.5,1.25,4.75,8.0,5.25,0.75,0.25,2.5,0.0,1.25,2.0,1.0,1.0,-0.36,0.2,1.39,445.29,11.8,31.5,4.25,0.75,0.5,1.0,0.0,0.5,0.25,0.0,0.25,0.25,0.75,0.0,0.0,-1.11,0.39,-3.61,108.9,-22.9,60.7
3.14,4.5,0.0,3.0,0.0,3.25,1.25,0.0,2.5,0.5,1.25,2.5,0.0,0.5,-0.48,0.33,1.39,377.18,9.7,20.1,1.0,0.75,0.5,1.0,0.0,0.5,0.25,0.25,0.25,0.5,0.0,0.25,0.25,0.08,2.77,-5.11,64.72,-11.7,31.0
3.16,2.75,0.5,0.75,2.5,0.0,0.0,0.0,0.0,2.75,0.0,2.5,0.5,0.0,-0.73,0.45,1.95,285.61,19.3,13.1,1.0,0.75,0.5,1.0,0.0,0.5,0.0,0.0,0.25,0.25,0.75,0.0,0.25,0.83,2.33,-4.11,33.78,-13.9,31.5
3.18,0.0,0.0,0.5,0.0,0.0,0.0,0.0,0.0,0.0,0.0,1.75,0.0,0.0,-0.3,0.52,2.52,166.59,17.2,-43.6,0.5,0.75,0.25,1.0,0.25,0.5,0.25,0.0,0.25,0.25,0.75,0.0,0.0,1.14,3.7,3.2,14.17,-11.4,32.3
3.2,1.5,0.5,0.0,2.25,0.0,0.0,0.0,0.0,0.5,1.25,0.0,0.5,0.0,-0.3,0.58,2.2,77.99,13.3,24.0,0.75,0.75,0.5,1.0,1.25,0.5,0.25,0.0,0.25,0.25,1.0,0.0,0.5,1.08,4.33,3.39,25.26,-8.8,24.9
3.22,0.0,0.5,0.5,1.0,0.0,0.0,0.25,0.0,0.5,0.75,1.75,0.25,0.25,-0.48,0.14,1.52,13.92,10.5,-19.9,0.0,0.0,0.5,0.0,0.0,0.0,0.25,0.0,0.25,0.5,1.0,0.0,0.0,-0.42,-0.05,0.2,16.36,-12.4,-36.4
3.24,0.0,0.25,0.5,0.0,0.0,0.0,0.0,0.0,0.5,0.75,1.25,0.0,0.25,-0.61,0.14,1.33,0.0,7.6,-39.7,0.25,0.75,0.5,1.0,1.25,0.5,0.25,0.0,0.25,0.0,0.75,0.0,0.75,-0.42,-5.42,-3.61,37.87,-6.9,21.8
3.26,0.5,0.25,0.5,0.0,0.0,0.0,0.75,0.0,0.5,0.5,1.0,0.5,0.5,-0.55,-0.05,0.95,0.0,12.4,-28.1,0.0,0.0,0.5,1.0,1.0,0.5,0.5,0.25,0.25,0.5,0.25,0.0,0.5,1.14,-4.23,-1.11,42.24,-3.3,8.6
3.28,0.0,0.0,0.5,0.75,0.0,0.0,0.5,0.0,0.5,0.5,0.0,0.75,0.25,-0.67,-0.23,0.7,0.0,11.9,-23.6,0.0,0.75,0.5,1.0,0.0,0.75,0.5,0.0,0.25,0.5,0.75,0.0,0.0,0.83,-3.86,0.45,52.97,-8.8,20.4
3.3,0.0,0.0,0.75,1.0,0.0,0.0,3.5,0.0,0.5,0.5,0.0,0.25,0.25,-0.8,-0.36,0.14,0.0,19.7,8.2,0.0,0.75,0.5,1.0,1.25,0.75,0.25,0.25,0.25,0.0,1.0,0.25,0.25,1.39,-0.36,0.95,66.22,-5.8,19.0
3.32,1.0,0.25,0.5,0.75,0.0,0.0,0.5,0.0,0.5,1.0,0.0,0.0,0.25,-0.48,-0.05,0.45,0.0,14.2,17.2,0.0,0.0,0.0,0.0,1.25,0.5,0.25,0.5,0.25,0.0,1.5,0.0,0.0,-3.11,0.39,-1.36,67.96,0.3,-9.8
3.34,1.25,0.5,0.5,0.5,0.0,0.0,0.5,0.0,0.5,0.75,0.0,0.0,0.25,-0.48,-0.11,0.52,5.11,16.7,29.0,0.0,0.75,0.5,1.0,1.0,0.75,0.25,0.0,0.25,0.0,1.0,0.0,0.25,-1.55,3.83,0.7,78.63,-7.1,25.3
3.36,0.0,0.25,0.0,1.0,0.0,0.0,1.25,0.0,0.5,0.75,0.0,0.25,0.0,6.08,7.2,2.95,21.94,10.9,-0.1,0.0,0.75,0.5,1.0,1.5,0.75,0.25,0.25,0.25,0.25,0.75,0.0,0.0,0.02,3.83,0.45,87.21,-5.0,30.7
3.38,1.0,0.5,1.5,0.0,0.0,0.0,0.75,0.0,0.5,0.75,2.0,0.75,0.25,3.27,4.08,0.89,62.22,17.0,-11.3,0.0,0.75,0.5,1.0,1.5,0.5,0.25,0.0,0.25,0.25,1.0,0.0,0.25,0.7,2.52,-2.3,98.29,-6.3,23.6
3.4,0.0,0.5,0.5,0.0,0.0,0.0,0.5,0.0,0.5,0.5,0.75,0.25,0.25,1.14,1.58,0.77,67.5,11.0,-22.3,0.0,1.0,0.5,1.25,1.5,0.75,0.5,0.0,0.25,0.25,1.0,0.0,0.75,0.58,0.89,-1.3,109.14,-5.1,18.8
3.42,0.0,0.0,0.0,0.0,0.0,0.0,3.75,0.0,1.5,0.0,0.0,0.0,0.0,1.52,0.95,-2.36,69.65,23.2,-2.4,0.0,0.75,0.5,1.0,1.75,0.75,0.25,0.5,0.25,0.5,0.75,0.0,0.0,0.45,0.77,0.02,116.12,-3.2,25.5
3.44,0.0,0.0,0.0,0.0,0.0,0.0,2.75,0.0,0.5,0.75,0.0,0.0,0.0,2.39,1.14,-2.73,52.24,14.4,-15.4,0.0,0.75,0.5,1.0,1.25,0.5,0.25,0.0,0.25,0.5,0.5,0.0,0.25,0.33,1.27,0.52,113.05,-5.5,26.1
3.46,0.0,0.0,0.0,0.25,0.0,0.0,0.0,0.0,0.25,0.0,0.75,0.0,0.0,2.27,1.77,-4.42,38.38,12.4,-39.8,0.0,0.75,0.75,1.0,0.0,0.5,0.25,0.0,0.25,0.5,0.75,0.0,0.5,0.08,1.64,0.33,104.58,-8.9,8.7
3.48,0.5,0.5,0.0,0.5,0.0,0.0,0.0,0.0,0.5,1.0,1.25,0.0,0.25,0.45,2.45,0.14,41.45,7.0,-19.5,0.0,0.75,0.5,1.0,0.5,0.75,0.25,0.0,0.25,0.25,0.75,0.0,0.5,-0.23,1.58,-0.11,94.21,-6.0,15.9
3.5,0.0,0.0,0.0,0.0,0.0,0.0,3.25,3.0,1.25,0.0,0.0,0.0,0.25,-1.17,4.77,0.95,56.26,1.9,-24.7,0.0,0.75,0.5,1.0,1.5,0.5,0.25,0.0,0.25,0.25,0.75,0.0,0.75,-0.48,1.52,-0.67,95.79,-4.6,16.9
3.52,0.0,0.0,0.0,0.0,0.0,0.0,3.5,3.5,2.25,0.0,0.25,0.0,0.0,0.14,1.08,-0.36,82.05,3.3,-25.3,0.0,0.75,0.5,0.75,1.25,0.5,0.25,0.25,0.25,0.5,0.75,0.0,0.25,-0.67,1.27,-0.92,96.39,-4.3,18.0
3.54,0.0,0.0,0.0,0.0,0.0,0.0,3.5,0.0,2.25,0.0,0.25,0.0,0.0,-0.11,-2.48,-0.17,82.62,20.3,-14.0,0.0,0.75,0.75,1.0,1.5,0.5,0.25,0.5,0.25,0.25,0.75,0.0,0.5,-0.48,0.83,-0.73,103.45,-5.0,19.2
3.56,0.5,0.5,0.5,0.0,0.0,0.0,0.25,0.0,0.5,0.75,0.5,0.0,0.25,0.08,-5.11,-1.55,78.48,11.7,-2.5,0.0,0.75,0.5,1.0,1.5,0.5,0.5,0.0,0.25,0.25,1.5,0.0,0.75,-0.42,0.27,-0.61,110.48,-5.7,8.1
3.58,0.0,0.5,0.5,0.5,0.0,0.0,0.25,0.5,0.0,0.0,0.75,0.0,0.25,-0.48,-3.42,-0.17,64.77,11.0,4.3,0.0,0.75,0.5,0.75,1.5,0.75,0.25,0.0,0.25,0.25,0.5,0.0,0.75,-0.55,0.27,-0.48,108.82,-2.9,19.4
3.6,0.0,0.0,0.0,0.0,0.0,0.0,0.0,0.0,2.25,0.0,0.25,0.0,0.25,-0.23,-2.42,3.14,53.5,9.6,-48.6,0.0,0.75,0.5,1.0,1.25,0.75,0.25,0.0,0.25,0.5,0.75,0.0,0.5,-0.67,0.45,-0.3,107.11,-3.9,17.3
3.62,0.0,0.25,0.5,0.25,0.0,0.0,0.25,0.0,0.0,0.0,1.25,0.5,0.25,1.27,-2.17,1.39,46.27,14.5,-31.7,0.0,0.75,0.5,1.0,1.5,0.5,0.25,0.0,0.25,0.25,1.25,0.0,0.75,-0.67,0.52,-0.23,107.95,-5.0,10.6
3.64,0.0,0.5,1.0,0.25,0.0,0.0,0.25,0.0,0.0,0.75,1.25,0.5,0.25,-0.11,1.14,1.83,55.95,12.1,-21.2,0.0,0.75,0.5,0.75,1.5,0.5,0.25,0.0,0.25,0.25,1.5,0.0,0.25,-0.61,0.64,-0.23,106.83,-6.2,15.0
3.66,0.0,0.5,0.75,0.0,0.0,0.0,0.25,0.0,0.0,0.5,1.25,0.25,0.25,-0.11,2.7,1.45,57.25,12.0,-22.9,0.0,0.75,0.5,0.75,1.75,0.75,0.25,0.0,0.25,0.5,1.0,0.0,0.5,-0.48,0.83,-0.23,110.2,-3.1,15.6
3.68,0.0,0.5,0.75,0.5,0.0,0.0,0.25,0.75,0.25,0.5,0.75,0.0,0.25,-0.61,4.14,1.39,62.48,8.1,-6.2,0.0,0.75,0.5,0.75,1.0,0.5,0.25,0.0,0.25,0.25,0.75,0.0,0.25,-0.36,0.95,-0.11,103.95,-6.7,23.2
3.7,0.0,0.25,0.5,0.5,0.0,0.0,0.25,0.0,0.25,0.5,0.75,0.0,0.5,-0.48,4.89,-0.67,58.41,9.3,-20.0,0.0,0.75,0.5,0.75,1.25,0.5,0.25,0.0,0.25,0.25,1.0,0.0,0.25,-0.17,0.95,-0.11,99.61,-6.3,20.6
3.72,0.0,0.5,0.0,0.5,0.0,0.0,0.25,0.0,0.25,0.5,0.25,0.0,0.25,-0.86,4.27,-4.61,48.36,5.6,-3.8,0.25,0.75,0.5,0.75,1.75,0.5,0.25,0.0,0.25,0.25,0.5,0.0,0.5,-0.11,0.95,-0.11,96.87,-5.4,28.4
3.74,0.0,0.5,0.5,0.5,0.0,0.0,0.25,0.0,0.25,0.25,0.75,0.0,0.5,-0.48,2.64,-0.67,44.87,11.4,-6.9,0.0,0.5,0.5,0.75,1.25,0.5,0.5,0.0,0.25,0.25,0.75,0.0,0.5,0.02,1.02,-0.23,93.53,-5.5,15.4
3.76,0.25,0.5,0.5,0.5,0.0,0.0,0.25,0.0,0.25,0.5,1.25,0.0,0.25,-0.05,1.64,-0.11,49.69,12.6,-6.7,0.0,0.75,0.5,1.0,1.5,0.75,0.25,0.0,0.25,0.25,1.0,0.0,0.5,0.02,0.95,-0.3,97.86,-4.6,19.0
3.78,0.5,0.25,0.75,0.5,0.0,0.0,0.25,0.0,0.25,0.25,1.0,0.0,0.25,-0.17,0.95,0.27,57.2,17.6,5.7,0.0,0.75,0.5,0.75,1.25,0.75,0.25,0.25,0.25,0.25,0.75,0.0,0.5,-0.05,0.89,-0.42,98.29,-3.4,17.1
3.8,0.0,0.5,0.5,0.5,0.0,0.0,0.25,0.0,0.25,0.5,1.25,0.0,0.5,-0.05,0.39,0.14,61.81,9.7,-19.0,0.0,0.75,0.5,0.5,1.25,0.5,0.25,0.5,0.25,0.5,0.75,0.0,0.25,-0.05,0.95,-0.48,98.69,-2.9,14.0
3.82,0.0,0.5,0.75,0.5,0.0,0.0,0.25,0.0,0.5,0.75,1.25,0.0,0.25,0.14,0.14,-0.05,67.24,11.3,-13.6,0.0,0.75,0.5,0.5,1.5,0.75,0.25,0.25,0.25,0.25,1.5,0.0,0.5,-0.17,0.89,-0.48,101.9,-3.3,7.6
3.84,0.0,0.0,0.5,0.0,0.0,0.0,0.0,0.0,0.0,0.0,0.5,0.0,0.25,0.14,0.27,-0.05,52.42,17.0,-26.6,0.0,0.75,0.5,0.75,1.25,0.5,0.25,0.0,0.25,0.25,0.75,0.0,0.0,-0.23,0.83,-0.42,97.32,-7.1,31.3
3.86,0.0,0.0,0.75,0.0,0.0,0.0,0.0,0.0,0.0,0.0,0.75,0.0,0.25,0.14,0.45,-0.17,39.94,19.3,-20.5,0.0,0.75,1.0,0.5,1.25,0.5,0.25,0.5,0.25,0.25,1.0,0.0,0.5,-0.23,0.89,-0.48,100.09,-5.9,13.0
3.88,0.0,0.0,0.75,0.0,0.0,0.0,0.0,0.0,0.0,0.0,0.75,0.0,0.25,0.2,0.52,-0.3,27.72,19.3,-20.5,0.25,0.75,0.5,0.5,2.5,0.5,0.25,0.25,0.25,0.25,0.75,0.0,0.75,-0.23,0.95,-0.55,107.45,-2.8,20.2
3.9,0.25,0.5,0.5,0.5,0.0,0.0,0.25,0.0,0.25,0.5,1.0,0.0,0.25,0.14,0.64,-0.48,35.8,12.7,-2.5,0.25,0.75,0.5,1.0,1.25,0.75,0.25,0.0,0.25,0.25,0.75,0.0,0.0,-0.23,1.02,-0.42,108.27,-7.4,35.1
3.92,0.0,0.0,0.75,0.75,0.0,0.0,0.25,0.0,0.25,0.0,1.0,0.0,0.25,0.33,0.95,-0.17,39.93,18.0,-4.7,0.0,0.75,0.5,0.75,1.25,0.5,0.25,0.0,0.25,0.25,0.75,0.0,0.75,-0.17,0.95,-0.23,106.45,-4.5,13.4
3.94,0.0,0.0,0.0,0.0,0.0,0.0,0.0,0.0,0.25,0.5,0.75,0.5,0.25,0.45,1.02,-0.11,44.14,1.7,-83.0,0.0,0.75,0.5,0.75,1.25,0.75,0.25,0.25,0.25,0.25,0.25,0.0,0.25,-0.11,0.89,-0.23,99.73,-3.5,31.0
3.96,0.0,0.5,0.5,0.5,0.0,0.0,0.25,0.0,0.25,0.5,0.75,0.5,0.25,0.52,1.02,-0.11,49.29,11.0,-17.6,0.0,0.75,0.5,0.5,1.75,0.5,0.25,0.5,0.25,0.25,0.75,0.0,0.25,-0.05,0.95,-0.3,98.34,-3.0,21.0
3.98,0.0,0.5,0.5,0.25,0.0,0.0,0.25,0.0,0.25,0.25,1.0,0.5,0.25,0.45,0.89,-0.17,50.52,12.4,-22.9,0.0,0.75,0.5,0.75,1.5,0.75,0.25,0.0,0.25,0.25,1.5,0.0,0.25,0.02,0.95,-0.36,100.18,-5.2,15.7
4.0,0.0,0.5,0.25,0.5,0.0,0.0,0.0,0.0,0.5,0.5,0.75,0.0,0.25,0.45,0.83,-0.17,51.41,8.5,-13.0,0.25,0.5,0.5,0.75,1.0,0.75,0.25,0.0,0.25,0.25,1.0,0.0,0.75,0.02,1.02,-0.36,100.5,-4.8,8.5
4.02,0.0,0.5,0.5,0.5,0.0,0.0,0.25,0.0,0.25,0.5,1.0,0.25,0.25,0.52,0.83,-0.11,55.22,11.1,-15.3,0.0,0.75,0.5,0.75,1.5,0.5,0.25,0.0,0.25,0.25,1.25,0.0,0.0,0.02,1.08,-0.3,100.7,-6.9,23.8
4.04,0.0,0.5,0.5,0.5,0.0,0.0,0.25,0.0,0.25,0.5,1.25,0.25,0.25,0.52,0.77,-0.11,60.12,11.1,-18.8,0.0,0.75,0.5,0.5,1.75,0.5,0.25,0.0,0.25,0.25,2.0,0.0,0.25,-0.11,1.08,-0.23,103.43,-5.8,8.8
4.06,0.0,0.25,0.5,0.5,0.0,0.0,0.25,0.0,0.25,0.5,1.0,0.5,0.25,0.52,0.83,-0.17,62.5,10.9,-29.0,0.0,0.5,0.5,0.5,1.75,0.75,0.25,0.0,0.25,0.25,0.0,0.0,0.5,-0.17,1.08,-0.23,98.23,-1.5,30.1
4.08,0.0,0.0,0.5,0.0,0.0,0.0,0.5,0.0,0.25,0.5,1.0,0.25,0.25,0.7,1.02,-0.42,61.11,10.6,-46.3,0.0,0.75,0.5,0.75,1.25,0.5,0.25,0.25,0.25,0.25,0.75,0.0,0.5,-0.23,1.02,-0.3,97.5,-4.4,16.5
4.1,0.0,0.5,0.5,0.5,0.0,0.0,0.25,0.0,0.25,0.5,0.75,0.25,0.25,0.64,1.14,-0.42,59.27,11.1,-11.3,0.0,0.75,0.5,0.25,1.5,0.75,0.25,0.25,0.25,0.25,0.75,0.0,0.75,-0.23,0.95,-0.3,95.61,-1.2,10.3
4.12,0.0,0.25,0.5,0.5,0.0,0.0,0.25,0.0,0.0,0.5,0.75,0.0,0.25,0.45,1.02,-0.36,53.18,11.1,-10.4,0.0,0.75,0.5,0.5,1.25,0.75,0.25,0.0,0.25,0.25,0.75,0.0,1.0,-0.23,0.89,-0.36,96.72,-2.2,7.3
4.14,0.0,0.5,0.5,0.0,0.0,0.0,0.25,0.0,0.25,0.25,1.25,0.0,0.25,0.2,0.83,-0.36,49.51,12.4,-20.0,0.0,0.75,0.5,0.5,1.25,0.5,0.25,0.0,0.25,0.25,1.0,0.0,0.25,-0.17,0.83,-0.3,94.84,-5.8,18.8
4.16,0.0,0.5,0.25,0.25,0.0,0.0,0.25,0.0,0.25,0.25,1.0,0.0,0.25,0.14,0.77,-0.42,46.91,10.6,-15.4,0.0,0.75,0.5,0.75,1.0,0.75,0.25,0.0,0.25,0.25,1.0,0.0,0.5,-0.17,0.83,-0.3,94.72,-4.8,14.0
4.18,0.0,0.25,0.25,0.5,0.0,0.0,0.25,0.0,0.25,0.5,1.0,0.25,0.25,0.2,0.77,-0.42,47.74,8.9,-29.9,0.0,0.75,0.5,0.5,1.0,0.75,0.25,0.0,0.25,0.25,1.25,0.0,0.0,-0.17,0.83,-0.23,91.24,-6.2,19.6
4.2,0.0,0.25,0.25,0.25,0.0,0.0,0.25,0.0,0.25,0.5,1.0,0.0,0.25,0.27,0.77,-0.36,44.78,8.2,-31.0,0.0,0.75,0.5,0.25,1.25,0.5,0.25,0.0,0.25,0.25,1.0,0.0,0.25,-0.17,0.83,-0.23,87.28,-5.3,16.9
4.22,0.0,0.0,0.25,0.5,0.0,0.0,0.25,0.0,0.25,0.5,0.75,0.25,0.25,0.33,0.7,-0.3,44.6,8.4,-37.6,0.0,0.75,0.5,0.5,1.5,0.5,0.25,0.25,0.25,0.25,0.75,0.0,0.5,-0.17,0.83,-0.23,88.76,-3.5,16.5
4.24,0.0,0.0,0.25,0.25,0.0,0.0,0.25,0.0,0.0,0.5,1.0,0.0,0.25,0.33,0.83,-0.23,40.98,7.3,-44.3,0.0,0.75,0.5,0.25,1.25,0.75,0.25,0.0,0.25,0.25,0.75,0.0,0.75,-0.17,0.89,-0.23,89.8,-2.2,10.2
4.26,0.0,0.5,0.5,0.5,0.0,0.0,0.25,0.0,0.25,0.5,0.75,0.0,0.25,0.39,0.89,-0.23,43.45,11.3,-4.2,0.0,0.75,0.5,0.5,1.25,0.5,0.25,0.0,0.25,0.5,0.75,0.0,0.75,-0.23,0.89,-0.23,91.91,-3.1,7.8
4.28,0.0,0.5,0.5,0.5,0.0,0.0,0.25,0.0,0.25,0.5,0.5,0.0,0.25,0.45,0.95,-0.23,45.26,11.3,1.2,0.0,0.75,0.5,0.25,1.25,0.5,0.25,0.0,0.25,0.25,0.75,0.0,0.5,-0.3,0.95,-0.3,89.34,-4.1,15.0
4.3,0.0,0.5,0.5,0.5,0.0,0.0,0.25,0.0,0.25,0.25,0.75,0.0,0.25,0.45,1.02,-0.23,48.6,13.4,1.4,0.0,0.75,0.5,0.5,1.25,0.5,0.25,0.0,0.25,0.25,0.75,0.0,0.25,-0.3,1.08,-0.36,88.56,-5.6,23.1
4.32,0.25,0.25,0.5,0.5,0.0,0.0,0.25,0.0,0.25,0.25,0.0,0.0,0.25,0.45,1.08,-0.23,46.46,16.4,23.5,0.0,0.75,0.75,0.25,1.5,0.75,0.25,0.25,0.25,0.25,0.75,0.0,0.5,-0.3,1.14,-0.36,90.63,-3.3,17.2
4.34,0.25,0.25,0.5,0.5,0.0,0.0,0.25,0.0,0.25,0.25,0.0,0.0,0.25,0.39,1.08,-0.3,43.64,16.4,23.5,0.0,0.75,0.5,0.5,1.5,0.5,0.25,0.25,0.25,0.25,0.25,0.0,0.5,-0.3,1.14,-0.3,91.23,-2.8,24.3
4.36,0.0,0.5,0.5,0.5,0.0,0.0,0.25,0.0,0.25,0.5,0.0,0.0,0.25,0.39,1.02,-0.3,42.25,11.4,15.1,0.25,0.5,0.5,0.75,1.25,0.75,0.25,0.25,0.25,0.25,0.75,0.0,0.0,-0.3,1.08,-0.3,93.41,-5.7,28.0
4.38,0.0,0.25,0.5,0.5,0.0,0.0,0.25,0.0,0.25,0.5,0.75,0.0,0.25,0.33,0.95,-0.3,43.72,11.2,-12.6,0.0,0.75,0.5,0.75,1.25,0.5,0.25,0.0,0.25,0.25,0.75,0.0,0.5,-0.3,1.02,-0.23,93.93,-5.3,18.8
4.4,0.0,0.0,0.5,0.25,0.0,0.0,0.25,0.0,0.0,0.5,0.0,0.0,0.5,0.33,0.95,-0.23,39.28,6.9,-23.2,0.0,0.75,0.5,0.5,1.25,0.5,0.25,0.0,0.25,0.25,1.5,0.0,0.5,-0.23,0.95,-0.23,95.9,-5.4,6.4
4.42,0.0,0.5,0.5,0.5,0.0,0.0,0.25,0.0,0.25,0.25,0.25,0.0,0.25,0.39,0.89,-0.23,39.86,13.9,15.3,0.0,0.75,0.5,0.25,1.0,0.75,0.25,0.0,0.25,0.25,1.25,0.0,0.0,-0.23,0.89,-0.3,92.26,-5.7,17.6
4.44,0.0,0.25,0.5,0.5,0.0,0.0,0.25,0.0,0.25,0.5,0.5,0.0,0.25,0.39,0.89,-0.23,40.68,11.2,-7.4,0.0,0.5,0.5,0.0,1.25,0.5,0.5,0.0,0.25,0.25,0.75,0.0,0.5,-0.23,0.83,-0.3,87.09,-3.7,8.6
4.46,0.0,0.25,0.5,0.5,0.0,0.0,0.25,0.0,0.25,0.25,0.0,0.0,0.25,0.39,0.89,-0.23,39.3,14.4,15.5,0.0,0.75,0.5,0.0,1.5,0.75,0.25,0.0,0.25,0.25,0.75,0.0,0.5,-0.23,0.83,-0.3,85.04,-2.0,15.8
4.48,0.25,0.25,0.75,0.5,0.0,0.0,0.25,0.0,0.25,0.5,0.0,0.0,0.25,0.39,0.89,-0.3,41.52,15.6,18.3,0.0,0.5,0.5,0.5,1.25,0.5,0.25,0.0,0.25,0.25,0.75,0.0,0.25,-0.3,0.89,-0.3,82.67,-5.3,19.3
4.5,0.0,0.5,0.5,0.5,0.0,0.0,0.25,0.25,0.0,0.5,0.0,0.0,0.25,0.39,0.89,-0.3,41.95,8.7,15.0,0.0,0.75,0.5,0.75,1.0,0.5,0.25,0.0,0.25,0.25,0.25,0.0,0.5,-0.36,0.95,-0.3,81.88,-5.2,25.9
4.52,0.0,0.25,0.5,0.5,0.0,0.0,0.25,0.0,0.25,0.25,0.0,0.0,0.25,0.33,0.89,-0.3,40.64,14.4,15.5,0.0,0.75,0.5,0.5,1.5,0.75,0.25,0.0,0.25,0.5,0.75,0.0,0.5,-0.36,0.95,-0.3,87.76,-2.5,15.7
4.54,0.0,0.5,0.5,0.5,0.0,0.0,0.25,0.0,0.25,0.5,0.0,0.0,0.25,0.33,0.95,-0.3,41.01,11.4,15.1,0.0,0.5,0.5,0.25,1.25,0.75,0.25,0.0,0.25,0.25,0.25,0.0,0.5,-0.36,0.95,-0.3,85.18,-1.7,20.5
4.56,0.0,0.25,0.5,0.25,0.0,0.0,0.25,0.0,0.0,0.0,0.0,0.0,0.5,0.33,0.95,-0.3,36.49,14.5,11.2,0.0,0.75,0.5,0.5,1.25,0.75,0.5,0.25,0.25,0.25,0.75,0.0,1.25,-0.36,0.95,-0.3,92.53,-1.4,1.7
4.58,0.0,0.25,0.25,0.5,0.0,0.0,0.25,0.0,0.25,0.25,0.0,0.0,0.25,0.33,0.95,-0.3,33.31,11.2,9.4,0.0,0.75,0.5,0.5,1.25,0.75,0.25,0.25,0.25,0.25,0.75,0.0,0.75,-0.36,0.95,-0.3,95.84,-2.1,10.3
4.6,0.0,0.25,0.75,0.5,0.0,0.0,0.25,0.0,0.25,0.25,0.0,0.0,0.25,0.33,0.95,-0.3,33.16,16.9,20.4,0.0,0.75,0.5,0.5,0.25,0.75,0.5,0.0,0.25,0.25,0.75,0.0,0.5,-0.36,0.95,-0.3,92.1,-6.0,9.3
4.62,0.0,0.25,0.5,0.5,0.0,0.0,0.25,0.0,0.25,0.25,0.0,0.0,0.25,0.33,0.95,-0.3,34.03,14.4,15.5,0.0,0.75,0.5,0.5,1.75,0.5,0.25,0.0,0.25,0.25,0.75,0.25,0.25,-0.36,0.89,-0.3,92.93,-4.9,20.6
4.64,0.0,0.25,0.5,0.5,0.0,0.0,0.25,0.0,0.0,0.5,0.0,0.0,0.25,0.33,0.95,-0.3,34.97,11.2,11.2,0.0,0.75,0.5,0.5,1.5,0.5,0.25,0.0,0.25,0.25,1.25,0.0,0.0,-0.36,0.89,-0.23,93.07,-6.4,22.3
4.66,0.0,0.5,0.5,0.5,0.0,0.0,0.25,0.0,0.25,0.5,0.25,0.0,0.25,0.33,0.95,-0.3,38.44,11.4,7.6,0.0,0.75,0.5,0.5,1.5,0.75,0.25,0.0,0.25,0.25,0.75,0.0,0.5,-0.36,0.89,-0.23,96.36,-3.3,19.4
4.68,0.0,0.25,0.5,0.5,0.0,0.0,0.25,0.0,0.25,0.25,0.75,0.0,0.25,0.33,0.95,-0.3,41.82,13.5,-7.2,0.0,0.75,0.5,0.5,1.25,0.5,0.25,0.5,0.25,0.25,1.0,0.0,0.25,-0.36,0.89,-0.23,96.99,-4.0,14.1
4.7,0.0,0.5,0.75,0.5,0.0,0.0,0.25,0.5,0.25,0.25,0.0,0.0,0.25,0.33,0.95,-0.3,46.94,11.3,17.4,0.25,0.75,0.5,0.5,0.0,0.5,0.25,0.25,0.25,0.25,0.75,0.0,0.5,-0.36,0.95,-0.23,90.33,-7.6,6.7
4.72,0.0,0.25,0.5,0.75,0.0,0.0,0.25,0.0,0.25,0.5,0.0,0.0,0.25,0.27,0.95,-0.3,47.23,11.9,11.2,0.0,0.75,0.5,0.5,1.0,0.5,0.25,0.0,0.25,0.25,0.75,0.0,0.5,-0.36,0.95,-0.3,86.4,-5.2,15.0
4.74,0.0,0.25,0.5,0.5,0.0,0.0,0.0,0.0,0.25,0.25,0.75,0.25,0.25,0.27,0.95,-0.3,48.91,12.4,-17.0,0.0,0.75,0.5,0.5,1.0,0.5,0.25,0.0,0.25,0.25,0.75,0.0,0.0,-0.36,0.95,-0.3,80.3,-7.2,28.5
4.76,0.0,0.25,0.5,0.5,0.0,0.0,0.25,0.0,0.25,0.25,0.0,0.25,0.25,0.27,0.95,-0.3,45.95,13.8,2.7,0.0,0.75,0.5,0.5,1.0,0.5,0.25,0.25,0.25,0.25,0.75,0.0,0.5,-0.36,0.95,-0.3,81.07,-4.2,12.6
4.78,0.0,0.25,0.5,0.5,0.0,0.0,0.25,0.0,0.25,0.5,0.0,0.0,0.25,0.27,0.95,-0.3,43.64,11.3,6.1,0.0,0.75,0.5,0.25,1.5,0.5,0.25,0.0,0.25,0.25,0.0,0.0,0.25,-0.36,0.95,-0.23,78.96,-3.6,38.5
4.8,0.0,0.5,0.5,0.5,0.0,0.0,0.25,0.0,0.0,0.5,0.0,0.0,0.25,0.27,0.95,-0.3,42.13,11.3,20.5,0.0,0.75,0.5,0.25,1.5,0.5,0.25,0.5,0.25,0.25,0.75,0.0,0.25,-0.36,0.95,-0.3,82.94,-2.7,17.8
4.82,0.5,0.5,0.5,0.5,0.0,0.0,0.25,0.0,0.0,0.5,0.0,0.0,0.25,0.27,0.95,-0.3,43.84,15.1,33.0,0.0,0.75,0.5,0.5,1.25,0.75,0.5,0.25,0.25,0.25,0.75,0.0,0.75,-0.36,0.95,-0.3,89.53,-2.6,10.6
4.84,0.25,0.25,0.5,0.5,0.0,0.0,0.25,0.0,0.0,0.25,0.0,0.0,0.25,0.27,0.95,-0.3,41.42,16.9,30.6,0.0,0.75,0.5,0.5,1.5,0.5,0.25,0.0,0.25,0.25,0.75,0.0,0.5,-0.36,0.89,-0.3,93.82,-4.3,18.8
4.86,0.5,0.25,0.5,0.5,0.0,0.0,0.25,0.0,0.0,0.5,0.0,0.5,0.25,0.33,0.95,-0.3,44.75,14.4,4.9,0.0,0.75,0.5,0.5,1.25,0.75,0.25,0.0,0.25,0.25,0.25,0.0,0.25,-0.3,0.89,-0.3,91.04,-3.8,33.0
4.88,0.5,0.5,0.5,0.5,0.0,0.0,0.25,0.0,0.25,0.0,0.0,0.5,0.25,0.27,0.95,-0.3,46.91,18.8,22.0,0.5,0.75,0.5,0.25,1.25,0.5,0.25,0.0,0.25,0.25,0.5,0.0,0.5,-0.3,0.95,-0.3,90.68,-6.4,25.9
4.9,0.5,0.25,0.5,0.5,0.0,0.0,0.0,0.0,0.0,0.25,0.0,0.5,0.25,0.27,0.95,-0.3,47.28,16.3,11.2,0.0,0.75,0.5,0.5,1.25,0.75,0.5,0.0,0.25,0.25,1.25,0.0,0.5,-0.36,0.95,-0.3,93.53,-4.7,10.9
4.92,0.25,0.5,0.5,0.25,0.0,0.0,0.25,0.0,0.25,0.25,0.0,0.25,0.25,0.27,0.95,-0.3,46.28,15.3,15.0,0.0,0.5,0.5,0.5,0.5,0.5,0.25,0.25,0.25,0.25,0.75,0.0,0.5,-0.36,0.95,-0.3,88.39,-4.6,2.8
4.94,0.25,0.5,0.5,0.5,0.0,0.0,0.25,0.0,0.25,0.5,0.0,0.25,0.25,0.27,0.95,-0.3,47.86,13.0,11.3,0.0,0.75,0.5,0.25,1.25,0.75,0.25,0.0,0.25,0.25,0.75,0.0,0.25,-0.3,0.95,-0.3,88.15,-3.8,21.9
4.96,0.25,0.25,0.5,0.5,0.0,0.0,0.25,0.0,0.25,0.5,0.0,0.25,0.25,0.27,0.89,-0.3,48.01,13.0,3.6,0.0,0.5,1.0,0.5,0.5,0.5,0.25,0.0,0.25,0.25,1.0,0.0,0.5,-0.3,0.95,-0.3,84.07,-9.3,6.9
4.98,0.0,0.0,0.5,0.0,0.0,0.0,0.5,0.0,0.25,0.5,0.0,0.0,0.25,0.27,0.95,-0.3,41.44,10.8,-21.3,0.0,0.75,0.5,0.25,1.25,0.5,0.25,0.0,0.25,0.25,0.75,0.0,0.75,-0.36,0.95,-0.3,84.93,-3.3,9.2
5.0,0.0,0.25,0.5,0.5,0.0,0.0,0.5,0.0,0.25,0.25,0.0,0.5,0.25,0.27,0.95,-0.3,41.11,14.2,-6.2,0.25,0.75,0.5,0.5,1.0,0.5,0.25,0.0,0.25,0.25,1.0,0.0,0.5,-0.36,0.95,-0.3,86.01,-6.6,14.6
5.02,0.25,0.5,0.5,0.5,0.0,0.0,0.25,0.0,0.25,0.5,0.0,0.5,0.25,0.27,0.95,-0.3,43.97,12.7,2.5,0.0,0.75,0.5,0.0,1.5,0.5,0.25,0.0,0.25,0.25,1.25,0.0,0.25,-0.36,0.95,-0.3,88.12,-4.5,12.9
5.04,0.5,0.25,0.5,0.5,0.0,0.0,0.25,0.0,0.25,0.25,0.0,0.5,0.25,0.27,0.95,-0.3,47.28,16.6,7.9,0.0,0.75,0.5,0.5,1.0,0.5,0.5,0.0,0.25,0.25,0.25,0.0,0.0,-0.36,0.95,-0.3,82.79,-7.5,39.8
5.06,0.25,0.5,0.75,0.5,0.0,0.0,0.0,0.0,0.25,0.25,0.0,0.75,0.25,0.27,0.95,-0.3,51.91,15.6,3.5,0.0,0.5,0.5,0.5,0.25,0.75,0.25,0.0,0.25,0.25,0.75,0.0,0.5,-0.36,0.95,-0.3,76.5,-4.9,3.6
5.08,0.25,0.25,0.5,0.5,0.0,0.0,0.25,0.0,0.0,0.25,0.0,0.5,0.25,0.27,0.95,-0.3,50.89,15.4,4.3,0.0,0.75,0.5,0.5,0.5,0.5,0.25,0.0,0.25,0.5,0.75,0.0,0.25,-0.36,0.95,-0.3,73.39,-6.1,12.3
5.1,0.25,0.25,0.5,0.5,0.0,0.0,0.25,0.0,0.0,0.5,0.0,0.5,0.25,0.27,0.95,-0.3,48.86,12.7,-2.5,0.0,0.75,0.5,0.0,1.25,0.75,0.25,0.0,0.25,0.25,0.75,0.0,0.25,-0.36,0.89,-0.3,74.05,-3.1,20.0
5.12,0.25,0.5,0.75,0.5,0.0,0.0,0.25,0.0,0.25,0.5,0.0,0.5,0.25,0.27,0.95,-0.3,51.02,14.5,6.6,0.0,1.0,0.5,0.5,1.0,0.5,0.25,0.25,0.25,0.25,1.0,0.0,0.0,-0.36,0.95,-0.3,78.66,-6.5,24.2
5.14,0.5,0.25,0.5,0.5,0.0,0.0,0.25,0.0,0.0,0.25,0.0,0.75,0.25,0.27,0.95,-0.3,52.17,16.3,2.2,0.0,0.75,0.5,0.0,1.5,0.5,0.25,0.0,0.25,0.25,1.0,0.0,0.25,-0.36,0.95,-0.3,82.42,-4.2,16.9
5.16,0.5,0.5,0.25,0.5,0.0,0.0,0.25,0.0,0.0,0.25,0.0,0.5,0.25,0.27,0.95,-0.3,51.74,14.7,15.3,0.0,0.75,0.5,0.5,0.0,0.5,0.25,0.0,0.25,0.25,0.75,0.0,0.5,-0.36,0.95,-0.3,78.95,-7.5,4.3
5.18,0.25,0.5,0.5,0.5,0.0,0.0,0.25,0.0,0.0,0.5,0.0,0.75,0.25,0.27,0.95,-0.3,52.52,12.4,-2.6,0.0,0.75,0.5,0.25,0.0,0.75,0.25,0.0,0.25,0.25,1.5,0.0,0.5,-0.36,0.95,-0.3,75.35,-6.0,-9.0
5.2,0.25,0.5,0.5,0.5,0.0,0.0,0.25,0.0,0.25,0.25,0.0,0.25,0.5,0.27,0.95,-0.3,52.83,13.1,8.4,0.0,0.75,0.5,0.25,1.0,0.75,0.25,0.0,0.25,0.25,0.75,0.0,0.5,-0.36,0.89,-0.3,75.78,-3.3,13.7
5.22,0.25,0.25,0.5,0.5,0.0,0.0,0.25,0.0,0.0,0.25,0.0,0.5,0.5,0.27,0.95,-0.3,50.97,12.8,-5.7,0.0,0.75,0.5,0.0,0.5,0.5,0.25,0.0,0.25,0.25,0.75,0.0,0.5,-0.36,0.95,-0.3,72.25,-4.8,4.4
5.24,0.25,0.25,0.5,0.5,0.0,0.0,0.25,0.0,0.0,0.25,0.0,0.75,0.25,0.27,0.95,-0.3,47.97,14.8,-5.4,0.0,0.75,0.5,0.25,1.0,0.5,0.25,0.0,0.25,0.25,0.75,0.0,0.0,-0.36,0.95,-0.3,72.38,-6.6,26.8
5.26,0.25,0.25,0.5,0.5,0.0,0.0,0.25,0.0,0.0,0.25,0.0,0.75,0.25,0.27,0.95,-0.3,46.17,14.8,-5.4,0.0,0.75,1.0,0.5,0.5,0.5,0.5,0.25,0.25,0.25,1.0,0.0,0.5,-0.36,0.95,-0.3,78.81,-8.8,9.5
5.28,0.25,0.5,0.5,0.5,0.0,0.0,0.25,0.0,0.0,0.5,0.0,0.75,0.25,0.27,0.95,-0.3,48.1,12.4,-2.6,0.0,0.75,0.5,0.5,1.25,0.5,0.25,0.0,0.25,0.25,0.0,0.0,0.5,-0.36,0.95,-0.3,81.21,-3.8,30.8
5.3,0.25,0.5,0.5,0.5,0.0,0.0,0.25,0.0,0.25,0.5,0.0,0.5,0.25,0.27,0.95,-0.3,50.45,12.7,2.5,0.0,0.75,0.5,0.75,1.5,0.75,0.25,0.25,0.25,0.25,0.75,0.0,0.25,-0.36,0.89,-0.3,89.8,-3.7,23.9
5.32,0.25,0.0,0.5,0.5,0.0,0.0,0.25,0.0,0.25,0.25,0.0,0.75,0.25,0.27,0.95,-0.3,50.12,14.8,-17.5,0.0,0.75,0.5,0.5,1.5,0.5,0.25,0.0,0.25,0.25,0.75,0.0,0.5,-0.36,0.89,-0.3,93.26,-4.3,18.8
5.34,0.25,0.5,0.5,0.5,0.0,0.0,0.25,0.0,0.0,0.25,0.75,0.75,0.25,0.27,0.95,-0.3,53.25,13.9,-11.5,0.0,0.75,0.5,0.5,1.25,0.75,0.25,0.5,0.25,0.25,0.75,0.0,0.25,-0.36,0.95,-0.3,97.52,-2.6,18.5
5.36,0.5,0.5,0.5,0.5,0.0,0.0,0.25,0.0,0.25,0.25,0.75,0.25,0.25,0.27,0.95,-0.3,56.25,15.7,5.9,0.0,0.75,0.75,0.25,1.0,0.5,0.25,0.25,0.25,0.25,0.75,0.0,0.5,-0.36,0.95,-0.3,95.41,-5.1,12.7
5.38,0.5,0.5,0.5,0.5,0.0,0.0,0.25,0.0,0.0,0.5,0.5,0.75,0.25,0.27,0.95,-0.3,61.51,13.5,-5.5,0.0,0.75,0.5,0.5,0.0,0.5,0.25,0.0,0.25,0.25,0.75,0.0,0.25,-0.36,0.95,-0.3,86.04,-8.9,11.8
5.4,0.5,0.25,0.5,0.25,0.0,0.0,0.25,0.0,0.0,0.25,0.5,0.5,0.25,0.27,0.95,-0.3,59.16,16.0,-5.5,0.0,0.5,0.5,0.25,1.0,0.5,0.25,0.25,0.25,0.25,1.0,0.0,0.5,-0.36,0.89,-0.3,82.65,-3.4,2.1
5.42,0.25,0.5,0.5,0.5,0.0,0.0,0.25,0.0,0.0,0.5,0.5,0.5,0.25,0.27,0.95,-0.3,59.16,12.4,-5.0,0.0,0.75,1.0,0.5,1.5,0.5,0.25,0.25,0.25,0.25,0.75,0.0,0.5,-0.36,0.89,-0.3,87.65,-6.2,19.9
5.44,0.5,0.5,0.5,0.25,0.0,0.0,0.25,0.25,0.0,0.5,0.0,0.5,0.25,0.27,0.95,-0.3,56.88,11.7,4.7,0.0,0.5,0.5,0.25,1.0,0.5,0.25,0.0,0.25,0.25,0.75,0.0,0.0,-0.36,0.95,-0.3,83.78,-6.3,22.4
5.46,0.25,0.25,0.5,0.5,0.0,0.0,0.25,0.0,0.25,0.5,0.0,0.75,0.25,0.27,0.95,-0.3,55.82,12.4,-12.9,0.0,0.75,0.5,0.0,0.5,0.5,0.25,0.0,0.25,0.25,0.75,0.0,0.25,-0.36,0.95,-0.3,77.83,-6.0,11.8
5.48,0.0,0.5,0.5,0.5,0.0,0.0,0.25,0.0,0.25,0.25,0.0,0.75,0.25,0.27,0.95,-0.3,53.36,13.0,-7.0,0.0,0.75,0.5,0.5,1.0,0.5,0.5,0.0,0.25,0.25,0.75,0.0,0.5,-0.36,0.95,-0.3,76.62,-5.8,15.3
5.5,0.0,0.25,0.5,0.5,0.0,0.0,0.25,0.0,0.0,0.5,0.0,0.5,0.25,0.27,0.95,-0.3,48.95,10.8,-11.2,0.0,0.75,0.5,0.0,1.0,0.5,0.5,0.0,0.25,0.25,0.75,0.0,0.75,-0.36,0.95,-0.3,75.49,-3.6,4.7
5.52,0.0,0.25,0.5,0.5,0.0,0.0,0.25,0.0,0.0,0.25,0.0,1.0,0.25,0.27,0.95,-0.3,45.43,12.7,-22.5,0.0,0.75,0.5,0.0,1.0,0.5,0.25,0.0,0.25,0.25,0.75,0.0,0.5,-0.36,0.89,-0.3,75.27,-3.8,10.3
5.54,0.0,0.5,0.5,0.25,0.0,0.0,0.25,0.75,0.0,0.5,0.0,0.75,0.25,0.27,0.95,-0.3,47.13,4.7,-20.7,0.0,0.75,0.5,0.0,1.5,0.5,0.25,0.0,0.25,0.25,1.5,0.0,0.25,-0.36,0.95,-0.3,80.24,-4.8,9.2
5.56,0.0,0.25,0.5,0.5,0.0,0.0,0.25,0.0,0.25,0.5,0.0,0.75,0.5,0.27,0.95,-0.3,48.79,8.9,-27.8,0.0,0.75,0.5,0.0,0.25,0.5,0.0,0.0,0.25,0.25,1.0,0.0,0.25,-0.36,0.95,-0.3,74.74,-6.2,2.5
5.58,0.0,0.25,0.5,0.5,0.0,0.0,0.25,0.0,0.0,0.25,0.0,0.75,0.25,0.27,0.95,-0.3,46.25,13.1,-14.4,0.0,0.75,0.5,0.25,1.0,0.5,0.5,0.0,0.25,0.25,0.75,0.0,1.0,-0.36,0.95,-0.3,78.17,-3.5,2.0
5.6,0.0,0.25,0.5,0.25,0.0,0.0,0.25,0.0,0.25,0.5,0.0,0.75,0.25,0.27,0.95,-0.3,44.72,10.1,-28.2,0.0,0.75,0.5,0.25,1.25,0.5,0.25,0.0,0.25,0.25,0.75,0.0,0.5,-0.36,0.95,-0.3,79.69,-4.1,15.0
5.62,0.0,0.25,0.5,0.5,0.0,0.0,0.25,0.0,0.25,0.25,0.0,0.75,0.25,0.27,0.95,-0.3,43.43,13.0,-16.4,0.0,0.75,0.5,0.25,1.0,0.5,0.5,0.0,0.25,0.25,1.5,0.0,0.5,-0.36,0.95,-0.3,86.6,-5.9,2.2
5.64,0.0,0.25,0.5,0.5,0.0,0.0,0.25,0.0,0.25,0.5,0.0,0.75,0.25,0.27,0.95,-0.3,44.6,10.7,-21.1,0.0,0.5,0.5,0.5,1.25,0.5,0.25,0.0,0.25,0.25,1.0,0.0,0.5,-0.36,0.95,-0.3,87.12,-4.6,9.2
5.66,0.0,0.5,0.5,0.5,0.0,0.0,0.25,0.0,0.25,0.5,0.0,0.75,0.25,0.27,0.95,-0.3,47.18,10.9,-12.0,0.0,0.75,0.5,0.25,1.5,0.5,0.25,0.0,0.25,0.25,0.75,0.0,0.5,-0.36,0.95,-0.3,90.17,-3.7,17.0
5.68,0.0,0.25,0.5,0.25,0.0,0.0,0.25,0.0,0.0,0.25,0.0,0.5,0.25,0.27,0.95,-0.3,43.87,13.1,-12.2,0.0,0.75,0.75,0.5,0.0,0.5,0.25,0.0,0.25,0.25,0.75,0.0,0.25,-0.36,0.89,-0.3,84.28,-10.8,14.9
5.7,0.0,0.25,0.75,0.5,0.0,0.0,0.25,0.0,0.0,0.25,0.0,0.75,0.25,0.27,0.95,-0.3,44.01,15.3,-7.8,0.0,0.75,0.5,0.0,1.5,0.5,0.25,0.0,0.25,0.25,0.5,0.0,0.25,-0.36,0.89,-0.3,80.9,-3.6,26.1
5.72,0.0,0.25,0.5,0.5,0.0,0.0,0.25,0.0,0.0,0.25,0.0,0.75,0.25,0.27,0.95,-0.3,41.75,13.1,-14.4,0.0,0.75,0.5,0.5,0.5,0.5,0.25,0.0,0.25,0.25,0.75,0.0,0.5,-0.36,0.89,-0.3,75.89,-6.2,10.3
5.74,0.0,0.25,0.5,0.5,0.0,0.0,0.25,0.0,0.0,0.25,0.0,0.75,0.25,0.27,0.95,-0.3,41.59,13.1,-14.4,0.0,0.75,0.5,0.0,1.25,0.5,0.25,0.0,0.25,0.25,0.0,0.0,0.5,-0.36,0.95,-0.3,73.94,-2.2,27.6
5.76,0.0,0.5,0.5,0.5,0.0,0.0,0.25,0.0,0.0,0.25,0.0,0.75,0.25,0.27,0.95,-0.3,41.95,13.0,-4.4,0.0,0.5,0.5,0.5,1.25,0.5,0.25,0.0,0.25,0.25,0.5,0.0,0.25,-0.36,0.95,-0.3,74.14,-5.0,24.0
5.78,0.0,0.25,0.75,0.25,0.0,0.0,0.25,0.0,0.0,0.25,0.5,0.75,0.25,0.27,0.95,-0.3,44.2,14.4,-23.6,0.0,0.5,0.5,0.5,1.25,0.5,0.25,0.0,0.25,0.25,1.0,0.0,0.5,-0.36,0.89,-0.3,78.44,-4.6,9.2
5.8,0.0,0.25,0.5,0.5,0.0,0.0,0.25,0.0,0.25,0.25,0.25,1.0,0.25,0.27,0.95,-0.3,47.68,12.5,-27.4,0.0,0.75,0.5,0.25,1.25,0.5,0.25,0.0,0.25,0.25,0.75,0.0,0.25,-0.36,0.95,-0.3,81.16,-5.0,21.3
5.82,0.25,0.25,0.5,0.25,0.0,0.0,0.25,0.0,0.25,0.25,0.75,1.0,0.25,0.27,0.95,-0.3,52.94,13.4,-31.7,0.0,0.75,0.5,0.25,1.0,0.5,0.25,0.0,0.25,0.25,0.75,0.0,1.25,-0.36,0.95,-0.3,83.83,-2.1,-3.4
5.84,0.0,0.0,0.5,0.5,0.0,0.0,0.25,0.0,0.25,0.25,0.75,0.75,0.25,0.27,0.95,-0.3,54.75,12.5,-37.9,0.0,0.75,0.5,0.25,1.5,0.5,0.25,0.0,0.25,0.5,1.0,0.0,0.5,-0.36,0.95,-0.3,89.13,-3.2,9.5
5.86,0.25,0.5,0.5,0.5,0.0,0.0,0.5,0.0,0.25,0.5,0.25,1.0,0.25,0.27,0.95,-0.3,60.02,12.7,-14.2,0.0,0.75,0.5,0.25,1.25,0.5,0.25,0.0,0.25,0.25,0.5,0.0,0.25,-0.36,0.95,-0.3,87.44,-4.7,26.2
5.88,0.25,0.25,0.5,0.5,0.0,0.0,0.25,0.0,0.0,0.25,0.0,0.75,0.25,0.27,0.95,-0.3,56.83,14.8,-5.4,0.0,0.75,0.5,0.0,1.25,0.5,0.25,0.0,0.25,0.25,1.0,0.0,0.25,-0.36,0.89,-0.3,85.91,-4.7,14.8
5.9,0.0,0.25,0.25,0.25,0.0,0.0,0.25,0.0,0.0,0.5,0.0,0.75,0.25,0.27,0.95,-0.3,51.39,6.9,-36.7,0.0,0.75,0.5,0.0,1.25,0.5,0.25,0.0,0.25,0.25,0.75,0.0,0.5,-0.36,0.89,-0.3,83.65,-3.4,12.8
5.92,0.25,0.5,0.5,0.5,0.0,0.0,0.25,0.0,0.25,0.25,0.0,0.75,0.25,0.27,0.95,-0.3,50.58,14.5,0.0,0.0,0.75,0.5,0.25,2.25,0.5,0.5,0.0,0.25,0.25,0.5,0.0,0.5,-0.36,0.89,-0.3,90.55,-3.0,25.7
5.94,0.25,0.25,0.25,0.5,0.0,0.0,0.25,0.0,0.0,0.5,0.0,0.75,0.25,0.27,0.95,-0.3,47.53,10.1,-17.3,0.0,0.75,0.5,0.75,0.25,0.5,0.25,0.0,0.25,0.5,0.75,0.0,0.25,-0.36,0.89,-0.3,86.23,-7.3,12.3
5.96,0.25,0.25,0.5,0.5,0.0,0.0,0.25,0.0,0.0,0.25,0.0,1.0,0.25,0.27,0.95,-0.3,48.12,14.4,-13.6,0.0,0.75,0.75,0.0,1.5,0.5,0.25,0.0,0.25,0.25,0.75,0.0,0.5,-0.36,0.89,-0.3,89.05,-4.7,17.1
