time,left pressure 0[N/cm²],left pressure 1[N/cm²],left pressure 2[N/cm²],left pressure 3[N/cm²],left pressure 4[N/cm²],left pressure 5[N/cm²],left pressure 6[N/cm²],left pressure 7[N/cm²],left pressure 8[N/cm²],left pressure 9[N/cm²],left pressure 10[N/cm²],left pressure 11[N/cm²],left pressure 12[N/cm²],left acceleration X[g],left acceleration Y[g],left acceleration Z[g],left total force[N],left center of pressure X[mm],left center of pressure Y[mm],right pressure 0[N/cm²],right pressure 1[N/cm²],right pressure 2[N/cm²],right pressure 3[N/cm²],right pressure 4[N/cm²],right pressure 5[N/cm²],right pressure 6[N/cm²],right pressure 7[N/cm²],right pressure 8[N/cm²],right pressure 9[N/cm²],right pressure 10[N/cm²],right pressure 11[N/cm²],right pressure 12[N/cm²],right acceleration X[g],right acceleration Y[g],right acceleration Z[g],right total force[N],right center of pressure X[mm],right center of pressure Y[mm]
0.02,1.25,0.5,0.75,2.5,0.0,0.0,0.25,0.0,0.0,0.25,0.5,0.0,0.25,1.83,3.39,0.52,101.39,19.9,45.8,0.0,0.0,0.0,2.5,0.0,0.0,0.25,0.0,0.25,0.0,0.0,0.0,0.0,0.89,0.02,1.77,0.0,-17.3,48.7
0.04,0.75,0.0,0.75,2.0,0.0,0.0,0.0,1.5,0.0,0.25,0.0,0.0,0.25,1.95,4.08,0.39,98.46,10.3,23.6,1.0,0.5,1.0,2.5,1.25,1.75,0.25,0.25,0.5,1.25,1.0,0.25,0.0,0.89,-0.55,1.58,0.0,-6.9,23.4
0.06,1.25,0.0,0.75,2.0,0.0,0.0,0.25,1.75,0.0,0.5,0.0,0.0,0.25,-0.11,0.52,0.58,99.91,10.4,22.8,1.25,0.75,0.75,2.5,2.25,1.75,0.25,0.0,0.5,1.25,0.25,0.25,0.75,0.52,-0.92,1.2,0.0,-4.9,27.1
0.08,0.75,0.0,0.75,2.0,0.0,0.0,0.0,1.25,0.0,1.25,0.0,1.0,1.0,-1.23,-0.86,1.89,105.35,5.4,-15.8,1.0,0.5,1.5,2.5,2.75,1.75,0.25,0.5,0.5,1.25,0.75,0.25,0.25,0.64,-0.8,1.39,54.17,-5.9,26.7
0.1,1.0,0.0,0.75,1.0,0.0,0.0,0.0,0.0,0.0,1.0,0.75,2.25,2.0,-0.23,-0.3,0.58,117.98,7.3,-45.9,1.0,0.75,1.25,2.5,2.75,2.0,0.5,0.75,0.5,1.25,0.25,0.25,0.5,0.2,-0.23,0.7,96.56,-4.3,27.3
0.12,0.0,0.0,0.0,0.0,0.0,0.0,0.0,0.0,0.5,3.0,0.0,3.25,4.0,0.52,0.39,1.77,146.16,-6.3,-97.1,1.25,0.5,1.5,2.5,2.25,1.75,0.25,0.0,0.5,1.5,0.5,0.25,0.5,0.14,-0.23,0.39,129.75,-6.8,26.5
0.14,0.0,0.5,0.0,0.75,0.0,0.0,0.0,0.0,0.5,4.5,0.0,3.25,0.0,-0.73,0.45,2.7,157.19,-1.6,-64.7,1.0,0.75,1.75,2.5,1.75,2.0,0.5,0.5,0.5,1.25,0.75,0.25,0.5,0.33,-0.17,0.45,158.65,-6.8,24.0
0.16,0.0,0.0,0.0,0.25,0.0,0.0,0.25,4.75,0.5,5.5,3.25,3.25,5.25,-0.23,0.39,1.14,228.92,-7.1,-78.0,1.0,0.75,1.5,1.75,2.25,1.75,0.5,0.5,0.5,1.25,0.25,0.25,0.5,0.45,-0.23,0.7,182.23,-5.4,26.1
0.18,0.0,0.0,0.0,1.25,0.0,0.0,0.25,4.75,0.5,5.75,4.5,4.0,5.5,-0.05,0.08,0.95,294.65,-5.0,-73.6,1.25,0.5,1.5,2.0,2.25,1.75,0.5,0.0,0.25,1.25,0.75,0.25,0.5,0.39,-0.11,0.83,198.14,-7.0,26.5
0.2,0.75,0.0,0.0,1.0,0.0,1.0,0.25,5.0,0.5,5.75,4.5,5.0,6.0,-0.17,0.08,0.95,379.6,-4.6,-68.8,1.25,0.75,1.75,2.0,2.25,1.75,0.25,0.5,0.25,1.5,0.5,0.25,0.5,0.39,0.08,0.89,208.38,-6.1,26.1
0.22,1.0,0.0,0.0,2.0,0.0,1.25,0.5,5.5,1.25,6.25,0.0,5.0,6.0,-0.17,0.08,0.95,430.68,-5.8,-59.4,0.75,0.5,1.75,2.0,2.25,1.75,0.25,0.0,0.5,1.25,0.25,0.25,0.5,0.33,0.2,1.02,207.49,-6.3,27.3
0.24,0.25,0.0,0.0,0.0,0.0,1.25,0.5,5.5,1.5,6.5,0.0,5.25,6.0,-0.17,0.08,0.95,454.42,-8.5,-73.2,1.0,0.75,1.75,2.0,1.5,2.0,0.5,0.0,0.25,1.25,0.25,0.25,0.75,0.33,0.33,1.2,200.67,-6.8,26.8
0.26,0.25,0.25,0.0,1.0,0.0,0.5,0.5,5.5,0.75,6.5,0.0,5.5,6.25,-0.17,0.08,0.95,452.78,-7.3,-70.9,1.0,0.5,1.75,1.75,1.75,1.75,0.5,0.25,0.5,1.25,0.0,0.25,0.5,0.33,0.45,1.39,193.04,-6.8,27.4
0.28,0.0,0.0,0.25,2.5,0.0,1.25,0.5,5.75,1.25,6.5,6.0,5.5,6.25,-0.11,0.08,0.95,495.06,-3.5,-64.6,1.0,0.75,1.75,1.75,1.5,1.75,0.25,0.25,0.5,1.25,0.75,0.25,0.5,0.33,0.58,1.45,183.15,-7.1,22.2
0.3,1.25,0.5,0.5,2.5,0.5,1.25,0.5,6.0,1.5,6.5,6.5,5.25,6.25,-0.11,0.08,0.95,548.93,-1.7,-54.4,0.5,0.75,1.75,1.75,1.75,1.75,0.25,0.0,0.25,1.25,0.5,0.25,0.5,0.45,0.64,1.64,175.97,-6.1,24.6
0.32,0.25,0.75,0.0,3.0,0.25,1.75,0.5,6.0,1.5,6.5,6.5,5.0,6.0,-0.11,0.08,0.95,593.03,-3.0,-56.1,1.25,0.75,1.75,1.75,1.5,1.75,0.5,0.25,0.25,1.25,0.25,0.25,0.5,0.58,0.64,1.77,175.37,-7.7,29.0
0.34,0.75,1.0,0.25,2.5,2.0,2.25,0.75,6.0,2.0,5.75,6.5,5.0,6.0,-0.11,0.08,0.95,623.96,-2.2,-46.8,0.0,0.0,1.75,0.0,1.25,0.0,0.25,0.0,0.25,1.25,0.75,0.25,0.25,0.45,0.89,2.08,145.62,-9.5,-3.8
0.36,0.0,0.0,0.0,3.5,2.0,1.75,1.0,6.0,2.5,5.75,6.25,4.25,5.5,-0.11,0.02,0.95,620.07,-2.6,-49.6,1.0,0.75,1.25,1.5,1.5,2.0,0.25,0.0,0.5,1.25,0.5,0.25,0.5,0.2,1.27,2.27,146.23,-5.3,23.3
0.38,0.0,0.25,0.25,4.25,2.75,2.25,1.0,6.0,2.75,4.75,6.0,4.0,5.0,-0.11,0.02,0.95,604.32,-1.7,-40.4,1.25,0.5,1.5,1.5,1.25,2.0,0.5,0.0,0.5,1.25,0.25,0.25,0.5,-0.3,2.08,1.64,145.05,-6.9,25.4
0.4,0.0,0.5,1.25,4.5,3.25,2.5,1.0,5.75,2.75,4.5,5.5,3.0,4.0,-0.11,0.08,0.95,566.44,-0.5,-29.9,0.0,0.25,1.25,1.5,0.0,1.25,0.25,0.0,0.25,1.25,0.25,0.25,0.0,-0.23,2.52,0.83,132.02,-6.9,13.8
0.42,1.0,0.25,1.75,6.25,3.5,2.5,1.0,5.5,2.75,3.5,5.25,2.5,2.75,-0.11,0.08,0.95,551.39,2.3,-16.4,1.0,0.5,0.75,1.75,2.25,1.75,0.5,0.0,0.25,1.25,0.75,0.25,0.5,-2.61,4.39,0.45,140.31,-4.1,22.1
0.44,1.0,0.75,2.0,6.5,4.5,2.75,1.0,5.5,2.75,2.75,4.0,2.0,2.75,-0.11,0.08,0.95,541.42,2.4,-7.2,1.0,0.5,0.5,1.25,1.25,0.0,0.25,0.25,0.25,1.75,1.0,0.25,1.0,-0.67,1.2,0.45,136.7,-5.3,-3.6
0.46,2.0,0.5,2.0,7.75,5.5,3.25,1.0,5.5,2.5,2.75,3.5,1.75,1.5,-0.11,0.08,0.95,551.96,3.5,3.8,1.0,0.5,0.5,1.25,1.5,0.0,0.25,0.5,0.25,3.0,1.5,1.75,3.25,0.64,0.2,1.83,165.69,-0.8,-37.4
0.48,2.25,0.75,0.75,8.0,6.0,3.25,1.5,5.5,2.5,2.0,3.25,1.25,1.5,-0.11,0.08,0.95,553.62,3.0,7.9,0.75,0.5,0.75,0.75,1.0,1.75,0.25,1.0,0.25,6.25,2.25,4.0,5.75,-0.17,0.14,1.58,232.79,3.8,-56.9
0.5,2.5,1.25,2.75,9.0,6.75,3.5,1.5,5.25,2.25,1.25,3.0,1.0,1.5,-0.11,0.08,0.95,575.42,5.4,17.7,0.5,0.0,0.0,0.0,0.0,0.0,0.25,2.5,0.5,7.0,4.5,5.0,7.5,0.45,0.64,3.39,310.45,5.0,-83.9
0.52,2.5,1.0,2.75,10.0,7.0,3.75,1.75,5.0,2.0,1.25,2.5,1.0,1.5,-0.11,0.08,0.95,592.24,5.5,20.3,0.0,0.25,0.75,1.25,3.0,2.75,0.25,4.25,1.0,8.5,6.75,5.5,7.75,-0.05,0.39,1.2,451.8,4.6,-56.5
0.54,2.25,1.25,3.25,10.5,7.5,3.5,1.75,4.75,1.75,1.25,2.5,1.0,1.0,-0.11,0.08,0.95,619.4,6.3,23.9,0.5,0.0,0.75,1.25,2.5,0.0,0.25,4.5,1.0,8.5,6.5,5.5,7.75,0.08,0.08,0.95,569.34,3.2,-63.1
0.56,2.25,2.5,4.25,11.0,8.0,3.75,1.75,4.75,0.75,1.25,2.25,1.0,1.0,-0.11,0.08,0.95,656.29,6.9,29.6,1.0,0.5,0.75,2.0,2.75,3.75,0.25,5.0,1.0,8.5,6.25,5.5,7.5,0.14,0.08,0.89,681.6,4.0,-48.4
0.58,2.5,2.25,5.0,13.0,8.25,4.25,1.5,4.0,0.5,1.0,1.75,1.0,1.0,-0.11,0.08,0.95,700.06,8.0,34.7,0.75,0.25,0.75,0.75,2.75,4.25,0.25,5.5,1.0,8.5,6.25,5.5,7.5,0.14,0.08,0.95,736.68,5.2,-52.2
0.6,3.5,2.5,5.5,13.0,8.75,4.5,1.75,3.5,0.5,1.0,1.5,0.75,0.75,-0.11,0.14,0.95,748.85,9.0,39.5,0.5,0.5,1.0,2.0,3.25,4.25,0.75,5.5,1.0,8.75,6.25,5.5,7.75,0.14,0.08,0.95,780.98,4.4,-47.2
0.62,3.5,2.5,5.75,14.0,8.75,4.5,1.75,3.5,0.25,1.0,1.25,0.5,0.5,-0.11,0.14,0.95,787.17,9.4,42.6,1.0,0.5,1.0,2.0,3.75,4.25,0.75,5.75,1.0,8.75,6.5,5.5,8.0,0.14,0.08,0.95,812.66,4.0,-45.0
0.64,4.5,3.25,6.0,14.0,8.75,4.25,1.75,3.5,0.5,1.0,1.25,0.5,0.25,-0.11,0.14,1.02,827.09,10.4,45.0,1.25,0.5,1.0,2.5,4.25,4.75,0.75,6.25,1.0,8.75,6.75,5.5,7.75,0.08,0.08,0.95,848.46,3.8,-41.2
0.66,4.25,3.75,6.75,13.0,9.5,4.5,1.75,3.5,1.25,0.0,0.75,0.0,0.5,-0.17,0.14,1.08,851.83,10.6,48.4,1.25,0.25,1.75,2.75,4.25,5.25,0.75,6.25,1.25,8.75,6.25,5.25,7.5,0.14,0.08,0.95,859.11,3.4,-38.2
0.68,0.0,1.0,0.0,8.25,7.75,2.75,2.5,3.5,0.5,1.5,0.0,0.75,0.0,-0.17,0.14,1.08,700.93,1.4,29.7,1.25,0.5,1.75,2.5,4.5,5.75,0.75,6.25,1.5,8.5,6.0,5.0,7.5,0.14,0.08,0.95,858.58,3.6,-36.1
0.7,0.0,3.75,0.0,14.5,0.0,3.0,0.0,0.0,0.0,0.75,0.0,0.0,0.0,-0.17,0.2,1.08,529.87,10.3,57.5,1.25,0.75,1.75,2.75,4.75,5.5,1.0,6.25,1.5,8.25,6.25,4.75,7.0,0.14,0.08,0.95,834.67,3.0,-33.5
0.72,3.0,0.0,0.0,11.0,0.75,2.25,0.0,0.0,0.0,0.0,0.0,0.0,0.0,-0.23,0.27,1.08,358.94,14.1,61.2,1.25,0.75,2.0,2.75,4.75,5.75,1.25,6.25,1.5,8.0,6.25,4.25,6.75,0.14,0.08,0.95,801.61,2.8,-31.3
0.74,1.5,2.0,0.0,9.0,4.75,0.0,0.0,0.0,0.75,0.0,0.0,0.75,0.0,-0.23,0.27,1.27,278.81,11.8,53.8,1.25,0.75,2.25,3.25,4.75,6.0,1.25,6.25,1.75,8.0,5.75,4.25,6.25,0.14,0.08,0.95,775.29,2.5,-28.5
0.76,2.25,2.75,6.75,12.5,0.0,0.0,0.0,0.0,0.0,0.0,0.0,0.0,0.0,-0.36,0.33,1.39,261.07,24.0,66.7,1.25,0.75,3.0,4.0,4.75,6.0,1.75,6.25,1.75,7.5,5.5,3.25,6.0,0.14,0.08,0.95,752.38,1.5,-22.9
0.78,7.25,2.25,0.0,10.0,0.0,0.0,0.0,0.0,0.5,0.75,0.0,0.0,0.0,-0.55,0.45,1.7,256.15,21.1,68.3,2.0,1.0,4.5,4.0,5.75,6.0,1.75,5.5,1.75,7.0,4.75,3.0,5.5,0.14,0.08,0.95,757.26,-0.3,-13.8
0.8,6.5,1.25,2.75,7.75,0.0,0.0,0.0,2.25,0.5,0.0,0.75,0.0,0.25,-0.92,0.7,1.52,257.91,20.3,53.3,2.5,1.25,4.75,5.0,6.5,6.0,2.5,5.5,1.75,6.5,4.5,2.5,4.75,0.14,0.08,0.95,771.44,-1.6,-6.0
0.82,4.5,1.0,1.0,4.75,0.0,0.0,0.0,2.0,0.25,0.5,0.0,0.0,0.25,-0.86,0.95,2.58,219.99,17.0,49.9,2.5,1.25,5.0,5.5,6.5,6.0,2.5,5.5,1.75,6.0,3.75,1.75,4.0,0.14,0.08,0.95,779.01,-2.1,-0.3
0.84,2.25,0.75,0.75,2.5,0.0,0.0,0.0,2.0,0.0,0.5,0.75,0.0,0.25,-0.11,0.45,2.52,165.71,12.3,28.9,3.0,1.25,5.5,6.75,6.75,6.25,3.0,4.5,1.75,5.25,3.75,1.5,3.25,0.08,0.08,0.95,786.45,-4.0,7.1
0.86,0.0,0.0,0.0,0.0,0.0,0.0,0.0,1.75,0.0,0.0,0.0,0.0,0.0,-0.67,0.27,2.08,70.3,-16.7,-38.7,3.75,1.25,6.25,6.75,7.5,6.25,3.0,4.25,1.5,3.75,2.75,1.5,3.0,0.14,0.08,0.95,786.89,-5.4,15.0
0.88,0.0,0.0,0.0,2.0,0.0,0.0,0.25,0.0,0.0,0.0,0.0,0.0,0.25,-0.98,-0.48,1.64,5.83,14.7,38.9,4.25,1.5,6.5,8.25,8.0,6.25,3.5,4.25,1.75,4.0,2.5,1.5,2.25,0.08,0.08,0.95,810.62,-6.4,19.6
0.9,1.25,0.5,0.0,2.25,0.0,0.0,0.0,0.0,0.0,0.5,0.0,0.0,0.0,-0.73,-0.3,1.77,0.0,17.6,58.1,5.0,1.5,7.0,8.5,8.0,6.5,3.5,3.75,1.75,4.0,2.5,1.0,2.25,0.14,0.08,0.95,839.25,-7.2,22.9
0.92,1.5,0.5,0.0,2.75,0.0,0.0,0.0,0.0,0.0,0.5,0.75,0.0,0.25,-0.98,-1.11,0.52,12.23,16.1,37.2,5.25,1.5,7.5,9.25,8.25,6.5,4.0,3.25,1.5,3.5,2.5,1.0,2.25,0.08,0.08,0.95,875.87,-8.2,26.0
0.94,0.0,0.25,0.0,2.5,0.0,0.0,0.25,0.0,0.0,0.0,0.0,0.0,0.0,-0.86,-0.61,0.89,11.93,17.4,60.2,5.75,1.5,8.0,10.5,8.75,6.75,4.5,3.0,1.25,2.25,2.5,0.75,1.75,0.08,0.08,0.95,910.87,-9.5,32.7
0.96,1.5,0.5,0.0,2.0,0.0,0.0,0.0,0.0,0.0,0.0,0.75,0.0,0.25,-0.61,-0.3,0.64,22.34,19.1,45.3,6.0,1.75,8.5,10.5,9.25,6.75,4.75,3.0,1.25,3.25,2.0,0.5,1.5,0.08,0.08,0.95,949.41,-9.5,33.9
0.98,0.75,0.0,0.75,0.5,0.0,0.0,0.25,0.0,0.0,0.0,0.0,0.0,0.25,-0.36,-0.3,0.45,5.99,26.7,50.9,6.5,2.25,8.5,12.0,9.25,6.75,5.0,2.75,1.0,3.0,2.5,0.5,1.5,0.08,0.08,0.95,995.48,-10.2,35.8
1.0,0.0,0.0,0.0,1.75,0.0,0.0,0.0,0.0,0.0,0.0,0.0,0.0,0.0,-0.48,-0.23,0.64,0.0,17.2,57.9,7.0,2.5,9.25,12.0,9.5,6.75,5.25,1.75,1.0,2.25,1.5,1.0,1.5,0.08,0.08,0.95,1031.21,-11.5,40.1
1.02,0.25,0.5,0.0,2.0,0.0,0.0,0.0,0.0,0.0,0.5,0.0,0.0,0.0,-0.55,-0.23,0.83,3.15,12.8,47.0,7.75,2.25,9.25,14.0,11.0,6.75,5.5,1.5,1.0,1.5,1.5,0.25,1.25,0.08,0.08,0.95,1078.52,-12.1,45.6
1.04,0.0,0.5,0.25,2.5,0.0,0.0,0.25,0.75,0.0,0.25,0.0,0.0,0.0,-0.48,-0.05,0.89,24.52,10.8,38.5,7.0,1.5,10.0,12.0,11.0,6.5,5.5,1.5,0.75,1.5,1.25,0.5,1.25,0.08,0.14,0.95,1082.47,-12.1,44.3
1.06,0.5,0.0,0.25,2.25,0.0,0.0,0.25,0.0,0.25,0.25,0.0,0.0,0.25,-0.42,0.14,1.2,46.51,16.7,36.5,8.0,1.25,9.25,15.5,11.0,6.0,5.5,1.5,0.5,1.25,1.25,0.5,1.0,0.08,0.14,1.02,1101.71,-12.9,47.0
1.08,1.0,0.75,0.0,2.0,0.0,0.0,0.25,0.5,0.25,0.0,0.0,0.0,0.25,-0.23,0.2,1.27,67.14,14.9,47.7,7.75,3.0,11.0,13.5,10.5,3.75,5.25,0.0,0.5,0.5,1.5,0.25,1.0,0.08,0.14,1.08,1075.82,-16.1,52.9
1.1,0.0,0.0,0.0,0.5,0.0,0.0,0.0,0.0,0.0,0.0,0.0,0.0,0.0,-0.23,0.33,1.52,55.09,17.2,57.9,8.25,1.5,10.0,12.5,9.25,4.25,5.0,0.0,0.25,0.0,0.0,0.25,0.25,0.08,0.2,1.08,1001.65,-17.0,59.4
1.12,0.0,0.75,0.0,2.5,0.0,0.0,0.0,0.0,0.25,0.5,0.0,0.0,0.0,-0.23,0.45,1.58,54.59,12.0,43.6,8.25,1.5,9.5,12.5,8.75,4.25,3.75,0.0,0.5,1.5,0.0,0.25,0.0,0.08,0.2,1.14,921.24,-16.0,56.2
1.14,0.0,0.0,0.0,1.0,0.0,0.0,0.25,0.25,0.0,0.0,0.0,0.0,0.25,-0.3,0.52,1.83,37.64,8.4,15.5,8.25,1.5,9.0,12.0,8.0,2.75,3.0,0.0,0.5,1.5,0.0,0.25,0.5,0.08,0.27,1.14,836.24,-16.8,55.3
1.16,0.25,0.75,0.25,2.5,0.0,0.0,0.25,1.75,0.0,0.0,0.0,0.0,0.25,-0.48,0.58,1.95,58.23,7.2,28.9,8.75,2.0,9.25,12.0,8.25,1.75,2.5,0.25,0.5,1.25,1.0,0.25,0.5,0.14,0.33,1.27,787.36,-17.5,54.3
1.18,0.0,0.5,0.25,1.75,0.0,0.0,0.25,0.25,0.25,0.25,0.0,0.0,0.25,-0.48,0.77,2.52,62.15,11.5,29.4,8.5,0.75,8.5,8.75,7.0,0.0,1.75,0.25,0.25,0.0,0.25,0.0,0.0,0.33,0.45,1.45,673.27,-21.5,64.3
1.2,0.0,0.5,0.75,2.0,0.0,0.0,0.25,0.0,0.0,0.25,0.0,0.0,0.25,-0.48,1.27,2.52,70.97,17.0,43.7,6.5,0.0,5.5,5.25,2.25,0.0,1.5,0.0,0.25,0.0,0.0,0.0,0.0,0.45,0.58,1.7,489.09,-26.0,67.6
1.22,0.0,0.5,0.25,2.25,0.0,0.0,0.25,1.5,0.25,0.0,0.0,0.0,0.25,0.14,1.77,2.08,76.95,6.6,21.0,5.75,0.75,1.75,5.0,0.25,0.5,1.0,0.0,0.5,1.5,0.0,0.25,0.0,0.77,1.02,2.14,323.42,-20.7,54.0
1.24,0.0,0.5,0.75,1.0,0.0,0.0,0.25,0.0,0.0,0.75,0.0,0.0,0.25,0.52,2.33,1.58,72.87,12.3,22.2,3.75,0.5,2.25,3.75,0.5,1.25,1.25,0.0,0.5,1.25,1.25,0.25,0.25,-0.05,0.52,2.27,222.66,-17.0,36.6
1.26,0.5,0.75,0.75,2.0,0.0,0.0,0.0,0.5,0.0,0.0,0.75,0.0,0.25,1.45,3.02,0.83,78.25,15.6,33.6,2.25,0.75,2.25,2.5,1.75,1.75,1.0,0.0,0.5,1.25,0.75,0.25,0.0,0.27,0.33,1.77,150.23,-12.5,37.9
1.28,1.5,1.0,0.75,2.25,0.0,0.0,0.0,1.75,0.0,0.25,0.75,0.0,0.25,2.08,4.77,0.33,99.53,12.0,29.6,0.75,0.5,0.75,2.5,0.0,1.75,0.25,0.0,0.5,1.25,0.0,0.25,0.0,0.77,0.27,1.89,82.74,-7.2,28.3
1.3,1.25,0.75,0.75,2.5,0.0,0.0,0.0,1.5,0.0,0.25,0.75,0.0,0.25,3.02,3.39,1.52,119.88,12.4,28.4,0.0,0.0,2.25,0.25,1.0,0.0,0.5,0.0,0.25,0.0,0.0,0.0,0.25,0.7,-0.55,1.58,17.95,-21.5,41.7
1.32,0.25,0.75,0.75,1.25,0.0,0.0,0.0,0.75,0.25,0.5,0.5,0.75,0.25,-0.55,0.2,1.02,121.75,10.0,-0.1,1.25,0.5,1.75,2.5,0.0,1.5,0.25,0.0,0.5,1.25,0.0,0.25,0.0,0.39,-0.8,0.14,0.52,-12.6,35.0
1.34,0.75,0.0,0.75,1.75,0.0,0.0,0.0,0.0,0.25,1.0,0.0,1.0,1.25,-1.17,-0.36,1.45,121.99,9.3,-16.6,1.0,0.25,2.25,2.5,1.5,0.0,0.5,0.0,0.5,1.25,0.0,0.25,0.0,0.7,-0.8,1.2,7.44,-15.8,36.5
1.36,0.0,0.0,0.0,0.0,0.0,0.0,0.0,1.75,0.5,2.75,0.0,3.0,3.0,-0.11,0.08,0.95,141.66,-7.4,-86.9,1.25,0.5,2.25,2.5,1.75,1.25,1.0,0.0,0.5,1.25,0.75,0.25,0.0,0.27,-0.23,0.58,48.71,-12.2,32.5
1.38,0.75,0.75,0.75,3.5,0.0,0.0,0.0,3.25,0.0,0.0,0.0,0.0,5.25,0.33,0.45,3.27,171.25,-0.1,-21.6,1.25,0.5,2.25,2.5,1.5,0.0,0.75,0.5,0.5,1.25,0.25,0.25,0.0,0.14,-0.36,0.27,84.03,-14.8,33.4
1.4,0.0,0.0,0.0,0.0,0.0,0.0,0.25,4.75,0.0,6.25,3.5,4.75,0.0,-0.3,0.39,1.02,225.59,-4.9,-74.2,1.25,0.5,2.75,2.25,1.5,0.0,0.75,0.75,0.25,1.25,0.25,0.25,0.25,0.33,-0.36,0.58,119.16,-14.5,30.9
1.42,2.0,0.0,0.0,2.5,0.0,0.25,0.25,5.0,0.5,5.5,4.0,4.25,6.0,-0.05,0.14,1.02,305.68,-2.0,-57.0,1.25,0.75,2.25,2.5,1.75,1.0,0.75,0.0,0.5,1.25,0.25,0.25,0.5,0.39,-0.42,0.83,152.28,-11.7,32.3
1.44,1.75,0.5,0.0,2.5,0.0,0.0,0.5,5.0,0.25,5.75,4.75,4.0,6.0,-0.17,0.08,0.95,386.3,-1.7,-56.2,1.25,0.5,2.25,1.75,1.25,0.5,0.75,0.25,0.25,1.25,0.5,0.25,0.5,0.33,-0.36,0.95,168.78,-12.8,25.3
1.46,0.5,0.0,0.0,1.25,0.0,0.0,0.5,5.25,0.0,5.75,4.25,4.25,6.0,-0.17,0.08,0.95,439.55,-4.8,-71.3,1.25,0.5,2.25,2.0,1.5,1.5,0.75,0.0,0.5,1.25,0.25,0.25,0.0,0.33,-0.11,0.89,176.98,-11.5,35.4
1.48,0.0,0.0,0.0,0.0,0.0,1.25,0.5,4.75,0.5,6.0,5.5,4.25,6.0,-0.17,0.08,0.95,470.78,-6.2,-75.9,1.25,0.5,2.25,2.0,1.75,1.5,0.75,0.0,0.5,1.25,0.5,0.25,0.75,0.27,0.08,1.14,186.14,-9.7,25.2
1.5,0.25,0.75,0.0,0.0,0.0,1.0,0.5,5.25,0.5,6.5,5.75,5.0,6.0,-0.17,0.08,0.95,492.74,-5.1,-71.2,1.0,0.5,2.25,1.75,2.75,1.75,0.75,0.5,0.5,1.25,0.0,0.25,0.5,0.08,0.14,1.33,200.23,-6.9,29.6
1.52,0.5,0.5,0.0,2.0,0.0,1.25,0.5,5.5,1.0,6.5,5.75,5.0,6.25,-0.17,0.08,0.95,521.41,-3.6,-62.4,1.25,0.75,2.0,1.5,1.5,1.75,0.75,0.0,0.25,1.25,0.25,0.25,0.5,0.02,0.27,1.45,202.55,-8.9,30.4
1.54,0.0,0.75,0.0,2.5,0.0,2.0,0.5,5.5,0.5,6.5,6.5,5.0,6.0,-0.17,0.08,0.95,553.89,-3.9,-59.9,1.25,0.75,2.0,1.75,1.0,1.75,0.75,0.25,0.25,1.25,0.75,0.25,0.5,0.08,0.39,1.52,200.22,-9.2,24.3
1.56,0.0,0.75,0.0,2.75,0.0,1.75,0.5,5.5,1.75,6.5,6.5,5.0,6.0,-0.17,0.08,0.95,583.33,-3.1,-58.9,1.25,0.5,2.25,1.5,1.25,1.75,0.75,0.0,0.25,1.25,0.5,0.25,0.5,0.27,0.33,1.64,189.05,-9.8,26.9
1.58,0.0,0.75,0.75,2.75,0.75,1.5,0.75,5.75,1.5,6.5,6.5,5.0,6.0,-0.17,0.08,0.95,597.89,-2.2,-54.2,1.0,0.5,2.0,1.5,1.25,1.75,0.75,0.0,0.25,1.25,0.25,0.25,0.5,0.39,0.45,1.83,179.92,-8.6,26.8
1.6,1.25,0.75,0.0,3.0,1.5,0.75,0.75,5.75,2.5,5.75,6.5,4.75,6.0,-0.11,0.08,0.95,600.18,-0.9,-49.3,1.25,0.5,2.0,1.5,0.25,1.75,0.5,0.0,0.25,1.25,0.25,0.25,0.5,0.45,0.64,1.89,167.13,-10.3,25.4
1.62,2.0,0.5,0.0,3.0,1.5,1.25,1.0,5.5,2.75,6.0,6.5,4.5,6.0,-0.11,0.08,0.95,601.75,-0.5,-46.2,1.25,0.0,1.75,0.0,2.5,0.5,0.75,0.25,0.5,1.5,0.0,0.25,0.0,0.33,0.89,1.95,155.84,-8.8,25.6
1.64,1.5,0.0,0.75,3.5,1.75,1.75,1.0,5.5,2.75,5.25,6.5,4.0,5.25,-0.11,0.08,0.95,587.14,0.0,-42.0,0.0,0.0,2.0,0.0,0.0,0.25,0.5,0.0,0.0,0.0,0.25,0.0,0.0,-0.05,1.08,1.58,112.85,-30.1,43.9
1.66,2.0,0.0,1.0,2.75,1.75,2.0,1.0,5.5,2.75,5.25,6.5,4.0,5.25,-0.11,0.08,0.95,574.12,0.1,-41.2,0.0,0.0,0.5,0.0,0.0,0.5,0.25,0.0,0.25,0.0,0.0,0.0,0.0,0.08,1.64,1.64,65.6,-11.6,30.4
1.68,2.0,0.75,2.25,3.5,2.0,2.0,1.0,5.5,2.75,4.75,6.25,4.0,5.0,-0.11,0.08,0.95,574.0,2.1,-31.8,1.25,0.5,2.25,0.5,1.25,1.75,0.5,0.0,0.25,1.5,0.25,0.25,0.5,0.08,2.33,0.7,76.37,-8.2,23.7
1.7,2.25,1.0,2.5,4.25,2.5,2.0,1.25,5.25,3.0,4.5,6.0,3.75,4.0,-0.11,0.08,0.95,576.23,3.4,-23.8,0.75,0.0,2.0,0.25,1.25,1.75,0.75,0.0,0.25,0.25,0.25,0.25,0.5,-1.17,3.27,0.27,84.89,-9.2,27.8
1.72,2.25,1.0,2.5,4.25,2.25,2.0,1.5,5.25,3.25,4.5,5.75,3.75,4.0,-0.11,0.08,0.95,573.55,3.6,-24.0,1.25,0.5,1.75,1.25,1.0,1.75,0.75,0.0,0.0,0.0,0.25,0.0,0.75,-2.55,4.52,1.33,109.51,-11.2,41.8
1.74,2.25,1.0,2.5,4.25,3.0,2.0,1.5,5.0,3.25,4.25,5.75,3.25,4.0,-0.11,0.08,0.95,570.04,3.6,-21.0,1.25,0.5,1.75,1.25,1.0,1.75,0.5,0.0,0.25,1.5,0.0,0.25,0.5,-0.8,3.02,-0.3,129.5,-7.6,25.9
1.76,2.25,1.0,2.75,4.5,3.0,2.0,1.75,4.75,3.25,4.25,5.5,3.25,4.0,-0.11,0.08,0.95,567.84,4.0,-19.4,1.25,0.5,1.5,1.5,1.0,1.5,0.5,0.0,0.25,2.75,1.0,2.0,4.0,0.45,0.2,1.27,175.09,-2.0,-27.9
1.78,2.25,1.0,2.75,5.25,3.25,2.0,1.75,4.75,3.25,4.0,5.5,3.0,3.5,-0.11,0.08,0.95,568.43,4.5,-15.4,1.25,0.0,2.0,1.25,0.25,2.75,0.5,1.0,0.5,6.5,2.5,2.5,5.5,0.14,0.77,0.95,244.54,2.0,-45.7
1.8,2.25,1.0,3.0,6.0,3.25,2.0,2.0,4.75,3.5,3.0,5.5,3.0,2.75,-0.11,0.08,0.95,569.26,6.0,-10.4,1.25,0.0,2.0,2.0,1.75,4.25,0.0,4.0,1.25,8.75,6.0,5.5,6.25,0.7,-0.23,0.7,380.46,2.5,-46.5
1.82,2.25,1.0,3.25,7.0,4.25,2.0,2.25,4.75,3.75,3.0,5.5,2.75,2.75,-0.11,0.08,0.95,587.96,6.3,-6.2,1.25,0.5,2.0,2.5,4.25,4.25,0.75,5.5,1.0,8.75,7.5,5.5,7.5,0.02,0.14,1.2,580.28,2.3,-40.0
1.84,2.25,1.0,4.25,7.75,4.75,1.75,2.25,4.75,3.5,2.75,5.25,2.0,2.5,-0.11,0.08,0.95,610.66,7.4,0.3,1.25,0.5,2.0,2.25,4.25,4.25,0.75,5.25,1.0,8.5,6.25,4.5,7.5,0.14,0.08,0.95,735.79,2.8,-38.1
1.86,2.5,1.0,4.5,8.0,4.75,2.0,2.5,4.75,3.5,1.75,4.75,2.0,1.5,-0.11,0.08,0.95,625.52,8.7,7.0,1.25,0.5,2.0,2.25,4.25,4.25,1.0,5.5,1.0,8.5,5.5,4.25,7.25,0.14,0.08,0.95,819.03,3.0,-36.6
1.88,2.75,1.0,5.5,9.0,5.5,2.25,3.0,4.5,3.5,1.25,4.0,1.25,1.5,-0.11,0.08,0.95,646.41,9.8,15.6,1.25,0.5,1.75,1.75,4.25,4.25,0.75,5.5,1.0,8.25,5.75,4.0,7.25,0.14,0.08,0.95,836.88,3.5,-37.9
1.9,3.0,1.25,5.75,9.25,5.75,2.25,3.25,4.0,3.25,1.25,3.75,1.25,1.5,-0.11,0.08,0.95,663.2,10.4,18.7,1.25,0.5,2.0,2.0,4.25,4.5,0.75,5.25,1.0,8.25,4.5,4.25,7.0,0.14,0.08,0.89,812.22,3.4,-35.4
1.92,3.75,1.25,6.75,10.5,6.25,2.25,3.75,3.5,2.75,1.25,3.25,1.25,1.25,-0.11,0.08,0.95,693.53,11.9,25.2,1.25,0.5,2.25,2.5,4.25,5.25,0.75,5.5,1.0,8.5,5.0,4.0,6.5,0.08,0.08,0.95,788.26,3.2,-32.3
1.94,4.25,1.5,7.5,11.5,7.0,2.0,4.25,3.5,2.0,1.25,2.25,0.75,1.0,-0.11,0.08,0.95,728.73,12.8,33.3,1.25,0.5,2.0,2.5,4.5,5.5,0.75,6.0,1.0,8.25,5.25,3.25,6.25,0.08,0.08,0.95,776.37,3.7,-30.3
1.96,5.25,2.0,7.75,12.5,7.0,2.0,4.75,3.5,1.5,1.0,0.0,0.75,0.75,-0.11,0.08,1.02,762.72,14.0,42.9,1.25,0.5,2.25,2.5,4.75,6.0,0.75,6.25,1.0,8.0,5.0,3.0,6.25,0.14,0.08,0.95,758.21,3.8,-27.9
1.98,5.5,1.5,8.0,13.0,7.5,2.0,5.0,3.25,0.0,1.0,0.0,0.75,0.75,-0.11,0.14,1.02,780.57,14.3,45.9,1.5,0.75,2.25,2.5,4.75,6.0,1.0,6.25,1.0,8.0,4.5,3.0,6.25,0.14,0.08,0.95,732.61,3.6,-25.9
2.0,5.5,2.5,8.75,14.0,7.75,1.5,4.75,3.0,0.5,1.0,0.0,0.5,0.5,-0.17,0.14,1.27,806.33,15.3,48.9,2.5,1.0,2.75,3.75,5.75,6.0,1.25,6.0,1.5,7.75,4.5,3.0,5.75,0.14,0.08,0.95,731.99,1.4,-17.1
2.02,7.0,1.5,9.0,13.5,7.0,1.5,4.5,1.75,0.75,1.25,0.5,0.0,0.75,-0.17,0.14,1.27,813.12,16.8,49.9,2.75,1.0,3.5,4.0,6.25,6.25,1.25,6.25,1.75,7.25,4.5,2.5,5.5,0.14,0.08,0.95,740.41,0.6,-12.4
2.04,7.25,1.25,7.0,0.5,0.0,0.0,1.75,0.0,0.0,0.0,0.0,0.5,0.0,-0.17,0.2,1.33,599.95,33.2,71.7,3.75,1.25,4.75,5.0,6.75,6.5,1.5,5.5,1.75,6.75,4.0,1.5,5.0,0.08,0.08,0.95,767.83,-1.4,-1.7
2.06,7.25,1.5,4.5,10.5,0.0,0.0,4.25,0.0,1.75,0.0,0.0,0.0,0.0,-0.3,0.27,1.7,479.54,25.6,62.2,4.5,1.25,4.75,5.0,6.5,6.75,1.75,5.5,1.75,6.25,3.75,1.5,4.0,0.14,0.08,0.95,796.12,-2.3,2.6
2.08,0.0,0.0,7.75,7.0,0.0,0.0,0.0,0.0,0.0,0.0,0.0,0.0,0.0,-0.73,0.45,1.77,318.49,28.1,59.5,5.0,1.25,5.0,5.75,7.0,6.75,2.5,5.5,1.5,5.5,2.75,1.0,3.25,0.14,0.08,0.95,821.31,-3.3,10.8
2.1,5.5,1.0,6.0,3.5,0.0,0.0,0.75,0.0,0.0,0.75,0.75,0.5,0.25,-0.98,0.64,1.64,262.13,26.9,54.2,5.75,1.5,5.5,6.75,7.75,6.75,2.5,4.5,1.0,4.25,2.0,1.0,2.5,0.14,0.08,0.95,828.53,-5.3,21.2
2.12,2.25,0.75,4.25,1.5,0.0,0.0,0.5,0.0,0.0,0.5,1.0,0.25,0.25,-0.67,0.7,2.2,178.63,25.9,43.5,6.25,1.5,6.0,7.0,8.25,6.75,2.75,4.25,1.0,3.5,2.25,0.75,2.25,0.08,0.08,0.95,838.2,-6.4,25.3
2.14,0.0,0.5,2.0,1.25,0.0,0.0,0.5,0.0,0.0,0.5,0.75,0.75,0.25,-0.8,0.64,2.2,110.11,18.6,8.8,6.5,1.5,6.25,8.5,8.25,6.75,3.0,3.75,1.0,3.0,2.0,0.75,2.0,0.08,0.08,0.95,851.67,-7.6,29.5
2.16,1.5,0.0,1.75,2.5,0.0,0.0,0.5,0.0,1.75,0.25,0.75,0.75,0.25,-0.73,-0.11,1.89,52.92,20.3,15.8,7.0,1.5,6.5,8.75,8.25,6.75,3.0,3.0,1.0,3.0,2.0,0.25,1.5,0.08,0.08,0.95,859.02,-8.6,34.1
2.18,0.0,0.5,1.75,1.5,0.0,0.0,0.25,0.0,0.25,0.25,0.0,0.25,0.25,-1.55,-0.98,1.64,0.91,20.7,34.1,7.5,1.5,7.0,8.75,8.5,6.75,3.5,3.0,1.0,2.75,2.0,0.25,1.5,0.08,0.14,0.95,873.24,-9.2,35.5
2.2,0.0,0.75,1.0,2.5,0.0,0.0,0.5,0.0,0.5,0.5,0.0,0.0,0.25,-1.23,-1.05,1.02,0.0,16.3,35.9,7.75,1.5,7.5,10.5,9.0,6.75,3.5,2.25,0.75,2.75,0.75,0.25,1.25,0.08,0.14,0.95,888.38,-10.2,41.5
2.22,0.0,0.0,0.0,0.0,0.0,0.0,3.75,0.0,0.25,0.0,0.0,0.0,0.0,-0.98,-0.8,0.58,0.0,29.9,19.4,8.0,1.5,7.5,10.5,9.25,6.75,3.75,1.75,0.5,2.75,1.25,0.25,1.25,0.08,0.14,0.95,902.13,-10.5,41.8
2.24,0.0,0.0,0.0,0.0,0.0,0.0,5.25,0.0,0.0,0.0,0.0,0.0,0.0,-0.73,-0.23,0.45,0.0,32.4,27.4,8.25,1.75,8.0,10.5,9.25,6.75,4.0,1.5,0.5,2.75,2.0,0.25,1.25,0.08,0.14,0.95,920.2,-11.0,41.3
2.26,0.0,0.0,0.0,1.75,0.0,0.0,0.0,0.0,2.25,1.5,0.0,0.25,0.0,-0.48,-0.36,0.39,0.0,6.4,-20.7,8.25,1.75,8.25,10.5,9.25,6.75,4.25,1.5,0.5,2.75,1.0,0.25,1.25,0.08,0.14,0.95,933.32,-11.2,43.4
2.28,0.0,0.0,1.5,0.0,0.0,0.0,2.75,0.0,0.0,0.0,1.5,0.0,0.0,-0.55,-0.42,0.64,11.74,27.2,4.7,8.5,1.5,8.5,10.5,9.25,6.75,4.5,1.5,0.5,2.5,1.75,0.25,1.25,0.08,0.14,0.95,947.43,-11.6,42.4
2.3,0.0,0.0,0.0,0.0,0.0,0.0,0.75,0.0,3.25,0.5,0.0,0.0,0.0,-0.48,-0.36,0.77,17.41,10.5,-37.3,8.5,1.5,8.5,11.0,9.25,6.75,4.5,1.5,0.5,2.0,0.75,0.25,0.75,0.08,0.14,0.95,947.48,-12.2,47.2
2.32,1.5,0.75,0.0,3.0,0.0,0.0,1.75,0.0,2.75,1.25,0.0,0.25,0.0,-0.48,-0.11,0.83,70.51,15.0,18.5,8.5,1.5,8.25,11.0,9.25,6.75,4.5,1.75,0.5,1.5,0.25,0.25,1.25,0.08,0.14,0.95,941.21,-11.9,47.5
2.34,0.75,0.5,1.0,2.25,0.0,0.0,0.25,0.0,0.25,0.25,0.75,0.0,0.25,-0.42,0.08,0.95,86.52,19.0,33.9,8.5,1.5,8.75,10.5,9.25,6.5,4.75,1.5,0.5,1.5,0.25,0.25,1.0,0.08,0.14,0.95,926.2,-12.6,48.7
2.36,0.5,0.5,0.75,2.5,0.0,0.0,0.25,0.0,2.75,0.25,0.75,0.5,0.25,-0.42,0.27,1.27,117.27,15.5,4.1,8.25,1.5,8.5,10.5,9.25,6.5,4.75,1.75,0.5,1.75,0.75,0.25,1.25,0.08,0.14,0.95,917.42,-12.0,45.6
2.38,0.5,0.5,1.0,2.0,0.0,0.0,0.25,0.0,0.0,0.25,0.25,0.0,0.25,-0.3,0.39,1.33,112.13,19.5,43.9,8.25,1.5,8.25,10.5,9.0,6.25,4.5,0.75,0.5,1.5,1.25,0.25,1.0,0.08,0.14,0.89,897.42,-12.8,47.4
2.4,0.5,0.5,1.25,1.25,0.0,0.0,0.25,0.0,0.0,0.25,0.5,0.0,0.25,-0.3,0.52,1.45,103.46,20.5,36.3,8.5,1.5,8.0,10.5,9.25,6.25,4.5,1.5,0.5,1.5,1.0,0.25,1.0,0.08,0.14,0.95,888.18,-12.3,46.9
2.42,0.25,0.5,1.0,1.0,0.0,0.0,0.25,0.0,0.0,0.25,0.75,0.0,0.25,-0.48,0.52,1.64,88.1,18.2,23.6,8.0,1.0,7.5,10.5,9.25,6.25,4.25,1.5,0.25,1.5,0.25,0.0,0.25,0.08,0.14,1.02,853.31,-12.2,51.2
2.44,0.5,0.5,1.0,0.5,0.0,0.0,0.25,0.0,0.0,0.25,0.75,0.0,0.25,-0.67,0.64,1.77,77.41,19.4,23.4,8.0,1.5,6.75,10.5,8.25,5.75,2.5,0.0,0.25,1.25,0.0,0.25,0.25,0.14,0.14,1.33,795.79,-13.3,55.6
2.46,0.75,0.5,0.75,0.0,0.0,0.0,0.25,0.0,0.0,0.25,0.75,0.25,0.25,-0.67,0.77,1.95,68.38,18.6,11.3,8.0,1.5,6.5,8.75,8.5,4.5,2.0,0.5,0.25,1.25,1.25,0.25,0.5,0.08,0.14,1.39,733.16,-13.1,50.6
2.48,0.25,0.75,1.0,0.5,0.0,0.0,0.25,0.0,0.0,0.25,0.75,0.0,0.0,-0.48,2.08,1.95,60.49,20.2,33.3,7.5,1.0,5.0,8.25,8.0,4.0,1.25,0.0,0.5,1.25,0.5,0.25,0.5,0.2,0.33,1.33,649.83,-12.8,52.2
2.5,0.25,0.5,1.25,0.0,0.0,0.0,0.25,0.0,0.0,0.25,0.75,0.0,0.0,0.33,0.89,0.64,51.77,22.9,26.1,7.0,1.25,2.25,5.5,6.0,1.75,1.25,0.0,0.25,1.5,0.75,0.25,0.5,0.2,0.27,1.39,523.76,-13.1,50.2
2.52,0.75,0.5,1.0,0.5,0.0,0.0,0.25,0.0,0.0,0.25,0.75,0.25,0.0,0.02,1.14,1.58,52.56,21.7,27.9,6.25,0.75,1.5,5.0,4.5,1.5,1.0,0.25,0.25,1.25,0.5,0.25,0.5,0.27,0.27,1.08,397.65,-13.1,49.0
2.54,0.25,0.5,1.0,0.5,0.0,0.0,0.25,0.0,0.25,0.25,0.5,0.0,0.0,0.52,1.2,1.45,48.83,20.9,30.9,5.25,0.75,2.0,4.0,4.5,1.25,1.0,0.0,0.25,1.25,0.25,0.25,0.5,-0.11,0.52,1.52,309.63,-13.3,49.3
2.56,0.25,0.25,1.0,0.5,0.0,0.0,0.25,0.0,0.0,0.25,0.75,0.0,0.25,0.95,1.89,0.89,45.55,18.8,12.5,4.5,0.75,1.75,2.75,3.25,1.75,0.75,0.25,0.25,1.25,0.75,0.25,0.25,-0.11,0.39,0.89,249.77,-12.0,43.8
2.58,0.25,0.5,0.75,0.75,0.0,0.0,0.25,0.0,0.0,0.25,0.75,0.0,0.25,1.45,2.83,0.64,49.57,16.9,18.5,1.75,0.0,0.5,1.0,0.25,0.0,0.75,0.0,0.0,0.0,0.0,0.0,0.0,0.02,0.45,0.52,142.16,-27.4,72.1
2.6,0.5,0.5,1.0,0.5,0.0,0.0,0.25,0.0,0.0,0.5,0.75,0.0,0.25,1.89,3.08,0.27,53.9,17.2,17.4,1.25,0.0,0.5,0.25,0.0,0.0,0.75,0.0,0.0,0.0,0.0,0.0,0.0,0.02,0.45,0.27,37.69,-33.3,74.1
2.62,0.25,0.75,0.75,0.25,0.0,0.0,0.25,0.0,0.0,1.25,0.75,1.0,0.25,0.64,2.58,0.27,65.86,9.1,-22.5,2.0,0.0,0.75,1.0,0.0,2.0,0.5,0.0,0.0,0.0,0.0,0.0,0.0,0.02,0.52,0.27,0.0,-13.3,62.1
2.64,0.25,0.0,0.75,0.0,0.0,0.0,0.25,0.0,0.0,1.25,1.75,3.25,3.5,-0.11,0.02,2.02,109.57,1.8,-82.5,1.75,0.75,2.25,2.5,1.75,1.75,0.5,0.0,0.25,1.25,0.75,0.25,0.5,-0.11,0.64,0.39,0.0,-10.5,32.1
2.66,0.0,0.0,0.25,1.25,0.0,0.0,0.0,0.0,0.5,5.75,4.0,4.0,5.75,-0.3,0.27,1.2,200.08,-2.5,-80.7,1.0,0.0,2.5,0.25,1.75,0.25,0.75,0.25,0.0,0.0,0.25,0.25,0.0,-0.17,0.77,0.52,11.94,-19.0,46.9
2.68,0.25,0.0,0.75,0.0,0.0,0.0,0.0,4.75,0.0,6.25,5.5,4.25,5.75,-0.11,0.7,2.45,292.33,-4.5,-76.5,1.75,0.75,0.5,2.5,1.0,2.0,0.0,0.0,0.25,1.25,0.0,0.25,0.5,-0.17,0.77,0.52,58.84,-5.8,33.0
2.7,1.5,0.5,0.0,2.5,0.0,0.5,0.25,4.75,1.25,5.25,5.5,3.0,5.25,-0.05,0.14,1.08,380.79,-1.4,-52.9,0.75,0.0,0.5,0.25,0.0,0.5,0.25,0.0,0.0,0.0,0.0,0.0,0.0,-0.11,0.77,0.45,34.68,-20.2,65.0
2.72,0.5,0.5,0.0,2.5,0.0,0.75,0.5,4.5,0.75,4.5,0.0,2.0,3.25,-0.17,-0.05,0.95,387.07,-5.3,-43.3,0.25,0.0,0.25,0.0,1.0,0.0,0.0,0.0,0.0,0.0,0.0,0.0,0.0,-0.05,0.77,0.39,15.34,-8.6,60.9
2.74,0.5,0.5,0.0,3.5,0.0,1.25,0.5,4.5,1.75,2.75,4.0,1.0,1.75,-0.11,0.14,0.95,372.92,-0.2,-31.8,0.5,0.0,0.5,0.5,0.0,1.75,0.0,0.0,0.25,0.0,0.0,0.25,0.0,0.02,0.77,0.33,3.42,-3.4,34.7
2.76,2.25,0.75,1.0,4.5,3.0,1.75,1.0,4.5,2.0,2.5,3.0,1.0,1.5,-0.11,0.08,0.95,376.48,3.4,-2.2,0.0,0.0,0.5,0.0,0.0,0.25,0.25,0.0,0.0,0.0,0.0,0.0,0.0,0.08,0.77,0.27,0.0,-20.9,49.0
2.78,3.5,1.0,2.25,5.25,3.0,2.0,1.0,3.5,2.0,1.75,3.25,1.0,1.5,-0.17,0.08,0.95,406.75,7.4,9.2,1.25,0.5,0.5,2.25,1.25,1.75,0.25,0.0,0.25,1.25,0.0,0.25,1.0,1.08,1.02,-1.23,47.49,-3.8,21.4
2.8,5.25,1.0,1.0,6.25,3.0,1.75,1.5,3.5,2.25,1.25,3.0,1.0,1.0,-0.11,0.08,0.95,448.58,9.1,16.9,0.0,0.0,2.0,0.0,1.0,0.0,0.0,0.0,0.25,0.0,0.0,0.0,0.0,2.08,1.45,-1.67,61.05,-22.5,51.4
2.82,6.0,1.25,1.75,6.5,3.25,1.25,1.5,3.5,2.25,1.25,2.75,1.0,0.75,-0.11,0.08,0.95,487.71,10.9,22.4,0.0,0.0,0.75,0.0,0.25,0.0,0.25,0.0,0.0,0.0,0.0,0.0,0.0,0.77,1.7,0.64,65.09,-27.5,55.7
2.84,6.5,1.25,3.0,7.25,3.0,1.25,1.5,2.5,2.0,1.25,0.0,1.0,0.25,-0.11,0.02,0.95,494.95,14.1,39.1,1.25,0.5,0.75,2.0,0.25,1.25,1.0,0.0,0.25,1.25,0.5,0.25,1.0,0.33,0.95,0.77,81.2,-7.9,12.4
2.86,7.0,1.25,3.75,7.5,0.0,0.75,2.0,3.0,1.5,1.0,1.5,0.5,0.25,-0.05,0.02,0.95,473.34,17.6,36.9,1.25,0.5,2.25,1.5,1.0,0.75,0.75,0.0,0.25,1.25,0.5,0.25,0.5,0.33,0.89,0.64,107.68,-13.1,25.5
2.88,7.25,1.25,4.5,7.5,0.0,0.0,2.0,2.25,1.5,1.0,0.75,0.75,0.25,-0.11,0.14,0.95,441.02,20.4,41.8,1.25,0.5,1.75,0.75,0.5,1.75,0.75,0.5,0.25,1.5,0.25,0.25,0.5,0.27,0.77,0.33,133.11,-6.9,17.1
2.9,7.25,1.25,4.75,7.0,0.0,0.0,2.25,1.75,1.5,1.0,1.5,0.75,0.25,-0.17,0.14,0.89,415.72,21.1,40.0,1.25,0.25,2.0,0.25,0.5,0.75,1.0,0.0,0.25,0.0,0.0,0.25,0.75,0.08,0.7,0.08,142.55,-17.6,33.5
2.92,7.25,1.25,5.25,7.0,0.0,0.0,2.75,1.75,2.0,1.25,2.0,0.5,0.25,-0.11,0.08,0.95,413.42,21.0,37.3,1.25,0.5,1.0,1.5,0.25,1.5,0.0,0.0,0.25,1.25,0.0,0.25,0.25,0.02,0.95,0.02,145.87,-7.8,27.9
2.94,7.5,1.0,6.0,7.0,0.0,0.0,3.0,1.25,1.5,1.0,1.75,0.5,0.25,-0.11,0.08,1.02,418.88,22.9,42.4,1.25,0.5,2.0,1.5,0.5,0.5,0.75,0.0,0.25,1.5,0.25,0.0,0.5,0.02,1.2,-0.3,148.98,-13.7,26.1
2.96,7.75,1.25,5.75,6.5,0.0,0.0,3.25,1.75,1.25,0.5,1.75,0.25,0.25,-0.11,0.08,1.02,424.12,23.1,45.5,0.0,0.0,0.5,0.0,0.0,0.0,0.25,0.0,0.0,0.0,0.0,0.0,0.0,0.02,1.52,-0.61,107.25,-37.1,54.6
2.98,7.0,1.0,0.0,6.5,0.0,0.0,3.5,1.75,1.25,0.25,1.25,0.0,0.25,-0.05,0.08,0.95,372.87,19.4,44.7,1.25,0.5,2.0,0.75,1.0,1.5,0.75,0.0,0.5,1.25,0.25,0.25,0.75,-0.36,1.58,-0.86,119.29,-9.1,20.3
3.0,7.25,1.0,0.0,6.25,0.0,0.0,3.75,1.75,0.5,0.25,0.0,0.0,0.5,-0.05,0.14,0.89,321.08,20.1,53.8,0.0,0.0,1.75,0.0,0.5,0.0,0.75,0.0,0.0,0.0,0.25,0.0,0.5,0.14,1.02,-0.23,93.95,-21.2,21.7
3.02,7.0,1.0,0.0,5.0,0.0,0.0,3.75,1.75,0.0,0.5,0.75,0.0,0.5,0.02,0.14,0.83,278.46,19.5,48.4,0.0,0.0,0.5,0.0,0.0,0.0,0.25,0.0,0.0,0.0,0.75,0.0,0.5,0.52,0.89,-1.11,70.44,-13.0,-40.9
3.04,7.25,1.0,0.0,4.5,0.0,0.0,4.25,1.5,1.25,0.25,1.5,0.0,0.25,-0.17,0.14,1.14,259.44,20.5,43.1,0.0,0.0,0.5,0.0,0.0,0.0,0.25,0.0,0.0,0.0,0.0,0.25,0.0,0.45,1.39,-1.17,39.23,-29.2,8.3
3.06,7.0,1.0,0.0,3.5,0.0,0.0,4.75,0.0,0.75,0.25,1.0,0.0,0.25,-0.11,0.08,1.2,236.64,24.8,55.1,0.0,0.0,2.0,0.0,1.25,0.0,0.75,0.0,0.0,0.0,0.25,0.0,0.0,-0.98,-0.55,-0.36,36.58,-21.5,47.3
3.08,7.25,0.5,8.75,2.5,0.0,0.0,4.25,0.25,0.5,0.25,1.25,0.0,0.5,0.14,0.14,1.08,259.88,29.7,53.8,1.25,0.5,0.5,0.5,0.0,2.0,0.25,0.0,0.25,0.25,0.0,0.25,0.25,-1.05,-1.55,0.39,39.05,-6.0,36.7
3.1,6.75,0.5,0.0,2.5,0.0,0.0,4.25,0.5,1.25,0.25,0.75,0.0,0.25,0.02,0.14,1.02,241.64,23.9,48.9,0.0,0.0,2.25,0.0,0.5,0.5,0.75,0.0,0.0,0.0,0.0,0.0,0.0,-0.92,-1.36,0.64,49.1,-23.5,53.1
3.12,7.0,0.5,0.0,3.0,0.0,0.0,3.75,0.0,1.0,0.0,1.0,0.0,0.25,0.02,0.14,0.95,227.84,25.8,55.1,0.0,0.0,0.5,0.0,0.0,2.0,0.25,0.0,0.25,1.25,0.0,0.25,0.0,-0.42,-1.48,0.27,58.95,7.9,-7.5
3.14,2.0,0.0,0.0,2.25,0.0,0.0,3.25,0.0,1.0,0.25,0.75,0.0,0.25,0.33,0.02,1.08,173.12,21.0,27.7,1.25,0.5,2.25,0.5,1.0,1.75,0.75,0.0,0.25,1.25,0.75,0.25,0.75,-7.61,7.7,-1.48,97.28,-8.9,17.7
3.16,7.0,0.0,7.25,3.25,0.0,0.0,2.5,0.0,0.75,0.0,1.0,0.0,0.25,0.89,-0.3,1.08,197.91,30.5,58.1,1.25,0.5,2.0,0.5,0.5,1.75,0.5,0.0,0.25,1.25,0.25,0.25,0.5,-1.48,0.27,-1.92,120.66,-9.1,22.6
3.18,0.0,0.0,0.0,2.75,0.0,0.0,1.75,0.0,0.5,0.0,0.75,0.75,0.25,1.14,-0.36,1.2,150.52,15.7,0.9,1.25,0.5,2.0,0.5,1.5,2.0,0.75,0.0,0.25,1.25,0.0,0.25,1.0,0.08,-0.17,-0.42,152.33,-6.2,22.1
3.2,7.0,0.5,0.0,3.5,0.0,0.0,1.25,0.0,0.5,0.5,2.75,0.25,0.5,0.52,-0.05,1.45,177.76,21.5,36.7,1.25,0.5,2.0,0.75,1.75,2.0,0.75,0.0,0.25,1.25,0.5,0.25,0.5,-0.05,0.2,-0.05,175.61,-7.3,25.5
3.22,7.0,0.0,7.0,2.5,0.0,0.0,0.75,0.0,0.25,0.0,0.75,0.0,0.25,-0.11,0.27,1.45,201.35,31.6,63.9,1.25,0.5,2.0,0.5,1.0,1.75,0.5,0.0,0.25,1.25,0.25,0.25,0.5,0.33,0.7,-0.05,177.82,-8.4,24.4
3.24,5.5,0.0,4.5,2.75,0.0,0.0,0.5,0.0,0.0,0.0,0.0,0.0,0.0,-0.42,0.58,1.52,213.32,32.1,74.3,1.25,0.5,2.0,0.75,1.0,2.0,0.75,0.0,0.25,1.25,0.75,0.25,0.75,1.45,0.77,-0.98,185.68,-7.7,18.0
3.26,1.0,0.0,2.75,4.0,0.0,0.0,0.0,0.0,0.0,0.0,0.0,0.0,0.25,0.45,0.64,1.77,185.6,25.5,58.2,1.25,0.5,2.25,1.0,0.25,1.75,0.25,0.0,0.25,1.25,0.25,0.25,0.75,2.2,1.2,-1.3,181.26,-9.8,21.0
3.28,0.0,0.0,0.0,0.0,0.0,0.0,0.0,0.0,2.75,0.0,0.0,0.0,0.0,1.64,0.52,1.52,128.99,12.1,-38.5,1.25,0.5,2.0,0.75,0.5,2.0,0.75,0.25,0.25,1.25,0.0,0.25,0.25,1.77,1.02,-1.42,175.58,-8.7,28.3
3.3,1.75,0.0,0.0,1.25,0.0,0.0,0.0,0.0,0.0,0.0,0.0,0.0,0.0,2.14,1.89,1.2,75.47,27.0,80.1,1.25,0.5,2.5,0.5,1.5,1.75,0.5,0.0,0.25,1.25,0.75,0.25,0.5,0.83,1.14,-0.86,174.04,-9.2,23.3
3.32,0.0,0.0,0.0,0.0,0.0,0.0,0.0,0.0,0.0,0.0,0.0,0.0,0.0,0.33,1.08,0.08,10.94,0.0,0.0,1.25,0.5,1.75,0.75,0.25,1.75,0.75,0.0,0.25,1.25,1.0,0.25,0.5,-0.8,1.2,-0.61,169.12,-9.3,14.4
3.34,0.0,0.0,0.0,2.25,0.0,0.0,0.0,0.0,0.0,0.0,0.0,0.0,0.0,-1.48,0.52,0.27,2.28,17.2,57.9,1.25,0.5,1.75,0.75,0.5,1.75,0.75,0.0,0.25,1.25,0.25,0.25,0.75,0.2,0.58,0.02,164.32,-8.2,19.0
3.36,2.25,0.5,0.0,0.5,0.0,0.0,2.75,0.0,0.25,0.25,0.0,0.0,0.75,-1.8,0.27,-0.55,14.65,20.9,36.6,1.25,0.5,2.0,0.5,0.5,1.75,0.75,0.0,0.25,1.25,0.75,0.25,0.0,-0.23,0.27,-0.23,154.26,-10.7,24.9
3.38,1.25,0.0,2.0,2.0,0.0,0.0,0.5,0.0,0.25,0.25,0.0,0.0,0.0,-0.11,0.2,0.02,40.75,26.8,56.0,1.25,0.5,2.0,0.5,1.5,1.75,0.75,0.0,0.25,1.25,0.5,0.25,0.75,0.2,0.52,-0.61,153.66,-7.5,20.6
3.4,1.25,0.0,0.75,2.5,0.0,0.0,0.25,0.0,0.25,0.0,0.0,0.0,0.0,0.89,-0.86,-0.36,48.65,24.8,62.2,1.25,0.5,2.0,0.5,1.5,2.0,0.75,0.0,0.25,1.25,0.25,0.25,0.5,0.64,0.58,-0.98,157.44,-7.3,26.2
3.42,0.25,0.0,1.25,2.0,0.0,0.0,0.25,0.0,0.25,0.25,0.0,0.0,0.25,1.33,0.2,0.7,61.94,20.6,37.7,0.0,0.0,0.5,0.0,0.0,0.25,0.25,0.0,0.0,0.0,0.0,0.0,0.0,1.08,0.39,-0.92,112.37,-20.9,49.0
3.44,0.25,0.0,1.5,1.5,0.0,0.0,0.5,0.0,0.25,0.25,0.0,0.0,0.0,1.27,1.02,-0.17,51.89,24.7,45.5,0.0,0.0,0.5,0.0,0.0,0.25,0.25,0.0,0.0,0.0,0.0,0.0,0.0,1.27,0.2,-0.8,66.67,-20.9,49.0
3.46,0.25,0.0,1.0,0.75,0.0,0.0,0.5,0.0,0.25,0.25,0.0,0.0,0.25,0.39,0.77,-0.05,45.57,21.1,26.6,0.5,0.5,1.75,0.5,1.0,1.75,0.75,0.0,0.25,0.0,0.75,0.0,0.5,0.95,0.14,-0.55,61.84,-9.3,30.6
3.48,0.0,0.0,1.0,0.25,0.0,0.0,0.25,0.0,0.25,0.25,0.0,0.0,0.0,1.33,0.64,0.08,42.23,24.5,27.6,0.0,0.0,0.5,0.0,0.0,1.25,0.25,0.0,0.25,1.25,0.0,0.25,0.25,0.64,0.2,-0.48,49.47,5.5,-22.1
3.5,0.0,0.0,1.0,0.75,0.0,0.0,0.25,0.0,0.25,0.25,0.0,0.0,0.0,0.7,0.52,0.52,42.43,22.9,34.2,1.25,0.5,0.5,0.5,0.0,2.0,0.25,0.0,0.25,1.25,0.0,0.25,0.0,0.45,0.08,-0.48,65.95,-3.4,25.2
3.52,0.0,0.0,1.25,0.5,0.0,0.0,0.0,0.0,0.25,0.25,0.0,0.0,0.25,0.52,0.08,0.64,42.16,20.9,20.3,1.25,0.5,1.75,0.0,0.5,0.5,0.25,0.0,0.25,1.25,0.0,0.0,0.0,0.45,0.08,-0.48,75.36,-14.7,36.0
3.54,0.0,0.0,1.25,1.25,0.0,0.0,0.0,0.0,0.25,0.25,0.0,0.0,0.0,0.08,0.08,0.52,43.19,22.9,40.7,0.0,0.0,0.25,0.0,0.25,0.5,0.25,0.0,0.0,0.0,0.0,0.0,0.0,0.64,0.14,-0.61,57.3,-1.7,44.4
3.56,0.25,0.0,1.0,0.5,0.0,0.0,0.0,0.0,0.25,0.25,0.0,0.0,0.0,0.14,-0.42,0.77,41.11,24.3,38.3,0.0,0.0,0.5,0.0,0.0,0.25,0.25,0.0,0.0,0.0,0.0,0.0,0.0,0.89,0.33,-0.48,30.8,-20.9,49.0
3.58,0.0,0.0,1.0,0.5,0.0,0.0,0.25,0.0,0.25,0.25,0.0,0.0,0.25,0.39,0.39,0.27,36.21,19.7,16.3,0.0,0.0,0.0,0.0,0.0,0.0,0.25,0.0,0.0,0.0,0.0,0.0,0.0,1.02,0.33,-0.42,5.02,-32.4,27.3
3.6,0.25,0.25,1.0,1.25,0.0,0.0,0.25,0.0,0.25,0.25,0.0,0.0,0.25,1.08,0.14,0.58,39.38,19.6,36.0,0.0,0.0,1.0,0.5,0.0,0.0,0.25,0.0,0.0,0.0,0.0,0.0,0.0,1.08,0.39,-0.36,0.0,-31.2,57.6
3.62,0.0,0.0,1.25,1.75,0.0,0.0,0.0,0.0,0.25,0.25,0.0,0.0,0.25,1.39,0.33,0.45,47.9,19.7,33.0,1.25,0.5,0.5,0.5,0.0,1.75,0.25,0.0,0.25,1.25,0.5,0.0,0.5,0.95,0.33,-0.23,30.31,-3.3,12.8
3.64,1.0,0.0,1.0,1.75,0.0,0.0,0.25,0.0,0.25,0.25,0.0,0.0,0.25,1.2,0.39,0.33,62.18,22.0,44.3,1.25,0.5,2.25,0.5,0.5,1.75,0.25,0.0,0.25,1.25,0.25,0.25,0.5,0.7,0.27,-0.23,82.39,-9.6,23.6
3.66,1.0,0.0,1.25,1.75,0.0,0.0,0.25,0.0,0.25,0.25,0.0,0.0,0.0,0.89,0.33,0.33,73.14,24.9,53.7,1.25,0.5,1.75,0.5,0.5,1.75,0.5,0.0,0.25,1.25,0.25,0.25,0.5,0.64,0.27,-0.23,123.89,-8.2,21.5
3.68,0.25,0.0,1.0,1.75,0.0,0.0,0.25,0.0,0.25,0.25,0.0,0.0,0.0,0.52,0.33,0.45,75.56,22.1,44.8,1.25,0.5,1.75,0.5,1.0,1.75,0.75,0.0,0.25,1.25,1.25,0.25,0.75,0.45,0.45,-0.61,150.34,-7.6,11.5
3.7,0.75,0.0,1.0,2.0,0.0,0.0,0.25,0.0,0.25,0.25,0.0,0.0,0.25,0.52,0.33,0.64,79.65,21.1,42.4,0.0,0.0,1.75,0.25,0.5,1.0,0.5,0.0,0.25,0.25,0.25,0.25,0.25,0.58,0.33,-0.3,136.21,-11.4,18.2
3.72,0.25,0.0,1.0,1.75,0.0,0.0,0.25,0.0,0.25,0.25,0.0,0.0,0.25,0.95,-0.23,0.64,77.2,19.7,34.8,0.75,0.0,1.0,0.0,0.25,1.25,0.75,0.0,0.25,0.5,0.0,0.25,0.5,1.14,-0.23,-0.17,122.92,-7.4,12.9
3.74,0.25,0.0,1.25,2.0,0.0,0.0,0.0,0.0,0.25,0.25,0.0,0.0,0.0,1.33,-0.36,0.89,76.09,22.5,47.2,0.25,0.0,1.5,0.25,0.25,1.75,0.75,0.0,0.25,1.0,0.25,0.25,0.5,1.2,-0.17,-0.05,109.2,-4.5,4.0
3.76,0.25,0.0,1.0,1.75,0.0,0.0,0.25,0.0,0.25,0.25,0.0,0.0,0.0,1.08,-0.17,0.89,71.78,22.1,44.8,1.0,0.0,1.25,0.25,0.25,2.0,0.75,0.25,0.25,1.5,0.25,0.25,0.5,0.95,-0.11,-0.17,116.32,-3.3,4.9
3.78,0.25,0.0,1.25,1.25,0.0,0.0,0.25,0.0,0.25,0.25,0.0,0.0,0.0,0.77,0.02,0.7,67.76,24.0,44.1,1.25,0.5,1.5,0.25,1.0,2.0,1.0,0.25,0.25,1.25,0.25,0.25,0.5,0.77,0.02,-0.3,135.47,-5.7,20.3
3.8,0.25,0.0,1.0,1.75,0.0,0.0,0.0,0.0,0.25,0.25,0.0,0.0,0.0,0.58,0.02,0.58,64.29,21.7,45.4,1.25,0.5,1.75,0.5,0.5,1.75,0.5,0.0,0.25,1.25,0.75,0.25,0.5,0.64,0.14,-0.42,148.45,-8.4,16.5
3.82,0.25,0.0,1.0,1.5,0.0,0.0,0.25,0.0,0.0,0.25,0.0,0.0,0.25,0.45,-0.05,0.45,60.38,20.5,38.3,1.0,0.0,2.0,0.25,0.25,1.75,1.0,0.0,0.25,0.75,0.25,0.25,0.5,0.52,0.2,-0.48,146.56,-10.6,19.3
3.84,0.25,0.0,1.25,1.75,0.0,0.0,0.0,0.0,0.25,0.25,0.0,0.0,0.25,0.2,-0.17,0.39,60.97,20.5,36.7,1.25,0.5,1.5,0.25,0.25,1.5,0.75,0.25,0.25,1.25,0.25,0.25,0.5,0.58,0.27,-0.48,138.78,-7.9,15.9
3.86,0.25,0.0,1.0,1.75,0.0,0.0,0.25,0.0,0.25,0.25,0.0,0.0,0.0,0.27,-0.23,0.2,60.85,22.1,44.8,0.75,0.0,2.0,0.25,1.25,2.0,0.5,0.0,0.25,1.25,0.75,0.25,0.5,0.77,0.2,-0.61,136.31,-5.6,12.0
3.88,0.5,0.0,1.0,1.75,0.0,0.0,0.25,0.0,0.25,0.25,0.0,0.0,0.0,0.52,-0.48,0.27,62.88,22.8,48.0,1.25,0.5,1.75,0.5,0.5,1.5,0.5,0.0,0.25,1.25,0.25,0.25,0.75,0.83,0.2,-0.55,137.42,-8.4,17.4
3.9,0.25,0.0,1.0,1.75,0.0,0.0,0.25,0.0,0.25,0.25,0.0,0.0,0.0,0.83,-0.8,0.27,62.87,22.1,44.8,1.0,0.25,2.0,0.25,0.25,2.0,0.75,0.5,0.25,1.25,0.25,0.25,0.5,0.83,0.2,-0.42,141.58,-6.5,13.4
3.92,0.25,0.0,0.75,1.75,0.0,0.0,0.25,0.0,0.25,0.25,0.0,0.0,0.0,0.77,-1.17,0.33,61.93,20.9,43.6,1.25,0.25,2.0,0.25,1.75,1.75,0.75,0.5,0.25,1.25,0.5,0.25,1.0,0.83,0.14,-0.42,156.18,-5.4,13.4
3.94,0.25,0.0,1.0,1.5,0.0,0.0,0.25,0.0,0.25,0.25,0.0,0.0,0.0,0.27,-1.61,0.39,59.29,22.4,43.9,1.25,0.5,1.5,0.5,1.0,1.5,0.5,0.0,0.25,1.25,0.25,0.25,0.5,0.83,0.08,-0.36,159.05,-7.5,22.1
3.96,0.25,0.0,1.0,1.25,0.0,0.0,0.25,0.0,0.25,0.25,0.0,0.0,0.0,0.2,-1.11,0.52,57.07,22.9,42.7,1.25,0.5,1.75,0.25,0.25,1.75,0.75,0.0,0.25,1.25,0.25,0.25,0.5,0.77,0.08,-0.3,153.2,-8.7,19.4
3.98,0.5,0.0,1.0,1.25,0.0,0.0,0.25,0.0,0.25,0.25,0.0,0.0,0.0,0.2,-0.67,0.58,56.39,23.7,46.5,1.0,0.5,2.25,0.25,0.5,1.75,0.5,0.25,0.25,1.25,0.25,0.25,0.75,0.7,0.08,-0.23,147.91,-7.7,15.6
4.0,0.25,0.0,1.0,1.25,0.0,0.0,0.0,0.0,0.25,0.25,0.0,0.0,0.0,0.27,-0.61,0.58,54.37,22.5,43.3,1.25,0.5,1.75,0.25,1.0,2.0,0.5,0.0,0.25,1.25,0.75,0.25,0.5,0.77,0.08,-0.3,148.27,-6.7,18.0
4.02,0.0,0.0,1.0,1.0,0.0,0.0,0.0,0.0,0.25,0.25,0.0,0.0,0.0,0.58,-0.61,0.7,50.02,21.9,36.9,1.25,0.5,1.75,0.5,1.0,1.75,0.5,0.0,0.25,1.25,1.25,0.25,0.75,0.83,0.08,-0.36,153.09,-7.3,11.3
4.04,0.25,0.0,1.0,1.0,0.0,0.0,0.0,0.0,0.0,0.25,0.0,0.0,0.25,0.7,-0.61,0.83,46.68,20.6,35.1,1.25,0.5,2.0,0.5,1.25,1.75,0.5,0.0,0.25,1.25,0.5,0.25,0.5,0.83,0.14,-0.42,159.2,-8.1,22.9
4.06,0.0,0.0,1.0,1.0,0.0,0.0,0.25,0.0,0.25,0.25,0.0,0.0,0.0,0.7,-0.55,0.77,43.89,22.4,36.5,1.25,0.5,1.75,0.5,0.5,1.75,0.25,0.0,0.25,1.25,0.75,0.25,0.5,0.77,0.14,-0.42,158.13,-8.1,16.4
4.08,0.25,0.0,0.75,1.0,0.0,0.0,0.0,0.0,0.0,0.25,0.0,0.0,0.0,0.64,-0.48,0.7,40.35,22.5,48.5,1.25,0.5,1.75,0.5,0.5,1.75,0.5,0.0,0.25,1.0,0.0,0.25,0.75,0.7,0.2,-0.42,149.93,-8.2,23.1
4.1,0.0,0.0,1.0,1.5,0.0,0.0,0.0,0.0,0.25,0.25,0.0,0.0,0.0,0.52,-0.42,0.58,42.73,21.1,40.4,1.25,0.5,1.75,0.25,0.5,1.75,0.5,0.0,0.25,1.25,0.25,0.25,0.0,0.64,0.2,-0.42,139.8,-9.3,28.6
4.12,0.25,0.0,0.75,1.5,0.0,0.0,0.25,0.0,0.0,0.25,0.0,0.0,0.0,0.45,-0.48,0.52,44.72,21.9,49.3,1.25,0.5,1.75,0.5,0.5,1.5,0.75,0.0,0.25,1.25,0.75,0.25,0.5,0.52,0.2,-0.36,137.9,-9.5,16.2
4.14,0.25,0.25,1.0,1.25,0.0,0.0,0.25,0.0,0.0,0.25,0.0,0.0,0.0,0.39,-0.55,0.52,49.06,22.9,53.5,1.25,0.5,1.75,0.5,0.5,1.75,0.5,0.0,0.25,1.25,0.25,0.25,0.5,0.58,0.27,-0.36,136.26,-8.2,21.5
4.16,1.5,0.0,0.5,1.5,0.0,0.0,0.25,0.0,0.0,0.25,0.0,0.0,0.25,0.33,-0.48,0.52,57.21,22.4,52.4,1.25,0.5,1.75,0.25,1.5,1.5,0.5,0.0,0.25,1.25,0.5,0.25,0.5,0.77,0.33,-0.42,141.35,-7.5,21.6
4.18,1.25,0.0,1.0,1.25,0.0,0.0,0.25,0.0,0.0,0.25,0.0,0.0,0.25,0.45,-0.48,0.58,64.57,24.0,50.5,1.25,0.5,1.75,0.25,0.5,1.75,0.5,0.0,0.25,1.25,0.75,0.25,1.0,0.83,0.33,-0.48,145.46,-7.0,8.7
4.2,1.25,0.0,0.75,1.5,0.0,0.0,0.0,0.0,0.25,0.25,0.0,0.0,0.25,0.52,-0.55,0.58,70.67,21.8,45.8,1.25,0.5,2.0,0.75,0.5,1.75,0.75,0.0,0.25,1.25,0.25,0.25,0.0,0.83,0.33,-0.42,145.99,-10.9,31.1
4.22,1.5,0.0,0.75,1.75,0.0,0.0,0.5,0.0,0.25,0.25,0.0,0.0,0.0,0.58,-0.61,0.64,77.24,24.6,56.6,1.25,0.5,2.25,0.5,1.25,1.75,0.5,0.0,0.25,1.25,0.5,0.25,0.5,0.77,0.33,-0.36,150.57,-8.8,23.8
4.24,1.25,0.0,1.0,0.75,0.0,0.0,0.0,0.0,0.0,0.25,0.0,0.0,0.25,0.64,-0.61,0.64,75.19,24.7,50.2,1.25,0.5,1.75,0.5,0.25,1.75,0.25,0.0,0.25,1.25,0.25,0.25,0.5,0.64,0.39,-0.3,145.56,-8.3,20.3
4.26,1.25,0.0,0.75,1.25,0.0,0.0,0.25,0.0,0.25,0.25,0.0,0.0,0.25,0.52,-0.61,0.58,74.99,22.4,44.5,1.25,0.5,1.75,0.5,1.0,1.75,0.5,0.0,0.25,1.25,0.25,0.25,0.75,0.7,0.33,-0.36,147.62,-7.0,19.9
4.28,1.25,0.0,0.75,1.0,0.0,0.0,0.25,0.0,0.0,0.25,0.0,0.0,0.25,0.52,-0.67,0.58,70.31,23.4,49.2,1.25,0.5,1.75,0.25,0.5,1.5,0.5,0.0,0.25,1.25,0.5,0.25,0.5,0.95,0.52,-0.42,142.76,-8.9,17.3
4.3,1.25,0.0,0.75,1.25,0.0,0.0,0.25,0.0,0.25,0.25,0.0,0.0,0.25,0.45,-0.67,0.52,70.79,22.4,44.5,1.25,0.5,1.5,0.25,1.0,1.75,0.5,0.0,0.25,1.25,0.75,0.25,0.5,1.02,0.52,-0.36,144.97,-6.6,16.4
4.32,1.25,0.0,1.0,1.25,0.0,0.0,0.25,0.0,0.0,0.25,0.0,0.0,0.25,0.2,-0.61,0.58,70.49,24.0,50.5,1.25,0.5,1.75,0.5,1.75,1.5,0.5,0.0,0.25,1.25,0.75,0.25,1.0,0.83,0.45,-0.3,152.25,-6.5,15.1
4.34,1.5,0.0,0.75,1.0,0.0,0.0,0.0,0.0,0.0,0.25,0.0,0.0,0.25,0.2,-0.61,0.64,69.13,23.9,53.0,1.25,0.5,1.75,0.25,0.5,1.5,0.5,0.25,0.25,1.25,0.75,0.25,0.25,0.7,0.45,-0.23,150.79,-8.9,16.9
4.36,1.75,0.0,0.75,1.0,0.0,0.0,0.25,0.0,0.0,0.25,0.0,0.0,0.25,0.33,-0.55,0.64,69.22,24.7,54.8,1.25,0.5,1.75,0.5,0.5,1.75,0.5,0.0,0.25,1.25,0.25,0.25,0.25,0.64,0.45,-0.23,146.7,-8.9,25.3
4.38,1.75,0.0,0.75,1.0,0.0,0.0,0.0,0.0,0.0,0.25,0.0,0.0,0.25,0.58,-0.55,0.64,68.04,24.5,55.6,1.25,0.5,1.75,0.25,0.25,1.5,0.5,0.0,0.25,1.25,0.25,0.25,0.5,0.7,0.45,-0.23,137.67,-9.3,18.8
4.4,1.5,0.0,0.75,1.0,0.0,0.0,0.25,0.0,0.0,0.25,0.0,0.0,0.25,0.64,-0.55,0.7,66.73,24.1,52.2,1.25,0.5,1.75,0.5,0.5,1.25,0.5,0.0,0.25,1.25,0.25,0.25,0.5,0.77,0.45,-0.23,132.71,-10.0,20.8
4.42,1.75,0.0,0.75,1.25,0.0,0.0,0.25,0.0,0.25,0.25,0.0,0.0,0.25,0.58,-0.48,0.64,70.02,23.6,49.9,1.25,0.5,1.5,0.5,1.25,1.5,0.5,0.25,0.25,1.25,0.25,0.25,0.75,0.83,0.39,-0.3,135.85,-6.0,18.0
4.44,1.5,0.0,0.75,1.25,0.0,0.0,0.25,0.0,0.0,0.25,0.0,0.0,0.5,0.52,-0.42,0.58,72.02,21.5,43.0,1.25,0.5,1.75,0.5,0.5,1.5,0.25,0.0,0.25,1.25,0.5,0.25,1.0,0.89,0.45,-0.36,139.26,-7.6,11.4
4.46,1.5,0.0,0.75,1.0,0.0,0.0,0.25,0.0,0.0,0.25,0.0,0.0,0.25,0.39,-0.42,0.52,71.27,24.1,52.2,1.25,0.5,1.75,0.5,1.25,1.5,0.5,0.0,0.25,1.25,0.25,0.25,0.25,0.89,0.45,-0.36,143.15,-8.6,27.7
4.48,1.75,0.0,0.75,1.0,0.0,0.0,0.0,0.0,0.0,0.25,0.0,0.0,0.25,0.39,-0.48,0.52,70.75,24.5,55.6,1.25,0.5,1.75,0.5,1.0,1.5,0.5,0.0,0.25,1.25,0.25,0.25,0.5,0.77,0.45,-0.36,145.08,-8.3,23.1
4.5,1.5,0.0,0.75,1.0,0.0,0.0,0.25,0.0,0.0,0.25,0.0,0.0,0.25,0.39,-0.48,0.58,68.28,24.1,52.2,1.0,0.5,1.75,0.25,0.5,1.5,0.5,0.0,0.25,1.25,0.75,0.25,0.5,0.7,0.39,-0.3,141.29,-8.2,12.6
4.52,1.75,0.0,0.75,0.75,0.0,0.0,0.0,0.0,0.0,0.25,0.0,0.0,0.25,0.45,-0.42,0.52,66.14,25.0,55.5,1.0,0.5,1.75,0.5,0.5,1.5,0.5,0.0,0.25,1.25,0.25,0.25,1.0,0.7,0.33,-0.3,139.12,-7.1,11.7
4.54,1.75,0.0,0.75,1.0,0.0,0.0,0.25,0.0,0.0,0.25,0.0,0.0,0.25,0.52,-0.42,0.58,66.33,24.7,54.8,1.25,0.5,1.25,0.5,0.5,1.5,0.5,0.0,0.25,1.25,0.0,0.25,1.0,0.64,0.33,-0.23,134.46,-5.9,13.5
4.56,1.5,0.0,0.75,1.0,0.0,0.0,0.25,0.0,0.0,0.25,0.0,0.0,0.25,0.52,-0.42,0.58,66.25,24.1,52.2,1.25,0.5,1.25,0.25,1.5,1.75,0.5,0.0,0.25,1.25,0.75,0.25,0.5,0.7,0.27,-0.23,138.99,-5.2,17.4
4.58,2.0,0.0,0.75,1.0,0.0,0.0,0.25,0.0,0.0,0.25,0.0,0.0,0.25,0.45,-0.42,0.64,69.16,25.3,57.1,1.25,0.5,1.5,0.25,0.25,1.5,0.25,0.0,0.25,1.25,0.25,0.25,0.5,0.7,0.27,-0.23,134.84,-8.0,17.3
4.6,1.75,0.0,0.75,1.0,0.0,0.0,0.25,0.0,0.0,0.25,0.0,0.0,0.25,0.45,-0.48,0.64,69.49,24.7,54.8,1.25,0.5,1.75,0.5,0.5,1.5,0.5,0.0,0.25,1.25,0.25,0.25,1.0,0.77,0.33,-0.23,137.52,-7.8,13.8
4.62,1.25,0.0,0.75,0.5,0.0,0.0,0.25,0.0,0.0,0.25,0.0,0.0,0.25,0.45,-0.55,0.64,64.59,24.5,47.8,1.25,0.5,1.75,0.5,1.0,1.75,0.5,0.0,0.25,1.25,0.75,0.25,0.5,0.83,0.33,-0.3,141.68,-7.7,18.6
4.64,2.0,0.0,0.75,0.5,0.0,0.0,0.25,0.0,0.0,0.25,0.0,0.0,0.25,0.45,-0.61,0.64,62.99,26.4,57.0,1.25,0.5,1.75,0.25,0.25,1.5,0.5,0.0,0.25,1.25,0.25,0.25,0.5,0.83,0.39,-0.36,138.59,-9.3,18.8
4.66,1.75,0.0,1.0,1.0,0.0,0.0,0.0,0.0,0.25,0.25,0.0,0.0,0.25,0.45,-0.61,0.64,65.37,24.6,50.7,1.0,0.5,1.75,0.25,0.5,1.75,0.5,0.0,0.25,1.25,0.75,0.25,0.75,0.83,0.39,-0.36,138.4,-6.8,9.8
4.68,1.75,0.0,0.75,0.75,0.0,0.0,0.25,0.0,0.0,0.25,0.0,0.0,0.25,0.39,-0.61,0.64,66.71,25.3,54.6,1.25,0.5,1.75,0.25,0.5,1.5,0.25,0.0,0.25,1.25,0.25,0.25,0.0,0.77,0.33,-0.3,133.03,-10.0,28.4
4.7,1.75,0.0,0.75,1.0,0.0,0.0,0.25,0.0,0.0,0.25,0.0,0.0,0.25,0.39,-0.61,0.7,68.99,24.7,54.8,1.25,0.5,1.0,0.5,1.5,1.5,0.5,0.25,0.25,1.25,0.25,0.25,0.75,0.77,0.33,-0.3,137.12,-4.0,16.8
4.72,1.5,0.25,0.75,0.5,0.0,0.0,0.25,0.0,0.0,0.25,0.0,0.0,0.25,0.39,-0.61,0.64,66.9,24.3,54.7,1.25,0.5,1.75,0.5,1.25,1.75,0.5,0.0,0.25,1.0,0.75,0.25,0.5,0.77,0.33,-0.3,142.7,-8.0,22.0
4.74,1.75,0.0,0.75,1.0,0.0,0.0,0.5,0.0,0.25,0.25,0.0,0.0,0.25,0.39,-0.61,0.64,69.49,24.3,48.9,1.25,0.5,1.75,0.25,0.5,1.5,0.5,0.0,0.25,1.25,0.75,0.25,0.75,0.77,0.33,-0.23,146.26,-8.3,11.4
4.76,1.5,0.0,0.75,1.0,0.0,0.0,0.25,0.0,0.25,0.25,0.0,0.0,0.25,0.39,-0.61,0.64,69.05,23.4,46.7,1.25,0.5,1.75,0.25,0.5,1.5,0.5,0.0,0.25,1.25,0.25,0.25,0.5,0.77,0.33,-0.23,142.87,-8.8,20.0
4.78,2.0,0.0,0.75,0.75,0.0,0.0,0.0,0.0,0.25,0.25,0.0,0.0,0.25,0.39,-0.61,0.64,70.93,24.8,52.3,1.25,0.5,1.75,0.25,0.5,1.5,0.5,0.0,0.25,1.25,0.25,0.25,0.5,0.83,0.33,-0.3,138.33,-8.8,20.0
4.8,2.0,0.0,0.75,0.5,0.0,0.0,0.25,0.0,0.0,0.25,0.0,0.0,0.5,0.39,-0.61,0.64,70.49,23.9,46.4,1.25,0.5,1.75,0.5,0.5,1.25,0.25,0.0,0.25,1.25,0.75,0.25,0.75,0.83,0.33,-0.3,136.36,-9.1,11.9
4.82,1.75,0.25,0.75,0.5,0.0,0.0,0.25,0.0,0.0,0.25,0.0,0.0,0.25,0.45,-0.55,0.64,69.17,25.0,57.4,1.25,0.25,1.75,0.25,1.25,1.5,0.5,0.0,0.25,1.25,0.75,0.25,1.0,0.83,0.33,-0.3,141.71,-6.6,9.6
4.84,1.5,0.0,0.75,1.0,0.0,0.0,0.25,0.0,0.0,0.0,0.0,0.0,0.5,0.45,-0.55,0.64,67.76,24.2,49.7,1.25,0.5,1.75,0.25,0.5,1.5,0.5,0.0,0.25,1.25,0.25,0.25,0.5,0.83,0.33,-0.3,139.57,-8.8,20.0
4.86,2.0,0.0,0.75,0.5,0.0,0.0,0.25,0.0,0.0,0.25,0.0,0.0,0.25,0.39,-0.55,0.64,66.71,26.4,57.0,1.25,0.5,1.5,0.25,1.25,1.25,0.5,0.0,0.25,1.25,0.25,0.25,0.5,0.77,0.33,-0.3,140.0,-7.6,21.7
4.88,1.25,0.0,0.75,0.5,0.0,0.0,0.25,0.0,0.0,0.25,0.0,0.0,0.0,0.39,-0.55,0.64,59.68,28.0,62.1,1.25,0.5,1.75,0.5,1.0,1.25,0.5,0.0,0.25,1.25,0.5,0.25,0.5,0.77,0.33,-0.3,141.17,-9.2,20.3
4.9,1.75,0.0,1.0,0.5,0.0,0.0,0.25,0.0,0.25,0.25,0.0,0.0,0.25,0.39,-0.55,0.64,60.72,25.8,49.1,1.25,0.5,1.75,0.25,0.5,1.75,0.25,0.0,0.25,1.25,0.75,0.25,0.75,0.77,0.33,-0.3,141.44,-7.2,11.7
4.92,0.5,0.0,0.75,1.0,0.0,0.0,0.25,0.0,0.0,0.25,0.0,0.0,0.25,0.39,-0.55,0.64,55.77,20.7,37.6,1.25,0.25,1.75,0.5,0.5,1.25,0.25,0.0,0.25,1.25,0.25,0.25,0.5,0.7,0.27,-0.3,136.75,-9.6,18.2
4.94,1.75,0.0,1.0,0.5,0.0,0.0,0.25,0.0,0.0,0.25,0.5,0.0,0.0,0.39,-0.55,0.64,59.35,27.4,49.7,1.25,0.5,1.5,0.5,0.5,1.5,0.25,0.0,0.25,1.25,0.25,0.25,0.5,0.77,0.27,-0.3,132.85,-7.9,19.8
4.96,1.75,0.0,0.75,0.5,0.0,0.0,0.25,0.0,0.0,0.25,0.5,0.0,0.25,0.39,-0.55,0.64,61.15,24.1,38.8,1.25,0.25,1.75,0.25,1.0,1.5,0.25,0.0,0.25,1.25,0.25,0.25,0.5,0.77,0.27,-0.3,131.59,-7.6,19.8
4.98,0.75,0.25,0.75,1.0,0.0,0.0,0.25,0.0,0.0,0.25,0.0,0.0,0.25,0.39,-0.61,0.64,61.27,21.0,46.3,1.25,0.5,1.5,0.25,0.5,1.25,0.25,0.0,0.25,1.25,0.5,0.25,0.5,0.77,0.33,-0.3,129.32,-8.5,15.3
5.0,1.5,0.0,0.75,0.5,0.0,0.0,0.25,0.0,0.25,0.25,0.0,0.0,0.5,0.39,-0.61,0.64,61.73,21.8,34.7,1.25,0.5,1.5,0.25,0.5,1.5,0.5,0.0,0.25,1.25,0.25,0.25,1.0,0.77,0.33,-0.3,130.18,-6.6,11.1
5.02,1.75,0.0,0.75,0.5,0.0,0.0,0.25,0.0,0.0,0.25,0.0,0.0,0.75,0.39,-0.61,0.64,63.49,20.9,33.6,1.25,0.5,1.5,0.25,1.0,1.5,0.25,0.0,0.25,1.25,0.25,0.25,0.5,0.83,0.33,-0.3,131.07,-6.8,20.9
5.04,1.5,0.0,0.75,1.0,0.0,0.0,0.25,0.0,0.0,0.0,0.0,0.0,0.25,0.39,-0.61,0.7,63.77,26.9,61.1,1.25,0.5,1.25,0.5,0.25,1.5,0.5,0.0,0.25,1.25,0.25,0.25,0.75,0.77,0.33,-0.3,129.34,-7.0,13.4
5.06,1.25,0.0,0.75,0.75,0.0,0.0,0.0,0.0,0.0,0.25,0.0,0.0,0.5,0.39,-0.61,0.64,62.31,20.9,37.6,1.0,0.5,1.5,0.25,0.5,1.5,0.5,0.0,0.25,1.25,0.25,0.25,0.5,0.77,0.33,-0.3,126.52,-7.1,16.4
5.08,2.25,0.0,0.75,0.5,0.0,0.0,0.25,0.0,0.0,0.0,0.5,0.0,0.25,0.39,-0.61,0.64,65.86,27.6,52.0,1.0,0.5,1.5,0.25,0.5,1.25,0.5,0.0,0.25,1.25,0.25,0.25,0.5,0.77,0.33,-0.3,123.84,-8.0,15.9
5.1,1.5,0.0,0.75,0.5,0.0,0.0,0.25,0.0,0.0,0.0,1.25,0.0,0.25,0.39,-0.55,0.64,68.02,23.5,22.9,1.25,0.5,1.25,0.5,1.0,1.25,0.5,0.0,0.25,1.25,0.5,0.25,0.5,0.77,0.33,-0.3,126.08,-7.5,17.9
5.12,1.5,0.0,0.75,1.0,0.0,0.0,0.25,0.0,0.0,0.0,0.5,0.0,0.25,0.39,-0.55,0.64,70.21,25.0,44.9,1.25,0.5,1.25,0.25,1.5,1.5,0.5,0.0,0.25,1.25,0.25,0.25,0.5,0.77,0.33,-0.3,131.09,-5.6,21.9
5.14,0.75,0.0,0.75,0.5,0.0,0.0,0.25,0.0,0.25,0.0,0.0,0.0,0.0,0.39,-0.55,0.64,60.68,29.6,59.1,1.25,0.5,1.5,0.5,0.5,1.5,0.5,0.0,0.25,1.25,0.0,0.25,0.5,0.77,0.33,-0.3,133.16,-8.1,22.7
5.16,1.25,0.0,0.75,1.25,0.0,0.0,0.0,0.0,0.0,0.0,0.0,0.0,0.25,0.39,-0.55,0.64,59.3,25.5,59.5,1.25,0.5,1.5,0.25,0.5,1.25,0.5,0.0,0.25,1.25,0.75,0.25,0.5,0.77,0.33,-0.3,133.92,-8.9,12.9
5.18,1.75,0.0,0.75,1.25,0.0,0.0,0.25,0.0,0.0,0.0,0.0,0.0,0.0,0.39,-0.55,0.64,58.46,29.5,74.6,1.25,0.5,1.5,0.25,0.5,1.5,0.75,0.0,0.25,1.25,0.75,0.25,0.75,0.77,0.33,-0.3,135.05,-7.8,10.2
5.2,1.5,0.0,0.75,1.25,0.0,0.0,0.25,0.0,0.0,0.0,0.0,0.0,0.25,0.39,-0.55,0.64,62.29,26.2,60.8,1.25,0.5,1.75,0.5,0.5,1.25,0.5,0.0,0.25,1.25,0.25,0.25,0.75,0.83,0.33,-0.3,135.5,-9.3,16.9
5.22,1.5,0.0,0.75,1.0,0.0,0.0,0.25,0.0,0.0,0.0,0.0,0.0,0.25,0.39,-0.55,0.64,63.75,26.9,61.1,1.25,0.5,1.75,0.5,1.0,1.5,0.5,0.0,0.25,1.25,0.25,0.25,0.5,0.83,0.33,-0.3,139.77,-8.3,23.1
5.24,1.25,0.0,0.75,1.25,0.0,0.0,0.0,0.0,0.0,0.0,0.0,0.0,0.5,0.39,-0.55,0.64,64.57,22.8,47.9,1.25,0.5,1.0,0.25,1.0,1.5,0.5,0.0,0.25,1.0,0.75,0.25,1.0,0.83,0.33,-0.3,140.6,-5.0,8.8
5.26,0.75,0.0,0.75,1.25,0.0,0.0,0.25,0.0,0.0,0.0,0.0,0.0,0.25,0.39,-0.55,0.64,60.62,24.3,52.6,1.25,0.5,1.25,0.5,0.5,1.25,0.75,0.25,0.25,1.25,0.25,0.25,1.0,0.77,0.33,-0.3,140.7,-6.5,9.3
5.28,1.5,0.0,0.75,1.25,0.0,0.0,0.25,0.0,0.0,0.0,0.0,0.0,0.25,0.39,-0.55,0.64,61.63,26.2,60.8,1.25,0.5,1.75,0.5,1.25,1.5,0.5,0.0,0.25,1.25,0.25,0.25,0.5,0.77,0.33,-0.3,143.93,-8.0,24.0
5.3,1.5,0.0,0.75,1.0,0.0,0.0,0.25,0.0,0.0,0.25,0.0,0.0,0.25,0.39,-0.55,0.64,62.54,24.1,52.2,1.25,0.5,1.0,0.25,0.5,1.25,0.5,0.0,0.25,1.25,0.25,0.25,0.75,0.77,0.33,-0.3,136.93,-6.1,11.2
5.32,1.25,0.0,0.75,1.25,0.0,0.0,0.25,0.0,0.0,0.25,0.0,0.0,0.25,0.39,-0.55,0.64,64.45,23.0,49.8,1.25,0.5,1.25,0.5,0.5,1.25,0.25,0.0,0.25,1.0,0.25,0.25,0.75,0.77,0.33,-0.3,131.29,-7.8,16.8
5.34,1.5,0.0,0.75,1.25,0.0,0.0,0.25,0.0,0.25,0.25,0.0,0.0,0.25,0.39,-0.55,0.64,68.6,23.0,47.4,1.25,0.5,1.75,0.25,0.5,1.25,0.25,0.0,0.25,1.25,0.25,0.25,0.5,0.77,0.33,-0.3,125.85,-9.4,19.5
5.36,1.25,0.0,0.75,0.75,0.0,0.0,0.25,0.0,0.0,0.0,0.0,0.0,0.25,0.39,-0.55,0.64,65.52,27.1,58.6,1.25,0.5,0.75,0.5,0.5,1.5,0.25,0.0,0.25,1.25,0.25,0.25,0.75,0.83,0.33,-0.3,122.86,-4.2,11.5
5.38,1.5,0.0,0.75,1.25,0.0,0.0,0.25,0.0,0.0,0.25,0.0,0.0,0.25,0.39,-0.55,0.64,67.53,23.7,52.5,1.25,0.25,0.75,0.25,1.25,1.25,0.5,0.0,0.25,1.25,0.5,0.25,0.75,0.83,0.33,-0.3,123.02,-4.1,8.8
5.4,1.5,0.0,0.75,1.0,0.0,0.0,0.25,0.0,0.0,0.0,0.0,0.0,0.25,0.39,-0.55,0.64,64.01,26.9,61.1,1.25,0.5,0.75,0.25,0.5,1.25,0.5,0.0,0.25,1.25,0.25,0.25,0.75,0.77,0.33,-0.3,119.55,-5.0,9.4
5.42,1.75,0.0,0.75,1.25,0.0,0.0,0.25,0.0,0.0,0.0,0.0,0.0,0.25,0.39,-0.55,0.64,66.89,26.7,63.0,1.25,0.5,1.25,0.5,0.5,1.5,0.25,0.0,0.25,1.25,0.75,0.25,0.5,0.77,0.33,-0.3,122.41,-7.1,13.2
5.44,1.5,0.0,0.75,1.0,0.0,0.0,0.25,0.0,0.0,0.25,0.0,0.0,0.25,0.39,-0.55,0.64,66.74,24.1,52.2,1.25,0.5,1.0,0.5,1.0,1.0,0.25,0.0,0.25,1.25,0.25,0.25,0.5,0.77,0.33,-0.3,121.74,-6.9,18.8
5.46,1.0,0.0,0.75,1.25,0.0,0.0,0.0,0.0,0.0,0.25,0.0,0.0,0.25,0.39,-0.55,0.7,65.86,21.9,47.4,1.25,0.25,1.0,0.25,0.5,1.5,0.5,0.0,0.25,1.25,0.0,0.25,1.0,0.77,0.33,-0.3,120.97,-4.2,7.6
5.48,1.75,0.0,0.75,1.0,0.0,0.0,0.0,0.0,0.25,0.0,0.0,0.0,0.25,0.39,-0.55,0.64,65.91,26.3,58.0,1.25,0.5,0.5,0.25,0.5,1.5,0.25,0.0,0.25,1.25,0.25,0.25,0.5,0.77,0.33,-0.3,116.24,-3.1,12.4
5.5,1.0,0.0,0.75,1.5,0.0,0.0,0.0,0.0,0.25,0.25,0.0,0.0,0.25,0.39,-0.55,0.64,66.42,21.0,42.8,1.25,0.5,1.25,0.25,1.25,1.5,0.25,0.0,0.25,1.25,0.5,0.25,0.5,0.77,0.33,-0.3,122.27,-5.7,18.2
5.52,1.0,0.0,0.75,0.5,0.0,0.0,0.25,0.0,0.0,0.0,0.0,0.0,0.25,0.39,-0.55,0.64,59.15,27.4,55.1,1.25,0.5,1.25,0.5,1.0,1.25,0.5,0.0,0.25,1.25,0.25,0.25,0.75,0.77,0.33,-0.3,127.23,-6.8,16.8
5.54,1.75,0.0,0.75,1.25,0.0,0.0,0.0,0.0,0.0,0.0,0.0,0.0,0.25,0.39,-0.55,0.64,60.84,26.6,64.0,1.25,0.5,1.25,0.25,0.5,1.25,0.5,0.0,0.25,1.25,0.5,0.25,0.75,0.77,0.33,-0.3,131.32,-7.3,10.2
5.56,0.75,0.0,0.75,1.0,0.0,0.0,0.25,0.0,0.0,0.25,0.0,0.0,0.25,0.39,-0.55,0.64,56.91,21.7,42.0,1.25,0.5,1.5,0.5,0.5,1.5,0.5,0.0,0.25,1.0,0.25,0.25,0.5,0.77,0.33,-0.3,131.79,-8.9,22.8
5.58,1.75,0.0,0.75,1.0,0.0,0.0,0.25,0.0,0.0,0.25,0.0,0.0,0.25,0.39,-0.55,0.7,61.25,24.7,54.8,1.25,0.5,1.0,0.25,0.25,1.75,0.5,0.0,0.25,1.25,0.25,0.25,0.75,0.83,0.33,-0.3,128.85,-4.7,11.0
5.6,2.0,0.0,0.75,1.25,0.0,0.0,0.25,0.0,0.5,0.0,0.0,0.0,0.25,0.39,-0.55,0.7,68.55,25.6,54.2,1.25,0.5,1.5,0.75,0.5,1.5,0.5,0.0,0.25,1.25,0.25,0.25,1.25,0.77,0.33,-0.3,133.81,-6.7,10.4
5.62,1.5,0.0,0.75,1.0,0.0,0.0,0.25,0.0,0.25,0.25,0.0,0.0,0.25,0.39,-0.55,0.7,71.72,23.4,46.7,1.0,0.5,1.0,0.25,0.5,1.5,0.5,0.0,0.25,1.25,0.25,0.25,0.5,0.77,0.33,-0.3,128.73,-5.0,13.3
5.64,1.75,0.0,0.75,1.25,0.0,0.0,0.25,0.0,0.0,0.0,0.0,0.0,0.25,0.39,-0.55,0.7,73.33,26.7,63.0,1.0,0.5,0.5,0.5,0.5,1.25,0.25,0.0,0.25,1.25,0.5,0.25,0.5,0.77,0.33,-0.3,123.81,-3.7,7.6
5.66,1.75,0.0,0.75,0.25,0.0,0.0,0.0,0.0,0.0,0.0,0.25,0.0,0.25,0.39,-0.55,0.7,67.24,28.5,55.4,1.25,0.5,1.25,0.5,1.0,1.75,0.5,0.0,0.25,1.25,0.75,0.25,0.5,0.77,0.33,-0.3,128.1,-6.1,16.4
5.68,1.0,0.0,0.75,0.25,0.0,0.0,0.25,0.0,0.0,0.25,0.0,0.0,0.25,0.39,-0.55,0.7,58.59,24.3,42.3,1.25,0.5,0.75,0.5,0.5,1.5,0.5,0.0,0.25,1.25,0.25,0.25,0.5,0.77,0.33,-0.3,126.56,-5.2,15.8
5.7,1.75,0.0,0.75,1.25,0.0,0.0,0.25,0.0,0.0,0.0,0.0,0.0,0.25,0.39,-0.55,0.64,59.1,26.7,63.0,1.25,0.5,1.0,0.5,0.25,1.75,0.5,0.0,0.25,1.25,0.5,0.25,0.5,0.77,0.33,-0.3,127.82,-5.9,13.7
5.72,2.0,0.0,0.75,1.25,0.0,0.0,0.25,0.0,0.0,0.0,0.0,0.0,0.25,0.39,-0.55,0.7,63.78,27.2,64.8,1.25,0.5,1.5,0.5,0.5,1.0,0.0,0.0,0.25,1.25,0.0,0.25,0.5,0.77,0.33,-0.3,123.69,-9.3,21.9
5.74,1.75,0.0,0.75,1.25,0.0,0.0,0.25,0.0,0.0,0.0,0.0,0.0,0.25,0.39,-0.55,0.64,69.18,26.7,63.0,1.25,0.25,1.0,0.5,0.5,1.25,0.5,0.0,0.25,1.25,0.25,0.25,1.0,0.77,0.33,-0.3,122.0,-5.6,6.0
5.76,2.0,0.0,0.75,1.25,0.0,0.0,0.0,0.0,0.0,0.0,0.0,0.0,0.25,0.39,-0.55,0.64,73.06,27.0,65.9,1.0,0.25,1.0,0.25,0.5,1.25,0.5,0.0,0.25,1.25,0.5,0.25,0.5,0.77,0.33,-0.3,116.35,-5.8,6.6
5.78,2.5,0.0,0.75,0.5,0.0,0.0,0.25,0.0,0.0,0.0,0.0,0.0,0.25,0.39,-0.55,0.7,72.72,30.1,70.1,1.25,0.5,1.25,0.25,0.0,1.25,0.5,0.0,0.25,1.25,0.25,0.25,0.5,0.77,0.33,-0.3,113.95,-8.8,13.9
5.8,1.75,0.0,0.75,1.0,0.0,0.0,0.25,0.0,0.0,0.0,0.0,0.0,0.25,0.39,-0.55,0.7,70.84,27.4,63.3,1.25,0.5,1.75,0.25,0.5,1.5,0.25,0.0,0.25,1.25,0.25,0.25,0.5,0.77,0.33,-0.3,117.56,-8.5,19.9
5.82,1.25,0.25,0.75,1.25,0.0,0.0,0.25,0.0,0.0,0.0,0.0,0.0,0.25,0.39,-0.55,0.7,68.25,24.8,61.2,1.25,0.5,0.75,0.25,0.5,1.25,0.5,0.0,0.25,1.25,0.5,0.25,0.75,0.77,0.33,-0.3,118.08,-5.2,6.8
5.84,1.75,0.0,0.75,0.25,0.0,0.0,0.25,0.0,0.0,0.0,0.25,0.0,0.25,0.39,-0.55,0.7,63.96,28.6,54.4,1.25,0.5,1.25,0.25,1.0,1.25,0.5,0.0,0.25,1.25,0.5,0.25,0.5,0.77,0.33,-0.3,123.66,-7.2,16.7
5.86,1.75,0.0,0.75,1.25,0.0,0.0,0.0,0.0,0.0,0.0,0.25,0.0,0.25,0.39,-0.55,0.64,66.52,25.7,56.0,1.0,0.5,1.0,0.25,0.5,1.5,0.5,0.0,0.25,1.25,0.25,0.25,0.75,0.77,0.33,-0.3,124.08,-4.4,9.2
5.88,1.5,0.0,0.75,1.75,0.0,0.0,0.25,0.0,0.25,0.0,0.25,0.0,0.25,0.39,-0.55,0.64,71.94,23.8,48.7,1.0,0.5,1.0,0.25,0.5,1.25,0.5,0.0,0.25,1.0,0.0,0.25,0.75,0.77,0.33,-0.3,119.82,-5.8,14.4
5.9,1.75,0.0,0.75,1.0,0.0,0.0,0.25,0.0,0.0,0.0,0.5,0.0,0.25,0.39,-0.55,0.64,75.43,25.5,47.7,1.0,0.5,1.0,0.25,1.0,1.25,0.25,0.0,0.25,1.25,0.25,0.25,0.5,0.77,0.33,-0.3,116.56,-4.8,15.5
5.92,1.75,0.0,0.75,1.0,0.0,0.0,0.25,0.0,0.0,0.25,0.5,0.0,0.5,0.39,-0.55,0.7,78.41,21.3,32.9,1.0,0.25,0.75,0.5,0.25,1.25,0.25,0.0,0.25,1.25,0.75,0.25,0.5,0.77,0.33,-0.3,113.7,-5.2,1.5
5.94,1.75,0.0,0.5,1.0,0.0,0.0,0.25,0.0,0.0,0.0,0.5,0.0,0.25,0.39,-0.55,0.64,75.05,24.7,46.9,1.25,0.5,0.75,0.5,0.5,1.25,0.5,0.0,0.25,1.25,0.0,0.25,0.5,0.77,0.33,-0.3,112.63,-5.9,18.3
5.96,1.75,0.0,0.75,1.25,0.0,0.0,0.25,0.0,0.0,0.0,0.5,0.0,0.25,0.39,-0.55,0.7,75.9,25.0,48.3,1.25,0.5,1.25,0.5,0.25,1.25,0.5,0.0,0.25,1.25,0.25,0.25,0.25,0.77,0.33,-0.3,113.28,-9.4,21.2
5.98,1.25,0.0,0.75,1.0,0.0,0.0,0.25,0.0,0.0,0.0,0.5,0.0,0.25,0.39,-0.55,0.64,71.75,24.4,41.7,1.25,0.25,0.75,0.25,0.5,1.25,0.25,0.0,0.25,1.25,0.75,0.25,0.5,0.77,0.33,-0.3,113.43,-5.3,4.6
6.0,0.75,0.0,0.75,0.75,0.0,0.0,0.0,0.0,0.0,0.0,0.5,0.0,0.25,0.39,-0.55,0.7,64.44,23.1,32.1,1.25,0.5,1.0,0.5,0.5,1.25,0.25,0.0,0.25,1.25,0.75,0.25,0.75,0.77,0.33,-0.3,118.25,-6.4,7.4
6.02,2.0,0.0,0.75,0.0,0.0,0.0,0.0,0.0,0.25,0.0,0.5,0.0,0.25,0.39,-0.55,0.7,60.62,27.4,42.8,1.25,0.5,1.25,0.25,0.5,1.25,0.5,0.0,0.25,1.25,0.25,0.25,0.5,0.77,0.33,-0.3,119.59,-7.9,16.8
6.04,1.5,0.25,0.75,1.25,0.0,0.0,0.0,0.0,0.25,0.0,0.75,0.0,0.25,0.39,-0.55,0.7,66.02,22.4,38.8,1.25,0.5,0.75,0.25,1.0,1.5,0.25,0.0,0.25,1.25,0.25,0.25,1.0,0.77,0.33,-0.3,123.88,-2.7,9.3
6.06,1.75,0.0,0.75,1.0,0.0,0.0,0.0,0.0,0.0,0.0,0.5,0.0,0.25,0.39,-0.55,0.7,68.85,25.3,48.3,1.25,0.5,1.0,0.25,1.0,1.25,0.5,0.0,0.25,1.25,0.25,0.25,0.5,0.77,0.33,-0.3,125.75,-6.1,18.1
6.08,1.5,0.0,0.75,1.25,0.0,0.0,0.0,0.0,0.0,0.0,0.75,0.0,0.25,0.39,-0.55,0.64,72.85,23.6,39.6,1.25,0.5,1.0,0.25,0.25,1.25,0.25,0.0,0.25,1.25,0.0,0.25,0.75,0.77,0.33,-0.3,122.05,-5.9,12.1
6.1,1.5,0.0,0.75,1.25,0.0,0.0,0.0,0.0,0.0,0.0,0.75,0.0,0.25,0.39,-0.55,0.7,73.49,23.6,39.6,1.0,0.25,0.75,0.5,1.25,1.25,0.5,0.0,0.25,1.25,0.25,0.25,0.5,0.77,0.33,-0.3,121.93,-4.0,14.3
