time,left pressure 0[N/cm²],left pressure 1[N/cm²],left pressure 2[N/cm²],left pressure 3[N/cm²],left pressure 4[N/cm²],left pressure 5[N/cm²],left pressure 6[N/cm²],left pressure 7[N/cm²],left pressure 8[N/cm²],left pressure 9[N/cm²],left pressure 10[N/cm²],left pressure 11[N/cm²],left pressure 12[N/cm²],left acceleration X[g],left acceleration Y[g],left acceleration Z[g],left total force[N],left center of pressure X[mm],left center of pressure Y[mm],right pressure 0[N/cm²],right pressure 1[N/cm²],right pressure 2[N/cm²],right pressure 3[N/cm²],right pressure 4[N/cm²],right pressure 5[N/cm²],right pressure 6[N/cm²],right pressure 7[N/cm²],right pressure 8[N/cm²],right pressure 9[N/cm²],right pressure 10[N/cm²],right pressure 11[N/cm²],right pressure 12[N/cm²],right acceleration X[g],right acceleration Y[g],right acceleration Z[g],right total force[N],right center of pressure X[mm],right center of pressure Y[mm]
0.02,0.25,0.0,1.0,2.25,0.0,0.0,0.0,0.0,0.0,0.25,0.5,0.0,0.0,0.45,2.2,1.89,50.61,20.5,38.2,3.0,0.25,0.5,2.75,1.25,0.0,0.75,0.25,0.25,0.0,0.25,0.0,0.0,0.33,1.02,2.77,317.89,-19.8,60.8
0.04,0.25,0.0,0.75,2.25,0.0,0.0,0.0,0.0,0.25,0.5,0.0,0.0,0.25,1.02,2.7,1.08,69.11,16.0,29.9,1.5,0.0,0.0,1.5,0.25,0.0,0.25,0.25,0.25,0.0,0.0,0.0,0.0,0.02,0.52,2.39,148.13,-20.0,58.7
0.06,0.0,0.0,1.0,2.0,0.0,0.0,0.0,0.0,0.25,0.25,0.0,0.0,0.25,1.83,3.83,0.7,75.21,18.3,32.8,0.0,0.25,0.0,0.5,0.5,0.0,0.25,0.0,0.25,1.25,0.0,0.25,0.0,0.7,0.39,2.2,0.0,0.0,-12.7
0.08,0.0,0.0,0.75,2.25,0.0,0.0,0.0,0.0,0.5,0.0,0.0,0.0,0.25,2.2,4.39,0.27,76.22,18.7,35.1,0.0,0.0,0.0,2.75,0.0,0.0,0.0,0.25,0.5,0.0,0.25,0.0,0.0,1.14,-0.98,1.89,0.0,-13.9,30.9
0.1,0.0,0.0,1.0,1.75,0.0,0.0,0.0,0.0,0.25,0.5,0.0,0.0,0.25,0.83,0.77,1.7,72.64,16.1,24.1,0.0,0.0,1.0,0.5,0.0,0.0,0.0,0.0,0.0,0.0,0.0,0.0,0.0,0.7,-1.11,0.2,0.0,-31.1,59.9
0.12,0.0,0.0,1.0,1.5,0.0,0.0,0.0,0.0,0.25,1.5,0.0,0.25,0.75,-1.48,-1.3,1.95,76.51,6.9,-15.1,0.0,0.0,0.0,0.5,0.25,0.0,0.0,0.25,0.0,0.0,0.75,0.0,0.0,0.58,-1.48,1.14,0.0,-6.5,-10.4
0.14,0.0,0.0,0.0,1.0,0.0,0.0,0.0,0.0,0.0,1.25,0.0,2.0,2.25,-0.23,-0.23,0.95,93.52,-2.3,-76.7,0.0,0.0,0.0,0.25,0.0,0.0,0.0,0.25,0.0,0.0,0.0,0.0,0.0,0.27,-0.42,0.83,0.0,-0.6,10.6
0.16,0.0,0.0,0.25,0.25,0.0,0.0,0.0,0.0,0.75,4.75,0.0,4.25,5.25,0.64,0.39,2.14,157.3,-5.6,-90.4,0.0,0.0,0.0,0.5,0.0,0.0,0.0,0.0,0.0,0.0,0.0,0.0,0.0,0.08,-0.48,0.39,0.0,-17.2,57.9
0.18,0.75,0.0,0.0,0.0,0.0,0.0,0.0,0.0,0.0,6.25,4.75,4.75,6.5,-0.61,0.33,1.95,244.09,-3.2,-87.3,1.25,1.0,0.0,2.0,0.25,1.5,0.0,0.0,0.25,0.0,0.0,0.0,0.0,0.33,-0.36,0.52,0.0,-9.5,62.7
0.2,0.0,0.0,0.0,0.75,0.0,0.0,0.0,5.25,0.0,6.5,0.0,5.0,6.75,-0.05,0.2,1.14,314.81,-9.3,-80.1,0.25,0.25,0.5,1.25,0.0,1.75,0.25,0.25,0.5,0.5,0.25,0.25,0.0,0.45,-0.36,0.83,0.0,-3.1,17.7
0.22,0.0,0.0,0.0,0.0,0.0,0.0,0.0,5.5,0.0,6.5,5.5,5.0,6.75,-0.11,0.08,1.02,396.48,-6.4,-82.6,0.5,0.25,0.0,1.25,0.25,2.0,0.25,0.0,0.5,1.25,0.0,0.25,0.5,0.39,-0.23,0.95,34.6,2.4,4.8
0.24,0.0,0.0,0.0,0.0,0.0,0.0,0.0,5.5,0.75,6.5,0.0,5.0,6.5,-0.17,0.08,0.95,427.8,-9.5,-82.5,0.75,0.25,0.75,0.25,1.0,0.0,0.75,0.5,0.25,0.75,0.0,0.25,0.5,0.33,0.08,0.95,74.93,-8.2,10.1
0.26,0.0,0.0,0.0,0.25,0.25,1.25,0.25,5.5,0.75,6.5,6.0,5.25,6.75,-0.17,0.08,0.95,486.67,-5.8,-74.7,0.0,0.0,0.0,0.75,0.0,1.75,0.25,0.0,0.25,1.0,0.0,0.25,0.0,0.39,0.33,1.02,88.73,7.6,-1.7
0.28,0.0,0.0,0.0,1.5,0.0,1.25,0.25,6.0,1.75,6.5,5.5,5.25,6.75,-0.11,0.08,0.95,530.42,-4.8,-69.2,1.25,1.0,2.0,1.5,0.5,1.5,0.25,0.0,0.25,0.0,0.0,0.0,0.0,0.39,0.33,1.27,108.16,-16.1,61.7
0.3,0.0,0.0,0.0,2.0,0.0,1.25,0.5,6.0,1.75,6.5,0.0,5.0,6.5,-0.11,0.02,0.95,539.59,-7.2,-64.7,0.0,0.5,2.0,0.25,0.5,0.0,0.25,0.5,0.0,0.0,0.75,0.0,0.5,0.39,0.39,1.39,106.25,-15.9,18.0
0.32,0.0,0.0,0.0,0.5,0.0,1.25,0.25,6.0,1.5,6.5,6.0,5.0,6.25,-0.11,0.08,0.95,551.68,-5.4,-72.6,1.25,0.75,0.0,1.0,0.25,1.25,0.25,0.25,0.25,1.0,0.25,0.25,0.75,0.33,0.58,1.58,117.52,-2.9,11.6
0.34,0.0,0.0,1.0,0.25,0.0,1.5,0.5,6.0,1.75,6.25,5.75,5.0,6.0,-0.17,0.08,0.95,552.49,-4.1,-67.8,0.25,0.25,2.0,0.5,0.5,0.0,0.5,0.0,0.25,1.0,0.0,0.25,0.0,0.45,0.7,1.77,111.86,-17.5,24.0
0.36,0.5,0.5,1.0,1.75,0.5,1.25,0.75,6.0,2.75,5.75,6.25,4.5,6.0,-0.17,0.08,0.95,564.11,-1.6,-55.2,1.25,0.75,2.0,1.0,1.0,1.75,0.25,0.0,0.25,1.0,0.75,0.25,0.25,0.64,0.77,1.95,134.27,-9.9,28.9
0.38,0.5,0.5,1.0,2.75,1.75,1.25,0.75,6.0,2.75,5.75,5.75,4.0,5.5,-0.11,0.02,0.95,564.5,-1.3,-46.3,1.25,0.75,1.75,1.25,0.5,1.75,0.25,0.0,0.25,1.0,0.75,0.25,0.5,0.7,1.27,2.33,146.54,-9.5,24.0
0.4,0.5,0.5,1.25,4.0,2.0,2.0,0.75,6.0,3.0,4.75,5.5,3.5,4.5,-0.11,0.08,0.95,558.35,-0.2,-36.2,1.5,1.0,1.75,1.0,0.5,1.75,0.25,0.5,0.25,1.0,0.75,0.25,0.5,0.58,1.83,2.2,164.13,-8.7,23.6
0.42,1.0,1.0,1.25,4.0,3.0,2.0,0.75,5.75,3.0,4.5,5.5,3.0,4.0,-0.11,0.08,0.95,544.85,0.5,-27.9,1.25,1.0,1.75,1.25,0.5,1.5,0.5,0.0,0.25,1.0,0.25,0.25,0.75,0.08,2.7,1.64,166.8,-9.9,27.0
0.44,1.5,1.0,1.75,4.5,3.25,2.5,1.0,5.5,3.0,3.75,4.5,2.5,3.25,-0.11,0.08,0.95,532.77,1.8,-17.4,1.25,1.0,1.75,0.75,0.5,1.25,0.5,0.0,0.25,0.75,1.0,0.25,0.5,-0.48,3.14,0.58,168.07,-11.7,23.7
0.46,2.25,1.0,2.75,5.75,3.25,2.5,1.25,5.5,3.0,3.0,4.0,2.0,2.75,-0.11,0.08,0.95,531.39,4.3,-6.3,1.25,0.25,0.0,0.75,0.0,1.25,0.25,0.0,0.25,0.75,0.0,0.25,0.0,-1.23,4.33,0.33,140.23,-5.8,28.4
0.48,2.25,1.0,2.75,6.25,4.5,2.75,1.5,5.5,2.75,3.0,4.25,1.75,1.75,-0.11,0.08,0.95,544.29,4.5,0.0,1.25,1.0,1.0,0.5,1.25,1.25,0.25,0.0,0.25,1.0,0.75,0.25,0.5,-3.3,4.58,1.39,137.31,-7.0,22.3
0.5,2.5,0.75,3.0,7.75,5.25,2.75,1.5,5.25,2.75,1.75,3.25,1.0,1.75,-0.11,0.08,0.95,552.02,5.8,10.4,0.5,1.0,1.0,0.75,1.0,1.25,0.5,0.25,0.25,0.0,1.0,0.75,1.25,-0.17,-0.55,0.2,134.73,-6.1,5.2
0.52,2.25,1.0,3.0,8.0,5.5,3.0,1.75,4.75,2.5,1.25,3.25,1.0,1.75,-0.11,0.08,0.95,562.62,6.1,13.4,1.25,1.0,1.25,0.75,0.0,0.75,0.25,0.75,0.25,3.0,1.5,2.75,4.25,1.02,0.14,2.2,177.34,-1.5,-44.6
0.54,3.5,1.0,3.25,9.0,6.25,3.25,1.75,4.75,2.25,1.25,2.5,1.0,1.5,-0.11,0.08,0.95,587.06,7.0,20.8,1.25,0.25,0.5,0.25,1.0,0.0,0.0,0.0,0.5,6.25,1.0,5.5,6.0,-0.36,0.02,0.7,242.09,2.3,-70.2
0.56,2.75,1.5,4.5,10.0,7.0,3.25,2.0,4.75,1.75,1.25,2.25,1.0,1.5,-0.11,0.08,0.95,616.03,7.6,24.4,1.5,0.0,0.5,0.75,1.75,0.0,0.5,1.75,0.25,7.25,5.5,5.75,7.75,-0.17,0.7,3.83,340.22,1.7,-66.2
0.58,3.75,1.0,4.75,10.5,7.0,3.25,2.25,4.25,1.75,1.25,1.75,1.0,1.0,-0.11,0.08,0.95,646.78,9.0,29.1,1.5,0.75,1.75,0.75,1.5,2.75,0.25,4.5,1.0,8.5,6.75,6.25,8.0,0.2,0.52,1.08,490.69,2.3,-53.9
0.6,4.0,2.0,5.5,11.5,7.75,3.25,2.25,3.75,1.25,1.25,1.75,1.0,1.0,-0.11,0.08,0.95,691.33,9.9,34.1,1.25,0.75,1.75,0.5,2.25,2.25,0.25,4.5,1.0,8.5,6.25,6.0,8.25,-0.05,0.08,1.02,623.75,2.7,-53.9
0.62,5.5,2.25,6.0,11.0,8.0,3.5,2.75,3.5,0.75,1.0,1.5,1.0,1.0,-0.11,0.08,0.95,736.52,10.9,38.7,1.5,1.0,1.75,0.5,2.25,3.75,0.25,4.5,1.0,8.5,6.5,5.75,8.25,0.14,0.08,0.95,727.21,3.0,-49.4
0.64,5.25,2.5,6.5,12.5,8.25,3.25,2.75,3.5,0.0,1.25,1.0,0.5,0.75,-0.11,0.14,0.95,776.97,11.4,43.7,1.5,1.0,2.0,1.25,1.75,4.0,0.5,4.75,1.0,8.5,6.25,5.75,8.0,0.14,0.08,0.95,780.57,2.6,-47.0
0.66,6.25,2.75,6.75,13.5,8.5,2.75,2.75,3.25,0.25,1.25,1.0,0.5,0.75,-0.17,0.14,1.02,818.8,12.5,45.6,1.5,1.0,1.5,1.5,3.0,4.25,0.5,5.25,1.0,8.5,6.5,5.5,8.0,0.08,0.08,0.95,816.81,3.1,-43.9
0.68,0.0,3.0,7.5,14.0,8.75,2.5,2.75,3.5,0.0,1.25,1.25,0.75,0.5,-0.11,0.14,1.08,815.28,10.2,39.2,1.5,1.0,2.0,1.75,3.25,4.5,0.75,5.5,1.25,8.25,6.5,5.5,7.75,0.08,0.08,0.95,836.99,2.5,-40.6
0.7,0.0,0.0,7.5,8.0,8.75,0.0,2.5,2.25,0.0,0.0,0.0,0.0,0.0,-0.11,0.14,1.08,684.3,13.7,48.6,1.25,1.0,2.0,2.75,4.25,4.5,0.75,5.5,1.25,8.0,6.0,5.0,7.5,0.08,0.08,0.95,847.54,2.4,-35.5
0.72,7.25,3.5,2.0,14.0,0.0,3.5,0.0,0.0,0.5,0.5,0.0,0.25,0.0,-0.17,0.2,1.08,578.76,17.0,63.9,1.5,1.0,2.0,2.75,4.5,4.75,0.75,5.5,1.5,7.75,6.0,4.25,7.0,0.14,0.08,0.95,829.74,2.2,-31.9
0.74,7.25,3.75,8.25,14.0,8.0,1.25,2.75,3.75,0.0,0.5,0.25,0.5,0.0,-0.23,0.27,1.14,614.33,15.5,53.9,2.75,1.0,2.25,2.75,4.25,5.0,1.0,5.5,1.75,7.5,5.75,3.5,6.25,0.14,0.08,0.95,798.32,1.0,-25.5
0.76,0.75,0.0,7.25,6.5,7.5,0.0,1.0,1.75,0.0,0.0,0.0,0.0,0.25,-0.23,0.27,1.33,522.55,14.5,49.7,2.75,1.0,2.5,3.25,5.0,5.75,1.25,5.75,1.75,7.25,5.0,3.0,6.0,0.14,0.08,0.95,768.06,1.1,-19.7
0.78,8.0,2.5,7.5,11.5,5.75,0.0,0.5,1.75,0.0,0.75,0.0,0.0,0.25,-0.3,0.33,1.39,544.35,18.6,59.9,3.0,1.0,2.5,4.0,5.25,6.0,1.5,5.5,1.75,6.75,3.75,3.0,5.5,0.14,0.08,0.95,741.16,0.6,-14.1
0.8,7.5,1.75,6.75,9.0,0.0,0.0,0.0,2.0,0.25,0.0,1.0,0.25,0.25,-0.55,0.45,1.58,470.3,23.3,55.9,3.25,1.25,2.75,4.75,6.25,6.0,1.5,5.5,1.75,6.0,3.75,2.25,4.5,0.14,0.08,0.95,726.99,-0.3,-5.5
0.82,7.0,1.0,3.0,6.25,0.0,0.0,0.0,2.0,0.5,0.5,0.75,0.0,0.25,-1.05,0.89,1.95,389.84,20.8,51.5,3.75,1.5,3.75,5.5,6.5,6.5,2.25,5.5,1.75,5.25,3.5,1.5,4.0,0.14,0.08,0.95,734.76,-1.9,3.1
0.84,5.25,1.0,2.75,4.0,0.0,0.0,0.0,0.0,0.5,0.25,0.75,0.0,0.25,-0.86,0.95,2.2,280.73,25.2,59.6,3.75,1.75,4.75,6.5,7.25,6.5,2.0,5.25,1.75,4.75,2.75,1.5,3.0,0.14,0.08,0.95,760.2,-3.3,10.9
0.86,2.75,0.5,1.25,2.5,0.0,0.0,0.0,0.0,0.25,0.5,0.75,0.0,0.25,-0.3,0.52,2.52,194.38,21.8,46.1,3.75,2.0,5.0,7.25,8.0,6.75,2.25,4.5,1.5,3.75,2.0,1.0,2.5,0.14,0.08,0.95,775.39,-4.2,19.7
0.88,0.0,0.0,1.25,0.25,0.0,0.0,0.0,0.0,0.0,0.5,0.0,0.0,0.25,-0.86,0.2,2.52,79.15,18.3,11.9,3.75,2.0,4.75,8.75,8.25,6.75,2.25,4.5,1.0,3.0,2.5,0.75,2.5,0.14,0.08,0.95,790.64,-4.6,22.5
0.9,0.0,0.0,0.0,1.0,0.0,0.0,0.0,0.0,0.0,0.0,0.0,0.0,0.0,-1.11,-0.86,1.7,0.0,17.2,57.9,4.0,2.0,5.0,9.0,9.0,7.25,2.25,3.75,1.0,2.5,2.0,0.75,2.25,0.14,0.08,0.95,801.66,-5.2,27.3
0.92,0.0,0.0,0.0,2.25,0.0,0.0,0.0,0.0,0.5,0.5,0.0,0.0,0.25,-0.92,-0.42,1.27,0.0,9.7,14.2,4.25,2.25,5.25,10.5,9.25,7.25,2.5,3.25,1.0,2.75,2.5,0.75,2.25,0.14,0.08,0.95,832.1,-6.0,28.4
0.94,0.0,0.0,0.0,0.5,0.0,0.0,0.0,0.0,0.0,0.0,0.0,0.0,0.0,-0.98,-0.86,0.45,0.0,17.2,57.9,4.25,2.5,6.0,11.0,9.75,7.5,2.5,3.0,0.75,2.5,1.5,0.5,1.5,0.14,0.08,0.95,860.46,-6.7,35.4
0.96,0.0,0.0,0.0,0.5,0.0,0.0,0.0,0.0,0.0,0.0,0.0,0.0,0.0,-0.8,-0.67,0.58,0.0,17.2,57.9,4.5,2.5,6.5,12.5,11.0,7.5,2.5,2.5,0.5,2.5,1.75,0.5,1.5,0.08,0.14,0.95,910.92,-7.4,37.5
0.98,0.0,0.0,0.0,0.5,0.0,0.0,0.0,0.0,0.0,0.0,0.0,0.0,0.0,-0.48,-0.36,0.39,0.0,17.2,57.9,5.25,2.75,6.5,12.5,11.0,7.5,2.5,2.0,0.5,2.25,1.5,0.5,1.5,0.08,0.14,0.95,947.43,-8.0,40.1
1.0,0.25,0.0,0.0,2.25,0.0,0.0,0.0,1.75,0.5,0.5,0.0,0.0,0.0,-0.42,-0.3,0.39,0.0,3.2,6.5,5.5,2.75,6.75,13.0,11.0,7.5,2.25,1.75,0.5,1.75,1.5,0.25,1.25,0.08,0.14,0.95,972.91,-8.7,43.4
1.02,0.25,0.0,1.5,2.25,0.0,0.0,0.0,0.0,0.25,0.5,0.0,0.0,0.25,-0.48,-0.3,0.64,0.0,19.3,34.6,5.75,2.5,6.75,14.0,12.0,7.5,1.75,1.75,0.5,1.25,1.75,0.25,1.0,0.08,0.14,0.95,995.26,-9.0,45.1
1.04,0.0,0.0,0.0,0.5,0.0,0.0,0.0,0.0,0.0,0.0,0.0,0.0,0.0,-0.48,-0.3,0.77,0.0,17.2,57.9,5.75,2.75,6.75,14.0,12.0,7.75,1.75,1.75,0.5,1.25,0.5,0.25,1.0,0.08,0.14,0.95,1004.71,-8.8,47.9
1.06,0.5,0.0,1.5,2.25,0.0,0.0,0.0,1.75,0.25,0.0,0.0,0.0,0.25,-0.42,-0.11,0.89,38.86,13.0,25.7,6.75,3.75,7.5,15.0,12.5,7.5,1.5,1.25,0.5,1.25,0.25,0.25,1.0,0.08,0.14,1.02,1036.64,-10.0,51.2
1.08,0.25,0.0,1.0,2.25,0.0,0.0,0.0,0.0,0.0,0.0,0.0,0.0,0.25,-0.3,0.08,1.08,54.9,21.8,49.9,7.0,4.25,7.5,15.5,12.5,7.75,1.25,0.5,0.5,1.0,0.25,0.25,1.0,0.08,0.2,1.02,1067.28,-10.4,53.5
1.1,0.0,0.0,0.0,0.5,0.0,0.0,0.0,0.0,0.0,0.0,0.0,0.0,0.0,-0.11,0.2,1.33,52.07,17.2,57.9,7.0,3.25,7.5,15.0,12.0,6.75,1.0,0.0,0.5,0.0,0.0,0.0,0.25,0.08,0.2,1.02,1050.25,-12.0,59.8
1.12,0.25,0.0,1.0,2.0,0.0,0.0,0.0,0.0,0.0,0.25,0.0,0.0,0.25,-0.05,0.27,1.45,56.9,19.7,41.3,7.0,3.25,7.5,15.5,12.0,6.5,1.25,0.25,0.5,1.25,1.75,0.25,0.75,0.14,0.27,1.08,1047.79,-11.3,50.4
1.14,0.0,0.0,1.25,2.25,0.0,0.0,0.0,0.0,0.0,0.25,0.0,0.0,0.25,-0.05,0.39,1.58,61.66,19.8,40.4,8.25,4.25,7.5,14.5,11.5,5.5,1.25,0.25,0.25,1.0,0.75,0.25,0.0,0.14,0.27,1.2,1022.15,-12.9,57.7
1.16,0.0,0.0,1.0,2.25,0.0,0.0,0.0,0.0,0.0,0.5,0.0,0.0,0.25,-0.17,0.52,1.7,66.25,16.5,32.1,8.25,3.5,6.75,14.0,9.25,2.5,1.25,0.25,0.25,1.25,0.75,0.25,0.5,0.2,0.33,1.39,951.28,-14.9,56.2
1.18,0.25,0.0,1.25,2.25,0.0,0.0,0.0,0.0,0.25,0.25,0.0,0.0,0.25,-0.36,0.52,1.89,74.84,20.1,39.1,6.75,2.0,5.0,9.25,8.75,1.25,0.75,0.25,0.25,1.25,0.25,0.25,0.5,0.39,0.39,1.83,792.37,-14.3,55.0
1.2,0.25,0.0,0.75,2.25,0.0,0.0,0.0,0.0,0.25,0.25,0.0,0.0,0.25,-0.42,0.64,2.27,77.55,17.9,36.3,5.5,1.25,1.25,5.5,5.5,0.0,1.25,1.0,0.5,0.75,0.75,0.25,0.5,0.95,0.89,2.33,568.01,-13.3,47.4
1.22,0.5,0.0,1.0,2.0,0.0,0.0,0.0,0.0,0.25,0.25,0.0,0.0,0.25,-0.3,1.14,2.45,75.59,20.1,39.8,2.75,0.0,0.5,2.75,1.0,0.0,1.0,0.75,0.0,0.0,0.0,0.0,0.0,0.52,1.14,3.58,320.45,-18.9,59.3
1.24,1.0,0.0,1.25,2.0,0.0,0.0,0.0,0.0,0.25,0.25,0.0,0.0,0.25,0.7,1.89,1.7,76.39,22.3,46.2,1.25,0.0,0.0,0.75,0.0,0.0,0.25,0.25,0.0,0.5,0.25,0.0,0.0,0.27,0.7,3.45,144.85,-15.9,31.7
1.26,0.25,0.0,1.25,2.0,0.0,0.0,0.0,0.0,0.25,0.25,0.0,0.0,0.25,0.39,2.45,1.58,78.81,20.3,37.9,0.0,0.0,1.75,0.5,0.0,0.0,0.0,0.0,0.0,0.0,0.5,0.0,0.0,1.45,-0.86,3.02,0.0,-29.6,36.9
1.28,0.25,0.0,1.0,1.75,0.0,0.0,0.0,0.0,0.25,0.25,0.0,0.0,0.25,0.83,3.08,0.83,77.35,19.3,35.0,0.0,0.0,0.0,0.5,0.0,0.0,0.0,0.0,0.0,0.0,0.0,0.0,0.5,1.08,-0.92,1.39,0.0,-1.8,-25.2
1.3,0.5,0.0,1.25,2.0,0.0,0.0,0.0,0.0,0.25,0.5,0.0,0.0,0.25,2.7,4.89,1.27,75.46,19.2,35.0,0.5,0.0,2.0,0.75,0.25,0.25,0.0,0.25,0.25,0.0,0.0,0.0,0.5,0.64,-0.86,0.7,0.0,-19.4,33.9
1.32,1.0,0.0,1.0,1.75,0.0,0.0,0.0,0.0,0.25,0.25,0.0,0.0,0.25,3.08,4.14,0.02,78.75,21.7,44.7,0.0,0.0,0.25,0.5,0.0,0.0,0.25,0.0,0.0,0.0,0.0,0.0,0.0,0.33,-0.17,0.77,0.0,-25.2,54.7
1.34,0.25,0.0,0.75,1.25,0.0,0.0,0.0,0.0,0.25,1.25,0.0,1.0,1.5,-0.73,-0.05,0.39,87.4,4.9,-37.3,1.25,0.25,0.5,0.5,0.0,0.0,0.0,0.25,0.0,0.0,0.0,0.0,0.5,0.33,-0.42,0.33,0.0,-19.0,41.8
1.36,0.0,0.0,1.0,0.25,0.0,0.0,0.0,0.0,0.0,3.0,0.0,4.0,4.25,-0.73,-0.36,1.27,130.17,-2.1,-84.3,0.0,0.0,0.0,0.5,0.0,0.0,0.0,0.0,0.0,0.0,0.0,0.0,0.0,0.27,-0.23,0.2,0.0,-17.2,57.9
1.38,0.0,0.5,0.0,0.0,0.0,0.0,0.0,2.5,0.0,7.25,3.75,5.25,5.75,0.89,1.02,2.14,229.48,-5.7,-83.5,0.0,0.0,0.0,0.25,0.0,0.0,0.25,0.0,0.0,0.0,0.0,0.0,0.0,0.39,-0.3,0.02,0.0,-21.9,48.3
1.4,0.0,0.0,0.0,1.0,0.0,0.0,0.0,5.5,0.0,6.75,0.0,5.5,6.75,-0.23,0.52,1.2,307.15,-8.8,-78.8,0.0,0.0,0.0,0.5,0.25,0.25,0.5,0.0,0.0,0.0,0.0,0.0,0.0,0.64,-0.36,-0.11,0.0,-8.0,46.8
1.42,0.75,0.0,0.0,0.5,0.0,0.0,0.0,5.5,0.75,6.75,5.5,5.5,6.75,0.02,0.08,1.08,411.06,-4.5,-75.7,1.0,1.0,0.25,1.75,0.0,2.0,0.25,0.0,0.25,1.25,0.0,0.25,0.25,0.52,-0.05,0.02,0.0,-3.6,27.6
1.44,0.0,0.0,0.0,0.5,0.0,1.25,0.25,5.5,0.75,6.75,6.0,5.5,6.75,-0.17,0.08,0.95,497.6,-5.6,-75.0,1.25,1.0,2.0,1.25,0.5,1.75,0.75,0.25,0.25,1.0,0.75,0.25,0.75,0.27,0.08,0.27,80.2,-9.6,22.2
1.46,0.0,0.0,0.0,0.0,0.0,1.25,0.25,5.75,0.75,6.75,2.75,5.5,6.75,-0.17,0.08,0.95,534.01,-7.9,-77.0,1.25,1.0,1.75,1.5,1.25,1.75,0.25,0.25,0.25,1.0,0.5,0.25,0.5,0.27,0.08,0.39,147.55,-8.2,29.3
1.48,0.75,0.0,0.0,0.0,0.0,0.75,0.25,5.75,0.75,6.75,6.75,5.5,6.75,-0.17,0.02,0.95,562.96,-4.6,-74.8,1.25,1.0,1.75,1.75,0.5,2.0,0.5,0.25,0.25,1.0,0.75,0.25,0.5,0.08,0.02,0.52,181.98,-8.9,26.1
1.5,1.25,0.0,0.75,0.0,0.0,1.25,0.25,5.5,1.75,6.75,6.25,5.5,6.75,-0.11,0.08,0.95,589.04,-3.1,-67.4,1.5,1.0,1.5,1.75,1.0,1.25,0.5,0.25,0.25,1.0,0.75,0.25,1.0,-0.11,-0.05,0.7,197.37,-9.1,21.7
1.52,0.5,0.0,0.0,0.25,0.0,1.25,0.25,5.75,2.25,6.5,6.75,5.5,6.75,-0.11,0.02,0.95,609.49,-4.2,-72.0,0.75,1.0,1.75,1.25,1.0,1.5,0.25,0.25,0.25,1.0,0.75,0.25,1.0,-0.05,-0.11,0.95,198.45,-6.8,16.2
1.54,1.25,0.0,0.0,1.25,0.0,1.5,0.5,5.75,2.25,6.5,6.75,5.0,6.25,-0.11,0.02,0.95,615.53,-2.9,-62.9,1.25,1.0,1.75,1.5,1.0,1.25,0.5,0.25,0.25,1.0,0.25,0.25,0.5,0.08,-0.05,1.14,194.47,-10.1,30.8
1.56,1.5,0.0,0.0,2.25,0.75,2.0,0.5,6.0,2.25,6.25,6.5,4.75,6.0,-0.17,0.02,0.95,619.98,-2.4,-53.9,1.25,1.0,1.75,1.25,1.25,1.75,0.5,0.0,0.25,1.0,0.25,0.25,0.5,0.2,0.08,1.27,194.79,-8.7,32.5
1.58,1.25,0.25,0.0,2.25,0.0,1.25,0.5,6.0,2.5,5.75,6.25,4.0,5.75,-0.17,0.02,0.95,590.71,-2.1,-56.0,0.75,1.0,1.5,1.25,0.5,1.25,0.25,0.0,0.25,1.0,0.5,0.25,0.5,0.08,0.2,1.33,182.12,-9.1,23.4
1.6,1.75,0.0,0.0,2.25,1.25,2.75,0.5,6.0,2.75,5.75,5.75,4.0,5.25,-0.11,0.02,0.95,564.63,-2.5,-46.5,1.25,1.0,1.75,1.25,1.0,1.5,0.25,0.0,0.25,1.0,0.25,0.25,0.75,-0.05,0.33,1.64,178.82,-8.9,28.5
1.62,2.25,0.5,1.5,2.5,2.5,3.25,0.75,5.75,2.75,5.0,5.5,3.25,4.25,-0.11,0.02,0.95,541.8,0.0,-29.6,1.5,1.0,1.75,1.0,1.25,1.0,0.25,0.25,0.25,1.0,0.25,0.25,0.75,0.02,0.7,2.08,172.58,-9.8,28.1
1.64,2.5,0.75,1.5,3.0,3.0,3.25,0.5,6.0,2.75,4.5,5.5,3.0,4.0,-0.11,0.08,0.95,540.02,0.4,-24.3,1.5,1.0,1.75,1.25,0.5,0.75,0.5,0.0,0.25,1.0,0.75,0.25,0.5,0.14,1.2,2.89,164.51,-13.6,26.8
1.66,4.75,1.0,1.25,4.0,4.0,3.75,0.75,6.0,2.75,3.0,4.25,2.0,2.5,-0.11,0.08,0.95,541.51,2.9,-3.5,1.5,1.0,1.5,1.0,1.25,1.0,0.75,0.25,0.25,1.0,0.25,0.25,0.5,0.14,1.83,2.64,156.97,-10.2,30.8
1.68,5.25,1.0,1.25,4.5,4.75,4.0,1.0,5.5,2.25,2.5,3.5,1.25,1.75,-0.11,0.08,0.95,545.56,3.7,7.6,1.5,0.75,1.25,1.25,1.0,1.25,0.25,0.25,0.25,1.0,0.25,0.25,1.0,-0.05,2.45,1.45,154.35,-7.5,21.4
1.7,5.25,1.0,1.25,5.5,5.75,4.0,1.25,5.5,2.25,1.25,3.0,1.0,1.5,-0.11,0.08,0.95,550.39,4.6,15.7,1.5,0.75,1.75,1.25,1.0,1.25,0.25,0.25,0.25,1.0,0.5,0.25,0.75,-0.23,4.2,-0.05,156.94,-9.6,24.3
1.72,5.5,1.0,2.75,6.25,6.25,4.0,1.0,5.25,1.75,1.25,2.5,1.0,1.5,-0.11,0.08,0.95,560.18,6.1,21.3,1.25,0.75,1.5,0.5,0.5,1.25,0.25,0.25,0.25,1.0,0.5,0.25,0.5,-1.92,4.64,0.58,148.73,-8.9,20.2
1.74,5.75,1.0,2.75,7.5,6.5,4.25,1.5,4.75,1.75,1.25,2.25,1.0,1.25,-0.11,0.08,0.95,583.74,6.9,25.3,1.25,0.75,1.0,1.0,0.5,0.75,0.5,0.5,0.25,2.5,0.75,1.5,3.25,-0.11,-0.67,-0.17,165.19,-1.9,-29.8
1.76,5.25,1.0,3.0,8.0,7.0,4.5,1.25,4.5,1.5,1.25,2.25,1.0,1.25,-0.11,0.08,0.95,609.01,6.6,26.3,1.5,0.75,0.75,0.5,0.5,0.75,0.25,0.25,0.25,3.75,1.75,2.25,5.5,1.45,-1.98,2.64,202.3,0.8,-50.6
1.78,5.25,1.25,3.0,9.0,7.5,4.5,1.0,4.25,1.25,1.25,1.75,1.0,1.0,-0.11,0.08,0.95,633.62,6.9,30.7,1.25,0.0,0.75,0.5,0.5,2.0,0.25,1.75,0.5,6.75,2.5,2.75,6.25,0.64,1.33,0.77,266.52,5.0,-58.3
1.8,5.25,1.75,3.25,10.0,8.0,4.5,1.25,3.75,0.75,1.25,1.0,1.0,1.25,-0.11,0.08,0.95,658.85,7.3,35.1,0.5,0.5,1.75,0.0,1.5,3.0,0.25,4.5,1.0,8.75,4.5,5.5,7.5,0.08,0.33,1.52,382.55,4.7,-57.3
1.82,5.25,2.25,3.25,10.5,8.0,4.5,1.0,3.25,0.75,1.25,1.25,1.0,1.0,-0.11,0.14,0.95,681.02,7.9,37.2,1.5,1.0,2.0,1.25,2.5,5.0,0.75,6.25,1.0,9.0,7.5,6.0,8.0,0.08,0.45,1.08,574.88,3.0,-44.7
1.84,5.25,2.5,4.5,11.5,8.5,4.5,1.25,3.25,0.75,1.25,1.25,0.75,1.0,-0.11,0.14,0.95,715.8,8.8,39.6,1.5,1.0,1.75,0.75,1.75,5.5,0.75,6.25,1.0,8.75,7.25,5.75,8.0,0.14,0.08,0.95,732.2,3.7,-46.7
1.86,5.25,2.5,4.75,12.0,8.75,4.75,1.25,3.5,0.25,1.25,0.25,0.5,0.75,-0.11,0.14,0.95,743.85,8.8,44.4,1.75,1.0,1.75,1.0,3.5,5.25,0.5,6.5,1.0,8.75,6.75,5.5,8.0,0.2,0.08,0.89,844.15,3.7,-41.4
1.88,5.5,2.75,5.25,12.5,8.75,4.75,1.0,3.5,0.0,1.0,1.0,0.75,0.5,-0.11,0.14,1.02,776.46,9.5,44.6,1.75,0.75,2.0,1.25,3.5,5.5,0.5,6.5,1.0,8.75,6.5,5.25,8.0,0.14,0.08,0.95,894.68,3.6,-40.3
1.9,6.25,4.0,5.75,13.5,9.5,4.75,1.25,3.0,0.0,1.25,1.25,0.5,0.5,-0.17,0.14,1.08,828.7,10.4,47.6,2.5,0.75,2.0,1.75,3.75,6.0,0.75,6.25,1.0,8.75,6.25,5.0,7.0,0.14,0.08,0.89,905.77,2.9,-34.2
1.92,6.5,4.0,6.0,14.0,9.5,4.5,1.25,3.0,0.5,1.0,0.0,0.25,0.5,-0.17,0.14,1.08,872.2,11.0,51.4,3.0,1.0,2.0,2.0,4.25,6.0,0.75,6.75,1.0,8.5,6.0,4.25,7.25,0.14,0.08,0.95,901.15,2.7,-29.9
1.94,2.75,0.0,5.75,11.5,9.75,0.0,0.75,2.5,0.0,0.0,1.25,0.0,0.75,-0.17,0.2,1.08,781.38,12.5,45.0,3.0,1.0,2.0,2.75,4.75,6.0,0.75,6.25,1.0,8.0,5.5,4.0,6.75,0.08,0.08,0.95,885.3,2.2,-25.5
1.96,7.0,4.0,6.0,14.0,9.25,0.0,0.0,2.5,0.0,0.0,0.75,0.25,0.25,-0.17,0.2,1.08,757.51,15.2,57.4,4.0,1.0,2.25,2.75,4.5,6.0,0.75,6.25,1.0,7.75,4.5,3.0,6.25,0.08,0.08,0.95,853.45,1.6,-19.4
1.98,7.0,3.0,6.0,12.5,8.75,2.5,0.0,1.5,0.5,1.0,1.0,0.25,0.5,-0.23,0.27,1.33,727.76,13.2,51.9,4.5,1.0,2.5,2.75,5.0,6.5,1.0,6.25,1.0,7.0,4.0,2.5,5.5,0.14,0.08,0.95,809.38,1.0,-12.7
2.0,7.5,4.0,5.0,12.5,8.75,1.5,0.0,2.25,0.25,0.0,0.0,0.0,0.5,-0.36,0.33,1.39,722.9,13.9,59.2,5.5,1.25,2.5,2.75,4.75,6.75,1.25,6.25,1.0,6.75,3.75,1.5,4.75,0.14,0.08,0.95,766.18,0.2,-5.8
2.02,7.0,2.5,2.75,9.5,7.5,0.0,0.0,0.25,0.5,0.5,0.75,0.0,0.5,-0.55,0.33,1.58,634.98,15.3,58.3,6.0,1.25,3.0,2.75,5.5,6.75,1.25,6.0,1.0,6.0,2.5,1.5,4.0,0.14,0.08,0.95,724.72,-0.6,1.7
2.04,6.75,1.0,1.25,5.25,0.0,0.0,0.0,2.0,0.5,0.5,0.75,0.0,0.25,-0.98,0.7,2.14,466.41,19.1,49.6,6.75,1.25,3.5,4.0,5.75,6.75,1.25,5.75,1.0,6.0,2.5,1.5,4.0,0.14,0.08,0.95,710.82,-2.0,5.6
2.06,3.75,1.0,0.75,4.0,0.0,0.0,0.0,0.0,0.5,0.5,0.0,0.0,0.25,-0.61,1.02,3.02,294.2,21.5,60.4,7.5,1.25,4.0,4.25,6.0,6.75,1.5,5.5,1.0,5.5,2.5,1.25,3.25,0.08,0.08,0.95,717.0,-3.5,11.5
2.08,0.0,0.0,0.0,2.25,0.0,0.0,0.0,0.0,0.0,0.0,0.25,0.0,0.0,-0.11,0.14,2.77,140.04,16.6,45.4,7.75,1.75,4.75,4.5,6.5,6.75,1.75,5.5,1.0,4.25,2.5,1.0,3.25,0.08,0.08,0.95,745.97,-4.7,17.0
2.1,0.0,0.0,0.0,2.25,0.0,0.0,0.0,0.0,0.0,0.25,0.0,0.0,0.0,-0.92,0.02,2.7,12.01,14.0,45.1,8.25,1.75,4.75,5.0,6.25,6.75,2.25,4.75,1.0,4.0,2.5,1.0,2.5,0.08,0.08,0.95,762.37,-6.0,21.3
2.12,0.0,0.0,0.0,0.75,0.0,0.0,0.0,0.0,0.0,0.0,0.0,0.0,0.0,-1.36,-1.55,2.08,0.0,17.2,57.9,8.5,1.75,5.25,5.25,6.5,6.75,2.5,4.5,1.0,3.5,2.25,0.75,2.25,0.08,0.08,0.95,776.9,-7.0,25.5
2.14,0.0,0.0,0.25,0.5,0.0,0.0,0.0,0.0,0.0,0.0,0.0,0.0,0.5,-1.23,-1.36,0.33,0.0,9.1,-8.1,8.5,1.75,5.0,5.5,6.5,6.75,2.5,4.5,1.0,3.5,2.0,0.75,2.25,0.14,0.08,0.95,781.19,-6.8,26.0
2.16,0.75,0.25,0.5,2.25,0.0,0.0,0.0,0.0,0.0,0.0,0.0,0.0,0.25,-0.61,-1.17,-0.11,0.0,20.6,57.1,8.75,1.75,5.75,5.5,6.75,6.75,2.5,4.5,1.0,2.75,1.5,0.75,2.25,0.08,0.14,0.95,786.26,-7.7,29.6
2.18,0.0,0.0,0.0,0.5,0.0,0.0,0.0,0.0,0.0,0.0,0.0,0.0,0.0,-0.48,-0.36,0.45,0.0,17.2,57.9,9.0,1.75,5.75,5.5,6.75,6.75,2.75,4.5,1.0,2.75,2.0,0.5,1.5,0.08,0.14,0.95,790.21,-8.2,31.7
2.2,1.0,0.0,0.25,2.25,0.0,0.0,0.0,1.75,0.0,0.25,0.0,0.0,0.25,-0.36,-0.42,0.14,0.0,7.9,22.1,9.0,1.75,6.25,5.5,6.5,6.75,3.0,4.5,1.0,2.75,2.0,0.75,1.75,0.08,0.14,0.95,798.42,-8.6,30.5
2.22,0.25,0.0,0.0,2.25,0.0,0.0,0.0,0.0,0.0,0.5,0.0,0.0,0.25,-0.48,-0.36,0.58,0.0,11.1,27.8,8.75,1.75,5.75,5.25,6.5,6.75,2.75,4.5,1.0,3.25,2.5,0.75,1.75,0.08,0.14,0.95,800.37,-7.8,27.6
2.24,0.25,0.0,0.5,2.25,0.0,0.0,0.0,0.0,0.0,0.5,0.0,0.0,0.0,-0.67,-0.48,0.77,0.0,16.7,42.4,9.0,2.0,5.25,5.25,6.5,6.75,3.0,4.5,1.25,3.5,2.5,1.0,2.25,0.08,0.08,0.95,809.11,-7.4,25.1
2.26,0.5,0.0,0.0,2.25,0.0,0.0,0.0,0.0,0.0,0.5,0.0,0.0,0.25,-0.73,-0.3,0.83,13.05,12.7,32.4,9.5,2.0,6.0,5.5,6.5,6.75,3.0,4.5,1.0,2.75,2.5,0.75,2.25,0.08,0.08,0.95,817.53,-8.5,28.9
2.28,1.0,0.0,0.25,1.0,0.0,0.0,0.0,0.0,0.0,0.0,0.0,0.0,0.25,-0.67,0.08,0.83,37.4,22.8,55.8,9.5,2.0,5.75,5.5,6.75,6.75,3.0,4.5,1.0,2.75,2.25,0.75,1.75,0.08,0.14,0.95,819.35,-8.5,30.8
2.3,0.75,0.0,0.25,2.25,0.0,0.0,0.0,0.0,0.25,0.5,0.75,0.0,0.25,-0.61,0.14,1.08,57.98,14.7,17.9,9.5,2.0,6.0,5.5,7.25,6.75,3.0,4.5,1.0,2.75,2.0,0.25,1.5,0.08,0.14,0.95,820.74,-8.6,33.8
2.32,1.0,0.0,0.25,2.25,0.0,0.0,0.0,0.0,0.25,0.5,0.0,0.0,0.25,-0.55,0.39,1.64,71.88,16.4,36.9,9.5,2.0,5.25,5.5,7.0,7.25,2.5,4.0,0.5,2.75,1.5,0.0,1.5,0.14,0.14,0.95,802.74,-8.0,36.5
2.34,1.0,0.0,0.25,2.0,0.0,0.0,0.0,0.0,0.25,0.5,0.0,0.0,0.5,-0.55,0.7,1.77,79.27,14.6,27.3,9.5,2.75,5.0,7.0,8.0,7.5,1.75,3.25,0.25,3.0,1.25,0.25,1.25,0.2,0.14,0.95,804.31,-7.9,40.0
2.36,1.0,0.0,0.0,2.0,0.0,0.0,0.0,0.0,0.25,0.5,0.0,0.0,0.5,-0.55,0.89,2.27,79.78,13.2,25.3,9.5,1.75,4.0,7.0,8.25,7.75,1.25,1.75,0.5,1.5,1.0,0.25,0.5,0.14,0.08,1.14,768.21,-8.7,47.5
2.38,0.5,0.0,0.25,2.0,0.0,0.0,0.0,0.0,0.25,0.25,0.0,0.0,0.5,-0.61,1.08,2.39,75.4,14.1,25.5,9.5,3.25,2.25,7.0,9.0,7.75,0.75,1.75,0.0,1.5,0.5,0.25,0.5,0.08,0.14,1.64,739.65,-7.3,51.3
2.4,0.25,0.0,0.25,2.25,0.0,0.0,0.0,0.0,0.25,0.25,0.0,0.0,0.5,-0.86,1.45,2.89,69.09,13.1,23.3,9.5,3.25,1.5,5.5,8.25,6.25,0.0,0.25,0.25,1.5,0.75,0.5,0.5,0.2,0.2,1.77,669.57,-8.3,52.7
2.42,0.5,0.0,0.0,1.75,0.0,0.0,0.0,0.0,0.0,0.25,0.0,0.0,0.25,-0.92,1.89,2.45,61.63,14.3,37.2,8.75,3.25,0.5,3.5,6.5,4.0,0.75,0.75,0.25,1.0,0.75,0.0,0.5,0.45,0.39,1.95,565.2,-9.3,55.2
2.44,1.25,0.0,0.0,1.75,0.0,0.0,0.0,0.0,0.0,0.25,0.0,0.0,0.25,-0.3,2.14,1.58,56.6,18.5,49.3,8.0,2.5,0.5,2.75,4.5,2.0,0.5,0.25,0.25,0.75,0.25,0.5,0.5,-0.23,0.33,3.08,431.84,-12.7,57.0
2.46,0.5,0.0,0.0,0.25,0.0,0.0,0.0,0.0,0.0,0.25,0.0,0.0,0.25,0.45,2.02,1.52,43.53,10.8,11.0,6.0,2.0,0.75,2.75,2.75,2.0,0.25,0.25,0.0,0.0,1.0,0.0,0.5,0.08,0.27,1.89,320.47,-13.7,58.3
2.48,0.25,0.0,0.75,2.0,0.0,0.0,0.0,0.0,0.0,0.25,0.0,0.0,0.25,1.89,2.52,1.08,45.56,18.3,39.9,5.25,1.5,0.0,0.5,0.25,0.5,0.5,0.25,0.5,1.0,0.0,0.0,0.25,0.33,0.27,1.14,217.67,-17.9,57.0
2.5,0.25,0.0,1.0,2.0,0.0,0.0,0.0,0.0,0.25,0.25,0.0,0.0,0.5,2.33,4.2,0.27,50.98,17.3,27.9,4.75,1.25,0.0,0.5,0.0,0.0,0.25,0.25,0.0,1.0,0.25,0.0,0.5,0.2,0.27,0.89,126.16,-19.1,51.9
2.52,0.25,0.0,1.0,1.75,0.0,0.0,0.0,0.0,0.25,0.5,0.0,0.0,0.25,1.27,2.14,0.33,59.53,17.2,28.3,3.25,0.0,0.0,0.5,0.0,0.5,0.0,0.0,0.0,0.0,0.25,0.25,0.25,0.27,0.02,0.89,38.38,-22.1,56.4
2.54,0.25,0.0,1.0,1.0,0.0,0.0,0.0,0.0,0.25,0.5,0.25,1.0,0.25,1.33,1.58,1.27,63.7,15.0,-12.4,1.5,0.0,2.5,0.5,1.25,0.5,0.25,0.0,0.0,0.0,0.0,0.0,0.0,0.33,-0.36,0.33,0.0,-22.1,64.4
2.56,0.25,0.0,0.25,0.5,0.0,0.0,0.0,0.0,0.0,1.25,0.0,3.0,1.25,-0.42,-0.48,0.45,82.51,2.4,-75.7,1.75,0.25,0.0,1.25,0.0,0.5,0.0,0.0,0.0,0.0,0.0,0.0,0.25,0.52,-1.05,-0.11,0.0,-17.4,63.3
2.58,0.0,0.0,1.0,1.75,0.0,0.0,0.0,0.0,1.75,0.0,1.5,4.0,3.5,0.64,-0.48,1.08,132.64,6.8,-61.6,0.25,0.0,1.0,0.25,0.0,0.5,0.0,0.25,0.0,0.0,0.0,0.0,0.0,0.52,0.45,0.77,0.0,-16.5,47.7
2.6,0.25,0.0,0.75,0.5,0.0,0.0,0.0,0.0,0.0,0.0,2.75,2.25,5.0,0.89,0.64,2.02,168.05,2.1,-78.8,1.0,0.25,0.75,0.5,0.0,0.75,0.0,0.0,0.0,0.0,0.0,0.0,0.0,-0.3,0.33,0.08,0.0,-18.2,68.3
2.62,0.0,0.0,0.0,0.0,0.0,0.0,0.5,0.0,0.0,0.0,0.0,0.5,0.0,-0.42,0.27,1.33,140.9,16.5,-65.2,1.5,1.0,0.75,0.5,0.25,1.75,0.25,0.5,0.25,1.0,0.25,0.25,0.5,2.2,1.45,-2.73,0.0,-4.9,21.6
2.64,1.5,1.0,0.0,2.0,0.0,0.0,1.5,0.0,3.25,4.0,0.0,1.5,4.75,-0.67,0.14,1.14,183.36,2.3,-39.6,1.5,1.0,2.0,0.5,0.5,2.0,0.25,0.5,0.25,1.0,0.0,0.25,0.5,2.02,2.14,-1.42,37.05,-8.1,30.2
2.66,1.0,0.0,0.25,1.25,0.0,0.0,0.0,0.0,1.75,4.0,0.0,4.0,4.0,0.08,0.2,1.83,209.48,0.1,-65.8,1.75,1.0,2.0,0.75,2.5,2.0,0.5,0.25,0.25,1.0,0.0,0.25,0.5,0.39,1.95,0.08,107.21,-7.4,37.5
2.68,1.0,0.0,0.0,0.0,0.0,0.0,0.0,0.0,1.75,3.0,0.0,3.5,2.75,-0.05,0.39,1.27,227.0,-0.1,-74.7,1.5,1.0,2.0,0.5,0.5,1.75,0.5,0.25,0.25,1.0,0.25,0.25,1.0,-0.67,2.14,1.45,144.59,-8.7,22.4
2.7,2.25,0.0,0.0,0.0,0.0,0.0,0.5,0.0,2.5,3.0,6.5,3.0,2.75,-0.11,0.08,0.95,258.17,6.0,-61.4,1.75,0.5,2.25,0.25,1.0,1.25,0.5,0.0,0.25,0.0,0.0,0.0,0.75,-1.11,1.52,1.58,157.12,-15.1,45.8
2.72,4.5,0.0,0.0,0.0,0.0,0.0,0.75,0.0,2.75,3.0,5.5,2.25,2.5,-0.11,0.14,0.95,279.04,9.1,-41.1,0.25,0.25,2.0,0.25,1.25,0.75,0.25,0.0,0.0,1.25,0.0,0.25,0.0,-1.67,-0.17,-1.98,146.36,-9.1,26.1
2.74,5.25,0.0,0.0,0.0,0.0,0.0,1.0,0.0,3.5,3.0,5.5,2.0,1.5,-0.05,0.08,0.95,290.01,11.4,-31.7,1.5,1.0,2.0,0.75,0.5,2.0,0.25,0.25,0.25,1.0,0.25,0.25,0.75,-0.05,3.08,-2.17,151.56,-8.5,26.7
2.76,5.5,0.0,0.0,0.0,0.0,0.0,1.0,0.0,3.5,2.0,0.0,2.0,1.5,-0.05,0.14,0.95,272.68,13.8,-10.7,0.25,0.25,1.75,0.5,1.25,0.25,0.25,0.25,0.0,0.0,0.25,0.0,0.75,-0.55,1.08,-0.61,135.35,-12.0,27.9
2.78,6.75,0.0,0.0,0.0,0.0,0.0,1.5,0.0,4.75,0.25,0.0,1.0,0.5,-0.05,0.14,1.02,254.12,22.1,20.1,0.25,0.0,2.0,0.25,0.5,0.0,0.25,0.25,0.0,0.0,0.0,0.0,0.5,-2.55,-0.67,2.52,114.26,-20.4,32.7
2.8,6.5,0.0,0.0,0.0,0.0,0.0,1.75,0.0,4.0,0.25,0.0,0.0,0.25,-0.11,0.14,1.02,219.27,24.6,36.7,0.0,1.0,0.5,0.25,0.0,0.0,0.25,0.0,0.0,0.0,0.75,0.0,0.0,-1.73,-2.05,5.39,83.86,-18.4,36.5
2.82,6.75,0.0,0.0,2.0,0.0,0.0,0.0,0.0,2.75,0.25,0.0,0.0,0.25,-0.11,0.14,1.08,197.34,24.2,50.4,1.5,0.75,0.25,0.5,0.0,2.0,0.0,0.0,0.25,1.0,0.0,0.25,0.0,-1.23,-4.55,1.08,78.34,-3.7,33.3
2.84,7.0,0.0,5.75,1.25,0.0,0.0,2.0,0.0,2.5,0.25,2.75,0.0,0.25,-0.11,0.2,1.08,226.23,27.5,37.3,1.5,0.0,1.0,0.25,0.5,0.0,0.5,0.25,0.0,0.0,0.0,0.0,0.0,2.02,0.39,-0.17,61.03,-25.1,64.6
2.86,0.0,0.0,0.0,1.75,0.0,0.0,2.0,0.0,2.75,0.25,2.5,0.25,0.25,-0.05,0.14,1.08,201.79,13.4,-26.4,1.25,0.0,2.0,0.0,1.25,1.5,0.25,0.25,0.25,0.0,0.75,0.25,0.5,7.95,1.64,-3.11,77.8,-10.7,25.7
2.88,0.0,0.0,0.0,2.25,0.0,0.0,1.75,0.0,1.75,0.25,2.5,0.0,0.25,0.08,0.14,1.02,163.89,13.6,-17.4,0.25,1.0,0.25,0.5,0.0,1.75,0.25,0.0,0.25,0.5,0.0,0.25,0.0,1.27,0.33,-0.86,75.98,-0.7,32.4
2.9,0.0,0.0,5.75,2.25,0.0,0.0,1.5,0.0,1.75,0.25,2.5,0.5,0.25,0.02,0.14,1.14,158.1,23.6,11.7,1.5,0.75,2.0,0.5,0.5,1.75,0.25,0.25,0.25,1.0,0.25,0.25,0.5,-2.73,-1.67,1.89,103.16,-9.5,27.3
2.92,5.75,0.0,0.0,2.25,0.0,0.0,1.25,0.0,1.75,0.0,1.5,0.0,0.25,0.02,0.14,1.2,158.62,23.8,40.2,1.25,0.75,0.75,0.5,0.25,2.0,0.25,0.25,0.25,1.0,0.25,0.25,0.75,-1.3,-0.92,0.33,114.85,-3.1,15.2
2.94,3.75,0.0,0.0,2.25,0.0,0.0,1.0,0.0,0.75,0.0,0.5,0.0,0.25,0.08,0.14,1.14,140.45,24.2,51.0,0.5,0.0,0.5,0.25,0.0,0.0,0.0,0.0,0.0,0.0,0.0,0.0,0.25,0.27,0.2,-1.55,95.04,-24.6,42.6
2.96,2.75,0.0,0.0,2.5,0.0,0.0,0.25,0.0,1.75,0.0,0.0,0.0,0.25,-0.17,0.33,1.39,129.08,21.4,42.7,0.75,0.25,0.25,0.5,0.25,1.25,0.25,0.0,0.25,0.0,0.0,0.0,0.5,1.64,1.33,-2.11,79.2,-4.5,32.5
2.98,0.0,0.0,0.0,1.0,0.0,0.0,3.75,0.0,3.75,0.5,0.0,0.25,0.0,-0.11,0.2,1.77,113.83,15.8,-13.4,0.25,0.0,0.5,0.5,0.0,0.25,0.25,0.0,0.25,1.0,0.0,0.25,0.25,0.89,0.2,-1.3,58.62,-6.3,-13.2
3.0,1.5,0.0,0.0,1.25,0.0,0.0,0.5,0.0,0.0,0.0,0.0,0.0,0.0,-0.36,0.45,1.08,80.86,26.8,74.4,0.5,0.0,0.5,0.25,0.0,0.0,0.0,0.0,0.0,0.0,0.0,0.0,0.0,0.52,0.33,-0.55,43.97,-32.6,74.1
3.02,0.0,0.0,0.0,0.0,0.0,0.0,0.25,0.0,0.0,0.0,0.0,0.0,0.0,0.08,-0.11,-0.3,37.0,32.4,27.3,0.25,0.25,0.5,0.5,0.0,1.25,0.25,0.0,0.25,0.75,0.0,0.25,0.0,0.77,0.33,-0.36,43.32,-2.5,14.7
3.04,0.0,0.0,0.0,0.5,0.0,0.0,0.0,0.0,0.5,0.25,0.0,0.0,0.0,1.89,-1.05,-1.36,8.3,8.7,-5.9,0.75,0.75,2.0,0.5,0.5,2.0,0.25,0.0,0.25,1.0,0.25,0.25,0.0,1.7,0.83,-0.3,72.98,-8.7,32.0
3.06,0.0,0.0,0.0,0.5,0.0,0.0,0.0,0.0,0.0,0.0,0.0,0.0,0.25,2.83,0.2,0.77,0.0,7.0,2.6,1.5,1.0,2.25,0.5,1.25,2.0,0.25,0.5,0.25,1.0,0.25,0.0,0.5,1.89,0.77,-0.42,113.42,-8.0,33.5
3.08,0.0,0.0,0.0,0.0,0.0,0.0,0.0,0.0,0.25,0.0,0.0,0.0,0.0,1.45,0.33,-0.36,0.0,12.1,-38.5,1.5,0.75,0.75,0.5,0.5,1.75,0.5,0.0,0.25,1.0,0.25,0.25,0.75,0.89,0.39,0.08,134.62,-5.5,20.0
3.1,0.0,0.0,0.0,0.0,0.0,0.0,0.0,0.0,0.0,0.0,0.0,0.0,0.0,0.64,0.08,1.08,0.0,0.0,0.0,1.5,0.75,1.75,0.5,0.5,2.0,0.25,0.25,0.25,1.0,0.0,0.25,1.25,0.27,0.02,0.2,152.18,-6.2,18.6
3.12,0.0,0.0,0.0,0.0,0.0,0.0,0.0,0.0,0.75,0.0,0.0,0.0,0.0,0.2,-0.67,0.95,0.0,12.1,-38.5,0.0,0.0,2.0,0.25,1.0,0.0,0.25,0.25,0.0,0.0,0.0,0.0,0.0,0.08,-0.36,-0.11,130.37,-20.5,51.0
3.14,0.75,0.0,0.0,1.25,0.0,0.0,0.0,0.0,0.5,0.25,0.0,0.0,0.25,-0.61,-1.23,1.2,0.0,15.1,25.9,0.0,0.0,0.5,0.25,0.0,0.75,0.25,0.0,0.25,0.0,0.0,0.25,0.25,0.14,-0.42,-0.17,96.2,-5.7,3.7
3.16,0.25,0.0,0.25,1.75,0.0,0.0,0.0,0.0,0.5,0.5,0.0,0.0,0.25,-0.23,-0.23,0.95,12.57,12.3,16.6,1.0,0.25,1.5,0.5,0.25,1.5,0.75,0.0,0.25,0.0,0.0,0.25,0.5,0.27,-0.36,-0.42,88.45,-12.7,34.9
3.18,1.0,0.0,0.25,1.5,0.0,0.0,0.0,0.0,0.5,0.5,0.0,0.0,0.25,1.33,-0.48,1.08,38.85,15.9,28.1,1.25,0.25,2.0,0.5,0.25,1.75,0.75,0.25,0.25,0.5,0.25,0.25,0.5,0.33,-0.3,-0.61,103.97,-11.2,26.2
3.2,1.25,0.0,0.25,1.25,0.0,0.0,0.0,0.0,0.5,0.25,0.0,0.0,0.25,1.2,-0.36,0.83,53.82,19.2,37.3,1.25,0.0,1.75,0.25,0.25,0.0,0.25,0.0,0.0,0.0,0.25,0.0,0.25,0.27,-0.36,-0.8,97.07,-28.1,51.1
3.22,0.25,0.0,0.25,1.0,0.0,0.0,0.0,0.0,0.0,0.25,0.0,0.0,0.25,0.58,0.14,0.7,54.36,13.9,25.4,1.75,0.75,2.25,0.5,0.5,1.0,0.75,0.25,0.25,0.0,0.25,0.0,1.0,1.33,0.83,-1.55,116.1,-15.7,37.1
3.24,0.25,0.0,0.0,1.0,0.0,0.0,0.0,0.0,0.0,0.25,0.0,0.0,0.25,0.45,0.39,0.7,50.08,10.4,20.3,2.0,0.75,0.5,1.25,0.25,1.75,0.25,0.0,0.25,1.0,0.0,0.25,0.25,0.27,0.33,-0.42,123.21,-8.2,36.3
3.26,0.0,0.0,0.0,1.25,0.0,0.0,0.0,0.0,0.0,0.25,0.0,0.0,0.25,0.2,0.33,0.52,42.98,8.2,15.7,1.25,1.0,2.0,0.5,0.5,1.0,0.25,0.0,0.5,1.0,0.25,0.25,0.5,-0.11,0.45,-0.55,130.48,-12.3,27.1
3.28,0.0,0.0,0.0,1.25,0.0,0.0,0.0,0.0,0.0,0.25,0.0,0.0,0.5,0.14,0.02,0.27,37.85,5.5,0.1,1.25,0.75,2.0,1.0,0.5,1.25,0.25,0.0,0.25,1.0,0.25,0.25,0.5,0.33,0.58,-0.92,134.32,-11.7,28.7
3.3,0.0,0.0,0.0,1.25,0.0,0.0,0.0,0.0,0.25,0.25,0.0,0.0,0.25,0.27,-0.23,0.27,36.21,8.7,9.2,1.5,1.0,2.0,0.5,0.5,1.5,0.25,0.0,0.25,0.75,0.25,0.25,0.5,0.64,0.33,-0.8,143.51,-11.8,33.8
3.32,0.25,0.0,0.0,1.25,0.0,0.0,0.0,0.25,0.0,0.25,0.0,0.0,0.25,0.33,-0.55,0.2,37.45,8.2,18.1,1.5,0.75,2.0,1.0,0.5,1.25,0.25,0.0,0.25,0.75,0.5,0.25,0.5,0.64,0.08,-0.61,150.7,-12.9,30.6
3.34,0.25,0.0,0.0,1.75,0.0,0.0,0.0,0.0,0.25,0.25,0.0,0.0,0.25,0.45,-1.05,0.14,40.32,12.4,25.6,0.25,0.75,2.0,0.5,0.5,1.75,0.25,0.0,0.25,0.0,0.75,0.0,0.25,0.83,0.02,-0.48,143.69,-10.7,35.3
3.36,0.25,0.0,0.0,1.5,0.0,0.0,0.0,0.0,0.5,0.25,0.0,0.0,0.25,0.77,-1.42,0.08,41.41,12.0,16.9,1.25,0.75,2.0,0.5,0.5,1.5,0.25,0.0,0.25,0.5,0.25,0.25,0.75,1.02,-0.05,-0.42,146.21,-11.2,29.0
3.38,0.25,0.0,0.0,1.25,0.0,0.0,0.0,0.0,0.5,0.0,0.0,0.0,0.25,0.89,-1.36,0.27,39.38,14.4,22.3,1.25,0.75,2.0,0.5,0.5,2.0,0.25,0.0,0.25,1.0,0.25,0.5,0.5,0.95,-0.05,-0.36,146.13,-8.7,24.0
3.4,0.25,0.0,0.0,1.0,0.0,0.0,0.0,0.0,0.25,0.25,0.0,0.0,0.5,0.77,-0.86,0.45,37.91,7.9,-0.6,1.5,0.75,2.0,0.5,0.5,1.75,0.25,0.0,0.25,1.0,0.5,0.25,0.5,0.7,-0.05,-0.3,147.52,-10.2,26.5
3.42,0.0,0.0,0.0,1.25,0.0,0.0,0.0,0.25,0.5,0.25,0.0,0.0,0.25,0.52,-0.48,0.52,38.07,6.5,0.0,1.5,0.5,1.75,0.5,0.0,2.0,0.25,0.0,0.25,1.0,0.25,0.25,0.5,0.64,-0.11,-0.42,145.19,-9.3,24.5
3.44,0.25,0.0,0.0,1.25,0.0,0.0,0.0,0.25,0.25,0.25,0.0,0.0,0.25,0.14,-0.23,0.39,39.75,8.6,12.6,1.25,0.75,2.0,0.5,0.25,1.75,0.25,0.0,0.25,1.0,0.5,0.25,0.5,0.7,-0.05,-0.55,146.42,-10.0,23.8
3.46,0.25,0.0,0.0,1.25,0.0,0.0,0.0,0.5,0.25,0.25,0.0,0.0,0.25,0.33,-0.3,0.52,43.52,6.3,8.0,1.5,1.0,2.0,0.5,1.5,2.0,0.0,0.0,0.25,1.0,0.25,0.25,0.5,0.77,0.08,-0.67,151.0,-7.8,33.5
3.48,0.0,0.0,0.0,1.25,0.0,0.0,0.0,0.0,0.25,0.25,0.0,0.0,0.25,0.45,-0.42,0.58,41.41,8.7,9.2,1.5,1.0,2.0,0.5,0.25,1.75,0.25,0.0,0.25,1.0,0.25,0.25,0.5,0.7,0.2,-0.73,151.97,-10.7,30.3
3.5,0.0,0.0,0.0,1.0,0.0,0.0,0.0,0.25,0.25,0.25,0.0,0.0,0.25,0.7,-0.61,0.64,38.38,4.5,-2.7,1.5,0.75,2.0,0.5,0.25,2.0,0.25,0.0,0.25,1.0,0.25,0.25,1.0,0.58,0.27,-0.8,154.46,-8.5,21.2
3.52,0.0,0.0,0.0,0.75,0.0,0.0,0.0,0.25,0.25,0.25,0.0,0.0,0.25,0.89,-0.48,0.7,33.01,2.7,-11.6,1.5,0.75,2.0,0.5,0.5,2.0,0.25,0.0,0.25,1.0,0.25,0.25,0.5,0.45,0.27,-0.8,153.62,-9.4,29.2
3.54,0.25,0.0,0.0,1.25,0.0,0.0,0.0,0.0,0.25,0.25,0.0,0.0,0.25,0.95,-0.23,0.58,32.78,11.4,18.2,1.5,1.0,2.0,0.5,0.5,1.75,0.25,0.0,0.25,1.0,0.5,0.25,0.5,0.45,0.2,-0.73,154.73,-10.3,28.4
3.56,0.0,0.0,0.0,1.0,0.0,0.0,0.0,1.75,0.25,0.25,0.0,0.0,0.25,0.95,-0.17,0.45,39.08,-4.4,-17.9,1.25,1.0,2.0,0.5,1.5,1.5,0.25,0.0,0.25,1.0,0.75,0.25,0.5,0.52,0.14,-0.67,159.1,-9.0,27.1
3.58,0.75,0.0,0.0,1.0,0.0,0.0,0.0,1.75,0.25,0.25,0.0,0.0,0.25,0.83,-0.17,0.33,50.85,2.0,1.1,1.5,1.0,2.0,0.5,0.5,1.75,0.0,0.0,0.25,1.0,0.25,0.25,1.0,0.64,0.08,-0.61,161.03,-8.8,23.8
3.6,1.25,0.0,0.0,1.0,0.0,0.0,0.0,0.25,0.25,0.25,0.0,0.0,0.25,0.7,-0.23,0.33,56.69,15.6,33.7,1.25,0.75,2.0,0.5,0.5,1.25,0.25,0.0,0.25,1.0,0.0,0.25,0.5,0.7,0.02,-0.61,152.64,-11.3,29.9
3.62,1.25,0.0,0.0,1.0,0.0,0.0,0.0,1.75,0.25,0.25,0.0,0.0,0.25,0.64,-0.3,0.39,67.06,5.3,10.6,1.5,1.0,1.75,0.5,0.5,2.0,0.25,0.0,0.25,0.75,0.25,0.25,0.5,0.77,0.08,-0.61,148.33,-9.3,33.1
3.64,1.25,0.0,0.0,1.0,0.0,0.0,0.0,1.75,0.25,0.25,0.0,0.0,0.25,0.58,-0.42,0.45,73.06,5.3,10.6,1.25,0.75,1.75,0.5,0.5,1.25,0.0,0.0,0.25,0.75,0.5,0.25,0.75,0.77,0.08,-0.61,140.86,-10.2,21.9
3.66,1.25,0.0,0.0,0.75,0.0,0.0,0.0,1.75,0.25,0.25,0.0,0.0,0.25,0.58,-0.55,0.52,76.77,4.6,7.9,1.5,0.75,2.0,0.5,0.5,1.5,0.5,0.0,0.25,1.0,0.25,0.25,0.5,0.7,0.14,-0.61,140.52,-11.3,29.0
3.68,1.5,0.0,0.0,0.5,0.0,0.0,0.0,1.75,0.25,0.25,0.0,0.0,0.25,0.64,-0.67,0.52,77.82,5.4,9.6,1.5,0.75,2.0,0.5,0.5,1.75,0.25,0.0,0.25,0.75,0.75,0.25,0.0,0.64,0.14,-0.61,139.07,-12.3,34.3
3.7,1.25,0.0,0.0,0.5,0.0,0.0,0.0,1.75,0.5,0.25,0.0,0.0,0.25,0.58,-0.73,0.58,78.13,4.2,2.3,1.25,0.75,2.0,0.5,0.5,1.5,0.25,0.0,0.25,1.0,0.25,0.25,0.75,0.64,0.14,-0.67,139.9,-9.7,23.3
3.72,1.25,0.0,0.0,0.75,0.0,0.0,0.0,0.25,0.25,0.25,0.0,0.0,0.25,0.52,-0.67,0.52,70.43,15.4,31.5,1.25,0.5,1.75,0.5,1.75,1.75,0.25,0.0,0.25,1.0,0.25,0.25,0.5,0.64,0.14,-0.67,145.55,-6.9,28.4
3.74,1.25,0.0,0.0,0.5,0.0,0.0,0.0,0.0,0.25,0.25,0.0,0.0,0.25,0.45,-0.67,0.52,59.64,18.5,35.9,1.25,1.0,2.0,0.5,0.25,1.25,0.5,0.0,0.25,1.0,0.25,0.25,0.5,0.64,0.14,-0.67,143.31,-12.1,28.2
3.76,0.25,0.0,0.0,0.25,0.0,0.0,0.0,1.75,0.25,0.25,0.0,0.0,0.25,0.45,-0.61,0.52,51.3,-7.0,-28.8,1.25,0.75,2.0,0.5,0.25,1.75,0.25,0.0,0.25,1.0,0.5,0.25,0.5,0.64,0.08,-0.61,142.66,-10.0,23.8
3.78,1.25,0.0,0.0,0.5,0.0,0.0,0.0,1.75,0.25,0.25,0.0,0.0,0.25,0.45,-0.61,0.45,52.52,3.8,4.7,1.5,0.75,2.0,0.5,0.5,1.25,0.25,0.0,0.25,0.75,0.25,0.25,0.5,0.64,0.08,-0.61,138.62,-12.8,31.9
3.8,1.25,0.0,0.0,0.25,0.0,0.0,0.0,1.75,0.25,0.25,0.0,0.0,0.25,0.52,-0.55,0.39,54.55,2.9,1.2,1.5,0.75,2.0,0.5,0.5,1.75,0.25,0.0,0.25,1.0,0.25,0.25,0.5,0.64,0.08,-0.61,140.46,-10.2,29.1
3.82,1.25,0.0,0.0,0.25,0.0,0.0,0.0,0.25,0.25,0.25,0.0,0.0,0.25,0.64,-0.55,0.45,50.99,15.0,25.9,1.5,0.75,1.75,0.5,0.5,1.75,0.25,0.0,0.25,1.0,0.25,0.25,0.5,0.7,0.08,-0.61,141.46,-9.4,28.2
3.84,1.25,0.0,0.0,0.25,0.0,0.0,0.0,0.25,0.25,0.25,0.0,0.0,0.25,0.64,-0.55,0.52,45.92,15.0,25.9,1.0,0.75,2.0,0.5,0.5,1.25,0.25,0.0,0.25,1.0,0.25,0.25,0.25,0.7,0.14,-0.61,138.93,-11.4,29.3
3.86,1.25,0.0,0.0,0.5,0.0,0.0,0.0,0.25,0.25,0.25,0.0,0.0,0.25,0.7,-0.55,0.52,40.73,15.2,29.0,1.25,0.5,1.75,0.5,0.25,2.0,0.25,0.0,0.25,1.0,0.5,0.25,0.5,0.7,0.14,-0.61,136.63,-8.2,20.8
3.88,1.5,0.0,0.0,0.5,0.0,0.0,0.0,0.25,0.25,0.25,0.0,0.0,0.25,0.64,-0.55,0.52,40.72,16.8,34.5,1.25,1.0,1.75,0.5,0.5,1.25,0.25,0.0,0.25,1.0,0.25,0.25,0.5,0.7,0.14,-0.61,135.06,-10.6,28.1
3.9,1.25,0.0,0.0,0.5,0.0,0.0,0.0,0.25,0.25,0.25,0.0,0.0,0.25,0.64,-0.55,0.52,41.41,15.2,29.0,1.5,0.75,2.0,0.5,0.5,1.75,0.25,0.0,0.25,1.0,0.25,0.25,1.0,0.7,0.14,-0.61,139.83,-8.9,21.9
3.92,0.75,0.0,0.0,0.5,0.0,0.0,0.0,0.25,0.25,0.25,0.0,0.0,0.25,0.58,-0.55,0.52,40.06,11.1,14.5,1.25,0.75,2.0,0.5,0.5,1.25,0.25,0.0,0.25,0.75,0.5,0.25,0.5,0.7,0.08,-0.61,139.32,-12.1,27.1
3.94,0.5,0.0,0.0,0.25,0.0,0.0,0.0,0.0,0.25,0.25,0.0,0.0,0.5,0.52,-0.61,0.52,34.67,7.3,-13.8,1.5,0.75,2.0,0.5,0.25,1.25,0.25,0.0,0.25,0.75,0.5,0.25,0.75,0.7,0.08,-0.61,140.18,-12.5,24.1
3.96,1.25,0.0,0.0,0.25,0.0,0.0,0.0,0.25,0.5,0.25,0.0,0.0,0.25,0.52,-0.61,0.52,35.65,14.8,19.9,1.25,0.75,2.0,0.5,1.25,1.25,0.25,0.0,0.25,0.75,0.5,0.25,0.5,0.7,0.08,-0.61,141.98,-10.7,29.5
3.98,1.25,0.0,0.0,0.25,0.0,0.0,0.0,0.25,0.25,0.25,0.0,0.0,0.25,0.45,-0.67,0.52,35.48,15.0,25.9,1.25,1.0,2.0,0.5,0.5,1.25,0.5,0.0,0.25,1.0,0.75,0.25,1.0,0.7,0.08,-0.61,147.33,-10.3,16.9
4.0,1.5,0.0,0.0,0.5,0.0,0.0,0.0,0.25,0.25,0.25,0.0,0.0,0.25,0.45,-0.67,0.52,39.9,16.8,34.5,1.5,0.75,2.0,0.5,0.5,1.25,0.25,0.0,0.25,1.0,0.25,0.25,0.75,0.7,0.14,-0.61,147.33,-11.2,24.9
4.02,1.25,0.0,0.0,0.25,0.0,0.0,0.0,0.25,0.25,0.25,0.0,0.0,0.25,0.45,-0.67,0.52,40.16,15.0,25.9,1.25,0.75,2.0,0.5,0.5,1.75,0.25,0.5,0.25,0.75,0.0,0.25,0.5,0.7,0.14,-0.61,147.4,-8.8,29.3
4.04,1.25,0.0,0.0,0.25,0.0,0.0,0.0,0.25,0.25,0.25,0.0,0.0,0.25,0.45,-0.67,0.45,41.8,15.0,25.9,1.25,0.75,2.0,0.5,1.0,1.25,0.25,0.0,0.25,1.0,0.25,0.25,0.75,0.7,0.14,-0.61,147.28,-9.8,24.9
4.06,1.25,0.0,0.0,0.5,0.0,0.0,0.0,0.25,0.25,0.25,0.0,0.0,0.25,0.45,-0.67,0.45,42.88,15.2,29.0,1.25,0.75,2.0,0.5,0.5,1.75,0.25,0.0,0.25,1.0,0.5,0.25,1.0,0.7,0.14,-0.61,149.24,-8.4,17.7
4.08,0.75,0.0,0.0,0.25,0.0,0.0,0.0,0.25,0.25,0.25,0.0,0.0,0.25,0.45,-0.67,0.52,39.05,10.3,8.8,1.25,0.75,1.75,0.5,0.5,1.5,0.25,0.5,0.25,1.0,0.0,0.25,1.25,0.7,0.14,-0.61,150.04,-6.3,14.5
4.1,1.25,0.0,0.0,0.25,0.0,0.0,0.0,0.25,0.25,0.25,0.0,0.0,0.25,0.45,-0.67,0.52,38.62,15.0,25.9,1.25,0.75,1.75,0.5,0.5,1.75,0.25,0.0,0.25,1.0,0.75,0.25,0.5,0.7,0.14,-0.61,149.05,-8.8,21.1
4.12,1.25,0.0,0.0,0.25,0.0,0.0,0.0,0.25,0.25,0.25,0.0,0.0,0.25,0.45,-0.67,0.45,38.4,15.0,25.9,1.25,0.75,1.75,0.5,1.25,1.25,0.25,0.0,0.25,1.0,0.25,0.25,0.75,0.7,0.14,-0.61,148.6,-8.6,24.8
4.14,1.0,0.0,0.0,0.25,0.0,0.0,0.0,0.25,0.25,0.25,0.0,0.0,0.25,0.45,-0.67,0.45,38.46,12.9,18.2,1.25,1.0,2.0,0.5,0.5,1.5,0.25,0.0,0.25,1.0,1.0,0.25,0.75,0.7,0.14,-0.61,150.32,-9.9,18.2
4.16,1.0,0.0,0.0,0.5,0.0,0.0,0.0,0.25,0.25,0.25,0.0,0.0,0.25,0.45,-0.67,0.45,39.18,13.4,22.4,1.5,0.75,2.0,0.5,0.5,1.5,0.25,0.0,0.25,1.0,0.25,0.25,0.75,0.7,0.14,-0.61,150.22,-10.4,25.2
4.18,1.0,0.0,0.0,0.5,0.0,0.0,0.0,1.25,0.25,0.0,0.0,0.0,0.25,0.52,-0.67,0.45,43.68,6.2,11.0,1.25,0.75,2.0,0.5,0.5,1.25,0.25,0.0,0.25,1.0,0.0,0.25,0.5,0.7,0.14,-0.61,144.68,-11.3,29.9
4.2,1.25,0.0,0.0,0.75,0.0,0.0,0.0,1.5,0.25,0.0,0.0,0.0,0.25,0.52,-0.67,0.52,51.39,7.2,16.1,1.25,0.75,2.0,0.5,0.5,1.25,0.25,0.0,0.25,1.0,0.25,0.25,1.0,0.7,0.14,-0.61,141.57,-9.9,19.3
4.22,1.25,0.0,0.0,0.5,0.0,0.0,0.0,1.75,0.5,0.25,0.0,0.0,0.25,0.45,-0.67,0.52,61.14,4.2,2.3,1.25,0.75,2.0,0.5,0.5,1.75,0.25,0.0,0.25,1.0,0.25,0.25,0.5,0.7,0.14,-0.61,140.1,-9.6,27.4
4.24,0.75,0.0,0.0,0.5,0.0,0.0,0.0,1.75,0.25,0.25,0.0,0.0,0.25,0.45,-0.67,0.52,64.6,0.0,-6.8,1.25,0.75,1.75,0.5,0.5,1.25,0.25,0.0,0.25,0.75,0.5,0.25,0.5,0.7,0.14,-0.61,137.03,-11.3,26.0
4.26,1.0,0.0,0.0,0.5,0.0,0.0,0.0,1.75,0.25,0.25,0.0,0.0,0.25,0.45,-0.67,0.52,67.19,1.9,-0.7,1.25,0.75,1.75,0.5,1.0,1.5,0.25,0.0,0.25,1.0,0.25,0.25,0.5,0.7,0.14,-0.61,138.19,-8.8,27.9
4.28,1.0,0.0,0.0,0.5,0.0,0.0,0.0,1.75,0.25,0.25,0.0,0.0,0.25,0.45,-0.67,0.52,66.86,1.9,-0.7,1.25,0.75,1.75,0.5,0.5,1.25,0.25,0.0,0.25,1.0,1.0,0.25,0.5,0.7,0.14,-0.61,138.26,-10.5,17.9
4.3,1.25,0.0,0.0,0.5,0.0,0.0,0.0,1.75,0.25,0.25,0.0,0.0,0.25,0.45,-0.67,0.52,68.33,3.8,4.7,1.5,0.75,1.75,0.5,0.5,1.5,0.25,0.0,0.25,1.0,0.0,0.25,0.75,0.7,0.14,-0.61,138.55,-9.5,26.9
4.32,1.25,0.0,0.0,0.5,0.0,0.0,0.0,0.25,0.25,0.25,0.0,0.0,0.25,0.45,-0.67,0.52,62.34,15.2,29.0,1.25,0.75,2.0,0.5,0.5,1.25,0.25,0.0,0.25,0.75,0.5,0.25,0.5,0.7,0.14,-0.61,137.09,-12.1,27.1
4.34,1.25,0.0,0.0,0.75,0.0,0.0,0.0,0.25,0.25,0.25,0.0,0.0,0.25,0.45,-0.67,0.52,57.79,15.4,31.5,1.25,0.75,1.75,0.5,0.5,1.25,0.25,0.0,0.25,1.0,0.25,0.25,0.5,0.7,0.14,-0.61,134.86,-10.5,25.9
4.36,1.25,0.0,0.0,0.5,0.0,0.0,0.0,1.25,0.25,0.25,0.0,0.0,0.25,0.45,-0.67,0.52,56.33,6.6,10.6,1.25,0.75,2.0,0.5,0.5,1.5,0.25,0.5,0.25,1.0,0.25,0.25,0.75,0.7,0.14,-0.61,137.98,-8.4,20.1
4.38,1.0,0.0,0.0,0.25,0.0,0.0,0.0,0.75,0.25,0.25,0.0,0.0,0.25,0.45,-0.67,0.52,51.55,7.4,7.7,1.25,0.75,1.75,0.5,0.5,1.25,0.25,0.0,0.25,1.0,0.5,0.25,0.75,0.7,0.14,-0.61,138.11,-9.8,19.3
4.4,0.75,0.0,0.0,1.0,0.0,0.0,0.0,0.0,0.25,0.25,0.0,0.0,0.25,0.45,-0.67,0.52,46.58,15.2,28.9,1.25,0.75,1.75,0.5,0.5,1.75,0.25,0.0,0.25,1.0,0.5,0.25,0.75,0.7,0.14,-0.61,142.17,-8.2,20.0
4.42,1.25,0.0,0.0,0.5,0.0,0.0,0.0,1.75,0.25,0.0,0.0,0.0,0.5,0.45,-0.67,0.52,50.5,3.9,2.5,1.25,0.75,1.75,0.5,0.5,1.25,0.25,0.0,0.25,1.0,0.75,0.25,0.5,0.7,0.14,-0.61,141.35,-10.5,20.4
4.44,1.25,0.0,0.0,1.0,0.0,0.0,0.0,0.5,0.25,0.25,0.0,0.0,0.25,0.45,-0.67,0.52,52.5,13.2,28.4,1.25,0.75,1.75,0.5,0.5,1.25,0.25,0.0,0.25,1.0,0.25,0.25,1.0,0.7,0.14,-0.61,140.36,-9.1,18.1
4.46,1.25,0.0,0.0,0.75,0.0,0.0,0.0,0.0,0.5,0.0,0.0,0.0,0.25,0.45,-0.67,0.52,51.48,21.0,41.5,1.25,0.5,1.75,0.5,0.5,1.25,0.25,0.0,0.25,1.0,0.25,0.25,0.5,0.7,0.14,-0.61,135.17,-10.4,23.6
4.48,1.25,0.0,0.0,0.75,0.0,0.0,0.0,0.0,0.25,0.25,0.0,0.0,0.25,0.45,-0.67,0.52,49.35,18.4,38.0,1.25,0.75,1.75,0.5,0.5,1.25,0.25,0.0,0.25,1.0,0.75,0.25,0.5,0.7,0.14,-0.61,135.2,-10.5,20.4
4.5,1.0,0.0,0.0,0.5,0.0,0.0,0.0,0.0,0.25,0.25,0.0,0.0,0.25,0.45,-0.67,0.52,43.44,16.8,29.4,1.25,0.75,2.0,0.5,0.5,1.25,0.0,0.0,0.25,1.0,0.0,0.25,0.5,0.7,0.14,-0.61,132.31,-11.0,30.0
4.52,1.25,0.0,0.0,0.5,0.0,0.0,0.0,0.25,0.25,0.25,0.0,0.0,0.25,0.45,-0.67,0.52,41.22,15.2,29.0,1.25,0.5,1.75,0.5,0.5,1.25,0.25,0.0,0.25,1.0,0.25,0.25,1.0,0.7,0.14,-0.61,132.71,-9.0,15.7
4.54,1.25,0.0,0.0,0.75,0.0,0.0,0.0,0.25,0.25,0.25,0.0,0.0,0.25,0.45,-0.67,0.52,42.52,15.4,31.5,1.25,0.75,1.75,0.5,0.5,1.25,0.25,0.0,0.25,1.0,0.25,0.25,0.75,0.7,0.14,-0.61,132.84,-9.8,21.9
4.56,0.5,0.25,0.0,1.25,0.0,0.0,0.0,0.25,0.25,0.25,0.0,0.0,0.25,0.45,-0.67,0.52,46.53,11.0,26.5,1.25,0.5,1.75,0.5,1.25,1.0,0.25,0.0,0.25,1.0,0.25,0.25,0.5,0.7,0.14,-0.61,134.53,-10.0,26.3
4.58,0.75,0.0,0.0,1.0,0.0,0.0,0.0,0.0,0.25,0.25,0.0,0.0,0.25,0.45,-0.67,0.52,45.14,15.2,28.9,1.25,0.75,1.75,0.5,0.5,1.25,0.25,0.0,0.25,1.0,0.75,0.25,0.5,0.7,0.14,-0.61,135.49,-10.5,20.4
4.6,1.25,0.0,0.0,1.0,0.0,0.0,0.0,0.25,0.25,0.25,0.0,0.0,0.25,0.45,-0.67,0.45,47.82,15.6,33.7,1.25,0.75,2.0,0.5,0.5,1.25,0.25,0.0,0.25,1.0,0.0,0.25,0.5,0.7,0.14,-0.61,134.52,-11.3,29.9
4.62,1.0,0.0,0.0,0.75,0.0,0.0,0.0,1.0,0.25,0.25,0.0,0.0,0.25,0.45,-0.67,0.45,50.97,7.1,11.9,1.25,0.75,1.75,0.5,0.5,1.25,0.25,0.0,0.25,1.0,0.25,0.25,0.75,0.7,0.14,-0.61,134.99,-9.8,21.9
4.64,1.25,0.0,0.0,0.5,0.0,0.0,0.0,1.5,0.25,0.25,0.0,0.0,0.25,0.45,-0.67,0.52,56.08,5.1,7.5,1.5,0.5,2.0,0.5,0.5,1.25,0.25,0.25,0.25,1.0,0.25,0.25,0.5,0.7,0.14,-0.61,135.77,-11.1,24.9
4.66,1.25,0.0,0.0,0.75,0.0,0.0,0.0,1.25,0.25,0.0,0.0,0.0,0.25,0.45,-0.67,0.52,58.86,8.8,19.8,1.25,0.75,1.5,0.5,1.0,1.75,0.25,0.0,0.25,1.0,0.5,0.25,0.5,0.7,0.14,-0.61,140.26,-7.2,24.5
4.68,1.25,0.0,0.0,1.0,0.0,0.0,0.0,1.0,0.25,0.25,0.0,0.0,0.25,0.45,-0.67,0.52,63.98,9.4,20.0,1.25,0.75,1.75,0.5,0.5,1.5,0.25,0.0,0.25,1.0,1.0,0.25,0.5,0.7,0.14,-0.61,143.27,-9.7,18.3
4.7,1.25,0.0,0.0,0.5,0.0,0.0,0.0,0.25,0.25,0.25,0.0,0.0,0.25,0.45,-0.67,0.52,59.68,15.2,29.0,1.25,0.75,1.75,0.5,0.25,1.25,0.25,0.0,0.25,1.0,0.25,0.25,0.5,0.7,0.14,-0.61,140.08,-11.0,25.0
4.72,0.75,0.0,0.0,0.75,0.0,0.0,0.0,0.0,0.25,0.25,0.0,0.0,0.25,0.45,-0.67,0.45,52.06,14.9,25.6,1.25,0.75,2.0,0.5,1.0,1.25,0.25,0.0,0.25,1.0,0.5,0.25,0.5,0.7,0.14,-0.61,141.93,-10.4,26.0
4.74,1.0,0.0,0.0,0.5,0.0,0.0,0.0,0.5,0.25,0.25,0.0,0.0,0.25,0.45,-0.67,0.52,46.67,10.6,16.8,1.25,0.75,1.75,0.5,0.25,1.0,0.25,0.0,0.25,0.75,0.5,0.25,0.5,0.7,0.14,-0.61,135.65,-12.9,24.8
4.76,1.0,0.0,0.0,0.5,0.0,0.0,0.0,0.25,0.25,0.25,0.0,0.0,0.25,0.45,-0.67,0.52,42.02,13.4,22.4,1.25,0.75,1.75,0.5,0.5,1.25,0.25,0.0,0.25,0.75,0.0,0.25,0.25,0.7,0.14,-0.61,130.77,-12.2,37.1
4.78,1.0,0.0,0.0,0.5,0.0,0.0,0.0,0.0,0.25,0.25,0.0,0.0,0.25,0.45,-0.67,0.52,38.65,16.8,29.4,1.25,0.75,2.0,0.5,0.5,1.25,0.25,0.0,0.25,1.0,0.75,0.25,0.5,0.7,0.14,-0.61,131.58,-11.3,21.6
4.8,1.25,0.0,0.0,0.5,0.0,0.0,0.0,0.0,0.25,0.0,0.0,0.0,0.25,0.45,-0.67,0.52,36.81,22.4,48.6,1.25,0.5,1.75,0.5,0.5,1.25,0.25,0.0,0.25,1.0,0.25,0.25,0.75,0.7,0.14,-0.61,131.35,-9.7,19.5
4.82,1.25,0.0,0.0,0.75,0.0,0.0,0.0,0.0,0.25,0.25,0.0,0.0,0.25,0.45,-0.67,0.52,38.39,18.4,38.0,1.25,0.75,1.75,0.5,0.5,1.25,0.25,0.0,0.25,1.0,0.25,0.25,0.0,0.7,0.14,-0.61,129.72,-12.1,34.8
4.84,1.25,0.0,0.0,0.5,0.0,0.0,0.0,0.0,0.25,0.25,0.0,0.0,0.25,0.45,-0.67,0.52,37.69,18.5,35.9,1.25,0.75,1.75,0.5,0.5,1.25,0.25,0.0,0.25,1.0,0.75,0.25,0.5,0.7,0.14,-0.61,131.59,-10.5,20.4
4.86,1.25,0.0,0.0,0.5,0.0,0.0,0.0,0.0,0.25,0.25,0.0,0.0,0.25,0.45,-0.67,0.52,38.34,18.5,35.9,1.0,0.75,1.75,0.5,1.25,1.25,0.25,0.0,0.25,1.0,0.25,0.25,0.75,0.7,0.14,-0.61,135.77,-7.9,22.9
4.88,1.25,0.0,0.0,1.0,0.0,0.0,0.0,0.0,0.5,0.0,0.0,0.0,0.25,0.45,-0.67,0.52,41.73,20.6,43.0,1.25,0.5,1.75,0.5,0.25,1.5,0.5,0.0,0.25,0.75,0.0,0.25,0.5,0.7,0.14,-0.61,131.87,-11.1,29.2
4.9,1.75,0.0,0.0,0.25,0.0,0.0,0.0,0.0,0.25,0.25,0.0,0.0,0.25,0.45,-0.67,0.52,43.64,21.6,44.6,1.25,0.75,1.5,0.5,0.5,1.5,0.25,0.0,0.25,1.0,0.25,0.25,0.5,0.7,0.14,-0.61,131.47,-8.7,25.1
4.92,1.0,0.0,0.0,0.5,0.0,0.0,0.0,0.0,0.25,0.25,0.0,0.0,0.25,0.45,-0.67,0.52,42.4,16.8,29.4,1.0,0.25,1.75,0.5,0.25,1.25,0.25,0.0,0.25,0.75,0.5,0.25,0.75,0.7,0.14,-0.61,125.98,-10.2,13.3
4.94,1.0,0.0,0.0,0.75,0.0,0.0,0.0,0.0,0.25,0.25,0.0,0.0,0.25,0.45,-0.67,0.52,42.6,16.8,32.4,1.5,0.75,1.75,0.5,0.5,1.25,0.25,0.25,0.25,1.0,0.25,0.25,1.0,0.7,0.14,-0.61,131.49,-9.1,18.6
4.96,1.0,0.0,0.0,0.75,0.0,0.0,0.0,0.0,0.25,0.25,0.0,0.0,0.25,0.45,-0.67,0.52,41.85,16.8,32.4,1.25,0.5,1.75,0.5,0.5,1.75,0.25,0.0,0.25,1.0,0.25,0.25,0.5,0.7,0.14,-0.61,131.99,-8.6,24.2
4.98,1.25,0.0,0.0,0.5,0.0,0.0,0.0,0.0,0.25,0.25,0.0,0.0,0.25,0.45,-0.67,0.52,41.21,18.5,35.9,1.25,0.5,1.75,0.5,1.0,1.25,0.25,0.0,0.25,0.75,0.75,0.25,0.5,0.7,0.14,-0.61,138.08,-10.3,23.0
5.0,1.25,0.0,0.0,0.5,0.0,0.0,0.0,0.0,0.25,0.25,0.0,0.0,0.25,0.45,-0.67,0.52,41.41,18.5,35.9,1.25,0.5,1.75,0.5,0.25,1.25,0.25,0.0,0.25,1.0,0.25,0.25,0.75,0.7,0.14,-0.61,134.49,-10.2,18.3
5.02,1.0,0.0,0.0,0.5,0.0,0.0,0.0,0.0,0.25,0.25,0.0,0.0,0.25,0.45,-0.67,0.52,40.19,16.8,29.4,1.25,0.75,1.75,0.5,0.5,1.25,0.25,0.0,0.25,1.0,0.25,0.25,0.5,0.7,0.14,-0.61,133.23,-10.5,25.9
5.04,1.0,0.0,0.0,0.5,0.0,0.0,0.0,0.0,0.5,0.0,0.0,0.0,0.25,0.45,-0.67,0.52,38.39,20.0,33.7,1.25,0.75,1.75,0.5,0.5,1.25,0.0,0.0,0.25,1.0,0.75,0.25,0.5,0.7,0.14,-0.61,133.2,-10.2,20.3
5.06,0.5,0.0,0.0,1.0,0.0,0.0,0.0,0.0,0.25,0.25,0.0,0.0,0.25,0.45,-0.67,0.52,36.84,13.1,21.8,1.0,0.75,1.75,0.5,0.5,1.25,0.25,0.0,0.25,1.0,0.25,0.25,0.5,0.7,0.14,-0.61,131.76,-9.8,23.9
5.08,1.0,0.0,0.0,0.5,0.0,0.0,0.0,0.0,0.25,0.25,0.0,0.0,0.25,0.45,-0.67,0.52,36.41,16.8,29.4,1.25,0.75,1.75,0.5,0.5,1.5,0.25,0.0,0.25,0.75,0.25,0.25,0.5,0.7,0.14,-0.61,131.61,-10.3,29.2
5.1,1.25,0.0,0.0,0.5,0.0,0.0,0.0,0.0,0.25,0.25,0.0,0.0,0.25,0.45,-0.67,0.52,37.44,18.5,35.9,1.5,0.75,1.75,0.5,0.5,1.25,0.25,0.0,0.25,1.0,0.25,0.25,0.5,0.7,0.14,-0.61,133.01,-11.2,27.9
5.12,1.25,0.0,0.0,0.5,0.0,0.0,0.0,0.0,0.25,0.25,0.0,0.0,0.25,0.45,-0.67,0.52,38.64,18.5,35.9,1.25,0.75,1.75,0.5,0.5,1.25,0.25,0.0,0.25,1.0,0.5,0.25,0.5,0.7,0.14,-0.61,134.97,-10.5,23.1
5.14,1.0,0.0,0.0,0.5,0.0,0.0,0.0,0.0,0.25,0.25,0.0,0.0,0.25,0.45,-0.67,0.52,38.92,16.8,29.4,1.25,0.5,1.75,0.5,0.5,1.25,0.25,0.0,0.25,1.0,0.5,0.25,0.5,0.7,0.14,-0.61,133.57,-10.4,20.8
5.16,1.25,0.0,0.0,0.5,0.0,0.0,0.0,0.0,0.25,0.25,0.0,0.0,0.25,0.45,-0.67,0.52,39.9,18.5,35.9,1.5,0.75,1.75,0.5,0.25,1.25,0.25,0.0,0.25,1.0,0.25,0.25,1.0,0.7,0.14,-0.61,135.02,-10.2,19.0
5.18,1.0,0.0,0.0,0.5,0.0,0.0,0.0,0.0,0.25,0.25,0.0,0.0,0.25,0.45,-0.67,0.52,38.67,16.8,29.4,1.25,0.5,1.75,0.5,0.5,1.25,0.25,0.0,0.25,0.75,0.25,0.25,0.25,0.7,0.14,-0.61,129.64,-12.1,31.4
5.2,1.0,0.0,0.0,1.0,0.0,0.0,0.0,0.0,0.25,0.0,0.0,0.0,0.25,0.45,-0.67,0.52,40.01,20.1,45.9,1.25,0.75,1.25,0.5,0.5,1.25,0.25,0.0,0.25,1.0,0.25,0.25,0.5,0.7,0.14,-0.61,127.33,-8.7,23.7
5.22,0.5,0.25,0.0,1.0,0.0,0.0,0.0,0.0,0.25,0.25,0.0,0.0,0.25,0.45,-0.67,0.52,40.9,13.1,29.7,1.25,0.75,1.75,0.5,1.75,0.75,0.25,0.0,0.25,1.0,0.25,0.25,0.5,0.7,0.14,-0.61,132.29,-10.0,29.8
5.24,1.0,0.0,0.0,0.5,0.0,0.0,0.0,0.0,0.25,0.25,0.0,0.0,0.25,0.45,-0.67,0.52,40.52,16.8,29.4,1.25,0.75,1.5,0.5,0.5,1.0,0.25,0.0,0.25,1.0,0.25,0.25,0.5,0.7,0.14,-0.61,131.24,-10.6,24.6
5.26,1.0,0.0,0.0,0.75,0.0,0.0,0.0,0.0,0.25,0.25,0.0,0.0,0.25,0.45,-0.67,0.52,40.97,16.8,32.4,1.25,0.5,1.75,0.5,1.0,1.25,0.25,0.0,0.25,1.0,0.25,0.25,0.5,0.7,0.14,-0.61,133.77,-9.5,25.6
5.28,1.0,0.0,0.0,0.5,0.0,0.0,0.0,0.0,0.25,0.25,0.0,0.0,0.25,0.45,-0.67,0.52,39.54,16.8,29.4,1.25,0.75,1.75,0.5,0.5,1.25,0.0,0.0,0.25,1.0,0.25,0.25,0.5,0.7,0.14,-0.61,132.24,-10.2,25.9
5.3,1.25,0.0,0.0,0.75,0.0,0.0,0.0,0.0,0.25,0.25,0.0,0.0,0.25,0.45,-0.67,0.52,41.59,18.4,38.0,1.25,0.75,1.75,0.5,0.25,1.25,0.25,0.0,0.25,1.0,0.0,0.25,0.75,0.7,0.14,-0.61,131.45,-10.2,23.7
5.32,0.75,0.0,0.0,0.5,0.0,0.0,0.0,0.0,0.25,0.25,0.0,0.0,0.25,0.45,-0.67,0.52,38.69,14.6,21.3,1.25,0.75,1.5,0.5,0.5,1.25,0.25,0.0,0.25,1.0,0.25,0.25,0.75,0.7,0.14,-0.61,129.6,-8.9,20.7
5.34,1.0,0.0,0.0,0.5,0.0,0.0,0.0,0.0,0.25,0.25,0.0,0.0,0.25,0.45,-0.67,0.52,38.11,16.8,29.4,1.5,0.75,2.25,0.5,0.5,1.0,0.25,0.0,0.25,1.0,0.0,0.25,0.5,0.7,0.14,-0.61,132.16,-13.7,32.6
5.36,1.0,0.0,0.0,0.5,0.0,0.0,0.0,0.0,0.25,0.0,0.0,0.0,0.25,0.45,-0.67,0.52,35.42,20.9,42.7,1.5,0.75,1.75,0.5,0.5,0.75,0.25,0.5,0.25,0.75,0.25,0.25,0.5,0.7,0.14,-0.61,133.02,-12.2,26.7
5.38,1.0,0.0,0.0,1.0,0.0,0.0,0.0,0.0,0.5,0.25,0.0,0.0,0.25,0.45,-0.67,0.52,39.96,16.5,28.7,1.25,0.5,1.75,0.5,0.5,1.0,0.25,0.0,0.25,1.0,0.25,0.25,0.75,0.7,0.14,-0.61,131.87,-10.6,19.1
5.4,0.75,0.0,0.0,0.5,0.0,0.0,0.0,0.0,0.25,0.25,0.0,0.0,0.25,0.45,-0.67,0.52,37.75,14.6,21.3,1.25,0.5,1.25,0.5,0.5,1.0,0.25,0.0,0.25,1.0,0.25,0.25,0.5,0.7,0.14,-0.61,126.21,-9.6,20.7
5.42,0.5,0.0,0.0,0.5,0.0,0.0,0.0,0.0,0.25,0.0,0.0,0.0,0.25,0.45,-0.67,0.52,34.25,16.6,25.5,1.0,0.75,1.5,0.5,0.5,1.0,0.25,0.0,0.25,1.0,0.25,0.25,0.5,0.7,0.14,-0.61,122.75,-9.9,22.3
5.44,0.75,0.0,0.0,0.5,0.0,0.0,0.0,0.0,0.25,0.25,0.0,0.0,0.25,0.45,-0.67,0.52,31.37,14.6,21.3,1.0,0.5,1.75,0.5,0.5,1.25,0.25,0.0,0.25,0.75,0.0,0.25,1.0,0.7,0.14,-0.61,120.23,-9.0,18.9
5.46,0.75,0.0,0.0,0.75,0.0,0.0,0.0,0.0,0.25,0.25,0.0,0.0,0.25,0.45,-0.67,0.52,31.88,14.9,25.6,1.0,0.5,1.75,0.5,0.5,1.25,0.25,0.0,0.25,1.0,0.25,0.25,0.5,0.7,0.14,-0.61,120.1,-9.7,21.4
5.48,0.25,0.0,0.0,0.75,0.0,0.0,0.0,0.0,0.25,0.25,0.0,0.0,0.25,0.45,-0.67,0.52,30.51,9.7,6.5,1.25,0.5,1.25,0.5,0.5,1.0,0.25,0.0,0.25,1.0,0.25,0.25,0.5,0.7,0.14,-0.61,119.26,-9.6,20.7
5.5,0.0,0.0,0.0,0.5,0.0,0.0,0.0,0.0,0.25,0.0,0.0,0.0,0.25,0.45,-0.67,0.52,25.26,8.2,-7.2,1.25,0.75,1.75,0.5,1.0,1.25,0.25,0.0,0.25,1.0,0.5,0.25,0.75,0.7,0.14,-0.61,127.73,-9.0,21.3
5.52,0.25,0.0,0.0,0.75,0.0,0.0,0.0,0.0,0.5,0.25,0.0,0.0,0.25,0.45,-0.67,0.52,25.83,10.0,1.0,1.25,0.5,2.0,0.5,0.25,1.25,0.25,0.0,0.25,1.0,0.25,0.25,0.25,0.7,0.14,-0.61,128.03,-12.7,28.1
5.54,0.5,0.0,0.0,0.5,0.0,0.0,0.0,0.0,0.25,0.25,0.0,0.0,0.25,0.45,-0.67,0.52,24.74,11.9,11.0,1.25,0.75,2.0,0.5,0.5,1.25,0.25,0.0,0.25,1.0,0.25,0.25,0.5,0.7,0.14,-0.61,132.74,-11.3,27.0
5.56,0.75,0.0,0.0,0.75,0.0,0.0,0.0,0.0,0.25,0.25,0.0,0.0,0.25,0.45,-0.67,0.52,29.44,14.9,25.6,1.25,0.5,1.75,0.5,1.0,1.25,0.25,0.0,0.25,0.75,0.5,0.25,0.5,0.7,0.14,-0.61,134.01,-10.3,25.7
5.58,1.0,0.0,0.0,0.5,0.0,0.0,0.0,0.0,0.25,0.25,0.0,0.0,0.25,0.45,-0.67,0.52,32.45,16.8,29.4,1.25,0.75,1.75,0.5,0.5,1.25,0.25,0.0,0.25,0.75,0.25,0.25,0.5,0.7,0.14,-0.61,134.25,-11.3,29.1
5.6,0.75,0.0,0.0,0.5,0.0,0.0,0.0,0.0,0.25,0.0,0.0,0.0,0.25,0.45,-0.67,0.52,33.07,19.0,35.3,1.5,0.5,1.75,0.5,0.5,1.25,0.25,0.25,0.25,0.75,0.25,0.25,0.0,0.7,0.14,-0.61,131.77,-12.7,35.8
5.62,1.25,0.0,0.0,0.5,0.0,0.0,0.0,0.0,0.25,0.25,0.0,0.0,0.25,0.45,-0.67,0.52,35.57,18.5,35.9,1.25,0.5,1.75,0.5,1.0,1.25,0.25,0.0,0.25,1.0,0.25,0.25,0.5,0.7,0.14,-0.61,133.76,-9.5,25.6
5.64,1.0,0.0,0.0,0.5,0.0,0.0,0.0,0.0,0.25,0.25,0.0,0.0,0.25,0.45,-0.67,0.52,37.4,16.8,29.4,1.25,0.75,1.75,0.5,0.0,1.25,0.5,0.0,0.25,0.75,0.25,0.25,0.75,0.7,0.14,-0.61,131.59,-11.9,22.8
5.66,1.0,0.0,0.0,0.5,0.0,0.0,0.0,0.0,0.25,0.25,0.0,0.25,0.25,0.45,-0.67,0.52,39.93,16.0,15.3,1.25,0.75,1.75,0.5,0.25,1.25,0.5,0.0,0.25,0.75,0.75,0.25,0.5,0.7,0.14,-0.61,131.73,-12.1,22.2
5.68,1.0,0.0,0.0,0.5,0.0,0.0,0.0,0.0,0.0,0.0,0.0,0.0,0.25,0.45,-0.67,0.52,37.03,22.2,54.4,1.25,0.75,1.5,0.5,0.5,1.0,0.25,0.0,0.25,0.75,0.25,0.25,0.5,0.7,0.14,-0.61,127.89,-11.5,27.8
5.7,1.25,0.0,0.0,0.5,0.0,0.0,0.0,0.0,0.25,0.25,0.0,0.0,0.25,0.45,-0.67,0.52,39.12,18.5,35.9,1.25,0.5,2.0,0.5,0.5,1.25,0.25,0.0,0.25,1.0,0.25,0.25,0.5,0.7,0.14,-0.61,128.85,-11.3,24.8
5.72,1.25,0.0,0.0,0.5,0.0,0.0,0.0,0.0,0.25,0.0,0.0,0.0,0.5,0.45,-0.67,0.52,40.26,18.6,32.0,1.25,0.75,1.5,0.5,0.5,1.25,0.25,0.0,0.25,1.0,0.25,0.25,0.75,0.7,0.14,-0.61,128.4,-8.9,20.7
5.74,1.0,0.0,0.0,0.75,0.0,0.0,0.0,0.0,0.25,0.25,0.0,0.0,0.25,0.45,-0.67,0.52,42.27,16.8,32.4,1.25,0.75,1.75,0.5,0.5,1.25,0.25,0.0,0.25,0.75,0.25,0.25,0.5,0.7,0.14,-0.61,128.43,-11.3,29.1
5.76,1.25,0.0,0.0,0.5,0.0,0.0,0.0,0.0,0.25,0.25,0.0,0.0,0.25,0.45,-0.67,0.52,42.25,18.5,35.9,1.25,0.5,2.0,0.5,0.5,1.0,0.25,0.0,0.25,0.75,0.25,0.25,0.25,0.7,0.14,-0.61,126.96,-14.1,32.3
5.78,1.0,0.0,0.0,0.5,0.0,0.0,0.0,0.0,0.25,0.25,0.0,0.0,0.25,0.45,-0.67,0.52,41.43,16.8,29.4,1.25,0.5,2.25,0.5,0.5,1.0,0.25,0.0,0.25,1.0,0.25,0.25,0.5,0.7,0.14,-0.61,127.78,-13.1,25.6
5.8,1.0,0.0,0.0,0.5,0.0,0.0,0.0,0.0,0.25,0.0,0.0,0.0,0.25,0.45,-0.67,0.52,38.35,20.9,42.7,1.25,0.75,1.75,0.5,1.0,1.25,0.25,0.0,0.25,1.0,0.25,0.25,0.5,0.7,0.14,-0.61,132.01,-9.6,27.7
5.82,1.0,0.0,0.0,0.5,0.0,0.0,0.0,0.0,0.25,0.0,0.0,0.25,0.25,0.45,-0.67,0.52,37.05,19.6,25.6,1.25,0.75,1.75,0.5,0.5,1.0,0.25,0.25,0.25,0.75,0.5,0.25,1.0,0.7,0.14,-0.61,135.83,-10.0,16.2
5.84,0.75,0.0,0.0,0.5,0.0,0.0,0.0,0.0,0.5,0.0,0.0,0.0,0.5,0.45,-0.67,0.52,36.36,14.5,10.4,1.25,0.5,1.75,0.5,0.25,1.0,0.25,0.0,0.25,1.0,0.25,0.25,0.5,0.7,0.14,-0.61,132.33,-12.0,22.2
5.86,1.25,0.0,0.0,1.0,0.0,0.0,0.0,0.0,0.25,0.0,0.0,0.0,0.25,0.45,-0.67,0.52,39.47,21.4,50.4,1.25,0.75,1.75,0.5,0.5,0.75,0.25,0.0,0.25,1.0,0.25,0.25,0.75,0.7,0.14,-0.61,130.26,-11.7,21.2
5.88,1.25,0.0,0.0,0.5,0.0,0.0,0.0,0.0,0.25,0.0,0.0,0.0,0.25,0.45,-0.67,0.52,39.99,22.4,48.6,1.25,0.5,1.75,0.5,0.5,0.75,0.25,0.0,0.25,1.0,0.5,0.25,0.5,0.7,0.14,-0.61,126.76,-12.4,20.0
5.9,1.0,0.0,0.0,0.75,0.0,0.0,0.0,0.0,0.25,0.0,0.0,0.0,0.25,0.45,-0.67,0.52,40.35,20.5,44.5,1.25,0.75,1.5,0.5,0.5,1.25,0.5,0.0,0.25,1.0,0.25,0.25,0.5,0.7,0.14,-0.61,126.78,-10.0,24.9
5.92,1.0,0.0,0.0,0.75,0.0,0.0,0.0,0.0,0.25,0.0,0.0,0.0,0.25,0.45,-0.67,0.52,39.33,20.5,44.5,1.25,0.5,1.75,0.5,0.25,1.25,0.25,0.25,0.25,1.0,0.25,0.25,0.0,0.7,0.14,-0.61,124.55,-11.7,29.5
5.94,1.0,0.0,0.0,0.5,0.0,0.0,0.0,0.0,0.25,0.0,0.0,0.0,0.25,0.45,-0.67,0.52,36.68,20.9,42.7,1.5,0.75,1.75,0.5,1.0,1.0,0.25,0.0,0.25,1.0,0.25,0.25,0.5,0.7,0.14,-0.61,130.01,-11.1,29.4
