time,left pressure 0[N/cm²],left pressure 1[N/cm²],left pressure 2[N/cm²],left pressure 3[N/cm²],left pressure 4[N/cm²],left pressure 5[N/cm²],left pressure 6[N/cm²],left pressure 7[N/cm²],left pressure 8[N/cm²],left pressure 9[N/cm²],left pressure 10[N/cm²],left pressure 11[N/cm²],left pressure 12[N/cm²],left acceleration X[g],left acceleration Y[g],left acceleration Z[g],left total force[N],left center of pressure X[mm],left center of pressure Y[mm],right pressure 0[N/cm²],right pressure 1[N/cm²],right pressure 2[N/cm²],right pressure 3[N/cm²],right pressure 4[N/cm²],right pressure 5[N/cm²],right pressure 6[N/cm²],right pressure 7[N/cm²],right pressure 8[N/cm²],right pressure 9[N/cm²],right pressure 10[N/cm²],right pressure 11[N/cm²],right pressure 12[N/cm²],right acceleration X[g],right acceleration Y[g],right acceleration Z[g],right total force[N],right center of pressure X[mm],right center of pressure Y[mm]
0.02,0.0,0.0,0.0,0.5,0.0,0.0,0.75,0.0,1.0,0.0,4.25,0.0,6.25,0.27,0.39,2.64,150.01,-0.8,-81.7,6.75,0.5,4.25,6.25,5.25,0.0,0.5,1.5,0.25,0.75,0.5,0.0,0.0,0.52,0.64,1.89,612.39,-17.2,54.9
0.04,0.0,0.0,0.0,0.0,0.0,0.0,0.0,0.0,0.0,0.0,0.0,0.0,0.0,-0.42,0.33,1.2,127.8,0.0,0.0,4.5,0.0,0.0,4.0,2.5,0.0,0.0,0.25,0.25,0.25,0.25,0.0,0.0,0.77,1.52,2.83,371.21,-16.8,61.2
0.06,0.0,0.0,0.0,0.5,0.0,0.0,0.25,5.0,1.5,6.75,5.75,5.25,6.25,-0.05,0.08,1.08,244.89,-4.5,-78.0,2.0,0.0,0.0,1.75,0.0,0.0,0.0,0.0,0.0,0.25,0.0,0.0,0.0,0.08,0.7,2.45,188.86,-23.5,68.3
0.08,0.0,0.0,0.0,0.5,0.0,0.25,0.5,5.25,1.75,6.75,5.25,5.0,6.25,-0.17,0.08,0.95,334.18,-4.8,-75.9,2.25,0.0,0.5,1.5,0.0,0.0,0.0,0.0,0.25,1.5,0.0,0.0,0.0,0.27,0.2,2.08,41.97,-16.8,34.5
0.1,0.0,0.0,0.0,0.75,0.75,0.75,0.5,5.5,1.75,6.75,4.25,5.0,6.25,-0.17,0.08,0.95,454.67,-5.4,-69.5,0.0,0.0,0.0,0.25,0.0,4.5,0.0,0.0,0.5,0.0,0.0,0.0,0.0,1.02,-0.17,2.02,0.0,17.3,28.1
0.12,0.0,0.0,0.0,0.75,0.0,1.5,0.5,5.75,2.0,6.5,5.5,5.25,6.25,-0.17,0.08,0.95,533.83,-5.0,-70.5,0.0,0.0,0.5,0.75,0.0,0.0,0.0,0.25,0.0,0.25,0.0,0.0,0.0,1.27,-1.17,1.7,0.0,-13.9,26.8
0.14,0.0,0.0,0.0,1.25,0.0,1.5,0.5,6.0,2.0,6.75,5.5,5.0,6.25,-0.17,0.08,0.95,593.68,-4.9,-68.0,0.5,0.0,1.75,1.75,1.25,0.0,0.0,1.5,0.5,2.75,0.75,0.0,0.25,0.95,-1.42,0.83,0.0,-4.7,-2.5
0.16,0.0,0.0,0.0,2.0,0.25,1.5,0.75,6.0,2.0,6.5,6.0,4.75,6.0,-0.17,0.02,0.95,605.83,-4.0,-63.4,0.5,0.0,2.0,1.5,1.25,0.0,0.25,1.5,0.5,2.25,0.75,0.0,0.25,0.45,-0.42,0.95,0.0,-6.5,1.1
0.18,0.0,0.0,0.0,1.75,0.0,2.0,1.0,6.0,2.5,6.25,6.0,4.25,5.75,-0.17,0.02,0.95,605.47,-4.1,-62.2,0.5,0.0,1.75,1.5,1.25,0.0,0.5,1.5,0.5,2.25,0.5,0.0,0.0,0.2,-0.48,0.39,3.09,-6.4,4.5
0.2,0.0,0.0,0.0,2.5,2.75,2.0,0.75,6.0,2.5,6.0,5.5,4.0,5.5,-0.17,0.08,0.95,613.86,-3.9,-49.2,0.5,0.0,1.0,1.5,1.25,0.0,0.0,1.25,0.5,2.0,0.75,0.0,0.0,0.39,-0.36,0.58,37.89,-4.3,0.3
0.22,0.0,0.0,0.0,2.5,3.25,2.0,1.0,6.0,2.5,5.0,5.25,3.5,5.25,-0.17,0.02,0.95,596.49,-3.6,-45.1,0.5,0.0,1.75,1.5,2.25,0.0,0.0,1.5,0.5,2.0,0.5,0.0,0.0,0.45,-0.36,0.77,80.63,-5.3,11.0
0.24,0.0,0.0,0.0,2.5,4.25,2.25,1.0,5.75,2.5,4.75,5.0,3.0,4.0,-0.11,0.02,0.95,563.49,-3.5,-37.7,0.5,0.0,1.75,1.5,1.25,0.0,0.5,1.5,0.5,1.75,0.25,0.0,0.5,0.39,-0.3,0.95,109.32,-6.4,4.6
0.26,0.5,0.0,0.0,4.0,4.5,2.75,1.25,5.75,2.75,4.75,4.25,2.5,3.25,-0.11,0.08,0.95,534.32,-2.3,-26.6,0.5,0.0,1.75,1.5,1.5,0.0,0.25,1.5,0.5,2.25,0.75,0.0,0.5,0.27,-0.11,1.02,145.56,-5.0,-1.4
0.28,1.25,0.0,0.25,4.5,5.25,2.75,1.25,5.25,3.0,3.25,3.75,2.0,2.75,-0.11,0.08,0.95,506.31,-0.3,-15.1,0.5,0.0,1.0,1.5,1.25,0.0,0.25,1.5,0.5,2.25,0.25,0.0,0.5,0.33,0.2,1.02,160.81,-2.3,-4.3
0.3,1.25,0.75,0.75,5.25,5.5,2.75,1.25,5.25,3.0,3.25,3.5,1.75,1.75,-0.11,0.08,0.95,472.06,1.0,-5.6,0.5,0.0,1.5,1.5,1.25,0.0,0.25,1.5,0.5,2.0,0.5,0.0,0.5,0.39,0.27,1.14,166.23,-4.8,-0.9
0.32,1.75,1.0,0.0,6.5,5.75,3.0,1.25,5.25,3.0,2.5,3.25,1.25,1.5,-0.11,0.08,0.95,477.59,1.4,2.0,0.5,0.0,1.25,1.5,1.0,0.0,0.25,1.25,0.5,1.75,0.25,0.0,0.75,0.27,0.39,1.39,155.88,-4.6,-2.4
0.34,2.0,1.0,1.5,7.25,6.75,3.25,1.5,5.25,2.75,1.5,2.5,1.0,1.25,-0.11,0.08,0.95,498.03,3.5,13.3,0.5,0.0,1.5,1.5,1.25,0.0,0.0,1.0,0.5,2.0,0.5,0.0,0.5,0.27,0.39,1.58,151.91,-5.6,0.6
0.36,2.5,1.0,1.75,8.25,7.0,3.25,1.5,4.75,2.75,1.5,1.75,1.25,0.75,-0.11,0.08,0.95,519.35,4.8,19.4,0.5,0.0,1.25,1.5,1.75,0.0,0.25,1.25,0.5,2.0,1.0,0.0,1.0,0.33,0.7,1.77,153.68,-3.5,-6.9
0.38,2.75,1.0,2.75,9.0,7.75,3.75,1.5,4.5,2.0,1.25,1.75,1.0,0.5,-0.11,0.08,0.95,551.73,5.8,26.3,0.5,0.0,1.75,1.5,1.5,0.0,0.25,1.5,0.5,2.0,0.25,0.0,0.75,0.58,0.77,2.02,152.0,-4.8,1.0
0.4,3.0,1.0,3.0,10.5,8.0,4.0,1.75,4.5,1.75,1.25,1.25,0.5,0.5,-0.11,0.08,0.95,587.83,6.3,31.5,0.5,0.0,1.75,1.5,1.75,0.0,0.0,1.5,0.5,2.0,0.25,0.0,0.75,0.64,1.08,2.14,158.18,-4.3,2.1
0.42,3.0,1.25,3.0,10.5,8.0,4.0,1.75,4.0,1.25,1.5,0.75,0.75,0.25,-0.11,0.08,0.95,612.23,6.5,34.3,0.0,0.0,0.5,0.0,0.0,0.0,0.0,0.25,0.0,0.5,0.0,0.0,0.0,0.45,1.45,2.2,115.02,-6.0,-12.7
0.44,3.0,1.5,4.75,11.5,8.5,4.25,1.75,3.25,1.0,1.0,0.75,0.25,0.25,-0.11,0.08,0.95,642.02,8.5,41.4,0.5,0.0,0.5,1.5,0.0,0.0,0.25,1.5,0.5,2.0,0.25,0.0,0.0,0.14,2.27,2.2,99.69,-2.7,-10.8
0.46,3.5,2.25,4.75,12.0,8.75,4.25,2.0,3.0,1.0,0.75,0.25,0.0,0.25,-0.11,0.14,0.95,672.53,9.2,46.6,0.5,0.0,1.0,1.5,1.5,0.0,0.25,1.5,0.5,1.75,0.5,0.0,0.0,-0.3,2.58,0.95,94.98,-4.3,5.4
0.48,4.5,2.5,5.5,12.5,9.0,4.0,1.75,3.0,0.75,0.75,0.0,0.0,0.25,-0.11,0.14,1.02,711.45,10.4,49.6,0.25,0.0,0.5,0.0,0.0,0.0,0.25,1.5,0.0,0.0,0.25,0.0,0.0,-1.05,3.52,0.58,76.81,-3.5,-7.2
0.5,5.25,2.5,5.25,13.0,9.5,4.0,1.75,2.5,0.25,0.5,0.25,0.0,0.25,-0.17,0.14,1.08,742.52,10.9,52.3,0.75,0.0,0.0,1.5,0.0,0.0,0.0,0.0,0.5,1.75,0.0,0.0,0.0,-1.67,4.14,0.33,67.45,-6.6,1.8
0.52,6.0,2.75,6.0,14.0,9.5,3.0,1.75,2.25,0.25,0.5,0.0,0.0,0.25,-0.17,0.14,1.08,776.41,12.7,55.0,0.0,0.0,0.0,0.0,0.0,0.0,0.0,0.0,0.0,0.5,0.0,0.0,0.0,-2.73,3.64,0.7,38.07,15.7,-75.5
0.54,2.25,0.0,6.25,14.0,8.75,2.75,1.75,0.0,0.0,0.0,0.0,0.0,0.0,-0.17,0.2,1.08,719.42,13.7,57.1,0.0,0.0,0.0,0.0,0.0,0.0,0.0,0.0,0.0,1.5,0.0,0.0,0.5,0.14,-0.67,0.52,22.76,15.1,-84.2
0.56,6.0,3.5,6.5,14.0,8.5,2.5,1.0,3.25,0.5,0.5,0.0,0.0,0.5,-0.17,0.2,1.08,739.04,12.8,52.9,0.0,0.0,0.0,0.0,0.0,0.0,0.0,1.0,0.0,3.5,0.0,2.75,4.5,1.02,-1.55,0.89,70.45,9.3,-93.7
0.58,6.75,3.75,7.0,14.0,9.0,1.5,0.75,1.5,0.75,0.5,0.0,0.0,0.25,-0.23,0.27,1.2,745.9,15.1,58.2,1.25,0.0,0.5,1.5,0.0,0.0,0.0,1.25,0.5,7.5,2.0,5.25,6.5,-0.92,0.77,0.95,194.35,2.6,-70.3
0.6,7.5,2.75,6.75,12.5,0.0,0.0,0.0,1.5,0.75,0.0,0.0,0.0,0.25,-0.3,0.33,1.39,671.02,23.2,62.7,0.5,0.0,0.25,1.25,1.5,0.25,0.0,2.75,0.75,8.75,5.75,6.25,7.75,-0.11,0.27,2.89,331.34,3.6,-70.4
0.62,7.5,2.5,6.0,11.0,7.5,0.0,0.0,1.25,0.75,0.5,0.0,0.0,0.25,-0.48,0.39,1.52,628.95,17.0,59.5,0.5,0.0,0.75,1.25,1.25,1.25,0.25,4.5,1.0,9.25,7.25,6.25,8.25,0.27,0.45,1.14,506.41,3.6,-66.2
0.64,7.25,1.25,4.0,8.25,0.0,0.0,0.0,1.25,0.75,0.5,0.0,0.0,0.25,-0.73,0.58,1.89,492.64,22.7,59.3,0.5,0.0,1.0,1.5,1.75,0.0,0.25,5.5,1.0,9.25,7.25,6.0,8.25,-0.11,0.08,1.08,656.04,3.1,-64.9
0.66,5.75,0.75,1.75,4.5,0.0,0.0,0.0,1.25,0.75,0.0,0.0,0.0,0.25,-1.05,1.08,2.83,352.49,22.2,59.0,0.5,0.0,1.25,1.5,1.5,2.0,0.25,5.75,1.0,9.25,7.0,6.0,8.25,0.2,0.14,0.95,757.71,3.8,-60.6
0.68,0.0,0.0,1.25,3.25,0.0,0.0,0.0,0.0,0.75,0.5,0.0,0.0,0.25,-0.42,0.7,2.7,211.44,17.0,29.2,0.5,0.0,0.75,1.5,1.25,2.0,0.0,6.25,1.0,9.25,6.75,5.75,8.0,0.14,0.08,0.95,791.3,4.7,-62.1
0.7,0.0,0.0,0.75,2.5,0.0,0.0,0.0,0.0,0.5,0.5,0.0,0.0,0.25,-0.42,0.58,2.52,95.53,14.9,24.4,0.5,0.0,1.25,1.5,2.25,2.25,0.25,6.25,1.25,9.25,7.25,5.25,8.0,0.08,0.08,0.95,818.46,4.1,-56.5
0.72,0.0,0.0,0.25,0.5,0.0,0.0,0.0,0.0,0.25,0.5,0.0,0.0,0.25,-1.11,-0.17,2.45,0.0,5.8,-16.5,0.5,0.0,1.0,1.75,2.25,3.75,0.25,6.25,1.25,9.0,6.5,5.25,7.75,0.08,0.08,0.95,830.1,4.9,-53.0
0.74,0.0,0.0,0.0,1.0,0.0,0.0,0.0,0.0,0.5,0.5,0.0,0.0,0.25,-1.11,-0.48,1.27,0.0,5.5,-10.6,0.5,0.0,0.0,1.75,3.25,4.25,0.25,6.25,1.25,8.5,6.5,4.0,7.75,0.14,0.08,0.95,814.72,6.3,-50.1
0.76,0.0,0.0,0.25,0.5,0.0,0.0,0.0,0.0,0.5,0.5,0.0,0.0,0.25,-1.23,-1.36,0.7,0.0,6.6,-19.2,0.5,0.0,1.0,1.75,2.5,4.25,0.25,6.5,1.25,8.5,5.75,3.25,6.75,0.14,0.08,0.95,771.12,5.7,-46.5
0.78,0.0,0.0,0.0,0.75,0.0,0.0,0.0,0.0,0.5,0.5,0.0,0.0,0.25,-0.8,-0.67,0.95,0.0,4.0,-19.4,0.5,0.0,1.0,1.75,4.25,4.5,0.25,6.25,1.25,8.0,5.0,2.75,6.5,0.14,0.08,0.95,711.0,5.9,-39.4
0.8,0.0,0.0,0.75,0.5,0.0,0.0,0.0,0.0,0.5,0.5,0.0,0.0,0.25,-0.55,-0.36,0.27,0.0,13.0,-3.0,1.25,0.0,1.75,3.25,5.25,5.5,0.25,6.25,1.25,7.5,4.75,2.25,5.75,0.14,0.08,0.95,661.06,4.0,-25.7
0.82,0.0,0.0,1.0,0.5,0.0,0.0,0.0,0.0,0.5,0.0,0.0,0.0,0.25,-0.48,-0.36,0.2,0.0,22.1,19.8,1.75,0.5,1.75,4.0,5.25,5.75,0.25,6.25,1.25,7.5,4.0,1.5,5.25,0.14,0.08,0.95,630.83,3.5,-18.2
0.84,0.0,0.0,1.25,0.5,0.0,0.0,0.75,0.0,0.5,0.0,0.5,0.0,0.0,-0.61,-0.3,0.58,0.0,25.7,20.0,1.75,0.75,1.75,4.5,5.75,6.0,0.25,6.25,1.25,7.0,2.75,0.75,4.5,0.14,0.08,0.95,614.46,3.6,-9.9
0.86,0.0,0.0,0.0,0.0,0.0,0.0,0.0,0.0,0.25,0.0,0.0,0.0,0.25,-0.61,-0.36,0.77,0.0,-1.0,-75.0,1.75,1.0,1.75,6.0,7.0,6.25,0.75,6.25,1.25,6.25,2.75,0.75,3.5,0.14,0.08,0.95,623.9,2.2,-1.3
0.88,0.0,0.0,1.0,0.5,0.0,0.0,0.25,0.0,0.75,0.25,0.0,0.25,0.25,-0.55,-0.23,0.89,0.0,17.7,-2.0,2.0,1.0,2.25,6.25,7.0,6.75,1.0,6.25,1.25,5.5,2.75,0.75,3.25,0.14,0.08,0.95,641.21,1.3,2.4
0.9,0.0,0.0,0.5,0.5,0.0,0.0,0.25,0.0,0.75,0.25,0.0,0.0,0.25,-0.48,0.08,0.89,17.74,14.2,-4.4,2.0,1.0,3.25,8.0,8.25,6.75,1.0,5.5,1.25,5.0,2.75,0.5,2.5,0.14,0.08,0.95,675.15,-0.6,11.1
0.92,0.0,0.0,1.0,0.5,0.0,0.0,0.25,0.0,0.5,0.25,0.0,0.0,0.25,-0.42,0.2,1.08,35.19,19.0,11.2,1.75,1.25,3.5,8.0,8.5,7.25,1.0,5.25,1.25,4.5,2.5,0.25,2.0,0.14,0.08,0.95,701.54,-0.8,15.4
0.94,0.0,0.0,1.0,0.5,0.0,0.0,0.0,0.0,0.5,0.5,0.25,0.0,0.5,-0.36,0.33,1.33,42.85,12.7,-11.6,2.5,1.75,3.25,9.75,9.25,7.25,1.25,5.25,1.0,4.5,1.75,0.0,1.75,0.14,0.08,0.95,741.45,-1.6,22.3
0.96,0.0,0.0,1.0,0.5,0.0,0.0,0.0,0.0,0.5,0.25,0.0,0.0,0.25,-0.23,0.45,1.58,47.26,18.4,10.5,3.0,1.75,4.25,9.75,9.5,7.5,1.25,4.5,0.75,4.5,1.75,0.0,1.75,0.14,0.08,0.95,779.03,-2.7,25.2
0.98,0.0,0.0,0.25,0.5,0.0,0.0,0.25,0.0,0.5,0.25,0.0,0.0,0.25,-0.23,0.58,1.77,41.89,11.2,-8.8,3.0,2.0,4.0,11.5,9.5,7.5,1.0,4.25,0.75,3.5,1.25,0.0,1.75,0.14,0.08,0.95,813.61,-3.4,29.8
1.0,0.0,0.0,1.5,0.5,0.0,0.0,0.5,0.0,0.5,0.75,0.0,0.0,0.0,-0.36,0.64,2.02,46.18,19.7,15.5,3.0,2.25,4.25,11.5,11.0,7.5,1.25,4.0,0.5,3.5,0.75,0.0,1.5,0.14,0.14,0.95,844.83,-3.5,33.4
1.02,0.0,0.0,1.0,0.5,0.0,0.0,0.25,0.0,0.5,0.25,0.0,0.0,0.25,-0.48,0.83,2.33,45.93,19.0,11.2,3.75,2.5,5.0,13.0,11.0,7.75,1.0,3.0,0.5,3.0,1.0,0.0,1.5,0.08,0.14,0.95,882.22,-5.3,37.5
1.04,0.0,0.0,0.0,0.5,0.0,0.0,0.0,0.0,0.5,0.5,0.0,0.0,0.25,-0.3,1.27,2.58,41.09,2.0,-30.8,4.5,2.75,5.25,13.0,11.5,7.75,1.0,2.75,0.5,3.0,0.75,0.0,1.0,0.08,0.14,0.95,916.57,-6.0,41.0
1.06,0.0,0.0,0.5,0.5,0.0,0.0,0.0,0.0,0.5,0.5,0.0,0.0,0.25,-0.11,1.77,2.45,38.06,10.2,-10.2,5.5,2.75,6.0,14.0,11.5,7.75,0.75,1.75,0.5,3.0,1.0,0.0,0.75,0.08,0.14,1.02,957.17,-7.6,44.1
1.08,0.0,0.0,1.0,0.5,0.0,0.0,0.0,0.0,0.5,0.5,0.0,0.0,0.5,0.52,2.58,1.83,40.15,12.9,-6.6,5.5,3.25,6.25,15.0,12.5,7.75,0.75,1.75,0.5,3.0,0.75,0.0,0.75,0.08,0.14,1.08,1008.06,-7.7,45.6
1.1,0.0,0.0,0.0,0.5,0.0,0.0,0.0,0.0,0.5,0.5,0.0,0.0,0.25,1.08,2.95,1.33,36.63,2.0,-30.8,6.75,3.5,6.5,15.0,12.5,7.5,0.75,1.5,0.5,3.0,0.5,0.0,0.75,0.08,0.2,1.02,1052.32,-8.6,47.8
1.12,0.0,0.0,0.25,0.5,0.0,0.0,0.0,0.0,0.5,0.25,0.0,0.0,0.25,2.27,3.89,0.39,31.74,9.7,-11.3,7.5,3.5,6.75,15.0,12.5,7.25,0.5,1.5,0.5,2.75,0.5,0.0,0.75,0.08,0.2,1.02,1087.33,-9.2,49.0
1.14,0.0,0.0,0.0,0.5,0.0,0.0,0.25,0.0,0.5,0.5,0.5,0.0,0.0,2.45,4.39,0.33,30.4,7.6,-28.1,8.0,4.0,6.5,15.0,12.5,6.5,0.25,1.5,0.5,2.75,0.5,0.0,0.75,0.08,0.27,1.02,1105.77,-9.6,50.0
1.16,0.0,0.0,0.25,0.5,0.0,0.0,0.0,0.0,0.25,0.75,0.0,0.0,0.25,0.02,0.89,0.7,28.87,3.2,-23.7,8.25,4.0,6.0,15.0,11.5,5.75,0.0,1.25,0.5,2.5,0.75,0.0,0.75,0.14,0.27,1.08,1092.81,-10.3,50.6
1.18,0.0,0.0,0.0,0.0,0.0,0.0,0.0,0.0,0.25,1.5,0.0,1.0,0.25,-0.98,-0.61,2.52,36.0,-5.0,-86.8,8.25,3.25,5.0,13.5,10.5,2.75,0.25,1.5,0.5,2.75,0.75,0.0,0.75,0.14,0.33,1.27,1013.58,-11.4,49.2
1.2,0.0,0.0,0.0,0.0,0.0,0.0,0.0,0.0,0.5,4.25,0.75,5.0,4.25,0.39,-0.36,0.58,115.04,-4.6,-95.9,7.75,2.5,2.25,11.5,9.25,1.25,0.25,1.5,0.0,2.75,0.25,0.0,0.75,0.27,0.39,1.39,863.84,-10.7,49.4
1.22,0.25,0.0,0.0,0.0,0.0,0.0,0.0,0.0,1.0,6.0,4.5,5.75,6.75,0.52,0.52,2.95,225.42,-2.9,-90.2,7.0,1.0,0.5,7.25,6.75,0.0,0.25,1.5,0.25,2.5,0.75,0.0,0.75,0.7,0.89,2.2,650.64,-10.4,42.1
1.24,0.0,0.0,0.0,0.5,0.0,0.0,0.0,0.0,1.0,6.75,0.0,5.75,0.0,-0.42,0.39,1.2,264.33,-2.4,-81.9,5.5,0.0,0.0,5.0,2.75,0.0,0.0,1.25,0.25,2.25,0.5,0.0,0.75,0.89,1.45,2.7,421.15,-10.8,33.7
1.26,0.0,0.0,0.0,0.5,0.0,0.75,0.5,5.25,2.0,6.75,5.75,5.5,6.75,0.02,0.08,1.08,369.64,-4.6,-75.1,3.0,0.0,0.0,1.75,1.5,0.0,0.25,1.5,0.0,1.5,0.5,0.0,0.0,-0.05,0.39,2.77,250.92,-8.4,26.9
1.28,0.0,0.0,0.0,0.5,0.0,1.25,0.25,5.75,2.0,6.75,0.0,5.25,6.75,-0.17,0.08,0.95,424.72,-8.4,-72.8,0.25,0.0,0.0,1.25,0.0,0.0,0.0,0.0,0.0,1.75,0.0,0.0,0.0,0.52,0.39,2.58,93.75,-0.9,-10.1
1.3,0.0,0.0,0.0,0.5,0.0,1.5,0.0,6.0,2.0,6.75,0.0,5.0,6.25,-0.17,0.08,0.95,477.01,-8.9,-71.0,1.0,0.0,0.75,1.75,0.0,0.0,0.25,1.5,0.0,1.25,0.5,0.0,0.0,1.27,-0.55,2.27,0.0,-8.4,8.5
1.32,0.0,0.0,0.0,0.5,0.0,1.5,0.5,6.0,1.75,6.75,0.0,5.0,6.25,-0.17,0.08,0.95,483.19,-8.7,-70.4,0.0,0.0,0.0,1.25,0.0,0.0,0.0,0.0,0.0,0.25,0.0,0.0,0.0,0.77,-1.17,1.7,0.0,-11.9,36.5
1.34,0.5,0.0,0.0,1.0,0.0,1.5,0.5,5.75,2.0,6.75,5.75,5.0,6.25,-0.17,0.08,0.95,532.5,-4.4,-67.0,0.5,0.0,0.5,1.5,1.5,0.0,0.0,1.5,0.25,2.0,0.75,0.0,0.25,0.58,-1.67,0.83,0.0,-0.8,-4.5
1.36,0.0,0.0,0.0,1.25,0.0,1.75,0.75,6.0,2.5,6.5,6.0,5.0,6.0,-0.11,0.02,0.95,559.15,-4.3,-66.4,0.0,0.0,1.0,0.5,1.25,0.0,0.0,1.75,0.0,0.0,0.75,0.0,0.5,0.39,-0.55,0.95,0.0,-2.5,-1.4
1.38,0.0,0.0,0.0,0.75,1.0,2.25,0.5,6.0,2.5,6.0,5.75,4.0,5.5,-0.17,0.02,0.95,573.58,-5.2,-61.0,0.5,0.0,0.25,0.25,0.0,0.0,0.0,0.0,0.0,1.0,0.0,0.0,0.5,0.08,-0.48,0.27,0.0,-3.1,-22.2
1.4,0.0,0.0,0.0,1.25,2.75,2.25,1.0,5.75,2.5,5.75,5.0,3.25,4.75,-0.17,0.08,0.95,565.48,-4.8,-49.3,0.5,0.0,0.0,1.5,0.0,0.0,0.25,1.5,0.5,2.5,0.5,0.0,0.75,0.27,-0.36,0.39,0.0,2.0,-31.2
1.42,1.0,0.0,0.0,1.75,3.25,2.5,0.75,5.75,2.75,4.75,4.75,3.0,4.25,-0.11,0.08,0.95,535.61,-3.2,-39.3,0.0,0.0,0.0,0.5,0.0,0.0,0.0,1.0,0.0,0.25,0.5,0.0,0.0,0.45,-0.42,0.77,0.0,2.8,-28.2
1.44,0.5,0.0,0.0,2.5,4.25,2.75,1.0,5.75,3.0,4.25,4.0,2.0,3.0,-0.11,0.08,0.95,486.2,-3.2,-28.6,0.0,0.0,0.0,0.25,0.0,0.0,0.0,0.0,0.0,0.25,0.0,0.0,0.0,0.45,-0.42,0.89,0.0,-1.1,-7.2
1.46,2.75,0.5,0.0,4.5,5.25,2.75,1.25,5.25,2.75,3.25,3.25,1.75,2.0,-0.11,0.08,0.95,473.34,0.9,-5.7,0.0,0.0,0.0,0.0,0.0,0.0,0.0,0.0,0.0,0.25,0.0,0.0,0.0,0.39,-0.11,0.89,0.0,15.7,-75.5
1.48,3.0,0.75,0.0,4.5,5.5,3.0,1.0,5.0,2.75,2.5,2.5,1.0,1.5,-0.11,0.08,0.95,465.98,1.2,3.7,0.0,0.0,0.0,0.0,0.0,0.0,0.0,0.0,0.0,0.25,0.0,0.0,0.0,0.45,0.2,0.95,0.0,15.7,-75.5
1.5,3.0,1.0,1.75,6.5,5.5,3.0,1.25,5.0,2.5,1.5,2.0,1.0,1.25,-0.11,0.08,0.95,466.47,4.6,15.1,0.0,0.0,0.0,0.25,0.0,0.0,0.0,0.25,0.0,0.25,0.0,0.0,0.0,0.52,0.27,1.14,0.0,4.7,-17.6
1.52,3.0,1.0,2.0,8.0,7.0,3.25,1.5,4.5,2.0,1.5,1.5,1.0,0.5,-0.11,0.08,0.95,495.59,5.4,24.4,0.0,0.0,0.0,0.0,0.0,0.0,0.0,0.0,0.0,0.0,0.0,0.0,0.0,0.45,0.45,1.39,0.0,0.0,0.0
1.54,4.25,1.0,3.0,9.0,6.5,3.5,2.0,4.25,2.0,1.5,1.25,0.75,0.5,-0.11,0.08,0.95,536.68,7.7,29.9,0.0,0.0,0.0,0.5,0.0,0.0,0.0,0.0,0.0,0.5,0.0,0.0,0.0,0.39,0.52,1.52,0.0,-1.1,-7.2
1.56,4.5,1.0,3.0,10.0,7.5,3.25,2.25,3.25,1.5,1.25,1.0,0.5,0.25,-0.11,0.08,0.95,567.25,8.8,37.4,0.0,0.0,0.25,0.5,0.0,0.0,0.0,0.25,0.0,0.25,0.0,0.0,0.0,0.45,0.64,1.89,0.0,-8.3,13.6
1.58,4.5,1.25,4.5,10.5,8.0,3.25,2.0,2.75,1.25,1.0,0.75,0.0,0.5,-0.11,0.14,0.95,599.25,10.1,42.9,0.0,0.0,0.75,0.5,0.0,0.0,0.0,0.25,0.25,1.5,0.0,0.0,0.0,0.64,0.7,2.08,11.38,-4.1,-16.7
1.6,5.75,1.25,5.25,11.5,8.0,3.0,2.5,2.75,1.0,0.75,0.0,0.0,0.25,-0.11,0.14,0.95,637.68,12.1,49.2,0.5,0.0,1.75,1.25,1.25,0.5,0.25,1.5,0.5,1.75,0.5,0.0,0.25,0.7,1.02,2.27,67.52,-5.0,5.3
1.62,5.75,1.75,6.0,11.5,8.0,3.0,2.75,3.0,0.75,0.5,0.25,0.0,0.25,-0.11,0.14,0.95,677.88,12.6,50.0,0.5,0.0,1.5,1.5,0.0,0.0,0.25,1.5,0.5,1.75,0.5,0.0,0.75,0.52,1.58,2.2,105.98,-6.2,-11.1
1.64,6.5,2.5,6.5,12.5,8.5,3.0,2.5,2.25,0.75,0.5,0.0,0.0,0.25,-0.11,0.14,1.02,726.28,13.6,54.0,0.5,0.0,1.5,1.5,1.25,0.0,0.0,1.0,0.25,1.5,0.25,0.0,0.5,0.02,2.2,1.58,133.32,-6.5,8.4
1.66,6.75,2.5,0.0,13.0,8.5,2.75,2.75,2.25,0.75,0.75,0.0,0.0,0.25,-0.11,0.14,1.02,719.73,9.7,52.4,0.5,0.0,1.25,1.5,1.25,0.0,0.0,1.5,0.5,2.0,0.5,0.0,0.75,-0.67,2.58,0.95,154.94,-3.1,-5.6
1.68,7.0,2.5,6.75,13.5,8.75,2.25,2.5,2.25,0.5,0.75,0.0,0.0,0.25,-0.11,0.14,1.02,755.85,14.3,54.7,0.5,0.0,0.25,1.5,1.75,0.0,0.0,1.5,0.5,2.25,0.5,0.0,0.75,-1.36,3.77,0.83,164.72,1.3,-10.9
1.7,0.5,0.0,2.75,6.75,0.0,0.0,0.0,2.5,0.5,0.75,0.5,0.0,0.0,-0.11,0.2,1.02,540.16,13.9,28.6,0.0,0.0,1.25,0.25,0.0,0.0,0.0,0.25,0.25,1.75,0.0,0.0,0.0,-2.05,4.58,0.02,139.21,-6.6,-15.2
1.72,7.0,2.5,7.5,14.0,8.75,0.75,2.0,1.75,0.5,0.5,0.25,0.0,0.25,-0.11,0.2,1.02,575.53,16.2,56.6,0.0,0.0,0.0,0.0,0.0,0.0,0.0,0.0,0.0,0.25,0.0,0.0,0.0,-2.17,3.45,0.7,96.13,15.7,-75.5
1.74,7.25,2.75,7.75,13.5,8.25,0.0,1.5,1.5,0.75,0.5,0.0,0.0,0.5,-0.17,0.27,1.08,583.22,17.2,57.4,0.5,0.0,0.25,1.5,0.0,0.0,0.25,1.5,0.25,4.0,0.5,1.25,2.5,1.14,-0.73,0.45,117.19,3.7,-53.7
1.76,8.25,2.5,7.5,12.5,8.0,0.0,1.25,1.25,0.75,0.5,0.0,0.0,0.25,-0.23,0.33,1.27,663.23,18.0,59.6,0.5,0.0,1.75,1.5,1.75,0.0,0.0,1.5,0.25,6.25,2.0,5.0,7.5,0.33,-0.55,0.64,219.77,1.9,-60.5
1.78,8.0,2.5,7.5,11.5,6.75,0.0,0.5,1.25,0.5,0.5,0.0,0.0,0.25,-0.3,0.39,1.39,664.99,18.6,60.5,0.5,0.0,0.75,1.5,1.5,0.0,0.25,1.75,0.5,8.5,4.25,6.25,8.5,-1.17,1.45,2.27,340.7,3.0,-69.6
1.8,8.0,2.25,6.75,9.25,0.0,0.0,0.0,1.0,0.5,0.5,0.0,0.0,0.25,-0.55,0.45,1.58,594.53,24.4,63.5,0.5,0.0,1.0,1.5,1.0,1.5,0.25,4.25,1.0,9.25,7.25,6.5,8.75,0.77,0.14,2.2,515.82,3.3,-65.9
1.82,7.75,1.0,5.5,7.5,0.0,0.0,0.0,1.0,0.5,0.5,0.5,0.0,0.25,-0.73,0.64,1.64,467.54,24.5,59.1,0.75,0.0,1.5,1.5,1.25,0.0,0.0,5.5,1.25,9.25,7.75,6.5,8.5,-0.11,0.2,1.2,663.19,2.2,-65.2
1.84,5.75,0.25,1.5,4.5,0.0,0.0,0.25,1.25,0.5,0.5,0.0,0.0,0.25,-0.92,1.33,2.77,321.67,21.2,54.3,1.25,0.0,1.0,1.5,2.25,1.75,0.0,5.5,1.25,9.25,7.75,6.0,8.5,0.2,0.14,0.95,764.74,3.1,-57.9
1.86,0.0,0.0,1.75,1.75,0.0,0.0,0.0,0.0,0.5,0.5,0.0,0.0,0.25,-0.36,0.58,2.52,202.57,19.4,26.8,1.25,0.0,0.5,1.5,0.5,2.0,0.0,5.5,1.25,9.25,7.25,6.0,8.25,0.08,0.08,0.95,802.27,3.8,-63.5
1.88,0.0,0.0,0.0,0.75,0.0,0.0,0.0,0.0,0.75,0.0,0.0,0.0,0.5,-0.48,0.45,2.58,74.62,7.5,-19.4,1.75,0.0,0.5,1.5,2.25,3.0,0.0,6.0,1.25,9.25,7.25,5.5,8.25,0.2,0.08,0.95,831.38,4.1,-54.1
1.9,0.0,0.0,0.0,0.0,0.0,0.0,0.0,0.0,0.25,0.0,0.0,0.0,0.0,-1.17,-0.92,2.14,0.0,12.1,-38.5,2.0,0.0,0.5,1.75,1.5,3.25,0.0,5.75,1.25,9.0,7.25,5.25,8.0,0.14,0.08,0.95,830.23,3.8,-53.6
1.92,0.0,0.0,0.0,1.0,0.0,0.0,0.5,0.0,0.5,0.0,0.0,0.0,0.25,-0.67,-0.23,1.52,0.0,13.8,9.7,2.5,0.0,1.75,1.75,2.25,3.75,0.25,5.5,1.5,8.5,6.75,5.25,7.75,0.14,0.08,0.95,832.58,2.1,-45.2
1.94,0.0,0.0,0.75,0.75,0.0,0.0,0.0,0.0,0.5,0.0,0.0,0.0,0.25,-0.86,-0.92,-0.05,0.0,19.7,19.6,3.0,0.0,2.25,1.75,1.75,4.0,0.5,5.5,1.5,8.25,6.5,4.5,7.25,0.14,0.08,0.95,811.84,1.4,-41.2
1.96,0.0,0.0,1.5,1.0,0.0,0.0,0.25,0.0,0.5,0.25,0.0,0.0,0.5,-0.8,-0.42,0.7,0.0,19.1,16.0,3.0,0.0,3.0,1.75,2.75,4.0,1.0,5.5,1.5,7.75,6.25,4.0,6.5,0.14,0.08,0.95,773.78,0.4,-34.4
1.98,0.0,0.0,1.0,0.5,0.0,0.0,0.25,0.0,0.5,0.0,0.0,0.0,0.25,-0.55,-0.36,0.27,0.0,22.6,20.2,4.5,0.0,3.75,2.5,3.25,4.25,1.0,5.25,1.75,7.5,5.75,3.5,6.25,0.14,0.08,0.95,730.02,-1.4,-24.4
2.0,0.0,0.0,1.25,0.5,0.0,0.0,0.25,0.0,0.5,0.0,0.0,0.0,0.25,-0.55,-0.23,0.52,0.0,24.1,24.1,5.5,0.0,4.0,3.25,4.75,4.25,1.25,5.0,1.75,7.25,5.5,2.75,5.75,0.14,0.08,0.95,715.32,-2.5,-15.0
2.02,0.25,0.0,0.75,0.5,0.0,0.0,0.0,0.0,0.5,0.25,0.0,0.0,0.25,-0.61,-0.3,0.7,0.0,17.9,13.4,6.0,0.0,4.5,4.0,4.25,4.25,1.5,4.25,1.75,7.0,5.0,2.75,5.25,0.14,0.08,0.95,716.34,-4.0,-10.5
2.04,0.25,0.0,0.5,0.0,0.0,0.0,0.0,0.0,0.5,0.5,0.5,0.0,0.25,-0.67,-0.05,0.77,0.0,11.1,-27.1,7.0,0.25,5.5,4.0,4.75,4.25,2.0,4.25,1.75,6.25,4.75,2.5,4.5,0.14,0.08,0.95,732.06,-5.9,-2.3
2.06,0.25,0.0,0.25,0.5,0.0,0.0,0.25,0.0,0.5,0.25,0.0,0.0,0.25,-0.67,0.08,0.89,3.75,13.8,2.7,7.5,0.5,5.75,5.0,5.25,4.25,2.5,4.25,1.75,5.75,4.0,1.5,3.75,0.14,0.08,0.95,752.61,-7.0,6.8
2.08,0.25,0.0,0.25,0.5,0.0,0.0,0.25,0.0,0.5,0.5,0.0,0.0,0.25,-0.55,0.27,1.02,24.22,10.7,-5.4,8.25,0.25,6.5,5.5,5.25,4.25,3.0,4.25,1.75,5.25,4.0,1.75,3.5,0.14,0.08,0.95,780.12,-8.3,9.8
2.1,0.25,0.0,0.5,0.5,0.0,0.0,0.25,0.0,0.5,0.25,0.0,0.0,0.25,-0.42,0.45,1.08,36.62,16.4,9.0,8.25,0.75,7.0,6.25,5.25,4.25,3.5,3.25,1.75,4.75,3.25,1.0,2.5,0.14,0.08,0.95,792.81,-10.1,19.3
2.12,0.25,0.0,0.0,0.5,0.0,0.0,0.0,0.0,0.5,0.5,0.0,0.0,0.25,-0.36,0.52,1.14,37.08,5.8,-15.8,8.75,0.75,7.5,6.75,6.25,4.25,4.0,3.0,1.5,4.5,2.75,0.5,2.5,0.14,0.08,0.95,810.18,-10.7,24.8
2.14,0.25,0.0,0.25,0.5,0.0,0.0,0.0,0.0,0.5,0.25,0.0,0.0,0.5,-0.23,0.58,1.39,36.43,9.7,-11.2,9.0,1.0,8.0,8.0,7.0,4.25,4.5,3.0,1.25,3.5,2.5,0.5,1.75,0.14,0.14,0.95,834.17,-12.0,31.7
2.16,0.25,0.0,0.0,0.5,0.0,0.0,0.0,0.0,0.75,0.25,0.25,0.0,0.25,-0.17,0.64,1.64,33.35,9.5,-18.1,9.0,1.0,8.5,9.25,7.0,4.25,4.75,3.0,1.25,3.5,2.25,0.25,1.75,0.08,0.08,0.95,866.2,-12.4,33.8
2.18,0.25,0.0,0.25,0.5,0.0,0.0,0.0,0.0,0.5,0.25,0.0,0.0,0.0,0.02,0.7,1.89,30.59,16.5,17.6,9.0,1.0,9.0,9.75,7.25,4.25,5.0,2.5,1.25,3.25,1.75,0.0,1.5,0.14,0.14,0.95,892.16,-13.2,37.9
2.2,0.5,0.0,0.25,0.5,0.0,0.0,0.25,0.0,0.5,0.0,0.0,0.0,0.25,0.02,0.89,2.08,30.31,19.6,22.5,9.25,1.5,9.5,11.5,8.25,4.25,5.25,1.75,1.0,3.0,1.75,0.0,1.0,0.08,0.14,0.95,931.42,-14.1,43.0
2.22,0.5,0.0,0.25,0.5,0.0,0.0,0.25,0.0,0.25,0.0,0.0,0.0,0.25,0.08,1.02,2.02,31.04,20.6,30.5,9.5,1.75,9.5,11.5,8.5,4.25,5.5,1.5,0.75,3.0,1.25,0.0,1.0,0.08,0.14,0.95,957.33,-14.3,45.3
2.24,0.25,0.0,0.25,0.5,0.0,0.0,0.0,0.0,0.5,0.25,0.0,0.0,0.25,0.08,1.2,1.95,31.11,12.7,1.3,10.0,1.75,11.0,13.0,8.5,4.25,5.75,1.5,0.75,3.0,0.75,0.0,0.75,0.08,0.14,0.95,1001.66,-15.4,48.0
2.26,0.5,0.0,0.0,0.5,0.0,0.0,0.0,0.0,0.5,0.5,0.0,0.0,0.25,0.14,1.45,1.89,32.3,8.9,-4.0,10.0,1.75,11.0,13.0,8.75,2.25,5.75,1.5,0.75,2.5,0.75,0.0,0.75,0.08,0.14,1.02,1018.54,-16.8,49.6
2.28,0.5,0.0,0.25,0.5,0.0,0.0,0.25,0.0,0.5,0.25,0.0,0.0,0.0,0.14,1.89,1.58,33.77,19.5,27.0,11.0,2.25,11.5,13.0,9.0,2.0,5.25,1.5,0.5,2.75,0.75,0.0,0.75,0.08,0.14,1.02,1042.81,-17.1,50.9
2.3,0.0,0.0,0.0,0.0,0.0,0.0,0.0,0.0,0.25,0.0,0.25,0.0,0.25,0.52,2.45,0.89,26.92,2.8,-75.1,11.0,2.5,12.0,13.0,9.0,3.25,5.0,1.5,0.5,3.0,1.0,0.0,0.75,0.02,0.2,1.02,1069.78,-16.3,49.9
2.32,0.5,0.0,0.0,0.5,0.0,0.0,0.0,0.0,0.5,0.25,0.0,0.0,0.0,1.14,2.89,0.39,25.58,15.8,21.9,12.0,2.75,12.0,13.5,8.75,2.0,4.5,1.5,0.5,3.0,0.75,0.0,0.75,0.02,0.27,1.02,1094.32,-17.4,51.8
2.34,1.25,0.0,0.0,0.5,0.0,0.0,0.0,0.0,0.5,0.25,0.0,0.0,0.25,1.33,3.27,0.33,30.19,17.9,29.1,12.5,3.0,11.5,13.0,8.5,1.25,3.75,0.0,0.5,2.75,0.75,0.0,0.75,0.08,0.27,1.08,1084.25,-18.9,55.5
2.36,1.25,0.0,0.0,0.5,0.0,0.0,0.0,0.0,0.25,0.5,0.0,0.0,0.0,-0.61,4.27,0.14,35.86,18.4,39.9,12.5,3.25,12.0,13.0,7.75,0.0,2.75,1.5,0.5,0.0,0.75,0.0,0.5,0.08,0.33,1.08,1041.1,-21.1,61.3
2.38,0.0,0.0,0.0,0.25,0.0,0.0,0.25,0.0,0.5,1.5,0.25,1.25,1.5,-1.05,-0.36,0.64,58.32,-3.0,-81.1,12.5,2.75,11.0,13.0,7.5,0.0,2.0,1.5,0.5,2.75,0.75,0.0,0.75,0.08,0.33,1.2,997.18,-18.9,53.6
2.4,0.0,0.0,0.25,0.0,0.0,0.0,0.25,0.0,0.25,3.25,1.5,4.0,4.25,-0.92,0.33,0.89,125.77,-3.1,-92.3,12.0,2.0,10.5,11.5,5.25,0.0,1.25,1.5,0.5,2.5,1.0,0.0,0.75,0.14,0.39,1.2,911.65,-19.9,52.5
2.42,0.0,0.0,0.0,0.0,0.0,0.0,0.0,0.0,0.0,6.0,2.75,0.0,0.0,-0.3,0.89,2.08,153.59,-7.5,-75.4,11.0,1.0,8.5,7.25,1.25,0.0,1.0,0.0,0.5,2.25,0.75,0.0,0.75,0.33,0.64,1.58,735.95,-24.1,54.4
2.44,0.0,0.0,0.0,0.5,0.0,0.75,0.25,5.25,2.25,7.5,0.0,5.75,6.25,-0.23,0.45,1.27,261.36,-7.7,-74.9,8.25,0.0,4.75,3.75,0.0,0.0,0.75,0.0,0.0,0.75,0.0,0.0,0.75,0.89,1.58,2.7,491.08,-27.9,62.3
2.46,0.0,0.0,0.0,1.25,2.75,1.25,0.5,6.0,2.5,7.0,7.0,5.5,6.25,0.08,0.02,1.14,390.82,-3.8,-59.4,6.75,0.0,2.25,3.5,0.0,0.0,0.25,1.0,0.0,1.25,0.25,0.0,0.0,0.14,0.83,3.14,304.22,-22.9,55.2
2.48,0.0,0.0,0.0,0.0,0.0,1.5,0.5,6.0,2.0,6.75,6.25,5.0,6.25,-0.11,0.02,0.95,518.54,-5.4,-73.1,4.75,0.0,2.0,1.5,0.0,0.0,0.25,0.25,0.0,0.75,0.0,0.0,0.0,-0.05,0.52,2.2,170.56,-27.1,63.9
2.5,0.0,0.0,0.0,0.0,0.0,2.0,0.5,6.0,2.0,6.75,5.5,5.0,6.0,-0.17,0.02,0.95,588.94,-6.0,-71.2,2.0,0.0,0.75,1.25,0.0,0.0,0.0,0.0,0.0,0.25,0.0,0.0,0.0,1.14,-0.17,2.2,44.32,-27.0,68.3
2.52,0.0,0.0,0.0,1.0,1.25,2.25,0.75,6.25,2.0,6.75,6.0,4.25,6.0,-0.17,0.08,0.95,627.12,-5.3,-60.5,1.0,0.0,0.5,1.75,0.5,0.0,0.0,0.0,0.25,1.0,0.0,0.0,0.0,1.2,-0.92,0.64,0.0,-13.5,34.2
2.54,0.0,0.0,0.0,1.0,2.25,2.0,0.75,6.25,2.0,6.25,5.5,4.0,5.5,-0.17,0.02,0.95,625.95,-5.2,-55.9,1.75,0.0,1.75,1.5,0.0,0.0,0.0,0.0,0.5,2.5,0.0,0.0,0.0,1.39,-0.86,2.27,0.0,-14.9,19.1
2.56,0.0,0.0,0.0,2.5,3.25,2.25,0.5,6.0,2.5,6.0,5.25,3.5,5.0,-0.11,0.02,0.95,616.64,-4.2,-45.5,0.5,0.0,1.0,0.5,0.0,0.0,0.0,0.0,0.0,0.25,0.0,0.0,0.0,0.52,-1.61,0.7,0.0,-26.8,52.8
2.58,0.0,0.0,0.75,2.5,4.0,2.75,1.0,6.0,2.5,5.25,5.25,3.0,4.25,-0.11,0.08,0.95,607.57,-3.1,-36.7,0.5,0.0,0.75,0.25,0.0,0.0,0.0,0.0,0.0,0.5,0.0,0.0,0.0,0.14,-0.3,0.58,0.0,-21.2,35.0
2.6,0.0,0.0,0.25,2.5,4.25,2.75,1.0,6.0,2.5,4.75,3.5,2.25,3.25,-0.11,0.08,0.95,564.17,-4.2,-30.9,0.5,0.0,1.0,0.25,0.0,0.0,0.0,0.0,0.0,0.5,0.0,0.0,0.0,0.14,-0.3,0.39,0.0,-23.2,38.0
2.62,0.0,0.0,1.0,3.75,5.0,3.0,0.75,5.75,2.5,3.75,3.25,2.0,2.75,-0.17,0.08,0.95,518.11,-2.2,-19.5,0.5,0.0,1.0,0.25,0.0,0.0,0.0,0.0,0.0,0.25,0.0,0.0,0.0,0.33,-0.23,0.39,0.0,-28.0,52.1
2.64,0.75,0.25,1.25,4.5,5.25,3.5,1.0,5.75,2.5,3.25,2.75,1.25,1.75,-0.11,0.08,0.95,481.39,-0.7,-5.9,0.5,0.0,1.5,0.25,0.0,0.0,0.0,0.0,0.0,0.25,0.0,0.0,0.0,0.52,-0.17,0.7,0.0,-30.1,53.9
2.66,2.0,0.5,0.5,5.5,6.0,3.5,1.0,5.5,2.5,3.25,2.25,1.0,1.5,-0.11,0.08,0.95,472.7,0.1,2.8,0.0,0.0,2.0,0.0,0.0,0.0,0.0,0.25,0.0,0.0,0.0,0.0,0.0,0.52,0.08,0.77,0.0,-32.3,50.1
2.68,2.75,1.0,1.25,6.5,6.25,3.75,1.0,5.25,2.25,2.0,1.75,1.0,1.0,-0.11,0.08,0.95,465.26,2.7,15.4,0.0,0.0,0.5,0.0,0.0,0.0,0.0,0.0,0.0,0.0,0.0,0.0,0.0,0.52,0.33,0.7,0.0,-38.2,60.9
2.7,3.0,1.0,2.0,8.0,6.75,4.0,1.25,5.25,2.0,1.5,1.25,1.0,1.0,-0.11,0.08,0.95,495.41,4.2,21.9,0.5,0.0,1.5,0.0,0.0,0.0,0.0,0.0,0.0,0.5,0.0,0.0,0.0,0.64,0.39,0.83,7.33,-26.9,40.6
2.72,3.0,1.0,3.0,8.0,7.25,4.0,1.25,5.0,2.0,1.5,1.25,1.0,0.5,-0.11,0.08,0.95,535.81,5.3,25.5,0.0,0.0,0.75,0.0,0.0,0.0,0.0,0.0,0.0,0.25,0.0,0.0,0.0,0.7,0.52,1.02,10.4,-25.0,27.5
2.74,3.0,1.0,3.0,9.0,7.5,4.25,1.5,4.5,1.75,1.5,1.0,0.75,0.25,-0.11,0.08,0.95,565.63,5.8,30.2,0.5,0.0,0.5,0.0,0.0,0.0,0.0,0.0,0.0,0.0,0.0,0.0,0.0,0.77,0.64,1.2,13.22,-36.7,78.5
2.76,3.25,1.0,3.0,10.0,8.0,4.25,1.75,4.25,1.5,1.5,0.75,0.75,0.5,-0.11,0.14,0.95,594.76,6.1,32.2,0.0,0.0,1.25,0.0,0.0,0.0,0.0,0.0,0.0,0.0,0.0,0.0,0.0,0.77,0.77,1.33,10.95,-38.2,61.0
2.78,4.5,1.25,3.5,10.5,8.0,4.25,1.75,4.25,1.0,1.5,0.0,0.25,0.5,-0.11,0.14,0.95,625.57,7.3,39.5,0.0,0.0,1.75,0.0,0.0,0.0,0.0,0.0,0.0,0.0,0.0,0.0,0.0,0.77,0.83,1.58,16.67,-38.3,61.0
2.8,4.5,1.25,4.0,11.0,8.0,4.0,1.75,3.25,1.0,1.0,0.25,0.25,0.25,-0.11,0.14,0.95,644.71,9.0,43.6,0.0,0.0,0.25,0.0,0.0,0.0,0.0,0.0,0.0,0.25,0.0,0.0,0.0,0.83,0.83,1.83,16.54,-11.6,-6.2
2.82,4.75,1.25,4.75,11.5,8.25,4.0,1.75,3.0,0.75,0.75,0.0,0.0,0.5,-0.11,0.14,0.95,664.58,9.9,46.9,0.0,0.0,1.25,1.5,0.0,0.0,0.0,0.0,0.5,1.75,0.0,0.0,0.0,0.83,0.95,2.08,38.14,-10.7,3.5
2.84,5.25,1.25,4.75,11.5,8.25,3.5,1.5,2.75,0.75,0.75,0.25,0.0,0.5,-0.11,0.14,0.95,675.98,10.6,47.4,1.0,0.0,0.75,0.0,0.0,0.0,0.0,0.0,0.0,0.0,0.0,0.0,0.75,0.52,1.08,1.77,42.63,-20.8,21.6
2.86,5.5,1.5,5.0,11.5,8.25,3.5,1.75,2.5,0.75,0.75,0.25,0.0,0.5,-0.11,0.14,0.95,681.88,11.2,48.6,0.0,0.0,0.75,0.0,0.0,0.0,0.25,1.0,0.0,0.0,0.25,0.0,0.75,-0.36,1.83,1.7,49.94,-2.9,-31.5
2.88,5.75,1.25,5.25,12.0,8.5,3.5,1.5,2.25,0.5,0.75,0.0,0.0,1.0,-0.11,0.14,0.95,687.41,11.2,48.6,0.25,0.0,0.75,0.0,0.0,0.0,0.0,0.0,0.0,0.25,0.0,0.0,0.0,-0.17,1.95,0.95,40.66,-26.9,40.6
2.9,4.75,1.5,5.5,12.5,8.5,3.0,1.0,2.25,0.5,0.5,0.0,0.0,0.25,-0.11,0.14,0.95,681.2,11.8,52.0,0.0,0.0,0.5,0.0,0.0,0.0,0.0,0.0,0.0,0.0,0.0,0.0,0.0,-0.67,2.52,0.89,30.63,-38.2,60.9
2.92,5.5,1.75,6.0,12.5,8.75,2.75,1.25,2.0,0.0,0.5,0.0,0.0,0.25,-0.11,0.14,1.02,679.76,12.9,54.8,0.0,0.0,2.25,0.0,0.0,0.0,0.0,0.0,0.0,0.25,0.0,0.0,0.0,-1.61,3.33,0.58,30.47,-33.0,47.6
2.94,5.5,1.5,0.0,12.5,8.75,2.75,1.25,2.0,0.0,0.5,0.0,0.0,0.25,-0.17,0.2,1.02,630.33,8.5,53.4,0.5,0.0,1.25,1.25,0.0,0.0,0.0,0.0,0.25,3.0,0.5,0.25,1.25,-2.23,3.83,0.02,62.15,-4.0,-28.9
2.96,5.5,1.25,3.0,11.5,8.25,2.25,1.0,1.5,0.0,0.5,0.25,0.0,0.5,-0.23,0.2,1.08,593.08,11.4,53.2,0.5,0.0,1.5,1.5,1.0,0.0,0.0,1.5,0.25,6.25,1.75,5.25,6.5,-1.17,3.02,-0.98,189.69,1.8,-63.9
2.98,0.0,1.25,4.5,11.5,8.0,1.5,0.25,2.0,0.0,0.5,0.0,0.0,0.25,-0.36,0.27,1.33,523.58,9.4,47.9,1.0,0.0,1.5,1.25,1.75,2.0,0.0,3.0,1.25,9.0,7.25,6.5,8.0,0.52,0.89,5.58,355.06,2.1,-59.8
3.0,7.0,1.0,3.25,10.5,0.0,0.25,0.0,1.5,0.0,0.5,0.0,0.0,0.25,-0.48,0.33,1.7,435.7,21.1,60.0,1.25,0.0,1.0,1.5,1.75,2.0,0.25,5.25,1.25,8.5,8.75,5.75,7.75,0.02,0.95,1.52,557.94,2.4,-57.6
3.02,7.0,1.0,2.75,8.0,5.5,0.0,0.0,1.25,0.25,0.5,0.0,0.0,0.0,-0.73,0.52,1.89,383.38,16.4,60.5,1.75,0.0,1.75,1.75,1.5,3.0,0.25,4.25,1.25,7.5,7.25,4.0,6.25,0.14,-0.11,0.83,681.79,1.4,-46.6
3.04,5.75,0.75,1.25,5.25,0.0,0.0,0.0,1.25,0.25,0.5,0.5,0.0,0.25,-0.73,0.58,2.39,298.64,20.2,53.5,1.75,0.0,2.25,1.75,2.75,4.0,0.25,4.25,1.25,6.75,5.75,2.75,5.0,0.2,0.08,0.89,710.64,1.6,-33.6
3.06,4.25,0.0,1.25,3.75,0.0,0.0,0.0,1.25,0.25,0.5,0.0,0.0,0.25,-0.11,0.2,3.02,228.9,19.7,49.8,1.75,0.0,3.0,4.0,5.25,4.25,0.25,4.25,1.5,6.25,5.0,2.0,3.75,0.14,0.02,0.89,706.29,-0.1,-15.4
3.08,0.0,0.0,1.25,2.5,0.0,0.0,0.0,1.25,0.25,0.5,0.0,0.0,0.25,-0.23,0.2,2.58,131.84,10.5,17.2,2.25,1.0,3.75,5.25,5.25,4.25,0.5,4.25,1.75,5.5,5.0,1.25,3.5,0.2,0.14,0.95,716.56,-2.3,-4.8
3.1,0.0,0.0,0.0,0.0,0.0,0.0,0.0,0.0,0.0,0.0,0.0,0.0,0.25,-0.86,-0.17,1.27,26.52,-13.7,-109.8,3.0,1.25,5.5,6.25,6.75,4.75,1.0,3.25,1.75,4.5,4.5,0.75,2.5,0.08,0.02,0.95,756.28,-5.3,10.4
3.12,0.0,0.0,0.0,0.0,0.0,0.0,0.0,0.0,0.0,0.0,0.0,0.0,0.0,-1.05,-0.67,0.83,0.0,0.0,0.0,4.5,1.75,6.25,8.0,7.0,4.75,1.25,3.0,1.5,3.0,2.75,0.0,1.75,0.14,0.02,1.02,796.19,-8.1,27.6
3.14,1.0,0.0,1.5,0.75,0.0,0.0,1.75,0.0,0.0,0.5,0.5,0.0,0.0,-0.73,0.14,0.33,0.0,25.5,35.3,6.0,2.0,7.5,9.75,8.25,4.25,1.25,1.75,1.25,3.0,2.5,0.0,1.0,0.08,0.02,1.02,841.42,-10.9,37.4
3.16,0.5,0.0,1.25,0.5,0.0,0.0,0.0,0.0,0.25,0.5,0.0,0.0,0.0,-0.92,-0.42,-0.23,0.0,23.0,35.4,7.25,2.5,8.25,10.5,8.25,2.25,1.0,1.5,0.75,2.75,1.5,0.0,1.0,-0.05,0.08,1.08,853.21,-13.6,44.4
3.18,0.25,0.0,0.25,0.5,0.0,0.0,0.25,0.0,0.25,0.0,0.0,0.0,0.25,-0.61,0.02,0.02,0.0,18.5,20.9,7.75,2.75,8.75,10.0,8.25,1.75,0.75,1.0,0.75,3.0,1.5,0.0,0.75,0.2,0.2,1.14,844.99,-14.6,46.4
3.2,0.0,0.0,0.0,0.5,0.0,0.0,0.25,0.0,0.25,0.0,0.0,0.0,0.25,-0.17,0.52,0.27,0.0,10.7,-3.6,8.0,2.75,8.75,9.75,7.75,0.0,0.25,1.25,0.75,2.75,1.0,0.0,0.75,0.08,0.14,0.95,798.09,-16.3,48.6
3.22,0.5,0.0,0.5,0.5,0.0,0.0,0.25,0.0,0.0,0.0,0.0,0.0,0.25,0.33,0.64,0.08,0.0,24.1,43.7,8.25,3.0,8.75,9.75,7.0,0.0,0.25,1.5,0.75,1.5,1.0,0.0,0.75,0.02,0.2,0.77,758.26,-17.5,52.1
3.24,0.5,0.0,0.75,0.5,0.0,0.0,0.25,0.0,0.25,0.0,0.0,0.0,0.25,0.27,0.89,-0.42,0.0,24.4,37.1,8.75,3.25,8.75,9.75,7.0,0.0,0.25,1.5,0.5,2.0,0.75,0.0,0.0,0.02,0.27,0.7,736.25,-17.9,55.5
3.26,0.0,0.0,0.5,0.5,0.0,0.0,0.0,0.0,0.25,0.5,0.0,0.0,0.0,0.14,1.02,-0.48,0.0,13.3,8.0,9.0,3.25,9.0,9.75,6.75,0.0,0.25,1.5,0.75,2.5,1.0,0.0,0.75,0.08,0.27,0.89,737.55,-17.2,50.3
3.28,0.0,0.0,0.5,0.5,0.0,0.0,0.25,0.0,0.25,0.0,0.0,0.0,0.25,0.45,0.95,-0.23,6.98,19.3,16.3,9.0,3.25,9.5,9.75,7.0,0.0,0.25,1.5,0.5,2.75,0.75,0.0,0.5,0.02,0.27,1.08,740.71,-17.4,51.8
3.3,1.5,0.0,0.5,2.0,0.0,0.0,0.5,0.0,2.5,0.0,0.0,0.0,0.0,0.7,0.77,-0.17,46.44,21.2,29.9,9.25,2.75,9.25,9.25,5.25,0.0,0.25,1.5,0.5,1.75,0.75,0.0,0.75,-0.05,0.27,1.02,714.2,-19.0,53.3
3.32,0.5,0.0,0.5,0.5,0.0,0.0,0.25,0.0,0.25,0.5,0.0,0.0,0.25,0.64,0.83,-0.11,56.73,15.4,13.3,9.5,2.5,9.25,8.0,5.25,0.0,0.25,1.5,0.5,2.75,0.75,0.0,0.5,-0.11,0.27,0.95,682.62,-18.6,51.0
3.34,0.5,0.0,0.5,0.5,0.0,0.0,0.0,0.0,0.25,0.0,0.0,0.0,0.25,0.52,0.83,-0.11,59.42,22.1,34.6,9.75,2.5,9.25,8.0,3.25,0.0,0.25,1.5,0.5,1.5,0.75,0.0,0.0,0.2,0.27,1.08,627.73,-21.6,57.6
3.36,0.0,0.0,0.5,1.5,0.0,0.0,0.25,0.0,0.75,0.0,0.0,0.0,0.25,0.39,1.08,-0.11,53.48,17.5,21.4,9.0,1.75,8.75,6.25,0.5,0.0,0.0,0.0,0.25,0.5,0.0,0.0,0.0,-0.11,0.45,0.89,521.28,-28.3,70.6
3.38,1.75,0.0,0.25,0.5,0.0,0.0,0.0,0.0,0.25,1.0,0.0,0.0,0.0,2.14,3.52,-2.86,53.5,17.2,33.0,9.0,1.25,8.75,6.25,0.0,0.0,0.0,0.0,0.5,0.5,0.0,0.0,0.0,0.02,0.27,2.14,428.99,-29.1,69.4
3.4,1.25,0.0,0.5,0.5,0.0,0.0,3.75,0.0,0.25,0.25,0.5,0.0,0.75,-2.23,2.14,-4.61,69.05,21.1,13.1,9.25,1.0,8.75,5.5,0.0,0.0,0.0,0.0,0.0,0.0,0.0,0.0,0.0,-0.17,0.27,1.83,362.43,-31.0,74.9
3.42,1.5,0.0,0.0,0.5,0.0,0.0,0.5,0.0,0.25,0.0,0.0,0.0,0.25,-1.8,2.64,-1.11,68.94,24.4,51.0,9.0,0.25,8.0,4.25,0.0,0.0,0.0,0.0,0.0,0.0,0.0,0.0,0.0,-0.05,0.39,1.39,312.08,-32.2,75.3
3.44,0.25,0.0,0.0,0.5,0.0,0.0,0.25,0.0,0.25,0.0,0.0,0.0,0.0,0.14,1.02,1.02,56.87,21.4,41.7,9.25,1.0,7.0,5.0,0.0,0.0,0.0,1.5,0.5,1.75,0.25,0.0,0.5,-0.67,0.14,1.58,302.45,-23.6,52.8
3.46,0.25,0.0,0.0,0.5,0.0,0.0,0.5,0.0,0.25,0.25,0.0,0.0,0.25,0.52,0.39,1.14,40.46,11.7,1.7,8.25,0.75,5.5,4.0,0.0,0.0,0.25,1.5,0.5,1.75,0.5,0.0,0.0,-0.17,0.58,1.45,289.64,-23.4,51.8
3.48,1.0,0.0,0.25,1.0,0.0,0.0,0.25,0.0,0.25,0.25,0.0,0.0,0.25,0.39,0.39,0.45,38.17,19.2,36.7,7.5,0.25,3.75,4.0,0.0,0.0,0.25,1.5,0.5,2.25,0.25,0.0,0.0,0.02,0.58,1.2,272.41,-21.0,46.5
3.5,1.25,0.0,0.0,1.0,0.0,0.0,0.25,0.0,0.25,0.0,0.0,0.0,0.0,-0.17,1.95,-1.55,38.38,25.4,65.3,6.0,0.0,1.75,2.0,0.0,0.0,0.0,1.25,0.5,2.75,0.25,0.0,0.25,-0.11,0.7,1.77,229.22,-16.6,31.5
3.52,0.25,0.0,0.0,0.5,0.0,0.0,0.25,1.25,0.25,0.0,0.0,0.0,0.25,-2.11,1.77,-1.11,39.71,-0.1,-11.3,4.5,0.0,0.5,1.5,0.25,0.0,0.25,1.5,0.5,2.75,0.5,0.0,0.75,1.64,0.95,0.2,186.45,-10.1,11.5
3.54,1.25,0.0,0.0,0.5,0.0,0.0,0.25,1.25,0.25,0.0,0.0,0.0,0.0,-1.67,-0.17,1.08,43.29,10.8,27.1,3.0,0.0,0.5,1.5,0.0,0.0,0.0,1.5,0.5,2.25,1.25,0.0,0.0,1.89,-4.48,-1.17,140.32,-9.9,5.6
3.56,0.25,0.0,0.0,0.5,0.0,0.0,0.0,0.0,0.25,0.0,0.0,0.0,0.0,-0.61,-1.17,4.33,37.09,20.1,43.4,2.0,0.0,1.25,1.5,1.25,0.0,0.0,1.0,0.5,2.5,0.5,0.0,0.25,2.2,-2.36,-0.23,116.7,-8.1,10.8
3.58,1.0,0.0,0.25,0.5,0.0,0.0,0.25,1.0,0.25,0.0,0.0,0.0,0.0,0.58,-5.05,0.08,38.98,13.5,30.0,1.75,0.0,1.5,1.5,0.25,0.0,0.0,1.5,0.5,2.5,0.5,0.0,0.0,-3.36,-0.98,-0.48,105.96,-8.9,5.7
3.6,0.75,0.0,0.0,0.5,0.0,0.0,0.25,0.0,0.25,0.0,0.25,0.0,0.0,-1.55,-0.55,-4.11,32.61,23.4,40.5,1.75,0.0,0.75,1.5,1.25,0.0,0.25,1.5,0.5,1.75,0.25,0.0,0.75,-2.86,1.7,4.33,109.15,-5.6,6.4
3.62,0.25,0.0,0.25,0.5,0.0,0.0,0.25,1.25,0.25,0.0,0.0,0.0,0.25,-4.23,4.33,-3.86,37.08,3.2,-4.8,1.75,0.0,0.75,1.5,1.25,0.0,0.25,1.5,0.5,1.5,0.25,0.0,0.5,-2.98,1.83,2.2,106.11,-6.7,11.5
3.64,0.75,0.0,0.25,0.5,0.0,0.0,0.25,1.0,0.25,0.0,0.0,0.0,0.25,-0.55,1.39,-0.67,40.42,9.6,13.2,1.75,0.0,0.5,1.5,0.25,0.0,0.0,1.25,0.5,1.75,0.5,0.0,0.25,0.2,1.83,0.14,99.45,-7.5,4.0
3.66,0.5,0.0,0.0,0.5,0.0,0.0,0.25,1.25,0.25,0.0,0.0,0.0,0.0,1.45,-0.92,0.33,46.04,4.3,8.1,0.25,0.0,1.0,1.75,1.0,0.0,0.25,1.5,0.5,1.5,0.0,0.0,0.0,1.39,2.2,0.39,92.67,-4.6,8.4
3.68,1.25,0.0,0.0,0.5,0.0,0.0,0.25,1.25,0.25,0.25,0.0,0.0,0.25,0.89,0.33,-0.73,52.62,7.4,11.1,0.5,0.0,0.75,0.0,0.0,0.0,0.25,0.0,0.0,0.25,0.0,0.0,0.0,0.64,1.02,-0.17,54.32,-28.5,47.9
3.7,1.25,0.0,0.0,0.5,0.0,0.0,0.25,1.25,0.5,0.0,0.0,0.0,0.25,-0.3,1.52,-2.17,56.63,9.2,13.6,0.5,0.0,0.0,0.0,0.0,0.0,0.0,0.0,0.0,0.25,0.0,0.0,0.0,-0.48,0.14,0.2,23.57,-17.3,37.3
3.72,1.25,0.0,0.25,0.5,0.0,0.0,0.25,1.25,0.5,0.25,0.0,0.0,0.25,-0.67,1.95,-2.67,63.62,9.5,11.3,0.25,0.0,0.0,0.25,0.0,0.0,0.0,0.0,0.0,0.5,0.0,0.0,0.0,-1.48,0.27,1.95,0.0,-4.8,0.2
3.74,1.25,0.0,0.0,0.5,0.0,0.0,0.25,0.0,0.25,0.0,0.0,0.0,0.25,0.89,1.45,-2.11,58.77,22.9,47.5,0.0,0.0,0.0,0.0,0.0,0.0,0.0,0.0,0.0,0.75,0.0,0.0,0.0,-3.17,-0.17,1.2,0.0,15.6,-75.5
3.76,1.5,0.0,0.25,0.5,0.0,0.0,0.25,1.25,0.25,0.0,0.0,0.0,0.25,0.58,-0.17,-0.8,62.72,12.3,24.6,0.0,0.0,0.0,0.0,0.0,0.0,0.0,0.0,0.0,0.25,0.0,0.0,0.0,-2.11,0.08,0.77,0.0,15.7,-75.5
3.78,1.0,0.0,0.0,0.25,0.0,0.0,0.25,1.25,0.25,0.25,0.0,0.0,0.25,0.08,-0.36,-0.48,58.97,4.7,1.4,0.0,0.0,0.0,0.0,0.0,0.0,0.0,0.0,0.0,0.5,0.0,0.0,0.0,-0.92,0.02,0.83,0.0,15.7,-75.5
3.8,1.25,0.0,0.0,0.5,0.0,0.0,0.0,1.25,0.5,0.25,0.0,0.0,0.25,-0.73,-0.17,-0.23,62.99,6.9,7.5,1.0,0.0,0.0,0.0,0.0,0.0,0.0,0.0,0.0,0.25,0.25,0.0,0.75,-0.36,-0.05,0.89,0.0,-9.4,-13.9
3.82,1.0,0.0,0.0,0.5,0.0,0.0,0.25,0.0,0.25,0.5,0.0,0.0,0.25,-1.61,0.02,-0.23,55.33,14.4,19.1,0.25,0.0,0.0,0.0,0.0,0.0,0.0,0.0,0.0,0.25,0.0,0.0,0.0,-0.61,0.39,0.89,0.0,-8.7,8.1
3.84,1.25,0.0,0.0,0.75,0.0,0.0,0.25,1.25,0.25,0.25,0.0,0.0,0.25,-1.92,0.14,0.02,59.93,8.0,14.1,0.25,0.0,0.25,0.0,0.0,0.0,0.0,0.0,0.0,0.5,0.0,0.0,0.0,-0.42,0.27,0.64,0.0,-10.2,0.7
3.86,1.25,0.0,0.0,0.5,0.0,0.0,0.25,1.25,0.25,0.0,0.0,0.0,0.25,-1.48,0.02,0.33,57.81,9.0,17.2,0.5,0.0,0.0,1.5,0.0,0.0,0.0,0.5,0.5,2.0,0.25,0.0,0.0,-0.23,0.08,0.58,20.0,-2.3,-13.4
3.88,1.25,0.0,0.25,0.5,0.0,0.0,0.25,1.25,0.5,0.25,0.0,0.0,0.25,-1.36,0.08,0.33,63.05,9.5,11.3,0.5,0.0,0.0,0.25,0.0,0.0,0.0,0.0,0.0,0.75,0.0,0.0,0.0,-0.3,-0.3,0.39,27.68,-6.1,2.8
3.9,1.25,0.0,0.25,0.5,0.0,0.0,0.0,1.25,0.5,0.0,0.0,0.0,0.25,-1.48,0.33,-0.11,64.34,10.4,16.3,0.0,0.0,0.25,0.25,0.0,0.0,0.0,0.0,0.0,0.75,0.0,0.0,0.0,0.64,-2.23,0.33,32.17,-2.0,-20.3
3.92,1.75,0.0,0.25,0.5,0.0,0.0,0.0,0.0,0.25,0.25,0.0,0.0,0.25,-0.92,1.89,-1.11,62.05,22.5,47.1,0.25,0.0,0.0,0.0,0.0,0.0,0.0,0.0,0.0,0.5,0.0,0.0,0.0,-0.42,-0.55,0.52,27.83,-0.4,-20.3
3.94,1.25,0.0,0.25,0.5,0.0,0.0,0.25,0.0,0.25,0.0,0.0,0.0,0.25,-0.23,0.14,-0.11,55.25,24.5,48.8,0.0,0.0,0.0,0.0,0.0,0.0,0.0,0.0,0.0,0.5,0.0,0.0,0.0,-0.61,-0.23,0.52,20.23,15.7,-75.5
3.96,1.0,0.0,0.0,0.75,0.0,0.0,0.25,0.0,0.25,0.0,0.0,0.0,0.25,-0.36,-0.36,-0.3,47.86,21.1,43.6,1.0,0.0,0.75,1.5,1.0,0.0,0.0,1.5,0.5,2.0,0.25,0.0,0.5,-0.55,-0.67,0.7,58.86,-3.3,-1.2
3.98,1.0,0.0,0.0,0.5,0.0,0.0,0.0,0.0,0.25,0.0,0.0,0.0,0.25,-0.98,0.02,-0.55,40.5,20.9,42.7,0.0,0.0,0.5,0.0,0.0,0.0,0.0,0.0,0.0,0.5,0.0,0.0,0.0,-1.23,-0.98,0.52,55.97,-11.6,-6.2
4.0,1.5,0.0,0.0,0.5,0.0,0.0,0.25,1.25,0.25,0.0,0.0,0.0,0.25,-0.86,0.02,-0.36,43.77,10.6,22.2,0.0,0.0,0.0,0.0,0.0,0.0,0.0,0.0,0.0,0.25,0.0,0.0,0.0,-1.36,-0.98,0.58,49.95,15.7,-75.5
4.02,1.0,0.0,0.0,0.5,0.0,0.0,0.0,1.25,0.25,0.25,0.0,0.0,0.25,-0.73,-0.05,-0.61,47.91,4.6,4.7,0.0,0.0,0.5,0.0,0.0,0.0,0.0,0.0,0.0,0.5,0.0,0.0,0.0,-0.92,-0.8,0.77,29.98,-11.6,-6.2
4.04,1.25,0.0,0.0,0.5,0.0,0.0,0.25,1.25,0.25,0.0,0.0,0.0,0.25,-0.98,0.14,-0.61,53.34,9.0,17.2,0.0,0.0,0.0,0.0,1.0,0.0,0.25,0.0,0.0,0.75,0.0,0.0,0.0,-0.55,-0.48,0.58,25.52,5.7,4.2
4.06,1.25,0.0,0.0,0.5,0.0,0.0,0.25,1.25,0.25,0.0,0.0,0.0,0.25,-1.3,0.14,-0.61,56.06,9.0,17.2,1.5,0.0,0.75,1.5,0.25,0.0,0.25,1.5,0.5,2.0,0.75,0.0,0.5,-0.36,-0.36,0.52,62.88,-6.2,-4.8
4.08,1.25,0.0,0.25,0.25,0.0,0.0,0.25,1.25,0.25,0.0,0.0,0.0,0.25,-0.92,0.08,-0.55,56.84,10.5,17.4,1.25,0.0,0.5,1.5,1.0,0.0,0.25,1.5,0.25,2.0,0.5,0.0,0.25,-0.23,-0.3,0.52,100.92,-3.9,2.0
4.1,1.25,0.0,0.0,0.5,0.0,0.0,0.25,1.25,0.25,0.0,0.0,0.0,0.25,-0.8,0.02,-0.36,57.34,9.0,17.2,1.25,0.0,0.5,1.5,1.0,0.0,0.0,1.5,0.5,2.5,0.25,0.0,0.5,-0.23,-0.3,0.39,135.66,-2.1,-4.3
4.12,1.5,0.0,0.0,0.25,0.0,0.0,0.25,1.25,0.25,0.25,0.0,0.0,0.25,-0.73,0.08,-0.3,58.99,8.4,13.3,1.0,0.0,0.0,1.5,0.0,0.0,0.0,0.0,0.0,0.5,0.5,0.0,0.25,-0.36,-0.3,0.52,126.67,-14.2,21.2
4.14,1.25,0.0,0.0,0.5,0.0,0.0,0.0,1.25,0.25,0.0,0.0,0.0,0.25,-0.8,0.14,-0.23,59.69,8.2,16.9,1.25,0.0,0.5,1.5,1.25,0.0,0.0,1.25,0.0,0.25,0.25,0.0,0.75,-0.48,-0.36,0.58,126.88,-6.9,19.9
4.16,1.5,0.0,0.0,0.5,0.0,0.0,0.25,1.25,0.25,0.0,0.0,0.0,0.25,-0.8,0.2,-0.23,61.97,10.6,22.2,0.0,0.0,0.0,0.0,0.0,0.0,0.0,0.0,0.0,0.25,0.0,0.0,0.0,-0.67,-0.55,0.45,82.99,15.7,-75.5
4.18,1.0,0.0,0.25,0.25,0.0,0.0,0.25,0.0,0.25,0.25,0.0,0.0,0.25,-0.92,0.33,-0.3,55.24,19.9,29.5,0.0,0.0,0.0,0.0,0.0,0.0,0.0,0.0,0.0,0.5,0.5,0.0,0.75,-0.86,-0.86,0.45,59.43,7.5,-90.6
4.2,1.5,0.0,0.0,0.5,0.0,0.0,0.25,0.0,0.25,0.0,0.0,0.0,0.25,-1.11,0.39,-0.3,50.41,24.0,52.1,0.0,0.0,0.0,0.0,0.0,0.0,0.0,0.0,0.0,0.5,0.0,0.0,0.0,-0.98,-0.98,0.64,26.47,15.7,-75.5
4.22,1.75,0.0,0.0,0.25,0.0,0.0,0.25,0.0,0.5,0.0,0.0,0.0,0.25,-1.11,0.39,-0.3,45.96,24.6,47.3,0.75,0.0,0.0,1.5,0.0,0.0,0.0,1.5,0.5,1.25,0.25,0.0,0.25,-0.8,-0.73,0.58,49.0,-1.9,-9.7
4.24,1.25,0.0,0.0,0.5,0.0,0.0,0.25,0.0,0.25,0.0,0.0,0.0,0.25,-1.17,0.33,-0.36,41.43,22.9,47.5,0.0,0.0,1.0,0.0,0.0,0.0,0.0,0.25,0.0,0.25,0.0,0.0,0.0,-0.55,-0.48,0.58,37.63,-20.4,22.3
4.26,1.25,0.0,0.0,0.5,0.0,0.0,0.25,0.0,0.25,0.0,0.0,0.0,0.25,-1.11,0.33,-0.42,39.26,22.9,47.5,1.0,0.0,0.5,1.5,1.0,0.0,0.0,1.25,0.25,1.5,0.25,0.0,0.5,-0.36,-0.48,0.58,67.87,-3.7,3.7
4.28,1.5,0.0,0.0,0.25,0.0,0.0,0.25,0.0,0.25,0.0,0.0,0.0,0.25,-0.92,0.27,-0.42,37.55,24.8,51.5,1.0,0.0,0.75,1.5,1.25,0.0,0.25,1.5,0.25,1.5,0.75,0.0,0.5,-0.17,-0.48,0.64,92.31,-4.6,1.9
4.3,1.25,0.0,0.0,0.5,0.0,0.0,0.25,0.0,0.25,0.0,0.0,0.0,0.25,-0.8,0.2,-0.36,36.68,22.9,47.5,1.0,0.0,1.25,1.5,1.25,0.0,0.0,1.5,0.5,1.5,0.25,0.0,0.25,-0.17,-0.61,0.64,118.04,-6.5,10.9
4.32,1.5,0.0,0.25,0.25,0.0,0.0,0.0,0.0,0.25,0.25,0.0,0.0,0.25,-0.86,0.27,-0.3,38.0,22.0,41.6,0.75,0.0,0.5,1.5,1.25,0.0,0.0,1.25,0.25,1.5,0.25,0.0,0.5,-0.17,-0.73,0.64,129.72,-2.5,2.7
4.34,1.25,0.0,0.25,0.5,0.0,0.0,0.0,0.0,0.25,0.0,0.0,0.0,0.25,-0.98,0.2,-0.23,39.08,24.1,49.9,0.5,0.0,0.5,0.25,0.0,0.0,0.25,0.75,0.25,1.5,0.25,0.0,0.0,-0.3,-0.92,0.7,117.48,-3.3,-18.1
4.36,1.25,0.0,0.0,0.5,0.0,0.0,0.0,0.0,0.25,0.75,0.0,0.0,0.25,-1.05,0.14,-0.23,42.22,12.7,17.0,1.0,0.0,0.75,1.25,0.25,0.0,0.0,1.25,0.25,1.75,0.25,0.0,0.75,-0.36,-0.86,0.7,117.91,-4.0,-8.3
4.38,1.5,0.0,0.25,0.5,0.0,0.0,0.0,1.0,0.25,0.0,0.0,0.0,0.0,-0.98,0.14,-0.17,48.11,15.7,39.3,0.0,0.0,0.75,0.0,1.0,0.0,0.0,1.5,0.0,0.25,0.25,0.0,0.75,-0.36,-0.8,0.7,99.53,2.4,-15.1
4.4,1.5,0.0,0.0,0.5,0.0,0.0,0.0,0.5,0.25,0.0,0.0,0.0,0.25,-0.86,0.2,-0.23,50.63,16.7,37.6,1.0,0.0,0.5,1.25,1.0,0.0,0.0,1.25,0.25,2.0,0.25,0.0,0.75,-0.3,-0.67,0.7,114.51,-1.6,-6.1
4.42,1.5,0.0,0.25,0.25,0.0,0.0,0.0,0.0,0.25,0.0,0.0,0.0,0.25,-0.92,0.2,-0.23,50.11,25.9,53.7,0.75,0.0,0.5,1.25,1.25,0.0,0.0,1.25,0.25,1.5,0.25,0.0,0.75,-0.3,-0.61,0.64,117.29,-1.5,-2.6
4.44,1.5,0.0,0.0,0.5,0.0,0.0,0.0,0.0,0.25,0.0,0.0,0.0,0.0,-0.98,0.27,-0.3,45.83,28.1,72.7,1.0,0.0,0.5,1.5,1.0,0.0,0.0,1.5,0.25,1.0,0.25,0.0,0.75,-0.23,-0.67,0.64,125.94,-3.7,3.7
4.46,1.5,0.0,0.0,0.25,0.0,0.0,0.0,0.0,0.25,0.25,0.0,0.0,0.25,-1.05,0.27,-0.3,43.0,20.3,39.5,0.5,0.0,0.5,1.5,1.25,0.0,0.0,1.5,0.25,1.5,0.25,0.0,0.75,-0.23,-0.73,0.64,124.72,-0.5,-4.6
4.48,1.5,0.0,0.0,0.25,0.0,0.0,0.0,0.0,0.25,0.0,0.0,0.0,0.25,-0.98,0.27,-0.36,40.17,24.4,52.8,1.0,0.0,0.75,1.5,1.25,0.0,0.25,1.0,0.25,1.75,0.0,0.0,0.75,-0.3,-0.73,0.64,130.11,-4.2,5.2
4.5,1.5,0.0,0.0,0.5,0.0,0.0,0.0,0.0,0.25,0.0,0.0,0.0,0.25,-0.98,0.27,-0.36,40.16,23.6,53.3,0.5,0.0,0.0,1.5,1.0,0.0,0.0,1.5,0.25,2.5,0.25,0.0,0.5,-0.36,-0.67,0.7,124.81,3.2,-16.1
4.52,1.5,0.0,0.0,0.25,0.0,0.0,0.0,0.0,0.25,0.0,0.0,0.0,0.25,-0.98,0.27,-0.3,38.86,24.4,52.8,1.0,0.0,0.5,1.25,1.0,0.0,0.0,1.25,0.25,1.5,0.25,0.0,0.75,-0.3,-0.67,0.64,124.06,-2.7,-1.7
4.54,1.75,0.0,0.25,0.5,0.0,0.0,0.0,0.0,0.25,0.0,0.0,0.0,0.0,-0.92,0.2,-0.3,41.32,29.7,73.8,0.75,0.0,1.0,1.25,0.5,0.0,0.0,1.5,0.25,1.75,0.25,0.0,0.75,-0.36,-0.67,0.64,125.12,-3.3,-7.9
4.56,1.5,0.0,0.0,0.0,0.0,0.0,0.0,0.0,0.5,0.25,0.0,0.0,0.25,-0.86,0.2,-0.23,40.5,19.8,29.5,0.75,0.0,0.5,1.5,1.25,0.0,0.0,1.25,0.25,1.5,0.25,0.0,0.75,-0.36,-0.67,0.7,127.59,-2.0,-0.7
4.58,1.0,0.0,0.0,0.5,0.0,0.0,0.0,0.0,0.25,0.0,0.0,0.0,0.25,-0.92,0.2,-0.23,38.36,20.9,42.7,0.75,0.0,0.75,1.25,1.25,0.0,0.0,1.5,0.25,1.5,0.25,0.0,0.75,-0.3,-0.67,0.7,130.37,-2.1,-1.7
4.6,1.25,0.0,0.0,0.0,0.0,0.0,0.0,0.0,0.25,0.25,0.0,0.0,0.25,-0.98,0.27,-0.23,34.5,18.9,29.9,1.25,0.0,0.5,1.25,0.5,0.0,0.0,1.25,0.25,1.5,0.25,0.0,0.5,-0.3,-0.67,0.7,124.09,-4.8,0.8
4.62,2.0,0.0,0.25,0.25,0.0,0.0,0.0,0.0,0.25,0.25,0.0,0.0,0.25,-0.98,0.27,-0.3,39.52,23.9,49.9,0.75,0.0,0.5,1.25,1.0,0.0,0.0,1.25,0.25,1.75,0.25,0.0,0.5,-0.23,-0.67,0.7,121.92,-1.6,-3.5
4.64,1.5,0.0,0.25,0.5,0.0,0.0,0.0,0.0,0.25,0.0,0.0,0.0,0.25,-0.92,0.27,-0.3,43.04,25.0,54.1,0.25,0.0,0.75,0.0,0.5,0.0,0.25,0.75,0.0,0.25,0.0,0.0,0.0,-0.23,-0.67,0.7,91.64,-8.5,20.7
4.66,1.5,0.0,0.25,0.5,0.0,0.0,0.0,0.0,0.25,0.0,0.0,0.0,0.25,-0.92,0.27,-0.3,46.93,25.0,54.1,0.25,0.0,0.0,0.0,0.0,0.0,0.0,0.0,0.0,0.25,0.0,0.0,0.0,-0.3,-0.67,0.77,55.19,-8.7,8.1
4.68,1.5,0.0,0.25,0.25,0.0,0.0,0.0,0.0,0.25,0.0,0.0,0.0,0.25,-0.98,0.27,-0.3,46.47,25.9,53.7,0.5,0.0,0.0,0.75,0.0,0.0,0.0,0.0,0.0,1.25,0.0,0.0,0.0,-0.3,-0.67,0.7,31.08,-4.0,-1.2
4.7,1.0,0.0,0.0,0.75,0.0,0.0,0.0,0.0,0.25,0.0,0.0,0.0,0.25,-0.92,0.27,-0.3,43.95,20.5,44.5,0.5,0.0,0.5,0.0,0.0,0.0,0.0,0.0,0.0,1.0,0.0,0.0,0.0,-0.3,-0.67,0.7,16.25,-10.2,0.7
4.72,1.5,0.0,0.25,0.25,0.0,0.0,0.0,0.0,0.25,0.0,0.0,0.0,0.25,-0.92,0.27,-0.3,42.17,25.9,53.7,0.5,0.0,0.0,0.0,0.0,0.0,0.0,0.0,0.0,1.0,0.0,0.0,0.0,-0.36,-0.67,0.7,8.66,-0.4,-20.3
4.74,1.5,0.0,0.25,0.75,0.0,0.0,0.0,0.0,0.25,0.0,0.0,0.0,0.25,-0.86,0.27,-0.3,44.63,24.3,54.4,0.5,0.0,0.0,0.25,0.0,0.0,0.0,0.0,0.0,1.5,0.25,0.0,0.0,-0.36,-0.67,0.7,11.14,0.0,-28.6
4.76,1.5,0.0,0.25,0.5,0.0,0.0,0.0,0.0,0.25,0.0,0.0,0.0,0.25,-0.92,0.27,-0.3,46.51,25.0,54.1,0.5,0.0,0.0,1.25,0.0,0.0,0.0,0.0,0.25,2.25,0.0,0.0,0.0,-0.36,-0.61,0.7,24.8,-1.5,-13.5
4.78,2.0,0.0,0.25,0.5,0.0,0.0,0.0,0.0,0.25,0.0,0.0,0.0,0.25,-0.92,0.27,-0.3,50.6,26.5,60.5,0.5,0.0,0.5,0.5,0.25,0.0,0.0,1.25,0.0,0.5,0.5,0.0,0.75,-0.36,-0.61,0.7,39.3,-2.0,-17.6
4.8,1.5,0.0,0.0,0.25,0.0,0.0,0.0,0.0,0.25,0.0,0.0,0.0,0.25,-0.98,0.27,-0.3,47.92,24.4,52.8,0.5,0.0,0.0,0.0,0.0,0.0,0.0,0.0,0.0,1.5,0.0,0.0,0.0,-0.36,-0.61,0.7,38.49,3.6,-34.3
4.82,1.5,0.0,0.0,0.75,0.0,0.0,0.0,0.0,0.25,0.0,0.0,0.0,0.25,-0.98,0.27,-0.3,47.76,23.0,53.8,0.5,0.0,0.0,0.0,0.0,0.0,0.0,0.0,0.0,0.5,0.0,0.0,0.0,-0.36,-0.61,0.7,30.46,-8.7,8.1
4.84,1.5,0.0,0.25,0.5,0.0,0.0,0.0,0.0,0.25,0.0,0.0,0.0,0.25,-0.98,0.27,-0.3,45.78,25.0,54.1,0.5,0.0,0.0,0.25,0.0,0.0,0.0,0.0,0.0,1.0,0.0,0.0,0.0,-0.36,-0.61,0.7,24.27,-2.9,-8.4
4.86,1.75,0.0,0.0,0.0,0.0,0.0,0.0,0.0,0.25,0.0,0.0,0.0,0.25,-0.92,0.27,-0.3,42.57,26.5,57.1,0.75,0.0,0.0,1.5,0.0,0.0,0.0,0.25,0.25,1.5,0.25,0.0,0.0,-0.36,-0.61,0.7,37.41,-6.5,1.9
4.88,1.5,0.0,0.0,0.25,0.0,0.0,0.0,0.0,0.25,0.0,0.0,0.0,0.0,-0.92,0.27,-0.3,39.22,29.6,74.7,0.5,0.0,0.0,1.5,0.0,0.0,0.0,0.0,0.0,1.25,0.25,0.0,0.0,-0.36,-0.67,0.7,49.95,-7.4,6.7
4.9,1.25,0.0,0.25,0.25,0.0,0.0,0.0,0.0,0.25,0.0,0.0,0.0,0.0,-0.92,0.27,-0.3,36.29,30.1,70.1,0.5,0.0,0.0,1.5,0.0,0.0,0.0,0.0,0.25,1.5,0.0,0.0,0.0,-0.36,-0.67,0.7,60.9,-6.0,3.6
4.92,1.5,0.0,0.0,0.25,0.0,0.0,0.0,0.0,0.5,0.0,0.0,0.0,0.0,-0.92,0.27,-0.3,35.38,27.6,61.8,0.75,0.0,1.25,1.5,1.25,0.0,0.0,1.25,0.0,1.5,0.75,0.0,0.75,-0.36,-0.61,0.7,91.48,-5.2,1.5
4.94,1.5,0.0,0.0,0.25,0.0,0.0,0.0,0.0,0.25,0.0,0.0,0.0,0.0,-0.92,0.27,-0.3,33.78,29.6,74.7,0.75,0.0,0.5,1.5,1.25,0.0,0.0,1.25,0.25,1.5,0.25,0.0,0.75,-0.36,-0.61,0.7,113.29,-2.0,-0.7
4.96,1.5,0.0,0.25,0.5,0.0,0.0,0.0,0.0,0.25,0.25,0.0,0.0,0.0,-0.92,0.27,-0.3,37.36,24.9,57.7,0.5,0.0,0.0,0.0,0.0,0.0,0.0,0.0,0.0,0.25,0.0,0.0,0.0,-0.36,-0.61,0.7,93.15,-17.3,37.3
4.98,1.5,0.0,0.0,0.5,0.0,0.0,0.0,0.0,0.25,0.0,0.0,0.0,0.0,-0.92,0.27,-0.3,37.75,28.1,72.7,0.25,0.0,0.0,0.0,0.0,0.0,0.0,0.0,0.0,0.25,0.0,0.0,0.0,-0.36,-0.61,0.7,62.35,-8.7,8.1
5.0,1.5,0.0,0.0,0.0,0.0,0.0,0.0,0.0,0.25,0.0,0.0,0.0,0.0,-0.92,0.27,-0.3,35.74,31.5,77.4,0.25,0.0,0.0,0.0,0.0,0.0,0.0,0.0,0.0,0.25,0.0,0.0,0.0,-0.3,-0.61,0.7,30.0,-8.7,8.1
5.02,1.5,0.0,0.25,0.25,0.0,0.0,0.0,0.0,0.25,0.0,0.0,0.0,0.25,-0.92,0.27,-0.3,36.52,25.9,53.7,0.0,0.0,0.0,0.0,0.0,0.0,0.0,0.0,0.0,0.25,0.0,0.0,0.0,-0.36,-0.61,0.7,9.38,15.7,-75.5
5.04,1.75,0.0,0.0,0.5,0.0,0.0,0.0,0.0,0.25,0.25,0.0,0.0,0.25,-0.98,0.33,-0.3,41.18,21.2,45.8,0.0,0.0,0.0,0.0,0.0,0.0,0.0,0.0,0.0,0.25,0.0,0.0,0.0,-0.3,-0.61,0.7,0.36,15.7,-75.5
5.06,1.5,0.0,0.0,0.0,0.0,0.0,0.0,0.0,0.25,0.0,0.0,0.0,0.0,-0.98,0.33,-0.3,38.36,31.5,77.4,0.0,0.0,0.0,0.0,0.0,0.0,0.0,0.0,0.0,0.25,0.0,0.0,0.0,-0.3,-0.61,0.7,0.0,15.7,-75.5
5.08,1.5,0.0,0.25,0.25,0.0,0.0,0.0,0.0,0.25,0.0,0.0,0.0,0.25,-0.92,0.33,-0.3,40.14,25.9,53.7,0.5,0.0,0.0,0.0,0.0,0.0,0.0,0.0,0.0,0.5,0.0,0.0,0.0,-0.3,-0.61,0.7,0.0,-8.7,8.1
5.1,1.5,0.0,0.0,0.5,0.0,0.0,0.0,0.0,0.25,0.0,0.0,0.0,0.0,-0.92,0.33,-0.3,39.73,28.1,72.7,0.5,0.0,0.0,1.5,0.0,0.0,0.0,0.0,0.25,1.5,0.0,0.0,0.0,-0.3,-0.61,0.7,12.16,-6.0,3.6
5.12,1.5,0.0,0.0,0.5,0.0,0.0,0.0,0.0,0.25,0.0,0.0,0.0,0.0,-0.92,0.33,-0.3,39.83,28.1,72.7,0.75,0.0,0.0,1.25,0.5,0.0,0.0,1.0,0.25,2.25,0.5,0.0,0.75,-0.23,-0.61,0.7,48.21,1.2,-22.3
5.14,1.5,0.0,0.0,0.25,0.0,0.0,0.0,0.0,0.25,0.0,0.0,0.0,0.0,-0.92,0.33,-0.3,37.37,29.6,74.7,0.0,0.0,0.5,0.0,1.0,0.0,0.0,1.25,0.0,0.25,0.25,0.0,0.75,-0.23,-0.67,0.7,62.7,4.0,-18.4
5.16,1.5,0.0,0.0,0.0,0.0,0.0,0.0,0.0,0.25,0.0,0.0,0.0,0.25,-0.92,0.33,-0.3,35.82,25.4,52.1,0.0,0.0,0.0,0.0,0.0,0.0,0.0,0.0,0.0,0.5,0.0,0.0,0.0,-0.23,-0.67,0.7,51.64,15.7,-75.5
5.18,1.5,0.0,0.25,0.0,0.0,0.0,0.0,0.0,0.0,0.0,0.0,0.0,0.0,-0.92,0.33,-0.3,32.9,35.5,92.1,0.5,0.0,0.0,1.25,0.0,0.0,0.0,0.0,0.0,1.5,0.0,0.0,0.0,-0.23,-0.61,0.7,52.7,-4.6,2.5
5.2,1.5,0.0,0.0,0.25,0.0,0.0,0.0,0.0,0.25,0.0,0.0,0.0,0.25,-0.92,0.33,-0.23,32.99,24.4,52.8,0.5,0.0,0.5,1.25,1.0,0.0,0.0,1.0,0.0,1.75,0.25,0.0,0.75,-0.23,-0.61,0.77,74.54,-0.3,-8.2
5.22,1.5,0.0,0.25,0.0,0.0,0.0,0.0,0.0,0.0,0.0,0.0,0.0,0.0,-0.92,0.33,-0.23,32.15,35.5,92.1,0.5,0.0,0.5,1.25,0.25,0.0,0.0,1.0,0.25,1.75,0.25,0.0,0.75,-0.3,-0.61,0.77,90.7,-1.2,-17.4
5.24,1.5,0.0,0.0,0.25,0.0,0.0,0.0,0.0,0.25,0.0,0.0,0.0,0.0,-0.92,0.33,-0.3,32.78,29.6,74.7,0.25,0.0,0.5,0.0,0.5,0.0,0.0,0.0,0.0,0.25,0.0,0.0,0.0,-0.3,-0.61,0.77,81.99,-13.9,42.0
5.26,1.5,0.0,0.0,0.5,0.0,0.0,0.0,0.0,0.25,0.0,0.0,0.0,0.25,-0.92,0.33,-0.3,34.85,23.6,53.3,0.0,0.0,0.0,0.0,0.0,0.0,0.0,0.0,0.0,0.25,0.0,0.0,0.0,-0.3,-0.61,0.77,59.0,15.7,-75.5
5.28,1.5,0.0,0.0,0.5,0.0,0.0,0.0,0.0,0.25,0.0,0.0,0.0,0.25,-0.98,0.33,-0.3,38.11,23.6,53.3,0.0,0.0,0.0,0.0,0.0,0.0,0.0,0.0,0.0,0.25,0.0,0.0,0.0,-0.23,-0.61,0.77,29.88,15.7,-75.5
5.3,1.5,0.0,0.0,0.0,0.0,0.0,0.0,0.0,0.0,0.0,0.0,0.0,0.0,-0.92,0.33,-0.3,35.72,35.0,97.9,0.25,0.0,0.5,0.0,1.0,0.0,0.0,0.0,0.0,0.25,0.0,0.0,0.0,-0.23,-0.61,0.77,19.45,-9.3,45.1
5.32,1.5,0.0,0.25,0.5,0.0,0.0,0.0,0.0,0.25,0.0,0.0,0.0,0.25,-0.92,0.33,-0.3,38.7,25.0,54.1,0.75,0.0,0.0,1.25,0.0,0.0,0.0,0.0,0.0,1.75,0.0,0.25,0.0,-0.17,-0.61,0.77,27.87,-5.4,-3.7
5.34,1.5,0.0,0.25,0.75,0.0,0.0,0.0,0.0,0.25,0.0,0.0,0.0,0.0,-0.92,0.33,-0.23,42.0,28.0,70.1,0.5,0.0,0.5,1.25,1.0,0.0,0.0,0.75,0.0,1.0,0.25,0.0,0.5,-0.17,-0.61,0.77,52.83,-3.6,5.9
5.36,1.5,0.0,0.0,0.5,0.0,0.0,0.0,0.0,0.0,0.0,0.0,0.0,0.25,-0.92,0.33,-0.23,43.07,24.9,63.7,0.75,0.0,0.5,1.25,0.25,0.0,0.0,1.25,0.0,2.0,0.25,0.0,0.5,-0.17,-0.67,0.77,77.66,-1.3,-12.1
5.38,1.5,0.0,0.0,0.25,0.0,0.0,0.0,0.0,0.25,0.0,0.0,0.0,0.0,-0.92,0.33,-0.23,41.18,29.6,74.7,0.5,0.0,0.5,1.25,2.5,0.0,0.0,0.0,0.0,1.5,0.0,0.0,0.0,-0.17,-0.61,0.7,99.58,-3.8,29.0
5.4,1.5,0.0,0.0,0.25,0.0,0.0,0.0,0.0,0.25,0.0,0.0,0.0,0.25,-0.92,0.33,-0.23,39.97,24.4,52.8,0.0,0.0,1.0,1.25,2.25,0.0,0.0,1.25,0.0,1.5,0.25,0.0,0.75,-0.05,-0.61,0.77,119.24,0.0,1.5
5.42,1.5,0.0,0.0,0.25,0.0,0.0,0.0,0.0,0.25,0.0,0.0,0.0,0.0,-0.92,0.33,-0.23,37.15,29.6,74.7,0.0,0.0,0.5,1.25,2.75,0.0,0.0,1.0,0.0,1.5,0.25,0.0,0.5,-0.11,-0.61,0.7,127.91,1.5,6.1
5.44,1.5,0.0,0.0,0.25,0.0,0.0,0.0,0.0,0.0,0.0,0.0,0.0,0.25,-0.92,0.33,-0.23,35.18,26.0,64.5,0.25,0.0,0.5,1.25,2.25,0.0,0.0,1.0,0.0,1.5,0.5,0.0,0.75,-0.05,-0.61,0.7,135.56,0.4,-0.4
5.46,1.5,0.0,0.25,0.25,0.0,0.0,0.0,0.0,0.25,0.0,0.0,0.0,0.25,-0.92,0.33,-0.23,37.33,25.9,53.7,0.0,0.0,0.5,1.25,2.25,0.0,0.0,1.0,0.0,1.75,0.25,0.0,0.0,-0.05,-0.61,0.77,137.89,1.0,7.7
5.48,1.5,0.0,0.0,0.25,0.0,0.0,0.0,0.0,0.25,0.0,0.0,0.0,0.0,-0.92,0.33,-0.23,36.36,29.6,74.7,0.0,0.0,0.5,0.75,1.75,0.0,0.0,1.25,0.0,1.5,0.25,0.0,0.75,-0.05,-0.61,0.77,136.02,3.6,-11.2
5.5,1.5,0.0,0.0,0.5,0.0,0.0,0.0,0.0,0.25,0.0,0.0,0.0,0.0,-0.92,0.33,-0.23,37.07,28.1,72.7,0.5,0.0,0.5,1.25,1.5,0.0,0.0,1.25,0.0,1.75,0.25,0.0,0.5,-0.05,-0.61,0.7,132.25,0.0,-1.2
5.52,1.5,0.0,0.0,0.5,0.0,0.0,0.0,0.0,0.25,0.0,0.0,0.0,0.25,-0.92,0.33,-0.23,38.68,23.6,53.3,0.25,0.0,0.5,1.25,2.25,0.0,0.0,1.0,0.0,2.5,0.25,0.0,0.5,-0.05,-0.67,0.7,133.73,2.0,-3.7
5.54,1.5,0.0,0.0,0.0,0.0,0.0,0.0,0.0,0.25,0.0,0.0,0.0,0.25,-0.92,0.33,-0.23,37.65,25.4,52.1,0.5,0.0,0.5,1.25,2.5,0.0,0.0,1.0,0.0,2.0,0.25,0.0,0.5,-0.05,-0.67,0.77,136.3,0.4,4.8
5.56,1.5,0.0,0.25,0.5,0.0,0.0,0.0,0.0,0.25,0.0,0.0,0.0,0.0,-0.92,0.33,-0.23,38.5,29.1,71.4,0.5,0.0,0.5,1.25,1.75,0.0,0.0,1.25,0.0,1.5,0.25,0.0,0.5,-0.05,-0.67,0.77,133.29,-0.3,3.1
5.58,1.5,0.0,0.0,0.25,0.0,0.0,0.0,0.0,0.25,0.0,0.0,0.0,0.0,-0.92,0.33,-0.23,37.33,29.6,74.7,0.0,0.0,0.75,1.25,2.25,0.0,0.0,1.0,0.0,1.5,0.25,0.0,0.75,-0.05,-0.67,0.77,130.6,0.5,0.8
