time,left pressure 0[N/cm²],left pressure 1[N/cm²],left pressure 2[N/cm²],left pressure 3[N/cm²],left pressure 4[N/cm²],left pressure 5[N/cm²],left pressure 6[N/cm²],left pressure 7[N/cm²],left pressure 8[N/cm²],left pressure 9[N/cm²],left pressure 10[N/cm²],left pressure 11[N/cm²],left pressure 12[N/cm²],left acceleration X[g],left acceleration Y[g],left acceleration Z[g],left total force[N],left center of pressure X[mm],left center of pressure Y[mm],right pressure 0[N/cm²],right pressure 1[N/cm²],right pressure 2[N/cm²],right pressure 3[N/cm²],right pressure 4[N/cm²],right pressure 5[N/cm²],right pressure 6[N/cm²],right pressure 7[N/cm²],right pressure 8[N/cm²],right pressure 9[N/cm²],right pressure 10[N/cm²],right pressure 11[N/cm²],right pressure 12[N/cm²],right acceleration X[g],right acceleration Y[g],right acceleration Z[g],right total force[N],right center of pressure X[mm],right center of pressure Y[mm]
0.02,0.0,0.0,0.0,0.5,0.0,0.0,0.0,0.0,0.0,0.25,0.25,0.0,0.5,-1.3,-1.23,1.14,0.0,0.4,-41.4,0.0,0.0,0.75,1.0,1.5,4.25,0.25,6.0,1.0,8.0,6.0,4.75,7.75,0.08,0.08,0.95,761.07,6.4,-57.5
0.04,0.0,0.0,0.0,0.5,0.0,0.0,0.0,0.0,0.25,0.25,0.0,0.0,0.75,-1.3,-1.05,2.08,0.0,-1.3,-46.2,0.25,0.5,0.75,1.25,1.5,4.25,0.25,6.0,1.0,7.25,5.25,3.75,7.25,0.08,0.08,0.95,727.02,6.2,-51.0
0.06,0.0,0.0,1.25,0.5,0.0,0.0,0.0,0.0,0.0,0.0,0.0,0.0,0.75,-1.05,-1.11,0.33,0.0,18.4,9.2,0.0,0.0,0.75,1.0,3.75,5.25,0.25,6.0,0.75,6.5,4.25,2.5,6.5,0.14,0.08,0.95,674.17,7.8,-41.2
0.08,0.0,0.0,1.0,0.5,0.0,0.0,0.0,0.0,0.0,0.0,0.0,0.0,0.5,-0.73,-0.3,0.45,0.0,20.0,17.6,0.0,0.0,0.75,1.75,5.25,5.0,0.5,6.0,1.0,6.5,3.5,2.0,5.75,0.14,0.08,0.95,612.93,7.2,-32.2
0.1,0.0,0.0,0.0,0.5,0.0,0.0,0.0,0.0,0.0,0.25,0.0,0.0,0.75,-0.42,-0.42,0.08,0.0,-3.5,-47.4,0.0,0.75,0.75,3.25,5.25,6.0,0.25,6.0,1.0,5.75,3.25,1.25,5.0,0.14,0.08,0.95,558.37,6.4,-20.5
0.12,0.0,0.0,0.75,0.5,0.0,0.0,0.0,0.0,0.0,0.0,0.0,0.0,0.25,-0.42,-0.36,0.64,0.0,22.5,31.6,0.0,0.5,0.5,3.5,5.75,6.5,0.5,6.0,0.75,4.75,2.25,1.0,4.5,0.14,0.08,0.95,515.01,7.0,-14.4
0.14,0.0,0.0,0.25,0.5,0.0,0.0,0.0,0.0,0.0,0.25,0.0,0.0,0.5,-0.48,-0.42,0.7,0.0,5.1,-19.0,0.5,1.0,0.75,5.0,7.0,6.75,0.75,6.0,1.0,3.5,2.0,0.75,3.75,0.14,0.08,0.95,508.62,4.5,-0.7
0.16,0.0,0.0,0.0,0.5,0.0,0.0,0.0,0.0,0.0,0.25,0.0,0.0,0.75,-0.48,-0.3,0.77,0.0,-3.5,-47.4,0.5,1.0,1.0,5.75,8.0,7.25,0.75,5.75,0.75,3.25,2.0,0.5,3.0,0.14,0.08,0.95,516.97,3.9,6.4
0.18,0.0,0.0,0.0,0.25,0.0,0.0,0.0,0.0,0.0,0.0,0.0,0.0,0.75,-0.48,-0.17,0.95,0.0,-5.8,-67.3,0.5,1.0,1.5,7.25,8.25,7.5,1.0,5.25,0.25,1.75,2.0,0.5,2.5,0.14,0.08,0.95,536.21,2.0,15.4
0.2,0.0,0.0,0.0,0.5,0.0,0.0,0.0,0.0,0.0,0.0,0.0,0.0,0.0,-0.36,0.08,1.08,0.0,17.2,57.9,1.0,1.25,2.0,8.0,8.5,7.5,1.0,5.0,0.0,1.75,0.0,0.25,2.25,0.14,0.08,0.95,553.47,1.2,25.4
0.22,0.0,0.0,0.0,0.5,0.0,0.0,0.0,0.0,0.0,0.25,0.0,0.0,0.75,-0.23,0.2,1.27,9.3,-3.5,-47.4,1.0,1.75,2.25,8.5,9.5,7.75,1.0,5.0,0.25,1.75,0.0,0.0,2.0,0.14,0.08,0.95,582.84,0.6,29.0
0.24,0.0,0.0,0.0,0.5,0.0,0.0,0.0,0.0,0.0,0.25,0.0,0.0,1.0,-0.11,0.33,1.52,17.67,-5.0,-56.3,1.0,1.75,2.5,9.25,9.5,7.75,1.0,4.0,0.25,1.5,0.25,0.0,1.75,0.14,0.08,0.95,605.79,-0.5,32.3
0.26,0.0,0.0,0.0,0.5,0.0,0.0,0.0,0.0,0.0,0.0,0.0,0.0,0.5,-0.05,0.39,1.83,19.58,1.8,-25.2,0.75,2.25,2.75,10.5,11.0,8.0,1.0,3.75,0.0,0.75,0.25,0.0,1.75,0.14,0.08,0.95,645.05,-1.2,37.1
0.28,0.0,0.0,0.0,0.5,0.0,0.0,0.0,0.0,0.0,0.0,0.0,0.0,0.5,-0.17,0.45,1.89,17.89,1.8,-25.2,1.5,2.25,3.5,11.0,11.0,8.0,1.0,2.75,0.0,0.5,0.5,0.0,1.75,0.08,0.08,0.95,685.11,-3.1,40.4
0.3,0.25,0.0,0.0,0.5,0.0,0.0,0.0,0.0,0.0,0.0,0.0,0.0,0.75,-0.3,0.52,2.02,18.3,4.3,-20.6,2.0,2.5,3.5,11.5,11.0,8.0,0.75,2.25,0.25,0.25,0.0,0.0,1.5,0.08,0.14,0.95,717.75,-3.9,44.8
0.32,0.0,0.0,0.0,0.5,0.0,0.0,0.0,0.0,0.0,0.25,0.0,0.0,0.75,-0.36,0.83,2.45,20.48,-3.5,-47.4,2.75,2.5,3.75,12.5,11.5,8.0,0.75,2.25,0.25,0.0,0.0,0.0,1.25,0.08,0.14,0.95,750.04,-5.0,47.5
0.34,0.0,0.0,0.0,0.0,0.0,0.0,0.0,0.0,0.0,0.0,0.0,0.0,0.0,-0.11,1.33,2.52,14.12,0.0,0.0,3.75,2.75,5.25,13.0,12.5,8.0,0.75,1.75,0.0,0.0,0.0,0.0,0.75,0.08,0.14,0.95,798.06,-6.9,52.3
0.36,0.25,0.0,0.0,0.5,0.0,0.0,0.0,0.0,0.0,0.25,0.0,0.0,0.25,0.27,2.02,2.39,15.09,7.6,4.7,5.5,3.0,5.75,14.5,12.5,7.75,0.75,0.75,0.0,0.0,0.0,0.0,0.75,0.08,0.14,1.02,860.0,-9.0,56.0
0.38,0.0,0.0,0.0,0.5,0.0,0.0,0.0,0.0,0.0,0.0,0.0,0.0,0.75,0.83,2.64,1.58,15.4,-1.2,-42.0,6.0,3.5,6.5,14.5,12.5,7.5,0.75,0.75,0.0,0.0,0.0,0.0,0.75,0.08,0.2,1.02,918.48,-9.8,56.9
0.4,0.0,0.0,0.0,0.5,0.0,0.0,0.0,0.0,0.0,0.0,0.0,0.0,0.5,1.45,3.39,0.58,16.38,1.8,-25.2,7.0,3.75,7.0,14.5,12.5,7.0,0.75,0.75,0.0,0.0,0.0,0.0,0.75,0.02,0.2,1.02,973.32,-10.8,58.0
0.42,0.5,0.0,0.0,0.5,0.0,0.0,0.0,0.0,0.0,0.25,0.0,0.0,0.5,2.27,4.33,0.58,20.74,8.1,0.3,8.0,4.0,7.25,15.0,12.5,6.5,0.75,0.75,0.0,0.0,0.0,0.0,0.75,0.02,0.27,1.02,1019.81,-11.6,59.0
0.44,0.0,0.0,0.0,0.5,0.0,0.0,0.0,0.0,0.0,0.25,0.5,0.0,0.5,2.08,3.83,0.33,24.93,1.8,-46.0,8.5,4.25,7.25,15.0,11.0,5.75,0.75,0.25,0.25,0.0,0.25,0.0,0.75,0.08,0.27,1.08,1033.04,-13.0,59.9
0.46,0.5,0.0,0.0,0.5,0.0,0.0,0.0,0.0,0.25,0.25,0.0,0.75,0.5,-2.23,-0.73,0.89,32.12,8.7,-33.0,8.75,4.25,7.25,14.5,11.0,3.0,0.5,0.75,0.25,0.0,0.25,0.0,0.75,0.14,0.33,1.14,1011.66,-14.5,60.5
0.48,0.0,0.0,0.0,0.5,0.0,0.0,0.0,0.0,0.0,1.25,0.25,1.0,2.25,-1.42,-0.48,1.52,55.97,-5.8,-83.7,8.75,3.5,7.0,12.5,9.0,0.5,0.25,0.75,0.25,0.0,0.0,0.0,0.75,0.14,0.39,1.27,919.37,-17.1,62.5
0.5,0.0,0.0,0.0,0.5,0.0,0.0,0.0,0.0,0.0,3.25,0.75,4.25,5.5,0.45,0.33,0.58,130.61,-5.1,-94.2,8.5,2.75,5.75,11.0,7.0,0.0,0.5,0.75,0.25,0.0,0.0,0.0,0.75,0.27,0.52,1.45,784.34,-18.2,62.6
0.52,0.0,0.0,0.0,0.5,0.0,0.0,0.0,0.75,0.5,6.5,0.0,5.5,7.25,0.77,0.52,2.14,222.69,-7.2,-91.0,7.5,0.5,2.0,6.25,3.75,0.0,0.5,0.75,0.0,0.0,0.0,0.0,0.75,0.52,0.83,1.89,561.21,-18.5,61.4
0.54,0.0,0.0,0.0,0.0,0.0,0.0,0.0,0.0,0.75,6.75,5.75,5.75,7.25,-0.3,0.39,1.7,313.3,-3.3,-91.7,6.0,0.75,0.0,2.75,0.0,0.0,0.25,0.75,0.0,0.0,0.25,0.0,0.75,0.64,1.58,3.08,342.13,-21.4,59.5
0.56,0.0,0.0,0.0,0.5,0.0,0.0,0.0,4.75,0.5,6.75,5.75,5.75,7.25,0.08,0.27,1.2,416.38,-5.1,-81.6,3.75,0.25,0.0,2.0,1.25,0.0,0.25,0.75,0.25,0.0,0.0,0.0,0.0,0.14,0.27,2.83,194.95,-17.9,63.1
0.58,0.0,0.0,0.0,0.5,0.0,0.0,0.0,4.75,1.25,6.75,5.75,5.25,7.0,-0.17,0.08,0.95,500.85,-4.9,-79.9,0.25,0.0,0.25,0.0,1.25,0.0,0.25,0.75,0.0,0.0,0.25,0.0,0.0,0.45,0.33,2.33,47.68,-2.3,23.5
0.6,0.0,0.0,0.0,0.5,0.0,0.0,0.0,4.75,0.75,6.5,5.5,5.0,6.75,-0.17,0.08,0.95,537.54,-5.2,-80.1,0.0,0.0,0.0,0.0,0.0,0.0,0.0,0.0,0.0,0.0,0.0,0.0,0.0,1.2,-0.73,2.08,0.0,0.0,0.0
0.62,0.0,0.0,0.0,0.5,1.25,0.0,0.0,5.0,1.5,6.5,5.75,4.5,6.5,-0.17,0.08,0.95,555.38,-4.9,-72.0,0.0,0.0,0.0,0.0,0.0,0.0,0.0,0.0,0.0,0.0,0.0,0.0,0.0,0.89,-0.11,1.7,0.0,0.0,0.0
0.64,0.0,0.0,0.0,0.0,1.5,0.0,0.0,5.0,1.5,6.0,5.25,4.25,6.25,-0.17,0.02,0.95,547.68,-5.3,-72.3,0.0,0.0,0.0,0.0,0.0,0.0,0.0,0.0,0.0,0.0,0.0,0.0,0.0,0.58,-1.61,1.2,0.0,0.0,0.0
0.66,0.0,0.0,0.0,0.5,2.75,0.0,0.0,5.0,1.75,5.75,5.0,3.75,6.0,-0.11,0.02,0.95,535.14,-4.9,-62.9,0.0,0.5,0.5,0.5,0.25,0.0,0.25,0.75,0.0,0.0,0.25,0.0,0.0,0.39,-0.36,0.95,0.0,-9.5,28.4
0.68,0.0,0.0,0.0,1.25,3.5,0.75,0.25,5.0,1.75,5.0,4.25,3.0,5.5,-0.17,0.02,0.95,510.45,-4.9,-51.4,0.0,0.0,0.5,0.0,0.0,0.0,0.25,0.75,0.0,0.0,0.0,0.0,0.0,0.14,-0.42,0.33,0.0,-7.9,4.0
0.7,0.0,0.0,0.0,1.0,4.25,0.75,0.25,5.0,2.0,4.5,4.0,2.25,4.5,-0.17,0.08,0.95,473.01,-4.9,-45.0,0.0,0.0,0.0,0.0,0.0,0.0,0.0,0.0,0.0,0.0,0.0,0.0,0.0,0.27,-0.36,0.45,0.0,0.0,0.0
0.72,0.0,0.0,0.25,2.75,4.5,0.75,0.5,4.75,2.0,3.75,3.25,2.0,3.5,-0.11,0.08,0.95,423.97,-2.7,-31.6,0.0,0.0,0.0,0.0,0.0,0.0,0.0,0.0,0.0,0.0,0.0,0.0,0.0,0.39,-0.42,0.7,0.0,0.0,0.0
0.74,0.0,0.0,0.25,4.5,5.25,0.75,0.75,4.25,2.25,3.0,2.75,1.0,2.5,-0.11,0.08,0.95,382.26,-0.8,-15.1,0.0,0.0,0.0,0.0,0.0,0.0,0.0,0.0,0.0,0.0,0.0,0.0,0.0,0.33,-0.36,0.89,0.0,0.0,0.0
0.76,0.0,0.0,1.25,4.5,5.5,1.0,0.75,4.0,2.0,2.25,2.0,1.0,2.0,-0.11,0.08,0.95,354.76,0.8,-5.5,0.0,0.0,0.0,0.0,0.0,0.0,0.0,0.0,0.0,0.0,0.0,0.0,0.0,0.27,-0.17,1.02,0.0,0.0,0.0
0.78,1.5,0.5,1.25,6.5,5.75,1.0,1.0,3.5,2.0,1.25,2.0,1.0,1.5,-0.11,0.08,0.95,353.06,5.0,11.3,0.0,0.0,0.0,0.0,0.0,0.0,0.0,0.0,0.0,0.0,0.0,0.0,0.0,0.39,0.08,1.02,0.0,0.0,0.0
0.8,2.25,0.75,1.75,7.25,6.25,1.25,1.0,3.0,2.0,1.25,1.5,1.0,1.25,-0.11,0.08,0.95,370.04,6.6,20.0,0.0,0.0,0.0,0.0,0.0,0.0,0.0,0.0,0.0,0.0,0.0,0.0,0.0,0.52,0.27,1.14,0.0,0.0,0.0
0.82,2.75,1.0,2.5,7.25,6.75,1.5,1.0,2.5,1.5,1.25,1.25,0.75,1.0,-0.11,0.08,0.95,396.79,7.9,28.2,0.0,0.0,0.0,0.0,0.0,0.0,0.0,0.0,0.0,0.0,0.0,0.0,0.0,0.45,0.39,1.39,0.0,0.0,0.0
0.84,3.75,1.0,3.0,9.0,7.0,1.5,1.5,2.25,1.25,1.25,0.5,0.5,1.0,-0.11,0.08,0.95,437.56,9.7,36.6,0.0,0.0,0.0,0.0,0.0,0.0,0.0,0.0,0.0,0.0,0.0,0.0,0.0,0.39,0.52,1.58,0.0,0.0,0.0
0.86,3.75,1.0,3.0,10.0,7.5,1.5,1.75,1.25,1.0,1.25,0.25,0.0,1.0,-0.11,0.08,0.95,469.48,10.6,43.3,0.0,0.0,0.0,0.0,0.0,0.0,0.0,0.0,0.0,0.0,0.0,0.0,0.0,0.45,0.7,1.77,0.0,0.0,0.0
0.88,3.75,1.0,3.75,10.5,8.0,1.5,1.5,0.75,0.5,0.75,0.0,0.0,1.0,-0.11,0.08,0.95,496.12,11.8,49.1,0.0,0.0,0.0,0.0,0.0,0.0,0.0,0.0,0.0,0.0,0.0,0.0,0.0,0.64,0.77,1.89,0.0,0.0,0.0
0.9,4.0,1.0,4.75,11.5,8.0,1.5,1.75,0.75,0.5,0.5,0.0,0.0,1.0,-0.11,0.14,0.95,525.01,13.1,50.8,0.0,0.0,0.0,0.0,0.0,0.0,0.0,0.0,0.0,0.0,0.0,0.0,0.0,0.77,0.95,2.14,0.0,0.0,0.0
0.92,5.0,1.25,5.25,11.5,8.25,1.5,1.75,0.75,0.5,0.5,0.25,0.0,1.25,-0.11,0.14,0.95,565.46,13.7,50.6,0.0,0.0,0.0,0.0,0.0,0.0,0.0,0.0,0.0,0.0,0.0,0.0,0.0,0.89,1.64,2.2,0.0,0.0,0.0
0.94,5.5,1.5,5.5,12.5,8.75,1.25,1.75,0.5,0.25,0.5,0.0,0.0,1.0,-0.11,0.14,1.02,608.98,14.5,54.8,0.0,0.0,0.0,0.0,0.0,0.0,0.0,0.0,0.0,0.0,0.0,0.0,0.0,0.64,1.95,1.89,0.0,0.0,0.0
0.96,6.0,1.5,6.0,12.5,8.75,1.0,1.5,0.25,0.0,0.25,0.25,0.0,1.0,-0.17,0.14,1.02,642.42,15.6,56.7,0.0,0.0,0.5,0.0,1.0,0.0,0.25,0.75,0.0,0.0,0.0,0.0,0.0,-0.23,2.52,1.14,15.05,-2.8,26.5
0.98,6.25,2.5,0.0,13.0,8.75,0.75,1.25,0.0,0.0,0.5,0.0,0.0,1.0,-0.11,0.14,1.02,627.29,11.9,58.4,0.0,0.0,0.0,0.0,0.0,0.0,0.0,0.0,0.0,0.0,0.0,0.0,0.0,-1.48,3.14,0.83,13.98,0.0,0.0
1.0,6.75,2.5,6.75,13.5,8.75,0.25,1.5,0.0,0.0,0.25,0.0,0.0,0.75,-0.11,0.2,1.02,650.46,17.4,61.3,0.0,0.25,0.0,1.25,0.0,0.0,0.0,0.75,0.0,0.0,0.0,0.0,0.0,-1.8,4.52,0.52,26.55,-5.6,31.1
1.02,6.75,2.5,7.0,13.5,8.75,0.0,1.5,0.0,0.0,0.25,0.0,0.0,1.0,-0.11,0.2,1.02,665.1,17.5,60.4,0.0,0.0,0.0,0.0,0.0,0.0,0.0,0.0,0.0,0.0,0.0,0.0,0.0,-1.92,4.14,1.7,19.24,0.0,0.0
1.04,7.5,2.5,6.5,13.5,0.0,0.0,1.0,0.0,0.0,0.0,0.0,0.0,0.75,-0.17,0.27,1.08,617.18,24.6,66.1,0.0,0.0,0.0,0.0,1.0,0.0,0.0,0.75,0.0,0.75,0.0,1.0,1.5,-0.11,-0.86,0.58,44.98,7.7,-58.2
1.06,8.0,2.75,6.0,13.0,0.0,0.0,0.5,0.0,0.0,0.25,0.0,0.0,1.0,-0.17,0.27,1.14,561.26,23.9,64.8,0.0,0.0,0.0,0.75,0.0,0.0,0.0,0.75,0.0,3.5,1.25,4.5,6.5,1.02,-1.3,3.02,135.44,5.3,-89.9
1.08,8.25,2.75,7.5,12.5,7.75,0.0,0.0,0.0,0.25,0.25,0.0,0.0,1.0,-0.3,0.33,1.33,574.05,18.6,62.1,0.0,0.0,0.5,0.25,0.0,0.0,0.25,1.0,0.0,7.5,2.0,6.5,8.25,-0.73,1.14,3.08,254.01,5.4,-89.1
1.1,8.25,2.5,6.75,10.5,0.0,0.0,0.0,0.0,0.0,0.25,0.0,0.0,0.5,-0.48,0.45,1.64,518.87,25.7,68.7,0.0,0.25,0.5,0.25,1.25,1.5,0.25,3.75,0.5,8.75,6.75,6.75,9.0,0.64,-0.05,2.7,410.35,4.9,-72.6
1.12,8.25,1.25,5.5,8.0,5.25,0.0,0.0,0.0,0.0,0.25,0.0,0.0,0.5,-0.73,0.64,1.7,484.36,20.6,65.6,0.0,0.0,0.5,0.0,1.25,0.0,0.25,5.0,0.75,9.0,7.5,6.5,9.0,0.02,0.45,1.2,577.0,4.7,-77.0
1.14,7.25,0.75,3.0,6.0,0.0,0.0,0.0,0.0,0.0,0.25,0.0,0.0,0.75,-1.05,1.27,2.64,375.45,25.5,66.2,0.0,0.0,0.5,0.0,1.25,2.0,0.25,6.0,0.75,8.75,7.5,6.0,8.75,0.08,0.14,0.95,707.03,5.8,-70.4
1.16,5.25,0.0,1.25,2.75,0.0,0.0,0.0,0.0,0.0,0.25,0.0,0.0,0.5,-0.92,0.95,3.08,270.09,26.3,66.0,0.0,0.0,0.5,0.5,1.25,2.5,0.25,6.0,1.0,8.5,7.25,5.75,8.5,0.14,0.08,0.95,768.75,5.7,-66.9
1.18,0.0,0.0,1.25,2.5,0.0,0.0,0.0,0.0,0.0,0.25,0.0,0.0,0.5,-0.36,0.08,3.14,148.84,17.8,33.1,0.0,0.0,0.5,0.75,1.25,3.25,0.25,6.0,1.0,8.5,6.75,5.75,8.25,0.14,0.08,0.89,795.24,6.0,-64.1
1.2,0.5,0.0,1.25,0.75,0.0,0.0,0.0,0.0,0.0,0.0,0.0,0.0,1.0,-1.3,-0.55,2.52,49.69,18.2,15.8,0.5,0.0,0.5,0.75,1.25,3.75,0.25,6.0,1.0,8.5,6.75,5.5,8.25,0.14,0.08,0.95,798.24,5.8,-61.0
1.22,0.5,0.0,0.25,0.5,0.0,0.0,0.0,0.0,0.0,0.25,0.0,0.0,1.0,-1.36,-0.55,2.77,0.0,6.7,-15.9,0.0,0.25,0.5,1.0,1.5,3.75,0.25,6.0,0.75,8.0,6.25,5.25,8.0,0.08,0.08,0.95,784.25,6.2,-59.4
1.24,0.25,0.0,0.0,0.5,0.0,0.0,0.0,0.0,0.0,0.0,0.0,0.0,0.5,-1.42,-1.67,1.33,0.0,7.9,-2.6,0.5,0.25,0.75,1.0,1.5,4.25,0.25,6.0,1.0,7.5,5.75,4.25,7.75,0.14,0.08,0.95,749.04,6.0,-53.7
1.26,0.0,0.0,0.0,0.75,0.0,0.0,0.0,0.0,0.0,0.0,0.0,0.0,1.0,-0.8,-1.11,-0.11,0.0,-0.3,-37.2,0.5,0.5,0.75,0.5,2.5,4.25,0.25,6.0,1.0,7.25,4.75,3.75,7.0,0.14,0.08,0.95,693.5,6.5,-48.5
1.28,0.0,0.0,0.0,0.5,0.0,0.0,0.0,0.0,0.0,0.0,0.0,0.0,1.0,-0.61,-0.23,0.2,0.0,-3.2,-53.2,0.5,0.25,0.75,1.25,3.25,4.5,0.25,6.0,1.0,6.75,4.5,3.25,6.5,0.14,0.08,0.95,629.68,6.2,-42.5
1.3,0.0,0.0,0.0,0.5,0.0,0.0,0.0,0.0,0.0,0.0,0.0,0.0,1.0,-0.42,-0.36,0.08,0.0,-3.2,-53.2,1.0,0.25,0.75,2.0,4.5,5.0,0.5,5.75,1.0,6.5,4.25,2.75,6.25,0.14,0.08,0.95,577.61,5.4,-32.8
1.32,0.0,0.0,0.0,0.5,0.0,0.0,0.0,0.0,0.0,0.25,0.0,0.0,0.25,-0.48,-0.23,0.52,0.0,1.5,-16.3,1.25,0.25,1.75,1.75,5.25,5.5,0.75,6.0,1.25,6.5,4.25,2.5,5.75,0.14,0.08,0.95,556.23,4.3,-26.4
1.34,0.25,0.0,0.0,0.5,0.0,0.0,0.0,0.0,0.0,0.0,0.0,0.0,0.75,-0.61,-0.11,1.02,0.0,4.3,-20.6,2.0,0.25,2.25,3.0,5.25,6.0,1.0,5.75,1.5,5.75,4.0,2.5,5.25,0.14,0.08,0.95,561.53,2.2,-18.1
1.36,0.0,0.0,0.0,0.5,0.0,0.0,0.0,0.0,0.0,0.0,0.0,0.0,0.5,-0.61,0.33,1.02,0.0,1.8,-25.2,2.0,0.5,3.0,3.25,5.25,6.0,1.25,5.25,1.5,4.75,3.25,1.75,4.5,0.14,0.08,0.95,570.39,0.9,-9.5
1.38,0.5,0.0,0.0,0.5,0.0,0.0,0.0,0.0,0.0,0.25,0.0,0.0,0.5,-0.55,0.52,1.14,0.0,8.1,0.3,1.75,0.75,3.5,4.5,6.75,5.75,1.5,5.0,1.5,3.5,3.25,1.0,4.25,0.14,0.08,0.95,586.42,-0.4,0.2
1.4,0.75,0.0,0.0,0.5,0.0,0.0,0.0,0.0,0.0,0.0,0.0,0.0,1.0,-0.42,0.64,1.27,12.99,8.6,-6.3,2.25,0.5,3.75,5.75,7.0,6.25,1.75,5.0,1.25,3.25,2.5,1.0,3.5,0.14,0.08,0.95,603.4,-1.4,7.3
1.42,0.25,0.0,0.0,0.5,0.0,0.0,0.0,0.0,0.0,0.0,0.0,0.0,0.75,-0.3,0.7,1.39,22.25,4.3,-20.6,2.5,1.5,4.5,6.0,7.75,6.5,2.25,4.75,1.0,1.75,2.0,0.75,2.5,0.14,0.08,0.95,625.02,-3.4,20.1
1.44,0.25,0.0,0.25,0.5,0.0,0.0,0.0,0.0,0.0,0.0,0.0,0.0,1.0,-0.3,0.7,1.77,27.34,6.3,-21.6,2.25,0.75,5.75,8.0,8.25,6.75,2.5,3.75,1.0,1.75,2.0,0.5,2.5,0.14,0.08,0.95,657.31,-4.9,23.8
1.46,0.25,0.0,0.25,0.5,0.0,0.0,0.0,0.0,0.0,0.25,0.0,0.0,0.25,-0.23,0.7,1.95,27.89,12.8,14.2,3.0,1.5,5.75,9.25,8.5,6.75,2.5,3.75,1.0,1.25,1.5,0.25,2.0,0.14,0.08,0.95,699.54,-6.1,31.5
1.48,0.5,0.0,0.25,0.5,0.0,0.0,0.0,0.0,0.0,0.25,0.0,0.0,1.25,-0.23,0.77,2.2,34.07,4.9,-24.6,3.75,2.0,6.75,9.5,9.5,6.75,2.75,2.5,0.75,0.75,1.0,0.0,1.75,0.14,0.08,0.95,742.8,-8.0,40.4
1.5,0.0,0.0,0.0,0.5,0.0,0.0,0.0,0.0,0.0,0.0,0.0,0.0,1.0,-0.3,1.02,2.27,31.95,-3.2,-53.2,3.75,1.75,7.0,11.0,9.5,6.75,3.0,2.25,0.5,0.5,1.0,0.0,1.75,0.14,0.14,0.95,780.71,-8.8,42.1
1.52,0.5,0.0,0.0,0.5,0.0,0.0,0.0,0.0,0.0,0.25,0.0,0.0,1.25,-0.23,1.14,2.27,36.54,1.5,-33.3,4.5,2.0,7.75,12.0,10.0,6.75,3.0,2.25,0.25,0.0,0.5,0.0,1.75,0.14,0.14,0.95,822.96,-9.8,46.5
1.54,0.25,0.0,0.0,0.5,0.0,0.0,0.0,0.0,0.0,0.0,0.0,0.0,1.0,-0.11,1.39,1.95,34.2,1.7,-33.5,5.25,2.0,8.0,12.5,11.0,7.0,3.0,2.0,0.25,0.0,0.75,0.0,1.5,0.08,0.14,0.95,871.48,-10.2,48.1
1.56,0.25,0.0,0.0,0.5,0.0,0.0,0.0,0.0,0.0,0.25,0.0,0.0,0.75,-0.05,1.7,1.33,33.16,1.5,-28.4,5.75,2.5,8.75,13.0,11.0,6.75,3.0,1.0,0.25,0.0,0.0,0.0,1.5,0.08,0.14,0.95,914.14,-11.5,52.6
1.58,0.25,0.0,0.0,0.5,0.0,0.0,0.0,0.0,0.0,0.0,0.0,0.0,0.5,0.2,2.27,1.14,27.39,7.9,-2.6,6.75,2.75,8.75,14.5,11.0,6.0,3.0,0.75,0.25,0.0,0.0,0.0,1.0,0.08,0.14,1.02,956.47,-12.9,55.9
1.6,0.5,0.0,0.0,0.5,0.0,0.0,0.0,0.0,0.0,0.0,0.0,0.0,0.75,1.27,3.83,0.52,26.73,8.3,-4.9,7.5,3.0,9.0,14.5,11.0,6.25,2.5,0.75,0.25,0.0,0.0,0.0,1.0,0.08,0.2,1.02,994.47,-13.0,56.7
1.62,0.5,0.0,0.0,0.5,0.0,0.0,0.0,0.0,0.0,0.0,0.0,0.0,0.5,1.2,3.77,0.08,24.29,12.1,12.9,7.5,3.25,9.5,14.5,11.0,6.0,2.5,0.75,0.25,0.0,0.25,0.0,0.0,0.08,0.2,1.02,1015.59,-13.9,59.5
1.64,0.25,0.0,0.0,0.5,0.0,0.0,0.0,0.0,0.0,0.25,0.0,0.0,1.0,1.27,0.83,0.77,26.71,-0.4,-38.7,8.5,3.5,9.5,14.5,11.0,4.75,2.25,0.75,0.25,0.0,0.25,0.0,0.0,0.08,0.27,1.08,1024.85,-15.0,60.9
1.66,0.75,0.0,0.0,0.5,0.0,0.0,0.0,0.0,0.0,0.25,0.0,0.0,0.5,-1.61,1.58,0.83,29.26,11.3,11.7,9.0,4.25,9.5,14.5,10.5,3.25,1.5,0.75,0.25,0.0,0.5,0.0,0.0,0.14,0.33,1.2,1018.91,-16.1,62.1
1.68,0.25,0.0,0.0,0.5,0.0,0.0,0.0,0.0,0.0,1.0,0.0,0.5,1.0,0.14,0.83,0.45,38.68,-2.5,-57.8,9.0,3.5,9.25,14.0,9.5,1.0,1.25,0.75,0.25,0.0,0.25,0.0,0.75,0.14,0.33,1.14,970.17,-17.7,61.1
1.7,0.0,0.0,0.0,0.0,0.0,0.0,0.0,0.0,0.0,2.25,0.0,3.0,3.5,0.33,-1.23,3.14,82.86,-6.5,-101.1,9.0,3.5,8.75,12.5,8.25,0.0,1.25,0.75,0.0,0.0,0.25,0.0,0.75,0.14,0.39,1.2,886.97,-19.0,62.6
1.72,0.0,0.0,0.0,0.25,0.0,0.0,0.0,0.0,0.0,5.5,2.25,6.25,7.25,0.27,0.7,1.64,188.76,-4.8,-95.6,8.5,2.5,8.0,9.5,6.5,0.0,1.25,0.75,0.25,0.0,0.0,0.0,0.75,0.2,0.52,1.52,758.43,-19.9,62.3
1.74,0.0,0.0,0.0,0.5,0.0,0.0,0.0,0.75,0.0,6.5,0.0,6.75,8.25,-0.61,0.14,1.83,275.8,-7.0,-94.0,6.75,0.0,3.75,3.25,1.75,0.0,0.5,0.75,0.0,0.0,0.25,0.0,0.25,0.89,1.27,1.95,511.85,-24.2,63.7
1.76,0.0,0.0,0.0,0.5,0.0,0.0,0.0,1.25,0.25,7.5,5.75,6.75,8.25,0.08,0.08,1.45,382.42,-4.0,-88.6,5.0,0.0,0.5,0.75,0.0,0.0,0.25,0.0,0.0,0.0,0.0,0.0,0.0,0.45,1.33,3.02,286.38,-32.9,88.2
1.78,0.0,0.0,0.0,0.0,0.0,0.0,0.0,4.25,0.75,7.5,6.25,6.25,7.75,-0.55,0.33,1.33,484.35,-5.1,-84.8,2.5,0.0,0.0,1.0,0.0,0.0,0.0,0.0,0.25,0.0,0.0,0.0,0.0,0.08,0.45,2.33,116.81,-28.3,77.0
1.8,0.0,0.0,0.0,0.5,0.0,0.0,0.0,5.0,0.75,7.5,6.5,6.25,7.75,-0.05,0.14,1.14,568.19,-4.9,-81.5,1.5,0.0,0.75,0.0,1.25,0.0,0.25,0.75,0.0,0.0,0.25,0.0,0.0,0.7,0.33,2.33,0.0,-14.3,45.9
1.82,0.0,0.0,0.0,0.25,0.0,0.0,0.0,5.5,1.25,7.5,6.0,5.5,7.5,-0.17,0.08,0.95,605.74,-5.5,-80.6,0.0,0.0,0.75,1.0,1.25,0.0,0.25,0.75,0.25,0.0,0.0,0.0,0.0,1.33,-0.73,1.95,0.0,-8.4,34.1
1.84,0.0,0.0,0.0,0.5,1.25,0.25,0.0,5.75,1.5,7.0,6.0,5.0,7.0,-0.17,0.08,0.95,624.76,-5.2,-71.7,0.0,0.0,0.25,0.75,0.0,0.0,0.0,0.0,0.25,0.0,0.0,0.0,0.0,1.2,-0.23,2.02,0.0,-20.4,40.0
1.86,0.0,0.0,0.0,0.5,1.25,0.75,0.0,5.75,0.75,6.5,5.5,4.0,6.5,-0.17,0.08,0.95,604.33,-6.3,-69.0,0.0,0.0,1.75,0.0,0.0,0.0,0.0,0.0,0.0,0.0,0.0,0.0,0.0,0.58,-2.05,0.02,0.0,-38.3,61.0
1.88,0.0,0.0,0.0,0.0,3.25,1.0,0.0,5.75,1.5,6.0,4.75,3.25,5.75,-0.11,0.08,0.95,570.58,-6.6,-58.4,0.0,0.0,0.5,0.0,0.0,0.0,0.0,0.0,0.0,0.0,0.0,0.0,0.0,0.52,-0.36,0.77,0.0,-38.2,60.9
1.9,0.0,0.0,0.0,2.0,4.5,1.5,0.0,5.75,1.5,5.0,4.0,2.0,5.0,-0.11,0.08,0.95,526.41,-5.6,-40.2,0.0,0.0,0.5,1.0,0.0,0.0,0.25,0.75,0.25,0.0,0.0,0.0,0.5,0.08,-0.36,0.27,0.0,-7.8,0.0
1.92,0.0,0.0,0.0,1.5,5.25,2.0,0.0,5.25,1.5,4.5,2.5,1.25,3.75,-0.17,0.08,0.95,461.28,-6.8,-30.5,0.0,0.25,1.0,0.5,0.5,0.0,0.5,0.75,0.25,0.0,0.0,0.0,0.75,0.39,-0.3,0.33,0.0,-8.4,7.4
1.94,0.0,0.0,0.0,3.25,5.5,2.25,0.0,5.0,1.5,3.0,2.25,1.0,3.0,-0.11,0.08,0.95,400.05,-4.8,-17.3,0.0,0.0,0.75,1.0,1.25,0.0,0.25,0.75,0.0,0.0,0.0,0.0,0.75,0.64,-0.3,0.52,0.0,-4.7,15.1
1.96,0.5,0.5,0.0,4.5,6.0,2.75,0.0,4.75,1.0,2.0,1.5,1.0,2.25,-0.17,0.08,0.95,363.77,-3.0,-0.6,0.0,0.0,1.0,1.0,1.0,0.0,0.25,0.75,0.0,0.0,0.0,0.0,0.75,0.52,-0.17,0.83,20.05,-7.0,15.3
1.98,0.0,1.0,1.25,6.5,6.75,2.75,0.0,4.25,1.0,1.25,1.25,0.75,1.75,-0.11,0.08,0.95,360.6,0.3,13.8,0.0,0.75,1.25,1.25,1.25,0.0,0.25,0.75,0.25,0.0,0.0,0.0,0.75,0.45,0.08,1.02,72.25,-9.0,28.0
2.0,0.0,1.0,1.25,8.0,7.5,3.5,0.0,4.25,0.5,1.25,0.5,0.5,1.5,-0.11,0.08,0.95,371.09,0.1,22.5,0.0,0.25,1.5,0.25,1.25,0.0,0.25,0.75,0.25,0.0,0.0,0.0,0.75,0.64,0.27,1.02,90.25,-8.4,17.0
2.02,0.75,0.75,0.0,8.0,8.0,3.5,0.25,3.5,0.5,1.25,0.5,0.75,1.25,-0.11,0.08,0.95,385.78,0.0,24.1,0.0,0.0,1.0,1.0,1.0,0.0,0.25,0.75,0.25,0.0,0.0,0.0,0.75,0.89,0.45,1.2,94.39,-7.2,12.7
2.04,1.0,0.0,1.25,9.0,8.0,3.5,0.25,2.5,0.5,1.25,0.25,0.5,1.25,-0.11,0.14,0.95,399.44,2.4,29.4,0.0,0.0,1.0,0.5,1.25,0.0,0.25,0.75,0.25,0.0,0.0,0.0,0.75,0.95,0.58,1.52,91.01,-5.6,10.3
2.06,2.25,1.0,1.25,9.25,8.25,3.5,0.0,2.0,0.25,0.75,0.0,0.0,1.25,-0.11,0.14,0.95,416.69,4.3,41.1,0.0,0.5,1.25,0.75,1.25,0.0,0.25,0.75,0.25,0.0,0.0,0.0,0.75,0.83,0.7,1.95,95.64,-8.1,22.3
2.08,2.75,1.25,1.5,10.5,8.75,3.5,0.0,0.75,0.0,1.0,0.0,0.25,1.0,-0.17,0.14,1.02,442.61,6.2,46.2,0.0,0.0,1.0,0.5,1.25,0.0,0.25,0.75,0.25,0.0,0.0,0.0,0.75,1.14,1.02,2.02,93.49,-5.6,10.3
2.1,3.0,1.5,2.0,10.5,8.75,3.5,0.0,0.75,0.0,0.75,0.0,0.0,1.0,-0.17,0.14,1.08,470.97,7.1,49.3,0.0,0.0,0.75,1.0,1.25,0.0,0.25,0.75,0.0,0.0,0.0,0.0,0.75,0.89,1.33,2.45,90.69,-4.7,15.1
2.12,0.0,0.75,1.75,11.0,8.75,2.75,0.0,0.75,0.0,0.5,0.0,0.0,1.0,-0.17,0.14,1.14,465.56,5.1,44.8,0.0,0.0,0.75,0.0,1.25,0.0,0.25,0.75,0.0,0.0,0.0,0.0,0.75,0.58,1.7,2.08,80.48,-1.4,3.5
2.14,0.0,2.0,0.0,11.0,8.75,1.75,0.0,0.5,0.0,0.25,0.0,0.0,1.0,-0.17,0.14,1.08,442.78,4.6,48.5,0.0,0.25,0.5,1.0,0.0,0.0,0.25,0.75,0.25,0.0,0.0,0.0,0.75,0.02,1.7,1.64,68.67,-6.6,-0.6
2.16,5.25,2.25,1.0,11.0,0.0,0.25,0.0,0.0,0.0,0.25,0.0,0.0,1.0,-0.17,0.2,1.02,386.22,19.4,61.7,0.0,0.25,0.75,0.25,1.25,0.0,0.25,0.75,0.0,0.0,0.0,0.0,0.75,-0.48,2.39,1.27,63.4,-3.0,12.4
2.18,5.75,1.5,1.0,10.5,0.0,0.0,0.0,0.0,0.0,0.25,0.0,0.0,0.75,-0.17,0.27,1.08,336.4,21.1,63.8,0.0,0.0,0.5,1.0,1.25,0.0,0.25,0.75,0.0,0.0,0.0,0.0,0.75,1.33,0.08,1.95,64.33,-2.9,12.6
2.2,6.75,2.25,0.0,10.5,8.0,0.0,0.0,0.0,0.0,0.25,0.0,0.0,1.0,-0.23,0.33,1.14,346.68,12.9,61.2,0.0,0.25,0.5,0.75,1.0,0.0,0.0,0.75,0.0,0.0,0.0,0.0,0.75,-0.36,1.83,-0.55,64.82,-2.2,11.9
2.22,7.25,1.25,0.0,10.0,6.75,0.0,0.0,0.0,0.0,0.25,0.0,0.0,1.0,-0.23,0.33,1.27,358.82,14.0,60.9,0.0,0.25,0.5,0.75,1.0,0.0,0.25,0.75,0.25,0.0,0.0,0.0,0.75,0.08,2.58,-1.67,66.64,-3.5,9.6
2.24,0.0,1.25,0.0,8.25,5.75,0.0,0.0,0.0,0.0,0.25,0.0,0.0,1.0,-0.36,0.45,1.27,328.92,6.9,47.6,0.0,0.25,0.75,0.0,1.25,0.0,0.25,0.75,0.0,0.0,1.0,1.0,1.0,-1.11,1.95,-0.55,76.74,-3.8,-27.0
2.26,7.75,1.0,0.0,7.0,4.25,0.0,0.0,0.0,0.0,0.25,0.0,0.0,1.0,-0.36,0.52,1.33,311.61,16.4,62.6,0.0,0.0,0.0,1.0,0.0,0.0,0.0,0.0,0.0,0.0,0.5,2.0,1.5,0.45,0.02,2.58,81.53,-3.9,-71.8
2.28,7.0,0.75,0.0,4.5,3.25,0.0,0.0,0.0,0.0,0.25,0.0,0.0,0.0,-0.17,0.77,1.83,272.29,18.9,73.0,0.0,0.0,0.0,0.0,0.0,2.0,0.0,0.75,0.25,1.75,4.0,2.5,3.5,0.83,0.7,3.08,136.99,4.5,-73.1
2.3,6.5,0.0,0.0,3.0,0.0,0.0,0.0,0.0,0.0,0.25,0.0,0.0,0.75,-0.17,0.64,1.77,218.61,24.6,65.6,0.0,0.0,0.75,1.0,1.25,0.5,0.25,0.75,0.25,0.25,3.25,1.25,2.25,0.27,0.39,1.08,164.06,-3.0,-40.7
2.32,4.0,0.0,0.0,2.5,0.0,0.0,0.0,0.0,0.0,0.25,0.0,0.0,0.75,-0.11,0.52,1.2,154.89,21.8,56.0,0.5,0.25,0.75,0.5,1.25,0.0,0.25,0.75,0.25,0.75,2.25,1.0,1.75,-0.11,0.02,0.95,180.85,-4.2,-32.7
2.34,4.0,0.0,0.0,2.25,0.0,0.0,0.0,0.0,0.0,0.25,0.0,0.0,0.0,-0.17,0.27,1.02,107.02,26.3,76.1,0.0,0.5,0.75,1.0,1.5,1.25,0.25,0.75,1.0,2.25,3.25,2.5,2.0,0.14,-0.05,0.83,207.9,-1.0,-39.8
2.36,2.75,0.0,0.0,2.25,0.0,0.0,0.0,0.0,0.0,0.25,0.0,0.0,0.75,-0.67,0.58,0.89,69.52,19.4,47.7,0.0,0.0,0.75,1.5,1.75,2.75,0.25,2.25,1.25,3.0,5.75,2.75,2.75,0.27,0.27,0.95,261.5,1.2,-42.7
2.38,3.0,0.0,0.0,1.0,0.0,0.0,0.0,0.0,0.0,0.25,0.0,0.0,0.0,-0.98,0.45,0.89,39.69,27.3,77.0,0.0,0.25,2.0,1.75,3.5,3.5,0.25,2.25,1.5,1.75,5.75,2.5,2.5,0.02,0.02,0.95,312.62,-1.0,-23.8
2.4,1.5,0.0,0.0,1.0,0.0,0.0,0.0,0.0,0.0,0.0,0.0,0.0,0.0,-1.48,0.52,-0.73,15.14,27.3,80.7,1.0,0.25,2.25,3.25,5.25,4.0,0.25,2.25,1.5,1.5,4.75,1.0,1.75,0.08,0.14,0.95,375.44,-2.4,0.0
2.42,0.25,0.0,0.0,0.5,0.0,0.0,0.0,0.0,0.0,0.0,0.0,0.0,0.5,-1.67,0.39,-0.23,0.0,7.9,-2.6,2.0,0.75,3.75,4.5,5.25,4.25,0.25,2.0,1.5,0.5,4.25,1.0,1.5,0.14,0.08,0.95,439.09,-6.3,14.7
2.44,0.0,0.0,0.0,0.0,0.0,0.0,0.0,0.0,0.0,0.0,0.0,0.0,0.0,-0.73,1.45,-0.11,0.0,0.0,0.0,3.75,1.0,5.75,5.75,6.0,4.25,0.25,1.0,1.5,0.0,3.25,0.5,1.0,0.02,0.08,0.95,503.47,-10.9,33.5
2.46,0.5,0.0,0.0,0.75,0.0,0.0,0.0,0.0,0.0,0.0,0.0,0.0,0.5,-0.55,-0.17,0.7,0.0,12.9,19.6,3.75,1.5,5.75,6.0,7.0,4.25,0.5,0.75,1.25,0.0,2.5,0.0,1.0,0.08,0.08,0.95,550.84,-10.8,40.6
2.48,0.0,0.0,0.0,0.5,0.0,0.0,0.0,0.0,0.0,0.0,0.0,0.0,0.5,-0.42,0.58,-0.17,0.0,1.8,-25.2,5.25,1.75,6.0,6.0,7.0,4.5,0.25,0.75,1.0,0.0,2.0,0.0,0.75,0.14,0.14,0.95,591.09,-11.8,46.6
2.5,0.0,0.0,0.0,0.5,0.0,0.0,0.0,0.0,0.0,0.0,0.0,0.0,1.0,-0.11,1.52,-0.55,0.0,-3.2,-53.2,5.75,2.0,6.5,6.25,7.0,4.25,0.25,0.75,0.75,0.0,2.0,0.0,0.75,-0.05,0.02,1.08,618.6,-12.7,48.5
2.52,0.0,0.0,0.0,0.25,0.0,0.0,0.0,0.0,0.0,0.0,0.0,0.0,1.0,0.39,2.02,-0.67,0.0,-7.4,-75.8,5.75,2.0,7.0,6.5,7.75,4.0,0.25,0.75,0.25,0.0,1.25,0.0,0.75,0.14,0.14,1.14,630.9,-13.0,52.5
2.54,0.0,0.0,0.0,0.25,0.0,0.0,0.0,0.0,0.0,0.0,0.0,0.0,1.0,1.27,2.2,-0.67,0.97,-7.4,-75.8,6.0,1.75,6.25,6.0,7.75,0.0,0.25,0.5,0.25,0.0,1.0,0.0,0.75,0.08,0.08,1.45,604.26,-17.0,56.1
2.56,0.0,0.0,0.0,0.5,0.0,0.0,0.0,0.0,0.0,0.0,0.0,0.0,1.0,1.2,2.77,-1.42,7.48,-3.2,-53.2,5.75,1.75,5.5,5.5,7.0,2.0,0.25,0.75,0.25,0.0,0.75,0.0,0.75,0.08,0.14,1.39,562.59,-14.3,54.6
2.58,0.0,0.0,0.0,0.5,0.0,0.0,0.0,0.0,0.0,0.0,0.0,0.0,1.0,0.7,2.58,-1.17,12.76,-3.2,-53.2,4.5,1.0,3.0,3.5,5.5,1.75,0.25,0.75,0.25,0.0,0.0,0.0,0.75,-0.55,-0.23,1.95,454.95,-12.1,54.3
2.6,0.25,0.0,0.0,0.5,0.0,0.0,0.0,0.0,0.0,0.0,0.0,0.0,1.0,0.95,1.2,-0.23,18.7,1.7,-33.5,1.25,0.0,0.0,0.5,2.5,0.0,0.0,0.0,0.0,0.0,0.0,0.0,0.0,-1.17,-1.05,1.45,293.26,-8.7,65.3
2.62,0.0,0.0,0.0,0.5,0.0,0.0,0.0,0.0,0.0,0.25,0.0,0.0,1.0,0.83,0.45,1.89,24.8,-5.0,-56.3,0.0,0.0,0.0,0.0,0.5,0.0,0.0,0.0,0.0,0.0,0.0,0.0,0.0,0.2,-2.73,0.77,155.85,3.3,53.4
2.64,0.0,0.0,0.0,0.5,0.0,0.0,0.0,0.0,0.0,0.0,0.0,0.0,1.0,0.08,-1.36,0.45,28.01,-3.2,-53.2,0.0,0.0,0.0,0.0,0.0,0.5,0.0,0.0,0.25,0.0,0.0,0.0,0.0,-0.11,-3.17,1.58,21.62,10.8,9.1
2.66,0.0,0.0,0.0,0.5,0.0,0.0,0.0,0.0,0.0,0.0,0.0,0.0,1.0,0.02,-1.42,-0.36,29.05,-3.2,-53.2,0.0,0.0,0.5,0.75,1.25,0.0,0.0,0.0,0.25,0.0,1.0,0.0,0.75,0.95,-1.11,0.89,0.0,-6.6,-2.7
2.68,0.0,0.0,0.0,0.5,0.0,0.0,0.0,0.0,0.0,0.25,0.0,0.0,1.0,-1.23,-1.11,-1.61,29.8,-5.0,-56.3,0.0,0.0,0.5,0.5,1.25,0.0,0.25,0.75,0.25,0.0,1.0,0.0,0.0,-1.3,-0.05,1.33,0.0,-6.2,6.7
2.7,0.0,0.0,0.0,0.5,0.0,0.0,0.0,0.0,0.0,0.0,0.0,0.0,1.0,-3.67,0.64,-1.55,27.83,-3.2,-53.2,0.0,0.0,0.5,1.25,1.25,0.0,0.25,0.75,0.0,0.0,1.0,0.0,0.5,-1.55,1.64,1.89,0.0,-5.7,5.2
2.72,0.0,0.0,0.0,0.5,0.0,0.0,0.0,0.0,0.0,0.0,0.0,0.0,1.0,-1.42,0.33,-0.8,27.77,-3.2,-53.2,0.0,0.0,0.5,1.25,1.25,0.0,0.25,0.75,0.25,0.0,1.0,0.0,0.0,-1.36,1.7,1.89,0.0,-7.8,14.2
2.74,0.0,0.0,0.0,0.0,0.0,0.0,0.0,0.0,0.0,0.25,0.0,0.0,1.0,0.33,-0.55,-0.05,26.03,-14.0,-103.1,0.0,0.0,0.5,0.5,1.25,0.0,0.0,0.75,0.25,0.0,0.75,0.0,0.5,-0.3,0.89,1.45,0.0,-3.2,-2.2
2.76,0.0,0.0,0.0,0.25,0.0,0.0,0.0,0.0,0.0,0.0,0.0,0.0,1.0,-0.05,-0.42,-0.3,24.71,-7.4,-75.8,0.0,0.25,0.5,1.0,1.25,0.0,0.25,0.75,0.25,0.0,0.25,0.0,0.75,0.14,0.7,0.77,0.0,-4.1,10.4
2.78,0.0,0.0,0.0,0.25,0.0,0.0,0.0,0.0,0.0,0.0,0.0,0.0,1.0,-0.67,-0.61,-0.48,23.19,-7.4,-75.8,0.0,0.0,0.5,1.0,1.25,0.0,0.25,0.75,0.0,0.0,0.0,0.0,0.75,0.64,0.33,1.33,19.5,-2.9,12.6
2.8,0.25,0.25,0.0,0.5,0.0,0.0,0.0,0.0,0.0,0.0,0.0,0.0,1.0,-1.05,-0.17,-0.55,25.54,3.0,-16.8,0.0,0.0,0.5,0.5,1.25,0.0,0.0,0.0,0.0,0.0,0.0,0.0,0.0,0.7,0.39,1.39,28.74,-9.6,55.9
2.82,0.0,0.0,0.0,0.25,0.0,0.0,0.0,0.0,0.0,0.25,0.0,0.0,1.0,-0.86,0.39,-0.61,26.43,-8.7,-75.7,0.0,0.0,0.5,0.75,1.25,0.0,0.25,0.5,0.0,0.0,0.0,0.0,0.25,-0.05,0.77,1.14,47.56,-5.6,30.3
2.84,0.25,0.0,0.0,0.25,0.0,0.0,0.0,0.0,0.0,0.0,0.0,0.0,1.0,-0.73,0.45,-0.67,26.63,-0.9,-49.2,0.0,0.0,0.5,0.25,1.25,0.0,0.0,0.75,0.25,0.0,0.0,0.0,0.5,-0.48,1.14,0.52,61.56,-0.7,7.7
2.86,0.5,0.0,0.0,0.25,0.0,0.0,0.0,0.0,0.0,0.0,0.0,0.0,1.0,-0.73,0.2,-0.42,26.71,3.8,-29.7,0.0,0.0,0.0,0.75,0.0,0.0,0.0,0.0,0.25,0.0,0.0,0.0,0.0,-0.98,0.83,0.77,47.77,-16.0,34.8
2.88,0.5,0.0,0.0,0.5,0.0,0.0,0.0,0.0,0.0,0.0,0.0,0.0,1.0,-1.11,0.2,-0.23,28.49,5.5,-18.3,0.0,0.0,0.5,0.75,1.25,0.0,0.25,0.75,0.25,0.0,0.0,0.0,0.75,-1.36,0.2,0.64,50.25,-2.6,7.3
2.9,0.0,0.0,0.0,0.0,0.0,0.0,0.0,0.0,0.0,0.25,0.0,0.0,1.0,-1.86,-0.23,0.2,27.26,-14.0,-103.1,0.0,0.0,0.5,1.0,1.25,0.0,0.25,0.75,0.25,0.0,0.0,0.0,0.0,-1.17,-0.23,0.64,51.26,-6.6,32.5
2.92,0.75,0.0,0.0,0.5,0.0,0.0,0.0,0.0,0.0,0.0,0.0,0.0,1.0,-2.48,-0.36,0.33,30.43,8.6,-6.3,0.0,0.0,0.5,0.5,1.25,0.0,0.25,0.75,0.0,0.0,0.0,0.0,0.75,-0.92,-0.8,0.77,58.48,-1.1,6.9
2.94,0.0,0.0,0.0,0.5,0.0,0.0,0.0,0.0,0.0,0.0,0.0,0.0,1.0,-1.55,-0.3,0.08,29.66,-3.2,-53.2,0.0,0.0,0.5,1.0,1.25,0.0,0.25,0.5,0.25,0.0,0.25,0.0,0.5,-0.86,-0.92,0.77,63.77,-5.8,14.9
2.96,0.0,0.0,0.0,0.0,0.0,0.0,0.0,0.0,0.0,0.25,0.0,0.0,1.0,-0.42,0.08,-0.05,28.48,-14.0,-103.1,0.25,0.0,0.5,0.5,1.25,0.0,0.0,0.75,0.0,0.0,0.0,0.0,0.0,-0.61,-0.8,0.83,64.74,-5.6,38.3
2.98,0.0,0.0,0.0,0.5,0.0,0.0,0.0,0.0,0.0,0.25,0.0,0.0,1.0,0.52,0.33,0.08,28.21,-5.0,-56.3,0.0,0.25,0.5,0.5,1.25,0.0,0.25,0.75,0.0,0.0,0.0,0.0,0.75,-0.42,-0.8,0.7,66.67,-1.8,12.3
3.0,0.5,0.0,0.0,0.5,0.0,0.0,0.0,0.0,0.0,0.0,0.0,0.0,1.0,0.14,0.83,-0.3,29.43,5.5,-18.3,0.0,0.0,0.5,1.25,1.25,0.0,0.0,0.75,0.0,0.0,0.0,0.0,0.25,-0.42,-0.73,0.64,67.5,-4.9,29.7
3.02,0.5,0.0,0.0,0.5,0.0,0.0,0.0,0.0,0.0,0.0,0.0,0.0,1.0,-0.48,1.02,-0.61,30.44,5.5,-18.3,0.0,0.25,0.5,0.75,1.0,0.0,0.25,0.75,0.0,0.0,0.0,0.0,0.0,-0.61,-0.73,0.58,68.19,-6.6,38.6
3.04,0.5,0.0,0.0,0.75,0.0,0.0,0.0,0.0,0.0,0.0,0.0,0.0,1.0,-1.17,1.83,-0.92,32.85,6.9,-9.6,0.0,0.0,0.5,0.75,1.25,0.0,0.25,0.75,0.25,0.0,0.0,0.0,0.25,-0.8,-0.8,0.83,69.11,-4.6,22.0
3.06,0.5,0.0,0.0,0.5,0.0,0.0,0.0,0.0,0.0,0.0,0.0,0.0,1.0,-1.86,1.77,-2.17,33.73,5.5,-18.3,0.0,0.0,0.5,0.75,1.0,0.0,0.25,0.75,0.0,0.0,0.0,0.0,0.5,-0.48,-0.61,0.58,66.57,-3.5,14.7
3.08,0.5,0.0,0.0,0.0,0.0,0.0,0.0,0.0,0.0,0.0,0.0,0.0,1.0,-1.36,0.89,-0.92,31.04,1.4,-45.0,0.0,0.0,0.5,0.0,1.25,0.0,0.25,0.75,0.0,0.0,0.0,0.0,0.5,-0.73,-0.48,0.7,62.66,0.2,7.9
3.1,0.0,0.0,0.0,0.25,0.0,0.0,0.0,0.0,0.0,0.0,0.0,0.0,1.0,-0.8,0.39,-0.55,27.27,-7.4,-75.8,0.0,0.0,0.5,0.75,1.25,0.0,0.25,0.5,0.25,0.0,0.0,0.0,0.75,-0.61,-0.36,0.7,64.23,-3.7,10.0
3.12,0.25,0.0,0.0,0.25,0.0,0.0,0.0,0.0,0.0,0.0,0.0,0.0,1.0,-0.61,-0.3,-0.3,25.03,-0.9,-49.2,0.5,0.25,0.5,0.5,1.25,0.0,0.0,0.75,0.0,0.0,0.0,0.0,0.75,-0.42,-0.17,0.58,66.21,-4.3,20.3
3.14,0.0,0.0,0.0,0.25,0.0,0.0,0.0,0.0,0.0,0.0,0.0,0.0,1.0,-0.73,-0.48,-0.17,23.28,-7.4,-75.8,0.0,0.0,0.5,1.0,1.25,0.0,0.25,0.75,0.0,0.0,0.0,0.0,0.75,-0.36,-0.17,0.45,71.14,-2.9,12.6
3.16,0.0,0.0,0.0,0.25,0.0,0.0,0.0,0.0,0.0,0.0,0.0,0.0,1.0,-0.67,-0.42,-0.11,22.1,-7.4,-75.8,0.5,0.0,0.5,0.75,1.0,0.0,0.25,0.75,0.0,0.0,0.0,0.0,0.75,-0.48,-0.23,0.52,73.88,-5.7,16.1
3.18,0.0,0.0,0.0,0.0,0.0,0.0,0.0,0.0,0.0,0.0,0.0,0.0,1.0,-0.48,-0.3,0.14,21.0,-13.7,-109.8,0.0,0.0,0.5,0.5,1.25,0.0,0.25,0.75,0.0,0.0,0.0,0.0,0.75,-0.61,-0.23,0.52,72.42,-1.1,6.9
3.2,0.25,0.0,0.0,0.25,0.0,0.0,0.0,0.0,0.0,0.0,0.0,0.0,1.0,-0.3,-0.36,0.14,21.35,-0.9,-49.2,0.0,0.0,0.5,0.25,1.0,0.0,0.25,0.75,0.0,0.0,0.0,0.0,0.75,-0.55,-0.23,0.39,67.15,-0.3,-0.5
3.22,0.0,0.0,0.0,0.25,0.0,0.0,0.0,0.0,0.0,0.0,0.0,0.0,1.0,-0.42,-0.3,0.08,20.71,-7.4,-75.8,0.0,0.0,0.5,0.5,1.25,0.0,0.25,0.75,0.0,0.0,0.0,0.0,0.75,-0.48,-0.42,0.27,64.32,-1.1,6.9
3.24,0.0,0.0,0.0,0.0,0.0,0.0,0.0,0.0,0.0,0.0,0.0,0.0,1.0,-1.05,-0.05,-0.42,20.07,-13.7,-109.8,0.0,0.25,0.5,0.5,1.25,0.0,0.0,0.75,0.0,0.0,0.0,0.0,0.75,-0.55,-0.61,0.39,64.78,-0.9,11.9
3.26,0.25,0.0,0.0,0.5,0.0,0.0,0.0,0.0,0.0,0.0,0.0,0.0,1.0,-1.55,0.33,-0.48,22.08,1.7,-33.5,0.0,0.0,0.5,0.5,1.0,0.0,0.0,0.5,0.0,0.0,0.0,0.0,0.75,-0.61,-0.92,0.45,62.31,-1.7,5.6
3.28,0.25,0.0,0.0,0.0,0.0,0.0,0.0,0.0,0.0,0.0,0.0,0.0,1.0,-1.42,0.39,-0.48,22.07,-4.6,-71.4,0.0,0.0,0.5,0.25,1.0,0.0,0.0,0.75,0.0,0.0,0.0,0.0,0.75,-0.42,-1.17,0.64,58.86,0.8,-1.5
3.3,0.5,0.0,0.0,0.0,0.0,0.0,0.0,0.0,0.0,0.0,0.0,0.0,1.0,-1.17,0.39,-0.61,23.45,1.4,-45.0,0.0,0.0,0.5,0.5,0.5,0.0,0.25,0.75,0.0,0.0,0.0,0.0,0.75,0.02,-1.17,0.83,54.53,-2.3,-5.5
3.32,0.25,0.0,0.0,0.25,0.0,0.0,0.0,0.0,0.0,0.0,0.0,0.0,1.0,-1.05,0.2,-0.55,24.15,-0.9,-49.2,0.5,0.0,0.5,1.0,1.0,0.0,0.0,0.5,0.0,0.0,0.0,0.0,0.75,0.27,-1.17,0.83,58.4,-7.0,21.4
3.34,0.0,0.0,0.0,0.25,0.0,0.0,0.0,0.0,0.0,0.0,0.0,0.0,1.0,-0.92,-0.17,-0.3,24.12,-7.4,-75.8,0.0,0.0,0.5,0.5,1.25,0.0,0.25,0.75,0.0,0.0,0.0,0.0,0.5,0.14,-1.11,0.7,58.66,-2.1,14.6
3.36,0.0,0.0,0.0,0.0,0.0,0.0,0.0,0.0,0.0,0.0,0.0,0.0,1.0,-0.73,-0.23,-0.05,22.4,-13.7,-109.8,0.0,0.0,0.5,0.25,0.25,0.0,0.0,0.75,0.0,0.0,0.0,0.0,0.75,0.02,-0.92,0.64,53.55,0.0,-20.0
3.38,0.0,0.0,0.0,0.25,0.0,0.0,0.0,0.0,0.0,0.0,0.0,0.0,1.0,-0.67,-0.3,-0.05,22.22,-7.4,-75.8,0.0,0.0,0.5,0.5,1.25,0.0,0.25,0.5,0.0,0.0,0.0,0.0,0.75,0.02,-0.67,0.58,54.51,-2.2,9.8
3.4,0.0,0.0,0.0,0.0,0.0,0.0,0.0,0.0,0.0,0.0,0.0,0.0,1.0,-0.8,-0.17,-0.11,21.03,-13.7,-109.8,0.0,0.0,0.5,0.5,1.25,0.0,0.25,0.75,0.0,0.0,0.0,0.0,0.75,0.08,-0.55,0.52,56.79,-1.1,6.9
3.42,0.0,0.0,0.0,0.0,0.0,0.0,0.0,0.0,0.0,0.0,0.0,0.0,1.0,-0.92,-0.05,-0.17,20.26,-13.7,-109.8,0.0,0.0,0.5,0.5,1.0,0.0,0.0,0.75,0.0,0.0,0.0,0.0,0.75,-0.05,-0.55,0.45,58.84,-0.4,2.6
3.44,0.0,0.0,0.0,0.25,0.0,0.0,0.0,0.0,0.0,0.0,0.0,0.0,1.0,-0.92,0.02,-0.23,20.42,-7.4,-75.8,0.0,0.0,0.5,0.75,0.5,0.0,0.0,0.75,0.0,0.0,0.0,0.0,0.75,-0.17,-0.55,0.52,57.91,-2.3,-1.7
3.46,0.0,0.0,0.0,0.25,0.0,0.0,0.0,0.0,0.0,0.0,0.0,0.0,1.0,-1.05,-0.05,-0.3,21.27,-7.4,-75.8,0.0,0.0,0.5,0.75,1.0,0.0,0.25,0.5,0.0,0.0,0.0,0.0,0.75,-0.23,-0.67,0.58,59.08,-3.7,9.8
3.48,0.0,0.0,0.0,0.5,0.0,0.0,0.0,0.0,0.0,0.0,0.0,0.0,1.0,-1.23,0.08,-0.48,22.92,-3.2,-53.2,0.0,0.0,0.5,0.5,1.0,0.0,0.0,0.75,0.0,0.0,0.0,0.0,0.75,-0.3,-0.86,0.58,58.6,-0.4,2.6
3.5,0.5,0.0,0.0,0.25,0.0,0.0,0.0,0.0,0.0,0.0,0.0,0.0,1.0,-1.17,0.14,-0.42,24.62,3.8,-29.7,0.0,0.0,0.5,0.5,0.25,0.0,0.0,0.5,0.0,0.0,0.0,0.0,0.75,-0.36,-0.92,0.7,53.0,-3.3,-10.3
3.52,0.5,0.0,0.0,0.5,0.0,0.0,0.0,0.0,0.0,0.0,0.0,0.0,1.0,-1.05,0.08,-0.36,28.08,5.5,-18.3,0.0,0.0,0.5,0.75,0.25,0.0,0.0,0.75,0.0,0.0,0.0,0.0,0.5,-0.42,-0.92,0.77,48.87,-4.4,2.3
3.54,0.0,0.0,0.0,0.25,0.0,0.0,0.0,0.0,0.0,0.0,0.0,0.0,1.0,-0.92,-0.05,-0.3,27.25,-7.4,-75.8,0.0,0.0,0.5,0.25,1.25,0.0,0.0,0.75,0.0,0.0,0.0,0.0,0.75,-0.36,-0.8,0.64,49.76,0.9,2.6
3.56,0.0,0.0,0.0,0.25,0.0,0.0,0.0,0.0,0.0,0.0,0.0,0.0,1.0,-0.8,-0.05,-0.3,26.28,-7.4,-75.8,0.0,0.0,0.5,0.5,0.5,0.0,0.25,0.75,0.0,0.0,0.0,0.0,0.75,-0.36,-0.67,0.64,49.27,-2.3,-5.5
3.58,0.0,0.0,0.0,0.0,0.0,0.0,0.0,0.0,0.0,0.0,0.0,0.0,1.0,-0.73,-0.05,-0.3,23.6,-13.7,-109.8,0.0,0.0,0.5,0.75,1.0,0.0,0.25,0.5,0.0,0.0,0.0,0.0,0.75,-0.3,-0.61,0.58,54.65,-3.7,9.8
3.6,0.25,0.0,0.0,0.5,0.0,0.0,0.0,0.0,0.0,0.0,0.0,0.0,1.0,-0.8,-0.05,-0.3,24.61,1.7,-33.5,0.0,0.0,0.5,0.5,0.25,0.0,0.0,0.75,0.0,0.0,0.0,0.0,0.75,-0.23,-0.61,0.58,52.4,-1.6,-12.8
3.62,0.0,0.0,0.0,0.0,0.0,0.0,0.0,0.0,0.0,0.0,0.0,0.0,1.0,-0.92,0.02,-0.3,22.72,-13.7,-109.8,0.0,0.0,0.5,1.0,0.5,0.0,0.25,0.75,0.0,0.0,0.0,0.0,0.75,-0.23,-0.67,0.58,53.96,-4.3,3.2
3.64,0.0,0.0,0.0,0.25,0.0,0.0,0.0,0.0,0.0,0.0,0.0,0.0,1.0,-1.05,0.08,-0.36,23.12,-7.4,-75.8,0.0,0.0,0.5,0.5,0.5,0.0,0.25,0.75,0.0,0.0,0.0,0.0,0.75,-0.23,-0.73,0.58,51.86,-2.3,-5.5
3.66,0.0,0.0,0.0,0.25,0.0,0.0,0.0,0.0,0.0,0.0,0.0,0.0,1.0,-1.11,0.08,-0.36,22.36,-7.4,-75.8,0.0,0.0,0.25,0.0,0.5,0.0,0.0,0.75,0.0,0.0,0.0,0.0,0.5,-0.23,-0.8,0.64,46.21,5.5,-18.5
3.68,0.0,0.0,0.0,0.0,0.0,0.0,0.0,0.0,0.0,0.0,0.0,0.0,1.0,-1.11,0.08,-0.36,21.15,-13.7,-109.8,0.0,0.0,0.5,0.0,1.0,0.0,0.25,0.75,0.0,0.0,0.0,0.0,0.75,-0.17,-0.86,0.64,45.84,1.0,-5.2
3.7,0.0,0.0,0.0,0.25,0.0,0.0,0.0,0.0,0.0,0.0,0.0,0.0,1.0,-0.98,0.08,-0.3,20.89,-7.4,-75.8,0.0,0.0,0.5,0.5,1.0,0.0,0.0,0.75,0.0,0.0,0.0,0.0,0.75,-0.23,-0.8,0.64,48.83,-0.4,2.6
3.72,0.0,0.0,0.0,0.5,0.0,0.0,0.0,0.0,0.0,0.0,0.0,0.0,1.0,-0.92,0.02,-0.3,22.08,-3.2,-53.2,0.0,0.25,0.5,0.5,1.25,0.0,0.0,0.5,0.0,0.0,0.0,0.0,0.75,-0.23,-0.73,0.64,56.11,-2.0,15.0
3.74,0.0,0.0,0.0,0.25,0.0,0.0,0.0,0.0,0.0,0.0,0.0,0.0,1.0,-0.86,0.02,-0.3,22.57,-7.4,-75.8,0.0,0.0,0.5,0.5,0.0,0.0,0.25,0.75,0.0,0.0,0.0,0.0,0.75,-0.17,-0.67,0.64,53.77,-3.5,-18.2
3.76,0.0,0.0,0.0,0.25,0.0,0.0,0.0,0.0,0.0,0.0,0.0,0.0,1.0,-0.86,0.02,-0.3,22.83,-7.4,-75.8,0.0,0.0,0.0,0.25,0.25,0.0,0.0,0.75,0.0,0.0,0.0,0.0,0.75,-0.23,-0.67,0.64,46.84,9.4,-40.1
3.78,0.0,0.0,0.0,0.25,0.0,0.0,0.0,0.0,0.0,0.0,0.0,0.25,1.0,-0.92,0.08,-0.3,24.8,-4.7,-81.3,0.0,0.0,0.5,0.5,1.0,0.0,0.25,0.75,0.0,0.0,0.0,0.0,0.5,-0.23,-0.67,0.64,46.47,-2.5,11.5
3.8,0.0,0.0,0.0,0.25,0.0,0.0,0.0,0.0,0.0,0.0,0.0,0.0,1.0,-0.98,0.08,-0.36,24.47,-7.4,-75.8,0.0,0.0,0.5,0.0,0.5,0.0,0.0,0.75,0.0,0.0,0.0,0.0,0.75,-0.23,-0.73,0.64,43.18,2.0,-19.7
3.82,0.0,0.0,0.0,0.25,0.0,0.0,0.0,0.0,0.0,0.0,0.0,0.0,0.25,-0.98,0.08,-0.36,19.06,1.8,-25.2,0.0,0.0,0.5,0.0,1.0,0.0,0.0,0.75,0.0,0.0,0.0,0.0,0.75,-0.23,-0.73,0.64,45.6,2.2,-6.4
3.84,0.25,0.0,0.0,0.25,0.0,0.0,0.0,0.0,0.0,0.0,0.0,0.0,0.25,-0.98,0.08,-0.3,15.0,12.1,12.9,0.0,0.0,0.5,0.5,0.5,0.0,0.0,0.5,0.0,0.0,0.0,0.0,0.5,-0.23,-0.73,0.7,44.71,-4.3,6.3
3.86,0.25,0.0,0.0,0.25,0.0,0.0,0.0,0.0,0.0,0.0,0.0,0.0,0.5,-0.92,0.08,-0.3,13.24,5.5,-18.3,0.0,0.0,0.0,0.25,0.25,0.0,0.0,0.5,0.0,0.0,0.0,0.0,0.75,-0.23,-0.73,0.7,39.24,8.4,-40.3
3.88,0.25,0.0,0.0,0.25,0.0,0.0,0.0,0.0,0.0,0.0,0.0,0.0,0.5,-0.92,0.08,-0.3,12.89,5.5,-18.3,0.0,0.0,0.25,0.0,0.5,0.0,0.0,0.75,0.0,0.0,0.0,0.0,0.5,-0.23,-0.73,0.64,34.32,5.5,-18.5
3.9,0.0,0.0,0.0,0.25,0.0,0.0,0.0,0.0,0.0,0.0,0.0,0.0,0.5,-0.98,0.08,-0.3,12.44,-3.2,-53.2,0.0,0.0,0.25,0.0,0.5,0.0,0.0,0.5,0.0,0.0,0.0,0.0,0.5,-0.23,-0.73,0.64,29.89,4.0,-15.8
3.92,0.0,0.0,0.0,0.0,0.0,0.0,0.0,0.0,0.0,0.0,0.0,0.0,0.5,-0.98,0.08,-0.3,11.26,-13.7,-109.8,0.0,0.0,0.5,0.0,0.25,0.0,0.0,0.5,0.0,0.0,0.0,0.0,0.75,-0.23,-0.73,0.64,27.28,0.1,-27.6
3.94,0.0,0.0,0.0,0.25,0.0,0.0,0.0,0.0,0.0,0.0,0.0,0.0,0.5,-0.98,0.08,-0.3,10.4,-3.2,-53.2,0.0,0.0,0.5,0.5,0.25,0.0,0.25,0.75,0.0,0.0,0.0,0.0,0.5,-0.23,-0.73,0.64,30.61,-4.4,-1.8
3.96,0.0,0.0,0.0,0.25,0.0,0.0,0.0,0.0,0.0,0.0,0.0,0.0,0.5,-0.92,0.08,-0.3,9.95,-3.2,-53.2,0.0,0.0,0.5,0.25,1.0,0.0,0.0,0.5,0.0,0.0,0.0,0.0,0.25,-0.23,-0.73,0.64,36.13,-3.1,22.6
3.98,0.0,0.0,0.0,0.25,0.0,0.0,0.0,0.0,0.0,0.0,0.0,0.0,0.5,-0.98,0.08,-0.3,10.62,-3.2,-53.2,0.0,0.0,0.5,0.0,0.25,0.0,0.0,0.5,0.0,0.0,0.0,0.0,0.5,-0.23,-0.73,0.64,35.69,-1.8,-15.9
4.0,0.0,0.0,0.0,0.25,0.0,0.0,0.0,0.0,0.0,0.0,0.0,0.0,0.5,-0.98,0.08,-0.3,11.15,-3.2,-53.2,0.0,0.0,0.25,0.25,0.25,0.0,0.0,0.75,0.0,0.0,0.0,0.0,0.75,-0.23,-0.73,0.64,35.19,4.1,-28.9
4.02,0.0,0.0,0.0,0.5,0.0,0.0,0.0,0.0,0.0,0.0,0.0,0.0,0.5,-0.98,0.08,-0.3,12.84,1.8,-25.2,0.5,0.0,0.5,0.0,0.25,0.0,0.25,0.75,0.0,0.0,0.0,0.0,0.75,-0.23,-0.73,0.64,36.84,-5.4,-6.2
4.04,0.0,0.0,0.0,0.25,0.0,0.0,0.0,0.0,0.0,0.0,0.0,0.0,0.5,-0.92,0.14,-0.3,13.5,-3.2,-53.2,0.0,0.0,0.25,0.0,0.0,0.0,0.0,0.75,0.0,0.0,0.0,0.0,0.5,-0.23,-0.73,0.64,33.81,6.4,-45.9
4.06,0.0,0.0,0.0,0.25,0.0,0.0,0.0,0.0,0.0,0.0,0.0,0.0,0.5,-0.98,0.08,-0.3,14.0,-3.2,-53.2,0.0,0.0,0.5,0.25,0.0,0.0,0.0,0.75,0.0,0.0,0.0,0.0,0.5,-0.23,-0.73,0.64,32.59,-2.2,-19.1
4.08,0.0,0.0,0.0,0.5,0.0,0.0,0.0,0.0,0.0,0.0,0.0,0.0,0.25,-0.98,0.14,-0.3,13.17,7.0,2.6,0.0,0.0,0.5,0.0,0.0,0.0,0.0,0.5,0.0,0.0,0.0,0.0,0.75,-0.23,-0.73,0.64,30.49,-0.4,-40.7
4.1,0.0,0.0,0.0,0.25,0.0,0.0,0.0,0.0,0.0,0.0,0.0,0.0,0.5,-0.92,0.14,-0.3,12.88,-3.2,-53.2,0.0,0.0,0.0,0.25,0.0,0.0,0.0,0.5,0.0,0.0,0.0,0.0,0.75,-0.23,-0.67,0.64,28.59,9.4,-58.0
4.12,0.0,0.0,0.0,0.25,0.0,0.0,0.0,0.0,0.0,0.0,0.0,0.0,0.5,-0.98,0.14,-0.3,12.82,-3.2,-53.2,0.0,0.0,0.5,0.25,0.5,0.0,0.25,0.5,0.0,0.0,0.0,0.0,0.75,-0.17,-0.73,0.64,31.81,-2.6,-8.5
4.14,0.0,0.0,0.0,0.25,0.0,0.0,0.0,0.0,0.0,0.0,0.0,0.0,0.25,-0.98,0.14,-0.23,11.37,1.8,-25.2,0.0,0.0,0.5,0.5,0.25,0.0,0.0,0.5,0.0,0.0,0.0,0.0,0.75,-0.17,-0.73,0.64,35.77,-3.3,-10.3
4.16,0.0,0.0,0.0,0.25,0.0,0.0,0.0,0.0,0.0,0.0,0.0,0.0,0.5,-0.98,0.14,-0.3,11.53,-3.2,-53.2,0.25,0.0,0.25,0.0,0.0,0.0,0.0,0.75,0.0,0.0,0.0,0.0,0.75,-0.17,-0.73,0.64,35.95,2.5,-37.4
4.18,0.0,0.0,0.0,0.25,0.0,0.0,0.0,0.0,0.0,0.0,0.0,0.0,0.5,-0.98,0.14,-0.3,11.42,-3.2,-53.2,0.0,0.0,0.5,0.5,0.0,0.0,0.0,0.75,0.0,0.0,0.0,0.0,0.5,-0.17,-0.73,0.64,35.74,-3.9,-10.3
4.2,0.0,0.0,0.0,0.25,0.0,0.0,0.0,0.0,0.0,0.0,0.0,0.0,0.5,-0.98,0.14,-0.3,12.12,-3.2,-53.2,0.0,0.0,0.25,0.0,0.25,0.0,0.0,0.5,0.0,0.0,0.0,0.0,0.75,-0.17,-0.73,0.64,33.43,5.5,-40.1
4.22,0.0,0.0,0.0,0.25,0.0,0.0,0.0,0.0,0.0,0.0,0.0,0.25,0.25,-0.98,0.14,-0.3,12.39,4.1,-52.6,0.0,0.0,0.0,0.0,0.25,0.0,0.0,0.75,0.0,0.0,0.0,0.0,0.75,-0.17,-0.73,0.64,31.9,13.3,-54.3
4.24,0.0,0.0,0.0,0.25,0.0,0.0,0.0,0.0,0.0,0.0,0.0,0.0,0.5,-0.98,0.14,-0.23,12.73,-3.2,-53.2,0.0,0.0,0.25,0.0,0.0,0.0,0.0,0.5,0.0,0.0,0.0,0.0,0.75,-0.17,-0.73,0.64,28.26,5.9,-57.9
4.26,0.0,0.0,0.0,0.25,0.0,0.0,0.0,0.0,0.0,0.0,0.0,0.0,0.5,-0.98,0.14,-0.23,12.7,-3.2,-53.2,0.0,0.0,0.5,0.0,1.0,0.0,0.0,0.5,0.0,0.0,0.0,0.0,0.75,-0.17,-0.73,0.64,34.11,1.0,-3.6
4.28,0.0,0.0,0.0,0.25,0.0,0.0,0.0,0.0,0.0,0.0,0.0,0.0,0.25,-0.98,0.14,-0.23,11.23,1.8,-25.2,0.0,0.0,0.5,0.0,0.0,0.0,0.0,0.5,0.0,0.0,0.0,0.0,0.75,-0.23,-0.73,0.7,33.68,-0.4,-40.7
4.3,0.0,0.0,0.0,0.25,0.0,0.0,0.0,0.0,0.0,0.0,0.0,0.0,0.25,-0.98,0.14,-0.23,9.77,1.8,-25.2,0.0,0.25,0.25,0.0,0.0,0.0,0.0,0.75,0.0,0.0,0.0,0.0,0.75,-0.23,-0.73,0.7,34.1,4.9,-35.6
4.32,0.0,0.0,0.0,0.25,0.0,0.0,0.0,0.0,0.0,0.0,0.0,0.0,0.25,-0.98,0.14,-0.23,8.38,1.8,-25.2,0.0,0.0,0.25,0.5,0.0,0.0,0.0,0.5,0.0,0.0,0.0,0.0,0.5,-0.23,-0.73,0.7,31.13,-1.9,-16.6
4.34,0.0,0.0,0.0,0.25,0.0,0.0,0.0,0.0,0.0,0.0,0.0,0.0,0.25,-0.98,0.14,-0.23,7.68,1.8,-25.2,0.5,0.0,0.5,0.0,0.25,0.0,0.0,0.5,0.0,0.0,0.0,0.0,0.75,-0.23,-0.73,0.64,33.62,-6.3,-4.5
4.36,0.0,0.0,0.0,0.25,0.0,0.0,0.0,0.0,0.0,0.0,0.0,0.0,0.25,-0.98,0.14,-0.23,7.37,1.8,-25.2,0.0,0.0,0.5,0.25,0.0,0.0,0.0,0.5,0.0,0.0,0.0,0.0,0.75,-0.23,-0.73,0.64,31.94,-2.5,-28.1
4.38,0.0,0.0,0.0,0.25,0.0,0.0,0.0,0.0,0.0,0.0,0.0,0.0,0.5,-0.98,0.2,-0.23,9.12,-3.2,-53.2,0.0,0.0,0.25,0.25,0.0,0.0,0.0,0.5,0.0,0.0,0.0,0.0,0.75,-0.23,-0.73,0.64,32.02,2.5,-40.9
4.4,0.0,0.0,0.0,0.25,0.0,0.0,0.0,0.0,0.0,0.25,0.0,0.0,0.5,-0.98,0.14,-0.23,11.94,-6.3,-58.7,0.0,0.0,0.5,0.0,0.25,0.0,0.0,0.5,0.0,0.0,0.0,0.0,0.75,-0.23,-0.73,0.7,31.78,0.1,-27.6
4.42,0.0,0.0,0.0,0.25,0.0,0.0,0.0,0.0,0.0,0.0,0.0,0.0,0.25,-0.98,0.14,-0.23,11.59,1.8,-25.2,0.0,0.0,0.25,0.0,0.25,0.0,0.25,0.5,0.0,0.0,0.0,0.0,0.75,-0.23,-0.73,0.7,30.84,3.1,-35.9
4.44,0.0,0.0,0.0,0.25,0.0,0.0,0.0,0.0,0.0,0.0,0.0,0.0,0.5,-0.92,0.14,-0.23,12.43,-3.2,-53.2,0.0,0.0,0.25,0.0,0.0,0.0,0.0,0.75,0.0,0.0,0.0,0.0,0.75,-0.17,-0.73,0.64,30.22,7.4,-55.2
4.46,0.0,0.0,0.0,0.25,0.0,0.0,0.0,0.0,0.0,0.25,0.0,0.0,0.25,-0.92,0.14,-0.23,12.22,-3.8,-41.5,0.0,0.0,0.25,0.0,0.0,0.0,0.0,0.5,0.0,0.0,0.0,0.0,0.75,-0.17,-0.73,0.64,28.19,5.9,-57.9
4.48,0.0,0.0,0.0,0.25,0.0,0.0,0.0,0.0,0.0,0.0,0.0,0.0,0.5,-0.98,0.14,-0.23,12.81,-3.2,-53.2,0.0,0.0,0.0,0.25,0.0,0.0,0.0,0.5,0.0,0.0,0.0,0.0,0.75,-0.17,-0.73,0.64,26.6,9.4,-58.0
4.5,0.0,0.0,0.0,0.25,0.0,0.0,0.0,0.0,0.0,0.0,0.0,0.0,0.5,-0.98,0.14,-0.23,13.1,-3.2,-53.2,0.0,0.0,0.0,0.0,0.25,0.0,0.0,0.5,0.0,0.0,0.0,0.0,0.75,-0.17,-0.73,0.64,24.71,12.7,-56.8
4.52,0.0,0.0,0.0,0.25,0.0,0.0,0.0,0.0,0.0,0.0,0.0,0.0,0.25,-0.98,0.14,-0.23,12.14,1.8,-25.2,0.0,0.0,0.0,0.25,0.0,0.0,0.0,0.5,0.0,0.0,0.0,0.0,0.75,-0.17,-0.73,0.64,24.95,9.4,-58.0
4.54,0.0,0.0,0.0,0.25,0.0,0.0,0.0,0.0,0.0,0.0,0.0,0.0,0.25,-0.98,0.14,-0.23,10.51,1.8,-25.2,0.0,0.0,0.25,0.0,0.0,0.0,0.0,0.5,0.0,0.0,0.0,0.0,0.75,-0.17,-0.73,0.64,24.45,5.9,-57.9
4.56,0.0,0.0,0.0,0.25,0.0,0.0,0.0,0.0,0.0,0.0,0.0,0.0,0.5,-0.98,0.14,-0.23,10.55,-3.2,-53.2,0.0,0.0,0.0,0.0,0.0,0.0,0.0,0.5,0.0,0.5,0.0,0.0,0.75,-0.17,-0.73,0.64,26.38,15.1,-80.1
4.58,0.0,0.0,0.0,0.25,0.0,0.0,0.0,0.0,0.0,0.0,0.0,0.0,0.5,-0.92,0.14,-0.23,11.26,-3.2,-53.2,0.0,0.0,0.0,0.25,0.0,0.0,0.0,0.5,0.0,0.0,0.0,0.0,0.5,-0.17,-0.73,0.64,24.27,8.5,-47.6
4.6,0.0,0.0,0.0,0.25,0.0,0.0,0.0,0.0,0.0,0.0,0.0,0.0,0.0,-0.92,0.14,-0.23,9.23,17.2,57.9,0.0,0.0,0.0,0.0,0.0,0.0,0.0,0.5,0.0,0.0,0.0,0.0,0.75,-0.17,-0.73,0.64,23.79,14.9,-81.9
4.62,0.0,0.0,0.0,0.25,0.0,0.0,0.0,0.0,0.0,0.0,0.0,0.0,0.5,-0.98,0.14,-0.23,9.88,-3.2,-53.2,0.0,0.0,0.0,0.0,0.0,0.0,0.0,0.5,0.0,0.0,0.0,0.0,0.75,-0.17,-0.73,0.64,22.27,14.9,-81.9
4.64,0.0,0.0,0.0,0.25,0.0,0.0,0.0,0.0,0.0,0.0,0.0,0.0,0.25,-0.98,0.2,-0.23,8.77,1.8,-25.2,0.0,0.0,0.0,0.25,0.0,0.0,0.0,0.0,0.0,0.25,0.0,0.0,1.0,-0.17,-0.73,0.64,23.22,8.7,-75.7
4.66,0.0,0.0,0.0,0.25,0.0,0.0,0.0,0.0,0.0,0.25,0.0,0.0,0.25,-0.98,0.2,-0.23,10.26,-3.8,-41.5,0.0,0.0,0.0,0.25,0.0,0.0,0.0,0.75,0.0,0.25,0.0,0.0,0.5,-0.17,-0.73,0.64,25.12,10.7,-50.3
4.68,0.0,0.0,0.0,0.25,0.0,0.0,0.0,0.0,0.0,0.0,0.0,0.0,0.25,-0.98,0.2,-0.23,9.13,1.8,-25.2,0.0,0.0,0.25,0.0,0.0,0.0,0.0,0.5,0.0,0.25,0.0,0.0,0.75,-0.17,-0.73,0.64,27.77,7.3,-60.3
4.7,0.0,0.0,0.0,0.25,0.0,0.0,0.0,0.0,0.0,0.0,0.0,0.0,0.25,-0.98,0.2,-0.23,9.06,1.8,-25.2,0.0,0.0,0.25,0.0,0.0,0.0,0.0,0.5,0.0,0.5,0.0,0.0,0.5,-0.17,-0.73,0.64,29.36,7.5,-55.3
4.72,0.0,0.0,0.0,0.25,0.0,0.0,0.0,0.0,0.0,0.0,0.0,0.0,0.5,-0.98,0.2,-0.17,9.81,-3.2,-53.2,0.0,0.0,0.5,0.0,0.0,0.0,0.0,0.5,0.0,0.0,0.0,0.0,0.5,-0.17,-0.73,0.64,27.95,-2.7,-29.1
4.74,0.0,0.0,0.0,0.25,0.0,0.0,0.0,0.0,0.0,0.0,0.0,0.0,0.5,-0.98,0.2,-0.17,11.16,-3.2,-53.2,0.0,0.0,0.0,0.0,0.0,0.0,0.0,0.75,0.0,0.75,0.0,0.0,0.75,-0.17,-0.73,0.64,31.8,15.3,-75.0
4.76,0.0,0.0,0.0,0.25,0.0,0.0,0.0,0.0,0.0,0.0,0.0,0.0,0.5,-0.92,0.2,-0.17,12.55,-3.2,-53.2,0.0,0.0,0.25,0.25,0.0,0.0,0.0,0.5,0.0,0.0,0.0,0.0,0.75,-0.17,-0.73,0.7,31.47,2.5,-40.9
4.78,0.0,0.0,0.0,0.25,0.0,0.0,0.0,0.0,0.0,0.0,0.0,0.0,0.25,-0.98,0.2,-0.23,11.42,1.8,-25.2,0.0,0.0,0.0,0.0,0.0,0.0,0.0,0.25,0.0,0.0,0.0,0.0,0.5,-0.17,-0.73,0.7,26.74,14.7,-86.6
4.8,0.0,0.0,0.0,0.25,0.0,0.0,0.0,0.0,0.0,0.0,0.0,0.0,0.25,-0.98,0.2,-0.17,10.1,1.8,-25.2,0.0,0.0,0.0,0.0,0.0,0.0,0.0,0.5,0.0,0.25,0.0,0.0,0.75,-0.17,-0.73,0.64,25.23,15.0,-80.9
4.82,0.0,0.0,0.0,0.0,0.0,0.0,0.0,0.0,0.0,0.0,0.0,0.0,0.25,-0.98,0.2,-0.17,7.69,-13.7,-109.8,0.0,0.0,0.0,0.0,0.0,0.0,0.0,0.5,0.0,0.0,0.0,0.0,0.75,-0.17,-0.73,0.64,23.48,14.9,-81.9
4.84,0.0,0.0,0.0,0.25,0.0,0.0,0.0,0.0,0.0,0.0,0.0,0.0,0.5,-0.98,0.2,-0.23,8.97,-3.2,-53.2,0.0,0.0,0.25,0.0,0.0,0.0,0.0,0.25,0.0,0.25,0.0,0.0,0.5,-0.17,-0.73,0.64,22.08,4.1,-54.5
4.86,0.0,0.0,0.0,0.25,0.0,0.0,0.0,0.0,0.0,0.0,0.0,0.0,0.25,-0.98,0.2,-0.17,8.27,1.8,-25.2,0.0,0.0,0.25,0.0,0.0,0.0,0.0,0.5,0.0,0.0,0.0,0.0,0.75,-0.17,-0.73,0.64,22.39,5.9,-57.9
4.88,0.0,0.0,0.0,0.25,0.0,0.0,0.0,0.0,0.0,0.0,0.0,0.0,0.25,-0.98,0.2,-0.17,8.77,1.8,-25.2,0.0,0.25,0.0,0.0,0.0,0.0,0.0,0.25,0.0,0.0,0.0,0.0,0.5,-0.17,-0.73,0.64,20.22,7.8,-39.8
4.9,0.0,0.0,0.0,0.25,0.0,0.0,0.0,0.0,0.0,0.0,0.0,0.0,0.25,-0.98,0.2,-0.17,8.09,1.8,-25.2,0.0,0.0,0.0,0.0,0.0,0.0,0.0,0.5,0.0,0.25,0.0,0.0,0.75,-0.17,-0.73,0.64,21.43,15.0,-80.9
4.92,0.0,0.0,0.0,0.25,0.0,0.0,0.0,0.0,0.0,0.0,0.0,0.0,0.0,-0.98,0.2,-0.23,6.83,17.2,57.9,0.0,0.0,0.0,0.25,0.0,0.0,0.0,0.5,0.0,0.0,0.0,0.0,0.5,-0.17,-0.73,0.64,20.46,8.5,-47.6
4.94,0.0,0.0,0.0,0.25,0.0,0.0,0.0,0.0,0.0,0.0,0.0,0.0,0.5,-0.98,0.2,-0.23,8.1,-3.2,-53.2,0.0,0.0,0.0,0.5,0.0,0.0,0.0,0.5,0.0,0.5,0.0,0.0,0.75,-0.17,-0.73,0.64,26.68,7.7,-48.6
4.96,0.0,0.0,0.0,0.25,0.0,0.0,0.0,0.0,0.0,0.0,0.0,0.0,0.5,-1.05,0.27,-0.23,9.62,-3.2,-53.2,0.0,0.0,0.25,0.0,0.0,0.0,0.0,0.25,0.0,0.0,0.0,0.0,0.75,-0.17,-0.73,0.64,25.77,3.8,-61.6
4.98,0.0,0.0,0.0,0.25,0.0,0.0,0.0,0.0,0.0,0.0,0.0,0.0,0.25,-0.98,0.2,-0.17,10.15,1.8,-25.2,0.0,0.0,0.0,0.0,0.0,0.0,0.0,0.25,0.0,0.0,0.0,0.0,0.75,-0.17,-0.73,0.64,24.36,14.4,-92.5
5.0,0.0,0.0,0.0,0.25,0.0,0.0,0.0,0.0,0.0,0.0,0.0,0.0,0.25,-0.98,0.2,-0.17,9.73,1.8,-25.2,0.0,0.0,0.25,0.0,0.0,0.0,0.0,0.25,0.0,0.0,0.0,0.0,0.75,-0.17,-0.73,0.64,22.77,3.8,-61.6
5.02,0.0,0.0,0.0,0.25,0.0,0.0,0.0,0.0,0.0,0.0,0.0,0.0,0.25,-0.92,0.2,-0.17,9.17,1.8,-25.2,0.0,0.0,0.0,0.5,0.0,0.0,0.0,0.25,0.0,0.25,0.0,0.0,0.75,-0.17,-0.73,0.64,24.68,5.3,-46.2
5.04,0.0,0.0,0.0,0.25,0.0,0.0,0.0,0.0,0.0,0.0,0.0,0.0,0.25,-0.98,0.2,-0.17,8.42,1.8,-25.2,0.0,0.0,0.0,0.0,0.0,0.0,0.0,0.5,0.0,0.25,0.0,0.0,0.75,-0.17,-0.73,0.64,25.17,15.0,-80.9
5.06,0.0,0.0,0.0,0.25,0.0,0.0,0.0,0.0,0.0,0.0,0.0,0.0,0.25,-0.98,0.2,-0.17,8.04,1.8,-25.2,0.0,0.0,0.0,0.25,0.0,0.0,0.0,0.25,0.0,0.25,0.0,0.0,1.0,-0.17,-0.73,0.64,28.52,9.8,-70.6
5.08,0.0,0.0,0.0,0.25,0.0,0.0,0.0,0.0,0.0,0.0,0.0,0.0,0.25,-0.98,0.2,-0.17,7.87,1.8,-25.2,0.0,0.0,0.0,0.0,0.0,0.0,0.0,0.5,0.0,0.0,0.0,0.0,0.75,-0.17,-0.73,0.64,27.66,14.9,-81.9
5.1,0.0,0.0,0.0,0.25,0.0,0.0,0.0,0.0,0.0,0.0,0.0,0.0,0.25,-0.98,0.2,-0.17,8.1,1.8,-25.2,0.0,0.0,0.0,0.0,0.0,0.0,0.0,0.0,0.0,0.25,0.0,0.0,0.75,-0.17,-0.73,0.64,24.8,14.1,-101.4
5.12,0.0,0.0,0.0,0.25,0.0,0.0,0.0,0.0,0.0,0.0,0.0,0.0,0.25,-0.98,0.2,-0.17,7.99,1.8,-25.2,0.0,0.0,0.0,0.0,0.0,0.0,0.0,0.5,0.0,0.25,0.0,0.0,0.75,-0.17,-0.73,0.7,24.45,15.0,-80.9
5.14,0.0,0.0,0.0,0.25,0.0,0.0,0.0,0.0,0.0,0.0,0.0,0.0,0.25,-0.98,0.2,-0.17,7.93,1.8,-25.2,0.0,0.0,0.0,0.0,0.0,0.0,0.0,0.5,0.0,0.0,0.0,0.0,0.75,-0.17,-0.73,0.64,23.02,14.9,-81.9
5.16,0.0,0.0,0.0,0.25,0.0,0.0,0.0,0.0,0.0,0.0,0.0,0.0,0.25,-0.98,0.2,-0.17,7.86,1.8,-25.2,0.0,0.0,0.25,0.0,0.0,0.0,0.0,0.25,0.0,0.25,0.0,0.0,0.75,-0.17,-0.73,0.64,24.19,5.7,-63.9
5.18,0.0,0.0,0.0,0.25,0.0,0.0,0.0,0.0,0.0,0.0,0.0,0.0,0.25,-0.98,0.2,-0.17,7.56,1.8,-25.2,0.0,0.0,0.0,0.0,0.0,0.0,0.0,0.5,0.0,0.25,0.0,0.0,0.75,-0.17,-0.73,0.64,24.91,15.0,-80.9
5.2,0.0,0.0,0.0,0.25,0.0,0.0,0.0,0.0,0.0,0.0,0.0,0.0,0.25,-0.98,0.2,-0.17,7.81,1.8,-25.2,0.0,0.0,0.0,0.0,0.0,0.0,0.0,0.25,0.0,0.25,0.0,0.0,0.75,-0.17,-0.73,0.64,25.59,14.7,-89.1
5.22,0.0,0.0,0.0,0.25,0.0,0.0,0.0,0.0,0.0,0.0,0.0,0.0,0.25,-0.98,0.2,-0.17,8.1,1.8,-25.2,0.0,0.0,0.0,0.0,0.0,0.0,0.0,0.5,0.0,0.25,0.0,0.0,0.75,-0.17,-0.73,0.64,25.88,15.0,-80.9
5.24,0.0,0.0,0.0,0.25,0.0,0.0,0.0,0.0,0.0,0.0,0.0,0.0,0.25,-0.98,0.2,-0.17,8.1,1.8,-25.2,0.0,0.0,0.0,0.5,0.0,0.0,0.0,0.5,0.0,0.25,0.0,0.0,0.75,-0.17,-0.67,0.64,28.05,6.7,-45.3
5.26,0.0,0.0,0.0,0.25,0.0,0.0,0.0,0.0,0.0,0.0,0.0,0.0,0.25,-0.98,0.2,-0.17,8.1,1.8,-25.2,0.0,0.0,0.0,0.0,0.0,0.0,0.0,0.0,0.0,0.0,0.0,0.0,0.75,-0.17,-0.73,0.64,24.13,13.7,-109.9
5.28,0.0,0.0,0.0,0.25,0.0,0.0,0.0,0.0,0.0,0.0,0.0,0.0,0.0,-0.98,0.2,-0.17,6.9,17.2,57.9,0.0,0.0,0.0,0.0,0.0,0.0,0.0,0.5,0.0,0.25,0.0,0.0,0.75,-0.17,-0.73,0.64,24.79,15.0,-80.9
5.3,0.0,0.0,0.0,0.25,0.0,0.0,0.0,0.0,0.0,0.0,0.0,0.0,0.25,-0.98,0.2,-0.17,6.99,1.8,-25.2,0.0,0.0,0.0,0.0,0.0,0.0,0.0,0.25,0.0,0.25,0.0,0.0,0.75,-0.17,-0.73,0.64,23.28,14.7,-89.1
5.32,0.0,0.0,0.0,0.25,0.0,0.0,0.0,0.0,0.0,0.0,0.0,0.0,0.25,-0.98,0.2,-0.17,7.07,1.8,-25.2,0.0,0.0,0.0,0.0,0.0,0.0,0.0,0.5,0.0,0.25,0.0,0.0,0.75,-0.17,-0.73,0.64,25.18,15.0,-80.9
5.34,0.0,0.0,0.0,0.25,0.0,0.0,0.0,0.0,0.0,0.0,0.0,0.0,0.0,-0.98,0.2,-0.17,6.39,17.2,57.9,0.0,0.0,0.0,0.0,0.0,0.0,0.0,0.5,0.0,0.25,0.0,0.0,0.75,-0.17,-0.73,0.64,25.61,15.0,-80.9
5.36,0.0,0.0,0.0,0.25,0.0,0.0,0.0,0.0,0.0,0.0,0.0,0.0,0.25,-0.98,0.2,-0.17,6.73,1.8,-25.2,0.0,0.0,0.0,0.0,0.0,0.0,0.0,0.5,0.0,0.0,0.0,0.0,0.75,-0.17,-0.67,0.64,25.26,14.9,-81.9
5.38,0.0,0.0,0.0,0.25,0.0,0.0,0.0,0.0,0.0,0.0,0.0,0.0,0.0,-0.98,0.2,-0.17,5.88,17.2,57.9,0.0,0.0,0.0,0.0,0.0,0.0,0.0,0.0,0.0,0.0,0.0,0.0,0.75,-0.17,-0.67,0.64,21.49,13.7,-109.9
5.4,0.0,0.0,0.0,0.25,0.0,0.0,0.0,0.0,0.0,0.0,0.0,0.0,0.25,-0.98,0.2,-0.17,6.47,1.8,-25.2,0.0,0.0,0.0,0.0,0.0,0.0,0.0,0.5,0.0,0.0,0.0,0.0,0.75,-0.17,-0.67,0.64,20.34,14.9,-81.9
5.42,0.0,0.0,0.0,0.25,0.0,0.0,0.0,0.0,0.0,0.0,0.0,0.0,0.25,-0.98,0.2,-0.17,6.82,1.8,-25.2,0.0,0.0,0.25,0.0,0.0,0.0,0.0,0.25,0.0,0.0,0.0,0.0,0.75,-0.17,-0.73,0.64,19.7,3.8,-61.6
5.44,0.0,0.0,0.0,0.25,0.0,0.0,0.0,0.0,0.0,0.0,0.0,0.0,0.25,-0.98,0.2,-0.17,7.65,1.8,-25.2,0.0,0.0,0.0,0.0,0.0,0.0,0.0,0.5,0.0,0.25,0.0,0.0,0.75,-0.17,-0.73,0.64,22.2,15.0,-80.9
5.46,0.0,0.0,0.0,0.25,0.0,0.0,0.0,0.0,0.0,0.0,0.0,0.0,0.25,-0.98,0.2,-0.17,7.94,1.8,-25.2,0.0,0.0,0.0,0.0,0.0,0.0,0.0,0.25,0.0,0.25,0.0,0.0,0.75,-0.17,-0.73,0.64,22.75,14.7,-89.1
5.48,0.0,0.0,0.0,0.25,0.0,0.0,0.0,0.0,0.0,0.0,0.0,0.0,0.25,-0.98,0.2,-0.17,8.23,1.8,-25.2,0.0,0.0,0.0,0.0,0.0,0.0,0.0,0.25,0.0,0.0,0.0,0.0,0.75,-0.17,-0.73,0.64,22.1,14.4,-92.5
5.5,0.0,0.0,0.0,0.25,0.0,0.0,0.0,0.0,0.0,0.0,0.0,0.0,0.0,-0.98,0.2,-0.17,7.14,17.2,57.9,0.0,0.0,0.0,0.0,0.0,0.0,0.0,0.25,0.0,0.25,0.0,0.0,0.75,-0.17,-0.67,0.64,22.28,14.7,-89.1
5.52,0.0,0.0,0.0,0.0,0.0,0.0,0.0,0.0,0.0,0.0,0.0,0.0,0.25,-0.98,0.2,-0.17,6.2,-13.7,-109.8,0.0,0.0,0.0,0.0,0.0,0.0,0.0,0.25,0.0,0.0,0.0,0.0,0.75,-0.17,-0.73,0.64,20.07,14.4,-92.5
5.54,0.0,0.0,0.0,0.25,0.0,0.0,0.0,0.0,0.0,0.0,0.0,0.0,0.25,-0.98,0.27,-0.17,6.26,1.8,-25.2,0.0,0.25,0.0,0.0,0.0,0.0,0.0,0.25,0.0,0.0,0.0,0.0,0.75,-0.17,-0.73,0.7,20.22,9.0,-53.9
5.56,0.0,0.0,0.0,0.0,0.0,0.0,0.0,0.0,0.0,0.0,0.0,0.0,0.25,-0.98,0.27,-0.17,5.82,-13.7,-109.8,0.0,0.0,0.0,0.0,0.0,0.0,0.0,0.0,0.0,0.25,0.0,0.0,0.75,-0.17,-0.73,0.7,19.34,14.1,-101.4
5.58,0.0,0.0,0.0,0.25,0.0,0.0,0.0,0.0,0.0,0.0,0.0,0.0,0.0,-0.98,0.27,-0.17,5.5,17.2,57.9,0.0,0.0,0.0,0.0,0.0,0.0,0.0,0.25,0.0,0.0,0.0,0.0,0.75,-0.17,-0.73,0.64,19.25,14.4,-92.5
5.6,0.0,0.0,0.0,0.0,0.0,0.0,0.0,0.0,0.0,0.0,0.0,0.0,0.25,-0.98,0.27,-0.17,4.88,-13.7,-109.8,0.0,0.0,0.0,0.0,0.0,0.0,0.0,0.25,0.0,0.0,0.0,0.0,0.75,-0.17,-0.73,0.64,18.8,14.4,-92.5
5.62,0.0,0.0,0.0,0.25,0.0,0.0,0.0,0.0,0.0,0.0,0.0,0.0,0.0,-0.98,0.27,-0.17,4.59,17.2,57.9,0.0,0.0,0.0,0.25,0.0,0.0,0.0,0.5,0.0,0.0,0.0,0.0,0.75,-0.17,-0.73,0.7,21.03,9.4,-58.0
5.64,0.0,0.0,0.0,0.25,0.0,0.0,0.0,0.0,0.0,0.0,0.0,0.0,0.25,-0.98,0.27,-0.17,5.3,1.8,-25.2,0.0,0.0,0.0,0.0,0.0,0.0,0.0,0.25,0.0,0.0,0.0,0.0,0.75,-0.17,-0.73,0.64,20.2,14.4,-92.5
5.66,0.0,0.0,0.0,0.25,0.0,0.0,0.0,0.0,0.0,0.0,0.0,0.0,0.25,-0.98,0.27,-0.17,6.41,1.8,-25.2,0.0,0.0,0.0,0.0,0.0,0.0,0.0,0.25,0.0,0.0,0.0,0.0,0.75,-0.17,-0.67,0.7,19.99,14.4,-92.5
5.68,0.0,0.0,0.0,0.25,0.0,0.0,0.0,0.0,0.0,0.0,0.0,0.0,0.25,-0.98,0.27,-0.17,7.52,1.8,-25.2,0.0,0.0,0.0,0.0,0.0,0.0,0.0,0.25,0.0,0.25,0.0,0.0,0.75,-0.17,-0.67,0.7,20.48,14.7,-89.1
5.7,0.0,0.0,0.0,0.25,0.0,0.0,0.0,0.0,0.0,0.0,0.0,0.0,0.25,-0.98,0.27,-0.17,8.07,1.8,-25.2,0.0,0.0,0.0,0.0,0.0,0.0,0.0,0.5,0.0,0.0,0.0,0.0,0.75,-0.17,-0.73,0.7,21.59,14.9,-81.9
5.72,0.0,0.0,0.0,0.25,0.0,0.0,0.0,0.0,0.0,0.0,0.0,0.0,0.25,-0.98,0.27,-0.17,8.46,1.8,-25.2,0.0,0.0,0.0,0.0,0.0,0.0,0.0,0.0,0.0,0.25,0.0,0.0,0.75,-0.17,-0.73,0.7,21.18,14.1,-101.4
