time,left pressure 0[N/cm²],left pressure 1[N/cm²],left pressure 2[N/cm²],left pressure 3[N/cm²],left pressure 4[N/cm²],left pressure 5[N/cm²],left pressure 6[N/cm²],left pressure 7[N/cm²],left pressure 8[N/cm²],left pressure 9[N/cm²],left pressure 10[N/cm²],left pressure 11[N/cm²],left pressure 12[N/cm²],left acceleration X[g],left acceleration Y[g],left acceleration Z[g],left total force[N],left center of pressure X[mm],left center of pressure Y[mm],right pressure 0[N/cm²],right pressure 1[N/cm²],right pressure 2[N/cm²],right pressure 3[N/cm²],right pressure 4[N/cm²],right pressure 5[N/cm²],right pressure 6[N/cm²],right pressure 7[N/cm²],right pressure 8[N/cm²],right pressure 9[N/cm²],right pressure 10[N/cm²],right pressure 11[N/cm²],right pressure 12[N/cm²],right acceleration X[g],right acceleration Y[g],right acceleration Z[g],right total force[N],right center of pressure X[mm],right center of pressure Y[mm]
0.02,8.5,1.25,5.5,5.5,0.0,0.0,2.0,0.25,0.5,0.75,1.5,0.25,0.25,-0.11,0.58,1.45,357.45,25.7,54.2,0.75,0.0,1.75,0.0,0.0,1.25,0.0,0.25,0.25,0.0,0.0,0.0,0.0,0.27,0.33,2.14,0.0,-15.6,47.7
0.04,7.5,1.25,3.5,4.0,0.0,0.0,1.75,0.0,0.5,0.75,1.25,0.0,0.25,-0.36,0.7,1.27,277.48,25.5,56.1,1.5,0.0,0.0,0.0,0.0,0.5,0.25,0.25,0.5,0.75,0.75,0.75,0.25,0.14,0.08,1.45,0.0,-8.2,-18.0
0.06,6.75,1.0,2.5,4.0,0.0,0.0,1.5,0.0,0.75,0.75,1.5,0.0,0.25,-0.3,0.7,1.52,234.08,24.2,50.7,1.75,0.75,1.75,0.5,0.0,1.25,0.0,0.25,0.5,0.75,0.25,0.75,1.0,0.45,1.14,2.45,0.0,-10.9,12.5
0.08,0.0,0.5,2.5,2.5,0.0,0.0,1.0,0.0,0.5,0.75,1.25,0.0,0.25,-0.36,0.77,1.7,154.11,19.0,19.9,2.0,0.0,1.75,0.5,0.0,1.5,0.5,0.25,0.5,0.75,0.25,0.75,0.0,0.77,0.08,2.89,0.0,-14.1,23.0
0.1,5.25,0.25,2.0,2.5,0.0,0.0,1.0,0.0,0.5,0.5,1.0,0.0,0.25,-0.3,1.08,2.58,117.7,25.4,50.8,1.5,0.0,1.75,0.5,0.0,2.0,0.5,0.25,0.5,0.75,0.75,0.75,1.0,0.64,-0.3,3.45,0.0,-8.3,1.3
0.12,0.0,0.5,1.0,0.5,0.0,0.0,1.0,0.0,0.5,0.5,1.0,0.0,0.25,-0.86,0.58,3.33,41.84,15.8,-0.1,1.25,0.0,1.75,0.5,0.0,1.25,0.5,0.25,0.5,0.75,0.25,0.75,1.0,0.89,-0.98,2.39,19.87,-10.0,0.3
0.14,0.0,0.0,1.0,2.25,0.0,0.0,0.75,0.5,0.5,0.5,0.5,0.25,0.25,-1.8,-0.61,3.14,9.36,13.6,6.5,1.0,0.25,2.25,0.25,0.0,1.25,0.5,0.5,0.5,0.75,0.25,0.75,1.0,1.39,-0.92,1.77,55.38,-10.1,1.3
0.16,0.0,0.25,1.5,2.25,0.0,0.75,0.5,0.0,0.25,0.0,0.5,0.25,0.25,-1.73,-0.17,3.2,0.0,15.9,29.2,1.0,0.0,1.75,0.5,0.0,1.25,0.5,0.25,0.5,0.75,0.25,0.75,1.0,1.27,-1.11,1.02,81.36,-9.3,-2.4
0.18,0.0,0.0,0.75,2.25,0.0,0.75,0.5,0.25,0.25,0.75,0.75,0.25,0.25,-0.98,-0.48,1.58,3.32,8.4,4.2,1.25,0.5,1.75,0.25,0.25,1.25,0.25,0.25,0.5,0.75,0.25,0.75,1.0,0.83,-1.23,0.95,107.18,-9.2,5.7
0.2,0.0,0.25,0.75,2.5,0.25,0.75,0.5,0.25,0.25,0.5,0.75,0.25,0.25,-0.98,-0.42,1.45,21.33,9.2,14.4,1.0,0.5,1.75,0.25,0.5,1.25,0.25,0.25,0.5,0.75,0.25,0.75,0.75,0.39,-0.98,1.08,121.12,-8.8,8.2
0.22,0.5,0.25,0.75,2.25,0.5,0.75,0.5,0.5,0.25,0.5,1.0,0.25,0.25,-0.86,-0.8,1.02,51.37,9.2,14.9,1.25,0.5,1.5,0.25,0.0,1.0,0.25,0.25,0.5,0.75,0.25,0.75,1.0,0.27,-0.61,1.45,126.45,-9.7,1.4
0.24,0.75,0.25,0.75,2.25,0.75,0.75,0.5,0.25,0.25,0.75,0.75,0.25,0.25,-0.67,-0.86,1.08,79.39,9.5,20.1,1.0,0.5,1.5,0.25,0.5,1.25,0.5,0.25,0.5,0.5,0.5,0.75,1.0,0.33,-0.23,1.52,131.83,-8.3,3.5
0.26,0.5,0.0,1.0,2.25,0.5,0.75,0.5,0.5,0.25,0.5,0.75,0.25,0.25,-0.48,-0.67,0.83,88.19,10.0,16.4,1.0,0.5,1.75,0.5,0.25,1.25,0.5,0.25,0.5,0.5,0.25,0.75,1.0,0.33,0.2,1.52,135.57,-9.8,7.4
0.28,0.5,0.5,0.75,2.25,0.0,0.75,0.5,0.5,0.25,0.75,1.0,0.25,0.25,-0.36,-0.42,0.83,103.73,9.5,12.0,1.0,0.5,1.75,0.5,0.25,1.0,0.25,0.25,0.5,0.75,0.5,0.75,1.0,0.33,0.27,1.7,134.28,-9.7,1.8
0.3,0.0,0.5,0.75,2.25,0.0,0.75,0.5,0.5,0.25,0.75,1.0,0.0,0.25,-0.17,-0.42,1.14,109.79,7.9,10.7,1.0,0.5,1.5,0.25,1.0,1.25,0.5,0.25,0.5,0.75,0.25,0.75,0.5,0.45,0.2,2.08,132.75,-8.1,13.4
0.32,0.5,0.0,0.75,2.25,0.0,0.75,0.5,0.0,0.25,0.75,0.5,0.25,0.5,-0.05,-0.3,1.45,113.28,10.2,10.8,1.0,0.5,1.25,0.25,0.0,1.0,0.5,0.25,0.5,0.5,0.0,0.75,1.0,0.52,0.89,2.58,126.35,-9.1,1.8
0.34,0.5,0.0,0.75,2.25,0.0,0.75,0.5,0.25,0.25,0.5,1.0,0.0,0.25,-0.11,-0.17,1.52,108.87,11.2,15.0,1.0,0.5,1.25,0.0,0.0,0.75,0.25,0.25,0.5,0.75,0.25,0.75,1.0,0.2,2.14,3.14,117.45,-8.6,-7.1
0.36,0.5,0.0,0.75,2.25,0.0,0.5,0.5,0.5,0.25,0.5,0.75,0.25,0.25,-0.17,-0.17,1.7,111.19,11.3,11.0,1.25,0.5,1.25,0.25,0.0,0.5,0.5,0.25,0.5,0.5,0.25,0.75,1.0,-0.61,3.95,3.02,111.1,-12.1,0.2
0.38,1.5,0.75,1.0,2.75,0.0,2.5,3.5,4.25,2.5,1.5,2.25,0.25,0.0,-0.23,0.14,1.89,173.38,5.2,0.2,1.25,0.75,0.5,0.5,0.25,1.0,0.5,0.25,0.5,0.75,0.25,0.75,1.0,-1.55,5.64,1.08,111.16,-6.2,1.0
0.4,0.0,0.25,0.75,2.25,0.0,0.0,0.5,0.5,0.25,0.5,0.75,0.25,0.25,-0.11,0.7,2.02,163.79,12.1,6.3,0.75,0.5,0.5,0.5,0.0,0.75,0.5,0.25,0.5,1.0,0.25,0.75,1.0,-1.86,6.58,0.2,107.62,-4.6,-15.1
0.42,1.25,0.0,1.0,0.0,0.0,0.0,1.5,1.5,2.0,0.75,1.75,0.25,0.5,0.7,1.83,2.83,169.31,10.8,-21.4,1.25,0.75,0.25,0.25,0.0,1.0,0.5,0.25,0.5,1.5,0.25,0.75,1.0,-2.42,6.08,1.58,109.94,-3.1,-12.0
0.44,1.25,0.0,0.0,1.25,0.0,1.5,1.5,2.0,1.25,0.0,0.0,0.0,0.0,1.45,3.52,2.64,145.22,4.5,16.9,0.75,0.5,0.25,0.0,0.0,2.0,0.0,0.0,1.0,7.5,1.25,6.25,4.5,-2.42,7.95,-0.05,195.34,4.3,-70.6
0.46,0.75,0.25,0.0,1.75,0.0,0.5,3.25,0.25,0.25,0.5,0.25,0.25,0.0,2.02,5.27,0.64,129.0,15.0,24.7,1.25,0.75,0.0,0.5,1.0,3.25,0.5,3.5,1.75,7.75,7.25,6.25,8.0,-0.36,0.14,1.83,336.27,3.5,-60.6
0.48,0.0,0.0,0.75,0.0,0.0,1.0,0.5,0.25,0.0,0.0,0.0,0.0,0.0,2.39,5.64,0.39,87.13,5.2,34.5,2.0,0.0,1.0,3.25,2.75,5.25,1.75,4.5,3.0,7.5,6.25,5.25,6.75,0.27,-0.3,0.89,527.84,1.5,-38.0
0.5,0.0,0.0,0.75,0.25,0.0,0.0,0.5,0.0,0.0,0.5,0.0,0.0,0.0,2.39,5.45,-1.36,58.99,19.1,17.5,3.0,1.5,4.5,7.25,6.25,6.0,3.25,5.5,4.5,8.0,7.5,5.5,6.75,0.02,0.33,0.95,826.14,-2.7,-16.4
0.52,0.0,0.0,0.0,2.5,0.0,1.25,0.5,2.0,1.75,6.5,3.75,6.25,6.25,0.83,0.08,1.83,186.16,-2.7,-68.7,5.0,2.5,7.0,10.5,7.75,7.25,5.5,6.0,5.0,7.25,7.75,4.75,5.75,-0.11,0.02,0.95,1169.29,-5.5,-1.6
0.54,0.0,0.5,0.0,2.5,0.0,2.0,1.0,4.0,2.25,5.25,6.0,4.75,6.5,0.83,0.08,1.14,298.72,-2.5,-59.9,6.25,3.0,8.5,12.5,9.25,7.5,6.75,6.25,5.0,6.0,7.0,3.5,4.5,0.14,0.14,0.95,1439.37,-7.3,9.3
0.56,0.75,1.25,1.75,5.25,0.0,2.75,0.0,4.75,3.0,5.25,0.0,3.0,0.0,-0.11,-0.23,0.95,387.44,1.6,-11.1,7.5,4.0,9.75,14.0,10.5,7.75,7.5,5.75,4.0,4.75,5.25,2.25,3.0,0.02,0.08,1.02,1601.07,-8.9,22.0
0.58,2.25,1.25,2.5,7.75,5.25,3.5,2.25,5.5,5.0,5.25,6.0,3.25,5.0,-0.23,0.27,0.89,577.57,3.1,-13.4,8.5,5.25,11.0,15.5,11.5,8.0,8.0,4.75,2.5,2.5,3.0,1.75,2.75,0.14,0.08,1.02,1698.18,-10.6,34.1
0.6,3.25,2.0,4.25,10.0,6.75,4.75,3.25,5.75,5.75,4.25,6.0,2.5,4.0,0.02,-0.05,1.08,791.41,5.4,0.9,9.25,5.5,11.5,16.5,11.5,7.5,8.0,2.0,1.25,1.75,1.25,1.25,1.75,0.08,0.08,1.08,1705.09,-12.9,45.5
0.62,4.0,2.75,5.75,12.5,8.25,5.25,4.5,6.0,5.75,3.0,5.25,2.25,2.5,-0.17,0.08,1.02,1029.94,7.5,13.6,10.0,5.5,12.0,16.0,11.5,5.5,7.25,0.0,1.0,1.25,1.25,1.0,1.25,0.02,0.2,1.64,1649.17,-15.3,51.6
0.64,5.75,3.5,7.25,14.0,8.75,5.5,5.75,5.75,5.0,2.25,3.5,1.0,1.5,-0.11,0.08,1.02,1249.17,9.7,27.3,9.25,3.75,11.0,11.5,9.0,0.25,5.5,0.25,0.5,0.25,0.0,0.5,0.75,0.27,0.08,1.83,1452.55,-20.0,59.6
0.66,6.25,4.25,8.0,15.5,9.5,5.75,6.0,5.0,3.0,1.25,3.0,1.0,1.5,-0.11,0.08,1.02,1376.2,10.7,34.9,9.0,2.75,9.75,7.25,6.0,0.5,3.5,0.25,0.75,1.0,0.75,0.75,1.5,0.2,0.14,1.7,1167.82,-19.7,50.4
0.68,7.0,4.25,8.25,16.0,10.5,5.5,6.25,3.0,1.25,0.75,1.75,1.0,1.25,-0.11,0.14,1.14,1406.98,12.1,43.8,8.25,2.25,7.0,3.0,0.0,0.5,2.25,0.25,0.5,0.0,0.75,0.5,1.25,0.08,0.33,1.64,743.36,-25.7,54.4
0.7,8.0,4.5,8.75,16.5,10.5,4.75,5.75,1.25,0.75,0.75,1.0,0.75,1.25,-0.17,0.2,1.33,1396.9,13.9,50.1,7.5,1.5,3.75,2.0,0.0,0.75,1.5,0.25,0.5,0.0,0.75,0.5,1.0,0.08,0.83,2.02,432.39,-24.0,52.1
0.72,8.0,4.25,8.75,15.5,9.25,2.5,0.0,0.5,0.75,0.75,1.5,0.25,1.25,-0.17,0.14,1.58,1316.89,15.2,53.0,5.0,0.5,1.75,0.5,0.0,0.5,1.0,0.25,0.5,0.0,0.75,0.75,1.0,0.27,0.39,1.58,233.92,-21.7,34.0
0.74,7.75,3.0,8.0,12.5,6.0,0.5,3.0,0.5,0.25,0.75,1.5,0.25,1.0,-0.23,0.2,1.33,1108.17,18.6,52.8,3.0,0.0,0.25,0.0,0.0,0.5,0.5,0.0,0.5,0.75,0.0,0.0,0.5,0.08,0.52,1.33,64.03,-16.6,32.6
0.76,7.75,2.75,6.5,9.0,3.0,0.0,2.0,0.5,0.5,0.75,1.5,0.25,0.75,-0.3,0.27,1.83,833.2,20.6,52.7,1.25,0.75,0.5,0.5,0.0,1.25,0.5,0.25,0.5,1.0,0.0,0.75,0.0,0.08,0.58,1.14,0.0,-7.6,16.4
0.78,7.75,2.75,4.25,6.25,1.0,0.0,1.5,0.25,0.5,0.75,0.5,0.0,0.75,-0.23,0.58,2.08,590.69,22.3,58.9,2.0,0.5,0.5,0.5,0.0,1.75,0.75,0.5,0.5,0.5,0.25,0.75,1.0,0.27,0.2,1.08,0.0,-6.6,8.0
0.8,6.25,1.25,2.5,4.0,0.0,0.0,1.5,0.5,0.5,0.75,1.25,0.0,0.75,-0.23,0.64,2.33,378.49,21.9,46.1,1.25,0.5,2.25,0.5,0.0,1.75,0.5,0.25,0.5,0.75,0.25,0.75,0.25,0.33,1.33,1.14,0.0,-12.1,20.3
0.82,5.25,1.0,2.0,2.75,0.0,0.0,1.0,0.5,0.5,0.75,1.5,0.0,0.5,-0.55,0.39,1.33,238.95,21.4,41.5,1.25,0.5,1.75,0.25,0.0,1.25,0.5,0.25,0.5,0.75,0.25,0.75,1.0,0.77,0.08,1.89,0.0,-10.0,4.4
0.84,3.75,0.5,1.75,2.5,0.0,0.0,1.0,0.5,0.5,0.75,1.5,0.25,0.25,-0.05,0.83,1.58,139.63,20.5,32.3,1.25,0.75,1.75,0.25,0.0,1.0,0.5,0.25,0.5,0.75,0.5,0.75,1.0,0.52,0.02,1.95,0.0,-10.9,4.2
0.86,1.25,0.25,1.0,2.0,0.0,0.0,1.0,0.5,0.5,0.75,1.5,0.0,0.5,-0.48,0.33,2.02,52.02,14.8,8.6,1.5,0.5,1.75,0.5,0.0,1.25,0.5,0.25,0.5,0.75,0.5,0.75,1.0,1.02,0.27,2.83,6.09,-10.8,6.1
0.88,0.0,0.0,0.75,1.75,0.0,0.0,0.5,0.5,0.5,0.25,0.75,0.25,0.25,-0.86,0.2,1.7,0.0,12.9,-1.4,1.25,0.5,1.75,0.5,0.0,1.25,0.5,0.25,0.5,0.75,0.25,0.75,1.0,1.27,-0.11,2.89,52.22,-10.2,5.9
0.9,0.25,0.0,1.0,2.25,0.0,0.0,0.75,0.5,0.25,0.5,1.0,0.0,0.5,-0.98,0.77,2.08,0.0,13.4,5.3,0.75,0.5,1.75,0.5,0.0,1.25,0.5,0.25,0.5,0.75,0.25,0.75,0.5,1.33,-0.36,2.33,80.2,-10.3,8.1
0.92,0.0,0.0,1.0,2.0,0.0,0.0,0.5,0.0,0.25,0.5,1.25,0.25,0.75,-1.05,-0.3,2.2,0.0,13.1,-9.4,1.25,0.5,1.75,0.25,0.0,1.25,0.5,0.25,0.5,0.75,0.25,0.75,0.5,1.45,-0.55,1.7,105.32,-11.4,11.6
0.94,0.0,0.25,1.0,2.0,0.0,1.0,0.75,0.0,0.5,0.5,0.0,0.25,0.5,-0.92,0.08,3.08,0.0,9.6,17.2,1.0,0.5,0.75,0.25,0.0,1.25,0.75,0.25,0.5,0.75,0.25,0.75,0.25,1.02,-0.92,1.08,108.84,-7.9,6.0
0.96,0.5,0.0,0.75,2.25,0.0,0.75,0.75,0.0,0.25,0.75,0.0,0.0,0.5,-0.92,-0.17,2.64,0.0,10.6,22.7,1.0,0.5,1.75,0.25,0.0,1.0,0.5,0.25,0.5,0.75,0.25,0.75,0.75,0.64,-0.61,1.33,116.33,-11.0,4.5
0.98,0.5,0.0,0.75,2.25,0.0,0.75,0.5,0.5,0.25,0.75,1.0,0.25,0.75,-1.23,-0.42,1.77,23.66,7.8,-1.3,0.5,0.5,1.5,0.5,0.0,1.25,0.5,0.25,0.5,0.75,0.25,0.75,0.0,0.45,-0.36,1.58,113.96,-10.2,11.8
1.0,0.75,0.0,0.75,2.25,0.0,0.75,0.5,0.5,0.25,0.75,1.0,0.25,0.75,-1.36,-0.73,1.27,58.05,8.6,1.4,0.75,0.5,1.75,0.25,0.0,1.25,0.5,0.25,0.5,0.75,0.25,0.75,0.25,0.39,0.14,1.64,111.73,-10.8,10.4
1.02,0.75,0.0,0.75,2.25,0.0,0.75,0.5,0.5,0.25,0.75,1.0,0.0,0.75,-0.98,-0.92,0.83,85.37,8.5,4.9,0.75,0.5,1.75,0.5,0.0,1.0,0.5,0.25,0.5,0.75,0.25,0.75,0.25,0.39,0.39,1.58,109.29,-12.1,11.3
1.04,0.5,0.0,0.75,2.25,0.0,0.75,0.5,0.5,0.25,0.75,1.25,0.25,0.25,-0.23,-0.67,1.33,102.08,9.3,3.5,0.75,0.5,1.75,0.0,0.0,1.25,0.5,0.25,0.5,0.75,0.25,0.75,0.75,0.45,0.33,1.77,111.23,-9.0,0.7
1.06,0.75,0.0,0.75,2.25,0.0,0.75,0.5,0.5,0.25,0.75,1.5,0.0,0.5,-0.36,-0.23,1.33,113.47,9.4,3.7,0.5,0.5,1.75,0.25,0.0,1.0,0.5,0.25,0.5,0.5,0.25,0.75,0.75,0.45,0.33,2.08,110.24,-10.3,1.2
1.08,0.75,0.0,0.75,2.75,0.0,1.0,0.5,0.5,0.25,0.75,1.5,0.25,0.5,-0.42,-0.05,1.39,126.48,9.0,4.5,0.5,0.5,1.75,0.5,0.0,1.0,0.5,0.25,0.5,0.75,0.5,0.75,0.75,0.52,0.58,2.45,112.76,-9.8,-1.6
1.1,0.75,0.25,0.75,2.25,0.0,0.75,0.5,0.25,0.25,0.75,1.25,0.0,0.0,-0.36,-0.05,1.95,130.1,11.9,18.8,0.75,0.5,1.75,0.5,0.0,1.0,0.5,0.0,0.5,1.5,0.25,1.0,0.75,0.39,1.95,2.89,118.58,-8.9,-5.2
1.12,0.5,0.25,1.0,2.25,0.0,0.75,0.5,0.5,0.25,0.5,1.5,0.25,0.5,-0.3,0.02,2.64,134.24,10.4,4.8,0.75,0.5,1.5,0.25,0.0,0.75,0.5,0.25,0.5,0.75,0.25,0.75,1.0,-0.3,3.7,3.27,119.05,-9.5,-5.2
1.14,0.5,0.25,0.75,2.25,0.0,0.75,0.5,0.5,0.25,0.5,1.5,0.0,0.5,-0.3,0.33,2.77,130.38,9.5,6.5,0.5,0.5,1.5,0.5,0.0,1.0,0.5,0.25,0.5,0.75,0.25,0.75,1.0,-1.05,5.08,2.39,119.88,-8.0,-4.9
1.16,0.5,0.0,0.75,1.0,0.0,0.5,0.5,0.5,0.25,0.75,1.5,0.25,0.5,-0.11,1.02,3.7,121.43,8.1,-15.3,0.75,0.5,0.75,0.5,0.0,1.0,0.5,0.25,0.5,0.75,0.25,0.75,1.0,-1.92,6.83,0.33,115.64,-5.6,-8.7
1.18,0.5,0.0,0.75,2.25,0.0,0.75,0.5,0.5,0.25,0.5,1.25,0.0,0.5,0.83,3.27,3.33,116.4,9.4,6.0,0.5,0.5,0.5,0.5,0.0,1.0,0.5,0.25,0.5,0.75,0.0,0.75,1.0,-2.36,5.95,-0.17,109.1,-3.1,-12.8
1.2,0.5,0.25,0.75,2.0,0.0,0.75,0.5,0.5,0.25,0.75,1.5,0.0,0.75,1.89,5.27,2.2,116.8,7.8,-1.1,0.5,0.5,0.5,0.25,0.0,0.75,0.5,0.25,0.5,1.75,0.25,2.0,1.0,-2.61,5.58,2.02,111.82,-2.2,-39.8
1.22,0.5,0.0,0.75,1.0,0.0,0.75,0.5,0.5,1.25,0.0,1.5,0.75,0.5,2.89,5.77,0.77,115.1,10.0,-17.0,0.5,0.75,0.5,0.5,0.0,2.0,0.25,0.5,1.25,8.75,2.75,7.75,7.75,-0.86,4.89,0.14,239.98,3.8,-72.4
1.24,0.75,0.5,0.75,2.5,0.0,2.75,0.5,0.5,2.25,0.25,1.0,0.5,0.0,5.45,4.83,-1.42,137.32,7.0,13.6,0.5,0.0,0.5,0.5,1.0,3.25,0.5,4.5,1.75,7.75,7.75,5.75,8.25,-1.05,0.2,1.89,385.65,4.3,-64.1
1.26,0.0,0.0,0.0,0.0,0.0,0.5,3.25,0.25,0.0,2.0,0.0,2.5,0.0,3.14,5.52,0.77,132.7,3.8,-55.4,2.0,1.25,2.75,5.25,3.5,5.5,1.75,4.75,3.0,7.75,6.5,5.0,6.0,-0.42,-0.36,0.89,616.52,-0.7,-25.0
1.28,0.0,0.5,0.75,2.25,0.0,1.5,1.0,2.75,2.25,7.25,6.25,6.75,8.0,0.58,5.2,7.58,273.88,-1.5,-65.6,3.0,2.0,6.25,9.0,6.5,6.25,4.0,5.75,4.5,8.0,7.75,5.5,6.25,0.27,0.14,0.89,933.79,-4.1,-10.8
1.3,0.25,0.5,0.5,1.5,0.0,1.75,0.5,4.5,2.75,5.5,7.0,4.25,6.5,0.45,0.7,1.45,379.58,-2.2,-61.1,4.5,2.5,7.5,11.0,8.0,7.25,5.75,6.5,5.0,7.25,7.75,4.75,5.75,0.08,-0.05,1.02,1275.24,-5.5,-1.4
1.32,0.75,1.25,2.5,7.0,3.75,3.5,0.0,5.0,4.0,5.5,5.5,3.5,5.0,0.08,0.52,1.08,569.04,1.4,-20.6,6.0,3.25,9.0,13.5,9.0,7.5,6.75,6.5,4.5,6.0,6.75,3.5,4.5,0.27,0.14,1.02,1493.91,-7.4,10.5
1.34,2.5,1.5,3.75,10.0,6.75,4.25,2.5,5.75,5.75,6.0,7.0,4.25,5.0,-0.17,0.08,0.89,805.05,4.1,-9.6,7.5,4.0,9.75,15.5,10.5,7.75,7.5,5.75,3.75,3.75,4.75,2.25,3.0,0.02,0.08,1.02,1633.74,-9.4,24.6
1.36,3.75,2.75,5.5,12.5,8.0,5.25,4.0,6.25,6.0,5.25,7.0,3.25,4.0,0.02,-0.05,1.02,1090.28,6.1,3.5,8.25,4.75,11.0,16.0,11.5,7.75,7.75,4.5,1.75,2.75,2.5,1.75,2.5,0.08,0.08,1.02,1703.08,-10.7,35.4
1.38,5.25,4.0,7.25,13.5,8.5,5.5,5.25,6.0,6.0,3.75,6.0,2.25,2.5,-0.23,0.08,1.02,1323.7,8.6,16.4,8.75,5.25,11.5,17.0,11.5,7.25,7.5,2.0,1.0,1.75,1.25,1.0,1.75,0.14,0.14,1.08,1689.16,-12.9,46.0
1.4,6.25,4.5,8.0,15.0,9.25,6.0,6.0,5.75,4.75,2.0,4.0,1.0,1.5,-0.05,0.08,1.02,1443.21,10.1,29.8,8.5,3.75,11.5,14.0,10.5,3.25,6.75,0.0,0.5,0.0,0.25,0.5,1.0,0.08,0.14,1.64,1550.07,-17.3,57.0
1.42,7.0,5.25,8.75,16.0,10.5,6.0,6.5,4.0,2.25,0.75,2.5,0.75,1.25,-0.11,0.14,1.02,1495.24,11.7,41.6,9.0,4.75,9.25,13.0,7.75,2.25,4.25,0.25,0.5,0.75,0.75,0.75,1.75,0.14,0.08,1.64,1374.31,-16.9,52.7
1.44,7.75,5.5,9.0,16.5,10.5,5.25,6.25,2.0,1.0,0.75,1.5,0.75,1.25,-0.11,0.14,1.27,1478.35,13.3,48.3,8.25,2.5,9.0,7.25,5.5,0.5,2.5,0.5,0.5,0.25,0.75,0.5,1.0,0.14,0.2,1.89,1038.92,-20.3,54.9
1.46,8.0,5.0,9.0,16.0,9.75,3.5,5.0,0.5,0.75,0.75,0.5,0.5,1.25,-0.17,0.14,1.77,1403.45,15.2,53.7,7.5,2.0,5.25,5.25,0.0,0.75,1.75,0.25,0.5,1.0,0.0,0.75,0.75,0.14,0.39,1.45,669.81,-22.8,53.0
1.48,8.25,4.25,8.5,13.5,8.25,0.75,3.0,0.5,0.75,0.5,1.75,0.25,1.25,-0.23,0.14,1.64,1257.56,17.3,52.9,5.5,1.5,1.75,0.75,0.0,0.5,1.25,0.25,0.5,0.75,0.5,0.25,1.0,0.14,0.83,2.27,364.73,-20.1,42.7
1.5,8.0,4.0,8.0,10.0,6.0,0.0,1.75,0.5,0.5,0.75,1.5,0.25,1.0,-0.3,0.2,1.7,1016.53,18.8,53.9,3.75,0.0,0.0,0.75,0.0,0.5,0.75,0.0,0.5,0.75,0.0,0.5,0.25,0.33,0.58,1.89,173.98,-18.5,35.9
1.52,7.75,2.75,5.5,6.25,0.75,0.0,1.25,0.5,0.5,0.75,0.75,0.0,1.0,-0.23,0.33,2.14,698.56,22.5,55.5,3.25,0.75,1.25,0.5,0.0,1.75,1.0,0.25,0.5,0.75,0.75,0.75,0.0,0.08,0.45,1.45,28.64,-14.6,30.7
1.54,7.0,1.5,2.5,4.0,0.0,0.0,1.0,0.5,0.5,0.75,1.5,0.25,0.75,-0.48,0.77,2.52,445.34,21.8,45.4,2.0,0.75,1.75,0.5,0.0,1.5,1.0,0.25,0.5,0.75,0.25,0.75,0.75,0.2,0.52,1.33,0.0,-12.3,18.8
1.56,5.25,1.25,1.75,2.5,0.0,0.25,1.0,0.5,0.5,0.5,1.5,0.0,0.75,-0.55,0.27,1.52,268.04,20.3,41.1,0.5,0.75,1.75,0.5,0.0,0.75,0.75,0.25,0.5,0.5,0.75,0.75,1.0,0.64,0.77,1.45,0.0,-11.2,-2.3
1.58,3.5,0.75,1.5,2.5,0.0,0.25,0.5,0.5,0.0,0.75,1.5,0.0,0.5,-0.42,0.64,1.77,142.92,18.4,34.8,0.5,0.75,0.0,0.5,1.0,1.25,0.5,0.75,0.5,0.5,0.5,0.75,1.0,0.45,1.33,0.77,0.0,0.5,-6.7
1.6,2.25,0.5,1.5,1.25,0.0,0.0,0.75,0.5,0.25,0.5,1.5,0.0,0.5,-0.48,0.2,2.08,41.91,18.6,22.5,0.5,0.5,2.25,0.0,0.0,0.5,0.5,0.25,0.5,0.0,0.0,0.25,1.0,1.02,0.33,2.14,0.0,-16.3,15.1
1.62,0.5,0.0,1.0,1.25,0.0,0.0,0.5,0.5,2.5,0.0,1.5,0.0,0.75,-1.23,0.39,1.52,0.0,13.7,-14.3,0.0,0.0,1.75,0.0,0.0,0.5,0.5,0.25,0.5,0.0,0.0,0.5,0.0,1.08,0.14,2.52,0.0,-19.2,13.1
1.64,2.75,0.25,1.5,1.5,0.0,0.0,4.5,4.25,2.75,0.0,2.75,0.25,0.0,-1.3,1.2,2.02,8.86,13.4,1.2,0.0,0.0,0.25,0.0,0.0,0.5,0.0,0.0,0.5,0.0,0.0,0.0,0.0,0.95,0.45,3.14,0.0,-4.1,10.4
1.66,1.5,0.0,1.0,1.5,0.0,0.0,4.25,3.75,2.75,0.0,1.25,0.0,0.0,-1.55,-0.23,2.02,33.56,12.0,0.3,1.25,0.5,0.0,0.25,0.0,1.0,0.0,0.0,0.5,0.75,0.0,0.75,0.0,1.14,-0.17,2.45,0.0,-6.3,11.2
1.68,2.75,1.25,0.25,2.75,0.0,0.0,4.5,3.75,1.25,0.75,1.0,0.25,0.0,-1.11,-0.17,2.08,89.06,11.6,16.8,0.5,0.5,1.75,0.5,0.0,1.25,0.5,0.25,0.5,0.75,0.25,0.75,1.0,1.45,-0.23,2.14,16.02,-8.1,-1.8
1.7,1.75,0.25,1.0,2.25,0.0,0.0,1.0,0.5,0.25,0.75,0.0,0.0,0.5,-0.92,0.27,2.95,89.59,16.9,32.9,0.5,0.5,1.75,0.5,0.0,0.75,0.5,0.25,0.5,0.75,0.25,0.75,1.0,1.2,-0.48,1.33,65.23,-9.9,-3.9
1.72,1.0,0.5,0.75,2.5,0.0,0.0,0.5,0.5,0.25,0.75,1.5,0.0,0.5,-0.86,-0.11,2.52,96.56,13.2,11.2,0.5,0.5,1.75,0.5,0.0,1.0,0.5,0.25,0.5,0.75,0.25,0.75,1.0,0.83,-0.86,0.64,98.99,-9.0,-2.8
1.74,1.5,0.25,0.75,2.25,0.0,0.0,0.5,0.5,0.25,0.5,1.5,0.0,0.5,-1.3,-0.48,1.89,91.54,15.2,14.5,0.75,0.5,1.0,0.5,0.5,1.0,0.75,0.5,0.5,0.75,0.25,0.75,0.75,0.45,-0.86,1.02,114.78,-6.3,0.6
1.76,1.5,0.25,0.75,2.25,0.0,0.0,0.5,0.5,0.25,0.75,1.5,0.25,0.75,-1.11,-0.73,0.77,106.75,13.3,5.0,0.75,0.5,1.5,0.25,0.0,1.0,0.5,0.25,0.5,1.0,0.25,0.75,0.75,0.02,-0.55,1.52,115.94,-8.5,-2.8
1.78,1.25,0.25,1.0,2.25,0.0,0.5,1.0,0.75,0.25,0.75,1.75,0.25,0.25,-0.86,-0.67,0.7,119.35,12.8,9.2,0.5,0.5,1.5,0.5,0.0,1.0,0.5,0.25,0.5,0.75,0.25,0.75,0.75,-0.11,-0.17,1.64,117.31,-8.7,-1.3
1.8,1.25,0.5,1.0,2.5,0.0,0.75,0.75,0.5,0.5,0.5,1.75,0.0,0.5,-0.61,-0.42,0.83,134.11,12.6,15.1,0.5,0.5,1.5,0.25,0.0,0.75,0.5,0.25,0.5,0.5,0.0,0.75,0.5,0.2,0.14,1.58,113.87,-11.4,5.0
1.82,2.5,1.0,0.75,2.5,0.0,1.25,1.0,0.5,1.5,0.5,0.75,0.5,0.25,-0.42,-0.42,1.27,155.58,13.6,26.7,0.75,0.5,1.75,0.5,0.0,1.25,0.5,0.25,0.5,0.5,0.25,0.75,0.75,0.45,0.27,1.64,118.41,-10.3,6.9
1.84,1.25,0.0,0.75,1.25,0.0,0.25,0.75,1.0,0.25,0.75,0.75,0.0,0.0,-0.48,-0.05,1.45,140.88,12.4,14.5,0.75,0.5,1.75,0.5,0.0,0.75,0.5,0.25,0.5,0.75,0.25,0.75,0.25,0.39,0.27,1.89,119.48,-13.3,10.6
1.86,2.25,0.25,0.75,1.75,0.0,2.25,0.5,1.5,2.5,0.0,2.5,0.25,0.25,-0.67,0.2,1.58,159.6,8.9,5.0,0.5,0.5,1.75,0.25,0.0,0.75,0.5,0.25,0.5,0.75,0.0,0.75,0.0,0.39,0.52,2.45,116.65,-13.5,13.6
1.88,0.0,0.0,1.5,1.25,0.0,1.75,3.75,3.75,2.25,0.0,1.0,0.0,0.0,-0.67,0.2,2.39,164.62,5.7,-2.1,0.5,0.5,1.5,0.25,0.0,0.75,0.5,0.25,0.5,0.75,0.25,0.75,0.75,0.27,1.77,2.95,112.28,-9.5,-4.8
1.9,1.25,0.0,0.25,0.0,0.0,1.25,3.75,3.75,1.75,0.0,1.0,0.0,0.0,-0.61,0.45,2.7,174.47,4.6,-6.0,0.5,0.5,0.75,0.25,0.5,0.75,0.5,0.5,0.5,0.75,0.0,0.75,0.5,-0.42,3.45,2.95,103.61,-4.8,-1.9
1.92,0.0,0.0,0.0,0.0,0.0,1.0,4.0,2.25,1.75,0.0,0.0,0.0,0.0,-0.48,0.95,3.95,152.75,3.4,-10.1,0.5,0.5,1.0,0.5,0.0,0.75,0.5,0.25,0.5,0.75,0.25,0.75,0.0,-1.23,5.27,1.52,96.13,-10.4,5.8
1.94,1.75,0.0,0.0,0.0,0.0,0.25,3.75,2.25,1.25,0.0,0.0,0.0,0.0,-0.05,2.2,4.2,139.28,12.2,11.5,0.5,0.5,1.0,0.5,0.0,0.75,0.5,0.25,0.5,0.75,0.0,0.75,1.0,-1.8,6.27,0.58,95.75,-6.7,-8.8
1.96,0.0,0.0,0.0,0.0,0.0,0.0,3.25,0.5,1.75,0.0,0.0,0.0,0.0,1.02,4.45,2.58,99.78,16.6,-11.4,0.5,0.5,0.5,0.5,0.0,0.5,0.5,0.25,0.5,0.75,0.25,0.75,1.0,-2.8,6.27,1.33,93.53,-5.3,-18.8
1.98,0.75,0.0,0.75,0.0,0.0,0.0,0.5,3.5,0.0,0.0,1.25,0.0,0.25,2.14,5.52,1.7,86.17,1.8,-19.9,0.5,0.5,0.5,0.0,0.0,0.75,0.25,0.25,0.5,7.0,1.25,6.25,3.25,-3.11,7.95,-0.86,172.18,2.6,-74.0
2.0,0.0,0.0,0.0,0.0,0.0,0.0,0.75,0.0,0.0,0.0,0.0,0.0,0.0,2.64,5.77,0.45,47.22,32.4,27.3,0.5,0.5,0.5,0.5,0.25,2.75,0.5,3.25,1.25,8.25,7.5,7.0,9.0,1.14,0.89,7.95,321.94,3.7,-69.1
2.02,0.75,0.0,0.75,0.25,0.0,0.75,4.0,3.75,0.25,0.75,1.0,0.25,0.0,2.02,4.95,0.02,72.13,4.3,-10.1,1.5,0.75,0.0,2.75,1.75,4.75,1.0,4.5,2.5,7.75,6.75,5.0,7.5,-0.61,-0.55,0.83,509.25,3.1,-45.4
2.04,0.0,0.0,0.0,0.25,0.0,0.0,0.5,0.0,0.0,4.75,0.0,4.75,0.0,2.14,7.95,-0.17,97.65,-2.0,-85.8,2.0,1.5,4.0,5.75,6.0,6.0,2.25,5.75,3.75,8.25,6.25,5.5,6.75,0.77,0.95,0.89,778.72,-1.0,-20.1
2.06,1.25,0.5,0.0,0.75,0.0,1.5,0.5,3.75,2.25,6.75,7.25,6.25,7.75,0.7,1.2,7.83,260.13,-2.2,-67.3,3.0,2.5,6.25,9.0,7.5,6.5,4.75,6.5,5.0,8.0,8.5,5.25,6.75,0.2,0.08,1.02,1096.97,-3.9,-10.2
2.08,0.75,1.25,0.0,4.25,0.0,2.75,0.75,4.25,3.25,5.25,6.5,3.75,6.0,0.45,0.2,0.7,384.24,-0.7,-44.2,5.0,3.0,8.25,12.5,9.0,7.25,6.5,6.5,5.0,7.0,7.5,4.0,5.75,0.14,0.14,0.95,1398.75,-6.2,3.6
2.1,2.25,1.25,2.5,8.0,5.25,3.5,1.75,5.0,5.0,5.25,6.0,3.25,4.0,-0.23,0.58,0.95,606.72,3.6,-11.1,6.25,3.75,9.5,14.0,10.5,7.5,7.0,6.5,4.5,5.5,6.25,2.75,4.0,0.14,0.08,1.02,1583.99,-7.8,15.5
2.12,3.75,2.75,4.25,11.0,7.0,4.75,3.0,5.75,6.0,5.25,6.75,3.25,4.0,-0.17,0.14,0.95,871.9,5.6,0.5,7.5,4.75,10.5,15.5,10.5,7.75,7.5,5.5,3.0,3.5,4.0,2.0,3.0,0.08,0.14,1.02,1693.13,-9.8,28.0
2.14,5.0,3.0,6.5,12.5,8.25,5.5,4.5,5.75,6.0,4.0,6.25,2.25,2.75,0.02,0.08,1.02,1153.79,7.8,12.7,8.25,5.25,11.0,17.0,11.5,7.5,7.5,3.25,1.25,2.25,2.25,1.25,2.0,0.14,0.14,1.08,1717.03,-11.7,40.7
2.16,6.25,4.25,7.5,14.5,9.0,5.5,5.5,5.75,5.75,2.25,5.0,1.0,1.75,-0.17,0.08,1.02,1357.0,9.9,25.8,8.25,4.0,12.0,15.0,11.5,3.25,6.75,0.75,0.5,0.0,0.5,0.75,1.75,0.08,0.14,1.64,1609.25,-16.2,52.7
2.18,7.0,4.75,8.75,15.5,9.75,6.0,6.0,4.75,4.0,1.5,3.5,1.0,1.5,-0.05,0.08,1.02,1464.72,11.1,34.5,9.0,4.75,10.5,15.0,9.0,3.25,5.25,0.5,0.75,0.75,0.75,0.75,1.5,0.14,0.08,1.89,1471.31,-16.4,52.5
2.2,7.5,5.5,9.25,16.0,10.5,5.75,6.25,2.75,1.5,0.75,2.5,0.5,1.25,-0.11,0.14,1.08,1502.27,12.7,45.3,8.75,4.0,9.75,11.0,6.5,1.25,3.0,0.5,0.5,1.5,1.0,1.0,1.25,0.14,0.08,1.58,1249.56,-17.9,50.1
2.22,8.0,5.0,9.25,16.0,10.5,4.25,5.5,0.75,0.75,0.75,1.5,0.25,1.25,-0.17,0.2,1.45,1458.45,14.5,51.7,7.75,3.25,7.25,5.75,3.0,1.25,2.25,0.5,0.5,1.5,0.75,0.75,1.25,0.02,0.2,1.52,903.51,-18.6,47.6
2.24,8.25,4.75,9.25,15.0,9.25,2.75,3.75,0.5,0.25,0.75,1.5,0.25,1.25,-0.3,0.08,1.7,1367.8,15.8,53.5,6.25,1.75,3.5,2.0,0.0,1.0,1.75,0.25,0.5,0.25,0.5,0.75,1.0,0.02,0.7,1.52,538.83,-21.8,47.1
2.26,8.25,4.25,0.0,12.5,7.75,0.75,2.25,0.5,0.25,0.75,0.75,0.25,1.25,-0.17,0.14,1.64,1102.39,12.9,54.6,4.5,0.0,1.75,0.5,0.0,1.5,1.25,0.25,0.5,0.75,1.0,0.75,0.5,-0.23,0.95,2.58,291.0,-17.2,26.0
2.28,8.0,3.0,7.75,9.0,3.75,0.0,1.0,0.5,0.25,0.75,0.0,0.25,1.0,-0.36,0.2,1.83,836.38,20.8,58.7,4.5,0.0,1.75,0.25,0.0,1.75,1.25,0.25,0.5,0.75,0.25,0.75,1.0,0.27,0.58,1.58,133.6,-15.5,25.8
2.3,7.5,2.5,5.5,6.25,0.0,0.75,1.0,0.5,0.25,0.75,0.0,0.0,0.75,-0.3,0.39,1.83,554.92,22.9,60.6,2.25,0.75,1.75,0.5,0.0,1.25,1.0,0.25,0.5,0.5,0.5,0.75,1.0,0.08,0.7,1.2,11.94,-13.6,17.1
2.32,6.25,1.25,2.5,4.0,0.0,0.0,1.0,0.5,0.0,0.75,0.0,0.0,0.5,-0.3,0.77,2.39,350.94,23.5,60.6,1.5,0.5,1.75,0.5,0.0,1.25,1.0,0.25,0.5,0.75,0.25,0.75,0.75,0.33,0.52,1.27,0.0,-12.0,12.1
2.34,4.75,1.0,2.25,3.0,0.0,0.75,0.75,0.0,0.0,0.5,0.0,0.0,0.75,-0.67,0.58,1.77,214.26,21.7,58.1,0.5,0.5,1.75,0.5,0.0,1.25,0.75,0.25,0.5,0.5,0.25,0.75,1.0,0.2,0.89,1.14,0.0,-9.1,0.8
2.36,2.75,0.75,1.75,2.0,0.0,0.75,0.5,0.25,0.0,0.0,0.0,0.0,0.75,-0.42,0.52,1.7,95.48,19.7,53.7,0.5,0.25,1.75,0.5,0.0,1.25,0.5,0.25,0.5,0.5,0.25,0.75,1.0,0.64,1.39,2.02,0.0,-8.7,-2.7
2.38,1.0,0.0,0.75,2.0,0.0,0.0,0.0,0.0,0.0,0.0,0.0,0.0,0.0,-0.67,0.2,1.58,0.0,25.8,68.3,0.5,0.5,1.0,0.5,0.0,1.0,0.5,1.0,0.5,0.5,0.25,0.75,1.0,0.83,0.39,2.14,0.0,-4.3,-10.3
2.4,2.25,0.0,0.75,2.25,0.0,0.0,0.25,0.0,0.25,0.5,0.0,0.0,0.25,-0.92,0.95,1.39,0.0,21.8,49.8,0.0,0.0,2.0,0.0,0.0,0.75,0.5,0.25,0.5,0.0,0.25,0.75,1.0,1.02,0.39,2.7,0.0,-11.6,-14.8
2.42,2.0,0.25,0.75,2.0,0.0,0.0,0.5,0.5,0.0,0.75,0.75,0.0,1.0,-1.3,1.08,2.02,0.0,14.0,16.9,0.5,0.5,1.75,0.5,0.0,1.25,0.5,0.25,0.5,0.75,0.25,0.75,1.0,1.27,0.52,3.58,0.0,-8.1,-1.8
2.44,1.0,0.0,0.75,1.5,0.0,0.0,0.5,0.5,0.25,0.75,0.0,0.25,0.75,-1.36,0.08,2.14,0.0,11.8,6.3,0.5,0.5,1.75,0.0,0.0,0.5,0.5,0.25,0.5,0.0,0.0,0.75,1.0,1.08,-0.42,2.45,26.28,-13.8,0.9
2.46,1.75,0.0,0.75,2.0,0.0,0.0,0.5,0.5,0.25,0.75,0.0,0.0,0.75,-1.17,0.2,2.52,0.0,14.6,23.4,0.5,0.5,1.75,0.5,0.0,1.0,0.5,0.25,0.5,0.75,0.25,0.75,1.0,1.39,-0.3,2.14,67.05,-9.0,-2.8
2.48,0.5,0.0,0.75,0.5,0.0,0.0,0.5,0.0,0.0,0.0,0.0,0.0,0.0,-1.05,0.08,3.08,0.0,31.3,64.7,0.5,0.5,1.75,0.25,0.0,1.25,0.0,0.25,0.5,0.75,0.25,0.75,1.0,1.2,-0.55,1.39,91.45,-7.0,-4.7
2.5,0.5,0.0,1.0,0.25,0.0,0.0,0.5,0.5,0.25,0.75,0.0,0.0,0.25,-1.05,-0.3,2.27,0.0,12.6,4.3,0.0,0.0,1.75,0.0,0.0,1.0,0.25,0.25,0.5,0.0,0.0,0.25,0.0,0.89,-0.92,0.89,86.18,-14.3,23.1
2.52,0.5,0.0,1.0,1.25,0.0,1.0,1.5,2.25,2.0,1.0,0.5,0.0,0.0,-1.23,-0.48,1.89,30.6,5.4,-3.8,0.5,0.5,0.25,0.5,0.0,1.0,0.0,0.25,0.5,0.75,0.0,0.75,0.25,0.58,-0.8,1.02,78.2,-2.5,-3.9
2.54,0.75,0.0,0.75,2.25,0.0,0.25,0.5,0.5,0.5,0.75,1.0,0.25,0.75,-0.73,-0.67,0.7,71.89,10.5,-1.6,0.5,0.5,0.75,0.5,0.25,1.0,0.5,0.5,0.5,0.75,0.25,0.75,0.75,0.45,-0.36,1.33,82.98,-4.2,-7.1
2.56,1.0,0.25,1.25,2.25,0.0,0.0,0.5,0.0,0.0,0.0,0.0,0.0,0.0,-0.61,-0.42,0.83,91.24,26.3,66.6,0.5,0.75,1.25,0.25,0.25,1.0,0.5,0.25,0.5,0.75,0.25,0.75,0.75,0.39,-0.05,1.58,93.98,-7.1,0.0
2.58,0.5,0.0,0.75,0.25,0.0,0.0,0.25,0.0,0.0,0.0,0.0,0.0,0.0,-0.42,-0.42,1.14,74.38,33.5,68.6,0.5,0.5,1.5,0.25,0.0,1.0,0.5,0.25,0.5,0.75,0.25,0.75,0.5,0.45,0.2,1.77,101.64,-9.3,0.3
2.6,0.5,0.0,0.75,0.25,0.0,0.0,0.5,0.0,0.0,0.0,0.0,0.0,0.0,-0.42,-0.23,1.27,54.65,33.4,65.8,0.5,0.5,1.5,0.25,0.0,1.0,0.5,0.25,0.5,0.75,0.25,0.75,0.75,0.58,0.27,2.02,108.32,-8.4,-3.5
2.62,0.5,0.0,0.75,0.5,0.0,0.25,0.25,0.0,0.0,0.0,0.0,0.0,0.0,-0.55,-0.05,1.45,34.77,25.2,63.4,0.5,0.75,1.75,0.25,0.0,1.0,0.5,0.25,0.5,0.75,0.25,0.75,0.5,0.58,0.39,2.58,112.11,-10.4,5.8
2.64,0.5,0.0,0.75,0.25,0.0,0.25,0.25,0.0,0.0,0.0,0.0,0.0,0.0,-0.67,0.14,1.7,22.73,26.3,64.2,0.5,0.75,1.5,0.25,0.0,0.75,0.5,0.25,0.5,0.75,0.25,0.75,0.75,0.45,1.14,3.02,112.69,-9.6,-1.1
2.66,0.5,0.0,0.75,0.25,0.0,0.25,0.75,0.5,0.0,0.0,0.25,0.0,0.25,-0.61,0.2,2.33,26.82,15.2,19.3,0.5,0.5,1.5,0.25,0.0,1.0,0.5,0.25,0.5,0.75,0.0,0.75,0.75,0.08,2.7,3.27,110.76,-8.4,-1.0
2.68,0.25,0.0,0.75,0.5,0.0,0.0,0.5,0.5,0.0,0.0,0.0,0.0,0.0,-0.55,0.45,2.77,29.9,20.3,38.5,0.5,0.5,1.75,0.25,0.0,1.0,0.5,0.25,0.5,0.5,0.25,0.75,0.0,-0.55,4.52,2.7,109.3,-13.2,14.5
2.7,1.0,0.0,1.0,0.5,0.0,2.5,0.75,0.5,2.5,0.0,1.0,0.0,0.5,-0.61,0.89,3.39,70.03,6.6,3.1,0.5,0.75,1.0,0.5,0.5,1.0,0.5,0.5,0.5,0.75,0.25,0.75,0.5,-1.23,6.58,1.02,112.01,-5.9,4.2
2.72,1.5,0.0,0.25,1.25,0.0,0.0,4.5,4.25,0.0,0.0,1.25,0.0,0.0,-0.17,2.33,3.52,109.57,8.7,2.9,0.5,0.5,0.75,0.5,0.0,1.0,0.5,0.25,0.5,0.75,0.25,0.75,1.0,-2.11,6.58,0.08,111.46,-4.6,-12.3
2.74,0.5,0.0,0.0,2.0,0.0,0.75,0.0,0.0,0.25,0.75,0.0,0.0,0.0,0.89,4.33,2.52,111.33,6.4,29.2,0.5,0.5,0.5,0.0,0.0,0.75,0.5,0.25,0.5,1.75,0.25,1.25,1.0,-2.61,5.83,-0.17,114.5,-1.0,-36.2
2.76,0.5,0.0,0.75,0.25,0.0,0.5,0.5,0.5,0.25,0.0,0.0,0.0,0.5,2.08,5.58,1.83,95.77,10.0,12.9,0.5,0.5,0.5,0.5,0.0,2.0,0.25,0.0,1.0,8.5,2.5,7.5,7.75,-1.23,4.2,0.45,232.99,4.0,-74.3
2.78,0.5,0.0,0.75,0.25,0.0,0.75,0.25,0.25,0.25,0.0,0.0,0.0,0.0,2.7,5.77,0.27,77.14,13.0,41.1,1.0,0.75,0.75,0.5,0.25,3.25,0.5,4.25,1.25,8.25,7.5,6.25,8.5,-0.11,0.02,1.2,380.17,3.6,-62.4
2.8,1.5,0.5,0.75,0.5,0.0,0.5,3.75,4.5,0.5,0.25,0.0,0.0,0.25,3.14,5.77,2.45,104.39,5.8,8.2,1.75,1.5,1.75,5.25,3.75,6.0,1.75,5.75,3.5,8.25,7.5,5.5,6.75,0.08,-0.23,1.14,635.58,0.4,-29.1
2.82,0.0,0.5,0.25,2.0,0.0,0.0,0.0,0.0,0.0,5.5,1.5,4.0,3.75,2.89,7.95,0.02,169.85,-2.0,-67.8,3.0,2.25,5.25,9.0,7.25,6.75,4.0,6.5,5.0,8.25,8.0,5.25,6.75,0.08,0.14,0.95,978.11,-3.1,-11.6
2.84,1.0,0.5,0.75,2.0,0.0,1.5,0.5,4.5,2.25,6.5,7.5,5.5,7.75,-0.86,0.77,7.89,318.1,-1.3,-60.4,4.5,3.0,8.0,12.5,9.0,7.5,6.0,6.75,5.0,7.25,7.5,3.75,5.75,0.02,-0.05,0.95,1339.25,-5.7,2.9
2.86,0.5,0.5,0.5,5.25,0.0,2.75,0.5,5.0,3.75,5.75,6.0,3.75,5.75,-0.48,-0.67,0.64,460.58,-0.7,-43.4,6.75,4.0,9.0,14.5,10.5,7.75,7.25,6.5,4.5,5.25,5.75,2.25,4.0,0.2,0.14,1.02,1553.7,-7.9,17.7
2.88,2.25,1.25,3.0,9.0,5.75,3.5,2.0,5.75,5.5,6.25,6.5,4.25,4.75,-0.23,0.45,0.95,710.47,3.5,-13.7,8.0,5.25,11.0,16.0,11.5,8.0,7.5,5.25,2.5,3.5,3.25,2.25,3.0,0.08,0.14,1.02,1693.09,-9.9,30.6
2.9,3.75,2.75,4.25,11.5,7.5,4.75,3.25,6.25,6.0,5.5,7.25,3.25,5.0,0.08,-0.05,1.02,978.51,5.2,-1.2,8.5,5.5,11.0,17.0,12.0,7.75,7.75,3.25,1.25,2.0,1.5,1.0,2.25,0.14,0.14,1.08,1735.8,-11.6,42.5
2.92,4.5,3.0,6.5,13.0,8.5,5.5,4.75,6.25,6.0,4.25,6.75,2.25,3.75,-0.05,0.08,1.02,1253.69,7.2,9.8,9.0,5.5,12.0,16.0,12.0,5.75,7.25,1.5,1.0,1.0,1.0,1.0,1.75,0.2,0.2,1.7,1693.93,-14.1,48.8
2.94,6.25,4.25,7.75,14.5,9.25,6.0,5.5,6.0,5.75,2.25,5.5,1.25,2.5,-0.11,0.08,1.02,1414.79,9.4,23.4,9.25,5.5,10.0,15.5,9.0,3.25,5.5,0.75,0.75,0.5,0.75,0.75,1.5,0.14,0.08,1.89,1558.18,-16.2,53.3
2.96,7.0,4.5,8.5,16.0,10.5,5.75,6.0,5.0,3.25,1.5,3.25,1.0,1.5,-0.17,0.14,1.08,1504.26,10.9,35.4,9.0,4.75,10.0,11.0,7.75,1.0,4.0,0.5,0.5,0.25,0.25,0.75,1.5,0.14,0.14,1.64,1356.67,-18.5,55.9
2.98,7.5,5.25,9.0,16.5,10.5,5.5,6.0,2.25,1.25,0.75,1.75,0.5,1.25,-0.17,0.14,1.14,1512.54,13.0,47.5,8.25,2.75,8.0,6.0,3.5,0.75,2.25,0.25,0.5,0.75,0.5,0.75,1.5,0.14,0.27,1.7,991.34,-20.3,51.1
3.0,8.0,4.5,9.25,15.0,10.5,3.0,5.0,0.75,0.5,0.5,1.5,0.5,1.25,-0.23,0.14,1.64,1433.73,15.3,51.9,7.0,1.75,4.0,1.5,0.0,0.5,1.75,0.25,0.5,0.75,0.25,0.75,1.25,0.02,0.7,1.7,586.26,-22.7,45.6
3.02,8.25,4.0,0.0,14.0,8.5,0.25,2.5,0.5,0.25,0.75,1.0,0.25,1.25,-0.23,0.08,1.45,1207.39,13.2,53.9,5.0,0.75,0.0,0.75,0.0,1.25,1.0,0.25,0.5,0.25,0.0,0.75,0.5,0.2,0.77,2.52,295.44,-17.0,44.0
3.04,8.0,3.5,8.0,11.5,5.75,0.0,1.25,0.5,0.0,0.75,0.75,0.25,1.25,-0.3,0.14,1.83,962.06,18.9,56.0,3.25,0.75,0.0,0.5,0.0,1.25,0.5,0.25,0.5,0.75,0.25,0.75,0.25,0.14,0.45,1.7,117.74,-11.9,27.9
3.06,8.0,1.5,6.5,7.75,1.0,0.75,1.0,0.5,0.0,0.75,0.0,0.25,0.25,-0.23,0.2,1.83,672.14,23.3,61.9,2.0,0.75,1.75,0.5,0.0,1.75,1.0,0.25,0.5,0.75,0.25,0.75,1.0,0.33,0.52,1.27,0.0,-10.9,16.0
3.08,7.0,1.25,3.25,4.75,0.0,0.75,1.0,0.5,0.0,0.75,0.0,0.25,0.75,-0.11,0.89,2.27,431.21,21.9,56.5,0.5,0.5,1.75,0.5,0.0,1.25,0.75,0.25,0.5,0.0,0.25,0.75,0.0,0.45,0.58,0.77,0.0,-14.6,24.0
3.1,4.0,0.0,2.25,2.5,0.0,0.25,1.0,0.0,0.0,0.0,0.75,0.0,1.0,-0.36,0.52,1.95,256.61,24.0,45.9,0.5,0.5,1.75,0.5,0.0,1.25,0.75,0.25,0.5,0.75,0.0,0.75,0.0,0.27,1.64,0.83,0.0,-11.5,16.8
3.12,2.75,0.0,0.75,2.25,0.0,0.5,0.75,0.0,0.0,0.0,0.0,0.0,1.0,-0.48,0.2,1.83,112.12,19.4,46.0,0.75,0.5,1.75,0.5,0.0,0.5,0.5,0.25,0.5,0.75,0.25,0.75,1.0,0.89,0.39,2.27,0.0,-11.7,-2.0
3.14,1.25,0.0,1.0,0.75,0.0,0.0,0.5,0.5,0.0,0.0,0.0,0.0,1.0,-0.42,0.33,1.83,0.0,16.6,20.3,0.5,0.5,1.75,0.5,0.0,1.0,0.5,0.0,0.5,0.0,0.0,0.0,0.0,0.7,0.14,2.14,0.0,-18.6,51.4
3.16,2.25,0.0,0.5,2.5,0.0,0.0,0.25,0.0,0.0,1.0,0.0,0.0,0.0,-0.61,0.64,1.08,0.0,19.8,49.7,0.0,0.0,1.75,0.0,0.0,0.5,0.5,0.25,0.5,0.75,0.25,0.75,1.0,1.14,0.27,2.58,0.0,-8.4,-27.5
3.18,2.25,0.25,0.0,2.5,0.0,0.0,0.25,0.0,0.25,0.5,0.0,0.0,0.75,-1.05,1.14,2.27,0.0,16.6,38.3,0.25,0.25,0.0,0.5,0.0,1.25,0.5,0.0,0.5,0.5,0.0,0.75,0.0,1.27,0.08,2.89,0.0,-1.4,-3.1
3.2,2.0,0.25,0.75,2.25,0.0,0.75,0.25,0.5,0.25,0.5,0.75,0.0,1.0,-1.3,0.14,2.08,0.0,11.7,20.3,0.75,0.5,1.5,0.5,0.0,0.75,0.5,0.25,0.5,0.5,0.25,0.75,1.0,1.33,-0.36,2.27,8.61,-10.6,-0.6
3.22,0.75,0.25,0.75,2.25,0.0,0.0,0.5,0.5,0.25,0.5,1.0,0.0,1.25,-1.11,0.02,2.14,0.0,10.8,0.3,0.5,0.5,1.75,0.5,0.0,0.75,0.5,0.25,0.5,0.75,0.25,0.75,0.5,1.45,-0.42,1.64,51.83,-11.6,3.5
3.24,1.5,0.5,0.75,2.75,0.0,1.75,0.75,0.5,2.25,0.0,0.75,0.0,0.5,-1.3,0.39,2.95,28.31,11.0,21.8,0.5,0.75,1.75,0.5,0.0,1.0,0.5,0.25,0.5,0.75,0.25,0.75,0.25,1.08,-0.86,1.27,89.18,-11.4,11.6
3.26,1.0,0.25,0.0,2.0,0.0,0.0,1.5,0.0,0.25,0.75,0.0,0.5,0.0,-1.17,-0.23,2.58,48.2,16.5,24.9,0.5,0.5,1.75,0.25,0.0,1.25,0.5,0.25,0.5,0.75,0.25,0.75,0.25,0.83,-0.92,0.77,104.11,-10.1,7.5
3.28,0.0,0.0,1.5,1.75,0.0,2.75,3.0,3.5,2.0,0.0,0.75,0.0,0.25,-1.36,-0.55,2.08,100.43,3.4,2.3,0.5,0.5,1.75,0.25,0.0,1.0,0.5,0.25,0.5,0.75,0.25,0.75,0.0,0.7,-0.61,1.2,107.15,-12.1,11.1
3.3,0.0,0.0,0.0,0.0,0.0,0.25,3.0,0.5,1.25,0.0,0.0,0.0,0.0,-1.23,-0.86,1.39,93.81,14.0,-5.7,0.5,0.5,1.75,0.5,0.0,1.0,0.5,0.25,0.5,0.75,0.25,0.75,0.25,0.52,-0.3,1.58,107.96,-11.4,8.5
3.32,0.0,0.0,0.0,0.0,0.0,0.75,3.75,2.0,1.25,0.0,0.0,0.0,0.0,-0.86,-0.92,0.95,100.32,4.0,-9.0,0.5,0.5,1.75,0.5,0.0,1.0,0.5,0.25,0.5,0.75,0.25,0.75,0.0,0.39,0.08,1.7,110.69,-12.3,12.9
3.34,0.5,0.0,1.5,0.5,0.0,0.5,2.25,2.25,0.0,0.0,0.0,0.0,0.25,-0.67,-0.8,1.08,93.8,10.2,15.2,0.5,0.5,0.75,0.25,0.0,0.75,0.5,0.25,0.5,0.75,0.25,0.75,0.0,0.45,0.39,1.95,103.05,-8.7,0.7
3.36,0.0,0.0,0.0,0.0,0.0,1.5,3.75,2.25,1.5,0.0,0.0,0.0,0.0,-0.61,-0.48,1.27,99.25,0.8,-6.7,0.5,0.5,1.5,0.5,0.0,1.0,0.5,0.25,0.5,0.75,0.25,0.75,0.0,0.45,0.39,2.08,102.7,-11.3,11.0
3.38,0.5,0.0,0.0,0.25,0.0,1.25,1.25,0.5,0.75,1.0,0.0,0.25,0.0,-0.55,-0.23,1.39,88.93,0.0,-6.6,0.75,0.5,1.0,0.25,0.0,1.0,0.5,0.25,0.5,0.75,0.0,0.75,0.0,0.52,0.58,2.77,99.34,-9.7,11.6
3.4,0.0,0.0,1.0,0.0,0.0,1.5,2.25,2.75,2.25,0.0,0.0,0.0,0.0,-0.48,0.02,1.83,99.17,2.6,-6.0,0.5,0.5,1.75,0.5,0.0,1.0,0.5,0.25,0.5,0.75,0.25,0.75,0.0,0.33,1.83,3.33,102.15,-12.3,12.9
3.42,0.0,0.0,1.0,0.0,0.0,1.5,3.5,3.0,2.25,0.0,0.0,0.0,0.0,-0.48,0.14,2.14,111.9,4.0,-4.8,0.5,0.5,1.5,0.25,0.0,1.0,0.5,0.25,0.5,0.75,0.25,0.75,0.0,-0.17,3.64,3.33,101.12,-11.1,9.1
3.44,1.75,0.0,0.5,0.0,0.0,0.0,0.5,0.0,0.0,0.0,0.0,0.0,0.25,-0.48,0.33,2.64,91.87,30.6,64.1,0.5,0.5,1.5,0.5,0.0,0.75,0.5,0.25,0.5,0.75,0.25,0.75,1.0,-1.05,5.64,2.27,104.68,-9.0,-6.2
3.46,0.5,0.0,0.0,0.25,0.0,0.25,2.0,0.0,0.0,0.0,0.0,0.0,0.0,-0.42,0.77,3.27,67.74,24.1,49.4,0.5,0.5,1.25,0.5,0.0,1.0,0.5,0.25,0.5,0.75,0.0,0.75,1.0,-1.42,7.27,0.83,106.74,-6.8,-4.9
3.48,0.0,0.0,0.5,0.0,0.0,0.0,0.75,0.5,0.25,0.0,0.5,0.0,0.0,0.02,2.08,3.89,40.29,14.8,-11.5,0.5,0.5,1.0,0.5,0.0,0.75,0.5,0.25,0.5,0.75,0.25,0.75,1.0,-1.92,5.95,-0.61,107.78,-6.8,-11.1
3.5,0.0,0.0,0.0,0.25,0.0,1.75,1.0,0.0,2.25,0.0,0.0,0.0,0.0,0.95,4.2,2.7,40.94,2.0,-0.2,0.5,0.5,0.5,0.25,0.25,1.0,0.5,0.25,0.5,1.5,0.5,1.0,1.5,-1.36,6.08,0.77,114.05,-0.4,-30.5
3.52,0.5,0.0,0.0,0.25,0.0,0.25,1.0,0.0,0.0,0.0,0.0,0.0,0.0,2.08,6.14,1.27,26.29,21.4,56.8,0.5,0.5,0.0,0.0,0.0,1.75,0.25,0.25,0.75,8.25,2.0,7.5,7.5,-0.61,4.33,-0.17,227.29,5.3,-79.6
3.54,1.0,0.0,0.75,2.25,0.0,0.0,0.5,0.5,0.0,0.5,0.0,0.0,0.0,2.7,6.7,0.89,52.18,17.7,42.3,0.5,0.0,0.75,0.5,0.0,2.75,0.5,4.0,1.75,9.0,7.5,7.0,9.0,1.52,0.52,1.45,381.43,3.9,-70.4
3.56,0.0,0.0,0.0,0.0,0.0,0.0,0.25,0.0,0.0,0.0,1.75,0.0,1.0,1.95,5.45,2.39,47.75,2.8,-83.6,1.25,1.0,1.5,3.0,3.5,5.25,1.25,5.5,3.0,8.25,6.75,6.0,7.75,-0.05,-0.42,0.89,617.08,2.0,-38.7
3.58,0.0,0.25,0.0,2.0,0.0,0.75,2.5,0.0,0.0,6.0,0.0,5.0,0.0,3.2,7.95,0.39,112.91,0.7,-52.2,2.0,1.5,4.5,7.25,6.25,6.25,3.25,6.5,4.75,8.75,8.25,6.25,7.5,0.02,0.2,0.95,925.64,-1.8,-21.3
3.6,0.0,0.25,0.0,2.0,0.0,1.5,0.25,4.25,2.25,6.5,7.0,5.75,7.75,-0.98,1.08,7.83,265.74,-3.2,-68.5,4.5,2.5,7.5,12.0,9.0,7.5,6.25,7.25,5.0,7.5,8.0,4.75,6.0,0.08,0.02,0.95,1300.11,-5.2,-0.8
3.62,0.5,1.25,0.0,5.25,0.0,2.75,1.0,4.5,3.5,5.5,6.0,3.5,6.0,0.08,-0.55,0.7,406.11,-0.6,-41.5,6.0,3.75,9.0,14.0,10.5,8.0,7.0,7.0,4.5,6.0,6.5,3.25,4.5,0.14,0.08,1.02,1534.27,-7.0,12.6
3.64,2.25,1.25,2.5,8.0,5.25,3.5,1.75,5.25,5.5,6.25,6.25,4.25,5.0,-0.42,0.64,0.95,651.3,3.0,-16.4,7.5,4.75,9.75,15.5,11.5,8.25,7.5,6.0,3.0,4.0,4.25,2.25,3.0,0.08,0.08,1.02,1684.33,-8.9,26.4
3.66,3.75,2.5,5.0,11.5,6.5,4.75,3.5,6.25,6.25,5.5,7.25,3.5,4.75,0.08,-0.05,1.02,944.11,5.8,-1.9,8.25,5.75,11.0,17.0,12.0,7.75,7.75,3.25,1.25,1.75,1.5,1.5,2.25,0.08,0.14,1.08,1736.71,-11.6,41.9
3.68,5.25,3.0,6.75,13.0,8.5,5.5,5.0,6.25,6.25,4.25,6.75,2.25,3.75,-0.11,0.08,1.02,1253.46,7.6,10.6,9.0,5.5,11.0,17.0,11.5,6.25,7.0,1.75,1.0,1.5,1.0,0.75,1.75,0.14,0.14,1.27,1698.57,-13.4,48.1
3.7,6.25,4.25,8.0,14.5,9.0,5.75,6.0,6.0,5.75,2.5,5.5,1.25,2.5,-0.11,0.08,1.02,1428.65,9.6,23.0,9.0,5.25,10.0,15.5,9.0,4.0,5.75,0.25,0.75,0.75,0.0,0.75,1.0,0.08,0.14,1.89,1555.98,-16.2,55.8
3.72,7.0,4.75,8.75,16.0,9.75,6.0,6.25,5.0,3.75,1.5,3.5,1.0,1.5,-0.11,0.14,1.08,1523.32,11.1,34.6,8.25,3.75,9.75,10.5,7.75,0.5,4.0,0.5,0.5,0.0,0.75,0.75,1.5,0.14,0.14,1.77,1334.52,-18.8,53.9
3.74,7.5,5.5,9.25,16.5,10.5,5.5,6.25,2.25,1.25,0.75,1.75,0.25,1.25,-0.11,0.14,1.08,1528.29,13.1,48.2,8.0,2.75,7.5,6.25,1.75,0.5,2.25,0.25,0.5,0.75,0.0,0.75,1.0,0.14,0.2,1.89,940.41,-22.4,55.2
3.76,8.0,5.0,8.75,16.0,10.0,3.5,5.25,0.75,0.75,0.75,1.5,0.5,1.25,-0.23,0.27,1.39,1459.35,14.9,51.2,7.5,1.5,3.5,2.0,0.0,0.5,2.0,0.25,0.5,0.0,0.75,0.5,1.5,0.08,0.39,1.77,552.26,-23.5,47.6
3.78,8.25,3.75,9.0,14.5,8.5,1.25,3.25,0.5,0.25,0.75,1.0,0.25,1.25,-0.3,-0.05,1.7,1323.47,17.1,54.4,4.5,0.5,0.25,0.5,0.0,1.5,1.0,0.25,0.5,0.5,0.5,0.75,1.0,0.27,0.7,2.14,282.82,-13.5,24.9
3.8,8.0,4.0,8.25,11.5,5.75,0.0,1.75,0.5,0.0,0.5,1.0,0.25,1.25,-0.3,0.14,1.89,1083.04,19.2,56.4,3.5,0.75,0.25,0.0,0.0,0.5,1.0,0.25,0.5,0.0,0.25,0.75,1.0,0.39,0.14,1.14,111.8,-16.9,24.8
3.82,8.0,2.75,6.0,7.5,1.0,0.0,1.0,0.5,0.0,0.5,0.75,0.0,1.0,-0.3,0.14,2.08,763.85,22.9,58.9,0.5,0.0,1.75,0.0,0.0,0.5,0.75,0.5,0.25,0.0,0.25,0.5,0.5,0.33,0.77,1.2,0.0,-15.8,4.5
3.84,6.25,1.0,3.0,3.75,0.0,0.0,1.0,0.5,0.0,0.0,0.0,0.0,1.0,-0.23,0.95,3.02,452.9,24.9,61.0,2.0,0.25,0.0,0.0,0.0,0.5,0.0,0.25,0.5,0.75,0.0,0.75,0.5,0.39,0.64,1.02,0.0,-8.8,0.1
3.86,3.75,0.0,2.5,2.25,0.0,0.0,1.0,0.0,0.0,0.0,0.0,0.0,0.0,-0.61,0.33,2.02,250.58,31.1,72.8,0.75,0.5,1.75,0.5,0.0,1.25,0.0,0.25,0.5,0.75,0.25,0.75,0.0,0.14,1.45,2.27,0.0,-11.2,15.8
3.88,2.25,0.0,0.75,2.0,0.0,0.0,0.5,0.5,0.0,0.0,0.25,0.0,1.0,-0.23,0.77,1.77,86.15,18.1,32.9,0.75,0.25,0.25,0.5,0.0,1.25,0.0,0.0,0.5,0.5,0.0,0.75,1.0,0.77,0.33,2.27,0.0,-1.8,-12.5
3.9,1.25,0.0,0.5,0.0,0.0,0.25,0.25,0.0,0.0,0.5,0.75,0.0,0.0,-0.3,0.14,1.95,0.0,18.0,19.7,0.5,0.75,1.75,0.5,0.0,1.0,0.25,0.25,0.5,0.5,0.25,0.75,1.0,0.64,0.14,2.2,0.0,-9.5,2.2
3.92,0.5,0.0,0.0,0.25,0.0,0.0,0.5,0.0,0.0,0.0,0.0,0.0,0.0,-0.8,0.7,1.45,0.0,29.5,69.6,0.5,0.0,1.75,0.5,0.0,0.5,0.25,0.25,0.5,0.0,0.25,0.25,0.75,0.95,0.08,2.39,0.0,-15.4,8.5
3.94,0.5,0.0,0.0,0.25,0.0,0.0,0.5,0.0,0.0,0.0,0.0,0.0,0.0,-1.17,0.7,2.27,0.0,29.5,69.6,0.5,0.5,1.75,0.25,0.0,1.0,0.25,0.0,0.25,0.0,0.0,0.5,0.0,1.27,0.33,2.95,0.0,-17.7,39.7
3.96,0.5,0.0,0.0,0.25,0.0,0.0,0.5,0.5,0.0,1.0,0.0,0.0,0.0,-1.23,0.02,1.95,0.0,1.8,-11.1,0.5,0.0,0.25,0.0,0.0,0.5,0.0,0.0,0.5,0.0,0.25,0.5,0.25,1.39,-0.17,2.64,0.0,-9.2,-15.9
3.98,0.5,0.0,0.75,0.25,0.0,0.0,0.5,0.0,0.0,0.0,0.0,0.0,0.0,-1.05,0.02,1.95,0.0,33.4,65.8,0.0,0.0,0.0,0.0,0.0,0.5,0.0,0.0,0.5,0.0,0.0,0.25,0.0,1.39,-0.48,2.02,5.27,2.1,-24.9
4.0,0.75,0.0,0.5,0.25,0.0,0.0,0.5,0.5,0.25,0.0,0.75,0.0,1.25,-1.11,0.33,2.77,0.0,9.2,-23.1,0.0,0.0,0.0,0.0,0.0,0.75,0.0,0.0,0.5,0.75,0.0,0.75,0.0,1.08,-0.86,1.2,14.65,5.6,-49.4
4.02,1.25,0.25,0.75,0.25,0.0,0.0,1.75,0.75,0.25,0.75,0.75,0.0,0.75,-1.05,-0.05,2.77,0.0,12.4,-1.5,0.5,0.5,1.75,0.0,0.0,1.25,0.5,0.25,0.5,0.75,0.0,0.75,0.0,0.83,-1.17,1.08,43.28,-10.7,13.3
4.04,2.75,0.0,0.75,2.0,0.0,0.25,0.5,0.5,0.25,0.75,0.5,0.25,0.5,-1.11,-0.61,2.33,24.05,16.2,26.3,0.5,0.5,1.75,0.0,0.0,0.75,0.5,0.25,0.5,0.75,0.0,0.75,0.0,0.7,-1.05,0.89,65.48,-13.4,11.7
4.06,0.5,0.0,1.25,0.75,0.0,2.25,3.0,3.75,0.0,0.0,1.0,0.0,0.25,-1.05,-0.92,1.58,94.72,1.9,3.1,0.5,0.5,1.75,0.0,0.0,1.0,0.5,0.25,0.5,0.5,0.25,0.75,0.25,0.52,-0.55,1.39,86.19,-12.0,7.8
4.08,1.75,0.0,0.75,0.25,0.0,0.0,1.75,3.5,0.25,0.75,0.0,0.0,0.0,-0.73,-0.86,1.08,128.42,6.3,5.4,0.5,0.75,1.75,0.0,0.0,1.0,0.5,0.25,0.5,0.75,0.25,0.75,0.0,0.27,-0.17,1.58,97.0,-12.0,12.7
4.1,1.5,0.0,0.5,1.5,0.0,2.0,3.75,0.75,2.25,0.0,2.25,0.0,0.0,-0.67,-0.67,0.83,162.71,12.0,7.6,0.5,0.5,1.75,0.25,0.0,1.0,0.5,0.25,0.5,0.75,0.25,0.75,0.0,0.27,0.14,1.83,102.78,-12.1,11.1
4.12,1.0,0.0,0.25,1.25,0.0,2.0,4.0,3.5,2.5,0.0,1.25,0.25,0.0,-0.61,-0.42,1.2,186.62,5.1,-3.6,0.5,0.5,1.75,0.25,0.0,1.0,0.5,0.25,0.5,0.75,0.0,0.75,0.0,0.27,0.2,2.02,105.59,-12.2,14.4
4.14,2.5,0.25,1.5,2.5,0.0,1.25,3.5,3.5,1.5,0.0,2.0,0.0,0.75,-0.48,-0.17,1.52,224.49,10.7,9.3,0.5,0.5,1.0,0.25,0.0,0.75,0.5,0.75,0.5,0.75,0.25,0.75,0.0,0.39,0.33,2.39,105.01,-7.9,0.0
4.16,0.75,0.0,0.75,1.25,0.0,2.0,0.5,0.5,2.5,0.0,2.25,0.0,0.0,-0.55,0.08,1.95,218.18,8.5,-1.6,0.5,0.5,1.75,0.25,0.0,1.0,0.5,0.25,0.5,0.75,0.25,0.75,0.0,0.33,1.08,3.08,109.57,-12.1,11.1
4.18,1.75,0.0,0.0,1.75,0.0,2.75,4.0,3.5,3.0,0.0,1.0,0.0,0.0,-0.61,0.2,2.14,229.98,5.1,5.4,0.5,0.5,1.75,0.25,0.0,1.0,0.5,0.25,0.5,0.75,0.25,0.75,0.0,0.08,2.58,3.45,111.37,-12.1,11.1
4.2,1.5,0.25,0.75,2.25,0.0,2.75,4.0,3.75,2.75,0.5,1.0,0.25,0.0,-0.73,0.52,2.7,237.77,5.7,5.6,0.5,0.75,1.25,0.5,0.0,1.0,0.5,0.25,0.5,0.5,0.25,0.75,0.25,-0.86,6.08,2.02,113.83,-10.4,11.1
4.22,1.5,0.0,0.5,1.25,0.0,2.25,4.0,3.75,2.5,0.0,1.0,0.0,0.0,-0.55,0.95,3.33,239.13,5.6,3.8,0.5,0.75,1.5,0.5,0.0,1.0,0.5,0.25,0.5,0.5,0.25,0.75,1.0,-0.92,7.58,1.14,117.34,-8.9,0.7
4.24,1.5,0.25,2.0,2.75,0.0,1.5,1.75,2.0,1.5,1.0,2.25,0.5,0.5,-0.17,2.14,4.02,241.92,9.9,2.4,0.5,0.5,0.75,0.25,0.0,0.75,0.5,0.25,0.5,0.75,0.25,0.75,1.0,-1.8,7.39,-0.98,110.93,-5.1,-16.8
4.26,0.75,0.25,1.25,2.0,0.0,0.75,3.75,3.5,0.25,0.5,2.0,0.0,1.25,0.89,4.02,3.2,233.54,6.6,-7.2,0.5,0.5,0.75,0.0,0.0,1.0,0.5,0.25,0.5,2.0,0.25,2.0,1.75,-2.05,6.39,-0.3,121.86,-0.4,-44.4
4.28,1.0,0.0,0.75,1.75,0.0,0.75,0.5,0.25,0.25,0.75,1.5,0.25,1.0,1.77,5.89,2.08,200.11,8.9,-5.9,0.5,0.5,0.0,0.25,0.0,2.0,0.25,1.0,1.0,8.5,2.5,7.0,7.75,-0.23,0.52,1.33,239.89,5.5,-76.0
4.3,1.0,0.0,1.0,1.75,0.0,0.75,0.0,0.25,0.25,0.5,1.5,0.25,1.25,2.64,5.95,0.33,164.56,9.2,-5.9,0.5,0.75,1.0,1.0,0.5,4.5,0.75,4.25,2.25,8.25,6.75,5.5,7.75,-0.48,-0.36,1.08,389.02,3.8,-55.8
4.32,1.0,0.0,0.75,2.0,0.0,0.75,0.5,0.25,0.25,0.5,1.5,0.25,1.0,2.02,4.95,-0.05,138.1,9.9,-1.9,2.0,1.5,1.75,6.75,6.25,6.5,2.25,5.75,3.75,7.75,6.5,4.75,6.25,0.2,0.64,1.2,663.37,0.0,-19.0
4.34,0.75,0.0,0.75,0.25,0.0,0.0,0.5,0.5,0.0,0.0,1.0,0.0,0.75,0.39,4.7,0.08,97.18,13.7,-9.4,3.5,2.5,6.25,10.5,8.0,7.5,4.75,6.5,4.75,7.5,7.5,4.75,5.75,0.33,0.27,0.95,1029.95,-4.2,-3.9
4.36,0.75,0.0,0.5,0.0,0.0,0.0,0.0,0.0,2.25,6.75,2.0,5.75,5.5,-0.23,0.08,0.08,174.51,-1.7,-80.5,6.0,3.5,8.5,13.5,9.75,8.0,6.5,6.5,4.75,6.25,6.5,3.5,4.75,-0.05,0.02,1.02,1389.75,-6.8,10.5
4.38,0.5,0.5,0.0,2.5,0.0,1.75,0.5,4.75,2.25,6.5,7.5,5.25,7.25,0.83,0.95,3.45,299.0,-2.4,-61.4,7.5,4.75,9.25,15.5,11.5,8.25,7.25,6.5,3.75,4.75,4.75,2.25,3.5,0.14,0.08,1.02,1608.3,-8.2,23.0
4.4,1.5,1.25,0.0,7.25,2.25,3.5,1.0,5.25,4.75,5.5,6.0,3.75,5.25,-0.42,-0.55,0.83,473.51,0.6,-27.0,8.25,5.5,10.5,17.0,12.0,8.25,7.5,5.0,1.75,3.25,2.5,1.75,2.75,0.14,0.14,1.02,1730.0,-10.0,34.6
4.42,3.5,2.25,4.25,10.0,6.75,4.75,2.75,5.75,6.0,5.5,6.5,3.75,4.0,-0.3,0.2,1.02,748.96,5.1,-2.6,9.0,5.5,11.0,17.0,13.0,7.75,7.5,2.5,1.0,2.0,1.25,0.75,1.75,0.08,0.14,1.14,1755.66,-11.9,45.9
4.44,3.75,2.75,5.75,12.5,8.0,5.5,4.25,6.25,6.25,4.25,6.75,2.5,3.75,-0.11,0.02,1.08,1039.15,6.5,6.7,9.0,5.5,11.0,17.0,12.0,6.25,6.75,0.25,0.5,0.25,0.75,0.75,1.75,0.08,0.14,1.89,1685.5,-14.4,53.2
4.46,5.75,4.0,7.25,14.5,9.0,5.5,5.75,6.0,5.75,2.25,5.5,1.5,2.5,-0.23,0.08,1.02,1306.3,9.3,21.7,9.75,4.5,9.5,13.5,9.0,3.25,4.75,0.25,0.5,0.75,0.75,0.75,1.75,0.08,0.08,1.7,1520.74,-16.2,52.7
4.48,6.5,4.25,8.5,16.0,9.75,6.0,6.5,5.0,4.5,2.0,3.5,1.0,1.5,-0.05,0.08,1.02,1431.6,10.7,32.2,9.25,4.0,8.25,9.0,6.25,1.25,2.75,0.25,0.5,1.0,0.25,0.75,1.0,0.14,0.14,1.7,1266.09,-18.4,55.7
4.5,7.5,5.25,9.0,16.5,10.5,5.5,6.5,3.25,1.75,0.75,2.5,0.5,1.25,-0.11,0.08,1.08,1493.55,12.6,44.2,8.5,3.0,4.75,4.0,0.0,1.5,1.5,0.25,0.5,1.0,0.25,0.75,1.0,0.08,0.33,1.77,833.35,-21.0,52.8
4.52,8.0,5.25,9.25,16.5,10.5,4.5,5.75,1.25,0.75,0.75,1.5,0.5,1.25,-0.23,0.14,1.58,1477.63,14.2,50.5,7.0,0.75,0.5,2.0,0.0,2.0,1.25,0.25,0.5,0.75,0.25,0.75,1.0,0.14,1.02,2.95,456.27,-16.0,40.9
4.54,8.25,4.25,9.25,15.0,9.25,2.25,4.25,0.5,0.5,0.75,0.5,0.25,1.0,-0.23,0.08,1.89,1378.15,16.5,55.7,4.5,0.75,0.0,0.5,0.0,2.0,1.0,0.25,0.5,0.75,0.5,0.75,1.0,0.02,0.33,2.08,236.56,-10.8,23.9
4.56,8.25,4.0,8.75,12.5,7.0,0.75,2.5,0.5,0.25,0.75,1.5,0.25,1.25,-0.23,0.08,1.58,1204.69,17.9,53.6,3.0,0.75,0.25,0.5,0.0,2.0,1.0,0.25,0.5,0.75,0.25,0.75,1.0,0.14,0.64,1.77,79.36,-8.2,17.1
4.58,8.0,2.75,6.75,8.0,0.0,0.75,1.25,0.5,0.0,0.75,1.5,0.0,1.0,-0.3,0.2,2.14,881.29,22.5,54.2,1.5,0.5,1.75,0.5,0.0,1.5,0.75,0.25,0.25,0.5,0.0,0.5,0.25,0.33,0.64,1.2,0.0,-13.4,31.7
4.6,7.0,1.5,4.25,4.75,0.0,0.75,0.5,0.0,0.0,0.75,0.0,0.25,0.25,-0.23,0.52,1.95,553.1,24.4,64.4,0.5,0.5,1.75,0.5,0.0,1.0,0.5,0.25,0.5,0.75,0.25,0.75,0.75,-0.05,1.08,0.58,0.0,-9.7,0.6
4.62,5.0,0.0,1.5,2.25,0.0,0.75,1.0,0.0,0.0,0.75,0.0,0.25,0.0,-0.36,0.45,2.2,297.54,23.5,59.5,0.5,0.5,1.25,0.5,0.0,1.0,0.5,0.75,0.5,0.75,0.25,0.75,1.0,0.7,0.83,2.7,0.0,-5.5,-9.2
4.64,2.75,0.0,1.75,2.5,0.0,0.75,0.75,0.5,0.0,0.5,0.0,0.0,0.0,-0.8,0.2,1.89,150.49,20.2,54.0,0.5,0.5,2.25,0.5,0.0,1.25,0.5,0.25,0.5,0.5,0.25,0.75,1.0,0.45,0.45,2.27,0.0,-10.6,4.1
4.66,1.5,0.25,1.0,2.0,0.0,0.0,0.5,0.0,0.0,0.0,0.0,0.0,0.0,-0.48,0.58,2.27,1.58,26.9,70.3,0.5,0.5,1.75,0.5,0.0,1.25,0.5,0.25,0.5,0.5,0.0,0.75,1.0,0.77,0.33,2.58,0.0,-8.7,2.8
4.68,0.0,0.0,0.0,0.25,0.0,0.0,0.25,0.0,0.0,0.0,0.0,0.0,0.0,-0.67,0.58,1.64,0.0,21.9,48.3,0.75,0.75,1.75,0.5,0.0,1.25,0.5,0.25,0.5,0.5,0.25,0.75,1.0,1.33,0.52,3.02,0.0,-9.6,6.1
4.7,0.5,0.0,0.75,0.25,0.0,0.0,0.25,0.0,0.0,0.0,0.0,0.0,0.0,-1.42,0.52,2.52,0.0,33.5,68.6,0.5,0.75,1.75,0.5,0.0,0.75,0.5,0.25,0.5,0.75,0.25,0.75,1.25,1.52,-0.11,2.95,28.63,-9.3,-4.0
4.72,0.5,0.0,0.75,0.25,0.0,0.0,0.5,0.0,0.0,0.0,0.0,0.0,0.0,-1.23,0.2,2.2,0.0,33.4,65.8,0.5,0.75,1.75,0.25,0.0,0.5,0.5,0.25,0.5,0.0,0.25,0.75,1.0,1.45,-0.42,2.39,61.23,-13.8,4.1
4.74,0.5,0.0,1.0,1.0,0.0,0.0,0.5,0.5,0.0,0.5,0.0,0.0,0.5,-1.23,0.02,2.2,0.0,13.5,14.4,0.5,0.0,1.75,0.0,0.0,0.75,0.5,0.25,0.5,0.5,0.25,0.75,0.0,1.33,-0.67,1.7,77.57,-14.7,3.5
4.76,0.5,0.0,0.75,2.25,0.0,0.0,0.25,0.0,0.0,0.25,0.0,0.0,0.0,-1.3,-0.05,2.52,0.0,21.7,53.8,0.5,0.5,0.5,0.5,0.0,1.0,0.25,0.0,0.5,0.75,0.0,0.75,0.0,1.2,-1.05,1.14,78.96,-6.8,7.1
4.78,1.25,0.25,0.75,1.25,0.0,0.25,4.0,0.0,0.0,0.0,0.0,0.0,0.25,-1.17,-0.8,1.77,0.0,25.2,49.8,0.5,0.5,1.0,0.25,0.5,1.25,0.75,0.25,0.5,0.75,0.25,0.75,0.0,1.08,-0.98,0.7,84.53,-7.0,10.2
4.8,1.25,0.25,0.75,0.25,0.0,0.0,2.25,0.5,0.0,0.0,0.0,0.0,0.75,-1.11,-1.05,1.27,0.0,19.5,26.4,0.5,0.5,1.75,0.5,0.0,1.0,0.5,0.25,0.5,0.75,0.25,0.75,0.25,0.89,-0.36,1.14,92.23,-11.4,8.5
4.82,0.0,0.0,1.75,0.0,0.0,0.0,3.75,0.0,0.0,0.0,0.0,0.0,0.0,-0.86,-1.05,0.77,30.66,35.3,44.2,0.5,0.75,1.75,0.25,0.0,1.25,0.5,0.25,0.5,0.75,0.0,0.75,0.75,0.52,-0.17,1.7,104.32,-8.5,5.4
4.84,0.0,0.0,0.0,0.0,0.0,0.0,3.0,0.0,1.0,0.0,0.0,0.0,0.0,-0.86,-0.98,0.89,38.83,24.1,0.5,0.5,0.5,1.75,0.25,0.0,1.0,0.5,0.25,0.5,0.75,0.25,0.75,0.25,0.27,0.14,2.02,107.81,-11.2,6.6
4.86,1.5,0.0,0.0,1.5,0.0,0.0,3.75,2.25,1.75,0.0,0.0,0.0,0.0,-0.67,-0.67,1.27,75.69,13.4,14.1,0.5,0.5,1.5,0.5,0.0,1.0,0.5,0.25,0.5,0.75,0.25,0.75,0.25,0.27,0.33,2.27,108.66,-10.4,6.6
4.88,0.0,0.0,0.0,0.0,0.0,0.0,4.0,1.75,0.75,0.0,0.0,0.0,0.0,-0.61,-0.23,1.52,80.01,9.4,-9.9,0.5,0.5,1.75,0.5,0.0,0.75,0.5,0.25,0.5,0.5,0.0,0.75,0.0,0.45,0.39,2.45,103.8,-14.8,19.0
4.9,0.0,0.0,0.0,0.0,0.0,0.0,3.75,2.0,0.75,0.0,0.0,0.0,0.0,-0.55,0.08,1.95,88.87,7.4,-12.5,0.5,0.5,1.5,0.5,0.0,1.0,0.5,0.25,0.5,0.75,0.0,0.75,0.0,0.33,1.02,3.02,102.07,-11.4,14.3
4.92,0.0,0.0,0.0,0.0,0.0,0.0,3.0,0.75,1.0,0.0,0.0,0.0,0.0,-0.48,0.2,2.52,77.41,14.4,-8.7,0.5,0.5,1.75,0.5,0.0,1.0,0.5,0.25,0.5,0.75,0.0,0.75,0.0,0.02,2.7,3.45,101.99,-12.4,16.1
4.94,0.5,0.0,1.0,0.25,0.0,0.0,1.25,0.0,0.0,0.0,0.0,0.0,0.0,-0.42,0.45,3.14,62.12,33.8,59.4,0.5,0.5,0.75,0.0,0.5,0.5,0.75,0.25,0.5,0.75,0.25,0.75,0.0,-0.86,5.27,2.77,98.23,-8.9,2.6
4.96,0.75,0.0,0.75,2.0,0.0,0.5,0.5,0.25,0.25,0.75,0.0,0.0,1.0,-0.3,0.77,3.45,67.69,9.1,10.7,0.5,0.5,1.5,0.5,0.0,0.75,0.5,0.25,0.5,0.5,0.0,0.75,0.25,-0.98,7.77,0.45,98.4,-12.7,12.0
4.98,0.5,0.0,0.75,0.25,0.0,0.0,0.25,0.0,0.25,0.75,0.0,0.0,0.0,0.14,1.83,3.95,58.89,17.3,17.2,0.5,0.5,0.75,0.5,0.0,0.75,0.5,0.25,0.5,0.5,0.25,0.75,1.0,-1.61,7.14,-0.67,97.14,-6.4,-11.5
5.0,1.0,0.0,0.75,0.25,0.0,0.0,0.5,0.0,0.0,0.0,0.0,0.0,1.0,1.27,3.89,3.52,58.73,18.6,14.5,0.5,0.5,0.5,0.5,0.0,0.5,0.5,0.25,0.5,0.75,0.25,0.75,1.0,-1.67,5.27,-0.3,94.94,-5.3,-18.8
5.02,0.5,0.25,0.75,2.0,0.0,0.0,0.25,0.0,0.25,0.5,0.0,0.0,0.0,2.39,6.08,2.27,58.69,18.8,43.8,0.5,0.25,0.5,0.0,0.0,0.75,0.5,0.25,0.25,3.5,0.0,3.25,1.0,-1.17,5.77,0.95,116.22,1.0,-59.2
5.04,0.5,0.0,0.75,0.25,0.0,0.0,0.5,0.25,0.0,0.0,0.0,0.0,0.0,2.83,6.52,0.2,51.81,27.1,52.6,0.5,0.0,0.25,0.0,0.0,3.25,0.5,3.25,1.25,8.75,6.25,7.75,9.0,0.33,-2.61,-1.3,276.37,5.1,-74.0
5.06,0.5,0.0,0.75,0.25,0.0,0.0,0.25,0.0,0.0,0.0,0.0,0.0,0.0,3.33,6.2,1.95,40.56,33.5,68.6,1.5,1.25,1.5,3.25,3.5,6.0,1.0,5.75,3.0,8.25,7.5,6.0,8.25,-0.3,0.64,1.45,501.59,2.1,-37.4
5.08,0.0,0.25,0.5,1.0,0.0,0.0,0.25,0.0,0.25,6.0,0.0,6.25,0.25,4.02,7.95,1.64,104.08,0.3,-71.8,3.0,2.5,4.5,9.0,6.5,7.25,3.25,6.5,4.5,8.0,7.5,5.25,6.75,0.14,0.95,1.08,877.31,-2.5,-11.8
5.1,0.5,0.25,0.0,2.25,0.0,1.25,0.5,3.5,2.0,6.5,7.75,6.0,7.75,-1.36,1.2,1.33,263.58,-1.8,-67.1,4.5,3.0,7.5,12.5,9.0,7.75,5.5,7.0,5.0,7.25,7.5,4.5,6.0,-0.05,0.2,0.95,1293.18,-5.2,1.1
5.12,0.0,1.25,0.0,5.25,0.0,2.75,1.0,4.0,4.0,5.5,6.5,4.0,6.0,0.08,-0.36,0.64,413.05,-0.4,-44.4,6.5,4.0,9.0,14.0,10.5,8.0,6.75,6.5,4.5,6.0,6.0,3.0,4.5,0.14,0.08,1.02,1549.86,-7.3,14.4
5.14,2.5,1.25,3.75,9.0,5.75,3.5,2.25,5.0,5.75,6.25,6.0,4.25,4.25,-0.55,0.77,1.02,683.55,4.6,-10.6,7.5,4.75,9.75,15.5,11.5,8.25,7.5,5.75,3.0,3.5,4.5,2.25,3.0,0.08,0.14,1.02,1691.29,-9.1,26.9
5.16,3.75,2.75,5.5,11.5,7.0,4.75,3.75,6.0,6.5,5.75,7.5,4.25,5.0,-0.17,0.08,1.02,996.3,6.0,-2.5,8.25,5.5,11.0,17.0,12.0,8.0,7.5,4.5,1.25,2.0,2.5,1.5,2.5,0.14,0.14,1.08,1751.68,-10.8,38.3
5.18,5.25,3.25,7.25,13.5,8.5,5.25,5.5,6.25,6.5,4.25,7.0,2.75,3.75,0.02,0.08,1.02,1308.61,8.1,10.3,9.0,5.5,11.0,17.0,12.0,7.25,7.5,1.75,0.75,1.5,1.25,1.0,1.75,0.14,0.14,1.14,1731.15,-12.8,47.3
5.2,6.25,4.25,8.0,15.0,8.75,5.5,6.25,5.75,5.75,2.5,5.75,1.25,2.5,-0.11,0.08,1.02,1460.25,10.0,23.0,9.5,5.5,11.0,16.5,11.0,5.25,6.25,0.25,0.5,1.25,0.25,0.75,1.5,0.08,0.14,1.89,1639.07,-14.9,53.5
5.22,7.0,4.5,8.75,16.0,9.25,5.5,6.5,4.5,3.0,1.25,3.25,1.0,1.5,-0.11,0.14,1.08,1529.96,11.7,36.3,8.25,4.0,9.75,12.5,8.5,2.5,4.25,0.25,0.5,0.5,0.0,0.75,1.25,0.14,0.08,1.89,1441.19,-17.0,55.3
5.24,7.5,5.25,9.0,16.0,9.75,4.75,6.25,1.25,0.25,0.75,2.0,0.5,1.0,-0.11,0.14,1.27,1497.26,14.2,50.3,8.25,3.0,7.5,7.25,3.5,1.0,1.75,0.25,0.5,0.75,0.0,0.75,0.5,0.14,0.2,1.64,1089.11,-20.6,58.1
5.26,8.0,4.25,9.25,15.0,9.25,2.25,4.0,0.5,0.25,0.5,0.75,0.25,1.25,-0.23,0.08,1.95,1387.38,16.4,55.3,7.5,2.75,3.5,3.0,0.25,2.0,1.75,0.25,0.5,0.5,0.25,0.75,0.75,0.02,0.45,1.95,670.83,-19.8,53.9
5.28,8.0,4.25,0.0,12.5,7.0,0.0,2.25,0.5,0.0,0.75,0.0,0.25,1.25,-0.3,0.08,1.77,1116.62,13.9,58.0,6.25,0.0,0.0,0.5,0.0,0.5,1.0,0.25,0.5,0.5,0.25,0.75,1.0,-0.05,1.02,3.2,324.64,-19.5,33.2
5.3,7.75,3.0,7.25,9.0,0.0,0.0,1.25,0.5,0.0,0.5,1.5,0.0,1.25,-0.42,0.14,2.02,819.02,23.4,54.6,2.75,0.0,0.0,0.5,0.0,0.5,1.0,0.5,0.5,0.0,0.0,0.5,1.0,0.39,0.39,1.33,129.05,-13.9,15.9
5.32,6.75,2.25,4.25,6.0,0.0,0.75,1.0,0.0,0.0,0.75,0.0,0.0,1.0,-0.3,0.58,2.14,525.79,22.4,60.4,2.0,0.0,0.0,0.0,0.0,1.5,1.0,0.25,0.5,0.75,0.0,0.75,0.0,0.2,0.95,1.33,0.0,-7.5,12.8
5.34,4.0,0.75,1.25,4.0,0.0,0.75,0.5,0.0,0.0,0.0,0.5,0.0,0.0,-0.55,0.95,2.77,298.54,22.6,66.3,0.0,0.0,1.75,0.0,0.0,2.0,0.5,0.25,0.5,0.0,0.0,0.75,0.0,0.2,0.39,1.39,0.0,-7.7,12.9
5.36,2.25,0.75,1.75,2.5,0.0,0.75,0.75,0.0,0.0,0.75,0.75,0.0,1.0,-0.55,0.52,1.89,169.11,16.0,32.4,0.5,0.5,1.75,0.5,0.0,1.25,0.5,0.25,0.5,0.5,0.25,0.75,1.0,0.2,1.58,1.14,0.0,-8.8,0.4
5.38,0.75,0.5,0.75,1.25,0.0,0.0,0.5,0.25,0.0,0.75,1.5,0.0,0.0,-0.55,0.45,1.95,28.38,15.1,12.2,0.25,0.0,1.0,0.0,0.0,0.75,0.75,0.25,0.5,0.0,0.25,0.75,0.75,0.83,0.27,2.39,0.0,-9.0,-19.4
5.4,2.25,0.0,0.5,2.0,0.0,0.0,0.5,0.0,0.25,0.5,1.5,0.0,1.5,-0.55,0.7,1.64,0.0,14.5,4.4,0.0,0.0,0.75,0.0,0.0,0.75,0.75,0.25,0.5,0.0,0.25,0.5,1.0,0.64,0.08,2.27,0.0,-4.5,-30.7
5.42,0.5,0.0,0.0,0.25,0.0,0.0,0.75,0.0,0.0,0.0,0.5,0.0,0.0,-1.23,1.27,2.45,0.0,23.9,21.7,0.0,0.0,0.0,0.0,0.0,0.75,0.5,0.0,0.5,0.0,0.0,0.5,0.25,1.14,0.27,3.02,0.0,0.6,-32.4
5.44,0.5,0.0,0.0,0.25,0.0,0.0,0.25,0.0,0.0,0.0,0.25,0.0,0.0,-1.8,0.33,2.52,0.0,25.0,42.0,0.5,0.5,1.25,0.5,0.0,1.0,0.5,0.25,0.5,0.5,0.25,0.75,1.0,1.45,-0.23,2.64,0.0,-7.7,-4.9
5.46,0.5,0.0,0.0,0.25,0.0,0.0,0.25,0.0,0.0,0.0,0.0,0.0,0.0,-1.42,0.02,2.27,0.0,29.1,75.6,0.5,0.5,1.75,0.5,0.0,1.25,0.5,0.25,0.5,0.5,0.0,0.75,1.0,1.33,-0.55,2.33,0.0,-8.7,2.8
5.48,0.75,0.0,0.0,2.25,0.0,0.0,0.25,0.0,0.25,0.75,0.0,0.0,0.0,-1.36,-0.05,2.14,0.0,14.4,34.0,0.5,0.5,1.75,0.5,0.0,1.25,0.5,0.25,0.5,0.75,0.25,0.75,0.5,1.52,-0.67,1.77,59.41,-9.5,5.3
5.5,1.75,0.0,0.75,1.75,0.0,0.0,0.5,0.25,0.25,0.75,1.5,0.0,1.0,-1.36,-0.17,2.64,0.0,13.9,2.5,0.5,0.0,1.5,0.5,0.0,1.25,0.5,0.25,0.5,0.75,0.0,0.75,0.25,1.08,-1.17,1.08,89.6,-9.0,3.3
5.52,2.25,0.5,0.75,3.0,0.0,2.25,0.5,0.25,2.5,0.25,1.5,0.0,1.0,-1.05,-0.86,2.45,57.61,10.2,15.2,0.5,0.5,1.5,0.5,0.0,1.25,0.5,0.25,0.5,0.5,0.0,0.75,1.0,0.83,-1.11,0.77,110.24,-7.7,0.8
5.54,1.5,0.0,1.0,2.0,0.0,0.0,0.75,0.0,0.25,0.75,1.5,0.0,0.25,-1.11,-1.11,1.7,99.51,18.3,16.7,0.75,0.75,1.75,0.25,0.0,1.0,0.5,0.25,0.5,0.75,0.0,0.75,1.0,0.58,-0.67,1.39,117.12,-9.5,3.5
5.56,0.0,0.0,1.0,0.0,0.0,0.0,1.0,3.75,2.25,0.0,0.0,0.0,0.0,-0.98,-1.05,1.02,123.31,2.5,-20.7,0.5,0.5,1.75,0.5,0.0,1.25,0.5,0.25,0.5,0.75,0.0,0.75,1.0,0.2,-0.23,1.58,122.02,-8.0,0.4
5.58,0.0,0.0,0.0,0.0,0.0,0.0,3.75,2.0,0.25,0.0,1.0,0.0,0.0,-0.86,-0.98,0.77,112.08,7.6,-22.1,0.5,0.5,0.75,0.25,0.0,1.0,0.5,0.5,0.5,0.5,0.25,0.75,0.0,0.27,0.08,1.7,115.04,-7.4,3.7
5.6,0.0,0.0,0.0,0.0,0.0,0.0,3.25,0.0,1.25,0.0,0.0,0.0,0.0,-0.73,-0.61,1.14,86.53,23.4,-1.7,0.75,0.75,2.0,0.5,0.0,1.0,0.5,0.25,0.5,0.75,0.25,0.75,0.25,0.33,0.2,1.83,118.81,-13.0,15.7
5.62,0.0,0.0,0.0,0.0,0.0,0.0,3.25,1.0,1.25,0.0,0.0,0.0,0.0,-0.55,-0.3,1.58,69.1,12.8,-11.5,0.5,0.75,1.75,0.25,0.0,1.0,0.5,0.25,0.5,0.5,0.0,0.75,0.0,0.27,0.2,2.14,115.63,-13.3,21.2
5.64,1.5,0.0,1.75,2.0,0.0,0.0,3.75,2.75,0.5,0.75,2.0,0.25,0.5,-0.55,0.08,1.83,112.61,12.7,0.3,0.5,0.5,1.75,0.5,0.0,1.0,0.5,0.25,0.5,0.5,0.25,0.75,0.75,0.27,0.64,2.58,117.28,-10.6,3.2
5.66,1.25,0.0,0.75,1.75,0.0,0.0,0.5,0.0,0.25,0.75,1.5,0.0,1.25,-0.61,0.27,2.27,129.61,12.7,-5.5,0.5,0.5,1.75,0.25,0.0,1.0,0.5,0.25,0.5,0.75,0.25,0.75,1.0,0.14,2.02,3.08,116.54,-8.7,-4.9
5.68,1.5,0.0,0.75,2.0,0.0,0.0,0.5,0.0,0.25,0.75,1.25,0.0,1.0,-0.61,0.45,2.7,139.61,14.5,5.3,0.5,0.5,1.25,0.5,0.0,0.75,0.5,0.25,0.5,0.75,0.0,0.75,1.0,-0.3,3.89,3.14,112.06,-7.8,-6.3
5.7,0.5,0.0,0.75,0.25,0.0,0.0,0.25,0.0,0.0,0.0,0.0,0.0,0.0,-0.61,0.89,3.2,101.88,33.5,68.6,0.5,0.5,1.5,0.5,0.0,0.5,0.5,0.25,0.5,0.75,0.25,0.75,0.75,-0.92,6.33,1.95,109.25,-10.9,-3.7
5.72,0.75,0.0,0.75,2.0,0.0,0.0,0.5,0.0,0.25,0.75,1.25,0.0,0.75,-0.23,1.95,4.02,90.69,13.4,0.1,0.5,0.5,0.5,0.5,0.0,1.0,0.5,0.25,0.5,0.75,0.0,0.75,1.0,-1.61,7.58,0.45,104.36,-3.1,-12.8
5.74,0.0,0.0,0.75,0.0,0.0,0.0,0.0,0.0,0.0,0.0,0.25,0.0,0.0,0.83,3.64,2.95,47.92,31.7,28.4,0.5,0.75,0.0,0.25,0.0,0.75,0.5,0.25,0.5,0.5,0.25,0.75,1.25,-0.98,5.58,0.77,97.8,-1.2,-23.4
5.76,0.5,0.0,1.5,0.25,0.0,0.0,0.25,0.0,0.0,0.0,0.5,0.0,0.25,1.77,6.02,2.39,41.95,27.3,29.8,0.75,0.5,0.75,0.0,0.0,1.0,0.5,0.25,0.5,6.5,0.75,6.25,3.5,-1.92,7.95,-0.48,171.35,1.9,-69.0
5.78,1.25,0.25,0.75,0.5,0.0,0.0,0.25,0.0,0.0,0.0,0.25,0.0,1.25,2.02,5.89,-0.92,46.58,16.3,13.9,0.0,1.0,0.25,0.0,0.0,2.0,0.5,3.25,1.5,8.25,6.25,7.5,8.25,-2.67,7.14,6.77,307.78,4.2,-73.6
5.8,0.75,0.0,0.75,2.0,0.0,0.75,0.5,0.25,0.0,0.75,0.75,0.0,1.0,2.27,6.27,-0.67,70.62,8.1,4.5,1.25,0.75,0.25,3.0,1.0,5.25,1.25,4.75,2.75,7.75,7.0,5.5,7.5,-0.98,-0.17,0.95,500.51,2.8,-46.5
5.82,0.5,0.0,0.0,1.75,0.0,0.0,0.0,0.0,0.0,5.25,1.25,5.0,1.25,3.45,7.89,-0.36,132.24,0.3,-68.1,2.0,2.0,4.5,7.25,6.25,6.75,3.25,5.75,4.5,7.75,7.0,5.5,6.0,0.45,1.33,1.14,803.05,-2.2,-14.9
5.84,0.25,0.0,1.0,1.0,0.0,1.25,1.25,4.5,2.25,6.25,7.0,6.0,7.75,2.02,1.27,6.89,281.91,-1.8,-68.1,5.0,3.0,8.25,12.5,9.0,7.75,6.5,6.5,5.0,6.75,7.5,4.25,5.75,0.02,-0.05,1.02,1204.28,-6.1,3.6
5.86,1.0,1.25,0.0,5.25,0.0,2.75,0.75,4.0,3.0,5.25,6.0,3.25,6.0,0.14,-0.23,0.77,407.06,-0.2,-39.4,6.75,4.0,9.0,14.0,10.5,8.0,7.5,6.5,4.5,5.25,6.0,3.0,4.25,0.33,0.2,1.02,1494.32,-7.7,15.8
5.88,2.25,1.25,2.0,9.0,5.75,3.75,2.0,5.0,5.0,5.25,5.25,3.25,3.75,-0.36,0.58,1.02,625.94,3.4,-8.1,8.0,4.75,10.0,16.0,11.5,8.25,8.0,5.75,3.0,4.0,3.75,2.0,3.0,0.02,0.02,1.02,1671.47,-9.3,28.2
5.9,3.75,2.75,5.5,11.5,7.0,4.75,3.75,6.0,6.0,5.25,7.0,3.25,4.0,-0.23,0.14,1.02,914.51,6.3,1.8,9.0,5.25,11.0,17.0,12.0,7.75,8.0,3.25,1.25,2.0,1.5,1.5,2.25,0.08,0.14,1.08,1738.53,-11.7,41.7
5.92,5.25,3.5,7.25,13.5,8.5,5.5,5.0,6.25,6.0,4.0,6.5,2.25,2.75,0.08,0.02,1.02,1222.84,8.3,14.3,9.0,5.5,12.0,17.0,11.5,6.5,7.5,1.75,0.75,0.75,1.0,0.75,1.75,0.27,0.2,1.39,1714.79,-14.0,49.7
5.94,6.25,4.25,8.0,15.0,9.25,6.0,6.0,6.0,5.75,2.25,5.25,1.25,2.25,-0.17,0.08,1.02,1422.01,9.7,24.5,9.5,4.0,10.5,12.5,9.0,5.25,6.0,0.25,0.75,0.5,0.0,1.0,0.75,0.14,0.14,1.83,1556.89,-16.1,55.2
5.96,7.0,5.25,9.25,16.0,10.5,5.5,6.5,4.0,1.75,0.75,2.5,1.0,1.25,-0.11,0.08,1.08,1503.46,12.1,41.9,9.5,4.75,9.75,12.5,7.75,2.0,4.25,0.25,0.5,0.75,0.5,0.75,1.75,0.27,0.14,1.77,1380.08,-17.5,53.7
5.98,7.75,5.0,9.25,16.5,10.5,4.75,6.0,1.25,0.75,0.75,1.5,0.5,1.25,-0.11,0.08,1.39,1501.35,14.0,50.1,8.25,3.0,7.75,7.25,3.5,1.0,2.75,0.25,0.5,0.75,0.5,0.75,1.25,0.14,0.27,1.77,1037.25,-20.0,52.5
6.0,8.0,4.25,9.25,15.5,9.25,2.75,3.5,0.5,0.0,0.75,1.5,0.25,1.25,-0.11,0.08,1.52,1401.22,15.8,53.4,7.5,2.5,4.5,2.0,0.0,1.25,1.75,0.5,0.5,0.75,0.5,0.75,1.25,-0.11,0.58,2.14,657.37,-20.8,46.6
6.02,8.0,4.25,7.25,13.5,6.5,0.75,2.5,0.5,0.0,0.75,1.5,0.0,1.25,-0.17,0.02,1.52,1216.77,17.5,54.8,6.0,0.25,1.25,0.5,0.0,2.0,1.0,0.25,0.5,0.75,0.25,0.75,1.0,-0.11,0.89,3.14,348.25,-15.8,34.0
6.04,7.5,3.0,8.0,9.0,0.0,0.5,1.5,0.25,0.0,0.75,1.5,0.0,1.75,-0.36,0.08,2.08,911.46,22.5,51.2,4.5,0.75,0.25,0.5,0.0,2.0,1.0,0.25,0.5,0.75,0.25,0.75,1.0,0.2,0.52,1.83,182.43,-11.4,26.8
6.06,7.25,2.75,4.75,6.25,0.0,0.25,1.25,0.5,0.25,0.75,0.25,0.0,1.0,-0.42,0.45,2.02,617.78,22.6,57.9,2.0,0.5,0.5,0.5,0.0,2.0,1.0,0.5,0.5,0.0,0.5,0.5,0.0,0.02,0.77,1.64,24.06,-10.3,31.3
6.08,4.25,0.75,2.5,4.0,0.0,0.75,1.0,0.5,0.0,0.0,1.5,0.0,1.0,-0.42,0.89,3.02,362.27,19.8,42.0,0.5,0.5,1.75,0.5,0.0,1.25,0.75,0.25,0.5,0.0,0.0,0.25,0.0,0.02,0.45,0.83,0.0,-15.3,39.5
6.1,0.0,0.0,0.75,2.0,0.0,0.0,1.0,0.5,0.25,0.75,0.0,0.0,0.0,-0.55,0.33,2.02,187.85,13.2,19.8,0.0,0.5,0.25,0.5,0.0,0.5,0.75,0.0,0.5,0.0,0.0,0.25,0.25,0.2,1.45,0.14,0.0,-9.8,15.4
6.12,0.0,0.25,2.0,2.25,0.0,0.0,0.75,0.5,0.25,0.0,1.25,0.0,1.0,-0.61,0.58,1.83,42.34,15.9,7.9,0.0,0.0,0.0,0.0,0.0,0.5,0.25,0.0,0.5,0.0,0.0,0.25,0.25,0.89,0.64,2.33,0.0,1.3,-34.7
6.14,2.25,0.0,0.75,0.5,0.0,0.0,0.5,0.0,0.0,0.0,1.0,0.0,0.0,-0.23,0.64,1.52,0.0,28.3,47.0,0.5,0.5,1.75,0.0,0.0,0.5,0.5,0.25,0.5,0.5,0.25,0.75,0.25,0.83,0.27,2.39,0.0,-14.7,5.7
6.16,0.5,0.0,1.0,1.25,0.0,0.0,0.5,0.0,0.5,0.0,0.0,0.0,0.0,-0.86,1.58,0.89,0.0,26.0,48.5,0.5,0.25,1.75,0.25,0.0,0.5,0.5,0.25,0.5,0.0,0.25,0.5,1.0,1.02,0.14,2.33,0.0,-14.1,0.6
6.18,0.5,0.0,0.75,0.5,0.0,0.0,0.25,0.0,0.5,0.0,0.0,0.25,0.75,-1.67,0.2,2.2,0.0,16.6,-1.4,0.5,0.5,0.75,0.5,0.0,1.0,0.75,0.25,0.5,0.75,0.25,0.75,1.0,1.45,0.39,2.95,0.0,-5.1,-11.6
6.2,1.0,0.25,1.5,0.25,0.0,0.0,2.75,0.0,0.25,0.0,0.25,0.0,0.25,-1.3,0.2,2.27,0.0,28.5,40.7,0.5,0.5,1.75,0.0,0.0,1.5,0.5,0.25,0.5,0.5,0.0,0.75,1.0,1.45,-0.42,2.39,8.29,-7.1,0.0
6.22,0.5,0.0,0.75,0.5,0.0,0.0,0.5,0.0,0.25,0.0,0.0,0.0,0.0,-1.23,0.08,2.52,0.0,29.2,53.4,0.5,0.75,1.75,0.0,0.0,1.25,0.5,0.25,0.5,0.5,0.25,0.75,1.0,1.33,-0.67,1.83,60.93,-8.4,-0.1
6.24,0.0,0.0,1.0,0.0,0.0,0.0,1.75,0.75,0.0,0.0,1.75,0.0,0.25,-1.17,0.14,2.83,0.0,15.0,-21.7,0.5,0.5,1.75,0.5,0.0,1.0,0.5,0.25,0.5,0.5,0.25,0.75,1.0,1.02,-1.11,1.27,91.76,-9.8,-0.5
6.26,1.5,0.0,0.0,0.0,0.0,0.25,2.75,0.0,0.5,0.0,0.0,0.0,0.5,-1.05,-0.42,2.64,0.0,21.5,26.6,0.5,0.5,1.75,0.5,0.0,1.25,0.5,0.25,0.5,0.75,0.25,0.75,1.0,0.95,-1.36,0.89,111.76,-8.1,-1.8
6.28,2.25,0.0,0.0,0.75,0.0,1.5,3.75,0.0,1.0,0.5,0.0,0.0,0.0,-1.3,-0.8,1.95,28.24,15.4,35.9,0.5,0.5,1.75,0.25,0.0,1.0,0.5,0.25,0.5,0.75,0.0,0.75,0.75,0.89,-0.86,0.95,117.88,-9.4,1.1
6.3,0.75,0.0,1.0,0.0,0.0,0.0,0.5,0.0,0.0,0.0,1.5,0.0,0.5,-1.11,-0.98,1.08,48.6,20.4,-7.1,0.5,0.5,1.75,0.25,0.0,1.0,0.5,0.25,0.5,0.75,0.25,0.75,0.5,0.77,-0.36,1.39,121.67,-10.3,2.5
6.32,0.25,0.0,0.0,0.75,0.0,1.25,3.75,1.5,1.25,0.75,0.75,0.25,0.0,-0.86,-1.05,0.7,88.91,4.8,-10.2,0.5,0.5,1.75,0.5,0.0,1.0,0.5,0.25,0.5,0.75,0.0,0.75,1.0,0.33,0.14,1.7,123.89,-8.9,-0.6
6.34,0.75,0.0,1.75,0.0,0.0,0.0,3.75,2.75,1.25,0.0,1.0,0.5,0.0,-0.8,-0.98,0.89,117.02,13.9,-5.5,0.5,0.75,1.75,0.5,0.0,1.0,0.5,0.25,0.5,0.5,0.25,0.75,1.0,0.33,0.33,2.08,126.98,-9.9,2.6
6.36,0.0,0.0,1.0,0.0,0.0,0.0,0.75,0.0,1.25,0.0,0.75,0.0,0.75,-0.61,-0.55,1.45,108.81,15.3,-27.8,0.5,0.5,1.5,0.5,0.0,1.0,0.5,0.25,0.5,0.75,0.0,1.0,1.0,0.39,0.39,2.14,125.3,-7.9,-6.1
6.38,0.0,0.0,0.0,0.0,0.0,0.0,3.0,0.0,0.0,0.0,0.0,0.0,0.0,-0.55,-0.11,1.7,84.17,32.4,27.3,0.5,0.5,1.75,0.25,0.5,0.75,0.5,0.25,0.5,1.5,0.25,0.75,1.0,0.64,0.52,2.52,126.43,-6.7,-8.1
6.4,0.0,0.0,0.0,0.0,0.0,0.0,0.0,0.0,0.0,0.0,0.0,0.0,0.0,-0.55,0.08,2.02,47.2,0.0,0.0,0.5,0.5,1.75,0.5,0.0,1.0,0.5,0.25,0.5,0.75,0.25,0.75,0.75,0.39,1.64,3.2,124.99,-9.7,0.6
6.42,1.5,0.0,0.75,2.0,0.0,0.0,0.25,0.0,0.25,0.75,0.0,0.0,0.0,-0.55,0.2,2.33,47.81,20.3,45.0,0.75,0.5,1.5,0.25,0.0,0.75,0.5,0.25,0.5,0.75,0.25,0.75,1.0,0.02,2.89,3.2,121.43,-9.5,-5.2
6.44,0.5,0.0,0.75,0.25,0.0,0.0,0.25,0.0,0.0,0.0,0.0,0.0,0.0,-0.36,0.52,2.89,34.08,33.5,68.6,0.5,0.5,1.75,0.5,0.0,1.0,0.5,0.25,0.5,0.5,0.0,0.75,0.25,-0.86,5.02,3.08,114.52,-12.4,14.6
6.46,0.5,0.0,0.75,0.25,0.0,0.0,0.25,0.0,0.0,0.0,0.0,0.0,0.0,-0.23,1.02,3.45,35.49,33.5,68.6,0.5,0.5,1.5,0.25,0.0,0.75,0.5,0.25,0.5,0.75,0.25,0.75,1.0,-1.86,7.27,1.52,110.87,-8.7,-8.5
6.48,0.5,0.0,0.75,0.25,0.0,0.75,0.25,0.0,0.25,0.0,0.0,0.0,0.0,0.27,2.14,4.02,30.44,15.9,48.8,0.5,0.75,1.0,0.5,0.0,0.75,0.75,0.25,0.5,0.5,0.25,0.75,1.0,-2.55,6.77,-0.23,107.72,-8.2,-4.2
6.5,0.5,0.0,0.75,0.25,0.0,0.0,0.5,0.0,0.0,0.0,0.0,0.0,0.0,1.33,4.64,3.33,25.42,33.4,65.8,0.5,0.5,0.75,0.0,0.0,1.0,0.5,0.25,0.25,1.25,0.0,1.0,1.0,-1.17,5.83,-0.67,103.85,-1.8,-22.8
6.52,0.25,0.0,0.75,0.25,0.0,0.0,0.25,0.0,0.0,0.0,1.0,0.0,0.75,2.33,6.64,0.95,24.9,14.7,-22.2,0.5,0.5,0.25,0.5,0.0,2.0,0.25,1.25,1.25,9.5,2.0,7.75,8.0,-3.23,7.95,-0.05,237.49,5.2,-74.3
6.54,0.5,0.0,0.75,0.25,0.0,0.0,0.25,0.0,0.0,0.0,0.0,0.0,0.0,2.64,6.45,-0.17,25.12,33.5,68.6,0.5,0.75,0.0,0.75,1.0,4.0,1.0,5.5,2.5,8.75,8.5,6.25,8.5,1.14,1.33,4.14,409.18,4.4,-60.4
6.56,1.0,0.0,0.75,0.25,0.0,0.0,0.25,0.0,0.0,0.0,0.0,0.0,0.0,1.95,5.08,0.14,26.18,33.8,75.1,2.0,1.75,3.0,6.25,5.5,6.5,2.5,6.5,3.75,8.25,7.25,4.75,6.75,-0.23,0.08,0.89,710.94,-0.3,-20.5
6.58,0.25,0.0,0.75,0.5,0.0,0.0,0.25,0.0,0.0,2.0,0.0,2.25,0.25,3.39,5.89,5.52,50.06,5.7,-52.3,4.5,2.5,6.25,10.5,7.75,7.25,4.75,7.25,5.0,8.0,7.5,4.75,6.0,-0.05,0.14,1.08,1092.87,-4.3,-4.3
6.6,0.0,0.5,0.75,0.25,0.0,2.0,3.5,4.0,2.5,7.75,6.25,6.75,7.75,2.83,3.08,2.39,244.05,-2.2,-66.9,6.25,3.75,8.25,12.5,9.0,7.75,6.75,7.25,5.0,6.75,7.25,3.5,5.25,-0.05,-0.05,1.02,1428.71,-6.5,7.3
6.62,2.25,1.25,0.0,5.25,0.0,2.75,1.0,5.25,4.25,6.5,7.5,4.75,6.5,0.58,0.77,1.52,422.29,0.6,-40.9,7.75,4.75,9.25,14.5,10.5,8.0,7.5,6.75,3.75,5.0,5.5,2.25,3.75,0.2,0.14,1.02,1625.08,-8.2,20.7
6.64,2.25,1.5,3.25,9.0,6.25,4.75,2.25,6.0,5.75,6.25,6.75,4.25,5.0,0.02,0.64,1.02,738.38,3.1,-12.1,8.75,5.5,10.5,16.0,10.5,8.0,8.0,5.5,1.75,3.0,2.5,2.0,2.75,0.08,0.14,1.02,1722.2,-10.4,33.7
6.66,3.75,2.75,5.5,11.5,8.0,5.25,3.5,6.25,6.25,5.5,7.25,3.5,4.0,0.02,0.2,0.95,1054.3,5.8,1.6,9.0,5.5,11.0,17.0,11.0,7.5,7.75,3.0,1.0,2.0,1.25,1.0,1.75,0.08,0.14,1.14,1732.16,-12.3,44.6
6.68,5.25,3.75,7.25,14.0,8.5,5.5,5.0,6.5,6.25,4.0,6.25,2.25,3.0,0.02,0.14,1.02,1346.4,8.2,14.4,9.5,5.75,11.0,16.0,10.0,5.5,6.75,0.5,0.75,0.75,1.25,0.75,1.75,0.08,0.14,1.39,1649.72,-15.1,51.3
6.7,6.25,4.25,8.0,15.0,9.5,6.5,6.0,5.75,5.25,2.25,5.0,1.0,1.5,-0.11,0.14,1.02,1475.84,9.8,27.5,10.0,5.5,9.25,12.5,7.75,2.0,5.0,0.5,0.5,0.75,0.0,0.75,1.0,0.08,0.08,1.77,1469.12,-17.8,57.6
6.72,7.5,4.75,8.75,16.0,10.5,5.75,6.5,4.5,2.25,0.75,2.5,1.0,1.5,-0.17,0.14,1.14,1534.87,11.7,40.0,9.0,5.0,8.25,7.25,3.75,0.5,2.75,0.5,0.5,0.75,0.5,0.75,1.0,0.08,0.2,1.77,1170.56,-20.5,56.5
6.74,8.0,5.0,9.25,16.0,10.5,4.75,6.0,1.5,0.5,0.75,1.5,0.5,1.25,-0.17,0.14,1.52,1512.97,13.9,50.2,8.25,4.0,4.75,3.25,0.0,1.75,2.25,0.25,0.25,0.75,0.25,0.75,1.0,0.14,0.58,1.77,768.85,-20.9,55.6
6.76,8.25,4.25,9.0,15.0,9.25,2.75,3.75,0.5,0.25,0.75,0.75,0.25,1.25,-0.23,0.08,2.02,1407.76,15.8,54.7,7.5,2.5,1.75,1.25,0.0,1.5,1.5,0.5,0.5,0.75,0.25,0.75,1.0,0.14,0.77,2.83,430.9,-18.3,47.6
6.78,7.5,3.75,0.0,12.5,7.0,0.75,1.75,0.5,0.0,0.75,0.0,0.25,1.25,-0.23,0.14,1.45,1132.47,12.8,56.6,5.25,1.25,1.75,0.5,0.0,1.5,1.0,0.5,0.5,0.75,0.25,0.75,1.0,0.2,0.45,1.95,243.43,-16.2,35.3
6.8,8.0,2.75,6.5,8.0,0.0,0.25,0.0,0.5,0.0,0.75,1.0,0.0,0.75,-0.36,0.2,2.08,805.23,23.4,58.7,1.75,0.75,0.5,0.5,0.0,2.0,0.75,0.25,0.5,0.0,0.0,0.25,1.0,0.45,0.14,1.52,86.42,-7.0,26.3
6.82,6.25,1.25,3.25,4.5,0.0,0.0,0.5,0.25,0.0,0.0,0.75,0.0,1.0,-0.23,0.52,1.83,479.56,24.4,57.6,0.5,0.0,0.0,0.0,0.0,0.5,0.25,0.0,0.5,0.0,0.0,0.25,0.0,0.33,0.77,1.52,0.0,-9.8,10.4
6.84,2.75,0.0,0.75,2.0,0.0,0.0,0.5,0.0,0.0,0.0,0.0,0.0,0.25,-0.3,0.52,1.83,241.03,26.9,67.1,0.0,0.0,1.75,0.5,0.0,1.25,0.75,0.25,0.5,0.5,0.25,0.75,1.0,0.52,-0.05,1.77,0.0,-7.2,-12.5
6.86,0.0,0.0,0.75,2.25,0.0,0.25,0.5,0.0,0.0,0.0,0.0,0.0,0.25,-0.86,0.2,2.02,68.12,17.8,43.9,0.75,0.75,0.75,0.5,0.0,1.25,0.5,0.25,0.5,0.5,0.25,0.75,1.0,0.45,1.08,3.33,0.0,-5.7,-1.4
6.88,1.0,0.25,0.75,0.0,0.0,0.0,0.75,0.5,0.0,0.75,1.25,0.0,1.0,-0.3,0.52,2.27,0.0,9.6,-18.3,0.0,0.0,2.0,0.0,0.0,0.75,0.5,0.25,0.5,0.0,0.25,0.5,1.0,0.64,0.27,2.52,0.0,-11.8,-10.5
6.9,2.25,0.0,0.75,2.0,0.0,0.0,0.5,0.0,0.25,0.5,1.25,0.0,1.25,-0.55,0.64,1.45,0.0,16.2,11.9,0.0,0.0,0.5,0.0,0.0,0.5,0.5,0.25,0.5,0.75,0.0,0.75,0.25,0.83,0.14,2.39,0.0,-2.6,-38.0
6.92,2.25,0.0,0.75,2.25,0.0,0.0,0.5,0.0,0.25,0.5,1.5,0.0,1.25,-1.17,0.7,2.33,0.0,16.1,10.8,0.5,0.5,1.75,0.5,0.0,0.5,0.5,0.25,0.5,0.5,0.25,0.75,1.0,1.2,0.08,2.7,0.0,-11.9,-2.7
6.94,2.25,0.25,0.75,2.25,0.0,0.0,0.5,0.0,0.25,0.5,1.5,0.0,1.0,-1.05,0.33,2.27,0.0,16.9,16.8,0.75,0.5,1.75,0.0,0.0,1.25,0.5,0.25,0.25,0.25,0.0,0.75,0.75,1.45,-0.3,2.77,0.0,-10.6,10.6
6.96,2.25,0.25,0.75,2.0,0.0,0.0,0.5,0.0,0.25,0.75,1.5,0.0,1.0,-1.11,0.08,2.08,0.0,15.9,13.1,0.5,0.5,1.75,0.0,0.0,0.75,0.5,0.25,0.25,0.25,0.0,0.75,0.75,1.27,-1.05,1.58,32.34,-12.3,5.4
6.98,2.0,0.0,0.75,2.25,0.0,0.5,0.5,0.0,0.25,0.75,1.25,0.0,1.0,-1.3,0.02,2.14,12.87,13.7,13.2,0.5,0.5,1.75,0.0,0.0,0.75,0.5,0.25,0.25,0.25,0.0,0.75,0.0,0.89,-1.23,1.2,58.16,-16.2,22.4
7.0,1.75,0.0,0.75,1.75,0.0,0.25,0.5,0.0,0.25,0.5,1.25,0.0,1.0,-1.36,-0.3,2.89,46.27,14.9,9.8,0.5,0.5,1.75,0.0,0.0,0.5,0.5,0.25,0.5,0.25,0.0,0.75,0.75,0.83,-1.48,1.02,74.89,-13.7,2.4
7.02,2.0,0.0,0.75,2.0,0.0,0.75,0.5,0.0,0.25,0.5,1.5,0.0,1.0,-1.17,-0.86,2.39,85.97,13.3,12.5,0.5,0.5,1.75,0.0,0.0,0.75,0.5,0.25,0.25,0.5,0.0,0.75,0.5,0.7,-0.98,0.95,83.93,-12.3,6.9
7.04,2.5,0.25,0.75,2.25,0.0,0.5,0.5,0.75,0.25,0.75,1.25,0.0,0.0,-1.3,-1.05,1.39,114.06,15.3,29.1,0.75,0.5,1.5,0.0,0.0,0.5,0.25,0.25,0.25,0.5,0.0,0.75,0.0,0.52,-0.42,1.2,88.45,-15.8,18.5
7.06,1.75,0.0,0.75,2.25,0.0,0.5,0.5,0.0,0.75,1.25,1.5,0.5,1.0,-0.98,-1.05,1.02,141.56,11.4,-3.2,1.0,0.5,1.75,0.0,0.0,0.75,0.5,0.25,0.25,0.5,0.0,0.75,0.5,0.33,-0.17,1.39,95.12,-13.9,13.5
7.08,1.0,0.25,1.0,2.0,0.0,0.0,1.0,0.0,0.25,0.75,1.75,0.25,0.75,-0.98,-0.92,0.83,149.06,15.0,0.9,0.75,0.5,1.75,0.25,0.0,0.75,0.5,0.25,0.25,0.5,0.0,0.75,0.25,0.2,0.02,1.83,93.78,-14.4,17.3
7.1,2.0,0.0,0.75,0.25,0.0,0.0,0.5,0.0,0.0,0.0,1.5,0.0,1.25,-0.73,-0.61,1.2,132.34,17.8,0.1,0.75,0.5,1.75,0.0,0.0,0.5,0.5,0.25,0.25,0.5,0.0,0.75,0.75,0.27,0.08,2.27,97.09,-13.4,4.5
7.12,0.5,0.0,0.5,0.25,0.0,0.0,0.5,0.0,0.0,0.0,0.0,0.0,0.0,-0.55,-0.23,1.58,89.2,32.5,66.6,0.5,0.5,1.75,0.0,0.0,1.0,0.5,0.25,0.25,0.5,0.0,0.75,0.75,0.33,0.2,2.33,100.28,-10.0,3.3
7.14,0.75,0.0,0.75,2.0,0.0,0.5,0.25,0.0,0.0,0.0,0.0,0.0,0.0,-0.61,0.08,1.83,65.54,20.0,61.6,0.5,0.5,1.75,0.0,0.0,0.5,0.5,0.0,0.25,0.5,0.0,0.75,0.75,0.52,0.64,2.83,97.87,-13.8,2.6
7.16,0.5,0.0,0.5,0.25,0.0,0.0,0.25,0.0,0.0,0.0,0.0,0.0,0.25,-0.67,0.27,2.39,36.94,25.2,41.5,0.5,0.5,1.5,0.25,0.0,0.5,0.25,0.25,0.25,0.5,0.0,0.75,0.25,0.08,2.02,3.2,91.07,-13.6,10.8
7.18,0.5,0.0,0.75,0.25,0.0,0.0,0.25,0.0,0.0,0.0,0.0,0.0,0.0,-0.67,0.39,3.08,23.64,33.5,68.6,0.5,0.5,0.5,0.25,0.0,0.5,0.5,0.5,0.25,0.5,0.0,0.75,0.5,-0.8,3.7,3.45,84.88,-6.0,-7.8
7.2,0.5,0.0,0.75,0.25,0.0,0.0,0.5,0.0,0.0,0.0,1.25,0.0,1.0,-0.55,0.7,3.52,23.7,14.3,-22.6,0.5,0.5,0.75,0.25,0.0,0.5,0.5,0.25,0.25,0.5,0.0,0.75,0.75,-2.36,7.2,-0.17,81.78,-7.7,-8.0
7.22,0.5,0.0,0.75,0.25,0.0,0.0,0.25,0.0,0.0,0.0,0.0,0.0,0.0,-0.36,1.89,3.77,19.64,33.5,68.6,0.75,0.5,0.5,0.25,0.0,0.5,0.5,0.25,0.25,0.5,0.0,0.75,0.75,-2.17,5.7,-0.48,79.01,-7.5,-6.6
7.24,0.5,0.0,0.75,0.25,0.0,0.0,1.75,0.0,1.5,0.0,1.75,0.0,0.5,0.52,3.83,3.45,38.11,17.7,-18.3,0.5,0.25,0.5,0.0,0.0,0.5,0.5,0.25,0.25,5.75,0.0,5.0,1.75,-2.36,7.7,0.08,133.06,2.3,-71.6
7.26,0.5,0.0,0.5,0.25,0.0,0.0,0.25,0.0,0.25,0.75,0.0,0.5,0.0,1.95,5.95,2.27,36.98,14.0,-8.8,0.5,0.5,0.5,0.25,0.0,3.0,0.5,4.75,1.75,9.0,7.5,7.5,8.75,-1.36,5.83,7.08,303.52,4.2,-69.0
7.28,0.5,0.0,0.75,0.25,0.0,0.0,0.25,0.0,0.0,0.0,0.0,0.0,0.0,3.02,6.52,0.64,35.23,33.5,68.6,2.0,1.0,0.75,3.0,3.0,6.0,1.5,5.75,3.0,8.0,7.5,5.25,7.75,-1.11,-0.61,0.83,531.48,2.3,-37.6
7.3,0.5,0.0,0.75,0.25,0.0,0.0,0.25,0.0,0.5,0.0,0.0,0.0,0.0,2.7,5.58,-0.11,29.12,28.5,43.6,3.0,2.25,4.5,8.75,6.25,7.0,3.0,6.5,4.25,8.25,7.5,5.25,6.5,0.95,0.89,0.95,886.95,-2.4,-12.7
7.32,0.5,0.0,0.75,0.0,0.0,0.0,0.25,0.0,0.0,0.25,0.25,0.75,0.5,2.58,6.2,-0.8,34.28,15.4,-25.5,4.75,2.75,7.25,12.0,9.0,7.5,5.5,7.25,5.0,7.75,7.75,4.5,6.0,0.08,0.14,1.08,1284.97,-5.0,-0.2
7.34,0.0,1.25,0.25,0.5,0.0,1.75,0.25,1.25,0.5,7.5,4.0,6.5,6.75,-0.17,-0.48,0.45,186.65,-4.1,-71.3,6.5,3.75,9.0,14.0,10.5,7.75,7.0,7.0,4.75,6.0,6.25,3.25,4.5,0.2,0.14,1.02,1544.43,-7.3,13.1
7.36,0.75,0.25,0.0,3.25,0.0,2.75,0.0,4.75,3.25,6.25,7.5,4.25,6.75,0.95,1.02,1.27,336.74,-2.3,-54.9,7.5,4.75,9.75,15.5,11.5,8.0,7.5,6.5,3.25,3.75,4.5,2.25,2.75,0.02,0.02,1.02,1693.23,-8.9,26.2
7.38,2.25,1.5,0.5,8.25,5.25,4.5,1.75,5.5,5.25,5.25,6.5,3.25,5.0,-0.05,0.14,1.08,585.35,1.5,-15.0,8.25,5.25,10.5,17.0,11.5,7.75,7.75,4.75,1.0,1.75,2.25,1.5,2.5,0.14,0.08,1.08,1747.5,-10.9,38.5
7.4,3.75,3.25,5.75,12.5,8.25,5.5,4.25,6.0,6.25,5.25,7.0,3.25,3.75,0.02,0.08,1.08,940.28,6.4,5.1,9.0,5.25,11.0,17.0,11.5,6.5,7.25,1.75,0.75,1.25,0.75,0.75,1.0,0.14,0.14,1.2,1706.18,-13.7,50.7
7.42,5.5,4.25,7.25,13.5,9.25,6.25,5.5,6.0,6.0,4.0,6.0,2.25,2.5,0.02,0.14,1.02,1284.9,8.2,17.2,9.0,5.25,10.5,15.5,10.5,3.75,6.0,1.0,0.5,0.75,0.25,0.75,1.25,0.14,0.14,1.89,1584.07,-15.5,53.9
7.44,6.25,4.75,8.25,15.0,10.0,6.5,6.0,5.75,5.5,2.25,4.75,1.0,1.5,-0.11,0.14,1.02,1467.06,9.8,28.4,9.0,4.75,9.75,12.0,8.0,0.0,4.25,0.5,0.25,0.5,0.0,0.75,1.0,0.14,0.08,1.64,1378.33,-19.3,58.4
7.46,7.25,5.5,8.75,16.0,10.5,6.25,6.25,4.0,3.0,0.75,3.0,0.75,1.5,-0.11,0.14,1.08,1548.29,11.6,39.9,8.75,3.75,8.0,7.0,4.25,0.5,2.0,0.25,0.25,0.5,0.25,0.75,1.0,0.14,0.27,1.77,1042.21,-20.7,58.0
7.48,8.0,5.25,9.0,16.0,10.5,4.75,5.75,1.25,0.25,0.75,1.75,0.25,1.25,-0.11,0.14,1.2,1527.46,13.9,51.2,7.5,2.25,2.0,2.75,0.25,0.75,1.5,0.25,0.25,0.5,0.75,0.75,1.25,-0.05,0.64,1.83,628.72,-20.0,47.2
7.5,8.25,4.75,8.5,14.5,9.5,2.75,3.5,0.25,0.25,0.75,1.75,0.0,1.25,-0.3,0.08,2.39,1422.76,15.5,54.0,6.0,1.25,1.75,0.5,0.0,1.75,1.0,0.25,0.25,1.0,0.0,0.75,0.75,0.08,0.7,2.45,330.31,-17.2,43.4
7.52,8.25,4.25,8.75,13.0,0.0,0.5,2.5,0.0,0.0,0.0,0.0,0.25,1.25,-0.3,0.14,1.39,1165.04,24.1,63.4,4.5,0.5,1.5,0.5,0.0,1.5,1.0,0.25,0.25,0.5,0.0,0.75,0.75,0.2,0.45,1.2,164.2,-17.1,37.9
7.54,8.0,3.25,7.0,10.0,0.0,0.0,1.0,0.5,0.25,0.75,0.0,0.0,1.25,-0.17,0.14,1.64,861.85,23.3,59.6,2.25,0.5,1.5,0.5,0.0,1.25,0.75,0.5,0.25,0.5,0.25,0.75,0.75,0.39,0.95,1.64,24.85,-12.8,19.4
7.56,7.75,2.5,5.5,6.25,0.0,0.5,0.75,0.5,0.25,0.75,0.0,0.0,1.25,-0.3,0.2,1.95,582.14,22.6,57.9,0.5,0.0,1.25,0.25,0.0,1.25,0.25,0.25,0.25,0.25,0.0,0.25,0.25,0.14,0.64,1.39,0.0,-8.8,19.5
7.58,6.0,0.25,2.5,2.5,0.0,0.0,0.75,0.0,0.0,0.0,0.0,0.0,0.75,-0.23,0.64,2.77,330.0,28.2,66.2,0.0,0.0,0.0,0.0,0.0,0.5,1.0,0.25,0.25,0.0,0.0,0.25,0.25,0.14,1.27,1.02,0.0,-1.1,-23.3
7.6,3.75,0.5,0.75,2.75,0.0,0.75,0.5,0.0,0.0,0.75,0.0,0.0,0.0,-0.48,0.45,2.27,185.23,20.0,62.0,0.0,0.0,0.0,0.0,0.0,0.5,0.0,0.25,0.25,0.0,0.0,0.5,0.0,0.89,0.33,2.45,0.0,5.1,-39.4
7.62,0.0,0.5,0.75,2.5,0.0,0.25,0.5,0.0,0.25,0.5,0.0,0.0,1.0,-0.3,0.83,1.89,39.11,10.4,16.8,0.5,0.25,0.5,0.0,0.0,0.5,0.5,0.25,0.25,0.5,0.0,0.75,0.25,0.77,0.14,2.27,0.0,-7.6,-10.6
7.64,0.5,0.0,0.75,2.0,0.0,0.0,0.5,0.5,0.0,0.0,0.0,0.25,1.0,-0.3,0.52,1.2,0.0,12.9,11.3,0.5,0.5,0.75,0.25,0.0,1.25,0.75,0.5,0.25,0.25,0.0,0.75,0.0,1.02,0.08,2.45,0.0,-7.3,14.9
7.66,0.5,0.0,0.0,1.0,0.0,0.5,0.5,0.0,0.25,0.5,0.0,0.0,1.25,-0.55,1.39,0.58,0.0,2.0,-14.0,0.5,0.5,1.25,0.25,0.25,1.0,0.5,0.25,0.25,0.5,0.0,0.75,0.25,1.33,0.02,2.89,0.0,-9.3,12.9
7.68,0.5,0.25,0.0,2.25,0.0,0.0,0.5,0.0,0.25,0.5,0.0,0.0,1.0,-1.55,0.33,2.27,0.0,9.6,10.5,0.5,0.5,1.75,0.25,0.0,1.0,0.5,0.25,0.25,0.5,0.0,0.75,0.0,1.39,-0.55,2.52,0.0,-13.4,20.3
7.7,1.25,0.25,0.75,2.0,0.0,0.5,0.5,0.0,0.0,0.75,0.0,0.0,1.0,-1.17,0.39,2.27,0.0,11.9,23.7,0.5,0.5,1.75,0.25,0.0,0.75,0.5,0.25,0.25,0.5,0.0,0.75,0.0,1.45,-0.8,1.83,37.86,-14.9,19.8
7.72,1.25,0.25,0.75,2.25,0.0,0.0,0.5,0.0,0.0,0.5,0.0,0.0,1.0,-1.23,0.27,2.14,0.0,15.8,28.3,0.5,0.5,1.75,0.25,0.0,1.25,0.25,0.25,0.25,0.25,0.0,0.75,0.0,1.33,-1.11,1.02,68.05,-12.8,24.8
7.74,2.0,0.0,0.75,2.0,0.0,0.0,0.5,0.0,0.0,0.5,0.0,0.0,0.75,-1.42,0.2,2.58,0.0,19.2,37.6,0.5,0.5,1.5,0.0,0.0,1.25,0.25,0.25,0.25,0.25,0.0,0.75,0.75,1.2,-1.3,0.7,81.23,-8.1,4.8
7.76,2.0,0.0,0.75,2.0,0.0,0.0,0.5,0.0,0.0,0.5,0.0,0.0,1.0,-1.36,-0.48,3.02,31.96,17.9,31.8,0.5,0.5,1.5,0.0,0.0,0.75,0.25,0.25,0.25,0.5,0.0,0.75,0.0,0.7,-0.86,1.02,86.08,-13.1,15.5
7.78,2.0,0.75,1.0,1.75,0.0,0.0,0.5,0.0,0.0,0.5,0.0,0.0,1.25,-1.17,-0.86,2.33,63.76,17.0,33.9,0.5,0.5,1.75,0.0,0.0,0.75,0.5,0.25,0.25,0.5,0.0,0.75,0.75,0.27,-0.23,1.45,94.17,-11.2,2.1
7.8,1.25,0.0,0.75,1.75,0.0,0.0,0.5,0.0,0.0,0.5,0.0,0.0,1.25,-1.23,-0.98,1.39,80.24,14.5,16.3,0.75,0.5,0.75,0.25,0.0,1.0,0.5,0.5,0.25,0.5,0.0,0.75,0.25,0.08,0.02,1.83,97.81,-7.2,7.6
7.82,1.25,0.0,0.5,2.0,0.0,0.0,0.5,0.0,0.0,0.0,0.0,0.0,0.5,-0.98,-0.92,0.83,88.95,21.4,47.8,0.75,0.5,1.75,0.0,0.0,1.0,0.5,0.25,0.25,0.5,0.0,0.75,0.25,0.2,0.27,2.02,101.59,-12.9,16.2
7.84,1.75,0.0,0.0,0.75,0.0,0.0,0.75,0.0,0.0,0.5,0.0,0.0,1.0,-0.98,-0.67,0.83,81.78,14.0,14.9,0.5,0.5,1.5,0.25,0.0,0.75,0.5,0.25,0.25,0.5,0.0,0.75,0.25,0.33,0.27,2.08,98.3,-12.5,12.1
7.86,2.25,0.0,0.5,0.5,0.0,0.0,3.25,0.0,0.0,0.5,0.0,0.0,0.25,-0.86,-0.3,1.27,82.98,25.9,44.7,0.5,0.5,1.5,0.25,0.0,0.75,0.5,0.25,0.25,0.25,0.0,0.75,0.5,0.39,0.45,2.64,94.89,-12.6,10.4
7.88,0.5,0.0,0.0,0.5,0.0,0.0,0.5,0.0,0.0,0.0,0.0,0.0,0.5,-0.67,-0.11,1.7,62.27,14.9,14.9,0.5,0.5,1.5,0.0,0.0,0.5,0.5,0.25,0.25,0.5,0.0,0.75,0.25,0.08,1.64,3.39,88.82,-13.9,8.8
7.9,0.0,0.0,1.25,0.0,0.0,0.0,0.0,0.0,0.0,0.0,0.0,0.0,0.0,-0.55,0.14,2.2,43.71,38.2,61.0,0.5,0.5,1.5,0.5,0.0,0.5,0.5,0.25,0.25,0.25,0.0,0.75,0.0,-0.61,3.45,3.64,85.95,-17.0,23.5
7.92,0.0,0.0,0.0,0.0,0.0,0.0,0.0,0.0,0.0,0.0,0.0,0.0,0.0,-0.61,0.52,2.58,15.26,0.0,0.0,0.5,0.5,1.25,0.25,0.0,0.5,0.5,0.25,0.25,0.25,0.0,0.75,0.75,-1.36,5.58,2.27,84.33,-11.7,1.4
7.94,0.75,0.0,2.25,0.75,0.0,0.0,3.0,0.0,0.0,0.5,0.0,0.0,0.5,-0.8,0.83,3.02,32.95,25.3,32.0,0.5,0.5,0.5,0.25,0.0,0.5,0.5,0.25,0.25,0.25,0.0,0.75,0.75,-1.8,7.2,0.95,79.84,-7.3,-8.2
7.96,1.0,0.0,1.0,2.0,0.0,0.0,1.0,0.0,0.0,0.25,0.0,0.0,0.5,-0.73,1.39,3.64,49.37,21.2,40.2,0.5,0.5,0.0,0.25,0.0,0.5,0.5,0.0,0.25,0.5,0.0,0.75,1.0,-2.11,5.89,-0.3,73.84,-2.6,-24.0
7.98,0.75,0.25,0.75,1.5,0.0,0.0,0.5,0.0,0.0,0.5,0.0,0.0,0.75,-0.23,2.77,3.83,68.18,15.3,24.1,0.5,0.5,0.25,0.0,0.25,0.5,0.5,0.25,0.25,1.75,0.0,1.5,1.25,-1.73,5.7,-0.17,83.92,0.5,-42.1
8.0,0.75,0.0,0.75,1.25,0.0,0.0,0.5,0.0,0.0,0.25,0.0,0.0,0.25,1.08,4.7,2.2,68.41,21.7,42.7,0.5,0.5,0.25,0.25,0.0,1.75,0.5,1.25,1.0,8.5,2.25,7.75,7.5,-0.86,-0.11,-1.36,221.16,4.6,-75.5
8.02,0.75,0.25,1.0,2.25,0.0,0.0,0.5,0.0,0.0,0.75,0.0,0.0,1.0,2.27,6.39,1.7,80.44,14.0,20.4,0.5,0.5,0.5,0.5,0.0,3.0,0.0,4.5,1.75,8.25,7.5,6.0,8.5,0.02,-0.17,1.02,373.51,4.4,-67.1
8.04,1.0,0.0,0.75,2.0,0.0,0.0,0.5,0.0,0.0,0.5,0.0,0.0,1.25,3.14,6.27,0.2,86.25,13.8,14.9,1.75,1.25,1.75,4.0,3.5,5.25,1.5,5.75,3.0,8.25,7.0,5.25,7.25,-0.42,-0.61,1.2,618.31,1.1,-33.0
8.06,0.5,0.0,0.75,1.0,0.0,0.0,0.5,0.0,0.25,0.5,0.0,0.0,0.0,2.64,5.14,0.14,81.67,20.4,34.4,3.0,2.0,4.75,8.75,6.25,6.25,4.0,6.5,4.25,8.25,7.5,5.5,6.75,-0.11,0.14,0.95,934.03,-2.9,-13.7
8.08,0.75,0.0,0.75,2.25,0.0,0.0,0.5,0.0,0.25,4.25,0.0,4.0,0.0,1.58,4.7,-2.86,119.75,5.8,-40.5,4.5,2.5,7.5,12.0,7.75,7.25,6.25,7.25,5.0,7.75,7.5,4.75,6.0,-0.05,-0.11,0.95,1299.36,-5.4,-1.6
8.1,1.75,0.25,0.0,2.5,0.0,2.0,0.5,4.75,2.25,7.0,0.0,6.0,7.75,1.52,1.27,7.95,251.73,-4.3,-55.6,6.0,3.75,9.0,14.0,9.0,7.75,7.25,7.25,4.25,6.0,6.25,3.25,4.5,0.2,0.14,1.02,1519.46,-7.3,11.9
8.12,1.75,0.75,0.0,6.25,0.25,3.5,1.0,4.75,3.75,5.75,6.75,3.5,6.0,0.7,-0.36,0.95,401.42,0.2,-35.9,7.5,4.75,9.75,15.5,10.5,8.0,7.75,6.5,2.5,3.5,3.75,2.0,3.25,0.08,0.08,1.02,1658.56,-9.0,27.2
8.14,2.25,2.25,3.25,10.0,6.75,4.75,2.25,5.75,5.75,5.75,6.0,3.25,5.0,0.08,0.39,0.89,696.1,3.5,-6.1,8.25,5.25,11.0,17.0,11.5,7.75,7.75,4.0,1.0,2.0,1.25,1.25,1.75,0.08,0.08,1.08,1707.37,-11.5,42.4
8.16,3.75,2.75,5.75,12.0,8.0,5.25,3.75,6.0,6.25,5.25,7.0,3.25,4.0,-0.05,0.08,0.95,1019.17,6.2,3.3,8.5,5.25,11.0,17.0,11.0,6.75,7.5,1.75,0.75,1.5,0.75,0.75,1.75,0.2,0.14,1.77,1669.84,-13.2,48.1
8.18,6.0,4.0,7.25,13.5,8.75,5.5,5.0,6.0,6.0,4.0,6.0,2.25,3.0,0.02,0.08,1.02,1319.33,8.5,16.1,8.75,5.25,10.5,15.5,9.75,4.0,6.0,1.0,0.5,0.75,0.0,0.75,1.5,0.08,0.08,1.52,1552.19,-15.5,53.5
8.2,7.0,4.5,8.0,15.0,9.5,6.25,6.0,5.75,5.5,2.25,4.75,1.0,2.0,-0.11,0.08,1.02,1470.18,9.9,27.5,9.0,4.75,9.25,12.0,7.75,1.25,4.0,0.5,0.0,0.75,0.25,0.75,1.5,0.08,0.14,1.58,1359.19,-17.7,55.4
8.22,7.5,5.5,8.75,16.0,10.5,6.0,6.0,4.0,2.75,0.75,2.75,0.75,1.5,-0.11,0.08,1.08,1539.35,11.7,40.8,8.25,3.75,7.5,7.0,3.5,1.5,2.0,0.25,0.25,0.5,0.25,0.75,1.25,0.08,0.27,1.7,1013.06,-19.4,55.7
8.24,8.0,5.5,9.25,16.0,10.5,5.0,5.75,1.75,0.75,0.75,1.5,0.25,1.25,-0.11,0.08,1.2,1520.03,13.7,50.5,7.5,2.25,3.0,2.75,0.0,1.25,1.5,0.25,0.25,0.5,0.0,0.75,1.25,0.14,0.52,1.83,613.32,-20.6,51.9
8.26,8.25,4.5,8.75,15.0,10.0,3.25,2.75,0.5,0.0,0.5,0.75,0.0,1.25,-0.17,0.14,1.64,1414.19,15.1,56.7,5.5,1.5,1.75,1.25,0.0,1.25,1.0,0.25,0.25,0.5,0.0,0.75,1.0,0.02,0.83,2.77,333.51,-18.4,45.1
8.28,8.0,3.5,8.5,12.5,8.0,0.75,0.0,0.5,0.0,0.0,0.75,0.0,1.25,-0.3,0.08,1.58,1220.06,17.6,59.1,3.75,0.5,1.25,0.5,0.0,1.5,1.0,1.0,0.25,0.5,0.0,0.75,1.0,0.27,0.58,1.83,166.82,-12.5,25.1
8.3,7.5,1.5,7.25,7.75,0.0,0.0,1.0,0.25,0.0,0.75,0.0,0.0,0.25,-0.36,0.14,1.89,857.18,26.5,65.0,2.25,0.5,1.75,0.5,0.0,1.0,1.0,0.25,0.25,0.75,0.0,0.75,0.5,0.02,0.83,1.45,26.98,-15.6,25.6
8.32,7.0,1.5,3.75,4.25,0.0,0.0,0.5,0.5,0.0,0.25,0.0,0.0,0.25,-0.3,0.2,2.39,522.35,26.3,69.4,0.0,0.0,1.75,0.0,0.0,1.25,1.0,0.25,0.25,0.0,0.25,0.25,0.25,0.27,0.7,1.27,0.0,-12.2,14.9
8.34,5.25,0.0,2.5,2.75,0.0,0.25,1.0,0.0,0.0,0.5,0.0,0.0,0.5,-0.55,0.64,2.58,282.48,26.0,60.4,0.0,0.0,0.0,0.0,0.0,0.5,0.25,0.0,0.25,0.0,0.0,0.5,0.0,0.2,1.14,0.89,0.0,-0.3,-33.5
8.36,3.5,0.75,1.0,3.0,0.0,0.0,0.5,0.0,0.0,0.75,0.0,0.0,1.0,-0.61,0.2,1.95,143.78,19.4,46.7,0.0,0.0,0.0,0.0,0.0,0.5,0.0,0.0,0.0,0.0,0.0,0.25,0.0,0.83,0.14,2.39,0.0,11.9,-15.5
8.38,1.25,0.0,0.75,0.25,0.0,0.25,0.25,0.0,0.0,0.0,0.0,0.0,0.0,-0.48,0.83,1.58,0.0,28.7,73.4,0.0,0.0,0.25,0.0,0.0,0.5,0.0,0.0,0.25,0.0,0.0,0.25,0.0,0.64,-0.05,2.08,0.0,-3.4,-4.1
8.4,1.25,0.25,0.75,0.25,0.0,0.0,0.5,0.0,0.0,0.75,0.0,0.0,1.25,-0.48,0.52,1.45,0.0,11.9,2.2,0.5,0.5,1.5,0.5,0.0,1.0,0.5,0.25,0.25,0.5,0.0,0.75,0.75,0.77,0.14,2.45,0.0,-9.5,5.3
8.42,0.5,0.25,0.0,1.75,0.0,0.0,1.0,0.0,0.0,0.5,0.0,0.0,0.5,-0.73,1.14,0.52,0.0,12.7,23.7,0.5,0.25,1.75,0.25,0.0,0.75,0.5,0.25,0.25,0.5,0.0,0.75,0.75,1.33,0.27,3.2,0.0,-11.4,0.5
8.44,0.0,0.25,0.0,1.75,0.0,0.0,0.25,0.0,0.0,0.25,0.0,0.0,1.0,-1.42,-0.11,2.02,0.0,5.9,0.8,0.5,0.5,0.75,0.25,0.0,0.5,0.5,0.75,0.25,0.5,0.0,0.75,1.0,1.33,-0.55,2.14,0.0,-4.8,-14.9
8.46,0.0,0.75,0.25,1.0,0.0,0.0,0.0,0.0,0.0,0.75,0.0,0.0,1.25,-1.05,0.08,2.02,0.0,1.9,-10.9,0.5,0.5,2.0,0.25,0.0,0.5,0.5,0.25,0.25,0.5,0.0,0.75,0.75,1.52,-0.55,1.58,41.07,-13.8,5.5
8.48,0.25,0.25,0.75,1.25,0.0,0.0,0.5,0.0,0.0,0.5,0.0,0.0,1.25,-0.98,0.08,2.52,0.0,9.9,-0.2,0.5,0.5,1.5,0.25,0.0,0.75,0.5,0.25,0.25,0.25,0.0,0.75,0.75,1.27,-1.05,1.39,71.25,-11.4,5.3
8.5,0.5,0.25,0.0,2.0,0.0,0.0,0.5,0.0,0.25,0.75,0.0,0.0,1.0,-1.17,0.14,2.95,0.0,7.9,3.8,0.5,0.5,1.75,0.25,0.0,0.5,0.5,0.25,0.25,0.5,0.0,0.75,0.5,0.83,-1.17,1.08,83.79,-13.9,8.1
8.52,1.0,0.0,0.0,1.25,0.0,0.0,2.75,0.0,0.0,0.5,0.0,0.0,1.0,-1.42,-0.48,2.14,0.0,14.9,10.2,0.5,0.5,1.75,0.25,0.0,1.0,0.5,0.25,0.25,0.25,0.0,0.75,1.0,0.52,-0.86,1.39,95.71,-10.3,4.0
8.54,1.5,0.0,0.0,0.25,0.0,0.0,0.5,0.0,0.0,0.5,0.0,0.0,1.25,-1.23,-0.98,0.95,30.03,9.7,-5.5,0.5,0.5,1.75,0.0,0.0,1.25,0.5,0.25,0.25,0.5,0.0,0.75,0.75,0.27,-0.3,1.52,106.16,-8.8,4.4
8.56,1.25,0.0,0.0,2.0,0.0,0.0,0.5,0.0,0.25,0.5,0.0,0.0,1.25,-1.05,-0.86,0.89,53.22,11.2,9.6,0.5,0.5,1.75,0.0,0.0,0.75,0.5,0.25,0.25,0.5,0.0,0.75,0.75,0.33,0.08,1.64,110.9,-11.2,2.1
8.58,1.5,0.0,0.0,2.0,0.0,0.0,0.5,0.0,0.0,0.25,0.0,0.0,1.25,-0.92,-0.67,1.08,67.63,13.5,19.8,0.75,0.5,1.75,0.0,0.0,0.75,0.5,0.25,0.25,0.5,0.0,0.75,0.75,0.27,0.2,1.77,112.27,-12.1,5.6
8.6,1.25,0.25,0.0,3.0,0.0,0.0,0.5,0.0,2.5,0.75,0.0,0.0,0.5,-0.73,-0.42,1.33,96.71,13.7,14.0,0.5,0.5,0.75,0.0,0.0,1.0,0.5,0.25,0.25,0.25,0.0,0.75,0.5,0.27,0.2,2.02,101.41,-6.6,1.2
8.62,0.0,0.0,0.0,0.0,0.0,0.0,1.75,0.0,0.0,0.0,0.0,0.0,0.25,-0.73,0.02,1.58,81.23,21.5,-4.8,0.5,0.5,0.75,0.25,0.0,0.5,0.75,0.25,0.25,0.25,0.0,0.75,0.0,0.45,0.45,2.77,87.11,-13.6,14.9
8.64,0.0,0.0,0.0,0.0,0.0,0.0,0.0,0.0,0.0,0.0,0.0,0.0,0.0,-0.67,0.14,2.08,53.36,0.0,0.0,0.5,0.5,1.75,0.25,0.0,0.5,0.5,0.25,0.25,0.25,0.0,0.75,0.25,0.39,1.02,2.89,79.5,-16.5,17.4
8.66,2.25,0.25,0.0,1.5,0.0,0.0,3.75,0.0,0.25,0.5,0.0,0.0,0.0,-0.61,0.33,2.2,58.02,24.2,50.0,0.5,0.5,1.25,0.0,0.0,0.5,0.5,0.25,0.25,0.5,0.0,0.75,0.0,-0.23,3.33,3.27,76.06,-14.1,12.4
8.68,1.25,0.25,0.75,2.0,0.0,0.0,0.5,0.0,0.25,0.5,0.0,0.0,1.0,-0.61,0.7,2.77,71.25,15.6,24.4,0.75,0.5,0.75,0.5,0.0,0.5,0.5,0.25,0.25,0.5,0.0,0.75,0.0,-1.55,5.58,2.33,75.86,-12.9,16.2
8.7,0.5,0.25,0.75,1.75,0.0,0.0,0.5,0.0,0.25,0.5,0.0,0.0,1.0,-0.61,1.2,3.08,82.95,13.0,13.2,0.5,0.5,1.0,0.25,0.0,1.0,0.5,0.25,0.25,0.5,0.0,0.75,0.5,-1.92,7.14,1.08,78.37,-7.6,3.1
8.72,0.25,0.0,0.75,1.25,0.0,0.0,0.5,0.0,0.0,0.0,0.0,0.0,1.0,-0.11,2.52,3.95,79.8,15.0,10.9,0.5,0.5,1.25,0.25,0.0,0.5,0.5,0.25,0.25,0.5,0.0,0.75,1.0,-1.98,6.08,-0.61,83.47,-9.4,-6.4
8.74,0.5,0.0,0.5,1.25,0.0,0.0,0.25,0.0,0.0,0.0,0.0,0.0,0.0,0.89,4.52,2.95,67.31,25.9,64.7,0.75,0.5,0.5,0.25,0.0,0.75,0.5,0.25,0.25,0.75,0.0,0.75,0.75,-1.3,6.14,-0.36,84.95,-5.2,-8.0
8.76,0.5,0.0,0.75,1.75,0.0,0.0,0.25,0.0,0.0,0.0,0.0,0.0,0.0,2.14,6.52,1.02,54.7,25.4,63.3,0.5,0.5,0.0,0.5,0.0,2.0,0.0,1.25,1.0,9.0,1.5,7.25,7.25,-1.8,7.64,-1.36,216.09,5.9,-74.6
8.78,0.5,0.0,0.75,0.25,0.0,0.0,0.5,0.0,0.0,0.0,0.0,0.0,0.25,3.2,6.33,-0.23,42.31,27.3,43.1,1.25,0.5,0.5,0.75,0.0,3.25,0.75,5.25,1.75,8.25,8.0,6.25,8.25,-0.05,0.45,1.08,377.26,3.4,-62.0
8.8,0.75,0.0,0.75,2.25,0.0,0.0,0.5,0.0,0.25,0.75,0.0,0.25,1.0,2.33,5.08,0.08,58.3,12.8,8.2,2.0,1.5,1.75,6.75,5.0,6.25,2.0,6.0,3.5,7.75,6.5,4.75,6.75,0.14,-0.61,1.14,652.54,0.2,-21.9
8.82,0.0,0.25,0.0,0.25,0.0,0.0,0.0,0.0,0.25,6.0,0.0,5.75,1.5,2.7,7.95,-1.8,121.75,-3.8,-86.9,3.0,2.25,6.25,10.5,7.75,7.25,4.75,6.5,4.5,7.75,7.5,4.75,5.75,0.14,0.08,0.89,1016.46,-4.0,-5.3
8.84,1.5,0.5,0.0,2.5,0.0,1.75,0.5,4.75,2.5,6.5,7.5,5.75,7.75,-0.48,1.02,7.95,287.4,-1.4,-58.8,4.5,3.0,8.25,14.0,9.25,8.0,6.25,7.25,4.75,6.5,7.25,3.5,5.0,0.02,-0.05,1.02,1377.83,-6.0,6.6
8.86,2.0,1.25,0.25,6.25,0.0,3.5,0.0,4.75,4.0,5.25,6.0,3.25,5.0,-0.3,-0.48,0.7,439.46,0.8,-30.7,6.25,4.5,9.0,15.5,11.5,8.25,7.0,6.75,3.75,5.0,5.5,2.25,3.5,0.14,0.08,1.02,1594.12,-7.6,20.4
8.88,2.75,2.5,3.25,10.0,6.0,4.75,2.25,5.75,5.75,5.75,6.0,3.5,4.0,-0.23,0.58,0.95,724.7,4.1,-4.4,7.5,5.25,10.5,17.0,12.0,8.5,7.5,5.75,2.25,3.25,2.75,2.0,2.75,0.08,0.14,1.02,1723.85,-9.4,32.1
8.9,3.75,2.5,5.75,12.5,8.0,5.5,3.75,6.25,6.25,5.5,7.0,3.0,3.75,0.02,0.02,1.02,1022.35,6.1,3.8,8.25,5.25,11.0,17.5,13.0,8.0,7.5,3.25,1.0,1.75,1.0,0.75,1.75,0.08,0.14,1.08,1756.82,-11.5,45.2
8.92,5.5,4.0,7.25,14.0,9.0,6.0,5.5,6.25,6.0,4.0,6.0,2.0,2.5,-0.23,0.08,1.02,1328.03,8.3,17.2,8.25,5.25,11.0,17.0,12.0,6.5,6.75,0.25,0.5,1.25,0.25,1.0,1.75,0.08,0.14,1.2,1690.09,-13.6,51.0
8.94,6.25,5.0,8.5,15.5,9.75,6.5,6.0,5.75,5.0,2.25,4.25,1.0,1.5,-0.05,0.08,1.02,1477.78,10.0,29.9,9.0,5.25,10.5,15.5,10.5,3.25,5.25,0.25,0.5,0.5,0.5,0.75,1.5,0.14,0.08,1.83,1554.7,-16.1,54.7
8.96,7.5,5.5,9.0,16.0,10.0,5.75,6.25,4.0,2.0,0.75,2.5,0.75,1.25,-0.11,0.14,1.14,1540.28,12.2,42.5,8.75,4.25,9.0,10.5,7.75,1.25,3.0,0.25,0.25,0.5,0.0,0.75,1.0,0.2,0.08,1.7,1327.34,-18.1,58.1
8.98,8.0,5.5,9.25,16.0,10.0,4.75,5.25,1.25,0.75,0.75,1.5,0.25,1.25,-0.17,0.2,1.45,1508.85,14.1,51.3,8.25,3.0,7.5,6.75,3.5,1.0,2.0,0.5,0.25,0.5,0.0,0.75,1.25,0.14,0.33,1.64,961.47,-20.0,55.3
9.0,8.0,4.5,8.75,15.0,9.25,2.75,0.0,0.5,0.0,0.5,1.0,0.0,1.25,-0.23,0.14,1.64,1381.73,15.3,56.9,7.5,2.0,1.75,2.75,0.0,1.5,1.5,0.25,0.5,0.5,0.0,0.75,1.0,0.08,0.7,1.64,561.21,-19.4,51.4
9.02,0.0,4.25,8.75,12.5,6.75,0.75,2.25,0.5,0.25,0.75,0.0,0.25,1.25,-0.23,0.08,1.58,1119.13,14.9,50.0,5.0,0.75,1.75,0.5,0.0,1.25,1.0,0.25,0.25,0.5,0.0,0.75,0.75,0.33,0.95,2.52,293.33,-18.9,42.1
9.04,8.0,2.75,7.25,9.0,0.0,0.0,1.5,0.5,0.25,0.5,0.0,0.0,1.25,-0.42,0.2,2.02,807.45,24.2,59.9,3.25,0.0,1.75,0.5,0.0,1.25,1.0,0.25,0.25,0.5,0.0,0.75,0.75,0.2,0.7,1.64,123.07,-16.7,27.9
9.06,7.0,1.5,4.25,6.25,0.0,0.25,0.5,0.0,0.0,0.75,0.0,0.0,0.0,-0.3,0.39,1.77,511.09,25.6,69.0,1.25,0.0,1.75,0.5,0.0,1.25,1.0,0.25,0.25,0.0,0.0,0.5,0.5,0.27,0.77,1.58,0.0,-15.5,26.6
9.08,0.0,1.25,2.25,3.5,0.0,0.0,1.0,0.5,0.0,0.75,0.0,0.0,0.75,-0.3,0.7,2.2,279.39,15.6,34.1,0.0,0.0,0.0,0.0,0.0,0.5,0.5,0.0,0.25,0.0,0.0,0.75,0.0,0.08,0.64,0.89,0.0,-3.8,-40.3
9.1,2.5,0.5,1.75,2.5,0.0,0.0,0.5,0.5,0.0,0.75,0.0,0.0,1.0,-0.42,0.58,1.64,143.49,17.9,36.6,0.5,0.5,1.5,0.25,0.0,1.0,0.5,0.25,0.25,0.5,0.0,0.75,0.75,0.27,1.45,2.77,0.0,-9.1,3.2
9.12,2.0,0.25,1.25,2.25,0.0,0.0,0.5,0.25,0.0,0.0,0.0,0.0,1.0,-0.36,0.7,1.77,11.22,20.2,42.1,0.5,0.5,1.75,0.5,0.0,0.5,0.25,0.25,0.0,0.0,0.0,0.25,0.75,0.89,0.14,2.33,0.0,-15.7,26.0
9.14,0.0,0.0,0.75,2.25,0.0,0.0,0.5,0.0,0.25,0.5,0.0,0.0,1.0,-0.42,0.14,1.39,0.0,11.4,5.7,0.0,0.0,0.0,0.5,0.0,0.75,0.0,0.0,0.25,0.25,0.0,0.75,0.0,0.77,0.02,2.27,0.0,0.5,-22.5
9.16,2.25,0.0,0.75,2.25,0.0,0.0,0.5,0.0,0.0,0.75,0.0,0.0,1.0,-0.61,1.33,0.58,0.0,17.3,31.1,0.0,0.0,0.0,0.0,0.0,0.5,0.0,0.0,0.25,0.0,0.0,0.75,0.0,1.2,0.14,2.77,0.0,0.7,-51.4
9.18,1.5,0.0,0.0,2.0,0.0,0.0,0.5,0.0,0.0,0.75,0.0,0.0,1.0,-1.36,0.02,2.2,0.0,12.1,17.2,0.0,0.0,1.75,0.0,0.0,1.25,0.25,0.25,0.25,0.5,0.0,0.75,0.25,1.45,-0.23,2.83,0.0,-7.8,-2.7
9.2,1.25,0.25,0.75,2.25,0.0,0.0,0.5,0.0,0.0,0.75,0.0,0.75,1.0,-1.05,0.08,2.14,0.0,14.0,10.6,0.5,0.5,0.5,0.25,0.0,0.75,0.5,0.25,0.25,0.5,0.0,0.75,0.25,1.39,-0.55,2.14,0.0,-6.9,1.4
9.22,0.5,0.0,0.75,0.0,0.0,0.0,0.75,0.0,0.0,0.25,0.0,0.0,1.0,-1.23,-0.05,2.08,0.0,13.7,-10.2,0.5,0.5,1.75,0.25,0.0,0.75,0.5,0.25,0.25,0.5,0.0,0.75,1.0,1.39,-0.73,1.7,25.34,-10.5,0.0
9.24,0.5,0.0,0.0,2.0,0.0,0.0,0.75,0.0,0.0,0.0,0.0,0.0,0.75,-1.3,0.02,2.95,0.0,14.4,24.9,0.5,0.5,0.75,0.25,0.0,0.75,0.5,0.25,0.25,0.25,0.0,0.75,0.75,1.02,-1.3,1.2,60.01,-7.5,-2.8
9.26,1.25,0.25,1.75,2.0,0.0,0.0,0.5,0.0,0.0,0.5,0.0,0.0,1.25,-1.11,-0.48,2.27,11.27,17.8,26.9,0.5,0.5,1.75,0.25,0.0,1.0,0.5,0.25,0.25,0.5,0.0,0.75,0.5,0.89,-0.98,0.95,83.97,-11.2,10.0
9.28,1.5,0.25,0.75,2.0,0.0,0.0,0.5,0.0,0.0,0.5,0.0,0.0,1.25,-1.23,-0.92,1.89,47.75,15.2,24.1,0.5,0.5,1.75,0.0,0.0,1.25,0.5,0.25,0.25,0.5,0.0,0.75,0.0,0.7,-0.61,1.2,91.48,-11.8,19.2
9.3,1.25,0.25,0.75,2.0,0.0,0.0,0.5,0.0,0.0,0.5,0.0,0.0,1.0,-1.11,-0.86,1.14,76.66,15.7,27.0,0.5,0.5,1.75,0.25,0.0,0.75,0.5,0.25,0.25,0.5,0.0,0.75,0.0,0.33,-0.17,1.52,98.17,-14.9,19.8
9.32,1.25,0.25,0.75,2.0,0.0,0.0,0.5,0.0,0.0,0.5,0.0,0.0,1.0,-0.92,-0.98,0.7,92.91,15.7,27.0,0.5,0.5,1.5,0.25,0.0,0.75,0.25,0.25,0.25,0.5,0.0,0.75,0.0,0.14,0.14,1.7,97.73,-13.3,17.6
9.34,2.25,0.0,0.0,0.0,0.0,0.0,0.5,0.0,0.0,0.0,0.0,0.0,0.0,-0.8,-0.86,0.89,77.16,34.7,90.6,0.5,0.5,1.5,0.0,0.0,0.75,0.5,0.25,0.25,0.25,0.0,0.75,0.0,0.2,0.27,1.83,91.12,-15.1,20.4
9.36,0.0,0.0,0.0,0.0,0.0,0.0,0.0,0.0,0.0,0.0,0.0,0.0,0.0,-0.61,-0.48,1.39,45.93,0.0,0.0,0.5,0.5,1.5,0.25,0.0,0.75,0.5,0.25,0.25,0.5,0.0,0.75,0.0,0.33,0.2,2.02,91.38,-13.8,17.8
9.38,2.0,0.5,0.0,3.25,0.0,0.0,3.25,0.0,0.0,0.0,0.0,0.0,0.75,-0.42,-0.11,1.7,64.57,20.9,47.9,0.5,0.5,1.25,0.25,0.0,1.0,0.5,0.25,0.25,0.25,0.0,0.75,0.25,0.52,0.33,2.33,91.53,-11.1,14.7
9.4,0.0,0.0,1.5,0.0,0.0,0.0,0.25,0.0,1.25,0.25,0.0,0.5,0.0,-0.55,0.14,2.27,59.83,21.5,-6.4,0.5,0.5,1.75,0.25,0.25,0.5,0.5,0.25,0.5,0.75,0.0,0.75,0.75,0.14,2.08,2.95,97.72,-11.1,1.1
9.42,1.5,0.25,0.75,2.0,0.0,0.0,0.5,0.0,0.0,0.75,0.0,0.0,1.0,-0.55,0.39,2.64,82.52,15.2,25.6,0.5,0.5,1.5,0.25,0.0,0.75,0.5,0.25,0.25,0.0,0.0,0.0,0.0,-1.17,4.2,3.33,88.74,-18.1,51.4
9.44,1.0,0.0,0.75,2.0,0.0,0.0,0.5,0.0,0.0,0.5,0.0,0.0,1.25,-0.48,0.77,2.83,86.95,13.8,14.9,0.5,0.5,1.25,0.25,0.0,0.75,0.5,0.25,0.25,0.5,0.0,0.25,0.0,-2.05,6.02,2.08,84.95,-12.9,28.9
9.46,0.5,0.25,0.75,2.0,0.0,0.0,0.5,0.0,0.0,0.75,0.0,0.0,0.0,-0.48,1.39,3.2,91.43,17.7,41.3,0.5,0.0,0.0,0.0,0.0,1.25,0.0,0.25,0.25,0.5,0.0,0.75,0.75,-2.17,7.27,-0.36,72.88,5.6,-33.1
9.48,0.5,0.0,0.75,0.25,0.0,0.0,0.5,0.0,0.0,0.0,0.0,0.0,1.25,0.08,2.58,3.77,70.89,13.3,-8.8,0.5,0.5,0.25,0.0,0.0,0.75,0.25,0.25,0.25,0.5,0.0,0.75,0.75,-2.3,6.27,-0.61,69.1,-1.6,-18.3
9.5,0.5,0.0,0.25,0.25,0.0,0.0,0.25,0.0,0.0,0.0,0.0,0.0,0.25,1.14,4.45,2.77,48.57,22.7,37.8,0.0,0.0,0.5,0.0,0.0,0.0,0.0,0.25,0.5,7.5,1.0,6.5,4.5,-3.05,7.95,-0.42,159.04,4.4,-89.1
9.52,0.5,0.0,0.75,2.25,0.0,0.0,0.25,0.0,0.0,0.5,0.0,0.0,0.0,2.77,6.27,1.64,48.92,19.5,46.1,0.5,0.0,0.0,0.5,0.0,2.75,0.5,3.0,1.0,7.75,7.0,6.0,7.5,1.08,1.14,3.45,294.19,4.6,-71.7
9.54,0.75,0.0,0.75,0.5,0.0,0.0,0.5,0.0,0.0,0.5,0.0,0.25,0.0,3.27,5.95,0.08,45.25,21.8,29.3,1.5,0.75,1.0,4.5,3.5,6.0,1.25,5.5,3.0,7.5,6.0,4.75,6.75,0.2,-1.23,0.77,503.83,2.1,-31.7
9.56,0.0,0.0,0.5,0.25,0.0,0.0,0.0,0.0,0.0,1.0,0.0,0.25,0.25,2.45,5.95,3.2,43.93,3.1,-37.0,3.0,2.25,4.75,9.0,7.5,7.0,3.75,6.5,5.0,8.0,7.75,5.25,6.0,-0.23,0.14,0.89,861.08,-2.9,-10.3
9.58,0.5,0.0,0.0,1.75,0.0,0.0,0.0,0.0,0.0,6.5,0.0,3.25,5.0,0.64,6.39,4.08,124.51,-5.5,-73.3,4.5,3.0,8.25,12.5,9.0,7.75,6.0,7.0,5.0,7.25,7.5,4.75,5.5,-0.05,-0.05,1.02,1281.01,-5.7,2.0
9.6,0.5,0.0,0.0,2.0,0.0,1.25,0.5,4.75,2.0,6.25,7.25,5.25,7.25,-1.3,1.14,6.08,272.62,-2.7,-66.6,6.0,3.75,9.25,15.5,10.5,8.0,7.0,7.0,5.0,6.0,6.5,3.5,4.5,0.27,0.14,1.02,1561.63,-7.3,12.9
9.62,1.75,1.25,0.0,6.25,0.0,2.75,1.25,4.75,4.25,5.75,6.5,3.75,4.75,-0.23,-0.73,0.77,421.51,1.4,-33.8,7.5,5.0,10.5,16.5,11.5,8.25,7.5,6.0,3.0,3.5,4.5,2.25,2.75,0.02,0.02,1.02,1725.74,-9.4,28.0
9.64,2.5,1.5,3.25,9.0,5.5,4.0,2.25,5.75,5.75,6.25,6.75,4.25,5.0,-0.05,0.39,1.02,700.02,3.7,-13.1,8.25,5.25,11.5,17.5,12.0,8.0,7.75,4.0,1.0,1.5,2.0,1.5,2.0,0.14,0.08,1.08,1781.31,-11.6,41.4
9.66,3.75,2.75,5.5,11.5,7.5,5.0,3.5,6.0,6.25,5.25,7.25,3.25,4.0,0.14,-0.05,1.08,997.87,6.2,1.8,8.75,5.25,11.0,17.0,11.5,6.0,6.5,1.25,0.5,0.75,0.25,1.0,1.5,0.02,0.14,1.58,1714.76,-14.0,51.7
9.68,5.25,3.75,7.25,13.5,8.25,5.5,5.0,6.25,6.25,4.0,6.75,2.25,3.0,-0.17,0.08,1.02,1300.22,8.3,13.5,9.0,5.0,11.0,15.5,9.5,3.0,4.75,0.5,0.5,0.5,0.0,0.75,1.25,0.14,0.02,1.77,1566.1,-16.8,56.1
9.7,6.25,4.25,8.0,15.0,9.0,5.75,6.0,5.75,5.5,2.0,5.0,0.75,2.0,-0.11,0.08,1.02,1442.23,10.1,26.8,9.0,3.75,9.0,10.5,6.5,0.75,3.0,0.5,0.5,1.0,0.0,1.25,1.25,0.14,0.14,1.7,1331.15,-18.5,53.1
9.72,7.0,5.25,8.75,16.0,9.5,5.5,6.25,4.0,2.0,0.75,2.75,0.25,1.25,-0.11,0.14,1.08,1500.19,12.2,42.5,8.25,2.5,6.25,5.25,0.25,0.75,1.75,0.25,0.5,1.5,0.25,0.75,1.0,0.02,0.39,1.64,915.85,-22.1,50.4
9.74,8.0,5.25,9.25,16.0,10.0,4.75,5.25,1.0,0.5,0.75,1.5,0.5,1.25,-0.17,0.08,1.39,1474.55,14.2,51.2,6.75,1.5,1.75,2.5,0.0,1.0,1.25,0.25,0.25,0.5,0.0,0.75,1.0,0.02,0.95,1.77,518.76,-20.2,49.9
9.76,8.0,4.5,8.75,15.0,9.0,2.0,4.25,0.5,0.25,0.75,1.5,0.0,1.25,-0.23,0.14,1.89,1371.32,16.3,53.9,4.5,0.5,0.75,0.5,0.0,1.0,1.0,0.25,0.5,0.5,0.0,0.75,0.25,0.33,0.52,1.83,259.53,-18.9,42.1
9.78,7.75,3.25,8.0,11.0,5.25,0.75,0.0,0.25,0.25,0.75,0.5,0.0,1.25,-0.3,0.08,1.64,1132.95,18.6,57.4,3.0,0.0,1.75,0.5,0.0,0.75,1.0,0.25,0.25,0.75,0.0,0.75,0.75,0.58,0.39,1.95,88.88,-17.4,23.0
9.8,8.0,2.75,7.25,9.0,0.0,0.75,1.25,0.5,0.25,0.5,0.0,0.0,1.25,-0.36,0.14,1.95,833.61,23.1,59.4,1.5,0.5,1.75,0.5,0.0,1.25,0.75,0.25,0.25,0.5,0.0,0.75,0.75,0.45,0.7,1.83,0.0,-12.6,18.6
9.82,7.25,1.75,4.25,6.0,0.0,0.0,1.0,0.25,0.25,0.75,0.0,0.0,1.25,-0.3,0.33,1.95,538.65,23.3,56.9,0.0,0.0,0.5,0.0,0.0,0.5,0.5,0.25,0.0,0.0,0.0,0.25,0.0,-0.23,0.58,1.02,0.0,-8.5,9.8
9.84,0.0,1.0,2.5,2.5,0.0,0.0,1.0,0.0,0.25,0.75,0.5,0.0,0.0,-0.42,0.64,2.45,288.8,20.5,39.2,0.5,0.5,1.75,0.0,0.0,0.5,0.5,0.25,0.0,0.0,0.0,0.0,0.0,0.33,0.7,2.52,0.0,-22.5,58.6
9.86,0.0,0.5,1.75,2.5,0.0,0.0,0.5,0.0,0.0,0.5,0.0,0.0,0.0,-0.42,0.45,1.83,128.76,21.2,49.5,0.5,0.5,1.75,0.25,0.0,0.75,0.5,0.25,0.25,0.5,0.0,0.75,0.25,0.64,0.52,2.39,0.0,-13.6,14.2
9.88,1.5,0.25,1.25,2.5,0.0,0.0,0.5,0.25,0.0,0.75,0.0,0.0,1.25,-0.55,0.27,2.27,0.0,14.9,23.6,0.5,0.5,1.5,0.25,0.5,1.0,0.5,0.25,0.25,0.5,0.5,0.75,0.75,0.52,0.02,2.33,0.0,-8.3,2.0
9.9,1.25,0.0,1.0,2.25,0.0,0.0,0.5,0.0,0.0,0.5,0.0,0.0,1.25,-0.36,0.45,1.58,0.0,15.6,21.4,0.5,0.5,1.75,0.25,0.0,1.5,0.5,0.25,0.25,0.25,0.0,0.75,0.75,1.2,-0.05,2.83,0.0,-8.9,10.3
9.92,0.75,0.0,0.0,2.0,0.0,0.0,0.25,0.25,0.0,0.75,0.0,0.0,1.25,-0.86,1.33,2.2,0.0,5.9,-2.8,0.5,0.5,1.75,0.25,0.0,1.0,0.5,0.25,0.25,0.5,0.0,0.75,0.0,1.52,-0.3,2.83,0.0,-13.4,20.3
9.94,2.0,0.25,0.75,2.25,0.0,0.0,0.5,0.0,0.0,0.5,0.0,0.0,1.25,-1.3,0.14,2.27,0.0,16.6,30.1,0.5,0.5,1.75,0.25,0.0,0.75,0.5,0.25,0.25,0.5,0.0,0.75,0.0,1.39,-0.73,2.14,32.1,-14.9,19.8
9.96,0.0,0.0,0.25,0.0,0.0,0.0,0.5,0.0,0.0,0.0,0.0,0.0,1.25,-1.11,0.08,2.39,0.0,0.0,-66.8,0.5,0.5,1.75,0.25,0.0,0.5,0.5,0.25,0.25,0.5,0.0,0.75,0.0,1.58,-0.8,1.58,59.83,-16.5,19.1
9.98,2.0,0.0,0.75,2.25,0.0,0.0,0.5,0.0,0.0,0.5,0.0,0.0,1.25,-1.3,-0.05,2.52,0.0,16.7,27.5,0.5,0.5,1.75,0.0,0.0,0.75,0.5,0.25,0.25,0.5,0.0,0.75,0.0,1.14,-1.23,1.2,74.95,-14.7,17.9
10.0,0.5,0.0,0.75,2.0,0.0,0.0,0.5,0.0,0.0,0.5,0.0,0.0,1.25,-1.17,-0.3,2.83,0.0,11.9,7.7,0.5,0.5,1.75,0.25,0.0,1.0,0.5,0.25,0.25,0.5,0.0,0.75,0.0,0.95,-1.23,1.02,85.2,-13.4,20.3
10.02,0.5,0.25,0.5,2.0,0.0,0.0,0.5,0.0,0.0,0.5,0.0,0.0,1.25,-1.11,-0.55,2.27,16.7,10.7,9.5,0.5,0.5,1.5,0.25,0.0,0.5,0.5,0.25,0.25,0.5,0.0,0.75,0.25,0.7,-0.67,1.08,87.67,-14.0,11.1
10.04,1.0,0.25,0.75,2.0,0.0,0.0,0.75,0.0,0.0,0.5,0.0,0.0,1.25,-1.17,-0.8,1.7,46.47,14.1,18.6,0.75,0.5,2.5,0.25,0.0,0.75,0.25,0.0,0.25,0.5,0.0,0.75,0.5,0.39,-0.17,1.33,97.71,-16.9,19.3
10.06,1.0,0.0,0.75,0.0,0.0,0.0,0.5,0.0,0.0,0.0,0.0,0.0,1.25,-0.98,-0.98,0.64,58.21,16.2,1.1,0.5,0.5,1.0,0.25,0.0,0.75,0.5,0.25,0.25,0.5,0.0,0.75,0.0,0.14,-0.05,2.08,95.66,-11.2,13.3
10.08,2.25,0.0,0.0,0.0,0.0,0.0,0.0,0.0,0.0,0.0,0.0,0.0,0.0,-0.98,-0.8,0.64,56.59,34.9,97.8,0.5,0.5,1.5,0.25,0.0,0.75,0.5,0.25,0.25,0.5,0.0,0.75,0.5,0.2,0.08,2.14,93.09,-11.4,6.8
10.1,0.0,0.0,1.5,0.0,0.0,0.0,4.0,0.0,0.0,0.0,0.0,0.0,0.5,-0.67,-0.55,0.95,50.91,28.7,22.6,0.5,0.5,1.5,0.25,0.0,1.0,0.5,0.25,0.25,0.25,0.0,0.75,0.25,0.27,0.2,2.2,88.53,-12.3,16.8
10.12,2.5,0.75,0.0,2.75,0.0,0.0,0.0,0.0,1.5,1.0,0.0,0.0,0.0,-0.42,-0.36,1.45,76.32,16.9,40.0,0.5,0.5,1.75,0.0,0.0,0.5,0.5,0.25,0.25,0.5,0.0,0.75,0.5,0.45,0.45,2.58,88.64,-13.7,5.8
10.14,1.25,0.25,0.0,2.0,0.0,0.0,0.25,0.0,0.0,0.5,0.0,0.0,1.25,-0.36,0.02,1.77,86.33,10.7,15.6,0.5,0.5,1.25,0.25,0.0,0.75,0.5,0.25,0.25,0.5,0.0,0.75,0.25,0.27,1.14,3.27,87.56,-11.3,9.8
10.16,1.0,0.25,0.0,2.0,0.0,0.0,0.5,0.0,0.0,0.5,0.0,0.0,1.25,-0.42,0.14,2.02,94.66,10.2,12.3,0.5,0.5,1.0,0.5,0.0,0.5,0.5,0.25,0.25,0.25,0.0,0.75,0.25,-0.48,3.02,3.58,85.38,-13.2,12.8
10.18,0.75,0.25,0.25,2.0,0.0,0.0,0.5,0.0,0.0,0.5,0.0,0.0,1.0,-0.36,0.27,2.33,90.06,11.7,17.0,0.5,0.5,1.0,0.0,0.0,0.5,0.5,0.25,0.25,0.25,0.0,0.75,0.25,-1.67,5.39,2.58,79.09,-12.7,7.5
10.2,1.0,0.25,0.25,0.25,0.0,0.0,0.5,0.0,0.25,0.5,0.25,0.25,1.0,-0.17,0.52,3.2,82.5,10.4,-12.2,0.5,0.5,0.0,0.25,0.0,0.75,0.5,0.25,0.25,0.5,0.0,0.75,1.25,-2.86,7.02,0.14,75.77,0.2,-26.3
10.22,1.0,0.0,0.75,2.0,0.0,0.0,0.5,0.0,0.0,0.5,0.0,0.0,1.25,0.08,1.52,3.77,78.8,13.8,14.9,0.5,0.5,0.25,0.25,0.0,0.5,0.5,0.25,0.25,0.5,0.0,0.75,0.75,-1.73,5.77,-0.67,72.02,-4.4,-15.5
10.24,0.5,0.0,0.75,0.25,0.0,0.0,0.75,0.0,0.0,0.5,0.0,0.0,0.0,0.45,3.33,3.39,66.77,22.9,33.9,0.5,0.5,0.25,0.25,0.0,0.25,0.5,0.25,0.25,3.5,0.0,5.0,1.5,-2.11,5.58,-0.05,114.85,-0.5,-68.6
10.26,1.0,0.25,0.75,2.0,0.0,0.0,0.5,0.0,0.0,0.5,0.0,0.0,1.0,1.33,5.64,2.27,75.19,14.9,24.1,0.0,0.0,0.0,0.0,0.0,2.75,0.5,3.25,1.75,9.5,7.5,8.5,9.25,0.02,-2.11,3.45,289.92,4.9,-78.4
10.28,0.5,0.0,0.75,0.25,0.0,0.0,0.5,0.0,0.0,0.0,0.0,0.0,1.0,2.95,6.27,1.52,62.26,15.9,0.5,1.25,0.75,0.25,2.75,0.0,4.25,1.0,5.5,2.25,8.0,8.0,5.75,8.0,-0.17,-0.11,1.2,485.37,2.8,-53.1
10.3,0.75,0.0,0.0,0.75,0.0,0.0,0.25,0.0,0.0,0.0,0.0,0.0,0.0,3.08,5.7,-0.3,52.48,26.0,73.0,2.0,1.5,2.5,7.0,5.5,6.25,2.0,6.5,3.5,8.0,7.5,5.5,6.25,0.14,1.27,1.14,782.19,-0.4,-21.3
10.32,0.25,0.0,0.0,1.0,0.0,0.0,0.5,0.0,0.25,2.75,0.75,5.0,0.75,2.45,6.02,0.08,88.36,3.2,-73.9,3.0,2.25,6.25,10.5,7.75,7.0,4.5,7.25,5.0,8.0,8.0,5.5,6.5,0.33,0.27,0.95,1128.36,-3.7,-8.6
10.34,0.5,0.0,0.25,1.75,0.0,0.0,0.25,1.0,3.0,7.0,7.0,6.75,7.75,1.14,5.83,2.02,241.71,-0.1,-75.1,4.5,3.0,8.25,14.0,9.0,7.5,6.0,7.25,5.0,7.0,8.0,4.75,5.75,-0.11,0.08,1.02,1442.07,-6.0,2.3
10.36,2.0,0.25,0.75,4.0,0.0,2.0,0.75,4.25,3.75,6.25,7.0,4.25,6.0,0.45,0.52,1.39,385.73,0.9,-45.7,6.25,3.75,9.25,15.5,10.5,7.75,7.0,7.0,4.25,5.0,5.5,2.5,3.5,0.08,0.08,1.02,1620.42,-7.9,18.4
10.38,2.25,1.25,3.0,8.5,4.75,3.5,1.75,5.25,5.75,6.25,7.0,4.25,5.0,-0.23,0.83,1.08,652.39,3.7,-16.6,7.5,4.75,10.5,17.0,11.0,8.0,7.5,5.75,1.75,3.0,3.25,2.25,2.75,0.14,0.14,1.08,1723.94,-9.8,31.1
10.4,3.75,2.75,4.75,11.5,7.0,4.75,3.25,6.0,6.5,6.25,7.5,4.25,5.0,-0.23,0.08,1.08,969.61,5.4,-3.8,8.25,5.25,11.0,17.5,11.5,7.75,7.25,3.25,1.0,1.5,1.25,1.25,1.75,0.14,0.14,1.14,1732.18,-11.9,44.1
10.42,5.0,3.5,6.75,12.5,8.25,5.5,4.75,6.25,6.5,5.25,7.25,3.0,3.75,-0.05,0.08,1.02,1285.62,7.3,7.5,8.25,5.0,11.0,17.0,10.5,6.0,6.25,1.0,0.5,1.25,0.5,1.0,1.5,0.08,0.14,1.77,1646.74,-14.0,50.2
10.44,6.25,4.25,8.0,14.0,9.0,6.0,5.5,6.0,5.75,2.5,6.0,1.25,2.5,-0.11,0.08,1.02,1447.85,9.4,22.2,8.25,4.75,10.0,15.0,9.0,3.0,4.75,1.0,0.25,0.75,0.0,0.75,1.0,0.14,0.08,1.89,1483.79,-16.1,55.1
10.46,7.0,5.25,8.75,15.0,9.5,6.0,6.0,4.5,3.5,1.0,3.5,0.5,1.5,-0.11,0.08,1.08,1519.01,11.4,37.2,8.25,3.75,8.5,10.5,5.5,0.75,2.5,0.5,0.25,0.5,0.5,0.75,1.25,0.2,0.14,1.83,1214.35,-19.0,54.8
10.48,7.5,5.5,9.25,16.0,10.0,5.0,5.25,2.0,1.0,0.75,1.75,0.0,1.25,-0.11,0.14,1.27,1505.35,13.5,49.7,7.5,2.5,5.5,5.25,0.25,0.5,1.5,0.5,0.5,0.5,0.25,0.75,1.0,0.08,0.27,1.64,793.48,-22.7,53.0
10.5,8.0,4.75,8.25,14.0,9.25,2.75,0.0,0.5,0.25,0.0,0.5,0.25,1.25,-0.17,0.2,1.52,1374.63,15.3,58.3,6.25,1.5,1.75,2.75,0.0,0.5,1.25,0.25,0.25,0.75,0.0,0.75,1.0,0.14,1.02,2.2,431.9,-20.4,47.2
10.52,0.0,4.0,8.5,12.5,0.0,0.75,0.0,0.75,0.0,0.75,0.0,0.0,1.25,-0.23,0.08,1.64,1039.3,18.8,50.8,4.5,0.5,1.75,0.75,0.0,0.5,0.75,0.25,0.25,0.5,0.0,0.75,0.75,0.02,0.52,1.89,228.44,-21.0,39.4
10.54,8.0,2.75,7.25,8.75,0.0,0.25,0.0,0.5,0.25,0.75,0.0,0.25,1.25,-0.36,0.08,1.95,744.81,23.2,57.9,3.0,0.25,1.5,0.5,0.0,1.0,0.75,0.25,0.5,0.5,0.0,0.75,0.0,0.39,0.14,1.33,65.93,-19.0,37.7
10.56,7.5,1.75,4.25,5.25,0.0,0.0,0.75,0.5,0.25,0.75,0.0,0.0,1.25,-0.3,0.2,2.2,470.78,23.2,56.4,1.25,0.5,1.75,0.5,0.0,1.25,0.75,0.25,0.25,0.5,0.0,0.5,0.5,0.2,0.39,1.7,0.0,-13.0,24.8
10.58,0.0,1.25,2.5,4.0,0.0,0.0,0.5,0.25,0.25,0.75,0.75,0.0,1.0,-0.36,0.77,2.2,275.18,15.5,25.6,1.0,0.5,1.5,0.5,0.0,0.75,0.5,0.25,0.25,0.5,0.0,0.75,0.75,-0.11,0.89,1.02,0.0,-12.3,10.5
10.6,3.5,0.5,1.75,2.5,0.0,0.0,0.5,0.5,0.25,0.75,0.75,0.0,1.25,-0.23,0.64,1.77,157.74,18.0,29.8,0.5,0.5,1.75,0.5,0.0,0.75,0.5,0.25,0.25,0.5,0.0,0.75,1.0,0.27,0.89,2.52,0.0,-10.7,2.2
10.62,2.25,0.5,1.5,2.25,0.0,0.0,0.0,0.25,0.25,0.5,0.0,0.0,1.25,-0.23,0.83,1.89,46.59,17.3,32.8,0.25,0.5,1.75,0.25,0.0,0.75,0.5,0.25,0.25,0.5,0.0,0.75,0.75,0.64,0.14,2.27,0.0,-10.6,0.9
10.64,1.25,0.25,1.0,0.25,0.0,0.0,0.25,0.0,0.25,0.5,0.0,0.0,1.25,-0.23,0.39,1.2,0.0,14.2,6.6,0.5,0.5,1.75,0.5,0.0,0.75,0.5,0.25,0.25,0.5,0.0,0.75,0.5,0.7,-0.23,2.33,0.0,-12.7,11.0
10.66,2.25,0.25,0.0,2.0,0.0,0.0,0.5,0.0,0.25,0.5,0.0,0.0,1.25,-0.55,1.45,0.77,0.0,14.5,25.3,0.5,0.5,1.75,0.25,0.0,0.75,0.5,0.25,0.25,0.5,0.0,0.75,0.75,1.08,-0.11,2.83,0.0,-11.5,4.4
10.68,2.0,0.5,0.0,2.25,0.0,0.0,0.5,0.0,0.25,0.5,0.0,0.0,0.5,-1.23,0.33,2.14,0.0,17.3,43.7,0.5,0.5,1.5,0.5,0.0,0.75,0.25,0.25,0.25,0.5,0.0,0.75,0.0,1.2,-0.48,3.08,0.0,-13.5,19.5
10.7,1.5,0.25,1.25,2.25,0.0,0.0,0.5,0.0,0.25,0.5,0.0,0.0,1.25,-1.11,0.14,2.02,0.0,16.8,25.8,0.5,0.5,1.25,0.25,0.0,1.0,0.5,0.25,0.25,0.5,0.0,0.75,0.75,1.14,-0.67,2.08,32.87,-7.9,0.8
10.72,1.25,0.25,0.75,2.0,0.0,0.0,0.5,0.0,0.25,0.75,0.0,0.0,1.25,-1.23,0.08,2.08,0.0,13.3,15.7,0.5,0.5,1.75,0.25,0.0,0.75,0.5,0.25,0.25,0.5,0.0,0.75,0.75,1.2,-0.73,1.77,64.79,-11.5,4.4
10.74,1.75,0.25,0.75,2.0,0.0,0.0,0.5,0.0,0.25,0.5,0.0,0.0,1.25,-1.42,0.08,3.02,23.64,15.8,24.4,0.5,0.5,1.75,0.25,0.0,1.25,0.5,0.25,0.25,0.5,0.0,0.75,0.75,0.7,-1.3,1.39,85.32,-9.1,6.4
10.76,1.5,0.0,0.75,2.0,0.0,0.0,0.5,0.0,0.25,0.5,0.0,0.0,1.25,-1.11,-0.48,2.64,53.8,15.2,18.8,0.5,0.5,1.75,0.25,0.0,0.75,0.5,0.25,0.25,0.5,0.0,0.75,0.25,0.58,-1.05,1.14,92.61,-13.6,14.2
10.78,0.75,0.0,0.75,2.0,0.0,0.0,0.5,0.0,0.25,0.5,0.0,0.0,1.25,-1.48,-0.73,2.08,61.44,12.9,9.3,0.5,0.5,1.5,0.25,0.0,0.75,0.5,0.25,0.25,0.5,0.0,0.75,0.25,0.58,-0.61,1.45,93.74,-12.5,12.1
10.8,0.0,0.0,0.75,0.0,0.0,0.0,1.0,0.0,1.75,0.0,0.0,0.5,0.0,-1.36,-0.86,1.08,60.87,20.3,-17.5,0.5,0.5,1.5,0.0,0.0,0.75,0.5,0.25,0.25,0.25,0.0,0.75,0.0,0.33,-0.23,1.45,87.88,-15.1,20.4
10.82,0.0,0.0,0.0,1.0,0.0,0.0,4.5,0.0,0.0,0.0,0.0,0.0,1.0,-1.17,-0.98,0.7,61.99,17.4,1.5,0.5,0.5,0.5,0.25,0.0,0.75,0.5,0.25,0.25,0.5,0.0,0.75,0.0,0.2,0.08,1.77,79.47,-8.1,7.8
10.84,2.75,0.5,0.0,2.5,0.0,0.0,3.5,0.0,1.25,1.0,0.0,0.5,0.0,-1.11,-0.55,1.2,89.3,19.7,31.8,0.5,0.5,1.0,0.25,0.0,0.5,0.5,0.25,0.25,0.5,0.0,0.75,0.0,0.2,0.08,2.08,73.88,-12.9,12.3
10.86,1.75,0.25,0.75,2.0,0.0,0.0,0.5,0.0,0.25,0.5,0.0,0.0,1.25,-0.86,-0.42,1.58,104.54,15.8,24.4,0.5,0.5,0.75,0.25,0.0,0.75,0.5,0.25,0.25,0.25,0.0,0.75,0.0,0.14,0.08,2.64,70.02,-11.2,15.6
10.88,1.5,0.0,0.75,2.0,0.0,0.0,0.5,0.0,0.25,0.5,0.0,0.0,1.0,-0.73,-0.05,1.77,113.92,16.4,24.1,0.5,0.5,1.5,0.25,0.0,0.75,0.5,0.25,0.25,0.5,0.0,0.75,0.5,0.14,0.39,2.89,75.73,-11.4,6.8
10.9,1.5,0.25,0.75,2.25,0.0,0.0,0.5,0.0,0.25,0.75,0.0,0.0,1.25,-0.73,0.27,2.08,113.81,14.1,19.8,0.5,0.5,1.5,0.25,0.0,0.5,0.5,0.25,0.25,0.25,0.0,0.75,0.0,-0.48,1.7,3.39,77.27,-17.0,21.7
10.92,1.5,0.25,0.0,2.25,0.0,0.0,0.0,0.0,2.5,0.0,0.0,0.0,0.0,-0.67,0.52,2.45,111.2,18.9,31.4,0.5,0.5,1.5,0.25,0.0,0.75,0.5,0.25,0.25,0.5,0.0,0.75,0.5,-1.55,3.64,3.52,84.24,-11.4,6.8
10.94,1.25,0.25,0.0,2.0,0.0,0.0,0.5,0.0,0.25,0.5,0.0,0.0,0.0,-0.67,0.77,3.08,96.96,18.4,48.8,0.5,0.5,0.75,0.25,0.0,0.5,0.5,0.25,0.25,0.25,0.0,0.75,0.75,-2.17,5.95,2.08,81.44,-8.9,-4.6
10.96,1.25,0.25,0.75,2.25,0.0,0.0,0.5,0.0,0.25,0.5,0.0,0.0,1.0,-0.73,1.2,3.77,97.99,15.6,25.7,0.5,0.5,0.5,0.25,0.0,0.5,0.5,0.25,0.25,0.5,0.0,0.75,0.75,-2.3,6.95,0.33,79.63,-6.2,-11.5
10.98,1.75,0.25,0.75,2.25,0.0,0.0,0.5,0.0,0.25,0.25,0.25,0.0,1.25,-0.36,2.58,3.95,103.6,16.7,25.7,0.5,0.5,0.5,0.25,0.0,0.5,0.5,0.25,0.25,0.5,0.0,0.75,0.75,-1.92,5.89,-0.3,76.29,-6.2,-11.5
11.0,1.0,0.0,0.25,0.25,0.0,0.0,0.5,0.0,0.0,0.0,0.0,0.5,1.0,1.39,5.2,2.7,88.41,14.0,-12.0,0.5,0.5,0.0,0.0,0.0,1.5,0.25,0.75,1.0,8.5,2.5,6.25,6.75,-4.11,7.95,0.02,200.79,5.4,-77.2
11.02,0.75,0.25,1.25,2.25,0.0,0.0,0.25,0.0,0.0,0.0,0.0,0.0,1.0,2.83,6.14,0.33,88.0,18.6,34.6,0.5,0.5,0.25,0.5,0.0,3.0,0.5,5.75,1.75,8.25,8.5,6.5,8.75,-1.48,0.77,2.52,367.66,4.4,-67.5
11.04,0.5,0.0,0.75,0.25,0.0,0.0,0.5,0.0,0.0,0.0,0.0,0.0,1.0,3.27,6.52,0.08,68.47,15.9,0.5,1.25,0.75,1.75,3.25,2.5,6.0,1.5,6.25,3.0,8.25,7.5,5.5,7.25,0.14,-0.8,0.95,614.86,2.0,-38.5
11.06,0.5,0.0,0.75,0.25,0.0,0.0,0.25,0.0,0.0,0.0,0.0,0.0,0.0,1.95,5.14,0.02,47.32,33.5,68.6,2.0,1.5,4.5,8.0,6.25,6.25,3.0,7.0,4.5,8.5,7.75,6.0,6.75,0.58,0.7,0.89,929.27,-1.9,-18.7
11.08,0.0,0.0,0.0,0.75,0.0,0.0,0.5,0.0,0.25,4.25,1.5,4.5,1.25,1.58,6.33,-1.23,90.63,-0.3,-80.1,3.75,2.25,6.25,11.0,7.75,7.25,5.0,7.5,5.25,8.0,8.5,5.5,6.75,-0.11,-0.11,1.08,1279.19,-4.1,-8.0
11.1,2.25,0.25,0.0,2.5,0.0,1.75,0.5,4.0,2.5,7.0,0.0,5.75,4.25,0.77,2.64,7.95,217.38,-2.1,-47.3,5.25,3.0,8.5,14.0,9.0,7.75,6.25,7.75,5.0,7.0,8.0,4.75,5.75,0.08,0.08,1.02,1523.93,-6.1,3.1
11.12,1.25,1.25,0.0,6.25,0.0,3.5,0.0,5.0,3.75,5.25,0.0,3.25,6.0,0.95,-0.11,1.08,331.13,-2.3,-28.9,6.25,3.75,9.0,15.5,10.5,8.0,7.0,7.25,3.5,4.75,6.0,2.5,3.75,0.02,0.08,1.02,1671.3,-7.6,18.0
11.14,3.25,2.75,0.75,10.0,6.75,5.0,1.75,5.5,5.75,5.25,6.5,3.5,4.0,-0.05,0.58,0.89,596.07,2.9,-5.0,7.5,4.75,10.0,17.0,11.0,8.0,7.25,5.75,1.75,2.75,2.5,2.25,2.75,0.02,0.08,1.08,1740.91,-9.7,32.2
11.16,5.0,4.0,6.5,12.5,8.5,5.75,3.5,6.0,6.25,5.25,7.25,3.25,3.75,0.02,0.02,1.02,969.15,6.9,7.9,8.25,4.75,11.0,17.0,11.5,7.5,7.0,2.5,0.5,1.5,1.0,1.25,1.5,0.14,0.14,1.14,1705.94,-12.4,46.0
11.18,6.25,4.5,7.75,14.5,9.5,6.5,5.25,5.75,6.0,3.75,6.5,2.0,2.5,-0.17,0.08,1.02,1333.94,8.8,19.5,8.25,4.75,10.5,16.5,9.75,6.0,5.5,1.5,0.25,0.75,0.25,0.75,1.25,0.08,0.02,1.89,1592.79,-14.1,52.3
11.2,7.0,5.5,8.75,15.0,10.0,6.5,5.75,5.0,5.25,2.25,5.0,1.0,1.5,-0.11,0.08,1.02,1511.73,10.4,30.5,8.25,4.0,9.0,13.5,8.0,0.0,3.25,0.5,0.5,0.5,0.25,0.75,1.0,0.14,0.02,1.89,1376.28,-18.6,56.3
11.22,7.5,5.5,9.25,16.0,11.0,5.75,5.75,3.25,2.25,0.75,2.75,0.5,1.25,-0.11,0.14,1.14,1575.72,12.3,43.5,8.25,3.5,7.5,8.75,5.25,0.5,1.5,0.5,0.25,0.5,0.25,0.75,1.0,0.14,0.14,1.39,1046.53,-19.1,56.6
11.24,8.25,5.5,9.25,15.5,10.0,3.5,0.5,0.5,0.75,0.75,1.25,0.0,1.25,-0.11,0.14,1.58,1505.32,14.6,55.1,7.5,2.25,2.25,3.25,0.0,0.5,1.25,0.25,0.25,0.25,0.25,0.75,1.25,0.02,0.33,1.83,621.72,-21.7,52.5
11.26,8.5,4.5,0.0,13.5,8.5,1.0,0.0,0.5,0.75,0.75,0.0,0.0,1.25,-0.36,0.08,1.77,1285.48,12.1,58.0,5.5,1.25,1.25,2.0,0.0,0.5,1.0,0.25,0.25,0.5,0.25,0.75,1.0,-0.11,0.77,2.83,333.52,-19.7,42.7
11.28,0.0,3.25,0.0,11.5,0.0,0.0,1.75,0.5,0.5,0.75,0.0,0.0,1.25,-0.36,0.14,1.77,853.14,12.7,42.3,4.0,0.5,0.5,0.5,0.0,0.5,1.0,0.25,0.25,0.5,0.0,0.75,1.0,0.39,0.52,1.83,153.4,-17.1,28.3
11.3,7.5,2.75,6.75,7.75,0.0,0.0,0.75,0.5,0.25,0.75,0.0,0.0,1.0,-0.3,0.14,2.08,586.81,23.9,60.1,2.0,0.5,1.25,0.5,0.0,0.5,0.75,0.25,0.25,0.5,0.0,0.75,1.0,0.33,0.89,1.45,5.29,-14.6,14.9
11.32,6.0,0.75,4.75,4.75,0.0,0.0,0.5,0.0,0.25,0.5,0.0,0.0,0.75,-0.23,0.45,1.83,358.71,26.1,60.3,0.0,0.0,1.25,0.0,0.0,0.5,0.5,0.25,0.25,0.5,0.0,0.25,0.75,0.52,0.14,1.14,0.0,-7.1,-16.9
11.34,3.75,0.75,1.0,4.0,0.0,0.0,0.25,0.0,0.25,0.0,0.0,0.0,0.0,-0.36,0.45,2.14,224.51,25.4,72.8,0.0,0.0,0.0,0.0,0.0,0.75,0.25,0.25,0.25,0.5,0.0,0.25,0.0,-0.11,1.33,2.83,0.0,9.2,-27.4
11.36,1.5,0.5,0.75,2.5,0.0,0.0,0.0,0.0,0.5,0.5,0.0,0.0,0.25,-0.73,0.2,1.52,90.74,19.0,46.0,0.0,0.0,0.0,0.0,0.0,0.5,0.0,0.0,0.25,0.0,0.0,0.25,0.0,0.58,0.33,2.39,0.0,5.7,-21.4
11.38,2.25,0.0,1.75,2.0,0.0,0.0,0.5,0.0,0.25,0.75,0.0,0.0,1.0,-0.36,0.39,1.83,0.0,19.7,31.9,0.5,0.5,0.0,0.25,0.0,0.75,0.5,0.25,0.25,0.5,0.0,0.75,0.75,0.45,-0.05,2.58,0.0,-1.2,-17.2
11.4,0.0,0.25,0.75,2.0,0.0,0.0,0.5,0.0,0.25,0.25,0.0,0.0,1.0,-0.05,0.77,0.89,0.0,12.5,12.0,0.5,0.5,1.75,0.25,0.0,0.5,0.5,0.25,0.25,0.5,0.0,0.75,0.75,0.95,-0.23,2.77,0.0,-12.8,3.3
11.42,1.75,0.0,1.25,1.75,0.0,0.0,0.25,0.0,0.25,0.0,0.0,0.0,1.25,-0.8,0.95,2.14,0.0,19.8,30.7,0.5,0.5,1.75,0.25,0.0,0.75,0.5,0.25,0.25,0.25,0.0,0.75,0.75,1.39,-0.36,3.33,0.0,-12.5,7.6
11.44,1.5,0.25,1.25,2.0,0.0,0.0,0.25,0.0,0.25,0.0,0.0,0.0,1.0,-1.11,0.39,2.08,0.0,20.2,37.7,0.5,0.5,1.5,0.5,0.0,0.5,0.5,0.25,0.25,0.5,0.0,0.75,0.75,1.2,-1.05,2.33,1.36,-11.9,3.2
11.46,0.5,0.25,1.0,2.0,0.0,0.0,0.25,0.0,0.25,0.0,0.0,0.0,1.25,-1.05,0.2,2.14,0.0,15.3,19.5,0.5,0.5,1.25,0.5,0.0,0.75,0.5,0.25,0.25,0.5,0.0,0.75,0.75,1.14,-0.98,1.83,44.99,-9.5,2.0
11.48,0.75,0.0,0.75,2.25,0.0,0.0,0.0,0.0,0.25,0.5,0.25,0.0,1.0,-1.23,0.14,2.33,0.0,13.3,12.5,0.5,0.5,1.5,0.0,0.25,0.75,0.5,0.25,0.25,0.25,0.5,0.75,1.25,0.64,-1.3,1.33,79.63,-8.7,-8.6
11.5,0.5,0.25,1.25,2.0,0.0,0.0,0.25,0.0,0.25,0.0,0.0,0.0,1.25,-1.48,-0.05,3.2,24.38,16.3,21.4,0.5,0.5,1.5,0.0,0.0,0.5,0.5,0.25,0.25,0.5,0.0,0.75,1.0,0.52,-1.36,0.95,90.04,-10.3,-6.3
11.52,0.5,0.0,0.75,2.0,0.0,0.0,0.25,0.0,0.25,0.0,0.0,0.0,1.25,-1.3,-0.61,2.14,45.39,14.2,13.3,0.5,0.5,1.5,0.25,0.0,0.75,0.5,0.25,0.25,0.5,0.0,0.75,0.75,0.58,-1.05,0.89,99.04,-10.4,2.0
11.54,1.5,0.0,0.75,2.0,0.0,0.0,0.25,0.0,0.25,0.0,0.0,0.0,1.0,-1.55,-0.73,1.95,50.93,18.9,32.8,0.5,0.5,1.5,0.25,0.0,0.75,0.5,0.25,0.25,0.5,0.0,0.75,0.0,0.39,-0.61,1.33,99.21,-13.8,17.8
11.56,1.25,0.25,0.75,2.0,0.0,0.0,0.25,0.0,0.25,0.25,0.0,0.0,1.25,-1.3,-0.98,1.27,73.34,15.3,22.8,0.5,0.5,1.5,0.0,0.0,0.5,0.5,0.25,0.25,0.5,0.0,0.75,0.0,0.08,-0.36,1.58,96.96,-15.3,14.9
11.58,2.0,0.25,0.75,2.25,0.0,0.0,0.25,0.0,0.25,0.0,0.25,0.0,1.25,-1.11,-0.92,0.89,94.05,18.2,31.6,0.5,0.5,1.5,0.25,0.0,1.0,0.5,0.25,0.25,0.5,0.0,0.75,0.0,-0.05,-0.23,2.02,94.86,-12.2,18.5
11.6,2.0,0.25,0.75,2.0,0.0,0.0,0.0,0.0,0.25,0.0,0.0,0.0,1.25,-1.05,-0.48,1.14,102.65,18.3,34.6,0.5,0.5,1.25,0.0,0.0,0.75,0.5,0.25,0.25,0.25,0.0,0.75,0.0,-0.23,-0.17,2.39,87.12,-13.8,18.2
11.62,1.75,0.0,0.75,2.0,0.0,0.0,0.25,0.0,0.25,0.5,0.0,0.0,1.25,-0.8,-0.36,1.45,106.88,15.6,21.4,0.5,0.5,1.5,0.25,0.0,0.5,0.5,0.25,0.25,0.5,0.0,0.75,0.75,-0.11,-0.11,2.64,85.28,-11.7,0.8
11.64,2.0,0.0,0.75,2.25,0.0,0.0,0.0,0.0,0.25,0.5,0.0,0.0,1.25,-0.73,0.02,1.7,111.46,16.0,25.2,0.5,0.5,0.25,0.25,0.0,0.75,0.5,0.0,0.25,0.25,0.0,0.75,0.0,-0.05,0.77,2.95,74.01,-9.3,13.0
11.66,2.0,0.0,1.0,2.25,0.0,0.0,0.25,0.0,0.25,0.5,0.0,0.0,1.25,-0.67,0.27,2.2,114.27,17.1,26.5,0.5,0.5,1.25,0.25,0.0,0.75,0.5,0.25,0.25,0.5,0.0,0.75,0.5,-0.67,2.7,3.02,77.39,-10.2,4.4
11.68,1.75,0.0,0.75,2.0,0.0,0.0,0.5,0.0,0.25,0.75,0.5,0.0,1.0,-0.61,0.45,2.45,116.72,15.5,16.4,0.5,0.5,1.0,0.25,0.0,0.5,0.5,0.25,0.25,0.5,0.0,0.75,0.75,-1.61,4.95,2.7,76.83,-9.2,-4.7
11.7,1.75,0.0,0.75,2.0,0.0,0.0,0.25,0.0,0.25,0.5,0.25,0.0,1.0,-0.67,0.64,3.08,116.21,16.6,23.0,0.5,0.5,0.5,0.25,0.0,0.5,0.5,0.0,0.25,0.5,0.0,0.75,0.75,-1.98,6.64,1.7,76.52,-7.4,-10.1
11.72,2.0,0.25,0.75,2.0,0.0,0.0,0.25,0.0,0.25,0.5,0.75,0.0,1.0,-0.92,1.39,3.7,118.45,16.6,21.6,0.5,0.5,0.5,0.25,0.0,0.5,0.5,0.25,0.25,0.5,0.0,0.75,0.75,-2.05,6.52,0.08,74.79,-6.2,-11.5
11.74,1.25,0.25,0.75,2.25,0.0,0.0,0.25,0.0,0.25,0.5,0.75,0.0,1.25,-0.17,2.95,3.7,118.54,13.9,11.1,0.5,0.5,0.5,0.0,0.0,0.5,0.5,0.25,0.25,0.5,0.0,1.0,0.75,-1.17,5.02,-0.23,74.45,-5.7,-20.1
11.76,0.5,0.25,0.75,2.0,0.0,0.0,0.25,0.0,0.25,0.5,0.75,0.0,1.25,0.77,5.08,2.52,113.95,11.5,0.0,0.5,0.5,0.5,0.25,0.0,2.0,0.25,0.25,1.25,8.75,2.25,8.25,6.75,-1.98,7.45,-2.17,211.87,3.7,-74.5
11.78,1.5,0.0,0.75,0.25,0.0,0.0,0.25,0.0,0.25,0.0,0.0,0.0,0.0,1.95,6.14,1.08,90.58,32.1,68.9,0.5,0.0,0.25,0.5,0.5,3.0,1.0,4.75,2.25,8.0,8.25,6.25,8.25,0.83,1.39,5.45,371.51,3.9,-66.8
11.8,0.75,0.5,0.75,2.0,0.0,0.0,0.0,0.0,0.25,0.5,0.0,0.0,1.0,3.02,6.33,-0.11,84.32,13.2,21.7,1.75,1.5,1.75,5.25,3.5,5.25,2.0,5.75,3.5,7.75,7.5,5.5,6.25,-0.23,0.08,1.08,626.36,-0.1,-29.0
11.82,1.75,0.0,0.75,1.25,0.0,0.0,0.0,0.0,0.25,0.75,0.0,0.0,1.0,2.27,5.58,-0.61,79.19,15.0,18.0,3.0,2.0,6.25,9.0,6.25,6.0,4.25,6.5,5.0,8.25,8.5,6.25,6.75,0.08,0.14,0.89,975.62,-4.1,-14.0
11.84,0.5,0.0,0.0,0.0,0.0,0.0,0.0,0.0,0.0,0.0,0.0,0.0,1.75,3.39,7.95,-1.36,64.74,-3.6,-67.1,4.5,2.25,8.0,12.0,7.75,7.0,6.0,7.25,5.5,7.75,8.5,5.5,5.75,0.02,-0.05,0.95,1340.48,-5.8,-3.4
11.86,0.5,0.75,0.0,1.25,0.0,2.25,0.0,4.5,2.5,5.5,7.25,4.25,7.0,0.77,1.2,5.58,217.1,-3.2,-61.8,5.0,3.0,9.0,14.0,9.0,7.25,7.0,7.25,5.0,6.25,7.75,4.0,4.75,0.27,0.14,1.02,1556.16,-7.0,6.6
11.88,1.75,1.25,0.0,7.75,3.25,3.5,1.0,4.5,4.0,5.25,5.25,2.25,4.0,-0.05,-0.36,1.02,360.99,1.1,-16.4,6.0,3.75,9.75,15.5,10.5,7.5,7.5,6.5,3.5,4.5,5.5,2.25,3.25,-0.05,0.02,1.02,1681.53,-8.5,20.6
11.9,3.75,2.75,4.25,11.0,7.25,5.0,2.75,5.0,5.75,5.25,5.25,3.0,3.75,-0.23,0.33,0.95,681.65,5.6,4.0,6.75,4.75,11.0,17.0,10.5,7.75,7.5,5.25,1.5,2.25,2.5,2.0,2.5,0.08,0.08,1.08,1722.27,-10.5,34.1
11.92,5.0,4.0,6.75,12.5,8.25,6.0,4.5,5.75,6.0,4.5,6.75,2.25,3.75,-0.11,-0.05,1.08,1039.51,7.4,11.4,7.5,4.75,11.0,17.5,11.5,7.25,7.0,2.0,0.75,1.75,1.0,1.25,1.75,0.08,0.08,1.14,1682.13,-12.3,45.0
11.94,6.25,4.75,8.0,14.5,9.25,6.5,5.75,5.75,6.0,3.25,6.0,1.25,2.5,-0.17,0.08,1.02,1368.91,9.1,22.2,7.5,4.5,11.0,17.0,10.5,5.25,5.75,1.25,0.5,1.0,1.0,0.75,1.5,0.08,0.08,1.77,1581.33,-14.1,49.4
11.96,7.0,5.25,8.75,16.0,9.75,6.75,6.25,4.75,4.5,1.75,3.75,0.75,1.5,-0.05,0.08,1.02,1508.12,10.8,34.3,7.5,3.75,9.0,13.0,8.0,0.5,3.75,0.5,0.25,0.5,0.5,1.0,1.5,0.08,0.08,1.7,1371.97,-17.7,52.4
11.98,8.0,5.5,9.25,16.0,11.0,6.5,6.5,2.25,1.5,0.75,2.25,0.0,1.25,-0.11,0.08,1.14,1555.2,12.6,47.7,7.25,2.5,7.0,8.5,3.75,0.5,2.0,0.25,0.25,0.5,0.25,0.5,1.0,0.2,0.2,1.52,1005.14,-20.2,56.0
12.0,8.5,5.5,9.25,16.0,10.0,4.75,0.0,0.5,0.75,0.75,1.5,0.0,1.25,-0.17,0.14,1.45,1499.18,13.9,54.4,6.0,1.25,2.0,3.0,0.0,0.5,1.5,0.25,0.5,0.25,0.0,0.75,0.25,0.08,0.39,1.7,561.45,-23.4,56.3
12.02,8.75,5.25,9.25,14.5,9.0,2.0,4.25,0.5,0.75,0.5,0.0,0.0,1.25,-0.36,0.08,1.89,1389.73,16.9,58.3,4.5,1.0,1.75,2.75,0.0,0.5,1.25,0.25,0.5,0.5,0.0,0.75,1.0,0.08,1.08,2.77,295.71,-19.5,40.0
12.04,8.5,4.25,9.25,11.5,0.0,0.75,2.5,0.5,0.5,0.75,0.0,0.0,1.25,-0.42,0.14,1.89,1129.84,23.0,59.4,3.0,0.5,1.25,0.5,0.0,0.5,1.0,0.25,0.25,0.5,0.0,0.75,0.75,0.27,0.64,1.77,119.09,-17.9,27.8
12.06,7.75,2.0,7.25,7.25,0.0,0.0,0.0,0.0,0.25,0.75,0.0,0.0,1.0,-0.48,0.08,2.27,800.84,25.5,61.7,1.75,0.0,1.25,0.5,0.0,0.5,0.75,0.25,0.5,0.5,0.0,0.75,0.75,0.2,0.89,1.27,0.0,-15.1,8.7
12.08,0.0,1.25,4.25,3.5,0.0,0.0,1.0,0.25,0.5,0.0,0.0,0.0,1.0,-0.23,0.64,2.2,446.19,21.5,41.2,0.5,0.5,1.5,0.5,0.0,0.5,0.5,0.25,0.25,0.25,0.0,0.75,0.75,0.2,0.7,1.2,0.0,-13.0,6.4
12.1,0.0,0.75,2.5,3.0,0.0,0.0,0.75,0.0,0.25,0.75,0.0,0.0,0.25,-0.3,0.45,2.27,223.36,19.9,40.8,0.5,0.5,0.75,0.5,0.0,0.75,0.5,0.25,0.25,0.5,0.0,0.75,0.0,0.08,1.39,1.08,0.0,-10.1,13.2
12.12,0.0,0.5,0.75,1.75,0.0,0.0,0.5,0.0,0.0,0.0,0.0,0.0,0.0,-0.42,0.33,2.02,39.95,22.4,62.7,0.0,0.5,0.5,0.5,0.0,0.75,0.5,0.25,0.25,0.5,0.0,0.75,0.0,0.77,0.2,2.2,0.0,-5.7,1.0
12.14,0.0,0.0,0.75,2.25,0.0,0.0,0.75,0.0,0.25,0.0,0.0,0.0,1.0,-0.36,0.14,1.14,0.0,14.8,14.8,0.25,0.5,1.25,0.5,0.0,0.75,0.5,0.25,0.25,0.25,0.0,0.75,0.75,0.77,0.02,2.33,0.0,-9.6,1.4
12.16,0.0,0.0,2.5,2.0,0.0,0.0,0.5,0.0,0.25,0.0,0.0,0.0,1.25,-0.11,0.39,1.02,0.0,19.8,20.7,0.5,0.5,1.75,0.25,0.0,0.75,0.5,0.25,0.25,0.5,0.0,0.75,0.75,1.2,-0.05,2.52,0.0,-11.5,4.4
12.18,1.25,0.0,2.0,2.0,0.0,0.0,0.25,0.0,0.25,0.25,0.25,0.0,1.0,-1.48,0.39,1.77,0.0,20.4,28.3,0.5,0.5,1.75,0.25,0.0,0.75,0.5,0.25,0.25,0.5,0.0,0.75,0.75,1.45,-0.11,3.02,0.0,-11.5,4.4
12.2,0.0,0.0,2.0,0.5,0.0,0.0,0.25,0.0,0.0,0.0,0.5,0.0,1.25,-1.23,0.45,1.77,0.0,17.7,-4.1,0.5,0.5,1.5,0.25,0.0,0.5,0.5,0.25,0.25,0.5,0.0,0.75,1.0,1.39,-0.61,2.27,17.5,-10.6,-3.7
12.22,0.5,0.0,1.75,2.0,0.0,0.0,0.0,0.0,0.25,0.25,0.75,0.0,1.25,-1.23,0.2,1.83,0.0,16.1,7.6,0.5,0.5,1.75,0.25,0.0,0.5,0.5,0.25,0.25,0.5,0.0,0.75,1.0,1.39,-0.73,1.7,57.24,-11.7,-1.1
12.24,0.5,0.0,1.75,0.25,0.0,0.0,0.0,0.0,0.25,0.0,0.0,0.0,0.0,-1.3,0.2,2.2,0.0,33.4,58.0,0.5,0.5,1.5,0.25,0.0,0.5,0.5,0.25,0.25,0.25,0.0,0.75,0.75,1.14,-1.17,1.27,78.88,-12.9,4.1
12.26,0.5,0.0,1.25,0.5,0.0,0.0,0.0,0.0,0.0,0.0,0.0,0.0,0.25,-1.3,-0.17,2.77,0.0,28.0,49.8,0.5,0.5,1.75,0.0,0.0,0.75,0.5,0.25,0.25,0.5,0.0,0.75,0.75,0.83,-1.23,1.08,86.25,-11.2,2.1
12.28,1.0,0.0,0.75,0.5,0.0,0.0,0.25,0.0,0.25,0.0,1.0,0.0,1.25,-1.55,-0.73,1.52,0.14,14.6,-10.6,0.5,0.5,1.75,0.0,0.0,0.75,0.5,0.5,0.25,0.5,0.0,0.75,0.5,0.64,-0.92,1.2,93.61,-11.1,5.1
12.3,0.75,0.0,1.0,1.25,0.0,0.0,0.25,0.0,0.25,0.0,0.0,0.0,0.0,-1.3,-1.05,1.02,28.0,27.4,59.0,0.5,0.5,1.75,0.25,0.0,0.75,0.5,0.25,0.25,0.5,0.0,0.75,0.75,0.39,-0.36,1.58,98.73,-11.5,4.4
12.32,0.5,0.0,0.75,0.25,0.0,0.0,0.0,0.0,0.0,0.0,0.0,0.0,0.0,-1.17,-0.92,1.02,36.34,33.5,71.9,0.5,0.5,1.5,0.25,0.0,0.5,0.5,0.25,0.25,0.5,0.0,0.75,0.75,0.27,0.08,1.58,98.84,-11.7,0.8
12.34,0.5,0.0,0.75,0.25,0.0,0.0,0.25,0.0,0.0,0.0,0.75,0.0,0.25,-1.05,-0.61,1.14,36.27,22.5,10.8,0.5,0.5,1.5,0.25,0.0,0.75,0.5,0.25,0.25,0.5,0.0,0.75,0.75,0.27,0.27,1.7,99.55,-10.4,2.0
12.36,0.5,0.0,0.75,0.25,0.0,0.0,0.0,0.0,0.25,0.0,0.0,0.0,1.0,-0.8,-0.23,1.52,35.23,14.1,-5.2,0.5,0.0,1.5,0.25,0.0,1.25,0.5,0.25,0.25,0.5,0.0,0.75,0.75,0.27,0.08,1.95,97.74,-7.6,-3.5
12.38,0.5,0.0,0.75,0.25,0.0,0.0,0.25,0.0,0.0,0.0,0.0,0.0,0.25,-0.67,0.14,1.7,27.79,27.0,44.1,0.5,0.5,1.5,0.25,0.0,0.5,0.5,0.25,0.25,0.5,0.0,0.75,0.5,0.27,0.2,2.45,93.8,-12.8,5.7
12.4,0.5,0.0,0.75,2.0,0.0,0.0,0.25,0.0,0.25,0.0,0.75,0.0,1.25,-0.61,0.33,2.08,44.42,13.8,2.0,0.5,0.5,1.25,0.25,0.0,0.5,0.5,0.25,0.25,0.5,0.0,0.75,0.5,0.2,0.83,3.08,89.75,-11.6,3.1
12.42,1.5,0.5,0.75,1.25,0.0,0.0,0.25,0.0,0.25,0.0,0.0,0.0,0.5,-0.61,0.52,2.7,60.5,22.0,50.8,0.5,0.5,1.5,0.0,0.0,0.5,0.5,0.25,0.25,0.5,0.0,0.75,0.75,-0.36,2.58,3.64,88.19,-11.4,-1.7
12.44,0.5,0.0,1.0,0.25,0.0,0.0,0.25,0.0,0.0,0.0,0.25,0.0,0.75,-0.67,0.89,3.14,63.98,19.4,8.2,0.5,0.5,0.5,0.25,0.0,0.5,0.5,0.25,0.25,0.5,0.0,0.75,0.5,-1.3,4.83,3.08,81.84,-7.3,-6.2
12.46,0.5,0.0,1.0,0.25,0.0,0.0,0.0,0.0,0.25,0.0,0.0,0.0,0.0,-0.73,1.45,3.27,54.23,31.5,56.9,0.5,0.5,1.0,0.25,0.0,0.5,0.5,0.25,0.25,0.5,0.0,0.75,1.0,-1.92,6.77,0.77,81.69,-8.2,-9.4
12.48,0.5,0.0,0.75,0.25,0.0,0.0,0.25,0.0,0.0,0.0,0.0,0.0,0.0,0.2,3.2,3.64,44.49,33.5,68.6,0.5,0.5,0.25,0.25,0.0,0.75,0.5,0.25,0.25,0.5,0.0,0.75,0.75,-2.11,6.83,-0.23,77.99,-3.1,-13.1
12.5,0.5,0.0,0.75,0.25,0.0,0.0,0.0,0.0,0.0,0.0,0.0,0.0,0.0,1.39,5.27,2.33,32.31,33.5,71.9,0.25,0.5,0.0,0.25,0.0,0.5,0.5,0.25,0.25,1.25,0.0,2.25,1.25,-1.86,5.7,-0.73,88.22,0.3,-55.6
12.52,2.0,0.0,0.75,1.75,0.0,0.0,0.0,0.0,0.25,0.0,0.0,0.0,1.25,2.58,6.08,1.08,50.37,18.6,30.8,0.0,0.5,0.0,0.0,0.0,2.0,0.0,1.75,1.0,7.25,4.0,7.5,7.75,-1.61,3.02,2.64,224.36,5.3,-79.7
12.54,0.5,0.0,0.75,0.25,0.0,0.0,0.0,0.0,0.25,0.75,0.75,0.0,1.25,2.64,5.64,-0.11,62.95,7.0,-34.2,0.75,0.0,0.25,0.75,0.0,3.0,0.75,4.0,1.75,7.25,6.5,5.5,7.5,-0.48,0.08,1.2,356.71,4.1,-65.7
12.56,1.0,0.0,0.75,0.25,0.0,0.0,0.25,0.0,0.0,0.0,1.0,0.0,1.25,0.95,5.58,-0.17,73.31,14.6,-13.2,1.5,1.25,1.75,5.0,3.5,5.25,1.5,5.5,3.0,7.25,6.5,5.0,5.75,-0.36,-0.11,1.08,574.59,0.3,-27.9
12.58,0.0,0.75,0.0,0.25,0.0,0.0,0.25,0.0,0.5,7.75,1.75,6.5,6.5,2.14,7.95,2.58,183.17,-4.6,-85.8,2.0,1.75,4.75,8.75,6.25,6.25,3.0,6.5,5.0,8.0,8.0,5.75,6.0,-0.11,0.2,0.89,875.57,-2.7,-15.6
12.6,2.0,0.75,0.0,1.75,0.0,2.25,0.25,4.5,2.25,6.25,7.25,4.25,7.0,-0.3,1.52,6.02,316.87,-1.8,-54.4,3.5,2.25,7.5,12.0,8.0,7.25,5.25,7.25,5.25,7.5,8.25,5.5,5.75,-0.05,0.02,0.95,1245.77,-5.0,-4.2
12.62,2.25,1.25,0.0,7.75,2.5,3.75,0.0,5.0,4.0,5.25,5.5,3.25,5.0,-0.11,-0.86,0.89,496.84,0.7,-21.5,4.75,3.0,8.5,14.0,9.0,7.75,6.5,7.25,5.0,6.25,7.5,4.25,4.75,0.14,0.08,1.02,1493.81,-6.5,6.0
12.64,3.5,2.75,4.25,11.0,7.5,4.75,2.25,5.75,5.75,6.0,6.5,3.25,4.0,-0.36,0.27,1.02,799.46,5.0,0.0,6.0,3.75,9.25,15.5,10.5,8.0,7.0,7.0,3.75,4.75,5.5,2.5,3.5,0.14,0.08,1.02,1652.47,-7.8,18.8
12.66,4.0,4.0,6.5,13.0,8.25,5.5,3.25,6.0,6.25,5.25,7.0,2.5,3.75,0.08,0.02,1.08,1129.26,6.7,8.3,7.25,4.75,10.0,17.0,11.5,8.0,7.25,5.75,1.75,3.0,2.5,2.0,2.75,0.08,0.08,1.08,1725.71,-9.5,32.3
12.68,6.0,5.0,8.0,14.5,9.25,6.5,5.0,6.0,6.0,3.5,6.0,1.75,2.5,-0.23,0.02,1.02,1402.79,8.8,20.9,8.0,5.25,11.0,17.5,11.5,7.25,6.5,1.75,0.5,1.5,1.0,1.0,1.75,0.14,0.14,1.2,1694.56,-12.6,47.3
12.7,7.0,5.5,8.75,16.0,10.0,6.5,5.5,5.0,4.5,2.0,4.25,1.0,1.5,-0.05,0.08,1.02,1536.49,10.6,32.9,8.25,4.75,10.0,14.0,10.5,3.25,5.0,1.25,0.5,1.0,0.25,0.75,1.5,0.08,0.14,1.83,1555.63,-14.9,51.6
12.72,7.75,5.5,9.25,16.5,10.5,5.5,5.75,1.75,1.0,0.75,1.75,0.0,0.75,-0.11,0.08,1.2,1554.36,13.6,51.3,8.25,4.25,9.0,12.5,7.75,0.5,3.0,0.5,0.5,0.0,0.5,0.75,1.25,0.2,0.08,1.89,1342.59,-18.4,56.2
12.74,8.0,5.5,9.25,16.0,10.0,3.5,0.0,0.5,0.75,0.75,1.5,0.0,1.25,-0.17,0.2,1.52,1471.48,14.5,54.5,8.0,3.5,7.25,8.5,4.25,0.5,1.75,0.25,0.25,0.0,0.0,1.0,1.0,0.2,0.2,1.7,989.44,-20.4,58.5
12.76,0.0,4.5,0.0,13.5,8.0,1.5,1.75,0.5,0.25,0.5,0.0,0.0,1.25,-0.3,0.08,1.58,1164.51,7.1,49.8,7.25,2.25,2.75,3.0,0.0,1.0,1.5,0.5,0.5,0.75,0.25,0.75,1.0,0.14,0.45,1.95,600.63,-20.0,48.3
12.78,7.75,4.0,0.0,11.0,0.0,0.25,1.25,0.5,0.25,0.75,0.0,0.0,1.25,-0.48,0.14,1.89,817.4,18.2,59.6,5.5,1.0,0.5,1.75,0.0,1.0,1.0,0.25,0.25,0.5,0.0,0.75,1.0,0.02,0.83,2.45,325.17,-17.4,42.1
12.8,7.75,3.0,6.75,7.75,0.0,0.0,0.5,0.0,0.25,0.75,0.0,0.0,1.0,-0.36,0.14,2.08,554.48,24.6,62.7,3.5,0.25,0.25,0.5,0.0,0.5,1.0,0.25,0.5,0.5,0.0,0.75,0.0,0.14,0.58,1.39,142.59,-19.5,37.5
12.82,6.75,1.25,4.25,5.5,0.0,0.0,0.5,0.25,0.25,0.75,0.0,0.0,1.0,-0.11,0.58,2.27,361.84,23.9,57.4,2.0,0.5,0.75,0.5,0.0,0.5,0.75,0.25,0.5,0.5,0.0,0.75,0.5,0.2,0.83,1.58,0.0,-14.9,18.8
12.84,5.5,1.0,2.5,4.0,0.0,0.0,0.5,0.25,0.25,0.75,0.0,0.0,1.0,-0.42,0.7,2.27,249.16,22.2,53.2,0.5,0.5,0.5,0.5,0.0,0.0,0.5,0.25,0.25,0.25,0.0,0.75,0.0,0.39,0.7,1.45,0.0,-16.2,12.0
12.86,0.0,0.5,2.5,2.5,0.0,0.0,0.5,0.0,0.25,0.75,0.0,0.0,0.75,-0.55,0.08,1.83,129.69,17.9,27.8,0.0,0.0,0.25,0.0,0.0,0.5,0.5,0.25,0.25,0.0,0.0,0.25,0.0,-0.05,1.27,0.27,0.0,-4.5,-4.7
12.88,0.5,0.0,2.0,1.75,0.0,0.0,3.5,0.0,0.25,0.0,0.0,0.0,1.0,-0.3,0.58,2.02,16.23,23.2,27.4,0.0,0.0,0.25,0.0,0.0,0.5,0.5,0.25,0.25,0.0,0.0,0.25,0.0,0.52,0.2,2.08,0.0,-4.5,-4.7
12.9,1.0,0.5,1.75,2.25,0.0,0.0,0.25,0.0,0.5,0.0,0.0,0.0,0.25,-0.55,0.45,0.95,0.0,23.9,53.2,0.0,0.0,0.0,0.0,0.0,0.5,0.25,0.0,0.25,0.0,0.0,0.25,0.0,0.58,0.27,2.27,0.0,1.5,-16.0
12.92,1.5,0.25,1.0,2.0,0.0,0.0,0.25,0.0,0.25,0.0,0.0,0.0,1.0,-0.73,1.45,0.83,0.0,19.5,36.7,0.5,0.75,0.0,0.25,0.0,1.0,0.75,0.25,0.25,0.0,0.0,0.25,0.75,1.02,0.08,2.45,0.0,-2.5,11.1
12.94,2.0,0.0,1.0,1.75,0.0,0.0,0.25,0.0,0.25,0.0,0.0,0.0,1.25,-1.36,0.08,2.08,0.0,19.6,31.9,0.25,0.0,0.0,0.0,0.0,0.5,0.75,0.25,0.25,0.25,0.0,0.75,0.0,1.33,-0.42,2.39,0.0,-4.1,-27.8
12.96,1.75,0.0,1.25,1.75,0.0,0.0,0.0,0.0,0.25,0.0,0.0,0.0,1.0,-0.92,0.08,2.02,0.0,21.0,36.8,0.5,0.5,0.5,0.25,0.0,0.75,0.25,0.25,0.25,0.5,0.0,0.75,0.0,1.33,-0.42,2.08,0.0,-7.4,7.3
12.98,2.0,0.0,1.0,2.0,0.0,0.0,0.0,0.0,0.25,0.0,0.75,0.0,1.25,-1.11,0.27,2.27,1.22,18.4,22.2,0.5,0.5,1.5,0.25,0.0,0.75,0.25,0.25,0.25,0.25,0.0,0.75,0.0,1.14,-0.67,1.52,5.59,-14.8,22.2
13.0,2.0,0.0,1.0,1.25,0.0,0.0,0.0,0.0,0.25,0.5,0.5,0.0,1.0,-1.17,0.27,2.7,38.17,17.5,19.2,0.0,0.0,1.0,0.0,0.0,0.5,0.0,0.25,0.25,0.0,0.0,0.25,0.0,0.89,-1.05,1.39,30.99,-13.1,14.4
