time,left pressure 0[N/cm²],left pressure 1[N/cm²],left pressure 2[N/cm²],left pressure 3[N/cm²],left pressure 4[N/cm²],left pressure 5[N/cm²],left pressure 6[N/cm²],left pressure 7[N/cm²],left pressure 8[N/cm²],left pressure 9[N/cm²],left pressure 10[N/cm²],left pressure 11[N/cm²],left pressure 12[N/cm²],left acceleration X[g],left acceleration Y[g],left acceleration Z[g],left total force[N],left center of pressure X[mm],left center of pressure Y[mm],right pressure 0[N/cm²],right pressure 1[N/cm²],right pressure 2[N/cm²],right pressure 3[N/cm²],right pressure 4[N/cm²],right pressure 5[N/cm²],right pressure 6[N/cm²],right pressure 7[N/cm²],right pressure 8[N/cm²],right pressure 9[N/cm²],right pressure 10[N/cm²],right pressure 11[N/cm²],right pressure 12[N/cm²],right acceleration X[g],right acceleration Y[g],right acceleration Z[g],right total force[N],right center of pressure X[mm],right center of pressure Y[mm]
0.02,0.0,0.0,0.0,0.5,0.0,0.0,0.0,0.0,0.25,0.0,0.0,0.0,0.0,-0.11,0.14,0.95,9.61,15.5,27.0,0.0,0.0,0.5,0.0,0.0,0.0,0.0,1.5,0.0,0.0,0.0,0.0,0.75,0.08,0.14,0.95,43.23,5.7,-40.0
0.04,0.0,0.0,0.0,0.5,0.0,0.0,0.0,0.0,0.0,0.0,0.0,0.0,0.0,-0.11,0.14,0.95,9.51,17.2,57.9,0.0,0.0,0.5,0.0,0.0,0.0,0.0,1.0,0.0,0.0,0.0,0.0,0.75,0.08,0.14,0.95,40.5,3.3,-40.3
0.06,0.0,0.0,0.0,0.25,0.0,0.0,0.0,0.0,0.0,0.0,0.0,0.0,0.0,-0.11,0.14,0.95,8.68,17.2,57.9,0.0,0.0,0.5,0.0,0.0,0.25,0.0,1.25,0.0,0.0,0.0,0.0,0.75,0.08,0.14,0.95,40.56,6.2,-33.8
0.08,0.0,0.0,0.0,0.25,0.0,0.0,0.0,0.0,0.0,0.0,0.0,0.0,0.0,-0.11,0.14,0.95,6.78,17.2,57.9,0.0,0.0,0.5,0.0,0.0,0.0,0.0,1.5,0.0,0.0,0.0,0.0,0.75,0.02,0.14,0.95,40.37,5.7,-40.0
0.1,0.0,0.0,0.0,0.5,0.0,0.0,0.0,0.0,0.5,0.0,0.0,0.0,0.0,-0.11,0.14,0.95,9.8,14.7,11.1,0.0,0.0,0.5,0.0,0.0,0.5,0.0,1.5,0.0,0.0,0.0,0.0,0.75,0.08,0.14,0.95,43.62,8.2,-29.3
0.12,0.0,0.0,0.0,0.25,0.0,0.0,0.0,0.0,0.0,0.0,0.0,0.0,0.0,-0.11,0.14,0.95,8.56,17.2,57.9,0.0,0.0,0.5,0.0,0.0,0.25,0.0,1.5,0.0,0.0,0.0,0.0,0.75,0.08,0.14,0.95,45.75,7.0,-34.2
0.14,0.0,0.0,0.0,0.5,0.0,0.0,0.0,0.0,0.0,0.0,0.0,0.0,0.0,-0.11,0.14,0.95,9.3,17.2,57.9,0.0,0.0,0.5,0.0,0.0,0.0,0.0,1.25,0.0,0.0,0.0,0.0,0.5,0.08,0.14,0.95,43.95,3.6,-32.3
0.16,0.0,0.0,0.0,0.25,0.0,0.0,0.0,0.0,0.0,0.0,0.0,0.0,0.0,-0.11,0.14,0.95,7.18,17.2,57.9,0.0,0.0,0.5,0.0,0.0,0.0,0.0,1.25,0.0,0.0,0.0,0.0,0.75,0.08,0.14,0.95,42.04,4.6,-40.1
0.18,0.0,0.0,0.0,0.25,0.0,0.0,0.0,0.0,0.0,0.0,0.0,0.0,0.0,-0.11,0.14,0.95,6.12,17.2,57.9,0.0,0.0,0.5,0.0,0.0,0.25,0.0,1.5,0.0,0.0,0.5,0.0,0.75,0.02,0.14,0.95,45.34,4.6,-39.9
0.2,0.0,0.0,0.0,0.25,0.0,0.0,0.0,0.0,0.0,0.0,0.0,0.0,0.0,-0.11,0.14,0.95,4.52,17.2,57.9,0.0,0.0,0.5,0.0,0.0,0.5,0.0,1.5,0.0,0.0,0.0,0.0,0.5,0.08,0.14,0.95,46.6,7.7,-22.4
0.22,0.0,0.0,0.0,0.25,0.0,0.0,0.0,0.0,0.0,0.0,0.0,0.0,0.0,-0.11,0.14,0.95,4.27,17.2,57.9,0.0,0.0,0.5,0.0,0.0,0.0,0.0,1.5,0.0,0.0,0.0,0.0,0.5,0.02,0.14,0.95,45.18,4.9,-32.9
0.24,0.0,0.0,0.0,0.25,0.0,0.0,0.0,0.0,0.0,0.0,0.0,0.0,0.0,-0.11,0.14,0.95,4.07,17.2,57.9,0.0,0.0,0.5,0.0,0.0,0.25,0.0,1.25,0.0,0.0,0.0,0.0,0.25,0.08,0.14,0.95,41.7,4.5,-16.5
0.26,0.0,0.0,0.0,0.5,0.0,0.0,0.0,0.0,0.0,0.0,0.0,0.0,0.0,-0.11,0.14,0.95,5.33,17.2,57.9,0.0,0.0,0.5,0.0,0.0,0.0,0.0,1.5,0.0,0.0,0.0,0.0,0.75,0.08,0.14,0.95,41.16,5.7,-40.0
0.28,0.0,0.0,0.0,0.5,0.0,0.0,0.0,0.0,0.0,0.0,0.0,0.0,0.0,-0.11,0.14,0.95,7.18,17.2,57.9,0.0,0.0,0.5,0.0,0.0,0.0,0.0,1.5,0.0,0.0,0.0,0.0,0.75,0.08,0.14,0.95,41.08,5.7,-40.0
0.3,0.0,0.0,0.0,0.25,0.0,0.0,0.0,0.0,0.0,0.0,0.0,0.0,0.0,-0.11,0.14,0.95,7.01,17.2,57.9,0.0,0.0,0.5,0.0,0.0,0.5,0.0,1.25,0.0,0.0,0.0,0.0,1.0,0.08,0.14,0.95,44.57,8.0,-34.9
0.32,0.0,0.0,0.0,0.5,0.0,0.0,0.0,0.0,0.0,0.0,0.0,0.0,0.0,-0.11,0.14,0.95,7.66,17.2,57.9,0.0,0.0,0.5,0.0,0.0,0.0,0.0,0.75,0.0,0.0,0.0,0.0,0.5,0.02,0.14,0.95,39.74,0.0,-30.4
0.34,0.0,0.0,0.0,0.5,0.0,0.0,0.0,0.0,0.0,0.0,0.0,0.0,0.0,-0.11,0.14,0.95,7.96,17.2,57.9,0.0,0.0,0.5,0.0,0.0,0.25,0.0,1.5,0.0,0.0,0.0,0.0,0.75,0.02,0.14,0.95,41.47,7.0,-34.2
0.36,0.0,0.0,0.0,0.25,0.0,0.0,0.0,0.0,0.0,0.0,0.0,0.0,0.0,-0.11,0.14,0.95,7.71,17.2,57.9,0.0,0.0,0.5,0.0,0.0,0.0,0.0,1.5,0.0,0.0,0.0,0.0,0.75,0.02,0.14,0.95,41.09,5.7,-40.0
0.38,0.0,0.0,0.0,0.25,0.0,0.0,0.0,0.0,0.0,0.0,0.0,0.0,0.0,-0.11,0.14,0.95,6.5,17.2,57.9,0.0,0.0,0.5,0.0,0.0,0.5,0.0,1.25,0.0,0.0,0.0,0.0,1.0,0.02,0.14,0.95,45.55,8.0,-34.9
0.4,0.0,0.0,0.0,0.25,0.0,0.0,0.0,0.0,0.0,0.0,0.0,0.0,0.0,-0.11,0.14,0.95,5.73,17.2,57.9,0.0,0.0,0.5,0.0,0.0,0.25,0.0,1.5,0.0,0.0,0.0,0.0,0.75,0.02,0.14,0.95,46.29,7.0,-34.2
0.42,0.0,0.0,0.0,0.25,0.0,0.0,0.0,0.0,0.0,0.0,0.0,0.0,0.25,-0.11,0.14,0.95,6.13,1.8,-25.2,0.0,0.0,0.5,0.0,0.0,0.0,0.0,1.5,0.0,0.0,0.0,0.0,0.5,0.08,0.14,0.95,45.18,4.9,-32.9
0.44,0.0,0.0,0.0,0.5,0.0,0.0,0.0,0.0,0.0,0.0,0.0,0.0,0.0,-0.11,0.14,0.95,7.19,17.2,57.9,0.0,0.0,0.5,0.0,0.0,0.0,0.0,1.5,0.0,0.0,0.0,0.0,0.5,0.08,0.14,0.95,43.13,4.9,-32.9
0.46,0.0,0.0,0.0,0.5,0.0,0.0,0.0,0.0,0.0,0.0,0.0,0.0,0.0,-0.11,0.14,0.95,8.52,17.2,57.9,0.0,0.0,0.75,0.0,0.0,0.0,0.0,1.0,0.0,0.0,0.0,0.0,1.5,0.08,0.14,0.95,45.84,2.5,-48.6
0.48,0.0,0.0,0.0,0.5,0.0,0.0,0.0,0.0,0.0,0.0,0.0,0.0,0.0,-0.11,0.14,0.95,9.22,17.2,57.9,0.0,0.0,0.5,0.0,0.0,0.5,0.0,1.0,0.0,0.0,0.25,0.0,0.75,0.08,0.14,0.95,46.54,5.2,-31.4
0.5,0.0,0.0,0.0,0.5,0.0,0.0,0.0,0.0,0.0,0.0,0.0,0.0,0.0,-0.11,0.14,0.95,9.43,17.2,57.9,0.0,0.0,0.5,0.0,0.0,0.25,0.0,1.5,0.0,0.0,0.0,0.0,0.75,0.02,0.14,0.95,47.62,7.0,-34.2
0.52,0.0,0.0,0.0,0.25,0.0,0.0,0.0,0.0,0.0,0.0,0.0,0.0,0.0,-0.11,0.14,0.95,8.03,17.2,57.9,0.0,0.0,0.5,0.0,0.0,0.25,0.0,1.5,0.0,0.0,0.0,0.0,0.0,0.02,0.14,0.95,43.93,4.8,-8.3
0.54,0.0,0.0,0.0,0.5,0.0,0.0,0.0,0.0,0.0,0.0,0.0,0.0,0.0,-0.11,0.14,0.95,8.33,17.2,57.9,0.0,0.0,0.5,0.0,0.0,0.5,0.0,1.25,0.0,0.0,0.0,0.0,1.0,0.08,0.14,0.95,45.66,8.0,-34.9
0.56,0.0,0.0,0.0,0.5,0.0,0.0,0.0,0.0,0.0,0.0,0.0,0.0,0.0,-0.11,0.14,0.95,8.36,17.2,57.9,0.0,0.0,0.5,0.0,0.0,0.25,0.0,1.25,0.0,0.0,0.0,0.0,0.75,0.02,0.14,0.95,44.48,6.2,-33.8
0.58,0.0,0.0,0.0,0.5,0.0,0.0,0.0,0.0,0.0,0.0,0.0,0.0,0.0,-0.11,0.14,0.95,9.22,17.2,57.9,0.0,0.0,0.5,0.0,0.0,0.5,0.0,1.5,0.0,0.0,0.0,0.0,0.25,0.08,0.14,0.95,43.77,7.2,-14.2
0.6,0.0,0.0,0.0,0.25,0.0,0.0,0.0,0.0,0.0,0.0,0.0,0.0,0.0,-0.11,0.14,0.95,8.09,17.2,57.9,0.0,0.0,0.5,0.0,0.0,0.0,0.0,1.5,0.0,0.0,0.25,0.0,0.75,0.08,0.14,0.95,44.89,4.4,-42.8
0.62,0.0,0.0,0.0,0.5,0.0,0.0,0.0,0.0,0.0,0.0,0.0,0.0,0.0,-0.11,0.14,0.95,8.38,17.2,57.9,0.0,0.0,0.5,0.0,0.0,0.0,0.0,1.5,0.0,0.0,0.0,0.0,0.75,0.08,0.14,0.95,44.9,5.7,-40.0
0.64,0.0,0.0,0.0,0.25,0.0,0.0,0.0,0.0,0.25,0.0,0.0,0.0,0.0,-0.11,0.14,0.95,7.96,14.7,11.1,0.0,0.0,0.5,0.0,0.0,0.25,0.0,1.25,0.0,0.0,0.0,0.0,0.75,0.08,0.14,0.95,44.56,6.2,-33.8
0.66,0.0,0.0,0.0,0.25,0.0,0.0,0.0,0.0,0.25,0.0,0.0,0.0,0.0,-0.11,0.14,0.95,8.1,14.7,11.1,0.0,0.0,0.75,0.0,0.0,0.5,0.0,1.5,0.0,0.0,0.0,0.0,0.75,0.08,0.14,0.95,47.62,4.8,-22.7
0.68,0.0,0.0,0.0,0.5,0.0,0.0,0.0,0.0,0.0,0.0,0.0,0.0,0.0,-0.11,0.14,0.95,8.51,17.2,57.9,0.0,0.0,0.5,0.0,0.0,0.5,0.0,1.5,0.0,0.0,0.0,0.0,0.75,0.08,0.14,0.95,48.99,8.2,-29.3
0.7,0.0,0.0,0.0,0.5,0.0,0.0,0.0,0.0,0.0,0.0,0.0,0.0,0.0,-0.11,0.14,0.95,9.06,17.2,57.9,0.0,0.0,0.5,0.0,0.0,0.0,0.0,1.5,0.0,0.0,0.25,0.0,1.0,0.02,0.14,0.95,51.03,5.1,-48.1
0.72,0.0,0.0,0.0,0.25,0.0,0.0,0.0,0.0,0.0,0.0,0.0,0.0,0.0,-0.11,0.14,0.95,7.69,17.2,57.9,0.0,0.0,0.5,0.0,0.0,0.0,0.0,1.25,0.0,0.0,0.25,0.0,0.75,0.02,0.14,0.95,49.93,3.3,-43.2
0.74,0.0,0.0,0.0,0.5,0.0,0.0,0.0,0.0,0.0,0.0,0.0,0.0,0.0,-0.11,0.14,0.95,7.99,17.2,57.9,0.0,0.0,0.5,0.0,0.0,0.0,0.0,1.5,0.0,0.0,0.0,0.0,0.75,0.02,0.14,0.95,48.34,5.7,-40.0
0.76,0.0,0.0,0.0,0.25,0.0,0.0,0.0,0.0,0.0,0.0,0.0,0.0,0.0,-0.11,0.14,0.95,6.68,17.2,57.9,0.0,0.0,0.75,0.0,0.0,0.0,0.0,1.5,0.0,0.0,0.0,0.0,0.75,0.02,0.14,0.95,46.99,2.0,-31.5
0.78,0.0,0.0,0.0,0.5,0.0,0.0,0.0,0.0,0.0,0.0,0.0,0.0,0.0,-0.11,0.14,0.95,7.26,17.2,57.9,0.0,0.0,0.5,0.0,0.0,0.25,0.0,1.0,0.0,0.0,0.0,0.0,1.0,0.08,0.14,0.95,45.18,5.9,-40.4
0.8,0.0,0.0,0.0,0.25,0.0,0.0,0.0,0.0,0.0,0.0,0.0,0.0,0.0,-0.11,0.14,0.95,6.17,17.2,57.9,0.0,0.0,0.5,0.0,0.0,0.5,0.0,1.5,0.0,0.0,0.25,0.0,0.75,0.02,0.14,0.95,48.27,6.9,-32.5
0.82,0.0,0.0,0.0,0.5,0.0,0.0,0.0,0.0,0.0,0.0,0.0,0.0,0.0,-0.11,0.14,0.95,7.4,17.2,57.9,0.0,0.0,1.0,0.0,0.0,0.0,0.0,1.5,0.0,0.0,0.0,0.0,0.75,0.08,0.14,0.95,49.53,-1.1,-24.3
0.84,0.0,0.0,0.0,0.5,0.0,0.0,0.0,0.0,0.0,0.0,0.0,0.0,0.0,-0.11,0.14,0.95,7.93,17.2,57.9,0.0,0.0,1.0,0.0,0.0,0.0,0.0,1.25,0.0,0.0,0.0,0.0,0.75,0.02,0.14,0.95,49.55,-2.5,-23.1
0.86,0.0,0.0,0.0,0.5,0.0,0.0,0.0,0.0,0.0,0.0,0.0,0.0,0.0,-0.11,0.14,0.95,8.72,17.2,57.9,0.0,0.0,0.5,0.0,0.0,0.0,0.0,1.5,0.0,0.0,0.0,0.0,1.0,0.02,0.14,0.95,49.21,6.4,-45.9
0.88,0.0,0.0,0.0,0.5,0.0,0.0,0.0,0.0,0.0,0.0,0.0,0.0,0.0,-0.11,0.14,0.95,9.18,17.2,57.9,0.0,0.0,0.5,0.0,0.0,0.0,0.0,1.5,0.0,0.0,0.0,0.0,0.75,0.02,0.14,0.95,47.11,5.7,-40.0
0.9,0.0,0.0,0.0,0.0,0.0,0.0,0.0,0.0,0.0,0.0,0.0,0.0,0.0,-0.11,0.14,0.95,6.27,0.0,0.0,0.0,0.0,0.5,0.0,0.0,0.0,0.0,1.25,0.0,0.0,0.0,0.0,0.75,0.08,0.14,0.95,43.72,4.6,-40.1
0.92,0.0,0.0,0.0,0.25,0.0,0.0,0.0,0.0,0.0,0.0,0.0,0.0,0.0,-0.11,0.14,0.95,4.96,17.2,57.9,0.0,0.0,0.5,0.0,0.0,0.25,0.0,1.0,0.0,0.0,0.0,0.0,1.0,0.08,0.14,0.95,42.79,5.9,-40.4
0.94,0.0,0.0,0.0,0.25,0.0,0.0,0.0,0.0,0.0,0.0,0.0,0.0,0.0,-0.11,0.14,0.95,3.77,17.2,57.9,0.0,0.0,0.5,0.0,0.0,0.0,0.0,1.5,0.0,0.0,0.0,0.0,0.75,0.08,0.14,0.95,42.55,5.7,-40.0
0.96,0.0,0.0,0.0,0.25,0.0,0.0,0.0,0.0,0.0,0.0,0.0,0.0,0.0,-0.11,0.14,0.95,3.95,17.2,57.9,0.0,0.0,0.5,0.0,0.0,0.0,0.0,1.5,0.0,0.0,0.0,0.0,0.75,0.02,0.14,0.95,43.08,5.7,-40.0
0.98,0.0,0.0,0.0,0.5,0.0,0.0,0.0,0.0,0.0,0.0,0.0,0.0,0.0,-0.11,0.14,0.95,5.4,17.2,57.9,0.0,0.0,0.5,0.0,0.0,0.25,0.0,1.0,0.0,0.0,0.0,0.0,0.75,0.02,0.14,0.95,41.45,5.1,-33.3
1.0,0.0,0.0,0.0,0.25,0.0,0.0,0.0,0.0,0.0,0.0,0.0,0.0,0.0,-0.11,0.14,0.95,5.73,17.2,57.9,0.0,0.0,0.5,0.0,0.0,0.5,0.0,1.5,0.0,0.0,0.0,0.0,0.75,0.08,0.14,0.95,43.65,8.2,-29.3
1.02,0.0,0.0,0.0,0.5,0.0,0.0,0.0,0.0,0.0,0.0,0.0,0.0,0.0,-0.11,0.14,0.95,7.01,17.2,57.9,0.0,0.0,0.5,0.0,0.0,0.0,0.0,1.25,0.0,0.0,0.0,0.0,1.0,0.08,0.14,0.95,43.83,5.5,-46.6
1.04,0.0,0.0,0.0,0.0,0.0,0.0,0.0,0.0,0.0,0.0,0.0,0.0,0.0,-0.11,0.14,0.95,4.61,0.0,0.0,0.0,0.0,0.5,0.0,0.0,0.0,0.0,1.5,0.0,0.0,0.0,0.0,0.75,0.02,0.14,0.95,44.14,5.7,-40.0
1.06,0.0,0.0,0.0,0.25,0.0,0.0,0.0,0.0,0.0,0.0,0.0,0.0,0.0,-0.11,0.14,0.95,4.16,17.2,57.9,0.0,0.0,0.5,0.0,0.0,0.0,0.0,1.25,0.0,0.0,0.0,0.0,0.5,0.08,0.14,0.95,41.14,3.6,-32.3
1.08,0.0,0.0,0.0,0.25,0.0,0.0,0.0,0.0,0.0,0.0,0.0,0.0,0.0,-0.11,0.14,0.95,3.42,17.2,57.9,0.0,0.0,0.5,0.0,0.0,0.25,0.0,1.0,0.0,0.0,0.0,0.0,0.5,0.08,0.14,0.95,38.28,4.2,-24.6
1.1,0.0,0.0,0.0,0.25,0.0,0.0,0.0,0.0,0.0,0.0,0.0,0.0,0.0,-0.11,0.14,0.95,4.0,17.2,57.9,0.0,0.0,0.5,0.0,0.0,0.0,0.0,1.5,0.0,0.0,0.25,0.0,0.75,0.08,0.14,0.95,39.82,4.4,-42.8
1.12,0.0,0.0,0.0,0.25,0.0,0.0,0.0,0.0,0.0,0.0,0.0,0.0,0.0,-0.11,0.14,0.95,4.28,17.2,57.9,0.0,0.0,0.5,0.0,0.0,0.0,0.25,1.5,0.0,0.0,0.0,0.0,0.25,0.08,0.14,0.95,39.01,2.1,-21.6
1.14,0.0,0.0,0.0,0.25,0.0,0.0,0.0,0.0,0.0,0.0,0.0,0.0,0.0,-0.11,0.14,0.95,4.87,17.2,57.9,0.0,0.0,0.5,0.0,0.0,0.0,0.0,1.5,0.0,0.0,0.0,0.0,0.75,0.08,0.14,0.95,41.24,5.7,-40.0
1.16,0.0,0.0,0.0,0.5,0.0,0.0,0.0,0.0,0.0,0.0,0.0,0.0,0.0,-0.11,0.14,0.95,6.17,17.2,57.9,0.0,0.0,0.5,0.0,0.0,0.25,0.0,1.5,0.0,0.0,0.0,0.0,0.75,0.02,0.14,0.95,42.85,7.0,-34.2
1.18,0.0,0.0,0.0,0.5,0.0,0.0,0.0,0.0,0.0,0.0,0.0,0.0,0.0,-0.11,0.14,0.95,7.54,17.2,57.9,0.0,0.0,0.5,0.0,0.0,0.25,0.0,1.5,0.0,0.0,0.0,0.0,0.75,0.08,0.14,0.95,45.19,7.0,-34.2
1.2,0.0,0.0,0.0,0.0,0.0,0.0,0.0,0.0,0.0,0.0,0.0,0.0,0.0,-0.11,0.14,0.95,5.68,0.0,0.0,0.0,0.0,0.5,0.0,0.0,0.0,0.0,1.25,0.0,0.0,0.0,0.0,1.0,0.02,0.14,0.95,45.56,5.5,-46.6
1.22,0.0,0.0,0.0,0.0,0.0,0.0,0.0,0.0,0.0,0.0,0.0,0.0,0.0,-0.11,0.14,0.95,3.3,0.0,0.0,0.0,0.0,0.5,0.0,0.0,0.25,0.0,1.5,0.0,0.0,0.0,0.0,0.75,0.02,0.14,0.95,46.72,7.0,-34.2
1.24,0.0,0.0,0.0,0.25,0.0,0.0,0.0,0.0,0.0,0.0,0.0,0.0,0.0,-0.11,0.14,0.95,2.76,17.2,57.9,0.0,0.0,0.5,0.0,0.0,0.0,0.0,1.25,0.0,0.0,0.0,0.0,0.75,0.08,0.14,0.95,44.55,4.6,-40.1
1.26,0.0,0.0,0.0,0.25,0.0,0.0,0.0,0.0,0.0,0.0,0.0,0.0,0.0,-0.11,0.14,0.95,2.88,17.2,57.9,0.0,0.0,0.5,0.0,0.0,0.0,0.0,1.75,0.0,0.0,0.0,0.0,0.5,0.02,0.14,0.95,44.13,6.0,-33.4
1.28,0.0,0.0,0.0,0.5,0.0,0.0,0.0,0.0,0.0,0.0,0.0,0.0,0.0,-0.11,0.14,0.95,5.54,17.2,57.9,0.0,0.0,0.5,0.0,0.0,0.0,0.0,1.5,0.0,0.0,0.0,0.0,0.75,0.02,0.14,0.95,43.86,5.7,-40.0
1.3,0.0,0.0,0.0,0.25,0.0,0.0,0.0,0.0,0.0,0.0,0.0,0.0,0.0,-0.11,0.14,0.95,5.84,17.2,57.9,0.0,0.0,0.5,0.0,0.0,0.0,0.0,1.5,0.0,0.0,0.0,0.0,1.0,0.02,0.14,0.95,46.03,6.4,-45.9
1.32,0.0,0.0,0.0,0.25,0.0,0.0,0.0,0.0,0.0,0.0,0.0,0.0,0.0,-0.11,0.14,0.95,5.98,17.2,57.9,0.0,0.0,0.5,0.0,0.0,0.0,0.0,1.25,0.0,0.0,0.0,0.0,0.75,0.08,0.14,0.95,44.33,4.6,-40.1
1.34,0.0,0.0,0.0,0.5,0.0,0.0,0.0,0.0,0.0,0.0,0.0,0.0,0.0,-0.11,0.14,0.95,6.78,17.2,57.9,0.0,0.0,0.5,0.0,0.0,0.0,0.0,1.5,0.0,0.0,0.0,0.0,1.0,0.02,0.14,0.95,45.72,6.4,-45.9
1.36,0.0,0.0,0.0,0.25,0.0,0.0,0.0,0.0,0.0,0.0,0.0,0.0,0.0,-0.11,0.14,0.95,6.31,17.2,57.9,0.0,0.0,0.5,0.0,0.0,0.5,0.0,1.5,0.0,0.0,0.0,0.0,0.75,0.08,0.14,0.95,47.31,8.2,-29.3
1.38,0.0,0.0,0.0,0.25,0.0,0.0,0.0,0.0,0.0,0.0,0.0,0.0,0.0,-0.11,0.14,0.95,5.89,17.2,57.9,0.0,0.0,1.0,0.0,0.0,0.0,0.0,1.25,0.0,0.0,0.0,0.0,0.75,0.08,0.14,0.95,47.67,-2.5,-23.1
1.4,0.0,0.0,0.0,0.25,0.0,0.0,0.0,0.0,0.0,0.0,0.0,0.0,0.0,-0.11,0.14,0.95,5.19,17.2,57.9,0.0,0.0,0.5,0.0,0.0,0.0,0.0,1.5,0.0,0.0,0.0,0.0,0.75,0.02,0.14,0.95,46.67,5.7,-40.0
1.42,0.0,0.0,0.0,0.25,0.0,0.0,0.0,0.0,0.0,0.0,0.0,0.0,0.0,-0.11,0.14,0.95,5.17,17.2,57.9,0.0,0.0,0.5,0.0,0.0,0.5,0.0,1.25,0.0,0.0,0.0,0.0,0.75,0.02,0.14,0.95,46.51,7.5,-28.5
1.44,0.0,0.0,0.0,0.5,0.0,0.0,0.0,0.0,0.0,0.0,0.0,0.0,0.0,-0.11,0.14,0.95,6.73,17.2,57.9,0.0,0.0,0.5,0.0,0.0,0.0,0.0,1.0,0.0,0.0,0.0,0.0,0.75,0.02,0.14,0.95,42.76,3.3,-40.3
1.46,0.0,0.0,0.0,0.5,0.0,0.0,0.0,0.0,0.0,0.0,0.0,0.0,0.0,-0.11,0.14,0.95,7.96,17.2,57.9,0.0,0.0,0.5,0.0,0.0,0.0,0.0,1.5,0.0,0.0,0.0,0.0,0.75,0.08,0.14,0.95,42.25,5.7,-40.0
1.48,0.0,0.0,0.0,0.5,0.0,0.0,0.0,0.0,0.0,0.0,0.0,0.0,0.0,-0.11,0.14,0.95,9.03,17.2,57.9,0.0,0.0,0.5,0.0,0.0,0.25,0.0,1.0,0.0,0.0,0.0,0.0,0.75,0.02,0.14,0.95,40.51,5.1,-33.3
1.5,0.0,0.0,0.0,0.25,0.0,0.0,0.0,0.0,0.0,0.0,0.0,0.0,0.0,-0.11,0.14,0.95,7.96,17.2,57.9,0.0,0.0,0.5,0.0,0.0,0.0,0.0,1.5,0.0,0.0,0.0,0.0,0.75,0.08,0.14,0.95,41.31,5.7,-40.0
1.52,0.0,0.0,0.0,0.25,0.0,0.0,0.0,0.0,0.0,0.0,0.0,0.0,0.0,-0.11,0.14,0.95,6.71,17.2,57.9,0.0,0.0,0.5,0.0,0.0,0.5,0.0,1.5,0.0,0.0,0.0,0.0,0.75,0.08,0.14,0.95,43.66,8.2,-29.3
1.54,0.0,0.0,0.0,0.0,0.0,0.0,0.0,0.0,0.0,0.0,0.0,0.0,0.0,-0.11,0.14,0.95,3.91,0.0,0.0,0.0,0.0,0.5,0.0,0.0,0.5,0.0,1.5,0.0,0.0,0.25,0.0,0.75,0.02,0.14,0.95,48.09,6.9,-32.5
1.56,0.0,0.0,0.0,0.5,0.0,0.0,0.0,0.0,0.0,0.0,0.0,0.0,0.0,-0.11,0.14,0.95,4.91,17.2,57.9,0.0,0.0,1.0,0.0,0.0,0.0,0.0,1.5,0.0,0.0,0.0,0.0,0.75,0.08,0.14,0.95,50.46,-1.1,-24.3
1.58,0.0,0.0,0.0,0.5,0.0,0.0,0.0,0.0,0.0,0.0,0.0,0.0,0.0,-0.11,0.14,0.95,6.15,17.2,57.9,0.0,0.0,0.5,0.0,0.0,0.0,0.0,1.0,0.0,0.0,0.0,0.0,1.25,0.02,0.14,0.95,49.78,5.2,-53.1
1.6,0.0,0.0,0.0,0.5,0.0,0.0,0.0,0.0,0.0,0.0,0.0,0.0,0.0,-0.11,0.14,0.95,8.43,17.2,57.9,0.0,0.0,0.5,0.0,0.0,0.0,0.0,1.5,0.0,0.0,0.0,0.0,0.5,0.02,0.14,0.95,46.35,4.9,-32.9
1.62,0.0,0.0,0.0,0.25,0.0,0.0,0.0,0.0,0.0,0.0,0.0,0.0,0.0,-0.11,0.14,0.95,7.71,17.2,57.9,0.0,0.0,0.5,0.0,0.0,0.0,0.0,1.25,0.0,0.0,0.0,0.0,0.75,0.08,0.14,0.95,43.34,4.6,-40.1
1.64,0.0,0.0,0.0,0.5,0.0,0.0,0.0,0.0,0.0,0.0,0.0,0.0,0.0,-0.11,0.14,0.95,8.33,17.2,57.9,0.0,0.0,0.5,0.0,0.0,0.0,0.0,1.5,0.0,0.0,0.0,0.0,0.75,0.08,0.14,0.95,42.38,5.7,-40.0
1.66,0.0,0.0,0.0,0.25,0.0,0.0,0.0,0.0,0.0,0.0,0.0,0.0,0.0,-0.11,0.14,0.95,6.68,17.2,57.9,0.0,0.0,0.5,0.0,0.0,0.0,0.0,1.25,0.0,0.0,0.0,0.0,0.75,0.08,0.14,0.95,41.33,4.6,-40.1
1.68,0.0,0.0,0.0,0.25,0.0,0.0,0.0,0.0,0.0,0.0,0.0,0.0,0.0,-0.11,0.14,0.95,5.73,17.2,57.9,0.0,0.0,0.5,0.0,0.0,0.0,0.0,1.5,0.0,0.0,0.5,0.0,0.75,0.02,0.14,0.95,45.22,3.3,-45.3
1.7,0.0,0.0,0.0,0.5,0.0,0.0,0.0,0.0,0.0,0.0,0.0,0.0,0.0,-0.11,0.14,0.95,6.59,17.2,57.9,0.0,0.0,0.5,0.0,0.0,0.0,0.0,1.5,0.0,0.0,0.0,0.0,0.5,0.02,0.14,0.95,43.43,4.9,-32.9
1.72,0.0,0.0,0.0,0.25,0.0,0.0,0.0,0.0,0.0,0.0,0.0,0.0,0.0,-0.11,0.14,0.95,6.31,17.2,57.9,0.0,0.0,0.5,0.0,0.0,0.0,0.0,1.0,0.0,0.0,0.0,0.0,1.25,0.08,0.14,0.95,44.6,5.2,-53.1
1.74,0.0,0.0,0.0,0.25,0.0,0.0,0.0,0.0,0.0,0.0,0.0,0.0,0.0,-0.11,0.14,0.95,6.03,17.2,57.9,0.0,0.0,0.5,0.0,0.0,0.0,0.0,1.5,0.0,0.0,0.0,0.0,0.75,0.02,0.14,0.95,43.19,5.7,-40.0
1.76,0.0,0.0,0.0,0.25,0.0,0.0,0.0,0.0,0.0,0.0,0.0,0.0,0.0,-0.11,0.14,0.95,5.19,17.2,57.9,0.0,0.0,0.5,0.0,0.0,0.0,0.0,1.25,0.0,0.0,0.0,0.0,0.25,0.08,0.14,0.95,38.95,2.3,-22.4
1.78,0.0,0.0,0.0,0.25,0.0,0.0,0.0,0.0,0.0,0.0,0.0,0.0,0.0,-0.11,0.14,0.95,4.75,17.2,57.9,0.0,0.0,0.5,0.0,0.0,0.25,0.0,1.0,0.0,0.0,0.0,0.0,0.75,0.02,0.14,0.95,37.34,5.1,-33.3
1.8,0.0,0.0,0.0,0.5,0.0,0.0,0.0,0.0,0.0,0.0,0.0,0.0,0.0,-0.11,0.14,0.95,5.52,17.2,57.9,0.0,0.0,0.5,0.0,0.0,0.0,0.0,1.5,0.0,0.0,0.0,0.0,0.75,0.02,0.14,0.95,38.6,5.7,-40.0
1.82,0.0,0.0,0.0,0.5,0.0,0.0,0.0,0.0,0.0,0.0,0.0,0.0,0.0,-0.11,0.14,0.95,7.17,17.2,57.9,0.0,0.0,0.5,0.0,0.0,0.25,0.0,1.25,0.0,0.0,0.0,0.0,0.75,0.08,0.14,0.95,40.68,6.2,-33.8
1.84,0.0,0.0,0.0,0.0,0.0,0.0,0.0,0.0,0.0,0.0,0.0,0.0,0.0,-0.11,0.14,0.95,5.49,0.0,0.0,0.0,0.0,0.5,0.0,0.0,0.0,0.0,1.5,0.0,0.0,0.0,0.0,0.75,0.02,0.14,0.95,42.44,5.7,-40.0
1.86,0.0,0.0,0.0,0.5,0.0,0.0,0.0,0.0,0.25,0.0,0.0,0.0,0.0,-0.11,0.14,0.95,7.88,15.5,27.0,0.0,0.0,0.5,0.0,0.0,0.25,0.0,1.5,0.0,0.0,0.0,0.0,0.5,0.02,0.14,0.95,42.93,6.4,-27.2
1.88,0.0,0.0,0.0,0.25,0.0,0.0,0.0,0.0,0.0,0.0,0.0,0.0,0.0,-0.11,0.14,0.95,6.64,17.2,57.9,0.0,0.0,0.5,0.0,0.0,0.0,0.0,1.25,0.0,0.0,0.0,0.0,0.75,0.02,0.14,0.95,41.87,4.6,-40.1
1.9,0.0,0.0,0.0,0.5,0.0,0.0,0.0,0.0,0.0,0.0,0.0,0.0,0.0,-0.11,0.14,0.95,8.29,17.2,57.9,0.0,0.0,0.5,0.0,0.0,0.0,0.0,1.25,0.0,0.0,0.0,0.0,0.75,0.08,0.14,0.95,40.73,4.6,-40.1
1.92,0.0,0.0,0.0,0.25,0.0,0.0,0.0,0.0,0.0,0.0,0.0,0.0,0.0,-0.11,0.14,0.95,6.87,17.2,57.9,0.0,0.0,0.5,0.0,0.0,0.25,0.0,1.5,0.0,0.0,0.0,0.0,1.0,0.08,0.14,0.95,43.91,7.6,-40.2
1.94,0.0,0.0,0.0,0.5,0.0,0.0,0.0,0.0,0.0,0.0,0.0,0.0,0.0,-0.11,0.14,0.95,8.06,17.2,57.9,0.0,0.0,0.5,0.0,0.0,0.0,0.0,1.25,0.0,0.0,0.0,0.0,1.0,0.02,0.14,0.95,45.59,5.5,-46.6
1.96,0.0,0.0,0.0,0.5,0.0,0.0,0.0,0.0,0.0,0.0,0.0,0.0,0.0,-0.11,0.14,0.95,8.43,17.2,57.9,0.0,0.0,0.5,0.0,0.0,0.0,0.0,1.5,0.0,0.0,0.0,0.0,0.75,0.02,0.14,0.95,46.25,5.7,-40.0
1.98,0.0,0.0,0.0,0.5,0.0,0.0,0.0,0.0,0.0,0.0,0.0,0.0,0.0,-0.11,0.14,0.95,9.33,17.2,57.9,0.0,0.0,0.5,0.0,0.0,0.5,0.0,1.5,0.0,0.0,0.0,0.0,0.75,0.08,0.14,0.95,47.97,8.2,-29.3
2.0,0.0,0.0,0.0,0.0,0.0,0.0,0.0,0.0,0.25,0.0,0.0,0.0,0.0,-0.11,0.14,0.95,7.81,12.1,-38.5,0.0,0.0,0.5,0.0,0.0,0.0,0.0,1.5,0.0,0.0,0.0,0.0,0.5,0.02,0.14,0.95,45.94,4.9,-32.9
2.02,0.0,0.0,0.0,0.0,0.0,0.0,0.0,0.0,0.25,0.0,0.0,0.0,0.0,-0.11,0.14,0.95,6.2,12.1,-38.5,0.0,0.0,0.5,0.0,0.0,0.0,0.0,1.75,0.0,0.0,0.0,0.0,0.75,0.08,0.14,0.95,45.96,6.6,-39.9
2.04,0.0,0.0,0.0,0.25,0.0,0.0,0.0,0.0,0.25,0.0,0.0,0.0,0.0,-0.11,0.14,0.95,6.02,14.7,11.1,0.0,0.0,0.5,0.0,0.0,0.0,0.0,1.5,0.0,0.0,0.0,0.0,0.75,0.02,0.14,0.95,44.86,5.7,-40.0
2.06,0.0,0.0,0.0,0.25,0.0,0.0,0.0,0.0,0.0,0.0,0.0,0.0,0.0,-0.11,0.14,0.95,5.45,17.2,57.9,0.0,0.0,0.5,0.0,0.0,0.0,0.0,1.25,0.0,0.0,0.0,0.0,0.75,0.08,0.14,0.95,43.85,4.6,-40.1
2.08,0.0,0.0,0.0,0.25,0.0,0.0,0.0,0.0,0.0,0.0,0.0,0.0,0.0,-0.11,0.14,0.95,5.36,17.2,57.9,0.0,0.0,0.5,0.0,0.0,0.25,0.0,1.0,0.0,0.0,0.0,0.0,0.5,0.08,0.14,0.95,39.97,4.2,-24.6
2.1,0.0,0.0,0.0,0.25,0.0,0.0,0.0,0.0,0.0,0.0,0.0,0.0,0.0,-0.11,0.14,0.95,4.4,17.2,57.9,0.0,0.0,0.5,0.0,0.0,0.0,0.0,1.25,0.0,0.0,0.0,0.0,0.75,0.08,0.14,0.95,39.02,4.6,-40.1
2.12,0.0,0.0,0.0,0.5,0.0,0.0,0.0,0.0,0.0,0.0,0.0,0.0,0.0,-0.11,0.14,0.95,6.13,17.2,57.9,0.0,0.0,0.5,0.0,0.0,0.0,0.0,1.0,0.0,0.0,0.0,0.0,0.75,0.08,0.14,0.95,36.81,3.3,-40.3
2.14,0.0,0.0,0.0,0.25,0.0,0.0,0.0,0.0,0.0,0.0,0.0,0.0,0.0,-0.11,0.14,0.95,5.49,17.2,57.9,0.0,0.0,0.5,0.0,0.0,0.0,0.0,1.25,0.0,0.0,0.0,0.0,0.5,0.02,0.14,0.95,35.35,3.6,-32.3
2.16,0.0,0.0,0.0,0.25,0.0,0.0,0.0,0.0,0.0,0.0,0.0,0.0,0.0,-0.11,0.14,0.95,5.53,17.2,57.9,0.0,0.0,0.5,0.0,0.0,0.0,0.0,1.5,0.0,0.0,0.0,0.0,0.5,0.08,0.14,0.95,35.37,4.9,-32.9
2.18,0.0,0.0,0.0,0.5,0.0,0.0,0.0,0.0,0.0,0.0,0.0,0.0,0.0,-0.11,0.14,0.95,6.35,17.2,57.9,0.0,0.0,0.5,0.0,0.0,0.0,0.0,1.5,0.0,0.0,0.0,0.0,1.0,0.08,0.14,0.95,39.87,6.4,-45.9
2.2,0.0,0.0,0.0,0.25,0.0,0.0,0.0,0.0,0.0,0.0,0.0,0.0,0.0,-0.11,0.14,0.95,6.01,17.2,57.9,0.0,0.0,0.5,0.0,0.0,0.0,0.0,1.25,0.0,0.0,0.0,0.0,0.75,0.02,0.14,0.95,40.69,4.6,-40.1
2.22,0.0,0.0,0.0,0.25,0.0,0.0,0.0,0.0,0.25,0.0,0.0,0.0,0.0,-0.11,0.14,0.95,7.06,14.7,11.1,0.0,0.0,0.5,0.0,0.0,0.0,0.0,1.25,0.0,0.0,0.0,0.0,0.75,0.02,0.14,0.95,41.28,4.6,-40.1
2.24,0.0,0.0,0.0,0.25,0.0,0.0,0.0,0.0,0.0,0.0,0.0,0.0,0.0,-0.11,0.14,0.95,6.52,17.2,57.9,0.0,0.0,0.5,0.0,0.0,0.25,0.0,1.5,0.0,0.0,0.0,0.0,0.75,0.08,0.14,0.95,43.35,7.0,-34.2
2.26,0.0,0.0,0.0,0.5,0.0,0.0,0.0,0.0,0.0,0.0,0.0,0.0,0.0,-0.11,0.14,0.95,7.64,17.2,57.9,0.0,0.0,0.5,0.0,0.0,0.0,0.0,1.5,0.0,0.0,0.0,0.0,0.75,0.08,0.14,0.95,43.83,5.7,-40.0
2.28,0.0,0.0,0.0,0.5,0.0,0.0,0.0,0.0,0.0,0.0,0.0,0.0,0.0,-0.11,0.14,0.95,8.07,17.2,57.9,0.0,0.0,0.5,0.0,0.0,0.0,0.0,1.25,0.0,0.0,0.0,0.0,0.75,0.08,0.14,0.95,43.48,4.6,-40.1
2.3,0.0,0.0,0.0,0.5,0.0,0.0,0.0,0.0,0.0,0.0,0.0,0.0,0.0,-0.11,0.14,0.95,9.36,17.2,57.9,0.0,0.0,0.5,0.0,0.0,0.0,0.0,1.5,0.0,0.0,0.0,0.0,1.0,0.08,0.14,0.95,45.79,6.4,-45.9
2.32,0.0,0.25,0.0,0.25,0.0,0.0,0.0,0.0,0.25,0.0,0.0,0.0,0.0,-0.11,0.14,0.95,11.11,14.0,40.6,0.0,0.0,0.5,0.0,0.0,0.0,0.0,1.5,0.0,0.0,0.0,0.0,0.5,0.08,0.14,0.95,44.34,4.9,-32.9
2.34,0.0,0.0,0.0,0.25,0.0,0.0,0.0,0.0,0.25,0.0,0.0,0.0,0.0,-0.11,0.14,0.95,10.9,14.7,11.1,0.0,0.0,0.5,0.0,0.0,0.0,0.0,1.5,0.0,0.0,0.0,0.0,0.75,0.08,0.14,0.95,44.3,5.7,-40.0
2.36,0.0,0.0,0.0,0.25,0.0,0.0,0.0,0.0,0.0,0.0,0.0,0.0,0.0,-0.11,0.14,0.95,9.11,17.2,57.9,0.0,0.0,0.5,0.0,0.0,0.0,0.0,1.5,0.0,0.0,0.0,0.0,0.75,0.08,0.14,0.95,44.01,5.7,-40.0
2.38,0.0,0.0,0.0,0.25,0.0,0.0,0.0,0.0,0.0,0.0,0.0,0.0,0.0,-0.11,0.14,0.95,7.18,17.2,57.9,0.0,0.0,0.5,0.0,0.0,0.0,0.0,1.5,0.0,0.0,0.0,0.0,0.75,0.02,0.14,0.95,44.39,5.7,-40.0
2.4,0.0,0.0,0.0,0.25,0.0,0.0,0.0,0.0,0.0,0.0,0.0,0.0,0.0,-0.11,0.14,0.95,5.54,17.2,57.9,0.0,0.0,0.5,0.0,0.0,0.0,0.0,1.0,0.0,0.0,0.25,0.0,0.75,0.08,0.14,0.95,42.65,1.9,-43.7
2.42,0.0,0.0,0.0,0.5,0.0,0.0,0.0,0.0,0.0,0.0,0.0,0.0,0.0,-0.11,0.14,0.95,6.07,17.2,57.9,0.0,0.0,0.5,0.0,0.0,0.0,0.0,1.25,0.0,0.0,0.0,0.0,1.0,0.08,0.14,0.95,43.12,5.5,-46.6
2.44,0.0,0.0,0.0,0.25,0.0,0.0,0.0,0.0,0.0,0.0,0.0,0.0,0.0,-0.11,0.14,0.95,5.77,17.2,57.9,0.0,0.0,0.5,0.0,0.0,0.0,0.0,1.5,0.0,0.0,0.0,0.0,0.75,0.08,0.14,0.95,43.6,5.7,-40.0
2.46,0.0,0.0,0.0,0.25,0.0,0.0,0.0,0.0,0.0,0.0,0.0,0.0,0.0,-0.11,0.14,0.95,5.43,17.2,57.9,0.0,0.0,0.5,0.0,0.0,0.0,0.0,1.5,0.0,0.0,0.0,0.0,0.75,0.02,0.14,0.95,43.84,5.7,-40.0
2.48,0.0,0.0,0.0,0.25,0.0,0.0,0.0,0.0,0.0,0.0,0.0,0.0,0.0,-0.11,0.14,0.95,4.65,17.2,57.9,0.0,0.0,0.5,0.0,0.0,0.25,0.0,1.25,0.0,0.0,0.0,0.0,0.75,0.02,0.14,0.95,43.46,6.2,-33.8
2.5,0.0,0.0,0.0,0.0,0.0,0.0,0.0,0.0,0.0,0.0,0.0,0.0,0.0,-0.11,0.14,0.95,2.36,0.0,0.0,0.0,0.0,0.5,0.0,0.0,0.5,0.0,1.5,0.0,0.0,0.0,0.0,0.75,0.02,0.14,0.95,45.92,8.2,-29.3
2.52,0.0,0.0,0.0,0.25,0.0,0.0,0.0,0.0,0.0,0.0,0.0,0.0,0.0,-0.11,0.14,0.95,2.19,17.2,57.9,0.0,0.0,0.5,0.0,0.0,0.25,0.0,1.5,0.0,0.0,0.0,0.0,0.75,0.08,0.14,0.95,46.77,7.0,-34.2
2.54,0.0,0.0,0.0,0.5,0.0,0.0,0.0,0.0,0.0,0.0,0.0,0.0,0.0,-0.11,0.14,0.95,4.05,17.2,57.9,0.0,0.0,0.5,0.0,0.0,0.0,0.0,1.0,0.0,0.0,0.0,0.0,0.5,0.08,0.14,0.95,42.13,2.0,-31.5
2.56,0.0,0.0,0.0,0.25,0.0,0.0,0.0,0.0,0.0,0.0,0.0,0.0,0.0,-0.11,0.14,0.95,4.79,17.2,57.9,0.0,0.0,0.75,0.0,0.0,0.0,0.0,1.5,0.0,0.0,0.0,0.0,0.75,0.08,0.14,0.95,42.98,2.0,-31.5
2.58,0.0,0.0,0.0,0.25,0.0,0.0,0.0,0.0,0.0,0.0,0.0,0.0,0.0,-0.11,0.14,0.95,5.41,17.2,57.9,0.0,0.0,0.5,0.0,0.0,0.0,0.0,1.5,0.0,0.0,0.0,0.0,0.5,0.08,0.14,0.95,40.49,4.9,-32.9
2.6,0.0,0.0,0.0,0.25,0.0,0.0,0.0,0.0,0.0,0.0,0.0,0.0,0.0,-0.11,0.14,0.95,5.24,17.2,57.9,0.0,0.0,0.5,0.0,0.0,0.0,0.0,1.5,0.0,0.0,0.0,0.0,0.75,0.08,0.14,0.95,41.78,5.7,-40.0
2.62,0.0,0.0,0.0,0.5,0.0,0.0,0.0,0.0,0.0,0.0,0.0,0.0,0.0,-0.11,0.14,0.95,6.47,17.2,57.9,0.0,0.0,0.5,0.0,0.0,0.0,0.0,1.25,0.0,0.0,0.0,0.0,0.5,0.02,0.14,0.95,39.2,3.6,-32.3
2.64,0.0,0.0,0.0,0.25,0.0,0.0,0.0,0.0,0.25,0.0,0.0,0.0,0.0,-0.11,0.14,0.95,7.27,14.7,11.1,0.0,0.0,0.5,0.0,0.0,0.0,0.0,1.5,0.0,0.0,0.0,0.0,0.75,0.08,0.14,0.95,40.9,5.7,-40.0
2.66,0.0,0.0,0.0,0.25,0.0,0.0,0.0,0.0,0.25,0.0,0.0,0.0,0.0,-0.11,0.14,0.95,8.42,14.7,11.1,0.0,0.0,0.5,0.0,0.0,0.0,0.0,1.5,0.0,0.0,0.0,0.0,1.0,0.02,0.14,0.95,42.58,6.4,-45.9
2.68,0.0,0.0,0.0,0.25,0.0,0.0,0.0,0.0,0.0,0.0,0.0,0.0,0.0,-0.11,0.14,0.95,7.86,17.2,57.9,0.0,0.0,1.0,0.0,0.0,0.0,0.0,1.5,0.0,0.0,0.0,0.0,0.75,0.08,0.14,0.95,46.28,-1.1,-24.3
2.7,0.0,0.0,0.0,0.25,0.0,0.0,0.0,0.0,0.0,0.0,0.0,0.0,0.0,-0.11,0.14,0.95,6.81,17.2,57.9,0.0,0.0,0.5,0.0,0.0,0.0,0.0,1.25,0.0,0.0,0.0,0.0,0.75,0.08,0.14,0.95,45.47,4.6,-40.1
2.72,0.0,0.0,0.0,0.5,0.0,0.0,0.0,0.0,0.0,0.0,0.0,0.0,0.0,-0.11,0.14,0.95,7.25,17.2,57.9,0.0,0.0,0.5,0.0,0.0,0.0,0.0,1.5,0.0,0.0,0.0,0.0,0.5,0.08,0.14,0.95,43.68,4.9,-32.9
2.74,0.0,0.0,0.0,0.25,0.0,0.0,0.0,0.0,0.0,0.0,0.0,0.0,0.0,-0.11,0.14,0.95,6.57,17.2,57.9,0.0,0.0,0.5,0.0,0.0,0.0,0.0,1.5,0.0,0.0,0.0,0.0,0.75,0.02,0.14,0.95,42.63,5.7,-40.0
2.76,0.0,0.0,0.0,0.25,0.0,0.0,0.0,0.0,0.25,0.0,0.0,0.0,0.0,-0.11,0.14,0.95,7.16,14.7,11.1,0.0,0.0,0.5,0.0,0.0,0.0,0.0,1.5,0.0,0.0,0.0,0.0,0.5,0.08,0.14,0.95,41.29,4.9,-32.9
2.78,0.0,0.0,0.0,0.5,0.0,0.0,0.0,0.0,0.0,0.0,0.0,0.0,0.0,-0.11,0.14,0.95,7.85,17.2,57.9,0.0,0.0,0.5,0.0,0.0,0.0,0.0,1.5,0.0,0.0,0.0,0.0,0.5,0.08,0.14,0.95,40.76,4.9,-32.9
2.8,0.0,0.0,0.0,0.5,0.0,0.0,0.0,0.0,0.0,0.0,0.0,0.0,0.0,-0.11,0.14,0.95,9.08,17.2,57.9,0.0,0.0,0.5,0.0,0.0,0.0,0.0,1.5,0.0,0.0,0.0,0.0,0.5,0.02,0.14,0.95,39.33,4.9,-32.9
2.82,0.0,0.0,0.0,0.25,0.0,0.0,0.0,0.0,0.0,0.0,0.0,0.0,0.0,-0.11,0.14,0.95,7.78,17.2,57.9,0.0,0.0,0.5,0.0,0.0,0.25,0.0,1.5,0.0,0.0,0.0,0.0,0.5,0.02,0.14,0.95,40.2,6.4,-27.2
2.84,0.0,0.0,0.0,0.5,0.0,0.0,0.0,0.0,0.0,0.0,0.0,0.0,0.0,-0.11,0.14,0.95,8.19,17.2,57.9,0.0,0.0,1.25,0.0,0.0,0.25,0.0,1.5,0.0,0.0,0.0,0.0,0.5,0.08,0.14,0.95,45.05,-3.2,-7.9
2.86,0.0,0.0,0.0,0.5,0.0,0.0,0.0,0.0,0.0,0.0,0.0,0.0,0.0,-0.11,0.14,0.95,8.25,17.2,57.9,0.0,0.0,0.5,0.0,0.0,0.0,0.0,2.0,0.0,0.0,0.0,0.0,0.5,0.08,0.14,0.95,47.3,6.9,-33.9
2.88,0.0,0.0,0.0,0.25,0.0,0.0,0.0,0.0,0.0,0.0,0.0,0.0,0.0,-0.11,0.14,0.95,7.43,17.2,57.9,0.0,0.0,0.5,0.0,0.0,0.0,0.0,1.5,0.0,0.0,0.0,0.0,0.5,0.08,0.14,0.95,45.79,4.9,-32.9
2.9,0.0,0.0,0.0,0.25,0.0,0.0,0.0,0.0,0.0,0.0,0.0,0.0,0.0,-0.11,0.14,0.95,6.41,17.2,57.9,0.0,0.0,0.5,0.0,0.0,0.0,0.0,1.5,0.0,0.0,0.0,0.0,0.5,0.08,0.14,0.95,42.94,4.9,-32.9
2.92,0.0,0.0,0.0,0.5,0.0,0.0,0.0,0.0,0.0,0.0,0.0,0.0,0.0,-0.11,0.14,0.95,7.1,17.2,57.9,0.0,0.0,0.5,0.0,0.0,0.0,0.0,1.5,0.0,0.0,0.0,0.0,0.5,0.02,0.14,0.95,40.76,4.9,-32.9
2.94,0.0,0.0,0.0,0.25,0.0,0.0,0.0,0.0,0.0,0.0,0.0,0.0,0.0,-0.11,0.14,0.95,6.1,17.2,57.9,0.0,0.0,0.5,0.0,0.0,0.25,0.0,1.5,0.0,0.0,0.0,0.0,1.0,0.08,0.14,0.95,43.92,7.6,-40.2
2.96,0.0,0.0,0.0,0.25,0.0,0.0,0.0,0.0,0.25,0.0,0.0,0.0,0.0,-0.11,0.14,0.95,6.73,14.7,11.1,0.0,0.0,0.5,0.0,0.0,0.0,0.0,1.5,0.0,0.0,0.0,0.0,0.5,0.08,0.14,0.95,43.04,4.9,-32.9
2.98,0.0,0.0,0.0,0.25,0.0,0.0,0.0,0.0,0.25,0.0,0.0,0.0,0.0,-0.11,0.14,0.95,7.39,14.7,11.1,0.0,0.0,0.5,0.0,0.0,0.0,0.0,1.5,0.0,0.0,0.0,0.0,0.75,0.08,0.14,0.95,44.28,5.7,-40.0
3.0,0.0,0.0,0.0,0.5,0.0,0.0,0.0,0.0,0.0,0.0,0.0,0.0,0.0,-0.11,0.14,0.95,8.26,17.2,57.9,0.25,0.0,0.5,0.0,0.0,0.0,0.0,1.5,0.0,0.0,0.0,0.0,0.5,0.08,0.14,0.95,43.37,1.5,-21.8
3.02,0.0,0.0,0.0,0.5,0.0,0.0,0.0,0.0,0.0,0.0,0.0,0.0,0.0,-0.11,0.14,0.95,8.76,17.2,57.9,0.0,0.0,0.5,0.0,0.0,0.0,0.0,1.5,0.0,0.0,0.0,0.0,0.5,0.02,0.14,0.95,41.9,4.9,-32.9
3.04,0.0,0.0,0.0,0.5,0.0,0.0,0.0,0.0,0.0,0.0,0.0,0.0,0.0,-0.11,0.14,0.95,9.45,17.2,57.9,0.0,0.0,0.5,0.0,0.0,0.0,0.0,1.5,0.0,0.0,0.0,0.0,0.5,0.08,0.14,0.95,39.91,4.9,-32.9
3.06,0.0,0.0,0.0,0.25,0.0,0.0,0.0,0.0,0.0,0.0,0.0,0.0,0.0,-0.11,0.14,0.95,8.15,17.2,57.9,0.0,0.0,0.5,0.0,0.0,0.25,0.0,2.0,0.0,0.0,0.0,0.0,0.75,0.08,0.14,0.95,44.17,8.4,-34.9
3.08,0.0,0.0,0.0,0.25,0.0,0.0,0.0,0.0,0.0,0.0,0.0,0.0,0.0,-0.11,0.14,0.95,6.52,17.2,57.9,0.0,0.0,0.75,0.0,0.0,0.0,0.0,1.5,0.0,0.0,0.0,0.0,0.5,0.02,0.14,0.95,44.32,0.9,-24.2
3.1,0.0,0.0,0.0,0.25,0.0,0.0,0.0,0.0,0.0,0.0,0.0,0.0,0.0,-0.11,0.14,0.95,5.31,17.2,57.9,0.0,0.0,0.5,0.0,0.0,0.0,0.0,1.25,0.0,0.0,0.0,0.0,0.5,0.08,0.14,0.95,42.91,3.6,-32.3
3.12,0.0,0.0,0.0,0.25,0.0,0.0,0.0,0.0,0.0,0.0,0.0,0.0,0.0,-0.11,0.14,0.95,4.77,17.2,57.9,0.0,0.0,0.5,0.0,0.0,0.0,0.0,1.25,0.0,0.0,0.0,0.0,0.75,0.02,0.14,0.95,41.27,4.6,-40.1
3.14,0.0,0.0,0.0,0.5,0.0,0.0,0.0,0.0,0.0,0.0,0.0,0.0,0.0,-0.11,0.14,0.95,5.89,17.2,57.9,0.0,0.0,1.0,0.0,0.0,0.25,0.0,1.5,0.0,0.0,0.0,0.0,0.75,0.02,0.14,0.95,44.71,0.4,-20.4
3.16,0.0,0.0,0.0,0.25,0.0,0.0,0.0,0.0,0.0,0.0,0.0,0.0,0.0,-0.11,0.14,0.95,5.56,17.2,57.9,0.0,0.0,0.5,0.0,0.0,0.0,0.0,1.25,0.0,0.0,0.0,0.0,0.5,0.08,0.14,0.95,41.91,3.6,-32.3
3.18,0.0,0.0,0.0,0.5,0.0,0.0,0.0,0.0,0.0,0.0,0.0,0.0,0.0,-0.11,0.14,0.95,7.14,17.2,57.9,0.0,0.0,0.5,0.0,0.0,0.0,0.0,1.5,0.0,0.0,0.0,0.0,0.75,0.02,0.14,0.95,42.98,5.7,-40.0
3.2,0.0,0.0,0.0,0.25,0.0,0.0,0.0,0.0,0.0,0.0,0.0,0.0,0.0,-0.11,0.14,0.95,6.06,17.2,57.9,0.0,0.0,1.5,0.0,0.0,0.0,0.0,1.25,0.0,0.0,0.0,0.0,0.5,0.02,0.14,0.95,46.14,-9.4,-3.2
3.22,0.0,0.0,0.0,0.25,0.0,0.0,0.0,0.0,0.0,0.0,0.0,0.0,0.0,-0.11,0.14,0.95,5.64,17.2,57.9,0.0,0.0,0.5,0.0,0.0,0.0,0.0,1.25,0.0,0.0,0.0,0.0,0.5,0.08,0.14,0.95,43.36,3.6,-32.3
3.24,0.0,0.0,0.0,0.5,0.0,0.0,0.0,0.0,0.0,0.0,0.0,0.0,0.0,-0.11,0.14,0.95,6.31,17.2,57.9,0.0,0.0,0.5,0.0,0.0,0.0,0.0,1.0,0.0,0.0,0.0,0.0,1.25,0.08,0.14,0.95,43.9,5.2,-53.1
3.26,0.0,0.0,0.0,0.25,0.0,0.0,0.0,0.0,0.0,0.0,0.0,0.0,0.0,-0.11,0.14,0.95,6.03,17.2,57.9,0.0,0.0,0.5,0.0,0.0,0.0,0.0,1.25,0.0,0.0,0.0,0.0,0.5,0.02,0.14,0.95,40.55,3.6,-32.3
3.28,0.0,0.0,0.0,0.25,0.0,0.0,0.0,0.0,0.0,0.0,0.0,0.0,0.0,-0.11,0.14,0.95,5.8,17.2,57.9,0.0,0.0,0.5,0.0,0.0,0.0,0.0,1.25,0.0,0.0,0.0,0.0,0.5,0.08,0.14,0.95,38.21,3.6,-32.3
3.3,0.0,0.0,0.0,0.5,0.0,0.0,0.0,0.0,0.0,0.0,0.0,0.0,0.0,-0.11,0.14,0.95,6.92,17.2,57.9,0.0,0.0,0.5,0.0,0.0,0.0,0.0,1.5,0.0,0.0,0.0,0.0,0.75,0.08,0.14,0.95,37.93,5.7,-40.0
3.32,0.0,0.0,0.0,0.5,0.0,0.0,0.0,0.0,0.0,0.0,0.0,0.0,0.0,-0.11,0.14,0.95,8.03,17.2,57.9,0.0,0.0,0.5,0.0,0.0,0.0,0.0,1.25,0.0,0.0,0.0,0.0,0.75,0.02,0.14,0.95,39.44,4.6,-40.1
3.34,0.0,0.0,0.0,0.25,0.0,0.0,0.0,0.0,0.0,0.0,0.0,0.0,0.0,-0.11,0.14,0.95,7.31,17.2,57.9,0.0,0.0,1.0,0.0,0.0,0.0,0.0,1.25,0.0,0.0,0.0,0.0,0.5,0.08,0.14,0.95,41.18,-4.0,-15.1
3.36,0.0,0.0,0.0,0.25,0.0,0.0,0.0,0.0,0.0,0.0,0.0,0.0,0.0,-0.11,0.14,0.95,6.4,17.2,57.9,0.0,0.0,0.5,0.0,0.0,0.0,0.0,1.5,0.0,0.0,0.0,0.0,0.5,0.08,0.14,0.95,40.25,4.9,-32.9
3.38,0.0,0.0,0.0,0.25,0.0,0.0,0.0,0.0,0.0,0.0,0.0,0.0,0.0,-0.11,0.14,0.95,5.26,17.2,57.9,0.0,0.0,0.5,0.0,0.0,0.0,0.0,1.5,0.0,0.0,0.0,0.0,0.5,0.08,0.14,0.95,39.78,4.9,-32.9
3.4,0.0,0.0,0.0,0.5,0.0,0.0,0.0,0.0,0.0,0.0,0.0,0.0,0.0,-0.11,0.14,0.95,6.33,17.2,57.9,0.0,0.0,0.75,0.0,0.0,0.0,0.0,1.5,0.0,0.0,0.0,0.0,0.5,0.02,0.14,0.95,40.6,0.9,-24.2
3.42,0.0,0.0,0.0,0.5,0.0,0.0,0.0,0.0,0.0,0.0,0.0,0.0,0.0,-0.11,0.14,0.95,7.4,17.2,57.9,0.0,0.0,1.25,0.0,0.0,0.0,0.0,1.5,0.0,0.0,0.0,0.0,0.5,0.08,0.14,0.95,44.07,-5.1,-10.9
3.44,0.0,0.0,0.0,0.25,0.0,0.0,0.0,0.0,0.0,0.0,0.0,0.0,0.0,-0.11,0.14,0.95,7.4,17.2,57.9,0.0,0.0,0.5,0.0,0.0,0.0,0.0,1.5,0.0,0.0,0.0,0.0,0.5,0.02,0.14,0.95,43.6,4.9,-32.9
3.46,0.0,0.0,0.0,0.5,0.0,0.0,0.0,0.0,0.0,0.0,0.0,0.0,0.0,-0.11,0.14,0.95,8.08,17.2,57.9,0.0,0.0,0.5,0.0,0.0,0.5,0.0,1.5,0.0,0.0,0.0,0.0,0.25,0.08,0.14,0.95,44.74,7.2,-14.2
3.48,0.0,0.0,0.0,0.25,0.0,0.0,0.0,0.0,0.0,0.0,0.0,0.0,0.0,-0.11,0.14,0.95,6.73,17.2,57.9,0.0,0.0,0.5,0.0,0.0,0.0,0.0,1.5,0.0,0.0,0.0,0.0,0.5,0.08,0.14,0.95,42.28,4.9,-32.9
3.5,0.0,0.0,0.0,0.25,0.0,0.0,0.0,0.0,0.0,0.0,0.0,0.0,0.0,-0.11,0.14,0.95,6.1,17.2,57.9,0.0,0.0,0.5,0.0,0.0,0.0,0.0,1.5,0.0,0.0,0.0,0.0,0.5,0.08,0.14,0.95,41.34,4.9,-32.9
3.52,0.0,0.0,0.0,0.25,0.0,0.0,0.0,0.0,0.0,0.0,0.0,0.0,0.0,-0.11,0.14,0.95,4.96,17.2,57.9,0.0,0.0,0.5,0.0,0.0,0.0,0.0,1.5,0.0,0.0,0.0,0.0,0.5,0.02,0.14,0.95,39.6,4.9,-32.9
3.54,0.0,0.0,0.0,0.25,0.0,0.0,0.0,0.0,0.0,0.0,0.0,0.0,0.0,-0.11,0.14,0.95,4.52,17.2,57.9,0.0,0.0,0.5,0.0,0.0,0.0,0.0,1.25,0.0,0.0,0.0,0.0,0.5,0.08,0.14,0.95,37.66,3.6,-32.3
3.56,0.0,0.0,0.0,0.25,0.0,0.0,0.0,0.0,0.0,0.0,0.0,0.0,0.0,-0.11,0.14,0.95,4.31,17.2,57.9,0.0,0.0,0.5,0.0,0.0,0.0,0.0,1.5,0.0,0.0,0.0,0.0,0.5,0.08,0.14,0.95,37.66,4.9,-32.9
3.58,0.0,0.0,0.0,0.5,0.0,0.0,0.0,0.0,0.0,0.0,0.0,0.0,0.0,-0.11,0.14,0.95,6.08,17.2,57.9,0.0,0.0,0.5,0.0,0.0,0.25,0.0,1.5,0.0,0.0,0.0,0.0,0.5,0.08,0.14,0.95,38.51,6.4,-27.2
3.6,0.0,0.0,0.0,0.25,0.0,0.0,0.0,0.0,0.0,0.0,0.0,0.0,0.0,-0.11,0.14,0.95,5.87,17.2,57.9,0.0,0.0,0.5,0.0,0.0,0.0,0.0,1.5,0.0,0.0,0.0,0.0,0.5,0.08,0.14,0.95,39.11,4.9,-32.9
3.62,0.0,0.0,0.0,0.25,0.0,0.0,0.0,0.0,0.0,0.0,0.0,0.0,0.0,-0.11,0.14,0.95,5.56,17.2,57.9,0.0,0.0,0.5,0.0,0.0,0.0,0.0,1.25,0.0,0.0,0.0,0.0,0.5,0.02,0.14,0.95,37.75,3.6,-32.3
3.64,0.0,0.0,0.0,0.25,0.0,0.0,0.0,0.0,0.0,0.0,0.0,0.0,0.0,-0.11,0.14,0.95,4.73,17.2,57.9,0.0,0.0,0.5,0.0,0.0,0.0,0.0,1.75,0.0,0.0,0.0,0.0,0.5,0.02,0.14,0.95,38.85,6.0,-33.4
3.66,0.0,0.0,0.0,0.25,0.0,0.0,0.0,0.0,0.0,0.0,0.0,0.0,0.0,-0.11,0.14,0.95,4.56,17.2,57.9,0.0,0.0,0.5,0.0,0.0,0.0,0.0,1.5,0.0,0.0,0.0,0.0,0.5,0.08,0.14,0.95,38.68,4.9,-32.9
3.68,0.0,0.0,0.0,0.25,0.0,0.0,0.0,0.0,0.0,0.0,0.0,0.0,0.0,-0.11,0.14,0.95,4.45,17.2,57.9,0.0,0.0,0.5,0.0,0.0,0.0,0.0,1.5,0.0,0.0,0.0,0.0,0.5,0.08,0.14,0.95,39.65,4.9,-32.9
3.7,0.0,0.0,0.0,0.25,0.0,0.0,0.0,0.0,0.0,0.0,0.0,0.0,0.0,-0.11,0.14,0.95,4.4,17.2,57.9,0.0,0.0,0.5,0.0,0.0,0.0,0.0,1.5,0.0,0.0,0.0,0.0,0.5,0.08,0.14,0.95,39.4,4.9,-32.9
3.72,0.0,0.0,0.0,0.25,0.0,0.0,0.0,0.0,0.25,0.0,0.0,0.0,0.0,-0.11,0.14,0.95,5.99,14.7,11.1,0.0,0.0,0.5,0.0,0.0,0.0,0.0,1.5,0.0,0.0,0.0,0.0,0.5,0.02,0.14,0.95,39.65,4.9,-32.9
3.74,0.0,0.0,0.0,0.25,0.0,0.0,0.0,0.0,0.0,0.0,0.0,0.0,0.0,-0.11,0.14,0.95,5.8,17.2,57.9,0.0,0.0,0.5,0.0,0.0,0.0,0.0,1.5,0.0,0.0,0.0,0.0,0.5,0.02,0.14,0.95,39.34,4.9,-32.9
3.76,0.0,0.0,0.0,0.25,0.0,0.0,0.0,0.0,0.0,0.0,0.0,0.0,0.0,-0.11,0.14,0.95,5.66,17.2,57.9,0.0,0.0,0.5,0.0,0.0,0.0,0.0,1.5,0.0,0.0,0.0,0.0,0.5,0.08,0.14,0.95,39.35,4.9,-32.9
3.78,0.0,0.0,0.0,0.5,0.25,0.0,0.0,0.0,0.0,0.0,0.0,0.0,0.0,-0.11,0.14,0.95,8.47,9.9,56.3,0.0,0.0,0.5,0.0,0.0,0.0,0.0,1.5,0.0,0.0,0.0,0.0,0.5,0.08,0.14,0.95,39.44,4.9,-32.9
3.8,0.0,0.0,0.0,0.5,0.0,0.0,0.0,0.0,0.0,0.0,0.0,0.0,0.0,-0.11,0.14,0.95,9.53,17.2,57.9,0.0,0.0,0.5,0.0,0.0,0.0,0.0,1.5,0.0,0.0,0.0,0.0,0.75,0.08,0.14,0.95,40.8,5.7,-40.0
3.82,0.0,0.0,0.0,0.25,0.0,0.0,0.0,0.0,0.0,0.0,0.0,0.0,0.0,-0.11,0.14,0.95,8.84,17.2,57.9,0.0,0.0,0.5,0.0,0.0,0.0,0.0,1.5,0.0,0.0,0.0,0.0,0.5,0.08,0.14,0.95,40.66,4.9,-32.9
3.84,0.0,0.0,0.0,0.25,0.0,0.0,0.0,0.0,0.0,0.0,0.0,0.0,0.0,-0.11,0.14,0.95,7.54,17.2,57.9,0.0,0.0,0.5,0.0,0.0,0.25,0.0,1.5,0.0,0.0,0.0,0.0,0.5,0.08,0.14,0.95,41.73,6.4,-27.2
3.86,0.0,0.0,0.0,0.5,0.0,0.0,0.0,0.0,0.0,0.0,0.0,0.0,0.0,-0.11,0.14,0.95,7.74,17.2,57.9,0.0,0.0,0.5,0.0,0.0,0.0,0.0,1.5,0.0,0.0,0.0,0.0,0.5,0.08,0.14,0.95,40.94,4.9,-32.9
3.88,0.0,0.0,0.0,0.5,0.0,0.0,0.0,0.0,0.0,0.0,0.0,0.0,0.0,-0.11,0.14,0.95,8.1,17.2,57.9,0.0,0.0,0.5,0.0,0.0,0.0,0.0,1.5,0.0,0.0,0.0,0.0,0.5,0.02,0.14,0.95,40.24,4.9,-32.9
3.9,0.0,0.0,0.0,0.5,0.0,0.0,0.0,0.0,0.0,0.0,0.0,0.0,0.0,-0.11,0.14,0.95,9.11,17.2,57.9,0.0,0.0,0.5,0.0,0.0,0.0,0.0,1.5,0.0,0.0,0.0,0.0,0.5,0.08,0.14,0.95,39.68,4.9,-32.9
3.92,0.0,0.0,0.0,0.25,0.0,0.0,0.0,0.0,0.0,0.0,0.0,0.0,0.0,-0.11,0.14,0.95,8.14,17.2,57.9,0.0,0.0,0.5,0.0,0.0,0.0,0.0,1.25,0.0,0.0,0.0,0.0,0.5,0.08,0.14,0.95,38.12,3.6,-32.3
3.94,0.0,0.0,0.0,0.0,0.0,0.0,0.0,0.0,0.0,0.0,0.0,0.0,0.0,-0.11,0.14,0.95,5.11,0.0,0.0,0.0,0.0,0.5,0.0,0.0,0.0,0.0,1.5,0.0,0.0,0.0,0.0,0.5,0.08,0.14,0.95,37.99,4.9,-32.9
3.96,0.0,0.0,0.0,0.5,0.0,0.0,0.0,0.0,0.25,0.0,0.0,0.0,0.0,-0.11,0.14,0.95,6.54,15.5,27.0,0.0,0.0,0.5,0.0,0.0,0.0,0.0,1.5,0.0,0.0,0.25,0.0,0.5,0.08,0.14,0.95,39.44,3.5,-36.6
3.98,0.0,0.0,0.0,0.25,0.0,0.0,0.0,0.0,0.0,0.0,0.0,0.0,0.0,-0.11,0.14,0.95,5.83,17.2,57.9,0.0,0.0,0.5,0.0,0.0,0.0,0.0,1.5,0.0,0.0,0.0,0.0,0.5,0.08,0.14,0.95,39.86,4.9,-32.9
4.0,0.0,0.0,0.0,0.25,0.0,0.0,0.0,0.0,0.0,0.0,0.0,0.0,0.0,-0.11,0.14,0.95,5.83,17.2,57.9,0.0,0.0,0.5,0.0,0.0,0.0,0.0,1.5,0.0,0.0,0.0,0.0,0.75,0.08,0.14,0.95,41.61,5.7,-40.0
4.02,0.0,0.0,0.0,0.25,0.0,0.0,0.0,0.0,0.0,0.0,0.0,0.0,0.0,-0.11,0.14,0.95,4.68,17.2,57.9,0.0,0.0,0.5,0.0,0.0,0.0,0.0,1.5,0.0,0.0,0.0,0.0,0.5,0.08,0.14,0.95,41.08,4.9,-32.9
4.04,0.0,0.0,0.0,0.25,0.0,0.0,0.0,0.0,0.0,0.0,0.0,0.0,0.0,-0.11,0.14,0.95,4.8,17.2,57.9,0.0,0.0,0.5,0.0,0.0,0.0,0.0,1.5,0.0,0.0,0.0,0.0,0.75,0.02,0.14,0.95,42.24,5.7,-40.0
4.06,0.0,0.0,0.0,0.25,0.0,0.0,0.0,0.0,0.0,0.0,0.0,0.0,0.0,-0.11,0.14,0.95,4.26,17.2,57.9,0.0,0.0,0.5,0.0,0.0,0.5,0.0,1.5,0.0,0.0,0.0,0.0,0.5,0.02,0.14,0.95,43.73,7.7,-22.4
4.08,0.0,0.0,0.0,0.25,0.0,0.0,0.0,0.0,0.0,0.0,0.0,0.0,0.0,-0.11,0.14,0.95,4.12,17.2,57.9,0.0,0.0,0.5,0.0,0.0,0.0,0.0,1.5,0.0,0.0,0.0,0.0,0.5,0.02,0.14,0.95,43.14,4.9,-32.9
4.1,0.0,0.0,0.0,0.0,0.0,0.0,0.0,0.0,0.0,0.0,0.0,0.0,0.0,-0.11,0.14,0.95,2.44,0.0,0.0,0.0,0.0,0.5,0.0,0.0,0.5,0.0,1.5,0.0,0.0,0.0,0.0,0.5,0.02,0.14,0.95,44.48,7.7,-22.4
4.12,0.0,0.0,0.0,0.25,0.0,0.0,0.0,0.0,0.0,0.0,0.0,0.0,0.0,-0.11,0.14,0.95,2.62,17.2,57.9,0.0,0.0,0.75,0.0,0.0,0.5,0.0,1.5,0.0,0.0,0.0,0.0,0.75,0.02,0.14,0.95,47.94,4.8,-22.7
4.14,0.0,0.0,0.0,0.25,0.0,0.0,0.0,0.0,0.0,0.0,0.0,0.0,0.0,-0.11,0.14,0.95,2.93,17.2,57.9,0.0,0.0,0.5,0.0,0.0,0.0,0.0,1.5,0.0,0.0,0.0,0.0,0.5,0.08,0.14,0.95,46.55,4.9,-32.9
4.16,0.0,0.0,0.0,0.25,0.0,0.0,0.0,0.0,0.0,0.0,0.0,0.0,0.0,-0.11,0.14,0.95,3.87,17.2,57.9,0.0,0.0,0.5,0.0,0.0,0.0,0.0,1.5,0.0,0.0,0.0,0.0,0.5,0.08,0.14,0.95,44.58,4.9,-32.9
4.18,0.0,0.0,0.0,0.25,0.0,0.0,0.0,0.0,0.0,0.0,0.0,0.0,0.0,-0.11,0.14,0.95,4.19,17.2,57.9,0.0,0.0,0.25,0.0,0.0,0.0,0.0,1.5,0.0,0.0,0.0,0.0,0.5,0.08,0.14,0.95,40.58,9.8,-43.6
4.2,0.0,0.0,0.0,0.25,0.0,0.0,0.0,0.0,0.0,0.0,0.0,0.0,0.0,-0.11,0.14,0.95,4.17,17.2,57.9,0.0,0.0,0.5,0.0,0.0,0.0,0.0,1.5,0.0,0.0,0.0,0.0,0.5,0.08,0.14,0.95,38.87,4.9,-32.9
4.22,0.0,0.0,0.0,0.25,0.0,0.0,0.0,0.0,0.0,0.0,0.0,0.0,0.0,-0.11,0.14,0.95,4.68,17.2,57.9,0.0,0.0,0.5,0.0,0.0,0.0,0.0,1.5,0.0,0.0,0.0,0.0,0.5,0.08,0.14,0.95,37.87,4.9,-32.9
4.24,0.0,0.0,0.0,0.25,0.0,0.0,0.0,0.0,0.0,0.0,0.0,0.0,0.0,-0.11,0.14,0.95,4.68,17.2,57.9,0.0,0.0,0.5,0.0,0.0,0.25,0.0,1.5,0.0,0.0,0.0,0.0,0.5,0.02,0.14,0.95,39.15,6.4,-27.2
4.26,0.0,0.0,0.0,0.0,0.0,0.0,0.0,0.0,0.0,0.0,0.0,0.0,0.0,-0.11,0.14,0.95,3.14,0.0,0.0,0.0,0.0,0.5,0.0,0.0,0.0,0.0,1.5,0.0,0.0,0.0,0.0,0.5,0.02,0.14,0.95,39.33,4.9,-32.9
4.28,0.0,0.0,0.0,0.25,0.0,0.0,0.0,0.0,0.25,0.0,0.0,0.0,0.0,-0.11,0.14,0.95,4.62,14.7,11.1,0.0,0.0,0.5,0.0,0.0,0.0,0.0,1.5,0.0,0.0,0.0,0.0,0.5,0.02,0.14,0.95,39.0,4.9,-32.9
4.3,0.0,0.0,0.0,0.25,0.0,0.0,0.0,0.0,0.0,0.0,0.0,0.0,0.0,-0.11,0.14,0.95,4.69,17.2,57.9,0.0,0.0,0.5,0.0,0.0,0.0,0.0,1.5,0.0,0.0,0.0,0.0,0.5,0.02,0.14,0.95,38.57,4.9,-32.9
4.32,0.0,0.0,0.0,0.25,0.0,0.0,0.0,0.0,0.0,0.0,0.0,0.0,0.0,-0.11,0.14,0.95,5.34,17.2,57.9,0.0,0.0,0.5,0.0,0.0,0.0,0.0,1.5,0.0,0.0,0.0,0.0,0.5,0.02,0.14,0.95,38.54,4.9,-32.9
4.34,0.0,0.0,0.0,0.25,0.0,0.0,0.0,0.0,0.0,0.0,0.0,0.0,0.0,-0.11,0.14,0.95,5.17,17.2,57.9,0.0,0.0,0.5,0.0,0.0,0.25,0.0,1.5,0.0,0.0,0.0,0.0,0.5,0.02,0.14,0.95,39.19,6.4,-27.2
4.36,0.0,0.0,0.0,0.25,0.0,0.0,0.0,0.0,0.0,0.0,0.0,0.0,0.0,-0.11,0.14,0.95,4.96,17.2,57.9,0.0,0.0,0.5,0.0,0.0,0.25,0.0,1.5,0.0,0.0,0.0,0.0,0.5,0.08,0.14,0.95,40.42,6.4,-27.2
4.38,0.0,0.0,0.0,0.25,0.0,0.0,0.0,0.0,0.0,0.0,0.0,0.0,0.0,-0.11,0.14,0.95,4.68,17.2,57.9,0.0,0.0,0.5,0.0,0.0,0.0,0.0,1.25,0.0,0.0,0.0,0.0,1.0,0.08,0.14,0.95,43.15,5.5,-46.6
4.4,0.0,0.0,0.0,0.5,0.0,0.0,0.0,0.0,0.0,0.0,0.0,0.0,0.0,-0.11,0.14,0.95,6.31,17.2,57.9,0.0,0.0,0.5,0.0,0.0,0.0,0.0,1.5,0.0,0.0,0.0,0.0,0.5,0.02,0.14,0.95,42.47,4.9,-32.9
4.42,0.0,0.0,0.0,0.0,0.0,0.0,0.0,0.0,0.0,0.0,0.0,0.0,0.0,-0.11,0.14,0.95,4.66,0.0,0.0,0.0,0.0,0.5,0.0,0.0,0.0,0.0,1.5,0.0,0.0,0.0,0.0,0.5,0.08,0.14,0.95,41.68,4.9,-32.9
4.44,0.0,0.0,0.0,0.25,0.0,0.0,0.0,0.0,0.0,0.0,0.0,0.0,0.0,-0.11,0.14,0.95,4.63,17.2,57.9,0.0,0.0,0.5,0.0,0.0,0.0,0.0,1.5,0.0,0.0,0.0,0.0,0.5,0.08,0.14,0.95,40.2,4.9,-32.9
4.46,0.0,0.0,0.0,0.25,0.0,0.0,0.0,0.0,0.0,0.0,0.0,0.0,0.0,-0.11,0.14,0.95,4.05,17.2,57.9,0.0,0.0,0.5,0.0,0.0,0.0,0.0,1.5,0.0,0.0,0.0,0.0,0.5,0.08,0.14,0.95,39.53,4.9,-32.9
4.48,0.0,0.0,0.0,0.25,0.0,0.0,0.0,0.0,0.0,0.0,0.0,0.0,0.0,-0.11,0.14,0.95,4.41,17.2,57.9,0.0,0.0,0.5,0.0,0.0,0.0,0.0,1.5,0.0,0.0,0.0,0.0,0.5,0.08,0.14,0.95,39.07,4.9,-32.9
4.5,0.0,0.0,0.0,0.25,0.0,0.0,0.0,0.0,0.0,0.0,0.0,0.0,0.0,-0.11,0.14,0.95,4.42,17.2,57.9,0.0,0.0,0.5,0.0,0.0,0.0,0.0,1.5,0.0,0.0,0.0,0.0,0.5,0.02,0.14,0.95,39.19,4.9,-32.9
4.52,0.0,0.0,0.0,0.25,0.0,0.0,0.0,0.0,0.0,0.0,0.0,0.0,0.0,-0.11,0.14,0.95,4.45,17.2,57.9,0.0,0.0,0.5,0.0,0.0,0.0,0.0,1.5,0.0,0.0,0.0,0.0,0.5,0.08,0.14,0.95,39.1,4.9,-32.9
4.54,0.0,0.0,0.0,0.25,0.0,0.0,0.0,0.0,0.0,0.0,0.0,0.0,0.0,-0.11,0.14,0.95,4.68,17.2,57.9,0.0,0.0,0.5,0.0,0.0,0.0,0.0,1.5,0.0,0.0,0.0,0.0,0.5,0.02,0.14,0.95,38.93,4.9,-32.9
4.56,0.0,0.0,0.0,0.5,0.0,0.0,0.0,0.0,0.0,0.0,0.0,0.0,0.0,-0.11,0.14,0.95,6.22,17.2,57.9,0.0,0.0,0.5,0.0,0.0,0.0,0.0,1.5,0.0,0.0,0.0,0.0,0.5,0.02,0.14,0.95,38.82,4.9,-32.9
4.58,0.0,0.0,0.0,0.25,0.0,0.0,0.0,0.0,0.0,0.0,0.0,0.0,0.0,-0.11,0.14,0.95,6.15,17.2,57.9,0.0,0.0,0.5,0.0,0.0,0.0,0.0,1.5,0.0,0.0,0.0,0.0,0.5,0.02,0.14,0.95,38.7,4.9,-32.9
4.6,0.0,0.0,0.0,0.25,0.0,0.0,0.0,0.0,0.0,0.0,0.0,0.0,0.0,-0.11,0.14,0.95,6.03,17.2,57.9,0.0,0.0,0.5,0.0,0.0,0.0,0.0,1.25,0.0,0.0,0.0,0.0,0.5,0.08,0.14,0.95,37.44,3.6,-32.3
4.62,0.0,0.0,0.0,0.25,0.0,0.0,0.0,0.0,0.0,0.0,0.0,0.0,0.0,-0.11,0.14,0.95,5.33,17.2,57.9,0.0,0.0,0.5,0.0,0.0,0.0,0.0,1.5,0.0,0.0,0.0,0.0,0.5,0.02,0.14,0.95,37.65,4.9,-32.9
4.64,0.0,0.0,0.0,0.25,0.0,0.0,0.0,0.0,0.0,0.0,0.0,0.0,0.0,-0.11,0.14,0.95,4.98,17.2,57.9,0.0,0.0,0.5,0.0,0.0,0.0,0.0,1.5,0.0,0.0,0.0,0.0,0.5,0.08,0.14,0.95,38.09,4.9,-32.9
4.66,0.0,0.0,0.0,0.25,0.0,0.0,0.0,0.0,0.0,0.0,0.0,0.0,0.0,-0.11,0.14,0.95,4.96,17.2,57.9,0.0,0.0,0.5,0.0,0.0,0.0,0.0,1.5,0.0,0.0,0.0,0.0,0.5,0.02,0.14,0.95,38.67,4.9,-32.9
4.68,0.0,0.0,0.0,0.25,0.0,0.0,0.0,0.0,0.0,0.0,0.0,0.0,0.0,-0.11,0.14,0.95,4.68,17.2,57.9,0.0,0.0,0.5,0.0,0.0,0.0,0.0,1.5,0.0,0.0,0.0,0.0,0.5,0.02,0.14,0.95,38.96,4.9,-32.9
4.7,0.0,0.0,0.0,0.25,0.0,0.0,0.0,0.0,0.0,0.0,0.0,0.0,0.0,-0.11,0.14,0.95,4.68,17.2,57.9,0.0,0.0,0.5,0.0,0.0,0.0,0.0,1.5,0.0,0.0,0.0,0.0,0.5,0.08,0.14,0.95,39.25,4.9,-32.9
4.72,0.0,0.0,0.0,0.0,0.0,0.0,0.0,0.0,0.25,0.0,0.0,0.0,0.0,-0.11,0.14,0.95,4.34,12.1,-38.5,0.0,0.0,0.5,0.0,0.0,0.0,0.0,1.5,0.0,0.0,0.0,0.0,0.5,0.02,0.14,0.95,39.25,4.9,-32.9
4.74,0.0,0.0,0.0,0.25,0.0,0.0,0.0,0.0,0.0,0.0,0.0,0.0,0.0,-0.11,0.14,0.95,4.31,17.2,57.9,0.0,0.0,0.5,0.0,0.0,0.0,0.0,1.5,0.0,0.0,0.0,0.0,0.5,0.02,0.14,0.95,39.25,4.9,-32.9
4.76,0.0,0.0,0.0,0.5,0.0,0.0,0.0,0.0,0.0,0.0,0.0,0.0,0.0,-0.11,0.14,0.95,5.91,17.2,57.9,0.0,0.0,0.5,0.0,0.0,0.0,0.0,1.5,0.0,0.0,0.0,0.0,0.5,0.08,0.14,0.95,39.32,4.9,-32.9
4.78,0.0,0.0,0.0,0.25,0.0,0.0,0.0,0.0,0.0,0.0,0.0,0.0,0.0,-0.11,0.14,0.95,5.85,17.2,57.9,0.0,0.0,0.5,0.0,0.0,0.0,0.0,1.5,0.0,0.0,0.0,0.0,0.5,0.02,0.14,0.95,39.36,4.9,-32.9
4.8,0.0,0.0,0.0,0.25,0.0,0.0,0.0,0.0,0.0,0.0,0.0,0.0,0.0,-0.11,0.14,0.95,5.74,17.2,57.9,0.0,0.0,0.5,0.0,0.0,0.0,0.0,1.5,0.0,0.0,0.0,0.0,0.5,0.08,0.14,0.95,39.4,4.9,-32.9
4.82,0.0,0.0,0.0,0.25,0.0,0.0,0.0,0.0,0.0,0.0,0.0,0.0,0.0,-0.11,0.14,0.95,5.38,17.2,57.9,0.0,0.0,0.5,0.0,0.0,0.0,0.0,1.5,0.0,0.0,0.0,0.0,0.5,0.02,0.14,0.95,39.44,4.9,-32.9
4.84,0.0,0.0,0.0,0.25,0.0,0.0,0.0,0.0,0.0,0.0,0.0,0.0,0.0,-0.11,0.14,0.95,5.03,17.2,57.9,0.0,0.0,0.5,0.0,0.0,0.0,0.0,1.25,0.0,0.0,0.0,0.0,1.0,0.08,0.14,0.95,41.46,5.5,-46.6
4.86,0.0,0.0,0.0,0.25,0.0,0.0,0.0,0.0,0.0,0.0,0.0,0.0,0.0,-0.11,0.14,0.95,4.68,17.2,57.9,0.0,0.0,0.5,0.0,0.0,0.25,0.0,1.25,0.0,0.0,0.0,0.0,0.25,0.02,0.14,0.95,39.67,4.5,-16.5
4.88,0.0,0.0,0.0,0.0,0.0,0.0,0.0,0.0,0.0,0.0,0.0,0.0,0.0,-0.11,0.14,0.95,3.06,0.0,0.0,0.0,0.0,0.5,0.0,0.0,0.0,0.0,1.5,0.0,0.0,0.0,0.0,0.5,0.08,0.14,0.95,39.63,4.9,-32.9
4.9,0.0,0.0,0.0,0.5,0.0,0.0,0.0,0.0,0.0,0.0,0.0,0.0,0.0,-0.11,0.14,0.95,4.82,17.2,57.9,0.0,0.0,0.5,0.0,0.0,0.0,0.0,1.75,0.0,0.0,0.0,0.0,0.5,0.02,0.14,0.95,40.23,6.0,-33.4
4.92,0.0,0.0,0.0,0.25,0.0,0.0,0.0,0.0,0.25,0.0,0.0,0.0,0.0,-0.11,0.14,0.95,6.04,14.7,11.1,0.0,0.0,0.5,0.0,0.0,0.0,0.0,1.0,0.0,0.0,0.0,0.0,0.5,0.02,0.14,0.95,37.62,2.0,-31.5
4.94,0.0,0.0,0.0,0.25,0.0,0.0,0.0,0.0,0.0,0.0,0.0,0.0,0.0,-0.11,0.14,0.95,6.49,17.2,57.9,0.0,0.0,0.5,0.0,0.0,0.0,0.0,1.25,0.0,0.0,0.0,0.0,0.5,0.08,0.14,0.95,36.24,3.6,-32.3
4.96,0.0,0.0,0.0,0.25,0.0,0.0,0.0,0.0,0.0,0.0,0.0,0.0,0.0,-0.11,0.14,0.95,6.01,17.2,57.9,0.0,0.0,0.5,0.0,0.0,0.0,0.0,1.5,0.0,0.0,0.0,0.0,1.0,0.02,0.14,0.95,39.59,6.4,-45.9
4.98,0.0,0.0,0.0,0.25,0.0,0.0,0.0,0.0,0.0,0.0,0.0,0.0,0.0,-0.11,0.14,0.95,5.36,17.2,57.9,0.0,0.0,0.5,0.0,0.0,0.0,0.0,1.25,0.0,0.0,0.0,0.0,0.25,0.08,0.14,0.95,37.53,2.3,-22.4
5.0,0.0,0.0,0.0,0.25,0.0,0.0,0.0,0.0,0.0,0.0,0.0,0.0,0.0,-0.11,0.14,0.95,4.68,17.2,57.9,0.0,0.0,0.5,0.0,0.0,0.0,0.0,1.5,0.0,0.0,0.0,0.0,0.75,0.08,0.14,0.95,39.92,5.7,-40.0
5.02,0.0,0.0,0.0,0.25,0.0,0.0,0.0,0.0,0.0,0.0,0.0,0.0,0.0,-0.11,0.14,0.95,4.68,17.2,57.9,0.0,0.0,0.5,0.0,0.0,0.0,0.0,1.5,0.0,0.0,0.0,0.0,0.75,0.08,0.14,0.95,41.12,5.7,-40.0
5.04,0.0,0.0,0.0,0.0,0.0,0.0,0.0,0.0,0.25,0.0,0.0,0.0,0.0,-0.11,0.14,0.95,4.52,12.1,-38.5,0.0,0.0,0.75,0.0,0.0,0.0,0.0,0.75,0.0,0.0,0.0,0.0,0.5,0.02,0.14,0.95,39.0,-4.8,-18.9
5.06,0.0,0.0,0.0,0.25,0.0,0.0,0.0,0.0,0.0,0.0,0.0,0.0,0.0,-0.11,0.14,0.95,4.49,17.2,57.9,0.0,0.0,0.5,0.0,0.0,0.0,0.0,1.5,0.0,0.0,0.0,0.0,0.25,0.08,0.14,0.95,36.64,3.9,-24.2
5.08,0.0,0.0,0.0,0.25,0.0,0.0,0.0,0.0,0.0,0.0,0.0,0.0,0.0,-0.11,0.14,0.95,4.44,17.2,57.9,0.0,0.0,0.5,0.0,0.0,0.0,0.0,0.75,0.0,0.0,0.0,0.0,0.75,0.08,0.14,0.95,34.17,1.6,-40.5
5.1,0.0,0.0,0.0,0.5,0.0,0.0,0.0,0.0,0.0,0.0,0.0,0.0,0.0,-0.11,0.14,0.95,6.14,17.2,57.9,0.0,0.0,0.25,0.0,0.0,0.0,0.0,1.5,0.0,0.0,0.0,0.0,0.5,0.02,0.14,0.95,34.36,9.8,-43.6
5.12,0.0,0.0,0.0,0.25,0.0,0.0,0.0,0.0,0.0,0.0,0.0,0.0,0.0,-0.11,0.14,0.95,6.04,17.2,57.9,0.0,0.0,0.5,0.0,0.0,0.0,0.0,1.25,0.0,0.0,0.0,0.0,0.5,0.08,0.14,0.95,33.74,3.6,-32.3
5.14,0.0,0.0,0.0,0.25,0.0,0.0,0.0,0.0,0.0,0.0,0.0,0.0,0.0,-0.11,0.14,0.95,5.61,17.2,57.9,0.0,0.0,0.5,0.0,0.0,0.0,0.0,1.5,0.0,0.0,0.0,0.0,0.25,0.08,0.14,0.95,34.46,3.9,-24.2
5.16,0.0,0.0,0.0,0.25,0.0,0.0,0.0,0.0,0.0,0.0,0.0,0.0,0.0,-0.11,0.14,0.95,5.15,17.2,57.9,0.0,0.0,0.5,0.0,0.0,0.0,0.0,1.0,0.0,0.0,0.0,0.0,0.5,0.08,0.14,0.95,33.46,2.0,-31.5
5.18,0.0,0.0,0.0,0.25,0.0,0.0,0.0,0.0,0.0,0.0,0.0,0.0,0.0,-0.11,0.14,0.95,5.03,17.2,57.9,0.0,0.0,0.5,0.0,0.0,0.0,0.0,1.25,0.0,0.0,0.0,0.0,0.5,0.08,0.14,0.95,33.13,3.6,-32.3
5.2,0.0,0.0,0.0,0.25,0.0,0.0,0.0,0.0,0.25,0.0,0.0,0.0,0.0,-0.11,0.14,0.95,6.01,14.7,11.1,0.0,0.0,0.5,0.0,0.0,0.0,0.0,1.0,0.0,0.0,0.0,0.0,0.5,0.08,0.14,0.95,31.66,2.0,-31.5
5.22,0.0,0.0,0.0,0.25,0.0,0.0,0.0,0.0,0.0,0.0,0.0,0.0,0.0,-0.11,0.14,0.95,5.92,17.2,57.9,0.0,0.0,0.75,0.0,0.0,0.0,0.0,1.25,0.0,0.0,0.0,0.0,0.75,0.08,0.14,0.95,35.78,0.7,-30.8
5.24,0.0,0.0,0.0,0.5,0.0,0.0,0.0,0.0,0.0,0.0,0.0,0.0,0.0,-0.11,0.14,0.95,7.46,17.2,57.9,0.0,0.0,0.5,0.0,0.0,0.0,0.0,1.0,0.0,0.0,0.0,0.0,0.5,0.02,0.14,0.95,34.33,2.0,-31.5
5.26,0.0,0.0,0.0,0.5,0.0,0.0,0.0,0.0,0.0,0.0,0.0,0.0,0.0,-0.11,0.14,0.95,8.33,17.2,57.9,0.0,0.0,0.5,0.0,0.0,0.0,0.0,1.25,0.0,0.0,0.0,0.0,0.75,0.02,0.14,0.95,37.26,4.6,-40.1
5.28,0.0,0.0,0.0,0.25,0.0,0.0,0.0,0.0,0.0,0.0,0.0,0.0,0.0,-0.11,0.14,0.95,7.77,17.2,57.9,0.0,0.0,0.5,0.0,0.0,0.0,0.0,1.0,0.0,0.0,0.0,0.0,0.75,0.08,0.14,0.95,37.28,3.3,-40.3
5.3,0.0,0.0,0.0,0.5,0.0,0.0,0.0,0.0,0.0,0.0,0.0,0.0,0.0,-0.11,0.14,0.95,8.22,17.2,57.9,0.0,0.0,0.5,0.0,0.0,0.0,0.0,1.5,0.0,0.0,0.0,0.0,0.25,0.08,0.14,0.95,37.09,3.9,-24.2
5.32,0.0,0.0,0.0,0.25,0.0,0.0,0.0,0.0,0.0,0.0,0.0,0.0,0.0,-0.11,0.14,0.95,7.01,17.2,57.9,0.0,0.0,0.5,0.0,0.0,0.0,0.0,1.0,0.0,0.0,0.0,0.0,0.5,0.02,0.14,0.95,34.8,2.0,-31.5
5.34,0.0,0.0,0.0,0.25,0.0,0.0,0.0,0.0,0.0,0.0,0.0,0.0,0.0,-0.11,0.14,0.95,6.15,17.2,57.9,0.0,0.0,0.5,0.0,0.0,0.0,0.0,1.25,0.0,0.0,0.0,0.0,0.25,0.08,0.14,0.95,33.12,2.3,-22.4
5.36,0.0,0.0,0.0,0.25,0.5,0.0,0.0,0.0,0.0,0.0,0.0,0.0,0.0,-0.11,0.14,0.95,8.88,3.0,54.8,0.0,0.0,0.5,0.0,0.0,0.0,0.0,1.5,0.0,0.0,0.0,0.0,0.5,0.08,0.14,0.95,34.5,4.9,-32.9
5.38,0.0,0.0,0.0,0.25,0.0,0.0,0.0,0.0,0.0,0.0,0.0,0.0,0.0,-0.11,0.14,0.95,8.24,17.2,57.9,0.0,0.0,0.5,0.0,0.0,0.0,0.0,1.5,0.0,0.0,0.0,0.0,0.5,0.08,0.14,0.95,36.33,4.9,-32.9
5.4,0.0,0.0,0.0,0.25,0.0,0.0,0.0,0.0,0.0,0.0,0.0,0.0,0.0,-0.11,0.14,0.95,7.5,17.2,57.9,0.0,0.0,0.5,0.0,0.0,0.0,0.0,1.25,0.0,0.0,0.0,0.0,0.75,0.02,0.14,0.95,38.8,4.6,-40.1
5.42,0.0,0.0,0.0,0.25,0.0,0.0,0.0,0.0,0.0,0.0,0.0,0.0,0.0,-0.11,0.14,0.95,5.79,17.2,57.9,0.0,0.0,0.5,0.0,0.0,0.0,0.0,1.25,0.0,0.0,0.0,0.0,0.75,0.08,0.14,0.95,39.94,4.6,-40.1
5.44,0.0,0.0,0.0,0.5,0.0,0.0,0.0,0.0,0.0,0.0,0.0,0.0,0.0,-0.11,0.14,0.95,6.53,17.2,57.9,0.0,0.0,0.5,0.0,0.0,0.0,0.0,1.25,0.0,0.0,0.0,0.0,0.5,0.02,0.14,0.95,39.08,3.6,-32.3
5.46,0.0,0.0,0.0,0.25,0.0,0.0,0.0,0.0,0.0,0.0,0.0,0.0,0.0,-0.11,0.14,0.95,5.68,17.2,57.9,0.0,0.0,0.5,0.0,0.0,0.0,0.0,1.5,0.0,0.0,0.0,0.0,0.75,0.08,0.14,0.95,40.36,5.7,-40.0
5.48,0.0,0.0,0.0,0.5,0.0,0.0,0.0,0.0,0.0,0.0,0.0,0.0,0.0,-0.11,0.14,0.95,7.06,17.2,57.9,0.0,0.0,0.5,0.0,0.0,0.0,0.0,1.25,0.0,0.0,0.0,0.0,0.5,0.08,0.14,0.95,39.31,3.6,-32.3
5.5,0.0,0.0,0.0,0.5,0.0,0.0,0.0,0.0,0.0,0.0,0.0,0.0,0.0,-0.11,0.14,0.95,8.06,17.2,57.9,0.0,0.0,0.5,0.0,0.0,0.0,0.0,1.25,0.0,0.0,0.0,0.0,0.5,0.08,0.14,0.95,38.22,3.6,-32.3
5.52,0.0,0.0,0.0,0.25,0.0,0.0,0.0,0.0,0.0,0.0,0.0,0.0,0.0,-0.11,0.14,0.95,7.5,17.2,57.9,0.0,0.0,0.5,0.0,0.0,0.0,0.0,1.25,0.0,0.0,0.0,0.0,0.25,0.08,0.14,0.95,35.41,2.3,-22.4
5.54,0.0,0.0,0.0,0.5,0.0,0.0,0.0,0.0,0.0,0.0,0.0,0.0,0.0,-0.11,0.14,0.95,7.82,17.2,57.9,0.0,0.0,0.5,0.0,0.0,0.0,0.25,1.5,0.0,0.0,0.0,0.0,0.5,0.02,0.14,0.95,36.77,3.2,-30.2
5.56,0.0,0.0,0.0,0.5,0.0,0.0,0.0,0.0,0.0,0.0,0.0,0.0,0.0,-0.11,0.14,0.95,8.46,17.2,57.9,0.0,0.0,0.5,0.0,0.0,0.0,0.0,1.5,0.0,0.0,0.0,0.0,0.5,0.08,0.14,0.95,37.33,4.9,-32.9
5.58,0.0,0.0,0.0,0.25,0.0,0.0,0.0,0.0,0.0,0.0,0.0,0.0,0.0,-0.11,0.14,0.95,7.43,17.2,57.9,0.0,0.0,0.5,0.0,0.0,0.0,0.0,1.25,0.0,0.0,0.0,0.0,0.25,0.02,0.14,0.95,35.86,2.3,-22.4
5.6,0.0,0.0,0.0,0.25,0.0,0.0,0.0,0.0,0.0,0.0,0.0,0.0,0.0,-0.11,0.14,0.95,6.07,17.2,57.9,0.0,0.0,1.25,0.0,0.0,0.0,0.0,1.5,0.0,0.0,0.0,0.0,0.5,0.08,0.14,0.95,40.61,-5.1,-10.9
5.62,0.0,0.0,0.0,0.25,0.0,0.0,0.0,0.0,0.0,0.0,0.0,0.0,0.0,-0.11,0.14,0.95,5.59,17.2,57.9,0.0,0.0,0.5,0.0,0.0,0.0,0.0,1.25,0.0,0.0,0.0,0.0,0.5,0.08,0.14,0.95,39.57,3.6,-32.3
5.64,0.0,0.0,0.0,0.5,0.0,0.0,0.0,0.0,0.0,0.0,0.0,0.0,0.0,-0.11,0.14,0.95,6.38,17.2,57.9,0.0,0.0,0.5,0.0,0.0,0.0,0.0,1.25,0.0,0.0,0.0,0.0,0.5,0.08,0.14,0.95,39.13,3.6,-32.3
5.66,0.0,0.0,0.0,0.25,0.0,0.0,0.0,0.0,0.0,0.0,0.0,0.0,0.0,-0.11,0.14,0.95,5.73,17.2,57.9,0.0,0.0,0.5,0.0,0.0,0.0,0.0,1.0,0.0,0.0,0.0,0.0,0.75,0.02,0.14,0.95,37.19,3.3,-40.3
5.68,0.0,0.0,0.0,0.25,0.0,0.0,0.0,0.0,0.25,0.0,0.0,0.0,0.0,-0.11,0.14,0.95,6.78,14.7,11.1,0.0,0.0,1.25,0.0,0.0,0.0,0.0,1.5,0.0,0.0,0.0,0.0,0.5,0.02,0.14,0.95,42.2,-5.1,-10.9
5.7,0.0,0.0,0.0,0.25,0.0,0.0,0.0,0.0,0.0,0.0,0.0,0.0,0.0,-0.11,0.14,0.95,6.08,17.2,57.9,0.0,0.0,0.5,0.0,0.0,0.0,0.0,1.25,0.0,0.0,0.0,0.0,0.25,0.08,0.14,0.95,38.98,2.3,-22.4
5.72,0.0,0.0,0.0,0.25,0.0,0.0,0.0,0.0,0.0,0.0,0.0,0.0,0.0,-0.11,0.14,0.95,5.41,17.2,57.9,0.0,0.0,0.5,0.0,0.0,0.0,0.0,1.25,0.0,0.0,0.0,0.0,0.75,0.02,0.14,0.95,40.63,4.6,-40.1
5.74,0.0,0.0,0.0,0.5,0.0,0.0,0.0,0.0,0.0,0.0,0.0,0.0,0.0,-0.11,0.14,0.95,6.27,17.2,57.9,0.0,0.0,0.5,0.0,0.0,0.0,0.0,1.25,0.0,0.0,0.0,0.0,0.5,0.08,0.14,0.95,38.16,3.6,-32.3
5.76,0.0,0.0,0.0,0.25,0.0,0.0,0.0,0.0,0.0,0.0,0.0,0.0,0.0,-0.11,0.14,0.95,6.06,17.2,57.9,0.0,0.0,0.5,0.0,0.0,0.25,0.0,1.5,0.0,0.0,0.0,0.0,0.0,0.08,0.14,0.95,37.1,4.8,-8.3
5.78,0.0,0.0,0.0,0.25,0.0,0.0,0.0,0.0,0.0,0.0,0.0,0.0,0.0,-0.11,0.14,0.95,5.56,17.2,57.9,0.0,0.0,0.5,0.0,0.0,0.0,0.0,1.5,0.0,0.0,0.0,0.0,0.5,0.08,0.14,0.95,36.36,4.9,-32.9
5.8,0.0,0.0,0.0,0.25,0.0,0.0,0.0,0.0,0.0,0.0,0.0,0.0,0.0,-0.11,0.14,0.95,5.01,17.2,57.9,0.0,0.0,0.5,0.0,0.0,0.0,0.0,1.5,0.0,0.0,0.0,0.0,0.5,0.02,0.14,0.95,37.73,4.9,-32.9
5.82,0.0,0.0,0.0,0.25,0.0,0.0,0.0,0.0,0.0,0.0,0.0,0.0,0.0,-0.11,0.14,0.95,4.89,17.2,57.9,0.0,0.0,0.5,0.0,0.0,0.0,0.0,1.25,0.0,0.0,0.0,0.0,0.75,0.02,0.14,0.95,38.91,4.6,-40.1
5.84,0.0,0.0,0.0,0.25,0.0,0.0,0.0,0.0,0.0,0.0,0.0,0.0,0.0,-0.11,0.14,0.95,4.42,17.2,57.9,0.0,0.0,0.5,0.0,0.0,0.0,0.0,1.25,0.0,0.0,0.0,0.0,0.25,0.02,0.14,0.95,35.93,2.3,-22.4
5.86,0.0,0.0,0.0,0.25,0.0,0.0,0.0,0.0,0.0,0.0,0.0,0.0,0.0,-0.11,0.14,0.95,4.33,17.2,57.9,0.0,0.0,0.75,0.0,0.0,0.0,0.0,1.25,0.0,0.0,0.0,0.0,0.5,0.02,0.14,0.95,37.19,-0.6,-22.8
5.88,0.0,0.0,0.0,0.25,0.0,0.0,0.0,0.0,0.0,0.0,0.0,0.0,0.0,-0.11,0.14,0.95,4.25,17.2,57.9,0.0,0.0,0.5,0.0,0.0,0.0,0.0,1.5,0.0,0.0,0.0,0.0,0.5,0.02,0.14,0.95,37.03,4.9,-32.9
5.9,0.0,0.0,0.0,0.25,0.0,0.0,0.0,0.0,0.0,0.0,0.0,0.0,0.0,-0.11,0.14,0.95,4.4,17.2,57.9,0.0,0.0,0.25,0.0,0.0,0.0,0.0,1.25,0.0,0.0,0.0,0.0,0.5,0.02,0.14,0.95,35.62,8.9,-44.1
5.92,0.0,0.0,0.0,0.5,0.0,0.0,0.0,0.0,0.0,0.0,0.0,0.0,0.0,-0.11,0.14,0.95,5.95,17.2,57.9,0.0,0.0,0.5,0.0,0.0,0.0,0.0,1.25,0.0,0.0,0.0,0.0,0.25,0.02,0.14,0.95,33.44,2.3,-22.4
5.94,0.0,0.0,0.0,0.25,0.0,0.0,0.0,0.0,0.0,0.0,0.0,0.0,0.0,-0.11,0.14,0.95,6.01,17.2,57.9,0.0,0.0,0.5,0.0,0.0,0.0,0.0,1.25,0.0,0.0,0.0,0.0,1.0,0.08,0.14,0.95,37.31,5.5,-46.6
5.96,0.0,0.0,0.0,0.25,0.0,0.0,0.0,0.0,0.0,0.0,0.0,0.0,0.0,-0.11,0.14,0.95,5.84,17.2,57.9,0.0,0.0,0.5,0.0,0.0,0.0,0.0,1.5,0.0,0.0,0.0,0.0,0.75,0.02,0.14,0.95,39.65,5.7,-40.0
5.98,0.0,0.0,0.0,0.25,0.0,0.0,0.0,0.0,0.0,0.0,0.0,0.0,0.0,-0.11,0.14,0.95,5.1,17.2,57.9,0.0,0.0,0.5,0.0,0.0,0.0,0.0,1.25,0.0,0.0,0.0,0.0,0.5,0.08,0.14,0.95,39.85,3.6,-32.3
6.0,0.0,0.0,0.0,0.25,0.0,0.0,0.0,0.0,0.0,0.0,0.0,0.0,0.0,-0.11,0.14,0.95,5.03,17.2,57.9,0.0,0.0,0.5,0.0,0.0,0.25,0.0,1.25,0.0,0.0,0.0,0.0,0.5,0.08,0.14,0.95,39.77,5.4,-26.0
6.02,0.0,0.0,0.0,0.25,0.0,0.0,0.0,0.0,0.0,0.0,0.0,0.0,0.0,-0.11,0.14,0.95,4.68,17.2,57.9,0.0,0.0,0.5,0.0,0.0,0.0,0.0,1.5,0.0,0.0,0.0,0.0,0.75,0.08,0.14,0.95,40.86,5.7,-40.0
6.04,0.0,0.0,0.0,0.5,0.0,0.0,0.0,0.0,0.0,0.0,0.0,0.0,0.0,-0.11,0.14,0.95,6.31,17.2,57.9,0.0,0.0,0.75,0.0,0.0,0.0,0.0,1.25,0.0,0.0,0.0,0.0,0.5,0.08,0.14,0.95,40.55,-0.6,-22.8
6.06,0.0,0.0,0.0,0.25,0.0,0.0,0.0,0.0,0.0,0.0,0.0,0.0,0.0,-0.11,0.14,0.95,6.19,17.2,57.9,0.0,0.0,0.5,0.0,0.0,0.0,0.25,1.25,0.0,0.0,0.0,0.0,0.25,0.02,0.14,0.95,38.59,0.4,-19.6
6.08,0.0,0.0,0.0,0.25,0.0,0.0,0.0,0.0,0.0,0.0,0.0,0.0,0.0,-0.11,0.14,0.95,5.98,17.2,57.9,0.0,0.0,0.5,0.0,0.0,0.0,0.0,1.25,0.0,0.0,0.0,0.0,0.5,0.02,0.14,0.95,37.39,3.6,-32.3
6.1,0.0,0.0,0.0,0.5,0.0,0.0,0.0,0.0,0.0,0.0,0.0,0.0,0.0,-0.11,0.14,0.95,6.87,17.2,57.9,0.0,0.0,0.25,0.0,0.0,0.0,0.0,1.25,0.0,0.0,0.0,0.0,0.5,0.08,0.14,0.95,34.56,8.9,-44.1
6.12,0.0,0.0,0.0,0.25,0.0,0.0,0.0,0.0,0.0,0.0,0.0,0.0,0.0,-0.11,0.14,0.95,6.36,17.2,57.9,0.0,0.0,0.5,0.0,0.0,0.0,0.0,1.25,0.0,0.0,0.0,0.0,0.75,0.08,0.14,0.95,35.69,4.6,-40.1
6.14,0.0,0.0,0.0,0.5,0.0,0.0,0.0,0.0,0.0,0.0,0.0,0.0,0.0,-0.11,0.14,0.95,7.47,17.2,57.9,0.0,0.0,0.5,0.0,0.0,0.0,0.0,1.0,0.0,0.0,0.0,0.0,0.5,0.02,0.14,0.95,34.29,2.0,-31.5
6.16,0.0,0.0,0.0,0.25,0.0,0.0,0.0,0.0,0.0,0.0,0.0,0.0,0.0,-0.11,0.14,0.95,6.61,17.2,57.9,0.0,0.0,0.5,0.0,0.0,0.0,0.0,1.25,0.0,0.0,0.0,0.0,0.5,0.02,0.14,0.95,34.49,3.6,-32.3
6.18,0.0,0.0,0.0,0.25,0.0,0.0,0.0,0.0,0.0,0.0,0.0,0.0,0.0,-0.11,0.14,0.95,6.43,17.2,57.9,0.0,0.0,0.5,0.0,0.0,0.0,0.0,1.0,0.0,0.0,0.0,0.0,0.75,0.08,0.14,0.95,33.77,3.3,-40.3
6.2,0.0,0.0,0.0,0.5,0.0,0.0,0.0,0.0,0.0,0.0,0.0,0.0,0.0,-0.11,0.14,0.95,6.92,17.2,57.9,0.0,0.0,0.5,0.0,0.0,0.0,0.0,1.25,0.0,0.0,0.0,0.0,0.5,0.02,0.14,0.95,34.48,3.6,-32.3
6.22,0.0,0.0,0.0,0.25,0.0,0.0,0.0,0.0,0.0,0.0,0.0,0.0,0.0,-0.11,0.14,0.95,6.4,17.2,57.9,0.0,0.0,1.0,0.0,0.0,0.0,0.0,1.0,0.0,0.0,0.0,0.0,0.5,0.02,0.14,0.95,36.35,-6.1,-12.7
6.24,0.0,0.0,0.0,0.25,0.0,0.0,0.0,0.0,0.0,0.0,0.0,0.0,0.0,-0.11,0.14,0.95,5.89,17.2,57.9,0.0,0.0,0.5,0.0,0.0,0.0,0.0,1.25,0.0,0.0,0.0,0.0,0.0,0.08,0.14,0.95,33.66,0.7,-9.6
6.26,0.0,0.0,0.0,0.25,0.0,0.0,0.0,0.0,0.0,0.0,0.0,0.0,0.0,-0.11,0.14,0.95,5.05,17.2,57.9,0.0,0.0,0.5,0.0,0.0,0.0,0.0,1.25,0.0,0.0,0.0,0.0,0.75,0.08,0.14,0.95,35.48,4.6,-40.1
6.28,0.0,0.0,0.0,0.25,0.0,0.0,0.0,0.0,0.0,0.0,0.0,0.0,0.0,-0.11,0.14,0.95,4.61,17.2,57.9,0.0,0.0,0.5,0.0,0.0,0.0,0.0,1.25,0.0,0.0,0.0,0.0,0.5,0.02,0.14,0.95,35.26,3.6,-32.3
6.3,0.0,0.0,0.0,0.25,0.0,0.0,0.0,0.0,0.0,0.0,0.0,0.0,0.0,-0.11,0.14,0.95,4.4,17.2,57.9,0.0,0.0,0.5,0.0,0.0,0.0,0.25,1.25,0.0,0.0,0.0,0.0,0.5,0.02,0.14,0.95,36.74,1.8,-29.3
6.32,0.0,0.0,0.0,0.5,0.0,0.0,0.0,0.0,0.0,0.0,0.0,0.0,0.0,-0.11,0.14,0.95,5.94,17.2,57.9,0.0,0.0,0.5,0.0,0.0,0.0,0.0,1.25,0.0,0.0,0.0,0.0,0.5,0.08,0.14,0.95,36.11,3.6,-32.3
6.34,0.0,0.0,0.0,0.25,0.0,0.0,0.0,0.0,0.0,0.0,0.0,0.0,0.0,-0.11,0.14,0.95,5.73,17.2,57.9,0.0,0.0,0.5,0.0,0.0,0.0,0.0,1.25,0.0,0.0,0.0,0.0,0.5,0.02,0.14,0.95,36.27,3.6,-32.3
6.36,0.0,0.0,0.0,0.25,0.0,0.0,0.0,0.0,0.0,0.0,0.0,0.0,0.0,-0.11,0.14,0.95,5.75,17.2,57.9,0.0,0.0,0.5,0.0,0.0,0.0,0.0,1.25,0.0,0.0,0.0,0.0,0.5,0.02,0.14,0.95,35.49,3.6,-32.3
6.38,0.0,0.0,0.0,0.25,0.0,0.0,0.0,0.0,0.0,0.0,0.0,0.0,0.0,-0.11,0.14,0.95,4.96,17.2,57.9,0.0,0.0,0.5,0.0,0.0,0.0,0.0,0.25,0.0,0.0,0.0,0.0,0.75,0.02,0.14,0.95,31.85,-3.2,-41.0
6.4,0.0,0.0,0.0,0.25,0.0,0.0,0.0,0.0,0.0,0.0,0.0,0.0,0.0,-0.11,0.14,0.95,4.84,17.2,57.9,0.0,0.0,0.5,0.0,0.0,0.0,0.0,1.0,0.0,0.0,0.0,0.0,0.75,0.02,0.14,0.95,32.18,3.3,-40.3
6.42,0.0,0.0,0.0,0.25,0.0,0.0,0.0,0.0,0.25,0.0,0.0,0.0,0.0,-0.11,0.14,0.95,5.76,14.7,11.1,0.0,0.0,0.5,0.0,0.0,0.0,0.0,1.25,0.0,0.0,0.0,0.0,0.25,0.02,0.14,0.95,30.91,2.3,-22.4
6.44,0.0,0.0,0.0,0.25,0.0,0.0,0.0,0.0,0.0,0.0,0.0,0.0,0.0,-0.11,0.14,0.95,5.62,17.2,57.9,0.0,0.0,0.5,0.0,0.0,0.0,0.0,1.25,0.0,0.0,0.0,0.0,0.5,0.02,0.14,0.95,32.64,3.6,-32.3
6.46,0.0,0.0,0.0,0.25,0.0,0.0,0.0,0.0,0.0,0.0,0.0,0.0,0.0,-0.11,0.14,0.95,5.8,17.2,57.9,0.0,0.0,0.75,0.0,0.0,0.0,0.0,1.5,0.0,0.0,0.0,0.0,0.5,0.02,0.14,0.95,35.93,0.9,-24.2
6.48,0.0,0.0,0.0,0.25,0.0,0.0,0.0,0.0,0.0,0.0,0.0,0.0,0.0,-0.11,0.14,0.95,5.15,17.2,57.9,0.0,0.0,0.5,0.0,0.0,0.0,0.0,1.5,0.0,0.0,0.0,0.0,0.25,0.02,0.14,0.95,37.22,3.9,-24.2
6.5,0.0,0.0,0.0,0.5,0.0,0.0,0.0,0.0,0.0,0.0,0.0,0.0,0.0,-0.11,0.14,0.95,6.45,17.2,57.9,0.0,0.0,0.5,0.0,0.0,0.0,0.0,1.5,0.0,0.0,0.0,0.0,0.75,0.02,0.14,0.95,39.8,5.7,-40.0
6.52,0.0,0.0,0.0,0.25,0.0,0.0,0.0,0.0,0.0,0.0,0.0,0.0,0.0,-0.11,0.14,0.95,6.01,17.2,57.9,0.0,0.0,0.5,0.0,0.0,0.0,0.0,1.0,0.0,0.0,0.0,0.0,0.5,0.02,0.14,0.95,37.73,2.0,-31.5
6.54,0.0,0.0,0.0,0.25,0.0,0.0,0.0,0.0,0.0,0.0,0.0,0.0,0.0,-0.11,0.14,0.95,5.84,17.2,57.9,0.0,0.0,0.5,0.0,0.0,0.0,0.0,1.0,0.0,0.0,0.0,0.0,0.5,0.02,0.14,0.95,35.97,2.0,-31.5
6.56,0.0,0.0,0.0,0.25,0.0,0.0,0.0,0.0,0.0,0.0,0.0,0.0,0.0,-0.11,0.14,0.95,5.1,17.2,57.9,0.0,0.0,0.5,0.0,0.0,0.0,0.0,1.25,0.0,0.0,0.0,0.0,0.75,0.02,0.14,0.95,36.2,4.6,-40.1
6.58,0.0,0.0,0.0,0.25,0.0,0.0,0.0,0.0,0.0,0.0,0.0,0.0,0.0,-0.11,0.14,0.95,4.95,17.2,57.9,0.0,0.0,0.5,0.0,0.0,0.0,0.0,1.5,0.0,0.0,0.0,0.0,0.25,0.02,0.14,0.95,36.17,3.9,-24.2
6.6,0.0,0.0,0.0,0.25,0.0,0.0,0.0,0.0,0.0,0.0,0.0,0.0,0.0,-0.11,0.14,0.95,4.57,17.2,57.9,0.0,0.0,1.0,0.0,0.0,0.0,0.0,1.0,0.0,0.0,0.0,0.0,0.5,0.08,0.14,0.95,37.97,-6.1,-12.7
6.62,0.0,0.0,0.0,0.25,0.0,0.0,0.0,0.0,0.0,0.0,0.0,0.0,0.0,-0.11,0.14,0.95,4.53,17.2,57.9,0.0,0.0,0.5,0.0,0.0,0.0,0.0,1.25,0.0,0.0,0.0,0.0,0.25,0.02,0.14,0.95,36.3,2.3,-22.4
6.64,0.0,0.0,0.0,0.25,0.0,0.0,0.0,0.0,0.0,0.0,0.0,0.0,0.0,-0.11,0.14,0.95,4.49,17.2,57.9,0.0,0.0,0.5,0.0,0.0,0.0,0.0,1.5,0.0,0.0,0.0,0.0,0.75,0.02,0.14,0.95,38.63,5.7,-40.0
6.66,0.0,0.0,0.0,0.25,0.0,0.0,0.0,0.0,0.0,0.0,0.0,0.0,0.0,-0.11,0.14,0.95,4.36,17.2,57.9,0.0,0.0,0.5,0.0,0.0,0.0,0.0,1.0,0.0,0.0,0.0,0.0,0.5,0.02,0.14,0.95,36.03,2.0,-31.5
6.68,0.0,0.0,0.0,0.25,0.0,0.0,0.0,0.0,0.0,0.0,0.0,0.0,0.0,-0.11,0.14,0.95,4.54,17.2,57.9,0.0,0.0,0.5,0.0,0.0,0.0,0.0,1.5,0.0,0.0,0.0,0.0,0.5,0.02,0.14,0.95,37.26,4.9,-32.9
6.7,0.0,0.0,0.0,0.25,0.0,0.0,0.0,0.0,0.0,0.0,0.0,0.0,0.0,-0.11,0.14,0.95,4.49,17.2,57.9,0.0,0.0,0.5,0.0,0.0,0.0,0.0,1.5,0.0,0.0,0.0,0.0,0.75,0.08,0.14,0.95,38.92,5.7,-40.0
6.72,0.0,0.0,0.0,0.5,0.0,0.0,0.0,0.0,0.0,0.0,0.0,0.0,0.0,-0.11,0.14,0.95,6.08,17.2,57.9,0.0,0.0,0.5,0.0,0.0,0.0,0.0,1.0,0.0,0.0,0.0,0.0,0.5,0.08,0.14,0.95,37.84,2.0,-31.5
6.74,0.0,0.0,0.0,0.25,0.0,0.0,0.0,0.0,0.0,0.0,0.0,0.0,0.0,-0.11,0.14,0.95,5.91,17.2,57.9,0.0,0.0,0.5,0.0,0.0,0.0,0.0,1.25,0.0,0.0,0.0,0.0,0.5,0.08,0.14,0.95,36.71,3.6,-32.3
6.76,0.0,0.0,0.0,0.25,0.0,0.0,0.0,0.0,0.0,0.0,0.0,0.0,0.0,-0.11,0.14,0.95,6.08,17.2,57.9,0.0,0.0,0.5,0.0,0.0,0.0,0.0,1.0,0.0,0.0,0.0,0.0,0.5,0.08,0.14,0.95,34.62,2.0,-31.5
6.78,0.0,0.0,0.0,0.25,0.0,0.0,0.0,0.0,0.0,0.0,0.0,0.0,0.0,-0.11,0.14,0.95,5.38,17.2,57.9,0.0,0.0,0.75,0.0,0.0,0.0,0.0,1.25,0.0,0.0,0.0,0.0,0.5,0.02,0.14,0.95,35.43,-0.6,-22.8
6.8,0.0,0.0,0.0,0.0,0.0,0.0,0.0,0.0,0.0,0.0,0.0,0.0,0.0,-0.11,0.14,0.95,3.39,0.0,0.0,0.0,0.0,0.5,0.0,0.0,0.0,0.0,1.25,0.0,0.0,0.0,0.0,0.5,0.08,0.14,0.95,34.63,3.6,-32.3
6.82,0.0,0.0,0.0,0.25,0.0,0.0,0.0,0.0,0.0,0.0,0.0,0.0,0.0,-0.11,0.14,0.95,3.16,17.2,57.9,0.0,0.0,0.5,0.0,0.0,0.0,0.0,1.25,0.0,0.0,0.0,0.0,0.5,0.02,0.14,0.95,35.69,3.6,-32.3
6.84,0.0,0.0,0.0,0.25,0.0,0.0,0.0,0.0,0.0,0.0,0.0,0.0,0.0,-0.11,0.14,0.95,3.28,17.2,57.9,0.0,0.0,0.0,0.0,0.0,0.0,0.0,0.75,0.0,0.0,0.0,0.0,0.5,0.02,0.14,0.95,30.53,15.5,-67.7
6.86,0.0,0.0,0.0,0.25,0.0,0.0,0.0,0.0,0.0,0.0,0.0,0.0,0.0,-0.11,0.14,0.95,3.98,17.2,57.9,0.0,0.0,0.5,0.0,0.0,0.0,0.0,1.25,0.0,0.0,0.0,0.0,0.5,0.02,0.14,0.95,30.94,3.6,-32.3
6.88,0.0,0.0,0.0,0.25,0.0,0.0,0.0,0.0,0.0,0.0,0.0,0.0,0.0,-0.11,0.14,0.95,4.23,17.2,57.9,0.0,0.0,0.5,0.0,0.0,0.0,0.0,1.5,0.0,0.0,0.0,0.0,0.0,0.02,0.14,0.95,29.34,2.7,-13.2
6.9,0.0,0.0,0.0,0.25,0.0,0.0,0.0,0.0,0.0,0.0,0.0,0.0,0.0,-0.11,0.14,0.95,4.54,17.2,57.9,0.0,0.0,0.5,0.0,0.0,0.0,0.0,1.25,0.0,0.0,0.0,0.0,0.75,0.08,0.14,0.95,33.62,4.6,-40.1
6.92,0.0,0.0,0.0,0.25,0.0,0.0,0.0,0.0,0.0,0.0,0.0,0.0,0.0,-0.11,0.14,0.95,4.49,17.2,57.9,0.0,0.0,0.75,0.0,0.0,0.0,0.0,1.25,0.0,0.0,0.0,0.0,0.5,0.02,0.14,0.95,35.65,-0.6,-22.8
6.94,0.0,0.0,0.0,0.5,0.0,0.0,0.0,0.0,0.0,0.0,0.0,0.0,0.0,-0.11,0.14,0.95,6.08,17.2,57.9,0.0,0.0,0.75,0.0,0.0,0.0,0.0,1.25,0.0,0.0,0.0,0.0,0.5,0.02,0.14,0.95,38.43,-0.6,-22.8
6.96,0.0,0.0,0.0,0.0,0.0,0.0,0.0,0.0,0.0,0.0,0.0,0.0,0.0,-0.11,0.14,0.95,4.38,0.0,0.0,0.0,0.0,0.5,0.0,0.0,0.0,0.0,1.5,0.0,0.0,0.0,0.0,0.5,0.02,0.14,0.95,39.72,4.9,-32.9
6.98,0.0,0.0,0.0,0.25,0.0,0.0,0.0,0.0,0.0,0.0,0.0,0.0,0.0,-0.11,0.14,0.95,4.7,17.2,57.9,0.0,0.0,0.25,0.0,0.0,0.0,0.0,1.0,0.0,0.0,0.0,0.0,0.5,0.02,0.14,0.95,36.33,7.8,-44.9
7.0,0.0,0.0,0.0,0.25,0.0,0.0,0.0,0.0,0.0,0.0,0.0,0.0,0.0,-0.11,0.14,0.95,4.16,17.2,57.9,0.0,0.0,0.5,0.0,0.0,0.0,0.0,1.25,0.0,0.0,0.0,0.0,0.5,0.02,0.14,0.95,35.49,3.6,-32.3
7.02,0.0,0.0,0.0,0.25,0.0,0.0,0.0,0.0,0.0,0.0,0.0,0.0,0.0,-0.11,0.14,0.95,4.56,17.2,57.9,0.0,0.0,0.5,0.0,0.0,0.0,0.0,1.25,0.0,0.0,0.0,0.0,0.75,0.02,0.14,0.95,36.07,4.6,-40.1
7.04,0.0,0.0,0.0,0.25,0.0,0.0,0.0,0.0,0.0,0.0,0.0,0.0,0.0,-0.11,0.14,0.95,4.61,17.2,57.9,0.0,0.0,0.5,0.0,0.0,0.0,0.0,1.25,0.0,0.0,0.0,0.0,0.5,0.02,0.14,0.95,36.83,3.6,-32.3
7.06,0.0,0.0,0.0,0.25,0.0,0.0,0.0,0.0,0.25,0.0,0.0,0.0,0.0,-0.11,0.14,0.95,5.99,14.7,11.1,0.0,0.0,0.5,0.0,0.0,0.0,0.0,1.25,0.0,0.0,0.0,0.0,0.5,0.08,0.14,0.95,37.0,3.6,-32.3
7.08,0.0,0.0,0.0,0.25,0.0,0.0,0.0,0.0,0.0,0.0,0.0,0.0,0.0,-0.11,0.14,0.95,5.9,17.2,57.9,0.0,0.0,0.5,0.0,0.0,0.0,0.0,1.25,0.0,0.0,0.0,0.0,0.75,0.08,0.14,0.95,38.51,4.6,-40.1
7.1,0.0,0.0,0.0,0.25,0.0,0.0,0.0,0.0,0.0,0.0,0.0,0.0,0.0,-0.11,0.14,0.95,5.71,17.2,57.9,0.0,0.0,0.5,0.0,0.0,0.0,0.0,0.75,0.0,0.0,0.0,0.0,0.75,0.02,0.14,0.95,36.07,1.6,-40.5
7.12,0.0,0.0,0.0,0.0,0.0,0.0,0.0,0.0,0.0,0.0,0.0,0.0,0.0,-0.11,0.14,0.95,3.56,0.0,0.0,0.0,0.0,0.5,0.0,0.0,0.0,0.0,1.25,0.0,0.0,0.0,0.0,0.5,0.08,0.14,0.95,35.51,3.6,-32.3
7.14,0.0,0.0,0.0,0.0,0.0,0.0,0.0,0.0,0.0,0.0,0.0,0.0,0.0,-0.11,0.14,0.95,1.76,0.0,0.0,0.0,0.0,0.5,0.0,0.0,0.0,0.0,1.5,0.0,0.0,0.0,0.0,0.25,0.08,0.14,0.95,34.46,3.9,-24.2
7.16,0.0,0.0,0.0,0.25,0.0,0.0,0.0,0.0,0.0,0.0,0.0,0.0,0.0,-0.11,0.14,0.95,1.71,17.2,57.9,0.0,0.0,0.5,0.0,0.0,0.0,0.0,1.25,0.0,0.0,0.0,0.0,0.25,0.08,0.14,0.95,33.36,2.3,-22.4
7.18,0.0,0.0,0.0,0.25,0.0,0.0,0.0,0.0,0.0,0.0,0.0,0.0,0.0,-0.11,0.14,0.95,2.53,17.2,57.9,0.0,0.0,1.0,0.0,0.0,0.0,0.0,1.25,0.0,0.0,0.0,0.0,0.5,0.08,0.14,0.95,36.29,-4.0,-15.1
7.2,0.0,0.0,0.0,0.25,0.0,0.0,0.0,0.0,0.0,0.0,0.0,0.0,0.0,-0.11,0.14,0.95,3.91,17.2,57.9,0.0,0.0,0.5,0.0,0.0,0.0,0.0,1.5,0.0,0.0,0.0,0.0,0.5,0.08,0.14,0.95,38.03,4.9,-32.9
7.22,0.0,0.0,0.0,0.5,0.0,0.0,0.0,0.0,0.0,0.0,0.0,0.0,0.0,-0.11,0.14,0.95,5.89,17.2,57.9,0.0,0.0,0.5,0.0,0.0,0.0,0.0,0.5,0.0,0.0,0.0,0.0,0.75,0.02,0.14,0.95,36.24,-0.4,-40.7
7.24,0.0,0.0,0.0,0.25,0.0,0.0,0.0,0.0,0.0,0.0,0.0,0.0,0.0,-0.11,0.14,0.95,6.08,17.2,57.9,0.0,0.0,1.0,0.0,0.0,0.0,0.0,1.5,0.0,0.0,0.0,0.0,0.5,0.02,0.14,0.95,39.01,-2.3,-17.0
7.26,0.0,0.0,0.0,0.25,0.0,0.0,0.0,0.0,0.0,0.0,0.0,0.0,0.0,-0.11,0.14,0.95,5.93,17.2,57.9,0.0,0.0,0.75,0.0,0.0,0.0,0.0,1.25,0.0,0.0,0.0,0.0,0.5,0.02,0.14,0.95,39.24,-0.6,-22.8
7.28,0.0,0.0,0.0,0.0,0.0,0.0,0.0,0.0,0.0,0.0,0.0,0.0,0.0,-0.11,0.14,0.95,3.65,0.0,0.0,0.0,0.0,0.5,0.0,0.0,0.0,0.0,1.5,0.0,0.0,0.0,0.0,0.5,0.02,0.14,0.95,40.6,4.9,-32.9
7.3,0.0,0.0,0.0,0.0,0.0,0.0,0.0,0.0,0.0,0.0,0.0,0.0,0.0,-0.11,0.14,0.95,1.88,0.0,0.0,0.0,0.0,1.5,0.0,0.0,0.0,0.0,1.25,0.0,0.0,0.0,0.0,0.75,0.08,0.14,0.95,45.92,-7.7,-10.9
7.32,0.0,0.0,0.0,0.25,0.0,0.0,0.0,0.0,0.0,0.0,0.0,0.0,0.0,-0.11,0.14,0.95,2.08,17.2,57.9,0.0,0.0,1.0,0.0,0.0,0.0,0.0,0.75,0.0,0.0,0.0,0.0,0.5,0.02,0.14,0.95,44.75,-8.6,-9.9
7.34,0.0,0.0,0.0,0.25,0.0,0.0,0.0,0.0,0.0,0.0,0.0,0.0,0.0,-0.11,0.14,0.95,3.0,17.2,57.9,0.0,0.0,0.5,0.0,0.0,0.0,0.0,1.25,0.0,0.0,0.0,0.0,0.5,0.02,0.14,0.95,42.7,3.6,-32.3
7.36,0.0,0.0,0.0,0.25,0.0,0.0,0.0,0.0,0.0,0.0,0.0,0.0,0.0,-0.11,0.14,0.95,4.14,17.2,57.9,0.0,0.0,0.5,0.0,0.0,0.0,0.0,1.25,0.0,0.0,0.0,0.0,0.75,0.02,0.14,0.95,40.47,4.6,-40.1
7.38,0.0,0.0,0.0,0.25,0.0,0.0,0.0,0.0,0.0,0.0,0.0,0.0,0.0,-0.11,0.14,0.95,4.52,17.2,57.9,0.0,0.0,0.5,0.0,0.0,0.0,0.0,1.5,0.0,0.0,0.0,0.0,0.5,0.08,0.14,0.95,39.85,4.9,-32.9
7.4,0.0,0.0,0.0,0.25,0.0,0.0,0.0,0.0,0.0,0.0,0.0,0.0,0.0,-0.11,0.14,0.95,4.54,17.2,57.9,0.0,0.0,0.75,0.0,0.0,0.0,0.0,1.25,0.0,0.0,0.0,0.0,0.5,0.02,0.14,0.95,39.06,-0.6,-22.8
7.42,0.0,0.0,0.0,0.25,0.0,0.0,0.0,0.0,0.0,0.0,0.0,0.0,0.0,-0.11,0.14,0.95,4.49,17.2,57.9,0.0,0.0,0.5,0.0,0.0,0.0,0.0,1.5,0.0,0.0,0.0,0.0,0.5,0.02,0.14,0.95,38.96,4.9,-32.9
7.44,0.0,0.0,0.0,0.0,0.0,0.0,0.0,0.0,0.0,0.0,0.0,0.0,0.0,-0.11,0.14,0.95,2.9,0.0,0.0,0.0,0.0,0.5,0.0,0.0,0.0,0.0,1.25,0.0,0.0,0.0,0.0,0.5,0.08,0.14,0.95,38.12,3.6,-32.3
7.46,0.0,0.0,0.0,0.0,0.0,0.0,0.0,0.0,0.0,0.0,0.0,0.0,0.0,-0.11,0.14,0.95,1.48,0.0,0.0,0.0,0.0,0.5,0.0,0.0,0.0,0.0,1.0,0.0,0.0,0.0,0.0,0.5,0.02,0.14,0.95,35.18,2.0,-31.5
7.48,0.0,0.0,0.0,0.25,0.0,0.0,0.0,0.0,0.0,0.0,0.0,0.0,0.0,-0.11,0.14,0.95,2.08,17.2,57.9,0.0,0.0,0.5,0.0,0.0,0.0,0.0,1.0,0.0,0.0,0.0,0.0,0.75,0.08,0.14,0.95,33.63,3.3,-40.3
