time,left pressure 0[N/cm虏],left pressure 1[N/cm虏],left pressure 2[N/cm虏],left pressure 3[N/cm虏],left pressure 4[N/cm虏],left pressure 5[N/cm虏],left pressure 6[N/cm虏],left pressure 7[N/cm虏],left pressure 8[N/cm虏],left pressure 9[N/cm虏],left pressure 10[N/cm虏],left pressure 11[N/cm虏],left pressure 12[N/cm虏],left acceleration X[g],left acceleration Y[g],left acceleration Z[g],left total force[N],left center of pressure X[mm],left center of pressure Y[mm],right pressure 0[N/cm虏],right pressure 1[N/cm虏],right pressure 2[N/cm虏],right pressure 3[N/cm虏],right pressure 4[N/cm虏],right pressure 5[N/cm虏],right pressure 6[N/cm虏],right pressure 7[N/cm虏],right pressure 8[N/cm虏],right pressure 9[N/cm虏],right pressure 10[N/cm虏],right pressure 11[N/cm虏],right pressure 12[N/cm虏],right acceleration X[g],right acceleration Y[g],right acceleration Z[g],right total force[N],right center of pressure X[mm],right center of pressure Y[mm]
0.02,0.25,0.0,0.25,0.0,2.5,0.5,0.75,2.25,1.0,4.5,1.75,3.75,5.5,1.14,0.7,1.95,220.75,-4.9,-61.0,0.5,0.25,1.0,0.75,0.5,0.25,0.75,0.75,0.75,1.25,1.0,0.25,0.5,0.14,-0.23,0.27,0.0,-7.2,-9.8
0.04,0.0,0.0,0.25,1.0,2.5,1.0,0.75,4.25,2.0,6.75,3.25,6.75,7.0,0.02,0.7,2.52,320.65,-4.2,-63.1,1.0,0.5,0.5,1.0,0.5,0.75,0.75,0.75,0.75,1.25,1.0,0.25,0.5,0.08,-0.11,0.39,6.44,-5.7,-1.0
0.06,0.75,0.0,0.0,0.0,2.25,1.0,1.0,5.25,3.5,5.75,5.0,6.75,8.25,0.08,0.27,1.14,461.36,-3.3,-65.1,1.0,0.5,0.75,0.5,0.5,0.5,0.75,0.5,0.75,0.5,1.0,0.25,0.5,0.14,-0.11,0.64,21.17,-9.8,4.4
0.08,1.0,0.0,0.0,0.5,0.5,1.0,1.0,6.5,4.25,7.5,6.0,6.5,7.75,-0.05,0.2,1.02,604.07,-3.1,-67.0,1.0,0.75,0.75,0.5,0.5,0.25,0.75,0.5,0.75,1.25,1.0,0.25,0.5,0.27,0.02,0.89,48.7,-8.5,-0.6
0.1,0.75,0.0,0.75,1.0,2.25,2.25,1.5,6.5,4.5,7.5,6.0,7.5,8.25,-0.11,0.14,0.95,736.7,-2.5,-57.5,1.0,0.5,0.5,0.25,1.0,0.75,0.75,0.75,0.75,1.25,1.0,0.25,0.5,0.27,0.14,1.02,77.55,-4.1,-2.7
0.12,0.75,0.0,0.75,1.25,2.5,2.5,1.5,6.5,4.5,7.5,6.0,7.5,8.25,-0.11,0.08,0.95,821.72,-2.5,-55.8,0.75,0.5,0.5,0.5,0.5,1.25,0.75,0.5,1.0,1.0,1.0,0.25,0.5,0.27,0.27,1.27,100.69,-4.1,-3.2
0.14,0.75,0.0,0.5,1.25,2.5,2.5,1.5,6.75,5.0,8.0,6.0,7.5,8.25,-0.11,0.08,0.95,879.58,-2.7,-56.4,1.0,0.5,0.5,0.75,0.5,0.5,0.75,0.5,1.0,1.0,0.75,0.25,0.5,0.27,0.39,1.39,114.55,-7.6,0.5
0.16,0.75,0.0,1.25,1.5,3.0,2.5,1.5,7.25,5.0,8.5,6.5,7.5,8.25,-0.11,0.08,0.95,932.21,-2.2,-53.1,0.75,0.5,0.5,0.5,0.5,0.5,0.75,0.5,0.75,2.0,1.0,0.5,0.5,0.39,0.58,1.64,118.75,-4.0,-16.3
0.18,0.75,0.0,1.0,2.25,1.25,2.5,1.5,7.0,5.25,8.5,6.5,7.25,8.25,-0.11,0.08,0.95,950.17,-2.0,-55.9,0.75,0.5,0.5,0.5,0.5,0.5,0.75,0.5,0.75,1.25,0.75,0.75,0.5,0.52,0.83,2.14,117.05,-5.7,-11.9
0.2,1.0,0.0,0.75,1.75,3.5,2.5,1.5,7.25,5.25,8.25,6.5,6.75,7.75,-0.11,0.08,0.95,948.61,-2.2,-50.2,0.75,0.5,0.5,0.5,0.5,0.5,0.75,0.5,0.75,0.75,0.75,0.25,0.5,0.7,1.7,2.45,114.35,-7.0,-0.7
0.22,0.75,0.25,1.0,2.25,2.5,3.5,2.0,7.25,5.5,7.5,6.0,5.75,7.25,-0.11,0.08,0.95,913.44,-2.1,-46.5,0.75,0.5,0.5,0.5,0.5,0.5,0.75,0.5,0.75,1.25,1.0,0.25,0.5,0.77,2.58,2.77,112.61,-5.7,-7.7
0.24,1.0,0.0,1.0,2.25,3.5,3.5,2.25,7.5,5.5,7.25,6.0,5.25,6.5,-0.11,0.08,0.95,871.17,-1.9,-42.3,0.75,0.25,0.5,0.5,0.5,0.5,0.75,0.5,0.75,1.25,1.0,0.25,0.75,0.7,3.77,2.27,113.06,-4.8,-14.5
0.26,1.0,0.25,0.75,2.25,4.25,3.5,2.5,7.5,5.75,7.0,5.75,4.75,6.25,-0.11,0.08,0.95,811.49,-1.9,-39.0,0.75,0.5,0.75,0.5,0.5,0.5,0.75,0.5,0.75,1.25,1.0,0.25,0.75,0.27,4.7,0.02,117.78,-6.1,-8.7
0.28,1.0,0.25,1.75,2.5,5.75,4.5,2.75,7.75,5.75,6.0,5.25,3.25,5.5,-0.11,0.08,0.95,766.67,-1.4,-27.6,0.75,0.5,0.5,0.5,1.25,0.75,0.5,1.0,0.75,1.25,0.75,0.25,1.0,-2.36,6.02,-2.42,126.31,-1.5,-7.0
0.3,1.5,0.25,2.0,2.5,5.75,5.0,3.0,7.75,6.0,5.75,4.75,3.0,4.5,-0.11,0.08,0.95,739.49,-0.8,-22.6,0.75,0.25,0.5,0.5,1.25,0.5,0.75,1.75,0.75,1.5,1.0,0.5,1.5,-4.36,5.77,-0.98,141.95,-0.2,-21.9
0.32,1.75,1.0,2.5,2.5,6.0,5.75,3.0,7.75,6.0,4.5,4.25,2.5,4.25,-0.11,0.08,0.95,724.59,-0.1,-15.0,0.75,0.5,0.5,0.5,1.25,0.5,0.5,2.0,0.75,3.0,1.0,1.0,3.0,0.45,0.95,2.52,172.19,2.8,-37.6
0.34,1.75,1.25,2.75,4.25,5.75,5.75,3.25,7.75,6.0,4.5,3.5,1.75,3.25,-0.11,0.08,0.95,718.09,0.7,-7.5,0.75,0.0,0.5,0.5,1.25,0.25,0.25,2.0,1.0,6.0,0.0,4.5,5.0,0.39,1.2,4.52,232.54,4.4,-63.5
0.36,2.0,1.5,3.25,4.75,7.25,6.5,3.0,7.5,5.5,4.25,3.25,1.75,3.0,-0.11,0.08,0.95,738.09,1.0,-1.2,1.25,0.5,0.5,0.5,0.0,0.5,0.0,3.25,2.75,7.25,3.25,6.5,6.25,-0.05,0.45,1.52,325.27,2.0,-67.4
0.38,2.5,1.5,3.25,5.75,8.0,7.0,3.25,7.25,5.5,3.5,3.0,1.75,2.5,-0.11,0.08,0.95,769.13,1.8,4.6,0.75,0.0,0.5,0.0,0.25,2.75,0.0,5.0,4.0,7.75,6.25,6.75,7.0,0.02,0.27,1.08,468.51,3.6,-66.5
0.4,3.5,1.5,3.75,6.5,8.75,7.5,3.25,7.25,5.25,3.25,2.0,1.75,2.5,-0.11,0.14,0.95,816.49,2.5,10.3,0.75,0.5,2.25,0.5,0.5,3.0,0.75,5.75,4.0,7.25,6.0,6.25,8.0,0.08,0.2,0.95,621.83,1.8,-55.9
0.42,4.5,1.5,4.25,7.0,9.5,7.75,3.25,6.75,4.75,3.0,2.0,1.75,2.25,-0.11,0.14,0.95,871.28,3.6,15.1,1.25,0.5,0.5,0.5,0.5,3.0,0.75,5.75,3.5,7.5,5.0,6.25,8.0,0.14,0.14,0.95,718.27,3.6,-59.1
0.44,5.5,1.5,3.0,8.5,11.5,8.25,3.25,6.5,4.0,2.5,2.0,1.5,2.25,-0.11,0.14,0.95,934.45,3.3,20.3,1.75,0.5,0.5,0.5,0.5,2.75,0.75,5.75,3.25,7.5,4.5,5.5,8.0,0.08,0.14,0.89,752.85,3.6,-56.8
0.46,6.5,1.5,5.0,10.5,13.0,8.75,3.0,6.25,3.25,2.0,1.75,1.5,2.25,-0.11,0.14,1.02,1029.43,5.0,26.9,0.5,0.5,0.5,0.75,0.5,3.0,0.75,5.75,3.5,7.5,4.5,4.5,7.25,0.14,0.14,0.89,735.12,4.7,-57.6
0.48,8.75,0.0,6.0,13.0,15.5,9.5,2.25,5.5,2.0,2.0,0.5,1.5,2.25,-0.11,0.2,1.08,1146.74,5.9,33.9,1.0,0.75,0.5,0.5,0.5,3.0,0.75,5.75,4.0,7.5,4.5,5.0,7.0,0.14,0.14,0.89,714.16,3.9,-55.7
0.5,9.5,3.25,6.75,13.5,15.5,10.5,1.75,5.25,2.0,1.25,0.25,1.5,1.25,-0.11,0.2,1.08,1283.58,7.0,41.7,1.25,0.75,0.5,0.5,1.0,3.25,0.75,6.5,4.75,7.25,5.0,4.5,7.0,0.08,0.14,0.95,704.68,3.6,-51.7
0.52,9.5,1.75,6.0,13.0,16.5,9.5,0.5,4.25,1.0,0.5,0.75,0.75,2.25,-0.17,0.27,1.14,1329.05,6.7,42.6,1.0,0.5,1.0,0.5,1.0,4.25,0.75,6.5,5.25,7.0,4.75,3.75,6.25,0.14,0.14,0.95,692.23,3.7,-47.6
0.54,10.5,3.0,7.5,13.0,17.0,9.25,0.0,4.0,1.25,1.75,0.5,0.5,1.5,-0.3,0.33,1.2,1369.39,7.7,45.4,2.0,0.75,1.0,0.75,2.5,5.25,1.25,7.0,5.75,6.75,4.75,3.25,6.0,0.14,0.14,0.95,694.41,2.9,-36.1
0.56,11.0,3.25,8.0,10.5,16.0,8.75,0.0,3.75,1.0,2.0,1.75,1.25,1.0,-0.3,0.39,1.27,1367.62,8.3,43.1,2.0,1.0,1.75,1.75,2.75,5.25,0.75,7.0,6.0,6.25,4.75,2.75,4.75,0.14,0.14,0.95,680.27,1.5,-28.1
0.58,14.0,3.25,8.25,10.5,13.5,7.75,0.0,4.0,1.0,1.0,1.25,1.25,2.0,-0.23,0.52,1.64,1359.59,10.3,45.1,2.25,1.25,2.5,2.0,4.5,5.75,1.75,7.0,6.25,5.75,5.0,2.0,4.0,0.14,0.14,0.95,686.21,0.1,-17.8
0.6,12.5,3.25,7.75,8.5,10.5,6.0,1.5,2.75,1.0,1.75,1.25,1.0,2.0,-0.86,0.89,2.27,1273.11,11.5,43.7,2.5,1.25,3.0,3.0,4.75,6.0,2.25,7.0,6.25,5.5,4.5,2.0,3.25,0.08,0.14,0.95,697.58,-0.9,-11.8
0.62,9.5,2.0,6.5,6.75,8.0,4.25,1.75,1.5,1.0,1.75,0.5,0.75,2.0,-1.05,1.27,2.64,1064.41,12.1,42.5,3.0,1.25,3.5,3.5,5.75,6.25,3.0,7.0,6.25,4.25,3.75,1.75,3.0,0.08,0.14,0.95,727.98,-2.1,-3.9
0.64,6.5,1.0,3.5,2.5,6.25,1.75,0.25,1.5,1.0,0.0,0.75,0.5,1.25,-1.11,1.14,2.58,739.49,12.1,42.7,3.0,1.5,3.5,5.25,6.5,6.25,3.5,6.5,6.0,3.75,3.25,1.25,2.25,0.08,0.14,0.95,760.7,-3.1,4.3
0.66,2.75,0.0,0.0,0.0,2.5,0.0,0.0,0.0,0.5,1.0,1.0,0.0,0.5,-0.73,0.45,2.83,386.23,8.7,21.5,4.5,1.75,5.5,5.75,6.75,6.25,4.0,6.0,5.25,2.25,2.75,0.5,1.5,0.08,0.14,0.95,796.74,-6.4,18.0
0.68,0.75,0.0,0.0,0.0,2.5,0.0,0.0,0.0,0.25,0.5,0.0,0.0,0.25,-0.23,-0.42,1.39,171.49,1.4,32.1,5.0,1.75,5.5,6.0,6.75,6.5,4.25,5.75,4.75,2.5,2.25,0.5,1.5,0.08,0.14,0.95,820.67,-6.5,20.3
0.7,1.5,0.0,1.25,0.5,5.25,0.0,0.25,0.25,1.0,1.25,0.75,1.0,1.25,-0.48,-0.17,1.77,46.51,5.2,8.5,5.75,2.0,7.0,9.0,8.0,6.75,4.5,4.75,4.0,2.25,2.0,0.5,1.75,0.08,0.2,0.95,878.65,-8.4,27.7
0.72,1.0,0.0,0.75,0.75,4.75,0.0,0.5,0.25,0.75,0.75,0.5,0.75,1.0,-0.8,-0.67,1.89,0.0,4.5,12.9,6.25,2.0,7.0,9.75,8.5,6.75,4.75,4.25,2.75,1.5,1.5,0.5,1.5,0.08,0.2,0.95,918.51,-9.2,33.9
0.74,1.0,0.0,0.75,0.25,4.5,0.0,0.25,0.25,1.0,1.25,0.25,0.75,0.5,-0.61,-0.8,0.95,0.0,3.8,12.1,6.0,2.0,8.0,11.0,8.75,7.25,4.75,3.5,2.0,1.75,1.0,0.5,1.25,0.08,0.2,0.95,960.63,-9.7,37.8
0.76,0.75,0.0,0.5,0.0,4.25,0.0,0.5,0.25,0.75,1.0,0.5,0.5,0.5,-0.48,-0.55,0.52,0.0,2.7,10.9,5.5,1.0,7.25,10.5,9.25,6.25,4.5,2.25,1.5,0.25,0.25,0.0,0.5,0.02,0.2,0.95,921.06,-11.2,47.6
0.78,0.75,0.0,0.5,0.0,2.5,0.0,0.5,0.0,0.75,0.75,0.5,0.5,0.5,-0.36,-0.42,0.45,0.0,5.7,3.8,7.0,0.0,8.5,0.0,11.0,7.0,4.5,3.0,1.0,0.25,0.0,0.0,0.0,0.02,0.27,0.95,821.06,-9.7,47.9
0.8,0.75,0.0,0.75,0.0,2.5,0.0,0.75,0.25,1.0,1.5,0.25,0.75,0.75,-0.3,-0.3,0.45,0.0,4.2,-7.1,7.5,1.0,8.0,0.0,9.5,6.5,4.0,2.0,0.75,0.75,0.0,0.0,0.5,0.02,0.27,0.95,711.45,-10.5,48.8
0.82,0.75,0.0,0.5,0.0,3.5,0.0,0.0,0.25,0.75,1.5,0.5,0.5,1.25,-0.3,-0.23,0.58,4.59,0.4,-6.7,8.25,2.25,8.75,11.0,11.0,7.25,3.75,2.0,0.75,0.0,0.0,0.0,0.5,0.08,0.33,1.02,744.9,-12.1,54.3
0.84,0.75,0.0,0.75,0.0,4.5,0.0,0.75,0.25,0.75,1.25,0.25,0.25,1.25,-0.3,-0.23,0.77,60.88,1.8,7.6,8.5,3.0,8.75,12.5,11.0,7.0,4.0,2.0,0.75,0.0,0.0,0.0,0.5,0.02,0.33,1.02,825.82,-12.5,55.2
0.86,0.75,0.0,0.75,0.0,3.0,0.0,0.75,0.25,0.75,1.25,0.5,0.5,1.0,-0.23,-0.17,0.95,102.08,3.6,-2.6,9.0,3.5,9.5,12.5,11.0,7.25,4.0,2.0,0.75,0.0,0.25,0.0,0.5,0.02,0.33,1.02,945.54,-12.9,55.4
0.88,0.5,0.0,0.5,0.0,2.25,0.0,0.75,0.0,0.75,1.75,0.5,0.75,1.25,-0.11,-0.05,1.08,129.37,1.6,-21.7,10.5,5.0,11.0,14.5,12.0,7.25,5.0,2.0,0.75,1.25,1.0,0.5,1.25,0.14,0.45,1.14,1117.97,-13.0,50.6
0.9,0.5,0.0,0.5,0.5,2.5,0.0,0.75,0.25,0.75,1.25,0.0,0.25,1.25,-0.11,0.14,1.27,136.6,1.9,-3.4,10.5,5.25,11.5,11.0,11.0,6.25,6.25,2.25,0.75,1.25,1.0,0.25,1.0,0.2,0.52,1.14,1214.39,-13.9,51.3
0.92,0.5,0.0,0.75,0.5,3.0,0.0,0.25,0.0,0.75,0.75,0.5,0.25,1.25,-0.17,0.27,1.45,130.53,3.8,2.4,9.25,3.75,11.0,11.0,9.0,5.0,6.75,0.25,0.75,1.25,0.0,0.25,0.5,0.14,0.64,1.27,1185.58,-16.3,55.9
0.94,0.0,0.0,0.75,0.0,4.25,0.0,0.5,0.5,0.25,0.0,0.0,0.0,1.25,-0.23,0.45,1.77,119.91,-0.2,18.4,10.0,4.5,10.5,9.25,7.25,5.0,7.5,1.5,0.75,1.25,1.0,0.25,1.25,0.2,1.02,1.77,1120.64,-15.8,50.3
0.96,0.0,0.0,0.0,0.0,2.5,0.0,0.0,0.0,0.25,0.0,0.0,0.0,0.5,-0.36,0.64,2.14,99.6,-3.7,24.2,8.5,3.5,8.5,7.25,4.5,3.0,7.25,1.0,0.75,1.25,0.75,0.25,1.25,0.52,1.95,2.95,965.8,-17.5,49.1
0.98,0.25,0.0,0.75,1.0,2.25,0.75,0.5,0.0,1.0,1.0,0.5,0.0,1.25,-0.55,1.45,2.58,107.29,2.4,0.9,7.5,2.25,7.0,3.5,2.5,3.0,5.5,0.75,0.75,1.25,1.0,0.25,1.0,0.52,1.58,2.95,758.67,-17.8,45.4
1.0,0.25,0.0,0.5,0.75,2.25,0.0,0.75,0.25,0.75,1.75,0.5,0.25,1.25,-0.86,3.77,2.7,113.08,1.2,-13.6,5.5,0.75,4.75,2.0,0.0,2.25,3.25,0.5,0.75,1.25,1.0,0.25,0.5,0.52,0.02,3.27,517.41,-19.2,39.1
1.02,0.0,0.0,0.5,0.0,2.5,0.0,0.75,0.25,0.25,0.0,0.5,0.0,1.0,-0.8,5.08,0.89,109.66,2.0,4.7,1.0,0.0,2.75,0.5,1.75,0.5,1.5,0.25,0.25,0.0,0.0,0.0,0.25,0.33,-0.36,-0.61,296.92,-18.3,47.3
1.04,0.0,0.0,0.25,0.0,2.25,0.0,0.75,0.5,0.25,0.0,0.25,0.0,0.25,1.14,6.33,-2.61,92.42,1.4,20.0,2.0,0.5,1.75,1.5,1.25,1.25,1.25,0.5,0.75,1.25,0.5,0.25,0.0,0.7,-0.23,2.14,168.64,-11.7,29.7
1.06,0.0,0.0,0.0,0.0,1.75,0.0,0.0,0.25,0.25,0.0,0.0,0.0,0.5,3.77,5.45,-2.11,69.53,-4.9,10.7,1.75,1.0,0.25,1.25,0.25,0.75,0.75,0.25,0.75,1.25,0.0,0.25,0.0,0.64,-1.11,2.02,42.93,-10.4,30.0
1.08,0.0,0.0,0.0,0.0,1.75,0.0,0.0,0.25,0.25,1.75,0.0,0.0,2.25,0.02,-1.36,0.33,68.12,-10.1,-45.1,2.0,1.0,1.75,1.0,1.25,1.75,1.0,0.5,0.75,1.25,1.0,0.25,0.5,0.45,-0.86,1.27,15.62,-9.2,22.3
1.1,0.25,0.0,0.0,0.25,1.75,0.0,0.75,0.75,0.75,2.75,1.0,3.0,4.0,0.08,0.83,1.27,122.17,-3.1,-63.3,1.25,0.75,1.75,1.25,0.5,1.25,1.0,0.5,0.75,1.25,0.75,0.25,0.5,0.33,-0.55,0.52,0.0,-10.0,15.9
1.12,0.5,0.0,0.25,0.75,1.75,1.0,0.25,2.25,1.25,5.75,2.0,5.75,6.0,1.08,0.89,2.89,232.09,-3.9,-64.0,1.25,0.5,1.5,1.0,0.5,1.0,0.75,0.5,0.75,1.25,1.0,0.25,0.5,0.2,-0.36,0.27,5.41,-9.5,9.0
1.14,0.5,0.0,0.75,1.0,2.5,1.0,0.75,5.25,2.75,7.0,5.0,7.25,7.25,0.2,0.64,2.14,378.2,-2.6,-60.1,0.75,0.5,1.75,0.75,0.5,1.25,0.75,0.5,0.75,1.25,0.75,0.25,0.5,-0.05,-0.17,0.39,17.11,-8.1,7.5
1.16,0.0,0.0,0.0,0.0,0.0,1.0,0.25,5.75,2.75,5.75,5.25,7.25,8.0,0.02,0.14,1.14,516.67,-4.6,-78.4,1.25,0.75,1.5,0.5,1.0,1.25,0.75,0.5,0.75,1.25,0.75,0.25,0.75,-0.11,-0.11,0.7,45.14,-7.3,10.7
1.18,1.0,0.0,0.0,1.0,1.75,1.0,0.75,6.25,3.75,6.5,5.75,7.25,7.75,-0.11,0.08,0.95,650.85,-2.6,-62.6,0.25,0.25,1.25,0.75,0.5,0.5,0.75,0.75,0.75,1.0,0.75,0.25,0.5,-0.11,-0.11,0.83,54.19,-7.1,-5.3
1.2,0.75,0.0,0.5,1.5,2.25,2.5,1.0,6.75,4.0,7.5,6.0,7.25,8.0,-0.17,0.08,0.95,753.26,-3.0,-56.4,1.0,0.75,1.25,0.5,0.5,1.0,0.75,0.5,0.75,1.0,1.0,0.25,0.5,0.02,-0.05,0.89,84.19,-8.4,7.3
1.22,0.75,0.0,0.75,1.5,2.5,2.5,1.0,7.0,4.25,7.75,6.5,7.5,8.25,-0.11,0.08,0.95,837.45,-2.7,-55.8,0.75,0.5,1.0,0.75,0.5,0.75,0.75,0.5,0.75,1.25,0.75,0.25,0.5,0.02,0.08,1.14,103.46,-7.1,1.3
1.24,0.75,0.0,0.75,1.75,2.5,2.5,1.0,7.25,4.5,8.5,6.5,7.5,8.25,-0.11,0.08,0.95,906.39,-2.8,-55.4,0.75,0.25,0.75,0.5,0.5,0.75,0.75,0.5,0.5,1.25,0.75,0.25,0.5,0.02,0.2,1.27,114.73,-5.3,-4.5
1.26,0.75,0.0,0.5,1.5,2.5,2.5,1.25,7.5,4.75,8.5,6.0,7.25,8.25,-0.11,0.08,0.95,949.46,-3.2,-55.7,0.75,0.5,0.75,0.5,0.5,0.75,0.75,0.5,0.5,1.25,0.75,0.25,0.5,0.14,0.33,1.52,116.93,-5.5,-1.2
1.28,0.75,0.0,0.75,1.25,3.0,2.5,1.0,7.75,4.5,8.5,6.0,6.5,8.0,-0.11,0.08,0.95,951.61,-3.4,-53.6,1.0,0.5,0.5,0.5,0.5,0.75,0.75,0.5,0.75,1.25,0.5,0.25,0.5,0.14,0.58,1.83,111.58,-5.4,0.8
1.3,0.75,0.0,0.5,1.75,1.75,2.75,1.0,7.5,4.5,7.5,5.75,5.75,7.25,-0.11,0.08,0.95,897.55,-3.3,-53.5,1.25,0.75,0.75,0.5,0.5,0.75,0.75,0.25,0.75,1.0,0.75,0.25,0.5,0.2,0.83,2.27,114.46,-8.9,9.6
1.32,0.75,0.0,0.75,2.25,3.0,3.5,1.0,7.75,5.0,7.5,4.75,5.5,6.5,-0.11,0.08,0.95,839.55,-3.2,-45.3,0.75,0.5,0.5,0.5,0.5,0.5,0.75,0.25,0.5,1.0,0.75,0.25,0.5,0.33,1.64,3.27,106.27,-6.9,-0.6
1.34,1.0,0.0,1.0,2.25,4.25,4.5,1.25,7.75,5.0,7.25,4.75,4.75,6.0,-0.11,0.08,0.95,784.61,-3.1,-37.7,0.75,0.5,0.5,0.5,0.5,0.5,0.75,0.5,0.5,1.0,1.0,0.25,0.75,0.33,3.08,3.2,108.68,-5.5,-7.9
1.36,1.0,0.25,1.0,2.25,4.75,4.75,1.5,7.75,5.5,6.25,5.0,3.25,5.5,-0.11,0.08,0.95,735.38,-2.8,-31.8,0.5,0.5,0.5,0.5,0.5,0.75,0.75,0.5,0.75,1.25,0.75,0.25,0.75,0.2,4.33,2.39,108.8,-3.2,-10.8
1.38,1.0,0.25,1.25,2.5,5.75,5.75,2.0,8.0,5.75,5.75,4.5,3.0,4.75,-0.11,0.08,0.95,708.82,-2.6,-24.9,0.5,0.5,0.75,0.5,0.5,0.5,0.5,0.5,0.5,1.25,0.75,0.25,0.75,-0.11,6.08,-0.55,109.27,-4.4,-9.5
1.4,1.75,0.75,1.75,2.5,5.75,6.25,2.25,8.0,6.0,5.25,4.0,2.75,4.0,-0.11,0.08,0.95,706.98,-1.5,-17.7,0.5,0.5,0.5,0.5,0.5,0.5,0.5,0.5,0.75,1.25,1.0,0.25,0.5,-1.48,7.45,-3.55,109.25,-4.4,-11.5
1.42,2.0,1.25,2.25,2.75,6.25,7.0,3.0,8.0,6.0,4.5,3.5,2.25,3.0,-0.11,0.08,0.95,708.92,-0.5,-8.8,1.0,0.5,0.5,0.5,0.5,0.75,0.5,1.5,0.75,1.5,1.0,0.5,1.25,0.2,-0.92,1.39,125.05,-1.4,-19.3
1.44,2.25,1.5,2.25,4.75,7.25,7.0,3.0,7.75,5.75,4.25,2.5,1.75,2.75,-0.11,0.08,0.95,727.43,0.1,-0.4,1.0,0.5,0.5,0.5,0.5,0.75,0.5,1.25,0.75,2.75,1.0,1.25,3.25,-0.3,0.77,1.2,155.92,1.5,-41.6
1.46,3.75,1.5,3.0,5.0,7.75,7.25,3.0,7.25,5.5,3.5,3.25,1.5,2.5,-0.11,0.08,0.95,765.94,2.0,5.5,0.25,0.5,0.5,0.5,0.5,0.5,0.25,2.0,1.0,6.25,0.75,4.25,6.25,0.7,1.02,2.95,231.5,5.4,-69.0
1.48,5.5,1.5,3.25,6.0,9.0,7.5,3.5,7.0,5.0,3.0,2.5,1.5,2.75,-0.11,0.08,0.95,826.37,3.3,12.6,1.25,0.0,0.5,0.5,0.5,2.5,0.75,3.75,2.0,7.25,1.0,6.5,7.75,-0.11,0.89,2.45,333.19,4.9,-62.9
1.5,6.25,1.5,2.75,6.75,9.5,7.75,3.5,6.5,4.75,2.5,2.25,1.5,2.25,-0.11,0.08,0.95,879.92,3.8,17.3,1.25,0.25,0.5,0.5,1.25,3.0,0.0,4.75,4.0,8.0,5.25,7.75,8.5,0.02,0.2,1.39,504.18,3.3,-61.3
1.52,7.75,1.5,6.0,8.25,11.5,8.0,3.75,5.75,4.0,2.25,1.5,1.5,2.25,-0.11,0.14,0.95,976.73,6.5,26.5,1.75,0.5,0.5,0.5,0.5,3.0,0.5,5.75,4.0,8.0,6.75,7.25,8.5,0.02,0.2,1.02,671.74,2.6,-59.9
1.54,9.0,1.75,6.0,9.75,12.0,8.0,3.5,5.5,3.25,2.0,1.25,1.5,2.25,-0.11,0.14,1.02,1071.9,7.2,30.8,1.5,0.75,0.5,0.0,0.5,1.75,0.75,5.75,3.5,7.0,6.0,6.25,8.5,0.08,0.14,0.95,762.83,2.7,-62.1
1.56,10.5,1.75,7.0,10.5,12.0,8.25,3.0,4.75,2.75,2.0,1.0,1.5,2.25,-0.11,0.14,1.02,1164.9,8.4,34.7,1.25,0.25,0.5,0.5,1.75,2.75,1.0,6.0,4.0,7.75,5.5,6.75,8.0,0.08,0.14,0.95,813.65,3.2,-57.1
1.58,11.5,2.25,8.5,12.5,13.5,8.25,1.0,4.25,2.25,2.0,2.0,1.5,2.25,-0.11,0.2,1.08,1277.27,9.2,37.2,1.25,0.5,0.5,0.5,0.5,3.0,0.75,5.75,4.0,7.5,5.25,6.25,8.0,0.14,0.14,0.89,809.66,3.4,-58.9
1.6,13.5,3.0,9.0,11.0,15.0,8.0,0.75,4.25,2.0,2.0,2.0,1.25,2.0,-0.11,0.2,1.08,1362.67,9.8,40.7,1.25,0.5,0.5,0.5,0.5,3.0,0.75,5.75,4.0,7.5,4.75,5.75,8.0,0.14,0.14,0.89,790.55,3.7,-58.1
1.62,16.0,3.25,10.0,12.5,15.0,8.0,0.0,4.25,2.0,2.0,1.75,1.25,1.75,-0.05,0.27,1.08,1445.73,11.0,44.1,1.25,0.5,0.5,0.5,0.5,3.0,0.75,5.75,4.75,7.5,4.75,5.5,7.75,0.08,0.14,0.95,764.74,3.4,-57.2
1.64,16.0,3.0,10.5,13.0,14.5,7.5,0.0,3.0,1.5,2.0,1.75,1.0,2.25,-0.11,0.33,1.2,1491.11,11.8,45.4,1.25,0.5,0.75,0.5,0.5,3.0,0.75,5.75,4.75,7.0,5.25,5.5,7.25,0.14,0.14,0.89,737.95,2.7,-55.8
1.66,18.0,3.5,11.0,12.0,13.0,6.75,0.0,2.5,1.5,2.0,1.5,1.25,2.0,-0.36,0.39,1.33,1509.6,13.4,47.9,1.25,0.75,0.75,0.5,0.5,3.5,0.75,6.0,5.25,6.75,5.0,4.5,6.5,0.08,0.14,0.89,695.34,2.8,-51.0
1.68,17.5,3.25,10.5,10.5,10.5,5.25,1.0,2.25,1.0,1.75,0.75,1.0,1.75,-0.36,0.52,1.45,1446.66,15.0,50.8,0.5,0.5,1.75,0.5,1.75,4.0,1.0,6.25,5.25,6.25,5.0,4.0,6.0,0.08,0.14,0.95,655.29,2.6,-45.1
1.7,15.0,3.25,9.75,8.5,9.0,3.5,2.75,2.25,1.0,1.75,0.5,0.75,1.5,-0.48,0.89,2.14,1326.29,15.9,50.6,1.25,0.5,1.5,1.0,2.5,5.0,1.25,6.5,5.75,5.75,5.0,3.25,5.0,0.08,0.14,0.95,620.04,2.1,-35.2
1.72,11.5,2.5,8.0,6.75,7.75,2.5,3.0,1.25,1.0,1.75,1.0,0.75,1.25,-1.05,1.39,2.7,1087.52,15.9,47.5,2.5,0.5,2.0,2.0,2.75,5.25,1.75,6.5,5.75,5.5,4.5,2.5,4.25,0.08,0.14,0.95,599.43,0.2,-24.0
1.74,8.5,1.5,5.25,4.75,6.0,2.25,1.0,1.0,1.0,1.75,0.75,0.75,1.75,-1.11,1.27,2.95,807.74,13.4,40.1,2.0,0.75,2.5,2.0,4.25,5.25,1.75,6.5,6.0,4.25,4.5,2.0,3.25,0.08,0.14,0.95,591.03,-0.5,-16.3
1.76,5.5,0.0,2.75,0.0,5.75,2.0,0.0,0.5,1.0,1.75,1.75,0.5,1.0,-0.73,0.33,3.45,513.76,9.0,26.5,3.0,1.0,3.0,3.0,4.75,5.75,2.25,6.5,5.75,4.25,3.25,1.75,3.25,0.08,0.14,0.95,615.01,-1.5,-7.1
1.78,2.25,0.0,1.0,0.0,2.25,0.25,0.0,0.0,1.0,1.75,0.0,0.5,0.25,-0.55,-0.48,2.14,276.03,8.9,17.1,3.5,1.5,3.25,3.25,5.75,6.25,3.0,6.0,5.75,3.25,3.25,1.25,2.25,0.08,0.14,0.95,647.11,-2.9,3.0
1.8,0.5,0.0,1.0,0.0,4.5,0.25,0.25,0.25,0.25,0.0,0.5,0.0,0.5,-0.92,0.02,2.27,116.99,3.9,33.4,3.75,1.5,4.75,5.5,6.5,6.25,3.25,5.75,5.5,2.75,2.75,0.75,2.0,0.08,0.14,0.95,695.48,-5.0,12.4
1.82,1.25,0.0,0.75,0.0,2.25,1.0,0.0,0.25,1.0,1.75,0.5,0.75,1.25,-0.67,-0.8,2.08,0.0,1.3,-9.7,5.0,2.25,5.75,7.25,7.0,6.5,4.0,5.25,4.75,2.5,2.25,0.5,1.5,0.08,0.14,0.95,766.13,-7.1,22.9
1.84,0.75,0.0,1.0,0.0,3.5,1.0,0.5,0.25,0.75,1.75,0.5,0.75,1.25,-0.42,-0.67,0.83,0.0,0.6,-3.5,5.75,2.5,6.75,9.25,7.5,6.75,4.25,4.75,4.0,2.25,2.0,0.5,1.5,0.08,0.14,0.95,852.35,-8.5,28.7
1.86,0.0,0.0,1.0,0.0,3.0,0.0,0.75,0.25,0.25,0.0,0.5,0.0,1.25,-0.42,-0.55,0.27,0.0,3.6,8.6,7.0,2.75,7.25,9.75,9.0,6.25,4.5,4.5,2.25,0.5,1.25,0.25,1.0,0.08,0.2,1.02,916.14,-10.3,40.8
1.88,0.0,0.0,0.0,0.0,2.25,0.0,0.0,0.0,0.25,0.0,0.0,0.0,0.5,-0.48,-0.42,0.2,0.0,-3.7,21.7,7.5,3.0,8.0,12.5,10.5,7.25,4.25,2.5,2.0,1.75,1.0,0.0,0.25,0.08,0.2,1.02,999.86,-10.9,46.4
1.9,0.75,0.0,1.0,1.0,3.0,0.75,0.75,0.25,1.0,1.25,0.5,0.75,2.25,-0.42,-0.3,0.39,0.0,2.5,-7.7,7.75,0.25,8.25,10.0,9.25,6.25,4.5,3.25,1.5,0.25,0.75,0.25,0.75,0.02,0.2,1.08,991.68,-11.9,44.7
1.92,0.0,0.0,0.75,0.0,2.5,0.25,0.5,0.0,1.0,1.75,0.0,0.5,0.5,-0.3,-0.3,0.77,0.0,0.5,-8.2,8.75,2.5,9.0,11.0,11.0,6.25,4.25,2.0,1.0,0.0,0.0,0.0,0.5,0.02,0.27,1.08,1006.89,-13.1,54.8
1.94,0.5,0.0,0.75,0.0,3.0,0.0,0.25,0.25,0.75,1.75,0.5,0.5,1.5,-0.23,-0.23,0.89,33.36,0.4,-14.7,9.0,4.0,9.0,12.5,11.0,6.75,4.0,2.0,1.0,0.25,0.0,0.0,0.5,-0.05,0.27,1.08,1032.3,-12.8,55.5
1.96,0.75,0.0,0.5,0.75,2.5,0.0,0.5,0.25,0.75,1.75,0.5,0.75,1.25,-0.23,-0.11,1.02,75.73,2.6,-11.8,9.25,4.5,9.5,11.5,11.0,6.5,4.0,2.0,0.75,1.25,0.0,0.5,0.5,0.02,0.33,1.14,1078.75,-12.7,53.0
1.98,0.25,0.0,0.75,0.75,2.5,0.0,0.5,0.25,0.75,1.75,0.5,0.5,1.0,-0.17,0.14,1.08,112.39,2.3,-10.1,9.25,5.75,10.0,12.5,11.0,6.25,5.0,1.75,1.0,1.25,0.5,0.0,1.25,0.14,0.45,1.14,1140.66,-13.0,52.3
2.0,1.0,0.0,0.75,0.0,2.5,0.0,0.5,0.25,0.75,1.5,0.5,0.5,1.5,-0.17,0.27,1.2,131.96,3.0,-11.4,11.5,5.75,10.5,12.0,8.75,6.0,6.25,1.25,0.75,1.25,0.0,0.5,0.5,0.2,0.52,1.14,1177.07,-15.5,56.4
2.02,0.75,0.0,0.5,1.0,3.0,0.0,0.5,0.5,0.75,1.75,0.5,0.5,1.5,-0.23,0.39,1.58,152.65,1.7,-7.6,11.0,5.75,10.5,11.0,8.0,4.0,7.25,1.25,1.0,1.25,0.75,0.25,1.25,0.2,0.7,1.14,1171.34,-16.5,53.1
2.04,0.25,0.0,0.5,0.25,2.5,0.0,0.5,0.25,0.75,1.75,0.5,0.0,1.25,-0.3,0.58,1.83,147.64,-0.5,-13.5,9.5,5.0,8.75,8.75,6.5,5.0,7.5,1.75,0.75,1.5,1.0,0.25,1.25,0.14,1.14,1.77,1085.81,-14.9,48.9
2.06,0.75,0.25,0.5,0.0,2.5,0.0,0.75,0.25,0.75,1.5,0.5,0.25,1.25,-0.42,0.83,2.08,143.73,2.2,-7.2,8.5,3.5,7.0,5.5,4.5,3.0,6.75,1.0,0.75,1.5,1.0,0.5,1.25,0.27,2.14,3.45,907.44,-16.4,45.9
2.08,0.25,0.0,0.5,0.75,2.5,0.0,0.25,0.25,0.75,1.25,0.25,0.25,1.25,-0.61,1.58,3.02,137.09,0.9,-7.2,7.0,2.25,5.5,3.25,0.5,3.0,4.5,0.75,0.75,1.25,0.75,0.25,1.0,0.33,1.52,3.27,662.16,-18.0,44.3
2.1,0.0,0.0,0.5,0.75,2.25,0.25,0.5,0.25,0.5,1.25,0.5,0.25,1.0,-0.92,3.14,3.52,133.48,0.3,-8.5,4.0,0.75,3.5,2.0,0.5,0.5,2.25,0.5,0.75,1.25,0.75,0.25,0.5,0.52,-0.17,3.45,407.24,-19.6,35.4
2.12,0.0,0.0,0.5,0.0,2.25,0.25,0.25,0.25,0.75,1.25,0.5,0.5,1.5,-1.23,4.77,3.14,124.89,-2.0,-25.6,0.5,0.0,2.0,0.5,0.0,0.5,0.75,0.25,0.25,1.0,0.0,0.25,0.75,-0.17,0.08,-0.73,222.01,-12.4,3.2
2.14,0.75,0.0,0.5,0.0,2.5,0.0,0.5,0.25,1.0,1.25,0.5,0.0,1.25,-0.61,6.39,-2.23,119.28,2.1,-6.8,0.75,0.0,2.0,0.5,1.5,0.5,1.0,0.5,0.25,0.0,0.75,0.0,0.0,0.77,-0.48,2.33,86.44,-15.2,35.3
2.16,0.0,0.0,0.0,0.0,2.25,0.0,0.0,0.25,0.5,0.0,0.0,0.0,0.25,1.33,7.89,-3.05,99.26,-2.8,22.8,2.5,0.5,0.5,0.75,0.25,1.25,1.0,0.25,0.75,1.25,0.0,0.25,0.25,0.52,-1.05,2.27,0.0,-10.4,26.7
2.18,0.25,0.0,0.0,0.0,1.75,1.0,0.0,0.25,0.25,0.5,0.0,0.75,0.5,1.52,4.08,-1.55,84.81,-5.4,-5.8,2.0,0.5,1.75,0.5,1.0,0.5,1.0,0.5,0.75,0.5,1.0,0.0,0.5,0.27,-0.98,1.45,0.0,-14.6,24.8
2.2,0.25,0.0,0.5,0.0,2.5,0.0,0.0,0.0,0.25,0.75,0.0,0.0,0.5,-1.48,-0.98,2.27,72.44,0.4,16.7,0.75,0.25,0.5,0.75,0.25,0.5,0.75,0.5,0.25,0.0,0.25,0.0,0.5,0.2,-0.55,0.64,0.0,-10.4,22.2
2.22,0.0,0.0,0.5,0.25,2.25,1.0,0.25,0.5,0.75,2.75,0.5,1.5,1.75,-2.73,-2.8,3.08,104.21,-4.1,-35.4,0.5,0.0,0.5,0.0,0.25,0.5,0.75,0.25,0.25,0.0,0.0,0.0,0.0,0.08,-0.17,0.64,0.0,-13.3,38.2
2.24,0.0,0.0,0.5,0.25,2.5,1.75,0.25,2.25,1.0,5.75,0.75,4.75,4.5,0.39,1.08,0.64,194.8,-6.0,-56.3,0.0,0.0,0.5,0.0,0.25,0.5,0.75,0.25,0.25,0.0,0.0,0.0,0.25,0.02,-0.11,0.58,0.0,-6.2,10.5
2.26,0.25,0.0,0.0,0.75,2.25,2.0,0.75,4.75,5.0,7.75,5.0,8.0,6.5,0.14,1.08,0.77,351.36,-3.0,-61.9,0.0,0.0,0.25,0.0,0.25,0.5,0.25,0.25,0.25,0.0,0.0,0.0,0.25,-0.05,0.08,0.58,0.0,1.4,1.6
2.28,1.25,0.0,0.0,1.0,2.25,2.25,1.5,6.5,5.0,7.75,7.25,7.5,8.25,0.08,0.14,0.95,569.71,-2.4,-58.2,0.0,0.0,0.5,0.0,0.25,0.0,0.25,0.25,0.25,0.0,0.0,0.0,0.0,-0.05,0.14,0.64,0.0,-15.1,21.7
2.3,0.75,0.0,1.0,0.0,2.25,2.25,1.5,7.0,5.0,7.5,6.5,7.25,8.25,-0.11,0.08,0.95,756.74,-2.6,-58.9,0.75,0.5,0.25,0.75,0.25,1.25,0.25,0.25,0.75,1.0,0.0,0.25,0.25,0.02,0.14,0.83,0.0,-2.8,11.0
2.32,0.0,0.0,1.0,0.0,2.5,2.5,1.5,7.25,4.75,7.5,6.5,7.25,8.25,-0.11,0.08,0.95,870.15,-3.4,-60.1,0.0,0.0,1.0,0.0,0.25,0.5,0.5,0.25,0.25,0.0,0.0,0.0,0.25,0.14,0.2,1.02,10.61,-11.0,19.1
2.34,0.75,0.0,1.0,1.0,2.5,2.5,1.0,7.25,5.0,8.0,6.5,7.25,8.25,-0.11,0.08,0.95,928.97,-2.7,-55.9,0.75,0.5,0.25,0.5,0.25,0.75,0.75,0.5,0.75,1.25,0.0,0.25,0.5,0.27,0.33,1.39,53.63,-3.1,-1.6
2.36,0.25,0.0,0.75,0.25,2.25,2.5,1.0,7.25,5.0,8.0,6.5,7.25,8.25,-0.11,0.08,0.95,941.32,-3.6,-60.5,0.0,0.0,0.5,0.0,0.5,0.5,0.75,0.25,0.25,0.0,0.0,0.0,0.0,0.45,0.45,1.52,54.0,-7.2,28.5
2.38,0.5,0.0,0.5,1.25,2.5,2.5,1.0,7.25,5.5,8.0,6.5,7.0,8.0,-0.11,0.08,0.95,948.1,-3.0,-56.5,0.0,0.0,0.0,0.0,0.0,0.0,0.0,0.25,0.0,0.0,0.0,0.0,0.0,0.58,0.64,1.64,35.93,16.7,-38.7
2.4,0.75,0.0,1.0,1.75,2.5,2.5,1.0,7.25,5.5,8.0,6.75,6.5,7.5,-0.11,0.08,0.95,945.53,-2.2,-52.4,0.0,0.25,0.0,0.0,0.0,0.25,0.25,0.25,0.0,0.0,0.0,0.0,0.0,0.58,0.83,2.08,15.42,2.8,31.4
2.42,0.5,0.0,0.75,2.0,1.75,3.0,1.25,7.25,5.75,7.5,6.5,5.75,7.0,-0.11,0.08,0.95,908.23,-2.4,-52.1,0.0,0.0,0.0,0.0,0.0,1.0,0.0,0.25,0.75,1.25,0.0,0.5,0.0,0.7,1.39,2.7,23.0,8.6,-42.1
2.44,0.5,0.25,0.75,1.75,2.5,3.5,1.5,7.25,6.0,6.75,6.5,5.25,6.5,-0.11,0.08,0.95,855.82,-2.3,-47.3,0.0,0.0,0.5,0.0,0.5,0.5,0.75,0.5,0.25,0.75,0.75,0.25,0.5,0.77,2.64,3.02,43.22,-0.9,-27.6
2.46,1.0,0.0,1.0,1.75,2.5,3.75,1.5,7.25,6.25,5.75,6.0,4.5,5.5,-0.11,0.08,0.95,777.84,-1.6,-42.3,4.5,1.0,1.25,2.0,0.5,0.5,0.75,0.5,0.5,1.25,1.0,0.5,1.25,-2.67,6.77,-7.98,117.58,-14.6,24.5
2.48,1.75,0.75,1.75,2.5,3.5,3.5,2.25,7.25,6.75,5.5,5.75,3.0,4.75,-0.11,0.08,0.95,711.64,0.4,-28.7,4.25,0.5,3.0,2.0,0.25,0.5,1.75,0.25,0.25,1.0,0.5,0.25,1.0,-1.55,7.89,-4.23,174.89,-20.0,36.6
2.5,2.0,0.75,2.25,2.75,5.75,5.0,2.5,7.25,6.75,4.5,5.25,3.0,4.25,-0.11,0.08,0.95,686.29,0.6,-18.5,1.25,0.25,1.75,0.0,0.5,0.5,1.25,0.5,0.75,2.0,1.0,3.25,1.5,0.02,-2.8,1.08,209.97,-7.7,-34.8
2.52,2.0,1.25,3.0,3.75,5.75,5.5,3.0,7.25,6.75,4.25,4.5,2.0,3.25,-0.11,0.08,0.95,698.18,1.6,-9.2,1.75,0.5,1.5,0.5,0.5,0.5,0.75,2.0,2.0,4.25,3.25,4.5,7.0,3.14,-6.92,3.95,283.63,-1.0,-55.9
2.54,3.5,1.25,3.5,3.5,6.25,5.5,3.25,7.0,6.25,3.5,4.0,1.75,2.75,-0.11,0.08,0.95,721.82,3.1,-1.6,1.5,0.75,1.75,0.0,1.0,0.0,1.25,2.25,2.75,4.0,3.5,3.25,4.75,0.02,0.83,2.77,334.25,-2.8,-47.3
2.56,5.5,1.25,3.75,4.25,7.75,6.25,3.5,6.5,5.75,3.0,3.0,1.5,2.25,-0.11,0.08,0.95,759.01,4.4,9.6,2.0,0.75,1.75,0.5,0.25,1.25,0.75,2.25,2.25,3.5,3.5,2.5,4.0,-0.23,0.45,0.83,373.88,-2.9,-38.5
2.58,6.0,1.25,3.5,6.25,7.75,6.75,3.5,6.0,5.25,2.25,2.0,1.5,2.25,-0.11,0.08,0.95,792.03,5.0,15.9,2.0,0.5,1.75,0.5,0.5,0.25,0.75,2.0,2.5,4.0,3.25,2.0,3.25,-0.05,0.08,0.95,373.64,-4.1,-38.3
2.6,7.25,1.5,4.5,6.75,9.25,7.0,3.25,5.5,4.25,2.25,2.0,1.5,2.25,-0.11,0.14,0.95,847.09,6.1,21.9,2.0,0.5,1.0,0.75,0.5,2.0,1.0,3.0,2.75,4.25,2.75,2.0,3.75,0.08,0.14,0.89,381.98,-0.1,-36.5
2.62,8.25,1.75,4.0,8.25,9.5,7.25,3.0,5.0,3.75,2.25,1.75,1.5,2.25,-0.11,0.14,1.02,902.84,6.5,25.7,2.25,0.5,1.5,0.5,0.5,1.25,1.0,3.25,3.25,4.25,3.0,1.75,3.25,0.02,0.2,0.95,374.44,-2.0,-34.4
2.64,9.75,1.75,6.0,9.25,12.0,7.25,2.25,4.25,3.0,2.0,1.25,1.25,2.25,-0.11,0.14,1.02,992.6,8.0,33.5,0.75,0.0,1.5,0.0,1.0,0.0,1.0,3.25,3.5,3.0,3.25,1.5,2.75,0.02,0.14,0.89,353.83,-2.1,-45.6
2.66,10.5,2.75,8.0,10.5,12.0,7.25,0.25,4.25,2.25,2.0,2.0,1.5,2.25,-0.11,0.2,1.08,1099.01,9.1,35.7,1.75,0.75,1.75,1.0,1.0,2.75,1.0,4.25,4.75,5.5,4.5,3.0,4.0,0.02,0.2,0.95,394.36,-0.6,-36.7
2.68,12.5,3.0,8.75,10.5,12.5,7.0,0.0,4.25,2.0,2.0,2.0,1.25,2.25,-0.11,0.2,1.08,1210.85,10.1,38.8,2.25,0.25,1.75,0.5,0.5,3.0,1.25,4.75,5.25,5.75,5.25,3.25,5.0,0.02,0.14,0.95,450.87,-0.3,-42.4
2.7,14.0,3.5,9.0,11.0,13.5,7.25,0.0,4.25,2.0,1.75,2.0,1.5,2.25,-0.11,0.27,1.14,1320.52,10.5,40.7,2.0,1.0,2.0,0.75,0.5,3.0,1.25,5.75,6.25,5.5,6.5,2.75,5.0,0.08,0.08,0.95,526.65,-0.9,-39.1
2.72,16.5,4.5,10.0,12.5,13.0,7.0,0.0,2.5,1.75,2.0,2.0,1.25,2.25,-0.23,0.33,1.14,1400.24,12.5,45.9,2.25,0.75,3.0,1.5,2.75,5.0,2.0,5.75,6.5,4.5,6.25,2.0,3.5,0.08,0.14,0.95,597.03,-1.9,-21.5
2.74,17.0,4.5,11.0,12.5,12.0,5.75,0.0,2.75,1.25,2.0,1.75,1.25,2.0,-0.17,0.39,1.14,1444.91,13.8,47.7,3.5,1.5,4.75,3.25,4.5,5.5,3.0,5.5,6.5,3.5,5.25,1.5,2.5,0.08,0.14,0.95,685.12,-5.1,-1.8
2.76,17.5,4.75,11.0,12.0,10.5,4.5,1.5,2.25,1.0,1.75,1.25,0.75,2.0,-0.05,0.58,1.58,1445.04,15.5,51.3,5.75,2.0,6.25,5.5,6.5,6.25,4.0,5.5,5.25,2.75,3.25,0.75,1.75,0.08,0.14,0.95,778.06,-7.4,18.0
2.78,16.5,5.0,11.0,11.0,9.0,3.5,3.75,2.25,1.0,1.75,0.75,0.75,2.0,-0.3,0.64,1.45,1401.73,16.5,51.5,7.75,3.0,8.0,9.0,8.0,6.75,5.25,3.25,2.75,2.25,2.5,0.5,1.5,0.14,0.2,0.95,919.38,-10.6,34.6
2.8,15.5,4.5,10.0,7.5,7.75,2.0,5.0,2.25,1.0,1.75,0.75,1.0,2.0,-0.36,0.83,1.58,1296.27,17.4,49.2,9.5,3.0,8.75,8.75,9.25,6.25,5.25,1.25,1.75,1.5,1.0,0.5,1.5,0.2,0.33,1.58,1022.24,-12.9,45.3
2.82,13.0,4.5,9.0,6.75,5.75,1.5,5.5,1.25,1.0,1.75,1.25,0.5,2.0,-0.42,1.08,1.95,1105.18,18.2,48.6,10.5,4.75,9.5,7.75,9.25,4.5,4.0,2.5,1.25,1.5,0.75,0.5,1.25,0.45,0.58,1.89,1089.29,-13.8,48.4
2.84,10.5,3.25,6.5,4.5,4.25,1.0,4.0,0.5,0.25,1.75,0.75,0.75,1.5,-0.8,1.39,2.58,846.6,18.6,48.9,10.0,4.5,9.5,5.5,6.75,3.0,5.25,2.0,1.0,1.25,0.25,0.5,0.5,1.14,0.95,2.39,1036.93,-16.7,52.8
2.86,8.25,1.5,1.25,1.0,3.5,0.0,0.25,0.25,1.0,1.25,0.75,0.5,1.25,-0.36,2.02,3.33,543.48,15.8,42.0,9.0,3.25,8.0,3.25,5.0,0.75,6.5,2.0,1.0,1.25,1.0,0.5,1.75,1.64,1.58,3.95,907.54,-17.8,42.8
2.88,3.5,0.75,0.75,0.0,2.25,0.0,0.0,0.25,0.25,2.0,0.0,0.5,0.0,-0.8,2.27,1.58,290.83,11.2,34.3,6.25,0.75,5.5,0.5,2.75,0.75,4.5,1.0,0.75,1.25,0.75,0.0,0.75,1.64,1.45,4.39,657.88,-19.4,41.8
2.9,1.75,0.25,1.0,0.0,2.5,0.0,0.5,0.25,0.75,1.75,0.5,0.5,0.25,-1.36,3.45,4.02,134.56,8.1,11.9,2.25,0.5,2.0,0.0,0.25,0.5,1.25,1.0,0.75,1.25,0.25,0.5,0.5,-0.05,1.2,3.14,384.4,-13.5,13.5
2.92,1.75,0.0,1.0,0.0,3.0,0.5,0.5,0.0,0.75,1.5,0.5,0.75,0.0,-0.55,1.83,2.27,17.4,7.6,16.5,0.5,0.5,2.0,0.75,0.5,0.5,0.75,1.0,0.25,0.0,1.0,0.0,1.25,0.08,0.52,1.89,222.65,-10.6,7.0
2.94,1.5,0.0,1.0,0.0,3.0,1.5,0.5,0.0,0.75,1.75,0.5,0.5,1.0,-0.3,1.77,0.27,0.0,2.4,6.2,1.25,0.5,1.75,0.5,0.5,0.5,0.75,0.75,0.75,1.25,1.0,0.25,1.5,0.02,1.58,2.45,111.87,-8.4,-5.4
2.96,1.75,0.0,0.75,0.0,2.5,1.25,0.5,0.25,0.75,0.5,0.5,0.5,1.25,-0.36,1.14,-0.48,0.0,4.4,9.5,1.25,0.75,1.75,0.5,0.5,0.75,0.75,0.5,0.75,1.25,1.0,0.5,1.5,-0.36,0.2,1.58,51.09,-8.4,-3.8
2.98,1.75,0.0,1.0,0.0,2.5,1.0,0.5,0.0,0.75,0.25,0.5,0.75,1.25,-0.3,0.64,-0.61,0.0,7.0,10.6,0.5,0.75,1.75,0.75,0.5,0.5,0.75,0.5,0.75,1.25,1.0,0.25,1.25,-2.61,0.2,0.83,20.99,-8.1,-4.8
3.0,1.75,0.0,1.0,0.0,2.5,1.75,0.75,0.0,0.75,0.5,0.5,0.75,1.5,0.27,0.14,-0.3,0.0,4.5,7.7,1.25,0.25,1.75,0.75,0.5,0.5,0.75,0.75,0.75,1.0,1.0,0.5,1.25,-1.55,0.83,0.58,14.56,-9.7,-4.7
3.02,1.25,0.0,0.75,0.0,3.0,0.75,0.5,0.25,0.75,0.75,0.75,1.0,1.5,0.7,-0.3,-0.05,30.55,3.4,-4.4,0.75,0.5,1.5,0.5,0.5,0.5,0.75,0.75,0.75,1.25,1.0,0.25,1.25,-0.48,-0.36,0.64,11.85,-7.0,-9.3
3.04,1.25,0.0,0.75,0.0,2.5,1.0,0.5,0.25,0.5,1.25,0.75,0.75,1.75,0.64,-0.92,-0.05,67.36,1.6,-9.1,1.0,0.5,1.75,0.5,0.5,0.5,0.75,0.75,0.75,1.25,0.75,0.5,1.25,1.2,-2.05,1.89,27.34,-8.3,-6.0
3.06,1.25,0.0,0.75,0.0,2.5,1.25,0.5,0.25,0.75,1.25,0.5,0.75,1.75,0.83,-1.23,0.02,103.23,1.2,-7.4,0.5,0.5,1.75,0.5,0.25,0.75,0.75,0.75,0.75,1.25,0.5,0.5,1.5,1.39,-4.23,4.14,48.11,-6.1,-12.7
3.08,1.0,0.25,0.75,0.0,2.25,0.75,0.75,0.25,0.75,0.5,1.0,1.0,1.5,0.89,-1.3,0.39,132.08,4.4,-8.5,0.75,0.75,1.0,0.5,0.5,0.5,0.5,0.75,0.75,1.25,0.75,0.5,1.75,-0.61,-4.3,3.02,80.39,-4.1,-16.6
3.1,1.0,0.0,1.0,0.0,2.5,0.75,0.5,0.25,0.5,1.0,1.0,1.0,1.5,0.58,-1.17,0.64,152.98,3.4,-10.5,1.0,0.75,0.75,0.5,0.5,1.0,0.25,1.0,0.75,1.25,1.0,0.5,1.25,1.83,-1.61,-2.55,110.3,-3.0,-11.4
3.12,0.5,0.0,0.75,1.0,2.5,1.0,0.25,0.25,0.5,1.5,1.0,0.75,1.5,0.45,-1.3,1.14,163.6,0.9,-10.4,1.0,0.25,1.5,0.5,0.5,1.0,0.25,1.0,0.75,1.25,1.0,0.5,1.25,2.2,-0.55,-4.73,138.48,-5.0,-11.5
3.14,0.0,0.0,0.75,0.0,2.25,0.0,0.0,0.0,0.0,0.0,0.0,0.0,0.5,0.39,-1.48,1.33,131.59,3.5,33.3,0.25,0.0,1.75,0.0,0.5,0.5,0.5,1.0,0.5,0.0,0.75,0.25,0.5,0.27,-0.11,-2.86,132.82,-10.2,-1.6
3.16,0.0,0.0,0.5,0.0,2.25,0.0,0.0,0.25,0.75,1.25,0.0,0.5,0.5,0.2,-1.55,1.39,110.03,-0.9,-11.4,1.25,0.5,1.75,0.5,0.5,0.5,0.25,0.5,0.75,1.25,0.25,0.5,1.5,-0.8,-0.73,-1.92,133.68,-8.3,-2.9
3.18,0.75,0.0,1.25,0.0,2.25,0.5,0.25,0.25,0.75,2.0,1.0,0.75,1.5,-0.05,-1.23,1.27,113.6,2.4,-18.2,1.25,0.25,1.5,0.5,0.5,0.5,0.5,0.5,0.75,1.25,0.75,0.5,1.0,-1.86,-1.05,-1.8,130.1,-9.0,-4.9
3.2,0.75,0.0,1.0,0.0,2.5,1.0,0.25,0.25,0.5,2.0,0.75,0.5,1.5,-0.05,-0.67,1.14,130.16,-0.1,-12.2,1.25,0.75,0.5,0.25,0.25,0.5,0.75,0.5,0.75,1.25,1.0,0.5,1.5,-2.92,-0.48,-1.67,133.22,-5.2,-17.2
3.22,1.0,0.0,1.0,0.0,1.75,1.0,0.0,0.0,0.0,1.5,0.0,1.0,0.5,-0.05,-0.61,0.83,131.42,2.7,1.9,1.25,0.5,1.5,0.5,0.25,0.5,0.5,0.5,0.75,1.0,1.0,0.5,1.5,-2.23,0.02,-0.8,137.64,-9.0,-9.2
3.24,0.5,0.0,1.0,0.25,2.25,0.0,0.5,0.25,0.5,1.75,0.25,1.25,1.0,-0.23,1.2,-4.67,135.83,3.4,-16.5,1.25,0.25,1.25,0.5,0.25,0.5,0.5,0.5,0.75,1.25,1.0,0.5,1.5,-0.55,0.02,-0.55,140.69,-7.5,-15.7
3.26,0.75,0.0,1.0,0.0,2.25,0.0,0.25,0.25,0.75,1.25,1.0,0.5,1.5,-3.23,5.89,-7.98,135.43,3.9,-16.0,1.0,0.5,1.0,0.5,0.25,0.75,0.5,0.75,0.5,1.25,0.25,0.5,1.75,-0.11,0.2,-0.98,139.45,-3.7,-14.1
3.28,0.75,0.0,0.75,0.5,2.5,0.25,0.25,0.25,0.5,1.25,1.0,0.0,1.5,-3.55,4.7,-6.48,136.4,2.4,-5.5,0.75,0.5,0.75,0.5,0.5,0.75,0.25,0.5,0.5,1.25,0.75,0.5,1.5,0.14,0.39,-1.48,135.09,-2.7,-17.5
3.3,0.5,0.0,0.75,0.5,2.25,0.0,0.25,0.25,0.5,1.75,0.5,0.75,1.5,-1.42,2.39,0.02,138.47,1.5,-18.7,0.5,0.5,0.5,0.5,0.5,1.0,0.25,1.0,0.75,1.25,0.25,0.5,1.25,-0.11,0.7,-1.48,131.75,0.6,-17.4
3.32,0.75,0.0,1.0,0.5,2.5,0.25,0.25,0.25,0.25,1.5,0.75,0.75,1.5,-1.11,0.64,1.27,146.8,2.8,-10.5,0.75,0.75,0.75,0.5,0.25,1.25,0.25,1.25,0.5,1.25,0.75,0.5,1.25,-0.17,0.58,-1.17,133.93,-0.8,-13.3
3.34,0.5,0.0,1.0,0.0,2.25,0.25,0.5,0.25,0.25,1.5,0.75,0.25,1.5,-0.42,-1.8,0.33,144.59,1.5,-13.4,1.0,0.5,0.75,0.5,0.5,1.0,0.0,1.25,0.5,1.25,0.75,0.5,1.25,0.02,0.52,-0.67,137.14,-1.4,-13.2
3.36,0.75,0.0,1.75,0.0,2.25,0.0,0.5,0.25,0.75,1.75,1.0,0.75,2.0,1.7,-3.3,-0.86,155.24,4.9,-19.1,1.0,0.5,0.5,0.5,0.5,1.0,0.25,1.25,0.5,1.25,0.75,0.5,1.5,0.33,0.27,-0.42,142.05,-0.4,-17.2
3.38,0.75,0.0,2.0,0.0,2.25,0.0,0.5,0.25,0.75,1.75,0.5,1.0,2.25,3.33,-2.48,-0.86,166.24,5.1,-19.0,0.5,0.5,0.5,0.5,0.25,1.25,0.25,1.5,0.5,1.25,0.75,0.5,1.25,0.45,0.02,-0.05,142.5,1.7,-21.8
3.4,1.0,0.0,1.75,0.25,2.25,0.25,0.25,0.25,0.5,1.25,0.75,0.25,1.5,2.64,-1.73,-0.8,165.69,6.4,-0.7,0.75,0.5,0.5,0.5,0.25,1.25,0.0,1.75,0.5,1.25,0.75,0.5,1.25,0.27,0.2,-0.17,140.33,1.7,-20.0
3.42,0.75,0.0,1.25,0.25,2.25,0.25,0.5,0.25,0.75,1.75,1.0,0.75,2.0,0.7,-0.55,-1.73,166.76,3.2,-19.8,0.75,0.5,0.5,0.5,0.5,1.75,0.0,1.75,0.5,1.25,0.75,0.5,1.25,0.45,0.83,-0.98,144.0,2.7,-15.5
3.44,0.75,0.0,1.0,0.0,2.5,0.75,0.25,0.25,0.75,1.5,1.0,0.75,1.75,-1.23,0.45,-1.42,168.79,1.3,-16.6,0.75,0.5,0.5,0.5,0.5,1.75,0.0,0.25,0.25,1.25,1.0,0.25,1.5,0.64,1.02,-1.05,141.52,1.0,-12.8
3.46,0.5,0.0,1.0,0.25,2.25,0.5,0.25,0.25,0.75,1.75,0.75,0.25,1.5,-0.73,0.58,-1.23,165.16,1.0,-13.6,0.5,0.0,0.5,0.0,0.25,0.5,0.25,0.25,0.0,0.0,0.75,0.0,0.5,0.58,1.02,-0.92,112.07,-7.3,-2.7
3.48,0.75,0.0,0.75,0.0,2.25,0.0,0.25,0.25,0.5,1.75,0.75,0.75,2.0,0.02,0.95,-1.11,157.27,0.9,-25.9,1.0,0.5,0.0,0.5,0.0,1.5,0.0,0.25,0.25,0.0,1.0,0.0,1.5,0.45,1.02,-0.67,98.24,-0.6,-6.3
3.5,0.5,0.25,1.0,0.25,2.25,0.0,0.5,0.25,0.75,1.75,0.75,0.5,1.75,0.33,0.89,-0.98,154.59,2.5,-17.1,0.75,0.5,0.0,0.25,0.0,1.5,0.0,0.0,0.25,0.0,0.0,0.5,0.5,0.27,1.02,-0.67,75.75,-0.8,15.0
3.52,0.75,0.0,1.0,0.0,2.25,0.5,0.5,0.25,0.75,2.0,0.75,0.5,1.5,0.58,0.58,-0.8,153.77,1.5,-16.2,0.0,0.0,0.5,0.0,0.25,0.5,0.0,0.0,0.25,0.0,0.25,0.0,1.25,0.08,0.77,-0.73,58.18,1.3,-34.8
3.54,0.75,0.0,1.0,0.25,2.25,0.75,0.5,0.25,0.5,1.75,0.75,0.75,1.5,0.64,0.27,-0.61,155.79,1.7,-13.6,1.0,0.5,0.0,0.5,0.0,1.5,0.0,0.25,0.25,1.25,0.75,0.5,1.25,0.08,0.64,-0.86,66.09,1.3,-18.7
3.56,0.75,0.0,0.75,0.25,2.25,0.75,0.5,0.25,0.5,1.5,0.75,0.25,1.5,0.64,0.14,-0.42,153.56,0.8,-9.2,0.75,0.0,0.5,0.5,0.5,2.5,0.0,0.5,0.5,1.0,0.75,0.5,1.5,0.02,0.45,-0.98,88.96,3.1,-16.0
3.58,0.75,0.0,0.75,0.0,2.25,0.75,0.5,0.25,0.0,1.25,1.0,0.5,1.5,0.64,0.2,-0.48,148.61,0.7,-12.1,1.5,0.5,0.5,0.0,0.5,1.25,0.0,0.75,0.25,1.25,0.75,0.5,1.25,0.02,0.52,-0.98,109.56,-1.3,-10.4
3.6,0.75,0.0,0.75,0.25,2.25,1.0,0.5,0.25,0.75,1.0,0.75,0.0,1.5,0.45,0.77,-0.73,143.2,1.2,-3.0,0.5,0.25,0.5,0.5,0.25,1.25,0.0,0.75,0.25,1.25,0.75,0.5,1.5,0.02,0.45,-0.86,119.05,2.1,-27.1
3.62,0.75,0.0,0.75,0.25,2.25,0.75,0.25,0.25,0.5,1.25,0.75,0.0,1.25,0.33,0.95,-0.8,138.82,1.0,-2.3,0.75,0.5,0.5,0.5,0.5,1.25,0.0,0.25,0.25,1.25,0.5,0.5,1.5,-0.11,0.27,-0.86,124.55,0.1,-14.7
3.64,0.75,0.0,0.75,1.0,2.25,1.0,0.5,0.25,0.5,2.0,0.5,0.0,1.25,0.2,1.02,-0.73,144.82,0.7,-0.3,0.5,0.25,0.5,0.25,0.5,0.75,0.25,0.25,0.25,1.25,0.75,0.5,1.25,-0.11,0.39,-0.98,117.99,-0.4,-26.2
3.66,0.5,0.0,0.5,0.25,2.25,0.75,0.5,0.25,0.25,1.25,0.5,0.0,1.25,0.02,0.95,-0.61,137.83,-1.1,-3.5,1.25,0.5,0.5,0.0,0.25,0.75,0.0,0.25,0.25,1.0,0.75,0.5,1.25,-0.17,0.58,-1.05,114.4,-3.8,-15.1
3.68,0.5,0.0,0.75,0.75,2.5,1.0,0.25,0.25,0.5,1.25,0.5,0.25,1.25,0.02,0.89,-0.48,141.73,0.4,0.0,0.75,0.75,0.5,0.25,0.25,1.25,0.25,0.5,0.5,1.0,0.75,0.5,1.0,-0.23,0.52,-0.98,118.6,-1.7,-10.6
3.7,0.5,0.0,0.5,0.25,2.25,1.0,0.5,0.25,0.25,1.25,0.5,0.25,1.25,0.2,0.83,-0.36,136.29,-1.4,-5.5,0.5,0.5,0.5,0.0,0.5,0.5,0.0,0.5,0.25,0.0,0.75,0.0,1.25,-0.11,0.45,-0.92,110.65,-2.7,-9.4
3.72,0.25,0.0,0.0,0.25,1.25,1.0,0.0,0.25,0.5,0.25,0.5,0.25,1.25,0.27,0.83,-0.23,119.37,-4.4,-17.8,0.0,0.0,0.25,0.0,0.0,0.5,0.0,0.25,0.0,0.0,0.25,0.0,0.5,-0.05,0.39,-0.86,79.87,5.5,-30.3
3.74,0.5,0.0,0.0,0.25,3.0,1.0,0.5,0.25,0.5,0.75,0.0,0.0,0.25,0.33,0.95,-0.3,109.28,-2.5,24.0,0.0,0.0,0.0,0.0,0.0,0.5,0.0,0.25,0.0,0.0,0.0,0.0,0.5,-0.11,0.45,-0.86,49.38,17.8,-40.5
3.76,0.5,0.0,0.5,0.25,2.25,1.0,0.0,0.0,0.5,1.5,0.0,0.0,0.25,0.33,0.89,-0.42,102.64,-1.5,14.6,0.75,0.5,0.0,0.5,0.0,1.25,0.0,0.25,0.25,1.0,0.0,0.5,0.0,-0.11,0.52,-0.92,42.84,-0.1,8.2
3.78,0.5,0.0,0.5,0.5,2.25,0.75,0.25,0.25,0.25,0.75,0.5,0.5,1.25,0.39,0.7,-0.55,107.84,0.3,-4.0,1.75,0.5,0.5,0.0,0.25,1.0,0.0,0.5,0.25,1.0,0.75,0.25,1.0,0.02,0.52,-0.86,57.7,-4.6,-1.2
3.8,0.25,0.0,0.75,0.75,2.25,1.0,0.5,0.25,0.5,1.25,0.5,0.25,1.25,0.52,0.45,-0.8,119.24,0.0,-3.6,0.75,0.5,0.5,0.5,0.25,1.0,0.0,0.5,0.25,1.25,0.75,0.5,1.0,0.08,0.52,-0.86,81.7,-1.3,-15.1
3.82,0.5,0.0,0.5,0.5,2.25,0.5,0.25,0.25,0.25,1.25,0.5,0.25,1.0,0.58,0.45,-0.86,124.61,0.2,-2.9,0.75,0.5,0.5,0.25,0.25,1.0,0.0,0.5,0.25,1.0,0.75,0.5,0.75,0.02,0.52,-0.86,98.45,-1.9,-12.1
3.84,0.25,0.0,0.5,1.0,2.25,1.0,0.5,0.25,0.5,1.25,0.5,0.0,1.25,0.7,0.52,-0.86,130.87,-0.7,-0.8,0.5,0.5,0.5,0.5,0.0,0.5,0.0,0.25,0.25,1.0,0.0,0.5,0.5,0.08,0.45,-0.86,96.03,-4.2,-6.2
3.86,0.25,0.0,0.5,0.25,2.25,1.0,0.25,0.25,0.5,1.0,0.5,0.0,1.25,0.7,0.45,-0.73,128.57,-2.4,-4.6,0.0,0.75,0.5,0.0,0.25,0.75,0.0,0.25,0.25,1.0,0.75,0.5,1.0,0.02,0.52,-0.92,91.93,1.0,-28.1
3.88,0.25,0.0,0.5,0.25,2.25,1.0,0.5,0.25,0.5,0.75,0.5,0.0,1.25,0.64,0.39,-0.55,126.64,-1.5,-1.9,0.75,0.25,0.5,0.5,0.25,0.75,0.0,0.25,0.25,1.0,1.0,0.5,1.25,-0.11,0.58,-0.86,94.68,-2.7,-23.2
3.9,0.25,0.0,0.5,0.25,2.25,1.0,0.5,0.25,0.5,1.25,0.5,0.0,1.0,0.58,0.39,-0.42,125.71,-2.0,-3.0,0.75,0.25,0.5,0.0,0.5,0.75,0.0,0.25,0.25,1.0,0.75,0.5,1.25,-0.05,0.39,-0.8,99.08,-1.0,-24.3
3.92,0.5,0.0,0.25,0.0,2.5,1.0,0.25,0.25,0.0,0.0,0.5,0.0,1.0,0.58,0.52,-0.48,117.3,-2.1,14.3,1.0,0.25,0.5,0.5,0.5,0.75,0.0,0.25,0.25,1.25,0.75,0.25,1.25,0.02,0.39,-0.86,108.43,-2.4,-13.7
3.94,0.25,0.0,1.0,0.0,1.75,0.0,0.25,0.0,0.25,0.0,0.0,0.0,1.25,0.52,0.7,-0.55,103.16,6.1,9.3,0.75,0.5,0.25,0.5,0.25,0.75,0.0,0.25,0.25,1.0,0.75,0.5,1.0,-0.05,0.45,-0.86,112.61,-2.0,-16.6
3.96,0.0,0.0,0.75,0.0,2.5,0.0,0.0,0.0,0.25,0.25,0.0,0.25,0.25,0.45,0.77,-0.67,88.65,3.8,25.2,1.75,0.5,0.5,0.25,0.25,0.75,0.0,0.25,0.25,1.0,0.75,0.25,1.0,-0.11,0.45,-0.86,117.32,-6.7,0.9
3.98,0.25,0.0,0.5,0.5,2.25,1.0,0.5,0.25,0.25,1.25,0.5,0.25,1.25,0.39,0.77,-0.67,95.28,-1.8,-6.3,0.75,0.5,0.5,0.5,0.5,0.75,0.0,0.25,0.25,1.0,0.75,0.5,1.25,-0.11,0.39,-0.86,115.43,-2.5,-14.4
4.0,0.25,0.0,0.5,0.25,2.25,1.0,0.25,0.25,0.5,1.5,0.5,0.0,1.25,0.39,0.7,-0.61,105.66,-3.2,-8.7,1.0,0.25,0.5,0.5,0.5,0.5,0.0,0.25,0.25,1.0,0.75,0.25,1.5,-0.11,0.39,-0.92,112.53,-3.2,-16.5
4.02,0.25,0.0,0.25,0.25,2.25,0.25,0.25,0.25,0.5,0.25,0.5,0.5,1.0,0.39,0.64,-0.55,108.62,0.8,-7.0,0.75,0.25,0.5,0.5,0.25,0.75,0.25,0.25,0.25,1.25,0.75,0.25,1.0,-0.11,0.45,-0.92,108.71,-2.6,-16.0
4.04,0.25,0.0,0.5,0.5,2.25,0.75,0.5,0.25,0.5,1.25,0.5,0.0,1.0,0.39,0.64,-0.55,115.26,-0.8,-2.1,0.5,0.5,0.5,0.0,0.5,0.5,0.0,0.25,0.25,1.25,0.75,0.25,1.25,-0.11,0.45,-0.98,105.4,-0.2,-24.7
4.06,0.25,0.0,0.5,0.25,2.25,1.0,0.25,0.25,0.25,1.25,0.5,0.0,1.0,0.45,0.64,-0.55,117.51,-2.9,-2.4,0.5,0.25,0.5,0.5,0.5,0.75,0.0,0.25,0.25,1.25,0.75,0.25,1.0,-0.11,0.45,-0.92,103.8,-0.7,-17.7
4.08,0.25,0.0,0.25,0.5,2.25,1.0,0.25,0.25,0.25,1.25,0.75,0.0,1.0,0.45,0.64,-0.48,119.84,-3.2,-4.6,0.5,0.25,0.5,0.0,0.5,1.25,0.0,0.25,0.25,1.25,0.75,0.25,1.25,-0.05,0.45,-0.92,103.35,2.5,-23.3
