time,left pressure 0[N/cm虏],left pressure 1[N/cm虏],left pressure 2[N/cm虏],left pressure 3[N/cm虏],left pressure 4[N/cm虏],left pressure 5[N/cm虏],left pressure 6[N/cm虏],left pressure 7[N/cm虏],left pressure 8[N/cm虏],left pressure 9[N/cm虏],left pressure 10[N/cm虏],left pressure 11[N/cm虏],left pressure 12[N/cm虏],left acceleration X[g],left acceleration Y[g],left acceleration Z[g],left total force[N],left center of pressure X[mm],left center of pressure Y[mm],right pressure 0[N/cm虏],right pressure 1[N/cm虏],right pressure 2[N/cm虏],right pressure 3[N/cm虏],right pressure 4[N/cm虏],right pressure 5[N/cm虏],right pressure 6[N/cm虏],right pressure 7[N/cm虏],right pressure 8[N/cm虏],right pressure 9[N/cm虏],right pressure 10[N/cm虏],right pressure 11[N/cm虏],right pressure 12[N/cm虏],right acceleration X[g],right acceleration Y[g],right acceleration Z[g],right total force[N],right center of pressure X[mm],right center of pressure Y[mm]
0.02,0.0,0.0,0.0,0.0,1.25,0.0,1.0,3.75,2.75,3.75,4.0,6.75,6.5,-0.23,0.33,0.95,338.98,-2.3,-75.0,1.25,0.5,1.0,0.75,0.5,0.5,1.25,0.5,1.0,1.25,1.25,0.5,0.5,0.08,-0.11,0.52,52.67,-10.0,-1.7
0.04,0.0,0.0,0.5,0.0,1.75,1.0,1.0,4.25,2.75,4.5,4.0,5.75,6.75,-0.05,0.14,0.95,433.73,-3.2,-65.9,1.0,0.75,0.5,1.25,0.5,0.5,1.0,0.5,0.75,1.25,1.25,0.5,0.5,0.08,-0.11,0.64,73.74,-8.0,-0.9
0.06,0.0,0.0,0.0,0.25,1.75,0.25,1.0,4.25,3.0,4.5,4.0,5.75,6.5,-0.11,0.14,0.95,489.51,-3.1,-68.7,0.5,0.5,0.5,0.5,0.5,0.5,1.0,0.5,0.75,1.0,1.25,0.5,0.75,0.14,-0.11,0.7,90.57,-5.5,-16.3
0.08,0.0,0.0,1.0,0.0,1.75,1.0,1.0,4.75,3.5,5.25,4.25,5.75,6.5,-0.11,0.08,0.95,542.31,-2.6,-63.0,1.25,0.5,0.5,1.0,0.5,0.5,1.0,0.5,0.75,1.25,1.25,0.5,0.5,0.14,-0.05,0.83,109.21,-8.3,-2.8
0.1,0.5,0.0,0.25,1.75,1.75,1.25,1.25,6.5,4.0,6.0,5.75,6.75,7.25,-0.11,0.08,0.95,611.81,-2.2,-58.8,1.25,0.5,0.5,0.5,0.5,0.5,1.0,0.5,0.75,1.25,1.25,0.5,0.75,0.14,0.02,0.95,117.75,-7.2,-9.3
0.12,0.0,0.0,0.25,1.0,1.75,1.5,1.0,5.5,4.25,6.0,5.0,6.75,6.75,-0.11,0.08,0.95,655.67,-2.9,-62.1,0.75,0.5,0.5,0.0,0.25,0.5,1.0,0.5,0.75,1.0,1.25,0.5,0.75,0.14,0.14,1.08,114.45,-6.0,-20.6
0.14,0.0,0.0,0.25,0.0,1.75,1.0,1.25,6.0,4.5,6.25,5.25,6.5,7.0,-0.11,0.08,0.95,689.07,-3.3,-65.9,0.75,0.5,0.5,0.5,0.5,0.5,1.0,0.5,0.75,1.25,1.25,0.5,0.75,0.14,0.33,1.33,115.06,-5.7,-15.0
0.16,0.0,0.0,0.5,0.25,1.75,1.25,1.5,6.5,4.75,6.0,5.25,5.75,6.5,-0.11,0.08,0.95,691.39,-3.0,-61.4,0.5,0.5,0.5,0.75,0.5,0.5,1.0,0.5,0.75,1.25,1.25,0.5,0.75,0.2,0.52,1.77,117.42,-5.3,-15.8
0.18,0.0,0.0,0.5,1.75,2.25,1.0,1.5,7.25,5.0,6.25,6.0,5.75,7.25,-0.11,0.08,0.95,701.36,-2.3,-56.8,0.75,0.75,0.5,1.0,0.25,0.5,1.0,0.25,0.75,1.25,1.0,0.5,0.5,0.2,0.77,2.08,118.45,-8.0,-4.1
0.2,0.0,0.0,0.5,0.0,1.75,2.25,1.5,6.75,5.5,6.5,5.25,6.0,6.5,-0.11,0.08,0.95,690.99,-3.4,-59.9,0.5,0.0,0.5,0.5,0.25,0.5,1.0,0.5,0.75,1.25,1.0,0.5,0.5,0.33,1.08,2.45,113.51,-5.2,-24.1
0.22,0.0,0.0,1.75,0.25,2.5,2.5,2.5,7.5,5.5,5.75,6.0,5.0,6.0,-0.11,0.08,0.95,692.03,-1.7,-49.9,0.5,0.75,0.5,0.5,0.25,0.5,1.0,0.5,0.75,1.0,1.25,0.5,0.5,0.39,2.08,2.64,113.45,-6.7,-12.1
0.24,0.75,0.25,0.75,2.25,2.25,3.5,3.25,7.75,6.0,5.75,5.75,4.75,5.5,-0.11,0.08,0.95,687.88,-1.2,-41.6,0.75,0.25,0.5,0.5,0.5,0.5,1.0,0.5,0.75,1.25,1.0,0.5,0.5,0.52,3.27,2.33,112.67,-6.0,-13.8
0.26,0.25,0.0,0.75,1.75,5.75,4.5,3.25,8.0,6.25,5.75,6.0,3.25,4.75,-0.11,0.08,0.95,705.88,-2.5,-32.4,0.5,0.5,0.5,0.75,0.5,0.5,1.0,0.5,0.75,1.0,1.25,0.5,0.5,0.45,4.33,-0.11,114.85,-6.5,-11.1
0.28,1.75,0.75,2.75,2.5,6.0,5.75,3.5,8.0,6.75,6.0,5.75,3.5,4.5,-0.11,0.08,0.95,759.54,0.1,-20.7,1.75,0.5,0.5,0.75,0.25,0.5,1.0,0.5,0.75,1.25,1.25,0.75,0.5,-1.98,5.58,-1.67,125.05,-9.7,-4.1
0.3,1.75,1.25,3.0,2.5,6.0,5.75,3.75,8.0,6.75,4.75,5.25,3.0,4.5,-0.11,0.08,0.95,801.14,0.6,-16.6,0.5,0.0,0.5,0.75,0.25,0.5,1.0,1.25,0.75,1.5,1.25,1.0,1.25,-4.61,5.95,-0.92,135.9,-2.2,-36.5
0.32,1.0,0.0,3.0,2.5,6.5,5.5,4.25,7.75,6.0,3.0,4.25,1.75,3.25,-0.11,0.08,0.95,782.32,0.5,-11.8,0.75,0.5,0.25,0.5,0.25,0.5,1.0,1.5,0.75,2.75,1.25,2.0,3.25,-0.61,-0.05,0.77,167.8,1.4,-51.5
0.34,2.0,0.25,2.0,5.0,6.0,6.5,3.5,7.25,6.25,4.25,2.25,1.75,2.25,-0.11,0.08,0.95,755.03,0.4,-3.8,0.75,0.25,0.5,0.5,0.5,0.75,0.75,2.0,1.25,5.5,0.75,5.25,5.75,-0.67,1.14,2.83,239.1,3.3,-65.9
0.36,2.5,1.5,3.5,5.75,8.0,7.0,4.25,7.75,6.0,3.5,3.0,1.75,2.5,-0.11,0.08,0.95,788.73,2.2,4.3,1.5,0.0,0.75,0.0,0.0,0.5,0.25,3.25,2.75,7.5,2.25,7.0,6.25,0.2,0.45,1.33,332.27,2.2,-70.1
0.38,3.0,1.5,3.5,6.5,8.75,7.5,4.25,7.5,5.5,2.5,1.5,1.5,2.25,-0.11,0.14,0.95,823.25,2.5,12.1,2.0,0.75,0.5,0.5,0.5,2.5,1.0,5.0,3.5,7.75,5.75,6.25,8.0,-0.17,0.33,1.14,485.47,2.2,-57.1
0.4,4.0,1.5,4.25,7.25,9.5,7.5,4.25,7.25,4.75,2.75,1.0,1.75,2.25,-0.11,0.14,0.95,880.76,3.5,16.1,1.25,0.0,0.25,0.0,0.25,1.25,0.5,5.75,3.5,7.75,6.0,6.75,8.0,0.02,0.14,0.95,617.26,3.3,-69.3
0.42,5.25,1.75,4.75,8.25,12.0,8.0,3.75,6.75,4.0,2.75,0.5,1.5,2.25,-0.11,0.14,0.95,955.23,4.0,23.3,0.5,0.5,0.5,0.0,0.0,2.0,0.25,4.75,3.25,7.25,4.5,6.0,6.75,0.14,0.14,0.95,672.58,4.0,-66.9
0.44,5.75,1.5,5.25,10.5,13.0,8.75,3.5,6.5,3.5,1.75,2.0,1.5,2.25,-0.11,0.14,0.95,1052.95,4.9,25.7,0.5,0.5,0.5,0.5,0.5,2.75,1.0,5.75,4.0,7.5,4.5,6.0,7.0,0.08,0.14,0.89,700.54,3.9,-60.0
0.46,6.75,1.75,6.0,11.0,14.0,9.5,3.5,6.5,2.75,1.75,2.0,1.5,2.25,-0.11,0.2,1.02,1153.61,5.3,28.9,1.0,0.75,0.5,0.5,0.5,3.0,1.0,6.0,4.25,7.5,5.5,5.5,7.25,0.08,0.14,0.89,715.99,3.3,-56.6
0.48,7.75,2.25,6.25,13.0,16.0,10.0,3.0,6.25,2.25,0.0,0.5,1.5,2.25,-0.11,0.2,1.08,1262.73,6.1,37.4,1.0,0.5,0.75,0.75,0.5,4.25,1.0,6.5,4.75,7.25,5.5,5.0,7.0,0.08,0.14,0.89,735.6,3.6,-52.3
0.5,7.25,1.75,6.0,13.0,14.0,10.5,1.0,5.75,1.75,2.0,0.0,0.25,2.0,-0.11,0.27,1.14,1297.54,4.9,37.9,0.0,0.5,0.5,1.25,0.25,4.75,1.0,6.25,5.25,7.0,5.25,4.25,5.75,0.08,0.14,0.95,727.42,4.3,-51.6
0.52,8.75,2.5,6.75,11.0,15.5,9.5,0.75,5.25,1.25,0.5,0.75,0.75,2.0,-0.17,0.27,1.2,1302.97,6.4,41.3,1.75,1.0,1.5,1.0,2.25,5.25,1.0,7.0,5.5,6.5,5.0,3.5,5.5,0.08,0.14,0.95,730.14,2.3,-34.7
0.54,11.5,3.25,6.75,10.5,16.5,9.5,0.0,5.5,1.25,2.5,1.25,0.5,2.0,-0.3,0.33,1.27,1333.79,6.5,40.3,2.0,0.75,0.5,2.0,4.25,5.5,2.0,7.25,5.5,6.0,4.5,2.5,4.25,0.08,0.14,0.95,709.82,2.4,-24.8
0.56,12.0,3.0,6.75,8.25,15.0,8.0,0.25,4.75,1.25,1.25,1.0,0.5,2.0,-0.23,0.45,1.52,1317.7,7.9,43.1,2.0,0.25,2.25,3.25,4.5,6.0,2.0,7.25,5.5,5.5,3.75,2.0,3.25,0.14,0.14,0.95,695.5,0.6,-15.4
0.58,11.5,3.25,6.5,8.5,12.0,7.5,1.5,4.25,1.0,1.75,1.5,1.0,1.5,-0.61,0.83,2.27,1257.98,8.9,41.4,2.0,1.0,3.0,3.25,5.25,6.25,2.5,7.25,5.5,4.5,3.5,2.0,3.25,0.08,0.14,0.95,691.93,-0.4,-9.1
0.6,9.5,3.25,5.5,6.75,8.75,5.75,1.75,2.25,1.25,0.25,1.0,0.25,1.5,-1.05,1.2,2.58,1064.75,10.9,47.6,2.5,1.25,3.0,4.0,6.25,6.5,3.0,7.0,5.25,4.0,3.25,1.25,2.25,0.08,0.14,0.95,702.8,-1.3,0.4
0.62,6.25,1.25,1.75,2.75,6.0,2.0,0.25,0.5,0.75,0.0,0.25,0.0,0.5,-1.05,1.33,2.77,727.88,11.9,56.7,2.5,1.5,3.5,6.0,6.75,6.75,3.0,6.75,5.25,3.5,2.75,1.0,2.25,0.08,0.14,0.95,730.91,-2.4,6.8
0.64,3.5,0.0,0.0,0.0,3.75,0.0,0.0,0.25,0.25,0.0,0.0,0.0,0.5,-0.86,0.64,2.89,379.04,10.6,55.2,3.25,1.75,3.75,7.0,7.25,7.25,3.25,6.5,4.75,3.0,2.5,0.75,1.75,0.08,0.2,0.95,775.44,-3.4,14.2
0.66,0.0,0.0,0.0,0.0,2.25,0.0,0.25,0.0,0.5,0.0,0.0,0.0,0.0,-0.23,-0.55,1.64,157.3,0.4,38.4,3.75,2.0,5.0,7.5,8.0,7.25,3.5,6.5,4.0,2.75,2.0,0.75,1.5,0.08,0.2,0.95,826.7,-4.6,20.1
0.68,0.0,0.0,0.0,0.0,0.75,0.0,0.0,0.0,0.25,0.0,0.0,0.0,0.0,-0.42,-0.17,2.08,0.0,0.1,33.1,4.5,2.0,5.5,8.5,8.25,7.25,3.5,5.75,3.25,2.5,1.75,0.75,1.25,0.08,0.2,0.95,861.35,-5.9,25.5
0.7,0.0,0.0,0.0,0.0,2.25,0.0,0.0,0.0,0.25,0.5,0.0,0.0,0.0,-0.73,-0.67,1.95,0.0,-4.0,27.4,5.5,2.25,5.75,9.5,8.75,7.75,3.5,5.5,2.5,2.0,1.5,0.75,1.25,0.08,0.2,0.95,905.16,-6.6,30.6
0.72,0.0,0.0,0.0,0.0,2.25,0.0,0.0,0.0,0.5,0.0,0.0,0.0,0.0,-0.48,-0.8,0.7,0.0,-0.8,38.8,4.5,2.5,5.75,9.25,8.25,7.5,3.5,4.5,1.75,2.25,0.25,0.75,0.5,0.08,0.2,0.95,899.05,-6.8,35.8
0.74,0.0,0.0,0.0,0.0,1.75,0.0,0.0,0.25,0.25,0.0,0.0,0.0,0.0,-0.42,-0.55,0.39,0.0,-3.1,35.3,5.75,2.25,5.5,11.0,9.25,7.75,3.5,4.75,1.0,1.25,0.0,0.5,1.25,0.02,0.2,0.95,908.38,-7.1,39.8
0.76,0.0,0.0,0.0,0.0,1.75,0.0,0.0,0.25,0.25,0.0,0.0,0.0,0.0,-0.48,-0.48,0.27,0.0,-3.1,35.3,6.75,2.5,7.0,10.5,11.0,7.75,3.0,3.75,0.75,1.0,1.25,0.25,1.5,0.08,0.2,0.95,931.3,-8.4,41.7
0.78,0.5,0.0,0.75,0.0,3.0,1.0,0.25,0.25,1.0,0.5,0.5,0.25,1.0,-0.61,-0.42,0.33,0.0,1.0,5.5,7.5,4.5,7.0,9.25,11.0,7.75,3.0,3.25,0.75,0.5,1.25,0.0,1.5,0.08,0.27,0.95,968.14,-9.1,46.4
0.8,0.5,0.0,1.0,0.0,2.5,0.0,1.0,0.25,0.25,0.0,0.5,0.0,1.25,-0.67,-0.36,0.52,0.0,6.7,11.1,8.5,3.0,7.0,9.75,11.0,8.0,2.0,3.25,0.75,1.25,0.25,0.25,0.5,0.02,0.27,0.95,984.81,-9.2,48.7
0.82,0.0,0.0,0.0,0.0,1.75,0.0,0.25,0.25,0.25,0.0,0.0,0.0,0.5,-0.61,-0.3,0.7,0.0,-3.4,11.3,8.5,4.5,7.25,13.0,12.0,8.25,2.0,2.75,0.75,1.25,1.25,0.0,0.5,0.02,0.33,1.02,1046.87,-9.7,49.9
0.84,0.25,0.0,1.25,0.0,2.5,1.0,1.0,0.25,1.0,0.75,0.5,0.25,1.25,-0.48,-0.11,0.77,54.32,2.8,-0.8,8.25,5.75,7.0,13.0,12.5,8.25,2.25,2.0,0.75,0.5,1.25,0.0,1.5,0.02,0.33,1.08,1102.44,-9.7,50.6
0.86,0.0,0.0,0.0,0.0,1.75,0.0,0.25,0.25,0.25,0.0,0.0,0.0,0.5,-0.36,0.02,0.95,76.22,-3.4,11.3,8.75,5.25,7.0,11.0,11.0,7.75,2.0,0.25,0.25,0.0,0.0,0.0,0.5,0.14,0.39,1.14,1076.62,-11.8,61.1
0.88,0.25,0.0,0.0,0.0,1.75,1.0,0.25,0.0,1.0,0.5,0.0,0.5,0.25,-0.3,0.08,1.08,93.21,-2.0,1.4,9.25,5.25,7.75,9.75,11.0,7.25,3.0,1.25,0.0,0.0,0.25,0.0,0.5,0.2,0.52,1.08,1042.81,-12.1,59.5
0.9,0.0,0.0,1.0,0.0,2.5,0.0,1.0,0.25,0.25,0.0,0.5,0.0,1.0,-0.3,0.2,1.45,96.08,5.5,9.6,9.25,6.25,8.25,11.0,11.0,7.25,4.25,0.75,0.75,1.25,0.0,0.0,0.5,0.14,0.58,1.33,1037.96,-12.4,57.2
0.92,0.0,0.0,0.0,0.0,0.0,0.0,0.5,0.25,0.25,0.0,0.0,0.0,0.25,-0.42,0.39,1.7,75.81,3.0,-41.2,9.25,5.75,7.75,8.25,8.75,6.25,5.5,0.5,0.75,1.25,0.25,0.5,0.75,0.27,0.95,1.7,994.99,-13.4,54.4
0.94,0.0,0.0,0.0,0.0,0.75,0.0,0.25,0.25,0.25,0.0,0.0,0.0,0.25,-0.55,0.64,2.2,51.06,-2.1,1.2,8.5,4.75,5.75,6.0,6.5,5.0,5.0,0.75,0.5,1.25,1.0,0.5,1.25,0.58,1.64,2.83,890.28,-13.1,49.0
0.96,0.0,0.0,0.0,0.0,1.75,0.0,0.25,0.25,0.25,1.0,0.0,0.0,0.5,-0.86,1.52,2.83,45.06,-6.4,-9.5,7.75,3.0,3.5,3.25,4.5,3.0,3.25,0.5,0.5,1.25,1.0,0.5,0.75,0.64,1.52,2.89,700.66,-13.9,47.8
0.98,0.0,0.0,0.0,0.0,0.5,0.0,0.25,0.25,0.25,0.0,0.0,0.0,0.5,-1.05,2.58,3.27,33.91,-3.6,-24.2,5.5,1.5,3.0,2.0,3.25,1.75,2.0,0.0,0.5,1.25,1.0,0.5,0.5,0.39,0.64,2.89,478.16,-14.9,43.3
1.0,0.0,0.0,0.0,0.0,1.75,0.0,0.25,0.25,0.25,0.5,0.0,0.25,0.25,-1.3,4.39,1.95,34.66,-3.6,-0.2,2.5,0.25,1.75,1.5,2.25,2.0,1.25,0.5,0.75,1.25,1.25,0.5,0.5,0.39,-0.23,2.2,296.9,-8.8,20.9
1.02,0.0,0.0,0.0,0.0,2.25,0.0,0.25,0.25,0.25,0.5,0.0,1.0,0.5,-0.73,5.89,0.33,44.55,-2.2,-15.3,0.5,0.75,1.75,1.0,1.75,1.75,1.0,0.5,0.75,1.25,1.0,0.5,0.5,0.39,0.45,2.14,187.26,-5.7,11.3
1.04,0.0,0.0,0.0,0.0,1.25,0.75,0.25,0.25,1.25,0.5,0.0,1.5,0.5,2.89,7.52,-2.86,66.7,-1.2,-33.6,1.5,0.75,1.5,1.25,1.5,1.25,1.0,0.5,0.75,1.25,1.0,0.5,0.5,0.52,-0.98,2.27,107.53,-8.6,15.7
1.06,0.25,0.0,0.25,0.25,2.25,0.0,0.75,0.75,1.0,1.75,1.0,2.25,2.5,1.2,-1.23,-0.73,116.58,-0.5,-46.0,0.5,0.5,0.75,1.25,1.25,1.0,1.0,0.5,0.75,1.0,0.75,0.5,0.75,0.39,-0.98,1.58,46.36,-4.9,2.4
1.08,0.25,0.0,0.25,0.75,2.25,0.25,0.75,0.75,1.0,1.5,0.5,3.0,3.25,-0.92,1.14,1.39,163.1,-0.6,-46.1,0.5,0.5,1.5,1.25,1.0,1.25,1.0,0.5,0.75,1.25,1.25,0.5,0.5,0.33,-0.55,0.89,28.03,-7.0,3.2
1.1,0.0,0.0,0.0,0.0,1.75,0.5,1.25,2.5,1.5,4.5,2.0,6.25,5.5,2.83,1.52,4.52,256.12,-3.7,-71.0,0.5,0.5,1.25,1.0,1.0,1.0,1.0,0.5,0.75,1.25,0.75,0.5,0.5,0.27,-0.3,0.39,21.21,-6.5,3.4
1.12,0.0,0.0,0.0,0.25,1.25,1.0,0.25,5.5,2.0,4.5,3.0,6.75,6.5,-0.23,0.58,1.08,346.73,-5.0,-70.6,0.75,0.75,1.0,1.0,0.5,0.5,1.0,0.5,0.5,0.75,1.0,0.5,0.75,0.14,-0.11,0.33,16.79,-9.3,2.3
1.14,0.75,0.0,0.0,0.0,1.75,1.0,1.0,4.75,3.0,5.0,4.5,6.75,6.5,0.02,0.2,1.08,460.51,-2.7,-65.1,0.75,0.75,0.5,0.5,0.5,0.5,1.0,0.5,0.75,1.25,1.0,0.5,0.75,0.08,-0.05,0.39,19.49,-5.8,-10.0
1.16,0.0,0.0,0.0,1.25,0.5,2.25,1.0,5.75,3.75,5.75,6.0,6.75,6.5,-0.11,0.08,0.95,574.06,-3.1,-64.7,0.5,0.5,0.5,0.5,0.5,0.5,1.0,0.25,0.5,0.75,1.0,0.5,0.75,0.08,-0.05,0.58,33.38,-6.6,-10.8
1.18,0.75,0.25,1.5,2.5,1.75,1.75,1.25,5.5,4.25,7.5,6.0,6.75,7.0,-0.11,0.14,0.95,687.89,-0.6,-51.5,0.75,0.5,0.75,0.75,0.5,0.25,1.0,0.25,0.5,1.25,0.75,0.5,0.75,0.08,-0.11,0.83,55.92,-8.2,-6.5
1.2,0.5,0.25,1.0,0.0,2.5,2.25,1.0,5.75,4.75,7.5,6.0,7.0,7.25,-0.11,0.08,0.95,765.16,-2.6,-57.6,1.0,0.5,1.0,0.75,0.5,0.5,1.0,0.25,0.5,1.0,1.0,0.5,0.75,0.02,0.02,1.08,82.06,-9.7,-0.6
1.22,0.5,0.0,0.75,1.25,2.25,2.25,1.5,6.5,5.0,7.25,6.5,7.75,7.25,-0.11,0.08,0.95,833.38,-1.9,-56.7,1.5,0.5,0.5,0.5,0.5,0.5,1.0,0.5,0.75,0.75,0.75,0.5,0.5,0.02,0.2,1.27,100.34,-9.8,4.8
1.24,0.25,0.0,1.0,2.5,3.0,2.5,1.5,6.25,5.25,6.75,6.0,6.75,6.5,-0.11,0.08,0.95,856.29,-1.3,-48.9,0.75,1.0,0.5,0.5,0.5,0.5,1.0,0.5,0.5,1.0,0.75,0.5,0.5,0.08,0.33,1.45,109.98,-6.9,1.5
1.26,0.5,0.0,1.0,0.25,1.75,2.75,2.0,6.75,5.25,6.0,6.0,6.75,7.25,-0.11,0.08,0.95,846.6,-2.1,-56.6,0.5,0.5,0.5,0.75,0.5,0.75,1.0,0.25,0.5,1.0,1.0,0.5,0.75,0.14,0.52,1.7,112.93,-5.4,-9.3
1.28,0.75,0.0,1.25,0.0,2.25,2.25,1.75,7.25,5.25,5.75,6.25,5.75,6.5,-0.11,0.08,0.95,806.02,-1.8,-53.2,1.0,0.5,0.5,0.25,0.5,0.25,1.0,0.25,0.5,1.25,1.0,0.5,0.5,0.27,0.7,2.08,110.55,-8.2,-8.8
1.3,0.75,0.5,1.0,2.25,3.0,3.5,2.5,6.75,6.25,6.0,6.0,5.25,5.5,-0.11,0.08,0.95,778.58,-0.7,-40.2,0.75,0.75,0.5,1.0,0.5,0.5,0.75,0.5,0.25,1.0,1.0,0.5,0.5,0.58,1.45,2.52,113.51,-7.0,0.6
1.32,1.0,0.5,1.0,2.5,4.75,4.75,2.75,7.5,6.5,5.75,6.0,4.0,5.25,-0.11,0.08,0.95,767.56,-1.3,-31.2,1.0,0.25,0.5,0.75,0.5,0.5,0.75,0.25,0.25,1.0,1.0,0.25,0.75,0.77,2.7,3.08,111.31,-7.2,-3.9
1.34,0.5,0.75,2.25,1.75,4.75,5.0,2.75,7.25,6.5,4.25,4.5,2.75,3.25,-0.11,0.08,0.95,718.61,-0.4,-21.7,0.0,0.0,0.5,0.75,0.25,0.5,0.75,0.5,0.0,0.0,1.0,0.0,0.75,1.02,4.52,2.14,98.06,-5.2,-12.6
1.36,1.0,0.0,0.25,2.25,4.25,4.75,3.0,7.25,6.25,3.5,4.0,1.75,2.25,-0.11,0.08,0.95,643.86,-1.6,-20.9,0.0,0.0,0.0,0.0,0.0,0.0,0.25,0.25,0.0,1.25,0.0,0.5,0.0,0.77,6.27,-1.42,72.01,7.3,-73.4
1.38,1.75,0.0,1.0,2.5,5.75,5.5,3.25,7.0,6.0,2.25,3.0,1.75,2.25,-0.11,0.08,0.95,588.35,-0.3,-9.4,0.5,0.25,0.25,0.75,0.5,0.5,0.75,0.5,0.75,1.25,1.0,0.5,0.75,-1.3,5.77,-2.11,76.31,-3.4,-20.9
1.4,2.75,0.0,3.0,4.25,6.5,6.75,3.5,6.5,5.75,3.25,2.0,1.75,1.75,-0.11,0.08,0.95,587.4,1.9,2.3,0.75,0.75,0.5,0.25,0.5,0.5,0.75,1.75,0.5,1.5,1.25,1.25,2.25,-0.11,-0.48,0.58,107.15,-0.2,-35.6
1.42,5.25,1.5,3.75,6.25,8.25,7.0,4.25,6.75,5.5,2.75,2.0,1.75,2.25,-0.11,0.08,0.95,673.79,4.4,13.7,0.5,0.5,0.5,0.5,0.25,0.0,0.5,2.0,0.75,4.0,1.0,3.25,4.0,-0.61,0.14,2.45,171.55,2.6,-62.9
1.44,6.0,1.5,4.75,6.75,9.0,7.5,4.25,6.5,5.0,2.0,2.0,1.75,2.25,-0.11,0.14,0.95,791.58,5.4,18.5,1.25,0.5,0.5,0.25,0.5,2.0,0.75,3.25,2.0,6.25,2.0,6.25,7.0,0.02,1.39,2.89,281.02,3.5,-61.5
1.46,6.25,1.0,4.75,8.25,10.0,7.75,4.25,5.5,4.25,2.0,1.25,1.75,2.25,-0.11,0.14,0.95,898.17,5.7,22.8,1.75,0.75,0.5,0.0,1.25,1.75,0.75,4.75,3.75,7.5,5.75,7.0,7.5,0.14,0.45,1.27,435.12,1.8,-59.0
1.48,7.0,0.0,5.75,8.25,11.0,7.5,4.0,5.0,3.75,2.0,0.0,1.5,1.0,-0.11,0.14,1.02,952.0,6.9,30.5,1.25,0.25,0.5,1.25,1.0,3.0,0.0,5.5,4.25,8.0,6.25,7.0,7.75,-0.05,0.33,1.02,614.13,2.8,-58.1
1.5,8.75,1.0,6.25,10.5,13.0,8.0,3.5,4.75,2.75,2.0,1.25,1.5,1.5,-0.11,0.2,1.02,1042.33,7.6,33.6,1.25,0.25,1.0,0.5,0.25,2.75,0.5,6.0,4.0,8.0,7.5,7.75,8.25,0.08,0.2,0.95,761.39,2.2,-62.6
1.52,9.25,1.75,6.0,10.5,13.0,8.25,1.0,4.5,2.25,1.75,1.25,1.5,2.0,-0.11,0.2,1.02,1106.05,7.1,35.0,1.75,0.5,0.5,0.75,0.5,2.75,0.75,5.75,4.0,8.0,6.75,7.0,8.0,0.08,0.14,0.95,840.73,2.3,-58.7
1.54,10.5,3.25,7.25,10.5,14.0,8.75,0.75,4.25,2.0,2.0,1.75,1.5,2.0,-0.11,0.27,1.02,1215.45,7.9,37.6,1.25,0.5,0.5,1.25,0.5,2.75,0.75,5.75,4.25,7.25,6.25,6.75,8.0,0.08,0.14,0.89,861.78,2.3,-58.1
1.56,12.0,3.25,7.0,12.5,14.0,8.75,1.0,4.25,2.0,2.0,2.0,1.5,1.75,-0.17,0.27,1.02,1319.53,8.7,39.4,0.5,0.25,0.25,0.0,0.25,2.0,0.25,5.5,4.0,6.75,5.0,5.5,6.5,0.08,0.14,0.89,798.16,4.1,-65.9
1.58,12.5,3.25,8.0,10.5,13.0,8.0,0.75,4.25,1.25,0.5,1.5,0.0,1.5,-0.11,0.33,1.08,1346.96,10.1,47.6,0.75,0.75,0.25,1.0,0.25,3.25,0.25,5.75,4.75,6.5,5.0,5.25,6.0,0.08,0.14,0.95,746.17,3.3,-54.9
1.6,12.0,3.25,7.0,9.25,13.0,7.75,0.0,4.25,1.25,0.75,1.5,0.0,0.5,-0.17,0.33,1.08,1312.78,9.6,49.1,1.5,1.0,0.25,0.75,2.25,4.0,1.0,6.5,5.25,6.25,5.5,5.0,6.0,0.08,0.14,0.95,716.91,2.7,-44.0
1.62,12.5,3.25,8.25,8.75,13.0,7.25,1.0,3.5,1.5,2.0,1.0,1.0,0.5,-0.3,0.45,1.2,1259.23,10.5,46.3,2.75,0.25,1.75,1.0,2.25,4.0,1.5,6.5,5.25,5.5,5.5,3.25,5.5,0.08,0.14,0.95,688.78,0.3,-34.2
1.64,12.5,3.25,7.0,8.25,9.25,6.0,1.0,2.25,1.25,1.25,0.5,0.25,1.25,-0.42,0.58,1.39,1125.28,12.3,50.6,2.0,1.0,2.25,2.0,3.0,5.25,1.25,6.25,5.25,4.75,4.75,2.75,3.5,0.08,0.14,0.95,658.61,-0.1,-21.3
1.66,11.5,3.5,7.25,8.25,8.25,5.75,2.75,2.25,1.25,0.75,0.5,1.0,0.5,-0.42,0.83,1.83,1009.97,13.5,51.0,2.25,0.75,1.75,2.25,4.5,5.25,2.0,6.0,5.75,4.25,4.5,2.25,3.25,0.08,0.14,0.95,630.83,-0.3,-16.1
1.68,12.5,3.5,6.75,6.75,7.75,4.25,3.5,2.25,1.25,0.5,1.0,0.75,1.5,-0.8,1.14,2.45,910.67,14.4,48.7,3.75,0.75,2.25,2.75,4.75,5.75,2.5,5.75,5.25,2.5,3.75,1.25,2.5,0.08,0.14,0.95,599.22,-2.5,-1.5
1.7,9.5,2.75,4.5,2.5,6.0,1.5,1.5,1.75,0.25,0.0,0.5,0.5,1.25,-1.11,1.58,2.95,712.91,15.5,53.0,5.0,1.25,3.5,3.75,5.75,6.0,3.0,5.75,5.5,3.0,3.5,1.75,2.25,0.08,0.14,0.95,624.62,-4.5,5.3
1.72,6.0,0.0,0.5,1.25,3.75,0.0,0.25,1.75,0.25,0.0,0.0,0.0,0.5,-0.8,1.02,3.08,439.61,13.5,52.5,5.0,1.25,5.5,5.75,6.5,6.25,3.5,5.75,5.25,2.75,3.0,1.25,1.75,0.08,0.14,0.95,690.93,-6.4,14.2
1.74,1.75,0.0,1.0,0.0,4.25,0.0,0.5,0.0,0.25,0.0,0.5,0.5,0.0,-0.67,-0.55,2.7,241.22,11.1,43.3,5.5,1.75,5.5,7.25,6.75,6.25,4.0,5.0,4.75,2.0,2.5,0.75,1.5,0.08,0.14,0.95,764.42,-7.7,22.5
1.76,0.5,0.0,0.5,0.0,2.25,0.25,0.5,0.0,0.25,0.0,0.0,0.75,0.0,-0.86,0.2,1.7,74.03,7.8,27.6,6.5,2.0,7.0,8.0,7.5,6.25,4.25,4.75,4.0,1.75,2.0,0.75,1.5,0.08,0.2,0.95,843.61,-9.2,28.6
1.78,0.25,0.0,0.5,0.0,0.5,1.0,0.0,0.0,0.25,0.0,0.0,0.0,0.0,-0.86,-0.8,2.52,0.0,2.9,42.8,7.0,2.0,7.25,9.5,7.5,6.5,4.5,3.75,3.25,1.75,1.5,0.75,1.5,0.08,0.2,0.95,905.99,-10.1,33.2
1.8,0.25,0.0,0.0,0.0,0.75,0.0,0.5,0.0,0.25,0.0,0.0,0.0,0.5,-0.42,-0.73,1.08,0.0,4.2,4.6,7.5,2.25,8.0,10.5,9.0,6.5,5.0,3.25,2.5,1.5,1.25,0.75,1.5,0.02,0.2,0.95,972.87,-10.8,37.9
1.82,0.0,0.0,0.0,0.0,0.75,0.0,0.25,0.0,0.25,0.0,0.0,0.5,0.0,-0.3,-0.48,0.64,0.0,4.8,-8.2,7.0,0.0,8.75,9.75,9.25,5.5,5.0,3.25,1.5,0.0,1.25,0.25,0.5,0.02,0.2,1.02,953.73,-12.6,44.0
1.84,0.0,0.0,0.0,0.0,1.25,0.0,0.25,0.0,0.25,0.0,0.0,0.0,0.0,-0.3,-0.42,0.45,0.0,1.1,39.2,8.0,1.25,8.0,0.0,9.0,6.25,3.0,2.0,1.5,0.5,0.75,0.25,0.0,0.02,0.27,1.02,847.53,-11.5,47.9
1.86,0.0,0.0,0.0,0.0,0.75,0.0,0.25,0.0,0.25,0.0,0.0,0.0,0.5,-0.23,-0.36,0.77,0.0,-1.7,-9.3,8.5,2.25,8.25,9.75,9.25,5.25,4.0,2.0,1.0,0.0,0.25,0.0,0.5,0.02,0.27,1.02,822.74,-13.8,54.0
1.88,0.0,0.0,0.0,0.0,1.75,0.0,0.25,0.0,0.25,0.0,0.0,0.0,0.0,-0.17,-0.3,0.83,0.0,0.0,42.7,9.25,4.0,9.0,10.5,9.25,5.0,4.0,2.0,0.75,0.0,0.25,0.0,0.5,0.02,0.33,1.02,837.35,-14.6,56.8
1.9,0.0,0.0,0.0,0.0,0.5,0.0,0.0,0.0,0.25,0.0,0.0,0.0,0.25,-0.11,-0.17,0.83,0.0,-2.2,-6.3,9.25,4.0,9.5,11.5,9.25,5.5,4.25,2.0,0.75,0.0,0.0,0.0,0.5,0.02,0.33,1.08,896.31,-14.6,57.2
1.92,0.0,0.0,0.0,0.0,1.75,0.0,0.0,0.0,0.25,0.0,0.0,0.0,0.25,0.02,-0.05,0.77,0.0,-2.8,27.9,10.0,5.25,12.0,13.0,10.0,5.25,6.0,0.75,1.0,1.25,0.25,0.5,0.5,0.02,0.45,1.08,1011.16,-15.9,55.4
1.94,0.0,0.0,0.0,0.0,0.5,0.0,0.25,0.25,0.25,0.0,0.0,0.0,0.5,0.08,0.08,0.95,0.0,-3.6,-24.2,11.5,6.25,12.0,12.5,9.25,4.0,7.25,1.75,0.75,1.25,0.75,0.5,0.5,0.2,0.58,1.14,1120.23,-16.8,55.1
1.96,0.0,0.0,0.0,0.0,1.75,0.0,0.0,0.0,0.25,0.0,0.0,0.0,0.5,0.02,0.08,1.2,14.95,-3.8,15.1,11.5,6.5,11.5,11.0,8.0,2.75,8.25,1.5,0.75,1.25,1.25,0.5,1.25,0.27,0.77,1.14,1170.48,-17.6,52.7
1.98,0.0,0.0,0.0,0.0,0.75,0.0,0.0,0.0,0.25,0.0,0.0,0.0,0.5,-0.11,0.2,1.33,22.69,-4.2,-12.0,10.5,6.0,10.5,9.25,5.75,2.0,8.75,0.5,0.75,1.25,1.25,0.5,1.25,0.2,1.14,1.95,1116.23,-19.2,52.9
2.0,0.0,0.0,0.0,0.0,0.5,0.0,0.25,0.0,0.25,0.0,0.0,0.0,0.25,-0.17,0.33,1.52,26.0,1.2,-2.9,9.25,5.25,8.0,5.75,0.5,1.0,7.75,0.5,0.75,1.0,1.25,0.5,1.0,0.27,1.95,2.89,920.67,-22.7,52.2
2.02,0.0,0.0,0.0,0.0,1.75,0.0,0.25,0.0,0.25,0.0,0.0,0.0,0.25,-0.3,0.52,1.89,31.51,-1.2,27.8,7.75,2.75,6.5,3.5,0.25,0.75,6.0,0.5,0.75,1.25,1.25,0.5,0.75,0.33,1.95,3.45,680.52,-22.9,46.2
2.04,0.0,0.0,0.0,0.0,1.75,0.0,0.0,0.0,0.25,0.0,0.0,0.0,0.25,-0.42,0.95,2.2,36.01,-2.8,27.9,5.5,1.25,4.0,2.25,0.5,0.0,3.75,0.5,0.75,1.25,1.0,0.5,1.0,0.58,0.2,3.89,444.57,-21.3,35.2
2.06,0.0,0.0,0.0,0.0,0.5,0.0,0.25,0.0,0.25,0.0,0.0,0.0,0.25,-0.67,2.02,2.95,32.8,1.2,-2.9,0.5,0.25,3.0,0.0,0.5,0.5,1.75,0.25,0.25,0.0,0.0,0.0,0.0,-0.05,-0.3,1.77,258.17,-24.3,50.0
2.08,0.0,0.0,0.0,0.0,0.0,0.0,0.25,0.0,0.25,0.0,0.0,0.0,0.25,-0.92,3.14,3.45,24.58,5.3,-55.3,2.0,0.5,1.75,0.75,0.5,0.75,1.25,0.25,0.75,1.25,1.25,0.5,0.0,0.77,0.89,2.77,141.82,-14.6,16.8
2.1,0.0,0.0,0.0,0.0,2.25,0.0,0.25,0.0,0.25,7.5,0.0,0.0,0.5,-1.05,5.27,0.64,72.82,-11.5,-44.5,0.75,0.75,1.75,0.5,0.5,0.75,1.5,0.25,0.75,1.25,1.25,0.5,0.5,0.45,-1.42,2.52,41.25,-11.0,2.4
2.12,0.0,0.0,0.0,0.0,0.5,0.0,0.5,0.0,0.25,0.0,0.0,0.0,0.25,1.7,7.7,-2.55,66.06,4.0,-0.1,1.75,0.5,1.75,1.25,0.5,0.25,1.5,0.5,0.75,1.25,0.75,0.5,0.75,0.27,-0.73,1.83,6.15,-13.6,10.5
2.14,0.5,0.0,1.0,0.25,1.75,1.0,0.5,0.5,1.0,2.0,0.5,1.5,1.25,3.08,7.7,-2.92,114.29,1.0,-23.8,1.25,0.5,1.5,1.0,0.5,0.5,1.25,0.5,0.75,1.25,1.25,0.5,0.75,0.2,-0.42,0.77,0.0,-10.9,0.9
2.16,0.25,0.0,0.5,0.75,2.25,1.0,0.25,0.25,1.0,2.0,0.75,1.75,2.5,-1.05,-3.36,0.7,148.05,-1.5,-33.6,1.5,0.5,1.25,1.25,0.5,0.5,1.0,0.5,0.5,0.75,1.0,0.5,1.0,0.08,-0.17,0.64,0.0,-11.3,6.4
2.18,0.0,0.0,1.5,0.0,2.25,0.0,0.5,0.0,0.25,1.75,0.0,3.0,2.75,-1.36,0.95,0.08,182.56,1.7,-44.2,1.25,0.5,1.5,0.0,0.5,1.0,1.0,0.5,0.75,1.0,1.0,0.5,1.0,0.02,0.14,0.58,9.65,-8.4,-2.8
2.2,0.0,0.0,0.0,0.0,0.5,0.0,0.75,1.0,1.0,4.25,0.5,5.0,5.5,0.89,1.14,1.89,229.63,-4.9,-85.3,1.0,0.5,1.75,1.25,0.5,1.0,1.0,0.5,0.75,1.25,1.25,0.5,1.0,-0.11,0.14,0.39,45.03,-9.0,0.2
2.22,0.0,0.0,0.0,1.0,0.0,1.25,0.5,4.0,3.0,7.0,3.0,8.25,7.25,-0.36,0.95,3.95,340.52,-4.0,-75.1,0.5,0.0,1.5,0.0,0.5,0.5,1.0,0.5,0.0,0.0,1.25,0.0,0.75,-0.05,0.08,1.02,56.89,-12.0,0.7
2.24,0.0,0.0,0.0,0.25,0.5,1.0,0.75,6.25,4.25,6.5,6.5,7.5,8.0,0.08,0.2,1.08,495.2,-3.4,-73.2,0.0,0.0,0.25,0.0,0.0,0.25,0.75,0.25,0.25,0.0,0.0,0.0,0.25,0.08,0.14,1.08,46.98,-7.0,-8.6
2.26,0.0,0.0,0.0,0.0,1.25,1.0,1.0,6.75,5.0,7.25,6.0,7.5,8.0,-0.11,0.08,0.95,652.82,-3.7,-70.2,0.75,0.75,0.25,1.25,0.5,0.5,1.0,0.25,0.75,1.25,1.25,0.5,0.5,0.33,0.33,0.77,66.2,-7.2,-4.2
2.28,0.0,0.0,0.0,1.0,0.75,2.5,1.0,6.5,5.25,7.25,6.5,7.75,7.25,-0.11,0.08,0.95,771.05,-3.3,-65.1,0.75,0.5,0.5,0.75,0.5,0.5,1.0,0.5,0.75,1.25,1.0,0.5,1.25,0.45,0.45,0.64,89.05,-4.8,-16.6
2.3,0.0,0.0,1.0,0.0,2.5,1.0,1.0,7.25,5.0,6.75,6.5,7.5,7.5,-0.11,0.08,0.95,834.43,-2.5,-62.5,0.0,0.5,0.5,0.75,0.5,0.5,1.0,0.5,0.75,1.25,1.0,0.5,0.5,0.39,0.33,1.27,107.98,-4.0,-17.7
2.32,0.0,0.0,0.0,0.0,1.25,1.0,0.25,6.75,5.0,7.0,6.5,7.5,7.5,-0.11,0.08,0.95,835.46,-3.6,-70.5,1.25,0.75,0.5,0.75,0.5,1.0,1.0,0.5,0.75,1.0,1.0,0.5,0.75,0.33,0.39,1.52,119.8,-6.6,0.8
2.34,0.0,0.0,0.0,0.0,1.75,1.0,0.5,6.5,5.0,7.5,6.25,7.0,7.25,-0.11,0.08,0.95,815.88,-3.8,-68.1,4.5,0.5,0.5,1.75,0.25,0.0,0.75,0.5,0.5,1.0,1.0,0.5,0.5,-0.23,2.2,1.7,143.85,-17.5,27.9
2.36,0.0,0.0,0.0,0.0,1.75,1.0,0.5,6.5,4.75,7.0,6.0,6.75,7.0,-0.11,0.08,0.95,789.31,-3.8,-67.6,7.5,2.5,5.5,2.75,0.25,0.0,5.25,0.25,0.25,1.0,0.5,0.5,1.25,-6.11,7.95,-7.98,223.42,-24.2,48.9
2.38,0.0,0.0,0.0,0.0,0.0,1.75,0.25,6.25,5.25,6.0,5.25,5.75,6.5,-0.11,0.08,0.89,717.21,-4.2,-70.4,4.25,1.0,3.5,2.0,0.0,0.5,5.25,0.25,0.25,1.25,0.75,0.5,0.75,3.2,7.95,-0.42,256.61,-21.6,34.9
2.4,0.0,0.0,0.5,0.0,0.0,1.0,0.25,6.25,5.0,5.75,5.25,5.75,6.25,-0.11,0.08,0.95,651.11,-3.2,-70.4,0.5,0.0,3.25,0.5,0.5,0.0,3.0,0.25,0.25,0.0,0.75,0.25,0.75,-0.23,1.64,-1.42,246.42,-22.8,19.1
2.42,0.0,0.0,1.0,0.0,1.75,2.5,1.0,6.0,5.25,5.25,5.25,5.0,5.75,-0.11,0.08,0.95,600.74,-2.8,-56.0,2.0,0.75,1.25,2.0,0.5,0.5,0.0,0.0,0.0,0.0,1.0,0.0,0.5,-0.8,0.27,-4.3,211.75,-17.6,44.0
2.44,1.0,0.0,1.25,1.75,3.0,3.5,1.5,6.75,6.0,5.75,5.25,5.0,5.5,-0.11,0.08,0.95,593.82,-1.3,-41.2,1.0,0.0,0.5,1.25,0.25,2.0,1.0,0.25,0.5,0.5,0.75,0.5,0.5,1.08,-1.42,4.39,173.75,-5.4,7.0
2.46,0.25,0.0,1.25,2.25,2.5,4.25,2.0,7.0,6.5,4.75,5.75,3.5,4.5,-0.11,0.08,0.95,582.6,-1.3,-37.4,3.0,0.0,5.5,5.25,3.0,3.0,2.0,0.25,0.75,1.25,0.5,0.5,0.5,0.7,1.02,2.64,228.5,-14.1,38.7
2.48,1.75,0.75,2.0,2.5,5.25,4.75,2.75,7.0,6.75,4.5,5.25,3.0,3.25,-0.11,0.08,0.95,617.56,0.8,-18.9,4.5,0.75,7.0,5.75,6.25,3.25,3.0,1.5,1.5,0.0,0.0,0.0,0.25,0.02,0.14,1.27,319.88,-14.4,50.1
2.5,2.0,1.25,3.0,2.75,5.5,5.75,3.25,6.75,6.75,4.25,4.5,2.5,3.25,-0.11,0.08,0.95,658.26,1.5,-11.4,6.25,1.0,7.0,7.25,6.5,4.0,4.0,0.75,1.5,1.25,0.0,0.0,0.5,0.02,0.2,1.14,462.23,-14.2,48.8
2.52,3.0,1.5,3.5,4.75,6.25,6.0,3.5,6.75,6.0,3.25,3.5,1.75,2.5,-0.11,0.08,0.95,709.64,3.2,1.8,5.75,1.25,8.0,8.5,6.75,3.75,4.25,1.25,1.0,0.0,0.0,0.0,0.5,0.08,0.2,1.02,590.84,-15.4,53.1
2.54,4.5,1.5,3.5,5.75,7.75,6.75,3.75,6.5,5.5,2.75,2.5,1.75,2.25,-0.11,0.08,0.95,770.17,3.9,10.8,7.75,2.25,8.25,11.0,7.75,5.75,4.25,0.5,0.75,1.25,0.0,0.0,0.5,0.02,0.2,1.02,740.13,-14.1,53.9
2.56,5.75,0.75,4.5,6.75,9.25,7.25,4.25,5.75,4.75,2.0,2.25,1.5,2.25,-0.11,0.14,0.95,843.13,5.4,18.2,8.25,3.0,9.5,9.75,9.5,6.0,5.5,2.0,0.5,0.0,1.0,0.0,1.25,0.02,0.27,1.14,877.59,-13.5,50.8
2.58,7.0,1.25,6.0,8.5,11.5,7.5,4.25,5.25,3.75,2.0,1.0,1.5,2.25,-0.11,0.14,1.08,942.97,6.7,27.5,8.25,2.75,9.5,12.5,9.25,5.5,5.0,0.5,0.0,0.0,0.0,0.0,1.0,0.14,0.33,1.27,980.18,-15.1,57.7
2.6,8.75,1.75,7.5,10.5,11.5,7.75,3.25,4.75,3.25,2.0,1.5,1.5,2.0,-0.11,0.14,1.14,1064.33,8.5,32.3,10.5,4.75,11.5,11.0,11.0,5.25,5.0,2.0,0.25,0.0,0.75,0.0,1.0,0.2,0.39,1.33,1117.4,-15.1,56.2
2.62,10.5,3.25,9.0,10.5,13.5,7.25,3.5,4.5,2.25,2.0,1.25,0.0,1.75,-0.11,0.2,1.2,1202.01,9.8,41.9,10.5,5.25,11.0,9.25,8.25,3.75,5.25,0.75,0.25,1.0,0.0,0.0,0.5,0.45,0.7,1.39,1166.64,-17.4,60.2
2.64,12.5,3.25,9.0,9.75,12.0,6.25,2.0,3.25,2.25,2.0,0.75,1.5,1.0,-0.17,0.27,1.27,1270.2,11.8,44.0,9.25,4.25,10.5,7.5,7.75,1.75,6.75,0.25,0.25,0.0,0.75,0.5,1.0,0.7,0.95,1.89,1121.05,-19.4,57.4
2.66,14.0,4.0,11.0,13.0,13.0,6.75,1.5,4.25,2.0,2.0,2.0,1.5,2.0,-0.17,0.33,1.33,1374.08,11.9,42.0,9.25,4.75,8.75,5.25,4.5,0.5,7.25,0.5,0.25,1.25,0.75,0.5,1.0,1.77,2.27,2.7,966.84,-20.7,54.0
2.68,16.0,4.5,12.0,12.0,12.0,5.75,2.0,3.5,2.0,1.75,1.25,1.5,1.25,-0.17,0.45,1.39,1429.02,14.1,47.5,8.25,2.75,7.0,2.75,1.25,1.0,6.25,0.25,0.25,1.25,0.75,0.5,1.0,1.45,1.95,3.39,747.19,-22.6,49.8
2.7,16.0,4.5,11.0,10.5,9.5,4.25,4.25,2.5,1.5,1.75,0.75,1.25,1.5,-0.42,0.58,1.7,1429.73,15.9,49.6,5.75,1.0,5.25,1.25,1.75,0.5,3.5,0.25,0.25,1.0,0.75,0.5,0.75,0.08,2.64,3.27,501.83,-21.7,44.0
2.72,14.0,4.5,10.0,8.25,7.75,3.0,5.75,2.75,1.25,1.75,1.25,1.25,2.25,-0.86,1.14,2.27,1350.12,16.0,44.5,1.5,0.0,3.25,0.0,0.5,0.0,1.0,0.25,0.0,0.0,0.0,0.0,0.0,-0.8,0.77,0.02,283.22,-30.8,62.0
2.74,10.5,3.25,8.25,5.75,5.75,2.0,5.5,2.25,1.0,1.75,1.25,0.5,0.5,-1.67,2.14,3.52,1125.97,17.1,47.5,2.0,1.0,3.0,1.5,0.5,0.5,1.5,0.25,0.25,1.25,0.5,0.5,0.0,1.64,2.2,2.89,173.02,-18.4,35.3
2.76,7.0,0.75,4.5,1.0,2.25,0.0,1.5,0.25,0.75,1.75,0.0,0.0,0.25,-0.86,2.52,3.89,720.86,21.8,52.8,0.75,0.5,2.5,1.0,0.5,0.5,1.25,0.5,0.25,0.75,0.75,0.5,0.5,-1.3,0.64,2.02,72.99,-14.6,15.3
2.78,1.0,0.0,1.75,0.0,2.5,0.0,1.0,0.75,1.25,1.25,0.25,0.0,0.5,-0.67,2.77,4.14,373.02,8.5,12.2,1.0,0.5,2.0,1.25,0.5,0.5,1.0,0.25,0.25,1.0,1.0,0.5,0.5,-0.86,0.83,0.58,24.35,-13.6,12.7
2.8,0.75,0.0,1.75,0.0,0.0,0.0,0.0,0.25,0.25,0.25,0.0,0.0,0.75,-1.55,3.58,-0.61,155.21,19.3,13.8,1.25,0.5,1.75,0.5,0.5,0.25,1.0,0.25,0.25,1.0,1.0,0.5,0.75,-0.48,1.45,1.08,0.0,-13.3,5.5
2.82,0.25,0.0,0.5,0.0,2.5,0.0,0.25,0.25,0.25,0.0,0.0,0.0,0.0,0.02,1.27,1.89,0.0,4.9,45.3,0.5,0.75,2.0,0.75,0.5,0.5,1.0,0.5,0.25,1.25,0.75,0.5,0.75,-0.17,0.7,1.7,0.53,-10.1,3.7
2.84,0.0,0.0,0.5,0.0,1.75,0.0,0.25,0.0,0.25,0.0,0.0,0.0,0.5,0.45,1.52,-0.67,0.0,3.7,22.5,1.75,0.75,2.0,0.75,0.5,0.5,1.0,0.5,0.25,1.0,0.75,0.5,1.0,0.77,-1.42,1.33,12.99,-12.9,13.0
2.86,0.0,0.0,0.5,0.0,1.75,0.0,0.25,0.0,0.25,0.0,0.0,0.5,1.25,-0.36,1.08,-1.36,0.0,1.4,-13.3,1.25,1.25,1.75,0.5,0.5,0.5,1.0,0.25,0.25,1.25,1.0,0.5,1.0,0.7,-2.3,2.2,46.0,-11.1,8.3
2.88,0.5,0.0,0.5,0.0,1.75,0.0,0.25,0.0,0.25,0.0,0.0,1.0,1.0,-0.36,0.83,-0.86,0.0,5.7,-7.9,1.25,0.5,1.75,0.75,0.5,0.75,1.0,0.25,0.25,1.0,0.75,0.5,1.25,1.02,-4.48,2.08,76.99,-10.4,4.3
2.9,0.5,0.0,0.5,0.0,1.75,0.0,0.25,0.0,0.25,0.0,0.0,0.0,0.5,0.2,0.2,-0.11,0.0,7.5,31.5,0.5,0.25,1.0,0.0,0.5,0.5,1.0,0.25,0.25,0.0,1.0,0.0,1.25,-0.86,-2.73,-0.8,82.35,-8.8,-6.5
2.92,0.0,0.0,0.25,0.0,1.75,0.0,0.0,0.0,0.25,0.0,0.0,0.0,0.5,0.33,-0.11,0.83,0.0,-0.2,19.0,1.0,0.5,0.5,0.5,0.25,0.5,0.25,0.25,0.25,0.0,0.0,0.5,0.5,-0.55,-0.11,-2.48,82.04,-11.5,22.2
2.94,0.0,0.0,0.5,0.0,1.75,0.0,0.25,0.0,0.25,0.0,0.0,0.0,0.5,0.45,-0.73,1.27,0.0,3.7,22.5,2.0,0.5,1.75,0.5,0.5,0.25,0.75,0.5,0.5,1.25,1.0,0.5,1.5,0.39,-0.67,-2.61,106.91,-11.3,-0.6
2.96,0.25,0.0,0.5,0.0,1.75,0.0,0.25,0.0,0.25,0.0,0.0,0.0,0.5,0.64,-1.36,1.64,0.0,5.7,27.3,0.5,0.0,1.75,0.0,0.5,0.25,1.0,0.25,0.0,0.0,0.0,0.0,0.5,0.39,-0.86,-1.92,99.64,-19.0,32.6
2.98,0.25,0.0,1.0,1.0,2.25,1.0,1.0,0.25,0.75,1.75,0.5,1.25,1.5,0.45,-2.23,2.64,42.21,1.8,-14.7,0.75,0.0,0.25,0.0,0.0,0.5,0.25,0.25,0.0,0.0,0.0,0.25,0.5,-1.11,-0.36,-1.73,75.09,-7.1,3.9
3.0,0.75,0.0,2.0,0.5,2.25,1.25,0.75,0.0,0.75,1.25,0.0,1.25,1.5,0.83,-3.11,3.64,120.84,5.5,-1.2,1.5,0.5,2.0,0.5,0.5,0.5,0.75,0.25,0.25,1.25,0.75,0.75,1.25,-2.55,-0.61,-1.36,91.87,-11.3,0.8
3.02,0.25,0.0,2.0,0.75,2.25,1.0,0.75,0.25,0.5,0.75,0.5,1.25,1.5,0.89,-2.8,3.39,166.33,5.7,-4.4,1.75,0.5,1.75,0.75,0.5,0.5,0.75,0.25,0.25,1.25,1.0,0.75,1.5,-2.23,-0.42,-1.42,115.77,-10.7,-1.3
3.04,0.25,0.5,1.75,0.75,2.25,0.5,0.5,0.25,0.25,1.25,0.5,1.25,1.0,0.52,-1.8,2.58,182.99,5.9,-0.7,1.5,0.5,1.75,0.75,0.25,0.5,0.75,0.25,0.25,1.25,0.75,0.5,1.25,-1.36,-0.3,-1.36,134.83,-11.3,2.0
3.06,0.0,0.0,2.0,0.25,2.5,0.75,0.75,0.25,0.5,1.75,0.5,1.5,1.75,0.39,-1.23,2.08,191.33,2.9,-18.2,1.25,0.25,1.25,0.75,0.5,0.5,0.75,0.25,0.25,1.0,0.75,0.75,1.5,-0.67,-0.42,-1.17,143.57,-8.7,-8.5
3.08,0.0,0.0,1.0,0.0,2.25,0.75,0.75,0.25,0.75,1.5,0.0,1.75,2.25,0.02,4.58,-7.98,187.53,-0.7,-32.1,1.25,0.75,1.5,0.75,0.5,0.5,0.75,0.25,0.25,1.25,1.0,0.75,1.25,-0.23,-0.36,-1.42,151.86,-9.6,-2.1
3.1,0.25,0.0,1.0,0.0,2.5,0.0,0.75,0.25,0.5,0.5,0.25,1.5,2.25,-3.8,1.14,-7.98,177.59,2.8,-25.7,1.25,0.5,1.5,0.5,0.25,0.5,0.75,0.25,0.25,1.25,1.0,0.75,1.25,-0.36,0.08,-1.3,149.78,-9.7,-8.1
3.12,0.0,0.0,0.25,0.0,1.25,0.0,0.0,0.25,0.25,0.5,0.0,1.5,0.5,-6.11,1.64,-3.98,146.15,0.4,-39.1,1.0,0.5,1.75,0.75,0.5,0.5,0.75,0.25,0.25,1.0,1.0,0.5,1.25,-0.73,0.52,-0.67,151.78,-10.4,-0.9
3.14,0.0,0.0,0.25,0.0,1.75,0.0,0.0,0.5,0.25,0.0,0.0,0.0,0.25,-2.67,0.45,1.08,109.77,-1.7,20.3,2.0,0.25,1.75,0.75,0.25,0.5,0.75,0.25,0.25,1.25,1.25,0.5,1.25,-0.86,0.52,-0.48,158.63,-12.2,0.3
3.16,0.0,0.0,0.25,0.0,1.25,0.0,0.0,0.0,0.25,0.0,0.0,0.75,0.5,1.77,-4.05,4.95,73.56,2.3,-17.0,1.75,0.25,1.75,0.0,0.5,0.5,1.0,0.25,0.25,1.0,1.0,0.5,1.25,-0.92,0.58,-0.3,156.25,-11.8,-0.8
3.18,0.25,0.0,1.0,0.25,2.25,1.0,0.75,0.0,0.75,1.25,1.0,1.5,1.25,3.52,-1.8,1.27,89.0,2.5,-19.6,2.0,0.5,1.75,0.75,0.25,0.0,1.0,0.25,0.5,1.0,1.25,0.5,1.25,-0.92,0.58,-0.05,156.67,-14.7,2.5
3.2,0.0,0.0,0.75,0.25,2.25,0.0,0.75,0.25,0.75,1.0,0.75,1.25,1.5,1.58,0.2,-3.55,101.58,2.5,-27.7,1.25,0.75,1.75,0.5,0.25,0.5,1.0,0.25,0.25,1.25,1.0,0.5,1.25,-0.86,0.52,-0.11,158.74,-10.8,-0.7
3.22,0.0,0.0,0.75,0.25,1.75,0.0,0.75,0.25,0.75,0.5,0.5,1.0,1.5,0.64,0.27,-2.42,110.22,3.6,-26.5,1.5,0.25,1.75,0.5,0.25,0.5,1.0,0.25,0.25,1.25,1.0,0.5,1.0,-1.05,0.7,-0.3,153.47,-12.0,-0.7
3.24,0.0,0.0,1.0,0.0,2.25,0.25,0.75,0.25,0.5,0.5,0.75,1.0,1.25,0.52,-0.17,-1.86,115.72,3.5,-17.9,1.25,0.25,0.5,0.5,0.5,0.5,0.75,0.25,0.25,1.0,1.0,0.5,1.25,-0.86,0.7,-0.55,136.56,-6.4,-12.9
3.26,0.25,0.0,0.75,0.25,2.25,0.0,0.75,0.0,0.5,0.5,0.75,1.0,0.75,0.7,-0.36,-1.67,114.89,6.4,-9.2,1.75,0.5,0.75,0.75,0.25,0.75,0.75,0.25,0.25,1.25,1.0,0.5,1.25,-0.61,0.58,-0.48,135.54,-8.1,-3.1
3.28,0.5,0.0,0.75,0.25,2.25,0.0,0.75,0.25,0.75,0.75,0.25,0.75,1.25,0.83,-0.55,-1.36,115.85,4.4,-9.3,0.75,0.5,0.5,0.75,0.25,0.5,0.75,0.25,0.25,1.25,1.0,0.5,1.25,-0.67,0.52,-0.36,127.98,-4.9,-17.8
3.3,0.5,0.0,0.75,0.25,2.25,0.0,0.75,0.25,0.75,1.25,0.5,1.25,1.5,0.52,-0.3,-0.98,125.87,3.3,-21.8,0.5,0.25,0.5,0.75,0.25,0.75,0.75,0.25,0.25,1.25,0.75,0.5,1.0,-0.73,0.52,-0.42,119.74,-3.3,-18.7
3.32,0.25,0.0,0.75,0.25,2.25,1.0,0.75,0.25,0.75,1.75,0.5,1.5,1.25,0.08,-0.11,-0.67,144.89,0.1,-21.9,0.0,0.0,0.5,0.0,0.5,0.0,0.5,0.75,0.25,0.0,0.0,0.0,0.5,-0.67,0.45,-0.36,88.59,-3.1,-9.2
3.34,0.25,0.0,1.0,0.0,2.25,0.5,0.75,0.25,0.75,1.5,0.5,1.25,1.25,-0.36,0.2,-0.98,154.72,1.9,-21.0,0.0,0.0,0.0,0.0,0.0,0.0,0.0,0.0,0.25,0.0,0.0,0.0,0.5,-0.8,0.33,-0.36,52.09,5.3,-86.8
3.36,0.0,0.0,0.75,0.25,2.25,1.0,0.75,0.25,0.5,1.5,0.75,0.75,1.25,-0.55,0.39,-1.3,159.87,-0.9,-17.7,0.0,0.0,0.0,0.0,0.0,0.0,0.0,0.0,0.0,0.0,0.0,0.0,0.5,-0.92,0.64,-0.55,16.06,13.7,-109.8
3.38,0.0,0.0,0.75,0.0,2.25,1.0,0.75,0.25,0.75,1.0,0.5,0.75,1.5,-0.61,0.33,-1.11,154.78,-0.9,-18.3,0.0,0.0,0.0,0.0,0.0,0.0,0.0,0.0,0.0,0.0,0.0,0.0,0.5,-0.92,0.64,-0.61,0.0,13.7,-109.8
3.4,0.25,0.0,0.5,0.25,2.25,1.0,0.75,0.25,0.5,1.25,0.5,1.0,1.25,-0.55,0.33,-0.86,148.75,-0.7,-16.4,0.0,0.0,0.5,0.0,0.0,0.0,0.0,0.0,0.0,0.0,0.0,0.0,0.5,-0.98,0.77,-0.61,0.0,-12.2,-24.4
3.42,0.0,0.0,0.75,0.25,2.25,1.0,0.75,0.25,0.5,1.25,0.5,0.75,1.25,-0.48,0.2,-0.8,141.24,-0.8,-14.7,0.0,0.0,0.0,0.0,0.0,0.0,0.0,0.25,0.0,0.0,0.0,0.0,0.25,-0.86,0.7,-0.55,0.0,15.2,-74.8
3.44,0.0,0.0,0.5,0.0,2.25,1.0,0.75,0.25,0.5,1.25,0.5,1.0,1.5,-0.42,0.27,-0.8,141.61,-2.5,-23.9,0.0,0.0,0.0,0.0,0.0,0.0,0.0,0.25,0.0,0.0,0.0,0.0,0.0,-0.8,0.58,-0.48,0.0,16.7,-38.7
3.46,0.0,0.0,1.0,0.25,2.25,1.0,0.75,0.25,0.5,1.0,0.5,1.0,1.5,-0.3,0.39,-0.86,143.67,0.4,-16.0,0.0,0.0,0.0,0.0,0.0,0.0,0.0,0.25,0.25,0.0,0.0,0.0,0.5,-0.86,0.64,-0.55,0.0,8.1,-74.9
3.48,0.0,0.0,0.75,0.25,2.25,0.5,0.75,0.25,0.5,1.25,0.5,0.75,1.5,-0.17,0.45,-0.86,140.71,0.0,-19.8,0.0,0.0,0.0,0.0,0.0,0.0,0.0,0.25,0.0,0.0,0.0,0.0,0.5,-0.73,0.7,-0.55,0.0,14.7,-86.6
3.5,0.0,0.25,0.75,0.75,2.5,1.0,0.5,0.25,0.5,0.75,0.5,0.75,1.25,-0.11,0.39,-0.86,142.86,0.7,-3.3,1.5,0.0,0.0,0.0,0.0,0.0,0.0,0.25,0.0,0.0,0.25,0.0,1.25,-0.67,0.52,-0.3,6.95,-9.3,-10.1
3.52,0.5,0.0,0.5,0.5,2.25,1.0,0.75,0.25,0.5,1.25,0.75,0.75,1.25,-0.05,0.27,-0.86,143.86,0.5,-11.0,0.0,0.75,0.0,0.75,0.0,0.5,0.0,0.0,0.25,1.0,0.0,0.0,0.5,-0.86,0.64,-0.36,28.96,1.9,-0.9
3.54,0.25,0.0,0.75,0.25,2.25,1.0,0.75,0.25,0.5,1.25,0.5,1.0,1.25,-0.11,0.27,-1.05,144.81,0.2,-14.4,0.75,0.25,0.0,0.5,0.0,0.5,0.0,0.25,0.25,0.75,0.0,0.5,1.5,-0.86,0.64,-0.36,55.66,0.7,-30.4
3.56,0.0,0.0,0.75,0.25,2.25,1.0,0.75,0.25,0.5,1.75,0.5,0.75,1.0,-0.17,0.2,-1.05,143.92,-1.2,-15.3,0.0,0.0,0.5,0.0,0.0,0.0,0.0,0.25,0.0,0.0,0.0,0.0,0.5,-0.86,0.7,-0.42,54.93,-6.6,-27.2
3.58,0.0,0.0,0.75,0.0,2.25,1.0,0.5,0.25,0.5,1.75,0.5,1.0,1.25,-0.17,0.2,-0.98,143.99,-2.2,-22.6,0.25,0.0,0.0,0.0,0.0,0.0,0.0,0.25,0.0,0.0,0.0,0.0,0.5,-0.86,0.7,-0.42,46.47,3.0,-43.4
3.6,0.25,0.0,0.75,0.0,2.25,1.0,0.75,0.25,0.5,1.0,0.5,1.0,1.25,-0.11,0.2,-0.98,141.77,0.1,-14.8,0.0,0.0,0.0,0.0,0.0,0.0,0.0,0.25,0.0,0.0,0.0,0.0,0.5,-0.73,0.64,-0.36,30.6,14.7,-86.6
3.62,0.25,0.0,0.5,0.0,2.25,1.0,0.75,0.25,0.5,1.0,0.5,0.75,1.25,-0.05,0.27,-0.98,137.71,-1.1,-14.4,0.0,0.0,0.0,0.0,0.0,0.0,0.0,0.25,0.25,1.25,0.0,0.5,0.5,-0.8,0.7,-0.42,33.19,8.5,-81.4
3.64,0.25,0.0,0.75,0.25,2.25,1.0,0.5,0.25,0.5,1.0,0.5,0.5,1.5,0.08,0.33,-0.98,136.34,-0.6,-10.9,0.0,0.0,0.5,0.0,0.25,0.0,0.0,0.25,0.0,0.0,0.0,0.0,0.5,-0.73,0.77,-0.42,30.2,-4.7,-12.3
3.66,0.0,0.0,0.75,0.0,2.25,1.0,0.75,0.25,0.5,1.25,0.5,0.75,1.5,0.08,0.33,-0.98,135.75,-1.7,-19.3,0.75,0.0,0.0,0.0,0.0,0.0,0.0,0.25,0.0,0.0,0.0,0.0,0.5,-0.67,0.7,-0.48,31.37,-9.0,1.5
3.68,0.25,0.0,0.75,0.25,2.25,1.0,0.75,0.25,0.5,1.5,0.5,0.5,1.25,0.02,0.33,-0.98,137.74,-0.6,-11.1,0.0,0.0,0.0,0.0,0.0,0.0,0.0,0.25,0.0,0.0,0.0,0.0,0.5,-0.8,0.77,-0.48,23.95,14.7,-86.6
3.7,0.0,0.0,0.5,0.25,2.25,1.0,0.5,0.25,0.5,1.5,0.5,0.75,0.75,0.02,0.33,-0.98,134.96,-2.1,-13.6,0.0,0.0,0.25,0.0,0.0,0.0,0.0,0.25,0.0,0.0,0.0,0.0,0.5,-0.73,0.7,-0.42,17.68,1.3,-49.4
3.72,0.5,0.0,0.5,0.25,2.25,1.0,0.75,0.25,0.5,1.25,0.5,0.75,1.25,-0.05,0.33,-0.98,137.2,-0.1,-11.3,0.0,0.0,0.0,0.0,0.0,0.0,0.0,0.0,0.0,0.0,0.0,0.0,0.5,-0.73,0.64,-0.23,9.87,13.7,-109.8
3.74,0.25,0.0,0.75,0.25,2.25,1.0,0.5,0.25,0.5,1.5,0.5,0.5,1.25,-0.11,0.33,-0.98,137.06,-1.0,-11.6,0.0,0.0,0.0,0.0,0.0,0.0,0.0,0.25,0.0,0.0,0.0,0.0,0.5,-0.8,0.64,-0.11,6.7,14.7,-86.6
3.76,0.0,0.0,0.75,0.0,2.25,1.0,0.5,0.25,0.5,1.5,0.5,0.5,1.25,-0.11,0.33,-0.98,136.34,-2.4,-16.4,0.0,0.0,0.0,0.0,0.0,0.0,0.0,0.25,0.0,0.0,0.0,0.0,0.5,-0.92,0.64,0.14,6.58,14.7,-86.6
3.78,0.0,0.0,0.75,0.0,2.25,1.0,0.75,0.25,0.5,1.75,0.5,0.5,1.25,-0.11,0.33,-0.98,136.62,-2.3,-17.4,0.25,0.0,0.0,0.0,0.0,0.0,0.0,0.25,0.0,0.0,0.0,0.0,0.5,-0.92,0.64,0.27,9.14,3.0,-43.4
3.8,0.25,0.0,0.75,0.0,2.25,1.0,0.5,0.25,0.5,1.75,0.5,0.25,1.25,-0.05,0.33,-0.98,136.7,-2.2,-12.6,0.0,0.0,0.25,0.0,0.0,0.0,0.0,0.25,0.0,0.0,0.0,0.0,0.5,-1.05,0.7,0.39,13.6,1.3,-49.4
3.82,0.0,0.0,0.5,0.0,2.25,1.0,0.75,0.25,0.5,1.25,0.5,0.75,1.0,-0.05,0.27,-0.98,133.64,-2.1,-16.3,0.0,0.0,0.0,0.0,0.0,0.0,0.0,0.25,0.0,0.0,0.0,0.0,0.5,-0.98,0.58,0.83,13.44,14.7,-86.6
3.84,0.5,0.0,0.75,0.5,2.25,1.0,0.75,0.25,0.5,1.25,0.5,0.5,1.25,-0.05,0.33,-0.98,137.52,1.0,-5.1,0.5,0.0,0.25,0.0,0.0,0.0,0.0,0.25,0.0,0.0,0.0,0.0,0.5,-0.98,0.45,0.64,16.12,-10.0,-3.2
3.86,0.25,0.0,0.5,0.25,2.25,1.5,0.75,0.25,0.5,1.25,0.5,0.5,1.0,-0.05,0.27,-0.92,138.8,-2.0,-6.4,0.0,0.0,0.0,0.0,0.0,0.0,0.0,0.25,0.0,0.0,0.0,0.0,0.25,-1.05,0.58,0.27,12.92,15.2,-74.8
3.88,0.25,0.0,0.75,0.5,2.25,1.0,0.75,0.25,0.5,1.25,0.5,0.5,1.0,-0.11,0.39,-0.92,140.58,0.6,-4.8,0.0,0.0,0.0,0.0,0.0,0.0,0.0,0.25,0.0,0.0,0.0,0.0,0.25,-1.11,0.7,-0.05,12.64,15.2,-74.8
3.9,0.5,0.0,0.75,0.25,2.25,1.0,0.75,0.25,0.25,1.5,0.5,0.25,1.25,0.14,0.33,-0.92,140.65,-0.3,-5.1,0.0,0.0,0.0,0.0,0.0,0.0,0.0,0.0,0.0,0.0,0.0,0.0,0.5,-1.05,0.64,-0.23,10.33,13.7,-109.8
3.92,0.25,0.0,0.5,0.25,2.25,1.0,0.5,0.25,0.5,1.25,0.5,0.5,1.0,0.14,0.2,-0.92,137.96,-1.4,-9.0,0.0,0.0,0.25,0.0,0.0,0.0,0.0,0.0,0.0,0.0,0.0,0.0,0.25,-0.98,0.58,-0.23,9.09,-12.2,-24.4
3.94,0.25,0.0,0.5,0.25,2.25,0.5,0.75,0.25,0.25,1.5,0.75,0.5,1.25,0.08,0.2,-0.92,134.95,-0.6,-16.5,0.75,0.25,0.5,0.0,0.0,0.25,0.5,0.25,0.25,1.0,0.75,0.5,1.0,-0.73,0.45,0.02,35.58,-5.4,-31.1
3.96,0.0,0.0,0.5,0.0,2.25,0.25,0.75,0.25,0.5,1.0,0.5,0.25,1.25,0.14,0.27,-0.92,124.91,-0.9,-16.1,0.5,0.25,0.5,0.25,0.0,0.5,0.25,0.25,0.25,1.25,0.75,0.5,1.25,-0.8,0.39,0.02,64.29,-1.6,-35.7
3.98,0.5,0.0,0.5,0.0,2.25,1.0,0.75,0.25,0.25,1.0,0.75,0.75,1.25,0.27,0.27,-0.86,125.83,-0.2,-12.5,0.75,0.5,0.5,0.25,0.25,0.5,0.0,0.25,0.25,1.0,0.75,0.5,0.75,-0.73,0.64,-0.42,89.11,-4.5,-14.6
4.0,0.25,0.0,0.5,0.25,2.25,0.75,0.75,0.25,0.5,2.0,0.5,0.75,1.0,0.2,0.2,-0.92,129.17,-1.3,-17.4,0.75,0.5,0.5,0.25,0.25,0.5,0.25,0.25,0.25,1.25,0.75,0.25,1.25,-0.73,0.7,-0.48,105.1,-2.7,-19.7
4.02,0.0,0.0,0.75,0.0,2.25,0.75,0.75,0.25,0.25,1.25,0.5,0.75,1.25,0.14,0.27,-0.92,130.32,-1.1,-17.5,0.5,0.0,0.5,0.0,0.25,0.0,0.0,0.25,0.0,0.0,0.75,0.0,1.0,-0.67,0.7,-0.48,96.32,-7.5,-25.9
4.04,0.75,0.0,0.5,0.0,2.25,1.0,0.75,0.25,0.25,1.25,0.5,0.5,1.25,0.08,0.33,-0.98,132.65,-0.3,-7.0,0.5,0.25,0.0,0.0,0.0,0.5,0.0,0.25,0.25,0.0,0.0,0.25,0.25,-0.67,0.7,-0.48,77.87,-2.8,5.6
4.06,0.25,0.0,0.5,0.0,2.25,1.25,0.5,0.25,0.5,1.75,0.5,0.5,1.25,0.02,0.39,-1.05,135.05,-3.5,-16.0,0.0,0.5,0.5,0.0,0.25,0.5,0.25,0.25,0.25,0.0,0.0,0.0,0.5,-0.67,0.52,-0.42,62.91,-3.4,14.2
4.08,0.25,0.0,0.5,0.0,2.25,1.0,0.5,0.25,0.25,1.25,0.5,0.5,1.25,-0.05,0.45,-1.11,131.98,-2.7,-13.3,1.25,0.5,0.5,0.0,0.0,0.5,0.5,0.25,0.25,0.5,0.25,0.5,0.75,-0.67,0.45,-0.42,68.22,-9.4,0.8
4.1,1.0,0.0,0.75,0.0,2.25,1.0,0.75,0.25,0.25,1.5,0.5,0.5,1.0,-0.05,0.45,-1.11,135.74,1.5,-1.7,0.25,0.5,0.5,0.25,0.25,0.5,0.5,0.25,0.25,1.0,0.5,0.25,1.25,-0.86,0.58,-0.61,78.91,-1.2,-23.4
4.12,0.25,0.0,0.5,0.0,2.25,0.75,0.5,0.25,0.25,1.25,0.5,0.0,1.25,0.02,0.33,-1.05,130.15,-2.8,-8.6,0.75,0.75,0.5,0.5,0.25,0.5,0.0,0.25,0.25,1.0,0.75,0.25,1.25,-0.8,0.58,-0.55,95.44,-3.8,-11.3
4.14,0.25,0.0,0.75,0.0,1.75,0.5,0.5,0.25,0.25,0.5,0.5,0.5,1.25,0.08,0.33,-0.98,121.54,1.5,-12.6,0.75,0.25,0.5,0.0,0.5,0.5,0.25,0.25,0.25,1.0,0.5,0.25,1.25,-0.86,0.58,-0.48,100.46,-1.8,-20.1
4.16,0.25,0.0,0.75,0.25,2.25,1.0,0.5,0.25,0.25,1.25,0.5,0.5,1.0,0.08,0.27,-0.86,121.02,-0.6,-6.2,0.5,0.25,0.5,0.0,0.5,0.25,0.25,0.25,0.25,1.25,0.25,0.25,1.0,-0.86,0.58,-0.55,96.5,-1.0,-23.4
4.18,0.25,0.0,0.75,0.0,2.25,0.75,0.75,0.25,0.25,1.25,0.5,0.5,1.25,0.14,0.33,-0.92,122.4,-0.4,-11.8,1.0,0.5,0.5,0.25,0.25,0.5,0.0,0.25,0.25,0.75,0.25,0.25,1.0,-0.86,0.64,-0.61,90.22,-5.1,-2.4
4.2,0.0,0.0,0.5,0.0,2.25,1.0,0.75,0.25,0.25,1.25,0.5,0.75,1.0,0.14,0.33,-0.92,124.03,-2.6,-15.7,0.5,0.5,0.5,0.5,0.25,0.5,0.25,0.25,0.25,1.0,0.75,0.25,1.25,-0.8,0.52,-0.67,93.2,-2.8,-18.7
4.22,0.0,0.0,0.5,0.0,2.25,1.0,0.5,0.25,0.25,1.5,0.5,0.75,1.25,0.14,0.33,-0.98,124.78,-3.7,-20.7,0.75,0.5,0.5,0.25,0.25,0.5,0.25,0.25,0.25,1.0,0.75,0.25,0.75,-0.73,0.45,-0.55,95.89,-4.8,-9.9
4.24,0.0,0.0,0.75,0.0,2.25,1.0,0.5,0.25,0.25,1.5,0.5,0.25,1.25,0.14,0.27,-0.98,125.9,-3.2,-13.1,1.0,0.5,0.5,0.0,0.5,0.25,0.25,0.25,0.25,1.25,0.75,0.25,1.0,-0.8,0.52,-0.48,101.28,-4.5,-13.9
