time,left pressure 0[N/cm虏],left pressure 1[N/cm虏],left pressure 2[N/cm虏],left pressure 3[N/cm虏],left pressure 4[N/cm虏],left pressure 5[N/cm虏],left pressure 6[N/cm虏],left pressure 7[N/cm虏],left pressure 8[N/cm虏],left pressure 9[N/cm虏],left pressure 10[N/cm虏],left pressure 11[N/cm虏],left pressure 12[N/cm虏],left acceleration X[g],left acceleration Y[g],left acceleration Z[g],left total force[N],left center of pressure X[mm],left center of pressure Y[mm],right pressure 0[N/cm虏],right pressure 1[N/cm虏],right pressure 2[N/cm虏],right pressure 3[N/cm虏],right pressure 4[N/cm虏],right pressure 5[N/cm虏],right pressure 6[N/cm虏],right pressure 7[N/cm虏],right pressure 8[N/cm虏],right pressure 9[N/cm虏],right pressure 10[N/cm虏],right pressure 11[N/cm虏],right pressure 12[N/cm虏],right acceleration X[g],right acceleration Y[g],right acceleration Z[g],right total force[N],right center of pressure X[mm],right center of pressure Y[mm]
0.02,9.25,1.75,3.75,4.5,4.75,1.75,0.0,0.75,0.0,0.0,0.0,0.5,0.25,-0.8,1.08,2.83,765.73,17.5,64.0,10.5,1.75,8.5,7.75,7.75,4.5,1.5,0.5,1.0,0.5,0.25,0.75,0.0,0.02,0.2,0.95,841.58,-16.3,57.0
0.04,7.75,0.25,1.0,0.0,4.75,0.25,0.0,0.75,0.25,0.0,0.0,0.0,0.5,-0.73,0.64,2.95,441.33,16.2,63.6,11.0,2.0,8.75,0.0,7.75,4.0,1.25,0.0,0.75,0.5,0.0,0.0,0.0,0.02,0.27,0.95,717.37,-17.6,64.5
0.06,0.0,0.25,1.25,1.25,4.75,0.0,0.0,1.0,0.25,0.0,0.25,1.0,0.0,-0.67,-0.55,2.33,236.79,5.0,27.5,11.0,2.0,9.0,0.0,8.25,0.25,1.0,0.25,0.75,0.5,0.0,0.25,0.0,0.02,0.27,0.95,598.91,-21.3,65.5
0.08,1.75,0.0,1.0,0.25,4.75,0.0,0.0,0.0,0.0,0.0,0.0,0.0,0.0,-0.61,0.14,-0.3,86.65,9.8,63.1,11.0,1.5,9.0,0.0,8.25,2.0,0.75,0.0,0.75,0.0,0.0,0.0,0.25,0.02,0.27,0.95,515.36,-19.9,66.4
0.1,1.5,0.0,0.0,0.25,0.0,0.0,0.0,0.0,0.0,0.0,0.0,0.0,0.0,-0.23,-0.73,1.89,0.0,32.1,91.5,12.0,2.5,9.5,10.5,8.25,3.5,0.5,0.0,0.75,2.0,0.0,0.75,0.5,0.08,0.33,0.95,583.5,-16.7,56.0
0.12,2.5,0.5,0.5,2.5,4.75,1.75,0.0,0.0,0.25,1.25,1.25,1.0,0.0,-0.3,-0.67,1.33,0.0,6.0,30.2,12.0,3.5,11.0,13.0,9.25,4.5,0.5,0.0,0.75,0.25,0.0,0.0,0.5,0.02,0.33,0.95,711.66,-17.3,62.9
0.14,2.0,0.0,1.0,2.5,4.25,0.0,0.0,0.0,0.25,1.25,1.0,1.0,0.0,-0.36,-0.55,0.64,0.0,9.8,26.9,12.0,3.25,10.5,13.0,9.0,3.25,0.5,0.0,0.0,0.25,1.0,0.0,1.0,0.02,0.33,0.95,839.72,-17.7,60.7
0.16,1.75,0.25,1.0,2.5,2.5,0.0,0.0,0.0,0.25,1.25,0.75,1.0,0.0,-0.36,-0.42,0.52,0.0,11.6,24.6,14.5,4.25,12.5,14.5,9.75,2.75,0.75,0.0,0.75,1.5,1.5,0.25,1.25,0.02,0.33,1.02,1001.62,-18.0,56.6
0.18,1.75,0.25,1.0,2.5,4.25,0.0,0.0,0.0,0.25,1.25,1.0,1.0,1.0,-0.23,-0.36,0.7,45.7,7.8,17.6,14.5,4.5,13.0,15.0,9.5,3.75,0.75,0.75,0.75,1.25,1.5,1.0,1.25,-0.11,0.39,1.02,1143.02,-17.3,54.1
0.2,0.75,0.0,1.0,1.25,4.75,0.0,0.0,0.0,0.0,0.0,0.0,0.0,0.0,-0.17,-0.3,0.89,65.73,7.9,58.7,14.0,4.75,13.0,15.0,9.5,3.5,1.25,0.75,0.75,1.5,1.0,0.75,1.25,0.14,0.52,1.2,1251.75,-17.3,55.0
0.22,0.75,0.0,0.0,2.5,0.0,0.0,0.0,0.0,0.0,0.0,0.0,0.0,0.0,-0.11,-0.23,0.89,53.53,20.9,66.3,13.5,4.75,14.5,13.0,8.75,3.5,2.0,0.75,0.75,0.75,0.75,0.75,1.0,0.33,0.64,1.27,1299.91,-18.6,57.2
0.24,0.25,0.0,0.0,0.0,0.0,0.0,0.0,0.0,0.0,0.0,0.0,0.0,0.0,-0.11,-0.05,0.89,24.26,34.9,97.9,13.0,4.5,14.5,13.5,8.25,3.75,3.25,0.0,0.75,0.75,1.0,0.75,1.25,0.14,0.7,1.33,1318.19,-18.9,56.4
0.26,0.5,0.0,0.0,0.25,0.0,0.0,0.0,0.25,0.0,0.0,1.0,0.0,1.25,-0.11,0.02,1.02,23.04,2.9,-50.5,10.5,2.5,13.0,10.0,6.75,3.25,4.25,0.0,0.5,0.0,0.0,0.75,0.0,0.14,0.95,2.14,1194.87,-20.8,61.8
0.28,0.5,0.0,0.0,0.75,0.0,0.0,0.0,0.0,0.0,0.0,0.0,0.0,0.0,-0.11,0.14,1.14,8.19,23.8,72.8,9.75,2.5,10.5,9.5,5.25,3.5,4.5,0.0,0.5,1.5,0.25,0.75,1.0,0.39,1.58,2.89,1045.1,-18.5,52.7
0.3,1.5,0.25,1.0,2.5,0.0,0.0,0.0,0.0,0.25,0.0,0.0,1.0,0.25,-0.17,0.2,1.45,35.8,21.3,33.8,8.0,1.25,7.5,5.75,2.25,3.25,1.75,0.0,0.25,0.0,0.0,0.25,0.25,0.58,1.39,2.7,768.73,-21.0,63.1
0.32,1.5,0.25,1.0,2.5,0.0,0.0,0.0,0.75,0.25,1.25,1.0,1.0,0.25,-0.23,0.33,1.7,73.23,12.6,3.4,6.25,1.0,6.0,3.25,2.75,2.25,0.75,0.0,0.25,0.5,0.0,0.0,0.0,0.52,0.45,3.02,521.13,-20.1,63.5
0.34,1.5,0.25,1.0,2.5,0.0,0.0,0.0,0.75,0.25,1.25,1.0,1.0,1.25,-0.36,0.58,2.08,111.58,10.1,-7.3,2.5,0.0,2.75,1.75,2.5,2.25,0.5,0.0,0.5,0.0,0.0,0.25,0.0,0.27,-0.42,-0.73,295.06,-13.8,53.4
0.36,1.5,0.25,1.0,2.25,0.0,0.0,0.0,0.75,0.25,1.25,0.75,1.0,1.25,-0.48,1.14,2.52,124.98,9.9,-7.4,2.5,0.0,2.0,1.5,1.75,1.75,0.5,0.0,0.75,1.0,0.0,0.5,0.0,0.52,-0.3,2.45,177.78,-12.2,37.7
0.38,1.5,0.0,1.0,2.0,2.25,0.0,0.0,0.75,0.25,1.25,1.0,1.0,1.25,-0.55,2.39,3.14,155.81,6.9,0.3,3.0,1.0,4.0,4.0,4.75,3.5,0.5,0.0,0.5,0.75,0.0,0.75,1.0,0.27,-0.98,1.89,147.64,-9.9,41.8
0.4,1.5,0.25,1.0,2.25,2.25,0.0,0.0,0.5,0.25,1.25,1.0,1.0,1.25,-0.36,3.64,2.2,176.26,7.7,4.2,2.0,1.0,3.0,4.0,4.75,3.5,0.5,0.0,0.5,0.5,0.25,0.75,0.75,0.27,-0.73,1.14,148.21,-8.1,40.3
0.42,1.5,0.25,0.5,2.5,0.75,0.0,0.0,1.0,0.25,1.25,0.75,1.0,1.25,-0.48,5.45,0.95,183.27,7.1,-5.0,0.0,1.0,2.75,3.0,4.75,4.0,0.5,0.0,0.75,0.5,0.25,0.75,0.75,0.27,-0.55,0.39,166.19,-4.0,32.5
0.44,1.5,0.25,1.0,1.75,0.0,0.25,0.0,1.0,0.25,1.25,1.0,1.0,1.25,1.27,7.58,-1.92,186.73,8.1,-12.0,1.25,1.0,2.75,2.5,4.75,3.25,0.75,0.0,0.75,1.25,0.25,0.75,0.75,0.14,-0.36,0.39,181.74,-5.8,31.5
0.46,1.5,0.5,1.0,0.75,0.0,0.0,0.0,1.0,0.25,2.0,1.25,1.5,2.25,0.2,-2.17,-1.23,189.66,4.8,-34.4,1.75,1.0,2.25,2.0,4.5,3.5,0.5,0.0,0.75,0.75,0.5,0.75,0.75,0.02,-0.23,0.39,193.74,-5.6,32.8
0.48,1.5,0.5,1.0,1.0,0.0,0.75,0.0,2.5,0.25,2.0,1.5,2.5,3.5,-1.42,0.64,0.89,210.42,0.8,-41.2,1.5,1.0,2.5,2.5,4.75,2.0,0.5,0.0,0.75,1.0,0.25,0.5,0.25,0.08,-0.17,0.58,200.42,-8.2,39.3
0.5,1.25,0.5,1.0,1.75,0.0,1.75,0.0,3.0,0.25,4.5,2.0,3.5,5.5,0.27,1.2,2.14,261.15,-2.5,-48.9,2.0,1.0,2.25,2.0,4.5,1.75,0.5,0.0,0.75,1.0,0.5,0.5,0.75,0.08,-0.17,0.7,217.98,-8.2,34.0
0.52,1.5,0.75,0.25,1.25,1.25,3.0,0.0,6.5,1.25,6.5,3.75,6.0,6.0,0.64,1.02,3.33,366.57,-4.3,-50.4,1.25,1.0,1.75,2.0,4.5,3.25,0.5,0.0,0.75,0.75,0.25,1.0,1.0,0.14,-0.05,0.89,234.46,-4.0,27.8
0.54,1.75,0.75,0.0,2.5,4.75,3.5,0.25,7.0,3.75,7.5,5.5,7.0,7.25,-0.11,0.27,1.14,551.26,-2.9,-41.7,1.5,1.0,1.5,2.0,4.5,3.25,0.5,0.0,0.75,1.25,0.25,0.25,1.0,0.14,0.08,0.95,251.06,-3.1,31.1
0.56,1.25,0.0,0.0,3.0,4.75,4.0,0.0,7.5,3.0,7.25,6.0,6.5,7.5,0.02,0.14,0.95,722.35,-3.8,-43.4,1.25,1.0,1.75,1.75,4.25,3.5,0.5,0.0,0.75,1.0,0.25,0.75,0.75,0.14,0.2,1.2,256.56,-3.4,29.5
0.58,1.75,0.75,0.5,2.5,5.0,4.0,0.25,8.0,3.25,8.0,6.0,7.25,7.75,-0.11,0.08,0.95,871.21,-3.1,-41.2,1.25,1.0,1.75,1.75,4.5,3.25,0.75,0.0,0.5,1.25,0.25,0.5,0.75,0.2,0.33,1.52,258.6,-3.4,31.2
0.6,1.75,0.75,1.0,2.5,4.75,4.25,0.25,8.25,3.0,8.5,6.25,7.25,8.0,-0.11,0.08,0.95,964.49,-3.0,-41.2,1.25,1.0,1.75,1.75,4.25,3.5,0.5,0.0,0.75,0.75,0.25,0.75,1.0,0.27,0.52,1.77,252.84,-3.5,29.0
0.62,1.75,0.5,0.25,2.5,4.75,4.5,0.25,8.5,2.75,8.25,6.0,7.25,8.0,-0.11,0.08,0.95,1008.03,-3.9,-42.6,1.25,1.0,1.5,1.75,3.25,3.5,0.75,0.0,0.75,0.75,0.25,0.75,0.75,0.39,0.83,2.27,239.46,-3.9,28.9
0.64,1.5,0.5,0.0,2.5,4.75,5.25,0.0,9.0,2.75,8.25,6.0,6.5,8.0,-0.17,0.08,0.89,1018.82,-4.8,-41.9,1.25,1.0,1.5,1.75,3.5,3.25,0.5,0.0,0.75,1.0,0.25,0.5,1.0,0.58,1.64,2.7,237.34,-3.3,27.6
0.66,1.5,0.75,0.0,2.5,4.75,5.25,0.25,9.25,3.0,8.25,5.75,6.25,7.75,-0.17,0.08,0.95,1015.24,-4.7,-40.3,1.5,1.0,1.75,1.75,3.5,3.25,0.5,0.0,0.75,1.0,0.25,0.75,0.75,0.83,2.83,3.2,236.99,-4.6,29.1
0.68,1.75,0.5,1.0,2.75,4.75,5.5,0.25,9.25,3.25,7.75,5.5,5.5,7.25,-0.17,0.08,0.95,988.65,-3.8,-35.7,1.25,0.75,1.25,1.75,3.75,3.5,0.5,0.0,0.5,0.25,0.0,0.5,0.75,1.27,4.45,1.39,229.81,-3.0,36.7
0.7,1.5,0.25,1.5,2.75,4.75,5.75,0.75,9.25,3.25,7.25,4.5,4.25,6.25,-0.11,0.08,0.95,922.87,-3.9,-31.0,1.5,1.0,1.0,1.75,3.5,3.0,0.5,0.0,0.5,0.75,0.0,0.75,0.75,0.2,5.45,-1.55,225.39,-3.4,31.9
0.72,1.5,0.0,1.0,2.5,4.75,6.75,0.0,9.25,3.0,6.5,2.5,3.0,5.5,-0.11,0.08,0.95,818.09,-5.9,-26.4,1.5,1.0,1.25,1.5,2.75,1.25,0.5,0.5,0.5,0.75,0.25,0.75,1.5,-4.42,6.58,-1.23,215.54,-5.8,18.4
0.74,1.5,0.25,1.0,3.0,5.0,6.75,0.25,9.5,2.5,5.5,2.25,2.75,4.75,-0.17,0.08,0.95,718.07,-5.5,-20.7,2.0,1.0,1.75,1.5,4.5,1.25,0.5,1.25,0.25,0.5,1.5,1.5,2.25,-0.11,-0.92,-0.17,232.28,-5.4,9.3
0.76,1.5,0.25,1.0,3.5,5.75,7.25,0.25,9.5,2.0,5.5,2.0,2.75,4.0,-0.17,0.08,0.95,645.25,-5.5,-15.9,1.75,0.0,1.25,1.5,3.75,3.5,0.5,1.5,0.75,2.0,1.5,1.5,3.0,0.08,0.7,1.64,255.38,0.4,-7.4
0.78,1.5,0.25,1.0,3.5,6.75,7.5,0.25,9.5,2.0,4.75,2.0,2.0,3.5,-0.11,0.14,0.95,606.7,-5.5,-10.2,0.25,0.5,1.25,1.25,3.0,3.5,0.5,1.75,1.0,6.0,2.5,4.0,4.5,-1.36,0.83,4.2,306.84,3.5,-38.3
0.8,1.5,0.25,1.25,4.0,7.0,8.0,0.25,9.5,2.0,4.5,2.0,1.75,3.25,-0.11,0.14,0.95,602.82,-5.1,-6.7,1.25,0.0,1.0,1.25,1.0,3.5,0.5,4.0,2.75,6.25,5.5,5.5,6.25,0.08,0.64,1.27,400.55,2.1,-52.2
0.82,1.5,0.25,1.25,4.0,7.0,8.25,0.25,9.5,2.0,4.25,0.0,1.5,2.25,-0.17,0.14,0.95,587.4,-5.8,0.0,4.0,1.25,1.0,0.0,5.0,4.25,0.5,4.25,3.75,7.75,7.0,6.0,5.75,-0.11,0.2,1.02,557.69,0.3,-33.7
0.84,1.5,0.75,1.25,5.0,7.0,8.75,0.25,9.5,2.0,3.75,0.0,1.25,2.25,-0.17,0.14,0.95,587.67,-5.2,4.4,5.0,1.0,2.25,1.5,4.75,3.75,0.75,5.5,4.0,7.5,7.75,6.0,7.0,0.08,0.14,0.95,726.51,-1.3,-30.5
0.86,1.75,1.25,1.25,5.0,7.5,9.0,0.25,9.5,1.75,3.5,0.5,1.25,2.25,-0.17,0.08,0.95,598.94,-4.7,6.5,5.75,1.0,2.25,1.5,4.5,3.75,1.25,5.5,4.25,7.25,7.75,6.0,7.0,0.08,0.14,0.95,862.38,-2.0,-29.0
0.88,1.75,1.5,1.25,5.25,8.75,9.75,0.0,9.25,1.25,3.5,0.0,1.25,2.5,-0.17,0.14,0.95,628.55,-5.1,10.1,7.0,1.0,2.5,1.5,4.75,3.75,1.25,5.25,4.5,7.0,7.5,5.75,6.5,0.08,0.14,0.89,947.84,-3.1,-24.1
0.9,2.25,1.25,1.5,6.75,10.5,10.0,0.0,9.0,1.25,3.5,1.25,1.25,2.25,-0.17,0.14,0.95,691.09,-3.5,12.7,8.0,1.0,2.75,2.25,4.75,3.75,1.75,4.75,4.75,6.75,7.5,5.25,6.0,0.08,0.14,0.95,994.39,-4.5,-18.7
0.92,3.25,0.5,1.75,7.25,11.5,10.0,0.0,8.5,1.0,3.25,2.0,1.25,2.25,-0.17,0.14,0.95,764.15,-2.3,14.4,9.0,1.25,4.0,3.0,4.75,4.25,1.75,4.5,5.25,6.0,7.0,4.25,5.5,0.02,0.14,0.95,1029.93,-6.1,-9.8
0.94,4.25,1.75,2.25,8.5,13.0,11.0,0.0,8.0,0.5,2.25,1.75,1.25,2.0,-0.11,0.14,1.02,863.06,-0.7,23.9,9.75,1.0,4.0,3.75,4.75,5.0,2.5,4.25,5.25,4.75,6.25,3.0,3.75,0.08,0.14,0.95,1031.27,-7.5,0.4
0.96,5.5,0.5,2.75,9.25,15.0,10.5,0.0,7.5,0.5,1.25,1.25,1.25,2.25,-0.17,0.2,1.02,948.96,0.5,28.0,10.5,1.5,5.0,4.0,5.0,5.0,2.75,4.0,5.25,3.5,4.75,2.25,2.75,0.08,0.14,0.95,1014.7,-9.4,11.9
0.98,6.75,3.0,3.75,13.0,16.5,12.5,0.0,6.75,0.25,2.0,0.25,1.25,2.0,-0.17,0.2,1.14,1103.59,2.1,36.5,11.0,1.75,6.0,5.0,5.0,5.0,3.25,3.25,5.0,2.5,4.5,1.5,2.5,0.08,0.14,0.95,983.27,-11.4,20.0
1.0,9.25,3.5,3.75,13.5,17.5,12.0,0.0,6.25,0.0,1.75,0.0,1.0,1.75,-0.17,0.2,1.2,1251.45,3.6,41.9,11.5,1.75,6.0,5.0,5.25,5.0,3.5,3.0,5.0,2.0,3.5,1.5,2.0,0.08,0.14,0.95,945.53,-12.2,25.1
1.02,10.0,3.5,4.5,13.0,16.0,10.0,0.0,5.0,0.25,0.0,0.0,1.0,1.25,-0.23,0.27,1.27,1321.85,6.2,48.0,12.0,1.75,6.75,6.0,5.75,5.25,4.0,2.25,4.25,2.25,2.5,1.5,1.5,0.08,0.14,0.95,915.15,-13.2,31.6
1.04,11.0,4.75,2.5,13.5,15.0,9.5,0.0,3.75,0.0,0.0,0.5,0.25,1.0,-0.3,0.33,1.33,1322.8,6.7,53.0,12.0,1.75,7.25,7.0,6.0,5.25,4.0,1.5,3.25,2.25,2.5,1.5,1.5,0.08,0.14,0.95,894.02,-13.8,34.7
1.06,11.5,3.5,4.75,12.5,13.0,8.75,0.0,2.75,0.25,0.0,0.75,0.25,0.25,-0.3,0.39,1.39,1267.94,9.3,55.5,12.0,1.75,8.0,8.0,6.75,5.0,3.75,1.5,3.25,0.75,2.25,1.5,1.5,0.08,0.2,0.95,890.9,-14.9,39.4
1.08,11.5,3.75,4.5,7.75,10.5,6.75,0.0,2.75,0.0,0.0,0.0,0.0,0.75,-0.48,0.7,2.27,1107.04,10.0,57.9,12.0,2.0,8.5,9.0,6.75,5.0,3.25,1.5,2.5,2.5,2.0,1.25,1.5,0.08,0.2,1.02,909.2,-14.2,38.9
1.1,9.25,3.5,3.75,8.25,8.75,5.75,0.0,2.25,0.25,0.0,0.0,0.0,0.5,-1.11,1.02,2.58,924.03,10.2,57.9,11.0,1.0,8.25,8.5,6.25,3.5,2.5,0.0,1.75,1.0,1.0,0.25,0.25,0.08,0.2,1.02,847.35,-18.0,53.8
1.12,7.75,2.0,1.75,4.75,7.0,3.5,0.0,1.25,0.0,0.0,0.0,0.0,0.25,-1.3,1.27,3.02,681.14,10.5,61.3,11.0,1.0,8.75,8.0,6.0,3.5,1.75,1.5,1.25,0.5,0.25,0.5,0.0,0.02,0.2,1.02,781.07,-17.8,55.6
1.14,6.0,0.25,0.0,0.0,4.75,1.75,0.0,1.0,0.0,0.0,0.0,0.0,0.25,-0.86,0.7,2.95,412.63,8.6,60.0,11.0,1.75,9.0,0.0,6.75,2.0,0.5,0.0,1.0,0.5,0.0,0.25,0.0,0.02,0.27,1.02,642.04,-20.6,64.6
1.16,1.25,0.0,0.0,0.0,4.25,1.75,0.0,1.0,0.0,0.0,0.0,0.0,0.0,-0.86,-0.55,2.89,231.18,-3.4,45.2,11.5,1.75,9.25,0.0,6.75,3.5,0.5,0.0,1.0,0.5,0.25,0.75,0.0,0.02,0.27,0.95,562.81,-19.0,60.5
1.18,0.0,0.0,0.0,0.25,1.25,1.5,0.0,0.5,0.0,0.0,0.0,0.0,0.0,-0.48,-0.17,-0.61,62.4,-11.3,33.5,12.0,1.75,11.0,9.5,8.0,0.0,0.75,0.0,0.75,0.0,0.0,0.0,0.0,0.02,0.33,0.95,567.56,-22.6,67.6
1.2,0.5,0.0,0.0,0.0,0.5,1.75,0.0,0.0,0.0,0.0,0.0,0.0,0.25,-0.55,-0.98,1.83,0.0,-9.1,35.4,12.0,2.5,9.5,10.5,7.5,0.0,0.0,0.0,0.75,0.0,0.0,0.0,0.25,0.02,0.33,0.95,607.93,-21.8,67.6
1.22,0.75,0.0,0.0,0.0,0.0,1.75,0.0,0.0,0.0,0.0,0.0,0.0,0.0,-0.36,-0.67,0.64,0.0,-5.6,53.0,12.0,2.75,10.5,11.0,7.5,0.0,0.0,0.0,0.75,0.0,0.0,0.0,0.75,-0.05,0.33,0.95,667.35,-21.6,65.6
1.24,0.75,0.0,0.0,0.0,0.0,0.0,0.0,0.5,0.0,0.0,0.0,0.0,0.25,-0.36,-0.61,0.52,0.0,8.6,14.3,12.5,3.25,11.0,11.5,7.75,0.75,0.0,0.0,0.5,0.5,0.0,0.25,0.5,-0.11,0.39,1.02,733.53,-20.8,64.7
1.26,0.5,0.0,0.0,0.25,0.0,0.0,0.0,0.0,0.0,0.0,0.0,0.0,0.0,-0.36,-0.55,0.39,0.0,28.6,83.5,13.0,3.0,12.0,13.0,7.75,1.0,0.5,0.0,0.5,0.0,0.0,0.0,0.5,-0.11,0.39,1.02,803.81,-21.5,66.4
1.28,0.5,0.0,0.0,0.5,0.0,0.0,0.0,0.0,0.0,0.0,0.0,0.0,0.0,-0.3,-0.48,0.45,0.0,25.5,76.7,14.5,4.5,14.5,14.5,8.25,3.5,1.25,1.0,0.75,1.5,1.5,0.5,1.0,-0.17,0.45,1.2,969.84,-18.4,55.2
1.3,0.25,0.0,0.0,0.25,0.0,0.0,0.0,0.0,0.0,0.0,0.0,0.0,0.25,-0.23,-0.42,0.45,0.0,12.1,12.9,12.0,5.0,13.0,14.5,7.25,3.5,1.75,0.0,0.5,0.0,0.0,0.0,0.25,0.27,0.64,1.33,1055.26,-19.8,65.9
1.32,0.25,0.0,0.0,0.25,0.0,0.0,0.0,0.5,0.0,0.0,0.0,0.0,0.0,-0.3,-0.3,0.64,0.0,4.3,18.7,12.0,4.25,14.5,12.5,6.75,3.75,3.5,0.25,0.5,0.0,1.5,0.25,1.0,0.33,0.83,1.39,1135.33,-19.9,58.3
1.34,0.5,0.0,0.0,0.25,0.0,1.25,0.0,0.5,0.0,0.0,0.0,0.0,0.0,-0.3,-0.23,0.83,0.0,-6.0,33.9,12.0,4.75,12.0,11.5,4.75,3.5,4.0,0.0,0.5,0.75,0.0,0.5,0.0,0.14,1.27,2.08,1102.12,-20.7,63.4
1.36,0.5,0.0,0.0,0.25,0.0,0.25,0.0,0.5,0.0,0.0,0.0,0.0,0.0,-0.3,-0.05,1.02,0.0,4.8,33.8,9.0,2.5,11.0,7.75,4.5,3.5,4.5,0.0,0.25,0.0,1.25,0.25,0.5,0.45,2.02,3.14,974.78,-20.5,57.8
1.38,0.5,0.0,0.0,0.25,0.0,0.25,0.0,0.5,0.0,0.0,0.0,0.0,0.25,-0.3,0.14,1.27,6.24,2.0,12.3,7.75,1.0,7.75,5.0,0.5,2.5,1.75,0.0,0.0,0.0,0.0,0.25,0.0,0.39,1.58,3.52,716.85,-24.9,66.9
1.4,0.25,0.0,0.0,0.25,0.0,0.25,0.0,0.75,0.0,0.0,0.0,0.0,0.0,-0.36,0.2,1.39,16.75,-3.5,11.4,5.0,0.75,5.25,3.0,1.25,2.0,0.5,0.0,0.25,0.0,0.0,0.0,0.0,0.39,-0.05,3.33,464.31,-22.2,66.4
1.42,0.0,0.0,0.0,0.25,0.0,0.5,0.0,0.75,0.0,0.0,0.0,0.0,0.0,-0.48,0.39,1.7,22.77,-12.7,1.4,2.5,0.5,2.5,1.5,1.0,1.25,0.0,0.0,0.5,0.0,0.0,0.0,0.5,-0.17,-0.42,1.95,270.36,-17.5,53.5
1.44,0.0,0.0,0.0,0.25,0.0,0.0,0.0,0.5,0.0,0.0,0.0,1.0,0.0,-0.67,0.7,2.08,24.87,2.8,-64.6,2.75,1.0,2.0,2.75,1.0,3.25,0.5,0.0,0.75,1.75,0.25,0.75,0.75,1.2,-0.8,2.58,185.08,-8.4,27.4
1.46,0.0,0.0,1.0,0.25,0.0,0.5,0.0,0.75,0.0,0.0,0.0,0.0,0.25,-0.98,1.2,2.77,33.5,6.1,13.2,2.75,1.5,4.0,4.0,4.75,2.75,0.75,0.0,0.75,0.75,0.5,0.75,0.75,0.08,-0.92,2.14,172.2,-11.1,41.1
1.48,0.0,0.0,0.0,0.25,0.0,0.25,0.0,0.75,0.0,0.0,1.0,0.0,1.0,-1.17,2.27,3.2,44.3,-5.2,-59.1,2.5,1.25,2.5,4.0,4.75,3.5,0.0,0.0,0.5,1.0,0.25,0.25,0.75,0.27,-0.48,0.83,186.15,-7.2,42.7
1.5,0.0,0.0,0.0,0.25,0.0,0.25,0.0,0.5,0.0,0.0,0.0,0.0,0.25,-1.3,3.89,3.02,40.68,-10.2,-19.4,2.0,0.25,2.75,2.0,4.75,3.25,0.75,0.0,0.75,0.5,0.0,0.75,0.25,0.33,-0.42,0.27,186.7,-7.7,40.3
1.52,1.5,0.25,0.0,1.25,0.0,1.75,0.0,0.75,0.25,0.5,0.0,0.75,0.25,-0.23,6.27,-1.55,67.24,3.1,15.2,2.5,1.0,2.5,3.25,4.5,3.5,0.5,0.0,0.75,0.75,0.0,0.5,0.75,0.08,-0.3,0.33,193.36,-7.5,41.1
1.54,1.0,0.75,1.0,1.25,0.0,0.75,0.0,1.0,0.25,1.25,1.25,1.0,1.5,2.95,7.95,1.83,106.25,5.0,-16.5,2.0,1.0,2.25,2.75,4.5,1.5,0.5,0.0,0.75,0.75,0.0,0.75,1.0,-0.11,-0.17,0.64,198.36,-9.0,35.4
1.56,1.5,0.5,1.0,0.0,0.5,1.5,0.0,1.5,0.25,1.25,1.75,1.25,2.25,0.14,-1.73,0.7,151.61,1.2,-26.6,0.0,0.0,2.25,1.25,0.5,1.0,0.0,0.0,0.75,0.5,0.0,0.75,0.0,-0.17,-0.11,0.77,151.58,-13.3,18.5
1.58,0.0,0.0,1.0,0.25,0.0,1.75,0.0,2.5,0.25,2.0,1.25,2.75,2.0,-2.55,0.64,0.95,188.98,-4.0,-54.1,0.25,1.0,1.75,2.0,4.75,2.0,0.5,0.0,0.5,0.75,0.0,0.75,0.75,-0.11,0.02,0.77,160.66,-4.0,30.7
1.6,0.75,0.5,0.0,2.25,0.0,1.75,0.0,3.0,0.75,5.5,2.25,5.5,5.5,0.89,1.77,2.89,273.24,-3.5,-58.8,0.0,1.0,1.75,1.5,4.75,2.0,0.5,0.0,0.75,0.5,0.0,1.0,1.0,-0.05,0.14,0.89,174.3,-3.3,24.8
1.62,1.25,0.25,0.0,0.5,0.75,2.75,0.0,5.75,2.0,7.0,5.25,6.5,6.75,0.2,0.7,2.39,394.34,-4.5,-61.6,0.5,1.0,2.25,1.5,3.75,2.0,0.5,0.0,0.5,1.0,0.0,0.75,1.0,-0.05,0.27,1.02,200.21,-5.1,26.0
1.64,1.5,1.0,0.0,2.75,0.0,3.25,0.0,7.0,4.0,7.5,6.5,7.5,7.25,-0.05,0.02,1.08,586.88,-2.3,-54.0,0.0,1.0,1.25,1.5,4.5,2.5,0.5,0.0,0.5,0.25,0.25,0.75,1.25,-0.17,0.45,1.27,207.52,-1.3,24.3
1.66,0.75,1.0,0.0,2.0,4.75,3.0,0.0,7.5,3.75,7.25,7.0,7.75,7.75,-0.11,0.14,1.02,774.64,-3.2,-47.7,0.75,1.0,1.25,2.0,4.75,2.5,0.5,0.0,0.5,1.0,0.0,0.75,1.0,-0.11,0.58,1.77,220.79,-2.5,28.0
1.68,1.5,1.0,0.0,2.5,0.0,4.0,0.0,8.25,4.5,9.0,7.0,8.0,7.5,-0.17,0.08,0.95,915.37,-3.1,-54.4,1.25,1.0,1.0,1.5,3.75,2.75,0.5,0.0,0.5,0.75,0.0,0.75,1.0,0.14,0.95,2.2,211.86,-2.7,28.4
1.7,1.5,0.75,0.25,2.5,4.75,3.75,0.0,8.5,5.0,9.25,7.75,8.25,9.0,-0.11,0.08,0.95,1046.95,-3.0,-47.1,1.25,1.0,1.25,1.5,3.5,1.75,0.5,0.0,0.5,0.25,0.0,0.5,1.0,0.33,1.64,3.02,202.06,-5.9,34.6
1.72,1.5,1.0,0.25,2.5,4.75,4.0,0.0,8.5,5.0,9.25,7.5,8.5,9.0,-0.11,0.08,0.95,1133.0,-3.0,-46.3,0.0,1.0,1.25,1.5,3.75,1.25,0.5,0.0,0.5,0.75,0.25,0.5,1.0,1.14,3.2,3.7,195.95,-3.3,22.8
1.74,1.5,1.0,0.0,2.5,4.75,3.5,0.0,8.5,4.5,9.25,8.25,8.0,9.0,-0.11,0.08,0.95,1182.79,-3.1,-47.2,1.75,0.75,0.75,1.5,4.25,3.5,0.5,0.0,0.5,0.25,0.0,0.75,1.0,2.89,5.39,0.08,205.02,-2.1,33.3
1.76,1.5,0.5,0.0,2.5,4.5,3.5,0.0,8.5,3.75,8.5,7.5,7.5,9.0,-0.17,0.08,0.95,1158.22,-3.5,-47.9,1.25,1.0,1.25,1.5,3.75,3.5,0.5,0.0,0.5,0.0,0.0,0.5,1.0,1.33,5.39,-2.73,210.27,-2.9,36.7
1.78,1.5,0.5,0.0,2.0,4.75,3.5,0.0,8.5,3.75,8.0,6.75,6.5,8.0,-0.11,0.02,0.95,1088.72,-3.8,-45.5,2.0,1.0,2.0,1.5,3.5,3.25,0.5,0.0,0.5,0.0,0.0,0.5,1.0,-3.23,5.58,-1.23,226.49,-6.5,40.3
1.8,1.5,0.25,0.0,2.25,4.75,4.25,0.0,8.5,3.75,7.5,6.25,5.75,7.25,-0.11,0.08,0.95,991.7,-4.1,-42.2,2.0,1.0,1.75,1.5,3.5,2.75,0.5,0.0,0.5,0.5,0.0,0.75,1.25,-2.98,4.27,0.2,237.09,-5.9,31.9
1.82,1.5,0.0,0.5,2.5,4.75,5.0,0.0,8.5,3.75,6.75,5.5,4.25,6.25,-0.11,0.08,0.95,879.77,-4.2,-35.8,1.5,1.0,1.5,1.5,3.25,3.25,0.5,0.0,0.5,0.75,0.0,0.75,1.25,0.52,3.08,0.27,234.98,-3.5,27.5
1.84,1.5,0.75,0.25,2.5,4.75,6.0,0.0,8.75,3.5,5.5,4.5,2.75,5.25,-0.11,0.08,0.95,758.08,-4.9,-26.7,2.0,1.0,1.25,1.5,3.5,3.5,0.5,0.0,0.5,0.0,0.0,0.75,1.0,1.2,1.89,0.39,235.01,-4.6,36.8
1.86,1.5,0.5,0.75,3.25,5.0,6.75,0.25,8.75,3.0,5.0,2.5,2.75,4.0,-0.17,0.08,0.95,662.95,-4.7,-18.1,1.25,0.0,1.5,1.25,1.75,2.0,0.5,0.0,0.0,0.0,0.0,0.0,0.0,-1.92,1.52,7.95,203.0,-9.8,56.7
1.88,1.5,0.75,1.0,4.0,4.75,7.25,0.0,9.0,2.75,3.75,2.25,2.0,3.5,-0.11,0.08,0.95,595.54,-4.4,-10.9,1.75,1.0,2.0,1.5,1.25,3.5,0.5,0.0,0.0,0.75,0.0,0.75,1.5,-0.67,-0.86,0.27,198.13,-5.3,25.6
1.9,1.5,0.25,1.0,5.0,5.75,7.75,0.0,8.5,2.0,3.5,0.0,1.75,2.25,-0.17,0.08,0.95,543.7,-4.9,0.4,1.75,1.5,1.75,1.25,1.25,6.0,0.5,3.0,4.5,7.75,3.25,7.25,4.0,-1.48,-0.92,1.45,300.91,0.8,-36.4
1.92,2.0,0.0,1.25,5.25,7.0,8.5,0.0,8.25,1.5,3.5,0.0,1.25,2.25,-0.17,0.08,0.95,524.08,-4.7,6.1,3.0,1.75,2.5,2.0,4.75,5.75,0.5,6.25,6.0,8.0,11.5,7.5,6.25,0.02,-0.11,0.95,559.05,-0.9,-33.8
1.94,2.5,0.75,1.75,6.75,8.75,8.75,0.0,7.5,1.25,2.25,1.75,1.25,2.25,-0.17,0.08,0.95,549.19,-1.9,13.3,5.0,2.0,2.5,3.75,5.5,7.25,0.75,7.25,5.75,7.25,10.5,5.5,5.5,0.08,0.14,0.89,863.79,-1.5,-20.6
1.96,3.25,0.75,3.0,8.5,10.5,9.0,0.0,6.75,0.5,2.25,0.0,1.25,2.25,-0.17,0.14,1.08,614.15,-0.2,23.7,5.5,3.25,1.75,4.5,6.75,8.75,0.5,7.75,5.25,6.25,7.75,3.5,4.25,0.2,0.33,0.89,1100.79,-0.7,-7.2
1.98,5.5,1.75,3.75,10.5,13.0,8.75,0.0,6.0,0.5,1.25,0.0,1.25,2.25,-0.17,0.14,1.08,732.54,2.9,33.7,5.75,4.75,1.25,5.5,8.25,10.0,0.0,8.5,5.5,5.75,6.5,3.0,3.5,0.02,0.33,0.95,1254.13,-0.4,1.2
2.0,6.5,2.75,5.5,10.5,14.0,8.75,0.0,5.75,0.25,2.0,0.0,1.0,2.0,-0.17,0.2,1.08,876.02,4.3,37.4,6.0,6.25,1.5,6.5,9.5,11.0,0.0,8.0,5.25,5.25,5.0,2.0,2.75,0.27,0.2,0.95,1329.62,-0.8,11.6
2.02,8.0,3.5,4.5,11.0,13.0,8.25,0.0,4.25,0.25,1.25,0.0,1.0,1.25,-0.17,0.2,1.08,977.8,6.1,44.5,6.75,6.75,1.5,7.75,11.0,11.5,0.0,7.5,3.25,4.25,3.75,1.5,2.75,0.08,0.08,1.02,1367.54,-1.1,20.7
2.04,9.25,4.0,5.5,12.0,13.0,8.5,0.0,4.0,0.25,1.25,0.0,0.75,1.25,-0.17,0.27,1.2,1068.86,7.4,47.4,7.0,7.25,1.0,7.75,11.0,11.0,0.0,6.25,1.25,2.5,2.5,1.5,2.75,0.33,0.08,1.08,1358.63,-1.4,28.7
2.06,10.5,5.0,7.75,9.0,13.0,6.75,0.0,3.0,0.0,1.0,1.0,1.0,2.0,-0.42,0.39,1.39,1126.24,9.7,47.3,7.0,6.5,0.0,5.25,9.5,9.75,0.0,4.25,0.75,2.5,1.5,1.25,1.75,0.39,-0.3,1.83,1245.8,-1.2,33.3
2.08,11.5,5.0,6.5,10.5,8.75,6.75,0.0,1.0,0.0,0.0,0.0,0.5,1.0,-0.61,0.64,1.64,1095.5,12.9,60.0,6.25,4.25,0.0,2.0,8.25,0.0,0.0,3.25,0.75,1.75,0.0,0.75,1.5,-0.17,-0.3,2.2,932.68,-5.9,36.7
2.1,10.5,4.75,5.5,8.5,7.5,5.5,0.0,1.0,0.0,0.0,0.0,0.25,1.0,-0.73,0.95,1.95,985.92,13.1,60.9,5.0,0.0,0.0,1.25,6.0,6.5,0.0,2.0,0.0,0.5,0.25,0.25,1.25,0.02,2.45,1.64,627.93,1.3,34.7
2.12,9.0,3.5,2.75,6.0,6.5,3.5,0.0,1.0,0.0,0.0,0.0,0.0,0.75,-2.23,1.83,2.64,793.05,12.6,62.4,5.0,1.25,0.0,2.0,4.75,3.75,0.0,1.5,0.0,0.0,0.0,0.0,1.25,-2.42,4.52,-1.11,381.44,-3.7,46.3
2.14,6.5,1.75,0.0,2.75,4.75,1.75,0.0,1.0,0.0,0.0,0.0,0.0,0.75,-1.98,2.14,4.14,541.12,10.2,59.2,2.25,0.0,0.0,0.5,1.0,1.25,0.0,0.0,0.0,0.0,0.0,0.0,0.0,-6.17,3.02,2.33,192.95,-10.4,68.1
2.16,0.0,1.0,0.0,0.0,1.25,1.75,0.0,0.75,0.0,0.0,0.0,0.25,0.25,-1.8,1.7,3.02,290.09,-8.0,28.0,1.75,0.0,0.0,0.5,0.25,1.25,0.0,0.0,0.0,0.25,0.0,0.0,0.0,-2.42,0.95,2.39,40.82,-8.8,58.5
2.18,0.5,0.0,0.0,0.25,0.0,0.0,0.0,0.0,0.0,0.0,0.0,0.0,0.0,0.14,1.45,3.58,106.39,28.6,83.5,1.5,0.0,0.0,0.0,1.0,1.0,0.0,0.0,0.0,0.0,0.0,0.0,0.0,-2.48,-1.98,1.52,0.0,-6.7,66.0
2.2,1.0,0.0,0.0,0.0,0.0,0.0,0.0,0.0,0.0,0.0,0.0,0.0,0.25,-0.42,0.52,3.14,0.0,24.4,52.9,1.25,1.0,0.0,1.25,1.0,3.5,0.0,0.0,0.0,0.5,0.0,0.75,0.0,-1.61,-4.48,0.83,0.0,0.4,37.6
2.22,0.0,0.0,0.0,0.0,0.0,0.0,0.0,0.0,0.0,0.0,0.0,0.0,0.0,0.33,-0.05,0.77,0.0,0.0,0.0,3.75,0.0,0.0,1.5,1.0,3.5,0.0,0.0,0.25,0.75,0.0,0.5,0.0,0.58,-6.17,-0.55,0.0,-5.9,44.2
2.24,0.0,0.0,0.0,0.25,0.0,0.0,0.0,0.0,0.0,0.0,0.0,0.0,0.0,0.33,0.83,0.33,0.0,17.2,57.9,5.75,0.0,0.25,3.25,4.75,6.25,0.0,1.25,2.25,8.25,0.0,5.75,0.0,7.27,-7.98,0.58,123.01,-0.8,-4.0
2.26,0.0,0.0,0.0,0.25,0.0,0.0,0.0,0.0,0.0,0.0,0.0,0.0,0.0,0.58,1.08,-0.8,0.0,17.2,57.9,3.0,0.5,1.0,0.0,5.0,5.5,0.5,7.75,0.0,3.0,6.5,1.5,4.5,6.77,6.33,1.58,263.73,3.7,-20.4
2.28,0.25,0.0,0.0,0.0,0.0,0.5,0.0,0.0,0.0,0.0,0.0,0.0,0.0,0.08,1.45,-1.92,0.0,-3.7,55.2,4.25,1.0,0.0,0.0,3.75,7.0,0.0,4.75,1.25,3.5,2.5,1.25,1.5,6.77,-6.36,1.33,360.47,3.8,-1.2
2.3,0.25,0.0,0.0,0.25,0.0,0.5,0.0,0.0,0.0,0.0,0.0,0.0,0.0,-0.3,1.39,-1.73,0.0,1.9,55.9,3.0,1.25,0.0,1.5,3.5,7.75,0.0,5.5,1.0,5.0,2.5,1.25,1.75,-1.36,-1.17,1.39,437.02,5.4,-5.5
2.32,0.25,0.0,0.0,0.5,0.0,0.0,0.0,0.0,0.0,0.0,0.0,0.0,0.0,0.08,1.33,-0.98,0.0,22.6,70.2,2.5,1.25,0.0,2.0,4.75,7.75,0.0,6.5,0.5,5.0,2.0,1.25,2.5,0.02,1.45,0.89,502.12,6.5,-5.3
2.34,0.0,0.0,0.0,0.25,0.0,0.0,0.0,0.0,0.0,0.0,0.0,0.0,0.0,-0.17,1.27,-1.23,0.0,17.2,57.9,2.0,1.25,0.0,1.5,4.75,7.75,0.0,7.25,0.5,6.5,0.0,0.75,2.75,0.52,-0.73,1.08,528.34,9.2,-6.7
2.36,0.0,0.0,0.0,0.25,0.0,0.0,0.0,0.0,0.0,0.0,0.0,0.0,0.0,-0.55,1.33,-1.98,0.0,17.2,57.9,1.75,0.75,0.0,1.5,4.25,7.75,0.0,7.5,0.0,7.25,2.5,0.5,3.5,-0.36,1.27,1.14,558.67,9.2,-16.8
2.38,0.25,0.0,0.0,0.25,0.0,0.0,0.0,0.5,0.0,0.0,0.0,0.0,0.0,0.2,1.08,-2.17,0.0,4.3,18.7,1.75,0.0,0.0,1.5,4.25,7.0,0.0,7.5,0.25,7.5,2.5,1.5,4.5,-0.11,1.52,1.77,588.91,9.0,-25.5
2.4,0.75,0.25,0.0,1.25,0.0,1.5,0.0,0.75,0.0,0.0,0.0,0.5,0.0,0.58,0.58,-1.86,30.4,1.9,27.2,2.0,0.0,0.0,1.25,4.25,6.25,0.0,6.25,0.0,6.75,1.25,0.25,5.25,0.2,1.08,1.52,560.96,9.8,-21.9
2.42,0.75,0.25,0.0,1.75,0.0,1.75,0.0,0.75,0.25,1.25,1.0,1.0,0.0,0.2,-0.05,-1.36,76.83,1.3,-6.7,2.0,1.0,0.0,1.25,2.5,5.5,0.0,4.25,0.5,4.25,1.5,0.0,3.75,-0.48,0.02,2.39,483.95,7.3,-13.0
2.44,1.25,0.25,0.25,1.75,1.25,1.75,0.0,1.0,0.0,1.0,1.25,1.0,1.25,-0.17,-0.8,-0.36,129.86,1.2,-5.0,2.25,0.75,0.5,1.25,3.25,0.0,0.0,2.5,0.0,1.5,0.0,0.0,0.0,0.45,-0.92,1.83,348.8,-3.8,30.5
2.46,1.25,0.25,0.0,2.5,0.0,1.75,0.0,0.75,0.0,1.25,1.25,1.0,0.75,-0.48,-1.3,0.14,161.83,2.8,-5.7,2.25,0.0,0.0,1.25,0.0,3.5,0.0,0.5,0.0,2.0,0.0,0.0,0.0,3.14,-1.3,4.77,241.22,2.1,24.2
2.48,1.0,0.0,0.0,1.75,0.75,1.0,0.0,1.0,0.0,1.25,1.0,1.0,0.75,-0.98,-1.8,0.14,173.92,1.2,-12.9,1.75,0.75,1.0,1.25,0.0,3.25,0.0,1.5,0.0,1.0,1.5,0.0,0.0,2.58,0.33,2.02,156.76,-2.8,20.0
2.5,0.75,0.25,0.25,1.75,0.75,1.75,0.0,1.0,0.25,1.25,1.0,1.0,1.25,-0.98,-1.92,1.08,180.74,-0.2,-13.0,1.25,0.0,1.0,0.25,0.0,1.5,0.0,0.0,0.0,2.0,0.0,0.75,0.0,4.33,0.27,0.77,95.29,-4.1,1.1
2.52,1.0,0.25,0.25,2.25,0.5,1.75,0.0,1.0,0.25,1.0,1.25,1.0,1.25,-0.23,-1.61,1.45,185.86,1.8,-9.2,2.5,0.0,1.0,1.5,0.0,2.75,0.0,1.25,0.25,1.75,0.75,0.25,1.0,3.27,-0.48,1.83,93.04,-3.0,6.6
2.54,1.5,0.25,0.25,2.5,0.75,1.75,0.0,1.0,0.25,1.0,1.25,1.0,1.5,0.33,-1.17,1.95,196.8,2.8,-4.6,2.25,0.25,0.0,0.25,0.0,2.0,0.0,0.0,0.0,0.0,0.0,0.0,0.0,2.45,-0.8,-0.05,54.52,-8.4,68.9
2.56,1.5,0.5,0.25,2.5,1.25,1.75,0.0,1.25,0.25,1.25,1.25,1.0,1.25,1.08,-0.67,2.2,210.43,2.4,-0.3,1.25,0.0,0.0,0.25,0.0,1.25,0.0,0.0,0.0,0.25,0.0,0.0,0.0,2.52,-0.23,0.02,22.25,-5.0,52.7
2.58,1.5,0.25,0.5,2.5,1.25,1.75,0.0,1.0,0.25,1.25,1.0,1.0,1.25,1.58,0.33,2.52,218.18,3.1,0.9,2.25,0.25,1.0,1.25,3.0,3.25,0.0,1.0,0.25,1.25,0.0,0.25,0.0,2.02,0.02,1.52,51.34,-1.8,35.0
2.6,1.5,0.25,0.25,2.25,2.5,1.75,0.0,1.25,0.25,1.25,1.25,1.0,1.25,1.52,1.02,2.33,225.04,1.4,2.1,1.25,0.0,0.0,0.0,0.5,1.25,0.0,0.0,0.0,1.5,0.0,0.0,0.0,1.2,0.08,1.64,42.66,2.6,16.2
2.62,1.25,0.75,0.75,2.5,2.25,1.75,0.0,1.25,0.25,1.25,1.25,1.0,1.25,1.58,0.77,2.58,230.33,2.8,5.7,2.25,0.0,0.0,1.25,1.75,3.5,0.25,0.75,0.25,1.75,0.25,0.5,0.75,0.2,-0.17,1.58,92.62,1.7,13.5
2.64,1.5,0.5,1.0,1.75,1.75,1.75,0.0,1.5,0.25,1.25,0.75,1.0,1.5,1.58,0.45,2.83,228.24,2.4,1.7,1.25,0.75,1.25,1.25,1.25,3.5,0.5,0.25,0.0,0.0,0.0,0.0,0.0,-0.17,-0.67,1.39,115.81,-4.6,54.4
2.66,1.5,0.5,0.5,2.5,2.25,1.75,0.0,1.25,0.25,1.25,0.75,1.0,1.5,1.45,0.33,2.27,227.91,2.0,5.2,1.25,0.0,0.0,0.0,0.5,2.5,0.0,0.0,0.0,0.0,0.0,0.0,0.0,0.08,-0.98,1.27,118.05,3.6,54.9
2.68,1.5,0.25,0.75,2.5,3.0,1.75,0.0,1.75,0.25,1.25,1.0,1.0,1.25,1.14,0.39,2.02,233.02,1.9,6.4,2.0,0.0,1.25,1.25,2.75,3.5,0.5,0.5,0.5,0.75,0.0,0.5,1.25,0.45,-1.48,1.02,151.06,-2.1,22.8
2.7,1.5,0.25,0.5,2.5,2.25,1.75,0.0,1.5,0.25,1.25,0.75,1.0,1.25,0.83,0.89,1.83,232.95,1.8,4.9,2.25,0.0,1.25,1.25,2.75,3.25,0.25,0.5,0.5,0.75,0.0,0.5,1.0,0.95,-1.48,0.39,178.27,-3.1,26.1
2.72,1.5,0.5,0.25,2.5,2.25,1.75,0.0,1.25,0.25,0.75,1.0,1.0,1.25,0.64,1.45,1.45,228.69,2.4,7.7,2.0,0.25,1.0,1.25,3.25,3.25,0.25,0.5,0.5,0.75,0.25,0.5,1.0,1.14,-1.11,0.14,207.76,-2.0,25.1
2.74,1.5,0.25,0.5,2.5,2.25,1.75,0.0,1.25,0.25,1.25,0.75,1.0,1.5,0.95,1.52,1.02,223.44,1.8,3.6,2.0,0.0,1.25,1.25,3.0,3.5,0.25,0.75,0.5,0.75,0.25,0.25,1.0,0.7,-0.48,-0.17,224.44,-1.7,25.2
2.76,1.5,0.25,0.75,2.5,3.0,1.75,0.0,1.5,0.25,1.0,0.75,1.0,1.25,1.39,0.95,1.33,224.12,2.4,9.7,2.0,0.0,1.25,1.25,3.0,3.5,0.0,0.5,0.5,1.25,0.5,0.5,0.75,0.27,0.02,-0.3,235.75,-1.7,21.4
2.78,1.5,0.25,0.25,3.25,3.75,1.75,0.0,1.0,0.25,1.25,0.75,1.0,1.5,1.52,0.39,1.27,230.08,1.7,10.9,2.0,0.5,1.0,1.25,3.0,3.5,0.0,0.5,0.5,0.5,0.25,0.75,1.0,0.08,0.33,-0.3,239.48,-2.1,25.4
2.8,1.5,0.25,0.25,2.5,0.5,0.75,0.0,1.25,0.25,1.25,1.0,1.0,1.25,1.64,-0.17,1.02,213.74,4.4,-7.7,1.75,0.5,1.0,1.25,3.0,2.5,0.25,0.5,0.5,0.75,0.75,0.5,1.0,0.08,0.52,-0.36,234.42,-3.3,20.8
2.82,1.5,0.5,0.25,2.5,3.75,1.75,0.0,1.5,0.25,0.75,1.0,1.0,1.25,1.95,-0.86,2.33,219.11,1.5,11.8,1.5,1.0,1.25,1.75,2.75,3.75,0.25,0.5,0.5,0.25,0.25,0.75,0.75,0.14,0.64,-0.42,232.91,-3.0,30.9
2.84,1.5,0.25,0.5,2.5,4.25,1.75,0.0,1.25,0.25,1.25,0.75,1.0,1.25,1.7,-1.61,2.39,222.79,1.4,12.1,1.5,1.0,1.0,1.25,3.0,2.75,0.0,0.0,0.5,0.0,0.25,0.5,0.75,0.02,0.77,-0.61,227.69,-4.3,37.0
2.86,1.25,0.25,0.5,2.5,2.25,1.75,0.0,1.0,0.25,1.25,0.75,1.0,1.25,1.08,-2.67,2.02,221.61,1.9,4.9,1.75,1.0,1.25,1.25,2.75,3.5,0.25,0.0,0.25,0.5,0.25,0.25,0.75,-0.3,1.02,-0.67,220.08,-3.5,37.8
2.88,1.25,0.25,0.5,2.5,3.5,1.75,0.0,1.25,0.25,1.25,0.75,1.0,1.5,0.08,-3.11,0.95,225.11,0.9,6.7,1.75,1.0,1.25,1.25,2.5,3.5,0.25,0.0,0.5,0.75,0.25,0.75,0.75,-0.67,1.2,-0.67,219.6,-3.6,29.2
2.9,1.5,0.5,0.0,2.5,2.25,1.75,0.0,1.75,0.25,0.25,0.75,1.0,1.25,-1.11,-2.8,-0.23,218.26,1.6,9.5,1.75,1.0,1.25,1.25,2.5,3.0,0.25,0.0,0.5,0.5,0.0,0.25,0.75,-0.86,1.33,-0.92,214.58,-4.6,38.2
2.92,1.5,0.25,0.25,2.5,0.5,1.75,0.0,1.75,0.25,1.25,1.0,1.0,1.25,-1.92,-3.05,-1.48,207.08,1.7,-5.8,1.25,1.0,1.0,1.5,3.0,3.25,0.25,0.0,0.5,0.25,0.0,0.0,0.75,-0.86,1.27,-0.98,202.6,-2.6,41.6
2.94,1.5,0.25,0.5,2.5,0.0,1.75,0.0,1.5,0.25,0.75,1.0,1.0,1.25,-2.3,-2.55,-1.48,191.54,3.8,-3.7,1.75,1.0,1.25,1.25,2.5,2.75,0.25,0.0,0.5,0.5,0.0,0.5,0.75,-0.86,1.14,-0.92,199.34,-5.2,35.5
2.96,1.5,0.25,1.0,3.25,2.5,1.75,0.0,1.75,0.25,1.0,1.25,1.0,1.25,-2.05,-1.48,-1.17,204.32,3.8,8.1,1.5,1.0,1.25,1.5,3.0,3.25,0.25,0.0,0.5,0.5,0.25,0.5,0.75,-0.8,0.83,-0.8,202.75,-3.8,33.7
2.98,1.5,0.25,0.75,2.5,2.5,1.75,0.0,1.5,0.25,1.0,1.25,1.0,1.25,-1.61,-0.73,-0.98,210.72,2.9,5.5,1.25,1.0,1.25,1.25,3.0,3.25,0.25,0.0,0.25,0.5,0.0,0.5,1.0,-0.67,0.58,-0.8,203.4,-2.4,32.7
3.0,1.5,0.25,0.75,2.5,1.75,1.75,0.0,1.75,0.25,1.25,1.0,1.0,1.25,-1.17,-0.48,-0.48,217.69,2.4,2.0,1.5,1.0,1.0,1.25,3.0,3.5,0.25,0.0,0.25,0.5,0.0,0.25,0.75,-0.55,0.45,-0.86,204.87,-2.0,38.7
3.02,1.5,0.25,0.5,2.5,2.5,1.75,0.0,1.5,0.25,1.25,1.0,1.0,1.5,-0.8,-0.11,-0.42,221.74,1.6,2.7,1.25,1.0,1.25,1.25,3.25,3.25,0.25,0.0,0.5,1.0,0.0,0.5,1.0,-0.55,0.45,-0.86,209.33,-1.8,28.2
3.04,1.5,0.25,0.5,2.5,2.5,1.75,0.0,1.5,0.25,1.25,1.0,1.0,1.5,-0.55,0.14,-0.55,225.19,1.6,2.7,1.5,1.0,1.25,1.75,3.0,1.75,0.5,0.0,0.5,1.5,0.0,0.75,1.0,-0.61,0.33,-0.8,212.67,-5.1,23.5
3.06,1.5,0.25,0.75,2.5,1.75,1.75,0.0,1.5,0.25,1.25,1.0,1.0,1.25,-0.23,0.33,-0.42,218.54,2.8,2.6,1.25,1.0,1.25,1.25,3.25,3.25,0.25,0.0,0.5,0.75,0.25,0.25,0.75,-0.73,0.2,-0.8,214.34,-2.4,33.2
3.08,1.5,0.0,0.75,2.5,1.25,1.75,0.0,1.5,0.25,1.25,1.0,1.0,1.25,0.08,0.39,-0.36,213.22,2.8,-1.1,1.5,1.0,1.0,1.5,2.75,3.5,0.25,0.0,0.5,0.75,0.25,0.25,0.75,-0.73,0.14,-0.8,215.66,-2.4,33.4
3.1,1.25,0.25,1.0,2.5,2.25,1.25,0.0,1.5,0.25,1.0,1.0,1.0,1.25,0.08,0.39,-0.48,213.29,3.8,4.5,1.25,1.0,1.25,1.25,3.25,3.25,0.25,0.0,0.5,0.75,0.25,0.5,0.75,-0.8,0.08,-0.8,215.96,-2.5,30.7
3.12,1.25,0.25,0.5,2.5,0.5,2.25,0.0,1.25,0.25,1.25,0.75,1.0,1.5,0.02,0.27,-0.55,203.56,1.2,-4.5,1.25,1.0,1.25,1.25,3.0,2.75,0.25,0.0,0.25,0.75,0.0,0.5,1.0,-0.73,-0.05,-0.8,211.9,-2.9,30.6
3.14,1.25,0.0,0.5,2.5,3.75,1.75,0.0,1.75,0.25,1.25,0.75,1.0,1.25,0.14,0.08,-0.42,213.44,0.3,6.5,1.25,1.0,1.0,1.25,3.0,3.25,0.25,0.0,0.5,0.0,0.25,0.75,1.0,-0.73,-0.05,-0.8,210.08,-2.8,30.3
3.16,1.5,0.0,0.25,2.5,2.25,1.75,0.0,1.5,0.25,1.25,0.75,1.0,1.25,0.27,-0.11,-0.48,212.15,1.0,2.2,1.25,1.0,1.25,1.25,3.0,3.25,0.25,0.0,0.25,1.0,0.0,0.25,0.75,-0.8,0.02,-0.73,207.67,-1.9,34.0
3.18,1.5,0.25,0.5,2.5,2.5,1.75,0.0,1.25,0.25,1.25,1.25,1.0,1.25,0.33,-0.3,-0.61,217.09,2.3,4.0,1.5,0.5,1.25,1.5,3.25,3.5,0.5,0.0,0.25,0.75,0.0,0.75,0.75,-0.86,0.02,-0.67,210.06,-2.6,30.5
3.2,1.25,0.25,0.75,2.5,2.5,1.75,0.0,1.0,0.25,1.25,1.0,1.0,1.25,0.33,-0.48,-0.67,213.77,2.6,5.5,1.25,1.0,1.25,1.5,3.25,2.5,0.25,0.0,0.25,0.75,0.25,0.5,0.75,-0.86,0.02,-0.73,209.01,-4.0,32.3
3.22,1.5,0.25,0.75,2.5,1.25,1.75,0.0,1.25,0.25,1.25,1.0,1.0,1.25,0.27,-0.61,-0.8,212.16,3.4,1.3,1.25,1.0,1.25,1.25,3.25,3.0,0.25,0.0,0.25,0.5,0.25,0.25,0.75,-0.92,0.08,-0.73,208.67,-3.0,36.5
3.24,1.5,0.0,0.75,2.5,3.0,1.75,0.0,1.25,0.25,1.25,0.75,1.0,1.25,0.2,-0.73,-0.92,214.25,2.2,7.6,1.5,1.0,1.0,1.25,2.75,3.25,0.25,0.0,0.25,0.75,0.0,0.25,0.75,-0.86,0.08,-0.73,204.55,-2.2,36.2
3.26,1.5,0.5,0.5,2.5,3.0,1.75,0.0,1.5,0.25,0.25,0.75,1.0,1.25,0.2,-0.92,-0.8,215.92,2.8,14.5,1.25,1.0,1.25,1.25,2.75,3.25,0.5,0.0,0.5,0.75,0.25,0.25,1.0,-0.86,0.02,-0.67,204.29,-2.6,29.7
3.28,1.5,0.25,0.25,1.75,3.75,1.75,0.0,1.25,0.25,0.0,0.5,0.75,1.25,0.2,-1.05,-0.67,213.77,1.2,18.5,1.25,1.25,1.0,1.25,3.25,3.0,0.25,0.0,0.25,0.25,0.25,0.25,1.0,-0.8,-0.05,-0.67,203.69,-2.6,36.5
3.3,1.25,0.25,1.0,2.5,1.25,1.75,0.0,1.0,0.25,0.75,0.75,1.0,1.25,0.2,-0.98,-0.8,206.17,4.5,5.8,1.25,1.0,1.25,2.0,3.0,3.5,0.0,0.0,0.25,1.0,0.25,0.5,1.0,-0.73,-0.05,-0.67,212.05,-2.1,28.8
3.32,1.5,0.25,0.5,2.5,2.25,1.75,0.0,1.0,0.25,1.25,1.25,1.0,1.25,0.2,-0.86,-0.86,206.71,2.7,3.7,1.25,1.0,1.25,1.25,2.75,3.25,0.25,0.0,0.25,0.75,0.25,0.25,1.0,-0.61,-0.05,-0.67,211.62,-2.2,30.9
3.34,1.25,0.25,0.5,2.5,3.0,1.75,0.0,1.5,0.25,1.0,0.75,1.0,1.5,0.27,-0.73,-0.8,210.24,1.0,5.6,1.25,1.0,1.25,1.25,3.25,3.25,0.25,0.0,0.5,0.25,0.25,0.25,0.75,-0.48,-0.05,-0.61,212.21,-3.1,37.1
3.36,1.25,0.25,0.75,2.5,2.5,1.75,0.0,1.0,0.25,1.0,0.75,1.0,1.25,0.27,-0.67,-0.86,212.39,2.7,8.2,1.5,1.0,1.25,1.25,3.0,2.5,0.25,0.0,0.5,0.75,0.25,0.25,1.0,-0.3,-0.05,-0.61,209.5,-4.1,31.1
3.38,1.5,0.25,1.0,2.5,2.25,1.75,0.0,1.0,0.25,1.0,1.0,1.0,1.25,0.27,-0.61,-0.86,213.97,4.1,8.3,1.25,0.75,1.25,1.25,3.25,0.75,0.25,0.0,0.25,1.0,0.25,0.5,0.75,-0.11,-0.11,-0.61,199.21,-6.8,27.8
3.4,1.5,0.25,0.5,2.5,1.75,1.75,0.0,1.25,0.25,0.5,1.0,1.0,1.25,0.27,-0.55,-0.86,210.12,3.5,6.6,1.25,1.0,1.0,1.25,3.25,0.75,0.5,0.0,0.5,1.25,0.25,0.25,1.0,0.14,-0.11,-0.67,191.86,-5.7,25.1
3.42,1.5,0.0,0.75,2.5,3.5,1.75,0.0,1.5,0.0,0.5,0.75,1.0,1.25,0.33,-0.42,-0.8,212.87,2.4,13.3,1.25,1.0,1.0,1.25,3.25,0.75,0.5,0.0,0.25,0.75,0.25,0.5,1.0,0.33,-0.11,-0.67,184.45,-6.5,27.8
3.44,1.0,0.0,0.75,2.5,1.25,1.75,0.0,1.0,0.25,1.25,0.5,1.0,0.5,0.33,-0.3,-0.86,199.82,3.2,6.6,1.25,1.0,1.0,1.25,3.25,1.0,0.25,0.0,0.25,0.25,0.0,0.0,0.75,0.33,-0.17,-0.67,176.4,-6.9,44.9
3.46,1.5,0.25,0.75,2.5,2.5,1.75,0.0,1.25,0.25,0.75,1.0,1.0,1.25,0.39,-0.17,-0.8,204.46,3.4,8.8,1.25,1.0,1.0,1.5,3.5,1.0,0.5,0.0,0.25,0.5,0.25,0.5,0.75,0.33,-0.23,-0.61,175.79,-6.8,34.2
3.48,1.5,0.25,0.5,2.5,3.5,1.75,0.0,1.0,0.25,1.0,0.75,1.0,1.25,0.52,-0.11,-0.8,208.57,2.2,12.0,1.5,1.0,1.25,1.25,3.25,1.25,0.5,0.0,0.25,0.5,0.25,0.5,0.75,0.39,-0.3,-0.55,178.27,-7.5,35.0
3.5,1.25,0.0,0.25,2.5,2.5,1.5,0.0,1.0,0.25,1.0,0.75,1.0,1.25,0.52,-0.11,-0.67,208.92,1.7,4.0,1.25,1.0,1.25,1.25,3.25,1.0,0.25,0.0,0.25,0.75,0.25,0.5,0.75,0.39,-0.36,-0.48,179.92,-6.8,31.6
3.52,1.25,0.25,0.5,2.5,2.5,1.75,0.0,1.0,0.25,0.75,0.75,1.0,1.0,0.52,-0.23,-0.67,207.15,2.7,10.9,1.25,1.0,1.25,1.25,3.0,1.25,0.25,0.0,0.25,0.75,0.25,0.5,0.75,0.45,-0.48,-0.42,180.55,-6.5,31.1
3.54,0.75,0.25,0.75,2.5,1.75,1.75,0.0,1.25,0.25,0.75,0.75,1.0,1.25,0.45,-0.23,-0.67,200.62,2.0,2.8,1.25,1.0,1.0,1.25,3.25,1.0,0.25,0.0,0.25,0.75,0.0,0.25,1.0,0.52,-0.48,-0.3,178.84,-5.5,33.0
3.56,1.0,0.0,1.0,2.5,2.5,1.75,0.0,1.25,0.25,0.75,0.75,1.0,1.25,0.45,-0.3,-0.67,199.46,2.7,6.7,1.25,0.75,1.0,1.25,3.5,0.75,0.5,0.0,0.25,0.75,0.25,0.25,1.0,0.64,-0.48,-0.3,178.55,-6.1,29.8
3.58,1.25,0.25,0.5,2.5,2.25,1.75,0.0,1.0,0.25,0.5,0.75,0.25,1.25,0.33,-0.3,-0.73,193.95,2.5,16.2,1.25,1.0,0.5,1.75,0.5,1.75,0.0,0.0,0.25,1.25,0.25,0.0,0.75,0.83,-0.55,-0.3,165.36,-4.3,25.2
3.6,1.5,0.0,0.25,2.5,2.25,1.75,0.0,1.0,0.25,0.0,0.75,0.75,0.5,0.33,-0.23,-0.73,188.92,4.3,21.9,0.0,0.0,0.0,0.25,0.5,0.0,0.0,0.0,0.0,0.0,0.0,0.0,0.0,0.89,-0.61,-0.3,112.51,-3.0,54.8
3.62,1.25,0.0,0.5,2.5,2.5,1.75,0.0,1.25,0.25,0.75,0.75,1.0,1.25,0.39,-0.17,-0.73,190.49,1.9,6.2,0.0,0.0,0.0,0.0,0.5,1.0,0.0,0.0,0.0,0.0,0.0,0.0,0.0,0.89,-0.67,-0.3,63.76,15.4,41.4
3.64,1.25,0.0,0.25,2.5,2.25,1.75,0.0,1.0,0.25,0.5,0.75,1.0,1.0,0.45,-0.17,-0.67,188.49,2.3,8.9,1.25,1.0,1.75,2.0,1.75,3.25,0.25,0.0,0.25,0.75,0.25,0.25,0.75,0.77,-0.73,-0.11,88.25,-5.2,34.4
3.66,1.25,0.0,0.5,2.5,3.0,1.75,0.0,1.0,0.25,0.25,1.0,1.0,1.25,0.52,-0.17,-0.61,193.81,2.8,10.4,1.25,0.5,1.0,1.5,3.0,1.0,0.25,0.0,0.25,0.75,0.25,0.5,1.0,0.58,-0.67,-0.11,117.91,-5.9,24.8
3.68,1.25,0.0,0.25,2.5,2.25,1.75,0.0,1.25,0.25,1.25,1.0,1.0,1.25,0.45,-0.23,-0.55,198.51,0.9,0.0,0.25,0.0,1.0,0.25,1.0,1.25,0.0,0.0,0.0,0.0,0.0,0.0,0.0,0.45,-0.55,-0.05,114.6,-5.5,52.5
3.7,1.25,0.25,0.25,2.5,2.25,1.75,0.0,0.75,0.25,0.5,1.0,1.0,1.25,0.52,-0.23,-0.48,197.66,2.7,7.7,1.25,0.5,0.0,1.25,0.5,3.25,0.0,0.0,0.25,0.75,0.0,0.5,0.0,0.39,-0.42,0.02,117.0,0.8,31.4
3.72,1.25,0.0,0.5,2.5,1.75,1.75,0.0,1.25,0.25,0.5,1.0,1.0,1.0,0.52,-0.3,-0.48,194.37,3.1,5.4,1.25,0.75,1.0,1.5,3.25,3.25,0.25,0.0,0.25,1.25,0.25,0.0,0.75,0.83,-0.11,-0.17,142.79,-0.9,31.9
3.74,1.25,0.0,1.0,2.5,1.75,1.75,0.0,1.0,0.25,0.25,1.0,1.5,1.25,0.52,-0.36,-0.55,195.8,5.0,3.4,0.5,0.0,0.0,0.0,0.5,0.0,0.0,0.0,0.0,0.0,0.0,0.0,0.0,1.83,0.39,-0.55,105.18,-13.7,73.3
3.76,1.0,0.0,0.25,2.25,1.25,1.75,0.0,1.0,0.25,0.5,1.0,0.75,1.0,0.45,-0.48,-0.48,184.34,1.9,2.0,0.0,0.0,0.0,0.0,0.5,1.0,0.0,0.0,0.0,0.0,0.0,0.0,0.0,2.64,0.45,-0.67,75.02,15.4,41.4
3.78,1.25,0.0,0.5,2.5,1.75,1.75,0.0,1.0,0.25,0.5,0.75,1.0,1.25,0.45,-0.48,-0.23,182.5,3.0,5.5,0.0,0.0,0.0,0.0,0.5,1.25,0.0,0.0,0.0,0.0,0.0,0.0,0.0,3.08,0.83,-0.61,41.32,16.4,40.4
3.8,1.25,0.0,0.75,2.5,2.5,1.75,0.0,0.75,0.25,0.5,1.0,1.0,1.25,0.33,-0.61,-0.11,185.74,3.7,8.9,1.25,0.75,0.0,2.25,0.5,1.75,0.0,0.0,0.25,0.0,0.0,0.25,0.75,2.64,1.27,-0.61,58.17,-5.9,37.5
3.82,1.25,0.0,0.25,2.5,0.75,1.75,0.0,1.0,0.25,0.25,1.0,1.0,1.25,0.33,-0.61,-0.05,181.25,3.4,-0.5,1.25,1.0,1.0,1.75,3.25,1.75,0.5,0.25,0.5,0.75,0.0,0.5,0.75,2.64,1.2,-0.73,110.06,-4.9,31.5
3.84,1.25,0.0,0.25,2.5,2.25,1.75,0.0,1.0,0.25,0.0,0.5,1.0,1.25,0.33,-0.61,-0.05,180.24,2.6,11.5,0.25,0.0,1.0,0.0,3.0,1.0,0.5,0.0,0.0,0.0,0.0,0.0,0.0,2.33,0.7,-1.17,129.87,-3.7,52.4
3.86,1.25,0.0,0.25,2.5,0.75,1.75,0.0,1.0,0.25,0.5,1.0,1.0,1.0,0.39,-0.55,0.02,171.9,3.4,0.2,0.25,0.0,0.0,0.0,0.5,1.0,0.0,0.0,0.0,0.0,0.0,0.0,0.25,1.58,0.39,-0.61,105.55,9.3,28.6
3.88,1.25,0.0,0.5,2.5,1.75,1.75,0.0,1.0,0.25,0.5,0.75,1.0,1.25,0.52,-0.48,0.2,174.87,3.0,5.5,0.25,0.0,0.0,0.5,0.5,1.25,0.0,0.0,0.0,0.0,0.0,0.0,0.0,0.83,0.33,-0.42,65.09,4.6,49.4
3.9,1.25,0.0,0.5,2.25,2.25,0.5,0.0,1.0,0.0,0.25,0.75,1.0,1.25,0.58,-0.48,0.33,169.49,5.2,6.5,0.5,0.0,0.0,0.0,0.5,1.0,0.0,0.0,0.0,0.0,0.0,0.0,0.0,0.14,0.58,-0.42,40.94,3.6,54.7
3.92,1.25,0.0,0.0,2.75,0.75,1.0,0.0,1.0,0.0,0.25,1.0,1.0,1.25,0.58,-0.61,0.58,164.46,4.5,-2.0,0.25,0.0,0.0,0.0,1.0,1.25,0.0,0.0,0.0,0.0,0.0,0.25,0.0,-0.11,0.45,-0.17,32.52,7.2,34.6
3.94,1.5,0.0,0.5,2.5,1.25,1.75,0.0,1.0,0.25,0.0,0.75,1.0,1.25,0.64,-0.67,0.64,165.01,4.7,8.4,0.25,0.0,0.0,0.75,0.5,1.25,0.0,0.0,0.0,0.0,0.0,0.0,0.0,0.02,0.14,0.02,29.82,2.6,50.2
3.96,1.5,0.0,0.25,2.5,2.5,1.75,0.0,1.0,0.25,0.5,0.75,1.0,1.25,0.7,-0.73,0.64,174.74,2.5,9.1,0.0,0.0,0.0,0.0,0.5,1.25,0.0,0.0,0.0,0.0,0.0,0.0,0.0,0.14,-0.05,0.08,29.39,16.4,40.4
3.98,1.25,0.25,0.75,2.5,2.5,1.75,0.0,1.0,0.25,0.25,0.75,1.0,1.25,0.7,-0.92,0.58,187.22,3.8,12.7,0.5,0.0,0.0,0.0,0.5,1.0,0.0,0.0,0.0,0.0,0.0,0.0,0.0,0.33,-0.17,0.02,34.04,3.6,54.7
4.0,1.5,0.25,0.25,2.5,3.5,1.75,0.0,1.0,0.25,0.25,1.0,1.0,1.25,0.7,-1.17,0.58,203.55,2.6,14.1,0.25,0.0,0.0,0.0,0.5,1.25,0.0,0.0,0.0,0.0,0.0,0.25,0.0,0.77,-0.3,-0.17,27.18,8.2,29.7
4.02,1.5,0.0,0.5,2.5,2.25,1.75,0.0,1.0,0.25,0.0,0.75,1.0,1.25,0.64,-1.36,0.64,204.94,4.0,12.4,0.0,0.0,0.0,0.0,0.5,1.25,0.0,0.0,0.0,0.0,0.0,0.0,0.0,1.2,-0.3,-0.23,20.19,16.4,40.4
4.04,1.25,0.0,0.0,2.5,2.5,1.75,0.0,1.0,0.25,0.0,0.75,1.0,1.25,0.77,-1.48,0.83,201.51,1.8,9.8,0.25,0.0,0.0,0.0,0.5,1.25,0.0,0.0,0.0,0.0,0.0,0.0,0.0,1.52,-0.17,-0.42,15.42,10.4,47.2
4.06,1.25,0.0,0.25,2.5,1.75,1.75,0.0,1.0,0.25,0.0,0.75,1.0,1.25,0.95,-1.48,1.08,193.18,3.0,7.7,0.5,0.0,0.0,0.0,0.5,1.25,0.0,0.0,0.0,0.0,0.0,0.0,0.0,1.64,0.02,-0.48,20.05,5.6,52.5
4.08,1.5,0.0,0.0,2.5,2.5,1.75,0.0,1.0,0.25,0.0,0.75,0.5,1.25,0.89,-1.3,1.02,187.98,2.2,16.3,0.5,0.0,0.0,0.25,0.5,1.5,0.0,0.0,0.0,0.0,0.0,0.0,0.0,1.45,0.2,-0.48,35.21,4.9,51.4
4.1,1.25,0.0,0.0,2.5,2.5,1.75,0.0,1.0,0.25,0.0,0.75,1.0,1.25,0.89,-0.98,0.95,185.97,1.8,9.8,0.5,0.0,0.0,0.0,0.5,2.0,0.0,0.0,0.0,0.0,0.0,0.0,0.0,1.27,0.33,-0.42,43.97,9.8,48.0
4.12,1.25,0.0,0.25,2.5,2.5,1.75,0.0,1.0,0.25,0.25,0.75,1.0,1.25,0.89,-0.8,1.02,188.18,2.2,9.1,0.25,0.0,0.0,0.25,0.25,0.75,0.0,0.0,0.0,0.0,0.0,0.0,0.0,1.02,0.45,-0.36,39.76,3.0,52.0
4.14,1.5,0.0,0.0,2.5,2.5,1.75,0.0,1.25,0.25,0.25,0.75,1.0,1.25,1.45,-0.67,1.33,192.24,1.7,8.8,0.5,0.0,0.0,0.0,0.5,1.25,0.0,0.0,0.0,0.0,0.0,0.0,0.0,0.89,0.45,-0.3,39.15,5.6,52.5
4.16,1.25,0.0,0.25,2.5,1.75,1.75,0.0,1.0,0.25,0.25,1.0,1.0,1.25,0.83,-0.61,0.58,190.07,2.8,4.4,0.5,0.0,0.0,0.0,0.5,1.75,0.0,0.0,0.0,0.0,0.0,0.0,0.0,0.83,0.39,-0.23,39.54,8.6,49.3
4.18,1.25,0.0,0.25,2.25,2.25,1.75,0.0,1.0,0.25,0.5,0.75,1.0,1.25,0.77,-0.42,0.52,187.1,1.7,5.5,0.5,0.0,0.0,0.5,0.5,1.75,0.0,0.0,0.0,0.0,0.0,0.0,0.0,0.77,0.27,-0.3,46.29,4.4,50.7
4.2,1.5,0.0,0.5,2.25,1.25,1.75,0.0,0.75,0.25,0.5,0.75,1.0,1.5,1.2,-0.3,0.7,181.29,3.6,2.3,0.25,0.0,0.0,0.25,0.5,1.25,0.0,0.0,0.0,0.0,0.0,0.0,0.0,0.77,0.08,-0.23,46.68,7.2,48.4
4.22,1.25,0.0,0.25,2.5,2.25,1.75,0.0,0.75,0.25,0.75,0.75,1.0,1.25,1.27,-0.36,0.7,182.83,2.0,5.8,0.5,0.0,0.0,0.5,0.5,1.25,0.0,0.0,0.0,0.0,0.0,0.0,0.0,0.83,-0.11,-0.17,48.81,1.2,53.5
4.24,0.75,0.25,0.0,2.5,3.75,1.75,0.0,1.0,0.25,0.75,1.0,1.0,1.25,1.2,-0.23,0.7,192.73,-0.2,7.1,0.25,0.0,0.0,0.5,0.5,1.25,0.0,0.0,0.0,0.0,0.0,0.0,0.0,0.89,-0.17,-0.11,46.89,4.6,49.4
4.26,1.5,0.25,0.25,2.25,2.25,1.75,0.0,0.75,0.25,0.75,0.75,1.0,1.25,1.08,-0.11,0.58,198.05,2.5,8.2,0.25,0.0,0.0,0.5,0.5,1.5,0.0,0.0,0.0,0.0,0.0,0.0,0.0,0.89,-0.23,-0.05,47.43,6.2,48.1
4.28,1.5,0.0,0.25,2.5,1.25,1.75,0.0,1.0,0.25,0.5,0.75,1.0,1.25,0.89,-0.05,0.45,194.71,3.1,3.8,0.25,0.0,0.0,0.5,0.5,1.25,0.0,0.0,0.0,0.0,0.0,0.0,0.0,0.95,-0.23,-0.05,45.73,4.6,49.4
4.3,1.5,0.25,0.5,2.5,1.75,1.75,0.0,1.0,0.25,0.5,0.75,1.0,1.25,0.77,-0.11,0.58,193.36,3.7,8.9,0.25,0.25,0.0,0.25,0.5,1.25,0.0,0.0,0.0,0.0,0.0,0.0,0.0,0.89,-0.17,-0.11,45.39,5.1,53.6
