time,left pressure 0[N/cm虏],left pressure 1[N/cm虏],left pressure 2[N/cm虏],left pressure 3[N/cm虏],left pressure 4[N/cm虏],left pressure 5[N/cm虏],left pressure 6[N/cm虏],left pressure 7[N/cm虏],left pressure 8[N/cm虏],left pressure 9[N/cm虏],left pressure 10[N/cm虏],left pressure 11[N/cm虏],left pressure 12[N/cm虏],left acceleration X[g],left acceleration Y[g],left acceleration Z[g],left total force[N],left center of pressure X[mm],left center of pressure Y[mm],right pressure 0[N/cm虏],right pressure 1[N/cm虏],right pressure 2[N/cm虏],right pressure 3[N/cm虏],right pressure 4[N/cm虏],right pressure 5[N/cm虏],right pressure 6[N/cm虏],right pressure 7[N/cm虏],right pressure 8[N/cm虏],right pressure 9[N/cm虏],right pressure 10[N/cm虏],right pressure 11[N/cm虏],right pressure 12[N/cm虏],right acceleration X[g],right acceleration Y[g],right acceleration Z[g],right total force[N],right center of pressure X[mm],right center of pressure Y[mm]
0.02,9.75,1.75,6.75,7.75,8.75,6.0,5.0,5.0,5.0,2.25,2.5,1.5,2.0,-0.11,0.14,0.95,971.12,9.8,26.2,1.75,1.25,1.25,1.5,5.0,5.5,1.0,6.25,4.75,7.25,5.25,5.25,6.5,0.08,0.14,0.95,865.8,2.3,-32.5
0.04,11.0,1.75,8.0,8.5,8.75,6.25,5.25,4.75,4.5,2.0,2.25,1.5,2.0,-0.11,0.14,0.95,1057.1,11.0,30.1,2.0,1.25,0.0,1.5,2.5,5.75,0.5,5.5,4.75,7.0,4.0,4.75,6.0,0.14,0.14,0.95,805.63,3.6,-36.7
0.06,12.5,1.75,8.75,10.5,10.5,6.75,5.25,4.25,3.75,1.75,1.5,1.5,1.75,-0.11,0.14,1.02,1163.26,11.7,36.7,2.0,1.25,1.75,1.5,5.25,5.75,1.25,6.25,5.0,6.5,5.0,3.75,6.25,0.08,0.14,0.95,773.02,1.8,-26.6
0.08,14.0,2.5,9.5,8.75,10.5,6.5,5.0,3.5,3.0,1.75,1.75,1.5,1.75,-0.11,0.14,1.08,1241.87,12.7,39.6,2.25,1.25,1.5,1.75,5.25,6.0,1.5,6.25,5.5,6.75,5.0,3.75,6.0,0.08,0.14,0.95,743.69,1.7,-25.6
0.1,12.0,3.0,11.0,11.5,10.5,5.5,4.25,3.0,2.5,1.75,1.25,1.25,0.75,-0.11,0.2,1.2,1289.99,13.9,44.7,2.75,1.5,2.0,1.75,5.25,6.0,1.75,6.25,5.75,6.0,5.0,3.25,5.25,0.08,0.14,0.95,732.55,0.4,-20.2
0.12,17.0,3.25,11.5,10.5,10.5,2.5,2.75,3.0,2.25,1.75,1.25,1.25,2.0,-0.23,0.33,1.33,1316.52,16.3,46.4,3.0,1.5,2.5,2.0,5.25,6.25,1.75,6.25,5.75,6.0,5.0,3.25,4.75,0.08,0.14,0.95,736.53,-0.1,-17.4
0.14,18.0,3.5,11.5,8.75,8.75,3.25,2.5,3.0,2.0,1.75,2.0,1.5,1.75,-0.23,0.45,1.58,1317.56,16.7,45.7,3.5,1.5,3.25,2.75,5.5,6.25,1.75,6.25,6.25,5.75,5.0,2.75,4.0,0.08,0.14,0.95,761.12,-1.5,-11.5
0.16,16.5,3.25,11.5,7.5,7.0,2.5,2.75,3.0,1.25,1.75,1.75,1.25,1.5,-0.48,0.64,2.08,1253.49,17.7,46.7,4.25,2.0,3.5,4.0,6.0,6.5,2.25,6.0,6.25,5.0,5.0,2.25,3.25,0.08,0.14,0.95,792.55,-3.0,-2.9
0.18,14.5,1.75,10.5,6.75,5.5,2.0,3.75,3.0,1.25,1.75,2.0,1.5,1.5,-0.86,0.89,2.39,1122.39,18.0,41.5,5.25,2.0,4.0,4.0,7.0,6.5,2.75,6.0,6.25,4.25,4.25,1.75,3.0,0.08,0.14,0.95,830.71,-4.0,3.9
0.2,9.75,0.5,8.75,4.5,4.75,1.0,3.25,2.5,0.75,0.5,1.75,0.0,0.25,-1.17,0.95,2.58,876.94,19.8,48.9,5.75,2.25,4.25,5.5,7.0,6.75,2.75,5.5,6.25,3.75,4.0,2.0,3.0,0.08,0.14,0.95,878.8,-5.0,7.9
0.22,7.75,0.0,6.75,3.25,4.75,0.25,1.5,1.0,0.5,0.25,0.0,0.0,0.25,-1.05,0.77,2.58,609.65,21.4,59.3,6.0,2.25,5.25,6.25,8.0,7.0,3.25,5.5,5.75,3.5,3.0,1.75,2.75,0.08,0.14,0.95,929.63,-5.7,14.0
0.24,5.75,0.25,3.5,1.75,0.0,1.75,0.25,1.0,0.5,1.75,0.0,1.5,0.25,-0.73,0.2,2.89,368.6,16.7,31.1,7.25,2.5,6.25,8.0,8.5,7.25,3.5,5.5,5.5,3.0,2.75,1.25,2.5,0.08,0.14,0.95,997.14,-7.2,21.1
0.26,2.75,0.25,3.5,1.75,2.25,0.75,0.5,0.75,0.5,1.75,1.25,0.75,1.25,-0.61,-0.92,1.77,243.89,11.8,15.3,8.5,3.75,7.25,11.5,11.0,7.75,3.5,3.75,3.5,2.25,2.0,1.0,2.25,0.08,0.14,0.95,1101.39,-8.9,34.4
0.28,2.25,0.25,2.25,2.25,0.75,0.0,0.25,1.0,0.5,1.75,2.0,1.5,1.25,-1.17,-1.3,2.33,151.25,11.5,-5.1,8.5,3.0,7.5,11.5,10.0,7.25,3.0,3.25,2.25,1.25,2.0,0.25,1.0,0.02,0.14,1.08,1136.46,-10.4,42.1
0.3,1.75,0.25,2.5,2.0,0.5,0.0,0.25,1.0,0.5,1.75,2.25,1.5,1.25,-0.98,-0.98,1.2,97.86,11.5,-10.4,9.75,4.75,8.75,13.5,12.5,0.0,2.5,1.75,2.25,2.25,2.0,1.0,2.25,0.02,0.2,1.14,1170.68,-14.3,42.2
0.32,1.75,0.25,2.25,2.0,0.0,0.25,0.5,1.0,0.5,1.75,1.25,1.5,1.25,-0.61,-0.73,0.2,66.42,11.2,-8.8,11.0,5.25,9.0,11.5,12.5,0.0,2.25,1.75,1.5,2.25,2.0,1.0,2.25,0.02,0.27,1.2,1171.43,-14.6,44.2
0.34,1.5,0.25,2.0,2.0,0.75,0.0,0.25,1.0,0.5,1.75,1.25,1.5,1.25,-0.42,-0.67,0.2,55.87,9.8,-9.0,12.0,5.25,9.0,13.0,12.5,0.0,1.75,1.5,1.5,1.25,1.5,1.0,2.25,0.14,0.33,1.2,1183.08,-15.5,48.5
0.36,1.5,0.25,2.0,1.75,0.0,0.0,0.25,1.0,0.5,1.75,1.25,1.5,1.25,-0.17,-0.61,0.58,51.26,10.6,-14.6,12.0,4.75,9.25,11.5,12.0,6.25,1.5,1.5,1.25,2.25,1.5,0.75,0.5,0.2,0.39,1.33,1198.46,-12.7,50.0
0.38,1.25,0.25,1.75,1.75,0.0,0.0,0.25,1.0,0.5,1.75,1.25,1.25,1.25,0.02,-0.61,1.02,60.92,9.5,-16.4,12.0,5.25,9.25,11.0,9.5,6.0,2.0,1.5,1.25,2.25,1.25,0.5,1.0,0.08,0.45,1.45,1193.55,-13.4,50.0
0.4,1.75,0.0,2.0,1.75,0.0,0.0,0.25,1.0,0.5,1.75,1.25,1.5,1.25,0.08,-0.61,1.27,85.19,11.0,-14.8,10.0,3.75,8.5,8.0,7.75,3.5,3.5,1.25,1.0,0.5,0.75,0.25,2.25,0.2,0.58,1.7,1071.81,-15.2,49.5
0.42,1.25,0.25,1.75,1.75,0.0,0.25,0.25,1.0,0.5,1.75,1.25,1.25,0.25,0.08,-0.42,1.14,106.5,11.0,-6.9,9.0,3.0,8.25,6.0,6.0,3.5,3.75,1.0,1.0,0.25,0.75,0.25,1.0,0.7,1.14,2.45,895.56,-16.7,52.9
0.44,1.0,0.25,1.75,1.75,0.0,0.0,0.25,1.0,0.5,1.75,1.25,1.0,1.25,0.08,-0.23,1.27,130.87,9.1,-16.7,7.75,2.25,6.5,4.25,5.25,3.75,3.0,0.5,1.0,2.0,0.25,0.5,1.25,0.7,1.39,3.02,705.37,-14.0,44.7
0.46,1.0,0.0,2.0,1.75,0.0,0.0,0.25,1.0,0.5,1.75,1.25,1.25,1.25,0.14,-0.05,1.45,145.14,9.6,-19.5,6.75,2.0,5.25,4.0,5.25,3.5,1.75,1.75,1.0,2.25,1.0,0.75,1.75,0.39,0.83,3.08,566.02,-10.8,33.4
0.48,1.25,0.0,1.75,1.25,0.0,0.0,0.25,1.0,0.5,1.75,1.25,1.5,1.25,0.02,0.14,1.83,152.91,9.1,-24.3,4.25,1.25,3.75,1.75,5.25,2.25,1.25,1.75,1.0,0.25,0.75,0.75,1.75,0.58,-0.73,2.33,417.14,-9.7,31.2
0.5,1.25,0.25,1.75,1.75,0.0,0.0,0.25,1.0,0.5,1.75,1.25,1.5,1.0,-0.05,0.33,2.02,156.88,10.0,-16.3,2.75,1.25,2.25,1.75,4.5,3.25,1.0,1.5,1.0,0.5,1.5,0.75,1.75,0.77,-0.3,0.45,325.17,-5.5,21.0
0.52,1.25,0.25,1.75,1.75,0.0,0.0,0.25,1.0,0.5,1.75,1.25,1.0,1.25,-0.23,0.58,2.39,161.41,9.6,-14.5,2.0,1.25,1.75,1.75,5.25,3.5,1.0,1.25,1.0,0.75,1.5,0.75,1.5,0.89,-1.17,2.27,268.97,-3.5,20.2
0.54,1.0,0.0,1.75,1.75,0.0,0.0,0.25,1.0,0.5,1.75,1.0,1.25,1.25,-0.42,1.45,2.77,162.05,8.9,-20.1,1.75,1.25,1.5,1.5,5.0,3.5,1.0,1.5,1.0,0.5,0.75,0.75,0.75,0.52,-0.92,1.27,225.7,-3.0,26.5
0.56,1.25,0.25,1.75,1.25,0.0,1.25,0.25,1.0,0.5,1.25,1.25,1.5,1.0,-0.8,4.2,2.45,166.22,7.6,-12.3,1.75,1.25,1.5,1.5,5.0,3.5,0.75,0.75,1.0,0.5,0.75,0.75,1.75,0.39,-0.61,0.39,202.89,-2.7,22.1
0.58,0.5,0.25,1.75,1.0,0.0,0.0,0.25,1.0,0.5,0.25,1.25,1.5,1.0,0.33,6.14,-3.23,154.85,11.7,-21.8,2.0,1.25,1.5,1.5,4.25,3.25,0.75,0.75,1.0,0.5,1.25,0.75,1.5,0.33,-0.48,0.2,194.0,-4.0,20.9
0.6,1.0,0.25,1.75,1.0,0.0,1.0,0.25,1.0,0.5,1.75,1.25,1.5,1.5,3.08,6.77,-2.3,160.45,5.7,-23.1,2.25,1.25,1.5,1.5,4.5,3.5,0.75,1.5,1.0,0.5,0.75,0.75,1.5,0.14,-0.3,0.45,202.73,-3.1,22.4
0.62,1.0,0.25,1.75,1.5,0.0,1.5,0.25,1.0,0.5,2.0,1.5,1.5,2.25,-0.3,-1.48,1.83,173.65,3.9,-24.7,1.75,1.25,1.5,1.75,4.25,3.5,0.75,1.5,1.0,1.25,0.75,0.75,1.5,0.02,-0.3,0.7,219.89,-2.0,17.4
0.64,1.0,0.25,1.75,0.5,0.0,0.0,0.25,2.5,0.5,3.0,1.25,2.5,3.25,-0.42,0.95,1.27,201.75,1.4,-48.8,1.25,1.25,1.5,1.5,3.75,3.5,0.75,1.25,1.0,0.5,0.75,0.75,1.75,0.08,-0.23,0.77,234.65,-1.9,16.4
0.66,1.25,0.0,1.75,0.25,0.0,1.75,0.25,3.0,1.0,4.75,2.25,5.0,5.5,1.58,1.02,1.95,266.01,-1.5,-58.2,1.5,1.0,1.5,1.5,4.25,3.5,0.75,1.25,1.0,0.75,0.75,0.5,2.0,0.14,-0.11,0.77,245.89,-1.5,16.2
0.68,0.25,0.0,1.75,1.75,0.0,1.75,0.25,3.25,2.0,6.5,3.75,6.75,7.25,-0.48,0.83,3.7,363.17,-1.7,-63.3,2.0,1.0,1.25,1.75,3.75,3.25,0.75,1.5,1.0,0.5,0.75,0.75,1.75,0.08,0.02,0.89,252.56,-2.7,17.3
0.7,0.0,0.25,1.75,1.75,0.0,1.75,0.25,5.75,2.25,6.5,5.25,6.75,7.25,0.02,0.2,1.14,489.41,-2.2,-61.9,1.75,1.25,1.5,1.75,4.25,3.25,0.75,1.25,1.0,0.75,0.75,0.5,1.75,0.02,0.08,1.14,262.42,-2.7,20.0
0.72,1.0,0.0,1.75,1.75,0.0,1.75,0.5,5.75,3.0,5.75,5.5,6.75,7.25,-0.17,0.14,0.95,597.19,-0.8,-58.4,2.0,1.0,1.5,1.75,3.75,3.25,0.75,1.25,1.0,0.5,0.5,0.75,1.5,0.08,0.2,1.33,269.15,-3.5,21.4
0.74,0.75,0.0,1.75,1.75,0.0,2.0,0.75,6.25,4.25,6.75,6.0,7.25,7.5,-0.11,0.14,0.95,693.15,-1.0,-59.1,1.75,1.0,1.25,1.25,3.75,2.75,0.75,1.0,1.0,0.5,0.75,0.5,1.75,0.2,0.39,1.58,264.83,-3.0,17.9
0.76,0.75,0.25,2.0,2.0,0.0,1.75,0.75,6.75,4.5,7.5,6.5,7.25,8.0,-0.11,0.08,0.95,770.27,-0.8,-58.1,1.75,1.25,1.25,1.5,3.25,3.25,0.75,1.25,1.0,0.75,0.75,0.75,1.75,0.27,0.58,1.89,262.17,-2.4,15.3
0.78,1.0,0.25,1.75,2.5,0.0,2.5,0.75,6.75,5.0,8.0,6.75,7.25,8.0,-0.11,0.08,0.95,837.95,-0.9,-55.5,1.5,1.0,1.5,1.5,3.5,3.5,0.5,1.25,1.0,1.25,0.75,0.5,1.5,0.45,1.08,2.33,261.7,-1.5,15.4
0.8,1.0,0.25,1.75,2.5,0.5,3.25,1.25,7.5,5.0,7.75,6.75,7.25,8.0,-0.11,0.08,0.95,893.38,-1.3,-52.4,1.5,1.0,1.25,1.5,3.5,3.25,0.5,1.25,1.0,1.5,0.5,0.5,1.75,0.58,2.08,2.83,261.51,-0.7,12.9
0.82,1.25,0.25,1.75,2.5,0.75,3.25,1.25,7.5,5.0,7.75,6.75,6.75,7.75,-0.11,0.08,0.95,922.77,-1.1,-50.3,1.75,1.25,1.25,1.25,3.25,3.5,0.5,1.25,1.0,1.0,0.75,0.5,1.75,0.77,3.2,2.45,261.75,-1.4,15.3
0.84,1.25,0.25,1.75,2.5,3.0,3.25,1.25,7.5,5.0,7.25,6.25,6.5,7.25,-0.11,0.08,0.95,921.36,-1.2,-43.8,1.5,0.75,1.25,1.25,3.5,2.75,0.5,1.25,1.0,1.0,0.75,0.75,2.25,0.7,4.7,1.08,259.26,-1.2,6.7
0.86,1.5,0.25,2.0,2.5,3.0,3.75,1.25,7.75,5.0,7.25,6.25,5.75,7.0,-0.11,0.08,0.95,902.57,-1.1,-40.7,1.75,1.25,1.5,1.5,3.25,3.75,0.5,1.0,1.0,1.25,0.75,0.5,1.75,-1.23,5.58,-1.92,262.8,-1.8,16.2
0.88,1.5,0.25,1.75,2.5,4.75,4.25,1.5,8.0,5.0,7.25,5.5,4.75,6.25,-0.11,0.08,0.95,870.63,-1.8,-34.0,1.5,0.75,1.5,1.5,3.25,3.5,0.5,1.5,1.0,3.0,0.75,0.75,2.25,-4.86,5.89,2.08,272.23,0.5,0.2
0.9,1.0,0.5,1.75,2.0,2.5,4.5,1.5,8.0,5.0,6.75,5.0,4.75,5.75,-0.11,0.08,0.95,807.55,-2.1,-38.2,1.5,1.0,1.25,1.5,3.25,3.25,0.75,1.5,1.0,3.0,0.75,1.25,2.25,0.83,-0.86,0.58,282.07,0.2,-1.9
0.92,1.5,0.25,2.25,2.5,4.5,5.25,1.5,8.25,4.75,5.75,4.75,3.5,5.5,-0.11,0.08,0.95,757.66,-1.8,-27.3,1.75,0.75,1.25,1.75,3.5,3.5,0.5,1.5,1.0,3.5,1.5,2.25,3.75,-0.17,0.58,-0.17,304.45,0.7,-14.3
0.94,1.5,0.25,1.75,2.5,4.75,5.5,1.5,8.5,4.5,5.75,4.5,3.0,5.0,-0.11,0.08,0.95,714.12,-2.5,-25.5,1.5,1.0,1.25,0.75,3.75,3.5,0.5,1.75,1.5,6.0,2.0,4.75,6.0,-0.73,0.77,2.45,361.77,2.4,-35.0
0.96,1.75,0.25,1.75,2.5,4.75,6.0,1.5,8.5,4.5,5.75,3.75,3.0,4.0,-0.11,0.08,0.95,682.04,-2.5,-21.7,0.0,0.5,1.5,0.0,5.25,3.5,0.75,3.25,2.0,6.75,1.75,6.0,8.0,0.45,0.52,2.14,450.29,4.9,-45.5
0.98,2.25,0.25,2.0,2.75,4.75,6.75,1.5,8.75,4.5,5.25,3.75,2.5,3.75,-0.11,0.08,0.95,663.33,-2.1,-17.0,1.5,1.25,0.5,1.25,1.25,3.75,0.5,4.25,3.5,7.5,4.75,7.0,7.5,-0.17,0.33,1.7,564.32,2.5,-50.8
1.0,2.25,0.0,2.25,2.5,5.0,6.75,1.5,8.75,4.5,4.5,3.5,2.0,3.0,-0.11,0.08,0.95,644.42,-1.8,-13.4,2.25,1.0,1.0,1.5,3.5,4.5,0.75,5.75,4.75,8.25,6.75,7.5,8.25,0.14,0.27,1.02,720.7,1.6,-43.9
1.02,2.25,0.25,2.5,4.0,7.0,7.25,1.5,9.0,4.25,4.25,2.75,1.75,2.75,-0.11,0.14,0.95,658.03,-1.4,-4.3,1.75,1.25,1.25,1.5,3.25,5.25,0.75,6.25,4.0,8.5,7.25,7.5,8.5,0.08,0.2,0.95,855.48,2.3,-44.2
1.04,2.25,0.0,2.25,5.0,7.0,7.75,1.75,8.75,4.0,4.25,2.5,1.5,2.25,-0.11,0.14,0.95,672.14,-1.4,-1.1,3.0,0.75,1.25,1.25,3.75,5.25,0.75,6.25,4.75,8.75,6.0,6.75,8.0,0.08,0.14,0.95,944.81,1.9,-39.9
1.06,2.25,0.0,3.0,5.25,7.5,8.25,1.75,8.5,3.75,4.0,2.5,1.5,2.25,-0.11,0.14,0.95,703.21,-0.9,1.7,0.75,0.5,2.25,0.5,1.5,3.5,1.5,6.25,4.25,7.75,5.75,6.0,8.0,0.08,0.14,0.95,933.82,2.1,-51.3
1.08,2.25,0.5,3.25,6.75,8.75,8.75,2.0,8.5,3.5,4.25,2.5,1.5,2.0,-0.11,0.14,0.95,754.61,-0.3,6.6,0.5,1.75,1.5,0.75,3.75,4.5,0.5,6.25,4.25,7.5,5.25,6.0,7.25,0.08,0.14,0.95,902.81,3.1,-41.7
1.1,3.25,1.0,3.5,7.5,10.5,9.25,1.75,8.25,3.0,3.25,2.0,1.5,2.0,-0.11,0.14,0.95,826.22,0.5,14.4,2.25,1.25,1.5,1.5,4.25,5.5,1.25,6.25,4.75,7.75,6.0,5.5,8.0,0.08,0.14,0.95,888.0,1.9,-35.6
1.12,4.0,1.25,4.25,8.5,12.5,10.0,1.75,8.0,2.0,2.75,2.0,1.5,2.0,-0.11,0.14,0.95,920.71,1.3,20.6,1.75,1.25,1.75,1.5,5.25,5.5,1.75,6.0,4.75,7.5,4.75,5.5,6.25,0.08,0.14,0.95,866.62,1.7,-30.5
1.14,5.75,1.0,4.25,10.5,13.0,10.5,1.5,7.5,1.25,2.0,0.0,1.5,2.0,-0.11,0.14,1.02,1007.54,2.3,29.3,1.75,1.0,1.5,1.5,5.0,5.25,1.0,6.25,4.5,7.25,5.0,4.5,7.0,0.08,0.14,0.95,841.31,2.5,-32.4
1.16,7.25,1.75,4.25,10.5,15.0,11.0,1.5,7.0,1.25,2.5,0.0,1.5,2.0,-0.17,0.2,1.14,1110.9,2.8,32.2,1.75,1.25,1.5,1.25,5.0,5.5,1.25,6.25,4.25,6.75,4.75,4.25,6.25,0.08,0.14,0.95,791.87,2.4,-29.5
1.18,8.5,2.75,4.5,11.5,16.5,11.5,0.0,6.5,0.5,2.0,0.0,1.25,2.0,-0.23,0.2,1.27,1213.38,3.3,37.9,2.25,1.25,1.5,1.25,5.0,5.75,1.25,6.25,4.5,6.75,4.5,3.25,5.25,0.14,0.14,0.95,735.27,2.2,-24.4
1.2,10.5,3.25,4.25,12.5,16.5,10.0,0.0,5.75,0.5,1.75,1.25,1.5,1.25,-0.3,0.27,1.33,1305.6,5.4,40.6,1.25,1.5,1.5,1.5,5.25,6.25,1.5,7.0,4.75,6.5,4.0,3.0,5.5,0.14,0.14,0.95,692.52,3.1,-24.1
1.22,12.5,3.25,6.0,10.5,16.5,9.25,0.0,5.0,0.5,1.75,2.0,1.5,2.0,-0.3,0.33,1.52,1358.43,7.0,40.2,1.25,1.5,1.75,2.25,5.25,6.25,1.75,7.25,4.75,6.0,4.0,2.5,5.0,0.14,0.14,0.95,670.37,2.5,-20.0
1.24,13.5,3.25,5.5,8.5,12.5,8.0,0.0,4.5,0.5,1.25,1.5,0.75,1.5,-0.67,0.58,1.95,1328.09,8.7,44.9,1.75,1.5,1.75,3.25,5.5,5.75,1.75,7.25,4.75,6.0,3.5,2.25,4.25,0.14,0.14,0.95,662.61,1.5,-14.8
1.26,10.5,1.75,4.5,6.25,8.5,5.5,0.5,3.0,0.5,1.75,1.0,1.5,1.5,-1.23,1.27,2.52,1137.98,9.3,38.8,2.0,2.0,2.5,4.0,6.75,6.5,1.75,7.25,4.75,5.25,2.75,1.75,3.75,0.14,0.14,0.95,686.21,0.6,-4.6
1.28,8.0,1.25,4.25,4.25,7.0,3.25,0.25,3.0,0.5,0.0,0.0,0.25,1.25,-0.98,1.08,3.33,852.68,10.8,47.8,1.75,2.0,2.75,4.0,7.0,7.25,1.75,7.5,4.75,5.0,2.75,1.75,3.25,0.14,0.14,0.95,716.29,0.8,-2.7
1.3,5.75,0.0,1.0,1.75,4.75,1.75,0.0,1.0,0.5,0.0,0.0,0.0,0.25,-0.86,0.95,3.39,522.65,11.0,55.9,2.5,2.5,2.75,5.25,8.0,7.75,1.75,7.5,4.75,5.0,2.75,1.75,3.25,0.14,0.14,0.95,774.01,0.0,2.4
1.32,3.0,0.0,0.5,0.0,0.0,1.0,0.0,0.5,0.5,1.0,0.0,1.5,0.25,-0.98,-0.86,3.33,273.53,10.9,3.9,2.5,2.5,3.0,5.25,8.5,8.25,2.0,7.75,4.5,3.75,2.75,1.75,3.25,0.14,0.14,0.95,817.11,-0.1,5.2
1.34,2.25,0.0,1.75,1.0,4.75,0.5,0.25,1.0,0.5,1.0,1.25,1.5,0.0,-0.42,-1.05,-0.36,155.76,8.3,18.5,3.0,3.0,4.0,8.0,9.5,8.75,2.25,7.5,3.5,3.5,2.0,1.75,3.0,0.14,0.14,0.95,889.88,-1.7,14.2
1.36,1.75,0.25,0.5,0.75,0.0,1.75,0.0,0.0,0.5,1.75,0.0,1.5,0.0,-0.98,-1.17,2.33,44.97,5.5,0.4,4.25,3.75,4.0,9.75,11.0,9.25,2.0,7.25,3.0,3.25,2.0,1.0,2.75,0.14,0.14,0.95,984.37,-2.5,22.1
1.38,2.0,0.25,1.75,1.25,3.0,1.75,0.25,0.0,0.5,1.5,1.0,1.25,1.0,-0.55,-0.92,0.83,29.57,6.6,11.7,6.0,4.75,4.25,12.0,12.5,10.0,1.75,6.25,1.5,3.25,2.0,1.0,2.75,0.14,0.14,0.95,1111.02,-3.7,29.5
1.4,1.25,0.25,1.75,0.75,0.0,0.25,0.25,0.5,0.5,1.75,1.25,1.5,0.75,-0.48,-0.55,0.14,0.0,10.4,-19.2,7.0,5.25,5.25,12.0,14.0,9.75,1.5,5.5,1.25,2.75,2.0,1.0,2.25,0.08,0.2,1.14,1229.95,-5.0,34.6
1.42,1.0,0.25,1.0,1.0,0.0,0.0,0.25,0.75,0.5,1.75,1.25,1.5,0.5,-0.61,-0.48,0.14,0.0,8.5,-25.8,8.5,0.0,6.0,0.0,15.5,10.0,1.25,4.25,1.25,0.75,1.25,1.0,2.25,0.02,0.2,1.2,1162.64,-3.4,32.6
1.44,1.0,0.25,1.75,0.5,0.0,0.0,0.25,0.0,0.5,1.25,0.75,1.25,0.75,-0.61,-0.42,0.2,0.0,13.8,-15.9,9.75,5.75,5.25,14.0,15.5,8.5,0.75,0.0,0.5,0.5,0.75,0.25,2.25,0.14,0.27,1.33,1189.68,-9.0,53.3
1.46,1.0,0.25,1.75,0.5,0.0,0.0,0.25,0.0,0.5,0.5,1.0,1.25,1.0,-0.55,-0.36,0.52,0.0,15.6,-15.1,9.0,5.75,6.75,9.75,12.5,7.75,0.75,0.75,0.75,0.5,0.5,0.0,0.75,0.27,0.33,1.33,1116.67,-10.3,56.9
1.48,1.25,0.25,1.75,1.0,0.0,0.0,0.25,0.75,0.5,1.25,1.25,1.25,1.0,-0.48,-0.3,0.77,29.13,11.4,-16.3,9.5,5.5,6.25,9.75,11.0,7.5,1.0,0.75,0.75,1.5,0.5,1.0,0.25,0.27,0.45,1.52,1080.34,-10.6,53.4
1.5,1.0,0.25,1.75,1.0,0.0,0.0,0.25,0.75,0.5,0.5,1.25,1.25,1.0,-0.48,-0.11,0.83,70.47,13.0,-14.5,9.0,5.25,7.0,8.0,9.0,6.5,2.25,0.0,0.75,0.5,0.5,0.25,0.0,0.39,0.77,2.14,967.99,-13.2,60.1
1.52,1.0,0.25,1.75,1.0,0.0,0.0,0.25,0.0,0.5,0.5,1.25,1.25,1.0,-0.48,0.02,0.83,101.39,15.6,-12.3,8.25,4.5,4.0,5.25,6.5,5.25,2.75,0.0,0.75,0.5,0.5,0.25,0.25,0.77,1.39,2.95,811.45,-12.8,58.7
1.54,1.25,0.0,1.75,0.25,0.0,0.0,0.25,0.0,0.25,0.5,1.0,1.0,1.0,-0.48,0.14,1.02,110.79,16.7,-14.1,6.75,3.0,1.25,3.0,5.25,5.25,1.5,0.0,1.0,2.5,0.25,0.75,1.0,0.77,1.2,3.14,609.74,-7.0,40.4
1.56,1.25,0.25,1.75,0.5,0.0,0.0,0.0,0.0,0.25,0.5,1.25,1.25,1.0,-0.48,0.27,1.52,111.7,15.9,-13.5,5.25,2.5,1.25,3.25,5.25,2.5,1.25,1.5,1.0,2.0,0.75,0.75,2.0,0.52,0.27,3.14,452.75,-6.8,28.1
1.58,1.25,0.25,1.75,0.25,0.0,0.0,0.25,0.0,0.5,0.5,1.25,1.25,1.0,-0.55,0.39,1.89,103.91,16.0,-16.0,0.0,1.5,1.5,2.0,5.25,0.0,0.75,0.5,1.0,2.0,0.5,0.75,2.25,0.39,-0.8,2.08,307.77,-3.1,6.5
1.6,0.25,0.0,1.75,0.0,0.0,0.0,0.25,0.0,0.0,0.25,1.25,0.0,1.0,-0.67,0.7,2.2,92.7,16.3,-18.8,0.25,1.5,1.5,2.0,5.25,1.0,0.5,1.25,1.0,1.75,0.5,0.75,2.0,0.64,-0.98,2.77,234.59,-1.8,9.6
1.62,1.0,0.0,0.25,0.75,0.0,0.0,0.0,0.0,0.5,0.25,1.25,1.25,0.5,-0.73,1.7,2.83,81.06,13.2,-29.8,0.25,1.25,1.25,1.75,5.25,0.0,0.75,0.0,1.0,1.5,0.75,0.75,1.75,0.33,-1.3,2.08,170.72,-4.4,10.9
1.64,1.0,0.25,1.75,0.5,0.0,0.0,0.25,0.0,0.5,0.5,1.25,1.25,1.0,-0.8,3.2,3.58,90.43,15.5,-16.9,0.0,0.0,0.0,1.25,5.25,0.0,0.75,0.0,1.0,1.5,0.25,0.5,1.0,0.33,-0.61,0.39,118.73,0.3,6.1
1.66,1.0,0.25,1.75,0.25,0.0,0.0,0.25,1.0,0.5,0.75,1.0,1.25,1.0,-0.73,5.14,2.64,103.36,11.0,-21.6,0.25,1.0,0.25,0.75,5.25,1.25,0.75,1.0,1.0,1.25,0.75,0.75,2.25,0.39,-0.42,-0.05,109.6,1.9,0.0
1.68,1.5,0.0,1.75,1.25,0.0,1.75,0.25,0.75,0.5,1.25,1.25,1.0,1.0,1.08,7.2,-2.3,132.14,7.3,-6.1,0.75,1.25,0.0,2.25,5.0,1.5,0.5,1.25,1.0,1.25,0.75,0.75,2.25,0.27,-0.23,0.08,117.15,0.4,6.5
1.7,1.0,0.0,1.75,0.75,0.0,1.0,0.25,1.5,0.5,2.0,1.25,1.25,1.25,4.7,6.7,-0.98,154.86,4.3,-25.6,1.0,1.5,0.0,1.75,4.75,1.25,0.75,1.0,1.0,1.75,0.75,0.75,2.0,0.14,-0.3,0.33,151.58,-0.2,6.6
1.72,1.0,0.25,1.75,0.25,0.0,1.25,0.0,1.25,0.5,1.5,1.5,1.5,2.0,-1.3,-0.23,1.58,172.94,3.5,-31.4,1.0,1.25,0.75,2.25,4.75,0.0,0.5,1.5,1.0,1.5,0.5,0.75,1.75,0.14,-0.3,0.64,177.56,-3.2,9.7
1.74,0.75,0.25,1.75,0.25,0.0,1.75,0.25,2.25,0.5,1.75,1.25,1.75,3.0,-0.3,-1.61,1.89,195.7,-0.3,-37.9,1.25,1.25,1.25,1.5,4.25,0.25,0.5,1.5,1.0,1.25,0.5,0.5,1.75,0.14,-0.17,0.7,200.89,-4.1,12.1
1.76,0.75,0.25,1.75,1.0,0.0,1.75,0.25,3.0,0.75,3.0,2.0,4.75,4.75,2.08,0.7,1.45,251.37,-0.4,-52.3,0.75,1.0,1.25,1.5,4.25,0.0,0.75,1.5,1.0,0.25,0.5,0.25,2.0,0.14,0.02,0.7,208.92,-4.6,13.5
1.78,0.5,0.25,1.75,0.5,0.0,1.75,0.25,3.75,1.5,0.0,3.0,5.75,6.5,-0.3,0.64,2.2,301.94,0.3,-59.7,0.25,1.0,0.0,1.25,1.5,0.25,0.5,0.0,0.75,0.0,0.25,0.25,1.0,0.2,0.08,0.89,173.93,-5.6,17.1
1.8,0.75,0.25,0.0,1.0,0.0,1.75,0.0,5.25,2.0,6.5,4.75,6.75,6.5,-0.11,0.02,1.14,405.5,-3.9,-67.2,1.5,1.25,0.5,2.0,1.5,1.0,0.5,1.5,1.0,0.5,0.75,0.75,2.0,0.2,0.2,1.08,174.75,-4.5,3.5
1.82,1.25,0.25,1.0,1.5,0.5,1.75,0.25,6.0,3.0,7.0,5.75,7.5,7.75,-0.11,0.14,0.95,546.85,-1.9,-60.1,0.25,0.0,0.0,0.5,1.5,1.0,0.5,0.0,1.0,0.5,0.5,0.25,0.75,0.27,0.33,1.52,141.67,0.2,-5.9
1.84,1.0,0.25,1.75,1.75,0.0,1.75,0.0,6.25,3.75,8.25,6.0,8.0,8.5,-0.11,0.14,0.95,695.26,-1.6,-61.3,0.25,0.5,0.0,0.5,1.5,0.25,0.5,0.0,0.75,0.25,0.25,0.25,1.5,0.33,0.7,1.83,116.76,-1.3,-7.8
1.86,1.0,0.25,1.0,1.5,0.0,2.25,0.25,7.5,4.0,9.0,6.75,8.75,9.0,-0.11,0.08,0.95,823.55,-2.7,-63.6,2.0,1.25,1.25,0.5,3.75,1.25,0.5,1.25,1.0,1.25,0.5,0.5,1.75,0.2,1.27,2.14,144.42,-3.6,13.4
1.88,0.5,0.25,1.75,1.0,0.0,2.0,0.25,7.5,3.75,9.0,7.0,8.0,9.75,-0.11,0.14,0.95,908.73,-2.9,-65.1,1.5,0.75,1.25,1.25,3.5,3.5,0.5,1.25,1.0,1.5,0.5,0.75,2.0,0.89,2.45,2.39,191.84,0.0,8.2
1.9,0.0,0.0,0.5,1.5,0.0,1.75,0.0,7.5,3.75,9.0,6.0,8.75,9.75,-0.11,0.08,0.95,942.38,-4.3,-70.7,1.5,1.25,1.25,1.5,3.75,3.25,0.75,1.25,1.0,1.25,0.75,0.5,2.0,0.83,3.77,1.64,232.05,-1.2,13.1
1.92,1.0,0.25,1.75,1.0,0.0,2.0,0.25,7.5,3.75,8.5,6.75,8.5,9.75,-0.11,0.08,0.95,951.89,-2.4,-63.9,1.75,1.0,1.25,1.5,3.25,3.0,0.5,1.25,1.0,0.75,0.5,0.5,1.75,1.45,5.52,-0.11,253.53,-2.2,16.7
1.94,1.0,0.0,1.75,0.5,0.0,1.75,0.25,7.5,3.25,8.25,6.25,8.0,9.0,-0.11,0.08,0.95,924.2,-2.7,-65.5,1.75,0.75,1.25,1.5,3.75,2.75,0.5,1.25,0.75,1.5,0.5,0.75,1.75,-0.42,4.83,-1.48,268.34,-1.5,11.9
1.96,1.25,0.25,1.75,1.25,0.0,1.75,0.25,7.5,3.25,7.75,6.0,7.75,9.0,-0.17,0.08,0.89,886.64,-2.1,-61.3,0.0,0.75,1.25,1.5,3.5,1.25,0.5,1.5,1.0,0.5,0.75,1.75,2.25,-3.92,3.64,-0.36,260.5,-1.4,-7.3
1.98,1.25,0.25,1.75,1.0,0.0,2.5,0.25,7.5,3.5,7.75,5.75,7.25,8.25,-0.11,0.08,0.95,833.93,-2.4,-59.0,0.0,0.5,1.25,0.0,3.5,3.0,0.5,1.5,1.75,0.5,2.0,2.75,2.75,0.33,0.89,0.95,265.83,1.0,-23.3
2.0,1.0,0.0,1.75,1.5,0.5,3.0,0.25,7.5,3.75,7.75,5.5,6.75,8.0,-0.11,0.08,0.95,788.8,-2.8,-56.1,0.0,0.5,0.0,0.0,1.25,2.75,0.25,0.0,2.75,1.0,3.25,4.25,3.0,-1.11,2.39,5.89,271.33,0.3,-53.1
2.02,1.25,0.25,1.75,1.75,1.25,3.5,0.25,7.75,3.75,6.75,5.5,6.5,7.25,-0.11,0.08,0.95,749.3,-2.3,-49.3,0.5,0.0,0.75,1.5,3.5,3.75,1.25,1.75,3.0,3.5,5.0,4.5,4.5,0.14,0.45,1.64,333.49,0.6,-38.4
2.04,1.25,0.25,1.75,2.0,2.5,3.25,0.75,7.75,3.75,7.25,5.25,5.75,7.0,-0.11,0.14,0.95,718.87,-2.2,-44.5,0.5,1.25,1.5,1.5,3.5,1.5,1.0,1.5,3.0,2.25,3.25,3.75,4.0,-0.11,0.02,0.89,362.81,-2.6,-28.2
2.06,1.25,0.25,1.75,2.5,4.75,4.25,0.75,8.0,4.5,7.0,4.75,4.75,6.25,-0.11,0.08,0.95,708.48,-2.4,-34.2,2.75,0.75,1.5,0.5,3.75,3.5,1.0,3.0,4.5,5.5,5.0,5.5,4.75,0.08,0.14,0.89,467.56,-1.0,-33.5
2.08,1.5,0.5,1.75,2.5,4.75,4.5,1.0,8.25,4.5,6.25,4.75,4.5,5.5,-0.11,0.08,0.95,699.56,-2.0,-30.3,3.0,1.25,1.5,1.25,1.5,3.75,0.75,3.5,5.25,6.75,6.5,6.25,5.5,0.08,0.27,1.02,566.77,-1.4,-39.6
2.1,1.75,0.25,1.75,2.5,4.75,5.25,1.25,8.5,5.0,5.75,4.5,3.0,5.0,-0.11,0.08,0.95,686.45,-2.1,-25.4,4.25,1.25,1.5,2.0,4.25,3.5,1.75,4.25,5.75,6.75,7.75,7.0,7.0,0.02,0.14,0.95,715.97,-2.1,-33.4
2.12,2.0,0.25,1.75,2.5,4.75,6.0,1.5,8.5,5.0,5.0,3.75,3.0,4.0,-0.11,0.08,0.95,670.94,-1.9,-20.4,5.5,1.75,2.5,2.0,4.25,3.5,1.75,4.25,5.75,6.75,8.0,6.25,7.25,0.02,0.14,0.95,842.0,-3.4,-27.6
2.14,2.25,0.25,3.0,4.25,5.25,6.75,2.0,8.0,5.0,4.25,2.5,2.5,3.25,-0.11,0.08,0.95,672.25,0.0,-8.1,5.5,1.0,4.0,2.0,5.25,4.0,2.75,5.25,5.5,5.75,7.75,5.75,6.25,0.02,0.14,0.95,953.34,-4.2,-21.4
2.16,4.0,1.25,4.25,6.75,7.75,7.25,2.75,8.0,5.0,4.25,2.5,1.75,2.25,-0.11,0.08,0.95,741.39,2.8,8.1,6.0,1.25,2.75,2.0,4.75,4.5,2.0,4.25,5.25,6.0,6.5,5.25,5.5,0.02,0.14,0.95,980.01,-3.7,-19.1
2.18,5.75,1.75,5.25,8.5,9.0,8.25,3.5,7.5,4.5,3.25,2.5,1.75,2.0,-0.11,0.14,0.95,862.49,4.8,17.6,6.25,1.0,3.5,1.75,5.0,4.75,2.25,4.25,5.25,5.75,6.0,4.0,4.75,0.02,0.14,0.95,965.25,-4.3,-13.4
2.2,8.0,1.75,7.25,11.0,13.0,8.75,4.5,6.75,3.25,3.0,2.5,1.5,2.75,-0.11,0.14,0.95,1064.06,6.5,25.9,6.5,1.5,4.0,1.75,5.25,5.5,2.25,5.25,5.25,3.75,5.5,3.5,4.0,0.08,0.14,0.95,934.68,-5.0,-5.4
2.22,9.25,1.75,8.5,11.0,14.0,8.75,4.0,5.75,2.25,2.75,0.5,1.5,1.25,-0.11,0.14,1.14,1223.57,7.9,36.1,7.5,1.5,2.75,1.75,5.25,5.25,2.25,5.5,5.0,4.5,5.0,3.0,4.0,0.08,0.14,0.95,897.11,-4.3,-4.7
2.24,11.5,3.5,9.5,13.0,13.5,8.25,2.25,5.75,1.25,1.75,2.0,1.5,2.0,-0.17,0.14,1.33,1363.88,9.5,39.0,7.75,2.25,4.0,1.75,5.25,5.5,2.25,5.5,5.25,3.75,4.75,2.5,3.25,0.08,0.14,0.95,872.91,-5.7,2.7
2.26,14.0,3.75,10.5,14.0,14.5,8.25,1.75,4.75,0.75,1.75,2.0,1.0,2.0,-0.23,0.2,1.52,1457.32,10.8,44.1,7.75,2.0,4.0,2.25,5.25,6.25,2.0,6.25,5.25,4.25,4.5,2.25,3.25,0.08,0.14,0.89,858.32,-4.8,2.7
2.28,14.5,3.5,10.5,13.0,11.5,7.0,1.0,3.75,0.5,1.5,0.25,1.5,1.0,-0.36,0.33,1.64,1468.56,12.8,49.7,8.0,2.25,4.25,2.75,5.25,6.5,1.75,6.25,5.25,3.75,4.0,2.0,2.5,0.08,0.14,0.95,855.93,-5.5,8.0
2.3,13.0,3.5,11.5,8.75,9.75,4.5,0.75,3.0,0.5,0.25,1.25,0.75,1.25,-0.61,0.64,2.02,1384.24,15.2,51.7,8.5,2.5,4.25,4.0,5.75,7.0,2.0,7.0,4.75,3.75,3.0,1.75,2.0,0.14,0.14,0.95,853.5,-5.5,14.0
2.32,11.5,3.25,9.5,6.75,7.0,3.25,2.0,1.5,0.5,0.75,0.0,0.5,0.5,-1.23,1.08,2.89,1177.03,17.3,57.8,9.0,3.5,4.75,4.5,6.5,7.25,1.75,6.25,0.0,3.5,2.75,1.0,2.25,0.14,0.14,0.95,844.84,-5.7,25.4
2.34,9.0,1.75,6.75,4.5,4.75,1.75,1.0,1.25,0.5,0.0,0.0,0.0,1.0,-2.11,1.77,4.08,859.28,18.4,58.2,0.0,3.5,5.25,3.25,7.0,7.5,1.75,5.5,2.75,2.0,2.25,0.75,0.5,0.2,0.14,0.95,759.9,-1.9,19.2
2.36,6.0,0.25,2.75,1.0,0.0,0.0,0.0,1.0,0.5,0.0,0.0,0.0,0.25,-1.48,0.58,4.64,483.94,27.1,62.7,8.75,4.5,4.25,5.25,6.75,7.25,1.25,5.0,1.75,2.0,0.75,0.75,0.25,0.14,0.2,1.02,739.99,-7.4,39.9
2.38,2.25,0.0,1.75,0.0,0.0,0.0,0.0,1.5,0.5,0.25,0.25,0.5,0.25,-0.48,-1.42,2.77,244.35,17.2,16.5,9.5,0.0,5.5,6.25,7.75,7.25,1.25,4.0,1.75,2.75,1.5,1.0,2.25,0.02,0.2,1.2,736.73,-7.4,27.9
2.4,0.75,0.0,1.75,0.0,0.0,0.0,0.0,0.0,0.5,0.25,0.0,0.0,0.0,-0.48,-1.3,4.14,46.14,29.4,43.2,9.25,5.75,6.25,6.75,8.0,7.0,0.75,2.5,0.0,2.25,2.0,0.5,0.75,0.02,0.2,1.39,784.49,-9.8,46.1
2.42,1.75,0.0,1.75,1.0,0.0,1.25,0.0,0.0,0.5,1.75,1.25,1.5,0.75,-0.55,-1.92,1.7,0.0,9.7,-10.5,9.5,6.0,6.0,5.5,7.0,6.25,1.0,0.0,1.0,2.25,0.75,0.25,2.25,0.2,0.39,1.58,790.52,-11.0,47.7
2.44,1.0,0.25,1.75,0.25,0.0,1.75,0.25,0.0,0.5,1.75,1.5,1.5,1.0,-0.36,-2.17,1.02,0.0,6.1,-21.0,9.5,5.75,2.75,2.75,6.0,5.5,1.25,1.5,0.5,0.5,0.5,0.25,0.0,0.2,0.58,2.14,717.18,-10.9,59.7
2.46,1.25,0.25,1.75,0.25,0.0,0.0,0.25,0.75,0.25,0.5,1.25,0.0,1.0,-0.23,-2.36,1.58,0.0,14.0,-1.7,9.5,6.5,1.25,1.75,5.25,2.0,0.5,0.25,0.0,0.5,0.5,0.75,0.0,0.7,0.64,2.02,581.33,-14.5,67.3
2.48,1.25,0.25,0.75,1.25,0.0,1.75,0.0,0.25,0.5,1.75,0.0,1.5,0.0,-0.17,-1.73,2.52,0.0,5.0,-0.6,8.0,4.0,1.25,0.0,5.25,1.0,0.0,0.0,0.75,0.25,0.75,0.0,0.0,0.83,0.64,2.02,421.88,-15.4,68.1
2.5,0.25,0.0,1.75,0.0,0.0,0.0,0.25,0.0,0.25,0.5,1.25,0.0,1.25,-0.17,-0.8,3.14,0.0,13.2,-26.6,6.75,2.75,0.0,0.0,1.5,0.0,0.0,0.0,0.5,0.5,0.5,0.0,0.0,0.45,0.77,2.14,284.59,-20.5,72.6
2.52,0.25,0.0,0.0,0.0,0.0,0.0,0.0,0.0,0.25,0.5,0.0,0.0,0.0,-0.36,0.39,4.02,0.0,3.3,-24.9,5.25,0.0,0.0,0.0,1.75,0.0,0.0,0.75,0.25,0.0,0.0,0.0,0.75,1.02,0.14,0.95,178.41,-16.6,53.4
2.54,0.5,0.25,0.25,0.25,0.0,0.75,0.25,0.0,0.5,1.75,0.75,1.5,0.25,-0.61,1.83,4.2,0.0,2.6,-39.5,3.0,1.25,0.25,0.0,1.25,1.0,0.0,0.0,0.75,0.0,0.5,0.25,0.75,0.2,1.08,2.2,94.39,-11.5,38.9
2.56,1.25,0.25,1.75,1.25,0.0,0.25,0.0,0.0,0.5,0.75,0.0,1.0,0.0,-0.8,2.58,4.2,13.29,19.0,21.2,0.25,0.75,0.0,0.0,1.25,1.0,0.5,0.0,0.75,0.0,0.5,0.25,0.75,-0.05,1.64,1.39,26.89,-0.8,6.5
2.58,0.25,0.0,1.75,0.0,0.0,1.75,0.25,0.0,0.5,1.75,0.0,1.5,1.0,-0.98,2.89,4.27,68.98,2.4,-27.5,0.0,0.5,0.0,0.0,1.25,1.25,0.0,0.0,0.75,0.0,0.5,1.0,1.0,-0.3,1.89,1.2,0.0,2.5,-18.5
2.6,1.25,0.25,0.5,0.75,0.0,1.75,0.0,0.75,0.5,1.75,0.0,1.5,0.0,-1.23,3.58,4.45,109.67,2.1,-8.0,0.25,0.25,0.0,0.0,1.25,1.0,0.0,0.0,0.75,0.0,0.25,0.25,1.25,-0.98,1.83,1.02,0.0,3.4,-10.6
2.62,1.25,0.25,1.75,1.0,0.0,1.75,0.25,1.0,0.5,1.75,1.25,1.5,1.25,-1.36,4.39,4.39,147.53,5.0,-16.3,0.25,0.25,0.0,0.0,1.25,1.0,0.0,0.0,0.75,0.5,0.0,0.25,1.0,-2.36,2.27,0.83,0.0,4.7,-9.0
2.64,1.0,0.0,1.75,1.0,0.0,1.75,0.25,1.0,0.5,1.75,1.25,1.25,1.0,-1.42,4.89,2.89,164.72,4.6,-17.0,0.25,0.25,0.0,0.0,1.25,1.0,0.0,0.0,0.75,0.0,0.0,0.25,1.0,-3.17,1.95,1.33,0.0,3.6,-2.2
2.66,1.25,0.25,1.75,0.25,0.0,1.75,0.25,1.25,0.5,1.75,1.25,1.25,1.25,-0.61,5.39,0.64,175.93,3.8,-19.5,0.25,0.25,0.0,0.0,1.25,1.0,0.0,0.0,0.75,0.0,0.25,0.25,1.0,-0.98,1.2,1.02,0.0,2.9,-5.6
2.68,1.25,0.25,1.75,0.25,0.0,1.75,0.25,1.0,0.5,1.75,1.0,1.0,1.0,1.52,5.64,-1.42,181.7,4.4,-14.0,0.5,0.25,0.0,0.0,1.25,0.75,0.0,0.0,0.75,0.0,0.25,0.25,1.0,-0.42,-0.17,-1.42,8.64,0.3,-2.8
2.7,0.75,0.25,2.0,0.0,0.0,0.0,0.25,1.0,0.0,0.25,1.25,1.0,1.0,2.08,3.45,-0.8,167.13,12.8,-19.4,0.25,0.5,0.0,0.0,1.25,1.0,0.0,0.0,0.75,0.0,0.0,0.25,1.25,1.08,-2.17,-3.36,32.94,3.3,-2.5
2.72,1.0,0.25,0.5,0.0,0.0,0.0,0.0,1.0,0.0,1.75,0.0,1.25,1.25,1.14,2.77,0.2,145.44,0.6,-43.0,0.25,0.25,0.0,0.0,1.25,1.0,0.0,0.25,0.5,0.0,0.25,0.25,1.0,0.39,-1.8,-2.8,52.1,4.3,-5.7
2.74,1.0,0.0,0.5,0.0,0.0,0.0,0.0,1.0,0.5,1.5,1.0,1.5,0.5,0.45,2.02,0.64,131.06,4.6,-46.0,0.25,0.0,0.0,0.0,1.25,0.75,0.0,0.0,0.5,0.25,0.25,0.25,0.75,-0.17,-2.67,-0.55,62.3,3.7,-9.9
2.76,1.25,0.25,1.75,0.0,0.0,1.25,0.25,1.0,0.5,1.25,1.0,1.5,1.25,0.39,1.27,0.77,136.66,5.9,-21.5,0.25,0.25,0.0,0.0,1.25,1.0,0.0,0.25,0.25,0.25,0.25,0.25,1.0,0.33,-2.92,0.95,68.09,5.7,-7.5
2.78,1.0,0.0,1.75,0.25,0.0,1.25,0.25,1.0,0.5,0.5,1.25,1.5,1.25,0.45,0.95,0.39,137.46,7.1,-22.5,1.5,0.25,0.0,0.0,1.25,1.25,0.0,0.25,0.75,0.25,0.25,0.25,1.25,-0.05,-0.55,-0.11,82.76,-1.1,4.9
2.8,1.0,0.0,1.75,0.25,0.0,1.0,0.25,1.0,0.5,1.25,1.25,1.5,1.25,0.7,0.95,-0.67,146.93,6.1,-27.5,0.5,0.25,0.0,0.0,1.25,2.0,0.0,0.25,1.0,0.5,0.25,0.25,1.25,1.83,1.02,-0.86,99.17,5.4,-7.8
2.82,1.25,0.0,1.75,0.25,0.0,1.0,0.25,1.25,0.5,1.0,1.25,1.25,1.0,0.77,1.27,-1.36,149.02,7.2,-19.8,0.25,0.0,0.0,0.0,1.25,3.5,0.0,0.0,1.0,1.5,0.5,1.0,1.0,2.14,0.14,-1.48,121.68,8.3,-19.7
2.84,0.5,0.25,1.5,0.5,0.0,1.5,0.25,1.0,0.5,1.75,1.25,1.5,1.25,0.14,1.02,-0.67,153.65,2.5,-29.3,1.75,1.0,0.0,0.5,1.25,3.5,0.0,0.0,1.0,0.0,1.0,0.75,2.0,1.45,-1.42,-0.98,153.34,0.0,4.9
2.86,1.25,0.25,1.75,0.0,0.0,0.0,0.25,1.0,0.0,0.5,1.0,1.25,1.25,-0.11,0.64,0.7,141.43,11.5,-20.9,2.5,0.5,1.25,0.5,2.75,3.5,0.5,1.5,1.0,0.5,0.75,1.0,2.25,0.7,-1.86,-1.61,203.52,-1.7,6.8
2.88,1.25,0.25,1.75,0.25,0.0,1.75,0.25,1.0,0.5,1.75,1.25,1.25,1.25,0.02,0.77,0.77,152.77,4.2,-19.1,2.0,0.5,1.5,0.5,2.25,3.25,0.5,1.5,1.0,0.5,0.75,1.0,2.25,0.83,-1.17,-1.98,236.63,-1.8,3.2
2.9,1.75,0.25,1.75,0.25,0.0,1.75,0.25,1.0,0.5,1.75,1.25,1.5,1.5,0.33,1.14,0.7,165.69,5.0,-18.5,2.0,0.0,1.5,0.5,3.0,3.0,0.5,1.5,1.0,1.5,1.0,1.0,2.25,1.7,-0.67,-1.42,263.67,-0.8,-2.6
2.92,1.25,0.25,1.75,0.25,0.0,1.75,0.25,1.0,0.5,1.75,1.25,1.5,1.25,0.58,0.89,1.2,178.46,4.3,-20.9,2.0,1.0,1.5,0.25,1.25,3.5,0.0,0.0,1.0,1.75,0.25,0.75,2.25,2.45,0.02,-1.61,264.56,-1.5,3.8
2.94,1.75,0.25,1.75,0.25,0.0,0.0,0.25,0.0,0.5,1.75,1.25,1.25,1.5,0.95,-0.36,3.14,175.75,11.5,-22.7,1.25,1.25,1.25,0.0,3.0,3.0,0.5,1.5,1.0,1.5,0.75,0.75,2.0,1.89,0.89,-1.17,268.63,0.7,2.0
2.96,4.5,0.25,1.75,0.0,0.0,0.0,0.0,1.0,0.5,0.5,1.25,1.5,2.0,5.83,-1.55,5.14,181.65,15.2,-2.3,1.75,1.0,1.25,0.0,2.75,3.25,0.5,1.25,1.0,2.0,0.75,0.75,2.25,0.2,0.58,-0.11,269.41,0.6,-0.3
2.98,7.25,0.25,1.75,2.5,0.0,1.5,0.25,1.0,0.5,1.75,2.0,1.75,2.0,5.58,-2.98,2.58,223.83,13.4,11.2,1.75,0.75,1.25,1.25,3.0,3.25,0.5,1.5,1.0,1.5,0.5,0.75,2.0,-0.11,0.45,0.2,276.39,-0.6,7.0
3.0,8.25,0.5,1.0,1.75,0.0,0.5,0.0,0.75,0.5,1.75,1.25,1.5,1.5,1.52,-0.55,4.08,251.1,16.3,20.4,1.75,1.25,1.25,1.5,2.75,3.25,0.5,1.25,1.0,1.5,0.5,0.75,2.0,0.33,0.33,0.27,280.36,-1.4,10.0
3.02,6.5,0.0,1.75,1.5,0.0,1.25,0.0,1.0,0.5,1.75,1.25,1.5,1.75,0.08,0.39,1.58,272.4,13.3,10.4,1.75,1.25,1.25,1.25,3.0,3.5,0.5,1.0,0.75,1.5,0.75,0.75,2.0,1.08,0.08,0.02,282.26,-1.0,10.5
3.04,3.25,0.25,1.75,0.25,0.0,0.75,0.0,0.0,0.5,1.75,1.25,1.5,1.5,-0.23,0.45,2.2,253.66,11.9,-8.3,1.25,1.0,1.25,1.25,1.75,3.25,0.5,1.0,1.0,1.5,0.75,0.75,2.0,1.52,-0.3,-0.11,272.13,-0.8,2.1
3.06,2.25,0.25,1.75,0.25,0.0,1.75,0.0,1.0,0.5,1.75,1.25,1.5,1.75,-1.36,0.33,0.39,234.6,5.4,-16.6,2.0,0.5,1.5,1.25,2.75,3.25,0.5,1.0,1.0,2.0,0.75,1.0,2.25,0.77,-0.48,-0.05,269.27,-1.4,1.9
3.08,2.0,0.25,1.75,0.25,0.0,1.5,0.0,1.0,0.5,1.75,1.25,1.5,1.25,0.14,0.89,0.2,207.56,6.2,-15.9,1.75,0.75,1.25,1.0,2.5,2.75,0.5,1.25,1.0,1.75,0.75,0.75,2.0,0.2,-0.61,0.27,259.82,-1.2,2.4
3.1,1.25,0.25,1.75,0.0,0.0,1.25,0.25,0.75,0.5,1.75,1.0,1.5,1.0,2.83,1.52,0.64,187.33,5.9,-21.5,1.25,1.25,1.25,2.0,3.0,2.75,0.5,1.0,1.0,1.75,0.5,0.75,2.0,0.39,-0.73,0.33,260.29,-1.6,8.8
3.12,1.0,0.25,1.75,0.5,0.0,1.75,0.0,1.0,0.5,1.75,1.25,1.5,1.25,3.33,0.77,1.45,174.73,3.7,-22.0,1.5,1.0,1.25,1.25,2.5,2.0,0.5,0.75,1.0,2.0,0.5,0.75,2.0,0.64,-0.92,0.52,253.56,-2.3,3.2
3.14,1.25,0.25,1.75,1.0,0.0,1.0,0.25,1.0,0.5,1.75,1.0,1.5,1.25,2.14,0.08,1.45,169.49,6.5,-18.0,1.25,1.25,1.25,1.5,2.75,2.75,0.5,1.0,1.0,1.75,0.75,1.0,2.25,0.83,-0.98,0.27,256.56,-1.2,2.5
3.16,0.75,0.25,1.25,0.0,0.0,1.25,0.0,1.0,0.5,1.75,1.25,1.25,1.0,1.2,0.08,1.58,157.69,2.1,-31.3,1.25,1.5,1.25,1.25,3.25,3.25,0.5,0.75,1.0,1.75,0.5,0.75,2.25,1.2,-0.98,-0.17,259.15,-0.4,8.3
3.18,0.5,0.25,1.5,0.25,0.0,0.0,0.25,1.0,0.25,0.5,0.0,0.0,0.0,1.45,0.39,1.89,119.7,14.8,22.2,1.0,0.5,1.25,1.75,2.75,3.25,0.5,0.75,1.0,2.0,0.75,0.25,2.0,0.89,-0.67,-0.11,256.05,0.1,4.5
3.2,1.25,0.25,1.75,1.0,0.0,1.0,0.25,1.0,0.5,1.75,1.25,1.25,1.0,2.33,0.33,2.2,118.05,7.0,-15.3,1.75,1.0,1.25,0.75,2.75,2.75,0.5,0.5,1.0,1.75,0.5,0.5,1.75,0.52,-0.48,-0.23,248.99,-1.9,10.2
3.22,1.0,0.0,1.75,1.0,0.0,1.25,0.25,1.0,0.5,1.75,1.25,1.5,1.25,1.95,0.2,1.58,121.65,5.4,-22.8,2.0,0.75,1.25,1.5,2.25,3.0,0.5,0.75,1.0,1.5,0.5,0.75,2.0,0.39,-0.3,-0.36,245.38,-2.5,8.2
3.24,1.25,0.25,1.75,1.25,0.0,1.25,0.25,1.0,0.5,1.5,1.25,1.25,1.25,0.89,0.08,0.2,147.13,6.7,-13.6,1.5,1.0,1.25,1.5,2.5,3.0,0.5,0.75,1.0,1.5,0.5,0.75,2.0,0.2,-0.17,-0.55,243.72,-1.7,7.9
3.26,1.0,0.25,1.75,1.0,0.0,1.0,0.25,1.0,0.5,1.5,1.25,1.25,1.25,0.77,0.08,0.14,159.94,6.5,-18.3,1.75,1.0,1.25,1.0,2.5,3.25,0.5,0.25,1.0,2.0,0.75,0.75,2.0,0.2,-0.17,-0.73,244.95,-1.5,5.8
3.28,1.0,0.25,1.75,1.0,0.0,1.0,0.25,1.0,0.5,1.75,1.25,1.25,1.25,1.08,0.14,0.33,171.65,6.0,-19.5,1.5,0.75,1.25,1.5,3.0,2.75,0.5,1.0,1.0,1.75,0.5,0.75,2.25,0.2,-0.11,-0.67,249.82,-1.0,4.4
3.3,0.75,0.0,1.75,0.5,0.0,1.0,0.25,1.0,0.5,1.75,1.25,1.25,1.25,1.14,0.08,0.52,165.63,4.7,-28.4,1.75,1.0,1.25,1.25,3.0,3.0,0.5,0.75,1.0,1.75,0.5,0.75,1.75,-0.05,0.02,-0.67,251.8,-1.7,10.3
3.32,1.25,0.0,1.5,0.25,0.0,1.5,0.0,1.0,0.5,1.75,1.0,1.0,1.25,0.89,-0.11,0.45,161.92,3.2,-22.2,1.75,1.0,1.5,1.25,2.75,2.75,0.5,0.5,1.0,1.75,0.5,0.5,2.0,-0.23,0.02,-0.61,252.33,-2.6,10.6
3.34,1.0,0.25,1.75,0.75,0.0,1.0,0.25,1.0,0.5,1.75,1.25,1.0,1.25,0.58,-0.05,0.45,162.9,5.7,-19.3,1.5,1.25,1.25,1.5,2.5,2.5,0.5,0.75,0.75,2.0,0.75,0.75,1.75,-0.42,0.14,-0.55,250.48,-2.2,7.4
3.36,1.0,0.25,1.75,0.75,0.0,1.25,0.25,1.0,0.5,1.75,1.25,1.25,1.25,0.2,0.02,0.33,165.9,5.2,-20.1,1.5,0.75,1.25,1.5,3.0,3.25,0.5,0.5,1.0,1.75,0.5,0.75,1.75,-0.48,0.08,-0.48,251.01,-1.3,9.6
3.38,1.0,0.25,1.75,0.25,0.0,1.0,0.25,1.0,0.5,1.75,1.25,1.0,1.0,-0.3,-0.17,0.14,164.98,5.6,-20.9,1.5,1.0,1.25,1.25,2.5,2.75,0.5,0.75,1.0,1.5,0.5,0.75,1.75,-0.61,0.14,-0.48,245.89,-2.0,8.6
3.4,1.25,0.25,1.75,0.25,0.0,1.75,0.25,1.0,0.5,1.75,1.0,1.25,1.25,-0.42,-0.36,-0.05,169.6,4.1,-18.0,1.5,1.0,1.25,1.0,2.5,2.75,0.5,1.0,1.0,1.5,0.75,0.25,2.0,-0.61,0.08,-0.48,242.98,-1.2,7.6
3.42,1.0,0.25,1.75,0.5,0.0,1.25,0.25,1.0,0.5,1.75,1.25,1.0,1.0,-0.36,-0.67,-0.17,167.8,5.3,-17.9,1.25,0.75,1.25,1.5,1.75,3.25,0.5,0.75,1.0,1.75,0.75,0.5,1.5,-0.55,0.14,-0.55,238.11,-1.2,6.1
3.44,1.0,0.25,1.75,0.75,0.0,1.0,0.25,1.0,0.5,1.75,1.0,1.25,1.0,-0.11,-0.98,-0.23,162.12,6.1,-18.0,1.75,1.0,1.25,1.0,2.25,2.75,0.5,1.0,1.0,1.75,0.5,0.75,1.75,-0.48,0.14,-0.55,237.11,-1.8,6.4
3.46,1.0,0.25,1.75,0.5,0.0,1.5,0.25,1.0,0.5,1.5,1.0,1.25,1.25,0.08,-0.98,-0.23,161.94,4.7,-18.4,1.5,1.0,1.25,1.25,2.75,2.75,0.5,0.5,1.0,1.75,0.5,0.5,1.75,-0.55,0.14,-0.55,235.89,-1.9,10.5
3.48,0.75,0.0,1.75,0.25,0.75,1.25,0.0,1.25,0.5,1.75,1.25,1.25,1.25,0.2,-0.92,-0.3,165.05,2.6,-23.9,1.5,1.0,1.25,1.5,2.5,3.25,0.5,0.75,1.0,1.75,0.5,0.75,1.75,-0.48,0.08,-0.55,240.87,-1.4,8.8
3.5,1.0,0.0,1.0,0.75,0.0,1.25,0.25,1.0,0.5,1.75,1.25,1.5,1.0,0.14,-0.8,-0.42,163.15,3.3,-28.5,2.5,1.0,1.25,1.25,2.5,3.25,0.5,1.0,1.0,1.5,0.5,0.5,1.75,-0.42,0.08,-0.67,247.2,-2.7,14.7
3.52,1.0,0.25,1.75,1.25,0.0,1.0,0.25,1.0,0.5,1.75,1.25,1.5,1.25,0.08,-0.61,-0.61,168.45,6.3,-19.7,1.0,1.25,1.25,1.25,2.75,3.5,0.5,1.0,1.0,1.75,0.5,0.5,2.0,-0.23,-0.05,-0.67,251.65,0.4,7.4
3.54,1.0,0.25,1.75,0.75,0.0,1.0,0.25,1.0,0.5,1.75,1.0,1.25,1.25,0.02,-0.17,-0.73,168.52,5.7,-20.1,2.0,0.75,1.25,0.5,2.5,3.25,0.5,0.75,1.0,2.0,0.5,0.5,2.0,-0.05,-0.11,-0.61,250.79,-0.6,5.6
3.56,1.0,0.25,1.75,0.5,0.0,1.25,0.25,1.0,0.5,1.75,1.25,1.0,1.0,-0.05,0.02,-0.86,167.54,5.3,-17.9,1.5,1.0,1.25,1.25,2.5,3.5,0.5,1.0,1.0,2.0,0.5,0.75,1.75,0.14,-0.23,-0.55,252.87,-0.4,6.6
3.58,0.75,0.0,1.75,0.5,0.0,1.0,0.25,1.0,0.5,1.75,1.25,1.5,1.25,-0.17,0.14,-0.98,164.06,4.8,-30.2,1.5,0.75,1.25,1.5,2.75,3.0,0.5,0.75,1.0,2.25,0.5,0.75,1.75,0.27,-0.36,-0.42,253.3,-1.0,5.6
3.6,0.75,0.0,1.75,0.5,0.0,1.0,0.25,1.0,0.5,1.75,1.25,1.25,1.25,-0.36,0.33,-1.11,161.24,4.7,-28.4,1.5,1.0,1.25,0.0,2.75,1.0,0.5,0.75,0.25,0.0,0.75,0.0,2.25,0.39,-0.48,-0.42,230.7,-4.4,14.7
3.62,0.75,0.0,1.75,0.5,0.0,1.0,0.25,1.0,0.5,1.75,1.25,1.5,1.0,-0.55,0.39,-1.11,158.72,5.3,-28.3,0.25,0.5,0.0,0.0,1.25,0.75,0.0,0.0,0.25,0.25,0.0,0.25,0.75,0.52,-0.48,-0.67,173.51,3.5,7.8
3.64,1.0,0.0,1.75,0.0,0.0,0.75,0.0,1.25,0.25,1.75,1.5,1.25,1.25,-0.73,0.39,-1.23,155.32,4.6,-33.0,0.0,0.25,0.0,0.0,1.25,1.25,0.25,0.0,0.5,0.0,0.0,0.25,0.75,0.58,-0.36,-0.86,114.55,5.9,3.3
3.66,1.0,0.25,1.75,0.5,0.0,1.0,0.0,0.75,0.5,1.5,1.0,1.25,1.0,-0.8,0.33,-1.17,153.01,6.6,-18.6,0.75,0.25,0.0,0.0,1.25,1.0,0.25,0.0,0.25,0.25,0.0,0.25,0.75,0.45,-0.23,-0.92,68.68,0.8,13.3
3.68,0.75,0.0,1.75,0.25,0.0,1.0,0.25,1.0,0.5,1.75,1.0,1.0,1.0,-0.42,0.14,-0.86,148.02,4.6,-25.4,0.0,0.25,0.0,0.0,1.25,0.75,0.5,0.0,0.5,0.25,0.25,0.25,1.0,0.33,-0.05,-0.98,43.49,3.4,-12.8
3.7,1.0,0.0,1.75,0.25,0.0,1.0,0.25,1.0,0.5,1.75,1.25,1.25,1.25,-0.3,0.08,-0.8,148.54,5.1,-27.8,0.25,0.75,0.0,0.0,1.25,1.0,0.25,0.0,0.25,0.5,0.25,0.25,0.75,0.2,0.14,-0.98,39.11,2.7,6.2
3.72,1.0,0.25,1.75,0.5,0.0,1.0,0.25,1.0,0.5,1.75,1.25,1.25,1.0,-0.11,0.02,-0.73,151.52,6.0,-21.0,1.5,1.25,1.25,1.5,2.5,3.25,0.5,1.25,1.0,2.0,0.5,0.5,1.75,0.08,0.2,-1.05,112.39,-0.7,9.2
3.74,0.75,0.25,1.75,0.25,0.0,1.25,0.25,1.0,0.5,1.75,1.25,1.0,1.25,0.08,-0.05,-0.55,154.5,3.9,-24.3,1.25,1.25,1.25,1.0,2.75,2.25,0.5,1.0,1.0,0.75,0.5,0.75,1.75,0.14,0.33,-1.11,162.77,-2.7,11.2
3.76,1.0,0.25,1.75,0.75,0.0,1.5,0.25,1.0,0.5,1.75,1.25,1.0,1.25,0.33,-0.11,-0.42,160.64,4.6,-17.2,2.0,1.0,1.5,1.25,2.5,3.0,0.5,1.0,1.0,1.75,0.5,0.5,2.0,0.33,0.39,-1.11,216.48,-2.3,10.0
3.78,0.75,0.25,1.5,0.0,0.0,1.0,0.5,0.5,0.25,1.75,1.0,1.0,1.25,0.33,-0.11,-0.3,154.32,4.4,-27.3,1.5,0.75,1.25,1.0,2.75,2.75,0.5,1.25,1.0,1.75,0.5,0.5,1.75,0.64,0.39,-1.05,239.32,-0.7,6.3
3.8,0.75,0.25,1.5,0.25,0.0,1.0,0.25,1.0,0.5,1.5,1.25,1.0,1.0,0.27,-0.17,-0.23,150.17,4.6,-24.4,1.5,1.0,1.25,1.5,3.0,2.75,0.5,1.0,0.75,1.75,0.75,0.75,1.75,1.02,0.27,-1.11,258.61,-1.6,8.4
3.82,0.75,0.0,1.5,0.25,0.0,1.0,0.25,1.0,0.25,1.25,1.25,1.0,1.0,0.39,-0.23,0.08,140.78,4.8,-26.1,2.5,1.25,1.25,1.25,2.5,3.5,0.5,0.75,1.0,1.75,0.75,0.5,2.0,1.33,0.2,-1.23,271.34,-2.4,12.8
3.84,0.75,0.25,1.5,0.25,0.0,1.0,0.25,1.0,0.25,1.5,1.0,1.0,1.0,0.39,-0.36,0.2,137.73,4.3,-22.8,1.75,0.5,1.25,1.25,2.75,3.25,0.5,1.0,1.0,1.5,0.5,0.5,1.75,1.52,0.08,-1.23,279.18,-1.0,9.5
3.86,0.75,0.25,1.5,0.5,0.0,1.0,0.25,1.0,0.25,1.5,1.25,1.0,1.0,0.45,-0.55,0.27,137.2,4.8,-21.9,1.5,1.25,1.25,1.0,2.75,3.0,0.5,0.75,1.0,1.75,0.5,0.25,1.5,1.27,0.02,-0.98,280.18,-1.3,14.3
3.88,0.75,0.25,1.5,0.25,0.0,1.0,0.25,1.0,0.25,1.5,1.25,1.0,1.0,0.58,-0.73,0.39,138.57,4.4,-24.1,1.25,0.75,1.25,1.25,3.25,2.75,0.5,0.75,1.0,1.5,0.5,0.5,1.75,1.08,-0.11,-0.73,272.09,-1.1,10.0
3.9,0.5,0.25,1.5,0.25,0.0,1.0,0.25,1.0,0.25,1.5,1.25,1.0,1.0,0.58,-0.8,0.33,137.86,3.7,-27.0,1.5,0.75,1.25,1.5,2.5,3.0,0.5,0.5,1.0,1.5,0.75,0.75,1.75,1.02,-0.17,-0.67,264.54,-2.2,7.8
3.92,0.75,0.25,1.5,0.75,0.0,1.0,0.25,1.0,0.25,1.5,1.25,0.5,1.0,0.7,-0.86,0.33,138.32,4.9,-15.4,1.75,1.0,1.25,1.5,3.5,3.25,0.5,0.5,1.0,1.25,0.5,0.5,2.25,0.83,-0.3,-0.55,263.81,-1.7,13.8
3.94,0.0,0.0,1.0,1.0,0.0,1.0,0.25,1.0,0.25,1.25,1.25,0.75,1.0,0.89,-0.92,0.52,132.49,1.3,-31.3,2.25,1.25,1.25,1.25,3.0,3.25,0.5,0.5,1.0,1.0,0.75,0.75,2.0,0.7,-0.61,-0.48,262.76,-3.2,15.3
3.96,0.0,0.25,1.5,0.0,0.0,0.5,0.25,1.0,0.5,0.5,1.25,0.0,0.5,1.14,-0.98,0.89,116.29,7.0,-17.0,1.5,0.75,1.25,1.25,3.0,2.75,0.5,1.0,1.0,1.75,0.5,0.75,1.5,0.64,-0.61,-0.42,254.95,-1.4,8.6
3.98,0.75,0.25,0.0,0.25,0.0,0.5,0.25,1.0,0.5,0.5,1.25,0.0,1.0,1.14,-1.05,0.83,100.63,0.9,-28.3,2.0,0.75,1.25,0.75,3.0,3.0,0.5,0.75,1.0,1.75,0.75,0.75,1.75,0.7,-0.48,-0.48,254.62,-1.7,7.6
4.0,0.0,0.25,0.0,0.25,0.0,1.0,0.0,1.0,0.5,1.25,0.25,1.25,0.25,1.08,-1.11,0.64,88.92,-5.7,-44.1,2.0,1.0,1.25,1.75,3.0,3.5,0.5,1.0,1.0,2.0,0.75,0.5,2.0,0.7,-0.36,-0.55,260.71,-1.3,10.3
4.02,0.5,0.0,1.5,0.25,0.0,1.5,0.25,1.0,0.25,1.5,1.25,1.0,1.0,1.02,-1.05,0.7,101.84,2.2,-27.4,1.5,1.25,1.25,1.5,2.5,3.25,0.5,1.0,1.0,2.0,0.5,0.75,1.75,0.77,-0.36,-0.61,262.42,-1.0,8.3
4.04,0.75,0.0,1.5,0.25,0.0,0.75,0.25,1.0,0.25,1.5,1.25,1.25,1.25,0.83,-1.05,0.77,116.07,4.5,-33.1,2.25,0.75,1.25,1.25,2.75,3.25,0.5,1.0,1.0,1.5,0.5,0.5,2.0,0.89,-0.42,-0.55,262.89,-1.9,11.3
4.06,0.75,0.25,1.5,0.25,0.0,1.0,0.25,1.0,0.25,1.5,1.25,1.0,1.25,0.77,-0.98,0.77,132.16,4.0,-26.2,1.25,0.25,1.25,1.25,2.5,3.25,0.5,0.5,1.0,1.25,0.5,0.5,1.75,0.89,-0.48,-0.42,250.48,-0.8,7.5
4.08,0.5,0.25,1.5,0.75,0.0,1.0,0.25,1.0,0.25,1.5,1.25,1.0,1.0,0.7,-0.98,0.7,140.5,4.4,-22.6,1.5,1.0,1.25,1.25,2.5,2.75,0.5,1.0,1.0,1.5,0.5,0.25,1.5,0.83,-0.48,-0.42,243.4,-1.8,13.2
4.1,0.5,0.25,1.5,0.25,0.0,1.5,0.25,1.5,0.5,1.25,1.25,1.25,1.0,0.83,-0.98,0.89,148.11,2.4,-25.9,1.5,1.0,1.25,1.5,2.5,3.5,0.5,1.0,1.0,1.5,0.5,0.75,2.0,0.7,-0.48,-0.42,242.31,-0.8,7.9
4.12,0.5,0.0,2.25,1.0,0.0,1.0,0.0,0.5,0.25,1.5,1.0,1.25,1.0,0.89,-0.98,0.89,151.08,7.7,-18.0,1.25,0.75,1.25,1.5,3.0,2.75,0.5,1.0,0.75,2.0,0.75,0.5,2.25,0.52,-0.48,-0.36,245.73,-0.2,3.1
4.14,0.75,0.0,1.5,0.75,0.0,1.0,0.25,1.0,0.25,1.5,1.25,1.0,1.0,0.83,-0.98,0.83,152.55,4.9,-22.9,1.25,0.75,1.25,1.5,2.5,3.0,0.5,1.0,1.0,1.75,0.5,0.75,1.75,0.52,-0.42,-0.42,246.41,-0.8,5.2
4.16,0.75,0.25,1.5,0.5,0.0,1.0,0.25,1.0,0.25,1.5,1.0,1.25,1.0,0.7,-1.11,0.89,153.02,4.7,-22.8,1.5,0.75,1.25,1.25,2.75,2.75,0.5,0.75,1.0,1.75,0.5,0.5,1.75,0.64,-0.48,-0.42,243.77,-1.4,8.4
4.18,0.75,0.0,1.5,1.0,0.0,1.0,0.25,1.0,0.25,1.5,1.25,1.25,1.25,0.64,-1.05,0.89,156.81,4.8,-25.0,1.5,1.25,1.25,1.5,3.0,2.75,0.5,1.0,1.0,1.75,0.5,0.75,2.0,0.7,-0.48,-0.48,248.31,-1.5,8.5
4.2,0.75,0.0,1.5,0.75,0.0,1.0,0.25,1.0,0.5,1.5,1.0,1.25,1.0,0.58,-0.98,0.77,157.22,5.0,-24.2,1.25,0.75,1.25,1.25,2.75,2.0,0.5,1.0,1.0,2.0,0.75,0.75,1.75,0.83,-0.48,-0.42,244.56,-1.7,1.3
4.22,0.75,0.25,1.5,0.5,0.0,1.0,0.25,1.0,0.25,1.5,1.25,1.0,1.0,0.89,-0.73,0.89,154.8,4.8,-21.9,1.5,1.0,1.25,1.5,2.5,3.0,0.5,0.75,1.0,1.5,0.75,0.5,2.0,0.83,-0.42,-0.48,245.43,-1.7,8.4
4.24,0.5,0.0,1.5,0.5,0.0,1.5,0.25,1.0,0.25,1.5,1.25,1.0,1.0,1.27,-0.73,1.02,150.45,2.6,-25.2,1.0,0.75,1.25,1.25,2.75,3.0,0.5,0.75,1.0,1.5,0.75,0.75,1.75,0.89,-0.48,-0.67,241.56,-0.7,4.7
4.26,0.75,0.0,1.5,0.5,0.0,0.5,0.0,1.0,0.5,2.0,1.5,1.0,1.25,1.39,-0.73,1.08,148.58,4.4,-34.3,1.5,0.75,1.25,1.25,2.5,3.0,0.5,0.75,1.0,1.0,0.75,0.5,2.0,1.02,-0.48,-0.73,240.66,-1.8,8.8
4.28,0.75,0.25,1.5,0.75,0.0,1.0,0.0,1.25,0.25,1.5,1.25,1.25,1.0,1.45,-0.67,1.08,149.95,4.4,-23.0,2.0,0.75,1.25,1.25,2.5,3.25,0.5,0.25,1.0,1.5,0.5,0.5,2.0,0.89,-0.55,-0.67,239.85,-2.3,11.6
4.3,0.75,0.0,1.5,0.5,0.0,1.5,0.25,1.0,0.25,1.25,1.25,1.25,1.25,1.2,-0.55,0.89,151.13,3.5,-25.3,1.75,1.0,1.25,1.5,2.75,2.75,0.5,0.5,1.0,1.0,0.75,0.5,1.75,0.7,-0.55,-0.55,241.12,-3.5,15.0
4.32,0.75,0.0,1.5,0.25,0.0,1.0,0.25,1.0,0.25,1.5,1.25,1.0,1.0,0.83,-0.67,0.83,146.95,4.2,-27.4,1.75,1.25,1.25,1.5,2.75,2.75,0.5,0.25,1.0,1.25,0.75,0.5,2.0,0.58,-0.61,-0.42,242.44,-3.4,13.9
