time,left pressure 0[N/cm虏],left pressure 1[N/cm虏],left pressure 2[N/cm虏],left pressure 3[N/cm虏],left pressure 4[N/cm虏],left pressure 5[N/cm虏],left pressure 6[N/cm虏],left pressure 7[N/cm虏],left pressure 8[N/cm虏],left pressure 9[N/cm虏],left pressure 10[N/cm虏],left pressure 11[N/cm虏],left pressure 12[N/cm虏],left acceleration X[g],left acceleration Y[g],left acceleration Z[g],left total force[N],left center of pressure X[mm],left center of pressure Y[mm],right pressure 0[N/cm虏],right pressure 1[N/cm虏],right pressure 2[N/cm虏],right pressure 3[N/cm虏],right pressure 4[N/cm虏],right pressure 5[N/cm虏],right pressure 6[N/cm虏],right pressure 7[N/cm虏],right pressure 8[N/cm虏],right pressure 9[N/cm虏],right pressure 10[N/cm虏],right pressure 11[N/cm虏],right pressure 12[N/cm虏],right acceleration X[g],right acceleration Y[g],right acceleration Z[g],right total force[N],right center of pressure X[mm],right center of pressure Y[mm]
0.02,3.75,0.75,5.75,4.75,6.0,5.75,4.5,6.75,7.75,4.25,4.5,1.75,2.75,-0.11,0.08,0.95,832.92,5.3,-0.4,1.0,0.5,0.5,0.0,1.5,3.0,0.75,4.75,3.0,7.25,5.25,6.0,7.75,-0.11,0.27,1.02,434.58,3.8,-58.4
0.04,4.25,1.25,6.25,5.25,7.0,5.75,4.5,6.5,7.5,3.5,4.0,1.75,2.75,-0.11,0.08,0.95,871.21,6.1,5.2,1.25,0.5,1.25,1.0,1.25,3.0,0.5,5.0,3.0,7.75,5.75,5.75,7.75,0.02,0.14,0.95,570.75,2.6,-53.6
0.06,5.5,1.5,7.0,6.25,8.0,5.75,4.75,6.5,7.5,3.0,4.0,1.5,2.75,-0.11,0.08,0.95,939.51,7.3,10.9,1.25,0.5,1.5,1.0,1.0,3.0,0.0,5.75,3.25,8.0,5.5,6.0,8.0,0.08,0.14,0.95,694.52,2.8,-54.4
0.08,6.0,1.5,7.75,6.75,8.0,6.5,5.0,6.5,7.0,2.25,3.25,1.5,2.75,-0.11,0.08,0.95,1002.97,7.8,15.3,1.25,0.5,1.5,1.0,1.0,3.0,0.5,5.75,3.5,8.0,5.75,5.75,8.0,0.08,0.14,0.95,763.02,2.6,-53.7
0.1,7.25,1.25,8.0,7.75,9.5,7.0,5.25,5.75,6.75,2.25,3.0,1.5,2.5,-0.11,0.08,0.95,1077.83,8.4,20.0,1.25,0.5,1.25,1.0,1.5,3.25,0.5,5.75,3.5,8.25,5.75,5.75,8.0,0.08,0.14,0.95,804.87,3.0,-52.6
0.12,8.25,1.75,8.75,9.0,12.0,7.5,5.5,5.75,6.0,2.0,2.75,1.5,2.25,-0.11,0.08,0.95,1180.44,8.8,25.9,1.25,0.5,0.75,1.0,1.75,3.0,0.75,6.25,3.75,8.0,5.75,5.75,8.0,0.08,0.14,0.95,817.23,3.2,-53.1
0.14,9.5,2.25,9.75,11.0,13.5,8.0,5.5,5.5,5.25,2.0,2.5,1.0,2.25,-0.11,0.14,1.02,1308.07,9.4,31.6,1.25,0.5,1.0,1.0,2.25,3.25,1.0,6.5,3.75,8.0,5.75,5.75,8.0,0.08,0.14,0.95,829.36,3.1,-50.5
0.16,11.5,2.25,10.5,13.0,15.0,8.0,5.0,4.5,4.75,1.75,2.0,1.0,2.25,-0.11,0.14,1.08,1412.81,10.5,36.8,1.5,0.5,2.0,1.0,1.5,4.0,1.0,6.5,3.75,8.0,5.75,5.5,8.0,0.08,0.14,0.95,833.02,2.4,-47.7
0.18,12.5,1.75,11.5,14.5,16.0,7.5,4.25,4.25,4.25,2.0,2.0,1.0,2.0,-0.11,0.14,1.2,1508.36,11.2,38.9,1.5,0.5,1.5,1.25,2.5,4.0,1.0,6.5,4.25,7.75,5.75,5.0,7.5,0.08,0.14,0.95,816.25,2.5,-44.4
0.2,13.0,3.25,11.5,14.0,16.0,7.25,2.0,4.25,4.0,1.75,2.0,0.5,2.0,-0.17,0.2,1.2,1570.23,11.2,41.8,1.25,0.5,1.75,1.25,2.5,5.25,1.0,6.5,4.5,7.25,5.25,4.25,7.0,0.08,0.14,0.95,788.26,3.0,-40.2
0.22,16.0,3.25,12.5,13.5,14.5,6.25,0.75,4.0,3.5,2.0,2.0,0.75,2.0,-0.17,0.2,1.27,1598.95,12.9,43.7,1.75,0.75,1.75,1.5,3.75,5.25,1.25,6.5,4.5,7.25,4.75,3.75,6.5,0.08,0.14,0.95,749.38,2.5,-32.8
0.24,16.5,3.25,12.5,12.5,13.0,5.75,0.0,3.0,2.75,2.0,2.0,0.75,2.0,-0.17,0.33,1.33,1573.81,13.8,45.6,1.5,0.75,1.75,2.5,4.75,5.75,1.25,7.0,5.0,6.75,4.75,2.75,6.0,0.08,0.14,0.95,727.69,2.4,-26.3
0.26,16.0,3.25,11.5,10.5,10.0,5.0,0.0,2.5,2.25,2.0,0.5,0.25,1.75,-0.17,0.45,1.52,1472.62,14.9,50.0,2.0,0.75,2.25,2.5,4.75,6.0,1.5,7.0,5.0,6.0,4.5,2.25,5.0,0.08,0.14,0.95,704.2,1.4,-20.2
0.28,14.5,3.25,10.5,9.5,8.5,3.75,0.75,2.5,1.75,2.0,1.75,0.0,1.75,-0.61,0.7,1.83,1336.29,15.3,47.6,2.0,1.25,2.5,3.0,5.0,6.25,1.75,7.0,5.0,5.5,3.75,2.0,4.0,0.08,0.14,0.95,698.13,0.7,-13.1
0.3,11.5,3.0,9.25,7.75,7.75,3.75,0.75,2.5,1.5,1.25,1.75,0.5,1.75,-0.8,0.95,2.02,1122.38,14.4,44.6,2.0,1.25,2.75,3.75,6.0,6.75,1.75,7.25,5.0,5.0,3.75,1.5,3.25,0.08,0.14,0.95,704.62,0.3,-6.6
0.32,8.0,1.5,7.75,5.0,6.0,1.75,0.25,1.5,0.75,0.25,1.25,0.0,1.5,-0.86,0.95,2.14,829.64,16.3,48.0,2.5,1.25,3.0,4.0,6.75,7.25,1.75,7.25,5.0,3.5,3.75,1.25,2.75,0.08,0.14,0.95,715.95,-0.5,0.0
0.34,6.25,0.0,4.0,0.0,3.0,0.0,0.0,0.25,0.75,0.0,0.25,0.0,0.75,-0.61,0.83,2.33,482.6,22.5,56.1,2.75,1.5,3.5,5.75,6.75,7.5,1.75,7.0,4.5,3.25,2.75,1.0,2.25,0.08,0.14,0.95,732.95,-1.6,8.0
0.36,2.75,0.0,2.5,0.0,2.25,0.0,0.0,0.25,0.75,0.0,0.0,0.0,0.75,-0.61,-0.36,1.7,247.25,18.3,44.6,3.25,2.0,4.0,7.5,8.25,7.75,2.0,6.75,4.25,3.5,2.75,1.0,2.0,0.08,0.14,0.95,783.65,-2.7,13.9
0.38,0.5,0.0,0.75,0.0,0.0,1.5,0.0,0.0,1.0,1.75,0.0,0.25,0.5,-0.11,-0.36,0.95,55.46,-1.1,-18.3,3.75,2.0,4.5,9.25,8.75,7.75,2.0,6.5,3.5,3.25,2.0,1.25,1.5,0.08,0.14,0.95,840.43,-3.8,20.0
0.4,1.0,0.0,2.5,0.75,2.5,1.25,0.5,0.0,1.0,1.25,0.75,0.25,1.75,-0.67,-0.8,2.02,0.0,6.8,6.0,5.0,2.0,4.5,11.0,9.5,8.25,1.75,6.25,2.5,2.75,1.75,1.0,1.5,0.08,0.2,0.95,908.76,-4.5,26.3
0.42,0.0,0.0,1.25,0.0,1.75,0.25,0.0,0.0,0.5,0.0,0.0,0.0,0.5,-0.61,-0.86,1.45,0.0,7.9,26.1,6.0,2.5,5.25,13.0,11.0,8.75,1.75,5.75,1.75,2.0,1.75,1.0,1.5,0.08,0.14,0.95,997.74,-5.8,32.8
0.44,0.0,0.0,1.25,0.0,1.75,0.25,0.0,0.0,0.5,0.0,0.0,0.0,0.75,-0.55,-0.55,0.52,0.0,6.7,18.9,7.0,2.75,5.75,14.5,12.5,9.0,1.5,5.25,1.0,2.25,1.5,0.75,0.5,0.02,0.2,1.02,1095.51,-6.6,39.5
0.46,0.25,0.0,1.25,0.0,1.75,0.0,0.0,0.0,0.5,0.0,0.0,0.0,0.5,-0.55,-0.42,0.39,0.0,10.9,29.4,7.75,3.0,6.25,0.0,13.5,9.0,1.25,4.5,1.0,1.0,1.5,0.25,0.75,0.02,0.2,1.08,1045.45,-4.7,40.4
0.48,1.0,0.0,2.0,0.0,3.0,0.0,0.75,0.25,0.5,0.5,0.75,0.0,1.25,-0.42,-0.3,0.64,0.0,9.5,14.8,8.5,2.5,6.5,9.0,15.0,8.25,1.25,3.5,0.5,0.0,1.5,0.0,1.25,0.08,0.27,1.2,1052.24,-7.7,47.2
0.5,0.25,0.0,0.5,1.5,1.75,1.25,0.0,0.25,1.0,1.5,0.0,0.0,0.5,-0.3,-0.23,0.83,0.0,-0.1,8.6,8.5,2.75,7.5,14.5,15.0,7.75,1.0,3.0,0.25,0.5,1.25,0.0,0.5,0.2,0.33,1.2,1083.69,-9.5,51.1
0.52,0.0,0.0,1.25,0.0,1.75,0.0,0.25,0.0,0.75,0.25,0.5,0.25,0.5,-0.23,-0.17,1.02,0.0,9.1,3.9,9.0,3.0,7.75,13.0,12.0,7.25,0.75,2.0,0.5,1.0,0.0,0.0,0.5,0.14,0.39,1.33,1091.5,-10.8,54.3
0.54,1.0,0.0,2.25,1.25,2.25,0.0,0.75,0.0,0.5,0.5,0.5,0.0,1.5,-0.23,-0.05,1.08,58.99,12.2,18.4,9.75,3.75,8.5,13.0,11.0,6.25,2.25,1.0,0.5,1.25,1.5,0.25,1.0,0.2,0.52,1.58,1101.69,-12.6,51.3
0.56,0.0,0.0,1.5,0.0,1.75,0.0,0.0,0.0,0.5,0.0,0.0,0.0,0.5,-0.23,0.08,1.2,77.84,11.2,27.7,9.25,3.5,8.25,9.75,8.5,5.75,3.5,1.75,0.5,1.0,1.25,0.75,1.0,0.52,0.89,2.08,1048.0,-13.1,48.4
0.58,0.0,0.0,2.25,1.0,2.5,1.25,0.75,0.25,1.0,0.0,0.5,0.0,1.0,-0.3,0.14,1.33,119.97,7.6,19.8,8.25,2.5,7.25,7.5,6.75,5.0,3.75,1.0,0.0,1.0,1.25,0.75,0.5,0.77,1.39,2.45,912.95,-14.1,49.6
0.6,0.25,0.0,2.25,0.0,1.25,0.0,0.25,0.0,0.5,1.0,0.5,0.25,1.0,-0.36,0.33,1.64,120.15,10.7,-3.6,7.0,2.0,5.0,4.0,5.0,3.0,2.25,1.0,0.5,1.0,0.75,0.5,0.5,0.52,1.08,2.52,693.45,-14.2,48.2
0.62,1.0,0.0,1.75,1.0,1.25,1.25,0.25,0.25,1.0,1.0,0.75,0.0,1.25,-0.42,0.45,2.02,142.53,6.8,5.8,5.25,0.5,4.0,2.5,4.75,2.5,1.25,0.75,0.5,1.0,1.0,0.25,0.5,0.45,0.2,2.7,489.95,-12.6,42.4
0.64,1.0,0.0,2.25,1.25,2.25,1.25,0.5,0.5,1.0,1.25,0.5,0.25,1.0,-0.61,0.89,2.33,159.75,7.1,12.6,1.0,0.5,2.25,2.5,2.25,1.75,0.75,0.25,0.5,0.25,1.25,0.25,0.0,0.45,-0.55,-0.17,298.73,-11.2,35.2
0.66,0.75,0.0,1.75,1.0,2.25,1.25,0.5,0.25,1.0,0.0,0.75,0.0,1.25,-0.73,1.83,2.77,178.17,7.5,16.7,0.75,0.5,1.75,2.25,2.5,0.75,0.75,0.5,0.5,1.0,0.75,1.0,0.75,0.39,0.08,1.33,192.4,-8.2,13.8
0.68,0.75,0.0,2.25,1.0,1.25,1.25,0.75,0.25,0.75,2.0,0.75,0.75,0.75,-0.17,3.64,1.58,185.37,7.1,-1.0,1.0,0.5,1.75,2.0,2.5,1.5,0.75,0.5,0.5,1.0,0.75,0.25,0.75,0.45,-0.86,1.95,116.02,-6.9,22.2
0.7,1.0,0.0,2.25,0.75,2.25,1.25,0.75,0.25,1.0,0.0,0.75,0.0,0.75,-0.73,4.52,1.58,182.97,10.6,25.6,1.25,0.5,1.75,1.75,1.5,0.75,0.75,0.5,0.25,0.0,0.75,0.0,0.75,0.52,-1.11,1.58,68.95,-12.4,32.7
0.72,0.75,0.0,0.25,0.75,1.75,1.0,0.0,0.0,0.5,0.75,0.5,1.5,0.75,2.45,7.2,-1.98,166.79,2.4,-10.4,1.25,0.5,0.25,1.25,0.5,1.0,1.0,0.5,0.5,0.75,0.75,0.0,0.75,0.52,-0.67,1.02,17.15,-6.4,11.5
0.74,1.0,0.0,1.0,0.25,1.25,1.25,0.0,0.25,1.0,2.0,2.0,1.75,2.75,4.39,6.33,-2.92,179.26,1.2,-38.3,0.25,0.5,0.0,1.25,1.0,0.5,0.0,0.25,0.5,0.75,0.0,0.25,0.25,0.45,-0.42,0.64,0.0,-1.9,15.2
0.76,0.75,0.0,1.0,0.25,2.5,1.25,0.75,0.5,1.0,2.0,1.0,2.25,3.5,-0.98,-0.98,1.83,201.08,-0.1,-34.2,0.5,0.5,1.5,1.25,1.0,0.75,0.0,0.25,0.5,0.0,0.5,0.0,0.5,0.33,-0.17,0.45,0.0,-11.3,31.0
0.78,0.25,0.0,2.25,0.0,2.25,1.75,0.25,2.5,1.0,4.5,1.25,4.75,5.5,1.27,1.27,5.02,263.86,-2.5,-50.7,0.5,0.5,0.25,1.25,0.5,0.5,0.25,0.5,0.0,0.0,0.5,0.0,0.75,0.27,0.02,0.45,0.0,-5.9,17.8
0.8,0.0,0.25,2.25,0.75,2.25,1.75,0.75,4.25,2.75,6.25,5.0,6.5,6.5,-0.17,0.45,1.27,377.49,-1.2,-54.4,0.0,0.0,0.0,0.25,0.0,0.5,0.0,0.25,0.5,0.0,0.0,0.25,0.25,0.2,0.02,0.7,0.0,2.9,-26.7
0.82,1.25,0.0,1.0,0.0,1.75,1.75,1.25,4.75,3.25,5.0,3.0,6.5,6.5,0.02,0.14,1.08,479.23,-1.8,-56.1,0.5,0.5,0.75,1.25,1.25,0.5,0.5,0.25,0.5,1.0,0.75,0.25,0.75,0.14,0.02,0.89,10.25,-6.0,5.5
0.84,1.0,0.25,2.0,0.0,3.5,1.25,0.25,5.0,2.75,4.75,4.25,6.5,6.5,-0.11,0.08,0.95,570.04,-0.9,-49.8,0.75,0.25,1.0,1.0,1.25,0.5,0.75,0.25,0.5,1.0,0.0,0.25,0.25,0.2,0.08,1.08,46.81,-8.7,21.2
0.86,0.75,0.0,1.25,1.0,1.25,2.5,0.75,5.5,3.5,6.75,4.75,6.75,7.0,-0.17,0.08,0.95,633.4,-2.4,-56.9,0.75,0.5,1.75,1.25,1.5,0.5,0.75,0.5,0.5,0.75,1.0,0.75,0.75,0.27,0.14,1.33,97.75,-9.8,8.0
0.88,1.0,0.0,2.25,1.0,1.75,2.5,0.75,5.75,4.0,6.25,5.0,6.75,7.5,-0.11,0.08,0.95,692.92,-1.1,-52.1,0.0,0.0,1.5,0.0,1.25,0.25,0.0,0.25,0.5,0.25,0.0,0.75,0.25,0.33,0.33,1.39,102.81,-9.5,4.1
0.9,0.75,0.0,2.0,2.5,2.25,3.0,0.75,6.0,4.25,7.5,5.25,7.0,7.5,-0.11,0.08,0.95,759.15,-1.4,-48.6,0.5,0.5,1.0,1.0,1.0,0.5,0.75,0.25,0.5,1.0,0.25,0.25,0.75,0.39,0.52,1.64,113.28,-7.1,9.1
0.92,1.0,0.0,2.25,1.25,2.5,2.5,0.75,6.5,4.25,7.75,5.25,7.5,8.0,-0.11,0.08,0.95,818.83,-1.6,-51.7,0.5,0.5,0.75,1.0,1.5,0.5,0.5,0.5,0.5,1.0,0.5,0.5,0.75,0.45,0.77,2.02,115.95,-4.7,3.3
0.94,1.0,0.0,1.5,1.25,1.25,2.5,0.75,6.75,4.5,8.5,6.0,7.5,8.25,-0.11,0.08,0.95,862.72,-2.2,-57.4,0.5,0.5,1.75,1.0,1.0,0.5,0.75,0.5,0.5,0.0,0.5,0.25,0.5,0.64,1.33,2.58,125.71,-13.0,24.3
0.96,0.25,0.0,1.75,1.25,2.5,2.5,1.0,7.25,4.5,8.5,6.0,7.5,8.25,-0.11,0.08,0.95,884.85,-2.6,-55.4,1.0,0.5,1.75,1.0,1.0,0.5,0.5,0.5,0.5,0.75,0.75,0.25,0.5,0.7,2.39,2.89,137.09,-11.5,17.4
0.98,0.0,0.0,2.25,1.5,2.5,3.5,0.75,7.5,4.5,8.5,6.0,6.75,8.25,-0.11,0.08,0.89,887.29,-3.0,-52.1,1.0,0.5,1.0,1.0,1.0,0.75,0.5,0.5,0.5,0.75,0.25,0.25,0.5,0.83,4.02,2.52,141.77,-8.1,19.2
1.0,1.0,0.0,2.25,1.75,2.5,3.75,0.75,7.75,4.75,8.5,6.0,6.5,7.5,-0.11,0.08,0.95,881.68,-2.2,-47.2,1.0,0.0,1.25,0.0,1.0,0.5,0.5,0.5,0.5,0.0,0.25,0.0,0.5,0.52,4.95,0.08,128.95,-11.6,24.1
1.02,1.0,0.0,2.25,1.25,2.5,4.0,1.0,8.0,4.75,8.25,6.0,5.75,7.5,-0.11,0.08,0.95,857.65,-2.6,-46.7,1.25,0.5,0.5,1.0,1.5,1.25,0.5,0.25,0.5,1.0,0.5,0.25,0.75,-0.8,6.33,0.95,133.62,-4.4,14.9
1.04,0.0,0.0,2.25,1.5,3.5,5.0,1.5,8.25,5.0,7.5,5.5,5.0,6.5,-0.11,0.08,0.95,827.62,-3.3,-41.7,1.0,0.5,1.25,1.0,1.0,1.0,0.25,1.5,0.5,1.5,1.5,1.0,1.5,-0.3,-0.92,-0.11,153.9,-3.3,-14.8
1.06,1.0,0.0,1.75,2.0,3.5,5.75,1.5,8.5,5.25,7.25,5.25,3.5,6.25,-0.11,0.08,0.95,802.33,-3.3,-35.4,1.25,0.5,1.5,1.0,1.0,1.25,0.25,1.75,0.5,2.25,1.5,1.5,4.0,0.64,-0.67,2.77,191.88,-0.6,-30.4
1.08,1.5,0.25,2.25,2.25,5.0,5.75,1.5,8.5,5.25,6.0,4.0,3.25,5.25,-0.11,0.08,0.95,763.54,-2.2,-25.1,1.0,0.0,0.75,0.75,1.0,0.5,0.5,2.0,0.5,4.0,1.5,3.0,6.0,0.08,1.33,1.14,245.25,2.9,-58.0
1.1,1.75,0.25,2.25,2.5,5.0,6.5,1.75,8.5,5.0,5.5,3.25,2.0,4.5,-0.11,0.08,0.95,722.13,-2.4,-18.2,1.0,0.75,0.0,1.25,1.25,0.75,0.5,3.25,1.0,6.25,2.75,5.75,7.75,0.52,0.7,3.58,332.08,3.6,-61.6
1.12,2.0,0.75,2.25,2.5,6.5,7.0,1.25,8.5,4.75,4.5,3.0,1.75,3.75,-0.11,0.08,0.95,697.1,-2.2,-10.0,0.0,0.0,0.0,0.0,0.5,3.0,0.0,4.25,3.5,7.75,6.0,6.75,8.5,-0.05,0.2,1.39,469.83,5.3,-72.0
1.14,2.0,1.0,3.0,3.25,7.25,7.75,1.5,8.5,4.75,4.25,3.0,1.75,3.0,-0.11,0.14,0.95,700.67,-1.2,-3.7,1.0,0.5,0.0,1.0,1.25,3.0,0.0,5.75,3.75,8.0,7.25,7.25,8.5,0.02,0.2,1.02,633.89,3.5,-60.9
1.16,2.0,1.5,3.0,4.75,8.25,8.0,1.5,8.25,4.25,3.75,2.0,1.75,2.75,-0.11,0.14,0.95,724.65,-0.7,3.6,1.25,0.5,1.25,1.0,1.0,3.0,0.0,5.75,3.75,8.0,7.25,7.25,8.25,0.08,0.14,0.95,766.74,2.2,-57.3
1.18,2.25,1.25,3.0,5.25,9.0,8.75,1.5,8.0,3.75,3.0,2.0,1.75,2.75,-0.11,0.14,0.95,755.61,-0.6,7.0,1.25,0.5,1.5,1.0,1.5,3.0,0.25,5.75,3.75,8.0,7.25,6.75,8.25,0.08,0.14,0.95,852.51,2.0,-54.6
1.2,3.5,0.0,3.75,6.5,9.25,9.25,1.75,7.75,3.25,2.0,2.0,1.5,2.75,-0.11,0.14,0.95,788.3,0.8,12.1,1.25,0.5,1.0,1.0,1.25,3.0,0.25,5.75,4.25,8.0,7.25,6.5,8.0,0.14,0.14,0.89,882.47,2.3,-55.7
1.22,4.5,0.25,3.25,7.25,12.0,9.75,1.0,7.25,2.25,1.5,2.0,1.5,3.0,-0.11,0.14,0.95,837.52,0.7,18.0,1.0,0.5,1.75,1.0,1.25,3.0,0.75,6.0,4.25,8.0,7.0,6.25,8.0,0.08,0.14,0.89,888.64,1.8,-53.7
1.24,5.5,1.5,4.25,8.25,15.0,11.0,0.75,7.0,1.75,1.25,2.0,1.25,2.5,-0.11,0.14,1.02,936.4,1.7,27.0,1.0,0.5,1.75,1.25,1.5,3.25,1.0,6.5,4.5,7.75,6.75,5.75,7.75,0.08,0.14,0.95,879.49,1.9,-50.6
1.26,7.0,1.25,4.75,9.0,17.0,11.5,0.25,6.5,1.5,2.0,2.0,1.0,2.5,-0.17,0.2,1.08,1066.58,2.2,29.8,0.75,0.5,1.75,1.0,2.25,4.0,1.0,6.5,4.5,7.25,6.25,5.0,7.0,0.08,0.14,0.95,846.23,2.5,-46.3
1.28,7.75,2.25,5.0,11.5,17.5,11.5,0.0,6.25,1.0,1.0,1.75,0.75,2.25,-0.17,0.2,1.14,1206.53,3.6,36.4,2.0,0.5,1.0,1.5,2.5,5.0,1.25,6.5,4.0,6.25,5.75,3.5,6.0,0.08,0.14,0.95,786.66,2.4,-36.3
1.3,9.5,3.25,5.5,13.0,18.5,12.5,0.0,5.75,1.0,1.0,0.5,0.75,2.0,-0.17,0.27,1.14,1340.17,4.5,42.2,2.0,0.75,1.75,2.5,4.75,5.25,1.25,6.5,5.0,5.5,4.75,2.5,4.75,0.08,0.14,0.95,735.02,1.1,-21.5
1.32,10.5,3.25,5.0,11.0,19.0,11.5,0.0,5.5,1.0,2.0,0.5,0.0,2.25,-0.3,0.27,1.2,1403.27,4.3,42.2,2.0,0.75,2.75,2.75,4.75,5.75,1.75,6.5,5.0,5.25,4.0,2.5,3.25,0.14,0.14,0.95,690.06,0.0,-14.4
1.34,11.0,3.25,4.75,11.5,16.5,11.0,0.0,5.0,1.0,2.0,0.5,0.0,1.75,-0.3,0.27,1.33,1414.09,5.3,43.9,2.0,1.0,2.75,4.0,5.25,6.25,1.75,6.5,4.75,3.75,3.75,1.5,3.0,0.14,0.14,0.95,658.38,-0.6,-5.3
1.36,12.5,3.5,4.75,10.5,17.0,8.75,0.0,4.5,0.5,0.75,0.25,0.0,1.25,-0.36,0.39,1.45,1377.28,7.2,50.6,2.5,1.25,3.25,4.0,6.25,6.25,1.75,6.5,4.5,3.25,3.25,1.0,2.25,0.14,0.14,0.95,644.73,-1.5,3.1
1.38,12.0,3.25,3.75,8.0,11.0,8.0,0.0,3.0,0.5,0.5,0.5,0.0,0.75,-0.48,0.7,1.89,1225.71,8.6,53.3,3.25,1.5,4.0,5.75,6.75,6.5,2.0,6.25,4.25,2.5,2.75,1.0,2.0,0.14,0.14,0.95,663.51,-3.4,11.8
1.4,10.5,3.25,2.5,7.5,9.25,7.25,0.0,2.25,1.0,0.75,0.5,0.0,1.5,-1.11,1.14,2.45,1022.15,7.9,49.2,3.75,1.5,4.0,6.75,7.5,7.25,1.75,5.75,3.75,2.75,2.5,1.0,1.5,0.08,0.14,0.95,698.17,-3.6,16.9
1.42,7.25,1.75,1.25,3.5,8.0,5.0,0.0,1.75,1.0,0.0,0.75,0.0,1.0,-1.23,1.64,3.33,746.28,6.5,47.3,4.75,2.0,4.5,7.75,8.25,7.25,1.75,5.75,3.25,2.25,2.0,1.25,1.5,0.08,0.14,0.95,752.2,-4.8,22.6
1.44,5.5,0.25,0.25,0.0,6.5,0.0,0.0,0.5,0.5,0.0,0.0,0.0,0.0,-0.86,0.7,3.33,445.39,11.6,64.0,5.5,2.0,4.75,9.5,8.75,7.25,1.75,4.75,3.0,2.25,1.75,1.0,1.5,0.08,0.14,0.95,811.53,-6.0,27.8
1.46,1.5,0.0,0.0,0.0,2.5,0.0,0.0,0.25,1.0,0.0,0.75,0.0,0.25,-0.61,-0.3,1.2,227.21,7.9,24.7,6.25,2.25,6.25,11.0,9.25,7.25,1.75,4.75,2.5,1.75,1.5,1.0,1.5,0.08,0.14,0.95,886.66,-7.6,32.8
1.48,1.0,0.0,0.25,0.0,5.25,0.0,0.0,0.5,1.0,0.5,0.75,0.0,0.75,-0.61,-0.36,2.14,81.1,1.4,18.3,7.0,2.25,6.5,13.0,11.0,7.25,1.75,3.75,1.75,1.5,1.5,0.75,0.5,0.08,0.2,0.95,963.92,-8.8,41.0
1.5,0.25,0.0,0.0,0.0,1.75,0.0,0.0,0.0,0.25,0.0,0.0,0.0,0.0,-0.8,-0.8,2.2,0.0,1.7,48.5,7.75,2.75,7.5,14.5,11.0,7.75,1.5,3.25,1.0,1.5,1.5,0.75,1.5,0.08,0.2,1.02,1058.21,-9.4,41.9
1.52,0.25,0.0,0.25,0.0,3.0,0.0,0.0,0.0,0.25,0.0,0.0,0.0,0.0,-0.67,-0.98,1.52,0.0,2.2,51.0,8.25,2.5,7.75,0.0,12.5,7.75,1.0,3.25,1.0,1.25,0.0,0.75,1.25,0.02,0.2,1.02,1003.63,-6.9,42.6
1.54,0.0,0.0,0.25,0.0,1.75,0.0,0.0,0.0,0.25,0.0,0.0,0.0,0.25,-0.48,-0.61,0.52,0.0,0.9,30.9,8.75,2.25,8.25,9.75,13.5,7.75,1.0,2.5,0.5,0.0,1.5,0.5,0.75,0.08,0.27,1.08,1017.96,-10.0,49.2
1.56,0.0,0.0,0.25,0.0,3.75,0.25,0.0,0.0,0.25,0.0,0.0,0.0,0.0,-0.42,-0.48,0.45,0.0,-1.3,48.5,9.0,3.75,7.75,15.0,12.5,6.75,0.5,2.0,0.25,0.0,0.25,0.0,0.5,0.02,0.27,1.14,1029.7,-11.6,57.2
1.58,0.0,0.0,0.25,0.0,1.75,0.25,0.0,0.0,0.25,0.0,0.0,0.0,0.5,-0.48,-0.36,0.39,0.0,-1.9,20.1,10.5,4.5,8.75,17.5,15.5,7.75,0.25,2.0,0.5,0.0,0.25,0.0,0.5,-0.05,0.33,1.2,1160.92,-11.4,57.8
1.6,0.0,0.0,0.25,0.0,0.75,0.25,0.0,0.0,0.25,0.0,0.5,0.0,0.75,-0.55,-0.23,0.39,0.0,-0.2,-21.1,9.25,4.5,8.0,14.5,13.0,5.0,0.75,1.25,0.25,0.0,0.25,0.0,0.5,0.2,0.39,1.27,1168.85,-13.0,59.7
1.62,1.0,0.0,1.0,1.0,2.5,1.0,0.25,0.0,1.0,0.5,0.0,0.25,0.5,-0.48,-0.23,0.45,0.0,6.7,26.6,11.0,6.0,8.75,16.0,12.0,7.25,1.75,0.75,0.5,1.0,0.25,0.25,0.5,0.33,0.45,1.2,1241.19,-12.9,58.3
1.64,1.0,0.0,1.5,1.0,3.0,0.25,0.25,0.25,1.0,0.5,1.0,0.0,0.75,-0.42,-0.11,0.64,46.93,8.9,18.4,10.5,6.0,9.0,14.5,12.0,6.5,4.0,1.5,0.25,1.0,1.5,0.5,1.25,0.33,0.7,1.58,1258.92,-12.8,52.2
1.66,0.0,0.0,1.25,0.0,1.75,0.0,0.0,0.0,0.25,0.0,0.0,0.0,0.25,-0.3,-0.05,0.95,79.54,11.0,39.0,9.25,5.25,8.75,11.0,9.25,6.25,5.25,0.5,0.5,1.0,1.0,0.75,1.0,0.52,1.39,2.33,1200.11,-13.8,52.3
1.68,0.0,0.0,0.25,0.0,0.5,0.0,0.0,0.0,0.25,0.0,0.0,0.0,0.5,-0.23,0.08,1.14,77.73,2.4,-12.1,7.75,3.5,7.0,7.5,7.0,5.0,4.0,0.5,0.25,1.0,1.0,0.5,0.5,0.64,2.2,3.64,1012.49,-14.0,52.2
1.7,0.0,0.0,0.25,0.0,0.0,0.0,0.0,0.0,0.0,0.0,0.0,0.0,0.5,-0.23,0.2,1.33,49.84,3.6,-52.9,5.75,1.5,4.75,4.0,5.5,0.75,1.75,0.5,0.25,0.75,1.0,0.5,1.0,0.39,1.08,3.39,728.39,-15.7,45.9
1.72,0.0,0.0,0.0,0.0,0.0,0.0,0.0,0.0,0.0,0.0,0.0,0.0,0.5,-0.23,0.39,1.58,19.5,-13.7,-109.8,2.5,0.5,3.25,2.5,4.75,0.25,0.25,0.5,0.5,0.25,1.0,0.5,1.0,0.64,-0.3,2.33,449.26,-12.8,34.9
1.74,0.0,0.0,0.25,0.0,0.0,0.0,0.0,0.0,0.0,0.0,0.0,0.0,0.75,-0.3,0.58,2.08,10.05,-0.7,-67.1,2.0,0.5,1.5,2.5,4.25,1.25,0.25,0.5,0.75,1.0,1.0,1.0,1.25,0.52,0.7,1.14,282.89,-6.7,18.5
1.76,0.0,0.0,0.25,0.0,0.0,0.0,0.0,0.0,0.25,0.0,0.0,0.0,0.5,-0.48,1.08,2.52,5.54,5.7,-49.4,2.0,0.5,1.75,2.25,3.5,0.5,0.25,0.5,0.5,1.5,0.75,0.75,1.25,0.45,-0.73,2.45,194.78,-8.0,17.4
1.78,0.25,0.0,0.25,0.0,0.0,0.0,0.0,0.0,0.5,0.0,0.0,0.0,0.5,-0.73,2.02,3.27,7.45,11.3,-24.7,1.0,0.5,1.5,2.5,3.25,1.25,0.25,0.25,0.5,1.0,0.75,0.25,1.25,0.27,-1.11,1.77,122.33,-5.8,20.7
1.8,0.25,0.0,0.25,0.0,0.0,0.0,0.75,0.5,0.5,0.0,0.5,0.0,1.0,-1.36,4.27,2.64,16.76,5.4,-41.6,0.75,0.5,1.25,2.25,2.75,1.5,0.25,0.5,0.5,1.0,0.75,0.75,1.25,0.33,-0.67,0.89,82.78,-4.2,11.4
1.82,0.25,0.0,0.25,0.0,0.75,0.0,0.0,0.0,0.25,1.0,0.0,0.5,0.5,-1.42,6.39,1.64,29.47,0.0,-30.7,0.0,0.0,1.5,1.75,2.25,1.0,0.25,0.5,0.5,1.0,1.25,0.5,1.25,0.2,-0.48,0.45,49.77,-3.8,-2.1
1.84,0.0,0.0,0.25,0.0,0.0,0.0,0.0,0.0,0.5,1.25,0.0,1.5,0.5,1.27,7.95,-3.8,43.44,0.6,-79.4,0.75,0.5,1.5,1.5,2.5,0.75,0.25,0.5,0.5,0.5,0.75,0.5,1.25,0.02,-0.3,0.45,43.46,-6.6,13.2
1.86,0.25,0.0,0.25,0.0,0.0,0.0,0.0,1.0,1.0,2.0,0.25,1.75,3.5,2.7,-1.42,-2.23,86.89,-4.9,-78.9,1.0,0.5,1.25,1.5,2.5,1.75,0.75,0.5,0.5,1.0,0.75,0.5,1.0,-0.11,-0.23,0.58,48.4,-4.4,14.5
1.88,0.0,0.0,0.25,0.0,2.25,0.0,0.0,1.5,0.5,2.0,1.25,3.5,5.0,-2.05,1.39,1.64,161.52,-4.5,-66.6,0.0,0.0,1.5,0.5,1.5,0.5,0.0,0.25,0.0,0.0,0.0,0.0,0.25,-0.05,-0.17,0.77,32.21,-9.1,40.8
1.9,0.75,0.0,1.0,2.0,2.5,1.75,0.25,2.25,1.75,5.25,4.25,7.0,6.5,2.02,0.77,5.02,294.2,-0.7,-53.3,0.0,0.0,0.0,0.0,1.0,0.5,0.0,0.0,0.0,0.0,0.0,0.0,0.25,-0.05,-0.11,0.83,13.78,9.6,26.3
1.92,0.0,0.0,1.5,0.0,2.25,0.75,0.0,4.25,2.5,4.0,4.25,6.75,6.5,-0.36,0.58,1.08,408.57,-1.7,-63.0,0.0,0.0,0.0,0.0,0.5,0.5,0.0,0.25,0.0,0.0,0.0,0.0,0.25,-0.05,0.02,0.89,0.0,13.1,5.8
1.94,0.0,0.0,0.25,0.5,1.75,1.0,0.5,5.25,3.75,6.0,4.75,6.5,6.5,-0.05,0.02,1.02,540.92,-3.3,-65.3,0.0,0.0,0.0,0.25,0.5,0.5,0.0,0.25,0.0,0.0,0.0,0.0,0.25,-0.11,0.08,1.08,0.0,8.7,13.3
1.96,0.0,0.0,0.25,0.0,1.75,0.0,0.0,4.75,4.0,6.0,5.0,6.75,6.5,-0.11,0.08,0.95,606.08,-2.9,-71.0,0.5,0.25,0.0,1.0,0.0,0.5,0.0,0.25,0.0,0.0,0.0,0.0,0.25,-0.11,0.2,1.58,0.0,-6.9,39.9
1.98,0.0,0.0,0.5,0.0,1.25,0.75,0.25,5.5,4.25,6.25,6.0,6.75,6.5,-0.11,0.08,0.95,658.37,-2.7,-69.1,0.0,0.0,0.0,0.0,0.5,0.5,0.0,0.25,0.5,0.0,0.0,0.0,0.25,-0.05,0.33,1.58,0.0,7.0,-4.8
2.0,0.0,0.0,0.25,1.0,1.25,0.5,0.75,6.0,5.0,7.25,6.75,7.5,6.75,-0.11,0.08,0.95,707.58,-2.0,-67.1,0.0,0.0,0.0,0.0,0.5,0.25,0.0,0.0,0.0,0.0,0.0,0.0,0.25,0.08,0.45,1.7,0.0,10.1,10.0
2.02,0.25,0.0,1.75,1.0,3.0,0.25,0.75,6.25,5.25,7.5,6.5,7.5,7.75,-0.11,0.08,0.95,779.18,-0.9,-58.2,0.0,0.0,0.0,0.0,1.0,0.5,0.0,0.25,0.0,0.0,0.0,0.0,0.25,0.14,0.64,2.33,0.0,10.4,18.7
2.04,0.25,0.0,1.75,0.0,2.25,2.5,1.25,6.0,5.25,7.5,6.75,7.5,7.75,-0.11,0.08,0.95,835.22,-1.9,-58.4,0.0,0.0,0.0,0.0,0.5,0.25,0.0,0.25,0.0,0.0,0.0,0.0,0.25,0.2,1.83,2.7,0.0,11.3,0.7
2.06,0.5,0.0,1.25,1.0,2.25,2.25,0.5,6.0,5.25,7.5,7.75,7.5,8.0,-0.11,0.08,0.95,874.67,-1.7,-58.1,1.0,0.5,0.0,1.25,0.5,1.5,0.0,0.25,0.5,1.0,0.75,0.75,0.75,0.2,3.14,2.02,37.94,-1.9,-3.2
2.08,0.75,0.0,1.25,1.25,2.25,2.5,0.5,6.25,5.0,7.5,7.0,7.5,7.75,-0.11,0.08,0.95,879.2,-1.8,-55.8,3.5,1.0,1.25,2.5,1.75,1.75,0.25,0.5,0.25,0.75,0.0,0.5,0.5,1.08,7.95,-4.36,112.42,-11.1,42.9
2.1,1.0,0.0,1.5,1.0,2.25,2.5,0.25,6.25,5.25,7.5,6.5,7.25,7.5,-0.11,0.08,0.89,855.44,-1.6,-54.4,3.75,0.75,2.5,2.75,1.25,0.5,1.0,0.25,1.0,2.25,1.5,3.75,0.75,-0.67,7.02,-4.8,205.06,-13.4,1.3
2.12,1.0,0.0,1.25,1.0,2.25,3.0,0.25,6.5,5.5,7.5,6.75,7.25,7.5,-0.11,0.08,0.89,830.66,-2.0,-54.1,3.75,1.0,1.75,2.0,2.5,2.0,0.75,1.0,1.75,4.0,3.75,6.25,8.0,-0.42,-7.92,4.83,335.21,-3.1,-35.5
2.14,0.5,0.0,1.25,1.0,2.5,3.5,0.75,6.5,6.0,7.25,7.25,7.0,7.25,-0.11,0.08,0.95,812.27,-2.0,-53.1,3.75,1.25,3.25,2.25,3.0,1.25,1.25,2.0,1.75,4.0,4.75,5.75,6.0,-0.23,0.58,0.52,464.92,-5.7,-26.1
2.16,1.0,0.0,1.75,1.25,2.5,3.5,0.75,6.5,6.5,6.75,7.0,6.75,6.75,-0.11,0.08,0.95,811.04,-0.9,-48.6,4.25,1.25,2.75,2.25,0.5,1.25,1.0,0.5,1.75,5.25,3.75,6.0,5.75,-0.36,-0.11,0.89,551.69,-6.5,-32.3
2.18,1.0,0.0,2.0,1.75,2.25,4.5,0.75,6.5,6.75,6.0,7.0,5.75,5.75,-0.11,0.08,0.95,790.6,-0.6,-43.0,4.25,1.25,2.75,3.5,3.0,3.0,0.75,2.25,2.5,7.0,5.75,7.25,8.0,0.08,0.27,1.2,677.87,-3.0,-31.9
2.2,2.0,0.5,2.25,2.25,4.75,5.0,1.5,6.75,7.0,4.75,6.5,4.0,4.75,-0.11,0.08,0.95,770.47,0.5,-26.1,4.0,1.25,2.75,2.0,3.25,3.0,0.75,3.5,2.75,8.0,5.75,7.75,8.25,0.02,0.14,1.02,789.7,-1.6,-36.8
2.22,2.0,0.5,2.5,2.5,5.75,5.75,1.5,6.5,7.0,4.25,6.0,3.25,3.75,-0.11,0.08,0.95,746.49,0.7,-18.7,3.75,1.25,1.5,1.75,3.0,3.0,0.75,4.75,2.75,7.75,6.0,7.0,8.75,0.02,0.14,1.02,879.53,0.0,-40.6
2.24,4.5,1.5,4.0,4.75,6.0,6.25,2.25,6.25,6.75,3.25,4.0,2.0,2.75,-0.11,0.08,0.95,759.0,4.3,2.6,3.75,1.0,1.5,2.0,3.0,3.0,0.75,5.0,2.5,7.75,5.5,6.5,8.5,0.02,0.08,0.89,914.47,0.2,-39.4
2.26,6.5,1.5,5.0,6.5,7.75,6.75,3.0,5.5,6.0,2.0,2.25,1.75,2.75,-0.11,0.08,0.95,806.93,6.4,16.5,3.75,1.25,1.25,2.0,4.75,4.0,0.75,5.75,2.0,7.25,3.75,5.5,8.0,0.02,0.14,0.89,906.98,1.6,-30.4
2.28,8.75,1.5,7.0,8.25,8.0,7.0,3.0,4.25,5.0,2.0,2.75,1.5,2.75,-0.17,0.14,1.02,897.55,9.0,24.1,3.75,1.25,1.5,2.5,4.75,5.25,0.25,7.0,1.75,6.5,3.75,3.25,6.5,0.08,0.14,0.95,855.49,2.2,-20.9
2.3,11.0,2.25,8.75,10.5,9.5,7.0,2.75,4.0,4.25,2.0,1.25,1.75,2.5,-0.11,0.14,1.14,1028.26,10.7,33.2,3.75,0.75,1.25,2.5,4.75,5.75,0.5,7.5,1.75,5.5,2.75,1.25,4.25,0.14,0.14,0.95,765.45,2.8,-10.7
2.32,13.5,3.25,10.5,13.0,12.0,6.5,1.25,3.0,3.75,2.0,2.0,1.5,1.5,-0.17,0.14,1.27,1208.82,12.6,41.4,3.75,2.0,1.5,2.5,5.0,6.75,0.5,8.0,1.25,4.75,1.75,1.0,3.25,0.14,0.14,0.95,697.14,2.7,0.1
2.34,16.0,4.5,11.5,13.5,12.0,6.25,0.0,2.5,3.5,1.75,2.0,1.25,1.25,-0.11,0.27,1.27,1361.91,13.9,46.7,4.25,2.0,1.25,3.0,5.75,7.25,0.75,8.25,0.75,3.25,1.5,1.0,2.25,0.14,0.14,0.95,639.14,2.0,9.3
2.36,18.0,5.0,12.5,12.5,12.0,5.75,0.0,3.0,3.0,2.0,2.0,1.0,2.25,-0.11,0.27,1.27,1471.86,14.3,46.4,4.75,1.5,1.25,3.25,6.75,8.0,0.75,7.5,0.0,1.0,0.5,0.5,1.5,0.14,0.2,0.95,582.54,1.5,24.6
2.38,19.5,6.0,12.5,14.5,9.5,5.25,0.0,2.5,2.5,2.0,2.0,1.0,2.0,-0.11,0.27,1.33,1543.13,15.8,49.6,3.75,1.5,0.0,2.75,6.75,9.5,0.25,7.25,0.0,1.0,0.5,0.5,1.5,0.08,0.2,1.02,537.86,5.1,21.6
2.4,19.0,6.0,12.5,14.5,8.5,4.0,0.0,2.5,1.75,1.75,2.5,1.0,2.0,-0.11,0.39,1.39,1561.2,16.7,50.0,5.0,3.5,0.0,4.0,8.5,12.0,0.5,6.25,0.0,1.0,1.25,0.25,0.75,0.14,0.2,1.08,554.45,2.7,33.5
2.42,17.5,6.0,11.5,13.0,7.0,3.5,0.0,2.0,1.5,1.75,1.75,0.75,1.75,-0.17,0.58,1.83,1503.09,17.3,52.1,5.75,3.5,0.0,6.5,9.75,13.0,0.0,4.75,0.0,0.25,0.25,0.0,0.5,0.27,0.52,1.33,586.2,1.2,44.8
2.44,13.5,4.5,9.75,10.5,5.0,3.0,0.75,1.5,1.0,1.75,1.0,0.75,1.25,-0.67,1.14,2.08,1342.49,17.6,51.9,7.5,5.75,1.0,8.75,13.5,12.5,0.5,3.5,0.0,1.0,1.5,0.75,1.25,0.2,0.39,1.33,734.84,-2.2,43.6
2.46,10.5,3.25,8.0,6.75,2.25,2.5,0.25,1.0,1.0,1.5,0.5,0.25,1.5,-0.98,1.39,2.58,1026.28,18.3,50.9,8.0,5.0,3.25,7.75,14.0,9.25,0.75,2.0,0.0,1.0,0.0,0.0,1.25,1.08,2.95,0.89,839.58,-5.3,52.0
2.48,6.25,1.5,4.25,2.5,1.75,1.25,0.0,0.0,0.75,0.25,0.0,0.0,1.0,-0.67,1.02,3.2,629.16,20.0,57.6,8.5,4.75,1.5,3.75,10.0,7.75,1.0,2.0,0.0,1.0,0.0,0.0,1.25,3.33,3.83,2.39,836.07,-4.9,51.7
2.5,2.5,0.0,1.25,1.0,2.25,1.75,0.0,0.0,1.0,1.5,0.0,0.25,0.75,-0.55,0.14,3.08,329.64,6.6,24.1,7.0,4.0,0.0,2.0,6.0,5.25,0.25,0.25,0.0,1.0,0.0,0.0,0.25,1.58,4.27,4.02,671.19,-6.1,60.8
2.52,1.0,0.0,2.25,2.25,0.0,0.0,0.0,0.5,1.0,1.75,0.75,0.5,1.5,-0.55,-0.3,0.64,158.49,11.1,-8.5,3.5,0.0,0.0,1.25,2.75,0.5,0.25,1.0,0.0,0.75,0.0,0.0,0.25,1.14,4.7,3.7,419.46,-8.4,44.5
2.54,1.25,0.0,2.25,2.0,2.25,1.75,0.0,0.5,1.0,1.75,1.0,0.25,1.25,-1.11,-0.11,1.95,57.36,5.8,9.0,1.25,0.0,0.0,0.0,0.5,0.25,0.0,0.0,0.0,0.0,0.0,0.0,0.5,0.64,6.95,1.33,227.82,-10.6,38.7
2.56,1.0,0.25,2.25,1.75,2.5,1.25,0.0,0.25,1.0,1.75,0.75,0.25,1.5,-0.3,0.77,1.14,11.57,5.9,8.5,1.0,0.0,0.0,0.0,2.5,0.25,0.0,0.25,0.0,0.0,0.0,0.0,0.25,0.39,2.45,3.27,85.2,-2.1,47.3
2.58,1.0,0.25,2.25,1.0,2.25,1.25,0.0,0.25,1.0,1.75,1.0,0.0,1.5,-0.11,1.33,0.27,6.77,5.5,5.4,1.0,0.0,0.0,0.0,0.5,0.25,0.0,0.0,0.0,0.0,0.0,0.0,0.25,-0.17,2.33,2.58,0.0,-10.8,50.9
2.6,1.5,0.25,2.25,0.5,2.5,1.25,0.0,0.25,1.0,1.75,0.75,0.25,1.5,0.14,1.77,-0.55,15.9,5.8,6.9,1.0,0.0,0.0,0.0,1.0,0.5,0.0,0.0,0.0,0.0,0.0,0.0,0.5,0.83,1.33,1.33,0.0,-3.5,36.6
2.62,1.25,0.0,2.25,0.25,2.5,1.25,0.0,0.25,1.0,1.75,0.75,0.25,1.25,0.33,1.83,-0.67,30.11,5.3,4.7,1.0,0.5,0.25,1.0,0.5,0.5,0.0,0.0,0.0,0.0,0.0,0.0,1.25,0.2,1.02,2.02,0.0,-7.2,24.4
2.64,1.0,0.0,2.0,1.0,2.5,1.25,0.0,0.25,1.0,1.5,0.75,0.5,1.25,0.08,1.7,-0.67,58.08,5.3,4.5,0.75,0.0,0.0,0.0,1.75,0.5,0.0,0.0,0.0,0.0,0.0,0.0,0.5,-0.05,0.08,1.52,0.0,0.0,36.7
2.66,1.0,0.0,2.0,1.0,2.25,1.25,0.0,0.25,1.0,1.5,1.25,0.25,1.5,0.02,1.64,-0.23,95.93,5.3,0.5,0.75,0.0,0.0,0.0,0.5,0.25,0.0,0.25,0.0,0.0,0.0,0.0,0.25,0.39,-0.36,1.58,0.0,-4.6,34.4
2.68,1.25,0.0,0.25,1.0,1.25,1.25,0.0,0.0,1.0,1.5,0.0,0.75,0.5,0.45,1.27,-0.3,113.73,2.8,2.0,0.5,0.0,0.0,0.0,0.5,0.25,0.0,0.25,0.0,0.0,0.0,0.0,0.5,1.2,-1.23,2.45,0.0,1.0,9.0
2.7,1.25,0.0,1.75,0.75,2.25,1.25,0.0,0.25,0.75,1.75,0.75,0.5,1.25,0.39,1.08,-0.48,144.41,4.6,2.1,2.0,0.5,1.25,1.0,1.25,0.75,0.0,0.5,0.5,1.0,1.0,0.75,1.25,2.52,-4.3,4.14,0.0,-8.3,5.4
2.72,1.0,0.5,1.75,0.5,2.25,1.25,0.0,0.5,1.0,1.5,0.75,0.75,1.25,0.14,0.89,-0.67,167.44,4.3,1.0,2.0,0.5,1.5,1.0,1.0,1.5,0.0,0.5,0.5,1.0,0.25,0.5,1.25,1.33,-6.17,3.52,70.25,-7.2,14.7
2.74,0.75,0.5,2.25,0.25,2.25,1.25,0.0,0.25,1.0,0.5,0.75,0.75,1.75,-0.36,0.27,-0.3,178.72,6.2,2.8,2.0,0.5,1.5,1.0,1.0,0.5,0.0,0.5,0.5,1.0,0.5,0.75,1.25,-0.73,-4.3,2.08,139.21,-9.9,8.3
2.76,1.75,0.0,1.75,1.0,2.25,1.25,0.25,0.25,1.0,0.5,0.5,0.75,1.75,0.27,-0.55,0.64,183.04,7.5,8.4,2.0,0.5,1.25,1.0,1.25,0.5,0.0,0.5,0.5,0.75,0.75,0.75,1.25,-0.55,-3.11,-0.17,175.47,-9.5,8.3
2.78,1.75,0.0,2.0,0.25,2.25,1.25,0.0,0.25,1.0,0.5,1.0,0.75,1.5,0.52,-0.92,1.2,183.7,7.9,5.5,2.0,0.5,1.5,1.0,1.0,0.5,0.0,0.5,0.25,1.0,0.5,0.75,1.25,-0.55,-1.92,-0.11,186.98,-9.8,9.4
2.8,1.5,0.25,1.75,0.5,2.25,1.25,0.0,0.25,1.0,0.5,0.75,0.75,1.75,0.83,-1.17,1.64,185.08,6.6,4.8,2.0,0.5,0.75,1.0,2.25,0.25,0.25,0.25,0.5,1.0,0.5,0.5,1.25,-1.11,-0.17,-0.48,185.59,-7.8,13.9
2.82,2.0,0.25,1.75,0.5,2.25,1.25,0.25,0.25,1.0,1.25,0.5,1.25,1.75,1.27,-2.3,2.45,191.85,6.5,1.2,2.0,0.5,1.25,1.0,1.0,0.5,0.0,0.5,0.25,1.0,0.0,0.75,1.25,-1.73,2.83,-2.8,182.18,-9.1,12.1
2.84,1.75,0.0,1.75,0.25,2.25,1.25,0.0,0.25,0.75,0.5,0.75,1.0,1.75,1.39,-2.98,2.27,191.16,6.7,2.1,2.0,0.5,1.5,1.0,1.0,0.75,0.0,0.25,0.25,1.0,0.5,0.75,1.25,1.33,3.08,-4.42,181.14,-9.7,11.0
2.86,1.75,0.0,1.75,0.0,2.25,1.25,0.0,0.25,0.75,0.75,0.5,1.0,2.25,1.08,-1.98,1.77,190.86,5.1,-3.5,2.0,0.5,1.0,1.0,1.25,0.5,0.0,0.25,0.5,1.0,0.25,0.75,1.0,0.39,2.89,-3.67,175.02,-9.3,13.1
2.88,1.25,0.0,2.25,0.5,2.25,1.25,0.0,0.25,0.75,0.75,0.5,1.0,1.25,0.64,-1.11,0.89,186.66,7.5,6.7,2.0,0.5,0.75,1.0,0.5,0.25,0.0,0.5,0.5,1.0,0.0,1.0,1.0,-0.73,2.58,-1.42,165.86,-9.8,4.9
2.9,0.75,0.0,1.75,0.0,2.25,0.75,0.0,0.25,0.25,0.0,0.25,0.5,1.5,0.14,-0.23,0.27,168.22,6.2,9.3,2.0,0.5,1.25,1.0,1.0,0.75,0.0,0.25,0.5,1.25,0.0,0.5,0.5,-0.8,2.45,-1.42,158.46,-10.2,23.4
2.92,0.0,0.0,1.5,0.0,2.25,0.0,0.75,0.0,0.25,0.0,0.0,1.75,0.75,-1.05,2.89,-7.98,143.38,9.6,-5.7,2.0,0.5,1.25,1.0,1.0,1.0,0.0,0.25,0.5,0.75,0.0,0.5,0.5,-0.8,2.27,-1.42,149.31,-10.8,29.0
2.94,0.5,0.0,1.75,0.0,0.75,0.0,0.0,0.25,0.0,0.0,0.0,0.0,1.5,-2.73,1.27,-7.61,106.14,11.5,4.5,1.75,0.5,1.0,1.0,1.0,2.0,0.0,0.25,0.25,0.0,0.0,0.5,0.75,-0.92,2.52,-0.8,139.97,-7.3,33.4
2.96,0.0,0.0,0.25,0.0,0.0,0.25,0.0,0.0,0.0,0.0,0.0,0.0,0.5,-5.8,1.58,-5.86,59.25,-2.5,-32.5,1.25,0.5,1.25,1.0,1.0,1.25,0.0,0.25,0.25,0.25,0.25,0.25,0.5,-0.92,2.39,-0.48,134.33,-9.4,32.8
2.98,0.0,0.0,0.25,0.0,0.0,0.0,0.0,0.25,0.0,0.0,0.0,0.0,0.5,-3.36,0.7,-0.86,20.86,-1.3,-49.4,1.25,0.5,1.25,1.0,1.0,1.25,0.0,0.25,0.5,0.75,0.25,0.5,1.0,-0.73,2.02,0.2,136.4,-6.9,14.0
3.0,0.25,0.0,0.25,0.0,0.5,0.25,0.0,0.25,0.0,0.0,0.0,0.0,0.5,0.52,-1.48,2.45,0.1,-0.2,5.4,1.25,0.5,1.25,1.0,1.0,1.25,0.0,0.25,0.5,1.0,0.5,0.5,0.75,-0.42,1.33,0.33,138.67,-7.0,12.8
3.02,0.25,0.0,0.25,0.0,0.0,1.25,0.0,0.0,0.75,1.25,0.0,0.25,1.0,3.02,-3.98,3.02,9.56,-6.3,-37.3,1.25,0.5,1.5,1.0,1.0,1.5,0.0,0.25,0.5,0.75,0.5,0.75,1.0,0.14,0.89,0.2,146.56,-7.1,10.6
3.04,0.25,0.0,1.0,0.25,2.25,1.25,0.25,0.25,0.75,1.75,0.0,0.5,1.25,3.14,-1.98,0.64,51.54,-1.5,-8.3,1.25,0.5,1.25,1.0,1.0,1.5,0.0,0.25,0.5,0.75,0.5,0.75,1.0,0.27,0.52,0.27,151.58,-6.4,9.4
3.06,0.5,0.0,2.0,0.0,2.25,2.0,0.25,0.25,1.0,1.25,0.5,0.25,0.75,1.45,1.7,-3.86,99.3,2.9,7.8,1.25,0.5,0.75,1.0,1.0,1.5,0.0,0.25,0.25,0.75,0.5,0.5,1.0,0.2,0.27,0.33,151.36,-4.4,11.0
3.08,1.0,0.25,2.25,0.25,2.25,0.25,0.25,0.25,0.75,1.25,0.5,0.25,1.25,4.89,0.45,-1.67,136.91,8.5,7.8,1.25,0.5,1.25,1.0,1.0,1.5,0.0,0.25,0.5,0.75,0.25,0.75,1.0,0.08,-0.05,0.33,151.51,-6.2,11.4
3.1,0.5,0.0,1.75,0.25,2.25,0.25,0.25,0.25,0.75,1.25,0.25,0.25,0.5,0.39,0.33,-1.48,147.78,7.1,9.9,1.5,0.5,1.25,1.0,1.0,1.25,0.25,0.25,0.25,1.0,0.25,0.5,1.0,-0.11,-0.3,0.27,151.84,-7.2,15.2
3.12,0.0,0.0,1.75,0.0,2.25,0.0,0.0,0.25,0.0,0.0,0.0,0.0,0.5,0.27,0.64,-1.48,134.56,9.5,35.3,1.25,0.5,1.5,1.0,1.0,1.25,0.0,0.25,0.5,0.75,0.25,0.5,0.75,0.02,-0.48,0.14,151.86,-8.3,18.6
3.14,0.25,0.0,0.25,0.0,1.25,0.0,0.0,0.25,0.0,0.0,0.0,0.0,0.5,-1.23,0.45,-1.36,104.53,0.7,18.4,1.25,0.5,1.75,1.0,1.0,1.5,0.0,0.25,0.25,1.0,0.5,0.5,1.0,0.08,-0.67,0.02,154.85,-7.2,13.8
3.16,1.0,0.0,0.25,0.0,0.0,1.25,0.0,0.75,0.75,1.0,0.75,0.5,1.25,-1.48,1.27,-1.61,99.03,-1.2,-32.1,1.25,0.5,1.5,1.0,1.0,1.5,0.0,0.5,0.25,0.5,0.5,0.75,0.75,0.08,-0.73,0.08,156.29,-7.5,15.8
3.18,1.0,0.0,1.75,0.0,2.25,1.25,0.25,0.25,0.75,1.5,0.25,0.0,1.5,-1.36,1.64,-1.48,120.76,2.9,4.0,1.25,0.5,1.5,1.0,1.0,1.25,0.0,0.25,0.25,0.75,0.5,0.25,0.5,0.08,-0.8,0.02,152.99,-8.9,24.8
3.2,0.0,0.0,1.75,0.0,0.5,1.0,0.0,0.5,0.75,1.25,0.75,0.0,1.25,-0.8,1.33,-1.17,130.67,2.1,-21.1,1.25,0.5,1.25,1.0,1.0,1.25,0.25,0.25,0.5,0.5,0.25,0.25,0.75,0.14,-0.86,-0.11,147.62,-8.4,23.7
3.22,1.0,0.0,1.75,0.0,2.25,1.25,0.25,0.25,0.5,1.5,0.5,0.0,1.25,-0.42,1.27,-1.36,148.03,3.3,6.0,1.25,0.5,1.0,1.0,1.0,1.25,0.0,0.25,0.25,1.0,0.5,0.5,0.5,0.02,-0.73,-0.23,142.14,-6.5,16.3
3.24,1.0,0.0,1.75,0.0,2.25,1.25,0.25,0.25,0.75,1.25,0.5,0.0,1.25,-0.36,1.08,-1.86,154.48,4.0,6.9,1.5,0.5,1.25,1.0,1.0,1.25,0.0,0.25,0.25,0.75,0.25,0.5,0.75,-0.17,-0.61,-0.42,140.5,-8.0,20.9
3.26,1.25,0.0,1.5,0.0,2.25,1.25,0.25,0.25,0.75,1.25,0.75,0.0,1.25,-0.17,1.02,-1.86,159.62,4.0,5.7,1.25,0.5,1.75,0.75,1.0,1.5,0.0,0.5,0.25,0.25,0.25,0.0,0.75,-0.3,-0.42,-0.48,138.95,-8.6,31.6
3.28,1.0,0.0,1.75,0.0,1.75,1.25,0.25,0.25,0.75,1.25,0.75,0.0,1.25,0.27,0.95,-1.05,157.57,4.5,2.3,1.25,0.25,1.25,1.0,1.0,1.5,0.0,0.25,0.25,0.75,0.25,0.5,0.75,-0.73,-0.23,-0.3,139.35,-6.4,17.1
3.3,0.25,0.0,1.75,0.0,2.25,1.25,0.25,0.25,0.75,1.0,0.5,0.0,1.0,0.89,0.45,-0.48,157.29,2.7,5.5,1.25,0.5,1.25,1.0,1.0,1.25,0.0,0.25,0.25,0.0,0.25,0.5,0.75,-0.92,-0.23,-0.17,136.0,-9.4,27.4
3.32,0.25,0.0,1.75,0.0,2.25,1.25,0.25,0.25,0.5,1.25,0.5,0.0,1.5,1.02,0.27,-0.11,156.92,1.1,-1.3,1.25,0.5,1.25,1.0,1.0,1.25,0.25,0.25,0.25,0.75,0.25,0.75,1.0,-0.92,-0.23,0.02,138.1,-7.1,12.3
3.34,0.75,0.0,1.75,0.0,2.25,1.25,0.25,0.25,0.5,0.75,0.75,0.0,1.0,0.83,0.2,-0.17,156.6,4.7,11.1,1.25,0.5,1.0,1.0,1.0,1.25,0.0,0.25,0.25,0.75,0.25,0.25,0.5,-0.98,-0.3,0.2,134.89,-7.0,25.4
3.36,0.75,0.0,1.75,0.0,2.25,1.25,0.25,0.25,0.5,0.5,0.5,0.25,1.0,0.45,0.39,-0.11,156.02,5.2,12.5,1.25,0.5,1.25,1.0,1.0,1.25,0.25,0.25,0.25,0.5,0.25,0.5,0.75,-1.11,-0.36,0.33,136.27,-8.3,21.7
3.38,0.5,0.0,1.75,0.0,2.25,1.25,0.25,0.25,0.5,0.75,0.5,0.0,1.25,0.45,0.45,-0.05,152.09,3.3,7.9,1.25,0.5,1.25,1.0,1.75,1.0,0.25,0.25,0.25,0.75,0.25,0.25,0.5,-0.86,-0.55,0.33,138.23,-8.0,28.8
3.4,1.0,0.0,1.75,0.0,2.25,1.25,0.25,0.25,0.75,0.75,0.5,0.25,1.25,-0.23,0.45,0.08,150.22,5.0,8.0,1.25,0.5,1.25,0.5,1.0,1.25,0.25,0.25,0.25,0.5,0.25,0.25,0.75,-0.8,-0.61,0.58,136.5,-7.7,23.4
3.42,0.75,0.0,1.75,0.0,2.25,1.25,0.25,0.25,0.5,0.5,0.5,0.0,1.0,-0.36,0.45,0.14,145.8,5.1,15.8,1.0,0.5,1.25,1.0,1.0,1.25,0.25,0.25,0.25,0.75,0.5,0.25,1.0,-0.92,-0.8,1.08,138.15,-6.4,14.5
3.44,0.5,0.0,1.75,0.0,2.25,1.25,0.25,0.25,0.5,0.5,0.5,0.0,1.25,-0.42,0.45,0.08,144.86,3.8,10.2,1.25,0.5,1.25,1.0,1.0,1.25,0.0,0.25,0.0,0.25,0.25,0.25,0.75,-1.11,-0.92,1.45,134.28,-8.6,30.5
3.46,0.75,0.0,1.5,0.25,2.25,1.75,0.25,0.25,0.5,0.5,0.75,0.0,1.25,-0.61,0.58,0.08,144.34,2.9,11.2,1.25,0.5,1.25,1.0,1.0,1.0,0.25,0.25,0.25,0.5,0.25,0.75,0.5,-1.23,-0.92,1.52,134.46,-9.8,21.5
3.48,0.25,0.0,1.5,0.0,2.25,1.25,0.25,0.25,0.75,0.75,0.5,0.0,1.0,-0.8,0.64,0.27,141.35,2.2,6.1,1.25,0.5,1.25,1.0,1.0,1.0,0.25,0.25,0.25,1.5,0.25,0.25,0.75,-1.23,-0.86,1.52,136.67,-6.5,14.6
3.5,0.25,0.0,1.5,0.5,2.25,1.25,0.25,0.25,0.5,0.75,0.5,0.0,1.0,-0.86,0.64,0.2,140.54,2.7,10.3,1.25,0.5,1.5,1.0,1.0,1.0,0.25,0.25,0.25,0.75,0.5,0.25,0.75,-1.36,-0.8,1.52,140.54,-9.3,20.8
3.52,0.75,0.0,1.5,0.25,2.25,1.0,0.25,0.25,0.5,0.75,0.5,0.0,1.0,-0.98,0.58,0.08,139.67,4.6,12.8,1.25,0.5,1.0,1.0,1.0,1.25,0.25,0.25,0.25,0.75,0.5,0.25,0.75,-1.48,-0.8,1.58,141.27,-6.8,18.9
3.54,0.25,0.0,1.5,0.0,2.25,1.25,0.25,0.25,0.5,0.75,0.5,0.0,1.25,-1.11,0.27,0.45,138.23,1.4,4.0,1.25,0.5,1.0,1.0,0.5,1.25,0.0,0.25,0.0,1.5,0.25,0.5,0.75,-1.3,-0.73,1.52,139.48,-5.0,9.0
3.56,0.0,0.0,1.75,0.0,2.25,1.25,0.25,0.25,0.75,0.5,0.5,0.0,1.0,-1.17,-0.11,0.52,134.69,2.9,7.7,1.25,0.5,1.25,1.0,1.0,0.75,0.25,0.25,0.25,0.75,0.25,0.75,0.5,-1.05,-0.73,1.39,137.22,-10.0,18.4
3.58,0.25,0.0,1.75,0.0,2.25,1.25,0.25,0.25,0.75,0.75,0.5,0.0,0.75,-1.55,-0.42,0.64,134.22,3.7,11.1,1.25,0.5,1.25,1.0,1.0,1.0,0.25,0.25,0.25,1.5,0.25,0.25,0.5,-1.11,-0.61,1.27,138.48,-7.1,18.0
3.6,0.5,0.0,1.5,0.25,2.25,1.5,0.25,0.25,0.5,0.0,0.5,0.0,1.0,-1.98,-1.3,0.89,133.37,4.1,19.3,1.25,0.5,1.5,1.0,1.0,1.0,0.25,0.25,0.25,0.75,0.25,0.5,0.75,-1.05,-0.55,1.27,140.05,-9.3,19.8
3.62,0.25,0.0,1.5,0.25,2.25,1.25,0.25,0.5,0.5,1.0,0.5,0.0,0.75,-2.11,-1.61,0.77,134.64,1.8,8.6,1.25,0.5,1.5,1.0,1.0,1.0,0.25,0.25,0.25,1.0,0.25,0.25,0.75,-0.98,-0.48,1.27,142.41,-8.6,20.7
3.64,0.5,0.0,1.25,0.0,2.25,1.25,0.25,0.25,0.5,0.75,0.5,0.0,1.0,-1.98,-1.73,0.77,133.44,1.7,8.3,1.0,0.5,1.75,1.0,0.5,1.25,0.0,0.25,0.0,0.0,0.25,0.25,0.75,-0.86,-0.42,1.14,136.63,-11.5,32.2
3.66,0.5,0.0,1.25,0.25,2.25,1.0,0.25,0.25,0.75,1.0,0.75,0.0,1.0,-2.17,-1.73,0.7,136.81,2.8,3.4,1.0,0.5,1.25,1.25,1.0,1.0,0.25,0.25,0.25,0.0,0.5,0.25,0.75,-0.73,-0.3,1.08,132.69,-10.2,27.3
3.68,0.25,0.0,1.0,0.25,2.25,1.25,0.25,0.25,0.5,1.0,0.5,0.0,1.0,-1.98,-1.67,0.45,134.67,-0.2,3.4,1.25,0.5,1.25,1.0,1.0,1.0,0.25,0.25,0.0,0.25,0.25,0.25,0.5,-0.61,-0.11,0.89,127.14,-10.6,35.0
3.7,0.75,0.0,1.25,0.0,2.25,1.25,0.25,0.25,0.25,1.0,1.0,0.0,0.5,-1.23,-1.05,0.39,134.96,3.2,11.8,0.25,0.25,0.75,0.75,0.5,0.75,0.25,0.25,0.25,0.75,0.25,0.25,0.5,-0.61,0.08,0.64,111.85,-4.3,3.7
3.72,0.25,0.25,0.0,0.25,0.75,1.25,0.0,0.0,0.5,0.0,0.0,0.0,1.0,-0.73,-0.61,0.2,112.17,-5.0,4.1,0.75,0.25,0.5,0.75,0.5,1.0,0.75,0.25,0.25,0.75,0.5,0.5,0.5,-0.92,0.39,0.27,103.94,-5.6,2.9
3.74,0.25,0.0,0.25,0.0,0.5,1.25,0.0,0.0,0.25,0.75,0.0,0.0,0.5,-0.05,-0.11,-0.23,87.34,-7.1,-3.4,1.0,0.25,1.0,0.75,0.5,1.0,0.25,0.25,0.25,0.75,0.25,0.25,0.75,-1.17,0.45,0.14,100.9,-7.0,11.9
3.76,0.25,0.0,0.5,0.0,2.25,1.75,0.5,0.5,0.5,0.5,0.5,0.25,1.0,-0.05,0.27,-0.36,88.39,-3.2,0.3,1.0,0.25,1.0,0.75,1.25,1.0,0.25,0.25,0.25,0.75,0.25,0.25,0.5,-1.36,0.45,0.14,105.92,-6.5,20.6
3.78,0.25,0.0,0.75,0.0,2.25,1.5,0.75,0.5,0.5,0.5,0.5,0.0,1.0,-0.36,0.45,-0.48,98.42,-1.2,4.9,1.0,0.25,1.75,0.75,0.5,0.75,0.25,0.25,0.25,1.0,0.25,0.5,0.75,-1.36,0.33,0.08,112.23,-10.2,9.5
3.8,0.5,0.0,1.25,0.0,2.25,1.25,0.25,0.25,0.5,0.5,0.5,0.0,0.75,-0.73,0.64,-1.23,111.9,2.7,14.6,1.0,0.25,1.25,0.75,2.25,1.0,0.25,0.25,0.25,0.75,0.5,0.25,0.75,-1.36,0.14,0.14,126.96,-5.8,19.7
3.82,0.5,0.0,1.5,0.25,2.25,1.5,0.25,0.25,0.5,0.5,0.5,0.0,1.0,-1.36,1.33,-1.73,125.45,3.0,14.1,1.0,0.25,1.25,0.75,0.5,1.25,0.75,0.5,0.25,0.25,0.0,0.5,0.75,-1.3,0.02,0.2,127.34,-8.6,17.6
3.84,0.5,0.0,1.0,0.25,2.25,1.5,0.25,0.25,0.75,0.5,0.5,0.0,0.75,-0.86,0.89,-1.61,131.97,1.7,13.5,1.25,0.0,1.25,0.75,0.5,0.75,0.25,0.75,0.25,1.0,0.75,0.25,0.75,-1.17,-0.11,0.2,129.43,-7.5,1.8
3.86,0.5,0.0,1.25,0.0,2.25,1.25,0.25,0.25,0.5,0.5,0.5,0.0,0.75,-0.86,0.45,-0.67,131.08,2.7,14.6,1.0,0.0,1.25,0.75,0.5,1.0,0.25,0.25,0.0,0.75,0.75,0.25,0.75,-1.23,-0.23,0.39,123.8,-8.0,6.5
3.88,0.75,0.0,1.0,0.0,2.25,1.25,0.25,0.25,0.5,0.5,0.5,0.0,0.75,-0.98,-0.23,-0.48,130.15,2.5,15.5,1.0,0.25,1.25,0.75,0.5,1.25,0.25,0.25,0.25,1.0,0.25,0.25,1.0,-1.36,-0.3,0.27,124.78,-5.8,7.5
3.9,0.0,0.0,1.0,0.0,2.25,0.25,0.25,0.25,0.0,0.0,0.5,0.0,0.5,-0.86,-0.48,-0.11,115.55,4.4,21.1,1.0,0.0,1.25,0.75,0.5,1.25,0.0,0.25,0.25,1.0,0.25,0.25,0.5,-1.23,-0.17,-0.17,119.68,-6.5,12.3
3.92,0.0,0.0,1.25,0.5,2.25,1.25,0.25,0.25,0.5,0.75,0.5,0.0,1.0,-0.67,-0.61,0.2,119.25,0.8,6.4,0.5,0.25,1.25,1.0,0.5,1.5,0.25,0.25,0.25,0.75,0.25,0.5,0.5,-1.67,-0.05,0.08,120.79,-5.6,11.4
3.94,0.75,0.0,1.0,0.25,2.25,1.25,0.25,0.25,0.5,1.25,0.5,0.0,0.75,-1.05,-0.11,-0.36,125.6,1.4,9.2,1.0,0.5,1.0,0.75,0.5,1.25,0.25,0.25,0.25,1.0,0.25,0.25,0.5,-1.48,0.02,0.02,120.55,-6.2,16.7
3.96,0.75,0.0,1.0,0.0,2.25,1.0,0.25,0.25,0.75,0.5,0.5,0.0,1.0,-0.98,-0.05,-0.61,133.85,3.0,9.5,1.0,0.25,1.25,1.25,0.5,1.25,0.0,0.25,0.25,1.0,0.25,0.75,0.5,-1.36,-0.17,0.08,123.33,-7.5,10.6
3.98,0.5,0.0,1.0,0.25,2.25,1.25,0.25,0.25,0.5,0.75,0.5,0.0,0.75,-0.98,0.08,-0.73,133.64,1.5,11.8,1.0,0.25,1.25,0.5,0.5,1.0,0.0,0.25,0.0,1.0,0.5,0.75,0.75,-1.3,-0.48,0.14,121.66,-6.6,0.0
4.0,0.5,0.0,1.5,0.0,2.25,1.75,0.25,0.25,0.5,0.75,0.5,0.0,0.75,-0.73,-0.05,-0.67,134.83,1.9,14.4,1.0,0.25,1.25,0.75,0.5,1.25,0.0,0.25,0.25,0.25,0.25,0.25,0.5,-1.3,-0.61,0.2,116.93,-9.2,25.3
4.02,0.25,0.0,1.25,0.0,2.25,1.5,0.25,0.25,0.25,0.5,0.5,0.0,0.75,-0.61,-0.17,-0.67,131.27,0.7,14.3,1.0,0.25,1.25,1.0,0.5,0.5,0.25,0.25,0.0,0.5,0.25,0.5,0.75,-1.23,-0.67,0.27,111.66,-11.3,14.5
4.04,0.75,0.0,1.0,1.0,2.25,1.25,0.25,0.25,0.5,1.25,0.5,0.0,0.75,-0.61,-0.23,-0.55,137.94,2.7,13.1,1.0,0.25,1.25,0.75,0.5,0.75,0.0,0.5,0.25,1.5,0.25,0.75,0.5,-1.23,-0.61,0.27,113.62,-6.4,-0.3
4.06,0.5,0.0,1.0,0.25,2.25,1.25,0.25,0.25,0.5,1.0,0.5,0.0,0.75,-0.61,-0.36,-0.61,137.66,1.0,9.3,1.0,0.25,1.25,0.75,0.5,0.75,0.25,0.5,0.25,0.75,0.25,0.75,0.5,-1.17,-0.48,0.39,116.02,-9.0,7.4
4.08,0.25,0.0,1.0,0.25,2.25,1.25,0.25,0.25,0.5,0.75,0.5,0.0,0.75,-0.61,-0.3,-0.8,136.98,0.6,9.4,1.0,0.25,1.0,0.75,0.5,1.25,0.0,0.5,0.25,0.75,0.75,0.5,0.75,-1.23,-0.48,0.39,120.5,-5.3,2.0
4.1,0.25,0.0,1.5,0.0,2.25,1.0,0.25,0.25,0.5,0.25,0.5,0.25,0.75,-0.61,-0.17,-0.86,131.63,4.4,12.0,1.25,0.25,0.75,0.75,0.5,1.5,0.0,0.5,0.25,0.5,0.5,0.25,0.5,-1.3,-0.48,0.27,120.72,-5.3,16.6
4.12,0.5,0.0,1.25,0.0,2.25,1.25,0.25,0.25,0.5,0.25,0.5,0.0,0.75,-0.61,-0.11,-0.8,128.31,3.3,17.4,1.0,0.25,1.25,0.75,0.5,1.25,0.0,0.5,0.25,0.75,0.5,0.75,0.75,-1.23,-0.48,0.27,124.04,-6.3,2.7
4.14,0.5,0.0,1.25,0.0,2.25,1.25,0.25,0.25,0.5,1.0,0.5,0.0,0.75,-0.67,-0.17,-0.55,128.49,1.6,9.4,1.25,0.25,1.0,0.75,0.5,1.5,0.0,0.25,0.0,0.25,0.5,0.5,0.75,-0.98,-0.61,0.33,122.08,-7.1,16.3
4.16,0.25,0.0,1.0,0.0,2.25,1.75,0.25,0.25,0.5,0.75,0.5,0.0,1.0,-0.8,-0.3,-0.55,127.37,-1.5,5.7,1.0,0.25,1.25,0.75,0.5,1.25,0.25,0.25,0.0,0.5,0.25,0.25,0.75,-0.8,-0.73,0.45,119.34,-7.8,19.2
