time,left pressure 0[N/cm虏],left pressure 1[N/cm虏],left pressure 2[N/cm虏],left pressure 3[N/cm虏],left pressure 4[N/cm虏],left pressure 5[N/cm虏],left pressure 6[N/cm虏],left pressure 7[N/cm虏],left pressure 8[N/cm虏],left pressure 9[N/cm虏],left pressure 10[N/cm虏],left pressure 11[N/cm虏],left pressure 12[N/cm虏],left acceleration X[g],left acceleration Y[g],left acceleration Z[g],left total force[N],left center of pressure X[mm],left center of pressure Y[mm],right pressure 0[N/cm虏],right pressure 1[N/cm虏],right pressure 2[N/cm虏],right pressure 3[N/cm虏],right pressure 4[N/cm虏],right pressure 5[N/cm虏],right pressure 6[N/cm虏],right pressure 7[N/cm虏],right pressure 8[N/cm虏],right pressure 9[N/cm虏],right pressure 10[N/cm虏],right pressure 11[N/cm虏],right pressure 12[N/cm虏],right acceleration X[g],right acceleration Y[g],right acceleration Z[g],right total force[N],right center of pressure X[mm],right center of pressure Y[mm]
0.02,0.75,0.0,0.0,0.0,3.0,0.25,0.0,0.75,1.0,2.75,1.5,2.0,3.25,-1.42,0.27,0.7,170.4,-3.0,-45.1,2.0,0.25,1.75,1.0,2.25,1.75,0.75,1.25,0.75,0.5,0.75,0.25,0.5,0.64,-1.17,1.58,117.8,-7.6,24.3
0.04,0.75,0.0,0.0,0.75,2.5,1.25,0.0,0.75,1.0,5.0,0.75,4.75,4.25,1.02,1.77,1.77,233.87,-3.9,-53.7,1.5,0.0,1.75,0.75,1.5,0.75,0.75,1.0,0.75,0.5,0.75,0.25,1.0,0.45,-0.67,0.83,72.86,-9.2,10.7
0.06,0.0,0.0,0.25,1.0,1.75,2.5,0.25,5.5,3.5,7.0,5.25,7.0,6.5,0.14,0.64,1.33,358.99,-4.0,-61.4,1.25,0.25,1.5,0.5,1.25,0.75,0.75,1.25,0.75,0.5,0.75,0.25,0.75,0.2,-0.36,0.39,29.08,-8.0,9.1
0.08,1.0,0.0,0.25,2.25,0.0,2.75,1.25,6.5,4.5,7.5,7.0,7.5,7.25,-0.11,0.08,1.08,539.24,-1.9,-59.5,1.5,0.25,1.75,0.75,1.5,1.25,0.75,1.5,0.75,0.5,0.75,0.25,0.0,0.14,-0.17,0.39,23.86,-8.8,22.6
0.1,1.0,0.0,1.0,2.25,3.5,3.25,0.75,6.5,4.75,7.75,7.0,7.25,7.25,-0.11,0.14,0.95,732.51,-1.8,-48.2,1.25,0.25,1.75,0.5,0.5,0.75,0.5,1.5,0.75,0.5,0.25,0.25,0.0,0.02,-0.11,0.58,24.34,-10.8,20.1
0.12,1.0,0.25,1.0,2.25,3.0,3.5,0.75,7.25,5.0,8.0,6.5,7.25,7.5,-0.11,0.08,0.95,870.41,-2.2,-48.3,1.25,0.25,1.75,1.25,1.25,0.75,0.75,1.25,0.75,0.5,0.75,0.25,0.5,0.08,-0.05,0.7,57.09,-9.9,16.6
0.14,0.75,0.25,1.0,2.25,3.5,3.5,1.0,7.25,5.0,8.5,7.0,7.25,7.75,-0.11,0.08,0.95,967.07,-2.4,-48.4,1.75,0.25,1.5,0.5,1.25,0.5,0.75,1.5,0.75,0.5,0.75,0.25,0.25,0.14,0.02,0.83,83.36,-10.4,17.4
0.16,1.0,0.0,0.5,2.25,3.5,3.5,1.0,7.5,5.0,8.5,7.0,7.25,7.75,-0.11,0.08,0.95,1007.73,-2.7,-49.5,1.75,0.25,0.75,0.5,0.5,0.5,0.75,0.75,0.75,0.5,0.75,0.25,0.75,0.14,0.08,0.95,103.39,-10.3,6.8
0.18,1.0,0.0,1.0,2.25,3.75,3.5,1.0,7.75,5.25,8.5,7.0,7.25,7.75,-0.11,0.08,0.95,1033.74,-2.4,-47.8,1.5,0.25,1.0,0.5,0.5,0.75,0.75,1.0,0.75,0.5,0.75,0.25,0.75,0.14,0.2,1.14,113.86,-8.8,5.4
0.2,1.0,0.25,1.0,2.25,4.25,4.5,1.0,7.75,5.25,8.5,7.0,7.0,7.25,-0.11,0.08,0.95,1041.23,-2.6,-43.9,1.25,0.25,0.75,0.5,0.5,0.5,0.5,0.5,0.75,0.5,0.75,0.25,1.0,0.2,0.33,1.33,114.23,-8.5,-1.3
0.22,1.0,0.25,1.0,2.25,4.5,3.5,1.0,7.75,5.25,8.0,6.75,6.75,7.25,-0.11,0.08,0.95,1021.68,-2.2,-44.1,1.75,0.25,1.25,0.5,0.5,0.5,0.75,0.75,0.75,0.5,0.75,0.25,0.75,0.33,0.52,1.52,116.12,-11.9,10.0
0.24,1.0,0.0,1.0,2.25,4.75,3.75,1.0,7.75,5.25,7.5,6.5,5.75,6.75,-0.11,0.08,0.95,965.56,-2.4,-41.6,1.25,0.25,1.0,0.5,0.5,0.5,0.75,0.75,0.75,0.5,0.75,0.25,0.75,0.39,0.7,1.95,115.18,-9.7,3.3
0.26,1.25,0.25,1.0,2.25,5.75,4.5,1.0,7.75,5.5,7.25,6.25,4.75,6.25,-0.11,0.08,0.95,907.43,-2.5,-35.0,1.25,0.25,0.5,0.5,0.5,0.5,0.5,0.75,0.75,0.25,0.5,0.25,0.5,0.33,1.39,2.52,110.64,-9.0,8.6
0.28,1.25,0.5,1.5,2.5,5.75,5.0,1.5,7.75,5.75,7.0,6.0,4.75,5.5,-0.11,0.08,0.95,850.39,-1.8,-30.7,0.75,0.25,0.75,1.0,0.5,1.0,0.5,0.5,0.75,0.5,0.75,0.25,0.25,0.27,2.64,2.77,109.18,-7.8,10.0
0.3,1.75,0.25,1.5,2.5,5.75,5.5,1.5,7.75,5.75,6.25,5.75,3.25,5.25,-0.11,0.08,0.95,788.5,-1.8,-26.2,1.0,0.25,0.75,0.5,0.5,0.5,0.5,0.5,0.75,0.5,0.75,0.25,0.75,0.14,3.89,2.14,105.45,-8.5,-0.6
0.32,1.75,0.75,1.5,2.5,6.0,5.75,1.5,8.0,5.75,5.5,5.25,3.0,4.25,-0.11,0.08,0.95,751.42,-1.6,-21.0,1.25,0.25,0.75,0.5,0.5,1.0,0.5,0.75,0.75,0.5,0.75,0.25,0.5,-0.05,5.08,1.02,107.81,-7.3,6.6
0.34,1.75,1.25,1.75,3.0,6.25,6.25,1.5,8.0,5.75,5.0,4.5,1.75,3.5,-0.11,0.08,0.95,722.85,-1.3,-12.6,1.25,0.0,1.0,0.5,0.5,0.75,0.5,1.0,0.75,0.5,0.75,0.25,1.0,-1.48,6.08,-2.17,113.96,-6.9,-3.6
0.36,1.75,1.0,2.25,4.5,7.5,6.75,1.5,7.75,5.5,4.5,4.0,2.0,3.0,-0.11,0.08,0.95,722.51,-0.5,-6.1,0.0,0.0,0.5,0.0,0.5,0.5,0.75,2.0,0.25,1.25,0.75,0.5,1.25,-4.42,3.2,-1.61,116.35,4.6,-43.3
0.38,1.75,1.25,2.0,4.75,7.75,7.25,1.5,7.75,5.25,4.25,3.0,1.75,2.25,-0.11,0.08,0.95,720.95,-0.8,-1.0,1.25,0.25,0.5,0.5,0.5,1.25,0.25,1.75,0.75,1.75,0.75,1.75,3.0,1.7,-1.17,3.08,147.95,1.3,-38.0
0.4,1.75,1.5,2.5,5.75,8.5,7.75,1.5,7.75,5.0,3.5,2.5,1.25,2.25,-0.11,0.08,0.95,738.84,-0.3,5.5,1.0,0.25,0.5,0.5,0.25,1.5,0.75,2.0,1.0,4.75,0.75,4.25,5.75,-0.23,1.33,0.83,218.72,3.8,-60.7
0.42,2.25,1.5,2.25,6.5,9.5,8.0,1.5,7.25,4.5,3.5,1.75,1.25,2.25,-0.11,0.08,0.95,758.55,-0.2,9.9,1.25,0.25,0.0,0.0,0.25,2.5,0.0,3.5,3.0,7.25,3.25,6.25,6.75,0.08,0.64,2.02,324.1,4.4,-65.8
0.44,2.75,1.5,2.5,7.0,12.0,8.75,1.25,7.25,3.75,3.0,0.5,1.5,2.25,-0.11,0.08,0.95,800.75,-0.3,16.7,1.5,0.0,1.5,0.0,0.5,3.0,0.0,5.5,4.25,7.75,5.25,6.75,8.25,-0.05,0.27,1.08,490.13,2.7,-60.2
0.46,3.5,1.5,3.0,8.5,13.5,9.25,1.0,6.75,2.75,2.75,1.75,1.5,2.0,-0.11,0.08,0.95,868.8,0.8,20.8,2.25,0.25,1.75,0.5,0.5,3.0,0.75,5.75,4.25,7.75,4.5,6.75,7.75,0.02,0.14,0.95,645.84,1.5,-53.2
0.48,5.25,1.5,3.5,10.5,15.5,9.5,0.25,6.5,2.0,2.0,2.0,1.5,2.0,-0.11,0.14,1.02,971.97,2.2,27.2,2.0,0.25,1.5,0.75,0.5,3.0,0.75,5.75,4.5,7.75,5.5,6.75,8.25,0.08,0.14,0.95,764.67,1.6,-54.9
0.5,6.0,1.25,3.0,11.5,16.0,10.5,0.0,6.0,2.0,2.0,1.25,1.25,2.0,-0.17,0.14,1.08,1066.45,2.1,30.4,2.0,0.25,1.0,0.5,0.5,3.0,0.75,5.75,4.0,7.75,5.25,6.25,8.0,0.08,0.14,0.95,809.76,2.4,-56.1
0.52,7.5,0.5,3.75,13.0,17.5,10.5,0.0,5.5,1.5,2.0,0.5,1.25,2.0,-0.17,0.2,1.08,1165.24,3.2,34.7,2.0,0.25,1.25,0.5,0.5,3.0,0.75,5.75,4.25,7.75,5.25,6.0,8.0,0.08,0.14,0.89,821.31,2.2,-55.0
0.54,8.75,2.25,3.75,14.5,18.0,10.5,0.0,5.25,1.0,2.0,1.75,0.75,2.0,-0.17,0.2,1.14,1278.64,4.3,37.9,1.5,0.25,1.75,0.75,0.5,3.25,0.5,6.5,4.75,7.75,5.25,6.0,7.5,0.08,0.14,0.95,818.84,2.2,-53.3
0.56,10.5,3.25,4.0,13.5,18.5,10.0,0.0,4.25,1.0,1.75,1.25,0.5,2.0,-0.23,0.27,1.27,1348.31,5.5,42.7,1.5,0.25,1.5,0.5,1.0,3.25,0.75,5.75,4.75,7.75,5.25,6.0,7.5,0.08,0.14,0.95,809.53,2.2,-53.3
0.58,10.5,3.25,4.0,13.5,17.5,9.5,0.0,4.25,1.0,1.75,1.75,0.75,1.5,-0.36,0.33,1.39,1380.37,6.0,42.4,0.75,0.5,1.5,0.75,3.0,3.75,0.75,6.0,4.5,7.25,5.25,5.5,8.0,0.08,0.14,0.95,803.41,3.1,-47.8
0.6,11.5,3.25,5.0,13.0,16.0,8.5,0.0,3.5,1.0,2.0,1.5,0.75,1.75,-0.42,0.45,1.7,1379.31,7.4,43.4,1.75,0.5,1.5,0.75,0.5,3.25,0.75,6.5,4.75,7.25,4.5,5.5,7.5,0.08,0.14,0.89,770.61,2.2,-50.8
0.62,9.25,1.5,3.75,8.75,13.0,6.75,0.0,1.25,0.5,0.5,1.5,0.0,0.5,-0.86,0.83,2.33,1212.69,8.5,51.5,2.25,0.25,1.5,0.0,1.25,3.0,0.75,6.5,5.25,7.25,4.25,5.5,6.5,0.08,0.14,0.89,724.5,1.8,-48.8
0.64,7.75,1.5,4.0,6.75,9.25,5.5,0.0,1.5,1.0,1.75,0.0,0.25,0.25,-1.17,1.27,2.95,959.72,8.7,48.9,2.0,0.25,0.5,0.5,1.5,4.25,1.25,5.75,5.25,7.0,5.25,4.5,6.75,0.08,0.14,0.95,676.49,2.8,-47.2
0.66,6.5,1.5,0.0,5.75,7.0,4.5,0.0,1.5,1.0,1.75,0.25,0.25,0.0,-0.98,1.14,3.02,677.84,5.7,45.5,0.75,0.25,1.75,0.75,2.25,4.5,1.25,6.5,5.5,6.5,5.25,4.0,6.0,0.08,0.14,0.95,644.14,2.5,-42.5
0.68,4.5,0.0,0.0,0.0,5.75,1.75,0.0,0.25,1.0,1.0,0.5,0.25,0.25,-0.86,0.27,3.2,401.98,5.2,38.6,1.0,0.5,1.75,0.75,3.0,5.25,1.25,6.75,5.5,6.0,4.5,3.25,5.5,0.08,0.14,0.95,620.88,2.8,-35.0
0.7,1.75,0.0,0.0,2.0,5.75,0.0,0.0,0.5,0.5,1.25,0.5,0.25,1.25,-0.67,-0.67,2.39,245.3,2.6,20.4,2.0,0.75,2.25,1.5,3.0,5.25,1.5,7.0,5.75,5.5,4.25,2.5,4.5,0.08,0.14,0.95,611.84,0.9,-25.1
0.72,0.5,0.0,0.0,0.0,5.25,1.25,0.0,0.5,0.5,1.25,0.5,0.25,1.25,-0.42,-0.8,1.7,124.95,-5.2,6.0,2.0,1.0,2.0,2.25,4.5,5.75,1.75,7.0,5.75,5.0,3.75,2.0,3.75,0.08,0.14,0.95,614.06,0.8,-16.3
0.74,0.0,0.0,0.0,1.0,6.0,0.25,0.0,0.25,0.75,0.5,0.5,0.25,1.0,-0.67,-0.86,1.2,46.62,-1.7,16.3,2.0,1.0,3.0,3.25,5.25,6.0,2.0,7.0,5.75,4.75,3.25,1.5,3.25,0.08,0.14,0.95,633.52,-0.3,-8.4
0.76,0.0,0.0,0.0,0.0,5.5,0.0,0.0,0.25,0.25,0.0,0.5,0.0,1.25,-0.3,-0.73,0.64,0.0,-4.0,16.6,3.25,1.5,3.25,4.5,6.25,7.0,2.75,6.75,5.25,3.5,2.25,1.0,2.0,0.08,0.14,0.95,665.75,-2.0,7.2
0.78,0.0,0.0,0.0,0.0,2.25,0.0,0.0,0.0,0.25,0.0,0.0,0.0,0.25,-0.36,-0.55,0.08,0.0,-2.9,32.6,3.75,1.75,3.75,5.75,7.5,7.25,3.0,6.5,5.25,2.0,2.0,0.75,1.5,0.08,0.14,0.95,710.57,-3.7,16.8
0.8,0.0,0.0,0.0,0.0,2.25,0.0,0.0,0.0,0.25,0.0,0.0,0.0,0.25,-0.42,-0.42,0.08,0.0,-2.9,32.6,4.75,2.0,5.5,7.5,8.75,7.75,3.5,6.5,4.5,2.0,2.0,0.5,1.75,0.08,0.14,0.95,795.3,-5.3,23.1
0.82,0.0,0.0,0.0,0.0,1.75,0.0,0.0,0.0,0.25,0.0,0.0,0.0,0.25,-0.48,-0.36,0.2,0.0,-2.8,27.9,5.5,2.25,6.25,9.25,9.5,8.25,4.0,5.75,3.25,1.75,1.5,0.5,1.5,0.08,0.14,0.95,887.03,-6.5,30.4
0.84,0.0,0.0,0.0,0.0,2.5,0.0,0.0,0.25,0.25,0.0,0.0,0.0,0.25,-0.55,-0.36,0.45,0.0,-3.9,29.4,6.25,3.0,7.0,11.5,11.5,8.5,4.5,5.25,2.25,1.75,1.5,0.25,1.0,0.02,0.14,0.95,1011.26,-7.6,37.5
0.86,0.0,0.0,0.0,0.0,1.75,0.0,0.0,0.0,0.25,0.0,0.0,0.0,0.25,-0.42,-0.36,0.83,0.0,-2.8,27.9,6.25,2.25,7.5,12.5,11.0,8.25,4.25,4.0,1.75,1.25,0.75,0.0,1.0,0.02,0.2,1.08,1078.71,-8.7,42.2
0.88,0.75,0.0,0.0,0.75,0.75,1.0,0.0,0.25,1.0,0.5,0.5,0.25,0.75,-0.42,-0.17,0.89,0.0,1.5,-6.3,7.25,1.75,8.25,0.0,13.5,6.25,4.5,3.75,1.0,0.0,0.0,0.0,0.25,0.02,0.2,1.14,1004.56,-9.0,49.0
0.9,0.75,0.0,0.0,1.0,3.0,1.0,0.0,0.0,1.0,1.0,0.0,0.0,1.25,-0.36,0.02,0.95,47.78,-1.2,9.7,8.75,3.5,8.0,14.5,12.5,8.75,3.75,3.25,0.75,0.5,0.75,0.0,1.25,0.14,0.33,1.2,1070.42,-10.0,49.1
0.92,0.75,0.0,0.0,1.0,4.5,1.0,0.0,0.25,0.75,1.5,0.5,0.0,0.5,-0.36,0.14,1.08,108.33,-1.4,17.1,8.5,3.0,8.75,11.0,11.0,7.5,4.25,2.0,1.0,0.75,0.0,0.0,0.25,0.08,0.45,1.33,1057.61,-11.9,53.6
0.94,0.5,0.0,0.0,1.0,2.5,1.0,0.25,0.5,1.0,1.75,0.5,0.0,1.0,-0.36,0.27,1.33,136.77,-2.5,-4.1,8.5,2.5,8.75,8.75,11.0,6.25,5.5,2.0,0.75,0.75,0.5,0.25,1.0,0.14,0.64,1.77,1056.87,-12.2,49.3
0.96,0.75,0.0,0.0,1.0,3.0,0.75,0.25,0.25,0.75,1.5,0.5,0.0,1.25,-0.36,0.45,1.64,156.13,-1.2,1.2,8.25,2.75,7.5,7.5,7.75,5.5,6.0,2.0,0.75,0.75,0.75,0.25,1.0,0.58,1.39,2.7,961.83,-13.1,48.0
0.98,0.75,0.0,0.0,0.75,3.5,1.0,0.0,0.25,0.75,1.75,0.75,0.0,1.0,-0.55,0.7,2.14,166.51,-2.3,2.2,6.75,1.75,5.5,4.0,5.5,3.75,4.5,2.0,0.75,0.5,0.75,0.25,1.0,0.58,1.95,3.33,787.83,-13.1,44.3
1.0,0.5,0.0,0.0,1.0,3.75,0.75,0.0,0.25,0.75,1.75,0.5,0.0,1.0,-0.67,1.33,2.64,174.41,-2.5,3.9,5.0,0.25,3.5,3.0,3.75,3.0,2.75,2.0,0.75,0.75,0.75,0.25,1.0,0.52,0.89,3.27,557.53,-10.9,34.7
1.02,0.5,0.0,0.0,1.0,1.25,0.75,0.0,0.25,0.75,1.75,0.5,0.0,1.0,-0.92,2.33,3.27,165.55,-2.2,-14.1,2.0,0.0,3.0,1.5,2.5,1.25,1.25,2.0,0.75,0.5,0.75,0.25,0.5,0.58,-0.61,2.89,346.98,-10.3,24.5
1.04,0.75,0.0,0.0,1.0,1.25,1.0,0.0,0.25,0.75,1.75,0.5,0.0,0.75,-1.23,4.58,2.7,153.68,-1.4,-6.5,2.0,0.25,1.75,1.25,2.5,2.5,0.75,2.0,0.75,0.5,0.75,0.25,1.0,-0.05,-0.05,-0.67,233.64,-4.4,18.6
1.06,0.75,0.0,0.0,1.0,2.25,1.0,0.0,0.0,1.0,1.75,0.5,0.25,1.25,-0.61,5.83,-1.42,149.58,-1.3,-7.4,2.0,0.25,2.0,1.25,2.25,2.0,0.75,1.75,0.75,0.5,0.25,0.25,1.25,0.33,-0.42,2.33,151.52,-5.8,19.9
1.08,0.75,0.0,0.0,0.0,2.25,1.0,0.0,0.25,1.0,2.0,0.75,1.5,1.25,3.33,7.89,-2.48,151.45,-2.3,-29.0,2.0,0.25,2.0,1.0,1.75,2.0,0.75,1.75,0.75,0.5,0.75,0.25,1.0,0.52,-1.17,1.89,109.3,-6.5,17.0
1.1,0.75,0.0,0.0,0.0,2.25,1.0,0.0,0.75,1.0,2.0,2.0,1.75,3.0,0.08,-2.55,-1.05,174.92,-2.9,-44.3,1.75,0.25,1.75,0.5,2.25,1.75,0.75,1.75,0.75,0.5,0.75,0.25,0.75,0.64,-0.98,1.2,90.94,-5.5,16.9
1.12,0.5,0.0,0.0,0.25,2.5,0.5,0.0,0.5,1.0,2.25,2.0,3.0,3.25,-1.11,0.95,0.64,200.6,-1.8,-52.0,1.25,0.25,1.75,0.5,1.25,1.75,0.75,1.75,0.75,0.5,0.75,0.25,0.25,0.52,-0.61,0.7,75.21,-6.0,15.6
1.14,0.75,0.0,0.0,0.0,0.0,1.75,0.0,0.25,1.0,5.25,1.25,4.75,4.25,1.2,1.39,1.95,239.77,-4.8,-73.6,1.25,0.25,1.75,0.5,1.25,1.75,0.75,1.5,0.75,0.5,0.75,0.25,0.25,0.33,-0.36,0.39,52.06,-6.5,16.8
1.16,0.5,0.0,0.5,1.25,3.0,2.25,0.5,5.0,2.75,6.75,5.25,7.25,6.5,0.08,0.52,2.33,359.97,-2.9,-55.3,1.25,0.25,1.5,0.5,1.25,1.75,0.75,1.5,0.75,0.5,0.75,0.25,1.0,0.08,-0.17,0.39,64.47,-4.5,7.5
1.18,1.0,0.0,0.25,2.25,3.0,3.25,0.5,6.5,4.5,7.5,7.5,7.5,7.25,-0.11,0.02,1.08,553.84,-2.3,-51.7,1.25,0.25,1.25,0.5,1.0,1.75,0.75,1.25,0.75,0.5,0.75,0.25,0.25,0.02,-0.05,0.45,76.09,-5.8,14.9
1.2,0.75,0.25,0.0,2.25,3.0,3.5,0.5,7.0,5.0,7.5,7.0,7.5,7.25,-0.11,0.08,0.95,746.92,-2.8,-51.3,1.0,0.25,1.25,1.25,0.5,1.5,0.5,1.5,0.75,0.75,0.75,0.25,0.75,0.02,0.02,0.64,98.18,-4.8,4.3
1.22,1.0,0.0,0.75,2.25,3.0,3.5,0.25,7.25,5.0,7.5,7.75,7.5,7.25,-0.11,0.08,0.95,887.06,-2.1,-50.2,0.75,0.25,0.75,1.25,0.5,1.75,0.5,1.25,0.75,0.5,0.75,0.25,0.75,0.08,0.02,0.77,115.94,-2.8,2.9
1.24,1.0,0.0,0.5,2.25,3.5,3.5,0.75,7.25,5.25,8.25,7.75,7.5,7.25,-0.11,0.08,0.95,975.31,-2.3,-49.6,0.75,0.25,0.75,0.5,0.5,1.0,0.75,0.75,0.75,0.5,0.75,0.25,0.75,0.08,0.08,1.08,117.88,-5.4,-2.2
1.26,0.0,0.0,0.25,2.25,3.5,3.5,0.75,7.5,5.25,8.5,7.75,7.5,7.25,-0.11,0.08,0.95,1009.15,-3.3,-52.7,0.75,0.25,0.75,0.75,0.5,2.0,0.5,1.0,1.0,0.5,0.75,0.25,0.75,0.08,0.2,1.2,122.01,-2.1,0.7
1.28,0.0,0.0,0.0,2.25,3.0,3.5,0.25,7.5,5.25,8.5,7.5,7.5,7.5,-0.11,0.08,0.95,1010.54,-3.7,-55.0,0.75,0.25,0.75,0.5,0.5,1.25,0.75,1.25,0.75,0.5,0.75,0.25,0.5,0.14,0.39,1.39,116.07,-3.8,-0.1
1.3,0.0,0.0,0.5,2.25,4.25,3.5,0.5,7.5,5.5,8.5,7.75,7.5,7.25,-0.11,0.08,0.95,1014.18,-3.1,-50.6,0.75,0.0,0.75,0.75,1.0,1.75,0.75,0.75,0.75,0.5,0.0,0.25,0.25,0.27,0.58,1.64,114.47,-3.1,17.4
1.32,0.75,0.25,0.25,2.25,4.75,3.5,0.5,7.5,5.5,8.25,7.75,7.25,7.25,-0.11,0.08,0.95,1005.99,-2.7,-47.2,0.75,0.25,0.5,0.5,0.5,1.5,0.75,0.5,0.75,0.5,0.75,0.25,0.5,0.33,0.83,1.95,110.04,-3.9,2.7
1.34,0.5,0.25,0.25,2.25,4.25,3.75,0.25,7.75,5.5,7.5,7.25,6.5,6.75,-0.11,0.08,0.95,964.59,-3.1,-46.5,0.75,0.25,1.0,0.5,0.5,1.25,0.5,0.5,0.75,0.5,0.75,0.25,0.75,0.52,1.27,2.45,110.86,-5.9,1.5
1.36,0.75,0.25,0.75,2.25,5.0,4.5,0.5,7.75,5.75,7.25,7.0,5.75,6.25,-0.11,0.08,0.95,919.05,-2.7,-40.3,0.75,0.25,0.5,0.5,0.5,1.25,0.5,1.0,0.75,0.0,0.75,0.25,0.5,0.58,2.33,3.2,107.43,-4.2,3.8
1.38,1.0,0.5,1.0,2.25,4.75,4.5,0.75,7.75,6.0,7.0,6.5,5.0,5.5,-0.11,0.08,0.95,853.74,-2.2,-36.3,0.5,0.25,0.5,0.25,0.5,1.25,0.75,0.75,0.75,0.5,0.75,0.25,0.75,0.45,4.08,2.2,105.11,-1.9,-8.6
1.4,1.0,0.75,1.0,2.5,5.25,5.5,1.0,7.75,6.25,6.0,6.5,4.75,5.0,-0.11,0.08,0.95,794.17,-1.9,-31.0,0.75,0.25,0.5,0.5,0.5,1.0,0.5,0.5,0.75,0.5,0.75,0.25,0.25,0.39,5.45,-1.61,101.2,-5.9,4.3
1.42,1.75,1.0,1.0,2.5,4.75,5.5,1.5,7.75,6.25,5.75,5.75,3.25,4.25,-0.11,0.08,0.95,745.01,-1.4,-24.9,1.25,0.25,0.5,0.0,0.5,0.5,0.75,0.25,1.0,0.5,0.75,0.5,0.75,-2.98,6.7,-2.05,100.74,-9.0,-7.3
1.44,1.75,1.0,1.5,2.5,5.75,5.75,1.5,7.5,6.25,4.5,5.5,2.75,3.25,-0.11,0.08,0.95,713.58,-0.6,-17.6,0.5,0.0,0.25,0.0,0.25,0.5,0.0,0.25,0.75,0.0,0.0,0.0,0.0,-1.55,-1.55,1.2,77.14,-7.7,22.1
1.46,1.75,1.25,1.5,3.5,6.25,6.25,1.5,7.25,6.25,4.5,4.75,2.0,3.0,-0.11,0.08,0.95,692.66,-0.6,-11.3,0.0,0.0,0.25,0.0,0.0,0.5,0.0,0.25,0.25,0.0,0.0,0.25,0.75,1.52,-1.36,2.14,55.58,4.6,-44.3
1.48,1.75,1.25,2.25,4.75,7.0,6.75,1.5,7.25,6.25,4.25,4.5,1.75,2.25,-0.11,0.08,0.95,699.92,0.3,-4.4,1.0,0.25,0.5,0.5,0.5,0.5,0.5,1.75,0.75,2.0,0.75,1.0,2.75,0.64,0.64,0.33,88.89,1.1,-39.0
1.5,2.0,1.5,2.5,4.75,7.75,7.0,1.5,7.0,6.0,3.5,2.75,1.75,2.25,-0.11,0.08,0.95,710.83,0.4,1.8,1.75,0.25,0.5,0.5,0.5,0.5,0.0,2.0,1.0,4.0,0.75,3.25,5.75,0.14,0.83,1.58,168.77,2.5,-56.7
1.52,2.75,1.5,2.5,5.5,8.0,7.5,1.5,7.0,5.75,3.25,3.25,1.5,2.0,-0.11,0.08,0.95,737.14,1.1,5.5,0.5,0.0,0.25,0.0,0.25,0.25,0.5,2.75,2.5,5.75,1.5,5.25,6.5,-0.11,0.7,3.33,264.67,4.1,-76.0
1.54,3.5,1.5,3.5,6.5,9.25,7.75,1.5,6.25,5.25,3.0,3.0,1.5,2.0,-0.11,0.08,0.95,778.23,2.4,11.8,0.5,0.0,0.25,0.5,0.25,2.0,0.5,4.75,3.25,6.75,4.25,6.0,8.0,-0.11,0.27,1.08,389.76,4.4,-68.4
1.56,5.0,1.5,3.75,6.75,10.5,8.0,1.0,6.25,5.0,2.75,2.0,1.5,2.0,-0.11,0.08,0.95,834.38,3.0,17.6,1.25,0.0,1.0,0.0,0.5,1.75,0.5,4.75,2.75,7.0,4.25,5.25,8.0,0.14,0.14,0.89,510.63,3.5,-63.6
1.58,5.75,1.5,4.0,8.25,12.0,8.75,0.75,5.5,4.25,2.25,0.5,1.5,1.75,-0.11,0.08,0.95,896.71,3.5,26.2,2.0,0.25,1.75,0.5,0.5,2.75,1.0,4.75,3.5,6.75,3.25,5.0,7.5,0.08,0.14,0.95,600.41,1.8,-50.8
1.6,7.0,1.75,5.0,10.5,14.0,8.75,0.5,5.5,3.5,2.0,0.5,1.5,1.5,-0.11,0.14,1.02,991.95,5.0,32.3,2.0,0.25,0.25,0.5,0.0,2.75,0.0,4.75,3.5,7.25,3.0,5.5,7.0,0.14,0.14,0.95,634.19,3.8,-58.4
1.62,8.25,1.75,6.25,11.0,16.0,9.0,0.0,4.75,2.75,2.0,0.5,1.5,2.0,-0.11,0.14,1.08,1107.56,5.7,35.4,1.75,0.25,1.0,0.5,0.5,2.75,0.5,5.5,4.0,7.25,4.25,5.5,8.0,0.08,0.14,0.89,676.84,2.9,-56.1
1.64,9.5,2.25,7.25,14.5,16.5,8.75,0.0,4.5,2.25,1.75,1.0,1.0,2.0,-0.11,0.14,1.14,1254.38,7.4,39.8,2.0,0.25,1.5,0.5,0.5,3.0,0.75,5.75,4.0,7.25,4.5,6.0,8.25,0.08,0.14,0.95,712.92,2.2,-54.2
1.66,12.0,3.0,8.25,15.0,17.0,7.75,0.0,3.75,2.0,2.0,2.0,0.75,1.5,-0.11,0.2,1.27,1376.09,9.4,43.4,2.0,0.25,0.75,0.5,0.5,3.0,0.75,5.75,4.0,7.25,4.5,5.5,8.25,0.08,0.14,0.95,737.59,3.0,-55.6
1.68,14.0,3.25,10.5,14.5,15.5,6.75,0.0,2.5,1.5,2.0,1.5,0.75,1.5,-0.3,0.33,1.45,1450.16,11.9,47.8,2.0,0.25,0.75,1.0,0.5,3.0,0.5,5.5,4.5,7.25,4.0,5.5,8.0,0.08,0.14,0.89,742.24,2.7,-53.8
1.7,14.0,3.25,10.5,14.5,13.0,5.75,0.0,1.5,1.0,2.0,1.75,0.5,1.25,-0.3,0.39,1.58,1454.21,13.5,50.3,2.0,0.75,1.25,0.0,0.5,2.0,0.75,5.75,4.0,6.0,4.25,4.5,7.75,0.08,0.14,0.89,699.52,1.9,-52.9
1.72,11.0,1.5,10.0,10.5,11.5,3.5,0.0,2.0,1.0,0.5,1.25,0.0,1.0,-0.36,0.58,1.89,1335.41,14.6,52.1,1.75,0.25,1.5,0.5,0.5,3.0,0.75,5.75,5.25,6.75,4.5,4.5,7.0,0.08,0.14,0.89,660.33,1.8,-50.6
1.74,9.0,1.5,7.5,8.5,8.0,2.75,0.0,0.25,0.25,0.5,0.0,0.0,0.0,-0.8,1.08,2.64,1053.46,16.8,63.1,2.0,0.25,1.75,0.5,1.0,3.0,0.75,5.5,5.25,6.5,4.0,4.25,6.25,0.08,0.14,0.95,618.29,1.2,-45.6
1.76,7.75,1.5,5.0,7.0,6.75,2.5,0.0,0.25,1.0,1.75,0.0,0.0,1.25,-1.11,1.39,2.95,775.04,13.4,49.7,2.0,0.25,2.0,0.5,1.25,3.75,0.75,5.75,5.5,6.0,4.75,3.25,6.25,0.08,0.14,0.95,598.42,1.2,-41.5
1.78,6.0,1.0,2.75,5.25,6.0,1.5,0.0,0.75,0.75,0.75,0.5,0.0,0.5,-0.86,1.02,3.08,526.8,12.7,50.9,2.0,0.25,2.25,1.0,2.25,3.0,1.25,6.25,5.25,5.0,3.5,2.5,4.5,0.08,0.14,0.95,556.67,0.0,-31.0
1.8,2.5,0.0,0.0,0.0,2.5,0.0,0.0,0.25,1.0,1.75,0.5,0.0,0.75,-0.86,-0.67,3.02,294.87,4.9,8.6,2.0,0.75,2.75,1.25,3.0,4.5,1.75,6.5,5.75,5.0,4.25,2.0,4.5,0.08,0.14,0.95,559.47,-0.1,-23.7
1.82,1.75,0.0,0.25,2.0,5.75,0.5,0.0,0.0,1.0,1.75,0.5,0.75,0.75,-0.11,-0.3,1.77,184.21,3.5,18.6,2.0,1.0,3.0,2.0,4.25,5.25,1.75,6.5,5.75,3.75,3.25,1.75,3.25,0.08,0.14,0.95,562.15,-0.8,-11.6
1.84,1.75,0.25,0.0,1.75,5.75,1.0,0.0,0.25,0.5,2.0,0.75,0.25,1.0,-0.67,-0.8,2.2,97.45,0.9,18.9,2.0,1.0,3.0,2.25,4.5,5.25,2.0,6.25,5.75,3.75,2.5,1.0,2.75,0.08,0.14,0.95,567.96,-0.9,-6.3
1.86,1.0,0.0,0.0,0.0,5.75,1.75,0.0,0.25,0.75,1.25,1.0,0.0,1.0,-0.36,-0.86,1.83,49.93,-3.3,13.7,2.5,1.25,3.5,3.25,5.75,6.25,2.5,6.0,5.25,3.25,2.75,1.0,2.0,0.08,0.14,0.95,589.16,-2.1,3.3
1.88,0.25,0.0,0.0,1.25,5.5,1.5,0.0,0.25,1.0,0.75,0.75,0.0,1.0,-0.36,-0.67,1.08,26.63,-2.5,16.4,3.25,1.75,3.75,5.5,6.75,6.25,3.0,5.75,4.75,2.0,2.0,0.75,1.75,0.08,0.2,0.89,630.85,-4.1,15.5
1.9,0.5,0.0,0.0,1.75,5.25,1.0,0.0,0.25,1.0,0.0,0.75,0.25,0.75,-0.36,-0.55,0.64,29.49,1.0,23.9,3.75,1.25,5.5,6.0,7.75,7.25,3.0,5.75,4.0,2.0,2.0,0.25,1.75,0.08,0.2,0.95,693.88,-4.8,20.8
1.92,0.0,0.0,0.25,1.0,3.75,0.5,0.0,0.25,1.0,0.75,1.25,0.25,1.0,-0.36,-0.42,0.58,30.86,0.0,-1.0,5.0,2.0,5.75,8.25,9.0,7.75,3.5,4.75,2.75,0.5,1.25,0.25,1.5,0.08,0.2,0.95,766.19,-6.9,34.0
1.94,0.0,0.0,0.0,2.0,2.5,0.0,0.0,0.25,1.0,0.5,0.75,0.25,0.75,-0.36,-0.3,0.58,35.38,3.0,2.8,4.25,1.75,6.0,9.5,9.25,8.0,3.25,4.0,2.0,1.75,0.75,0.5,1.0,0.08,0.2,1.02,827.31,-6.5,34.9
1.96,0.25,0.0,0.25,1.0,3.0,0.0,0.0,0.0,1.0,0.5,0.5,0.0,0.75,-0.3,-0.17,0.7,51.4,3.0,11.3,5.5,1.25,7.0,7.75,9.25,5.0,3.0,3.25,1.5,0.5,0.5,0.0,0.75,0.02,0.2,1.2,817.56,-10.3,43.7
1.98,0.75,0.0,0.0,1.0,4.75,0.0,0.0,0.0,1.0,0.5,0.5,0.25,0.0,-0.11,-0.17,0.83,75.64,3.8,29.9,7.5,2.25,6.25,11.0,11.0,8.5,2.75,3.25,0.75,0.0,0.0,0.0,0.25,0.08,0.33,1.2,862.6,-9.0,51.9
2.0,0.5,0.0,0.0,1.0,4.75,0.0,0.0,0.25,1.0,0.5,0.5,0.0,0.5,-0.11,-0.11,0.89,96.49,1.4,22.7,8.25,3.5,7.5,11.5,11.5,9.25,2.25,3.0,0.75,1.25,0.75,0.5,0.75,0.14,0.39,1.33,950.15,-8.9,47.1
2.02,0.75,0.0,0.0,1.0,3.75,0.0,0.0,0.25,1.0,0.5,0.75,0.5,1.0,-0.3,-0.05,0.89,121.82,2.6,5.3,8.25,3.5,7.5,11.0,12.0,8.75,3.75,3.25,0.75,1.5,0.75,0.5,1.0,0.33,0.52,1.52,1052.93,-9.0,45.5
2.04,0.5,0.0,0.25,1.0,3.5,0.0,0.0,0.25,1.0,0.5,0.75,0.0,0.75,-0.3,0.02,0.83,134.42,3.1,12.5,8.0,3.25,6.75,7.5,11.0,7.75,5.0,3.25,0.75,1.0,0.75,0.5,1.0,0.83,1.39,4.08,1065.88,-9.2,44.9
2.06,0.5,0.25,0.0,0.0,3.0,0.0,0.0,0.0,1.25,0.5,0.75,0.0,1.0,-0.3,0.08,1.02,121.48,1.1,0.4,7.0,2.5,3.75,4.0,7.75,6.25,4.0,2.0,0.75,0.75,0.75,0.25,1.0,0.95,2.89,4.58,927.68,-8.5,44.3
2.08,3.0,0.0,0.0,16.0,3.75,0.75,0.0,0.25,2.5,1.75,2.0,0.25,0.0,6.45,7.52,-4.98,228.69,12.0,34.8,5.0,1.25,2.0,2.0,3.5,4.0,1.5,2.0,0.75,0.5,0.75,0.25,1.0,-0.55,1.64,6.02,665.43,-7.5,35.8
2.1,2.25,0.0,1.25,0.0,5.75,0.0,0.0,0.25,0.25,0.5,0.0,0.0,0.0,1.95,7.95,5.39,235.58,8.3,52.8,0.5,0.0,0.5,0.0,0.0,2.5,0.75,0.5,0.75,0.5,0.75,0.25,1.0,-1.8,1.27,3.83,360.05,2.3,-15.2
2.12,1.25,0.0,0.0,1.25,2.25,0.75,0.0,0.0,1.0,1.75,0.0,0.0,0.0,0.95,1.83,-0.05,230.59,2.7,21.4,2.0,0.0,0.0,0.75,0.25,2.25,0.0,0.75,0.75,0.75,0.0,0.25,0.0,3.58,4.33,2.2,191.9,-2.1,23.1
2.14,1.0,0.0,0.0,1.25,3.5,0.75,0.0,0.0,1.0,1.75,0.5,0.0,0.5,0.64,-0.92,-2.17,198.1,0.7,13.4,2.0,0.25,0.5,0.75,1.0,1.75,0.5,0.5,0.75,0.5,0.75,0.25,0.5,1.45,0.7,3.14,71.97,-6.5,19.1
2.16,0.75,0.0,0.0,0.0,3.0,0.75,0.0,0.25,1.0,1.75,0.5,0.25,0.5,-1.05,-0.48,0.2,172.98,-2.4,-2.3,1.75,0.25,1.75,0.5,1.5,1.75,0.5,2.0,1.0,0.0,0.75,0.25,1.0,-0.48,-0.05,2.02,34.86,-6.0,13.2
2.18,1.0,0.0,0.0,1.0,3.0,1.0,0.0,0.25,1.0,1.75,0.5,0.0,0.5,-0.55,-2.23,0.14,153.87,-0.3,9.3,0.75,0.0,1.75,0.0,0.5,0.5,0.5,1.25,0.25,0.0,0.0,0.0,0.0,0.2,0.08,0.39,0.0,-13.3,32.9
2.2,0.5,0.0,0.0,1.75,3.75,0.75,0.0,0.25,1.0,1.75,0.5,0.0,0.5,0.2,-3.67,-0.86,157.75,-0.3,11.9,0.75,0.0,0.25,0.0,0.25,0.5,0.0,0.25,0.5,0.0,0.0,0.0,0.0,1.89,-0.55,-1.67,0.0,-9.9,35.3
2.22,5.25,0.75,0.0,4.5,2.25,1.25,0.0,0.5,0.25,0.5,0.75,0.0,0.0,1.08,-3.42,-1.55,192.52,13.7,54.9,0.5,0.0,0.25,0.0,0.0,0.5,0.0,0.25,0.25,0.0,0.0,0.0,0.0,2.02,-0.92,-2.61,0.0,-8.3,34.4
2.24,8.75,2.0,1.5,7.5,7.0,3.25,0.0,0.25,0.25,1.0,0.25,0.0,0.25,-1.05,7.95,7.95,287.4,11.9,59.4,0.75,0.0,0.25,0.0,0.0,2.0,0.0,0.25,0.75,0.5,0.0,0.25,0.0,0.77,-0.8,-2.17,0.0,2.1,9.8
2.26,10.0,2.5,4.75,12.0,9.0,5.25,0.0,0.25,0.25,0.5,0.0,0.0,0.0,1.33,1.95,0.02,463.73,13.2,62.6,1.75,0.25,1.5,0.5,0.5,1.75,0.5,1.75,0.75,0.5,0.75,0.5,0.25,-0.36,-1.17,1.33,0.0,-7.0,12.1
2.28,11.5,3.25,8.25,14.5,14.0,6.5,0.0,0.25,0.25,0.5,0.0,0.0,0.25,-0.36,0.83,2.58,766.89,13.0,61.4,0.0,0.0,1.5,0.0,0.5,0.5,0.25,1.25,0.25,0.0,0.75,0.0,0.75,-0.17,-4.67,2.89,6.06,-5.1,-9.3
2.3,12.5,4.25,10.5,14.5,16.0,6.75,0.0,0.5,0.25,0.5,0.5,0.0,1.0,0.2,0.64,2.2,1096.06,13.0,58.9,0.75,0.25,0.5,0.5,0.5,0.5,0.0,1.5,0.75,0.5,0.75,0.5,0.25,0.02,-2.67,1.7,62.66,-3.9,-8.1
2.32,12.0,4.5,9.5,14.0,14.0,6.75,0.0,0.0,0.25,0.0,0.0,0.0,0.0,-1.11,1.39,2.89,1298.18,13.9,64.5,0.75,0.25,0.75,0.5,0.5,2.0,0.25,1.75,0.5,0.5,0.75,0.5,1.0,1.89,0.58,-4.17,102.69,0.8,-7.8
2.34,11.5,3.75,10.0,10.5,12.0,6.75,1.5,0.25,0.25,0.25,0.25,0.0,0.0,-4.17,2.33,4.2,1356.89,14.4,62.5,1.0,0.25,0.75,0.5,0.5,2.0,0.0,1.25,0.75,0.75,0.75,0.5,1.0,1.45,0.64,-3.86,131.28,-0.3,-6.6
2.36,11.5,3.75,7.25,6.75,8.75,5.25,1.5,0.25,0.25,0.0,0.0,0.0,0.25,-1.42,2.27,2.95,1241.39,15.3,65.2,0.75,0.25,0.75,0.5,0.5,1.75,0.0,1.75,0.75,0.5,0.75,0.5,1.0,2.7,0.52,-1.98,138.81,0.3,-10.0
2.38,8.0,3.25,3.75,4.0,7.0,3.25,0.0,0.0,0.25,0.0,0.0,0.0,0.0,-0.86,3.02,2.89,964.04,14.1,68.3,0.75,0.25,0.75,0.5,0.5,1.75,0.0,1.5,0.75,0.5,0.75,0.5,1.0,2.14,-0.61,-0.8,145.45,0.0,-9.3
2.4,4.5,0.0,0.0,1.0,3.75,0.0,0.0,0.0,0.5,0.75,0.0,0.0,0.0,-1.92,2.89,2.83,595.85,13.3,58.0,1.0,0.25,0.75,0.5,0.5,1.5,0.0,1.25,0.75,0.5,0.75,0.5,1.0,0.02,-2.23,0.39,148.89,-2.0,-6.9
2.42,2.0,0.0,0.0,0.0,2.25,0.0,0.0,0.0,0.25,0.0,0.0,0.0,0.0,-2.55,0.33,1.45,316.12,12.6,66.2,1.25,0.0,0.5,0.5,0.5,1.0,0.0,0.75,0.75,0.5,0.75,0.5,1.0,-2.05,-3.23,-0.55,146.2,-4.1,-9.8
2.44,1.25,0.5,0.0,1.0,4.25,0.0,0.0,0.0,0.75,0.0,0.0,0.0,0.0,-1.3,0.89,0.83,168.28,6.9,54.8,0.75,0.25,1.0,0.5,0.5,0.75,0.0,1.0,0.75,0.5,0.75,0.5,1.0,-2.61,-2.61,0.08,140.68,-4.8,-10.2
2.46,0.75,0.0,0.0,0.25,3.5,0.0,0.0,0.0,0.5,0.0,0.0,0.0,0.25,0.39,2.33,0.39,41.26,3.1,43.9,0.75,0.25,1.25,0.5,0.5,0.5,0.0,0.75,0.75,0.5,0.75,0.5,1.0,-2.05,-2.17,0.83,132.13,-7.4,-8.4
2.48,0.25,0.0,0.0,0.0,3.5,0.0,0.0,0.0,0.25,0.0,0.0,0.0,0.0,-0.8,1.77,0.64,0.0,-0.4,50.7,1.0,0.25,1.5,0.5,0.5,1.0,0.25,1.25,0.5,0.25,0.75,0.25,1.5,-1.42,-0.67,-0.8,131.33,-5.7,-3.2
2.5,0.25,0.0,0.0,0.0,2.25,1.0,0.0,0.0,0.75,1.75,0.0,0.5,0.0,-1.48,0.58,1.52,0.0,-5.3,-3.0,1.25,0.25,1.0,0.75,0.5,0.75,0.0,0.75,0.75,0.5,0.75,0.5,1.0,-0.86,0.52,-1.48,129.67,-7.4,-1.6
2.52,1.5,0.0,0.0,0.0,3.0,1.0,0.0,0.25,0.75,1.25,1.0,0.0,0.5,-1.55,-1.73,1.77,0.0,0.4,9.7,1.25,0.25,1.0,0.5,0.5,1.25,0.0,1.0,0.75,0.5,0.75,0.5,1.0,-0.55,1.27,-2.42,136.92,-5.0,-2.5
2.54,1.75,0.0,0.0,0.0,2.5,0.75,0.0,0.5,0.75,0.5,0.75,0.0,0.75,-1.36,-4.05,3.83,0.0,2.5,13.4,1.5,0.25,0.5,0.5,0.5,0.5,0.0,1.25,0.5,0.5,0.75,0.5,1.0,0.14,1.95,-1.73,131.12,-5.2,-6.8
2.56,0.5,0.0,0.0,0.0,1.75,0.0,0.0,0.25,0.75,1.25,0.0,0.0,0.5,0.45,-5.73,4.39,0.0,-2.3,-6.6,1.0,0.25,0.5,0.5,0.5,1.0,0.25,1.25,0.75,0.5,0.75,0.25,1.0,0.27,1.89,-0.67,127.09,-2.5,-7.7
2.58,0.25,0.0,0.0,0.0,2.25,0.0,0.0,0.0,0.25,0.5,0.0,0.75,1.0,3.52,-2.86,0.08,0.0,-2.3,-14.9,1.0,0.25,0.5,0.5,0.5,1.25,0.0,0.5,0.75,0.5,0.75,0.5,1.0,0.77,1.27,0.27,122.33,-3.3,-7.3
2.6,0.75,0.25,0.0,0.75,1.75,0.75,0.0,0.0,0.75,1.75,1.25,1.25,1.0,3.33,-0.05,-3.48,51.91,0.9,-21.9,1.25,0.25,0.5,0.5,0.5,0.75,0.25,1.0,0.5,0.5,0.75,0.5,1.0,1.08,1.33,-0.23,120.98,-4.6,-7.1
2.62,1.0,0.0,0.0,0.5,3.0,0.75,0.0,0.25,0.75,1.75,1.5,1.25,1.5,3.27,0.14,-5.11,111.92,-0.2,-20.1,0.0,0.0,0.5,0.0,0.5,0.25,0.0,0.75,0.0,0.0,0.75,0.0,1.0,1.2,0.95,-1.42,98.63,1.6,-33.0
2.64,1.25,0.0,0.25,0.0,3.0,0.75,0.0,0.25,0.75,1.75,1.75,0.75,1.5,1.95,-0.48,-2.67,158.94,0.3,-17.0,0.0,0.0,0.25,0.0,0.0,0.0,0.0,0.25,0.0,0.0,0.0,0.0,0.0,0.7,0.7,-0.86,61.68,-11.1,11.8
2.66,1.25,0.0,0.0,0.5,2.5,0.75,0.0,0.25,0.75,1.5,1.25,0.75,1.0,0.14,-1.36,-1.61,173.76,1.0,-10.6,0.0,0.0,0.25,0.0,0.0,0.0,0.0,0.25,0.25,0.0,0.0,0.0,0.0,0.08,-0.05,-0.73,27.2,-11.4,-4.6
2.68,1.25,0.0,0.0,0.0,2.5,0.25,0.0,0.25,0.25,0.5,0.75,0.0,1.0,0.27,-1.36,-0.67,158.08,1.5,7.4,0.0,0.0,0.25,0.0,0.0,0.25,0.0,0.25,0.0,0.0,0.0,0.0,0.0,-0.36,-0.3,-0.92,1.95,-0.3,18.9
2.7,1.25,0.0,0.0,1.0,2.5,0.75,0.0,0.25,0.75,1.75,0.75,0.0,0.5,0.7,-0.42,-0.73,153.55,1.1,7.3,0.75,0.25,0.25,0.5,0.0,0.75,0.0,0.25,0.75,0.5,0.0,0.25,0.0,-0.48,-0.36,-0.98,9.7,-7.0,14.5
2.72,0.75,0.0,0.0,0.0,2.5,0.75,0.0,0.25,0.5,0.5,0.75,0.25,1.0,1.14,0.58,-1.3,136.92,-1.5,-1.8,0.5,0.0,0.5,0.0,0.5,0.5,0.25,0.75,0.0,0.0,0.75,0.25,1.0,-0.55,-0.11,-1.05,26.71,-2.1,-19.7
2.74,0.25,0.0,0.0,0.0,3.0,0.0,0.0,0.25,0.25,0.0,1.0,0.0,1.25,1.33,1.02,-1.73,122.11,-1.8,-3.8,0.0,0.0,0.5,0.0,0.25,0.25,0.0,0.5,0.0,0.0,0.25,0.0,0.0,-0.42,0.27,-0.98,30.8,-4.2,9.6
2.76,0.0,0.0,0.0,0.0,1.75,0.0,0.0,0.25,0.25,0.0,0.0,0.0,0.75,1.7,0.77,-1.11,92.06,-5.6,1.3,0.75,0.0,0.5,0.0,0.0,0.75,0.5,0.5,0.5,0.5,0.25,0.25,0.25,-0.23,0.2,-0.86,40.83,-6.0,-4.4
2.78,0.5,0.0,0.0,0.0,1.75,0.0,0.0,0.0,0.25,0.0,0.0,0.0,0.25,2.14,0.77,-0.61,69.94,3.0,38.8,1.0,0.25,0.5,0.5,0.25,0.75,0.25,0.5,0.5,0.5,0.75,0.25,0.75,-0.23,0.27,-0.73,59.39,-6.1,-3.2
2.8,1.0,0.0,0.0,1.25,2.5,0.25,0.0,0.25,0.75,1.5,0.0,0.0,0.75,1.7,1.27,-0.42,78.88,1.2,10.8,1.25,0.25,0.5,0.5,0.5,0.5,0.5,0.75,0.25,0.75,0.0,0.25,1.0,-0.17,0.45,-0.86,79.91,-5.1,2.8
2.82,1.25,0.5,0.0,1.0,2.5,0.0,0.0,0.25,0.75,1.75,0.5,0.0,1.0,1.58,2.27,-0.05,98.85,2.4,6.1,1.25,0.25,0.5,0.0,0.5,0.75,0.25,0.5,0.5,0.5,0.75,0.25,1.0,0.02,0.58,-1.11,97.11,-5.1,-6.1
2.84,1.25,0.0,0.0,1.0,2.5,0.0,0.0,0.25,0.75,1.5,0.75,0.0,0.25,1.08,2.58,-0.36,114.71,4.0,11.0,1.0,0.25,0.5,0.5,0.5,0.75,0.0,0.5,0.5,0.5,0.75,0.25,1.0,0.14,0.77,-1.17,111.16,-4.5,-5.3
2.86,1.25,0.0,0.0,1.0,2.5,0.0,0.0,0.25,0.75,1.5,0.5,0.0,0.5,-0.05,2.89,-0.36,125.59,3.3,9.8,1.0,0.25,0.5,0.5,0.5,0.75,0.0,0.5,0.5,0.5,0.75,0.25,1.0,0.08,0.7,-1.17,119.49,-4.5,-5.3
2.88,1.0,0.0,0.0,1.0,2.5,0.0,0.0,0.25,0.75,1.5,0.5,0.0,0.5,-0.98,1.52,-0.05,130.0,2.4,7.4,1.0,0.25,0.5,0.5,0.5,0.75,0.25,0.5,0.25,0.5,0.75,0.25,1.0,-0.05,0.58,-1.11,120.84,-4.8,-3.6
2.9,0.75,0.25,0.0,0.0,2.5,0.0,0.0,0.25,0.5,1.75,0.5,0.0,0.5,-0.67,0.95,0.27,125.24,-1.2,-0.6,1.0,0.25,0.5,0.5,0.5,0.75,0.0,0.5,0.5,0.5,0.75,0.25,1.0,-0.11,0.52,-1.11,119.66,-4.5,-5.3
2.92,1.0,0.0,0.0,1.25,2.5,0.0,0.0,0.25,0.75,1.75,0.5,0.0,0.5,-0.36,0.45,0.64,129.28,2.3,6.5,1.0,0.25,0.5,0.5,0.5,0.5,0.0,0.5,0.5,0.5,0.75,0.25,1.0,-0.3,0.39,-0.92,116.41,-5.5,-6.7
2.94,0.5,0.0,0.0,1.25,2.5,0.75,0.0,0.25,0.75,1.5,0.5,0.0,0.5,-0.23,0.02,0.64,132.61,-0.8,6.2,1.0,0.25,0.5,0.5,0.5,0.5,0.25,0.5,0.5,0.5,0.75,0.25,1.0,-0.3,0.27,-0.8,112.74,-6.0,-6.1
2.96,0.75,0.25,0.0,0.25,2.5,0.75,0.0,0.25,0.25,1.75,0.75,0.0,0.75,-0.23,-0.17,0.58,137.74,-2.9,-0.3,0.5,0.0,1.75,0.0,1.0,0.5,0.75,0.5,0.25,0.0,0.0,0.0,0.25,-0.05,0.02,-0.8,105.28,-13.9,35.4
2.98,0.75,0.0,0.0,1.0,2.25,0.75,0.0,0.25,0.5,1.75,0.5,0.0,0.5,-0.17,-0.36,0.27,138.86,-1.1,4.5,1.0,0.25,0.5,1.0,0.25,0.75,0.75,0.5,0.5,0.5,0.0,0.25,0.75,-0.05,-0.05,-0.8,104.74,-7.4,10.5
3.0,0.75,0.0,0.0,1.0,2.5,0.75,0.0,0.25,0.5,1.75,0.5,0.0,0.25,-0.17,-0.48,0.02,139.05,-0.8,9.6,1.25,0.25,0.5,0.0,0.25,0.75,0.0,0.5,0.75,0.5,0.75,0.25,1.0,-0.05,-0.17,-0.73,99.91,-5.2,-10.5
3.02,0.75,0.25,0.0,0.25,2.5,0.75,0.0,0.25,0.5,1.75,0.5,0.0,0.5,-0.17,-0.55,-0.23,133.32,-2.5,4.1,1.0,0.25,0.5,0.5,0.5,0.75,0.0,0.5,0.25,0.5,0.5,0.25,1.0,-0.3,-0.17,-0.67,99.16,-4.0,-1.5
3.04,0.5,0.0,0.0,1.25,2.5,0.75,0.0,0.25,0.5,1.5,0.75,0.0,0.5,-0.11,-0.67,-0.61,129.92,-0.8,5.3,1.0,0.25,0.5,0.5,0.25,0.75,0.25,0.5,0.25,0.5,0.75,0.25,1.0,-0.55,0.02,-0.73,99.15,-5.1,-6.1
3.06,0.25,0.25,0.0,1.0,3.0,0.75,0.0,0.25,0.75,1.75,0.75,0.0,0.5,-0.05,-0.8,-0.67,135.58,-2.0,3.8,1.25,0.25,0.5,0.5,0.5,0.5,0.0,0.5,0.25,0.5,0.75,0.25,1.0,-0.48,0.33,-0.92,100.9,-6.3,-1.9
3.08,1.0,0.0,0.0,1.0,2.5,0.75,0.0,0.25,0.5,1.5,0.75,0.0,0.5,0.08,-0.92,-0.73,139.44,0.4,8.5,1.25,0.25,0.5,0.5,0.5,0.5,0.0,0.5,0.25,0.0,0.5,0.0,1.0,-0.48,0.45,-0.92,97.29,-7.9,12.1
3.1,0.75,0.0,0.0,1.25,2.25,0.75,0.0,0.25,0.75,1.25,0.75,0.0,0.25,0.14,-0.98,-0.67,138.85,1.3,10.7,1.75,0.25,0.25,0.5,0.0,0.5,0.0,0.25,0.25,0.5,0.0,0.25,0.25,-0.67,0.77,-1.05,89.01,-12.5,29.0
3.12,0.75,0.25,0.0,0.25,2.5,0.75,0.0,0.25,0.75,1.25,0.75,0.0,0.5,0.14,-0.92,-0.55,135.23,-0.9,5.3,1.25,0.25,0.5,0.5,0.5,0.5,0.25,0.5,0.25,0.0,0.0,0.25,1.0,-0.55,0.7,-0.92,86.09,-8.2,14.5
3.14,0.0,0.0,0.0,0.0,2.25,0.0,0.0,0.25,0.25,1.5,0.75,0.0,0.25,0.2,-0.73,-0.17,117.07,-5.1,-13.6,1.25,0.25,0.75,0.0,0.25,0.75,0.25,0.5,0.25,0.5,0.5,0.25,1.0,-0.48,0.64,-0.92,87.2,-6.4,-2.1
3.16,0.0,0.0,0.0,1.5,1.75,0.75,0.0,0.0,0.5,1.75,0.0,0.0,0.0,0.2,-0.48,0.02,105.31,-2.6,11.0,0.5,0.0,0.5,0.0,0.5,0.25,0.5,0.75,0.0,0.0,0.75,0.0,1.0,-0.11,0.45,-0.98,81.18,-3.8,-16.3
3.18,0.75,0.0,0.0,0.25,2.25,1.0,0.0,0.25,0.25,1.25,0.5,0.0,0.5,0.27,-0.23,0.27,100.81,-3.2,6.6,1.25,0.25,0.25,0.0,0.0,0.25,0.0,0.25,0.0,0.0,0.0,0.0,1.0,0.33,0.39,-0.98,69.41,-9.4,12.7
3.2,0.75,0.0,0.0,1.25,2.5,0.75,0.0,0.25,0.75,1.75,0.5,0.0,0.5,0.27,0.14,0.52,113.35,-0.3,6.3,1.25,0.0,0.5,0.0,0.5,0.25,0.0,0.25,0.0,0.5,0.0,0.25,0.0,0.33,0.33,-0.98,59.93,-12.4,31.4
3.22,1.0,0.25,0.0,0.25,2.5,0.75,0.0,0.25,0.5,1.25,0.5,0.0,0.5,0.7,1.77,0.58,118.82,-0.6,11.7,1.75,0.25,0.5,0.5,0.25,0.5,0.0,0.25,0.25,0.5,0.75,0.25,1.0,0.39,0.27,-0.92,68.28,-9.6,3.9
3.24,1.0,0.0,0.0,0.0,2.5,0.0,0.0,0.25,0.5,1.5,0.5,0.0,0.25,1.83,3.52,-0.3,117.84,0.4,5.7,1.25,0.0,0.25,0.0,0.0,0.0,0.0,0.25,0.25,0.0,0.25,0.0,1.0,0.27,0.27,-0.98,61.83,-11.9,-6.4
3.26,0.5,0.0,0.0,0.0,2.5,0.0,0.0,0.25,0.25,0.0,0.5,0.0,0.5,2.95,5.52,-1.05,102.01,0.7,18.1,1.25,0.25,0.5,0.5,0.5,0.5,0.0,0.5,0.25,0.5,0.5,0.25,1.0,0.08,0.33,-1.11,76.17,-6.1,0.7
3.28,0.0,0.0,0.0,1.25,1.75,0.75,0.0,0.25,0.5,1.75,0.5,0.0,0.25,2.7,3.89,-0.42,97.95,-3.3,-2.3,1.25,0.25,0.75,0.5,0.5,0.0,0.25,0.75,0.0,0.0,0.75,0.0,1.0,-0.11,0.2,-0.92,81.62,-11.1,9.1
3.3,1.0,0.0,0.0,0.75,2.5,0.75,0.0,0.25,0.5,1.0,0.5,0.0,0.25,1.77,2.08,0.64,101.18,1.0,18.8,1.25,0.5,0.5,0.5,0.25,0.5,0.25,0.5,0.25,0.5,0.75,0.25,1.0,-0.23,0.08,-0.86,94.33,-7.4,0.0
3.32,0.75,0.0,0.0,1.25,2.5,0.75,0.0,0.25,0.75,1.25,0.5,0.0,0.25,1.08,0.89,-0.3,114.82,0.9,14.6,1.25,0.25,0.5,0.5,0.5,0.75,0.5,0.5,0.25,0.5,0.75,0.25,1.0,-0.55,0.02,-0.73,102.74,-6.2,0.1
3.34,1.0,0.5,0.0,0.25,2.25,0.75,0.0,0.25,0.25,1.25,0.5,0.0,0.5,0.45,0.58,-0.3,121.87,-0.4,14.7,1.25,0.25,0.5,0.5,0.5,0.75,0.5,0.5,0.25,0.5,0.75,0.25,1.0,-0.67,0.14,-0.67,111.75,-6.2,0.1
3.36,0.5,0.25,0.0,0.25,2.25,0.75,0.0,0.25,0.75,1.0,0.5,0.0,0.25,0.2,0.2,-0.05,122.02,-1.4,10.1,1.75,0.25,0.5,0.5,0.5,0.75,0.0,0.5,0.25,0.5,0.75,0.25,1.0,-0.42,0.33,-0.73,116.4,-7.1,5.4
3.38,0.5,0.0,0.0,1.25,2.5,0.75,0.0,0.25,0.5,0.75,0.5,0.0,0.5,0.08,-0.05,0.02,122.43,0.1,15.5,0.0,0.0,0.5,0.0,0.5,0.5,0.0,0.25,0.25,0.5,0.0,0.25,0.0,0.02,0.52,-1.05,96.23,0.0,-2.0
3.4,0.5,0.25,0.0,0.75,2.5,0.75,0.0,0.25,0.75,0.75,0.5,0.0,0.5,0.08,-0.17,-0.05,120.26,-0.1,13.7,0.0,0.0,0.5,0.0,0.5,0.5,0.0,0.5,0.0,0.0,0.75,0.0,1.0,0.2,0.64,-1.36,81.72,2.0,-28.4
3.42,0.5,0.0,0.0,0.0,2.25,1.25,0.0,0.25,0.75,0.75,0.5,0.0,0.5,0.14,-0.17,-0.17,116.27,-4.0,5.3,1.25,0.25,0.0,0.0,0.0,0.5,0.0,0.25,0.25,0.5,0.0,0.25,0.0,0.14,0.52,-1.48,62.63,-8.4,22.7
3.44,0.0,0.0,0.0,0.25,2.5,0.75,0.0,0.25,0.5,0.75,0.5,0.0,0.25,0.27,-0.05,-0.3,108.27,-4.8,7.2,1.25,0.25,0.5,0.5,0.5,1.25,0.0,0.75,0.0,0.5,1.0,0.25,1.0,-0.05,0.27,-1.17,75.76,-2.8,-0.9
3.46,0.25,0.25,0.0,0.25,2.5,1.0,0.0,0.25,0.5,0.5,0.5,0.0,0.5,0.45,0.27,-0.36,106.84,-3.3,13.3,1.5,0.5,0.5,1.0,0.5,1.0,0.0,0.75,0.25,0.5,0.75,0.25,1.0,-0.17,0.08,-0.86,94.64,-5.6,8.4
3.48,0.5,0.0,0.0,1.0,2.5,0.75,0.0,0.25,0.5,0.5,0.5,0.0,0.5,0.64,0.45,-0.48,108.25,0.1,17.0,1.25,0.0,0.5,0.5,0.5,1.0,0.0,0.75,0.25,0.5,0.75,0.25,1.0,-0.23,-0.05,-0.73,111.43,-3.3,-4.4
3.5,0.75,0.0,0.0,0.75,2.25,0.75,0.0,0.25,0.5,0.75,0.5,0.0,0.25,0.77,1.02,-0.55,109.36,0.7,18.1,1.25,0.0,0.5,0.5,0.5,1.25,0.0,0.5,0.25,0.25,0.75,0.25,1.0,-0.3,0.08,-0.86,113.53,-3.9,0.5
3.52,0.75,0.0,0.0,0.5,2.25,1.0,0.0,0.25,0.5,0.5,0.5,0.0,0.25,0.77,1.2,-0.61,107.53,-0.1,20.5,1.0,0.0,0.5,0.5,0.5,1.0,0.0,0.75,0.25,0.5,0.75,0.25,0.75,-0.23,0.33,-1.05,111.27,-2.9,-4.0
3.54,0.5,0.0,0.0,1.0,2.25,0.75,0.0,0.25,0.5,0.5,0.5,0.0,0.5,0.77,1.27,-0.61,107.74,0.2,15.5,1.0,0.25,0.5,0.5,0.5,1.0,0.0,0.5,0.25,0.5,0.75,0.25,1.0,-0.17,0.39,-1.17,108.6,-3.4,-2.8
3.56,0.5,0.0,0.0,1.5,2.5,1.0,0.0,0.25,0.25,0.75,0.5,0.0,0.5,0.58,1.14,-0.55,113.46,-0.3,19.0,1.0,0.25,0.5,0.5,0.5,1.25,0.0,0.75,0.25,0.5,0.25,0.25,1.0,-0.11,0.39,-1.17,108.29,-1.2,2.1
3.58,0.25,0.0,0.0,1.0,2.5,0.75,0.0,0.25,0.5,0.75,0.5,0.0,0.5,0.33,0.89,-0.55,115.67,-1.5,11.3,0.75,0.25,0.5,0.5,0.5,1.25,0.0,0.75,0.25,0.5,0.75,0.25,0.75,-0.17,0.33,-1.05,110.9,-1.3,-2.3
3.6,0.75,0.5,0.0,1.0,2.5,0.75,0.0,0.25,0.5,0.75,0.75,0.0,0.0,0.08,0.7,-0.55,122.09,2.6,27.0,1.25,0.25,0.5,0.5,0.25,2.0,0.0,1.25,0.25,0.5,0.75,0.25,1.0,-0.23,0.27,-0.86,120.9,0.1,-1.1
3.62,1.0,0.0,0.0,1.25,2.25,0.75,0.0,0.25,0.5,1.0,0.5,0.0,0.25,-0.05,0.52,-0.61,124.63,2.2,20.1,1.0,0.25,0.5,0.5,0.5,1.25,0.0,1.0,0.25,0.5,0.75,0.25,1.0,-0.3,0.2,-0.92,125.49,-1.2,-4.0
3.64,0.75,0.25,0.0,0.5,2.5,0.25,0.0,0.25,0.5,0.75,0.5,0.0,0.25,0.02,0.27,-0.42,121.94,1.9,20.0,1.0,0.25,0.5,0.5,0.5,0.75,0.0,0.75,0.25,0.25,0.5,0.25,1.0,-0.23,0.27,-0.92,119.48,-4.0,-0.1
3.66,0.5,0.0,0.0,0.0,2.25,0.5,0.0,0.25,0.5,0.5,0.5,0.0,0.5,0.02,-0.05,-0.23,111.53,-1.8,7.1,1.0,0.25,0.5,0.5,0.5,1.0,0.0,0.5,0.25,0.5,0.75,0.25,1.0,-0.23,0.27,-0.98,113.15,-3.4,-2.8
3.68,0.25,0.0,0.0,1.25,2.25,0.5,0.0,0.25,0.5,0.75,0.5,0.0,0.5,0.2,-0.42,0.33,108.24,0.0,10.6,1.25,0.25,0.25,0.5,0.5,1.0,0.0,0.5,0.25,0.5,0.75,0.25,1.0,-0.3,0.2,-1.05,106.46,-3.1,-1.8
3.7,0.25,0.0,0.0,0.5,2.5,0.25,0.0,0.25,0.5,0.75,0.5,0.0,0.25,0.39,-0.3,0.33,100.65,-0.9,10.7,1.0,0.25,0.5,0.5,0.5,0.75,0.0,0.75,0.25,0.5,0.75,0.25,1.0,-0.23,0.2,-0.92,105.21,-3.5,-5.3
3.72,0.75,0.0,0.0,0.25,2.5,0.75,0.0,0.25,0.5,1.25,0.5,0.0,0.5,1.02,0.14,0.02,104.47,-2.1,6.1,1.0,0.25,0.5,0.5,0.25,0.75,0.0,0.75,0.25,0.5,0.75,0.25,1.0,-0.23,0.2,-0.86,104.68,-3.8,-7.9
3.74,0.25,0.25,0.0,0.75,2.5,0.5,0.0,0.25,0.5,1.0,0.5,0.0,0.25,1.52,0.83,-0.17,106.68,-1.0,13.4,1.0,0.25,0.5,0.5,0.5,1.0,0.0,0.5,0.25,0.5,0.75,0.25,1.0,-0.17,0.27,-0.98,105.52,-3.4,-2.8
3.76,0.75,0.25,0.0,1.25,2.5,0.0,0.0,0.25,0.5,0.5,0.5,0.0,0.25,1.33,1.2,-0.17,110.81,5.0,27.0,1.0,0.25,0.5,0.5,0.5,0.5,0.0,0.75,0.0,0.5,0.0,0.25,1.0,-0.11,0.27,-1.17,99.51,-3.3,3.1
3.78,0.75,0.0,0.0,0.75,2.25,0.25,0.0,0.25,0.75,1.25,0.5,0.0,0.5,1.14,1.2,-0.11,111.98,0.9,4.7,1.0,0.5,0.5,0.5,0.5,1.0,0.0,0.5,0.25,0.5,0.75,0.25,1.0,-0.23,0.27,-0.98,101.49,-3.7,0.7
3.8,0.75,0.0,0.0,1.0,2.5,0.75,0.0,0.25,0.5,1.0,0.75,0.25,0.5,1.14,1.02,0.02,119.05,0.6,7.6,0.75,0.0,0.5,0.25,0.25,0.75,0.0,0.5,0.25,0.5,0.5,0.25,1.0,-0.36,0.27,-0.73,93.63,-2.1,-16.2
3.82,0.5,0.0,0.0,0.25,2.5,0.0,0.0,0.25,0.5,0.75,0.5,0.0,0.5,1.08,0.7,-0.23,113.2,0.0,6.0,1.0,0.25,0.5,0.5,0.5,1.25,0.0,0.5,0.25,0.5,0.75,0.25,1.0,-0.42,0.2,-0.73,97.99,-2.5,-1.6
3.84,0.5,0.25,0.0,1.0,2.25,0.0,0.0,0.25,0.5,1.25,0.5,0.0,0.5,0.83,0.58,-0.23,113.18,1.2,7.4,1.0,0.0,0.5,0.5,0.5,0.75,0.0,0.5,0.25,0.5,0.5,0.25,1.0,-0.42,0.14,-0.8,94.92,-3.7,-5.6
3.86,0.75,0.0,0.0,1.0,2.5,0.5,0.0,0.25,0.5,1.0,0.5,0.25,0.25,0.52,0.33,0.02,115.0,1.5,13.2,0.75,0.0,0.5,0.25,0.25,1.0,0.0,1.0,0.0,0.5,0.75,0.25,1.0,-0.3,0.2,-0.86,96.23,0.4,-17.5
3.88,0.5,0.0,0.0,1.0,2.25,0.25,0.0,0.25,0.75,1.25,0.5,0.0,0.75,0.52,0.14,-0.05,119.14,0.0,0.0,1.0,0.25,0.25,0.5,0.5,0.75,0.0,1.0,0.25,0.25,0.75,0.5,1.0,-0.17,0.27,-1.17,98.14,-2.4,-10.2
3.9,0.75,0.0,0.0,1.0,2.5,0.25,0.0,0.25,0.75,1.25,0.5,0.0,0.0,0.52,0.2,0.02,120.7,2.3,16.1,1.0,0.25,0.5,0.5,0.5,1.5,0.0,1.25,0.25,0.5,0.75,0.25,1.0,-0.11,0.33,-0.86,107.38,0.0,-4.0
3.92,0.0,0.0,0.0,0.5,2.5,0.75,0.0,0.25,0.75,1.5,0.5,0.0,0.25,0.58,0.2,0.2,118.9,-4.5,-0.9,1.0,0.25,0.5,0.0,0.5,1.5,0.0,1.0,0.25,0.0,0.0,0.25,0.5,-0.23,0.14,-0.86,104.38,-0.4,16.7
3.94,0.5,0.25,0.0,0.0,2.5,1.0,0.0,0.25,0.75,1.5,0.5,0.0,0.5,0.52,0.2,0.27,120.36,-3.9,1.6,1.25,0.25,0.5,0.0,0.5,1.75,0.0,1.25,0.25,0.25,0.75,0.5,1.0,-0.3,0.2,-1.05,112.12,0.0,-5.0
3.96,0.75,0.0,0.0,0.5,2.5,0.5,0.0,0.25,0.5,1.25,0.5,0.0,0.25,0.52,0.33,0.45,117.03,-0.4,11.1,1.0,0.0,0.5,0.5,0.5,1.75,0.0,1.25,0.0,0.25,0.75,0.5,1.0,-0.23,0.33,-1.17,115.75,0.6,-6.2
3.98,0.75,0.25,0.0,1.25,2.5,0.75,0.0,0.25,0.75,1.0,0.5,0.0,0.0,0.45,1.14,0.7,122.59,2.2,23.7,1.0,0.0,0.25,0.25,0.25,1.5,0.0,1.25,0.25,0.5,0.75,0.5,1.0,-0.23,0.45,-1.23,117.26,1.8,-17.8
4.0,1.25,0.25,0.0,1.5,2.5,0.25,0.0,0.25,0.75,1.25,0.5,0.0,0.25,0.83,2.02,1.14,130.12,4.7,21.5,0.75,0.0,0.5,0.0,0.5,1.75,0.0,1.5,0.0,0.5,0.75,0.5,1.0,-0.17,0.45,-1.23,117.42,3.9,-17.0
4.02,1.75,0.0,0.0,0.75,2.5,0.75,0.0,0.25,0.75,1.5,0.75,0.0,0.25,0.52,1.08,0.7,139.35,3.2,15.7,0.75,0.0,0.5,0.25,0.5,1.75,0.0,1.0,0.25,0.0,0.75,0.5,1.0,-0.11,0.45,-1.11,115.39,0.9,-9.4
4.04,1.25,0.25,0.0,0.25,2.5,0.5,0.0,0.25,0.75,1.5,0.75,0.0,0.25,0.2,0.39,0.7,140.57,1.6,10.6,0.75,0.25,0.5,0.0,0.5,1.75,0.0,1.75,0.25,0.0,0.75,0.5,1.0,-0.23,0.33,-1.11,117.41,2.5,-10.9
4.06,1.25,0.25,0.0,1.25,3.0,0.5,0.0,0.25,0.75,1.0,0.5,0.0,0.25,0.39,0.45,0.64,146.24,3.7,25.3,0.75,0.0,0.5,0.0,0.5,1.75,0.0,2.0,0.0,0.5,0.75,0.5,1.0,-0.23,0.39,-1.11,118.13,4.7,-18.3
4.08,1.5,0.0,0.0,1.75,2.5,1.0,0.0,0.25,0.75,0.5,0.5,0.0,0.25,0.58,0.64,0.7,146.98,5.1,31.1,1.0,0.25,0.5,0.0,1.75,1.5,0.0,1.5,0.25,0.0,0.0,0.0,1.25,-0.23,0.45,-1.11,123.81,2.8,11.7
4.1,1.0,0.0,0.0,1.0,2.25,0.0,0.0,0.25,0.5,1.25,0.5,0.0,0.5,0.95,0.64,0.52,139.39,2.9,9.9,0.0,0.0,0.5,0.0,0.5,0.0,0.0,2.0,0.0,0.0,0.75,0.0,1.0,-0.23,0.45,-1.11,108.78,4.5,-37.7
4.12,1.0,0.0,0.0,1.25,2.5,0.75,0.0,0.25,0.75,1.5,0.5,0.0,0.25,0.83,0.39,0.45,139.18,1.3,14.3,0.0,0.0,0.0,0.0,0.0,0.75,0.0,0.25,0.0,0.0,0.0,0.0,0.0,-0.05,0.45,-1.11,73.89,21.3,15.0
