time,left pressure 0[N/cm虏],left pressure 1[N/cm虏],left pressure 2[N/cm虏],left pressure 3[N/cm虏],left pressure 4[N/cm虏],left pressure 5[N/cm虏],left pressure 6[N/cm虏],left pressure 7[N/cm虏],left pressure 8[N/cm虏],left pressure 9[N/cm虏],left pressure 10[N/cm虏],left pressure 11[N/cm虏],left pressure 12[N/cm虏],left acceleration X[g],left acceleration Y[g],left acceleration Z[g],left total force[N],left center of pressure X[mm],left center of pressure Y[mm],right pressure 0[N/cm虏],right pressure 1[N/cm虏],right pressure 2[N/cm虏],right pressure 3[N/cm虏],right pressure 4[N/cm虏],right pressure 5[N/cm虏],right pressure 6[N/cm虏],right pressure 7[N/cm虏],right pressure 8[N/cm虏],right pressure 9[N/cm虏],right pressure 10[N/cm虏],right pressure 11[N/cm虏],right pressure 12[N/cm虏],right acceleration X[g],right acceleration Y[g],right acceleration Z[g],right total force[N],right center of pressure X[mm],right center of pressure Y[mm]
0.02,0.0,0.0,0.0,0.0,0.0,0.5,0.0,0.25,0.25,0.0,0.25,0.25,0.5,-0.3,0.64,2.33,60.07,-7.2,-53.3,2.25,0.0,3.0,2.0,0.5,1.5,0.0,0.5,0.5,1.25,1.75,0.75,0.5,0.52,-0.55,2.02,211.39,-13.0,13.4
0.04,0.0,0.0,0.0,0.25,1.75,1.5,0.0,0.25,0.5,0.0,0.0,0.25,0.5,-0.48,1.2,2.64,51.75,-7.2,11.3,1.25,0.25,2.25,2.0,1.25,1.5,0.0,0.25,0.5,1.0,1.75,0.75,0.5,0.95,-1.48,1.89,116.31,-10.1,11.7
0.06,0.0,0.0,0.0,0.25,1.75,0.5,0.0,0.0,0.25,0.0,0.0,0.25,0.5,-0.55,2.2,3.02,46.12,-3.9,12.2,0.5,0.5,1.75,2.25,1.5,0.75,0.0,0.5,0.5,1.0,1.75,0.75,0.5,0.58,-1.05,1.27,61.95,-8.7,6.3
0.08,0.0,0.0,0.0,0.25,1.75,0.75,0.0,0.25,0.25,0.0,0.0,0.25,0.5,-0.42,3.77,2.39,48.91,-5.7,10.4,0.0,0.0,1.5,1.0,1.0,0.5,0.0,0.5,0.0,0.0,1.75,0.0,0.0,0.27,-0.67,0.58,2.52,-11.2,13.3
0.1,0.25,0.0,0.0,1.25,2.5,1.75,0.0,0.25,0.75,1.25,0.5,0.25,0.5,0.39,5.64,0.64,75.03,-3.2,5.9,0.75,0.0,0.25,1.0,0.0,0.5,0.0,0.25,0.0,0.0,0.5,0.0,0.0,0.14,-0.55,0.33,0.0,-13.2,35.7
0.12,0.5,0.0,0.0,0.25,0.75,1.5,0.0,0.25,1.0,0.25,0.5,0.0,0.0,1.64,6.52,-1.8,76.98,-1.0,10.5,0.25,0.0,0.5,0.5,0.0,0.5,0.0,0.25,0.0,0.0,0.75,0.0,0.25,-0.17,-0.23,0.52,0.0,-8.8,2.6
0.14,0.0,0.0,0.0,0.0,1.75,0.75,0.0,0.25,0.25,0.5,0.25,0.25,0.75,-0.05,-1.73,-0.8,79.68,-7.5,-10.9,0.25,0.0,1.75,0.5,1.0,0.5,0.0,0.25,0.0,0.0,0.25,0.0,0.0,-0.23,-0.17,0.83,0.0,-14.9,45.5
0.16,0.25,0.0,0.0,0.0,1.25,0.0,0.0,0.25,0.5,1.5,0.5,1.75,2.5,-0.92,0.89,0.7,96.51,-3.7,-63.3,0.25,0.0,0.0,0.0,0.0,0.0,0.0,0.25,0.0,0.0,0.25,0.0,0.0,0.08,-0.17,0.89,0.0,-9.0,-7.0
0.18,0.25,0.0,0.25,0.0,2.5,0.0,0.0,0.75,0.5,2.0,1.5,3.5,5.75,0.64,0.83,1.27,162.2,-3.6,-65.6,0.0,0.0,0.0,0.0,0.0,0.5,0.0,0.0,0.0,0.0,0.25,0.0,0.0,0.14,-0.05,0.95,0.0,11.4,-3.0
0.2,0.0,0.0,0.25,0.0,2.5,0.25,0.0,0.75,1.0,4.5,1.25,5.75,7.0,-0.17,0.7,2.7,247.01,-4.6,-73.2,0.0,0.0,0.25,0.0,0.25,0.0,0.0,0.0,0.0,0.0,0.25,0.0,0.0,0.08,0.08,1.08,0.0,-14.5,16.3
0.22,0.0,0.25,0.0,1.0,1.75,1.0,0.0,5.25,2.25,6.5,5.0,8.0,8.5,-0.3,0.58,2.14,389.98,-4.1,-69.2,0.5,0.0,0.25,0.25,0.25,0.5,0.0,0.25,0.0,0.0,0.0,0.0,0.0,0.08,0.2,1.27,0.0,-7.3,49.2
0.24,0.0,0.25,0.0,1.25,2.25,2.75,0.0,6.5,3.0,8.0,6.5,7.0,8.25,0.02,0.2,1.14,575.05,-4.9,-61.2,0.0,0.0,0.0,0.0,0.0,0.5,0.0,0.25,0.0,0.0,0.0,0.0,0.0,0.14,0.33,1.58,0.0,20.7,8.8
0.26,0.75,0.0,0.0,0.5,0.0,1.5,0.0,6.75,3.5,8.0,6.0,7.0,7.75,-0.11,0.08,0.95,707.52,-4.3,-70.5,0.25,0.0,0.0,0.0,0.25,0.5,0.0,0.25,0.0,0.0,0.0,0.0,0.0,0.2,0.52,1.77,0.0,6.2,35.9
0.28,1.0,0.25,0.75,1.75,1.75,2.75,0.0,7.25,4.25,8.5,6.5,7.5,8.5,-0.17,0.14,0.95,826.89,-3.1,-56.5,0.0,0.0,0.0,0.0,0.25,0.5,0.0,0.0,0.0,0.0,0.0,0.0,0.0,0.27,0.7,2.2,0.0,15.4,41.4
0.3,1.75,0.5,0.0,2.5,1.75,4.0,0.0,7.75,4.75,9.5,7.25,8.25,8.5,-0.17,0.08,0.95,937.96,-3.1,-52.9,0.0,0.0,0.0,0.0,0.25,0.5,0.0,0.0,0.0,0.0,0.0,0.0,0.0,0.45,1.39,2.58,0.0,15.4,41.4
0.32,0.75,0.0,0.0,1.75,2.25,2.75,0.0,8.0,4.25,9.5,7.5,8.0,9.25,-0.11,0.08,0.95,1008.42,-4.1,-60.1,0.0,0.0,0.0,0.0,0.0,0.5,0.0,0.0,0.0,0.0,0.0,0.0,0.0,0.64,2.58,2.89,1.42,22.9,34.0
0.34,0.75,0.0,0.0,1.25,2.5,2.75,0.0,8.0,3.5,9.5,7.0,7.5,9.25,-0.11,0.08,0.95,1029.49,-4.8,-60.3,0.0,0.0,0.0,0.0,0.0,0.5,0.0,0.0,0.0,0.0,0.0,0.0,0.0,0.83,3.77,1.95,3.44,22.9,34.0
0.36,0.5,0.0,0.0,1.25,2.5,2.5,0.0,8.0,3.25,8.75,6.25,6.75,8.25,-0.17,0.08,0.89,998.28,-5.1,-59.4,0.0,0.0,0.0,0.0,0.0,0.5,0.0,0.0,0.0,0.0,0.25,0.0,0.0,0.7,5.27,-0.17,4.01,11.4,-3.0
0.38,0.75,0.0,0.0,1.5,2.25,2.75,0.0,8.0,2.5,8.5,5.75,6.0,8.25,-0.17,0.08,0.89,921.67,-5.5,-57.4,0.0,0.0,0.0,1.0,0.0,1.5,0.0,0.0,0.25,1.25,0.25,0.75,0.0,-2.36,7.27,-2.42,28.3,4.4,-19.2
0.4,0.5,0.0,0.0,1.75,1.25,3.0,0.0,8.0,2.75,8.0,5.25,5.0,7.5,-0.17,0.08,0.95,816.16,-5.9,-57.3,0.5,0.5,1.25,1.0,0.5,0.5,0.0,0.5,0.5,1.5,1.75,2.5,0.5,-5.17,5.95,-0.67,86.53,-7.3,-28.2
0.42,0.75,0.25,0.0,2.5,1.75,4.25,0.0,8.25,3.5,7.5,4.5,4.0,6.5,-0.17,0.08,0.95,730.16,-5.6,-46.3,1.5,0.75,1.25,1.0,0.5,1.75,0.0,0.75,0.5,2.75,2.0,4.75,4.0,1.2,-0.92,2.39,181.79,-2.0,-43.3
0.44,0.75,0.25,0.0,2.5,1.75,5.25,0.0,8.25,3.5,7.25,4.25,3.5,6.0,-0.17,0.08,0.95,659.98,-6.1,-42.7,0.75,0.25,0.0,0.5,0.5,2.25,0.0,1.5,0.5,5.25,4.0,5.75,6.0,-1.23,1.33,1.45,280.24,3.9,-67.8
0.46,1.0,0.25,0.25,2.5,4.75,5.5,0.0,8.5,3.5,6.5,3.5,3.0,5.25,-0.17,0.08,0.95,612.97,-5.7,-30.5,1.25,0.25,0.0,1.0,0.25,3.25,0.0,3.25,3.0,8.0,7.0,7.75,6.75,-0.05,0.89,2.58,437.52,2.5,-63.8
0.48,1.0,0.0,0.25,2.75,5.0,5.75,0.0,8.5,3.5,5.75,3.0,2.0,4.75,-0.17,0.08,0.95,576.9,-6.0,-25.8,2.25,0.25,1.5,1.25,3.0,4.0,0.25,6.5,5.0,8.5,9.75,8.0,8.0,-0.05,0.45,1.2,688.98,1.0,-49.1
0.5,1.0,0.25,0.25,2.75,5.5,6.75,0.0,8.5,3.5,4.75,2.75,2.0,3.75,-0.17,0.08,0.95,555.34,-5.9,-19.1,2.5,0.5,1.75,1.25,3.25,4.0,0.5,6.5,5.0,8.5,10.0,8.0,7.75,0.08,0.2,0.95,915.06,0.4,-46.6
0.52,1.25,0.75,0.75,3.0,5.75,7.25,0.0,8.5,3.5,4.5,2.25,2.0,3.0,-0.17,0.08,0.95,540.27,-5.0,-11.9,2.0,0.25,1.75,1.25,3.0,4.0,0.75,6.5,5.0,8.25,9.75,7.5,7.75,0.08,0.2,0.95,1064.15,0.7,-48.0
0.54,1.75,1.0,0.25,4.75,7.25,8.0,0.0,8.25,3.5,3.75,2.0,1.75,2.75,-0.11,0.08,0.95,561.92,-4.2,-2.4,3.5,0.25,1.75,1.0,2.5,3.25,0.75,6.5,4.5,8.0,9.25,7.25,7.5,0.02,0.14,0.95,1113.06,-0.1,-46.0
0.56,2.0,1.5,0.5,5.25,9.25,8.5,0.0,8.0,3.0,3.0,2.0,1.75,2.75,-0.17,0.08,0.95,614.3,-3.4,4.7,3.0,0.25,1.5,1.0,1.75,3.0,0.75,6.25,4.5,8.0,8.75,7.25,7.25,0.08,0.14,0.95,1090.38,0.0,-49.3
0.58,2.75,0.75,0.25,6.0,11.0,9.0,0.0,7.75,2.25,3.0,0.5,2.25,2.75,-0.11,0.14,0.95,674.95,-3.6,9.5,2.25,0.75,1.75,1.25,1.75,3.0,0.25,5.75,4.5,7.5,8.75,6.75,7.0,0.02,0.14,0.95,1028.5,0.0,-48.0
0.6,4.5,1.0,1.0,7.0,13.0,9.5,0.0,7.25,1.75,2.0,0.5,1.5,2.75,-0.17,0.14,0.95,755.78,-1.5,20.6,3.0,0.75,1.75,0.5,1.25,3.25,0.5,5.75,4.5,7.0,8.25,6.5,6.75,0.02,0.14,0.95,956.84,-0.2,-47.1
0.62,7.75,3.0,1.5,9.0,16.5,10.5,0.0,5.5,1.0,0.5,1.5,1.25,2.5,-0.23,0.14,1.14,893.02,2.0,35.1,2.75,0.25,1.75,1.25,1.75,3.5,0.75,5.75,4.25,6.25,7.75,5.75,6.0,0.02,0.14,0.95,872.49,-0.3,-43.1
0.64,9.25,3.25,2.5,9.5,17.5,10.5,0.0,4.5,1.0,0.75,0.5,1.25,2.25,-0.23,0.2,1.27,1037.31,3.5,40.5,3.5,0.25,1.75,2.0,2.5,4.0,0.75,5.25,4.5,5.5,7.25,5.0,5.0,0.02,0.14,0.95,785.02,-1.4,-33.3
0.66,11.5,4.0,3.0,9.25,17.0,9.0,0.0,3.75,0.5,1.75,0.5,1.0,2.0,-0.17,0.2,1.27,1159.71,5.4,44.1,3.5,0.25,2.75,2.0,4.25,4.5,1.0,5.0,4.75,4.5,7.25,4.0,4.0,0.02,0.14,0.95,713.16,-2.5,-22.6
0.68,12.0,4.25,2.75,8.75,14.5,8.0,0.0,2.25,0.5,1.5,0.5,0.25,0.75,-0.42,0.27,1.39,1175.84,7.3,52.3,3.5,1.0,3.0,2.75,4.5,4.75,1.25,4.75,5.0,4.25,6.5,3.5,3.0,0.02,0.14,0.95,665.74,-3.4,-14.0
0.7,12.5,4.5,3.5,11.0,13.5,8.0,0.0,1.75,0.75,0.5,0.5,0.75,1.75,-0.42,0.39,1.58,1180.74,8.8,51.6,4.75,0.75,4.0,2.0,4.5,5.0,1.75,4.75,5.0,3.0,5.75,2.5,2.25,0.02,0.14,0.95,624.91,-5.4,-4.4
0.72,11.5,3.25,3.0,7.0,10.5,5.75,0.0,2.25,0.25,0.0,0.5,0.5,1.75,-0.55,0.64,2.14,1048.52,9.4,51.6,5.25,1.0,4.25,2.75,4.75,5.0,1.75,4.75,5.25,2.5,5.5,2.25,2.0,0.08,0.14,0.95,613.95,-6.3,1.0
0.74,9.5,3.25,2.75,6.5,8.75,5.25,0.0,0.25,0.25,0.0,0.5,0.25,1.5,-1.36,1.27,2.77,882.47,10.4,56.0,6.0,1.25,4.75,4.5,5.5,5.25,2.25,4.25,5.0,2.25,4.25,1.75,1.5,0.08,0.14,0.95,636.0,-7.8,12.3
0.76,6.25,1.75,0.0,5.0,5.75,2.75,0.0,1.0,1.0,1.75,0.5,0.5,0.0,-1.11,1.14,3.7,640.05,7.9,44.6,6.25,1.75,6.25,6.0,6.5,5.75,2.25,3.25,4.75,1.5,4.0,1.0,2.0,0.08,0.14,0.95,686.9,-9.2,21.1
0.78,4.25,0.0,0.0,0.0,6.5,0.25,0.0,1.0,0.25,0.0,0.25,0.25,0.5,-0.86,0.14,3.77,393.79,6.6,46.4,7.75,2.0,7.25,7.75,6.75,5.75,2.5,3.25,4.0,1.25,3.25,1.0,1.25,0.08,0.14,0.95,755.98,-11.1,30.3
0.8,0.25,0.0,0.0,0.25,1.25,0.0,0.0,0.0,0.25,0.25,0.0,0.0,0.25,-0.98,-0.73,2.83,198.92,1.2,21.7,8.75,2.0,8.25,9.5,7.75,5.75,2.25,2.0,3.0,1.25,3.25,1.0,1.0,0.08,0.2,0.95,837.7,-12.6,36.8
0.82,0.0,0.0,0.0,0.0,2.25,0.0,0.0,0.0,0.25,0.0,0.0,0.25,0.5,-0.86,-0.55,2.33,38.09,-2.8,12.7,9.5,2.5,9.0,11.0,8.25,5.75,2.0,2.0,1.75,1.25,2.75,1.0,1.0,0.02,0.14,1.08,921.12,-13.1,41.7
0.84,0.0,0.0,0.0,0.0,1.75,0.0,0.0,0.25,0.0,0.0,0.0,0.25,0.0,-0.55,-1.05,1.83,0.0,-3.4,28.2,11.0,3.25,9.75,0.0,9.25,5.25,1.25,1.75,1.5,1.25,2.25,0.75,1.0,0.02,0.2,1.14,910.07,-13.2,44.0
0.86,0.0,0.0,0.0,0.0,1.25,0.25,0.0,0.25,0.25,0.0,0.0,0.0,0.5,-0.36,-0.8,0.58,0.0,-6.8,3.6,11.5,3.75,11.0,13.0,9.25,5.25,0.25,1.5,1.25,1.0,1.75,0.75,0.75,0.02,0.27,1.2,994.97,-15.0,51.1
0.88,0.0,0.0,0.0,0.0,0.5,0.25,0.0,0.0,0.0,0.25,0.0,0.0,0.75,-0.3,-0.67,0.2,0.0,-11.8,-35.2,12.5,3.5,11.5,12.0,9.25,4.5,0.0,1.0,1.25,1.25,2.0,1.0,0.75,0.02,0.27,1.27,1052.24,-15.9,50.8
0.9,0.0,0.0,0.0,0.0,2.25,0.25,0.0,0.25,0.25,0.0,0.0,0.25,0.5,-0.36,-0.61,0.2,0.0,-4.8,10.8,12.5,4.25,12.0,13.0,9.0,1.5,0.0,0.5,0.5,0.75,1.75,0.75,0.75,-0.05,0.27,1.27,1101.08,-18.7,56.6
0.92,0.0,0.0,0.0,0.0,1.25,0.25,0.0,0.0,0.0,0.0,0.0,0.0,0.5,-0.42,-0.61,0.77,0.0,-7.8,13.1,12.5,4.0,12.0,11.5,9.0,2.25,0.0,0.5,0.5,0.75,1.75,0.75,0.5,-0.05,0.33,1.33,1098.4,-18.4,56.9
0.94,0.0,0.0,0.0,0.0,1.75,0.25,0.0,0.25,0.0,0.0,0.0,0.25,0.5,-0.42,-0.67,0.89,0.0,-6.4,6.9,12.5,3.5,12.0,11.5,7.75,1.0,0.25,0.5,0.5,0.5,1.75,0.75,0.5,0.27,0.52,1.58,1061.39,-20.2,57.6
0.96,0.0,0.0,0.0,0.0,0.75,0.25,0.0,0.0,0.0,0.0,0.0,0.0,0.5,-0.42,-0.55,1.02,0.0,-9.4,-1.2,10.5,2.75,11.5,9.5,6.5,1.75,1.25,0.25,0.25,0.75,1.75,0.75,0.5,0.52,0.77,2.27,958.5,-19.9,55.1
0.98,0.0,0.0,0.0,0.0,0.0,0.25,0.0,0.0,0.0,0.0,0.0,0.25,0.5,-0.42,-0.3,1.08,0.0,-10.2,-75.8,8.5,2.0,9.5,6.25,4.25,0.5,1.25,0.25,0.5,0.0,1.5,0.0,0.25,0.89,1.77,3.14,771.07,-22.9,59.9
1.0,0.0,0.0,0.0,0.0,2.25,0.25,0.0,0.0,0.0,0.0,0.0,0.25,0.5,-0.36,-0.11,1.14,0.72,-5.2,17.6,6.25,1.25,6.5,4.0,0.25,2.75,0.0,0.25,0.5,0.5,0.25,0.75,0.0,0.45,1.45,3.77,546.77,-21.2,55.6
1.02,0.0,0.0,0.0,0.0,1.25,0.25,0.0,0.0,0.0,0.0,0.0,0.0,0.25,-0.36,0.14,1.45,22.77,-7.0,29.4,5.0,0.75,5.25,2.75,2.5,0.0,0.0,0.25,0.5,0.0,0.25,0.75,0.5,0.52,-0.3,3.52,360.09,-22.4,52.9
1.04,0.0,0.0,0.0,0.0,0.0,0.25,0.0,0.0,0.0,0.0,0.0,0.25,0.5,-0.42,0.39,1.95,29.96,-10.2,-75.8,2.25,0.25,2.5,2.0,1.25,0.25,0.0,0.25,0.5,0.5,1.75,0.75,0.5,0.39,-0.42,2.52,231.28,-16.5,20.3
1.06,0.0,0.0,0.0,0.0,1.25,0.25,0.0,0.0,0.0,0.0,0.0,0.0,0.5,-0.48,0.58,2.33,28.77,-7.8,13.1,2.0,0.25,2.75,2.25,1.5,0.75,0.0,0.25,0.5,0.75,1.75,0.75,0.5,0.83,0.02,2.33,148.86,-14.3,19.9
1.08,0.0,0.0,0.0,0.0,1.25,0.25,0.0,0.0,0.0,0.0,0.0,0.25,0.5,-0.67,1.45,2.95,31.49,-6.1,0.6,2.0,0.5,2.25,1.0,1.25,0.5,0.0,0.25,0.5,1.0,1.5,0.75,0.25,0.64,-1.36,1.45,87.86,-14.1,17.2
1.1,0.0,0.0,0.0,0.0,1.25,0.25,0.0,0.0,0.0,0.0,0.0,0.25,0.5,-1.05,3.02,3.45,33.52,-6.1,0.6,2.0,0.25,1.75,2.0,1.0,0.5,0.0,0.25,0.5,0.75,1.75,0.75,0.0,0.39,-0.73,1.02,48.38,-15.0,19.1
1.12,0.0,0.0,0.0,0.0,0.0,0.25,0.0,0.0,0.0,0.0,0.0,0.25,0.5,-1.23,4.7,3.2,28.82,-10.2,-75.8,2.0,0.5,1.75,1.75,1.25,1.0,0.0,0.25,0.5,0.75,1.75,0.75,0.0,0.33,-0.48,0.39,42.0,-13.0,21.4
1.14,0.0,0.0,0.25,0.25,3.0,0.75,0.0,0.25,0.0,0.25,0.0,0.25,0.75,-1.11,6.52,-0.8,52.27,-4.7,16.0,2.0,0.75,1.75,2.0,0.5,1.0,0.0,0.25,0.5,0.5,1.75,0.75,0.0,0.2,-0.23,0.27,51.07,-14.9,23.6
1.16,0.0,0.0,0.0,0.0,1.75,0.0,0.0,0.25,0.25,0.5,0.0,0.25,0.25,1.39,7.95,-2.86,58.72,-4.8,-1.1,2.0,0.25,1.5,2.0,1.25,1.25,0.0,0.25,0.5,1.0,1.75,0.75,0.5,0.08,-0.11,0.33,73.43,-10.3,13.0
1.18,0.0,0.0,0.0,0.0,2.25,0.0,0.0,0.25,0.25,1.75,0.0,2.0,3.25,0.14,-2.67,1.27,102.31,-6.4,-58.7,2.0,1.0,1.25,1.25,1.25,2.0,0.0,0.25,0.5,1.0,1.75,0.75,0.5,-0.05,-0.11,0.52,104.21,-7.8,15.5
1.2,0.0,0.0,0.0,0.5,2.25,0.25,0.0,1.5,0.0,2.0,2.0,3.5,5.5,-0.67,1.39,1.64,173.34,-4.8,-65.8,1.75,0.0,1.75,2.0,1.0,1.5,0.0,0.25,0.5,1.0,1.75,0.75,0.25,-0.17,-0.17,0.83,133.03,-10.6,12.6
1.22,0.0,0.0,0.0,0.0,1.25,2.5,0.0,2.0,1.25,5.5,1.75,5.75,6.5,0.52,1.08,3.7,269.65,-6.9,-70.3,1.25,0.25,1.5,0.25,1.0,0.5,0.0,0.25,0.0,0.0,1.75,0.0,0.5,-0.17,-0.11,1.08,132.95,-13.6,18.1
1.24,0.5,0.25,0.0,1.25,2.5,2.75,0.0,7.0,3.5,8.5,6.75,7.5,8.0,-0.05,0.7,2.52,456.83,-4.3,-59.0,0.25,0.0,0.0,0.0,0.25,0.5,0.0,0.0,0.0,0.0,0.25,0.0,0.0,-0.11,0.08,1.08,93.95,0.7,29.2
1.26,0.75,0.25,0.0,2.5,2.5,4.0,0.0,7.25,5.0,8.5,7.25,8.0,8.25,0.02,0.14,1.14,697.3,-3.4,-53.7,0.75,0.5,0.0,1.25,0.25,1.5,0.0,0.25,0.5,0.75,0.25,0.75,0.0,-0.11,0.27,1.39,77.33,-2.8,10.9
1.28,1.0,0.25,0.25,2.5,1.75,4.25,0.0,7.75,5.5,8.75,8.25,8.25,8.25,-0.11,0.08,1.02,918.25,-2.9,-54.2,0.25,0.25,1.25,1.25,0.5,1.25,0.0,0.25,0.5,0.5,1.5,0.75,0.0,-0.05,0.39,1.45,77.75,-8.5,1.9
1.3,0.75,0.25,0.0,2.5,3.0,4.25,0.0,8.0,5.5,9.0,8.0,8.25,8.5,-0.11,0.08,0.95,1059.86,-3.4,-52.9,0.75,0.25,1.25,1.0,1.0,1.25,0.0,0.25,0.5,0.5,1.75,0.75,0.5,0.02,0.58,1.83,98.11,-7.7,0.2
1.32,1.0,0.0,0.25,2.5,3.75,4.0,0.0,8.0,5.5,9.25,8.5,8.25,8.5,-0.11,0.08,0.95,1148.79,-3.0,-51.5,1.25,0.5,1.25,1.25,1.0,1.25,0.0,0.25,0.5,0.25,1.5,0.75,0.5,0.02,0.83,2.27,121.92,-9.8,12.2
1.34,0.75,0.25,0.0,2.0,3.5,4.0,0.0,7.75,5.0,8.5,8.25,7.5,8.25,-0.11,0.08,0.95,1150.79,-3.6,-52.2,1.25,0.25,1.25,1.25,1.0,1.25,0.0,0.25,0.5,0.5,1.5,0.75,0.5,0.2,1.58,3.2,139.17,-9.1,7.9
1.36,0.75,0.25,0.0,2.25,3.0,4.0,0.0,7.75,4.75,8.5,7.25,6.75,7.5,-0.17,0.08,0.95,1105.58,-3.8,-50.8,1.25,0.25,1.25,1.25,0.5,1.5,0.0,0.25,0.25,0.5,1.5,0.75,0.0,0.39,3.02,3.52,140.53,-10.2,13.5
1.38,0.75,0.0,0.0,1.75,2.5,4.0,0.0,7.75,4.25,7.5,6.0,5.75,6.75,-0.11,0.08,0.95,999.93,-4.6,-50.9,1.0,0.5,1.25,1.0,0.5,0.5,0.0,0.25,0.0,0.0,1.5,0.0,0.5,0.2,4.64,2.7,129.67,-13.9,21.6
1.4,0.75,0.0,0.0,2.0,2.5,4.5,0.0,7.25,4.25,6.5,5.25,5.0,5.5,-0.11,0.08,0.95,873.31,-4.5,-45.7,0.0,0.0,0.0,0.0,0.25,1.5,0.0,0.0,0.0,0.0,0.0,0.0,0.0,0.27,7.33,-2.48,91.86,19.5,37.3
1.42,0.75,0.25,0.0,2.5,1.25,5.0,0.0,7.25,4.25,5.75,4.5,3.5,4.75,-0.17,0.08,0.95,726.97,-4.7,-41.3,1.75,0.25,0.0,1.0,0.25,1.5,0.0,0.25,0.5,1.25,1.75,1.5,0.5,-3.67,7.95,-2.36,100.92,-5.0,-15.6
1.44,1.0,0.0,0.25,2.5,3.75,5.0,0.0,6.75,4.5,5.25,4.0,3.25,3.25,-0.11,0.08,0.95,610.75,-3.8,-29.9,0.75,0.25,1.25,1.0,0.5,1.0,0.0,0.5,0.5,1.25,1.75,2.0,3.75,1.2,-0.3,1.52,137.33,-2.2,-41.5
1.46,1.0,0.5,0.25,2.5,5.5,5.75,0.0,7.25,4.75,4.5,3.25,2.25,3.5,-0.11,0.08,0.95,538.85,-4.3,-20.3,0.5,0.5,1.25,1.0,0.5,0.0,0.0,0.5,0.5,4.5,2.0,5.0,4.25,0.77,1.33,1.45,212.19,-0.9,-62.1
1.48,1.25,0.5,0.25,2.75,5.75,5.75,0.0,7.0,5.25,4.25,3.25,2.0,3.25,-0.11,0.08,0.95,499.83,-3.7,-17.3,0.0,0.0,1.25,0.0,1.0,0.75,0.0,3.25,1.75,7.0,5.75,6.0,6.25,-0.36,0.89,5.02,317.05,2.6,-70.6
1.5,1.75,0.75,0.25,3.0,6.0,5.75,0.0,6.75,5.5,4.25,3.0,2.0,2.5,-0.11,0.08,0.95,499.3,-2.7,-12.4,1.75,0.5,0.0,1.0,3.0,4.5,0.0,6.25,5.0,8.5,9.25,8.0,6.75,0.2,0.7,1.14,533.07,2.4,-51.1
1.52,2.0,1.0,0.25,3.25,6.0,6.25,0.0,6.5,5.75,3.5,3.0,1.75,2.5,-0.11,0.08,0.95,509.6,-2.2,-8.4,2.0,0.5,1.5,0.5,3.5,4.75,0.0,7.0,5.0,8.5,10.5,8.0,7.0,-0.05,0.33,1.02,774.29,1.4,-47.8
1.54,3.5,1.5,1.5,4.75,7.0,6.75,0.0,6.5,5.75,3.0,2.25,1.75,2.75,-0.11,0.08,0.95,560.17,0.4,2.9,2.0,0.5,1.5,1.25,3.5,5.0,0.25,7.0,5.0,8.5,10.5,7.75,7.25,0.08,0.14,0.95,978.77,1.3,-45.9
1.56,5.5,1.5,2.25,6.0,8.0,7.0,0.25,6.0,5.5,1.75,1.0,1.75,2.75,-0.11,0.08,0.95,629.81,2.8,14.7,2.0,0.5,1.25,1.0,2.5,5.0,0.0,7.25,4.5,8.5,9.75,7.25,7.0,0.14,0.14,0.95,1075.66,1.9,-47.9
1.58,7.0,1.5,3.0,7.0,9.25,7.25,0.25,5.25,4.75,2.0,2.0,1.75,2.25,-0.11,0.08,0.95,732.2,4.5,20.1,1.5,0.5,1.5,1.0,2.75,4.75,0.0,7.0,4.25,8.25,9.0,7.25,7.0,0.14,0.08,0.95,1094.32,2.1,-48.0
1.6,8.25,1.75,5.25,8.5,11.0,7.5,0.0,4.25,4.0,1.5,2.0,1.5,1.75,-0.17,0.08,0.95,853.9,7.0,30.0,1.25,0.25,1.25,1.0,2.5,4.25,0.0,7.0,4.25,8.0,8.75,7.0,7.0,0.14,0.14,0.95,1057.29,2.4,-50.7
1.62,9.5,3.0,6.75,11.0,13.0,7.5,0.0,3.5,3.0,1.75,1.5,1.25,1.75,-0.17,0.14,1.08,1012.84,8.4,38.0,1.25,0.25,1.25,1.0,2.25,3.0,0.0,6.5,4.25,8.0,8.75,7.0,7.0,0.08,0.14,0.95,1007.79,1.8,-53.4
1.64,10.5,3.25,8.0,13.0,13.5,7.5,0.0,3.25,2.5,0.5,1.25,1.25,2.0,-0.11,0.14,1.2,1166.93,10.0,43.0,1.25,0.25,1.25,0.75,1.0,3.0,0.0,6.5,3.75,7.5,8.5,6.75,7.0,0.08,0.14,0.95,937.76,1.9,-56.8
1.66,12.5,4.5,8.75,13.0,15.0,6.75,0.0,2.25,1.75,0.5,0.0,0.25,1.25,-0.11,0.14,1.27,1295.85,11.6,54.2,1.25,0.25,1.25,1.25,1.5,3.75,0.0,6.25,3.75,7.0,8.25,6.25,6.5,0.08,0.08,0.89,857.1,1.9,-51.4
1.68,11.5,4.0,8.0,12.0,13.0,6.5,0.0,1.75,1.0,0.5,1.25,0.25,1.25,-0.05,0.2,1.27,1312.62,11.8,52.5,2.0,0.5,1.5,1.5,2.75,4.0,0.0,5.75,4.25,6.5,7.75,5.75,6.0,0.08,0.08,0.89,789.66,0.8,-42.0
1.7,12.0,4.5,8.0,12.5,13.5,6.0,0.0,1.75,1.0,1.0,0.5,0.75,1.0,-0.05,0.27,1.33,1310.25,12.0,53.2,2.0,0.5,1.25,1.25,2.5,5.0,0.0,5.75,4.25,5.75,7.5,5.25,5.0,0.08,0.14,0.95,715.91,1.2,-39.2
1.72,15.5,5.5,8.25,13.0,12.0,5.75,0.0,1.75,1.0,1.75,0.5,0.25,1.25,-0.42,0.39,1.45,1315.17,13.4,55.3,2.25,0.5,1.75,2.0,4.25,5.25,0.75,5.75,4.5,5.25,7.25,4.25,4.0,0.08,0.14,0.95,657.04,0.0,-27.4
1.74,12.5,4.5,8.0,12.5,9.25,4.0,0.0,1.0,1.0,1.25,0.5,0.25,1.5,-0.61,0.58,1.89,1240.02,14.7,54.8,2.0,0.75,1.75,2.25,4.5,5.25,0.75,5.75,5.0,4.5,6.75,3.75,3.25,0.08,0.14,0.95,611.1,-0.3,-22.9
1.76,9.25,3.25,5.0,8.75,6.75,3.0,0.0,1.0,0.25,0.0,0.0,0.25,1.0,-0.8,1.02,2.7,1012.6,14.7,59.4,2.25,1.0,2.75,2.5,4.5,5.25,1.0,5.75,5.25,4.0,6.0,3.0,2.25,0.08,0.14,0.95,595.8,-1.9,-14.4
1.78,7.0,1.75,2.75,6.75,5.75,1.0,0.0,0.25,0.25,0.25,0.0,0.25,0.5,-1.36,1.45,3.45,717.42,15.6,60.9,2.0,1.0,2.75,3.25,5.25,5.75,1.25,5.5,5.5,2.75,5.5,2.5,1.75,0.08,0.14,0.95,589.18,-2.3,-7.2
1.8,5.5,1.25,0.0,2.75,3.0,0.25,0.0,0.25,0.75,2.0,0.0,0.25,1.0,-0.92,0.83,3.7,427.8,11.0,38.2,3.25,1.25,4.0,4.0,5.75,6.0,1.25,4.75,5.25,2.5,5.0,2.0,1.5,0.08,0.14,0.95,608.7,-4.5,3.4
1.82,2.0,0.0,0.0,2.75,5.75,0.25,0.0,0.5,1.0,1.75,0.5,0.25,1.0,-0.86,-1.11,3.14,262.87,3.4,20.8,2.75,1.25,4.25,4.75,6.5,6.25,1.5,4.75,5.0,1.75,4.0,1.5,1.75,0.08,0.14,0.95,627.37,-4.4,8.6
1.84,0.5,0.0,0.0,0.0,2.25,0.25,0.0,0.0,0.25,0.0,0.0,0.25,0.5,-0.05,-0.86,0.64,103.73,0.1,23.1,5.25,1.75,4.75,6.0,6.75,6.25,1.75,3.75,4.5,1.5,4.0,1.0,1.5,0.08,0.14,0.95,669.37,-7.2,19.8
1.86,0.25,0.25,0.0,1.5,2.25,1.0,0.0,0.0,1.0,1.5,0.0,0.5,0.75,-0.92,-0.86,1.95,10.61,-1.0,2.1,5.75,2.0,6.25,7.75,8.0,6.25,1.75,3.25,3.25,1.5,2.75,1.0,1.25,0.08,0.14,0.95,725.0,-8.6,29.4
1.88,1.0,0.75,0.0,0.75,3.5,1.5,0.0,0.25,1.0,1.5,0.75,0.25,1.5,-0.42,-0.86,1.45,0.0,-1.2,4.9,6.5,2.25,7.5,10.5,9.0,6.75,1.25,2.5,2.5,1.25,2.75,1.0,1.0,0.02,0.14,0.95,811.39,-10.0,36.3
1.9,0.75,0.0,0.0,0.0,3.5,1.75,0.0,0.25,0.75,1.5,0.5,0.25,1.0,-0.36,-0.61,0.7,0.0,-4.8,1.2,7.5,3.0,8.25,12.0,9.75,6.75,0.75,2.0,1.5,1.25,1.75,0.25,0.75,0.02,0.2,1.14,895.44,-11.1,45.9
1.92,0.75,0.0,0.0,0.0,3.0,1.5,0.0,0.25,0.0,0.0,0.75,0.25,0.75,-0.36,-0.48,0.27,0.0,-3.1,16.6,8.5,3.25,9.0,11.5,11.0,6.25,0.0,2.0,1.25,1.25,2.0,1.0,0.75,0.08,0.2,1.27,984.24,-11.5,45.3
1.94,0.5,0.5,0.0,0.0,3.0,1.25,0.0,0.0,0.0,0.0,0.75,0.25,1.25,-0.3,-0.36,0.33,0.0,-2.9,12.5,9.0,3.0,9.75,14.5,11.0,6.25,0.0,2.0,1.25,1.25,1.75,0.75,0.75,0.08,0.27,1.27,1077.08,-12.3,47.4
1.96,0.0,0.0,0.0,0.0,3.0,0.25,0.0,0.25,0.0,0.0,0.0,0.25,0.25,-0.3,-0.23,0.58,0.0,-5.0,28.8,9.75,3.25,9.75,13.0,11.0,3.75,0.0,1.0,0.75,1.0,2.0,0.75,0.75,0.02,0.27,1.39,1107.56,-14.5,50.6
1.98,0.0,0.0,0.0,0.0,1.75,0.0,0.0,0.25,0.0,0.0,0.0,0.0,0.5,-0.17,-0.11,0.95,0.0,-6.4,15.1,10.0,4.25,9.75,12.5,11.0,3.0,0.0,1.0,0.5,0.5,1.75,0.0,0.5,0.14,0.39,1.58,1103.98,-15.4,56.7
2.0,0.0,0.0,0.0,0.0,1.75,0.0,0.0,0.0,0.0,0.0,0.0,0.25,0.5,-0.23,-0.11,1.27,0.0,-4.1,8.8,9.25,3.5,9.75,9.5,9.0,3.25,0.0,0.75,0.0,0.0,1.75,0.25,0.5,0.33,0.52,1.58,1015.02,-16.3,57.4
2.02,0.0,0.0,0.0,0.0,2.25,0.0,0.0,0.25,0.0,0.0,0.0,0.25,0.5,-0.3,0.08,1.39,10.41,-4.8,12.6,5.75,0.75,8.0,5.75,4.5,2.0,0.0,0.25,0.0,0.0,0.5,0.25,0.0,0.45,1.89,3.39,778.22,-19.6,60.4
2.04,0.0,0.0,0.0,0.0,2.25,0.25,0.0,0.25,0.25,0.0,0.0,0.25,0.5,-0.36,0.33,1.45,25.77,-4.8,10.8,4.5,0.5,5.5,3.25,0.5,0.75,0.0,0.25,0.0,0.0,0.0,0.0,0.0,0.45,2.02,4.7,493.34,-26.5,68.5
2.06,0.25,0.0,0.0,0.0,2.25,0.25,0.0,0.0,0.5,1.75,0.25,0.25,0.75,-0.36,0.52,1.58,49.23,-5.0,-16.9,2.25,0.75,2.75,2.5,0.5,1.5,0.0,0.0,0.25,0.0,12.0,0.5,0.25,0.77,1.33,4.64,327.72,-14.4,-12.3
2.08,0.5,0.0,0.0,0.0,2.5,0.5,0.0,0.25,0.5,1.5,0.0,0.25,0.5,-0.36,0.58,1.77,74.23,-4.4,-1.3,0.5,0.0,0.0,1.0,0.0,0.5,0.0,0.0,0.0,0.0,0.25,0.0,0.0,0.08,1.45,-0.36,160.48,-11.7,46.7
2.1,0.5,0.25,0.0,1.5,2.5,2.0,0.0,0.25,1.0,1.75,0.75,0.5,1.25,-0.48,0.7,1.95,112.57,-2.4,-3.9,0.75,0.25,1.25,1.0,0.0,2.0,0.0,0.0,0.25,0.0,0.25,0.5,0.0,1.14,1.45,2.77,45.57,-10.0,34.9
2.12,5.5,1.5,0.0,2.5,2.5,1.5,0.0,0.5,0.75,0.25,2.0,0.25,1.0,-0.48,3.14,-5.11,178.04,11.3,35.8,1.75,0.25,1.75,1.25,1.0,0.5,0.0,0.25,0.0,0.0,1.75,0.25,0.5,0.2,0.33,1.95,0.0,-15.6,24.3
2.14,2.25,0.25,0.0,1.0,2.5,1.0,0.0,0.25,0.0,0.25,0.0,0.0,1.0,0.77,7.95,5.27,191.79,4.7,38.4,0.75,0.0,2.0,1.0,1.0,0.5,0.0,0.25,0.0,0.0,1.75,0.0,0.5,-0.48,-0.05,1.2,0.0,-14.4,17.5
2.16,0.0,0.0,0.0,0.0,1.75,0.25,0.0,0.0,0.0,0.0,0.0,0.0,0.5,0.27,0.83,-0.61,163.1,-6.8,21.5,2.0,0.5,0.5,1.75,0.0,1.25,0.0,0.0,0.5,0.75,0.0,0.75,0.0,-0.11,0.14,0.77,0.0,-12.2,32.1
2.18,0.0,0.0,0.0,0.0,1.75,0.25,0.0,0.0,0.0,0.0,0.0,0.25,0.25,0.58,0.52,-2.86,115.88,-4.8,21.9,2.0,0.25,1.5,1.75,1.75,1.75,0.0,0.0,0.5,0.75,1.5,0.75,0.25,0.77,0.27,-0.55,0.0,-9.9,21.5
2.2,0.5,0.0,0.0,1.0,2.5,1.5,0.0,0.5,0.75,0.0,0.5,0.25,1.25,-0.48,0.02,-0.48,109.27,-1.8,6.2,0.75,0.0,1.25,0.5,1.75,0.5,0.0,0.25,0.0,0.0,1.0,0.25,0.0,1.45,-0.17,-1.8,13.38,-11.3,29.6
2.22,0.5,0.0,0.0,0.25,1.75,1.0,0.0,0.25,0.0,0.0,0.0,0.25,0.25,-0.73,-3.98,7.27,91.41,-2.9,30.5,2.0,0.25,0.25,1.25,0.25,1.75,0.0,0.25,0.5,0.5,1.5,0.75,0.0,0.83,-0.3,-1.61,43.05,-8.6,12.5
2.24,1.75,0.0,0.0,3.0,2.25,2.5,0.0,0.25,1.0,1.75,0.0,0.25,0.5,0.2,-0.11,-0.36,135.03,1.7,22.0,1.75,0.25,1.25,1.25,1.25,1.25,0.0,0.25,0.5,0.75,1.75,0.75,0.0,0.33,-0.36,-1.23,84.78,-10.4,14.6
2.26,0.25,1.5,1.25,4.5,5.75,5.0,0.0,0.5,4.75,3.0,0.25,1.5,1.25,0.95,1.02,0.2,238.88,0.9,9.6,1.75,0.0,1.25,1.5,1.0,2.0,0.0,0.25,0.5,0.0,1.75,0.75,0.0,0.08,-0.42,-0.67,128.85,-10.5,20.2
2.28,2.25,0.5,0.25,5.0,7.75,7.0,0.0,7.75,7.25,4.5,5.25,2.0,2.75,-0.42,1.14,1.64,425.93,-1.5,-10.3,2.0,0.25,1.25,1.0,1.0,1.5,0.0,0.0,0.5,0.75,1.75,0.75,0.5,-0.11,-0.86,0.14,152.62,-9.9,10.2
2.3,4.0,1.75,2.75,7.0,9.0,7.25,1.0,7.25,4.75,2.0,3.0,1.25,2.5,-0.11,-0.11,1.2,661.42,2.2,12.8,1.75,0.5,1.5,0.0,0.5,0.5,0.0,0.0,0.0,0.25,1.75,0.75,0.0,-0.05,-1.23,0.39,148.04,-17.6,16.6
2.32,6.25,1.75,4.5,9.5,12.0,7.5,0.0,4.75,2.5,1.75,2.0,0.75,1.5,-0.17,0.2,0.89,891.52,5.2,31.6,2.0,0.25,1.25,1.0,1.25,1.75,0.0,0.0,0.5,0.25,1.75,0.75,0.0,-0.23,-1.17,0.7,163.09,-11.2,21.7
2.34,7.25,2.75,5.0,11.0,14.0,8.75,0.0,4.25,1.75,2.0,1.25,0.75,1.5,-0.17,0.2,0.83,1081.7,5.5,37.7,1.5,0.25,1.25,1.25,0.5,1.25,0.0,0.25,0.5,0.75,1.75,0.75,0.25,-0.8,-0.61,0.83,153.75,-10.4,6.3
2.36,8.75,3.5,5.75,11.0,16.5,9.5,0.0,4.25,1.25,2.0,1.0,0.75,1.5,-0.17,0.14,1.08,1262.83,5.8,41.5,2.75,0.5,1.25,1.25,0.5,1.75,0.0,0.25,0.5,0.5,1.75,0.75,0.0,-0.55,-0.92,0.39,163.1,-12.7,23.0
2.38,10.5,4.5,6.5,13.0,17.0,9.5,0.0,3.5,1.0,1.75,0.5,0.25,1.5,-0.17,0.14,1.45,1401.55,7.4,47.7,2.0,0.25,1.0,1.0,1.0,1.5,0.0,0.25,0.5,0.0,1.75,0.75,0.5,0.64,-1.67,-0.48,164.75,-10.4,14.0
2.4,11.5,4.5,6.5,13.0,17.0,8.75,0.0,2.25,0.5,0.5,0.5,0.0,1.5,-0.3,0.2,1.58,1470.68,8.9,53.5,1.75,0.0,1.0,0.0,0.5,0.5,0.0,0.0,0.0,0.0,1.75,0.0,0.25,-0.42,-1.36,-1.05,143.46,-17.4,20.0
2.42,12.5,5.5,6.5,13.0,16.0,8.0,0.0,2.0,0.75,1.75,0.5,0.25,1.0,-0.36,0.27,1.64,1500.83,9.6,53.3,1.25,0.5,0.0,1.0,0.25,1.5,0.0,0.0,0.0,0.0,0.5,0.0,0.0,0.14,0.77,-4.11,114.42,-7.5,51.4
2.44,13.0,5.75,6.5,11.0,12.0,7.0,0.0,1.25,0.5,1.75,0.5,0.25,1.0,-0.73,0.58,1.7,1439.99,11.4,55.4,0.5,0.0,0.5,0.0,0.5,0.5,0.0,0.0,0.0,0.0,0.5,0.0,0.0,0.83,1.45,-3.05,78.85,-11.3,34.8
2.46,12.5,5.75,5.0,10.5,9.5,5.75,0.0,0.5,0.5,0.75,0.75,0.25,0.75,-1.36,0.89,2.27,1320.0,12.9,59.4,0.5,0.0,0.0,0.0,0.25,0.5,0.0,0.0,0.0,0.0,0.5,0.0,0.0,2.27,1.27,-1.73,43.24,-5.7,23.7
2.48,10.5,4.5,3.5,6.75,7.75,4.0,0.0,0.25,0.25,1.0,0.5,0.25,1.0,-2.11,2.33,3.2,1040.45,12.6,57.9,1.75,0.5,0.0,0.0,0.0,0.5,0.0,0.0,0.25,0.0,0.5,0.0,0.0,2.7,0.77,-3.17,28.2,-18.2,53.9
2.5,7.0,1.75,0.0,4.0,6.0,3.0,0.0,0.25,0.25,1.0,0.5,0.25,1.25,-1.55,3.52,3.7,702.22,8.0,47.5,1.75,0.0,0.5,0.0,0.5,0.5,0.0,0.0,0.0,0.0,1.5,0.0,0.5,1.14,-0.92,-3.42,36.64,-14.0,13.9
2.52,1.75,0.0,0.0,0.0,4.75,1.5,0.0,0.0,0.0,1.0,0.0,0.25,0.0,-2.36,2.45,4.83,371.98,-0.7,40.7,0.5,0.0,0.0,0.0,0.0,0.25,0.0,0.0,0.0,0.0,0.5,0.0,0.0,-0.61,-1.86,-2.98,26.45,-13.6,14.4
2.54,1.75,0.75,0.0,2.5,2.25,2.25,0.0,0.25,0.5,1.75,0.5,0.25,0.75,-3.3,3.95,4.2,216.18,1.8,21.1,0.5,0.0,0.0,0.0,0.0,0.5,0.0,0.0,0.0,0.0,0.5,0.0,0.0,-0.92,-1.73,-0.86,18.94,-7.5,17.7
2.56,1.75,0.75,0.0,1.75,2.5,1.75,0.0,0.25,0.5,1.75,0.25,0.25,1.0,0.83,1.77,2.89,97.82,1.2,18.2,1.75,0.5,0.0,0.75,0.25,1.25,0.0,0.0,0.25,0.0,0.5,0.75,0.0,-1.11,-1.23,0.08,31.61,-10.9,31.3
2.58,1.75,0.25,0.0,1.5,3.0,1.75,0.0,0.25,0.5,1.25,1.25,0.25,1.25,-0.48,2.14,1.45,39.63,1.3,10.1,0.5,0.0,1.25,0.0,1.0,0.5,0.0,0.25,0.0,0.0,1.25,0.25,0.0,-1.42,-1.3,0.14,46.52,-12.1,14.5
2.6,2.0,0.5,0.0,1.5,2.5,1.5,0.0,0.25,0.5,1.75,0.0,0.25,1.0,-0.36,0.58,1.64,12.06,1.6,18.8,0.5,0.0,0.0,0.0,0.0,0.5,0.0,0.0,0.0,0.0,0.5,0.0,0.0,-0.86,-0.05,-0.73,42.58,-7.5,17.7
2.62,2.0,0.5,0.0,2.0,3.0,1.75,0.0,0.25,0.75,1.75,0.5,0.25,1.5,0.14,-0.48,2.27,27.55,1.5,13.2,0.75,0.0,0.0,0.0,0.0,0.5,0.0,0.0,0.0,0.0,0.5,0.0,0.25,-0.67,0.64,-1.05,39.86,-8.0,10.3
2.64,2.5,0.0,0.0,1.0,2.5,1.75,0.0,0.25,0.75,1.75,0.5,0.25,1.0,0.58,-2.48,3.33,37.68,1.8,12.3,0.75,0.0,0.0,0.0,0.0,0.5,0.0,0.0,0.0,0.0,0.5,0.0,0.0,-0.42,0.95,-1.8,33.28,-11.4,29.0
2.66,2.0,0.75,0.0,1.5,2.5,1.5,0.0,0.25,0.75,1.75,0.75,0.75,1.5,0.89,-5.23,4.27,67.66,2.1,5.3,0.5,0.0,0.0,0.0,0.25,0.0,0.0,0.0,0.0,0.0,0.25,0.0,0.0,-0.17,1.89,-2.36,22.48,-18.0,42.9
2.68,2.25,0.5,0.0,0.25,2.5,1.5,0.0,0.25,0.5,1.75,1.0,0.5,1.25,3.08,-5.8,6.52,95.52,1.1,3.6,0.25,0.0,0.0,0.0,0.0,0.5,0.0,0.0,0.0,0.0,0.5,0.0,0.0,0.14,1.95,-2.55,17.96,-2.1,2.0
2.7,1.75,0.0,0.0,0.5,3.0,1.5,0.0,0.25,0.5,1.75,0.75,0.25,1.25,2.7,-4.61,4.14,122.46,-0.9,3.3,0.5,0.0,0.0,0.0,0.0,0.5,0.0,0.0,0.0,0.0,0.5,0.0,0.0,-0.11,1.64,-1.61,17.17,-7.5,17.7
2.72,0.75,0.0,0.0,1.0,2.5,1.5,0.0,0.25,0.75,1.75,1.25,1.75,1.75,-3.42,-0.92,-7.98,150.15,-1.3,-23.5,0.25,0.0,0.0,0.0,0.0,0.5,0.0,0.0,0.0,0.0,0.5,0.0,0.0,-0.36,1.39,-1.23,13.66,-2.1,2.0
2.74,0.75,0.0,0.0,1.0,2.5,1.5,0.0,0.25,0.75,1.75,1.5,1.0,2.0,0.2,-1.55,-7.98,173.15,-1.9,-21.2,0.0,0.0,0.0,0.0,0.0,0.5,0.0,0.0,0.0,0.0,0.5,0.0,0.0,-0.36,1.52,-0.98,11.09,5.8,-21.3
2.76,0.75,0.0,0.0,1.5,2.5,1.5,0.0,0.25,0.75,1.75,1.25,1.0,1.25,-2.05,-0.3,-6.23,184.23,-0.6,-11.6,0.5,0.0,0.0,0.0,0.0,0.25,0.0,0.0,0.0,0.0,0.5,0.0,0.0,0.2,1.58,-1.11,13.19,-13.6,14.4
2.78,0.75,0.0,0.0,1.25,2.5,2.0,0.0,0.25,0.75,1.75,1.0,0.25,1.5,-0.8,-0.8,-1.92,179.59,-3.0,-6.2,1.75,0.25,0.0,0.0,0.0,0.25,0.0,0.0,0.25,0.0,0.25,0.75,0.0,0.58,1.45,-0.92,24.14,-20.0,24.9
2.8,0.5,0.0,0.0,1.25,1.75,1.5,0.0,0.0,0.25,0.0,0.5,0.25,1.5,1.45,-1.86,-0.98,158.4,-1.4,4.5,0.5,0.0,1.25,0.0,0.5,0.5,0.0,0.0,0.0,0.0,0.5,0.0,0.0,0.45,1.33,-0.55,34.86,-17.6,40.9
2.82,0.75,0.0,0.25,0.5,2.5,1.5,0.0,0.25,0.75,1.75,0.75,0.25,1.5,2.64,0.33,-1.61,151.06,-2.9,-9.4,0.5,0.0,0.0,0.0,0.0,0.5,0.0,0.0,0.0,0.0,0.25,0.0,0.0,0.52,1.08,0.02,37.51,-6.9,36.8
2.84,0.0,0.0,0.25,0.75,2.25,1.5,0.0,0.25,0.25,0.0,1.0,0.25,1.5,1.58,0.39,-0.8,133.47,-3.2,-4.8,1.25,0.5,1.25,0.5,0.5,1.0,0.0,0.25,0.25,0.0,1.75,0.0,0.0,0.45,0.77,0.27,69.1,-13.7,26.3
2.86,1.0,0.5,0.25,1.25,2.25,1.5,0.0,0.25,0.5,2.0,1.0,0.25,1.5,1.14,0.39,-0.73,144.88,-0.6,-2.2,1.25,0.25,0.75,1.0,0.5,1.25,0.0,0.25,0.0,0.0,1.5,0.75,0.25,0.27,0.33,0.33,93.59,-10.0,11.5
2.88,1.0,0.25,0.0,0.25,2.5,1.5,0.0,0.25,0.25,0.75,0.75,0.25,1.25,0.14,0.27,-1.3,141.32,-2.3,3.8,1.25,0.25,1.25,1.0,0.5,0.75,0.0,0.25,0.25,0.0,1.25,0.75,0.0,0.2,0.02,0.14,117.26,-14.9,18.8
2.9,1.0,0.5,0.0,1.0,2.25,1.5,0.0,0.25,0.5,1.75,0.75,0.25,1.25,-0.36,0.89,-1.8,151.49,-1.5,0.5,0.75,0.25,1.25,1.0,0.5,0.75,0.0,0.25,0.0,0.0,0.75,0.75,0.0,0.45,-0.23,-0.17,123.59,-13.8,22.5
2.92,1.0,0.5,0.0,1.0,2.25,1.5,0.0,0.25,0.5,1.75,0.5,0.25,1.25,-0.48,1.52,-1.8,153.65,-1.7,2.2,0.0,0.0,1.25,1.0,0.5,0.75,0.0,0.0,0.0,0.0,0.25,0.75,0.0,0.27,-0.36,-0.17,116.07,-12.6,20.4
2.94,1.0,0.5,0.0,1.25,2.25,1.5,0.0,0.25,0.5,1.5,0.75,0.25,1.5,-0.55,1.77,-1.36,160.79,-1.0,1.0,1.75,0.25,1.0,1.0,0.5,0.75,0.0,0.25,0.0,0.0,1.75,0.75,0.5,0.08,-0.61,-0.05,121.3,-13.4,10.4
2.96,1.5,0.25,0.25,0.25,2.5,1.5,0.0,0.25,0.5,1.75,0.75,0.25,1.25,-0.3,1.7,-0.92,162.06,-0.7,1.0,0.25,0.0,1.0,0.0,0.5,0.25,0.0,0.0,0.0,0.0,0.25,0.0,0.0,-0.05,-0.86,-0.05,97.54,-18.4,45.8
2.98,0.5,0.25,0.0,1.0,2.25,1.5,0.0,0.25,0.5,1.5,0.75,0.25,1.0,-0.61,1.7,-0.73,159.91,-2.9,-1.7,0.5,0.0,0.0,0.0,0.0,0.5,0.0,0.0,0.0,0.0,0.25,0.0,0.0,-0.11,-0.98,-0.11,72.88,-6.9,36.8
3.0,0.75,0.0,0.0,1.0,2.5,1.5,0.0,0.25,0.5,1.5,0.5,0.25,1.25,-0.42,1.7,-0.67,157.68,-3.0,-1.4,1.25,0.0,0.0,0.0,0.0,0.25,0.0,0.0,0.0,0.0,0.25,0.0,0.0,-0.23,-1.11,-0.11,45.61,-23.1,63.2
3.02,0.5,0.25,0.0,1.0,2.25,1.5,0.0,0.25,0.5,1.5,0.75,0.25,1.0,-0.73,1.52,-0.42,153.99,-2.9,-1.7,1.25,0.25,0.0,1.0,0.25,0.5,0.0,0.25,0.0,0.0,1.5,0.75,0.5,-0.23,-1.17,-0.3,52.7,-9.9,-4.1
3.04,1.0,0.0,0.25,0.5,2.5,1.75,0.0,0.25,0.5,1.75,0.5,0.25,1.25,-0.48,0.95,0.14,156.51,-2.9,-1.6,0.75,0.5,1.25,1.0,0.5,0.75,0.0,0.25,0.0,0.0,1.5,0.75,0.5,-0.17,-1.11,-0.23,73.91,-11.7,7.1
3.06,0.75,0.0,0.0,0.5,2.25,1.5,0.0,0.25,0.5,1.5,0.5,0.25,1.25,-0.11,0.52,-0.17,149.35,-4.1,-6.3,1.5,0.25,1.25,1.0,0.5,0.75,0.0,0.25,0.0,0.0,1.25,0.75,0.5,-0.23,-0.98,-0.05,100.43,-13.7,14.6
3.08,1.25,0.0,0.0,1.0,2.5,1.5,0.0,0.25,0.5,1.25,0.75,0.25,1.0,0.2,0.27,-0.73,152.12,-0.4,5.6,1.5,0.25,1.25,1.0,0.5,0.75,0.0,0.25,0.0,0.0,1.5,0.75,0.25,-0.17,-0.73,-0.05,114.71,-14.5,15.9
3.1,1.0,0.0,0.25,1.0,2.25,1.5,0.0,0.25,0.5,1.75,0.5,0.25,1.0,0.33,0.02,-0.98,150.46,-1.2,1.6,1.5,0.25,1.25,1.0,0.5,0.75,0.0,0.25,0.0,0.0,1.75,0.75,0.5,-0.23,-0.55,0.08,126.47,-13.5,9.5
3.12,0.75,0.25,0.0,1.0,2.25,1.5,0.0,0.25,0.5,1.75,0.75,0.25,1.0,0.58,-0.11,-0.73,154.09,-2.3,-1.3,1.25,0.0,1.25,1.0,0.5,0.5,0.0,0.25,0.0,0.0,1.5,0.75,0.5,-0.42,-0.42,0.14,127.82,-14.1,5.6
3.14,0.75,0.25,0.0,1.0,2.25,1.5,0.0,0.25,0.5,1.75,0.75,0.25,1.25,0.39,-0.42,-0.61,154.45,-2.6,-3.9,1.5,0.25,1.25,1.0,0.5,0.5,0.0,0.25,0.0,0.0,1.5,0.75,0.5,-0.48,-0.3,-0.17,131.0,-14.7,11.3
3.16,0.75,0.25,0.0,1.5,2.25,1.5,0.0,0.25,0.5,1.5,0.75,0.25,1.0,0.33,-0.55,-0.61,157.35,-1.1,3.2,2.0,0.25,1.25,1.0,0.5,0.5,0.0,0.25,0.0,0.0,1.5,0.75,0.5,-0.55,-0.05,-0.23,135.34,-15.8,16.1
3.18,0.75,0.25,0.0,0.75,2.5,1.5,0.0,0.25,0.25,1.25,0.5,0.25,1.0,0.02,-0.61,-0.36,153.45,-2.9,5.4,2.0,0.25,1.25,1.0,0.5,0.5,0.0,0.25,0.0,0.0,1.5,0.75,0.5,-0.8,0.08,-0.36,138.72,-15.8,16.1
3.2,0.75,0.25,0.0,0.5,2.5,1.75,0.0,0.25,0.25,1.5,0.5,0.25,1.25,-0.11,-0.67,-0.17,151.83,-4.5,-0.2,1.5,0.5,1.25,1.0,1.0,0.5,0.0,0.25,0.0,0.0,1.5,0.75,0.5,-1.11,0.2,-0.36,146.19,-13.4,16.6
3.22,0.25,0.25,0.0,0.0,2.25,1.75,0.0,0.25,0.25,1.0,0.5,0.25,1.0,-0.17,-0.67,0.14,140.33,-7.3,-3.4,2.0,0.25,1.25,0.75,0.5,0.75,0.0,0.0,0.0,0.0,0.25,0.75,0.0,-1.17,0.27,-0.42,136.85,-18.9,44.3
3.24,1.0,0.5,0.0,1.0,2.5,1.5,0.0,0.25,0.25,1.5,0.5,0.25,1.0,-0.17,-0.67,0.45,143.37,-1.5,9.1,1.25,0.25,1.25,1.0,0.5,0.5,0.0,0.25,0.0,0.0,1.75,0.75,0.5,-1.3,0.27,-0.3,130.43,-14.0,6.2
3.26,0.5,0.5,0.0,1.0,2.25,1.5,0.0,0.25,0.25,1.75,0.5,0.25,1.0,-0.11,-0.67,0.52,143.62,-3.5,1.6,1.5,0.5,1.25,1.0,0.5,0.75,0.0,0.25,0.0,0.0,1.5,0.75,0.5,-1.36,0.33,-0.3,125.35,-13.6,14.6
3.28,0.5,0.25,0.0,0.25,2.25,1.25,0.0,0.25,0.25,1.75,0.75,0.25,0.75,-0.3,-0.73,0.45,141.23,-4.6,-5.9,1.0,0.25,1.25,1.0,0.5,0.5,0.0,0.25,0.0,0.0,1.75,0.75,0.5,-1.3,0.2,-0.42,122.99,-13.3,3.4
3.3,0.75,0.25,0.0,0.75,2.25,1.0,0.0,0.25,0.25,1.5,0.5,0.25,1.5,-0.48,-0.73,-0.05,139.97,-2.8,-5.7,0.5,0.0,1.25,0.0,0.25,0.5,0.0,0.25,0.0,0.0,1.5,0.75,0.5,-1.36,-0.05,-0.42,108.99,-11.8,-18.6
3.32,0.5,0.0,0.0,1.0,2.5,1.5,0.0,0.25,0.25,1.75,1.0,0.25,1.0,-0.48,-0.8,-0.3,141.81,-3.6,-5.3,2.0,0.25,1.25,1.0,0.5,0.75,0.0,0.25,0.0,0.0,1.5,0.75,0.25,-1.36,-0.17,-0.42,113.09,-15.6,20.4
3.34,0.5,0.0,0.0,0.5,2.25,1.75,0.0,0.25,0.25,1.75,0.5,0.25,1.25,-0.42,-0.73,-0.3,141.04,-6.2,-8.9,1.25,0.25,1.25,1.0,0.5,0.75,0.0,0.25,0.0,0.0,1.75,0.75,0.0,-1.36,-0.3,-0.36,112.75,-14.7,14.8
3.36,0.75,0.0,0.0,0.5,2.25,1.0,0.0,0.25,0.25,1.75,0.5,0.25,1.0,-0.36,-0.73,-0.3,137.43,-3.6,-6.5,1.5,0.25,1.25,0.75,0.5,0.75,0.0,0.25,0.0,0.0,1.5,0.75,0.5,-1.3,-0.3,-0.3,118.32,-13.5,10.5
3.38,0.25,0.5,0.0,0.25,2.5,1.5,0.0,0.25,0.25,1.75,0.75,0.25,1.0,-0.36,-0.73,-0.3,137.85,-5.7,-5.6,1.5,0.25,1.25,1.0,0.5,0.5,0.0,0.25,0.0,0.0,1.5,0.75,0.5,-1.17,-0.36,-0.17,120.12,-14.7,11.3
3.4,0.5,0.25,0.0,1.25,2.25,1.5,0.0,0.25,0.25,1.75,0.5,0.25,0.75,-0.36,-0.55,-0.3,140.0,-3.1,3.5,1.75,0.25,1.25,1.0,0.5,0.75,0.0,0.25,0.0,0.0,1.5,0.75,0.5,-0.92,-0.3,-0.11,125.46,-14.2,14.3
3.42,1.0,0.0,0.0,0.75,2.25,1.5,0.0,0.25,0.25,1.75,0.75,0.25,1.0,-0.23,-0.48,-0.36,144.0,-2.7,-2.2,1.5,0.25,1.25,1.0,0.5,0.75,0.0,0.25,0.0,0.0,1.5,0.75,0.5,-0.61,0.14,0.45,126.49,-13.6,12.0
3.44,0.75,0.0,0.0,1.0,2.25,1.5,0.0,0.25,0.25,1.75,0.75,0.25,0.75,-0.17,-0.42,-0.23,146.18,-2.8,-0.1,2.0,0.25,1.25,1.0,0.5,0.5,0.0,0.25,0.0,0.0,1.5,0.75,0.25,-0.8,0.2,0.27,128.63,-16.7,20.0
3.46,0.5,0.0,0.0,1.25,2.25,1.75,0.0,0.25,0.25,1.5,0.5,0.25,0.75,-0.36,-0.42,-0.23,147.0,-3.7,3.7,1.75,0.75,1.25,1.0,0.5,0.75,0.0,0.25,0.0,0.0,1.5,0.75,0.5,-0.92,0.02,0.33,134.54,-14.1,19.2
3.48,1.0,0.25,0.0,1.0,2.25,1.0,0.0,0.25,0.25,1.25,0.5,0.25,1.25,-0.55,-0.23,-0.23,144.51,-0.7,3.1,2.0,0.5,1.25,1.0,0.5,0.5,0.0,0.25,0.0,0.0,1.75,0.75,0.5,-0.8,0.2,0.45,137.28,-15.6,16.0
3.5,1.0,0.0,0.0,0.75,2.25,1.25,0.0,0.25,0.25,0.25,0.75,0.25,1.0,-0.86,-0.23,-0.17,138.75,0.1,10.0,1.5,0.25,1.25,1.0,0.5,0.5,0.0,0.25,0.0,0.0,1.5,0.75,0.5,-0.98,0.39,0.89,135.34,-14.7,11.3
3.52,1.0,0.25,0.0,0.75,2.25,1.5,0.0,0.25,0.25,1.75,0.5,0.0,1.0,-1.11,-0.23,-0.17,140.53,-2.9,5.0,1.75,0.0,1.0,1.0,0.5,0.5,0.0,0.25,0.0,0.0,1.5,0.75,0.75,-1.17,0.45,1.08,132.42,-13.7,5.5
3.54,1.0,0.25,0.0,0.75,2.5,1.5,0.0,0.25,0.25,1.25,0.75,0.25,1.0,-1.48,-0.23,-0.17,142.6,-1.7,5.6,1.75,0.25,1.25,1.0,0.5,0.5,0.0,0.25,0.0,0.0,1.5,0.75,0.5,-1.17,0.27,1.08,130.15,-15.3,13.8
3.56,1.0,0.25,0.0,0.75,2.25,1.5,0.0,0.25,0.25,1.5,0.5,0.25,1.25,-1.8,-0.42,-0.17,146.79,-2.6,1.2,1.5,0.25,1.25,1.0,0.5,0.5,0.0,0.25,0.0,0.0,1.5,0.75,0.5,-1.3,0.39,0.95,125.25,-14.7,11.3
3.58,1.0,0.25,0.0,1.0,0.75,1.25,0.0,0.25,0.25,1.75,0.75,0.25,1.0,-2.23,-0.55,-0.23,142.05,-1.0,-9.6,1.25,0.5,1.25,1.0,0.5,0.75,0.0,0.25,0.0,0.0,1.75,0.75,0.5,-1.42,0.45,0.89,127.04,-12.9,9.8
3.6,0.75,0.25,0.25,0.75,2.5,1.5,0.0,0.25,0.25,1.5,0.5,0.25,0.75,-3.05,-0.3,-0.61,143.67,-1.9,7.8,1.75,0.25,1.25,1.0,0.5,0.5,0.0,0.25,0.0,0.0,1.5,0.75,0.5,-1.67,0.39,1.14,127.35,-15.3,13.8
3.62,1.0,0.0,0.0,0.5,2.25,1.5,0.0,0.0,0.25,1.75,0.5,0.25,0.75,-2.98,-0.61,-0.8,138.63,-3.0,2.1,1.75,0.25,1.25,1.0,0.5,0.5,0.0,0.25,0.0,0.0,1.25,0.75,1.0,-1.73,0.2,1.08,128.75,-13.6,8.8
3.64,1.0,0.25,0.0,0.75,2.25,1.5,0.0,0.0,0.25,0.5,0.75,0.25,1.25,-1.92,-0.48,-0.36,137.76,-0.4,8.8,1.5,0.5,1.25,1.0,0.5,0.5,0.0,0.25,0.0,0.0,1.5,0.75,0.5,-1.73,0.08,1.02,128.04,-14.6,14.1
3.66,1.0,0.0,0.0,0.75,2.25,1.5,0.0,0.0,0.25,1.25,0.75,0.25,0.75,-0.92,-0.23,-0.36,136.14,-1.3,5.9,1.25,0.75,1.25,0.75,0.5,0.5,0.0,0.25,0.0,0.0,1.5,0.75,0.5,-1.67,-0.05,0.89,126.94,-13.9,12.9
3.68,0.25,0.25,0.0,0.25,2.25,1.5,0.0,0.25,0.25,1.0,0.75,0.25,1.0,1.08,-0.3,-0.55,132.25,-5.5,-4.6,1.25,0.25,1.25,1.0,0.5,0.75,0.0,0.25,0.0,0.0,1.5,0.75,0.5,-1.55,-0.05,0.89,124.8,-13.0,9.5
3.7,1.5,0.75,0.0,0.25,2.25,1.5,0.0,0.25,0.25,1.5,0.75,0.25,1.0,1.02,1.52,-0.05,139.08,-0.6,8.4,2.0,0.0,1.25,1.0,0.5,0.5,0.0,0.25,0.0,0.0,1.75,0.75,0.25,-1.23,-0.05,0.89,124.47,-16.7,14.7
3.72,0.25,0.25,0.0,0.5,2.25,1.25,0.0,0.25,0.25,1.5,0.5,0.25,1.0,-0.73,-0.3,0.33,135.92,-5.4,-5.9,2.0,0.25,1.25,1.0,0.5,0.75,0.0,0.25,0.0,0.0,1.25,0.75,0.5,-1.11,-0.11,0.89,127.09,-14.9,19.2
3.74,0.75,0.0,0.0,0.75,2.25,1.5,0.0,0.25,0.25,1.5,0.75,0.25,1.25,-1.73,0.14,-0.3,140.54,-3.6,-5.5,1.5,0.25,1.25,1.0,0.5,0.75,0.0,0.25,0.0,0.0,1.25,0.75,0.5,-0.98,-0.11,0.83,127.4,-13.7,14.6
3.76,0.25,0.25,0.0,1.0,2.25,1.5,0.0,0.25,0.25,1.75,0.5,0.25,1.25,-0.98,0.2,-0.23,140.33,-5.1,-6.1,0.75,0.5,1.25,0.75,0.5,0.75,0.0,0.25,0.0,0.0,1.5,0.75,0.5,-1.05,-0.05,0.7,123.79,-11.5,5.4
3.78,0.5,0.0,0.0,1.75,2.25,1.25,0.0,0.25,0.25,1.75,0.5,0.25,1.25,-0.98,0.08,-0.05,146.67,-2.5,-2.4,1.5,0.25,1.25,1.0,0.5,0.75,0.0,0.25,0.0,0.0,1.0,0.75,0.5,-1.23,0.14,0.58,121.29,-13.8,17.4
3.8,0.5,0.0,0.0,0.25,2.25,1.25,0.0,0.25,0.0,0.75,0.5,0.25,1.25,-1.11,0.14,0.08,136.94,-5.4,-4.1,1.5,0.25,1.25,1.0,0.5,0.75,0.0,0.25,0.0,0.0,1.75,0.75,0.25,-1.42,0.33,0.45,121.8,-14.4,13.2
3.82,0.0,0.0,0.0,0.5,2.25,1.75,0.0,0.5,0.25,1.25,0.5,0.25,1.0,-1.23,0.14,-0.23,133.31,-8.0,-8.6,1.25,0.5,1.0,1.0,0.5,0.5,0.0,0.25,0.0,0.0,1.0,0.75,0.5,-1.36,0.27,0.33,118.72,-13.4,15.7
3.84,0.5,0.0,0.0,0.75,2.25,0.5,0.0,0.25,0.25,1.0,0.5,0.25,1.0,-1.05,0.27,-0.17,122.31,-1.7,-3.2,2.0,0.25,1.25,1.0,0.5,0.75,0.0,0.25,0.0,0.0,1.5,0.75,0.5,-1.23,0.27,0.33,123.94,-14.7,16.6
3.86,0.5,0.0,0.0,1.0,2.25,0.75,0.0,0.25,0.0,0.75,0.5,0.5,1.0,-0.98,0.27,-0.05,118.78,-1.3,0.0,1.75,0.25,1.25,0.75,0.5,1.0,0.0,0.25,0.0,0.0,1.5,0.75,0.5,-1.17,0.14,0.39,126.55,-13.1,13.5
3.88,0.25,0.25,0.0,0.75,2.25,1.5,0.0,0.25,0.25,0.75,0.5,0.25,1.0,-1.11,0.33,-0.05,117.97,-4.2,3.4,1.5,0.5,1.25,1.0,0.5,0.75,0.0,0.25,0.0,0.0,1.25,0.75,0.5,-1.11,0.02,0.39,129.25,-13.7,17.3
3.9,0.25,0.25,0.0,1.0,2.5,1.0,0.0,0.25,0.25,0.75,0.5,0.25,1.0,-1.17,0.45,-0.17,121.09,-2.5,5.1,1.5,0.25,1.25,1.0,0.5,0.75,0.0,0.25,0.0,0.0,1.5,0.75,0.5,-1.11,-0.05,0.64,129.1,-13.6,12.0
3.92,0.25,0.0,0.0,1.0,2.25,1.5,0.0,0.25,0.25,0.0,0.75,0.25,1.0,-1.17,0.45,-0.3,120.38,-2.5,7.2,1.5,0.25,1.25,1.0,0.5,0.75,0.0,0.25,0.0,0.0,1.5,0.75,0.5,-1.05,-0.36,0.83,129.05,-13.6,12.0
3.94,0.25,0.0,0.0,0.25,2.25,1.75,0.0,0.25,0.25,1.0,0.5,0.25,1.0,-1.17,0.39,-0.36,118.52,-7.1,-4.7,1.25,0.25,1.0,1.0,0.5,0.75,0.0,0.0,0.0,0.0,1.25,0.75,0.5,-0.8,-0.73,1.14,123.15,-13.2,12.1
3.96,0.25,0.0,0.0,0.25,2.25,1.5,0.0,0.25,0.0,1.25,0.5,0.25,0.75,-1.11,0.33,-0.36,116.29,-7.3,-3.6,1.25,0.25,1.25,1.0,0.5,0.75,0.0,0.25,0.0,0.0,1.25,0.75,0.5,-0.61,-0.8,1.45,120.94,-13.1,12.1
3.98,0.25,0.0,0.0,1.0,2.25,2.5,0.0,0.25,0.25,0.25,0.5,0.5,1.0,-1.05,0.33,-0.36,120.85,-5.1,6.7,2.0,0.5,1.25,0.75,0.5,0.75,0.0,0.25,0.0,0.0,1.0,0.75,0.5,-0.67,-0.61,1.45,122.75,-14.8,23.3
4.0,0.25,0.0,0.25,1.0,2.25,1.5,0.0,0.25,0.25,1.25,0.5,0.25,1.0,-0.98,0.27,-0.36,126.59,-3.5,-0.4,1.25,0.25,1.0,1.0,0.5,0.75,0.0,0.25,0.0,0.0,1.5,0.75,0.5,-0.92,-0.36,1.45,122.23,-12.1,7.8
4.02,0.25,0.0,0.0,1.0,2.25,1.5,0.0,0.25,0.25,0.0,0.5,0.5,0.75,-0.8,0.27,-0.36,126.76,-2.2,10.0,1.25,0.25,1.25,1.0,0.5,0.75,0.0,0.25,0.0,0.0,1.5,0.75,0.25,-1.42,-0.05,1.45,121.45,-13.9,13.4
4.04,0.25,0.25,0.0,1.0,2.25,1.25,0.0,0.25,0.5,1.0,0.5,0.25,1.0,-0.61,0.2,-0.48,130.83,-3.0,0.8,1.0,0.25,1.25,1.0,0.5,0.75,0.0,0.25,0.0,0.0,1.0,0.75,0.5,-1.55,0.14,0.89,117.98,-12.4,12.3
4.06,0.25,0.0,0.25,1.0,2.25,1.5,0.0,0.25,0.5,1.25,0.5,0.25,1.0,-0.55,0.2,-0.48,133.53,-3.1,-1.4,1.25,0.25,1.25,1.0,0.5,0.5,0.0,0.25,0.0,0.0,2.0,0.5,0.5,-1.55,0.14,0.83,118.56,-14.0,7.3
4.08,0.5,0.0,0.0,1.0,2.25,1.5,0.0,0.25,0.25,1.25,0.5,0.25,1.0,-0.61,0.2,-0.61,136.64,-3.7,0.3,1.25,0.5,1.25,0.75,0.5,0.5,0.0,0.25,0.0,0.0,0.75,0.5,0.5,-1.3,0.08,0.89,112.9,-14.4,23.6
4.1,0.25,0.0,0.25,1.25,2.25,2.0,0.0,0.25,0.5,1.5,0.5,0.25,1.0,-0.42,0.33,-0.8,143.93,-3.8,0.0,1.25,0.25,1.0,1.0,0.5,0.75,0.0,0.25,0.0,0.0,1.25,0.5,0.5,-1.05,0.14,0.64,112.52,-12.3,14.6
4.12,0.75,0.0,0.25,1.0,2.25,1.5,0.0,0.25,0.5,1.25,0.5,0.25,0.75,-0.42,0.33,-0.8,147.26,-1.0,6.3,1.25,0.75,0.75,1.0,0.5,0.5,0.0,0.25,0.0,0.0,1.25,0.75,0.5,-0.8,0.14,0.52,112.52,-12.4,14.0
4.14,0.75,0.25,0.25,0.5,2.25,1.75,0.0,0.25,0.25,1.25,0.5,0.25,0.75,-0.55,0.2,-0.73,148.14,-2.5,7.9,0.75,0.5,1.25,0.75,0.5,0.75,0.0,0.25,0.0,0.0,0.75,0.75,0.5,-0.61,0.08,0.39,110.43,-11.5,14.0
4.16,0.5,0.0,0.25,1.25,2.25,1.75,0.0,0.25,0.25,0.0,0.5,0.5,0.75,-0.48,0.14,-0.61,143.73,0.0,16.1,1.0,0.25,0.5,1.0,0.5,1.25,0.0,0.25,0.0,0.0,1.25,0.75,0.5,-0.48,0.08,0.27,109.86,-7.3,5.6
4.18,0.5,0.0,0.0,0.25,2.25,1.25,0.0,0.25,0.25,1.25,0.5,0.25,0.75,-0.61,0.2,-0.67,134.71,-4.9,-2.8,0.5,0.25,1.0,1.0,0.5,1.0,0.0,0.25,0.0,0.0,1.25,0.75,0.5,-0.42,0.02,0.27,108.5,-8.7,2.6
4.2,0.5,0.0,0.0,0.25,2.25,1.75,0.0,0.25,0.0,0.75,0.5,0.25,0.75,-0.73,0.08,-0.61,124.99,-5.9,5.5,1.5,0.5,0.5,0.75,0.5,0.75,0.0,0.25,0.0,0.0,0.75,0.75,0.5,-0.36,-0.05,0.33,106.48,-10.9,17.3
4.22,0.25,0.0,0.0,0.75,2.25,1.75,0.0,0.25,0.25,0.5,0.5,0.25,0.75,-0.98,-0.05,-0.42,118.67,-4.7,7.5,1.0,0.25,0.5,1.0,0.5,1.0,0.0,0.25,0.0,0.0,1.0,0.75,0.5,-0.3,-0.11,0.39,104.23,-8.2,7.5
4.24,0.25,0.0,0.0,1.0,2.25,0.75,0.0,0.25,0.0,1.0,0.5,0.25,0.75,-1.05,-0.05,-0.36,114.28,-2.9,1.7,1.0,0.25,0.5,1.0,0.5,0.75,0.0,0.25,0.0,0.25,0.75,0.5,0.5,-0.23,-0.23,0.45,101.63,-8.3,11.0
4.26,0.5,0.0,0.0,0.5,2.25,1.5,0.0,0.25,0.0,0.5,0.25,0.25,0.75,-0.92,-0.05,-0.42,110.65,-4.7,12.2,1.0,0.75,1.0,1.0,0.5,0.75,0.0,0.25,0.0,0.0,1.25,0.75,0.5,-0.11,-0.36,0.45,106.77,-11.5,13.7
4.28,0.5,0.0,0.0,1.0,2.25,1.5,0.0,0.25,0.25,1.0,0.5,0.5,0.75,-0.73,0.08,-0.55,114.79,-2.7,2.6,1.0,0.25,1.0,1.0,1.0,1.25,0.0,0.25,0.0,0.0,1.0,0.75,0.5,-0.05,-0.48,0.52,113.7,-8.4,15.0
4.3,0.25,0.0,0.0,0.75,2.25,1.0,0.0,0.25,0.5,0.75,0.5,0.25,0.75,-0.73,0.14,-0.67,114.06,-2.8,0.7,0.75,0.25,0.5,1.0,0.5,0.75,0.0,0.25,0.0,0.0,0.75,0.75,0.25,0.2,-0.55,0.52,108.99,-9.3,11.5
