time,left pressure 0[N/cm虏],left pressure 1[N/cm虏],left pressure 2[N/cm虏],left pressure 3[N/cm虏],left pressure 4[N/cm虏],left pressure 5[N/cm虏],left pressure 6[N/cm虏],left pressure 7[N/cm虏],left pressure 8[N/cm虏],left pressure 9[N/cm虏],left pressure 10[N/cm虏],left pressure 11[N/cm虏],left pressure 12[N/cm虏],left acceleration X[g],left acceleration Y[g],left acceleration Z[g],left total force[N],left center of pressure X[mm],left center of pressure Y[mm],right pressure 0[N/cm虏],right pressure 1[N/cm虏],right pressure 2[N/cm虏],right pressure 3[N/cm虏],right pressure 4[N/cm虏],right pressure 5[N/cm虏],right pressure 6[N/cm虏],right pressure 7[N/cm虏],right pressure 8[N/cm虏],right pressure 9[N/cm虏],right pressure 10[N/cm虏],right pressure 11[N/cm虏],right pressure 12[N/cm虏],right acceleration X[g],right acceleration Y[g],right acceleration Z[g],right total force[N],right center of pressure X[mm],right center of pressure Y[mm]
0.02,0.0,0.0,1.25,0.0,0.0,0.0,3.75,5.25,2.75,0.0,1.5,0.0,0.5,-0.73,-0.3,1.39,131.27,4.6,-26.6,2.75,0.0,6.75,1.75,0.0,0.0,0.75,0.0,0.0,0.0,0.0,0.0,0.75,-0.05,1.45,2.39,232.81,-31.1,56.5
0.04,1.25,0.0,0.0,1.75,0.0,0.0,3.5,4.5,2.75,2.25,1.75,1.0,1.25,0.14,0.08,1.2,178.4,3.2,-30.9,0.75,0.0,5.25,1.0,0.0,0.0,0.5,0.0,0.0,0.0,0.0,0.25,0.0,0.14,0.83,2.14,132.8,-33.9,57.3
0.06,0.0,0.0,0.25,0.5,0.0,0.0,0.5,3.25,0.0,2.75,0.5,1.25,1.75,-0.3,0.33,1.39,187.25,-7.5,-61.8,0.0,0.0,2.75,0.0,0.0,0.0,0.25,0.0,0.0,0.0,0.0,0.25,0.0,0.2,0.27,2.08,30.79,-35.7,46.4
0.08,0.0,0.0,0.5,0.5,0.0,0.0,0.25,3.25,1.0,4.25,1.75,2.0,3.0,-0.23,0.27,1.58,212.49,-5.0,-67.3,0.0,0.0,0.25,0.0,0.0,0.0,0.25,0.25,0.0,0.0,0.0,0.0,0.25,1.33,-1.05,1.83,0.0,-6.7,-21.4
0.1,0.0,0.25,0.0,0.5,0.0,0.0,0.25,4.0,1.0,5.25,2.25,2.25,2.75,-0.11,0.14,1.02,232.48,-6.3,-68.0,0.0,0.0,0.5,0.0,0.0,0.0,0.25,0.25,0.0,0.0,0.0,0.0,0.25,1.27,-0.86,2.7,0.0,-13.9,-2.8
0.12,0.0,0.0,0.0,1.25,0.0,0.0,0.5,4.75,2.0,5.5,3.0,4.5,4.25,-0.17,0.08,0.95,286.77,-3.9,-69.9,0.0,0.0,0.25,0.0,0.0,0.0,0.0,0.0,0.0,0.0,0.0,0.0,0.0,0.64,-0.98,1.77,0.0,-38.2,60.9
0.14,0.0,0.0,0.0,0.0,0.0,0.0,0.5,5.25,3.25,6.5,6.0,4.75,5.5,-0.17,0.02,0.95,363.42,-3.7,-76.1,0.0,0.0,0.0,0.0,0.0,0.0,0.25,0.0,0.0,0.0,0.0,0.0,0.0,0.58,-0.67,1.02,0.0,-32.4,27.3
0.16,0.0,0.0,0.75,2.5,0.0,0.25,0.75,6.0,4.0,7.0,6.75,5.25,5.5,-0.17,0.02,0.95,478.09,-1.1,-62.2,0.0,0.0,0.0,0.0,0.0,0.0,0.0,0.0,0.0,0.0,0.0,0.0,0.0,0.45,-0.55,0.7,0.0,0.0,0.0
0.18,0.25,0.75,2.5,2.5,0.0,0.75,1.0,6.25,4.75,7.0,7.0,5.5,5.5,-0.11,0.02,0.95,598.03,1.0,-51.8,0.0,0.0,0.0,0.0,0.0,0.0,0.0,0.0,0.0,0.0,0.0,0.0,0.0,0.2,-0.48,0.83,0.0,0.0,0.0
0.2,0.25,1.0,2.5,2.5,0.0,1.25,1.0,6.5,5.0,7.25,6.75,5.25,5.5,-0.11,0.02,0.95,692.35,0.6,-49.5,0.0,0.0,0.0,0.0,0.0,0.0,0.0,0.0,0.0,0.0,0.0,0.0,0.0,0.14,-0.42,0.95,0.0,0.0,0.0
0.22,0.25,1.0,2.75,2.75,2.25,1.25,1.0,6.5,5.0,6.5,6.75,5.0,5.5,-0.17,0.02,0.95,747.97,0.9,-41.8,0.0,0.0,0.0,0.0,0.0,0.0,0.0,0.0,0.0,0.0,0.0,0.0,0.0,0.14,-0.23,0.95,0.0,0.0,0.0
0.24,0.25,1.0,2.75,2.75,0.0,1.25,1.0,6.5,5.0,6.5,6.0,4.5,4.75,-0.17,0.02,0.95,736.63,1.2,-45.1,0.0,0.0,0.0,0.0,0.25,0.0,0.0,0.0,0.0,0.0,0.0,0.0,0.0,0.14,-0.05,0.89,0.0,3.3,53.4
0.26,0.25,1.0,3.75,3.75,0.0,1.25,1.0,6.5,4.5,5.75,5.75,4.25,4.25,-0.17,0.02,0.95,715.02,2.8,-38.0,0.0,0.0,0.0,0.0,0.0,0.0,0.25,0.0,0.0,0.0,0.0,0.0,0.0,0.14,0.08,1.02,0.0,-32.4,27.3
0.28,1.0,1.0,4.25,4.25,0.0,1.5,1.0,6.25,4.0,5.0,5.0,3.25,3.5,-0.17,0.02,0.95,661.55,4.2,-28.0,0.0,0.0,0.0,0.0,0.0,0.0,0.0,0.0,0.0,0.0,0.0,0.0,0.0,0.08,0.2,1.27,0.0,0.0,0.0
0.3,1.25,1.0,4.25,4.5,0.0,1.5,1.0,6.0,3.75,4.5,4.0,3.0,2.75,-0.17,0.02,0.95,607.68,5.0,-22.3,0.0,0.0,0.0,0.0,0.0,0.0,0.0,0.0,0.0,0.0,0.0,0.0,0.0,0.14,0.33,1.39,0.0,0.0,0.0
0.32,2.0,1.0,4.5,4.5,5.0,1.75,1.0,5.75,3.25,4.25,3.0,1.75,1.75,-0.17,0.02,0.95,575.78,4.8,-1.4,0.0,0.0,0.0,0.0,0.0,0.0,0.25,0.0,0.0,0.0,0.0,0.0,0.5,0.14,0.64,1.52,2.71,4.9,-83.9
0.34,2.0,1.0,4.25,4.5,5.0,2.0,1.0,5.25,3.0,3.0,2.25,2.0,1.5,-0.17,0.02,0.95,544.71,5.4,3.1,0.5,0.0,0.0,0.0,0.0,0.0,0.25,0.0,0.0,0.0,0.0,0.0,0.5,0.33,0.83,2.02,8.66,-11.9,-6.8
0.36,2.75,1.25,5.5,6.5,4.75,2.0,1.0,5.25,2.5,2.75,1.5,1.25,1.0,-0.17,0.08,0.95,534.81,7.9,16.2,0.0,0.0,0.0,0.0,0.0,0.0,0.25,0.0,0.0,0.0,0.0,0.0,0.5,0.27,1.08,2.45,12.8,4.9,-83.9
0.38,3.5,1.75,5.5,7.25,6.25,2.0,1.0,5.0,1.75,2.5,1.0,1.0,0.5,-0.17,0.08,0.95,537.82,8.6,26.7,0.0,0.0,0.0,0.0,0.0,0.0,0.0,0.0,0.0,0.0,0.0,0.0,0.25,-0.05,1.7,2.33,12.34,13.7,-109.8
0.4,3.5,2.5,6.25,8.0,0.0,2.25,1.0,4.5,1.5,2.5,0.5,1.0,0.5,-0.17,0.08,0.95,512.83,12.2,27.1,0.0,0.0,0.0,0.0,0.0,0.0,0.0,0.0,0.0,0.0,0.0,0.0,0.25,-0.42,2.33,1.83,10.19,13.7,-109.8
0.42,5.0,2.5,6.75,8.75,6.5,2.25,0.75,4.5,1.25,2.0,0.0,1.0,0.5,-0.11,0.08,1.02,548.19,10.9,37.8,1.0,0.0,0.0,1.5,0.0,1.25,0.0,0.0,0.0,0.0,0.0,0.0,0.5,-0.86,3.14,1.02,31.03,-6.1,39.5
0.44,6.0,4.0,7.25,9.25,8.0,2.5,0.5,3.75,1.0,1.25,0.0,0.75,0.5,-0.17,0.14,0.95,609.88,12.0,46.5,1.25,0.0,0.25,1.5,2.25,1.0,0.25,0.5,0.5,0.5,0.75,0.0,1.5,-1.23,3.95,0.45,83.08,-2.6,9.1
0.46,7.0,4.0,7.25,10.5,0.0,2.5,0.5,3.25,0.75,1.0,0.0,0.75,0.5,-0.17,0.14,1.02,627.12,17.0,48.9,0.0,0.0,0.0,0.0,0.0,0.0,0.0,0.0,0.0,0.0,0.0,0.0,0.0,-1.8,4.27,0.02,75.6,0.0,0.0
0.48,7.25,4.75,8.0,10.5,0.0,2.5,0.25,3.25,0.5,1.0,0.0,0.75,0.5,-0.17,0.14,1.08,637.1,17.4,51.0,0.0,0.0,0.5,0.0,1.75,0.0,0.25,0.5,0.25,1.0,0.75,0.25,1.5,-1.98,3.64,3.83,95.38,2.2,-30.7
0.5,7.5,5.0,7.75,10.5,0.0,2.25,0.25,3.0,0.5,1.0,0.0,0.75,0.5,-0.23,0.14,1.08,628.89,17.8,52.2,0.0,0.0,0.0,0.0,0.0,0.0,0.0,0.0,0.0,1.75,0.75,1.75,1.75,0.33,-0.42,0.95,99.51,4.7,-95.7
0.52,8.0,5.25,8.5,10.5,0.0,2.0,0.0,2.5,0.5,1.0,0.0,0.75,0.5,-0.23,0.2,1.08,627.88,19.0,54.6,1.0,0.0,0.0,0.0,1.5,0.0,0.0,0.5,0.25,5.5,3.5,5.25,5.75,-0.36,0.2,1.2,199.1,2.6,-74.2
0.54,8.0,5.25,8.75,11.0,0.0,0.75,0.0,2.25,0.5,1.0,0.0,0.75,0.5,-0.23,0.2,1.08,619.58,20.6,55.9,1.0,0.0,0.5,1.25,1.25,1.25,0.25,0.75,0.75,8.75,6.75,7.0,8.5,-0.05,0.39,2.02,332.69,2.1,-68.9
0.56,8.5,5.75,0.0,11.0,0.0,0.0,0.0,2.0,0.25,1.0,0.0,0.5,0.5,-0.23,0.27,1.08,556.91,16.9,59.2,0.5,0.0,0.0,0.25,2.25,0.0,0.25,3.75,1.25,8.5,8.75,6.5,9.0,0.2,0.45,2.2,517.25,3.4,-72.9
0.58,8.5,5.75,7.75,10.5,0.0,0.0,0.0,1.75,0.25,1.0,0.0,0.25,0.25,-0.3,0.33,1.14,543.2,22.1,62.6,0.0,0.0,0.0,0.0,0.0,1.75,0.0,5.0,1.75,10.0,8.5,6.75,8.75,-0.11,0.14,1.14,679.99,5.4,-78.1
0.6,7.75,5.5,8.5,10.5,0.0,0.0,0.0,1.25,0.25,1.5,0.0,0.0,0.0,-0.3,0.39,1.39,521.95,22.6,63.6,1.25,0.0,0.0,1.5,3.5,2.75,0.0,6.75,2.25,10.5,10.0,7.5,8.25,0.2,0.2,1.14,849.06,3.7,-57.1
0.62,7.75,0.0,7.0,8.0,0.0,0.0,0.25,0.0,0.25,0.75,0.0,0.0,0.25,-0.48,0.45,1.45,453.19,27.4,63.7,1.25,0.0,0.0,1.5,3.5,3.25,1.25,7.5,3.0,10.5,10.5,7.5,9.0,0.08,0.08,0.95,988.72,3.4,-55.9
0.64,5.75,0.0,6.5,6.5,0.0,0.0,0.0,0.0,0.25,0.5,0.0,0.0,0.0,-0.67,0.7,1.89,367.78,28.3,65.2,1.25,0.0,1.0,2.0,3.5,3.75,1.25,8.0,3.5,10.5,11.0,7.5,9.0,0.14,0.08,0.95,1110.21,2.6,-52.1
0.66,3.0,0.0,0.0,3.5,0.0,0.0,0.25,0.0,0.25,0.75,0.0,0.0,0.0,-0.8,1.52,2.7,247.3,20.5,55.8,1.25,0.25,2.25,3.25,3.75,3.75,1.25,8.0,3.5,9.75,10.5,6.75,8.75,0.2,0.08,0.95,1184.62,1.3,-45.0
0.68,0.0,0.0,1.5,1.0,0.0,0.0,0.0,0.0,0.25,1.0,0.0,0.0,0.0,-0.67,1.45,2.64,131.21,16.7,18.1,1.25,0.75,2.75,2.75,3.75,3.5,1.25,8.0,3.75,9.25,9.75,6.25,8.5,0.2,0.08,0.95,1207.2,0.9,-42.7
0.7,0.0,0.0,0.5,2.25,0.0,0.0,0.0,0.0,0.0,0.25,0.0,0.0,0.0,-0.61,0.14,2.27,28.32,18.0,47.7,1.25,0.75,2.75,3.25,4.25,3.75,1.25,8.0,3.25,8.25,9.0,5.75,8.0,0.2,0.08,0.95,1174.64,0.8,-38.5
0.72,0.0,0.0,1.75,1.5,0.0,0.0,0.0,0.0,0.25,1.0,0.0,0.0,0.25,-0.86,-0.11,1.7,0.0,16.3,17.9,1.5,0.75,2.75,3.25,4.25,4.0,1.25,7.75,3.0,7.75,8.0,5.0,7.25,0.2,0.08,0.95,1082.39,0.8,-34.7
0.74,0.0,0.0,0.75,0.75,0.0,0.0,0.0,0.0,3.0,0.0,0.0,0.0,0.25,-0.92,-0.92,2.14,0.0,15.8,-10.4,1.25,0.75,2.75,3.25,4.25,4.5,1.25,7.5,2.75,7.5,7.5,4.5,6.25,0.2,0.08,0.95,976.52,1.0,-32.0
0.76,0.0,0.0,0.0,0.0,0.0,0.0,4.25,0.0,1.25,0.0,0.0,0.0,0.0,-0.42,-0.8,1.64,0.0,24.7,2.5,1.75,0.75,2.75,4.0,4.25,4.75,1.25,7.0,2.75,6.75,6.5,2.5,5.25,0.2,0.08,0.95,849.64,0.5,-22.8
0.78,0.0,0.0,0.0,0.0,0.0,0.0,2.5,0.0,3.0,0.0,0.0,0.0,0.0,-0.67,-0.61,0.45,0.0,18.0,-19.5,2.0,1.25,2.75,4.0,5.25,4.75,1.25,6.75,2.25,6.5,5.25,2.75,4.25,0.2,0.14,0.95,759.72,0.2,-15.9
0.8,0.0,0.0,0.0,1.25,0.0,0.0,4.5,0.0,3.0,0.5,0.0,0.25,0.0,-0.55,-0.55,0.39,0.0,17.1,-6.1,2.25,1.0,3.0,4.5,5.5,4.75,1.25,6.5,1.75,5.75,4.5,2.25,4.25,0.2,0.14,0.95,695.96,-0.2,-11.1
0.82,0.0,0.0,0.5,2.0,0.0,0.0,4.0,0.0,3.0,1.25,0.0,0.5,0.0,-0.42,-0.42,0.58,20.89,15.0,-6.2,2.5,1.25,4.5,5.25,6.25,5.5,1.25,6.0,1.75,5.0,4.0,1.75,3.5,0.2,0.14,0.95,669.57,-1.9,-0.3
0.84,0.25,0.0,1.0,1.75,0.0,0.0,3.75,0.0,2.75,0.5,0.0,0.0,0.0,-0.36,-0.42,0.77,62.25,20.0,12.1,3.25,1.5,5.25,6.0,6.25,5.75,1.25,6.0,1.75,4.0,3.0,1.5,3.5,0.2,0.14,0.95,660.63,-3.3,7.1
0.86,0.5,0.0,1.0,1.75,0.0,0.0,3.75,0.0,3.0,0.5,0.25,0.5,0.0,-0.42,-0.17,0.83,105.57,19.3,4.1,3.75,2.25,6.25,7.75,7.25,5.75,1.25,5.75,1.25,3.0,2.25,1.25,3.0,0.2,0.14,0.95,690.43,-5.2,18.4
0.88,0.25,0.0,0.0,1.75,0.0,0.0,4.0,0.0,2.5,0.5,0.0,0.0,0.0,-0.48,0.08,1.02,119.03,17.8,6.9,5.0,2.5,7.0,8.25,8.0,6.0,1.25,5.0,1.25,2.5,2.25,1.0,2.5,0.2,0.14,0.95,737.45,-6.9,25.8
0.9,0.5,0.0,0.0,2.0,0.0,0.0,4.25,0.0,2.5,0.5,0.25,0.0,0.0,-0.48,0.2,1.27,131.73,18.3,9.1,5.75,2.5,8.0,8.25,8.0,6.0,1.25,4.0,1.0,0.75,1.75,1.0,2.25,0.2,0.14,0.95,774.83,-9.2,34.1
0.92,0.5,0.0,0.0,1.75,0.0,0.0,4.0,0.0,2.5,1.5,0.0,0.5,0.0,-0.61,0.27,1.58,134.2,13.9,-6.7,5.75,3.0,9.0,9.75,8.0,5.75,1.25,3.5,0.5,1.75,0.75,0.75,2.25,0.2,0.14,1.02,816.29,-9.9,38.0
0.94,1.25,0.0,0.0,2.25,0.0,0.0,4.5,0.0,2.75,1.75,0.0,0.5,0.0,-0.67,0.39,1.77,147.0,15.1,1.7,7.0,3.0,9.5,11.5,9.0,5.75,1.25,3.25,0.5,0.25,1.0,0.5,2.5,0.2,0.2,1.02,872.06,-11.3,43.3
0.96,1.0,0.0,1.5,2.0,0.0,0.0,4.25,0.0,3.5,1.25,0.0,0.5,0.0,-0.8,0.7,2.2,162.63,18.6,6.8,7.0,2.5,9.25,9.75,8.75,3.75,0.25,2.0,0.0,0.0,0.0,0.25,1.0,0.14,0.2,1.14,851.28,-14.0,54.7
0.98,0.25,0.0,1.5,2.0,0.0,0.0,4.0,0.0,3.5,0.5,0.0,0.25,0.0,-0.86,1.14,2.52,169.23,20.2,9.2,7.75,3.0,10.5,9.75,8.0,3.75,0.0,0.75,0.25,0.0,0.0,0.25,1.0,0.14,0.2,1.14,828.04,-16.1,58.2
1.0,0.25,0.0,1.25,0.5,0.0,0.0,0.25,0.0,0.25,1.0,0.0,0.25,0.25,-0.67,1.58,2.45,140.6,14.3,-1.4,8.0,3.25,10.5,9.75,8.0,1.5,0.0,0.5,0.0,0.0,0.0,0.25,1.0,0.08,0.27,1.2,779.35,-18.2,60.8
1.02,0.25,0.0,0.75,0.75,0.0,0.0,0.0,0.0,0.25,1.0,0.0,0.25,0.25,-0.36,2.7,2.33,103.55,10.5,-7.1,9.0,3.75,10.5,9.75,8.0,0.75,0.25,0.5,0.0,0.0,0.0,0.0,0.75,0.08,0.27,1.2,750.4,-19.4,64.3
1.04,0.25,0.0,2.5,0.5,0.0,0.0,4.25,0.0,0.0,1.0,0.0,0.0,0.25,-0.11,3.64,1.52,85.62,24.5,24.4,8.0,4.0,10.0,9.75,7.25,1.25,0.25,0.25,0.0,0.0,0.0,0.0,0.75,0.14,0.33,1.27,712.83,-19.0,64.3
1.06,1.75,0.0,1.5,2.25,0.0,0.0,2.75,0.0,2.5,0.75,0.0,0.0,0.0,0.52,4.77,0.58,101.83,21.6,27.2,7.75,3.0,10.0,8.5,6.25,1.25,0.25,0.0,0.5,0.5,0.0,0.0,0.75,0.2,0.39,1.45,669.92,-19.5,61.4
1.08,0.0,0.0,2.0,2.5,0.0,0.0,4.0,0.0,0.5,1.0,0.0,0.0,0.0,1.39,5.64,0.14,116.19,21.7,29.0,7.0,2.5,8.5,6.5,5.25,1.25,0.25,0.0,0.0,0.0,0.0,0.25,0.75,0.33,0.52,1.64,585.2,-20.0,62.8
1.1,0.0,0.0,0.0,0.0,0.0,0.0,0.0,0.0,1.25,0.0,0.0,0.0,0.0,-0.61,0.08,-0.11,91.9,12.1,-38.5,5.0,0.75,7.0,4.25,3.75,1.25,0.5,0.0,0.0,0.0,0.0,0.25,0.75,0.2,1.27,2.7,454.8,-20.2,58.5
1.12,0.0,0.0,0.0,0.0,0.0,0.0,0.0,0.0,0.0,1.5,0.0,2.25,0.0,-0.73,-0.36,0.2,75.29,-0.9,-96.0,1.5,0.0,4.75,2.5,0.0,1.25,0.25,0.0,0.0,0.25,0.0,0.25,0.75,0.27,1.77,2.77,298.96,-21.4,43.5
1.14,0.0,0.0,0.0,0.5,0.0,0.0,0.0,1.75,0.0,4.25,0.0,4.25,4.0,0.2,0.39,0.95,117.8,-7.1,-85.7,1.0,0.0,2.5,1.5,0.0,0.0,0.25,0.0,0.0,0.0,0.0,0.0,0.5,0.02,0.14,2.45,173.35,-27.1,50.0
1.16,0.0,0.0,0.0,0.5,0.0,0.0,0.0,2.75,0.0,6.5,3.25,4.75,6.25,0.08,0.52,2.52,212.55,-6.2,-84.3,0.0,0.0,0.25,0.0,0.0,0.0,0.0,0.0,0.0,0.0,0.0,0.0,0.75,0.52,-0.3,1.77,30.3,0.7,-67.1
1.18,0.0,0.0,1.0,0.5,0.0,0.0,0.0,4.5,0.0,7.25,0.0,5.0,6.75,-0.55,0.45,2.33,292.78,-7.6,-76.8,1.25,0.0,0.0,1.5,0.0,1.0,0.0,0.0,0.5,0.0,0.0,0.5,0.25,0.64,-0.67,2.64,0.0,-10.7,27.4
1.2,0.0,0.0,0.0,0.5,0.0,0.0,0.0,5.25,1.0,7.25,0.0,5.5,6.75,-0.17,0.08,1.08,370.67,-8.6,-80.3,1.25,0.0,0.25,1.5,0.5,1.25,0.0,0.5,0.5,1.25,1.0,0.25,1.75,0.33,-0.8,1.83,0.0,-1.4,-13.8
1.22,0.0,0.0,0.0,1.0,0.0,0.75,0.25,6.25,3.0,7.25,6.75,5.5,6.5,-0.17,0.08,1.02,480.13,-4.0,-71.4,0.0,0.0,0.25,0.0,1.25,0.0,0.25,0.0,0.0,0.0,0.0,0.0,0.5,0.39,-0.61,0.83,0.0,-0.8,17.0
1.24,0.0,0.0,0.75,0.75,0.0,1.0,0.5,6.5,3.75,7.5,7.0,5.5,6.25,-0.23,0.02,0.95,576.91,-3.0,-67.7,1.0,0.0,0.0,1.5,0.25,1.25,0.25,0.75,0.5,0.75,0.0,0.5,1.25,0.39,-0.55,0.58,0.0,-0.5,-7.5
1.26,0.25,0.0,0.0,2.5,0.0,1.25,0.5,6.75,4.25,7.5,7.0,5.5,6.25,-0.17,-0.05,1.02,660.75,-2.7,-62.5,1.0,0.0,0.25,1.5,2.5,1.25,0.25,0.5,0.5,0.5,0.75,0.25,1.75,0.27,-0.42,0.64,5.66,-1.0,3.5
1.28,0.25,0.75,2.5,2.5,0.0,1.5,0.75,7.0,4.5,7.0,7.25,4.75,6.25,-0.17,-0.05,0.95,724.13,0.0,-50.7,1.0,0.0,0.5,1.5,2.25,1.25,0.25,0.5,0.5,0.75,1.0,0.25,1.75,0.27,-0.36,0.77,57.89,-1.8,0.2
1.3,0.5,1.0,2.5,2.75,5.0,2.25,0.75,6.75,4.25,6.5,6.25,4.0,5.25,-0.17,-0.05,0.95,771.44,-0.3,-31.9,1.0,0.0,0.25,1.5,2.25,1.25,0.0,0.5,0.25,1.25,1.0,0.25,1.5,0.27,-0.17,0.89,99.94,0.0,-1.3
1.32,0.75,1.0,2.5,2.75,5.0,2.75,0.75,6.5,3.75,5.75,5.25,3.0,3.75,-0.17,0.02,0.95,762.87,-0.1,-24.2,1.0,0.0,0.0,1.5,2.5,1.25,0.5,0.75,0.25,0.75,1.0,0.25,1.75,0.27,0.08,0.83,139.64,0.2,-0.8
1.34,1.0,1.0,2.5,3.75,0.0,2.75,0.75,6.5,3.25,5.5,4.5,3.0,3.25,-0.17,0.02,0.95,699.0,0.9,-30.5,0.75,0.0,0.0,1.5,2.25,1.25,0.25,0.5,0.25,0.25,0.75,0.5,1.75,0.27,0.2,0.95,159.02,0.1,-1.2
1.36,0.5,1.0,2.5,3.75,0.0,2.75,0.75,6.25,3.0,4.5,3.25,2.0,2.5,-0.17,0.02,0.95,589.99,0.7,-24.8,0.75,0.0,0.0,1.5,2.5,1.25,0.25,0.5,0.5,1.0,0.75,0.5,1.5,0.2,0.27,1.14,173.17,0.7,-3.1
1.38,0.75,1.0,2.5,4.5,0.0,2.75,0.5,6.0,2.75,4.25,2.0,2.0,1.75,-0.17,0.02,0.95,486.62,1.4,-17.1,1.0,0.0,0.0,1.5,2.25,1.25,0.25,0.5,0.5,0.75,1.0,0.5,1.5,0.2,0.39,1.45,177.92,-0.6,-2.4
1.4,0.0,1.0,2.5,4.5,6.0,3.0,0.5,6.0,2.25,3.5,1.5,1.75,1.5,-0.17,0.02,0.95,445.96,-0.1,-1.3,0.75,0.0,0.0,1.5,2.25,0.5,0.25,0.5,0.5,0.0,1.0,0.0,1.5,0.2,0.58,1.58,170.1,-2.5,4.1
1.42,1.75,1.0,2.75,5.25,7.0,3.5,0.5,6.0,2.0,2.75,1.5,1.25,1.25,-0.17,0.02,0.95,454.68,1.8,10.7,0.75,0.0,0.0,1.5,2.25,1.25,0.25,0.5,0.5,0.0,0.5,0.25,1.5,0.39,1.02,1.77,158.58,-0.3,7.4
1.44,2.25,1.5,3.0,6.5,7.5,3.75,0.5,5.75,1.5,2.5,0.75,1.0,1.0,-0.17,0.08,0.95,484.73,2.8,20.4,0.75,0.25,0.0,1.5,2.5,1.0,0.25,0.5,0.25,0.5,1.0,0.25,1.5,0.33,1.2,2.45,154.9,-0.5,3.6
1.46,2.5,1.75,3.5,6.5,7.0,4.0,0.5,5.25,1.25,2.5,0.25,1.0,0.5,-0.17,0.08,0.95,502.27,3.9,25.8,1.0,0.0,0.0,1.5,2.25,1.25,0.25,0.5,0.5,0.25,1.0,0.5,1.5,0.14,1.52,2.64,158.07,-1.4,0.9
1.48,3.5,2.25,4.25,7.0,7.75,4.0,0.5,5.25,1.0,2.5,0.0,1.0,0.5,-0.17,0.08,0.95,539.4,5.3,31.0,1.0,0.5,0.0,1.5,2.25,1.25,0.25,0.5,0.25,0.5,0.75,0.25,1.75,-0.17,2.27,2.08,156.58,-0.6,6.3
1.5,4.25,2.5,4.25,8.0,7.75,3.75,0.25,5.0,0.5,2.5,0.0,1.0,0.5,-0.17,0.08,0.95,571.84,6.2,34.5,1.0,0.5,0.0,1.5,2.5,1.25,0.25,0.5,0.5,0.5,0.75,0.5,1.5,-0.23,3.08,1.14,161.14,-1.2,6.6
1.52,5.0,3.5,4.5,8.75,8.25,3.75,0.25,4.5,0.5,2.0,0.0,1.0,0.5,-0.17,0.14,0.95,621.17,7.6,40.0,1.0,0.25,0.0,1.25,2.25,1.25,0.25,0.5,0.5,0.5,0.75,0.75,1.5,-0.48,3.77,0.14,163.07,-0.8,-0.6
1.54,5.75,4.0,5.25,9.0,8.75,4.5,0.25,4.5,0.5,1.0,0.0,0.75,0.5,-0.17,0.14,1.02,682.29,8.6,45.4,1.0,0.0,0.0,0.0,1.75,1.25,0.25,0.5,0.0,1.75,1.0,0.5,1.5,-2.11,5.58,-0.3,155.57,4.1,-21.6
1.56,6.0,4.5,5.75,9.25,0.0,4.25,0.0,3.75,0.5,1.5,0.0,0.75,0.5,-0.23,0.14,1.02,672.56,12.8,44.7,1.0,0.0,0.0,1.25,2.25,1.25,0.25,0.5,0.5,5.25,2.25,4.0,3.0,-1.05,2.02,0.27,204.71,2.0,-47.4
1.58,6.5,5.0,5.5,9.5,0.0,4.25,0.0,3.25,0.25,1.25,0.0,0.25,0.5,-0.23,0.2,1.08,645.71,13.6,50.8,0.75,0.25,0.0,1.5,2.5,1.25,0.25,0.5,0.5,7.5,4.75,6.0,7.5,0.52,-0.3,1.83,296.62,3.0,-61.8
1.6,7.0,5.25,5.25,10.5,0.0,4.0,0.0,3.25,0.25,1.0,0.0,0.75,0.5,-0.23,0.2,1.08,613.43,14.2,50.7,1.0,0.0,0.0,1.5,3.25,1.25,0.0,0.75,0.5,7.75,7.25,5.75,8.25,0.39,0.52,1.83,420.96,2.5,-61.0
1.62,0.0,5.25,6.75,10.5,0.0,3.75,0.0,3.0,0.25,1.0,0.0,0.75,0.5,-0.23,0.2,1.14,554.28,11.6,42.5,0.0,0.0,0.0,1.5,2.5,1.25,0.0,2.5,1.5,8.75,6.25,5.5,6.75,-0.11,0.52,1.7,536.75,4.1,-63.7
1.64,0.0,5.5,7.0,9.5,0.0,3.25,0.0,3.0,0.25,1.0,0.0,0.75,0.5,-0.36,0.27,1.27,498.02,12.2,42.7,1.25,0.25,0.0,1.5,3.5,3.25,0.0,5.25,1.75,8.75,7.75,5.5,7.25,0.33,0.33,1.33,661.02,4.0,-51.1
1.66,7.75,5.5,6.5,9.0,0.0,2.0,0.0,2.5,0.25,1.0,0.0,0.75,0.5,-0.42,0.27,1.45,490.19,17.9,54.7,1.25,0.75,1.25,1.75,3.5,3.75,1.0,6.5,3.0,9.0,7.75,5.5,6.5,0.2,0.2,1.02,763.61,2.4,-43.3
1.68,7.0,0.0,6.25,8.25,0.0,0.0,0.0,2.0,0.25,1.0,0.0,0.75,0.25,-0.67,0.33,1.77,431.64,22.4,48.7,2.0,0.75,3.0,3.0,4.25,3.75,1.25,7.5,3.25,8.75,9.0,5.5,6.5,0.2,0.14,1.02,880.8,0.0,-35.0
1.7,5.5,0.0,3.75,7.0,0.0,0.0,0.0,0.25,0.25,1.0,0.0,0.75,0.25,-0.8,0.45,2.27,353.08,23.3,50.8,2.5,0.75,5.25,3.25,4.25,3.75,1.25,7.5,3.75,8.75,9.0,5.5,6.25,0.2,0.08,0.95,985.48,-1.8,-29.7
1.72,2.75,0.0,0.0,0.0,0.0,0.0,0.0,0.0,0.0,0.0,0.0,0.0,0.25,-0.86,1.08,2.7,220.73,30.5,78.9,3.75,0.75,5.75,4.0,4.25,3.75,1.75,7.5,3.5,8.0,8.5,4.5,5.75,0.2,0.08,0.95,1057.93,-3.2,-22.2
1.74,0.0,0.0,0.0,0.0,0.0,0.0,0.0,0.0,0.0,0.0,0.0,0.0,0.0,-0.61,1.08,3.08,83.64,0.0,0.0,4.0,1.5,6.75,4.25,4.25,3.75,1.75,6.75,3.0,7.25,8.0,2.25,4.25,0.2,0.08,0.95,1063.23,-4.8,-10.9
1.76,0.0,0.0,0.0,0.0,0.0,0.0,0.0,0.0,0.0,0.0,0.0,0.0,0.0,-0.48,-0.17,2.39,0.0,0.0,0.0,5.0,1.5,7.75,4.5,4.5,3.75,1.75,6.0,2.5,6.0,6.25,2.25,3.5,0.2,0.08,0.95,1029.0,-6.7,-1.5
1.78,0.75,0.0,0.0,1.0,0.0,0.0,0.0,0.0,0.25,1.0,0.0,0.0,0.0,-1.11,-1.86,2.77,0.0,9.9,14.7,5.75,1.5,8.0,5.25,4.75,3.75,1.5,5.25,2.25,4.75,4.75,2.0,2.25,0.2,0.14,0.95,960.97,-8.5,9.0
1.8,0.0,0.0,0.0,0.0,0.0,0.0,1.25,0.0,0.25,0.0,0.0,0.0,0.0,-0.73,-1.61,2.77,0.0,26.5,8.1,6.5,2.0,8.5,6.5,5.5,3.25,1.25,4.75,1.5,2.5,3.25,0.25,1.5,0.14,0.14,0.95,871.04,-11.2,27.9
1.82,0.0,0.0,0.0,0.0,0.0,0.0,3.5,0.0,1.25,0.0,0.0,0.0,0.0,-0.55,-1.17,0.52,0.0,23.8,-0.5,6.75,2.0,8.75,6.25,5.0,3.75,1.25,3.75,1.25,1.75,2.25,0.0,1.25,0.14,0.14,0.89,783.92,-12.5,35.5
1.84,0.0,0.0,0.0,0.0,0.0,0.0,3.5,0.0,0.0,0.0,0.0,0.0,0.0,-0.11,-0.67,0.27,0.0,32.4,27.4,7.0,2.25,9.25,6.25,5.75,3.75,1.25,3.5,1.0,2.0,2.25,0.0,1.25,0.14,0.14,0.89,737.7,-12.6,37.0
1.86,0.75,0.0,0.0,0.0,0.0,0.0,4.5,0.0,0.0,0.0,0.0,0.0,0.0,0.52,-0.55,0.52,0.0,33.0,44.6,7.5,2.5,9.25,5.25,6.25,3.5,1.0,2.5,1.0,1.75,2.0,0.0,0.75,0.14,0.14,0.95,694.83,-13.9,42.5
1.88,0.0,0.0,0.0,0.0,0.0,0.0,3.5,0.0,2.75,0.0,0.0,0.0,0.0,0.7,-0.55,0.89,0.0,19.9,-13.3,7.75,2.5,9.25,6.25,6.0,4.0,0.75,2.25,1.0,1.5,1.5,0.25,0.75,0.14,0.14,0.95,668.86,-14.1,44.6
1.9,0.75,0.0,0.0,2.0,0.0,0.0,4.25,0.0,3.25,2.0,0.0,0.0,0.0,0.33,-0.36,0.89,26.3,13.3,-2.9,7.0,2.5,9.25,7.0,6.0,2.25,0.75,2.25,1.0,0.75,1.0,0.5,1.75,0.14,0.2,0.89,643.36,-15.1,43.2
1.92,1.25,0.0,0.0,3.25,0.0,0.0,3.75,0.0,3.0,1.75,0.0,0.5,0.0,0.33,-0.23,0.89,98.56,14.7,5.1,7.5,1.5,8.75,6.0,5.5,1.25,0.75,1.0,0.25,0.0,0.25,0.5,0.75,0.08,0.14,0.89,579.29,-19.2,56.1
1.94,1.5,0.0,0.0,3.25,0.0,0.0,3.25,0.0,3.0,1.75,1.0,0.25,0.0,0.33,-0.05,1.08,156.38,14.5,2.4,7.75,1.25,10.5,7.25,4.25,2.25,0.75,2.0,0.5,1.5,0.0,0.25,0.75,0.08,0.2,0.95,555.71,-17.8,49.7
1.96,1.0,0.0,0.0,3.25,0.0,0.0,3.25,0.0,2.75,1.75,1.25,0.25,0.0,0.08,0.2,1.39,190.31,13.7,-2.0,8.5,2.5,10.5,8.0,6.0,1.25,0.75,2.25,0.5,1.25,0.0,0.25,0.5,0.08,0.2,0.89,569.43,-18.0,53.8
1.98,0.5,0.0,0.0,1.75,0.0,0.0,3.0,0.0,2.75,1.75,2.25,0.0,0.0,-0.05,0.58,1.7,192.58,11.9,-20.2,8.0,1.75,9.5,5.75,5.0,2.0,0.25,0.5,0.5,0.25,0.0,0.25,1.25,0.14,0.14,1.08,556.27,-19.1,56.2
2.0,1.0,0.0,0.0,2.0,0.0,0.0,3.5,0.0,2.25,1.75,0.75,0.0,0.0,-0.17,1.02,1.89,181.93,13.8,-1.4,8.5,1.75,9.25,6.25,6.25,2.0,0.25,1.25,0.25,0.0,1.0,0.5,0.75,0.08,0.2,1.2,562.83,-18.0,54.1
2.02,0.0,0.0,0.0,0.25,0.0,0.0,0.25,0.0,0.0,1.5,0.0,0.0,0.0,-0.17,1.64,1.95,135.04,-8.0,-50.3,9.0,1.5,9.75,6.25,4.5,0.5,0.0,0.5,0.5,0.75,0.0,0.25,0.5,0.02,0.2,1.14,539.88,-21.9,59.9
2.04,1.0,0.0,0.0,1.25,0.0,0.0,2.5,0.0,2.25,0.75,0.0,0.5,0.0,0.08,2.08,1.83,118.8,16.4,0.4,9.0,0.0,9.0,6.0,4.5,1.25,0.0,0.5,0.25,0.0,0.0,0.0,0.5,0.02,0.2,1.14,504.75,-22.1,62.8
2.06,0.0,0.0,0.0,0.0,0.0,0.0,0.75,0.0,0.0,0.0,0.0,0.0,0.0,0.2,2.7,1.64,69.13,32.4,27.3,9.0,1.0,5.5,6.0,3.5,0.0,0.0,0.5,0.5,0.0,0.0,0.0,0.0,0.02,0.2,1.08,436.9,-23.3,68.5
2.08,0.0,0.0,0.0,0.0,0.0,0.0,0.0,0.0,0.0,0.0,0.0,0.0,0.0,-4.8,7.95,2.45,35.63,0.0,0.0,9.0,0.75,9.5,5.0,2.25,1.25,0.0,0.5,0.0,0.0,0.0,0.0,0.0,0.08,0.33,1.02,402.51,-25.4,68.7
2.1,0.0,0.0,0.0,0.0,0.0,0.0,0.0,0.0,0.0,0.0,0.0,0.0,0.0,-0.05,4.89,1.58,0.0,0.0,0.0,9.0,0.75,9.25,4.5,0.25,0.0,0.0,0.0,0.0,0.0,0.0,0.0,0.0,0.08,0.39,1.14,360.36,-31.5,74.6
2.12,0.0,0.0,0.0,0.25,0.0,0.0,0.0,0.0,0.0,0.5,0.0,0.0,0.0,0.27,0.39,1.45,0.0,-4.3,-29.6,9.0,0.0,9.25,4.25,1.0,0.25,0.0,0.0,0.0,0.0,0.0,0.0,0.5,0.08,0.39,1.52,337.42,-29.6,68.9
2.14,0.0,0.0,0.0,0.25,0.0,0.0,0.0,0.0,0.25,0.0,0.0,0.0,0.0,-0.48,0.02,0.45,0.0,14.7,11.1,8.25,0.0,8.75,4.5,0.0,0.0,0.0,0.0,0.0,0.75,0.0,0.0,0.0,-0.05,0.39,1.52,312.03,-30.8,68.5
2.16,0.0,0.0,0.0,0.5,0.0,0.0,0.0,0.0,0.25,0.75,0.0,0.0,0.5,-0.42,-0.05,0.7,0.0,-3.3,-45.3,7.75,0.75,8.75,4.25,0.5,1.25,0.0,0.75,0.0,0.25,0.0,0.25,0.75,-0.11,0.52,1.7,312.95,-24.9,59.5
2.18,0.25,0.0,0.0,0.0,0.0,0.0,0.0,0.0,0.0,1.5,0.0,0.5,0.5,-0.17,0.2,1.02,0.0,-6.5,-73.4,5.75,0.75,7.25,1.75,0.5,1.25,0.25,0.5,0.5,0.25,0.75,0.25,1.5,0.08,1.14,1.58,289.59,-22.4,44.0
2.2,0.0,0.0,0.0,0.0,0.0,0.0,0.0,0.0,0.0,1.5,0.0,0.75,0.5,-0.3,0.08,0.95,16.61,-8.6,-91.1,3.0,0.0,5.25,1.75,0.25,1.25,0.0,0.25,0.5,1.25,1.0,0.75,0.0,0.14,1.2,1.52,255.97,-20.2,32.0
2.22,0.0,0.0,0.0,0.5,0.0,0.0,0.0,5.0,0.0,1.0,0.0,0.75,0.5,-0.23,0.14,1.02,57.75,-11.7,-48.5,1.0,0.0,2.75,0.5,0.25,0.0,0.25,0.75,0.25,0.0,1.25,0.25,0.75,2.89,-3.67,1.95,190.91,-18.6,8.9
2.24,0.0,0.0,0.0,0.5,0.0,0.0,0.0,5.25,0.0,1.75,0.0,0.75,0.5,-0.3,0.08,1.02,97.08,-12.1,-50.5,1.0,0.0,2.75,1.5,1.75,1.0,0.25,0.5,0.5,1.0,1.0,0.25,1.5,2.14,-1.55,-0.17,152.04,-8.8,8.7
2.26,0.0,0.0,0.0,0.75,0.0,5.5,0.0,5.0,0.25,1.75,0.0,0.75,0.5,-0.48,0.08,1.08,153.55,-15.0,-17.6,1.25,0.0,1.5,1.75,2.25,0.0,0.25,0.25,0.0,0.0,1.0,0.0,1.0,1.14,-2.11,1.02,116.57,-12.4,27.4
2.28,0.0,0.0,0.5,1.5,0.0,5.25,0.0,4.5,0.25,1.75,0.0,0.25,0.5,-0.23,0.2,1.27,189.45,-11.9,-7.6,0.25,0.0,0.0,0.0,0.0,0.0,0.0,0.0,0.0,0.0,0.0,0.0,0.5,0.33,-1.73,1.02,59.15,-1.4,-45.0
2.3,1.75,0.0,1.0,2.5,0.0,5.0,0.0,4.5,0.25,1.25,0.0,0.75,0.5,-0.23,0.14,1.08,233.4,-3.4,6.8,0.25,0.0,0.0,0.5,0.25,0.0,0.0,0.0,0.0,0.0,0.0,0.0,0.0,0.39,-1.36,-0.48,8.49,-15.4,65.6
2.32,1.5,0.0,0.5,2.5,0.0,4.5,0.0,3.25,0.25,1.25,0.0,0.75,0.5,-0.42,0.2,1.08,245.69,-3.7,6.5,2.5,0.0,1.75,2.75,3.5,1.25,0.0,0.5,0.0,2.0,0.0,0.5,0.75,-4.48,7.95,5.08,53.21,-7.1,28.2
2.34,3.25,0.0,0.0,2.5,0.0,0.0,0.0,3.25,0.0,1.0,0.0,0.0,0.5,-0.36,0.2,0.95,234.6,7.0,18.2,2.0,0.0,2.75,1.75,1.25,0.5,0.0,0.75,0.0,0.25,0.0,0.25,0.75,-2.36,7.95,0.77,83.01,-15.7,37.7
2.36,0.0,0.0,0.0,2.5,0.0,0.0,0.0,3.25,0.25,1.0,0.0,0.0,0.5,-0.3,0.33,0.89,200.2,-3.8,-15.1,2.5,0.75,2.75,2.25,2.5,1.25,0.0,0.5,0.0,1.25,1.0,0.25,0.75,-0.67,-0.86,-0.61,147.04,-11.0,31.6
2.38,0.0,0.0,0.0,2.5,0.0,0.0,0.0,2.75,0.25,1.0,0.0,0.0,0.25,-0.23,0.39,0.89,163.17,-2.5,-9.9,5.0,0.75,5.25,3.0,3.25,1.25,0.0,0.5,0.25,1.0,1.0,0.75,0.75,-0.86,0.27,0.77,221.28,-16.4,40.6
2.4,0.0,0.0,0.0,2.5,0.0,0.0,0.0,2.5,0.25,1.0,0.0,0.0,0.25,-0.36,0.39,0.83,130.43,-1.9,-8.8,6.0,0.75,7.5,4.0,2.75,1.25,0.0,0.5,0.25,0.75,1.0,0.75,1.25,-0.42,0.27,0.7,293.34,-19.0,42.9
2.42,0.0,0.0,0.25,2.0,0.0,0.0,0.0,2.0,0.25,1.0,0.0,0.75,0.5,-0.3,0.52,0.7,109.99,-0.1,-23.9,6.25,0.75,7.75,4.5,0.0,0.0,0.0,0.0,0.5,0.0,0.0,0.25,0.0,0.14,0.64,0.89,326.35,-30.3,67.9
2.44,0.0,0.0,0.0,2.0,0.0,0.0,0.0,1.75,0.25,1.0,0.0,0.75,0.25,-0.3,0.58,0.52,94.17,-0.4,-23.2,7.75,0.75,9.25,4.5,0.0,0.0,0.0,0.0,0.0,0.0,0.0,0.25,0.0,0.52,0.83,1.2,360.01,-31.6,71.6
2.46,3.75,0.0,0.0,1.5,0.0,0.0,0.0,2.0,0.25,1.0,0.0,0.75,0.25,-0.48,0.7,0.52,99.85,11.4,17.2,8.0,0.75,8.75,4.5,0.0,1.0,0.0,0.0,0.25,1.25,0.0,0.5,0.75,0.52,0.77,1.08,382.89,-25.4,55.2
2.48,3.5,0.0,0.0,0.75,0.0,0.0,0.0,1.75,0.0,1.0,0.0,0.75,0.25,-0.67,0.89,0.64,100.67,11.0,14.3,7.75,0.75,9.25,4.5,1.75,0.75,0.25,0.5,0.5,1.25,1.0,0.5,1.0,-0.05,0.33,0.83,417.85,-22.4,46.9
2.5,0.0,0.0,1.0,0.0,0.0,0.0,0.0,1.5,0.0,0.75,0.0,0.0,0.25,-0.61,0.89,0.64,80.24,-0.3,-22.7,7.5,0.0,9.25,4.25,1.75,1.25,0.25,0.5,0.5,1.0,1.0,0.25,1.0,-1.05,-0.05,0.77,448.86,-22.3,47.2
2.52,0.0,0.0,0.0,0.0,0.0,0.0,0.0,0.0,0.0,0.0,0.0,0.75,0.0,-0.92,1.33,0.45,46.2,8.8,-109.8,7.25,0.0,8.75,4.5,0.5,1.25,0.75,0.5,0.5,0.75,1.0,0.25,1.0,-1.23,-0.11,0.7,459.61,-23.6,47.2
2.54,0.0,0.0,0.0,0.0,0.0,0.0,0.0,1.25,0.0,0.0,0.0,0.0,0.0,-1.73,2.77,0.39,17.4,-16.7,-38.8,7.0,0.0,8.0,4.5,1.0,1.25,0.75,0.5,0.5,1.25,1.25,0.5,0.75,-0.23,0.39,0.7,441.48,-21.9,43.2
2.56,0.0,0.0,0.0,0.0,0.0,0.0,0.0,0.0,0.0,0.0,0.0,0.0,0.0,-1.17,0.77,1.58,0.0,0.0,0.0,6.5,0.0,8.0,4.25,0.0,1.25,0.75,0.5,0.5,1.0,1.0,0.75,1.0,0.27,0.95,0.64,402.92,-22.9,40.8
2.58,0.0,0.0,0.0,0.0,0.0,0.0,0.0,1.5,0.0,0.0,0.0,0.0,0.0,3.95,-0.92,1.52,0.0,-16.7,-38.8,5.75,0.0,7.75,4.0,0.25,1.25,0.5,0.25,0.25,1.0,1.0,0.25,1.0,-0.61,0.39,0.33,375.78,-22.9,43.8
2.6,0.0,0.0,0.0,0.0,0.0,0.0,2.75,2.25,0.25,1.0,0.0,0.0,0.0,1.83,0.14,0.45,15.96,-1.6,-28.3,5.25,0.0,7.25,3.75,1.5,1.25,0.25,0.0,0.5,0.25,0.75,0.75,0.75,-1.17,-0.23,0.39,344.13,-22.4,46.5
2.62,0.0,0.0,0.0,0.0,0.0,0.0,0.0,0.0,0.0,0.0,0.0,0.0,0.0,-0.86,0.33,0.27,10.92,0.0,0.0,4.25,0.0,6.75,3.0,1.25,1.25,0.5,0.0,0.5,0.5,1.0,0.5,1.5,-0.67,0.08,0.7,313.72,-20.3,36.5
2.64,0.0,0.0,0.0,0.0,0.0,0.0,0.0,0.0,0.0,0.0,0.0,0.0,0.0,-2.98,0.77,-0.36,3.3,0.0,0.0,2.75,0.0,5.5,1.5,1.5,0.75,0.25,0.0,0.5,1.0,1.0,0.25,1.25,-0.3,0.33,1.33,278.0,-18.3,28.8
2.66,0.0,0.0,0.0,0.0,0.0,0.0,0.0,0.0,0.0,0.0,0.0,0.0,0.0,-1.86,1.39,0.33,0.0,0.0,0.0,0.75,0.0,1.25,1.5,0.0,0.0,0.0,0.0,0.0,0.0,0.0,0.25,0.5,-1.17,0.08,1.52,200.69,-22.2,35.6
2.68,0.0,0.0,0.0,0.0,0.0,0.0,0.0,0.0,0.0,0.0,0.0,0.0,0.0,-0.55,0.83,0.33,0.0,0.0,0.0,1.25,0.0,0.0,1.25,2.25,0.0,0.25,0.0,0.0,0.0,0.75,0.0,0.25,-2.11,0.2,1.7,126.88,-10.1,40.3
2.7,0.0,0.0,0.0,0.0,0.0,0.0,0.0,0.0,0.0,0.0,0.0,0.0,0.0,-0.42,0.27,0.14,0.0,0.0,0.0,0.0,0.0,0.5,1.25,1.75,1.25,0.25,0.0,0.5,1.5,0.75,0.25,0.5,-1.11,0.14,1.39,75.33,0.2,-1.3
2.72,0.0,0.0,0.0,0.0,0.0,0.0,0.0,0.0,0.0,0.0,0.0,0.0,0.0,-0.86,-0.05,0.08,0.0,0.0,0.0,1.25,0.0,0.5,1.5,2.25,1.25,0.25,0.0,0.5,0.75,0.0,0.5,0.0,-0.86,0.58,1.33,63.38,-6.1,32.5
2.74,0.0,0.0,0.0,0.0,0.0,0.0,0.0,0.0,0.25,1.0,0.0,0.0,0.0,-1.11,0.45,0.02,2.27,-10.1,-68.2,1.25,0.0,0.0,1.5,1.75,1.25,0.25,0.0,0.25,0.25,1.0,0.25,0.75,-1.17,0.64,1.52,67.82,-4.5,16.7
2.76,0.0,0.0,0.0,0.0,0.0,0.0,0.0,0.0,0.0,0.0,0.0,0.0,0.0,-0.48,0.83,0.27,2.97,0.0,0.0,1.25,0.0,0.0,1.5,1.75,1.25,0.25,0.0,0.5,0.75,1.0,0.25,0.75,-1.11,0.7,1.77,82.81,-3.6,10.3
2.78,0.0,0.0,0.0,0.0,0.0,0.0,0.0,0.5,1.5,0.0,0.0,0.0,0.0,-0.8,0.52,0.39,13.17,4.8,-38.6,1.25,0.0,0.0,1.5,2.25,1.75,0.25,0.0,0.5,0.75,0.75,0.75,0.75,-0.73,0.83,1.39,97.54,-2.2,10.0
2.8,0.0,0.0,0.0,0.0,0.0,0.0,2.0,0.0,0.0,0.0,0.0,0.0,0.0,-0.8,0.27,0.45,15.01,32.4,27.3,1.0,0.0,0.0,1.5,2.25,1.25,0.25,0.0,0.5,0.5,0.75,0.25,0.75,-0.42,0.58,1.27,105.08,-2.7,15.4
2.82,0.0,0.0,0.0,0.0,0.0,0.0,1.0,0.0,1.0,0.0,0.0,0.0,0.0,-0.55,0.7,0.39,19.25,18.8,-17.0,1.0,0.0,0.0,1.5,2.25,1.25,0.25,0.0,0.5,0.5,0.75,0.25,0.75,-0.17,0.27,0.95,114.11,-2.7,15.4
2.84,1.25,0.0,0.0,0.0,0.0,0.0,3.5,4.0,2.5,1.25,0.0,0.0,0.0,-0.73,0.64,0.45,68.66,3.6,-17.4,1.0,0.0,0.0,1.5,1.5,0.75,0.25,0.0,0.25,1.0,0.75,0.75,0.75,0.02,-0.11,0.64,117.06,-3.8,-0.4
2.86,2.0,0.0,0.0,0.0,0.0,0.0,3.75,4.25,2.5,1.75,0.0,0.0,0.0,-0.73,0.27,0.77,124.53,4.5,-13.2,1.25,0.25,0.0,1.5,1.75,1.25,0.25,0.0,0.25,0.5,0.75,0.0,1.0,0.08,-0.36,0.58,125.17,-3.4,18.9
2.88,2.0,0.0,0.25,1.0,0.0,0.0,3.25,4.5,2.25,1.75,1.0,0.25,0.0,-0.86,0.27,0.7,177.58,5.5,-13.2,1.0,0.0,0.0,1.5,1.75,1.0,0.25,0.0,0.5,0.75,0.75,0.25,1.0,0.14,-0.48,0.39,132.69,-2.8,6.2
2.9,2.5,0.0,0.75,0.0,0.0,0.0,3.0,3.75,2.0,1.75,0.5,0.25,0.0,-1.11,0.14,0.52,202.85,7.7,-8.0,1.0,0.5,0.0,1.5,2.25,1.0,0.25,0.0,0.25,0.25,0.75,0.25,0.75,0.14,-0.61,0.27,141.89,-4.3,23.8
2.92,1.75,0.0,0.5,0.25,0.0,0.0,2.25,3.0,2.25,1.75,0.0,0.25,0.0,-1.23,-0.17,0.45,207.0,6.3,-11.7,1.0,0.25,0.0,1.5,1.75,1.25,0.25,0.0,0.25,0.75,1.0,0.25,0.75,0.02,-0.55,0.27,139.49,-2.9,11.9
2.94,2.25,0.0,0.0,0.0,0.0,0.0,0.25,0.0,0.0,0.5,0.0,0.0,0.0,-1.11,0.08,0.52,164.47,25.5,62.9,1.25,0.5,0.0,1.5,1.5,1.25,0.25,0.0,0.5,0.5,0.75,0.25,0.75,-0.05,-0.61,0.33,138.79,-4.7,18.7
2.96,0.0,0.0,0.0,0.0,0.0,0.0,0.0,0.0,0.0,0.0,0.0,0.0,0.0,-0.98,0.2,0.39,106.32,0.0,0.0,1.25,0.25,0.0,1.5,2.25,1.25,0.25,0.0,0.5,0.5,1.0,0.25,0.75,-0.11,-0.61,0.33,142.81,-4.0,17.3
2.98,0.0,0.0,0.0,0.0,0.0,0.0,0.0,0.0,0.0,0.0,0.0,0.0,0.0,-0.86,0.14,0.45,50.87,0.0,0.0,1.25,0.25,0.0,1.5,2.25,1.25,0.25,0.0,0.25,0.5,0.75,0.5,0.75,-0.23,-0.61,0.39,145.85,-3.7,17.8
3.0,0.0,0.0,0.0,0.0,0.0,0.0,0.0,0.0,0.0,0.0,0.0,0.0,0.0,-0.67,0.08,0.52,13.82,0.0,0.0,1.0,0.25,0.0,1.25,2.25,1.25,0.25,0.0,0.5,0.0,0.75,0.25,0.75,-0.3,-0.61,0.39,143.31,-3.7,21.9
3.02,0.0,0.0,0.0,0.0,0.0,0.0,0.0,0.0,0.0,0.0,0.0,0.0,0.0,-0.86,0.27,0.2,0.0,0.0,0.0,1.0,0.5,0.0,1.5,1.75,1.25,0.25,0.0,0.5,0.5,1.0,0.75,0.75,-0.23,-0.61,0.39,144.74,-4.1,9.0
3.04,0.0,0.0,0.0,0.0,0.0,0.0,0.0,0.0,0.0,0.0,0.0,0.0,0.0,-0.8,0.45,0.33,0.0,0.0,0.0,1.25,0.25,0.0,1.5,1.75,1.25,0.25,0.0,0.25,1.0,0.75,0.25,0.75,-0.23,-0.55,0.39,144.97,-3.0,14.0
3.06,0.0,0.0,0.0,0.0,0.0,0.0,0.0,0.0,0.0,0.0,0.0,0.0,0.0,-0.73,0.39,0.52,0.0,0.0,0.0,1.0,0.0,0.0,1.5,1.75,1.25,0.25,0.0,0.25,0.5,0.75,0.25,0.75,-0.36,-0.48,0.39,140.36,-2.9,14.4
3.08,0.0,0.0,0.0,0.0,0.0,0.0,0.0,0.0,0.0,0.25,0.0,0.0,0.0,-0.92,0.33,0.39,0.0,-15.7,-75.5,1.0,0.25,0.0,1.5,1.75,1.25,0.25,0.0,0.5,0.5,0.75,0.25,0.75,-0.36,-0.48,0.45,137.95,-3.4,15.4
3.1,0.0,0.0,0.0,0.0,0.0,0.0,0.0,0.0,0.0,0.25,0.0,0.0,0.0,-0.86,0.39,0.27,0.0,-15.7,-75.5,1.0,0.25,0.0,1.5,1.75,1.25,0.25,0.0,0.5,0.75,1.0,0.25,0.75,-0.42,-0.42,0.45,137.84,-3.1,10.6
3.12,0.0,0.0,0.0,0.0,0.0,0.0,0.0,0.0,0.0,0.0,0.0,0.0,0.0,-0.86,0.33,0.33,0.0,0.0,0.0,0.75,0.25,0.0,1.25,2.25,1.25,0.25,0.0,0.25,0.5,0.75,0.25,0.75,-0.48,-0.42,0.45,136.24,-1.5,15.9
3.14,0.25,0.0,0.0,0.75,0.0,0.0,0.0,0.5,0.25,1.0,0.0,0.0,0.0,-0.86,0.2,0.39,0.0,0.2,-13.0,0.75,0.0,0.0,1.5,2.25,1.25,0.25,0.0,0.5,0.5,0.75,0.25,0.75,-0.48,-0.42,0.39,135.9,-1.9,13.3
3.16,0.25,0.0,1.0,0.5,0.0,0.0,0.0,0.0,0.0,0.75,0.0,0.0,0.0,-0.86,0.2,0.39,17.53,17.6,23.3,0.75,0.25,0.0,1.25,1.5,0.5,0.25,0.0,0.25,0.0,0.75,0.75,0.75,-0.55,-0.42,0.39,126.33,-6.2,7.2
3.18,0.0,0.0,0.75,0.25,0.0,0.0,0.0,0.0,0.0,1.0,0.0,0.0,0.0,-0.86,0.2,0.39,35.47,9.0,-6.5,1.0,0.25,0.0,1.25,2.5,1.25,0.25,0.0,0.25,1.0,1.0,0.25,0.75,-0.73,-0.42,0.52,131.7,-1.5,12.1
3.2,0.0,0.0,0.75,0.25,0.0,0.0,0.0,0.0,0.25,1.0,0.0,0.0,0.0,-0.8,0.14,0.45,42.08,9.3,-10.0,1.0,0.25,0.0,1.25,1.25,1.25,0.25,0.0,0.5,0.75,0.5,0.25,0.75,-0.73,-0.48,0.52,126.83,-2.7,11.1
3.22,0.0,0.0,0.75,0.25,0.0,0.0,0.0,0.0,0.25,1.0,0.0,0.0,0.0,-0.73,0.08,0.39,43.34,9.3,-10.0,0.75,0.25,0.0,1.5,2.25,1.0,0.25,0.0,0.25,0.75,0.75,0.25,0.75,-0.73,-0.48,0.52,132.05,-2.1,14.1
3.24,2.0,0.0,0.0,1.25,0.0,0.0,0.0,0.25,1.75,1.75,0.0,0.0,0.0,-0.8,0.02,0.45,68.26,11.1,7.2,1.0,0.25,0.0,1.25,2.25,1.25,0.25,0.0,0.25,0.75,0.5,0.25,0.75,-0.73,-0.55,0.58,133.19,-1.6,18.0
3.26,2.5,0.0,0.75,1.25,0.0,0.0,2.25,3.5,0.0,0.75,0.25,0.0,0.0,-0.86,-0.05,0.52,107.55,10.0,17.0,0.75,0.5,0.0,1.25,2.25,1.25,0.25,0.0,0.5,0.25,0.75,0.25,0.75,-0.67,-0.61,0.58,136.25,-2.6,19.4
3.28,2.25,0.0,0.0,1.0,0.0,0.0,0.25,1.5,0.0,1.0,0.0,0.0,0.0,-0.92,0.08,0.45,121.81,9.4,23.5,0.75,0.0,0.0,1.25,2.25,1.25,0.25,0.0,0.5,0.5,0.75,0.25,0.75,-0.67,-0.61,0.58,135.43,-1.4,11.9
3.3,0.25,0.0,1.0,0.5,0.0,0.0,0.0,0.25,0.0,1.0,0.0,0.0,0.0,-0.92,0.14,0.45,110.91,12.0,10.1,1.0,0.0,0.0,1.5,1.5,1.0,0.25,0.0,0.5,0.5,0.5,0.25,0.75,-0.67,-0.61,0.58,131.26,-4.0,13.4
3.32,0.25,0.0,1.0,0.5,0.0,0.0,0.0,0.0,0.0,1.0,0.0,0.0,0.0,-0.92,0.14,0.52,88.51,14.6,14.5,0.5,0.0,0.0,1.25,1.25,1.0,0.25,0.0,0.5,0.75,0.25,0.5,0.75,-0.67,-0.61,0.64,121.38,-1.0,0.1
3.34,0.5,0.0,0.25,0.75,0.0,0.0,0.0,0.0,0.25,1.0,0.0,0.0,0.0,-0.92,0.14,0.58,66.97,9.7,7.9,1.0,0.25,0.0,1.0,1.75,1.25,0.25,0.0,0.5,0.25,0.75,0.25,0.75,-0.67,-0.61,0.7,118.66,-3.1,15.4
3.36,0.25,0.0,0.5,0.25,0.0,0.0,0.0,0.5,0.0,1.0,0.0,0.0,0.0,-0.86,0.14,0.52,50.75,3.2,-10.1,1.0,0.0,0.0,1.25,1.75,1.0,0.25,0.0,0.5,0.75,0.5,0.25,0.75,-0.67,-0.61,0.77,118.67,-2.7,10.7
3.38,0.25,0.0,0.0,0.5,0.0,0.0,0.0,0.0,0.25,1.25,0.0,0.0,0.0,-0.86,0.14,0.52,41.1,0.2,-22.5,0.5,0.25,0.0,1.25,2.25,1.0,0.25,0.0,0.25,1.0,0.75,0.25,0.75,-0.73,-0.55,0.77,123.74,-0.2,8.0
3.4,0.25,0.0,0.0,0.25,0.0,0.0,0.0,0.0,0.25,1.25,0.0,0.0,0.0,-0.86,0.14,0.64,35.27,-1.9,-33.0,0.75,0.25,0.0,1.25,2.25,1.25,0.25,0.0,0.25,0.5,0.75,0.0,0.75,-0.73,-0.55,0.7,127.49,-1.3,19.7
3.42,0.25,0.0,0.5,0.0,0.0,0.0,0.0,0.0,0.25,1.0,0.0,0.0,0.0,-0.92,0.02,0.58,29.0,7.6,-15.4,0.5,0.25,0.0,1.25,1.75,1.25,0.25,0.0,0.5,0.5,0.75,0.25,0.75,-0.73,-0.55,0.77,126.64,-1.2,9.2
3.44,0.25,0.0,0.75,0.5,0.0,0.0,0.0,0.0,0.0,1.5,0.0,0.0,0.0,-0.92,0.08,0.45,29.31,7.6,-4.3,1.0,0.0,0.0,0.5,1.75,0.5,0.25,0.0,0.5,0.5,0.75,0.25,0.75,-0.73,-0.48,0.77,119.54,-3.7,3.7
3.46,0.25,0.0,0.0,0.0,0.0,0.0,0.0,0.0,0.25,1.0,0.0,0.0,0.0,-0.86,0.14,0.45,22.51,-3.0,-42.0,1.0,0.25,0.0,1.25,1.75,0.5,0.25,0.0,0.5,0.0,0.75,0.75,0.75,-0.67,-0.48,0.77,116.75,-6.9,10.1
3.48,0.25,0.0,0.0,0.25,0.0,0.0,0.0,0.0,0.25,1.25,0.0,0.0,0.0,-0.8,0.14,0.45,18.99,-1.9,-33.0,0.5,0.0,0.0,1.5,1.75,1.25,0.25,0.0,0.25,0.25,0.75,0.5,0.75,-0.67,-0.42,0.77,115.7,-1.8,8.3
3.5,0.25,0.0,0.75,0.5,0.0,0.0,0.0,0.0,0.0,1.0,0.0,0.0,0.0,-0.8,0.14,0.52,22.4,12.2,9.7,1.0,0.25,0.0,1.25,2.25,1.25,0.25,0.0,0.5,0.5,0.75,0.25,0.75,-0.61,-0.42,0.77,124.82,-2.6,16.6
3.52,0.25,0.0,0.75,0.5,0.0,0.0,0.0,0.0,0.0,0.5,0.0,0.0,0.0,-0.8,0.08,0.52,29.71,19.1,30.7,1.0,0.25,0.0,1.5,1.5,1.25,0.25,0.0,0.25,1.0,0.75,0.25,0.75,-0.67,-0.36,0.77,130.88,-2.3,10.5
3.54,0.25,0.0,0.75,0.25,0.0,0.0,0.0,0.0,0.25,1.0,0.0,0.0,0.0,-0.8,0.14,0.52,35.07,11.7,0.0,0.5,0.25,0.0,1.0,1.75,1.25,0.25,0.0,0.25,0.5,1.0,0.25,0.75,-0.61,-0.42,0.83,131.48,-0.6,6.5
3.56,0.25,0.0,0.0,0.0,0.0,0.0,0.25,0.0,0.0,0.25,0.0,0.0,0.0,-0.8,0.14,0.52,27.2,13.4,12.0,1.0,0.0,0.0,1.25,1.5,1.25,0.25,0.0,0.25,0.5,0.5,0.25,0.75,-0.61,-0.42,0.83,126.63,-2.4,14.2
3.58,0.0,0.0,0.0,0.0,0.0,0.0,0.0,0.0,0.0,0.0,0.0,0.0,0.0,-0.86,0.14,0.52,16.07,0.0,0.0,1.0,0.25,0.0,1.5,2.25,0.75,0.25,0.0,0.25,0.5,0.75,0.25,1.0,-0.61,-0.36,0.77,127.91,-3.7,14.7
3.6,0.0,0.0,0.0,0.0,0.0,0.0,0.0,0.0,0.0,0.0,0.0,0.0,0.0,-0.86,0.14,0.58,4.39,0.0,0.0,0.75,0.25,0.0,1.5,2.25,1.0,0.25,0.0,0.25,0.75,1.0,0.75,0.75,-0.55,-0.42,0.77,134.19,-2.7,5.5
3.62,0.0,0.0,0.0,0.0,0.0,0.0,0.0,0.0,0.0,0.25,0.0,0.0,0.0,-0.92,0.14,0.58,0.0,-15.7,-75.5,0.75,0.25,0.0,1.25,2.25,1.25,0.25,0.0,0.5,0.0,0.75,0.25,1.0,-0.55,-0.42,0.77,137.32,-2.3,15.9
3.64,0.0,0.0,0.0,0.0,0.0,0.0,0.0,0.0,0.0,0.0,0.0,0.0,0.0,-0.86,0.14,0.58,0.0,0.0,0.0,1.25,0.5,0.0,1.5,1.75,1.0,0.25,0.0,0.25,0.5,0.25,0.25,1.0,-0.55,-0.48,0.77,139.58,-4.1,22.5
3.66,0.0,0.0,0.0,0.0,0.0,0.0,0.0,0.0,0.0,0.5,0.0,0.0,0.0,-0.8,0.08,0.58,0.0,-15.7,-75.5,1.0,0.0,0.0,1.25,2.25,1.0,0.25,0.0,0.25,0.5,0.5,0.25,1.0,-0.48,-0.55,0.77,137.69,-2.0,13.9
3.68,0.25,0.0,0.0,0.25,0.0,0.0,0.0,0.0,0.5,1.25,0.0,0.0,0.0,-0.8,0.02,0.58,8.6,-0.4,-33.6,0.75,0.25,0.0,0.75,2.25,1.0,0.25,0.0,0.5,0.25,0.75,0.25,1.0,-0.42,-0.55,0.77,133.58,-1.5,9.9
3.7,0.0,0.0,0.0,0.5,0.0,0.0,0.0,0.25,0.25,0.75,0.0,0.25,0.0,-0.8,0.02,0.58,19.11,-0.8,-36.0,0.75,0.25,0.0,1.25,1.75,0.75,0.25,0.0,0.25,0.5,0.25,0.25,1.0,-0.42,-0.55,0.7,125.12,-2.3,13.5
3.72,0.0,0.0,0.0,0.5,0.0,0.0,0.0,0.0,0.25,1.0,0.0,0.25,0.0,-0.8,0.02,0.58,26.75,-0.7,-40.6,0.5,0.25,0.0,1.5,1.75,1.0,0.25,0.0,0.25,0.25,0.25,0.75,1.0,-0.36,-0.55,0.7,121.74,-2.0,8.1
3.74,0.0,0.0,0.0,0.5,0.0,0.0,0.0,0.0,0.25,0.5,0.0,0.0,0.0,-0.8,0.02,0.58,26.85,3.2,-13.3,0.75,0.25,0.0,0.75,1.75,1.0,0.25,0.0,0.25,0.5,0.75,0.5,1.0,-0.36,-0.55,0.7,118.29,-1.2,1.7
3.76,0.0,0.0,0.0,0.0,0.0,0.0,0.0,0.0,0.0,1.0,0.0,0.0,0.0,-0.8,0.08,0.58,25.27,-15.7,-75.5,0.75,0.0,0.0,1.0,2.25,1.25,0.25,0.0,0.5,0.5,0.5,0.5,0.75,-0.36,-0.61,0.7,121.38,-0.9,9.4
3.78,0.25,0.0,0.0,0.25,0.0,0.0,0.0,0.0,0.0,0.75,0.0,0.0,0.0,-0.86,0.08,0.58,22.82,0.7,-14.9,0.75,0.25,0.0,1.25,1.75,1.75,0.25,0.0,0.25,1.5,0.5,0.5,0.75,-0.36,-0.61,0.7,129.55,1.2,4.0
3.8,0.0,0.0,0.0,0.5,0.0,0.0,0.0,0.0,0.0,1.0,0.0,0.0,0.0,-0.86,0.08,0.52,24.61,-4.3,-29.6,1.0,0.0,0.0,1.25,1.5,1.25,0.25,0.0,0.5,0.25,0.25,0.25,0.75,-0.42,-0.61,0.7,126.34,-3.1,18.5
3.82,0.0,0.0,0.25,0.5,0.0,0.0,0.0,0.0,0.5,1.0,0.0,0.0,0.0,-0.86,0.08,0.52,29.65,4.0,-21.3,0.75,0.25,0.0,1.0,1.5,1.0,0.25,0.0,0.25,0.25,0.75,0.25,1.0,-0.42,-0.61,0.7,120.97,-2.3,8.1
3.84,0.5,0.0,1.0,0.5,0.0,0.0,0.0,0.0,0.0,0.75,0.0,0.0,0.0,-0.8,0.08,0.52,37.78,19.1,29.6,1.0,0.0,0.0,1.25,2.25,1.0,0.25,0.0,0.5,0.5,0.5,0.75,0.75,-0.48,-0.55,0.77,122.95,-3.1,9.2
3.86,0.25,0.0,1.0,0.5,0.0,0.0,0.0,0.0,0.25,0.75,0.0,0.0,0.0,-0.8,0.08,0.52,44.23,17.1,17.8,0.5,0.0,0.0,1.25,1.5,1.0,0.25,0.0,0.25,0.5,0.75,0.25,0.75,-0.42,-0.55,0.77,118.49,-1.4,5.0
3.88,0.25,0.0,0.75,0.25,0.0,0.0,0.0,0.0,0.0,1.0,0.0,0.0,0.0,-0.8,0.08,0.52,45.07,11.6,4.2,1.0,0.0,0.5,1.0,1.5,1.25,0.25,0.0,0.25,0.0,0.5,0.25,0.75,-0.42,-0.55,0.77,116.82,-5.6,22.2
3.9,0.25,0.0,1.0,0.5,0.0,0.0,0.0,0.0,0.25,1.25,0.0,0.0,0.0,-0.8,0.08,0.52,48.56,12.1,3.6,0.75,0.5,0.0,0.75,1.75,1.0,0.0,0.0,0.5,0.25,0.75,0.25,1.0,-0.42,-0.55,0.77,116.19,-1.8,9.3
3.92,0.5,0.0,0.75,0.75,0.0,0.0,0.0,0.0,2.25,1.5,0.0,0.0,0.0,-0.8,0.02,0.58,63.29,10.9,-10.5,0.5,0.5,0.0,1.25,1.75,0.75,0.25,0.0,0.5,0.5,0.75,0.25,1.0,-0.42,-0.55,0.77,119.37,-2.5,6.9
3.94,2.25,0.0,1.5,1.25,0.0,0.0,2.5,3.5,2.0,1.5,0.25,0.5,0.0,-0.86,0.02,0.58,120.42,10.2,0.7,0.75,0.25,0.0,1.25,1.75,1.0,0.25,0.0,0.25,0.0,0.75,0.25,1.0,-0.36,-0.55,0.77,118.86,-3.2,14.3
3.96,2.25,0.0,1.75,1.5,0.0,0.0,2.5,3.25,1.75,1.5,0.5,0.25,0.0,-0.86,0.02,0.58,168.78,11.4,5.0,1.0,0.5,0.0,0.5,1.0,1.0,0.0,0.0,0.25,0.5,0.5,0.25,1.0,-0.42,-0.55,0.77,113.4,-1.7,6.4
3.98,0.25,0.0,1.5,0.5,0.0,0.0,1.5,1.75,0.0,0.75,0.0,0.0,0.0,-0.86,0.08,0.58,169.04,10.5,7.7,0.75,0.25,0.0,0.75,1.5,1.0,0.25,0.0,0.25,0.25,0.5,0.0,1.0,-0.42,-0.55,0.77,107.57,-1.2,13.7
4.0,0.25,0.0,1.0,0.25,0.0,0.0,0.0,0.0,0.25,1.0,0.0,0.0,0.0,-0.86,0.14,0.58,138.14,14.2,5.6,0.5,0.25,0.0,0.75,1.5,0.75,0.25,0.0,0.25,0.5,0.25,0.25,0.75,-0.42,-0.55,0.77,99.14,-0.7,9.7
4.02,0.25,0.0,0.75,0.5,0.0,0.0,0.0,0.0,0.0,1.0,0.0,0.0,0.0,-0.86,0.14,0.58,96.52,12.2,9.7,0.75,0.0,0.0,0.75,1.75,1.25,0.25,0.0,0.25,0.25,0.25,0.5,0.75,-0.42,-0.55,0.77,98.33,-0.5,11.7
4.04,0.25,0.0,1.0,0.25,0.0,0.0,0.0,0.0,0.0,1.0,0.0,0.25,0.0,-0.8,0.14,0.58,64.4,13.9,-0.7,1.0,0.25,0.0,1.25,1.75,1.0,0.0,0.0,0.25,0.5,0.5,0.25,0.75,-0.42,-0.55,0.77,105.29,-2.8,17.7
4.06,0.25,0.0,1.0,0.25,0.0,0.0,0.0,0.0,0.0,1.0,0.0,0.0,0.0,-0.8,0.14,0.58,45.92,14.4,9.9,0.75,0.0,0.0,1.0,1.75,1.0,0.25,0.0,0.25,0.25,0.75,0.5,0.75,-0.42,-0.55,0.77,109.24,-2.5,6.8
4.08,0.25,0.0,1.0,0.25,0.0,0.0,0.0,0.0,0.25,1.25,0.0,0.0,0.0,-0.8,0.08,0.58,43.01,11.7,-1.0,0.5,0.5,0.0,0.75,1.75,0.75,0.25,0.0,0.25,0.75,0.5,0.25,0.75,-0.42,-0.48,0.77,110.68,-0.7,8.8
4.1,0.25,0.0,1.0,0.5,0.0,0.0,0.0,0.0,0.25,1.0,0.0,0.0,0.0,-0.8,0.08,0.58,41.11,14.4,10.1,0.5,0.0,0.0,1.25,1.5,1.25,0.25,0.0,0.25,0.5,1.0,0.25,0.75,-0.36,-0.48,0.77,113.42,-0.9,3.3
4.12,0.25,0.0,1.0,0.5,0.0,0.0,0.0,0.0,0.0,1.0,0.0,0.0,0.0,-0.8,0.02,0.58,36.44,14.6,14.5,1.0,0.0,0.0,1.25,1.25,1.25,0.25,0.0,0.5,1.5,0.5,0.25,0.75,-0.36,-0.48,0.77,118.46,-0.7,0.8
4.14,0.25,0.0,0.5,0.5,0.0,0.0,0.0,0.0,0.25,1.0,0.0,0.0,0.0,-0.8,0.02,0.58,29.15,9.6,-0.1,0.75,0.25,0.0,1.25,1.75,0.5,0.25,0.0,0.25,0.5,0.5,0.25,0.75,-0.36,-0.48,0.77,117.5,-4.0,14.2
4.16,0.25,0.0,1.0,0.5,0.0,0.0,0.0,0.0,0.25,1.0,0.0,0.0,0.0,-0.8,0.02,0.58,26.22,14.4,10.1,1.0,0.0,0.0,0.75,1.25,1.25,0.25,0.0,0.25,0.75,0.75,0.25,1.0,-0.42,-0.48,0.77,117.97,-0.7,-0.4
4.18,0.25,0.0,0.75,0.5,0.0,0.0,0.0,0.0,0.0,1.0,0.0,0.0,0.0,-0.8,0.08,0.58,23.01,12.2,9.7,0.5,0.25,0.0,1.0,2.25,0.75,0.0,0.0,0.5,0.25,0.75,0.25,0.75,-0.42,-0.48,0.77,118.39,-1.8,11.9
4.2,0.25,0.0,1.0,0.5,0.0,0.0,0.0,0.0,0.25,0.75,0.0,0.0,0.0,-0.8,0.08,0.58,31.99,17.1,17.8,0.5,0.25,0.0,1.0,2.25,0.75,0.25,0.0,0.25,0.0,0.75,0.25,0.75,-0.42,-0.48,0.77,117.7,-2.6,16.9
4.22,0.25,0.0,1.0,0.25,0.0,0.0,0.0,0.0,0.25,1.0,0.0,0.0,0.0,-0.8,0.08,0.58,41.85,14.2,5.6,0.5,0.0,0.0,1.0,1.75,1.25,0.25,0.0,0.0,0.5,0.25,0.25,0.75,-0.42,-0.48,0.77,112.78,1.3,13.6
4.24,0.25,0.0,1.0,0.5,0.0,0.0,0.0,0.0,0.25,0.75,0.0,0.0,0.0,-0.8,0.08,0.58,45.32,17.1,17.8,0.75,0.0,0.0,1.25,1.5,1.0,0.25,0.0,0.5,0.5,0.25,0.25,0.75,-0.42,-0.48,0.83,111.01,-2.2,12.1
4.26,0.0,0.0,0.75,0.5,0.0,0.0,0.0,0.0,0.25,1.0,0.0,0.0,0.0,-0.8,0.14,0.58,43.57,10.1,-3.0,1.0,0.25,0.0,0.75,1.75,0.75,0.25,0.0,0.5,0.75,0.75,0.25,0.75,-0.48,-0.48,0.83,112.37,-3.0,7.1
4.28,0.0,0.0,1.0,0.5,0.0,0.0,0.0,0.0,0.25,1.0,0.0,0.0,0.0,-0.8,0.08,0.58,43.65,12.7,2.8,0.75,0.25,0.0,0.75,1.75,1.0,0.25,0.0,0.25,1.0,0.5,0.5,0.75,-0.48,-0.48,0.83,114.85,-0.4,2.8
4.3,0.0,0.0,1.0,0.5,0.0,0.0,0.0,0.0,0.25,0.75,0.0,0.0,0.0,-0.8,0.08,0.58,42.41,15.5,10.5,0.5,0.0,0.0,0.5,1.5,1.25,0.25,0.0,0.25,0.0,0.75,0.25,0.75,-0.48,-0.48,0.83,109.35,0.1,5.9
4.32,0.0,0.0,1.0,0.5,0.0,0.0,0.0,0.0,0.25,1.0,0.0,0.0,0.0,-0.8,0.08,0.58,42.77,12.7,2.8,0.5,0.25,0.0,0.5,1.75,1.25,0.25,0.0,0.25,0.0,0.75,0.25,0.75,-0.42,-0.48,0.83,105.76,-0.1,11.7
4.34,0.25,0.0,1.25,0.25,0.0,0.0,0.0,0.0,0.25,1.5,0.0,0.0,0.0,-0.8,0.08,0.58,47.18,11.7,-1.7,0.5,0.25,0.0,0.75,1.75,1.0,0.25,0.0,0.25,0.5,0.5,0.25,0.75,-0.48,-0.48,0.83,102.48,-0.1,9.4
4.36,0.25,0.0,1.0,0.25,0.0,0.0,0.0,0.75,0.25,1.0,0.0,0.0,0.0,-0.8,0.08,0.64,51.73,7.6,-3.7,1.0,0.25,0.0,1.0,1.5,0.5,0.0,0.0,0.25,0.25,0.25,0.25,0.75,-0.42,-0.48,0.83,99.68,-4.9,20.5
4.38,0.25,0.0,1.0,0.25,0.0,0.0,0.0,1.0,0.25,1.0,0.0,0.0,0.0,-0.8,0.02,0.64,56.47,5.9,-6.1,0.75,0.0,0.0,0.75,1.75,0.75,0.25,0.0,0.25,0.5,0.25,0.25,0.75,-0.42,-0.48,0.83,99.03,-1.3,11.3
4.4,0.0,0.0,0.75,0.5,0.0,0.0,0.0,1.5,0.0,1.0,0.0,0.0,0.0,-0.8,0.02,0.64,58.95,-0.6,-14.8,0.75,0.0,0.0,1.0,1.5,0.75,0.25,0.0,0.5,0.5,0.75,0.25,0.75,-0.42,-0.48,0.83,101.35,-3.1,3.6
4.42,0.0,0.0,0.75,0.5,0.0,0.0,0.0,1.25,0.0,1.0,0.0,0.0,0.0,-0.8,0.08,0.58,59.74,0.5,-13.1,0.25,0.5,0.0,0.5,2.25,1.0,0.0,0.0,0.25,1.0,0.75,0.25,1.0,-0.36,-0.48,0.83,108.49,2.8,-0.5
4.44,0.0,0.0,0.5,0.5,0.0,0.0,0.0,0.5,0.25,1.0,0.0,0.0,0.0,-0.8,0.08,0.58,54.72,2.7,-15.3,0.75,0.25,0.0,1.0,1.75,0.5,0.0,0.0,0.25,0.5,0.25,0.25,0.75,-0.36,-0.42,0.77,108.48,-2.7,15.5
4.46,0.0,0.0,0.0,0.5,0.0,0.0,0.0,0.0,0.0,1.0,0.0,0.0,0.0,-0.8,0.08,0.58,43.44,-4.3,-29.6,0.5,0.0,0.0,0.75,1.75,0.75,0.25,0.0,0.25,1.0,0.25,0.5,1.0,-0.36,-0.42,0.77,109.81,1.2,-6.1
4.48,0.0,0.0,0.0,0.5,0.0,0.0,0.0,0.0,0.0,1.0,0.0,0.0,0.0,-0.8,0.08,0.58,33.01,-4.3,-29.6,0.5,0.0,0.0,0.75,1.25,1.25,0.0,0.0,0.25,0.25,0.25,0.25,0.75,-0.3,-0.42,0.77,101.36,1.5,8.8
4.5,0.0,0.0,0.75,0.0,0.0,0.0,0.25,0.0,0.0,0.25,0.0,0.0,0.0,-0.8,0.08,0.58,23.4,25.8,27.5,0.75,0.0,0.0,0.75,1.75,1.0,0.25,0.0,0.5,0.25,0.5,0.25,0.75,-0.3,-0.42,0.77,101.05,-1.8,10.4
4.52,0.0,0.0,0.0,0.0,0.0,0.0,0.0,0.0,0.0,0.0,0.0,0.0,0.0,-0.8,0.08,0.58,10.8,0.0,0.0,0.5,0.0,0.0,0.75,1.25,0.75,0.25,0.0,0.0,0.25,0.25,0.25,0.75,-0.3,-0.42,0.77,92.04,-0.6,9.2
4.54,0.0,0.0,0.0,0.0,0.0,0.0,0.0,0.0,0.0,0.25,0.0,0.0,0.0,-0.8,0.08,0.58,2.72,-15.7,-75.5,0.25,0.25,0.0,0.5,1.5,0.5,0.0,0.0,0.5,0.5,0.25,0.5,0.75,-0.36,-0.42,0.77,90.31,0.2,-4.6
4.56,0.0,0.0,0.0,0.0,0.0,0.0,0.0,0.0,0.0,0.25,0.0,0.0,0.0,-0.86,0.08,0.58,0.0,-15.7,-75.5,0.25,0.0,0.0,1.0,1.5,1.0,0.25,0.0,0.25,0.25,0.5,0.5,0.75,-0.36,-0.42,0.77,88.96,-0.1,1.1
4.58,0.0,0.0,0.0,0.0,0.0,0.0,0.0,0.0,0.0,0.25,0.0,0.0,0.0,-0.86,0.08,0.58,0.0,-15.7,-75.5,0.5,0.0,0.0,0.5,1.75,1.0,0.25,0.0,0.5,0.5,0.25,0.25,0.75,-0.36,-0.42,0.77,91.74,1.0,5.1
4.6,0.0,0.0,0.0,0.0,0.0,0.0,0.0,0.0,0.0,0.25,0.0,0.0,0.0,-0.86,0.08,0.58,0.0,-15.7,-75.5,0.75,0.0,0.0,1.25,1.75,0.5,0.25,0.0,0.25,0.0,0.75,0.75,0.75,-0.42,-0.42,0.83,98.2,-5.6,5.7
4.62,0.0,0.0,0.0,0.0,0.0,0.0,0.0,0.0,0.0,0.25,0.0,0.0,0.0,-0.8,0.08,0.58,0.0,-15.7,-75.5,0.5,0.0,0.0,1.25,1.75,0.75,0.25,0.0,0.25,0.25,0.5,0.25,0.75,-0.42,-0.48,0.83,101.5,-2.3,12.1
4.64,0.0,0.0,0.0,0.0,0.0,0.0,0.0,0.0,0.0,0.0,0.0,0.0,0.0,-0.8,0.08,0.58,0.0,0.0,0.0,0.5,0.0,0.0,0.75,1.5,1.0,0.0,0.0,0.5,0.5,0.25,0.25,0.75,-0.42,-0.48,0.83,100.9,0.8,4.6
4.66,0.0,0.0,0.0,0.0,0.0,0.0,0.0,0.0,0.0,0.0,0.0,0.0,0.0,-0.8,0.02,0.58,0.0,0.0,0.0,0.5,0.25,0.0,1.0,1.5,1.0,0.25,0.0,0.25,0.75,0.75,0.25,0.75,-0.42,-0.48,0.83,104.22,-0.6,3.7
4.68,0.0,0.0,0.0,0.0,0.0,0.0,0.0,0.0,0.0,0.25,0.0,0.0,0.0,-0.8,0.02,0.58,0.0,-15.7,-75.5,0.75,0.0,0.0,0.75,1.5,0.75,0.25,0.0,0.0,0.25,0.25,0.5,0.75,-0.42,-0.55,0.89,101.52,-2.1,9.9
4.7,0.0,0.0,0.0,0.0,0.0,0.0,0.0,0.0,0.0,0.25,0.0,0.0,0.0,-0.8,0.08,0.58,0.0,-15.7,-75.5,1.0,0.0,0.0,1.0,1.5,1.25,0.25,0.0,0.25,0.5,0.25,0.25,0.75,-0.48,-0.48,0.83,105.11,-1.5,15.7
4.72,0.0,0.0,0.0,0.0,0.0,0.0,0.0,0.0,0.0,0.5,0.0,0.0,0.0,-0.8,0.08,0.58,3.25,-15.7,-75.5,0.25,0.0,0.0,0.5,1.5,1.0,0.0,0.0,0.5,0.5,0.25,0.25,0.75,-0.42,-0.48,0.83,99.94,3.1,-1.5
4.74,0.0,0.0,0.0,0.5,0.0,0.0,0.0,0.0,0.0,1.0,0.0,0.0,0.0,-0.8,0.02,0.58,11.63,-4.3,-29.6,0.75,0.0,0.0,0.75,1.25,1.0,0.25,0.0,0.5,0.5,0.25,0.5,0.75,-0.42,-0.48,0.83,100.36,-1.5,1.9
4.76,0.0,0.0,0.25,0.5,0.0,0.0,0.0,0.0,0.0,1.0,0.0,0.0,0.0,-0.8,0.02,0.58,20.52,1.7,-16.5,0.5,0.0,0.0,0.75,1.5,1.25,0.25,0.0,0.25,0.5,0.5,0.5,0.75,-0.42,-0.48,0.83,100.86,0.7,0.6
4.78,0.0,0.0,0.25,0.5,0.0,0.0,0.0,0.0,0.0,1.0,0.0,0.0,0.0,-0.86,0.08,0.58,26.69,1.7,-16.5,0.5,0.0,0.0,1.25,1.5,0.5,0.25,0.0,0.25,0.0,0.75,0.75,0.75,-0.42,-0.48,0.83,101.68,-5.0,0.4
4.8,0.0,0.0,0.25,0.5,0.0,0.0,0.0,0.0,0.0,1.0,0.0,0.0,0.0,-0.86,0.08,0.58,30.56,1.7,-16.5,0.5,0.0,0.0,0.75,1.5,0.75,0.25,0.0,0.25,0.5,0.5,0.25,0.75,-0.42,-0.42,0.83,98.82,-0.6,2.5
4.82,0.0,0.0,0.5,0.25,0.0,0.0,0.0,0.0,0.0,1.0,0.0,0.0,0.0,-0.8,0.08,0.58,32.39,4.7,-16.3,0.5,0.0,0.0,1.0,1.75,0.5,0.0,0.0,0.5,0.75,0.25,0.0,0.75,-0.42,-0.42,0.83,97.96,-0.5,8.3
4.84,0.0,0.0,0.75,0.5,0.0,0.0,0.0,0.0,0.0,1.0,0.0,0.0,0.0,-0.8,0.08,0.58,35.91,9.9,0.8,1.0,0.0,0.0,0.75,2.25,0.75,0.25,0.0,0.25,0.25,0.25,0.5,0.75,-0.36,-0.42,0.83,101.78,-2.9,16.4
4.86,0.0,0.0,0.75,0.5,0.0,0.0,0.0,0.0,0.0,1.0,0.0,0.0,0.0,-0.8,0.08,0.58,38.88,9.9,0.8,0.5,0.25,0.0,1.25,1.75,1.0,0.0,0.0,0.5,0.0,0.0,0.25,0.75,-0.42,-0.42,0.83,103.73,-1.7,24.0
4.88,0.0,0.0,0.75,0.5,0.0,0.0,0.0,0.25,0.0,1.0,0.0,0.0,0.0,-0.8,0.08,0.58,42.83,7.3,-3.0,0.5,0.0,0.0,0.75,1.75,1.25,0.0,0.0,0.25,0.25,0.25,0.25,0.75,-0.42,-0.42,0.83,103.57,1.6,13.0
4.9,0.0,0.0,0.5,0.25,0.0,0.0,0.0,0.0,0.25,1.0,0.0,0.0,0.0,-0.8,0.08,0.58,41.59,5.6,-19.0,1.0,0.0,0.0,0.75,1.75,1.0,0.0,0.0,0.25,0.5,0.25,0.25,0.75,-0.42,-0.42,0.83,103.85,-1.0,14.8
4.92,0.25,0.0,1.0,0.5,0.0,0.0,0.0,0.0,0.0,1.0,0.0,0.0,0.0,-0.8,0.08,0.58,44.38,14.6,14.5,0.5,0.0,0.0,1.0,1.75,1.0,0.0,0.0,0.25,0.5,0.5,0.75,0.75,-0.36,-0.42,0.83,106.83,-0.3,-0.4
4.94,0.25,0.0,1.25,0.5,0.0,0.0,0.0,0.0,0.0,1.0,0.0,0.0,0.0,-0.8,0.02,0.58,47.39,16.6,18.4,0.5,0.0,0.0,0.5,1.25,0.75,0.25,0.0,0.25,0.25,0.25,0.75,0.75,-0.36,-0.42,0.83,99.75,-1.0,-5.8
4.96,0.0,0.0,1.0,0.5,0.0,0.0,0.0,0.0,0.0,1.0,0.0,0.0,0.0,-0.8,0.02,0.58,47.77,12.8,6.8,0.5,0.0,0.0,0.5,2.25,0.75,0.0,0.0,0.25,0.5,0.25,0.25,0.75,-0.36,-0.42,0.83,99.3,1.5,9.7
4.98,0.0,0.0,0.25,0.25,0.0,0.0,0.0,0.0,0.0,1.0,0.0,0.0,0.0,-0.8,0.08,0.58,40.53,-0.8,-29.4,0.5,0.0,0.0,0.75,1.75,0.25,0.25,0.0,0.25,0.0,0.0,0.5,0.75,-0.36,-0.42,0.77,90.83,-3.5,12.0
5.0,0.0,0.0,1.0,0.5,0.0,0.0,0.0,0.0,0.0,1.0,0.0,0.0,0.0,-0.8,0.08,0.58,39.65,12.8,6.8,0.25,0.0,0.0,1.0,2.25,1.0,0.25,0.0,0.25,0.25,0.25,0.75,0.75,-0.36,-0.42,0.77,96.16,0.3,6.2
5.02,0.0,0.0,1.0,0.5,0.0,0.0,0.0,0.25,0.25,1.0,0.0,0.0,0.0,-0.8,0.08,0.58,41.4,10.3,-0.5,0.5,0.25,0.0,0.5,1.5,0.5,0.0,0.0,0.25,0.25,0.25,0.25,0.75,-0.36,-0.42,0.83,90.84,-1.0,9.9
5.04,0.0,0.0,1.25,0.5,0.0,0.0,0.0,0.0,0.25,1.0,0.0,0.0,0.0,-0.8,0.08,0.58,45.57,14.9,7.7,0.5,0.25,0.0,0.5,2.25,1.0,0.25,0.0,0.25,0.25,0.25,0.25,0.75,-0.36,-0.42,0.83,96.9,0.6,17.6
5.06,0.0,0.0,1.25,0.25,0.0,0.0,0.0,0.0,0.25,1.0,0.0,0.0,0.0,-0.8,0.08,0.58,47.36,14.6,3.0,0.5,0.0,0.0,0.5,1.5,1.0,0.25,0.0,0.25,0.5,0.25,0.25,0.75,-0.42,-0.42,0.83,93.02,1.5,4.6
5.08,0.0,0.0,1.0,0.25,0.0,0.0,0.0,0.0,0.25,1.0,0.0,0.0,0.0,-0.8,0.08,0.58,46.3,12.3,-2.8,0.5,0.0,0.0,1.25,2.25,0.5,0.25,0.0,0.25,0.5,0.25,0.25,0.75,-0.42,-0.42,0.83,99.04,-1.8,14.6
