time,left pressure 0[N/cm虏],left pressure 1[N/cm虏],left pressure 2[N/cm虏],left pressure 3[N/cm虏],left pressure 4[N/cm虏],left pressure 5[N/cm虏],left pressure 6[N/cm虏],left pressure 7[N/cm虏],left pressure 8[N/cm虏],left pressure 9[N/cm虏],left pressure 10[N/cm虏],left pressure 11[N/cm虏],left pressure 12[N/cm虏],left acceleration X[g],left acceleration Y[g],left acceleration Z[g],left total force[N],left center of pressure X[mm],left center of pressure Y[mm],right pressure 0[N/cm虏],right pressure 1[N/cm虏],right pressure 2[N/cm虏],right pressure 3[N/cm虏],right pressure 4[N/cm虏],right pressure 5[N/cm虏],right pressure 6[N/cm虏],right pressure 7[N/cm虏],right pressure 8[N/cm虏],right pressure 9[N/cm虏],right pressure 10[N/cm虏],right pressure 11[N/cm虏],right pressure 12[N/cm虏],right acceleration X[g],right acceleration Y[g],right acceleration Z[g],right total force[N],right center of pressure X[mm],right center of pressure Y[mm]
0.02,0.25,1.0,3.75,5.25,4.75,2.25,1.0,6.25,3.5,4.25,3.25,2.0,2.0,-0.17,0.02,0.95,578.07,2.6,-8.0,1.25,0.5,0.0,0.75,3.0,1.0,0.75,2.0,0.0,1.5,1.0,0.25,1.0,0.2,0.02,0.83,180.66,1.4,2.6
0.04,0.5,0.75,4.0,6.5,5.0,2.25,1.0,6.25,3.25,4.25,2.5,2.0,2.0,-0.17,0.02,0.95,569.36,3.2,-3.7,1.5,0.0,0.25,0.5,3.0,1.0,0.75,1.75,0.0,1.75,1.5,0.25,1.5,0.2,0.08,0.89,203.39,0.9,-6.9
0.06,0.25,1.25,3.75,6.25,0.0,2.25,1.0,6.0,3.0,2.75,2.0,2.0,1.75,-0.17,0.08,0.95,513.65,4.9,-8.3,1.0,0.0,0.0,0.5,3.0,1.0,0.75,2.0,0.0,1.75,1.5,0.5,1.25,0.27,0.14,1.02,211.16,2.9,-12.5
0.08,0.75,1.5,3.75,6.5,5.0,2.75,0.75,5.75,2.25,2.75,1.5,1.75,1.75,-0.17,0.08,0.95,501.56,3.6,6.5,1.75,0.0,0.0,0.5,3.0,1.0,0.5,2.0,0.0,1.75,1.0,0.5,1.25,0.33,0.27,1.2,212.38,1.7,-4.8
0.1,1.25,1.5,4.0,7.25,0.0,2.5,0.75,5.5,1.5,2.5,1.25,1.25,1.5,-0.17,0.08,0.95,448.88,6.3,6.2,1.25,0.0,0.0,0.5,3.0,1.0,0.75,2.0,0.0,1.75,1.0,0.25,1.0,0.33,0.39,1.33,207.3,2.7,-4.0
0.12,1.75,2.0,4.0,8.0,5.5,3.25,0.5,5.5,1.5,2.5,0.75,1.25,1.25,-0.17,0.08,0.95,470.57,4.9,19.7,1.5,0.0,0.0,0.5,3.0,1.0,0.75,1.75,0.0,1.75,1.0,0.25,1.25,0.39,0.89,1.52,203.44,1.9,-3.6
0.14,2.25,2.0,5.25,9.25,7.25,3.5,0.5,5.5,1.0,2.5,0.5,1.0,1.25,-0.17,0.08,0.95,517.92,5.9,26.5,2.0,0.0,0.0,0.5,3.0,1.0,0.75,1.5,0.0,1.75,1.0,0.25,1.25,0.39,1.2,1.58,199.12,0.3,0.6
0.16,2.25,3.5,5.5,9.25,7.0,3.75,0.5,5.25,1.0,2.25,0.0,1.0,1.0,-0.17,0.08,0.95,590.9,6.5,32.1,2.0,0.0,0.0,1.25,3.0,1.0,0.5,1.25,0.0,1.5,1.0,0.5,1.0,0.14,1.89,2.02,196.79,-1.4,6.1
0.18,3.0,3.5,5.5,10.0,8.25,4.25,0.25,4.75,0.75,2.0,0.0,1.0,1.0,-0.17,0.14,0.95,656.99,6.8,36.0,1.25,0.25,0.0,0.5,3.0,0.25,0.75,1.25,0.0,0.0,1.0,0.0,1.0,-0.36,2.52,1.83,178.34,-2.5,15.0
0.2,3.5,3.75,6.0,10.5,8.5,4.75,0.25,4.75,0.5,1.5,0.0,1.0,0.75,-0.23,0.14,1.02,720.51,7.5,39.9,1.0,0.0,0.0,0.0,0.0,0.5,0.0,0.75,0.0,0.0,0.0,0.0,0.25,-0.8,3.08,1.14,125.43,-2.3,20.7
0.22,4.25,4.75,6.0,10.5,0.0,4.5,0.25,4.0,0.5,1.25,0.0,1.0,0.75,-0.23,0.14,1.08,696.73,11.8,41.4,1.25,0.25,0.0,0.5,0.25,0.75,0.75,1.25,0.0,1.5,1.0,0.25,1.0,-1.17,3.77,0.83,102.27,-0.1,-18.7
0.24,5.0,4.75,6.5,11.0,0.0,4.5,0.25,3.75,0.5,1.0,0.0,1.0,0.75,-0.3,0.2,1.14,667.47,13.0,44.2,1.25,0.25,0.0,0.5,2.5,1.0,0.5,1.75,0.0,1.75,1.0,0.25,1.0,-2.73,6.77,1.89,109.24,2.4,-4.2
0.26,5.5,5.0,6.0,11.0,0.0,3.75,0.25,3.75,0.0,1.0,0.0,1.0,0.75,-0.3,0.2,1.14,625.34,13.6,46.2,1.25,0.75,0.0,0.5,1.5,0.75,0.5,1.75,0.0,1.75,1.0,0.75,1.25,-1.55,3.89,0.02,130.92,1.0,-13.0
0.28,5.75,5.5,6.5,11.0,0.0,2.5,0.0,3.5,0.25,1.0,0.0,1.0,0.75,-0.23,0.2,1.08,607.27,15.3,47.9,0.5,0.0,0.0,0.0,0.0,0.25,0.0,0.75,0.0,5.75,1.5,4.25,5.25,0.02,-0.8,1.08,190.19,6.1,-86.2
0.3,6.0,5.5,7.25,10.5,0.0,2.5,0.0,3.0,0.25,1.0,0.0,1.0,0.75,-0.3,0.27,1.14,596.36,16.3,49.5,0.5,0.0,0.0,0.0,0.0,1.0,0.5,2.5,0.25,7.75,5.75,5.75,7.5,-0.3,0.45,1.2,289.1,4.9,-80.3
0.32,6.0,4.75,6.5,10.5,0.0,0.0,0.25,3.0,0.5,0.75,0.0,1.0,0.75,-0.3,0.33,1.2,561.73,18.9,49.4,0.25,0.0,0.0,0.0,2.25,0.75,0.5,4.0,0.75,8.5,7.25,6.0,7.75,0.27,0.77,2.77,415.7,4.7,-70.9
0.34,5.5,4.75,5.5,8.25,0.0,0.0,0.25,2.0,0.25,1.0,0.0,0.5,0.0,-0.36,0.39,1.52,495.78,20.1,57.4,0.0,0.0,0.0,0.0,0.5,3.25,0.0,5.75,1.5,8.5,8.0,6.25,7.75,-0.05,0.14,1.14,564.71,6.1,-70.9
0.36,2.75,0.0,2.75,6.5,0.0,0.0,0.0,0.0,0.5,0.75,0.0,0.0,0.5,-0.67,0.52,1.77,350.42,21.6,49.1,1.0,0.0,0.0,0.5,0.5,3.5,0.0,6.5,1.5,9.75,8.5,6.5,7.75,0.14,0.14,1.02,700.17,5.3,-65.3
0.38,1.0,0.0,2.0,3.75,0.0,0.0,0.0,0.0,0.5,0.0,0.5,0.0,0.5,-0.86,1.27,2.7,233.54,21.7,39.5,2.25,0.75,0.0,1.25,3.25,3.5,1.0,7.5,2.25,10.5,9.75,6.5,8.5,0.14,0.14,1.02,852.12,3.3,-50.6
0.4,0.0,0.0,1.0,2.5,0.0,0.0,0.0,0.0,0.0,0.5,0.0,0.0,0.0,-0.73,1.39,2.64,109.89,18.4,42.5,2.0,0.75,1.75,1.25,3.5,3.5,1.25,8.0,2.75,10.5,10.0,7.0,8.5,0.14,0.08,0.95,987.94,2.0,-47.6
0.42,0.0,0.0,0.0,1.0,0.0,0.0,0.0,0.0,0.0,0.25,0.0,0.0,0.0,-0.67,0.39,2.33,1.0,10.8,32.1,2.0,0.75,0.75,2.0,4.5,3.5,1.25,8.25,2.75,10.5,10.0,6.5,8.5,0.14,0.08,0.95,1097.48,2.6,-45.6
0.44,0.0,0.0,0.0,1.75,0.0,0.0,0.0,0.0,0.0,1.0,0.0,0.5,0.0,-0.86,-0.17,1.95,0.0,6.0,-7.1,2.5,0.75,2.0,2.0,3.75,3.5,1.25,8.25,2.75,9.75,9.75,6.5,8.25,0.2,0.08,0.95,1149.03,1.3,-42.9
0.46,0.0,0.0,0.0,2.5,0.0,0.0,5.0,5.75,0.25,1.0,0.0,0.5,0.0,-0.73,-1.05,2.7,0.0,1.4,-11.6,2.5,0.75,2.0,2.0,3.75,3.5,1.25,8.25,2.75,9.25,9.5,6.0,8.0,0.2,0.08,0.95,1134.98,1.2,-41.6
0.48,0.0,0.0,0.0,2.75,0.0,0.0,0.0,1.75,1.5,1.25,0.0,0.25,0.75,-0.3,-0.92,1.83,2.44,1.2,-19.6,2.5,0.75,2.75,2.25,3.75,4.0,1.0,8.25,2.75,8.5,8.5,5.5,7.75,0.2,0.08,0.95,1085.84,0.9,-37.5
0.5,0.0,0.0,0.0,2.5,0.0,0.0,0.25,1.75,0.25,0.75,0.0,0.75,0.5,-0.55,-0.55,0.45,21.03,1.5,-17.4,2.5,0.75,2.75,2.25,4.5,4.5,1.25,8.0,2.75,8.25,8.0,5.25,7.0,0.2,0.08,0.95,1024.42,0.9,-33.6
0.52,0.0,0.0,0.0,2.5,0.0,0.0,3.5,0.0,0.25,0.75,0.0,0.5,0.75,-0.48,-0.42,0.39,27.32,12.8,-1.2,2.5,1.0,2.75,3.25,5.5,4.5,1.5,7.75,2.5,7.75,7.75,4.25,6.0,0.2,0.08,0.95,951.62,0.3,-26.1
0.54,0.0,0.0,0.0,2.0,0.0,0.0,0.0,0.0,1.25,1.5,0.0,1.25,0.5,-0.42,-0.42,0.64,36.61,4.7,-35.3,3.0,1.25,2.75,3.25,6.0,5.25,1.5,7.5,2.25,7.25,7.0,3.5,5.75,0.2,0.08,0.95,891.95,0.3,-20.2
0.56,0.0,0.0,0.0,2.0,0.0,0.0,1.25,0.0,0.0,0.75,0.0,0.5,0.75,-0.42,-0.3,0.83,40.44,7.9,-12.3,3.0,1.5,2.75,3.25,6.0,5.5,1.25,7.5,2.0,6.5,6.0,3.0,5.0,0.2,0.14,0.95,837.35,0.4,-15.5
0.58,0.0,0.0,0.0,2.0,0.0,0.0,0.25,0.0,0.25,0.75,0.0,0.75,0.5,-0.48,-0.11,0.83,52.34,6.8,-17.8,3.75,1.25,3.25,4.25,6.0,5.5,1.75,7.5,2.0,6.5,5.25,2.5,4.0,0.2,0.14,0.95,801.64,-0.8,-8.7
0.6,0.0,0.0,0.0,1.75,0.0,0.0,0.0,0.0,0.0,0.75,0.0,0.75,0.0,-0.48,0.02,0.89,59.44,7.9,-9.7,3.75,1.5,5.0,5.5,6.75,5.75,1.75,7.0,1.5,5.75,4.25,1.5,3.75,0.2,0.14,0.95,782.7,-2.4,2.0
0.62,0.0,0.0,0.0,1.25,0.0,0.0,0.0,0.0,0.0,0.75,0.0,0.5,0.0,-0.48,0.08,1.08,51.74,5.9,-13.8,4.75,2.25,5.5,6.75,7.5,6.0,1.75,6.75,1.5,4.75,3.5,1.25,3.0,0.2,0.14,0.95,792.87,-4.1,12.4
0.64,0.0,0.0,0.0,1.25,0.0,0.0,0.25,0.0,0.0,0.75,0.0,0.75,0.0,-0.48,0.2,1.27,44.41,7.2,-20.3,5.25,2.25,7.0,7.5,7.75,6.25,1.75,6.5,1.25,3.75,2.75,1.25,2.5,0.2,0.14,0.95,823.15,-5.8,19.7
0.66,0.0,0.0,0.0,1.25,0.0,0.0,0.0,0.0,0.0,0.75,0.0,0.75,0.0,-0.55,0.33,1.52,37.14,6.1,-22.3,5.75,2.5,8.0,9.0,8.0,6.5,1.75,5.75,0.75,3.25,2.25,1.25,2.25,0.2,0.14,0.95,869.62,-7.2,26.2
0.68,0.0,0.0,0.0,1.25,0.0,0.0,0.0,0.0,0.0,0.75,0.0,0.75,0.0,-0.67,0.45,1.89,29.43,6.1,-22.3,7.0,3.25,8.75,11.0,8.75,6.25,1.75,5.25,0.75,3.0,2.0,0.75,2.25,0.2,0.14,1.02,940.94,-8.8,32.8
0.7,0.0,0.0,0.0,0.75,0.0,0.0,0.0,0.0,0.0,0.75,0.0,0.75,0.0,-0.86,1.02,2.33,22.03,3.6,-40.7,7.5,3.75,9.25,11.0,9.0,6.0,1.5,4.25,0.25,1.75,1.75,0.75,1.75,0.2,0.2,1.02,989.54,-10.4,40.0
0.72,0.0,0.0,0.0,0.0,0.0,0.0,0.25,0.0,0.0,0.0,0.0,0.0,0.0,-0.86,1.58,2.2,13.72,32.4,27.3,7.0,3.0,10.5,9.25,9.25,5.0,1.25,3.75,0.0,0.75,1.5,0.25,1.75,0.14,0.2,1.14,986.82,-11.8,43.9
0.74,0.0,0.0,0.0,0.25,0.0,0.0,0.0,0.0,0.0,0.0,0.0,0.0,0.0,-0.73,2.45,2.14,3.67,17.2,57.9,7.5,2.75,9.5,11.0,8.75,4.0,0.25,2.5,0.0,0.0,0.25,0.0,1.0,0.14,0.2,1.14,931.36,-13.9,54.6
0.76,0.0,0.0,0.0,0.5,0.0,0.0,0.0,0.0,0.0,0.0,0.0,0.0,0.0,-0.55,3.33,1.7,0.0,17.2,57.9,8.25,3.75,10.5,10.5,8.5,3.5,0.75,2.25,0.0,0.25,0.0,0.0,1.0,0.14,0.27,1.14,887.53,-15.2,56.7
0.78,0.0,0.0,0.0,1.0,0.0,0.0,0.0,0.0,0.0,0.75,0.0,0.75,0.0,-0.11,4.08,1.14,6.2,5.0,-30.6,8.25,3.75,10.5,9.75,8.0,2.75,0.25,1.75,0.0,0.25,0.25,0.0,0.75,0.08,0.27,1.14,832.67,-16.4,58.5
0.8,0.0,0.0,0.5,0.5,0.0,0.0,0.0,1.75,0.0,0.0,0.0,0.0,0.0,0.89,5.89,-0.36,20.0,-0.2,-2.1,8.25,3.0,10.5,9.25,7.75,2.0,0.25,1.0,0.0,0.25,0.25,0.0,0.75,0.08,0.33,1.14,779.77,-17.7,59.8
0.82,0.0,0.0,0.0,0.5,0.0,0.0,0.0,1.5,0.0,0.75,0.0,0.25,0.0,1.27,5.64,0.27,34.03,-8.5,-36.9,8.0,3.25,10.5,9.0,7.75,1.5,0.25,0.75,0.0,0.25,0.5,0.0,0.5,0.14,0.39,1.33,728.76,-18.4,61.0
0.84,0.0,0.0,0.5,0.0,0.0,0.0,0.0,0.0,0.0,1.75,0.0,2.25,0.75,0.08,-0.05,1.08,58.18,0.2,-81.7,7.5,2.5,9.25,7.25,6.0,1.25,0.25,0.75,0.0,0.0,0.0,0.0,1.25,0.33,0.45,1.52,643.59,-18.8,59.6
0.86,0.0,0.0,0.0,0.0,0.0,0.0,0.0,0.0,0.75,5.5,0.0,0.0,0.0,0.2,0.33,1.7,81.27,-12.3,-71.1,6.25,0.75,8.0,4.25,4.5,1.0,0.75,0.75,0.0,0.0,0.0,0.0,0.5,0.39,0.83,2.14,510.68,-20.6,60.6
0.88,0.0,0.0,0.0,0.0,0.0,0.0,0.0,4.5,0.75,5.75,4.0,0.0,5.75,-0.42,0.95,3.52,175.91,-9.4,-76.0,3.0,0.0,5.25,2.0,1.75,1.0,0.5,0.75,0.0,0.0,0.0,0.0,0.25,0.39,1.64,2.95,342.36,-20.9,56.1
0.9,0.0,0.0,0.0,0.0,0.0,0.0,0.0,4.75,0.0,6.5,0.0,4.25,5.5,-0.23,0.2,1.2,251.12,-10.4,-83.3,2.25,0.25,2.75,0.5,1.0,1.0,0.25,0.75,0.0,0.25,0.0,0.0,0.5,0.08,0.89,2.39,215.26,-15.7,45.1
0.92,0.0,0.0,0.0,0.0,0.0,0.5,0.25,6.0,2.0,6.5,6.0,5.0,5.75,-0.11,-0.05,0.89,361.69,-5.0,-76.0,2.0,0.0,0.5,0.5,0.0,0.5,0.25,0.75,0.0,0.0,0.25,0.0,1.0,0.39,-0.17,1.83,85.64,-11.4,18.7
0.94,0.0,0.0,0.0,1.5,0.0,1.0,0.5,6.25,3.25,7.0,6.75,5.0,5.75,-0.23,0.02,0.95,480.77,-3.5,-67.0,1.0,0.0,0.0,0.5,0.0,0.25,0.0,0.75,0.0,0.25,0.0,0.0,0.25,0.83,-0.17,1.58,0.0,-5.5,18.1
0.96,1.25,0.5,0.0,2.75,0.0,1.0,0.75,6.75,4.25,7.0,7.0,5.0,5.75,-0.17,0.02,1.02,609.03,-1.1,-55.1,2.0,0.5,1.5,1.0,3.0,1.0,0.75,1.75,0.0,1.75,1.25,0.0,1.0,0.33,-0.98,2.08,0.77,-4.4,13.6
0.98,2.75,0.75,2.0,2.75,0.0,1.75,1.0,7.0,4.5,6.25,6.75,5.0,5.5,-0.17,0.02,0.95,699.41,1.7,-41.6,2.0,0.0,1.0,0.75,3.0,1.0,0.75,1.75,0.0,1.5,1.5,0.0,1.25,0.33,-0.8,1.27,36.94,-2.9,6.0
1.0,3.0,0.75,3.0,2.75,0.0,2.25,1.0,7.0,4.5,6.5,6.5,4.25,4.5,-0.17,-0.05,1.02,753.84,2.6,-35.1,2.0,0.0,0.25,0.75,3.0,1.0,0.5,1.75,0.0,1.75,1.25,0.25,1.25,0.39,-0.67,0.64,79.46,-0.3,0.6
1.02,3.5,0.75,3.75,3.75,0.0,2.25,1.0,6.75,4.25,6.0,6.0,3.25,4.5,-0.17,-0.05,0.95,766.45,3.9,-27.4,1.75,0.75,0.5,0.5,3.0,1.0,0.75,1.75,0.0,1.5,1.0,0.25,1.5,0.33,-0.48,0.52,110.09,-0.8,5.2
1.04,4.25,0.75,3.75,3.75,0.0,2.25,1.0,6.5,4.0,5.5,5.0,3.0,3.25,-0.17,0.02,0.95,742.07,5.1,-20.5,1.75,0.0,0.0,0.75,3.0,1.0,0.5,1.25,0.0,1.5,1.0,0.0,1.25,0.2,-0.36,0.64,125.51,0.5,4.4
1.06,5.0,0.75,3.75,4.5,2.25,2.25,1.0,6.25,3.5,4.25,4.0,2.5,2.5,-0.17,0.02,0.95,715.26,6.1,-6.5,1.25,0.75,0.0,0.75,3.0,1.25,0.5,1.25,0.0,1.5,1.0,0.25,1.25,0.2,-0.23,0.77,138.19,1.2,5.0
1.08,5.0,0.75,4.0,4.5,3.75,2.75,1.0,6.0,3.0,3.75,3.0,2.25,2.0,-0.17,0.02,0.95,683.31,6.0,1.6,1.25,0.75,0.0,0.5,3.0,1.0,0.25,1.5,0.0,1.5,1.5,0.25,1.25,0.14,-0.11,0.83,157.5,1.3,-0.5
1.1,5.25,1.0,4.0,4.75,5.0,2.75,1.0,6.0,2.5,2.75,2.25,1.75,1.75,-0.17,0.02,0.95,655.55,6.4,10.8,1.75,0.5,0.0,0.5,3.0,1.0,0.5,1.25,0.0,1.5,1.5,0.25,1.25,0.14,0.08,0.89,180.52,-0.2,1.9
1.12,6.0,1.5,5.5,5.25,5.0,2.75,1.0,5.5,2.0,2.5,1.5,1.25,1.5,-0.17,0.08,0.95,632.43,8.7,21.3,2.0,1.0,0.0,0.5,3.0,1.0,0.5,1.25,0.0,1.5,1.0,0.25,1.25,0.14,0.2,1.02,196.69,-0.9,10.2
1.14,6.0,2.0,5.5,6.75,0.0,2.5,0.75,5.5,1.5,2.25,1.0,1.25,1.25,-0.17,0.08,0.95,588.17,11.5,22.4,1.25,0.5,0.0,0.5,3.0,1.0,0.5,1.5,0.0,1.75,1.5,0.0,1.0,0.08,0.33,1.39,199.48,1.5,0.5
1.16,6.5,2.0,5.75,7.25,0.0,2.75,0.75,5.0,1.25,2.25,0.5,1.5,1.0,-0.17,0.08,0.95,546.65,12.4,26.9,1.25,0.5,0.0,0.5,3.0,1.0,0.5,1.0,0.0,1.5,1.25,0.0,1.5,0.14,0.45,1.64,194.74,1.4,0.5
1.18,7.0,2.0,6.25,8.0,5.25,3.0,0.5,4.75,0.75,2.25,0.25,1.0,0.75,-0.17,0.08,0.95,558.22,10.9,36.7,0.75,0.0,0.0,0.0,0.0,0.25,0.0,0.75,0.0,0.25,0.0,0.0,0.25,0.27,0.7,1.83,138.94,0.4,0.1
1.2,7.25,2.5,6.5,8.0,5.25,3.0,0.5,4.5,1.0,1.0,0.0,1.5,0.75,-0.17,0.14,0.95,586.14,12.1,40.2,0.5,0.0,0.0,0.0,0.0,0.0,0.25,1.0,0.0,0.0,0.0,0.0,0.25,0.33,1.2,2.14,77.94,0.0,-9.8
1.22,7.5,3.5,6.5,8.25,0.0,3.0,0.25,4.0,0.75,1.5,0.0,1.0,0.75,-0.17,0.14,0.95,584.67,14.9,42.2,0.0,0.0,0.0,0.0,0.0,0.5,0.0,0.5,0.0,0.0,0.0,0.0,0.0,0.2,1.7,2.7,25.53,19.7,-3.3
1.24,8.0,3.5,7.0,9.25,4.5,3.25,0.25,3.5,0.75,1.0,0.0,1.5,0.75,-0.17,0.14,1.02,624.01,13.7,45.2,1.25,0.75,0.0,0.5,0.0,1.0,0.0,0.75,0.0,1.5,0.0,0.0,0.25,0.14,2.39,1.95,24.7,0.2,13.9
1.26,8.0,3.75,7.25,9.25,7.5,2.25,0.25,3.5,1.0,1.5,0.0,1.0,0.75,-0.23,0.2,1.02,674.91,13.0,46.4,1.5,0.5,0.25,0.5,3.25,1.25,1.0,1.25,0.0,1.25,0.0,0.25,0.0,-0.11,3.7,0.89,63.7,-1.1,29.3
1.28,8.0,4.25,7.75,9.25,7.75,2.75,0.0,3.5,0.25,1.5,0.0,1.0,0.75,-0.23,0.2,1.02,733.49,12.8,48.4,1.25,0.0,0.0,0.0,3.0,0.5,0.75,0.75,0.0,0.0,0.0,0.0,0.75,-0.42,4.2,-0.11,90.09,-1.0,30.3
1.3,8.25,4.75,7.75,9.75,0.0,2.25,0.0,3.25,0.5,1.0,0.0,1.25,0.75,-0.23,0.2,1.02,715.58,17.6,49.0,0.5,0.0,0.0,0.0,0.0,0.5,0.0,0.5,0.0,0.5,0.0,0.0,0.5,-2.55,6.14,0.14,78.18,7.2,-21.1
1.32,8.5,4.75,7.75,9.75,0.0,1.75,0.0,2.75,0.25,1.0,0.0,0.75,0.75,-0.23,0.27,1.02,681.47,18.8,53.3,0.75,0.0,0.0,0.0,0.0,0.75,0.0,0.75,0.0,3.5,1.0,2.75,2.75,-0.98,0.77,0.52,109.51,5.1,-72.6
1.34,8.25,5.0,7.75,9.5,0.0,0.0,0.0,2.5,0.25,1.0,0.0,1.0,0.75,-0.23,0.27,1.08,619.5,20.7,53.7,0.5,0.0,0.0,0.0,0.0,0.5,0.0,0.75,0.0,7.25,4.0,5.5,6.75,0.02,-0.17,1.02,206.16,4.9,-86.0
1.36,8.5,4.75,7.75,9.25,0.0,0.0,0.0,2.25,0.25,1.0,0.0,0.5,0.75,-0.23,0.33,1.2,571.71,21.4,56.6,0.5,0.0,0.0,0.0,1.0,1.0,0.25,2.5,1.0,8.5,7.25,5.75,8.0,0.45,0.7,3.33,334.15,4.3,-75.6
1.38,8.0,4.75,7.25,8.5,0.0,0.0,0.0,2.0,0.25,1.25,0.0,0.5,0.75,-0.42,0.39,1.39,530.94,21.0,55.6,1.75,0.5,0.0,0.75,2.25,3.5,0.5,5.75,1.5,8.75,8.25,6.0,7.25,0.2,0.39,1.45,527.87,3.8,-53.8
1.4,5.0,0.0,2.25,4.75,0.0,0.0,0.0,0.0,0.25,1.5,0.0,0.75,0.0,-0.86,0.77,2.52,385.94,22.3,47.1,2.5,0.75,1.75,2.0,4.25,3.75,1.25,7.25,2.0,9.25,8.5,5.5,7.25,0.08,0.14,0.95,747.27,1.6,-38.8
1.42,1.0,0.0,1.75,2.5,0.0,0.0,0.0,0.0,0.25,0.75,0.0,0.0,0.0,-0.8,1.27,2.95,250.44,21.7,45.1,3.75,1.0,2.75,3.25,3.5,4.5,1.25,7.75,3.0,9.25,9.5,5.25,6.5,0.27,0.2,1.02,935.58,-0.4,-31.6
1.44,0.25,0.0,0.75,0.5,0.0,0.0,0.0,0.0,0.0,0.25,0.0,0.0,0.0,-0.55,0.39,2.7,104.7,24.0,45.7,3.75,1.25,5.25,3.25,5.0,4.75,2.0,8.0,3.25,9.0,9.0,5.25,6.25,0.2,0.14,0.95,1078.96,-1.9,-23.9
1.46,0.0,0.0,1.0,1.0,0.0,0.0,0.0,0.0,0.5,0.0,0.0,0.0,0.0,-0.86,-0.17,1.7,0.0,24.6,40.6,5.0,1.5,6.5,3.25,5.25,5.5,1.75,8.0,3.25,8.5,9.0,4.75,5.75,0.2,0.08,0.95,1189.78,-3.1,-17.2
1.48,0.0,0.0,0.0,0.75,0.0,0.0,0.0,0.5,0.0,0.0,0.0,0.0,0.0,-0.48,-1.3,1.89,0.0,3.9,20.3,5.5,1.5,7.0,4.0,5.75,5.5,2.0,8.0,3.25,8.0,8.25,3.75,5.25,0.27,0.08,0.95,1256.08,-3.8,-11.1
1.5,1.5,0.0,0.0,2.0,0.0,0.0,4.75,0.0,3.25,0.25,0.0,0.25,0.0,-0.36,-1.42,2.7,0.0,20.7,15.9,5.75,1.75,7.75,5.5,6.0,5.5,2.0,7.5,2.75,7.0,7.0,2.75,4.0,0.27,0.08,0.95,1276.25,-5.2,-1.3
1.52,0.0,0.0,0.0,0.0,0.0,0.0,4.75,0.0,0.0,0.0,0.0,0.0,0.0,-0.17,-0.8,0.64,0.0,32.4,27.3,5.75,2.25,8.0,5.5,6.0,5.5,2.0,7.0,2.0,6.0,6.25,2.25,2.75,0.27,0.14,0.95,1245.69,-6.2,5.7
1.54,0.0,0.0,0.0,0.0,0.0,0.0,0.0,0.0,0.0,0.5,0.0,0.0,0.0,-0.36,-0.55,0.14,0.0,-15.7,-75.5,6.0,2.25,8.0,5.5,6.25,5.5,1.5,6.25,2.0,5.0,5.0,1.5,2.5,0.27,0.14,0.95,1163.43,-6.8,12.0
1.56,0.0,0.0,0.0,0.0,0.0,0.0,0.0,0.0,0.0,0.0,0.0,0.0,0.0,-0.11,-0.55,0.58,0.0,0.0,0.0,6.5,2.25,8.25,5.75,6.75,5.5,1.5,6.0,1.5,4.5,2.75,1.25,1.75,0.2,0.14,0.95,1050.05,-7.5,20.9
1.58,0.0,0.0,0.0,0.25,0.0,0.0,0.0,0.0,0.0,0.0,0.0,0.0,0.0,0.2,-0.42,0.77,0.0,17.2,57.9,6.5,2.5,8.5,5.75,7.0,5.5,1.25,5.25,1.5,3.5,3.25,1.25,1.75,0.2,0.14,0.95,955.89,-8.4,23.4
1.6,0.0,0.0,0.0,1.0,0.0,0.0,0.0,0.0,0.0,0.0,0.0,0.0,0.0,0.08,-0.23,0.7,0.0,17.2,57.9,6.75,2.5,8.75,6.5,7.25,5.75,1.0,5.0,1.25,3.5,2.5,1.0,1.75,0.2,0.14,0.89,897.08,-8.6,27.2
1.62,0.0,0.0,0.0,0.0,0.0,0.0,1.75,0.0,0.0,0.0,0.0,0.0,0.0,0.02,-0.05,0.64,0.0,32.4,27.4,7.0,2.5,8.75,7.25,7.75,5.75,1.25,5.25,1.0,3.0,1.5,0.75,1.75,0.2,0.14,0.95,865.19,-8.8,31.6
1.64,0.0,0.0,0.0,3.5,0.0,0.0,1.0,0.0,0.25,0.75,0.0,0.75,0.0,0.02,0.02,1.08,21.27,12.9,13.1,7.0,3.0,8.75,7.25,7.75,5.5,1.0,5.0,1.0,2.25,2.0,0.75,1.75,0.2,0.14,0.95,847.58,-9.4,33.1
1.66,0.0,0.0,0.0,0.5,0.0,0.0,0.0,0.0,0.0,0.25,0.0,0.0,0.5,-0.05,0.27,1.39,32.16,-1.5,-35.0,7.5,3.0,8.75,7.5,7.75,5.5,1.0,4.25,0.75,1.75,1.5,0.75,2.0,0.2,0.14,0.95,833.75,-10.1,36.5
1.68,2.0,0.0,0.0,1.75,0.0,0.0,0.0,0.0,2.0,2.0,0.0,0.75,0.0,-0.11,0.77,1.64,74.0,11.4,-2.3,7.25,3.0,8.75,7.5,7.75,5.75,0.75,4.25,0.75,1.5,2.0,0.25,1.0,0.2,0.14,0.95,815.4,-10.4,40.1
1.7,0.0,0.0,0.0,0.5,0.0,0.0,2.5,0.0,0.0,0.0,0.0,0.0,0.0,0.14,1.2,1.7,63.21,27.7,36.6,8.0,3.5,9.25,8.0,7.75,5.5,0.75,4.0,0.75,1.75,1.5,0.75,1.25,0.2,0.14,0.95,820.85,-11.1,40.6
1.72,0.0,0.0,0.0,0.5,0.0,0.0,0.0,0.0,0.0,0.0,0.0,0.0,0.0,0.08,1.52,1.77,51.96,17.2,57.9,8.25,3.75,9.25,9.0,7.75,5.5,1.0,3.75,0.75,1.75,1.75,0.75,1.5,0.2,0.2,0.89,847.35,-11.4,40.5
1.74,0.0,0.0,0.0,0.75,0.0,0.0,0.75,0.0,2.25,1.5,0.0,0.5,0.0,0.02,1.7,1.77,50.82,6.1,-36.9,8.5,4.0,10.5,9.25,8.0,5.5,1.0,3.75,0.75,1.5,1.5,0.75,1.0,0.2,0.2,0.95,891.98,-12.4,44.0
1.76,0.0,0.0,0.0,0.5,0.0,0.0,3.0,0.0,0.0,0.0,0.0,0.0,0.0,-0.05,2.02,1.52,52.55,28.3,35.5,9.0,3.0,10.5,9.0,8.5,5.5,0.75,3.75,0.5,1.75,1.25,0.75,1.25,0.14,0.14,0.95,927.6,-12.1,43.2
1.78,0.0,0.0,0.0,0.5,0.0,0.0,0.0,0.0,0.0,0.0,0.0,0.0,0.0,-0.11,2.08,1.27,41.24,17.2,57.9,9.0,3.75,10.5,9.25,8.5,5.0,0.75,3.75,0.25,1.75,1.25,0.5,1.0,0.14,0.2,1.02,951.77,-12.6,45.8
1.8,0.0,0.0,0.0,0.5,0.0,0.0,0.0,0.0,0.0,0.0,0.0,0.0,0.0,0.2,1.83,1.08,26.35,17.2,57.9,8.75,3.0,9.5,7.5,7.75,3.5,0.25,2.5,0.0,0.5,0.0,0.0,0.0,0.14,0.2,1.02,875.35,-15.4,59.1
1.82,0.0,0.0,0.0,0.5,0.0,0.0,0.0,0.0,0.0,0.0,0.0,0.0,0.0,0.52,1.58,0.89,15.4,17.2,57.9,9.0,4.0,9.5,8.0,7.75,3.25,0.25,2.25,0.0,0.25,0.25,0.0,0.25,0.14,0.2,1.02,812.69,-15.8,59.9
1.84,0.0,0.0,0.0,0.5,0.0,0.0,0.0,0.0,0.0,0.0,0.0,0.0,0.0,0.64,1.39,0.89,3.96,17.2,57.9,9.0,3.0,9.5,7.5,6.75,3.25,0.0,2.25,0.0,0.25,0.0,0.0,0.0,0.14,0.27,1.02,730.67,-16.5,61.0
1.86,0.0,0.0,0.0,0.5,0.0,0.0,0.0,0.0,0.0,0.0,0.0,0.0,0.0,0.64,1.2,0.95,0.0,17.2,57.9,9.25,2.25,10.0,7.25,6.5,2.5,0.0,2.25,0.0,0.25,1.5,0.0,0.0,0.08,0.27,0.95,684.79,-17.6,56.4
1.88,0.0,0.0,0.0,0.5,0.0,0.0,0.0,0.0,0.0,0.0,0.0,0.0,0.0,0.45,1.02,1.08,0.0,17.2,57.9,10.5,3.0,10.0,7.25,6.0,3.5,0.25,1.5,0.0,2.0,0.0,0.5,0.0,0.08,0.27,0.95,669.91,-16.8,56.6
1.9,0.0,0.0,0.0,0.5,0.0,0.0,0.0,0.0,0.0,0.0,0.0,0.0,0.0,0.33,0.83,1.14,0.0,17.2,57.9,9.75,1.5,10.5,7.25,6.0,1.25,0.0,0.75,0.0,0.25,0.0,0.0,0.25,0.02,0.33,0.95,632.52,-21.1,64.4
1.92,0.0,0.0,0.0,0.25,0.0,0.0,0.0,0.0,0.0,0.0,0.0,0.0,0.0,0.14,0.89,0.77,0.0,17.2,57.9,9.75,2.75,10.5,7.25,4.75,0.75,0.0,1.0,0.0,0.75,0.0,0.0,0.25,0.02,0.33,0.95,599.57,-21.5,63.9
1.94,1.5,0.0,0.0,1.75,0.0,0.0,1.25,0.0,0.25,0.75,0.0,0.0,0.0,-4.3,4.33,-0.98,28.54,18.8,40.0,10.0,2.75,10.0,7.25,5.0,1.0,0.0,1.0,0.0,0.5,0.0,0.0,0.0,-0.05,0.33,0.95,564.67,-21.4,66.0
1.96,0.0,0.0,0.0,0.5,0.0,0.0,0.0,0.0,0.0,0.0,0.0,0.0,0.0,-1.23,1.89,2.27,27.05,17.2,57.9,10.0,2.5,10.5,7.25,5.0,1.25,0.0,0.75,0.0,0.25,1.0,0.0,0.0,-0.05,0.39,0.95,556.31,-21.6,63.6
1.98,0.0,0.0,0.25,0.5,0.0,0.0,0.0,0.0,0.0,0.0,0.0,0.0,0.0,-0.98,0.45,0.08,26.51,24.1,58.9,10.5,2.5,12.5,7.25,3.5,1.0,0.0,0.75,0.0,0.0,0.0,0.0,0.0,0.02,0.45,1.02,553.64,-24.6,68.9
2.0,0.0,0.0,0.25,0.0,0.0,0.0,0.0,0.0,0.0,0.0,0.0,0.25,0.0,-0.8,1.33,0.08,19.57,23.8,-22.9,10.0,2.5,10.5,7.25,3.5,1.0,0.0,0.75,0.0,0.25,0.0,0.0,0.0,0.02,0.45,1.08,549.07,-23.4,67.9
2.02,0.0,0.0,0.0,1.0,0.0,0.0,0.0,0.0,0.0,5.0,0.0,0.0,0.75,-0.55,-3.17,6.02,51.79,-10.4,-58.9,9.25,2.25,11.0,6.0,3.25,1.0,0.0,0.75,0.0,0.0,0.0,0.0,0.0,-0.11,0.45,1.27,530.4,-24.2,68.6
2.04,1.25,0.0,0.0,1.75,0.0,0.0,0.0,0.0,0.0,0.0,0.0,0.25,0.0,-0.86,0.02,1.95,59.47,22.9,59.4,8.25,1.0,8.75,5.25,3.0,1.0,0.0,0.75,0.0,0.0,0.0,0.0,0.0,0.02,0.77,1.77,478.67,-23.8,67.3
2.06,2.0,0.0,0.75,2.5,0.0,0.0,0.0,3.5,0.25,0.75,0.0,0.0,0.75,-0.17,0.33,1.39,108.19,5.8,9.0,5.75,0.5,6.75,2.75,0.0,0.75,0.0,0.25,0.0,0.0,0.0,0.0,0.0,-0.11,1.45,2.64,364.23,-29.3,70.8
2.08,2.75,0.0,1.5,2.75,0.0,0.0,0.0,3.5,0.25,0.75,0.0,1.0,0.5,0.02,0.2,1.39,151.43,10.2,11.1,3.5,0.0,5.25,0.75,0.0,0.5,0.0,0.25,0.0,0.0,0.0,0.0,0.25,-0.05,1.33,2.83,259.4,-30.3,64.5
2.1,3.25,0.0,0.5,2.75,0.0,0.0,0.0,3.5,0.25,1.0,0.0,0.25,0.75,-0.36,0.2,1.45,185.05,7.8,13.3,3.75,0.75,4.5,2.0,2.75,1.0,0.5,1.0,0.0,1.5,0.25,0.0,1.0,0.14,0.39,2.52,212.46,-14.0,39.1
2.12,3.5,0.0,0.0,2.75,0.0,0.0,0.0,3.0,0.25,0.75,0.0,0.25,0.75,-0.23,0.2,1.27,196.75,8.6,17.2,3.5,0.75,2.75,2.25,3.0,1.25,0.75,0.75,0.0,1.5,0.75,0.25,1.25,0.58,0.39,2.95,190.98,-10.7,30.6
2.14,2.75,0.0,0.25,2.5,0.0,0.0,0.0,2.5,0.25,0.75,0.0,1.0,0.75,-0.3,0.33,0.77,197.76,8.6,5.7,2.5,0.75,2.75,2.0,3.0,1.25,0.75,1.0,0.0,1.5,1.0,0.25,1.0,0.14,0.58,1.89,195.89,-9.4,26.3
2.16,3.5,0.0,0.0,2.5,0.0,0.0,0.0,2.75,0.25,0.75,0.0,0.75,0.5,-0.55,0.39,0.39,193.27,9.5,14.7,2.5,0.75,2.75,2.0,3.0,1.25,0.75,0.75,0.0,1.5,1.0,0.0,1.25,0.08,0.45,1.58,198.04,-9.4,27.2
2.18,3.5,0.0,0.5,2.5,0.0,0.0,0.0,2.5,0.25,0.75,0.0,0.25,0.75,-0.36,0.45,0.39,187.71,10.9,20.8,2.25,0.75,2.5,2.0,3.0,1.0,0.75,1.0,0.0,1.75,1.25,0.25,1.0,0.02,0.08,1.33,200.56,-8.7,21.9
2.2,3.0,0.0,1.0,2.5,0.0,0.0,0.0,2.25,0.25,0.75,0.0,1.0,0.5,-0.48,0.58,0.77,190.09,12.2,15.1,2.5,0.75,1.5,2.0,3.0,1.0,0.75,0.75,0.0,1.5,1.25,0.0,1.0,0.33,-0.23,0.95,193.13,-7.9,25.0
2.22,3.5,0.0,0.75,2.25,0.0,0.0,0.0,2.0,0.25,0.75,0.0,1.0,0.5,-0.67,0.7,0.77,186.46,13.2,17.7,2.0,0.0,1.5,1.5,3.0,1.0,0.75,0.75,0.0,1.75,1.0,0.25,1.25,0.52,-0.36,0.7,186.67,-5.7,13.0
2.24,3.5,0.0,0.75,2.0,0.0,0.0,0.0,2.0,0.25,1.0,0.0,0.5,0.5,-0.98,0.83,0.52,179.07,12.6,20.6,2.0,0.0,0.75,1.5,3.0,1.0,0.75,0.75,0.0,1.5,1.0,0.0,0.75,0.64,-0.23,0.33,179.76,-4.9,19.1
2.26,3.25,0.0,1.0,2.5,0.0,0.0,0.0,0.0,0.25,0.75,0.0,1.0,0.25,-0.73,0.83,0.33,163.21,20.9,34.4,2.75,0.75,1.25,1.25,3.0,1.0,0.75,1.0,0.0,1.5,1.0,0.25,1.5,0.95,0.14,-0.23,190.23,-6.3,18.0
2.28,3.5,0.0,0.75,2.5,0.0,0.0,0.0,0.0,0.25,0.5,0.0,1.0,0.5,-0.36,0.77,0.33,152.54,20.8,34.2,2.25,0.5,1.0,1.25,3.0,1.0,0.25,1.0,0.0,1.5,1.0,0.0,1.0,0.77,0.33,-0.48,196.39,-4.9,19.8
2.3,2.75,0.0,0.25,2.25,0.0,0.0,0.0,0.0,0.0,0.0,0.0,0.0,0.5,-0.17,0.89,0.33,124.12,23.3,60.9,1.75,0.75,1.75,1.25,3.0,1.0,0.75,0.75,0.0,1.5,1.0,0.25,1.0,0.7,0.64,-0.8,208.76,-6.7,19.8
2.32,2.75,0.0,0.75,0.0,0.0,0.0,0.0,0.0,0.25,0.0,0.0,1.0,0.0,-0.48,1.08,0.39,98.28,28.6,39.2,2.0,0.75,1.75,1.0,3.0,1.0,0.75,0.5,0.0,1.5,1.0,0.25,1.0,0.83,0.77,-1.11,208.29,-7.3,21.4
2.34,0.25,0.0,1.0,1.0,0.0,0.0,0.0,0.0,0.25,0.75,0.0,0.0,0.0,-0.61,1.2,0.2,70.28,17.1,24.2,2.0,0.75,1.75,1.25,3.0,1.0,0.25,0.75,0.0,1.5,1.0,0.25,1.0,0.77,0.64,-0.86,205.24,-6.7,20.9
2.36,0.0,0.0,0.0,1.25,0.0,0.0,0.0,0.0,0.25,0.0,0.0,0.0,0.5,-0.23,1.2,-0.23,43.3,8.9,4.7,1.25,0.0,0.0,0.5,0.0,0.25,0.0,0.0,0.0,0.0,0.0,0.0,0.0,0.64,0.77,-1.3,147.72,-23.0,79.2
2.38,0.75,0.0,0.0,0.0,0.0,0.0,0.0,0.0,0.25,0.0,0.0,0.0,0.5,-0.55,2.58,0.14,19.37,14.0,1.6,1.0,0.0,0.25,0.25,0.0,0.5,0.0,0.0,0.0,0.0,0.0,0.0,0.0,0.39,0.89,-1.42,91.3,-18.8,71.8
2.4,0.0,0.0,0.0,0.0,0.0,0.0,0.0,0.0,0.0,0.75,0.0,0.0,0.5,-0.61,3.14,1.45,3.88,-14.8,-89.4,0.75,0.0,0.0,0.5,0.0,0.25,0.25,0.0,0.0,0.0,0.0,0.0,0.0,0.33,0.52,-0.48,32.02,-20.2,69.7
2.42,0.0,0.0,0.0,0.0,0.0,0.0,0.0,0.0,0.0,0.0,0.0,0.0,0.5,-0.05,0.77,2.2,0.0,-13.7,-109.8,0.75,0.0,0.0,0.5,0.0,0.0,0.5,0.75,0.0,0.0,0.0,0.0,0.0,0.39,2.39,0.52,4.11,-12.9,34.5
2.44,0.0,0.0,0.0,0.0,0.0,0.0,0.0,0.0,0.0,0.0,0.0,0.0,0.0,-0.48,-1.11,0.64,0.0,0.0,0.0,2.0,0.75,2.25,1.25,3.0,0.5,0.75,0.75,0.0,0.0,1.0,0.0,1.0,-1.42,7.95,0.89,57.55,-11.9,35.5
2.46,0.0,0.0,0.0,3.25,0.0,0.0,0.0,0.0,2.25,0.5,0.0,0.25,2.25,-1.73,-0.86,-1.67,23.1,5.5,-23.9,1.0,0.0,0.0,0.5,0.0,0.5,0.0,0.0,0.0,0.0,0.0,0.0,0.0,-1.11,7.95,-2.3,55.35,-16.0,71.4
2.48,0.0,0.0,1.25,1.0,0.0,0.0,1.75,0.0,1.25,0.5,0.25,0.0,0.0,-0.48,-0.48,-1.61,47.23,20.2,11.3,1.0,0.0,0.0,0.5,0.0,0.0,0.0,0.0,0.0,0.0,0.0,0.0,0.0,0.02,2.7,-1.36,48.23,-28.6,83.5
2.5,0.0,0.0,0.0,2.5,0.0,0.0,1.5,0.0,1.25,1.25,0.0,0.5,0.0,0.83,-0.55,-0.67,77.37,10.7,-3.9,1.0,0.0,0.0,0.5,0.5,0.5,0.25,0.0,0.0,0.0,0.0,0.0,0.0,-0.48,-1.3,-0.55,22.89,-12.5,65.4
2.52,0.0,0.0,0.0,1.0,0.0,0.0,1.25,0.0,0.75,0.25,0.0,0.0,0.25,0.58,-0.23,-0.36,73.06,13.4,0.4,1.0,0.0,0.0,0.5,0.25,0.75,0.25,0.0,0.0,0.5,0.0,0.0,0.0,-0.73,-1.86,-0.61,20.04,-6.6,41.2
2.54,0.0,0.0,0.0,0.75,0.0,0.0,0.5,0.0,0.75,0.0,0.0,0.25,0.0,0.7,0.7,0.2,64.45,16.1,-1.8,1.75,0.5,2.25,0.75,2.5,1.0,0.75,0.75,0.0,0.0,1.75,0.0,1.0,-0.8,-2.48,0.77,73.26,-10.6,25.1
2.56,0.0,0.0,0.0,2.0,0.0,0.0,0.75,0.0,0.75,0.0,0.25,0.0,0.0,0.45,2.27,0.33,55.25,17.2,24.5,1.5,0.75,2.25,1.25,3.0,1.0,0.75,0.75,0.0,1.5,1.5,0.0,1.0,-0.23,-2.3,1.27,143.66,-7.4,19.1
2.58,0.25,0.0,0.0,1.0,0.0,0.0,1.0,0.0,0.75,0.25,0.0,0.25,0.0,0.02,3.33,-0.3,52.49,16.3,7.3,1.25,0.0,1.5,0.5,3.0,0.0,0.75,0.75,0.0,0.0,1.0,0.0,0.0,-0.73,-0.36,1.08,174.74,-12.1,37.8
2.6,0.0,0.0,0.0,1.0,0.0,0.0,0.75,0.0,0.5,0.25,0.0,0.25,0.0,-0.61,2.77,0.39,50.0,14.1,2.2,1.25,0.5,0.0,0.25,0.0,0.0,0.25,0.5,0.0,0.0,0.0,0.0,1.0,-0.8,1.39,1.52,158.04,-9.2,14.2
2.62,0.25,0.0,0.0,1.75,0.0,0.0,1.5,0.0,1.25,0.5,0.25,0.25,0.0,-0.73,1.95,0.77,59.93,14.9,3.5,1.0,0.0,0.0,0.25,0.0,0.0,0.25,0.0,0.0,0.0,0.0,0.0,0.0,-0.92,3.14,1.33,109.13,-31.2,83.5
2.64,0.75,0.0,0.0,1.0,0.0,0.0,1.0,0.0,1.25,1.25,0.0,1.0,0.0,-0.67,1.02,1.39,71.34,10.9,-19.0,1.5,0.5,0.5,0.5,3.0,1.0,0.75,0.75,0.0,1.5,0.75,0.0,0.75,-0.61,3.95,1.27,113.41,-2.0,17.0
2.66,0.25,0.0,0.0,1.0,0.0,0.0,0.5,0.0,0.75,1.0,0.0,1.0,0.0,-0.61,0.58,1.02,73.23,8.4,-28.9,1.75,0.75,0.0,0.75,0.0,1.0,0.0,0.0,0.0,1.25,0.0,0.0,0.0,-0.11,3.08,0.95,100.34,-7.2,40.7
2.68,0.25,0.0,0.0,0.75,0.0,0.0,0.5,0.0,1.25,0.25,0.0,0.25,0.0,-0.55,0.58,0.45,64.35,14.3,-6.3,2.25,0.75,0.5,0.5,3.0,1.0,0.75,0.75,0.0,1.5,1.0,0.25,0.5,0.08,1.83,0.45,140.05,-4.7,21.5
2.7,0.5,0.0,0.0,1.0,0.0,0.0,0.75,0.0,0.25,0.0,0.0,0.0,0.0,-0.36,0.58,0.2,48.61,23.1,50.3,1.25,0.5,0.0,0.5,3.0,1.0,0.75,0.75,0.0,1.25,1.5,0.25,1.0,-0.17,0.83,0.58,166.52,-0.5,4.2
2.72,0.0,0.0,0.0,0.75,0.0,0.0,0.5,0.0,0.25,0.0,0.0,0.0,0.0,-0.3,0.58,-0.11,36.12,19.0,33.4,1.5,0.5,0.0,0.5,3.0,1.0,0.5,0.75,0.0,1.5,1.0,0.0,1.0,-0.36,0.14,0.27,181.47,0.0,10.0
2.74,0.25,0.0,0.0,1.0,0.0,0.0,0.25,0.0,0.75,0.0,0.0,1.0,0.25,-0.17,0.58,-0.23,36.0,13.0,-23.3,1.25,0.75,0.0,0.5,3.0,1.0,0.5,0.75,0.0,1.5,1.0,0.25,1.0,-0.55,-0.05,-0.23,179.01,0.2,7.7
2.76,0.0,0.0,0.0,1.25,0.0,0.0,0.25,0.0,0.75,0.0,0.0,1.0,0.0,-0.05,0.58,-0.05,40.68,13.9,-18.5,1.25,0.75,0.0,0.5,3.0,1.0,0.5,0.75,0.0,1.5,0.5,0.25,1.0,-0.55,0.14,-0.67,177.53,0.7,11.3
2.78,0.0,0.0,0.0,0.75,0.0,0.0,0.25,0.0,0.25,0.0,0.0,0.5,0.0,0.02,0.64,0.08,37.19,15.0,-9.2,1.25,0.75,0.0,0.5,3.0,1.0,0.5,0.75,0.0,1.5,1.25,0.25,0.75,-0.42,0.2,-0.8,173.49,-0.2,8.6
2.8,0.0,0.0,0.0,1.0,0.0,0.0,0.25,0.0,0.5,0.0,0.0,0.5,0.0,0.14,0.83,0.14,33.1,14.9,-4.4,1.25,0.5,0.0,0.5,3.0,1.0,0.75,0.75,0.0,1.5,0.75,0.0,1.25,-0.23,0.02,-0.73,175.58,0.9,7.5
2.82,0.0,0.0,0.0,0.5,0.0,0.0,0.25,0.0,0.0,0.0,0.0,0.0,0.0,0.14,0.95,0.08,22.3,20.0,52.2,1.25,0.75,0.0,0.5,3.0,1.0,0.5,0.75,0.0,1.5,1.0,0.25,1.0,0.02,-0.05,-0.3,184.04,0.2,7.7
2.84,0.0,0.0,0.0,0.5,0.0,0.0,0.0,0.0,0.0,0.0,0.0,0.0,0.0,0.2,1.02,0.02,12.1,17.2,57.9,1.0,0.0,0.0,0.0,3.25,1.0,0.25,0.5,0.0,0.0,0.0,0.0,0.0,0.14,0.14,-0.17,162.81,0.9,49.3
2.86,0.0,0.0,0.0,0.25,0.0,0.0,0.0,0.0,0.0,0.0,0.0,0.0,0.0,0.33,1.02,0.02,1.03,17.2,57.9,1.25,0.75,0.0,0.5,0.25,1.0,0.75,0.5,0.0,1.5,0.25,0.25,0.75,0.14,0.33,-0.05,140.36,-1.4,2.1
2.88,0.0,0.0,0.0,0.5,0.0,0.0,0.0,0.0,0.0,0.0,0.0,0.0,0.0,0.33,1.02,-0.05,0.0,17.2,57.9,1.25,0.75,0.0,0.5,3.0,1.0,0.5,0.75,0.0,1.25,1.0,0.25,0.75,0.08,0.7,0.33,134.15,-0.3,12.3
2.9,0.0,0.0,0.0,0.25,0.0,0.0,0.0,0.0,0.0,0.0,0.0,0.0,0.0,0.33,1.02,-0.11,0.0,17.2,57.9,1.25,0.75,0.0,0.5,3.0,1.0,0.5,0.75,0.0,1.5,1.0,0.0,0.75,0.08,1.2,0.39,145.17,0.1,13.0
2.92,0.0,0.0,0.0,0.25,0.0,0.0,0.0,0.0,0.0,0.0,0.0,0.0,0.0,0.33,1.08,-0.11,0.0,17.2,57.9,1.5,0.75,0.0,0.5,3.0,1.0,0.5,0.75,0.0,1.5,1.5,0.25,1.0,0.08,1.52,0.45,157.77,-0.8,6.1
2.94,0.0,0.0,0.0,0.25,0.0,0.0,0.0,0.0,0.0,0.0,0.0,0.0,0.0,0.39,1.14,-0.11,0.0,17.2,57.9,1.25,0.75,0.0,0.5,3.0,1.0,0.5,0.75,0.0,1.5,1.25,0.25,1.25,0.08,1.77,0.45,170.92,0.3,3.5
2.96,0.0,0.0,0.0,0.5,0.0,0.0,0.0,0.0,0.0,0.0,0.0,0.0,0.0,0.33,1.14,0.08,0.14,17.2,57.9,1.5,0.5,0.0,0.5,3.0,1.0,0.5,0.75,0.0,1.5,1.0,0.0,1.0,-0.05,1.89,0.39,175.24,0.0,10.0
2.98,0.0,0.0,0.0,0.5,0.0,0.0,0.0,0.0,0.0,0.0,0.0,0.0,0.0,0.2,1.14,0.08,0.75,17.2,57.9,1.25,0.5,0.0,0.5,3.0,1.0,0.5,0.75,0.0,1.25,1.0,0.25,0.75,-0.17,1.89,0.27,171.25,0.0,10.2
3.0,0.0,0.0,0.0,0.75,0.0,0.0,0.25,0.0,0.25,0.0,0.0,0.0,0.0,0.08,1.14,0.14,7.58,17.7,34.0,1.25,0.75,0.0,0.5,3.0,1.0,0.75,0.75,0.0,1.5,1.0,0.25,1.0,-0.17,1.64,0.08,172.44,0.0,7.9
3.02,0.0,0.0,0.0,0.75,0.0,0.0,0.5,0.0,0.25,0.0,0.0,0.0,0.0,0.08,1.08,0.27,14.42,19.0,33.4,1.25,0.75,0.0,0.5,2.75,1.0,0.5,0.75,0.0,1.5,0.75,0.0,1.25,-0.17,1.33,0.08,171.16,0.9,8.2
3.04,0.0,0.0,0.0,0.75,0.0,0.0,0.25,0.0,0.25,0.0,0.0,0.0,0.0,0.02,1.08,0.27,18.6,17.7,34.0,1.25,0.5,0.0,0.5,3.0,1.0,0.75,0.75,0.0,1.5,0.75,0.0,1.0,-0.17,1.02,0.2,171.22,0.6,10.2
3.06,0.0,0.0,0.0,0.5,0.0,0.0,0.25,0.0,0.0,0.0,0.0,0.0,0.0,-0.05,1.08,0.27,18.82,20.0,52.2,1.25,0.75,0.0,0.5,2.5,1.0,0.5,1.25,0.0,1.5,1.0,0.0,1.0,-0.23,0.89,0.14,171.71,1.0,5.9
3.08,0.0,0.0,0.0,0.5,0.0,0.0,0.0,0.0,0.0,0.0,0.0,0.0,0.0,-0.05,1.08,0.2,16.19,17.2,57.9,1.25,0.75,0.0,0.5,3.0,1.0,0.5,0.75,0.0,1.5,0.0,0.0,0.0,-0.36,0.77,0.14,166.14,0.1,32.3
3.1,0.0,0.0,0.0,0.5,0.0,0.0,0.0,0.0,0.0,0.0,0.0,0.0,0.0,-0.05,1.08,0.2,13.12,17.2,57.9,1.25,0.5,0.0,0.5,3.0,1.0,0.25,0.75,0.0,1.5,1.5,0.25,1.0,-0.36,0.64,0.2,164.97,0.4,2.0
3.12,0.0,0.0,0.0,0.5,0.0,0.0,0.0,0.0,0.25,0.25,0.0,0.75,0.0,-0.05,1.08,0.14,17.73,8.3,-45.2,1.25,0.75,0.0,0.5,3.0,1.0,0.25,1.25,0.0,1.5,1.25,0.25,0.75,-0.42,0.58,0.2,165.53,0.7,6.4
3.14,0.0,0.0,0.0,0.75,0.0,0.0,0.0,0.0,0.25,0.75,0.0,0.5,0.5,0.02,1.02,0.08,29.0,0.7,-47.1,1.25,0.5,0.0,0.5,3.0,1.0,0.25,0.75,0.0,1.5,0.75,0.25,0.75,-0.42,0.52,0.2,165.99,0.8,10.0
3.16,0.0,0.0,0.0,0.75,0.0,0.0,0.0,0.0,0.25,0.5,0.0,0.5,0.25,0.02,1.02,0.02,36.34,4.1,-37.0,1.25,0.5,0.0,0.5,2.75,1.0,0.25,0.75,0.0,1.25,1.0,0.0,1.0,-0.36,0.52,0.14,162.65,0.7,8.7
3.18,0.0,0.0,0.0,0.75,0.0,0.0,0.0,0.0,0.25,0.5,0.0,0.5,0.5,0.08,1.08,0.02,42.24,2.3,-44.3,1.25,0.5,0.0,0.5,2.75,1.0,0.5,0.75,0.0,1.25,1.5,0.0,1.0,-0.36,0.58,0.08,162.41,-0.1,5.2
3.2,0.0,0.0,0.0,0.75,0.0,0.0,0.0,0.0,0.25,0.5,0.0,0.5,0.5,0.08,1.08,-0.05,44.25,2.3,-44.3,1.25,0.75,0.0,0.5,3.0,1.0,0.25,0.75,0.0,1.5,0.75,0.25,1.25,-0.36,0.7,0.02,164.42,1.1,6.6
3.22,0.0,0.0,0.0,1.0,0.0,0.0,0.0,0.0,0.0,0.25,0.0,0.5,0.75,0.08,1.14,-0.05,45.06,3.0,-38.0,1.25,0.75,0.0,0.5,2.5,1.0,0.25,0.5,0.0,1.5,1.5,0.0,1.0,-0.36,0.77,0.08,164.05,-0.1,5.1
3.24,0.0,0.0,0.0,0.75,0.0,0.0,0.0,0.0,0.0,0.0,0.0,0.0,0.25,0.08,1.14,-0.05,36.69,9.5,16.5,1.25,0.5,0.0,0.5,2.75,1.0,0.5,0.75,0.0,1.5,1.25,0.0,1.0,-0.3,0.83,0.08,164.85,0.4,5.2
3.26,0.0,0.0,0.0,0.5,0.0,0.0,0.0,0.0,0.0,0.0,0.0,0.0,0.25,0.02,1.14,0.02,28.27,7.0,2.6,1.25,0.5,0.0,0.5,2.5,1.0,0.5,0.75,0.0,1.25,0.75,0.0,1.0,-0.3,0.95,0.08,160.63,0.5,9.7
3.28,0.0,0.0,0.0,0.5,0.0,0.0,0.0,0.0,0.0,0.0,0.0,0.0,0.0,-0.05,1.08,0.08,18.83,17.2,57.9,0.25,0.0,0.0,0.0,0.0,0.0,0.0,0.25,0.0,0.0,0.0,0.0,0.0,-0.3,1.08,0.08,109.29,-8.2,27.2
3.3,0.0,0.0,0.0,0.25,0.0,0.0,0.0,0.0,0.0,0.0,0.0,0.0,0.0,-0.11,1.08,0.08,10.88,17.2,57.9,0.5,0.0,0.0,0.0,0.0,0.0,0.0,0.0,0.0,0.0,0.0,0.0,0.0,-0.3,1.14,0.08,58.25,-34.9,97.9
3.32,0.0,0.0,0.0,0.5,0.0,0.0,0.0,0.0,0.0,0.0,0.0,0.0,0.0,-0.11,1.02,0.08,6.53,17.2,57.9,1.25,0.75,0.0,0.5,0.0,1.0,0.0,0.0,0.0,1.5,0.0,0.0,0.0,-0.3,1.2,0.08,36.67,-2.9,28.5
3.34,0.0,0.0,0.0,0.5,0.0,0.0,0.0,0.0,0.0,0.0,0.0,0.0,0.0,-0.05,0.95,0.02,4.31,17.2,57.9,0.5,0.0,0.0,0.0,0.5,0.0,0.0,0.25,0.0,0.0,0.0,0.0,0.0,-0.23,1.2,0.14,14.23,-7.8,51.6
3.36,0.0,0.0,0.0,0.25,0.0,0.0,0.0,0.0,0.0,0.0,0.0,0.0,0.0,-0.05,0.95,-0.05,1.31,17.2,57.9,0.0,0.0,0.0,0.0,0.0,0.0,0.0,0.0,0.0,0.0,0.0,0.0,0.0,-0.3,1.14,0.14,0.0,0.0,0.0
3.38,0.0,0.0,0.0,0.5,0.0,0.0,0.0,0.0,0.0,0.0,0.0,0.0,0.0,0.02,0.95,-0.05,1.04,17.2,57.9,0.75,0.0,0.0,0.0,0.0,0.0,0.0,0.0,0.0,0.0,0.0,0.0,0.0,-0.3,1.14,0.08,0.0,-35.0,97.9
3.4,0.0,0.0,0.0,0.5,0.0,0.0,0.0,0.0,0.0,0.0,0.0,0.0,0.0,0.02,0.89,-0.05,2.31,17.2,57.9,0.25,0.0,0.0,0.75,0.0,1.0,0.0,0.0,0.0,1.5,0.0,0.0,0.0,-0.3,1.08,0.14,0.0,6.7,-3.6
3.42,0.0,0.0,0.0,0.0,0.0,0.0,0.0,0.0,0.0,0.0,0.0,0.0,0.0,0.02,0.89,0.02,0.25,0.0,0.0,0.5,0.0,0.0,0.0,2.75,0.25,0.25,0.25,0.0,1.5,1.25,0.0,0.75,-0.3,0.95,0.14,30.64,2.7,-9.2
3.44,0.0,0.0,0.0,0.5,0.0,0.0,0.0,0.0,0.0,0.0,0.0,0.0,0.0,0.02,0.89,0.02,2.02,17.2,57.9,1.25,0.75,0.0,0.5,3.0,1.0,0.75,0.75,0.0,1.25,0.75,0.25,0.25,-0.3,0.89,0.14,84.25,-1.1,20.5
3.46,0.0,0.0,0.0,0.5,0.0,0.0,0.0,0.0,0.0,0.0,0.0,0.0,0.0,0.08,0.95,0.02,4.19,17.2,57.9,1.25,0.75,0.0,0.5,3.0,1.0,0.25,0.75,0.0,0.0,1.25,0.0,1.25,-0.3,0.89,0.14,127.53,-1.2,17.6
3.48,0.0,0.0,0.0,0.5,0.0,0.0,0.0,0.0,0.0,0.0,0.0,0.0,0.0,0.08,1.02,0.02,7.42,17.2,57.9,0.5,0.0,0.0,0.0,0.0,0.0,0.0,0.0,0.0,0.0,0.0,0.0,0.0,-0.3,0.83,0.14,106.66,-34.9,97.9
3.5,0.0,0.0,0.0,0.5,0.0,0.0,0.0,0.0,0.0,0.0,0.0,0.0,0.0,0.08,1.08,-0.05,8.62,17.2,57.9,1.25,0.5,0.0,0.5,3.0,1.0,0.25,0.75,0.0,1.0,1.0,0.0,1.0,-0.3,0.89,0.08,127.76,0.4,12.0
3.52,0.0,0.0,0.0,0.25,0.0,0.0,0.0,0.0,0.0,0.0,0.0,0.0,0.0,0.08,1.08,-0.05,8.03,17.2,57.9,1.25,0.5,0.0,0.5,3.0,1.0,0.25,0.5,0.0,1.0,1.25,0.25,1.0,-0.3,0.89,0.08,142.89,-0.3,8.4
3.54,0.0,0.0,0.0,0.5,0.0,0.0,0.0,0.0,0.0,0.0,0.0,0.0,0.0,0.14,1.08,-0.05,8.24,17.2,57.9,1.25,0.75,0.0,0.5,3.0,1.0,0.25,0.75,0.0,1.5,1.0,0.0,1.0,-0.3,0.83,0.14,165.93,0.8,10.1
3.56,0.0,0.0,0.0,0.5,0.0,0.0,0.0,0.0,0.0,0.0,0.0,0.0,0.0,0.08,1.08,-0.05,8.13,17.2,57.9,1.25,0.75,0.0,0.5,3.0,1.0,0.25,1.0,0.0,1.25,1.0,0.0,1.25,-0.36,0.89,0.08,178.64,1.1,8.2
3.58,0.0,0.0,0.0,0.5,0.0,0.0,0.0,0.0,0.0,0.0,0.0,0.0,0.0,0.08,1.08,-0.05,9.05,17.2,57.9,1.25,0.5,0.0,0.5,3.0,1.0,0.5,0.75,0.0,1.25,0.75,0.0,1.0,-0.36,0.89,0.08,189.31,0.7,12.1
3.6,0.0,0.0,0.0,0.5,0.0,0.0,0.0,0.0,0.0,0.0,0.0,0.0,0.0,0.02,1.02,-0.05,9.54,17.2,57.9,1.25,0.75,0.0,0.5,1.75,1.0,0.25,0.5,0.0,1.25,1.5,0.25,1.0,-0.36,0.95,0.08,181.24,-1.0,0.1
3.62,0.0,0.0,0.0,0.25,0.0,0.0,0.0,0.0,0.0,0.0,0.0,0.0,0.0,0.02,1.02,-0.05,8.08,17.2,57.9,1.25,0.75,0.0,0.5,3.0,1.0,0.25,0.75,0.0,1.5,1.0,0.0,1.25,-0.42,0.95,0.08,177.31,1.1,7.4
3.64,0.0,0.0,0.25,0.75,0.0,0.0,0.25,0.0,0.25,0.5,0.0,0.75,0.5,0.02,1.02,-0.05,22.63,6.9,-38.2,1.25,0.75,0.0,0.5,3.0,1.0,0.25,0.75,0.0,1.5,1.25,0.25,0.5,-0.42,0.95,0.08,174.92,-0.2,11.1
3.66,0.0,0.0,0.5,0.5,0.0,0.0,0.0,0.0,0.0,0.0,0.0,0.0,0.0,-0.05,0.95,-0.05,24.97,27.6,59.4,1.5,0.5,0.0,0.5,3.0,1.0,0.25,0.75,0.0,1.25,1.5,0.25,1.0,-0.42,0.95,0.08,175.74,-0.5,5.6
3.68,0.0,0.0,0.0,0.5,0.0,0.0,0.0,0.0,0.0,0.0,0.0,0.0,0.0,0.02,0.95,-0.05,23.96,17.2,57.9,1.25,0.5,0.0,0.5,2.25,1.0,0.25,0.75,0.0,1.25,1.25,0.0,0.75,-0.36,0.95,0.14,169.38,0.0,7.1
3.7,0.0,0.0,0.0,0.5,0.0,0.0,0.0,0.0,0.0,0.0,0.0,0.0,0.0,0.02,0.95,-0.05,18.02,17.2,57.9,1.25,0.5,0.0,0.5,3.0,1.0,0.5,1.0,0.0,1.0,1.0,0.0,1.25,-0.36,0.95,0.14,171.37,0.7,8.2
3.72,0.0,0.0,0.0,0.5,0.0,0.0,0.0,0.0,0.0,0.0,0.0,0.0,0.0,0.02,0.95,-0.05,13.97,17.2,57.9,1.25,0.5,0.0,0.5,3.0,1.0,0.25,0.5,0.0,0.75,1.5,0.0,0.5,-0.36,0.95,0.14,166.36,-1.5,17.5
3.74,0.0,0.0,0.0,0.25,0.0,0.0,0.0,0.0,0.0,0.0,0.0,0.0,0.0,0.02,0.95,-0.05,8.63,17.2,57.9,1.5,0.75,0.0,0.5,3.0,1.0,0.25,0.75,0.0,1.25,1.5,0.25,1.0,-0.36,0.95,0.14,164.15,-0.8,7.6
3.76,0.0,0.0,0.0,0.5,0.0,0.0,0.0,0.0,0.0,0.0,0.0,0.0,0.0,0.02,1.02,0.02,8.1,17.2,57.9,1.25,0.75,0.0,0.5,2.25,1.0,0.25,0.5,0.0,1.0,0.25,0.0,1.0,-0.36,0.95,0.14,155.19,0.2,19.0
3.78,0.0,0.0,0.0,0.5,0.0,0.0,0.0,0.0,0.0,0.0,0.0,0.0,0.0,0.02,1.02,-0.05,8.03,17.2,57.9,1.25,0.5,0.0,0.5,3.0,1.0,0.25,0.75,0.0,1.25,1.5,0.25,1.0,-0.36,0.95,0.08,159.95,0.1,3.7
3.8,0.0,0.0,0.0,0.5,0.0,0.0,0.0,0.0,0.0,0.0,0.0,0.0,0.0,0.02,1.08,-0.05,7.95,17.2,57.9,1.25,0.5,0.0,0.5,3.0,1.0,0.25,0.75,0.0,1.0,0.75,0.25,1.0,-0.36,0.89,0.08,157.4,0.4,11.1
3.82,0.0,0.0,0.0,0.5,0.0,0.0,0.0,0.0,0.0,0.0,0.0,0.0,0.0,0.02,1.08,-0.05,7.75,17.2,57.9,1.25,0.5,0.0,0.5,2.25,1.0,0.5,0.75,0.0,1.5,1.25,0.0,0.75,-0.3,0.89,0.08,157.72,0.0,5.3
3.84,0.0,0.0,0.0,0.25,0.0,0.0,0.0,0.0,0.0,0.0,0.0,0.0,0.0,0.02,1.08,-0.05,6.01,17.2,57.9,1.25,0.75,0.0,0.5,2.75,1.0,0.5,0.75,0.0,1.25,0.75,0.0,1.0,-0.3,0.89,0.08,156.82,0.3,13.1
3.86,0.0,0.0,0.0,0.25,0.0,0.0,0.0,0.0,0.0,0.0,0.0,0.0,0.0,0.02,1.08,0.02,4.03,17.2,57.9,1.25,0.75,0.0,0.5,3.0,1.0,0.25,0.75,0.0,1.5,0.75,0.25,0.75,-0.36,0.95,0.08,159.06,0.5,12.1
3.88,0.0,0.0,0.0,0.5,0.0,0.0,0.0,0.0,0.0,0.0,0.0,0.0,0.0,0.02,1.08,0.02,3.48,17.2,57.9,1.25,0.5,0.0,0.5,3.0,1.0,0.25,0.75,0.0,1.5,1.25,0.0,1.25,-0.36,0.95,0.08,163.41,1.1,3.6
3.9,0.0,0.0,0.0,0.5,0.0,0.0,0.0,0.0,0.0,0.0,0.0,0.0,0.0,0.02,1.08,-0.05,6.78,17.2,57.9,1.25,0.75,0.0,0.5,2.25,1.0,0.25,0.75,0.0,1.0,1.25,0.0,1.0,-0.3,0.95,0.08,161.24,-0.3,8.5
3.92,0.0,0.0,0.0,0.0,0.0,0.0,0.0,0.0,0.0,0.0,0.0,0.0,0.0,0.02,1.08,-0.05,5.17,0.0,0.0,1.25,0.75,0.0,0.5,3.0,1.0,0.5,0.75,0.0,1.5,0.75,0.25,0.5,-0.3,0.95,0.08,163.51,-0.1,15.1
3.94,0.0,0.0,0.0,0.25,0.0,0.0,0.0,0.0,0.0,0.0,0.0,0.0,0.0,0.02,1.08,0.02,4.52,17.2,57.9,1.25,0.75,0.0,0.5,3.0,1.0,0.25,0.75,0.0,1.5,1.25,0.25,1.0,-0.36,0.95,0.08,165.7,0.3,5.8
3.96,0.0,0.0,0.0,0.5,0.0,0.0,0.0,0.0,0.0,0.0,0.0,0.0,0.0,0.02,1.02,0.02,5.26,17.2,57.9,1.25,0.5,0.0,0.5,2.5,1.0,0.25,0.75,0.0,1.0,0.75,0.0,0.75,-0.36,0.95,0.08,160.22,0.2,15.0
3.98,0.0,0.0,0.0,0.0,0.0,0.0,0.0,0.0,0.0,0.0,0.0,0.0,0.0,0.02,1.02,-0.05,3.56,0.0,0.0,1.25,0.5,0.0,0.5,3.0,1.0,0.25,0.75,0.0,1.0,0.75,0.25,0.75,-0.36,0.95,0.14,157.52,0.1,14.1
4.0,0.0,0.0,0.0,0.25,0.0,0.0,0.0,0.0,0.0,0.0,0.0,0.0,0.0,0.02,1.02,-0.05,3.37,17.2,57.9,1.25,0.5,0.0,0.5,3.0,1.0,0.5,0.75,0.0,1.25,1.5,0.25,0.75,-0.36,0.95,0.14,160.42,-0.5,6.6
4.02,0.0,0.0,0.0,0.5,0.0,0.0,0.0,0.0,0.0,0.0,0.0,0.0,0.0,0.02,1.02,0.02,4.91,17.2,57.9,1.25,0.75,0.0,0.5,2.75,1.0,0.25,0.75,0.0,0.75,0.75,0.0,0.75,-0.36,0.95,0.08,156.28,-0.4,20.7
4.04,0.0,0.0,0.0,0.5,0.0,0.0,0.0,0.0,0.0,0.0,0.0,0.0,0.0,0.08,1.02,0.02,6.87,17.2,57.9,1.25,0.5,0.5,0.5,2.75,1.0,0.25,0.75,0.0,1.5,1.0,0.0,1.0,-0.36,0.95,0.08,160.2,-0.7,9.2
4.06,0.0,0.0,0.0,0.75,0.0,0.0,0.0,0.0,0.0,0.25,0.0,0.5,0.5,0.08,1.02,0.02,16.6,3.3,-41.2,1.25,0.75,0.0,0.5,1.5,1.0,0.25,0.5,0.0,1.0,1.5,0.25,0.75,-0.36,0.95,0.08,153.33,-2.0,3.5
4.08,0.0,0.0,0.0,0.5,0.0,0.0,0.25,0.0,0.0,0.0,0.0,0.0,0.0,0.08,1.02,0.02,18.03,20.0,52.2,1.25,0.75,0.0,0.5,3.0,1.0,0.25,0.75,0.0,1.0,0.75,0.25,1.0,-0.36,0.95,0.08,155.15,0.1,13.2
4.1,0.0,0.0,0.0,0.5,0.0,0.0,0.0,0.0,0.0,0.0,0.0,0.0,0.0,0.08,1.02,0.02,17.69,17.2,57.9,1.25,0.5,0.0,0.5,2.5,1.0,0.25,0.5,0.0,1.25,0.75,0.0,0.75,-0.36,0.89,0.14,148.61,0.1,14.0
4.12,0.0,0.0,0.0,0.5,0.0,0.0,0.0,0.0,0.0,0.0,0.0,0.0,0.0,0.08,1.02,-0.05,13.98,17.2,57.9,1.25,0.5,0.0,0.5,3.0,1.0,0.25,0.75,0.0,1.25,1.0,0.0,1.0,-0.36,0.95,0.08,153.14,0.8,9.9
4.14,0.0,0.0,0.0,1.0,0.0,0.0,0.0,0.0,0.0,0.0,0.0,0.0,0.0,0.08,1.02,0.02,15.47,17.2,57.9,1.25,0.5,0.0,0.5,2.75,1.0,0.5,0.75,0.0,1.25,1.25,0.0,0.75,-0.36,0.95,0.08,154.44,-0.2,9.9
4.16,0.0,0.0,0.0,0.5,0.0,0.0,0.0,0.0,0.0,0.0,0.0,0.0,0.0,0.08,1.02,0.02,13.65,17.2,57.9,1.25,0.75,0.0,0.5,3.0,1.0,0.25,0.75,0.0,1.25,0.25,0.0,1.0,-0.36,0.95,0.08,156.48,1.2,18.2
4.18,0.0,0.0,0.0,0.5,0.0,0.0,0.0,0.0,0.0,0.0,0.0,0.0,0.0,0.08,1.08,0.02,12.9,17.2,57.9,1.25,0.75,0.0,0.5,3.0,1.0,0.25,0.75,0.0,1.5,1.25,0.25,1.0,-0.36,0.95,0.08,162.64,0.3,5.8
