time,left pressure 0[N/cm虏],left pressure 1[N/cm虏],left pressure 2[N/cm虏],left pressure 3[N/cm虏],left pressure 4[N/cm虏],left pressure 5[N/cm虏],left pressure 6[N/cm虏],left pressure 7[N/cm虏],left pressure 8[N/cm虏],left pressure 9[N/cm虏],left pressure 10[N/cm虏],left pressure 11[N/cm虏],left pressure 12[N/cm虏],left acceleration X[g],left acceleration Y[g],left acceleration Z[g],left total force[N],left center of pressure X[mm],left center of pressure Y[mm],right pressure 0[N/cm虏],right pressure 1[N/cm虏],right pressure 2[N/cm虏],right pressure 3[N/cm虏],right pressure 4[N/cm虏],right pressure 5[N/cm虏],right pressure 6[N/cm虏],right pressure 7[N/cm虏],right pressure 8[N/cm虏],right pressure 9[N/cm虏],right pressure 10[N/cm虏],right pressure 11[N/cm虏],right pressure 12[N/cm虏],right acceleration X[g],right acceleration Y[g],right acceleration Z[g],right total force[N],right center of pressure X[mm],right center of pressure Y[mm]
0.02,0.5,0.5,0.25,1.25,0.0,0.0,0.0,2.0,0.75,1.0,0.0,0.5,0.75,-0.36,0.89,1.14,129.76,1.1,-17.5,6.0,2.5,11.0,11.0,7.5,5.25,4.25,6.0,1.5,3.5,3.75,1.5,2.75,0.14,0.14,0.95,1114.18,-10.0,23.5
0.04,0.5,0.5,1.0,2.5,0.0,0.0,0.0,2.5,0.5,1.0,0.0,0.5,0.75,-0.3,1.52,0.95,136.91,5.0,-1.9,6.75,3.0,12.0,12.5,7.5,4.5,4.25,5.25,1.25,2.25,3.25,1.0,2.25,0.14,0.14,1.02,1135.47,-12.3,31.9
0.06,1.25,0.5,1.0,0.75,0.0,0.0,0.0,2.5,0.5,1.0,0.0,0.5,0.75,-0.17,1.95,0.7,137.65,4.8,-6.5,7.5,3.25,12.5,12.5,8.0,4.0,4.25,4.75,0.75,1.75,2.75,1.0,2.25,0.14,0.14,1.02,1146.85,-13.3,36.0
0.08,0.0,0.0,1.0,0.0,0.0,0.0,0.25,2.5,0.0,0.75,0.0,0.5,0.75,0.2,4.02,0.7,126.35,-2.9,-40.0,7.75,3.5,13.5,13.5,8.25,3.25,3.75,3.75,0.75,1.75,2.5,1.0,2.0,0.08,0.14,1.14,1155.73,-14.7,39.5
0.1,1.5,1.0,1.75,0.75,0.0,0.0,4.25,5.25,1.25,2.0,0.0,0.0,0.0,0.39,3.7,0.08,161.36,6.8,3.0,8.25,3.5,14.0,13.0,8.0,3.25,3.0,3.5,0.75,1.75,2.25,0.75,1.5,0.08,0.2,1.14,1150.7,-15.3,42.5
0.12,0.0,0.0,0.25,0.0,0.0,0.0,0.0,2.0,0.0,0.0,0.0,0.0,0.75,-0.17,0.64,2.2,132.69,-11.3,-48.4,8.75,3.25,14.5,12.5,7.5,3.0,2.5,3.5,0.75,1.25,2.0,0.75,1.5,0.08,0.2,1.14,1130.11,-16.2,44.1
0.14,0.75,0.0,0.0,0.0,0.0,0.0,2.75,4.0,0.75,2.5,0.75,0.75,2.0,0.2,-0.36,1.08,155.16,-3.4,-49.3,8.75,3.75,14.5,12.5,7.25,2.5,1.0,2.75,0.75,1.0,2.0,0.25,1.0,0.02,0.27,1.14,1086.98,-17.3,49.0
0.16,0.25,0.0,0.25,0.25,0.0,0.0,0.25,3.5,0.75,4.25,1.25,1.75,3.25,0.02,0.14,1.14,181.25,-6.8,-68.8,8.75,3.25,14.5,11.0,5.75,2.0,2.0,2.0,0.0,0.0,2.0,0.0,1.25,0.02,0.27,1.2,1002.51,-19.6,52.9
0.18,0.0,0.0,1.0,0.0,0.0,0.0,0.25,4.0,1.5,4.5,2.5,2.5,4.25,-0.36,0.39,1.08,237.42,-4.3,-69.7,8.0,1.75,12.5,7.25,1.75,0.75,1.5,2.0,0.0,0.0,0.75,0.0,0.25,0.2,0.39,1.33,806.84,-24.2,58.7
0.2,0.0,0.0,0.0,0.0,0.0,0.0,0.25,5.0,2.0,5.75,4.75,3.75,4.75,-0.23,0.14,1.08,294.59,-5.0,-76.5,7.75,0.75,12.5,5.75,0.0,0.75,2.0,1.25,0.0,0.0,0.75,0.0,0.5,0.33,0.52,1.52,611.57,-27.4,58.2
0.22,0.0,0.0,0.0,0.0,0.0,0.0,0.75,5.5,3.0,6.5,5.25,4.5,5.5,-0.17,0.08,0.95,382.96,-4.2,-75.5,6.5,0.25,11.0,4.5,0.0,0.75,2.5,0.75,0.0,0.0,0.75,0.0,0.25,0.33,0.58,1.7,434.99,-28.6,58.7
0.24,0.0,0.75,0.0,1.75,0.0,0.5,0.5,5.75,3.75,7.0,6.0,5.25,5.75,-0.17,0.08,0.95,486.69,-2.5,-64.0,2.75,0.0,8.5,2.5,0.0,0.5,2.0,1.0,0.0,0.0,0.5,0.0,0.0,0.45,1.27,2.77,295.84,-28.4,53.6
0.26,0.5,0.75,1.75,1.75,0.0,0.0,0.75,6.5,4.25,7.25,7.25,5.25,6.25,-0.17,0.02,1.02,588.93,0.0,-57.9,1.25,0.0,6.5,1.0,0.0,0.5,0.75,0.75,0.0,0.0,0.25,0.0,0.0,0.02,1.33,2.89,188.24,-28.5,52.3
0.28,0.5,0.75,2.0,2.25,0.0,1.0,1.0,6.75,4.75,7.25,7.25,5.0,6.25,-0.17,0.02,1.02,679.87,0.0,-53.0,0.0,0.0,4.25,0.5,0.0,0.5,0.75,0.5,0.0,0.25,0.0,0.5,0.0,0.39,-0.23,2.14,78.55,-24.2,33.0
0.3,1.0,0.75,2.0,2.0,0.0,1.25,1.0,7.0,4.5,6.5,6.75,4.5,5.75,-0.17,0.02,0.95,725.09,0.2,-49.5,0.5,0.0,2.0,0.5,0.0,0.5,0.25,0.75,0.0,0.0,0.25,0.0,0.0,1.33,-1.05,1.33,0.0,-18.8,37.4
0.32,1.25,1.0,2.5,3.25,1.0,1.25,1.0,7.0,4.5,6.5,6.5,4.0,5.75,-0.17,0.02,0.95,750.17,1.1,-40.1,0.0,0.0,2.0,1.0,0.0,0.0,0.25,0.75,0.0,0.25,0.0,0.5,0.0,1.64,-1.23,1.7,0.0,-18.7,18.4
0.34,1.5,1.0,2.75,3.75,1.25,1.0,1.0,6.75,4.5,5.5,6.0,3.5,4.5,-0.17,0.02,0.95,726.47,2.6,-33.1,0.75,0.0,2.0,2.0,1.25,0.75,0.75,2.0,0.0,0.0,1.25,0.75,1.0,0.52,-0.73,1.14,0.0,-8.2,5.0
0.36,2.0,1.25,3.25,3.75,0.0,1.75,1.0,6.5,4.0,5.5,5.0,3.0,4.0,-0.17,0.02,0.95,691.1,3.2,-28.5,0.5,0.0,2.0,1.75,0.5,0.75,0.75,2.0,0.0,0.25,1.25,0.75,1.0,0.33,-0.61,0.77,0.0,-7.8,-3.5
0.38,2.0,1.25,3.75,3.75,1.25,1.25,1.0,6.25,3.25,4.25,3.75,1.75,3.25,-0.17,0.02,0.95,614.33,4.3,-16.8,1.0,0.5,2.0,1.75,1.0,0.75,0.75,2.0,0.0,0.25,0.75,0.75,1.0,0.08,-0.42,0.83,47.39,-8.4,10.0
0.4,2.0,1.25,3.75,4.25,2.25,1.5,1.0,6.0,2.75,3.75,2.75,1.5,2.25,-0.17,0.08,0.95,551.54,4.7,-6.7,0.75,0.0,2.0,2.0,1.25,0.75,0.75,2.0,0.0,0.25,1.25,0.75,1.0,-0.17,-0.3,1.08,94.13,-7.7,3.4
0.42,2.25,2.0,3.75,5.5,2.5,1.25,1.0,5.5,2.0,2.5,2.0,1.0,2.0,-0.17,0.08,0.95,495.05,6.5,6.8,0.0,0.0,2.0,1.0,1.25,1.0,0.75,2.0,0.0,0.25,1.25,0.5,1.0,-0.11,-0.11,1.02,125.03,-4.4,-4.5
0.44,2.75,2.25,5.0,6.0,3.25,1.75,1.0,5.25,1.75,2.5,1.5,0.5,1.75,-0.17,0.08,0.95,473.2,7.8,17.1,0.5,0.0,2.0,1.25,1.75,0.75,0.75,2.0,0.0,0.25,1.25,0.5,1.0,0.02,0.02,1.08,142.45,-6.0,2.8
0.46,3.25,2.5,5.25,6.75,4.25,1.5,0.75,5.0,1.5,2.5,1.0,0.75,1.5,-0.17,0.08,0.95,476.27,8.6,22.9,1.0,0.0,1.75,1.25,1.5,0.75,0.5,2.0,0.0,0.25,0.75,0.5,1.0,0.02,0.08,1.14,156.16,-6.2,7.2
0.48,3.75,2.5,5.75,7.5,5.25,1.75,0.75,4.75,1.25,2.25,0.75,0.5,1.25,-0.17,0.08,0.95,499.99,9.4,29.7,0.75,0.0,1.75,1.25,1.0,0.75,0.75,2.0,0.0,0.25,1.25,0.5,1.25,0.08,0.2,1.27,169.79,-6.2,-2.9
0.5,4.75,3.75,6.5,8.5,0.0,2.0,0.5,4.75,1.0,2.5,0.75,0.75,1.5,-0.17,0.14,0.95,514.38,12.4,29.3,0.5,0.0,2.0,1.0,1.25,0.75,0.75,2.0,0.0,0.25,1.0,0.75,0.75,0.08,0.27,1.58,172.88,-6.7,0.6
0.52,5.75,3.75,7.25,8.75,0.0,2.0,0.5,4.5,1.0,2.0,0.5,0.5,1.0,-0.17,0.14,0.95,531.41,14.5,37.2,0.25,0.0,1.75,1.25,1.25,0.75,0.5,2.0,0.0,0.25,0.75,0.25,1.0,0.2,0.64,1.83,169.37,-4.4,2.5
0.54,6.25,4.5,7.25,10.0,0.0,2.0,0.25,4.25,1.0,1.25,0.25,0.75,1.0,-0.17,0.14,1.02,552.58,15.5,42.3,0.25,0.0,1.0,1.25,1.75,0.75,0.5,1.25,0.0,0.25,1.0,0.5,1.0,0.27,1.08,2.02,159.32,-3.2,-0.7
0.56,7.0,5.0,7.75,11.0,0.0,2.0,0.25,3.75,0.75,1.5,0.25,0.5,1.0,-0.23,0.14,1.08,585.7,16.4,46.3,0.0,0.0,1.75,1.0,1.5,0.75,0.5,2.0,0.0,0.25,0.75,0.25,1.5,0.02,1.83,2.58,151.28,-2.3,-5.2
0.58,7.5,5.5,8.5,11.0,0.0,1.25,0.25,3.75,0.5,1.25,0.0,0.5,1.0,-0.23,0.2,1.08,622.24,17.9,50.0,1.0,0.0,1.0,1.0,1.5,0.75,0.5,1.75,0.0,0.25,0.75,0.25,1.25,-0.42,2.58,2.2,143.65,-3.5,2.8
0.6,8.0,6.25,8.5,11.0,0.0,0.0,0.0,3.75,0.5,1.0,0.0,0.75,1.0,-0.23,0.2,1.14,651.34,19.3,51.8,1.25,0.0,1.75,0.75,1.0,0.75,0.5,2.0,0.0,0.25,0.75,0.25,1.0,-1.17,3.58,0.95,145.23,-6.8,6.9
0.62,8.5,6.25,9.0,11.5,0.0,0.0,0.0,3.5,0.25,1.25,0.0,0.0,1.0,-0.23,0.27,1.2,672.34,19.9,55.7,0.0,0.0,1.75,0.75,1.5,0.75,0.5,2.0,0.0,0.25,1.0,0.25,1.0,-1.67,4.33,0.89,143.33,-3.0,-3.1
0.64,8.0,5.5,9.0,9.75,0.0,0.0,0.0,3.5,0.5,1.0,0.0,0.25,1.0,-0.23,0.27,1.2,659.65,20.1,53.4,0.5,0.0,2.0,0.75,1.5,0.75,0.5,2.0,0.0,0.25,0.75,0.75,0.5,-1.3,4.83,0.02,145.9,-6.2,4.9
0.66,8.5,6.25,8.0,11.0,0.0,0.0,0.0,2.0,0.5,1.25,0.0,0.0,1.0,-0.3,0.33,1.27,644.52,20.8,58.5,0.5,0.0,1.75,0.5,1.75,0.75,0.5,2.0,0.0,3.0,2.0,1.75,1.75,-2.17,3.33,-0.11,172.95,-0.6,-31.6
0.68,8.0,5.25,8.25,9.0,0.0,0.0,0.0,0.0,0.25,1.25,0.0,0.0,0.75,-0.42,0.39,1.52,587.79,23.8,64.7,0.0,0.5,0.5,1.25,1.75,0.5,0.25,2.0,0.0,5.75,3.25,5.5,5.75,-0.61,-0.92,1.2,250.3,3.2,-62.9
0.7,7.25,0.0,7.0,8.75,0.0,0.0,0.25,0.0,0.25,0.5,0.0,0.0,1.0,-0.55,0.52,1.7,489.94,26.1,58.9,0.5,0.25,0.75,0.5,1.75,0.5,0.25,2.0,0.5,8.5,6.25,7.0,8.5,-0.3,0.45,1.64,368.82,2.9,-70.7
0.72,4.5,0.0,5.25,5.25,0.0,0.0,0.0,0.0,0.25,1.5,0.0,0.5,0.25,-0.8,1.08,3.02,366.49,24.3,48.4,0.0,0.0,0.0,0.0,0.0,0.75,0.0,3.75,1.25,9.25,7.75,7.25,8.5,0.14,0.77,1.83,513.93,4.7,-83.0
0.74,0.0,0.0,3.75,3.5,0.0,0.0,0.25,0.0,0.0,0.5,0.0,0.0,0.0,-0.8,1.64,3.14,247.88,25.3,50.7,0.0,0.0,0.0,1.0,1.75,2.75,0.0,6.5,1.25,9.75,9.25,7.25,9.0,-0.05,0.14,1.14,688.56,5.3,-67.2
0.76,0.0,0.0,1.0,0.25,0.0,0.0,0.0,0.0,0.0,0.75,0.0,0.0,0.75,-0.48,0.39,2.7,120.5,7.6,-22.5,0.75,0.25,0.0,1.75,2.25,3.25,0.75,7.5,2.0,10.0,9.75,7.25,8.75,0.14,0.14,1.02,842.49,4.1,-58.6
0.78,0.0,0.0,0.0,2.0,0.0,0.0,0.0,0.75,0.5,1.25,0.0,0.25,0.75,-0.73,-0.17,2.45,25.54,0.2,-23.7,0.75,0.25,2.0,2.0,2.5,3.75,0.75,8.0,2.75,10.5,10.5,7.5,8.75,0.2,0.14,1.02,990.47,2.5,-52.8
0.8,0.0,0.0,1.75,3.0,0.0,0.0,0.0,1.0,2.25,1.5,0.0,0.5,0.75,-0.42,-1.42,3.27,3.42,9.4,-7.8,1.0,0.5,2.25,3.25,2.5,4.25,1.0,8.5,3.25,10.0,11.0,7.25,8.75,0.2,0.08,0.95,1107.23,1.6,-47.6
0.82,2.25,0.0,1.5,3.25,0.0,0.0,3.75,4.75,4.0,1.25,0.0,0.0,0.75,-0.42,-0.92,1.77,66.01,9.5,1.5,1.5,0.25,2.25,2.75,3.25,4.5,1.25,8.75,3.25,9.75,10.5,7.0,8.75,0.2,0.08,0.95,1186.67,1.7,-45.6
0.84,0.0,0.0,0.75,1.25,0.0,0.0,2.75,5.0,0.75,1.0,0.0,0.5,0.75,-0.73,-0.73,0.45,89.77,-0.1,-24.4,2.25,1.0,2.25,3.25,3.75,4.5,1.5,8.5,3.25,9.25,9.75,6.5,8.25,0.2,0.08,0.95,1210.19,0.9,-38.8
0.86,0.5,0.0,1.0,1.75,0.0,0.0,0.25,1.5,0.5,1.75,0.0,0.0,0.25,-0.55,-0.67,0.45,90.78,5.5,-2.6,1.25,0.75,2.75,3.0,4.25,5.0,1.5,8.5,3.0,8.5,8.75,5.75,7.75,0.2,0.08,0.95,1173.54,1.5,-37.1
0.88,0.0,0.0,0.0,0.0,0.0,0.0,0.0,0.0,0.0,0.0,0.0,0.75,0.0,-0.42,-0.55,0.64,38.57,8.8,-109.8,1.25,0.25,2.5,3.25,5.25,5.5,1.5,8.0,2.75,7.75,8.0,5.0,6.5,0.2,0.08,0.95,1089.4,1.7,-32.3
0.9,0.0,0.0,1.75,2.25,0.0,0.0,0.75,0.0,0.75,1.0,0.0,0.5,0.0,-0.42,-0.42,0.89,29.07,17.6,14.4,1.25,0.75,3.0,3.25,5.25,5.5,1.25,7.75,2.0,6.5,7.25,3.5,5.5,0.2,0.08,0.95,964.16,1.3,-24.8
0.92,0.0,0.0,0.0,0.0,0.0,0.0,1.5,0.0,0.0,0.0,0.0,0.0,0.0,-0.42,-0.23,0.95,0.95,32.4,27.3,1.75,0.75,3.0,4.25,5.5,5.5,1.0,7.25,2.0,5.75,5.75,2.5,4.5,0.2,0.14,0.95,843.24,0.6,-15.7
0.94,0.0,0.0,0.0,0.0,0.0,0.0,0.0,0.0,0.0,0.0,0.0,0.0,0.0,-0.36,-0.05,1.02,0.0,0.0,0.0,2.0,0.75,3.25,5.25,5.5,5.5,1.0,7.0,1.5,5.0,5.25,2.25,4.25,0.2,0.14,0.95,753.27,-0.2,-10.3
0.96,0.0,0.0,0.0,0.0,0.0,0.0,0.0,0.0,1.75,1.0,0.0,0.0,0.0,-0.36,0.14,1.08,3.87,1.9,-52.1,2.0,1.5,4.0,5.25,5.75,5.75,1.0,6.5,1.25,4.25,4.0,1.75,3.0,0.2,0.14,0.95,689.65,-1.3,0.3
0.98,0.0,0.0,0.0,0.0,0.0,0.0,2.75,0.0,1.0,0.0,0.0,0.25,0.0,-0.36,0.27,1.27,13.27,22.3,-11.4,2.0,1.5,4.75,6.5,6.5,6.0,0.75,6.25,1.25,3.25,3.25,1.25,2.5,0.2,0.14,0.89,650.5,-2.4,9.5
1.0,2.25,0.0,0.0,0.0,0.0,0.0,0.0,0.0,0.5,0.0,0.0,0.0,0.0,-0.42,0.33,1.77,17.03,30.6,71.9,2.5,1.75,5.0,7.25,7.25,6.5,1.0,5.75,0.75,2.25,3.0,1.0,2.5,0.2,0.14,0.95,639.9,-3.4,16.9
1.02,0.0,0.0,0.0,0.0,0.0,0.0,0.0,0.0,2.25,0.0,0.0,0.0,0.0,-0.42,0.45,1.95,12.25,12.2,-38.5,3.25,2.0,6.25,9.0,7.5,6.5,1.0,5.75,0.75,1.75,3.0,1.0,2.25,0.2,0.14,0.95,667.97,-5.5,22.8
1.04,0.0,0.0,0.0,1.75,0.0,0.0,0.0,0.0,0.0,0.0,0.75,0.0,0.0,-0.55,0.7,2.39,12.76,15.3,20.0,3.75,2.5,7.25,10.5,8.5,6.5,1.0,5.75,0.75,1.75,2.0,1.0,2.25,0.2,0.14,0.95,731.09,-6.5,28.3
1.06,0.0,0.0,0.0,0.0,0.0,0.0,0.5,0.0,0.0,0.0,0.0,0.0,0.0,-0.61,1.2,2.83,0.68,32.4,27.3,5.0,3.25,8.25,12.0,8.5,6.5,1.0,4.75,0.75,1.5,2.0,0.75,2.0,0.2,0.14,0.95,820.12,-8.6,34.9
1.08,0.0,0.0,0.0,0.5,0.0,0.0,0.0,0.0,1.5,1.0,0.0,0.5,0.0,-0.55,2.2,2.89,22.04,4.5,-44.8,5.75,3.25,9.0,12.5,9.75,6.5,1.0,4.75,0.25,1.0,2.0,0.75,2.0,0.14,0.2,1.02,916.81,-9.2,38.2
1.1,1.0,0.0,1.0,0.25,0.0,0.0,0.25,0.0,0.0,1.75,0.0,0.0,0.0,-0.48,3.45,1.77,39.12,12.9,9.8,6.5,2.5,9.25,12.5,9.75,6.5,0.75,3.75,0.0,0.0,1.75,0.75,1.75,0.14,0.2,1.08,975.35,-10.6,43.0
1.12,0.0,0.0,0.0,0.0,0.0,0.0,1.0,0.0,0.0,0.0,0.0,0.0,0.0,-0.3,4.77,0.64,37.35,32.4,27.3,7.5,4.25,10.5,14.0,9.75,6.0,0.25,3.5,0.0,0.0,1.5,0.75,1.25,0.14,0.2,1.2,1043.93,-12.3,48.5
1.14,0.0,0.0,0.0,0.0,0.0,0.0,0.0,0.0,0.0,0.0,0.0,0.0,0.0,0.27,5.45,0.08,22.13,0.0,0.0,7.0,3.25,11.5,12.5,9.75,1.5,0.75,3.5,0.0,0.25,1.0,0.0,1.25,0.14,0.27,1.2,1030.78,-15.2,50.9
1.16,0.0,0.0,0.0,0.75,0.0,0.0,0.0,0.0,0.0,0.0,0.0,0.0,0.0,1.33,5.33,0.39,16.99,17.2,57.9,7.5,3.25,10.5,11.5,8.75,0.75,0.25,2.0,0.0,0.0,0.0,0.0,0.5,0.08,0.27,1.2,957.8,-17.6,60.1
1.18,0.0,0.0,0.0,0.0,0.0,0.0,0.0,0.0,0.0,0.0,0.0,0.0,0.5,0.27,-0.8,0.08,8.29,-13.7,-109.8,7.5,2.0,10.5,11.0,8.5,2.75,0.25,2.0,0.0,0.0,0.25,0.0,0.5,0.14,0.33,1.2,873.45,-16.2,57.4
1.2,0.0,0.0,0.0,0.75,0.0,0.0,0.0,0.0,0.0,3.75,0.0,3.5,2.5,0.08,-0.36,1.02,64.57,-4.6,-85.2,7.5,3.25,10.5,10.5,8.0,2.75,0.25,0.75,0.0,0.0,0.5,0.0,0.25,0.2,0.33,1.33,804.6,-17.3,61.5
1.22,0.0,0.0,0.0,0.0,0.0,0.0,0.0,3.75,0.25,6.5,3.0,5.25,6.25,0.02,0.27,2.52,194.21,-6.8,-85.6,6.75,2.5,9.25,9.0,7.25,2.5,0.75,0.75,0.0,0.0,0.0,0.0,0.25,0.33,0.45,1.89,715.85,-17.3,62.0
1.24,0.0,0.0,0.0,0.0,0.0,0.0,0.0,5.0,0.5,7.25,6.0,5.75,7.25,-0.61,0.45,2.64,322.11,-5.6,-83.4,5.0,0.5,7.75,5.75,5.25,1.75,0.75,0.5,0.0,0.0,0.0,0.0,0.75,0.39,0.83,2.2,571.53,-17.9,57.1
1.26,0.0,0.0,0.0,0.0,0.0,0.0,0.5,5.75,1.25,7.75,0.0,5.0,7.5,-0.36,0.45,1.27,420.07,-9.2,-81.1,2.5,0.0,5.5,3.0,1.5,1.0,0.75,0.25,0.0,0.0,0.0,0.0,0.25,0.33,2.14,3.14,376.74,-22.4,58.0
1.28,0.0,0.0,0.0,0.0,0.0,0.0,0.25,6.5,3.0,8.0,0.0,5.25,7.0,-0.11,0.02,1.02,497.32,-8.2,-77.7,0.0,0.0,4.0,2.75,0.0,0.75,0.25,0.5,0.0,0.0,0.0,0.0,0.25,0.08,1.14,2.7,225.88,-21.3,46.3
1.3,0.0,0.0,0.5,1.75,0.0,0.0,0.25,6.75,3.75,8.0,7.5,5.75,7.0,-0.17,0.02,0.95,593.95,-2.6,-69.0,0.0,0.0,2.25,0.5,0.0,0.75,0.5,0.5,0.0,0.0,0.0,0.0,0.25,0.45,-0.55,2.39,79.71,-17.0,34.0
1.32,1.0,0.75,0.0,3.0,0.0,1.25,0.5,7.0,4.5,8.0,7.5,6.0,7.0,-0.17,-0.05,0.95,692.63,-1.7,-57.3,0.0,0.0,0.5,0.5,0.0,0.75,0.0,0.5,0.0,0.0,0.0,0.0,0.25,0.83,-0.55,2.77,0.0,-0.2,15.2
1.34,0.0,1.0,1.25,3.75,0.0,1.5,0.75,7.25,4.75,8.0,7.5,5.75,7.0,-0.17,0.02,0.95,793.53,-1.0,-53.3,0.0,0.0,0.0,0.0,0.0,0.75,0.0,0.5,0.0,0.0,0.0,0.0,0.25,0.58,-1.23,2.2,0.0,19.2,-16.0
1.36,0.0,1.0,0.0,3.75,0.0,2.0,0.75,7.25,4.75,7.25,7.5,5.25,6.25,-0.17,-0.05,1.02,843.1,-2.0,-53.7,0.0,0.0,0.0,0.5,0.0,0.75,0.0,0.5,0.0,0.0,0.0,0.0,0.0,0.45,-0.98,1.52,0.0,9.0,20.2
1.38,0.5,1.0,2.75,3.75,0.0,2.0,0.75,7.0,4.5,6.5,6.75,3.75,5.75,-0.17,0.02,0.95,833.83,0.6,-41.7,0.0,0.0,0.0,0.5,0.0,0.5,0.0,0.5,0.0,0.0,0.0,0.0,0.25,0.45,-0.73,0.77,0.0,7.8,-0.7
1.4,0.75,1.25,2.75,4.0,0.0,2.5,0.75,7.0,3.75,5.5,5.75,3.25,4.5,-0.17,0.02,0.95,763.51,1.0,-34.1,0.0,0.0,0.0,0.5,0.0,0.5,0.0,0.5,0.0,0.0,0.0,0.0,0.0,0.33,-0.55,0.89,0.0,6.8,18.0
1.42,0.75,1.25,2.0,4.0,2.25,2.75,0.5,6.5,3.25,4.5,4.25,2.5,3.25,-0.17,0.02,0.95,669.84,0.3,-22.9,0.0,0.0,0.0,0.5,0.0,0.5,0.0,0.5,0.0,0.0,0.0,0.0,0.5,0.27,-0.36,0.95,0.0,8.5,-14.6
1.44,1.0,1.5,1.75,5.0,3.5,3.0,0.5,6.5,2.75,4.25,3.25,1.5,2.25,-0.17,0.02,0.95,585.5,0.3,-9.6,0.25,0.0,0.0,0.5,0.0,0.25,0.0,0.25,0.0,0.0,0.0,0.0,0.5,0.27,-0.05,0.89,0.0,-0.3,-2.8
1.46,0.75,2.0,2.75,6.0,3.5,2.75,0.5,6.25,2.0,3.5,2.25,1.5,2.25,-0.17,0.08,0.95,526.97,1.9,-1.2,0.0,0.0,0.0,0.5,0.0,0.25,0.0,0.5,0.0,0.0,0.0,0.0,0.25,0.27,0.14,0.89,0.0,5.4,-6.1
1.48,0.75,2.5,2.25,6.0,5.5,3.25,0.5,6.0,1.5,2.75,1.5,1.5,2.0,-0.17,0.08,0.95,505.01,1.2,7.7,0.0,0.0,0.0,0.5,0.0,0.25,0.0,0.25,0.0,0.0,0.0,0.0,0.0,0.2,0.27,1.02,0.0,0.5,28.4
1.5,0.25,2.5,3.5,7.0,5.5,3.0,0.25,5.5,1.5,2.5,1.5,1.0,2.0,-0.17,0.08,0.95,500.66,2.8,12.3,0.0,0.0,0.0,0.5,0.0,0.5,0.0,0.5,0.0,0.0,0.0,0.0,0.25,0.14,0.33,1.33,1.49,7.8,-0.7
1.52,1.25,2.5,4.0,7.5,6.0,3.0,0.25,5.5,1.0,2.5,0.75,0.75,2.0,-0.17,0.08,0.95,502.91,3.9,19.5,0.0,0.0,0.0,0.5,0.0,0.0,0.0,0.25,0.0,0.0,0.0,0.0,0.25,0.2,0.45,1.7,10.13,-1.2,-7.4
1.54,2.0,3.75,3.75,7.5,2.75,3.25,0.25,5.25,1.0,2.5,0.75,0.75,1.5,-0.17,0.08,0.95,488.43,5.5,22.4,0.0,0.0,0.0,0.0,0.0,0.5,0.0,0.5,0.0,0.0,0.0,0.0,0.25,0.27,0.77,1.83,15.83,18.4,-25.7
1.56,2.25,3.75,4.25,8.75,0.0,3.5,0.25,4.75,1.0,2.25,0.5,0.75,1.5,-0.17,0.14,0.95,473.79,7.8,24.3,0.0,0.0,0.0,0.25,0.0,0.5,0.0,0.25,0.0,0.0,0.0,0.0,0.25,0.33,1.14,2.02,17.48,11.2,-5.4
1.58,3.0,4.25,4.25,8.75,0.0,3.25,0.0,4.75,0.75,2.0,0.25,0.5,1.25,-0.23,0.14,0.95,461.64,8.8,30.9,0.25,0.0,1.75,1.25,1.75,1.0,0.5,2.0,0.0,0.25,0.75,0.25,1.0,0.2,1.52,2.89,71.03,-3.4,5.9
1.6,3.75,5.0,0.0,9.75,0.0,2.5,0.0,4.5,0.75,1.75,0.0,0.5,1.25,-0.23,0.2,1.02,438.35,6.7,33.1,0.75,0.0,1.75,1.25,1.75,1.0,0.25,2.0,0.0,0.25,0.75,0.25,0.5,-0.05,1.89,2.89,116.47,-5.3,15.3
1.62,2.5,5.25,0.0,10.0,0.0,2.5,0.0,4.0,0.5,1.75,0.0,0.5,1.0,-0.23,0.2,1.08,411.81,6.2,34.4,0.0,0.0,1.75,0.0,1.75,0.5,0.5,0.25,0.0,0.0,0.0,0.0,0.25,-0.36,3.08,1.83,130.44,-10.2,40.2
1.64,0.0,6.25,0.0,10.0,0.0,3.0,0.0,3.75,0.5,1.25,0.0,0.5,1.0,-0.23,0.2,1.14,385.44,4.1,34.1,0.0,0.0,0.0,0.25,0.0,0.5,0.0,0.25,0.0,0.0,0.0,0.0,0.0,-0.36,3.64,-0.05,104.25,10.6,21.9
1.66,0.0,6.25,0.0,10.0,0.0,1.75,0.0,3.25,0.5,1.25,0.0,0.5,1.25,-0.23,0.2,1.08,360.75,5.6,34.1,0.0,0.0,0.0,0.5,0.0,0.5,0.0,0.5,0.0,0.0,0.0,0.0,0.25,-1.42,4.95,0.08,73.37,7.8,-0.7
1.68,6.25,6.75,6.0,10.0,0.0,0.0,0.0,3.0,0.5,1.0,0.0,0.5,1.0,-0.23,0.27,1.08,393.94,18.0,52.5,1.0,0.0,0.0,0.75,0.5,1.25,0.25,2.0,0.0,0.25,0.75,0.25,1.0,-2.23,4.14,0.2,76.74,2.5,-10.2
1.7,6.25,6.25,7.0,9.75,0.0,0.0,0.0,3.0,0.25,1.25,0.0,0.5,1.0,-0.36,0.33,1.2,440.65,18.4,51.8,0.25,0.0,1.0,1.0,1.75,0.75,0.25,1.5,0.0,1.5,1.0,1.0,1.25,-0.36,4.64,0.95,110.19,0.0,-18.6
1.72,6.75,0.0,0.0,10.0,0.0,0.0,0.0,3.0,0.25,1.0,0.0,0.5,1.0,-0.42,0.39,1.39,409.31,14.5,37.8,0.75,0.0,0.5,0.5,1.75,0.75,0.25,1.5,0.0,5.75,2.75,5.0,4.5,-0.11,-0.05,0.89,211.26,2.9,-61.4
1.74,6.25,0.0,6.0,8.75,0.0,0.0,0.0,2.0,0.0,1.0,0.0,0.5,1.0,-0.55,0.39,1.64,384.56,20.9,45.0,0.0,0.0,0.5,0.0,1.75,0.75,0.25,2.0,0.25,7.75,5.75,6.25,8.25,-0.23,0.39,1.52,329.17,4.5,-75.5
1.76,3.0,0.0,3.75,7.0,0.0,0.0,0.0,0.0,0.25,1.0,0.0,0.5,1.0,-0.67,0.52,1.89,311.71,20.8,40.6,0.25,0.0,0.0,0.0,0.25,1.25,0.0,4.0,0.75,8.75,7.75,6.25,8.25,-0.36,0.83,3.7,476.77,5.2,-78.8
1.78,0.25,0.0,0.75,4.0,0.0,0.0,0.0,0.0,0.75,1.0,0.0,0.0,0.75,-1.05,1.89,2.83,230.36,12.0,16.0,0.0,0.0,0.0,1.75,1.5,3.25,0.0,5.75,1.5,9.0,8.0,6.25,8.25,0.08,0.27,1.39,637.25,5.3,-63.0
1.8,0.0,0.0,0.0,0.0,0.0,0.0,0.0,0.0,0.25,0.75,0.0,0.0,0.25,-0.67,1.27,2.77,118.41,-9.8,-75.3,0.75,0.25,0.5,3.0,2.5,3.5,1.0,7.0,2.0,9.0,8.5,5.75,7.75,0.08,0.14,1.02,779.06,3.3,-50.1
1.82,0.0,0.0,0.25,0.0,0.0,0.0,0.0,0.5,0.0,0.0,0.0,0.0,0.0,-0.36,-0.55,1.95,25.29,1.9,-4.8,1.75,0.5,2.25,3.25,3.25,4.5,1.0,7.75,2.75,9.0,9.0,5.5,7.0,0.2,0.2,1.02,903.14,1.3,-38.9
1.84,0.0,0.0,0.0,0.0,0.0,0.0,2.0,2.25,0.0,0.0,0.0,0.0,0.0,-0.11,-0.3,3.45,0.0,-2.1,-19.0,3.0,1.25,4.75,3.5,5.0,5.25,1.5,8.0,3.25,8.5,9.0,5.0,6.75,0.2,0.14,1.02,1033.7,-1.0,-25.3
1.86,0.0,0.0,0.0,0.0,0.0,0.0,0.0,0.0,0.0,0.0,0.0,0.0,0.0,-0.05,-0.92,2.08,0.0,0.0,0.0,3.25,1.25,5.5,5.25,5.5,5.5,1.75,8.0,3.25,8.0,8.5,3.75,5.75,0.2,0.14,1.02,1142.34,-2.1,-16.7
1.88,0.0,0.0,0.0,0.0,0.0,0.0,0.0,0.0,0.0,0.0,0.0,0.0,0.0,-0.36,-0.42,0.77,0.0,0.0,0.0,3.75,1.75,6.75,6.25,5.5,5.5,2.0,7.5,2.75,6.5,7.25,2.5,4.5,0.27,0.08,1.02,1189.33,-4.0,-5.3
1.9,0.0,0.0,0.0,0.0,0.0,0.0,0.0,0.0,0.0,0.0,0.0,0.0,0.0,-0.48,-0.48,0.27,0.0,0.0,0.0,4.5,1.75,7.5,7.25,5.75,5.5,2.0,6.5,2.0,4.75,5.25,1.75,3.0,0.2,0.08,0.95,1158.83,-6.1,8.0
1.92,0.0,0.0,0.0,0.0,0.0,0.0,0.0,0.0,0.0,0.75,0.0,0.0,0.0,-0.23,-0.42,0.27,0.0,-15.6,-75.5,5.5,2.25,8.5,7.5,6.5,5.5,1.75,5.75,1.25,1.75,3.25,1.0,2.25,0.2,0.08,1.02,1078.71,-8.8,24.9
1.94,0.0,0.0,0.0,0.0,0.0,0.0,0.0,0.0,0.0,0.75,0.0,0.0,0.0,-0.17,-0.3,0.39,0.0,-15.6,-75.5,6.5,3.0,9.0,8.75,6.5,4.5,1.5,4.75,0.75,1.75,2.0,0.75,1.25,0.2,0.08,0.95,991.6,-11.2,36.0
1.96,0.0,0.0,0.0,0.0,0.0,0.0,0.0,0.0,0.0,0.75,0.0,0.0,0.0,-0.17,0.2,0.45,0.0,-15.6,-75.5,7.0,3.0,9.25,7.25,5.75,3.75,1.0,3.5,0.75,0.5,2.0,0.75,1.0,0.14,0.2,1.02,877.36,-13.7,41.7
1.98,0.0,0.0,0.0,0.0,0.0,0.0,0.0,0.0,0.0,0.75,0.0,0.0,0.0,-0.11,0.7,0.2,0.0,-15.6,-75.5,7.25,2.75,8.75,5.25,5.5,2.75,0.75,3.25,0.25,0.0,1.75,0.0,0.75,0.08,0.14,1.08,753.23,-15.2,48.2
2.0,0.0,0.0,0.0,0.0,0.0,0.0,0.0,0.0,0.0,0.75,0.0,0.0,0.0,-0.17,1.08,0.14,0.0,-15.6,-75.5,7.5,3.0,9.75,7.25,3.75,2.0,0.5,2.5,0.0,0.5,1.5,0.25,1.0,0.14,0.27,0.89,662.91,-17.6,49.1
2.02,0.0,0.0,0.0,0.0,0.0,0.0,0.0,0.0,0.0,0.0,0.0,0.0,0.0,-0.23,1.33,0.02,0.46,0.0,0.0,7.75,2.5,10.5,7.25,5.5,3.25,0.5,2.0,0.0,0.0,1.5,0.0,0.25,0.08,0.27,0.95,612.43,-17.4,55.2
2.04,0.0,0.0,0.0,0.0,0.0,0.0,3.5,0.0,1.25,0.0,0.0,0.0,0.0,-0.05,1.33,0.02,19.44,23.8,-0.5,8.25,2.0,10.5,7.25,5.5,3.25,0.75,2.0,0.0,0.25,2.0,0.0,0.75,0.08,0.27,0.95,598.83,-17.0,50.9
2.06,0.0,0.0,0.0,0.0,0.0,0.0,3.5,0.0,0.0,0.0,0.0,0.0,0.0,-0.3,1.39,0.39,24.85,32.4,27.4,8.25,1.75,10.0,6.5,4.5,1.0,0.5,2.0,0.0,0.0,2.0,0.0,1.0,0.02,0.33,0.89,568.99,-19.6,50.9
2.08,0.0,0.0,0.0,0.0,0.0,0.0,3.25,0.0,0.0,0.0,0.0,0.0,0.0,-0.42,2.39,0.58,30.05,32.4,27.4,8.5,2.75,9.25,7.25,2.25,1.0,0.25,1.0,0.0,0.25,1.25,0.25,1.0,0.02,0.27,0.95,532.81,-21.6,55.6
2.1,0.0,0.0,0.0,0.0,0.0,0.0,0.0,0.0,0.0,0.0,0.0,0.0,0.0,-0.98,6.52,-7.48,23.39,0.0,0.0,8.75,2.5,11.5,7.0,3.25,0.5,0.25,1.5,0.0,0.25,1.0,0.5,1.0,0.02,0.33,1.08,521.3,-22.0,54.6
2.12,0.0,0.0,0.25,1.25,0.0,0.0,0.0,1.75,0.25,0.25,0.0,0.0,0.0,-0.8,0.27,5.77,35.69,0.5,-1.2,9.25,1.0,11.5,5.25,2.5,1.0,0.0,1.75,0.0,0.25,1.25,0.25,0.75,0.02,0.33,1.27,501.11,-22.9,53.7
2.14,0.0,0.0,0.0,0.0,0.0,0.0,0.0,0.0,0.0,0.0,0.0,0.5,0.75,-0.48,1.83,-3.98,32.47,-4.8,-109.8,9.25,1.75,10.5,6.75,1.75,2.25,0.0,0.25,0.0,0.0,0.5,0.0,0.75,-0.05,0.39,0.89,491.93,-23.4,63.0
2.16,0.25,0.0,0.75,0.0,0.0,0.0,0.0,0.25,0.0,0.5,0.0,0.0,0.0,-3.36,2.33,-1.73,35.5,14.6,12.7,9.25,2.25,11.0,6.75,2.25,2.0,0.0,0.75,0.0,0.0,1.0,0.0,1.0,-0.11,0.39,0.89,500.24,-22.3,59.1
2.18,0.0,0.0,0.0,0.0,0.0,0.0,0.0,0.0,0.0,0.75,0.0,0.0,0.0,-2.42,0.08,-0.3,28.04,-15.6,-75.5,9.25,2.5,11.5,6.0,1.0,2.0,0.0,0.25,0.0,0.25,0.0,0.25,0.0,-0.11,0.45,1.27,495.08,-25.4,68.1
2.2,0.0,0.0,0.25,0.0,0.0,0.0,0.0,0.0,0.0,0.25,0.0,0.0,0.0,-0.8,-0.98,0.58,21.14,11.6,-6.2,9.0,2.5,12.0,6.0,1.5,0.75,0.0,0.5,0.0,0.0,0.75,0.0,0.25,-0.11,0.45,1.52,494.76,-26.2,65.8
2.22,0.0,0.0,0.25,0.0,0.0,0.0,0.0,0.25,0.0,0.25,0.0,0.0,0.25,0.08,-1.11,0.52,15.07,-1.7,-40.5,7.75,0.75,9.25,4.75,0.0,0.75,0.75,0.25,0.0,0.0,0.0,0.0,0.25,-0.17,0.52,1.83,432.12,-29.1,68.5
2.24,0.0,0.0,0.25,0.0,0.0,0.0,0.0,0.0,0.0,0.0,0.0,0.0,0.0,0.89,-0.48,0.14,9.48,38.2,60.9,6.75,1.0,9.25,4.5,0.0,2.0,1.5,0.5,0.0,0.25,0.75,0.5,1.0,-0.48,1.02,1.77,392.25,-23.7,51.3
2.26,0.0,0.0,0.5,0.0,0.0,0.0,0.0,1.5,0.0,0.0,0.0,0.0,0.25,1.02,0.52,-0.36,16.67,-3.9,-24.2,5.5,0.5,7.5,3.25,0.0,1.25,1.5,0.75,0.0,0.25,0.75,0.5,1.0,-0.86,0.95,1.33,333.79,-23.6,46.1
2.28,0.0,0.0,0.25,0.0,0.0,0.0,0.0,0.0,0.0,0.0,0.0,0.0,0.0,0.39,1.52,-0.36,11.01,38.2,60.9,3.75,0.5,6.5,3.0,0.0,1.0,1.25,0.5,0.0,0.25,0.75,0.25,1.0,-0.67,0.08,0.7,287.76,-23.1,44.0
2.3,0.0,0.0,0.0,0.0,0.0,0.0,0.0,0.0,0.0,0.0,0.0,0.0,0.0,0.27,0.83,0.39,8.68,0.0,0.0,2.5,0.25,5.0,3.0,0.25,1.0,0.75,0.5,0.0,0.25,0.75,0.25,1.0,-0.67,-0.05,0.27,242.65,-20.2,37.6
2.32,0.0,0.0,0.0,0.0,0.0,0.0,0.0,1.5,0.0,0.0,0.0,0.0,0.0,-0.92,1.77,1.08,10.08,-16.7,-38.8,1.5,0.0,4.75,2.75,1.25,0.5,0.75,0.5,0.0,0.0,0.75,0.0,1.0,-0.23,-0.11,-0.42,201.78,-19.4,37.8
2.34,0.0,0.0,0.25,0.0,0.0,0.0,0.0,1.75,0.0,0.0,0.0,0.0,0.0,-0.73,1.39,0.08,16.82,-9.7,-25.9,0.5,0.0,2.0,0.5,0.0,0.75,0.25,0.25,0.0,0.0,0.0,0.0,0.25,0.08,0.2,-0.55,122.27,-19.1,43.5
2.36,0.25,0.0,0.25,0.0,0.0,0.0,0.0,1.0,0.0,0.0,0.0,0.0,0.0,-0.73,1.45,0.39,19.42,0.8,-0.1,0.0,0.0,2.0,2.0,0.0,0.75,0.25,0.25,0.0,0.0,0.0,0.0,0.25,-0.23,1.08,-0.92,66.35,-17.2,43.0
2.38,0.0,0.0,0.25,0.0,0.0,0.0,0.0,1.5,0.25,0.0,0.0,0.0,0.0,-1.17,2.02,-0.17,27.46,-6.1,-25.9,0.25,0.0,2.0,0.5,1.5,0.75,0.25,0.25,0.0,0.25,0.0,0.25,0.5,-0.11,0.64,-1.36,28.39,-9.7,28.0
2.4,0.0,0.0,0.0,0.0,0.0,0.0,0.0,2.0,0.25,0.25,0.0,0.0,0.25,-0.42,2.7,-0.3,35.92,-13.8,-48.7,0.5,0.25,2.0,1.75,1.75,0.75,0.5,0.5,0.0,0.0,0.75,0.25,0.5,0.77,0.45,-1.3,35.28,-11.4,29.6
2.42,0.0,0.0,0.5,0.0,0.0,0.0,0.0,1.75,0.25,0.75,0.0,0.0,0.75,-0.42,3.33,-0.05,49.38,-7.1,-46.4,1.25,0.0,2.0,1.25,1.75,1.0,0.25,0.5,0.0,0.25,1.0,0.25,1.0,1.02,2.2,-1.11,61.89,-9.7,19.5
2.44,0.0,0.0,0.25,0.0,0.0,0.0,0.0,0.0,0.0,0.5,0.0,0.0,0.25,-1.11,1.7,0.64,43.96,-1.5,-49.6,0.75,0.0,2.0,1.25,1.5,0.75,0.25,0.75,0.0,0.25,0.75,0.25,1.25,1.2,5.45,-0.05,89.16,-8.4,12.0
2.46,0.0,0.0,0.25,0.25,0.0,0.0,0.0,0.0,0.0,0.0,0.0,0.0,0.0,-0.86,0.27,-0.23,34.42,27.6,59.4,1.25,0.25,2.0,1.0,1.75,0.75,0.25,0.5,0.0,0.25,0.75,0.25,1.25,0.02,2.58,0.58,113.36,-9.8,19.2
2.48,0.0,0.0,0.25,0.0,0.0,0.0,0.0,0.0,0.0,0.0,0.0,0.0,0.25,0.58,-1.8,-1.23,21.32,12.2,-24.4,1.0,0.0,1.75,0.5,1.5,1.0,0.25,1.5,0.0,0.0,0.75,0.0,0.0,-0.86,-0.23,-0.3,113.82,-8.4,29.8
2.5,0.0,0.0,0.0,0.0,0.0,0.0,0.0,0.0,0.0,0.0,0.0,0.0,0.25,1.08,-2.36,-0.3,10.88,-13.7,-109.8,0.5,0.0,0.0,0.0,0.5,1.25,0.5,0.75,0.0,0.25,0.75,0.5,1.25,0.83,-3.92,-0.8,104.82,4.4,-29.3
2.52,0.0,0.0,0.0,1.0,0.0,0.0,0.0,0.5,0.25,0.0,0.0,0.0,0.25,0.58,-1.86,0.14,15.66,4.4,1.7,0.75,0.25,1.75,1.25,1.5,2.0,0.75,0.75,0.0,0.25,0.75,0.5,1.0,-0.05,-2.55,0.77,122.73,-5.6,15.6
2.54,1.5,0.0,0.0,1.25,0.0,0.0,0.0,0.0,2.75,0.25,0.0,0.0,1.0,0.14,0.08,0.02,47.35,12.9,-3.5,0.75,0.0,1.75,1.25,1.5,0.75,0.5,0.5,0.25,0.5,0.75,0.25,1.0,-0.3,-0.3,0.58,133.8,-8.6,11.9
2.56,0.0,0.0,1.5,0.0,0.0,0.0,4.5,0.0,0.0,0.0,0.0,0.0,0.0,-0.17,2.14,-0.3,61.42,34.8,41.4,0.75,0.0,1.75,0.5,1.5,0.75,0.5,0.75,0.0,0.0,0.75,0.25,1.0,-0.55,2.27,0.33,142.27,-8.4,12.7
2.58,0.0,0.0,0.0,0.0,0.0,0.0,0.0,0.0,0.0,0.0,0.0,0.0,0.0,-0.17,2.95,-0.98,50.58,0.0,0.0,1.0,0.0,1.75,0.5,1.5,0.75,0.5,0.75,0.0,0.0,0.75,0.25,1.0,-0.67,4.2,0.33,145.15,-9.1,15.0
2.6,0.0,0.0,0.0,0.0,0.0,0.0,0.0,0.0,0.0,0.0,0.0,0.0,0.0,-0.61,2.7,-0.98,30.53,0.0,0.0,0.75,0.0,1.75,0.75,1.25,0.75,0.5,0.75,0.0,0.25,0.75,0.25,1.0,-0.48,3.2,-0.55,139.74,-8.4,10.2
2.62,0.0,0.0,0.0,0.0,0.0,0.0,0.0,0.0,0.0,0.0,0.0,0.0,0.0,-0.73,2.2,-0.05,10.29,0.0,0.0,0.75,0.0,1.5,1.0,1.0,0.75,0.5,0.5,0.0,0.25,1.0,0.25,1.0,-0.11,2.2,-0.67,131.16,-9.0,7.6
2.64,0.0,0.0,0.0,0.0,0.0,0.0,2.0,0.0,0.25,0.0,0.0,0.0,0.0,-0.48,1.7,0.14,4.7,28.2,13.8,1.0,0.0,1.25,0.75,0.0,0.75,0.5,0.5,0.0,0.25,0.75,0.25,1.0,0.08,1.77,-0.55,117.38,-10.5,1.8
2.66,0.0,0.0,0.0,0.0,0.0,0.0,2.25,0.0,0.0,0.0,0.0,0.0,0.0,-0.42,1.33,0.33,7.41,32.4,27.3,0.75,0.0,1.5,0.5,1.0,0.75,0.25,0.5,0.0,0.25,0.75,0.25,1.0,-0.05,1.7,0.02,113.37,-8.0,6.5
2.68,0.0,0.0,0.0,0.0,0.0,0.0,0.0,0.0,0.0,0.0,0.0,0.0,0.0,-0.48,1.33,0.52,9.35,0.0,0.0,0.5,0.0,1.5,0.5,1.0,0.75,0.5,0.5,0.0,0.25,0.75,0.25,1.0,-0.05,1.7,0.2,109.29,-7.5,3.9
2.7,0.0,0.0,0.0,0.0,0.0,0.0,0.0,0.0,0.0,0.0,0.0,0.0,0.0,-0.42,1.27,0.45,4.18,0.0,0.0,1.0,0.0,0.5,0.5,1.5,0.75,0.25,0.5,0.0,0.25,0.75,0.5,1.0,0.02,1.58,0.2,109.29,-3.8,1.6
2.72,0.0,0.0,0.0,0.0,0.0,0.0,0.0,0.0,0.0,0.0,0.0,0.0,0.0,-0.17,1.2,-0.11,0.0,0.0,0.0,0.5,0.0,0.5,0.5,1.5,0.75,0.25,0.5,0.0,0.25,0.75,0.5,1.75,0.08,1.52,0.08,111.2,-0.2,-15.0
2.74,0.0,0.0,0.0,0.0,0.0,0.0,0.0,0.0,0.0,0.0,0.0,0.0,0.0,-0.05,1.2,-0.23,0.0,0.0,0.0,0.5,0.0,0.75,0.5,1.5,0.75,0.25,0.5,0.0,0.25,0.75,0.25,0.75,-0.11,1.33,-0.05,108.69,-3.5,5.6
2.76,0.0,0.0,0.0,0.0,0.0,0.0,0.0,0.0,0.0,0.0,0.0,0.0,0.0,-0.05,1.14,-0.42,0.0,0.0,0.0,0.25,0.25,1.0,0.75,1.5,0.75,0.25,0.75,0.0,0.25,0.75,0.5,1.0,-0.3,1.02,-0.17,108.68,-3.4,0.8
2.78,0.0,0.0,0.0,0.0,0.0,0.0,0.0,0.0,0.0,0.0,0.0,0.0,0.0,0.08,1.02,-0.61,0.0,0.0,0.0,0.75,0.0,0.5,0.5,1.5,0.75,0.25,0.5,0.0,0.25,0.75,0.5,0.75,-0.23,0.58,-0.36,108.56,-3.4,2.5
2.8,0.0,0.0,0.0,0.0,0.0,0.0,0.0,0.0,0.0,0.0,0.0,0.0,0.0,0.14,1.02,-0.61,0.0,0.0,0.0,0.75,0.0,0.5,0.5,1.5,0.75,0.5,0.75,0.0,0.25,0.75,0.25,1.0,-0.17,0.27,-0.55,110.91,-2.4,1.4
2.82,0.0,0.0,0.0,0.0,0.0,0.0,0.0,0.0,0.0,0.0,0.0,0.0,0.0,0.2,1.02,-0.55,0.0,0.0,0.0,0.0,0.25,0.75,0.75,1.5,0.75,0.25,0.75,0.0,0.25,0.75,0.25,1.0,-0.23,0.27,-0.55,110.13,-1.0,-0.6
2.84,0.0,0.0,0.0,0.0,0.0,0.0,0.0,0.0,0.0,0.0,0.0,0.0,0.0,0.2,0.95,-0.55,0.0,0.0,0.0,0.75,0.25,0.5,1.0,1.5,0.75,0.25,0.75,0.0,0.25,1.0,0.25,1.0,-0.36,0.27,-0.48,116.57,-3.5,5.4
2.86,0.0,0.0,0.0,0.0,0.0,0.0,0.0,0.0,0.0,0.0,0.0,0.0,0.0,0.14,0.77,-0.55,0.0,0.0,0.0,0.75,0.0,0.5,0.75,1.5,0.75,0.25,0.5,0.0,0.25,1.75,0.5,1.25,-0.36,0.33,-0.48,122.86,-3.6,-10.9
2.88,0.0,0.0,0.0,0.0,0.0,0.0,0.0,0.0,0.0,0.0,0.0,0.0,0.0,0.2,0.7,-0.36,0.0,0.0,0.0,0.5,0.0,0.75,0.5,1.25,0.75,0.25,0.5,0.0,0.25,1.0,0.25,0.75,-0.36,0.39,-0.55,120.28,-4.0,0.6
2.9,0.0,0.0,0.0,0.0,0.0,0.0,0.0,0.0,0.0,0.0,0.0,0.0,0.0,0.2,0.64,-0.36,0.0,0.0,0.0,0.5,0.25,0.5,0.5,1.5,0.75,0.25,0.5,0.0,0.25,0.75,0.5,1.0,-0.42,0.45,-0.48,116.99,-2.1,-1.0
2.92,0.0,0.0,0.0,0.0,0.0,0.0,0.0,0.0,0.0,0.0,0.0,0.0,0.0,0.14,0.58,-0.3,0.0,0.0,0.0,0.0,0.0,0.75,0.5,1.25,1.0,0.25,0.75,0.0,0.25,0.75,0.25,1.0,-0.36,0.52,-0.36,110.15,0.6,-7.7
2.94,0.0,0.0,0.0,0.0,0.0,0.0,0.0,0.0,0.0,0.0,0.0,0.0,0.0,0.08,0.52,-0.3,0.0,0.0,0.0,0.75,0.0,0.5,0.5,1.5,0.75,0.25,0.5,0.0,0.25,1.0,0.5,1.5,-0.23,0.58,-0.42,111.99,-2.0,-10.5
2.96,0.0,0.0,0.0,0.0,0.0,0.0,0.0,0.0,0.0,0.0,0.0,0.0,0.0,-0.05,0.52,-0.3,0.0,0.0,0.0,0.5,0.0,0.5,0.5,0.5,0.75,0.25,0.5,0.0,0.25,0.75,0.5,0.75,-0.11,0.64,-0.42,102.36,-3.5,-11.7
2.98,0.0,0.0,0.0,0.0,0.0,0.0,0.0,0.0,0.0,0.0,0.0,0.0,0.0,-0.11,0.45,-0.3,0.0,0.0,0.0,0.5,0.25,0.5,0.5,1.25,0.75,0.25,0.5,0.0,0.25,0.75,0.5,1.0,-0.05,0.64,-0.42,103.29,-2.4,-3.2
3.0,0.0,0.0,0.0,0.0,0.0,0.0,0.0,0.0,0.0,0.0,0.0,0.0,0.0,-0.05,0.52,-0.3,0.0,0.0,0.0,0.75,0.0,0.75,0.5,1.25,0.75,0.5,0.5,0.0,0.25,0.75,0.25,0.75,-0.05,0.7,-0.48,100.8,-5.3,7.0
3.02,0.0,0.0,0.0,0.0,0.0,0.0,0.0,0.0,0.0,0.0,0.0,0.0,0.0,0.02,0.64,-0.3,0.0,0.0,0.0,0.5,0.0,0.5,0.5,1.25,0.75,0.25,0.5,0.0,0.25,1.0,0.25,0.75,0.08,0.83,-0.48,100.91,-2.7,-1.7
3.04,0.0,0.0,0.0,0.0,0.0,0.0,0.0,0.0,0.0,0.0,0.0,0.0,0.0,0.14,0.77,-0.3,0.0,0.0,0.0,0.5,0.0,0.25,0.5,1.25,0.75,0.25,0.5,0.0,0.25,0.75,0.25,0.5,0.2,0.89,-0.55,95.11,-1.5,3.4
3.06,0.0,0.0,0.0,0.0,0.0,0.0,0.0,0.0,0.0,0.0,0.0,0.0,0.0,0.27,0.83,-0.42,0.0,0.0,0.0,0.5,0.0,0.5,0.5,1.5,0.75,0.25,0.5,0.0,0.25,1.0,0.25,1.0,0.27,0.95,-0.61,97.36,-1.8,-3.3
3.08,0.0,0.0,0.0,0.0,0.0,0.0,0.0,0.0,0.0,0.0,0.0,0.0,0.0,0.33,0.89,-0.42,0.0,0.0,0.0,0.5,0.0,0.25,0.5,0.5,0.75,0.25,0.75,0.0,0.25,0.75,0.25,0.75,0.33,1.02,-0.61,90.15,-0.7,-11.9
3.1,0.0,0.0,0.0,0.0,0.0,0.0,0.0,0.0,0.0,0.0,0.0,0.0,0.0,0.39,0.95,-0.42,0.0,0.0,0.0,0.25,0.25,0.5,0.5,1.5,0.75,0.25,0.75,0.0,0.25,0.75,0.25,0.75,0.33,1.02,-0.61,94.06,-0.7,2.2
3.12,0.0,0.0,0.0,0.0,0.0,0.0,0.0,0.0,0.0,0.0,0.0,0.0,0.0,0.39,1.02,-0.48,0.0,0.0,0.0,0.0,0.0,0.5,0.5,1.25,0.75,0.25,0.75,0.0,0.25,0.75,0.25,1.0,0.27,1.08,-0.61,94.15,1.4,-12.1
3.14,0.0,0.0,0.0,0.0,0.0,0.0,0.0,0.0,0.0,0.0,0.0,0.0,0.0,0.39,1.08,-0.48,0.0,0.0,0.0,0.5,0.0,0.25,0.5,1.5,0.75,0.25,0.5,0.0,0.25,0.75,0.5,0.5,0.27,1.14,-0.48,95.88,-1.5,1.2
3.16,0.0,0.0,0.0,0.0,0.0,0.0,0.0,0.0,0.0,0.0,0.0,0.0,0.0,0.45,1.02,-0.48,0.0,0.0,0.0,0.0,0.0,0.25,0.5,1.25,0.75,0.25,0.5,0.0,0.25,0.75,0.5,0.5,0.27,1.08,-0.48,91.07,0.9,-9.6
3.18,0.0,0.0,0.0,0.0,0.0,0.0,0.0,0.0,0.0,0.0,0.0,0.0,0.0,0.39,1.02,-0.48,0.0,0.0,0.0,0.5,0.0,0.5,0.5,1.0,0.75,0.25,0.5,0.0,0.25,0.75,0.5,1.0,0.2,1.08,-0.48,92.53,-2.2,-9.8
3.2,0.0,0.0,0.0,0.0,0.0,0.0,0.0,0.0,0.0,0.0,0.0,0.0,0.0,0.39,0.95,-0.48,0.0,0.0,0.0,0.5,0.0,0.75,0.5,1.5,0.75,0.25,0.5,0.0,0.25,1.0,0.5,0.75,0.08,0.95,-0.48,98.84,-3.9,-1.0
3.22,0.0,0.0,0.0,0.0,0.0,0.0,0.0,0.0,0.0,0.0,0.0,0.0,0.0,0.39,0.95,-0.42,0.0,0.0,0.0,0.5,0.0,0.5,0.5,1.25,0.75,0.25,0.5,0.0,0.25,0.75,0.25,1.0,0.08,0.95,-0.48,100.38,-1.7,-3.2
3.24,0.0,0.0,0.0,0.0,0.0,0.0,0.0,0.0,0.0,0.0,0.0,0.0,0.0,0.39,0.89,-0.42,0.0,0.0,0.0,0.5,0.25,0.25,0.5,1.5,0.75,0.25,0.5,0.0,0.0,1.0,0.5,1.0,0.02,0.83,-0.55,105.08,-1.8,-3.1
3.26,0.0,0.0,0.0,0.0,0.0,0.0,0.0,0.0,0.0,0.0,0.0,0.0,0.0,0.33,0.83,-0.3,0.0,0.0,0.0,0.5,0.0,0.5,0.5,1.0,0.75,0.5,0.5,0.0,0.25,1.25,0.25,1.0,-0.05,0.83,-0.48,106.08,-3.1,-10.2
3.28,0.0,0.0,0.0,0.0,0.0,0.0,0.0,0.0,0.0,0.0,0.0,0.0,0.0,0.33,0.77,-0.36,0.0,0.0,0.0,0.5,0.0,0.5,0.5,1.5,0.75,0.25,0.5,0.0,0.0,0.75,0.25,0.5,-0.05,0.7,-0.23,103.65,-3.5,11.5
3.3,0.0,0.0,0.0,0.0,0.0,0.0,0.0,0.0,0.0,0.0,0.0,0.0,0.0,0.33,0.7,-0.3,0.0,0.0,0.0,0.0,0.0,0.5,0.5,1.0,0.75,0.25,0.5,0.0,0.25,0.75,0.5,0.75,0.02,0.64,-0.67,96.81,-0.3,-14.1
3.32,0.0,0.0,0.0,1.25,0.0,0.0,0.0,0.0,3.0,1.75,0.0,1.0,0.0,0.45,0.7,-0.3,38.86,5.7,-39.8,0.25,0.0,0.5,0.5,1.0,0.75,0.25,0.5,0.0,0.25,1.5,0.5,1.0,0.02,0.64,-0.48,98.4,-2.0,-20.2
3.34,3.0,0.0,1.25,1.0,0.0,0.0,3.25,5.0,3.0,1.75,0.0,1.0,0.25,0.33,0.77,-0.3,126.7,8.2,-6.9,0.0,0.0,0.5,0.5,1.25,0.75,0.25,0.5,0.0,0.25,1.0,0.25,1.0,0.08,0.64,-0.48,95.97,0.3,-13.5
3.36,2.75,0.0,1.0,1.25,0.0,0.0,3.25,4.25,2.75,1.75,0.0,0.5,0.25,0.33,0.77,-0.36,192.12,8.6,-3.2,1.0,0.0,0.75,0.5,1.5,0.75,0.25,0.5,0.0,0.25,0.75,0.5,1.0,0.08,0.64,-0.48,105.11,-5.0,3.6
3.38,2.0,0.0,1.25,0.5,0.0,0.0,3.25,4.25,2.25,1.5,0.0,0.5,0.25,0.33,0.77,-0.36,227.88,7.6,-8.0,0.5,0.0,0.5,0.5,1.25,0.75,0.25,0.5,0.0,0.25,1.5,0.25,1.25,0.14,0.64,-0.48,109.54,-2.1,-13.8
3.4,1.5,0.0,0.0,1.0,0.0,0.0,2.75,3.75,1.75,1.5,0.0,1.0,0.0,0.27,0.83,-0.36,229.19,4.5,-17.1,0.5,0.0,0.25,0.5,1.25,0.75,0.25,0.5,0.0,0.25,1.25,0.5,1.0,0.08,0.7,-0.48,111.59,-1.3,-14.3
3.42,1.5,0.0,0.75,1.0,0.0,0.0,2.75,2.75,2.25,1.5,0.0,1.0,0.0,0.27,0.89,-0.42,220.8,8.7,-11.1,0.75,0.0,0.5,0.5,1.0,0.75,0.25,0.75,0.0,0.25,0.75,0.5,1.25,0.08,0.77,-0.48,110.25,-2.1,-10.9
3.44,2.25,0.0,1.0,0.25,0.0,0.0,2.75,4.25,2.0,1.5,0.0,0.75,0.0,0.2,0.95,-0.42,213.64,7.2,-8.8,0.5,0.25,0.5,1.25,0.5,0.25,0.25,0.75,0.0,0.25,1.25,0.5,1.0,0.08,0.83,-0.42,109.68,-6.2,-11.9
3.46,0.0,0.0,0.75,0.75,0.0,0.0,2.25,3.25,1.75,1.25,0.0,0.5,0.0,0.2,0.95,-0.42,196.45,3.1,-23.4,0.5,0.0,0.0,0.5,1.5,0.75,0.25,0.75,0.0,0.25,1.5,0.25,1.0,0.02,0.89,-0.48,110.14,0.7,-13.9
3.48,1.0,0.0,0.75,0.75,0.0,0.0,2.0,2.5,1.75,1.25,0.0,0.75,0.0,0.27,0.95,-0.42,183.43,7.5,-13.4,0.25,0.0,0.5,0.5,1.25,0.75,0.25,0.75,0.0,0.25,0.75,0.5,1.25,0.02,0.95,-0.48,109.02,0.2,-15.4
3.5,0.5,0.0,0.75,0.5,0.0,0.0,2.25,1.5,1.75,0.75,0.0,0.75,0.0,0.27,0.95,-0.36,157.58,10.6,-14.6,0.25,0.25,0.5,0.5,0.25,0.75,0.25,0.5,0.0,0.25,0.75,0.25,1.0,0.02,0.95,-0.48,100.83,-1.9,-14.9
3.52,1.0,0.0,0.75,0.0,0.0,0.0,2.25,2.5,1.75,1.25,0.0,0.5,0.0,0.27,0.95,-0.36,141.3,6.9,-16.5,0.5,0.0,0.5,0.5,1.0,0.75,0.25,0.75,0.0,0.0,0.75,0.5,0.75,0.02,0.95,-0.48,96.95,-2.8,-4.2
3.54,1.0,0.0,0.75,0.5,0.0,0.0,2.25,3.75,1.75,0.5,0.0,0.5,0.0,0.27,0.95,-0.36,130.55,6.2,-10.8,0.5,0.0,0.5,0.5,0.25,0.75,0.25,0.75,0.0,0.0,0.75,0.25,1.0,-0.05,0.95,-0.48,88.39,-2.8,-13.7
3.56,1.25,0.0,0.75,0.5,0.0,0.0,2.25,2.5,1.75,0.5,0.0,0.5,0.5,0.27,1.02,-0.36,123.33,8.9,-9.8,0.75,0.25,0.0,0.5,1.0,0.75,0.25,0.5,0.0,0.25,0.75,0.25,1.0,-0.05,0.95,-0.48,87.81,-0.6,-3.1
3.58,1.25,0.0,1.0,0.5,0.0,0.0,2.25,3.25,1.75,0.5,0.0,0.5,0.0,0.27,1.02,-0.36,123.04,8.9,-4.9,0.5,0.0,0.0,0.5,1.25,0.75,0.25,0.75,0.0,0.25,1.5,0.25,0.75,-0.05,0.95,-0.48,90.2,0.1,-13.1
3.6,0.0,0.0,0.75,0.5,0.0,0.0,2.25,2.5,1.75,0.5,0.0,0.75,0.0,0.27,1.02,-0.36,120.23,6.5,-22.4,0.5,0.0,0.25,0.5,1.25,0.75,0.25,0.5,0.0,0.25,1.0,0.5,0.5,-0.05,0.95,-0.48,92.31,-2.1,-4.1
3.62,0.0,0.0,0.75,1.0,0.0,0.0,2.25,2.5,2.25,0.5,0.0,0.5,0.0,0.27,1.02,-0.36,120.89,7.4,-15.9,0.25,0.0,0.5,0.5,0.5,0.75,0.25,0.5,0.0,0.25,1.25,0.5,0.75,-0.11,0.89,-0.48,91.32,-2.9,-21.3
3.64,1.25,0.0,1.0,1.0,0.0,0.0,2.5,3.75,2.25,0.5,0.0,1.0,0.0,0.2,0.95,-0.36,135.28,8.5,-9.0,1.0,0.0,0.0,0.5,1.25,0.75,0.25,0.5,0.0,0.25,0.75,0.5,1.25,-0.11,0.89,-0.48,95.53,-0.9,-8.9
3.66,2.0,0.0,1.0,1.25,0.0,0.0,2.75,4.25,2.25,0.75,0.0,0.5,0.0,0.2,0.95,-0.36,158.14,8.9,-0.3,0.5,0.0,0.0,0.5,1.25,0.75,0.25,1.0,0.0,0.25,0.75,0.25,0.25,-0.11,0.95,-0.48,93.16,1.0,2.2
3.68,1.75,0.0,1.0,1.0,0.0,0.0,2.75,4.25,2.75,0.5,0.0,0.5,0.25,0.2,0.95,-0.36,178.64,8.4,-5.3,0.5,0.0,0.0,0.5,1.25,0.75,0.25,0.5,0.0,0.25,0.75,0.5,1.0,-0.17,0.89,-0.42,93.97,0.9,-12.7
3.7,0.5,0.0,1.25,0.0,0.0,0.0,4.75,5.75,3.0,0.0,0.0,0.0,0.0,0.27,0.95,-0.36,191.36,6.1,-11.8,0.5,0.0,0.25,0.5,0.5,1.0,0.25,0.5,0.0,0.25,1.0,0.25,1.0,-0.17,0.89,-0.42,91.72,-0.3,-15.9
3.72,0.0,0.0,0.0,0.0,0.0,0.0,0.0,0.0,0.0,0.0,0.0,0.0,0.0,0.2,0.95,-0.36,137.07,0.0,0.0,0.25,0.0,0.0,0.5,1.25,0.75,0.25,0.75,0.0,0.25,0.75,0.5,1.0,-0.23,0.89,-0.42,93.13,2.9,-17.8
3.74,0.0,0.0,0.0,0.0,0.0,0.0,0.0,0.0,0.0,0.0,0.0,0.0,0.0,0.2,0.95,-0.36,77.94,0.0,0.0,0.5,0.0,0.5,0.5,1.0,0.75,0.25,0.5,0.0,0.25,0.75,0.25,0.75,-0.17,0.89,-0.42,92.79,-2.6,-1.4
3.76,0.0,0.0,0.0,0.0,0.0,0.0,0.0,0.0,0.0,0.0,0.0,0.0,0.0,0.27,0.95,-0.36,17.15,0.0,0.0,0.5,0.0,0.0,0.5,1.0,0.75,0.5,0.75,0.0,0.25,1.5,0.5,0.75,-0.17,0.89,-0.48,95.82,-0.8,-18.8
3.78,0.0,0.0,0.0,0.0,0.0,0.0,0.0,0.0,0.0,0.0,0.0,0.0,0.0,0.27,0.95,-0.36,0.0,0.0,0.0,0.5,0.0,0.0,0.5,1.25,0.75,0.25,0.5,0.0,0.25,1.25,0.5,0.5,-0.17,0.95,-0.48,96.46,-1.0,-9.6
3.8,0.0,0.0,0.0,0.0,0.0,0.0,0.0,0.0,0.0,0.0,0.0,0.0,0.0,0.27,1.02,-0.36,0.0,0.0,0.0,0.5,0.0,0.0,0.5,1.25,0.75,0.25,0.5,0.0,0.25,0.75,0.25,1.0,-0.17,0.95,-0.48,95.07,1.3,-8.7
3.82,0.0,0.0,0.0,0.0,0.0,0.0,3.0,1.5,1.25,0.0,0.0,0.0,0.0,0.39,0.95,-0.23,0.0,8.7,-15.9,0.5,0.0,0.5,0.5,0.5,0.75,0.25,0.5,0.0,0.25,0.75,0.25,1.0,-0.3,0.89,-0.42,91.39,-2.5,-11.9
3.84,0.0,0.0,0.0,0.0,0.0,0.0,3.5,1.25,1.0,0.0,0.0,0.0,0.0,0.27,0.95,-0.36,10.79,11.5,-10.3,0.5,0.0,0.25,0.5,1.0,0.75,0.25,0.75,0.0,0.25,0.75,0.5,0.5,-0.17,0.95,-0.55,90.61,-1.2,-5.4
3.86,0.0,0.0,0.0,0.0,0.0,0.0,3.5,1.75,1.25,0.0,0.0,0.0,0.0,0.27,0.95,-0.3,28.88,8.5,-14.9,0.25,0.0,0.0,0.5,1.0,0.75,0.25,0.5,0.0,0.25,0.75,0.5,0.75,-0.23,0.89,-0.48,86.93,1.7,-16.3
3.88,0.0,0.0,0.0,0.0,0.0,0.0,2.75,1.25,1.5,0.0,0.0,0.0,0.0,0.2,0.95,-0.3,37.62,9.8,-17.1,0.5,0.0,0.5,0.5,0.5,0.75,0.25,0.5,0.0,0.25,1.5,0.25,1.0,-0.23,0.89,-0.42,88.71,-3.4,-19.1
3.9,0.0,0.0,0.0,0.0,0.0,0.0,3.5,2.5,1.0,0.0,0.0,0.0,0.0,0.27,0.95,-0.3,52.79,4.7,-17.2,0.25,0.0,0.0,0.5,1.25,0.75,0.25,0.5,0.0,0.25,1.5,0.5,1.0,-0.17,0.89,-0.42,93.03,0.9,-23.3
3.92,0.0,0.0,0.0,0.0,0.0,0.0,3.0,1.5,0.25,0.0,0.0,0.0,0.0,0.2,0.95,-0.3,54.91,7.6,-8.8,0.75,0.0,0.0,0.5,1.25,0.75,0.25,0.5,0.0,0.25,0.75,0.25,0.75,-0.17,0.89,-0.36,94.4,-0.5,-0.2
3.94,0.0,0.0,0.0,0.0,0.0,0.0,0.0,0.0,0.0,0.0,0.0,0.0,0.0,0.2,0.95,-0.3,43.16,0.0,0.0,0.75,0.0,0.5,0.5,0.25,0.75,0.25,0.5,0.0,0.25,1.5,0.25,1.0,-0.23,0.89,-0.36,95.38,-4.9,-18.1
3.96,0.0,0.0,0.0,0.0,0.0,0.0,0.0,0.0,0.0,0.0,0.0,0.0,0.0,0.2,0.95,-0.3,31.92,0.0,0.0,0.0,0.25,0.0,0.5,1.25,0.75,0.25,0.5,0.0,0.25,0.75,0.5,1.0,-0.23,0.89,-0.36,93.87,3.1,-16.5
3.98,0.0,0.0,0.0,0.0,0.0,0.0,0.0,0.0,0.0,0.0,0.0,0.0,0.0,0.2,1.02,-0.3,12.42,0.0,0.0,0.5,0.0,0.0,0.5,1.25,0.75,0.25,0.5,0.0,0.0,1.5,0.5,1.0,-0.23,0.95,-0.42,96.07,-0.8,-17.1
4.0,0.0,0.0,0.0,0.0,0.0,0.0,0.0,0.0,0.0,0.0,0.0,0.0,0.0,0.2,1.02,-0.3,0.6,0.0,0.0,0.25,0.0,0.5,0.5,0.5,0.75,0.25,0.5,0.0,0.0,1.5,0.25,1.25,-0.23,0.95,-0.42,94.55,-2.3,-25.0
4.02,0.0,0.0,0.0,0.0,0.0,0.0,0.0,0.0,0.0,0.0,0.0,0.0,0.0,0.2,1.02,-0.3,0.0,0.0,0.0,0.5,0.0,0.25,0.5,1.0,0.75,0.25,0.5,0.0,0.25,1.25,0.25,1.0,-0.23,0.95,-0.42,96.91,-1.2,-13.7
4.04,0.0,0.0,0.0,0.0,0.0,0.0,0.0,0.0,0.0,0.0,0.0,0.0,0.0,0.2,1.02,-0.3,0.0,0.0,0.0,0.5,0.0,0.25,0.5,1.5,0.75,0.25,0.5,0.0,0.25,1.75,0.25,1.0,-0.23,0.95,-0.42,102.82,-1.4,-12.5
4.06,0.0,0.0,0.0,0.0,0.0,0.0,0.0,0.0,0.0,0.0,0.0,0.0,0.0,0.2,1.02,-0.3,0.0,0.0,0.0,0.5,0.0,0.0,0.5,1.25,0.75,0.25,0.5,0.0,0.25,0.75,0.25,0.75,-0.23,0.95,-0.42,100.45,0.7,-4.2
