time,left pressure 0[N/cm虏],left pressure 1[N/cm虏],left pressure 2[N/cm虏],left pressure 3[N/cm虏],left pressure 4[N/cm虏],left pressure 5[N/cm虏],left pressure 6[N/cm虏],left pressure 7[N/cm虏],left pressure 8[N/cm虏],left pressure 9[N/cm虏],left pressure 10[N/cm虏],left pressure 11[N/cm虏],left pressure 12[N/cm虏],left acceleration X[g],left acceleration Y[g],left acceleration Z[g],left total force[N],left center of pressure X[mm],left center of pressure Y[mm],right pressure 0[N/cm虏],right pressure 1[N/cm虏],right pressure 2[N/cm虏],right pressure 3[N/cm虏],right pressure 4[N/cm虏],right pressure 5[N/cm虏],right pressure 6[N/cm虏],right pressure 7[N/cm虏],right pressure 8[N/cm虏],right pressure 9[N/cm虏],right pressure 10[N/cm虏],right pressure 11[N/cm虏],right pressure 12[N/cm虏],right acceleration X[g],right acceleration Y[g],right acceleration Z[g],right total force[N],right center of pressure X[mm],right center of pressure Y[mm]
0.02,0.0,0.0,0.25,0.5,0.0,0.0,0.0,3.0,0.5,4.25,0.0,0.0,2.75,0.33,0.08,1.2,155.04,-11.5,-63.5,1.25,0.25,1.75,1.5,3.5,1.25,0.75,1.25,0.75,0.75,1.5,0.0,0.75,0.39,-0.67,1.08,102.9,-6.0,18.1
0.04,0.0,0.0,0.5,0.5,0.0,0.0,0.0,3.75,1.0,5.0,0.0,0.0,3.25,-0.17,0.58,2.39,180.26,-10.3,-61.4,1.25,0.25,0.0,1.5,3.25,1.25,0.75,1.25,0.75,1.25,1.25,0.25,0.5,0.39,-0.48,0.7,102.66,-1.4,10.0
0.06,0.0,0.0,0.0,0.5,0.0,0.0,0.0,4.5,1.25,5.5,0.0,3.75,4.0,-0.17,0.08,0.95,233.67,-8.2,-74.9,1.25,0.5,0.25,1.0,0.0,0.0,1.0,1.25,0.0,0.0,1.25,0.0,0.75,0.14,-0.36,0.7,90.46,-10.7,4.4
0.08,0.0,0.0,0.0,0.5,0.0,0.0,0.25,5.0,1.5,6.5,3.5,3.75,4.25,-0.17,0.08,0.95,292.63,-5.7,-73.8,1.25,0.75,0.25,1.5,3.0,1.25,0.75,1.25,0.75,1.0,1.25,0.25,0.75,0.14,-0.23,0.83,117.66,-2.6,12.6
0.1,0.0,0.0,0.0,1.25,0.0,0.25,0.25,5.5,2.25,6.5,5.75,4.75,5.25,-0.17,0.02,0.95,382.8,-3.7,-70.8,0.25,0.25,0.0,1.5,0.0,1.25,0.25,1.0,0.75,0.75,0.0,0.25,0.0,0.14,-0.11,0.83,103.28,0.3,5.1
0.12,0.0,0.0,0.0,1.75,0.0,0.5,0.5,6.0,3.0,7.25,5.75,5.0,6.0,-0.17,0.02,0.95,483.07,-3.6,-67.9,1.25,0.0,0.5,1.5,1.75,1.25,0.5,1.0,0.75,0.75,1.25,0.0,0.75,0.08,0.08,0.83,124.95,-3.9,8.2
0.14,0.0,0.0,0.0,1.5,0.0,1.0,0.5,6.25,3.25,7.25,6.25,5.0,6.0,-0.17,0.02,0.95,566.56,-3.8,-67.2,0.25,0.0,0.25,0.0,0.25,1.25,0.0,0.75,0.75,1.0,0.0,0.25,0.5,0.08,0.14,0.95,102.26,6.5,-23.5
0.16,0.0,0.0,1.5,1.25,0.0,1.5,0.25,6.5,3.5,7.25,6.5,4.75,6.0,-0.17,0.02,0.95,627.87,-2.6,-61.4,0.0,0.0,0.0,0.0,1.75,0.0,0.75,1.0,0.0,0.0,0.0,0.0,0.0,0.08,0.2,1.14,81.97,3.4,23.4
0.18,0.0,0.25,1.5,2.5,0.0,1.5,0.5,6.75,3.5,7.0,6.0,4.75,5.5,-0.17,0.02,0.95,658.41,-1.8,-55.1,1.25,0.0,0.0,1.5,1.0,1.25,0.5,1.0,0.75,1.0,1.5,0.25,0.75,0.08,0.33,1.58,82.39,-2.7,-4.8
0.2,0.0,0.75,2.25,2.5,0.0,2.25,0.5,6.75,3.5,6.5,5.0,3.75,5.25,-0.17,0.02,0.95,659.24,-1.5,-46.6,1.25,0.5,0.25,1.5,3.75,1.25,0.25,1.0,0.5,1.0,0.75,0.25,0.75,0.27,0.83,1.64,121.32,-1.4,18.4
0.22,0.0,0.75,2.5,2.75,7.5,2.25,0.5,6.5,3.25,5.75,5.0,3.0,4.25,-0.17,0.02,0.95,674.31,-1.1,-23.1,1.25,0.25,0.25,1.5,3.0,1.25,0.5,1.0,0.75,0.75,1.0,0.25,0.5,0.2,1.58,1.89,153.72,-2.9,16.0
0.24,0.0,0.75,2.25,3.5,0.0,2.75,0.5,6.5,3.0,5.5,3.75,2.75,3.25,-0.17,0.02,0.95,623.3,-0.9,-34.9,1.25,0.25,0.25,1.5,3.5,1.25,0.5,0.75,0.75,0.75,1.25,0.25,0.75,-0.05,2.02,2.27,182.14,-2.8,14.5
0.26,0.0,0.75,2.5,4.25,0.0,3.0,0.5,6.25,2.5,4.5,3.0,1.75,2.75,-0.17,0.02,0.95,546.86,-0.3,-25.4,1.25,0.25,0.5,1.5,3.25,1.25,0.25,1.0,0.75,0.75,0.75,0.25,0.5,-0.3,2.7,1.83,190.0,-3.0,19.4
0.28,0.0,0.75,2.5,4.5,0.0,3.0,0.75,6.0,2.0,4.25,2.0,1.75,1.5,-0.17,0.02,0.95,457.56,0.2,-18.2,1.25,0.25,0.25,1.5,2.75,1.25,0.5,0.5,0.75,0.75,0.75,0.25,0.75,-0.55,3.39,0.89,191.23,-3.4,16.5
0.3,0.5,0.75,2.75,5.25,0.0,3.25,0.5,6.0,2.0,2.75,1.0,1.5,1.5,-0.17,0.02,0.95,392.3,1.7,-7.1,1.25,0.25,0.5,1.5,2.5,1.25,0.25,1.0,0.75,1.0,0.75,0.25,1.0,-0.67,4.27,0.02,192.87,-2.4,9.8
0.32,1.25,1.5,4.0,6.5,0.0,3.75,0.5,5.75,1.5,2.5,0.25,0.75,1.0,-0.17,0.02,0.95,364.0,4.7,12.2,1.25,0.25,0.5,1.5,2.75,1.25,0.25,1.0,0.75,1.75,1.25,0.25,0.75,-2.05,5.02,-0.05,196.45,-1.9,5.3
0.34,1.25,2.25,4.5,8.0,0.0,4.0,0.25,5.25,1.0,2.5,0.0,0.75,1.25,-0.17,0.02,1.02,366.28,5.8,18.9,0.0,0.0,0.5,0.0,0.25,0.0,0.25,1.0,0.0,1.5,0.0,0.75,1.5,-0.36,-0.61,1.08,171.69,5.6,-61.8
0.36,2.75,2.5,5.75,8.0,9.0,4.25,0.25,4.75,0.75,2.0,0.0,0.75,0.5,-0.17,0.08,1.02,447.12,6.2,36.2,1.5,0.0,0.0,0.0,0.25,0.0,0.0,0.75,0.25,5.75,2.25,4.25,4.0,-0.11,-0.55,0.95,206.05,2.4,-73.9
0.38,3.5,3.75,6.25,9.0,0.0,4.25,0.0,4.5,0.5,2.0,0.0,0.75,0.5,-0.17,0.08,1.02,485.97,10.7,36.7,0.0,0.0,0.5,0.0,3.5,0.25,0.25,2.75,0.75,7.5,4.5,4.25,6.0,-0.11,1.02,4.14,282.75,4.8,-62.4
0.4,4.5,3.75,6.75,9.0,0.0,4.0,0.0,3.5,0.25,1.0,0.0,0.5,0.25,-0.23,0.14,1.08,512.62,13.8,47.1,0.25,0.75,0.0,0.5,0.5,2.5,0.0,5.25,1.5,8.75,6.25,5.25,6.25,0.2,0.39,1.52,399.76,5.6,-64.2
0.42,4.5,4.75,6.75,10.5,0.0,3.5,0.0,3.25,0.25,1.25,0.0,0.75,0.25,-0.23,0.14,1.02,523.24,14.4,47.9,1.5,0.0,0.0,1.5,4.25,3.25,0.0,6.25,2.0,9.0,8.5,6.0,8.0,0.08,0.08,1.02,585.29,4.0,-51.0
0.44,5.25,5.0,6.75,10.5,0.0,3.0,0.0,3.5,0.25,1.0,0.0,0.5,0.5,-0.23,0.2,1.02,540.05,15.1,49.6,1.25,0.0,0.5,2.25,3.75,3.75,1.0,7.0,3.25,9.5,9.0,6.0,7.75,0.14,0.08,0.95,772.92,3.0,-48.4
0.46,0.0,5.25,7.25,10.5,0.0,2.25,0.0,2.75,0.25,1.0,0.0,0.5,0.25,-0.3,0.2,1.08,513.19,14.2,46.3,1.5,1.0,1.25,3.0,5.0,3.75,1.25,7.5,3.5,9.5,9.25,6.0,7.75,0.14,0.14,0.95,939.1,1.7,-39.9
0.48,5.75,0.0,7.25,10.5,0.0,0.0,0.0,2.5,0.25,1.0,0.0,0.5,0.25,-0.23,0.27,1.08,484.99,21.5,47.7,2.0,1.0,3.5,3.25,4.5,3.75,1.25,8.25,4.0,9.25,9.0,6.0,7.5,0.2,0.08,0.95,1056.18,0.0,-35.1
0.5,6.5,0.0,0.0,10.5,0.0,0.0,0.0,2.0,0.25,1.0,0.0,0.5,0.25,-0.3,0.33,1.08,403.82,16.9,46.7,2.5,1.0,3.0,3.75,5.5,4.0,1.5,8.25,4.0,8.75,8.5,5.5,7.0,0.2,0.08,0.95,1127.28,-0.1,-30.2
0.52,0.0,0.0,0.0,9.5,0.0,0.0,0.0,0.75,0.25,1.0,0.0,0.0,0.0,-0.3,0.33,1.14,298.92,12.2,38.6,2.75,1.0,3.75,4.0,5.25,4.5,1.75,8.25,3.5,8.25,8.25,5.0,6.5,0.2,0.08,0.95,1145.01,-0.7,-26.2
0.54,5.75,0.0,7.0,9.0,0.0,0.0,0.0,1.75,0.25,1.0,0.0,0.0,0.25,-0.42,0.39,1.45,281.4,22.9,52.6,2.75,1.0,5.25,4.25,6.25,4.75,1.75,7.75,3.25,7.75,7.5,4.0,5.5,0.2,0.08,0.95,1135.59,-1.7,-18.0
0.56,4.5,0.0,6.0,7.5,0.0,0.0,0.0,0.0,0.25,1.0,0.0,0.0,0.25,-0.55,0.52,1.64,258.43,25.4,57.2,2.75,1.25,5.25,4.5,5.75,5.25,1.75,7.5,3.0,6.75,6.5,3.0,4.75,0.2,0.08,0.95,1088.18,-2.0,-12.5
0.58,0.0,0.0,4.25,4.5,0.0,0.0,0.0,0.0,0.0,0.75,0.0,0.0,0.0,-0.8,1.14,2.33,213.45,24.0,49.1,2.75,1.5,5.75,4.75,6.5,5.5,1.75,7.0,2.75,6.0,5.5,2.25,3.75,0.2,0.08,0.95,1025.7,-2.7,-4.3
0.6,0.0,0.0,1.5,2.25,0.0,0.0,0.0,0.0,0.0,0.25,0.0,0.0,0.0,-0.86,1.33,2.58,129.76,23.0,51.0,3.0,1.5,5.75,6.0,6.75,5.75,1.5,6.75,2.0,5.5,4.5,1.5,3.25,0.2,0.14,0.95,940.69,-3.0,2.9
0.62,0.0,0.0,1.0,0.5,0.0,0.0,0.0,0.0,0.0,0.75,0.0,0.0,0.0,-0.61,0.33,2.02,52.55,15.9,15.8,3.75,1.75,7.0,6.25,7.5,5.75,1.25,6.25,2.0,4.75,3.5,1.25,2.5,0.2,0.14,0.95,885.64,-4.7,12.1
0.64,0.0,0.0,0.0,0.0,0.0,0.0,0.0,0.0,0.0,0.0,0.0,0.0,0.0,-0.8,-0.05,1.64,0.0,0.0,0.0,3.75,2.0,7.0,7.25,7.75,5.75,1.25,6.0,1.75,3.75,2.5,0.75,2.25,0.2,0.14,0.95,840.95,-5.4,19.2
0.66,0.0,0.0,0.0,0.0,0.0,0.0,0.0,0.0,0.0,0.0,0.0,0.0,0.0,-0.86,-0.67,2.89,0.0,0.0,0.0,5.0,2.5,7.75,8.0,8.25,5.75,1.5,5.75,1.25,3.5,2.5,0.75,1.75,0.2,0.14,0.95,833.34,-7.0,25.6
0.68,1.0,0.0,0.0,3.0,0.0,0.0,0.0,0.0,2.25,1.75,0.0,0.25,0.0,-0.3,-0.86,1.77,0.0,10.6,3.4,5.25,2.5,8.0,9.25,8.0,6.0,1.25,5.25,1.25,2.5,2.0,0.75,1.75,0.2,0.14,0.95,838.79,-8.0,30.1
0.7,0.0,0.0,0.0,0.0,0.0,0.0,0.0,0.0,0.0,0.0,0.0,0.0,0.0,-0.42,-0.48,0.7,0.0,0.0,0.0,6.0,2.5,8.75,9.75,8.5,6.0,1.25,4.5,1.0,2.25,1.5,0.25,1.5,0.2,0.14,0.95,854.68,-9.2,36.5
0.72,0.0,0.0,0.0,0.0,0.0,0.0,0.0,0.0,0.0,0.0,0.0,0.0,0.0,-0.55,-0.42,0.27,0.0,0.0,0.0,6.5,3.25,9.25,11.5,9.25,5.75,1.5,4.0,0.75,2.25,1.25,0.25,1.5,0.14,0.14,0.95,895.28,-10.2,40.4
0.74,0.0,0.0,0.0,0.0,0.0,0.0,0.0,0.0,0.0,0.0,0.0,0.0,0.0,-0.48,-0.3,0.14,0.0,0.0,0.0,6.0,2.5,10.5,9.75,8.25,5.0,0.75,3.25,0.75,0.75,0.25,0.0,0.5,0.14,0.2,1.02,875.45,-12.7,49.6
0.76,0.0,0.0,0.0,0.0,0.0,0.0,0.0,0.0,0.0,0.0,0.0,0.0,0.0,-0.42,-0.3,0.45,0.0,0.0,0.0,6.75,0.0,9.25,11.5,9.25,5.25,1.0,2.75,0.75,1.0,1.25,0.25,1.25,0.14,0.2,1.02,862.16,-11.7,42.5
0.78,0.0,0.0,0.0,0.0,0.0,0.0,0.0,0.0,0.0,0.0,0.0,0.0,0.0,-0.36,-0.3,0.7,0.0,0.0,0.0,7.25,1.5,11.5,10.0,8.25,3.75,0.25,2.5,0.25,0.75,0.0,0.0,0.5,0.14,0.2,1.02,819.8,-15.1,53.4
0.8,0.0,0.0,0.0,0.0,0.0,0.0,0.0,0.0,0.0,0.0,0.0,0.0,0.0,-0.42,-0.23,0.77,0.0,0.0,0.0,7.75,3.25,10.5,10.5,8.25,3.75,0.0,1.5,0.0,0.25,0.0,0.0,0.5,0.08,0.27,1.08,800.31,-15.7,59.3
0.82,0.0,0.0,0.0,0.0,0.0,0.0,0.0,0.0,0.0,0.0,0.0,0.0,0.0,-0.42,0.02,0.77,0.0,0.0,0.0,8.0,4.0,10.5,11.5,8.25,3.75,0.0,1.25,0.75,0.75,0.0,0.25,0.25,0.08,0.27,1.08,801.76,-15.6,57.8
0.84,0.0,0.0,0.0,0.0,0.0,0.0,0.0,0.0,0.0,0.0,0.0,0.0,0.0,-0.36,0.08,0.89,0.0,0.0,0.0,8.0,3.5,10.5,9.75,8.25,1.0,0.25,1.0,0.0,0.0,0.0,0.0,0.25,0.02,0.27,1.08,769.95,-18.8,64.0
0.86,0.0,0.0,0.0,0.0,0.0,0.0,0.0,0.0,0.0,0.0,0.0,0.0,0.0,-0.36,0.14,1.2,0.0,0.0,0.0,8.0,3.5,10.0,9.75,8.0,1.25,0.25,1.25,0.0,0.75,0.0,0.0,0.0,0.02,0.33,1.14,739.46,-17.9,62.0
0.88,0.0,0.0,0.0,0.5,0.0,0.0,0.0,0.0,0.25,1.0,0.0,0.0,0.0,-0.42,0.27,1.7,4.32,-2.0,-30.9,7.75,3.25,9.75,9.75,8.0,1.25,0.25,1.0,0.0,0.0,0.0,0.0,0.0,0.14,0.39,1.27,694.64,-18.5,64.7
0.9,0.0,0.0,0.0,0.0,0.0,0.0,0.0,0.0,0.0,0.0,0.0,0.0,0.0,-0.55,0.45,1.89,2.26,0.0,0.0,6.75,2.5,9.0,8.0,7.0,1.25,0.25,0.25,0.0,0.0,0.0,0.0,0.0,0.14,0.45,1.45,623.12,-19.2,66.0
0.92,0.0,0.0,0.0,0.0,0.0,0.0,0.0,0.0,0.0,0.0,0.0,0.0,0.0,-0.55,1.77,2.58,0.2,0.0,0.0,5.25,1.0,7.75,4.5,5.5,1.25,0.25,0.0,0.0,0.0,0.0,0.0,0.0,0.33,0.77,2.08,500.45,-20.0,65.6
0.94,0.0,0.0,0.0,0.0,0.0,0.0,0.0,0.0,0.0,0.0,0.0,0.0,0.0,-0.48,2.58,2.45,4.18,0.0,0.0,2.5,0.25,5.0,2.75,3.75,1.25,0.5,0.5,0.0,0.0,0.0,0.0,0.0,0.14,1.64,2.58,357.05,-17.1,58.9
0.96,0.0,0.0,0.0,0.0,0.0,0.0,0.0,0.0,0.0,0.0,0.0,0.0,0.0,1.27,5.58,3.27,2.09,0.0,0.0,1.25,0.0,3.0,1.5,1.75,1.0,0.25,0.5,0.0,0.0,0.0,0.0,0.0,0.02,0.89,2.27,233.43,-16.2,55.0
0.98,0.0,0.0,0.0,0.0,0.0,0.0,0.0,0.0,0.0,0.0,0.0,0.0,0.0,0.52,5.83,0.52,0.0,0.0,0.0,0.25,0.0,1.25,1.0,1.75,1.0,0.0,0.75,0.0,0.0,0.75,0.0,0.0,0.08,0.27,1.77,123.63,-6.0,31.1
1.0,0.0,0.0,0.0,0.0,0.0,0.0,3.75,0.0,0.0,0.0,0.0,0.0,0.0,1.08,6.08,-0.11,10.67,32.4,27.3,0.0,0.0,0.5,0.5,0.0,0.25,0.0,0.25,0.0,0.0,0.0,0.0,0.0,-0.05,-1.05,1.95,6.13,-12.5,39.4
1.02,0.0,0.0,0.0,0.0,0.0,0.0,0.0,0.0,0.0,0.0,0.0,0.0,0.75,1.83,5.77,-0.23,15.07,-13.7,-109.9,0.0,0.0,0.0,0.5,1.0,0.0,0.0,0.5,0.0,0.0,0.0,0.0,0.0,0.33,-0.86,2.27,0.0,1.4,33.4
1.04,0.0,0.0,0.0,0.0,0.0,0.0,0.0,0.0,0.0,0.0,0.0,0.0,0.0,-0.3,-0.86,1.33,13.39,0.0,0.0,0.25,0.0,0.0,0.0,1.75,0.25,0.0,0.25,0.0,0.0,0.0,0.0,0.5,0.27,-0.8,1.33,0.0,4.6,22.4
1.06,0.0,0.0,0.0,0.0,0.0,0.0,0.0,0.0,0.0,0.0,0.0,0.0,0.0,-0.36,0.39,1.27,8.2,0.0,0.0,0.0,0.0,0.0,0.0,0.25,0.0,0.25,0.25,0.0,0.0,0.0,0.0,0.0,0.33,-0.67,0.64,0.0,1.9,13.7
1.08,0.0,0.0,0.0,0.0,0.0,0.0,1.0,5.0,1.0,6.25,2.75,3.25,0.0,-0.17,0.64,1.39,109.45,-5.2,-67.0,0.0,0.0,0.0,0.0,0.25,0.0,0.0,0.75,0.0,0.0,0.0,0.0,0.5,0.33,-0.55,0.52,0.0,13.2,-45.1
1.1,0.0,0.0,0.0,0.0,0.0,0.0,0.0,5.5,1.75,6.5,4.0,3.75,5.0,-0.17,0.14,1.08,231.32,-6.3,-77.0,0.0,0.0,0.25,0.0,0.0,0.0,0.25,0.5,0.0,0.0,0.0,0.0,0.0,0.27,-0.42,0.52,0.0,-6.0,-0.4
1.12,0.0,0.0,0.0,0.0,0.0,0.75,0.25,6.0,2.25,6.5,0.0,3.75,5.25,-0.17,0.02,0.95,321.05,-9.2,-72.3,1.25,0.0,0.0,1.5,0.0,1.25,0.25,0.25,0.5,1.0,0.75,0.0,0.75,0.2,-0.3,0.7,0.0,-3.8,0.6
1.14,0.0,0.0,0.5,0.0,0.0,1.25,0.5,6.25,3.0,6.5,5.75,3.75,5.0,-0.17,0.02,0.95,426.43,-4.6,-67.4,0.0,0.0,0.0,0.0,1.0,0.0,0.25,0.0,0.0,0.0,0.0,0.0,0.0,0.14,-0.17,0.77,0.0,0.0,51.0
1.16,0.0,0.0,0.0,2.5,0.0,1.5,0.5,6.5,3.5,6.5,6.0,3.75,5.25,-0.17,-0.05,0.95,519.26,-3.5,-59.2,0.0,0.0,0.0,0.0,0.25,0.0,0.0,0.25,0.0,0.0,0.0,0.0,0.0,0.14,-0.05,0.77,0.0,9.5,10.7
1.18,0.5,0.75,2.5,2.5,0.0,2.25,0.5,6.75,3.75,6.5,5.75,3.75,4.75,-0.17,-0.05,0.95,597.45,-0.3,-43.8,0.0,0.0,0.0,0.0,0.25,0.0,0.0,0.25,0.0,0.0,0.0,0.0,0.0,0.08,0.02,1.08,0.0,9.5,10.7
1.2,1.25,0.75,2.5,2.75,0.0,2.5,0.5,6.75,4.0,6.5,5.75,3.75,4.25,-0.17,-0.05,0.95,649.35,0.4,-39.5,0.0,0.0,0.0,0.0,0.0,0.0,0.0,0.25,0.0,0.0,0.0,0.0,0.0,0.02,0.14,1.27,0.0,16.7,-38.7
1.22,1.25,0.75,2.5,2.75,7.5,2.75,0.75,6.5,3.75,6.0,5.5,2.75,4.0,-0.17,-0.05,0.95,721.23,-0.2,-19.5,0.0,0.0,0.0,0.0,0.5,0.0,0.0,0.0,0.0,0.0,0.0,0.0,0.0,0.08,0.33,1.52,0.0,3.3,53.4
1.24,1.75,0.75,2.5,3.0,8.0,3.0,0.5,6.5,3.5,5.5,4.5,2.75,2.75,-0.17,-0.05,0.95,755.18,0.2,-12.3,0.0,0.0,0.0,0.0,0.5,0.0,0.25,0.0,0.0,0.0,0.0,0.0,0.0,0.2,0.64,1.77,4.36,-2.8,49.0
1.26,1.75,0.75,2.5,3.25,7.75,3.0,0.5,6.5,3.25,4.75,3.25,1.75,2.5,-0.17,0.02,0.95,752.76,0.1,-6.4,0.0,0.0,0.0,0.0,0.25,0.0,0.25,0.25,0.0,0.0,0.0,0.0,0.0,0.27,1.2,2.27,5.7,1.9,13.7
1.28,1.5,0.75,2.5,4.5,7.75,3.5,0.5,6.25,3.0,4.5,3.0,1.75,1.5,-0.17,0.02,0.95,725.98,0.6,-0.8,1.25,0.5,0.0,1.5,2.25,1.25,0.75,1.0,0.75,0.75,0.25,0.25,0.75,0.2,1.7,2.45,64.61,-2.2,17.1
1.3,3.0,0.75,2.75,4.0,0.0,3.75,0.5,6.0,2.5,3.75,2.0,1.5,1.5,-0.17,0.02,0.95,619.12,3.1,-6.2,1.25,0.5,0.25,1.5,3.25,1.25,0.25,1.0,0.5,1.0,0.25,0.25,0.75,0.27,2.52,2.2,123.73,-1.3,20.5
1.32,2.75,0.75,3.75,4.75,0.0,4.0,0.75,6.0,2.0,2.75,1.25,0.75,1.0,-0.17,0.02,0.95,512.25,4.7,6.2,1.0,0.5,0.25,1.5,3.75,1.25,0.5,1.0,0.5,1.0,1.0,0.25,0.75,0.08,3.77,0.7,177.04,-1.3,15.5
1.34,3.25,2.0,4.25,6.5,0.0,4.0,0.5,5.75,1.5,2.5,0.75,0.75,1.0,-0.17,0.02,0.95,454.52,6.7,17.7,1.25,0.0,0.5,1.5,5.0,1.25,0.25,0.75,0.75,1.0,1.0,0.25,0.75,-0.73,4.83,-0.86,212.42,-1.9,18.3
1.36,3.5,2.25,4.5,6.5,0.0,4.0,0.5,5.5,1.25,2.5,0.0,0.75,0.75,-0.17,0.08,0.95,431.04,7.5,23.4,0.25,0.0,0.0,0.0,3.0,1.25,0.25,1.0,0.25,1.25,1.25,0.25,1.5,-2.61,5.52,-0.48,212.09,6.2,-17.0
1.38,5.25,2.25,5.75,8.0,0.0,4.0,0.5,5.0,1.0,2.0,0.0,0.75,0.25,-0.17,0.08,0.95,435.01,11.3,34.6,0.5,0.0,0.0,1.5,0.5,0.0,0.25,1.25,0.0,4.75,2.25,3.0,3.5,-0.48,0.58,0.7,239.58,2.8,-64.2
1.4,5.75,3.25,6.25,8.0,9.25,4.25,0.25,4.75,1.0,1.75,0.0,0.5,0.5,-0.17,0.08,0.95,529.23,8.5,42.2,0.0,0.5,0.25,0.0,1.0,1.25,0.25,2.5,0.5,7.5,4.5,4.25,6.0,0.39,0.45,1.83,300.45,5.7,-69.5
1.42,6.25,3.5,6.5,8.0,0.0,4.0,0.25,4.5,0.5,1.25,0.0,0.75,0.25,-0.17,0.14,1.02,549.07,13.5,43.6,0.0,0.0,0.0,0.0,1.0,1.25,0.0,4.75,1.25,7.75,6.25,5.25,6.0,0.08,0.58,1.83,401.57,5.6,-72.3
1.44,6.5,3.75,6.75,8.75,0.0,4.25,0.0,3.5,0.5,1.0,0.0,0.5,0.25,-0.23,0.14,1.02,561.3,14.6,49.0,1.5,0.5,0.0,1.5,1.25,3.25,0.25,5.75,2.0,8.75,7.5,4.75,6.5,0.14,0.08,1.02,549.33,3.9,-53.1
1.46,6.5,4.0,6.75,8.5,0.0,3.5,0.0,3.5,0.25,1.0,0.0,0.5,0.25,-0.23,0.14,1.02,537.26,15.4,50.2,2.75,1.0,1.75,2.5,3.5,3.5,1.0,6.5,2.75,8.75,8.5,5.5,6.25,0.14,0.14,0.95,719.11,0.3,-36.8
1.48,6.75,4.75,6.0,9.0,0.0,3.5,0.0,3.25,0.25,1.25,0.0,0.5,0.25,-0.23,0.2,0.95,535.94,15.0,51.2,3.5,1.0,3.5,3.25,4.5,3.75,1.5,6.75,3.25,8.75,8.5,5.25,6.0,0.14,0.14,0.95,870.83,-1.4,-28.1
1.5,0.0,5.0,6.0,9.0,0.0,3.0,0.0,2.5,0.25,1.0,0.0,0.5,0.25,-0.23,0.2,0.95,481.98,12.2,45.0,4.25,1.0,6.25,3.75,4.25,3.75,2.0,7.0,3.25,8.75,8.5,5.5,6.0,0.14,0.14,0.95,1003.14,-3.7,-22.5
1.52,0.0,5.0,6.0,9.0,0.0,3.0,0.0,2.75,0.25,1.0,0.0,0.5,0.25,-0.23,0.2,1.02,448.86,12.0,44.2,5.25,1.0,7.5,4.0,4.5,3.75,2.25,7.0,3.5,8.25,8.5,5.25,6.0,0.14,0.14,0.95,1106.98,-5.0,-17.8
1.54,6.0,0.0,6.5,8.75,0.0,2.5,0.0,2.5,0.25,1.0,0.0,0.5,0.0,-0.3,0.27,1.14,417.52,18.0,47.4,5.5,1.0,8.25,4.25,4.5,3.75,2.5,6.5,3.25,7.75,8.25,4.25,5.5,0.14,0.08,0.95,1172.3,-6.0,-13.0
1.56,6.5,0.0,0.0,8.0,0.0,2.0,0.0,2.25,0.25,1.0,0.0,0.0,0.25,-0.36,0.27,1.33,353.62,12.9,46.9,6.0,1.0,8.75,4.5,4.5,3.75,2.5,6.75,3.25,7.25,7.5,3.5,4.25,0.14,0.14,0.95,1187.28,-6.9,-7.0
1.58,5.5,0.0,5.75,7.5,0.0,0.0,0.0,2.0,0.0,1.0,0.0,0.0,0.25,-0.55,0.33,1.52,313.34,22.0,51.3,6.25,1.0,9.25,4.5,4.5,3.75,2.5,6.0,3.0,6.75,6.75,3.0,3.5,0.14,0.14,0.95,1157.61,-8.0,-1.9
1.6,2.5,0.0,0.0,6.5,0.0,0.0,0.0,1.75,0.25,1.0,0.0,0.25,0.25,-0.61,0.39,1.95,248.7,12.2,32.7,6.75,1.0,9.5,5.0,4.5,3.75,2.5,5.75,2.75,6.0,6.0,2.25,3.25,0.14,0.14,0.95,1105.57,-8.9,3.7
1.62,0.0,0.0,3.0,0.0,0.0,0.0,0.0,0.0,0.0,0.0,0.0,0.0,0.25,-0.73,0.77,2.33,151.65,34.3,47.8,7.0,1.0,10.5,6.0,4.5,3.75,2.5,5.25,2.75,5.25,5.25,1.75,2.5,0.14,0.14,0.95,1037.5,-10.5,11.0
1.64,0.0,0.0,0.0,0.75,0.0,0.0,0.0,0.0,0.25,0.25,0.0,0.0,0.0,-0.73,0.95,2.83,39.78,9.8,13.3,7.25,1.0,10.5,6.0,4.5,3.75,2.75,5.0,2.0,4.0,4.5,1.75,2.0,0.14,0.14,0.89,964.22,-11.6,16.7
1.66,0.0,0.0,1.0,2.0,0.0,0.0,0.0,0.0,0.0,0.0,0.0,0.0,0.0,-0.55,0.39,1.89,0.0,24.1,58.9,7.75,1.0,11.5,6.25,4.5,3.75,2.75,4.0,2.0,3.75,4.0,1.25,1.75,0.14,0.14,0.95,908.97,-13.1,22.5
1.68,0.0,0.0,0.75,1.5,0.0,0.0,0.0,0.0,0.25,1.25,0.0,0.5,0.0,-0.73,-0.17,1.7,0.0,10.2,-4.7,7.75,1.5,11.5,6.25,4.5,3.75,2.75,4.0,2.0,3.5,3.5,1.5,1.5,0.14,0.14,0.95,862.61,-13.4,24.7
1.7,0.0,0.0,0.0,0.5,0.0,0.0,0.0,0.0,0.0,0.0,0.0,0.0,0.0,-0.67,-0.86,1.89,0.0,17.2,57.9,8.25,1.75,12.5,7.75,5.25,3.75,3.0,4.0,1.75,2.5,3.25,1.0,1.5,0.14,0.14,0.95,854.85,-14.5,31.4
1.72,0.0,0.0,0.0,0.25,0.0,0.0,0.0,0.0,0.75,0.0,0.0,0.0,0.0,-0.3,-1.05,0.83,0.0,13.5,-13.3,8.25,1.75,12.5,8.0,5.25,3.75,3.0,4.0,1.5,2.25,2.5,0.75,1.25,0.14,0.14,0.95,850.92,-14.9,35.1
1.74,0.0,0.0,0.0,1.0,0.0,0.0,5.0,0.0,3.25,0.5,0.0,0.0,0.0,-0.3,-0.55,0.27,0.0,17.7,-4.9,8.5,1.75,13.0,8.25,5.5,3.75,3.0,4.0,1.25,2.25,2.5,0.75,1.25,0.08,0.14,0.95,863.31,-15.1,36.2
1.76,2.25,0.0,0.0,3.25,0.0,0.0,3.25,4.25,2.75,0.0,0.0,0.0,0.0,-0.48,-0.42,0.14,45.02,10.2,12.5,8.5,2.0,13.0,8.25,5.5,3.75,3.0,3.75,1.25,2.25,2.5,0.75,1.25,0.14,0.14,0.95,873.85,-15.2,36.8
1.78,0.0,0.0,0.0,0.0,0.0,0.0,0.0,0.0,0.0,0.0,0.0,0.0,0.0,-0.48,-0.42,0.2,42.09,0.0,0.0,9.0,1.75,14.0,9.5,6.25,3.75,3.0,2.75,1.25,1.75,2.0,0.5,1.0,0.14,0.14,0.95,898.62,-16.6,42.9
1.8,0.0,0.0,0.0,0.0,0.0,0.0,0.0,0.0,0.0,0.0,0.0,0.0,0.0,-0.48,-0.48,0.45,36.23,0.0,0.0,9.0,2.5,13.5,9.75,6.25,3.75,3.0,2.5,1.25,2.0,1.5,0.25,0.75,0.14,0.2,0.95,915.33,-16.6,45.8
1.82,0.0,0.0,0.0,0.0,0.0,0.0,0.0,0.0,0.0,0.0,0.0,0.0,0.0,-0.42,-0.42,0.64,5.16,0.0,0.0,9.0,2.5,13.5,9.75,6.25,3.75,2.5,2.5,0.75,1.0,1.25,0.25,0.75,0.08,0.14,1.02,918.33,-17.2,49.5
1.84,0.0,0.0,0.0,0.0,0.0,0.0,0.0,0.0,0.0,0.0,0.0,0.0,0.0,-0.48,-0.17,0.64,0.0,0.0,0.0,9.0,2.5,12.0,9.75,6.25,3.75,2.25,2.5,0.75,1.5,1.25,0.25,0.75,0.08,0.2,1.08,903.86,-16.2,48.0
1.86,0.0,0.0,0.0,0.0,0.0,0.0,0.0,0.0,0.0,0.0,0.0,0.0,0.0,-0.48,-0.05,0.77,0.0,0.0,0.0,9.25,2.5,14.0,9.75,6.5,3.5,1.5,2.5,0.75,1.0,1.25,0.25,0.75,0.08,0.2,1.08,900.1,-17.4,50.1
1.88,0.0,0.0,0.0,0.0,0.0,0.0,0.0,0.0,0.0,0.0,0.0,0.0,0.0,-0.61,0.02,1.02,0.0,0.0,0.0,9.25,0.0,14.5,9.75,6.5,3.5,1.25,2.5,0.75,1.5,1.25,0.25,0.75,0.08,0.2,1.08,884.72,-17.5,46.7
1.9,0.0,0.0,0.0,0.0,0.0,0.0,0.0,0.0,0.0,0.0,0.0,0.0,0.0,-0.67,0.14,1.39,0.0,0.0,0.0,9.0,2.75,13.0,9.75,5.5,2.5,1.0,1.25,0.75,0.75,1.25,0.25,0.75,0.08,0.27,0.95,852.59,-19.1,53.2
1.92,0.0,0.0,0.0,0.0,0.0,0.0,0.0,0.0,0.0,0.0,0.0,0.0,0.0,-0.73,0.39,1.95,0.0,0.0,0.0,9.0,2.5,12.0,8.0,6.75,2.0,1.0,1.25,0.0,0.25,1.0,0.25,0.75,0.08,0.33,1.14,796.33,-19.1,56.3
1.94,0.0,0.0,0.0,0.0,0.0,0.0,0.0,0.0,0.0,0.0,0.0,0.0,0.0,-0.86,1.02,2.14,0.0,0.0,0.0,8.25,2.75,10.5,8.25,6.5,2.75,0.5,1.75,0.75,1.0,0.0,0.25,0.0,0.14,0.33,1.33,739.51,-17.1,56.5
1.96,0.0,0.0,0.0,0.0,0.0,0.0,0.0,0.0,0.0,0.0,0.0,0.0,0.0,-1.11,1.7,1.95,0.0,0.0,0.0,7.75,2.5,9.25,7.0,6.5,1.25,0.75,1.0,0.75,0.0,0.0,0.25,0.75,0.02,0.33,1.39,659.34,-18.7,58.2
1.98,0.0,0.0,0.0,0.0,0.0,0.0,0.0,0.0,0.0,0.0,0.0,0.0,0.0,-1.36,2.39,1.58,0.0,0.0,0.0,6.25,1.0,7.75,5.25,4.5,1.25,0.25,1.0,0.0,0.75,0.25,0.25,0.75,-0.17,0.33,1.7,541.51,-18.1,52.7
2.0,0.0,0.0,0.0,0.0,0.0,0.0,0.0,0.0,0.0,0.0,0.0,0.0,0.0,-1.48,3.2,0.89,0.0,0.0,0.0,4.75,1.0,7.0,4.25,4.5,1.5,0.75,1.0,0.5,0.75,0.75,0.0,0.0,-0.3,0.52,1.95,433.25,-17.2,51.7
2.02,0.0,0.0,0.0,0.0,0.0,0.0,0.0,0.0,0.0,0.0,0.0,0.0,0.0,0.02,4.45,1.83,0.0,0.0,0.0,3.75,1.0,5.5,3.0,4.5,1.25,0.75,0.75,0.25,1.0,0.75,0.25,0.0,-0.17,0.89,1.89,342.33,-15.5,47.9
2.04,0.0,0.0,0.0,0.0,0.0,0.0,0.0,0.0,3.0,0.0,0.0,0.0,0.0,0.89,3.89,0.95,16.54,12.1,-38.5,2.0,0.0,4.0,2.0,3.5,1.25,0.25,1.0,0.25,0.75,1.25,0.25,0.0,-0.36,0.52,1.89,265.35,-12.5,35.0
2.06,0.0,0.0,0.0,0.0,0.0,0.0,3.25,1.5,0.0,0.0,0.0,0.0,0.0,1.45,3.83,0.83,32.25,8.2,-5.0,1.5,0.25,3.0,1.5,4.25,1.25,0.25,1.0,0.75,1.0,1.25,0.25,0.0,-0.17,-1.67,1.89,211.47,-8.9,29.1
2.08,0.25,0.0,0.0,0.25,0.0,0.0,0.0,0.0,0.0,1.0,0.0,1.0,0.0,0.27,-0.55,1.83,44.15,2.3,-58.9,1.5,0.0,2.5,1.75,2.5,1.25,0.25,1.0,0.75,0.75,1.25,0.25,0.25,0.08,-1.48,1.58,162.66,-9.7,23.0
2.1,0.0,0.0,1.0,0.0,0.0,0.0,0.0,1.0,0.25,2.75,0.0,1.5,0.0,1.02,-0.17,0.95,71.27,-0.6,-54.7,1.25,0.0,1.75,1.5,4.5,1.25,0.25,1.0,0.75,0.75,1.25,0.25,0.5,-0.05,-0.86,0.27,140.08,-5.4,21.8
2.12,0.0,0.0,0.0,0.0,0.0,0.0,0.0,0.0,0.0,4.5,0.0,2.0,0.0,-1.05,0.45,2.14,95.44,-8.1,-86.0,1.25,0.0,1.75,1.5,4.25,1.25,0.25,1.0,0.75,0.75,1.0,0.25,0.5,-0.36,-0.67,0.33,132.01,-5.5,22.7
2.14,0.0,0.0,0.0,0.0,0.0,0.0,0.0,4.75,0.0,5.0,0.0,2.75,4.0,-0.17,0.27,1.2,167.37,-11.4,-79.2,1.25,0.0,1.25,1.5,3.75,1.25,0.25,1.0,0.75,0.75,1.25,0.25,0.5,-0.48,-0.61,0.7,135.15,-4.8,18.4
2.16,0.0,0.0,0.0,0.0,0.0,0.0,0.0,5.5,1.0,5.25,0.0,2.75,4.0,-0.17,0.02,0.95,229.41,-10.4,-75.3,1.25,0.0,0.75,1.5,2.25,1.25,0.25,1.0,0.75,0.75,1.0,0.25,0.5,-0.3,-0.3,0.89,127.71,-4.4,13.2
2.18,0.0,0.0,0.0,0.0,0.0,0.0,0.0,5.75,1.25,5.75,0.0,2.75,4.0,-0.17,0.02,0.95,281.04,-10.4,-74.4,1.25,0.0,0.5,1.5,3.5,1.25,0.25,1.0,0.75,0.75,0.5,0.25,0.5,-0.23,0.08,0.95,129.35,-2.5,20.4
2.2,0.0,0.0,0.0,0.0,0.0,0.0,0.0,6.0,1.75,6.25,3.0,2.5,4.0,-0.23,0.02,0.95,327.8,-7.7,-73.0,1.25,0.0,0.5,1.5,3.5,1.25,0.25,1.0,0.5,0.75,1.25,0.25,0.5,-0.23,0.64,0.89,138.76,-2.8,16.1
2.22,0.0,0.0,0.0,1.75,0.0,1.25,0.25,6.25,2.5,6.25,4.0,3.0,4.0,-0.17,0.02,0.95,385.63,-5.2,-59.5,1.25,0.0,0.0,1.5,3.25,1.25,0.25,1.0,0.75,0.75,0.75,0.25,0.5,-0.3,1.14,0.77,147.98,-1.3,15.9
2.24,0.0,0.0,0.0,3.0,0.0,2.0,0.25,6.25,2.5,6.25,5.0,3.5,4.0,-0.17,0.02,0.95,448.6,-4.0,-54.0,1.25,0.0,0.5,1.5,3.0,1.25,0.5,1.0,0.5,0.75,1.0,0.25,0.5,-0.3,1.39,0.95,155.82,-3.2,16.3
2.26,0.0,0.0,1.0,2.5,0.0,2.5,0.25,6.5,3.0,6.0,4.75,2.75,4.0,-0.17,0.02,0.95,498.04,-3.4,-49.0,1.25,0.0,0.5,1.5,3.5,1.25,0.25,1.0,0.75,0.75,0.75,0.25,0.5,-0.23,1.77,1.14,166.35,-2.7,18.6
2.28,0.0,0.0,1.0,1.5,0.0,3.0,0.25,6.25,2.5,5.5,4.5,2.75,3.25,-0.17,0.02,0.95,510.14,-4.3,-49.5,1.25,0.0,0.0,1.5,3.75,1.25,0.25,1.0,0.75,1.0,1.25,0.25,0.5,-0.05,2.27,0.89,176.8,-1.1,12.4
2.3,0.0,0.0,2.5,2.25,0.0,3.5,0.25,6.25,2.5,5.25,3.75,2.75,2.75,-0.17,0.02,0.95,504.74,-2.0,-38.4,1.25,0.0,0.5,1.5,3.25,1.25,0.25,1.0,0.5,0.75,1.25,0.25,0.5,-0.17,2.58,0.52,179.63,-3.0,15.3
2.32,0.0,0.0,2.5,2.75,8.0,3.75,0.25,6.25,2.75,4.75,3.25,2.25,2.25,-0.17,0.02,0.95,533.62,-2.1,-12.5,1.0,0.0,0.5,1.5,3.25,1.25,0.25,1.0,0.5,0.75,1.25,0.0,0.5,-0.3,2.33,0.52,180.84,-2.2,16.2
2.34,0.0,0.0,2.5,2.75,7.0,4.25,0.25,6.25,2.5,5.0,3.25,2.0,1.75,-0.17,0.02,0.95,550.29,-2.4,-12.3,1.25,0.0,0.75,1.5,3.25,1.25,0.25,1.0,0.5,1.25,1.25,0.25,0.5,7.95,7.45,-2.86,184.12,-2.9,12.7
2.36,0.75,0.0,2.75,2.75,0.0,4.25,0.25,6.25,2.75,4.5,3.0,2.0,1.5,-0.17,0.02,0.95,517.11,-0.6,-24.5,1.25,0.25,0.25,1.5,2.25,1.25,0.25,1.0,0.25,0.75,0.75,0.25,0.5,2.64,1.33,-0.42,176.89,-2.5,17.4
2.38,1.25,0.75,3.5,4.75,8.25,4.25,0.5,6.25,3.0,4.5,3.0,1.75,1.5,-0.17,0.02,0.95,557.35,1.0,1.7,1.0,0.25,0.5,1.5,2.5,1.25,0.25,1.0,0.5,0.75,0.75,0.25,0.5,0.77,1.39,-0.17,173.79,-2.7,16.4
2.4,1.75,1.0,4.25,4.5,8.0,4.25,0.5,6.0,2.75,4.25,2.5,1.75,1.5,-0.17,0.02,0.95,596.58,2.0,5.4,1.25,0.0,0.0,1.5,1.25,1.25,0.25,1.0,0.25,1.0,0.5,0.25,0.5,-0.73,-0.3,1.39,158.39,-1.2,9.1
2.42,3.0,1.25,4.5,4.5,8.25,4.25,0.5,6.0,2.5,3.0,2.0,1.5,1.25,-0.17,0.02,0.95,644.01,3.5,13.9,1.25,0.25,0.5,1.5,3.0,1.25,0.25,1.0,0.25,2.0,1.0,0.25,0.5,-0.11,-0.3,1.7,165.86,-1.2,10.1
2.44,3.0,2.0,5.75,6.0,8.5,3.75,0.5,5.5,2.5,2.75,1.5,1.25,0.75,-0.17,0.02,0.95,677.78,5.8,22.5,1.25,0.0,0.25,1.25,2.75,1.25,0.0,1.0,0.25,1.0,1.0,0.25,0.5,1.14,-0.3,0.45,163.44,-1.0,12.2
2.46,5.0,2.25,5.75,6.25,4.25,3.5,0.5,5.25,2.25,2.5,1.25,0.75,0.5,-0.17,0.08,0.95,676.72,8.9,27.2,1.25,0.0,0.5,1.25,3.5,1.25,0.25,1.0,0.25,0.75,0.0,0.25,0.75,0.52,0.52,0.52,169.77,-1.1,23.3
2.48,5.0,2.25,6.75,6.75,0.0,3.0,0.5,5.0,2.25,2.5,1.25,0.75,0.25,-0.11,0.08,0.95,628.9,12.3,26.4,1.25,0.0,0.0,1.25,3.5,1.25,0.0,1.0,0.25,0.75,0.0,0.25,0.5,0.39,0.52,1.14,164.89,0.7,24.6
2.5,5.75,2.25,6.75,7.25,0.0,2.75,0.5,4.75,2.25,2.5,1.25,0.75,0.25,-0.11,0.08,0.95,588.91,13.2,28.6,1.25,0.0,0.0,1.25,3.25,1.25,0.0,1.25,0.25,0.75,0.0,0.25,0.75,0.64,0.83,0.95,163.06,1.3,19.1
2.52,5.75,2.25,6.75,6.75,0.0,3.0,0.5,4.75,2.75,2.5,1.25,1.25,0.25,-0.11,0.08,0.89,565.38,12.8,25.5,1.25,0.0,0.5,1.25,3.25,1.25,0.25,1.0,0.25,1.0,0.25,0.25,0.5,0.89,1.2,0.7,162.49,-1.3,21.2
2.54,5.75,2.5,7.25,7.5,0.0,2.25,0.75,4.75,2.75,2.5,1.25,1.25,0.5,-0.11,0.02,0.95,556.36,13.8,26.1,1.25,0.0,0.0,1.25,3.5,1.25,0.25,1.0,0.25,1.0,0.25,0.25,0.5,0.77,0.52,0.45,164.44,0.4,20.2
2.56,6.5,2.75,7.25,8.0,8.0,2.0,0.75,4.5,3.0,2.75,1.25,0.75,0.25,-0.11,0.02,0.95,622.47,11.2,34.6,1.25,0.0,0.0,1.25,3.25,1.25,0.0,1.0,0.25,1.0,0.25,0.25,0.75,0.52,0.33,0.77,165.72,1.0,16.2
2.58,7.25,3.75,8.0,8.0,0.0,2.0,1.0,4.0,3.0,1.5,1.25,0.75,0.25,-0.11,0.08,0.95,640.93,16.8,37.8,1.25,0.0,0.25,1.25,3.75,1.25,0.25,1.0,0.25,1.0,0.75,0.25,0.5,0.39,0.14,0.64,171.22,-0.7,18.0
2.6,7.75,3.75,8.75,9.0,0.0,1.5,1.0,3.5,2.75,1.75,1.25,1.0,0.25,-0.11,0.08,0.95,660.59,18.0,39.3,1.25,0.25,0.5,1.25,3.75,1.25,0.25,1.0,0.25,0.75,0.75,0.25,0.5,0.27,0.33,0.39,179.19,-2.1,22.5
2.62,8.0,3.75,8.75,9.0,0.0,1.5,1.0,3.5,2.75,1.25,0.75,0.75,0.25,-0.11,0.08,0.95,634.75,18.7,43.3,1.0,0.0,0.25,1.0,3.5,1.25,0.25,1.0,0.25,1.0,0.25,0.25,0.75,0.27,0.58,0.08,177.9,1.0,15.6
2.64,8.25,3.75,9.25,9.5,6.5,1.5,1.25,3.5,2.5,2.0,0.5,0.75,0.25,-0.11,0.08,0.95,697.59,15.2,44.6,1.25,0.25,0.5,1.5,3.75,1.25,0.25,1.0,0.25,1.0,0.25,0.25,0.75,0.33,0.7,0.02,183.47,-1.4,22.4
2.66,8.75,4.0,9.75,10.5,0.0,1.0,1.25,3.0,1.25,1.25,0.25,0.5,0.25,-0.17,0.08,1.08,692.02,20.7,51.8,1.25,0.5,0.5,1.25,3.25,1.25,0.0,1.25,0.25,1.0,0.25,0.25,0.75,0.7,0.89,0.02,182.88,-0.8,20.4
2.68,9.25,4.5,11.0,10.5,0.0,0.75,1.0,2.75,1.5,0.5,0.0,0.0,0.25,-0.17,0.14,1.08,704.75,22.5,58.4,1.25,0.25,0.25,1.0,3.5,1.25,0.25,1.25,0.25,1.0,0.25,0.25,0.5,1.08,1.39,0.08,183.74,0.0,20.7
2.7,9.75,4.5,11.0,10.5,0.0,0.5,0.75,2.5,1.25,0.0,0.0,0.0,0.25,-0.11,0.14,1.08,690.47,23.7,61.9,1.25,0.0,0.0,0.5,3.25,1.25,0.25,1.25,0.5,1.0,0.5,0.25,0.75,0.89,1.64,0.14,177.33,1.7,8.8
2.72,10.5,4.5,11.5,10.5,0.0,0.25,0.25,2.25,1.0,1.0,0.0,0.5,0.25,0.02,0.14,1.08,690.39,23.5,58.7,1.25,0.0,0.25,0.5,3.75,1.25,0.5,1.0,0.25,0.75,0.75,0.25,0.5,0.77,1.45,0.45,174.15,-0.3,17.4
2.74,0.0,4.0,11.5,11.0,0.0,0.25,0.5,0.0,0.0,1.0,0.0,0.0,0.0,0.02,0.14,1.52,586.95,23.8,59.9,1.25,0.0,0.5,0.75,3.5,1.25,0.0,1.0,0.5,1.0,0.75,0.0,0.5,1.14,0.77,1.27,171.21,-0.6,17.7
2.76,8.75,0.0,7.5,0.0,0.0,0.0,0.0,0.0,0.0,0.0,0.0,0.0,0.0,-0.3,0.27,1.95,426.55,36.6,79.9,1.25,0.0,0.75,1.25,3.5,1.25,0.25,1.25,0.5,1.0,1.25,0.25,0.5,1.02,0.33,0.77,178.96,-2.5,13.4
2.78,0.0,0.0,8.25,0.0,0.0,0.0,2.5,2.75,0.0,0.0,0.0,0.0,0.0,-0.42,0.27,2.33,285.32,25.5,35.7,1.25,0.0,0.0,0.5,4.5,1.25,0.25,1.0,0.5,1.0,0.75,0.25,0.5,0.27,0.77,-0.86,182.45,1.1,15.9
2.8,8.75,0.0,0.0,8.5,0.0,0.0,0.0,0.0,0.0,0.0,0.0,0.0,0.0,-0.42,0.02,2.02,216.63,25.7,77.0,1.25,0.5,0.5,1.25,3.75,1.25,0.25,1.0,0.5,1.0,0.75,0.25,0.5,0.02,0.33,-0.86,189.84,-2.1,21.0
2.82,0.0,0.0,0.0,0.0,0.0,0.0,0.0,0.0,0.0,0.0,0.0,0.0,0.0,-0.3,0.02,1.39,96.33,0.0,0.0,1.25,0.25,0.5,0.5,3.5,1.25,0.25,1.0,0.75,1.0,1.0,0.25,0.75,-0.3,-1.17,-0.42,189.2,-1.1,10.6
2.84,0.0,0.0,3.0,0.0,0.0,0.0,0.0,0.0,0.0,0.0,0.0,0.0,0.0,0.45,0.2,1.52,16.4,38.2,60.9,1.25,0.5,0.25,1.0,3.75,1.25,0.25,1.0,0.5,1.0,0.75,0.25,0.75,-0.8,-0.67,-0.3,191.72,-0.8,16.8
2.86,0.0,0.0,0.0,0.0,0.0,0.0,0.0,0.0,0.0,0.0,0.0,0.0,0.0,0.39,0.14,0.45,0.0,0.0,0.0,1.0,0.25,0.5,0.75,3.75,1.25,0.25,1.0,0.5,0.75,1.25,0.25,0.5,-0.92,1.27,-0.3,189.65,-1.4,14.5
2.88,0.0,0.0,1.5,0.5,0.0,0.0,0.0,0.0,0.0,0.0,0.0,0.0,0.0,0.39,-0.17,0.39,0.0,32.9,60.2,1.25,0.0,0.5,1.0,3.0,1.25,0.25,1.0,0.75,1.0,0.75,0.25,0.5,-0.11,1.77,-0.23,185.1,-2.0,13.1
2.9,0.0,0.0,0.0,0.0,0.0,0.0,2.5,0.0,0.0,0.0,0.0,0.0,0.0,0.64,-0.3,0.33,0.0,32.4,27.3,1.25,0.25,0.25,1.25,3.5,1.25,0.25,1.0,0.5,1.0,0.75,0.25,0.5,0.77,1.33,-0.3,184.4,-1.3,17.8
2.92,0.0,0.0,0.0,0.0,0.0,0.0,2.75,0.0,0.0,0.0,0.0,0.0,0.0,0.7,0.02,0.33,0.0,32.4,27.3,1.25,0.25,0.25,0.5,3.0,1.25,0.25,0.75,0.5,1.0,1.25,0.25,0.5,1.39,1.08,-0.48,178.55,-1.2,10.3
2.94,0.0,0.0,0.0,0.0,0.0,0.0,0.0,0.0,0.0,0.0,0.0,0.0,0.0,0.27,0.02,-0.17,0.0,0.0,0.0,1.25,0.5,0.25,0.75,3.75,1.25,0.25,1.0,0.5,1.0,0.75,0.25,0.5,1.39,1.08,-0.3,179.88,-0.7,18.6
2.96,0.0,0.0,0.0,0.0,0.0,0.0,0.0,0.0,0.0,0.0,0.0,0.0,0.0,-0.36,0.52,-0.17,0.0,0.0,0.0,1.0,0.25,0.25,0.75,3.5,1.25,0.25,1.0,0.5,0.75,0.75,0.25,0.5,0.77,1.08,0.14,174.97,-0.2,16.3
2.98,0.0,0.0,0.0,1.0,0.0,0.0,0.0,0.0,0.25,1.0,0.0,0.5,0.0,0.45,2.2,-1.48,0.0,3.4,-28.2,1.25,0.25,0.75,0.75,3.5,1.25,0.25,1.0,0.5,1.25,1.0,0.25,0.75,0.14,0.95,0.52,180.33,-1.7,11.8
3.0,0.0,0.0,0.0,1.0,0.0,0.0,0.0,0.0,0.0,0.0,0.0,0.0,0.0,1.7,2.52,-0.17,0.0,17.2,57.9,1.25,0.0,0.25,0.5,2.5,1.25,0.25,1.0,0.5,1.0,0.75,0.25,0.5,-0.11,0.77,0.52,169.61,-0.3,8.5
3.02,0.0,0.0,0.0,0.0,0.0,0.0,0.0,0.0,0.0,0.0,0.0,0.0,0.0,0.33,1.2,-1.05,0.0,0.0,0.0,1.0,0.0,0.5,1.25,4.25,1.25,0.25,1.0,0.5,1.0,0.75,0.25,0.75,-0.17,0.7,0.33,177.98,-0.6,15.5
3.04,0.0,0.0,0.0,0.0,0.0,0.0,0.0,0.0,0.0,0.0,0.0,0.0,0.0,-1.48,-0.42,-2.36,0.0,0.0,0.0,1.25,0.25,0.0,1.0,3.0,1.25,0.25,1.0,0.5,0.75,1.0,0.25,0.5,0.08,0.83,0.27,172.64,-0.9,14.1
3.06,0.0,0.0,0.0,0.0,0.0,0.0,0.0,0.0,0.0,0.0,0.0,0.0,0.0,-1.11,-0.42,-1.48,1.79,0.0,0.0,1.25,0.0,0.0,0.75,3.25,1.25,0.25,0.75,0.5,0.75,0.75,0.25,0.75,0.52,0.89,0.14,170.8,0.0,12.3
3.08,0.75,0.0,0.0,0.75,0.0,0.0,0.0,0.0,0.25,1.0,0.0,0.75,0.25,-0.67,0.33,-0.42,15.99,7.6,-21.7,1.0,0.0,0.5,1.25,3.75,1.25,0.25,1.0,0.5,0.75,1.0,0.25,0.75,0.7,0.95,0.02,173.28,-1.3,13.8
3.1,0.0,0.0,1.0,0.5,0.0,0.0,0.0,0.0,0.25,1.0,0.0,0.25,0.0,-0.11,0.77,-0.3,32.45,12.4,-6.3,1.0,0.0,0.5,1.25,3.5,1.25,0.25,1.0,0.25,1.0,0.5,0.25,0.5,0.64,1.08,-0.11,174.98,-0.8,18.5
3.12,1.25,0.0,1.0,0.5,0.0,0.0,0.25,0.0,0.25,1.0,0.0,0.5,0.25,0.08,1.2,-0.05,55.85,16.8,8.8,1.25,0.0,1.25,0.5,3.75,1.25,0.25,1.0,0.5,0.75,0.25,0.25,0.75,0.52,1.02,-0.05,178.62,-2.7,20.9
3.14,0.75,0.0,0.0,0.75,0.0,0.0,0.0,0.0,0.25,1.0,0.0,0.5,0.25,0.39,1.77,0.52,63.6,7.5,-15.4,1.25,0.0,0.25,0.5,3.25,1.25,0.25,1.0,0.5,1.0,0.75,0.25,0.5,0.2,0.89,-0.17,174.21,0.0,12.1
3.16,0.75,0.0,0.0,0.5,0.0,0.0,0.0,0.0,0.25,1.0,0.0,0.25,0.25,1.02,2.2,-0.67,65.1,6.5,-14.0,1.25,0.0,0.25,0.5,3.5,1.25,0.25,1.0,0.5,0.5,0.75,0.0,0.5,0.14,0.83,-0.17,170.26,-0.5,20.2
3.18,0.0,0.0,0.0,0.5,0.0,0.0,0.0,0.0,0.0,0.25,0.0,0.0,0.0,-0.3,1.95,0.52,48.73,6.5,14.7,1.25,0.0,0.25,0.75,3.5,1.25,0.25,1.0,0.5,0.75,0.25,0.25,0.5,0.08,0.89,-0.17,164.27,-0.2,20.2
3.2,0.25,0.0,0.0,0.5,0.0,0.0,0.0,0.0,0.25,1.0,0.0,0.5,0.0,0.58,1.14,0.39,42.81,3.5,-34.5,0.75,0.25,0.5,1.0,3.25,1.25,0.25,1.0,0.5,0.75,0.5,0.25,0.5,0.2,0.89,-0.05,163.8,-0.7,17.7
3.22,1.25,0.0,0.0,0.5,0.0,0.0,0.0,0.0,0.25,1.0,0.0,0.5,0.25,0.33,0.83,0.08,44.37,10.3,-6.3,0.75,0.0,0.0,0.75,2.5,1.25,0.0,1.0,0.5,1.0,0.5,0.25,0.75,0.2,0.89,-0.11,155.49,2.9,2.8
3.24,0.0,0.0,0.0,0.25,0.0,0.0,0.0,0.0,0.0,0.0,0.0,0.0,0.25,0.52,0.64,0.08,36.67,1.8,-25.2,1.0,0.0,0.25,0.5,3.25,1.25,0.0,1.0,0.5,0.75,1.0,0.25,0.75,0.27,0.89,-0.17,156.51,0.7,7.2
3.26,0.0,0.0,0.0,0.5,0.0,0.0,0.0,0.0,0.0,0.25,0.0,0.0,0.0,0.7,0.58,0.08,28.83,6.5,14.7,0.5,0.0,0.25,0.5,3.0,1.25,0.25,1.0,0.5,0.75,0.75,0.25,0.75,0.33,0.95,-0.17,150.27,2.2,3.9
3.28,0.0,0.0,0.0,0.5,0.0,0.0,0.0,0.0,0.0,0.25,0.0,0.0,0.0,0.95,0.77,0.14,17.53,6.5,14.7,1.25,0.0,0.75,1.0,3.0,1.25,0.25,1.0,0.5,0.75,0.25,0.25,0.75,0.27,1.02,-0.17,156.85,-2.2,18.3
3.3,0.0,0.0,0.0,0.25,0.0,0.0,0.0,0.0,0.0,0.25,0.0,0.0,0.0,1.02,0.83,0.08,8.22,1.1,-7.2,1.25,0.0,0.25,0.5,2.75,1.25,0.25,1.0,0.5,0.75,0.75,0.25,0.5,0.27,1.02,-0.11,154.69,-0.6,11.9
3.32,0.0,0.0,0.0,0.25,0.0,0.0,0.0,0.0,0.0,0.0,0.0,0.0,0.0,0.89,0.77,-0.05,0.0,17.2,57.9,1.0,0.0,0.5,0.75,2.5,1.25,0.25,0.75,0.5,0.75,0.5,0.25,0.5,0.2,1.02,-0.05,152.18,-1.5,14.6
3.34,0.0,0.0,0.0,0.25,0.0,0.0,0.0,0.0,0.0,0.25,0.0,0.0,0.0,0.77,0.7,-0.11,0.0,1.1,-7.2,1.25,0.0,0.25,0.75,2.75,1.25,0.25,1.0,0.25,1.0,0.75,0.25,0.5,0.2,1.08,-0.05,151.91,-0.3,12.1
3.36,0.0,0.0,0.0,0.25,0.0,0.0,0.0,0.0,0.0,0.25,0.0,0.0,0.0,0.64,0.64,-0.23,0.0,1.1,-7.2,1.25,0.0,0.25,0.5,2.75,1.25,0.25,1.0,0.5,0.75,0.5,0.25,0.75,0.2,1.02,0.02,151.43,0.0,10.9
3.38,0.0,0.0,0.0,0.25,0.0,0.0,0.0,0.0,0.0,0.25,0.0,0.0,0.0,0.52,0.77,-0.42,0.77,1.1,-7.2,0.75,0.0,0.0,1.25,3.0,1.25,0.0,1.0,0.25,1.0,0.5,0.25,0.5,0.2,0.83,0.02,152.55,2.0,12.4
3.4,0.0,0.0,0.0,0.25,0.0,0.0,0.0,0.0,0.0,0.0,0.0,0.0,0.0,0.45,0.83,-0.61,1.35,17.2,57.9,1.25,0.0,0.0,0.5,3.0,1.25,0.25,1.0,0.5,1.0,0.5,0.25,0.5,0.2,0.77,0.02,152.93,1.0,11.7
3.42,0.0,0.0,0.0,0.25,0.0,0.0,0.0,0.0,0.0,0.25,0.0,0.0,0.0,0.39,0.89,-0.61,3.09,1.1,-7.2,0.75,0.0,0.25,0.5,2.5,1.25,0.25,1.0,0.5,0.75,0.5,0.25,0.5,0.27,0.64,0.02,148.34,1.2,8.5
3.44,0.0,0.0,0.0,0.25,0.0,0.0,0.0,0.0,0.0,0.25,0.0,0.0,0.0,0.33,0.89,-0.48,2.5,1.1,-7.2,1.0,0.0,0.5,1.0,2.5,1.25,0.25,1.0,0.25,1.0,1.0,0.25,0.5,0.27,0.7,0.02,150.86,-1.2,9.4
3.46,0.0,0.0,0.0,0.0,0.0,0.0,0.0,0.0,0.0,0.0,0.0,0.0,0.0,0.33,0.89,-0.17,1.43,0.0,0.0,1.25,0.0,0.75,1.0,2.5,1.25,0.25,1.0,0.25,1.0,0.75,0.25,0.5,0.2,0.83,-0.11,155.51,-2.6,14.4
3.48,0.0,0.0,0.0,0.25,0.0,0.0,0.0,0.0,0.0,0.25,0.0,0.0,0.0,0.33,0.89,-0.11,4.96,1.1,-7.2,1.25,0.0,0.25,0.25,2.5,1.25,0.25,1.0,0.5,1.0,0.75,0.25,0.5,0.14,0.95,-0.11,154.69,0.0,7.2
3.5,0.0,0.0,0.0,0.25,0.0,0.0,0.0,0.0,0.0,0.0,0.0,0.0,0.0,0.39,0.89,-0.17,4.12,17.2,57.9,1.0,0.0,0.25,0.5,2.25,1.25,0.25,1.0,0.5,1.0,0.75,0.25,0.5,0.08,1.08,-0.05,151.82,0.3,5.0
3.52,0.0,0.0,0.0,0.25,0.0,0.0,0.0,0.0,0.0,0.0,0.0,0.0,0.0,0.45,0.89,-0.17,4.46,17.2,57.9,1.0,0.0,0.25,0.5,2.25,1.25,0.5,1.0,0.5,0.75,0.75,0.25,0.75,0.14,1.08,-0.05,148.1,0.0,4.3
3.54,0.0,0.0,0.0,0.25,0.0,0.0,0.0,0.0,0.0,0.0,0.0,0.0,0.0,0.52,0.89,-0.17,4.33,17.2,57.9,1.25,0.0,0.0,0.5,2.5,1.25,0.25,1.0,0.5,1.0,0.5,0.25,0.0,0.2,1.02,-0.11,144.23,0.2,15.9
3.56,0.0,0.0,0.0,0.25,0.0,0.0,0.0,0.0,0.0,0.0,0.0,0.0,0.0,0.52,0.83,-0.17,4.52,17.2,57.9,0.75,0.0,0.0,0.5,2.75,1.25,0.25,1.0,0.25,0.75,0.25,0.25,1.0,0.2,0.95,-0.11,140.69,3.7,5.3
3.58,0.0,0.0,0.0,0.25,0.0,0.0,0.0,0.0,0.0,0.0,0.0,0.0,0.0,0.45,0.83,-0.17,4.07,17.2,57.9,1.25,0.0,0.25,0.75,2.75,1.25,0.25,1.0,0.5,1.0,0.75,0.25,0.5,0.2,0.89,-0.05,145.91,-0.6,10.9
3.6,0.0,0.0,0.25,0.25,0.0,0.0,0.0,0.0,0.0,0.0,0.0,0.0,0.0,0.45,0.83,-0.17,5.72,27.6,59.4,1.0,0.0,0.25,0.75,3.0,1.25,0.25,1.0,0.25,1.0,0.75,0.25,0.5,0.14,0.89,-0.05,151.15,0.4,11.3
3.62,0.0,0.0,0.25,0.25,0.0,0.0,0.0,0.0,0.0,0.0,0.0,0.0,0.0,0.39,0.83,-0.23,7.41,27.6,59.4,1.25,0.0,0.25,0.25,2.75,0.75,0.25,1.0,0.25,0.75,0.75,0.25,0.5,0.14,0.89,-0.05,149.68,-1.0,10.8
3.64,0.0,0.0,0.0,0.25,0.0,0.0,0.0,0.0,0.0,0.0,0.0,0.0,0.0,0.45,0.89,-0.23,7.3,17.2,57.9,1.0,0.0,0.25,1.0,2.5,1.0,0.25,1.0,0.25,1.0,0.5,0.25,0.5,0.14,0.89,-0.11,148.77,-0.4,11.7
3.66,0.0,0.0,0.0,0.25,0.0,0.0,0.0,0.0,0.0,0.0,0.0,0.0,0.0,0.52,0.89,-0.3,6.44,17.2,57.9,1.0,0.0,0.25,0.5,2.5,1.25,0.25,1.0,0.25,0.75,0.5,0.25,0.5,0.14,0.89,-0.11,144.55,0.6,12.0
3.68,0.0,0.0,0.0,0.25,0.0,0.0,0.0,0.0,0.0,0.0,0.0,0.0,0.0,0.58,0.95,-0.3,5.59,17.2,57.9,0.75,0.0,0.0,0.5,2.75,1.25,0.25,1.0,0.25,1.25,0.5,0.25,0.5,0.2,0.89,-0.11,141.59,3.5,5.2
3.7,0.0,0.0,0.0,0.0,0.0,0.0,0.0,0.0,0.0,0.0,0.0,0.0,0.0,0.52,0.95,-0.3,3.49,0.0,0.0,1.25,0.0,0.25,0.5,2.5,1.25,0.25,1.0,0.25,0.75,0.5,0.25,0.75,0.27,0.95,-0.11,142.09,0.1,10.8
3.72,0.0,0.0,0.0,0.0,0.0,0.0,0.0,0.0,0.0,0.0,0.0,0.0,0.0,0.45,0.95,-0.3,1.31,0.0,0.0,0.75,0.25,0.25,0.5,2.5,1.25,0.25,1.0,0.5,1.0,0.75,0.25,0.5,0.2,1.02,-0.05,145.89,0.9,6.7
3.74,0.0,0.0,0.25,0.25,0.0,0.0,0.0,0.0,0.0,0.0,0.0,0.0,0.0,0.45,0.89,-0.23,3.37,27.6,59.4,1.25,0.25,0.25,1.0,2.5,1.25,0.25,1.0,0.25,0.75,0.25,0.25,0.5,0.14,1.08,0.02,148.96,-1.1,20.8
3.76,0.0,0.0,0.25,0.0,0.0,0.0,0.0,0.0,0.0,0.0,0.0,0.0,0.0,0.39,0.89,-0.23,3.96,38.2,60.9,1.25,0.0,0.25,0.5,2.75,1.25,0.25,1.0,0.25,1.0,0.5,0.25,0.75,0.02,1.08,-0.05,151.68,0.6,9.9
3.78,0.0,0.0,0.0,0.25,0.0,0.0,0.0,0.0,0.0,0.25,0.0,0.0,0.0,0.39,0.89,-0.23,6.0,1.1,-7.2,0.5,0.0,0.0,1.0,1.75,1.25,0.25,1.0,0.25,0.75,1.0,0.25,0.5,0.02,1.08,-0.05,145.27,1.7,-0.4
3.8,0.0,0.0,0.75,0.5,0.0,0.0,0.0,0.0,0.25,0.5,0.0,0.0,0.0,0.45,0.89,-0.23,16.04,16.5,14.7,1.25,0.0,0.25,0.5,2.5,1.25,0.25,1.0,0.5,0.75,0.75,0.25,0.5,0.08,1.02,-0.05,144.95,-0.7,10.6
3.82,1.25,0.0,1.0,0.5,0.0,0.0,0.0,0.0,0.25,1.0,0.0,0.0,0.25,0.45,0.89,-0.23,37.88,17.2,22.2,0.5,0.0,0.25,1.0,2.75,1.25,0.25,1.0,0.5,0.75,0.75,0.25,0.5,0.08,0.95,-0.05,144.51,0.8,8.2
3.84,1.0,0.0,0.75,0.5,0.0,0.0,0.0,0.0,0.25,1.0,0.0,0.5,0.25,0.45,0.89,-0.23,56.08,14.0,0.2,0.75,0.25,0.25,0.5,2.75,1.0,0.25,1.0,0.5,0.75,0.25,0.25,0.5,0.14,0.89,-0.05,145.07,0.6,14.0
3.86,1.25,0.0,1.25,0.5,0.0,0.0,0.0,0.0,0.25,1.0,0.0,0.25,0.25,0.45,0.89,-0.23,73.29,17.9,17.4,1.25,0.25,0.0,0.5,2.25,1.25,0.0,1.0,0.25,1.0,0.5,0.25,0.5,0.08,0.89,0.02,144.25,1.2,11.4
3.88,1.25,0.0,1.25,0.5,0.0,0.0,0.0,0.0,0.25,1.0,0.0,0.0,0.25,0.52,0.83,-0.23,81.92,18.4,24.4,1.0,0.0,0.0,0.75,2.25,1.25,0.25,1.0,0.25,1.0,0.75,0.25,0.5,0.08,0.89,-0.05,142.86,1.2,6.1
3.9,0.0,0.0,1.0,0.5,0.0,0.0,0.0,0.0,0.25,1.0,0.0,0.5,0.25,0.45,0.83,-0.23,79.58,10.3,-21.0,1.25,0.0,0.25,0.5,2.75,1.25,0.25,1.0,0.25,1.0,0.75,0.25,0.75,0.08,0.89,-0.05,146.87,0.3,7.9
3.92,1.25,0.0,1.0,0.5,0.0,0.0,0.0,0.0,0.25,1.0,0.0,0.5,0.25,0.45,0.89,-0.17,81.07,16.4,8.3,0.75,0.0,0.25,0.5,2.75,1.25,0.25,1.0,0.5,1.0,0.5,0.25,0.5,0.08,0.89,-0.05,147.11,1.6,7.6
3.94,0.0,0.0,1.0,0.25,0.0,0.0,0.0,0.0,0.0,0.0,0.0,0.0,0.0,0.45,0.89,-0.23,64.68,34.0,60.3,1.25,0.0,0.5,0.5,2.5,1.25,0.25,1.0,0.5,0.75,1.0,0.25,0.5,0.08,0.95,-0.11,151.76,-1.9,9.9
3.96,1.25,0.0,0.75,0.5,0.0,0.0,0.25,0.0,0.25,1.0,0.0,0.5,0.25,0.45,0.89,-0.23,67.4,15.5,5.8,0.75,0.0,0.5,0.5,2.75,1.25,0.25,1.0,0.25,1.0,0.5,0.25,0.75,0.14,0.95,-0.11,152.03,1.3,7.1
3.98,0.0,0.0,1.0,0.5,0.0,0.0,0.0,0.0,0.0,0.0,0.0,0.0,0.25,0.45,0.89,-0.23,53.26,24.8,35.8,0.75,0.0,0.25,0.5,4.25,1.0,0.25,0.5,0.25,1.0,0.75,0.25,0.75,0.14,0.95,-0.05,157.82,1.1,12.9
4.0,0.0,0.0,1.0,0.25,0.0,0.0,0.0,0.0,0.0,0.25,0.0,0.0,0.0,0.45,0.89,-0.23,44.87,25.9,38.3,1.25,0.0,0.0,0.5,2.5,1.25,0.25,1.0,0.25,0.75,0.5,0.25,0.5,0.14,0.95,-0.05,153.23,0.8,12.8
4.02,1.25,0.0,0.75,0.5,0.0,0.0,0.0,0.0,0.25,1.0,0.0,0.25,0.0,0.45,0.89,-0.23,44.72,17.4,20.0,0.75,0.0,0.5,0.5,2.25,1.25,0.25,1.0,0.25,1.0,0.75,0.25,0.5,0.14,0.95,-0.11,150.66,0.5,5.4
4.04,0.0,0.0,1.0,0.0,0.0,0.0,0.0,0.0,0.0,0.0,0.0,0.0,0.0,0.45,0.89,-0.23,33.67,38.2,60.9,1.25,0.0,0.0,0.25,1.0,1.25,0.25,1.0,0.25,0.75,0.25,0.25,0.5,0.08,0.95,-0.11,132.44,1.3,4.0
4.06,0.0,0.0,0.5,0.25,0.0,0.0,0.0,0.0,0.0,0.0,0.0,0.0,0.0,0.45,0.89,-0.23,22.69,31.1,59.9,1.0,0.25,0.25,0.5,3.0,1.25,0.25,1.0,0.25,0.75,0.5,0.25,0.75,0.08,0.95,-0.11,136.15,0.8,13.5
4.08,1.25,0.0,0.5,0.5,0.0,0.0,0.0,0.0,0.25,1.0,0.0,0.5,0.0,0.45,0.89,-0.3,30.13,15.5,9.1,1.0,0.25,0.5,0.5,1.75,1.25,0.25,1.0,0.25,0.75,0.5,0.25,0.5,0.02,0.95,-0.05,132.97,-1.0,11.9
4.1,1.25,0.0,1.0,0.5,0.0,0.0,0.0,0.0,0.25,1.0,0.0,0.25,0.25,0.52,0.89,-0.3,44.72,16.8,14.9,1.0,0.0,0.25,0.5,1.75,1.25,0.25,1.0,0.25,1.0,0.75,0.25,0.5,0.02,0.95,-0.05,134.57,0.5,3.0
4.12,0.0,0.0,1.0,0.25,0.0,0.0,0.0,0.0,0.0,0.0,0.0,0.0,0.0,0.52,0.89,-0.23,41.9,34.0,60.3,0.75,0.0,0.25,1.0,2.25,1.25,0.25,1.0,0.25,0.75,0.5,0.25,0.5,0.02,0.95,0.02,134.22,0.4,11.1
4.14,1.25,0.0,0.75,0.5,0.0,0.0,0.0,0.0,0.25,1.0,0.0,0.5,0.0,0.52,0.89,-0.23,52.76,16.9,12.3,0.5,0.0,0.25,0.25,2.5,1.25,0.25,1.0,0.25,0.75,0.5,0.25,0.5,-0.05,0.95,0.02,131.52,3.2,5.8
4.16,1.25,0.0,1.0,0.5,0.0,0.0,0.0,0.0,0.25,1.0,0.0,0.5,0.25,0.52,0.89,-0.23,60.81,16.4,8.3,1.0,0.0,0.25,0.5,2.5,1.25,0.25,1.0,0.5,0.75,0.25,0.25,0.5,0.02,0.95,-0.05,132.59,0.6,13.0
4.18,0.0,0.0,0.5,0.5,0.0,0.0,0.0,0.0,0.0,0.0,0.0,0.0,0.0,0.45,0.89,-0.23,51.99,27.6,59.4,0.75,0.0,0.0,0.5,1.75,1.25,0.25,1.0,0.25,0.75,0.25,0.25,0.5,0.02,0.95,-0.05,125.33,3.1,5.7
4.2,0.0,0.0,0.5,0.25,0.0,0.0,0.0,0.0,0.0,0.0,0.0,0.0,0.0,0.45,0.89,-0.23,36.38,31.1,59.9,0.75,0.0,0.25,0.25,2.5,1.25,0.25,1.0,0.25,0.75,0.5,0.25,0.5,0.08,0.95,-0.05,126.78,2.1,8.3
4.22,1.25,0.0,0.75,0.5,0.0,0.0,0.0,0.0,0.25,1.0,0.0,0.5,0.25,0.45,0.83,-0.23,45.01,15.1,5.3,1.25,0.25,0.0,0.0,1.0,1.25,0.25,0.25,0.25,0.75,0.75,0.25,0.5,0.02,1.02,-0.05,115.68,-1.0,4.6
4.24,0.0,0.0,1.0,0.5,0.0,0.0,0.25,0.0,0.0,0.0,0.0,0.0,0.0,0.52,0.83,-0.23,38.98,31.2,57.6,1.0,0.25,0.0,0.5,2.25,1.0,0.25,1.0,0.25,0.75,0.25,0.25,0.5,0.02,1.02,-0.05,119.39,1.0,13.7
4.26,1.25,0.0,0.25,0.5,0.0,0.0,0.0,0.0,0.25,1.0,0.0,0.5,0.0,0.52,0.83,-0.23,46.44,13.9,5.5,0.5,0.25,0.5,0.5,2.25,1.25,0.25,1.0,0.25,0.75,0.25,0.25,0.5,0.02,1.08,-0.05,121.52,1.2,12.5
4.28,0.0,0.0,1.0,0.0,0.0,0.0,0.0,0.0,0.0,0.0,0.0,0.0,0.25,0.52,0.83,-0.23,40.48,27.8,26.8,0.75,0.25,0.0,0.5,2.25,1.0,0.0,1.0,0.25,0.75,0.75,0.25,0.5,-0.05,1.02,-0.05,126.77,1.8,6.1
4.3,0.0,0.0,0.25,0.25,0.0,0.0,0.0,0.0,0.0,0.0,0.0,0.0,0.0,0.52,0.83,-0.17,29.0,27.6,59.4,1.0,0.25,0.5,0.5,2.75,1.25,0.25,1.0,0.25,1.0,0.75,0.25,0.5,0.02,1.02,-0.05,136.76,-0.4,12.4
4.32,0.0,0.0,0.25,0.5,0.0,0.0,0.0,0.0,0.0,0.0,0.0,0.0,0.0,0.52,0.89,-0.17,13.52,24.1,58.9,0.75,0.25,0.25,0.5,2.75,1.25,0.25,1.0,0.25,0.75,0.75,0.25,0.5,0.02,0.95,-0.05,144.88,0.9,11.3
4.34,0.0,0.0,0.5,0.0,0.0,0.0,0.0,0.0,0.0,0.0,0.0,0.0,0.0,0.45,0.89,-0.23,7.24,38.2,60.9,1.25,0.0,0.75,0.0,2.25,1.25,0.25,1.0,0.5,1.0,0.5,0.25,0.5,-0.05,0.95,-0.05,149.23,-1.3,9.4
4.36,0.0,0.0,0.5,0.5,0.0,0.0,0.0,0.0,0.25,0.0,0.0,0.5,0.0,0.45,0.89,-0.23,11.49,20.2,-1.3,1.25,0.0,0.5,0.5,2.25,1.0,0.25,1.0,0.25,0.75,0.5,0.25,0.5,-0.05,0.95,-0.05,147.48,-1.9,13.7
4.38,0.0,0.0,0.75,0.25,0.0,0.0,0.0,0.0,0.0,0.0,0.0,0.0,0.0,0.39,0.95,-0.23,10.71,32.9,60.2,0.75,0.25,0.25,0.25,1.5,1.25,0.25,0.75,0.25,0.5,0.25,0.0,0.5,-0.05,0.89,-0.05,135.33,1.2,16.2
4.4,1.25,0.0,0.75,0.5,0.0,0.0,0.0,0.0,0.25,0.75,0.0,0.5,0.25,0.39,0.95,-0.23,32.14,16.9,10.1,1.0,0.0,0.25,0.5,1.75,1.25,0.25,0.75,0.25,1.0,0.5,0.25,0.5,-0.05,0.89,-0.05,128.93,0.3,6.6
4.42,1.25,0.0,1.0,0.5,0.0,0.0,0.0,0.0,0.25,1.0,0.0,0.5,0.25,0.39,0.95,-0.23,52.33,16.4,8.3,0.75,0.0,0.5,0.5,2.5,1.25,0.25,1.0,0.5,0.75,0.5,0.25,0.5,-0.05,0.89,-0.05,131.24,0.1,9.9
4.44,1.25,0.0,1.0,0.5,0.0,0.0,0.0,0.0,0.25,1.0,0.0,0.5,0.25,0.39,0.95,-0.23,68.11,16.4,8.3,0.75,0.25,1.25,0.25,2.25,1.25,0.0,1.0,0.25,0.75,0.5,0.25,0.5,-0.11,0.95,-0.05,137.52,-2.1,14.8
4.46,1.25,0.0,1.0,0.5,0.0,0.0,0.0,0.0,0.25,1.0,0.0,0.5,0.25,0.39,0.95,-0.3,75.63,16.4,8.3,0.75,0.25,0.25,0.5,2.25,1.25,0.25,1.0,0.25,0.75,0.25,0.25,0.5,-0.11,0.95,-0.05,139.15,1.4,13.4
4.48,1.25,0.0,1.0,0.5,0.0,0.0,0.0,0.0,0.25,1.0,0.0,0.5,0.25,0.39,0.95,-0.3,82.93,16.4,8.3,1.0,0.25,0.25,0.5,2.25,1.25,0.25,1.0,0.25,0.75,0.75,0.25,0.5,-0.11,0.95,-0.05,140.8,0.0,10.9
4.5,1.25,0.0,1.0,0.5,0.0,0.0,0.0,0.0,0.25,1.0,0.0,0.5,0.25,0.45,0.89,-0.3,83.98,16.4,8.3,1.0,0.25,0.25,0.25,2.25,1.25,0.25,1.0,0.25,0.75,0.25,0.25,0.5,-0.11,1.02,-0.05,137.46,1.0,14.3
4.52,1.25,0.0,1.0,0.5,0.0,0.0,0.0,0.0,0.25,1.0,0.0,0.5,0.25,0.45,0.89,-0.23,86.27,16.4,8.3,0.75,0.25,0.5,0.5,2.5,1.25,0.25,1.0,0.25,0.75,0.5,0.25,0.75,-0.11,1.02,-0.05,139.8,0.5,10.3
4.54,1.25,0.0,1.0,0.5,0.0,0.0,0.0,0.0,0.25,1.0,0.0,0.5,0.0,0.39,0.89,-0.23,85.48,18.1,15.1,1.0,0.25,0.0,0.5,1.75,1.0,0.0,1.0,0.25,0.75,0.75,0.25,0.5,-0.11,1.02,-0.05,133.94,0.7,5.4
4.56,1.25,0.0,1.0,0.5,0.0,0.0,0.0,0.0,0.25,0.25,0.0,0.5,0.25,0.39,0.89,-0.23,80.74,22.4,24.1,1.0,0.25,0.0,0.75,2.5,1.25,0.25,1.0,0.25,0.75,0.75,0.5,0.5,-0.11,1.02,-0.05,140.52,0.3,9.0
4.58,1.25,0.0,1.0,0.5,0.0,0.0,0.0,0.0,0.25,0.75,0.0,0.5,0.0,0.39,0.89,-0.23,77.01,20.1,20.5,0.5,0.0,0.25,0.5,2.75,1.25,0.25,1.0,0.5,0.75,0.75,0.25,0.5,-0.11,1.02,-0.05,141.73,1.9,5.5
4.6,1.0,0.0,1.0,0.5,0.0,0.0,0.0,0.0,0.25,0.75,0.0,0.5,0.25,0.45,0.89,-0.23,72.6,17.2,8.3,0.75,0.5,0.0,0.25,1.5,1.25,0.25,1.0,0.25,0.75,0.5,0.25,0.5,-0.11,1.02,-0.05,137.08,2.3,5.9
4.62,1.25,0.0,1.0,0.5,0.0,0.0,0.0,0.0,0.25,0.0,0.0,0.5,0.25,0.45,0.89,-0.23,67.95,25.0,30.8,0.5,0.0,0.0,0.5,3.0,1.25,0.25,1.0,0.25,0.75,0.25,0.25,0.5,-0.11,1.02,-0.05,135.16,4.2,11.2
4.64,1.25,0.0,1.0,0.5,0.0,0.0,0.0,0.0,0.25,0.0,0.0,0.25,0.25,0.45,0.89,-0.23,61.46,26.1,40.9,0.5,0.25,0.0,0.25,2.75,1.25,0.25,1.0,0.25,1.0,0.5,0.25,0.5,-0.11,0.95,-0.05,132.49,4.3,6.2
4.66,1.0,0.0,1.0,0.5,0.0,0.0,0.0,0.0,0.25,0.25,0.0,0.5,0.25,0.45,0.89,-0.23,59.15,21.6,19.5,0.75,0.0,0.0,0.25,2.75,1.0,0.25,1.0,0.25,0.75,0.25,0.25,0.5,-0.11,0.95,0.02,129.37,3.2,10.0
4.68,0.0,0.0,0.25,0.0,0.0,0.0,0.0,0.0,0.0,0.0,0.0,0.0,0.0,0.45,0.89,-0.23,38.66,38.2,60.9,0.5,0.25,0.5,0.5,2.5,1.25,0.25,1.0,0.25,0.75,0.75,0.25,0.5,-0.11,0.95,-0.05,133.33,0.7,9.2
4.7,0.0,0.0,1.0,0.0,0.0,0.0,0.0,0.0,0.0,0.0,0.0,0.0,0.0,0.45,0.89,-0.23,24.86,38.2,60.9,0.5,0.25,0.25,0.5,1.5,0.75,0.0,1.0,0.25,0.75,1.0,0.25,0.5,-0.11,0.95,-0.05,128.59,0.4,-3.5
4.72,0.0,0.0,0.5,0.0,0.0,0.0,0.0,0.0,0.0,0.0,0.0,0.0,0.0,0.45,0.89,-0.23,9.27,38.2,60.9,0.5,0.25,0.0,1.25,2.5,1.0,0.25,1.0,0.5,0.75,0.25,0.25,0.5,-0.11,0.95,-0.05,131.89,1.0,13.0
4.74,0.0,0.0,0.25,0.5,0.0,0.0,0.0,0.0,0.0,0.0,0.0,0.0,0.0,0.45,0.89,-0.23,3.84,24.1,58.9,1.25,0.25,0.0,0.5,2.25,1.0,0.25,1.0,0.25,1.0,0.75,0.25,0.5,-0.11,0.95,-0.05,134.13,0.0,8.8
4.76,0.0,0.0,0.5,0.25,0.0,0.0,0.0,0.0,0.0,0.0,0.0,0.0,0.0,0.39,0.89,-0.23,0.66,31.1,59.9,0.75,0.0,0.5,0.5,1.75,1.0,0.25,1.0,0.25,0.75,0.5,0.25,0.75,-0.17,0.95,0.02,133.57,0.0,2.4
4.78,0.0,0.0,0.5,0.25,0.0,0.0,0.0,0.0,0.0,0.0,0.0,0.0,0.0,0.39,0.89,-0.23,2.3,31.1,59.9,1.0,0.25,0.5,0.5,2.25,1.25,0.0,1.0,0.25,1.0,0.25,0.25,0.5,-0.17,0.95,0.02,136.62,0.2,14.2
4.8,0.0,0.0,0.25,0.0,0.0,0.0,0.0,0.0,0.0,0.0,0.0,0.0,0.0,0.39,0.89,-0.23,0.0,38.2,60.9,1.25,0.0,0.25,0.5,2.75,1.25,0.25,1.0,0.25,0.75,0.5,0.25,0.5,-0.17,0.95,-0.05,140.35,0.0,15.3
4.82,0.0,0.0,0.5,0.5,0.0,0.0,0.0,0.0,0.25,0.75,0.0,0.0,0.0,0.39,0.89,-0.23,6.99,9.7,-2.1,0.5,0.0,0.25,0.5,2.5,1.25,0.25,1.0,0.25,0.75,0.25,0.25,0.5,-0.17,1.02,-0.05,139.35,2.9,9.8
4.84,0.75,0.0,1.0,1.0,0.0,0.0,0.0,0.0,0.25,0.75,0.0,0.25,0.25,0.39,0.89,-0.23,28.19,16.7,16.4,0.5,0.25,0.5,0.5,2.5,1.25,0.25,1.0,0.25,0.75,0.5,0.25,0.5,-0.17,1.02,-0.05,140.68,1.0,11.5
4.86,1.0,0.0,1.0,0.5,0.0,0.0,0.0,0.0,0.25,0.75,0.0,0.0,0.5,0.39,0.89,-0.23,47.33,16.3,15.4,1.0,0.25,0.25,0.5,1.75,1.25,0.25,1.0,0.25,0.75,0.5,0.25,0.5,-0.17,1.02,-0.05,136.89,0.0,10.4
4.88,1.25,0.0,1.0,0.5,0.0,0.0,0.0,0.0,0.25,0.5,0.0,0.0,0.0,0.39,0.89,-0.23,60.2,24.3,46.1,1.25,0.0,0.0,0.5,1.25,1.25,0.0,1.0,0.25,0.75,0.25,0.25,0.5,-0.17,1.02,-0.05,128.59,1.3,7.5
4.9,1.0,0.0,1.0,0.5,0.0,0.0,0.0,0.0,0.25,0.75,0.0,0.25,0.25,0.39,0.89,-0.23,68.56,17.8,15.7,1.0,0.5,0.0,0.0,2.25,1.25,0.25,1.0,0.25,0.75,0.5,0.25,0.5,-0.17,1.02,0.02,126.84,2.0,11.6
4.92,1.25,0.0,1.0,0.25,0.0,0.0,0.0,0.0,0.25,0.75,0.0,0.5,0.25,0.39,0.89,-0.3,74.46,18.2,10.2,1.25,0.25,0.25,0.0,2.25,0.75,0.25,1.0,0.25,0.75,0.25,0.25,0.5,-0.17,1.02,-0.05,124.39,-0.6,14.1
4.94,1.5,0.0,1.0,0.5,0.0,0.0,0.0,0.0,0.25,1.0,0.0,0.25,0.25,0.45,0.89,-0.23,78.32,17.7,19.0,0.75,0.0,0.25,0.0,2.5,0.75,0.25,1.0,0.25,0.75,0.25,0.25,0.5,-0.17,0.95,-0.05,122.51,1.9,7.7
4.96,0.75,0.0,1.0,0.5,0.0,0.0,0.0,0.0,0.25,1.0,0.0,0.0,0.0,0.45,0.89,-0.23,76.39,17.2,21.8,1.0,0.25,0.25,0.0,2.5,1.25,0.25,1.0,0.25,0.75,0.5,0.25,0.5,-0.17,0.95,-0.05,124.45,1.3,11.8
4.98,1.25,0.0,1.0,0.5,0.0,0.0,0.0,0.0,0.25,0.75,0.0,0.25,0.25,0.45,0.89,-0.23,77.16,18.7,20.2,1.0,0.25,0.0,0.5,2.25,0.5,0.25,1.0,0.25,1.0,0.25,0.25,0.5,-0.17,0.95,-0.05,125.1,0.2,9.8
5.0,1.25,0.0,1.0,0.5,0.0,0.0,0.0,0.0,0.25,0.75,0.0,0.25,0.25,0.45,0.89,-0.23,75.59,18.7,20.2,0.75,0.25,0.0,0.25,2.5,1.0,0.25,1.0,0.5,0.75,0.75,0.25,0.5,-0.17,0.95,0.02,129.05,1.6,5.2
5.02,1.5,0.0,1.0,0.5,0.0,0.0,0.0,0.0,0.25,0.75,0.0,0.0,0.25,0.45,0.89,-0.23,75.55,20.2,32.2,0.5,0.0,0.25,0.5,2.75,1.0,0.25,1.0,0.25,0.5,0.75,0.0,0.75,-0.17,0.95,0.02,129.84,1.9,8.2
5.04,1.25,0.0,1.0,0.5,0.0,0.0,0.0,0.0,0.25,0.75,0.0,0.25,0.25,0.45,0.89,-0.23,73.83,18.7,20.2,0.5,0.25,0.0,0.5,2.5,1.25,0.25,1.0,0.25,0.5,0.5,0.5,0.5,-0.17,0.95,0.02,132.33,2.6,7.6
5.06,1.0,0.0,1.0,0.25,0.0,0.0,0.0,0.0,0.25,0.75,0.0,0.25,0.25,0.45,0.89,-0.23,68.57,17.8,12.7,0.5,0.0,0.25,0.5,1.75,1.25,0.25,1.0,0.25,0.75,0.75,0.25,0.5,-0.17,1.02,0.02,129.68,2.1,0.0
5.08,1.25,0.0,1.0,0.5,0.0,0.0,0.0,0.0,0.25,0.75,0.0,0.0,0.25,0.45,0.89,-0.23,65.63,19.3,28.4,0.75,0.0,0.25,0.5,2.5,1.25,0.25,1.0,0.5,1.0,0.5,0.25,0.5,-0.17,1.02,0.02,133.69,1.6,6.2
5.1,1.25,0.0,1.0,0.5,0.0,0.0,0.0,0.0,0.25,0.75,0.0,0.5,0.0,0.45,0.89,-0.23,65.88,20.1,20.5,0.75,0.25,0.25,0.5,2.75,1.25,0.25,1.0,0.25,1.0,0.5,0.0,0.75,-0.17,1.02,0.02,139.81,2.2,11.1
5.12,1.5,0.0,1.0,0.5,0.0,0.0,0.0,0.0,0.25,0.75,0.0,0.25,0.25,0.45,0.89,-0.23,68.64,19.6,24.3,0.75,0.0,0.0,0.5,2.5,1.0,0.25,1.0,0.25,0.75,0.5,0.25,0.5,-0.17,1.02,0.02,139.61,2.2,7.5
5.14,1.25,0.0,1.0,0.5,0.0,0.0,0.0,0.0,0.25,1.0,0.0,0.5,0.25,0.45,0.89,-0.23,71.38,16.4,8.3,1.25,0.0,0.5,0.5,2.75,1.25,0.25,1.0,0.25,1.0,0.25,0.0,0.5,-0.17,1.02,-0.05,143.58,-0.2,19.7
5.16,1.25,0.0,1.0,0.5,0.0,0.0,0.0,0.0,0.25,0.75,0.0,0.5,0.25,0.39,0.89,-0.23,72.87,18.2,13.0,1.0,0.25,0.25,0.5,2.5,1.0,0.25,1.0,0.25,0.75,0.75,0.25,0.75,-0.17,1.02,-0.05,145.99,-0.1,8.4
5.18,1.0,0.0,1.0,0.5,0.0,0.0,0.0,0.0,0.25,1.0,0.0,0.5,0.25,0.39,0.89,-0.23,72.99,15.4,3.6,0.75,0.25,0.25,0.5,2.75,1.25,0.25,1.0,0.25,0.75,0.75,0.25,0.5,-0.17,1.02,-0.05,148.83,0.9,11.3
5.2,1.25,0.0,1.0,0.5,0.0,0.0,0.0,0.0,0.25,1.0,0.0,0.5,0.25,0.39,0.89,-0.3,74.37,16.4,8.3,0.75,0.25,0.0,0.5,2.25,1.25,0.25,1.0,0.25,0.75,0.25,0.25,0.5,-0.17,1.02,-0.05,142.81,2.7,11.9
5.22,1.0,0.0,1.0,0.5,0.0,0.0,0.0,0.0,0.25,1.0,0.0,0.5,0.25,0.39,0.89,-0.3,73.2,15.4,3.6,0.75,0.0,0.25,0.25,1.75,0.75,0.25,1.0,0.25,0.75,0.25,0.25,0.5,-0.17,0.95,-0.05,131.86,1.1,3.9
5.24,1.25,0.0,1.0,0.5,0.0,0.0,0.0,0.0,0.25,1.0,0.0,0.5,0.25,0.39,0.89,-0.3,74.3,16.4,8.3,1.0,0.0,0.25,0.25,2.5,1.25,0.25,1.0,0.25,1.0,0.75,0.25,0.5,-0.17,0.95,0.02,130.69,1.2,6.1
5.26,1.0,0.0,1.0,0.5,0.0,0.0,0.0,0.0,0.25,1.0,0.0,0.5,0.0,0.39,0.89,-0.3,72.53,17.2,10.5,0.75,0.25,0.5,0.25,2.5,1.25,0.25,1.0,0.25,0.75,0.25,0.25,0.5,-0.17,0.95,-0.05,130.9,0.9,14.7
5.28,1.25,0.0,1.0,0.5,0.0,0.0,0.0,0.0,0.25,1.0,0.0,0.5,0.25,0.39,0.89,-0.3,73.72,16.4,8.3,0.5,0.25,0.0,0.25,2.5,1.25,0.25,1.0,0.25,0.75,0.25,0.25,0.75,-0.17,0.95,-0.05,131.78,4.7,5.8
5.3,1.25,0.0,1.0,0.5,0.0,0.0,0.25,0.0,0.0,0.0,0.0,0.0,0.25,0.39,0.89,-0.3,66.83,28.9,58.8,0.5,0.25,0.0,0.5,2.25,1.0,0.25,1.0,0.25,0.0,0.5,0.25,0.5,-0.17,0.95,-0.05,126.0,1.5,14.5
5.32,0.25,0.0,0.75,0.25,0.0,0.0,0.0,0.0,0.0,0.0,0.0,0.0,0.0,0.39,0.89,-0.3,50.06,33.3,67.1,0.5,0.25,0.5,0.5,2.25,1.0,0.0,1.0,0.5,0.75,0.5,0.5,0.5,-0.17,0.95,-0.05,127.12,0.2,4.6
5.34,1.5,0.0,0.75,0.5,0.0,0.0,0.0,0.0,0.25,0.75,0.0,0.25,0.0,0.39,0.89,-0.3,48.6,20.5,30.7,0.75,0.25,0.0,0.5,2.5,1.25,0.25,1.0,0.25,0.75,0.25,0.0,0.75,-0.17,0.95,0.02,127.18,3.3,13.2
5.36,1.25,0.0,1.0,0.0,0.0,0.0,0.0,0.0,0.0,0.0,0.0,0.0,0.25,0.39,0.89,-0.3,42.31,31.2,60.6,0.5,0.25,0.0,0.5,2.5,1.25,0.25,1.0,0.25,1.0,0.5,0.25,0.5,-0.17,0.95,-0.05,131.18,3.7,6.2
5.38,1.25,0.0,1.0,0.5,0.0,0.0,0.0,0.0,0.25,0.75,0.0,0.5,0.25,0.39,0.89,-0.3,51.67,18.2,13.0,0.75,0.0,0.25,0.25,1.75,1.25,0.25,1.0,0.25,1.0,0.5,0.25,0.5,-0.17,0.95,-0.05,128.13,2.4,0.8
5.4,1.25,0.0,1.0,0.5,0.0,0.0,0.0,0.0,0.25,0.5,0.0,0.25,0.0,0.39,0.89,-0.3,55.07,23.3,35.7,0.5,0.0,1.0,0.5,2.25,1.0,0.0,1.0,0.25,0.75,0.25,0.25,0.5,-0.17,1.02,-0.05,129.59,-0.7,12.0
