time,left pressure 0[N/cm虏],left pressure 1[N/cm虏],left pressure 2[N/cm虏],left pressure 3[N/cm虏],left pressure 4[N/cm虏],left pressure 5[N/cm虏],left pressure 6[N/cm虏],left pressure 7[N/cm虏],left pressure 8[N/cm虏],left pressure 9[N/cm虏],left pressure 10[N/cm虏],left pressure 11[N/cm虏],left pressure 12[N/cm虏],left acceleration X[g],left acceleration Y[g],left acceleration Z[g],left total force[N],left center of pressure X[mm],left center of pressure Y[mm],right pressure 0[N/cm虏],right pressure 1[N/cm虏],right pressure 2[N/cm虏],right pressure 3[N/cm虏],right pressure 4[N/cm虏],right pressure 5[N/cm虏],right pressure 6[N/cm虏],right pressure 7[N/cm虏],right pressure 8[N/cm虏],right pressure 9[N/cm虏],right pressure 10[N/cm虏],right pressure 11[N/cm虏],right pressure 12[N/cm虏],right acceleration X[g],right acceleration Y[g],right acceleration Z[g],right total force[N],right center of pressure X[mm],right center of pressure Y[mm]
0.02,2.75,1.5,5.0,4.75,3.0,5.25,0.75,6.75,3.25,6.0,5.25,2.5,3.0,-0.17,0.02,0.95,744.06,2.9,-9.3,0.5,0.25,0.0,0.75,1.0,2.0,0.0,1.25,0.0,0.25,0.25,0.25,0.25,0.39,0.7,0.7,44.35,5.5,14.9
0.04,2.75,1.25,3.5,3.75,3.25,5.5,0.75,7.0,3.25,6.25,5.5,2.75,3.75,-0.17,0.02,0.95,714.43,0.9,-15.8,0.5,0.0,0.0,0.75,1.0,2.0,0.25,1.5,0.0,0.25,0.25,0.25,0.25,0.39,0.45,0.7,73.63,5.9,10.1
0.06,2.25,1.25,3.25,3.25,3.75,5.5,0.75,7.0,3.0,6.25,5.75,0.0,3.75,-0.17,0.02,0.95,672.63,-0.3,-12.0,0.75,0.25,0.0,1.0,1.0,2.0,0.0,1.0,0.0,0.25,0.5,0.25,0.75,0.58,0.27,0.64,97.38,3.2,9.5
0.08,2.0,0.75,3.25,3.25,3.25,5.5,0.75,7.0,2.75,6.25,5.75,2.5,4.0,-0.17,0.02,0.95,646.73,-0.3,-20.1,1.0,0.25,0.0,1.0,1.0,2.25,0.0,1.25,0.0,0.25,0.25,0.25,0.25,0.45,0.14,0.7,113.13,2.8,21.9
0.1,1.25,0.75,2.75,2.0,0.0,5.25,0.75,7.25,2.5,6.25,5.5,3.0,4.0,-0.17,0.02,0.95,591.82,-1.6,-33.6,0.75,0.0,0.0,0.75,1.0,2.25,0.0,1.25,0.0,0.25,0.25,0.25,0.25,0.14,-0.05,0.7,117.34,5.4,15.2
0.12,0.0,0.75,1.75,1.75,1.75,0.0,0.5,7.25,2.25,6.5,5.25,2.75,4.0,-0.23,0.02,0.95,525.45,-1.8,-45.8,0.0,0.0,0.0,1.0,1.0,2.75,0.0,1.25,0.0,0.25,0.25,0.25,0.0,-0.3,-0.42,0.83,119.56,9.6,14.4
0.14,0.0,0.75,1.75,1.25,1.0,4.75,0.5,7.0,1.75,6.25,5.25,2.5,4.0,-0.23,0.02,0.95,476.7,-4.7,-39.4,0.0,0.5,0.0,1.25,1.0,2.75,0.0,1.0,0.0,0.25,0.5,0.25,0.0,-0.73,-1.05,0.83,123.17,6.2,20.6
0.16,0.0,0.75,1.5,1.25,0.0,0.0,0.5,0.0,1.5,6.25,4.5,2.5,4.0,-0.23,0.02,0.95,382.27,1.4,-58.9,0.25,0.25,0.0,1.25,1.0,2.25,0.0,1.0,0.0,0.25,0.25,0.25,0.0,-0.92,-1.55,0.7,124.27,5.0,22.7
0.18,0.0,0.25,1.5,1.0,0.0,4.75,0.5,6.5,1.0,6.25,4.25,2.5,4.0,-0.23,0.08,0.95,360.79,-6.2,-45.5,1.25,0.25,0.0,2.0,1.0,2.5,0.0,1.25,0.0,0.25,0.5,0.25,0.0,-0.67,-1.98,0.7,134.65,-0.5,29.3
0.2,0.0,0.5,1.5,0.75,0.0,4.25,0.5,0.0,1.0,5.5,3.5,0.0,4.0,-0.23,0.08,1.02,297.39,-4.6,-39.2,3.25,0.5,0.0,3.25,3.25,2.75,0.0,1.25,0.0,0.0,0.0,0.25,0.0,1.45,2.14,2.14,172.41,-5.4,51.2
0.22,0.0,0.75,0.75,0.75,0.0,3.5,0.25,6.25,0.75,3.25,2.25,0.0,3.25,-0.23,0.14,1.33,271.33,-8.7,-35.4,3.25,1.5,4.0,5.5,4.75,2.0,0.0,0.0,0.0,0.0,0.0,0.25,0.25,-0.05,0.08,1.08,239.76,-14.3,59.8
0.24,0.25,0.75,0.0,0.5,0.0,0.0,0.0,5.25,0.75,0.0,1.75,0.0,0.0,-0.36,0.33,1.45,190.02,-3.6,-24.9,6.25,2.5,8.0,7.25,4.75,1.25,0.0,1.25,0.0,0.0,0.0,0.25,0.0,0.02,0.14,1.2,339.35,-19.0,62.5
0.26,0.0,0.75,1.5,1.0,0.0,0.0,0.25,5.0,0.75,1.25,1.25,0.0,0.0,-0.42,0.39,1.45,141.71,0.7,-14.8,7.75,3.25,8.5,10.5,6.0,4.0,0.0,2.0,0.0,0.25,0.0,0.0,0.0,-0.11,0.08,1.08,509.52,-15.5,60.3
0.28,0.0,0.0,1.5,0.0,0.0,0.0,0.25,4.5,0.0,0.0,1.25,0.0,0.0,-0.42,0.33,1.27,74.52,0.0,-22.8,8.75,3.25,9.25,10.5,7.0,4.5,0.0,2.75,0.0,0.25,0.0,0.25,0.0,-0.05,0.08,1.45,696.74,-14.9,58.2
0.3,0.0,0.0,0.0,0.0,0.0,0.0,0.0,0.0,0.0,0.0,0.0,0.0,0.0,0.39,2.77,0.33,5.45,0.0,0.0,8.5,3.0,10.5,10.5,7.5,5.25,0.75,3.75,0.25,1.5,0.0,0.25,0.0,0.39,0.27,1.7,872.13,-13.4,51.8
0.32,0.0,0.0,0.0,0.0,0.0,0.0,0.0,0.0,0.0,0.0,0.0,0.0,0.0,0.77,3.95,1.02,0.0,0.0,0.0,9.25,3.25,12.5,12.5,8.25,5.25,1.75,5.25,1.25,1.75,1.0,1.0,0.0,0.27,0.2,1.2,1071.74,-13.5,45.0
0.34,0.0,0.0,0.0,0.0,0.0,0.0,0.0,0.0,0.0,0.0,0.0,0.0,0.0,1.2,3.14,1.33,0.0,0.0,0.0,9.25,3.25,12.5,11.5,8.25,5.75,2.25,5.75,1.5,3.0,2.75,1.25,0.5,0.14,0.08,1.08,1248.8,-12.2,36.7
0.36,0.0,0.0,0.0,0.0,0.0,0.0,0.0,0.0,0.0,0.0,0.0,0.0,0.0,-0.05,3.02,1.08,0.0,0.0,0.0,9.25,3.25,12.5,11.0,8.25,5.5,2.25,5.75,1.5,2.75,2.75,1.0,0.75,0.14,0.14,1.02,1347.34,-12.3,36.9
0.38,0.0,0.0,0.0,0.0,0.0,0.0,0.0,0.0,0.0,0.0,0.0,0.0,0.0,-0.23,2.39,1.14,0.0,0.0,0.0,9.25,3.25,12.5,10.5,7.75,5.25,1.75,5.25,1.25,2.5,2.5,1.0,0.5,0.14,0.14,0.95,1367.72,-13.0,39.0
0.4,0.0,0.0,0.0,0.0,0.0,0.0,0.0,0.0,0.0,0.0,0.0,0.0,0.0,-0.17,1.64,1.45,0.0,0.0,0.0,9.25,3.0,12.0,10.5,7.0,5.0,1.75,5.25,1.25,2.25,2.25,1.0,0.5,0.14,0.14,0.89,1339.96,-13.2,39.3
0.42,0.0,0.0,0.0,0.0,0.0,0.0,0.0,0.0,0.0,0.0,0.0,0.0,0.0,-0.17,1.08,1.39,0.0,0.0,0.0,8.75,2.5,11.5,9.0,6.75,4.5,1.75,5.0,1.25,2.0,2.5,1.0,0.25,0.14,0.14,0.89,1246.41,-13.5,38.6
0.44,0.0,0.0,0.0,0.0,0.0,0.0,0.0,0.0,0.0,0.0,0.0,0.0,0.0,-0.05,0.77,1.39,0.0,0.0,0.0,8.5,2.0,11.5,8.0,6.25,4.0,1.75,4.25,1.25,2.25,2.5,1.0,0.25,0.14,0.14,0.95,1115.52,-14.1,37.8
0.46,0.0,0.0,0.0,0.0,0.0,0.0,0.0,0.0,0.0,0.0,0.0,0.0,0.0,-0.05,0.52,1.27,0.0,0.0,0.0,8.0,1.75,10.5,7.25,5.5,3.5,1.5,4.25,1.25,2.75,2.5,1.25,0.25,0.14,0.14,0.89,979.65,-13.7,34.1
0.48,0.0,0.0,0.0,0.0,0.0,0.0,0.0,0.0,0.0,0.0,0.0,0.0,0.0,-0.11,0.27,1.2,0.0,0.0,0.0,7.5,1.5,10.5,7.25,5.0,3.5,1.5,4.25,1.25,3.5,3.25,1.25,0.25,0.14,0.14,0.95,874.69,-13.2,29.7
0.5,0.0,0.0,0.0,0.0,0.0,0.0,0.0,0.0,0.0,0.0,0.0,0.0,0.0,-0.17,0.14,1.08,0.0,0.0,0.0,7.5,1.25,9.75,5.75,4.75,3.25,1.5,4.25,1.5,3.5,3.25,1.5,0.5,0.14,0.14,0.89,783.5,-12.8,25.9
0.52,0.0,0.0,0.0,0.0,0.0,0.0,0.0,0.0,0.0,0.0,0.0,0.0,0.0,-0.11,-0.11,1.08,0.0,0.0,0.0,7.0,1.0,9.25,5.25,4.75,3.25,1.25,4.5,1.75,4.75,4.25,1.75,1.0,0.14,0.14,0.95,735.04,-11.0,16.9
0.54,0.0,0.0,0.0,0.0,0.0,0.0,0.0,0.0,0.0,0.0,0.0,0.0,0.0,-0.17,-0.23,1.02,0.0,0.0,0.0,6.5,0.5,9.25,5.25,3.75,3.0,1.25,5.25,2.0,5.75,5.25,3.0,0.75,0.14,0.14,0.95,707.54,-10.4,7.4
0.56,0.0,0.0,0.0,0.0,0.0,0.0,0.0,0.0,0.0,0.0,0.0,0.0,0.0,-0.36,-0.3,0.83,0.0,0.0,0.0,6.25,0.75,9.0,5.0,3.0,3.25,1.5,5.5,2.75,7.0,6.75,4.25,2.75,0.08,0.14,0.95,729.39,-8.7,-5.0
0.58,0.0,0.0,0.0,0.0,0.0,0.0,0.0,0.0,0.0,0.0,0.0,0.0,0.0,-0.36,-0.48,0.7,0.0,0.0,0.0,5.75,0.75,8.5,4.25,2.75,3.25,1.5,6.0,2.75,8.0,7.75,5.5,4.5,0.08,0.08,0.95,781.78,-7.0,-15.3
0.6,0.0,0.0,0.0,0.0,0.0,0.0,0.0,0.0,0.0,0.0,0.0,0.0,0.0,-0.36,-0.55,0.77,0.0,0.0,0.0,5.0,0.5,7.75,3.25,1.5,3.0,1.5,6.0,3.25,9.0,8.75,6.0,5.75,0.08,0.08,0.95,831.07,-5.7,-26.1
0.62,0.0,0.0,0.0,0.0,0.0,0.0,0.0,1.25,0.0,0.0,0.0,0.0,0.0,-0.61,-0.8,0.83,7.02,-16.7,-38.8,3.75,0.75,7.25,3.25,1.75,3.0,1.0,6.25,3.25,9.5,9.5,6.75,7.0,0.08,0.08,0.95,886.25,-4.2,-32.2
0.64,0.0,0.0,0.0,0.0,0.0,0.0,0.0,0.0,0.0,0.0,0.0,0.0,0.0,-0.86,-1.17,-0.11,6.52,0.0,0.0,2.5,0.5,5.0,3.25,1.25,2.75,1.0,6.25,3.25,9.75,10.5,7.5,7.25,0.08,0.08,0.95,920.49,-2.4,-42.1
0.66,0.0,0.0,0.0,0.0,0.0,0.0,0.0,0.0,0.0,0.0,0.0,0.0,0.0,-2.73,-2.92,3.52,6.02,0.0,0.0,2.25,0.0,3.25,2.0,1.25,2.75,0.5,6.0,3.0,10.0,10.5,7.75,8.5,0.02,0.14,1.02,938.12,-0.3,-51.8
0.68,4.25,0.0,0.0,0.5,0.0,0.0,0.0,1.5,1.5,0.0,0.0,0.0,0.0,0.58,-0.86,2.95,47.35,18.8,40.6,2.0,0.0,2.0,1.75,1.25,2.75,0.5,5.25,2.75,10.0,11.0,8.25,8.75,0.02,0.08,1.02,936.35,0.5,-56.7
0.7,6.75,0.0,3.75,3.5,0.0,0.0,1.25,3.0,0.0,0.0,0.0,0.0,0.0,-1.86,3.95,2.39,140.19,22.9,55.3,2.0,0.25,1.75,2.0,1.25,1.25,0.25,4.0,1.5,9.0,10.5,7.0,9.25,0.08,0.08,1.2,888.81,0.0,-58.3
0.72,0.0,0.0,8.75,0.0,0.0,0.0,0.0,0.0,0.0,0.0,0.0,0.0,0.0,-0.42,0.14,1.89,176.12,38.2,61.0,0.5,0.0,0.0,0.5,0.5,0.75,0.0,2.75,0.75,8.0,9.25,6.75,8.5,-0.05,0.14,1.33,770.56,3.1,-78.1
0.74,4.25,0.0,0.0,0.0,0.0,0.0,0.0,0.0,0.0,0.0,0.0,0.0,0.0,0.08,-0.11,1.58,172.16,35.0,97.8,0.5,0.0,0.0,2.5,0.5,2.75,0.0,1.0,0.25,7.75,7.75,6.75,8.5,-0.05,0.14,1.52,661.94,2.9,-67.5
0.76,0.0,0.0,0.0,0.0,0.0,0.0,0.0,0.0,0.0,0.0,0.0,0.0,0.0,-0.23,0.27,1.39,120.52,0.0,0.0,1.5,0.5,0.0,1.75,1.25,2.75,0.0,0.0,0.75,7.75,8.0,6.75,9.25,0.02,0.2,1.7,588.21,1.9,-62.6
0.78,8.75,0.0,0.0,6.75,0.0,0.0,0.0,0.0,0.0,0.0,0.0,0.25,0.0,-0.3,0.14,1.77,154.22,26.4,76.3,0.25,0.0,0.0,0.5,0.5,0.5,0.25,0.0,0.0,4.5,5.0,4.75,7.75,-0.05,0.2,1.58,457.86,3.2,-83.3
0.8,9.25,4.0,10.5,11.0,0.0,3.75,2.0,3.5,1.75,1.75,1.75,1.25,0.75,-0.17,0.14,1.7,337.86,17.3,40.6,0.0,0.0,0.0,1.5,0.25,2.0,0.0,0.0,0.0,3.0,2.0,3.0,5.0,-0.23,0.2,1.27,328.79,5.1,-65.1
0.82,9.0,3.5,9.5,10.5,6.75,3.75,3.0,4.5,3.0,2.0,2.5,1.25,1.25,-0.3,0.02,1.27,646.76,13.1,34.8,0.5,0.5,0.0,1.75,1.0,2.75,0.0,0.25,0.25,1.5,1.0,1.75,3.25,-0.92,0.77,1.27,227.87,3.6,-28.1
0.84,8.75,4.0,9.75,9.5,6.0,4.0,3.0,4.75,2.75,1.75,2.75,1.25,1.0,-0.11,0.02,1.08,951.93,13.3,35.2,1.25,0.5,0.0,1.75,1.0,2.5,0.0,1.0,0.25,1.25,0.75,1.5,1.0,-0.42,3.7,-0.23,144.85,0.4,-4.7
0.86,8.5,3.75,9.5,9.5,6.0,3.5,2.5,4.5,2.25,2.0,2.25,1.25,0.75,-0.11,0.02,1.02,1119.45,13.5,36.7,0.75,0.5,0.0,1.5,1.0,2.75,1.0,1.25,0.25,1.25,1.5,1.5,1.75,-0.8,2.95,1.58,95.29,1.5,-17.2
0.88,8.5,3.75,9.5,9.5,5.75,3.0,2.25,4.5,2.0,1.75,2.0,1.0,0.75,-0.11,0.08,0.95,1160.65,14.0,38.7,0.75,0.5,0.0,1.25,1.0,0.5,0.0,1.25,0.0,0.0,1.25,0.25,1.75,0.39,2.52,1.02,56.33,-0.9,-10.5
0.9,8.25,3.0,9.25,8.5,0.0,3.0,2.0,4.0,1.75,1.0,1.75,1.0,0.75,-0.11,0.08,0.89,1042.02,17.3,38.4,0.75,0.5,0.0,1.5,1.0,2.0,0.0,1.0,0.0,0.5,1.25,1.25,1.75,0.39,1.83,1.27,53.06,1.2,-14.2
0.92,8.0,2.5,9.0,8.25,0.0,3.0,1.75,4.0,1.75,1.75,1.75,1.25,1.0,-0.11,0.08,0.95,928.07,16.2,33.4,0.0,0.0,0.0,0.5,1.0,2.5,0.0,1.0,0.0,0.25,0.25,1.0,1.25,-0.11,1.02,1.52,34.18,9.6,-19.6
0.94,7.75,2.25,9.0,7.5,3.0,2.75,1.75,4.25,2.0,1.75,2.0,1.25,1.0,-0.11,0.08,0.95,860.16,14.6,32.4,1.0,0.0,0.0,1.25,1.0,2.25,0.0,1.25,0.0,0.25,1.0,1.0,1.75,-0.17,0.7,1.27,51.41,2.5,-13.5
0.96,7.5,2.0,8.25,7.0,2.25,3.0,1.75,4.5,2.25,2.0,2.5,1.25,1.25,-0.11,0.08,0.95,823.35,13.7,27.1,1.0,0.75,0.0,1.25,0.0,2.0,0.0,0.0,0.0,0.25,0.5,1.0,0.0,-0.42,0.45,1.39,48.36,-4.8,21.6
0.98,7.0,1.75,7.75,7.0,2.5,3.0,1.75,4.5,2.25,2.0,2.75,1.25,1.25,-0.11,0.02,0.95,778.46,13.1,25.2,1.0,0.0,0.0,1.25,1.0,2.0,0.0,1.0,0.0,0.0,1.0,1.0,0.25,-0.48,0.33,1.52,62.17,-0.8,5.1
1.0,6.75,1.25,7.5,7.0,4.0,3.25,1.75,4.5,2.25,2.5,3.25,1.25,1.25,-0.17,0.02,0.95,740.41,11.7,22.8,1.0,0.25,0.0,1.25,1.0,2.0,0.0,1.25,0.0,0.0,1.0,0.75,0.0,-0.42,0.27,1.33,74.91,-0.8,13.5
1.02,6.5,1.0,7.75,6.75,3.0,2.75,1.75,4.75,2.5,3.0,3.5,1.5,1.5,-0.17,0.02,0.95,682.3,11.8,17.3,0.75,0.0,0.0,1.0,1.0,2.0,0.0,0.75,0.0,0.25,1.25,0.75,0.5,-0.42,0.08,1.27,98.64,1.0,-2.6
1.04,5.75,1.0,7.25,6.5,2.75,3.5,1.5,5.0,2.75,3.25,3.5,1.75,1.5,-0.17,0.02,0.95,634.86,10.3,13.6,0.75,0.0,0.0,0.75,0.5,1.75,0.0,1.0,0.0,0.0,0.5,0.25,1.25,-0.36,-0.11,1.27,100.9,4.2,-6.3
1.06,5.5,1.0,7.0,6.25,2.0,3.25,1.5,5.25,2.75,3.75,3.75,1.75,1.75,-0.17,0.02,0.95,623.39,9.8,9.2,0.0,0.0,0.0,0.5,1.0,2.0,0.0,1.0,0.0,0.0,0.75,0.25,0.25,-0.42,-0.17,1.27,94.33,8.3,1.2
1.08,5.75,1.0,7.0,6.25,0.75,3.5,1.5,5.25,2.75,4.0,4.25,2.0,2.5,-0.17,0.02,0.95,630.02,9.7,4.4,0.0,0.0,0.0,0.5,0.0,2.0,0.0,0.0,0.0,0.0,0.0,0.25,1.0,-0.48,-0.3,1.27,74.29,12.4,-12.3
1.1,5.25,0.75,7.0,5.25,1.25,3.25,1.5,5.5,2.75,3.75,4.5,2.5,2.5,-0.17,0.02,0.95,631.01,9.2,0.6,0.5,0.25,0.0,1.5,1.0,1.25,0.0,0.5,0.0,0.0,0.75,0.25,1.25,-0.55,-0.42,1.2,77.74,0.0,2.9
1.12,4.75,0.75,6.25,5.0,0.75,3.25,1.25,5.25,2.5,4.0,4.25,2.5,2.5,-0.17,0.02,0.95,617.93,8.4,-2.2,0.75,0.0,0.0,1.25,0.5,2.0,0.0,0.5,0.0,0.25,0.25,0.75,0.75,-0.67,-0.67,1.2,85.44,1.6,2.3
1.14,3.75,0.75,6.25,3.25,0.0,3.25,1.25,5.25,2.25,4.0,3.75,2.5,2.5,-0.17,0.02,0.95,578.69,7.6,-7.6,1.0,0.25,0.0,1.25,1.0,2.0,0.0,0.5,0.0,0.25,0.75,0.75,0.25,-0.55,-1.11,1.08,100.27,-1.2,14.4
1.16,3.25,0.75,5.25,3.25,0.0,2.5,1.25,5.25,2.0,4.75,4.0,2.5,2.5,-0.17,0.08,0.95,523.56,6.4,-13.4,1.0,0.0,0.0,1.5,1.0,2.0,0.0,0.5,0.0,0.25,0.75,0.5,0.25,-0.3,-1.3,0.77,111.29,-1.1,17.0
1.18,1.25,0.75,3.5,3.0,0.0,2.75,1.0,5.25,1.5,4.75,4.25,2.5,3.0,-0.17,0.08,0.95,456.27,2.3,-25.7,0.75,0.0,0.0,0.5,0.25,0.5,0.0,0.25,0.0,0.0,0.0,0.25,0.0,0.2,-1.48,0.7,90.74,-7.9,37.6
1.2,1.5,0.75,2.25,1.0,0.0,1.5,0.75,5.0,1.5,4.25,4.0,2.5,3.25,-0.17,0.08,1.02,390.93,1.0,-37.1,0.75,0.0,0.0,1.25,0.0,0.5,0.0,0.0,0.0,0.0,0.0,0.0,0.0,2.27,-3.55,2.14,69.25,-14.5,64.6
1.22,1.75,0.75,0.0,0.0,0.0,1.75,0.5,4.5,1.0,3.5,3.5,2.5,3.5,-0.23,0.14,1.02,329.59,-3.1,-48.4,3.75,0.0,5.75,2.75,0.25,0.5,0.0,0.0,0.0,0.0,0.0,0.25,0.0,-1.05,0.95,6.45,108.4,-29.2,65.7
1.24,0.0,0.75,1.75,1.0,0.0,3.5,0.5,3.5,0.0,0.0,2.75,0.0,3.0,-0.11,0.2,1.7,262.05,-2.6,-18.8,5.5,0.0,9.25,5.25,0.5,0.25,0.0,0.0,0.0,0.0,0.0,0.5,0.0,0.7,0.45,1.64,194.44,-29.6,64.5
1.26,0.0,0.0,0.0,0.0,0.0,0.0,0.0,0.0,0.0,0.0,0.0,0.0,0.0,-0.05,0.45,1.64,139.5,0.0,0.0,6.75,1.25,11.0,8.5,1.75,2.0,0.5,0.25,0.0,0.0,0.0,0.25,0.0,0.39,0.2,1.14,313.96,-24.0,64.4
1.28,0.0,0.0,0.0,0.0,0.0,0.0,0.0,0.0,0.0,0.0,0.0,0.0,0.0,-0.23,0.2,1.45,18.9,0.0,0.0,8.0,2.5,12.0,11.0,4.75,2.75,2.75,1.0,1.25,1.75,0.0,1.5,0.25,0.2,0.2,2.77,530.94,-18.5,49.2
1.3,0.0,0.0,0.0,0.0,0.0,0.0,0.0,0.0,0.0,0.0,0.0,0.0,0.0,0.08,0.39,1.27,0.0,0.0,0.0,8.25,2.0,13.5,11.0,6.75,4.0,4.5,5.25,2.0,3.5,3.75,1.75,1.5,0.39,0.08,1.58,851.4,-13.4,28.5
1.32,0.0,0.0,0.0,0.0,0.0,0.0,0.0,0.0,0.0,0.0,0.0,0.0,0.0,0.14,3.02,-0.11,0.0,0.0,0.0,8.5,2.5,14.5,11.0,6.75,3.75,4.5,5.25,1.75,3.0,3.0,1.5,1.5,0.08,0.02,1.14,1127.38,-14.3,32.5
1.34,0.0,0.0,0.0,0.0,0.0,0.0,0.0,0.0,0.0,0.0,0.0,0.0,0.0,0.77,2.77,1.14,0.0,0.0,0.0,8.75,2.5,14.5,11.0,6.75,4.0,4.0,4.0,1.75,2.25,2.5,1.5,1.25,0.08,0.2,0.83,1301.79,-15.3,36.8
1.36,0.0,0.0,0.0,0.0,0.0,0.0,0.0,0.0,0.0,0.0,0.0,0.0,0.0,0.58,2.08,1.08,0.0,0.0,0.0,8.75,2.25,14.5,10.5,6.75,3.25,4.0,4.25,2.0,3.25,3.0,1.75,1.25,0.08,0.14,0.89,1359.55,-15.0,32.7
1.38,0.0,0.0,0.0,0.0,0.0,0.0,0.0,0.0,0.0,0.0,0.0,0.0,0.0,0.27,1.7,0.89,0.0,0.0,0.0,8.5,1.75,14.5,9.25,6.0,3.25,4.5,4.75,2.25,3.5,3.75,1.75,1.25,0.08,0.14,0.95,1361.99,-14.8,28.6
1.4,0.0,0.0,0.0,0.0,0.0,0.0,0.0,0.0,0.0,0.0,0.0,0.0,0.0,0.27,1.08,1.08,0.0,0.0,0.0,8.5,1.5,14.5,9.0,5.25,3.0,4.5,5.25,2.75,4.75,4.5,2.5,1.5,0.08,0.14,0.95,1356.09,-14.1,21.6
1.42,0.0,0.0,0.0,0.0,0.0,0.0,0.0,0.0,0.0,0.0,0.0,0.0,0.0,0.14,0.7,1.08,0.0,0.0,0.0,8.25,1.5,13.5,7.25,4.75,2.75,4.0,4.75,2.75,4.75,5.0,3.0,2.25,0.08,0.08,0.95,1323.5,-13.6,16.3
1.44,0.0,0.0,0.0,0.0,0.0,0.0,0.0,0.0,0.0,0.0,0.0,0.0,0.0,0.08,0.39,1.14,0.0,0.0,0.0,7.75,1.25,13.5,7.25,5.25,2.75,4.0,4.25,2.75,5.0,5.5,3.0,2.25,0.08,0.08,0.95,1273.25,-13.4,15.1
1.46,0.0,0.0,0.0,0.0,0.0,0.0,0.0,0.0,0.0,0.0,0.0,0.0,0.0,0.14,0.27,1.2,0.0,0.0,0.0,7.5,0.75,13.0,5.75,3.5,2.75,4.0,4.25,2.75,5.25,6.25,3.5,2.75,0.08,0.14,0.95,1164.88,-13.2,7.7
1.48,0.0,0.0,0.0,0.0,0.0,0.0,0.0,0.0,0.0,0.0,0.0,0.0,0.0,0.14,0.14,1.14,0.0,0.0,0.0,7.0,0.75,12.5,5.25,2.5,2.75,3.25,4.0,2.75,5.75,6.75,4.25,3.0,0.02,0.14,0.95,1062.94,-12.6,1.9
1.5,0.0,0.0,0.0,0.0,0.0,0.0,0.0,0.0,0.0,0.0,0.0,0.0,0.0,0.14,0.08,1.14,0.0,0.0,0.0,7.0,0.75,12.5,5.25,1.75,2.75,3.0,4.0,2.75,5.75,7.25,4.25,4.0,0.08,0.08,0.95,974.62,-12.4,-1.4
1.52,0.0,0.0,0.0,0.0,0.0,0.0,0.0,0.0,0.0,0.0,0.0,0.0,0.0,0.02,0.02,1.14,0.0,0.0,0.0,6.5,0.75,12.0,5.25,2.25,2.75,2.75,4.25,2.75,6.5,7.25,5.5,4.75,0.02,0.08,0.95,929.15,-10.9,-6.7
1.54,0.75,0.75,1.5,1.0,0.0,0.0,0.0,2.25,0.25,1.25,0.25,0.0,0.25,-0.11,-0.11,1.14,46.88,6.7,7.4,6.25,0.75,11.5,4.25,1.5,2.75,2.75,3.75,2.75,6.5,7.75,5.75,5.0,0.08,0.08,0.95,894.93,-10.8,-10.9
1.56,0.0,0.0,1.5,0.0,0.0,0.0,0.0,1.25,0.0,0.0,0.25,0.0,0.25,-0.3,-0.23,1.08,61.35,11.3,-0.2,5.75,0.5,11.5,3.25,1.25,2.75,2.5,3.75,2.75,7.0,8.0,6.0,5.75,0.02,0.08,0.95,882.73,-10.0,-16.3
1.58,0.0,0.0,0.25,0.0,0.0,0.0,0.0,2.25,0.0,0.5,0.25,0.0,0.25,-0.42,-0.3,1.08,75.5,-10.4,-44.4,5.0,0.5,10.5,3.25,1.25,2.75,2.25,3.25,2.75,7.0,8.5,6.5,6.25,0.02,0.08,0.95,861.93,-9.2,-21.1
1.6,0.0,0.0,0.0,0.0,0.0,0.0,0.0,0.0,0.0,0.0,0.0,0.0,0.0,-0.55,-0.3,0.95,53.78,0.0,0.0,4.5,0.5,10.5,3.25,1.0,2.25,2.25,2.75,2.75,7.75,8.75,6.75,7.25,-0.05,0.08,0.95,845.53,-8.8,-25.5
1.62,0.0,0.0,0.0,0.0,0.0,0.0,0.0,0.0,0.0,0.0,0.0,0.0,0.0,-0.42,-0.11,0.95,34.93,0.0,0.0,3.75,0.25,9.75,3.25,1.25,1.75,1.75,3.0,2.75,8.0,9.0,7.5,7.0,-0.05,0.08,0.95,832.19,-8.1,-30.2
1.64,0.0,0.0,0.0,0.0,0.0,0.0,0.0,0.0,0.0,0.0,0.0,0.0,0.0,-0.23,0.02,0.89,12.56,0.0,0.0,3.25,0.0,9.25,3.25,1.0,2.0,1.25,2.0,2.5,7.75,9.5,7.75,8.0,-0.11,0.08,0.95,824.86,-7.5,-34.8
1.66,0.0,0.0,0.0,0.0,0.0,0.0,0.0,0.0,0.0,0.0,0.0,0.0,0.0,-0.23,-0.05,0.7,4.3,0.0,0.0,2.25,0.25,8.5,3.25,1.0,1.75,1.25,1.5,2.0,8.0,8.75,8.25,8.5,-0.23,0.14,1.02,814.89,-6.6,-39.1
1.68,0.0,0.0,0.0,0.0,0.0,0.0,0.0,0.0,0.0,0.0,0.0,0.0,0.0,-0.48,-0.3,0.08,0.0,0.0,0.0,2.25,0.25,7.0,3.25,0.0,2.0,1.5,1.25,1.75,8.0,9.5,7.5,8.75,-0.23,0.08,1.02,792.09,-5.8,-43.4
1.7,0.0,0.0,0.0,0.0,0.0,0.0,0.0,0.0,0.0,0.0,0.0,0.0,0.0,-0.98,-0.55,-0.67,0.0,0.0,0.0,2.0,0.0,6.5,3.0,0.0,2.0,0.75,0.0,1.25,7.5,9.25,7.75,8.5,-0.11,0.08,1.14,750.19,-5.9,-46.8
1.72,0.0,0.0,0.0,0.0,0.0,0.0,0.0,0.0,3.25,1.5,0.0,0.75,0.0,-7.48,0.2,5.02,26.87,4.0,-58.5,2.0,0.0,4.75,3.0,0.0,1.75,0.5,0.0,0.75,6.25,7.75,6.75,8.25,-0.3,0.2,1.2,671.72,-5.1,-48.4
1.74,1.25,0.0,0.0,0.0,0.0,0.0,0.0,0.0,1.25,3.25,0.25,1.75,0.0,-0.73,-0.61,0.89,64.06,3.0,-50.8,2.0,0.0,3.5,2.25,0.5,1.0,0.5,0.0,0.75,4.75,6.5,5.5,6.75,-0.42,0.27,1.52,558.93,-5.4,-47.8
1.76,0.0,0.0,0.0,0.0,0.0,0.0,0.25,4.5,0.5,1.75,2.75,0.5,2.25,0.02,-0.17,1.33,124.1,-7.4,-67.4,1.5,0.0,3.0,2.0,0.5,0.25,0.0,0.0,0.75,0.5,4.75,4.0,5.5,-0.55,0.33,1.14,408.64,-8.9,-43.1
1.78,0.0,0.75,0.0,1.0,0.0,0.0,0.0,4.75,0.5,1.75,1.75,0.0,1.5,0.02,0.2,0.83,160.4,-6.3,-41.1,1.25,0.0,2.25,1.75,1.25,0.25,0.5,0.0,0.5,0.0,3.0,2.5,2.5,-0.05,0.39,1.39,284.67,-11.6,-21.6
1.8,0.0,0.75,0.0,1.0,0.0,0.0,0.0,5.25,0.5,2.0,1.25,0.0,1.5,-0.23,0.14,1.02,192.49,-7.6,-40.3,1.25,0.0,2.0,1.75,0.5,0.5,0.25,0.0,0.25,0.25,1.25,1.5,1.25,0.02,1.95,1.14,181.07,-14.0,-2.6
1.82,0.0,0.75,0.0,1.0,0.0,0.0,0.0,6.0,0.25,2.0,0.0,0.0,1.25,-0.36,0.14,0.95,198.18,-10.4,-35.0,0.75,0.25,1.75,1.75,1.0,0.25,0.25,0.0,0.25,0.25,1.25,1.5,0.75,0.83,2.27,0.52,97.47,-13.6,1.4
1.84,0.0,0.0,0.5,0.25,0.0,0.0,0.0,6.0,0.5,1.75,0.25,0.25,1.25,-0.42,0.14,0.89,199.33,-10.2,-48.5,1.25,0.25,0.75,1.75,0.0,0.25,0.25,0.0,0.25,0.75,1.25,1.5,1.5,-1.3,2.39,1.45,42.04,-10.3,-19.3
1.86,0.0,0.75,0.5,0.5,0.0,0.0,0.0,6.0,0.5,1.75,0.25,0.5,1.25,-0.48,0.14,0.89,198.06,-7.8,-38.0,1.25,0.0,0.0,1.75,0.5,0.5,0.0,0.25,0.0,0.75,1.25,1.5,0.25,-0.23,1.45,0.89,11.42,-8.3,-10.2
1.88,0.0,0.0,0.0,0.0,0.0,0.0,0.0,5.75,0.5,1.75,0.25,0.5,1.25,-0.42,0.14,0.95,191.71,-12.8,-58.7,0.75,0.0,0.0,1.75,1.0,0.5,0.0,0.25,0.0,1.0,1.0,1.0,1.25,0.08,0.83,0.58,3.02,-2.6,-18.0
1.9,0.0,0.0,0.0,0.0,0.0,0.0,0.0,5.25,0.25,1.75,0.25,0.5,1.0,-0.48,0.2,0.89,180.65,-13.2,-58.9,1.0,0.0,0.0,1.5,1.0,0.0,0.0,0.25,0.0,0.0,1.0,0.0,1.25,0.33,0.45,-0.05,0.0,-7.2,3.2
1.92,0.0,0.0,0.75,0.0,0.0,0.0,0.0,0.0,0.25,1.75,0.25,0.25,1.0,-0.67,0.14,0.89,144.15,-0.9,-59.0,0.75,0.0,0.0,1.5,1.0,0.0,0.25,0.25,0.0,0.0,0.75,0.25,0.75,0.52,-0.17,-0.36,0.0,-8.4,8.6
1.94,0.0,0.0,0.0,0.0,0.0,0.0,0.0,4.75,0.5,1.75,0.0,0.5,0.75,-0.73,0.14,0.83,128.62,-12.9,-57.4,0.75,0.0,0.0,1.75,1.0,0.0,0.0,0.5,0.0,0.0,0.75,0.75,1.25,0.2,-0.8,-0.42,9.23,-5.8,-8.7
1.96,0.0,0.0,0.0,0.0,0.0,0.0,0.0,4.5,0.0,1.5,0.0,0.5,0.5,-0.55,0.27,0.77,107.48,-14.5,-56.9,1.25,0.0,0.25,1.75,1.0,0.5,0.0,0.0,0.0,0.25,1.25,0.75,1.25,-0.05,-1.92,-0.61,41.25,-7.8,-2.3
1.98,0.0,0.0,0.0,0.0,0.0,0.0,0.0,4.5,0.5,1.0,0.25,0.25,0.5,-0.67,0.27,0.52,102.09,-12.5,-53.0,3.0,0.25,5.0,1.0,1.0,1.0,0.0,0.0,0.25,0.0,0.5,1.75,0.25,-2.92,0.52,7.89,107.05,-22.0,35.7
2.0,0.0,0.0,0.0,0.0,0.0,0.0,0.0,4.5,0.5,0.25,0.25,0.25,0.5,-0.61,0.39,0.64,91.96,-12.1,-50.3,3.25,0.25,8.5,2.75,0.5,1.75,0.0,0.0,0.75,0.25,1.25,1.75,2.25,-2.3,-0.48,2.95,203.97,-19.4,22.4
2.02,0.0,0.0,0.0,0.0,0.0,0.0,0.0,4.5,0.5,0.5,0.25,0.25,0.5,-0.73,0.33,0.58,92.01,-12.2,-51.3,3.75,0.0,9.25,0.5,0.0,0.25,0.0,0.0,0.0,0.0,1.25,1.5,1.5,-0.48,-0.11,2.14,253.17,-27.5,29.7
2.04,0.0,0.0,0.0,0.0,0.0,0.0,0.0,4.25,0.5,1.0,0.0,0.5,0.25,-0.86,0.39,0.58,88.91,-12.3,-52.6,4.75,0.0,9.75,0.5,0.0,0.25,0.0,0.0,0.0,0.25,0.75,1.75,1.25,0.14,0.2,2.83,285.41,-28.3,35.2
2.06,0.0,0.0,0.0,0.0,0.0,0.0,0.0,4.25,0.5,1.0,0.25,0.5,0.0,-0.67,0.45,0.52,89.6,-11.4,-51.2,5.25,0.0,11.5,0.5,0.0,0.5,0.0,0.0,0.25,1.25,0.5,1.0,1.0,0.39,0.64,1.02,305.95,-27.8,40.7
2.08,0.0,0.0,0.0,0.0,0.0,0.0,0.0,3.25,0.5,1.0,0.25,0.25,0.0,-0.55,0.52,0.58,84.8,-11.3,-50.8,6.25,0.0,9.25,1.75,0.0,0.5,0.0,0.0,0.0,0.25,0.75,1.0,1.5,-0.36,0.33,0.39,322.36,-27.4,43.5
2.1,0.0,0.0,0.75,0.0,0.0,0.0,0.0,3.0,0.0,1.0,0.25,0.25,0.0,-0.86,0.77,0.58,79.67,-6.0,-36.1,6.25,0.0,9.25,0.5,0.0,0.25,0.0,0.0,0.0,0.25,1.25,1.0,0.5,-0.55,0.27,0.14,321.19,-30.5,47.9
2.12,0.0,0.0,0.0,0.0,0.0,0.0,0.0,0.0,0.0,0.75,0.0,0.0,0.0,-2.36,1.95,-0.3,53.55,-15.6,-75.5,7.0,0.0,10.5,0.5,0.0,0.25,0.0,0.0,0.0,0.25,1.25,1.25,0.75,-0.48,0.27,0.45,329.83,-30.3,46.6
2.14,0.0,0.0,0.0,0.0,0.0,0.0,0.0,3.0,0.0,0.0,0.0,0.0,0.0,-2.23,1.77,0.52,42.33,-16.7,-38.8,7.5,0.0,10.5,1.5,0.0,0.5,0.0,0.0,0.25,0.5,1.0,1.5,1.0,-0.3,0.33,0.83,345.63,-28.2,43.7
2.16,0.0,0.0,0.0,0.0,0.0,0.0,0.0,0.0,0.0,0.0,0.0,0.0,0.0,-0.67,1.33,2.52,16.99,0.0,0.0,7.75,0.0,12.5,1.75,0.5,0.25,0.0,0.0,0.0,0.25,0.75,1.5,1.25,-0.11,0.39,1.27,368.84,-29.0,47.5
2.18,0.0,0.0,0.0,0.0,0.0,0.0,0.0,0.0,0.0,0.0,0.0,0.0,0.0,1.2,0.77,2.14,0.0,0.0,0.0,7.75,0.0,11.5,1.75,0.0,0.25,0.0,0.0,0.0,0.25,2.5,1.75,2.0,-0.3,0.33,1.14,388.72,-26.8,33.5
2.2,0.0,0.0,0.0,0.0,0.0,0.0,0.0,0.0,0.0,0.0,0.0,0.0,0.0,1.83,-0.17,1.52,0.0,0.0,0.0,7.75,0.0,10.5,1.5,0.0,0.25,0.0,0.0,0.0,0.25,1.25,1.5,0.75,-0.3,0.33,0.95,383.82,-29.7,46.9
2.22,0.0,0.0,0.0,0.0,0.0,0.0,0.0,0.0,0.0,0.0,0.0,0.0,0.0,0.64,-0.8,0.83,0.0,0.0,0.0,7.5,0.0,10.5,1.5,0.0,0.5,0.0,0.0,0.0,0.25,1.0,1.5,1.0,-0.3,0.33,0.89,368.19,-28.8,45.9
2.24,0.0,0.0,0.0,0.0,0.0,0.0,0.0,0.0,0.0,0.0,0.0,0.0,0.0,-0.86,-0.61,0.14,0.0,0.0,0.0,8.25,0.0,9.75,3.0,0.0,1.0,0.0,0.0,0.5,1.5,0.75,1.75,1.25,-0.42,0.27,0.83,369.68,-24.4,38.4
2.26,0.0,0.0,0.0,0.0,0.0,0.0,0.0,0.0,0.0,0.0,0.0,0.0,0.0,-2.23,0.02,-0.48,0.0,0.0,0.0,7.0,0.0,11.5,0.5,0.5,0.25,0.25,0.0,0.0,0.25,0.75,1.25,0.75,-0.42,0.33,0.83,360.95,-30.3,49.9
2.28,0.0,0.0,0.0,0.0,0.0,0.0,0.0,0.0,0.0,0.0,0.0,0.0,0.0,-2.55,0.52,-0.48,0.0,0.0,0.0,7.75,0.0,10.5,2.75,0.5,0.75,0.25,0.0,0.25,1.5,2.25,1.75,1.75,-0.3,0.39,0.89,380.71,-23.3,30.7
2.3,0.0,0.0,0.0,0.0,0.0,0.0,0.0,0.0,0.0,0.0,0.0,0.0,0.0,-1.92,0.83,-0.17,0.0,0.0,0.0,7.0,0.0,9.25,2.0,0.5,0.5,0.5,0.0,0.25,1.25,1.0,0.75,1.75,-0.42,0.27,1.02,371.58,-24.5,38.3
2.32,0.0,0.0,0.0,0.0,0.0,0.0,0.0,0.0,0.0,0.0,0.0,0.0,0.0,-1.17,0.95,0.2,0.0,0.0,0.0,5.25,0.0,7.75,0.5,0.5,0.25,0.5,0.0,0.0,0.0,1.0,0.5,0.0,-0.48,0.2,1.14,329.18,-31.4,57.4
2.34,0.0,0.0,0.0,0.0,0.0,0.0,0.0,0.0,0.0,0.0,0.0,0.0,0.0,-0.55,0.89,0.45,0.0,0.0,0.0,4.0,0.0,7.25,0.5,0.0,0.0,0.0,0.0,0.0,0.0,0.25,0.25,0.25,-0.55,0.14,1.14,269.39,-34.2,62.3
2.36,0.0,0.0,0.0,0.0,0.0,0.0,0.0,0.0,0.0,0.0,0.0,0.0,0.0,-0.3,0.77,0.58,0.0,0.0,0.0,3.75,0.0,5.75,0.5,0.0,0.25,0.0,0.0,0.0,0.0,0.0,0.25,0.0,-0.48,0.14,1.02,210.63,-34.0,68.5
2.38,0.0,0.0,0.0,0.0,0.0,0.0,0.0,0.0,0.0,0.0,0.0,0.0,0.0,-0.48,0.39,0.64,0.0,0.0,0.0,2.0,0.0,4.75,0.5,0.0,0.25,0.0,0.0,0.0,0.0,1.25,0.25,0.25,-0.42,0.27,1.08,155.81,-29.0,40.3
2.4,0.0,0.0,0.0,0.0,0.0,0.0,0.0,0.0,0.0,0.0,0.0,0.0,0.0,-0.8,-0.17,0.64,0.0,0.0,0.0,2.5,0.0,2.0,1.75,0.0,1.25,0.0,0.0,0.0,0.25,0.0,0.25,0.0,-0.36,-0.17,0.89,115.19,-20.6,57.4
2.42,0.0,0.0,0.0,0.0,0.0,0.0,0.0,0.0,0.0,0.0,0.0,0.0,0.0,-1.11,-0.48,0.45,0.0,0.0,0.0,0.5,0.0,0.25,0.5,0.0,0.25,0.0,0.0,0.0,0.0,0.0,0.25,0.0,-0.05,-0.48,1.02,59.73,-18.4,41.8
2.44,0.0,0.0,0.0,0.0,0.0,0.0,0.0,0.0,0.0,0.0,0.0,0.0,0.0,-1.05,-0.55,0.33,0.0,0.0,0.0,0.0,0.0,0.0,0.5,0.0,0.25,0.0,0.0,0.0,0.0,0.0,0.25,0.0,-1.11,-0.36,1.2,9.3,-5.7,10.9
2.46,0.0,0.0,0.0,0.0,0.0,0.0,0.0,0.0,0.0,0.0,0.0,0.0,0.0,-0.8,-0.3,0.2,0.0,0.0,0.0,0.0,0.0,0.0,0.5,0.0,0.25,0.0,0.0,0.0,0.0,0.0,0.25,0.0,-1.98,-0.17,1.45,0.0,-5.7,10.9
2.48,0.0,0.0,0.0,0.0,0.0,0.0,0.0,0.0,0.0,0.0,0.0,0.0,0.0,-0.86,0.02,0.08,0.0,0.0,0.0,1.25,0.0,0.0,0.5,0.0,0.25,0.0,0.0,0.0,0.0,0.0,0.25,0.5,-1.92,0.02,1.58,0.0,-14.7,25.5
2.5,0.0,0.0,0.0,0.0,0.0,0.0,0.0,0.0,0.0,0.0,0.0,0.0,0.0,-0.98,0.14,0.08,0.0,0.0,0.0,0.0,0.0,0.0,0.5,0.0,0.25,0.0,0.0,0.0,0.0,0.0,0.25,0.25,-1.67,-0.05,1.52,0.0,-1.8,-13.5
2.52,0.0,0.0,0.0,0.0,0.0,0.0,0.0,0.0,0.0,0.0,0.0,0.0,0.0,-1.11,0.33,0.08,0.0,0.0,0.0,0.0,0.0,0.0,0.5,0.0,0.25,0.0,0.0,0.0,0.0,0.0,0.25,0.25,-1.36,-0.3,1.52,0.0,-1.8,-13.5
2.54,0.0,0.0,0.0,0.0,0.0,0.0,0.0,0.0,0.0,0.0,0.0,0.0,0.0,-1.17,0.14,0.08,0.0,0.0,0.0,0.0,0.0,0.0,0.75,0.0,0.25,0.0,0.0,0.0,0.0,0.0,0.25,0.0,-1.05,-0.42,1.52,0.0,-8.1,20.6
2.56,0.0,0.0,0.0,0.0,0.0,0.0,0.0,0.0,0.0,0.0,0.0,0.0,0.0,-1.23,0.08,0.08,0.0,0.0,0.0,1.0,0.0,0.0,1.75,0.5,1.25,0.0,0.0,0.0,0.25,0.0,0.75,0.25,-0.92,-0.42,1.39,10.25,-5.9,24.1
2.58,0.0,0.0,0.0,0.0,0.0,0.0,0.0,0.0,0.0,0.0,0.0,0.0,0.0,-1.3,0.27,0.08,0.0,0.0,0.0,0.75,0.0,0.0,1.25,1.0,1.25,0.0,0.0,0.0,0.25,0.5,0.5,1.25,-0.73,-0.48,1.39,46.64,-0.6,-0.7
2.6,0.0,0.0,0.0,0.0,0.0,0.0,0.0,0.0,0.0,0.0,0.0,0.0,0.0,-1.05,0.27,0.08,0.0,0.0,0.0,0.75,0.0,0.0,1.25,0.5,1.25,0.0,0.0,0.0,0.25,0.75,0.75,1.0,-0.61,-0.48,1.33,77.56,-2.2,-8.1
2.62,0.0,0.0,0.0,0.0,0.0,0.0,0.0,0.0,0.0,0.0,0.0,0.0,0.0,-0.86,0.14,0.2,0.0,0.0,0.0,1.0,0.0,0.0,1.5,0.5,1.25,0.0,0.0,0.0,0.25,0.75,0.5,1.25,-0.48,-0.48,1.27,99.44,-3.0,-2.2
2.64,0.0,0.0,0.0,0.0,0.0,0.0,0.0,0.0,0.0,0.0,0.0,0.0,0.0,-0.92,0.14,0.33,0.0,0.0,0.0,0.5,0.0,0.0,1.25,0.5,1.0,0.25,0.0,0.0,0.25,0.75,0.75,1.0,-0.36,-0.55,1.27,108.21,-2.5,-13.0
2.66,0.0,0.0,0.0,0.0,0.0,0.0,0.0,0.0,0.0,0.0,0.0,0.0,0.0,-0.98,0.14,0.27,0.0,0.0,0.0,1.0,0.0,0.0,1.25,0.5,1.0,0.0,0.25,0.0,0.25,0.25,0.25,1.25,-0.36,-0.55,1.2,112.43,-1.7,2.4
2.68,0.0,0.0,0.0,0.0,0.0,0.0,0.0,0.0,0.0,0.0,0.0,0.0,0.0,-0.86,0.2,0.2,0.0,0.0,0.0,0.0,0.0,0.0,1.25,0.0,0.75,0.25,0.0,0.0,0.25,0.25,0.75,0.25,-0.36,-0.55,1.08,96.91,-3.3,-12.1
2.7,0.0,0.0,0.0,0.0,0.0,0.0,0.0,0.0,0.0,0.0,0.0,0.0,0.0,-0.73,0.33,0.2,0.0,0.0,0.0,0.0,0.0,0.0,0.5,0.5,0.5,0.0,0.0,0.0,0.25,0.0,0.75,0.5,-0.42,-0.55,1.08,80.02,2.6,-25.9
2.72,0.0,0.0,0.0,0.0,0.0,0.0,0.0,0.0,0.0,0.0,0.0,0.0,0.0,-0.73,0.33,0.08,0.0,0.0,0.0,0.75,0.0,0.0,1.25,1.0,1.25,0.0,0.0,0.0,0.25,0.75,0.75,1.0,-0.48,-0.55,1.02,84.42,-1.7,-3.1
2.74,0.0,0.0,0.0,0.0,0.0,0.0,0.0,0.0,0.0,0.0,0.0,0.0,0.0,-0.86,0.39,0.02,0.0,0.0,0.0,1.25,0.0,0.0,1.0,0.5,0.75,0.0,0.0,0.0,0.25,0.5,0.25,1.0,-0.48,-0.48,0.95,87.23,-5.4,6.1
2.76,0.0,0.0,0.0,0.0,0.0,0.0,0.0,0.0,0.0,0.0,0.0,0.0,0.0,-1.05,0.45,-0.05,0.0,0.0,0.0,0.25,0.0,0.0,1.25,0.5,0.75,0.0,0.0,0.0,0.25,0.75,0.5,1.0,-0.42,-0.42,0.89,89.09,-1.2,-16.4
2.78,0.0,0.0,0.0,0.0,0.0,0.0,0.0,0.0,0.0,0.0,0.0,0.0,0.0,-1.17,0.45,-0.17,0.0,0.0,0.0,0.75,0.0,0.0,0.5,0.5,0.5,0.25,0.0,0.0,0.25,0.25,0.5,1.25,-0.36,-0.42,0.83,81.67,-2.1,-17.9
2.8,0.0,0.0,0.0,0.0,0.0,0.0,0.0,0.0,0.0,0.0,0.0,0.0,0.0,-1.05,0.33,-0.3,0.0,0.0,0.0,0.75,0.0,0.0,1.0,0.5,1.0,0.0,0.0,0.0,0.25,0.75,0.5,1.0,-0.36,-0.36,0.7,79.56,-2.2,-8.4
2.82,0.0,0.0,0.0,0.0,0.0,0.0,0.0,0.0,0.0,0.0,0.0,0.0,0.0,-0.86,0.39,-0.3,0.0,0.0,0.0,0.75,0.0,0.0,1.25,0.5,1.0,0.0,0.0,0.0,0.25,0.25,0.5,1.25,-0.42,-0.17,0.58,79.75,-1.5,-4.4
2.84,0.0,0.0,0.0,0.0,0.0,0.0,0.0,0.0,0.0,0.0,0.0,0.0,0.0,-0.8,0.45,-0.3,0.0,0.0,0.0,1.0,0.0,0.0,0.5,0.5,0.75,0.25,0.0,0.0,0.25,0.25,0.5,1.25,-0.48,-0.11,0.45,80.95,-2.5,-10.3
2.86,0.0,0.0,0.0,0.0,0.0,0.0,0.0,0.0,0.0,0.0,0.0,0.0,0.0,-0.8,0.45,-0.23,0.0,0.0,0.0,0.75,0.0,0.0,1.25,0.5,0.75,0.0,0.0,0.0,0.25,0.75,0.25,1.25,-0.42,-0.11,0.33,84.73,-2.9,-7.3
2.88,0.0,0.0,0.0,0.0,0.0,0.0,0.0,0.0,0.0,0.0,0.0,0.0,0.0,-0.8,0.45,-0.17,0.0,0.0,0.0,0.5,0.0,0.0,1.25,0.5,1.0,0.0,0.0,0.0,0.25,0.75,0.75,1.0,-0.36,-0.05,0.27,88.57,-1.9,-13.8
2.9,0.0,0.0,0.0,0.0,0.0,0.0,0.0,0.0,0.75,0.0,0.0,0.0,0.0,-0.8,0.33,-0.17,4.16,12.1,-38.5,1.0,0.0,0.0,1.25,0.5,0.5,0.0,0.0,0.0,0.25,0.5,0.5,1.0,-0.36,-0.05,0.2,89.82,-6.1,-1.5
2.92,0.0,0.0,0.0,0.0,0.0,0.0,3.5,4.0,0.0,0.0,0.0,0.0,0.0,-0.92,0.2,-0.17,34.63,-2.2,-19.2,1.0,0.0,0.0,0.75,1.25,1.0,0.0,0.0,0.0,0.25,0.5,0.5,1.25,-0.36,-0.05,0.02,96.08,-1.1,-0.7
2.94,0.0,0.0,0.75,0.0,0.0,0.0,0.25,0.5,0.0,0.0,0.0,0.0,0.0,-1.05,0.14,-0.23,40.1,18.0,22.2,0.75,0.0,0.0,1.0,0.5,1.25,0.0,0.0,0.0,0.25,0.5,0.75,1.0,-0.42,-0.05,0.02,95.95,-1.2,-8.3
2.96,0.0,0.0,0.25,0.0,0.0,0.0,0.0,1.25,0.0,0.0,0.0,0.25,0.0,-1.11,0.08,-0.23,45.02,-5.0,-34.2,0.75,0.0,0.0,0.75,1.0,1.25,0.0,0.0,0.0,0.25,0.5,0.25,1.0,-0.48,-0.11,-0.05,94.13,0.5,3.4
2.98,0.0,0.0,0.5,0.0,0.0,0.0,0.0,1.25,0.0,0.0,0.0,0.25,0.25,-1.11,0.08,-0.17,42.09,-1.1,-32.0,0.25,0.25,0.0,0.75,1.5,1.0,0.0,0.0,0.0,0.25,0.5,0.5,0.75,-0.42,-0.17,-0.11,94.88,1.2,4.0
3.0,0.0,0.0,0.0,0.0,0.0,0.0,0.0,0.5,0.0,0.0,0.0,0.25,0.0,-1.11,0.02,-0.05,34.17,-8.2,-62.4,0.75,0.0,0.0,0.75,0.5,1.0,0.25,0.0,0.0,0.25,0.75,0.25,1.25,-0.42,-0.23,-0.05,92.85,-1.2,-10.9
3.02,0.0,0.0,0.5,0.0,0.0,0.0,0.0,0.5,0.0,0.0,0.0,0.25,0.0,-1.05,0.02,0.08,27.57,10.7,-12.1,0.75,0.0,0.0,1.0,0.5,0.75,0.0,0.0,0.0,0.25,0.25,0.5,1.25,-0.48,-0.3,-0.11,88.54,-1.8,-9.1
3.04,0.0,0.0,0.0,0.0,0.0,0.0,0.0,0.5,0.0,0.0,0.0,0.25,0.0,-0.92,0.02,0.14,22.14,-8.2,-62.4,0.5,0.0,0.0,1.0,0.0,0.5,0.0,0.0,0.0,0.25,0.25,0.5,1.0,-0.48,-0.36,-0.11,77.15,-3.1,-20.5
3.06,0.0,0.0,0.0,0.0,0.0,0.0,0.0,0.5,0.0,0.0,0.0,0.25,0.0,-0.86,0.08,0.14,18.93,-8.2,-62.4,0.75,0.0,0.0,0.5,0.5,1.0,0.0,0.0,0.0,0.25,0.25,0.5,1.5,-0.42,-0.42,-0.17,74.88,1.5,-18.8
3.08,0.0,0.0,0.0,0.0,0.0,0.0,0.0,0.5,0.0,0.0,0.0,0.0,0.0,-0.92,0.14,0.08,12.61,-16.7,-38.7,0.75,0.0,0.0,1.25,1.0,0.75,0.25,0.0,0.0,0.25,0.25,0.25,1.25,-0.36,-0.48,-0.17,78.47,-2.3,4.6
3.1,0.0,0.0,0.0,0.0,0.0,0.0,0.0,0.25,0.0,0.0,0.0,0.0,0.25,-0.92,0.2,0.02,9.38,-15.2,-74.8,0.75,0.0,0.0,1.0,0.5,1.0,0.0,0.0,0.0,0.25,0.5,0.5,1.25,-0.36,-0.61,-0.11,82.49,-1.2,-10.2
3.12,0.0,0.0,0.25,0.0,0.0,0.0,0.0,0.5,0.0,0.0,0.0,0.0,0.25,-1.05,0.2,-0.05,8.35,-2.0,-31.5,0.75,0.25,0.0,0.75,0.5,0.5,0.0,0.0,0.0,0.25,0.75,0.25,0.75,-0.36,-0.67,0.02,81.31,-5.0,0.1
3.14,0.0,0.0,0.0,0.0,0.0,0.0,0.0,0.0,0.0,0.0,0.0,0.0,0.0,-1.11,0.2,-0.17,2.38,0.0,0.0,0.75,0.0,0.0,0.5,1.25,1.0,0.25,0.0,0.0,0.25,0.75,0.5,1.0,-0.36,-0.61,-0.05,85.97,-0.8,-4.7
3.16,0.0,0.0,0.0,0.0,0.0,0.0,0.0,0.0,0.0,0.0,0.0,0.0,0.0,-1.17,0.27,-0.17,0.0,0.0,0.0,0.5,0.0,0.0,0.5,0.5,1.0,0.0,0.0,0.0,0.25,0.5,0.75,1.0,-0.36,-0.73,-0.05,81.59,0.8,-22.1
3.18,0.0,0.0,0.0,0.0,0.0,0.0,0.0,0.0,0.0,0.0,0.0,0.0,0.0,-1.17,0.27,-0.17,0.0,0.0,0.0,0.75,0.0,0.0,1.0,0.5,0.5,0.0,0.0,0.0,0.25,0.75,0.5,1.0,-0.36,-0.8,0.02,81.6,-4.5,-12.2
3.2,0.0,0.0,0.0,0.0,0.0,0.0,0.0,0.0,0.0,0.0,0.0,0.0,0.0,-1.11,0.2,-0.17,0.0,0.0,0.0,0.75,0.0,0.0,0.75,0.5,1.25,0.25,0.0,0.0,0.25,0.0,0.25,1.0,-0.48,-0.73,0.02,78.86,0.5,5.9
3.22,0.0,0.0,0.0,0.0,0.0,0.0,0.0,0.0,0.0,0.0,0.0,0.0,0.0,-0.98,0.2,-0.11,0.0,0.0,0.0,0.75,0.0,0.0,0.75,0.5,0.75,0.0,0.0,0.0,0.25,0.5,0.5,1.0,-0.61,-0.73,0.08,78.43,-2.2,-10.7
3.24,0.0,0.0,0.0,0.0,0.0,0.0,0.0,0.0,0.0,0.0,0.0,0.0,0.0,-0.86,0.2,-0.11,0.0,0.0,0.0,0.25,0.0,0.0,0.5,1.0,1.0,0.25,0.0,0.0,0.25,0.0,0.5,0.75,-0.61,-0.8,0.14,74.81,3.2,-1.7
3.26,0.0,0.0,0.0,0.0,0.0,0.0,0.0,0.0,0.0,0.0,0.0,0.0,0.0,-0.86,0.2,0.02,0.0,0.0,0.0,0.75,0.0,0.0,0.5,0.5,1.0,0.0,0.0,0.0,0.25,0.75,0.5,1.0,-0.73,-0.86,0.27,75.97,-0.8,-15.1
3.28,0.0,0.0,0.0,0.0,0.0,0.0,0.0,0.0,0.0,0.0,0.0,0.0,0.0,-0.8,0.14,0.02,0.0,0.0,0.0,0.75,0.0,0.0,0.75,0.5,1.0,0.0,0.0,0.0,0.25,0.5,0.5,1.0,-0.73,-0.92,0.27,77.26,-1.1,-8.7
3.3,0.0,0.0,0.0,0.0,0.0,0.0,0.0,0.0,0.0,0.0,0.0,0.0,0.0,-0.8,0.08,-0.05,0.0,0.0,0.0,0.75,0.25,0.0,0.75,0.5,1.0,0.0,0.0,0.0,0.25,0.5,0.25,1.0,-0.92,-0.98,0.33,78.33,-1.3,1.3
3.32,0.0,0.0,0.0,0.0,0.0,0.0,0.0,0.0,0.0,0.0,0.0,0.0,0.0,-0.92,0.08,-0.11,0.0,0.0,0.0,0.75,0.0,0.0,0.5,0.5,0.75,0.0,0.0,0.0,0.25,0.25,0.25,1.25,-0.98,-0.98,0.45,75.4,0.2,-11.4
3.34,0.0,0.0,0.0,0.0,0.0,0.0,0.0,0.0,0.0,0.0,0.0,0.0,0.0,-0.98,0.02,-0.11,0.0,0.0,0.0,1.25,0.0,0.0,1.0,1.0,0.5,0.0,0.0,0.0,0.25,0.5,0.5,1.25,-0.92,-1.05,0.52,83.3,-5.0,0.2
3.36,0.0,0.0,0.0,0.0,0.0,0.0,0.0,0.0,0.0,0.0,0.0,0.0,0.0,-1.05,0.02,-0.11,0.0,0.0,0.0,0.75,0.0,0.0,0.75,0.5,1.0,0.0,0.0,0.0,0.25,0.5,0.25,0.75,-0.86,-1.11,0.58,81.33,-1.5,2.0
3.38,0.0,0.0,0.0,0.0,0.0,0.0,0.0,0.0,0.0,0.0,0.0,0.0,0.0,-1.05,0.02,-0.11,0.0,0.0,0.0,0.25,0.0,0.0,0.75,0.25,1.0,0.0,0.0,0.0,0.25,0.5,0.25,0.25,-0.86,-1.11,0.52,73.41,0.2,1.4
3.4,0.0,0.0,0.0,0.0,0.0,0.0,0.0,0.0,0.0,0.0,0.0,0.0,0.0,-1.05,0.08,-0.11,0.0,0.0,0.0,0.75,0.0,0.0,0.5,0.5,0.5,0.25,0.0,0.0,0.25,0.75,0.25,1.25,-0.8,-1.11,0.52,71.21,-2.6,-18.9
3.42,0.0,0.0,0.0,0.0,0.0,0.0,0.0,0.0,0.0,0.0,0.0,0.0,0.0,-0.98,0.08,-0.11,0.0,0.0,0.0,0.5,0.0,0.25,0.5,0.5,0.5,0.0,0.0,0.0,0.25,0.25,0.25,1.0,-0.73,-1.11,0.52,66.07,-2.2,-9.5
3.44,0.0,0.0,0.0,0.0,0.0,0.0,0.0,0.0,0.0,0.0,0.0,0.0,0.0,-0.98,0.14,-0.05,0.0,0.0,0.0,0.75,0.0,0.0,0.5,0.5,0.75,0.0,0.0,0.0,0.25,0.0,0.25,1.0,-0.61,-1.05,0.52,63.7,0.1,-1.3
3.46,0.0,0.0,0.0,0.0,0.0,0.0,0.0,0.0,0.0,0.0,0.0,0.0,0.0,-0.92,0.14,-0.05,0.0,0.0,0.0,1.0,0.0,0.0,0.75,0.5,1.0,0.0,0.0,0.0,0.25,0.75,0.25,1.0,-0.67,-1.05,0.64,69.37,-2.6,-2.5
3.48,0.0,0.0,0.0,0.0,0.0,0.0,0.0,0.0,0.0,0.0,0.0,0.0,0.0,-0.98,0.14,-0.05,0.0,0.0,0.0,0.75,0.0,0.0,0.5,1.5,1.0,0.0,0.25,0.0,0.25,0.75,0.25,0.5,-0.67,-1.05,0.58,79.03,-0.1,9.6
3.5,0.0,0.0,0.0,0.0,0.0,0.0,0.0,0.0,0.0,0.0,0.0,0.0,0.0,-0.98,0.14,-0.05,0.0,0.0,0.0,0.75,0.0,0.0,0.5,0.5,0.75,0.0,0.0,0.0,0.25,0.5,0.25,0.5,-0.67,-0.98,0.58,76.12,-2.9,3.6
3.52,0.0,0.0,0.0,0.0,0.0,0.0,0.0,0.0,0.0,0.0,0.0,0.0,0.0,-1.05,0.14,-0.05,0.0,0.0,0.0,0.75,0.0,0.0,0.5,1.25,1.0,0.0,0.0,0.0,0.25,0.25,0.5,1.0,-0.61,-0.92,0.58,80.56,0.6,0.6
3.54,0.0,0.0,0.0,0.0,0.0,0.0,0.0,0.0,0.0,0.0,0.0,0.0,0.0,-1.05,0.14,-0.11,0.0,0.0,0.0,0.5,0.0,0.0,0.5,0.5,0.5,0.0,0.0,0.0,0.25,0.5,0.25,1.0,-0.61,-0.86,0.58,73.95,-0.5,-17.9
3.56,0.0,0.0,0.0,0.0,0.0,0.0,0.0,0.0,0.0,0.0,0.0,0.0,0.0,-1.05,0.14,-0.11,0.0,0.0,0.0,0.75,0.0,0.0,0.75,0.25,1.0,0.0,0.0,0.0,0.25,0.25,0.25,0.75,-0.67,-0.8,0.58,71.18,-1.3,2.9
3.58,0.0,0.0,0.0,0.0,0.0,0.0,0.0,0.0,0.0,0.0,0.0,0.0,0.0,-1.05,0.14,-0.05,0.0,0.0,0.0,0.75,0.0,0.0,0.5,1.0,0.5,0.0,0.0,0.0,0.25,0.5,0.25,1.0,-0.61,-0.73,0.64,69.43,-1.7,-3.8
3.6,0.0,0.0,0.0,0.0,0.0,0.0,0.0,0.0,0.0,0.0,0.0,0.0,0.0,-1.05,0.14,-0.05,0.0,0.0,0.0,0.75,0.0,0.0,0.5,1.0,1.0,0.0,0.0,0.0,0.25,0.25,0.25,0.5,-0.61,-0.67,0.64,72.94,-0.4,15.7
3.62,0.0,0.0,0.0,0.0,0.0,0.0,0.0,0.0,0.0,0.0,0.0,0.0,0.0,-0.98,0.14,-0.05,0.0,0.0,0.0,0.75,0.0,0.0,0.75,0.5,1.0,0.0,0.0,0.0,0.25,0.5,0.25,0.75,-0.55,-0.61,0.58,74.33,-1.5,2.0
3.64,0.0,0.0,0.0,0.0,0.0,0.0,0.0,0.0,0.0,0.0,0.0,0.0,0.0,-0.98,0.14,-0.05,0.0,0.0,0.0,0.75,0.0,0.0,0.75,0.5,0.75,0.0,0.0,0.0,0.25,0.5,0.25,1.0,-0.61,-0.61,0.58,74.19,-1.9,-5.5
3.66,0.0,0.0,0.0,0.0,0.0,0.0,0.0,0.0,0.0,0.0,0.0,0.0,0.0,-0.98,0.14,-0.05,0.0,0.0,0.0,0.5,0.0,0.0,0.75,1.0,0.75,0.0,0.0,0.0,0.25,0.25,0.25,1.0,-0.61,-0.61,0.58,75.63,0.6,0.0
3.68,0.0,0.0,0.0,0.0,0.0,0.0,0.0,0.0,0.0,0.0,0.0,0.0,0.0,-1.05,0.08,-0.05,0.0,0.0,0.0,0.75,0.0,0.0,0.75,0.5,0.75,0.0,0.0,0.0,0.25,0.75,0.25,1.0,-0.55,-0.55,0.58,75.53,-2.3,-8.9
3.7,0.0,0.0,0.0,0.0,0.0,0.0,0.0,0.0,0.0,0.0,0.0,0.0,0.0,-1.05,0.08,-0.05,0.0,0.0,0.0,0.75,0.0,0.0,0.5,0.5,0.75,0.0,0.0,0.0,0.25,0.25,0.25,0.75,-0.55,-0.55,0.58,70.94,-1.4,1.1
3.72,0.0,0.0,0.0,0.0,0.0,0.0,0.0,0.0,0.0,0.0,0.0,0.0,0.0,-1.05,0.08,-0.05,0.0,0.0,0.0,0.75,0.25,0.0,0.5,0.5,0.5,0.0,0.0,0.0,0.25,0.0,0.25,1.0,-0.48,-0.55,0.52,67.98,-2.0,2.9
3.74,0.0,0.0,0.0,0.0,0.0,0.0,0.0,0.0,0.0,0.0,0.0,0.0,0.0,-1.05,0.08,-0.05,0.0,0.0,0.0,0.75,0.0,0.0,0.75,0.5,1.0,0.0,0.0,0.0,0.25,0.75,0.25,0.75,-0.42,-0.55,0.58,70.44,-2.0,-1.7
3.76,0.0,0.0,0.0,0.0,0.0,0.0,0.0,0.0,0.0,0.0,0.0,0.0,0.0,-0.98,0.14,-0.05,0.0,0.0,0.0,0.75,0.0,0.0,0.75,0.5,0.5,0.0,0.0,0.0,0.25,0.25,0.25,0.75,-0.42,-0.61,0.58,67.66,-3.8,2.9
3.78,0.0,0.0,0.0,0.0,0.0,0.0,0.0,0.0,0.0,0.0,0.0,0.0,0.0,-0.98,0.14,-0.05,0.0,0.0,0.0,0.5,0.0,0.0,0.5,0.5,0.5,0.0,0.0,0.0,0.25,0.25,0.25,1.0,-0.36,-0.61,0.58,65.48,0.1,-14.2
3.8,0.0,0.0,0.75,0.0,0.0,0.0,0.0,0.5,0.25,0.0,0.0,0.25,0.0,-0.98,0.14,-0.05,9.96,14.9,-5.1,0.5,0.0,0.0,0.5,0.5,0.75,0.0,0.0,0.0,0.25,0.25,0.25,0.75,-0.36,-0.61,0.52,61.23,0.6,-4.7
3.82,0.0,0.0,0.75,0.0,0.0,0.0,0.0,0.25,0.5,0.0,0.0,0.25,0.0,-0.98,0.14,-0.05,19.11,19.0,-5.0,0.5,0.0,0.0,0.5,0.5,0.5,0.0,0.0,0.0,0.25,0.25,0.25,0.75,-0.42,-0.61,0.52,56.92,-0.8,-7.3
3.84,0.0,0.0,0.5,0.0,0.0,0.0,0.0,0.25,0.5,0.0,0.0,0.25,0.0,-0.98,0.14,-0.05,25.89,15.7,-16.3,0.75,0.0,0.0,0.5,1.25,0.75,0.0,0.0,0.0,0.25,0.5,0.25,0.75,-0.48,-0.67,0.58,62.96,-1.0,6.4
3.86,0.0,0.0,0.5,1.0,0.0,0.0,0.25,1.25,2.75,0.5,0.0,0.75,0.0,-0.98,0.14,-0.05,56.56,7.6,-25.7,0.75,0.0,0.0,0.5,0.5,0.75,0.0,0.0,0.0,0.25,0.25,0.25,1.0,-0.48,-0.67,0.58,64.89,-0.5,-5.5
3.88,0.0,0.0,1.75,0.0,0.0,0.0,0.75,1.25,0.25,0.0,0.0,0.25,0.0,-1.05,0.14,-0.05,68.6,16.6,8.8,0.5,0.0,0.0,0.5,0.5,1.0,0.0,0.0,0.0,0.25,0.25,0.25,0.75,-0.48,-0.73,0.58,66.38,1.9,-2.5
3.9,0.0,0.0,0.75,0.0,0.0,0.0,0.0,1.25,0.0,0.0,0.0,0.0,0.0,-0.98,0.14,-0.05,68.0,4.2,-0.6,0.5,0.0,0.0,0.5,0.25,0.75,0.0,0.25,0.0,0.25,0.75,0.25,0.75,-0.48,-0.73,0.64,65.03,0.1,-18.8
3.92,0.0,0.0,0.0,0.0,0.0,0.0,0.0,0.0,0.0,0.0,0.0,0.0,0.0,-0.98,0.14,-0.05,46.87,0.0,0.0,0.75,0.0,0.0,0.5,0.5,1.25,0.0,0.0,0.0,0.25,0.5,0.25,0.75,-0.55,-0.73,0.58,68.05,0.5,0.5
3.94,0.0,0.0,0.0,0.0,0.0,0.0,0.0,1.25,0.25,0.0,0.0,0.25,0.0,-0.98,0.14,-0.05,37.05,-9.0,-48.8,0.75,0.0,0.0,0.5,0.5,1.0,0.0,0.0,0.0,0.25,0.25,0.25,0.75,-0.61,-0.73,0.58,68.34,0.0,2.9
3.96,0.5,0.0,0.75,0.0,0.0,0.0,0.0,1.25,0.5,0.0,0.0,0.25,0.0,-0.98,0.14,-0.05,36.35,10.2,-0.6,0.75,0.0,0.0,0.75,0.5,0.5,0.0,0.0,0.0,0.25,0.5,0.25,0.5,-0.61,-0.8,0.64,67.78,-5.3,5.4
3.98,0.5,0.0,1.0,0.0,0.0,0.0,0.0,1.25,0.25,0.0,0.0,0.25,0.0,-0.98,0.08,-0.05,44.49,12.3,7.1,0.75,0.25,0.0,0.5,1.0,0.5,0.0,0.0,0.0,0.25,0.0,0.25,0.75,-0.67,-0.8,0.64,68.62,-2.2,16.2
4.0,0.75,0.0,1.0,0.0,0.0,0.0,0.0,1.25,0.25,0.0,0.0,0.25,0.0,-0.98,0.08,-0.05,53.74,13.8,13.2,0.75,0.0,0.0,0.5,0.5,1.0,0.0,0.0,0.0,0.25,0.75,0.25,1.0,-0.67,-0.8,0.64,72.32,-0.4,-10.4
4.02,0.75,0.0,0.75,0.0,0.0,0.0,0.0,1.25,0.25,0.0,0.0,0.25,0.0,-0.98,0.08,-0.05,56.42,11.9,9.4,0.5,0.0,0.0,0.5,0.5,0.75,0.0,0.0,0.0,0.25,0.25,0.25,0.75,-0.73,-0.8,0.64,69.18,0.6,-4.7
4.04,0.5,0.0,1.0,0.0,0.0,0.0,0.0,1.25,0.25,0.0,0.0,0.25,0.0,-0.98,0.14,-0.05,55.13,12.3,7.1,0.75,0.0,0.0,0.75,0.5,1.25,0.0,0.0,0.0,0.25,1.5,0.25,0.75,-0.67,-0.8,0.64,76.91,-2.0,-9.2
4.06,0.5,0.0,1.0,0.0,0.0,0.0,0.0,1.25,0.25,0.0,0.0,0.5,0.0,-0.98,0.14,-0.05,54.54,12.0,-1.1,0.5,0.0,0.0,0.5,0.5,0.5,0.0,0.0,0.0,0.25,0.5,0.25,0.75,-0.61,-0.8,0.58,71.75,-1.4,-11.7
4.08,0.75,0.0,1.0,0.0,0.0,0.0,0.0,0.0,0.25,0.0,0.0,0.25,0.25,-0.98,0.14,-0.05,49.92,26.4,26.6,0.5,0.0,0.0,1.0,0.5,1.0,0.0,0.0,0.0,0.25,0.25,0.25,0.75,-0.61,-0.73,0.58,72.27,-0.2,4.4
