time,left pressure 0[N/cm虏],left pressure 1[N/cm虏],left pressure 2[N/cm虏],left pressure 3[N/cm虏],left pressure 4[N/cm虏],left pressure 5[N/cm虏],left pressure 6[N/cm虏],left pressure 7[N/cm虏],left pressure 8[N/cm虏],left pressure 9[N/cm虏],left pressure 10[N/cm虏],left pressure 11[N/cm虏],left pressure 12[N/cm虏],left acceleration X[g],left acceleration Y[g],left acceleration Z[g],left total force[N],left center of pressure X[mm],left center of pressure Y[mm],right pressure 0[N/cm虏],right pressure 1[N/cm虏],right pressure 2[N/cm虏],right pressure 3[N/cm虏],right pressure 4[N/cm虏],right pressure 5[N/cm虏],right pressure 6[N/cm虏],right pressure 7[N/cm虏],right pressure 8[N/cm虏],right pressure 9[N/cm虏],right pressure 10[N/cm虏],right pressure 11[N/cm虏],right pressure 12[N/cm虏],right acceleration X[g],right acceleration Y[g],right acceleration Z[g],right total force[N],right center of pressure X[mm],right center of pressure Y[mm]
0.02,0.0,0.5,0.5,0.5,0.0,2.75,0.25,5.25,0.75,2.75,3.5,2.0,4.0,-0.17,0.2,1.52,381.2,-6.4,-51.6,5.75,2.25,5.25,6.25,5.0,2.75,0.25,1.0,0.0,0.0,0.25,0.25,0.0,0.52,0.45,1.7,264.62,-15.1,60.1
0.04,0.0,0.0,1.0,0.75,0.0,2.5,0.0,3.75,0.75,2.75,2.5,1.25,3.75,-0.17,0.39,1.83,298.7,-6.0,-49.4,6.75,3.0,8.25,7.25,5.75,3.0,0.0,1.25,0.0,0.0,0.0,0.25,0.5,-0.05,0.33,1.33,395.37,-16.2,59.5
0.06,0.0,0.75,2.0,0.25,0.0,2.25,0.25,4.5,0.75,1.0,2.0,0.25,2.5,-0.23,0.14,1.45,232.64,-2.8,-27.0,6.75,3.0,8.75,7.5,6.25,3.25,0.0,1.25,0.0,0.0,0.0,0.5,0.0,-0.11,0.14,1.2,545.09,-16.4,60.4
0.08,0.0,0.0,0.0,0.0,0.0,0.0,0.25,3.5,0.0,0.25,1.75,0.0,0.0,0.02,0.33,0.89,140.43,-7.2,-50.2,8.0,4.5,9.5,9.0,8.25,4.0,0.25,2.5,0.0,0.0,0.0,0.0,0.0,0.2,0.2,1.33,712.33,-14.8,60.9
0.1,0.0,0.0,0.0,0.0,0.0,0.0,0.5,0.0,0.0,0.0,0.0,0.0,0.0,-0.8,3.39,-0.23,32.83,32.4,27.3,8.25,4.75,10.5,11.0,9.25,6.0,0.25,3.25,0.75,1.5,0.5,0.5,0.25,0.27,0.2,2.02,905.81,-12.3,50.6
0.12,0.0,0.0,0.0,0.0,0.0,0.0,0.0,0.0,1.75,0.0,0.0,0.0,0.0,0.64,3.2,1.52,0.0,12.2,-38.5,8.25,4.75,10.5,11.0,9.5,6.25,1.0,5.25,1.25,2.25,1.25,1.0,0.5,0.2,0.14,1.08,1102.14,-10.8,42.1
0.14,0.0,0.0,0.0,0.0,0.0,0.0,0.0,0.0,0.0,0.0,0.0,0.0,0.0,1.2,2.52,1.08,0.0,0.0,0.0,8.0,4.75,10.0,11.0,9.25,6.25,1.5,6.0,1.5,3.0,2.75,1.0,0.5,0.2,0.14,1.08,1268.75,-10.1,36.6
0.16,0.0,0.0,0.0,0.0,0.0,0.0,0.0,0.0,0.0,0.0,0.0,0.0,0.0,-0.17,2.45,0.83,0.0,0.0,0.0,7.75,4.25,10.0,10.5,9.25,6.25,1.25,6.25,1.5,2.5,2.5,1.25,1.25,0.2,0.14,1.02,1345.0,-9.7,34.4
0.18,0.0,0.0,0.0,0.0,0.0,0.0,0.0,0.0,0.0,0.0,0.0,0.0,0.0,0.02,1.89,1.2,0.0,0.0,0.0,7.75,4.25,9.5,10.5,9.0,6.0,1.0,6.0,1.25,2.0,2.5,1.0,0.75,0.2,0.14,0.95,1348.47,-10.1,37.3
0.2,0.0,0.0,0.0,0.0,0.0,0.0,0.0,0.0,0.0,0.0,0.0,0.0,0.0,0.14,1.45,1.58,0.0,0.0,0.0,7.5,3.75,9.25,9.25,8.25,5.75,0.5,5.25,1.25,1.75,2.25,1.0,0.5,0.2,0.14,0.89,1285.64,-10.5,38.4
0.22,0.0,0.75,0.0,0.0,0.0,2.25,1.0,0.0,0.5,1.75,0.0,0.0,0.0,0.02,0.95,1.58,0.0,-7.9,1.9,7.0,3.25,9.0,9.0,8.0,5.25,0.5,5.25,1.25,1.75,2.25,0.75,0.5,0.2,0.14,0.89,1169.78,-10.4,37.7
0.24,0.0,0.75,1.75,2.25,0.0,3.5,0.5,3.5,0.75,1.75,1.0,0.0,0.25,0.02,0.58,1.58,45.52,-1.2,2.8,6.5,3.0,8.75,8.5,8.25,5.25,0.5,5.25,1.25,2.25,2.0,0.75,0.5,0.2,0.14,0.89,1052.77,-9.7,36.2
0.26,0.0,0.75,1.75,0.5,0.0,1.75,4.0,0.0,0.5,0.25,0.0,0.0,0.0,0.02,0.39,1.39,99.22,15.3,38.8,6.25,3.0,8.5,7.25,7.75,5.25,0.5,5.25,1.25,2.5,2.5,1.0,0.75,0.2,0.14,0.89,954.71,-9.2,32.1
0.28,0.0,0.75,1.5,0.25,0.0,1.5,0.0,2.75,0.5,1.75,0.25,0.0,0.5,-0.11,0.2,1.2,139.48,-3.1,-10.1,5.75,2.5,8.25,7.25,7.25,5.25,0.5,5.25,1.25,3.25,2.5,1.0,0.75,0.2,0.14,0.95,881.82,-8.5,28.9
0.3,0.0,0.75,1.5,0.75,0.0,1.75,0.0,2.75,0.25,1.5,0.25,0.25,0.25,-0.23,0.02,1.14,155.45,-2.0,-3.0,5.5,2.5,8.0,7.25,7.25,5.25,0.5,5.25,1.25,3.5,2.5,1.0,1.25,0.2,0.14,0.95,831.84,-7.9,26.5
0.32,0.0,0.5,1.5,0.0,0.0,1.5,0.25,2.75,0.25,1.75,0.0,0.0,0.25,-0.36,-0.11,1.02,162.73,-4.3,-9.2,5.0,2.5,8.0,7.25,7.25,5.25,0.5,5.5,1.25,3.5,2.5,1.0,1.0,0.2,0.14,0.95,787.0,-7.7,26.2
0.34,0.0,0.0,0.0,0.0,0.0,0.0,0.0,0.0,0.0,0.0,0.0,0.0,0.0,-0.42,-0.36,0.95,116.89,0.0,0.0,5.0,2.5,7.5,7.25,7.25,5.25,0.5,5.75,1.5,4.25,3.25,1.25,1.25,0.2,0.14,0.89,771.19,-6.9,21.2
0.36,0.0,0.0,0.0,0.0,0.0,0.0,0.0,0.0,0.0,0.0,0.0,0.0,0.0,-0.55,-0.48,0.89,72.89,0.0,0.0,5.0,2.25,7.25,7.25,7.5,5.5,0.5,6.25,1.5,4.75,3.25,1.5,1.25,0.2,0.14,0.89,780.53,-6.1,18.8
0.38,0.0,0.0,0.0,0.0,0.0,0.0,0.0,0.0,0.0,0.0,0.0,0.0,0.0,-0.61,-0.55,0.89,30.59,0.0,0.0,4.75,2.25,6.75,6.5,7.25,5.75,0.75,6.5,2.0,5.75,4.0,1.75,1.5,0.2,0.14,0.89,807.34,-5.1,12.6
0.4,0.0,0.0,0.0,0.0,0.0,0.0,0.0,0.0,0.0,0.0,0.0,0.0,0.0,-0.8,-0.73,0.64,2.46,0.0,0.0,3.75,1.75,6.5,5.5,6.75,5.75,0.75,7.0,2.75,7.0,5.25,2.5,2.25,0.2,0.14,0.95,840.15,-3.6,1.0
0.42,0.0,0.0,0.0,0.0,0.0,0.0,0.0,0.0,0.0,0.0,0.0,0.0,0.0,-0.86,-0.92,0.14,0.0,0.0,0.0,3.0,1.5,5.25,4.75,6.75,5.25,0.5,7.75,2.75,8.0,7.0,4.0,3.25,0.2,0.14,0.95,877.17,-1.9,-11.3
0.44,0.0,0.0,0.0,0.0,0.0,0.0,1.75,1.25,0.0,0.0,0.0,0.0,0.0,-0.92,-1.36,0.14,0.0,2.9,-12.2,2.25,1.5,4.25,3.25,5.75,5.0,0.5,8.25,3.0,9.25,8.25,5.25,4.75,0.2,0.14,0.95,905.63,-0.2,-24.3
0.46,2.0,0.0,0.0,0.5,0.0,0.0,0.0,0.0,3.25,1.0,0.0,0.0,0.0,-1.98,-3.11,5.45,17.05,14.8,2.0,2.0,0.75,2.5,3.0,5.0,4.5,0.5,8.25,2.75,9.75,9.25,6.0,6.75,0.2,0.08,0.95,928.56,1.3,-35.8
0.48,5.25,0.0,6.5,2.75,0.0,0.0,3.5,5.25,3.25,0.0,0.0,0.0,0.0,1.52,0.14,2.64,144.17,19.6,31.4,1.25,0.75,0.75,2.0,4.25,3.5,0.25,8.25,2.75,10.0,9.5,6.25,8.0,0.14,0.08,0.95,931.18,3.3,-47.1
0.5,2.5,0.0,0.0,0.0,0.0,0.0,0.0,0.0,0.0,0.0,0.0,0.0,0.0,0.45,-0.36,2.7,149.81,34.9,97.9,1.0,0.5,0.0,1.75,3.5,3.0,0.0,7.5,2.0,10.5,9.75,6.75,8.25,0.08,0.14,1.02,916.22,4.1,-54.4
0.52,0.0,0.0,0.0,0.0,0.0,0.0,0.75,2.0,0.0,0.0,0.0,0.0,0.0,-0.42,0.2,2.08,137.89,-9.3,-28.7,0.0,0.5,0.0,0.5,3.0,2.5,0.0,6.75,0.5,9.0,8.25,6.25,8.25,0.08,0.14,1.14,838.19,5.9,-61.8
0.54,0.0,0.0,0.0,0.0,0.0,0.0,0.0,0.0,0.0,0.0,0.0,0.0,0.0,-0.36,0.08,1.64,76.74,0.0,0.0,0.0,0.0,0.0,0.5,4.5,1.5,0.0,4.5,0.0,8.0,7.75,5.0,8.0,0.08,0.14,1.64,729.38,5.6,-60.4
0.56,8.0,3.75,7.0,8.75,0.0,4.25,1.25,0.0,1.5,1.5,0.0,0.75,0.5,-0.42,0.14,1.64,230.02,18.2,52.7,0.0,0.0,0.0,0.5,0.5,1.75,0.0,2.75,0.0,7.0,5.25,4.5,7.0,0.2,0.27,1.64,572.68,6.5,-74.6
0.58,7.25,3.75,8.25,8.75,7.75,4.5,2.0,6.0,2.75,2.75,3.5,1.25,1.25,-0.17,-0.05,1.08,476.84,9.8,27.8,0.0,0.0,0.0,0.5,0.5,2.75,0.0,3.25,0.0,4.75,4.5,2.5,7.0,0.14,0.27,1.52,433.36,8.1,-67.1
0.6,7.0,4.0,7.75,8.5,7.75,5.0,1.5,5.25,2.25,2.0,2.5,1.25,1.25,-0.17,0.02,0.95,797.77,9.7,32.1,0.5,0.0,0.0,1.5,1.25,2.75,0.0,1.75,0.0,3.5,0.75,2.0,5.0,0.02,0.14,1.2,308.72,7.8,-45.2
0.62,6.5,3.5,7.75,8.25,7.75,4.75,1.0,5.25,1.75,1.75,2.0,1.0,1.0,-0.17,0.08,0.89,1006.78,9.7,34.2,0.75,0.75,0.0,1.75,1.75,2.75,0.0,2.0,0.0,1.5,1.5,0.0,2.25,-0.11,0.77,1.14,225.06,4.8,-7.0
0.64,6.0,2.5,7.5,8.0,7.25,5.0,0.75,5.0,1.5,2.0,1.75,1.25,1.25,-0.17,0.08,0.89,1065.12,9.0,31.1,1.0,0.5,0.0,1.5,1.25,2.75,0.0,1.5,0.0,1.25,1.0,0.75,0.5,-0.8,5.52,-0.61,144.09,2.7,2.9
0.66,5.25,2.25,7.0,7.0,7.25,4.75,0.75,5.25,1.75,2.25,2.0,1.25,1.25,-0.17,0.08,0.89,1024.08,8.1,27.1,1.0,0.5,0.0,1.5,1.25,2.5,0.25,1.5,0.0,0.75,1.0,0.75,0.5,-1.48,3.08,1.83,87.68,1.3,5.9
0.68,4.5,2.25,6.25,6.75,6.5,4.25,0.75,5.25,1.75,3.5,2.5,1.25,1.25,-0.17,0.08,0.95,952.14,7.1,21.0,0.75,0.25,0.0,1.25,1.75,2.5,0.0,1.25,0.0,0.75,1.0,0.5,0.5,-0.17,2.58,0.83,52.51,3.3,6.5
0.7,3.5,2.0,6.0,5.0,6.25,4.5,0.75,5.75,1.75,3.5,3.0,1.25,1.25,-0.17,0.02,0.95,886.24,5.5,15.4,0.75,0.5,0.0,1.25,0.5,2.25,0.0,1.0,0.0,1.0,1.0,0.75,0.5,0.27,1.64,1.33,34.22,2.0,-2.8
0.72,2.0,1.0,5.0,4.25,5.75,4.5,0.75,6.0,2.0,4.0,3.5,1.75,1.5,-0.17,0.02,0.95,807.09,3.2,3.3,1.0,0.5,0.0,1.5,1.25,1.25,0.0,1.0,0.0,1.0,0.75,0.5,0.5,0.2,1.02,1.39,33.67,-0.7,7.5
0.74,1.75,1.0,3.5,3.25,5.0,4.0,0.75,6.0,2.25,4.75,3.75,2.25,2.5,-0.17,0.02,0.95,742.13,1.1,-8.5,0.5,0.25,0.0,1.25,1.0,0.0,0.0,0.75,0.0,0.5,0.75,0.75,0.5,0.27,0.52,1.39,26.23,-3.9,-7.9
0.76,0.5,0.75,3.25,1.5,3.25,4.25,0.75,6.25,2.5,5.0,5.0,2.5,2.75,-0.17,0.02,0.95,635.93,-0.7,-23.5,0.75,0.25,0.0,1.25,1.5,0.5,0.0,1.25,0.0,0.25,1.0,0.5,0.5,0.2,0.27,1.52,39.23,-2.0,3.4
0.78,0.0,0.75,2.75,1.0,0.5,4.0,0.75,6.5,2.25,6.0,5.0,3.0,3.75,-0.17,0.02,0.95,536.27,-2.5,-39.9,0.75,0.25,0.0,1.25,1.25,0.25,0.0,1.0,0.0,0.25,1.25,0.5,0.5,0.14,0.27,1.45,49.78,-4.0,-0.6
0.8,0.0,0.75,0.5,1.0,1.5,4.25,0.75,6.75,2.25,6.25,5.75,3.5,5.0,-0.17,0.02,0.95,462.86,-5.3,-47.0,0.75,0.0,0.0,0.75,0.25,0.75,0.0,1.25,0.0,0.25,1.0,0.5,0.5,0.08,0.27,1.2,59.48,-0.6,-16.4
0.82,0.0,1.0,0.75,1.25,0.0,3.75,0.5,6.75,2.0,6.75,6.0,4.25,5.75,-0.23,0.02,0.95,450.81,-4.8,-53.4,0.75,0.0,0.0,1.25,1.5,0.5,0.0,1.25,0.0,0.25,0.75,0.5,0.0,0.2,0.2,0.95,69.97,-2.5,11.0
0.84,0.0,0.75,0.0,1.0,0.0,3.5,0.5,7.0,1.75,7.0,6.0,4.75,6.25,-0.23,0.02,0.95,474.72,-6.0,-59.7,0.75,0.0,0.0,1.25,1.5,0.25,0.0,1.0,0.0,0.75,1.0,0.5,0.0,0.27,0.08,0.95,83.01,-3.0,3.0
0.86,0.0,0.75,0.0,1.5,0.0,3.75,0.25,7.0,1.5,7.0,6.25,5.0,6.5,-0.23,0.02,0.95,503.41,-5.9,-58.7,0.5,0.0,0.0,0.5,1.0,0.75,0.25,1.25,0.0,0.5,0.25,0.5,0.0,0.2,-0.05,0.89,83.12,2.3,1.1
0.88,0.0,0.75,0.0,0.75,0.0,3.5,0.25,7.0,1.25,7.5,6.0,4.75,7.25,-0.23,0.02,0.95,525.88,-6.8,-62.6,0.75,0.25,0.0,0.75,1.0,1.25,0.0,1.0,0.0,0.25,0.5,0.5,0.5,0.14,-0.05,0.77,87.77,1.1,5.3
0.9,0.0,0.75,0.0,0.5,0.0,3.5,0.0,7.0,1.0,7.5,6.0,4.25,7.25,-0.23,0.02,1.02,535.06,-7.5,-63.3,0.5,0.0,0.0,0.75,1.25,1.75,0.0,0.75,0.0,0.25,0.5,0.5,0.0,0.08,-0.11,0.95,89.14,3.0,13.5
0.92,0.0,0.0,1.0,0.5,0.0,2.5,0.0,6.75,0.75,7.0,5.25,4.5,7.25,-0.3,0.02,1.02,528.81,-6.4,-66.0,0.5,0.0,0.0,0.75,0.5,2.0,0.0,1.25,0.0,0.25,0.5,0.5,0.5,-0.11,-0.3,1.14,93.22,5.5,-4.2
0.94,0.0,0.75,0.0,1.0,0.0,3.0,0.0,6.5,0.5,7.0,4.75,4.25,7.25,-0.3,0.02,1.08,518.03,-7.5,-62.9,0.0,0.0,0.0,0.75,1.0,0.5,0.0,1.25,0.0,0.0,0.25,0.5,0.0,-0.42,-0.42,1.2,84.27,3.4,0.5
0.96,0.0,0.75,1.5,1.0,0.0,3.25,0.0,6.0,0.75,6.5,3.75,0.0,7.25,-0.36,0.08,1.14,475.61,-7.8,-49.0,0.0,0.0,0.0,0.5,1.0,0.5,0.25,1.25,0.0,0.0,0.0,0.0,0.5,-0.98,-1.42,2.2,75.01,7.3,1.6
0.98,0.0,0.75,0.0,1.0,0.0,2.25,0.0,5.75,0.5,6.25,3.5,3.5,7.25,-0.42,0.02,1.2,447.19,-7.9,-63.7,0.0,0.0,0.0,0.5,1.0,0.5,0.0,0.5,0.0,0.25,0.0,0.5,0.0,-0.67,-1.92,2.27,62.01,3.9,4.5
1.0,0.0,0.75,0.0,1.0,0.0,0.0,0.0,5.25,0.5,5.75,2.75,2.5,6.0,-0.42,0.08,1.45,392.03,-7.2,-67.8,1.25,0.0,0.0,3.0,3.5,1.5,0.0,1.25,0.0,0.0,0.0,0.0,0.0,0.83,-3.8,3.7,95.92,-2.5,46.5
1.02,0.0,0.75,0.0,0.5,0.0,1.5,0.0,4.75,0.25,3.0,2.25,1.5,6.0,-0.42,0.08,1.64,335.54,-9.0,-61.8,3.0,1.25,2.0,7.25,5.25,2.0,0.0,0.25,0.0,0.0,0.0,0.0,0.0,0.08,2.77,0.52,187.68,-11.6,61.3
1.04,0.0,0.0,0.0,1.0,0.0,0.0,0.0,4.5,0.5,2.5,1.75,1.5,0.0,-0.36,0.14,1.52,252.76,-5.0,-52.3,5.0,3.25,0.0,10.5,7.5,5.25,0.0,2.0,0.0,0.0,0.0,0.25,0.25,-0.36,-0.11,1.33,318.58,-6.1,54.7
1.06,0.25,0.75,0.25,1.0,0.0,2.25,0.0,4.0,0.0,1.25,1.0,0.0,0.0,-0.36,0.08,1.27,181.32,-7.4,-6.9,6.0,3.0,9.25,9.25,9.5,5.75,0.0,2.5,0.0,0.0,0.0,0.0,0.0,-0.23,-0.11,1.52,526.8,-12.0,57.0
1.08,0.0,0.0,0.0,0.0,0.0,0.0,0.0,0.0,0.0,0.0,0.0,0.0,0.0,-0.11,0.33,1.08,66.68,0.0,0.0,7.5,4.25,9.5,12.0,11.0,7.0,0.5,4.0,0.25,1.25,0.0,0.5,0.0,0.27,0.14,1.7,811.71,-10.5,51.3
1.1,0.0,0.0,0.0,0.0,0.0,0.0,0.0,0.0,0.0,0.0,0.0,0.0,0.0,1.58,2.33,0.83,0.0,0.0,0.0,7.0,3.0,9.75,11.5,11.0,7.75,1.5,5.5,0.75,2.0,1.0,1.0,0.5,0.27,0.2,1.33,1067.69,-9.0,40.7
1.12,0.0,0.0,0.0,0.0,0.0,0.0,0.0,0.0,0.0,0.0,0.0,0.0,0.0,-0.17,1.77,1.02,0.0,0.0,0.0,8.25,3.25,11.0,11.5,10.5,7.25,2.75,7.0,2.0,4.25,2.75,1.75,1.25,0.14,0.08,1.2,1319.05,-9.0,29.7
1.14,0.0,0.0,0.0,0.0,0.0,0.0,0.0,0.0,0.0,0.0,0.0,0.0,0.0,-0.23,1.39,1.14,0.0,0.0,0.0,8.0,3.25,10.5,11.0,9.5,6.75,2.75,7.5,2.75,4.75,4.5,2.0,1.5,0.08,0.08,1.02,1443.06,-8.7,23.5
1.16,0.0,0.0,0.0,0.0,0.0,0.0,0.0,0.0,0.0,0.0,0.0,0.0,0.0,0.2,1.08,0.89,0.0,0.0,0.0,7.5,3.0,10.5,9.75,8.5,6.25,2.5,7.5,2.75,5.75,4.75,2.5,2.0,0.14,0.08,0.95,1505.6,-8.2,18.1
1.18,0.0,0.0,0.0,0.0,0.0,0.0,0.0,0.0,0.0,0.0,0.0,0.0,0.0,0.14,1.02,0.95,0.0,0.0,0.0,7.25,2.5,9.75,8.25,7.75,6.0,2.25,7.5,2.75,6.0,5.5,3.25,2.25,0.14,0.14,0.89,1500.03,-7.7,12.3
1.2,0.0,0.0,0.0,0.0,0.0,0.0,0.0,0.0,0.0,0.0,0.0,0.0,0.0,-0.05,0.89,1.08,0.0,0.0,0.0,6.25,1.5,9.0,6.5,6.75,5.25,2.25,7.5,3.0,6.75,6.75,4.25,3.5,0.14,0.14,0.95,1449.06,-6.5,0.4
1.22,0.0,0.0,0.0,0.0,0.0,0.0,0.0,0.0,0.0,0.0,0.0,0.0,0.0,-0.05,0.77,1.08,0.0,0.0,0.0,5.0,0.75,8.5,5.25,5.5,4.5,1.75,7.75,3.25,7.0,7.25,4.75,4.25,0.14,0.14,0.95,1355.21,-5.6,-9.0
1.24,0.0,0.0,0.0,0.0,0.0,0.0,0.0,0.0,0.0,0.0,0.0,0.0,0.0,-0.11,0.7,1.08,0.0,0.0,0.0,3.75,0.75,7.5,3.25,4.75,4.0,1.75,7.5,3.0,7.75,7.75,5.5,5.5,0.08,0.14,0.95,1215.86,-4.0,-19.9
1.26,0.0,0.0,0.0,0.0,0.0,0.0,0.0,0.0,0.0,0.0,0.0,0.0,0.0,-0.36,0.64,1.14,0.0,0.0,0.0,2.0,0.75,5.0,1.75,3.25,3.0,1.0,7.25,2.75,8.0,8.25,6.25,6.25,0.08,0.14,1.02,1038.24,-1.4,-36.0
1.28,0.0,0.0,0.0,0.0,0.0,0.0,0.0,0.0,0.0,0.0,0.0,0.0,0.0,-0.42,0.58,1.27,0.0,0.0,0.0,0.75,0.0,2.25,0.5,1.75,1.75,0.75,6.25,2.0,7.75,7.75,6.75,7.0,-0.05,0.14,1.14,850.14,1.5,-57.4
1.3,0.0,0.0,0.0,0.0,0.0,0.0,0.25,0.0,0.0,0.0,0.0,0.0,0.0,-0.48,0.52,1.2,0.0,32.4,27.3,0.5,0.0,0.0,0.5,0.5,0.5,0.0,4.25,1.25,8.0,8.0,6.75,8.0,0.08,0.08,1.2,680.36,3.6,-76.4
1.32,0.0,0.0,0.0,0.0,0.0,0.0,0.25,0.0,0.0,0.0,0.0,0.0,0.0,-0.48,0.52,1.08,1.38,32.4,27.3,0.0,0.0,0.0,0.5,0.25,0.5,0.0,2.75,0.75,8.0,8.0,7.75,8.5,-0.11,0.02,1.02,561.64,3.6,-83.0
1.34,0.0,0.0,0.0,0.0,0.0,0.0,0.0,0.0,0.0,0.0,0.0,0.0,0.0,-0.61,0.39,1.27,1.28,0.0,0.0,2.75,0.0,0.0,0.5,0.0,0.5,0.0,2.0,0.75,7.75,8.0,7.75,8.75,-0.05,-0.05,0.95,499.55,0.7,-73.0
1.36,0.0,0.0,0.0,0.0,0.0,0.0,0.0,0.0,0.0,0.0,0.0,0.0,0.0,-0.61,0.27,1.39,0.92,0.0,0.0,0.0,0.0,0.0,0.5,0.25,0.5,0.0,1.25,0.25,7.75,8.0,8.5,9.5,-0.05,-0.05,1.02,467.47,3.2,-86.8
1.38,0.0,0.0,0.0,0.0,0.0,0.0,0.0,0.0,0.0,0.0,0.0,0.0,0.0,-0.8,0.08,1.27,0.46,0.0,0.0,0.0,0.0,0.0,0.5,0.25,0.5,0.0,0.0,0.25,7.75,8.25,10.5,10.0,-0.05,-0.11,0.83,476.8,2.1,-89.8
1.4,0.0,0.0,0.0,0.0,0.0,0.0,0.0,0.0,0.0,0.0,0.0,0.0,0.0,-7.8,-7.98,3.58,0.15,0.0,0.0,1.25,0.5,0.5,1.75,1.25,2.25,0.0,0.75,0.75,8.25,9.0,10.5,13.0,-0.05,-0.11,0.89,558.72,1.6,-70.2
1.42,0.0,0.0,0.0,0.0,0.0,0.0,0.0,0.0,0.0,0.0,0.0,0.0,0.0,-1.67,-4.73,-2.23,0.0,0.0,0.0,1.0,0.5,0.0,1.75,0.25,2.0,0.0,0.0,0.75,8.0,8.5,10.5,13.0,-0.05,-0.17,1.02,624.14,1.9,-76.6
1.44,0.0,0.0,0.0,0.0,0.0,0.0,0.0,0.0,0.5,3.0,0.0,0.0,2.0,0.14,7.77,2.7,34.71,-12.4,-84.9,0.0,0.0,0.0,0.5,1.75,0.5,0.0,0.0,0.0,6.5,8.0,7.75,12.5,-0.05,-0.17,1.02,631.93,3.5,-84.0
1.46,0.25,0.0,1.0,1.0,0.0,0.0,0.0,3.75,0.75,5.0,5.0,3.5,5.0,-0.86,-0.17,1.52,168.39,-2.1,-68.0,0.0,0.0,0.0,0.5,0.0,0.5,0.0,0.0,0.0,5.0,6.25,6.75,8.75,0.02,-0.11,1.39,550.78,2.8,-90.5
1.48,0.25,0.0,0.5,1.0,0.0,0.0,0.0,4.5,0.75,4.5,5.0,2.75,5.0,-0.05,-0.11,0.95,266.49,-3.5,-68.4,0.0,0.0,0.0,0.5,0.0,0.25,0.0,0.0,0.0,0.75,3.5,4.5,7.5,0.2,0.02,1.27,405.48,2.1,-94.4
1.5,0.25,0.0,0.0,1.0,0.0,0.0,0.0,4.5,1.0,5.0,3.5,3.5,5.75,-0.42,-0.05,0.64,349.38,-5.2,-73.1,0.0,0.0,0.0,0.5,0.0,0.25,0.0,0.0,0.0,0.25,1.5,3.25,5.5,0.08,-0.11,1.27,280.81,2.9,-94.0
1.52,0.25,0.75,1.5,0.5,0.0,0.0,0.0,5.25,0.75,5.0,3.75,3.25,5.0,-0.11,0.02,1.02,398.15,-2.8,-60.6,0.0,0.0,0.0,0.5,0.0,0.5,0.0,0.0,0.0,0.25,0.75,2.0,3.5,1.02,2.95,0.08,178.95,3.9,-84.8
1.54,0.0,0.75,0.0,0.5,0.0,0.0,0.0,5.75,0.75,5.75,4.0,3.5,5.75,-0.36,0.08,0.95,435.37,-6.2,-71.0,0.0,0.0,0.0,0.25,0.0,0.5,0.0,0.0,0.0,0.25,0.25,1.75,2.25,1.83,2.2,1.52,87.84,4.5,-85.5
1.56,0.0,0.75,1.0,0.25,0.0,0.0,0.0,5.75,0.5,5.0,3.5,3.0,5.75,-0.17,0.02,1.08,438.17,-5.2,-66.3,0.0,0.0,0.0,0.5,0.0,0.25,0.0,0.0,0.0,0.0,0.25,1.5,2.25,0.14,2.2,1.02,19.01,2.5,-82.8
1.58,0.25,0.75,0.5,0.5,0.0,0.0,0.0,5.5,0.25,4.75,3.25,3.0,5.0,-0.23,0.02,0.95,428.67,-5.3,-65.1,0.0,0.0,0.0,0.75,0.0,2.25,0.0,0.0,0.0,1.25,0.0,1.25,2.25,-0.11,0.95,1.08,0.0,9.7,-47.6
1.6,0.25,0.75,1.25,0.25,0.0,0.0,0.0,5.25,0.5,5.0,2.75,2.5,5.0,-0.3,0.02,0.83,410.59,-4.6,-61.3,0.0,0.0,0.0,0.25,0.5,0.25,0.0,0.0,0.0,0.0,0.0,1.0,2.25,-0.36,0.58,0.64,0.0,5.8,-70.5
1.62,0.25,0.75,1.25,0.25,0.0,0.0,0.0,5.25,0.5,5.0,2.75,2.5,5.0,-0.17,0.02,1.33,389.45,-4.6,-61.3,0.75,0.0,0.0,0.25,0.0,0.5,0.0,0.0,0.0,1.25,0.0,1.75,1.75,-0.36,0.33,0.39,0.0,1.7,-61.6
1.64,0.25,0.75,1.25,0.25,0.0,0.0,0.0,5.25,0.5,5.0,2.25,2.5,5.75,-0.42,-0.17,0.7,372.76,-5.2,-62.6,0.0,0.0,0.0,0.0,0.0,0.25,0.0,0.0,0.0,0.0,0.0,2.0,2.25,-0.11,0.2,0.08,0.0,4.2,-102.4
1.66,0.0,0.75,0.5,0.25,0.0,2.0,0.0,5.25,0.5,5.0,2.25,2.5,5.75,-0.3,0.08,0.7,360.48,-8.2,-60.6,0.75,0.0,0.0,0.75,0.0,1.5,0.0,0.0,0.0,0.0,0.25,2.5,3.0,-2.48,-7.17,-4.11,14.2,1.3,-53.7
1.68,0.25,0.75,1.25,0.5,0.0,0.0,0.0,6.0,0.5,6.0,2.5,1.25,6.0,-0.42,-0.17,0.7,348.04,-6.3,-59.4,0.5,0.0,0.0,1.0,0.5,0.5,0.0,0.5,0.0,0.0,2.5,2.0,3.5,-2.73,-0.3,-0.98,69.91,-0.6,-59.8
1.7,0.0,0.75,1.25,0.25,0.0,0.0,0.0,6.25,0.25,5.5,2.5,0.0,6.0,-0.48,0.08,1.08,325.91,-7.9,-59.2,1.0,0.0,0.0,0.75,0.25,2.0,0.0,0.0,0.0,0.5,2.25,2.25,4.0,-0.61,-0.05,0.89,130.37,1.4,-52.8
1.72,0.0,0.75,0.75,0.0,0.0,0.0,0.0,6.25,0.0,5.0,2.5,0.0,6.0,-0.48,-0.05,0.83,312.85,-9.4,-63.4,0.5,0.0,0.0,0.5,0.0,0.5,0.0,1.25,0.0,5.75,4.5,5.75,6.0,-0.48,-1.23,2.52,232.55,3.3,-81.9
1.74,0.25,0.75,1.25,0.0,0.0,0.0,0.0,6.5,0.0,6.0,1.25,2.25,5.0,-0.55,-0.11,0.7,307.67,-7.4,-61.1,0.75,0.0,0.0,0.5,0.0,0.5,0.0,0.75,0.75,4.75,4.0,5.5,6.5,-1.55,0.39,2.89,298.13,2.3,-80.5
1.76,0.0,0.75,0.0,0.0,0.0,0.0,0.0,6.75,0.0,6.0,0.0,1.25,4.25,-0.61,-0.11,0.7,290.36,-12.8,-65.6,0.75,0.0,0.0,1.75,1.0,3.0,0.25,0.75,0.75,4.75,5.5,6.0,6.0,-0.11,-0.67,-2.17,384.22,2.0,-59.8
1.78,0.25,0.75,0.0,0.0,0.0,0.0,0.0,7.0,0.25,6.0,0.0,0.0,3.75,-0.61,-0.05,0.77,274.03,-13.4,-58.4,0.75,0.0,0.75,1.5,0.5,2.0,0.0,0.0,0.75,4.75,6.5,6.25,6.0,1.02,0.27,2.39,439.93,-0.3,-64.7
1.8,0.0,0.5,0.0,0.0,0.0,0.0,0.0,7.25,0.5,5.0,1.0,1.25,0.0,-0.48,0.2,1.02,248.34,-10.7,-54.0,0.75,0.0,2.0,2.0,1.0,1.75,0.0,0.0,0.75,5.25,7.5,7.25,6.5,-0.36,0.02,0.58,508.04,-2.1,-59.3
1.82,0.0,0.0,0.0,0.0,0.0,0.0,0.0,7.0,0.5,4.5,2.0,1.25,0.0,-0.67,0.08,0.95,227.95,-9.9,-60.1,1.0,0.0,1.75,1.75,1.0,1.75,0.0,0.0,0.75,4.0,7.75,7.75,7.0,-0.36,-0.11,0.89,543.48,-2.5,-61.0
1.84,0.0,0.0,0.0,0.0,0.0,0.0,0.0,0.0,0.25,3.75,1.25,1.25,0.0,-0.8,-0.17,0.83,172.2,-4.9,-80.7,0.0,0.0,2.5,0.5,0.0,0.5,0.0,0.0,0.75,5.75,7.5,8.5,6.75,-0.11,0.14,1.02,570.89,-2.2,-76.3
1.86,0.0,0.25,0.0,0.0,0.0,0.0,0.0,0.0,0.0,0.0,1.25,1.25,1.25,-0.55,0.14,0.45,112.97,2.4,-86.0,0.0,0.0,2.0,1.25,0.0,0.5,0.0,0.0,0.75,4.75,8.0,7.75,7.0,-0.55,0.02,0.95,568.68,-2.4,-74.8
1.88,0.0,0.0,0.0,0.0,0.0,0.0,0.0,0.0,0.0,3.5,1.0,1.25,0.0,-0.61,0.27,0.77,68.39,-5.8,-82.9,1.25,0.0,0.75,1.5,0.5,0.25,0.5,0.0,0.75,6.0,8.75,9.25,7.0,-0.3,0.08,1.2,583.69,-2.4,-72.5
1.9,0.0,0.0,0.0,0.0,0.0,0.0,0.0,0.0,0.5,2.25,1.0,0.75,1.25,-1.67,0.33,0.89,46.17,-5.2,-84.4,1.25,0.0,2.75,3.25,0.0,0.5,0.0,0.0,0.75,5.75,9.0,9.5,8.0,-0.36,0.02,1.02,611.4,-4.4,-62.8
1.92,0.0,0.0,0.0,0.0,0.0,0.0,0.0,5.25,0.25,0.0,1.0,0.25,0.0,-2.67,0.33,0.7,43.61,-10.8,-46.7,1.25,0.0,2.0,3.25,0.5,1.0,0.5,0.0,0.75,5.75,9.5,9.5,8.0,-0.11,0.02,1.08,644.28,-3.6,-62.0
1.94,0.0,0.75,0.0,0.0,0.0,0.0,0.0,4.5,0.0,0.0,0.0,0.0,1.0,-2.86,0.52,0.89,47.98,-12.6,-33.4,3.0,0.25,2.5,3.25,0.0,0.5,0.0,0.0,0.75,5.75,9.5,9.5,8.25,0.08,0.02,1.2,670.25,-5.4,-56.9
1.96,0.0,0.0,0.0,0.0,0.0,0.0,0.0,3.0,0.0,0.0,0.0,0.0,0.0,-1.86,1.58,2.89,35.49,-16.7,-38.8,0.75,0.0,2.0,3.0,0.25,0.5,0.0,0.0,0.75,5.75,9.0,9.0,8.0,0.08,-0.11,1.2,656.46,-3.2,-66.6
1.98,0.0,0.0,0.0,0.0,0.0,0.0,0.0,0.0,0.0,0.0,0.0,0.0,0.0,1.77,1.02,1.45,4.21,0.0,0.0,0.0,0.0,2.5,1.25,0.25,0.5,0.75,0.0,0.25,5.75,7.5,7.75,7.0,0.2,-0.23,0.95,607.01,-2.4,-71.0
2.0,0.0,0.0,0.0,0.0,0.0,0.0,0.0,0.0,0.0,0.0,0.0,0.0,0.0,1.58,0.27,1.45,0.0,0.0,0.0,1.0,0.0,1.25,3.0,1.0,0.5,0.0,0.0,0.0,3.75,7.5,6.5,7.0,-0.36,-0.67,1.02,536.39,-3.1,-60.0
2.02,0.0,0.0,0.0,0.0,0.0,0.0,0.5,0.0,0.0,0.0,0.0,0.0,0.0,-0.17,0.45,0.39,0.0,32.4,27.3,0.75,0.0,0.25,2.5,0.0,0.5,0.25,0.0,0.0,3.25,5.25,5.5,0.0,-0.67,-1.55,1.83,400.14,-6.9,-54.2
2.04,0.0,0.0,0.0,0.0,0.0,0.0,3.0,3.25,0.0,0.0,0.0,0.0,0.0,-1.17,0.39,0.14,0.0,-1.7,-18.4,0.75,0.0,0.0,2.0,0.0,1.75,0.0,0.0,0.0,0.5,3.75,3.5,4.0,-0.8,-1.92,2.2,300.92,-1.7,-55.6
2.06,0.0,0.0,0.0,0.0,0.0,0.0,0.5,0.0,0.0,0.0,0.0,0.0,0.0,-2.05,0.14,0.08,0.0,32.4,27.3,0.75,0.0,0.25,1.75,0.5,1.75,0.0,0.0,0.0,0.0,2.5,2.0,3.5,-0.67,-2.73,2.52,222.17,-1.5,-39.8
2.08,0.0,0.0,0.0,0.0,0.0,0.0,2.25,1.5,0.0,0.0,0.0,0.0,0.0,-2.42,-0.17,0.02,18.39,3.7,-11.1,0.5,0.0,0.0,1.75,0.5,1.5,0.0,0.0,0.0,0.25,2.0,2.0,2.25,-0.17,-1.55,1.77,156.83,-1.5,-37.7
2.1,0.0,0.0,0.0,0.0,0.0,0.0,0.5,0.0,0.0,0.0,0.0,0.0,0.0,-1.67,-0.17,0.33,8.44,32.4,27.3,0.75,0.0,0.0,1.75,1.0,1.25,0.0,0.0,0.0,0.25,1.75,2.0,2.25,-0.55,-1.3,2.27,107.44,-2.2,-30.8
2.12,0.0,0.0,0.0,0.0,0.0,0.0,0.0,0.0,0.0,0.0,0.0,0.0,0.0,-0.86,-0.11,0.7,0.09,0.0,0.0,0.5,0.0,0.0,1.75,1.25,1.0,0.0,0.0,0.0,0.75,1.5,2.0,2.25,-0.98,-0.67,2.45,81.93,-1.0,-33.7
2.14,0.0,0.0,0.0,0.0,0.0,0.0,0.0,0.0,0.0,0.0,0.0,0.0,0.0,-0.36,0.08,0.7,0.0,0.0,0.0,0.75,0.0,0.0,1.5,0.5,1.75,0.0,0.0,0.0,0.25,1.25,1.75,2.25,-1.23,-0.11,2.2,65.88,-0.4,-30.8
2.16,0.0,0.0,0.0,0.0,0.0,0.0,0.0,0.0,0.0,0.0,0.0,0.0,0.0,-0.23,-0.17,0.83,0.0,0.0,0.0,0.75,0.0,0.0,1.75,0.5,1.5,0.0,0.0,0.0,0.25,1.0,1.75,2.25,-1.36,0.08,2.2,60.73,-1.2,-28.9
2.18,0.0,0.0,0.0,0.0,0.0,0.0,0.0,0.0,0.0,0.0,0.0,0.0,0.0,-0.48,-0.42,0.83,0.0,0.0,0.0,0.75,0.0,0.0,1.5,1.0,2.0,0.0,0.0,0.0,0.25,1.0,1.75,2.25,-1.17,0.33,1.83,69.26,0.4,-23.7
2.2,0.0,0.0,0.0,0.0,0.0,0.0,0.0,0.0,0.0,0.0,0.0,0.0,0.0,-0.67,-0.48,0.64,0.0,0.0,0.0,0.5,0.0,0.0,1.75,0.5,1.75,0.0,0.0,0.0,0.25,1.0,1.75,2.25,-0.73,0.39,1.33,81.33,0.1,-30.4
2.22,0.0,0.0,0.0,0.0,0.0,0.0,0.0,0.0,0.0,0.0,0.0,0.0,0.0,-0.92,-0.48,0.52,0.0,0.0,0.0,0.75,0.0,0.0,1.25,1.0,1.5,0.0,0.0,0.0,0.25,1.0,1.75,2.25,-0.36,0.33,1.02,96.91,-0.1,-28.7
2.24,0.0,0.0,0.0,0.0,0.0,0.0,0.0,0.0,0.0,0.0,0.0,0.0,0.0,-1.3,-0.8,0.39,0.0,0.0,0.0,0.75,0.0,0.0,1.5,0.5,1.5,0.0,0.0,0.0,0.25,1.0,1.75,2.25,-0.05,0.08,0.83,110.08,-0.7,-31.3
2.26,0.0,0.0,0.0,0.0,0.0,0.0,0.0,0.0,0.0,0.0,0.0,0.0,0.0,-1.42,-0.98,0.33,0.0,0.0,0.0,0.75,0.0,0.0,1.25,1.0,1.5,0.0,0.0,0.0,0.25,0.75,1.75,2.5,0.27,-0.23,0.58,126.39,0.5,-29.6
2.28,0.0,0.0,0.0,0.0,0.0,0.0,2.5,0.25,1.25,0.0,0.0,0.0,0.0,-1.48,-0.98,0.2,8.62,18.5,-9.1,0.75,0.0,0.0,1.25,0.5,1.25,0.0,0.0,0.0,0.25,2.0,1.75,2.5,0.39,-0.3,0.33,134.65,-1.4,-41.2
2.3,1.75,0.0,0.0,0.0,0.0,0.0,1.5,2.75,2.75,0.0,0.0,0.0,0.0,-1.42,-0.86,0.14,54.26,8.6,-4.0,0.5,0.0,0.0,1.25,1.25,1.5,0.0,0.0,0.0,0.25,0.75,1.75,2.25,0.45,-0.36,0.02,138.86,1.1,-28.1
2.32,0.25,0.0,0.0,0.0,0.0,0.0,4.0,5.25,0.0,0.0,0.0,0.0,0.0,-1.3,-0.73,0.27,87.99,-2.4,-17.3,0.5,0.0,0.0,1.25,1.0,1.5,0.0,0.0,0.0,0.25,1.25,1.75,2.0,0.52,-0.17,0.45,140.22,0.0,-30.7
2.34,0.0,0.0,0.0,0.0,0.0,0.0,0.0,0.0,2.75,0.0,0.0,0.0,0.0,-1.23,-0.73,0.45,92.63,12.1,-38.5,0.75,0.0,0.0,1.25,0.5,1.75,0.0,0.0,0.0,0.25,1.0,1.75,2.0,-0.11,-0.17,-0.61,136.76,-0.1,-29.9
2.36,0.0,0.0,0.0,0.0,0.0,0.0,4.75,4.75,1.5,0.0,0.0,0.0,0.0,-1.36,-0.8,0.45,111.11,1.4,-21.0,0.75,0.0,0.0,1.0,0.5,1.75,0.0,0.0,0.0,0.25,1.0,1.75,1.75,0.2,-0.98,0.2,132.33,0.0,-30.2
2.38,0.0,0.0,0.0,0.0,0.0,0.0,3.75,3.25,0.25,0.0,0.0,0.0,0.0,-1.36,-0.73,0.33,106.41,1.2,-16.3,0.75,0.0,0.0,1.25,0.5,1.5,0.0,0.0,0.0,0.25,1.0,1.75,1.5,0.27,-0.92,-0.05,127.31,-1.5,-26.9
2.4,0.0,0.0,0.0,0.0,0.0,0.0,4.0,5.0,1.25,0.0,0.0,0.0,0.0,-1.36,-0.73,0.2,119.02,-0.8,-23.2,0.75,0.0,0.0,1.0,1.0,1.5,0.0,0.0,0.0,0.25,1.0,1.5,1.75,0.14,-0.8,-0.42,125.06,-0.1,-24.2
2.42,0.0,0.0,0.0,0.0,0.0,0.0,4.0,4.75,1.75,0.0,0.0,0.0,0.0,-1.17,-0.67,0.33,126.42,0.4,-23.6,0.75,0.0,0.0,0.75,0.5,1.25,0.0,0.0,0.0,0.25,1.0,1.75,1.75,0.08,-0.92,-0.36,120.85,-0.8,-36.9
2.44,0.75,0.0,0.0,0.0,0.0,0.0,4.75,5.5,2.5,0.0,0.0,0.0,0.0,-1.11,-0.61,0.45,149.57,3.2,-16.2,0.75,0.0,0.0,1.0,1.0,1.25,0.0,0.0,0.0,0.25,1.0,1.5,1.5,-0.11,-0.86,-0.36,119.59,-1.2,-23.2
2.46,1.5,0.0,0.0,0.0,0.0,0.0,5.0,5.5,2.5,0.0,0.0,0.0,0.0,-1.11,-0.48,0.52,165.93,5.4,-8.9,0.5,0.0,0.0,1.0,0.0,1.75,0.0,0.0,0.0,0.25,1.0,1.25,1.25,-0.23,-0.86,-0.36,111.32,0.5,-29.9
2.48,1.75,0.0,0.0,0.0,0.0,0.0,5.0,5.75,2.5,0.0,0.0,0.0,0.0,-0.98,-0.36,0.39,182.06,5.5,-7.5,0.5,0.0,0.0,1.25,1.0,1.5,0.0,0.0,0.0,0.25,1.0,1.5,1.5,-0.3,-0.86,-0.11,112.87,-0.1,-22.5
2.5,1.75,0.0,0.0,0.0,0.0,0.0,5.0,5.75,2.5,0.0,0.0,0.0,0.0,-0.86,-0.36,0.33,189.94,5.5,-7.5,0.5,0.0,0.0,0.75,0.5,1.75,0.0,0.0,0.0,0.25,1.0,1.5,1.25,-0.3,-0.92,0.14,108.66,1.0,-29.2
2.52,0.0,0.0,0.0,0.0,0.0,0.0,0.0,0.0,0.0,0.0,0.0,0.0,0.0,-0.8,-0.23,0.39,135.71,0.0,0.0,0.5,0.0,0.0,1.0,0.5,1.75,0.0,0.0,0.0,0.25,1.0,1.25,1.25,-0.3,-0.67,-0.17,108.23,0.7,-23.5
2.54,2.75,0.0,0.0,0.5,0.0,0.0,0.0,0.0,2.25,0.0,0.0,0.0,0.0,-0.86,-0.11,0.39,107.4,23.7,36.9,0.5,0.0,0.0,1.0,0.0,1.75,0.0,0.0,0.0,0.25,1.0,1.25,1.25,-0.36,-0.55,-0.3,104.17,0.5,-29.9
2.56,0.0,0.0,0.0,0.0,0.0,0.0,4.75,0.0,0.0,0.0,0.0,0.0,0.0,-0.92,-0.05,0.39,65.8,32.4,27.3,0.5,0.0,0.0,0.75,1.0,1.5,0.0,0.0,0.0,0.25,1.0,1.25,1.25,-0.36,-0.48,-0.3,104.86,0.8,-22.2
2.58,0.0,0.0,0.0,0.0,0.0,0.0,0.0,0.0,0.0,0.0,0.0,0.0,0.0,-0.98,-0.05,0.39,35.21,0.0,0.0,0.5,0.0,0.25,0.75,1.25,1.75,0.0,0.0,0.0,0.25,1.0,1.5,1.25,-0.36,-0.48,-0.23,110.48,0.0,-18.1
2.6,0.0,0.0,0.0,0.0,0.0,0.0,0.0,0.0,0.0,0.0,0.0,0.0,0.0,-1.05,-0.05,0.2,0.66,0.0,0.0,0.75,0.0,0.0,1.0,1.0,1.75,0.0,0.0,0.0,0.25,0.75,1.25,1.25,-0.3,-0.67,0.08,115.31,0.2,-12.9
2.62,1.75,0.0,0.0,0.0,0.0,0.0,0.0,0.0,1.5,0.0,0.0,0.0,0.0,-1.11,-0.3,0.02,5.77,24.1,33.0,0.75,0.0,0.0,0.75,0.5,1.5,0.0,0.0,0.0,0.25,1.0,1.25,1.25,-0.36,-0.73,-0.11,114.39,-0.5,-24.4
2.64,0.0,0.0,0.0,0.0,0.0,0.0,0.0,0.0,0.0,0.0,0.0,0.0,0.0,-1.05,-0.36,0.08,0.0,0.0,0.0,0.5,0.0,0.0,0.75,1.0,1.25,0.0,0.0,0.0,0.25,0.5,1.25,1.25,-0.42,-0.55,-0.36,109.56,0.9,-20.4
2.66,0.0,0.0,0.0,0.0,0.0,0.0,5.0,5.5,0.75,0.0,0.0,0.0,0.0,-0.98,-0.36,-0.17,29.27,-0.6,-20.4,0.5,0.0,0.0,0.75,0.5,1.5,0.0,0.0,0.0,0.25,0.75,1.25,1.25,-0.3,-0.55,-0.3,104.1,1.0,-26.8
2.68,0.0,0.0,0.0,0.0,0.0,0.0,4.25,5.5,1.5,0.0,0.0,0.0,0.0,-0.86,-0.55,-0.3,65.64,-0.9,-23.8,0.5,0.0,0.0,0.75,0.25,1.5,0.0,0.0,0.0,0.25,0.75,1.25,1.25,-0.17,-0.61,-0.3,98.62,0.9,-30.4
2.7,0.0,0.0,0.0,0.0,0.0,0.0,4.0,5.25,1.5,0.0,0.0,0.0,0.0,-0.67,-0.55,-0.23,101.22,-0.9,-24.0,0.5,0.0,0.0,0.75,1.0,1.75,0.0,0.0,0.0,0.25,0.75,1.0,1.25,-0.17,-0.73,-0.3,100.47,2.2,-15.6
2.72,0.0,0.0,0.0,0.0,0.0,0.0,0.0,1.5,0.0,0.0,0.25,0.0,0.0,-0.55,-0.42,-0.17,87.17,-12.9,-43.9,0.75,0.0,0.0,0.75,0.5,1.25,0.0,0.0,0.0,0.25,0.75,1.5,1.25,-0.36,-0.73,-0.36,100.23,-1.2,-27.6
2.74,0.0,0.0,0.0,0.0,0.0,0.0,0.0,4.25,0.0,0.0,0.0,0.0,0.0,-0.42,-0.36,-0.17,84.45,-16.7,-38.7,0.5,0.0,0.0,1.0,1.0,1.25,0.0,0.0,0.0,0.25,1.0,1.0,1.25,-0.36,-0.67,-0.23,104.3,-0.1,-18.2
2.76,0.0,0.0,0.0,0.0,0.0,0.0,0.0,1.25,0.0,0.0,0.0,0.0,0.0,-0.36,-0.23,-0.23,60.55,-16.7,-38.8,0.75,0.0,0.0,0.5,1.0,1.5,0.0,0.0,0.0,0.25,0.75,1.25,1.25,-0.42,-0.67,-0.17,105.53,0.7,-19.5
2.78,0.0,0.0,0.0,0.0,0.0,0.0,0.0,1.0,0.0,0.0,0.0,0.0,0.0,-0.3,-0.05,-0.23,37.84,-16.7,-38.7,0.5,0.0,0.0,0.75,0.5,1.75,0.0,0.0,0.0,0.25,0.75,1.0,1.25,-0.36,-0.73,-0.11,104.17,2.1,-21.6
2.8,0.0,0.0,0.0,0.0,0.0,0.0,0.0,1.0,0.0,0.0,0.0,0.0,0.0,-0.23,0.08,-0.36,25.04,-16.7,-38.7,0.75,0.0,0.0,1.0,0.25,1.5,0.0,0.0,0.0,0.25,0.75,1.0,1.5,-0.48,-0.73,-0.23,102.2,-0.1,-22.9
2.82,0.0,0.0,0.25,0.0,0.0,0.0,0.0,0.75,0.0,0.0,0.0,0.0,0.0,-0.17,0.08,-0.42,18.8,-2.7,-13.2,0.5,0.25,0.0,0.75,0.5,1.75,0.0,0.0,0.0,0.25,0.75,1.25,1.25,-0.61,-0.73,-0.23,102.7,1.2,-20.3
2.84,0.0,0.0,0.0,0.0,0.0,0.0,0.0,1.25,0.0,0.0,0.0,0.0,0.0,-0.23,0.02,-0.3,11.37,-16.7,-38.8,0.5,0.0,0.0,1.0,1.0,1.75,0.0,0.0,0.0,0.25,1.0,1.0,1.25,-0.48,-0.73,-0.23,108.24,1.2,-15.0
2.86,0.0,0.0,0.0,0.0,0.0,0.0,0.0,1.25,0.0,0.0,0.0,0.0,0.0,-0.23,-0.11,-0.3,6.4,-16.7,-38.8,0.5,0.0,0.0,1.0,1.0,1.75,0.0,0.0,0.0,0.25,0.75,1.25,1.25,-0.36,-0.73,-0.23,113.19,1.2,-16.2
2.88,0.0,0.0,0.0,0.0,0.0,0.0,0.0,1.25,0.0,0.0,0.0,0.0,0.0,-0.23,-0.36,-0.36,6.13,-16.7,-38.8,0.5,0.0,0.0,1.0,0.25,1.75,0.0,0.0,0.0,0.25,1.0,1.25,1.25,-0.23,-0.67,-0.23,113.28,0.6,-26.6
2.9,0.0,0.0,0.0,0.0,0.0,0.0,0.0,1.25,0.0,0.0,0.0,0.0,0.0,-0.3,-0.42,-0.23,0.97,-16.7,-38.8,0.25,0.0,0.25,1.25,1.0,1.25,0.0,0.0,0.0,0.25,1.0,1.0,1.25,-0.11,-0.73,-0.17,114.05,-0.9,-16.5
2.92,0.0,0.0,0.0,0.0,0.0,0.0,0.0,1.25,0.0,0.0,0.0,0.0,0.0,-0.3,-0.48,-0.23,5.3,-16.7,-38.8,0.5,0.0,0.0,0.75,1.0,1.25,0.0,0.0,0.0,0.25,0.75,1.25,1.25,-0.05,-0.73,-0.17,110.75,0.5,-22.3
2.94,0.0,0.0,0.0,0.0,0.0,0.0,0.0,1.25,0.0,0.0,0.0,0.0,0.0,-0.23,-0.55,-0.3,10.89,-16.7,-38.8,0.75,0.0,0.0,0.75,0.5,1.5,0.0,0.0,0.0,0.25,1.0,1.0,1.25,0.02,-0.73,-0.23,107.7,-0.2,-21.3
2.96,0.0,0.0,0.0,0.0,0.0,0.0,0.0,1.25,0.0,0.0,0.0,0.0,0.0,-0.23,-0.61,-0.3,17.27,-16.7,-38.8,0.5,0.0,0.0,0.75,0.0,1.25,0.0,0.0,0.0,0.25,0.25,1.0,1.25,0.02,-0.8,-0.17,96.61,1.3,-30.0
2.98,0.0,0.0,0.0,0.0,0.0,0.0,0.0,1.5,0.0,0.0,0.0,0.0,0.0,-0.3,-0.67,-0.23,18.83,-16.7,-38.8,0.5,0.25,0.0,1.0,1.0,1.75,0.0,0.0,0.0,0.25,0.75,1.0,1.25,0.08,-0.86,-0.11,100.91,1.1,-9.4
3.0,0.0,0.0,0.0,0.0,0.0,0.0,0.0,1.25,0.0,0.0,0.0,0.0,0.0,-0.3,-0.67,-0.23,21.68,-16.7,-38.8,0.5,0.0,0.0,0.75,1.0,1.25,0.0,0.0,0.0,0.25,0.75,1.0,1.25,0.08,-0.92,-0.17,99.83,0.8,-19.1
3.02,0.0,0.0,0.0,0.0,0.0,0.0,0.0,1.5,0.0,0.0,0.0,0.0,0.0,-0.3,-0.73,-0.17,23.08,-16.7,-38.8,0.75,0.0,0.0,0.5,1.0,1.25,0.0,0.0,0.0,0.25,1.0,1.0,1.25,0.08,-0.92,-0.11,103.51,0.0,-20.0
3.04,0.0,0.0,0.0,0.0,0.0,0.0,0.0,1.25,0.0,0.0,0.0,0.0,0.0,-0.3,-0.8,-0.17,22.23,-16.7,-38.8,0.75,0.0,0.0,0.5,0.5,1.25,0.0,0.0,0.0,0.25,0.75,1.0,1.25,0.02,-0.92,-0.11,98.92,0.0,-24.7
3.06,0.0,0.0,0.0,0.0,0.0,0.0,0.0,1.5,0.0,0.0,0.0,0.0,0.0,-0.3,-0.8,-0.17,23.02,-16.7,-38.8,0.5,0.0,0.0,1.0,0.5,1.25,0.0,0.0,0.0,0.25,0.5,1.0,1.25,0.08,-0.98,-0.17,96.29,0.3,-20.4
3.08,0.0,0.0,0.0,0.0,0.0,0.0,0.0,1.75,0.0,0.0,0.0,0.0,0.0,-0.36,-0.8,-0.11,24.55,-16.7,-38.7,0.5,0.0,0.0,0.75,0.5,1.5,0.0,0.0,0.0,0.25,0.75,1.0,1.25,0.08,-1.05,-0.11,92.99,1.4,-23.6
3.1,0.0,0.0,0.0,0.0,0.0,0.0,0.0,1.25,0.0,0.0,0.0,0.0,0.0,-0.42,-0.8,-0.05,23.96,-16.7,-38.8,0.5,0.0,0.0,0.75,0.25,1.75,0.0,0.0,0.0,0.25,0.25,1.0,1.25,0.08,-1.05,-0.11,90.59,3.1,-20.9
3.12,0.0,0.0,0.0,0.0,0.0,0.0,0.0,0.75,0.0,0.0,0.0,0.0,0.0,-0.42,-0.8,-0.05,20.12,-16.7,-38.8,0.5,0.0,0.0,0.5,1.0,1.25,0.0,0.0,0.0,0.25,1.0,1.0,1.25,0.08,-1.05,-0.05,93.52,1.1,-24.0
3.14,0.0,0.0,0.0,0.0,0.0,0.0,0.0,1.25,0.0,0.0,0.0,0.0,0.0,-0.42,-0.86,-0.05,18.76,-16.7,-38.8,0.75,0.0,0.0,0.5,0.0,1.5,0.0,0.25,0.0,0.25,0.75,1.0,1.25,0.08,-1.05,0.27,92.38,1.2,-30.4
3.16,0.0,0.0,0.0,0.0,0.0,0.0,0.0,1.25,0.0,0.0,0.0,0.0,0.0,-0.48,-0.98,0.02,18.03,-16.7,-38.8,0.5,0.0,0.0,0.5,1.0,1.5,0.0,0.0,0.0,0.25,0.75,1.0,1.25,0.08,-1.05,0.45,96.14,2.3,-20.2
3.18,0.0,0.0,0.0,0.0,0.0,0.0,0.0,2.0,1.25,0.25,0.25,0.0,0.0,-0.48,-0.98,0.08,32.36,-5.3,-43.5,0.5,0.0,0.0,0.5,0.0,1.5,0.0,0.0,0.0,0.25,0.75,1.0,1.25,0.08,-0.92,0.2,92.53,2.1,-35.3
3.2,0.0,0.0,0.0,0.0,0.0,0.0,2.0,4.5,1.75,0.5,0.75,0.0,0.0,-0.42,-0.98,0.08,69.74,-2.7,-36.5,0.5,0.0,0.0,0.5,1.0,1.25,0.0,0.0,0.0,0.25,0.75,1.0,1.25,0.08,-0.92,0.08,94.39,1.5,-22.1
3.22,0.0,0.0,0.0,0.0,0.0,0.0,2.0,4.5,1.5,0.25,0.75,0.0,0.0,-0.48,-0.98,0.02,100.24,-2.8,-35.2,0.5,0.0,0.0,0.75,1.5,1.5,0.0,0.0,0.0,0.25,0.25,1.0,1.25,0.2,-0.92,0.2,96.81,2.5,-7.7
3.24,0.0,0.0,0.25,0.0,0.0,0.0,1.75,3.75,1.25,0.0,1.0,0.0,0.0,-0.48,-0.98,0.08,118.07,0.0,-32.2,0.5,0.0,0.0,0.5,0.5,1.0,0.0,0.0,0.0,0.25,0.75,1.0,1.25,0.2,-0.86,0.2,95.84,0.5,-32.0
3.26,0.0,0.0,0.25,0.0,0.0,0.0,2.0,4.5,1.5,0.5,0.0,0.0,0.0,-0.48,-0.98,0.14,126.58,-3.1,-29.5,0.5,0.0,0.0,0.75,0.5,1.5,0.0,0.0,0.0,0.25,0.75,0.75,1.25,0.27,-0.92,0.27,95.4,1.8,-20.2
3.28,0.0,0.0,0.25,0.0,0.0,0.0,2.25,4.25,1.5,0.25,0.5,0.0,0.0,-0.55,-0.98,0.14,129.78,-0.9,-29.7,0.5,0.0,0.0,0.75,1.0,1.25,0.0,0.0,0.0,0.25,0.75,1.0,1.25,0.27,-0.92,0.27,97.05,0.8,-19.1
3.3,0.0,0.0,0.25,0.0,0.0,0.0,2.0,4.5,1.5,0.5,0.0,0.0,0.0,-0.55,-0.98,0.14,129.66,-3.1,-29.5,0.5,0.0,0.0,0.5,0.5,1.75,0.0,0.0,0.0,0.25,0.5,0.75,1.25,0.27,-0.86,0.2,95.03,4.0,-19.2
3.32,0.0,0.0,0.0,0.0,0.0,0.0,2.0,4.5,1.5,0.0,0.0,0.0,0.0,-0.55,-0.92,0.14,126.54,-3.8,-29.6,0.5,0.0,0.0,0.5,1.0,1.5,0.0,0.0,0.0,0.25,0.75,1.0,1.25,0.33,-0.86,0.2,96.88,2.3,-20.2
3.34,0.0,0.0,0.0,0.0,0.0,0.0,2.0,4.5,1.5,0.0,0.0,0.0,0.0,-0.55,-0.92,0.14,123.4,-3.8,-29.6,0.5,0.0,0.0,0.5,0.5,1.5,0.0,0.0,0.0,0.25,0.5,1.25,1.25,0.33,-0.86,0.2,95.93,2.2,-28.4
3.36,0.0,0.0,0.25,0.0,0.0,0.0,2.0,4.75,1.25,0.0,0.0,0.0,0.0,-0.61,-0.92,0.14,119.02,-3.3,-26.3,0.5,0.0,0.0,0.5,0.5,1.25,0.0,0.0,0.0,0.0,0.75,1.0,1.25,0.39,-0.92,0.2,92.47,0.7,-27.4
3.38,0.0,0.0,0.0,0.0,0.0,0.0,2.0,4.5,1.25,0.0,0.0,0.0,0.0,-0.61,-0.86,0.14,112.47,-4.4,-29.2,0.75,0.0,0.0,0.5,1.0,1.25,0.0,0.0,0.0,0.25,0.75,0.75,1.25,0.39,-0.98,0.2,93.1,0.6,-14.6
3.4,0.0,0.0,0.25,0.0,0.0,0.0,2.0,4.75,1.25,0.0,0.0,0.0,0.0,-0.61,-0.86,0.14,108.89,-3.3,-26.3,0.5,0.0,0.0,0.5,1.0,1.25,0.0,0.0,0.0,0.25,0.75,0.75,1.25,0.33,-0.98,0.27,93.28,1.9,-18.7
3.42,0.0,0.0,0.25,0.25,0.0,0.0,2.0,4.75,1.25,0.25,0.25,0.0,0.0,-0.61,-0.86,0.14,108.25,-2.5,-26.6,0.25,0.0,0.25,0.5,0.5,1.0,0.0,0.0,0.0,0.25,0.75,1.0,1.25,0.33,-0.92,0.27,92.06,0.2,-33.1
3.44,0.0,0.0,0.0,0.0,0.0,0.0,2.0,4.0,1.25,0.5,0.75,0.0,0.0,-0.61,-0.86,0.14,107.85,-2.8,-36.2,0.5,0.0,0.5,0.5,0.5,1.25,0.0,0.0,0.0,0.25,0.5,0.75,1.25,0.33,-0.92,0.2,90.35,-1.0,-16.6
3.46,0.0,0.0,0.0,0.0,0.0,0.0,2.0,4.5,1.25,0.25,0.5,0.0,0.0,-0.61,-0.86,0.14,110.41,-3.7,-33.8,0.5,0.0,0.0,0.5,0.5,1.5,0.0,0.0,0.0,0.25,0.75,1.0,1.25,0.33,-0.92,0.2,90.3,2.2,-27.0
3.48,0.0,0.0,0.0,0.0,0.0,0.0,2.0,4.5,1.0,0.25,0.0,0.0,0.0,-0.61,-0.8,0.14,107.51,-5.4,-30.6,0.75,0.0,0.0,0.5,1.0,1.25,0.0,0.0,0.0,0.25,0.75,1.0,1.25,0.33,-0.86,0.33,94.5,0.3,-18.0
3.5,0.0,0.0,0.0,0.0,0.0,0.0,1.75,3.5,0.5,0.0,0.0,0.0,0.0,-0.61,-0.8,0.08,94.24,-5.2,-27.2,0.75,0.25,0.0,1.0,0.5,1.25,0.0,0.0,0.0,0.25,0.5,1.0,1.25,0.33,-0.86,0.33,97.63,-1.3,-11.8
3.52,0.0,0.0,0.0,0.0,0.0,0.0,0.0,1.5,0.0,0.0,0.0,0.0,0.0,-0.61,-0.8,0.14,65.46,-16.7,-38.8,0.5,0.0,0.0,0.75,0.5,0.75,0.0,0.0,0.0,0.25,0.75,1.0,1.25,0.39,-0.86,0.39,95.76,-1.1,-30.7
3.54,0.0,0.0,0.0,0.0,0.0,0.0,0.0,2.0,0.0,0.0,0.0,0.0,0.0,-0.61,-0.86,0.14,42.86,-16.7,-38.7,0.5,0.0,0.0,0.5,0.5,1.25,0.0,0.0,0.0,0.25,0.5,0.75,1.25,0.33,-0.86,0.39,91.37,2.4,-23.8
3.56,0.0,0.0,0.25,0.0,0.0,0.0,0.0,1.75,0.0,0.0,0.25,0.0,0.0,-0.61,-0.86,0.14,27.08,-7.5,-31.3,0.75,0.0,0.0,0.75,0.5,1.25,0.0,0.0,0.0,0.25,0.5,1.0,1.25,0.39,-0.8,0.33,89.74,-0.2,-19.2
3.58,0.0,0.0,0.0,0.0,0.0,0.0,0.0,1.75,0.0,0.0,0.25,0.0,0.0,-0.61,-0.86,0.14,19.43,-13.4,-43.2,0.5,0.0,0.0,0.5,0.5,1.5,0.0,0.0,0.0,0.25,0.25,1.0,1.25,0.39,-0.86,0.39,87.74,3.3,-23.0
3.6,0.0,0.0,0.75,0.0,0.0,0.0,0.0,2.0,0.0,0.0,0.25,0.0,0.0,-0.55,-0.92,0.14,21.78,-0.4,-16.1,0.5,0.0,0.0,0.75,0.5,1.5,0.0,0.0,0.0,0.25,0.75,0.75,1.25,0.45,-0.86,0.39,89.49,1.8,-20.2
3.62,0.0,0.0,0.0,0.0,0.0,0.0,0.0,2.0,0.0,0.0,0.25,0.0,0.0,-0.48,-0.86,0.14,22.76,-13.8,-42.7,0.5,0.0,0.0,0.5,0.5,1.25,0.0,0.0,0.0,0.25,0.5,0.75,1.25,0.45,-0.86,0.39,86.68,2.4,-23.8
3.64,0.0,0.0,0.0,0.0,0.0,0.0,0.0,2.25,0.0,0.0,0.25,0.0,0.0,-0.48,-0.86,0.14,24.3,-14.1,-42.3,0.5,0.0,0.0,0.5,0.5,1.25,0.0,0.0,0.0,0.25,0.75,0.75,1.25,0.45,-0.86,0.39,86.36,1.8,-26.0
3.66,0.0,0.0,0.0,0.0,0.0,0.0,0.0,1.75,0.0,0.0,0.25,0.0,0.0,-0.55,-0.86,0.14,22.09,-13.4,-43.2,0.5,0.0,0.0,0.5,0.5,1.5,0.0,0.0,0.0,0.25,0.25,1.0,1.25,0.45,-0.86,0.39,84.68,3.3,-23.0
3.68,0.0,0.0,0.0,0.0,0.0,0.0,0.0,1.5,0.25,0.0,0.0,0.0,0.0,-0.55,-0.86,0.2,21.42,-12.7,-38.7,0.5,0.0,0.0,0.5,0.5,1.25,0.0,0.0,0.0,0.25,0.25,1.0,1.25,0.45,-0.86,0.39,83.0,2.4,-25.4
3.7,0.0,0.0,0.5,0.0,0.0,0.0,0.0,1.5,0.25,0.0,0.25,0.0,0.0,-0.55,-0.86,0.14,24.45,0.0,-21.8,0.75,0.0,0.0,0.5,0.5,1.25,0.0,0.0,0.0,0.25,0.75,0.75,1.25,0.39,-0.8,0.33,84.09,0.4,-21.1
3.72,0.0,0.0,0.25,0.0,0.0,0.0,0.0,1.5,0.25,0.0,0.0,0.0,0.0,-0.55,-0.8,0.14,27.0,-6.1,-25.9,0.5,0.0,0.0,0.5,1.0,1.5,0.0,0.0,0.0,0.25,0.5,1.0,1.25,0.39,-0.8,0.33,88.66,2.7,-18.2
3.74,0.0,0.0,0.5,0.0,0.0,0.0,0.0,1.5,0.0,0.0,0.25,0.0,0.0,-0.55,-0.8,0.2,31.85,-1.2,-19.9,0.5,0.0,0.0,0.5,0.0,1.25,0.0,0.0,0.0,0.25,0.75,1.0,1.25,0.39,-0.8,0.39,88.6,1.2,-38.3
3.76,0.0,0.0,0.0,0.0,0.0,0.0,0.0,1.5,0.25,0.0,0.0,0.0,0.0,-0.55,-0.8,0.2,31.88,-12.7,-38.7,0.5,0.0,0.0,1.0,0.5,1.75,0.0,0.0,0.0,0.25,0.75,1.0,1.25,0.39,-0.8,0.39,95.28,1.4,-18.6
3.78,0.0,0.0,0.0,0.0,0.0,0.0,0.0,1.5,0.0,0.0,0.25,0.0,0.0,-0.55,-0.8,0.2,29.8,-12.9,-43.9,0.75,0.0,0.0,0.75,0.5,1.25,0.0,0.0,0.0,0.25,0.75,1.0,1.25,0.39,-0.8,0.45,96.8,-0.6,-21.3
3.8,0.0,0.0,0.0,0.0,0.0,0.0,0.0,1.75,0.25,0.0,0.25,0.0,0.0,-0.55,-0.73,0.2,30.08,-10.6,-42.7,0.75,0.0,0.0,0.5,0.5,1.25,0.0,0.0,0.0,0.25,0.75,1.0,1.25,0.33,-0.73,0.39,97.26,0.0,-24.7
3.82,0.0,0.0,0.0,0.0,0.0,0.0,0.0,1.5,0.0,0.0,0.25,0.0,0.0,-0.55,-0.73,0.14,29.12,-12.9,-43.9,0.5,0.0,0.0,0.75,0.5,1.25,0.0,0.0,0.0,0.25,1.0,0.75,1.25,0.33,-0.73,0.39,96.21,0.5,-24.4
3.84,0.0,0.0,0.5,0.0,0.0,0.0,0.0,1.5,0.25,0.0,0.25,0.0,0.0,-0.55,-0.73,0.14,31.95,0.0,-21.8,0.5,0.0,0.0,0.75,0.5,1.5,0.0,0.0,0.0,0.25,0.75,0.75,1.25,0.33,-0.73,0.39,95.75,1.8,-20.2
3.86,0.0,0.0,0.0,0.0,0.0,0.0,0.0,1.75,0.25,0.0,0.25,0.0,0.0,-0.55,-0.73,0.14,33.94,-10.6,-42.7,0.5,0.0,0.0,0.5,0.5,1.25,0.0,0.0,0.0,0.25,0.5,0.75,1.25,0.27,-0.73,0.39,91.46,2.4,-23.8
3.88,0.0,0.0,0.0,0.0,0.0,0.0,0.0,1.5,0.25,0.0,0.25,0.0,0.0,-0.48,-0.67,0.2,34.39,-9.8,-43.2,0.75,0.0,0.0,0.5,0.5,1.0,0.0,0.0,0.0,0.25,0.75,1.0,1.5,0.27,-0.73,0.39,91.12,-0.2,-30.4
3.9,0.0,0.0,0.0,0.0,0.0,0.0,0.0,1.5,0.25,0.0,0.25,0.0,0.0,-0.48,-0.67,0.2,33.68,-9.8,-43.2,0.5,0.0,0.0,0.5,0.5,1.0,0.0,0.0,0.0,0.25,0.25,1.0,1.25,0.27,-0.73,0.39,86.35,1.5,-28.1
3.92,0.0,0.0,0.0,0.0,0.0,0.0,0.0,1.5,0.0,0.0,0.25,0.0,0.0,-0.42,-0.67,0.2,31.58,-12.9,-43.9,0.5,0.0,0.0,0.75,0.5,1.25,0.0,0.0,0.0,0.25,0.75,1.0,1.25,0.27,-0.67,0.45,87.71,0.6,-25.8
3.94,0.0,0.0,0.0,0.0,0.0,0.0,0.0,1.5,0.0,0.25,0.25,0.0,0.0,-0.42,-0.67,0.2,30.82,-13.3,-47.8,0.5,0.0,0.0,0.75,0.5,0.75,0.0,0.0,0.0,0.25,0.75,0.75,1.25,0.2,-0.73,0.45,84.33,-0.8,-27.1
3.96,0.0,0.0,0.0,0.0,0.0,0.0,0.0,1.5,0.25,0.0,0.25,0.0,0.0,-0.42,-0.67,0.2,31.0,-9.8,-43.2,0.5,0.0,0.0,0.5,0.5,1.25,0.0,0.0,0.0,0.25,0.75,0.75,1.25,0.2,-0.67,0.45,84.57,1.8,-26.0
3.98,0.0,0.0,0.0,0.0,0.0,0.0,0.0,1.5,0.25,0.0,0.25,0.0,0.0,-0.48,-0.67,0.2,31.58,-9.8,-43.2,0.5,0.0,0.0,0.5,1.0,1.0,0.0,0.0,0.0,0.25,0.25,1.0,1.25,0.2,-0.67,0.45,84.59,1.7,-20.0
4.0,0.0,0.0,0.0,0.0,0.0,0.0,0.0,1.75,0.25,0.0,0.25,0.25,0.0,-0.48,-0.73,0.27,34.91,-8.6,-49.4,0.5,0.0,0.0,0.5,0.5,1.25,0.0,0.0,0.0,0.25,0.75,1.0,1.25,0.2,-0.67,0.52,85.56,1.4,-29.4
4.02,0.0,0.0,0.0,0.0,0.0,0.0,0.0,1.5,0.25,0.0,0.25,0.25,0.0,-0.55,-0.73,0.27,36.21,-7.7,-50.6,0.5,0.0,0.0,0.5,0.5,1.25,0.0,0.0,0.0,0.25,0.75,0.75,1.25,0.2,-0.67,0.52,85.95,1.8,-26.0
4.04,0.0,0.0,0.0,0.0,0.0,0.0,0.0,1.75,0.0,0.0,0.0,0.25,0.0,-0.55,-0.8,0.27,35.7,-13.6,-47.6,0.5,0.0,0.0,0.75,0.5,0.75,0.0,0.0,0.0,0.75,0.5,0.75,1.25,0.2,-0.67,0.52,86.41,1.0,-29.3
4.06,0.0,0.0,0.0,0.0,0.0,0.0,0.0,1.75,0.0,0.0,0.25,0.25,0.0,-0.55,-0.8,0.27,36.1,-10.9,-50.6,0.5,0.0,0.0,0.5,1.25,1.0,0.0,0.0,0.0,0.25,0.75,1.0,1.0,0.2,-0.73,0.52,89.54,0.3,-17.2
4.08,0.0,0.0,0.0,0.0,0.0,0.0,0.0,1.75,0.25,0.0,0.0,0.25,0.0,-0.55,-0.8,0.27,35.9,-10.7,-46.6,0.5,0.0,0.0,0.5,0.5,1.25,0.0,0.0,0.0,0.25,0.5,0.75,1.25,0.2,-0.73,0.58,87.94,2.4,-23.8
4.1,0.0,0.0,0.0,0.0,0.0,0.0,0.0,1.75,0.0,0.0,0.0,0.25,0.0,-0.61,-0.8,0.27,35.19,-13.6,-47.6,0.25,0.0,0.0,0.75,0.5,1.25,0.0,0.0,0.0,0.25,0.75,0.75,1.25,0.2,-0.73,0.58,87.89,2.4,-27.2
4.12,0.0,0.0,0.0,0.0,0.0,0.0,0.0,1.5,0.25,0.0,0.0,0.25,0.0,-0.55,-0.8,0.27,34.42,-10.0,-47.6,0.5,0.0,0.0,0.5,0.5,1.25,0.0,0.0,0.0,0.25,0.5,1.0,1.25,0.2,-0.73,0.58,86.12,1.9,-27.5
4.14,0.0,0.0,0.0,0.0,0.0,0.0,0.0,1.5,0.0,0.0,0.0,0.0,0.0,-0.55,-0.8,0.27,30.59,-16.7,-38.8,0.5,0.0,0.0,0.75,0.5,1.0,0.0,0.0,0.0,0.25,0.75,1.0,1.25,0.2,-0.73,0.58,87.56,-0.2,-28.1
4.16,0.0,0.0,0.0,0.0,0.0,0.0,0.0,1.75,0.0,0.0,0.0,0.25,0.0,-0.55,-0.8,0.27,30.07,-13.6,-47.6,0.5,0.0,0.0,0.5,0.5,1.0,0.0,0.0,0.0,0.25,0.25,0.5,1.25,0.2,-0.73,0.58,81.82,2.6,-19.6
4.18,0.0,0.0,0.0,0.0,0.0,0.0,0.0,1.5,0.0,0.0,0.0,0.25,0.0,-0.55,-0.8,0.33,28.22,-13.1,-48.9,0.5,0.0,0.0,0.5,0.5,1.25,0.0,0.0,0.0,0.25,0.5,0.75,1.25,0.14,-0.73,0.58,81.57,2.4,-23.8
