time,left pressure 0[N/cm虏],left pressure 1[N/cm虏],left pressure 2[N/cm虏],left pressure 3[N/cm虏],left pressure 4[N/cm虏],left pressure 5[N/cm虏],left pressure 6[N/cm虏],left pressure 7[N/cm虏],left pressure 8[N/cm虏],left pressure 9[N/cm虏],left pressure 10[N/cm虏],left pressure 11[N/cm虏],left pressure 12[N/cm虏],left acceleration X[g],left acceleration Y[g],left acceleration Z[g],left total force[N],left center of pressure X[mm],left center of pressure Y[mm],right pressure 0[N/cm虏],right pressure 1[N/cm虏],right pressure 2[N/cm虏],right pressure 3[N/cm虏],right pressure 4[N/cm虏],right pressure 5[N/cm虏],right pressure 6[N/cm虏],right pressure 7[N/cm虏],right pressure 8[N/cm虏],right pressure 9[N/cm虏],right pressure 10[N/cm虏],right pressure 11[N/cm虏],right pressure 12[N/cm虏],right acceleration X[g],right acceleration Y[g],right acceleration Z[g],right total force[N],right center of pressure X[mm],right center of pressure Y[mm]
0.02,1.25,1.25,5.5,5.25,0.0,0.0,0.75,5.0,1.25,2.25,2.75,1.25,1.25,-0.17,0.08,0.95,466.39,10.7,0.9,5.5,3.0,7.75,7.5,7.25,4.0,0.25,3.25,0.0,0.0,0.5,0.25,0.0,-0.17,0.14,1.2,498.32,-12.4,53.0
0.04,1.0,1.0,3.75,3.75,0.0,0.0,0.5,4.5,1.0,2.0,1.75,1.0,0.75,-0.17,0.08,0.95,343.32,9.0,-1.0,6.25,3.25,7.75,9.0,7.0,5.25,0.5,3.25,0.0,0.5,0.0,0.0,0.0,-0.05,0.2,1.14,644.19,-11.9,54.5
0.06,1.0,1.0,1.75,2.75,0.0,0.25,0.5,3.5,0.75,2.0,1.5,0.5,0.5,-0.05,0.33,1.02,248.54,6.2,-3.2,5.25,2.5,9.25,9.0,8.0,5.75,0.5,3.25,0.0,0.25,0.0,0.0,0.0,0.2,0.2,1.2,758.59,-11.7,53.5
0.08,0.0,0.0,0.0,0.0,0.0,0.0,0.0,0.0,0.0,0.0,0.0,0.0,0.0,-0.36,2.83,1.27,109.5,0.0,0.0,6.25,3.25,8.75,10.5,8.5,7.25,2.0,4.5,0.75,2.0,0.75,0.75,0.75,0.27,0.2,1.14,907.88,-9.3,40.8
0.1,0.5,0.75,0.0,2.0,0.0,0.0,0.0,2.75,0.75,0.0,0.25,0.0,0.25,0.52,2.39,0.83,24.88,3.2,8.4,6.75,3.25,9.25,10.5,9.5,7.25,2.5,6.0,1.0,2.5,1.75,0.75,0.5,0.27,0.14,1.08,1059.55,-8.9,37.2
0.12,0.75,1.25,1.75,2.75,0.0,0.0,0.5,3.5,0.75,1.25,0.5,0.5,0.5,-0.3,2.89,0.2,5.25,7.2,5.2,6.75,3.25,9.25,10.5,8.75,7.25,2.75,6.25,1.25,3.0,2.0,0.75,0.5,0.2,0.14,1.02,1178.75,-8.8,35.0
0.14,1.75,0.0,0.0,2.75,0.0,0.0,3.25,0.0,0.5,0.75,0.5,0.0,0.5,-0.23,2.77,0.77,6.36,17.9,24.1,7.0,3.25,9.5,10.5,8.5,6.75,2.5,6.25,1.25,2.5,2.5,0.75,0.75,0.2,0.14,0.95,1244.98,-9.4,34.7
0.16,0.0,0.0,0.0,0.0,0.0,0.0,0.0,0.0,2.25,0.75,0.0,0.5,0.0,-0.05,2.33,1.02,0.0,5.6,-56.8,6.75,3.25,9.75,10.5,8.25,6.5,2.5,5.75,1.25,2.0,2.0,0.75,0.75,0.2,0.14,0.95,1249.34,-10.1,36.9
0.18,0.0,0.0,1.75,0.0,0.0,0.0,1.25,1.5,0.0,0.0,0.0,0.0,0.0,-0.55,1.95,0.95,0.0,16.2,17.4,6.75,3.0,9.75,9.5,8.0,6.25,2.5,5.5,0.75,2.0,1.75,0.75,0.75,0.2,0.14,0.95,1190.09,-10.2,37.6
0.2,0.0,0.0,0.0,0.0,0.0,0.0,2.0,2.25,0.75,0.0,0.0,0.0,0.0,-0.42,1.45,1.2,0.0,0.5,-22.6,6.25,2.75,9.5,9.0,7.25,6.0,2.5,5.5,0.75,2.0,1.75,0.5,0.5,0.2,0.14,0.89,1097.93,-10.3,37.6
0.22,0.0,0.0,0.0,0.0,0.0,0.0,2.0,1.25,0.0,0.0,0.0,0.0,0.0,-0.23,0.95,1.27,0.0,4.5,-10.0,6.25,2.5,9.5,9.0,7.5,5.75,2.5,4.75,0.75,2.0,1.75,0.5,0.0,0.2,0.14,0.89,1009.31,-11.0,40.0
0.24,0.0,0.75,0.0,1.75,0.0,0.0,0.25,0.0,0.5,1.0,0.0,0.5,0.5,-0.17,0.52,1.2,0.0,6.2,-3.7,6.25,2.5,9.5,9.0,7.25,5.25,2.5,4.75,0.75,2.0,1.75,0.75,0.5,0.14,0.14,0.89,937.44,-11.1,37.8
0.26,0.0,0.0,1.75,0.0,0.0,0.0,2.75,0.0,0.5,1.0,0.0,0.0,0.0,-0.17,0.33,1.14,22.14,22.1,11.1,6.25,2.0,9.25,8.75,7.0,5.25,2.25,4.75,0.75,2.5,2.0,0.75,0.75,0.14,0.14,0.89,881.62,-10.6,34.5
0.28,0.0,1.0,1.75,1.75,0.0,0.0,0.25,3.0,0.25,1.25,0.25,0.0,0.5,-0.23,0.2,1.02,73.38,4.5,2.6,6.0,2.25,9.5,8.25,6.25,5.25,2.5,5.0,1.25,3.0,2.5,0.75,1.0,0.14,0.14,0.95,853.12,-10.3,30.4
0.3,0.0,1.0,1.5,1.75,0.0,0.0,3.0,3.0,0.0,0.75,0.75,0.0,0.5,-0.36,0.08,0.83,116.24,8.2,5.3,6.25,2.5,9.5,8.5,6.5,5.25,2.75,5.5,1.25,3.5,2.75,0.75,0.75,0.14,0.14,0.95,848.72,-10.1,29.8
0.32,0.0,1.0,0.0,1.75,0.0,0.0,0.0,2.0,0.0,1.0,0.0,0.0,0.25,-0.48,-0.05,0.83,129.53,-1.3,4.3,6.25,2.25,9.5,8.75,6.25,5.25,3.0,5.5,1.25,3.75,2.75,0.75,0.75,0.14,0.14,0.95,846.47,-10.1,29.0
0.34,0.0,1.0,1.5,1.75,0.0,0.0,0.5,2.75,0.5,1.0,0.0,0.0,0.25,-0.48,-0.05,0.83,131.59,5.6,8.6,6.25,2.25,10.0,9.0,6.25,5.25,2.5,5.5,1.25,3.75,2.75,0.75,1.0,0.14,0.14,0.95,862.19,-10.2,28.8
0.36,0.0,1.0,1.5,1.75,0.0,0.0,0.5,3.0,0.5,0.5,0.0,0.0,0.25,-0.42,-0.23,0.89,133.1,6.2,12.0,6.25,2.5,10.0,9.0,6.25,5.25,2.75,5.5,1.25,3.75,2.75,0.75,1.0,0.14,0.14,0.95,882.85,-10.3,29.2
0.38,0.0,0.25,0.0,0.25,0.0,0.0,0.0,3.0,0.0,0.25,0.25,0.25,0.25,-0.48,-0.61,0.83,121.81,-10.0,-37.2,6.25,2.5,9.75,9.0,6.5,5.5,2.0,5.5,1.25,3.75,2.75,0.75,1.25,0.14,0.14,0.95,901.97,-9.7,28.5
0.4,0.0,1.0,1.5,1.75,0.0,0.0,0.25,2.25,0.25,0.25,0.0,0.25,0.25,-0.55,-1.23,0.52,122.76,8.6,17.2,6.25,2.5,10.0,8.75,6.5,5.25,2.5,5.5,1.25,4.0,3.25,1.0,1.0,0.14,0.14,0.95,921.38,-10.0,27.2
0.42,0.0,0.0,0.25,3.25,0.0,0.0,0.25,2.75,0.0,0.75,0.0,0.0,0.0,-0.3,-2.55,1.58,118.79,1.9,7.2,5.75,2.0,10.0,7.75,6.5,5.25,2.75,5.5,1.25,4.75,3.5,0.75,0.0,0.14,0.14,0.95,920.59,-9.8,26.7
0.44,0.25,1.25,0.0,2.0,0.0,0.0,0.5,2.25,0.0,0.5,0.25,0.0,0.0,-0.61,-4.36,3.14,117.8,3.6,19.7,5.5,1.75,9.75,7.25,6.25,5.25,2.0,5.5,1.25,4.0,3.0,0.75,0.5,0.14,0.14,0.95,895.79,-9.5,26.5
0.46,4.5,2.5,3.0,4.0,0.0,0.0,0.25,1.75,0.25,0.5,0.0,0.25,0.0,-1.05,3.27,4.14,168.04,20.1,56.6,5.0,1.5,9.25,6.0,6.0,5.25,1.5,5.0,0.75,3.5,2.5,0.75,0.5,0.14,0.14,0.95,830.11,-9.2,27.4
0.48,7.25,4.25,6.25,7.5,0.0,0.0,0.0,3.25,0.25,0.75,0.0,0.25,0.5,-0.61,0.39,2.27,270.53,19.8,54.7,3.75,1.0,8.5,2.75,5.25,4.0,1.5,4.5,0.75,2.25,2.0,0.25,0.0,0.14,0.14,1.02,697.16,-9.8,29.4
0.5,0.0,5.0,6.0,8.75,0.0,0.0,0.0,2.75,0.25,0.5,0.0,0.0,0.5,-0.11,0.27,2.02,335.22,16.3,49.2,1.0,0.0,7.5,2.25,1.75,2.0,0.75,2.75,0.0,0.0,0.0,0.0,0.0,0.02,0.14,1.08,475.77,-15.7,42.9
0.52,8.25,5.75,0.0,8.5,0.0,0.0,0.0,3.0,0.5,1.25,0.0,0.25,0.25,-0.05,0.14,1.39,401.0,15.5,56.5,0.5,0.0,4.75,1.0,2.25,2.0,0.75,2.0,0.0,0.75,0.5,0.0,0.0,-0.67,0.2,1.14,302.11,-9.7,30.8
0.54,6.5,0.0,7.5,0.0,0.0,0.0,0.0,3.0,0.0,0.0,0.25,0.0,0.5,-0.36,0.2,1.33,381.02,25.8,49.8,0.5,0.5,2.0,2.25,1.75,2.75,0.5,1.75,0.0,0.75,0.0,0.0,0.0,-0.17,1.83,0.45,191.01,-3.3,34.3
0.56,7.75,6.25,7.5,10.0,0.0,2.75,0.25,3.75,0.0,1.25,0.25,0.5,0.5,-0.42,0.14,1.64,483.95,16.4,52.5,0.0,0.0,2.0,1.75,1.5,2.5,0.75,1.75,0.0,0.5,0.0,0.0,0.0,0.2,4.08,0.14,104.76,-2.3,29.1
0.58,8.5,5.5,8.25,10.5,8.5,2.5,0.75,4.5,1.25,2.0,1.0,0.5,0.0,-0.36,0.14,1.14,658.31,12.9,47.5,0.0,0.0,2.25,0.75,1.5,0.5,0.75,1.75,0.0,0.0,0.0,0.0,0.0,-1.17,3.58,0.27,36.71,-9.1,32.0
0.6,7.75,5.5,7.75,10.0,8.25,3.0,1.0,5.0,1.75,2.0,1.5,1.0,0.25,-0.17,0.08,1.14,874.74,11.7,41.7,0.75,0.0,0.5,1.5,1.5,2.75,0.25,1.75,0.25,0.75,0.0,0.0,0.0,-1.11,2.95,0.52,14.74,2.8,24.1
0.62,7.5,5.0,8.25,10.0,8.25,3.0,1.0,5.25,2.25,2.0,1.75,1.25,0.75,-0.11,0.02,1.02,1038.21,11.5,37.6,0.0,0.0,0.0,2.0,1.75,2.5,0.25,1.75,0.0,0.75,0.25,0.25,0.0,-0.67,2.52,1.08,5.18,5.9,14.9
0.64,6.75,4.75,7.75,9.25,8.0,3.0,1.25,5.25,2.0,2.0,1.75,0.75,1.0,-0.11,0.02,0.95,1097.14,10.9,36.9,1.0,0.5,0.0,1.75,1.5,2.25,0.5,1.75,0.0,0.75,0.0,0.25,0.0,-0.17,2.02,0.95,17.4,1.4,26.5
0.66,6.0,4.0,7.75,8.75,7.5,2.5,1.0,5.25,1.75,2.0,2.0,0.75,1.0,-0.17,0.02,0.95,1065.22,10.9,34.6,0.75,0.5,1.0,1.75,2.25,2.0,0.75,2.0,0.0,0.75,0.75,0.0,0.5,0.14,1.39,0.95,54.98,-1.3,19.8
0.68,5.0,3.75,7.0,7.75,7.0,2.25,1.0,5.25,1.75,2.0,1.75,1.0,1.0,-0.17,0.08,0.95,970.92,10.2,31.6,0.0,0.0,0.25,0.5,1.5,0.5,0.25,1.5,0.0,0.0,0.0,0.0,0.0,0.14,0.89,1.08,51.45,4.1,21.7
0.7,3.0,3.75,6.25,7.5,7.0,2.0,0.75,5.25,1.75,2.25,1.25,1.25,0.75,-0.17,0.08,0.95,863.15,8.7,28.7,1.0,0.25,0.0,1.5,1.0,2.0,0.25,1.5,0.0,0.0,0.0,0.25,0.0,0.08,0.58,1.2,67.92,0.4,32.8
0.72,1.25,2.5,4.5,7.0,6.5,2.0,1.0,5.25,2.0,2.75,2.0,1.25,1.25,-0.17,0.02,0.95,748.59,5.7,16.1,0.75,0.5,0.25,1.5,1.75,1.75,0.5,1.75,0.0,0.25,0.5,0.0,0.0,0.14,0.39,1.2,90.41,-0.3,29.0
0.74,1.25,2.5,3.75,6.0,5.75,2.0,0.75,5.5,2.25,3.75,2.5,1.25,1.25,-0.17,0.02,0.95,664.97,4.3,9.0,0.0,0.0,0.0,0.5,0.5,2.0,0.75,1.75,0.0,0.75,0.25,0.25,0.0,0.14,0.33,1.02,101.81,9.5,-5.4
0.76,0.0,2.25,3.25,6.0,5.0,2.0,0.75,6.0,2.5,4.0,2.75,1.5,1.5,-0.17,0.02,0.95,585.09,2.6,0.4,0.5,0.5,0.0,1.5,1.75,1.75,0.5,1.75,0.0,0.75,0.75,0.25,0.0,0.14,0.14,0.95,117.07,1.8,15.3
0.78,0.25,2.0,2.5,5.75,5.75,2.0,0.75,6.0,2.5,5.0,3.5,1.5,1.75,-0.17,0.02,0.95,539.83,1.4,-4.0,0.5,0.5,1.0,1.75,1.75,1.75,0.75,1.25,0.0,0.75,0.5,0.25,0.0,0.2,0.02,0.89,135.22,-3.3,25.5
0.8,0.0,1.25,2.5,4.75,4.75,2.0,0.75,6.5,2.5,5.25,3.5,2.5,2.75,-0.17,0.02,0.95,485.34,0.2,-16.2,0.75,0.25,0.5,1.5,1.75,1.5,0.25,1.75,0.0,0.75,1.0,0.25,0.0,0.14,-0.11,0.89,149.98,-1.0,14.6
0.82,0.0,1.25,2.25,4.25,5.0,2.0,0.75,6.5,2.75,6.25,5.0,2.5,3.25,-0.17,0.02,0.95,480.59,-0.3,-21.8,0.75,0.5,0.25,1.5,0.25,1.25,0.75,1.75,0.0,0.75,0.75,0.25,0.0,0.2,-0.3,0.83,145.93,-2.4,10.2
0.84,0.0,0.75,2.25,4.0,4.5,2.0,0.75,7.0,2.75,6.25,5.25,2.75,3.75,-0.17,0.02,0.95,491.06,-0.8,-26.9,0.0,0.0,0.75,0.5,1.75,1.0,0.75,1.75,0.0,0.25,0.75,0.0,0.0,0.39,-0.48,0.89,134.74,0.4,11.7
0.86,0.0,0.5,2.0,3.75,3.5,2.0,0.75,7.0,2.75,6.75,5.75,3.5,4.5,-0.17,-0.05,0.95,515.69,-1.2,-34.9,0.5,0.5,0.25,1.0,1.25,1.5,0.25,1.75,0.0,0.75,0.75,0.25,0.0,0.33,-0.8,0.95,129.37,1.5,10.9
0.88,0.0,0.75,1.75,2.75,2.0,2.0,0.5,7.0,2.5,7.0,6.0,3.75,4.75,-0.17,0.02,0.95,531.93,-2.0,-42.4,0.5,0.0,1.75,1.0,1.25,1.5,0.75,1.75,0.0,0.75,0.5,0.0,0.0,0.33,-1.17,0.89,131.6,-4.3,20.0
0.9,0.0,0.75,0.75,2.0,1.5,1.5,0.5,7.25,2.25,7.25,6.25,4.5,5.25,-0.23,0.02,0.95,547.14,-3.3,-52.0,0.5,0.25,0.5,1.25,1.75,2.0,0.75,1.75,0.0,0.75,0.5,0.0,0.25,0.39,-1.42,0.77,141.88,1.5,17.0
0.92,0.0,0.0,0.0,2.0,0.0,1.25,0.25,7.0,1.75,7.75,6.25,4.5,6.25,-0.23,0.02,1.02,546.64,-5.1,-65.5,0.0,0.0,0.0,1.75,1.25,1.75,0.75,1.5,0.0,0.0,0.75,0.0,0.0,0.45,-1.48,0.77,141.57,2.2,18.2
0.94,0.0,1.0,0.0,1.0,0.0,0.5,0.0,6.75,1.25,7.5,6.25,5.25,6.75,-0.23,0.08,1.08,543.81,-4.9,-68.7,0.5,0.75,0.25,0.5,0.0,0.5,0.25,1.75,0.0,0.0,0.5,0.0,0.0,1.45,-3.86,2.95,118.06,-2.8,17.1
0.96,0.0,1.0,0.0,2.0,0.0,0.0,0.25,6.25,1.0,6.25,6.0,4.5,7.25,-0.23,0.08,1.45,526.32,-3.9,-66.0,3.5,0.75,4.75,3.25,1.5,0.5,0.75,0.0,0.0,0.25,0.0,0.25,0.0,-0.11,0.7,3.77,153.48,-23.5,62.6
0.98,0.0,1.0,1.5,2.0,0.0,0.0,0.25,5.25,0.75,6.25,5.25,4.5,7.0,-0.42,0.14,1.64,503.29,-2.0,-60.6,5.25,0.0,8.25,5.25,1.5,0.25,0.75,0.5,0.0,0.0,0.0,0.0,0.0,0.02,0.14,0.14,219.74,-26.8,64.7
1.0,0.0,0.75,1.0,0.0,0.0,0.0,0.0,4.25,0.75,5.0,3.5,3.5,6.5,-0.48,0.14,1.52,437.05,-4.5,-71.2,6.25,1.5,10.5,7.25,2.5,1.0,1.0,1.5,0.0,0.0,0.0,0.0,0.0,-0.55,-0.05,1.33,319.6,-23.0,62.1
1.02,0.0,1.0,0.75,1.75,0.0,0.0,2.0,4.25,0.0,0.0,2.75,0.0,5.25,-0.3,0.08,1.27,336.71,-0.6,-40.1,7.0,2.5,11.5,9.0,5.25,2.75,1.75,1.75,0.0,0.0,0.0,0.0,0.0,-0.23,0.02,1.64,480.05,-19.0,60.7
1.04,0.0,0.0,1.5,0.0,0.0,0.0,0.0,0.0,0.0,0.0,0.0,0.0,0.0,-0.3,0.02,0.95,203.84,38.2,60.9,7.5,3.0,12.5,11.0,6.0,3.0,2.75,1.75,0.25,0.75,0.5,0.25,0.0,0.2,0.27,1.52,683.41,-18.3,56.0
1.06,0.0,0.0,0.75,0.0,0.0,0.0,0.0,3.0,0.0,0.0,1.0,0.0,0.0,-0.17,2.45,0.77,89.15,-2.1,-30.0,7.5,3.25,14.5,11.0,7.25,3.5,4.75,3.0,0.5,0.5,1.25,0.0,0.0,0.27,0.2,1.64,889.09,-17.6,52.7
1.08,0.0,0.0,0.0,0.0,0.0,0.0,0.0,0.0,0.0,0.0,0.0,0.0,0.0,0.39,3.89,1.08,0.0,0.0,0.0,8.0,3.25,14.0,12.5,7.25,5.25,5.75,4.25,1.25,2.25,1.5,1.0,0.75,0.14,0.2,1.14,1107.25,-14.5,41.4
1.1,0.0,0.0,0.0,0.0,0.0,0.0,0.0,0.0,0.0,0.0,0.0,0.0,0.0,1.52,2.45,1.64,0.0,0.0,0.0,7.75,3.0,13.5,12.5,7.25,4.5,6.0,4.75,1.25,2.0,2.75,0.75,1.0,0.08,0.14,1.08,1264.09,-14.4,38.5
1.12,0.0,0.0,0.0,0.0,0.0,0.0,0.0,0.0,0.0,0.0,0.0,0.0,0.0,-0.73,2.83,1.14,0.0,0.0,0.0,7.5,2.75,13.5,11.0,6.5,4.0,6.0,4.5,1.25,0.75,2.5,0.75,0.0,0.08,0.14,1.02,1307.05,-16.1,43.1
1.14,0.0,0.0,0.0,0.0,0.0,0.0,0.0,0.0,0.0,0.0,0.0,0.0,0.0,-0.73,2.2,1.27,0.0,0.0,0.0,7.5,2.5,13.0,10.5,6.25,3.25,5.5,3.75,0.75,0.75,1.75,0.5,0.75,0.08,0.14,0.95,1263.75,-16.6,44.6
1.16,0.0,0.0,0.0,0.0,0.0,0.0,0.0,0.0,0.0,0.0,0.0,0.0,0.0,-0.23,1.27,1.64,0.0,0.0,0.0,7.0,2.25,12.5,9.0,5.5,3.0,4.75,3.25,0.75,0.0,1.5,0.25,0.0,0.08,0.14,0.89,1136.41,-18.0,49.8
1.18,0.0,0.0,0.0,0.0,0.0,0.0,0.0,0.0,0.0,0.0,0.0,0.0,0.0,-0.42,0.89,1.39,0.0,0.0,0.0,5.75,1.0,11.5,7.0,2.5,3.0,4.0,2.0,0.75,1.0,0.5,0.0,0.0,0.08,0.2,0.89,925.78,-19.5,49.6
1.2,0.0,0.0,0.0,0.0,0.0,0.0,0.0,0.0,0.0,0.0,0.0,0.0,0.0,-0.23,0.45,1.39,0.0,0.0,0.0,5.0,1.0,10.0,5.5,3.0,2.75,4.0,2.5,0.75,0.5,0.5,0.0,0.0,0.02,0.2,0.89,722.35,-18.4,48.5
1.22,0.0,0.0,0.0,0.0,0.0,0.0,0.0,0.0,0.0,0.0,0.0,0.0,0.0,-0.17,0.27,1.33,0.0,0.0,0.0,5.0,0.75,9.25,5.5,1.75,2.75,4.0,2.75,0.75,2.25,1.75,0.75,0.25,0.02,0.14,0.89,584.24,-16.2,32.3
1.24,0.0,0.0,0.0,0.0,0.0,0.0,0.0,0.0,0.0,0.0,0.0,0.0,0.0,-0.23,0.14,1.2,0.0,0.0,0.0,5.5,1.0,11.0,5.25,3.0,2.75,4.0,3.25,1.25,2.75,2.75,1.0,0.75,0.08,0.14,0.89,539.06,-15.3,27.3
1.26,0.0,0.0,0.0,0.0,0.0,0.0,0.0,0.0,0.0,0.0,0.0,0.0,0.0,-0.23,0.08,1.14,0.0,0.0,0.0,5.0,1.0,10.5,5.25,2.75,2.75,3.75,4.25,1.25,4.25,3.75,1.75,1.5,0.02,0.14,0.95,546.89,-12.6,14.6
1.28,0.0,0.0,0.0,0.0,0.0,0.0,0.0,0.0,0.0,0.0,0.0,0.0,0.0,-0.23,-0.05,1.08,0.0,0.0,0.0,4.75,1.0,10.5,4.5,2.5,3.0,3.75,4.25,1.75,6.0,4.75,2.75,2.5,0.08,0.14,0.95,598.3,-10.7,3.0
1.3,0.0,0.0,0.0,0.0,0.0,0.0,0.0,0.0,0.0,0.0,0.0,0.0,0.0,-0.3,-0.11,1.02,0.0,0.0,0.0,4.75,1.0,9.75,3.75,3.0,3.0,3.5,5.5,2.0,6.5,5.75,3.5,3.5,0.08,0.14,0.95,660.41,-8.6,-5.0
1.32,0.0,0.0,0.0,0.0,0.0,0.0,0.0,0.0,0.0,0.0,0.0,0.0,0.0,-0.42,-0.17,1.02,0.0,0.0,0.0,4.75,1.0,9.75,3.25,2.25,3.0,3.5,5.5,2.0,7.25,7.0,4.0,5.0,0.08,0.08,0.95,726.04,-7.9,-12.7
1.34,0.0,0.0,0.0,0.0,0.0,0.0,0.0,0.0,0.0,0.0,0.0,0.0,0.0,-0.48,-0.3,1.02,0.0,0.0,0.0,4.5,0.75,9.5,3.25,2.5,3.0,3.5,6.0,2.0,7.75,7.25,5.0,5.5,0.08,0.08,0.95,798.51,-7.0,-17.1
1.36,0.0,0.0,0.0,0.0,0.0,0.0,0.0,0.0,0.0,0.0,0.0,0.0,0.0,-0.67,-0.48,1.08,0.0,0.0,0.0,3.75,0.75,9.25,3.25,2.75,3.0,3.0,6.25,2.0,8.25,7.75,5.25,5.75,0.08,0.08,0.95,863.61,-6.0,-20.5
1.38,0.0,0.0,0.0,0.0,0.0,0.0,0.0,0.0,0.0,0.0,0.0,0.0,0.0,-0.48,-0.61,0.83,0.0,0.0,0.0,3.75,0.75,8.75,3.25,2.25,3.0,3.0,6.5,2.0,8.25,7.75,5.5,6.5,0.08,0.14,0.95,910.6,-5.5,-23.5
1.4,0.0,0.0,0.0,0.0,0.0,0.0,0.0,0.0,0.0,0.0,0.0,0.0,0.0,-0.17,-0.92,0.7,0.0,0.0,0.0,2.25,0.75,8.25,3.25,2.5,3.0,2.5,6.5,2.0,8.75,8.25,6.0,7.25,0.08,0.08,0.95,944.52,-4.0,-29.6
1.42,0.0,0.0,0.0,2.0,0.0,0.0,0.0,0.0,0.25,1.0,0.0,0.0,0.0,0.02,-1.48,2.39,19.26,6.9,10.8,2.0,0.75,6.75,2.25,2.25,3.0,1.75,6.5,2.0,9.0,8.5,6.25,7.75,0.08,0.14,0.95,955.47,-2.4,-36.3
1.44,0.5,1.25,0.5,4.0,0.0,0.0,0.25,0.0,0.0,0.0,0.0,0.0,0.5,0.39,-3.42,2.33,60.31,17.0,55.5,1.25,0.5,4.75,1.75,3.0,2.75,1.25,6.25,1.5,9.0,8.25,6.5,8.0,0.08,0.14,1.02,927.34,-0.3,-42.8
1.46,0.0,3.0,0.5,6.0,0.0,0.0,0.25,3.0,0.25,0.75,0.0,0.0,0.0,-2.05,0.02,2.27,132.01,7.9,37.2,1.25,0.0,3.25,1.75,1.75,2.75,1.0,5.75,0.75,8.5,8.0,6.5,8.25,0.02,0.14,1.08,860.57,0.9,-50.6
1.48,1.25,3.75,1.75,7.75,0.0,0.0,0.0,3.5,0.25,1.0,0.25,0.0,0.25,-0.86,0.08,2.52,215.57,11.1,40.0,1.25,0.25,2.5,1.75,2.25,2.0,1.25,4.0,0.0,6.75,6.0,5.0,7.25,0.02,0.2,1.39,732.3,0.6,-46.2
1.5,2.25,4.0,0.0,8.75,0.0,0.0,0.0,3.5,0.0,1.25,0.0,0.25,0.5,-0.42,0.2,1.89,277.01,9.5,39.7,0.25,0.25,2.5,1.5,2.25,2.75,0.75,3.25,0.0,5.75,5.0,3.75,6.5,-0.11,0.27,1.58,595.09,2.0,-44.5
1.52,3.0,3.75,2.5,8.75,0.0,0.0,0.25,4.5,0.0,1.75,0.0,0.0,0.5,-0.42,0.08,1.77,339.09,11.7,38.9,1.25,0.75,2.0,1.5,1.75,2.25,1.0,2.75,0.0,5.0,3.25,2.75,5.0,-0.11,0.45,1.83,453.54,0.6,-34.0
1.54,2.75,0.0,5.0,8.75,0.0,7.0,0.25,5.0,0.0,2.0,0.0,0.5,0.75,-0.42,0.14,1.58,412.98,5.5,26.3,1.0,0.25,1.75,1.75,2.25,2.0,0.5,1.75,0.0,1.75,2.5,1.25,3.75,-0.17,0.2,1.58,328.55,-0.9,-19.4
1.56,2.75,0.0,3.75,8.75,11.0,7.25,0.25,6.0,0.75,2.0,0.0,0.75,1.25,-0.36,0.14,1.14,567.5,1.4,28.2,1.0,0.5,1.5,1.75,1.75,2.25,0.75,1.5,0.0,1.25,0.75,0.75,1.5,-0.17,0.39,1.08,237.51,-2.2,4.9
1.58,2.25,0.0,3.75,8.5,10.5,7.0,0.25,6.25,0.0,2.0,0.5,0.75,1.5,-0.3,0.14,1.08,691.85,0.9,25.7,1.0,0.5,2.0,1.5,1.75,1.75,0.75,1.75,0.0,1.0,1.5,0.75,1.5,-0.48,2.45,0.45,171.94,-4.3,1.8
1.6,1.5,0.0,3.5,7.5,9.75,6.25,0.25,6.25,0.75,2.25,0.5,0.75,1.5,-0.23,0.14,0.95,768.33,0.3,21.1,0.75,0.25,2.75,1.25,2.5,2.0,0.75,1.75,0.0,1.0,1.5,0.75,1.5,-0.73,2.08,0.7,138.16,-4.4,4.0
1.62,1.0,0.0,3.5,7.5,9.0,6.25,0.25,6.25,0.75,2.0,0.5,0.75,1.5,-0.3,0.14,0.95,773.5,0.0,20.1,1.0,0.25,2.0,1.5,1.75,1.75,0.5,1.75,0.0,1.0,1.5,0.75,1.5,-0.61,1.52,0.64,121.73,-4.0,0.0
1.64,0.0,0.0,2.5,4.25,8.75,5.75,0.25,6.25,0.75,2.25,0.5,0.75,1.25,-0.3,0.14,0.89,704.51,-3.3,12.8,0.75,0.25,1.75,1.75,1.5,1.5,0.5,1.75,0.0,0.75,1.25,0.75,1.5,-0.36,1.08,0.77,115.54,-3.9,-0.6
1.66,0.0,0.0,3.0,6.0,8.25,5.0,0.25,6.25,0.25,2.5,0.75,1.0,1.5,-0.3,0.08,0.89,637.44,-1.5,12.5,0.75,0.0,2.0,1.5,1.75,1.25,0.5,1.75,0.0,1.0,1.5,0.75,1.25,-0.23,0.77,0.77,116.74,-4.5,-2.5
1.68,0.0,0.0,1.75,4.0,7.25,3.75,0.25,6.25,0.75,3.75,1.25,1.25,1.5,-0.23,0.08,1.02,559.44,-3.5,-0.7,0.75,0.25,1.75,1.25,1.0,1.75,0.5,1.75,0.0,0.75,1.5,0.75,1.25,-0.36,0.45,0.77,119.52,-3.7,-4.0
1.7,0.0,1.0,1.5,3.75,6.25,0.0,0.25,6.25,1.5,4.0,2.0,1.5,1.5,-0.17,0.08,0.95,492.31,-0.5,-8.7,0.75,0.25,2.0,1.0,2.75,1.5,0.75,1.75,0.0,0.75,0.75,0.5,0.75,-0.48,0.33,0.89,133.47,-3.9,14.0
1.72,0.0,0.5,0.0,3.25,4.75,2.5,0.0,6.5,1.75,5.0,3.25,2.5,2.75,-0.23,0.02,0.95,446.55,-4.6,-26.7,0.75,0.0,1.5,0.75,2.25,1.5,0.5,1.5,0.0,0.75,1.5,0.75,0.75,-0.55,0.27,1.02,145.83,-3.0,0.9
1.74,0.0,0.75,0.0,1.25,0.0,2.0,0.0,6.5,2.0,6.0,4.75,3.5,4.0,-0.17,0.02,0.95,419.47,-5.4,-57.0,0.0,0.0,1.75,0.5,2.5,1.75,0.75,1.75,0.0,0.75,1.5,0.75,0.75,-0.42,0.33,1.14,157.08,-1.0,-3.1
1.76,0.0,0.75,1.5,2.0,0.0,0.75,0.25,6.5,1.75,6.25,5.25,4.5,5.25,-0.17,0.02,0.95,421.65,-2.1,-55.9,0.5,0.0,2.0,1.0,1.75,1.25,0.5,1.75,0.0,0.75,0.75,0.75,1.0,-0.36,0.39,1.27,162.83,-3.8,1.0
1.78,0.5,1.0,0.0,2.0,0.0,0.0,0.0,6.5,2.5,7.0,6.5,5.75,6.0,-0.17,0.02,0.95,450.26,-2.3,-63.2,0.5,0.25,2.0,0.5,2.25,1.5,0.75,1.5,0.0,1.0,1.5,0.5,0.75,-0.36,0.45,1.45,172.58,-3.6,3.2
1.8,0.0,0.75,1.5,2.25,0.0,0.0,0.25,6.5,2.5,7.0,7.25,6.0,6.75,-0.23,0.02,0.95,501.81,-1.0,-61.7,0.75,0.0,1.25,0.75,1.5,1.25,0.25,1.5,0.0,0.75,1.5,0.25,0.75,-0.3,0.45,1.58,165.66,-2.7,-0.7
1.82,0.0,0.5,1.75,2.0,0.0,0.0,0.25,6.25,2.25,7.0,0.0,6.25,7.25,-0.17,0.02,0.95,512.39,-3.5,-61.5,0.5,0.0,1.25,0.75,1.75,1.25,0.5,1.75,0.0,0.75,1.25,0.5,0.5,-0.11,0.39,1.39,158.83,-2.0,-0.1
1.84,0.0,0.75,1.75,2.0,0.0,0.0,0.25,5.75,2.0,7.0,7.25,6.5,7.5,-0.3,0.02,0.95,557.28,-0.8,-63.9,1.0,0.25,1.75,1.25,1.5,1.5,0.5,1.75,0.0,0.75,1.5,0.5,0.75,0.27,-0.11,1.27,163.02,-5.0,5.9
1.86,0.0,1.0,1.5,2.0,0.0,0.0,0.25,0.0,0.0,0.0,7.75,1.25,5.5,-0.3,0.08,0.89,446.56,6.5,-52.3,0.75,0.25,2.0,1.25,1.5,0.5,0.5,1.25,0.0,0.5,0.75,1.0,0.5,0.45,-0.48,1.27,162.36,-9.4,9.6
1.88,0.0,0.0,0.0,0.0,0.0,0.0,0.0,0.0,0.0,0.0,0.0,1.75,0.5,-0.23,0.08,0.95,289.81,3.7,-109.8,0.5,0.0,0.75,0.5,1.0,0.75,0.75,1.75,0.0,1.5,0.75,1.0,2.0,7.2,-7.98,1.95,160.78,1.6,-31.9
1.9,0.0,0.0,0.0,0.0,0.0,0.0,0.0,0.0,0.0,0.0,0.0,0.5,0.5,-0.17,0.08,1.14,144.28,-2.5,-109.9,0.5,0.0,0.0,0.5,1.5,0.75,0.5,1.5,0.0,2.25,0.75,1.0,1.75,0.95,-2.48,-0.61,156.96,5.2,-35.6
1.92,0.0,0.0,0.0,0.0,0.0,0.0,0.0,0.0,0.0,0.0,0.0,0.0,0.0,-0.23,0.14,1.14,15.25,0.0,0.0,0.0,0.0,0.0,0.5,0.0,0.0,0.0,0.0,0.0,2.0,0.5,1.0,1.75,1.95,1.52,1.33,134.68,5.6,-80.0
1.94,0.0,0.0,0.0,0.0,0.0,0.0,0.0,0.0,0.0,0.0,0.0,0.0,0.0,-0.11,0.02,0.77,0.0,0.0,0.0,0.75,0.0,0.0,1.25,1.5,0.5,0.75,1.75,0.25,2.25,2.0,1.5,2.5,-0.86,2.14,3.14,152.5,1.3,-38.9
1.96,0.0,0.0,0.0,0.0,0.0,0.0,0.0,0.0,0.0,0.0,0.0,0.0,0.0,-0.42,0.02,0.95,0.0,0.0,0.0,0.75,0.0,1.75,0.5,1.5,0.25,0.5,2.0,0.0,1.5,1.5,0.75,2.25,1.02,0.64,3.52,163.4,-2.4,-24.1
1.98,0.0,0.0,0.0,0.0,0.0,0.0,0.0,0.0,0.0,0.0,0.0,0.0,0.0,-0.23,0.08,1.2,0.0,0.0,0.0,0.75,0.0,0.0,1.25,0.0,2.75,0.0,3.25,0.5,5.25,3.75,2.5,3.5,0.89,-0.36,0.77,228.11,5.6,-53.6
2.0,0.0,0.0,0.0,0.0,0.0,0.0,0.0,0.0,0.0,0.0,0.0,0.0,0.0,-0.36,0.14,1.7,0.0,0.0,0.0,0.75,0.25,0.5,0.75,1.75,3.0,0.75,5.0,0.5,6.0,3.75,3.25,5.0,0.2,0.02,0.95,299.22,5.6,-47.6
2.02,0.0,0.0,0.0,0.0,0.0,0.0,0.0,0.0,0.0,0.0,0.0,0.0,0.0,-0.55,0.08,1.45,0.0,0.0,0.0,0.75,0.25,0.0,0.75,2.5,3.75,0.5,6.0,0.25,6.5,4.0,2.5,5.5,0.14,0.08,0.89,388.22,7.6,-45.1
2.04,0.0,0.0,0.0,0.0,0.0,0.0,0.0,0.0,0.0,0.0,0.0,0.0,0.0,-0.23,0.77,0.95,0.0,0.0,0.0,0.75,0.0,0.5,0.75,2.5,4.0,0.25,6.75,0.0,7.25,4.0,3.5,5.5,0.2,0.14,1.02,473.8,7.4,-46.7
2.06,0.0,0.0,0.0,0.0,0.0,0.0,0.0,0.0,0.0,0.0,0.0,0.0,0.0,-0.86,2.45,1.58,0.0,0.0,0.0,0.5,0.0,0.0,0.5,2.5,4.0,0.0,7.25,0.0,7.25,4.0,2.75,6.0,0.27,0.14,0.95,527.7,9.2,-49.8
2.08,0.0,0.0,0.0,0.0,0.0,0.0,0.0,0.0,0.0,0.0,0.0,0.0,0.0,-2.3,2.2,0.77,0.0,0.0,0.0,0.5,0.0,0.0,0.5,2.25,3.25,0.25,7.5,0.0,7.25,3.75,2.5,6.5,0.27,0.2,1.02,552.26,9.3,-52.3
2.1,0.0,0.0,0.0,0.0,0.0,0.0,0.0,0.0,0.0,0.0,0.0,0.0,0.0,-0.3,1.95,0.52,0.0,0.0,0.0,0.5,0.0,0.0,0.5,1.5,2.75,0.25,7.25,0.0,6.75,1.75,2.25,6.0,-0.23,-0.11,0.95,529.88,10.4,-53.5
2.12,0.0,0.0,0.0,0.0,0.0,0.0,0.0,0.0,0.0,0.0,0.0,0.0,0.0,0.33,1.33,0.83,0.0,0.0,0.0,0.5,0.0,0.0,0.5,2.25,4.75,0.5,7.0,0.0,6.5,1.5,1.75,5.75,0.39,0.08,0.83,506.43,11.2,-43.2
2.14,0.0,0.0,0.0,0.25,0.0,0.0,0.0,0.0,0.0,0.5,0.0,0.5,0.0,1.27,0.83,0.27,6.36,0.8,-61.3,0.5,0.25,0.0,0.5,1.5,5.25,0.5,6.0,0.0,6.5,1.5,1.5,5.25,0.39,0.14,0.83,467.43,11.3,-42.0
2.16,0.0,0.0,0.0,0.25,0.0,0.0,0.25,2.75,0.0,0.5,0.0,0.5,1.5,0.83,-0.3,-0.3,40.17,-10.9,-61.7,0.5,0.0,0.0,0.5,1.75,5.25,0.25,7.5,0.0,6.0,1.75,1.5,4.25,0.45,0.14,0.83,437.88,11.6,-39.7
2.18,0.0,0.0,0.0,1.25,0.0,0.0,0.25,2.75,0.5,2.0,0.75,0.5,1.5,-0.11,-1.36,-0.98,88.49,-5.7,-50.5,0.25,0.0,0.0,0.5,1.25,6.25,0.25,7.25,0.0,4.0,2.0,1.0,2.25,0.58,-0.05,1.02,382.0,12.3,-30.6
2.2,0.5,0.0,0.25,1.75,0.0,0.0,0.0,0.0,1.75,4.0,0.25,6.25,1.25,-0.8,-1.42,7.95,163.22,3.5,-65.1,0.5,0.0,0.0,0.5,0.0,7.25,0.0,7.25,0.0,5.0,0.25,0.75,1.75,0.95,-0.17,0.89,337.08,15.1,-28.3
2.22,0.25,0.0,3.0,1.75,0.0,0.0,0.75,0.0,1.25,3.25,4.75,4.5,5.5,2.27,-2.23,2.58,252.31,5.8,-57.6,0.0,0.25,0.0,0.5,1.75,7.75,0.25,6.5,0.0,2.75,1.25,0.75,2.5,0.39,0.33,0.7,298.08,13.5,-20.7
2.24,0.5,0.0,1.5,0.25,0.0,0.0,0.5,0.0,0.75,2.0,3.0,2.5,2.5,-3.42,-0.42,0.89,271.62,6.3,-60.0,0.5,0.75,0.0,0.5,2.25,8.25,0.25,7.25,0.0,3.75,1.0,0.5,2.25,0.83,0.14,0.83,293.95,12.7,-14.2
2.26,0.0,0.0,1.75,1.25,0.0,0.0,0.75,3.5,0.75,2.25,1.5,3.75,2.25,-0.36,0.64,2.27,287.73,2.0,-52.2,0.75,0.75,0.0,0.5,2.75,8.5,0.5,6.5,0.0,3.5,0.25,0.75,1.25,1.02,-0.05,0.7,297.1,12.2,-5.1
2.28,0.0,0.0,1.25,0.0,0.0,0.0,0.5,2.75,0.75,2.0,0.0,3.75,3.5,0.83,0.08,-0.11,274.79,-1.9,-70.1,0.75,1.0,0.0,0.5,0.25,8.25,0.25,6.25,0.0,2.5,0.5,0.5,1.5,1.08,0.08,0.95,289.96,13.0,-9.5
2.3,0.0,0.0,0.0,1.25,0.0,0.0,0.5,2.0,1.5,0.0,0.0,4.75,2.75,0.2,-0.05,1.33,259.73,1.4,-70.1,0.75,1.0,0.0,0.5,4.25,8.0,0.0,6.0,0.0,2.25,0.5,0.25,1.5,1.2,0.2,0.52,296.33,11.5,3.3
2.32,0.0,0.0,2.5,2.0,0.0,0.0,1.0,2.75,3.0,0.0,0.0,1.5,4.25,-0.42,0.02,1.52,250.97,5.5,-34.3,0.5,0.75,0.5,0.5,3.5,7.25,0.0,5.25,0.0,2.0,0.5,0.25,1.5,2.02,0.58,0.02,291.92,10.9,2.0
2.34,0.0,0.0,0.0,1.75,0.0,0.0,1.5,2.75,1.75,3.75,5.25,6.0,4.25,0.08,0.08,1.02,294.82,0.7,-70.6,0.75,0.25,0.25,0.5,2.25,0.0,0.0,4.5,0.0,1.25,0.5,0.0,1.25,2.52,1.64,-0.17,251.65,5.8,-14.1
2.36,0.0,0.0,0.0,0.0,0.0,0.0,1.25,0.0,0.0,0.0,0.0,0.5,3.25,0.08,0.08,0.95,248.48,-4.9,-91.3,0.0,0.0,0.0,0.0,2.25,1.75,0.25,3.0,0.0,0.0,0.75,0.0,0.0,1.77,1.83,2.83,191.56,10.5,3.4
2.38,0.0,0.0,0.0,0.0,0.0,0.0,0.0,0.0,0.0,0.0,0.0,0.5,0.0,0.14,0.02,0.95,175.01,8.8,-109.9,0.0,0.0,0.0,0.0,0.0,0.5,0.0,2.5,0.0,0.25,0.0,0.0,0.0,0.7,1.77,1.7,111.41,17.6,-30.9
2.4,0.0,0.0,0.0,0.0,0.0,0.0,0.0,0.0,0.0,0.0,0.0,2.25,0.0,0.08,0.02,1.02,85.63,8.8,-109.9,0.0,0.0,0.0,0.0,0.0,1.25,0.0,2.0,0.0,0.0,0.0,0.0,0.0,-0.67,0.95,2.39,47.24,19.0,-11.7
2.42,0.0,0.0,0.0,0.0,0.0,0.0,0.0,0.0,0.0,0.0,0.0,1.75,0.0,0.08,0.02,1.02,22.52,8.8,-109.9,0.0,0.0,0.0,0.0,0.0,0.5,0.0,2.25,0.0,0.0,0.0,0.0,0.0,-0.8,0.39,1.08,3.12,17.8,-26.1
2.44,0.0,0.0,0.0,0.0,0.0,0.0,0.0,0.0,0.0,0.0,0.0,2.25,0.0,0.08,0.08,0.95,0.0,8.8,-109.9,0.0,0.0,0.0,0.0,0.0,0.5,0.0,2.0,0.0,0.0,0.0,0.0,0.0,0.45,-0.48,0.14,0.0,17.9,-24.8
2.46,0.0,0.0,0.25,1.75,0.0,0.0,1.0,1.75,1.75,4.0,7.5,7.5,6.0,0.14,0.02,1.08,149.54,1.4,-75.8,0.0,0.0,0.0,0.0,0.0,0.5,0.0,1.75,0.0,0.0,0.0,0.0,0.0,0.77,-0.92,-0.36,0.0,18.0,-23.3
2.48,0.0,0.0,3.5,1.75,0.0,0.0,0.75,1.75,1.25,3.75,7.25,7.0,6.0,0.14,0.08,1.39,282.5,4.9,-62.3,0.0,0.0,0.0,0.0,0.0,0.5,0.0,1.75,0.0,0.0,0.0,0.0,0.0,0.14,-0.61,-0.3,0.0,18.0,-23.3
2.5,0.0,0.0,2.75,1.75,0.0,0.0,0.5,1.75,1.0,0.0,6.75,1.0,5.25,-0.3,-0.11,1.2,336.08,6.5,-49.4,0.5,0.25,0.0,0.5,1.75,2.75,0.25,2.5,0.0,0.0,0.75,0.25,0.75,0.14,-0.3,0.08,15.54,7.4,3.6
2.52,0.0,0.0,0.0,0.0,0.0,0.0,0.0,0.0,0.0,0.0,0.0,0.25,0.0,0.27,-0.11,0.89,261.92,8.8,-109.9,0.0,0.0,0.0,0.5,1.25,2.5,0.25,1.75,0.0,0.75,0.5,0.25,0.75,0.45,0.2,0.39,54.26,10.6,-9.6
2.54,0.0,0.0,1.0,0.0,0.0,0.0,3.0,0.0,2.25,0.0,0.0,3.5,0.0,0.58,-0.05,0.77,200.87,17.6,-44.7,0.0,0.0,0.0,0.0,0.0,0.5,0.0,1.5,0.0,0.0,0.0,0.0,0.0,1.27,0.45,0.08,55.54,18.2,-21.3
2.56,0.0,0.0,0.0,0.0,0.0,0.0,4.0,4.5,3.25,0.0,3.0,2.25,0.5,0.52,-0.17,0.77,165.8,4.5,-50.2,0.75,0.0,0.0,0.5,1.25,2.5,0.5,1.75,0.0,0.75,0.5,0.25,0.75,1.95,0.7,-0.17,87.5,6.6,-1.0
2.58,0.0,0.0,0.0,0.0,0.0,0.0,4.75,3.25,2.5,0.0,1.0,1.75,0.0,0.95,-0.55,1.27,159.09,7.0,-39.5,0.75,0.0,0.0,0.5,0.5,2.0,0.0,1.75,0.0,0.75,0.75,0.25,0.0,2.33,0.64,-0.17,103.48,5.9,-1.7
2.6,0.5,0.0,0.0,0.0,0.0,0.0,4.25,0.0,0.0,0.0,3.5,0.0,0.0,1.39,-0.61,1.77,159.54,20.1,-26.1,0.75,0.0,0.0,0.5,1.25,1.0,0.25,1.75,0.0,0.0,0.75,0.0,0.5,2.27,0.33,0.14,114.35,2.6,4.8
2.62,0.0,0.0,0.0,0.25,0.0,0.0,0.0,0.0,0.0,0.5,0.0,0.0,0.0,1.77,-0.67,1.64,110.35,-4.3,-29.6,0.0,0.0,0.0,0.0,0.0,0.5,0.0,1.25,0.0,0.0,0.0,0.0,0.0,1.58,0.27,0.45,91.46,18.4,-18.8
2.64,0.0,0.0,0.0,0.0,0.0,0.0,0.0,0.0,0.0,0.0,0.0,1.0,0.0,1.14,-0.05,0.39,48.18,8.8,-109.9,0.0,0.0,0.0,0.0,0.0,0.5,0.0,1.5,0.0,0.0,0.0,0.0,0.0,0.64,0.33,0.45,70.47,18.2,-21.3
2.66,0.0,0.0,0.0,0.0,0.0,0.0,0.0,0.0,0.0,0.0,0.0,0.0,0.0,0.7,0.08,1.52,0.0,0.0,0.0,0.0,0.0,0.0,0.0,0.0,0.5,0.0,1.25,0.0,0.0,0.0,0.0,0.0,-0.05,0.33,0.2,41.9,18.4,-18.8
2.68,0.0,0.0,0.0,0.0,0.0,0.0,0.0,0.0,0.0,0.0,0.0,0.0,0.0,-0.48,-0.05,1.39,0.0,0.0,0.0,0.0,0.0,0.0,0.0,0.0,0.5,0.0,1.0,0.0,0.0,0.0,0.0,0.0,-0.23,0.33,-0.3,25.19,18.7,-15.4
2.7,0.0,0.0,0.0,0.0,0.0,0.0,0.0,0.0,0.0,0.0,0.0,0.0,0.0,-0.23,-0.23,1.33,0.0,0.0,0.0,0.0,0.0,0.0,0.0,0.0,0.5,0.0,0.25,0.0,0.0,0.0,0.0,0.0,-0.11,0.27,-0.48,11.34,20.7,8.8
2.72,0.0,0.0,0.0,0.0,0.0,0.0,0.0,0.0,0.0,0.0,0.0,0.0,0.0,-0.23,-0.17,0.89,0.0,0.0,0.0,0.0,0.0,0.0,0.0,0.0,0.5,0.0,0.75,0.0,0.0,0.0,0.0,0.0,0.2,0.27,-0.42,4.29,19.1,-10.6
2.74,0.0,0.0,0.0,0.0,0.0,0.0,0.25,0.0,0.0,0.0,0.0,0.0,0.0,0.02,-0.17,0.83,0.0,32.4,27.3,0.0,0.0,0.0,0.0,0.0,0.5,0.0,0.5,0.0,0.0,0.0,0.0,0.0,0.52,0.08,-0.36,0.0,19.7,-3.3
2.76,0.0,0.0,0.0,0.0,0.0,0.0,0.75,0.0,0.0,0.0,0.0,0.0,0.0,0.33,-0.17,0.77,0.0,32.4,27.3,0.0,0.0,0.0,0.0,0.0,0.5,0.0,0.25,0.0,0.0,0.0,0.0,0.0,0.89,-0.05,-0.3,0.0,20.7,8.8
2.78,0.0,0.0,0.0,0.0,0.0,0.0,2.5,1.25,0.0,0.0,0.0,0.0,0.0,0.58,-0.23,0.7,0.0,7.2,-6.4,0.0,0.0,0.0,0.0,0.0,0.25,0.0,0.5,0.0,1.0,0.0,0.25,0.0,1.14,-0.05,-0.55,6.26,13.7,-57.5
2.8,0.0,0.0,0.0,0.0,0.0,0.0,2.5,1.75,0.0,0.0,0.0,0.0,0.0,0.7,-0.3,0.58,3.2,3.1,-11.8,0.0,0.0,0.0,0.0,0.0,0.5,0.25,0.25,0.0,0.0,0.0,0.0,0.0,1.08,-0.17,-0.48,2.49,13.2,11.4
2.82,0.0,0.0,0.0,0.0,0.0,0.0,2.0,1.0,0.0,0.0,0.0,0.0,0.0,0.58,-0.48,0.58,23.03,7.2,-6.4,0.0,0.0,0.0,0.0,0.0,0.5,0.0,0.25,0.0,0.0,0.0,0.0,0.0,1.02,-0.05,-0.36,6.69,20.7,8.8
2.84,0.0,0.0,0.0,0.0,0.0,0.0,2.75,2.5,0.25,0.0,0.0,0.0,0.0,0.7,-0.48,0.39,45.36,0.9,-17.3,0.0,0.0,0.0,0.0,0.0,0.5,0.5,1.5,0.0,0.0,0.25,0.0,0.0,1.08,-0.05,-0.36,16.86,10.4,-21.9
2.86,0.0,0.0,0.0,0.0,0.0,0.0,2.75,1.5,0.75,0.0,0.0,0.0,0.0,0.7,-0.48,0.14,56.84,7.4,-14.2,0.5,0.0,0.0,0.5,0.0,1.5,0.25,1.75,0.0,0.75,1.0,0.25,0.0,0.89,-0.23,-0.11,48.98,5.0,-15.5
2.88,0.0,0.0,0.25,1.75,0.0,0.0,0.25,1.75,0.0,0.75,0.0,0.5,1.0,0.58,-0.42,0.14,75.68,-0.8,-26.7,0.75,0.0,0.0,0.5,1.25,1.25,0.25,1.5,0.0,0.75,0.75,0.25,0.5,0.83,-0.23,0.27,81.68,3.6,-4.3
2.9,0.0,0.0,0.0,1.5,0.0,0.0,0.5,1.0,0.5,1.25,0.0,0.75,0.25,0.58,-0.42,0.14,86.81,1.3,-29.6,0.5,0.0,0.0,0.5,1.5,1.75,0.25,1.5,0.0,0.75,1.25,0.25,0.0,0.83,-0.05,0.14,112.2,4.3,-0.5
2.92,0.25,0.0,1.0,0.75,0.0,0.0,0.25,1.25,0.0,0.25,0.0,0.5,1.0,0.58,-0.36,0.2,94.24,5.8,-19.3,0.5,0.0,0.0,0.5,1.25,1.25,0.25,1.75,0.0,0.75,0.5,0.25,0.25,0.7,0.27,-0.05,126.57,5.5,-2.7
2.94,0.0,0.0,0.0,0.0,0.0,0.0,0.0,0.25,0.0,0.5,0.0,0.25,0.25,0.45,-0.23,0.08,75.35,-10.6,-82.0,0.5,0.0,0.0,0.5,1.75,1.0,0.25,1.25,0.0,0.75,0.5,0.25,0.0,0.77,0.33,-0.23,130.13,3.5,7.4
2.96,0.0,0.0,1.25,0.0,0.0,0.0,0.25,0.75,0.0,0.5,0.0,0.5,0.5,0.39,-0.17,0.02,67.4,8.2,-26.2,0.5,0.0,0.5,0.5,1.25,1.0,0.25,1.75,0.0,0.75,0.5,0.25,0.0,0.58,0.14,-0.23,129.02,1.5,4.4
2.98,0.0,0.0,1.25,0.0,0.0,0.0,0.25,1.0,0.0,0.5,0.0,0.25,1.0,0.27,-0.05,-0.17,61.3,3.9,-32.3,0.5,0.25,0.25,0.5,0.5,1.25,0.0,1.75,0.0,0.75,0.25,0.25,0.25,0.64,0.14,-0.11,124.3,4.6,-1.5
3.0,0.0,0.0,0.25,0.0,0.0,0.0,0.25,1.0,0.0,0.25,0.5,0.5,1.0,0.14,-0.11,0.08,61.78,-3.1,-66.8,0.5,0.0,0.0,0.5,0.0,1.5,0.25,1.5,0.0,0.75,0.75,0.25,0.0,0.89,0.14,-0.11,115.92,5.2,-12.0
3.02,0.0,0.0,0.25,1.0,0.0,0.0,0.0,0.5,0.0,0.5,0.25,0.75,0.5,0.33,-0.11,0.2,60.87,3.6,-36.1,0.75,0.0,0.0,0.5,0.0,1.75,0.25,1.75,0.0,0.75,0.75,0.25,0.5,0.89,0.33,-0.05,112.95,5.5,-14.9
3.04,0.0,0.0,1.0,1.0,0.0,0.0,0.25,0.25,0.0,0.5,0.5,0.5,1.0,0.39,0.08,0.02,66.96,9.0,-25.2,0.5,0.0,0.0,0.5,0.0,1.0,0.25,1.75,0.0,0.75,0.75,0.25,0.25,0.83,0.45,-0.11,105.42,4.6,-21.3
3.06,0.0,0.0,1.25,1.0,0.0,0.0,0.25,1.0,0.0,1.0,0.75,0.75,0.75,0.45,0.14,0.02,79.01,6.3,-28.8,0.5,0.25,0.0,0.5,0.25,1.0,0.25,1.75,0.0,0.75,0.5,0.25,0.0,0.77,0.58,-0.17,98.92,4.0,-6.1
3.08,0.25,0.0,0.75,1.0,0.0,0.0,0.25,1.75,0.0,0.5,0.75,0.75,1.0,0.52,0.2,-0.05,89.98,3.2,-32.0,0.25,0.0,0.0,0.5,1.25,1.25,0.25,1.75,0.0,0.75,0.5,0.25,0.5,0.7,0.52,-0.11,98.03,7.1,-9.7
3.1,0.0,0.0,1.0,1.0,0.0,0.0,0.25,1.75,0.0,0.5,0.5,0.5,0.75,0.58,0.27,-0.11,97.0,3.7,-24.9,0.5,0.0,0.0,0.5,1.25,1.25,0.0,1.25,0.0,0.75,0.75,0.25,0.5,0.7,0.58,0.02,99.15,5.0,-7.0
3.12,0.0,0.0,1.25,0.5,0.0,0.0,0.25,1.75,0.25,0.75,0.5,0.5,1.0,0.52,0.2,0.27,101.68,2.9,-33.8,0.75,0.0,0.5,0.5,0.5,1.5,0.25,1.75,0.0,0.75,0.75,0.25,0.0,0.77,0.64,0.02,104.03,1.1,0.8
3.14,0.0,0.0,1.0,0.5,0.0,0.0,0.25,1.0,0.0,1.0,0.75,0.5,0.75,1.02,0.27,0.77,100.51,3.7,-37.4,0.5,0.0,0.0,0.5,1.25,0.75,0.25,1.75,0.0,0.75,0.5,0.25,0.5,0.89,0.7,-0.11,106.48,4.6,-9.1
3.16,0.0,0.0,0.75,0.5,0.0,0.0,0.25,1.75,0.0,0.75,0.5,0.75,0.5,1.2,0.45,0.33,98.76,1.0,-38.6,0.75,0.0,0.0,0.5,1.75,1.0,0.25,1.75,0.0,0.75,0.75,0.25,0.75,0.89,0.83,-0.23,116.33,3.8,-5.6
3.18,0.25,0.0,0.75,0.5,0.0,0.0,0.25,1.0,0.25,0.5,0.0,0.5,0.5,1.39,0.45,0.39,89.76,5.9,-21.2,0.5,0.0,0.0,0.5,1.5,1.5,0.25,1.75,0.0,0.75,0.5,0.25,0.5,0.77,0.77,-0.23,120.21,6.2,-3.0
3.2,0.25,0.0,0.75,0.75,0.0,0.0,0.25,1.0,0.25,1.0,0.5,0.75,0.5,1.27,0.2,0.52,87.0,5.1,-30.5,0.5,0.0,0.25,0.5,1.0,1.0,0.25,1.5,0.0,0.75,0.5,0.25,0.25,0.7,0.52,-0.17,118.14,2.8,-2.6
3.22,0.25,0.0,0.5,0.5,0.0,0.0,0.25,1.75,0.25,0.75,0.5,0.5,1.0,1.27,0.14,0.39,87.9,-0.2,-40.7,0.75,0.0,0.0,0.5,1.5,0.75,0.25,1.75,0.0,0.75,0.5,0.25,0.5,0.7,0.39,-0.05,118.04,3.3,-3.4
3.24,0.0,0.0,1.25,1.0,0.0,0.0,0.25,1.75,0.5,0.5,0.5,1.0,0.5,1.27,0.08,0.45,96.13,6.5,-25.6,0.5,0.0,0.0,0.5,1.5,1.25,0.25,1.5,0.0,0.75,0.5,0.25,0.0,0.83,0.33,-0.05,114.9,4.7,4.8
3.26,0.25,0.0,1.25,0.75,0.0,0.0,0.25,1.25,0.25,0.75,0.5,0.5,0.75,1.33,0.02,0.52,98.3,6.8,-21.8,0.75,0.0,0.0,0.5,1.5,1.25,0.0,1.75,0.0,0.75,0.75,0.25,0.0,0.95,0.33,-0.17,115.25,3.9,3.3
3.28,0.25,0.0,0.75,0.5,0.0,0.0,0.25,1.25,0.25,1.0,0.25,0.5,0.75,1.27,-0.05,0.45,95.25,2.3,-33.1,0.5,0.25,0.0,0.5,2.75,1.25,0.25,1.25,0.0,0.75,0.0,0.25,0.5,0.95,0.27,-0.17,121.77,5.0,14.8
3.3,0.0,0.0,1.0,0.75,0.0,0.0,0.25,0.5,0.25,0.75,0.25,0.5,0.5,1.14,-0.05,0.39,84.81,8.4,-22.0,0.75,0.0,0.0,0.5,1.5,1.25,0.25,1.25,0.0,0.75,0.75,0.25,0.25,0.95,0.27,-0.11,122.14,2.8,2.6
3.32,0.25,0.0,0.25,0.5,0.0,0.0,0.25,1.25,0.25,0.75,0.5,0.5,0.5,1.08,-0.11,0.45,78.26,0.7,-39.0,0.5,0.0,0.5,0.5,1.75,1.0,0.25,1.75,0.0,0.75,0.5,0.25,0.0,0.95,0.33,-0.11,122.46,1.6,8.0
3.34,0.25,0.0,1.0,0.75,0.0,0.0,0.25,0.75,0.25,0.75,0.25,0.75,0.5,0.89,-0.11,0.45,76.33,8.4,-21.7,0.5,0.0,0.25,0.5,2.25,0.75,0.25,1.5,0.0,0.75,0.75,0.25,0.5,0.83,0.39,-0.11,124.2,2.3,0.5
3.36,0.25,0.0,0.25,0.5,0.0,0.0,0.25,1.0,0.25,0.75,0.0,0.5,0.5,0.77,-0.17,0.45,70.83,0.6,-34.7,0.5,0.0,0.0,0.5,2.25,1.25,0.25,1.5,0.0,0.75,1.0,0.0,0.5,0.77,0.39,-0.05,127.62,4.6,1.6
3.38,0.25,0.0,1.25,0.75,0.0,0.0,0.25,1.25,0.25,0.5,0.0,0.75,0.75,0.7,-0.11,0.45,76.33,7.5,-18.9,0.5,0.0,0.0,0.5,1.5,0.75,0.25,1.0,0.0,0.75,1.0,0.25,0.75,0.77,0.39,-0.05,122.87,2.6,-11.5
3.4,0.25,0.0,0.75,0.5,0.0,0.0,0.25,1.75,0.25,0.75,0.0,0.5,0.5,0.7,-0.05,0.45,77.27,1.8,-26.1,0.5,0.0,0.0,0.5,1.5,0.75,0.25,1.75,0.0,0.75,0.5,0.25,0.5,0.77,0.45,-0.05,118.31,4.5,-6.6
3.42,0.25,0.0,0.25,0.5,0.0,0.0,0.25,1.0,0.25,0.5,0.0,0.75,0.75,0.7,-0.05,0.45,75.45,1.2,-41.0,0.75,0.0,0.0,0.5,1.0,0.5,0.25,1.5,0.0,0.75,0.5,0.25,0.5,0.77,0.45,-0.05,109.97,2.1,-8.5
3.44,0.25,0.0,1.25,0.5,0.0,0.0,0.25,1.25,0.25,1.0,0.0,0.5,0.5,0.64,-0.05,0.45,75.78,5.9,-19.3,0.5,0.0,0.25,0.5,1.5,1.25,0.25,1.5,0.0,0.75,0.75,0.25,0.5,0.83,0.39,-0.05,111.6,3.4,-3.1
3.46,0.25,0.0,0.5,0.5,0.0,0.0,0.25,1.5,0.25,0.5,0.0,0.75,0.5,0.7,-0.05,0.45,74.37,2.1,-31.8,0.5,0.0,0.0,0.5,1.75,0.75,0.25,1.5,0.0,0.75,0.5,0.25,0.5,0.83,0.33,0.02,109.74,4.1,-3.1
3.48,0.25,0.0,0.75,0.5,0.0,0.0,0.25,1.0,0.25,0.75,0.0,0.5,0.75,0.77,-0.05,0.45,73.74,3.8,-28.6,0.5,0.0,0.0,0.5,1.5,1.0,0.0,1.5,0.0,0.75,0.75,0.25,0.75,0.83,0.27,0.02,112.61,5.1,-10.5
3.5,0.0,0.0,0.25,0.5,0.0,0.0,0.25,1.25,0.25,1.0,0.0,0.5,0.5,0.77,-0.05,0.45,71.78,-3.0,-44.3,0.5,0.0,0.0,0.5,1.5,1.0,0.25,1.5,0.0,0.75,0.5,0.25,0.25,0.95,0.27,0.02,109.88,4.4,-0.3
3.52,0.25,0.0,0.5,0.75,0.0,0.0,0.25,1.0,0.25,0.75,0.0,0.5,0.5,0.77,-0.05,0.39,71.45,3.6,-24.2,0.5,0.0,0.0,0.5,1.5,1.25,0.25,1.5,0.0,0.75,0.5,0.25,0.25,1.02,0.2,-0.05,109.45,5.0,0.7
3.54,0.25,0.0,0.5,0.5,0.0,0.0,0.25,1.75,0.25,1.0,0.0,0.5,0.5,0.77,-0.05,0.45,73.93,-0.7,-32.6,0.5,0.0,0.0,0.5,1.5,0.75,0.25,1.75,0.0,0.75,0.75,0.25,0.75,0.89,0.2,0.02,110.81,4.4,-12.1
3.56,0.25,0.0,1.25,0.25,0.0,0.0,0.25,0.75,0.25,0.75,0.0,0.5,0.5,0.83,-0.11,0.45,72.96,8.9,-18.5,0.25,0.0,0.5,0.5,1.0,1.25,0.25,1.75,0.0,0.75,0.5,0.25,0.5,0.89,0.27,-0.05,111.25,4.1,-7.3
3.58,0.25,0.0,1.0,1.0,0.0,0.0,0.25,0.0,0.25,1.0,0.0,0.5,0.5,0.83,-0.11,0.45,73.18,11.5,-9.9,0.5,0.0,0.25,0.5,1.0,0.75,0.0,1.75,0.0,0.75,0.75,0.25,0.75,0.83,0.33,-0.11,111.03,3.6,-15.4
3.6,0.25,0.0,1.0,0.5,0.0,0.0,0.25,1.0,0.25,0.75,0.0,0.5,0.75,0.89,-0.11,0.45,74.19,5.5,-24.1,0.5,0.0,0.0,0.5,1.5,0.5,0.25,1.5,0.0,0.75,0.5,0.25,0.75,0.77,0.33,-0.05,109.62,3.8,-10.6
3.62,0.25,0.0,0.25,1.0,0.0,0.0,0.25,0.5,0.25,0.5,0.0,0.5,0.5,0.89,-0.11,0.45,68.49,6.1,-19.2,0.75,0.0,0.0,0.5,1.25,0.5,0.25,1.75,0.0,0.75,0.5,0.25,0.75,0.77,0.39,-0.05,109.68,3.0,-10.6
3.64,0.25,0.0,0.75,0.5,0.0,0.0,0.25,1.0,0.25,0.75,0.0,0.5,0.5,0.95,-0.05,0.45,68.13,4.8,-24.1,0.5,0.0,0.0,0.5,0.0,0.75,0.25,1.5,0.0,0.75,0.5,0.25,0.5,0.77,0.39,-0.05,98.42,4.4,-24.7
3.66,0.25,0.0,0.5,0.5,0.0,0.0,0.25,1.75,0.25,0.5,0.0,0.5,0.5,0.95,-0.05,0.45,68.66,0.7,-28.2,0.5,0.0,0.0,0.5,1.75,0.75,0.25,1.5,0.0,0.75,0.5,0.25,0.5,0.77,0.39,-0.11,100.12,4.1,-3.1
3.68,0.25,0.0,0.75,0.75,0.0,0.0,0.25,0.5,0.25,0.5,0.0,0.5,0.5,0.95,-0.05,0.45,66.96,9.4,-14.1,0.5,0.0,0.25,0.5,1.5,1.25,0.25,1.5,0.0,0.75,0.75,0.25,0.75,0.83,0.39,-0.11,105.4,3.7,-6.4
3.7,0.25,0.0,0.5,0.5,0.0,0.0,0.25,1.5,0.25,0.5,0.0,0.5,0.5,0.95,0.02,0.39,67.73,1.7,-27.6,0.5,0.0,0.0,0.5,1.75,0.75,0.25,1.5,0.0,0.75,0.5,0.25,0.5,0.83,0.33,-0.11,110.88,4.1,-3.1
3.72,0.0,0.0,1.25,0.5,0.0,0.0,0.25,0.0,0.25,0.5,0.0,0.5,0.5,0.95,0.02,0.39,63.69,14.8,-12.5,0.5,0.0,0.0,0.5,1.0,1.25,0.25,1.5,0.0,0.75,0.5,0.25,0.5,0.89,0.33,-0.11,110.8,5.4,-7.7
3.74,0.25,0.0,0.75,0.5,0.0,0.0,0.25,1.25,0.25,0.5,0.0,0.5,0.5,0.89,0.02,0.39,64.82,4.7,-22.1,0.5,0.0,0.0,0.5,1.0,0.5,0.0,1.5,0.0,0.75,1.25,0.25,0.5,0.89,0.33,-0.05,108.21,2.6,-19.8
3.76,0.25,0.0,0.25,1.0,0.0,0.0,0.25,0.0,0.25,0.5,0.0,0.5,0.5,0.89,0.02,0.45,58.95,9.4,-16.3,0.5,0.0,0.0,0.5,1.5,0.75,0.25,1.75,0.0,0.75,0.75,0.25,0.5,0.83,0.33,-0.05,108.14,4.0,-8.8
3.78,0.0,0.0,0.5,1.0,0.0,0.0,0.0,0.75,0.25,0.75,0.25,0.5,0.5,0.89,0.02,0.39,61.34,3.5,-29.0,0.5,0.0,0.0,0.5,1.75,0.75,0.5,1.5,0.0,0.75,0.5,0.25,0.5,0.83,0.33,-0.05,109.01,3.5,-2.6
3.8,0.25,0.0,0.5,1.0,0.0,0.0,0.25,1.0,0.25,0.75,0.0,0.5,0.5,0.83,0.02,0.39,65.03,4.3,-19.8,0.5,0.0,0.0,0.5,1.5,0.5,0.25,1.5,0.0,0.75,0.75,0.25,0.75,0.83,0.39,-0.05,111.16,3.3,-12.7
3.82,0.25,0.0,0.5,1.0,0.0,0.0,0.25,0.5,0.25,0.5,0.0,0.5,0.5,0.83,0.02,0.39,66.4,8.1,-14.2,0.5,0.0,0.0,0.5,2.25,0.75,0.25,1.5,0.0,0.75,0.5,0.25,0.5,0.83,0.39,-0.11,115.7,4.0,0.9
3.84,0.0,0.0,1.0,1.0,0.0,0.0,0.0,1.25,0.25,0.75,0.0,0.5,0.5,0.83,0.02,0.39,71.84,4.6,-19.1,0.5,0.0,0.0,0.5,1.5,0.75,0.25,1.5,0.0,0.75,0.5,0.25,0.75,0.83,0.39,-0.11,115.35,4.4,-9.1
3.86,0.0,0.0,1.0,0.75,0.0,0.0,0.0,1.5,0.25,0.75,0.0,0.5,0.5,0.77,0.02,0.39,76.42,3.0,-23.8,0.5,0.0,0.25,0.5,1.5,0.5,0.25,1.5,0.0,0.75,0.5,0.25,0.75,0.83,0.39,-0.05,114.75,2.3,-8.1
3.88,0.0,0.0,1.0,1.0,0.0,0.0,0.25,0.5,0.25,0.75,0.0,0.5,0.5,0.77,0.02,0.45,76.88,8.8,-14.8,0.5,0.0,0.25,0.5,1.5,0.75,0.25,1.5,0.0,0.75,0.5,0.25,0.5,0.83,0.33,-0.05,113.51,2.6,-3.1
3.9,0.0,0.0,0.75,0.75,0.0,0.0,0.25,0.5,0.25,0.75,0.0,0.5,0.5,0.77,0.02,0.45,72.94,6.4,-24.0,0.5,0.0,0.0,0.5,2.75,0.75,0.25,1.25,0.0,0.75,0.5,0.25,0.75,0.83,0.33,-0.05,117.64,3.9,2.3
3.92,0.0,0.0,1.0,1.0,0.0,0.0,0.25,1.75,0.25,0.75,0.0,0.5,0.5,0.77,0.02,0.39,78.76,3.4,-19.8,0.0,0.0,0.25,0.5,1.75,0.5,0.25,1.5,0.0,0.75,0.5,0.25,0.5,0.83,0.33,-0.05,114.27,4.5,-8.9
3.94,0.0,0.0,1.0,1.0,0.0,0.0,0.0,1.75,0.25,0.75,0.0,0.5,0.5,0.77,0.02,0.39,82.72,2.8,-20.8,0.5,0.0,0.0,0.5,1.5,0.5,0.25,1.75,0.0,0.75,0.75,0.25,1.0,0.83,0.33,-0.05,116.63,4.1,-16.8
3.96,0.0,0.0,0.25,0.75,0.0,0.0,0.25,1.5,0.25,0.5,0.0,0.5,0.5,0.83,0.02,0.39,81.32,-1.2,-34.4,0.5,0.0,0.0,0.5,1.0,0.5,0.0,1.25,0.0,0.75,1.0,0.25,0.5,0.89,0.33,-0.11,108.71,2.5,-17.0
3.98,0.0,0.0,1.25,0.5,0.0,0.0,0.25,1.5,0.25,0.75,0.0,0.5,0.5,0.83,0.02,0.39,81.91,4.7,-22.6,0.5,0.0,0.0,0.5,1.5,0.75,0.25,1.5,0.0,0.75,0.5,0.25,0.5,0.89,0.33,-0.11,106.74,4.1,-5.5
4.0,0.0,0.0,0.75,0.75,0.0,0.0,0.25,1.75,0.25,0.75,0.0,0.5,0.5,0.83,0.02,0.39,81.93,1.1,-27.4,0.5,0.0,0.25,0.5,1.25,0.5,0.25,1.5,0.0,0.75,0.75,0.25,0.75,0.83,0.33,-0.11,104.27,1.9,-12.8
4.02,0.0,0.0,0.75,1.0,0.0,0.0,0.0,1.75,0.25,1.0,0.0,0.5,0.5,0.83,-0.05,0.39,83.43,0.4,-26.8,0.5,0.25,0.25,0.5,1.5,0.75,0.25,1.25,0.0,0.75,0.5,0.25,0.75,0.83,0.33,-0.05,108.4,2.0,-2.1
4.04,0.0,0.0,1.5,0.5,0.0,0.0,0.25,1.0,0.25,0.75,0.0,0.5,0.5,0.89,-0.05,0.39,82.65,8.4,-16.9,0.5,0.0,0.25,0.5,1.5,0.5,0.25,1.75,0.0,0.75,0.5,0.25,0.75,0.77,0.33,-0.11,110.83,2.8,-9.1
4.06,0.0,0.0,0.75,1.0,0.0,0.0,0.25,0.75,0.25,0.5,0.0,0.5,0.5,0.89,-0.05,0.39,79.2,7.0,-17.1,0.5,0.0,0.0,0.5,1.5,1.0,0.0,1.5,0.0,0.75,0.5,0.25,0.75,0.77,0.33,-0.11,112.17,5.6,-8.3
4.08,0.0,0.0,0.25,0.75,0.0,0.0,0.25,0.5,0.25,1.0,0.0,0.5,0.5,0.89,-0.05,0.45,70.85,0.8,-38.5,0.5,0.0,0.0,0.5,1.5,0.5,0.25,1.5,0.0,0.75,0.5,0.25,0.75,0.83,0.33,-0.05,110.88,3.8,-10.6
4.1,0.0,0.0,0.75,0.75,0.0,0.0,0.25,0.75,0.25,0.75,0.0,0.5,0.5,0.89,-0.05,0.39,66.64,5.1,-24.9,0.25,0.0,0.0,0.5,1.5,0.5,0.25,1.5,0.0,0.75,0.5,0.25,0.75,0.83,0.33,-0.05,107.17,5.2,-14.3
4.12,0.0,0.0,1.0,0.75,0.0,0.0,0.0,0.5,0.25,0.75,0.0,0.5,0.5,0.89,-0.05,0.39,64.14,7.6,-20.4,0.5,0.0,0.5,0.5,1.0,0.5,0.25,1.75,0.0,0.75,0.5,0.25,0.75,0.83,0.33,-0.05,106.24,1.3,-11.6
4.14,0.0,0.0,0.5,0.5,0.0,0.0,0.0,1.75,0.25,0.75,0.0,0.5,0.5,0.89,-0.05,0.45,66.17,-2.5,-38.2,0.75,0.0,0.25,0.5,1.5,0.75,0.0,1.75,0.0,0.75,0.5,0.25,0.5,0.83,0.33,-0.11,108.92,2.5,-1.7
4.16,0.0,0.0,0.5,1.0,0.0,0.0,0.25,1.25,0.25,0.75,0.0,0.5,0.5,0.83,-0.05,0.45,67.79,1.8,-26.4,0.5,0.25,0.0,0.5,1.5,0.5,0.25,1.25,0.0,0.75,0.5,0.25,0.75,0.89,0.33,-0.11,110.46,2.8,-5.6
4.18,0.25,0.0,1.0,0.5,0.0,0.0,0.0,1.0,0.25,0.5,0.0,0.5,0.5,0.89,-0.05,0.45,69.33,7.1,-17.8,0.5,0.0,0.25,0.5,0.5,0.5,0.25,1.25,0.0,0.75,0.75,0.25,0.75,0.83,0.33,-0.11,104.78,1.1,-21.0
4.2,0.0,0.0,0.25,1.0,0.0,0.0,0.0,0.5,0.25,1.0,0.0,0.5,0.5,0.89,-0.05,0.45,67.07,1.0,-34.2,0.5,0.0,0.0,0.5,1.75,0.5,0.0,1.5,0.0,0.75,0.5,0.25,0.75,0.83,0.33,-0.11,105.08,4.4,-8.6
4.22,0.0,0.0,0.75,0.75,0.0,0.0,0.0,0.5,0.25,1.0,0.0,0.5,0.75,0.83,0.02,0.45,66.01,3.4,-33.0,0.25,0.0,0.0,0.5,1.5,0.5,0.25,1.75,0.0,0.5,0.5,0.25,0.75,0.83,0.33,-0.05,102.03,5.2,-12.9
4.24,0.25,0.0,0.25,0.5,0.0,0.0,0.25,0.75,0.25,1.0,0.0,0.5,0.5,0.89,0.02,0.45,64.17,0.7,-36.9,0.5,0.0,0.0,0.5,1.25,0.5,0.25,1.5,0.0,0.75,0.5,0.25,0.75,0.83,0.33,-0.11,101.58,3.9,-13.3
4.26,0.25,0.0,1.0,1.0,0.0,0.0,0.25,0.0,0.25,0.75,0.0,0.5,0.5,0.83,0.02,0.45,65.45,13.0,-6.2,0.25,0.0,0.0,0.5,2.25,0.75,0.25,1.25,0.0,0.75,0.5,0.25,0.75,0.83,0.33,-0.11,105.88,5.1,-4.3
4.28,0.0,0.0,1.0,0.5,0.0,0.0,0.0,0.0,0.25,0.75,0.0,0.5,0.75,0.83,0.02,0.45,63.25,8.7,-29.4,0.75,0.0,0.0,0.5,1.75,0.5,0.25,1.25,0.0,0.75,0.5,0.25,0.75,0.83,0.33,-0.05,109.32,2.1,-3.6
4.3,0.25,0.0,0.25,1.0,0.0,0.0,0.0,0.0,0.25,0.5,0.0,0.5,0.75,0.83,0.02,0.45,60.11,7.0,-24.6,0.5,0.0,0.0,0.5,2.25,0.5,0.25,1.25,0.0,0.75,0.25,0.25,1.0,0.83,0.33,-0.05,113.44,4.1,-3.7
4.32,0.0,0.0,1.0,0.75,0.0,0.0,0.25,0.25,0.25,0.75,0.0,0.5,0.75,0.83,-0.05,0.45,60.39,8.4,-23.3,0.5,0.0,0.0,0.5,1.5,0.5,0.25,1.5,0.0,0.75,0.5,0.25,0.75,0.89,0.33,-0.11,112.41,3.8,-10.6
4.34,0.25,0.0,0.75,1.0,0.0,0.0,0.25,0.0,0.25,0.75,0.0,0.5,0.5,0.83,-0.05,0.52,60.79,11.5,-10.3,0.25,0.0,0.0,0.5,1.5,0.75,0.25,1.5,0.0,0.75,0.5,0.25,0.75,0.89,0.33,-0.11,111.08,5.7,-12.7
4.36,0.0,0.0,1.0,1.25,0.0,0.0,0.25,1.5,0.25,0.75,0.0,0.5,0.75,0.83,-0.05,0.45,72.56,4.1,-19.5,0.5,0.0,0.0,0.5,1.25,0.5,0.5,1.5,0.0,0.75,0.75,0.25,0.75,0.83,0.33,-0.05,108.28,2.7,-14.7
4.38,0.0,0.0,1.0,1.0,0.0,0.0,0.25,0.25,0.25,0.75,0.0,0.5,0.75,0.83,-0.05,0.45,74.9,8.9,-18.7,0.5,0.0,0.0,0.5,1.5,0.5,0.25,1.5,0.0,0.75,0.5,0.25,0.5,0.83,0.33,-0.05,106.31,3.5,-6.8
4.4,0.0,0.0,0.25,1.0,0.0,0.0,0.0,0.25,0.25,0.5,0.0,0.5,0.5,0.83,-0.05,0.45,70.06,4.8,-27.6,0.5,0.0,0.0,0.5,0.5,0.5,0.25,1.5,0.0,0.75,0.5,0.25,0.75,0.83,0.33,-0.11,100.13,3.9,-23.1
