time,left pressure 0[N/cm虏],left pressure 1[N/cm虏],left pressure 2[N/cm虏],left pressure 3[N/cm虏],left pressure 4[N/cm虏],left pressure 5[N/cm虏],left pressure 6[N/cm虏],left pressure 7[N/cm虏],left pressure 8[N/cm虏],left pressure 9[N/cm虏],left pressure 10[N/cm虏],left pressure 11[N/cm虏],left pressure 12[N/cm虏],left acceleration X[g],left acceleration Y[g],left acceleration Z[g],left total force[N],left center of pressure X[mm],left center of pressure Y[mm],right pressure 0[N/cm虏],right pressure 1[N/cm虏],right pressure 2[N/cm虏],right pressure 3[N/cm虏],right pressure 4[N/cm虏],right pressure 5[N/cm虏],right pressure 6[N/cm虏],right pressure 7[N/cm虏],right pressure 8[N/cm虏],right pressure 9[N/cm虏],right pressure 10[N/cm虏],right pressure 11[N/cm虏],right pressure 12[N/cm虏],right acceleration X[g],right acceleration Y[g],right acceleration Z[g],right total force[N],right center of pressure X[mm],right center of pressure Y[mm]
0.02,0.0,0.0,0.75,0.5,0.0,0.0,0.0,2.5,0.5,3.0,0.0,1.25,1.5,-0.42,0.27,2.08,114.88,-5.4,-56.7,1.25,0.0,0.5,1.75,3.75,1.25,0.25,1.0,0.75,0.75,1.25,0.5,0.5,0.33,-0.8,1.08,0.0,-3.2,14.5
0.04,0.0,0.0,1.0,0.5,0.0,0.0,0.0,3.5,1.0,4.25,0.0,1.75,2.25,-0.23,0.39,1.52,167.45,-5.6,-59.0,1.0,0.0,0.5,2.0,3.5,1.25,0.25,1.0,0.75,0.75,1.25,0.25,1.0,0.33,-0.67,0.58,55.21,-2.4,10.7
0.06,0.0,0.0,0.0,0.5,0.0,0.0,0.0,3.75,1.25,4.75,1.0,2.5,2.75,-0.11,0.08,0.89,215.08,-7.2,-71.2,1.25,0.0,0.5,1.75,3.5,1.0,0.25,1.0,0.75,1.0,1.25,0.25,0.75,0.08,-0.48,0.64,105.72,-3.1,11.5
0.08,0.0,0.0,0.0,0.25,0.0,0.0,0.25,4.75,2.25,6.25,2.5,3.0,4.0,-0.17,0.14,0.95,275.93,-6.3,-72.9,0.0,0.0,0.5,0.0,3.75,0.25,0.5,1.0,0.25,0.25,0.0,0.25,0.0,0.02,-0.42,0.77,105.72,1.0,25.9
0.1,0.0,0.0,0.0,0.25,0.0,0.5,0.25,4.75,3.25,6.5,5.75,4.75,5.0,-0.17,0.02,0.95,358.96,-3.6,-73.8,0.0,0.0,0.0,0.0,0.0,0.0,0.25,0.5,0.0,0.0,0.0,0.0,0.0,0.02,-0.3,0.95,62.12,7.2,-26.0
0.12,0.25,0.0,0.0,2.5,0.0,0.75,0.5,6.0,3.75,6.5,6.25,4.75,5.25,-0.17,0.02,0.95,468.55,-2.2,-61.6,0.0,0.0,0.25,0.0,0.0,0.5,0.25,0.5,0.25,0.0,0.0,0.25,0.0,0.02,-0.11,0.95,31.34,0.1,-11.4
0.14,0.5,0.25,2.25,2.5,0.0,1.0,0.75,6.25,4.25,6.5,6.5,4.75,5.25,-0.17,0.02,0.95,578.37,0.5,-51.5,0.0,0.0,0.25,0.0,3.75,0.25,0.25,1.0,0.0,0.0,1.25,0.0,0.75,-0.05,0.02,1.02,50.75,2.5,5.5
0.16,0.25,0.75,2.5,2.5,0.0,1.0,1.0,6.5,4.5,6.5,6.25,4.75,5.25,-0.17,0.02,0.95,655.8,0.7,-49.2,1.25,0.0,0.5,1.25,3.25,1.0,0.25,1.0,0.75,1.0,1.25,0.25,0.5,-0.05,0.2,1.14,104.29,-3.0,11.1
0.18,1.25,0.75,2.5,2.75,0.0,1.25,1.0,6.5,4.5,6.5,6.0,4.75,4.75,-0.17,0.02,0.95,697.73,1.6,-43.9,1.25,0.0,0.5,1.75,3.5,1.0,0.25,1.0,0.75,0.75,1.25,0.25,0.5,-0.05,0.27,1.45,153.82,-3.7,15.6
0.2,1.5,0.75,2.75,3.5,0.0,1.5,1.0,6.5,4.5,6.25,5.75,3.75,4.0,-0.17,0.02,0.95,699.76,2.3,-36.8,1.25,0.0,0.5,1.75,3.5,1.25,0.25,1.0,0.75,0.75,1.25,0.25,0.75,0.08,0.7,1.64,187.52,-2.9,13.5
0.22,1.25,0.5,4.25,4.0,0.0,1.5,1.0,6.25,4.25,5.5,5.5,3.5,4.0,-0.17,0.02,0.95,681.61,3.9,-32.1,1.0,0.25,0.5,1.75,3.25,1.25,0.25,1.0,0.75,1.0,1.25,0.25,0.75,0.14,1.39,1.83,199.27,-2.4,11.2
0.24,1.0,0.75,4.25,4.5,0.0,1.5,1.0,6.0,3.75,5.25,4.5,2.75,2.75,-0.17,0.02,0.95,631.68,4.4,-25.1,1.0,0.25,0.25,1.25,3.5,1.25,0.25,1.0,0.75,0.75,1.25,0.25,0.5,0.08,1.83,2.33,194.71,-1.6,13.4
0.26,1.25,0.5,4.5,4.5,5.25,1.5,1.0,6.0,3.5,4.5,3.25,2.25,2.5,-0.17,0.02,0.95,615.35,3.8,-8.9,1.25,0.0,0.25,1.75,3.5,1.0,0.25,1.0,0.5,0.75,1.25,0.25,0.5,-0.17,2.7,1.95,195.77,-2.9,15.7
0.28,2.75,0.75,5.75,4.5,5.25,1.5,1.0,5.5,3.0,4.25,2.75,1.75,1.5,-0.11,0.02,0.95,601.2,6.6,3.4,1.25,0.0,0.25,1.75,3.5,1.25,0.25,1.0,0.75,0.25,1.25,0.25,0.75,-0.3,3.64,0.83,199.49,-3.0,16.1
0.3,3.0,1.0,6.0,6.25,0.0,1.5,1.0,5.5,2.5,2.75,1.75,1.5,1.5,-0.17,0.08,0.95,557.05,10.2,6.3,0.75,0.25,0.25,1.25,3.5,1.0,0.25,1.0,0.75,0.5,0.75,0.25,0.75,-0.17,4.33,0.02,198.96,-1.1,14.2
0.32,3.0,1.0,6.75,6.5,0.0,1.75,1.0,5.0,2.0,2.5,1.25,0.75,1.0,-0.17,0.08,0.95,502.78,11.7,16.1,1.0,0.0,0.25,2.0,3.25,0.75,0.25,1.0,0.75,1.25,1.25,0.25,1.0,-0.55,4.27,-0.11,205.66,-2.0,4.7
0.34,4.5,2.0,7.0,8.0,4.5,1.5,1.0,4.75,1.5,2.25,0.75,0.75,0.5,-0.17,0.08,0.95,504.81,11.9,32.3,0.0,0.0,0.25,0.0,3.75,0.25,0.25,0.25,0.5,3.0,0.0,1.5,0.5,-0.73,0.33,0.58,193.55,4.2,-20.2
0.36,5.5,2.25,7.5,9.0,0.0,1.75,0.75,4.5,1.0,1.75,0.0,0.75,0.5,-0.11,0.08,1.02,496.98,15.6,37.9,1.25,0.0,0.25,1.75,3.0,1.25,0.25,1.0,0.75,5.75,2.5,2.75,3.75,0.27,-0.61,0.89,235.95,2.1,-38.4
0.38,6.25,3.0,8.0,9.25,0.0,1.75,0.5,3.5,1.0,1.5,0.0,0.5,0.25,-0.17,0.08,0.95,507.67,17.6,46.0,0.0,0.0,0.0,1.0,0.25,1.25,0.0,0.25,1.0,7.75,3.25,4.5,5.5,0.27,0.33,1.77,279.98,5.1,-75.3
0.4,7.0,3.0,8.25,10.5,0.0,2.0,0.25,3.5,0.75,1.25,0.0,0.5,0.25,-0.17,0.14,1.02,526.05,18.0,48.8,1.25,0.0,0.0,0.0,0.25,0.0,0.0,2.75,0.0,7.75,6.5,5.25,7.0,0.02,0.52,2.08,361.84,3.6,-78.3
0.42,7.25,3.75,8.75,10.0,0.0,1.5,0.25,3.25,0.5,1.0,0.0,0.5,0.25,-0.17,0.14,1.02,544.9,19.3,52.4,0.0,0.0,0.0,0.25,0.25,1.25,0.0,5.0,1.0,8.25,7.75,5.75,6.75,0.2,0.2,1.2,462.32,5.2,-75.8
0.44,7.75,4.5,8.75,11.0,0.0,1.0,0.0,2.75,0.25,1.0,0.0,0.5,0.25,-0.17,0.14,1.02,563.09,20.3,56.2,1.75,0.75,0.0,1.75,3.5,3.5,0.5,6.0,2.5,9.5,7.75,6.0,8.0,0.08,0.14,1.02,631.11,3.5,-48.4
0.46,8.25,5.0,9.25,11.5,0.0,1.0,0.0,2.5,0.25,1.0,0.0,0.5,0.25,-0.23,0.2,1.08,592.73,20.8,57.9,1.5,0.75,1.0,1.5,4.25,3.75,1.0,7.5,3.25,9.5,9.0,6.0,8.0,0.14,0.08,0.95,798.25,2.7,-45.4
0.48,8.25,5.25,9.25,11.5,0.0,0.5,0.0,2.25,0.25,1.0,0.0,0.5,0.25,-0.23,0.2,1.08,615.23,21.5,59.0,1.25,0.5,1.75,2.75,4.5,3.75,1.25,8.0,3.0,9.5,9.25,6.0,8.0,0.2,0.08,0.95,951.24,2.0,-42.4
0.5,8.5,5.75,9.25,11.5,0.0,0.0,0.0,2.0,0.25,1.0,0.0,0.0,0.25,-0.23,0.27,1.08,622.67,22.4,62.9,1.25,1.0,2.25,3.0,4.5,4.75,1.25,8.25,3.25,9.5,9.0,6.0,8.0,0.2,0.08,0.95,1061.61,1.9,-38.6
0.52,8.75,5.75,9.25,11.5,0.0,0.0,0.0,1.75,0.25,1.0,0.0,0.0,0.25,-0.23,0.33,1.08,629.43,22.7,63.8,1.75,1.0,2.75,3.5,5.75,5.5,1.25,8.25,3.25,8.75,8.75,5.5,7.5,0.2,0.08,0.95,1124.0,1.2,-31.4
0.54,8.75,0.0,9.25,10.0,0.0,0.0,0.0,1.75,0.25,1.0,0.0,0.25,0.25,-0.3,0.33,1.2,581.37,24.8,56.1,1.25,1.25,2.75,3.25,6.25,5.75,1.25,8.25,3.25,8.5,8.25,4.75,6.75,0.27,0.08,0.95,1128.27,1.6,-28.7
0.56,8.5,0.0,8.75,10.5,0.0,0.0,0.0,0.0,0.25,1.0,0.0,0.0,0.25,-0.36,0.39,1.27,516.11,27.0,62.8,2.5,1.25,2.75,4.5,6.5,6.25,1.25,8.25,2.75,7.75,7.5,3.5,6.0,0.27,0.08,0.95,1106.39,0.9,-19.6
0.58,0.0,0.0,8.75,8.75,0.0,0.0,0.0,0.0,0.25,1.0,0.0,0.25,0.25,-0.48,0.45,1.45,395.32,24.5,47.1,1.5,1.0,2.75,4.75,6.5,6.25,1.25,7.75,2.75,7.0,6.25,3.0,5.0,0.27,0.14,0.95,1039.19,1.2,-17.2
0.6,5.5,0.0,7.5,6.75,0.0,0.0,0.0,0.0,0.25,1.0,0.0,0.0,0.0,-0.67,0.7,1.83,333.43,27.5,61.3,1.5,1.0,2.75,4.75,7.25,6.5,1.0,7.5,2.0,6.5,5.0,2.0,4.25,0.27,0.14,0.95,944.0,1.7,-10.5
0.62,0.0,0.0,5.25,3.5,0.0,0.0,0.0,0.0,0.25,1.0,0.0,0.5,0.0,-0.8,1.58,2.77,241.93,24.2,37.1,1.75,1.5,2.75,5.0,7.75,6.75,0.75,7.25,2.0,6.0,4.0,1.5,3.5,0.27,0.14,0.95,864.03,1.4,-3.2
0.64,0.0,0.0,1.5,0.5,0.0,0.0,0.0,0.0,0.0,0.0,0.0,0.0,0.0,-0.61,0.89,2.33,134.13,32.9,60.2,1.5,1.5,2.75,6.0,8.0,7.0,1.0,7.0,1.5,4.75,2.75,1.0,3.0,0.27,0.14,0.95,787.38,1.2,4.6
0.66,0.0,0.0,0.25,0.0,0.0,0.0,0.0,0.0,2.25,0.0,0.0,0.0,0.0,-0.61,0.02,1.83,27.56,14.9,-28.2,2.0,1.5,2.75,6.25,8.0,7.5,0.75,7.0,1.25,3.75,2.5,0.75,2.5,0.27,0.14,0.95,726.33,0.8,10.2
0.68,0.0,0.0,0.0,0.0,0.0,0.0,0.0,0.0,0.0,0.0,0.0,0.0,0.0,-0.8,-0.92,1.77,0.0,0.0,0.0,2.5,2.5,2.75,6.75,9.0,7.75,0.75,6.5,1.25,3.75,2.25,0.75,2.5,0.27,0.14,0.95,702.98,0.0,15.4
0.7,0.0,0.0,0.0,0.0,0.0,0.0,0.0,0.0,0.0,0.0,0.0,0.0,0.0,-0.48,-0.67,1.14,0.0,0.0,0.0,2.75,2.5,4.0,8.0,9.25,7.75,0.75,6.0,1.0,2.5,1.75,0.75,2.5,0.27,0.14,0.95,710.97,-1.8,22.2
0.72,0.0,0.0,0.0,0.5,0.0,0.0,0.0,0.0,0.25,0.5,0.0,0.0,0.0,-0.67,-0.55,0.33,0.0,3.2,-13.3,3.5,2.5,5.5,9.0,9.5,7.75,0.75,5.25,1.0,2.25,1.5,0.75,2.25,0.27,0.14,0.95,745.74,-4.0,27.6
0.74,0.0,0.0,0.0,0.0,0.0,0.0,0.0,0.0,3.25,0.0,0.0,0.0,0.0,-0.42,-0.42,0.33,0.0,12.2,-38.5,4.0,0.0,7.0,9.25,9.25,7.5,0.75,4.5,0.5,2.25,1.25,0.25,1.75,0.2,0.2,0.95,756.54,-5.5,30.6
0.76,0.0,0.0,0.0,0.0,0.0,0.0,0.0,0.0,0.0,0.0,0.0,0.0,0.0,-0.3,-0.42,0.64,0.0,0.0,0.0,4.5,2.0,7.0,9.75,9.5,7.0,0.5,3.75,0.25,0.75,0.25,0.0,0.75,0.2,0.2,1.02,758.93,-7.7,45.5
0.78,0.0,0.0,0.0,0.0,0.0,0.0,0.0,0.0,0.0,0.0,0.0,0.0,0.0,-0.36,-0.36,0.77,0.0,0.0,0.0,5.0,2.0,8.5,9.75,11.0,7.0,0.75,2.5,0.0,0.75,0.75,0.0,1.25,0.2,0.2,1.08,776.96,-8.9,46.4
0.8,0.0,0.0,1.5,0.75,0.0,0.0,4.0,0.0,0.0,1.0,0.0,0.0,0.0,-0.36,-0.17,0.77,0.0,22.6,22.2,5.75,3.25,8.75,10.5,10.5,6.5,0.25,2.5,0.0,0.75,0.0,0.0,0.5,0.14,0.27,1.02,802.91,-10.3,52.9
0.82,0.0,0.0,0.0,0.5,0.0,0.0,0.0,0.0,0.0,1.0,0.0,0.0,0.25,-0.36,-0.05,0.77,0.0,-5.7,-41.2,6.0,3.75,8.75,10.5,10.5,5.5,0.25,1.25,0.25,1.5,0.0,0.25,0.5,0.14,0.27,1.08,831.27,-11.3,53.1
0.84,0.0,0.0,0.0,1.25,0.0,0.0,0.0,0.0,0.0,1.0,0.0,0.25,0.25,-0.3,0.08,1.08,16.61,1.9,-19.6,6.25,3.25,9.25,9.75,11.5,5.25,0.25,1.0,0.25,0.0,0.0,0.0,0.5,0.08,0.27,1.08,839.8,-12.4,58.1
0.86,0.0,0.0,0.0,1.25,0.0,0.0,0.0,0.0,0.0,1.0,0.0,0.5,0.0,-0.3,0.2,1.33,36.62,4.0,-19.3,6.5,4.25,8.75,10.0,10.5,5.0,0.25,1.0,0.0,0.0,0.0,0.0,0.5,0.08,0.33,1.14,835.02,-12.8,59.9
0.88,0.0,0.0,0.75,0.5,0.0,0.0,0.0,0.0,0.0,1.25,0.0,0.25,0.25,-0.42,0.27,1.64,49.61,5.7,-23.7,6.25,4.0,7.25,11.5,9.75,5.75,0.25,0.75,0.75,0.0,0.0,0.0,0.5,0.14,0.39,1.2,820.97,-12.0,58.1
0.9,0.0,0.0,0.75,0.75,0.0,0.0,0.25,0.0,0.25,1.0,0.0,0.25,0.25,-0.48,0.39,1.89,51.48,9.6,-13.0,6.0,4.0,7.25,8.25,10.0,4.0,0.25,0.25,0.0,0.0,0.0,0.0,0.5,0.2,0.45,1.39,763.27,-13.0,61.7
0.92,0.0,0.0,1.25,0.0,0.0,0.0,1.75,0.0,0.0,0.0,0.25,0.0,0.0,-0.48,0.95,2.45,52.6,33.3,35.1,5.5,3.25,5.25,7.75,8.25,3.5,0.25,0.0,0.25,0.0,0.0,0.0,0.25,0.39,0.58,1.77,666.02,-13.0,62.6
0.94,0.0,0.0,0.0,0.0,0.0,0.0,0.0,0.0,0.0,0.0,0.0,0.0,0.0,-0.36,1.64,2.58,36.45,0.0,0.0,3.0,1.0,2.75,3.0,6.5,1.75,0.25,0.0,0.0,0.0,0.0,0.0,0.25,0.27,1.45,2.58,478.03,-10.9,60.1
0.96,0.75,0.0,0.0,0.0,0.0,0.0,0.0,0.0,0.0,0.0,0.0,0.0,0.0,-0.42,2.7,2.2,22.88,35.0,97.9,1.25,0.0,0.5,1.75,4.25,1.5,0.25,0.0,0.25,0.0,0.0,0.0,0.25,0.39,1.27,2.89,299.51,-4.4,50.4
0.98,0.0,0.0,0.0,0.0,0.0,0.0,0.0,0.0,0.0,0.0,0.0,0.0,0.0,-0.48,4.14,1.2,8.19,0.0,0.0,1.25,0.75,1.25,2.0,4.5,2.25,0.0,0.5,0.0,0.0,0.0,0.0,0.75,-0.05,0.27,1.77,201.78,-3.6,45.7
1.0,0.0,0.0,0.0,0.0,0.0,0.0,0.0,0.0,0.0,0.5,0.0,0.0,0.0,-0.17,4.89,-0.05,4.84,-15.7,-75.5,0.25,0.0,0.5,0.0,0.25,1.0,0.0,0.0,0.0,0.0,0.0,0.0,0.25,0.14,-0.67,1.83,70.74,-0.8,32.8
1.02,0.0,0.0,0.0,0.0,0.0,0.0,0.0,0.0,0.0,0.0,0.0,0.0,0.0,1.89,5.33,0.08,0.0,0.0,0.0,0.0,0.0,0.0,0.0,1.75,0.75,0.0,0.25,0.0,0.25,0.0,0.25,0.0,0.27,-0.73,2.39,0.0,8.2,22.0
1.04,0.0,0.0,0.0,0.75,0.0,0.0,0.0,0.0,0.0,0.0,0.0,0.0,0.0,-0.17,-0.05,0.52,0.0,17.2,57.9,2.0,0.0,0.5,1.75,4.25,1.0,0.25,1.0,0.25,0.75,1.25,0.25,0.75,0.08,-0.8,1.64,0.0,-4.2,21.5
1.06,0.0,0.0,1.75,0.25,0.0,0.0,0.75,0.0,0.5,3.5,0.75,3.5,2.5,0.52,-0.67,0.45,74.5,3.0,-65.8,1.25,0.75,0.25,1.75,3.75,1.0,0.25,1.0,0.5,1.5,1.25,0.25,0.75,0.2,-0.61,0.77,32.45,-2.0,14.0
1.08,0.0,0.0,0.0,1.25,0.0,0.0,0.0,3.0,0.75,5.5,0.0,3.25,4.0,-0.55,0.45,2.27,163.05,-7.4,-72.1,1.0,0.0,0.25,1.25,4.25,1.25,0.25,1.0,0.5,1.0,1.0,0.25,0.75,0.2,-0.55,0.52,72.35,0.0,12.9
1.1,0.0,0.0,0.0,0.0,0.0,0.0,0.0,4.75,1.75,6.25,0.0,4.5,4.25,-0.42,0.7,2.33,252.06,-8.2,-78.5,1.0,0.0,0.5,1.75,3.75,1.25,0.25,1.0,0.75,0.75,0.75,0.25,0.5,0.27,-0.48,0.64,103.84,-2.3,18.7
1.12,0.0,0.0,0.0,0.0,0.0,0.5,0.25,5.75,2.5,6.5,0.0,4.0,5.25,-0.11,0.08,1.14,320.84,-8.6,-73.7,1.25,0.0,0.25,1.25,3.75,0.75,0.25,1.0,0.5,1.25,0.75,0.25,0.75,0.33,-0.3,0.64,124.88,-1.2,11.8
1.14,0.0,0.0,0.0,1.25,0.0,0.75,0.25,6.0,3.25,6.5,6.0,3.75,5.25,-0.17,0.02,0.95,415.54,-4.0,-66.6,1.0,0.0,0.25,1.75,3.75,0.75,0.25,1.0,0.5,0.5,1.0,0.25,0.75,0.33,-0.17,0.64,140.81,-2.5,15.7
1.16,3.0,0.0,2.0,2.5,0.0,1.5,0.5,6.25,3.75,6.5,6.0,3.75,4.0,-0.17,0.02,0.95,516.63,1.9,-40.0,1.0,0.0,0.25,1.5,3.75,1.25,0.25,1.0,0.25,0.75,1.0,0.25,1.0,0.39,0.02,0.7,162.61,-0.4,12.2
1.18,4.5,0.75,4.25,2.75,0.0,1.75,1.0,6.5,4.0,6.25,6.0,3.75,4.0,-0.11,0.02,1.02,621.6,5.1,-26.5,1.25,0.0,0.25,1.75,3.75,1.25,0.25,1.0,0.75,1.0,0.75,0.25,1.0,0.39,0.14,0.95,189.9,-1.2,12.7
1.2,5.75,0.75,4.5,4.25,3.75,1.5,1.0,6.5,4.25,5.5,5.75,3.0,3.0,-0.11,0.02,0.95,730.33,6.4,-9.7,1.0,0.0,0.25,1.5,3.75,1.25,0.25,1.0,0.75,1.0,0.75,0.25,1.0,0.39,0.33,1.2,200.45,-0.3,10.3
1.22,6.5,0.75,5.75,5.25,0.0,1.75,1.0,6.25,4.0,5.0,5.0,2.75,2.75,-0.11,0.02,0.95,786.64,9.2,-7.1,1.25,0.0,0.25,1.5,3.75,1.25,0.25,1.0,0.5,1.0,0.75,0.25,0.75,0.39,0.58,1.45,202.18,-1.0,15.2
1.24,7.25,1.0,6.75,6.5,6.5,2.0,1.25,6.0,3.5,4.0,3.75,1.5,1.5,-0.11,0.02,0.95,860.06,9.5,15.2,1.0,0.5,0.25,1.75,3.75,1.25,0.25,1.0,0.75,0.75,1.25,0.25,0.75,0.45,0.95,1.64,209.52,-2.0,15.2
1.26,7.5,1.75,6.75,7.25,6.75,2.25,1.0,5.5,2.75,3.0,2.75,1.25,1.5,-0.11,0.02,0.95,894.28,10.2,23.3,1.0,0.5,0.25,1.25,3.75,1.25,0.25,1.0,0.5,0.0,0.75,0.25,1.0,0.52,1.39,1.95,198.51,-1.5,21.1
1.28,7.75,2.25,7.25,8.0,5.25,2.25,1.0,5.25,2.25,2.5,1.25,1.25,0.5,-0.11,0.02,0.95,892.83,12.2,32.4,1.25,0.25,0.25,1.75,3.75,0.75,0.25,1.0,0.75,0.75,0.75,0.25,1.0,0.7,1.77,2.33,191.36,-2.6,15.3
1.3,8.25,2.25,7.5,8.0,0.0,2.25,1.0,4.75,1.5,2.5,0.75,1.0,0.25,-0.17,0.08,0.95,804.65,15.6,35.5,0.75,0.25,0.25,1.25,3.75,1.25,0.25,1.0,0.5,0.75,0.5,0.25,1.0,0.39,2.64,1.89,187.29,0.5,13.9
1.32,8.25,2.25,8.0,8.25,6.75,1.75,0.75,4.5,1.25,2.0,0.0,0.75,0.25,-0.11,0.08,0.95,776.56,13.6,43.7,1.25,0.25,0.25,1.5,3.25,1.25,0.25,1.0,0.5,1.0,0.75,0.25,0.75,0.2,3.08,1.14,187.71,-1.4,15.2
1.34,8.25,2.5,8.0,8.25,0.0,1.75,0.5,3.75,0.75,1.0,0.0,0.75,0.25,-0.17,0.08,0.95,680.02,18.8,48.2,0.5,0.5,0.25,1.5,3.5,1.25,0.25,1.0,0.5,0.75,0.75,0.25,0.75,-0.17,3.33,0.08,183.96,0.0,15.0
1.36,8.5,3.25,8.25,9.0,0.0,1.5,0.5,3.5,0.75,1.25,0.0,0.5,0.25,-0.17,0.08,0.95,625.55,19.2,50.8,1.25,0.25,0.25,1.25,3.75,1.25,0.25,1.0,0.5,0.75,0.75,0.25,0.75,-0.98,3.95,0.08,185.25,-1.2,17.8
1.38,8.75,3.75,8.0,9.0,0.0,1.75,0.25,3.5,0.5,1.25,0.0,0.75,0.25,-0.17,0.14,0.95,576.57,18.7,51.1,1.0,0.25,0.0,0.5,2.75,1.25,0.25,1.0,0.75,1.5,1.25,0.5,1.0,-2.17,3.33,0.02,181.03,1.3,-6.4
1.4,8.75,3.75,8.5,9.0,0.0,1.5,0.25,3.25,1.0,1.0,0.0,0.5,0.25,-0.17,0.14,0.95,560.28,19.7,52.7,1.0,0.0,0.25,1.0,3.5,1.0,0.25,1.0,0.0,2.0,2.0,1.25,2.5,-0.17,-0.17,1.58,193.45,1.3,-20.8
1.42,9.0,3.75,8.25,9.0,0.0,0.0,0.25,2.75,0.5,1.0,0.0,0.5,0.25,-0.17,0.14,0.95,530.69,22.0,56.3,0.0,0.0,0.0,0.0,0.0,0.25,0.0,0.0,0.25,4.5,1.5,3.0,3.5,-0.55,0.27,0.64,200.65,6.1,-90.2
1.44,9.0,3.75,8.25,9.25,0.0,0.0,0.0,2.5,0.25,1.25,0.0,0.5,0.25,-0.17,0.14,0.95,514.39,22.0,56.8,0.0,0.0,0.25,0.0,4.25,1.25,0.0,2.25,0.75,7.0,5.0,4.25,6.0,0.08,0.52,3.45,280.78,5.2,-58.0
1.46,9.0,4.0,8.0,10.0,0.0,0.75,0.0,2.5,0.5,1.25,0.0,0.25,0.25,-0.17,0.2,0.95,513.74,20.9,57.1,0.0,0.0,0.0,0.0,1.25,2.0,0.0,4.0,1.5,7.5,6.5,4.25,6.0,0.2,0.33,1.33,366.03,5.8,-68.3
1.48,8.5,4.5,8.0,10.5,0.0,0.5,0.0,2.25,0.25,1.5,0.0,0.5,0.25,-0.17,0.2,0.95,514.76,20.8,56.6,1.25,0.5,0.5,2.0,2.25,4.0,0.0,5.25,2.25,8.5,8.0,5.5,6.5,0.08,0.14,1.02,530.11,3.1,-48.6
1.5,8.75,5.0,8.0,10.0,0.0,0.75,0.0,2.0,0.0,1.5,0.0,0.5,0.25,-0.23,0.27,0.95,530.5,20.9,58.6,2.75,1.0,2.75,2.0,4.25,3.0,1.25,6.25,3.0,8.75,8.5,5.5,6.5,0.14,0.14,0.95,703.96,-0.4,-35.3
1.52,0.0,0.0,7.75,10.5,0.0,1.0,0.0,2.0,0.25,1.0,0.0,0.5,0.25,-0.23,0.27,1.02,457.43,17.8,38.0,3.75,0.75,5.25,3.25,4.25,3.25,1.75,6.75,3.5,8.75,9.0,5.75,6.5,0.14,0.14,0.95,886.64,-2.9,-28.0
1.54,0.0,0.0,8.0,9.75,0.0,0.0,0.0,1.75,0.25,1.0,0.0,0.5,0.25,-0.23,0.27,1.02,382.93,20.2,38.6,4.75,1.0,7.0,3.25,4.25,3.25,2.25,7.0,3.75,8.75,9.0,5.5,6.25,0.14,0.08,0.95,1033.31,-4.5,-22.5
1.56,8.5,0.0,7.75,9.0,0.0,0.0,0.0,1.75,0.25,1.0,0.0,0.5,0.25,-0.23,0.33,1.08,353.24,24.2,54.0,5.5,1.0,8.0,4.5,4.25,3.75,2.5,7.0,4.0,8.5,9.0,5.5,6.0,0.14,0.08,0.95,1163.32,-5.6,-17.5
1.58,7.75,0.0,7.25,9.0,0.0,0.0,0.0,1.75,0.0,0.25,0.0,0.5,0.25,-0.36,0.39,1.27,347.58,24.8,57.2,6.0,1.0,8.75,4.5,4.5,3.75,2.75,6.5,4.0,7.75,8.5,4.75,5.5,0.14,0.08,0.95,1237.86,-6.6,-12.5
1.6,7.5,0.0,6.25,8.25,0.0,0.0,0.0,0.5,0.25,1.0,0.0,1.0,0.25,-0.42,0.39,1.33,340.41,24.8,53.2,6.5,1.0,9.25,4.5,4.25,3.25,3.0,6.0,3.25,7.25,7.75,4.0,5.0,0.14,0.14,0.95,1246.21,-7.8,-8.0
1.62,6.5,0.0,0.0,7.5,0.0,0.0,0.0,0.0,0.25,1.0,0.0,0.5,0.0,-0.55,0.52,1.58,292.79,21.6,58.0,7.0,1.0,10.5,5.25,4.5,3.25,3.0,5.25,2.75,6.25,6.75,3.0,3.75,0.14,0.14,0.95,1210.2,-9.8,1.9
1.64,4.5,0.0,0.0,4.5,0.0,0.0,0.0,0.0,0.25,0.25,0.0,0.5,0.0,-0.67,0.64,2.39,229.97,23.3,60.6,7.25,1.0,10.5,5.5,4.5,3.25,3.0,5.25,2.5,5.25,5.5,2.25,3.0,0.14,0.14,0.95,1133.2,-10.6,8.6
1.66,0.0,0.0,0.0,0.0,0.0,0.0,0.0,0.0,0.25,1.0,0.0,0.0,0.0,-0.8,1.33,2.7,115.76,-10.1,-68.2,7.5,1.25,11.5,5.75,4.5,3.25,3.0,4.0,2.0,3.75,4.5,1.5,2.5,0.14,0.14,0.95,1038.2,-12.9,18.8
1.68,0.0,0.0,0.0,2.5,0.0,0.0,0.0,0.0,0.0,0.0,0.0,0.0,0.0,-0.3,0.77,2.2,26.82,17.2,57.9,7.75,1.0,11.5,6.0,4.5,3.75,3.0,4.0,2.0,3.5,3.75,1.5,1.75,0.14,0.14,0.95,943.27,-13.3,22.7
1.7,0.0,0.0,0.0,0.0,0.0,0.0,0.0,0.0,0.25,0.0,0.0,0.0,0.0,-0.8,0.02,1.64,0.0,12.1,-38.5,8.0,1.25,12.0,6.25,4.5,3.75,2.75,3.0,1.5,2.5,3.25,1.25,1.5,0.14,0.14,0.95,871.34,-15.0,30.0
1.72,0.0,0.0,0.5,1.75,0.0,0.0,0.0,0.0,0.25,0.75,0.0,0.0,0.0,0.2,-1.61,1.14,0.0,12.6,21.3,8.25,1.0,12.5,6.25,4.5,3.75,2.5,2.5,1.5,2.25,2.5,0.75,1.5,0.08,0.14,0.95,804.58,-15.9,34.5
1.74,0.0,0.0,0.0,0.25,0.0,0.0,0.0,0.0,0.0,0.0,0.0,0.0,0.0,0.14,-0.92,2.2,0.0,17.2,57.9,8.25,0.75,13.0,7.25,4.5,3.75,2.5,2.5,1.25,2.25,2.25,0.75,1.5,0.08,0.14,0.89,768.3,-16.2,35.8
1.76,0.0,0.0,0.0,0.5,0.0,0.0,0.0,0.0,0.0,1.0,0.0,0.0,0.0,-0.05,-0.61,1.02,0.0,-4.3,-29.6,8.5,1.0,13.0,7.75,4.5,3.25,2.5,2.5,1.25,2.25,2.5,0.75,1.25,0.08,0.14,0.89,753.96,-16.8,36.9
1.78,0.0,0.0,0.0,0.5,0.0,0.0,0.0,0.0,0.0,0.0,0.0,0.0,0.0,-0.3,-0.42,0.33,0.0,17.2,57.9,8.75,1.5,13.0,8.25,4.75,3.75,2.5,2.5,1.0,1.75,1.5,0.5,1.25,0.08,0.14,0.95,756.06,-16.8,42.5
1.8,0.0,0.0,0.0,0.5,0.0,0.0,0.0,0.0,0.0,0.0,0.0,0.0,0.0,-0.3,-0.48,0.58,0.0,17.2,57.9,9.0,1.75,13.5,8.75,5.25,3.75,2.5,2.5,0.75,0.75,1.5,0.25,1.5,0.08,0.14,0.95,772.99,-17.4,46.1
1.82,0.0,0.0,0.25,0.5,0.0,0.0,0.0,0.0,0.0,0.0,0.0,0.0,0.0,-0.36,-0.36,0.64,0.0,24.1,58.9,9.0,1.75,13.5,8.75,5.5,3.75,2.5,2.5,1.0,1.25,1.25,0.5,1.0,0.08,0.14,0.95,798.76,-17.3,46.0
1.84,0.0,0.0,0.5,0.5,0.0,0.0,0.0,0.0,0.0,0.0,0.0,0.0,0.0,-0.36,-0.23,0.64,0.0,27.6,59.4,8.25,1.25,14.0,9.25,6.0,3.75,2.5,2.5,0.75,1.5,1.25,0.25,1.0,0.08,0.2,0.95,822.27,-16.9,45.6
1.86,0.0,0.0,0.25,0.5,0.0,0.0,0.0,0.0,0.0,0.0,0.0,0.0,0.0,-0.36,-0.11,0.77,0.0,24.1,58.9,8.5,1.25,12.0,8.25,4.5,2.75,1.75,1.0,0.5,0.25,1.25,0.0,0.5,0.08,0.2,0.95,772.13,-20.2,54.8
1.88,0.0,0.0,0.25,0.25,0.0,0.0,0.0,0.0,0.0,0.0,0.0,0.0,0.0,-0.36,0.02,0.89,1.3,27.6,59.4,8.5,1.75,11.5,9.25,5.25,2.75,1.25,1.0,0.75,1.5,0.0,0.25,0.0,0.08,0.2,1.02,736.53,-18.8,55.8
1.9,0.0,0.0,0.0,0.25,0.0,0.0,0.0,0.0,0.0,0.0,0.0,0.0,0.0,-0.42,0.14,1.14,7.09,17.2,57.9,8.25,0.5,11.5,9.5,6.25,3.75,1.25,1.0,0.25,0.0,0.0,0.0,0.25,0.02,0.2,1.08,693.49,-18.6,59.4
1.92,0.0,0.0,0.0,0.5,0.0,0.0,0.0,0.0,0.0,0.0,0.0,0.0,0.0,-0.55,0.2,1.33,5.19,17.2,57.9,8.25,2.5,10.5,8.75,6.5,3.25,0.5,1.0,0.5,0.75,0.0,0.25,0.25,0.08,0.27,1.2,680.07,-17.3,58.0
1.94,0.0,0.0,0.0,0.5,0.0,0.0,0.0,0.0,0.0,0.0,0.0,0.0,0.0,-0.73,0.33,1.64,6.01,17.2,57.9,7.75,1.75,9.25,8.25,6.75,3.0,0.25,1.0,0.0,0.0,0.0,0.0,0.0,0.14,0.27,1.33,641.8,-17.5,62.7
1.96,0.0,0.0,0.0,0.5,0.0,0.0,0.0,0.0,0.0,0.0,0.0,0.25,0.0,-0.92,0.52,2.02,6.63,14.5,3.9,7.0,0.25,8.75,6.25,6.75,0.0,0.25,0.75,0.25,0.0,0.0,0.0,0.0,0.14,0.33,1.39,564.42,-21.0,63.1
1.98,0.0,0.0,0.0,0.75,0.0,0.0,0.0,0.0,0.25,0.0,0.0,0.0,0.0,-1.05,0.83,2.45,12.45,16.0,34.8,5.25,1.0,6.75,4.5,6.5,1.25,0.25,0.0,0.25,0.0,0.0,0.0,0.0,0.08,0.27,1.58,461.23,-18.2,64.3
2.0,0.0,0.0,0.0,0.5,0.0,0.0,0.0,0.0,0.0,0.0,0.0,0.0,0.0,-1.42,1.77,2.2,11.85,17.2,57.9,3.5,0.75,5.0,2.0,4.25,1.25,0.25,0.0,0.0,0.0,0.0,0.0,0.0,0.02,0.39,1.64,338.36,-18.1,65.0
2.02,0.0,0.0,0.0,0.0,0.0,0.0,0.0,0.0,0.0,0.0,0.0,0.0,0.0,-1.17,4.95,1.52,8.54,0.0,0.0,1.75,0.0,4.0,1.75,4.5,1.0,0.25,0.0,0.0,0.0,0.5,0.0,0.0,0.2,0.58,1.58,250.27,-15.1,55.4
2.04,0.0,0.0,0.0,0.0,0.0,0.0,0.0,0.0,0.0,0.0,0.0,0.0,0.0,-0.61,4.45,1.2,3.82,0.0,0.0,0.75,0.0,1.75,1.0,2.5,1.0,0.25,0.0,0.0,0.0,0.0,0.0,0.0,0.39,-0.17,1.45,150.62,-11.2,57.1
2.06,0.0,0.0,0.0,0.0,0.0,0.0,0.0,0.0,0.0,0.0,0.0,0.0,0.0,0.77,5.08,-0.05,0.04,0.0,0.0,1.75,0.0,0.5,2.0,1.5,1.25,0.25,0.0,0.5,0.25,0.0,0.0,0.0,-0.55,-1.92,2.39,80.5,-10.7,51.2
2.08,0.0,0.0,0.0,0.0,0.0,0.0,0.0,0.0,0.0,0.0,0.0,0.0,0.0,1.39,5.64,-0.36,0.0,0.0,0.0,1.25,0.25,2.75,2.0,4.25,0.75,0.25,1.0,0.5,1.0,1.25,0.25,0.5,-0.11,-1.05,0.58,80.71,-8.5,25.1
2.1,0.5,0.0,0.0,0.5,0.0,0.0,0.0,0.0,0.0,1.75,0.0,1.75,1.5,0.39,-0.55,0.83,34.28,-1.2,-69.2,1.25,0.0,1.75,2.0,4.25,1.0,0.25,1.0,0.25,0.75,1.25,0.25,0.75,-0.48,-0.98,0.77,104.59,-5.9,21.9
2.12,0.0,0.0,0.75,0.5,0.0,0.0,0.0,0.0,0.0,3.0,0.0,2.75,4.0,-0.36,0.2,1.45,97.23,-3.6,-80.9,1.25,0.25,1.0,2.5,4.25,1.25,0.0,1.0,0.75,0.75,1.0,0.25,0.5,-1.05,-0.92,1.27,131.44,-4.6,24.4
2.14,0.0,0.0,0.75,0.5,0.0,0.0,0.0,3.5,0.0,4.75,1.75,2.75,5.0,-0.61,0.33,1.64,189.18,-6.4,-73.7,0.5,0.0,0.75,1.25,4.25,0.5,0.0,1.0,0.0,0.0,0.75,0.0,0.75,-0.86,-0.55,0.95,127.62,-2.0,25.8
2.16,0.0,0.0,0.0,0.0,0.0,0.0,0.0,0.0,0.0,0.0,0.0,0.0,0.0,-0.23,0.33,1.39,165.78,0.0,0.0,0.0,0.0,0.0,0.0,1.0,0.0,0.0,0.0,0.0,0.0,0.0,0.0,0.0,-0.73,-0.17,0.95,74.61,3.3,53.4
2.18,0.0,0.0,0.0,0.0,0.0,0.0,0.0,5.75,1.0,6.25,0.0,3.75,5.25,-0.23,0.08,1.02,235.4,-10.1,-78.5,0.5,0.0,0.0,0.0,0.5,0.0,0.0,0.0,0.0,0.0,0.0,0.0,0.0,-0.67,0.02,1.39,20.88,-13.7,73.3
2.2,0.0,0.0,0.0,0.0,0.0,0.0,0.25,6.0,1.5,6.5,0.0,3.75,5.25,-0.23,0.08,0.95,276.77,-9.5,-76.6,0.5,0.0,0.0,0.0,1.25,0.75,0.25,0.0,0.0,0.0,0.0,0.0,0.0,0.45,1.08,0.83,0.0,0.2,54.9
2.22,0.0,0.0,0.0,0.0,0.0,0.0,0.25,6.5,2.0,0.0,3.5,3.75,5.75,-0.23,0.02,0.95,329.57,-4.2,-75.8,1.25,0.0,0.5,1.75,4.25,1.0,0.5,1.0,0.5,0.5,0.75,0.25,0.5,0.83,1.83,0.83,52.56,-3.5,24.3
2.24,2.0,0.0,0.5,2.0,0.0,0.0,0.25,5.25,2.25,6.5,5.75,3.75,5.25,-0.23,0.02,0.95,404.75,-0.5,-56.0,0.0,0.0,0.5,0.0,3.75,0.0,0.25,1.0,0.0,0.0,1.0,0.0,0.75,0.89,2.08,0.52,84.93,0.9,9.1
2.26,0.0,0.0,0.75,0.5,0.0,0.0,0.25,6.5,2.5,6.5,5.5,3.75,5.25,-0.23,0.02,0.95,478.51,-3.8,-69.0,1.25,0.0,0.25,0.0,1.25,0.0,0.0,0.0,0.25,0.0,0.0,0.25,0.75,6.39,4.83,-1.98,94.9,-9.8,20.7
2.28,0.0,0.0,1.25,0.75,0.0,2.25,0.25,6.5,2.75,6.25,5.25,3.0,4.0,-0.23,0.02,0.95,517.18,-4.1,-56.1,0.0,0.0,0.0,0.0,0.25,0.75,0.25,0.0,0.5,0.0,0.0,0.25,0.0,0.02,2.27,0.08,66.79,2.7,-1.8
2.3,0.0,0.0,1.5,2.0,0.0,2.25,0.25,6.5,3.0,5.75,4.75,3.25,4.0,-0.17,0.02,0.95,528.79,-2.7,-50.3,1.0,0.0,0.25,1.25,3.75,1.25,0.25,1.0,0.75,1.0,1.0,0.25,0.5,7.02,4.02,-2.98,91.06,-0.7,12.6
2.32,0.0,0.0,2.5,2.5,0.0,2.25,0.25,6.25,3.0,5.5,4.5,2.75,3.5,-0.17,0.02,0.95,529.43,-1.0,-43.0,1.25,0.0,0.25,1.75,3.5,1.0,0.25,1.0,0.5,0.5,0.75,0.25,0.5,0.14,0.89,0.7,113.79,-2.9,21.4
2.34,2.0,0.75,2.0,2.5,0.0,2.25,0.25,6.25,3.25,5.5,4.5,2.75,2.75,-0.17,0.02,0.95,513.85,1.0,-32.2,1.0,0.0,0.25,1.5,3.75,1.25,0.25,1.0,0.5,1.0,0.75,0.25,0.5,0.14,1.14,0.14,157.95,-0.6,16.2
2.36,2.25,0.75,2.5,2.5,0.0,2.25,0.5,6.0,3.25,5.25,4.5,2.75,2.75,-0.17,0.02,0.95,502.4,2.1,-29.4,1.25,0.0,0.25,1.25,3.75,1.5,0.25,1.0,0.5,1.0,1.0,0.25,0.75,-0.23,0.7,0.45,187.31,-0.4,13.0
2.38,2.5,0.75,2.5,3.0,0.0,2.25,0.5,6.0,3.5,4.5,4.0,2.5,2.25,-0.17,0.02,0.95,491.4,3.1,-23.7,1.25,0.0,0.25,0.75,3.75,1.0,0.25,1.0,0.25,1.0,1.25,0.25,0.5,0.33,0.2,0.64,201.71,-0.9,12.1
2.4,2.75,0.75,2.5,4.0,0.0,2.25,0.5,6.0,3.75,4.5,3.75,2.5,1.5,-0.17,0.02,0.95,488.73,4.1,-18.2,1.25,0.0,0.25,1.5,3.0,1.0,0.25,1.0,0.0,0.25,0.75,0.5,0.75,0.58,0.14,0.83,198.71,-2.7,17.6
2.42,2.75,0.75,3.5,4.5,0.0,2.25,0.5,6.0,3.75,4.5,3.75,2.25,1.5,-0.11,0.02,0.95,469.07,5.3,-14.1,1.25,0.0,0.25,0.75,3.75,1.25,0.25,1.0,0.25,1.0,0.25,0.25,0.75,0.14,0.14,0.89,190.76,0.7,17.3
2.44,3.0,0.75,4.25,4.5,0.0,2.0,0.5,5.5,3.75,4.5,4.0,2.0,1.5,-0.11,0.02,0.95,475.03,6.7,-11.5,1.25,0.25,0.25,1.25,3.75,1.5,0.0,1.0,0.0,0.75,0.25,0.25,0.75,0.39,0.2,0.83,186.86,0.3,24.3
2.46,3.75,0.75,4.25,4.5,0.0,2.0,0.5,5.5,3.75,3.5,3.25,1.75,1.5,-0.11,0.02,0.95,473.73,7.8,-5.4,0.5,0.0,0.0,0.0,2.5,2.0,0.25,0.0,0.0,0.5,0.0,0.25,0.0,0.58,0.45,0.58,157.42,6.2,33.2
2.48,4.5,1.75,4.75,5.5,0.0,1.5,0.5,5.0,3.5,2.75,3.0,1.5,0.75,-0.11,0.02,0.95,470.67,10.9,7.8,1.25,0.75,0.25,0.5,3.0,2.5,0.25,0.75,0.0,1.0,0.0,0.5,0.5,0.64,0.58,0.52,164.27,2.0,25.4
2.5,5.75,2.25,5.75,6.5,5.5,1.5,0.75,4.75,3.5,2.5,2.25,1.0,0.25,-0.11,0.02,0.95,529.58,11.0,25.7,1.75,0.75,0.25,1.75,3.75,3.0,0.25,1.0,0.0,1.0,0.0,0.25,0.75,0.52,0.27,0.39,181.82,0.5,31.3
2.52,6.5,2.25,6.75,7.75,0.0,1.25,1.0,4.5,3.5,2.5,2.25,1.0,0.25,-0.11,0.08,0.95,561.18,15.1,24.9,0.0,0.75,0.25,1.25,4.25,3.5,0.25,1.0,0.25,0.75,0.0,0.25,0.75,0.58,0.45,0.33,196.07,5.8,24.0
2.54,7.25,2.5,7.25,8.0,0.0,1.0,1.0,3.5,3.5,1.75,1.5,0.75,0.25,-0.11,0.08,0.95,584.78,17.6,33.9,1.25,0.5,0.0,0.25,4.5,3.75,0.25,1.0,0.0,0.75,0.0,0.25,0.75,0.45,0.89,0.7,200.96,5.8,27.6
2.56,7.75,3.75,8.0,9.0,0.0,1.0,1.0,3.5,2.75,1.5,1.25,0.5,0.25,-0.17,0.02,1.02,603.3,18.5,41.5,1.25,0.75,0.25,0.75,4.25,4.5,0.25,1.0,0.25,0.75,0.25,0.25,0.75,-0.17,0.77,0.7,216.81,4.3,27.5
2.58,8.5,3.75,8.75,9.25,0.0,0.5,1.0,3.0,1.75,1.0,0.5,0.5,0.25,-0.17,0.08,1.08,610.02,20.9,50.0,1.25,1.0,0.0,1.75,5.5,5.25,0.25,1.0,0.25,0.75,0.25,0.25,0.75,-0.11,0.77,0.52,239.68,4.0,32.0
2.6,9.25,4.0,9.25,10.5,0.0,0.5,0.75,2.5,1.5,1.0,0.0,0.5,0.25,-0.11,0.14,1.08,622.49,21.8,54.8,2.25,0.75,0.0,1.25,5.5,5.0,0.25,1.0,0.25,0.75,0.25,0.25,0.75,0.95,0.83,0.52,258.24,2.7,33.6
2.62,9.25,4.0,9.5,10.5,0.0,0.25,0.5,2.25,1.0,1.0,0.0,0.5,0.25,-0.05,0.08,1.39,628.68,22.5,56.8,1.5,1.0,0.25,1.25,5.5,4.5,0.25,1.0,0.25,0.75,0.25,0.25,0.75,1.27,0.83,0.39,272.06,2.8,32.4
2.64,10.0,3.75,9.5,9.25,0.0,0.0,0.25,1.75,1.0,1.25,0.0,0.5,0.25,-0.11,0.14,1.39,623.04,23.5,57.9,1.5,0.75,0.25,1.5,4.75,3.75,0.25,1.0,0.5,0.75,0.25,0.25,0.75,0.58,0.95,0.7,271.88,1.6,29.6
2.66,10.5,3.75,0.0,9.0,0.0,0.0,0.0,5.0,1.0,1.0,0.0,1.0,1.0,-0.23,0.2,1.64,566.61,14.3,42.3,1.25,0.5,0.25,1.5,4.5,3.75,0.25,1.0,0.25,0.75,0.25,0.25,1.0,0.83,1.77,0.2,263.0,2.8,25.8
2.68,11.0,2.5,9.0,8.5,0.0,0.0,3.0,5.0,2.75,1.75,0.5,0.75,0.0,-0.3,0.2,1.83,588.98,20.3,42.4,1.25,0.0,0.25,1.0,4.5,3.25,0.25,1.0,0.5,0.0,0.25,0.0,0.75,0.95,2.7,0.27,243.35,2.5,31.1
2.7,0.0,0.0,3.0,0.0,0.0,0.0,0.0,0.0,0.0,0.0,0.0,0.0,0.0,-0.48,0.2,1.83,369.44,38.2,60.9,1.5,0.0,0.0,0.0,0.5,0.75,0.0,0.0,0.0,0.75,0.0,0.0,0.0,0.08,2.02,1.39,182.66,-5.5,39.4
2.72,0.0,0.0,0.0,0.0,0.0,0.0,0.0,0.0,0.0,0.0,0.0,0.0,0.0,-0.36,0.27,1.89,215.32,0.0,0.0,0.0,0.0,0.0,0.0,0.25,0.0,0.0,1.0,0.0,0.0,1.0,0.0,0.0,-0.48,-0.98,1.83,109.98,3.2,-42.6
2.74,0.0,0.0,0.0,0.0,0.0,0.0,0.0,0.0,0.0,0.0,0.0,0.0,0.0,-0.17,0.7,2.14,33.93,0.0,0.0,0.0,0.0,0.0,0.0,0.25,0.0,0.0,0.0,0.25,0.0,0.0,0.0,0.0,0.14,-1.92,0.95,36.47,-3.8,11.1
2.76,0.0,0.0,0.0,1.75,0.0,0.0,0.0,0.0,0.25,0.5,0.0,0.0,0.0,-0.36,0.64,1.52,0.0,10.3,22.8,0.0,0.0,0.0,0.0,0.25,0.0,0.0,0.0,0.0,0.0,0.0,0.0,0.0,0.2,-0.61,-1.36,0.0,3.3,53.4
2.78,2.25,0.0,2.5,2.0,0.0,0.0,0.0,0.0,0.25,1.0,0.0,0.0,0.0,-0.36,0.02,0.83,0.0,24.3,49.7,0.0,0.0,0.0,0.0,0.25,0.0,0.0,0.0,0.0,0.0,0.0,0.0,0.0,0.2,0.89,-0.92,0.0,3.3,53.4
2.8,1.25,0.0,1.5,2.25,0.0,0.0,0.0,0.0,0.25,1.0,0.0,0.0,0.0,-1.73,0.52,-0.73,0.0,20.2,41.1,0.0,0.0,0.0,0.0,0.25,0.5,0.0,0.0,0.0,0.0,0.0,0.0,0.0,0.52,1.2,0.2,0.0,15.4,41.4
2.82,0.25,0.0,0.25,2.5,0.0,0.0,0.0,0.0,0.0,0.5,0.0,0.0,0.0,0.02,0.27,-0.05,0.0,15.2,42.2,0.0,0.0,0.0,0.0,0.25,0.25,0.0,0.0,0.0,0.0,0.0,0.0,0.0,0.64,0.89,-0.11,0.0,12.0,44.7
2.84,0.25,0.0,0.5,2.25,0.0,0.0,0.0,0.0,0.25,1.0,0.0,0.0,0.25,0.08,-0.36,-0.3,0.0,11.3,16.7,0.0,0.0,0.0,0.0,0.25,0.0,0.0,0.0,0.0,0.0,0.0,0.0,0.0,0.7,0.14,-0.55,0.0,3.3,53.4
2.86,1.25,0.0,1.0,2.25,0.0,0.0,0.0,0.0,0.25,0.25,0.0,0.0,0.0,0.39,-0.42,-0.61,0.0,23.7,56.4,0.0,0.0,0.0,0.0,0.25,0.0,0.0,0.0,0.0,0.0,0.0,0.0,0.0,0.95,0.83,-0.55,0.0,3.3,53.4
2.88,0.0,0.0,0.0,0.25,0.0,0.0,0.0,0.0,0.0,1.0,0.0,0.0,0.25,0.27,-0.55,-1.42,0.0,-9.6,-58.3,0.0,0.0,0.0,0.0,0.25,0.0,0.0,0.0,0.0,0.0,0.0,0.0,0.0,1.08,1.64,-0.55,0.0,3.3,53.4
2.9,0.0,0.0,0.0,2.0,0.0,0.0,0.0,0.0,0.25,1.0,0.0,0.25,0.25,1.77,2.58,-1.98,0.02,5.7,-5.0,0.0,0.0,0.0,0.0,0.25,0.5,0.0,0.0,0.0,0.0,0.0,0.0,0.0,0.39,1.95,0.27,0.0,15.4,41.4
2.92,0.0,0.0,0.0,0.0,0.0,0.0,0.0,0.0,2.0,0.0,0.0,0.0,0.0,1.95,2.27,0.02,9.53,12.1,-38.5,0.0,0.0,0.0,0.0,0.25,0.0,0.0,0.0,0.0,0.0,0.0,0.0,0.0,-0.3,1.14,1.14,0.0,3.3,53.4
2.94,0.0,0.0,0.0,0.0,0.0,0.0,0.0,0.0,0.0,0.0,0.0,0.0,0.0,1.14,1.14,0.95,31.65,0.0,0.0,0.0,0.0,0.0,0.0,0.25,0.5,0.0,0.0,0.0,0.0,0.0,0.0,0.0,-0.23,0.45,0.83,5.41,15.4,41.4
2.96,0.0,0.0,0.0,0.0,0.0,0.0,0.0,0.0,0.0,0.0,0.0,0.0,0.0,2.2,-0.05,1.2,12.54,0.0,0.0,0.0,0.0,0.0,0.0,0.0,0.0,0.0,0.0,0.0,0.0,0.0,0.0,0.0,0.14,0.58,0.52,4.95,0.0,0.0
2.98,0.0,0.0,0.0,0.0,0.0,0.0,0.0,0.0,0.0,0.0,0.0,0.0,0.0,1.02,-1.05,-0.86,0.0,0.0,0.0,0.0,0.0,0.0,0.0,0.25,0.0,0.0,0.0,0.0,0.0,0.0,0.0,0.0,0.14,0.7,0.14,5.96,3.3,53.4
3.0,0.0,0.0,0.0,0.0,0.0,0.0,0.0,0.0,0.0,0.0,0.0,0.0,0.0,0.7,-1.05,-1.36,0.0,0.0,0.0,0.0,0.0,0.0,0.0,0.25,0.0,0.0,0.0,0.0,0.0,0.0,0.0,0.0,0.2,0.95,0.02,4.37,3.3,53.4
3.02,0.0,0.0,0.0,0.0,0.0,0.0,0.0,0.0,0.0,0.0,0.0,0.0,0.0,-0.36,-0.8,-1.05,0.0,0.0,0.0,0.0,0.0,0.0,0.0,0.0,0.0,0.0,0.0,0.0,0.0,0.0,0.0,0.0,0.52,1.14,0.02,2.61,0.0,0.0
3.04,0.0,0.0,0.0,0.0,0.0,0.0,0.0,0.0,0.0,0.0,0.0,0.0,0.0,-0.23,1.64,-0.23,0.0,0.0,0.0,0.0,0.0,0.0,0.0,0.25,0.0,0.0,0.0,0.0,0.0,0.0,0.0,0.0,0.7,1.2,0.39,2.39,3.3,53.4
3.06,0.0,0.0,0.0,0.0,0.0,0.0,0.0,0.0,0.0,0.0,0.0,0.0,0.0,-0.73,3.77,0.45,0.0,0.0,0.0,0.0,0.0,0.0,0.0,0.25,0.0,0.0,0.0,0.0,0.0,0.0,0.0,0.0,1.02,1.08,0.27,3.19,3.3,53.4
3.08,0.0,0.0,0.0,0.0,0.0,0.0,0.0,0.0,0.0,0.0,0.0,0.0,0.0,-0.17,2.89,1.27,0.0,0.0,0.0,0.0,0.0,0.0,0.0,0.25,0.0,0.0,0.0,0.0,0.0,0.0,0.0,0.0,0.83,0.64,0.27,4.12,3.3,53.4
3.1,0.0,0.0,0.0,0.0,0.0,0.0,0.0,0.0,0.0,0.0,0.0,0.0,0.0,0.02,1.52,0.2,0.0,0.0,0.0,0.0,0.0,0.0,0.25,0.25,0.75,0.0,0.0,0.5,0.75,0.0,0.25,0.0,0.64,0.27,0.08,17.58,5.8,-17.5
3.12,0.0,0.0,0.0,0.0,0.0,0.0,0.0,0.0,0.0,0.0,0.0,0.0,0.0,-0.11,0.64,0.58,0.0,0.0,0.0,0.5,0.0,0.25,1.25,3.25,1.25,0.25,0.75,0.5,0.75,0.25,0.25,0.5,0.45,0.45,-0.23,71.72,0.7,17.3
3.14,0.0,0.0,0.0,0.0,0.0,0.0,0.0,0.0,0.0,0.0,0.0,0.0,0.0,0.33,0.45,0.39,0.0,0.0,0.0,0.5,0.0,0.25,0.75,3.5,1.0,0.25,1.0,0.25,0.0,0.75,0.25,0.5,0.14,0.95,-0.23,114.81,0.2,18.3
3.16,0.0,0.0,0.0,0.0,0.0,0.0,0.0,0.0,0.0,0.0,0.0,0.0,0.0,1.27,0.2,0.45,0.0,0.0,0.0,1.25,0.0,0.25,1.0,3.5,0.75,0.25,0.75,0.5,0.75,0.25,0.25,0.5,0.14,1.27,-0.17,153.91,-2.1,22.0
3.18,0.0,0.0,0.0,0.0,0.0,0.0,0.0,0.0,0.0,0.0,0.0,0.0,0.0,1.89,0.08,1.14,0.0,0.0,0.0,1.25,0.0,0.25,1.5,3.75,1.25,0.25,0.75,0.5,0.75,0.25,0.25,0.75,0.14,1.39,-0.11,180.47,-1.3,21.9
3.2,0.0,0.0,0.0,0.0,0.0,0.0,0.0,0.0,0.0,0.0,0.0,0.0,0.0,1.33,0.2,0.7,0.0,0.0,0.0,0.5,0.0,0.25,1.25,3.25,1.25,0.25,0.75,0.25,0.75,0.75,0.25,0.75,0.02,1.14,0.14,190.75,0.8,11.3
3.22,0.0,0.0,0.0,0.0,0.0,0.0,0.0,0.0,0.0,0.0,0.0,0.0,0.0,0.95,0.33,0.39,0.0,0.0,0.0,1.0,0.0,0.0,1.0,3.75,1.25,0.25,1.0,0.5,0.75,0.25,0.25,0.5,-0.11,0.58,0.14,193.54,1.0,19.4
3.24,0.0,0.0,0.0,0.0,0.0,0.0,0.0,0.0,0.0,0.0,0.0,0.0,0.0,0.52,0.45,0.27,0.0,0.0,0.0,0.25,0.0,0.25,1.0,3.5,1.25,0.25,1.0,0.5,0.75,0.5,0.25,0.75,-0.11,0.02,0.02,191.73,2.4,9.0
3.26,0.0,0.0,0.0,0.0,0.0,0.0,0.0,0.0,0.0,0.0,0.0,0.0,0.0,0.33,0.52,0.39,0.0,0.0,0.0,1.0,0.0,0.0,0.75,3.5,1.0,0.25,1.0,0.5,0.75,0.25,0.25,0.5,0.45,0.2,0.2,187.79,0.9,17.1
3.28,0.0,0.0,0.0,0.0,0.0,0.0,0.0,0.0,0.0,0.0,0.0,0.0,0.0,0.27,0.77,0.33,0.0,0.0,0.0,0.75,0.0,0.25,0.75,3.5,0.75,0.25,1.0,0.25,0.75,0.25,0.25,0.5,1.33,0.52,0.02,178.55,0.5,17.3
3.3,0.0,0.0,0.0,0.0,0.0,0.0,0.0,0.0,0.0,0.0,0.0,0.0,0.0,0.45,1.08,0.08,0.0,0.0,0.0,0.75,0.0,0.0,1.25,3.75,1.25,0.25,0.5,0.25,0.75,0.5,0.25,0.5,1.64,0.52,-0.05,174.36,0.6,20.6
3.32,0.0,0.0,0.0,0.0,0.0,0.0,0.0,0.0,0.0,0.0,0.0,0.0,0.0,0.58,1.14,0.02,0.0,0.0,0.0,1.75,0.0,0.0,0.75,3.5,1.25,0.25,0.75,0.25,0.75,0.75,0.25,0.5,1.45,0.52,-0.05,172.25,-1.4,21.0
3.34,0.0,0.0,0.0,0.0,0.0,0.0,0.0,0.0,0.0,0.0,0.0,0.0,0.0,0.7,0.95,0.02,0.0,0.0,0.0,0.75,0.0,0.25,0.5,3.25,1.0,0.25,1.0,0.25,0.75,0.5,0.25,0.5,1.08,0.83,-0.05,162.13,1.2,13.1
3.36,0.0,0.0,0.0,0.0,0.0,0.0,0.0,0.0,0.0,0.0,0.0,0.0,0.0,0.83,0.7,0.2,0.0,0.0,0.0,0.5,0.0,0.0,0.75,3.25,1.25,0.25,1.0,0.5,1.0,0.25,0.25,0.5,0.7,0.95,-0.05,153.41,3.5,10.2
3.38,0.0,0.0,0.0,0.0,0.0,0.0,0.0,0.0,0.0,0.0,0.0,0.0,0.0,0.89,0.58,0.14,0.0,0.0,0.0,0.5,0.25,0.0,0.5,3.25,1.25,0.25,1.0,0.5,1.0,0.25,0.25,0.5,0.27,0.77,0.08,149.52,3.6,11.3
3.4,0.0,0.0,0.0,0.0,0.0,0.0,0.0,0.0,0.0,0.0,0.0,0.0,0.0,0.77,0.52,0.14,0.0,0.0,0.0,1.0,0.0,0.0,0.5,3.25,1.0,0.25,1.0,0.25,0.75,0.25,0.25,0.5,0.14,0.64,0.14,144.46,1.7,16.3
3.42,0.0,0.0,0.0,0.0,0.0,0.0,0.0,0.0,0.0,0.0,0.0,0.0,0.0,0.58,0.52,0.08,0.0,0.0,0.0,0.75,0.25,0.0,0.75,3.5,1.25,0.25,1.0,0.25,0.75,0.5,0.25,0.5,0.33,0.58,0.08,146.27,1.9,16.8
3.44,1.0,0.0,2.5,1.0,0.0,0.0,1.75,0.0,0.25,0.0,0.0,0.25,0.0,0.52,0.39,0.08,35.75,30.8,50.1,0.5,0.0,0.25,1.25,3.25,1.25,0.25,0.75,0.25,0.75,0.75,0.25,0.5,0.64,0.58,0.02,150.7,0.5,14.3
3.46,1.0,0.0,1.0,0.75,0.0,0.0,0.0,0.0,0.25,0.0,0.0,0.25,0.0,0.89,0.27,0.33,52.39,28.0,50.2,1.5,0.0,0.0,1.25,3.25,1.25,0.25,1.0,0.5,0.75,0.75,0.25,0.5,0.89,0.64,-0.05,160.0,-1.4,17.7
3.48,0.75,0.0,1.0,0.75,0.0,0.0,0.0,0.0,0.25,0.0,0.0,0.25,0.0,1.2,0.14,0.33,65.95,27.4,46.5,0.5,0.0,0.25,1.0,3.25,1.0,0.25,0.75,0.25,0.75,0.5,0.25,0.5,1.02,0.83,-0.05,157.98,0.7,14.9
3.5,1.25,0.0,0.75,0.75,0.0,0.0,0.0,0.0,0.25,0.25,0.0,0.25,0.0,1.14,0.08,0.33,68.62,24.5,43.5,0.5,0.25,0.25,0.5,3.5,1.0,0.25,1.0,0.25,0.75,0.25,0.25,0.75,0.83,0.89,-0.05,156.96,2.4,13.5
3.52,0.0,0.0,0.75,0.5,0.0,0.0,0.0,0.0,0.25,0.0,0.0,0.5,0.0,0.89,-0.05,0.33,61.68,22.5,6.5,0.5,0.0,0.0,1.0,3.5,1.0,0.25,1.0,0.25,1.0,0.25,0.25,0.5,0.58,0.89,-0.05,152.62,2.8,13.4
3.54,0.0,0.0,1.0,1.0,0.0,0.0,0.0,0.0,0.25,0.0,0.0,0.5,0.0,0.77,-0.05,0.27,56.32,23.0,21.0,0.5,0.25,0.0,1.25,2.75,1.25,0.25,1.0,0.5,0.75,0.75,0.25,0.5,0.39,0.83,0.02,152.15,1.0,10.5
3.56,1.0,0.0,1.0,0.75,0.0,0.0,0.0,0.0,0.25,0.0,0.0,0.25,0.0,0.77,-0.05,0.27,56.94,28.0,50.2,0.75,0.0,0.25,1.0,3.75,0.75,0.25,0.75,0.5,0.75,0.5,0.25,0.5,0.27,0.77,0.02,154.0,-0.7,17.2
3.58,0.75,0.0,1.0,1.0,0.0,0.0,0.0,0.0,0.25,0.0,0.0,0.25,0.0,0.77,-0.11,0.45,60.65,26.6,47.4,0.75,0.0,0.0,1.5,3.25,1.25,0.25,1.0,0.25,0.75,0.25,0.25,0.5,0.27,0.64,0.02,157.62,1.1,19.0
3.6,1.25,0.0,1.0,0.75,0.0,0.0,0.0,0.0,0.25,0.0,0.0,0.25,0.0,0.77,0.02,0.39,62.93,28.4,53.4,1.0,0.0,0.25,1.25,3.0,1.25,0.25,0.75,0.25,0.75,0.25,0.25,0.5,0.45,0.64,-0.05,157.51,-0.6,21.4
3.62,1.5,0.0,1.0,1.0,0.0,0.0,0.0,0.0,0.0,0.0,0.0,0.0,0.0,0.83,0.2,0.39,65.21,30.6,74.9,1.25,0.0,0.0,1.25,2.75,1.25,0.25,1.0,0.5,0.75,0.5,0.25,0.75,0.64,0.52,-0.05,158.99,-0.3,13.1
3.64,0.75,0.0,1.0,0.5,0.0,0.0,0.0,0.0,0.25,0.0,0.0,0.0,0.0,0.83,0.27,0.39,59.05,30.3,60.8,0.75,0.25,0.0,1.25,3.25,1.25,0.25,1.0,0.5,0.75,0.75,0.25,0.5,0.77,0.45,0.02,161.97,0.4,14.6
3.66,0.0,0.0,0.75,0.5,0.0,0.0,0.0,0.0,0.0,0.0,0.0,0.0,0.0,0.95,0.39,0.39,44.11,29.7,59.7,0.5,0.25,0.0,0.25,3.25,0.75,0.25,0.75,0.5,0.75,0.5,0.25,0.5,0.77,0.39,0.02,153.49,2.1,10.2
3.68,0.0,0.0,0.75,0.0,0.0,0.0,0.0,0.0,0.0,0.0,0.0,0.0,0.0,1.02,0.45,0.45,26.01,38.2,60.9,0.75,0.25,0.0,1.25,3.0,1.25,0.25,0.5,0.5,0.75,0.5,0.25,0.5,0.52,0.33,0.2,152.19,-0.1,18.3
3.7,0.5,0.0,0.75,0.25,0.0,0.0,0.0,0.0,0.0,0.0,0.0,0.0,0.0,0.95,0.45,0.45,21.88,33.5,71.9,0.5,0.25,0.25,0.5,2.5,1.25,0.25,0.5,0.5,0.75,0.5,0.25,0.75,0.45,0.45,0.08,144.07,1.2,8.0
3.72,0.0,0.0,0.75,0.5,0.0,0.0,0.0,0.0,0.0,0.0,0.0,0.0,0.0,0.83,0.45,0.45,17.77,29.7,59.7,0.5,0.0,0.25,0.25,2.5,1.25,0.25,0.75,0.25,0.75,0.75,0.25,0.5,0.77,0.77,-0.17,138.07,2.4,4.8
3.74,1.25,0.0,0.75,0.75,0.0,0.0,0.0,0.0,0.25,0.0,0.0,0.25,0.0,0.83,0.39,0.39,29.06,27.6,52.8,0.5,0.0,0.0,1.0,2.75,1.25,0.25,0.75,0.25,1.0,0.25,0.25,0.75,0.83,0.83,-0.11,134.43,3.2,8.1
3.76,1.25,0.0,1.0,0.5,0.0,0.0,0.0,0.0,0.25,0.0,0.0,0.5,0.0,0.89,0.27,0.33,41.27,27.9,41.3,1.0,0.0,0.0,1.25,2.75,1.25,0.25,0.5,0.5,0.75,0.75,0.25,0.5,0.83,0.83,0.02,138.5,-1.0,14.7
3.78,1.0,0.0,1.0,0.75,0.0,0.0,0.0,0.0,0.25,0.0,0.0,0.5,0.0,0.89,0.14,0.39,50.97,26.6,38.8,0.5,0.0,0.0,0.75,2.5,1.0,0.25,0.75,0.5,1.0,0.5,0.25,0.75,0.7,0.77,0.08,136.97,2.5,1.0
3.8,0.0,0.0,0.75,0.25,0.0,0.0,0.0,0.0,0.0,0.0,0.0,0.0,0.0,0.89,0.08,0.39,42.09,32.9,60.2,0.75,0.5,0.25,0.25,2.5,1.25,0.25,0.5,0.25,0.75,0.75,0.25,0.5,0.64,0.64,0.08,136.44,0.1,13.9
3.82,0.0,0.0,0.75,0.5,0.0,0.0,0.0,0.0,0.0,0.0,0.0,0.0,0.0,0.89,-0.11,0.45,34.19,29.7,59.7,0.0,0.25,0.0,0.5,2.5,1.25,0.25,0.5,0.25,0.75,0.25,0.25,0.5,0.7,0.64,0.02,127.63,5.3,8.8
3.84,0.0,0.0,0.75,0.25,0.0,0.0,0.0,0.0,0.0,0.0,0.0,0.0,0.0,0.77,-0.11,0.45,23.3,32.9,60.2,1.25,0.0,0.0,1.25,2.5,0.75,0.25,0.5,0.5,0.75,0.25,0.25,0.5,0.64,0.64,0.08,127.86,-2.8,19.5
3.86,0.0,0.0,0.75,0.5,0.0,0.0,0.0,0.0,0.0,0.0,0.0,0.0,0.0,0.95,-0.05,0.33,20.3,29.7,59.7,0.0,0.25,0.25,0.25,2.5,0.75,0.25,0.75,0.25,1.0,0.75,0.25,0.75,0.58,0.64,0.2,123.1,3.6,-5.1
3.88,0.0,0.0,0.75,0.5,0.0,0.0,0.0,0.0,0.0,0.0,0.0,0.0,0.0,1.08,-0.17,0.45,20.23,29.7,59.7,0.25,0.25,0.0,0.75,2.75,1.25,0.25,0.25,0.5,0.75,0.25,0.25,0.5,0.52,0.7,0.27,124.78,2.5,14.5
3.9,0.0,0.0,0.75,0.5,0.0,0.0,0.0,0.0,0.25,0.0,0.0,0.5,0.0,1.08,-0.11,0.39,25.47,22.5,6.5,1.25,0.0,0.0,1.25,2.75,1.25,0.25,0.5,0.25,1.0,0.5,0.25,0.75,0.58,0.64,0.2,134.93,-0.5,14.7
3.92,1.25,0.0,1.0,0.5,0.0,0.0,0.0,0.0,0.25,0.0,0.0,0.5,0.0,1.08,-0.05,0.39,37.14,27.9,41.3,1.0,0.0,0.25,1.0,2.5,1.25,0.25,0.0,0.25,0.75,0.75,0.25,0.5,0.7,0.58,0.14,137.89,-2.4,18.0
3.94,2.0,0.0,1.0,0.0,0.0,0.0,0.0,0.0,0.0,0.0,0.0,0.0,0.0,1.02,-0.05,0.45,44.63,36.1,84.7,0.75,0.0,0.25,1.0,3.0,1.25,0.25,0.0,0.25,1.0,0.75,0.25,0.5,0.7,0.45,0.14,143.64,-0.8,15.8
3.96,0.0,0.0,0.0,0.0,0.0,0.0,0.0,0.0,0.0,0.0,0.0,0.0,0.0,0.95,0.02,0.52,33.0,0.0,0.0,1.0,0.0,0.25,0.75,2.75,1.0,0.25,0.5,0.5,1.0,0.5,0.25,0.5,0.64,0.52,0.2,144.81,-1.0,13.1
3.98,0.0,0.0,0.0,0.0,0.0,0.0,0.0,0.0,0.0,0.0,0.0,0.0,0.0,0.83,0.02,0.45,17.7,0.0,0.0,0.75,0.25,0.25,0.5,2.75,0.75,0.25,0.25,0.25,0.75,0.5,0.25,0.5,0.7,0.64,0.08,140.25,-1.3,17.1
4.0,0.0,0.0,0.0,0.0,0.0,0.0,0.0,0.0,0.0,0.0,0.0,0.0,0.0,0.7,0.02,0.45,4.14,0.0,0.0,0.75,0.25,0.25,0.5,2.75,1.25,0.25,0.5,0.5,0.75,0.5,0.25,0.75,0.77,0.64,0.08,140.34,0.4,11.6
4.02,0.25,0.0,0.0,0.5,0.0,0.0,0.0,0.0,0.25,0.0,0.0,0.25,0.0,0.7,-0.05,0.39,4.82,17.8,13.0,1.25,0.25,0.0,0.5,2.75,1.25,0.25,0.75,0.5,0.75,0.5,0.25,0.5,0.7,0.58,0.14,143.77,-0.1,16.4
4.04,1.25,0.0,1.0,0.5,0.0,0.0,0.0,0.0,0.25,0.0,0.0,0.5,0.25,0.64,-0.11,0.33,24.64,25.0,30.8,0.5,0.25,0.0,0.0,2.5,0.75,0.25,0.5,0.25,0.75,0.5,0.25,0.5,0.64,0.58,0.14,134.91,2.6,6.6
4.06,1.25,0.0,1.0,1.0,0.0,0.0,0.0,0.0,0.25,0.0,0.0,0.5,0.0,0.64,-0.23,0.27,45.68,26.5,43.5,0.75,0.25,0.25,0.0,2.75,0.5,0.25,0.5,0.25,0.75,0.25,0.25,0.5,0.64,0.64,0.08,127.31,-0.1,14.9
4.08,1.25,0.0,1.0,0.5,0.0,0.0,0.0,0.0,0.0,0.0,0.0,0.0,0.0,0.7,-0.23,0.33,55.35,32.8,76.2,0.75,0.25,0.25,0.5,2.25,1.25,0.25,0.75,0.5,0.75,0.5,0.25,0.5,0.64,0.7,0.08,125.22,0.3,11.0
4.1,0.0,0.0,0.25,0.5,0.0,0.0,0.0,0.0,0.0,0.0,0.0,0.0,0.0,0.77,-0.3,0.33,45.32,24.1,58.9,0.5,0.5,0.25,0.5,2.5,1.25,0.25,0.0,0.25,0.75,0.5,0.25,0.5,0.64,0.64,0.08,124.92,0.0,18.8
4.12,0.0,0.0,0.25,0.25,0.0,0.0,0.0,0.0,0.0,0.0,0.0,0.0,0.0,0.83,-0.3,0.33,30.47,27.6,59.4,0.75,0.0,0.25,1.25,2.25,1.25,0.25,0.75,0.5,1.0,0.25,0.25,0.75,0.58,0.64,0.14,131.57,0.2,9.1
4.14,1.0,0.0,1.0,0.75,0.0,0.0,0.0,0.0,0.0,0.0,0.0,0.0,0.0,0.83,-0.23,0.39,29.89,31.1,72.6,0.5,0.5,0.0,0.5,2.5,0.75,0.25,0.75,0.25,0.75,0.25,0.25,0.5,0.64,0.64,0.08,129.76,1.7,14.0
4.16,0.0,0.0,0.0,0.25,0.0,0.0,0.0,0.0,0.0,0.0,0.0,0.0,0.0,0.83,-0.23,0.39,20.09,17.2,57.9,1.25,0.0,0.25,0.75,2.5,0.5,0.25,0.75,0.25,0.5,0.5,0.25,0.5,0.64,0.64,0.08,131.61,-3.6,18.1
4.18,0.0,0.0,0.0,0.25,0.0,0.0,0.0,0.0,0.0,0.0,0.0,0.0,0.0,0.83,-0.23,0.39,16.89,17.2,57.9,0.75,0.25,0.25,0.25,2.5,1.25,0.25,0.75,0.5,0.75,0.25,0.25,0.5,0.58,0.64,0.08,129.82,1.2,13.4
4.2,1.0,0.0,0.75,0.5,0.0,0.0,0.0,0.0,0.25,0.0,0.0,0.5,0.0,0.83,-0.23,0.39,26.86,26.4,35.2,0.5,0.5,0.25,0.5,2.5,1.25,0.25,0.75,0.5,0.5,0.75,0.25,0.5,0.64,0.64,0.08,134.14,0.2,12.6
4.22,1.0,0.0,1.0,1.0,0.0,0.0,0.0,0.0,0.25,0.0,0.0,0.25,0.0,0.89,-0.17,0.39,39.31,27.1,50.7,1.25,0.0,0.25,0.25,3.0,1.0,0.25,0.75,0.25,0.75,0.25,0.25,0.5,0.64,0.64,0.08,136.94,-0.2,18.8
4.24,1.0,0.0,1.0,0.5,0.0,0.0,0.0,0.0,0.25,0.0,0.0,0.5,0.0,0.83,-0.17,0.39,48.25,27.4,37.2,0.75,0.25,0.25,0.5,2.5,0.5,0.25,0.75,0.25,1.0,0.25,0.25,0.5,0.64,0.64,0.08,135.0,-0.3,11.9
4.26,0.25,0.0,1.0,0.5,0.0,0.0,0.0,0.0,0.25,0.0,0.0,0.5,0.0,0.83,-0.11,0.39,49.45,25.3,20.4,0.5,0.5,0.0,0.5,2.5,1.25,0.25,0.75,0.25,0.25,0.5,0.25,0.5,0.64,0.58,0.08,133.05,1.7,18.0
4.28,0.25,0.0,1.0,1.0,0.0,0.0,0.0,0.0,0.25,0.25,0.0,0.5,0.0,0.83,-0.11,0.39,51.9,20.9,19.1,1.0,0.25,0.0,0.75,2.5,0.75,0.25,0.75,0.25,0.25,0.25,0.25,0.5,0.64,0.58,0.08,130.11,-1.4,23.2
4.3,0.25,0.0,0.75,0.5,0.0,0.0,0.0,0.0,0.25,0.0,0.0,0.5,0.0,0.77,-0.05,0.45,47.51,23.8,15.9,0.5,0.5,0.0,0.25,2.5,1.25,0.25,0.75,0.5,0.5,0.25,0.25,0.5,0.64,0.64,0.08,127.12,2.6,14.9
4.32,1.0,0.0,1.0,0.75,0.0,0.0,0.0,0.0,0.0,0.0,0.0,0.5,0.0,0.77,-0.11,0.45,52.41,27.7,44.7,0.5,0.5,0.0,0.5,2.75,1.0,0.25,0.75,0.25,0.75,0.25,0.25,0.5,0.64,0.7,0.08,126.88,2.3,15.9
4.34,1.0,0.0,1.0,0.5,0.0,0.0,0.0,0.0,0.25,0.0,0.0,0.5,0.0,0.83,-0.11,0.39,55.79,27.4,37.2,0.25,0.5,0.0,0.5,2.5,1.25,0.25,0.5,0.25,0.75,0.5,0.25,0.5,0.58,0.64,0.08,127.09,3.1,11.7
4.36,0.0,0.0,0.75,0.0,0.0,0.0,0.25,0.0,0.0,0.0,0.0,0.0,0.0,0.83,-0.11,0.39,45.19,37.5,56.4,1.25,0.5,0.0,0.5,2.25,1.25,0.25,0.5,0.5,0.75,0.5,0.25,0.5,0.58,0.64,0.08,131.35,-1.1,17.9
4.38,0.0,0.0,0.25,0.0,0.0,0.0,0.0,0.0,0.0,0.0,0.0,0.0,0.0,0.89,-0.11,0.39,28.34,38.2,60.9,0.5,0.5,0.5,0.5,1.75,1.25,0.25,0.25,0.5,0.75,0.25,0.25,0.5,0.64,0.64,0.08,129.53,-1.2,15.6
4.4,0.0,0.0,0.0,0.25,0.0,0.0,0.0,0.0,0.0,0.0,0.0,0.0,0.0,0.89,-0.11,0.39,14.92,17.2,57.9,0.25,0.25,0.5,0.25,1.5,1.25,0.0,0.75,0.5,0.75,0.5,0.25,0.5,0.64,0.64,0.08,123.74,2.0,0.3
4.42,0.0,0.0,0.0,0.5,0.0,0.0,0.0,0.0,0.25,0.0,0.0,0.5,0.0,0.89,-0.17,0.39,8.52,12.9,-26.6,0.5,0.5,0.25,0.5,2.25,1.25,0.0,0.5,0.25,0.75,0.25,0.25,0.5,0.64,0.64,0.08,121.13,1.6,16.7
4.44,0.75,0.0,1.0,1.0,0.0,0.0,0.0,0.0,0.25,0.0,0.0,0.5,0.0,0.89,-0.17,0.39,20.03,25.3,36.3,0.5,0.5,0.0,1.0,2.75,1.25,0.25,0.25,0.5,1.0,0.5,0.25,0.5,0.64,0.64,0.08,128.04,0.6,15.4
4.46,1.0,0.0,1.0,0.5,0.0,0.0,0.0,0.0,0.0,0.25,0.0,0.5,0.0,0.89,-0.11,0.39,35.0,25.2,34.3,0.5,0.25,0.0,0.5,2.75,1.25,0.25,0.5,0.25,0.75,0.25,0.25,0.5,0.64,0.64,0.08,129.93,2.9,15.5
4.48,1.0,0.0,1.0,0.5,0.0,0.0,0.0,0.0,0.25,0.25,0.0,0.5,0.0,0.89,-0.05,0.39,49.25,24.3,29.1,0.5,0.5,0.0,0.5,2.5,1.25,0.25,0.5,0.5,0.75,0.75,0.25,0.25,0.7,0.64,0.08,134.02,0.9,13.8
4.5,1.0,0.0,0.75,0.75,0.0,0.0,0.0,0.0,0.5,0.25,0.0,0.5,0.0,0.83,-0.11,0.39,57.38,22.0,24.5,0.5,0.25,0.0,0.5,2.5,1.25,0.25,0.75,0.25,0.75,0.25,0.25,0.75,0.7,0.64,0.08,133.0,3.6,8.7
4.52,0.0,0.0,1.5,0.0,0.0,0.0,2.75,0.0,0.0,0.0,0.75,0.0,0.0,0.83,-0.05,0.39,61.02,30.5,21.0,0.5,0.0,0.0,0.75,2.25,1.25,0.25,0.5,0.25,0.75,0.25,0.25,0.5,0.64,0.58,0.08,128.24,2.7,11.2
4.54,0.0,0.0,0.0,0.0,0.0,0.0,0.0,0.0,0.0,0.0,0.0,0.0,0.0,0.83,-0.05,0.39,42.9,0.0,0.0,0.25,0.25,0.25,0.75,2.25,1.25,0.25,0.5,0.5,0.75,0.25,0.25,0.25,0.58,0.58,0.08,124.44,1.2,15.5
4.56,0.0,0.0,0.0,0.0,0.0,0.0,0.0,0.0,0.0,0.0,0.0,0.0,0.0,0.83,-0.05,0.39,24.76,0.0,0.0,0.5,0.0,0.0,0.5,2.5,0.75,0.25,0.5,0.25,0.75,0.75,0.25,0.5,0.64,0.64,0.08,120.8,1.3,4.4
4.58,0.0,0.0,0.0,0.0,0.0,0.0,0.0,0.0,0.0,0.0,0.0,0.0,0.0,0.77,-0.05,0.39,8.93,0.0,0.0,0.0,0.5,0.0,0.0,2.25,1.25,0.25,0.5,0.5,0.75,0.25,0.25,0.5,0.64,0.64,0.08,116.28,5.8,5.1
4.6,0.0,0.0,0.0,0.0,0.0,0.0,0.0,0.0,0.0,0.0,0.0,0.0,0.0,0.77,-0.11,0.39,1.36,0.0,0.0,1.0,0.0,0.0,1.0,2.5,1.25,0.25,0.25,0.25,1.0,0.25,0.25,0.5,0.64,0.64,0.08,120.23,0.1,17.6
4.62,0.0,0.0,0.0,0.0,0.0,0.0,0.0,0.0,0.0,0.0,0.0,0.0,0.0,0.83,-0.17,0.39,0.0,0.0,0.0,1.0,0.5,0.0,0.75,2.5,1.0,0.25,0.5,0.5,0.75,0.25,0.25,0.5,0.64,0.64,0.08,127.66,-1.0,20.2
4.64,0.0,0.0,0.0,0.0,0.0,0.0,0.0,0.0,0.0,0.0,0.0,0.0,0.0,0.83,-0.17,0.45,0.0,0.0,0.0,0.5,0.0,0.25,0.0,2.5,0.75,0.25,0.5,0.25,0.75,0.25,0.25,0.5,0.64,0.64,0.08,123.47,2.1,8.0
4.66,0.0,0.0,0.0,0.0,0.0,0.0,0.0,0.0,0.0,0.0,0.0,0.0,0.0,0.83,-0.23,0.45,0.0,0.0,0.0,0.5,0.25,0.0,0.5,2.5,1.25,0.25,0.25,0.25,0.75,0.5,0.25,0.5,0.64,0.64,0.08,121.89,2.1,13.0
4.68,0.0,0.0,0.0,0.0,0.0,0.0,0.0,0.0,0.0,0.0,0.0,0.0,0.0,0.83,-0.23,0.45,0.0,0.0,0.0,0.5,0.5,0.25,0.5,2.5,1.25,0.25,0.75,0.25,0.75,0.5,0.25,0.25,0.64,0.64,0.08,123.84,0.9,17.6
4.7,0.0,0.0,0.0,0.0,0.0,0.0,0.0,0.0,0.0,0.0,0.0,0.0,0.0,0.83,-0.23,0.45,0.0,0.0,0.0,1.25,0.25,0.25,0.5,2.5,1.0,0.25,0.5,0.25,0.75,0.5,0.25,0.5,0.64,0.64,0.08,130.21,-2.1,19.1
4.72,0.0,0.0,0.0,0.0,0.0,0.0,0.0,0.0,0.75,0.0,0.0,0.0,0.0,0.83,-0.17,0.45,0.0,12.1,-38.5,0.5,0.25,0.0,0.0,1.75,0.25,0.25,0.75,0.25,0.75,0.25,0.25,0.5,0.64,0.64,0.08,118.65,2.0,-1.0
4.74,0.0,0.0,0.0,0.0,0.0,0.0,2.75,0.0,0.0,0.0,0.0,0.0,0.0,0.83,-0.17,0.45,4.89,32.4,27.3,0.5,0.25,0.25,0.5,2.5,1.0,0.25,0.5,0.25,0.75,0.25,0.25,0.5,0.64,0.64,0.08,119.61,1.0,15.0
4.76,0.0,0.0,0.0,0.0,0.0,0.0,0.0,0.0,0.0,0.0,0.0,0.0,0.0,0.83,-0.11,0.45,7.22,0.0,0.0,0.75,0.25,0.0,0.75,1.75,1.25,0.25,0.75,0.25,0.75,0.5,0.25,0.5,0.64,0.64,0.08,117.98,1.1,9.4
4.78,0.0,0.0,0.0,0.0,0.0,0.0,0.0,0.0,0.0,0.0,0.0,0.0,0.0,0.83,-0.11,0.45,8.5,0.0,0.0,0.0,0.0,0.25,0.5,2.5,0.5,0.25,0.25,0.25,0.75,0.25,0.25,0.5,0.58,0.64,0.08,112.63,1.9,6.4
4.8,0.0,0.0,0.0,0.0,0.0,0.0,0.0,0.0,0.0,0.0,0.0,0.0,0.0,0.83,-0.11,0.45,4.26,0.0,0.0,1.25,0.25,0.0,0.0,2.25,1.25,0.25,0.5,0.25,0.75,0.5,0.25,0.5,0.58,0.64,0.08,115.28,0.5,14.4
4.82,0.0,0.0,0.0,0.0,0.0,0.0,0.0,0.0,0.0,0.0,0.0,0.0,0.0,0.83,-0.17,0.45,1.69,0.0,0.0,0.75,0.5,0.0,0.75,2.25,1.0,0.25,0.25,0.25,0.75,0.5,0.25,0.5,0.64,0.64,0.08,119.08,-0.6,17.5
4.84,0.0,0.0,0.0,0.0,0.0,0.0,0.0,0.0,0.0,0.0,0.0,0.0,0.0,0.83,-0.17,0.39,0.0,0.0,0.0,0.5,0.5,0.0,0.5,2.5,1.0,0.25,0.5,0.25,0.75,0.5,0.25,0.5,0.64,0.64,0.08,122.28,1.4,13.5
4.86,0.0,0.0,0.0,0.0,0.0,0.0,0.0,0.0,0.0,0.0,0.0,0.0,0.0,0.83,-0.17,0.39,0.0,0.0,0.0,0.75,0.0,0.0,0.5,1.75,1.0,0.25,0.5,0.25,0.75,0.75,0.25,0.5,0.58,0.64,0.08,119.7,0.6,2.5
4.88,0.0,0.0,0.0,0.0,0.0,0.0,0.0,0.0,0.0,0.0,0.0,0.0,0.0,0.83,-0.17,0.45,0.0,0.0,0.0,0.75,0.5,0.0,0.5,2.25,1.25,0.25,0.5,0.25,1.0,0.25,0.25,0.75,0.64,0.64,0.08,125.63,2.1,11.3
4.9,0.0,0.0,0.0,0.0,0.0,0.0,0.0,0.0,0.0,0.0,0.0,0.0,0.0,0.83,-0.17,0.45,0.0,0.0,0.0,1.0,0.25,0.0,0.5,2.5,1.25,0.25,0.5,0.5,0.75,0.75,0.25,0.5,0.64,0.64,0.08,129.67,-0.1,12.2
4.92,0.0,0.0,0.0,0.0,0.0,0.0,0.0,0.0,0.0,0.0,0.0,0.0,0.0,0.83,-0.11,0.45,0.0,0.0,0.0,0.25,0.0,0.25,0.5,2.5,1.0,0.25,0.5,0.5,0.75,0.25,0.25,0.5,0.64,0.64,0.08,128.66,2.1,8.0
4.94,0.0,0.0,0.0,0.0,0.0,0.0,0.0,0.0,0.0,0.0,0.0,0.0,0.0,0.83,-0.11,0.39,0.0,0.0,0.0,0.25,0.0,0.25,0.0,2.5,0.25,0.25,0.25,0.25,0.75,0.5,0.25,0.5,0.64,0.64,0.08,119.52,0.9,1.3
4.96,0.0,0.0,0.0,0.0,0.0,0.0,0.0,0.0,0.0,0.0,0.0,0.0,0.0,0.83,-0.11,0.39,0.0,0.0,0.0,0.75,0.25,0.0,0.5,2.25,1.0,0.25,0.25,0.25,0.75,0.25,0.25,0.5,0.64,0.64,0.08,116.66,0.6,16.3
4.98,0.0,0.0,0.0,0.0,0.0,0.0,0.0,0.0,0.0,0.0,0.0,0.0,0.0,0.83,-0.11,0.45,0.0,0.0,0.0,1.25,0.5,0.0,0.0,3.0,1.0,0.25,0.5,0.5,0.5,0.25,0.25,0.5,0.64,0.64,0.08,118.95,-0.6,23.8
5.0,0.0,0.0,0.0,0.0,0.0,0.0,0.0,0.0,0.0,0.0,0.0,0.0,0.0,0.83,-0.11,0.45,0.0,0.0,0.0,0.5,0.25,0.0,0.75,2.5,1.0,0.25,0.5,0.25,0.75,0.25,0.25,0.5,0.64,0.64,0.02,122.13,1.7,14.9
5.02,1.0,0.0,0.0,0.5,0.0,0.0,0.0,0.0,0.0,0.0,0.0,0.0,0.0,0.83,-0.11,0.45,9.44,28.6,83.5,1.25,0.25,0.25,0.5,2.5,1.25,0.25,0.5,0.25,1.0,0.5,0.25,0.75,0.58,0.64,0.08,134.04,-0.6,13.5
5.04,0.0,0.0,0.25,0.25,0.0,0.0,0.0,0.0,0.0,0.0,0.0,0.0,0.0,0.83,-0.11,0.39,11.99,27.6,59.4,0.5,0.25,0.0,0.0,2.5,1.0,0.25,0.5,0.5,0.75,0.25,0.25,0.5,0.52,0.58,0.14,129.67,3.2,8.6
5.06,2.75,0.0,1.25,0.0,0.0,0.0,1.25,0.0,0.25,0.0,0.0,0.0,0.0,0.83,-0.11,0.39,40.31,34.3,71.6,0.75,0.25,0.0,0.75,2.25,1.0,0.25,0.5,0.25,0.75,0.25,0.25,0.5,0.64,0.64,0.08,128.46,0.5,16.0
5.08,0.0,0.0,0.0,0.0,0.0,0.0,0.0,0.0,0.0,0.0,0.0,0.0,0.0,0.83,-0.11,0.39,34.12,0.0,0.0,0.5,0.25,0.0,0.5,2.5,1.25,0.25,0.5,0.25,0.75,0.25,0.25,0.5,0.7,0.64,0.08,124.14,2.9,14.1
5.1,0.0,0.0,0.0,0.0,0.0,0.0,0.0,0.0,0.0,0.0,0.0,0.0,0.0,0.83,-0.17,0.45,28.74,0.0,0.0,0.5,0.25,0.0,0.5,2.5,1.0,0.25,0.5,0.5,0.75,0.25,0.25,0.5,0.64,0.64,0.08,124.08,1.8,11.9
5.12,0.0,0.0,0.0,0.0,0.0,0.0,0.0,0.0,0.0,0.0,0.0,0.0,0.0,0.83,-0.17,0.39,13.48,0.0,0.0,1.0,0.25,0.0,0.75,2.25,0.75,0.25,0.5,0.5,0.75,0.25,0.25,0.5,0.64,0.64,0.08,123.62,-1.4,16.1
5.14,0.0,0.0,0.0,0.0,0.0,0.0,0.0,0.0,0.0,0.0,0.0,0.0,0.0,0.77,-0.17,0.39,6.42,0.0,0.0,0.5,0.25,0.0,0.5,2.5,1.0,0.25,0.5,0.25,0.75,0.5,0.25,0.5,0.64,0.64,0.08,124.51,1.9,10.8
