time,left pressure 0[N/cm虏],left pressure 1[N/cm虏],left pressure 2[N/cm虏],left pressure 3[N/cm虏],left pressure 4[N/cm虏],left pressure 5[N/cm虏],left pressure 6[N/cm虏],left pressure 7[N/cm虏],left pressure 8[N/cm虏],left pressure 9[N/cm虏],left pressure 10[N/cm虏],left pressure 11[N/cm虏],left pressure 12[N/cm虏],left acceleration X[g],left acceleration Y[g],left acceleration Z[g],left total force[N],left center of pressure X[mm],left center of pressure Y[mm],right pressure 0[N/cm虏],right pressure 1[N/cm虏],right pressure 2[N/cm虏],right pressure 3[N/cm虏],right pressure 4[N/cm虏],right pressure 5[N/cm虏],right pressure 6[N/cm虏],right pressure 7[N/cm虏],right pressure 8[N/cm虏],right pressure 9[N/cm虏],right pressure 10[N/cm虏],right pressure 11[N/cm虏],right pressure 12[N/cm虏],right acceleration X[g],right acceleration Y[g],right acceleration Z[g],right total force[N],right center of pressure X[mm],right center of pressure Y[mm]
0.02,0.0,0.75,1.5,0.0,0.0,0.0,0.25,3.0,0.5,0.5,0.25,0.25,0.25,-0.23,-0.17,0.58,137.69,3.0,-10.1,8.25,1.5,11.5,7.75,4.75,4.0,2.0,5.25,2.0,3.5,3.75,1.25,0.5,0.14,0.14,0.95,899.65,-13.1,27.6
0.04,0.25,1.0,1.5,1.75,0.0,0.0,0.5,2.5,0.5,0.5,0.75,0.25,0.5,-0.48,-0.3,0.39,144.53,7.9,3.9,8.25,1.5,11.5,7.5,4.75,4.0,2.25,5.25,2.0,4.5,4.0,1.5,0.5,0.14,0.14,0.95,900.83,-12.6,24.6
0.06,0.0,1.0,1.5,1.75,0.0,0.0,0.25,3.0,0.5,0.75,0.75,0.0,0.25,-0.48,-0.36,0.45,152.06,5.7,3.1,8.0,1.75,11.5,7.5,4.75,4.0,2.25,5.25,2.0,4.75,4.5,1.75,1.25,0.14,0.14,0.95,914.46,-12.0,21.1
0.08,0.0,1.0,1.5,1.75,0.0,0.0,0.0,2.75,0.75,0.25,0.75,0.0,0.25,-0.48,-0.61,0.58,152.68,7.3,7.1,8.0,1.0,11.5,7.5,4.75,3.75,2.0,5.25,2.0,5.0,4.75,1.75,1.25,0.14,0.14,0.95,924.86,-12.0,19.2
0.1,0.0,1.0,1.5,1.75,0.0,0.0,0.25,2.5,0.75,0.25,0.75,0.25,0.25,-0.48,-0.73,0.39,150.75,8.3,5.5,7.75,1.25,11.5,7.5,4.75,4.0,2.0,5.5,2.0,5.5,4.75,2.0,1.25,0.14,0.14,0.95,940.35,-11.4,17.7
0.12,0.0,0.75,1.5,1.75,0.0,0.0,0.25,2.5,0.75,0.75,0.75,0.25,0.25,-0.42,-0.92,0.2,148.24,6.9,-1.2,7.5,1.25,11.0,7.0,4.75,3.75,1.75,5.5,2.75,5.75,5.5,2.0,1.5,0.14,0.14,0.95,952.02,-10.9,13.8
0.14,0.0,0.5,1.5,1.5,0.0,0.0,0.0,1.75,0.25,0.0,0.5,0.0,0.25,-1.36,-2.11,0.39,134.89,10.6,14.7,7.5,1.0,10.5,6.75,4.75,3.25,1.75,5.5,2.75,6.5,6.5,3.25,2.25,0.14,0.14,0.95,973.24,-10.2,6.2
0.16,0.75,0.75,2.0,3.5,0.0,0.0,0.0,4.5,0.0,0.0,0.0,0.0,0.0,0.39,1.33,5.2,144.67,8.6,26.3,7.0,0.75,10.0,5.75,3.75,3.25,1.75,6.0,2.75,7.5,7.25,4.0,2.25,0.14,0.14,0.95,977.56,-9.3,-1.1
0.18,4.0,2.5,0.5,6.5,0.0,0.0,0.0,1.75,0.75,0.0,0.0,0.25,0.0,-0.86,0.27,0.77,181.74,17.2,56.3,6.0,0.25,9.25,4.5,1.75,3.0,1.75,6.0,2.75,8.0,8.0,4.75,4.0,0.08,0.14,0.95,955.09,-8.0,-14.2
0.2,0.0,0.0,6.25,0.0,0.0,0.0,1.25,0.0,0.0,0.0,0.0,0.0,0.0,-0.42,0.39,1.45,176.4,37.7,58.1,4.5,0.25,7.75,3.25,1.25,3.0,1.5,5.5,2.0,8.0,8.5,5.5,4.75,0.08,0.14,0.95,891.74,-6.2,-24.3
0.22,7.5,3.75,0.0,8.5,0.0,0.0,0.0,3.25,0.75,0.75,0.25,0.0,0.25,-0.11,0.02,1.39,247.52,15.5,53.0,3.25,0.25,6.25,3.0,1.25,2.0,1.0,4.25,1.5,7.75,8.5,5.5,5.5,0.08,0.14,1.08,801.96,-5.2,-32.2
0.24,7.0,4.0,7.5,9.75,0.0,3.25,0.5,3.75,2.25,1.75,1.0,1.0,0.75,-0.23,-0.05,3.02,375.5,14.9,37.5,2.5,0.0,3.25,1.25,1.0,2.75,0.5,3.25,0.75,6.5,7.75,4.0,5.5,-0.05,0.27,1.33,667.13,-1.7,-41.5
0.26,7.25,4.0,8.25,9.75,8.5,4.0,2.0,5.75,4.5,3.5,3.5,2.25,1.5,-0.23,0.02,1.39,683.09,9.8,23.5,2.0,0.0,2.0,2.0,1.25,2.75,0.5,2.75,0.75,4.25,6.0,3.0,4.75,-0.05,0.45,1.7,522.44,-1.3,-36.4
0.28,7.25,4.0,8.5,9.75,8.25,3.75,2.25,6.25,4.5,3.75,5.0,1.75,1.5,-0.11,-0.11,1.2,983.67,9.8,21.5,2.0,0.0,2.0,2.0,1.0,2.5,0.5,2.75,0.75,2.25,3.75,1.75,2.0,-0.23,0.33,1.45,372.95,-3.6,-18.2
0.3,7.0,3.75,8.5,9.5,8.0,3.5,1.75,6.0,3.5,3.0,3.5,1.25,1.25,-0.11,0.02,0.95,1193.27,10.3,26.8,1.75,0.25,1.5,2.0,1.0,2.75,0.5,2.75,0.5,1.5,2.5,0.75,1.25,-0.98,1.39,1.45,272.64,-2.7,-4.6
0.32,6.25,3.25,8.25,8.75,8.0,3.5,1.25,5.5,3.25,2.75,3.5,1.25,1.25,-0.11,0.08,0.89,1241.13,10.0,26.1,1.25,0.0,1.0,1.75,1.0,2.0,0.5,2.75,0.25,1.25,1.75,0.75,0.5,-0.48,3.83,-0.3,189.85,-1.9,-4.1
0.34,5.75,3.75,7.75,8.0,7.75,3.5,1.25,5.5,3.5,3.25,3.5,1.5,1.25,-0.11,0.08,0.89,1209.35,9.3,23.5,1.0,0.25,0.0,1.5,1.0,0.5,0.5,2.5,0.25,0.25,1.5,0.5,0.5,-0.61,3.45,0.95,110.62,-2.6,-5.3
0.36,4.5,2.5,7.75,7.5,7.0,3.5,1.25,5.75,3.75,3.5,3.75,2.0,1.5,-0.11,0.02,0.95,1138.4,8.5,16.0,1.5,0.5,0.0,1.75,1.0,0.25,0.25,2.25,0.25,1.0,1.5,0.5,0.5,0.08,2.83,0.7,61.91,-3.9,-2.2
0.38,3.25,1.0,7.0,6.5,6.75,3.5,1.25,5.75,3.25,3.75,4.25,2.25,1.5,-0.11,0.02,0.95,1043.22,7.0,8.4,1.25,0.25,0.0,0.5,1.0,0.0,0.25,2.25,0.0,0.5,1.25,0.5,0.5,0.2,1.83,1.33,21.7,-2.1,-11.2
0.4,2.5,1.5,6.25,5.75,6.25,2.75,1.0,5.75,3.5,3.75,4.5,2.25,1.5,-0.11,0.02,0.95,935.0,6.6,4.7,1.0,0.0,0.0,1.75,1.0,2.0,0.25,2.0,0.0,0.5,1.5,0.5,0.5,0.02,1.27,1.58,23.9,0.6,-0.8
0.42,1.5,1.0,5.25,4.0,5.75,2.75,1.0,5.75,3.0,3.75,4.25,2.25,1.75,-0.11,0.02,0.95,801.01,4.6,-2.4,0.75,0.5,0.0,1.5,1.0,2.0,0.25,1.75,0.0,0.5,1.25,0.5,0.5,0.14,0.7,1.45,36.11,1.1,3.0
0.44,0.5,1.0,3.5,4.0,4.75,2.25,1.0,6.0,3.0,4.75,4.75,2.25,2.5,-0.17,0.02,0.95,677.3,2.0,-14.5,0.75,0.0,0.0,1.0,1.0,2.0,0.25,1.75,0.0,0.25,1.25,0.5,0.5,0.08,0.52,1.33,54.2,2.5,-3.3
0.46,0.5,0.75,3.25,3.5,0.0,3.0,1.0,6.0,2.75,5.0,5.0,3.0,2.75,-0.17,0.02,0.95,533.31,1.7,-29.8,1.0,0.0,0.0,1.0,0.5,2.0,0.25,1.75,0.0,0.25,1.25,0.5,0.5,0.02,0.39,1.14,67.66,1.5,-4.3
0.48,0.5,0.75,0.0,3.5,0.0,2.5,1.0,6.25,2.75,6.0,5.25,3.25,3.75,-0.17,0.02,0.95,443.34,-2.4,-44.0,0.75,0.5,0.0,1.5,1.0,1.75,0.0,1.5,0.0,0.25,1.25,0.5,0.5,0.02,0.27,1.08,88.96,0.2,5.1
0.5,0.5,1.0,0.25,2.75,3.25,2.5,1.0,6.25,2.75,6.0,5.75,4.0,4.0,-0.17,0.02,0.95,414.3,-2.2,-37.2,0.75,0.0,0.0,0.75,1.0,2.25,0.25,1.5,0.0,0.25,1.25,0.5,0.5,0.02,0.08,1.02,102.09,3.2,-3.1
0.52,0.5,0.75,0.25,2.0,0.0,2.5,0.75,6.5,2.25,6.75,6.0,4.25,5.25,-0.17,0.02,0.95,424.33,-3.5,-53.5,0.5,0.0,0.0,1.5,1.0,1.25,0.0,1.5,0.0,0.5,1.0,0.5,0.5,0.14,-0.05,0.89,111.47,1.5,-4.9
0.54,0.0,1.0,0.0,1.75,0.0,2.25,0.5,6.75,2.25,7.0,6.25,4.5,6.0,-0.17,0.02,0.95,453.37,-4.5,-58.4,0.0,0.0,0.0,0.5,0.5,0.5,0.0,1.5,0.0,0.0,1.25,0.0,0.5,0.14,-0.11,0.95,97.46,4.7,-26.8
0.56,0.0,1.0,0.0,1.75,0.0,1.0,0.5,7.0,1.75,7.0,6.25,5.25,6.0,-0.17,0.02,0.95,474.13,-3.9,-62.5,0.25,0.0,0.0,0.5,0.5,2.0,0.25,1.5,0.0,0.25,1.0,0.25,0.0,0.08,-0.23,1.02,92.09,6.4,-4.0
0.58,0.0,0.75,0.0,1.75,0.0,1.25,0.5,7.0,1.75,7.5,6.5,5.25,6.75,-0.23,0.02,0.95,501.79,-4.4,-64.2,1.0,0.0,0.0,1.0,1.0,2.0,0.0,1.5,0.0,0.0,1.0,0.25,0.5,0.02,-0.42,1.02,96.21,1.9,7.6
0.6,0.0,1.0,0.0,1.75,0.0,0.0,0.5,7.25,1.5,7.0,6.25,5.5,7.0,-0.23,0.02,0.95,519.17,-3.8,-66.6,0.5,0.0,0.0,0.75,1.0,2.25,0.0,1.5,0.0,0.5,1.25,0.25,0.5,-0.3,-0.73,0.89,105.29,5.5,-5.3
0.62,0.0,0.75,0.0,0.5,0.0,0.0,0.25,7.0,1.5,7.0,6.0,4.75,7.0,-0.23,0.02,0.95,522.87,-5.2,-72.0,1.0,0.0,0.0,1.5,0.5,1.25,0.0,1.25,0.0,0.5,1.0,0.5,0.5,-0.8,-1.11,0.7,113.51,-1.2,-2.1
0.64,0.0,0.5,0.0,1.0,0.0,0.0,0.0,7.0,1.0,7.0,5.5,4.5,7.25,-0.23,0.02,0.95,514.78,-5.7,-72.1,1.75,0.25,0.0,1.0,0.5,0.25,0.0,1.25,0.0,0.25,1.25,0.25,0.25,-0.67,-1.36,0.89,112.09,-8.3,10.1
0.66,0.0,1.0,1.25,0.5,0.0,1.25,0.0,6.75,1.0,7.0,5.0,4.25,7.25,-0.23,0.08,1.08,510.8,-5.0,-63.1,1.0,0.0,0.0,2.0,0.5,1.25,0.0,1.25,0.0,0.25,0.75,0.25,0.5,-0.3,-1.98,1.02,113.88,-2.3,10.0
0.68,0.0,1.0,0.5,1.75,0.0,1.25,0.0,6.25,0.75,5.5,3.75,3.5,6.75,-0.3,0.14,1.2,479.41,-5.4,-58.7,5.0,0.0,1.5,4.5,1.0,2.75,0.25,1.25,0.0,0.25,0.25,0.25,0.0,0.64,-2.92,0.83,163.84,-13.3,51.5
0.7,0.25,0.75,1.5,1.75,0.0,1.25,0.0,5.5,0.75,5.0,3.25,3.25,6.5,-0.3,0.14,1.39,444.4,-3.6,-53.8,6.25,2.0,6.5,7.25,4.75,2.75,0.25,1.25,0.0,0.25,0.5,0.25,0.0,1.2,3.64,6.52,277.87,-16.1,57.5
0.72,0.25,1.0,1.5,1.75,0.0,1.0,0.0,5.0,0.75,3.5,2.25,1.25,5.25,-0.42,0.2,1.52,375.71,-3.3,-43.3,7.75,1.5,8.5,7.75,6.75,3.0,0.25,1.5,0.0,0.0,0.75,0.5,0.0,0.33,0.08,1.89,424.77,-16.5,56.6
0.74,0.5,1.0,1.5,1.75,0.0,0.75,0.0,4.5,0.75,2.0,1.75,1.0,3.75,-0.42,0.2,1.45,304.6,-1.0,-33.2,8.75,3.25,11.0,10.5,7.25,3.75,0.25,2.75,0.0,0.25,1.25,0.25,0.25,0.08,0.14,1.58,657.97,-15.9,54.5
0.76,0.0,0.0,0.0,0.0,0.0,0.0,2.75,0.0,0.0,0.0,0.0,0.0,0.0,-0.48,0.39,1.14,186.68,32.4,27.3,9.25,4.0,11.5,11.5,8.25,5.25,0.5,2.75,0.25,0.5,0.25,0.5,0.0,0.14,0.2,1.45,881.53,-14.9,56.3
0.78,0.0,0.0,0.0,0.0,0.0,0.0,0.0,0.0,0.0,0.0,0.0,0.0,0.0,0.58,3.2,0.52,63.62,0.0,0.0,9.5,3.25,12.5,12.5,9.25,5.75,1.25,3.0,0.5,1.5,1.25,0.5,0.5,0.33,0.27,1.52,1097.46,-14.0,49.3
0.8,0.0,0.0,0.0,0.0,0.0,0.0,0.0,0.0,0.0,0.0,0.0,0.0,0.0,0.77,3.58,0.7,0.0,0.0,0.0,9.5,4.0,12.5,12.5,9.25,5.75,1.75,4.25,0.75,1.5,1.25,0.5,0.75,0.27,0.2,1.14,1254.35,-13.3,47.1
0.82,0.0,0.0,0.0,0.0,0.0,0.0,0.0,0.0,0.0,0.0,0.0,0.0,0.0,0.7,2.64,1.7,0.0,0.0,0.0,9.5,3.75,12.5,12.5,9.25,5.75,2.25,5.25,0.75,1.75,1.75,0.75,0.5,0.2,0.14,1.08,1352.13,-12.9,44.3
0.84,0.0,0.0,0.0,0.0,0.0,0.0,0.0,0.0,0.0,0.0,0.0,0.0,0.0,0.2,2.33,1.27,0.0,0.0,0.0,9.75,3.5,13.0,12.0,8.25,5.25,2.75,5.25,0.75,1.75,2.0,0.5,0.5,0.14,0.14,1.02,1385.92,-13.8,44.2
0.86,0.0,0.0,0.0,0.0,0.0,0.0,0.0,0.0,0.0,0.0,0.0,0.0,0.0,0.14,1.77,1.33,0.0,0.0,0.0,9.5,3.25,12.5,12.0,8.25,5.25,2.25,5.25,0.75,1.75,2.25,0.5,0.5,0.14,0.14,0.95,1382.83,-13.4,43.3
0.88,0.0,0.0,1.0,0.0,0.0,0.0,0.25,2.0,0.0,0.25,0.25,0.0,0.25,0.14,1.33,1.45,0.0,1.2,-19.7,9.25,3.0,12.5,11.0,8.0,4.5,2.25,4.25,0.75,1.5,2.0,0.5,0.5,0.14,0.14,0.95,1333.08,-14.4,45.0
0.9,0.0,0.0,0.0,0.75,0.0,0.0,0.0,1.5,0.0,0.0,0.0,0.0,0.25,-0.05,0.83,1.39,0.0,-5.9,-16.1,9.0,3.0,12.5,10.5,7.25,4.0,1.75,4.25,0.75,1.75,1.5,0.5,0.5,0.14,0.14,0.89,1240.43,-14.7,45.2
0.92,0.0,0.0,0.0,0.0,0.0,0.0,0.0,0.0,1.25,1.0,0.0,0.0,0.5,-0.05,0.58,1.33,0.0,-2.8,-65.3,8.5,2.5,11.5,9.0,7.0,3.75,1.75,4.25,0.75,1.75,1.75,0.5,0.5,0.14,0.2,0.89,1100.27,-14.3,43.0
0.94,0.0,0.0,0.0,0.0,0.0,0.0,0.0,0.0,0.0,0.0,0.0,0.0,0.0,-0.11,0.33,1.27,0.0,0.0,0.0,8.0,2.0,11.5,8.0,6.75,4.0,1.5,4.25,0.75,1.75,1.75,0.75,0.5,0.14,0.2,0.89,972.43,-13.9,40.9
0.96,0.0,0.0,0.0,0.0,0.0,0.0,0.0,0.0,0.0,0.0,0.0,0.0,0.0,-0.11,0.2,1.2,0.0,0.0,0.0,7.75,1.5,10.5,7.0,6.0,4.0,1.5,4.25,0.75,1.75,2.5,0.75,1.0,0.14,0.14,0.89,862.48,-13.2,35.7
0.98,0.0,0.0,0.0,0.0,0.0,0.0,2.0,1.75,0.0,0.0,0.0,0.0,0.0,-0.23,0.08,1.02,5.67,0.6,-15.3,7.0,1.5,10.0,7.25,5.25,3.75,1.75,4.5,1.25,3.5,2.5,1.0,0.75,0.14,0.14,0.95,785.35,-12.1,29.4
1.0,0.0,0.0,0.0,0.0,0.0,0.0,2.0,1.75,0.5,0.0,0.0,0.0,0.0,-0.36,-0.05,1.02,33.34,2.3,-18.9,6.5,1.25,9.25,5.5,5.0,3.75,1.5,5.25,1.25,3.75,3.5,1.75,1.25,0.14,0.14,0.95,731.33,-10.4,19.5
1.02,0.0,0.0,1.75,0.0,0.0,0.0,0.0,1.75,0.0,0.0,0.0,0.0,0.0,-0.42,-0.11,0.95,48.76,11.1,11.8,6.0,0.75,8.75,5.25,4.75,3.25,1.5,5.5,1.5,4.75,3.75,2.0,1.5,0.14,0.14,0.95,696.48,-9.5,12.6
1.04,0.0,0.0,0.0,0.0,0.0,0.0,0.0,0.0,0.0,0.0,0.0,0.0,0.0,-0.48,-0.17,0.89,38.81,0.0,0.0,5.5,0.5,8.5,5.0,4.75,3.75,1.5,6.0,2.0,5.75,4.75,2.5,2.25,0.14,0.14,0.95,696.72,-7.7,3.9
1.06,0.0,0.0,0.0,0.0,0.0,0.0,0.0,0.0,0.0,0.0,0.0,0.0,0.0,-0.55,-0.23,0.95,25.56,0.0,0.0,5.25,0.75,8.0,4.5,4.75,3.75,1.5,6.25,2.0,7.0,6.25,3.25,3.25,0.14,0.14,0.95,728.56,-6.3,-4.6
1.08,0.0,0.0,0.0,0.0,0.0,0.0,0.0,0.0,0.0,0.0,0.0,0.0,0.0,-0.61,-0.23,1.02,8.01,0.0,0.0,5.5,0.5,7.5,3.25,4.5,3.5,1.5,7.0,2.75,8.0,7.25,4.5,4.5,0.14,0.14,0.95,785.31,-5.2,-14.6
1.1,0.0,0.0,0.0,0.0,0.0,0.0,0.0,0.0,0.0,0.0,0.0,0.0,0.0,-0.67,-0.3,0.77,0.0,0.0,0.0,4.75,0.75,7.25,3.25,3.25,3.5,1.25,7.0,2.75,8.5,8.25,5.5,5.75,0.14,0.14,0.95,841.87,-4.5,-22.4
1.12,0.0,0.0,0.0,0.0,0.0,0.0,0.0,0.0,0.0,0.0,0.0,0.0,0.0,-0.8,-0.48,0.64,0.0,0.0,0.0,3.75,0.75,6.5,3.25,3.0,3.25,1.25,7.5,2.75,9.0,9.0,6.0,6.75,0.14,0.14,0.95,894.73,-3.2,-29.2
1.14,0.0,0.0,0.0,0.0,0.0,0.0,0.0,0.0,0.0,0.0,0.0,0.0,0.0,-0.61,-0.98,0.58,0.0,0.0,0.0,3.0,0.75,4.75,3.0,1.75,3.0,1.0,7.5,2.75,9.5,9.5,6.75,7.75,0.14,0.14,0.95,927.78,-1.6,-39.1
1.16,0.0,0.0,0.0,0.0,0.0,0.0,0.25,4.75,1.0,0.0,0.0,0.0,0.0,-1.55,-1.8,0.02,27.34,-10.9,-37.4,2.0,0.5,2.25,2.0,1.25,3.0,0.5,7.0,2.5,9.75,10.0,7.25,8.25,0.08,0.14,0.95,929.91,0.9,-51.5
1.18,0.0,0.0,1.0,0.0,0.0,0.0,0.0,1.75,1.75,0.5,0.25,0.25,0.0,-0.3,-1.42,3.83,54.55,5.1,-28.2,3.0,0.5,2.0,1.75,1.25,2.75,0.5,6.5,1.25,9.75,10.0,7.5,8.75,0.02,0.14,1.02,916.45,0.7,-51.6
1.2,0.0,1.75,0.0,6.0,0.0,0.0,0.0,0.0,1.5,0.0,0.0,0.0,0.0,-2.05,2.52,4.45,103.14,15.5,50.7,2.0,0.25,1.25,2.75,1.25,1.5,0.5,5.5,1.0,8.5,9.5,7.0,9.25,0.02,0.14,1.08,867.64,0.9,-56.1
1.22,0.0,0.0,8.25,0.0,0.0,0.0,3.25,0.0,0.0,0.0,0.0,0.0,0.0,-0.98,0.14,2.45,138.23,37.3,55.7,0.0,0.0,0.0,1.25,0.25,3.0,0.0,3.5,0.75,8.0,7.75,6.25,8.5,-0.05,0.14,1.33,758.44,5.1,-71.3
1.24,0.0,0.0,0.0,0.0,0.0,0.0,0.75,0.0,0.0,0.0,0.0,0.0,0.0,-0.3,0.14,1.64,116.87,32.4,27.3,1.5,0.0,0.25,1.25,2.25,2.0,0.5,2.75,0.25,7.25,7.25,5.75,8.75,-0.05,0.27,1.64,661.12,2.9,-59.7
1.26,3.75,2.5,8.5,2.0,0.0,0.0,0.0,0.0,0.0,2.0,0.0,0.0,0.0,-0.23,0.14,1.52,180.85,26.1,58.2,1.25,0.0,1.25,2.0,1.25,2.25,0.25,2.25,0.25,5.75,6.5,5.5,8.0,-0.11,0.33,1.77,563.7,1.2,-56.0
1.28,8.25,5.0,9.0,11.0,0.0,3.25,0.5,3.25,1.25,1.5,1.0,0.75,0.75,-0.23,0.14,1.39,344.89,16.9,45.8,0.25,0.0,0.0,1.75,1.25,2.0,0.25,2.0,0.25,3.5,3.5,3.25,7.0,0.08,0.27,1.64,434.81,4.9,-58.9
1.3,8.5,5.0,9.25,11.0,8.75,4.0,1.5,4.5,1.75,1.75,1.75,1.0,1.25,-0.17,0.08,1.33,655.76,12.1,40.7,0.5,0.0,0.0,0.25,1.0,1.0,0.25,1.5,0.0,1.5,2.5,1.75,4.0,-0.8,0.77,1.27,298.21,4.5,-59.0
1.32,8.0,5.0,9.0,11.0,8.5,4.5,2.0,5.0,1.75,1.75,2.0,1.25,1.25,-0.17,0.02,1.08,968.41,11.4,38.3,0.75,0.25,0.0,0.75,1.0,1.5,0.25,1.5,0.0,0.0,1.5,0.5,3.0,-0.42,4.95,0.02,192.44,3.5,-28.1
1.34,8.0,4.75,9.0,10.0,8.75,4.5,2.0,5.25,1.75,1.75,2.0,1.25,1.25,-0.11,0.02,1.02,1191.57,11.1,37.5,0.5,0.5,0.0,1.25,0.0,2.5,0.0,1.25,0.0,1.0,0.5,1.5,2.25,-0.3,4.27,0.89,101.77,5.2,-29.1
1.36,7.5,4.0,9.0,9.75,8.5,4.5,1.5,5.0,0.75,1.75,1.75,1.25,1.25,-0.17,0.08,0.95,1254.79,11.0,38.1,0.0,0.25,0.0,1.5,1.0,2.25,0.0,1.5,0.0,1.0,1.5,1.0,2.25,0.02,2.14,1.39,53.76,5.6,-28.7
1.38,7.0,3.75,8.25,9.25,8.5,4.5,1.25,5.0,0.75,1.75,1.75,1.25,1.25,-0.17,0.08,0.95,1221.08,10.3,36.9,0.75,0.0,0.0,1.25,1.25,2.25,0.5,1.25,0.0,0.25,1.5,1.0,2.25,0.83,1.77,0.64,44.09,2.5,-19.8
1.4,6.25,3.75,7.5,8.75,8.0,4.5,1.0,5.0,1.5,1.75,1.75,1.25,1.25,-0.17,0.08,0.95,1150.52,9.6,34.3,0.0,0.0,0.0,0.75,1.0,1.75,0.0,1.5,0.25,0.5,1.25,1.0,1.75,0.52,1.14,1.27,43.22,6.1,-34.5
1.42,5.25,2.5,7.0,7.5,8.0,4.25,1.0,5.0,1.5,1.75,1.75,0.75,1.25,-0.17,0.08,0.95,1056.65,8.7,31.9,1.0,0.0,0.0,1.0,0.5,1.75,0.0,1.25,0.0,0.5,1.25,1.0,1.5,0.14,0.7,1.39,45.13,1.7,-22.3
1.44,4.0,2.5,6.25,7.25,7.75,4.0,1.0,5.25,1.5,1.75,1.75,1.25,1.25,-0.17,0.08,0.95,951.14,7.6,27.5,1.0,0.25,0.0,0.5,0.5,1.75,0.25,1.25,0.0,0.25,1.5,0.75,1.5,0.14,0.45,1.33,50.56,1.5,-20.4
1.46,2.75,2.25,5.5,6.0,0.0,4.0,1.0,5.5,1.5,2.25,1.75,1.25,1.25,-0.17,0.08,0.95,771.84,7.9,14.0,0.0,0.0,0.0,0.0,1.0,0.5,0.25,1.0,0.0,0.0,0.25,0.5,0.5,0.02,0.27,1.33,35.32,6.8,-21.7
1.48,1.5,1.5,4.5,5.5,0.0,4.5,0.75,5.5,1.5,2.75,1.75,1.25,1.25,-0.17,0.08,0.95,604.55,4.8,5.5,0.0,0.0,0.0,0.5,0.0,0.5,0.0,1.25,0.0,0.0,0.25,0.25,0.5,0.14,0.08,1.2,17.81,7.6,-32.0
1.5,1.75,1.25,1.0,4.5,0.0,4.5,1.0,5.75,1.75,3.5,2.25,1.25,1.5,-0.17,0.08,0.95,433.84,-0.1,-8.2,0.5,0.0,0.0,0.5,0.0,0.5,0.0,1.0,0.0,0.0,0.25,0.25,0.25,0.08,0.02,1.14,10.51,0.2,-6.3
1.52,1.0,1.0,1.25,3.75,0.0,4.5,1.0,6.25,1.75,3.75,2.75,1.25,1.75,-0.17,0.02,0.95,340.64,-1.5,-16.0,0.5,0.0,0.0,0.5,0.0,0.0,0.0,0.75,0.0,0.0,0.25,0.25,0.5,-0.05,-0.11,1.08,14.07,-3.8,-20.0
1.54,0.75,1.0,0.0,3.75,0.0,4.5,0.75,6.5,2.0,5.0,3.5,2.25,2.5,-0.23,0.02,0.95,306.76,-3.8,-29.3,0.5,0.25,0.0,0.75,0.0,0.0,0.0,0.75,0.0,0.0,1.5,0.75,1.25,0.02,-0.17,1.2,34.44,-4.3,-42.7
1.56,0.75,1.0,0.0,3.75,0.0,4.5,1.0,7.0,2.0,6.0,3.5,2.25,3.75,-0.23,0.02,0.95,323.13,-4.6,-33.5,0.75,0.25,0.0,1.0,1.0,1.0,0.0,1.25,0.0,0.25,1.25,0.5,1.25,0.14,-0.36,1.2,65.13,0.5,-12.3
1.58,0.0,1.0,0.5,3.5,0.0,4.5,0.75,7.0,2.0,6.25,4.5,2.5,4.0,-0.23,0.02,0.95,354.97,-4.6,-38.1,0.5,0.0,0.0,1.0,0.0,0.5,0.0,1.25,0.0,0.25,0.25,0.75,1.0,0.2,-0.61,1.08,74.56,1.1,-28.7
1.6,0.0,1.0,0.75,3.5,0.0,4.5,0.75,7.25,2.0,6.25,5.25,3.0,5.0,-0.23,0.02,0.95,400.24,-4.2,-41.0,1.25,0.0,0.0,0.75,1.0,0.25,0.0,1.25,0.0,0.25,1.25,0.5,1.25,0.27,-0.86,1.14,90.46,-2.5,-15.9
1.62,0.0,1.0,1.0,3.25,0.0,4.5,0.75,7.25,1.75,6.25,5.0,2.75,5.25,-0.23,0.02,0.95,443.59,-4.4,-40.8,0.25,0.0,0.0,0.5,1.0,0.0,0.0,1.25,0.0,0.5,1.0,0.5,0.25,0.2,-0.73,0.95,88.04,0.7,-23.5
1.64,0.0,1.0,0.25,2.75,0.0,3.25,0.75,7.25,1.75,6.25,4.5,2.5,5.25,-0.23,0.02,0.95,463.71,-5.4,-46.1,0.25,0.0,0.0,0.75,1.0,0.5,0.0,1.25,0.0,1.0,1.25,0.5,0.5,0.02,-0.55,1.02,95.87,2.6,-25.2
1.66,0.0,0.75,1.75,2.0,0.0,4.0,0.75,7.0,1.5,6.25,4.0,2.5,5.25,-0.23,0.02,0.89,474.19,-4.7,-42.8,0.5,0.0,0.0,0.0,1.0,0.5,0.0,1.25,0.0,0.25,1.25,0.5,1.25,-0.3,-0.17,1.08,96.43,3.5,-35.0
1.68,0.0,1.0,0.75,1.75,0.0,0.0,0.75,6.75,1.5,6.0,3.5,2.25,5.25,-0.23,0.02,0.95,450.87,-4.1,-54.7,0.0,0.0,0.0,1.25,0.5,0.5,0.0,1.25,0.0,0.5,1.0,0.5,1.25,-0.55,-0.05,1.02,104.79,3.1,-33.8
1.7,0.0,1.0,0.75,1.75,0.0,2.75,0.5,6.75,1.25,6.25,3.5,2.25,5.25,-0.23,0.08,0.95,444.67,-6.0,-48.1,1.25,0.0,0.0,1.0,1.0,0.25,0.0,1.25,0.0,1.5,1.25,0.75,1.25,-0.55,-0.11,0.95,122.01,-0.7,-24.1
1.72,0.0,1.0,0.0,1.75,0.0,0.0,0.5,6.75,1.0,6.25,2.5,2.25,5.25,-0.23,0.08,0.95,409.28,-6.4,-58.1,0.75,0.0,0.0,0.5,1.0,0.25,0.0,1.25,0.0,0.0,1.25,0.5,1.25,-0.42,-0.11,0.39,121.42,-0.4,-24.3
1.74,0.0,0.75,0.0,1.75,0.0,0.0,0.25,6.75,1.0,6.25,2.75,1.25,5.25,-0.23,0.08,0.95,383.61,-7.2,-58.3,0.0,0.0,0.0,0.25,1.0,0.0,0.0,1.25,0.0,0.0,1.0,0.25,0.5,0.52,-1.3,1.33,106.8,3.3,-29.1
1.76,0.0,0.75,0.25,0.25,0.0,0.0,0.0,6.5,0.75,5.5,2.0,1.25,5.25,-0.3,0.08,1.02,343.75,-9.0,-64.7,0.0,0.0,0.0,0.5,1.0,2.0,0.0,1.25,0.0,0.75,0.0,0.5,0.0,-0.23,-2.48,1.7,96.7,10.9,-0.5
1.78,0.0,0.0,0.0,0.0,0.0,1.25,0.0,6.0,0.25,4.25,0.5,0.25,4.0,-0.3,0.14,1.02,288.26,-14.5,-62.8,1.25,0.75,0.0,1.0,1.25,3.0,0.0,1.25,0.0,0.0,0.0,0.0,0.0,1.14,-3.86,2.14,104.61,2.5,44.2
1.8,0.0,1.0,0.0,1.25,0.0,1.25,0.0,5.75,0.75,3.5,1.75,0.0,3.75,-0.23,0.14,1.27,253.73,-8.8,-44.5,0.25,0.5,0.0,0.75,2.5,5.5,0.25,5.25,0.0,5.75,0.25,2.5,1.25,0.7,0.52,3.64,186.56,10.8,-24.8
1.82,0.0,0.0,1.5,0.0,0.0,0.0,0.5,5.0,0.75,1.75,0.25,0.25,2.5,-0.3,0.45,2.02,201.84,-5.3,-47.2,2.0,0.5,0.0,3.0,3.5,5.25,1.0,8.75,2.0,9.5,7.5,7.0,7.5,0.27,1.08,1.2,397.96,3.8,-43.3
1.84,0.0,0.0,0.0,0.0,0.0,0.0,0.0,2.5,0.0,0.0,0.75,0.0,0.0,-0.8,0.64,1.95,122.27,-10.5,-47.0,2.75,0.75,2.0,3.0,4.75,5.5,1.75,9.0,2.75,8.25,8.75,6.0,8.0,0.02,-0.36,1.02,691.09,1.4,-34.2
1.86,0.0,1.0,0.5,1.25,0.0,0.0,2.25,2.75,0.0,0.0,0.0,0.0,0.5,-0.3,0.33,1.02,71.09,5.1,10.5,3.5,0.75,4.75,4.0,4.75,5.75,1.75,8.25,2.75,8.0,7.75,6.0,7.25,0.14,0.27,0.89,970.14,-1.0,-25.1
1.88,0.0,0.0,0.0,0.0,0.0,0.0,3.5,4.75,2.75,1.0,0.0,0.0,0.0,0.52,1.14,1.02,55.03,-0.7,-31.4,5.0,1.25,5.0,5.0,5.25,5.75,1.75,8.5,2.75,8.0,8.0,6.0,7.25,0.2,0.14,0.95,1169.63,-2.1,-19.7
1.9,0.0,0.0,0.0,0.0,0.0,0.0,0.0,0.0,0.0,0.0,0.0,0.0,0.0,1.27,1.83,0.77,8.27,0.0,0.0,5.25,1.25,6.5,5.25,5.25,5.5,1.75,8.25,3.25,8.0,8.0,6.25,7.5,0.14,0.08,0.95,1304.09,-3.2,-18.2
1.92,0.0,0.0,0.0,0.0,0.0,0.0,0.0,0.0,0.0,0.0,0.0,0.75,0.0,1.02,1.77,0.95,0.0,8.8,-109.8,5.5,1.25,6.75,5.25,4.75,5.25,2.0,8.25,3.25,8.0,8.25,6.25,8.0,0.14,0.08,0.95,1352.99,-3.5,-19.0
1.94,0.0,1.0,0.0,0.0,0.0,0.0,0.25,3.5,0.0,0.0,1.0,0.0,0.75,0.58,1.45,1.08,0.0,-6.5,-29.4,5.5,1.25,7.5,5.25,4.75,5.25,2.25,8.0,3.25,8.0,8.25,6.25,7.75,0.08,0.08,0.95,1384.66,-4.1,-17.7
1.96,0.0,0.0,0.0,0.0,0.0,0.0,0.0,0.0,0.0,0.0,0.0,0.0,0.0,0.27,1.14,1.14,0.0,0.0,0.0,5.75,1.0,7.5,5.0,4.75,4.5,2.0,7.75,3.0,7.75,8.0,6.25,7.0,0.08,0.08,0.95,1383.32,-4.6,-17.1
1.98,0.0,0.0,0.0,0.0,0.0,0.0,0.0,0.0,0.0,0.0,0.0,0.0,0.0,0.02,1.02,1.14,0.0,0.0,0.0,5.25,0.75,7.5,4.5,4.5,4.0,1.75,7.5,2.75,7.75,7.75,6.25,7.0,0.08,0.08,0.89,1337.42,-4.5,-19.3
2.0,0.0,0.0,0.0,0.0,0.0,0.0,0.0,0.0,0.0,0.0,0.0,0.0,0.0,-0.11,0.89,1.14,0.0,0.0,0.0,5.0,0.75,7.5,3.25,4.25,3.75,1.75,7.5,2.75,7.75,7.75,6.25,7.25,0.08,0.08,0.95,1250.14,-4.2,-22.1
2.02,0.0,0.0,0.0,0.0,0.0,0.0,0.0,0.0,0.0,0.0,0.0,0.0,0.0,-0.55,0.7,1.2,0.0,0.0,0.0,4.25,0.5,6.75,3.25,2.5,3.25,1.75,7.25,2.75,7.75,8.0,6.25,7.5,0.08,0.08,0.95,1119.11,-3.9,-28.5
2.04,0.0,0.0,0.0,0.0,0.0,0.0,0.0,0.0,0.0,0.0,0.0,0.0,0.0,-2.36,-0.3,0.7,0.0,0.0,0.0,3.75,0.75,6.5,3.25,2.25,3.0,1.75,7.25,2.75,8.0,8.25,6.5,7.75,0.08,0.08,0.95,1004.04,-3.6,-31.0
2.06,0.0,0.0,0.0,0.0,0.0,0.0,0.0,0.0,0.0,0.0,0.0,0.0,0.0,-2.98,-1.36,-0.23,0.0,0.0,0.0,3.75,0.5,5.0,3.25,1.25,3.0,1.5,7.25,2.75,8.0,8.25,6.75,8.0,0.08,0.08,0.95,907.34,-2.6,-36.5
2.08,0.0,0.0,0.0,0.0,0.0,0.0,0.0,0.0,0.0,0.0,0.0,0.0,0.0,1.2,0.14,0.2,0.0,0.0,0.0,3.5,0.75,4.75,3.0,1.25,2.75,1.25,7.0,2.75,8.25,8.5,7.25,8.25,0.08,0.08,0.95,876.02,-2.4,-39.0
2.1,0.0,0.0,0.0,0.0,0.0,0.0,0.0,0.0,0.0,0.0,0.0,0.0,0.0,0.2,0.95,0.95,0.0,0.0,0.0,2.5,0.0,2.25,2.25,1.0,2.75,1.25,7.0,2.5,8.5,8.5,7.75,8.5,0.08,0.08,0.95,837.24,0.3,-51.1
2.12,0.0,0.0,1.5,0.0,0.0,0.0,0.0,2.75,0.0,0.25,0.75,0.0,0.75,-1.61,0.52,0.64,19.69,1.0,-28.3,2.25,0.5,2.0,1.5,1.0,2.75,0.75,6.75,2.25,8.75,9.0,7.75,8.75,0.02,0.08,0.95,809.91,0.9,-53.6
2.14,0.0,0.0,0.0,0.0,0.0,0.0,0.0,2.0,0.0,0.0,0.0,0.0,0.0,-0.67,0.33,0.83,36.54,-16.7,-38.7,1.75,0.25,1.5,1.25,1.0,2.75,0.75,6.25,2.0,9.0,9.25,8.5,9.25,0.02,0.14,1.02,792.96,1.7,-59.1
2.16,0.0,0.0,0.0,0.0,0.0,0.0,0.0,0.0,0.0,1.25,0.0,0.0,0.0,-1.17,0.14,0.58,39.86,-15.7,-75.5,0.75,0.0,0.0,1.75,0.5,2.75,0.5,5.5,2.0,9.0,9.5,9.0,9.75,-0.11,0.08,1.02,781.85,3.2,-68.1
2.18,0.5,0.75,1.5,1.5,0.0,0.0,0.25,2.75,0.25,0.0,0.25,0.0,1.0,0.08,0.89,0.39,72.6,7.0,7.2,2.0,0.25,0.0,1.25,0.5,2.75,0.5,4.5,1.5,9.0,9.5,9.5,10.0,-0.11,0.08,0.95,777.77,2.3,-66.2
2.2,0.0,0.0,0.0,0.0,0.0,0.0,0.0,1.75,2.0,0.0,0.0,0.0,0.25,-3.73,-1.23,-0.48,84.15,-2.2,-43.2,1.0,0.0,0.0,1.5,0.5,2.25,0.5,4.25,1.5,8.75,9.5,9.5,10.0,-0.11,0.08,0.95,770.78,2.6,-70.6
2.22,0.0,0.0,0.0,0.0,0.0,0.0,0.0,2.75,0.0,0.0,0.25,0.0,0.5,-2.61,2.64,-0.05,86.34,-14.4,-51.7,1.25,0.5,0.0,2.0,0.0,2.0,0.0,2.75,1.0,8.0,8.75,8.5,9.25,0.08,0.02,0.77,729.55,1.9,-68.7
2.24,0.0,0.0,0.0,0.0,0.0,0.0,0.0,0.0,0.0,0.0,0.0,0.0,0.0,-7.98,-0.8,1.02,59.83,0.0,0.0,0.5,0.75,0.0,0.5,0.0,1.25,0.0,2.5,1.0,8.5,8.75,8.5,9.25,0.08,0.08,0.95,680.98,2.8,-77.3
2.26,0.0,0.0,0.0,0.0,0.0,0.0,0.0,0.0,0.0,0.0,0.0,0.0,0.0,-0.23,1.39,-0.98,37.38,0.0,0.0,1.25,0.5,0.0,1.75,1.0,2.5,0.5,1.25,1.25,8.25,9.75,9.5,9.25,-0.23,0.08,1.02,668.64,1.1,-66.6
2.28,0.0,0.0,0.0,0.0,0.0,0.0,0.0,0.0,0.0,0.0,0.0,0.0,0.0,0.14,1.52,0.7,11.69,0.0,0.0,0.75,0.25,0.0,2.0,0.5,2.0,0.5,1.75,1.0,8.0,9.5,9.5,10.0,-0.05,0.08,0.95,666.21,1.6,-71.6
2.3,0.0,0.0,0.0,0.0,0.0,0.0,0.0,0.0,0.0,0.0,0.0,0.0,0.0,0.14,1.2,0.95,0.91,0.0,0.0,0.0,0.0,0.0,0.5,0.0,0.5,0.0,1.25,0.75,7.0,8.5,8.0,9.0,-0.05,0.02,0.83,618.29,2.5,-86.7
2.32,0.0,0.0,0.0,0.0,0.0,0.0,0.0,0.0,0.0,0.0,0.0,0.0,0.0,0.2,0.27,0.45,0.0,0.0,0.0,0.0,0.0,0.0,0.5,0.0,1.0,0.0,1.75,1.25,6.5,9.0,8.25,8.5,-0.17,0.02,0.95,579.81,2.2,-83.6
2.34,0.0,0.5,1.5,0.0,0.0,0.0,0.0,2.5,0.0,1.0,0.0,0.25,0.0,-1.17,-0.86,-0.3,22.84,1.7,-9.3,1.5,0.0,0.0,0.5,0.0,0.5,0.0,0.75,0.75,6.75,8.5,7.75,8.5,-0.11,0.08,1.08,533.89,0.7,-79.6
2.36,0.5,0.0,1.5,0.0,0.0,0.0,0.0,1.75,0.0,0.0,0.0,0.25,0.0,-1.61,-0.05,-0.17,39.05,12.0,11.1,2.75,0.0,0.0,0.5,0.0,0.5,0.0,0.0,0.75,6.25,8.5,7.75,8.5,-0.11,0.08,1.02,502.7,-1.0,-74.6
2.38,0.5,0.75,0.75,0.0,0.0,0.0,0.0,3.0,0.0,0.5,0.0,0.0,0.0,-1.36,0.83,0.2,66.85,-0.4,2.7,0.0,0.0,2.25,0.0,0.0,0.75,0.0,0.0,0.75,5.75,7.75,7.25,8.0,-0.11,0.02,0.95,469.49,-0.7,-78.8
2.4,0.5,0.75,1.5,1.25,0.0,0.0,0.0,3.0,0.5,0.25,0.25,0.25,0.0,-1.3,0.77,1.02,93.77,7.7,11.1,0.0,0.0,0.0,0.5,0.0,0.5,0.0,0.0,0.75,5.75,7.75,7.75,0.0,-0.17,0.02,1.02,396.43,-2.9,-80.6
2.42,0.5,0.75,1.5,1.0,0.0,0.0,0.0,3.25,0.5,0.5,0.25,0.25,0.25,-1.73,1.27,1.33,117.15,5.4,2.3,0.0,0.0,2.0,0.0,0.0,0.5,0.5,0.0,0.75,5.75,8.0,7.75,8.0,-0.17,0.02,1.02,393.24,-1.0,-80.4
2.44,0.5,0.75,1.25,0.75,0.0,0.0,0.0,3.25,0.5,0.0,0.25,0.0,0.25,-1.8,1.83,0.27,132.98,5.2,7.2,0.0,0.0,2.0,0.0,0.0,0.25,0.0,0.0,0.75,5.25,8.25,7.75,7.75,-0.17,0.02,1.02,393.6,-1.4,-81.9
2.46,0.0,0.0,0.0,0.0,0.0,0.0,0.0,0.0,0.0,0.0,0.0,0.0,0.0,-0.92,2.14,-0.23,101.83,0.0,0.0,0.0,0.0,2.25,0.5,0.0,0.0,0.5,0.0,0.5,4.75,8.25,7.25,7.0,-0.05,0.08,1.2,410.13,-2.8,-77.6
2.48,0.0,0.0,0.0,0.0,0.0,0.0,0.0,0.0,0.0,0.0,0.0,0.0,0.0,-0.05,1.77,-0.36,66.98,0.0,0.0,0.0,0.0,2.25,0.5,0.0,0.5,0.0,0.0,0.75,4.0,7.75,7.25,6.5,-0.17,0.08,0.77,405.11,-2.9,-75.9
2.5,0.0,0.0,0.0,0.0,0.0,0.0,0.0,0.0,0.0,0.0,0.0,0.0,0.0,0.14,1.52,0.83,27.31,0.0,0.0,0.0,0.0,2.5,0.25,0.0,0.75,0.5,0.0,1.5,5.75,8.0,8.5,6.0,-0.36,-0.05,0.7,425.5,-2.8,-74.3
2.52,0.0,0.0,0.0,0.0,0.0,0.0,0.0,0.0,0.0,0.0,0.0,0.0,0.0,-0.3,1.27,0.58,5.22,0.0,0.0,1.0,0.0,5.0,1.25,0.5,1.25,1.0,0.0,1.0,5.75,9.25,8.5,7.0,-0.3,-0.05,0.89,478.09,-5.7,-56.2
2.54,0.0,0.0,0.0,0.0,0.0,0.0,0.0,0.0,0.0,0.0,0.0,0.0,0.0,-1.36,1.52,1.45,0.0,0.0,0.0,1.0,0.0,6.25,1.25,0.5,1.0,1.0,0.0,1.0,5.5,9.5,8.5,7.5,-0.3,-0.05,1.2,545.71,-6.7,-53.8
2.56,0.0,0.0,0.0,0.0,0.0,0.0,0.0,0.0,0.0,0.0,0.0,0.0,0.0,-0.55,-0.23,1.64,0.0,0.0,0.0,0.5,0.0,5.75,1.25,0.5,1.5,0.75,0.0,0.75,5.5,9.0,8.5,7.0,-0.23,0.02,1.2,589.68,-5.8,-55.3
2.58,0.0,0.0,0.0,0.0,0.0,0.0,0.0,0.0,0.0,0.0,0.0,0.0,0.0,-0.17,-0.86,0.39,0.0,0.0,0.0,1.0,0.25,4.5,1.5,1.25,1.0,0.5,0.0,0.0,3.5,9.0,7.75,7.0,-0.36,-0.11,0.7,590.29,-6.2,-52.5
2.6,0.0,0.0,0.0,0.0,0.0,0.0,0.0,0.0,0.0,0.0,0.0,0.0,0.0,-0.8,-1.61,-1.17,0.0,0.0,0.0,0.5,0.0,5.0,0.5,0.5,0.25,0.0,0.0,0.25,3.5,9.0,7.75,7.25,-0.61,-0.11,0.64,564.98,-6.4,-62.7
2.62,0.0,0.0,0.0,0.0,0.0,0.0,0.0,0.0,0.0,0.0,0.0,0.0,0.0,-0.98,-1.3,-1.05,0.0,0.0,0.0,0.0,0.0,2.5,0.0,0.0,0.5,0.0,0.0,0.25,4.0,8.25,7.75,6.25,-0.55,0.02,0.89,512.81,-3.2,-78.0
2.64,0.0,0.0,0.0,0.0,0.0,0.0,0.0,0.0,0.0,0.0,0.0,0.0,0.0,-0.67,0.33,-0.23,0.0,0.0,0.0,0.0,0.0,2.25,0.5,0.0,0.25,0.0,0.0,0.25,3.5,8.25,7.75,6.25,-0.55,-0.11,0.95,469.91,-3.6,-77.7
2.66,0.0,0.0,0.0,0.0,0.0,0.0,0.0,0.0,0.0,0.25,0.0,0.25,0.0,-0.86,1.77,-0.92,0.0,-3.4,-92.6,0.0,0.0,2.0,0.5,0.0,0.5,0.0,0.0,0.0,3.25,8.25,7.75,6.0,-0.55,-0.05,0.89,423.63,-3.4,-78.1
2.68,0.0,0.0,0.0,0.0,0.0,0.0,0.0,0.0,0.0,0.0,0.0,0.0,0.0,-0.92,1.39,-0.98,0.0,0.0,0.0,0.25,0.0,0.75,0.5,0.0,0.5,0.0,0.0,0.0,3.25,7.75,7.5,6.0,-0.48,-0.36,0.7,396.24,-1.8,-83.1
2.7,0.0,0.0,0.0,0.0,0.0,0.0,0.0,0.0,0.0,0.0,0.0,0.0,0.0,-0.8,0.39,-0.67,2.77,0.0,0.0,2.0,0.0,0.25,2.0,0.0,1.25,0.0,0.0,0.75,4.5,7.75,8.0,6.0,-0.73,0.02,1.14,401.67,-2.7,-65.9
2.72,0.0,0.0,0.0,0.0,0.0,0.0,0.0,0.0,0.0,0.0,0.0,0.0,0.0,-0.8,-0.17,-0.67,1.39,0.0,0.0,0.75,0.0,2.0,1.0,0.5,0.75,0.0,0.0,0.25,4.0,7.75,7.75,6.25,-0.98,0.14,1.08,405.0,-3.3,-68.4
2.74,0.0,0.0,0.0,1.0,0.0,0.0,0.0,0.0,3.0,1.25,0.0,0.75,0.0,-1.11,0.08,-0.61,33.89,6.8,-38.2,0.75,0.0,2.0,2.0,0.5,1.25,0.0,0.0,0.25,3.5,7.5,6.75,6.0,-0.3,-0.36,0.83,404.01,-3.6,-60.6
2.76,0.0,0.0,0.0,0.0,0.0,0.0,0.0,0.0,0.0,0.0,0.0,0.0,0.0,-1.36,-0.05,-0.55,30.89,0.0,0.0,0.75,0.0,2.0,1.5,0.5,0.75,0.0,0.0,0.0,3.25,7.0,6.0,5.5,-0.3,-0.61,1.02,384.28,-4.0,-62.1
2.78,0.0,0.0,0.0,0.0,0.0,0.0,0.0,0.0,0.0,0.0,0.0,0.0,0.0,-1.17,0.02,-0.36,28.55,0.0,0.0,0.5,0.0,1.0,1.25,0.5,1.25,0.0,0.0,0.0,2.0,5.25,5.0,4.75,-1.05,-1.05,1.14,344.95,-2.3,-63.3
2.8,0.0,0.0,0.0,0.0,0.0,0.0,0.0,0.0,0.0,0.0,0.0,0.0,0.0,-0.42,-0.23,-0.17,14.39,0.0,0.0,0.5,0.0,0.0,1.25,0.5,1.25,0.0,0.0,0.0,1.75,4.0,3.5,4.0,-1.67,-1.61,1.58,290.09,0.0,-63.6
2.82,0.0,0.0,0.0,0.0,0.0,0.0,0.0,0.0,0.0,0.0,0.0,0.0,0.0,-0.23,0.02,0.2,7.04,0.0,0.0,0.0,0.0,0.0,0.5,0.5,1.0,0.0,0.0,0.0,1.5,3.25,2.75,3.0,-2.23,-2.42,1.95,236.66,1.7,-71.6
2.84,0.0,0.0,0.0,0.0,0.0,0.0,0.0,0.0,0.0,0.0,0.0,0.0,0.0,-0.73,0.08,0.14,0.0,0.0,0.0,0.0,0.0,0.0,0.5,0.5,0.25,0.0,0.0,0.0,0.0,2.75,1.25,2.5,-1.86,-1.8,1.7,170.42,-0.7,-70.4
2.86,0.0,0.0,0.0,0.0,0.0,0.0,0.0,0.0,0.0,0.0,0.0,0.0,0.0,-1.17,0.02,0.02,0.0,0.0,0.0,0.75,0.0,0.0,1.25,0.5,1.25,0.0,0.0,0.0,0.75,1.25,1.75,1.5,-1.8,-1.67,2.58,119.79,-1.5,-32.5
2.88,0.0,0.0,0.0,0.0,0.0,0.0,0.0,0.0,0.0,0.0,0.0,0.0,0.0,-1.55,0.02,-0.17,0.0,0.0,0.0,0.0,0.5,0.0,1.0,0.5,1.0,0.0,0.25,0.0,1.0,2.5,1.75,2.25,-1.36,-1.48,2.52,96.61,0.8,-49.8
2.9,0.0,0.0,0.0,0.0,0.0,0.0,0.0,0.0,0.0,0.0,0.0,0.0,0.0,-1.48,-0.11,-0.3,0.0,0.0,0.0,0.25,0.0,0.0,0.75,0.5,1.0,0.0,0.5,0.0,0.0,2.5,1.0,2.25,-0.92,-1.23,2.64,82.17,0.7,-49.5
2.92,0.0,0.0,0.0,0.0,0.0,0.0,0.0,0.0,0.0,0.0,0.0,0.0,0.0,-1.23,-0.36,-0.3,0.0,0.0,0.0,0.0,0.0,0.0,1.25,1.0,0.5,0.0,0.5,0.0,0.5,1.75,1.25,2.25,-0.48,-0.92,2.83,78.91,1.1,-45.9
2.94,0.0,0.0,0.0,0.0,0.0,0.0,0.0,0.0,0.0,0.0,0.0,0.0,0.0,-1.05,-0.3,-0.23,0.0,0.0,0.0,0.25,0.25,0.0,0.75,0.5,0.75,0.0,0.5,0.0,0.25,1.75,1.25,2.25,-0.23,-0.67,2.58,73.91,0.9,-47.6
2.96,2.0,0.5,0.0,1.75,0.0,0.0,0.0,0.0,2.0,1.75,0.0,0.5,0.0,-1.05,-0.17,-0.23,43.11,12.3,9.1,0.75,0.0,0.0,0.75,0.5,1.5,0.0,0.5,0.0,0.25,1.5,1.5,2.25,-0.11,-0.55,2.27,82.19,1.2,-39.3
2.98,2.75,0.75,2.0,0.75,0.0,0.0,2.0,4.75,2.25,1.75,1.75,0.5,0.5,-1.11,0.08,-0.17,133.6,8.5,-6.2,0.75,0.25,0.0,0.75,0.5,0.5,0.0,1.0,0.0,0.25,1.5,1.25,2.25,-0.05,-0.48,2.14,89.89,-0.3,-41.0
3.0,2.75,0.75,2.0,2.25,0.0,0.0,2.5,4.75,2.5,1.0,2.0,0.5,0.5,-1.05,0.08,-0.42,220.12,10.4,0.5,0.0,0.25,0.0,1.0,0.5,0.75,0.0,1.0,0.0,0.25,1.5,1.25,2.25,0.02,-0.48,2.08,103.44,2.5,-47.1
3.02,0.0,0.0,0.0,0.0,0.0,0.0,0.0,0.0,0.0,0.0,0.0,0.0,0.0,-0.98,0.02,-0.48,192.65,0.0,0.0,0.75,0.0,0.0,1.0,1.0,1.5,0.0,0.75,0.0,0.5,1.5,1.25,2.25,-0.11,-0.42,1.83,121.95,1.8,-31.0
3.04,0.0,0.0,0.0,0.0,0.0,0.0,0.0,0.0,0.0,0.0,0.0,0.0,0.0,-1.17,0.08,-0.48,141.54,0.0,0.0,0.25,0.0,0.0,0.5,0.5,2.0,0.0,1.25,0.0,0.25,1.25,1.25,2.0,-0.23,-0.36,1.77,131.44,6.1,-40.3
3.06,0.0,0.0,0.0,0.0,0.0,0.0,0.0,0.0,0.0,0.0,0.0,0.0,0.0,-1.3,0.14,-0.23,69.11,0.0,0.0,0.5,0.0,0.0,1.25,0.5,1.25,0.0,1.25,0.0,0.25,1.5,1.25,1.75,-0.42,-0.17,1.2,138.42,1.3,-33.4
3.08,0.0,0.0,0.0,0.0,0.0,0.0,0.0,0.0,0.0,0.0,0.0,0.0,0.0,-1.36,0.33,-0.17,24.35,0.0,0.0,0.5,0.0,0.0,0.5,0.5,1.25,0.0,1.0,0.0,0.0,1.25,1.0,1.5,-0.73,0.02,1.14,131.21,2.6,-34.9
3.1,0.0,0.0,0.0,0.0,0.0,0.0,0.0,0.0,0.0,0.0,0.0,0.0,0.0,-1.36,0.33,-0.36,0.0,0.0,0.0,0.5,0.0,0.0,1.0,1.0,1.25,0.0,1.0,0.0,0.25,1.5,1.25,1.5,-0.67,0.02,0.95,129.25,1.2,-28.3
3.12,0.0,0.0,0.0,0.0,0.0,0.0,0.0,0.0,0.0,0.0,0.0,0.0,0.0,-1.23,0.39,-0.48,0.0,0.0,0.0,0.0,0.25,0.0,1.25,0.5,1.25,0.0,1.0,0.0,0.25,1.5,1.25,1.5,-0.55,-0.05,0.64,125.27,2.0,-34.1
3.14,0.0,0.0,0.0,0.0,0.0,0.0,0.0,0.0,0.0,0.0,0.0,0.0,0.0,-0.8,0.52,-0.42,0.0,0.0,0.0,0.5,0.0,0.0,1.0,1.0,1.75,0.0,1.25,0.0,0.25,1.25,1.0,1.75,-0.55,-0.11,0.2,132.25,3.5,-24.5
3.16,0.0,0.0,0.0,0.0,0.0,0.0,0.0,0.0,0.0,0.0,0.0,0.0,0.0,-0.67,0.52,-0.36,0.0,0.0,0.0,1.0,0.0,0.0,0.75,0.5,1.25,0.0,1.0,0.0,0.25,1.25,1.0,1.5,-0.23,-0.11,0.27,129.42,0.3,-25.9
3.18,0.0,0.0,0.0,0.0,0.0,0.0,0.0,0.0,0.0,0.0,0.0,0.0,0.0,-0.67,0.45,-0.3,0.0,0.0,0.0,0.5,0.25,0.0,1.25,0.5,1.25,0.0,1.25,0.0,0.25,1.25,1.0,1.5,-0.05,-0.05,0.27,130.56,1.2,-24.2
3.2,0.0,0.0,0.0,0.0,0.0,0.0,0.0,0.0,0.0,0.0,0.0,0.0,0.0,-0.55,0.33,-0.3,0.0,0.0,0.0,1.25,0.25,0.0,1.25,0.5,1.5,0.0,1.25,0.0,0.25,1.25,1.0,1.5,0.02,0.08,0.02,133.63,-0.8,-14.3
3.22,0.0,0.0,0.0,0.0,0.0,0.0,0.0,0.0,0.0,0.0,0.0,0.0,0.0,-0.42,0.27,-0.3,0.0,0.0,0.0,0.5,0.0,0.0,0.0,0.5,1.25,0.0,1.0,0.0,0.25,1.25,1.0,1.75,-0.11,0.08,-0.17,128.17,4.8,-45.3
3.24,0.0,0.0,0.0,0.0,0.0,0.0,0.0,0.0,0.0,0.0,0.0,0.0,0.0,-0.55,0.27,-0.42,0.0,0.0,0.0,0.5,0.0,0.0,1.0,0.5,1.5,0.0,1.25,0.0,0.25,1.25,1.0,1.75,-0.17,0.14,-0.42,128.37,3.0,-31.0
3.26,0.0,0.0,0.0,0.0,0.0,0.0,0.0,0.0,0.0,0.0,0.0,0.0,0.0,-0.61,0.33,-0.61,0.0,0.0,0.0,0.5,0.0,0.0,0.25,0.5,1.0,0.0,1.25,0.0,0.25,1.25,1.0,1.25,-0.23,0.2,-0.42,119.64,3.2,-39.3
3.28,0.0,0.0,0.0,0.0,0.0,0.0,0.0,0.0,0.0,0.0,0.0,0.0,0.0,-0.55,0.39,-0.61,0.0,0.0,0.0,0.0,0.25,0.0,1.25,0.5,1.25,0.0,1.0,0.0,0.25,1.25,1.0,1.25,-0.23,0.2,-0.3,118.12,2.4,-28.1
3.3,0.0,0.0,0.0,0.0,0.0,0.0,0.0,0.0,0.0,0.0,0.0,0.0,0.0,-0.61,0.33,-0.55,0.0,0.0,0.0,0.5,0.0,0.0,0.75,0.5,0.75,0.0,1.25,0.0,0.25,1.25,1.0,1.5,-0.17,0.39,-0.48,114.25,1.5,-37.4
3.32,0.0,0.0,0.0,0.0,0.0,0.0,0.0,0.0,0.0,0.0,0.0,0.0,0.0,-0.73,0.27,-0.48,0.0,0.0,0.0,0.5,0.0,0.0,1.0,0.5,1.75,0.0,1.0,0.0,0.25,1.25,1.0,1.25,-0.17,0.52,-0.67,117.47,2.5,-24.2
3.34,0.0,0.0,0.0,0.0,0.0,0.0,0.0,0.0,0.0,0.0,0.0,0.0,0.0,-0.67,0.27,-0.42,0.0,0.0,0.0,0.75,0.0,0.0,1.25,0.5,1.25,0.0,1.25,0.0,0.25,1.5,1.0,1.25,-0.17,0.39,-0.86,120.29,0.0,-23.5
3.36,0.0,0.0,0.0,0.0,0.0,0.0,0.0,0.0,0.0,0.0,0.0,0.0,0.0,-0.55,0.27,-0.36,0.0,0.0,0.0,0.75,0.0,0.0,1.0,1.0,1.25,0.0,0.75,0.0,0.25,0.75,1.0,1.25,-0.05,0.33,-0.92,121.3,0.7,-15.0
3.38,0.0,0.0,0.0,0.0,0.0,0.0,0.0,0.0,0.0,0.0,0.0,0.0,0.0,-0.61,0.27,-0.36,0.0,0.0,0.0,0.75,0.0,0.0,0.5,0.5,1.25,0.0,1.0,0.0,0.25,1.0,1.0,1.25,-0.11,0.2,-0.92,117.41,1.9,-28.2
3.4,0.0,0.0,0.0,0.0,0.0,0.0,0.0,0.0,0.0,0.0,0.0,0.0,0.0,-0.61,0.2,-0.36,0.0,0.0,0.0,0.5,0.0,0.0,0.5,1.0,1.5,0.0,1.25,0.0,0.25,1.75,1.0,1.25,-0.05,0.08,-0.86,120.6,2.9,-28.7
3.42,0.0,0.0,0.0,0.0,0.0,0.0,0.0,0.0,0.0,0.0,0.0,0.0,0.0,-0.61,0.14,-0.42,0.0,0.0,0.0,1.5,0.25,0.0,0.5,0.5,1.25,0.0,1.0,0.0,0.25,1.25,1.25,1.25,-0.05,0.08,-0.92,123.26,-2.0,-18.2
3.44,0.0,0.0,0.0,0.0,0.0,0.0,0.0,0.0,0.0,0.0,0.0,0.0,0.0,-0.55,0.14,-0.42,0.0,0.0,0.0,0.5,0.25,0.0,1.25,0.5,1.25,0.0,1.25,0.0,0.25,1.25,1.0,1.25,-0.11,0.14,-0.98,126.76,0.8,-21.7
3.46,0.0,0.0,0.0,0.0,0.0,0.0,0.0,0.0,0.0,0.0,0.0,0.0,0.0,-0.61,0.08,-0.42,0.0,0.0,0.0,0.5,0.0,0.0,0.5,0.5,1.0,0.0,1.25,0.0,0.25,1.25,1.0,1.25,-0.17,0.2,-0.98,124.45,2.5,-36.0
3.48,0.0,0.0,0.0,0.0,0.0,0.0,0.0,0.0,0.0,0.0,0.0,0.0,0.0,-0.67,0.08,-0.42,0.0,0.0,0.0,0.0,0.25,0.0,1.25,0.5,1.5,0.0,1.0,0.0,0.25,1.25,1.0,1.25,-0.23,0.08,-0.98,122.67,3.0,-26.3
3.5,0.0,0.0,0.0,0.0,0.0,0.0,0.0,0.0,0.0,0.0,0.0,0.0,0.0,-0.67,0.02,-0.42,0.0,0.0,0.0,0.75,0.25,0.0,1.5,0.5,1.25,0.0,1.25,0.0,0.25,1.25,1.0,1.25,-0.23,-0.05,-1.05,126.16,-0.5,-16.4
3.52,0.0,0.0,0.0,0.0,0.0,0.0,0.0,0.0,0.0,0.0,0.0,0.0,0.0,-0.67,-0.05,-0.42,0.0,0.0,0.0,0.5,0.25,0.0,0.75,0.5,1.0,0.0,1.25,0.0,0.25,1.25,1.25,1.25,-0.23,-0.23,-1.05,125.24,1.0,-31.0
3.54,0.0,0.0,0.0,0.0,0.0,0.0,0.0,0.0,0.0,0.0,0.0,0.0,0.0,-0.61,-0.11,-0.48,0.0,0.0,0.0,0.5,0.25,0.0,0.5,0.5,1.5,0.0,1.25,0.0,0.25,1.25,1.25,1.25,-0.3,-0.36,-1.05,125.98,2.8,-30.1
3.56,0.0,0.0,0.0,0.0,0.0,0.0,0.0,0.0,0.0,0.0,0.0,0.0,0.0,-0.61,-0.11,-0.48,0.0,0.0,0.0,0.5,0.0,0.0,0.5,0.5,1.75,0.0,1.25,0.0,0.25,1.0,1.0,1.25,-0.42,-0.36,-0.98,122.29,4.7,-28.5
3.58,0.0,0.0,0.0,0.0,0.0,0.0,0.0,0.0,0.0,0.0,0.0,0.0,0.0,-0.67,-0.11,-0.42,0.0,0.0,0.0,0.75,0.0,0.0,0.5,1.0,1.25,0.0,1.25,0.0,0.25,1.25,1.0,1.25,-0.48,-0.36,-0.86,122.27,2.0,-24.3
3.6,0.0,0.0,0.0,0.0,0.0,0.0,0.0,0.0,0.0,0.0,0.0,0.0,0.0,-0.67,-0.17,-0.42,0.0,0.0,0.0,0.5,0.0,0.0,1.0,0.5,1.0,0.0,1.25,0.0,0.25,1.25,1.0,1.25,-0.55,-0.36,-0.8,119.9,1.2,-29.8
3.62,0.0,0.0,0.0,0.0,0.0,0.0,0.0,0.0,0.0,0.0,0.0,0.0,0.0,-0.8,-0.17,-0.42,0.0,0.0,0.0,0.5,0.0,0.0,0.75,0.5,1.5,0.0,1.0,0.0,0.25,1.25,1.0,1.25,-0.61,-0.36,-0.8,118.8,2.6,-28.6
3.64,0.0,0.0,0.0,0.0,0.0,0.0,0.0,0.0,0.0,0.0,0.0,0.0,0.0,-0.92,-0.17,-0.48,0.0,0.0,0.0,0.5,0.0,0.0,0.75,0.5,1.25,0.0,0.75,0.0,0.25,1.25,1.0,1.25,-0.67,-0.42,-0.73,114.1,1.5,-30.3
3.66,0.0,0.0,0.0,0.0,0.0,0.0,0.0,0.0,0.0,0.0,0.0,0.0,0.0,-1.11,-0.05,-0.48,0.0,0.0,0.0,1.25,0.0,0.0,1.0,0.5,1.25,0.0,1.0,0.0,0.0,1.25,1.0,1.25,-0.67,-0.42,-0.73,116.66,-2.0,-15.9
3.68,0.0,0.0,0.0,0.0,0.0,0.0,0.0,0.0,0.0,0.0,0.0,0.0,0.0,-1.73,-0.05,-0.48,0.0,0.0,0.0,0.5,0.0,0.0,0.5,0.5,1.25,0.0,1.25,0.0,0.25,1.25,1.0,1.25,-0.61,-0.42,-0.73,115.78,3.1,-33.8
3.7,0.0,0.0,0.0,0.0,0.0,0.0,0.0,0.0,0.0,0.0,0.0,0.0,0.0,-2.11,0.08,-0.48,0.0,0.0,0.0,0.0,0.5,0.0,1.0,0.5,1.0,0.0,1.25,0.0,0.25,1.25,1.0,1.25,-0.61,-0.42,-0.73,117.24,2.4,-29.0
3.72,0.0,0.0,0.0,0.0,0.0,0.0,0.0,0.0,0.0,0.0,0.0,0.0,0.0,-1.86,0.08,-0.42,0.0,0.0,0.0,0.75,0.25,0.0,1.0,0.5,0.75,0.0,1.0,0.0,0.25,1.25,1.0,1.25,-0.61,-0.42,-0.67,116.16,-1.3,-23.6
3.74,0.0,0.0,0.0,0.0,0.0,0.0,0.0,0.0,0.0,0.0,0.0,0.0,0.0,-1.3,0.14,-0.36,0.0,0.0,0.0,0.5,0.0,0.0,0.5,0.5,1.0,0.0,1.25,0.0,0.25,1.25,1.0,1.25,-0.61,-0.48,-0.73,114.44,2.5,-36.0
3.76,0.0,0.0,0.0,0.0,0.0,0.0,0.0,0.0,0.0,0.0,0.0,0.0,0.0,-1.17,0.14,-0.3,0.0,0.0,0.0,0.5,0.25,0.0,1.25,1.0,1.25,0.0,1.25,0.0,0.25,1.25,1.0,1.25,-0.61,-0.48,-0.67,121.92,0.9,-17.0
3.78,0.0,0.0,0.0,0.0,0.0,0.0,0.0,0.0,0.0,0.0,0.0,0.0,0.0,-0.98,0.14,-0.11,0.0,0.0,0.0,0.75,0.0,0.0,1.0,0.5,1.25,0.0,1.25,0.0,0.25,1.25,1.0,1.25,-0.61,-0.48,-0.55,123.98,0.8,-24.5
3.8,0.0,0.0,0.0,0.5,0.0,0.0,0.0,0.75,2.75,0.75,0.0,0.0,0.0,-0.8,0.14,-0.05,25.99,3.7,-33.8,0.5,0.0,0.0,0.75,0.5,1.25,0.0,1.25,0.0,0.25,1.25,1.0,1.25,-0.61,-0.48,-0.48,124.56,2.4,-30.8
3.82,0.25,0.5,2.25,0.75,0.0,0.0,2.5,4.75,1.0,0.25,1.5,0.0,0.5,-0.73,0.14,-0.05,92.66,7.1,-8.7,1.25,0.0,0.0,0.5,0.5,1.25,0.0,1.25,0.0,0.25,1.25,1.0,1.25,-0.67,-0.48,-0.48,123.66,0.0,-22.9
3.84,0.0,0.25,1.75,0.0,0.0,0.0,0.5,2.75,0.5,0.5,0.0,0.0,0.0,-0.67,0.02,-0.11,116.65,5.2,-3.5,0.5,0.0,0.0,0.5,1.0,1.25,0.0,1.25,0.0,0.25,1.0,1.0,1.25,-0.61,-0.48,-0.48,122.04,3.5,-26.3
3.86,0.0,0.75,1.25,0.0,0.0,0.0,0.25,2.5,0.5,0.25,0.0,0.0,0.25,-0.73,0.02,-0.23,128.21,3.4,-0.8,1.0,0.0,0.0,0.75,0.5,1.0,0.0,1.25,0.0,0.25,1.25,1.0,1.25,-0.48,-0.48,-0.55,120.83,-0.2,-25.4
3.88,0.0,0.0,1.25,0.25,0.0,0.0,0.0,2.5,0.25,0.25,0.0,0.0,0.25,-0.73,-0.05,-0.3,115.37,1.5,-12.4,0.5,0.0,0.0,0.5,0.5,1.0,0.0,1.25,0.0,0.25,1.25,1.0,1.25,-0.55,-0.55,-0.42,117.59,2.5,-36.0
3.9,0.0,0.0,0.75,0.0,0.0,0.0,0.5,2.75,0.0,0.0,0.0,0.0,0.0,-0.86,-0.05,-0.3,98.41,-2.3,-14.0,0.5,0.0,0.0,0.5,0.5,1.25,0.0,1.0,0.0,0.5,1.25,1.0,1.25,-0.61,-0.61,-0.23,116.06,3.0,-35.0
3.92,0.0,0.0,0.0,0.0,0.0,0.0,0.25,2.75,0.0,0.0,0.0,0.0,0.0,-0.92,-0.11,-0.3,76.48,-14.7,-36.0,1.0,0.0,0.0,0.75,0.5,1.0,0.0,1.25,0.0,0.25,1.25,1.0,1.75,-0.61,-0.55,-0.23,119.1,0.5,-30.3
3.94,0.0,0.0,0.0,0.0,0.0,0.0,0.0,0.0,0.0,0.0,0.0,0.0,0.0,-1.05,-0.11,-0.3,49.99,0.0,0.0,0.25,0.0,0.0,0.75,0.5,1.25,0.0,1.0,0.0,0.25,1.25,1.0,1.25,-0.42,-0.55,-0.3,117.16,3.1,-34.5
3.96,0.0,0.0,0.0,0.0,0.0,0.0,0.0,0.0,0.0,0.0,0.0,0.0,0.0,-1.17,-0.11,-0.3,26.64,0.0,0.0,0.5,0.0,0.0,0.75,0.5,0.75,0.0,1.25,0.0,0.25,1.25,1.0,1.25,-0.42,-0.55,-0.23,115.6,1.1,-34.9
3.98,0.0,0.0,0.0,0.0,0.0,0.0,0.0,0.0,0.0,0.0,0.0,0.0,0.0,-1.17,-0.11,-0.3,4.92,0.0,0.0,0.25,0.0,0.0,0.5,0.5,0.5,0.0,1.0,0.0,0.25,1.0,1.0,1.25,-0.42,-0.55,-0.17,107.63,2.3,-44.5
4.0,0.0,0.0,0.0,0.0,0.0,0.0,0.0,0.0,0.0,0.0,0.0,0.0,0.0,-1.11,-0.11,-0.3,0.0,0.0,0.0,0.75,0.25,0.0,1.25,0.5,1.0,0.0,1.25,0.0,0.25,1.25,1.0,1.25,-0.3,-0.48,-0.17,111.73,-0.6,-20.0
4.02,0.0,0.0,0.0,0.0,0.0,0.0,0.0,0.0,0.0,0.0,0.0,0.0,0.0,-1.11,-0.11,-0.23,0.0,0.0,0.0,0.75,0.0,0.0,0.5,0.5,1.0,0.0,1.25,0.0,0.25,0.75,1.0,1.25,-0.23,-0.55,0.02,109.64,2.1,-29.0
4.04,0.0,0.0,0.0,0.0,0.0,0.0,0.0,0.0,0.0,0.0,0.0,0.0,0.0,-0.98,-0.05,-0.17,0.0,0.0,0.0,0.5,0.5,0.0,0.5,0.5,1.25,0.0,1.25,0.0,0.25,1.0,1.0,1.0,-0.36,-0.61,0.08,112.65,2.1,-21.2
4.06,0.0,0.0,0.0,0.0,0.0,0.0,0.0,0.0,0.0,0.0,0.0,0.0,0.0,-0.98,0.02,-0.17,0.0,0.0,0.0,0.5,0.0,0.0,0.0,0.5,1.25,0.0,1.25,0.0,0.25,0.75,1.0,0.75,-0.55,-0.55,0.08,104.74,5.0,-32.0
4.08,0.0,0.0,0.0,0.0,0.0,0.0,0.0,0.0,0.0,0.0,0.0,0.0,0.0,-0.92,0.02,-0.17,0.0,0.0,0.0,0.0,0.25,0.0,0.75,0.5,1.25,0.0,1.25,0.0,0.25,1.25,1.0,1.0,-0.67,-0.42,0.2,105.77,3.8,-31.6
4.1,0.0,0.0,0.0,0.0,0.0,0.0,0.0,0.0,0.0,0.0,0.0,0.0,0.0,-0.92,0.02,-0.23,0.0,0.0,0.0,0.5,0.0,0.0,0.75,0.5,1.25,0.0,1.25,0.0,0.25,1.25,1.0,1.25,-0.67,-0.55,0.27,107.1,2.4,-30.8
4.12,0.0,0.0,0.0,0.0,0.0,0.0,0.0,0.0,0.0,0.0,0.0,0.0,0.0,-0.98,0.02,-0.3,0.0,0.0,0.0,1.0,0.0,0.0,0.75,0.5,1.0,0.0,1.25,0.0,0.25,0.75,1.0,1.25,-0.61,-0.61,0.27,110.97,0.4,-22.2
4.14,0.0,0.0,0.0,0.0,0.0,0.0,0.0,0.0,0.0,0.0,0.0,0.0,0.0,-1.11,0.02,-0.3,0.0,0.0,0.0,0.75,0.0,0.0,1.25,0.5,1.25,0.0,1.25,0.0,1.5,0.75,0.5,1.0,-0.8,-0.55,0.39,117.99,3.2,-19.2
4.16,0.0,0.0,0.0,0.0,0.0,0.0,0.0,0.0,0.0,0.0,0.0,0.0,0.0,-1.11,-0.05,-0.3,0.0,0.0,0.0,0.5,0.0,0.0,0.5,0.5,1.25,0.0,1.25,0.0,0.25,1.25,0.75,1.0,-0.8,-0.42,0.39,116.03,3.1,-28.5
4.18,0.0,0.0,0.0,0.0,0.0,0.0,0.0,0.0,0.0,0.0,0.0,0.0,0.0,-1.11,-0.05,-0.36,0.0,0.0,0.0,0.5,0.5,0.0,0.5,0.5,1.0,0.0,1.25,0.0,0.75,0.75,1.0,1.25,-0.92,-0.67,0.52,117.85,3.1,-27.4
4.2,0.0,0.0,0.0,0.0,0.0,0.0,0.0,0.0,0.0,0.0,0.0,0.0,0.0,-1.05,0.02,-0.3,0.0,0.0,0.0,0.5,0.0,0.0,0.5,0.5,0.75,0.0,1.25,0.0,0.25,0.75,0.75,1.0,-0.98,-0.73,0.64,108.36,2.7,-29.6
4.22,0.0,0.0,0.0,0.0,0.0,0.0,0.0,0.0,0.0,0.0,0.0,0.0,0.0,-0.92,0.02,-0.23,0.0,0.0,0.0,0.5,0.0,0.0,0.5,0.5,1.25,0.0,1.0,0.0,0.25,0.75,1.0,0.75,-0.92,-0.86,0.58,103.01,2.8,-24.5
4.24,0.0,0.0,0.0,0.0,0.0,0.0,0.0,0.0,0.0,0.0,0.0,0.0,0.0,-0.92,0.08,-0.23,0.0,0.0,0.0,0.5,0.0,0.0,0.5,0.5,0.5,0.0,1.25,0.0,0.25,0.75,1.0,1.0,-0.98,-0.8,0.58,95.46,1.5,-35.1
4.26,0.0,0.0,0.0,0.0,0.0,0.0,0.0,0.0,0.0,0.0,0.0,0.0,0.0,-0.86,0.08,-0.23,0.0,0.0,0.0,0.5,0.0,0.0,0.5,0.5,1.0,0.0,1.0,0.0,0.25,0.75,0.75,0.75,-1.11,-0.67,0.58,92.36,2.4,-23.3
4.28,0.0,0.0,0.0,0.0,0.0,0.0,0.0,0.0,0.0,0.0,0.0,0.0,0.0,-0.86,0.02,-0.17,0.0,0.0,0.0,0.5,0.0,0.0,0.75,1.0,0.75,0.0,1.25,0.0,0.25,0.5,0.75,0.75,-1.05,-0.8,0.52,92.14,2.0,-14.1
4.3,0.0,0.0,0.0,0.0,0.0,0.0,0.0,0.0,0.0,0.0,0.0,0.0,0.0,-0.92,0.02,-0.11,0.0,0.0,0.0,0.5,0.0,0.0,0.5,0.5,1.0,0.0,1.0,0.0,0.25,0.75,0.75,0.75,-1.11,-0.86,0.52,90.2,2.4,-23.3
4.32,0.0,0.0,0.0,0.0,0.0,0.0,0.0,0.0,0.0,0.0,0.0,0.0,0.0,-0.98,-0.11,-0.05,0.0,0.0,0.0,0.5,0.0,0.0,0.5,1.0,1.25,0.0,1.0,0.0,0.25,1.0,0.75,0.75,-1.11,-0.86,0.64,93.37,2.7,-16.8
4.34,0.0,0.0,0.0,0.0,0.0,0.0,0.0,0.0,0.0,0.0,0.0,0.0,0.0,-0.98,-0.11,-0.05,0.0,0.0,0.0,0.75,0.0,0.0,0.5,0.5,1.0,0.0,1.0,0.0,0.25,0.25,0.75,1.0,-0.98,-0.8,0.58,91.02,2.5,-18.1
4.36,0.0,0.0,0.0,0.0,0.0,0.0,0.0,0.0,0.0,0.0,0.0,0.0,0.0,-1.05,-0.23,0.02,0.0,0.0,0.0,0.5,0.0,0.0,0.5,0.5,0.5,0.0,1.25,0.0,0.25,0.5,0.75,0.75,-0.98,-0.67,0.58,87.93,1.9,-26.6
