time,left pressure 0[N/cm虏],left pressure 1[N/cm虏],left pressure 2[N/cm虏],left pressure 3[N/cm虏],left pressure 4[N/cm虏],left pressure 5[N/cm虏],left pressure 6[N/cm虏],left pressure 7[N/cm虏],left pressure 8[N/cm虏],left pressure 9[N/cm虏],left pressure 10[N/cm虏],left pressure 11[N/cm虏],left pressure 12[N/cm虏],left acceleration X[g],left acceleration Y[g],left acceleration Z[g],left total force[N],left center of pressure X[mm],left center of pressure Y[mm],right pressure 0[N/cm虏],right pressure 1[N/cm虏],right pressure 2[N/cm虏],right pressure 3[N/cm虏],right pressure 4[N/cm虏],right pressure 5[N/cm虏],right pressure 6[N/cm虏],right pressure 7[N/cm虏],right pressure 8[N/cm虏],right pressure 9[N/cm虏],right pressure 10[N/cm虏],right pressure 11[N/cm虏],right pressure 12[N/cm虏],right acceleration X[g],right acceleration Y[g],right acceleration Z[g],right total force[N],right center of pressure X[mm],right center of pressure Y[mm]
0.02,0.0,0.0,0.0,0.0,0.0,0.0,0.0,0.25,0.25,0.5,0.0,0.25,0.25,-0.17,0.08,0.95,27.26,-6.8,-74.9,0.0,0.0,0.25,0.0,1.0,0.0,0.0,0.0,0.25,0.0,0.0,0.0,0.5,0.02,0.14,0.95,32.46,-0.9,5.3
0.04,0.0,0.0,0.0,0.0,0.0,0.0,0.0,0.25,0.0,0.25,0.0,0.25,0.25,-0.17,0.08,0.95,23.74,-9.3,-83.6,0.0,0.0,0.0,0.0,0.5,0.0,0.25,0.0,0.25,0.0,0.25,0.0,0.5,0.02,0.14,0.95,31.43,-0.3,-29.4
0.06,0.0,0.0,0.0,0.0,0.0,0.0,0.0,0.0,0.0,0.25,0.0,0.25,0.25,-0.17,0.08,0.95,19.09,-6.9,-98.5,0.0,0.0,0.0,0.0,0.5,0.0,0.25,0.0,0.25,0.0,0.0,0.0,0.5,0.02,0.14,0.95,27.68,1.4,-21.7
0.08,0.0,0.0,0.0,0.0,0.0,0.0,0.0,0.25,0.25,0.5,0.0,0.25,0.25,-0.17,0.08,0.95,19.79,-6.8,-74.9,0.0,0.0,0.25,0.0,0.5,0.0,0.25,0.0,0.25,0.0,0.5,0.25,0.75,0.02,0.14,0.95,30.95,-4.3,-39.9
0.1,0.0,0.0,0.0,0.25,0.0,0.0,0.0,0.25,0.25,0.5,0.0,0.25,0.25,-0.17,0.08,0.95,22.57,-3.3,-55.2,0.0,0.0,0.0,0.0,0.5,0.0,0.25,0.0,0.25,0.0,0.0,0.0,0.5,0.02,0.14,0.95,28.31,1.4,-21.7
0.12,0.0,0.0,0.0,0.25,0.0,0.0,0.0,0.25,0.25,0.5,0.0,0.25,0.25,-0.17,0.08,0.95,25.93,-3.3,-55.2,0.0,0.0,0.25,0.0,0.5,0.0,0.25,0.0,0.25,0.25,0.0,0.0,0.75,0.02,0.14,0.95,31.55,-0.1,-28.4
0.14,0.0,0.0,0.0,0.25,0.0,0.0,0.0,0.25,0.25,0.5,0.0,0.25,0.25,-0.17,0.08,0.95,27.62,-3.3,-55.2,0.0,0.0,0.0,0.0,0.5,0.0,0.25,0.0,0.25,0.0,0.0,0.0,0.25,0.02,0.14,0.95,27.2,-1.2,-2.9
0.16,0.0,0.0,0.0,0.5,0.0,0.0,0.0,0.25,0.25,0.25,0.0,0.25,0.25,-0.17,0.08,0.95,28.54,1.4,-35.6,0.0,0.0,0.0,0.0,1.25,0.0,0.25,0.0,0.25,0.0,0.0,0.25,0.5,0.02,0.14,0.95,32.22,1.0,-4.9
0.18,0.0,0.0,0.0,0.5,0.0,0.0,0.0,0.25,0.25,0.5,0.0,0.25,0.25,-0.17,0.08,0.95,29.9,-0.6,-40.5,0.0,0.0,0.0,0.0,0.5,0.0,0.0,0.0,0.25,0.0,0.0,0.25,0.25,0.02,0.14,0.95,27.37,0.1,-25.6
0.2,0.0,0.0,0.0,0.0,0.0,0.0,0.0,0.25,0.0,0.5,0.0,0.0,0.25,-0.17,0.08,0.95,26.09,-15.4,-75.1,0.0,0.0,0.0,0.0,0.5,0.0,0.25,0.0,0.0,0.0,0.0,0.25,0.75,0.02,0.14,0.95,28.18,3.7,-45.3
0.22,0.0,0.0,0.0,0.0,0.0,0.0,0.0,0.0,0.0,0.5,0.0,0.25,0.25,-0.17,0.08,0.95,23.37,-9.1,-92.7,0.0,0.0,0.0,0.0,0.5,0.0,0.25,0.0,0.25,0.0,0.0,0.0,0.5,0.02,0.14,0.95,24.64,1.4,-21.7
0.24,0.0,0.0,0.0,0.25,0.0,0.0,0.0,0.25,0.25,0.5,0.0,0.25,0.25,-0.17,0.08,0.95,23.97,-3.3,-55.2,0.0,0.0,0.0,0.0,0.5,0.0,0.25,0.0,0.25,0.0,0.25,0.0,0.5,0.02,0.14,0.95,24.51,-0.3,-29.4
0.26,0.0,0.0,0.0,0.25,0.0,0.0,0.0,0.25,0.25,0.5,0.0,0.25,0.25,-0.17,0.08,0.95,25.99,-3.3,-55.2,0.0,0.0,0.0,0.0,0.5,0.0,0.25,0.0,0.25,0.0,0.0,0.0,0.5,0.02,0.14,0.95,22.96,1.4,-21.7
0.28,0.0,0.0,0.0,0.5,0.0,0.0,0.0,0.25,0.25,0.5,0.0,0.25,0.25,-0.17,0.08,0.95,29.4,-0.6,-40.5,0.0,0.0,0.0,0.0,0.5,0.0,0.25,0.0,0.25,0.0,0.25,0.25,0.5,0.02,0.14,0.95,25.84,-1.4,-39.6
0.3,0.0,0.0,0.0,0.5,0.0,0.0,0.0,0.25,0.25,0.5,0.0,0.25,0.25,-0.17,0.08,0.95,31.54,-0.6,-40.5,0.0,0.0,0.0,0.0,0.5,0.0,0.25,0.0,0.25,0.0,0.0,0.25,0.25,0.02,0.14,0.95,24.63,-2.5,-21.2
0.32,0.0,0.0,0.0,0.25,0.0,0.0,0.0,0.25,0.25,0.5,0.0,0.25,0.25,-0.17,0.08,0.95,31.35,-3.3,-55.2,0.0,0.0,0.0,0.0,1.5,0.0,0.0,0.0,0.25,0.0,0.0,0.25,0.5,0.02,0.14,0.95,30.93,2.7,-0.1
0.34,0.0,0.0,0.0,0.0,0.0,0.0,0.0,0.25,0.25,0.5,0.0,0.25,0.25,-0.17,0.08,0.95,29.56,-6.8,-74.9,0.0,0.0,0.25,0.0,1.5,0.0,0.0,0.0,0.25,0.0,0.0,0.0,0.75,0.02,0.14,0.95,38.85,1.1,4.7
0.36,0.0,0.0,0.0,0.25,0.0,0.0,0.0,0.25,0.0,0.0,0.0,0.5,0.25,-0.17,0.08,0.95,26.44,0.9,-61.1,0.0,0.0,0.0,0.0,0.5,0.0,0.25,0.0,0.25,0.0,0.0,0.25,0.5,0.02,0.14,0.95,38.17,0.0,-34.6
0.38,0.0,0.0,0.0,0.5,0.0,0.0,0.0,0.25,0.0,0.5,0.0,0.0,0.25,-0.17,0.08,0.95,24.64,-4.2,-29.6,0.0,0.0,0.0,0.0,0.5,0.0,0.25,0.0,0.25,0.25,0.0,0.0,0.25,0.02,0.14,0.95,34.23,1.7,-15.4
0.4,0.0,0.0,0.0,0.25,0.0,0.0,0.0,0.25,0.25,0.5,0.0,0.25,0.25,-0.17,0.08,0.95,25.41,-3.3,-55.2,0.0,0.0,0.0,0.0,0.5,0.0,0.25,0.0,0.25,0.0,0.25,0.0,0.5,0.02,0.14,0.95,29.47,-0.3,-29.4
0.42,0.0,0.0,0.0,0.25,0.0,0.0,0.0,0.25,0.25,0.5,0.0,0.25,0.25,-0.17,0.08,0.95,27.06,-3.3,-55.2,0.0,0.0,0.0,0.0,0.5,0.0,0.25,0.0,0.25,0.25,0.25,0.0,0.5,0.02,0.14,0.95,29.04,1.7,-35.3
0.44,0.0,0.0,0.0,0.0,0.0,0.0,0.0,0.25,0.25,0.5,0.0,0.25,0.25,-0.17,0.08,0.95,27.99,-6.8,-74.9,0.0,0.0,0.0,0.0,0.5,0.0,0.25,0.0,0.25,0.25,0.0,0.25,0.75,0.02,0.14,0.95,30.74,3.3,-47.9
0.46,0.0,0.0,0.0,0.5,0.0,0.0,0.0,0.25,0.25,0.5,0.0,0.25,0.25,-0.17,0.08,0.95,29.44,-0.6,-40.5,0.0,0.0,0.0,0.0,0.5,0.0,0.25,0.0,0.25,0.0,0.25,0.25,0.5,0.02,0.14,0.95,32.42,-1.4,-39.6
0.48,0.0,0.0,0.0,0.5,0.0,0.0,0.0,0.25,0.0,0.5,0.0,0.25,0.25,-0.17,0.08,0.95,28.85,-2.4,-40.8,0.0,0.0,0.0,0.0,0.5,0.5,0.25,0.0,0.25,0.25,0.25,0.25,0.5,0.02,0.14,0.95,36.3,4.4,-30.0
0.5,0.0,0.0,0.0,0.25,0.0,0.0,0.0,0.25,0.0,0.5,0.0,0.25,0.25,-0.17,0.08,0.95,27.89,-5.8,-57.8,0.0,0.0,0.0,0.0,0.5,0.0,0.25,0.0,0.25,0.0,0.25,0.25,0.75,0.02,0.14,0.95,36.77,0.3,-47.8
0.52,0.0,0.0,0.0,0.5,0.0,0.0,0.0,0.25,0.0,0.25,0.0,0.0,0.25,-0.17,0.08,0.95,24.67,-2.0,-20.7,0.0,0.0,0.0,0.0,0.25,0.0,0.25,0.0,0.25,0.0,0.0,0.25,0.75,0.02,0.14,0.95,34.49,1.4,-61.3
0.54,0.0,0.0,0.0,0.25,0.0,0.0,0.0,0.25,0.25,0.5,0.0,0.25,0.25,-0.17,0.08,0.95,25.5,-3.3,-55.2,0.0,0.0,0.25,0.0,0.5,0.0,0.25,0.0,0.25,0.0,0.25,0.0,0.25,0.02,0.14,0.95,31.22,-8.1,-3.5
0.56,0.0,0.0,0.0,0.25,0.0,0.0,0.0,0.25,0.25,0.5,0.0,0.25,0.25,-0.17,0.08,0.95,26.5,-3.3,-55.2,0.0,0.0,0.0,0.0,0.5,0.0,0.25,0.0,0.25,0.25,0.0,0.25,0.75,0.02,0.14,0.95,31.04,3.3,-47.9
0.58,0.0,0.0,0.0,0.25,0.0,0.0,0.0,0.25,0.25,0.5,0.0,0.25,0.25,-0.17,0.08,0.95,28.4,-3.3,-55.2,0.0,0.0,0.0,0.0,0.5,0.0,0.25,0.0,0.25,0.0,0.25,0.25,0.25,0.02,0.14,0.95,29.38,-3.7,-29.0
0.6,0.0,0.0,0.0,0.0,0.0,0.0,0.0,0.25,0.25,0.5,0.0,0.25,0.25,-0.17,0.08,0.95,28.35,-6.8,-74.9,0.0,0.0,0.0,0.0,0.5,0.0,0.25,0.0,0.25,0.0,0.25,0.0,0.5,0.02,0.14,0.95,29.28,-0.3,-29.4
0.62,0.0,0.0,0.0,0.0,0.0,0.0,0.0,0.25,0.25,0.5,0.0,0.25,0.25,-0.17,0.08,0.95,27.63,-6.8,-74.9,0.0,0.0,0.0,0.0,0.5,0.0,0.25,0.0,0.25,0.0,0.0,0.25,0.5,0.02,0.14,0.95,27.63,0.0,-34.6
0.64,0.0,0.0,0.0,0.5,0.0,0.0,0.0,0.25,0.25,0.5,0.0,0.25,0.25,-0.17,0.08,0.95,28.51,-0.6,-40.5,0.0,0.0,0.0,0.5,1.25,0.5,0.0,0.0,0.25,0.0,0.25,0.25,0.25,0.02,0.14,0.95,36.49,0.6,11.7
0.66,0.0,0.0,0.0,0.25,0.0,0.0,0.0,0.0,0.0,0.25,0.0,0.5,0.25,-0.17,0.08,0.95,26.44,1.1,-68.3,0.0,0.0,0.0,0.0,0.5,0.0,0.0,0.0,0.25,0.25,0.0,0.0,0.25,0.02,0.14,0.95,32.62,4.7,-19.2
0.68,0.0,0.0,0.0,0.5,0.0,0.0,0.0,0.25,0.0,0.25,0.0,0.25,0.5,-0.17,0.08,0.95,27.34,-2.2,-45.9,0.0,0.0,0.0,0.0,0.5,0.0,0.25,0.0,0.25,0.0,0.0,0.25,0.25,0.02,0.14,0.95,30.49,-2.5,-21.2
0.7,0.0,0.0,0.0,0.25,0.0,0.0,0.0,0.25,0.25,0.5,0.0,0.25,0.25,-0.17,0.08,0.95,27.46,-3.3,-55.2,0.0,0.0,0.0,0.0,0.5,0.0,0.25,0.0,0.25,0.0,0.25,0.0,0.5,0.02,0.14,0.95,26.5,-0.3,-29.4
0.72,0.0,0.0,0.0,0.25,0.0,0.0,0.0,0.25,0.25,0.5,0.0,0.25,0.25,-0.17,0.08,0.95,28.91,-3.3,-55.2,0.0,0.0,0.5,0.0,0.5,0.0,0.25,0.0,0.25,0.0,0.0,0.0,0.5,0.02,0.14,0.95,26.84,-8.9,-0.2
0.74,0.0,0.0,0.0,0.25,0.0,0.0,0.0,0.25,0.25,0.5,0.0,0.25,0.25,-0.17,0.08,0.95,29.37,-3.3,-55.2,0.0,0.0,0.25,0.0,0.25,0.0,0.25,0.0,0.25,0.0,0.0,0.25,0.5,0.02,0.14,0.95,26.14,-6.5,-35.1
0.76,0.0,0.0,0.0,0.5,0.0,0.0,0.0,0.0,0.25,0.5,0.0,0.25,0.25,-0.17,0.08,0.95,29.55,1.6,-40.8,0.0,0.0,0.0,0.0,0.5,0.0,0.25,0.0,0.25,0.25,0.0,0.0,0.5,0.02,0.14,0.95,27.19,3.5,-29.6
0.78,0.0,0.0,0.0,0.25,0.0,0.0,0.0,0.25,0.25,0.5,0.0,0.25,0.25,-0.17,0.08,0.95,29.14,-3.3,-55.2,0.0,0.0,0.0,0.0,0.5,0.0,0.25,0.0,0.25,0.0,0.25,0.0,0.5,0.02,0.14,0.95,26.67,-0.3,-29.4
0.8,0.0,0.0,0.0,0.25,0.0,0.0,0.0,0.25,0.25,0.5,0.0,0.25,0.25,-0.17,0.08,0.95,29.16,-3.3,-55.2,0.0,0.0,0.0,0.25,1.5,0.0,0.25,0.0,0.25,0.0,0.0,0.25,0.25,0.02,0.14,0.95,32.88,-1.5,16.1
0.82,0.0,0.0,0.0,0.5,0.0,0.0,0.0,0.25,0.25,0.25,0.0,0.25,0.25,-0.17,0.08,0.95,29.01,1.4,-35.6,0.0,0.0,0.0,0.0,1.25,0.0,0.25,0.0,0.0,0.0,0.25,0.25,0.5,0.02,0.14,0.95,37.29,1.2,-8.3
0.84,0.0,0.0,0.0,0.5,0.0,0.0,0.0,0.25,0.25,0.75,0.0,0.25,0.0,-0.17,0.08,0.95,30.09,-0.8,-36.0,0.0,0.0,0.0,0.0,0.5,0.0,0.25,0.0,0.25,0.0,0.0,0.25,0.5,0.02,0.14,0.95,36.4,0.0,-34.6
0.86,0.0,0.0,0.0,0.25,0.0,0.0,0.0,0.25,0.25,0.5,0.0,0.25,0.25,-0.17,0.08,0.95,30.03,-3.3,-55.2,0.0,0.0,0.0,0.0,0.5,0.0,0.25,0.0,0.25,0.0,0.0,0.0,0.75,0.02,0.14,0.95,32.94,3.2,-34.9
0.88,0.0,0.0,0.0,0.5,0.0,0.0,0.0,0.25,0.25,0.5,0.0,0.25,0.25,-0.17,0.08,0.95,31.08,-0.6,-40.5,0.0,0.0,0.0,0.0,0.5,0.0,0.25,0.0,0.25,0.0,0.0,0.25,0.5,0.02,0.14,0.95,29.11,0.0,-34.6
0.9,0.0,0.0,0.0,0.25,0.0,0.0,0.0,0.25,0.25,0.5,0.0,0.25,0.25,-0.17,0.08,0.95,30.99,-3.3,-55.2,0.0,0.0,0.0,0.0,0.5,0.0,0.25,0.0,0.25,0.0,0.25,0.0,0.25,0.02,0.14,0.95,26.94,-2.8,-15.0
0.92,0.0,0.0,0.0,0.25,0.0,0.0,0.0,0.0,0.25,0.5,0.0,0.25,0.25,-0.17,0.08,0.95,29.04,-1.0,-57.9,0.0,0.0,0.0,0.0,0.5,0.0,0.25,0.0,0.25,0.0,0.0,0.0,0.5,0.02,0.14,0.95,24.19,1.4,-21.7
0.94,0.0,0.0,0.0,0.5,0.0,0.0,0.0,0.25,0.25,0.5,0.0,0.25,0.25,-0.17,0.08,0.95,29.54,-0.6,-40.5,0.0,0.0,0.0,0.0,0.5,0.0,0.25,0.0,0.25,0.0,0.25,0.0,0.5,0.02,0.14,0.95,23.93,-0.3,-29.4
0.96,0.0,0.0,0.0,0.25,0.0,0.0,0.0,0.25,0.25,0.5,0.0,0.25,0.25,-0.17,0.08,0.95,29.35,-3.3,-55.2,0.0,0.0,0.0,0.0,0.25,0.5,0.0,0.0,0.25,0.0,0.0,0.25,0.5,0.02,0.14,0.95,24.53,7.6,-34.8
0.98,0.0,0.0,0.0,0.5,0.0,0.0,0.0,0.0,0.25,0.5,0.0,0.0,0.25,-0.17,0.08,0.95,27.72,0.4,-29.6,0.0,0.0,0.0,0.0,1.0,0.0,0.25,0.0,0.25,0.25,0.0,0.0,0.5,0.02,0.14,0.95,28.54,3.4,-8.6
1.0,0.0,0.0,0.0,0.25,0.0,0.0,0.0,0.0,0.25,0.5,0.0,0.25,0.25,-0.17,0.08,0.95,26.31,-1.0,-57.9,0.0,0.0,0.0,0.0,0.5,0.0,0.25,0.0,0.25,0.0,0.0,0.0,0.75,0.02,0.14,0.95,28.66,3.2,-34.9
1.02,0.0,0.0,0.0,0.25,0.0,0.0,0.0,0.0,0.25,0.5,0.0,0.25,0.25,-0.17,0.08,0.95,25.18,-1.0,-57.9,0.0,0.0,0.0,0.0,0.5,0.0,0.25,0.0,0.0,0.0,0.25,0.25,0.75,0.02,0.14,0.95,30.06,1.9,-49.0
1.04,0.0,0.0,0.0,0.25,0.0,0.0,0.0,0.25,0.25,0.5,0.0,0.25,0.25,-0.17,0.08,0.95,25.92,-3.3,-55.2,0.0,0.0,0.0,0.0,0.5,0.0,0.25,0.0,0.25,0.0,0.0,0.25,0.5,0.02,0.14,0.95,28.12,0.0,-34.6
1.06,0.0,0.0,0.0,0.25,0.0,0.0,0.0,0.25,0.25,0.5,0.0,0.25,0.25,-0.17,0.08,0.95,26.98,-3.3,-55.2,0.0,0.0,0.0,0.0,0.5,0.0,0.25,0.0,0.25,0.0,0.0,0.25,0.5,0.02,0.14,0.95,28.35,0.0,-34.6
1.08,0.0,0.0,0.0,0.5,0.0,0.0,0.0,0.25,0.25,0.5,0.0,0.25,0.25,-0.17,0.08,0.95,29.26,-0.6,-40.5,0.0,0.0,0.0,0.0,0.5,0.0,0.25,0.0,0.25,0.25,0.0,0.0,0.5,0.02,0.14,0.95,27.69,3.5,-29.6
1.1,0.0,0.0,0.0,0.25,0.0,0.0,0.0,0.25,0.25,0.5,0.0,0.25,0.25,-0.17,0.08,0.95,29.87,-3.3,-55.2,0.0,0.0,0.0,0.0,0.5,0.0,0.25,0.0,0.25,0.0,0.0,0.25,0.5,0.02,0.14,0.95,27.39,0.0,-34.6
1.12,0.0,0.0,0.0,0.5,0.0,0.0,0.0,0.25,0.25,0.5,0.0,0.25,0.25,-0.17,0.08,0.95,31.11,-0.6,-40.5,0.0,0.0,0.0,0.0,0.5,0.0,0.0,0.0,0.25,0.0,0.0,0.0,0.75,0.02,0.14,0.95,26.62,5.9,-39.6
1.14,0.0,0.0,0.0,0.25,0.0,0.0,0.0,0.25,0.25,0.5,0.0,0.25,0.25,-0.17,0.08,0.95,30.89,-3.3,-55.2,0.0,0.0,0.0,0.0,1.25,0.0,0.25,0.0,0.25,0.0,0.25,0.0,0.25,0.02,0.14,0.95,30.4,-0.5,10.6
1.16,0.0,0.0,0.0,0.25,0.0,0.0,0.0,0.25,0.25,0.5,0.0,0.25,0.25,-0.17,0.08,0.95,30.73,-3.3,-55.2,0.0,0.0,0.0,0.0,0.25,0.0,0.25,0.0,0.25,0.0,0.0,0.25,0.5,0.02,0.14,0.95,28.71,-0.7,-52.5
1.18,0.0,0.0,0.0,0.25,0.0,0.0,0.0,0.0,0.25,0.5,0.0,0.25,0.25,-0.17,0.08,0.95,28.61,-1.0,-57.9,0.0,0.0,0.0,0.0,0.5,0.0,0.25,0.0,0.25,0.0,0.0,0.0,0.5,0.02,0.14,0.95,26.87,1.4,-21.7
1.2,0.0,0.0,0.0,0.25,0.0,0.0,0.0,0.25,0.25,0.5,0.0,0.25,0.25,-0.17,0.08,0.95,28.79,-3.3,-55.2,0.0,0.0,0.0,0.0,0.5,0.0,0.25,0.0,0.25,0.25,0.25,0.25,0.5,0.02,0.14,0.95,28.3,0.5,-43.7
1.22,0.0,0.0,0.0,0.25,0.0,0.0,0.0,0.25,0.25,0.5,0.0,0.25,0.25,-0.17,0.08,0.95,28.8,-3.3,-55.2,0.0,0.0,0.0,0.0,0.5,0.0,0.25,0.0,0.0,0.0,0.0,0.0,0.25,0.02,0.14,0.95,24.0,1.6,6.2
1.24,0.0,0.0,0.0,0.25,0.0,0.0,0.0,0.25,0.25,0.5,0.0,0.25,0.25,-0.17,0.08,0.95,29.07,-3.3,-55.2,0.0,0.0,0.0,0.0,0.5,0.0,0.25,0.0,0.0,0.0,0.0,0.0,0.5,0.02,0.14,0.95,21.91,4.1,-18.3
1.26,0.0,0.0,0.0,0.25,0.0,0.0,0.0,0.25,0.25,0.5,0.0,0.25,0.25,-0.17,0.08,0.95,29.14,-3.3,-55.2,0.0,0.0,0.0,0.0,0.5,0.0,0.25,0.0,0.25,0.0,0.0,0.0,0.0,0.02,0.14,0.95,17.82,-5.2,26.1
1.28,0.0,0.0,0.0,0.5,0.0,0.0,0.0,0.0,0.0,0.5,0.0,0.25,0.25,-0.17,0.08,0.95,27.44,-0.1,-41.1,0.0,0.0,0.0,0.0,1.75,0.0,0.0,0.0,0.25,0.0,0.25,0.0,0.25,0.02,0.14,0.95,26.63,1.6,18.8
1.3,0.0,0.0,0.0,0.25,0.0,0.0,0.0,0.0,0.25,0.5,0.0,0.25,0.25,-0.17,0.08,0.95,26.13,-1.0,-57.9,0.0,0.0,0.0,0.0,1.0,0.0,0.0,0.0,0.25,0.0,0.0,0.0,0.0,0.02,0.14,0.95,26.61,0.5,37.3
1.32,0.0,0.0,0.0,0.0,0.0,0.0,0.0,0.0,0.0,0.5,0.0,0.25,0.25,-0.17,0.08,0.95,22.5,-9.1,-92.7,0.0,0.0,0.0,0.0,0.5,0.0,0.25,0.0,0.25,0.0,0.0,0.0,0.5,0.02,0.14,0.95,27.78,1.4,-21.7
1.34,0.0,0.0,0.0,0.25,0.0,0.0,0.0,0.25,0.25,0.5,0.0,0.25,0.25,-0.17,0.08,0.95,23.82,-3.3,-55.2,0.0,0.0,0.0,0.0,0.5,0.0,0.25,0.0,0.0,0.0,0.0,0.0,0.5,0.02,0.14,0.95,23.78,4.1,-18.3
1.36,0.0,0.0,0.0,0.0,0.0,0.0,0.0,0.25,0.25,0.5,0.0,0.25,0.25,-0.17,0.08,0.95,24.0,-6.8,-74.9,0.0,0.0,0.0,0.0,0.5,0.0,0.25,0.0,0.0,0.0,0.0,0.0,0.5,0.02,0.14,0.95,20.96,4.1,-18.3
1.38,0.0,0.0,0.0,0.5,0.0,0.0,0.0,0.25,0.25,0.5,0.0,0.25,0.25,-0.17,0.08,0.95,27.61,-0.6,-40.5,0.0,0.0,0.0,0.0,0.25,0.0,0.0,0.0,0.0,0.0,0.0,0.0,0.25,0.02,0.14,0.95,14.38,8.1,-23.3
1.4,0.0,0.0,0.0,0.25,0.0,0.0,0.0,0.25,0.25,0.5,0.0,0.25,0.25,-0.17,0.08,0.95,28.75,-3.3,-55.2,0.0,0.0,0.0,0.0,0.25,0.0,0.25,0.0,0.0,0.0,0.0,0.0,0.0,0.02,0.14,0.95,10.75,-7.1,45.8
1.42,0.0,0.0,0.0,0.25,0.0,0.0,0.0,0.25,0.25,0.5,0.0,0.25,0.25,-0.17,0.08,0.95,29.97,-3.3,-55.2,0.0,0.0,0.0,0.0,0.25,0.0,0.0,0.0,0.0,0.0,0.0,0.0,0.5,0.02,0.14,0.95,9.18,9.9,-51.0
1.44,0.0,0.0,0.0,0.25,0.0,0.0,0.0,0.0,0.25,0.5,0.0,0.25,0.25,-0.17,0.08,0.95,28.24,-1.0,-57.9,0.0,0.0,0.0,0.0,0.25,0.0,0.0,0.0,0.0,0.0,0.0,0.25,0.25,0.02,0.14,0.95,8.71,2.8,-50.4
1.46,0.0,0.0,0.0,0.0,0.0,0.0,0.0,0.0,0.0,0.5,0.0,0.25,0.25,-0.17,0.14,0.95,24.69,-9.1,-92.7,0.0,0.0,0.0,0.0,0.25,0.0,0.25,0.0,0.0,0.0,0.0,0.0,0.5,0.02,0.14,0.95,10.79,4.4,-40.9
1.48,0.0,0.0,0.0,0.0,0.0,0.0,0.0,0.25,0.0,0.25,0.0,0.25,0.25,-0.17,0.14,0.95,21.21,-9.3,-83.6,0.0,0.0,0.0,0.0,0.5,0.0,0.0,0.0,0.0,0.0,0.0,0.0,0.25,0.02,0.14,0.95,11.12,6.4,3.2
1.5,0.0,0.0,0.0,0.0,0.0,0.0,0.0,0.0,0.25,0.25,0.0,0.25,0.25,-0.17,0.08,0.95,18.59,-2.2,-83.7,0.0,0.0,0.0,0.0,0.5,0.0,0.0,0.0,0.0,0.0,0.0,0.0,0.25,-0.05,0.14,0.95,11.34,6.4,3.2
1.52,0.0,0.0,0.0,0.0,0.0,0.0,0.0,0.0,0.0,0.5,0.0,0.0,0.25,-0.11,0.14,0.95,15.88,-15.0,-87.1,0.0,0.0,0.0,0.0,0.5,0.0,0.0,0.0,0.0,0.0,0.0,0.0,0.0,-0.05,0.14,0.95,9.48,3.3,53.4
1.54,0.0,0.0,0.0,0.25,0.0,0.0,0.0,0.0,0.0,0.25,0.0,0.0,0.25,-0.17,0.08,0.95,13.26,-3.8,-41.5,0.0,0.0,0.0,0.0,0.25,0.0,0.0,0.0,0.0,0.0,0.0,0.0,0.0,0.02,0.08,0.89,8.29,3.3,53.4
1.56,0.0,0.0,0.0,0.0,0.0,0.0,0.0,0.0,0.0,0.5,0.0,0.25,0.25,-0.17,0.08,0.95,13.5,-9.1,-92.7,0.0,0.0,0.0,0.0,0.25,0.0,0.0,0.0,0.0,0.0,0.0,0.0,0.0,0.02,0.08,0.89,6.12,3.3,53.4
1.58,0.0,0.0,0.0,0.25,0.0,0.0,0.0,0.0,0.0,0.5,0.0,0.25,0.25,-0.17,0.08,0.95,14.84,-3.6,-61.6,0.0,0.0,0.0,0.0,0.5,0.0,0.0,0.0,0.0,0.0,0.0,0.0,0.25,0.02,0.08,0.89,7.63,6.4,3.2
1.6,0.0,0.0,0.0,0.0,0.0,0.0,0.0,0.0,0.0,0.25,0.0,0.25,0.25,-0.17,0.14,0.95,14.61,-6.9,-98.5,0.0,0.0,0.0,0.0,0.25,0.0,0.0,0.0,0.0,0.0,0.0,0.25,0.25,-0.05,0.14,0.95,9.6,2.8,-50.4
1.62,0.0,0.0,0.0,0.25,0.0,0.0,0.0,0.0,0.0,0.25,0.0,0.25,0.25,-0.17,0.14,0.95,15.03,-0.7,-58.2,0.0,0.0,0.0,0.0,0.0,0.0,0.0,0.0,0.0,0.0,0.0,0.0,0.0,0.02,0.14,0.95,7.44,0.0,0.0
1.64,0.0,0.0,0.0,0.0,0.0,0.0,0.0,0.0,0.0,0.5,0.0,0.25,0.25,-0.17,0.08,0.95,15.72,-9.1,-92.7,0.0,0.0,0.0,0.0,0.5,0.0,0.25,0.0,0.0,0.0,0.0,0.0,0.0,-0.05,0.14,0.95,8.34,-2.8,49.0
1.66,0.0,0.0,0.0,0.0,0.0,0.0,0.0,0.0,0.0,0.25,0.0,0.25,0.25,-0.17,0.14,0.95,15.15,-6.9,-98.5,0.0,0.0,0.0,0.0,0.5,0.0,0.0,0.0,0.0,0.0,0.0,0.0,0.5,0.02,0.08,0.95,10.23,8.1,-23.3
1.68,0.0,0.0,0.0,0.0,0.0,0.0,0.0,0.0,0.0,0.25,0.0,0.25,0.25,-0.17,0.08,0.95,14.71,-6.9,-98.5,0.0,0.0,0.0,0.0,0.5,0.0,0.0,0.0,0.0,0.0,0.0,0.25,0.5,0.02,0.08,0.95,15.03,5.0,-39.4
1.7,0.0,0.0,0.0,0.0,0.0,0.0,0.0,0.0,0.0,0.25,0.0,0.25,0.25,-0.17,0.08,0.95,14.42,-6.9,-98.5,0.0,0.0,0.0,0.0,0.25,0.0,0.0,0.0,0.0,0.0,0.0,0.0,0.25,0.02,0.08,0.95,14.4,8.1,-23.3
1.72,0.0,0.0,0.0,0.0,0.0,0.0,0.0,0.0,0.0,0.5,0.0,0.25,0.25,-0.17,0.14,0.95,15.52,-9.1,-92.7,0.0,0.0,0.0,0.0,0.5,0.0,0.0,0.0,0.0,0.0,0.0,0.25,0.25,0.02,0.14,0.95,16.44,2.9,-22.6
1.74,0.0,0.0,0.0,0.0,0.0,0.0,0.0,0.0,0.0,0.5,0.0,0.25,0.25,-0.17,0.14,0.95,16.64,-9.1,-92.7,0.0,0.0,0.0,0.0,0.5,0.0,0.0,0.0,0.0,0.25,0.0,0.25,0.75,0.02,0.14,0.95,21.32,7.6,-54.0
1.76,0.0,0.0,0.0,0.0,0.0,0.0,0.0,0.0,0.0,0.5,0.0,0.25,0.25,-0.11,0.08,0.95,18.08,-9.1,-92.7,0.0,0.0,0.0,0.0,0.25,0.0,0.0,0.0,0.0,0.25,0.0,0.25,0.5,0.02,0.14,0.95,24.0,7.4,-66.9
1.78,0.0,0.0,0.0,0.0,0.0,0.0,0.0,0.0,0.0,0.5,0.0,0.25,0.25,-0.11,0.08,0.95,18.55,-9.1,-92.7,0.0,0.0,0.0,0.0,0.5,0.0,0.0,0.0,0.0,0.25,0.0,0.25,0.75,0.02,0.08,0.89,28.81,7.6,-54.0
1.8,0.0,0.0,0.0,0.0,0.0,0.0,0.0,0.0,0.0,0.5,0.0,0.25,0.25,-0.17,0.08,0.95,18.54,-9.1,-92.7,0.0,0.0,0.0,0.0,0.5,0.0,0.0,0.0,0.0,0.25,0.25,0.25,0.75,0.02,0.08,0.95,32.87,5.5,-56.5
1.82,0.0,0.0,0.0,0.0,0.0,0.0,0.0,0.0,0.0,0.25,0.0,0.25,0.25,-0.17,0.14,0.95,17.13,-6.9,-98.5,0.0,0.0,0.0,0.0,0.25,0.0,0.0,0.0,0.0,0.75,0.25,0.5,0.75,0.02,0.14,0.95,39.46,6.3,-77.9
1.84,0.0,0.0,0.0,0.0,0.0,0.0,0.0,0.0,0.0,0.5,0.0,0.25,0.25,-0.17,0.14,0.95,17.61,-9.1,-92.7,0.0,0.0,0.0,0.0,0.5,0.0,0.0,0.0,0.25,1.0,0.5,0.75,0.75,0.02,0.14,0.95,51.4,3.4,-67.2
1.86,0.0,0.0,0.0,0.0,0.0,0.0,0.0,0.0,0.0,0.5,0.0,0.25,0.25,-0.17,0.14,0.95,17.64,-9.1,-92.7,0.0,0.0,0.0,0.0,0.25,0.0,0.0,0.0,0.25,1.5,0.75,1.0,1.5,0.02,0.08,0.95,71.52,4.9,-83.2
1.88,0.0,0.0,0.0,0.25,0.0,0.0,0.0,0.0,0.0,0.5,0.0,0.25,0.25,-0.17,0.08,0.95,19.41,-3.6,-61.6,0.0,0.0,0.0,0.0,0.5,0.0,0.0,0.0,0.25,1.75,0.75,1.0,1.5,0.02,0.14,0.95,89.32,5.2,-76.0
1.9,0.0,0.0,0.0,0.0,0.0,0.0,0.0,0.0,0.0,0.5,0.0,0.25,0.25,-0.11,0.08,0.95,19.79,-9.1,-92.7,0.0,0.0,0.0,0.0,0.5,0.0,0.0,1.0,0.5,3.25,1.75,1.75,2.5,0.02,0.08,0.89,132.28,5.7,-77.1
1.92,0.0,0.0,0.0,0.0,0.0,0.0,0.0,0.0,0.0,0.5,0.0,0.25,0.25,-0.17,0.08,0.95,19.87,-9.1,-92.7,0.0,0.0,0.0,0.0,0.5,0.0,0.0,1.0,0.75,4.5,2.0,2.5,2.75,0.02,0.08,0.95,179.28,5.4,-78.6
1.94,0.0,0.0,0.0,0.0,0.0,0.0,0.0,0.0,0.0,0.5,0.0,0.25,0.5,-0.17,0.08,0.95,20.9,-10.0,-96.2,0.0,0.0,0.0,0.0,2.25,0.0,0.0,1.5,0.75,5.75,2.25,3.5,4.25,0.02,0.08,0.89,243.45,5.8,-68.3
1.96,0.0,0.0,0.0,0.25,0.0,0.0,0.0,0.0,0.0,0.5,0.0,0.25,0.5,-0.17,0.08,0.95,23.04,-5.3,-69.7,0.0,0.0,0.0,0.0,0.5,0.0,0.0,2.0,0.75,6.5,4.0,4.25,5.25,0.02,0.08,0.89,298.94,5.2,-82.1
1.98,0.0,0.0,0.0,0.0,0.0,0.0,0.0,0.0,0.0,0.5,0.0,0.5,0.75,-0.17,0.08,0.95,27.61,-7.9,-100.1,0.0,0.0,0.0,0.0,0.5,0.5,0.0,3.0,0.75,7.0,5.5,5.25,6.25,0.02,0.08,0.95,378.36,5.1,-80.2
2.0,0.0,0.0,0.0,0.0,0.0,0.0,0.0,0.25,0.0,0.75,0.0,0.5,0.75,-0.17,0.08,0.95,34.23,-9.7,-90.6,0.0,0.0,0.0,0.0,1.0,0.5,0.0,3.0,0.5,7.5,5.75,5.75,6.75,0.08,0.08,0.95,452.99,5.2,-78.9
2.02,0.0,0.0,0.0,0.0,0.0,0.0,0.0,0.25,0.0,1.25,0.0,1.0,1.25,-0.11,0.08,0.95,49.12,-8.6,-93.8,0.0,0.0,0.0,0.0,1.0,0.5,0.0,3.75,0.75,7.5,6.25,5.75,7.25,0.08,0.08,0.95,521.57,5.2,-78.1
2.04,0.0,0.0,0.0,0.0,0.0,0.0,0.0,0.25,0.0,2.0,0.0,1.25,1.5,-0.17,0.08,0.95,68.84,-9.0,-92.7,0.0,0.0,0.0,0.0,1.0,0.5,0.0,4.0,1.5,7.75,5.75,6.25,7.75,0.08,0.08,0.95,573.49,5.1,-77.9
2.06,0.0,0.0,0.0,0.0,0.0,0.0,0.0,0.25,0.25,2.25,0.0,1.5,1.5,-0.17,0.08,0.95,89.32,-7.6,-90.3,0.0,0.0,0.0,0.0,0.5,0.5,0.0,4.25,1.5,8.0,7.25,6.5,7.75,0.08,0.08,0.95,616.08,4.6,-79.9
2.08,0.0,0.0,0.0,0.0,0.0,0.0,0.0,1.25,0.75,3.25,0.75,1.75,2.5,-0.17,0.08,0.95,127.57,-7.2,-82.8,0.0,0.0,0.0,0.25,0.0,0.25,0.0,4.0,1.5,8.0,7.25,6.5,7.75,0.08,0.08,0.95,634.71,4.2,-82.1
2.1,0.0,0.0,0.0,0.0,0.0,0.0,0.0,2.0,1.0,3.75,1.0,2.5,2.75,-0.17,0.02,0.95,170.72,-6.6,-81.1,0.0,0.0,0.0,0.0,1.0,0.5,0.0,4.25,1.5,7.75,7.5,6.25,7.75,0.08,0.08,0.95,643.73,4.5,-77.5
2.12,0.0,0.0,0.0,0.0,0.0,0.0,0.0,1.75,0.75,4.25,1.75,3.25,2.75,-0.17,0.02,0.95,211.47,-5.4,-83.5,0.0,0.0,0.0,0.0,0.5,0.5,0.0,4.25,1.5,7.75,7.25,6.25,7.75,0.08,0.08,0.95,635.21,4.6,-79.7
2.14,0.0,0.0,0.0,0.0,0.0,0.0,0.0,1.75,1.0,4.0,2.75,3.5,3.75,-0.17,0.02,0.95,247.81,-4.3,-84.5,0.0,0.0,0.0,0.0,1.0,0.5,0.0,4.25,1.5,7.5,7.25,6.0,7.75,0.08,0.08,0.95,617.24,4.6,-77.3
2.16,0.0,0.0,0.0,0.75,0.0,0.0,0.0,2.25,1.25,5.0,3.75,3.5,4.0,-0.17,0.02,0.95,284.5,-3.6,-76.8,0.0,0.0,0.0,0.0,0.5,0.5,0.25,4.0,1.5,7.5,7.25,5.75,7.75,0.02,0.08,0.95,592.85,4.5,-79.2
2.18,0.0,0.0,0.0,0.0,0.0,0.0,0.0,2.75,1.25,5.25,3.75,3.75,4.25,-0.17,0.02,0.95,314.38,-4.8,-81.8,0.0,0.0,0.0,0.0,1.0,0.5,0.25,3.75,1.5,7.0,7.25,5.75,7.25,0.08,0.08,0.95,564.13,4.1,-76.8
2.2,0.0,0.0,0.0,0.0,0.0,0.0,0.0,3.25,1.25,5.25,4.0,4.25,4.25,-0.17,0.02,0.95,343.55,-4.6,-81.4,0.0,0.0,0.0,0.0,0.5,0.5,0.25,3.25,1.5,7.0,7.0,5.5,6.75,0.08,0.08,0.95,528.21,4.0,-79.0
2.22,0.0,0.0,0.0,0.0,0.0,0.0,0.0,3.75,1.25,5.25,4.0,4.25,4.25,-0.17,0.02,0.95,362.15,-4.8,-80.4,0.0,0.0,0.5,0.0,1.0,0.5,0.25,3.0,1.5,6.5,5.75,5.25,6.25,0.08,0.08,0.95,485.69,3.5,-73.9
2.24,0.0,0.0,0.0,0.25,0.0,0.0,0.0,3.75,1.5,5.25,4.0,4.25,4.25,-0.17,0.02,0.95,372.85,-4.4,-78.4,0.25,0.0,0.75,0.0,2.25,0.5,0.25,3.0,1.5,6.25,5.75,5.0,5.75,0.08,0.08,0.95,455.39,2.7,-64.7
2.26,0.0,0.0,0.0,1.0,0.0,0.0,0.0,3.75,1.5,5.25,4.0,4.25,4.25,-0.17,0.02,0.95,377.21,-3.7,-73.9,0.0,0.0,0.75,0.0,1.25,0.5,0.5,3.0,1.5,5.75,5.0,4.0,5.0,0.02,0.08,0.95,410.65,3.0,-67.4
2.28,0.0,0.0,0.0,1.0,0.0,0.0,0.0,3.75,1.5,4.75,3.75,4.0,4.25,-0.17,0.02,0.95,372.75,-3.7,-73.5,0.0,0.0,1.0,0.0,0.5,0.5,0.5,2.75,1.5,5.25,4.5,3.75,4.5,0.02,0.08,0.95,370.13,2.4,-68.9
2.3,0.0,0.0,0.0,1.0,0.0,0.0,0.0,4.25,1.5,5.25,2.75,3.75,4.25,-0.17,0.02,0.95,363.5,-5.0,-72.3,0.0,0.0,1.25,0.0,0.5,0.5,0.5,2.5,1.5,4.75,4.0,3.25,4.0,0.02,0.08,0.95,328.22,1.7,-65.7
2.32,0.0,0.0,0.75,1.0,0.0,0.0,0.0,4.25,1.5,5.25,3.5,3.75,4.0,-0.17,0.02,0.95,355.5,-3.1,-67.7,0.0,0.0,1.25,0.0,1.0,0.5,0.75,2.0,1.5,4.0,4.0,2.5,3.25,0.02,0.08,0.95,291.2,0.6,-58.8
2.34,0.0,0.0,0.75,1.0,0.0,0.0,0.0,4.5,1.5,5.0,3.25,3.5,4.0,-0.17,0.02,0.95,347.96,-3.3,-66.8,0.0,0.0,1.75,0.25,1.0,0.5,0.75,1.5,1.5,3.25,3.25,2.5,2.0,0.02,0.08,0.95,256.49,-2.2,-49.2
2.36,0.0,0.0,0.75,1.0,0.0,0.0,0.0,4.5,1.5,4.75,3.25,3.5,4.0,-0.17,0.02,0.95,340.98,-3.2,-66.7,0.25,0.0,3.75,0.75,1.0,1.0,0.75,1.5,1.25,3.25,2.75,2.0,1.75,0.02,0.14,0.95,234.8,-5.8,-28.3
2.38,0.0,0.0,0.75,1.0,0.0,0.0,0.0,4.5,1.5,4.0,2.75,3.5,4.0,-0.17,0.02,0.95,327.6,-3.1,-66.2,0.25,0.0,4.0,1.25,1.25,1.0,1.25,1.5,1.5,2.75,2.75,2.0,1.5,0.02,0.14,0.95,226.17,-7.5,-21.2
2.4,0.0,0.0,0.75,1.0,0.0,0.0,0.0,4.5,1.5,3.75,2.5,2.5,3.25,-0.17,0.02,0.95,304.23,-3.3,-62.1,0.5,0.0,4.75,0.5,1.75,1.0,1.25,1.5,1.5,2.5,2.5,1.5,1.5,0.02,0.14,0.95,227.52,-8.6,-14.1
2.42,0.0,0.0,0.75,1.0,0.0,0.0,0.0,4.5,1.5,3.75,2.25,2.5,2.75,-0.17,0.02,0.95,285.16,-3.2,-60.6,1.0,0.0,5.75,1.75,2.25,1.0,1.5,1.5,1.5,2.0,2.0,1.0,1.5,0.02,0.14,0.95,243.69,-11.3,2.6
2.44,0.0,0.0,1.0,1.0,0.0,0.0,0.25,3.75,1.25,2.75,1.75,2.0,1.75,-0.17,0.02,0.95,254.82,-1.1,-53.0,1.25,0.0,6.0,2.0,2.25,1.25,1.25,1.5,1.5,1.75,1.75,1.0,1.5,0.02,0.14,0.95,261.93,-11.7,6.7
2.46,0.0,0.0,1.0,1.0,0.0,0.0,0.0,3.5,1.25,2.0,0.75,1.25,1.5,-0.17,0.02,0.95,216.61,-1.6,-46.4,1.5,0.25,7.0,2.25,2.25,1.25,1.5,1.5,1.5,1.75,1.75,1.0,1.5,0.02,0.14,0.95,285.02,-13.2,11.4
2.48,0.0,0.0,1.0,1.0,0.0,0.0,0.0,2.75,0.75,1.0,0.0,1.25,1.0,-0.17,0.02,0.95,166.53,0.1,-38.1,1.5,0.25,7.25,2.25,2.5,1.25,2.0,1.5,1.5,1.75,1.75,0.5,1.0,0.02,0.14,0.95,302.41,-14.1,17.6
2.5,0.0,0.0,1.5,2.75,0.0,0.0,0.0,2.0,0.25,0.5,0.0,0.5,0.25,-0.17,0.02,0.95,123.96,8.9,6.7,1.5,0.25,7.5,2.25,2.75,1.25,2.0,1.75,1.5,1.75,1.75,1.0,0.75,0.08,0.14,0.95,327.26,-14.1,16.7
2.52,0.0,0.0,2.5,3.0,0.0,0.0,0.0,1.25,0.25,0.5,0.0,0.25,0.25,-0.23,0.08,1.08,96.61,15.2,22.8,2.0,0.5,8.25,3.25,2.75,1.25,2.25,1.75,1.5,0.5,1.75,0.0,1.0,0.08,0.14,0.95,348.19,-16.7,30.0
2.54,0.0,0.5,0.0,2.5,0.0,0.0,0.0,0.25,0.25,0.5,0.0,0.5,0.25,-0.17,0.02,1.58,65.94,8.8,12.8,2.75,0.75,8.25,3.75,4.25,1.25,2.5,2.5,1.5,0.25,1.75,0.25,0.75,0.08,0.14,0.95,383.46,-15.6,33.2
2.56,0.0,0.0,1.75,1.25,0.0,0.0,0.0,0.25,0.25,0.25,0.0,0.25,0.25,-0.36,0.14,1.39,43.31,19.5,21.0,3.0,0.25,8.25,3.25,3.25,1.0,2.5,3.0,1.5,1.5,1.75,1.0,0.75,0.08,0.14,0.95,412.55,-14.8,22.1
2.58,0.0,0.0,0.5,1.0,0.0,0.0,0.0,0.25,0.0,0.0,0.0,0.0,0.25,-0.42,0.14,1.52,14.56,14.5,26.1,4.0,1.0,9.0,5.0,4.5,1.5,3.0,3.0,1.5,1.75,0.75,1.0,0.25,0.08,0.14,0.95,471.32,-15.1,33.8
2.6,0.0,0.0,0.25,0.25,0.0,0.0,0.0,0.0,0.25,0.0,0.0,0.0,0.25,-0.42,0.27,1.39,0.0,13.5,-6.7,4.25,1.0,9.5,5.0,4.5,1.25,3.0,3.0,1.5,0.5,1.75,0.5,1.0,0.08,0.14,0.95,515.64,-16.2,34.4
2.62,0.0,0.0,0.0,0.25,0.0,0.0,0.0,0.0,0.0,0.25,0.0,0.0,0.0,-0.48,0.2,1.14,0.0,1.1,-7.2,5.25,1.0,9.0,6.5,4.5,2.0,3.25,3.0,1.5,1.75,0.75,0.5,0.0,0.08,0.14,0.95,566.39,-15.7,39.6
2.64,0.0,0.0,0.0,1.0,0.0,0.0,0.0,0.25,0.0,0.0,0.0,0.0,0.25,-0.61,-0.17,1.08,0.0,6.6,14.5,5.5,1.0,9.25,6.75,3.75,2.75,3.75,3.0,1.5,1.0,0.75,0.25,0.75,0.08,0.14,0.95,599.84,-15.8,40.0
2.66,0.0,0.0,0.0,1.25,0.0,0.0,0.0,0.25,2.75,0.0,0.0,0.0,0.25,-1.11,-1.98,1.64,0.0,10.5,-14.7,5.75,1.25,9.75,8.25,4.75,1.75,3.5,3.0,1.0,0.0,0.75,0.0,0.25,0.08,0.14,0.95,628.24,-17.9,49.1
2.68,0.0,0.0,0.0,0.0,0.0,0.0,3.25,4.25,0.0,0.0,0.0,0.0,0.25,-0.86,-1.98,1.27,28.5,-4.0,-24.8,6.25,1.75,12.0,8.5,4.75,3.0,3.75,2.75,1.0,0.0,0.5,0.0,0.0,0.08,0.14,0.95,672.02,-18.4,52.6
2.7,0.0,0.0,0.0,1.0,0.0,0.0,0.0,0.0,1.25,1.0,0.0,0.0,0.0,-0.48,-1.48,0.77,43.82,5.2,-19.0,7.25,1.75,12.5,10.0,4.75,2.75,3.5,1.5,0.75,0.0,0.0,0.0,0.0,0.08,0.14,0.95,713.82,-20.3,58.6
2.72,0.0,0.0,1.0,0.5,0.0,0.0,2.75,4.0,0.0,0.0,0.0,0.0,0.75,-0.48,-1.55,0.89,73.13,1.7,-14.4,6.5,1.25,12.0,8.5,5.25,1.25,3.25,0.0,0.25,0.0,0.0,0.0,0.0,0.08,0.14,1.02,704.02,-22.8,63.4
2.74,0.0,0.0,0.0,0.5,0.0,0.0,0.0,0.0,0.0,0.0,0.0,0.0,0.25,-0.3,-1.42,1.08,56.52,7.0,2.6,7.25,1.5,12.0,9.5,4.75,1.25,3.0,0.0,0.0,0.0,0.0,0.0,0.0,0.08,0.2,1.08,686.2,-23.2,65.0
2.76,0.0,0.0,0.0,0.5,0.0,0.0,0.0,0.0,0.0,0.0,0.0,0.0,0.25,-0.36,-1.11,1.2,42.35,7.0,2.6,7.5,1.5,12.5,10.0,5.0,1.25,2.5,0.0,0.0,0.0,0.0,0.0,0.0,0.08,0.2,1.14,668.15,-23.2,65.2
2.78,0.25,0.0,0.0,2.0,0.0,0.0,0.0,0.0,2.25,0.75,0.0,0.0,0.25,-0.36,-0.67,1.45,49.67,10.0,-4.7,8.0,1.75,12.5,10.0,6.5,0.5,2.0,0.0,0.0,0.0,0.0,0.0,0.0,0.08,0.2,1.14,668.58,-22.9,66.0
2.8,1.0,0.0,0.75,2.0,0.0,0.0,3.5,0.0,2.5,0.25,0.0,0.0,0.0,-0.42,-0.11,1.58,81.36,21.8,23.3,8.0,3.0,13.0,10.0,4.75,0.75,1.25,0.0,0.0,0.0,0.0,0.0,0.0,0.02,0.27,1.14,672.43,-23.7,67.7
2.82,1.0,0.0,0.5,2.0,0.0,0.0,3.5,0.0,2.5,0.5,0.0,0.0,0.0,-0.42,0.7,1.64,110.49,20.1,19.1,8.75,3.0,14.5,10.5,4.75,1.25,1.25,0.0,0.25,0.0,0.0,0.0,0.0,-0.05,0.27,1.08,701.18,-23.7,66.9
2.84,1.0,0.0,0.0,0.5,0.0,0.0,3.5,0.0,2.75,0.0,0.0,0.0,0.0,-0.36,1.58,1.52,119.74,22.0,10.7,7.75,2.0,14.5,8.5,5.5,0.0,1.25,0.0,0.0,0.0,0.0,0.0,0.0,-0.05,0.33,1.2,690.58,-24.9,67.2
2.86,0.0,0.0,0.25,0.0,0.0,0.0,4.0,0.0,0.0,0.0,0.0,0.0,0.0,-0.23,2.39,1.2,99.21,33.0,31.3,7.75,1.75,12.0,8.5,4.5,0.0,1.25,0.0,0.0,0.0,0.0,0.0,0.0,0.02,0.39,1.2,647.3,-25.0,67.8
2.88,0.0,0.0,0.0,0.0,0.0,0.0,0.0,0.0,0.0,0.0,0.0,0.0,0.0,0.2,2.95,1.02,57.58,0.0,0.0,7.0,1.25,10.5,6.75,1.75,0.0,0.75,0.0,0.0,0.0,0.0,0.0,0.0,0.02,0.45,1.52,546.67,-27.9,69.5
2.9,0.0,0.0,0.0,0.0,0.0,0.0,0.0,0.0,0.0,0.0,0.0,0.0,0.0,0.45,3.39,0.58,20.83,0.0,0.0,5.25,0.25,8.75,5.0,1.0,0.0,1.0,0.0,0.0,0.0,0.0,0.0,0.0,0.02,0.7,1.64,420.62,-29.5,68.1
2.92,0.0,0.0,0.0,0.75,0.0,0.0,3.75,0.0,2.5,0.0,0.0,0.25,0.0,0.58,4.27,0.33,28.66,19.6,-5.2,2.0,0.0,7.25,2.25,0.0,0.0,0.75,0.0,0.0,0.0,0.0,0.0,0.0,0.14,1.33,2.2,290.26,-33.4,65.1
2.94,0.0,0.0,0.0,0.0,0.0,0.0,0.0,0.0,0.0,0.0,0.0,0.0,0.5,-0.61,-0.23,1.64,21.99,-13.7,-109.8,0.0,0.0,5.75,0.0,0.0,0.0,0.25,0.0,0.0,0.0,0.0,0.0,0.0,-0.05,1.08,2.27,181.37,-38.1,60.3
2.96,0.0,0.0,0.0,0.25,0.0,0.0,3.75,2.75,0.0,1.25,0.0,1.25,0.0,-0.3,-0.11,0.58,54.39,1.0,-37.4,0.5,0.0,2.75,0.0,0.25,0.0,0.0,0.0,0.0,0.0,0.0,0.0,0.0,-0.17,0.39,2.27,73.56,-34.5,65.1
2.98,0.0,0.0,0.25,0.25,0.0,0.0,0.0,0.25,0.25,2.5,0.0,2.5,2.75,-0.05,0.2,1.83,93.28,-4.8,-86.1,0.25,0.0,2.0,1.0,0.5,0.0,0.25,0.0,0.0,0.0,0.0,0.0,0.0,0.64,-1.8,2.08,0.0,-26.4,60.2
3.0,0.0,0.0,0.0,0.25,0.0,0.0,0.0,1.25,0.25,4.0,0.0,2.5,4.0,-0.23,0.27,1.52,144.4,-8.9,-86.5,0.0,0.0,1.0,0.0,0.25,0.0,0.25,0.0,0.0,0.0,0.0,0.0,0.0,0.2,-1.23,2.64,0.0,-29.4,56.6
3.02,0.0,0.0,0.0,0.0,0.0,0.0,0.0,2.75,1.0,5.25,0.0,3.5,4.75,-0.11,0.14,1.08,200.98,-8.7,-84.1,0.0,0.0,0.5,0.0,0.0,0.0,0.0,0.0,0.0,0.0,0.0,0.0,0.0,0.2,-0.98,1.27,0.0,-38.2,60.9
3.04,0.0,0.0,0.0,0.0,0.0,0.0,0.0,4.5,1.25,6.25,3.0,4.5,5.25,-0.23,0.08,1.02,277.77,-6.5,-80.7,0.0,0.0,0.5,0.0,0.0,0.0,0.0,0.0,0.0,0.0,0.0,0.0,0.0,0.45,-0.92,0.7,0.0,-38.2,60.9
3.06,0.0,0.0,0.0,0.0,0.0,0.0,0.0,4.75,1.75,6.25,4.75,4.5,6.0,-0.17,0.02,0.95,357.57,-5.4,-80.0,0.0,0.0,0.0,0.0,0.0,0.0,0.0,0.0,0.0,0.0,0.0,0.0,0.0,0.2,-0.92,1.02,0.0,0.0,0.0
3.08,0.0,0.0,0.0,0.0,0.0,0.0,0.0,5.5,2.5,6.5,5.5,5.25,6.0,-0.17,-0.05,0.95,446.52,-4.6,-78.6,0.0,0.0,0.0,0.0,0.25,0.0,0.0,0.0,0.0,0.0,0.0,0.0,0.0,0.2,-0.8,1.08,0.0,3.3,53.4
3.1,0.0,0.0,0.0,1.0,0.0,0.25,0.0,6.0,3.0,6.5,5.5,5.25,6.0,-0.17,-0.05,0.95,524.62,-4.0,-72.4,0.0,0.0,0.0,0.0,0.0,0.0,0.0,0.0,0.0,0.0,0.0,0.0,0.0,0.27,-0.55,1.02,0.0,0.0,0.0
3.12,0.0,0.0,0.75,1.0,0.0,0.25,0.0,6.25,3.25,6.25,5.75,4.75,6.0,-0.17,-0.05,0.95,573.93,-3.0,-68.3,0.0,0.0,0.0,0.0,0.25,0.0,0.0,0.0,0.0,0.0,0.0,0.0,0.0,0.2,-0.23,0.95,0.0,3.3,53.4
3.14,0.0,0.0,0.25,1.0,0.0,0.75,0.0,6.25,3.25,6.25,5.5,4.5,5.5,-0.17,-0.05,0.95,587.27,-3.9,-67.9,0.0,0.0,0.0,0.0,0.0,0.0,0.0,0.0,0.0,0.0,0.0,0.0,0.0,0.14,0.02,1.02,0.0,0.0,0.0
3.16,0.0,0.0,0.75,2.0,0.0,1.0,0.25,6.25,3.25,5.5,5.0,3.5,5.25,-0.17,-0.05,0.95,574.94,-2.9,-58.8,0.0,0.0,0.0,0.0,0.25,0.0,0.0,0.0,0.0,0.0,0.0,0.0,0.0,0.08,0.14,1.27,0.0,3.3,53.4
3.18,0.0,0.0,1.0,3.0,0.0,1.5,0.25,6.0,3.0,5.25,4.0,3.5,4.25,-0.17,-0.05,0.95,547.4,-2.1,-50.6,0.0,0.0,0.0,0.0,0.0,0.0,0.0,0.0,0.0,0.0,0.0,0.0,0.0,0.08,0.27,1.52,0.0,0.0,0.0
3.2,0.0,0.5,1.25,3.0,0.0,1.5,0.25,6.0,2.75,4.0,2.5,2.5,3.25,-0.17,-0.05,0.95,481.27,-1.7,-40.0,0.0,0.0,0.0,0.0,0.0,0.0,0.0,0.0,0.0,0.0,0.0,0.0,0.0,0.14,0.7,1.89,0.0,0.0,0.0
3.22,0.0,0.75,2.25,3.0,2.75,1.5,0.25,5.5,2.5,3.75,2.0,1.75,2.75,-0.17,-0.05,0.95,432.19,-0.3,-21.1,0.0,0.0,0.0,0.0,0.25,0.0,0.0,0.0,0.0,0.0,0.0,0.0,0.0,0.14,1.02,2.33,0.0,3.3,53.4
3.24,0.0,0.5,2.5,4.25,4.5,1.5,0.25,5.25,2.0,2.5,1.0,1.25,1.5,-0.17,0.02,0.95,390.7,1.1,-1.8,0.0,0.0,0.0,0.0,0.25,0.0,0.0,0.0,0.0,0.0,0.0,0.0,0.0,0.02,1.39,2.58,1.38,3.3,53.4
3.26,0.0,0.75,3.75,4.75,5.0,2.0,0.25,4.75,1.75,2.0,0.5,1.25,1.5,-0.17,0.02,0.95,376.16,3.0,7.9,0.0,0.0,0.0,0.0,0.25,0.0,0.0,0.0,0.0,0.0,0.0,0.0,0.0,-0.23,1.95,2.52,3.84,3.3,53.4
3.28,1.75,1.25,5.75,7.0,4.75,2.0,0.25,4.5,1.25,1.0,0.0,0.5,0.5,-0.17,0.02,0.95,384.31,9.2,32.6,0.0,0.0,0.0,0.0,0.25,0.0,0.0,0.0,0.0,0.0,0.0,0.0,0.0,-0.11,2.89,1.7,4.91,3.3,53.4
3.3,1.75,2.25,6.75,8.25,6.0,2.25,0.25,3.75,1.0,0.5,0.0,0.5,0.25,-0.17,0.02,0.95,423.41,10.8,41.9,0.0,0.0,0.0,0.0,0.25,0.0,0.0,0.0,0.0,0.0,0.0,0.0,0.0,-0.11,3.58,0.7,5.75,3.3,53.4
3.32,3.25,2.5,7.25,9.25,6.5,2.25,0.25,3.5,0.5,0.5,0.0,0.5,0.25,-0.11,0.08,0.95,482.2,12.2,46.8,0.0,0.0,0.0,0.0,0.25,0.0,0.0,0.0,0.0,0.0,0.0,0.0,0.0,-0.86,4.39,0.02,5.54,3.3,53.4
3.34,4.75,4.0,8.0,9.5,7.25,2.25,0.25,2.5,0.25,0.5,0.0,0.5,0.25,-0.17,0.08,0.95,559.32,13.9,53.6,0.0,0.0,0.5,0.0,0.25,0.0,0.25,0.0,0.0,0.0,0.0,0.0,0.0,-1.55,4.64,0.14,9.67,-24.5,54.2
3.36,6.0,4.0,8.25,10.5,0.0,2.25,0.25,2.0,0.25,0.5,0.0,0.5,0.25,-0.17,0.08,1.02,580.45,19.4,56.6,0.0,0.0,0.0,0.0,0.5,0.25,0.0,0.0,0.0,1.25,0.0,0.5,0.75,0.52,0.27,2.02,26.99,9.9,-58.4
3.38,6.25,4.75,8.75,11.0,0.0,2.0,0.0,1.75,0.25,0.5,0.0,0.25,0.25,-0.17,0.14,1.02,594.42,20.2,59.9,0.0,0.0,0.0,0.0,1.5,0.0,0.25,0.0,0.5,1.5,0.75,1.0,1.75,0.52,-0.17,0.27,65.11,3.7,-54.0
3.4,7.0,4.75,0.0,11.5,0.0,0.75,0.0,1.0,0.25,0.5,0.0,0.5,0.25,-0.23,0.14,1.14,527.15,17.2,62.8,0.0,0.0,0.0,0.0,0.0,0.0,0.0,0.0,0.25,5.5,0.75,3.5,4.25,-0.55,0.2,1.08,140.39,7.2,-93.7
3.42,6.75,5.25,9.25,12.0,0.0,1.25,0.0,0.5,0.0,0.25,0.0,0.25,0.25,-0.17,0.14,1.08,535.3,22.8,66.4,0.0,0.0,0.0,0.0,0.25,0.0,0.0,0.0,0.0,6.5,3.0,4.25,5.75,-0.17,0.27,1.39,224.98,5.8,-91.2
3.44,7.25,5.75,9.25,12.0,0.0,0.75,0.0,0.25,0.0,0.25,0.0,0.25,0.25,-0.17,0.2,1.14,542.51,23.7,68.4,0.0,0.0,0.0,0.0,0.25,0.0,0.0,1.5,0.75,8.25,5.75,5.5,6.5,0.27,0.39,1.77,322.66,4.5,-85.9
3.46,7.75,6.0,9.25,12.0,0.0,0.0,0.0,0.25,0.0,0.25,0.0,0.25,0.25,-0.23,0.27,1.14,571.41,24.7,69.6,0.0,0.0,0.0,0.0,1.5,1.5,0.0,4.75,2.0,9.0,7.75,6.25,7.25,-0.05,0.14,1.08,472.9,5.0,-71.6
3.48,0.0,5.25,9.25,11.0,0.0,0.0,0.0,0.25,0.0,0.25,0.0,0.25,0.25,-0.3,0.27,1.27,518.78,22.6,61.8,0.0,0.0,0.75,0.25,3.25,1.25,0.0,6.25,2.0,9.25,8.5,6.25,8.0,0.14,0.14,1.02,645.88,4.3,-63.3
3.5,0.0,0.0,8.5,10.5,0.0,0.0,0.0,0.0,0.0,0.0,0.0,0.0,0.25,-0.42,0.39,1.39,418.98,26.0,57.0,0.0,0.0,1.0,1.0,3.75,1.5,0.5,7.0,2.75,9.25,8.75,6.5,8.25,0.14,0.08,0.95,804.42,3.5,-58.4
3.52,6.0,0.0,7.0,7.5,0.0,0.0,0.0,0.25,0.0,0.0,0.0,0.0,0.0,-0.55,0.45,1.64,338.81,28.8,68.5,0.25,0.25,1.0,2.0,3.75,2.75,1.0,7.5,3.25,9.25,8.75,6.25,8.0,0.14,0.08,0.95,927.89,3.1,-51.4
3.54,4.75,0.0,5.75,5.5,0.0,0.0,0.0,0.0,0.0,0.25,0.0,0.0,0.0,-0.48,0.83,2.08,270.85,29.1,67.8,0.25,0.25,1.25,2.0,3.75,3.75,1.0,7.75,3.25,9.0,8.75,5.75,7.75,0.2,0.08,0.95,1000.91,3.3,-48.4
3.56,0.0,0.0,3.5,1.0,0.0,0.0,0.0,0.0,0.0,0.0,0.0,0.0,0.0,-0.61,1.39,2.7,178.65,33.5,60.3,0.5,0.25,2.75,2.0,4.5,3.75,1.25,7.75,3.25,8.5,8.25,5.25,7.25,0.2,0.08,0.95,1027.11,1.9,-41.3
3.58,0.0,0.0,0.0,1.0,0.0,0.0,0.0,0.0,0.0,0.0,0.0,0.0,0.0,-0.36,0.52,2.27,74.63,17.2,57.9,1.25,0.5,4.0,2.5,4.5,3.75,1.5,7.75,3.25,7.75,7.75,4.25,6.25,0.2,0.08,0.95,1011.11,0.1,-32.1
3.6,0.0,0.0,0.0,1.0,0.0,0.0,0.0,0.0,0.0,0.0,0.0,0.0,0.0,-0.55,-0.05,1.83,0.0,17.2,57.9,1.25,0.75,4.0,3.5,4.75,3.75,1.25,7.25,2.75,7.0,6.75,3.25,5.25,0.2,0.08,0.95,951.81,-0.3,-24.6
3.62,0.0,0.0,0.0,0.75,0.0,0.0,0.0,0.0,0.0,0.0,0.0,0.0,0.0,-0.73,-0.73,1.77,0.0,17.2,57.9,1.5,0.75,6.0,4.0,4.75,3.75,1.25,7.0,2.75,6.5,5.5,2.5,4.25,0.2,0.14,0.95,885.74,-2.3,-14.9
3.64,0.0,0.0,0.0,0.0,0.0,0.0,0.0,0.0,0.0,0.0,0.0,0.25,0.0,-0.42,-0.98,1.95,0.0,8.8,-109.9,1.75,0.75,6.25,4.5,4.75,3.75,1.25,6.25,2.0,5.5,4.0,1.5,2.75,0.2,0.14,0.95,793.66,-3.6,-3.7
3.66,0.0,0.0,0.0,0.0,0.0,0.0,0.0,0.0,0.0,0.0,0.0,0.0,0.0,-0.42,-0.73,0.83,0.0,0.0,0.0,2.75,1.0,7.25,5.0,4.75,3.75,1.5,5.5,2.0,3.5,3.25,1.0,2.5,0.2,0.14,0.95,719.57,-6.5,8.3
3.68,0.0,0.0,0.0,1.0,0.0,0.0,0.0,0.0,0.0,0.0,0.0,0.0,0.0,-0.48,-0.73,0.45,0.0,17.2,57.9,3.0,0.75,8.0,5.0,5.0,3.75,1.5,5.25,1.75,2.25,1.75,0.75,1.5,0.2,0.14,0.95,640.7,-8.3,19.5
3.7,0.0,0.0,0.0,0.0,0.0,0.0,0.0,0.0,0.0,0.0,0.0,0.0,0.0,-0.36,-0.61,0.52,0.0,0.0,0.0,4.0,1.0,8.75,6.25,5.0,3.75,1.5,4.25,1.5,0.5,1.5,0.0,1.25,0.14,0.14,0.95,588.41,-11.7,33.9
3.72,0.0,0.0,0.0,0.0,0.0,0.0,2.0,0.0,0.0,0.0,0.0,0.0,0.0,-0.36,-0.55,0.89,0.0,32.4,27.3,5.0,1.0,9.0,6.75,5.5,3.75,1.5,4.0,1.5,1.5,0.75,0.25,1.0,0.14,0.14,0.95,571.32,-11.9,35.8
3.74,0.0,0.0,0.0,0.0,0.0,0.0,3.0,0.0,0.0,0.0,0.0,0.0,0.0,-0.42,-0.36,0.89,0.0,32.4,27.3,5.25,1.0,9.75,7.0,6.25,3.75,1.5,3.0,0.75,0.0,0.0,0.0,0.0,0.14,0.14,0.95,558.41,-14.8,51.9
3.76,0.0,0.0,0.0,0.0,0.0,0.0,1.75,0.0,0.0,0.0,0.0,0.0,0.0,-0.42,-0.11,0.83,0.0,32.4,27.4,6.5,2.25,11.0,8.5,6.5,3.75,1.5,2.75,0.75,0.25,0.0,0.0,0.0,0.14,0.14,0.95,593.53,-15.9,54.8
3.78,0.0,0.0,0.0,0.0,0.0,0.0,1.75,0.0,0.0,0.0,0.0,0.0,0.0,-0.36,0.02,0.89,0.0,32.4,27.4,6.25,1.0,12.0,8.5,6.5,2.25,1.25,1.5,0.0,0.0,0.0,0.0,0.0,0.08,0.14,1.02,601.0,-19.1,59.5
3.8,0.0,0.0,0.0,0.0,0.0,0.0,1.0,0.0,0.0,0.0,0.0,0.0,0.0,-0.36,0.14,1.27,9.45,32.4,27.3,7.0,1.75,11.0,8.5,6.0,1.25,1.25,1.25,0.75,0.0,0.0,0.0,0.0,0.14,0.2,1.02,609.3,-20.2,60.4
3.82,0.0,0.0,0.0,0.0,0.0,0.0,2.5,0.0,0.0,0.0,0.0,0.0,0.0,-0.42,0.33,1.58,15.2,32.4,27.3,7.5,1.75,11.0,8.75,6.5,1.25,1.5,0.75,0.0,0.0,0.0,0.0,0.75,0.08,0.2,1.08,610.8,-20.0,60.4
3.84,0.0,0.0,0.0,0.0,0.0,0.0,1.75,0.0,0.0,0.0,0.0,0.0,0.0,-0.55,0.52,1.83,14.81,32.4,27.4,8.0,3.5,11.5,10.0,6.25,1.25,0.75,0.0,0.0,0.0,0.0,0.0,0.0,0.08,0.2,1.08,635.5,-21.3,67.6
3.86,0.0,0.0,0.0,0.0,0.0,0.0,0.0,0.0,0.0,0.0,0.0,0.0,0.0,-0.67,0.83,2.45,11.37,0.0,0.0,8.0,2.75,12.0,10.0,6.5,1.25,0.25,0.0,0.0,0.0,0.0,0.0,0.0,0.02,0.27,1.08,653.54,-21.5,67.1
3.88,0.0,0.0,0.0,0.0,0.0,0.0,0.0,0.0,0.0,0.0,0.0,0.0,0.0,-0.55,1.39,2.52,6.59,0.0,0.0,8.25,4.0,12.0,10.0,6.5,1.0,0.25,0.0,0.0,0.0,0.0,0.0,0.0,0.02,0.27,1.14,684.82,-21.5,68.4
3.9,0.0,0.0,0.0,0.0,0.0,0.0,0.0,0.0,0.0,0.0,0.0,0.0,0.0,-0.48,2.2,2.2,1.76,0.0,0.0,8.25,3.0,12.0,10.0,6.25,0.5,0.25,0.0,0.0,0.0,0.0,0.0,0.0,0.02,0.33,1.14,690.74,-22.4,68.1
3.92,0.0,0.0,0.0,0.0,0.0,0.0,0.0,0.0,0.0,0.0,0.0,0.0,0.0,-0.3,3.14,1.83,0.0,0.0,0.0,8.25,3.0,12.0,8.5,6.75,0.25,0.5,0.0,0.0,0.0,0.0,0.0,0.0,0.02,0.33,1.2,682.21,-22.5,68.4
3.94,0.0,0.0,0.0,0.0,0.0,0.0,0.0,0.0,0.0,0.0,0.0,0.0,0.0,-0.17,3.77,0.95,0.0,0.0,0.0,7.75,2.5,11.5,8.5,4.75,0.25,0.25,0.0,0.0,0.0,0.0,0.0,0.0,0.08,0.39,1.27,637.36,-23.9,68.8
3.96,0.0,0.0,0.0,0.0,0.0,0.0,0.0,0.0,0.0,0.0,0.0,0.0,0.0,0.2,4.33,0.33,0.0,0.0,0.0,7.25,2.75,9.0,8.25,4.5,1.25,0.25,0.0,0.0,0.0,0.0,0.0,0.0,0.2,0.52,1.58,582.89,-21.6,68.5
3.98,0.0,0.0,0.0,0.0,0.0,0.0,0.0,0.0,0.0,0.0,0.0,0.0,0.0,1.08,4.33,0.45,0.0,0.0,0.0,5.25,1.0,8.25,5.0,4.75,1.25,0.25,0.0,0.0,0.0,0.0,0.0,0.0,0.2,0.89,2.27,488.73,-21.1,65.7
4.0,0.0,0.0,0.0,0.75,0.0,0.0,1.75,0.0,0.0,0.0,0.0,0.0,0.0,-0.23,2.89,2.77,7.11,25.0,42.1,1.25,0.0,4.25,1.75,2.25,0.0,0.25,0.0,0.0,0.0,0.0,0.0,0.0,-0.05,1.58,2.7,329.13,-23.2,62.3
4.02,0.0,0.0,0.0,0.0,0.0,0.0,0.0,0.0,1.0,0.0,0.0,0.0,0.0,-0.61,-0.86,1.27,12.19,12.1,-38.5,0.0,0.0,3.25,0.0,1.5,0.0,0.0,0.0,0.0,0.0,0.0,0.0,0.0,-0.23,0.39,2.2,203.3,-24.0,58.4
4.04,0.0,0.0,0.0,0.0,0.0,0.0,0.0,0.0,0.0,2.0,0.0,2.5,0.0,-0.17,0.08,1.14,39.96,-2.0,-94.5,0.0,0.0,1.0,0.0,0.25,0.0,0.0,0.0,0.0,0.0,0.0,0.0,0.0,0.08,-0.11,2.14,60.94,-29.1,59.3
4.06,0.0,0.0,0.0,0.25,0.0,0.0,0.0,0.25,0.25,5.25,0.0,3.75,4.5,0.08,0.33,2.08,118.71,-7.6,-91.8,0.25,0.0,0.75,1.0,0.25,0.0,0.25,0.0,0.0,0.0,0.0,0.0,0.0,0.52,-0.8,2.83,0.0,-23.8,60.6
4.08,0.0,0.0,0.0,0.0,0.0,0.0,0.0,3.5,1.0,6.25,0.0,5.25,6.0,-0.55,0.64,1.89,221.38,-8.2,-85.7,0.0,0.0,1.25,1.25,2.25,0.0,0.25,0.0,0.0,0.0,0.0,0.0,0.0,0.27,-0.92,1.58,0.0,-12.6,55.8
4.1,0.0,0.0,0.0,0.0,0.0,0.0,0.0,4.75,2.0,7.0,5.5,5.25,6.5,-0.11,0.02,1.14,335.92,-4.9,-80.7,0.0,0.0,1.25,0.0,0.5,0.0,0.25,0.0,0.0,0.0,0.0,0.0,0.0,0.33,-0.8,0.95,0.0,-25.8,56.7
4.12,0.0,0.0,0.0,0.0,0.0,0.0,0.0,5.5,2.75,7.0,6.25,5.25,6.25,-0.17,0.02,1.02,453.64,-4.4,-78.5,0.0,0.0,0.25,0.0,0.5,0.0,0.25,0.0,0.0,0.0,0.0,0.0,0.0,0.39,-0.73,0.77,0.0,-12.3,52.2
4.14,0.0,0.0,0.0,1.0,0.0,0.5,0.0,6.25,3.5,7.0,6.75,5.25,6.25,-0.17,-0.05,0.95,565.64,-3.7,-71.4,0.0,0.0,0.5,0.0,0.25,0.0,0.25,0.0,0.0,0.0,0.0,0.0,0.0,0.39,-0.61,0.77,0.0,-24.5,54.2
4.16,0.0,0.0,1.0,1.25,0.0,1.0,0.25,6.5,4.0,7.0,6.75,5.25,6.0,-0.17,-0.05,1.02,641.06,-2.4,-64.5,0.0,0.0,0.0,0.75,1.25,0.25,0.25,0.0,0.0,0.0,0.0,0.0,0.0,0.33,-0.42,0.89,0.0,-2.7,51.8
4.18,0.0,0.0,1.25,1.0,0.0,1.5,0.25,6.5,4.25,6.25,6.25,4.5,5.5,-0.17,-0.05,0.95,672.33,-2.4,-61.2,0.0,0.0,0.5,0.5,1.25,0.0,0.25,0.0,0.0,0.0,0.0,0.0,0.0,0.27,-0.17,0.95,0.0,-10.6,54.6
4.2,0.0,1.0,2.5,3.25,2.25,1.75,0.25,6.5,4.25,5.25,5.5,3.5,4.25,-0.17,-0.05,1.02,682.93,0.3,-35.0,0.0,0.0,0.75,0.0,1.0,0.0,0.25,0.0,0.0,0.0,0.0,0.0,0.0,0.2,0.08,0.95,0.0,-14.4,54.8
4.22,0.0,1.0,2.5,3.25,4.0,2.0,0.25,6.25,3.75,5.25,4.0,2.5,3.5,-0.17,-0.05,0.95,661.95,-0.3,-25.0,0.0,0.0,0.75,0.25,1.0,0.0,0.25,0.0,0.0,0.0,0.0,0.0,0.0,0.2,0.2,1.14,5.23,-14.7,55.1
4.24,0.0,1.0,2.5,4.75,0.0,2.5,0.25,6.0,3.0,3.75,2.5,1.75,2.75,-0.17,0.02,0.95,587.94,0.8,-22.2,0.0,0.0,0.75,0.0,1.0,0.0,0.25,0.0,0.0,0.0,0.0,0.0,0.0,0.2,0.39,1.39,27.48,-14.4,54.8
4.26,0.0,1.0,3.0,4.75,4.25,2.75,0.25,5.5,2.5,2.25,1.0,1.25,1.5,-0.17,0.02,0.95,521.38,1.5,2.4,0.0,0.0,0.75,0.0,1.0,0.0,0.25,0.0,0.0,0.0,0.0,0.0,0.0,0.27,0.64,1.45,33.39,-14.4,54.8
4.28,0.0,1.0,3.25,4.75,5.0,2.75,0.25,5.0,1.5,2.0,0.25,1.25,1.25,-0.17,0.02,0.95,453.7,1.7,10.2,0.0,0.0,0.75,0.0,1.25,0.0,0.25,0.0,0.0,0.0,0.0,0.0,0.0,0.39,1.08,1.7,36.75,-12.2,54.6
4.3,0.0,1.25,3.75,5.25,2.0,2.75,0.0,4.75,1.0,1.0,0.0,0.5,0.5,-0.17,0.02,0.95,380.37,4.5,20.8,0.0,0.0,0.75,0.0,1.75,0.0,0.25,0.0,0.0,0.0,0.0,0.0,0.0,0.33,1.33,2.14,40.67,-9.1,54.4
4.32,0.0,1.5,4.0,6.5,5.25,2.75,0.0,4.0,0.75,0.5,0.0,0.5,0.5,-0.17,0.02,0.95,353.38,5.3,32.1,0.0,0.0,0.25,0.25,1.25,0.5,0.0,0.0,0.0,0.0,0.0,0.0,0.0,0.33,1.45,2.33,42.17,0.4,51.0
4.34,1.0,2.0,4.25,6.75,0.0,2.75,0.0,3.75,0.25,0.75,0.0,0.5,0.25,-0.17,0.08,0.95,317.23,9.6,33.9,0.0,0.0,0.0,0.0,1.5,0.25,0.25,0.0,0.0,0.0,0.0,0.0,0.0,0.02,2.08,1.7,44.52,3.4,49.8
4.36,1.25,2.5,4.25,7.25,0.0,2.75,0.0,2.75,0.25,0.75,0.0,0.5,0.5,-0.17,0.08,0.95,301.86,11.0,38.1,0.0,0.0,0.75,0.0,1.25,0.0,0.25,0.0,0.0,0.0,0.0,0.0,0.0,-0.11,2.77,1.33,43.63,-12.2,54.6
4.38,1.75,2.5,4.25,8.25,0.0,3.0,0.0,2.25,0.25,0.5,0.0,0.5,0.25,-0.17,0.14,0.89,293.68,12.5,44.5,0.0,0.0,0.75,0.0,1.25,0.25,0.25,0.0,0.0,0.0,0.0,0.0,0.0,-0.42,3.2,0.77,42.94,-9.0,52.7
4.4,1.75,3.75,4.25,8.25,0.0,3.5,0.0,2.0,0.0,0.5,0.0,0.25,0.25,-0.17,0.14,0.95,302.29,12.2,50.4,0.0,0.0,0.75,0.0,1.5,0.0,0.25,0.0,0.0,0.0,0.0,0.0,0.0,-0.98,4.2,0.2,43.01,-10.5,54.5
4.42,2.75,4.0,5.5,9.25,0.0,4.0,0.0,2.0,0.0,0.5,0.0,0.25,0.25,-0.23,0.14,0.95,333.97,13.7,52.8,0.0,0.0,1.0,0.0,1.0,0.0,0.25,0.0,0.0,0.0,0.0,0.0,0.0,-1.42,4.33,-0.11,43.23,-17.1,55.4
4.44,3.25,4.5,5.75,9.5,0.0,4.0,0.0,2.0,0.0,0.5,0.0,0.25,0.25,-0.23,0.14,1.02,373.43,14.2,54.4,0.0,0.0,1.0,0.0,0.5,0.0,0.25,0.0,0.0,0.0,0.0,0.0,0.0,-0.73,2.7,0.7,39.68,-23.9,56.1
4.46,3.5,5.25,6.0,10.5,0.0,4.0,0.0,2.0,0.0,0.5,0.0,0.25,0.25,-0.23,0.14,1.02,426.36,14.6,55.9,0.0,0.0,0.0,0.0,0.25,0.0,0.25,0.0,0.0,0.0,0.0,0.0,0.0,0.64,-0.86,1.45,26.9,-7.1,45.8
4.48,4.75,5.25,6.5,10.5,0.0,3.75,0.0,1.0,0.0,0.25,0.0,0.0,0.25,-0.23,0.2,1.08,470.93,17.2,62.8,1.0,0.0,0.0,0.0,1.0,0.0,0.25,0.0,0.0,3.0,1.25,2.5,3.25,-0.92,0.08,0.95,83.38,2.0,-65.4
4.5,5.25,5.75,0.0,9.75,0.0,4.0,0.0,1.0,0.0,0.25,0.0,0.25,0.25,-0.23,0.2,1.08,459.81,11.7,62.9,0.25,0.0,0.0,0.0,1.0,0.0,0.0,0.0,0.0,6.0,2.75,5.5,6.25,-0.8,0.45,1.7,186.88,4.5,-85.4
4.52,5.75,6.25,6.75,10.0,0.0,3.5,0.0,0.25,0.0,0.25,0.0,0.25,0.25,-0.3,0.27,1.08,484.69,18.7,66.2,0.0,0.0,0.0,0.0,0.25,1.0,0.0,3.0,0.0,8.25,7.5,6.5,7.5,0.27,0.64,2.83,322.52,5.0,-82.4
4.54,6.0,6.25,0.0,10.5,0.0,2.0,0.0,0.25,0.0,0.25,0.0,0.25,0.25,-0.3,0.27,1.14,454.5,15.9,69.5,0.0,0.0,0.0,0.5,0.25,1.25,0.0,5.0,0.0,9.25,8.5,6.5,8.25,-0.17,0.2,1.27,488.7,5.5,-77.8
4.56,6.0,0.0,0.0,9.5,0.0,0.0,0.0,0.25,0.0,0.25,0.0,0.25,0.25,-0.36,0.33,1.14,377.28,21.6,62.8,0.0,0.0,1.25,1.75,3.0,1.25,0.5,6.25,2.75,9.25,9.25,6.5,8.25,0.14,0.14,1.02,693.3,2.5,-58.7
4.58,5.5,0.0,0.0,9.25,0.0,0.0,0.0,0.25,0.0,0.0,0.0,0.25,0.25,-0.42,0.39,1.33,304.91,21.8,64.0,0.75,0.0,2.75,2.0,4.25,1.25,1.0,6.5,2.75,9.75,9.25,6.5,8.25,0.14,0.08,0.95,863.16,0.9,-49.6
4.6,4.75,0.0,0.0,8.25,0.0,0.0,0.0,0.25,0.0,0.0,0.0,0.25,0.25,-0.48,0.45,1.52,249.48,21.5,62.8,1.0,0.25,4.0,2.0,3.5,1.75,1.25,7.0,3.25,9.5,9.75,6.5,8.0,0.14,0.08,0.95,996.43,-0.2,-46.2
4.62,3.25,0.0,1.75,4.75,0.0,0.0,0.0,0.0,0.0,0.0,0.0,0.25,0.25,-0.73,0.64,1.7,190.72,25.1,61.9,1.5,0.0,6.0,2.0,4.5,2.0,1.25,7.25,3.25,9.25,9.5,6.25,8.0,0.14,0.08,0.95,1089.47,-1.5,-39.3
4.64,1.75,0.0,0.0,3.5,0.0,0.0,0.0,0.0,0.0,0.0,0.0,0.0,0.0,-0.8,1.27,2.2,121.77,22.6,70.2,2.0,0.25,7.25,2.5,3.5,2.75,1.25,7.0,3.5,8.5,8.5,5.25,6.75,0.14,0.08,0.95,1116.81,-3.0,-31.7
4.66,0.0,0.0,0.0,2.75,0.0,0.0,0.0,0.0,0.0,0.0,0.0,0.25,0.0,-0.55,1.02,2.7,54.95,16.5,44.5,1.75,0.5,8.25,3.25,4.5,2.25,1.75,6.5,3.25,7.75,7.75,4.0,6.0,0.14,0.08,0.95,1096.01,-4.3,-23.4
4.68,0.0,0.0,0.0,0.0,0.0,0.0,0.0,0.0,0.0,0.0,0.0,0.0,0.0,-0.86,0.27,2.39,0.0,0.0,0.0,2.25,0.75,8.5,3.5,4.5,2.75,1.75,6.25,2.75,6.5,7.0,3.0,5.0,0.14,0.08,0.95,1034.74,-5.2,-15.1
