time,left pressure 0[N/cm虏],left pressure 1[N/cm虏],left pressure 2[N/cm虏],left pressure 3[N/cm虏],left pressure 4[N/cm虏],left pressure 5[N/cm虏],left pressure 6[N/cm虏],left pressure 7[N/cm虏],left pressure 8[N/cm虏],left pressure 9[N/cm虏],left pressure 10[N/cm虏],left pressure 11[N/cm虏],left pressure 12[N/cm虏],left acceleration X[g],left acceleration Y[g],left acceleration Z[g],left total force[N],left center of pressure X[mm],left center of pressure Y[mm],right pressure 0[N/cm虏],right pressure 1[N/cm虏],right pressure 2[N/cm虏],right pressure 3[N/cm虏],right pressure 4[N/cm虏],right pressure 5[N/cm虏],right pressure 6[N/cm虏],right pressure 7[N/cm虏],right pressure 8[N/cm虏],right pressure 9[N/cm虏],right pressure 10[N/cm虏],right pressure 11[N/cm虏],right pressure 12[N/cm虏],right acceleration X[g],right acceleration Y[g],right acceleration Z[g],right total force[N],right center of pressure X[mm],right center of pressure Y[mm]
0.02,0.25,0.0,3.75,3.5,0.0,0.5,0.25,4.75,2.5,3.0,0.0,2.0,2.0,-0.11,0.08,0.95,297.61,4.6,-20.3,0.75,0.0,4.75,3.25,3.5,0.5,1.0,2.75,1.25,3.5,1.5,1.0,1.0,0.08,0.14,0.95,339.01,-7.4,2.3
0.04,0.25,0.0,3.75,3.75,0.0,0.5,0.25,4.75,2.25,3.0,0.0,2.0,1.75,-0.11,0.08,0.95,290.0,4.9,-18.2,0.75,0.0,5.0,3.25,4.25,0.5,1.25,2.75,1.25,3.5,1.5,1.0,1.0,0.08,0.14,0.95,342.59,-7.5,4.7
0.06,0.5,0.0,3.75,3.5,0.0,0.5,0.25,4.75,2.5,3.0,0.0,2.0,2.0,-0.11,0.08,0.95,286.95,4.9,-19.1,0.75,0.0,4.0,3.0,4.25,0.5,1.0,2.75,1.25,3.5,1.5,1.0,1.0,0.08,0.14,0.95,336.73,-6.0,1.7
0.08,0.0,0.0,3.75,3.5,0.0,0.5,0.25,4.75,2.25,3.0,0.0,2.0,2.25,-0.11,0.08,0.95,284.24,4.0,-22.4,0.75,0.0,4.75,3.0,4.25,0.5,1.0,2.0,1.25,3.5,1.5,1.0,1.0,0.08,0.14,0.95,332.82,-7.7,4.8
0.1,0.25,0.0,3.75,3.5,0.0,0.25,0.25,4.75,2.5,3.0,0.0,2.0,2.25,-0.11,0.08,0.95,284.52,4.7,-21.9,0.75,0.0,4.75,3.25,4.75,0.5,1.0,2.75,1.25,3.5,2.0,1.0,1.0,0.08,0.14,0.95,338.08,-6.9,3.7
0.12,0.0,0.0,3.75,4.25,0.0,0.5,0.25,4.75,2.25,3.0,0.0,2.0,2.25,-0.11,0.08,0.95,286.52,4.4,-19.7,0.75,0.0,4.5,3.25,4.25,0.5,1.0,2.75,1.25,3.5,1.0,1.0,1.25,0.08,0.14,0.95,338.21,-6.4,3.8
0.14,0.0,0.0,3.75,3.5,0.0,0.5,0.25,4.75,2.5,2.75,0.0,2.25,2.25,-0.11,0.08,0.95,286.1,4.3,-22.9,0.75,0.0,4.75,3.25,4.5,0.5,1.0,2.5,1.25,3.5,1.5,1.0,1.5,0.08,0.14,0.95,342.98,-6.7,2.8
0.16,0.25,0.0,3.5,3.5,0.0,0.5,0.25,4.5,2.5,3.0,0.0,2.5,2.25,-0.11,0.08,0.95,286.41,4.3,-24.0,0.75,0.25,4.25,3.25,4.75,0.5,1.0,2.75,1.5,3.5,1.75,1.0,1.0,0.08,0.14,0.95,345.86,-6.3,3.8
0.18,0.0,0.0,3.75,3.5,0.0,0.5,0.25,4.5,2.25,3.0,0.0,2.0,2.25,-0.11,0.08,0.95,284.12,4.2,-22.2,0.75,0.0,4.0,3.0,4.5,0.5,1.0,2.5,1.25,3.5,1.5,1.0,1.0,0.08,0.14,0.95,341.89,-6.1,2.7
0.2,0.0,0.0,3.75,3.5,0.0,0.5,0.25,4.5,2.5,3.0,0.0,2.0,2.25,-0.11,0.08,0.95,283.84,4.3,-22.4,0.75,0.0,4.5,3.0,4.25,0.5,1.0,3.0,1.5,3.5,1.75,1.0,1.0,0.08,0.14,0.95,340.54,-6.5,1.4
0.22,0.25,0.0,4.0,3.5,0.0,0.5,0.25,4.75,2.5,3.0,0.0,2.0,2.25,-0.11,0.08,0.95,286.89,4.8,-20.4,0.75,0.25,4.5,3.0,3.5,0.5,1.0,2.75,1.25,3.75,1.75,1.0,1.0,0.08,0.14,0.95,335.38,-6.8,0.6
0.24,0.0,0.0,3.75,3.5,0.0,0.5,0.25,4.75,2.5,3.0,0.0,2.25,2.25,-0.11,0.08,0.95,289.58,4.1,-23.5,0.75,0.0,4.25,3.25,3.75,0.5,1.0,2.75,1.25,3.5,1.5,1.0,1.0,0.08,0.14,0.95,331.17,-6.6,1.7
0.26,0.0,0.0,3.75,3.5,0.0,0.5,0.25,4.5,2.5,3.0,0.25,2.0,2.25,-0.11,0.08,0.95,290.01,4.4,-22.9,0.75,0.0,4.75,3.25,4.5,0.5,0.75,2.75,1.25,3.5,1.5,1.0,1.25,0.08,0.14,0.95,333.91,-6.6,3.4
0.28,0.0,0.0,3.75,3.5,0.0,0.5,0.25,4.75,2.25,3.0,0.0,2.0,2.25,-0.11,0.08,0.95,288.74,4.0,-22.4,0.75,0.0,4.25,3.0,4.5,0.5,0.75,2.75,1.5,3.5,1.5,1.0,1.5,0.08,0.14,0.95,336.07,-5.7,0.2
0.3,0.0,0.0,3.5,3.5,0.0,0.5,0.5,4.5,2.25,3.0,0.0,2.0,2.0,-0.11,0.08,0.95,285.14,4.2,-21.9,0.75,0.0,4.25,3.25,5.25,0.5,1.0,2.75,1.25,3.5,1.75,1.0,1.0,0.08,0.14,0.95,343.49,-6.0,4.4
0.32,0.5,0.0,3.75,3.5,0.0,0.5,0.25,4.5,2.5,3.0,0.0,2.0,2.0,-0.11,0.08,0.95,285.34,5.1,-18.9,0.75,0.25,3.75,3.0,4.25,0.5,0.75,2.5,1.5,4.25,1.5,1.0,1.0,0.08,0.14,0.95,340.56,-5.2,-0.2
0.34,0.5,0.0,3.75,3.5,0.0,0.5,0.25,4.5,2.25,3.0,0.0,2.0,2.25,-0.11,0.08,0.95,285.9,4.8,-19.7,0.75,0.0,4.0,3.25,4.5,0.5,1.0,2.25,1.25,3.5,1.75,1.0,1.25,0.08,0.14,0.95,337.86,-6.3,1.8
0.36,0.0,0.0,3.5,3.5,0.0,0.5,0.25,4.5,2.25,3.0,0.25,2.0,2.25,-0.11,0.08,0.95,285.44,3.9,-23.7,0.75,0.0,4.5,3.0,4.5,0.5,1.0,2.5,1.5,3.5,1.0,1.0,1.25,0.08,0.14,0.95,334.76,-6.5,3.9
0.38,0.0,0.0,3.75,3.5,0.0,0.5,0.25,4.5,2.5,3.0,0.0,2.0,2.25,-0.11,0.08,0.95,285.71,4.3,-22.4,0.75,0.0,4.25,3.25,4.5,0.5,1.0,2.75,1.25,3.75,2.0,1.0,1.0,0.08,0.14,0.95,336.94,-6.2,1.3
0.4,0.0,0.0,3.75,4.0,0.0,0.25,0.25,4.5,2.25,3.0,0.0,2.0,2.25,-0.11,0.08,0.95,285.81,4.8,-20.9,0.75,0.0,4.0,3.25,4.5,0.5,1.25,2.75,1.5,3.5,2.0,1.0,1.75,0.08,0.14,0.95,342.66,-5.7,-1.9
0.42,0.25,0.0,3.75,3.5,0.0,0.5,0.25,4.5,2.25,3.0,0.0,2.0,1.75,-0.11,0.08,0.95,284.49,5.0,-18.8,0.75,0.0,3.5,3.25,4.25,0.5,1.25,2.75,1.5,4.0,1.5,1.0,1.0,0.08,0.14,0.95,342.39,-5.2,-0.6
0.44,0.0,0.0,3.75,3.5,0.0,0.5,0.25,4.5,2.25,3.0,0.0,2.0,2.25,-0.11,0.08,0.95,283.43,4.2,-22.2,0.75,0.0,4.25,3.0,3.75,0.5,1.0,2.75,1.5,4.25,1.75,1.0,1.0,0.08,0.14,0.95,340.19,-6.0,-2.1
0.46,0.0,0.0,3.75,3.5,0.0,0.5,0.25,4.5,2.25,3.0,0.0,2.0,2.25,-0.11,0.08,0.95,282.82,4.2,-22.2,0.75,0.0,3.75,3.25,4.5,0.5,0.5,2.75,1.5,3.5,1.5,1.0,1.0,0.08,0.14,0.95,335.08,-5.4,1.6
0.48,0.0,0.0,3.75,3.5,0.0,0.5,0.25,4.5,2.5,3.0,0.0,2.25,2.25,-0.11,0.08,0.95,284.6,4.3,-23.3,0.75,0.0,4.0,3.25,4.5,0.5,1.0,2.75,1.25,4.0,1.75,1.0,1.0,0.08,0.14,0.95,335.48,-5.6,0.6
0.5,0.25,0.0,3.5,4.0,0.0,0.5,0.25,4.5,2.5,3.0,0.0,2.0,2.25,-0.11,0.08,0.95,287.4,4.5,-20.2,0.75,0.0,4.5,3.0,3.75,0.5,0.75,3.25,1.5,4.0,1.5,1.0,1.25,0.08,0.14,0.95,335.44,-5.7,-2.0
0.52,0.0,0.0,3.5,3.5,0.0,0.5,0.25,4.5,2.5,3.0,0.0,2.0,2.25,-0.11,0.08,0.95,287.21,3.9,-23.3,0.75,0.0,4.0,3.25,4.5,0.5,1.0,2.75,1.5,4.0,1.0,1.0,1.0,0.08,0.14,0.95,337.16,-5.5,2.4
0.54,0.0,0.0,3.75,3.5,0.0,0.5,0.25,4.5,2.5,3.0,0.0,2.0,2.25,-0.11,0.08,0.95,287.2,4.3,-22.4,0.75,0.0,4.25,3.0,4.5,0.5,1.0,2.75,1.5,4.0,1.5,1.0,1.25,0.08,0.14,0.95,339.78,-5.6,0.0
0.56,0.0,0.0,3.75,3.5,0.0,0.5,0.25,4.5,2.25,3.0,0.0,2.0,2.25,-0.11,0.08,0.95,285.18,4.2,-22.2,0.75,0.0,4.5,3.25,4.5,0.5,1.0,2.75,1.5,4.0,1.5,1.0,1.25,0.08,0.14,0.95,345.24,-6.1,1.1
0.58,0.0,0.0,3.75,3.5,0.0,0.5,0.25,4.5,2.5,3.0,0.0,2.0,2.25,-0.11,0.08,0.95,285.35,4.3,-22.4,0.75,0.25,4.5,3.0,4.5,0.5,1.0,2.75,1.5,3.75,1.75,1.0,1.75,0.08,0.14,0.95,351.08,-5.9,-0.5
0.6,0.5,0.0,3.75,3.5,0.0,0.5,0.25,4.5,2.5,3.0,0.0,2.25,2.25,-0.11,0.08,0.95,288.15,5.0,-20.9,0.75,0.0,4.5,3.25,4.5,0.5,1.0,2.75,1.5,4.0,1.75,1.0,1.0,0.08,0.14,0.95,353.71,-6.3,1.4
0.62,0.0,0.0,3.75,3.5,0.0,0.5,0.25,4.5,2.25,3.0,0.0,2.0,2.25,-0.11,0.08,0.95,287.62,4.2,-22.2,0.75,0.25,4.0,3.0,3.75,0.5,0.75,2.75,1.5,4.0,1.5,1.0,1.25,0.08,0.14,0.95,347.7,-5.5,-1.6
0.64,0.5,0.0,3.5,3.5,0.0,0.5,0.25,4.5,2.5,3.0,0.0,2.0,2.25,-0.11,0.08,0.95,288.63,4.5,-20.8,0.75,0.0,4.25,3.0,4.25,0.5,1.0,2.75,1.5,3.75,1.5,1.0,1.25,0.08,0.14,0.95,343.3,-5.9,0.1
0.66,0.0,0.0,3.5,3.5,0.0,0.5,0.25,4.5,2.25,2.75,0.0,2.25,2.25,-0.11,0.08,0.95,285.78,4.1,-23.6,0.75,0.25,4.25,3.25,4.5,0.5,0.75,2.75,1.5,4.25,1.25,1.0,1.25,0.08,0.14,0.95,344.21,-5.4,1.3
0.68,0.0,0.0,3.75,3.75,0.0,0.5,0.25,4.5,2.25,3.0,0.0,2.0,2.25,-0.11,0.08,0.95,285.62,4.4,-21.3,0.75,0.0,4.25,3.25,4.5,0.5,0.75,2.75,1.5,4.25,2.0,1.0,1.5,0.08,0.14,0.95,349.15,-5.3,-2.6
0.7,0.0,0.0,3.75,3.5,0.0,0.5,0.25,4.5,2.5,3.0,0.0,2.0,2.25,-0.11,0.08,0.95,284.78,4.3,-22.4,0.75,0.25,4.0,3.25,4.25,0.5,1.25,2.75,1.5,4.0,1.75,1.0,1.0,0.08,0.14,0.95,350.45,-5.9,0.8
0.72,0.0,0.0,3.75,3.75,0.0,0.5,0.25,4.5,2.25,3.0,0.0,2.0,2.25,-0.11,0.08,0.95,285.61,4.4,-21.3,0.75,0.25,4.5,3.25,4.25,0.5,0.75,3.0,1.5,3.75,1.5,1.0,1.0,0.08,0.14,0.95,350.87,-6.3,2.8
0.74,0.25,0.0,3.75,3.5,0.0,0.5,0.25,4.5,2.5,3.0,0.0,2.0,2.0,-0.11,0.08,0.95,286.06,4.8,-20.1,0.75,0.0,4.5,3.25,4.5,0.5,1.0,2.75,1.5,4.0,1.75,1.0,1.25,0.08,0.14,0.95,352.01,-6.1,0.4
0.76,0.25,0.0,3.75,4.0,0.0,0.25,0.25,4.5,2.25,3.0,0.0,2.0,2.0,-0.11,0.08,0.95,287.18,5.3,-18.7,0.75,0.25,4.5,3.25,4.5,0.5,1.0,2.75,1.5,3.5,1.0,1.0,1.0,0.08,0.14,0.95,348.55,-6.6,6.1
0.78,0.0,0.0,3.5,3.5,0.0,0.5,0.25,4.5,2.25,3.0,0.0,2.0,2.25,-0.11,0.08,0.95,284.99,3.8,-23.2,0.75,0.0,4.5,3.25,4.5,0.5,0.75,2.75,1.5,3.75,1.75,1.0,1.25,0.08,0.14,0.95,348.29,-6.2,1.0
0.8,0.0,0.0,3.5,3.5,0.0,0.5,0.25,4.5,2.25,3.0,0.0,2.0,2.0,-0.11,0.08,0.95,282.26,4.0,-22.1,0.75,0.25,4.5,3.25,4.5,0.5,1.0,2.75,1.5,4.0,1.5,1.0,1.25,0.08,0.14,0.95,350.32,-6.1,2.0
0.82,0.25,0.0,3.75,3.75,0.0,0.5,0.25,4.5,2.25,3.0,0.0,2.0,2.25,-0.11,0.08,0.95,283.33,4.7,-20.0,0.75,0.0,4.5,3.25,4.5,0.5,1.0,2.75,1.5,3.5,1.75,1.0,1.0,0.08,0.14,0.95,350.22,-6.7,2.9
0.84,0.0,0.0,3.75,3.5,0.0,0.25,0.25,4.25,2.25,3.0,0.0,2.0,2.0,-0.11,0.08,0.95,280.68,5.0,-21.6,0.75,0.25,4.25,3.25,4.25,0.5,1.25,2.75,1.5,4.25,1.5,1.0,1.0,0.08,0.14,0.95,350.9,-6.0,1.3
0.86,0.0,0.0,3.75,3.5,0.0,0.5,0.25,4.25,2.25,3.0,0.0,2.0,2.25,-0.11,0.08,0.95,281.07,4.5,-22.0,0.75,0.0,4.5,3.25,4.5,0.5,1.0,3.0,1.5,3.75,1.75,1.0,1.0,0.08,0.14,0.95,351.89,-6.3,1.8
0.88,0.5,0.0,3.5,3.5,0.0,0.5,0.25,4.25,2.25,3.0,0.0,2.0,2.0,-0.11,0.08,0.95,280.23,4.9,-19.4,0.75,0.25,4.5,3.25,4.25,0.5,1.0,2.75,1.5,4.0,1.5,1.0,1.25,0.08,0.14,0.95,351.53,-6.2,1.4
0.9,0.0,0.0,3.75,3.75,0.0,0.25,0.25,4.5,2.25,3.0,0.0,2.0,2.25,-0.11,0.08,0.95,281.7,4.7,-21.8,0.75,0.25,4.75,3.25,4.5,0.5,1.0,2.75,1.5,3.75,0.25,1.0,1.0,0.08,0.14,0.95,346.98,-6.6,8.1
0.92,0.0,0.0,3.5,3.5,0.0,0.25,0.25,4.25,2.25,3.0,0.0,2.0,2.0,-0.11,0.08,0.95,278.28,4.6,-22.6,0.75,0.0,4.75,3.25,4.5,0.5,1.0,2.75,1.5,4.0,1.75,1.0,1.25,0.08,0.14,0.95,350.26,-6.4,1.0
0.94,0.0,0.0,3.75,3.5,0.0,0.5,0.25,4.0,2.25,3.0,0.0,2.0,2.25,-0.11,0.08,0.95,277.95,4.7,-21.8,0.75,0.25,4.75,3.25,4.5,0.5,1.0,2.75,1.5,4.5,1.5,1.0,1.75,0.08,0.14,0.95,357.75,-5.7,-0.8
0.96,0.0,0.0,3.75,3.75,0.0,0.5,0.25,4.25,2.25,3.0,0.0,2.0,2.0,-0.11,0.08,0.95,278.2,4.8,-20.0,0.75,0.0,4.75,3.25,4.75,0.5,1.0,2.0,1.5,3.5,1.5,1.0,0.5,0.08,0.14,0.95,353.21,-8.0,8.3
0.98,0.75,0.0,3.75,3.5,0.0,0.25,0.25,4.25,2.25,3.0,0.0,2.0,1.75,-0.11,0.08,0.95,279.74,6.2,-16.7,0.75,0.25,4.5,3.25,4.5,0.5,1.0,2.75,1.5,4.0,1.75,1.0,1.0,0.08,0.14,0.95,354.34,-6.3,2.4
1.0,0.0,0.0,3.75,3.25,0.0,0.5,0.25,4.0,2.25,2.75,0.0,2.0,1.75,-0.11,0.08,0.95,276.49,5.2,-20.0,0.75,0.0,4.75,3.25,4.5,0.5,1.25,2.75,1.5,3.5,1.75,1.0,1.25,0.08,0.14,0.95,353.38,-6.9,2.5
1.02,0.0,0.0,3.75,3.5,0.0,0.5,0.25,4.0,2.25,3.0,0.0,2.0,1.75,-0.11,0.08,0.95,275.38,5.1,-19.7,0.75,0.25,5.0,3.25,3.75,0.5,1.0,2.75,1.5,3.75,1.5,1.0,1.0,0.08,0.14,0.95,350.74,-7.5,3.3
1.04,0.0,0.0,3.75,3.5,0.0,0.25,0.25,4.0,2.25,3.0,0.0,2.0,2.0,-0.11,0.08,0.95,273.15,5.2,-21.4,0.75,0.25,4.75,3.25,4.5,0.5,1.0,2.75,1.5,4.0,2.0,1.0,1.0,0.08,0.14,0.95,353.56,-6.7,2.2
1.06,0.0,0.0,3.75,3.5,0.0,0.5,0.25,3.75,1.75,2.5,0.0,2.25,1.5,-0.11,0.08,0.95,268.24,6.1,-17.5,0.75,0.0,5.0,3.25,4.5,0.5,1.0,2.75,1.5,3.75,1.75,1.0,1.25,0.08,0.14,0.95,357.07,-6.9,2.2
1.08,0.5,0.0,3.75,3.0,0.0,0.5,0.25,4.0,2.25,3.0,0.0,2.0,1.75,-0.11,0.08,0.95,268.89,5.5,-19.0,0.75,0.25,4.75,3.25,4.5,0.5,1.0,2.75,1.5,4.0,1.75,1.0,1.75,0.08,0.14,0.95,362.4,-6.1,-0.1
1.1,0.0,0.0,3.75,3.75,0.0,0.5,0.25,4.0,2.25,2.75,0.0,2.0,2.0,-0.11,0.08,0.95,270.5,5.3,-19.2,0.75,0.25,4.75,3.25,4.5,0.5,1.0,3.0,1.5,4.0,1.5,1.0,0.75,0.08,0.14,0.95,361.93,-6.6,4.3
1.12,0.25,0.0,3.75,3.75,0.0,0.25,0.25,3.75,1.75,2.75,0.0,2.0,2.0,-0.11,0.08,0.95,270.88,6.1,-17.7,0.75,0.25,4.75,3.25,5.0,0.5,1.25,2.75,1.5,4.25,1.75,1.0,1.0,0.08,0.14,0.95,367.36,-6.4,3.4
1.14,0.0,0.0,3.75,3.5,0.0,0.5,0.25,3.75,2.25,2.75,0.0,2.0,1.75,-0.11,0.08,0.95,270.28,5.7,-18.8,0.75,0.0,4.0,3.25,4.75,0.5,1.0,3.0,1.5,4.0,1.75,1.0,1.0,0.08,0.14,0.95,362.85,-5.4,0.5
1.16,0.0,0.0,3.75,2.75,0.0,0.5,0.25,3.75,2.0,2.75,0.0,2.0,2.0,-0.11,0.08,0.95,266.52,4.9,-22.7,0.75,0.25,4.5,3.25,4.5,0.5,1.0,3.0,1.5,4.0,1.75,1.0,1.0,0.08,0.14,0.95,361.38,-6.1,2.0
1.18,0.25,0.0,3.75,3.5,0.0,0.5,0.25,4.0,2.0,3.0,0.0,2.0,1.75,-0.11,0.08,0.95,267.38,5.4,-18.1,0.75,0.25,4.75,3.25,3.75,0.5,1.0,2.75,1.5,4.25,1.75,1.0,1.25,0.08,0.14,0.95,357.32,-6.6,-0.4
1.2,0.0,0.0,3.75,3.25,0.0,0.5,0.25,4.0,2.0,2.5,0.0,2.25,2.0,-0.11,0.08,0.95,266.69,5.2,-21.3,0.75,0.5,4.75,3.25,4.75,0.5,1.25,3.0,1.5,4.25,1.5,1.0,1.0,0.08,0.14,0.95,363.48,-6.3,4.0
1.22,0.0,0.0,3.75,3.5,0.0,0.5,0.25,3.75,2.0,2.75,0.0,2.0,1.75,-0.11,0.08,0.95,267.77,5.6,-18.5,0.75,0.25,4.5,3.25,4.5,0.5,1.0,2.75,1.5,4.5,1.75,1.0,1.25,0.08,0.14,0.95,363.57,-5.8,0.0
1.24,0.0,0.0,3.75,3.5,0.0,0.25,0.25,3.75,2.25,3.0,0.0,2.0,1.75,-0.11,0.08,0.95,268.35,5.7,-20.1,0.75,0.25,4.75,3.25,4.5,0.5,1.0,3.0,1.5,4.25,1.75,1.0,1.25,0.08,0.14,0.95,367.59,-6.1,0.8
1.26,0.25,0.0,3.75,3.5,0.0,0.25,0.25,3.75,1.75,2.75,0.0,2.0,2.0,-0.11,0.08,0.95,267.76,5.9,-18.7,0.75,0.5,4.75,3.25,4.5,0.5,1.0,2.75,1.5,4.25,1.5,1.0,1.25,0.08,0.14,0.95,368.01,-6.3,2.7
1.28,0.0,0.0,3.75,3.5,0.0,0.25,0.25,3.75,2.25,2.5,0.0,2.25,1.75,-0.11,0.08,0.95,267.06,6.3,-19.8,0.75,0.5,4.75,3.25,4.5,0.5,1.0,2.75,1.5,4.0,2.0,1.0,1.5,0.08,0.14,0.95,369.52,-6.4,1.1
1.3,0.0,0.0,3.75,3.5,0.0,0.5,0.25,3.75,2.25,2.75,0.0,2.0,1.75,-0.11,0.08,0.95,267.71,5.7,-18.8,0.75,0.0,4.25,3.25,3.5,0.5,1.0,2.75,1.5,4.5,1.75,1.0,1.0,0.08,0.14,0.95,358.85,-6.0,-2.9
1.32,0.0,0.0,3.75,3.5,0.0,0.75,0.25,3.75,2.0,3.0,0.0,2.0,2.25,-0.11,0.08,0.95,270.44,4.6,-20.8,0.75,0.0,4.5,3.25,3.75,0.5,1.25,2.75,1.5,4.5,1.75,1.0,1.25,0.08,0.14,0.95,353.53,-6.1,-2.5
1.34,0.0,0.0,3.75,3.5,0.0,0.5,0.25,3.75,2.25,2.5,0.0,2.0,1.75,-0.11,0.08,0.95,270.25,5.9,-18.1,0.75,0.25,3.5,3.25,4.25,0.5,0.5,3.0,1.5,4.75,1.75,1.0,1.25,0.08,0.14,0.95,347.94,-4.0,-4.2
1.36,0.0,0.0,3.75,3.5,0.0,0.5,0.25,3.75,2.0,2.75,0.0,2.25,1.75,-0.11,0.08,0.95,270.94,5.6,-19.6,0.75,0.0,4.75,3.25,4.5,0.5,1.0,2.75,1.5,4.75,1.75,1.0,1.25,0.08,0.14,0.95,352.59,-5.8,-1.0
1.38,0.0,0.0,3.75,3.5,0.0,0.0,0.25,3.75,2.0,3.0,0.0,2.0,2.0,-0.11,0.08,0.95,269.19,5.7,-21.6,0.75,0.0,4.25,3.25,4.75,0.5,1.0,3.25,1.5,4.75,1.25,1.0,1.25,0.08,0.14,0.95,357.27,-4.6,-0.9
1.4,0.0,0.0,3.75,3.5,0.0,0.5,0.25,4.0,2.0,2.5,0.0,2.0,2.0,-0.11,0.08,0.95,269.17,5.3,-19.2,0.75,0.0,4.0,3.25,4.5,0.5,1.0,3.0,1.5,4.25,0.75,1.0,1.0,0.08,0.14,0.95,353.26,-5.0,2.0
1.42,0.0,0.0,3.5,3.5,0.0,0.25,0.25,3.75,2.0,2.75,0.0,2.0,2.0,-0.11,0.08,0.95,266.34,5.3,-21.3,1.0,0.0,4.25,3.25,4.5,0.5,1.0,2.75,1.5,4.5,1.5,1.0,1.25,0.08,0.14,0.95,353.03,-5.6,0.0
1.44,0.0,0.0,3.5,3.75,0.0,0.0,0.25,3.75,2.25,3.0,0.0,2.0,2.0,-0.11,0.08,0.95,267.37,5.6,-21.8,0.75,0.25,4.0,3.25,4.25,0.5,1.0,2.75,1.5,4.75,1.75,1.0,1.0,0.08,0.14,0.95,349.88,-5.2,-1.4
1.46,0.0,0.0,3.75,3.5,0.0,0.25,0.25,3.75,2.0,2.75,0.0,2.25,2.0,-0.11,0.08,0.95,267.57,5.7,-21.4,0.75,0.25,3.75,3.25,3.25,0.5,1.0,3.0,1.5,4.75,1.75,1.0,1.25,0.08,0.14,0.95,345.76,-4.9,-5.8
1.48,0.0,0.0,3.75,3.5,0.0,0.25,0.25,3.75,2.25,3.0,0.0,2.0,2.0,-0.11,0.08,0.95,269.17,5.5,-21.2,0.75,0.0,3.25,3.25,4.25,0.5,1.25,2.75,1.5,4.5,1.75,1.0,1.0,0.08,0.14,0.95,340.34,-4.5,-3.4
1.5,0.0,0.0,3.75,3.5,0.0,0.5,0.25,3.75,2.25,3.0,0.0,2.25,2.25,-0.11,0.08,0.95,272.84,5.0,-22.6,0.75,0.0,4.0,3.25,3.75,0.5,0.75,3.0,1.5,4.5,1.75,1.0,1.25,0.08,0.14,0.95,338.86,-5.0,-4.4
1.52,0.0,0.0,3.75,3.5,0.0,0.5,0.25,3.75,2.25,2.75,0.0,2.0,2.25,-0.11,0.08,0.95,274.56,5.2,-21.0,0.75,0.0,4.0,3.25,4.5,0.5,1.0,2.75,1.5,4.5,1.75,1.0,1.25,0.08,0.14,0.95,341.94,-5.1,-2.1
1.54,0.0,0.0,3.5,3.5,0.0,0.5,0.25,3.75,2.25,2.75,0.0,2.25,2.25,-0.11,0.08,0.95,275.16,4.8,-23.0,0.75,0.0,4.0,3.25,4.5,0.5,1.0,3.0,1.5,4.5,1.5,1.0,1.25,0.08,0.14,0.95,346.87,-4.8,-1.7
1.56,0.0,0.0,3.75,3.5,0.0,0.25,0.25,3.75,2.0,3.0,0.0,1.75,2.25,-0.11,0.08,0.95,273.36,5.1,-21.0,0.75,0.0,3.75,3.0,4.5,0.5,1.0,3.0,1.5,4.75,1.75,1.0,1.25,0.08,0.14,0.95,349.44,-4.3,-4.3
1.58,0.0,0.0,3.5,3.5,0.0,0.5,0.25,3.75,2.25,3.25,0.0,2.0,2.25,-0.11,0.08,0.95,274.53,4.3,-23.2,0.75,0.0,4.0,3.25,4.5,0.5,1.0,2.75,1.5,4.5,1.75,1.0,1.5,0.08,0.14,0.95,352.13,-4.9,-3.1
1.6,0.0,0.0,3.5,3.5,0.0,0.5,0.25,3.75,2.5,2.75,0.0,2.0,2.25,-0.11,0.08,0.95,274.18,4.9,-22.2,0.75,0.0,3.75,3.25,4.5,0.5,1.0,2.75,1.5,4.5,1.75,1.0,0.75,0.08,0.14,0.95,349.19,-5.1,-0.6
1.62,0.0,0.0,3.75,3.5,0.0,0.5,0.25,3.75,2.25,2.75,0.0,2.25,2.25,-0.11,0.08,0.95,275.79,5.2,-22.0,0.75,0.25,3.75,3.0,4.25,0.5,0.75,2.75,1.5,4.25,1.75,1.0,1.0,0.08,0.14,0.95,345.45,-5.1,-1.3
1.64,0.0,0.0,3.5,3.5,0.0,0.5,0.25,4.0,2.5,2.75,0.0,2.25,2.25,-0.11,0.08,0.95,277.18,4.7,-23.4,0.75,0.0,3.5,3.25,4.5,0.5,1.0,3.0,1.5,4.5,1.75,1.0,1.0,0.08,0.14,0.95,344.49,-4.4,-2.6
1.66,0.0,0.0,3.75,3.5,0.0,0.5,0.25,4.0,2.25,3.0,0.25,2.0,2.25,-0.11,0.08,0.95,279.65,4.8,-22.4,0.75,0.0,4.0,3.25,4.5,0.5,1.25,3.0,1.5,4.5,1.75,1.0,1.25,0.08,0.14,0.95,347.64,-5.0,-2.3
1.68,0.0,0.0,3.75,3.5,0.0,0.5,0.25,4.0,2.25,3.5,0.0,2.0,2.25,-0.11,0.08,0.95,281.69,4.2,-23.0,0.75,0.0,3.5,3.25,4.25,0.5,1.0,2.75,1.5,4.5,1.5,1.0,1.25,0.08,0.14,0.95,346.11,-4.5,-3.2
1.7,0.0,0.0,3.5,3.5,0.0,0.5,0.25,4.0,2.25,3.0,0.25,2.25,2.25,-0.11,0.08,0.95,282.44,4.4,-24.4,0.75,0.25,3.0,3.0,4.25,0.5,1.0,2.75,1.5,4.5,1.25,1.0,1.5,0.08,0.14,0.95,342.1,-3.5,-4.5
1.72,0.0,0.0,3.75,3.5,0.0,0.5,0.25,4.0,2.5,3.0,0.25,2.25,2.25,-0.11,0.08,0.95,284.31,4.9,-23.6,0.75,0.0,3.75,3.25,4.25,0.5,1.0,2.75,1.5,4.75,1.75,1.0,1.25,0.08,0.14,0.95,341.64,-4.7,-4.0
1.74,0.0,0.0,3.5,3.5,0.0,0.5,0.25,3.75,2.25,3.25,0.25,2.0,2.25,-0.11,0.08,0.95,282.85,4.4,-23.8,0.75,0.0,3.0,3.25,4.5,0.5,1.0,2.75,1.5,4.75,2.25,1.0,1.5,0.08,0.14,0.95,342.42,-3.5,-7.5
1.76,0.0,0.0,3.5,3.5,0.0,0.5,0.25,4.0,2.5,3.0,0.25,2.25,2.25,-0.11,0.08,0.95,283.62,4.5,-24.5,0.75,0.0,3.25,3.25,5.0,0.5,1.0,2.75,1.5,4.5,1.75,1.0,1.0,0.08,0.14,0.95,344.14,-4.1,-1.6
1.78,0.0,0.0,3.5,3.5,0.0,0.5,0.25,4.0,2.5,3.0,0.25,2.0,2.25,-0.11,0.08,0.95,282.69,4.5,-23.6,0.75,0.0,3.75,3.25,4.5,0.5,1.0,2.5,1.5,4.25,1.75,1.0,1.0,0.08,0.14,0.95,343.84,-5.3,-0.6
1.8,0.0,0.0,3.5,3.5,0.0,0.25,0.25,4.25,2.5,3.0,0.25,2.25,2.25,-0.11,0.08,0.95,283.23,4.6,-25.3,0.75,0.0,3.0,3.25,4.5,0.5,0.75,2.75,1.5,4.5,1.75,1.0,1.25,0.08,0.14,0.95,341.46,-3.6,-4.7
1.82,0.0,0.0,3.75,3.5,0.0,0.5,0.25,4.25,2.25,3.0,0.25,2.25,2.25,-0.11,0.08,0.95,283.94,4.6,-23.6,0.75,0.25,3.25,3.25,4.25,0.5,0.75,2.75,1.5,4.5,2.0,1.0,1.25,0.08,0.14,0.95,340.22,-4.2,-4.3
1.84,0.0,0.0,3.5,3.5,0.0,0.5,0.25,4.25,2.5,2.75,0.25,2.5,2.25,-0.11,0.08,0.95,285.1,4.5,-25.1,0.75,0.25,3.0,3.25,4.5,0.5,1.0,2.75,1.5,4.75,1.5,1.0,1.0,0.08,0.14,0.95,339.42,-3.8,-2.5
1.86,0.0,0.0,3.75,3.5,0.0,0.5,0.25,4.25,2.5,3.0,0.25,2.25,2.25,-0.11,0.08,0.95,286.63,4.7,-23.7,0.75,0.0,2.75,3.0,4.5,0.5,1.25,2.75,1.5,4.5,1.5,1.0,1.25,0.08,0.14,0.95,335.84,-3.4,-5.0
1.88,0.0,0.0,3.5,3.5,0.0,0.5,0.25,4.25,2.5,3.0,0.25,2.25,2.25,-0.11,0.08,0.95,286.65,4.3,-24.7,0.75,0.0,3.0,3.0,4.5,0.5,1.0,3.0,1.5,4.5,2.25,1.0,1.5,0.08,0.14,0.95,337.5,-3.4,-7.8
1.9,0.0,0.0,3.75,3.5,0.0,0.5,0.25,4.25,2.5,3.75,0.25,2.25,2.25,-0.11,0.08,0.95,289.92,4.0,-25.4,0.75,0.0,2.75,3.0,4.75,0.5,1.0,2.75,1.5,4.5,1.75,1.0,1.0,0.08,0.14,0.95,334.99,-3.4,-4.1
1.92,0.0,0.0,3.75,3.5,0.0,0.25,0.25,4.5,2.5,3.0,0.25,2.25,2.25,-0.11,0.08,0.95,290.11,4.7,-24.5,0.75,0.0,3.5,3.0,4.5,0.5,1.0,2.5,1.5,4.25,1.5,1.0,1.25,0.08,0.14,0.95,334.86,-4.7,-2.2
1.94,0.0,0.0,4.0,3.5,0.0,0.5,0.25,4.5,2.5,3.0,0.25,2.25,2.25,-0.11,0.08,0.95,292.56,4.8,-22.9,0.75,0.0,3.0,3.0,4.25,0.5,1.0,2.75,1.5,4.25,1.5,1.0,1.0,0.08,0.14,0.95,328.61,-4.0,-3.4
1.96,0.0,0.0,3.0,3.5,0.0,0.5,0.25,4.25,2.5,3.0,0.25,2.25,2.25,-0.11,0.08,0.95,288.56,3.5,-26.7,0.75,0.0,2.75,3.25,4.5,0.5,0.75,2.75,1.5,4.75,1.5,1.0,1.0,0.08,0.14,0.95,326.64,-3.2,-4.3
1.98,0.0,0.0,3.5,3.5,0.0,0.5,0.25,4.5,2.5,3.75,0.25,2.25,2.25,-0.11,0.08,0.95,290.71,3.4,-26.5,0.75,0.0,2.75,3.25,4.5,0.5,1.0,3.0,1.5,4.5,1.75,1.0,1.25,0.08,0.14,0.95,327.95,-3.2,-5.5
2.0,0.0,0.0,3.75,3.5,0.0,0.5,0.25,4.5,2.5,3.0,0.25,2.75,2.25,-0.11,0.08,0.95,291.44,4.5,-25.7,0.75,0.0,3.5,3.0,3.5,0.5,0.75,2.75,1.5,4.5,1.75,1.0,1.0,0.08,0.14,0.95,325.92,-4.7,-5.6
2.02,0.0,0.0,3.75,3.5,0.0,0.5,0.25,4.5,2.5,3.0,0.5,2.75,2.25,-0.11,0.08,0.95,294.88,4.6,-26.2,0.75,0.0,2.75,3.0,3.75,0.5,1.0,2.75,1.5,4.25,1.75,1.0,1.0,0.08,0.14,0.95,320.91,-3.9,-6.2
2.04,0.0,0.0,3.0,3.5,0.0,0.25,0.25,4.25,2.5,3.0,0.25,2.25,2.25,-0.11,0.08,0.95,289.78,3.8,-27.4,0.75,0.0,3.5,3.0,4.5,0.5,0.75,2.5,1.5,4.5,1.75,1.0,1.25,0.08,0.14,0.95,323.56,-4.4,-3.7
2.06,0.0,0.0,3.5,3.5,0.0,0.5,0.25,4.5,2.5,3.0,0.25,2.75,2.25,-0.11,0.08,0.95,289.94,4.1,-26.7,0.75,0.0,2.75,3.0,4.25,0.5,1.0,2.0,1.5,4.5,1.75,1.0,1.0,0.08,0.14,0.95,319.19,-4.2,-4.5
2.08,0.0,0.0,3.75,3.5,0.0,0.5,0.25,4.5,2.5,3.0,0.25,3.0,2.25,-0.11,0.08,0.95,290.72,4.6,-26.6,0.75,0.0,3.0,3.0,3.5,0.5,0.75,2.75,1.5,4.25,0.25,1.0,1.0,0.08,0.14,0.95,309.96,-3.8,-1.9
2.1,0.0,0.0,3.75,3.5,0.0,0.5,0.25,4.5,2.5,3.0,0.25,3.0,2.25,-0.11,0.08,0.95,293.56,4.6,-26.6,0.75,0.0,2.75,3.0,4.25,0.5,0.75,2.75,1.5,4.5,2.5,1.0,1.5,0.08,0.14,0.95,314.78,-3.3,-9.6
2.12,0.0,0.0,3.0,3.5,0.0,0.5,0.25,4.5,2.5,3.0,0.25,3.0,2.25,-0.11,0.08,0.95,293.68,3.4,-29.6,0.75,0.0,3.0,3.0,3.75,0.5,1.0,2.75,1.5,4.25,1.75,1.0,1.0,0.08,0.14,0.95,313.68,-4.3,-5.5
2.14,0.0,0.0,3.75,3.5,0.0,0.25,0.25,4.5,2.5,3.0,0.5,2.5,2.25,-0.11,0.08,0.95,293.77,4.8,-25.9,0.75,0.0,2.75,3.0,3.5,0.5,1.25,2.75,1.5,4.75,1.75,1.0,1.0,0.08,0.14,0.95,315.79,-3.7,-8.1
2.16,0.0,0.0,3.75,3.5,0.0,0.5,0.0,4.5,2.5,3.0,0.0,3.0,2.25,-0.11,0.08,0.95,293.45,4.3,-26.4,0.75,0.0,3.5,3.0,3.0,0.5,1.0,2.5,1.5,4.5,1.75,1.0,1.25,0.08,0.14,0.95,314.13,-5.1,-7.6
2.18,0.0,0.0,3.25,3.5,0.0,0.25,0.25,4.5,2.5,3.0,0.5,3.0,2.25,-0.11,0.08,0.95,293.07,4.2,-29.7,0.75,0.0,2.75,3.0,4.5,0.5,1.0,2.5,1.5,4.5,1.75,1.0,1.25,0.08,0.14,0.95,318.97,-3.5,-5.5
2.2,0.0,0.0,3.75,3.5,0.0,0.25,0.25,4.5,2.5,3.25,0.25,2.5,2.25,-0.11,0.08,0.95,293.23,4.5,-26.0,0.75,0.0,2.75,3.0,3.25,0.5,0.75,2.5,1.5,4.75,1.5,1.0,1.5,0.08,0.14,0.95,314.05,-3.3,-10.4
2.22,0.0,0.0,3.5,3.5,0.0,0.5,0.25,4.5,2.5,3.0,0.5,2.75,2.25,-0.11,0.08,0.95,293.07,4.2,-27.2,0.75,0.0,2.75,3.0,4.5,0.5,0.75,2.75,1.5,4.5,1.75,1.0,1.0,0.08,0.14,0.95,318.25,-3.3,-5.0
2.24,0.0,0.0,4.0,3.5,0.0,0.5,0.25,4.5,2.5,3.0,0.5,3.0,2.25,-0.11,0.08,0.95,296.19,5.0,-26.2,0.75,0.0,2.75,3.0,4.5,0.5,1.0,2.75,1.5,4.75,2.0,1.0,1.25,0.08,0.14,0.95,325.21,-3.2,-7.2
2.26,0.0,0.0,3.75,3.5,0.0,0.25,0.25,4.25,2.5,3.0,0.25,3.0,2.25,-0.11,0.08,0.95,295.74,5.1,-27.1,0.75,0.0,2.75,3.0,4.75,0.5,1.0,2.75,1.5,4.5,1.75,1.0,1.25,0.08,0.14,0.95,331.41,-3.2,-5.2
2.28,0.0,0.0,4.0,3.5,0.0,0.5,0.0,4.5,2.5,3.0,0.5,3.0,2.25,-0.11,0.08,0.95,298.38,4.8,-26.4,0.75,0.0,3.0,3.0,4.5,0.5,0.75,2.75,1.5,4.5,2.0,1.0,1.25,0.08,0.14,0.95,335.05,-3.6,-6.0
2.3,0.0,0.0,3.5,3.5,0.0,0.5,0.25,4.5,2.5,3.0,0.5,3.0,2.25,-0.11,0.08,0.95,297.34,4.3,-28.1,0.75,0.0,2.75,3.0,4.5,0.5,1.0,2.75,1.5,4.75,1.75,1.0,1.25,0.08,0.14,0.95,338.3,-3.1,-6.5
2.32,0.0,0.0,3.75,3.5,0.0,0.5,0.25,4.5,2.5,3.0,0.5,3.0,2.25,-0.11,0.08,0.95,298.41,4.6,-27.1,0.75,0.0,2.75,3.0,5.0,0.5,0.75,2.75,1.5,4.75,2.0,1.0,1.25,0.08,0.14,0.95,341.66,-2.9,-6.0
2.34,0.0,0.0,3.5,3.5,0.0,0.25,0.25,4.5,2.5,3.0,0.25,3.0,2.25,-0.11,0.08,0.95,296.51,4.5,-28.2,0.75,0.0,3.25,3.0,4.25,0.5,1.0,2.75,1.5,4.5,1.75,1.0,1.25,0.08,0.14,0.95,339.24,-4.1,-5.2
2.36,0.0,0.0,3.5,3.5,0.0,0.5,0.25,4.5,2.5,3.0,0.25,2.75,2.25,-0.11,0.08,0.95,295.18,4.1,-26.7,0.75,0.0,2.75,2.75,3.5,0.5,1.25,2.75,1.5,4.75,1.5,1.0,1.25,0.08,0.14,0.95,332.53,-3.3,-9.2
2.38,0.0,0.0,3.5,3.5,0.0,0.5,0.25,4.5,2.5,3.0,0.25,3.0,2.25,-0.11,0.08,0.95,293.8,4.2,-27.6,0.75,0.0,2.75,3.0,4.5,0.5,1.0,2.75,1.5,4.5,1.75,1.0,1.0,0.08,0.14,0.95,329.33,-3.5,-4.8
2.4,0.0,0.0,4.25,3.5,0.0,0.5,0.25,4.5,2.5,3.0,0.25,3.0,2.25,-0.11,0.08,0.95,296.21,5.3,-24.7,0.75,0.0,2.75,3.0,3.5,0.5,0.75,2.75,1.5,4.75,1.75,1.0,1.25,0.08,0.14,0.95,322.38,-3.3,-9.5
2.42,0.0,0.0,3.5,3.5,0.0,0.25,0.25,4.5,2.5,3.0,0.25,3.0,2.25,-0.11,0.08,0.95,295.47,4.5,-28.2,0.75,0.0,2.75,3.0,4.5,0.5,1.0,2.75,1.5,4.5,1.0,1.0,1.0,0.08,0.14,0.95,319.73,-3.2,-2.7
2.44,0.0,0.0,3.5,3.5,0.0,0.5,0.25,4.5,2.5,3.0,0.5,3.0,2.25,-0.11,0.08,0.95,296.34,4.3,-28.1,0.75,0.0,3.0,3.0,4.25,0.5,0.75,2.75,1.5,4.25,1.75,1.0,1.5,0.08,0.14,0.95,321.07,-3.6,-6.4
2.46,0.0,0.0,3.5,3.5,0.0,0.25,0.0,4.5,2.5,3.0,0.5,3.0,2.25,-0.11,0.08,0.95,294.96,4.4,-29.0,0.75,0.0,2.75,3.0,4.5,0.5,0.75,2.75,1.5,4.75,2.5,1.0,1.5,0.08,0.14,0.95,328.07,-3.0,-9.6
2.48,0.0,0.0,3.0,3.5,0.0,0.5,0.25,4.5,2.5,3.0,0.5,3.0,2.25,-0.11,0.08,0.95,293.94,3.5,-30.0,0.75,0.0,3.25,3.0,3.5,0.5,0.75,2.75,1.5,4.75,1.75,1.0,1.0,0.08,0.14,0.95,326.43,-4.2,-7.0
2.5,0.0,0.0,3.5,3.5,0.0,0.5,0.25,4.5,2.5,3.0,0.5,3.0,2.25,-0.11,0.08,0.95,294.41,4.3,-28.1,0.75,0.0,3.0,3.0,2.75,0.5,0.75,3.0,1.5,4.25,1.75,1.0,1.0,0.08,0.14,0.95,318.45,-4.3,-8.9
2.52,0.0,0.0,3.75,3.5,0.0,0.25,0.0,4.5,2.5,3.0,0.5,3.0,2.25,-0.11,0.08,0.95,294.7,4.8,-28.0,0.75,0.0,2.75,3.0,4.5,0.5,1.0,2.75,1.5,4.75,1.75,1.0,1.0,0.08,0.14,0.95,319.02,-3.3,-5.5
2.54,0.0,0.0,3.25,3.5,0.0,0.5,0.25,4.5,2.5,3.0,0.5,3.0,2.25,-0.11,0.08,0.95,295.17,3.9,-29.0,0.75,0.0,2.75,3.0,3.25,0.5,0.75,2.75,1.5,4.75,1.75,1.0,1.0,0.08,0.14,0.95,313.19,-3.5,-9.2
2.56,0.0,0.0,4.25,3.5,0.0,0.5,0.25,4.5,2.5,3.0,0.0,3.0,2.25,-0.11,0.08,0.95,296.89,5.2,-24.2,0.75,0.0,2.75,3.0,4.25,0.5,1.0,2.75,1.5,4.25,2.0,1.0,1.0,0.08,0.14,0.95,316.1,-3.8,-5.5
2.58,0.0,0.0,3.5,3.5,0.0,0.5,0.25,4.5,2.5,3.0,0.25,3.0,2.25,-0.11,0.08,0.95,296.63,4.2,-27.6,0.75,0.0,2.75,3.0,3.5,0.5,0.75,2.75,1.5,4.5,1.5,1.0,1.5,0.08,0.14,0.95,314.74,-3.2,-9.3
2.6,0.0,0.0,3.5,3.5,0.0,0.5,0.25,4.25,2.5,3.0,0.25,3.0,2.25,-0.11,0.08,0.95,294.98,4.4,-27.4,0.75,0.0,2.75,3.0,3.5,0.5,1.25,2.75,1.5,4.75,1.75,1.0,1.0,0.08,0.14,0.95,316.44,-3.7,-8.1
2.62,0.0,0.0,3.5,3.5,0.0,0.5,0.25,4.5,2.5,3.0,0.25,3.0,2.25,-0.11,0.08,0.95,293.73,4.2,-27.6,0.75,0.0,3.0,3.25,3.5,0.5,0.75,2.75,1.5,4.0,2.0,1.0,1.0,0.08,0.14,0.95,313.2,-4.6,-5.6
2.64,0.0,0.0,3.75,3.5,0.0,0.5,0.25,4.5,2.5,3.0,0.25,3.0,2.25,-0.11,0.08,0.95,294.08,4.6,-26.6,0.75,0.0,2.75,3.0,4.25,0.5,1.0,2.0,1.5,4.5,1.75,1.0,1.0,0.08,0.14,0.95,313.46,-4.2,-4.5
2.66,0.0,0.0,4.0,3.5,0.0,0.5,0.0,4.5,2.5,3.0,0.25,3.0,2.25,-0.11,0.08,0.95,295.78,4.8,-25.9,0.75,0.0,2.75,3.0,4.25,0.5,0.75,2.5,1.5,4.5,0.75,1.0,1.0,0.08,0.14,0.95,310.23,-3.3,-2.4
2.68,0.0,0.0,3.5,3.5,0.0,0.25,0.25,4.25,2.5,3.0,0.0,3.0,2.25,-0.11,0.08,0.95,293.2,4.6,-27.6,0.75,0.0,2.75,3.25,4.5,0.5,0.75,2.75,1.5,4.5,1.75,1.0,1.25,0.08,0.14,0.95,316.49,-3.3,-5.4
2.7,0.0,0.0,4.0,3.5,0.0,0.5,0.25,4.5,2.5,3.0,0.25,3.0,2.25,-0.11,0.08,0.95,295.04,4.9,-25.7,0.75,0.0,3.0,3.0,4.5,0.5,1.0,2.75,1.5,4.25,1.75,1.0,1.0,0.08,0.14,0.95,321.67,-4.0,-3.4
2.72,0.0,0.0,3.75,3.5,0.0,0.25,0.25,4.5,2.5,3.0,0.5,3.0,2.25,-0.11,0.08,0.95,295.03,4.9,-27.7,0.75,0.0,2.75,3.0,3.0,0.5,1.0,2.75,1.5,4.25,1.75,1.0,1.0,0.08,0.14,0.95,318.36,-4.2,-8.4
2.74,0.0,0.0,4.0,3.5,0.0,0.5,0.25,4.5,2.5,3.0,0.5,3.0,2.25,-0.11,0.08,0.95,297.77,5.0,-26.2,0.5,0.0,4.0,3.0,4.5,0.5,0.75,2.75,1.5,4.25,1.75,1.0,1.0,0.08,0.14,0.95,324.78,-5.0,-1.9
2.76,0.0,0.0,3.75,3.5,0.0,0.25,0.25,4.5,2.5,3.0,0.0,3.0,2.5,-0.11,0.08,0.95,297.21,4.6,-27.6,0.75,0.0,2.75,3.0,3.5,0.5,1.0,2.5,1.5,4.25,1.25,1.0,1.0,0.08,0.14,0.95,315.43,-4.1,-5.1
2.78,0.0,0.0,3.5,3.5,0.0,0.25,0.5,4.5,2.5,3.0,0.5,3.0,2.25,-0.11,0.08,0.95,297.42,4.7,-28.4,0.75,0.0,2.75,3.0,3.25,0.5,0.75,2.75,1.5,4.25,1.25,1.0,1.25,0.08,0.14,0.95,310.78,-3.6,-7.5
2.8,0.0,0.0,4.5,3.5,0.0,0.5,0.25,4.5,2.5,3.0,0.5,3.0,2.25,-0.11,0.08,0.95,300.22,5.7,-24.3,0.75,0.0,2.75,3.0,3.25,0.5,1.25,2.75,1.5,3.75,1.75,1.0,1.0,0.08,0.14,0.95,302.52,-4.7,-6.0
2.82,0.0,0.0,3.75,3.5,0.0,0.5,0.25,4.5,2.5,3.0,0.5,3.0,2.25,-0.11,0.08,0.95,301.14,4.6,-27.1,0.75,0.0,4.0,3.0,3.75,0.5,1.0,2.25,1.5,4.25,2.0,1.0,1.0,0.08,0.14,0.95,310.03,-6.1,-2.8
2.84,0.0,0.0,3.5,3.5,0.0,0.25,0.25,4.5,2.5,3.0,0.5,3.0,2.0,-0.11,0.08,0.95,298.91,4.7,-27.8,0.75,0.0,2.75,3.0,4.25,0.5,0.75,2.5,1.5,4.25,2.0,1.0,1.0,0.08,0.14,0.95,312.66,-3.9,-5.3
2.86,0.0,0.0,4.0,3.5,0.0,0.5,0.0,4.5,2.5,3.25,0.5,3.0,2.25,-0.11,0.08,0.95,299.4,4.6,-26.9,0.75,0.0,2.75,3.0,4.25,0.5,1.0,2.75,1.5,3.75,1.75,1.0,1.5,0.08,0.14,0.95,318.37,-3.8,-5.5
2.88,0.0,0.0,3.75,3.5,0.0,0.5,0.25,4.25,2.5,3.0,0.25,3.0,2.25,-0.11,0.08,0.95,297.42,4.8,-26.5,0.75,0.0,3.25,3.0,4.25,0.5,1.25,2.75,1.5,3.75,1.75,1.0,1.0,0.08,0.14,0.95,321.67,-5.0,-1.8
2.9,0.0,0.0,3.5,3.5,0.0,0.5,0.25,4.5,2.5,3.0,0.0,3.0,2.5,-0.11,0.08,0.95,296.33,3.9,-28.0,0.25,0.0,3.25,3.0,4.5,0.5,0.75,2.5,1.5,3.75,2.0,1.0,1.0,0.08,0.14,0.95,321.2,-4.3,-3.7
2.92,0.0,0.0,3.75,3.5,0.0,0.5,0.25,4.5,2.5,3.0,0.25,3.0,2.5,-0.11,0.08,0.95,296.74,4.4,-27.5,0.75,0.0,2.75,3.0,3.75,0.5,0.75,2.25,1.5,4.0,1.75,1.0,1.0,0.08,0.14,0.95,313.73,-4.4,-4.9
2.94,0.0,0.0,3.75,3.5,0.0,0.5,0.25,4.5,2.5,3.0,0.5,2.5,2.25,-0.11,0.08,0.95,295.72,4.5,-25.3,0.75,0.0,2.75,3.25,4.25,0.5,0.75,3.25,1.5,4.0,1.5,1.0,1.25,0.08,0.14,0.95,317.12,-3.3,-4.6
2.96,0.0,0.0,4.0,3.5,0.0,0.5,0.25,4.5,2.5,3.0,0.0,2.5,2.25,-0.11,0.08,0.95,294.52,4.8,-23.3,0.75,0.0,2.75,3.0,4.25,0.5,1.0,2.5,1.5,4.25,1.25,1.0,1.25,0.08,0.14,0.95,316.99,-3.6,-4.1
2.98,0.0,0.0,4.0,3.5,0.0,0.5,0.5,4.5,2.5,3.0,0.0,2.75,2.0,-0.11,0.08,0.95,293.7,5.2,-23.0,0.75,0.0,3.5,3.0,3.25,0.5,0.75,2.75,1.5,3.5,1.75,1.0,1.0,0.08,0.14,0.95,313.44,-5.7,-3.4
3.0,0.0,0.0,3.75,3.5,0.0,0.5,0.25,4.5,2.5,3.0,0.25,2.75,2.25,-0.11,0.08,0.95,293.68,4.5,-25.7,0.75,0.0,2.75,3.0,4.5,0.5,1.0,2.75,1.5,4.0,1.5,1.0,0.75,0.08,0.14,0.95,314.97,-4.0,-1.5
3.02,0.0,0.0,3.75,3.5,0.0,0.5,0.25,4.25,2.5,3.0,0.0,2.5,2.25,-0.11,0.08,0.95,290.94,4.6,-24.1,0.75,0.0,2.75,3.25,3.75,0.5,1.0,2.75,1.25,4.25,1.75,1.0,1.0,0.08,0.14,0.95,313.85,-4.0,-5.1
3.04,0.0,0.0,4.25,3.5,0.0,0.5,0.25,4.5,2.5,3.0,0.0,2.5,2.25,-0.11,0.08,0.95,291.61,5.1,-22.4,0.75,0.0,3.75,3.0,4.25,0.5,0.75,2.5,1.25,3.5,1.75,1.0,1.0,0.08,0.14,0.95,314.81,-5.8,0.6
3.06,0.0,0.0,4.0,3.5,0.0,0.5,0.25,4.5,2.5,3.0,0.25,2.5,2.25,-0.11,0.08,0.95,292.79,4.8,-23.9,0.75,0.0,2.75,3.0,4.25,0.5,0.75,2.5,1.5,3.5,0.25,1.0,1.0,0.08,0.14,0.95,305.56,-4.0,2.4
3.08,0.0,0.0,4.0,3.5,0.0,0.5,0.5,4.5,2.5,3.0,0.25,2.25,2.25,-0.11,0.08,0.95,293.83,4.9,-22.7,0.75,0.25,4.25,3.0,3.75,0.5,1.0,2.75,1.5,3.5,1.75,1.0,1.0,0.08,0.14,0.95,313.01,-6.7,1.0
3.1,0.0,0.0,4.0,3.5,0.0,0.5,0.25,4.25,2.5,3.0,0.25,2.25,2.0,-0.11,0.08,0.95,291.79,5.2,-21.8,0.75,0.0,2.75,3.0,3.75,0.5,0.75,2.75,1.5,3.75,1.75,1.0,1.0,0.08,0.14,0.95,309.14,-4.2,-4.9
3.12,0.0,0.0,4.0,3.5,0.0,0.5,0.5,4.5,2.5,3.0,0.25,2.25,2.25,-0.11,0.08,0.95,292.66,4.9,-22.7,0.75,0.0,3.0,3.0,4.5,0.5,1.0,2.75,1.5,3.75,1.75,1.0,1.0,0.08,0.14,0.95,315.43,-4.4,-2.0
3.14,0.0,0.0,4.0,3.5,0.0,0.5,0.5,4.5,2.5,3.0,0.0,2.25,2.25,-0.11,0.08,0.95,291.84,4.9,-22.1,0.75,0.25,3.0,3.0,3.75,0.5,0.75,2.75,1.5,3.5,1.75,1.0,1.0,0.08,0.14,0.95,313.68,-4.8,-2.3
3.16,0.0,0.0,3.75,3.5,0.0,0.5,0.25,4.5,2.5,3.0,0.25,2.25,2.0,-0.11,0.08,0.95,290.49,4.6,-22.9,0.75,0.0,3.0,3.0,4.5,0.5,0.75,2.75,1.5,3.5,1.75,1.0,1.0,0.08,0.14,0.95,317.19,-4.5,-1.4
3.18,0.0,0.0,3.75,3.5,0.0,0.5,0.5,4.5,2.5,3.0,0.0,2.25,2.0,-0.11,0.08,0.95,289.05,4.7,-22.1,0.75,0.0,3.0,3.0,4.5,0.5,1.0,2.75,1.5,3.75,1.75,1.0,1.0,0.08,0.14,0.95,317.64,-4.4,-2.0
3.2,0.25,0.0,4.0,3.5,0.0,0.5,0.25,4.5,2.5,3.0,0.0,2.25,2.25,-0.11,0.08,0.95,289.95,5.0,-21.2,0.75,0.0,3.0,3.0,4.25,0.5,1.0,2.75,1.5,3.5,1.5,1.0,1.25,0.08,0.14,0.95,319.25,-4.4,-2.3
3.22,0.25,0.0,4.25,3.5,0.0,0.5,0.25,4.5,2.5,3.0,0.25,2.25,2.25,-0.11,0.08,0.95,292.71,5.5,-20.8,0.75,0.0,2.75,3.25,4.5,0.5,0.75,2.75,1.5,4.0,1.75,1.0,1.0,0.08,0.14,0.95,322.06,-3.8,-2.9
3.24,0.0,0.0,4.25,3.5,0.0,0.5,0.25,4.5,2.5,3.0,0.25,2.25,2.5,-0.11,0.08,0.95,295.62,5.0,-23.0,0.75,0.0,3.25,3.0,3.25,0.5,1.25,2.75,1.5,3.5,1.75,1.0,1.0,0.08,0.14,0.95,316.48,-5.6,-3.8
3.26,0.0,0.0,3.75,3.5,0.0,0.5,0.25,4.5,2.5,3.0,0.25,2.25,2.25,-0.11,0.08,0.95,295.24,4.4,-23.9,0.75,0.0,3.5,3.25,4.25,0.5,0.5,2.75,1.5,3.5,1.75,1.0,1.0,0.08,0.14,0.95,318.96,-5.3,-0.2
3.28,0.0,0.0,4.25,3.5,0.0,0.5,0.25,4.5,2.5,3.0,0.0,2.25,2.25,-0.11,0.08,0.95,294.64,5.1,-21.5,0.75,0.0,3.0,3.0,4.5,0.5,1.0,2.75,1.5,3.75,1.5,1.0,1.0,0.08,0.14,0.95,318.64,-4.3,-1.3
3.3,0.25,0.0,4.0,3.5,0.0,0.5,0.25,4.5,2.5,3.0,0.25,2.25,2.0,-0.11,0.08,0.95,293.88,5.3,-20.8,0.75,0.0,3.25,3.0,3.75,0.5,0.75,3.25,1.5,3.5,1.5,1.0,1.25,0.08,0.14,0.95,319.82,-4.4,-3.9
3.32,0.0,0.0,4.0,3.5,0.0,0.5,0.5,4.5,2.5,3.0,0.0,2.25,2.25,-0.11,0.08,0.95,293.44,4.9,-22.1,0.75,0.0,3.0,3.0,4.25,0.5,1.0,2.75,1.5,3.5,1.0,1.0,1.0,0.08,0.14,0.95,314.24,-4.5,0.3
3.34,0.5,0.0,4.0,3.5,0.0,0.5,0.5,4.5,2.5,3.0,0.0,2.25,2.25,-0.11,0.08,0.95,295.06,5.5,-19.7,0.75,0.0,3.25,3.0,4.75,0.5,0.75,2.75,1.5,3.75,1.75,1.0,1.0,0.08,0.14,0.95,319.46,-4.5,-0.8
3.36,0.0,0.0,4.0,3.5,0.0,0.5,0.25,4.5,2.5,3.0,0.25,2.25,2.25,-0.11,0.08,0.95,294.87,4.8,-22.9,0.75,0.0,3.25,3.25,3.0,0.5,1.0,2.75,1.5,4.0,1.75,1.0,1.0,0.08,0.14,0.95,315.1,-5.3,-5.5
3.38,0.0,0.0,3.75,3.5,0.0,0.5,0.25,4.5,2.5,3.0,0.25,2.25,2.25,-0.11,0.08,0.95,293.87,4.4,-23.9,0.75,0.25,3.25,3.0,4.5,0.5,1.0,2.0,1.5,3.5,1.75,1.0,1.0,0.08,0.14,0.95,316.99,-5.7,1.5
3.4,0.0,0.0,4.0,3.5,0.0,0.5,0.25,4.5,2.5,3.0,0.75,2.5,2.25,-0.11,0.08,0.95,295.36,5.0,-24.9,0.75,0.0,3.0,3.0,3.75,0.5,1.0,2.75,1.5,3.5,1.75,1.0,1.0,0.08,0.14,0.95,312.58,-4.9,-3.2
3.42,0.25,0.0,3.75,3.5,0.0,0.5,0.5,4.5,2.5,3.0,0.0,2.25,2.25,-0.11,0.08,0.95,294.37,4.8,-21.8,0.5,0.0,3.0,3.25,5.5,0.5,0.75,2.75,1.5,3.75,1.75,1.0,1.0,0.08,0.14,0.95,321.12,-3.8,0.0
3.44,0.0,0.0,3.75,3.5,0.0,0.5,0.25,4.5,2.5,3.0,0.25,2.25,2.25,-0.11,0.08,0.95,292.88,4.4,-23.9,0.75,0.0,2.75,3.0,3.25,0.5,0.75,2.75,1.5,3.75,1.75,1.0,1.0,0.08,0.14,0.95,313.63,-4.4,-6.3
3.46,0.0,0.0,3.75,3.5,0.0,0.5,0.25,4.5,2.5,3.0,0.25,2.25,2.25,-0.11,0.08,0.95,291.18,4.4,-23.9,0.75,0.0,3.0,3.0,3.75,0.5,0.75,2.5,1.5,4.0,1.75,1.0,1.0,0.08,0.14,0.95,312.55,-4.6,-4.5
3.48,0.0,0.0,4.0,3.5,0.0,0.5,0.25,4.5,2.5,3.0,0.0,2.25,2.25,-0.11,0.08,0.95,290.79,4.7,-22.4,0.75,0.25,3.75,3.0,4.5,0.5,1.0,2.75,1.25,3.75,1.75,1.0,1.0,0.08,0.14,0.95,317.62,-5.4,1.2
3.5,0.0,0.0,4.0,3.5,0.0,0.5,0.25,4.5,2.5,3.0,0.0,2.25,2.25,-0.11,0.08,0.95,290.42,4.7,-22.4,0.75,0.0,3.0,3.0,4.5,0.5,1.25,2.75,1.5,3.5,1.75,1.0,1.0,0.08,0.14,0.95,320.18,-4.7,-1.1
3.52,0.5,0.0,3.75,3.5,0.0,0.5,0.25,4.5,2.5,3.0,0.25,2.5,2.25,-0.11,0.08,0.95,292.64,5.1,-22.4,0.75,0.0,3.0,3.0,3.25,0.5,0.75,2.75,1.5,4.0,1.75,1.0,1.0,0.08,0.14,0.95,316.61,-4.5,-6.3
3.54,0.75,0.0,3.75,3.5,0.0,0.5,0.25,4.5,2.5,3.0,0.25,2.25,2.25,-0.11,0.08,0.95,295.23,5.3,-20.3,0.75,0.0,3.0,3.25,4.25,0.5,1.0,2.75,1.5,3.75,1.75,1.0,1.25,0.08,0.14,0.95,319.4,-4.4,-3.1
3.56,0.0,0.0,4.0,3.5,0.0,0.5,0.25,4.5,2.5,3.0,0.25,2.25,2.25,-0.11,0.08,0.95,295.58,4.8,-22.9,0.75,0.0,3.25,3.0,3.75,0.5,0.75,2.5,1.5,4.0,1.5,1.0,1.25,0.08,0.14,0.95,316.65,-4.7,-4.3
3.58,0.0,0.0,3.75,3.5,0.0,0.5,0.25,4.5,2.5,3.0,0.0,2.25,2.25,-0.11,0.08,0.95,293.24,4.3,-23.3,0.75,0.0,2.75,3.0,4.5,0.5,0.75,2.5,1.5,3.75,1.0,1.0,1.0,0.08,0.14,0.95,312.16,-3.9,-0.2
3.6,0.25,0.0,3.75,3.5,0.0,0.5,0.25,4.5,2.5,3.0,0.25,2.75,2.25,-0.11,0.08,0.95,294.06,4.8,-24.5,0.75,0.0,3.25,3.0,4.25,0.5,0.75,2.75,1.5,4.0,1.75,1.0,1.0,0.08,0.14,0.95,315.38,-4.5,-2.9
3.62,0.0,0.0,3.75,3.5,0.0,0.5,0.25,4.5,2.5,3.0,0.25,2.5,2.25,-0.11,0.08,0.95,293.13,4.5,-24.8,0.75,0.0,2.75,3.0,3.5,0.5,1.0,3.0,1.5,4.25,1.75,1.0,1.0,0.08,0.14,0.95,314.37,-3.8,-7.2
3.64,0.0,0.0,3.75,3.5,0.0,0.5,0.25,4.5,2.5,3.0,0.25,2.25,2.25,-0.11,0.08,0.95,292.27,4.4,-23.9,0.75,0.0,2.75,3.0,4.5,0.5,1.0,3.0,1.5,4.0,1.75,1.0,1.0,0.08,0.14,0.95,318.43,-3.6,-3.7
3.66,0.0,0.0,3.75,3.75,0.0,0.25,0.25,4.25,2.5,3.0,0.25,2.5,2.25,-0.11,0.08,0.95,291.68,5.1,-24.3,0.75,0.0,2.75,3.0,3.75,0.5,0.75,2.25,1.5,4.0,1.5,1.0,1.0,0.08,0.14,0.95,311.52,-4.3,-4.2
3.68,0.0,0.0,3.75,3.5,0.0,0.5,0.25,4.5,2.5,3.0,0.0,2.5,2.25,-0.11,0.08,0.95,290.94,4.4,-24.3,0.75,0.0,3.0,3.0,4.25,0.5,1.0,2.5,1.5,4.25,1.5,1.0,1.0,0.08,0.14,0.95,315.07,-4.2,-3.0
3.7,0.25,0.0,4.0,3.5,0.0,0.5,0.25,4.5,2.5,3.0,0.5,2.75,2.25,-0.11,0.08,0.95,294.13,5.2,-24.1,0.75,0.0,3.5,3.25,1.75,0.5,0.75,2.75,1.5,3.75,1.75,1.0,1.0,0.08,0.14,0.95,302.33,-6.3,-7.9
3.72,0.0,0.0,4.0,3.5,0.0,0.5,0.25,4.5,2.5,3.0,0.25,2.75,2.25,-0.11,0.08,0.95,295.85,4.9,-24.8,0.75,0.0,2.75,3.0,3.25,0.5,1.25,2.75,1.5,3.75,1.75,1.0,1.0,0.08,0.14,0.95,299.3,-4.7,-6.0
3.74,0.0,0.0,4.0,3.5,0.0,0.5,0.25,4.5,2.5,3.0,0.25,2.5,2.25,-0.11,0.08,0.95,296.98,4.8,-23.9,0.75,0.0,3.25,3.25,4.25,0.5,0.5,2.75,1.5,4.0,1.75,1.0,1.0,0.08,0.14,0.95,305.13,-4.5,-2.4
3.76,0.0,0.0,3.75,3.5,0.0,0.5,0.25,4.5,2.5,3.0,0.0,2.75,2.25,-0.11,0.08,0.95,295.37,4.4,-25.2,0.75,0.0,2.75,3.0,4.5,0.5,1.0,2.75,1.5,4.5,1.75,1.0,1.0,0.08,0.14,0.95,315.15,-3.5,-4.8
3.78,0.0,0.0,3.5,3.5,0.0,0.5,0.25,4.5,2.5,3.0,0.25,2.75,2.25,-0.11,0.08,0.95,293.98,4.1,-26.7,0.75,0.0,3.0,3.25,3.5,0.5,0.75,2.5,1.5,4.25,1.25,1.0,1.25,0.08,0.14,0.95,315.59,-4.3,-5.0
3.8,0.5,0.0,3.75,3.5,0.0,0.5,0.25,4.5,2.5,3.0,0.25,2.5,2.25,-0.11,0.08,0.95,294.77,5.1,-22.4,0.75,0.0,2.75,3.0,4.25,0.5,0.75,2.5,1.5,4.25,1.75,1.0,1.0,0.08,0.14,0.95,317.88,-3.8,-4.6
3.82,0.0,0.0,3.75,3.25,0.0,0.5,0.25,4.5,2.5,3.0,0.25,2.5,2.25,-0.11,0.08,0.95,293.19,4.3,-25.8,0.5,0.0,3.25,3.0,4.25,0.5,0.75,2.75,1.5,4.0,1.75,1.0,1.0,0.08,0.14,0.95,318.3,-4.2,-3.8
3.84,0.25,0.0,3.75,3.5,0.0,0.5,0.25,4.5,2.5,3.0,0.25,2.5,2.25,-0.11,0.08,0.95,293.77,4.8,-23.6,0.75,0.0,2.75,3.0,3.5,0.5,1.0,2.75,1.5,4.0,1.75,1.0,1.0,0.08,0.14,0.95,313.46,-4.2,-6.2
3.86,0.0,0.0,3.75,3.5,0.0,0.5,0.25,4.5,2.5,3.0,0.5,2.5,2.25,-0.11,0.08,0.95,293.93,4.5,-25.3,0.75,0.0,2.75,3.25,4.5,0.5,0.75,2.5,1.5,4.25,1.75,1.0,1.0,0.08,0.14,0.95,317.22,-3.9,-3.2
3.88,0.0,0.0,3.75,3.5,0.0,0.5,0.25,4.5,2.5,3.0,0.25,2.5,2.25,-0.11,0.08,0.95,293.77,4.5,-24.8,0.75,0.0,2.75,3.0,3.5,0.5,0.75,2.5,1.5,4.5,1.25,1.0,1.25,0.08,0.14,0.95,313.34,-3.5,-7.2
3.9,0.0,0.0,3.75,3.5,0.0,0.5,0.25,4.5,2.5,3.0,0.25,2.5,2.25,-0.11,0.08,0.95,292.83,4.5,-24.8,0.75,0.0,2.75,3.25,4.5,0.5,0.75,2.5,1.5,3.75,1.25,1.0,1.0,0.08,0.14,0.95,314.47,-4.1,-0.3
3.92,0.0,0.0,3.75,3.25,0.0,0.5,0.5,4.5,2.5,3.0,0.25,2.5,2.25,-0.11,0.08,0.95,291.69,4.5,-25.5,0.75,0.0,3.0,3.0,4.5,0.5,1.0,2.75,1.5,4.25,1.75,1.0,1.0,0.08,0.14,0.95,317.63,-4.0,-3.4
3.94,0.0,0.0,3.75,3.75,0.0,0.5,0.25,4.5,2.5,3.0,0.5,2.75,2.25,-0.11,0.08,0.95,293.54,4.7,-25.3,0.75,0.0,2.75,3.0,4.25,0.5,1.0,2.75,1.5,4.25,1.75,1.0,0.5,0.08,0.14,0.95,319.71,-4.1,-2.5
3.96,0.25,0.0,3.75,4.25,0.0,0.5,0.5,4.5,2.25,3.0,0.5,2.75,2.25,-0.11,0.08,0.95,298.65,5.3,-22.0,0.75,0.0,3.5,3.25,4.5,0.5,0.75,2.75,1.5,4.0,1.5,1.0,1.0,0.08,0.14,0.95,324.27,-4.8,-0.3
3.98,0.0,0.0,3.75,3.5,0.0,0.5,0.25,4.5,2.5,3.0,0.5,2.75,2.25,-0.11,0.08,0.95,300.08,4.6,-26.2,0.75,0.0,2.75,3.0,4.5,0.5,0.75,2.75,1.5,4.25,1.75,1.0,1.0,0.08,0.14,0.95,324.53,-3.5,-4.2
4.0,0.0,0.0,3.75,3.5,0.0,0.5,0.25,4.5,2.5,3.0,0.25,2.5,2.25,-0.11,0.08,0.95,298.79,4.5,-24.8,0.75,0.25,2.75,3.0,3.5,0.5,1.0,2.75,1.5,4.5,1.25,1.0,1.0,0.08,0.14,0.95,321.84,-3.7,-5.1
4.02,0.0,0.0,3.75,3.25,0.0,0.5,0.5,4.5,2.75,3.0,0.25,2.5,2.25,-0.11,0.08,0.95,296.31,4.5,-25.6,0.75,0.0,3.0,3.0,4.5,0.5,0.75,2.5,1.5,4.5,1.75,1.0,1.0,0.08,0.14,0.95,322.91,-3.9,-3.9
4.04,0.0,0.0,3.5,3.5,0.0,0.5,0.5,4.5,2.75,3.25,0.5,2.25,2.25,-0.11,0.08,0.95,294.99,4.1,-25.8,0.75,0.0,3.25,3.25,4.25,0.5,0.75,2.75,1.5,4.0,1.75,1.0,1.0,0.08,0.14,0.95,324.31,-4.6,-2.2
4.06,0.0,0.0,3.75,3.5,0.0,0.5,0.5,4.5,2.5,3.0,0.25,2.5,2.25,-0.11,0.08,0.95,294.26,4.6,-24.5,0.75,0.0,3.25,3.0,2.75,0.5,0.75,2.75,1.5,4.0,1.75,1.0,1.0,0.08,0.14,0.95,317.13,-5.1,-7.1
4.08,0.0,0.0,3.75,3.5,0.0,0.25,0.25,4.5,2.5,2.75,0.25,2.75,2.25,-0.11,0.08,0.95,292.62,5.0,-25.8,0.75,0.0,2.75,3.0,3.5,0.5,1.0,2.75,1.5,4.5,1.75,1.0,1.0,0.08,0.14,0.95,314.11,-3.8,-7.6
4.1,0.0,0.0,3.75,3.25,0.0,0.25,0.25,4.5,2.5,3.0,0.25,2.5,2.25,-0.11,0.08,0.95,290.28,4.6,-26.4,0.75,0.0,3.25,3.0,4.5,0.5,1.0,2.5,1.5,4.25,1.75,1.0,1.0,0.08,0.14,0.95,316.58,-4.6,-2.4
4.12,0.0,0.0,3.75,3.5,0.0,0.5,0.25,4.5,2.5,3.0,0.25,2.25,2.25,-0.11,0.08,0.95,289.07,4.4,-23.9,0.75,0.0,3.0,3.0,3.75,0.5,0.75,2.5,1.5,4.0,1.25,1.0,1.25,0.08,0.14,0.95,313.91,-4.2,-4.2
4.14,0.0,0.0,4.0,3.5,0.0,0.25,0.25,4.5,2.5,3.0,0.25,2.5,2.25,-0.11,0.08,0.95,289.17,5.1,-24.5,0.75,0.0,3.0,3.0,4.5,0.5,0.75,2.75,1.5,4.25,1.75,1.0,1.0,0.08,0.14,0.95,317.66,-3.9,-3.6
4.16,0.0,0.0,3.75,3.25,0.0,0.5,0.25,4.5,2.5,3.0,0.25,2.5,2.25,-0.11,0.08,0.95,288.87,4.3,-25.8,0.75,0.0,3.5,3.25,3.5,0.5,1.0,2.75,1.5,4.0,1.75,1.0,1.25,0.08,0.14,0.95,319.36,-5.2,-4.5
4.18,0.0,0.0,3.75,3.5,0.0,0.25,0.25,4.5,2.5,3.25,0.25,2.25,2.25,-0.11,0.08,0.95,288.66,4.5,-25.0,0.75,0.0,3.25,3.25,3.5,0.5,0.75,2.75,1.5,4.25,1.75,1.0,1.0,0.08,0.14,0.95,320.84,-4.7,-4.9
