time,left pressure 0[N/cm虏],left pressure 1[N/cm虏],left pressure 2[N/cm虏],left pressure 3[N/cm虏],left pressure 4[N/cm虏],left pressure 5[N/cm虏],left pressure 6[N/cm虏],left pressure 7[N/cm虏],left pressure 8[N/cm虏],left pressure 9[N/cm虏],left pressure 10[N/cm虏],left pressure 11[N/cm虏],left pressure 12[N/cm虏],left acceleration X[g],left acceleration Y[g],left acceleration Z[g],left total force[N],left center of pressure X[mm],left center of pressure Y[mm],right pressure 0[N/cm虏],right pressure 1[N/cm虏],right pressure 2[N/cm虏],right pressure 3[N/cm虏],right pressure 4[N/cm虏],right pressure 5[N/cm虏],right pressure 6[N/cm虏],right pressure 7[N/cm虏],right pressure 8[N/cm虏],right pressure 9[N/cm虏],right pressure 10[N/cm虏],right pressure 11[N/cm虏],right pressure 12[N/cm虏],right acceleration X[g],right acceleration Y[g],right acceleration Z[g],right total force[N],right center of pressure X[mm],right center of pressure Y[mm]
0.02,0.0,5.25,5.25,10.5,0.0,2.5,0.0,1.25,0.0,0.5,0.0,0.25,0.25,-0.23,0.2,1.08,407.4,14.3,54.5,0.0,0.0,0.75,0.0,1.75,0.75,0.25,1.5,1.25,8.0,6.75,5.25,8.0,-0.17,0.33,2.14,360.07,3.5,-72.7
0.04,5.5,5.5,0.0,10.5,0.0,3.5,0.0,1.0,0.0,0.25,0.0,0.0,0.25,-0.3,0.27,1.14,403.29,12.7,64.8,0.0,0.0,0.5,0.0,2.75,0.5,0.5,3.0,1.75,8.5,7.25,6.0,6.75,0.2,0.33,1.14,499.85,3.2,-67.8
0.06,4.75,6.0,0.0,10.5,0.0,0.0,0.0,0.25,0.0,0.25,0.0,0.5,0.25,-0.3,0.27,1.2,378.34,18.1,68.7,0.0,0.25,0.25,1.5,3.0,1.25,0.0,5.5,2.75,9.5,8.75,6.0,7.75,0.2,0.2,1.2,661.77,3.6,-60.7
0.08,6.0,0.0,0.0,9.5,0.0,0.0,0.0,0.25,0.0,0.25,0.0,0.25,0.25,-0.36,0.33,1.2,327.02,21.6,62.8,1.25,0.25,1.25,2.0,3.0,2.0,1.25,6.25,3.25,9.5,9.25,6.5,7.75,0.14,0.14,1.02,813.02,1.4,-51.5
0.1,6.0,0.0,0.0,9.25,0.0,0.0,0.0,0.25,0.0,0.25,0.0,0.25,0.25,-0.42,0.39,1.45,283.8,21.6,62.9,1.25,0.5,4.0,2.0,4.5,3.5,1.25,7.0,3.75,9.5,9.5,6.25,7.75,0.14,0.08,1.02,962.6,0.1,-40.2
0.12,4.5,0.0,0.0,7.75,0.0,0.0,0.0,0.0,0.0,0.25,0.0,0.25,0.25,-0.61,0.45,1.64,240.14,21.5,61.7,2.25,0.5,6.0,2.25,4.5,2.75,2.0,7.0,4.25,9.25,9.5,5.75,7.5,0.14,0.08,0.95,1077.52,-2.2,-33.9
0.14,2.5,0.0,2.25,3.75,0.0,0.0,0.0,0.0,0.0,0.0,0.0,0.0,0.0,-0.73,1.14,2.45,183.16,27.7,69.6,3.5,0.75,7.5,3.5,4.5,3.25,2.5,7.0,4.0,8.75,9.0,5.25,6.5,0.14,0.08,0.95,1162.94,-4.2,-23.8
0.16,0.0,0.0,0.0,2.5,0.0,0.0,0.0,0.0,0.0,0.0,0.0,0.0,0.0,-0.8,1.27,3.02,101.26,17.2,57.9,4.5,1.0,8.25,4.5,4.5,3.5,2.5,7.0,3.75,8.0,8.0,4.25,5.75,0.14,0.08,0.95,1197.91,-5.4,-15.2
0.18,0.0,0.0,0.0,0.0,0.0,0.0,0.0,0.0,0.0,0.0,0.0,0.0,0.0,-0.55,0.45,2.14,17.86,0.0,0.0,5.0,0.75,9.0,4.25,4.5,3.75,2.5,6.25,3.25,6.75,7.25,3.0,4.25,0.14,0.08,0.95,1168.33,-6.9,-7.1
0.2,0.0,0.0,0.0,0.0,0.0,0.0,0.0,0.0,0.0,0.0,0.0,0.0,0.0,-0.48,-0.23,2.27,0.0,0.0,0.0,5.25,0.75,9.5,5.0,4.5,3.5,2.5,5.5,2.75,6.0,5.75,2.5,2.75,0.14,0.08,0.95,1091.54,-8.6,1.8
0.22,0.0,0.0,0.0,0.25,0.0,0.0,0.0,0.0,0.0,0.0,0.0,0.0,0.0,-0.3,-0.92,2.45,0.0,17.2,57.9,5.75,1.0,9.5,4.5,4.5,3.25,2.5,4.25,2.0,4.25,4.0,1.0,2.5,0.14,0.14,0.95,961.12,-10.5,13.8
0.24,0.0,0.0,0.0,1.0,0.0,0.0,0.0,0.0,0.0,0.0,0.0,0.0,0.0,-0.23,-0.73,1.77,0.0,17.2,57.9,5.75,1.0,10.0,5.25,4.5,3.25,2.5,4.25,1.75,2.75,2.75,1.0,1.5,0.14,0.14,0.95,836.2,-12.3,23.4
0.26,0.0,0.0,0.0,0.0,0.0,0.0,0.0,0.0,0.0,0.0,0.0,0.0,0.0,-0.42,-0.48,0.7,0.0,0.0,0.0,6.25,1.25,11.0,5.0,4.5,3.25,2.0,3.0,1.5,2.5,1.75,0.25,1.5,0.14,0.14,0.95,735.77,-14.1,32.6
0.28,0.0,0.0,0.0,0.0,0.0,0.0,4.25,0.0,0.0,0.0,0.0,0.0,0.0,-0.42,-0.48,0.33,0.0,32.4,27.4,6.75,1.0,11.0,6.0,4.5,3.5,2.0,3.0,1.0,1.5,0.75,0.0,1.0,0.14,0.14,0.95,665.3,-15.4,42.1
0.3,0.0,0.0,0.0,0.0,0.0,0.0,0.0,0.0,0.0,0.0,0.0,0.0,0.0,-0.36,-0.42,0.45,0.0,0.0,0.0,7.0,1.0,9.75,5.0,4.25,2.25,1.5,1.75,1.0,1.25,0.5,0.25,0.75,0.08,0.14,0.95,580.22,-17.5,46.0
0.32,0.0,0.0,0.0,0.0,0.0,0.0,4.25,0.0,0.0,0.0,0.0,0.0,0.0,-0.48,-0.42,0.7,0.0,32.4,27.4,6.25,0.75,11.5,6.75,4.5,2.75,1.25,1.5,0.75,0.0,0.25,0.0,0.75,0.08,0.14,0.95,532.66,-19.0,53.0
0.34,0.0,0.0,0.0,0.0,0.0,0.0,0.0,0.0,0.0,0.0,0.0,0.0,0.0,-0.48,-0.3,0.77,0.0,0.0,0.0,6.75,1.25,9.75,7.5,4.5,2.75,1.25,1.25,0.75,1.0,0.0,0.0,0.0,0.08,0.14,0.95,499.66,-18.2,55.3
0.36,0.0,0.0,0.0,0.0,0.0,0.0,0.0,0.0,0.0,0.0,0.0,0.0,0.0,-0.48,-0.05,0.77,0.0,0.0,0.0,8.0,1.75,12.0,8.5,4.75,2.5,1.25,1.25,0.75,1.0,0.0,0.0,0.75,0.08,0.14,0.95,528.8,-19.1,54.5
0.38,0.0,0.0,0.0,0.0,0.0,0.0,0.0,0.0,0.0,0.0,0.0,0.0,0.0,-0.48,0.08,0.89,0.0,0.0,0.0,7.5,1.0,12.5,6.75,5.5,1.25,1.25,1.25,0.25,0.0,0.0,0.0,0.0,0.08,0.2,0.95,534.0,-21.9,61.7
0.4,0.0,0.0,0.0,0.0,0.0,0.0,0.0,0.0,0.0,0.0,0.0,0.0,0.0,-0.48,0.08,1.2,0.0,0.0,0.0,8.0,2.0,11.0,8.5,6.0,2.25,0.75,0.0,0.0,0.0,0.0,0.0,0.0,0.08,0.2,1.02,561.1,-20.7,66.2
0.42,0.0,0.0,0.0,0.0,0.0,0.0,0.0,0.0,0.0,0.0,0.0,0.0,0.0,-0.48,0.27,1.39,0.0,0.0,0.0,8.0,2.0,11.5,9.0,6.5,1.25,1.0,0.25,0.5,1.0,0.0,0.0,0.0,0.08,0.2,1.02,590.42,-20.4,61.2
0.44,0.0,0.0,0.0,0.0,0.0,0.0,0.0,0.0,0.0,0.0,0.0,0.0,0.0,-0.61,0.64,1.52,0.0,0.0,0.0,9.0,3.5,12.0,10.0,5.75,2.0,1.0,0.0,0.25,0.0,0.0,0.0,0.0,0.08,0.2,1.02,641.43,-21.4,67.1
0.46,0.0,0.0,0.0,0.0,0.0,0.0,0.0,0.0,0.0,0.0,0.0,0.0,0.0,-0.61,0.83,2.02,0.0,0.0,0.0,9.0,3.75,14.0,10.5,6.5,1.75,0.5,0.0,0.25,0.0,0.0,0.0,0.0,0.02,0.27,1.02,707.85,-21.7,67.1
0.48,0.0,0.0,0.0,0.0,0.0,0.0,0.0,0.0,0.0,0.0,0.0,0.0,0.0,-0.48,0.95,2.7,0.0,0.0,0.0,9.25,3.75,14.0,9.75,6.75,1.25,0.5,0.0,0.0,0.0,0.0,0.0,0.0,0.02,0.27,1.08,758.02,-22.2,68.2
0.5,0.0,0.0,0.0,0.0,0.0,0.0,0.0,0.0,0.0,0.0,0.0,0.0,0.0,-0.67,1.52,2.52,0.0,0.0,0.0,9.25,4.0,11.0,10.0,5.75,1.25,0.75,0.0,0.0,0.0,0.0,0.0,0.25,0.02,0.33,1.08,766.22,-21.5,68.0
0.52,0.0,0.0,0.0,0.0,0.0,0.0,0.0,0.0,0.0,0.0,0.0,0.0,0.0,-0.86,2.64,1.64,0.0,0.0,0.0,9.0,3.25,13.0,9.75,6.5,1.25,0.25,0.0,0.0,0.0,0.0,0.0,0.0,0.08,0.33,1.2,763.79,-22.1,68.0
0.54,0.0,0.0,0.0,0.0,0.0,0.0,0.0,0.0,0.0,0.0,0.0,0.0,0.0,-1.05,3.33,1.14,0.0,0.0,0.0,8.0,2.5,10.5,7.75,4.5,0.5,0.25,0.0,0.0,0.0,0.0,0.0,0.0,0.08,0.39,1.45,687.56,-23.6,69.4
0.56,0.0,0.0,0.0,0.0,0.0,0.0,0.0,0.0,0.0,0.0,0.0,0.0,0.0,-0.11,3.77,0.7,0.0,0.0,0.0,7.0,2.5,9.0,6.25,4.5,0.5,0.25,0.0,0.0,0.0,0.0,0.0,0.0,0.2,0.45,1.45,589.38,-22.9,69.5
0.58,0.0,0.0,0.0,0.0,0.0,0.0,0.0,0.0,0.0,0.0,0.0,0.0,0.0,1.08,4.33,0.7,0.0,0.0,0.0,6.25,2.0,8.0,5.75,4.5,1.25,0.5,0.0,0.25,1.0,0.0,0.0,0.0,0.14,0.7,1.95,498.75,-19.9,62.1
0.6,0.0,0.0,0.0,0.0,0.0,0.0,0.0,0.0,0.0,0.0,0.0,0.0,0.0,0.77,5.27,0.08,0.0,0.0,0.0,3.75,1.0,6.0,3.5,4.5,1.0,0.25,0.0,0.25,1.0,0.0,0.0,0.25,0.08,1.58,2.58,392.76,-17.3,55.7
0.62,0.0,0.0,0.0,0.0,0.0,0.0,0.0,0.0,0.0,0.0,0.0,0.0,0.0,-0.48,-0.48,2.45,0.0,0.0,0.0,2.0,0.75,5.5,2.25,3.0,1.25,0.25,0.0,0.0,0.25,0.0,0.0,0.0,-0.05,1.02,2.33,299.16,-18.7,60.6
0.64,0.0,0.0,0.0,0.0,0.0,0.0,0.0,0.0,0.0,2.0,0.0,1.25,0.0,0.14,0.14,0.58,20.62,-6.2,-88.6,1.25,0.25,2.75,2.0,2.75,1.25,0.25,0.0,0.25,1.0,0.0,0.0,0.25,0.2,-0.23,1.7,219.71,-11.2,43.2
0.66,0.0,0.0,0.75,0.75,0.0,0.0,0.0,0.25,0.0,4.5,0.0,3.5,4.25,-0.11,0.27,2.02,102.02,-4.2,-79.0,1.0,0.0,2.5,1.25,2.25,0.75,0.25,0.0,0.0,0.25,0.0,0.0,0.0,0.2,-0.55,2.52,135.77,-15.1,55.5
0.68,0.0,0.0,1.25,0.75,0.0,0.0,0.0,2.5,0.75,6.25,0.0,4.5,5.25,-0.61,0.39,2.2,203.98,-4.7,-72.7,0.5,0.0,1.25,1.75,1.75,0.75,0.25,0.0,0.25,0.5,0.0,0.0,0.0,0.08,-0.92,1.27,63.57,-10.1,44.3
0.7,0.0,0.0,0.0,0.0,0.0,0.0,0.0,4.75,1.75,6.25,0.0,4.5,6.0,-0.23,0.27,1.02,288.17,-8.6,-80.9,0.0,0.0,0.0,0.0,0.25,0.0,0.0,0.0,0.0,0.0,0.0,0.0,0.0,0.33,-0.8,0.64,0.0,3.3,53.4
0.72,0.0,0.0,0.0,0.0,0.0,0.25,0.0,5.5,2.5,7.0,3.75,4.75,6.0,-0.17,0.02,0.95,383.11,-6.0,-77.3,0.0,0.0,0.0,0.0,0.0,0.0,0.0,0.0,0.0,0.0,0.0,0.0,0.0,0.39,-0.73,0.64,0.0,0.0,0.0
0.74,0.0,0.0,0.0,0.5,0.0,0.75,0.0,6.25,3.5,7.0,6.5,5.25,6.0,-0.23,0.02,0.95,493.72,-4.2,-72.3,0.0,0.0,0.0,0.0,0.25,0.0,0.0,0.0,0.0,0.0,0.0,0.0,0.0,0.33,-0.67,0.77,0.0,3.3,53.4
0.76,0.0,0.5,1.75,0.25,0.0,1.5,0.25,6.25,4.0,7.0,6.75,5.25,6.0,-0.17,-0.05,0.95,595.01,-2.1,-62.2,0.0,0.0,0.0,0.0,0.25,0.0,0.0,0.0,0.0,0.0,0.0,0.0,0.0,0.2,-0.42,0.77,0.0,3.3,53.4
0.78,0.0,0.75,3.0,3.0,0.0,1.5,0.5,6.5,4.5,6.25,6.75,4.75,5.25,-0.17,0.02,1.02,676.01,1.0,-47.0,0.0,0.0,1.0,1.0,1.5,0.75,0.25,0.0,0.0,0.25,0.0,0.0,0.0,-0.05,-0.17,0.89,0.0,-7.2,45.9
0.8,0.0,0.75,3.75,3.25,0.75,2.0,0.5,6.25,4.5,6.25,6.25,4.5,4.5,-0.17,-0.05,0.95,725.05,1.6,-39.8,0.0,0.0,0.75,0.25,1.25,1.0,0.25,0.0,0.0,0.5,0.0,0.0,0.0,-0.11,-0.05,1.08,0.0,-0.9,33.9
0.82,0.75,0.75,4.75,4.0,0.0,1.5,0.5,6.25,4.75,5.25,5.5,3.5,4.0,-0.17,0.02,0.95,725.01,4.1,-31.8,0.0,0.0,0.75,0.5,1.5,0.5,0.25,0.0,0.25,0.75,0.0,0.0,0.0,-0.17,0.27,1.02,4.2,-3.7,26.7
0.84,1.75,1.25,5.75,4.75,3.5,1.75,0.5,5.5,4.0,4.0,4.25,2.5,2.75,-0.17,0.02,0.95,717.22,6.1,-8.1,0.0,0.0,0.75,0.75,2.25,0.25,0.25,0.0,0.0,0.0,0.0,0.0,0.0,-0.23,0.58,0.95,33.83,-7.2,53.8
0.86,1.75,1.0,6.25,5.0,0.0,1.5,0.5,5.25,3.5,3.75,3.25,2.5,1.75,-0.17,0.02,0.95,655.43,8.5,-8.8,0.0,0.0,0.75,0.0,1.25,0.5,0.25,0.0,0.25,0.75,0.0,0.0,0.0,-0.3,0.83,1.33,50.13,-2.3,20.4
0.88,2.0,1.5,6.5,6.25,3.75,1.5,0.5,4.75,3.0,2.25,2.25,1.25,1.5,-0.17,0.02,0.95,614.58,9.2,12.5,0.0,0.0,1.25,0.5,1.5,1.0,0.25,0.0,0.0,0.75,0.0,0.0,0.25,-0.48,0.83,1.39,67.31,-3.4,27.0
0.9,3.0,1.75,7.0,6.75,3.0,1.25,0.5,4.25,2.25,2.0,1.5,1.25,1.0,-0.17,0.02,0.95,564.58,11.8,21.5,0.0,0.0,1.25,0.0,1.5,0.75,0.25,0.0,0.25,0.0,0.0,0.0,0.0,-0.61,1.14,1.58,74.71,-8.3,46.1
0.92,3.25,2.25,7.25,6.75,0.0,1.25,0.5,3.75,2.0,1.75,0.75,1.0,0.5,-0.17,0.08,0.95,511.79,15.0,27.8,0.0,0.0,0.75,0.25,1.5,0.5,0.25,0.0,0.25,0.0,0.0,0.0,0.0,-0.92,1.45,1.89,78.4,-6.7,45.7
0.94,3.5,2.25,7.5,6.75,3.5,1.25,0.5,3.5,1.75,1.25,0.25,0.5,0.5,-0.11,0.08,0.95,483.98,14.0,37.7,0.0,0.0,0.75,0.5,2.25,0.5,0.25,0.0,0.25,0.75,0.0,0.0,0.0,-1.3,1.7,1.64,87.53,-2.6,30.9
0.96,4.0,2.25,7.5,7.75,4.25,1.25,0.5,2.5,1.5,0.5,0.0,0.5,0.5,-0.17,0.08,0.95,467.82,15.5,45.7,0.0,0.0,0.75,0.0,2.25,0.75,0.25,0.0,0.0,0.0,0.0,0.0,0.0,-1.92,1.58,1.27,85.05,-2.0,50.8
0.98,4.75,2.5,8.0,8.25,0.0,1.0,0.5,2.0,1.25,0.5,0.0,0.75,0.25,-0.17,0.08,0.95,442.42,20.6,48.9,0.0,0.0,0.75,0.0,1.5,0.75,0.25,0.0,0.0,0.25,0.0,0.0,0.0,-2.36,1.45,1.14,78.09,-2.1,41.4
1.0,4.75,3.25,8.25,8.25,0.0,1.25,0.5,2.0,1.0,0.75,0.0,0.5,0.0,-0.17,0.08,0.95,428.52,20.3,52.4,0.0,0.0,0.75,0.0,2.25,0.5,0.25,0.0,0.0,0.25,0.0,0.0,0.0,-2.36,1.77,0.89,73.02,-2.3,44.3
1.02,6.0,3.75,8.25,8.5,0.0,1.5,0.5,2.0,1.0,0.5,0.0,0.5,0.25,-0.11,0.08,0.95,435.0,20.4,54.4,0.0,0.0,0.75,0.0,1.5,0.75,0.25,0.0,0.25,0.5,0.0,0.0,0.0,-1.8,1.95,0.39,67.44,-1.6,29.4
1.04,6.0,3.75,8.25,9.25,0.0,1.5,0.5,2.0,1.0,0.5,0.0,0.5,0.25,-0.11,0.08,0.95,452.04,20.3,54.5,0.0,0.0,0.75,0.0,1.75,1.25,0.25,0.0,0.0,0.5,0.0,0.0,0.0,-1.48,1.45,0.77,69.73,1.7,35.0
1.06,6.5,4.25,8.25,9.25,0.0,2.0,0.5,2.0,0.75,0.5,0.0,0.5,0.25,-0.11,0.08,0.95,478.65,19.9,56.1,0.0,0.0,1.0,0.0,1.0,0.0,0.25,0.0,0.0,0.0,0.0,0.0,0.0,1.2,-0.86,0.83,59.36,-17.1,55.4
1.08,6.75,5.0,8.25,9.75,7.25,2.0,0.25,2.0,0.5,0.5,0.0,0.5,0.25,-0.11,0.08,1.02,564.59,15.4,57.2,0.0,0.0,0.75,0.0,0.5,0.0,0.0,0.0,0.0,4.75,0.0,1.0,0.75,0.52,0.08,2.14,81.18,6.1,-60.3
1.1,7.25,5.25,8.25,10.5,7.5,2.0,0.0,1.75,0.25,0.5,0.0,0.25,0.25,-0.17,0.14,1.08,653.04,15.7,59.9,0.0,0.0,0.0,0.0,0.25,1.25,0.0,3.0,0.75,6.75,3.25,4.0,4.25,-0.11,0.39,1.27,181.48,7.0,-74.7
1.12,7.5,6.0,8.25,10.5,0.0,2.0,0.0,0.75,0.25,0.5,0.0,0.25,0.25,-0.17,0.14,1.14,663.38,21.2,65.2,0.0,0.0,0.0,0.25,0.25,0.75,0.25,4.25,2.0,8.25,6.0,5.5,6.25,0.14,0.02,1.02,304.53,4.8,-76.0
1.14,7.5,6.0,0.0,10.0,0.0,0.0,0.0,0.25,0.0,0.25,0.0,0.5,0.25,-0.23,0.14,1.27,571.71,19.9,71.9,0.0,0.0,0.5,1.0,0.5,1.25,0.25,5.5,2.75,9.25,8.25,6.5,7.75,-0.05,0.08,1.02,492.55,3.6,-70.1
1.16,8.0,6.25,8.25,9.5,0.0,0.75,0.0,0.25,0.0,0.25,0.0,0.5,0.25,-0.3,0.14,1.33,536.03,23.7,69.2,0.75,0.0,1.25,0.5,1.75,1.25,0.75,5.5,3.0,9.75,8.75,7.0,8.25,0.02,0.08,0.95,687.88,2.3,-63.5
1.18,6.5,6.25,8.0,8.25,0.0,0.0,0.0,0.0,0.0,0.0,0.0,0.0,0.0,-0.36,0.2,1.52,474.58,25.7,76.0,0.0,0.25,1.25,1.0,2.25,1.0,1.0,5.5,3.25,9.5,9.25,7.25,8.5,0.02,0.08,0.95,838.95,2.1,-63.0
1.2,7.5,6.25,6.5,8.25,0.0,0.0,0.0,0.25,0.0,0.25,0.0,0.0,0.25,-0.42,0.2,1.77,456.51,24.3,73.6,0.0,0.0,1.25,1.25,2.5,1.25,1.25,5.5,3.25,9.5,9.25,7.0,8.5,0.08,0.08,0.89,925.9,2.1,-61.6
1.22,5.75,0.0,5.5,4.75,0.0,0.0,0.0,0.25,0.0,0.25,0.0,0.0,0.25,-0.48,0.27,2.7,368.02,28.5,65.7,0.5,0.0,1.25,2.0,2.75,1.25,1.25,5.5,4.0,9.25,9.25,7.25,8.25,0.08,0.08,0.95,978.29,1.1,-57.3
1.24,2.75,0.0,3.0,3.0,0.0,0.0,0.0,0.0,0.0,0.25,0.0,0.25,0.0,-0.55,1.08,3.14,270.38,28.0,61.9,0.75,0.0,2.25,2.0,3.0,1.0,1.25,5.75,3.75,9.75,9.25,7.25,8.25,0.08,0.08,0.95,1010.74,0.4,-54.4
1.26,1.5,0.0,3.0,1.0,0.0,0.0,0.0,0.0,0.0,0.0,0.0,0.0,0.0,0.39,0.39,2.58,156.92,33.4,69.7,1.0,0.25,3.5,1.75,2.75,1.25,1.25,6.25,3.75,9.5,9.75,7.25,8.25,0.08,0.08,0.95,1037.46,-0.4,-51.0
1.28,0.0,0.0,0.25,0.5,0.0,0.0,0.0,0.0,0.0,0.0,0.0,0.0,0.0,0.14,-0.61,1.89,37.11,24.1,58.9,1.0,0.25,4.0,1.25,3.25,1.25,1.5,6.0,4.25,9.5,9.75,7.25,8.25,0.08,0.08,0.95,1051.0,-0.8,-49.8
1.3,0.0,0.0,0.0,0.5,0.0,0.0,0.0,0.0,0.0,0.0,0.0,0.0,0.0,-0.36,-1.36,0.58,0.0,17.2,57.9,1.0,0.0,4.0,2.0,2.75,1.5,1.75,5.5,4.25,9.25,9.75,7.25,8.25,0.02,0.08,0.95,1041.48,-1.3,-49.5
1.32,0.0,0.0,0.0,0.0,0.0,0.0,0.0,0.0,0.0,0.0,0.0,0.0,0.0,0.33,-0.67,0.95,0.0,0.0,0.0,1.25,0.0,4.0,1.75,2.75,1.5,1.75,5.5,4.0,9.25,9.25,6.75,8.0,0.02,0.08,0.95,994.56,-1.2,-48.4
1.34,0.0,0.0,0.0,0.0,0.0,0.0,0.0,0.0,0.0,0.0,0.0,0.0,0.0,-0.73,-0.86,1.02,0.0,0.0,0.0,1.0,0.0,4.75,1.75,2.75,1.25,2.0,5.5,4.25,8.75,9.25,6.25,7.75,0.08,0.08,0.95,933.5,-1.9,-46.5
1.36,0.0,0.0,0.0,0.0,0.0,0.0,0.0,0.0,0.0,0.0,0.0,0.0,0.0,-1.11,-0.67,1.52,0.0,0.0,0.0,1.25,0.0,6.0,2.0,3.0,1.25,2.25,5.5,4.0,8.75,8.75,6.25,7.75,0.08,0.08,0.95,893.87,-2.9,-42.0
1.38,0.0,0.0,0.0,1.0,0.0,0.0,0.25,0.0,0.0,0.0,0.0,0.0,0.0,-2.05,-0.05,1.39,0.0,18.7,54.7,1.25,0.0,7.25,1.5,2.75,1.0,2.5,5.5,4.0,8.25,8.5,6.0,7.25,0.08,0.08,0.95,858.82,-4.1,-39.8
1.4,0.0,0.0,0.0,0.0,0.0,0.0,0.0,0.0,0.0,0.0,0.0,0.0,0.0,-2.61,0.39,0.77,0.0,0.0,0.0,1.75,0.0,8.25,2.0,2.5,0.75,2.5,4.75,3.75,8.0,8.25,5.5,6.25,0.08,0.08,0.95,824.2,-5.9,-34.3
1.42,0.0,0.0,0.0,0.5,0.0,0.0,0.5,0.0,0.75,0.0,0.0,0.0,0.0,-2.3,0.83,0.2,0.0,17.1,5.5,2.25,0.25,9.0,2.0,2.75,1.25,3.0,4.25,3.75,7.25,7.75,5.25,5.75,0.08,0.08,0.95,790.23,-7.1,-27.6
1.44,0.0,0.0,0.0,0.0,0.0,0.0,2.5,0.0,0.0,0.0,0.0,0.0,0.0,-2.11,0.83,-0.05,0.0,32.4,27.3,2.75,0.25,9.25,2.25,2.75,1.0,3.5,4.25,3.75,7.0,7.25,4.75,5.0,0.02,0.08,0.95,758.83,-8.2,-23.0
1.46,0.0,0.0,0.0,0.0,0.0,0.0,0.0,0.0,0.0,0.0,0.0,0.0,0.0,-1.73,0.39,1.14,0.0,0.0,0.0,3.75,0.25,9.75,2.25,2.75,1.25,3.5,3.0,3.25,5.75,6.5,3.75,3.75,0.08,0.14,0.95,713.65,-10.7,-12.6
1.48,0.0,0.0,0.0,0.0,0.0,0.0,0.0,0.0,0.0,0.0,0.0,0.0,0.0,-1.36,0.77,0.95,0.0,0.0,0.0,4.0,0.0,11.0,2.25,3.0,1.25,4.0,2.75,3.25,4.25,5.75,2.75,2.75,0.02,0.14,0.95,668.7,-13.2,-2.4
1.5,0.0,0.0,0.0,0.0,0.0,0.0,0.0,0.0,0.0,0.0,0.0,0.0,0.0,-1.73,1.45,0.83,0.0,0.0,0.0,5.0,0.0,12.0,2.5,2.75,1.25,4.0,1.75,2.75,3.5,4.0,2.5,2.25,0.08,0.14,1.02,622.7,-16.1,8.6
1.52,0.0,0.0,0.0,0.25,0.0,0.0,0.0,0.0,2.0,0.0,0.0,0.0,0.0,-1.8,1.64,0.83,12.35,12.7,-27.2,3.75,0.0,11.0,2.75,2.75,2.0,3.5,1.5,1.5,1.25,2.0,1.0,0.75,0.14,0.2,1.14,536.2,-18.4,28.7
1.54,0.0,0.0,0.25,1.25,0.0,0.0,1.75,0.5,2.75,0.0,0.0,0.0,0.0,-1.42,1.77,0.83,41.43,14.9,-1.7,5.25,0.25,12.0,2.75,2.75,1.25,3.5,1.5,1.5,2.0,1.75,1.0,1.5,0.14,0.2,1.14,489.2,-19.1,28.3
1.56,0.0,0.0,0.0,0.0,0.0,0.0,0.0,0.0,0.0,0.0,0.0,0.0,0.0,-1.05,1.77,1.2,38.75,0.0,0.0,5.25,0.0,12.0,2.25,2.75,1.0,2.5,1.25,1.0,1.5,0.75,0.75,0.75,0.58,0.52,1.08,432.71,-21.4,38.2
1.58,0.0,0.0,0.0,0.0,0.0,0.0,0.0,0.0,0.0,0.0,0.0,0.0,0.0,-0.86,1.77,1.27,30.84,0.0,0.0,4.0,0.0,12.0,2.25,2.25,0.0,1.25,1.0,0.5,1.5,0.5,0.25,1.0,0.64,0.64,0.95,381.88,-23.2,40.2
1.6,0.0,0.0,0.0,0.0,0.0,0.0,0.0,0.0,0.0,0.0,0.0,0.0,0.0,-1.55,1.77,0.33,14.05,0.0,0.0,1.0,0.0,7.75,0.0,0.25,0.0,0.25,0.0,0.75,0.0,0.0,0.0,0.0,0.64,0.52,0.83,273.24,-34.8,56.4
1.62,0.0,0.0,0.0,0.0,0.0,0.0,0.0,0.0,2.5,0.0,0.0,0.0,0.0,-2.61,1.7,0.02,17.75,12.1,-38.5,1.0,0.0,7.0,0.5,0.5,0.0,1.0,0.0,0.0,0.0,0.0,0.0,0.75,0.45,0.45,0.83,193.04,-30.5,49.6
1.64,0.0,0.0,0.0,0.0,0.0,0.0,0.0,0.0,0.0,0.0,0.0,0.0,0.25,-2.23,2.08,-0.17,12.51,-13.7,-109.8,0.75,0.0,5.0,0.0,0.5,1.0,0.75,0.0,0.75,1.0,0.0,0.0,0.75,0.14,0.45,0.77,113.36,-18.7,26.0
1.66,0.0,0.0,0.0,0.0,0.0,0.0,0.0,0.0,0.0,0.0,0.0,0.0,0.0,-0.67,0.58,1.33,10.96,0.0,0.0,0.0,0.0,3.5,0.0,0.25,0.0,0.25,0.0,0.0,0.0,0.0,0.0,0.0,-0.17,0.83,0.64,40.01,-35.1,59.4
1.68,0.0,0.0,0.0,0.0,0.0,0.0,0.0,0.0,0.0,0.0,0.0,0.0,0.0,-0.61,-0.67,0.83,5.51,0.0,0.0,0.0,0.0,1.5,0.0,0.25,0.0,0.25,0.0,0.0,0.0,0.0,0.0,0.75,-0.11,0.7,0.52,0.0,-18.8,10.3
1.7,0.0,0.0,0.0,0.25,0.0,0.0,0.0,0.0,0.25,0.5,0.0,0.0,0.0,-0.3,0.27,1.02,6.41,-0.3,-31.8,0.0,0.0,1.75,0.0,0.25,0.25,0.75,0.0,0.25,1.0,0.0,0.0,0.0,-0.36,0.58,0.33,0.0,-15.6,14.7
1.72,0.0,0.0,0.0,0.0,0.0,0.5,0.0,3.75,0.25,2.0,0.0,0.0,0.25,-0.17,0.08,0.95,39.41,-15.7,-47.3,0.0,0.0,1.25,0.0,0.5,0.0,0.5,0.0,0.0,0.0,0.0,0.0,0.75,-0.48,0.27,0.33,0.0,-15.4,10.8
1.74,0.0,0.0,1.25,0.0,0.0,1.25,0.25,4.75,1.5,4.0,0.5,2.25,1.5,-0.11,0.02,1.14,125.43,-5.5,-51.1,0.0,0.0,1.0,0.0,0.5,0.25,0.5,0.0,0.25,1.0,0.0,0.0,0.25,-0.48,0.02,0.7,0.0,-6.5,-1.3
1.76,0.0,0.5,1.25,1.25,0.0,1.25,0.5,5.5,2.0,5.25,2.5,2.5,3.0,-0.17,0.02,0.95,229.72,-3.3,-48.6,0.0,0.0,1.0,0.0,0.5,0.0,0.25,0.0,0.0,0.0,0.0,0.0,0.25,-0.36,-0.17,0.95,0.0,-19.0,34.6
1.78,0.0,0.5,1.5,1.5,0.0,1.25,0.5,6.0,2.25,5.75,3.0,3.5,3.5,-0.17,0.02,0.95,321.66,-2.6,-50.5,0.0,0.0,0.75,0.0,0.25,0.0,0.25,0.0,0.0,0.0,0.0,0.0,0.0,-0.23,-0.17,1.02,0.0,-27.5,55.7
1.8,0.0,0.0,2.0,1.75,0.0,0.75,0.5,6.0,2.5,6.0,3.75,3.5,4.25,-0.17,0.02,0.95,412.82,-1.7,-53.7,0.0,0.0,0.0,0.0,0.25,0.0,0.0,0.0,0.0,0.0,0.0,0.0,0.0,0.08,-0.17,0.77,0.0,3.3,53.4
1.82,0.0,0.0,2.5,1.5,0.0,0.25,0.5,6.0,2.75,6.25,4.5,4.5,5.25,-0.17,0.02,0.95,495.57,-0.7,-57.9,0.0,0.0,1.25,0.0,0.5,0.0,0.25,0.0,0.0,0.0,0.0,0.0,0.5,0.39,-0.48,0.7,0.0,-17.6,22.4
1.84,0.0,0.0,2.25,1.0,0.0,0.0,0.5,6.0,3.0,6.25,5.25,4.5,5.25,-0.17,0.02,0.95,547.21,-0.8,-61.5,0.0,0.0,0.75,0.0,0.25,0.0,0.25,0.0,0.25,0.0,0.0,0.0,0.0,1.39,-1.23,0.7,0.0,-24.8,39.4
1.86,0.0,0.0,2.0,1.0,0.0,0.0,0.5,6.0,3.5,6.5,5.75,5.25,6.0,-0.17,0.02,0.95,594.72,-0.9,-64.4,0.0,0.0,1.5,0.25,0.5,0.0,0.5,0.0,0.25,1.5,0.5,0.25,0.25,-0.05,-2.36,0.08,27.34,-9.8,-12.6
1.88,0.0,0.0,1.25,1.0,0.0,0.0,0.5,5.5,3.5,7.0,6.25,5.75,6.25,-0.17,0.02,0.95,630.96,-1.5,-68.6,0.0,0.0,2.75,0.0,0.5,0.25,0.75,0.0,0.75,3.75,3.25,3.0,2.0,0.83,0.2,3.2,113.29,-5.7,-52.8
1.9,0.0,0.0,0.75,0.0,0.0,0.0,0.25,5.5,3.5,7.0,6.75,6.0,6.75,-0.23,0.02,1.02,651.64,-2.7,-75.4,0.0,0.0,1.75,0.0,0.5,0.25,0.75,0.0,1.0,3.5,3.0,2.5,2.75,0.7,-0.17,0.52,182.99,-2.8,-60.3
1.92,0.0,0.0,0.0,1.0,0.0,0.0,0.25,4.75,3.5,7.0,7.0,6.25,6.75,-0.23,0.02,1.02,652.44,-2.5,-75.4,0.0,0.0,3.0,0.0,1.0,0.25,0.75,0.0,1.0,5.25,2.5,2.75,3.0,-0.23,0.14,0.89,243.89,-3.0,-51.1
1.94,0.0,0.0,1.25,1.0,0.0,0.0,0.25,4.75,3.0,7.0,7.0,6.25,7.25,-0.17,0.02,1.02,646.8,-1.4,-71.7,0.0,0.0,3.25,0.25,1.5,0.75,0.75,0.5,1.25,5.75,4.5,4.0,4.25,0.08,0.14,1.02,303.51,-2.2,-52.6
1.96,0.0,0.0,0.5,1.0,0.0,0.0,0.0,3.75,2.5,6.25,6.75,6.25,7.25,-0.11,0.02,1.02,610.02,-2.0,-76.4,0.0,0.0,2.75,0.0,1.25,0.75,0.75,1.5,1.25,7.25,6.0,5.5,5.75,-0.05,0.08,1.02,392.75,-0.1,-63.3
1.98,0.0,0.0,1.25,1.0,0.0,0.0,0.0,2.5,1.5,5.75,5.5,5.75,7.0,-0.17,0.02,1.08,547.14,-1.2,-74.9,0.0,0.0,2.5,0.5,1.5,0.25,0.75,2.25,1.5,7.75,7.25,5.75,6.5,0.02,0.08,0.95,495.79,0.0,-63.9
2.0,0.0,0.0,1.25,1.0,0.0,0.0,0.0,2.0,1.25,5.25,4.75,5.75,6.75,-0.3,0.02,0.83,480.5,-1.0,-75.5,0.0,0.0,2.75,0.5,2.25,0.75,0.75,3.0,1.5,7.75,7.25,5.75,6.75,0.02,0.08,0.95,594.06,0.4,-59.1
2.02,0.0,0.0,0.75,1.0,0.0,0.0,0.0,1.75,1.0,5.25,0.0,5.75,6.75,-0.48,-0.05,0.77,398.68,-4.2,-79.4,0.0,0.0,3.75,0.75,1.25,1.25,1.0,3.0,1.5,8.0,7.25,5.75,6.75,0.02,0.08,0.95,662.84,-0.4,-57.3
2.04,0.0,0.0,1.25,1.0,0.0,0.0,0.0,1.25,1.0,5.25,4.0,6.0,6.75,-0.36,-0.05,0.83,367.27,-0.9,-77.2,0.0,0.0,4.0,1.25,1.5,0.75,1.0,3.0,1.75,7.5,7.25,5.75,6.5,0.02,0.14,0.95,693.17,-1.5,-54.6
2.06,0.0,0.0,0.75,1.0,0.0,0.0,0.0,1.0,0.75,4.75,0.0,5.75,6.75,0.08,-0.11,0.83,322.04,-3.7,-81.5,0.25,0.25,4.0,1.25,1.5,1.0,1.25,3.0,2.0,8.0,7.25,6.0,6.5,0.02,0.08,0.95,708.59,-1.6,-52.5
2.08,0.0,0.0,1.25,1.0,0.0,0.0,0.0,0.5,0.75,4.0,0.0,5.25,6.25,0.27,0.14,1.58,290.74,-1.9,-77.5,0.0,0.0,4.25,1.0,1.75,1.25,1.25,3.0,2.0,8.0,7.25,5.75,6.5,0.02,0.14,0.95,709.62,-1.3,-52.7
2.1,0.0,0.0,1.25,1.0,0.0,0.0,0.0,0.25,0.5,2.75,0.0,5.0,6.0,-0.42,-0.05,0.89,255.33,-0.8,-77.8,0.0,0.0,4.75,0.75,1.5,1.25,1.25,3.0,2.0,7.75,7.25,5.75,6.75,0.02,0.08,0.95,698.85,-1.7,-53.0
2.12,0.0,0.0,0.5,0.5,0.0,0.0,0.0,0.5,0.25,2.75,0.0,4.5,5.25,-0.48,-0.17,0.52,222.42,-3.7,-87.4,0.0,0.0,4.75,0.75,1.75,0.75,1.25,3.0,1.75,8.0,7.25,5.75,6.75,0.02,0.08,0.89,679.42,-1.7,-53.5
2.14,0.0,0.0,0.25,1.0,0.0,0.0,0.0,0.25,0.25,3.0,0.0,4.5,5.25,-0.11,-0.17,0.52,197.15,-3.7,-85.4,0.0,0.0,5.0,1.0,1.75,1.25,1.25,3.0,2.0,7.75,7.25,5.75,6.75,0.02,0.08,0.95,671.77,-1.9,-50.9
2.16,0.0,0.0,0.75,1.0,0.0,0.0,0.0,0.25,0.25,3.75,0.0,5.25,5.5,0.02,-0.17,1.02,195.91,-2.5,-82.0,0.25,0.0,5.25,1.25,1.25,2.0,1.25,3.0,2.0,8.0,7.25,6.0,6.5,0.02,0.08,0.95,662.06,-2.1,-48.9
2.18,0.0,0.0,0.75,1.0,0.0,0.0,0.0,0.25,0.25,3.75,0.0,5.25,6.0,-0.11,0.08,1.27,207.79,-2.9,-82.8,0.5,0.25,5.0,0.0,1.0,0.75,1.25,3.0,1.75,7.75,7.25,5.75,6.75,0.02,0.08,0.95,636.07,-2.3,-54.3
2.2,0.0,0.0,1.0,1.0,0.0,0.0,0.0,0.0,0.5,4.0,0.0,5.25,6.0,-0.23,0.08,1.02,225.91,-2.0,-80.6,0.0,0.0,4.0,0.5,1.5,0.5,1.0,2.75,1.5,8.0,7.75,6.25,6.75,0.02,0.08,0.95,616.52,-1.3,-59.0
2.22,0.0,0.0,1.0,1.0,0.0,0.0,0.0,0.25,0.5,4.0,1.0,5.25,6.0,0.14,-0.05,0.89,246.17,-1.6,-79.8,0.0,0.0,3.75,0.0,1.25,1.0,0.75,2.75,1.5,8.0,7.75,6.25,7.25,0.02,0.08,0.89,601.37,-0.3,-62.0
2.24,0.0,0.0,1.0,1.0,0.0,0.0,0.0,0.5,0.75,4.5,0.0,5.5,6.0,0.52,0.02,1.02,261.7,-2.4,-79.3,0.0,0.0,3.75,0.5,0.5,1.25,0.75,2.75,1.5,7.75,7.75,6.5,7.25,0.02,0.08,0.95,593.87,-0.6,-62.6
2.26,0.0,0.0,1.25,1.0,0.0,0.0,0.0,0.75,0.75,5.25,1.5,5.5,6.25,-0.05,-0.05,0.95,284.61,-1.8,-77.2,0.0,0.0,3.75,0.25,1.25,1.0,0.75,2.5,1.5,8.0,7.75,6.25,7.25,0.02,0.08,0.95,589.73,-0.5,-61.3
2.28,0.0,0.0,1.0,1.0,0.0,0.0,0.0,1.5,0.75,5.25,2.5,5.75,6.25,-0.17,0.02,0.95,309.13,-2.1,-77.7,0.0,0.0,3.75,0.0,1.25,0.75,0.75,1.75,1.5,7.75,7.75,6.0,6.75,0.02,0.08,0.95,574.89,-1.1,-62.1
2.3,0.0,0.0,1.0,1.0,0.0,0.0,0.0,1.25,1.0,5.0,3.0,5.75,6.25,-0.05,0.08,1.08,340.66,-1.4,-77.7,0.0,0.0,3.25,0.0,0.5,0.5,0.75,1.75,1.5,7.25,7.25,5.75,6.5,0.02,0.08,0.95,542.88,-1.0,-66.4
2.32,0.0,0.0,1.25,1.0,0.0,0.0,0.0,1.75,1.0,5.25,3.0,5.75,6.5,-0.11,0.02,0.89,365.18,-1.6,-75.9,0.0,0.0,2.5,0.5,0.5,0.75,0.75,1.5,1.5,7.0,7.25,5.75,6.25,0.02,0.08,0.95,510.11,-0.6,-66.5
2.34,0.0,0.0,0.25,0.0,0.0,0.0,0.0,2.0,1.5,5.75,5.0,5.75,6.75,-0.17,0.02,1.02,390.64,-3.2,-85.5,0.0,0.0,2.25,0.0,1.0,1.0,0.75,1.5,1.5,6.75,7.25,5.5,6.0,0.02,0.08,0.95,480.91,0.0,-66.0
2.36,0.0,0.0,0.0,0.0,0.0,0.0,0.0,2.0,1.5,6.0,5.5,5.75,6.75,-0.11,0.02,0.95,412.32,-3.5,-86.6,0.0,0.0,1.25,0.0,0.5,0.75,0.75,1.5,1.25,6.75,6.5,4.75,5.75,0.02,0.08,0.95,442.51,1.5,-72.1
2.38,0.0,0.0,0.0,0.0,0.0,0.0,0.25,2.0,1.75,5.25,5.5,5.75,6.25,-0.11,0.02,0.95,420.14,-2.6,-85.6,0.0,0.0,1.25,0.25,0.5,0.75,0.5,1.25,1.0,6.25,6.0,5.0,5.75,0.02,0.08,0.95,408.24,1.3,-72.1
2.4,0.0,0.0,0.25,0.0,0.0,0.0,0.25,2.0,1.5,5.25,5.0,5.5,6.0,-0.11,0.02,0.95,413.87,-2.6,-84.2,0.0,0.0,1.25,0.0,0.5,0.5,0.5,1.25,1.0,6.0,5.0,4.0,5.0,-0.05,0.08,0.95,368.9,1.6,-71.6
2.42,0.0,0.0,0.75,0.5,0.0,0.0,0.25,1.75,1.5,5.25,4.0,5.25,6.0,-0.11,0.02,0.95,399.31,-1.8,-78.8,0.0,0.0,1.25,0.0,0.5,1.0,0.5,1.25,0.75,5.25,4.5,4.0,4.75,0.02,0.08,0.95,335.19,1.9,-69.2
2.44,0.0,0.0,0.0,0.0,0.0,0.0,0.25,1.75,1.25,5.0,4.0,4.5,5.25,-0.11,0.02,0.95,371.64,-3.7,-85.4,0.0,0.0,1.0,0.0,0.5,0.25,0.5,1.0,0.75,4.0,4.0,3.25,4.25,0.02,0.08,0.95,291.24,1.0,-71.9
2.46,0.0,0.0,0.0,1.0,0.0,0.0,0.25,2.0,1.0,4.0,3.25,4.5,5.25,-0.17,0.02,0.95,342.4,-2.9,-79.1,0.0,0.0,1.0,0.0,1.0,0.25,0.25,0.25,0.75,4.25,3.75,2.5,3.75,0.02,0.08,0.95,259.01,1.0,-67.2
2.48,0.0,0.0,0.0,0.75,0.0,0.0,0.0,1.75,1.0,3.75,2.5,3.5,4.25,-0.11,0.02,0.95,300.2,-3.7,-79.1,0.0,0.0,1.25,0.0,1.0,1.25,0.25,0.0,0.75,4.0,2.75,2.5,3.25,0.02,0.14,0.95,228.72,1.5,-58.2
2.5,0.0,0.0,0.0,0.0,0.0,0.0,0.0,1.25,1.0,3.75,2.25,3.5,4.0,-0.17,0.08,0.95,268.14,-4.4,-86.8,0.0,0.0,1.0,0.0,1.0,0.0,0.25,0.0,0.75,3.5,2.75,2.25,2.75,0.02,0.08,0.95,200.22,-0.2,-64.6
2.52,0.0,0.0,0.0,0.0,0.0,0.0,0.0,1.0,0.75,2.75,1.25,2.5,3.75,-0.17,0.08,0.95,225.12,-5.7,-88.3,0.0,0.0,0.75,0.0,0.5,0.75,0.25,0.0,0.75,1.75,2.0,1.75,2.5,0.02,0.14,0.95,166.0,0.1,-61.8
2.54,0.0,0.0,0.0,0.25,0.0,0.0,0.0,0.5,0.5,2.25,0.0,2.5,2.75,-0.17,0.08,0.95,176.54,-5.6,-88.1,0.0,0.0,0.75,0.0,0.5,0.25,0.25,0.0,0.75,3.0,1.75,1.0,2.5,0.02,0.14,0.95,139.73,1.8,-64.0
2.56,0.0,0.0,0.0,0.75,0.0,0.0,0.0,0.25,0.25,2.0,0.0,2.0,2.75,-0.17,0.08,0.95,130.36,-4.9,-80.7,0.0,0.0,0.75,0.25,0.5,0.75,0.25,0.0,0.75,2.75,1.75,1.25,2.25,0.02,0.14,0.95,123.38,1.4,-56.7
2.58,0.0,0.0,0.0,0.5,0.0,0.0,0.0,0.0,0.25,2.0,0.0,1.75,2.25,-0.17,0.08,0.95,92.17,-5.2,-84.3,0.0,0.0,0.75,0.0,1.0,0.5,0.25,0.0,0.75,2.25,1.75,1.25,1.5,0.02,0.14,0.95,112.52,0.0,-50.4
2.6,0.0,0.0,0.0,1.0,0.0,0.0,0.0,0.25,0.25,2.0,0.0,1.5,1.75,-0.17,0.08,0.95,69.56,-3.8,-68.9,0.0,0.25,0.75,0.0,1.0,0.5,0.25,0.0,0.5,3.0,1.75,0.5,1.5,0.02,0.14,0.95,110.14,1.7,-44.3
2.62,0.0,0.0,0.0,1.0,0.0,0.0,0.0,0.25,0.25,2.0,0.0,1.5,1.75,-0.17,0.08,0.95,59.98,-3.8,-68.9,0.0,0.0,0.75,0.0,1.0,0.5,0.25,0.0,0.75,2.75,1.75,1.0,1.5,0.02,0.14,0.95,112.84,0.9,-50.2
2.64,0.0,0.0,0.25,1.0,0.0,0.0,0.0,0.25,0.25,1.25,0.0,1.5,1.75,-0.17,0.08,0.95,56.58,-0.6,-62.8,0.0,0.0,0.75,0.0,0.5,0.0,0.25,0.0,0.75,2.75,1.5,0.75,1.5,0.02,0.14,0.95,112.58,0.1,-59.3
2.66,0.0,0.0,0.25,1.0,0.0,0.0,0.0,0.25,0.25,1.5,0.0,1.25,1.75,-0.17,0.08,1.02,57.41,-1.6,-61.5,0.0,0.0,0.75,0.0,0.5,0.0,0.25,0.0,0.75,2.5,1.5,0.75,1.5,0.02,0.14,0.95,111.6,-0.2,-58.8
2.68,0.0,0.0,0.25,0.75,0.0,0.0,0.0,0.25,0.25,1.25,0.0,1.25,1.75,-0.17,0.08,0.95,59.88,-1.8,-66.3,0.0,0.0,1.0,0.0,0.5,1.0,0.25,0.0,0.75,2.5,1.5,0.25,1.5,0.02,0.14,0.95,114.86,1.4,-43.1
2.7,0.0,0.0,0.25,1.0,0.0,0.0,0.0,0.25,0.25,1.25,0.0,1.25,1.5,-0.23,0.08,0.89,63.47,-0.5,-58.8,0.0,0.0,0.75,0.0,0.5,0.0,0.25,0.0,0.75,2.5,1.5,0.25,1.5,0.02,0.14,0.95,113.76,0.2,-55.6
2.72,0.0,0.0,0.0,0.5,0.0,0.0,0.0,0.25,0.25,1.0,0.0,1.25,1.5,-0.36,0.14,0.95,64.91,-3.7,-77.0,0.0,0.0,0.75,0.25,0.5,0.5,0.25,0.0,0.5,2.75,1.25,0.25,1.25,0.02,0.14,0.95,113.95,1.7,-45.6
2.74,0.0,0.0,0.0,0.5,0.0,0.0,0.0,0.25,0.0,0.5,0.0,0.5,1.25,-0.48,0.14,0.89,56.33,-5.3,-69.7,0.0,0.0,0.75,0.0,0.5,0.0,0.25,0.0,0.75,2.0,1.25,0.0,1.5,0.02,0.14,0.95,110.06,-0.1,-51.5
2.76,0.0,0.0,0.0,0.75,0.0,0.0,0.0,0.0,0.25,0.5,0.0,0.5,1.0,-0.3,0.14,0.89,49.06,-0.3,-55.4,0.0,0.25,0.75,0.0,0.5,0.5,0.25,0.0,0.75,2.25,0.75,0.25,1.25,0.02,0.14,0.95,108.35,1.3,-40.1
2.78,0.0,0.0,0.0,0.5,0.0,0.0,0.0,0.25,0.25,0.5,0.0,0.5,0.5,-0.05,0.08,0.95,39.28,-1.0,-54.4,0.0,0.0,0.75,0.0,0.5,0.5,0.25,0.0,0.75,2.25,1.0,0.25,1.25,0.02,0.14,0.95,105.02,1.4,-46.1
2.8,0.0,0.0,0.0,0.25,0.0,0.0,0.0,0.25,0.25,0.5,0.0,0.5,1.5,0.08,0.02,0.95,38.28,-6.4,-80.6,0.0,0.0,0.75,0.0,0.5,0.5,0.25,0.0,0.75,2.25,0.75,0.25,1.0,0.02,0.14,0.95,102.47,1.3,-42.7
2.82,0.0,0.0,0.0,0.75,0.0,0.0,0.0,0.25,0.25,0.5,0.0,0.5,1.5,0.14,-0.05,1.02,42.16,-3.2,-61.6,0.0,0.0,0.75,0.0,0.5,0.5,0.25,0.0,0.75,2.25,0.75,0.5,1.0,0.02,0.14,0.95,102.87,1.0,-45.0
2.84,0.0,0.0,0.0,0.75,0.0,0.0,0.0,0.25,0.25,0.5,0.0,0.5,1.5,0.14,-0.05,1.02,48.24,-3.2,-61.6,0.0,0.0,0.75,0.0,0.5,0.0,0.25,0.0,0.5,2.0,0.5,0.25,1.0,0.02,0.14,0.95,95.62,0.0,-46.4
2.86,0.0,0.0,0.0,0.5,0.0,0.0,0.0,0.25,0.25,0.5,0.0,0.5,1.0,-0.05,0.02,0.89,48.18,-3.1,-63.7,0.0,0.0,0.75,0.5,0.5,0.25,0.25,0.0,0.5,1.75,0.75,0.25,1.0,0.02,0.14,0.95,92.68,-1.4,-35.0
2.88,0.0,0.0,0.0,1.0,0.0,0.0,0.0,0.25,0.25,0.5,0.0,0.25,1.0,-0.23,0.08,0.89,47.89,-0.8,-41.1,0.0,0.0,0.75,0.25,0.5,0.25,0.25,0.0,0.5,1.75,0.75,0.25,1.0,0.02,0.14,0.95,89.61,-0.8,-38.9
2.9,0.0,0.0,0.0,0.0,0.0,0.0,0.0,0.75,0.25,0.5,0.0,0.25,0.75,-0.17,0.14,1.08,43.42,-10.2,-74.9,0.0,0.0,0.75,0.0,0.5,0.0,0.25,0.0,0.5,1.75,0.75,0.0,0.75,0.02,0.14,0.95,84.13,-1.4,-40.1
2.92,0.0,0.0,0.0,0.0,0.0,0.0,0.0,0.25,0.25,0.5,0.0,0.25,0.5,-0.17,0.08,0.95,36.71,-7.8,-80.0,0.0,0.0,0.75,0.5,0.5,0.25,0.25,0.0,0.5,1.5,0.75,0.25,0.75,0.02,0.14,0.95,82.05,-2.8,-30.0
2.94,0.0,0.0,0.0,0.0,0.0,0.0,0.0,0.0,0.25,0.5,0.0,0.0,0.5,-0.17,0.08,0.95,28.46,-9.4,-82.3,0.0,0.0,0.75,0.0,0.5,0.25,0.25,0.0,0.5,1.5,0.5,0.0,0.75,0.02,0.14,0.95,77.19,-0.6,-33.1
2.96,0.0,0.0,0.0,0.0,0.0,0.0,0.0,0.0,0.25,0.5,0.0,0.25,0.5,-0.17,0.08,0.95,24.63,-6.4,-86.8,0.0,0.0,0.75,0.0,0.5,0.25,0.25,0.0,0.25,1.75,0.5,0.25,0.75,0.02,0.14,0.95,75.35,0.2,-38.5
2.98,0.0,0.0,0.5,0.0,0.0,0.0,0.0,0.0,0.25,0.5,0.0,0.0,0.5,-0.17,0.08,0.95,23.11,4.3,-40.7,0.0,0.0,0.75,0.0,0.5,0.25,0.25,0.0,0.5,1.5,0.5,0.25,0.75,0.02,0.14,0.95,73.71,-1.0,-36.8
3.0,0.0,0.0,0.0,0.0,0.0,0.0,0.0,0.0,0.25,0.5,0.0,0.0,0.5,-0.17,0.08,0.95,20.32,-9.4,-82.3,0.0,0.0,0.75,0.0,0.5,0.75,0.25,0.0,0.5,1.0,0.5,0.25,0.75,0.02,0.14,0.95,73.07,-0.4,-26.6
3.02,0.0,0.0,0.5,0.0,0.0,0.0,0.0,0.0,0.25,0.5,0.0,0.0,0.5,-0.17,0.08,0.95,20.59,4.3,-40.7,0.0,0.0,0.75,0.0,0.5,0.25,0.25,0.0,0.5,0.5,0.5,0.25,0.75,0.02,0.14,0.95,67.57,-5.0,-27.6
3.04,0.0,0.0,0.5,0.0,0.0,0.0,0.0,0.25,0.25,0.25,0.0,0.0,0.5,-0.17,0.08,0.95,20.19,4.2,-35.6,0.0,0.0,0.75,0.0,1.0,0.5,0.25,0.0,0.25,1.5,0.5,0.0,0.75,0.02,0.14,0.95,70.5,1.2,-20.9
3.06,0.0,0.0,0.25,0.0,0.0,0.0,0.0,0.25,0.25,0.5,0.0,0.0,0.5,-0.17,0.08,0.95,21.8,-3.5,-55.3,0.0,0.25,0.75,0.0,1.0,0.0,0.25,0.0,0.5,1.25,0.5,0.25,0.75,0.02,0.14,0.95,73.3,-2.9,-22.3
3.08,0.0,0.0,0.0,0.0,0.0,0.0,0.0,0.0,0.25,0.5,0.0,0.0,0.25,-0.17,0.08,0.95,19.59,-8.3,-75.2,0.0,0.0,0.75,0.0,1.0,0.25,0.25,0.0,0.5,1.25,0.5,0.0,0.75,0.02,0.14,0.95,76.94,-0.9,-21.6
3.1,0.0,0.0,0.25,0.0,0.0,0.0,0.0,0.25,0.25,0.25,0.0,0.0,0.25,-0.17,0.08,0.95,19.07,0.9,-40.1,0.0,0.0,0.75,0.25,0.5,0.0,0.25,0.0,0.25,1.25,0.5,0.25,0.75,0.02,0.14,0.95,75.31,-3.4,-32.9
3.12,0.0,0.0,0.5,0.0,0.0,0.0,0.0,0.25,0.0,0.0,0.0,0.0,0.5,-0.17,0.08,0.95,17.44,6.6,-27.2,0.0,0.0,0.75,0.0,0.5,0.25,0.25,0.0,0.25,0.25,0.5,0.0,0.75,0.02,0.14,0.95,67.6,-5.7,-17.4
3.14,0.0,0.0,0.0,0.0,0.0,0.0,0.0,0.25,0.25,0.0,0.0,0.0,0.5,-0.17,0.08,0.95,17.07,-8.1,-74.9,0.0,0.0,0.75,0.0,0.5,0.0,0.25,0.0,0.5,1.25,0.5,0.25,0.75,0.02,0.14,0.95,66.4,-3.1,-38.3
3.16,0.0,0.0,0.0,0.0,0.0,0.0,0.0,0.25,0.25,0.0,0.0,0.25,0.5,-0.17,0.08,0.95,18.53,-4.7,-81.8,0.0,0.0,0.75,0.5,0.5,0.25,0.25,0.0,0.25,0.25,0.5,0.0,0.75,0.02,0.14,0.95,61.94,-7.2,-7.5
3.18,0.0,0.0,0.0,0.25,0.0,0.0,0.0,0.25,0.25,0.0,0.0,0.25,0.25,-0.17,0.08,0.95,19.24,1.5,-47.1,0.0,0.0,0.75,0.0,0.5,0.25,0.25,0.0,0.25,1.0,0.5,0.0,0.75,0.02,0.14,0.95,62.37,-1.9,-27.8
3.2,0.0,0.0,0.0,0.0,0.0,0.0,0.25,0.25,0.25,0.0,0.0,0.25,0.25,-0.17,0.08,0.95,18.93,1.2,-63.7,0.0,0.0,0.75,0.25,0.5,0.0,0.25,0.0,0.25,1.0,0.5,0.0,0.75,0.02,0.14,0.95,61.09,-4.2,-25.9
3.22,0.0,0.0,0.25,0.5,0.0,0.0,0.0,0.25,0.25,0.0,0.0,0.0,0.5,-0.17,0.08,0.95,21.55,5.9,-16.5,0.0,0.0,0.75,0.0,0.5,0.25,0.25,0.0,0.25,0.75,0.25,0.0,0.75,0.02,0.14,0.95,59.1,-2.5,-21.4
3.24,0.0,0.0,0.25,0.0,0.0,0.0,0.0,0.25,0.0,0.0,0.0,0.0,0.25,-0.17,0.08,0.95,18.71,2.7,-29.1,0.0,0.0,0.75,0.0,0.5,0.75,0.25,0.0,0.25,0.5,0.5,0.0,0.75,0.02,0.14,0.95,59.03,-1.2,-15.1
3.26,0.0,0.0,0.0,0.0,0.0,0.0,0.0,0.0,0.0,0.0,0.0,0.0,0.25,-0.17,0.08,0.95,13.27,-13.7,-109.8,0.0,0.0,0.75,0.0,0.5,0.25,0.25,0.0,0.25,0.75,0.5,0.0,0.75,0.02,0.14,0.95,58.11,-3.0,-24.7
3.28,0.0,0.0,0.0,0.5,0.0,0.0,0.0,0.0,0.25,0.0,0.0,0.0,0.25,-0.17,0.08,0.95,11.75,8.2,-7.2,0.0,0.0,0.75,0.0,0.5,0.5,0.25,0.0,0.25,1.0,0.5,0.25,0.75,0.02,0.14,0.95,61.26,-1.0,-29.0
3.3,0.0,0.0,0.25,0.25,0.0,0.0,0.0,0.25,0.25,0.0,0.0,0.0,0.25,-0.17,0.08,0.95,13.39,7.5,-13.0,0.0,0.0,0.75,0.25,0.5,0.0,0.25,0.0,0.25,0.5,0.5,0.0,0.75,0.02,0.14,0.95,59.99,-6.9,-19.3
3.32,0.0,0.0,0.5,0.0,0.0,0.0,0.0,0.25,0.25,0.0,0.0,0.25,0.5,-0.17,0.08,0.95,19.21,7.7,-40.4,0.0,0.0,0.75,0.0,1.0,0.25,0.25,0.0,0.25,1.0,0.0,0.0,0.75,0.02,0.14,0.95,62.97,-0.2,-11.5
3.34,0.0,0.0,0.5,0.5,0.0,0.0,0.0,0.25,0.0,0.0,0.0,0.25,0.25,-0.17,0.08,0.95,24.18,12.9,-1.9,0.0,0.0,0.75,0.0,0.5,0.25,0.25,0.0,0.25,0.5,0.5,0.0,0.75,0.02,0.14,0.95,60.69,-4.2,-21.3
3.36,0.0,0.0,0.5,0.5,0.0,0.0,0.0,0.25,0.25,0.0,0.0,0.25,0.25,-0.17,0.08,0.95,29.47,12.8,-6.3,0.0,0.0,0.75,0.0,0.5,0.0,0.25,0.0,0.25,1.5,0.5,0.0,0.75,0.02,0.14,0.95,63.88,-1.2,-36.4
3.38,0.0,0.0,0.25,1.0,0.0,0.0,0.0,0.25,0.0,0.0,0.0,0.0,0.5,-0.17,0.08,0.95,32.48,8.0,4.8,0.0,0.0,0.75,0.0,0.5,0.0,0.25,0.0,0.25,0.75,0.25,0.0,0.75,0.02,0.14,0.95,59.15,-4.2,-25.2
3.4,0.0,0.0,0.25,0.75,0.0,0.0,0.0,0.25,0.0,0.0,0.0,0.25,0.5,-0.17,0.08,0.95,34.05,6.9,-15.7,0.0,0.0,0.75,0.0,0.5,0.0,0.25,0.0,0.25,1.0,0.25,0.25,0.75,0.02,0.14,0.95,60.35,-3.2,-33.6
3.42,0.0,0.0,1.0,0.5,0.0,0.0,0.0,0.25,0.0,0.0,0.0,0.0,0.25,-0.17,0.08,0.95,35.78,19.7,26.7,0.0,0.0,0.75,0.0,0.5,0.25,0.25,0.0,0.25,1.0,0.25,0.0,0.75,0.02,0.14,0.95,58.99,-1.3,-24.8
3.44,0.0,0.0,0.75,0.25,0.0,0.0,0.0,0.25,0.25,0.0,0.0,0.25,0.25,-0.17,0.08,0.95,36.09,15.5,-6.1,0.0,0.0,0.75,0.0,1.0,0.25,0.25,0.0,0.25,1.25,0.0,0.0,0.75,0.02,0.14,0.95,62.97,0.6,-15.0
3.46,0.0,0.0,0.75,0.5,0.0,0.0,0.0,0.0,0.0,0.0,0.0,0.25,0.5,-0.17,0.08,0.95,36.29,16.3,-3.1,0.0,0.0,0.5,0.5,0.5,0.25,0.25,0.0,0.25,0.75,0.0,0.0,0.75,0.02,0.14,0.95,61.88,-1.5,-12.5
3.48,0.0,0.0,0.75,0.25,0.0,0.0,0.0,0.0,0.0,0.0,0.0,0.25,0.25,-0.17,0.08,0.95,33.9,21.2,4.3,0.0,0.0,0.75,0.0,0.5,0.0,0.25,0.0,0.5,1.0,0.25,0.0,0.75,0.02,0.14,0.95,61.79,-3.4,-29.2
3.5,0.0,0.0,0.75,0.5,0.0,0.0,0.0,0.25,0.0,0.25,0.0,0.0,0.5,-0.17,0.08,0.95,34.93,10.1,-3.3,0.0,0.0,0.75,0.0,0.5,0.25,0.25,0.0,0.0,1.0,0.25,0.0,0.75,0.02,0.14,0.95,59.25,-0.6,-23.9
3.52,0.0,0.0,1.0,0.25,0.0,0.0,0.0,0.25,0.0,0.0,0.0,0.0,0.25,-0.17,0.08,0.95,32.67,20.1,22.2,0.0,0.0,0.75,0.0,1.0,0.0,0.25,0.0,0.25,1.25,0.25,0.0,0.75,0.02,0.14,0.95,61.83,-1.1,-20.7
3.54,0.0,0.0,0.75,0.0,0.0,0.0,0.0,0.0,0.25,0.0,0.0,0.0,0.25,-0.17,0.08,0.95,28.9,22.7,7.2,0.0,0.0,0.75,0.0,0.5,0.0,0.25,0.0,0.25,0.75,0.0,0.0,0.75,0.02,0.14,0.95,58.15,-3.7,-21.5
3.56,0.0,0.0,0.5,0.5,0.0,0.0,0.0,0.0,0.0,0.0,0.0,0.0,0.5,-0.17,0.08,0.95,25.91,13.9,3.3,0.0,0.0,0.25,0.0,0.5,0.5,0.25,0.0,0.25,1.0,0.0,0.0,0.75,0.02,0.14,0.95,56.01,6.4,-30.1
3.58,0.0,0.0,0.75,0.25,0.0,0.0,0.0,0.25,0.25,0.0,0.0,0.0,0.5,-0.17,0.08,0.95,26.73,12.6,-6.6,0.0,0.0,0.75,0.25,1.0,0.5,0.25,0.0,0.0,1.0,0.0,0.0,0.75,0.02,0.14,0.95,59.59,0.6,-3.6
3.6,0.0,0.0,0.5,0.5,0.0,0.0,0.0,0.0,0.0,0.0,0.0,0.0,0.25,-0.17,0.08,0.95,24.54,19.4,25.8,0.0,0.0,0.75,0.0,0.5,0.25,0.25,0.0,0.25,1.25,0.0,0.0,0.75,0.02,0.14,0.95,60.24,0.2,-25.0
3.62,0.0,0.0,0.75,0.5,0.0,0.0,0.0,0.25,0.0,0.0,0.0,0.0,0.25,-0.17,0.08,0.95,26.07,17.1,21.8,0.0,0.0,0.75,0.25,0.5,0.25,0.25,0.0,0.25,1.0,0.0,0.0,0.75,0.02,0.14,0.95,62.1,-1.8,-16.3
3.64,0.0,0.0,0.25,0.5,0.0,0.0,0.0,0.0,0.0,0.0,0.0,0.0,0.5,-0.17,0.08,0.95,23.87,9.1,-8.1,0.0,0.0,0.75,0.0,0.5,0.0,0.25,0.0,0.25,1.25,0.25,0.25,0.75,0.02,0.14,0.95,63.04,-2.1,-36.1
3.66,0.0,0.0,0.25,0.25,0.0,0.0,0.0,0.25,0.0,0.0,0.0,0.0,0.25,-0.17,0.08,0.95,20.7,6.4,-6.9,0.0,0.0,0.5,0.0,0.5,0.25,0.25,0.0,0.25,1.0,0.25,0.0,0.75,0.02,0.14,0.95,61.45,1.1,-30.8
3.68,0.0,0.0,0.25,0.25,0.0,0.0,0.0,0.0,0.25,0.0,0.0,0.25,0.25,-0.17,0.08,0.95,18.26,12.6,-26.9,0.0,0.0,0.75,0.0,0.5,0.25,0.25,0.0,0.0,0.5,0.25,0.0,0.75,0.02,0.14,0.95,56.59,-3.2,-15.9
3.7,0.0,0.0,0.0,0.25,0.0,0.0,0.0,0.25,0.25,0.0,0.0,0.25,0.25,-0.17,0.08,0.95,17.86,1.5,-47.1,0.0,0.0,0.75,0.0,0.5,0.25,0.25,0.0,0.25,1.0,0.25,0.0,0.75,0.02,0.14,0.95,56.82,-1.3,-24.8
3.72,0.0,0.0,0.0,0.0,0.0,0.0,0.0,0.25,0.25,0.0,0.0,0.0,0.25,-0.17,0.08,0.95,15.44,-6.2,-63.0,0.0,0.0,0.75,0.0,0.5,0.25,0.25,0.0,0.0,0.5,0.5,0.0,0.75,0.02,0.14,0.95,54.72,-3.7,-20.1
3.74,0.0,0.0,0.0,1.0,0.0,0.0,0.0,0.0,0.0,0.0,0.0,0.0,0.25,-0.11,0.08,0.95,16.28,11.1,24.8,0.0,0.0,0.5,0.0,0.5,0.5,0.25,0.0,0.0,1.0,0.5,0.0,0.75,0.02,0.14,0.95,56.12,2.5,-29.2
3.76,0.0,0.0,0.0,0.5,0.0,0.0,0.0,0.25,0.0,0.0,0.0,0.0,0.25,-0.11,0.08,0.95,16.07,1.2,-7.4,0.0,0.0,0.5,0.0,1.0,0.0,0.25,0.0,0.25,1.5,0.25,0.0,0.75,0.02,0.14,0.95,60.08,1.9,-28.3
3.78,0.0,0.0,0.0,0.25,0.0,0.0,0.0,0.0,0.25,0.0,0.0,0.0,0.25,-0.17,0.08,0.95,14.54,5.2,-29.5,0.0,0.0,0.75,0.0,1.0,0.25,0.25,0.0,0.25,1.25,0.25,0.0,0.75,0.02,0.14,0.95,66.78,0.0,-18.0
3.8,0.0,0.0,0.0,0.5,0.0,0.0,0.0,0.0,0.25,0.0,0.0,0.0,0.5,-0.17,0.08,0.95,14.72,3.8,-27.8,0.0,0.0,0.5,0.5,1.25,1.25,0.25,0.0,0.25,1.5,0.25,0.25,0.75,0.02,0.14,0.95,81.14,3.7,-10.3
3.82,0.0,0.0,0.0,0.5,0.0,0.0,0.0,0.25,0.25,0.0,0.0,0.25,0.25,-0.17,0.08,0.95,17.25,4.2,-29.1,0.0,0.0,0.25,0.0,0.5,0.5,0.25,0.0,0.25,1.0,0.25,0.0,0.75,0.02,0.14,0.95,77.34,5.3,-33.1
3.84,0.0,0.0,0.0,0.5,0.0,0.0,0.0,0.0,0.25,0.0,0.0,0.25,0.25,-0.17,0.08,0.95,19.06,8.3,-27.2,0.0,0.0,0.5,0.0,0.5,0.5,0.25,0.0,0.0,1.0,0.0,0.25,0.75,0.02,0.14,0.95,73.34,3.5,-28.5
3.86,0.0,0.0,0.0,0.0,0.0,0.0,0.0,0.25,0.25,0.0,0.0,0.25,0.25,-0.11,0.08,0.95,19.05,-2.4,-74.6,0.0,0.0,0.5,0.0,1.0,0.0,0.25,0.0,0.25,0.5,0.0,0.0,0.75,0.02,0.14,0.95,62.56,-1.3,-10.7
3.88,0.0,0.0,0.0,0.0,0.0,0.0,0.0,0.25,0.25,0.0,0.0,0.25,0.25,-0.17,0.08,0.95,19.11,-2.4,-74.6,0.0,0.0,0.75,0.0,0.5,0.0,0.25,0.0,0.0,1.0,0.0,0.25,0.75,0.02,0.14,0.95,57.06,-2.1,-30.4
3.9,0.0,0.0,0.0,0.5,0.0,0.0,0.0,0.0,0.25,0.0,0.0,0.25,0.25,-0.11,0.08,0.95,19.01,8.3,-27.2,0.0,0.0,0.75,0.0,0.5,0.25,0.25,0.0,0.25,1.5,0.25,0.25,0.75,0.02,0.14,0.95,59.76,0.0,-34.7
3.92,0.0,0.0,0.0,0.25,0.0,0.0,0.0,0.25,0.25,0.0,0.0,0.25,0.25,-0.11,0.08,0.95,19.31,1.5,-47.1,0.0,0.0,0.75,0.25,0.5,0.25,0.25,0.0,0.5,1.0,0.25,0.25,0.75,0.02,0.14,0.95,65.07,-3.2,-25.4
3.94,0.0,0.0,0.0,0.5,0.0,0.0,0.0,0.25,0.25,0.0,0.0,0.25,0.5,-0.11,0.08,0.95,23.06,1.6,-40.7,0.0,0.0,0.5,0.0,0.5,0.0,0.25,0.0,0.25,1.25,0.25,0.25,0.75,0.02,0.14,0.95,66.36,0.1,-42.4
3.96,0.0,0.0,0.0,0.5,0.0,0.0,0.0,0.0,0.25,0.0,0.0,0.0,0.25,-0.17,0.08,0.95,22.2,8.2,-7.2,0.0,0.0,0.5,0.0,0.5,1.25,0.25,0.0,0.25,1.25,0.25,0.25,0.75,0.02,0.14,0.95,70.34,5.3,-24.9
3.98,0.0,0.0,0.0,0.5,0.0,0.0,0.0,0.0,0.25,0.0,0.0,0.25,0.25,-0.17,0.08,0.95,21.68,8.3,-27.2,0.0,0.0,0.5,0.0,0.5,0.5,0.25,0.0,0.25,0.75,0.0,0.25,0.75,0.02,0.14,0.95,65.43,1.6,-26.0
4.0,0.0,0.0,0.0,0.75,0.0,0.0,0.0,0.25,0.25,0.0,0.0,0.25,0.25,-0.17,0.08,0.95,23.48,6.1,-16.3,0.0,0.0,0.5,0.0,0.5,0.25,0.25,0.0,0.25,1.5,0.25,0.0,0.75,0.02,0.14,0.95,64.16,2.9,-36.1
4.02,0.0,0.0,0.0,0.25,0.0,0.0,0.0,0.25,0.25,0.0,0.0,0.25,0.25,-0.11,0.08,0.95,23.24,1.5,-47.1,0.0,0.0,0.75,0.0,0.5,0.5,0.25,0.0,0.25,1.0,0.25,0.25,0.75,0.02,0.14,0.95,63.14,-0.5,-26.5
4.04,0.0,0.0,0.0,0.5,0.0,0.0,0.0,0.0,0.25,0.0,0.0,0.25,0.25,-0.17,0.08,0.95,22.16,8.3,-27.2,0.0,0.0,0.5,0.0,0.5,0.25,0.25,0.0,0.25,1.0,0.0,0.0,0.75,0.02,0.14,0.95,60.0,2.0,-27.7
4.06,0.0,0.0,0.0,0.5,0.0,0.0,0.0,0.0,0.25,0.0,0.0,0.25,0.25,-0.17,0.08,0.95,21.14,8.3,-27.2,0.0,0.0,0.5,0.0,0.5,0.5,0.25,0.0,0.25,1.25,0.25,0.25,0.75,0.02,0.14,0.95,63.7,2.5,-34.3
4.08,0.0,0.0,0.0,0.25,0.0,0.0,0.0,0.0,0.25,0.0,0.0,0.25,0.25,-0.17,0.08,0.95,19.58,6.1,-49.2,0.0,0.0,0.75,0.0,0.5,0.75,0.25,0.0,0.0,1.0,0.0,0.25,0.75,0.02,0.14,0.95,63.61,2.0,-19.5
4.1,0.0,0.0,0.0,0.75,0.0,0.0,0.0,0.25,0.25,0.0,0.0,0.25,0.25,-0.17,0.08,0.95,21.73,6.1,-16.3,0.0,0.0,0.75,0.0,0.5,0.5,0.25,0.0,0.25,1.0,0.0,0.25,0.75,0.02,0.14,0.95,64.46,0.0,-23.6
4.12,0.0,0.0,0.0,0.75,0.0,0.0,0.0,0.25,0.25,0.0,0.0,0.25,0.25,-0.17,0.08,0.95,24.3,6.1,-16.3,0.0,0.0,0.75,0.0,0.5,0.25,0.25,0.0,0.25,1.0,0.25,0.0,0.75,0.02,0.14,0.95,62.08,-1.3,-24.8
4.14,0.0,0.0,0.0,0.25,0.0,0.0,0.0,0.25,0.25,0.0,0.0,0.25,0.25,-0.11,0.08,0.95,24.47,1.5,-47.1,0.0,0.0,0.75,0.0,0.5,0.5,0.25,0.0,0.25,1.25,0.0,0.25,0.75,0.02,0.14,0.95,63.05,0.9,-26.6
4.16,0.0,0.0,0.0,0.25,0.0,0.0,0.0,0.0,0.0,0.0,0.0,0.25,0.25,-0.11,0.08,0.95,20.58,4.1,-52.6,0.0,0.0,0.5,0.0,0.5,0.25,0.25,0.0,0.0,1.25,0.0,0.25,0.75,0.02,0.14,0.95,60.91,3.1,-35.7
4.18,0.0,0.0,0.0,0.0,0.0,0.0,0.0,0.25,0.0,0.0,0.0,0.25,0.25,-0.11,0.08,0.95,16.88,-7.2,-86.3,0.0,0.0,0.5,0.0,0.5,0.0,0.25,0.0,0.25,1.25,0.0,0.0,0.75,0.02,0.14,0.95,58.4,1.5,-35.3
4.2,0.0,0.0,0.0,0.0,0.0,0.0,0.0,0.0,0.25,0.0,0.0,0.25,0.25,-0.11,0.08,0.95,14.15,2.2,-86.5,0.0,0.0,0.5,0.0,0.5,0.25,0.25,0.0,0.0,1.0,0.25,0.0,0.75,0.02,0.14,0.95,54.82,2.1,-30.3
4.22,0.0,0.0,0.0,0.0,0.0,0.0,0.0,0.0,0.25,0.0,0.0,0.5,0.25,-0.17,0.08,0.95,14.04,3.9,-92.3,0.0,0.0,0.5,0.0,0.5,0.25,0.25,0.0,0.0,1.0,0.25,0.0,0.75,0.02,0.14,0.95,53.37,2.1,-30.3
4.24,0.0,0.0,0.0,0.5,0.0,0.0,0.0,0.25,0.25,0.0,0.0,0.25,0.25,-0.17,0.08,0.95,16.93,4.2,-29.1,0.0,0.0,0.5,0.0,0.5,0.25,0.25,0.0,0.0,0.5,0.0,0.25,0.75,0.02,0.14,0.95,48.68,0.0,-25.6
4.26,0.0,0.0,0.0,0.25,0.0,0.0,0.0,0.25,0.25,0.0,0.0,0.25,0.25,-0.11,0.08,0.95,19.42,1.5,-47.1,0.0,0.0,0.5,0.5,0.5,0.5,0.25,0.0,0.0,1.0,0.0,0.25,0.75,0.02,0.14,0.95,52.7,0.9,-17.8
4.28,0.0,0.0,0.0,0.25,0.0,0.0,0.0,0.25,0.25,0.0,0.0,0.25,0.25,-0.11,0.08,0.95,20.56,1.5,-47.1,0.25,0.0,0.75,0.25,0.5,0.75,0.25,0.0,0.25,1.0,0.0,0.25,0.75,0.02,0.14,0.95,60.98,-1.4,-10.8
4.3,0.0,0.0,0.0,0.25,0.0,0.0,0.0,0.25,0.25,0.0,0.0,0.5,0.25,-0.17,0.08,0.95,22.29,2.7,-57.4,0.0,0.0,0.5,0.0,0.5,0.0,0.25,0.0,0.25,0.25,0.0,0.25,0.5,0.02,0.14,0.95,55.45,-6.4,-18.8
4.32,0.0,0.0,0.0,0.0,0.0,0.0,0.0,0.25,0.25,0.0,0.0,0.25,0.25,-0.11,0.08,0.95,21.05,-2.4,-74.6,0.0,0.0,0.5,0.0,0.5,0.5,0.25,0.0,0.0,1.0,0.25,0.0,0.75,0.02,0.14,0.95,55.51,3.4,-26.1
4.34,0.0,0.0,0.0,0.25,0.0,0.0,0.0,0.25,0.0,0.0,0.0,0.25,0.25,-0.17,0.08,0.95,19.25,-0.9,-49.2,0.0,0.0,0.5,0.0,0.5,0.25,0.25,0.0,0.25,1.0,0.0,0.0,0.75,0.02,0.14,0.95,52.15,2.0,-27.7
4.36,0.0,0.0,0.0,0.0,0.0,0.0,0.0,0.0,0.0,0.0,0.0,0.25,0.25,-0.17,0.08,0.95,15.57,-2.5,-109.9,0.0,0.0,0.5,0.0,0.5,0.5,0.25,0.0,0.0,1.0,0.25,0.25,0.75,0.02,0.14,0.95,54.58,2.6,-31.4
4.38,0.0,0.0,0.0,0.25,0.0,0.0,0.0,0.25,0.25,0.0,0.0,0.0,0.25,-0.17,0.08,0.95,15.1,-0.2,-31.8,0.0,0.0,0.5,0.0,1.0,0.25,0.25,0.0,0.0,1.0,0.0,0.25,0.75,0.02,0.14,0.95,56.59,2.3,-20.5
4.4,0.0,0.0,0.0,0.5,0.0,0.0,0.0,0.25,0.25,0.0,0.0,0.25,0.25,-0.17,0.08,0.95,17.19,4.2,-29.1,0.0,0.0,0.5,0.0,0.5,0.25,0.25,0.0,0.0,0.75,0.0,0.25,0.75,0.02,0.14,0.95,56.73,1.2,-29.5
4.42,0.0,0.0,0.0,0.25,0.0,0.0,0.0,0.0,0.25,0.0,0.0,0.0,0.25,-0.17,0.08,0.95,16.01,5.2,-29.5,0.0,0.0,0.5,0.0,0.5,0.5,0.25,0.0,0.5,1.0,0.5,0.25,0.75,0.02,0.14,0.95,61.97,0.4,-34.4
4.44,0.0,0.0,0.0,0.5,0.0,0.0,0.0,0.0,0.25,0.0,0.0,0.25,0.25,-0.17,0.08,0.95,17.29,8.3,-27.2,0.0,0.0,0.75,0.0,0.5,0.75,0.25,0.0,0.25,1.0,0.0,0.25,0.5,0.02,0.14,0.95,63.3,0.5,-15.1
4.46,0.0,0.0,0.0,0.25,0.0,0.0,0.0,0.0,0.25,0.0,0.0,0.25,0.25,-0.17,0.08,0.95,16.34,6.1,-49.2,0.0,0.0,0.5,0.0,1.0,0.5,0.25,0.0,0.0,1.0,0.0,0.25,0.75,0.02,0.14,0.95,66.29,3.5,-17.4
4.48,0.0,0.0,0.25,0.5,0.0,0.0,0.0,0.25,0.25,0.0,0.0,0.25,0.25,-0.17,0.08,0.95,20.31,9.1,-16.1,0.0,0.0,0.5,0.5,0.5,0.5,0.25,0.0,0.0,0.75,0.0,0.25,0.75,0.02,0.14,0.95,65.25,0.0,-14.2
4.5,0.0,0.0,0.25,0.25,0.0,0.0,0.0,0.25,0.0,0.0,0.0,0.0,0.25,-0.17,0.08,0.95,19.56,6.4,-6.9,0.0,0.0,0.75,0.0,0.5,0.25,0.25,0.0,0.0,1.0,0.25,0.0,0.75,0.02,0.14,0.95,62.48,-0.6,-23.9
4.52,0.0,0.0,0.25,0.0,0.0,0.0,0.0,0.0,0.0,0.0,0.0,0.0,0.5,-0.17,0.08,0.95,18.32,3.6,-52.9,0.0,0.0,0.5,0.0,0.5,0.25,0.25,0.0,0.25,0.75,0.0,0.25,0.75,0.02,0.14,0.95,58.48,0.2,-30.1
4.54,0.0,0.0,0.25,0.25,0.0,0.0,0.0,0.25,0.25,0.0,0.0,0.25,0.25,-0.17,0.08,0.95,19.13,7.7,-28.8,0.0,0.0,0.75,0.0,0.5,0.0,0.25,0.0,0.25,1.0,0.0,0.0,0.5,0.02,0.14,0.95,55.49,-3.6,-18.6
4.56,0.0,0.0,0.0,0.25,0.0,0.0,0.0,0.25,0.25,0.0,0.0,0.25,0.25,-0.17,0.08,0.95,20.07,1.5,-47.1,0.0,0.0,0.5,0.0,0.5,0.0,0.25,0.0,0.0,0.75,0.0,0.25,0.75,0.02,0.14,0.95,50.15,-0.5,-34.5
4.58,0.0,0.0,0.0,0.5,0.0,0.0,0.0,0.25,0.25,0.0,0.0,0.0,0.25,-0.11,0.08,0.95,20.92,3.3,-13.4,0.0,0.0,0.75,0.0,0.5,0.75,0.25,0.0,0.25,1.25,0.0,0.5,0.75,0.02,0.14,0.95,56.67,1.5,-27.8
4.6,0.0,0.0,0.0,0.5,0.0,0.0,0.0,0.0,0.25,0.0,0.0,0.0,0.25,-0.17,0.08,0.95,19.93,8.2,-7.2,0.0,0.0,0.75,0.0,0.5,0.5,0.25,0.0,0.0,1.5,0.25,0.0,0.75,0.02,0.14,0.95,60.88,2.4,-26.6
4.62,0.0,0.0,0.0,0.25,0.0,0.0,0.0,0.25,0.0,0.0,0.0,0.0,0.25,-0.17,0.08,0.95,16.93,-4.1,-29.6,0.0,0.0,0.75,0.0,1.0,0.25,0.25,0.0,0.0,1.0,0.25,0.0,0.75,0.02,0.14,0.95,65.65,-0.1,-13.5
4.64,0.0,0.0,0.0,0.5,0.0,0.0,0.0,0.25,0.25,0.0,0.0,0.0,0.25,-0.17,0.08,0.95,16.62,3.3,-13.4,0.0,0.0,0.75,0.0,1.0,0.5,0.25,0.0,0.0,1.0,0.0,0.25,0.75,0.02,0.14,0.95,68.36,1.1,-13.0
4.66,0.0,0.0,0.0,0.5,0.0,0.0,0.0,0.25,0.0,0.0,0.0,0.0,0.25,-0.17,0.08,0.95,16.39,1.2,-7.4,0.0,0.0,0.75,0.0,0.25,0.25,0.25,0.0,0.25,1.0,0.25,0.25,0.75,0.02,0.14,0.95,66.32,-2.1,-36.0
4.68,0.0,0.0,0.0,0.5,0.0,0.0,0.0,0.25,0.25,0.0,0.0,0.25,0.5,-0.17,0.08,0.95,20.55,1.6,-40.7,0.0,0.0,0.5,0.25,0.5,0.25,0.25,0.0,0.25,1.0,0.25,0.25,0.75,0.02,0.14,0.95,65.71,-0.5,-29.9
4.7,0.0,0.0,0.0,0.5,0.0,0.0,0.0,0.25,0.25,0.0,0.0,0.25,0.25,-0.17,0.08,0.95,22.51,4.2,-29.1,0.0,0.0,0.75,0.5,0.5,0.0,0.25,0.0,0.25,1.25,0.0,0.25,0.75,0.02,0.14,0.95,66.5,-3.4,-23.1
4.72,0.0,0.0,0.0,0.5,0.0,0.0,0.0,0.25,0.25,0.0,0.0,0.25,0.25,-0.17,0.08,0.95,24.36,4.2,-29.1,0.0,0.0,0.5,0.0,0.5,0.75,0.25,0.0,0.25,1.25,0.25,0.25,0.75,0.02,0.14,0.95,69.49,3.6,-30.8
4.74,0.0,0.0,0.0,0.5,0.0,0.0,0.0,0.25,0.25,0.0,0.0,0.25,0.25,-0.17,0.08,0.95,24.96,4.2,-29.1,0.0,0.0,0.5,0.5,1.0,0.0,0.25,0.0,0.5,0.5,0.25,0.0,0.5,0.02,0.14,0.95,69.14,-5.5,-1.1
4.76,0.0,0.0,0.0,0.5,0.0,0.0,0.0,0.25,0.25,0.0,0.0,0.25,0.25,-0.17,0.08,0.95,25.02,4.2,-29.1,0.0,0.0,0.5,0.0,0.5,0.25,0.25,0.0,0.25,1.0,0.0,0.25,0.75,0.02,0.14,0.95,66.02,1.2,-33.2
4.78,0.0,0.0,0.0,0.5,0.0,0.0,0.0,0.25,0.25,0.0,0.0,0.25,0.25,-0.17,0.08,0.95,24.38,4.2,-29.1,0.0,0.0,0.5,0.0,0.5,0.5,0.25,0.0,0.0,1.25,0.25,0.0,0.75,0.02,0.14,0.95,62.9,4.2,-29.3
4.8,0.0,0.0,0.0,0.75,0.0,0.0,0.0,0.25,0.25,0.0,0.0,0.25,0.25,-0.17,0.08,0.95,26.22,6.1,-16.3,0.0,0.0,0.75,0.0,0.5,0.0,0.25,0.0,0.0,1.0,0.0,0.0,0.5,0.02,0.14,0.95,55.2,-2.9,-17.0
4.82,0.0,0.0,0.0,0.25,0.0,0.0,0.0,0.0,0.0,0.0,0.0,0.25,0.25,-0.17,0.08,0.95,22.55,4.1,-52.6,0.0,0.0,0.5,0.0,0.5,0.75,0.25,0.0,0.0,1.0,0.0,0.25,0.75,0.02,0.14,0.95,53.54,4.7,-24.8
4.84,0.0,0.0,0.0,0.5,0.0,0.0,0.0,0.0,0.0,0.0,0.0,0.0,0.25,-0.17,0.08,0.95,18.89,7.0,2.6,0.0,0.0,0.5,0.0,0.5,0.0,0.25,0.0,0.0,1.25,0.0,0.25,0.75,0.02,0.14,0.95,52.5,1.8,-40.4
4.86,0.0,0.0,0.0,0.5,0.0,0.0,0.0,0.25,0.0,0.0,0.0,0.25,0.25,-0.17,0.08,0.95,17.16,2.7,-27.3,0.0,0.0,0.5,0.0,0.5,0.0,0.25,0.0,0.25,0.75,0.25,0.25,0.75,0.02,0.14,0.95,52.93,-2.0,-37.7
4.88,0.0,0.0,0.0,0.75,0.0,0.0,0.0,0.25,0.25,0.0,0.0,0.25,0.25,-0.17,0.08,0.95,19.73,6.1,-16.3,0.0,0.0,0.75,0.0,0.5,0.0,0.25,0.0,0.0,0.75,0.25,0.25,0.75,0.02,0.14,0.95,51.83,-4.0,-30.3
4.9,0.0,0.0,0.0,0.5,0.0,0.0,0.0,0.25,0.25,0.0,0.0,0.25,0.25,-0.17,0.08,0.95,21.65,4.2,-29.1,0.0,0.0,0.5,0.0,0.5,0.0,0.25,0.0,0.25,1.0,0.0,0.25,0.75,0.02,0.14,0.95,52.26,-0.1,-37.7
4.92,0.0,0.0,0.0,0.25,0.0,0.0,0.0,0.25,0.25,0.0,0.0,0.25,0.25,-0.17,0.08,0.95,22.21,1.5,-47.1,0.0,0.0,0.5,0.0,0.5,0.75,0.25,0.0,0.25,1.25,0.25,0.25,0.75,0.02,0.14,0.95,57.55,3.6,-30.8
4.94,0.0,0.0,0.0,0.5,0.0,0.0,0.0,0.0,0.25,0.0,0.0,0.25,0.25,-0.11,0.08,0.95,21.65,8.3,-27.2,0.0,0.0,0.5,0.0,0.5,0.25,0.25,0.0,0.25,1.25,0.25,0.25,0.75,0.02,0.14,0.95,61.16,1.4,-38.1
4.96,0.0,0.0,0.0,0.25,0.0,0.0,0.0,0.25,0.25,0.0,0.0,0.25,0.25,-0.17,0.08,0.95,20.64,1.5,-47.1,0.0,0.0,0.5,0.25,0.5,0.0,0.25,0.0,0.25,0.0,0.25,0.25,0.75,0.02,0.14,0.95,58.33,-7.8,-19.8
4.98,0.0,0.0,0.0,0.5,0.0,0.0,0.0,0.25,0.0,0.0,0.0,0.0,0.25,-0.17,0.08,0.95,18.61,1.2,-7.4,0.0,0.0,0.5,0.0,0.5,0.25,0.25,0.0,0.5,1.25,0.25,0.25,0.75,0.02,0.14,0.95,61.78,0.6,-38.1
5.0,0.0,0.0,0.0,0.5,0.0,0.0,0.0,0.25,0.0,0.0,0.0,0.25,0.5,-0.17,0.08,0.95,20.31,0.0,-41.1,0.0,0.0,0.5,0.0,0.5,0.75,0.25,0.0,0.25,1.0,0.0,0.25,0.75,0.02,0.14,0.95,62.36,3.7,-25.6
5.02,0.0,0.0,0.0,0.5,0.0,0.0,0.0,0.25,0.25,0.0,0.0,0.0,0.25,-0.17,0.08,0.95,20.48,3.3,-13.4,0.0,0.0,0.5,0.0,0.5,0.25,0.25,0.0,0.25,1.0,0.25,0.0,0.75,0.02,0.14,0.95,61.89,1.1,-30.8
5.04,0.0,0.0,0.0,0.5,0.0,0.0,0.0,0.25,0.25,0.0,0.0,0.0,0.25,-0.17,0.08,0.95,21.05,3.3,-13.4,0.0,0.0,0.5,0.0,0.5,0.0,0.25,0.0,0.25,0.75,0.25,0.25,0.75,0.02,0.14,0.95,59.53,-2.0,-37.7
5.06,0.0,0.0,0.0,0.25,0.0,0.0,0.0,0.25,0.25,0.0,0.0,0.0,0.25,-0.17,0.08,0.95,19.62,-0.2,-31.8,0.0,0.0,0.5,0.0,0.5,0.25,0.25,0.0,0.25,1.25,0.0,0.0,0.75,0.02,0.14,0.95,58.0,2.9,-30.9
5.08,0.0,0.0,0.0,0.75,0.0,0.0,0.0,0.25,0.25,0.0,0.0,0.0,0.25,-0.17,0.08,0.95,20.79,5.7,-1.2,0.0,0.0,0.25,0.0,1.0,0.5,0.25,0.0,0.25,0.75,0.0,0.25,0.75,0.02,0.14,0.95,58.29,4.4,-20.2
5.1,0.0,0.0,0.0,0.5,0.0,0.0,0.0,0.25,0.25,0.0,0.0,0.0,0.25,-0.17,0.08,0.95,19.9,3.3,-13.4,0.0,0.0,0.0,0.0,0.5,0.25,0.25,0.0,0.25,1.0,0.0,0.25,0.75,0.02,0.14,0.95,55.9,7.6,-48.3
5.12,0.0,0.0,0.0,0.75,0.0,0.0,0.0,0.0,0.25,0.0,0.0,0.0,0.25,-0.17,0.08,0.95,20.57,10.0,5.9,0.0,0.0,0.0,0.0,0.5,0.0,0.25,0.0,0.25,1.0,0.25,0.25,0.75,0.02,0.14,0.95,54.58,5.1,-56.4
5.14,0.0,0.0,0.0,0.5,0.0,0.0,0.0,0.0,0.25,0.0,0.0,0.0,0.25,-0.17,0.08,0.95,19.38,8.2,-7.2,0.0,0.0,0.75,0.0,0.5,0.5,0.25,0.0,0.25,1.0,0.25,0.25,0.5,0.02,0.14,0.95,56.22,-1.3,-21.3
5.16,0.0,0.0,0.0,0.25,0.0,0.0,0.0,0.25,0.25,0.0,0.0,0.0,0.25,-0.11,0.08,0.95,18.09,-0.2,-31.8,0.0,0.0,0.5,0.0,0.5,0.5,0.25,0.0,0.0,1.0,0.25,0.25,0.75,0.02,0.14,0.95,57.29,2.6,-31.4
5.18,0.0,0.0,0.0,0.5,0.0,0.0,0.0,0.25,0.25,0.0,0.0,0.0,0.25,-0.17,0.08,0.95,17.83,3.3,-13.4,0.0,0.0,0.75,0.0,0.5,1.25,0.25,0.0,0.25,0.75,0.25,0.25,0.75,0.02,0.14,0.95,64.76,2.0,-15.2
5.2,0.0,0.0,0.0,0.25,0.0,0.0,0.0,0.0,0.25,0.0,0.0,0.25,0.25,-0.17,0.08,0.95,17.17,6.1,-49.2,0.0,0.0,0.5,0.0,0.5,0.5,0.25,0.0,0.25,1.5,0.0,0.0,0.75,0.02,0.14,0.95,66.79,4.8,-29.9
5.22,0.0,0.0,0.0,0.5,0.0,0.0,0.0,0.25,0.0,0.0,0.0,0.25,0.5,-0.17,0.08,0.95,19.77,0.0,-41.1,0.0,0.0,0.5,0.0,0.5,0.5,0.25,0.0,0.25,1.0,0.25,0.25,0.75,0.02,0.14,0.95,67.13,1.8,-31.8
5.24,0.0,0.0,0.25,0.5,0.0,0.0,0.0,0.0,0.0,0.0,0.0,0.25,0.25,-0.23,0.08,0.95,20.15,13.6,-7.4,0.0,0.0,0.5,0.0,0.5,0.0,0.25,0.0,0.25,0.5,0.0,0.25,0.5,0.02,0.14,0.95,58.68,-4.4,-24.0
5.26,0.0,0.0,0.0,0.5,0.0,0.0,0.0,0.0,0.0,0.0,0.0,0.25,0.25,-0.23,0.14,1.02,19.68,7.4,-24.5,0.0,0.0,0.5,0.0,1.0,0.75,0.25,0.0,0.25,0.75,0.0,0.25,0.5,0.02,0.14,0.95,60.0,2.3,-6.8
5.28,0.0,0.0,0.25,0.25,0.0,0.0,0.0,0.25,0.0,0.0,0.0,0.25,0.5,-0.36,0.14,0.89,20.87,3.4,-40.9,0.0,0.0,0.75,0.0,0.5,0.5,0.25,0.0,0.25,1.0,0.0,0.0,0.75,0.02,0.14,0.95,58.62,0.6,-18.2
5.3,0.0,0.0,0.0,0.25,0.0,0.0,0.0,0.0,0.0,0.0,0.0,0.25,0.25,-0.42,0.14,0.89,18.22,4.1,-52.6,0.0,0.0,0.5,0.0,0.5,0.0,0.25,0.0,0.25,0.75,0.0,0.0,0.75,0.02,0.14,0.95,55.29,-0.7,-28.6
