time,left pressure 0[N/cm虏],left pressure 1[N/cm虏],left pressure 2[N/cm虏],left pressure 3[N/cm虏],left pressure 4[N/cm虏],left pressure 5[N/cm虏],left pressure 6[N/cm虏],left pressure 7[N/cm虏],left pressure 8[N/cm虏],left pressure 9[N/cm虏],left pressure 10[N/cm虏],left pressure 11[N/cm虏],left pressure 12[N/cm虏],left acceleration X[g],left acceleration Y[g],left acceleration Z[g],left total force[N],left center of pressure X[mm],left center of pressure Y[mm],right pressure 0[N/cm虏],right pressure 1[N/cm虏],right pressure 2[N/cm虏],right pressure 3[N/cm虏],right pressure 4[N/cm虏],right pressure 5[N/cm虏],right pressure 6[N/cm虏],right pressure 7[N/cm虏],right pressure 8[N/cm虏],right pressure 9[N/cm虏],right pressure 10[N/cm虏],right pressure 11[N/cm虏],right pressure 12[N/cm虏],right acceleration X[g],right acceleration Y[g],right acceleration Z[g],right total force[N],right center of pressure X[mm],right center of pressure Y[mm]
0.02,8.5,4.75,10.5,12.0,0.0,0.0,0.0,0.25,0.75,0.0,0.0,0.5,0.25,-0.17,0.2,1.02,571.05,25.6,66.5,0.0,0.0,0.25,0.5,1.25,0.0,0.75,0.0,0.0,0.0,0.0,0.0,0.0,0.08,2.02,0.52,28.06,-9.9,51.5
0.04,9.0,5.25,10.5,12.0,0.0,0.0,0.0,0.25,1.0,0.0,0.0,0.5,0.25,-0.17,0.27,1.08,611.98,25.5,66.7,0.0,0.0,0.0,0.5,0.25,0.0,0.0,0.0,0.0,3.0,0.0,2.0,2.25,1.39,-0.36,1.58,70.49,6.5,-80.5
0.06,9.0,5.25,10.5,12.0,0.0,0.0,0.0,0.25,0.75,0.25,0.0,0.5,0.25,-0.17,0.27,1.08,639.57,25.3,66.4,0.0,0.0,0.0,0.5,0.25,0.0,0.25,0.0,0.0,5.75,1.5,3.75,5.5,-0.48,0.33,1.77,158.54,6.1,-87.1
0.08,9.25,4.5,11.0,12.0,0.0,0.0,0.0,0.25,0.75,0.25,0.0,0.0,0.0,-0.17,0.33,1.14,651.36,26.3,69.4,0.75,0.0,2.5,0.5,1.75,0.75,0.5,1.25,0.25,7.0,4.25,4.5,6.5,-0.48,0.39,2.27,274.71,0.6,-56.6
0.1,8.5,4.0,10.5,11.0,0.0,0.0,0.0,0.0,0.25,0.0,0.0,0.0,0.0,-0.23,0.33,1.2,626.45,27.2,72.2,0.0,0.0,1.75,0.5,1.0,0.0,0.75,3.75,1.0,8.25,7.25,5.0,6.25,0.2,0.33,1.7,400.91,1.7,-67.4
0.12,7.0,0.0,9.75,0.25,0.0,0.0,0.0,0.0,0.0,0.0,0.0,0.0,0.0,-0.3,0.39,1.33,476.57,36.6,75.2,0.0,0.0,2.5,1.25,1.75,2.0,0.5,5.25,1.25,9.0,7.75,5.75,7.75,0.2,0.27,1.2,579.19,2.5,-57.9
0.14,4.0,0.0,9.75,1.25,0.0,0.0,0.0,0.0,0.0,0.0,0.0,0.0,0.0,-0.3,0.45,1.39,347.45,35.6,69.8,1.25,0.0,2.5,2.75,2.75,2.0,1.25,6.25,2.75,9.25,8.5,6.0,7.75,0.14,0.14,1.02,756.35,0.5,-47.6
0.16,8.0,0.0,8.0,8.5,0.0,0.0,0.0,0.0,0.5,0.0,0.0,0.0,0.0,-0.36,0.58,1.58,298.45,29.3,68.9,2.0,0.5,5.0,3.0,4.25,3.0,1.75,7.25,3.25,9.5,9.0,5.75,7.75,0.14,0.08,1.02,937.75,-1.1,-35.2
0.18,5.25,0.0,6.75,5.5,0.0,0.0,0.0,0.0,0.75,0.0,0.0,0.5,0.0,-0.73,0.95,2.02,265.15,29.1,61.2,2.75,0.75,6.25,3.25,4.75,3.75,2.0,7.75,4.0,9.25,8.75,5.75,7.25,0.2,0.08,0.95,1087.65,-2.2,-28.5
0.2,3.75,0.0,5.5,3.5,0.0,0.0,0.0,0.0,0.5,0.0,0.0,0.0,0.0,-0.67,1.64,2.52,228.99,30.6,66.1,3.25,0.75,7.0,3.25,4.5,4.0,2.5,7.75,4.0,8.75,8.5,5.25,6.75,0.2,0.08,0.95,1186.1,-3.1,-24.7
0.22,0.25,0.0,1.25,1.75,0.0,0.0,0.0,0.0,0.25,0.0,0.0,0.0,0.0,-0.67,0.77,2.2,143.62,25.5,54.9,3.75,0.75,7.75,4.5,4.5,4.25,2.5,7.75,3.5,8.25,7.75,4.5,6.0,0.2,0.08,0.95,1230.44,-4.1,-17.9
0.24,0.0,0.0,0.0,0.0,0.0,0.0,0.0,0.0,0.0,0.0,0.0,0.0,0.0,-0.48,0.02,2.2,39.36,0.0,0.0,4.5,0.75,8.5,5.0,4.5,4.25,2.75,7.0,3.25,7.5,7.25,3.25,5.0,0.2,0.08,0.95,1219.63,-5.6,-10.1
0.26,0.0,0.0,0.0,0.0,0.0,0.0,0.0,0.0,0.25,0.0,0.0,0.0,0.0,-0.73,-0.48,2.64,0.0,12.1,-38.5,4.75,1.0,8.75,5.5,4.75,4.25,2.5,6.25,2.75,6.0,4.75,1.75,3.0,0.2,0.08,0.95,1138.55,-7.1,3.7
0.28,0.0,0.0,0.0,1.75,0.0,0.0,0.0,0.0,0.25,0.0,0.0,0.0,0.0,-0.3,-0.73,1.7,0.0,16.6,46.4,5.25,1.0,9.25,5.5,4.75,4.25,2.5,5.25,2.0,4.5,3.75,1.0,2.25,0.2,0.14,0.95,1019.25,-9.0,13.8
0.3,0.0,0.0,0.0,1.75,0.0,0.0,0.0,0.0,0.25,0.0,0.0,0.25,0.0,-0.48,-0.48,0.52,0.0,15.7,29.7,5.5,0.75,9.25,5.5,4.75,4.0,2.5,4.75,1.5,3.5,1.75,0.5,1.75,0.14,0.14,0.95,878.95,-10.3,23.4
0.32,0.0,0.0,0.0,2.0,0.0,0.0,0.0,0.0,0.25,0.0,0.0,0.0,0.0,-0.48,-0.55,0.33,0.0,16.6,47.7,5.5,1.0,9.25,5.5,4.5,4.25,1.75,4.25,1.25,2.75,0.75,0.0,1.5,0.14,0.14,0.95,752.45,-10.9,31.2
0.34,0.0,0.0,0.0,1.75,0.0,0.0,0.0,0.0,0.0,0.0,0.0,0.0,0.0,-0.23,-0.48,0.45,0.0,17.2,57.9,4.75,0.75,9.25,6.5,4.75,4.25,1.75,2.75,0.75,1.75,0.0,0.0,1.0,0.14,0.14,0.95,642.14,-12.7,40.8
0.36,0.0,0.0,0.0,1.75,0.0,0.0,0.0,0.0,0.5,0.0,0.0,0.0,0.0,-0.3,-0.48,0.77,0.0,16.1,37.4,5.0,1.25,9.25,7.25,4.75,4.25,1.5,2.75,0.75,1.5,0.25,0.0,1.0,0.14,0.14,0.95,576.82,-13.0,42.3
0.38,0.0,0.0,0.0,1.75,0.0,0.0,0.0,0.0,0.75,0.0,0.0,0.0,0.0,-0.36,-0.3,0.83,0.0,15.7,30.1,6.25,1.0,10.5,7.25,5.0,4.25,1.75,2.75,0.75,1.5,0.0,0.0,0.25,0.14,0.14,0.95,551.7,-14.9,47.7
0.4,0.0,0.0,0.0,0.5,0.0,0.0,0.0,0.0,0.5,0.0,0.0,0.0,0.0,-0.3,-0.11,0.83,0.0,14.7,11.1,5.75,0.0,10.5,7.0,4.5,2.0,1.75,1.25,0.0,1.0,0.0,0.0,0.25,0.14,0.14,0.95,505.44,-19.2,53.6
0.42,0.0,0.0,0.0,1.75,0.0,0.0,0.0,0.0,0.75,0.0,0.0,0.0,0.0,-0.3,0.02,0.89,7.61,15.7,30.1,7.0,0.5,11.0,9.0,6.25,4.25,1.5,1.5,0.75,0.5,0.0,0.0,1.0,0.14,0.2,0.95,535.5,-16.0,51.3
0.44,0.0,0.0,0.0,1.75,0.0,0.0,0.0,0.0,0.75,0.0,0.0,0.0,0.0,-0.3,0.14,1.27,25.62,15.7,30.1,7.5,0.5,9.75,7.5,4.75,2.75,1.5,1.25,0.0,0.5,0.0,0.0,0.0,0.14,0.2,0.95,520.86,-19.1,58.9
0.46,0.0,0.0,0.0,1.75,0.0,0.0,0.0,0.0,0.75,0.0,0.0,0.0,0.0,-0.23,0.27,1.52,42.0,15.7,30.1,7.0,1.5,11.5,9.0,6.5,4.25,1.5,1.25,0.25,1.5,0.0,0.0,0.0,0.08,0.2,0.95,577.97,-16.3,54.9
0.48,0.0,0.0,0.0,0.25,0.0,0.0,0.0,0.0,0.25,0.0,0.0,0.0,0.0,-0.3,0.45,1.64,34.11,14.7,11.1,7.5,2.25,11.0,9.0,6.5,2.0,0.75,0.25,0.0,0.0,0.0,0.0,0.0,0.08,0.2,1.02,593.79,-20.1,65.3
0.5,0.0,0.0,0.0,1.75,0.0,0.0,0.0,0.0,0.75,0.0,0.0,0.0,0.0,-0.42,0.83,1.89,35.13,15.7,30.1,8.0,2.5,13.0,10.5,7.0,3.25,0.75,1.25,0.0,1.0,0.0,0.0,0.5,0.08,0.27,1.02,684.43,-17.7,57.6
0.52,0.0,0.0,0.0,1.5,0.0,0.0,4.0,0.0,0.5,0.0,0.0,0.0,0.0,-0.55,1.08,2.64,42.13,23.8,31.2,8.5,3.0,13.0,9.5,7.0,3.25,0.75,1.25,0.0,0.0,0.0,0.0,0.5,0.02,0.27,1.08,736.59,-18.6,61.2
0.54,0.0,0.0,0.0,0.0,0.0,0.0,0.0,0.0,0.25,0.0,0.0,0.0,0.0,-0.55,1.39,2.7,32.98,12.1,-38.5,8.25,2.75,11.5,10.5,6.75,1.75,0.75,0.0,0.0,0.0,0.0,0.0,0.0,0.02,0.27,1.02,762.19,-20.7,66.6
0.56,0.0,0.0,0.0,0.25,0.0,0.0,0.0,0.0,0.5,0.0,0.0,0.0,0.0,-0.48,2.33,1.64,25.59,13.9,-5.1,8.25,3.0,11.5,10.0,7.0,1.5,0.75,0.0,0.0,0.0,0.0,0.0,0.0,0.08,0.33,1.08,754.32,-20.8,67.0
0.58,0.0,0.0,0.0,1.25,0.0,0.0,0.0,0.0,0.5,0.0,0.0,0.0,0.0,-0.8,3.27,1.27,22.17,15.8,31.5,8.75,4.25,11.0,9.25,6.5,0.75,0.75,0.0,0.0,0.25,0.0,0.0,0.0,0.14,0.39,1.27,734.96,-21.4,68.4
0.6,0.0,0.0,0.0,1.75,0.0,0.0,0.0,0.0,0.25,0.0,0.0,0.0,0.0,-0.36,3.64,0.33,24.44,16.6,46.4,8.0,2.5,10.5,9.0,5.5,0.75,0.75,0.0,0.0,0.0,0.0,0.0,0.0,0.14,0.39,1.45,681.07,-22.3,68.0
0.62,0.0,0.0,0.0,1.75,0.0,0.0,0.0,0.0,0.5,0.0,0.0,0.0,0.0,1.33,4.83,0.33,29.51,16.1,37.4,7.5,2.5,9.5,7.5,4.5,0.75,0.75,0.0,0.0,0.0,0.0,0.0,0.0,0.27,0.52,1.64,608.75,-22.8,68.8
0.64,0.0,0.0,0.0,2.75,0.0,0.0,0.0,0.0,1.0,0.0,0.0,0.0,0.0,0.89,6.45,0.89,45.37,15.9,33.2,5.5,0.5,8.25,5.5,3.0,0.5,0.75,0.0,0.0,0.0,0.0,0.0,0.0,0.08,0.7,2.02,491.85,-24.7,66.7
0.66,0.0,0.0,0.0,0.0,0.0,0.0,0.75,0.0,0.0,0.0,0.0,0.5,0.0,-0.23,-0.55,1.02,38.04,18.7,-52.2,3.5,0.0,6.25,3.0,0.25,0.0,0.75,0.0,0.0,0.0,0.0,0.0,0.0,-0.05,1.77,2.83,338.1,-31.5,68.1
0.68,0.0,0.0,0.0,1.5,0.0,0.0,0.0,0.0,0.25,2.25,0.0,2.5,3.25,0.08,0.27,0.64,82.85,-2.9,-73.6,1.25,0.0,5.0,0.75,1.5,0.0,0.75,0.0,0.0,0.0,0.0,0.0,0.0,-0.3,0.64,2.77,225.08,-27.9,62.6
0.7,0.0,0.0,0.0,0.5,0.0,0.0,0.0,0.0,1.0,5.25,0.75,4.0,5.25,0.02,0.45,2.58,159.19,-5.4,-88.3,0.5,0.0,2.5,2.25,0.25,0.75,0.0,0.0,0.0,0.5,0.0,0.0,0.0,0.27,-0.11,1.58,113.58,-18.9,49.4
0.72,0.0,0.0,0.0,0.0,0.0,0.0,0.0,3.75,2.0,6.25,0.0,4.5,5.75,-0.73,0.7,3.08,249.25,-7.9,-82.0,1.0,0.0,2.75,2.0,1.75,1.25,0.75,0.0,0.0,0.5,0.0,0.0,0.25,0.27,-0.42,1.89,59.25,-14.1,46.9
0.74,0.0,0.0,0.0,0.0,0.0,0.0,0.0,5.25,3.0,6.75,0.0,4.5,6.0,-0.17,0.14,0.95,323.8,-7.9,-78.0,1.0,0.0,2.75,2.0,1.25,0.75,0.75,0.0,0.0,1.0,0.0,0.0,0.25,-0.23,-0.98,1.77,30.97,-15.4,40.7
0.76,0.0,0.0,0.0,0.0,0.0,0.0,0.0,6.0,3.75,7.0,6.5,5.0,6.0,-0.17,0.02,0.95,435.07,-4.0,-76.2,0.75,0.0,2.75,1.5,1.0,0.75,0.75,0.0,0.0,0.5,0.0,0.0,0.25,0.08,-0.61,0.77,29.56,-17.3,44.7
0.78,0.0,0.0,1.75,0.5,0.0,0.25,0.0,6.25,4.5,7.0,6.25,5.25,5.5,-0.23,0.02,0.95,541.29,-1.4,-65.8,0.75,0.0,2.75,1.25,1.25,0.75,0.75,0.0,0.0,0.25,0.0,0.0,0.5,0.33,-0.55,0.33,32.08,-16.6,43.4
0.8,0.0,0.5,1.5,2.25,0.0,0.5,0.25,6.25,5.0,6.5,6.5,4.75,5.25,-0.17,-0.05,0.95,622.7,-0.2,-56.5,1.25,0.25,2.0,0.75,2.25,0.5,0.75,0.0,0.0,0.5,0.0,0.0,0.25,0.27,-0.48,0.52,38.96,-13.8,48.4
0.82,0.5,0.5,4.0,3.5,0.0,0.75,0.25,6.25,5.25,6.25,6.0,4.5,4.75,-0.17,0.02,0.95,680.71,2.9,-42.2,0.75,0.0,2.25,1.0,1.5,0.75,0.75,0.0,0.0,0.0,0.0,0.0,0.25,0.27,-0.42,0.64,45.14,-16.4,51.8
0.84,1.75,0.5,4.5,4.0,0.0,0.75,0.5,6.25,5.0,5.25,5.5,3.5,4.0,-0.17,0.02,1.02,697.11,5.0,-31.4,0.75,0.0,2.25,1.0,1.25,0.5,0.75,0.0,0.0,0.5,0.0,0.0,0.25,0.14,-0.23,0.77,59.49,-16.3,43.3
0.86,2.25,1.0,6.0,4.5,0.25,1.0,0.5,6.0,4.5,4.5,4.5,2.75,2.75,-0.17,0.02,0.95,686.52,7.5,-16.6,0.75,0.0,2.25,0.75,1.0,0.75,0.75,0.0,0.0,0.0,0.0,0.0,0.25,-0.05,-0.05,0.77,71.65,-18.2,51.3
0.88,3.0,0.75,6.5,5.0,0.0,0.75,0.5,5.5,4.25,3.75,3.25,2.5,1.75,-0.17,0.02,0.95,647.84,10.1,-7.3,0.75,0.0,2.25,0.75,1.25,0.75,0.75,0.0,0.0,0.5,0.0,0.0,0.25,-0.05,0.14,0.83,89.71,-14.9,42.5
0.9,3.75,1.0,6.75,5.5,0.0,0.0,0.25,4.75,3.5,2.25,2.0,1.5,1.5,-0.17,0.02,0.95,587.8,13.5,7.2,0.75,0.0,2.25,0.75,0.5,0.5,0.75,0.0,0.0,0.25,0.0,0.0,0.25,-0.17,0.27,1.08,94.97,-20.6,46.3
0.92,4.0,1.0,7.25,6.0,0.0,0.5,0.25,4.25,3.0,2.0,1.0,1.5,0.5,-0.17,0.02,0.95,518.19,15.3,18.6,0.75,0.0,2.25,0.75,0.5,0.5,0.75,0.0,0.0,0.5,0.0,0.0,0.25,-0.3,0.58,1.02,95.75,-19.1,41.2
0.94,4.5,1.0,7.5,6.75,0.0,0.25,0.25,3.75,2.5,1.25,0.0,1.0,0.25,-0.17,0.08,0.95,458.12,18.1,32.0,0.75,0.0,2.25,0.75,0.5,0.75,0.75,0.0,0.0,0.25,0.0,0.0,0.25,-0.42,0.95,0.89,92.42,-18.9,45.8
0.96,4.75,1.25,8.0,7.5,3.0,0.0,0.25,2.75,2.5,0.5,0.0,0.5,0.25,-0.17,0.08,0.95,437.6,18.5,43.4,0.5,0.0,2.75,1.25,2.25,0.75,0.75,0.0,0.0,0.25,0.0,0.0,0.25,-0.8,1.08,1.7,105.12,-14.4,47.8
0.98,5.0,1.25,8.0,7.75,0.0,0.25,0.25,2.0,2.25,0.5,0.0,0.5,0.25,-0.11,0.08,0.95,406.81,22.0,45.6,0.0,0.0,1.5,0.5,1.5,0.0,0.5,0.0,0.0,0.0,0.0,0.0,0.0,-1.23,1.27,2.08,94.94,-17.3,55.3
1.0,5.75,2.25,8.5,8.5,0.0,0.25,0.25,2.0,2.0,0.5,0.0,0.5,0.25,-0.11,0.08,0.95,405.11,22.2,49.8,0.0,0.0,0.0,0.5,0.25,0.0,0.25,0.0,0.0,0.0,0.0,0.0,0.0,-1.3,1.83,1.83,68.64,-12.7,52.6
1.02,6.0,2.5,8.5,8.75,0.0,0.0,0.25,2.0,1.5,0.5,0.0,0.5,0.25,-0.17,0.08,0.95,407.62,22.7,52.2,0.75,0.0,0.75,0.75,0.25,0.75,0.75,0.0,0.0,0.25,0.0,0.0,0.0,-1.3,1.95,1.33,53.4,-15.0,49.6
1.04,6.75,2.5,8.5,9.0,0.0,0.25,0.25,1.75,1.5,0.5,0.0,0.5,0.25,-0.17,0.08,0.95,424.93,22.9,53.8,0.75,0.0,2.25,0.75,0.5,0.75,0.75,0.0,0.0,0.0,0.0,0.0,0.25,-1.55,1.95,1.02,57.08,-20.4,51.1
1.06,7.0,3.0,9.0,9.0,0.0,0.0,0.25,1.75,1.75,0.5,0.0,0.5,0.25,-0.11,0.08,0.95,445.44,23.3,54.4,0.75,0.0,2.25,0.75,0.5,0.75,0.75,0.0,0.0,0.5,0.0,0.0,0.0,-1.8,1.64,0.64,71.04,-18.8,47.4
1.08,7.5,3.5,9.0,9.75,0.0,0.0,0.25,1.25,1.5,0.5,0.0,0.5,0.25,-0.11,0.08,0.95,476.73,23.8,57.7,0.75,0.0,2.25,0.75,0.5,0.75,0.75,0.0,0.0,0.25,0.0,0.0,0.25,-2.55,1.39,0.83,85.17,-18.9,45.8
1.1,7.75,4.0,9.25,10.0,0.0,0.5,0.0,1.25,1.25,0.5,0.0,0.5,0.25,-0.17,0.14,0.95,509.21,23.2,59.1,0.75,0.0,2.25,0.75,0.5,0.75,0.75,0.0,0.0,0.25,0.0,0.0,0.25,-1.92,1.7,0.45,94.91,-18.9,45.8
1.12,8.0,4.5,9.25,11.0,0.0,0.0,0.0,0.75,1.0,0.5,0.0,0.5,0.25,-0.11,0.14,0.95,540.35,24.2,62.2,0.0,0.0,1.75,0.5,0.5,0.0,0.25,0.0,0.0,0.0,0.0,0.0,0.5,-2.23,-0.11,0.77,83.16,-20.6,33.3
1.14,8.25,4.75,9.25,11.0,0.0,0.0,0.0,0.25,1.0,0.25,0.0,0.5,0.25,-0.17,0.14,1.14,562.96,25.0,65.1,0.0,0.0,0.0,0.5,0.25,0.0,0.5,0.0,0.0,4.5,0.25,1.0,1.25,0.7,-0.42,2.27,97.06,7.5,-68.8
1.16,8.5,5.25,9.25,11.0,0.0,0.0,0.0,0.25,0.75,0.0,0.0,0.25,0.25,-0.17,0.14,1.14,574.63,25.4,68.7,0.0,0.0,0.0,0.0,0.5,0.0,0.0,2.75,1.0,7.5,3.25,4.0,5.0,-1.17,0.95,2.45,193.45,6.4,-79.7
1.18,8.5,5.5,9.0,11.0,0.0,0.0,0.0,0.25,1.0,0.5,0.0,0.5,0.25,-0.23,0.2,1.27,584.59,24.4,65.1,0.75,0.0,0.0,0.75,0.0,2.0,0.5,4.25,2.0,9.0,6.75,6.25,6.75,0.14,-0.05,1.02,333.85,4.0,-69.4
1.2,8.5,5.5,8.75,9.75,0.0,0.0,0.0,0.25,0.75,0.0,0.0,0.0,0.25,-0.3,0.2,1.33,571.42,25.5,70.7,0.75,0.0,1.25,0.75,0.5,2.0,1.0,5.25,3.0,9.75,8.75,7.25,8.25,-0.05,0.08,0.95,548.11,2.2,-65.1
1.22,8.5,5.25,8.5,8.75,0.0,0.0,0.0,0.25,0.75,0.0,0.0,0.25,0.0,-0.3,0.27,1.33,550.26,26.0,71.1,0.75,0.0,1.0,0.75,1.75,2.0,0.75,6.25,3.25,10.5,9.75,7.75,9.0,0.02,0.08,0.95,780.82,2.7,-63.5
1.24,7.5,4.0,0.0,7.75,0.0,0.0,0.0,0.0,0.5,0.0,0.0,0.0,0.0,-0.36,0.27,1.83,442.12,22.4,78.2,0.75,0.0,2.25,1.0,2.25,2.0,1.25,6.25,3.25,10.5,10.0,8.0,9.0,0.02,0.08,1.02,959.92,1.4,-58.7
1.26,7.25,0.0,6.0,5.75,0.0,0.0,0.0,0.0,0.75,0.0,0.0,0.0,0.0,-0.3,0.27,2.45,359.47,29.7,68.9,0.75,0.0,2.5,0.75,1.5,2.0,1.25,6.25,3.5,10.5,10.5,8.0,9.25,0.02,0.08,0.95,1060.69,1.2,-60.7
1.28,3.5,0.0,3.0,2.5,0.0,0.0,0.0,0.0,0.0,0.0,0.0,0.0,0.0,-0.17,0.89,3.08,251.25,30.9,73.5,0.5,0.0,3.25,0.75,1.25,2.0,1.5,5.5,3.5,10.5,10.5,8.0,9.25,0.02,0.08,0.95,1106.72,0.5,-60.4
1.3,0.0,0.0,2.0,0.0,0.0,0.0,0.0,0.0,1.25,0.0,0.0,0.0,0.0,-0.23,0.45,2.45,142.76,28.5,23.6,0.75,0.0,2.0,0.75,1.25,1.75,1.25,5.25,3.25,10.5,10.5,8.0,9.25,0.02,0.08,0.95,1110.16,1.3,-63.4
1.32,0.0,0.0,0.5,0.5,0.0,0.0,0.0,0.0,1.75,0.0,0.0,0.0,0.0,0.27,-0.17,1.64,36.43,18.0,-1.7,0.75,0.0,1.25,0.75,1.0,1.5,1.25,5.25,3.25,10.0,9.75,8.0,9.25,0.02,0.08,0.95,1075.07,1.8,-66.1
1.34,0.0,0.0,0.0,0.0,0.0,0.0,0.0,0.0,0.5,0.0,0.0,0.0,0.0,-0.17,-1.05,2.89,0.0,12.1,-38.5,0.75,0.0,1.75,0.75,0.0,1.75,1.25,5.25,3.25,9.25,9.75,8.0,9.0,0.02,0.08,0.95,1018.3,1.2,-66.8
1.36,0.0,0.0,0.0,1.0,0.0,0.0,0.0,0.0,0.25,0.0,0.0,0.0,0.0,0.02,-0.8,0.77,0.0,16.2,39.5,0.0,0.0,2.0,0.5,0.0,0.0,1.25,5.25,2.75,9.0,8.5,6.5,8.25,0.02,0.08,0.95,911.24,1.3,-71.0
1.38,0.0,0.0,0.0,2.75,0.0,0.0,0.0,0.0,0.25,0.0,0.0,0.0,0.0,-0.67,-0.3,0.45,0.0,16.8,50.2,0.0,0.0,2.0,0.5,0.0,0.0,0.75,4.25,2.75,8.5,8.25,6.5,8.75,0.02,0.08,0.89,798.29,1.2,-72.8
1.4,0.0,0.0,0.0,0.0,0.0,0.0,0.5,0.0,0.0,0.0,0.0,0.0,0.0,-0.92,-0.36,0.45,0.0,32.4,27.3,0.0,0.0,0.0,2.5,0.0,0.5,1.0,4.75,2.0,8.5,9.25,6.5,8.25,0.02,0.08,0.95,704.24,2.3,-71.2
1.42,0.0,0.0,0.0,0.0,0.0,0.0,0.0,0.0,0.0,0.0,0.0,0.0,0.0,-0.98,-0.36,0.7,0.0,0.0,0.0,0.75,0.0,0.25,1.0,0.5,0.0,1.0,5.25,2.25,9.5,9.25,7.75,9.0,0.02,0.08,0.95,674.51,2.3,-73.0
1.44,0.0,0.0,0.0,0.0,0.0,0.0,0.0,0.0,0.0,0.0,0.0,0.0,0.0,-1.3,-0.17,0.77,0.0,0.0,0.0,0.5,0.25,3.25,0.5,1.0,0.5,1.0,5.25,2.0,9.0,9.25,7.0,9.0,0.02,0.08,0.89,677.22,0.3,-62.8
1.46,0.0,0.0,0.0,0.0,0.0,0.0,0.0,0.0,0.0,0.0,0.0,0.0,0.0,-1.36,0.14,0.52,0.0,0.0,0.0,2.0,0.0,0.5,0.75,0.25,1.25,1.75,4.25,2.75,9.75,8.5,7.75,8.5,0.02,0.08,0.95,690.57,1.1,-66.0
1.48,0.0,0.0,0.0,0.0,0.0,0.0,0.0,0.0,0.0,0.0,0.0,0.0,0.0,-1.3,0.33,0.39,0.0,0.0,0.0,0.75,0.0,0.75,1.0,0.25,1.25,0.75,4.25,2.75,9.25,8.5,8.0,8.75,0.02,0.08,0.95,696.77,2.0,-70.1
1.5,0.0,0.0,0.0,0.0,0.0,0.0,0.0,0.0,0.0,0.0,0.0,0.0,0.0,-1.3,0.39,0.64,0.0,0.0,0.0,0.0,0.0,0.5,0.5,0.25,0.0,0.75,4.25,2.5,9.0,8.5,7.25,8.5,0.02,0.08,0.95,675.15,2.6,-77.6
1.52,0.0,0.0,0.0,0.0,0.0,0.0,0.0,0.0,0.0,0.0,0.0,0.0,0.0,-1.36,0.52,0.95,0.0,0.0,0.0,0.75,0.0,2.25,0.75,1.0,1.5,1.25,5.25,2.75,9.75,9.75,8.0,9.25,0.02,0.08,0.89,713.87,1.0,-63.8
1.54,0.0,0.0,0.0,0.0,0.0,0.0,0.0,0.0,0.0,0.0,0.0,0.0,0.0,-1.48,0.64,1.02,0.0,0.0,0.0,1.75,0.0,2.75,1.5,4.5,2.0,1.5,5.5,3.25,10.5,9.75,7.25,9.25,0.08,0.08,0.95,792.77,0.4,-48.8
1.56,0.0,0.0,0.0,0.0,0.0,0.0,0.0,0.0,0.0,0.0,0.0,0.0,0.0,-1.42,0.95,1.02,0.0,0.0,0.0,0.75,0.0,2.5,1.0,0.25,2.0,2.0,5.5,3.25,10.5,9.75,8.0,8.75,0.08,0.08,0.95,850.59,0.7,-62.4
1.58,0.0,0.0,0.0,0.0,0.0,0.0,0.0,0.0,0.0,0.0,0.0,0.0,0.0,-1.3,1.08,1.02,0.0,0.0,0.0,1.25,0.0,5.0,1.75,1.25,2.0,1.75,6.0,3.25,10.5,9.75,8.0,9.0,0.08,0.08,0.95,915.92,-1.1,-52.0
1.6,0.0,0.0,0.0,0.0,0.0,0.0,0.0,0.0,0.0,0.0,0.0,0.0,0.0,-1.23,1.2,1.02,0.0,0.0,0.0,1.75,0.0,5.25,1.75,1.75,1.75,2.25,6.25,3.25,9.75,9.75,7.75,9.0,0.08,0.08,0.95,955.69,-1.8,-48.7
1.62,0.0,0.0,0.0,0.0,0.0,0.0,0.0,0.0,0.0,0.0,0.0,0.0,0.0,-1.3,1.33,0.95,0.0,0.0,0.0,2.0,0.0,6.75,2.75,1.5,2.0,2.5,6.25,3.0,9.75,9.5,7.25,8.75,0.08,0.08,0.95,980.44,-3.1,-42.7
1.64,0.0,0.0,0.0,0.0,0.0,0.0,0.0,0.0,0.0,0.0,0.0,0.0,0.0,-1.55,1.45,0.95,0.0,0.0,0.0,2.0,0.0,6.75,3.0,1.25,2.0,2.75,6.25,2.75,9.25,8.75,6.0,8.5,0.08,0.08,0.95,962.94,-3.2,-40.2
1.66,0.0,0.0,0.0,0.0,0.0,0.0,0.0,0.0,0.0,0.0,0.0,0.0,0.0,-1.61,1.33,0.95,0.0,0.0,0.0,2.0,0.0,7.0,3.0,2.25,2.0,2.75,5.5,2.5,8.75,8.25,6.5,8.0,0.08,0.08,0.95,941.08,-3.7,-37.3
1.68,0.0,0.0,0.0,0.0,0.0,0.0,0.0,0.0,0.0,0.0,0.0,0.0,0.0,-1.67,1.14,0.7,0.0,0.0,0.0,2.0,0.0,7.75,3.0,2.5,2.0,2.75,5.25,2.0,8.0,7.75,5.5,7.75,0.14,0.08,0.95,894.7,-4.4,-32.9
1.7,0.0,0.0,0.0,0.0,0.0,0.0,0.0,0.0,0.0,0.0,0.0,0.0,0.0,-1.8,1.02,0.58,0.0,0.0,0.0,2.0,0.0,7.75,3.25,2.25,2.0,2.5,4.25,1.5,7.0,6.5,4.25,6.25,0.08,0.08,0.95,808.32,-5.5,-26.6
1.72,0.0,0.0,0.0,0.0,0.0,0.0,0.0,0.0,0.0,0.0,0.0,0.0,0.0,-1.36,0.95,0.45,0.0,0.0,0.0,2.0,0.0,7.5,3.0,1.25,2.0,2.5,2.75,0.75,4.5,4.25,2.5,5.0,0.08,0.14,0.95,666.55,-7.9,-16.5
1.74,0.0,0.0,0.0,0.0,0.0,0.0,0.0,0.0,0.0,0.0,0.0,0.0,0.0,-0.3,1.14,0.83,0.0,0.0,0.0,1.75,0.0,6.75,1.0,2.25,1.25,1.75,2.5,0.25,3.0,1.5,1.25,3.5,0.2,0.14,1.02,492.55,-8.5,-4.8
1.76,0.0,0.0,0.0,0.0,0.0,0.0,0.0,0.0,0.0,0.0,0.0,0.0,0.0,-0.17,1.02,4.02,0.0,0.0,0.0,1.25,0.0,5.25,1.25,1.0,1.25,1.5,1.25,0.5,2.75,0.25,0.25,2.75,1.39,0.83,0.83,331.15,-9.1,0.5
1.78,0.0,0.0,0.0,0.0,0.0,0.0,0.0,0.0,0.0,0.5,0.0,0.0,0.0,-0.98,0.58,1.08,3.11,-15.7,-75.5,0.5,0.0,3.25,0.75,0.5,0.75,1.25,1.25,0.5,2.5,0.75,0.25,2.0,0.64,1.14,0.89,221.42,-6.3,-14.3
1.8,0.0,0.0,0.0,1.0,0.0,0.0,0.0,0.75,1.0,1.75,0.0,1.0,0.25,-0.05,-0.17,0.83,35.66,-0.8,-47.7,0.75,0.0,2.5,0.75,0.5,0.5,0.75,1.25,0.25,1.5,0.75,0.5,1.75,-0.23,1.08,1.02,133.0,-7.0,-13.1
1.82,0.0,0.0,0.0,1.25,0.0,0.0,0.0,2.0,1.75,3.5,0.0,2.5,2.5,-0.17,0.14,1.2,108.96,-4.2,-65.3,0.75,0.0,2.25,0.75,0.5,0.5,0.75,1.25,0.25,1.5,0.5,0.5,1.75,0.77,1.2,0.08,68.04,-6.2,-13.4
1.84,0.0,0.0,0.0,0.25,0.0,0.0,0.0,3.75,2.5,5.0,0.0,3.75,3.75,-0.23,-0.05,0.95,198.1,-6.6,-75.3,0.75,0.0,2.25,0.75,0.25,0.5,0.75,0.25,0.25,1.5,0.5,0.25,1.75,0.7,1.02,0.52,29.48,-8.9,-10.3
1.86,0.0,0.0,0.25,0.0,0.0,0.0,0.0,4.5,2.75,5.25,3.5,4.0,4.25,-0.11,0.02,0.95,283.24,-4.2,-74.9,0.75,0.0,2.0,0.75,0.5,0.75,0.75,0.25,0.25,1.5,0.5,0.25,1.75,0.83,0.64,0.7,15.78,-7.0,-9.2
1.88,0.0,0.0,0.0,0.75,0.0,0.0,0.0,4.75,3.0,5.25,3.5,4.25,4.25,-0.17,0.08,0.95,355.13,-3.8,-71.9,0.75,0.0,1.75,0.75,0.5,0.75,0.75,0.0,0.25,1.5,0.25,0.25,1.75,0.58,0.14,0.39,14.91,-6.7,-8.6
1.9,0.0,0.0,0.0,0.5,0.0,0.0,0.0,5.25,3.25,6.0,4.25,4.5,5.0,-0.17,0.08,0.95,423.16,-4.1,-73.7,0.75,0.0,2.25,0.75,0.5,0.5,0.75,0.0,0.0,1.5,0.0,0.25,1.5,0.27,-0.3,0.64,22.53,-9.7,0.2
1.92,0.0,0.0,0.0,0.5,0.0,0.0,0.25,5.5,3.5,6.25,5.0,5.0,5.25,-0.17,0.02,0.95,482.99,-3.6,-73.7,0.5,0.0,1.0,0.5,1.0,0.5,0.75,0.0,0.0,1.5,0.25,0.25,1.5,0.02,-0.55,1.2,32.01,-2.9,-13.5
1.94,0.0,0.0,0.0,1.75,0.0,0.0,0.25,5.5,3.75,6.0,5.25,5.25,5.5,-0.17,0.02,0.95,534.44,-2.4,-68.8,0.75,0.0,1.75,0.5,0.25,0.5,0.75,0.0,0.0,1.5,0.0,0.0,1.5,-0.23,-0.61,1.2,48.19,-8.0,-4.5
1.96,0.0,0.0,0.0,1.75,0.0,0.0,0.25,5.5,3.75,6.5,5.5,5.25,6.0,-0.17,0.02,0.95,574.25,-2.7,-69.5,0.75,0.0,2.25,0.75,0.5,0.75,0.75,0.0,0.25,1.5,0.0,0.0,1.5,-0.48,-0.48,0.95,73.72,-8.9,3.1
1.98,0.0,0.0,0.0,1.75,0.0,0.0,0.25,5.5,4.0,6.25,6.0,5.75,6.0,-0.17,0.02,0.95,603.38,-2.2,-69.9,0.75,0.0,2.0,0.5,0.5,0.5,0.75,0.0,0.0,1.5,0.0,0.0,1.25,-0.8,-0.55,1.08,89.7,-9.3,3.5
2.0,0.0,0.0,0.0,1.75,0.0,0.0,0.0,6.0,4.25,7.0,6.0,5.75,6.25,-0.17,0.02,0.95,625.32,-2.7,-70.0,0.75,0.0,1.25,0.75,1.0,0.25,0.75,0.0,0.0,1.5,0.0,0.0,1.25,-0.42,-0.55,0.77,100.46,-6.6,2.4
2.02,0.0,0.0,0.0,1.75,0.0,0.0,0.25,5.75,4.25,7.0,6.25,5.75,6.5,-0.17,0.02,0.95,633.3,-2.5,-70.2,0.75,0.0,1.75,0.75,0.25,0.25,0.75,0.0,0.0,1.5,0.0,0.0,1.0,0.14,-0.48,0.64,101.52,-11.1,4.6
2.04,0.0,0.0,0.0,1.75,0.0,0.0,0.0,5.5,4.0,6.25,6.25,5.5,6.5,-0.17,0.02,0.95,617.88,-2.4,-70.6,0.75,0.0,2.25,0.75,0.5,0.5,0.75,0.0,0.0,2.75,0.25,1.0,1.5,0.33,-0.98,1.14,118.6,-6.7,-17.9
2.06,0.0,0.0,0.0,1.75,0.0,0.0,0.0,5.5,4.0,6.25,6.0,5.75,6.25,-0.17,0.02,0.95,593.99,-2.4,-70.5,0.5,0.0,2.0,0.75,0.5,0.25,0.75,0.0,0.5,2.75,1.5,1.0,1.75,1.08,-0.05,1.27,138.35,-6.3,-31.5
2.08,0.0,0.0,0.5,1.75,0.0,0.0,0.0,5.0,3.75,6.25,5.25,5.25,6.0,-0.17,0.02,0.95,559.17,-2.0,-68.3,0.5,0.0,1.0,0.5,1.25,0.5,0.75,0.0,0.25,1.75,0.75,0.5,1.75,-0.17,0.02,0.77,146.53,-2.5,-22.2
2.1,0.0,0.0,0.5,1.75,0.0,0.0,0.0,5.0,3.75,6.25,5.25,5.25,6.0,-0.17,0.02,0.89,531.22,-2.0,-68.3,0.75,0.0,1.75,0.5,0.5,0.5,0.75,0.0,0.5,1.5,0.75,1.0,1.75,-0.05,0.2,1.08,150.41,-7.6,-22.9
2.12,0.0,0.0,1.5,1.75,0.0,0.0,0.0,4.75,4.0,5.25,5.25,5.25,5.5,-0.11,0.02,0.95,505.09,0.0,-63.4,0.75,0.0,2.25,0.75,0.5,0.5,0.75,0.0,0.5,2.75,0.75,1.0,1.75,0.08,0.14,0.89,158.76,-6.7,-23.0
2.14,0.0,0.0,0.0,1.75,0.0,0.0,0.25,4.75,3.75,5.25,5.0,4.75,5.25,-0.11,0.02,0.95,472.72,-2.0,-68.3,0.75,0.0,2.25,0.75,0.5,0.5,0.75,1.25,0.75,3.25,1.75,1.25,2.75,-0.05,0.14,0.89,186.01,-3.2,-36.1
2.16,0.0,0.0,1.5,1.75,0.0,0.0,0.25,4.75,3.75,5.0,4.0,4.25,5.0,-0.11,0.02,0.89,440.42,-0.3,-60.3,0.75,0.0,2.25,0.75,0.25,0.5,0.75,1.25,0.75,4.5,2.0,2.5,3.0,0.02,0.08,0.95,223.6,-2.3,-46.4
2.18,0.0,0.0,2.25,1.75,0.0,0.0,0.25,4.75,4.0,5.25,4.25,4.75,5.0,-0.17,0.08,0.95,426.94,0.8,-58.3,0.75,0.0,2.5,0.75,0.5,0.75,0.75,1.5,0.75,6.0,3.75,3.25,4.5,0.02,0.14,0.95,280.53,-0.9,-52.7
2.2,0.0,0.0,2.25,1.75,0.0,0.0,0.5,4.75,4.25,5.25,4.75,4.75,5.0,-0.11,0.02,0.95,426.48,1.1,-58.1,0.75,0.0,2.25,0.75,0.5,0.75,0.75,2.5,0.75,6.5,4.5,4.0,5.25,0.02,0.08,0.95,344.38,0.2,-57.2
2.22,0.0,0.0,2.0,1.75,0.0,0.0,0.5,4.5,4.25,5.25,4.75,4.5,4.25,-0.11,0.08,1.02,423.64,1.2,-57.5,0.75,0.0,2.75,0.75,1.25,1.25,1.0,2.75,0.75,7.25,5.75,5.0,5.75,0.02,0.08,0.89,429.75,0.0,-54.3
2.24,0.0,0.0,2.25,1.75,0.0,0.0,0.25,4.25,3.75,4.0,3.75,4.5,4.25,-0.11,0.08,0.95,405.43,1.8,-55.9,1.5,0.0,2.75,0.75,1.0,1.25,1.0,2.75,1.5,8.0,6.5,5.75,6.75,0.02,0.08,0.95,526.12,-0.6,-55.4
2.26,0.0,0.0,2.0,1.75,0.0,0.0,0.25,3.75,3.75,5.25,3.5,4.5,4.25,-0.17,0.08,0.89,392.32,1.0,-57.9,0.75,0.0,3.25,0.75,1.25,1.25,1.0,3.0,1.5,8.0,7.25,5.75,7.5,0.02,0.08,0.95,611.94,-0.3,-57.1
2.28,0.0,0.0,2.0,1.75,0.0,0.0,0.25,3.75,4.25,5.25,4.75,5.0,4.25,-0.11,0.08,0.95,393.5,1.7,-59.1,0.75,0.0,2.75,0.75,1.0,1.25,1.25,3.25,1.5,8.0,7.25,5.75,7.5,0.02,0.08,0.95,664.48,0.1,-59.0
2.3,0.0,0.0,2.5,1.75,0.0,0.0,0.25,3.75,4.25,5.25,5.25,5.25,4.25,-0.11,0.02,0.95,406.83,2.5,-57.8,0.75,0.0,2.75,0.75,1.0,1.25,1.25,3.75,1.5,8.25,7.75,6.25,7.75,0.02,0.08,0.95,707.7,0.2,-60.0
2.32,0.0,0.0,2.25,1.75,0.0,0.0,0.25,3.5,4.0,5.25,5.0,5.25,4.25,-0.11,0.08,0.95,420.54,2.2,-59.0,0.75,0.0,2.75,0.75,1.0,1.25,1.25,3.5,1.5,8.25,7.75,6.25,7.75,0.02,0.08,0.95,727.86,0.1,-60.1
2.34,0.0,0.0,2.5,1.75,0.0,0.0,0.25,2.25,4.0,5.25,5.0,5.25,4.25,-0.11,0.08,0.95,423.96,3.3,-58.8,0.75,0.0,2.5,0.75,0.5,1.25,1.25,3.0,1.5,8.25,7.75,6.0,7.75,0.02,0.08,0.95,721.51,0.2,-62.4
2.36,0.0,0.0,2.25,1.75,0.0,0.0,0.25,2.0,4.25,5.25,5.25,5.25,4.25,-0.11,0.08,0.95,422.52,3.3,-59.9,0.75,0.0,2.75,0.75,0.5,1.25,1.25,2.75,1.5,8.0,7.5,5.75,7.75,0.02,0.08,0.95,697.45,0.0,-61.3
2.38,0.0,0.0,2.25,1.75,0.0,0.0,0.25,2.0,4.25,5.25,5.5,5.25,4.25,-0.05,0.02,0.95,420.64,3.3,-60.1,0.75,0.0,2.75,0.75,0.5,1.0,1.0,2.75,1.25,8.0,7.25,5.75,7.5,0.02,0.08,0.95,662.38,0.0,-61.9
2.4,0.0,0.0,2.5,1.75,0.0,0.0,0.25,2.0,4.25,5.25,5.75,5.5,4.25,-0.11,0.08,0.95,423.62,3.7,-59.6,0.75,0.0,2.75,0.75,1.25,0.75,1.0,2.75,1.0,7.75,7.25,5.75,7.0,0.02,0.08,0.95,625.22,-0.3,-59.3
2.42,0.0,0.0,2.5,1.75,0.0,0.0,0.5,2.0,4.25,4.75,5.5,5.25,4.25,-0.05,0.08,0.95,421.87,4.0,-58.4,0.5,0.0,2.75,0.75,1.25,0.75,0.75,2.5,0.75,7.5,6.5,5.25,6.5,0.02,0.08,0.95,574.66,0.0,-59.1
2.44,0.0,0.0,2.25,1.75,0.0,0.0,0.25,2.0,4.0,4.0,5.25,5.25,4.0,-0.11,0.02,0.95,411.79,4.2,-59.0,0.75,0.0,2.25,0.75,0.5,0.5,0.75,2.25,0.75,7.25,6.0,5.0,6.5,0.02,0.08,0.95,523.0,0.0,-62.9
2.46,0.0,0.0,2.5,1.75,0.0,0.0,0.25,1.75,3.75,4.0,5.0,5.25,4.0,-0.11,0.08,0.95,398.66,4.5,-58.1,0.5,0.0,2.25,0.75,0.5,0.75,0.75,1.5,0.75,7.0,5.25,4.5,6.25,0.02,0.08,0.95,465.11,0.2,-62.4
2.48,0.0,0.0,2.25,1.75,0.0,0.0,0.25,1.25,3.5,3.75,5.0,5.0,3.5,-0.05,0.08,0.95,378.6,5.1,-58.2,0.5,0.0,2.0,0.75,0.5,0.75,0.75,1.25,0.75,6.25,4.5,3.75,5.75,0.02,0.08,0.95,404.94,0.3,-60.8
2.5,0.0,0.0,0.75,1.75,0.0,0.0,0.0,1.0,3.25,3.75,4.25,4.5,3.25,-0.11,0.08,0.95,345.48,2.7,-65.0,0.5,0.0,2.25,0.75,0.5,0.5,0.75,1.25,0.75,6.0,4.0,3.25,5.5,0.02,0.08,0.95,361.19,-0.1,-58.6
2.52,0.0,0.0,0.75,1.0,0.0,0.0,0.25,0.5,3.0,3.5,3.5,4.5,2.75,-0.11,0.08,0.95,305.04,3.1,-68.6,0.75,0.0,2.25,0.75,0.5,0.5,0.75,1.25,0.75,5.5,3.0,2.5,5.0,0.02,0.08,0.95,318.81,-0.4,-53.2
2.54,0.0,0.0,0.0,1.75,0.0,0.0,0.0,0.25,2.5,2.25,3.5,3.75,2.75,-0.11,0.08,0.95,269.55,3.1,-68.3,0.5,0.0,2.25,0.75,0.5,0.5,0.75,1.25,0.5,4.5,2.25,2.5,4.5,0.02,0.08,0.95,282.15,-0.6,-51.8
2.56,0.0,0.0,0.0,1.5,0.0,0.0,0.0,0.25,2.25,2.25,2.25,3.5,2.0,-0.11,0.08,0.95,230.88,2.9,-67.6,0.75,0.0,1.75,0.5,0.5,0.5,0.75,1.25,0.5,4.25,2.0,1.75,3.75,0.02,0.14,0.95,248.51,-0.1,-49.2
2.58,0.0,0.0,0.0,1.75,0.0,0.0,0.0,0.25,2.0,2.0,2.0,2.75,1.75,-0.11,0.08,0.95,192.97,3.2,-61.8,0.75,0.0,2.0,0.75,1.0,0.5,0.75,1.25,0.5,3.75,1.75,1.0,3.0,0.02,0.14,0.95,217.21,-1.4,-35.6
2.6,0.0,0.0,0.0,1.75,0.0,0.0,0.0,0.25,2.0,2.0,1.5,2.75,1.5,-0.11,0.08,0.95,161.96,3.2,-60.2,0.75,0.0,2.25,0.75,0.5,0.75,0.75,1.25,0.25,3.5,1.5,0.75,3.0,0.02,0.14,0.95,190.39,-1.7,-33.8
2.62,0.0,0.0,0.0,1.5,0.0,0.0,0.0,0.25,1.5,1.75,0.75,2.5,1.5,-0.11,0.08,0.95,133.16,2.2,-61.7,0.75,0.0,2.25,0.75,0.5,0.25,0.75,0.75,0.25,3.25,1.5,1.0,3.0,0.02,0.14,0.95,171.35,-3.5,-36.4
2.64,0.0,0.0,0.0,1.0,0.0,0.0,0.0,0.25,1.5,1.0,0.5,2.5,1.5,-0.11,0.08,0.95,108.3,2.6,-67.6,0.5,0.0,2.25,0.75,0.5,0.5,0.75,1.25,0.25,3.25,1.5,1.0,2.75,0.02,0.14,0.95,163.85,-2.2,-36.2
2.66,0.0,0.0,0.0,1.25,0.0,0.0,0.0,0.25,1.25,0.5,0.0,1.5,1.0,-0.11,0.08,0.95,78.33,4.2,-50.9,0.75,0.0,2.0,0.75,0.5,0.5,0.75,0.5,0.25,3.25,1.5,1.0,2.5,0.02,0.14,0.95,159.66,-3.4,-34.3
2.68,0.0,0.0,0.0,1.5,0.0,0.0,0.0,0.25,1.25,0.5,0.25,1.5,0.5,-0.3,0.02,0.95,56.88,6.6,-41.8,0.5,0.0,1.75,0.75,0.5,0.5,0.75,0.0,0.25,3.25,0.75,0.75,2.5,0.02,0.14,0.95,151.2,-2.4,-34.6
2.7,0.0,0.0,0.5,1.0,0.0,0.0,0.0,0.0,1.0,0.5,0.0,1.5,0.5,-0.55,0.02,0.89,39.21,9.5,-40.3,0.5,0.0,2.25,0.75,0.5,0.25,0.75,0.25,0.25,3.25,0.75,0.75,2.0,0.02,0.14,0.95,144.63,-4.7,-28.8
2.72,0.0,0.0,0.0,0.0,0.0,0.0,0.0,0.0,0.75,0.5,0.0,0.5,0.0,-0.55,0.02,0.95,17.31,3.2,-69.6,0.5,0.0,1.0,0.5,1.0,0.25,0.75,0.25,0.25,3.0,0.75,0.5,2.0,0.02,0.14,0.95,135.65,-0.2,-34.3
2.74,0.0,0.0,0.0,1.0,0.0,0.0,0.0,0.25,1.0,0.5,0.0,0.5,0.25,-0.36,0.08,0.95,11.52,5.3,-30.4,0.75,0.0,2.0,0.75,0.0,0.5,0.75,0.0,0.5,3.0,0.75,0.5,1.75,0.02,0.14,0.95,131.55,-5.8,-26.3
2.76,0.0,0.0,0.5,0.0,0.0,0.0,0.0,0.0,0.75,0.0,0.0,0.25,0.25,-0.11,0.14,1.02,0.9,15.5,-29.9,0.5,0.0,1.75,0.5,0.5,0.5,0.75,0.0,0.25,3.0,0.75,0.5,1.75,0.02,0.14,0.95,129.83,-3.5,-28.7
2.78,0.0,0.0,0.5,0.0,0.0,0.0,0.0,0.0,0.5,0.0,0.0,0.0,0.0,-0.3,0.27,0.89,0.0,25.5,12.2,0.75,0.0,1.75,0.75,0.5,0.5,0.75,0.0,0.25,2.75,0.75,0.25,1.75,0.02,0.14,0.95,132.25,-4.8,-20.6
2.8,0.0,0.0,0.25,0.25,0.0,0.0,0.0,0.0,1.0,0.5,0.0,0.0,0.0,-0.17,0.33,1.08,0.0,9.2,-22.4,0.75,0.0,1.5,0.75,0.25,0.5,0.75,0.0,0.25,2.5,0.75,0.5,1.75,0.02,0.14,0.95,131.44,-4.8,-25.8
2.82,0.0,0.0,0.25,1.0,0.0,0.0,0.0,0.0,1.0,0.5,0.0,0.0,0.25,-0.42,0.14,0.89,4.82,9.3,-9.1,0.75,0.0,1.25,0.75,0.5,0.5,0.75,0.0,0.25,2.5,0.5,0.5,1.75,0.02,0.14,0.95,130.4,-3.5,-24.5
2.84,0.0,0.0,0.25,1.0,0.0,0.0,0.0,0.0,1.0,0.5,0.0,0.0,0.0,-0.55,0.02,0.7,14.8,11.4,0.1,0.75,0.0,1.25,0.75,0.25,0.25,0.75,0.0,0.25,2.25,0.5,0.25,1.75,0.02,0.14,0.95,124.33,-4.9,-24.7
2.86,0.0,0.0,0.0,0.0,0.0,0.0,0.0,0.0,1.0,0.5,0.0,0.0,0.0,-0.61,-0.05,0.52,18.38,2.8,-51.0,0.75,0.0,1.5,0.75,0.5,0.5,0.75,0.0,0.25,1.75,0.5,0.25,1.75,0.02,0.14,0.95,121.87,-6.0,-15.4
2.88,0.0,0.0,0.0,0.75,0.0,0.0,0.0,0.0,0.75,0.5,0.0,0.5,0.0,0.14,0.02,1.08,24.68,7.5,-29.8,0.0,0.0,0.75,0.75,0.5,0.5,0.75,0.0,0.25,1.75,0.5,0.25,1.75,0.02,0.14,0.95,113.46,0.0,-33.8
2.9,0.0,0.0,0.75,0.5,0.0,0.0,0.0,0.0,1.0,0.5,0.0,0.5,0.25,0.58,0.64,1.52,33.85,12.3,-22.9,0.5,0.0,1.25,0.75,0.5,0.5,0.75,0.0,0.0,1.75,0.5,0.25,1.75,0.02,0.14,0.95,112.39,-4.0,-20.3
2.92,0.0,0.0,0.0,1.0,0.0,0.0,0.0,0.0,1.0,0.5,0.0,0.5,0.25,0.83,0.45,1.08,41.07,7.0,-29.8,0.75,0.0,1.25,0.5,0.5,0.5,0.75,0.0,0.25,1.75,0.5,0.25,1.75,0.02,0.14,0.95,112.67,-4.7,-20.0
2.94,0.0,0.0,0.0,0.75,0.0,0.0,0.0,0.0,1.0,0.5,0.0,0.25,0.25,0.2,-0.05,0.95,45.64,5.8,-30.9,0.75,0.0,1.25,0.75,0.5,0.5,0.75,0.0,0.25,1.5,0.5,0.25,1.5,0.02,0.14,0.95,114.23,-6.3,-13.0
2.96,0.0,0.0,0.25,0.5,0.0,0.0,0.0,0.0,0.75,0.5,0.0,0.0,0.25,-0.3,0.08,0.95,45.62,7.2,-21.3,0.5,0.0,1.25,0.75,0.5,0.5,0.75,0.0,0.25,1.5,0.5,0.25,1.25,0.02,0.14,0.95,113.28,-6.1,-13.1
2.98,0.0,0.0,0.0,0.5,0.0,0.0,0.0,0.0,1.0,0.5,0.0,0.25,0.25,-0.17,0.14,0.95,42.66,4.7,-40.1,0.75,0.0,1.25,0.5,0.25,0.5,0.75,0.0,0.0,1.75,0.5,0.25,1.25,0.02,0.14,0.95,110.32,-6.0,-16.0
3.0,0.0,0.0,0.0,0.75,0.0,0.0,0.0,0.0,0.75,0.5,0.0,0.0,0.0,-0.11,0.08,0.95,38.87,7.2,-10.2,0.5,0.0,1.25,0.75,0.25,0.5,0.75,0.0,0.0,1.75,0.5,0.25,1.5,0.02,0.14,0.95,108.7,-4.9,-20.1
3.02,0.0,0.0,0.0,0.5,0.0,0.0,0.0,0.25,1.0,0.5,0.0,0.5,0.25,-0.17,0.14,0.95,41.45,3.2,-45.8,0.5,0.0,1.25,0.75,0.25,0.5,0.75,0.0,0.0,1.5,0.5,0.25,1.25,0.02,0.14,0.95,105.73,-6.3,-14.9
3.04,0.0,0.0,0.0,0.5,0.0,0.0,0.0,0.0,1.0,0.5,0.0,0.0,0.25,-0.17,0.14,0.95,38.71,4.2,-32.5,0.0,0.0,0.25,0.75,0.5,0.5,0.75,0.0,0.0,1.5,0.25,0.25,1.25,0.02,0.14,0.95,97.52,2.4,-31.7
3.06,0.0,0.0,0.0,0.0,0.0,0.0,0.0,0.0,1.0,0.5,0.0,0.0,0.25,-0.17,0.14,0.95,35.68,0.3,-59.7,0.5,0.0,1.25,0.5,1.0,0.5,0.75,0.0,0.25,1.5,0.25,0.0,1.25,0.02,0.14,0.95,99.78,-4.7,-5.3
3.08,0.0,0.0,0.0,0.0,0.0,0.0,0.0,0.0,1.0,0.5,0.0,0.25,0.25,-0.17,0.14,0.95,33.54,1.4,-65.9,0.75,0.0,1.0,0.5,0.25,0.5,0.75,0.0,0.0,1.5,0.5,0.0,1.5,0.02,0.14,0.95,99.02,-4.8,-16.8
3.1,0.0,0.0,0.0,0.0,0.0,0.0,0.0,0.0,1.0,0.5,0.0,0.0,0.25,-0.17,0.14,0.95,31.04,0.3,-59.7,0.5,0.0,1.25,0.5,0.5,0.5,0.75,0.0,0.0,1.5,0.5,0.25,1.25,0.02,0.14,0.95,102.05,-5.5,-14.8
3.12,0.0,0.0,0.0,0.0,0.0,0.0,0.0,0.25,1.0,0.25,0.0,0.0,0.25,-0.17,0.14,0.95,27.79,0.2,-54.4,0.75,0.0,1.25,0.75,0.25,0.5,0.75,0.0,0.0,1.5,0.5,0.25,1.25,0.02,0.14,0.95,104.92,-7.2,-11.4
3.14,0.0,0.0,0.0,0.0,0.0,0.0,0.0,0.0,1.0,0.5,0.0,0.0,0.0,-0.17,0.14,0.95,24.66,2.8,-51.0,0.5,0.0,1.25,0.75,0.5,0.5,0.75,0.0,0.0,1.5,0.25,0.25,1.25,0.02,0.14,0.95,106.69,-5.7,-10.1
3.16,0.0,0.0,0.0,0.0,0.0,0.0,0.0,0.0,1.0,0.5,0.0,0.0,0.25,-0.17,0.14,0.95,25.38,0.3,-59.7,0.75,0.0,1.25,0.75,0.5,0.5,0.75,0.0,0.0,1.5,0.25,0.0,1.25,0.02,0.14,0.95,107.44,-6.6,-3.2
3.18,0.0,0.0,0.0,0.0,0.0,0.0,0.0,0.25,1.0,0.5,0.0,0.0,0.0,-0.17,0.14,0.95,25.46,0.0,-49.2,0.5,0.0,1.25,0.75,0.5,0.0,0.75,0.0,0.0,1.5,0.0,0.0,1.25,0.02,0.14,0.95,103.65,-7.6,-7.0
3.2,0.0,0.0,0.0,0.0,0.0,0.0,0.0,0.25,1.0,0.5,0.0,0.0,0.25,-0.17,0.14,0.95,27.92,-1.7,-57.0,0.25,0.0,0.25,0.75,0.5,0.5,0.75,0.0,0.0,1.5,0.0,0.25,1.25,0.02,0.14,0.95,96.81,1.4,-24.6
3.22,0.0,0.0,0.0,0.0,0.0,0.0,0.0,0.0,1.0,0.25,0.0,0.0,0.25,-0.17,0.14,0.95,26.7,3.0,-57.0,0.75,0.0,1.0,0.75,0.5,0.5,0.75,0.0,0.0,1.5,0.0,0.0,1.25,0.02,0.14,0.95,95.67,-5.2,-3.1
3.24,0.0,0.0,0.25,0.0,0.0,0.0,0.0,0.0,1.25,0.25,0.0,0.0,0.0,-0.17,0.14,0.95,26.64,12.0,-29.1,0.75,0.0,1.0,0.75,0.5,0.25,0.75,0.0,0.0,1.5,0.25,0.25,1.25,0.02,0.14,0.95,97.35,-6.5,-10.7
3.26,0.0,0.0,0.0,0.0,0.0,0.0,0.0,0.0,1.0,0.25,0.0,0.0,0.25,-0.17,0.14,0.95,24.64,3.0,-57.0,0.5,0.0,1.25,0.75,0.25,0.5,0.75,0.0,0.0,1.5,0.25,0.0,1.0,0.02,0.14,0.95,98.88,-6.8,-5.2
3.28,0.0,0.0,0.0,0.0,0.0,0.0,0.0,0.0,1.0,0.25,0.0,0.0,0.25,-0.17,0.14,0.95,24.77,3.0,-57.0,0.75,0.0,1.25,0.5,0.5,0.5,0.75,0.0,0.0,1.5,0.25,0.25,1.0,0.02,0.14,0.95,101.87,-7.0,-5.4
3.3,0.0,0.0,0.0,0.0,0.0,0.0,0.0,0.0,1.25,0.25,0.0,0.0,0.25,-0.17,0.14,0.95,25.63,4.3,-54.4,0.5,0.0,1.0,0.75,0.25,0.5,0.75,0.0,0.25,1.5,0.25,0.25,1.25,0.02,0.14,0.95,101.78,-5.1,-16.5
3.32,0.0,0.0,0.0,0.0,0.0,0.0,0.0,0.0,1.25,0.25,0.0,0.0,0.5,-0.17,0.14,0.95,28.43,2.0,-61.5,0.75,0.0,1.25,0.75,0.5,0.0,0.75,0.0,0.0,1.5,0.0,0.25,1.0,0.02,0.14,0.95,101.38,-9.4,-3.1
3.34,0.0,0.0,0.0,0.0,0.0,0.0,0.0,0.0,1.25,0.5,0.0,0.0,0.25,-0.17,0.14,0.95,31.18,1.8,-57.0,0.75,0.0,1.25,0.75,0.5,0.5,0.75,0.0,0.0,1.5,0.25,0.25,1.25,0.02,0.14,0.95,104.57,-6.6,-6.8
3.36,0.0,0.0,0.0,0.0,0.0,0.0,0.0,0.25,1.25,0.25,0.0,0.0,0.0,-0.17,0.14,0.95,31.19,3.9,-43.9,0.0,0.0,0.25,0.5,0.5,0.25,0.5,0.0,0.0,1.5,0.0,0.25,1.0,0.02,0.14,0.95,93.86,3.4,-35.1
3.38,0.0,0.0,0.0,0.0,0.0,0.0,0.0,0.25,1.0,0.5,0.0,0.0,0.25,-0.17,0.14,0.95,32.27,-1.7,-57.0,0.5,0.0,0.5,0.75,0.25,0.5,0.75,0.0,0.0,1.5,0.25,0.25,1.0,0.02,0.14,0.95,90.37,-2.8,-18.2
3.4,0.0,0.0,0.0,0.0,0.0,0.0,0.0,0.0,1.0,0.25,0.0,0.0,0.25,-0.17,0.14,0.95,29.61,3.0,-57.0,0.5,0.0,1.25,0.75,0.5,0.5,0.75,0.0,0.0,1.5,0.0,0.0,1.0,0.02,0.14,0.95,89.64,-6.2,0.0
3.42,0.0,0.0,0.0,0.0,0.0,0.0,0.0,0.25,1.0,0.25,0.0,0.0,0.25,-0.17,0.14,0.95,29.19,0.2,-54.4,0.5,0.0,1.0,0.75,0.5,0.25,0.75,0.0,0.0,1.5,0.0,0.25,1.0,0.02,0.14,0.95,92.35,-6.1,-8.1
3.44,0.0,0.0,0.0,0.0,0.0,0.0,0.0,0.0,1.0,0.25,0.0,0.0,0.0,-0.17,0.14,0.95,25.44,6.5,-46.0,0.75,0.0,1.25,0.5,0.5,0.5,0.75,0.0,0.0,1.5,0.0,0.25,1.0,0.02,0.14,0.95,95.96,-6.9,-2.9
3.46,0.0,0.0,0.0,0.0,0.0,0.0,0.0,0.25,1.0,0.25,0.0,0.0,0.25,-0.17,0.14,0.95,26.39,0.2,-54.4,0.5,0.0,0.75,0.5,0.5,0.5,0.75,0.0,0.25,1.5,0.25,0.25,1.0,0.02,0.14,0.95,96.86,-3.7,-15.7
3.48,0.0,0.0,0.0,0.0,0.0,0.0,0.0,0.0,1.0,0.25,0.0,0.0,0.0,-0.17,0.14,0.95,23.28,6.5,-46.0,0.5,0.0,1.0,0.5,0.5,0.5,0.75,0.0,0.0,1.5,0.0,0.25,1.0,0.02,0.14,0.95,96.58,-4.5,-9.3
3.5,0.0,0.0,0.0,0.0,0.0,0.0,0.0,0.0,1.25,0.5,0.0,0.0,0.0,-0.17,0.14,0.95,24.74,4.1,-49.2,0.5,0.0,1.25,0.75,0.5,0.5,0.75,0.0,0.0,1.5,0.0,0.25,1.0,0.02,0.14,0.95,97.76,-6.3,-4.0
3.52,0.0,0.0,0.0,0.0,0.0,0.0,0.0,0.25,1.0,0.5,0.0,0.0,0.25,-0.17,0.14,0.95,26.88,-1.7,-57.0,0.5,0.0,1.25,0.5,1.25,0.5,0.75,0.0,0.0,1.5,0.0,0.25,1.0,0.02,0.14,0.95,103.04,-4.8,0.5
3.54,0.0,0.0,0.0,0.0,0.0,0.0,0.0,0.0,1.25,0.25,0.0,0.0,0.25,-0.17,0.14,0.95,28.33,4.3,-54.4,0.5,0.0,1.0,0.75,0.25,0.5,0.75,0.0,0.0,1.5,0.0,0.0,1.0,0.02,0.14,0.95,101.14,-5.3,-5.2
3.56,0.0,0.0,0.0,0.25,0.0,0.0,0.0,0.25,1.25,0.5,0.0,0.0,0.0,-0.17,0.14,0.95,31.12,3.3,-35.5,0.5,0.0,1.25,0.75,0.25,0.25,0.75,0.0,0.0,1.5,0.0,0.0,1.0,0.02,0.14,0.95,98.85,-7.8,-3.9
3.58,0.0,0.0,0.0,0.25,0.0,0.0,0.0,0.25,1.25,0.5,0.0,0.0,0.0,-0.17,0.14,0.95,33.47,3.3,-35.5,0.5,0.0,1.25,0.75,0.25,0.5,0.75,0.0,0.0,1.5,0.0,0.0,1.0,0.02,0.14,0.95,96.32,-6.6,-2.4
3.6,0.0,0.0,0.0,0.0,0.0,0.0,0.0,0.25,1.25,0.5,0.0,0.0,0.25,-0.17,0.14,0.95,36.15,-0.2,-55.0,0.75,0.0,1.25,0.5,0.5,0.0,0.75,0.0,0.0,1.5,0.25,0.25,1.0,0.02,0.14,0.95,97.45,-9.2,-8.3
3.62,0.0,0.0,0.0,0.0,0.0,0.0,0.0,0.0,1.25,0.25,0.0,0.0,0.25,-0.17,0.14,0.95,34.54,4.3,-54.4,0.5,0.0,1.0,0.75,0.5,0.5,0.75,0.0,0.0,1.5,0.0,0.0,1.0,0.02,0.14,0.95,95.57,-4.9,-2.5
3.64,0.0,0.0,0.0,0.0,0.0,0.0,0.0,0.25,1.25,0.25,0.0,0.0,0.25,-0.17,0.14,0.95,34.83,1.7,-52.4,0.75,0.0,1.25,0.75,0.5,0.75,0.75,0.0,0.0,1.5,0.0,0.0,1.25,0.02,0.14,0.95,100.87,-5.4,0.3
3.66,0.0,0.0,0.0,0.0,0.0,0.0,0.0,0.25,1.25,0.25,0.0,0.0,0.25,-0.17,0.14,0.95,33.86,1.7,-52.4,0.5,0.0,1.25,0.5,0.25,0.5,0.75,0.0,0.0,1.5,0.0,0.0,1.0,0.02,0.14,0.95,98.87,-6.2,-5.1
3.68,0.0,0.0,0.0,0.0,0.0,0.0,0.0,0.25,1.25,0.25,0.0,0.0,0.25,-0.17,0.14,0.95,34.03,1.7,-52.4,0.0,0.0,0.0,0.5,1.25,0.5,0.75,0.0,0.0,1.5,0.0,0.25,1.0,0.02,0.14,0.95,93.79,5.4,-21.5
3.7,0.0,0.0,0.0,0.0,0.0,0.0,0.0,0.25,1.0,0.5,0.0,0.0,0.25,-0.17,0.14,0.95,33.69,-1.7,-57.0,0.5,0.0,0.5,0.5,0.5,0.5,0.75,0.0,0.0,1.5,0.0,0.0,1.0,0.02,0.14,0.95,87.66,-1.1,-11.4
3.72,0.0,0.0,0.0,0.0,0.0,0.0,0.0,0.25,1.25,0.5,0.0,0.0,0.25,-0.17,0.14,0.95,35.39,-0.2,-55.0,0.5,0.0,1.25,0.5,0.5,0.5,0.75,0.0,0.0,1.5,0.0,0.25,1.0,0.02,0.14,0.95,88.86,-5.8,-6.5
3.74,0.0,0.0,0.0,0.0,0.0,0.0,0.0,0.25,1.25,0.5,0.0,0.0,0.25,-0.17,0.14,0.95,36.03,-0.2,-55.0,0.5,0.0,0.75,0.75,0.25,0.5,0.75,0.0,0.0,1.5,0.0,0.25,1.0,0.02,0.14,0.95,87.88,-4.0,-12.4
3.76,0.0,0.0,0.0,0.0,0.0,0.0,0.0,0.0,1.25,0.5,0.0,0.0,0.0,-0.17,0.14,0.95,33.85,4.1,-49.2,0.5,0.0,1.0,0.75,0.5,0.5,0.75,0.0,0.0,1.5,0.0,0.25,1.0,0.02,0.14,0.95,92.42,-5.0,-6.6
3.78,0.0,0.0,0.0,0.0,0.0,0.0,0.0,0.25,1.0,0.5,0.0,0.0,0.25,-0.17,0.14,0.95,33.38,-1.7,-57.0,0.5,0.0,1.25,0.5,0.5,0.25,0.75,0.0,0.0,1.5,0.0,0.0,1.0,0.02,0.14,0.95,93.66,-6.9,-3.8
3.8,0.0,0.0,0.0,0.0,0.0,0.0,0.0,0.0,1.0,0.5,0.0,0.0,0.25,-0.17,0.14,0.95,31.0,0.3,-59.7,0.5,0.0,1.0,0.5,0.5,0.5,0.75,0.0,0.0,1.5,0.0,0.25,1.0,0.02,0.14,0.95,94.28,-4.5,-9.3
3.82,0.0,0.0,0.0,0.0,0.0,0.0,0.0,0.25,1.0,0.5,0.0,0.0,0.25,-0.17,0.14,0.95,31.36,-1.7,-57.0,0.75,0.0,1.0,0.75,0.5,0.5,0.75,0.0,0.0,1.5,0.0,0.0,1.0,0.02,0.14,0.95,95.23,-5.9,1.1
3.84,0.0,0.0,0.0,0.0,0.0,0.0,0.0,0.25,1.0,0.5,0.0,0.0,0.25,-0.17,0.14,0.95,31.68,-1.7,-57.0,0.0,0.0,1.0,0.75,1.0,0.5,0.5,0.0,0.0,1.5,0.0,0.25,1.0,0.02,0.14,0.95,96.85,-1.6,-9.4
3.86,0.0,0.0,0.0,0.5,0.0,0.0,0.0,0.25,1.0,0.25,0.0,0.0,0.25,-0.17,0.14,0.95,33.5,4.1,-28.4,0.5,0.0,1.0,0.75,0.5,0.5,0.75,0.0,0.0,1.5,0.0,0.25,1.0,0.02,0.14,0.95,98.39,-5.0,-6.6
3.88,0.0,0.0,0.0,0.25,0.0,0.0,0.0,0.25,1.0,0.5,0.0,0.0,0.25,-0.17,0.14,0.95,34.46,0.4,-43.7,0.5,0.0,1.25,0.75,0.25,0.5,0.75,0.0,0.0,1.5,0.0,0.0,1.0,0.02,0.14,0.95,97.95,-6.6,-2.4
3.9,0.0,0.0,0.0,0.0,0.0,0.0,0.0,0.25,1.0,0.5,0.0,0.0,0.25,-0.17,0.14,0.95,34.51,-1.7,-57.0,0.75,0.0,1.0,0.75,0.5,0.5,0.75,0.0,0.0,1.5,0.0,0.25,1.0,0.02,0.14,0.95,100.99,-6.1,-2.9
3.92,0.0,0.0,0.0,0.0,0.0,0.0,0.0,0.25,1.0,0.5,0.0,0.0,0.25,-0.17,0.14,0.95,34.18,-1.7,-57.0,0.5,0.0,1.25,0.75,0.5,0.5,0.75,0.0,0.0,1.5,0.0,0.25,1.0,0.02,0.14,0.95,102.32,-6.3,-4.0
3.94,0.0,0.0,0.0,0.0,0.0,0.0,0.0,0.25,1.0,0.5,0.0,0.0,0.25,-0.17,0.14,0.95,33.55,-1.7,-57.0,0.5,0.0,1.25,0.75,0.25,0.5,0.75,0.0,0.0,1.5,0.0,0.25,1.0,0.02,0.14,0.95,101.99,-6.7,-6.6
3.96,0.0,0.0,0.0,0.0,0.0,0.0,0.0,0.25,1.0,0.5,0.0,0.0,0.25,-0.17,0.14,0.95,33.25,-1.7,-57.0,0.5,0.0,0.75,0.5,0.5,0.5,0.75,0.0,0.0,1.5,0.0,0.25,1.0,0.02,0.14,0.95,97.99,-3.0,-12.3
3.98,0.0,0.0,0.0,0.0,0.0,0.0,0.0,0.25,1.0,0.5,0.0,0.0,0.0,-0.17,0.14,0.95,31.63,0.0,-49.2,0.75,0.0,1.0,0.5,0.5,0.5,0.75,0.0,0.0,1.5,0.0,0.25,1.0,0.02,0.14,0.95,97.65,-5.6,-5.4
4.0,0.0,0.0,0.0,0.0,0.0,0.0,0.0,0.25,1.0,0.5,0.0,0.0,0.25,-0.17,0.14,0.95,32.07,-1.7,-57.0,0.5,0.0,0.75,0.5,1.25,0.5,0.5,0.0,0.0,1.5,0.0,0.0,1.0,0.02,0.14,0.95,97.15,-1.4,-0.5
4.02,0.0,0.0,0.0,0.0,0.0,0.0,0.0,0.25,1.0,0.5,0.0,0.0,0.25,-0.17,0.14,0.95,31.9,-1.7,-57.0,0.5,0.0,0.75,0.75,1.0,0.5,0.75,0.0,0.0,1.5,0.0,0.25,1.0,0.02,0.14,0.95,99.97,-3.0,-4.0
4.04,0.0,0.0,0.0,0.0,0.0,0.0,0.0,0.25,0.75,0.25,0.0,0.0,0.0,-0.17,0.14,0.95,28.05,0.7,-46.0,0.5,0.0,1.25,0.5,0.5,0.5,0.75,0.0,0.0,1.5,0.0,0.25,1.0,0.02,0.14,0.95,100.21,-5.8,-6.5
4.06,0.0,0.0,0.0,0.0,0.0,0.0,0.0,0.25,1.0,0.25,0.0,0.0,0.25,-0.17,0.14,0.95,26.95,0.2,-54.4,0.5,0.0,1.0,0.5,0.5,0.5,0.75,0.0,0.0,1.5,0.0,0.25,1.0,0.02,0.14,0.95,98.86,-4.5,-9.3
4.08,0.0,0.0,0.0,0.0,0.0,0.0,0.0,0.25,1.0,0.25,0.0,0.0,0.25,-0.17,0.14,0.95,26.19,0.2,-54.4,0.5,0.0,0.75,0.5,0.5,0.5,0.75,0.0,0.25,1.5,0.0,0.25,1.0,0.02,0.14,0.95,96.43,-3.4,-13.4
4.1,0.0,0.0,0.0,0.5,0.0,0.0,0.0,0.25,1.0,0.25,0.0,0.0,0.25,-0.17,0.14,0.95,28.89,4.1,-28.4,0.5,0.0,1.0,0.5,0.5,0.5,0.75,0.0,0.0,1.5,0.0,0.25,1.0,0.02,0.14,0.95,94.7,-4.5,-9.3
4.12,0.0,0.0,0.0,0.0,0.0,0.0,0.0,0.25,1.0,0.25,0.0,0.0,0.25,-0.17,0.14,0.95,29.14,0.2,-54.4,0.5,0.0,1.25,0.75,0.5,0.25,0.75,0.0,0.0,1.5,0.0,0.25,1.0,0.02,0.14,0.95,95.48,-7.3,-5.4
4.14,0.0,0.0,0.0,0.0,0.0,0.0,0.0,0.25,1.0,0.5,0.0,0.0,0.25,-0.17,0.14,0.95,31.42,-1.7,-57.0,0.5,0.0,1.0,0.5,0.5,0.5,0.75,0.0,0.25,1.5,0.0,0.25,1.0,0.02,0.14,0.95,96.15,-4.8,-10.4
4.16,0.0,0.0,0.0,0.0,0.0,0.0,0.0,0.25,1.0,0.5,0.0,0.0,0.25,-0.17,0.14,0.95,31.97,-1.7,-57.0,0.0,0.0,0.75,0.75,1.25,0.5,0.5,0.0,0.0,1.5,0.0,0.25,1.0,0.02,0.14,0.95,97.71,0.0,-9.4
4.18,0.0,0.0,0.0,0.0,0.0,0.0,0.0,0.25,1.0,0.5,0.0,0.0,0.25,-0.17,0.14,0.95,32.86,-1.7,-57.0,0.5,0.0,0.75,0.75,1.0,0.5,0.75,0.0,0.0,1.5,0.0,0.25,1.0,0.02,0.14,0.95,100.33,-3.0,-4.0
4.2,0.0,0.0,0.0,0.0,0.0,0.0,0.0,0.25,1.0,0.25,0.0,0.0,0.25,-0.17,0.14,0.95,31.86,0.2,-54.4,0.5,0.0,1.0,0.75,0.25,0.5,0.75,0.0,0.0,1.5,0.0,0.25,1.0,0.02,0.14,0.95,99.01,-5.4,-9.4
4.22,0.0,0.0,0.0,0.0,0.0,0.0,0.0,0.25,1.0,0.5,0.0,0.0,0.25,-0.17,0.14,0.95,32.55,-1.7,-57.0,0.5,0.0,1.25,0.75,0.5,0.5,0.75,0.0,0.0,1.5,0.0,0.25,1.0,0.02,0.14,0.95,100.0,-6.3,-4.0
4.24,0.0,0.0,0.0,0.0,0.0,0.0,0.0,0.25,0.75,0.5,0.0,0.0,0.25,-0.17,0.14,0.95,31.28,-3.7,-59.6,0.75,0.0,1.0,0.75,0.5,0.5,0.75,0.0,0.0,1.5,0.0,0.25,1.0,0.02,0.14,0.95,100.78,-6.1,-2.9
4.26,0.0,0.0,0.0,0.0,0.0,0.0,0.0,0.25,1.0,0.5,0.0,0.0,0.25,-0.17,0.14,0.95,32.21,-1.7,-57.0,0.5,0.0,1.0,0.75,0.5,0.5,0.75,0.0,0.0,1.5,0.0,0.25,1.0,0.02,0.14,0.95,101.05,-5.0,-6.6
4.28,0.0,0.0,0.0,0.0,0.0,0.0,0.0,0.25,1.0,0.5,0.0,0.0,0.25,-0.17,0.14,0.95,32.91,-1.7,-57.0,0.25,0.0,0.75,0.75,0.25,0.5,0.75,0.0,0.0,1.5,0.0,0.0,1.0,0.02,0.14,0.95,95.27,-2.4,-12.7
4.3,0.0,0.0,0.0,0.0,0.0,0.0,0.0,0.25,0.75,0.25,0.0,0.0,0.25,-0.17,0.14,0.95,30.3,-1.7,-57.0,0.25,0.0,0.75,0.75,0.5,0.5,0.75,0.0,0.0,1.5,0.0,0.0,1.0,0.02,0.14,0.95,91.37,-2.1,-9.4
4.32,0.0,0.0,0.0,0.0,0.0,0.0,0.0,0.25,1.0,0.5,0.0,0.0,0.25,-0.17,0.14,0.95,30.6,-1.7,-57.0,0.25,0.0,0.75,1.0,1.25,0.5,0.75,0.0,0.0,1.5,0.0,0.25,1.0,0.02,0.14,0.95,94.75,-2.3,-2.7
4.34,0.0,0.0,0.0,0.0,0.0,0.0,0.0,0.25,1.0,0.5,0.0,0.0,0.25,-0.17,0.14,0.95,30.86,-1.7,-57.0,0.5,0.0,0.5,0.5,0.5,0.5,0.75,0.0,0.0,1.5,0.0,0.25,1.0,0.02,0.14,0.95,92.11,-1.4,-15.7
4.36,0.0,0.0,0.0,0.0,0.0,0.0,0.0,0.25,1.0,0.5,0.0,0.0,0.25,-0.17,0.14,0.95,32.31,-1.7,-57.0,0.75,0.0,1.0,0.75,0.5,0.5,0.75,0.0,0.0,1.5,0.0,0.0,1.0,0.02,0.14,0.95,95.15,-5.9,1.1
4.38,0.0,0.0,0.0,0.0,0.0,0.0,0.0,0.25,0.75,0.25,0.0,0.0,0.25,-0.17,0.14,0.95,29.85,-1.7,-57.0,0.5,0.0,1.0,0.5,0.5,0.5,0.75,0.0,0.0,1.5,0.0,0.25,1.0,0.02,0.14,0.95,94.44,-4.5,-9.3
4.4,0.0,0.0,0.0,0.0,0.0,0.0,0.0,0.25,1.0,0.5,0.0,0.0,0.25,-0.17,0.14,0.95,30.79,-1.7,-57.0,0.25,0.0,1.0,0.5,0.5,0.5,0.75,0.0,0.0,1.5,0.0,0.25,1.0,0.02,0.14,0.95,93.45,-3.3,-13.5
4.42,0.0,0.0,0.0,0.0,0.0,0.0,0.0,0.25,1.0,0.5,0.0,0.0,0.25,-0.17,0.14,0.95,31.07,-1.7,-57.0,0.5,0.0,1.0,0.5,0.25,0.5,0.75,0.0,0.0,1.5,0.0,0.25,1.0,0.02,0.14,0.95,90.62,-4.9,-12.4
4.44,0.0,0.0,0.0,0.0,0.0,0.0,0.0,0.25,1.0,0.5,0.0,0.0,0.25,-0.17,0.14,0.95,32.37,-1.7,-57.0,0.5,0.0,1.0,0.75,0.5,0.25,0.75,0.0,0.0,1.5,0.0,0.25,1.0,0.02,0.14,0.95,91.85,-6.1,-8.1
4.46,0.0,0.0,0.0,0.0,0.0,0.0,0.0,0.25,1.0,0.5,0.0,0.0,0.0,-0.17,0.14,0.95,31.25,0.0,-49.2,0.5,0.0,1.25,0.5,0.5,0.5,0.75,0.0,0.0,1.5,0.0,0.25,1.0,0.02,0.14,0.95,93.63,-5.8,-6.5
4.48,0.0,0.0,0.0,0.0,0.0,0.0,0.0,0.25,1.0,0.5,0.0,0.25,0.25,-0.17,0.14,0.95,33.72,-0.5,-62.9,0.25,0.0,0.75,1.0,1.25,0.5,0.5,0.0,0.0,1.5,0.0,0.25,1.0,0.02,0.14,0.95,99.06,-1.7,-3.2
4.5,0.25,0.0,0.0,0.0,0.0,0.0,0.0,0.25,1.0,0.5,0.0,0.0,0.25,-0.17,0.14,0.95,34.36,2.0,-40.8,0.5,0.0,1.25,0.75,0.5,0.5,0.75,0.0,0.0,1.5,0.0,0.25,1.0,0.02,0.14,0.95,102.75,-6.3,-4.0
4.52,0.0,0.0,0.0,0.0,0.0,0.0,0.0,0.25,1.0,0.5,0.0,0.0,0.25,-0.17,0.14,0.95,34.99,-1.7,-57.0,0.75,0.0,1.25,0.75,0.5,0.25,0.75,0.0,0.0,1.5,0.0,0.0,1.0,0.02,0.14,0.95,104.16,-8.3,2.3
4.54,0.25,0.0,0.0,0.0,0.0,0.0,0.0,0.25,1.0,0.5,0.0,0.25,0.25,-0.17,0.14,0.95,37.24,2.7,-47.7,0.75,0.0,0.75,0.75,0.5,0.5,0.75,0.0,0.0,1.5,0.0,0.25,1.0,0.02,0.14,0.95,102.31,-4.8,-5.5
4.56,0.0,0.0,0.0,0.0,0.0,0.0,0.0,0.25,1.0,0.25,0.0,0.0,0.25,-0.17,0.14,0.95,34.84,0.2,-54.4,0.5,0.0,0.75,0.5,0.25,0.5,0.75,0.0,0.0,1.5,0.0,0.0,1.0,0.02,0.14,0.95,95.09,-3.1,-11.4
4.58,0.0,0.0,0.0,0.0,0.0,0.0,0.0,0.25,1.0,0.5,0.0,0.0,0.25,-0.17,0.14,0.95,34.34,-1.7,-57.0,0.5,0.0,0.75,0.75,0.5,0.25,0.75,0.0,0.0,1.5,0.0,0.25,1.0,0.02,0.14,0.95,92.64,-4.7,-11.1
4.6,0.0,0.0,0.0,0.0,0.0,0.0,0.0,0.25,1.0,0.0,0.0,0.0,0.25,-0.17,0.14,0.95,30.33,2.8,-50.9,0.5,0.0,1.0,0.75,0.25,0.25,0.75,0.0,0.0,1.5,0.0,0.25,1.0,0.02,0.14,0.95,89.47,-6.5,-11.1
4.62,0.0,0.0,0.0,0.0,0.0,0.0,0.0,0.25,1.0,0.5,0.0,0.0,0.25,-0.17,0.14,0.95,30.85,-1.7,-57.0,0.5,0.0,0.75,0.75,0.25,0.75,0.75,0.0,0.0,1.5,0.0,0.25,1.0,0.02,0.14,0.95,90.68,-2.9,-10.7
4.64,0.0,0.0,0.0,0.0,0.0,0.0,0.0,0.25,1.0,0.5,0.0,0.0,0.25,-0.17,0.14,0.95,30.34,-1.7,-57.0,0.25,0.0,0.5,0.75,0.25,0.5,0.75,0.25,0.0,1.5,0.0,0.25,1.0,0.02,0.14,0.95,88.47,-0.2,-21.5
4.66,0.0,0.0,0.0,0.0,0.0,0.0,0.0,0.25,0.75,0.5,0.0,0.0,0.25,-0.17,0.14,0.95,30.56,-3.7,-59.6,0.5,0.0,0.25,0.5,0.5,0.5,0.75,0.0,0.0,1.5,0.0,0.25,1.0,0.02,0.14,0.95,85.58,0.2,-19.3
4.68,0.0,0.0,0.0,0.0,0.0,0.0,0.0,0.25,1.0,0.5,0.0,0.25,0.25,-0.17,0.14,0.95,32.9,-0.5,-62.9,0.5,0.0,1.0,0.75,0.5,0.5,0.75,0.0,0.0,1.5,0.0,0.0,1.0,0.02,0.14,0.95,86.62,-4.9,-2.5
4.7,0.0,0.0,0.0,0.0,0.0,0.0,0.0,0.25,0.75,0.5,0.0,0.25,0.25,-0.17,0.14,0.95,33.65,-2.1,-65.9,0.75,0.0,1.0,0.75,0.5,0.5,0.75,0.0,0.0,1.5,0.0,0.25,1.0,0.02,0.14,0.95,91.19,-6.1,-2.9
4.72,0.25,0.0,0.0,0.0,0.0,0.0,0.0,0.25,1.0,0.5,0.0,0.5,0.25,-0.17,0.14,0.95,37.76,3.3,-53.4,0.25,0.0,1.25,0.5,0.5,0.5,0.75,0.0,0.0,1.5,0.0,0.25,1.0,0.02,0.14,0.95,93.83,-4.8,-10.4
4.74,0.0,0.0,0.0,0.25,0.0,0.0,0.0,0.25,0.75,0.5,0.0,0.0,0.25,-0.17,0.14,0.95,36.98,-1.0,-44.3,0.5,0.0,0.75,0.5,0.25,0.5,0.75,0.0,0.0,1.5,0.0,0.25,1.0,0.02,0.14,0.95,92.75,-3.4,-15.7
4.76,0.5,0.0,0.0,0.0,0.0,0.0,0.0,0.25,1.0,0.5,0.0,0.25,0.25,-0.17,0.14,0.95,39.99,5.5,-35.2,0.5,0.0,1.0,0.5,0.5,0.25,0.75,0.0,0.0,1.5,0.0,0.25,1.0,0.02,0.14,0.95,91.94,-5.6,-11.0
4.78,0.0,0.0,0.0,0.0,0.0,0.0,0.0,0.25,0.75,0.5,0.0,0.25,0.25,-0.17,0.14,0.95,38.0,-2.1,-65.9,0.5,0.0,0.75,0.5,0.5,0.5,0.75,0.0,0.0,1.5,0.0,0.25,1.0,0.02,0.14,0.95,90.58,-3.0,-12.3
4.8,0.0,0.0,0.0,0.0,0.0,0.0,0.0,0.25,0.75,0.5,0.0,0.25,0.25,-0.17,0.14,0.95,37.78,-2.1,-65.9,0.5,0.0,0.0,1.25,1.5,0.5,0.75,0.0,0.0,1.5,0.0,0.25,1.0,0.02,0.14,0.95,97.15,0.2,-1.8
4.82,0.0,0.0,0.0,0.0,0.0,0.0,0.0,0.0,1.0,0.5,0.0,0.25,0.25,-0.17,0.14,0.95,35.75,1.4,-65.9,0.5,0.0,1.0,0.5,0.5,0.5,0.75,0.0,0.0,1.5,0.0,0.25,1.0,0.02,0.14,0.95,97.8,-4.5,-9.3
4.84,0.0,0.0,0.0,0.0,0.0,0.0,0.0,0.0,0.75,0.0,0.0,0.25,0.25,-0.17,0.14,0.95,30.92,6.1,-67.5,0.5,0.0,0.75,0.75,0.5,0.5,0.75,0.0,0.0,1.5,0.0,0.25,1.0,0.02,0.14,0.95,99.02,-3.6,-9.4
4.86,0.0,0.0,0.0,0.0,0.0,0.0,0.0,0.25,1.0,0.5,0.0,0.25,0.25,-0.17,0.14,0.95,31.41,-0.5,-62.9,0.75,0.0,1.0,0.75,0.25,0.5,0.5,0.0,0.0,1.5,0.0,0.25,1.0,0.02,0.14,0.95,97.85,-6.0,-6.1
4.88,0.0,0.0,0.0,0.0,0.0,0.0,0.0,0.25,1.25,0.5,0.0,0.5,0.25,-0.17,0.14,0.95,35.69,1.4,-65.0,0.5,0.0,0.75,0.5,0.25,0.5,0.75,0.0,0.0,1.5,0.0,0.25,1.0,0.02,0.14,0.95,94.05,-3.4,-15.7
4.9,0.0,0.0,0.0,0.0,0.0,0.0,0.0,0.25,1.0,0.5,0.0,0.5,0.25,-0.17,0.14,0.95,39.99,0.3,-67.6,0.5,0.0,1.0,0.75,0.5,0.5,0.75,0.0,0.0,1.5,0.0,0.25,1.0,0.02,0.14,0.95,94.25,-5.0,-6.6
4.92,0.0,0.0,0.0,0.0,0.0,0.0,0.0,0.25,1.0,0.5,0.0,0.25,0.25,-0.17,0.14,0.95,40.59,-0.5,-62.9,0.25,0.0,1.0,0.75,0.5,0.5,0.75,0.0,0.25,1.5,0.0,0.25,1.0,0.02,0.14,0.95,94.68,-4.2,-11.6
4.94,0.0,0.0,0.0,0.0,0.0,0.0,0.0,0.0,0.75,0.25,0.0,0.0,0.25,-0.17,0.14,0.95,34.7,1.2,-60.7,0.5,0.0,0.75,0.75,0.25,0.75,0.5,0.0,0.0,1.5,0.0,0.25,1.0,0.02,0.14,0.95,94.9,-2.4,-11.4
4.96,0.0,0.0,0.0,0.0,0.0,0.0,0.0,0.25,0.5,0.5,0.0,0.0,0.25,-0.17,0.14,0.95,29.3,-6.3,-63.1,0.0,0.0,0.5,0.75,0.5,0.5,0.5,0.0,0.0,1.5,0.0,0.25,1.0,0.02,0.14,0.95,90.29,1.3,-22.9
4.98,0.0,0.0,0.0,0.0,0.0,0.0,0.0,0.25,0.5,0.5,0.0,0.0,0.25,-0.17,0.14,0.95,25.29,-6.3,-63.1,0.5,0.0,1.0,0.5,0.5,0.5,0.75,0.0,0.0,1.5,0.0,0.25,1.0,0.02,0.14,0.95,90.54,-4.5,-9.3
5.0,0.0,0.0,0.0,0.0,0.0,0.0,0.0,0.25,0.75,0.25,0.0,0.0,0.25,-0.17,0.14,0.95,23.64,-1.7,-57.0,0.75,0.0,0.75,0.75,0.5,0.5,0.75,0.0,0.0,1.5,0.0,0.25,1.0,0.02,0.14,0.95,91.53,-4.8,-5.5
5.02,0.0,0.0,0.0,0.0,0.0,0.0,0.0,0.25,0.75,0.5,0.0,0.25,0.25,-0.17,0.14,0.95,26.59,-2.1,-65.9,0.5,0.0,1.0,0.5,0.5,0.5,0.75,0.0,0.0,1.5,0.0,0.25,1.0,0.02,0.14,0.95,93.09,-4.5,-9.3
5.04,0.0,0.0,0.0,0.5,0.0,0.0,0.0,0.25,0.75,0.0,0.0,0.0,0.25,-0.17,0.14,0.95,27.28,5.8,-20.4,0.75,0.0,1.0,0.5,0.5,0.25,0.75,0.25,0.0,1.5,0.0,0.25,1.0,0.02,0.14,0.95,95.3,-5.8,-8.1
5.06,0.0,0.0,0.0,0.0,0.0,0.0,0.0,0.25,1.0,0.0,0.0,0.0,0.25,-0.17,0.14,0.95,26.55,2.8,-50.9,0.5,0.0,1.0,0.75,0.5,0.5,0.5,0.25,0.0,1.5,0.0,0.25,1.0,0.02,0.14,0.95,98.51,-3.7,-8.4
5.08,0.0,0.0,0.0,0.0,0.0,0.0,0.0,0.25,0.75,0.25,0.0,0.0,0.25,-0.17,0.14,0.95,24.92,-1.7,-57.0,0.75,0.0,1.0,0.5,0.5,0.5,0.75,0.0,0.0,1.5,0.0,0.25,1.0,0.02,0.14,0.95,99.31,-5.6,-5.4
