time,left pressure 0[N/cm虏],left pressure 1[N/cm虏],left pressure 2[N/cm虏],left pressure 3[N/cm虏],left pressure 4[N/cm虏],left pressure 5[N/cm虏],left pressure 6[N/cm虏],left pressure 7[N/cm虏],left pressure 8[N/cm虏],left pressure 9[N/cm虏],left pressure 10[N/cm虏],left pressure 11[N/cm虏],left pressure 12[N/cm虏],left acceleration X[g],left acceleration Y[g],left acceleration Z[g],left total force[N],left center of pressure X[mm],left center of pressure Y[mm],right pressure 0[N/cm虏],right pressure 1[N/cm虏],right pressure 2[N/cm虏],right pressure 3[N/cm虏],right pressure 4[N/cm虏],right pressure 5[N/cm虏],right pressure 6[N/cm虏],right pressure 7[N/cm虏],right pressure 8[N/cm虏],right pressure 9[N/cm虏],right pressure 10[N/cm虏],right pressure 11[N/cm虏],right pressure 12[N/cm虏],right acceleration X[g],right acceleration Y[g],right acceleration Z[g],right total force[N],right center of pressure X[mm],right center of pressure Y[mm]
0.02,6.25,6.25,0.0,11.5,0.0,0.0,0.0,0.25,0.75,0.25,0.0,0.5,0.25,-0.23,0.27,1.14,430.86,18.7,67.1,0.25,0.0,0.0,0.75,0.0,0.25,0.25,1.25,0.25,8.75,7.25,6.5,8.0,-0.3,0.27,1.95,361.99,3.4,-83.5
0.04,0.0,6.25,0.0,11.5,0.0,1.5,0.0,0.25,1.0,0.0,0.0,0.0,0.0,-0.3,0.27,1.2,392.73,12.4,63.1,0.0,0.0,0.0,1.0,0.0,1.0,0.0,3.0,0.5,9.25,8.25,6.5,7.75,0.14,0.33,1.52,507.24,4.2,-78.8
0.06,6.0,0.0,0.0,11.0,0.0,0.0,0.0,1.0,0.75,0.25,0.0,0.0,0.0,-0.36,0.33,1.39,344.75,20.0,59.0,0.25,0.25,0.25,1.25,0.0,1.25,0.5,5.25,2.75,10.0,9.25,7.0,8.0,-0.05,0.08,1.02,670.44,3.1,-70.6
0.08,6.75,0.0,6.25,8.75,0.0,0.0,0.0,0.0,0.5,0.0,0.0,0.0,0.0,-0.42,0.39,1.58,323.32,28.1,67.9,1.25,0.25,0.5,2.0,0.25,1.25,1.25,6.25,3.25,10.5,9.75,7.25,8.25,0.14,0.2,1.14,818.44,1.7,-63.1
0.1,4.0,0.0,4.0,7.75,0.0,0.0,0.0,0.0,1.0,0.25,0.0,0.5,0.0,-0.55,0.45,1.83,288.44,24.8,55.0,1.75,0.25,3.25,3.0,1.5,1.25,1.25,7.0,4.0,10.5,10.0,7.25,8.25,0.08,0.08,1.02,965.56,-0.8,-50.2
0.12,1.75,0.0,2.5,3.75,0.0,0.0,0.0,0.0,0.25,0.0,0.0,0.0,0.0,-0.67,1.33,2.64,228.21,26.9,63.8,2.0,0.5,5.75,3.25,1.5,1.75,2.0,7.5,4.0,9.75,10.0,6.5,8.25,0.14,0.08,0.95,1081.93,-2.5,-41.7
0.14,0.0,0.0,0.75,2.5,0.0,0.0,0.0,0.0,0.25,0.0,0.0,0.0,0.0,-0.67,1.45,2.95,141.83,21.3,52.0,3.0,0.5,7.0,3.25,2.5,2.0,2.25,7.25,4.0,9.25,9.5,6.0,7.75,0.14,0.08,0.95,1157.6,-3.8,-33.8
0.16,0.0,0.0,0.0,1.0,0.0,0.0,0.0,0.0,0.25,0.0,0.0,0.0,0.0,-0.42,0.52,2.27,46.5,16.2,39.5,3.0,0.75,8.0,4.0,2.5,2.5,2.5,7.0,4.0,8.5,8.5,5.25,6.75,0.14,0.08,0.95,1165.54,-4.9,-26.6
0.18,0.0,0.0,0.0,1.5,0.0,0.0,0.0,0.0,0.5,0.0,0.0,0.0,0.0,-0.55,-1.05,1.64,0.0,16.0,34.8,4.5,0.75,8.75,4.5,2.75,2.75,2.5,6.25,3.25,7.5,7.5,3.75,5.25,0.14,0.08,0.95,1127.61,-6.8,-14.9
0.2,0.0,0.0,0.0,0.0,0.0,0.0,0.5,0.0,1.75,0.0,0.0,0.0,0.0,-0.36,-1.23,3.33,0.0,14.6,-30.5,4.5,1.0,8.75,4.5,2.75,2.75,2.5,5.5,2.75,6.25,5.75,2.5,3.75,0.14,0.08,0.95,1027.23,-8.1,-5.3
0.22,0.0,0.0,0.0,0.75,0.0,0.0,0.0,0.0,0.0,0.0,0.0,0.0,0.0,-0.36,-0.86,1.7,0.0,17.2,57.9,4.75,1.0,9.5,5.25,2.75,2.0,2.5,4.25,2.0,4.5,3.75,1.0,3.0,0.14,0.14,0.95,889.12,-11.2,9.1
0.24,0.0,0.0,0.0,0.5,0.0,0.0,0.0,0.0,0.25,0.0,0.0,0.0,0.0,-0.55,-0.73,0.45,0.0,15.5,27.0,5.0,1.25,9.5,5.5,2.75,2.25,2.25,3.0,1.5,3.25,2.0,1.0,1.75,0.14,0.14,0.95,746.93,-13.6,22.6
0.26,0.0,0.0,0.0,0.5,0.0,0.0,0.0,0.0,0.25,0.0,0.0,0.0,0.0,-0.42,-0.67,0.58,0.0,15.5,27.0,6.0,0.0,10.5,5.5,2.75,1.75,2.0,2.75,1.0,1.5,1.75,0.5,1.25,0.14,0.14,0.95,626.34,-17.4,33.0
0.28,0.0,0.0,0.0,0.25,0.0,0.0,0.0,0.0,0.25,0.0,0.0,0.0,0.0,-0.48,-0.67,0.77,0.0,14.7,11.1,6.0,0.0,10.5,5.75,2.75,1.5,1.75,1.5,0.75,1.5,0.5,0.25,1.25,0.14,0.14,0.89,528.15,-19.2,41.4
0.3,0.0,0.0,0.0,0.5,0.0,0.0,0.0,0.0,0.25,0.0,0.0,0.0,0.0,-0.55,-0.48,0.89,0.0,15.5,27.0,6.25,0.25,11.0,7.0,0.25,1.25,1.25,1.5,0.75,0.0,0.0,0.0,1.0,0.08,0.14,0.95,443.91,-24.2,52.6
0.32,0.0,0.0,0.0,0.0,0.0,0.0,0.0,0.0,0.25,0.0,0.0,0.0,0.0,-0.48,-0.17,0.89,0.0,12.1,-38.5,7.5,1.25,11.5,7.25,0.5,1.5,1.25,1.0,0.0,0.0,0.0,0.0,1.0,0.02,0.14,1.02,407.08,-24.7,59.3
0.34,0.0,0.0,0.0,0.25,0.0,0.0,2.25,0.0,0.25,0.0,0.0,0.0,0.0,-0.42,0.02,0.89,0.0,26.7,22.1,7.75,1.5,10.5,7.75,0.0,1.25,0.75,0.25,0.75,0.0,0.0,0.0,0.0,0.02,0.2,0.95,383.23,-26.9,66.2
0.36,0.0,0.0,0.0,0.0,0.0,0.0,0.0,0.0,0.25,0.0,0.0,0.0,0.0,-0.48,0.14,1.27,0.0,12.1,-38.5,8.25,2.25,10.5,8.5,1.25,1.25,1.0,1.5,0.25,1.5,0.0,0.0,1.0,0.02,0.2,0.95,412.32,-21.2,53.7
0.38,0.0,0.0,0.0,0.0,0.0,0.0,0.0,0.0,0.25,0.0,0.0,0.0,0.0,-0.48,0.27,1.58,4.67,12.1,-38.5,8.5,1.0,13.0,9.5,3.0,1.25,1.0,0.25,0.25,1.5,0.0,0.0,0.5,0.02,0.2,1.02,468.16,-23.0,58.1
0.4,0.0,0.0,0.0,0.0,0.0,0.0,0.0,0.0,0.25,0.0,0.0,0.0,0.0,-0.55,0.45,1.77,3.14,12.1,-38.5,8.75,2.25,13.5,9.25,3.0,1.25,0.75,0.0,0.25,1.0,0.0,0.0,0.0,0.02,0.27,1.02,536.43,-24.1,64.1
0.42,0.0,0.0,0.0,0.0,0.0,0.0,0.0,0.0,0.25,0.0,0.0,0.0,0.0,-0.67,0.7,1.89,1.57,12.1,-38.5,9.0,2.5,12.5,10.5,3.0,1.25,0.75,0.0,0.0,1.25,0.0,0.0,0.25,0.02,0.27,1.02,594.95,-23.1,63.1
0.44,0.0,0.0,0.0,0.0,0.0,0.0,0.0,0.0,0.25,0.0,0.0,0.0,0.0,-0.8,0.95,2.89,1.12,12.1,-38.5,9.0,3.0,14.0,11.0,4.25,0.0,0.75,0.0,0.0,1.0,0.0,0.0,0.5,0.02,0.27,1.08,661.3,-23.8,63.6
0.46,0.0,0.0,0.0,0.0,0.0,0.0,0.0,0.0,0.25,0.0,0.0,0.0,0.0,-0.8,1.39,2.95,2.22,12.1,-38.5,9.0,3.5,14.0,11.0,3.75,1.25,0.75,0.0,0.0,0.75,0.0,0.0,0.0,-0.05,0.33,1.08,712.71,-23.5,66.2
0.48,0.0,0.0,0.0,0.0,0.0,0.0,0.0,0.0,0.25,0.0,0.0,0.0,0.0,-0.55,2.02,2.7,2.51,12.1,-38.5,8.5,2.75,12.0,9.0,2.75,0.0,0.25,0.0,0.0,1.0,0.0,0.0,0.0,0.02,0.39,1.2,693.0,-25.1,66.6
0.5,0.0,0.0,0.0,0.0,0.0,0.0,0.0,0.0,0.25,0.0,0.0,0.0,0.0,-0.8,3.45,0.89,2.37,12.1,-38.5,8.5,3.5,14.0,10.5,2.75,0.75,0.5,0.0,0.0,1.25,0.0,0.0,0.0,0.14,0.45,1.33,701.63,-24.2,65.1
0.52,0.0,0.0,0.0,0.0,0.0,0.0,0.0,0.0,0.25,0.0,0.0,0.0,0.0,-0.36,4.08,0.45,2.56,12.1,-38.5,7.75,1.5,13.0,7.25,1.0,0.0,0.25,0.0,0.0,0.75,0.0,0.0,0.25,0.2,0.52,1.52,625.68,-28.1,65.4
0.54,0.0,0.0,0.0,0.0,0.0,0.0,0.0,0.0,0.25,0.0,0.0,0.0,0.0,1.39,4.95,1.08,2.5,12.1,-38.5,6.25,1.0,9.25,5.5,0.0,0.0,0.5,0.0,0.0,0.0,0.0,0.0,0.0,0.2,0.83,2.02,504.75,-30.7,71.2
0.56,0.0,0.0,0.0,0.0,0.0,0.0,0.0,0.0,0.5,0.25,0.0,0.0,0.0,1.27,5.83,-0.61,5.76,2.8,-51.0,4.5,0.75,7.0,3.25,0.0,0.75,0.25,0.0,0.0,1.0,0.0,0.0,0.0,-0.05,1.52,2.58,365.73,-26.6,61.8
0.58,0.0,0.0,0.0,0.0,0.0,0.0,0.0,0.0,0.0,0.0,0.0,0.0,0.25,-0.23,-0.3,2.39,5.67,-13.7,-109.8,1.25,0.0,5.25,0.75,0.0,0.0,0.25,0.0,0.0,0.0,0.0,0.0,0.25,0.02,1.08,2.52,242.66,-33.8,60.0
0.6,0.0,0.0,0.0,1.75,0.0,0.0,0.0,0.0,1.0,4.25,0.0,4.25,4.25,-0.3,0.33,1.39,97.49,-2.9,-76.4,0.5,0.0,2.25,0.5,0.0,0.0,0.25,0.0,0.0,0.0,0.0,0.0,0.25,0.02,0.14,2.02,115.84,-31.0,52.2
0.62,0.0,0.0,0.0,1.5,0.0,0.0,0.0,2.25,1.25,6.25,0.0,4.5,6.25,-0.23,0.58,2.45,203.59,-6.4,-77.1,1.0,0.25,0.5,2.0,0.0,0.25,0.25,0.0,0.0,0.0,0.0,0.0,0.0,0.52,-0.23,2.83,17.53,-21.6,67.5
0.64,0.0,0.0,0.0,0.0,0.0,0.0,0.0,4.75,2.0,6.25,3.0,4.75,6.25,-0.48,0.52,2.45,307.1,-6.2,-80.5,0.0,0.25,0.5,2.0,0.0,0.25,0.5,0.0,0.0,0.0,0.0,0.0,0.0,0.02,-1.11,1.83,0.0,-18.3,57.6
0.66,0.0,0.0,0.0,0.75,0.0,0.0,0.0,5.5,3.25,7.0,0.0,4.5,6.0,-0.17,0.08,1.02,389.25,-7.1,-73.3,0.5,0.25,0.5,1.75,0.0,0.25,0.25,0.0,0.0,1.0,0.0,0.0,0.25,0.52,-0.8,0.52,0.0,-10.6,24.8
0.68,0.0,0.0,0.5,0.0,0.0,0.75,0.0,6.25,4.25,7.0,5.5,5.0,5.75,-0.17,0.02,0.95,495.21,-4.0,-70.9,0.0,0.25,0.5,1.25,0.0,0.0,0.25,0.0,0.0,1.0,0.0,0.0,0.0,0.39,-0.61,0.45,0.0,-10.5,18.8
0.7,0.0,0.0,0.0,2.5,0.0,1.25,0.0,6.5,5.0,7.0,6.25,4.5,5.25,-0.17,0.02,1.02,576.42,-2.8,-60.8,0.5,0.0,0.5,0.75,0.0,0.5,0.25,0.0,0.0,0.5,0.0,0.0,0.25,0.14,-0.55,0.64,0.0,-10.0,24.3
0.72,0.0,1.0,0.5,3.5,0.0,1.75,0.0,6.5,5.5,6.25,6.0,4.5,4.5,-0.17,0.02,1.02,644.16,-1.1,-49.3,0.0,0.25,0.5,1.0,0.0,0.25,0.25,0.0,0.0,1.0,0.0,0.0,0.25,0.08,-0.48,0.83,0.0,-5.8,7.3
0.74,0.0,1.25,2.25,4.25,0.0,2.5,0.25,6.5,5.25,6.0,5.25,3.5,4.0,-0.17,0.02,0.95,680.33,0.5,-37.0,0.5,0.25,0.5,0.75,0.0,0.5,0.25,0.0,0.0,1.25,0.0,0.0,0.25,-0.05,-0.3,0.89,0.0,-5.5,10.8
0.76,0.25,1.0,2.5,5.5,0.5,2.5,0.25,6.25,5.0,5.25,4.25,2.5,2.75,-0.17,0.02,1.02,671.79,1.7,-25.7,0.25,0.25,0.5,1.0,0.0,0.25,0.25,0.0,0.0,0.75,0.0,0.0,0.0,-0.11,-0.11,0.89,0.0,-11.3,30.0
0.78,0.5,1.5,3.75,5.75,3.0,2.5,0.0,6.0,4.25,3.75,2.75,1.75,2.0,-0.17,0.02,0.95,648.47,3.3,-6.4,0.0,0.0,0.25,0.75,0.0,0.25,0.25,0.0,0.0,1.0,0.0,0.0,0.25,-0.11,0.02,1.08,16.2,-0.9,-11.7
0.8,1.5,1.75,4.0,5.75,4.5,2.75,0.0,5.5,3.5,2.0,0.75,1.5,1.0,-0.17,0.02,0.95,607.04,5.1,12.8,0.5,0.25,0.25,0.75,0.0,0.0,0.25,0.0,0.0,1.0,0.0,0.0,0.25,-0.11,0.27,1.33,30.58,-8.7,10.1
0.82,1.5,2.5,4.0,6.5,0.0,2.75,0.0,5.0,2.75,1.75,0.0,1.0,0.5,-0.17,0.08,0.95,530.05,7.7,18.6,0.0,0.0,0.25,1.25,0.0,0.0,0.25,0.0,0.0,0.5,0.0,0.0,0.25,-0.05,0.45,1.39,38.45,-10.1,11.7
0.84,1.5,2.25,4.0,7.25,0.0,2.5,0.0,4.75,2.0,1.0,0.0,0.5,0.5,-0.17,0.08,0.95,444.9,8.9,26.0,0.25,0.0,0.25,0.5,0.0,0.0,0.25,0.0,0.0,1.0,0.0,0.0,0.0,-0.11,0.95,1.33,37.21,-7.1,-1.5
0.86,1.5,2.5,4.0,7.25,2.75,2.5,0.0,3.75,2.0,0.5,0.0,0.5,0.25,-0.17,0.08,0.95,397.99,9.1,35.1,0.5,0.0,0.25,0.75,0.0,0.25,0.25,0.0,0.0,0.75,0.0,0.0,0.25,-0.36,1.27,1.45,37.15,-7.9,11.5
0.88,1.75,2.5,4.0,7.25,0.0,2.5,0.0,3.25,1.5,0.5,0.0,0.5,0.25,-0.17,0.08,0.95,357.52,11.5,36.3,0.0,0.0,0.5,0.75,0.0,0.25,0.25,0.0,0.0,0.5,0.0,0.0,0.25,-0.36,1.45,1.83,36.82,-8.4,9.1
0.9,1.75,2.75,4.5,7.25,0.0,2.25,0.0,2.75,1.25,0.5,0.0,0.5,0.25,-0.17,0.14,0.95,331.87,13.0,39.9,0.25,0.0,0.25,0.75,0.0,0.25,0.25,0.0,0.0,0.75,0.0,0.0,0.25,-0.48,1.77,2.02,37.38,-5.5,3.9
0.92,1.75,2.75,5.25,7.5,0.0,2.25,0.0,2.0,1.0,0.5,0.0,0.5,0.25,-0.17,0.14,0.95,311.63,14.8,44.0,0.5,0.0,0.25,0.75,0.0,0.25,0.25,0.0,0.0,1.25,0.0,0.0,0.5,-0.8,2.08,1.52,43.98,-3.1,-9.0
0.94,3.25,4.0,5.5,8.25,0.0,2.5,0.0,2.0,1.0,0.5,0.0,0.5,0.25,-0.17,0.14,0.89,325.88,15.7,49.7,0.25,0.25,0.25,0.75,0.0,0.25,0.25,0.0,0.0,0.75,0.0,0.0,0.25,-1.48,2.02,1.14,46.1,-6.1,12.4
0.96,3.5,4.0,5.0,8.5,0.0,2.5,0.0,1.75,1.0,0.5,0.0,0.5,0.25,-0.17,0.14,0.89,342.17,15.7,50.7,0.25,0.0,0.25,2.25,0.0,0.5,0.25,0.0,0.0,0.5,0.0,0.0,0.25,-2.36,2.02,1.02,54.93,-9.5,30.5
0.98,3.75,4.0,6.0,8.75,0.0,2.5,0.0,2.0,1.0,0.5,0.0,0.5,0.25,-0.17,0.14,0.95,372.45,16.4,50.8,0.0,0.0,0.25,0.75,0.0,0.25,0.25,0.0,0.0,1.0,0.0,0.0,0.25,-2.11,2.39,0.64,52.38,-0.9,-11.7
1.0,4.75,5.0,6.5,9.0,0.0,2.5,0.0,1.75,1.0,0.5,0.0,0.5,0.25,-0.17,0.14,0.95,409.62,17.4,54.6,0.25,0.0,0.25,0.75,0.0,0.25,0.25,0.0,0.0,0.5,0.0,0.0,0.25,-1.42,2.58,0.14,50.22,-7.7,12.2
1.02,5.25,5.25,6.5,9.75,0.0,2.5,0.0,1.75,1.0,0.5,0.0,0.5,0.25,-0.17,0.14,0.95,453.33,17.6,55.6,0.0,0.0,0.0,0.75,0.0,0.0,0.25,0.0,0.0,1.5,0.0,0.0,0.5,-1.67,1.45,1.52,46.74,4.5,-41.4
1.04,5.25,5.5,6.0,9.75,0.0,2.0,0.0,1.25,1.0,0.5,0.0,0.5,0.25,-0.17,0.14,1.08,482.62,18.4,57.7,0.0,0.25,0.0,1.25,0.0,0.5,0.25,0.0,0.0,4.0,0.0,1.0,1.5,0.7,-0.42,1.2,77.87,6.4,-52.9
1.06,5.75,6.25,0.0,10.0,0.0,1.75,0.0,0.75,1.0,0.5,0.0,0.5,0.25,-0.23,0.2,1.08,469.32,14.9,60.8,0.0,0.0,0.0,0.75,0.0,1.25,0.25,1.5,0.0,8.0,1.75,5.25,5.75,-0.05,-0.11,1.2,191.01,7.2,-78.8
1.08,0.0,6.25,0.0,9.5,0.0,1.75,0.0,0.25,0.75,0.25,0.0,0.5,0.25,-0.23,0.2,1.14,399.88,10.7,56.3,0.25,0.25,0.0,0.75,0.0,1.25,0.0,4.75,2.0,9.75,7.75,6.5,8.0,-0.17,0.77,2.77,354.04,4.5,-74.0
1.1,6.5,6.0,0.0,9.75,0.0,1.75,0.0,0.25,0.75,0.25,0.0,0.5,0.25,-0.3,0.2,1.27,375.57,16.4,65.6,0.0,0.25,0.0,0.75,0.0,1.25,0.25,6.25,2.75,10.5,9.25,7.25,9.0,0.08,-0.05,0.95,580.17,4.4,-74.3
1.12,6.75,6.5,0.0,9.75,0.0,0.0,0.0,0.25,0.75,0.0,0.0,0.25,0.25,-0.36,0.27,1.39,358.16,19.5,71.9,0.5,0.25,0.25,0.75,0.0,1.5,0.25,6.75,3.25,9.75,9.75,7.25,9.0,0.14,0.14,1.08,784.86,3.5,-70.7
1.14,7.0,6.25,0.0,8.75,0.0,0.0,0.0,0.25,0.25,0.0,0.0,0.0,0.25,-0.42,0.27,1.58,348.15,20.2,76.8,0.25,0.5,0.5,1.5,0.5,1.5,0.5,7.0,4.0,11.0,10.0,7.25,8.75,0.08,0.14,1.02,938.56,3.0,-65.8
1.16,5.5,0.0,0.0,6.5,0.0,0.0,0.0,0.0,0.75,0.0,0.0,0.25,0.0,-0.55,0.27,2.08,288.07,23.8,65.0,0.0,0.25,0.5,2.25,0.5,2.0,1.25,7.25,4.75,10.5,10.0,6.75,8.25,0.14,0.08,0.95,1021.44,2.6,-62.6
1.18,3.0,0.0,3.75,5.5,0.0,0.0,0.0,0.0,0.75,0.0,0.0,0.0,0.0,-0.48,0.64,2.83,241.27,26.8,61.8,1.0,0.25,2.25,2.0,1.5,2.0,1.25,7.0,4.75,9.75,9.75,6.5,8.0,0.14,0.08,0.95,1065.99,0.6,-53.4
1.2,0.25,0.0,1.5,2.5,0.0,0.0,0.0,0.0,0.75,0.0,0.0,0.0,0.0,-0.3,1.27,3.33,152.91,23.6,46.7,1.0,0.5,3.25,2.75,1.25,2.0,1.25,7.0,4.5,9.5,9.25,6.0,8.0,0.14,0.08,0.95,1079.52,-0.2,-48.9
1.22,0.0,0.0,0.0,0.0,0.0,0.0,0.0,0.0,0.0,0.0,0.0,0.0,0.0,-0.05,0.14,2.2,54.55,0.0,0.0,1.25,0.5,3.25,3.0,1.5,2.25,1.5,7.0,4.0,9.25,8.75,5.75,7.5,0.14,0.08,0.95,1067.06,-0.3,-45.6
1.24,0.0,0.0,0.0,0.0,0.0,0.0,0.0,0.0,0.0,0.0,0.0,0.0,0.0,0.08,-1.48,1.64,0.0,0.0,0.0,1.0,0.75,3.25,3.0,1.25,2.25,1.5,7.0,4.0,9.0,8.25,5.75,6.75,0.14,0.08,0.95,1018.06,-0.4,-44.7
1.26,0.0,0.0,0.0,0.0,0.0,0.0,1.0,0.0,0.0,0.0,0.0,0.0,0.0,-0.23,-0.98,1.33,0.0,32.4,27.3,1.25,0.5,3.5,3.0,1.75,2.5,1.25,7.0,4.0,8.75,8.25,5.25,6.75,0.14,0.08,0.95,958.47,-0.5,-42.2
1.28,0.0,0.0,0.0,0.25,0.0,0.0,0.0,0.0,0.0,0.0,0.0,0.0,0.0,-0.42,-0.36,0.64,0.0,17.2,57.9,2.0,0.5,3.25,3.0,1.75,2.75,1.25,7.0,3.75,8.5,8.0,5.25,6.5,0.14,0.08,0.95,890.69,-0.7,-39.9
1.3,0.0,0.0,0.0,0.0,0.0,0.0,0.0,0.0,0.25,0.0,0.0,0.0,0.0,-0.98,-0.42,0.58,0.0,12.1,-38.5,1.75,0.75,3.25,2.75,1.75,2.75,1.25,7.0,3.5,8.5,7.75,5.0,6.25,0.2,0.08,0.95,821.68,-0.5,-39.5
1.32,0.0,0.0,0.0,0.5,0.0,0.0,0.0,0.0,0.25,0.0,0.0,0.0,0.0,-1.05,-0.42,0.7,0.0,15.5,27.0,1.25,0.75,3.25,3.0,2.5,2.75,1.25,7.0,3.5,8.5,7.25,4.75,6.0,0.2,0.08,0.95,771.9,-0.1,-37.7
1.34,0.0,0.0,0.0,0.0,0.0,0.0,0.0,0.0,0.0,0.0,0.0,0.0,0.0,-1.23,-0.17,0.89,0.0,0.0,0.0,1.75,0.75,3.5,3.0,1.25,2.75,1.5,7.0,3.25,8.25,7.25,4.5,6.25,0.14,0.08,0.95,740.07,-0.7,-38.2
1.36,0.0,0.0,0.0,0.0,0.0,0.0,0.0,0.0,0.0,0.0,0.0,0.0,0.0,-1.3,0.2,0.77,0.0,0.0,0.0,1.25,0.75,3.5,3.0,2.5,3.0,1.5,6.75,3.25,8.25,7.25,4.25,5.75,0.14,0.08,0.95,719.57,-0.3,-35.4
1.38,0.0,0.0,0.0,0.0,0.0,0.0,0.0,0.0,0.0,0.0,0.0,0.0,0.0,-1.3,0.52,0.39,0.0,0.0,0.0,1.5,0.5,4.5,3.25,2.5,3.25,2.0,6.75,3.25,8.0,7.25,4.0,5.5,0.14,0.08,0.95,708.13,-1.4,-31.5
1.4,0.0,0.0,0.0,0.0,0.0,0.0,0.0,0.0,0.0,0.0,0.0,0.0,0.0,-1.42,0.64,0.27,0.0,0.0,0.0,1.5,0.5,5.5,3.25,2.75,3.75,2.0,6.75,3.25,8.0,7.25,3.75,5.25,0.14,0.08,0.95,711.69,-1.9,-27.9
1.42,0.0,0.0,0.0,0.0,0.0,0.0,0.0,0.0,0.0,0.0,0.0,0.0,0.0,-1.67,0.58,0.45,0.0,0.0,0.0,2.0,1.0,6.0,3.25,2.75,3.75,2.25,6.75,3.25,8.0,6.75,3.75,4.5,0.2,0.08,0.95,722.37,-2.9,-23.0
1.44,0.0,0.0,0.0,0.0,0.0,0.0,0.0,0.0,0.0,0.0,0.0,0.0,0.0,-1.61,0.58,0.89,0.0,0.0,0.0,2.75,1.0,7.5,4.25,2.75,3.75,2.0,6.75,3.25,7.5,6.5,3.25,4.0,0.2,0.08,0.95,748.36,-4.8,-15.3
1.46,0.0,0.0,0.0,0.0,0.0,0.0,0.0,0.0,0.0,0.0,0.0,0.0,0.0,-1.61,0.95,0.7,0.0,0.0,0.0,3.25,1.0,8.5,5.25,2.75,3.75,2.5,6.25,3.25,7.0,6.0,2.5,3.5,0.2,0.14,0.95,776.65,-6.5,-7.8
1.48,0.0,0.0,0.0,0.0,0.0,0.0,0.0,0.0,0.0,0.0,0.0,0.0,0.0,-1.67,1.2,0.45,0.0,0.0,0.0,4.25,1.25,9.5,5.5,3.0,3.75,3.25,6.25,3.0,6.25,4.75,2.5,3.0,0.2,0.14,0.95,807.62,-8.1,0.1
1.5,0.0,0.0,0.0,0.0,0.0,0.0,0.0,0.0,0.0,0.0,0.0,0.0,0.0,-1.42,1.14,0.58,0.0,0.0,0.0,5.25,1.25,10.5,6.25,3.0,3.75,3.0,5.5,2.75,5.25,4.0,1.5,3.0,0.2,0.14,0.95,826.54,-10.0,8.9
1.52,0.0,0.0,0.0,0.0,0.0,0.0,0.0,0.0,0.0,0.0,0.0,0.0,0.0,-1.48,0.95,0.77,0.0,0.0,0.0,5.75,1.25,11.5,7.25,3.0,3.75,3.25,5.25,2.0,4.0,3.75,1.0,1.5,0.2,0.14,0.95,832.97,-12.4,19.7
1.54,0.0,0.0,0.0,0.0,0.0,0.0,0.0,0.0,0.0,0.0,0.0,0.0,0.0,-1.48,1.02,0.89,0.0,0.0,0.0,6.0,1.25,12.0,7.25,3.0,3.75,3.0,4.25,1.75,3.25,1.75,0.75,0.0,0.2,0.14,0.95,802.76,-14.7,32.5
1.56,0.0,0.0,0.0,0.0,0.0,0.0,0.0,0.0,0.0,0.0,0.0,0.0,0.0,-1.48,1.14,0.83,0.0,0.0,0.0,6.5,1.25,13.0,7.5,3.0,3.75,2.5,3.75,1.5,2.75,1.5,0.5,0.75,0.27,0.2,0.95,777.59,-15.6,35.2
1.58,0.0,0.0,0.0,0.0,0.0,0.0,0.0,0.0,0.0,0.0,0.0,0.0,0.0,-1.42,1.39,0.83,0.0,0.0,0.0,6.75,0.5,13.0,7.5,3.0,3.75,2.25,3.0,1.0,1.5,1.0,0.25,1.0,0.39,0.33,1.02,732.14,-17.1,40.8
1.6,0.0,0.0,0.0,0.0,0.0,0.0,0.0,0.0,0.0,0.0,0.0,0.0,0.0,-1.61,1.64,0.52,0.0,0.0,0.0,7.0,1.25,13.0,7.25,3.0,2.75,1.5,3.0,0.75,1.5,0.75,0.25,1.0,0.45,0.39,1.02,694.34,-18.0,43.5
1.62,0.0,0.0,0.0,0.0,0.0,0.0,0.0,0.0,0.0,0.0,0.0,0.0,0.0,-1.61,2.02,0.39,0.0,0.0,0.0,6.5,1.5,13.0,7.25,3.0,1.75,1.25,2.75,0.75,1.5,0.25,0.25,0.75,0.52,0.45,0.95,648.8,-19.1,46.4
1.64,0.0,0.0,0.0,0.0,0.0,0.0,0.0,0.0,0.0,0.0,0.0,0.0,0.0,-1.05,1.83,0.52,0.0,0.0,0.0,5.75,1.0,13.0,7.0,2.75,1.25,0.75,2.0,0.75,1.5,0.0,0.0,0.75,0.64,0.52,1.02,594.68,-20.4,48.4
1.66,0.0,0.0,0.0,0.0,0.0,0.0,0.0,0.0,0.0,0.0,0.0,0.0,0.0,-0.86,1.52,0.77,0.0,0.0,0.0,5.75,0.5,12.0,5.5,1.25,1.25,0.25,1.5,0.75,1.5,0.0,0.0,1.0,0.58,0.27,0.95,515.61,-21.7,46.6
1.68,0.0,0.0,0.0,0.0,0.0,0.0,0.0,0.0,3.0,0.0,0.0,0.0,0.0,-0.23,1.52,1.39,16.54,12.1,-38.5,5.0,0.25,10.5,5.0,0.25,1.25,0.25,1.25,0.75,1.5,0.0,0.0,1.0,0.33,0.08,0.83,427.55,-22.0,44.3
1.7,0.0,0.0,0.0,1.5,0.0,0.0,0.0,0.0,0.5,0.0,0.0,0.0,0.25,-1.73,0.14,0.89,28.74,12.7,18.8,3.75,0.0,9.5,3.25,0.25,1.25,0.25,1.25,0.75,1.5,0.0,0.0,0.75,0.14,-0.05,0.7,346.69,-21.5,40.8
1.72,0.0,0.0,0.0,0.25,0.0,0.0,0.0,0.0,0.25,0.0,0.0,0.0,0.0,-0.3,0.08,0.89,29.5,14.7,11.1,1.75,0.0,8.0,3.0,0.0,0.75,0.25,0.75,0.25,0.75,0.0,0.0,0.5,-0.05,0.02,0.64,269.74,-23.9,44.7
1.74,0.0,0.0,0.0,0.25,0.0,0.0,0.0,0.0,0.0,0.0,0.0,0.0,0.25,-0.23,0.39,1.08,24.17,1.8,-25.2,1.25,0.0,6.0,2.25,0.0,0.5,0.25,1.0,0.5,1.25,0.0,0.0,0.25,-0.11,0.14,0.64,204.17,-20.8,35.0
1.76,0.0,0.0,0.0,0.0,0.0,0.0,0.0,0.0,1.0,0.0,0.0,0.0,0.0,-0.11,0.02,1.08,19.97,12.1,-38.5,0.0,0.0,4.75,1.75,0.0,0.75,0.25,0.5,0.25,1.5,0.0,0.0,0.25,-0.23,0.2,0.95,138.03,-17.3,25.9
1.78,0.0,0.0,0.0,0.25,0.0,0.0,0.0,3.75,1.0,1.25,0.0,0.0,0.25,-0.3,0.08,1.02,47.84,-10.6,-44.7,0.25,0.75,3.0,1.25,0.0,0.0,0.25,0.5,0.25,1.5,0.0,0.0,0.75,-0.48,0.27,1.08,85.39,-14.4,16.3
1.8,0.0,0.0,1.0,0.25,0.0,2.25,0.0,4.75,1.25,2.0,0.0,0.5,0.5,-0.23,0.08,1.02,102.79,-8.3,-27.7,0.5,0.0,0.5,1.0,0.0,0.5,0.25,0.0,0.25,1.25,0.0,0.0,0.0,-0.73,0.52,0.83,25.38,-7.4,12.9
1.82,0.0,0.0,2.25,3.5,0.0,2.5,0.0,4.75,2.0,2.25,0.0,1.25,0.5,-0.23,0.02,0.95,182.81,0.5,-9.9,0.25,0.0,0.5,1.5,0.0,0.5,0.25,0.25,0.25,1.5,0.0,0.0,0.5,-0.61,0.58,0.77,0.0,-2.9,-4.5
1.84,0.0,0.0,0.0,2.75,0.0,2.75,0.0,5.25,2.0,3.0,0.0,1.5,1.25,-0.23,0.02,0.95,235.22,-6.7,-30.1,0.5,0.0,0.5,1.25,0.0,0.5,0.25,0.0,0.25,1.5,0.0,0.0,0.0,-0.3,0.39,0.89,0.0,-6.7,10.6
1.86,0.0,0.0,0.0,3.75,0.0,2.0,0.25,5.5,2.5,3.75,0.0,1.5,1.5,-0.17,0.02,0.95,275.38,-4.8,-30.4,0.25,0.25,0.5,0.75,0.0,0.0,0.25,0.0,0.25,1.25,0.0,0.0,0.0,0.2,0.33,0.95,0.0,-9.3,7.2
1.88,0.0,0.0,0.0,3.5,0.0,2.25,0.0,5.5,2.5,3.75,1.0,1.5,1.5,-0.17,0.02,0.95,296.91,-4.8,-33.1,0.0,0.0,0.5,0.75,0.0,0.25,0.25,0.0,0.25,1.5,0.0,0.0,0.0,0.45,0.08,0.89,0.0,-3.2,-10.1
1.9,0.0,0.0,2.5,3.5,0.0,1.75,0.25,5.5,3.0,4.0,1.25,2.5,1.75,-0.17,0.02,0.95,330.91,0.7,-29.3,0.25,0.0,0.5,0.75,0.0,0.25,0.25,0.0,0.25,1.25,0.0,0.0,0.0,0.64,-0.3,0.64,0.0,-6.8,2.0
1.92,0.0,0.0,3.0,3.5,0.0,1.0,0.25,5.5,3.5,4.5,2.0,2.75,2.75,-0.17,0.02,0.95,368.46,1.7,-35.0,0.0,0.0,0.5,0.75,0.0,0.25,0.25,0.0,0.25,1.25,0.0,0.0,0.25,0.52,-0.98,0.64,0.0,-3.3,-12.9
1.94,0.0,0.0,3.25,3.5,0.0,0.0,0.25,5.5,3.5,5.25,3.0,3.5,3.0,-0.17,0.02,0.95,415.85,2.6,-41.0,0.25,0.25,2.0,0.75,0.0,0.25,0.5,0.0,0.75,1.5,0.5,0.25,0.5,-0.67,-1.67,1.64,32.8,-12.6,-3.8
1.96,0.0,0.0,4.0,3.5,0.0,0.0,0.25,5.25,4.0,5.0,3.5,3.5,3.0,-0.17,0.02,0.95,458.03,4.0,-38.8,0.25,0.25,3.25,1.0,0.0,0.5,0.75,1.0,0.75,3.25,1.75,1.0,1.5,0.27,0.52,1.2,101.95,-7.0,-25.4
1.98,0.0,0.0,4.0,3.5,0.0,0.0,0.25,4.75,4.0,4.5,3.5,3.5,3.0,-0.11,0.02,0.95,473.75,4.7,-38.2,0.25,0.25,3.25,1.25,0.0,0.75,0.75,1.25,0.75,4.25,1.75,1.5,1.75,0.08,0.02,0.89,169.2,-4.9,-30.1
2.0,0.0,0.0,4.0,2.75,0.0,0.0,0.25,4.75,3.75,4.5,3.5,3.5,3.0,-0.17,0.02,0.95,467.1,4.3,-40.7,0.0,0.0,3.25,1.25,0.0,1.0,0.75,1.5,1.0,4.75,2.75,2.0,1.75,0.02,0.14,1.02,229.37,-3.8,-38.1
2.02,0.0,0.0,4.0,3.5,0.0,0.0,0.25,3.75,3.75,4.5,3.25,3.5,3.0,-0.11,0.02,0.95,444.93,5.3,-37.8,0.5,0.25,4.0,2.0,0.0,1.25,0.75,2.0,1.5,5.5,4.0,2.5,2.75,0.02,0.14,0.95,290.22,-4.5,-35.0
2.04,0.0,0.0,4.0,2.75,0.0,0.0,0.25,3.75,3.75,4.5,3.5,3.75,3.25,-0.17,0.02,0.95,426.44,4.9,-41.9,0.5,0.25,4.5,2.0,0.25,1.25,1.0,2.25,1.5,6.0,4.0,2.5,3.25,0.02,0.14,0.95,350.46,-4.3,-34.2
2.06,0.0,0.0,4.0,2.5,0.0,0.0,0.25,3.75,3.5,3.5,3.25,3.25,3.0,-0.11,0.08,0.95,398.23,5.5,-39.5,0.5,0.25,4.75,2.25,0.0,1.25,1.25,3.0,1.5,6.25,3.75,3.0,3.5,0.02,0.08,0.95,402.11,-4.0,-35.2
2.08,0.0,0.0,4.0,1.75,0.0,0.0,0.25,3.75,3.0,4.0,2.75,3.75,2.75,-0.11,0.08,0.95,378.88,4.8,-43.1,0.25,0.25,4.5,2.0,0.25,1.25,1.25,3.0,1.5,6.25,5.75,3.5,4.25,0.08,0.14,0.95,461.32,-3.4,-42.0
2.1,0.0,0.0,3.5,1.25,0.0,0.0,0.5,3.0,3.0,4.0,2.5,3.5,2.75,-0.11,0.08,0.89,349.91,4.5,-46.4,0.0,0.25,3.75,2.0,0.0,1.25,1.25,3.25,1.5,6.5,5.0,3.75,4.5,0.08,0.08,0.95,498.57,-1.9,-46.8
2.12,0.0,0.0,2.5,2.0,0.0,0.0,0.25,2.75,3.25,4.0,2.75,3.5,3.0,-0.11,0.02,0.95,328.83,3.5,-48.9,0.25,0.25,3.75,2.5,1.0,1.25,1.0,3.5,1.5,6.5,5.0,3.75,4.5,0.08,0.08,0.95,524.24,-1.9,-41.1
2.14,0.0,0.0,2.25,1.75,0.0,0.0,0.25,3.0,3.0,3.75,2.75,3.75,2.75,-0.11,0.08,0.95,308.72,3.1,-51.0,0.0,0.0,4.75,2.5,1.0,1.25,1.0,4.0,1.5,6.75,5.0,3.75,4.5,0.08,0.08,0.95,540.57,-2.3,-40.2
2.16,0.0,0.0,2.25,1.5,0.0,0.0,0.0,2.0,2.5,3.75,2.5,3.5,2.75,-0.11,0.08,0.95,290.84,3.4,-52.7,0.5,0.25,5.0,2.75,1.0,1.25,1.25,4.25,1.5,6.75,5.5,3.75,4.5,0.08,0.08,0.95,557.75,-3.2,-36.5
2.18,0.0,0.25,0.0,1.75,0.0,0.0,0.0,2.0,2.5,3.5,2.0,3.5,2.75,-0.11,0.08,0.95,271.13,-0.5,-62.5,0.5,0.5,4.75,2.75,1.5,1.25,1.25,4.25,1.5,7.0,4.75,3.75,4.5,0.08,0.08,0.95,560.35,-2.6,-34.3
2.2,0.0,0.0,0.0,1.75,0.0,0.0,0.0,2.0,2.75,3.5,2.0,3.5,2.75,-0.11,0.08,0.89,256.15,-0.5,-64.5,0.5,0.25,4.75,2.75,1.75,1.25,1.25,4.25,1.5,7.0,4.75,3.75,4.5,0.08,0.14,0.95,558.44,-2.5,-34.6
2.22,0.0,0.0,0.0,0.5,0.0,0.0,0.0,2.0,3.0,3.75,2.75,3.75,2.75,-0.11,0.08,0.95,249.57,-1.3,-74.0,0.25,0.25,4.5,2.75,1.5,1.25,1.0,4.25,1.5,7.0,5.25,3.75,4.75,0.08,0.08,0.95,554.06,-2.0,-37.9
2.24,0.0,0.0,0.0,1.25,0.0,0.0,0.25,2.0,3.0,3.75,3.5,4.0,3.0,-0.11,0.08,0.95,256.6,0.0,-69.3,0.5,0.25,4.25,3.0,1.75,1.25,1.0,4.25,1.5,7.0,5.75,3.75,4.25,0.08,0.08,0.95,547.03,-2.4,-35.9
2.26,0.0,0.0,0.0,1.75,0.0,0.0,0.25,2.0,3.25,3.75,3.5,3.5,2.75,-0.11,0.08,0.95,265.49,0.5,-64.2,0.25,0.25,4.0,2.75,1.25,1.25,1.0,4.75,1.5,7.0,5.75,3.75,4.75,0.08,0.14,0.95,539.12,-1.5,-40.5
2.28,0.0,0.0,2.0,1.5,0.0,0.0,0.25,1.75,3.0,3.75,3.25,3.75,2.75,-0.11,0.08,0.95,277.33,3.9,-54.9,0.25,0.25,4.25,2.5,1.0,1.25,1.0,4.25,1.5,7.0,5.5,3.75,4.5,0.08,0.08,0.95,528.16,-1.9,-40.5
2.3,0.0,0.0,2.25,1.75,0.0,0.0,0.25,2.0,3.5,3.5,3.5,4.25,2.75,-0.11,0.08,0.95,291.77,4.7,-53.0,0.5,0.25,4.75,2.5,1.25,1.25,1.0,4.25,1.5,6.5,5.0,3.75,4.5,0.08,0.14,0.95,515.3,-2.7,-36.5
2.32,0.0,0.0,2.25,1.75,0.0,0.0,0.25,1.75,3.25,3.75,3.5,4.25,2.75,-0.11,0.08,0.95,302.56,4.7,-53.5,0.5,0.5,5.0,2.75,1.0,1.25,1.0,4.0,1.5,6.75,5.25,3.75,4.5,0.08,0.14,0.95,506.24,-3.2,-35.5
2.34,0.0,0.0,2.25,1.75,0.0,0.0,0.25,1.5,3.5,3.75,3.75,4.25,3.0,-0.11,0.08,0.95,315.29,4.8,-54.4,0.25,0.25,5.0,2.75,0.5,1.25,1.0,3.75,1.5,6.75,5.5,4.0,4.5,0.08,0.08,0.95,500.04,-3.3,-39.4
2.36,0.0,0.0,2.25,1.75,0.0,0.0,0.25,1.75,3.75,3.75,4.0,4.5,2.75,-0.11,0.08,0.89,326.52,5.0,-54.2,0.5,0.5,5.0,2.25,0.5,1.25,1.0,3.5,1.5,6.75,5.75,4.0,4.5,0.08,0.14,0.95,494.39,-3.6,-39.2
2.38,0.0,0.0,2.75,1.75,0.0,0.0,0.5,1.5,3.75,3.75,3.75,4.5,2.75,-0.11,0.08,0.95,335.82,6.0,-51.4,0.5,0.25,3.5,2.0,0.25,1.25,0.75,3.0,1.5,7.0,5.75,4.25,4.75,0.08,0.14,0.95,482.47,-1.9,-47.8
2.4,0.0,0.0,4.0,1.75,0.0,0.0,0.5,1.75,3.75,4.5,3.75,4.5,2.75,-0.11,0.08,0.95,350.83,6.7,-46.6,0.0,0.0,3.25,1.25,0.5,1.25,0.75,3.0,1.5,7.0,5.75,4.5,5.0,0.02,0.08,0.95,470.49,-0.6,-54.3
2.42,0.0,0.0,4.0,1.75,0.0,0.0,0.5,1.75,4.0,3.75,4.0,4.0,2.75,-0.11,0.08,0.95,357.49,7.4,-44.8,0.25,0.25,3.0,1.25,0.0,1.25,0.75,2.75,1.5,7.0,5.75,5.0,4.75,0.02,0.08,0.89,459.25,-1.0,-55.4
2.44,0.0,0.0,5.5,1.75,0.0,0.0,0.5,1.75,4.0,3.75,4.25,4.25,2.5,-0.11,0.08,0.95,366.58,9.3,-39.2,0.25,0.25,1.0,1.25,0.25,1.25,0.75,2.75,1.5,7.0,6.0,5.0,5.25,0.02,0.08,0.95,450.28,1.5,-62.9
2.46,0.0,0.0,5.5,1.75,0.0,0.0,0.5,1.75,4.25,3.5,4.25,4.25,2.5,-0.11,0.08,0.95,370.05,9.6,-38.9,0.5,0.25,0.5,1.0,0.0,1.25,0.75,3.0,1.5,7.0,6.5,5.0,5.0,0.02,0.08,0.95,443.69,1.8,-65.4
2.48,0.0,0.0,5.5,1.75,0.0,0.0,0.5,1.75,4.0,3.75,4.25,4.25,2.5,-0.11,0.08,0.95,373.08,9.3,-39.2,0.0,0.25,0.5,0.75,0.0,1.25,0.5,3.0,1.5,7.0,6.25,4.75,5.25,0.02,0.08,0.95,435.64,2.9,-69.2
2.5,0.0,0.0,5.5,1.75,0.0,0.0,0.5,1.75,4.25,4.0,4.5,4.5,2.75,-0.11,0.08,0.95,379.88,8.9,-41.0,0.25,0.25,0.5,0.75,0.0,1.25,0.25,3.0,1.25,7.0,6.25,5.0,5.0,0.02,0.08,0.95,429.13,2.7,-68.6
2.52,0.0,0.0,5.5,1.75,0.0,0.0,0.5,2.0,4.5,4.0,5.0,4.5,2.75,-0.11,0.08,0.95,389.7,8.8,-41.5,0.25,0.0,0.25,1.0,0.0,1.25,0.25,3.0,1.25,7.0,6.0,4.5,5.25,0.02,0.08,0.95,420.7,3.4,-69.6
2.54,0.0,0.0,5.25,1.75,0.0,0.0,0.5,1.5,4.25,4.0,5.0,4.5,2.75,-0.11,0.08,0.95,393.49,8.9,-42.5,0.25,0.25,0.25,0.75,0.0,0.75,0.25,2.5,1.0,6.75,5.75,4.25,5.0,0.02,0.08,0.95,402.02,3.1,-71.1
2.56,0.0,0.0,4.25,1.75,0.0,0.0,0.5,1.75,4.25,4.0,5.0,4.25,2.75,-0.11,0.08,0.95,391.66,7.6,-45.7,0.0,0.25,0.0,0.75,0.0,0.75,0.25,2.75,1.0,6.75,5.5,4.0,5.0,0.02,0.14,0.95,385.63,4.2,-73.1
2.58,0.0,0.0,4.0,1.75,0.0,0.0,0.5,1.25,3.75,3.75,5.0,4.25,2.75,-0.11,0.08,0.95,380.09,7.9,-46.7,0.25,0.25,0.25,0.75,0.0,0.75,0.25,2.25,0.75,6.25,5.0,4.0,4.75,0.02,0.08,0.95,365.58,3.3,-70.7
2.6,0.0,0.0,3.25,1.75,0.0,0.0,0.25,0.75,3.75,3.75,4.75,4.75,2.75,-0.11,0.08,0.95,364.83,7.4,-51.4,0.0,0.0,0.25,0.75,0.0,0.75,0.25,1.75,0.75,6.25,5.0,3.5,4.5,0.02,0.08,0.95,344.02,3.7,-73.7
2.62,0.0,0.0,3.0,1.75,0.0,0.0,0.25,1.0,3.5,3.75,4.25,4.25,2.75,-0.11,0.08,0.95,346.08,6.6,-50.9,0.25,0.25,0.0,0.75,0.0,0.5,0.25,2.0,0.75,5.75,4.0,2.75,4.0,0.02,0.08,0.95,314.73,4.1,-69.8
2.64,0.0,0.0,2.25,1.75,0.0,0.0,0.25,0.25,3.0,3.75,3.5,3.75,2.25,-0.11,0.08,0.95,314.9,6.5,-52.0,0.0,0.0,0.0,0.75,0.0,0.25,0.25,1.5,0.75,5.5,4.0,2.5,3.5,0.02,0.14,0.95,286.8,4.0,-74.6
2.66,0.0,0.0,2.25,0.5,0.0,0.0,0.0,0.25,2.5,3.25,3.5,3.5,1.75,-0.11,0.08,0.95,282.06,6.6,-58.0,1.25,0.25,0.0,0.5,0.0,0.5,0.25,1.5,0.75,4.75,2.5,2.5,3.0,0.02,0.14,0.95,258.94,2.2,-59.9
2.68,0.0,0.0,2.25,0.5,0.0,0.0,0.0,0.25,2.5,2.25,2.75,3.25,1.75,-0.11,0.08,0.95,246.99,7.8,-55.2,0.25,0.0,0.0,0.75,0.0,0.25,0.25,1.5,0.75,4.5,3.0,2.25,3.5,0.02,0.14,0.95,237.96,3.8,-71.6
2.7,0.0,0.0,1.75,0.5,0.0,0.0,0.0,0.25,2.25,2.0,2.0,3.0,1.5,-0.11,0.08,0.95,210.53,7.2,-56.5,0.0,0.25,0.0,0.75,0.0,0.25,0.25,1.25,0.75,4.5,3.0,2.0,2.75,0.02,0.08,0.95,219.1,3.6,-69.3
2.72,0.0,0.0,0.75,1.0,0.0,0.0,0.0,0.25,2.0,2.25,1.75,2.5,1.5,-0.11,0.08,0.95,178.07,4.2,-59.8,0.25,0.0,0.0,0.5,0.0,0.0,0.25,1.25,0.75,4.25,2.75,1.75,2.25,0.02,0.08,0.95,201.31,3.2,-71.4
2.74,0.0,0.0,0.0,1.25,0.0,0.0,0.0,0.25,2.0,1.75,1.0,2.5,1.5,-0.11,0.08,0.95,148.41,2.5,-64.0,0.25,0.0,0.0,1.25,0.0,0.5,0.25,0.75,0.75,3.75,2.0,1.5,1.75,0.02,0.14,0.95,180.64,2.3,-57.9
2.76,0.0,0.0,0.0,1.25,0.0,0.0,0.0,0.25,1.75,1.5,1.0,1.75,1.0,-0.11,0.08,0.95,120.35,3.2,-57.6,0.0,0.25,0.0,0.5,0.0,0.0,0.25,1.25,0.75,4.0,1.5,1.25,1.75,-0.05,0.14,0.95,162.0,4.9,-67.0
2.78,0.0,0.0,0.0,1.25,0.0,0.0,0.0,0.25,1.5,0.5,0.25,1.75,0.5,-0.11,0.08,0.95,87.77,6.5,-48.8,0.25,0.25,0.0,0.75,0.0,0.0,0.25,1.25,0.5,3.25,2.0,1.25,1.75,-0.05,0.14,0.95,149.18,2.6,-61.2
2.8,0.0,0.0,0.0,0.0,0.0,0.0,0.0,0.25,1.25,0.25,0.0,0.5,0.5,-0.11,0.08,0.95,47.21,1.5,-68.2,0.0,0.0,0.0,0.75,0.0,0.0,0.0,0.0,0.5,3.25,2.0,1.0,1.75,0.02,0.14,0.95,133.99,2.8,-72.5
2.82,0.0,0.0,0.0,0.75,0.0,0.0,0.0,0.25,1.5,0.5,0.0,1.5,0.25,-0.11,0.08,0.95,27.62,6.1,-52.7,0.25,0.0,0.0,0.75,0.0,0.25,0.25,0.25,0.5,3.25,1.75,1.0,1.75,-0.05,0.14,0.95,128.33,2.7,-63.8
2.84,0.0,0.0,0.0,1.0,0.0,0.0,0.0,0.25,1.25,0.5,0.0,1.5,0.25,-0.11,0.08,0.95,19.57,6.4,-47.3,0.0,0.0,0.0,0.75,0.0,0.25,0.25,0.0,0.25,3.5,1.75,1.0,2.25,-0.23,0.2,0.95,127.48,4.5,-71.6
2.86,0.0,0.0,0.0,1.0,0.0,0.0,0.0,0.25,1.25,0.25,0.0,0.75,0.25,-0.11,0.14,0.95,19.19,7.4,-33.2,0.25,0.0,0.0,0.75,0.0,0.0,0.0,0.0,0.5,3.25,1.75,1.0,1.25,-0.3,0.2,0.95,124.92,1.5,-65.7
2.88,0.0,0.0,0.0,1.25,0.0,0.0,0.0,0.25,1.25,0.5,0.0,0.75,0.25,-0.17,0.14,0.95,25.2,6.6,-30.1,0.0,0.25,0.0,0.5,0.0,0.0,0.25,0.0,0.5,3.25,1.75,1.0,1.75,-0.11,0.14,0.95,125.61,2.8,-70.1
2.9,0.0,0.0,0.0,1.25,0.0,0.0,0.0,0.0,1.25,0.5,0.0,0.5,0.25,-0.23,0.08,0.95,28.64,8.0,-24.3,0.25,0.25,0.0,0.75,0.0,0.25,0.0,0.0,0.5,3.0,1.5,1.0,1.5,0.14,0.02,0.89,125.08,2.0,-59.1
2.92,0.0,0.0,0.0,1.25,0.0,0.0,0.0,0.0,1.0,0.5,0.0,0.5,0.25,-0.42,0.02,1.02,30.26,7.7,-23.3,0.0,0.0,0.0,0.75,0.0,0.25,0.25,0.0,0.5,3.0,1.75,1.0,1.5,0.2,0.02,0.89,126.23,2.6,-67.1
2.94,0.0,0.0,0.0,1.25,0.0,0.0,0.0,0.0,1.0,0.5,0.0,0.5,0.25,-0.55,0.02,1.02,32.43,7.7,-23.3,0.25,0.0,0.0,0.5,0.0,0.0,0.0,0.0,0.5,3.0,1.25,1.0,1.0,0.2,0.02,0.95,121.18,2.1,-67.6
2.96,0.0,0.0,0.0,1.0,0.0,0.0,0.0,0.0,1.0,0.5,0.0,0.25,0.25,-0.48,0.2,0.89,34.03,6.8,-23.2,0.25,0.25,0.0,0.75,0.0,0.25,0.25,0.0,0.25,3.0,1.5,1.0,1.0,-0.05,0.14,0.95,121.58,1.2,-55.3
2.98,0.0,0.0,0.0,1.25,0.0,0.0,0.0,0.0,1.0,0.5,0.0,0.5,0.25,-0.48,0.27,0.89,38.87,7.7,-23.3,0.25,0.0,0.0,0.75,0.0,0.0,0.25,0.0,0.5,2.25,1.25,1.0,1.0,-0.05,0.08,0.95,115.23,-0.5,-60.5
3.0,0.0,0.0,0.0,1.0,0.0,0.0,0.0,0.0,1.0,0.5,0.0,0.5,0.25,-0.48,0.2,0.95,42.53,7.0,-29.8,0.25,0.25,0.0,0.5,0.0,0.25,0.25,0.25,0.25,1.75,0.75,0.5,1.0,0.02,0.14,0.95,103.77,1.9,-48.3
3.02,0.0,0.0,0.0,1.5,0.0,0.0,0.0,0.0,1.0,0.5,0.0,0.25,0.25,-0.42,0.08,0.83,48.42,8.3,-11.3,0.0,0.0,0.0,0.75,0.0,0.0,0.0,0.0,0.25,2.0,0.75,0.5,1.5,0.02,0.14,0.95,94.23,4.1,-67.9
3.04,0.0,0.0,0.0,1.25,0.0,0.0,0.0,0.0,1.0,0.5,0.0,0.0,0.25,-0.3,0.08,0.77,48.73,7.5,-9.2,0.25,0.25,0.0,0.75,0.0,0.25,0.25,0.0,0.25,2.0,0.75,0.5,1.0,0.02,0.14,0.95,88.46,1.1,-45.3
3.06,0.0,0.0,0.0,1.25,0.0,0.0,0.0,0.0,0.75,0.5,0.0,0.0,0.25,-0.11,0.14,0.77,45.43,7.1,-6.6,0.0,0.0,0.0,0.75,0.0,0.25,0.25,0.0,0.5,1.75,0.75,0.25,1.0,0.02,0.14,0.95,81.71,2.5,-53.7
3.08,0.0,0.0,0.0,1.5,0.0,0.0,0.0,0.0,0.75,0.5,0.0,0.0,0.25,0.27,0.08,0.77,44.99,8.0,-1.1,0.25,0.0,0.0,0.75,0.0,0.25,0.25,0.0,0.25,1.5,0.75,0.5,0.75,0.02,0.14,0.95,76.1,-0.2,-46.3
3.1,0.0,0.0,0.0,1.0,0.0,0.0,0.0,0.0,0.75,0.5,0.0,0.25,0.25,0.52,0.39,0.95,43.72,6.3,-21.9,0.0,0.25,0.25,0.75,0.0,0.0,0.25,0.0,0.5,1.5,0.25,0.25,1.0,0.02,0.14,0.95,71.79,-0.7,-40.7
3.12,0.0,0.0,0.0,1.25,0.0,0.0,0.0,0.25,1.0,1.0,0.0,0.5,0.25,0.64,0.2,1.2,50.2,3.6,-30.3,0.25,0.25,0.0,0.75,0.0,0.25,0.25,0.0,0.25,1.5,0.5,0.25,1.0,0.02,0.14,0.95,68.48,0.7,-37.8
3.14,0.0,0.0,0.0,1.0,0.0,0.0,0.0,0.25,0.75,0.5,0.0,0.5,0.25,0.27,0.02,1.08,51.59,4.8,-29.8,0.25,0.25,0.25,0.75,0.0,0.0,0.25,0.0,0.5,1.75,0.5,0.25,1.25,0.02,0.14,0.95,72.12,-1.1,-41.1
3.16,0.0,0.0,0.0,0.75,0.0,0.0,0.0,0.0,1.0,0.5,0.0,0.5,0.25,-0.23,0.02,0.77,52.22,6.1,-37.4,0.25,0.25,0.0,0.75,0.0,0.0,0.25,0.0,0.25,1.5,0.5,0.25,1.5,0.02,0.14,0.95,75.4,1.0,-47.8
3.18,0.0,0.0,0.0,1.0,0.0,0.0,0.0,0.0,1.0,0.5,0.0,0.5,0.25,-0.23,0.14,1.02,50.77,7.0,-29.8,0.25,0.25,0.25,0.75,0.0,0.0,0.0,0.0,0.25,1.5,0.25,0.25,1.0,0.02,0.14,0.95,75.26,-1.0,-35.8
3.2,0.0,0.0,0.0,1.0,0.0,0.0,0.0,0.0,1.0,0.5,0.0,0.5,0.25,-0.11,0.14,0.95,50.48,7.0,-29.8,0.25,0.25,0.0,0.75,0.0,0.0,0.25,0.0,0.25,1.5,0.25,0.25,1.0,0.02,0.14,0.95,72.33,0.2,-39.5
3.22,0.0,0.0,0.0,1.0,0.0,0.0,0.0,0.0,1.0,0.5,0.0,0.5,0.25,-0.11,0.14,0.95,49.61,7.0,-29.8,0.0,0.25,0.0,0.75,0.0,0.0,0.25,0.0,0.25,1.5,0.5,0.25,0.75,0.02,0.14,0.95,69.67,0.6,-44.6
3.24,0.0,0.0,0.0,1.0,0.0,0.0,0.0,0.0,1.0,0.5,0.0,0.5,0.25,-0.17,0.14,0.95,50.12,7.0,-29.8,0.25,0.25,0.0,0.75,0.0,0.25,0.25,0.0,0.25,1.5,0.5,0.0,0.0,0.02,0.14,0.95,64.28,-2.0,-14.0
3.26,0.0,0.0,0.0,0.75,0.0,0.0,0.0,0.0,1.0,0.25,0.0,0.5,0.25,-0.17,0.14,0.95,48.03,8.1,-33.9,0.0,0.25,0.0,0.75,0.0,0.0,0.25,0.0,0.5,1.5,0.5,0.0,0.75,0.02,0.14,0.95,62.76,0.5,-40.6
3.28,0.0,0.0,0.0,0.75,0.0,0.0,0.0,0.0,1.0,0.5,0.0,0.5,0.25,-0.17,0.14,0.95,47.37,6.1,-37.4,0.25,0.25,0.0,0.75,0.0,0.0,0.25,0.0,0.5,1.5,0.75,0.0,1.0,0.02,0.14,0.95,66.81,-0.9,-39.4
3.3,0.0,0.0,0.0,0.5,0.0,0.0,0.0,0.0,1.0,0.5,0.0,0.5,0.25,-0.17,0.14,0.95,45.42,5.0,-46.4,0.25,0.0,0.25,0.75,0.0,0.0,0.25,0.0,0.5,1.5,0.5,0.0,0.75,0.02,0.14,0.95,69.17,-2.6,-35.8
3.32,0.0,0.0,0.0,0.75,0.0,0.0,0.0,0.0,1.0,0.5,0.0,0.5,0.25,-0.17,0.14,0.95,45.32,6.1,-37.4,0.0,0.0,0.0,0.75,0.0,0.0,0.25,0.0,0.25,1.5,0.5,0.0,0.75,0.02,0.14,0.95,67.54,2.1,-49.9
3.34,0.0,0.0,0.0,0.5,0.0,0.0,0.0,0.0,1.0,0.5,0.0,0.5,0.25,-0.17,0.14,0.95,44.32,5.0,-46.4,0.0,0.0,0.0,0.75,0.0,0.0,0.25,0.0,0.25,1.5,0.25,0.0,0.75,0.02,0.14,0.95,63.22,3.0,-48.3
3.36,0.0,0.0,0.0,1.0,0.0,0.0,0.0,0.0,1.0,0.5,0.0,0.5,0.25,-0.17,0.14,0.95,45.61,7.0,-29.8,0.25,0.25,0.0,0.5,0.0,0.0,0.0,0.0,0.25,1.5,0.25,0.0,1.0,0.02,0.14,0.95,60.44,2.8,-43.5
3.38,0.0,0.0,0.0,1.5,0.0,0.0,0.0,0.25,1.0,0.5,0.0,0.5,0.25,-0.17,0.14,0.95,51.96,6.8,-19.0,0.25,0.25,0.0,0.75,0.0,0.25,0.25,0.0,0.25,1.5,0.5,0.0,1.0,0.02,0.14,0.95,62.93,1.2,-34.1
3.4,0.0,0.0,0.0,1.5,0.0,0.0,0.0,0.5,1.0,0.5,0.0,0.5,0.25,-0.17,0.14,0.95,58.62,5.4,-20.1,0.25,0.25,0.0,0.75,0.0,0.0,0.25,0.0,0.25,1.5,0.5,0.0,0.75,0.02,0.14,0.95,65.44,-0.6,-33.4
3.42,0.0,0.0,0.0,1.25,0.0,0.0,0.0,0.25,1.0,0.5,0.0,0.5,0.25,-0.17,0.14,0.95,61.14,6.1,-24.3,0.0,0.0,0.0,0.75,0.0,0.0,0.25,0.0,0.5,1.5,0.25,0.0,0.75,0.02,0.14,0.95,66.11,2.0,-47.7
3.44,0.0,0.0,0.0,1.25,0.0,0.0,0.0,0.0,1.0,0.5,0.0,0.5,0.25,-0.17,0.14,0.95,60.7,7.7,-23.3,0.0,0.0,0.0,0.75,0.0,0.0,0.25,0.0,0.25,1.5,0.5,0.0,0.75,0.02,0.14,0.95,64.57,2.1,-49.9
3.46,0.0,0.0,0.0,1.25,0.0,0.0,0.0,0.25,1.0,0.5,0.0,0.5,0.25,-0.17,0.14,0.95,60.04,6.1,-24.3,0.25,0.25,0.0,0.75,0.0,0.0,0.25,0.0,0.5,1.5,0.25,0.0,0.75,0.02,0.14,0.95,64.55,-0.7,-31.3
3.48,0.0,0.0,0.0,1.0,0.0,0.0,0.0,0.0,1.0,0.5,0.0,0.5,0.25,-0.17,0.14,0.95,56.83,7.0,-29.8,0.25,0.25,0.0,0.75,0.0,0.0,0.25,0.0,0.5,1.5,0.5,0.0,0.75,0.02,0.14,0.95,66.25,-1.2,-33.6
3.5,0.0,0.0,0.0,1.0,0.0,0.0,0.0,0.25,1.0,0.5,0.0,0.5,0.25,-0.17,0.14,0.95,55.98,5.3,-30.4,0.25,0.25,0.0,0.75,0.0,0.0,0.25,0.0,0.5,1.5,0.5,0.0,1.25,0.02,0.14,0.95,71.29,0.2,-41.2
3.52,0.0,0.0,0.0,1.0,0.0,0.0,0.0,0.0,1.0,0.5,0.0,0.5,0.25,-0.17,0.14,0.95,53.68,7.0,-29.8,0.25,0.25,0.0,0.75,0.0,0.25,0.25,0.0,0.25,1.5,0.5,0.0,0.5,0.02,0.14,0.95,71.32,-0.2,-25.2
3.54,0.0,0.0,0.0,1.0,0.0,0.0,0.0,0.25,1.0,0.5,0.0,0.5,0.25,-0.17,0.14,0.95,53.8,5.3,-30.4,0.25,0.25,0.0,1.25,0.0,0.0,0.25,0.0,0.25,1.5,0.5,0.0,0.5,0.02,0.14,0.95,72.84,-3.3,-18.9
3.56,0.0,0.0,0.0,1.0,0.0,0.0,0.0,0.25,1.0,0.5,0.0,0.5,0.25,-0.17,0.14,0.95,53.22,5.3,-30.4,0.0,0.25,0.0,0.75,0.0,0.0,0.25,0.0,0.25,1.5,0.25,0.0,1.0,0.02,0.14,0.95,70.41,2.7,-43.0
3.58,0.0,0.0,0.0,1.25,0.0,0.0,0.0,0.25,1.0,0.5,0.0,0.5,0.25,-0.17,0.14,0.95,54.81,6.1,-24.3,0.25,0.0,0.0,0.75,0.0,0.0,0.0,0.0,0.25,1.5,1.25,0.0,0.5,0.02,0.14,0.95,70.4,-1.5,-45.0
3.6,0.0,0.0,0.0,1.25,0.0,0.0,0.0,0.25,1.0,0.5,0.0,0.5,0.25,-0.17,0.14,0.95,55.5,6.1,-24.3,0.0,0.25,0.0,0.75,0.0,0.0,0.25,0.0,0.5,1.5,1.5,0.0,0.75,0.02,0.14,0.95,74.6,-1.5,-46.9
3.62,0.0,0.0,0.0,1.25,0.0,0.0,0.0,0.25,1.0,0.5,0.0,0.5,0.25,-0.17,0.14,0.95,56.34,6.1,-24.3,0.25,0.25,0.0,0.75,0.0,0.0,0.0,0.0,0.25,1.5,0.75,0.0,0.5,0.02,0.14,0.95,73.21,-1.2,-32.9
3.64,0.0,0.0,0.0,1.25,0.0,0.0,0.0,0.0,1.0,0.5,0.0,0.5,0.25,-0.17,0.14,0.95,56.0,7.7,-23.3,0.0,0.25,0.0,0.75,0.0,0.0,0.25,0.0,0.5,1.5,0.75,0.0,0.75,0.02,0.14,0.95,74.52,0.0,-42.4
3.66,0.0,0.0,0.0,1.75,0.0,0.0,0.0,0.25,1.0,0.5,0.0,0.5,0.25,-0.17,0.14,0.95,60.1,7.4,-14.3,0.25,0.25,0.0,0.75,0.0,0.0,0.25,0.0,0.25,1.5,0.25,0.0,0.5,0.02,0.14,0.95,68.63,-0.9,-25.7
3.68,0.0,0.0,0.0,1.25,0.0,0.0,0.0,0.0,1.0,0.5,0.0,0.5,0.25,-0.17,0.14,0.95,59.01,7.7,-23.3,0.0,0.25,0.0,0.5,0.0,0.0,0.25,0.0,0.25,1.5,0.5,0.0,0.75,0.02,0.14,0.95,65.3,2.5,-47.3
3.7,0.0,0.0,0.0,1.25,0.0,0.0,0.0,0.25,1.0,0.5,0.0,0.5,0.25,-0.17,0.14,0.95,59.46,6.1,-24.3,0.25,0.25,0.0,0.75,0.0,0.0,0.25,0.0,0.25,1.5,0.75,0.0,0.25,0.02,0.14,0.95,61.39,-3.0,-26.3
3.72,0.0,0.0,0.0,1.5,0.0,0.0,0.0,0.0,1.0,0.5,0.0,0.5,0.25,-0.17,0.14,0.95,59.08,8.4,-17.7,0.0,0.25,0.0,0.75,0.0,0.25,0.25,0.0,0.25,1.5,0.5,0.0,1.0,0.02,0.14,0.95,64.3,3.0,-40.8
3.74,0.0,0.0,0.0,1.0,0.0,0.0,0.0,0.0,1.0,0.5,0.0,0.5,0.5,-0.17,0.14,0.95,57.98,5.5,-35.6,0.25,0.0,0.0,0.5,0.0,0.0,0.25,0.0,0.25,1.5,0.75,0.0,0.5,0.02,0.14,0.95,63.2,-0.3,-45.9
3.76,0.0,0.0,0.0,1.25,0.0,0.0,0.0,0.0,1.0,0.5,0.0,0.5,0.25,-0.17,0.14,0.95,56.32,7.7,-23.3,0.0,0.25,0.0,0.75,0.0,0.0,0.25,0.0,0.25,1.5,0.75,0.0,0.5,0.02,0.14,0.95,64.37,-0.2,-38.5
3.78,0.0,0.0,0.0,1.25,0.0,0.0,0.0,0.0,1.0,0.5,0.0,0.5,0.25,-0.17,0.14,0.95,54.99,7.7,-23.3,0.0,0.0,0.0,0.5,0.0,0.0,0.25,0.25,0.25,1.5,0.5,0.0,0.75,0.02,0.14,0.95,63.0,4.4,-56.5
3.8,0.0,0.0,0.0,1.0,0.0,0.0,0.0,0.0,1.0,0.5,0.0,0.5,0.25,-0.17,0.14,0.95,52.81,7.0,-29.8,0.0,0.25,0.0,0.5,0.0,0.0,0.25,0.0,0.25,1.5,0.75,0.25,0.5,0.02,0.14,0.95,63.54,0.3,-48.9
3.82,0.0,0.0,0.0,1.5,0.0,0.0,0.0,0.0,1.0,0.5,0.0,0.5,0.25,-0.17,0.14,0.95,53.7,8.4,-17.7,0.25,0.25,0.0,0.5,0.0,0.0,0.0,0.0,0.25,1.5,0.5,0.0,0.0,0.02,0.14,0.95,57.74,-1.5,-24.8
3.84,0.0,0.0,0.0,1.25,0.0,0.0,0.0,0.0,1.0,0.5,0.0,0.5,0.25,-0.17,0.14,0.95,53.64,7.7,-23.3,0.0,0.25,0.0,0.75,0.0,0.0,0.25,0.0,0.25,1.5,0.5,0.25,0.5,0.02,0.14,0.95,58.79,-0.1,-40.6
3.86,0.0,0.0,0.0,1.25,0.0,0.0,0.0,0.0,1.0,0.5,0.0,0.5,0.25,-0.17,0.14,0.95,54.09,7.7,-23.3,0.25,0.25,0.0,0.75,0.0,0.0,0.25,0.0,0.25,1.5,0.75,0.0,0.5,0.02,0.14,0.95,61.0,-2.0,-31.2
3.88,0.0,0.0,0.0,1.0,0.0,0.0,0.0,0.0,1.0,0.5,0.0,0.5,0.25,-0.17,0.14,0.95,52.34,7.0,-29.8,0.0,0.25,0.0,0.75,0.0,0.0,0.25,0.0,0.25,1.5,0.5,0.0,0.5,0.02,0.14,0.95,61.61,0.4,-36.2
3.9,0.0,0.0,0.0,1.5,0.0,0.0,0.0,0.25,1.0,0.5,0.0,0.5,0.25,-0.17,0.14,0.95,54.98,6.8,-19.0,0.5,0.25,0.0,1.0,0.0,0.5,0.25,0.0,0.25,1.5,1.0,0.0,0.5,0.02,0.14,0.95,70.23,-2.4,-18.0
3.92,0.0,0.0,0.0,1.5,0.0,0.0,0.0,0.25,1.0,0.5,0.0,0.5,0.25,-0.17,0.14,0.95,57.99,6.8,-19.0,0.0,0.25,0.0,0.75,0.0,0.0,0.25,0.0,0.25,1.5,0.25,0.25,0.75,0.02,0.14,0.95,70.62,1.3,-42.8
3.94,0.0,0.0,0.0,1.25,0.0,0.0,0.0,0.0,1.0,0.5,0.0,0.5,0.0,-0.17,0.14,0.95,56.95,9.4,-16.5,0.0,0.25,0.0,0.5,0.0,0.0,0.25,0.0,0.25,1.5,1.5,0.0,0.75,0.02,0.14,0.95,75.11,-0.1,-52.9
3.96,0.0,0.0,0.0,1.25,0.0,0.0,0.0,0.25,1.0,0.5,0.0,0.5,0.25,-0.17,0.14,0.95,57.41,6.1,-24.3,0.0,0.25,0.0,0.75,0.0,0.0,0.25,0.0,0.25,1.5,0.5,0.0,0.75,0.02,0.14,0.95,71.88,1.2,-40.7
3.98,0.0,0.0,0.0,1.0,0.0,0.0,0.0,0.0,1.0,0.5,0.0,0.5,0.25,-0.17,0.14,0.95,54.76,7.0,-29.8,0.5,0.25,0.0,0.5,0.0,0.25,0.0,0.0,0.25,1.5,1.0,0.0,0.75,0.02,0.14,0.95,74.92,-0.5,-34.4
4.0,0.0,0.0,0.0,1.25,0.0,0.0,0.0,0.0,1.0,0.5,0.0,0.5,0.0,-0.17,0.14,0.95,52.96,9.4,-16.5,0.0,0.25,0.0,0.5,0.0,0.0,0.25,0.0,0.25,1.5,0.25,0.25,1.0,0.02,0.14,0.95,71.93,3.2,-53.3
4.02,0.0,0.0,0.0,1.0,0.0,0.0,0.0,0.0,1.0,0.5,0.0,0.5,0.0,-0.17,0.14,0.95,49.55,8.7,-23.0,0.25,0.25,0.0,0.5,0.0,0.0,0.0,0.0,0.25,1.5,0.25,0.25,0.25,0.02,0.14,0.95,66.89,-0.3,-33.6
4.04,0.0,0.0,0.0,1.0,0.0,0.0,0.0,0.0,1.0,0.5,0.0,0.5,0.0,-0.17,0.14,0.95,47.75,8.7,-23.0,0.25,0.25,0.0,0.75,0.0,0.0,0.25,0.0,0.25,1.5,0.5,0.0,0.5,0.02,0.14,0.95,63.78,-1.5,-28.6
4.06,0.0,0.0,0.0,1.25,0.0,0.0,0.0,0.0,1.0,0.5,0.0,0.5,0.5,-0.17,0.14,0.95,49.56,6.3,-29.1,0.25,0.25,0.0,0.75,0.0,0.0,0.25,0.0,0.25,1.5,0.5,0.25,0.5,0.02,0.14,0.95,63.52,-1.9,-33.2
4.08,0.0,0.0,0.0,1.25,0.0,0.0,0.0,0.25,1.0,0.5,0.0,0.5,0.25,-0.17,0.14,0.95,52.67,6.1,-24.3,0.25,0.0,0.0,0.75,0.0,0.0,0.0,0.0,0.0,1.5,0.5,0.0,0.5,0.02,0.14,0.95,59.58,1.0,-39.2
4.1,0.0,0.0,0.0,1.0,0.0,0.0,0.0,0.0,1.0,0.5,0.0,0.5,0.25,-0.17,0.14,0.95,53.05,7.0,-29.8,0.0,0.25,0.0,0.5,0.0,0.0,0.25,0.0,0.25,1.5,0.5,0.0,0.5,0.02,0.14,0.95,57.73,1.7,-42.9
4.12,0.0,0.0,0.0,1.25,0.0,0.0,0.0,0.25,1.0,0.5,0.0,0.5,0.0,-0.17,0.14,0.95,53.61,7.6,-18.1,0.0,0.25,0.0,0.75,0.0,0.0,0.25,0.0,0.25,1.5,0.5,0.0,0.0,0.02,0.14,0.95,53.96,-1.5,-25.0
4.14,0.0,0.0,0.0,1.75,0.0,0.0,0.0,0.25,1.0,0.5,0.0,0.5,0.5,-0.17,0.14,0.95,58.6,6.3,-19.7,0.25,0.25,0.0,0.5,0.0,0.0,0.25,0.0,0.25,1.5,0.5,0.25,0.5,0.02,0.14,0.95,54.9,-1.0,-39.0
4.16,0.0,0.0,0.0,1.0,0.0,0.0,0.0,0.0,1.0,0.5,0.0,0.5,0.0,-0.17,0.14,0.95,56.05,8.7,-23.0,0.25,0.25,0.0,0.75,0.0,0.0,0.0,0.0,0.25,1.5,0.5,0.0,0.25,0.02,0.14,0.95,55.09,-1.6,-24.9
4.18,0.0,0.0,0.0,1.0,0.0,0.0,0.0,0.25,1.0,0.5,0.0,0.5,0.25,-0.17,0.14,0.95,56.5,5.3,-30.4,0.25,0.25,0.0,0.75,0.0,0.0,0.25,0.0,0.25,1.5,0.5,0.0,0.25,0.02,0.14,0.95,56.51,-2.5,-23.2
4.2,0.0,0.0,0.0,1.25,0.0,0.0,0.0,0.25,1.0,0.5,0.0,0.5,0.0,-0.17,0.14,0.95,54.8,7.6,-18.1,0.0,0.25,0.0,0.75,0.0,0.0,0.25,0.0,0.25,1.5,0.5,0.0,0.75,0.02,0.14,0.95,59.39,1.2,-40.7
4.22,0.0,0.0,0.0,1.25,0.0,0.0,0.0,0.25,1.0,0.5,0.0,0.5,0.25,-0.17,0.14,0.95,56.36,6.1,-24.3,0.0,0.25,0.0,0.75,0.0,0.0,0.25,0.0,0.25,1.5,0.75,0.0,0.5,0.02,0.14,0.95,61.56,-0.2,-38.5
4.24,0.0,0.0,0.0,1.25,0.0,0.0,0.0,0.25,1.0,0.5,0.0,0.5,0.25,-0.17,0.14,0.95,56.77,6.1,-24.3,0.0,0.0,0.0,1.0,0.0,0.0,0.0,0.0,0.25,1.5,0.5,0.0,0.25,0.02,0.14,0.95,60.5,0.2,-35.9
4.26,0.0,0.0,0.0,1.25,0.0,0.0,0.0,0.25,1.0,0.5,0.0,0.5,0.25,-0.17,0.14,0.95,58.33,6.1,-24.3,0.0,0.25,0.0,0.75,0.0,0.0,0.25,0.0,0.0,1.5,0.25,0.0,0.5,0.02,0.14,0.95,58.0,2.1,-33.2
4.28,0.5,0.0,0.0,1.0,0.0,0.0,0.0,0.25,1.0,0.5,0.0,0.5,0.5,-0.17,0.14,0.95,60.91,7.4,-21.1,0.25,0.25,0.0,0.75,0.0,0.0,0.25,0.0,0.25,1.5,0.75,0.0,0.25,0.02,0.14,0.95,57.9,-3.0,-26.3
4.3,0.0,0.0,0.0,1.5,0.0,0.0,0.0,0.25,1.0,0.5,0.0,0.5,0.25,-0.17,0.14,0.95,61.7,6.8,-19.0,0.0,0.25,0.0,0.5,0.0,0.0,0.25,0.0,0.25,1.5,0.75,0.25,0.75,0.02,0.14,0.95,61.99,1.1,-52.4
4.32,0.0,0.0,0.0,1.5,0.0,0.0,0.0,0.0,1.0,0.5,0.0,0.5,0.25,-0.17,0.14,0.95,61.92,8.4,-17.7,0.25,0.0,0.0,0.75,0.0,0.0,0.25,0.0,0.25,1.5,0.25,0.0,0.25,0.02,0.14,0.95,60.46,-1.2,-28.8
4.34,0.0,0.0,0.0,1.5,0.0,0.0,0.0,0.25,1.0,0.5,0.0,0.5,0.5,-0.17,0.14,0.95,63.54,5.6,-24.4,0.25,0.0,0.0,0.75,0.0,0.0,0.25,0.0,0.25,1.5,0.25,0.0,0.75,0.02,0.14,0.95,61.12,0.7,-39.5
4.36,0.0,0.0,0.0,1.25,0.0,0.0,0.0,0.25,1.0,0.5,0.0,0.5,0.25,-0.17,0.14,0.95,61.83,6.1,-24.3,0.25,0.25,0.0,0.75,0.0,0.0,0.25,0.0,0.25,1.5,0.0,0.0,0.5,0.02,0.14,0.95,58.43,-0.3,-22.4
4.38,0.0,0.0,0.0,1.25,0.0,0.0,0.0,0.0,1.0,0.5,0.0,0.5,0.5,-0.17,0.14,0.95,60.58,6.3,-29.1,0.0,0.25,0.0,0.75,0.0,0.0,0.25,0.0,0.25,1.5,0.25,0.0,0.75,0.02,0.14,0.95,58.54,2.0,-38.6
4.4,0.0,0.0,0.0,1.25,0.0,0.0,0.0,0.25,1.0,0.5,0.0,0.5,0.25,-0.17,0.14,0.95,59.94,6.1,-24.3,0.0,0.25,0.0,0.75,0.0,0.0,0.25,0.0,0.25,1.5,0.75,0.25,0.5,0.02,0.14,0.95,61.76,-0.7,-42.5
4.42,0.0,0.0,0.0,1.25,0.0,0.0,0.0,0.0,1.0,0.5,0.0,0.5,0.25,-0.17,0.14,0.95,57.45,7.7,-23.3,0.25,0.0,0.0,0.5,0.0,0.0,0.25,0.0,0.25,1.5,0.25,0.0,0.75,0.02,0.14,0.95,61.94,2.0,-46.5
4.44,0.0,0.0,0.0,1.5,0.0,0.0,0.0,0.25,1.0,0.5,0.0,0.5,0.25,-0.17,0.14,0.95,58.16,6.8,-19.0,0.0,0.0,0.0,0.75,0.0,0.0,0.0,0.0,0.25,1.5,0.0,0.0,0.75,0.02,0.14,0.95,59.4,5.3,-49.0
4.46,0.0,0.0,0.0,1.25,0.0,0.0,0.0,0.0,1.0,0.5,0.0,0.5,0.25,-0.17,0.14,0.95,56.52,7.7,-23.3,0.25,0.0,0.0,0.75,0.0,0.0,0.25,0.0,0.25,1.5,0.25,0.0,0.5,0.02,0.14,0.95,57.33,-0.1,-34.5
4.48,0.0,0.0,0.0,1.0,0.0,0.0,0.0,0.25,1.0,0.5,0.0,0.5,0.25,-0.17,0.14,0.95,55.63,5.3,-30.4,0.25,0.25,0.0,0.75,0.0,0.0,0.25,0.0,0.0,1.5,0.0,0.0,0.5,0.02,0.14,0.95,54.85,0.5,-21.3
4.5,0.0,0.0,0.0,1.25,0.0,0.0,0.0,0.25,1.0,0.5,0.0,0.5,0.25,-0.17,0.14,0.95,55.14,6.1,-24.3,0.25,0.25,0.0,0.75,0.0,0.0,0.25,0.0,0.25,1.5,0.0,0.0,0.25,0.02,0.14,0.95,52.72,-1.3,-15.8
4.52,0.0,0.0,0.0,1.25,0.0,0.0,0.0,0.25,1.0,0.5,0.0,0.5,0.75,-0.17,0.14,0.95,58.51,3.7,-34.5,0.25,0.25,0.0,0.75,0.0,0.0,0.0,0.0,0.25,1.5,0.25,0.0,0.5,0.02,0.14,0.95,52.92,0.0,-27.4
4.54,0.0,0.0,0.0,1.25,0.0,0.0,0.0,0.25,1.0,0.5,0.0,0.5,0.25,-0.17,0.14,0.95,59.07,6.1,-24.3,0.25,0.25,0.0,0.75,0.0,0.0,0.25,0.25,0.25,1.5,0.25,0.0,0.25,0.02,0.14,0.95,55.05,-0.8,-21.0
4.56,0.0,0.0,0.0,1.25,0.0,0.0,0.0,0.25,1.0,0.5,0.0,0.5,0.25,-0.17,0.14,0.95,59.58,6.1,-24.3,0.0,0.25,0.0,0.75,0.0,0.0,0.25,0.25,0.0,1.5,0.25,0.25,0.5,0.02,0.14,0.95,58.04,2.3,-38.4
4.58,0.0,0.0,0.0,0.75,0.0,0.0,0.0,0.25,1.0,0.5,0.0,0.5,0.25,-0.17,0.14,0.95,56.33,4.3,-37.5,0.0,0.0,0.0,0.75,0.0,0.0,0.25,0.25,0.25,1.5,0.75,0.0,0.75,0.02,0.14,0.95,62.74,2.2,-50.7
4.6,0.0,0.0,0.0,1.25,0.0,0.0,0.0,0.25,1.0,0.5,0.0,0.5,0.5,-0.17,0.14,0.95,57.62,4.8,-29.7,0.25,0.25,0.0,0.75,0.0,0.0,0.25,0.0,0.25,1.5,0.25,0.0,0.5,0.02,0.14,0.95,63.12,-0.9,-25.7
4.62,0.0,0.0,0.0,1.25,0.0,0.0,0.0,0.25,1.0,0.5,0.0,0.5,0.25,-0.11,0.14,0.95,57.11,6.1,-24.3,0.0,0.25,0.0,0.75,0.0,0.0,0.25,0.0,0.25,1.5,0.25,0.25,0.5,0.02,0.14,0.95,63.13,0.5,-38.4
4.64,0.0,0.0,0.0,1.25,0.0,0.0,0.0,0.25,1.0,0.5,0.0,0.5,0.25,-0.17,0.14,0.95,58.09,6.1,-24.3,0.25,0.25,0.0,0.75,0.0,0.0,0.25,0.0,0.25,1.5,0.25,0.25,0.5,0.02,0.14,0.95,62.88,-1.4,-30.8
4.66,0.0,0.0,0.0,1.0,0.0,0.0,0.0,0.25,1.0,0.5,0.0,0.5,0.25,-0.17,0.14,0.95,56.79,5.3,-30.4,0.0,0.0,0.0,0.75,0.0,0.0,0.25,0.25,0.0,1.5,0.0,0.0,0.75,0.02,0.14,0.95,61.12,6.1,-46.3
4.68,0.0,0.0,0.0,1.25,0.0,0.0,0.0,0.25,1.0,0.5,0.0,0.5,0.25,-0.17,0.14,0.95,56.72,6.1,-24.3,0.0,0.25,0.0,0.75,0.0,0.0,0.25,0.0,0.25,1.5,0.75,0.0,0.75,0.02,0.14,0.95,63.7,0.6,-42.6
4.7,0.0,0.0,0.0,1.25,0.0,0.0,0.0,0.25,1.0,0.5,0.0,0.5,0.25,-0.17,0.14,0.95,56.76,6.1,-24.3,0.25,0.0,0.0,0.75,0.0,0.0,0.25,0.0,0.25,1.5,0.25,0.0,0.5,0.02,0.14,0.95,61.65,-0.1,-34.5
4.72,0.0,0.0,0.0,1.25,0.0,0.0,0.0,0.25,1.0,0.5,0.0,0.5,0.25,-0.17,0.14,0.95,57.05,6.1,-24.3,0.0,0.25,0.0,0.5,0.0,0.0,0.25,0.0,0.25,1.5,0.25,0.0,0.75,0.02,0.14,0.95,61.32,3.3,-45.5
4.74,0.0,0.0,0.0,1.0,0.0,0.0,0.0,0.25,1.0,0.5,0.0,0.5,0.5,-0.17,0.14,0.95,57.5,4.0,-35.8,0.0,0.0,0.0,0.5,0.0,0.0,0.25,0.0,0.25,1.5,0.25,0.0,0.5,0.02,0.14,0.95,56.58,3.8,-52.1
4.76,0.0,0.0,0.0,1.0,0.0,0.0,0.0,0.25,1.0,0.5,0.0,0.5,0.25,-0.17,0.14,0.95,56.38,5.3,-30.4,0.25,0.25,0.0,0.75,0.0,0.0,0.25,0.0,0.25,1.5,0.0,0.25,0.25,0.02,0.14,0.95,55.1,-1.9,-22.2
4.78,0.0,0.0,0.0,1.0,0.0,0.0,0.0,0.25,1.0,0.5,0.0,0.5,0.25,-0.17,0.14,0.95,55.71,5.3,-30.4,1.0,0.0,0.0,0.75,0.0,0.0,0.0,0.0,0.0,1.5,0.25,0.25,0.25,0.02,0.14,0.95,55.46,-6.0,-12.6
4.8,0.0,0.0,0.0,0.5,0.0,0.0,0.0,0.25,1.0,0.5,0.0,0.5,0.25,-0.17,0.14,0.95,52.46,3.2,-45.8,0.0,0.25,0.0,0.5,0.0,0.0,0.25,0.0,0.0,1.5,0.0,0.0,0.5,0.02,0.14,0.95,52.08,4.9,-37.9
4.82,0.0,0.0,0.0,1.25,0.0,0.0,0.0,0.25,1.0,0.5,0.0,0.5,0.25,-0.11,0.14,0.95,53.36,6.1,-24.3,0.25,0.0,0.0,0.75,0.0,0.0,0.25,0.0,0.25,1.5,0.25,0.25,0.0,0.02,0.14,0.95,50.86,-2.9,-28.6
4.84,0.0,0.0,0.0,1.25,0.0,0.0,0.0,0.25,1.0,0.5,0.0,0.5,0.0,-0.17,0.14,0.95,52.81,7.6,-18.1,0.25,0.25,0.0,0.5,0.0,0.0,0.25,0.0,0.25,1.5,0.25,0.25,0.25,0.02,0.14,0.95,51.15,-1.3,-31.5
4.86,0.0,0.0,0.0,1.25,0.0,0.0,0.0,0.25,1.0,0.5,0.0,0.5,0.25,-0.11,0.14,0.95,55.13,6.1,-24.3,0.25,0.25,0.0,0.75,0.0,0.0,0.25,0.0,0.25,1.5,0.0,0.0,0.25,0.02,0.14,0.95,51.16,-1.3,-15.8
4.88,0.0,0.0,0.0,1.0,0.0,0.0,0.0,0.25,1.0,0.5,0.0,0.5,0.25,-0.11,0.14,0.95,54.95,5.3,-30.4,0.25,0.25,0.0,0.75,0.0,0.0,0.25,0.0,0.0,1.5,0.0,0.0,0.25,0.02,0.14,0.95,49.92,-0.5,-14.0
4.9,0.0,0.0,0.0,1.25,0.0,0.0,0.0,0.25,1.0,0.5,0.0,0.5,0.25,-0.17,0.14,0.95,56.25,6.1,-24.3,0.0,0.0,0.0,0.75,0.0,0.0,0.25,0.0,0.25,1.5,0.25,0.0,0.5,0.02,0.14,0.95,51.06,2.2,-43.6
4.92,0.0,0.0,0.0,1.0,0.0,0.0,0.0,0.25,1.0,0.5,0.0,0.5,0.25,-0.17,0.14,0.95,55.15,5.3,-30.4,0.5,0.0,0.0,0.75,0.0,0.0,0.25,0.0,0.25,1.5,0.25,0.0,1.0,0.02,0.14,0.95,56.12,-0.3,-36.3
4.94,0.0,0.0,0.0,0.5,0.0,0.0,0.0,0.25,1.0,0.5,0.0,0.25,0.25,-0.17,0.14,0.95,51.24,2.7,-40.0,0.25,0.25,0.0,0.75,0.0,0.0,0.0,0.0,0.0,1.5,0.0,0.0,0.25,0.02,0.14,0.95,54.81,0.7,-15.7
4.96,0.0,0.0,0.0,1.25,0.0,0.0,0.0,0.25,1.0,0.5,0.0,0.5,0.25,-0.17,0.14,0.95,52.21,6.1,-24.3,0.25,0.25,0.0,0.0,0.0,0.0,0.0,0.0,0.25,0.5,0.0,0.0,0.25,0.02,0.14,0.95,44.73,-2.0,-18.1
4.98,0.0,0.0,0.0,1.0,0.0,0.0,0.0,0.25,1.0,0.5,0.0,0.5,0.25,-0.17,0.14,0.95,52.26,5.3,-30.4,0.0,0.0,0.0,0.25,0.0,0.0,0.25,0.0,0.0,0.5,0.0,0.0,0.5,0.02,0.14,0.95,33.5,4.6,-54.3
5.0,0.0,0.0,0.0,1.0,0.0,0.0,0.0,0.25,1.0,0.5,0.0,0.25,0.25,-0.17,0.14,0.95,52.37,5.0,-24.4,0.0,0.25,0.0,0.25,0.0,0.0,0.25,0.0,0.25,0.5,0.25,0.0,0.5,0.02,0.14,0.95,27.64,-1.0,-36.4
5.02,0.0,0.0,0.0,0.75,0.0,0.0,0.0,0.25,1.0,0.5,0.0,0.25,0.25,-0.17,0.14,0.95,50.04,4.0,-31.5,0.25,0.25,0.0,0.0,0.0,0.5,0.25,0.0,0.25,0.0,0.25,0.25,0.0,0.02,0.14,0.95,24.51,-6.7,6.9
5.04,0.0,0.0,0.0,1.0,0.0,0.0,0.0,0.0,1.0,0.5,0.0,0.25,0.25,-0.17,0.14,0.95,48.17,6.8,-23.2,0.25,0.25,0.0,0.0,0.0,0.25,0.25,0.0,0.25,0.5,0.0,0.25,0.25,0.02,0.14,0.95,26.22,-1.7,-20.5
5.06,0.0,0.0,0.0,1.0,0.0,0.0,0.0,0.25,1.0,0.5,0.0,0.0,0.25,-0.17,0.14,0.95,45.88,4.7,-17.4,0.25,0.25,0.0,0.0,0.0,0.0,0.25,0.0,0.25,0.75,0.0,0.0,0.25,0.02,0.14,0.95,25.78,-1.6,-22.9
5.08,0.0,0.0,0.0,1.0,0.0,0.0,0.0,0.0,1.0,0.5,0.0,0.0,0.25,-0.17,0.14,0.95,44.06,6.6,-15.5,0.25,0.25,0.0,0.0,1.0,0.0,0.25,0.0,0.25,0.5,0.25,0.0,0.25,0.02,0.14,0.95,32.18,-1.8,6.5
5.1,0.0,0.0,0.0,1.25,0.0,0.0,0.0,0.25,1.0,0.5,0.0,0.0,0.25,-0.17,0.14,0.95,45.74,5.7,-11.4,0.25,0.25,0.0,0.0,0.25,0.0,0.25,0.0,0.0,0.5,0.0,0.0,0.5,0.02,0.14,0.95,31.3,0.2,-14.1
5.12,0.0,0.0,0.0,0.5,0.0,0.0,0.0,0.25,1.0,0.5,0.0,0.0,0.25,-0.11,0.14,0.95,43.23,2.1,-33.1,0.25,0.25,0.0,0.0,0.0,0.25,0.0,0.0,0.25,0.5,0.5,0.0,0.75,0.02,0.14,0.95,36.01,1.5,-41.1
5.14,0.0,0.0,0.0,1.25,0.0,0.0,0.0,0.25,1.0,0.5,0.0,0.0,0.25,-0.11,0.14,0.95,45.49,5.7,-11.4,0.25,0.0,0.0,0.0,0.0,0.0,0.25,0.0,0.25,0.75,0.0,0.0,0.5,0.02,0.14,0.95,33.56,2.0,-51.8
5.16,0.0,0.0,0.0,0.75,0.0,0.0,0.0,0.25,1.0,0.5,0.0,0.0,0.25,-0.17,0.14,0.95,43.98,3.5,-24.5,0.0,0.0,0.0,0.0,0.0,0.0,0.25,0.0,0.25,0.5,0.0,0.0,0.25,0.02,0.14,0.95,29.1,3.9,-64.3
5.18,0.0,0.0,0.0,1.0,0.0,0.0,0.0,0.25,1.0,0.25,0.0,0.0,0.25,-0.11,0.14,0.95,44.17,6.5,-12.2,0.0,0.0,0.0,0.25,0.25,0.25,0.25,0.0,0.25,0.5,0.0,0.0,0.75,0.02,0.14,0.95,31.04,5.5,-37.1
5.2,0.0,0.0,0.0,1.0,0.0,0.0,0.0,0.25,1.0,0.5,0.0,0.0,0.25,-0.17,0.14,0.95,43.56,4.7,-17.4,0.0,0.25,0.0,0.0,0.0,0.0,0.25,0.0,0.0,0.5,0.25,0.0,0.5,0.02,0.14,0.95,30.0,3.1,-51.2
5.22,0.0,0.0,0.0,0.5,0.0,0.0,0.0,0.25,1.0,0.5,0.0,0.0,0.25,-0.11,0.14,0.95,42.36,2.1,-33.1,0.25,0.25,0.0,0.0,0.0,0.0,0.25,0.0,0.0,0.5,0.0,0.0,0.25,0.02,0.14,0.95,27.17,-2.8,-10.5
5.24,0.0,0.0,0.0,1.0,0.0,0.0,0.0,0.25,1.0,0.5,0.0,0.0,0.25,-0.17,0.14,0.95,43.54,4.7,-17.4,0.25,0.0,0.0,0.0,0.0,0.0,0.25,0.0,0.25,0.5,0.0,0.0,0.75,0.02,0.14,0.95,26.56,1.8,-56.6
5.26,0.0,0.0,0.0,0.25,0.0,0.0,0.0,0.25,1.0,0.5,0.0,0.25,0.25,-0.17,0.14,0.95,42.28,1.2,-50.2,0.25,0.25,0.0,0.0,0.0,0.0,0.0,0.0,0.0,0.5,0.0,0.0,0.5,0.02,0.14,0.95,25.13,2.3,-30.5
