time,left pressure 0[N/cm虏],left pressure 1[N/cm虏],left pressure 2[N/cm虏],left pressure 3[N/cm虏],left pressure 4[N/cm虏],left pressure 5[N/cm虏],left pressure 6[N/cm虏],left pressure 7[N/cm虏],left pressure 8[N/cm虏],left pressure 9[N/cm虏],left pressure 10[N/cm虏],left pressure 11[N/cm虏],left pressure 12[N/cm虏],left acceleration X[g],left acceleration Y[g],left acceleration Z[g],left total force[N],left center of pressure X[mm],left center of pressure Y[mm],right pressure 0[N/cm虏],right pressure 1[N/cm虏],right pressure 2[N/cm虏],right pressure 3[N/cm虏],right pressure 4[N/cm虏],right pressure 5[N/cm虏],right pressure 6[N/cm虏],right pressure 7[N/cm虏],right pressure 8[N/cm虏],right pressure 9[N/cm虏],right pressure 10[N/cm虏],right pressure 11[N/cm虏],right pressure 12[N/cm虏],right acceleration X[g],right acceleration Y[g],right acceleration Z[g],right total force[N],right center of pressure X[mm],right center of pressure Y[mm]
0.02,0.5,1.0,4.25,2.25,2.5,3.0,2.5,2.75,4.5,3.5,3.25,0.75,1.25,-0.05,0.08,0.95,383.34,5.7,-5.4,2.0,0.75,2.25,2.0,3.5,0.0,1.25,1.75,3.25,1.5,3.0,0.75,0.0,0.02,0.14,0.95,295.69,-10.5,6.8
0.04,1.0,1.25,4.25,2.25,2.5,3.25,3.25,3.0,5.0,3.0,3.5,1.5,1.25,-0.05,0.08,0.95,433.64,6.6,-5.0,1.75,1.0,2.0,2.25,3.5,0.0,1.0,1.5,2.75,1.0,2.5,0.5,0.0,0.08,0.14,1.14,246.95,-10.8,14.0
0.06,0.0,1.0,5.0,3.0,2.5,3.5,3.25,4.5,5.5,4.5,4.5,2.25,2.25,-0.05,0.08,0.95,507.77,4.5,-15.9,1.25,0.75,1.75,2.0,3.5,0.75,0.75,1.5,1.75,1.25,2.0,0.5,0.5,0.27,0.08,2.2,207.59,-7.1,10.6
0.08,1.0,1.25,5.0,2.5,2.5,3.25,3.75,4.75,6.25,5.0,5.0,2.5,3.25,-0.05,0.08,0.95,593.06,4.8,-18.3,1.75,0.5,1.75,1.25,3.5,1.25,0.75,1.5,1.75,1.25,2.0,0.5,0.5,0.95,0.2,1.2,187.9,-6.6,10.2
0.1,0.0,1.25,5.0,2.75,2.5,3.25,4.0,5.75,7.0,5.0,6.0,2.5,3.75,-0.05,0.08,0.95,665.8,3.9,-23.0,1.0,0.75,1.75,1.25,3.5,1.25,0.5,1.5,1.5,1.25,2.0,0.5,0.5,1.89,0.14,0.33,176.82,-5.3,8.6
0.12,0.5,1.25,5.0,4.5,5.25,3.5,4.25,6.25,7.25,6.5,6.25,3.25,4.5,-0.05,0.08,0.95,773.17,3.3,-18.9,1.25,0.75,1.5,1.25,3.5,0.0,0.25,1.5,1.25,1.25,1.5,0.5,0.5,1.7,-0.11,0.58,167.4,-6.8,10.3
0.14,1.25,1.25,5.0,4.5,3.5,3.75,4.5,6.5,7.5,6.0,6.75,3.75,5.0,-0.05,0.08,0.95,857.89,4.0,-21.5,1.0,1.0,1.5,1.5,3.25,1.25,0.5,1.5,1.25,1.25,1.25,0.5,0.5,0.95,-0.3,0.83,170.58,-4.9,13.6
0.16,1.25,1.25,5.0,4.5,3.75,4.0,4.5,6.75,7.75,6.5,6.75,3.5,5.0,-0.05,0.08,0.95,929.36,3.6,-21.1,1.5,0.0,0.0,0.0,3.5,1.25,0.25,1.5,1.0,0.25,0.75,0.0,0.5,0.27,-0.55,0.83,151.65,0.3,15.9
0.18,1.25,1.25,5.0,4.75,3.0,3.5,4.5,6.75,7.75,5.75,6.5,3.0,5.0,-0.05,0.08,0.95,947.79,4.2,-20.6,1.0,0.75,1.0,1.5,3.25,1.25,0.5,1.5,1.0,1.25,1.0,0.5,0.5,-0.05,-0.67,1.08,160.41,-3.4,12.8
0.2,1.25,1.25,5.0,4.75,5.75,4.0,4.5,6.5,7.75,5.0,6.5,2.5,4.25,-0.05,0.08,0.95,960.82,4.1,-13.3,1.5,0.75,1.25,1.25,3.25,0.25,0.5,1.5,1.25,1.25,1.0,0.5,0.75,-0.3,-0.67,1.27,169.63,-6.2,11.2
0.22,1.25,1.25,5.25,4.75,6.0,4.5,4.5,6.5,7.5,5.25,6.25,2.5,4.0,-0.05,0.08,0.95,960.27,3.9,-11.7,2.0,0.75,1.0,1.25,3.25,1.25,0.5,1.5,1.25,1.25,0.75,0.5,0.5,-0.17,-0.55,1.02,192.87,-5.0,17.6
0.24,1.25,1.75,5.25,4.75,6.0,4.0,4.5,6.5,7.5,5.0,6.0,2.5,3.25,-0.05,0.08,0.95,948.49,4.5,-9.2,1.25,0.5,0.75,1.0,3.25,1.25,0.25,1.5,1.25,1.0,1.25,0.5,0.5,0.02,-0.36,1.02,199.22,-3.0,9.2
0.26,1.25,1.75,5.25,4.75,6.0,4.5,4.5,6.5,7.75,5.0,6.0,2.25,3.25,-0.05,0.08,0.95,939.16,4.3,-8.5,1.25,0.75,0.75,1.75,3.25,0.0,0.25,1.5,1.25,1.25,0.75,0.5,0.5,0.14,-0.11,1.02,203.93,-5.5,12.8
0.28,1.5,1.75,5.25,4.75,6.0,4.5,4.5,6.5,7.75,5.25,6.0,2.5,3.25,-0.05,0.08,0.95,929.08,4.3,-8.8,1.25,0.75,1.0,0.75,3.25,1.5,0.5,1.5,1.25,1.0,0.75,0.5,0.75,0.2,0.14,0.95,204.76,-2.8,12.0
0.3,1.25,1.75,5.5,4.75,6.0,5.0,4.5,6.5,7.75,5.0,6.0,1.5,3.25,-0.05,0.08,0.95,912.03,4.2,-6.5,1.25,0.75,1.0,1.25,3.25,2.0,0.5,1.5,1.0,1.25,0.75,0.5,0.5,0.27,0.33,0.95,210.17,-2.3,15.6
0.32,1.25,1.75,5.75,4.75,6.0,4.75,4.5,6.5,8.0,5.25,6.0,2.25,3.25,-0.05,0.08,0.95,905.32,4.4,-8.1,1.0,1.25,1.0,1.25,3.5,1.75,0.25,1.5,1.0,0.75,0.75,0.5,0.5,0.2,0.45,0.95,216.11,-2.8,20.5
0.34,1.25,2.0,5.75,4.75,6.0,5.25,4.5,6.5,8.0,5.25,6.0,2.25,3.25,-0.05,0.08,0.95,905.26,4.2,-7.3,0.75,0.5,1.25,1.25,3.25,1.5,0.5,1.5,1.0,1.0,0.75,0.5,0.5,0.08,0.45,1.08,217.25,-2.9,13.3
0.36,1.5,2.0,5.75,4.75,6.0,5.0,4.5,6.5,8.25,5.25,6.0,2.0,3.25,-0.05,0.08,0.95,904.33,4.5,-6.8,1.25,0.25,1.25,1.25,3.25,1.75,0.5,1.25,1.0,1.0,0.75,0.5,0.5,-0.05,0.52,1.2,217.55,-3.6,15.7
0.38,2.25,2.25,5.75,4.75,6.0,5.25,4.75,6.5,8.25,4.75,5.75,1.75,3.0,-0.05,0.08,0.95,914.03,5.0,-3.1,1.5,0.5,0.75,1.25,3.25,2.0,0.5,1.5,1.0,1.0,0.75,0.5,0.5,-0.3,0.58,1.27,217.37,-2.3,16.2
0.4,2.25,2.25,6.0,4.75,6.0,5.25,4.75,6.5,8.25,4.25,5.5,1.0,2.75,-0.05,0.08,0.95,911.98,5.4,-0.1,1.25,0.5,0.75,0.75,3.25,1.25,0.5,1.25,0.75,0.75,0.75,0.5,0.5,-0.48,0.77,1.14,210.03,-3.1,15.9
0.42,2.5,2.25,6.0,5.5,6.0,5.25,5.0,6.5,8.25,4.0,5.5,1.0,2.25,-0.05,0.08,0.95,913.16,6.0,2.4,1.5,0.5,0.75,1.0,3.25,1.5,0.5,1.5,0.75,1.0,0.75,0.5,0.75,-0.61,1.14,0.89,205.48,-2.4,13.5
0.44,4.0,2.5,6.5,6.25,6.0,5.5,5.25,6.25,8.0,3.5,4.75,0.5,2.0,-0.05,0.08,0.95,919.59,7.3,9.9,1.0,0.75,0.75,1.5,3.25,1.25,0.25,1.25,0.75,0.5,0.75,0.5,0.75,-0.55,1.77,0.58,201.23,-3.3,17.7
0.46,4.75,2.5,6.5,6.5,6.0,5.5,5.5,5.75,7.75,3.5,4.5,1.0,1.5,-0.05,0.08,0.95,932.6,8.1,12.2,1.0,0.75,1.0,1.5,3.25,2.0,0.25,1.5,0.5,1.25,0.75,0.0,0.5,-0.61,2.33,1.7,204.71,-1.3,21.1
0.48,5.75,2.5,8.0,7.75,6.75,5.5,6.0,5.75,7.25,3.25,3.5,0.25,1.25,-0.05,0.08,0.95,966.82,9.5,20.5,0.5,0.25,0.5,0.0,3.25,0.5,0.25,1.5,0.75,1.5,0.75,0.75,0.5,-0.48,-0.23,-1.42,190.94,1.0,-6.1
0.5,6.75,2.5,8.25,8.0,8.0,5.5,6.0,4.5,6.75,3.5,3.5,0.75,1.25,-0.05,0.08,0.95,1010.2,10.1,22.9,1.25,0.75,0.5,0.5,3.25,1.75,0.25,1.5,1.0,2.0,0.75,1.25,1.0,-0.3,-0.86,2.02,199.66,0.4,-2.3
0.52,8.0,2.75,9.0,10.0,8.0,5.5,6.25,4.5,5.25,3.0,2.75,0.0,1.25,-0.11,0.08,0.95,1061.28,11.4,31.1,1.75,0.5,0.75,1.25,3.5,0.25,0.25,1.75,0.75,1.75,0.75,1.5,2.25,-0.42,0.45,0.89,210.31,-2.4,-8.0
0.54,8.75,4.0,9.75,11.0,8.5,5.5,6.0,3.0,4.25,3.0,2.5,0.75,1.25,-0.11,0.14,1.02,1120.58,12.5,35.5,0.75,0.0,0.0,1.0,2.25,2.0,0.0,2.0,1.25,5.5,0.75,4.5,3.0,0.45,0.45,1.39,251.2,4.6,-47.0
0.56,9.5,3.5,10.5,11.0,8.75,4.25,5.5,2.75,1.75,3.0,2.5,0.75,1.25,-0.11,0.14,1.27,1143.61,13.7,39.3,1.5,0.0,0.0,0.0,3.5,1.75,0.25,4.25,2.25,6.25,4.75,5.5,5.75,-0.11,0.2,1.2,338.56,3.4,-53.0
0.58,9.75,4.0,11.0,9.75,8.0,3.25,4.0,2.5,1.75,3.0,2.5,0.5,1.25,-0.11,0.2,1.27,1128.17,14.6,40.7,2.5,0.0,0.75,0.0,3.5,2.0,0.25,4.25,3.25,6.75,6.5,6.0,6.0,-0.05,0.2,0.95,465.74,1.0,-48.9
0.6,10.5,4.0,11.0,7.0,7.75,1.75,2.5,2.5,1.25,3.0,2.25,0.5,1.0,-0.17,0.27,1.33,1055.81,15.7,42.8,1.75,1.0,1.75,0.0,3.5,2.25,1.0,5.25,3.75,6.75,6.75,6.25,6.0,0.02,0.2,0.95,603.84,0.3,-44.5
0.62,10.5,4.0,10.5,5.25,6.0,1.75,2.5,2.25,1.25,3.0,2.25,0.25,1.25,-0.17,0.33,1.45,953.71,16.3,42.0,2.0,0.75,1.75,1.75,3.5,2.0,1.25,5.5,4.5,7.0,7.25,6.25,6.5,0.08,0.14,0.95,723.93,-0.5,-42.0
0.64,9.0,2.5,9.25,4.75,5.5,2.25,2.5,0.5,1.0,0.75,2.25,0.0,1.25,-0.23,0.45,1.77,802.37,18.1,48.2,2.0,0.75,2.25,2.25,3.5,2.25,1.25,5.75,4.5,7.25,7.5,6.5,6.75,0.08,0.14,0.95,820.23,-0.8,-40.6
0.66,8.0,2.5,8.0,2.25,2.25,0.5,2.0,0.5,0.5,1.75,0.5,0.0,0.5,-0.48,0.64,2.08,604.5,22.1,54.3,2.0,0.75,2.25,1.5,3.5,3.25,1.25,6.25,5.0,7.5,7.75,6.75,7.0,0.08,0.14,0.95,890.14,-0.1,-41.6
0.68,7.25,1.75,6.5,2.5,2.25,0.75,2.0,0.5,0.75,1.5,1.0,0.0,0.5,-0.55,0.52,1.83,442.84,20.7,49.2,2.0,0.75,2.25,1.75,3.75,3.25,1.25,6.25,5.0,7.75,7.75,7.0,7.0,0.08,0.14,0.95,942.52,-0.1,-41.1
0.7,6.25,1.25,5.0,2.0,2.25,0.5,1.75,0.5,0.5,0.75,0.75,0.0,0.5,-0.42,0.52,1.95,319.74,21.0,52.0,1.25,0.25,2.25,2.0,3.5,3.25,1.25,6.25,5.0,7.75,7.75,7.0,7.0,0.08,0.14,0.95,966.03,0.3,-44.3
0.72,4.75,0.0,3.0,0.75,2.25,0.5,1.25,0.5,1.0,2.0,1.0,0.0,0.75,-0.42,0.39,2.14,237.54,15.0,27.5,1.75,0.75,2.25,2.0,3.75,4.0,1.5,6.25,5.0,7.5,7.75,7.0,7.0,0.08,0.14,0.95,975.79,0.0,-40.0
0.74,2.5,1.0,1.75,2.0,2.25,1.25,1.25,0.5,0.75,2.75,1.0,0.5,0.25,-0.36,-0.55,1.08,178.38,8.7,19.9,2.0,0.75,1.75,1.5,3.5,3.25,1.5,6.25,5.25,7.75,7.75,6.75,7.0,0.08,0.14,0.95,954.05,0.1,-42.6
0.76,0.75,0.75,2.25,0.75,2.25,0.0,1.25,1.25,0.25,1.25,1.75,0.0,1.0,-0.61,-0.48,0.52,123.64,8.5,7.1,1.25,0.75,2.25,1.25,3.5,4.0,1.25,6.25,5.5,7.5,8.0,6.75,7.0,0.08,0.14,0.95,931.93,0.5,-43.0
0.78,1.25,1.0,2.0,0.25,2.25,1.0,1.25,0.5,0.5,2.0,2.0,0.25,1.25,-0.86,-1.11,1.27,99.75,6.4,2.6,1.25,1.0,2.25,2.0,3.5,3.75,1.25,6.25,5.5,7.75,8.0,6.75,7.0,0.08,0.14,0.95,906.38,0.2,-41.4
0.8,0.5,1.0,2.25,0.25,2.25,0.0,1.25,0.5,0.25,1.25,0.75,0.0,0.25,-0.61,-0.67,0.83,72.31,10.9,24.7,1.75,0.75,2.25,2.0,3.75,2.75,1.5,6.25,5.5,7.5,8.0,6.5,7.0,0.08,0.14,0.95,878.62,-0.4,-41.1
0.82,0.5,0.75,2.0,0.25,2.25,0.0,1.25,0.5,0.25,1.0,0.5,0.0,0.25,-0.42,-0.48,0.39,61.1,10.8,26.9,2.0,0.75,2.25,2.25,3.5,3.25,1.25,6.25,5.75,7.25,8.0,6.5,6.75,0.08,0.14,0.95,862.39,-0.6,-39.5
0.84,0.5,0.75,1.75,0.5,1.75,0.0,1.25,0.5,0.25,0.25,0.5,0.0,0.25,-0.3,-0.36,0.45,49.13,13.7,34.6,2.0,0.5,2.25,2.25,4.75,3.25,1.25,6.25,5.75,7.25,7.75,6.25,6.5,0.08,0.14,0.95,849.62,-0.4,-37.0
0.86,0.5,0.75,1.75,2.0,2.25,0.0,1.5,0.5,0.25,0.5,0.5,0.0,1.0,-0.23,-0.36,0.64,70.32,11.0,26.3,2.0,0.75,2.25,2.0,5.25,2.75,1.5,6.25,6.0,6.75,7.75,6.25,6.0,0.08,0.14,0.95,834.65,-1.0,-35.3
0.88,0.5,0.75,1.75,0.25,2.25,0.0,1.25,0.5,0.25,0.5,0.25,0.0,0.25,-0.17,-0.36,0.89,81.68,11.6,35.1,1.25,0.5,2.25,2.25,5.25,4.0,1.5,6.25,6.25,6.75,7.75,6.0,6.0,0.08,0.14,0.95,826.29,-0.1,-35.4
0.9,0.5,0.75,1.0,0.5,2.25,0.0,1.0,0.5,0.25,0.5,0.25,0.0,0.25,-0.17,-0.3,1.02,93.54,8.8,33.4,2.0,1.0,2.25,2.5,5.5,4.25,1.75,6.5,6.5,6.5,7.75,5.5,5.5,0.08,0.14,0.95,824.71,-0.7,-29.8
0.92,0.5,0.75,1.5,0.0,1.75,0.0,1.0,0.5,0.25,0.5,0.5,0.0,0.0,-0.23,-0.11,1.02,90.29,12.2,33.4,2.25,1.25,2.5,2.5,6.0,4.5,1.75,6.75,6.75,6.0,7.5,5.25,4.75,0.08,0.14,0.95,827.81,-1.2,-25.2
0.94,0.5,0.5,2.25,0.25,2.25,0.0,1.0,0.5,0.25,0.5,0.5,0.0,0.0,-0.23,0.02,1.14,98.85,13.7,36.1,2.0,1.5,3.0,2.5,6.0,4.5,2.0,7.0,6.75,5.5,7.5,4.5,4.25,0.08,0.14,0.95,827.61,-1.6,-22.0
0.96,0.5,0.75,1.0,0.75,2.25,0.0,1.0,0.5,0.75,1.25,0.25,0.5,0.0,-0.3,0.14,1.39,109.74,7.8,17.9,2.75,1.75,4.0,3.0,6.0,4.5,2.5,7.0,7.0,5.25,6.75,3.5,3.25,0.08,0.14,0.95,831.45,-3.2,-13.5
0.98,0.75,1.0,3.0,2.0,2.25,1.75,1.25,0.5,1.0,0.5,1.75,0.5,1.25,-0.36,0.27,1.58,160.32,9.6,15.8,3.0,1.5,4.75,4.5,6.25,5.5,2.5,7.0,7.25,4.25,6.5,2.5,2.5,0.08,0.14,0.95,846.0,-4.1,-5.2
1.0,0.75,1.0,3.0,2.0,2.5,0.0,1.25,0.5,0.75,1.25,1.25,0.5,1.25,-0.42,0.45,1.83,198.01,11.4,13.9,5.0,1.75,5.0,5.0,7.5,6.0,3.0,7.0,7.0,4.0,5.0,2.0,2.25,0.08,0.14,0.95,882.03,-5.0,4.5
1.02,0.5,1.0,3.0,2.0,2.5,0.0,1.25,0.0,0.75,0.0,0.0,0.5,0.0,-0.61,0.77,2.14,209.36,18.1,47.8,6.0,1.5,6.25,6.75,7.75,6.0,3.5,6.25,6.5,3.25,4.25,2.0,1.5,0.08,0.14,0.95,927.41,-7.3,13.0
1.04,0.5,1.0,3.0,2.0,2.5,0.25,1.25,0.5,0.75,0.0,1.25,0.0,1.25,-0.67,1.52,2.27,218.21,13.0,25.1,7.0,2.5,7.5,10.0,9.0,6.25,3.5,5.5,5.0,2.75,3.25,1.25,1.5,0.08,0.2,0.95,1005.79,-8.8,25.1
1.06,0.5,1.0,1.75,2.0,2.25,1.25,0.75,0.0,0.75,0.75,0.0,0.0,1.25,-0.23,3.77,3.7,211.45,7.3,27.7,8.0,2.5,8.5,12.0,10.5,6.25,3.0,4.25,3.0,2.25,2.75,0.75,1.0,0.08,0.2,0.95,1077.92,-10.3,35.4
1.08,0.5,1.0,2.0,2.0,2.25,0.25,1.25,0.0,0.75,1.5,1.25,0.5,1.25,-0.55,4.08,1.77,212.29,9.4,9.0,8.75,2.25,9.25,0.0,11.5,6.0,1.5,3.0,1.75,1.5,2.25,0.75,1.0,0.08,0.2,1.39,1015.46,-9.8,37.6
1.1,0.25,0.5,0.5,0.0,0.75,0.0,0.75,0.5,0.25,0.0,0.0,0.75,0.0,1.95,6.27,-1.86,166.28,11.1,12.7,9.0,1.25,9.25,10.5,10.0,4.0,0.25,2.5,1.0,0.0,0.75,0.0,0.5,0.14,0.2,1.45,951.21,-14.1,53.0
1.12,0.5,1.0,3.0,2.0,2.25,1.75,1.25,1.0,0.75,0.5,1.5,0.0,1.25,2.39,3.83,-1.67,188.37,8.4,18.9,9.25,1.25,9.0,7.75,9.0,3.5,0.0,1.0,1.0,0.0,0.75,0.0,1.0,0.14,0.33,1.58,836.7,-15.4,54.3
1.14,0.0,0.25,3.0,0.0,2.5,0.0,0.5,0.5,1.0,0.5,0.5,0.0,0.0,-0.67,-0.55,3.14,166.79,13.4,27.2,10.5,2.5,8.0,7.25,6.5,2.75,0.0,1.5,1.0,1.25,0.75,0.5,1.0,0.2,0.52,2.14,759.1,-15.8,50.4
1.16,0.0,0.25,0.25,0.0,2.25,1.0,1.25,0.5,0.25,1.25,1.25,0.75,1.0,0.52,0.77,0.27,162.4,-1.7,-18.7,8.0,0.75,7.75,4.5,4.75,0.0,0.25,1.5,0.75,0.0,0.75,0.0,0.75,0.52,0.64,2.39,604.98,-20.6,54.0
1.18,0.5,1.0,0.5,1.0,2.25,2.0,0.5,2.75,1.25,4.5,2.0,2.75,3.0,-0.98,0.83,5.14,206.39,-3.1,-34.5,7.0,0.25,6.0,2.75,1.5,0.75,0.0,0.75,0.5,0.0,0.0,0.0,0.0,0.52,0.83,2.83,434.8,-25.0,65.4
1.2,0.0,1.0,0.0,2.0,0.0,3.25,1.25,5.5,3.0,6.5,3.5,4.0,5.0,0.2,0.33,1.27,296.04,-4.6,-50.5,3.75,0.0,4.75,2.5,3.25,0.75,0.0,0.75,0.75,1.0,0.0,0.0,0.0,0.58,0.58,3.02,298.91,-17.0,49.2
1.22,0.5,1.0,3.0,2.25,2.5,3.75,2.5,6.0,4.0,7.0,5.5,5.0,6.0,0.02,0.14,1.02,452.65,-0.1,-36.6,1.5,0.25,0.75,0.75,2.25,0.0,0.25,0.25,0.75,0.0,0.0,0.5,0.25,0.52,-1.11,1.58,174.76,-12.5,36.0
1.24,0.5,1.0,3.5,2.5,3.0,4.5,3.0,7.0,4.5,8.0,5.75,5.5,6.0,-0.05,0.14,0.95,651.18,-0.2,-34.7,2.0,0.25,2.0,2.5,3.25,1.75,0.25,0.5,0.5,0.0,0.75,0.0,0.75,0.64,-1.23,0.27,110.51,-9.5,38.3
1.26,0.5,1.25,4.25,2.25,5.0,5.0,3.25,7.25,5.0,7.75,6.25,5.75,6.25,-0.11,0.14,0.95,840.7,0.1,-29.9,0.75,0.0,0.0,0.5,1.75,1.75,0.0,0.25,1.25,1.0,0.0,0.5,0.0,1.08,-1.73,0.89,38.64,1.4,9.6
1.28,0.5,1.0,4.5,2.25,6.0,5.25,3.25,7.75,5.0,8.5,6.25,6.0,6.75,-0.11,0.08,0.95,977.92,-0.3,-29.9,1.75,0.75,0.75,2.0,3.5,1.25,0.25,1.5,1.0,0.75,1.0,0.25,0.75,0.52,-0.8,0.83,56.29,-4.6,20.6
1.3,0.5,1.0,4.5,2.25,6.0,5.25,2.75,8.0,5.0,8.25,6.5,5.75,6.75,-0.11,0.08,0.95,1066.8,-0.4,-29.8,1.75,1.0,0.75,2.0,3.5,1.0,0.5,1.25,1.0,1.25,1.0,0.75,0.5,-0.17,-0.48,0.58,82.08,-5.4,17.8
1.32,0.5,1.0,4.25,2.25,6.0,5.25,2.5,8.0,5.0,8.0,6.5,5.25,6.75,-0.11,0.08,0.95,1103.3,-0.6,-29.5,2.0,0.75,1.0,1.5,3.25,1.25,0.25,1.5,1.0,1.25,0.75,0.75,0.5,-0.67,-0.3,0.95,130.14,-5.0,17.0
1.34,0.5,1.0,4.25,2.5,6.0,5.5,2.5,8.0,5.0,7.75,6.25,5.25,6.25,-0.11,0.08,0.95,1105.57,-0.5,-27.8,1.5,1.0,0.75,2.0,3.5,1.25,0.25,0.75,0.75,1.25,0.5,0.75,0.0,-0.48,-0.17,0.95,146.17,-5.4,27.1
1.36,0.5,1.0,4.25,3.25,6.0,5.25,1.5,8.0,5.0,7.75,6.0,4.5,6.0,-0.11,0.08,0.95,1066.01,-0.6,-25.7,1.0,0.5,1.25,0.75,3.25,1.25,0.25,1.25,0.75,1.25,0.75,0.75,0.5,-0.17,-0.05,0.89,161.39,-3.0,10.6
1.38,0.5,1.0,4.0,3.25,6.0,5.5,2.5,8.0,5.0,7.25,5.5,3.5,5.75,-0.11,0.08,0.95,1023.76,-0.6,-22.7,1.25,0.75,1.5,1.75,3.25,1.0,0.25,1.25,0.75,1.25,0.75,0.75,0.75,0.02,0.08,1.02,180.18,-5.3,15.0
1.4,0.5,1.25,4.25,3.75,6.0,5.5,3.25,7.75,5.0,6.5,5.5,3.5,5.25,-0.11,0.08,0.95,969.91,0.3,-19.2,1.0,0.75,0.75,1.75,3.25,0.75,0.25,1.5,0.75,1.0,0.75,0.75,0.5,0.08,0.2,1.27,195.97,-3.8,13.7
1.42,0.5,1.0,4.5,4.5,6.0,5.5,3.25,7.75,5.0,6.5,5.25,3.0,5.0,-0.11,0.08,0.95,913.53,0.6,-16.9,0.5,0.0,1.0,0.0,3.25,0.0,0.25,1.25,0.5,0.0,0.75,0.0,0.5,0.08,0.39,1.52,182.38,-3.9,16.0
1.44,0.5,1.25,4.75,4.75,6.0,5.75,3.75,7.75,5.0,6.5,5.0,2.5,5.0,-0.11,0.08,0.95,879.77,0.8,-14.2,1.0,0.0,0.0,0.0,3.25,0.0,0.25,1.25,0.5,0.0,0.75,0.25,0.5,0.08,0.52,1.77,158.24,-1.5,11.1
1.46,0.75,1.0,4.75,4.75,6.0,6.0,4.0,7.75,5.25,5.5,4.75,2.25,4.5,-0.11,0.08,0.95,850.15,1.2,-11.4,1.25,0.75,0.0,1.5,1.25,0.0,0.0,0.0,0.5,0.0,0.0,0.0,0.0,0.2,0.89,2.08,125.59,-14.4,62.3
1.48,0.75,1.25,5.0,4.75,6.0,6.0,4.0,7.75,5.5,5.25,4.75,2.25,4.0,-0.11,0.08,0.95,836.46,1.7,-9.5,0.25,0.0,0.25,0.0,1.25,0.0,0.0,0.0,0.5,0.0,0.0,0.0,0.0,0.33,1.64,2.27,75.92,-7.9,39.8
1.5,1.25,1.5,5.0,4.75,6.25,6.25,4.0,7.75,5.5,5.25,4.75,2.5,3.25,-0.11,0.08,0.95,832.73,2.2,-6.7,0.5,0.0,0.0,0.0,1.75,0.0,0.0,0.0,0.5,0.0,0.0,0.0,0.0,0.39,2.58,2.2,45.64,-5.2,45.2
1.52,1.25,1.5,5.0,4.75,6.5,6.75,4.0,7.75,5.75,5.25,4.75,2.0,3.25,-0.05,0.08,0.95,840.39,1.9,-5.3,0.75,0.0,0.0,0.0,1.0,0.0,0.0,0.0,0.5,0.0,0.0,0.0,0.25,0.39,3.27,1.58,17.29,-8.8,31.8
1.54,1.5,2.0,5.0,5.5,7.5,6.75,4.5,7.75,6.0,5.25,4.5,2.0,3.25,-0.11,0.08,0.95,875.41,2.4,-1.8,0.5,0.25,0.0,0.0,1.25,0.0,0.25,0.0,0.5,0.0,0.0,0.25,0.0,0.02,4.39,0.27,10.12,-8.8,34.8
1.56,2.25,2.25,5.0,6.5,8.0,7.25,4.5,7.75,6.25,4.5,4.5,1.5,3.25,-0.11,0.08,0.95,926.24,3.0,3.0,1.25,0.25,0.0,1.0,1.75,1.25,0.25,0.25,0.75,0.25,0.5,0.0,0.0,-1.23,6.52,-1.8,35.89,-5.1,34.3
1.58,2.75,2.5,5.5,8.0,8.25,7.75,4.75,7.75,6.25,4.25,3.75,1.25,2.25,-0.05,0.08,0.95,986.47,4.0,9.9,1.0,0.0,0.0,1.0,3.0,2.0,0.25,1.5,0.75,1.5,0.75,0.75,0.0,-1.8,2.52,0.77,90.11,2.0,5.4
1.6,4.25,2.5,6.5,10.0,9.5,7.75,5.25,7.25,5.75,3.5,3.5,1.5,2.25,-0.05,0.08,0.95,1071.68,5.8,16.5,0.75,0.25,0.5,1.25,3.25,0.0,0.25,1.5,1.0,3.25,0.75,3.25,1.75,0.45,-0.3,3.52,158.56,-0.5,-29.9
1.62,5.75,2.75,7.75,12.5,9.75,7.75,5.25,6.5,5.0,3.0,2.75,0.75,1.75,-0.05,0.08,0.95,1163.25,7.7,26.0,1.25,0.75,0.5,1.0,3.25,2.0,0.25,3.0,2.5,5.5,4.5,5.75,4.5,-0.05,0.64,2.02,278.34,1.0,-44.1
1.64,7.25,3.75,9.0,14.0,12.0,7.75,5.5,5.75,2.75,3.0,2.5,1.0,1.5,-0.11,0.14,1.02,1281.49,8.9,33.5,1.5,0.0,0.75,0.25,3.0,2.25,0.0,4.25,3.5,5.5,6.5,5.5,5.0,-0.05,0.45,0.95,403.99,1.2,-49.7
1.66,8.0,4.0,9.75,15.5,12.5,7.25,5.0,4.0,2.0,3.0,2.5,0.75,1.25,-0.05,0.14,1.27,1355.6,10.3,38.6,2.0,0.25,1.75,1.75,1.75,2.5,0.75,4.25,3.75,5.75,6.5,5.75,4.0,0.02,0.2,0.95,544.97,-1.6,-41.5
1.68,8.0,4.0,10.0,13.5,12.5,5.5,2.0,2.75,1.25,2.75,2.0,0.5,1.25,-0.17,0.2,1.45,1356.84,11.1,42.6,0.75,1.0,2.0,2.0,3.75,2.75,1.5,5.0,4.75,6.5,6.75,6.25,5.25,0.14,0.2,0.95,675.51,-0.5,-39.2
1.7,8.75,4.0,10.5,12.5,11.5,4.5,0.25,0.75,0.5,1.5,1.0,0.25,1.25,-0.17,0.27,1.52,1285.72,13.6,52.1,1.75,0.5,2.0,2.0,3.75,3.5,1.5,5.5,5.25,6.75,7.75,6.75,6.0,0.08,0.14,0.95,799.28,-0.6,-39.6
1.72,8.75,4.0,9.0,7.0,8.0,3.5,0.0,0.5,0.5,1.5,1.75,0.0,1.0,-0.3,0.39,2.08,1075.79,14.8,51.6,3.0,0.75,2.25,2.0,4.5,3.5,1.75,5.75,5.5,7.0,8.25,6.75,6.0,0.08,0.14,0.95,905.43,-1.5,-34.6
1.74,7.75,2.5,8.0,4.75,5.5,1.75,0.0,0.5,0.25,0.5,0.75,0.0,1.25,-0.8,0.77,2.7,810.26,17.6,55.0,2.0,1.25,2.25,2.5,5.0,4.25,2.0,6.25,6.0,6.75,8.5,6.5,6.0,0.08,0.14,0.95,987.54,-0.9,-32.6
1.76,7.25,2.5,6.5,4.75,6.0,1.5,0.5,2.0,1.0,3.0,0.75,0.5,1.25,-0.98,0.64,2.77,631.15,12.8,37.9,1.75,1.0,2.5,2.25,5.5,4.5,2.0,6.25,6.0,6.75,8.25,6.25,5.75,0.08,0.14,0.95,1033.27,-0.7,-31.7
1.78,5.5,1.0,5.0,3.25,2.5,1.75,0.0,0.5,1.0,3.0,0.75,0.5,0.5,-0.8,0.39,2.77,443.93,14.2,34.4,1.75,1.0,2.25,2.25,5.75,4.5,2.0,6.25,6.0,6.0,7.75,5.5,5.0,0.08,0.14,0.95,1015.08,-0.7,-28.6
1.8,4.0,0.0,1.75,2.25,2.25,1.75,0.25,0.5,0.25,0.5,1.5,0.0,1.25,-0.8,-0.55,2.95,297.88,11.2,30.3,2.0,1.25,2.5,2.75,6.0,4.5,2.0,6.25,6.0,5.5,7.5,5.25,5.0,0.08,0.14,0.95,977.11,-1.3,-24.9
1.82,0.75,0.0,0.5,1.0,2.25,0.5,0.25,0.5,0.25,0.75,1.0,0.0,1.25,-0.42,-0.92,1.45,168.75,2.4,2.0,2.25,1.0,2.5,2.75,6.0,4.75,2.0,6.0,6.0,5.5,6.75,4.75,3.75,0.08,0.14,0.95,918.8,-1.5,-21.1
1.84,1.25,1.0,2.0,2.25,2.25,1.75,0.25,1.5,1.0,2.5,1.75,0.75,1.25,-0.98,-1.67,1.7,111.4,4.3,2.0,2.0,1.25,2.75,2.75,6.0,4.5,2.0,5.75,5.75,4.25,6.75,3.5,3.25,0.08,0.14,0.95,846.86,-2.2,-16.2
1.86,1.0,1.0,1.75,2.25,4.25,1.75,1.25,1.5,0.75,2.5,1.25,0.5,1.25,-0.61,-1.11,0.95,97.28,3.0,10.1,1.5,1.0,3.25,2.5,6.0,4.5,2.0,5.5,5.75,4.0,6.0,3.0,2.5,0.08,0.14,0.95,762.94,-2.4,-13.7
1.88,1.0,0.5,3.0,0.75,3.75,0.25,1.25,1.0,0.25,2.5,1.25,0.5,1.25,-0.48,-0.61,0.27,108.85,6.8,6.2,1.75,1.25,3.75,2.5,6.0,4.5,2.25,5.5,5.75,3.5,5.0,2.25,1.75,0.08,0.14,0.95,701.24,-3.3,-6.3
1.9,0.5,1.0,1.75,2.0,1.75,1.75,0.25,0.5,0.75,0.5,0.5,0.0,0.25,-0.42,-0.48,0.58,104.99,7.5,33.9,2.75,1.5,4.5,3.75,6.0,4.75,2.25,5.5,5.75,3.0,4.25,2.25,1.5,0.08,0.14,0.95,670.65,-5.0,1.7
1.92,1.0,1.0,3.0,1.25,4.25,0.25,1.25,0.75,0.5,1.25,1.25,0.0,1.25,-0.36,-0.42,0.95,130.6,8.9,21.6,3.25,1.5,4.75,4.75,6.5,5.5,2.5,5.5,5.75,2.75,4.25,1.75,1.5,0.08,0.14,0.95,670.97,-5.3,6.7
1.94,0.5,1.0,3.0,0.75,3.0,0.0,1.25,0.75,0.25,0.5,1.25,0.0,0.0,-0.23,-0.3,1.08,129.02,13.5,34.2,3.5,1.5,4.75,5.0,7.25,5.75,2.5,5.5,6.0,2.75,4.25,1.75,1.5,0.08,0.14,0.95,700.47,-5.3,8.1
1.96,0.5,0.75,0.75,0.5,2.25,0.0,0.5,0.5,0.25,0.5,0.5,0.0,0.25,-0.3,-0.05,1.08,116.91,7.0,29.0,5.0,1.75,5.0,6.5,7.75,6.0,2.5,5.5,6.0,2.75,3.5,1.25,1.5,0.08,0.14,0.95,756.22,-6.2,15.3
1.98,0.5,0.5,1.0,0.5,1.25,0.25,0.75,0.5,0.25,1.0,0.0,0.5,0.0,-0.36,0.14,1.2,98.16,8.2,18.4,5.5,1.75,6.25,7.75,8.25,6.0,2.75,5.5,5.5,2.75,3.0,1.0,1.5,0.08,0.14,0.95,826.05,-7.3,20.2
2.0,0.25,0.75,1.25,0.0,2.25,0.0,0.75,0.5,0.25,0.5,0.0,0.0,0.25,-0.36,0.2,1.39,81.49,7.9,34.3,6.25,2.0,6.75,9.5,9.0,6.25,2.75,5.25,5.0,2.0,3.0,1.0,1.5,0.08,0.14,0.95,909.92,-8.3,25.4
2.02,0.75,1.0,1.25,2.0,2.5,1.75,0.75,0.5,0.75,2.0,0.25,0.75,1.25,-0.36,0.39,1.77,124.65,3.0,9.7,7.25,2.25,7.5,10.5,10.5,6.75,2.75,4.25,4.5,2.25,2.75,0.75,1.5,0.08,0.2,0.95,1006.66,-8.9,30.6
2.04,0.5,0.5,1.75,0.25,1.25,0.0,0.75,0.5,0.25,0.5,0.0,0.0,0.25,-0.36,0.58,2.2,121.45,13.5,33.6,8.25,2.5,8.5,12.5,11.5,7.0,2.25,3.75,3.0,1.25,2.25,0.75,1.0,0.08,0.14,0.95,1100.43,-10.3,39.2
2.06,0.25,0.0,1.25,0.5,2.25,0.0,0.75,0.5,0.25,0.5,0.25,0.25,0.25,-0.55,1.02,2.45,119.91,8.2,20.0,8.75,2.5,9.25,13.5,12.5,6.75,1.5,3.0,1.75,1.75,2.0,0.75,0.75,0.02,0.2,1.02,1182.17,-10.8,43.0
2.08,0.0,0.75,0.5,0.0,2.25,1.0,0.75,0.5,0.75,2.0,0.0,0.0,0.25,-0.42,5.64,4.89,102.66,-2.6,7.1,9.5,3.0,9.25,15.5,13.5,7.0,0.25,2.75,1.25,1.25,2.0,0.75,0.75,0.02,0.2,1.14,1262.81,-11.0,46.5
2.1,0.5,1.0,0.0,0.5,1.25,0.0,0.5,0.5,0.5,2.0,0.0,0.5,1.25,-0.55,3.02,1.33,102.85,-0.6,-14.5,11.0,3.5,9.75,13.5,13.5,3.75,0.25,1.75,0.75,0.0,1.0,0.25,0.75,0.02,0.2,1.2,1261.35,-14.3,56.1
2.12,0.5,0.5,1.0,0.25,2.5,0.25,0.5,0.5,0.25,0.5,0.0,0.0,0.0,-0.42,4.52,1.14,101.38,6.7,40.2,10.5,3.0,9.25,12.5,11.5,5.0,0.0,1.0,0.75,0.0,0.0,0.0,0.75,0.14,0.33,1.2,1190.35,-14.3,59.3
2.14,0.5,0.5,3.25,0.0,2.25,0.25,1.0,0.5,1.0,3.0,0.25,0.75,0.0,3.64,7.95,-2.05,133.62,9.0,5.8,10.5,2.25,8.75,10.5,10.5,5.0,0.0,0.0,0.5,0.0,0.0,0.0,0.0,0.14,0.33,1.33,1052.27,-15.4,63.9
2.16,0.0,0.5,0.5,0.75,0.75,0.5,0.0,0.5,0.25,1.25,0.75,0.25,1.0,0.14,-1.73,-1.55,128.28,-0.4,-17.8,12.0,3.0,8.5,10.0,8.25,4.25,0.0,0.0,0.75,1.0,0.0,0.75,0.0,0.14,0.45,1.95,938.13,-16.6,60.6
2.18,0.0,0.5,3.0,0.25,2.5,0.75,0.25,2.5,0.25,3.0,0.75,1.5,1.25,-0.61,1.14,3.02,172.13,1.4,-15.2,9.75,2.5,8.5,7.0,6.75,2.5,0.25,0.75,0.75,0.75,0.75,0.75,0.5,0.58,0.83,2.33,795.64,-17.2,54.3
2.2,1.0,1.0,0.0,2.5,0.75,4.0,1.25,6.5,2.75,6.75,4.5,5.25,5.5,1.14,0.89,4.7,297.3,-3.5,-45.2,7.5,0.5,6.5,5.0,3.25,2.0,0.0,0.0,0.5,0.0,0.0,0.0,0.0,0.89,1.27,2.77,588.2,-21.4,66.2
2.22,0.5,1.0,3.0,2.75,6.0,4.0,2.5,7.25,3.75,7.25,6.75,6.0,6.5,-0.05,0.2,1.02,518.08,-0.5,-32.0,5.75,0.0,4.75,2.5,3.0,1.25,0.0,0.25,0.75,1.0,0.0,0.75,0.0,0.52,0.89,2.64,394.54,-18.6,49.6
2.24,0.5,1.0,3.75,2.5,6.0,4.25,3.0,7.25,3.5,7.75,6.25,5.75,6.5,-0.05,0.14,0.95,748.99,-0.3,-30.3,3.75,0.25,2.25,2.5,3.25,0.5,0.25,1.5,0.75,1.0,0.75,0.75,0.75,0.39,0.08,1.77,269.4,-11.4,26.8
2.26,0.5,1.0,4.0,2.25,6.0,4.5,2.75,7.25,3.25,7.75,6.25,5.25,6.25,-0.11,0.14,0.95,910.19,-0.5,-29.0,2.0,0.0,2.0,2.25,3.5,2.25,0.25,1.25,0.75,1.25,0.0,0.75,0.75,0.02,-0.48,0.77,188.56,-5.2,23.0
2.28,0.5,1.0,3.75,2.25,5.75,4.5,2.5,7.5,3.0,7.75,5.75,5.25,6.25,-0.11,0.08,0.95,988.98,-1.0,-29.6,2.0,0.5,1.75,2.5,3.5,0.0,0.25,1.25,0.75,1.25,0.75,0.75,0.5,0.64,-0.86,2.14,136.09,-9.3,21.6
2.3,0.5,1.0,3.5,2.25,5.75,5.0,2.5,7.5,3.0,7.75,6.0,5.25,6.25,-0.11,0.08,0.95,997.44,-1.3,-29.7,1.5,0.0,0.75,2.0,3.5,0.0,0.25,1.0,0.75,1.0,0.0,0.75,0.0,0.52,-1.17,1.27,95.33,-7.4,25.2
2.32,0.5,1.0,3.75,2.25,4.75,5.25,2.5,8.0,3.25,8.0,6.0,5.25,6.5,-0.11,0.08,0.95,995.56,-1.3,-31.4,2.0,0.0,1.0,0.75,3.5,0.0,0.25,1.0,0.5,0.0,0.75,0.0,0.0,0.45,-0.98,0.77,62.5,-10.5,39.5
2.34,0.5,1.0,4.0,2.5,5.75,5.25,2.75,8.0,3.5,8.0,6.0,5.25,6.5,-0.11,0.08,0.95,1007.5,-1.0,-28.8,1.25,0.0,0.75,1.75,3.5,0.5,0.25,1.25,0.75,0.5,0.75,0.75,0.0,0.2,-0.55,0.52,58.2,-6.1,20.3
2.36,0.5,1.0,4.25,2.25,5.75,5.5,2.75,8.25,3.75,8.0,6.0,5.25,6.25,-0.11,0.08,0.95,1009.85,-0.9,-28.3,1.5,0.25,0.75,1.75,3.25,0.0,0.25,1.0,0.75,1.0,0.75,0.75,0.5,0.02,-0.42,0.45,71.38,-6.8,14.3
2.38,0.5,1.0,4.0,2.5,6.0,6.0,3.0,8.5,3.75,7.75,5.75,4.75,6.0,-0.11,0.08,0.95,993.99,-1.2,-25.9,1.5,0.0,0.75,2.0,3.25,0.0,0.25,1.25,0.75,1.0,0.75,0.75,0.5,-0.05,-0.23,0.77,95.93,-6.5,12.5
2.4,0.75,1.0,4.25,3.5,5.75,6.5,3.25,8.5,4.0,7.75,5.5,3.75,6.0,-0.11,0.08,0.95,978.73,-0.9,-21.8,2.0,0.0,0.0,1.75,2.75,0.0,0.25,0.0,0.75,1.0,0.5,0.75,0.5,-0.11,-0.23,0.83,108.14,-8.4,17.4
2.42,0.75,1.0,3.75,4.5,6.5,6.75,3.25,8.5,4.5,7.0,5.5,3.5,5.25,-0.11,0.08,0.95,946.08,-0.6,-17.7,1.25,0.5,0.75,2.25,3.5,0.25,0.25,0.75,0.75,1.0,0.75,0.75,0.5,0.02,-0.17,0.89,141.0,-6.6,18.2
2.44,1.0,1.25,3.5,4.75,7.25,7.0,3.75,8.5,5.0,6.5,5.25,2.5,5.0,-0.11,0.08,0.95,920.5,-0.4,-12.9,1.5,0.0,0.75,2.0,3.25,0.5,0.25,0.75,0.75,1.0,0.75,0.75,0.0,0.14,-0.05,0.89,161.5,-7.1,20.3
2.46,1.25,1.0,5.0,5.5,7.75,7.75,4.0,8.5,5.0,5.25,4.5,2.25,4.5,-0.11,0.08,0.95,930.27,0.8,-5.7,0.75,0.25,0.75,1.25,3.25,0.5,0.25,0.5,0.75,0.75,0.75,0.75,0.0,0.14,0.02,1.14,165.69,-5.8,18.0
2.48,1.25,1.25,4.25,6.5,8.0,7.75,4.0,8.5,5.0,5.25,4.5,2.25,3.25,-0.11,0.08,0.95,950.83,1.0,-2.6,1.0,0.25,0.75,1.75,3.25,1.25,0.25,0.25,0.75,1.0,0.75,0.75,0.0,0.14,0.2,1.39,170.47,-5.2,21.4
2.5,1.75,1.5,4.5,6.5,8.75,8.25,4.25,8.5,5.0,5.25,3.5,2.0,3.25,-0.11,0.08,0.95,976.96,1.1,1.5,1.5,0.75,0.75,1.75,3.25,1.0,0.25,0.5,0.5,1.0,0.75,0.75,0.0,0.2,0.39,1.77,179.37,-6.5,27.0
2.52,2.25,2.0,5.25,8.0,9.0,8.5,4.25,8.0,4.5,4.25,3.25,1.0,2.75,-0.11,0.14,0.95,1000.42,2.5,10.4,1.25,0.75,0.75,1.5,3.25,1.25,0.25,0.5,0.5,0.25,0.75,0.75,0.0,0.33,0.64,1.95,183.96,-6.6,31.4
2.54,2.25,2.25,5.0,10.0,9.5,8.5,4.25,7.5,4.0,4.0,2.75,1.0,2.25,-0.11,0.14,0.95,1024.41,3.0,15.4,1.25,0.75,1.0,1.5,3.25,1.25,0.25,0.25,0.75,0.25,0.75,0.75,0.5,0.52,0.95,2.52,190.9,-7.0,26.4
2.56,3.25,2.5,5.75,10.5,11.0,8.75,3.75,6.75,3.25,3.25,2.5,0.75,2.0,-0.11,0.14,0.95,1054.47,4.0,22.5,1.5,0.0,0.75,1.25,3.25,1.25,0.25,0.25,0.75,1.0,0.75,0.75,0.5,0.7,1.89,2.89,191.27,-4.9,15.7
2.58,4.5,2.5,6.5,12.5,11.5,8.75,3.25,6.0,2.25,3.25,2.25,0.75,1.5,-0.11,0.14,0.95,1097.7,5.5,28.7,1.25,0.25,0.75,1.25,3.25,1.25,0.25,0.25,0.5,0.75,0.75,0.75,0.5,0.89,3.27,2.33,187.09,-4.8,18.9
2.6,5.5,2.5,6.0,14.0,12.0,8.5,3.25,5.25,1.75,3.0,2.5,0.75,1.25,-0.11,0.14,1.02,1142.34,6.3,32.2,1.25,0.0,0.5,1.25,3.25,1.75,0.25,0.5,0.5,1.0,0.75,0.75,0.25,0.64,5.14,0.7,184.31,-2.4,16.6
2.62,6.25,2.5,6.5,14.0,12.0,8.5,2.5,4.5,1.25,3.0,2.0,0.75,1.25,-0.11,0.2,1.02,1169.83,6.9,35.3,1.0,0.75,0.5,0.0,3.25,0.0,0.25,1.25,0.75,1.25,0.75,0.5,0.5,-1.3,6.89,-1.05,177.44,-2.4,6.0
2.64,7.25,2.5,7.0,14.5,13.5,7.75,0.0,3.25,1.25,3.0,2.0,0.75,1.25,-0.11,0.2,1.02,1189.48,7.7,38.5,1.25,0.5,1.0,1.25,3.25,0.0,0.25,1.5,0.25,1.5,0.75,1.0,1.0,-5.05,7.08,0.2,184.18,-4.1,3.6
2.66,7.5,4.0,9.0,14.5,13.0,7.75,0.5,2.75,1.0,3.0,1.75,0.75,1.25,-0.11,0.2,1.02,1221.53,9.1,41.9,0.5,0.5,0.75,1.25,3.25,0.0,0.25,1.5,0.25,2.75,0.75,2.25,1.75,0.89,-0.86,2.33,195.81,-0.2,-21.5
2.68,8.75,4.0,9.0,14.0,12.5,7.25,0.0,2.5,1.0,3.0,2.0,0.5,1.25,-0.11,0.27,1.08,1239.81,9.9,43.1,1.5,0.25,0.75,0.0,3.25,2.25,0.0,1.75,0.5,5.5,1.5,4.5,4.5,-0.11,1.27,1.52,255.48,3.6,-42.4
2.7,9.5,4.0,9.75,12.5,13.0,6.0,0.0,2.0,0.25,1.25,2.0,0.5,1.25,-0.11,0.27,1.08,1225.04,11.7,48.7,1.0,0.75,0.0,1.25,3.75,3.25,0.25,4.5,2.0,7.25,5.0,7.0,6.5,0.27,0.77,2.52,378.1,3.7,-48.6
2.72,9.0,4.5,9.5,11.0,9.5,4.25,0.0,0.5,0.25,1.25,0.25,0.0,0.75,-0.17,0.33,1.33,1109.38,14.5,58.1,1.25,0.25,0.0,1.5,1.25,3.25,0.0,5.5,3.75,8.0,6.75,7.75,7.25,-0.11,0.27,1.33,550.47,3.0,-58.3
2.74,9.75,4.0,9.25,8.0,8.0,3.0,0.0,0.5,0.25,0.75,0.5,0.5,0.5,-0.3,0.39,1.52,950.84,16.6,58.9,1.5,0.75,1.75,1.75,3.75,3.5,0.75,6.25,4.5,8.0,8.5,7.75,7.25,0.02,0.27,1.02,753.35,0.7,-45.1
2.76,8.75,4.0,9.0,6.5,6.25,2.0,0.0,0.5,0.25,2.0,0.5,0.5,0.5,-0.3,0.58,2.02,781.87,16.9,54.8,2.0,0.75,1.75,1.25,3.5,4.0,0.5,6.25,4.5,7.75,8.25,7.75,7.25,0.08,0.14,0.95,896.26,0.8,-44.6
2.78,9.0,4.25,9.0,4.75,6.75,2.75,0.0,1.75,0.75,0.5,1.25,0.0,1.25,-0.73,0.83,2.52,675.6,15.6,52.4,1.75,0.75,1.75,1.25,3.5,3.25,0.5,6.25,4.5,7.5,8.0,7.0,7.0,0.14,0.14,0.95,965.44,0.7,-44.7
2.8,7.0,2.5,7.0,4.5,4.75,2.5,0.25,1.75,0.5,2.0,1.25,0.75,1.25,-1.23,1.08,2.89,566.09,13.6,39.2,1.25,1.0,1.75,0.75,3.5,3.75,0.75,6.25,4.5,7.25,7.75,7.0,7.0,0.08,0.14,0.95,974.24,1.2,-45.1
2.82,5.75,1.0,4.75,2.0,3.0,1.75,0.0,0.5,0.25,2.75,0.25,0.0,0.5,-0.98,0.58,2.95,419.12,14.1,42.9,1.5,0.75,1.75,1.25,3.5,3.75,1.0,6.25,4.5,7.25,7.75,6.75,6.75,0.08,0.14,0.89,963.69,0.9,-43.4
2.84,3.25,1.25,2.0,2.5,4.5,1.75,0.0,0.5,0.0,2.25,0.0,0.5,0.25,-0.67,0.02,3.39,301.66,7.6,39.4,1.75,1.0,1.75,2.0,3.5,4.0,1.25,6.25,4.5,7.25,7.5,6.5,6.5,0.08,0.14,0.95,946.09,0.4,-39.3
2.86,2.25,0.0,0.5,1.5,3.75,1.75,0.0,1.0,0.25,1.25,1.0,0.5,1.25,-0.55,-0.86,1.7,209.24,2.0,13.2,1.5,1.0,1.75,2.0,4.25,4.25,1.25,6.5,5.0,7.0,7.75,6.25,6.0,0.08,0.14,0.95,928.98,0.5,-37.1
2.88,0.5,0.0,3.0,0.25,2.5,0.5,0.0,0.25,0.25,0.5,0.0,0.25,0.5,-0.61,-1.17,2.08,109.65,11.7,31.2,1.25,1.0,2.0,2.0,4.75,4.5,1.25,6.5,5.0,6.75,7.5,6.0,6.0,0.08,0.14,0.95,904.94,0.6,-35.2
2.9,0.5,1.0,1.75,0.75,3.5,0.75,0.0,0.0,0.25,2.25,0.0,0.25,0.25,-0.42,-1.11,1.14,55.39,4.1,26.0,1.75,1.0,1.75,2.25,5.25,4.5,1.5,6.5,5.0,6.25,7.25,5.5,5.0,0.08,0.14,0.95,861.84,0.1,-30.3
2.92,0.5,0.75,0.75,0.75,2.25,1.75,0.0,0.5,0.25,2.0,0.0,0.75,0.25,-0.48,-0.67,0.64,33.03,-1.0,11.1,1.25,1.25,2.25,2.5,6.0,4.5,1.5,6.75,5.5,5.5,6.75,4.75,4.75,0.08,0.14,0.95,810.41,-0.1,-25.6
2.94,0.75,0.75,2.75,0.25,4.75,1.75,0.25,1.0,0.5,2.0,1.25,0.0,1.25,-0.48,-0.48,0.27,76.77,2.7,13.7,2.0,1.25,2.25,2.5,6.0,5.0,2.0,7.0,5.5,5.5,6.75,4.0,3.5,0.08,0.14,0.95,769.41,-0.6,-20.0
2.96,1.0,1.0,3.0,0.25,4.5,1.75,0.25,0.5,0.5,2.25,1.0,0.0,0.5,-0.42,-0.36,0.2,121.56,4.8,23.3,2.0,1.25,2.25,2.75,6.0,5.5,2.0,7.0,5.5,4.25,5.5,3.5,3.25,0.08,0.14,0.95,738.2,-0.6,-15.1
2.98,0.25,1.0,1.5,0.0,2.25,0.0,0.0,0.0,0.25,0.5,0.0,0.0,0.25,-0.3,-0.3,0.45,112.62,9.8,44.0,2.0,1.25,3.5,4.0,6.5,5.75,2.0,6.75,5.5,4.25,5.0,2.25,2.25,0.08,0.14,0.95,725.0,-1.9,-5.3
3.0,0.0,0.75,3.75,0.25,3.75,1.75,1.0,1.0,0.25,1.0,0.75,0.0,1.25,-0.17,-0.3,0.83,135.36,5.5,19.7,2.75,1.5,4.5,4.5,7.75,6.0,2.0,6.5,5.5,3.0,4.25,2.25,1.5,0.08,0.14,0.95,737.92,-3.7,4.7
3.02,0.5,1.0,3.0,0.25,3.5,1.75,0.75,0.5,0.5,2.0,1.0,0.5,1.25,-0.23,-0.23,1.02,157.34,4.5,10.5,3.75,1.5,4.75,5.75,7.75,6.0,2.0,6.25,5.5,2.75,3.5,1.75,1.5,0.08,0.14,0.95,763.91,-4.8,10.7
3.04,0.5,1.0,3.0,0.5,3.0,1.75,1.0,1.0,0.5,2.0,1.0,0.75,1.25,-0.23,-0.11,1.08,197.89,4.6,6.7,5.0,1.75,5.0,6.75,9.0,6.5,2.0,6.25,5.0,2.75,3.0,1.5,1.5,0.08,0.14,0.95,812.88,-5.2,17.1
3.06,0.5,1.0,3.0,0.5,2.5,1.75,0.75,1.0,0.25,0.5,1.25,0.0,1.25,-0.3,0.08,1.2,215.08,6.6,18.8,5.75,2.25,5.75,8.25,9.0,6.75,2.0,5.5,4.5,2.75,3.0,1.0,0.75,0.08,0.14,0.95,869.47,-6.8,24.6
3.08,0.5,1.0,0.25,1.0,1.75,0.0,0.25,0.5,0.25,0.5,1.25,0.0,1.25,-0.36,0.27,1.33,198.63,4.2,4.1,6.75,2.5,6.5,10.0,10.5,7.0,2.0,5.5,3.75,2.75,2.5,0.75,1.5,0.08,0.14,0.95,956.7,-7.2,28.6
3.1,0.0,0.0,0.5,0.0,1.25,0.0,0.0,0.25,0.25,0.5,1.0,0.0,1.25,-0.36,0.45,1.7,153.1,-0.2,-31.1,7.0,1.75,7.5,12.0,11.5,7.25,1.5,4.25,2.5,2.0,2.25,0.75,1.0,0.08,0.14,0.95,1028.36,-8.5,35.5
3.12,0.5,1.0,2.0,1.75,3.0,1.75,0.5,1.0,0.5,2.0,1.25,0.5,1.25,-0.36,0.58,2.02,167.25,3.2,7.6,8.0,3.0,7.75,14.0,13.0,7.75,1.0,4.25,1.75,1.5,2.0,0.75,0.5,0.08,0.2,0.95,1127.89,-9.0,42.1
3.14,0.5,1.0,2.75,1.75,1.75,0.5,1.0,1.0,0.25,0.5,1.25,0.0,1.25,-0.61,1.08,2.83,172.17,10.5,18.3,8.75,3.0,8.5,0.0,14.5,7.75,0.25,3.0,1.25,1.5,2.0,0.75,0.75,0.02,0.2,1.02,1085.61,-7.4,41.1
3.16,0.0,0.0,2.5,0.0,0.75,0.0,0.25,0.25,0.25,0.5,0.0,0.0,0.25,-0.86,1.83,3.33,150.22,18.0,25.2,9.5,3.5,8.5,12.0,14.5,7.75,0.0,3.0,0.5,1.25,1.5,0.75,0.75,0.02,0.2,1.08,1137.07,-9.6,47.6
3.18,0.5,0.0,1.75,0.0,1.75,0.25,0.0,0.5,0.25,2.5,0.0,0.5,0.25,-0.98,3.14,3.52,130.79,3.4,-3.3,10.5,4.0,8.5,15.5,16.5,7.75,0.0,1.5,0.75,0.25,1.25,0.75,0.75,0.02,0.27,1.2,1206.52,-10.8,53.1
3.2,0.0,0.5,0.75,0.0,0.75,0.25,0.25,0.25,0.25,0.5,0.5,0.0,0.25,-0.67,5.08,1.95,96.43,5.7,8.0,9.75,2.25,8.5,13.5,16.5,7.25,0.0,1.5,0.5,1.0,0.0,0.75,0.75,0.14,0.33,1.27,1251.7,-10.3,52.6
3.22,0.5,1.0,2.25,0.75,2.5,1.75,0.75,1.0,0.5,1.75,1.0,0.5,1.25,2.58,7.95,-2.3,128.59,3.5,6.2,10.5,3.0,7.5,12.0,13.5,6.5,0.0,0.0,0.25,0.0,0.0,0.0,0.0,0.2,0.39,1.2,1183.58,-12.7,63.4
3.24,0.5,1.0,3.0,1.75,3.0,1.75,0.0,0.5,0.75,2.75,1.5,0.5,1.25,0.77,-0.17,1.02,169.66,4.7,6.5,11.5,3.75,7.5,11.5,11.5,6.75,0.0,0.0,0.75,0.0,0.5,0.0,0.25,0.2,0.45,1.39,1105.69,-13.4,61.9
3.26,0.5,1.0,2.75,0.5,3.0,1.75,0.75,1.5,0.75,3.0,1.5,0.5,0.5,-0.36,-0.11,2.02,221.01,3.2,3.8,10.5,3.0,7.5,10.0,11.0,6.0,0.0,0.75,0.75,0.75,0.75,0.75,0.5,0.27,0.58,2.45,1002.96,-12.6,54.1
3.28,0.5,1.0,2.0,1.5,2.5,1.75,0.5,2.5,0.75,3.25,2.25,0.75,3.0,0.52,1.14,0.52,261.95,0.0,-16.7,7.75,1.0,6.5,6.75,8.75,4.5,0.25,0.75,0.5,0.0,0.75,0.0,0.25,0.64,1.39,2.89,817.54,-13.2,56.4
3.3,0.5,1.0,2.5,1.0,2.25,1.75,0.0,3.0,0.75,3.25,2.25,0.5,4.5,0.14,0.33,1.83,292.53,-1.1,-23.5,7.0,0.5,2.0,4.5,6.0,4.5,0.0,0.0,0.5,0.5,0.0,0.0,0.0,0.45,1.58,3.33,595.6,-10.5,59.5
3.32,0.5,0.5,0.5,0.75,2.5,2.25,0.0,5.0,1.0,5.75,0.5,2.25,5.0,-1.67,0.95,3.14,332.72,-7.7,-41.3,3.5,0.0,0.0,2.5,3.75,2.0,0.0,0.0,0.25,0.0,0.0,0.0,0.0,0.33,0.52,3.27,352.12,-8.4,61.3
3.34,0.0,1.0,0.0,1.75,1.75,3.25,0.75,7.25,2.5,8.0,4.75,5.25,6.25,0.58,0.2,2.33,441.75,-5.4,-51.4,0.75,0.25,0.0,1.25,5.25,0.0,0.0,0.25,0.5,0.0,0.0,0.0,0.5,0.27,-0.61,2.2,199.37,-2.6,42.6
3.36,0.5,1.0,3.0,2.25,3.75,4.5,2.0,7.75,4.0,9.0,6.75,6.25,7.5,-0.17,0.2,1.02,639.8,-1.6,-39.5,0.5,1.0,0.0,2.5,3.25,2.25,0.0,0.0,0.5,0.25,0.75,0.25,0.75,0.58,0.33,2.39,89.95,-1.1,29.4
3.38,0.5,1.0,3.75,2.25,5.5,4.75,2.5,8.0,4.5,9.0,7.25,6.0,7.75,-0.05,0.14,0.95,865.56,-1.1,-35.0,1.5,0.5,0.5,1.5,3.75,2.25,0.25,0.75,0.5,1.0,0.75,0.75,0.5,0.64,-1.17,2.27,55.81,-1.9,20.3
3.4,0.0,1.0,3.75,2.25,4.75,5.25,2.75,8.0,4.5,9.0,7.0,6.0,7.5,-0.11,0.08,0.95,1029.15,-1.4,-36.1,1.75,0.75,0.5,2.25,3.5,2.25,0.25,0.75,0.5,1.25,0.75,0.75,0.75,0.27,-1.36,1.33,54.19,-2.8,20.4
3.42,0.0,1.0,3.0,2.25,6.0,5.25,3.0,8.25,4.5,9.0,6.75,6.0,7.75,-0.11,0.08,0.95,1113.27,-2.0,-35.3,1.0,0.25,0.0,2.25,3.5,2.25,0.25,0.5,0.75,1.0,0.75,0.75,0.75,0.27,-0.86,1.02,68.68,-0.5,14.0
3.44,0.0,1.0,4.25,2.25,6.5,5.25,2.75,8.5,4.5,9.0,6.75,6.0,7.75,-0.11,0.08,0.95,1148.87,-1.4,-32.7,1.5,1.0,0.5,2.0,3.5,1.75,0.25,0.5,0.75,0.75,0.5,0.75,0.75,0.27,-0.42,0.64,95.62,-4.0,24.2
3.46,0.0,1.0,3.75,2.0,5.5,5.25,2.75,8.5,4.5,9.0,6.75,6.0,7.25,-0.11,0.08,0.95,1131.63,-1.6,-34.8,1.5,0.75,0.5,1.5,3.5,1.75,0.25,0.75,0.5,1.0,0.75,0.75,0.75,0.27,-0.17,0.58,113.8,-2.7,18.3
3.48,0.5,1.0,3.5,2.25,5.75,5.5,2.25,8.25,4.5,8.75,6.25,5.25,7.0,-0.11,0.08,0.95,1105.72,-1.7,-31.6,1.5,0.75,0.5,1.25,3.5,1.5,0.25,0.75,0.75,0.75,0.75,0.75,0.5,0.14,-0.11,0.7,129.31,-3.7,20.3
3.5,0.5,1.0,4.0,2.5,6.25,5.25,2.5,8.25,4.75,8.0,6.25,5.25,6.75,-0.11,0.08,0.95,1072.94,-0.9,-28.9,1.25,0.75,0.5,1.25,3.5,1.25,0.25,0.5,0.5,1.0,0.75,0.75,0.75,0.08,0.02,0.89,148.84,-3.1,16.6
3.52,0.5,1.0,4.25,2.75,6.0,5.5,3.25,8.0,4.75,7.75,6.25,4.25,6.0,-0.11,0.08,0.95,1020.66,-0.4,-25.3,1.25,0.75,0.75,1.75,3.5,2.0,0.25,0.25,0.5,1.25,0.75,0.75,0.75,0.02,0.08,0.95,181.06,-3.0,19.1
3.54,0.5,1.0,4.75,3.75,6.0,5.25,3.25,8.0,5.0,6.75,5.75,3.75,5.75,-0.11,0.08,0.95,970.45,0.5,-21.0,1.25,0.5,0.5,1.25,3.5,1.5,0.25,0.25,0.5,1.0,0.75,0.75,0.75,0.08,0.08,1.14,195.36,-2.8,16.4
3.56,1.0,1.0,4.75,4.75,6.0,5.75,3.5,7.75,5.0,6.5,5.0,2.75,5.0,-0.11,0.08,0.95,920.07,1.0,-14.3,1.25,0.75,0.75,1.25,3.5,2.0,0.25,0.5,0.5,1.0,0.75,0.75,0.75,0.2,0.14,1.52,208.23,-2.4,18.3
3.58,1.0,1.25,5.0,4.75,6.0,6.0,3.75,7.75,5.0,5.25,4.5,2.25,4.25,-0.11,0.08,0.95,864.48,1.6,-9.1,1.25,0.75,0.5,1.75,3.5,1.25,0.25,0.25,0.5,0.75,0.75,0.75,0.75,0.27,0.33,1.58,204.71,-4.4,21.0
3.6,1.25,1.25,5.0,4.75,6.5,6.25,4.0,7.5,5.25,5.25,4.5,2.25,3.25,-0.11,0.08,0.95,832.33,2.1,-5.9,0.0,0.0,0.75,0.0,3.5,0.0,0.75,0.0,0.25,0.0,0.0,0.0,0.0,0.39,0.45,1.77,164.71,-5.6,48.6
3.62,1.25,1.25,5.0,5.5,6.75,6.5,4.0,7.25,5.5,5.0,4.0,1.75,3.25,-0.11,0.08,0.95,823.06,2.2,-2.6,0.0,0.0,0.0,0.0,2.25,0.0,0.0,0.0,0.0,0.0,0.0,0.0,0.0,0.52,0.52,2.45,109.7,3.3,53.5
3.64,1.25,1.75,5.0,5.75,7.5,6.75,4.0,7.0,5.5,4.5,4.0,1.5,3.0,-0.11,0.08,0.95,830.85,2.5,1.3,0.5,0.0,0.0,0.0,1.5,0.0,0.0,0.0,0.0,0.0,0.0,0.0,0.0,0.64,0.58,3.08,57.24,-4.8,62.9
3.66,2.0,1.75,5.75,6.5,7.5,6.75,4.5,7.0,5.5,4.25,3.25,1.0,2.5,-0.11,0.08,0.95,846.04,3.8,7.4,0.5,0.0,0.0,1.25,1.5,2.0,0.0,0.0,0.5,1.0,0.0,0.75,0.0,0.64,1.39,3.45,52.94,1.7,13.3
3.68,2.25,2.5,6.0,8.0,7.5,6.75,4.5,6.25,5.5,3.25,2.5,0.75,2.25,-0.11,0.08,0.95,866.96,5.1,14.9,0.25,0.75,0.0,2.0,3.25,1.0,0.0,0.0,0.75,1.25,0.0,0.75,0.0,0.45,6.58,2.7,78.16,-1.5,23.6
3.7,3.5,2.5,6.5,10.0,9.0,7.25,4.75,6.25,5.0,3.25,3.0,0.75,1.5,-0.11,0.08,0.95,929.42,6.2,20.8,0.25,0.0,1.25,0.25,3.5,1.0,0.0,0.75,1.25,0.0,1.0,0.25,0.5,-1.55,7.95,-1.42,112.23,-3.3,12.5
3.72,5.5,2.5,8.5,12.5,9.5,7.0,5.25,5.75,4.25,3.25,2.75,0.75,1.75,-0.11,0.14,0.95,1033.1,8.5,26.7,2.0,0.0,0.0,2.25,3.25,2.25,0.5,0.0,2.25,2.0,0.0,2.25,0.0,-1.23,6.95,4.02,165.38,-4.0,6.9
3.74,6.25,2.5,9.75,15.0,12.0,7.0,5.5,4.5,2.25,2.25,2.0,0.5,1.25,-0.11,0.14,0.95,1152.42,10.0,37.3,1.0,0.0,0.5,2.25,3.5,1.0,0.5,2.0,2.75,1.5,3.0,3.5,2.5,0.02,0.2,1.02,227.55,-2.8,-27.4
3.76,7.5,2.5,11.5,17.0,10.5,7.0,5.5,2.75,1.75,3.0,2.0,0.75,1.75,-0.11,0.14,1.2,1271.41,11.8,38.7,2.0,1.0,1.25,2.25,3.5,2.5,1.0,2.75,2.5,1.5,3.0,2.5,2.25,0.14,-0.36,1.33,289.94,-3.5,-9.0
3.78,7.75,4.0,11.0,15.5,9.75,6.0,3.25,2.5,1.25,3.0,0.0,0.75,1.25,-0.11,0.14,1.27,1301.78,12.3,45.2,1.75,0.0,0.75,2.5,3.5,2.0,1.25,2.5,2.5,1.25,3.0,2.25,1.5,-0.73,0.27,1.14,330.62,-3.8,-10.8
3.8,9.5,5.5,14.0,16.0,12.0,4.75,2.75,1.0,1.0,3.0,2.25,0.75,1.5,-0.11,0.2,1.27,1357.14,14.3,46.6,1.75,0.0,0.5,0.75,3.5,2.75,1.0,1.75,2.5,1.25,2.75,1.25,1.5,-0.05,-0.23,0.77,340.69,-1.5,-9.9
3.82,9.75,5.5,15.5,14.5,11.0,3.25,1.5,2.25,1.0,3.0,1.5,0.75,0.25,-0.11,0.27,1.39,1368.51,15.7,49.7,1.75,0.25,0.75,1.5,3.5,2.75,1.0,2.0,2.5,1.25,2.0,0.75,0.75,0.2,-0.36,0.64,333.61,-2.6,3.0
3.84,10.5,5.5,15.0,10.5,8.75,1.75,1.0,1.5,0.75,3.0,1.5,0.5,1.5,-0.23,0.33,1.58,1329.21,17.0,48.7,2.0,0.75,0.75,2.5,3.75,3.25,1.0,1.75,2.5,1.25,2.0,0.75,0.75,0.08,0.14,0.77,335.24,-3.4,10.4
3.86,9.75,5.75,12.5,8.0,7.0,1.75,2.0,1.0,0.75,2.75,0.75,0.75,1.25,-0.17,0.39,1.58,1188.34,17.3,49.9,3.0,1.0,1.75,2.25,4.5,3.75,1.0,1.5,2.75,0.0,2.0,0.75,0.75,0.33,-0.48,0.64,346.72,-6.5,22.4
3.88,9.0,5.5,11.0,6.5,6.0,1.75,3.0,1.5,0.75,2.75,2.0,0.5,1.25,-0.3,0.77,1.83,1025.26,16.6,45.1,3.75,0.75,0.0,2.5,3.25,4.5,1.25,1.5,3.25,1.25,2.0,1.25,1.25,0.33,-0.8,0.52,360.41,-3.6,8.9
3.9,7.5,3.75,9.75,4.5,5.25,1.75,3.0,1.25,0.5,0.5,1.5,0.0,1.25,-0.23,0.7,2.14,812.04,18.1,50.7,3.75,1.0,1.75,2.5,5.75,4.5,1.5,2.75,3.75,1.5,2.75,2.25,1.75,0.14,-0.36,0.77,412.01,-4.3,6.2
3.92,6.25,2.5,6.5,2.0,5.5,0.25,1.25,0.5,0.25,0.5,0.5,0.25,0.25,-0.05,1.08,2.39,576.66,19.2,58.6,3.0,1.5,1.75,2.75,6.0,5.5,1.5,3.0,4.0,2.25,3.0,3.5,2.25,0.27,-0.3,0.89,485.01,-2.7,-0.5
3.94,4.0,1.0,5.5,0.5,3.5,0.0,0.5,0.5,0.0,0.5,0.25,0.0,0.5,-0.17,1.64,2.2,358.33,20.1,54.9,4.75,1.5,1.75,4.5,6.25,6.0,2.0,3.0,4.5,2.75,3.75,5.25,3.75,0.27,-0.3,1.02,605.62,-3.9,-3.8
3.96,1.25,0.5,3.0,1.75,2.25,0.0,0.0,0.25,0.25,0.5,0.5,0.0,0.5,-0.3,1.27,1.08,209.79,15.8,40.0,6.0,1.5,2.25,4.5,6.75,6.25,2.5,3.5,5.0,3.0,4.25,5.75,5.0,0.2,-0.36,1.08,736.36,-4.3,-5.2
3.98,0.5,0.5,3.0,0.0,1.25,0.0,0.0,0.25,0.25,0.5,0.0,0.0,0.5,-0.86,1.64,2.7,71.26,17.1,35.4,6.0,1.75,2.25,4.75,7.75,7.0,3.5,4.25,5.0,2.75,4.5,6.25,5.75,0.14,-0.42,0.95,881.67,-3.8,-5.2
4.0,0.5,0.0,1.75,0.5,2.25,0.0,0.0,0.25,0.25,0.5,0.0,0.0,0.0,0.2,1.33,1.27,0.0,11.9,41.9,6.75,1.75,3.5,5.0,7.75,7.25,3.75,4.25,5.25,2.75,4.25,5.5,5.5,0.14,-0.36,1.02,1002.41,-4.9,-0.3
4.02,0.5,0.0,1.5,0.0,1.75,0.25,0.0,0.25,0.25,0.5,0.0,0.0,0.0,0.27,1.77,0.77,0.0,10.3,37.8,7.0,2.25,4.5,6.0,7.75,7.5,3.75,4.25,5.25,2.75,4.25,4.25,5.0,0.33,-0.36,1.14,1103.35,-5.8,5.9
4.04,0.25,0.0,0.0,0.0,1.75,0.0,0.0,0.25,0.25,0.5,0.0,0.0,0.25,-0.05,1.58,0.2,0.0,-3.1,13.0,7.25,2.25,4.75,6.75,9.0,7.5,4.25,4.25,4.75,1.5,3.0,2.25,2.5,0.2,1.14,0.95,1133.68,-7.1,21.2
4.06,1.0,0.0,0.5,0.0,0.0,0.0,0.0,0.0,0.25,0.5,0.0,0.0,0.0,-0.17,1.2,-0.36,0.0,21.6,34.3,7.75,2.25,6.0,8.25,9.0,7.5,4.25,3.25,3.75,1.5,2.25,1.5,1.75,0.2,0.7,1.27,1129.19,-8.9,30.4
4.08,0.25,0.5,1.0,0.75,1.75,0.0,0.0,0.5,0.25,0.5,0.0,0.0,0.25,-0.36,0.77,-0.55,0.0,7.2,32.0,8.0,2.75,6.5,8.5,10.5,6.75,4.0,3.0,3.0,1.25,2.0,1.0,1.5,0.64,-0.98,1.14,1109.24,-9.6,36.2
4.1,2.25,1.0,0.5,1.25,0.5,0.0,0.0,0.0,0.25,0.5,0.0,0.0,0.0,-0.17,0.27,-0.3,0.0,19.4,63.4,8.0,3.0,7.5,8.5,10.5,7.0,3.0,3.0,2.5,1.5,0.75,0.75,1.5,0.39,-1.3,1.08,1085.94,-9.6,40.2
4.12,0.5,1.0,1.5,0.0,2.25,0.0,0.0,0.25,0.25,0.5,0.0,0.0,0.0,0.14,0.08,-0.11,0.0,10.6,48.8,8.25,3.25,7.5,8.5,10.5,7.0,1.5,3.0,1.75,1.5,0.75,0.75,1.25,0.45,-0.3,2.08,1052.13,-9.5,42.6
4.14,0.5,1.0,0.75,0.0,0.0,0.0,0.0,0.0,0.25,0.5,0.0,0.0,0.0,0.27,-0.11,-0.23,22.57,17.9,48.8,8.75,3.0,6.75,8.25,9.0,6.0,0.25,2.0,1.25,1.0,1.25,0.75,0.75,0.45,-0.05,2.33,968.26,-11.0,46.4
4.16,0.75,0.75,1.25,0.0,1.75,0.25,0.0,0.0,0.25,0.5,0.0,0.0,0.0,0.14,-0.17,-0.48,54.02,11.5,50.7,8.0,2.25,6.5,6.75,7.75,4.5,0.25,1.75,1.25,1.25,1.0,0.75,0.75,0.52,0.27,2.2,846.64,-11.8,44.8
4.18,2.0,1.0,3.0,1.75,2.25,1.75,0.0,0.25,0.25,2.0,1.0,0.5,1.0,0.08,-0.36,-0.67,128.17,8.7,21.3,7.0,1.75,6.25,5.25,6.0,2.5,0.25,1.5,1.25,1.25,0.75,0.75,0.75,0.33,0.89,2.27,684.82,-13.7,43.5
4.2,0.5,1.0,1.75,0.0,0.0,0.0,0.25,0.25,0.25,0.5,0.25,0.0,0.0,0.08,-0.67,-0.36,132.52,20.5,39.8,5.5,1.75,4.75,3.75,3.5,2.25,0.25,1.5,0.75,1.0,0.75,0.75,0.75,0.52,1.58,2.77,512.9,-13.4,40.5
4.22,0.5,0.75,1.0,0.0,0.0,0.0,0.0,0.5,0.25,0.5,0.0,0.0,0.25,0.02,-0.73,0.02,125.87,12.9,23.8,1.5,0.0,2.0,1.25,3.5,0.5,0.25,1.5,0.75,0.0,0.75,0.25,0.75,0.7,0.2,2.2,323.67,-8.4,23.9
4.24,0.5,0.75,1.0,0.0,0.0,0.0,0.25,0.0,0.25,0.5,0.0,0.0,0.0,-0.11,-0.61,0.14,93.38,20.5,44.9,0.75,0.75,0.0,2.5,3.0,2.25,0.25,1.5,0.75,1.0,0.5,0.75,0.5,-0.17,0.7,1.27,219.54,0.2,14.9
4.26,0.5,0.75,1.25,0.25,0.0,0.0,0.0,0.5,0.25,0.5,0.25,0.0,0.0,-0.3,-0.36,0.27,77.77,16.1,30.6,2.0,1.25,0.75,2.0,3.5,2.25,0.25,1.5,0.75,1.0,0.5,0.75,0.5,0.02,1.45,0.95,153.67,-3.5,25.0
4.28,0.25,0.25,1.0,0.0,0.75,0.0,0.0,0.75,0.25,0.5,1.0,0.0,1.0,-0.11,-0.17,0.45,70.51,4.5,-17.8,2.0,0.75,0.5,1.25,3.5,2.0,0.25,1.5,0.75,1.25,0.25,0.75,0.5,0.45,1.2,2.14,123.38,-1.9,20.1
4.3,0.75,0.75,1.25,1.0,2.25,0.5,0.25,1.0,0.25,0.5,0.0,0.25,0.25,0.08,-0.23,0.77,98.74,6.8,32.5,1.5,1.0,0.75,2.25,3.25,2.0,0.25,1.25,0.75,1.0,0.75,0.75,0.75,0.39,0.45,2.02,119.76,-3.4,19.1
4.32,0.5,0.75,1.25,0.0,0.0,1.25,0.5,0.5,0.25,1.75,0.0,0.5,0.0,0.08,-0.42,0.77,107.62,3.9,4.5,1.5,1.0,0.5,2.0,3.5,2.25,0.25,1.5,0.75,1.0,0.75,0.75,0.75,0.33,0.02,1.95,129.41,-1.8,17.8
4.34,0.75,0.75,2.75,2.0,2.25,0.5,0.75,0.5,0.25,0.5,0.0,0.0,0.0,-0.11,-0.3,0.77,137.4,14.2,48.5,2.0,0.75,0.5,2.0,3.5,2.0,0.25,1.5,0.75,1.25,0.75,0.75,0.5,-0.05,-0.86,1.64,143.27,-2.9,19.1
4.36,1.25,1.0,1.25,2.0,0.0,1.75,0.0,0.0,0.25,2.0,0.0,0.5,0.0,-0.11,-0.23,0.89,149.8,7.7,25.7,1.25,0.5,0.75,1.5,3.5,2.25,0.25,1.5,0.75,1.0,0.75,0.75,0.5,-0.17,-1.23,1.27,152.57,-1.3,15.4
4.38,0.5,0.75,3.0,0.0,0.0,0.0,1.25,0.5,0.25,0.5,0.0,0.0,0.25,0.02,-0.36,1.02,145.03,22.8,36.0,1.5,1.0,0.75,2.25,3.25,2.25,0.25,1.5,0.75,1.0,0.75,0.75,0.75,-0.23,-1.42,1.08,177.28,-2.7,18.5
4.4,1.0,0.5,1.0,0.0,0.0,0.0,0.25,0.5,0.25,0.5,0.0,0.0,0.0,0.02,-0.55,1.02,113.7,18.0,36.8,1.5,0.75,1.0,1.5,3.5,2.0,0.25,1.5,0.75,1.25,0.75,0.75,0.75,-0.67,-2.11,0.45,197.14,-2.4,15.0
4.42,0.75,0.75,1.0,0.0,0.0,0.0,0.25,0.5,0.25,0.5,0.5,0.0,0.25,-0.05,-0.73,0.77,90.44,14.3,17.2,1.5,1.0,0.75,2.0,3.5,2.25,0.25,1.5,0.75,1.0,0.75,0.75,0.5,-0.8,-1.42,0.02,218.04,-2.6,20.4
4.44,0.5,0.75,1.0,0.0,0.0,0.25,0.0,0.25,0.25,0.5,0.0,0.0,0.25,0.08,-0.92,-1.11,79.15,12.6,28.6,1.75,0.75,0.75,2.0,3.5,2.25,0.25,1.5,0.75,1.0,1.0,0.75,0.5,1.39,1.2,-3.11,234.32,-3.0,18.9
4.46,0.75,0.5,0.5,0.0,0.0,1.75,0.0,0.0,0.25,0.5,0.25,0.0,0.25,1.58,4.08,-6.17,71.56,1.5,24.5,1.5,0.5,0.5,1.25,3.25,2.25,0.0,1.5,0.75,1.0,1.5,0.75,0.75,4.89,0.83,-5.48,239.76,-1.0,8.2
4.48,1.5,1.0,1.0,2.0,0.0,1.75,0.75,0.5,0.5,0.5,2.0,0.5,1.25,0.2,5.45,-7.86,110.12,8.5,5.5,0.75,0.5,0.25,2.5,3.5,2.25,0.0,1.5,0.5,0.0,1.25,0.75,0.5,3.02,-1.55,-2.55,229.33,-1.1,18.2
4.5,0.5,0.75,2.75,0.75,1.25,1.75,0.5,0.0,0.5,1.75,1.25,0.5,1.25,-0.86,3.89,-4.61,148.0,6.8,3.1,0.5,0.0,0.5,1.25,3.5,2.25,0.25,1.5,0.75,0.0,0.0,0.25,0.0,-0.11,-3.67,0.45,204.82,1.2,29.9
4.52,2.0,1.0,2.75,2.0,0.0,1.75,1.0,0.0,0.5,1.5,1.25,0.5,1.0,-1.98,1.33,-0.92,186.91,12.6,17.4,1.75,0.5,0.0,2.0,3.25,1.25,0.5,1.25,0.75,0.75,0.75,0.75,0.75,-3.73,-3.48,1.58,199.38,-3.3,15.6
4.54,2.0,1.0,2.5,2.0,2.25,1.75,0.75,0.0,0.25,1.25,1.5,0.5,1.5,-0.73,-4.23,0.45,220.21,9.3,19.2,2.0,0.5,0.75,1.25,3.25,1.5,0.25,1.5,0.5,1.0,0.75,0.75,0.5,-1.73,0.2,-1.48,196.74,-3.7,17.8
4.56,2.0,1.0,2.75,1.75,1.25,1.0,0.75,0.5,0.25,1.5,2.0,0.5,1.25,1.45,-5.3,1.64,240.95,11.1,12.2,1.25,0.5,0.5,1.75,3.25,1.0,0.25,1.25,0.75,0.75,0.75,0.75,0.5,-0.98,1.14,-2.11,197.33,-3.8,15.6
4.58,2.0,0.75,2.75,2.0,2.25,1.5,0.75,0.5,0.25,1.5,1.25,0.5,1.75,2.45,-3.17,1.33,254.81,8.7,14.9,1.25,0.75,0.5,1.25,3.5,0.25,0.25,1.5,0.5,1.0,0.75,0.75,0.5,0.02,1.08,-1.8,194.4,-3.8,13.6
4.6,1.75,1.0,2.75,1.75,2.25,1.75,0.75,0.5,0.25,2.0,2.0,0.5,1.25,1.89,-0.61,-1.17,268.71,7.9,12.1,1.25,0.75,0.5,1.75,3.25,1.5,0.25,1.5,0.75,0.75,0.75,0.75,0.25,0.77,0.77,-1.23,197.29,-3.0,19.0
4.62,1.25,1.0,2.75,0.0,2.25,0.0,0.75,0.5,0.25,0.5,1.75,0.0,1.25,1.39,0.7,-2.55,256.25,12.4,16.5,1.5,0.25,0.5,1.0,3.5,2.0,0.25,1.25,0.75,0.75,0.75,0.75,0.5,0.77,0.64,-0.8,196.33,-1.4,15.1
4.64,1.25,1.0,1.25,2.0,0.0,1.75,0.0,0.5,0.25,0.5,0.0,0.0,1.25,0.64,1.39,-2.61,227.46,7.2,27.0,1.25,0.5,0.5,1.75,3.25,2.0,0.25,1.5,0.5,1.0,0.75,0.75,0.5,0.33,0.58,-0.61,201.86,-1.3,15.2
4.66,0.0,0.5,0.75,0.0,1.75,0.0,0.0,0.25,0.25,0.5,0.25,0.0,0.25,-0.05,1.27,-1.98,171.32,4.0,21.4,1.25,0.25,0.5,1.25,3.25,1.25,0.25,1.0,0.5,0.75,0.75,0.75,0.5,-0.11,0.7,-0.55,197.09,-2.8,14.6
4.68,0.5,0.25,1.5,0.0,1.75,0.0,0.0,0.5,0.0,0.5,0.0,0.0,0.0,-0.23,1.02,-1.23,125.11,10.5,40.9,1.25,0.75,0.5,1.25,3.25,2.0,0.25,1.25,0.5,1.0,0.75,0.75,0.5,-0.23,0.7,-0.67,200.82,-1.2,16.1
4.7,0.5,0.75,1.0,0.25,1.75,0.0,0.0,0.25,0.25,0.5,0.5,0.0,0.0,-0.36,0.39,-0.23,89.39,9.8,35.6,0.5,1.0,0.5,1.25,3.25,1.25,0.25,1.25,0.5,1.0,0.75,0.75,0.5,-0.3,0.77,-0.67,197.29,-0.9,12.4
4.72,0.5,0.75,1.0,0.0,0.75,0.0,0.0,0.0,0.25,0.5,0.0,0.0,0.0,-0.05,0.33,-0.11,60.58,14.8,47.4,1.25,0.5,0.5,2.0,3.25,0.0,0.25,1.25,0.5,0.75,0.75,0.75,0.5,-0.23,0.77,-0.67,195.11,-5.9,16.2
4.74,0.5,0.25,3.0,0.25,2.25,0.0,0.75,0.5,0.25,0.5,0.0,0.0,0.25,0.2,0.52,-0.23,71.35,15.0,38.5,1.25,0.75,0.5,1.25,3.25,0.5,0.25,1.5,0.5,1.0,0.75,0.75,0.5,0.02,0.77,-0.8,192.79,-3.5,13.1
4.76,0.5,0.5,1.5,0.0,1.25,0.0,0.0,0.0,0.25,0.5,0.0,0.0,0.0,0.39,0.64,-0.36,63.04,15.3,46.8,0.5,0.0,0.5,0.0,3.25,0.0,0.5,1.5,0.0,0.0,0.75,0.0,0.5,0.14,0.64,-0.86,165.44,-0.9,14.9
4.78,0.5,0.0,0.75,0.0,1.75,0.0,0.0,0.25,0.25,0.5,0.0,0.0,0.0,0.52,0.77,-0.48,57.42,7.0,33.8,0.75,0.25,0.0,0.75,3.25,0.75,0.25,0.75,0.5,0.75,0.75,0.75,0.5,0.14,0.58,-0.92,153.4,-0.5,6.8
4.8,0.5,0.25,1.25,0.0,2.25,0.0,0.0,0.5,0.0,0.5,0.0,0.0,0.25,0.45,0.83,-0.61,57.04,6.8,34.6,1.25,0.25,0.5,1.25,3.25,0.75,0.25,1.0,0.5,0.5,0.75,0.75,0.5,-0.05,0.52,-0.86,151.29,-4.2,15.8
4.82,0.0,0.5,1.0,0.0,2.25,0.0,0.0,0.5,0.25,0.5,0.0,0.0,0.0,0.27,0.89,-0.67,61.17,4.4,34.5,0.75,0.25,0.5,0.5,3.25,0.75,0.25,1.0,0.5,0.5,0.75,0.75,0.5,-0.17,0.39,-0.92,151.64,-1.9,9.0
4.84,0.0,0.5,1.0,0.25,2.25,0.0,0.0,0.5,0.0,0.5,0.0,0.0,0.0,0.02,0.89,-0.73,68.61,4.7,39.0,0.5,0.0,0.5,0.0,3.25,1.25,0.5,1.25,0.5,0.0,0.75,0.25,0.0,-0.36,0.33,-0.92,143.79,0.0,19.7
4.86,0.0,0.5,1.25,0.0,1.75,0.0,0.0,0.25,0.25,0.5,0.0,0.0,0.0,-0.05,0.77,-0.73,76.45,8.2,37.4,1.25,0.75,0.5,1.25,3.25,0.0,0.25,0.75,0.5,1.0,0.75,0.75,0.5,-0.48,0.27,-0.92,152.17,-5.8,15.6
4.88,0.0,0.75,1.25,0.0,1.75,0.0,0.0,0.0,0.0,0.5,0.0,0.0,0.0,0.02,0.58,-0.73,79.46,9.6,49.1,1.25,0.75,0.5,1.25,3.25,0.5,0.25,0.75,0.5,0.75,0.75,0.75,0.5,-0.55,0.27,-0.98,159.77,-5.1,18.2
4.9,0.0,0.75,0.75,0.0,2.25,0.0,0.0,0.25,0.0,0.5,0.0,0.0,0.25,0.14,0.52,-0.67,81.28,2.9,36.3,1.25,0.5,0.5,1.25,3.25,1.0,0.25,0.75,0.5,1.0,0.75,0.75,0.5,-0.55,0.27,-0.92,171.67,-3.5,15.3
4.92,0.0,0.5,1.0,0.0,2.25,0.0,0.0,0.25,0.0,0.5,0.0,0.0,0.0,0.27,0.45,-0.73,79.62,5.1,41.9,0.0,0.0,0.25,0.0,3.25,0.0,0.25,0.0,0.0,0.0,0.0,0.0,0.0,-0.55,0.14,-1.11,140.88,-0.3,53.2
4.94,0.0,0.5,0.75,0.0,2.25,0.0,0.0,0.5,0.25,0.5,0.0,0.0,0.0,0.45,0.39,-0.73,80.68,2.7,33.2,0.25,0.0,0.0,0.0,0.5,0.0,0.0,0.0,0.0,0.0,0.0,0.0,0.0,-0.42,0.27,-1.11,92.81,-7.7,66.2
4.96,0.0,0.75,1.0,0.0,1.75,0.0,0.0,0.5,0.25,0.5,0.5,0.0,0.25,0.52,0.39,-0.73,84.99,5.3,19.9,0.0,0.0,0.0,0.25,0.25,0.0,0.0,0.0,0.0,0.0,0.0,0.0,0.0,-0.36,0.33,-1.05,38.41,-6.4,55.5
4.98,0.0,0.5,0.5,0.0,1.75,0.0,0.0,0.25,0.0,0.5,0.0,0.0,0.0,0.45,0.33,-0.8,76.82,1.9,37.6,0.25,0.0,0.0,0.25,1.25,0.0,0.0,0.0,0.0,0.0,0.0,0.0,0.0,-0.3,0.39,-0.92,10.73,-4.0,59.4
5.0,0.0,0.75,0.75,0.0,1.75,0.0,0.0,0.0,0.25,0.5,0.0,0.0,0.0,0.45,0.27,-0.92,76.3,6.4,42.7,0.0,0.0,0.0,0.0,0.25,0.0,0.0,0.0,0.0,0.0,0.0,0.0,0.0,-0.3,0.39,-0.92,0.0,3.3,53.4
5.02,0.25,0.25,0.5,0.0,2.25,0.0,0.25,0.25,0.0,0.5,0.0,0.0,0.0,0.45,0.27,-0.98,72.3,3.2,39.0,0.0,0.0,0.0,0.0,0.25,0.0,0.0,0.0,0.0,0.0,0.0,0.0,0.0,-0.36,0.52,-0.92,0.0,3.3,53.4
5.04,0.0,0.5,0.75,0.0,2.25,0.0,0.0,0.25,0.0,0.5,0.0,0.0,0.0,0.45,0.2,-0.98,71.98,3.3,40.9,0.0,0.0,0.0,0.0,1.0,0.0,0.0,0.0,0.0,0.0,0.0,0.0,0.0,-0.42,0.45,-0.92,0.0,3.3,53.4
5.06,0.0,0.5,0.75,0.0,2.25,0.0,0.0,0.25,0.0,0.5,0.0,0.0,0.0,0.39,0.39,-0.92,73.37,3.3,40.9,0.0,0.0,0.0,0.0,0.25,0.0,0.0,0.0,0.0,0.0,0.0,0.0,0.0,-0.36,0.45,-0.92,0.0,3.3,53.4
5.08,0.0,0.0,0.75,0.0,2.25,0.0,0.0,0.5,0.0,0.75,0.0,0.0,0.25,0.33,0.58,-0.86,75.88,-0.5,16.8,0.0,0.0,0.0,0.0,0.5,0.0,0.0,0.0,0.0,0.0,0.0,0.0,0.0,-0.23,0.45,-0.92,0.0,3.3,53.4
5.1,0.0,0.5,0.75,0.0,2.25,0.0,0.0,0.25,0.0,0.5,0.0,0.0,0.0,0.33,0.58,-0.73,76.88,3.3,40.9,0.0,0.25,0.0,0.0,0.0,0.0,0.0,0.0,0.0,0.0,0.0,0.0,0.0,-0.17,0.39,-0.92,0.0,-12.6,98.9
5.12,0.0,0.25,1.0,0.0,2.25,0.0,0.0,0.25,0.0,0.5,0.0,0.0,0.0,0.39,0.58,-0.67,76.63,4.7,38.8,0.0,0.0,0.0,0.0,1.25,0.0,0.0,0.0,0.0,0.0,0.0,0.0,0.0,-0.17,0.45,-0.98,0.0,3.2,53.5
5.14,0.0,0.0,0.25,0.0,2.25,0.0,0.0,0.25,0.0,0.5,0.0,0.0,0.0,0.45,0.52,-0.61,70.29,-2.9,29.7,0.0,0.0,0.0,0.0,0.5,0.0,0.0,0.0,0.0,0.0,0.0,0.0,0.0,-0.17,0.39,-0.98,0.0,3.3,53.4
5.16,0.0,0.5,1.0,0.0,0.0,0.0,0.0,0.25,0.0,0.5,0.0,0.0,0.0,0.45,0.39,-0.55,57.54,14.7,28.9,0.25,0.0,0.0,0.0,0.0,0.0,0.0,0.0,0.0,0.0,0.0,0.0,0.0,-0.23,0.33,-0.98,7.4,-34.9,97.9
5.18,0.0,0.5,0.75,0.0,1.25,0.0,0.0,0.75,0.0,0.5,0.0,0.0,0.0,0.39,0.27,-0.48,54.95,2.7,27.2,1.25,0.5,0.0,1.25,0.0,1.25,0.0,0.0,0.5,0.0,0.0,0.75,0.0,-0.3,0.33,-0.92,37.59,-10.2,33.3
5.2,0.0,0.5,1.0,0.0,2.25,0.0,0.25,0.25,0.0,0.5,0.0,0.0,0.0,0.33,0.08,-0.42,61.59,5.8,41.6,1.0,0.75,0.5,0.5,3.25,1.25,0.25,0.5,0.5,0.0,0.75,0.75,0.5,-0.36,0.39,-0.98,91.09,-3.7,22.5
5.22,0.25,0.5,0.5,0.0,1.75,0.0,0.25,0.25,0.0,0.5,0.0,0.0,0.0,0.39,0.27,-0.61,67.33,4.6,40.7,1.25,0.75,0.5,1.25,3.25,1.25,0.25,0.25,0.5,0.75,0.75,0.75,0.5,-0.36,0.52,-1.11,145.05,-4.4,21.4
5.24,0.0,0.25,0.5,0.0,1.75,0.0,0.25,0.0,0.0,0.5,0.0,0.0,0.0,0.33,0.52,-0.73,65.61,3.5,38.2,0.5,0.25,0.5,0.5,3.25,1.25,0.25,0.25,0.5,0.0,0.75,0.75,0.25,-0.3,0.45,-1.05,170.75,-2.7,19.7
5.26,0.0,0.25,0.75,0.0,1.75,0.0,0.0,0.25,0.25,2.0,0.0,0.5,0.0,0.2,0.52,-0.73,74.27,-0.3,-7.2,0.75,0.5,0.5,0.75,3.25,1.5,0.25,0.25,0.5,0.5,0.75,0.75,0.5,-0.36,0.45,-0.98,187.15,-2.2,17.1
5.28,0.5,1.0,1.0,2.0,1.75,1.75,0.0,0.25,0.5,1.5,0.5,0.5,1.25,0.2,0.58,-0.73,116.86,2.3,9.5,0.75,0.0,0.0,0.0,2.75,0.5,0.25,0.0,0.5,0.0,0.0,0.25,0.0,-0.3,0.64,-1.23,164.01,-2.9,40.6
5.3,0.0,0.5,3.0,0.0,2.25,0.0,0.0,0.25,0.25,0.5,0.0,0.0,0.0,0.14,0.58,-0.73,130.54,14.8,44.6,1.25,0.75,0.0,1.25,1.5,1.5,0.25,0.25,0.5,1.0,0.75,0.75,0.25,-0.11,0.64,-1.23,163.43,-3.5,14.1
5.32,0.0,0.25,3.0,0.0,2.25,0.0,0.75,0.75,0.0,0.5,0.0,0.0,0.0,0.27,0.39,-0.73,142.34,13.7,39.1,1.0,0.75,0.5,1.0,3.25,1.25,0.25,0.25,0.5,1.0,0.75,0.75,0.5,-0.11,0.58,-1.05,170.63,-3.1,17.1
5.34,0.0,0.0,0.75,0.0,1.75,0.0,0.0,0.5,0.0,0.5,0.25,0.0,0.75,0.45,0.52,-0.92,123.97,-0.2,-0.9,0.75,0.75,0.5,0.75,3.25,1.5,0.25,0.5,0.5,1.25,0.75,0.75,0.5,-0.17,0.58,-0.98,187.52,-0.9,12.0
5.36,0.75,1.0,2.75,2.0,2.5,0.25,0.25,0.5,0.25,0.5,0.0,0.75,1.0,0.39,0.58,-0.98,149.67,11.6,28.5,0.5,0.0,0.5,0.0,3.25,0.0,0.5,0.5,0.0,0.0,0.0,0.25,0.0,-0.17,0.7,-1.36,167.28,-4.3,41.5
5.38,0.0,0.5,2.75,0.0,2.5,0.0,1.25,0.5,0.25,0.5,1.0,0.0,1.25,0.27,0.45,-0.86,156.55,10.0,11.0,0.0,0.0,0.0,0.0,0.25,0.0,0.0,0.0,0.0,0.0,0.0,0.0,0.0,-0.11,0.83,-1.3,116.28,3.3,53.4
5.4,0.0,0.0,0.5,0.0,2.25,0.0,0.0,0.25,0.0,0.5,0.0,0.0,0.0,0.27,0.45,-0.86,141.85,-0.2,31.8,0.0,0.0,0.0,0.0,0.0,0.0,0.0,0.0,0.0,0.0,0.0,0.0,0.0,-0.11,0.7,-1.05,54.35,0.0,0.0
5.42,0.0,0.75,0.5,0.0,2.25,0.0,0.0,1.0,0.0,0.5,0.75,0.0,0.0,0.33,0.58,-0.86,123.83,0.6,18.9,1.25,0.0,0.0,1.25,0.0,0.0,0.0,0.0,0.0,0.0,0.0,0.0,0.0,-0.23,0.52,-0.8,16.27,-25.5,76.7
5.44,0.0,0.0,0.75,0.5,2.25,0.0,0.0,0.5,0.0,0.5,0.0,0.0,1.0,0.39,0.77,-0.92,105.13,0.0,7.8,0.0,0.25,0.0,0.0,0.25,0.0,0.0,0.0,0.0,0.0,0.0,0.0,0.0,-0.48,0.52,-0.8,0.0,-4.1,74.8
5.46,0.0,0.25,1.0,0.0,1.75,0.0,0.0,0.25,0.25,0.5,0.0,0.0,0.0,0.33,0.77,-0.92,87.09,6.2,32.4,0.75,0.5,0.0,1.25,0.0,0.0,0.0,0.0,0.5,0.75,0.0,0.75,0.0,-0.67,0.58,-0.73,9.63,-12.0,8.3
5.48,0.0,1.0,0.75,0.0,2.25,0.0,0.0,0.5,0.0,0.5,0.0,0.0,0.0,0.2,0.77,-0.86,80.03,3.2,42.7,0.0,0.25,0.75,0.0,3.25,0.0,0.25,0.0,0.0,0.0,0.75,0.0,0.5,-0.61,0.52,-0.67,38.69,-4.0,26.9
5.5,0.0,0.25,0.5,0.0,2.25,0.0,0.0,0.5,0.25,0.5,0.0,0.0,0.0,0.14,0.64,-0.86,72.99,0.2,28.0,0.75,0.75,0.5,1.25,3.25,0.0,0.25,0.0,0.5,0.5,0.75,0.75,0.5,-0.36,0.45,-0.61,84.79,-7.2,20.3
5.52,0.0,0.25,0.5,0.0,2.25,0.0,0.0,0.5,0.0,0.5,0.25,0.0,0.0,0.14,0.7,-0.92,66.48,0.1,26.1,0.75,0.75,0.75,1.25,3.25,0.0,0.25,0.0,0.5,0.75,1.5,0.75,0.5,-0.23,0.45,-0.48,125.92,-7.6,13.0
5.54,0.0,0.25,0.5,0.0,2.25,0.0,0.0,0.5,0.0,0.5,0.0,0.0,0.0,0.2,0.77,-0.92,65.57,-0.4,31.7,1.5,0.5,0.5,1.25,3.25,0.0,0.25,0.0,0.5,0.75,0.75,0.75,0.0,-0.3,0.45,-0.3,150.51,-9.4,27.8
5.56,0.0,0.5,0.5,0.0,2.25,0.0,0.0,0.5,0.25,0.5,0.0,0.0,0.0,0.2,0.77,-0.86,66.72,0.8,31.7,0.5,1.0,0.5,1.25,3.25,0.0,0.25,0.0,0.5,1.0,0.75,0.75,0.5,-0.42,0.52,-0.05,166.16,-5.6,16.0
5.58,0.0,0.5,1.0,0.0,2.25,0.0,0.0,0.5,0.25,0.5,0.0,0.0,0.0,0.14,0.7,-0.8,70.65,4.4,34.5,0.75,0.75,0.75,1.25,3.25,0.0,0.25,0.0,0.5,0.75,0.75,0.75,0.5,-0.55,0.64,0.08,176.44,-7.4,19.0
5.6,0.0,0.0,0.75,0.25,2.25,0.0,0.0,0.25,0.0,0.5,0.0,0.0,0.0,0.08,0.64,-0.67,67.06,3.0,35.1,1.25,0.5,0.5,1.25,3.25,0.0,0.25,0.0,0.5,1.0,0.75,0.75,0.5,-0.8,0.7,0.08,185.78,-7.2,17.4
5.62,0.0,0.5,0.5,0.0,2.25,0.0,0.0,0.25,0.0,0.5,0.0,0.0,0.0,0.08,0.58,-0.61,72.37,1.2,39.7,1.0,0.5,0.5,1.25,3.25,0.0,0.25,0.0,0.5,1.0,0.75,0.75,0.5,-0.86,0.83,0.2,187.99,-6.6,15.6
5.64,0.0,0.25,0.5,0.0,2.25,0.0,0.0,0.25,0.0,1.0,0.0,0.5,0.0,0.14,0.58,-0.73,77.06,-0.2,11.0,1.25,0.0,0.75,1.0,3.25,0.0,0.25,0.25,0.0,0.0,0.75,0.0,0.5,-0.98,0.89,0.33,176.18,-9.1,36.5
5.66,0.0,0.0,2.75,0.0,2.25,1.5,0.75,0.5,0.25,2.0,1.0,0.0,1.25,0.02,0.58,-0.8,112.45,2.8,-1.9,0.5,0.0,0.0,0.0,0.0,0.0,0.25,0.0,0.0,0.0,0.0,0.0,0.0,-0.92,0.89,0.52,123.1,-34.4,83.5
5.68,0.0,0.0,2.75,0.25,2.5,1.25,0.75,0.5,0.25,1.75,0.0,0.5,0.25,0.08,0.64,-0.8,140.6,5.1,13.8,0.25,0.0,0.0,0.0,0.5,0.0,0.25,0.0,0.0,0.0,0.0,0.0,0.0,-0.73,0.83,0.52,72.76,-10.8,61.2
5.7,0.0,0.5,2.75,0.0,2.5,0.0,0.0,0.25,0.0,0.5,0.0,0.0,0.0,0.08,0.64,-0.86,149.36,13.3,47.3,0.0,0.0,0.0,0.25,0.25,0.0,0.25,0.0,0.25,0.25,0.0,0.0,0.0,-0.55,0.7,0.52,24.38,-5.5,4.7
5.72,0.0,0.25,2.75,0.25,2.25,0.0,0.75,0.5,0.0,0.75,1.0,0.0,1.25,0.08,0.64,-0.86,154.94,9.3,7.3,0.75,0.5,0.0,1.25,1.5,0.5,0.25,0.0,0.5,0.75,0.0,0.75,0.0,-0.36,0.64,0.45,32.38,-6.1,21.9
5.74,0.0,0.25,0.5,0.0,2.25,0.0,0.0,0.25,0.0,0.5,0.0,0.0,0.0,0.14,0.58,-0.8,130.07,0.5,36.0,0.5,0.0,0.0,0.0,1.0,0.0,0.25,0.0,0.25,0.0,0.0,0.0,0.0,-0.3,0.64,0.39,22.97,-9.7,50.9
5.76,0.0,0.5,0.75,0.0,2.25,0.0,0.0,0.25,0.0,0.5,0.0,0.0,0.0,0.27,0.45,-0.73,108.93,3.3,40.9,0.5,0.0,0.0,0.0,1.25,0.0,0.25,0.0,0.0,0.0,0.0,0.0,0.0,-0.3,0.7,0.33,26.35,-7.5,62.1
5.78,0.0,0.25,0.5,0.0,2.25,0.0,0.5,0.5,0.0,0.5,0.75,0.0,0.25,0.33,0.45,-0.73,92.64,1.8,11.1,0.5,0.0,0.0,0.0,1.0,0.0,0.25,0.0,0.0,0.0,0.0,0.0,0.0,-0.36,0.77,0.2,16.39,-9.3,63.5
5.8,0.0,0.0,0.5,0.0,2.25,0.0,0.0,0.25,0.25,1.75,0.0,0.5,0.0,0.27,0.45,-0.73,89.26,-2.2,-6.0,0.0,0.5,0.0,1.25,1.0,0.75,0.25,0.0,0.5,0.75,0.0,0.75,0.0,-0.55,0.77,-0.05,33.03,-2.3,10.1
5.82,0.5,1.0,0.5,2.0,1.75,1.0,0.0,0.0,0.25,2.0,0.0,0.0,0.25,0.2,0.45,-0.73,107.53,2.5,26.3,0.75,0.5,0.5,1.25,3.25,0.75,0.5,0.5,0.5,1.25,0.25,0.75,0.25,-0.92,0.7,-0.11,79.71,-3.2,17.5
5.84,0.0,0.25,0.5,0.0,2.25,0.0,0.0,0.25,0.0,0.5,0.0,0.0,0.0,0.14,0.39,-0.8,99.38,0.5,36.0,0.75,0.75,0.75,1.25,3.25,0.0,0.25,0.0,0.5,0.5,0.75,0.75,0.25,-1.17,0.7,-0.3,122.65,-8.5,24.6
5.86,0.5,0.0,0.75,2.0,1.75,1.25,0.75,0.5,0.0,0.5,1.25,0.5,1.25,0.02,0.39,-0.86,122.16,3.9,2.5,0.75,0.75,0.5,1.25,3.25,0.0,0.25,0.0,0.5,1.0,0.25,0.75,0.5,-1.3,0.7,-0.55,155.04,-5.9,20.2
5.88,0.25,1.0,2.75,0.75,2.25,1.25,0.75,0.5,0.25,2.0,0.75,0.5,0.0,-0.05,0.52,-1.05,145.16,7.2,18.7,1.25,0.5,0.75,1.25,3.25,0.5,0.25,0.0,0.5,0.75,0.75,0.75,0.5,-1.23,0.7,-0.8,176.8,-7.2,21.1
5.9,0.5,0.75,2.75,1.75,2.25,1.5,0.75,0.5,0.0,2.0,1.0,0.5,1.25,-0.05,0.64,-1.05,183.32,6.0,10.2,1.75,0.5,0.75,1.25,3.25,0.75,0.25,0.0,0.5,1.0,0.75,0.75,0.5,-1.11,0.7,-0.8,194.59,-7.2,22.3
5.92,0.0,0.0,2.75,0.0,2.5,0.0,0.0,0.0,0.0,0.5,0.0,0.5,0.0,0.02,0.52,-0.98,174.87,14.1,34.9,0.75,0.75,0.75,1.25,3.25,0.25,0.25,0.0,0.5,1.0,0.75,0.75,0.5,-0.92,0.7,-0.67,195.16,-6.2,17.2
5.94,0.5,1.0,2.75,1.5,2.25,1.75,0.75,0.5,0.25,2.0,0.75,0.5,1.25,0.14,0.45,-0.98,202.37,5.5,11.8,1.0,0.75,0.75,1.25,3.25,1.0,0.25,0.0,0.5,1.0,0.75,0.75,1.0,-0.61,0.7,-0.61,200.95,-4.3,14.5
5.96,0.5,0.75,2.75,1.75,2.5,1.75,0.75,0.5,0.25,2.0,1.0,0.5,1.25,0.2,0.52,-0.98,215.98,5.5,10.6,1.0,0.75,0.75,1.25,3.25,1.0,0.25,0.0,0.5,0.25,0.75,0.75,0.5,-0.36,0.7,-0.48,198.08,-6.5,26.1
5.98,0.5,1.0,2.75,2.0,2.25,1.75,0.75,0.5,0.25,1.75,1.0,0.5,1.25,0.27,0.52,-0.98,238.74,6.3,13.3,0.75,0.5,0.5,1.0,3.25,0.5,0.25,0.0,0.5,1.0,0.75,0.75,0.5,-0.05,0.7,-0.36,194.25,-4.4,13.6
6.0,0.5,1.0,3.0,1.5,2.25,1.75,0.75,0.5,0.25,1.75,1.0,0.5,1.25,0.33,0.33,-0.98,246.39,6.5,12.6,1.25,0.75,0.75,1.0,3.25,1.0,0.25,0.0,0.5,0.5,0.75,0.75,0.5,0.14,0.7,-0.3,189.15,-6.3,24.6
6.02,0.5,1.0,2.75,1.75,2.25,1.75,0.75,0.5,0.25,2.0,1.0,0.5,1.25,0.39,0.33,-1.17,252.75,5.8,11.2,0.75,0.75,0.5,1.0,3.25,0.0,0.5,0.0,0.5,0.75,0.75,0.75,0.5,0.33,0.83,-0.36,178.24,-6.7,17.1
6.04,0.5,1.0,2.75,1.75,2.25,1.75,0.5,0.5,0.25,2.0,0.75,0.5,2.25,0.77,0.58,-1.3,252.43,4.3,5.0,0.75,0.75,0.75,1.25,3.25,0.5,0.25,0.0,0.5,1.0,0.75,0.75,0.5,0.52,1.02,-0.48,172.41,-5.6,17.6
6.06,0.0,0.0,3.0,0.0,2.25,0.0,0.75,0.5,0.0,1.75,0.75,0.5,1.0,0.7,0.52,-0.8,224.15,7.9,-3.4,1.75,0.5,0.5,1.25,3.25,0.75,0.25,0.0,0.5,0.75,0.75,0.75,0.5,0.45,1.14,-0.67,170.84,-7.0,23.5
6.08,0.25,0.0,1.0,0.0,2.25,0.0,0.0,0.0,0.0,0.5,0.0,0.0,0.0,0.52,0.39,-0.55,174.63,7.1,42.8,2.0,0.75,0.75,0.75,3.25,1.0,0.25,0.0,0.5,0.5,0.75,0.75,0.5,0.27,1.27,-0.86,177.4,-7.7,28.2
6.1,0.0,0.5,0.5,0.0,2.25,0.0,0.0,0.0,0.0,0.5,0.0,0.0,0.0,0.14,0.27,-0.67,115.06,2.3,44.4,1.0,0.75,0.75,1.5,3.25,1.0,0.25,0.0,0.5,1.25,0.75,0.75,0.5,0.02,1.45,-0.92,182.36,-4.9,18.7
6.12,0.0,0.5,0.75,0.0,2.25,0.0,0.0,0.0,0.25,1.75,0.0,0.0,0.0,0.08,0.33,-0.73,80.03,0.5,16.2,0.0,0.75,0.75,2.5,3.25,1.25,0.25,0.0,0.5,0.5,0.75,0.75,0.0,-0.17,1.52,-0.98,182.85,-5.2,27.9
6.14,0.0,0.0,0.5,1.25,1.75,1.5,0.0,0.0,0.0,0.5,0.0,0.0,0.0,0.08,0.39,-0.8,65.48,-0.8,39.2,1.0,0.75,0.75,1.25,3.25,1.0,0.25,0.0,0.5,0.5,0.75,0.75,0.5,-0.3,1.45,-0.86,181.62,-6.0,23.9
6.16,0.5,1.0,2.75,0.0,1.75,0.0,0.75,0.5,0.0,0.5,1.0,0.0,1.25,-0.11,0.39,-0.98,88.39,11.9,16.7,1.25,1.0,1.0,1.25,3.25,1.0,0.25,0.0,0.5,1.25,0.75,0.75,0.5,-0.55,1.33,-0.55,186.5,-6.0,21.7
6.18,0.5,0.75,2.75,1.75,2.25,1.0,0.75,0.5,0.0,1.0,1.0,0.25,1.25,-0.23,0.39,-0.98,123.1,8.5,17.7,0.75,0.75,1.0,1.25,3.25,0.75,0.25,0.0,0.5,0.75,0.75,0.75,0.5,-0.67,1.14,-0.3,184.22,-6.2,20.9
6.2,0.25,1.0,0.25,2.0,2.25,0.75,0.75,0.5,0.0,0.5,1.0,0.0,1.25,-0.48,0.27,-0.98,142.84,2.8,15.5,1.0,0.75,1.0,1.25,3.25,1.0,0.25,0.25,0.5,1.0,0.75,0.75,0.5,-0.55,0.95,-0.42,188.03,-5.3,19.5
6.22,0.5,1.0,0.5,1.75,2.25,1.5,0.0,0.5,0.25,2.0,1.0,0.5,1.25,-0.42,0.14,-1.05,166.04,0.0,1.7,1.0,0.75,0.75,1.25,3.25,0.75,0.25,0.0,0.5,1.0,1.25,0.75,0.5,-0.55,0.89,-0.48,187.58,-5.8,15.8
6.24,0.5,0.75,2.75,2.0,2.5,1.75,0.75,0.5,0.25,1.75,1.25,0.5,1.0,-0.48,0.14,-1.05,193.81,6.4,13.3,1.25,0.75,1.0,1.5,3.25,0.75,0.5,0.0,0.5,1.0,0.75,0.75,1.0,-0.55,0.83,-0.36,191.82,-6.5,17.5
6.26,0.0,0.75,3.0,2.0,2.25,1.5,0.75,0.5,0.25,1.75,1.0,0.5,1.25,-0.42,0.14,-0.98,215.14,6.3,9.8,0.75,0.25,0.75,1.25,3.25,1.0,0.5,0.0,0.5,0.75,0.75,0.75,0.5,-0.42,0.77,-0.23,185.46,-4.9,16.7
6.28,0.0,0.5,2.75,1.75,2.25,0.75,0.0,0.0,0.25,1.75,0.0,0.5,0.0,-0.36,0.2,-0.92,213.01,9.2,27.0,0.75,0.75,0.5,1.25,3.25,1.0,0.25,0.0,0.5,1.0,0.75,0.75,0.5,-0.3,0.77,-0.3,181.18,-3.7,17.3
6.3,0.5,1.0,2.75,2.0,2.25,1.0,0.75,0.0,0.25,2.0,0.0,0.5,0.0,-0.36,0.27,-0.73,218.52,10.0,31.1,0.5,0.75,0.75,1.5,3.25,0.5,0.25,0.0,0.5,1.0,0.25,0.75,0.0,0.02,0.83,-0.48,171.07,-6.0,27.4
6.32,0.75,1.0,2.75,2.0,2.25,1.0,0.75,0.5,0.25,1.75,1.0,0.5,1.25,-0.17,0.33,-0.67,225.75,8.0,13.6,1.0,0.5,0.5,1.25,3.25,1.25,0.25,0.0,0.5,0.75,0.75,0.75,0.25,0.08,0.83,-0.48,168.44,-4.5,22.4
6.34,0.0,0.5,3.0,1.75,2.5,1.25,0.75,0.5,0.25,2.0,1.0,0.5,1.25,0.02,0.33,-0.55,228.77,5.9,6.5,1.25,0.25,0.5,0.5,3.25,0.0,0.5,0.0,0.0,0.0,0.0,0.0,0.0,0.14,0.83,-0.36,145.28,-10.5,63.3
6.36,0.5,0.5,3.0,1.25,2.25,0.5,0.75,0.0,0.0,0.5,0.0,0.0,0.0,0.2,0.45,-0.55,208.76,15.8,52.4,0.5,0.0,0.0,0.0,0.5,0.0,0.25,0.0,0.0,0.0,0.0,0.25,0.0,0.27,0.83,-0.3,98.65,-14.5,37.2
6.38,0.5,1.0,3.0,2.0,2.25,1.0,0.75,0.5,0.25,2.0,0.75,0.5,1.25,0.39,0.58,-0.55,213.46,7.7,13.1,0.5,0.0,0.0,0.0,1.0,0.0,0.25,0.0,0.25,0.0,0.0,0.0,0.0,0.33,0.77,-0.36,54.46,-9.7,50.9
6.4,0.25,1.0,3.0,2.0,2.25,1.75,0.75,0.5,0.25,1.75,1.0,0.5,1.25,0.64,0.64,-0.55,215.23,6.4,12.8,0.75,0.0,0.0,0.75,2.5,0.0,0.5,0.0,0.0,0.0,0.0,0.0,0.0,0.27,0.77,-0.48,36.68,-7.8,59.6
6.42,0.25,0.75,3.0,1.5,2.25,1.25,0.75,0.5,0.25,1.75,1.0,0.5,1.25,0.77,0.64,-0.55,219.77,6.8,9.1,0.0,0.0,0.0,0.0,0.25,0.0,0.25,0.0,0.0,0.0,0.0,0.0,0.0,0.14,0.77,-0.42,11.26,-7.1,45.8
6.44,0.0,0.25,3.0,1.75,2.25,1.25,0.75,0.5,0.25,1.75,0.75,0.5,0.0,0.89,0.64,-0.67,215.08,8.3,18.3,0.0,0.0,0.0,0.0,0.0,0.0,0.25,0.0,0.5,1.0,0.0,0.75,0.0,0.08,0.77,-0.36,7.36,-0.3,-73.4
6.46,0.25,0.5,1.25,0.0,2.25,0.25,0.25,0.0,0.25,1.75,0.0,0.5,1.25,0.83,0.64,-0.92,186.19,1.8,-3.9,1.25,0.75,0.0,1.25,0.0,1.0,0.25,0.0,0.5,1.0,0.75,0.75,0.0,0.02,0.83,-0.36,32.03,-8.2,9.7
6.48,0.5,0.75,3.0,2.0,2.25,1.5,1.0,0.5,0.25,2.25,1.0,0.5,1.25,0.7,0.52,-1.05,192.79,6.6,9.8,0.5,0.0,0.5,0.0,3.25,0.0,0.25,0.0,0.0,0.0,0.25,0.0,0.0,-0.11,0.95,-0.3,49.64,-5.8,51.5
6.5,0.5,1.0,1.75,2.0,2.25,1.75,1.25,0.5,0.25,1.75,1.0,0.5,1.0,0.58,0.52,-1.11,199.12,4.9,12.4,0.25,0.0,0.0,0.0,0.0,0.0,0.0,0.0,0.0,0.0,0.0,0.0,0.0,-0.23,1.02,-0.3,37.01,-34.9,97.9
6.52,0.0,0.0,2.75,0.0,2.25,0.0,0.75,0.0,0.0,0.5,0.0,0.0,0.0,0.58,0.52,-0.98,177.27,16.4,45.1,0.0,0.0,0.0,0.0,0.25,0.0,0.0,0.0,0.0,0.0,0.0,0.0,0.0,-0.55,1.39,-0.55,19.2,3.3,53.4
6.54,0.5,1.0,1.0,2.0,2.25,1.0,0.25,0.0,0.25,2.0,0.0,0.5,0.0,0.58,0.45,-0.73,165.28,4.9,26.4,0.5,0.0,0.0,0.0,0.0,0.0,0.0,0.0,0.0,0.0,0.0,0.0,0.0,-0.48,1.39,-0.36,2.38,-34.9,97.9
6.56,0.25,1.25,3.0,2.0,2.5,1.75,0.75,0.5,0.25,1.75,0.75,0.5,1.25,0.45,0.33,-0.67,180.45,6.3,16.2,0.0,0.0,0.0,0.0,0.0,0.0,0.0,0.0,0.0,0.0,0.0,0.0,0.0,-0.36,1.2,-0.23,0.0,0.0,0.0
6.58,0.25,0.0,3.0,1.75,2.25,1.0,0.75,0.5,0.25,2.0,1.0,0.5,1.25,0.45,0.2,-0.61,193.61,6.8,3.4,0.0,0.0,0.0,0.0,0.0,0.0,0.0,0.0,0.0,0.0,0.0,0.0,0.0,-0.48,1.08,0.02,0.0,0.0,0.0
6.6,0.5,0.75,2.75,1.75,2.25,0.5,0.75,0.5,0.25,2.0,1.0,0.5,1.25,0.45,0.14,-0.55,207.79,7.9,7.9,0.0,0.0,0.0,0.0,0.0,0.0,0.0,0.0,0.0,0.0,0.0,0.0,0.0,-0.48,0.89,-0.17,0.0,0.0,0.0
6.62,0.5,1.0,3.0,2.0,2.25,1.0,0.75,0.5,0.25,2.0,1.0,0.5,1.25,0.45,0.08,-0.48,218.47,7.8,11.7,0.0,0.0,0.0,0.0,0.0,0.0,0.0,0.0,0.0,0.0,0.0,0.0,0.0,-0.48,0.89,-0.3,0.0,0.0,0.0
6.64,1.0,1.0,2.75,2.0,2.25,1.0,0.75,0.5,0.25,1.75,0.75,0.5,1.0,0.39,0.14,-0.42,225.26,8.8,18.3,0.0,0.0,0.0,0.5,0.0,0.0,0.0,0.0,0.0,0.0,0.0,0.0,0.0,-0.55,0.89,-0.3,0.0,-17.2,57.9
6.66,0.75,1.0,3.0,2.0,2.25,1.25,0.75,0.5,0.25,2.0,1.0,0.5,1.0,0.33,0.2,-0.3,231.69,8.0,15.2,0.25,0.0,0.0,0.0,0.0,0.0,0.0,0.0,0.0,0.0,0.0,0.0,0.0,-0.55,0.83,-0.3,0.0,-34.9,97.9
6.68,0.0,0.0,0.5,0.25,1.75,0.0,0.0,0.0,0.0,0.5,0.0,0.0,0.0,0.33,0.27,-0.17,182.35,2.9,35.4,0.0,0.0,0.0,0.0,0.0,0.0,0.0,0.0,0.0,0.0,0.0,0.0,0.0,-0.55,0.77,-0.36,0.0,0.0,0.0
6.7,0.0,0.25,3.0,0.0,2.25,0.0,0.25,0.0,0.0,0.5,0.0,0.0,0.0,0.39,0.39,0.02,147.02,16.5,48.5,0.0,0.0,0.0,0.0,0.25,0.0,0.0,0.0,0.0,0.0,0.0,0.0,0.0,-0.42,0.7,-0.42,0.0,3.3,53.4
6.72,0.0,0.0,0.5,0.0,1.75,0.0,0.0,0.0,0.0,0.5,0.0,0.5,0.0,0.58,0.58,0.14,86.72,2.7,13.4,0.0,0.0,0.0,0.0,0.0,0.0,0.0,0.0,0.0,0.0,0.0,0.0,0.0,-0.36,0.77,-0.36,0.0,0.0,0.0
6.74,0.0,0.0,3.0,0.0,2.25,0.0,0.0,0.0,0.0,0.5,0.0,0.0,0.0,0.7,0.77,0.33,76.36,16.4,46.8,0.0,0.0,0.0,0.0,0.0,0.0,0.0,0.0,0.0,0.0,0.0,0.0,0.0,-0.36,0.83,-0.3,1.0,0.0,0.0
6.76,0.0,0.0,0.5,0.0,2.25,0.0,0.0,0.0,0.0,0.5,0.0,0.0,0.0,0.77,0.89,0.45,55.76,0.8,36.7,0.5,0.0,0.0,0.0,0.0,0.0,0.0,0.0,0.0,0.0,0.0,0.0,0.0,-0.3,0.95,-0.36,3.12,-34.9,97.9
6.78,0.0,0.5,1.0,0.0,1.75,0.0,0.0,0.0,0.0,0.5,0.0,0.0,0.0,0.7,0.95,0.45,46.92,7.7,45.2,1.25,0.5,0.0,1.5,1.0,0.0,0.25,0.0,0.0,0.0,0.0,0.0,0.0,-0.36,1.02,-0.3,31.16,-16.4,70.9
6.8,0.0,0.75,0.5,2.0,2.25,1.25,0.25,0.0,0.25,2.0,0.0,0.5,0.0,0.64,1.02,0.33,67.66,0.9,19.6,0.75,0.75,0.0,1.5,0.0,1.0,0.0,0.0,0.5,0.5,0.0,0.75,0.0,-0.42,0.89,-0.17,61.2,-7.7,22.6
6.82,0.5,1.0,3.0,1.75,2.25,0.75,0.75,0.5,0.25,2.0,0.75,0.5,1.25,0.52,1.08,0.08,123.49,8.0,12.0,1.25,0.75,1.25,2.0,3.0,1.25,0.25,0.0,0.5,0.25,0.0,0.75,0.5,-0.55,0.77,-0.11,121.61,-8.5,36.6
6.84,1.25,1.0,2.75,2.0,2.25,1.5,0.75,0.5,0.25,1.75,0.75,0.5,1.25,0.52,1.08,-0.11,177.59,7.9,17.9,1.25,0.25,1.0,1.5,3.25,1.25,0.25,0.0,0.5,0.75,0.75,0.75,0.25,-0.55,0.77,-0.05,164.03,-6.6,24.6
6.86,0.5,1.0,3.0,2.0,2.5,1.25,0.75,0.5,0.25,2.0,0.75,0.5,1.25,0.45,1.14,-0.42,216.29,7.1,14.1,1.5,0.5,0.75,1.5,3.0,1.25,0.25,0.0,0.5,1.0,0.75,0.75,0.5,-0.3,0.7,-0.17,196.98,-6.0,21.3
6.88,0.5,1.0,3.0,2.0,2.5,1.0,0.75,0.5,0.25,1.5,1.0,0.5,1.5,0.39,1.2,-0.55,239.17,7.9,13.3,0.75,0.75,1.0,1.75,3.25,1.25,0.25,0.0,0.5,0.5,0.75,0.75,0.5,-0.11,0.7,-0.17,210.64,-6.0,24.9
6.9,0.5,1.0,2.75,2.25,2.25,1.5,0.75,0.5,0.25,1.5,1.0,0.5,1.25,0.39,1.2,-0.61,249.9,7.2,15.1,1.0,0.75,1.25,1.75,3.25,1.0,0.25,0.0,0.0,0.0,0.75,0.0,0.25,0.14,0.77,-0.23,211.94,-9.1,47.5
6.92,0.75,0.75,2.75,1.75,2.25,1.25,0.75,0.5,0.25,2.0,1.0,0.5,1.25,0.39,1.14,-0.67,255.99,7.0,10.4,0.5,0.25,0.25,0.5,2.25,0.25,1.0,0.0,0.0,0.0,0.75,0.0,0.0,0.27,0.83,-0.42,182.33,-8.6,40.1
6.94,0.5,1.0,2.75,0.75,2.25,0.75,0.75,0.5,0.25,2.0,1.0,0.5,1.25,0.45,1.14,-0.67,246.46,6.8,6.3,0.25,0.0,0.0,1.25,0.25,1.25,0.25,0.0,0.5,0.5,0.0,0.75,0.0,0.33,0.89,-0.48,147.13,-2.3,3.8
6.96,1.0,1.0,2.75,1.5,2.25,1.0,0.75,0.5,0.0,2.0,1.0,0.5,1.25,0.52,1.08,-0.67,244.86,7.7,12.8,0.5,0.75,1.0,1.25,3.25,1.25,0.5,0.0,0.5,0.25,0.75,0.75,0.5,0.2,0.89,-0.42,148.44,-5.7,24.1
6.98,0.5,1.0,2.75,2.0,2.25,0.75,0.75,0.5,0.0,2.0,0.75,0.5,1.25,0.58,1.08,-0.55,238.19,7.6,12.8,1.25,0.5,1.0,1.75,3.25,1.25,0.25,0.0,0.5,1.0,0.75,0.75,0.5,-0.23,0.89,-0.36,164.98,-6.1,22.2
7.0,0.0,1.0,3.0,2.0,2.25,1.0,0.75,0.5,0.25,2.0,0.75,0.5,1.25,0.58,0.95,-0.42,235.99,6.9,10.5,0.25,0.0,1.0,0.0,3.25,0.0,0.5,0.0,0.0,0.0,0.25,0.0,0.0,-0.61,0.89,-0.23,150.52,-8.2,49.9
7.02,0.5,0.5,2.75,1.75,2.25,1.5,0.75,0.5,0.25,2.0,1.25,0.5,1.25,0.52,0.83,-0.3,230.89,6.1,6.7,1.5,0.75,0.0,1.25,1.0,1.25,0.25,0.0,0.5,0.5,0.0,0.5,0.0,-0.86,0.95,-0.05,138.05,-7.6,38.1
7.04,0.5,0.75,2.75,1.75,2.5,0.75,0.75,0.5,0.25,2.0,1.0,0.5,1.25,0.58,0.77,-0.3,224.07,7.3,9.1,0.5,0.5,1.0,2.0,3.25,1.25,1.0,0.0,0.5,0.5,0.75,0.5,0.75,-0.86,0.89,0.02,144.92,-5.9,22.7
7.06,0.25,0.75,2.75,1.25,2.5,0.5,0.75,0.5,0.25,2.0,1.0,0.5,1.25,0.58,0.64,-0.3,214.86,6.9,5.5,1.0,0.75,0.75,1.75,3.25,1.25,1.0,0.0,0.5,0.75,0.75,0.5,0.5,-0.73,0.89,0.02,157.4,-6.2,26.2
7.08,0.5,1.0,3.0,1.75,2.25,1.25,0.75,0.5,0.25,2.0,1.0,0.5,1.25,0.58,0.39,-0.3,217.31,7.1,11.3,0.0,0.75,1.25,1.25,3.25,1.25,1.0,0.0,0.5,1.0,0.75,0.75,0.75,-0.61,0.89,0.02,174.86,-4.1,13.5
7.1,0.25,0.0,2.75,1.75,2.25,1.0,0.75,0.5,0.25,1.75,1.0,0.5,1.25,0.52,0.27,-0.23,211.8,6.6,3.7,0.5,0.5,1.0,1.5,3.25,1.0,0.75,0.0,0.5,1.0,0.75,0.75,0.5,-0.48,1.02,-0.23,186.99,-5.3,16.9
7.12,0.5,1.0,2.75,1.75,2.25,0.75,0.75,0.5,0.25,2.0,0.75,0.5,1.25,0.52,0.27,-0.23,213.37,7.5,11.2,0.75,0.75,0.75,1.25,3.25,1.0,0.75,0.0,0.5,0.0,1.0,0.0,0.5,-0.48,1.33,-0.36,185.93,-6.9,34.2
