time,left pressure 0[N/cm虏],left pressure 1[N/cm虏],left pressure 2[N/cm虏],left pressure 3[N/cm虏],left pressure 4[N/cm虏],left pressure 5[N/cm虏],left pressure 6[N/cm虏],left pressure 7[N/cm虏],left pressure 8[N/cm虏],left pressure 9[N/cm虏],left pressure 10[N/cm虏],left pressure 11[N/cm虏],left pressure 12[N/cm虏],left acceleration X[g],left acceleration Y[g],left acceleration Z[g],left total force[N],left center of pressure X[mm],left center of pressure Y[mm],right pressure 0[N/cm虏],right pressure 1[N/cm虏],right pressure 2[N/cm虏],right pressure 3[N/cm虏],right pressure 4[N/cm虏],right pressure 5[N/cm虏],right pressure 6[N/cm虏],right pressure 7[N/cm虏],right pressure 8[N/cm虏],right pressure 9[N/cm虏],right pressure 10[N/cm虏],right pressure 11[N/cm虏],right pressure 12[N/cm虏],right acceleration X[g],right acceleration Y[g],right acceleration Z[g],right total force[N],right center of pressure X[mm],right center of pressure Y[mm]
0.02,0.25,0.0,1.5,0.25,2.5,2.25,2.0,1.5,3.0,3.0,2.0,0.5,1.0,-0.11,0.14,0.89,323.36,1.0,-17.2,8.75,1.25,7.75,5.0,0.0,0.0,1.0,0.5,0.5,0.0,1.0,0.5,0.0,0.33,0.89,1.7,450.03,-28.3,61.0
0.04,1.0,0.25,1.75,2.0,0.0,2.25,2.5,2.75,4.0,5.0,3.0,2.25,2.5,-0.05,0.08,0.95,347.0,2.5,-33.4,7.25,0.75,6.0,3.25,0.0,0.25,0.0,0.5,1.25,0.0,0.0,0.5,0.0,0.02,0.77,2.02,314.05,-27.9,61.2
0.06,0.0,0.0,3.0,2.0,3.0,2.0,3.5,4.25,4.75,4.25,4.25,2.5,2.25,-0.05,0.08,0.95,384.45,3.1,-26.1,3.0,0.0,3.75,2.75,1.5,0.0,0.25,0.25,1.0,0.0,0.75,0.0,0.0,0.33,-0.17,1.7,211.55,-23.1,50.1
0.08,0.0,1.0,3.0,2.5,3.0,3.25,3.25,4.75,5.75,5.25,5.0,3.75,4.25,-0.05,0.08,0.95,483.89,1.7,-29.4,3.0,0.5,0.25,2.25,0.0,0.0,0.25,0.5,0.75,0.0,0.0,0.0,0.5,0.7,-0.55,1.02,101.53,-19.5,48.1
0.1,0.75,0.5,3.75,2.5,3.5,3.5,4.0,5.75,6.25,6.5,6.0,4.0,4.75,-0.05,0.08,0.95,613.44,2.0,-29.4,1.25,0.75,0.0,2.75,0.25,2.0,0.25,0.5,0.5,0.0,0.75,0.0,0.25,1.64,-0.48,1.33,26.77,-6.7,35.1
0.12,2.0,1.0,3.25,1.75,3.75,3.5,4.25,6.25,6.75,6.5,7.0,4.0,5.0,-0.05,0.08,0.95,738.98,2.3,-28.4,0.25,0.0,0.0,1.0,0.25,1.0,0.0,0.0,0.75,0.0,0.0,0.0,0.0,0.89,-0.3,1.2,0.0,-3.8,31.5
0.14,1.0,0.75,4.25,2.0,5.75,4.25,4.25,6.75,6.75,6.75,7.25,4.25,5.25,-0.05,0.08,0.95,845.91,1.7,-26.2,0.0,0.0,0.0,1.25,0.25,1.0,0.0,0.0,0.75,0.0,0.0,0.5,0.0,0.58,-0.11,0.52,0.0,-3.5,10.6
0.16,1.25,0.75,4.25,2.25,5.0,4.0,4.25,7.0,7.0,6.75,7.25,4.0,5.5,-0.05,0.08,0.95,913.47,1.9,-26.8,0.5,0.0,0.0,0.5,2.75,0.25,0.25,0.5,0.5,0.0,0.75,0.0,0.25,0.33,-0.05,0.33,0.0,-2.3,20.9
0.18,1.25,0.75,4.5,2.25,6.0,4.25,4.25,7.0,7.25,6.75,7.5,4.0,5.0,-0.05,0.08,0.95,963.24,2.1,-24.2,0.0,0.0,0.0,0.25,0.25,0.0,0.0,0.0,0.5,0.0,0.0,0.5,0.0,0.14,-0.05,0.64,0.0,-9.0,-27.8
0.2,1.25,0.75,4.25,2.25,5.75,4.5,4.25,7.25,7.25,6.5,7.25,4.0,5.0,-0.05,0.08,0.95,979.01,1.8,-24.3,0.0,0.0,0.0,0.5,0.25,0.0,0.0,0.0,0.5,0.0,0.0,0.0,0.0,-0.05,-0.11,0.95,0.0,-10.7,20.5
0.22,1.25,0.75,4.25,2.25,6.25,4.25,4.25,7.25,7.0,6.5,7.25,3.75,5.0,-0.05,0.08,0.95,990.03,1.8,-23.4,0.0,0.0,0.0,0.25,0.25,0.0,0.0,0.0,0.75,0.0,0.0,0.25,0.0,0.02,-0.11,1.02,0.0,-9.6,-16.3
0.24,1.25,0.75,4.25,2.75,6.0,4.5,4.25,7.0,7.0,6.5,6.75,3.75,5.25,-0.05,0.08,0.95,981.28,1.8,-22.7,0.0,0.0,0.0,0.5,0.25,0.0,0.0,0.0,0.25,0.0,0.0,0.0,0.0,0.27,-0.05,0.83,0.0,-10.4,34.2
0.26,1.25,0.75,4.5,2.75,6.25,4.5,4.25,6.75,7.0,5.75,6.0,3.0,4.5,-0.05,0.08,0.95,952.61,2.3,-18.0,0.0,0.0,0.0,0.25,0.25,0.0,0.0,0.0,0.5,0.0,0.0,0.0,0.0,0.33,0.08,0.95,0.0,-9.1,11.1
0.28,1.25,0.75,4.25,3.25,6.25,4.5,4.25,6.75,7.0,5.25,6.25,2.25,4.5,-0.05,0.08,0.95,904.33,2.3,-16.2,0.0,0.0,0.0,0.5,0.25,0.0,0.0,0.0,0.25,0.0,0.0,0.0,0.0,0.27,0.14,1.14,0.0,-10.4,34.2
0.3,1.75,0.75,4.5,3.75,6.0,4.75,4.25,6.75,7.0,5.25,6.25,2.5,3.5,-0.05,0.08,0.95,867.86,3.2,-13.0,0.5,0.25,0.0,1.5,2.25,1.0,0.0,0.5,0.75,0.0,0.75,0.0,0.25,0.33,0.27,1.27,32.91,-2.6,25.1
0.32,1.75,0.75,4.75,4.5,6.25,4.75,4.25,6.75,7.25,5.25,6.0,2.25,3.5,-0.05,0.08,0.95,849.73,3.5,-10.8,0.0,0.0,0.0,0.25,0.25,0.0,0.0,0.0,0.25,0.0,0.0,0.0,0.0,0.39,0.45,1.45,35.71,-8.2,26.4
0.34,1.5,0.75,5.0,4.5,6.25,5.25,4.25,6.75,7.25,5.25,6.0,2.25,3.0,-0.05,0.08,0.95,843.47,3.4,-9.6,0.0,0.0,0.0,0.25,0.25,0.0,0.0,0.0,0.5,0.0,0.0,0.0,0.0,0.45,0.58,1.64,36.48,-9.1,11.1
0.36,2.0,1.0,5.0,4.75,6.25,5.25,4.5,6.75,7.25,5.25,5.75,2.25,3.0,-0.05,0.08,0.95,851.87,3.8,-7.6,0.0,0.0,0.0,0.0,0.25,0.0,0.0,0.0,0.5,0.0,0.0,0.0,0.0,0.45,0.77,1.7,23.77,-6.4,-4.5
0.38,1.75,0.75,5.0,4.75,6.25,5.25,4.5,6.75,7.5,5.25,5.75,2.25,2.75,-0.05,0.08,0.95,854.05,3.8,-8.2,0.0,0.0,0.0,0.25,0.25,0.0,0.0,0.5,0.25,0.0,0.75,0.0,0.25,0.52,0.95,1.89,22.77,-1.0,-35.6
0.4,2.0,0.75,5.0,4.75,6.25,5.25,4.5,7.0,7.75,5.0,5.25,2.25,2.5,-0.05,0.08,0.95,856.9,4.0,-6.7,0.0,0.0,0.0,0.0,0.25,0.0,0.0,0.0,0.25,0.0,0.0,0.0,0.0,0.33,1.52,1.77,12.53,-3.8,11.1
0.42,3.0,1.0,5.0,5.25,6.5,5.5,5.0,7.25,8.0,4.75,5.0,2.0,2.25,-0.05,0.08,0.95,872.24,4.6,-2.1,0.0,0.0,0.0,1.25,0.25,0.0,0.0,0.0,0.75,0.0,0.0,0.0,0.0,-0.11,2.02,1.64,26.21,-13.0,26.8
0.44,3.25,1.0,5.25,6.0,6.5,5.75,5.0,7.25,8.0,4.25,4.5,1.75,3.0,-0.05,0.08,0.95,898.19,4.8,-0.3,0.0,0.0,0.0,0.5,2.25,0.0,0.0,0.5,0.25,0.0,0.75,0.0,0.25,-0.42,2.7,0.89,45.09,0.1,11.8
0.46,4.75,1.5,6.0,6.5,7.0,5.5,5.25,6.75,7.75,3.75,4.5,1.5,2.25,-0.05,0.08,0.95,937.49,6.7,7.3,0.0,0.0,0.0,0.0,0.25,0.0,0.0,0.0,0.25,0.0,0.0,0.0,0.0,-1.8,3.33,-0.23,38.29,-3.8,11.1
0.48,5.5,2.25,6.5,8.0,8.0,5.75,5.75,6.5,7.25,3.25,3.5,0.75,1.75,-0.05,0.08,0.95,989.19,7.7,17.0,0.25,0.5,0.5,1.25,1.5,0.0,0.0,0.5,0.75,0.0,0.75,0.0,0.0,-3.23,4.33,0.95,62.05,-9.5,27.2
0.5,6.75,2.25,8.0,10.0,8.0,5.75,6.0,5.75,6.75,3.25,2.75,0.75,2.0,-0.05,0.08,0.95,1061.29,9.4,22.4,0.5,0.25,0.0,0.0,2.5,1.25,0.0,0.5,0.75,0.0,0.75,0.5,0.5,-0.8,1.89,-0.55,85.14,1.4,6.7
0.52,7.75,2.25,9.0,12.5,8.25,5.5,6.25,4.75,5.25,3.0,2.5,0.75,1.25,-0.05,0.08,0.95,1129.36,11.3,30.0,1.25,0.25,0.0,1.25,2.25,1.0,0.0,0.5,0.75,0.0,1.25,2.25,1.25,0.27,-0.42,0.95,130.24,-4.2,-11.3
0.54,8.75,3.25,10.0,14.0,9.0,5.25,6.25,3.5,4.0,3.0,2.75,0.75,1.25,-0.11,0.14,1.02,1209.11,12.6,35.4,0.25,0.0,0.0,2.0,2.25,1.5,0.0,0.5,0.5,1.0,2.5,4.5,2.25,-0.48,0.64,0.58,184.88,-1.1,-40.4
0.56,9.0,3.75,11.0,14.0,8.75,3.75,5.75,3.0,2.5,3.0,2.0,0.75,1.0,-0.11,0.14,1.2,1243.62,14.2,40.4,1.0,0.0,0.0,1.25,3.0,1.25,0.0,2.25,2.5,4.75,4.5,5.75,4.75,-1.11,0.95,5.02,290.1,1.1,-52.4
0.58,9.75,4.0,11.5,13.0,9.0,3.0,5.25,3.0,1.75,3.0,2.5,0.75,1.0,-0.17,0.2,1.27,1256.84,14.8,41.3,0.5,0.0,0.0,1.0,3.0,2.5,0.0,3.75,2.75,4.75,6.25,6.0,5.5,0.52,0.14,0.89,403.86,2.6,-54.3
0.6,9.75,4.0,11.5,10.0,8.0,1.75,3.5,2.75,1.5,2.75,2.5,0.5,1.0,-0.17,0.27,1.39,1185.91,15.8,42.3,1.25,0.25,0.0,1.5,2.75,2.5,0.5,3.75,3.75,5.25,5.25,6.25,5.5,0.08,0.14,0.95,530.43,1.3,-49.0
0.62,10.0,4.0,11.0,8.0,6.5,0.0,2.25,2.5,1.5,3.0,2.0,0.75,1.0,-0.17,0.33,1.39,1066.19,17.3,42.0,0.5,0.5,1.0,1.75,4.25,2.75,0.0,4.5,4.5,5.75,6.75,6.5,5.75,0.08,0.2,0.95,650.29,1.0,-44.8
0.64,10.0,4.25,9.25,6.5,4.75,1.5,2.0,2.25,1.5,3.0,2.0,0.75,1.0,-0.23,0.52,1.89,923.48,16.3,40.9,0.75,0.5,1.0,2.75,4.5,2.5,1.0,4.75,5.5,6.0,7.5,6.75,5.5,0.02,0.14,0.95,753.98,-0.3,-41.4
0.66,9.0,3.5,9.0,4.75,5.0,0.5,2.25,1.0,1.5,2.75,1.25,0.5,0.5,-0.61,0.77,2.39,767.12,18.3,45.8,1.5,0.75,1.0,2.75,4.5,3.75,1.75,5.0,5.5,6.0,7.75,6.75,5.5,0.02,0.14,0.95,835.58,-0.5,-36.8
0.68,7.75,2.25,7.25,3.25,4.25,0.0,2.0,1.0,1.5,2.75,1.5,0.75,1.0,-0.67,0.7,2.33,610.97,17.4,36.5,0.75,0.25,1.5,2.0,4.75,4.25,2.0,5.25,6.0,5.75,7.75,6.25,5.5,0.08,0.14,0.95,884.56,0.0,-38.3
0.7,6.75,2.25,5.0,1.75,3.5,1.25,1.75,1.25,0.75,2.25,1.25,0.5,1.0,-0.55,0.45,2.33,463.16,14.7,36.3,1.25,0.25,1.75,3.25,4.75,4.5,2.25,5.5,6.0,5.5,7.5,5.75,5.0,0.08,0.14,0.95,911.39,-0.8,-32.0
0.72,5.25,0.75,3.25,0.75,3.0,0.0,1.75,1.5,1.0,2.75,1.75,0.5,1.0,-0.17,-0.11,1.7,337.32,12.8,18.3,1.25,0.75,2.25,3.25,4.75,4.75,2.25,5.5,6.0,4.75,7.0,5.5,4.75,0.08,0.14,0.95,893.87,-1.3,-27.7
0.74,3.0,0.25,1.75,0.0,2.5,0.0,1.5,1.0,0.75,0.5,1.5,0.25,1.0,-0.36,-0.86,1.2,227.34,12.8,17.0,1.5,0.75,3.25,3.25,4.75,4.75,2.25,5.5,6.0,4.75,6.75,4.5,3.75,0.08,0.14,0.95,865.09,-2.3,-21.9
0.76,2.75,0.75,1.75,0.25,3.0,1.75,0.75,1.25,1.5,2.5,0.25,0.75,0.0,-0.73,-0.61,1.89,159.67,5.9,18.1,1.5,0.75,3.5,2.0,4.75,4.5,2.75,5.25,6.0,3.5,6.75,4.0,3.25,0.08,0.14,0.95,806.2,-3.1,-20.3
0.78,2.25,0.75,3.0,0.5,2.5,1.75,1.0,1.0,1.25,2.75,1.0,0.5,1.75,-0.55,-1.11,1.64,132.07,6.2,5.3,1.25,1.0,3.75,3.0,5.0,4.5,2.75,5.0,6.0,3.25,6.0,3.25,2.5,0.08,0.14,0.95,747.6,-3.7,-13.3
0.8,1.25,0.75,1.0,0.25,2.5,1.75,0.75,0.75,1.0,2.25,1.5,0.75,1.0,-0.23,-0.92,1.27,119.59,2.0,-3.3,1.25,1.25,3.75,3.0,5.25,4.5,2.75,5.0,6.0,2.75,5.25,2.75,2.25,0.08,0.14,0.95,687.71,-3.9,-8.9
0.82,1.25,0.0,0.5,0.0,2.5,0.0,0.75,0.75,0.75,0.5,0.0,0.25,0.0,-0.17,-0.55,0.77,80.38,7.4,26.1,1.25,1.25,3.75,3.25,5.5,4.0,3.0,5.0,6.25,2.5,5.25,2.0,1.5,0.08,0.14,0.95,647.29,-4.7,-4.7
0.84,1.0,0.0,0.75,0.0,2.5,0.0,0.75,0.75,0.75,0.5,0.0,0.25,0.0,-0.17,-0.36,0.64,51.19,7.6,25.0,2.0,1.25,3.75,4.0,6.25,4.0,3.25,5.0,6.0,1.75,4.5,2.0,1.25,0.08,0.14,0.95,624.87,-5.6,2.3
0.86,0.75,0.0,3.0,0.0,3.0,0.25,0.75,0.75,1.0,2.25,0.0,0.5,0.0,-0.17,-0.3,0.77,54.76,8.5,13.6,3.0,1.25,4.0,5.0,6.5,4.0,3.25,4.75,6.0,1.5,4.5,1.75,1.25,0.08,0.14,0.95,624.02,-6.8,7.4
0.88,1.0,0.0,0.5,0.0,2.5,1.0,0.75,0.75,0.75,2.0,0.0,0.5,0.0,-0.05,-0.17,0.95,61.02,0.2,5.8,3.0,1.5,5.0,5.25,6.5,4.75,3.25,4.75,6.25,1.5,3.75,1.25,1.25,0.08,0.14,0.95,643.12,-7.1,12.1
0.9,1.75,0.25,0.25,0.0,2.5,0.25,1.0,0.75,0.5,0.5,0.25,0.25,0.0,0.02,-0.11,1.08,76.5,7.6,30.7,4.0,1.5,5.75,7.0,6.5,4.75,3.5,4.25,6.0,1.5,3.25,1.0,1.25,0.08,0.14,0.95,682.37,-8.7,18.4
0.92,1.25,0.0,1.0,0.0,2.5,0.0,0.75,0.75,0.75,0.5,0.0,0.25,0.0,-0.05,-0.05,1.14,85.44,9.5,28.4,5.25,1.5,6.75,7.25,7.75,5.0,4.0,3.75,6.0,1.5,3.25,0.75,1.25,0.08,0.14,0.95,746.14,-9.8,23.4
0.94,0.75,0.0,0.25,0.0,2.5,0.0,0.75,0.5,0.75,0.5,0.0,0.0,0.0,-0.17,0.02,1.27,81.9,4.9,27.4,6.25,1.75,7.5,8.75,8.0,5.75,4.25,3.75,5.75,1.25,3.0,0.5,1.25,0.08,0.2,0.95,829.14,-10.5,28.5
0.96,0.75,0.0,0.25,0.0,2.5,0.0,0.75,0.5,0.75,0.5,0.0,0.25,0.0,-0.23,0.14,1.39,77.83,5.0,21.9,7.25,1.75,8.25,10.5,9.0,5.75,4.5,3.5,5.25,1.0,2.75,0.5,1.0,0.08,0.14,0.95,927.08,-11.5,33.6
0.98,0.5,0.0,0.25,0.0,0.0,0.0,0.75,0.5,0.75,0.5,0.0,0.25,0.0,-0.3,0.27,1.77,58.92,10.6,-13.6,8.0,2.5,9.0,12.0,9.25,6.0,4.75,2.5,4.5,0.0,2.5,0.5,1.0,0.08,0.2,0.95,1021.29,-13.0,40.5
1.0,0.5,0.0,0.25,0.0,0.0,0.0,0.75,0.5,0.75,0.5,0.0,0.0,0.0,-0.42,0.45,1.89,38.09,10.8,-5.1,8.75,2.25,9.5,14.0,11.0,6.0,4.75,2.25,3.25,0.0,2.25,0.5,1.0,0.02,0.2,0.95,1120.65,-13.2,44.2
1.02,0.25,0.0,0.25,0.0,0.75,0.0,0.75,0.0,0.75,0.5,0.0,0.0,0.0,-0.55,0.7,2.33,25.09,9.4,9.6,9.5,2.5,11.0,15.0,12.0,6.0,4.5,2.0,2.5,0.0,2.0,0.5,0.5,0.02,0.2,1.02,1214.96,-14.1,48.6
1.04,0.0,0.0,0.25,0.0,0.0,0.0,0.75,0.0,0.5,0.5,0.0,0.75,0.0,-0.86,1.27,2.52,22.92,11.1,-48.0,9.75,3.0,12.0,15.5,12.0,6.0,4.0,2.0,1.75,0.0,1.75,0.5,0.0,0.02,0.2,1.08,1291.72,-14.7,52.1
1.06,0.0,0.0,0.25,0.0,2.5,0.0,0.75,0.0,0.75,0.5,0.0,0.25,0.0,-1.61,5.52,-0.42,37.35,3.0,17.3,10.5,3.25,12.0,15.0,12.5,5.5,3.25,0.75,1.25,0.0,1.75,0.5,0.5,0.08,0.27,1.14,1322.12,-15.3,54.1
1.08,0.0,0.0,0.5,0.0,0.75,0.0,0.75,0.0,0.75,0.5,0.0,0.0,0.0,-1.86,4.2,-0.05,35.59,9.9,7.1,11.5,3.0,12.5,15.5,12.0,4.0,1.75,0.75,1.25,0.0,1.5,0.5,0.5,0.08,0.33,1.2,1322.55,-16.6,55.8
1.1,0.0,0.0,0.5,0.0,2.25,0.0,0.75,0.0,0.75,0.5,0.0,0.0,0.0,-0.73,4.33,-0.05,45.87,5.0,24.2,12.5,3.25,12.5,14.0,11.0,4.0,0.0,0.75,0.75,0.25,1.0,0.5,0.5,0.14,0.33,1.33,1287.25,-17.0,58.2
1.12,1.0,0.75,0.25,0.75,1.75,0.75,0.75,0.0,1.0,2.0,0.0,0.75,0.0,0.52,4.2,-1.23,81.41,4.3,10.4,13.0,2.75,12.0,11.0,9.0,1.5,0.5,0.5,1.0,0.0,0.75,0.5,0.25,0.14,0.45,1.7,1164.06,-20.1,61.3
1.14,0.0,0.0,1.75,0.0,2.5,0.0,1.5,0.0,0.75,0.25,1.0,0.0,1.0,1.45,3.77,-0.61,107.96,10.0,6.0,11.5,2.5,11.0,9.0,6.5,0.0,1.75,0.5,0.75,0.0,0.75,0.5,0.5,0.39,0.7,1.83,983.79,-22.2,60.6
1.16,0.0,0.75,0.5,0.0,3.0,0.0,0.75,0.0,1.5,4.25,0.5,1.0,0.5,-0.42,0.2,1.7,146.22,-0.9,-21.5,8.75,1.25,9.5,7.25,3.5,1.5,2.25,0.5,0.5,0.0,0.0,0.0,0.25,0.7,1.02,2.14,755.66,-22.8,63.2
1.18,0.0,0.0,0.0,0.25,1.75,2.75,0.75,2.75,2.75,5.25,2.25,2.5,3.0,-0.11,0.64,0.52,223.41,-5.9,-49.0,7.25,0.25,7.25,4.0,0.0,0.0,1.5,0.0,0.0,0.0,0.0,0.0,0.0,0.7,1.27,2.64,490.53,-32.0,72.4
1.2,0.75,0.5,3.0,0.5,0.0,3.5,1.5,4.75,3.5,6.5,3.25,3.75,4.0,-0.11,0.2,1.02,323.98,-0.6,-41.6,5.25,0.0,4.75,2.75,0.0,0.5,0.25,0.0,0.5,0.0,0.0,0.0,0.0,0.45,0.83,3.14,293.73,-29.6,68.7
1.22,1.25,0.75,3.0,2.25,0.0,4.25,3.25,6.5,4.75,6.75,5.0,4.0,5.25,-0.11,0.08,0.95,483.01,0.5,-36.4,1.5,0.0,1.75,1.5,0.25,0.0,0.0,0.0,0.5,0.0,0.0,0.0,0.0,0.64,-1.05,1.45,136.95,-27.0,60.1
1.24,1.0,0.75,4.0,2.25,5.5,5.0,3.5,7.0,5.25,7.25,5.75,4.0,5.75,-0.05,0.08,0.95,686.1,0.2,-25.4,1.75,1.0,0.5,3.0,0.25,1.5,0.5,0.5,1.0,0.0,0.75,0.5,0.5,0.83,-1.11,-0.23,39.92,-11.0,28.0
1.26,1.75,1.0,3.25,2.25,5.0,5.25,3.75,7.5,5.75,7.75,6.0,4.0,5.75,-0.11,0.08,0.95,857.47,0.0,-25.9,1.25,0.5,1.0,2.0,2.75,1.75,0.0,0.5,0.75,0.0,0.75,0.5,0.5,1.27,-1.36,1.33,0.0,-6.3,28.6
1.28,1.75,0.75,3.75,2.5,6.25,5.5,3.5,7.75,6.0,7.75,5.25,4.0,5.75,-0.11,0.08,0.95,983.16,0.0,-22.7,1.0,0.5,1.0,2.75,3.0,0.0,0.0,0.5,0.75,0.0,0.75,0.5,0.25,0.7,-0.98,0.83,0.0,-10.9,32.2
1.3,1.25,1.0,3.75,3.75,6.25,6.0,4.25,8.0,6.25,7.5,5.25,3.75,5.75,-0.11,0.08,0.95,1063.86,0.1,-20.2,0.75,0.75,0.75,2.75,2.5,0.75,0.0,0.5,0.5,0.0,0.75,0.0,0.25,0.14,-0.67,0.64,10.56,-8.3,38.9
1.32,1.5,0.75,4.25,4.25,6.25,6.25,4.25,8.0,6.25,6.75,5.25,2.75,5.0,-0.11,0.08,0.95,1102.88,0.8,-15.4,0.0,0.0,0.0,0.5,0.25,0.0,0.0,0.0,0.5,0.0,0.0,0.0,0.0,-0.3,-0.48,0.77,0.0,-10.7,20.5
1.34,1.75,0.5,4.25,4.5,6.25,6.0,4.25,7.75,6.25,6.5,5.0,2.25,5.0,-0.11,0.08,0.95,1098.36,1.1,-13.9,0.0,0.0,0.0,0.25,0.25,0.0,0.0,0.0,0.75,0.0,0.0,0.0,0.0,-0.55,-0.42,1.14,0.0,-9.7,1.6
1.36,1.75,0.5,5.0,4.75,6.25,6.25,4.5,7.5,6.25,5.25,3.25,2.25,4.0,-0.11,0.08,0.95,1059.35,2.1,-7.1,0.0,0.0,0.0,1.0,0.25,0.0,0.0,0.0,0.5,0.0,0.0,0.0,0.0,-0.48,-0.36,1.08,0.0,-12.6,31.2
1.38,2.0,0.75,5.0,4.75,6.25,6.25,4.5,7.5,6.0,5.25,3.25,2.0,3.0,-0.11,0.08,0.95,1009.72,2.5,-3.6,0.0,0.5,0.0,2.0,0.25,0.0,0.0,0.0,0.5,0.0,0.0,0.0,0.0,-0.36,-0.3,1.14,0.0,-14.0,49.7
1.4,2.0,0.75,5.0,4.75,6.25,6.25,4.25,7.25,6.0,5.25,3.25,1.75,3.25,-0.11,0.08,0.95,948.15,2.5,-3.6,0.0,0.25,0.0,0.5,0.25,0.0,0.0,0.0,0.75,0.0,0.0,0.5,0.0,-0.48,-0.17,1.33,0.0,-10.7,-5.1
1.42,1.75,0.75,5.0,4.75,6.25,6.25,4.25,7.0,6.0,5.0,3.25,1.25,3.25,-0.11,0.08,0.95,885.62,2.4,-2.5,1.0,0.5,0.5,1.75,2.5,0.0,0.25,0.5,0.75,0.0,0.75,0.5,0.25,-0.48,0.02,1.45,44.25,-9.8,26.4
1.44,1.75,1.25,5.0,4.75,6.25,6.25,4.5,6.75,6.25,4.5,3.25,1.25,2.25,-0.11,0.08,0.95,835.25,3.2,1.3,0.0,0.0,0.0,1.5,0.25,0.0,0.0,0.0,0.75,0.0,0.75,0.5,0.0,-0.42,0.2,1.58,56.83,-12.3,-8.2
1.46,1.75,1.25,5.0,4.75,6.25,6.5,4.5,6.75,6.5,4.5,3.25,1.25,2.0,-0.11,0.08,0.95,800.61,3.2,1.8,0.0,0.0,0.0,0.25,0.25,0.75,0.25,0.0,0.25,0.0,0.75,0.0,0.0,-0.36,0.33,1.77,56.36,-0.8,-2.6
1.48,2.0,1.0,5.0,5.25,6.5,6.75,4.5,6.75,6.75,4.5,3.25,1.0,2.0,-0.05,0.08,0.95,787.96,3.3,3.0,0.5,0.75,0.5,1.5,2.25,1.25,0.0,0.5,0.75,0.0,0.75,0.5,0.25,-0.3,0.52,2.14,76.61,-4.7,24.2
1.5,2.25,0.75,5.0,5.75,7.0,6.75,4.75,6.75,6.75,4.25,3.25,1.0,1.5,-0.11,0.08,0.95,793.23,3.8,5.5,0.75,0.0,0.5,1.25,2.5,2.0,0.0,0.5,0.75,0.0,0.75,0.5,0.25,-0.05,1.02,2.7,108.03,-2.3,20.8
1.52,3.25,0.75,5.5,6.5,8.0,6.75,5.0,6.75,7.0,4.0,3.25,0.75,1.5,-0.11,0.08,0.95,827.1,4.8,9.9,0.75,0.5,0.0,1.5,0.25,1.25,0.0,0.0,0.75,0.0,0.0,0.0,0.0,-0.3,1.83,3.89,114.92,-7.8,47.5
1.54,3.0,1.25,5.75,6.5,8.0,6.75,5.0,6.75,7.0,3.5,3.25,0.75,1.25,-0.11,0.08,0.95,859.25,5.2,11.9,0.0,0.25,0.0,0.25,0.25,0.0,0.0,0.0,0.25,0.0,0.0,0.0,0.0,-1.23,2.95,0.52,93.42,-9.2,44.1
1.56,4.75,1.25,6.5,8.0,8.25,7.0,5.5,6.75,6.75,3.5,3.25,0.75,1.5,-0.05,0.08,0.95,927.26,6.5,16.0,0.25,1.0,0.0,1.25,0.25,0.0,0.0,0.0,0.75,0.0,0.0,0.5,0.0,-1.67,4.27,-0.05,84.69,-13.7,32.4
1.58,5.75,2.0,7.75,10.0,9.25,7.25,5.75,6.0,6.25,3.0,3.0,0.75,1.0,-0.11,0.08,0.95,1018.11,8.3,24.1,0.25,0.5,0.25,0.75,1.75,1.25,0.0,0.5,0.75,0.0,0.75,0.5,0.5,-2.3,6.39,-2.8,86.65,-1.2,8.7
1.6,6.5,2.0,8.75,11.5,9.5,7.25,6.0,5.75,5.5,3.0,2.25,0.75,1.0,-0.11,0.08,0.95,1118.82,9.2,28.3,0.75,0.5,0.5,1.5,2.5,0.0,0.0,0.5,0.75,0.0,0.75,2.0,0.5,-0.23,-1.61,2.7,114.23,-8.1,1.7
1.62,7.5,2.25,9.75,13.0,10.5,6.75,6.0,4.5,4.25,3.0,2.25,0.75,1.0,-0.11,0.14,1.02,1213.44,10.6,33.4,0.0,0.25,0.0,1.5,1.25,2.5,0.0,1.5,1.25,3.25,1.75,3.25,2.5,-0.3,1.45,2.83,181.28,4.0,-44.0
1.64,7.75,2.5,11.0,14.0,12.0,6.25,6.0,3.0,3.0,3.0,2.25,0.5,1.0,-0.05,0.14,1.14,1294.14,11.7,38.4,0.25,0.75,0.5,2.0,3.5,2.75,0.25,3.5,1.75,4.75,4.5,5.5,4.75,-0.17,0.7,2.2,291.83,2.2,-41.8
1.66,9.25,2.75,11.0,14.0,11.5,5.0,4.75,3.0,2.25,3.0,2.0,0.75,1.0,-0.05,0.14,1.33,1325.23,12.7,40.6,0.0,0.0,0.5,0.25,3.0,1.25,0.0,3.75,2.75,3.5,5.25,4.75,5.0,0.02,0.14,1.02,377.78,2.3,-56.3
1.68,9.5,3.5,12.0,12.5,10.0,3.5,4.5,2.75,1.5,3.0,2.0,0.5,1.0,-0.17,0.2,1.27,1311.12,14.4,43.0,0.25,0.0,0.0,0.25,0.5,2.25,1.0,4.0,3.25,3.5,4.75,5.25,4.75,0.08,0.2,0.95,453.04,2.6,-63.4
1.7,9.75,3.75,12.5,10.5,9.0,2.25,2.25,2.5,1.5,3.0,2.0,0.75,1.0,-0.17,0.27,1.33,1242.2,15.4,43.0,0.25,0.25,0.5,0.25,0.5,4.0,0.5,3.75,4.5,5.5,5.25,6.25,5.25,0.08,0.2,0.95,521.31,2.8,-58.7
1.72,10.0,3.0,12.0,8.0,8.0,2.0,1.75,1.5,1.5,0.75,1.5,0.5,1.0,-0.11,0.33,1.64,1096.19,17.8,49.9,0.75,0.75,1.0,2.75,4.5,3.0,1.0,5.0,4.5,5.75,6.75,6.25,5.5,0.08,0.14,0.95,620.88,0.3,-38.6
1.74,9.25,3.0,10.0,6.0,5.25,1.75,1.25,0.75,1.25,2.75,0.5,0.5,1.0,-0.36,0.58,2.2,906.04,17.5,47.3,0.5,0.75,1.0,2.75,4.5,3.5,1.75,5.25,5.0,5.75,7.25,6.25,5.5,0.08,0.14,0.95,723.4,0.3,-38.4
1.76,8.0,2.25,9.75,3.75,4.75,1.75,2.0,1.75,1.25,2.75,1.25,0.5,1.0,-0.73,0.89,2.45,731.61,16.4,39.5,1.0,0.75,1.25,2.75,4.5,4.5,1.75,5.75,5.5,5.75,7.75,6.25,5.0,0.08,0.14,0.95,825.28,0.0,-35.0
1.78,7.0,1.5,8.0,3.5,5.0,0.0,2.0,1.25,0.75,0.5,1.25,0.0,1.0,-0.8,0.64,2.27,558.27,19.6,48.4,1.0,0.75,1.25,2.5,4.5,4.5,2.0,5.75,5.5,5.5,7.25,6.0,4.0,0.08,0.14,0.95,864.55,-0.1,-32.8
1.8,5.0,0.25,5.0,2.25,2.5,0.0,1.0,0.75,1.25,2.0,0.25,0.5,0.0,-0.36,0.39,2.45,378.86,18.9,38.9,1.75,1.0,1.25,2.75,4.75,4.75,2.0,5.75,5.5,5.0,6.75,5.5,5.25,0.08,0.14,0.95,866.75,-0.3,-29.5
1.82,2.0,0.0,3.0,0.0,4.25,0.0,0.75,0.75,1.0,2.5,0.5,0.5,0.0,-0.36,-0.8,1.83,252.83,9.6,19.2,0.5,1.0,1.75,3.0,4.75,4.75,2.25,5.75,5.75,4.75,6.75,5.5,4.0,0.08,0.14,0.95,834.83,-0.5,-28.7
1.84,1.0,0.75,1.75,0.0,2.5,0.0,0.75,0.75,0.75,0.5,0.0,0.25,1.0,-0.61,-0.36,0.39,136.27,8.9,20.6,1.25,0.75,1.75,3.0,4.75,4.75,2.25,5.75,6.0,4.5,6.75,4.5,3.5,0.08,0.14,0.95,798.05,-1.1,-24.8
1.86,1.0,0.0,3.0,0.0,3.0,0.0,1.75,1.75,0.5,0.5,0.0,0.0,0.0,-0.67,-1.17,1.83,54.75,12.2,32.8,1.75,0.75,2.5,3.0,5.5,4.75,2.25,5.75,6.0,3.5,6.25,3.5,2.75,0.08,0.14,0.95,754.24,-2.2,-16.1
1.88,0.75,0.0,1.25,0.0,2.5,0.0,0.75,0.75,0.75,0.5,0.25,0.25,0.0,-0.48,-0.98,0.95,0.0,8.9,22.1,1.25,1.25,3.5,3.75,6.5,4.75,2.25,5.75,5.75,2.0,5.0,2.0,1.25,0.08,0.14,0.95,709.43,-3.6,-0.9
1.9,0.75,0.0,1.0,0.0,2.5,0.25,0.75,0.75,0.75,2.5,0.0,0.5,0.0,-0.48,-0.67,0.64,0.0,2.2,0.3,0.75,1.25,3.75,4.0,6.5,5.25,2.25,5.75,6.0,2.0,4.5,2.0,1.25,0.08,0.14,0.95,686.96,-3.3,-0.3
1.92,1.25,0.75,3.0,2.0,3.0,1.75,1.5,1.0,1.0,2.25,1.25,0.75,1.0,-0.42,-0.55,0.52,52.1,7.1,11.3,3.5,1.5,3.75,5.0,6.5,5.75,2.5,5.5,6.0,1.75,4.25,1.5,1.25,0.08,0.14,0.95,688.03,-5.2,9.1
1.94,2.0,1.0,3.0,1.75,3.0,1.75,1.5,1.0,1.0,2.25,1.25,0.5,1.0,-0.36,-0.42,0.77,128.8,8.0,16.2,3.25,1.75,3.75,5.25,6.5,5.75,2.75,5.5,5.75,1.5,3.25,1.25,1.25,0.08,0.14,0.95,683.55,-5.2,12.6
1.96,1.25,0.5,3.0,1.25,3.0,1.25,1.5,1.0,1.0,2.0,1.25,0.5,1.0,-0.3,-0.3,0.89,184.58,7.7,10.3,3.75,1.25,4.5,7.0,7.75,6.0,3.0,5.0,5.75,1.5,3.25,1.0,1.25,0.08,0.14,0.95,712.0,-6.2,17.3
1.98,1.75,0.5,2.75,0.25,2.5,1.5,1.5,1.0,1.0,2.25,1.0,0.5,1.0,-0.3,-0.17,0.89,212.07,6.9,7.8,5.75,1.75,5.75,7.25,8.0,6.0,3.25,5.0,5.5,1.5,3.0,0.75,1.25,0.08,0.2,0.95,769.29,-8.0,23.6
2.0,1.75,0.75,3.0,2.5,2.5,1.25,1.5,1.0,0.75,0.5,1.25,0.5,1.0,-0.3,-0.05,0.95,231.23,11.4,23.8,6.5,1.75,6.5,9.0,8.75,6.0,3.25,4.75,5.25,1.5,2.75,0.5,1.25,0.08,0.2,0.95,849.44,-9.0,28.1
2.02,0.5,0.0,3.0,0.0,3.0,0.0,1.5,1.0,0.75,0.5,1.0,0.0,0.0,-0.36,0.02,1.14,215.96,12.8,23.8,7.0,2.0,7.25,11.0,9.25,6.25,3.5,3.75,4.5,1.5,2.5,0.5,1.0,0.08,0.2,0.95,936.06,-10.1,33.7
2.04,0.0,0.0,2.25,0.0,3.0,0.0,1.5,1.0,0.75,0.5,0.0,0.25,0.0,-0.42,0.08,1.52,194.46,9.6,23.8,8.0,2.25,8.0,12.0,11.0,6.5,3.5,3.75,3.75,1.5,2.25,0.5,0.75,0.08,0.2,0.95,1037.15,-10.5,38.1
2.06,0.5,0.0,0.5,0.0,2.5,0.0,1.0,0.75,0.5,1.25,0.75,0.0,1.0,-0.48,0.27,1.64,164.24,1.1,-7.6,8.75,2.5,8.75,14.0,12.0,6.75,3.25,2.75,2.75,0.25,2.0,0.5,0.25,0.08,0.2,0.95,1129.75,-12.0,46.3
2.08,0.25,0.0,0.25,0.0,2.5,0.0,0.75,0.75,0.75,0.5,0.0,0.0,0.0,-0.55,0.45,1.95,128.72,1.5,18.8,9.5,2.5,9.5,15.5,13.0,7.0,3.25,2.0,1.75,0.25,1.75,0.5,0.25,0.02,0.2,1.08,1218.79,-12.6,50.0
2.1,0.5,0.0,0.5,0.0,2.25,0.0,0.75,0.5,0.5,0.5,0.0,0.0,0.0,-0.67,0.7,2.39,95.65,5.3,27.5,10.5,3.25,9.75,15.5,13.5,7.0,2.25,2.0,1.25,0.0,1.5,0.5,0.25,0.02,0.2,1.14,1289.96,-12.8,53.0
2.12,0.75,0.25,0.5,0.0,0.75,0.0,0.75,0.75,0.75,0.5,0.0,0.0,0.25,-1.05,1.39,2.77,71.68,8.3,11.7,11.0,3.0,10.0,14.5,14.0,6.0,1.25,0.75,1.25,0.0,0.75,0.5,0.25,0.08,0.27,1.2,1306.3,-13.9,56.8
2.14,1.25,0.75,0.25,2.25,2.5,1.25,0.75,0.5,0.75,1.75,0.0,0.75,0.0,-0.23,0.58,1.45,94.82,4.3,22.4,12.0,3.0,11.0,15.5,13.5,5.5,1.0,0.5,1.0,0.0,0.75,0.5,0.5,0.14,0.33,1.2,1310.69,-15.0,57.7
2.16,1.25,0.5,2.0,0.0,2.5,0.0,1.5,0.75,0.5,0.5,0.75,0.0,1.0,-1.11,3.33,1.45,108.8,10.9,19.4,13.5,3.0,11.0,14.0,11.5,5.0,0.5,0.5,0.5,0.0,0.75,0.0,0.5,0.14,0.39,1.33,1268.79,-16.4,61.2
2.18,0.0,0.0,0.25,0.0,2.5,0.0,0.75,0.5,0.75,0.5,0.0,0.25,0.0,0.27,5.2,-0.42,108.5,1.2,12.2,13.0,3.5,11.0,11.0,9.25,4.0,0.5,0.5,0.25,0.0,0.25,0.25,0.5,0.14,0.45,1.45,1168.7,-17.8,63.2
2.2,0.0,0.0,0.25,0.0,2.5,0.0,0.5,0.75,0.75,0.5,0.0,0.0,0.0,3.39,6.39,-2.05,96.27,-0.6,15.1,11.5,3.0,9.75,8.75,6.5,2.75,1.75,0.5,0.5,0.0,0.25,0.0,0.5,0.27,0.64,1.95,991.18,-19.5,63.4
2.22,0.25,0.0,0.25,0.0,2.5,1.0,0.25,0.75,0.75,1.0,0.0,0.0,0.25,0.64,-0.36,1.52,90.49,-4.4,9.3,9.5,2.0,8.0,7.0,0.25,2.5,2.25,0.5,0.75,0.0,0.75,0.0,0.5,0.64,1.2,2.45,749.69,-23.2,60.0
2.24,0.0,0.0,1.0,0.0,2.5,1.0,0.75,1.0,0.75,2.0,1.75,0.75,2.25,0.27,0.83,2.33,120.4,-1.9,-30.8,8.25,1.75,6.0,5.0,0.5,2.5,1.75,0.5,0.25,0.0,0.0,0.0,0.25,0.64,1.27,2.64,522.55,-22.6,65.7
2.26,1.0,0.0,1.5,0.0,0.0,0.0,0.75,3.25,1.25,3.25,2.25,2.25,4.0,-1.05,0.58,3.77,186.99,0.0,-56.8,6.25,0.75,5.0,3.5,1.5,2.0,0.5,0.5,0.25,0.0,0.0,0.0,0.5,0.52,0.52,3.14,346.57,-20.4,60.9
2.28,0.5,0.75,0.75,2.0,2.5,3.5,0.0,5.75,2.75,6.0,3.5,3.75,5.0,0.33,0.27,1.33,303.68,-4.1,-39.2,3.0,0.25,3.25,3.0,2.25,2.25,0.0,0.5,0.75,0.0,0.0,0.5,0.5,0.45,-1.05,1.45,239.06,-13.5,44.6
2.3,1.25,0.75,3.0,3.25,2.5,4.25,3.25,6.75,4.0,7.5,3.25,4.75,5.75,-0.11,0.14,0.89,477.26,-0.2,-30.2,1.5,0.0,1.0,3.0,2.75,2.5,0.0,0.5,0.75,0.0,0.75,0.5,0.25,0.7,-0.42,1.7,152.77,-6.3,32.3
2.32,1.0,0.75,4.25,2.75,6.0,4.5,4.25,7.5,5.0,8.0,5.0,5.25,5.75,-0.05,0.14,0.95,706.82,0.5,-25.6,1.25,0.0,1.0,0.5,3.0,2.25,0.0,0.5,0.75,0.0,0.75,0.0,0.25,0.83,-1.36,1.77,78.42,-3.2,31.7
2.34,1.5,0.75,4.5,3.0,4.5,5.25,4.25,7.75,5.5,8.75,6.5,5.5,6.75,-0.11,0.14,0.95,911.84,0.7,-29.1,0.25,0.0,0.0,0.5,0.25,1.5,0.0,0.0,0.5,0.0,0.0,0.25,0.25,0.52,-1.11,0.95,0.0,3.3,12.2
2.36,1.25,0.75,4.75,3.25,6.25,5.25,4.25,8.0,5.75,8.5,6.75,5.25,6.75,-0.11,0.08,0.95,1071.9,0.7,-26.0,0.5,0.0,0.0,0.25,0.25,0.0,0.0,0.0,0.5,0.0,0.0,0.5,0.0,0.27,-0.55,0.33,0.0,-15.1,1.3
2.38,1.25,0.75,5.0,4.0,6.25,5.25,4.25,8.0,5.5,8.5,6.5,5.25,6.75,-0.11,0.08,0.95,1164.21,1.0,-24.5,0.0,0.0,0.0,0.5,0.25,0.0,0.25,0.0,0.5,0.0,0.0,0.0,0.0,0.08,-0.3,0.33,0.0,-12.5,21.0
2.4,1.5,0.75,4.5,4.5,6.25,5.25,4.25,8.0,5.5,8.0,6.25,4.0,6.25,-0.11,0.08,0.95,1204.98,1.0,-21.1,0.75,0.0,0.0,2.25,0.25,2.0,0.0,0.0,0.75,0.0,0.0,0.5,0.25,-0.17,-0.11,0.77,0.0,-4.5,25.7
2.42,1.75,0.75,4.5,4.75,6.25,5.75,4.25,8.0,5.75,7.25,6.0,3.5,5.75,-0.11,0.08,0.95,1206.92,1.2,-17.7,0.0,0.0,0.5,1.5,2.5,0.25,0.25,0.5,0.5,0.0,0.75,0.0,0.0,-0.3,-0.17,0.95,0.0,-5.8,27.6
2.44,1.25,0.75,4.75,4.75,6.25,5.5,4.25,8.0,5.75,7.0,5.75,3.0,5.5,-0.11,0.08,0.95,1166.07,1.3,-16.8,0.0,0.0,0.5,1.75,2.5,2.0,0.0,0.0,0.75,0.25,0.75,0.5,0.0,-0.11,-0.17,1.08,20.32,-1.6,21.4
2.46,1.75,0.75,4.75,4.75,6.25,5.5,4.5,7.75,5.75,6.75,5.25,2.0,5.0,-0.11,0.08,0.95,1105.16,1.7,-12.6,1.0,0.0,0.5,1.75,2.5,1.25,0.0,0.5,0.75,0.0,0.75,0.5,0.0,-0.11,-0.05,1.08,75.16,-6.1,27.1
2.48,1.25,0.75,5.0,4.75,6.25,5.5,3.75,7.5,5.5,5.25,4.75,2.25,4.25,-0.11,0.08,0.95,1015.54,2.0,-10.1,0.5,0.0,0.75,1.25,2.5,2.0,0.0,0.5,0.75,0.0,0.75,0.5,0.25,-0.17,0.08,1.2,111.61,-2.4,20.1
2.5,1.25,0.75,5.0,4.75,6.25,5.75,4.25,7.5,5.5,5.25,4.5,2.0,3.75,-0.11,0.08,0.95,933.84,2.1,-8.1,0.75,0.0,0.5,1.5,2.25,1.25,0.0,0.5,0.75,0.0,0.75,0.5,0.25,-0.11,0.2,1.52,129.78,-4.8,19.9
2.52,1.25,0.75,5.0,4.75,6.5,6.0,4.5,7.5,5.5,5.25,4.5,1.75,3.0,-0.11,0.08,0.95,861.68,2.3,-5.6,0.25,0.0,0.5,1.5,0.25,1.25,0.0,0.0,0.5,0.0,0.0,0.5,0.0,0.02,0.39,1.64,119.65,-7.8,26.6
2.54,1.75,0.75,5.0,5.5,7.0,6.75,4.5,7.5,5.75,5.25,4.5,1.0,3.0,-0.11,0.08,0.95,837.01,2.3,-1.5,0.0,0.0,0.5,1.5,0.25,2.0,0.0,0.5,0.75,0.0,0.75,0.25,0.0,0.08,0.52,1.95,114.19,-2.0,11.1
2.56,2.0,0.75,5.0,6.5,8.0,7.0,4.5,7.5,6.0,4.5,4.25,1.0,3.0,-0.11,0.08,0.95,845.26,2.7,2.1,0.0,0.0,0.0,1.25,1.75,0.0,0.0,0.0,0.25,0.0,0.75,0.0,0.0,0.14,0.83,2.33,97.71,-6.1,27.8
2.58,2.25,1.0,5.0,6.5,8.0,7.25,4.75,7.75,6.25,3.5,3.5,1.25,2.75,-0.11,0.08,0.95,866.31,3.1,5.1,0.0,0.0,0.0,0.75,0.25,1.25,0.0,0.0,0.75,0.0,0.0,0.0,0.0,0.33,1.58,3.02,82.19,1.8,24.2
2.6,2.75,1.0,5.5,8.0,8.75,7.5,4.75,7.75,6.25,3.25,3.5,1.25,2.25,-0.11,0.08,0.95,909.57,4.1,9.7,0.75,0.0,0.5,1.0,0.25,1.5,0.0,0.5,0.75,0.0,0.75,0.5,0.0,0.33,2.45,2.7,80.03,-6.4,10.4
2.62,3.0,1.5,6.0,10.0,9.5,7.75,5.0,7.5,6.0,3.25,3.25,1.0,2.0,-0.11,0.08,0.95,974.35,4.9,15.1,0.5,0.0,0.5,1.5,1.5,1.25,0.25,0.5,0.75,0.0,0.75,0.5,0.0,-0.05,3.52,1.08,91.5,-5.8,18.2
2.64,3.75,2.0,6.5,12.5,9.75,8.25,5.0,7.5,5.75,3.0,3.0,1.0,2.0,-0.11,0.08,0.95,1070.9,5.8,19.6,0.5,0.0,0.5,1.5,2.25,1.75,0.0,0.5,0.75,0.0,0.75,0.5,0.25,-0.48,4.77,-0.05,110.39,-2.7,18.6
2.66,5.25,2.25,8.0,14.0,12.0,8.25,5.5,6.75,5.25,3.25,2.5,1.0,1.25,-0.11,0.08,0.95,1200.98,7.3,26.9,0.5,0.0,0.5,1.0,2.25,0.0,0.0,0.5,0.75,0.0,0.75,0.5,0.25,-2.55,5.77,-1.67,117.12,-7.4,12.4
2.68,5.75,2.25,9.0,15.5,12.0,7.75,5.5,5.75,4.0,3.0,2.25,0.25,1.25,-0.11,0.14,0.95,1306.7,8.6,32.5,0.5,0.0,0.5,1.5,2.25,1.5,0.0,0.5,0.75,0.0,0.5,0.5,0.25,-0.3,0.02,0.14,128.62,-3.1,20.8
2.7,6.25,2.25,10.5,16.5,13.5,7.75,5.75,4.75,2.25,3.0,2.25,0.25,1.0,-0.11,0.14,1.08,1375.52,9.6,37.4,0.0,0.75,0.5,1.25,2.25,1.0,0.0,0.5,0.75,0.0,0.75,0.75,0.25,0.39,-0.36,2.95,133.63,-3.6,15.6
2.72,7.75,2.5,11.5,14.5,13.0,6.25,5.25,3.0,1.5,2.75,2.25,0.0,1.0,-0.11,0.2,1.14,1387.49,11.7,42.1,1.0,0.0,0.0,0.25,0.5,0.0,0.0,0.0,0.5,0.25,0.0,2.75,1.25,-0.23,0.58,0.64,128.09,-6.7,-52.3
2.74,8.5,3.0,12.5,16.0,13.0,5.75,4.75,3.0,1.5,3.0,1.75,1.0,1.0,-0.17,0.2,1.2,1406.71,12.4,42.0,0.0,0.0,0.0,0.0,0.0,2.0,0.0,0.5,1.25,2.0,1.75,4.0,3.0,-0.42,0.33,1.7,163.95,3.9,-73.5
2.76,9.0,3.5,13.5,16.0,12.0,4.25,4.0,2.5,1.5,2.75,2.0,0.75,1.0,-0.17,0.27,1.27,1400.04,14.1,44.2,0.5,0.75,0.0,1.5,2.5,2.5,0.0,2.25,2.5,4.75,3.25,6.25,5.0,0.45,0.64,1.95,264.78,2.3,-49.2
2.78,8.75,3.25,14.0,12.0,9.5,2.25,3.0,1.5,1.5,2.0,0.75,0.0,1.0,-0.17,0.33,1.33,1317.17,16.9,50.2,1.25,0.25,0.0,1.5,3.25,2.5,0.0,3.75,3.5,5.25,5.0,6.5,6.0,0.02,0.14,1.02,388.46,1.8,-49.0
2.8,10.0,4.0,14.0,10.0,8.0,2.0,1.0,1.0,1.0,3.0,1.25,0.5,1.0,-0.11,0.33,1.27,1187.39,17.4,48.8,1.5,0.5,1.0,1.5,3.25,2.75,1.0,4.75,4.5,5.75,6.75,6.75,5.75,0.02,0.2,0.95,560.23,0.0,-44.5
2.82,9.5,3.75,12.5,7.5,6.5,1.75,1.75,2.25,1.0,3.0,1.25,0.75,1.0,-0.36,0.58,2.02,1024.43,16.7,44.2,1.25,0.75,1.0,2.75,4.5,3.75,1.25,5.25,5.25,6.5,7.25,7.0,6.25,0.08,0.2,0.95,729.52,0.3,-39.2
2.84,8.5,2.5,10.5,6.5,6.25,1.75,2.25,2.25,1.0,2.5,1.25,0.5,1.0,-0.73,1.08,2.39,860.74,16.1,42.6,1.5,0.5,1.0,2.75,4.5,4.5,1.75,5.75,5.5,6.5,7.5,7.0,6.75,0.08,0.14,0.95,859.74,0.5,-38.8
2.86,7.5,2.25,9.0,4.75,6.25,1.75,2.5,1.75,1.0,2.5,1.25,0.75,1.0,-0.73,0.83,2.39,707.07,15.3,39.7,0.75,1.0,1.0,2.75,4.5,4.75,2.0,5.75,6.0,6.5,8.0,7.0,6.5,0.08,0.14,0.95,946.55,0.6,-38.8
2.88,5.75,0.75,6.75,2.0,2.5,0.0,2.0,1.5,0.5,0.5,0.25,0.25,0.0,-0.42,0.52,2.7,484.54,22.6,53.0,0.0,0.25,2.0,2.75,4.75,4.75,2.25,6.0,6.0,6.5,7.75,6.5,6.0,0.08,0.14,0.95,988.74,0.5,-38.5
2.9,3.0,0.5,4.25,0.0,2.25,0.0,0.75,0.75,0.5,0.5,0.5,0.0,5.25,-0.48,-0.48,2.58,309.94,10.4,1.3,1.0,1.0,1.75,2.75,4.75,4.75,2.25,6.0,6.0,5.75,7.5,6.0,5.75,0.08,0.14,0.95,995.07,-0.1,-33.0
2.92,0.75,0.75,1.75,2.0,4.5,0.0,0.5,0.25,0.5,0.5,0.25,0.0,0.0,-0.48,-0.67,1.77,183.05,10.2,46.8,2.0,1.0,2.0,3.0,4.75,4.75,2.25,5.75,6.0,4.75,6.75,5.5,4.75,0.08,0.14,0.95,954.17,-1.4,-26.1
2.94,1.25,0.0,3.0,0.0,3.5,0.0,0.75,1.0,0.5,0.5,1.0,0.0,0.5,-1.17,-0.98,2.58,89.26,11.7,25.0,1.75,1.0,2.25,3.0,4.75,4.75,2.25,5.75,5.75,4.5,6.5,4.5,4.0,0.08,0.14,0.95,893.9,-1.6,-22.7
2.96,0.75,0.0,1.75,0.0,2.5,0.0,0.5,0.75,0.5,0.5,0.25,0.25,0.0,-0.55,-1.23,1.64,10.66,10.4,26.4,1.25,1.0,2.25,2.75,5.0,4.75,2.25,5.75,5.5,3.25,5.25,3.25,3.0,0.08,0.14,0.95,799.89,-1.4,-16.5
2.98,1.75,0.0,1.5,1.5,3.0,0.0,1.5,1.25,0.5,0.5,1.25,0.5,1.0,-0.42,-0.67,0.83,8.32,9.7,13.3,1.25,0.5,2.75,3.25,5.5,4.75,2.25,5.5,5.5,2.5,4.75,2.5,2.25,0.08,0.14,0.95,701.87,-2.3,-10.0
3.0,0.75,0.0,3.0,0.0,2.5,0.25,1.0,1.0,0.75,2.5,1.0,0.75,1.0,-0.36,-0.48,0.39,29.54,6.9,-6.3,1.75,1.0,3.5,3.25,5.75,5.0,2.25,5.5,5.5,2.0,4.5,2.0,1.5,0.08,0.14,0.95,629.53,-3.6,-1.5
3.02,1.5,0.0,3.0,0.0,3.0,0.0,1.5,1.0,0.75,2.5,1.0,0.75,1.0,-0.3,-0.42,0.39,76.73,8.6,0.4,1.75,1.25,3.5,3.5,6.5,5.0,2.25,5.25,5.5,1.75,4.0,2.0,1.25,0.08,0.14,0.95,595.32,-3.9,2.6
3.04,1.25,0.25,3.0,0.0,3.0,1.0,1.0,1.0,0.75,2.0,1.0,0.5,1.0,-0.17,-0.36,0.7,111.2,6.8,6.3,2.5,1.25,3.75,5.25,6.5,5.75,2.25,5.0,5.5,1.75,3.25,1.25,1.25,0.08,0.14,0.95,593.52,-4.6,10.6
3.06,1.25,0.5,2.75,1.25,3.0,1.0,1.25,1.0,0.75,2.25,1.25,0.5,1.0,-0.05,-0.3,0.83,156.16,7.1,8.6,3.0,1.5,3.75,5.25,6.5,5.75,2.5,5.0,5.5,1.5,3.25,1.0,1.25,0.08,0.14,0.95,604.94,-5.1,13.2
3.08,1.25,0.75,3.0,2.0,3.0,1.0,1.5,1.0,0.75,2.0,1.0,0.5,1.0,0.02,-0.17,0.95,195.76,8.4,15.0,3.75,1.5,3.75,6.25,7.5,5.75,2.75,5.0,5.5,1.5,3.0,0.75,1.25,0.08,0.14,0.95,640.74,-5.6,17.5
3.1,1.25,0.75,3.0,1.25,3.5,1.75,1.25,1.0,0.0,1.0,1.25,0.75,1.0,-0.05,-0.11,1.02,226.89,7.5,19.5,5.25,1.5,4.75,7.0,8.0,6.0,3.0,5.0,5.5,1.5,2.75,0.75,1.5,0.08,0.14,0.95,701.33,-7.0,21.4
3.12,0.5,0.5,2.5,0.0,3.5,0.5,0.75,0.75,0.5,0.5,0.0,0.25,0.0,-0.17,0.02,1.14,223.84,9.2,36.7,5.75,1.75,5.75,8.75,8.75,6.25,3.25,5.0,5.5,1.5,3.0,0.5,1.25,0.08,0.14,0.95,793.25,-8.0,25.6
3.14,0.25,0.0,2.25,0.0,3.0,0.0,1.5,0.75,0.5,0.5,0.0,0.0,0.0,-0.3,0.08,1.27,195.49,11.1,33.4,6.75,1.75,7.25,10.5,9.25,6.75,3.5,4.75,5.0,1.5,2.5,0.5,1.0,0.08,0.2,0.95,905.84,-9.3,31.1
3.16,1.25,0.75,0.5,0.0,2.5,0.5,1.75,1.75,0.5,0.5,1.25,0.0,1.0,-0.3,0.2,1.7,176.05,3.8,7.4,7.75,2.25,8.0,12.0,11.0,7.0,4.0,3.75,4.5,1.25,2.25,0.5,1.0,0.08,0.2,0.95,1037.3,-10.3,36.8
3.18,0.75,0.5,0.5,0.25,2.5,0.5,0.75,0.75,0.75,1.25,0.25,0.75,0.0,-0.36,0.45,1.95,154.83,3.4,10.0,8.5,2.5,8.75,14.0,12.0,7.0,3.75,3.5,3.25,0.75,2.25,0.5,0.75,0.08,0.2,0.95,1164.08,-11.1,41.9
3.2,1.25,0.75,2.0,2.0,3.0,1.5,1.75,1.25,0.75,1.25,1.0,0.5,1.0,-0.42,0.64,2.39,182.98,6.7,16.0,9.5,2.5,9.5,15.5,14.0,5.75,3.5,2.25,2.0,0.25,1.5,0.5,0.5,0.02,0.2,1.08,1264.88,-12.8,49.5
3.22,0.25,0.0,0.5,0.0,2.5,0.0,0.5,0.75,0.25,1.0,0.0,0.25,0.0,-0.61,1.33,6.39,153.75,0.4,12.1,10.0,2.5,11.0,0.0,15.0,7.0,2.5,2.0,1.25,0.25,1.25,0.5,0.25,0.02,0.2,1.14,1201.44,-11.4,50.6
3.24,0.25,0.0,0.5,0.0,2.5,0.25,0.75,0.75,0.25,0.75,0.0,0.0,0.0,-0.73,1.2,0.52,132.06,0.5,22.0,11.0,3.25,11.0,15.0,15.0,0.0,1.75,1.25,0.75,0.0,0.75,0.5,0.25,0.08,0.27,1.27,1194.15,-17.2,58.9
3.26,0.5,0.0,0.5,0.0,2.5,0.0,0.75,0.75,0.5,0.5,0.0,0.0,0.0,-0.73,3.77,1.39,94.68,3.9,26.0,12.0,3.0,12.0,16.5,14.5,4.0,1.0,0.5,1.25,0.0,1.5,0.5,0.5,0.14,0.33,1.27,1226.44,-15.8,56.5
3.28,0.5,0.0,1.0,0.0,2.5,1.5,0.75,0.75,0.5,2.0,0.0,1.0,0.0,1.45,5.64,-1.67,99.62,-0.3,1.2,11.5,2.5,11.0,14.0,13.0,3.0,0.5,0.5,0.25,0.0,0.75,0.0,0.25,0.14,0.39,1.45,1204.21,-16.6,61.5
3.3,0.5,0.0,2.75,0.25,2.5,0.75,0.5,0.75,0.75,0.5,0.0,0.75,0.0,3.58,6.52,-2.73,108.68,10.5,23.8,12.5,3.0,11.0,10.5,9.25,3.25,1.0,0.5,0.75,0.0,0.0,0.0,0.5,0.14,0.52,1.77,1120.16,-18.3,63.3
3.32,1.0,0.75,0.25,1.5,2.5,1.25,1.5,0.75,0.75,2.75,0.25,0.5,0.25,-0.42,-0.3,2.89,146.15,1.6,9.0,11.5,2.5,9.5,8.75,6.75,2.5,2.25,0.5,0.75,0.0,0.0,0.0,0.25,0.58,0.77,1.95,961.06,-19.8,64.1
3.34,1.25,0.75,0.25,0.0,0.0,0.5,0.75,2.75,1.0,2.0,1.25,1.0,1.25,0.14,2.2,2.95,166.24,0.0,-33.0,9.5,1.25,8.0,5.25,1.5,2.0,2.25,0.0,0.5,0.0,0.0,0.0,0.0,0.7,1.33,2.45,705.26,-25.0,68.2
3.36,0.0,0.75,0.0,2.0,0.0,3.0,1.75,2.75,2.25,4.25,2.5,3.5,4.25,0.08,0.27,1.2,240.56,-3.0,-47.6,6.0,0.0,6.0,3.0,0.25,0.0,1.0,0.0,0.25,0.0,0.0,0.0,0.0,0.52,1.27,3.2,426.71,-31.6,70.6
3.38,1.0,0.0,1.75,1.0,0.5,2.5,2.0,5.0,2.75,4.25,2.75,3.0,3.75,0.02,0.27,1.08,299.64,-0.7,-40.2,4.0,1.0,2.5,2.75,0.25,0.0,0.0,0.0,0.5,0.0,0.0,0.0,0.0,0.45,0.14,3.08,249.9,-26.9,71.6
3.4,1.25,0.75,3.0,2.25,2.5,3.25,3.25,5.75,3.0,5.25,4.5,3.75,4.75,-0.11,0.14,0.95,420.79,1.2,-28.4,1.75,0.75,0.75,2.0,0.25,0.5,0.0,0.0,0.75,0.0,0.0,0.25,0.0,0.33,-1.05,-0.17,104.97,-18.7,54.1
3.42,1.25,0.75,3.25,2.5,2.5,4.25,3.5,6.75,4.0,6.75,5.25,4.25,5.0,-0.11,0.14,0.89,568.97,0.5,-30.0,0.25,0.0,0.75,0.5,0.25,0.0,0.0,0.0,0.5,0.0,0.0,0.0,0.0,0.64,-1.3,2.02,0.0,-22.4,41.8
3.44,1.25,0.75,4.25,3.25,6.0,4.5,4.25,7.5,4.75,7.75,6.0,5.5,5.5,-0.11,0.14,0.95,765.48,1.0,-24.9,0.0,0.0,1.0,1.0,0.25,0.0,0.0,0.0,0.5,0.0,0.0,0.0,0.0,0.89,-1.36,1.08,0.0,-21.8,41.9
3.46,1.5,0.75,5.0,3.25,6.25,5.25,4.25,8.0,5.25,7.75,6.5,5.25,6.25,-0.05,0.08,0.95,951.8,1.1,-23.7,0.0,0.0,0.0,0.5,0.25,0.0,0.0,0.0,0.5,0.0,0.0,0.0,0.0,0.7,-1.05,0.77,0.0,-10.7,20.5
3.48,1.25,0.75,4.75,4.5,6.25,5.5,4.5,8.25,5.25,8.25,6.5,5.0,6.25,-0.11,0.14,0.95,1095.49,0.9,-22.6,0.0,0.0,0.0,0.75,0.25,0.0,0.0,0.0,0.5,0.0,0.0,0.0,0.0,0.33,-0.67,0.58,0.0,-11.8,26.7
3.5,1.25,0.75,5.0,4.75,6.25,6.0,4.5,8.5,5.25,7.25,6.0,4.25,6.0,-0.11,0.14,0.95,1168.85,1.1,-19.0,0.0,0.0,0.0,0.25,0.25,0.0,0.0,0.0,0.5,0.0,0.0,0.0,0.0,0.02,-0.3,0.52,0.0,-9.1,11.1
3.52,1.25,0.75,5.0,4.75,6.25,6.5,4.5,8.5,5.25,7.0,6.0,3.5,5.75,-0.11,0.14,0.95,1188.0,0.9,-17.0,0.0,0.0,0.0,0.25,0.25,0.0,0.0,0.0,0.5,0.0,0.0,0.0,0.0,-0.11,-0.11,0.7,0.0,-9.1,11.1
3.54,1.25,0.75,5.0,4.75,6.5,6.75,4.5,8.5,5.25,6.75,5.25,2.5,5.0,-0.11,0.14,0.95,1164.28,0.8,-12.8,0.0,0.0,0.0,0.25,0.25,0.0,0.0,0.0,0.5,0.0,0.0,0.0,0.0,-0.17,-0.11,0.89,0.0,-9.1,11.1
3.56,1.5,0.75,5.0,4.75,6.75,6.75,4.5,8.5,5.25,6.5,4.75,2.25,4.75,-0.11,0.14,0.95,1122.63,1.0,-10.5,0.0,0.0,0.0,0.5,0.25,0.0,0.0,0.0,0.5,0.0,0.0,0.0,0.0,0.02,-0.05,0.95,0.0,-10.7,20.5
3.58,1.5,0.75,5.25,5.25,7.75,6.75,4.5,8.5,5.0,5.25,4.5,2.25,3.25,-0.11,0.14,0.95,1073.48,1.8,-4.0,0.25,0.5,0.0,2.25,0.25,0.5,0.0,0.0,0.5,0.0,0.0,0.5,0.0,0.08,0.02,1.14,0.0,-11.0,34.6
3.6,1.75,0.75,5.25,5.75,8.0,7.0,4.5,8.25,4.75,5.25,3.5,1.5,3.0,-0.11,0.14,0.95,1013.6,1.8,0.6,0.0,0.0,0.5,0.25,2.5,0.75,0.25,0.5,0.75,0.0,0.75,0.5,0.25,0.14,0.08,1.33,43.71,-1.6,5.9
3.62,2.0,1.0,5.25,6.25,8.0,7.25,4.25,8.0,4.25,5.25,3.25,1.25,2.75,-0.11,0.14,0.95,970.39,2.0,3.8,1.0,0.0,0.5,1.75,2.75,1.25,0.25,0.5,0.75,0.0,0.75,0.5,0.25,0.14,0.27,1.52,102.68,-5.6,24.5
3.64,2.0,0.75,4.75,6.5,8.0,7.75,4.25,8.0,4.0,4.5,2.5,0.75,2.25,-0.11,0.14,0.95,912.08,1.6,7.8,0.25,0.0,0.5,0.25,2.25,0.0,0.25,0.5,0.25,0.0,0.75,0.0,0.25,0.14,0.52,2.02,118.74,-4.8,18.3
3.66,2.5,0.75,5.0,6.5,8.0,8.0,4.25,8.0,3.75,4.25,2.25,1.0,1.75,-0.11,0.14,0.95,870.98,2.1,10.5,0.0,0.0,0.0,0.25,0.25,0.0,0.0,0.0,0.25,0.0,0.0,0.0,0.0,0.27,0.77,2.2,99.43,-8.2,26.4
3.68,2.75,0.75,5.0,8.0,8.75,8.25,4.25,8.0,3.25,4.0,2.25,1.0,2.0,-0.11,0.14,0.95,857.76,2.4,13.1,0.0,0.0,0.0,0.0,0.25,0.0,0.0,0.0,0.25,0.0,0.0,0.0,0.0,0.33,1.14,2.95,62.54,-3.8,11.1
3.7,3.0,1.0,5.25,8.0,9.5,8.5,4.25,7.5,3.25,3.25,2.25,1.0,1.75,-0.11,0.14,0.95,869.47,3.0,16.9,0.0,0.0,0.0,0.0,0.25,0.0,0.0,0.0,0.25,0.0,0.0,0.0,0.0,0.33,2.2,3.02,32.46,-3.8,11.1
3.72,3.75,1.25,6.0,10.0,9.5,8.5,4.5,7.5,3.25,3.5,2.25,1.0,1.75,-0.11,0.14,0.95,920.97,4.3,19.8,0.0,0.0,0.0,0.0,0.25,0.0,0.0,0.0,0.25,0.0,0.0,0.0,0.0,0.45,3.27,2.08,13.41,-3.8,11.1
3.74,5.5,1.5,6.75,12.0,10.0,8.5,4.5,7.0,3.0,3.25,2.25,1.0,1.25,-0.11,0.14,0.95,1003.23,6.2,26.1,0.0,0.0,0.0,0.25,0.25,0.0,0.0,0.0,0.0,0.0,0.0,0.0,0.0,0.14,4.64,-1.05,6.41,-6.4,55.5
3.76,5.75,1.25,7.25,13.0,12.0,8.75,4.75,6.75,2.75,3.0,2.25,0.75,1.0,-0.11,0.14,0.95,1102.68,6.5,29.6,0.25,0.0,0.0,0.25,0.0,0.0,0.25,0.0,0.25,0.0,0.5,0.0,0.0,-2.61,5.33,-1.67,7.8,-18.4,-3.5
3.78,6.75,1.25,8.0,14.0,12.0,8.75,3.5,6.0,2.25,3.25,2.0,0.75,1.0,-0.11,0.14,0.95,1189.97,7.3,32.5,0.0,0.0,0.0,1.5,0.5,1.25,0.0,0.0,0.5,0.0,0.0,0.5,0.0,-3.73,4.2,1.02,24.63,-1.9,20.5
3.8,8.0,2.5,8.75,16.0,13.5,8.75,4.5,5.75,1.5,3.0,2.0,0.75,1.0,-0.11,0.14,1.02,1307.31,8.4,37.4,0.0,0.0,0.5,0.0,0.25,0.0,0.0,0.0,0.25,0.0,0.0,0.0,0.0,0.95,0.64,1.45,21.07,-20.7,35.5
3.82,8.75,1.75,10.0,17.0,12.5,8.75,3.5,4.75,1.25,3.0,2.0,0.75,1.0,-0.11,0.2,1.02,1368.63,9.6,39.1,0.0,6.75,0.0,0.25,1.25,1.0,0.25,0.5,0.75,0.0,0.75,0.5,0.25,0.58,-1.61,1.33,83.76,-6.3,50.6
3.84,10.0,2.5,10.5,16.5,14.0,8.5,3.5,3.25,1.0,3.0,1.25,0.75,1.0,-0.11,0.2,1.08,1421.9,10.5,43.8,1.0,0.25,0.0,0.0,1.5,0.0,0.25,0.5,0.0,0.0,0.75,0.5,0.25,-1.05,-0.05,-0.11,93.5,-6.8,11.1
3.86,9.0,2.75,11.5,15.0,12.5,6.75,2.5,3.0,1.0,0.5,1.25,0.5,1.0,-0.17,0.2,1.14,1400.66,12.5,48.6,0.75,0.0,0.0,0.5,0.0,1.0,0.0,0.0,0.75,1.25,0.0,1.5,1.25,-0.55,0.2,2.77,116.56,0.4,-42.8
3.88,10.5,2.5,12.0,14.5,12.5,5.5,2.25,0.75,0.5,0.5,1.25,0.5,1.0,-0.17,0.27,1.14,1355.01,14.8,53.4,0.75,0.5,0.25,1.75,2.25,2.5,0.0,3.0,1.25,4.75,2.5,3.25,3.75,0.58,1.2,1.64,209.39,3.6,-38.2
3.9,10.0,2.75,11.5,13.0,9.5,3.75,0.75,0.0,0.75,2.0,0.0,0.5,0.5,-0.23,0.27,1.33,1217.34,16.3,55.6,1.25,0.5,0.5,1.5,2.25,3.0,0.0,4.75,2.0,5.75,2.5,4.5,4.75,-0.23,0.08,1.27,312.97,3.7,-41.3
3.92,10.5,3.25,12.0,12.0,8.75,2.5,0.0,0.75,0.5,0.5,1.0,0.75,1.0,-0.23,0.39,1.52,1082.28,17.7,55.2,0.5,0.0,0.0,0.25,0.25,3.0,0.0,4.75,2.75,5.5,3.25,5.0,5.75,0.14,0.14,0.95,412.82,5.8,-63.7
3.94,10.0,3.5,10.5,7.5,7.75,1.5,0.0,0.75,0.5,0.5,0.0,0.5,0.75,-0.3,0.58,1.95,900.51,18.6,59.7,3.5,0.5,0.75,1.5,3.75,4.75,0.0,5.75,3.25,6.75,5.25,5.5,6.0,0.08,0.14,0.95,572.12,1.7,-34.3
3.96,10.5,3.75,9.0,6.5,7.25,2.0,1.0,2.0,0.75,3.0,1.25,0.5,1.0,-0.8,0.95,2.27,796.95,15.1,45.6,3.25,0.5,1.0,2.0,4.5,5.0,1.0,6.25,3.75,6.5,5.5,5.25,6.0,0.08,0.14,0.95,707.03,1.2,-30.7
3.98,9.25,2.25,9.0,5.75,6.25,2.0,1.5,1.75,0.75,1.75,1.25,0.5,1.0,-0.73,0.83,2.7,682.95,16.2,45.8,3.5,0.75,1.0,2.5,4.75,5.75,1.0,6.75,4.5,6.5,5.25,4.5,5.5,0.08,0.14,0.95,810.77,1.2,-25.3
4.0,7.75,2.25,6.5,4.75,6.25,1.5,1.0,1.5,0.75,1.75,0.75,0.25,1.0,-0.73,0.58,2.64,576.62,14.7,45.9,5.0,0.75,1.0,2.75,4.75,6.0,1.0,6.75,4.5,5.75,5.0,3.25,4.75,0.14,0.14,0.95,864.95,0.1,-16.9
4.02,6.0,0.75,5.0,1.75,6.25,1.75,0.75,1.25,0.75,2.5,0.75,0.75,1.0,-0.73,0.27,3.08,447.94,11.2,33.2,5.5,0.75,1.0,2.75,5.75,6.75,1.0,6.75,4.5,4.75,4.5,2.0,3.25,0.14,0.14,0.95,885.07,-0.2,-6.3
4.04,3.0,0.75,3.25,0.75,5.0,1.75,0.75,1.0,0.75,2.75,1.0,0.0,0.75,-0.8,-1.05,1.95,326.53,7.0,24.9,5.75,1.0,1.0,2.75,6.25,7.0,1.0,6.75,4.0,3.5,3.5,2.0,2.25,0.14,0.14,0.95,860.39,-0.7,1.6
4.06,1.5,0.0,1.75,0.0,2.5,0.0,0.0,0.5,0.5,0.5,0.0,0.25,0.0,-1.3,-1.55,2.45,198.32,12.8,38.0,6.0,1.0,1.0,2.0,6.5,7.0,1.0,6.75,3.75,3.25,2.75,1.0,1.5,0.14,0.14,0.95,801.93,-0.4,7.9
4.08,1.25,0.0,1.0,0.0,2.25,0.0,0.5,0.5,0.5,0.5,0.0,0.75,0.0,-0.73,-1.61,1.39,82.59,10.4,22.6,6.5,1.0,0.75,2.5,6.5,7.5,0.75,6.75,3.75,2.75,2.75,1.0,1.0,0.14,0.14,0.95,761.77,-0.8,11.8
4.1,1.0,0.0,1.0,0.0,2.5,0.25,0.75,0.75,0.5,0.5,0.0,0.0,0.0,-0.48,-0.86,0.64,2.3,7.5,33.4,7.0,1.0,1.0,2.75,6.5,7.5,0.75,6.75,4.5,3.0,3.0,1.0,1.25,0.27,0.2,0.89,726.92,-1.5,10.8
4.12,1.0,0.0,1.0,0.0,3.5,0.0,1.0,0.75,0.5,0.5,1.25,0.0,1.0,-0.42,-0.8,0.14,0.0,5.6,8.9,7.0,1.0,1.0,2.75,6.75,7.5,0.75,7.0,4.5,2.75,2.75,1.0,1.5,0.08,0.14,0.95,699.11,-1.3,11.0
4.14,1.5,0.75,1.75,0.25,3.0,1.75,1.0,0.75,0.75,1.75,0.75,0.0,1.0,-0.17,-0.61,0.33,26.47,4.1,15.9,7.25,1.0,0.75,2.75,6.75,7.75,0.5,6.75,4.5,2.25,3.25,0.75,1.5,0.14,0.14,0.95,690.63,-1.4,12.2
4.16,1.25,0.75,0.75,0.0,2.5,0.25,0.75,0.75,0.75,2.75,0.0,0.75,0.0,0.27,-0.67,0.39,54.52,3.2,5.6,7.5,1.0,0.75,2.25,6.75,7.5,0.5,6.5,3.75,1.75,2.75,0.5,1.25,0.14,0.14,0.95,665.76,-1.6,16.7
4.18,1.25,0.75,2.75,0.75,2.5,1.75,0.75,0.75,0.75,2.25,0.5,1.25,1.0,0.27,-0.48,0.52,109.6,5.9,6.8,7.75,1.0,1.0,2.5,6.75,7.5,0.5,5.75,3.25,1.5,2.5,0.5,1.0,0.14,0.14,0.95,628.39,-2.5,21.2
4.2,1.25,0.75,2.25,1.0,3.0,1.75,1.0,0.75,0.75,2.25,0.75,0.5,1.0,0.08,-0.23,0.58,144.33,4.8,11.7,7.75,0.75,1.0,2.75,7.0,7.5,0.25,5.25,3.25,1.5,2.25,0.5,1.25,0.08,0.14,0.95,603.49,-2.5,21.6
4.22,1.75,0.75,2.25,0.75,2.25,1.75,0.75,1.0,0.75,2.5,1.0,0.5,1.0,-0.11,0.08,0.89,184.92,5.2,7.8,8.0,0.5,1.0,2.75,6.75,7.0,0.25,4.5,2.5,0.75,2.25,0.5,0.75,0.08,0.08,0.95,570.13,-3.8,27.3
4.24,2.0,0.75,1.25,2.0,2.5,1.75,0.75,1.0,0.75,2.0,1.0,0.5,1.0,-0.42,2.39,1.14,213.78,5.0,12.8,7.75,0.5,1.0,2.5,6.5,6.0,0.25,3.5,2.5,0.25,2.0,0.5,0.75,0.02,0.02,1.02,527.03,-5.1,30.4
4.26,1.25,0.0,2.5,0.75,3.5,0.0,0.75,1.0,0.5,0.5,1.0,0.0,0.25,-0.42,1.14,1.58,218.21,11.4,28.4,7.75,0.5,1.0,1.5,5.75,4.75,0.0,2.25,2.0,0.0,2.0,0.5,0.5,-0.05,0.14,0.89,460.95,-7.1,34.9
4.28,1.25,0.0,1.25,0.5,2.5,1.0,0.25,0.0,0.5,0.5,0.0,0.0,0.0,-0.36,3.27,1.02,197.29,8.8,44.9,6.75,0.0,1.0,2.25,4.75,3.75,0.25,2.0,2.0,0.25,2.0,0.5,0.5,-0.11,0.45,0.89,394.39,-8.0,30.9
4.3,6.0,0.0,0.25,1.5,0.0,3.0,0.5,0.75,0.5,1.0,0.0,0.25,0.0,0.64,4.27,1.2,195.76,11.9,46.7,7.0,0.0,1.0,2.5,4.5,2.75,0.25,1.5,1.75,0.0,2.0,0.5,0.25,0.08,0.39,0.95,342.12,-10.7,36.2
4.32,1.5,0.5,0.5,2.0,2.25,1.75,0.75,2.75,0.5,0.0,0.0,0.0,0.25,1.83,6.95,0.2,188.83,2.5,31.0,7.25,0.0,1.0,2.5,4.5,2.5,0.0,0.75,1.75,0.0,2.25,0.5,0.0,0.27,0.27,1.14,303.39,-12.3,39.8
4.34,1.25,0.75,0.0,1.0,0.0,3.5,0.25,2.75,0.5,0.75,0.0,0.5,0.0,1.58,0.08,0.83,180.23,-4.6,11.9,6.75,0.5,1.0,2.25,4.5,2.5,0.0,0.75,1.5,0.0,2.0,0.5,0.25,0.27,0.14,1.27,283.58,-11.5,40.1
4.36,1.25,0.75,0.25,0.5,3.0,5.25,0.5,3.0,0.75,0.5,0.5,0.5,0.0,-0.05,0.27,1.02,196.23,-5.2,19.5,5.75,0.75,1.0,2.75,4.25,2.0,0.0,0.5,1.25,0.0,2.0,0.5,0.0,0.08,0.33,1.27,269.48,-12.3,42.4
4.38,3.0,2.0,1.25,2.0,3.0,6.25,0.25,3.25,0.5,1.5,1.0,0.75,1.0,-0.55,-0.05,1.2,250.69,0.0,21.0,5.5,0.25,1.0,1.5,3.0,1.5,0.0,0.5,1.25,0.0,2.25,0.5,0.25,0.08,0.33,1.45,246.85,-13.4,34.2
4.4,3.0,2.25,0.25,2.0,4.5,7.0,0.25,3.25,0.75,0.75,0.25,0.5,1.0,-0.05,0.33,1.08,299.27,-2.1,28.9,3.5,0.25,1.0,2.0,2.25,1.25,0.0,0.0,1.25,0.0,2.25,0.5,0.25,0.08,0.33,1.27,215.79,-13.4,28.3
4.42,4.0,1.0,0.75,1.0,6.25,6.75,0.0,3.0,0.5,2.0,0.75,0.5,1.0,-0.11,0.33,0.95,353.32,-2.0,24.0,3.75,0.25,0.75,1.75,2.75,0.0,0.0,0.0,1.25,0.0,0.75,0.25,0.0,0.08,0.27,1.2,178.17,-17.1,47.8
4.44,4.75,2.5,0.25,2.0,6.25,7.5,0.0,3.0,0.5,1.75,0.75,0.5,1.0,-0.3,0.27,0.7,409.36,-0.8,30.9,1.75,0.25,0.0,1.0,0.25,1.5,0.25,0.0,1.0,0.0,0.75,0.5,0.0,0.2,0.14,1.14,125.83,-10.5,23.7
4.46,5.25,3.75,0.25,2.0,6.25,7.75,0.0,3.0,0.5,2.0,0.75,0.75,1.0,-0.8,0.27,0.89,469.17,0.0,32.6,0.5,0.0,0.0,0.75,2.75,1.0,0.0,0.5,0.75,0.0,1.25,0.5,0.0,-0.17,-0.23,0.83,94.72,-1.9,11.9
4.48,5.75,4.0,0.5,2.0,6.5,7.75,0.0,3.0,0.5,2.0,0.75,0.75,1.0,-0.73,0.52,0.77,520.21,0.8,34.4,0.5,0.5,0.0,1.0,1.75,0.0,0.0,0.75,0.25,0.0,1.25,0.0,0.0,-1.3,-0.17,0.7,66.66,-6.0,21.6
4.5,5.75,4.0,0.5,2.25,6.0,7.25,0.0,2.5,0.5,1.75,1.0,0.5,1.0,-0.42,0.45,0.58,550.9,1.7,36.4,0.25,0.0,0.0,1.25,2.75,1.0,0.0,0.75,0.0,0.0,1.0,0.0,0.5,-2.73,0.89,-0.3,64.81,1.3,18.0
4.52,5.75,4.0,0.25,2.0,6.25,6.75,0.0,2.75,0.5,1.75,1.0,0.75,1.0,-1.11,1.08,0.33,558.96,1.5,34.6,0.25,0.5,0.0,1.25,2.5,2.0,0.0,1.0,0.0,0.0,0.75,0.0,0.5,-3.86,0.95,-0.55,72.7,3.4,24.0
4.54,5.5,3.5,0.5,2.0,6.25,5.0,0.0,1.75,0.75,1.5,1.0,0.5,1.0,-1.67,1.33,0.45,525.88,3.5,37.2,0.5,0.5,0.0,1.5,2.75,1.5,0.0,0.75,0.5,0.0,0.75,0.5,0.5,-3.17,-0.17,1.02,92.96,-0.5,18.9
4.56,3.0,0.75,0.25,0.0,3.5,3.25,0.0,0.25,0.5,1.75,0.0,0.25,0.0,-1.48,1.08,0.64,399.85,0.7,36.4,0.75,0.5,0.0,1.0,2.5,1.25,0.0,0.5,0.75,0.0,0.75,0.5,0.25,-0.73,-0.86,1.89,104.02,-2.4,20.9
4.58,3.75,0.5,1.5,0.0,0.0,1.75,0.5,0.0,0.5,0.0,0.75,0.0,0.0,-1.86,2.08,-1.05,285.0,19.8,55.0,1.0,0.25,0.25,0.75,1.25,1.0,0.0,0.5,0.75,0.0,0.75,0.5,0.5,-4.3,-2.05,3.89,105.69,-5.0,9.7
4.6,3.0,0.75,0.25,0.0,2.5,1.0,0.25,0.75,0.25,0.5,0.0,0.0,0.75,-0.61,-0.3,4.27,195.67,6.1,39.3,0.5,0.5,0.5,0.75,1.5,1.25,0.25,0.5,0.75,0.0,0.75,0.5,0.5,-1.11,-1.36,1.02,109.45,-3.9,11.5
4.62,3.0,0.75,0.25,0.0,1.25,1.75,0.25,0.75,0.25,0.5,0.0,0.25,0.0,-1.48,2.14,0.27,126.77,7.2,45.4,1.0,0.25,0.5,1.25,2.5,1.25,0.5,0.25,0.75,0.0,0.75,0.5,0.5,0.2,-1.55,-0.17,123.45,-5.9,22.0
4.64,1.75,0.5,0.0,0.0,0.75,0.5,0.25,0.75,0.5,0.5,0.0,0.0,0.0,-1.23,1.95,1.2,71.89,7.3,35.6,1.0,0.25,0.5,1.25,2.5,1.25,0.0,0.0,0.75,0.0,0.25,0.5,0.5,-0.67,-1.86,1.52,134.01,-5.5,28.7
4.66,1.25,0.5,0.25,0.0,2.25,0.25,0.25,0.75,0.5,0.5,0.0,0.0,0.0,-1.42,1.64,0.95,45.35,4.9,36.9,1.0,0.25,0.75,0.5,2.25,0.75,0.5,0.5,0.5,0.0,0.5,0.5,0.0,-1.36,-1.11,1.7,138.09,-8.0,29.3
4.68,1.25,0.75,0.0,0.0,0.75,0.25,0.25,0.75,0.5,0.5,0.0,0.0,0.0,-1.3,-0.55,0.64,16.9,6.4,33.1,0.75,0.25,0.5,1.25,2.25,1.25,0.25,0.5,0.75,0.0,0.75,0.5,0.25,-1.61,-0.11,2.33,144.26,-5.0,21.1
4.7,1.25,0.5,0.0,0.0,2.5,0.25,0.25,0.5,0.25,0.5,0.0,0.0,0.0,-1.8,-0.36,0.39,9.69,3.7,42.8,0.75,0.5,0.5,1.25,1.75,1.0,0.0,0.5,0.5,0.0,0.75,0.5,0.25,-1.86,0.27,2.27,139.94,-6.0,22.5
4.72,1.25,0.5,0.25,0.0,2.5,0.25,0.25,0.5,0.25,0.5,0.0,0.0,0.0,-1.23,-0.42,1.08,15.76,5.1,43.5,0.75,0.25,0.5,1.25,2.25,1.0,0.25,0.5,0.5,0.0,0.75,0.5,0.25,-1.42,0.2,1.45,139.9,-5.6,22.4
4.74,1.25,0.5,0.25,0.0,0.0,0.0,0.25,0.75,0.25,0.0,0.0,0.0,0.0,-1.86,-0.05,0.27,14.89,16.8,47.6,0.25,0.5,0.5,1.5,2.25,1.0,0.0,0.5,0.5,0.0,1.0,0.5,0.5,-1.11,0.14,1.27,139.41,-3.9,15.5
4.76,1.0,0.5,1.0,0.0,2.5,0.0,0.5,0.5,0.0,0.5,0.0,0.0,0.0,-1.42,0.39,0.45,36.05,9.1,46.7,0.75,0.25,0.5,1.5,2.25,1.25,0.0,0.5,0.5,0.0,0.5,0.5,0.5,-0.61,0.02,1.52,141.88,-4.1,22.5
4.78,1.0,0.5,0.25,0.0,2.5,0.0,0.25,0.5,0.0,0.0,0.0,0.0,0.0,-0.8,0.33,0.58,52.71,6.6,56.8,0.5,0.5,0.5,1.25,1.5,0.5,0.25,0.5,0.5,0.0,0.75,0.5,0.25,-0.17,-0.11,1.52,134.78,-7.7,18.4
4.8,1.0,0.25,0.25,0.0,1.75,0.0,0.25,0.5,0.0,0.0,0.0,0.0,0.0,-0.8,-0.17,0.7,69.12,8.4,54.9,0.25,0.25,0.5,0.75,1.5,0.75,0.25,0.5,0.5,0.0,0.75,0.5,0.25,0.27,-0.05,1.33,124.72,-4.8,10.1
4.82,0.75,0.25,0.5,0.0,2.25,0.0,0.25,0.5,0.0,0.0,0.0,0.0,0.0,-0.98,-0.55,0.64,70.29,7.3,52.9,0.25,0.25,0.5,1.5,1.75,0.75,0.25,0.5,0.5,0.0,0.75,0.5,0.5,0.45,0.02,0.83,120.72,-5.1,12.5
4.84,0.5,0.25,0.0,0.0,0.5,0.0,0.25,0.5,0.0,0.0,0.0,0.0,0.0,-0.98,-0.55,0.33,54.78,6.8,44.7,0.25,0.25,0.5,0.75,1.75,0.5,0.0,0.5,0.5,0.0,0.75,0.5,0.5,0.52,0.02,0.7,111.96,-4.2,6.4
4.86,0.5,0.0,0.25,0.0,0.0,0.0,0.25,0.5,0.0,0.0,0.0,0.0,0.0,-0.92,-0.36,0.08,38.05,16.1,33.7,0.75,0.25,0.25,1.25,2.25,0.0,0.0,0.5,0.5,0.0,0.75,0.5,0.5,0.58,-0.17,0.45,112.41,-6.9,15.3
4.88,0.25,0.0,0.0,0.0,0.75,0.0,0.0,0.25,0.0,0.0,0.0,0.0,0.0,-0.67,-0.17,-0.17,23.44,0.8,44.1,0.25,0.25,0.5,1.0,1.5,0.0,0.25,0.5,0.5,0.0,0.75,0.5,0.5,0.7,-0.42,0.2,107.86,-7.5,4.8
4.9,0.25,0.0,0.25,0.0,2.5,0.0,0.25,0.25,0.0,0.0,0.0,0.0,0.0,-0.61,-0.23,-0.17,28.84,2.1,49.8,0.5,0.25,0.5,1.25,1.75,0.25,0.0,0.5,0.5,0.0,0.75,0.5,0.5,0.89,-0.61,0.02,109.72,-6.9,12.0
4.92,0.25,0.25,0.25,0.0,1.75,0.0,0.5,0.5,0.0,0.0,0.0,0.0,0.0,-0.67,-0.36,-0.11,36.62,3.9,45.4,1.0,0.5,0.5,0.5,1.5,0.0,0.25,0.25,0.5,0.0,0.75,0.0,0.25,1.14,-0.92,-0.05,101.75,-11.8,31.0
4.94,0.25,0.0,0.25,0.0,2.5,0.0,0.25,0.5,0.0,0.5,0.0,0.0,0.0,-0.73,-0.42,-0.23,51.24,-0.8,30.9,0.75,0.75,0.75,1.0,1.0,0.25,0.25,0.25,0.75,0.0,0.75,0.5,0.25,1.14,-0.98,-0.11,104.57,-12.3,20.6
4.96,0.25,0.0,0.5,0.0,0.75,0.0,0.5,0.25,0.0,0.0,0.0,0.0,0.0,-0.61,-0.42,-0.48,48.66,13.5,46.3,0.5,0.5,0.5,1.25,1.5,0.0,0.0,0.5,0.5,0.0,0.25,0.5,0.25,1.02,-0.86,-0.11,101.61,-9.2,24.0
4.98,0.25,0.0,0.25,0.0,2.5,0.0,0.5,0.25,0.0,0.0,0.0,0.0,0.0,-0.48,-0.48,-0.61,55.09,3.1,49.1,0.5,0.5,0.5,1.25,2.25,0.0,0.0,0.25,0.5,0.0,0.75,0.5,0.5,0.89,-0.73,-0.17,108.84,-8.0,18.8
5.0,0.25,0.0,0.5,0.0,1.25,0.0,0.25,0.25,0.0,0.0,0.0,0.0,0.0,-0.23,-0.42,-0.61,46.49,8.8,48.8,0.5,0.25,0.5,0.25,1.5,0.0,0.25,0.5,0.5,0.0,0.5,0.5,0.0,0.89,-0.48,-0.42,101.12,-9.2,15.8
5.02,0.25,0.0,0.0,0.0,2.25,0.0,0.25,0.25,0.0,0.0,0.0,0.0,0.0,-0.11,-0.3,-0.48,50.91,-0.2,48.5,0.5,0.5,0.5,1.25,1.5,0.0,0.0,0.5,0.5,0.0,0.75,0.5,0.25,0.89,-0.17,-0.86,104.58,-9.3,17.2
5.04,0.0,0.0,0.75,0.0,2.5,0.0,0.25,0.5,0.0,0.0,0.0,0.0,0.0,0.02,-0.23,-0.42,58.3,3.6,43.3,1.25,0.5,0.5,1.0,2.25,0.0,0.25,0.5,0.5,0.0,0.75,0.5,0.25,0.89,-0.05,-1.11,111.82,-10.2,26.5
5.06,0.25,0.0,0.25,0.0,0.0,0.0,0.5,0.25,0.0,0.0,0.0,0.0,0.0,0.02,-0.17,-0.48,48.27,22.0,36.1,0.5,0.25,0.5,1.25,1.75,0.5,0.25,0.5,0.75,0.0,0.5,0.5,0.25,0.83,0.2,-1.17,117.16,-7.1,18.1
5.08,0.25,0.0,0.25,0.0,0.75,0.0,0.5,0.0,0.0,0.5,0.0,0.0,0.0,-0.05,-0.17,-0.48,43.99,7.1,25.6,0.5,0.5,0.5,1.5,1.75,0.25,0.0,0.25,0.5,0.0,0.75,0.5,0.25,0.77,0.33,-1.36,121.36,-9.0,22.3
5.1,0.0,0.0,0.25,0.0,1.25,0.0,0.25,0.5,0.0,0.5,0.0,0.0,0.0,-0.05,-0.11,-0.61,39.25,-2.5,13.8,0.5,0.5,0.5,1.5,1.75,0.25,0.25,0.25,0.5,0.0,0.75,0.5,0.25,0.89,0.33,-1.48,122.85,-9.3,22.4
5.12,0.25,0.0,1.0,0.0,1.75,0.25,0.0,0.5,0.0,0.5,0.0,0.0,0.0,-0.05,-0.11,-0.67,49.82,4.2,32.0,0.5,0.0,0.5,1.25,1.75,0.5,0.25,0.0,0.5,0.0,0.75,0.5,0.25,0.95,0.33,-1.23,119.58,-8.6,18.0
5.14,0.25,0.0,0.25,0.0,2.25,0.0,0.25,0.25,0.0,0.5,0.0,0.0,0.0,-0.05,-0.11,-0.73,55.64,0.3,33.7,0.5,0.25,0.5,1.0,1.75,1.75,0.25,0.5,0.75,0.0,0.75,0.5,0.5,0.77,0.27,-1.05,125.08,-2.4,12.9
5.16,0.0,0.0,0.25,0.0,0.5,0.0,0.25,0.0,0.0,0.5,0.0,0.0,0.0,-0.05,-0.17,-0.8,50.35,2.7,8.3,0.5,0.5,0.25,1.5,1.75,1.0,0.25,0.5,0.5,0.0,0.75,0.5,0.25,0.52,0.14,-0.73,129.45,-4.9,20.4
5.18,0.0,0.0,0.25,0.0,0.75,0.25,0.25,0.25,0.0,0.5,0.0,0.0,0.0,0.08,-0.17,-0.8,43.79,-2.9,11.6,0.5,0.5,0.5,1.5,1.5,1.0,0.25,0.25,0.5,0.0,0.75,0.5,0.25,0.2,0.08,-0.61,132.24,-7.0,22.3
5.2,0.25,0.0,0.25,0.0,2.25,0.0,0.25,0.5,0.0,0.5,0.0,0.0,0.0,0.2,-0.23,-0.73,48.71,-0.6,29.4,0.25,0.25,0.5,1.25,1.75,1.25,0.25,0.25,0.5,0.0,0.75,0.5,0.25,0.08,0.02,-0.61,130.71,-4.3,17.9
5.22,0.25,0.0,0.5,0.0,2.25,0.0,0.25,0.25,0.0,0.5,0.0,0.0,0.0,0.39,-0.3,-0.67,55.93,2.6,35.3,0.5,0.25,0.25,1.25,2.25,0.75,0.25,0.25,0.5,0.0,0.75,0.5,0.0,-0.3,-0.05,-0.48,128.2,-5.8,24.8
5.24,0.25,0.0,0.25,0.0,2.25,0.0,0.5,0.5,0.0,0.5,0.0,0.25,0.0,0.52,-0.3,-0.61,67.55,0.6,21.8,0.5,0.25,0.25,1.5,1.75,1.0,0.25,0.25,0.5,0.0,0.0,0.5,0.0,-0.55,-0.3,-0.23,122.33,-5.5,34.6
5.26,0.25,0.0,1.0,0.0,1.25,0.0,0.25,0.5,0.0,0.5,0.0,0.0,0.0,0.7,-0.3,-0.48,70.94,7.9,28.5,0.0,0.0,0.5,1.25,2.25,0.75,0.25,0.5,0.5,0.0,0.75,0.5,0.25,-0.73,-0.48,-0.05,118.65,-3.5,12.6
5.28,0.25,0.0,0.25,0.0,2.25,0.0,0.25,0.5,0.0,0.5,0.0,0.0,0.0,0.83,-0.23,-0.36,73.36,-0.6,29.4,0.0,0.0,0.5,0.25,1.5,0.0,0.25,0.0,0.5,0.0,0.75,0.5,0.0,-0.86,-0.61,0.02,99.76,-9.3,3.2
5.3,0.25,0.0,0.25,0.0,1.25,0.0,0.5,0.0,0.0,0.5,0.0,0.25,0.0,0.95,-0.23,-0.17,66.58,5.2,19.6,0.25,0.5,0.5,1.25,1.25,0.25,0.5,0.5,0.5,0.0,0.75,0.5,0.25,-0.92,-0.55,0.02,98.68,-8.7,13.9
5.32,0.25,0.0,0.25,0.0,1.75,0.0,0.25,0.5,0.0,0.5,0.0,0.0,0.0,0.95,-0.23,-0.11,62.64,-0.2,25.5,0.25,0.5,0.25,1.25,1.75,0.5,0.25,0.25,0.5,0.0,0.75,0.5,0.25,-0.55,-0.36,-0.23,97.79,-6.1,17.7
5.34,0.25,0.0,0.25,0.0,2.25,0.0,0.5,0.5,0.0,0.5,0.0,0.0,0.0,0.89,-0.23,-0.05,63.45,0.2,29.3,0.25,0.25,0.5,1.5,1.25,0.75,0.25,0.25,0.5,0.0,0.75,0.5,1.0,-0.36,-0.36,-0.42,106.14,-5.2,3.1
5.36,0.25,0.0,0.0,0.0,2.25,0.0,0.25,0.25,0.0,0.5,0.0,0.0,0.0,0.83,-0.23,-0.05,63.91,-2.3,31.8,0.5,0.25,0.25,1.25,2.25,0.75,0.0,0.5,0.5,0.0,0.75,0.5,0.5,-0.36,-0.48,-0.36,114.7,-3.5,14.6
5.38,0.25,0.0,0.5,0.0,2.25,0.0,0.25,0.5,0.0,0.5,0.0,0.25,0.0,0.77,-0.23,-0.05,70.75,1.9,23.8,0.5,0.5,0.5,1.5,1.5,0.75,0.0,0.25,0.5,0.0,0.75,0.5,0.5,-0.36,-0.55,-0.3,120.67,-6.8,17.7
5.4,0.25,0.0,0.25,0.0,0.0,0.0,0.5,0.0,0.0,0.5,0.0,0.25,0.0,0.7,-0.36,-0.11,57.44,13.6,-13.5,0.25,0.25,0.5,1.25,1.25,0.25,0.25,0.25,0.5,0.0,0.75,0.5,0.25,-0.3,-0.67,-0.23,115.77,-9.1,12.2
5.42,0.25,0.0,1.0,0.0,1.75,0.0,0.25,0.0,0.0,0.5,0.0,0.0,0.0,0.7,-0.42,-0.17,56.52,9.4,40.8,0.5,0.5,0.5,1.25,1.5,0.25,0.0,0.5,0.5,0.0,0.75,0.5,0.5,-0.23,-0.86,-0.17,114.9,-7.5,13.3
5.44,0.25,0.0,0.25,0.0,1.75,0.0,0.5,0.25,0.0,0.5,0.0,0.0,0.0,0.64,-0.61,-0.11,51.14,2.0,30.2,0.75,0.25,0.5,1.25,1.25,0.25,0.25,0.25,0.5,0.0,0.75,0.5,0.25,-0.3,-1.05,0.02,111.17,-10.9,18.1
5.46,0.25,0.0,0.5,0.0,0.0,0.25,0.5,0.25,0.0,0.5,0.0,0.0,0.0,0.58,-0.8,-0.05,45.84,9.2,10.8,0.0,0.25,0.5,1.0,1.5,0.0,0.25,0.5,0.5,0.0,0.75,0.25,0.5,-0.36,-1.17,0.33,106.15,-6.4,5.9
5.48,0.25,0.0,0.25,0.0,0.5,0.25,0.25,0.25,0.0,0.5,0.0,0.0,0.0,0.58,-0.92,0.02,39.08,1.1,15.3,0.5,0.5,0.5,1.0,1.5,1.25,0.25,0.5,0.5,0.0,0.75,0.5,0.25,-0.3,-1.17,0.52,111.69,-4.7,18.5
5.5,0.25,0.0,0.25,0.0,0.0,0.0,0.25,0.0,0.0,0.5,0.0,0.0,0.0,0.39,-1.05,0.2,28.9,12.6,3.6,0.25,0.25,0.5,1.5,1.5,0.25,0.25,0.0,0.5,0.0,0.5,0.5,0.25,0.02,-1.23,0.52,109.62,-9.8,21.3
5.52,0.0,0.0,0.0,0.0,1.25,0.0,0.25,0.25,0.0,0.5,0.0,0.25,0.0,-0.05,-1.05,0.33,27.82,-4.1,2.3,0.75,0.0,0.25,1.25,1.75,0.5,0.0,0.25,0.5,0.0,0.75,0.5,0.5,0.14,-1.23,0.33,112.69,-6.4,12.4
5.54,0.0,0.0,0.0,0.0,0.0,0.0,0.5,0.0,0.0,0.5,0.0,0.0,0.0,-0.36,-0.98,0.27,18.56,-0.1,-42.1,0.25,0.25,0.5,1.5,1.25,0.5,0.0,0.25,0.5,0.0,0.75,0.5,0.25,0.02,-1.23,0.7,107.1,-7.9,14.5
5.56,0.0,0.0,0.25,0.0,0.0,0.25,2.0,4.0,0.5,0.5,0.0,0.0,0.0,-0.8,-0.73,0.52,43.41,-5.2,-25.1,0.5,0.5,0.25,0.5,1.5,0.5,0.0,0.25,0.5,0.0,0.5,0.5,0.5,-0.23,-1.23,0.83,103.59,-4.7,12.1
5.58,0.0,0.0,0.5,0.0,0.5,0.0,0.25,0.25,0.0,0.5,0.0,0.0,0.0,-1.23,-0.48,0.7,41.59,4.9,9.2,0.5,0.25,0.5,1.25,1.5,1.0,0.25,0.25,0.5,0.0,0.75,0.5,0.25,-0.36,-1.23,0.64,105.74,-6.4,18.5
5.6,0.25,0.0,0.25,0.0,0.75,0.0,0.5,0.0,0.0,0.5,0.0,0.0,0.0,-1.67,-0.23,0.89,45.16,7.1,25.6,0.5,0.5,0.5,1.5,2.25,1.25,0.25,0.25,0.5,0.0,0.75,0.5,0.25,-0.55,-1.11,0.58,119.16,-5.2,25.6
5.62,0.0,0.0,0.25,0.0,0.0,0.0,0.5,0.25,0.0,0.5,0.0,0.0,0.0,-2.11,0.02,0.89,32.55,4.4,-20.2,0.5,0.75,0.5,0.75,1.5,1.25,0.25,0.0,0.5,0.0,0.75,0.5,0.25,-0.73,-1.05,0.58,124.56,-5.9,23.6
5.64,0.0,0.0,0.25,0.0,0.0,0.0,0.25,0.5,0.0,0.5,0.0,0.0,0.0,-2.86,0.2,0.39,27.74,-1.8,-27.7,0.75,0.5,0.5,1.25,2.25,1.0,0.0,0.25,0.5,0.0,0.75,0.5,0.25,-0.86,-0.98,0.58,133.94,-6.0,26.3
5.66,0.25,0.0,0.25,0.0,0.0,0.0,0.25,0.25,0.0,0.5,0.0,0.0,0.0,-3.17,0.02,-0.05,18.38,7.2,-4.1,0.5,0.5,0.5,1.5,1.75,1.0,0.0,0.25,0.5,0.0,0.75,0.5,0.25,-0.92,-0.92,0.58,134.52,-6.2,23.3
5.68,0.0,0.0,0.5,0.0,0.0,0.0,0.5,0.5,0.0,0.5,0.0,0.0,0.0,-2.73,-0.11,0.08,20.79,6.3,-10.9,0.25,0.25,0.5,1.25,1.0,1.25,0.25,0.25,0.5,0.0,0.25,0.5,0.0,-1.05,-0.73,0.58,126.01,-5.6,25.4
5.7,0.0,0.0,0.0,0.0,0.75,0.0,0.5,0.5,0.0,0.5,0.0,0.25,0.0,-2.23,-0.42,0.2,27.23,-3.8,-13.3,0.25,0.5,0.5,1.25,1.5,1.25,0.25,0.25,0.5,0.0,0.25,0.5,0.5,-1.3,-0.55,0.52,121.63,-3.9,20.9
5.72,0.0,0.0,0.0,0.0,0.0,0.0,0.5,0.0,0.0,0.5,0.0,0.0,0.0,-1.86,-0.73,0.33,22.39,-0.1,-42.1,0.5,0.0,0.5,1.25,1.5,1.25,0.0,0.25,0.5,0.0,0.75,0.5,0.25,-1.42,-0.3,0.45,117.39,-4.8,16.1
5.74,0.25,0.0,0.25,0.0,0.0,0.0,0.5,0.0,0.0,0.5,0.0,0.0,0.0,-1.48,-1.11,0.39,20.6,14.5,5.9,0.5,0.75,0.5,1.0,1.5,1.25,0.25,0.5,0.5,0.0,0.75,0.5,0.25,-1.55,-0.23,0.45,122.77,-4.9,21.0
5.76,0.25,0.0,0.5,0.0,0.0,0.0,0.5,0.5,0.0,0.5,0.0,0.0,0.0,-0.98,-1.17,0.7,20.29,9.7,1.8,0.25,0.25,0.25,1.25,1.5,1.25,0.25,0.25,0.5,0.0,0.75,0.25,0.0,-1.55,-0.17,0.45,118.3,-3.9,24.2
5.78,0.25,0.0,0.25,0.0,2.25,0.0,0.25,0.0,0.0,0.5,0.0,0.0,0.0,-0.61,-1.23,0.83,34.71,1.4,38.5,0.0,0.25,0.5,1.25,1.75,1.0,0.0,0.25,0.5,0.0,0.75,0.5,0.5,-1.36,-0.11,0.45,118.97,-3.2,10.4
5.8,0.25,0.0,1.0,0.0,2.5,0.0,0.25,0.0,0.0,0.5,0.0,0.0,0.0,-0.42,-1.17,0.64,52.3,7.1,43.1,0.5,0.25,0.5,1.5,2.25,1.0,0.0,0.25,0.5,0.0,0.75,0.5,0.25,-1.11,-0.11,0.39,121.94,-5.4,23.1
5.82,0.25,0.0,0.25,0.0,0.5,0.0,0.25,0.0,0.0,0.5,0.0,0.0,0.0,-0.48,-1.05,0.39,55.59,7.1,20.7,1.0,0.5,0.5,0.75,1.5,1.25,0.25,0.25,0.5,0.0,0.75,0.25,0.25,-1.05,-0.17,0.45,122.1,-6.6,27.9
5.84,0.25,0.0,0.5,0.0,1.75,0.0,0.25,0.25,0.0,0.5,0.0,0.0,0.0,-0.55,-0.86,0.27,61.11,3.5,32.5,0.0,0.0,0.5,1.25,1.25,1.25,0.0,0.0,0.5,0.0,0.75,0.5,0.25,-0.86,-0.3,0.64,115.36,-3.9,10.6
5.86,0.0,0.0,0.25,0.0,0.5,0.0,0.25,0.0,0.0,0.5,0.0,0.0,0.0,-0.61,-0.8,0.27,48.72,2.7,8.3,0.5,0.5,0.5,0.5,1.75,0.0,0.0,0.25,0.0,0.0,0.75,0.0,0.25,-0.67,-0.55,0.7,104.44,-8.5,32.9
5.88,0.25,0.0,0.25,0.0,0.0,0.0,0.25,0.0,0.0,0.5,0.0,0.0,0.0,-0.61,-0.67,0.27,37.92,12.6,3.6,0.25,0.25,0.0,1.25,0.25,1.0,0.0,0.0,0.25,0.0,0.0,0.5,0.0,-0.67,-0.73,0.83,84.25,-4.9,28.5
5.9,0.0,0.0,0.25,0.0,0.75,0.0,0.25,0.25,0.0,0.5,0.0,0.0,0.0,-0.73,-0.61,0.33,30.78,-0.5,9.0,0.5,0.25,0.5,1.25,0.5,1.0,0.0,0.25,0.25,0.0,0.75,0.5,0.25,-0.67,-0.86,0.89,80.45,-7.5,14.0
5.92,0.0,0.0,1.0,0.0,0.0,0.0,0.5,0.0,0.0,0.5,0.0,0.0,0.0,-0.8,-0.61,0.14,29.19,22.2,17.8,0.75,0.0,0.0,1.25,1.0,1.0,0.25,0.25,0.5,0.0,0.75,0.5,0.25,-0.67,-0.92,0.89,83.14,-5.5,11.6
5.94,0.0,0.0,0.0,0.0,0.0,0.0,0.5,0.0,0.0,0.5,0.0,0.0,0.0,-0.8,-0.61,0.14,22.15,-0.1,-42.1,0.5,0.5,0.25,1.25,1.0,1.25,0.0,0.0,0.5,0.0,0.5,0.5,0.0,-0.67,-0.98,0.77,89.58,-6.2,28.3
5.96,0.25,0.0,0.25,0.0,0.75,0.0,0.5,0.25,0.0,0.5,0.0,0.0,0.0,-0.73,-0.55,0.14,26.0,4.6,18.7,0.25,0.25,0.25,1.25,2.25,1.25,0.0,0.25,0.5,0.0,0.25,0.5,0.5,-0.73,-0.92,0.7,101.93,-1.2,20.5
5.98,0.25,0.0,0.25,0.0,0.0,0.0,0.5,0.0,0.0,0.5,0.0,0.0,0.0,-0.67,-0.42,0.14,21.75,14.5,5.9,0.25,0.5,0.5,1.25,1.25,1.25,0.0,0.0,0.25,0.0,0.75,0.25,0.25,-0.73,-0.8,0.7,106.21,-5.1,26.7
6.0,0.25,0.0,0.0,0.0,0.0,0.0,0.25,0.0,0.0,0.5,0.0,0.0,0.0,-0.67,-0.23,0.14,16.49,4.9,-13.6,0.25,0.25,0.5,1.25,1.5,1.25,0.25,0.25,0.25,0.0,0.75,0.5,0.25,-0.8,-0.67,0.83,111.61,-4.4,18.4
6.02,0.0,0.0,0.0,0.0,1.75,0.0,0.25,0.25,0.0,0.5,0.0,0.0,0.0,-0.8,-0.11,0.02,22.68,-5.1,22.1,0.25,0.25,0.5,1.0,1.5,1.25,0.25,0.0,0.5,0.0,0.75,0.5,1.0,-0.86,-0.67,0.95,114.35,-3.1,4.5
6.04,0.25,0.0,0.25,0.0,1.25,0.0,0.25,0.0,0.0,0.5,0.0,0.0,0.0,-0.92,0.08,-0.11,30.88,3.6,31.8,0.5,0.5,0.0,1.25,1.25,1.25,0.0,0.25,0.5,0.0,0.75,0.5,0.25,-0.8,-0.67,0.95,116.07,-3.3,17.3
6.06,0.0,0.0,0.25,0.0,2.5,0.0,0.5,0.0,0.0,0.5,0.0,0.0,0.0,-1.11,0.14,-0.17,47.85,0.0,35.8,0.0,0.75,0.25,0.5,1.25,0.5,0.0,0.0,0.25,0.0,0.75,0.5,0.25,-0.73,-0.67,1.02,107.3,-4.7,13.2
6.08,0.25,0.0,0.0,0.0,0.0,0.0,0.5,0.0,0.0,0.5,0.0,0.0,0.0,-1.23,0.14,-0.17,40.74,8.2,-8.5,0.5,0.0,0.25,1.25,1.5,1.0,0.0,0.25,0.25,0.0,0.75,0.5,0.5,-0.61,-0.67,0.95,107.58,-3.6,11.1
6.1,0.0,0.0,1.0,0.0,2.25,0.0,0.25,0.25,0.0,0.5,0.0,0.0,0.0,-1.36,0.14,0.02,56.22,5.0,35.0,0.5,0.25,0.5,1.25,0.5,1.25,0.25,0.25,0.25,0.0,0.75,0.25,0.0,-0.48,-0.67,0.95,102.08,-7.7,25.7
6.12,0.0,0.0,0.25,0.0,0.75,0.0,0.5,0.0,0.0,0.5,0.0,0.25,0.0,-1.42,0.08,0.08,49.09,4.3,1.7,0.5,0.0,0.5,1.25,1.25,1.25,0.0,0.25,0.25,0.0,0.75,0.5,0.25,-0.42,-0.8,1.02,104.18,-4.9,16.4
6.14,0.25,0.0,0.25,0.0,0.5,0.0,0.25,0.0,0.0,0.5,0.0,0.0,0.0,-1.42,0.08,0.14,45.32,7.1,20.7,0.5,0.25,0.25,1.25,1.25,1.0,0.0,0.25,0.5,0.0,0.75,0.25,0.25,-0.36,-0.92,1.02,102.57,-5.0,20.0
6.16,0.0,0.0,1.0,0.0,1.25,0.0,0.25,0.25,0.0,0.5,0.0,0.0,0.0,-1.42,0.08,0.27,46.51,7.9,28.6,0.75,0.25,0.0,1.25,1.25,1.0,0.0,0.0,0.5,0.0,0.75,0.5,0.0,-0.36,-0.98,1.02,103.36,-6.6,23.6
6.18,0.25,0.0,0.25,0.0,0.5,0.0,0.5,0.0,0.0,0.5,0.0,0.0,0.0,-1.3,-0.11,0.33,42.99,8.8,21.1,0.5,0.5,0.0,1.0,1.5,1.25,0.0,0.0,0.25,0.0,0.25,0.5,0.25,-0.36,-0.92,0.89,100.79,-2.3,29.0
6.2,0.0,0.0,0.5,0.0,1.25,0.0,0.25,0.25,0.0,0.5,0.0,0.0,0.0,-1.17,-0.17,0.45,43.47,2.3,22.8,0.25,0.0,0.5,1.25,1.25,1.25,0.25,0.0,0.25,0.0,0.0,0.5,0.25,-0.55,-0.73,0.95,96.72,-4.5,27.3
6.22,0.0,0.0,0.25,0.0,0.5,0.0,0.5,0.0,0.0,0.5,0.0,0.0,0.0,-1.05,-0.3,0.52,37.37,4.9,9.8,1.0,0.25,0.0,1.25,1.5,1.0,0.0,0.0,0.5,0.0,0.75,0.5,0.0,-0.55,-0.55,0.89,100.37,-7.1,27.4
6.24,0.25,0.0,0.25,0.0,0.0,0.0,0.5,0.0,0.0,0.5,0.0,0.0,0.0,-0.98,-0.48,0.52,31.01,14.5,5.9,0.5,0.5,0.25,1.25,1.5,1.25,0.0,0.25,0.25,0.0,0.75,0.5,0.5,-0.42,-0.36,0.83,106.89,-3.4,17.6
6.26,0.0,0.0,0.25,0.0,0.75,0.0,0.5,0.0,0.0,0.5,0.0,0.0,0.0,-0.86,-0.42,0.45,24.71,3.6,16.5,0.25,0.0,0.5,1.0,1.5,0.25,0.0,0.25,0.0,0.0,0.5,0.25,0.5,-0.3,-0.17,0.52,102.2,-5.8,16.2
6.28,0.0,0.0,0.0,0.0,0.0,0.0,0.5,0.25,0.0,0.5,0.0,0.0,0.0,-0.73,-0.48,0.33,19.55,-4.3,-41.3,0.0,0.0,0.0,0.0,1.0,0.0,0.25,0.25,0.0,0.0,0.0,0.0,0.0,-0.17,-0.11,0.45,76.98,2.7,36.3
6.3,0.0,0.0,0.25,0.0,2.5,0.0,0.25,0.0,0.0,0.5,0.0,0.0,0.0,-0.61,-0.55,0.45,32.36,-0.9,36.0,0.0,0.0,0.25,0.0,1.25,0.0,0.0,0.25,0.0,0.0,0.75,0.0,0.0,-0.11,-0.11,0.39,56.42,-3.2,10.6
6.32,0.0,0.0,0.75,0.0,2.25,0.0,0.25,0.25,0.0,0.5,0.0,0.0,0.0,-0.48,-0.61,0.52,48.36,3.0,33.5,0.0,0.0,0.0,0.0,0.25,0.0,0.0,0.0,0.25,0.0,0.0,0.5,0.0,-0.05,-0.05,0.39,28.77,-6.2,-47.0
6.34,0.0,0.0,0.25,0.0,0.0,0.0,0.5,0.0,0.0,0.5,0.0,0.0,0.0,-0.42,-0.55,0.58,42.81,9.7,-15.5,0.0,0.0,0.0,0.0,0.25,0.0,0.0,0.0,0.0,0.0,0.0,0.0,0.0,0.02,-0.05,0.39,9.58,3.3,53.4
6.36,0.0,0.0,0.25,0.0,2.5,0.0,0.25,0.25,0.0,0.5,0.0,0.0,0.0,-0.42,-0.48,0.58,53.06,-1.9,31.4,0.0,0.25,0.0,1.0,0.25,0.75,0.0,0.0,0.25,0.0,0.0,0.0,0.0,0.08,-0.05,0.39,9.04,-2.7,45.6
6.38,0.0,0.0,0.25,0.0,1.75,0.0,0.5,0.0,0.0,0.5,0.0,0.0,0.0,-0.36,-0.36,0.58,51.99,1.0,30.7,0.0,0.0,0.5,0.0,0.5,0.0,0.0,0.0,0.0,0.0,0.0,0.0,0.0,0.2,0.02,0.39,7.1,-16.2,57.0
6.4,0.0,0.0,0.25,0.0,1.75,0.0,0.5,0.0,0.0,0.5,0.5,0.0,0.0,-0.42,-0.3,0.45,56.2,2.3,16.0,0.0,0.0,0.0,0.0,0.25,0.0,0.0,0.0,0.0,0.0,0.0,0.0,0.0,0.33,0.08,0.64,1.76,3.3,53.4
6.42,0.0,0.0,0.5,0.0,0.0,0.0,0.5,0.0,0.0,0.5,0.0,0.25,0.0,-0.61,-0.23,0.39,46.84,14.5,-18.0,0.5,0.25,0.0,1.0,0.25,1.25,0.0,0.25,0.25,0.0,0.0,0.5,0.0,0.33,0.14,0.77,18.08,-3.0,26.8
6.44,0.0,0.0,0.25,0.0,0.75,0.0,0.5,0.0,0.0,0.5,0.0,0.0,0.0,-0.73,-0.17,0.39,42.07,3.6,16.5,0.75,0.0,0.0,0.5,1.5,1.25,0.0,0.0,0.25,0.0,0.0,0.5,0.5,0.52,0.08,0.58,42.06,-0.2,20.6
6.46,0.0,0.0,0.25,0.0,1.25,0.0,0.5,0.0,0.0,0.5,0.0,0.25,0.0,-0.92,-0.17,0.33,39.28,2.6,12.8,0.25,0.25,0.5,1.0,1.5,1.25,0.0,0.0,0.25,0.0,0.0,0.5,0.25,0.7,-0.05,0.45,68.0,-3.4,30.3
6.48,0.0,0.0,0.25,0.0,1.75,0.0,0.5,0.0,0.0,0.5,0.0,0.0,0.0,-0.92,-0.17,0.45,42.3,1.0,30.7,0.5,0.0,0.5,0.0,1.5,0.0,0.0,0.0,0.0,0.0,0.75,0.0,0.25,-1.55,-1.17,1.58,75.63,-9.3,23.4
6.5,0.25,0.0,0.0,0.0,0.0,0.0,0.5,0.0,0.0,0.5,0.0,0.0,0.0,-0.86,-0.11,0.45,33.88,8.2,-8.5,0.0,0.0,0.0,0.0,0.25,0.0,0.0,0.0,0.0,0.0,0.0,0.0,0.25,-0.98,-0.3,0.7,62.04,8.1,-23.3
6.52,0.25,0.0,0.25,0.0,1.25,0.0,0.75,0.0,0.0,0.5,0.0,0.0,0.0,-0.86,-0.11,0.45,36.82,6.0,31.4,0.0,0.0,0.0,0.0,0.0,0.0,0.0,0.0,0.0,0.0,1.0,0.0,0.0,-3.11,-3.92,4.02,43.28,-10.7,-75.5
6.54,0.0,0.0,0.25,0.0,2.25,0.0,0.25,0.25,0.0,0.5,0.0,0.0,0.0,1.77,-1.92,2.7,41.59,-1.8,29.7,0.0,0.0,0.0,0.0,0.25,0.0,0.0,0.0,0.0,0.0,0.0,0.5,0.25,-2.23,0.27,0.2,25.76,0.0,-64.5
6.56,0.0,0.0,0.25,0.0,1.25,0.0,0.75,0.5,0.0,0.5,0.0,0.0,0.0,-1.67,0.27,-0.17,47.47,0.1,14.9,0.0,0.0,0.0,0.0,0.25,0.0,0.0,0.0,0.0,0.0,0.75,0.25,0.25,-1.17,1.7,0.64,22.14,-3.6,-62.3
6.58,0.25,0.0,0.25,0.0,1.25,0.0,0.0,0.0,0.0,0.5,0.0,0.0,0.0,-0.8,0.64,0.7,48.87,2.2,32.0,0.0,0.0,0.0,0.0,0.25,0.0,0.0,0.0,0.0,0.0,0.0,0.5,0.0,-0.8,0.58,0.58,16.62,-4.4,-49.7
6.6,0.25,0.0,0.25,0.0,2.25,0.25,0.5,0.0,0.0,0.5,0.0,0.0,0.0,-1.05,0.58,1.14,54.84,0.9,38.0,0.0,0.0,0.0,0.0,0.25,0.75,0.0,0.0,0.0,0.0,0.0,0.5,0.0,-0.17,0.14,1.14,16.48,8.5,-10.0
6.62,0.25,0.0,0.25,0.0,0.0,0.0,0.25,0.0,0.0,0.5,0.0,0.0,0.0,3.33,1.14,-2.55,44.49,12.6,3.6,0.0,0.0,0.0,0.0,0.25,0.0,0.0,0.0,0.0,0.0,0.0,0.5,0.0,-0.42,0.45,1.14,12.38,-4.4,-49.7
6.64,0.25,0.0,0.25,0.0,1.75,0.0,0.5,0.0,0.0,0.5,0.0,0.0,0.0,-0.3,-0.73,-0.73,47.39,3.4,35.5,1.0,0.0,0.0,1.25,0.5,1.0,0.5,0.0,0.5,0.0,1.5,2.0,0.0,0.14,0.14,1.64,46.61,-9.9,-13.8
6.66,0.25,0.0,0.25,0.0,2.5,0.25,0.75,0.0,0.0,0.5,0.0,0.0,0.0,-2.48,0.52,0.14,56.34,1.5,38.7,1.25,0.25,0.5,1.25,1.0,1.0,0.5,0.0,0.5,0.0,1.5,2.0,0.75,0.64,0.2,1.33,88.14,-9.4,-8.1
6.68,0.25,0.0,0.25,0.0,1.25,0.0,0.5,0.0,0.0,0.5,0.0,0.0,0.0,-0.86,0.08,0.27,56.9,4.9,31.6,1.0,0.0,0.5,1.25,1.25,1.0,0.5,0.0,0.5,0.0,1.5,2.0,0.75,0.83,0.14,1.08,128.39,-8.4,-11.5
6.7,0.25,0.0,0.25,0.0,0.75,0.0,0.25,0.0,0.0,0.5,0.0,0.0,0.0,-0.36,-0.05,0.83,49.91,5.6,25.5,0.5,0.0,0.5,1.25,1.0,1.25,0.25,0.0,0.5,0.0,1.0,2.0,0.75,0.14,0.2,1.08,147.89,-6.1,-15.2
6.72,1.25,0.75,0.25,2.0,0.0,1.5,0.25,0.0,0.25,0.5,0.0,0.0,0.0,-0.36,0.39,0.77,69.84,9.5,50.4,0.5,0.0,0.5,1.25,1.25,1.0,0.0,0.0,0.5,0.0,1.25,2.0,0.75,-0.11,0.14,1.02,158.09,-6.3,-16.5
6.74,0.5,0.0,0.25,0.0,2.25,0.75,0.25,0.0,0.0,1.5,0.0,0.75,1.0,-0.67,0.2,0.64,89.44,-3.4,-10.7,1.0,0.5,0.0,1.25,1.5,1.25,0.0,0.0,0.5,0.0,1.25,1.75,0.5,-0.17,0.14,0.95,161.68,-5.8,-0.6
6.76,0.5,0.0,0.25,0.0,0.0,0.25,0.25,0.0,0.0,0.5,0.0,0.0,0.0,-0.8,0.14,0.58,77.28,10.6,22.1,1.25,0.0,0.0,1.25,1.75,1.25,0.0,0.0,0.5,0.0,1.25,1.5,0.5,-0.05,0.08,0.95,161.26,-5.8,0.8
6.78,0.75,0.0,0.25,0.0,2.25,0.25,0.25,0.0,0.0,0.5,0.0,0.0,0.0,-0.73,-0.05,0.45,77.54,3.7,44.6,0.5,0.0,0.0,1.25,1.25,1.25,0.0,0.0,0.5,0.0,1.0,1.5,0.5,0.02,0.08,0.89,154.63,-3.7,-9.3
6.8,0.5,0.0,0.25,0.0,0.0,0.25,0.25,0.0,0.0,0.5,0.0,0.25,0.0,-0.86,0.2,0.39,58.73,10.4,4.1,0.5,0.0,0.0,1.25,1.5,1.25,0.0,0.0,0.5,0.0,0.75,1.25,1.25,0.08,0.08,0.89,148.82,-1.5,-11.4
6.82,0.5,0.0,0.25,0.0,2.25,0.0,0.25,0.25,0.0,0.5,0.0,0.0,0.0,-0.86,0.2,0.64,59.44,2.2,37.2,1.0,0.0,0.0,0.75,1.25,1.25,0.0,0.0,0.5,0.0,0.75,1.25,0.5,0.2,0.08,0.89,137.11,-4.4,-1.6
6.84,0.5,0.0,0.25,0.0,0.5,0.0,0.25,0.0,0.0,0.5,0.0,0.0,0.0,-0.67,0.02,0.7,46.02,10.5,30.0,0.5,0.25,0.0,1.0,2.25,1.25,0.0,0.0,0.25,0.0,0.75,1.0,0.75,0.39,0.08,0.83,131.64,-1.3,6.4
6.86,0.25,0.0,0.25,0.0,2.5,1.0,0.25,0.0,0.0,0.5,0.0,0.75,0.0,-0.8,0.08,0.58,64.98,-1.8,19.1,1.0,0.25,0.0,0.5,1.75,1.25,0.0,0.25,0.25,0.0,0.75,1.0,1.25,0.27,0.08,0.89,126.61,-1.0,-3.4
6.88,1.25,0.0,1.5,0.0,3.0,1.75,0.5,0.5,0.5,1.75,0.0,0.5,0.0,-0.73,0.08,0.64,102.41,2.9,20.4,1.25,0.0,0.0,1.25,1.75,1.25,0.0,0.5,0.25,0.0,0.75,1.0,0.75,0.14,0.08,0.89,125.84,-3.4,6.8
6.9,1.25,0.75,0.25,1.75,2.25,0.25,0.25,1.0,0.0,0.5,0.75,0.0,1.0,-0.73,0.08,0.64,136.15,4.9,21.3,0.5,0.25,0.0,0.0,1.25,1.5,0.0,0.5,0.25,0.0,0.75,1.0,1.0,0.2,0.08,0.77,118.12,2.8,-15.4
6.92,0.25,0.0,0.25,0.0,0.75,0.25,0.25,0.0,0.0,0.5,0.0,0.0,0.0,-0.73,0.08,0.58,121.47,2.6,26.4,0.5,0.0,0.0,0.75,1.25,1.25,0.0,0.5,0.0,0.0,0.75,1.0,0.75,0.2,0.08,0.89,112.29,0.6,-8.6
6.94,0.25,0.0,0.25,0.0,2.5,0.25,0.25,0.25,0.0,0.5,0.0,0.0,0.0,-0.73,0.08,0.58,105.62,-1.1,35.0,0.75,0.25,0.0,1.25,1.75,1.25,0.0,0.5,0.0,0.0,0.75,1.0,1.25,0.08,0.08,0.89,115.99,-0.8,-0.6
6.96,0.25,0.0,0.25,0.0,1.75,0.25,0.25,0.5,0.0,0.5,0.25,0.0,0.0,-0.8,0.08,0.58,80.48,-0.9,20.1,0.5,0.5,0.0,1.0,1.75,1.25,0.0,0.5,0.0,0.0,0.75,0.75,1.5,0.02,0.14,1.02,120.51,0.9,-2.2
6.98,0.25,0.0,0.25,0.0,2.25,0.25,0.5,0.0,0.0,0.5,0.0,0.0,0.0,-0.8,0.08,0.58,72.3,0.9,38.0,1.25,0.0,0.0,1.25,2.25,1.25,0.0,0.5,0.0,0.0,0.75,1.0,0.75,-0.11,0.14,1.02,130.04,-2.7,10.9
7.0,0.5,0.0,0.25,0.0,0.75,0.25,0.5,0.0,0.0,0.5,0.0,0.0,0.0,-0.73,0.08,0.58,62.06,6.9,32.9,0.5,0.0,0.0,0.75,1.5,1.25,0.0,0.25,0.0,0.0,0.75,1.0,1.5,-0.17,0.2,1.02,128.35,1.5,-15.4
7.02,0.25,0.0,0.25,0.0,2.25,0.0,0.5,0.0,0.0,0.5,0.0,0.0,0.0,-0.73,0.08,0.58,61.05,2.4,38.2,0.25,0.25,0.0,1.25,1.5,1.25,0.0,0.5,0.0,0.0,0.5,1.0,1.0,-0.17,0.2,1.02,126.39,0.9,-2.7
7.04,0.25,0.0,0.25,0.0,0.75,0.25,0.25,0.0,0.0,0.5,0.0,0.0,0.0,-0.73,0.08,0.64,49.14,2.6,26.4,0.25,0.0,0.0,1.25,1.75,1.25,0.0,0.5,0.0,0.0,0.75,1.0,1.25,-0.11,0.14,0.95,122.0,1.4,-9.3
7.06,0.25,0.0,0.25,0.0,2.5,0.0,0.5,0.25,0.0,0.5,0.0,0.0,0.0,-0.73,0.08,0.58,50.19,0.9,34.8,0.5,0.25,0.0,1.25,1.5,1.25,0.0,0.0,0.0,0.0,0.75,0.75,1.75,0.14,0.14,0.95,121.94,0.1,-6.6
7.08,0.25,0.0,0.25,0.0,2.5,0.25,0.25,0.25,0.0,0.5,0.0,0.5,0.0,-0.73,0.08,0.58,56.52,-0.1,20.5,1.25,0.5,0.0,1.25,2.25,1.25,0.0,0.5,0.0,0.25,0.75,1.0,1.5,0.08,0.14,0.95,135.21,-1.6,4.5
7.1,0.5,0.0,0.25,0.0,2.25,0.0,0.5,0.0,0.0,0.5,0.0,0.0,0.0,-0.8,0.08,0.58,58.71,4.2,41.6,0.5,0.0,0.0,1.25,1.75,1.25,0.0,0.5,0.0,0.0,1.0,1.0,1.25,0.08,0.14,0.95,137.88,0.1,-8.3
7.12,0.25,0.0,0.25,0.0,2.5,0.25,0.5,0.25,0.0,0.5,0.0,0.0,0.0,-0.8,0.08,0.58,62.81,-0.2,34.8,1.0,0.25,0.0,1.25,1.75,1.25,0.0,0.5,0.25,0.25,0.75,0.75,1.0,0.02,0.14,0.95,142.86,-1.7,4.7
7.14,0.25,0.0,0.25,0.0,2.5,0.25,0.75,0.0,0.0,0.5,0.0,0.0,0.0,-0.8,0.08,0.58,70.99,1.5,38.7,0.75,0.0,0.0,1.25,1.75,1.25,0.0,0.5,0.0,0.0,0.75,0.75,0.5,0.08,0.14,0.95,135.79,-1.6,10.4
7.16,0.25,0.0,0.25,0.0,2.25,0.0,0.25,0.25,0.0,0.5,0.0,0.25,0.0,-0.8,0.08,0.58,76.02,0.8,25.2,0.5,0.25,0.0,1.25,1.5,1.25,0.0,0.5,0.0,0.0,1.5,1.0,1.25,0.08,0.14,0.95,134.92,-0.8,-10.8
7.18,0.25,0.0,0.25,0.0,2.25,0.0,0.5,0.25,0.0,0.5,0.0,0.25,0.0,-0.8,0.08,0.58,73.08,1.6,25.3,0.25,0.25,0.0,1.25,1.75,1.25,0.0,0.5,0.0,0.0,0.75,0.75,1.0,0.08,0.14,0.95,127.12,0.9,0.4
7.2,0.25,0.0,0.25,0.0,3.75,0.25,0.25,0.25,0.0,0.5,0.25,0.0,0.0,-0.8,0.08,0.58,84.16,-1.1,35.0,0.25,0.25,0.0,1.25,1.75,1.25,0.0,0.5,0.0,0.0,0.75,1.0,0.75,0.08,0.14,0.95,125.75,0.2,0.5
7.22,0.0,0.0,0.25,0.0,2.25,0.25,0.5,0.25,0.0,0.5,0.0,0.0,0.0,-0.8,0.08,0.58,82.26,-2.0,29.8,0.25,0.25,0.0,1.0,1.75,1.25,0.0,0.5,0.0,0.0,0.75,0.75,1.0,0.08,0.08,0.95,121.56,1.5,-1.4
7.24,0.25,0.0,0.25,0.0,1.75,0.0,0.5,0.0,0.0,0.5,0.0,0.0,0.0,-0.8,0.08,0.58,76.17,3.4,35.5,0.25,0.25,0.0,1.0,1.25,1.25,0.0,0.25,0.0,0.0,0.75,0.75,0.5,0.08,0.08,0.95,113.48,-0.1,3.7
7.26,0.25,0.0,0.25,0.0,2.5,0.0,0.5,0.25,0.0,0.5,0.0,0.0,0.0,-0.8,0.08,0.58,71.54,0.9,34.8,1.0,0.5,0.0,1.25,1.5,1.25,0.0,0.25,0.0,0.0,0.75,0.75,1.0,0.08,0.08,0.95,114.88,-2.9,10.9
7.28,0.25,0.0,0.25,0.0,2.5,0.25,0.25,0.0,0.0,0.5,0.0,0.25,0.0,-0.8,0.08,0.58,70.95,0.2,31.1,0.25,0.25,0.0,1.0,1.5,1.25,0.0,0.25,0.0,0.0,0.75,0.5,0.75,0.08,0.08,0.89,108.46,0.8,5.7
7.3,0.0,0.0,0.25,0.0,1.25,0.0,0.5,0.25,0.0,0.5,0.0,0.25,0.0,-0.8,0.08,0.58,60.87,1.0,8.4,0.25,0.0,0.0,1.25,1.5,1.25,0.0,0.25,0.0,0.0,0.25,0.75,0.5,0.08,0.08,0.89,103.34,0.6,10.5
7.32,1.25,0.75,0.25,1.75,2.25,0.0,0.75,0.75,0.0,0.5,0.0,0.0,1.0,-0.8,0.08,0.58,89.91,6.5,30.3,0.25,0.0,0.0,1.25,1.5,1.25,0.0,0.5,0.0,0.0,0.75,0.5,0.75,0.08,0.08,0.95,99.15,1.2,2.6
7.34,0.25,0.0,1.75,0.0,2.5,0.0,1.0,0.25,0.0,0.5,0.5,0.0,0.0,-0.8,0.08,0.58,102.34,11.4,32.6,0.25,0.25,0.0,1.25,1.25,1.25,0.0,0.25,0.0,0.0,0.75,0.5,0.5,0.08,0.08,0.95,98.49,-0.4,10.3
7.36,0.25,0.0,0.25,0.0,0.0,0.0,0.5,0.0,0.0,0.5,0.0,0.0,0.0,-0.8,0.08,0.52,84.99,14.5,5.9,0.25,0.25,0.0,1.0,1.75,1.25,0.0,0.0,0.0,0.0,0.75,0.75,0.5,0.08,0.08,0.95,98.08,-0.4,9.5
7.38,0.25,0.0,0.25,0.0,2.25,0.0,0.75,0.0,0.0,0.5,0.0,0.0,0.0,-0.8,0.08,0.52,73.53,3.3,37.9,0.75,0.25,0.0,0.75,1.25,1.25,0.0,0.25,0.0,0.0,0.75,0.5,0.25,0.08,0.08,0.95,96.76,-2.2,18.0
7.4,0.25,0.0,0.25,0.0,2.25,0.0,0.25,0.0,0.0,0.5,0.0,0.25,0.0,-0.8,0.08,0.58,63.47,1.9,29.2,0.5,0.25,0.0,1.0,1.5,1.25,0.0,0.25,0.0,0.0,1.25,0.5,0.5,0.08,0.08,0.95,100.32,-1.5,7.3
7.42,0.0,0.0,0.25,0.0,2.25,0.0,0.75,0.0,0.0,0.5,0.0,0.0,0.0,-0.8,0.08,0.58,59.03,1.3,34.1,0.25,0.5,0.0,1.25,1.75,1.25,0.0,0.25,0.0,0.0,0.75,0.5,0.5,0.08,0.08,1.02,104.66,-0.6,16.9
7.44,0.5,0.0,0.25,0.0,2.25,0.0,0.5,0.0,0.0,0.5,0.25,0.25,0.0,-0.8,0.08,0.58,62.14,4.8,27.1,0.5,0.0,0.0,0.5,1.75,1.25,0.0,0.0,0.0,0.0,0.5,0.5,0.5,0.08,0.08,0.95,101.23,1.0,13.5
7.46,0.5,0.0,0.25,0.0,2.25,0.0,0.5,0.0,0.0,0.5,0.0,0.25,0.0,-0.73,0.08,0.64,69.8,4.5,32.9,0.75,0.25,0.0,1.0,1.75,1.25,0.0,0.25,0.0,0.0,0.75,0.5,0.25,0.08,0.02,0.95,103.77,-2.3,22.4
