time,left pressure 0[N/cm虏],left pressure 1[N/cm虏],left pressure 2[N/cm虏],left pressure 3[N/cm虏],left pressure 4[N/cm虏],left pressure 5[N/cm虏],left pressure 6[N/cm虏],left pressure 7[N/cm虏],left pressure 8[N/cm虏],left pressure 9[N/cm虏],left pressure 10[N/cm虏],left pressure 11[N/cm虏],left pressure 12[N/cm虏],left acceleration X[g],left acceleration Y[g],left acceleration Z[g],left total force[N],left center of pressure X[mm],left center of pressure Y[mm],right pressure 0[N/cm虏],right pressure 1[N/cm虏],right pressure 2[N/cm虏],right pressure 3[N/cm虏],right pressure 4[N/cm虏],right pressure 5[N/cm虏],right pressure 6[N/cm虏],right pressure 7[N/cm虏],right pressure 8[N/cm虏],right pressure 9[N/cm虏],right pressure 10[N/cm虏],right pressure 11[N/cm虏],right pressure 12[N/cm虏],right acceleration X[g],right acceleration Y[g],right acceleration Z[g],right total force[N],right center of pressure X[mm],right center of pressure Y[mm]
0.02,0.5,1.0,3.5,2.25,3.75,3.0,3.75,4.5,6.5,4.5,5.75,2.25,3.25,-0.05,0.08,0.95,607.75,3.5,-21.2,2.0,1.5,2.25,2.75,6.5,5.75,2.25,7.5,6.25,7.0,6.25,3.5,4.75,0.14,0.2,0.95,846.31,0.3,-20.3
0.04,0.5,1.0,3.75,2.0,4.5,2.5,2.75,3.25,5.0,3.0,4.5,0.75,2.0,-0.11,0.08,0.95,537.47,4.8,-8.0,2.25,1.5,2.25,2.75,6.5,5.75,2.25,7.75,6.5,7.25,6.5,4.0,5.25,0.08,0.14,0.95,978.54,0.3,-21.9
0.06,0.25,1.0,3.5,2.25,3.5,1.75,1.5,2.5,3.25,1.75,2.5,0.5,1.25,-0.11,0.08,1.02,432.76,6.0,1.6,2.0,1.5,2.25,2.75,6.5,5.75,2.5,7.75,6.5,7.0,6.75,4.0,5.5,0.08,0.14,0.95,1050.16,0.3,-22.7
0.08,0.5,1.0,3.0,2.0,4.25,1.75,1.5,1.25,2.25,1.25,2.5,0.5,1.25,-1.05,0.52,1.95,345.1,6.6,8.2,2.0,1.5,2.25,2.75,6.5,5.5,2.25,7.75,6.0,6.75,6.75,3.25,5.0,0.08,0.14,0.95,1066.94,0.3,-20.7
0.1,0.25,1.0,3.0,2.0,2.5,1.75,1.75,1.5,2.0,2.75,1.25,0.75,1.0,-0.48,0.27,2.08,281.28,5.5,1.9,2.0,1.5,2.25,2.75,6.5,5.5,2.0,7.5,5.75,6.0,5.25,3.0,4.75,0.08,0.14,0.95,1030.57,0.4,-17.6
0.12,0.25,1.0,1.75,1.75,2.5,1.75,2.75,1.0,1.5,3.0,2.25,0.5,1.25,-0.55,-0.17,2.08,242.94,4.0,-4.6,2.0,1.5,2.25,2.75,6.5,5.0,1.75,7.25,5.5,5.5,5.0,2.25,4.0,0.08,0.14,0.95,957.9,0.1,-14.4
0.14,0.25,1.0,2.25,2.0,0.0,1.75,2.0,1.5,1.25,2.75,2.5,0.5,1.25,-1.05,-1.11,1.77,212.54,5.4,-12.3,2.0,1.5,2.25,2.75,6.5,5.25,1.75,7.0,5.5,5.25,4.75,2.0,3.5,0.08,0.14,0.89,877.96,0.0,-12.0
0.16,0.25,1.0,2.75,1.75,2.5,1.75,2.25,1.25,1.25,2.75,2.5,0.5,1.0,-1.42,-1.67,0.89,210.64,5.5,-0.4,2.0,1.5,2.25,2.75,6.5,5.5,1.75,7.0,5.5,5.25,4.25,2.0,3.5,0.08,0.14,0.89,805.98,0.2,-11.2
0.18,0.25,1.0,2.25,2.0,2.25,1.75,2.25,0.75,1.25,2.75,2.5,0.5,1.0,-0.86,-1.73,0.52,208.32,5.5,-1.1,2.0,1.5,2.25,2.75,6.5,5.5,1.5,7.25,5.5,5.25,4.25,2.0,3.75,0.08,0.14,0.95,756.41,0.5,-11.9
0.2,0.25,1.0,2.25,1.75,4.25,1.75,2.0,1.75,1.0,3.0,2.0,0.5,1.0,-0.61,-1.73,0.52,223.88,2.9,3.2,2.0,1.5,2.0,2.75,6.5,5.75,1.75,7.25,5.75,5.25,4.25,2.0,3.25,0.08,0.14,0.89,721.85,0.5,-11.1
0.22,0.5,1.0,1.75,2.0,2.5,1.75,2.0,1.5,1.0,2.75,2.5,0.5,1.25,-0.42,-1.55,0.64,231.91,3.6,-3.2,2.25,1.5,2.25,2.75,6.5,6.0,1.75,7.5,5.75,5.25,4.75,2.0,3.5,0.08,0.14,0.95,712.2,0.3,-11.3
0.24,0.25,0.75,1.0,2.0,2.25,1.75,2.0,1.0,1.0,2.75,2.25,0.5,1.25,-0.23,-1.3,0.89,233.57,2.2,-7.7,2.25,1.5,2.25,3.25,6.75,6.0,1.75,7.75,6.25,5.25,4.5,2.0,3.25,0.08,0.14,0.95,718.41,0.1,-9.8
0.26,0.25,1.0,3.0,2.0,2.5,1.75,2.0,1.0,1.0,2.5,2.25,0.5,1.0,-0.17,-0.92,1.14,241.59,6.4,3.6,2.75,1.5,2.25,4.75,7.25,6.5,1.75,7.75,6.5,5.25,4.75,2.0,2.5,0.08,0.14,0.95,753.41,-0.7,-5.0
0.28,0.25,1.0,2.25,2.0,3.5,1.75,2.0,1.0,1.0,2.25,2.0,0.5,1.25,-0.17,-0.55,1.27,253.68,4.6,4.8,2.75,1.5,2.5,5.0,8.0,7.0,2.0,7.75,6.5,4.25,4.5,1.75,2.5,0.08,0.14,0.95,792.84,-1.0,-1.0
0.3,0.25,1.0,2.25,2.0,2.25,1.75,1.75,0.5,1.0,2.75,2.0,0.5,1.0,-0.17,-0.11,1.33,258.16,5.3,1.4,3.25,1.75,3.25,5.0,8.25,7.0,2.25,7.75,6.25,3.5,3.25,1.0,1.75,0.08,0.14,0.95,822.14,-1.9,7.4
0.32,0.25,1.0,1.75,2.0,4.25,1.75,2.0,1.25,1.0,2.0,0.5,0.5,1.25,-0.23,0.2,1.33,261.14,2.8,12.0,3.5,2.25,4.75,6.75,9.0,7.5,2.5,7.75,5.75,3.5,3.0,0.75,1.5,0.08,0.14,0.95,875.54,-3.3,14.2
0.34,0.25,1.0,1.75,2.0,2.5,1.75,2.25,0.75,1.0,2.25,1.5,0.5,0.5,-0.23,0.39,1.33,255.01,5.2,8.0,4.75,2.5,4.75,8.25,9.25,7.75,2.5,7.5,5.5,2.5,2.5,0.75,1.5,0.08,0.14,0.95,933.23,-4.5,20.3
0.36,0.25,1.0,1.5,1.75,2.25,1.5,2.0,0.75,1.0,2.25,1.25,0.5,1.0,-0.23,0.58,1.33,244.16,4.2,2.6,5.75,3.0,5.0,9.25,11.0,8.0,2.5,7.25,4.5,2.25,2.75,0.75,1.5,0.08,0.14,0.95,1015.27,-5.1,25.1
0.38,0.25,1.0,1.25,2.0,2.25,1.5,1.75,1.0,1.0,2.0,2.25,0.5,1.0,-0.23,0.7,1.45,236.11,4.0,-1.4,7.0,3.25,6.25,12.0,12.0,8.0,2.0,6.25,3.0,2.25,2.5,0.75,1.5,0.08,0.2,0.95,1111.8,-6.7,31.9
0.4,0.25,1.0,1.75,2.0,2.25,1.75,1.75,0.0,0.75,2.25,1.5,0.5,1.0,-0.23,0.77,1.39,227.87,5.3,6.0,8.25,4.75,7.25,13.5,13.5,8.0,1.5,5.25,2.0,1.75,1.5,0.5,1.25,0.08,0.14,1.02,1222.61,-8.1,41.3
0.42,0.25,1.0,1.75,1.75,2.5,1.75,2.0,0.5,0.75,2.5,0.5,0.5,1.25,-0.17,0.95,1.2,225.13,3.5,6.6,9.25,5.5,8.0,13.5,15.0,8.0,1.0,4.0,1.25,1.25,1.5,0.0,0.75,0.08,0.2,1.14,1309.03,-9.1,48.5
0.44,0.25,1.0,1.75,1.75,2.5,1.5,1.75,0.75,0.75,2.0,0.75,0.5,1.0,-0.05,1.27,0.95,220.76,4.4,8.6,10.0,4.75,8.5,13.0,15.0,7.0,0.5,3.0,1.0,0.0,1.5,0.0,0.75,0.08,0.2,1.2,1329.55,-10.7,52.7
0.46,0.25,1.0,2.0,2.0,2.25,1.75,2.0,0.5,1.0,2.0,1.5,0.5,1.5,0.08,1.83,0.64,227.62,5.2,2.9,11.5,5.25,9.25,12.0,14.5,6.5,0.0,2.75,0.5,0.0,0.75,0.0,0.5,0.08,0.27,1.2,1322.12,-12.0,57.3
0.48,0.25,1.0,1.75,2.0,3.0,1.75,1.75,0.5,1.0,0.5,1.5,0.0,1.0,0.45,2.39,0.14,225.7,6.5,19.4,12.5,6.25,8.5,12.5,12.0,6.0,0.0,1.5,1.0,0.0,0.75,0.0,0.75,0.14,0.33,1.27,1284.25,-13.5,59.4
0.5,0.25,1.0,1.75,2.0,1.25,1.5,1.5,1.0,0.75,0.75,2.0,0.0,1.0,1.45,3.52,-0.67,216.78,7.0,8.3,13.0,6.0,9.5,10.5,11.0,4.5,0.0,1.5,0.25,0.75,0.0,0.5,0.25,0.14,0.39,1.33,1206.86,-15.0,61.5
0.52,0.0,0.25,0.5,0.0,2.25,0.25,1.25,1.75,0.5,3.0,1.75,0.75,1.0,-0.3,-0.48,-0.05,200.3,-2.4,-32.1,10.5,5.5,8.5,10.0,7.75,4.5,0.25,1.0,0.5,0.75,0.0,0.5,0.0,0.2,0.58,1.39,1069.94,-15.5,61.4
0.54,0.0,1.0,1.75,1.0,2.25,1.75,1.25,1.0,1.0,3.0,2.5,0.75,0.75,0.2,-0.05,1.39,208.08,2.4,-9.5,10.5,4.25,8.25,6.75,4.75,2.25,1.25,1.5,0.25,0.0,0.75,0.0,0.5,0.27,0.83,1.95,879.56,-18.9,61.6
0.56,0.0,0.25,0.0,0.0,2.25,0.0,1.25,0.5,0.5,1.75,1.25,0.5,2.0,0.45,0.52,1.2,183.85,-2.6,-36.2,8.0,1.75,7.5,5.0,2.5,2.25,0.75,0.0,0.5,0.0,0.0,0.25,0.0,0.77,1.2,2.27,635.13,-22.2,66.1
0.58,0.0,0.25,0.0,0.0,3.0,0.25,1.5,0.75,1.0,3.0,1.5,3.0,3.75,0.08,0.2,1.27,204.68,-2.7,-51.7,7.0,1.0,5.75,2.75,4.5,0.0,1.0,1.5,0.5,0.5,0.0,0.5,0.0,0.45,0.95,2.39,437.7,-19.7,55.5
0.6,0.25,1.0,0.25,1.0,0.0,1.75,1.0,2.25,2.25,5.75,4.0,4.75,5.5,-0.48,0.45,2.14,267.08,-2.3,-60.6,5.5,0.0,4.0,1.25,4.75,1.25,0.5,1.5,0.25,0.0,0.5,0.0,0.75,0.39,-0.17,2.83,297.92,-14.4,47.9
0.62,0.0,1.0,0.5,2.0,2.25,2.5,2.0,5.25,4.25,7.25,5.75,5.75,6.5,0.02,0.45,1.2,399.04,-2.1,-49.6,1.75,0.0,0.5,1.25,2.5,0.0,0.0,0.0,0.25,0.0,0.0,0.0,0.5,0.64,-0.67,1.77,168.89,-12.0,50.0
0.64,0.0,1.0,3.0,2.0,3.5,3.25,3.0,6.0,5.0,7.75,6.25,6.0,6.75,-0.05,0.14,0.95,591.76,-0.1,-40.2,1.0,0.0,0.0,1.25,2.75,0.0,0.0,0.0,0.5,0.0,0.0,0.0,0.0,1.27,-0.8,1.95,48.59,-8.5,53.8
0.66,0.5,1.0,3.75,2.25,3.5,3.25,3.75,6.5,5.5,7.75,7.0,6.0,6.5,-0.05,0.08,0.95,778.54,1.1,-36.9,0.75,0.0,0.0,1.0,2.5,0.0,0.0,0.0,0.5,0.0,0.0,0.0,0.0,0.77,-1.11,1.33,0.0,-7.5,51.6
0.68,0.25,1.0,4.25,2.25,4.75,3.25,4.25,6.75,6.0,8.0,7.5,6.25,7.5,-0.05,0.08,0.95,934.38,1.1,-36.2,0.5,0.0,0.0,1.0,2.5,0.25,0.0,0.0,0.5,0.0,0.0,0.0,0.0,0.45,-0.61,0.58,0.0,-4.9,48.6
0.7,0.25,1.0,4.5,2.25,2.5,3.25,4.25,7.0,6.0,8.0,7.75,6.25,7.5,-0.05,0.08,0.95,1018.79,1.4,-39.9,2.0,1.0,0.0,2.5,2.25,2.0,0.0,0.0,0.5,0.5,0.0,0.5,0.0,0.2,-0.48,0.39,0.0,-6.4,45.9
0.72,0.25,1.0,4.5,2.25,3.0,3.25,4.0,7.0,6.0,8.0,7.75,6.0,7.5,-0.05,0.08,0.95,1065.67,1.3,-38.8,1.25,0.75,0.5,2.25,4.5,2.0,0.25,1.25,0.5,0.75,0.5,0.5,0.0,0.02,-0.36,0.58,16.87,-2.4,31.5
0.74,0.25,1.0,4.5,2.25,3.5,3.5,4.25,6.75,5.75,8.0,7.75,6.0,7.25,-0.05,0.08,0.95,1077.98,1.3,-37.2,1.5,1.0,0.5,2.25,4.5,2.0,0.25,1.5,0.5,0.5,0.5,0.5,0.75,-0.17,-0.3,0.89,98.52,-2.2,27.5
0.76,0.25,1.0,4.5,2.25,5.5,4.0,4.0,7.25,5.75,8.0,7.75,5.5,6.75,-0.11,0.08,0.95,1083.54,0.8,-32.1,1.75,0.75,0.5,2.25,4.5,2.0,0.25,1.25,0.5,0.5,0.5,0.5,0.25,-0.11,-0.3,1.02,157.56,-3.3,32.9
0.78,0.25,1.0,4.5,2.25,5.75,3.5,4.0,7.25,5.75,7.75,7.25,5.25,6.75,-0.05,0.08,0.95,1060.78,0.9,-31.4,1.5,0.75,0.5,2.25,4.5,1.25,0.25,1.25,0.5,0.25,0.75,0.5,0.5,-0.05,-0.17,0.95,195.01,-4.2,29.5
0.8,0.5,1.0,4.5,2.25,5.75,4.0,3.75,7.25,5.75,7.75,6.75,5.25,6.75,-0.11,0.08,0.95,1036.96,0.7,-30.2,1.75,0.75,0.5,2.25,4.5,1.5,0.25,1.25,0.5,0.5,0.75,0.5,0.5,-0.11,-0.05,1.08,218.93,-3.9,28.9
0.82,0.25,1.0,4.5,2.5,5.75,4.0,4.0,7.0,5.5,7.25,6.5,4.0,6.0,-0.11,0.08,0.95,965.1,0.8,-26.7,1.75,0.75,0.5,2.25,4.5,1.5,0.25,1.25,0.5,0.5,0.75,0.5,0.75,-0.17,0.08,1.39,233.02,-3.7,26.7
0.84,0.5,1.0,4.75,3.0,5.75,4.25,4.0,6.75,5.75,6.75,6.0,3.75,5.75,-0.05,0.08,0.95,900.65,1.4,-23.1,1.5,1.0,0.5,2.25,4.5,1.25,0.25,1.25,0.5,0.5,0.25,0.5,0.5,-0.11,0.27,1.45,243.66,-3.8,32.3
0.86,0.25,1.0,4.75,4.5,6.0,4.5,4.25,7.0,5.75,6.5,6.25,3.25,5.25,-0.05,0.08,0.95,860.23,1.8,-19.2,1.75,0.75,0.75,2.0,4.5,1.5,0.25,1.25,0.5,0.0,0.25,0.5,0.0,0.02,0.39,1.64,248.58,-5.4,41.0
0.88,0.25,1.0,5.0,4.75,6.0,4.75,4.5,7.0,6.0,6.5,5.75,2.5,5.0,-0.05,0.08,0.95,845.89,1.9,-16.3,1.5,0.75,0.5,1.75,4.5,1.0,0.25,1.25,0.5,0.5,0.5,0.5,0.0,0.08,0.45,1.89,239.72,-4.4,33.4
0.9,0.25,1.0,5.0,4.75,6.0,5.0,4.5,7.0,6.0,5.75,5.25,2.25,4.75,-0.05,0.08,0.95,834.31,2.0,-13.9,1.75,0.75,0.5,1.75,4.5,2.0,0.25,1.0,0.5,0.25,0.75,0.5,0.25,0.2,0.64,2.52,234.46,-3.6,33.3
0.92,0.5,1.0,5.0,4.75,6.0,5.25,4.75,7.25,6.5,5.25,5.0,2.25,4.0,-0.05,0.08,0.95,826.38,2.4,-11.3,1.25,0.5,0.5,1.5,4.25,1.0,0.0,1.25,0.5,0.5,1.5,0.5,0.0,0.33,1.14,2.64,221.85,-3.8,22.6
0.94,1.0,1.0,5.25,5.5,6.0,5.75,5.0,7.25,7.0,5.25,5.0,2.0,3.25,-0.05,0.08,0.95,836.11,3.2,-7.2,1.75,0.75,0.75,1.5,4.5,1.5,0.0,1.25,0.5,0.0,0.5,0.5,0.0,0.14,2.02,2.52,213.26,-4.8,38.5
0.96,1.25,1.5,5.75,6.5,6.25,6.0,5.25,7.25,7.0,5.0,4.75,1.25,3.0,-0.05,0.08,0.95,859.22,3.9,-1.2,1.75,0.75,0.5,1.5,4.5,1.25,0.25,0.75,0.5,0.25,0.75,0.5,0.0,-0.05,2.7,1.95,206.25,-5.4,36.7
0.98,2.25,2.0,6.5,7.75,7.5,6.75,5.5,6.75,6.75,4.25,4.5,1.0,2.0,-0.05,0.08,0.95,910.91,5.4,8.7,1.25,0.75,0.75,1.25,4.5,1.75,0.25,1.0,0.5,0.5,0.5,0.5,0.0,-0.36,3.77,1.02,205.35,-3.0,33.2
1.0,3.75,2.5,6.75,8.25,8.0,6.75,6.0,6.5,6.5,3.5,3.75,0.75,2.0,-0.05,0.08,0.95,971.69,6.6,15.3,0.5,0.0,0.0,0.0,1.0,0.0,0.0,0.0,0.0,0.0,0.0,0.0,0.0,-1.17,4.64,-0.3,146.44,-7.7,66.2
1.02,5.25,2.5,8.0,10.5,8.25,6.75,6.25,5.75,5.5,3.25,3.5,0.75,1.25,-0.05,0.08,0.95,1048.52,8.7,23.3,0.5,0.0,0.0,0.0,0.5,1.25,0.0,0.0,0.5,0.75,0.0,0.5,0.0,-2.42,4.83,-0.05,99.1,3.5,-3.3
1.04,6.25,2.5,9.0,12.5,9.25,6.5,6.25,4.75,4.5,3.0,2.5,0.75,1.5,-0.05,0.08,0.95,1125.93,10.0,29.5,1.25,0.0,1.0,1.25,4.5,0.25,0.25,1.25,0.5,0.75,0.0,0.75,0.25,0.2,0.58,2.14,99.35,-4.8,24.5
1.06,7.25,2.75,10.5,14.0,9.5,6.0,6.0,3.5,2.75,3.0,2.5,0.5,1.25,-0.11,0.14,1.02,1196.38,11.8,36.2,1.25,0.75,0.0,1.5,1.25,0.0,0.25,1.5,0.5,0.0,1.5,1.5,1.5,0.45,-0.61,1.89,115.32,-5.6,-13.6
1.08,8.25,1.75,11.5,14.5,9.5,4.75,5.75,2.75,2.0,3.0,2.5,0.5,1.5,-0.11,0.14,1.2,1231.65,13.4,37.8,1.25,0.5,0.0,0.25,0.5,0.0,0.0,0.0,0.5,1.0,0.0,5.0,2.5,0.77,0.2,0.7,141.92,-4.2,-61.5
1.1,9.0,4.0,12.5,14.5,9.5,1.75,5.75,2.75,1.25,3.0,2.5,0.5,1.5,-0.11,0.2,1.27,1255.03,15.5,41.9,0.0,0.0,0.0,1.25,4.5,0.25,0.0,0.25,0.5,1.25,0.0,5.5,4.5,-1.17,0.39,1.95,190.79,1.7,-46.1
1.12,9.25,4.0,12.5,13.0,9.25,2.25,4.5,2.5,1.25,3.0,2.0,0.5,1.25,-0.17,0.27,1.39,1241.81,15.4,43.5,1.25,1.25,0.5,0.0,3.5,1.5,0.0,2.25,2.75,6.75,4.25,7.5,7.5,0.33,0.64,2.14,309.71,1.8,-54.2
1.14,9.5,4.0,12.5,10.0,8.0,1.5,3.25,2.25,0.5,1.25,2.25,0.5,1.25,-0.17,0.27,1.45,1156.91,17.3,47.6,0.0,0.0,0.0,0.75,4.5,2.5,0.0,4.25,3.5,7.25,6.25,7.75,7.0,-0.05,0.58,1.83,464.54,3.7,-57.2
1.16,9.75,4.0,11.0,6.75,6.0,1.75,3.25,0.75,1.0,3.0,2.25,0.5,1.25,-0.17,0.39,1.64,1020.75,17.3,43.8,2.0,0.75,1.75,1.5,4.75,3.25,0.25,5.75,5.0,7.75,8.0,8.0,0.0,0.14,0.2,0.95,639.51,-1.6,-32.6
1.18,9.25,3.5,11.0,6.0,6.0,1.75,3.25,1.0,1.0,3.0,2.0,0.5,0.75,-0.42,0.64,2.27,886.97,17.4,44.3,2.0,1.0,1.75,2.25,4.75,3.75,0.25,6.25,5.5,7.75,8.5,8.5,8.0,0.08,0.2,0.95,842.33,0.2,-41.9
1.2,8.25,2.75,9.75,4.75,5.75,1.75,3.25,1.75,1.0,3.0,1.75,0.5,1.0,-0.86,0.95,2.58,760.46,16.0,39.7,2.0,1.0,2.25,2.25,4.75,4.0,1.25,6.5,5.5,7.75,8.75,7.75,8.0,0.08,0.2,0.95,997.36,0.0,-39.5
1.22,5.75,1.0,6.5,2.0,2.25,0.25,2.5,0.5,0.25,0.75,1.0,0.0,0.25,-0.67,0.64,2.7,531.95,23.1,52.4,2.0,0.75,2.25,2.25,5.0,4.0,1.25,6.75,5.5,7.75,8.75,7.75,8.0,0.08,0.14,0.95,1107.69,0.0,-39.7
1.24,2.25,1.0,4.75,0.75,2.25,0.25,1.75,0.75,0.25,1.0,0.75,0.0,0.25,-0.23,-0.17,3.58,337.75,18.0,40.3,2.0,1.0,2.25,2.25,5.0,4.5,1.5,6.75,5.5,7.5,8.25,7.0,7.25,0.08,0.14,0.95,1151.49,0.0,-36.2
1.26,0.5,0.75,4.25,0.0,2.25,0.0,1.25,0.5,0.25,0.5,0.5,0.0,0.25,-0.48,-0.8,1.77,193.76,17.8,38.2,1.5,1.0,2.25,2.75,4.75,4.5,1.5,6.25,5.5,6.75,7.75,6.25,6.75,0.08,0.14,0.95,1120.84,0.0,-34.4
1.28,0.0,0.0,2.75,0.0,2.25,0.0,1.75,0.5,0.25,0.5,0.5,0.0,0.25,-1.05,-1.17,2.33,71.65,13.9,24.6,1.75,1.0,2.25,2.75,4.75,4.5,1.5,6.25,5.0,6.0,7.25,5.5,6.0,0.08,0.14,0.95,1034.04,-0.3,-30.7
1.3,0.0,0.0,1.75,0.5,2.25,0.0,1.75,0.5,0.25,0.5,0.5,0.0,0.0,-0.61,-1.3,1.7,0.0,11.8,26.5,1.75,0.75,2.25,2.75,5.25,4.25,1.25,6.25,5.0,5.25,6.75,4.75,5.0,0.08,0.14,0.95,936.94,-0.5,-27.0
1.32,0.25,0.0,1.75,0.75,2.25,0.0,1.5,0.5,0.25,0.5,0.5,0.0,0.0,-0.61,-0.86,0.95,0.0,12.3,29.7,2.0,1.0,2.25,2.75,5.5,4.0,1.25,6.0,5.0,5.25,5.0,4.0,4.25,0.08,0.14,0.95,833.87,-0.6,-21.2
1.34,0.0,0.25,1.75,0.75,2.25,0.25,1.25,0.0,0.25,0.5,0.0,0.0,0.0,-0.61,-0.61,0.45,0.0,12.2,42.2,2.0,1.0,2.25,2.75,5.75,4.5,1.5,6.0,5.0,4.0,5.0,3.25,3.5,0.08,0.14,0.95,735.63,-1.0,-15.7
1.36,0.25,0.0,3.0,0.5,2.25,0.5,1.75,1.0,0.25,0.5,1.5,0.0,0.75,-0.55,-0.55,0.52,0.0,10.7,11.8,2.0,1.25,2.25,2.75,6.0,4.5,1.75,6.0,5.0,3.75,3.75,3.0,2.75,0.08,0.14,0.95,653.25,-1.2,-10.3
1.38,0.25,0.75,1.75,0.25,0.0,0.0,1.0,0.5,0.25,0.5,0.0,0.0,0.0,-0.48,-0.48,0.77,0.0,19.5,35.6,2.0,1.5,2.5,2.75,6.5,4.5,1.75,6.0,5.5,3.5,3.75,2.25,1.75,0.08,0.14,0.95,609.96,-1.8,-4.4
1.4,0.0,0.75,1.75,0.5,1.25,0.0,1.25,0.5,0.25,0.5,0.0,0.0,0.0,-0.36,-0.23,0.95,9.64,13.9,38.1,3.0,1.5,3.0,2.75,6.5,4.5,2.25,6.0,5.5,3.25,4.0,2.0,1.5,0.08,0.14,0.95,592.23,-3.3,-0.1
1.42,0.0,0.0,1.0,0.0,1.75,0.0,1.25,0.5,0.25,0.5,0.0,0.0,0.25,-0.36,-0.11,0.95,13.01,6.8,17.9,3.25,1.5,4.0,4.25,6.5,5.5,2.0,6.25,5.75,2.75,4.0,2.0,2.25,0.08,0.14,0.95,611.96,-3.9,2.6
1.44,1.0,1.0,2.0,2.0,2.5,1.75,1.75,1.0,0.5,2.5,1.25,0.5,1.75,-0.36,0.08,1.14,106.22,4.3,4.4,4.5,1.5,4.75,5.0,7.25,5.75,2.5,6.25,5.75,2.5,3.75,1.5,1.75,0.08,0.14,0.95,669.82,-5.4,10.4
1.46,0.0,0.25,1.0,0.5,2.25,0.0,1.25,0.5,0.25,0.5,0.0,0.0,0.0,-0.36,0.2,1.39,127.17,7.8,33.1,5.75,1.5,5.0,6.75,8.0,6.0,2.5,6.0,5.75,2.25,3.0,1.0,1.5,0.08,0.14,0.95,747.84,-6.5,18.3
1.48,0.25,0.25,1.0,0.0,2.25,0.0,1.25,0.5,0.25,1.5,0.5,0.5,0.0,-0.3,0.33,1.64,144.98,5.3,4.2,7.0,1.75,6.5,8.5,9.0,6.0,3.25,5.5,5.5,2.25,2.25,0.75,1.5,0.08,0.2,0.95,851.36,-8.3,25.7
1.5,0.25,0.0,3.0,0.5,2.5,0.0,1.75,0.5,0.25,2.0,1.25,0.5,1.25,-0.3,0.45,1.83,157.97,8.7,-3.6,8.25,2.5,7.5,10.5,9.5,6.25,3.5,5.0,4.5,1.5,2.25,0.75,1.5,0.08,0.2,0.95,970.12,-9.9,32.6
1.52,0.75,1.0,1.5,2.0,2.25,1.25,1.75,0.5,0.75,2.0,1.25,0.5,1.25,-0.36,0.7,2.33,190.49,5.7,6.3,9.5,2.5,8.5,12.0,11.0,6.25,3.5,4.25,3.0,1.25,2.25,0.75,1.25,0.08,0.2,0.95,1091.73,-11.0,38.8
1.54,0.75,0.75,2.25,2.0,2.5,1.0,1.75,0.5,0.5,2.0,1.5,0.5,1.0,-0.48,1.27,2.64,215.82,7.6,9.1,10.5,2.5,9.25,13.5,12.0,6.0,2.75,3.0,1.75,1.0,2.5,0.5,0.0,0.02,0.2,1.14,1187.27,-12.7,47.1
1.56,0.5,0.0,3.0,0.0,2.25,0.0,1.25,0.5,0.25,0.5,0.25,0.0,0.25,-0.48,2.27,3.08,206.49,15.4,32.5,12.0,2.5,10.5,10.5,12.0,5.75,1.5,2.5,1.25,0.25,0.75,0.75,0.25,0.02,0.2,1.27,1216.22,-14.0,53.2
1.58,0.75,1.0,1.0,1.75,2.25,0.25,1.25,0.5,0.25,0.5,0.5,0.0,1.25,-0.3,3.33,2.45,199.07,7.9,23.4,11.5,2.25,11.0,13.0,13.5,4.5,0.75,1.5,1.25,0.0,1.0,0.0,0.25,0.08,0.27,1.27,1222.93,-14.9,56.9
1.6,0.0,0.0,1.0,0.0,2.25,0.0,1.25,0.5,0.25,0.5,0.5,0.0,0.0,0.08,4.83,1.02,156.35,7.0,19.3,12.5,2.0,10.5,11.0,10.5,2.5,0.0,0.0,0.25,0.0,0.0,0.0,0.0,0.2,0.33,1.39,1118.55,-18.7,66.7
1.62,0.25,0.0,2.0,0.0,2.25,0.0,1.0,0.5,0.25,0.5,0.0,0.0,0.0,1.95,6.33,0.95,134.66,12.1,35.3,12.5,2.5,10.0,9.0,8.25,2.25,0.0,0.0,0.0,0.0,0.0,0.0,0.0,0.2,0.39,1.45,982.48,-20.0,69.1
1.64,0.0,0.25,0.5,0.0,2.25,0.25,1.25,0.5,0.25,0.5,0.75,0.0,0.0,2.77,3.52,-0.3,106.59,3.7,16.0,11.5,1.75,9.25,7.0,5.25,0.5,0.0,0.0,0.0,0.0,0.0,0.0,0.0,0.33,0.58,1.83,784.33,-23.8,71.6
1.66,0.25,0.5,0.5,0.25,2.25,0.0,0.75,0.5,0.25,1.25,0.75,0.0,0.5,-0.98,-0.67,3.45,102.08,2.2,4.5,9.75,1.0,8.5,5.5,3.0,1.0,1.25,0.0,0.25,0.0,0.0,0.0,0.0,0.77,1.08,2.33,598.59,-25.2,69.7
1.68,0.75,1.0,1.75,2.0,2.25,1.75,1.25,0.5,1.0,3.25,0.25,0.75,3.25,0.33,1.02,0.89,151.56,1.6,-8.0,8.25,0.75,7.5,4.0,0.25,0.75,0.75,0.0,0.0,0.0,0.0,0.0,0.0,0.7,1.39,3.08,413.15,-29.5,73.2
1.7,0.5,0.75,0.25,0.0,2.25,0.0,0.5,0.5,0.5,4.25,1.25,0.75,4.25,-0.11,0.33,2.33,195.12,-4.6,-45.8,6.25,0.0,4.75,2.75,0.25,0.0,0.25,0.0,0.0,0.0,0.0,0.0,0.0,0.45,0.89,3.39,276.78,-31.6,75.2
1.72,0.0,1.0,0.5,0.25,0.0,2.25,0.75,4.5,1.75,7.25,3.25,4.0,6.0,-0.8,0.77,2.77,286.21,-5.9,-61.5,3.75,0.5,2.25,2.5,1.0,2.0,0.0,0.0,0.5,0.0,0.0,0.5,0.5,0.45,-0.8,2.95,179.38,-16.2,50.5
1.74,0.75,1.0,0.0,2.25,1.75,3.5,0.0,6.5,4.0,8.5,5.25,5.5,7.0,0.33,0.27,1.08,430.35,-4.2,-49.7,3.0,0.5,1.75,1.25,4.25,2.0,0.25,0.75,0.5,0.75,0.5,0.5,0.0,0.39,-0.42,-0.42,122.41,-8.0,39.5
1.76,0.0,1.0,3.0,2.5,5.25,4.25,3.0,7.5,5.0,9.0,6.75,6.0,7.25,-0.05,0.14,1.02,674.91,-1.2,-36.6,2.0,0.75,1.75,2.25,4.5,1.75,0.25,1.0,0.5,0.5,0.75,0.5,0.0,0.95,-1.48,1.89,107.14,-7.4,37.6
1.78,1.0,1.0,4.5,3.75,6.0,5.0,4.0,8.0,5.5,9.0,7.25,6.5,7.75,-0.05,0.14,0.95,931.82,0.5,-29.8,2.0,0.5,1.75,2.5,4.5,1.5,0.25,1.0,0.5,0.25,0.75,0.5,0.25,0.64,-0.86,1.2,117.05,-8.0,36.4
1.8,1.0,1.0,5.0,3.75,6.0,5.0,4.25,8.25,5.75,9.5,7.75,7.0,7.75,-0.05,0.08,0.95,1160.11,0.8,-30.3,1.75,0.0,1.75,2.25,4.25,2.0,0.25,0.75,0.5,0.5,0.75,0.5,0.0,0.39,-0.61,0.52,131.54,-6.9,34.5
1.82,0.5,1.0,4.75,3.25,6.0,5.25,4.25,8.25,5.5,9.5,7.75,6.5,8.25,-0.11,0.08,0.95,1286.26,0.0,-31.9,2.0,0.0,1.75,2.0,4.5,2.0,0.0,0.0,0.5,0.0,0.75,0.5,0.0,0.2,-0.36,0.27,140.87,-8.7,43.1
1.84,0.5,1.0,4.5,3.25,6.0,5.25,4.0,8.75,5.5,9.0,7.25,6.0,8.0,-0.11,0.08,0.95,1320.94,-0.2,-30.9,1.75,0.0,1.75,2.25,4.5,2.0,0.25,1.25,0.5,0.0,0.75,0.5,0.0,0.02,-0.23,0.58,162.11,-6.7,36.0
1.86,0.5,1.0,3.75,2.5,5.75,5.25,3.75,8.25,5.0,8.75,6.5,5.25,7.5,-0.11,0.08,0.95,1281.65,-0.9,-31.3,2.0,0.0,1.75,2.25,4.5,2.0,0.25,1.0,0.5,0.0,0.75,0.5,0.25,-0.23,-0.23,1.02,182.96,-7.1,35.7
1.88,0.5,1.0,3.75,2.25,6.0,5.0,3.25,8.0,5.0,8.25,6.5,4.75,7.0,-0.11,0.08,0.95,1198.08,-0.9,-30.0,1.75,0.0,1.75,2.0,4.5,1.5,0.5,1.25,0.5,0.0,0.25,0.5,0.5,-0.23,-0.17,1.2,202.3,-6.8,34.2
1.9,0.5,1.0,3.75,2.25,6.0,5.0,3.25,8.0,4.5,8.0,6.0,3.75,6.5,-0.11,0.08,0.95,1087.13,-1.1,-27.3,1.75,0.0,1.75,2.0,4.5,1.25,0.25,1.25,0.5,0.0,0.0,0.5,0.25,-0.11,0.08,1.08,212.14,-7.4,38.7
1.92,0.0,1.0,3.75,2.25,6.0,4.5,3.25,7.75,4.5,7.5,5.75,3.0,6.0,-0.11,0.08,0.95,969.74,-1.1,-26.3,1.75,0.0,1.75,2.25,4.5,2.0,0.25,0.75,0.5,0.0,0.75,0.5,0.5,-0.11,0.2,1.2,224.28,-6.8,33.6
1.94,0.5,1.0,4.0,2.5,6.0,4.5,3.25,7.25,4.5,6.75,5.0,2.5,5.75,-0.11,0.08,0.95,872.06,-0.3,-21.6,1.25,0.0,1.75,2.0,4.5,2.0,0.25,0.75,0.5,0.25,0.75,0.5,0.25,-0.17,0.33,1.45,227.39,-5.7,31.9
1.96,0.25,1.0,3.75,2.75,6.0,5.0,3.25,7.25,4.5,6.5,5.0,2.25,5.0,-0.11,0.08,0.95,779.78,-0.5,-19.7,1.75,0.0,1.75,1.5,4.25,1.75,0.25,0.5,0.5,0.25,0.5,0.5,0.0,-0.11,0.45,1.7,221.09,-7.6,38.4
1.98,0.75,1.25,4.0,3.25,6.0,5.25,3.25,7.25,4.75,6.5,4.75,2.25,5.25,-0.11,0.08,0.95,734.93,0.0,-17.0,1.5,0.0,1.75,2.0,4.5,1.75,0.25,1.0,0.5,0.0,0.5,0.5,0.5,0.08,0.64,2.08,218.91,-6.2,32.8
2.0,0.75,1.25,4.25,3.75,6.0,5.25,3.75,7.25,5.25,6.25,4.75,2.25,4.75,-0.11,0.08,0.95,721.47,0.8,-14.7,1.25,0.0,1.5,2.0,4.5,1.75,0.25,0.5,0.5,0.0,0.25,0.5,0.75,0.08,0.83,2.45,215.23,-5.5,33.0
2.02,0.5,1.0,4.5,4.75,6.0,5.25,4.25,7.25,5.75,6.0,5.25,2.25,4.5,-0.11,0.08,0.89,739.09,1.5,-13.8,1.25,0.0,1.75,1.25,4.5,2.0,0.25,0.75,0.5,0.25,0.0,0.5,0.0,0.2,1.33,3.08,210.69,-5.1,38.9
2.04,0.5,1.0,4.75,4.75,6.0,5.5,4.5,7.25,6.25,5.25,5.25,2.25,3.75,-0.05,0.08,0.95,761.01,2.2,-11.3,1.5,0.0,1.75,1.25,4.5,1.75,0.25,0.25,0.5,0.0,0.75,0.5,0.5,0.33,2.45,3.27,207.94,-6.9,33.3
2.06,1.25,1.0,5.0,4.75,6.25,6.0,4.75,7.5,6.75,5.25,5.5,2.25,4.25,-0.05,0.08,0.95,807.0,2.4,-10.3,1.0,0.0,1.5,1.25,4.5,2.0,0.0,0.5,0.5,0.0,0.75,0.5,0.0,0.2,3.45,2.08,202.66,-4.8,34.8
2.08,0.75,1.25,5.5,5.75,7.75,6.75,4.75,7.5,6.75,5.25,4.75,1.75,3.0,-0.11,0.08,0.95,859.63,2.5,-2.8,2.0,0.0,0.75,1.25,4.5,2.0,0.25,0.75,0.5,0.0,0.5,0.5,0.5,0.45,5.77,-0.86,201.01,-4.0,32.8
2.1,2.25,1.25,5.75,6.75,8.0,6.75,5.25,7.5,6.75,4.75,4.75,1.25,2.75,-0.11,0.08,0.95,926.88,3.9,2.9,1.5,0.25,1.75,1.25,4.5,1.5,0.25,0.0,0.5,0.0,0.75,0.5,0.5,-2.67,6.39,-1.86,201.04,-7.9,35.9
2.12,3.75,1.75,6.5,8.25,8.5,7.25,5.75,7.25,6.5,4.25,3.75,0.75,2.25,-0.11,0.08,0.95,1003.49,5.4,12.4,0.75,0.75,1.75,1.5,3.75,1.25,0.25,0.75,0.5,0.5,0.75,0.5,0.5,-3.05,4.39,0.64,203.5,-5.9,26.4
2.14,4.75,2.25,8.0,12.5,9.25,7.25,6.25,6.5,5.5,3.25,3.5,0.75,1.5,-0.11,0.08,0.95,1111.94,8.0,23.0,1.5,0.0,1.25,1.5,4.25,0.0,0.25,0.25,0.5,0.75,0.0,1.0,0.5,1.7,-0.67,2.27,196.58,-8.5,26.1
2.16,6.5,2.25,9.75,14.0,9.5,7.0,6.25,5.25,3.75,3.25,2.5,0.75,1.25,-0.11,0.08,1.02,1211.68,10.0,31.0,1.25,0.75,1.5,1.25,2.5,0.0,0.0,0.25,0.5,0.75,0.75,3.0,2.25,0.89,-0.05,0.02,198.86,-7.5,-13.5
2.18,7.5,2.75,11.0,15.5,12.0,6.5,5.25,3.5,2.0,3.0,2.5,0.5,1.25,-0.05,0.14,1.14,1308.12,11.2,38.5,0.0,0.0,0.0,0.0,0.5,0.0,0.0,0.0,0.5,2.0,0.25,5.75,2.75,-0.17,0.64,2.14,195.68,1.0,-92.4
2.2,8.0,3.5,11.5,14.5,12.0,5.25,4.5,2.75,1.25,3.0,2.5,0.5,1.25,-0.17,0.14,1.45,1340.61,12.3,41.2,0.0,0.75,0.5,1.25,4.25,1.25,0.0,0.0,1.0,3.75,3.0,6.5,5.75,-1.11,0.52,1.27,259.49,1.0,-49.2
2.22,9.0,4.0,12.5,14.0,9.75,2.25,3.25,2.5,0.75,3.0,2.5,0.5,1.25,-0.23,0.2,1.39,1323.66,15.0,43.5,0.5,0.75,0.0,1.25,2.25,2.75,0.0,3.0,2.5,6.0,5.25,6.5,7.75,1.2,0.39,2.7,362.87,3.3,-57.0
2.24,8.5,2.75,12.5,8.75,8.25,1.75,2.0,0.75,0.5,1.25,1.25,0.5,0.75,-0.23,0.33,1.58,1160.29,18.1,51.9,2.0,1.25,1.25,0.0,4.25,2.25,0.0,4.25,3.5,6.75,7.0,7.0,8.0,-0.11,0.52,1.77,537.13,0.9,-47.2
2.26,8.5,2.75,12.5,6.5,7.25,1.25,1.25,0.5,0.5,1.0,1.25,0.0,1.0,-0.23,0.45,2.2,965.94,19.3,54.0,2.0,1.0,0.75,2.75,3.75,4.0,0.5,6.25,5.25,7.75,8.75,8.5,8.0,0.14,0.27,1.02,756.88,0.7,-44.4
2.28,8.25,2.5,9.75,5.25,4.75,1.75,1.75,0.5,1.0,2.75,0.5,0.5,1.5,-0.73,0.83,2.52,770.91,17.2,44.0,2.0,1.0,2.0,2.25,4.75,3.5,1.25,6.25,5.5,7.75,9.25,8.75,8.25,0.08,0.2,0.95,952.98,-0.3,-42.2
2.3,7.25,2.5,9.0,4.75,6.0,1.75,2.75,1.5,1.0,2.75,1.5,0.5,1.0,-0.92,0.83,2.77,650.52,15.3,39.6,2.25,0.75,2.25,2.25,4.75,3.75,1.25,6.75,5.75,7.75,9.0,8.5,8.25,0.08,0.14,0.95,1091.33,-0.3,-41.1
2.32,5.5,1.0,6.25,2.0,2.25,1.25,1.75,1.75,1.0,3.0,1.75,0.5,0.25,-0.8,0.58,3.2,486.91,15.3,28.2,2.25,1.0,2.25,2.25,4.75,3.5,1.25,6.25,5.5,7.75,8.75,8.5,8.0,0.08,0.14,0.95,1152.16,-0.5,-40.4
2.34,2.75,0.0,4.0,0.75,2.5,0.0,1.25,0.5,0.25,0.5,1.25,0.0,0.25,-0.55,-0.92,3.7,317.48,19.5,38.9,2.0,1.0,2.25,2.25,4.75,3.5,1.25,6.25,5.5,7.25,8.5,7.75,8.0,0.08,0.14,0.95,1160.14,-0.4,-39.7
2.36,0.75,0.0,1.25,0.5,2.25,0.0,0.5,0.5,0.25,0.75,1.0,0.0,0.25,-0.55,-0.55,2.08,173.77,8.8,16.8,2.0,0.75,2.25,2.25,4.75,3.5,1.25,6.25,5.0,6.75,8.0,7.0,7.5,0.08,0.08,0.95,1113.18,-0.3,-38.1
2.38,0.25,0.5,1.75,0.75,2.25,0.0,0.75,0.5,0.25,0.5,0.0,0.0,0.5,-0.86,-1.67,1.83,46.42,9.9,31.6,2.0,1.0,2.25,2.0,4.75,3.0,1.25,5.5,5.0,6.25,7.5,6.25,6.75,0.08,0.14,0.95,1030.7,-0.8,-35.9
2.4,0.0,0.0,0.0,0.0,2.25,0.25,0.75,0.5,0.25,0.5,0.75,0.0,0.25,-0.61,-0.86,0.83,0.0,-2.0,1.3,2.0,1.0,2.25,2.25,5.0,3.25,1.0,5.5,5.0,5.5,6.75,6.0,6.0,0.08,0.14,0.95,933.13,-1.0,-32.1
2.42,0.25,0.0,1.75,0.0,2.25,0.25,0.75,0.5,0.25,0.5,0.5,0.0,0.25,-0.73,-0.73,0.27,0.0,8.7,21.9,2.0,1.0,2.25,2.25,4.75,3.25,1.25,5.5,5.0,5.25,6.5,5.5,5.5,0.08,0.14,0.89,835.24,-1.2,-30.5
2.44,0.0,0.5,1.5,0.25,2.25,0.0,0.75,0.5,0.25,0.5,0.75,0.0,0.25,-0.55,-0.67,0.52,0.0,8.5,21.2,2.0,1.0,2.25,2.25,4.75,3.25,1.25,5.0,5.0,5.0,6.5,5.5,5.0,0.08,0.14,0.95,741.35,-1.6,-29.3
2.46,0.0,0.25,1.75,0.25,2.25,0.0,0.5,0.5,0.25,0.5,0.5,0.0,0.25,-0.36,-0.61,0.7,0.0,8.9,23.0,2.0,1.0,2.25,2.5,4.75,3.5,1.25,5.25,5.25,4.5,6.25,4.75,4.5,0.08,0.14,0.95,673.05,-1.8,-25.7
2.48,0.0,1.0,1.25,0.0,2.25,0.0,0.5,0.5,0.25,0.5,0.5,0.0,0.0,-0.17,-0.48,1.2,0.0,7.7,32.3,2.75,1.0,2.25,2.75,5.0,3.75,1.75,5.5,5.5,3.75,5.75,4.5,3.5,0.08,0.14,0.95,631.43,-2.8,-19.0
2.5,0.0,0.0,1.5,0.0,2.25,1.75,0.75,0.5,0.5,2.25,0.0,0.75,0.0,-0.11,-0.3,1.2,29.48,-0.6,0.9,3.0,1.0,2.75,2.75,5.75,4.5,2.0,5.25,5.75,3.75,5.25,3.5,3.25,0.08,0.14,0.95,614.95,-2.9,-12.4
2.52,0.0,0.0,3.0,0.0,3.5,0.0,1.75,0.5,0.25,0.5,0.5,0.0,0.0,-0.11,-0.11,1.14,65.78,12.7,33.4,3.5,1.0,4.0,3.0,6.5,4.5,2.25,5.5,6.0,3.0,5.0,3.0,2.75,0.08,0.14,0.95,631.28,-4.5,-4.8
2.54,0.0,0.5,1.25,0.0,2.25,0.0,1.75,1.0,0.25,0.5,1.25,0.0,1.25,-0.11,0.02,1.45,96.18,5.0,-2.8,5.25,1.5,4.75,4.75,6.5,4.5,2.25,5.5,6.5,2.5,4.0,2.0,1.75,0.08,0.14,0.95,672.86,-6.9,8.5
2.56,0.0,0.25,1.5,0.0,2.25,0.0,0.5,0.5,0.25,0.5,0.25,0.0,0.0,-0.11,0.08,1.58,111.9,8.2,29.4,6.25,1.5,5.25,5.5,7.0,5.5,3.25,5.5,6.5,2.25,4.5,2.0,1.75,0.08,0.14,0.95,746.39,-7.6,11.9
2.58,0.5,1.0,1.25,2.0,2.25,1.5,0.75,0.5,0.5,2.0,0.25,0.5,0.0,-0.17,0.2,2.08,149.08,4.5,21.7,8.0,1.5,6.5,7.25,8.0,5.5,3.75,4.75,5.75,2.25,3.25,1.25,1.5,0.08,0.14,0.95,836.41,-9.5,22.9
2.6,0.5,1.0,3.0,2.0,2.5,1.75,1.75,0.5,0.5,2.0,1.75,0.5,1.0,-0.3,0.33,2.27,194.48,7.5,11.2,9.0,2.0,8.25,10.5,9.25,5.75,4.0,4.25,5.0,1.25,2.75,1.0,1.5,0.08,0.2,0.95,961.02,-11.3,32.4
2.62,0.5,0.75,3.0,2.25,2.5,1.0,1.75,0.5,0.5,1.75,1.25,0.5,1.0,-0.36,0.52,2.64,228.83,9.1,13.5,10.5,2.5,9.25,12.0,11.0,6.0,4.0,3.0,3.25,1.0,2.75,0.75,1.5,0.08,0.14,0.95,1093.84,-12.4,40.0
2.64,0.75,0.25,3.0,1.5,2.5,1.0,0.75,0.5,0.5,1.75,1.5,0.5,1.0,-0.48,0.83,3.2,245.88,8.3,7.8,11.5,2.25,10.5,13.5,12.0,5.75,3.5,2.25,2.0,1.0,2.0,0.75,0.75,0.02,0.14,1.2,1209.87,-13.7,47.0
2.66,0.5,1.25,3.0,2.0,2.25,1.0,1.5,0.75,0.5,1.5,1.25,0.5,0.25,-0.67,1.64,3.58,251.26,10.2,21.2,11.5,2.5,11.0,12.0,12.0,4.5,1.75,1.5,1.25,0.0,1.75,0.0,0.5,0.02,0.2,1.27,1234.47,-15.4,54.7
2.68,0.5,1.0,3.0,0.0,2.5,0.0,1.25,0.75,0.25,0.5,1.5,0.0,1.25,-0.73,3.02,2.2,234.68,11.2,14.6,14.5,3.0,11.0,12.0,12.5,3.5,0.5,0.5,0.75,0.0,0.75,0.5,0.5,0.08,0.27,1.33,1234.22,-17.1,60.6
2.7,0.5,0.5,0.5,0.25,1.75,0.0,0.5,0.5,0.25,0.5,0.0,0.0,0.0,-0.42,5.14,0.27,187.57,6.6,36.3,13.0,2.5,11.5,10.5,9.5,2.25,0.0,1.0,0.5,0.0,0.25,0.0,1.0,0.14,0.33,1.39,1138.97,-18.5,61.2
2.72,0.5,0.75,1.0,0.0,2.25,1.0,0.5,0.5,0.5,2.0,1.0,0.75,0.25,1.89,6.7,-0.61,166.97,2.0,-0.8,13.0,2.5,10.5,8.75,8.0,2.25,0.0,0.5,0.5,0.0,0.0,0.0,0.25,0.14,0.45,1.52,1009.13,-19.9,66.2
2.74,0.25,0.0,2.75,0.0,2.5,0.5,1.75,1.0,0.25,2.25,1.5,0.5,1.25,2.27,4.14,1.2,165.71,5.4,-9.6,11.5,1.5,10.0,7.0,5.5,0.0,0.25,0.0,0.5,0.0,0.0,0.0,0.0,0.14,0.52,2.08,814.16,-24.5,69.9
2.76,1.25,0.5,2.75,0.75,2.5,1.75,1.25,1.0,0.25,0.75,1.75,0.25,0.5,0.08,-0.86,3.27,186.19,8.6,19.7,9.75,1.0,9.0,6.0,1.5,1.0,1.25,0.0,0.5,0.0,0.0,0.0,0.0,0.58,1.08,2.52,617.65,-26.9,69.4
2.78,0.0,0.25,0.75,0.0,1.25,0.0,1.25,0.75,0.75,2.0,2.25,0.5,2.0,-0.3,-1.17,-0.92,186.14,1.0,-43.1,8.25,1.0,7.5,5.0,0.0,1.25,0.75,0.0,0.5,0.0,0.0,0.0,0.0,0.64,1.45,2.83,434.34,-27.7,70.0
2.8,0.25,0.25,1.25,0.0,0.0,0.0,0.5,0.5,0.25,1.5,1.0,2.25,3.0,-0.11,0.77,1.89,181.17,2.6,-63.1,6.25,0.0,4.75,2.75,0.25,0.0,0.0,0.0,0.25,0.0,0.0,0.0,0.0,0.58,1.08,2.89,284.57,-31.3,73.7
2.82,1.0,0.5,0.0,1.75,0.0,0.0,0.5,0.5,0.75,3.0,1.25,5.25,5.5,0.83,0.08,1.14,206.83,0.7,-65.7,4.0,1.0,2.0,2.75,3.5,1.25,0.25,1.25,0.5,0.5,0.0,0.5,0.25,0.33,-0.55,2.64,207.7,-11.8,46.0
2.84,0.75,0.75,0.0,1.0,2.25,2.0,0.5,2.75,1.25,5.25,3.0,5.5,8.5,0.08,0.33,1.33,289.32,-4.3,-57.0,1.5,0.0,2.25,1.25,3.5,0.0,0.25,1.0,0.5,0.0,0.0,0.0,0.0,0.39,-0.05,3.2,117.15,-13.0,48.3
2.86,1.0,1.0,0.0,0.0,0.75,2.0,0.75,4.5,2.0,7.25,4.75,7.75,10.5,-1.23,0.39,1.39,435.98,-4.3,-68.3,0.5,0.0,0.5,1.25,1.0,0.0,0.0,0.0,0.25,0.0,0.0,0.0,0.0,0.83,-1.23,2.52,25.05,-15.6,55.5
2.88,0.0,1.0,0.0,0.0,2.25,2.5,0.5,6.5,3.75,10.0,6.5,8.5,10.5,0.14,0.39,2.2,655.33,-5.1,-65.6,0.5,0.0,0.5,0.25,0.5,0.0,0.0,0.0,0.25,0.0,0.25,0.0,0.0,0.64,-0.92,1.52,0.0,-19.1,41.3
2.9,1.0,1.0,1.25,1.25,3.75,3.0,1.25,8.0,5.25,11.0,8.5,9.0,11.0,-0.05,0.27,1.27,916.61,-2.6,-53.7,2.0,0.0,0.25,2.5,0.5,1.25,0.0,0.0,0.5,0.25,0.0,0.5,0.0,0.39,-0.55,0.58,0.0,-12.6,42.4
2.92,0.0,1.0,2.75,2.0,3.75,3.25,1.25,8.5,6.0,11.0,9.25,9.0,10.5,-0.05,0.2,0.95,1144.76,-1.8,-51.2,2.0,0.0,1.75,2.0,3.75,1.0,0.25,1.0,0.5,0.75,0.5,0.5,0.5,0.33,-0.48,0.27,0.0,-7.9,28.1
2.94,0.25,1.25,3.0,1.75,3.0,3.5,1.75,8.5,6.0,11.0,9.5,9.0,10.5,-0.05,0.14,0.95,1301.59,-1.4,-50.9,1.75,0.0,1.75,2.25,3.75,1.75,0.0,1.25,0.5,0.5,0.75,0.5,0.5,0.08,-0.23,0.64,73.27,-6.1,26.8
2.96,0.25,1.0,2.75,1.75,3.0,3.25,1.75,8.5,5.75,10.5,9.0,8.5,10.5,-0.11,0.08,0.95,1338.73,-1.6,-51.5,1.75,0.0,1.75,2.25,4.5,1.5,0.0,0.5,0.5,0.5,0.5,0.5,0.5,0.02,-0.23,0.95,142.56,-7.1,33.0
2.98,0.5,0.75,3.0,0.25,2.5,3.25,0.0,8.5,5.25,10.0,8.5,8.25,10.5,-0.05,0.14,0.95,1320.58,-2.5,-55.4,1.75,0.0,1.75,2.25,4.5,1.25,0.25,0.5,0.5,0.0,0.75,0.5,0.5,0.08,-0.17,1.08,184.7,-8.5,34.8
3.0,0.0,0.75,2.5,0.5,2.5,3.0,0.5,8.0,4.75,9.75,8.0,7.75,9.5,-0.11,0.08,0.95,1243.66,-2.8,-55.8,1.75,0.0,1.75,2.0,4.5,1.25,0.25,1.0,0.5,0.0,0.5,0.5,0.25,0.14,0.02,1.02,206.01,-7.9,36.3
3.02,0.25,1.0,2.25,1.0,2.25,3.0,0.25,8.0,4.25,9.0,7.25,7.0,9.25,-0.11,0.08,0.95,1137.64,-2.8,-53.3,1.5,0.0,1.75,2.0,4.5,1.25,0.0,0.75,0.5,0.0,0.75,0.5,0.0,0.14,0.2,1.08,215.53,-8.1,37.4
3.04,0.75,1.0,2.5,0.0,2.5,3.0,1.0,7.75,3.75,9.0,6.5,6.25,8.5,-0.11,0.14,0.89,1014.98,-2.7,-50.7,0.5,0.0,0.0,0.0,0.5,0.0,0.0,0.0,0.25,0.0,0.0,0.0,0.0,0.14,0.27,1.45,164.1,-13.4,51.9
3.06,0.25,1.0,2.5,0.25,3.0,2.0,1.25,7.5,3.5,8.75,6.25,6.0,8.25,-0.11,0.08,0.95,895.13,-2.5,-51.0,0.5,0.0,0.0,0.0,0.5,0.0,0.0,0.0,0.0,0.0,0.25,0.0,0.0,0.2,0.45,1.7,105.19,-13.2,45.3
3.08,0.5,1.0,2.75,0.5,3.5,2.5,1.25,7.5,3.75,8.25,6.25,5.5,7.75,-0.11,0.08,0.89,804.39,-2.1,-45.7,0.5,0.0,0.0,0.0,0.5,0.0,0.0,0.0,0.25,0.0,0.0,0.0,0.0,0.2,0.7,1.83,51.4,-13.4,51.9
3.1,0.5,0.75,2.75,1.25,3.0,3.25,1.75,7.5,4.0,8.5,6.25,5.25,7.5,-0.11,0.08,0.95,750.51,-1.9,-44.0,0.5,0.0,0.0,0.0,0.5,0.0,0.0,0.0,0.0,0.0,0.0,0.0,0.0,0.14,1.08,1.95,18.2,-13.7,73.3
3.12,0.75,1.0,3.0,2.0,4.25,3.25,1.75,8.0,4.5,8.5,6.25,4.75,7.5,-0.11,0.14,0.95,735.9,-1.4,-37.6,0.5,0.0,0.0,0.0,0.5,0.0,0.0,0.0,0.0,0.0,0.0,0.0,0.0,0.27,1.2,2.33,0.0,-13.7,73.3
3.14,0.5,1.0,3.0,2.25,5.0,4.0,1.75,8.0,4.75,8.5,6.25,5.25,7.5,-0.11,0.08,0.95,752.4,-1.6,-36.1,0.5,0.0,0.5,0.0,3.75,0.0,0.0,1.0,0.0,0.0,0.0,0.0,0.0,0.52,1.77,2.77,10.97,-0.7,42.8
3.16,0.75,1.0,3.0,2.25,5.0,4.75,1.75,8.25,5.0,8.25,6.25,5.25,7.0,-0.11,0.14,0.95,785.9,-1.6,-33.9,0.5,0.0,0.0,0.0,1.25,0.0,0.0,0.0,0.0,0.0,0.0,0.0,0.0,0.58,2.14,2.2,6.11,-6.0,64.3
3.18,0.0,1.25,3.0,2.5,5.75,5.25,2.0,8.5,5.25,8.0,6.25,4.0,6.75,-0.11,0.08,0.95,813.34,-2.1,-30.4,0.5,0.0,0.0,0.0,0.5,0.0,0.0,0.0,0.0,0.0,0.0,0.0,0.0,0.27,2.27,1.33,3.05,-13.7,73.3
3.2,0.25,1.25,3.0,2.5,6.0,6.25,2.5,8.75,5.75,7.75,6.25,3.75,6.25,-0.11,0.08,0.95,840.64,-2.0,-27.1,0.75,0.0,0.0,0.0,1.0,0.0,0.0,0.0,0.25,0.0,0.25,0.0,0.0,-0.8,2.58,1.08,2.05,-11.2,43.7
3.22,0.25,1.25,3.5,4.5,6.0,7.0,3.0,9.0,6.25,6.5,5.5,2.5,5.25,-0.11,0.08,0.95,867.76,-0.9,-17.8,1.75,0.25,1.25,1.25,3.25,1.25,0.5,0.75,0.5,0.0,0.5,0.5,0.25,-1.61,3.39,0.7,64.34,-8.2,34.5
3.24,0.75,2.0,5.0,6.25,7.25,7.75,4.0,8.75,6.25,5.25,4.75,2.25,4.25,-0.11,0.08,0.95,925.59,1.3,-5.2,1.75,0.0,1.0,1.25,4.25,2.0,0.25,0.25,0.5,0.0,0.75,0.5,0.25,-1.92,4.02,-0.05,125.92,-5.6,35.2
3.26,2.75,2.5,5.75,7.75,8.25,7.75,4.75,8.0,5.5,4.75,3.5,2.25,3.0,-0.11,0.08,0.95,998.04,3.6,6.7,1.75,0.0,1.5,1.25,4.25,1.5,0.25,0.25,0.5,0.0,0.75,0.5,0.0,-0.86,2.52,0.77,182.65,-8.3,39.2
3.28,5.5,3.0,8.0,12.0,9.5,7.75,4.75,6.5,3.75,3.5,3.0,0.75,2.75,-0.11,0.14,1.02,1111.12,7.1,23.8,1.25,0.0,1.75,1.25,4.5,1.5,0.25,0.5,0.5,0.75,0.25,0.75,0.25,-0.48,2.02,0.95,220.5,-5.5,29.0
3.3,6.5,2.75,9.75,12.5,11.5,7.0,4.25,4.5,1.5,3.0,2.5,0.5,2.0,-0.11,0.14,1.14,1191.48,9.2,34.0,0.75,0.0,0.0,0.0,0.25,0.0,0.0,0.0,0.25,0.75,0.25,4.25,0.5,0.64,-1.92,0.89,203.56,-6.8,-74.7
3.32,8.25,5.5,11.0,14.0,12.0,6.0,3.75,3.0,1.0,3.0,2.5,0.75,1.5,-0.11,0.14,1.45,1291.76,11.5,41.7,0.5,0.0,0.25,0.0,2.75,0.0,0.0,0.0,0.25,0.0,0.25,5.75,4.25,0.64,-0.11,0.7,211.43,-0.8,-62.4
3.34,9.0,5.5,12.0,14.0,10.5,4.25,2.0,2.75,1.0,3.0,2.25,0.75,1.25,-0.17,0.2,1.33,1318.61,13.3,43.9,0.0,0.0,0.0,0.0,0.5,0.75,0.0,0.0,0.5,0.5,1.5,7.0,6.25,-1.3,0.77,1.77,233.95,1.7,-92.4
3.36,9.5,5.5,12.5,10.5,8.75,1.75,0.25,2.75,0.25,1.75,2.25,0.5,1.25,-0.23,0.27,1.52,1257.6,15.8,48.1,0.0,0.0,0.0,0.0,1.25,0.5,0.0,1.0,0.5,2.25,2.75,9.25,7.0,-0.86,0.33,1.45,292.73,2.0,-86.4
3.38,8.5,5.0,11.0,6.75,6.0,1.25,0.0,0.5,1.0,2.75,1.25,0.5,1.0,-0.05,0.14,1.45,1068.04,17.4,48.8,0.5,0.0,0.5,0.0,4.75,1.25,0.0,1.75,1.25,3.75,4.5,8.5,8.25,0.89,0.14,1.52,390.41,2.1,-61.0
3.4,9.0,5.25,10.5,6.0,6.0,1.75,0.5,0.5,1.0,3.0,1.25,0.5,1.25,-0.23,0.45,1.95,909.62,16.6,47.5,0.25,0.0,0.0,0.0,1.75,1.5,0.0,2.75,1.25,5.25,6.0,9.5,8.0,0.14,0.27,1.58,510.97,3.0,-75.6
3.42,8.0,4.0,9.75,5.25,6.0,1.75,1.75,1.75,0.75,3.0,1.75,0.75,1.25,-0.48,0.95,2.52,777.53,15.2,40.3,0.0,0.5,0.0,2.5,2.75,2.0,0.0,3.25,1.5,6.75,6.75,8.5,8.75,0.14,0.2,1.33,631.31,2.8,-61.0
3.44,6.25,2.25,8.0,3.0,2.25,0.0,1.75,0.5,0.0,1.25,1.0,0.25,0.75,-0.86,0.83,2.58,578.63,22.2,50.4,1.5,0.25,0.0,0.0,5.0,2.25,0.0,4.0,2.75,6.75,8.0,10.0,8.75,0.08,0.14,1.14,745.87,2.1,-58.1
3.46,5.25,0.75,5.25,2.5,2.25,1.75,0.75,0.5,0.25,0.5,0.75,0.25,0.75,-0.86,0.89,3.2,400.73,18.0,47.3,0.5,0.0,0.5,0.0,4.5,1.5,0.0,4.5,2.5,6.75,7.25,8.5,8.5,0.08,0.14,1.02,802.14,2.9,-61.3
3.48,0.75,0.75,3.5,0.0,2.5,0.0,0.5,0.5,0.25,0.5,0.75,0.0,0.25,-0.55,-0.42,2.27,242.26,15.4,36.0,0.5,0.25,0.0,0.5,2.25,1.25,0.0,4.0,2.5,6.25,7.0,8.0,8.5,0.08,0.14,0.95,806.5,2.8,-67.6
3.5,0.25,0.5,2.0,0.75,0.0,0.0,0.5,0.5,0.25,0.5,0.5,0.25,1.0,-0.67,1.08,0.2,102.07,13.8,1.1,1.25,0.75,0.75,1.25,2.25,1.25,0.0,4.5,2.5,6.75,7.75,7.75,8.25,0.08,0.14,0.89,805.41,1.1,-58.2
3.52,0.25,0.0,1.5,0.0,0.0,0.0,0.5,0.5,0.25,0.5,0.5,0.0,0.5,-0.61,-0.17,2.08,0.0,14.0,-8.4,0.25,0.0,0.75,0.0,2.75,1.0,0.0,3.75,2.0,5.25,6.25,7.0,8.0,0.08,0.02,0.89,744.18,2.7,-66.1
3.54,0.0,0.0,1.75,0.0,0.0,0.0,0.25,0.5,0.25,0.5,0.0,0.0,0.0,-0.05,-0.17,1.39,0.0,18.8,14.6,0.0,0.0,0.0,0.0,1.5,1.0,0.0,3.25,2.25,5.25,5.0,6.75,7.25,0.08,0.14,0.89,660.33,3.9,-74.2
3.56,0.0,0.0,1.0,0.0,1.75,0.0,0.25,0.5,0.25,1.0,0.5,0.0,0.5,-0.23,0.39,0.08,0.0,2.3,-3.8,0.0,0.0,0.0,0.0,2.25,1.0,0.0,3.75,2.5,4.75,4.5,6.25,6.75,0.08,0.08,0.89,568.24,4.0,-68.7
3.58,0.25,1.0,1.25,0.5,0.0,1.75,0.25,0.5,0.5,2.5,0.5,0.25,0.25,0.02,0.77,-0.61,0.0,0.8,-2.7,0.5,0.0,0.0,0.0,2.5,1.25,0.0,4.25,3.0,4.0,4.75,6.25,5.75,0.08,0.14,0.89,503.24,2.9,-62.2
3.6,0.25,0.75,2.5,0.5,2.25,1.25,0.75,0.75,0.75,1.5,1.25,0.75,1.0,0.39,1.33,-1.23,2.5,5.6,1.3,2.0,0.75,0.0,1.25,2.25,2.5,0.0,4.5,4.5,5.0,4.75,5.5,5.75,0.08,0.14,0.95,483.31,1.2,-45.4
3.62,0.25,0.75,0.25,0.0,0.0,0.25,0.25,0.5,0.25,0.5,0.0,0.0,0.5,0.52,1.2,-0.98,14.29,1.7,0.9,2.0,0.75,1.5,2.25,4.75,2.75,0.25,5.5,5.0,3.75,4.0,4.5,5.0,0.08,0.14,0.95,492.72,-0.4,-27.3
3.64,0.0,0.5,0.75,0.0,0.0,0.25,0.25,0.25,0.25,1.0,0.0,0.5,0.25,0.39,0.83,-0.36,15.7,4.7,-17.5,2.25,0.0,1.75,2.75,4.75,4.5,1.25,5.5,5.5,2.75,5.0,3.0,3.5,0.08,0.14,0.95,518.38,-1.3,-18.5
3.66,0.25,0.5,0.5,0.0,0.0,0.25,0.25,0.0,0.25,0.5,1.0,0.0,0.25,0.39,0.58,-0.11,9.0,9.7,-8.9,4.25,0.5,2.5,4.75,6.5,4.75,1.75,5.75,5.5,2.5,3.25,2.0,2.25,0.08,0.14,0.95,564.65,-3.9,2.8
3.68,0.0,0.75,1.0,0.0,0.75,0.0,0.25,0.25,0.25,0.5,0.25,0.25,0.25,0.58,0.52,-0.05,29.99,9.3,12.8,6.75,1.5,4.75,7.0,8.0,5.75,2.0,5.5,4.25,2.25,3.0,2.0,1.5,0.08,0.14,0.95,669.09,-7.0,19.3
3.7,0.0,0.5,1.0,0.0,1.25,0.0,0.25,0.5,0.25,0.5,0.5,0.25,0.25,0.64,0.58,-0.17,45.95,6.6,6.6,8.75,2.25,6.5,10.0,9.25,6.0,1.75,4.0,2.0,1.75,2.25,1.0,1.5,0.08,0.2,1.02,805.59,-9.6,35.3
3.72,0.0,0.75,1.0,0.0,0.75,0.0,0.25,0.5,0.25,0.5,0.5,0.5,0.25,0.58,0.83,-0.42,69.44,8.1,0.5,10.5,2.5,7.5,12.0,11.0,5.75,0.75,2.75,1.25,0.75,2.0,0.75,1.5,0.14,0.2,1.58,950.65,-11.5,44.5
3.74,0.25,0.5,1.0,0.0,0.0,0.0,0.25,0.5,0.25,0.5,0.0,0.25,0.25,0.39,1.08,-0.8,70.24,11.8,4.8,12.5,3.75,8.5,11.5,11.0,4.75,0.0,1.75,1.25,0.75,2.0,0.75,1.5,0.2,0.33,1.64,1070.7,-13.5,49.1
3.76,0.25,0.0,0.5,0.0,0.0,0.0,0.25,0.5,0.0,0.5,0.0,0.0,0.25,0.2,1.27,-0.92,54.72,5.6,-13.1,13.0,4.5,9.0,9.5,9.25,2.5,0.0,1.75,0.5,0.75,0.5,0.75,1.0,0.45,0.64,1.83,1100.65,-16.2,56.4
3.78,0.25,0.25,0.75,0.0,1.75,0.0,0.25,0.5,0.25,0.5,0.0,0.25,0.25,0.14,1.39,-0.73,55.1,4.5,16.4,11.5,4.0,9.25,7.0,8.0,2.5,0.25,1.25,0.5,0.0,0.5,0.25,0.25,0.7,0.7,2.27,1022.63,-17.8,62.4
3.8,0.25,0.25,0.5,0.0,0.0,0.0,0.25,0.5,0.0,1.0,0.0,0.25,0.25,0.2,1.39,-0.61,44.44,3.0,-21.5,9.5,2.5,8.0,5.75,2.5,2.25,2.5,0.0,0.25,0.0,0.25,0.0,0.0,1.14,2.08,2.52,822.93,-23.0,68.0
3.82,0.25,0.5,0.75,0.5,0.0,0.0,0.25,0.5,0.25,1.0,0.0,0.75,0.25,0.27,1.27,-0.42,51.69,7.9,-12.2,8.75,2.0,6.5,4.75,0.25,2.25,2.25,1.0,0.5,0.5,1.0,0.5,0.5,1.02,4.7,3.77,630.84,-21.3,52.3
3.84,0.0,0.0,3.0,0.0,2.25,0.0,1.0,0.5,0.25,0.5,1.25,0.0,1.0,0.27,1.08,-0.36,85.1,11.4,7.2,3.5,0.0,3.75,1.25,1.0,0.0,0.25,1.5,0.5,0.75,0.75,0.75,0.5,-0.3,2.39,6.52,392.72,-18.0,25.5
3.86,0.25,0.0,0.5,0.25,0.0,0.0,0.25,0.5,0.0,1.0,0.0,0.0,0.25,0.08,0.89,-0.36,88.1,2.9,-17.4,2.0,0.75,1.75,2.25,3.75,2.0,0.25,1.5,0.5,0.75,0.75,0.5,0.75,1.02,3.64,2.45,280.5,-5.6,26.7
3.88,0.0,0.0,0.75,0.0,0.0,0.0,0.25,0.25,0.25,0.5,0.0,0.25,0.25,-0.11,0.77,-0.11,74.21,9.6,-25.9,0.5,0.0,1.75,0.25,5.0,0.0,0.25,1.0,0.25,0.0,0.0,0.0,0.25,0.7,2.45,2.77,171.41,-5.7,40.9
3.9,0.25,0.0,0.75,1.0,1.25,0.0,0.25,0.5,0.5,1.5,0.5,0.5,0.25,-0.05,0.58,0.14,79.04,4.7,-8.1,0.5,0.0,0.5,0.25,0.25,0.5,0.0,0.0,0.5,0.0,0.0,0.25,0.0,-0.73,0.64,1.83,54.7,-13.4,28.2
3.92,0.25,0.0,0.75,0.0,2.25,0.0,0.5,0.5,0.0,1.25,1.5,0.0,0.25,-0.05,0.39,0.58,90.35,2.8,-4.9,0.5,0.0,0.0,0.5,0.5,0.5,0.0,0.0,0.25,0.0,0.0,0.25,0.25,-0.23,0.27,0.95,0.0,-5.1,20.7
3.94,0.25,0.25,0.5,0.25,0.75,0.0,0.25,0.25,0.25,0.5,0.0,0.0,0.25,-0.05,0.08,0.77,84.76,6.8,16.9,0.5,0.0,0.0,0.0,0.5,0.0,0.0,0.0,0.25,0.0,0.0,0.0,0.0,0.02,0.27,0.33,0.0,-13.4,51.9
3.96,0.25,0.0,0.5,0.0,0.0,0.0,0.25,0.5,0.0,0.5,0.0,0.0,0.25,-0.3,-0.48,0.77,71.13,5.6,-13.1,0.5,0.0,0.0,0.0,0.5,0.0,0.0,0.0,0.25,0.0,0.0,0.25,0.0,-0.17,-0.42,0.58,0.0,-12.7,25.8
3.98,0.25,0.0,0.5,0.0,0.0,0.0,0.25,0.0,0.25,0.5,0.5,0.0,0.25,-0.3,-0.92,-0.17,54.82,12.1,-23.1,1.75,0.25,0.0,0.0,0.5,0.0,0.0,0.0,0.0,0.0,0.0,0.0,0.0,0.08,-1.92,1.39,0.0,-23.6,87.5
4.0,0.25,0.0,1.0,0.0,0.0,0.25,0.25,0.25,0.25,0.5,0.0,0.5,0.25,0.83,0.02,-1.8,43.85,11.2,-12.7,1.25,0.0,0.25,0.0,2.25,0.0,0.0,0.0,0.25,0.0,0.0,0.0,0.0,1.45,-3.92,3.08,0.0,-10.5,60.7
4.02,0.25,0.25,0.5,0.0,0.75,0.0,0.5,0.0,0.0,0.5,0.25,0.0,0.5,0.45,1.08,-2.67,40.19,7.0,5.9,0.5,0.0,0.0,0.0,0.5,0.0,0.0,0.0,0.0,0.0,0.0,0.0,0.0,1.83,-7.61,2.39,0.0,-13.7,73.3
4.04,0.25,0.0,0.5,0.25,0.5,0.0,0.25,0.0,0.25,0.5,0.5,0.0,0.25,0.58,1.2,-2.23,44.06,9.7,-2.6,0.5,0.0,0.0,0.0,1.0,0.0,0.0,0.0,0.25,0.0,0.0,0.25,0.0,-0.67,-5.17,0.33,0.0,-8.3,33.4
4.06,0.25,0.5,0.5,0.0,0.0,0.0,0.25,0.0,0.0,0.25,0.25,0.0,0.25,-0.17,1.2,-1.61,38.22,15.6,20.2,0.5,0.0,0.0,0.0,1.25,1.0,0.0,0.0,0.25,0.0,0.0,0.25,0.0,-0.3,-3.17,-0.98,0.0,1.4,35.3
4.08,0.25,0.25,0.5,0.0,0.0,0.0,0.25,0.0,0.0,0.5,0.0,0.0,0.0,-0.86,0.14,-1.36,29.64,16.6,27.8,0.5,0.0,0.0,0.0,0.5,0.0,0.0,0.0,0.0,0.0,0.0,0.0,0.0,-0.23,-0.61,-0.23,5.83,-13.7,73.3
4.1,0.25,0.0,0.5,0.0,0.0,0.0,0.25,0.0,0.25,0.5,0.0,0.0,0.0,-0.42,-3.05,-2.23,26.66,16.6,6.3,1.25,0.75,0.0,1.25,0.5,1.25,0.0,0.0,0.5,0.25,0.0,0.5,0.0,-0.67,0.02,0.08,37.09,-8.1,39.2
4.12,0.25,0.0,0.5,0.25,0.0,0.0,0.25,0.0,0.0,0.25,0.25,0.0,0.0,0.58,-3.55,-1.92,20.33,21.5,21.9,2.0,0.75,1.0,1.25,4.25,1.25,0.25,0.75,0.5,0.0,0.25,0.5,0.5,-0.67,0.64,-0.11,112.3,-6.6,38.4
4.14,0.0,0.0,1.0,0.0,0.0,0.0,0.25,0.0,0.25,0.5,0.25,0.0,0.0,1.64,-1.92,-0.73,18.68,19.2,0.2,0.5,0.0,1.5,0.0,4.5,0.0,0.25,1.0,0.0,0.0,0.75,0.0,0.75,-0.42,1.7,-0.8,152.91,-4.3,24.7
4.16,0.25,0.25,0.5,0.0,0.0,0.0,0.5,0.0,0.25,0.5,0.25,0.0,0.0,1.52,-1.05,-0.3,24.71,16.4,9.2,0.5,0.0,0.0,0.0,0.25,0.0,0.0,0.0,0.0,0.0,0.0,0.0,0.0,-0.48,2.58,-0.92,129.96,-20.3,80.9
4.18,0.25,0.5,1.25,0.0,2.25,0.0,1.0,0.5,0.5,0.5,1.5,0.5,1.25,1.08,-0.61,-0.11,71.82,6.4,-7.8,0.5,0.0,0.0,0.0,0.5,0.0,0.0,0.0,0.0,0.0,0.0,0.0,0.0,-0.48,3.2,-1.05,92.96,-13.7,73.3
4.2,0.75,1.0,0.5,1.75,0.0,0.0,0.25,0.0,0.5,0.5,0.0,0.0,0.25,0.83,-0.17,-0.42,89.84,16.0,41.5,0.5,0.0,0.0,0.0,0.25,0.0,0.0,0.0,0.0,0.0,0.0,0.0,0.0,-0.48,3.39,-1.42,48.68,-20.3,80.9
4.22,0.25,0.5,0.5,0.0,0.0,0.0,0.25,0.0,0.25,1.0,0.0,0.0,0.0,0.2,0.27,-0.55,88.05,9.7,8.9,0.5,0.0,0.0,0.0,0.25,0.0,0.0,0.0,0.0,0.0,0.0,0.0,0.0,-0.55,3.14,-1.36,20.0,-20.3,80.9
4.24,0.25,0.25,0.5,0.0,0.0,0.0,0.25,0.0,0.0,0.5,0.25,0.0,0.0,0.02,0.83,-0.92,67.89,15.9,14.4,1.0,0.0,0.0,1.25,0.25,1.25,0.0,0.0,0.5,0.0,0.0,0.5,0.25,-0.8,3.2,-0.98,32.45,-6.8,24.4
4.26,0.25,0.5,0.5,0.0,0.0,0.0,0.25,0.0,0.0,0.75,0.0,0.0,0.0,0.02,1.7,-1.11,51.87,12.4,24.3,1.25,0.0,0.5,0.5,2.75,1.25,0.25,1.25,0.5,0.0,0.75,0.5,0.25,-1.3,3.08,-0.61,81.62,-2.9,18.6
4.28,0.25,0.0,0.5,0.0,1.75,0.0,0.25,0.0,0.0,0.5,0.0,0.25,0.25,-0.05,2.33,-1.61,49.1,4.0,18.6,0.5,0.0,0.75,0.0,3.0,1.25,0.25,0.0,0.5,0.0,0.0,0.25,0.0,-1.05,2.52,-0.23,103.59,-2.8,40.8
4.3,0.25,0.25,1.0,0.0,2.25,0.0,1.25,0.5,0.25,0.25,0.0,0.0,0.0,-0.3,2.45,-1.61,66.32,9.1,38.3,0.75,0.25,0.0,1.5,1.0,1.75,0.0,0.0,0.5,0.75,0.0,0.5,0.0,-0.55,2.27,-0.23,116.59,-1.6,24.4
4.32,0.25,0.0,0.5,0.0,1.25,0.0,0.25,0.25,0.0,0.25,0.0,0.0,0.0,-0.3,2.45,-1.23,68.32,6.6,37.7,1.25,0.5,1.25,1.5,4.25,1.75,0.25,1.0,0.5,0.5,0.0,0.5,0.5,-0.36,1.89,0.14,154.66,-3.6,31.6
4.34,0.25,0.0,0.5,0.0,1.25,0.0,0.25,0.0,0.25,0.25,0.0,0.0,0.25,-0.11,2.39,-0.98,65.45,7.3,25.5,1.25,0.75,1.75,1.25,4.25,1.25,0.25,0.75,0.5,0.25,0.5,0.5,0.5,-0.42,1.45,0.7,183.3,-6.6,32.8
4.36,0.25,0.0,0.5,0.0,1.25,0.0,0.25,0.25,0.0,0.25,0.0,0.0,0.0,-0.17,2.2,-0.3,55.3,6.6,37.7,1.0,0.75,1.0,1.25,3.75,1.25,0.0,0.5,0.5,0.0,0.75,0.5,0.5,-0.3,1.14,0.95,201.77,-5.3,30.4
4.38,0.25,0.5,0.25,0.0,0.0,0.0,0.25,0.5,0.0,0.5,0.0,0.0,0.0,-0.48,2.08,0.2,43.74,5.7,16.7,1.25,0.75,1.5,1.25,4.75,1.25,0.0,0.0,0.5,0.5,0.5,0.5,0.5,-0.11,0.83,1.14,224.19,-6.2,35.1
4.4,0.25,0.0,0.5,0.0,0.0,0.0,0.25,0.25,0.0,0.75,0.0,0.0,0.0,-0.61,1.77,0.7,31.9,8.4,-4.7,1.25,0.75,1.5,1.5,4.25,1.25,0.0,0.5,0.5,0.5,0.25,0.5,0.25,-0.05,0.52,1.08,234.88,-6.3,36.7
4.42,0.0,0.0,0.5,0.0,0.0,0.0,0.25,0.25,0.0,0.5,0.0,0.0,0.0,-0.55,0.77,0.02,21.65,8.3,-9.2,1.0,0.5,1.5,1.25,3.25,1.25,0.25,0.0,0.5,0.5,0.5,0.75,0.5,0.02,0.2,0.89,226.39,-7.2,26.8
4.44,0.0,0.5,0.5,0.0,0.5,0.0,0.25,0.25,0.0,0.5,0.0,0.0,0.0,-0.17,0.02,-0.36,28.2,6.5,27.9,1.25,0.5,1.5,1.25,3.5,1.0,0.0,0.5,0.5,0.25,0.5,0.5,0.5,0.02,-0.17,0.64,217.85,-7.3,30.9
4.46,0.0,0.0,0.5,0.0,0.5,0.0,0.25,0.25,0.0,0.5,0.0,0.0,0.0,0.14,-0.3,-0.67,29.03,4.9,9.2,1.25,0.5,1.5,1.25,4.25,1.0,0.25,0.0,0.5,0.5,0.25,0.5,0.5,-0.05,-0.55,0.33,211.97,-7.2,35.0
4.48,0.25,0.75,0.5,0.0,0.5,0.0,0.25,0.25,0.25,0.25,0.25,0.0,0.0,0.39,-0.67,-0.92,37.25,11.5,33.8,1.25,0.5,1.5,1.25,3.25,1.5,0.25,0.25,0.5,0.5,0.75,0.5,0.5,-0.11,-0.8,0.02,204.58,-6.8,27.7
4.5,0.0,0.25,0.75,0.0,0.0,0.0,0.25,0.25,0.0,0.5,0.0,0.0,0.0,0.27,-0.86,-1.3,34.33,12.9,14.9,1.25,0.75,1.5,1.5,3.75,1.25,0.0,0.25,0.5,0.5,0.5,0.5,0.5,-0.17,-0.92,-0.42,203.13,-6.9,32.6
4.52,0.25,0.25,0.5,0.0,0.0,0.0,0.5,0.25,0.0,0.75,0.0,0.0,0.0,-0.17,-0.98,-1.42,33.99,10.2,8.8,1.5,0.75,1.25,1.25,4.75,1.0,0.0,0.75,0.5,0.75,0.5,0.5,0.5,-0.23,-1.05,-0.98,211.47,-5.1,30.0
4.54,0.25,0.25,0.5,0.25,0.0,0.0,0.25,0.0,0.0,0.5,0.0,0.0,0.25,-0.23,-0.98,-1.11,31.73,13.1,14.9,1.75,0.75,1.0,1.25,4.25,1.25,0.0,0.25,0.5,0.5,0.25,0.5,0.5,-0.23,-1.05,-1.42,209.72,-5.9,36.1
4.56,0.0,0.25,0.5,0.0,0.0,0.0,0.25,0.25,0.0,1.5,0.0,0.0,0.0,-0.11,-0.98,-0.86,36.38,-0.3,-23.7,1.5,0.75,1.5,1.25,4.25,1.25,0.0,0.5,0.5,0.5,0.75,0.5,0.25,-0.23,-0.98,-1.8,208.76,-6.7,33.5
4.58,0.0,0.0,0.75,0.0,0.0,0.0,0.25,0.25,0.0,0.5,0.25,0.0,0.25,-0.11,-0.98,-0.36,35.03,9.5,-20.3,1.75,0.75,1.5,1.25,4.25,1.25,0.0,0.0,0.5,0.75,0.0,0.5,0.0,-0.3,-0.92,-1.86,207.51,-7.9,44.2
4.6,0.25,0.5,0.5,0.0,1.25,0.0,0.25,0.25,0.25,0.25,0.0,0.0,0.0,-0.11,-0.92,-0.23,44.9,7.9,41.3,1.5,0.75,0.75,1.25,3.0,1.25,0.0,0.25,0.5,0.25,0.75,0.5,0.25,-0.23,-0.8,-1.61,198.19,-6.9,33.1
4.62,0.0,0.0,0.5,0.0,1.75,0.0,0.25,0.25,0.0,0.5,0.0,0.0,0.0,-0.11,-0.86,-0.05,51.79,1.4,28.0,1.5,0.75,1.0,1.25,3.75,1.0,0.25,1.0,0.5,0.5,0.0,0.5,0.5,-0.05,-0.73,-1.3,193.41,-5.2,31.9
4.64,0.25,1.0,2.5,2.0,2.25,0.75,1.0,0.5,0.0,1.75,1.25,0.5,1.0,-0.11,-0.86,0.02,116.59,7.7,11.5,1.25,0.75,1.0,1.25,3.75,1.0,0.0,0.25,0.5,0.0,0.5,0.5,0.25,0.02,-0.73,-0.8,186.56,-7.3,38.6
4.66,0.25,1.0,3.0,2.0,2.25,0.75,1.0,0.5,0.25,2.0,1.25,0.5,1.0,-0.11,-0.73,-0.05,173.55,8.4,10.9,1.5,0.5,1.5,1.25,3.25,1.25,0.25,0.25,0.5,0.5,0.25,0.5,0.0,0.08,-0.73,-0.23,184.63,-8.6,39.2
4.68,0.25,0.25,3.0,0.0,2.25,0.0,1.5,0.0,0.0,0.5,0.0,0.0,0.0,-0.11,-0.67,-0.3,186.15,18.4,48.3,1.0,0.75,1.25,1.25,2.5,1.0,0.25,0.0,0.5,0.5,0.75,0.5,0.75,0.14,-0.67,-0.11,176.72,-7.7,23.2
4.7,0.25,0.5,0.5,0.0,1.75,0.0,0.25,0.25,0.0,0.25,0.0,0.0,0.0,0.08,-0.61,-0.42,161.4,5.9,48.1,1.25,0.75,1.25,1.25,3.5,1.25,0.0,0.25,0.25,0.5,0.5,0.5,0.5,0.08,-0.61,0.02,177.74,-6.1,32.4
4.72,0.25,0.25,0.5,1.0,2.25,1.25,0.5,0.25,0.25,1.5,0.0,0.75,0.0,0.27,-0.48,-0.55,148.35,0.3,12.7,1.25,0.75,1.5,1.25,3.75,1.25,0.25,0.5,0.5,0.5,0.75,0.5,0.5,0.08,-0.48,0.02,184.27,-6.5,28.8
4.74,0.5,1.25,3.0,2.0,2.25,0.5,1.0,0.5,0.25,1.75,1.25,0.5,1.0,0.33,-0.42,-0.61,172.94,9.7,14.7,1.5,0.75,1.0,1.25,4.25,1.25,0.0,0.0,0.5,0.5,1.0,0.5,0.0,-0.05,-0.36,0.02,190.44,-6.9,36.0
4.76,0.5,1.0,3.0,1.75,2.25,0.75,1.0,0.5,0.25,1.25,1.25,0.5,1.0,0.27,-0.36,-0.61,201.5,9.9,15.8,1.25,0.75,1.25,1.25,3.25,1.25,0.25,0.0,0.25,0.5,0.75,0.5,0.5,-0.11,-0.05,-0.05,190.47,-7.2,31.1
4.78,0.5,1.0,2.5,2.0,2.25,0.75,1.0,0.5,0.25,1.25,1.25,0.5,1.0,0.14,-0.3,-0.55,227.66,9.0,14.9,1.25,0.75,1.5,1.25,4.25,1.25,0.0,0.5,0.5,0.5,0.75,0.5,0.5,-0.11,0.27,-0.23,198.4,-5.9,29.8
4.8,0.25,1.0,2.75,1.75,2.25,1.0,1.0,0.5,0.25,0.0,1.25,0.75,1.0,0.14,-0.23,-0.36,233.39,10.7,19.9,1.25,0.5,1.5,1.25,3.5,1.0,0.25,0.25,0.5,0.0,0.75,0.5,0.5,-0.05,0.33,-0.3,194.94,-8.6,32.3
4.82,0.5,1.0,3.0,2.0,2.25,1.5,1.0,0.5,0.25,2.0,1.25,0.5,1.0,0.14,-0.11,-0.17,240.66,7.4,13.1,1.25,0.75,1.0,1.25,3.75,1.0,0.0,0.0,0.5,0.5,0.25,0.5,0.5,-0.11,0.45,-0.36,192.23,-6.3,34.5
4.84,0.25,1.0,2.75,1.5,2.25,1.0,1.0,0.5,0.0,2.0,1.25,0.5,1.0,0.14,0.08,0.02,234.86,7.0,9.6,1.25,0.75,0.75,1.25,4.25,1.0,0.25,0.25,0.5,0.75,0.75,0.5,0.5,-0.17,0.64,-0.48,193.49,-4.8,27.2
4.86,0.75,0.75,2.75,2.25,2.25,0.75,1.0,0.5,0.25,2.0,1.25,0.5,1.0,0.08,0.39,-0.11,237.2,8.8,12.0,1.5,0.5,1.0,1.25,3.5,1.0,0.0,0.0,0.5,0.5,0.5,0.5,0.5,-0.05,1.02,-0.67,189.02,-7.0,31.6
4.88,0.75,1.0,3.0,1.75,2.25,1.25,1.0,0.5,0.25,1.25,1.25,0.5,1.0,0.08,0.89,-0.36,233.85,9.3,17.6,1.75,0.25,1.25,1.25,3.75,1.0,0.0,0.25,0.5,0.5,0.75,0.5,0.25,-0.11,1.27,-0.67,189.56,-7.9,32.0
4.9,0.75,0.25,2.75,0.0,2.25,0.0,0.75,0.5,0.0,0.5,1.25,0.0,0.25,0.2,2.77,-1.86,211.95,14.3,25.9,1.75,0.75,0.75,1.25,4.25,1.25,0.25,0.25,0.25,0.5,0.75,0.5,0.0,-0.23,1.64,-0.86,191.46,-6.4,38.6
4.92,0.25,0.25,0.5,0.0,2.25,0.0,0.5,0.5,0.0,0.75,0.0,0.0,0.0,0.14,3.64,-2.73,169.91,1.9,29.3,1.75,0.75,0.75,1.25,3.5,1.0,0.25,0.5,0.25,0.25,0.5,0.5,0.75,-0.48,2.83,-1.55,191.73,-6.2,31.4
4.94,0.25,0.25,0.5,0.0,1.75,0.0,0.25,0.25,0.0,0.25,0.0,0.0,0.0,0.2,3.39,-2.61,114.84,5.5,44.5,2.0,0.5,1.25,1.5,3.75,1.25,0.0,0.0,0.5,0.75,0.5,0.5,0.25,-1.17,3.14,-1.67,193.9,-8.0,36.2
4.96,0.0,0.0,0.25,0.0,2.25,0.0,0.25,0.25,0.0,0.5,0.25,0.0,0.0,0.02,2.52,-1.55,67.32,-1.0,23.3,1.75,0.5,0.75,1.5,3.75,1.0,0.25,0.0,0.5,0.5,0.0,0.5,0.5,-1.3,3.02,-1.55,190.59,-7.0,37.7
4.98,0.25,0.0,0.5,0.0,1.75,0.0,0.25,0.0,0.0,1.0,0.0,0.0,0.0,-0.23,1.45,-1.17,37.71,2.4,23.2,1.75,0.75,1.0,1.25,3.75,1.0,0.25,0.0,0.5,0.5,0.5,0.5,0.5,-1.05,2.52,-1.3,191.98,-7.7,34.6
5.0,0.25,0.25,0.5,0.0,2.25,0.25,0.25,0.0,0.25,1.75,0.0,0.5,0.0,-0.3,0.77,-0.67,44.17,0.1,5.2,1.75,0.5,1.25,1.25,3.75,1.25,0.25,0.5,0.25,0.25,0.75,0.5,0.5,-0.61,1.52,-0.98,193.28,-7.1,32.5
5.02,0.75,1.0,2.75,1.5,2.25,1.25,0.75,0.5,0.25,1.5,1.25,0.5,1.0,-0.05,-0.05,-0.36,102.26,8.0,14.5,1.5,0.5,1.5,1.25,3.75,1.25,0.25,0.25,0.25,0.25,0.75,0.5,0.5,-0.23,0.7,-0.55,194.95,-7.7,33.3
5.04,0.25,1.0,2.75,2.0,2.25,0.5,1.0,0.5,0.25,1.75,1.25,0.5,1.0,0.14,-0.23,-0.3,151.51,8.8,11.1,1.25,0.5,1.0,1.25,4.25,1.25,0.25,0.25,0.25,0.25,0.25,0.5,0.5,-0.11,0.33,-0.36,194.46,-5.2,36.1
5.06,0.0,0.0,2.75,0.0,2.25,0.0,0.75,0.5,0.0,0.5,1.25,0.0,0.25,0.08,-0.3,-0.3,159.83,12.6,17.5,1.5,0.75,1.25,1.25,4.25,1.25,0.0,0.0,0.5,0.25,0.25,0.5,0.0,-0.11,0.08,-0.23,193.6,-7.8,45.3
5.08,0.5,1.0,0.5,1.75,1.75,0.5,0.25,0.25,0.25,2.0,0.0,0.5,0.0,0.02,-0.3,-0.3,160.26,4.1,19.8,1.25,0.75,1.25,1.25,4.5,1.0,0.25,0.0,0.25,0.5,0.75,0.5,0.5,-0.11,-0.05,-0.3,195.27,-6.6,33.5
5.1,0.25,0.25,3.0,0.0,2.25,0.0,0.25,0.0,0.0,0.5,0.0,0.0,0.25,0.14,-0.3,-0.36,141.49,16.0,44.3,1.5,0.5,1.25,1.25,3.75,1.0,0.0,0.5,0.5,0.5,0.75,0.5,0.5,-0.11,-0.11,-0.36,196.65,-6.6,27.9
5.12,0.25,1.0,2.75,2.0,2.25,0.5,1.0,0.5,0.25,1.75,1.25,0.5,1.0,0.39,0.58,-1.05,166.36,8.8,11.1,1.25,0.75,1.0,1.25,3.0,1.25,0.25,0.0,0.25,0.25,0.75,0.5,0.5,-0.05,0.08,-0.48,189.54,-7.2,32.2
5.14,0.25,1.0,2.5,2.0,2.5,0.75,0.75,0.5,0.25,1.25,1.25,0.0,1.0,0.39,0.95,-1.17,191.24,8.1,18.7,1.25,0.75,1.0,1.25,3.75,1.0,0.25,0.0,0.25,0.5,0.0,0.5,0.5,-0.11,0.33,-0.67,183.65,-6.3,38.3
5.16,0.5,1.0,2.75,1.75,2.5,0.0,1.0,0.5,0.25,2.0,1.25,0.5,1.0,0.45,1.14,-1.11,220.19,9.4,10.3,1.0,0.5,1.25,1.25,3.75,1.25,0.25,0.0,0.25,0.25,0.5,0.5,0.5,-0.17,0.64,-0.86,179.06,-6.4,33.9
5.18,0.25,1.0,2.75,2.0,2.25,1.0,0.75,0.5,0.0,1.25,1.25,0.5,1.0,0.39,1.02,-0.98,228.72,8.3,15.5,1.25,0.75,1.25,1.25,2.75,1.0,0.0,0.0,0.25,0.5,0.5,0.5,0.5,-0.23,0.95,-0.92,172.86,-8.0,32.3
5.2,0.25,1.0,2.75,2.5,2.25,0.5,0.75,0.5,0.0,2.0,1.25,0.5,1.0,0.2,0.77,-0.92,234.14,8.4,12.0,1.25,0.5,0.5,1.25,4.25,1.0,0.25,0.25,0.5,0.5,0.75,0.5,0.5,-0.36,1.08,-0.86,176.42,-4.3,27.1
5.22,0.25,1.0,2.75,2.0,2.25,1.25,1.0,0.5,0.25,1.5,1.25,0.25,1.0,0.08,0.45,-0.8,232.08,7.7,15.6,1.25,0.75,1.0,1.25,3.75,1.0,0.25,0.25,0.25,0.25,0.75,0.5,0.75,-0.55,1.14,-0.8,179.61,-6.2,29.3
5.24,0.25,1.0,2.75,1.75,2.25,1.0,0.75,0.5,0.25,1.25,1.25,0.75,1.0,0.08,0.33,-0.67,227.55,8.3,11.8,1.5,0.75,1.0,1.25,3.75,1.0,0.25,0.0,0.25,0.0,0.75,0.5,0.5,-0.67,1.08,-0.67,182.1,-8.1,37.3
5.26,0.25,0.5,2.25,2.0,2.5,0.25,0.75,0.5,0.25,1.75,1.25,0.5,1.0,0.02,0.27,-0.73,218.91,7.6,6.4,1.25,0.75,1.25,1.25,3.75,1.25,0.25,0.0,0.25,0.5,0.25,0.5,0.5,-0.67,1.02,-0.55,184.07,-6.5,36.4
5.28,0.25,1.0,2.75,2.0,2.25,1.5,0.75,0.5,0.25,1.5,1.25,0.5,1.0,0.08,0.39,-0.8,223.96,7.1,13.8,1.25,0.75,1.0,1.25,3.25,1.0,0.25,0.0,0.25,0.75,0.75,0.5,0.5,-0.61,0.83,-0.48,183.37,-6.6,28.2
5.3,0.25,1.0,2.75,2.0,2.25,0.75,0.75,0.5,0.25,1.25,1.25,0.75,1.0,0.2,0.52,-0.8,225.77,8.9,12.3,1.25,0.5,1.0,1.25,3.5,1.25,0.0,0.0,0.25,0.25,0.25,0.5,0.5,-0.55,0.7,-0.48,178.35,-6.1,36.6
5.32,0.25,1.0,2.75,2.0,2.25,1.0,1.0,0.5,0.25,1.0,1.25,0.75,1.0,0.27,0.64,-0.86,224.66,9.0,14.2,1.0,0.75,1.0,1.25,4.5,1.0,0.0,0.0,0.25,0.5,0.75,0.5,0.75,-0.55,0.64,-0.48,182.41,-4.8,29.0
5.34,0.25,1.0,2.75,2.0,2.25,1.25,0.75,0.5,0.25,1.0,1.25,0.25,1.0,0.27,0.7,-0.86,220.91,8.3,18.6,1.0,0.25,2.0,1.25,3.5,1.0,0.25,0.0,0.25,0.75,0.75,0.5,0.5,-0.48,0.64,-0.55,185.53,-8.2,27.2
5.36,0.25,1.0,2.75,2.0,2.25,1.25,0.75,0.5,0.25,2.0,1.25,0.5,1.0,0.27,0.64,-0.86,219.71,6.8,10.7,1.0,0.75,1.5,1.25,3.75,1.0,0.0,0.0,0.25,0.5,0.75,0.5,0.75,-0.42,0.64,-0.61,190.35,-6.7,28.6
5.38,0.25,1.0,2.75,2.0,2.25,1.0,0.75,0.5,0.25,1.25,1.25,0.5,1.0,0.27,0.58,-0.8,218.68,8.4,14.6,0.75,0.75,0.75,1.25,3.75,1.0,0.0,0.25,0.25,0.25,0.25,0.5,0.75,-0.36,0.64,-0.67,184.64,-3.7,30.3
5.4,0.25,1.0,2.75,2.0,2.25,1.0,0.75,0.5,0.25,1.25,1.25,0.5,1.0,0.2,0.45,-0.8,218.14,8.4,14.6,1.25,0.5,1.25,1.25,3.0,1.0,0.25,0.0,0.25,0.25,0.75,0.5,0.5,-0.42,0.7,-0.67,179.37,-8.5,31.3
5.42,0.25,1.0,2.75,1.25,2.25,0.5,0.75,0.5,0.25,1.25,1.25,0.5,1.0,0.14,0.45,-0.8,211.11,9.0,11.5,0.75,0.75,1.25,1.25,4.25,1.25,0.0,0.0,0.25,0.5,0.75,0.5,0.25,-0.42,0.7,-0.61,179.52,-5.3,33.7
5.44,0.25,1.0,2.75,2.0,2.25,0.25,1.0,0.5,0.25,1.25,1.25,0.5,1.0,0.14,0.45,-0.8,207.91,10.2,13.8,1.0,0.75,1.0,1.25,3.25,1.0,0.25,0.0,0.25,0.5,0.75,0.5,0.5,-0.48,0.77,-0.61,176.48,-6.5,29.0
5.46,0.25,1.0,2.75,2.0,2.5,0.75,1.0,0.5,0.25,1.25,1.25,0.0,1.0,0.14,0.45,-0.86,207.16,8.9,19.5,0.5,0.0,1.0,0.0,3.5,0.0,0.25,0.0,0.0,0.0,0.5,0.0,0.5,-0.48,0.77,-0.61,153.83,-6.6,35.3
5.48,0.25,1.0,2.75,1.75,2.25,1.0,0.75,0.5,0.25,1.75,1.25,0.5,1.0,0.14,0.52,-0.86,210.87,7.5,10.9,1.0,0.75,1.5,1.25,3.5,1.0,0.0,0.0,0.25,0.5,0.75,0.5,0.5,-0.48,0.83,-0.61,157.32,-7.4,31.0
5.5,0.25,1.0,2.75,1.25,2.25,1.0,0.75,0.5,0.0,1.0,1.25,0.5,1.0,0.2,0.58,-0.86,207.71,8.3,14.8,1.0,0.75,1.0,1.25,3.5,1.0,0.0,0.0,0.25,0.5,0.25,0.5,0.5,-0.48,0.83,-0.61,156.61,-5.8,34.3
5.52,0.25,1.0,2.75,2.0,2.5,0.75,1.0,0.5,0.5,1.75,1.25,0.25,1.0,0.2,0.58,-0.8,211.91,8.1,13.4,0.75,0.75,1.0,1.25,4.25,1.0,0.25,0.0,0.25,0.5,0.75,0.5,0.25,-0.42,0.83,-0.61,168.52,-5.4,33.0
5.54,0.25,1.0,3.0,1.75,2.5,0.5,1.0,0.5,0.25,2.0,1.25,0.5,1.0,0.2,0.58,-0.8,215.53,8.5,10.6,0.75,0.75,0.75,1.25,3.5,1.0,0.25,0.0,0.25,0.5,0.75,0.5,0.5,-0.42,0.83,-0.61,170.48,-4.9,27.5
5.56,0.25,1.0,2.5,2.0,2.25,0.75,1.0,0.5,0.0,2.0,1.25,0.5,1.0,0.27,0.58,-0.8,217.52,7.3,10.0,0.75,0.75,0.75,1.25,2.5,1.0,0.0,0.25,0.25,0.5,0.75,0.5,0.5,-0.42,0.77,-0.55,167.8,-5.0,22.9
5.58,0.25,1.0,2.5,1.75,2.25,1.0,0.75,0.5,0.25,2.0,1.25,0.5,1.0,0.27,0.58,-0.8,217.87,6.5,8.6,1.0,0.75,1.5,1.25,3.25,1.0,0.0,0.0,0.25,0.5,0.0,0.5,0.5,-0.48,0.7,-0.55,166.16,-7.4,37.4
5.6,0.25,1.0,2.75,1.75,2.25,1.0,0.75,0.5,0.25,1.75,1.25,0.5,1.0,0.27,0.58,-0.8,218.07,7.5,10.9,1.25,0.75,1.0,1.25,3.25,1.0,0.0,0.0,0.25,0.5,0.75,0.5,0.5,-0.48,0.7,-0.61,167.86,-6.8,30.4
5.62,0.25,1.0,2.0,1.75,2.25,1.0,0.75,0.5,0.0,2.0,1.25,1.0,1.0,0.27,0.58,-0.8,216.5,5.4,3.6,0.75,0.5,2.0,1.25,3.5,1.0,0.25,0.25,0.25,0.5,0.5,0.5,0.75,-0.42,0.77,-0.67,177.28,-7.3,27.3
5.64,0.25,1.0,1.75,2.0,2.25,0.75,1.0,0.5,0.0,1.25,1.25,0.25,1.0,0.33,0.58,-0.8,208.91,6.8,14.1,0.75,0.5,0.75,1.25,3.25,1.0,0.25,0.0,0.25,0.5,0.5,0.5,0.5,-0.42,0.7,-0.67,174.13,-4.8,27.4
5.66,0.25,1.0,2.75,2.0,2.5,0.75,1.0,0.5,0.25,1.75,1.25,0.5,1.0,0.27,0.52,-0.8,212.39,8.1,12.3,1.0,0.75,1.0,1.25,3.25,1.0,0.0,0.0,0.25,0.5,0.75,0.5,0.5,-0.36,0.7,-0.67,175.02,-6.2,29.0
5.68,0.25,1.0,2.75,1.75,2.25,0.5,1.0,0.5,0.25,1.25,1.25,0.5,1.0,0.33,0.52,-0.8,209.34,9.5,13.3,1.25,0.75,0.75,1.25,3.25,1.25,0.0,0.0,0.25,0.25,0.5,0.5,0.5,-0.36,0.64,-0.67,173.14,-5.9,34.6
5.7,0.25,1.0,2.5,1.75,2.25,1.0,1.0,0.5,0.25,1.25,1.25,0.5,1.0,0.33,0.45,-0.73,210.16,7.9,13.1,1.0,0.75,1.0,1.25,3.25,1.0,0.25,0.0,0.25,0.25,0.25,0.5,0.0,-0.3,0.58,-0.61,169.82,-7.9,43.7
5.72,0.25,1.0,2.75,1.5,2.25,0.5,0.75,0.5,0.25,2.0,1.25,0.75,1.0,0.39,0.45,-0.73,210.1,7.9,5.9,0.75,0.75,1.0,1.25,3.75,1.0,0.25,0.0,0.25,0.25,0.25,0.5,0.5,-0.3,0.58,-0.61,165.59,-5.7,35.8
5.74,0.25,0.75,2.75,1.25,2.25,1.0,1.0,0.5,0.0,2.0,1.25,0.5,1.0,0.39,0.45,-0.73,209.97,6.7,7.1,1.25,0.5,1.25,1.25,4.25,1.0,0.25,0.0,0.25,0.5,0.75,0.5,0.25,-0.3,0.64,-0.55,174.55,-7.1,34.6
5.76,0.25,0.75,2.75,2.0,2.5,1.0,1.0,0.5,0.25,1.5,1.25,0.5,1.0,0.39,0.45,-0.8,211.43,7.9,12.6,1.25,0.25,1.25,1.25,3.0,1.0,0.25,0.0,0.0,0.0,0.75,0.5,0.5,-0.3,0.7,-0.61,171.96,-8.9,33.9
5.78,0.25,1.0,2.75,1.75,2.25,1.0,1.0,0.5,0.25,1.25,1.25,0.5,1.0,0.33,0.45,-0.8,212.66,8.4,14.0,0.75,1.25,1.25,1.0,3.25,1.25,0.25,0.0,0.25,0.5,0.75,0.5,0.5,-0.3,0.77,-0.67,176.91,-6.1,30.9
5.8,0.25,1.0,2.75,2.0,2.25,0.5,1.0,0.5,0.0,0.0,1.25,0.75,1.0,0.33,0.45,-0.8,208.8,12.0,21.2,0.75,0.5,1.0,1.25,3.5,1.0,0.25,0.0,0.0,0.75,0.75,0.5,0.5,-0.3,0.77,-0.67,174.75,-4.9,25.7
5.82,0.25,1.0,2.75,2.0,2.25,0.75,0.75,0.5,0.0,1.5,1.25,0.75,1.0,0.33,0.45,-0.8,209.23,8.4,11.6,0.75,0.5,1.0,0.5,3.5,1.25,0.25,0.0,0.0,0.5,0.75,0.75,0.5,-0.3,0.83,-0.73,170.55,-4.0,22.8
5.84,0.25,1.0,2.75,1.75,2.25,0.75,1.0,0.5,0.25,1.0,1.25,0.5,1.0,0.33,0.52,-0.73,207.91,9.4,15.2,1.0,0.5,1.0,1.25,3.75,1.0,0.25,0.0,0.0,0.5,0.75,0.5,0.5,-0.3,0.83,-0.73,169.9,-5.8,30.1
5.86,0.25,1.0,2.75,2.0,2.25,1.0,1.0,0.5,0.25,2.5,1.25,0.5,1.0,0.39,0.52,-0.73,216.28,6.7,7.8,0.75,0.75,1.0,1.0,3.5,1.0,0.25,0.0,0.0,0.0,0.5,0.0,0.5,-0.23,0.83,-0.73,164.57,-6.0,44.2
5.88,0.25,1.0,2.75,1.75,2.25,0.75,1.0,0.5,0.0,1.25,1.25,0.5,1.0,0.39,0.52,-0.8,215.1,8.9,14.6,0.75,0.25,1.0,1.25,3.5,1.0,0.25,0.0,0.25,0.0,0.75,0.5,0.5,-0.23,0.83,-0.67,163.21,-6.4,29.7
5.9,0.25,1.0,2.75,2.0,2.25,0.75,1.0,0.5,0.0,2.0,1.25,0.5,1.0,0.39,0.45,-0.67,217.74,7.8,10.9,0.75,0.75,0.5,1.25,3.25,1.25,0.25,0.0,0.0,0.25,0.75,0.5,0.5,-0.23,0.7,-0.61,159.24,-4.0,30.1
5.92,0.25,1.0,2.75,2.0,2.25,1.0,1.0,0.5,0.25,1.5,1.25,0.5,1.0,0.45,0.45,-0.67,218.31,8.2,13.3,0.75,0.75,0.5,1.25,2.75,1.0,0.25,0.0,0.0,0.5,0.75,0.5,0.5,-0.17,0.64,-0.61,156.08,-4.6,26.0
5.94,0.25,1.0,2.5,2.0,2.5,1.0,1.0,0.5,0.25,1.0,1.25,0.75,1.0,0.39,0.64,-0.8,218.99,8.3,14.1,0.75,0.5,0.5,1.25,3.25,1.0,0.25,0.0,0.0,0.25,0.75,0.5,0.5,-0.17,0.64,-0.61,152.72,-4.5,28.2
5.96,0.25,1.0,2.75,2.0,2.25,1.0,1.0,0.5,0.25,2.0,1.25,0.5,1.0,0.33,0.64,-0.86,221.16,7.4,10.4,0.75,0.75,1.25,1.5,4.25,1.0,0.0,0.0,0.0,0.5,0.75,0.5,0.5,-0.11,0.58,-0.61,163.16,-5.6,32.6
5.98,0.25,1.0,2.75,2.75,2.25,0.5,1.0,0.5,0.0,1.5,1.25,0.5,1.0,0.33,0.52,-0.61,222.63,9.6,15.7,1.0,0.5,0.75,1.25,3.75,1.0,0.25,0.25,0.0,0.5,0.75,0.5,0.5,-0.11,0.52,-0.61,168.79,-4.5,27.9
6.0,0.25,1.0,2.25,1.75,2.25,1.0,1.0,0.5,0.25,1.25,1.25,0.0,1.0,0.45,0.58,-0.67,216.57,7.3,16.7,0.75,0.75,1.0,1.25,3.0,1.0,0.25,0.0,0.0,0.5,0.5,0.5,0.5,-0.11,0.45,-0.67,170.67,-5.9,30.8
6.02,0.25,1.0,2.75,2.0,2.25,0.75,0.75,0.5,0.25,1.0,1.25,0.75,1.0,0.45,0.58,-0.86,214.06,9.3,13.8,0.75,0.75,1.5,1.25,3.0,1.0,0.25,0.0,0.0,0.5,0.0,0.5,0.25,-0.17,0.64,-0.67,166.49,-7.8,41.0
6.04,0.25,1.0,2.5,2.0,2.25,0.75,1.0,0.5,0.25,2.0,1.25,0.5,1.0,0.45,0.64,-0.92,214.0,7.4,9.2,0.75,0.5,0.75,1.25,2.5,1.0,0.25,0.0,0.0,0.25,0.75,0.5,0.5,-0.23,0.77,-0.73,158.14,-6.1,26.8
6.06,0.25,1.0,2.25,2.0,2.25,0.5,1.0,0.5,0.25,1.75,1.25,0.25,1.0,0.52,0.64,-0.98,210.79,7.7,11.4,1.0,0.75,0.0,1.25,0.5,1.0,0.0,0.0,0.0,0.5,0.0,0.5,0.25,-0.36,0.95,-0.8,133.07,-5.9,32.1
6.08,0.25,1.0,2.75,2.0,2.25,1.0,1.0,0.5,0.25,1.0,1.25,0.75,1.0,0.39,0.77,-0.92,212.32,9.0,14.2,1.0,0.75,1.0,1.25,3.5,1.0,0.25,0.25,0.25,0.0,0.5,0.5,0.5,-0.48,1.02,-0.86,138.84,-6.6,35.1
6.1,0.25,1.0,2.75,2.0,2.25,0.5,1.0,0.5,0.0,1.75,1.25,0.5,1.0,0.45,0.7,-0.92,211.98,8.7,12.0,0.5,0.0,1.25,1.0,1.5,1.0,0.25,0.0,0.0,0.0,0.0,0.0,0.0,-0.42,0.95,-0.8,120.93,-10.7,55.9
6.12,0.25,1.0,2.75,2.0,2.25,0.5,1.0,0.5,0.25,1.0,1.25,0.5,1.0,0.45,0.64,-0.92,211.46,10.1,15.7,1.0,0.75,1.25,1.25,2.75,1.0,0.25,0.0,0.0,0.0,0.75,0.5,0.5,-0.36,0.89,-0.8,132.78,-8.8,35.1
6.14,0.25,1.0,3.0,2.0,2.25,0.25,1.0,0.5,0.25,2.0,1.25,0.5,1.0,0.45,0.58,-0.92,212.48,9.4,10.2,0.75,0.75,1.25,1.25,0.5,1.0,0.0,0.0,0.0,0.0,0.5,0.0,0.5,-0.3,0.89,-0.8,119.6,-12.2,40.8
6.16,0.25,1.0,3.0,2.0,2.25,0.75,1.0,0.5,0.25,1.5,1.25,0.5,1.0,0.45,0.52,-0.98,215.27,9.2,13.7,0.75,0.75,1.25,1.25,3.25,1.0,0.25,0.0,0.0,0.5,0.75,0.5,0.5,-0.23,0.83,-0.8,138.51,-6.5,29.8
6.18,0.25,1.0,2.5,1.5,2.25,0.25,1.0,0.5,0.0,1.25,1.25,0.75,1.0,0.52,0.52,-0.98,210.09,9.3,9.8,0.75,0.5,0.75,1.25,3.0,1.0,0.0,0.0,0.0,0.0,0.5,0.5,0.5,-0.23,0.83,-0.8,137.04,-5.7,33.9
6.2,0.25,1.0,2.75,2.0,2.25,0.5,1.0,0.5,0.25,0.5,1.25,0.75,1.0,0.45,0.52,-0.98,207.08,11.0,16.7,1.25,0.75,0.75,1.25,3.0,1.0,0.25,0.25,0.0,0.25,0.75,0.5,0.5,-0.23,0.83,-0.8,151.56,-6.5,31.5
6.22,0.25,1.0,2.75,2.0,2.25,0.5,1.0,0.5,0.25,1.25,1.25,0.25,1.0,0.45,0.45,-0.73,205.72,9.6,16.3,0.75,0.5,1.75,1.25,3.0,1.0,0.0,0.0,0.0,0.75,0.75,0.5,0.5,-0.17,0.77,-0.8,161.07,-7.3,26.7
6.24,0.25,1.0,2.75,2.0,2.25,0.5,1.0,0.5,0.5,1.0,1.25,1.0,1.0,0.45,0.45,-0.55,209.01,10.1,10.6,0.75,0.75,1.25,1.25,3.0,1.0,0.25,0.0,0.0,0.5,0.0,0.5,0.25,-0.23,0.64,-0.73,165.67,-7.0,40.5
6.26,0.25,1.0,2.75,2.0,2.25,0.75,1.0,0.5,0.25,1.0,1.25,0.5,1.0,0.45,0.33,-0.42,209.53,9.5,16.0,0.75,0.5,1.0,1.25,3.0,1.0,0.0,0.0,0.0,0.5,0.75,0.5,0.5,-0.23,0.58,-0.67,165.82,-5.6,26.6
6.28,0.25,1.0,2.75,2.0,2.25,1.0,1.0,0.5,0.25,1.75,1.25,0.5,1.0,0.45,0.27,-0.36,215.18,7.8,11.8,0.75,0.75,1.0,1.25,3.5,1.0,0.25,0.0,0.0,0.5,0.75,0.5,0.5,-0.23,0.58,-0.73,170.06,-5.5,29.7
6.3,0.25,1.0,2.5,2.0,2.25,0.75,1.0,0.5,0.25,2.0,1.25,0.25,1.0,0.45,0.27,-0.3,216.76,7.4,11.2,0.75,0.5,1.0,1.25,3.5,1.0,0.25,0.0,0.25,0.25,0.25,0.5,0.5,-0.23,0.52,-0.73,170.99,-5.8,33.8
6.32,0.25,1.0,2.75,2.0,2.25,0.75,1.0,0.5,0.25,1.25,1.25,0.5,1.0,0.45,0.2,-0.3,216.59,9.1,14.4,1.0,0.5,1.25,1.25,3.5,1.0,0.25,0.0,0.0,0.75,0.0,0.5,0.5,-0.17,0.52,-0.8,170.75,-5.9,34.8
6.34,0.25,1.0,2.75,2.0,2.25,0.75,1.0,0.5,0.25,2.5,1.25,0.75,1.0,0.45,0.27,-0.17,221.22,7.2,5.6,0.75,0.75,0.75,1.25,2.75,1.0,0.25,0.0,0.0,0.25,0.5,0.5,0.5,-0.11,0.45,-0.73,167.7,-5.9,32.1
6.36,0.25,1.0,2.75,1.75,2.25,0.25,1.0,0.5,0.5,0.5,1.25,0.5,1.0,0.52,0.27,-0.11,215.29,11.5,16.9,0.75,0.75,1.0,1.25,3.0,1.0,0.0,0.0,0.0,0.75,0.75,0.5,0.5,-0.11,0.39,-0.73,164.95,-5.2,26.0
6.38,0.25,1.0,2.75,2.0,2.25,0.5,1.0,0.5,0.25,2.0,1.25,0.5,1.0,0.52,0.27,-0.05,216.11,8.4,9.7,0.75,0.75,1.5,1.25,3.0,0.75,0.25,0.0,0.0,0.5,0.5,0.5,0.25,-0.11,0.39,-0.73,163.58,-8.7,35.8
6.4,0.25,1.0,2.75,2.0,2.5,0.25,1.0,0.5,0.25,2.0,1.25,0.5,1.0,0.52,0.33,-0.05,216.38,8.6,10.2,0.75,0.75,0.75,1.25,1.25,1.0,0.25,0.0,0.0,0.25,0.75,0.5,0.5,-0.23,0.45,-0.86,149.51,-8.0,24.3
6.42,0.25,1.0,2.5,1.75,2.25,0.5,1.0,0.5,0.25,1.5,1.25,0.5,1.0,0.52,0.45,0.08,215.31,8.5,10.9,0.75,0.75,1.5,1.25,3.25,1.0,0.25,0.0,0.0,0.25,0.5,0.5,0.5,-0.55,0.64,-0.8,153.68,-7.7,35.3
6.44,0.25,1.0,2.5,2.0,3.0,0.75,1.0,0.5,0.0,2.0,1.25,0.0,1.0,0.58,0.45,0.2,216.37,6.7,16.3,0.75,0.75,1.5,1.25,2.75,1.0,0.25,0.0,0.0,0.5,0.25,0.5,0.5,-0.48,0.7,-0.8,153.53,-7.7,34.2
6.46,0.25,1.0,2.75,1.75,2.25,0.75,1.0,0.5,0.25,1.25,1.25,0.5,1.0,0.64,0.58,0.33,214.44,9.0,13.6,0.75,0.75,1.0,1.25,3.0,1.0,0.25,0.0,0.0,0.25,0.5,0.5,0.5,-0.23,0.7,-0.86,157.07,-6.5,33.5
6.48,0.25,1.0,2.75,2.0,2.25,0.75,1.0,0.5,0.25,1.75,1.25,0.5,1.0,0.64,0.64,0.39,216.03,8.3,11.5,0.75,0.5,0.75,1.5,3.0,1.0,0.0,0.0,0.0,0.5,0.25,0.5,0.5,0.14,0.7,-0.92,155.69,-4.7,31.7
6.5,0.25,1.0,2.75,2.0,2.25,0.75,1.0,0.5,0.25,1.75,1.25,0.5,1.0,0.64,0.7,0.45,216.45,8.3,11.5,0.75,0.5,1.25,1.25,3.0,1.25,0.25,0.0,0.0,0.5,0.75,0.5,0.5,0.45,0.7,-0.92,159.53,-6.0,27.6
6.52,0.25,1.0,2.5,2.0,2.25,0.5,1.0,0.5,0.25,2.0,1.25,0.5,1.0,0.77,0.77,0.39,217.02,7.9,8.8,1.0,0.75,1.0,1.25,1.0,1.0,0.25,0.0,0.0,0.5,0.75,0.5,0.5,0.52,0.58,-0.86,149.42,-9.4,23.5
6.54,0.25,1.0,2.0,2.0,2.5,0.25,1.0,0.5,0.0,1.5,1.25,0.75,1.0,0.83,0.77,0.58,212.53,7.8,9.1,1.25,0.5,0.75,1.25,3.25,1.0,0.25,0.5,0.0,0.5,0.75,0.5,0.25,0.52,0.45,-0.73,155.51,-5.5,29.8
6.56,0.25,1.0,2.5,1.75,2.25,0.75,1.0,0.5,0.25,2.0,1.25,0.25,1.0,0.7,0.58,0.77,211.27,7.2,10.4,0.75,0.5,0.75,1.5,3.25,1.0,0.25,0.0,0.0,0.0,0.25,0.5,0.0,0.27,0.45,-0.73,151.72,-7.0,46.2
6.58,0.25,1.0,2.75,1.75,2.25,0.75,1.0,0.5,0.25,0.75,1.25,0.75,1.0,0.52,0.58,0.52,208.35,9.8,14.6,0.75,0.5,0.75,1.25,1.0,1.0,0.25,0.0,0.0,0.25,0.5,0.5,0.5,0.02,0.45,-0.67,141.16,-8.2,23.8
