time,left pressure 0[N/cm虏],left pressure 1[N/cm虏],left pressure 2[N/cm虏],left pressure 3[N/cm虏],left pressure 4[N/cm虏],left pressure 5[N/cm虏],left pressure 6[N/cm虏],left pressure 7[N/cm虏],left pressure 8[N/cm虏],left pressure 9[N/cm虏],left pressure 10[N/cm虏],left pressure 11[N/cm虏],left pressure 12[N/cm虏],left acceleration X[g],left acceleration Y[g],left acceleration Z[g],left total force[N],left center of pressure X[mm],left center of pressure Y[mm],right pressure 0[N/cm虏],right pressure 1[N/cm虏],right pressure 2[N/cm虏],right pressure 3[N/cm虏],right pressure 4[N/cm虏],right pressure 5[N/cm虏],right pressure 6[N/cm虏],right pressure 7[N/cm虏],right pressure 8[N/cm虏],right pressure 9[N/cm虏],right pressure 10[N/cm虏],right pressure 11[N/cm虏],right pressure 12[N/cm虏],right acceleration X[g],right acceleration Y[g],right acceleration Z[g],right total force[N],right center of pressure X[mm],right center of pressure Y[mm]
0.02,2.25,0.5,1.0,1.25,0.75,1.5,0.5,3.5,2.25,4.5,4.25,6.5,7.75,0.83,0.2,1.08,460.33,0.1,-54.1,10.5,2.5,8.25,6.5,1.75,2.75,1.5,1.25,1.0,1.5,1.25,0.75,0.0,0.45,0.89,2.27,776.94,-19.6,50.8
0.04,2.0,0.5,1.0,2.25,0.75,2.0,1.5,3.5,2.75,5.5,5.0,7.5,8.5,-0.8,0.27,1.45,559.0,0.3,-53.2,8.25,2.5,6.0,4.5,0.0,2.75,1.0,1.25,1.0,1.25,0.75,0.75,0.0,0.58,0.95,2.39,589.54,-19.2,49.4
0.06,0.0,0.5,1.0,2.5,0.75,1.0,1.75,5.0,4.0,8.0,6.5,7.75,9.5,-0.11,0.33,2.08,676.52,-1.3,-62.6,8.0,1.75,6.0,4.5,1.0,2.5,1.0,1.25,1.0,1.5,0.5,0.75,0.75,0.45,0.64,2.58,451.06,-17.6,43.8
0.08,1.75,0.25,1.25,2.75,0.75,1.0,2.25,6.0,5.0,8.5,7.25,7.75,9.5,-0.11,0.2,1.27,796.28,0.1,-56.2,6.25,1.5,4.0,2.0,2.25,1.5,1.0,1.0,0.75,1.25,1.25,0.75,1.25,0.52,-0.36,2.77,342.29,-15.0,33.7
0.1,1.25,0.5,1.0,3.5,0.75,2.25,2.5,7.0,5.75,8.5,8.25,8.0,8.75,-0.11,0.08,1.02,911.82,-0.1,-53.0,4.25,1.5,2.25,2.0,1.75,1.5,0.75,1.0,0.75,1.25,1.25,0.75,1.25,0.83,-1.36,1.95,268.98,-11.5,24.7
0.12,2.0,0.5,1.75,3.25,0.75,3.75,2.5,7.0,6.25,9.0,8.0,8.25,8.5,-0.11,0.08,0.95,1004.48,0.1,-48.2,3.0,1.5,2.0,2.0,1.75,1.25,0.75,0.75,0.75,1.25,1.25,0.75,1.25,1.33,-1.48,2.77,213.48,-10.4,20.2
0.14,2.0,0.5,1.75,3.0,0.75,3.5,3.0,7.5,6.25,9.25,9.0,8.0,9.0,-0.11,0.08,0.95,1078.79,0.0,-49.4,3.0,1.5,1.5,2.0,2.25,0.0,1.0,1.0,0.75,1.0,1.5,0.75,1.25,0.52,-1.42,1.77,176.16,-11.6,18.4
0.16,2.0,0.5,1.75,3.75,1.25,3.5,3.25,7.5,6.25,9.0,9.0,8.0,9.25,-0.11,0.08,0.95,1129.63,0.3,-47.1,1.5,0.75,1.5,0.0,2.25,0.0,1.0,1.25,0.25,0.0,1.25,0.25,1.0,0.27,-0.67,0.83,124.34,-10.0,15.8
0.18,2.0,0.5,2.25,3.5,1.25,2.5,3.25,7.5,6.25,9.25,9.0,8.0,9.5,-0.11,0.08,0.95,1153.77,0.7,-48.2,2.0,1.5,1.75,2.0,1.75,1.25,1.0,1.25,1.0,1.25,1.0,0.75,0.25,0.33,-0.67,0.52,112.58,-9.5,22.1
0.2,2.0,0.5,2.0,2.25,1.25,2.75,3.25,7.5,6.25,8.5,9.0,7.75,8.75,-0.11,0.08,0.95,1130.81,0.5,-49.3,2.5,1.5,1.5,2.0,1.75,1.25,1.0,1.25,1.0,1.0,1.75,0.75,1.25,0.14,-0.55,0.95,131.42,-8.8,13.5
0.22,2.0,0.75,2.0,2.5,0.75,2.75,3.25,7.0,6.25,8.25,8.25,7.75,8.75,-0.11,0.08,0.95,1080.01,0.7,-48.8,2.25,1.5,1.25,2.0,2.25,1.25,1.0,1.25,1.0,1.0,1.0,0.75,1.0,-0.05,-0.3,1.14,161.02,-7.9,18.5
0.24,1.75,0.5,2.25,2.25,0.75,3.0,3.25,7.5,6.25,8.25,8.25,7.5,8.75,-0.11,0.08,0.95,1030.24,0.4,-49.4,2.0,1.5,1.5,2.0,2.25,1.25,0.75,1.25,1.0,1.25,1.0,0.75,1.5,0.02,-0.05,1.02,189.7,-6.8,13.1
0.26,1.75,0.5,2.25,2.5,0.5,3.0,3.0,7.25,6.25,8.25,8.25,7.5,8.5,-0.11,0.08,0.95,984.78,0.5,-49.4,2.75,1.5,1.25,2.0,1.75,1.25,1.0,1.25,1.0,1.25,1.25,0.75,1.25,0.08,0.14,1.08,215.74,-8.3,15.0
0.28,2.0,0.25,2.25,2.75,0.5,3.5,3.0,7.25,6.25,8.25,8.25,7.5,8.5,-0.11,0.08,0.95,953.17,0.5,-48.3,2.0,1.5,1.25,2.0,1.75,1.25,1.0,1.25,1.0,1.0,0.75,0.75,1.5,-0.11,0.27,1.27,224.93,-7.2,13.6
0.3,0.75,0.5,2.25,2.5,0.75,3.0,3.5,7.25,6.25,8.25,8.25,7.5,8.5,-0.11,0.08,0.95,926.4,0.1,-50.9,2.0,1.5,1.5,2.0,1.75,1.25,1.0,1.25,1.0,1.0,1.0,0.75,1.25,-0.05,0.33,1.52,228.35,-8.0,15.0
0.32,1.0,0.5,2.25,2.5,0.5,2.25,3.75,7.5,6.5,8.25,8.25,7.25,8.5,-0.11,0.08,0.95,907.52,0.5,-51.4,2.5,1.5,1.25,2.0,1.75,1.25,1.0,1.0,1.0,1.0,1.0,0.75,1.25,0.02,0.45,1.83,235.83,-8.6,17.3
0.34,0.75,0.5,2.75,3.5,0.5,3.5,3.75,7.5,6.75,8.25,8.25,7.25,8.25,-0.11,0.08,0.95,905.49,0.7,-47.0,2.0,1.5,1.25,2.0,1.75,0.25,1.0,1.25,1.0,1.25,1.25,0.75,1.5,0.08,0.64,2.14,238.05,-8.6,8.5
0.36,1.25,0.25,2.75,3.5,1.75,3.5,3.75,7.5,6.75,8.5,8.5,7.25,8.25,-0.11,0.08,0.95,921.76,0.8,-44.4,2.0,1.5,1.25,2.0,1.75,0.0,1.0,1.25,1.0,1.0,1.25,0.75,1.0,0.14,0.89,2.27,234.12,-10.3,13.4
0.38,1.0,1.0,3.0,3.5,2.25,4.0,3.75,7.5,7.0,8.25,8.5,7.0,7.75,-0.11,0.08,0.95,944.3,0.9,-40.3,1.75,1.5,1.5,2.0,1.75,0.0,1.0,1.25,1.0,1.0,0.75,0.75,1.25,0.45,1.27,2.33,229.3,-9.9,13.7
0.4,2.0,0.5,3.25,3.75,3.5,5.0,4.25,7.75,7.5,8.0,8.5,6.5,7.75,-0.11,0.02,0.95,983.3,1.2,-34.6,2.0,1.5,1.5,2.0,1.75,1.25,1.0,1.0,1.0,1.25,1.25,0.75,1.25,0.64,1.89,0.7,232.81,-8.1,13.1
0.42,2.0,0.5,3.25,3.75,4.75,5.5,4.75,8.0,8.0,7.5,8.25,6.0,7.0,-0.11,0.08,0.95,1016.49,1.3,-30.2,2.0,1.5,1.25,2.0,2.75,1.25,0.75,1.25,1.0,1.25,1.25,0.75,1.25,0.45,2.77,0.77,236.75,-6.4,14.2
0.44,2.5,0.5,3.75,3.75,5.25,5.5,5.0,8.25,8.25,7.0,8.0,5.25,6.0,-0.11,0.08,0.95,1037.64,2.0,-25.2,2.25,1.5,1.5,2.0,2.5,1.25,1.0,0.75,1.0,1.0,1.0,0.75,1.25,-0.05,3.39,0.33,243.57,-8.5,19.5
0.46,3.0,0.75,4.25,5.25,5.5,6.25,5.25,8.25,8.25,5.5,7.25,4.25,5.0,-0.11,0.08,0.95,1050.01,3.1,-15.9,2.0,1.5,1.25,2.0,2.25,1.25,1.0,1.0,1.0,1.25,0.5,0.75,0.75,-1.55,4.02,-0.23,243.97,-7.7,21.7
0.48,4.25,1.25,5.25,6.0,6.75,7.0,5.5,8.25,8.0,4.5,6.5,2.75,3.75,-0.11,0.08,0.95,1073.83,4.5,-3.5,2.0,1.5,1.25,2.0,1.75,1.75,1.0,1.25,1.0,1.5,1.25,0.75,1.25,-3.05,4.27,0.33,246.54,-6.1,11.1
0.5,6.5,2.0,5.5,8.5,7.5,7.25,5.75,7.75,7.25,3.75,5.5,2.5,3.25,-0.11,0.08,0.95,1128.61,6.2,7.4,1.75,1.5,1.25,2.0,1.75,1.75,1.0,1.25,0.75,2.5,1.25,2.25,2.5,0.02,-1.05,0.2,258.31,-3.7,-9.1
0.52,8.5,2.0,7.25,10.5,9.25,7.25,6.0,6.75,5.5,3.75,3.75,2.25,2.25,-0.11,0.08,1.02,1206.6,8.2,19.5,2.0,1.25,1.25,1.0,1.75,0.0,0.75,1.25,1.0,3.25,1.25,3.5,4.75,0.14,0.2,2.14,275.85,-3.0,-33.7
0.54,10.0,2.25,8.75,12.5,9.5,6.75,5.5,5.25,3.5,3.75,4.5,1.75,1.5,-0.11,0.08,1.33,1288.47,10.3,27.3,2.0,0.5,0.5,0.0,2.5,2.25,0.5,1.5,1.5,5.0,2.5,5.5,7.75,-0.61,0.7,1.14,334.78,2.4,-51.6
0.56,11.0,2.25,9.75,10.0,10.0,5.75,4.25,4.75,2.75,3.0,3.75,1.25,1.5,-0.23,0.14,1.7,1304.99,11.4,32.1,2.5,1.5,0.25,0.5,2.25,2.75,0.75,2.5,1.75,7.0,3.25,7.0,7.75,0.33,0.52,2.27,430.29,2.0,-48.2
0.58,12.5,3.5,10.0,8.75,9.0,4.0,1.5,3.5,1.75,2.25,3.5,1.0,1.5,-0.17,0.27,1.77,1254.16,13.6,38.9,2.75,1.5,0.5,2.0,2.75,3.5,1.0,3.5,3.0,7.25,4.25,6.75,8.25,0.02,0.33,1.45,566.56,1.1,-41.2
0.6,10.5,2.0,8.25,5.75,7.5,3.5,0.75,3.25,2.25,2.75,2.25,1.25,1.25,-0.23,0.58,2.02,1091.23,12.6,33.9,1.25,0.75,0.0,0.0,1.75,1.25,1.0,4.0,3.5,7.0,3.75,6.25,7.75,0.08,0.2,0.95,629.28,3.0,-60.6
0.62,9.5,1.75,6.75,4.0,5.0,1.0,0.5,2.5,1.75,2.25,2.0,1.0,1.0,-0.73,0.7,2.45,859.66,15.2,34.6,2.0,0.75,1.5,2.0,3.25,3.75,1.5,5.25,4.5,8.25,7.75,7.5,8.5,0.08,0.2,0.95,765.21,0.6,-45.1
0.64,8.0,0.5,5.5,3.5,1.25,1.25,1.0,2.5,1.5,0.75,3.25,0.75,1.0,-0.8,0.52,2.77,614.83,17.3,27.5,2.75,1.5,1.5,2.0,4.25,3.75,2.0,5.75,4.75,8.5,8.25,7.75,8.5,0.08,0.14,0.95,884.49,0.0,-40.0
0.66,7.0,1.0,3.5,3.5,0.75,1.75,1.0,1.75,1.5,1.5,2.0,1.0,0.5,-0.8,0.39,3.14,426.63,15.5,28.4,2.75,1.5,2.75,2.0,4.25,3.75,2.0,6.0,5.25,8.25,8.5,7.75,8.5,0.08,0.14,0.95,1012.23,-0.9,-37.9
0.68,4.5,0.5,1.0,1.75,0.75,2.25,1.75,2.75,1.75,0.0,2.0,0.5,0.75,-0.67,-1.05,2.95,290.88,9.9,16.4,2.0,1.5,2.75,2.0,4.5,3.75,2.0,6.0,5.25,8.25,8.5,7.75,8.5,0.08,0.14,0.95,1087.79,-0.5,-39.0
0.7,3.5,0.5,1.0,1.5,0.75,1.0,1.5,1.5,1.5,0.0,2.0,0.75,1.0,-0.61,-1.48,2.2,200.98,12.3,10.6,2.25,1.5,2.75,2.0,4.75,3.75,2.0,5.75,5.25,8.0,8.25,7.25,8.5,0.08,0.14,0.95,1121.37,-0.6,-37.2
0.72,2.0,0.0,0.75,1.0,0.5,0.5,1.5,0.5,1.0,1.25,2.0,0.5,0.25,-0.73,-1.67,1.58,105.76,11.8,-2.1,2.5,1.5,2.75,2.0,4.5,3.75,2.0,5.75,4.75,7.75,7.75,7.0,8.0,0.08,0.14,0.95,1090.81,-0.7,-35.7
0.74,2.0,0.5,0.75,1.0,0.5,0.0,1.5,1.5,1.5,0.75,3.25,0.0,1.25,-0.48,-0.98,0.58,52.13,10.1,-11.6,2.5,1.5,2.75,2.0,4.5,3.75,2.0,5.25,4.75,7.25,7.75,6.25,7.25,0.08,0.14,0.95,1027.28,-1.1,-33.4
0.76,1.75,0.5,0.75,1.0,0.5,0.25,1.5,0.5,1.75,1.0,2.5,0.0,1.25,-0.55,-0.86,0.33,21.94,10.6,-8.7,2.0,1.5,2.25,2.0,4.75,3.75,2.0,5.5,4.75,6.75,7.25,6.0,7.25,0.08,0.14,0.95,958.13,-0.4,-33.8
0.78,1.75,0.5,1.0,1.0,0.75,0.25,1.5,0.5,1.5,1.25,2.0,0.0,0.25,-0.42,-0.73,0.45,23.51,12.5,5.5,3.0,1.5,2.75,2.0,4.5,3.75,2.0,5.25,4.75,6.5,6.75,5.75,6.5,0.08,0.14,0.95,882.41,-1.6,-29.1
0.8,1.75,0.5,0.75,4.25,0.75,1.5,2.25,1.5,1.75,0.75,2.25,0.75,0.25,-0.3,-0.61,0.77,76.05,10.0,10.2,2.25,1.5,2.75,2.0,5.25,3.75,2.0,5.5,5.25,6.25,6.75,5.5,6.0,0.08,0.14,0.95,828.3,-1.3,-28.2
0.82,1.75,0.25,1.25,1.75,0.75,0.75,2.5,1.5,1.25,1.75,2.0,0.5,0.0,-0.23,-0.42,0.89,114.47,10.1,2.3,2.75,1.75,3.0,2.0,5.5,3.75,2.0,5.25,5.25,6.0,6.75,4.75,5.5,0.08,0.14,0.95,790.32,-2.0,-23.5
0.84,1.25,0.25,0.75,3.5,0.5,1.75,2.5,1.5,1.25,1.25,1.75,0.5,0.0,-0.23,-0.23,1.02,157.07,8.3,8.8,3.0,1.75,4.0,2.75,5.5,4.75,1.25,5.25,5.75,5.5,6.5,3.75,4.5,0.08,0.14,0.95,775.55,-2.8,-15.7
0.86,1.75,0.5,1.5,3.5,0.75,1.25,2.25,1.5,1.75,1.5,3.25,0.75,1.25,-0.23,-0.11,1.08,202.95,9.1,-3.1,3.0,1.75,4.0,3.75,5.5,5.25,2.0,5.75,6.25,5.5,5.5,3.5,4.0,0.08,0.14,0.95,764.08,-3.0,-11.6
0.88,2.0,0.5,0.75,2.75,0.5,1.75,2.0,1.75,1.75,1.5,2.25,1.0,1.25,-0.23,0.02,1.27,232.31,6.7,-5.4,3.25,1.75,4.25,4.5,5.5,5.75,3.0,6.0,6.75,4.75,5.75,2.5,3.25,0.08,0.14,0.95,782.21,-3.9,-5.8
0.9,2.0,0.5,1.5,3.5,0.75,1.0,2.25,1.75,1.75,1.25,3.0,0.75,1.25,-0.3,0.14,1.58,256.35,9.7,-1.1,4.5,1.75,5.0,4.5,6.75,5.75,3.0,5.75,6.75,4.0,5.25,2.25,2.75,0.08,0.14,0.95,815.32,-5.2,1.6
0.92,2.0,0.5,1.25,3.25,0.75,1.5,2.25,1.5,1.25,1.25,3.0,1.0,1.25,-0.36,0.27,1.89,270.84,8.7,-1.8,5.5,2.25,6.0,6.25,7.25,6.0,3.75,5.5,6.75,3.5,4.5,2.0,1.75,0.08,0.14,0.95,871.86,-7.2,11.6
0.94,2.0,0.5,1.25,2.5,0.75,1.0,2.5,2.0,1.5,2.0,3.0,1.0,1.25,-0.55,0.58,2.2,279.66,7.8,-9.0,6.75,2.5,7.25,8.25,8.5,6.25,4.25,5.25,6.25,2.75,3.0,1.75,1.5,0.08,0.14,0.95,953.13,-8.8,21.8
0.96,1.75,0.5,1.5,3.5,1.25,1.0,2.25,2.25,1.75,1.5,3.25,0.75,1.25,-0.8,0.89,2.7,286.67,8.2,-3.3,7.75,2.5,8.25,9.75,9.0,6.25,4.0,4.25,5.25,2.75,3.5,1.0,1.5,0.08,0.14,0.95,1041.07,-10.0,27.3
0.98,1.75,0.5,1.0,3.5,0.75,2.0,2.25,2.25,1.5,1.25,3.0,0.75,1.25,-0.98,1.7,3.02,287.94,6.6,-2.6,9.0,2.75,9.0,12.0,9.75,6.25,4.25,3.25,4.25,2.5,2.5,0.75,1.5,0.08,0.2,0.95,1132.76,-11.4,35.0
1.0,1.75,0.5,1.0,3.25,0.75,1.25,2.25,2.5,1.5,1.5,3.0,0.0,1.25,-0.8,2.02,1.02,285.0,6.8,-2.1,10.5,3.0,9.75,13.0,11.0,5.75,3.0,2.75,2.25,1.75,2.5,0.75,1.5,0.02,0.2,1.02,1207.38,-12.5,41.6
1.02,1.0,0.25,1.0,3.5,0.75,0.25,2.25,2.75,1.75,1.25,3.0,0.5,1.25,-0.73,4.45,1.02,273.96,7.4,-11.1,11.5,2.5,11.0,13.5,11.5,6.0,3.0,1.75,1.75,2.25,2.25,0.75,1.5,0.02,0.2,1.27,1273.82,-13.3,43.8
1.04,2.0,0.5,1.0,2.75,0.75,1.5,2.25,3.25,2.0,2.0,3.0,1.0,1.25,1.7,6.89,-1.98,275.35,5.4,-10.6,10.5,1.5,11.0,13.5,11.5,5.75,2.5,0.75,1.5,1.5,1.75,0.75,0.75,0.08,0.2,1.2,1266.89,-14.2,48.0
1.06,2.0,0.5,1.0,2.5,0.75,1.0,1.75,3.5,2.0,2.75,3.25,1.0,2.0,3.52,6.45,-1.55,283.6,4.1,-19.1,13.0,3.0,12.0,12.0,11.0,4.25,1.5,1.25,0.75,1.25,1.5,0.75,1.25,0.14,0.33,1.27,1254.28,-15.7,51.4
1.08,2.0,0.5,1.75,3.5,1.25,1.0,1.5,3.5,2.0,2.75,3.25,2.75,3.25,-0.73,-0.67,2.39,311.5,4.7,-22.5,13.0,3.0,11.5,9.75,8.75,3.5,1.0,1.25,0.75,1.0,1.5,0.75,1.5,0.14,0.33,1.45,1170.01,-16.7,51.1
1.1,2.0,0.5,1.0,2.25,0.75,2.0,1.5,3.5,2.25,4.0,3.5,4.5,5.5,0.02,1.08,0.64,360.49,1.0,-40.9,13.0,3.0,11.0,7.0,7.0,2.0,1.0,1.25,1.0,0.0,1.5,0.25,1.25,0.14,0.52,1.64,1035.44,-19.3,55.5
1.12,1.0,0.0,1.0,1.0,1.25,1.0,1.5,5.0,2.25,5.5,4.5,5.25,7.0,-0.23,0.7,3.02,433.31,-1.7,-57.4,9.5,1.5,8.75,6.0,1.75,1.5,1.5,0.5,1.0,0.5,0.0,0.25,0.25,0.33,0.77,2.33,786.18,-23.5,60.5
1.14,1.75,0.75,0.25,3.5,0.75,3.0,1.5,6.0,3.75,6.0,6.0,5.5,7.75,-0.11,0.39,1.83,547.63,-1.1,-46.3,8.25,1.5,7.25,4.5,0.0,1.5,1.5,0.0,0.5,1.25,0.0,0.25,0.25,0.77,1.08,2.7,552.27,-24.4,59.4
1.16,0.0,0.5,0.0,2.5,2.5,2.5,1.75,6.5,4.25,7.0,6.5,6.75,7.75,-0.05,0.2,1.02,664.93,-2.8,-53.6,7.0,1.25,6.25,2.0,0.0,1.25,1.0,0.0,1.0,0.0,0.0,0.25,0.5,0.58,0.58,2.83,354.68,-26.4,61.3
1.18,2.0,0.5,0.5,3.5,3.75,4.5,3.0,7.5,5.25,8.25,7.25,7.0,7.75,-0.05,0.14,0.95,821.66,-1.2,-40.2,4.5,0.75,4.0,2.0,0.0,1.25,0.25,0.0,0.5,0.0,0.0,0.0,0.25,0.58,-0.55,2.58,228.56,-24.9,64.7
1.2,2.0,0.5,2.25,3.5,4.75,4.5,3.75,7.5,5.75,8.5,7.5,7.25,8.25,-0.11,0.08,0.95,970.32,0.0,-36.4,2.25,0.5,1.5,1.25,0.0,1.0,0.75,0.25,0.25,0.0,0.0,0.0,0.25,1.02,-0.8,1.39,107.19,-19.5,55.9
1.22,2.0,0.5,2.5,3.75,5.0,4.75,3.75,8.25,5.75,8.75,7.75,7.25,8.5,-0.11,0.08,0.95,1106.87,-0.1,-35.6,1.25,0.75,1.25,1.25,0.0,1.25,0.5,0.0,0.25,0.0,0.0,0.0,0.25,1.14,-1.92,1.45,10.2,-15.8,54.8
1.24,2.0,0.5,2.5,3.5,4.75,4.75,3.75,8.25,5.75,8.75,7.75,7.25,8.5,-0.11,0.08,0.95,1184.85,-0.1,-36.3,0.75,0.75,1.25,0.5,0.25,1.25,0.75,0.0,0.75,0.0,0.25,0.0,0.25,0.7,-0.98,1.45,0.0,-13.2,38.4
1.26,1.0,0.5,2.25,3.5,5.0,4.75,3.75,8.25,5.5,8.5,7.5,6.75,7.75,-0.11,0.08,0.95,1198.08,-0.7,-36.5,1.75,0.75,1.25,1.0,1.0,1.25,1.0,0.75,1.0,0.0,0.25,0.0,0.25,0.14,-0.73,0.64,0.0,-11.9,38.5
1.28,1.0,0.5,2.25,3.75,5.25,5.25,3.75,8.5,5.25,8.5,7.25,6.25,7.5,-0.11,0.08,0.95,1171.35,-1.0,-34.2,2.25,1.5,1.25,0.5,1.25,0.5,0.75,0.0,0.75,0.0,0.25,0.0,0.0,0.08,-0.67,0.83,0.0,-18.2,60.1
1.3,1.75,0.5,2.25,3.75,5.25,5.5,3.75,8.25,5.5,8.0,6.75,6.0,7.25,-0.11,0.08,0.95,1125.77,-0.5,-31.2,2.0,1.5,1.25,2.0,1.25,1.25,1.0,1.0,1.0,1.0,0.25,0.75,1.25,-0.17,-0.48,0.95,33.94,-8.2,17.9
1.32,2.0,0.5,2.5,3.5,5.25,5.75,4.0,8.25,5.25,8.0,6.5,5.5,6.75,-0.11,0.14,0.95,1072.33,-0.4,-28.9,2.0,1.5,1.75,2.0,1.75,1.25,1.0,1.25,1.0,1.0,1.0,0.75,1.5,-0.17,-0.3,1.08,108.76,-8.1,13.8
1.34,2.0,0.5,3.25,3.75,5.25,5.75,4.25,8.5,5.5,7.25,6.25,5.25,6.5,-0.11,0.08,0.95,1024.91,0.3,-26.0,1.75,1.25,1.75,2.0,1.75,1.25,1.0,1.25,1.0,1.25,0.25,0.75,0.0,-0.05,-0.17,1.08,163.6,-9.4,26.6
1.36,2.0,0.5,3.25,3.75,5.25,5.75,4.25,8.5,5.5,7.0,6.0,4.5,6.0,-0.11,0.08,0.95,975.4,0.3,-23.8,2.0,1.5,1.5,2.0,1.75,1.25,1.0,1.25,1.0,1.0,1.5,0.75,1.0,-0.11,0.02,1.14,208.77,-8.4,14.3
1.38,2.0,0.5,3.25,3.75,5.5,6.25,4.25,8.75,5.5,7.0,6.0,4.0,5.5,-0.11,0.08,0.95,934.83,0.1,-21.6,2.25,1.5,1.5,2.0,1.75,1.25,1.0,1.25,1.0,1.0,1.25,0.75,1.25,-0.17,0.14,1.33,233.91,-8.4,14.8
1.4,1.75,0.5,3.25,3.75,5.5,6.75,4.25,8.75,5.25,6.25,5.75,3.75,5.0,-0.11,0.08,0.95,895.78,0.0,-19.5,1.75,1.5,1.75,2.0,2.25,1.25,1.0,1.0,1.0,1.0,1.5,0.75,1.25,-0.11,0.27,1.45,252.97,-8.1,14.1
1.42,2.0,0.5,3.25,4.0,5.5,7.0,4.25,8.75,5.5,6.0,5.5,3.25,4.5,-0.11,0.08,0.95,864.55,0.2,-16.5,2.0,1.5,1.5,2.0,1.75,1.25,1.0,1.25,1.0,1.0,1.25,0.75,1.0,-0.05,0.33,1.83,261.33,-8.4,15.6
1.44,2.25,0.5,3.25,4.5,5.5,7.25,4.25,8.75,5.75,5.75,5.25,3.0,3.5,-0.11,0.08,0.95,846.11,0.7,-12.7,1.0,1.5,1.5,2.0,1.75,1.25,1.0,0.0,1.0,1.0,0.0,0.5,0.25,0.02,0.58,2.14,249.58,-10.0,33.8
1.46,2.25,0.75,3.25,5.25,5.75,7.5,4.5,9.0,5.75,5.5,5.25,2.75,3.25,-0.11,0.08,0.95,850.28,0.9,-9.7,0.5,0.5,1.0,1.5,1.0,1.25,0.75,0.0,1.0,1.0,0.0,0.75,0.0,0.14,0.95,2.64,213.96,-8.1,18.5
1.48,2.25,1.0,3.25,5.5,7.25,7.75,4.75,9.25,6.25,5.0,5.25,2.5,3.25,-0.11,0.08,0.95,881.22,1.0,-6.3,2.0,1.5,1.5,2.0,2.25,1.25,1.0,1.0,1.0,1.0,0.5,0.0,1.0,0.27,2.02,2.83,208.53,-8.2,27.9
1.5,2.75,1.5,3.75,6.0,7.5,8.25,5.0,9.0,6.5,4.25,5.25,2.25,3.0,-0.11,0.08,0.95,929.57,2.0,-1.3,2.0,1.25,1.25,2.0,2.25,1.25,1.0,0.75,1.0,1.0,0.75,0.75,1.25,0.27,2.58,2.39,209.99,-7.8,17.3
1.52,5.25,2.0,5.25,9.25,9.75,9.0,5.5,8.25,6.25,4.25,4.0,1.75,2.25,-0.11,0.08,0.95,1040.82,4.5,12.9,1.75,1.25,1.5,2.0,2.25,1.25,1.0,1.25,1.0,1.0,1.25,0.75,1.25,0.33,4.33,1.52,226.05,-7.2,12.6
1.54,7.0,2.0,6.75,13.0,11.5,9.25,5.5,7.5,5.25,4.0,3.5,1.25,1.5,-0.11,0.14,0.95,1194.25,6.4,23.2,1.75,1.5,1.5,2.0,1.75,1.25,1.5,1.25,0.5,0.0,0.25,0.0,0.75,-1.05,5.33,-2.42,220.69,-10.2,38.9
1.56,8.25,2.0,8.25,15.0,13.5,9.25,5.5,6.75,3.75,3.5,3.5,1.5,1.5,-0.05,0.14,1.02,1354.76,7.7,28.6,1.75,1.5,1.25,2.0,1.0,1.25,1.0,1.0,1.0,1.5,1.0,1.5,1.25,-3.55,5.95,-0.67,226.33,-7.4,3.5
1.58,9.5,2.0,9.0,15.0,14.0,9.0,4.25,5.5,3.0,2.25,3.5,1.25,1.5,-0.11,0.14,1.27,1443.24,8.9,33.9,0.5,0.5,0.5,0.0,1.75,1.25,1.0,0.0,0.5,0.75,0.0,2.25,3.25,0.27,0.95,2.02,204.59,0.6,-33.2
1.6,11.5,2.5,10.0,15.0,14.5,8.0,3.0,5.0,2.25,2.25,3.25,1.25,1.25,-0.23,0.2,1.39,1505.46,10.2,38.3,1.75,0.75,0.5,0.0,1.5,1.5,1.25,1.0,1.0,3.75,1.0,5.75,6.0,-0.17,0.58,2.33,246.52,0.7,-52.0
1.62,12.5,3.5,11.0,13.5,13.5,6.75,1.5,3.5,2.25,1.25,3.25,1.0,1.25,-0.3,0.27,1.52,1506.6,12.2,43.2,1.75,0.0,1.25,1.5,2.25,1.25,1.0,1.5,1.5,6.75,3.25,7.0,8.0,0.2,0.64,1.27,333.4,0.4,-54.5
1.64,12.5,3.5,10.0,11.5,9.0,5.75,0.0,3.5,2.0,2.0,3.25,1.0,1.25,-0.36,0.45,1.95,1433.17,12.8,40.9,1.25,1.5,1.25,1.25,2.25,3.25,1.0,4.0,2.25,7.75,4.5,7.5,8.25,0.2,0.7,2.64,490.96,2.0,-48.7
1.66,11.5,2.0,10.0,8.5,7.75,4.5,0.25,3.5,2.0,2.25,3.0,1.0,1.25,-0.67,0.58,1.95,1300.36,13.3,37.3,1.75,0.5,1.5,0.0,2.25,3.75,1.0,4.25,3.5,7.5,5.75,6.75,8.0,0.08,0.27,1.27,639.01,1.9,-51.0
1.68,9.5,1.75,8.0,6.0,6.75,3.5,0.75,2.5,2.0,2.0,3.0,1.0,1.25,-0.98,0.95,2.89,1056.99,13.2,34.3,2.5,1.5,1.25,2.0,1.75,3.75,1.0,6.0,4.25,8.5,7.25,7.75,8.25,0.08,0.27,1.02,803.54,0.7,-45.6
1.7,7.75,0.5,6.5,3.75,5.5,1.5,0.75,2.5,1.5,1.25,2.5,1.0,0.25,-0.92,0.58,2.83,777.93,14.9,34.5,2.75,1.5,2.0,2.0,3.75,3.75,1.75,6.75,4.5,8.75,8.0,7.75,8.5,0.08,0.2,0.95,940.68,0.1,-40.2
1.72,5.5,0.5,3.0,1.5,5.25,1.0,1.25,3.5,1.5,0.25,2.5,0.5,1.25,-0.61,-0.3,3.33,524.3,10.1,22.5,2.5,1.5,2.5,2.0,4.25,4.0,2.0,6.75,4.75,8.75,8.25,7.75,8.5,0.08,0.14,0.95,1046.49,0.0,-38.7
1.74,2.25,0.0,1.5,0.0,0.5,1.0,1.0,1.75,1.5,0.75,2.0,0.25,0.0,-0.3,-0.73,1.39,291.21,10.5,1.7,2.0,1.5,2.75,2.0,4.5,5.0,1.75,7.0,4.75,8.5,8.0,7.0,8.25,0.08,0.14,0.95,1115.56,0.5,-36.5
1.76,1.75,0.25,1.75,2.5,0.75,1.0,0.75,1.5,2.0,2.0,2.0,1.5,0.0,-1.05,-1.48,1.89,174.12,9.3,-3.4,2.0,1.5,2.75,2.0,4.75,5.0,2.0,7.25,4.5,8.0,7.75,6.25,8.0,0.14,0.14,0.95,1135.36,0.5,-34.3
1.78,2.0,0.5,0.75,3.75,0.0,1.0,1.25,1.0,1.5,1.25,2.0,0.25,0.0,-0.48,-1.11,1.58,75.94,11.7,13.2,2.0,1.5,2.5,2.0,4.75,5.25,1.75,7.0,4.25,7.75,7.25,5.75,7.25,0.14,0.14,0.95,1100.77,0.8,-32.4
1.8,1.75,0.5,0.75,3.25,0.75,2.0,1.5,1.5,1.75,1.25,1.5,1.0,0.0,-0.36,-0.8,0.58,52.04,7.7,8.8,2.0,1.75,2.75,2.0,5.25,5.5,1.75,7.25,4.25,7.25,6.5,4.75,6.5,0.14,0.14,0.95,1031.52,0.7,-26.9
1.82,1.75,0.25,1.0,1.5,0.0,0.75,1.5,1.5,1.25,0.0,1.75,0.25,0.0,-0.36,-0.67,0.27,21.18,13.6,11.5,2.25,1.5,2.75,2.25,5.5,5.5,1.75,7.0,4.25,6.75,5.25,4.0,5.75,0.14,0.14,0.95,949.71,0.6,-22.2
1.84,2.0,0.5,2.0,3.5,1.75,2.0,2.0,1.5,1.5,1.75,3.25,1.0,1.25,-0.3,-0.61,0.45,83.3,8.0,1.5,2.0,1.5,2.75,2.75,5.5,5.75,2.0,7.0,4.25,6.5,5.25,3.5,4.75,0.08,0.14,0.95,862.84,0.3,-18.8
1.86,2.25,0.5,2.25,3.5,1.75,1.5,2.25,1.5,1.75,1.25,3.0,1.25,1.25,-0.17,-0.48,0.77,140.56,9.9,3.4,2.25,1.75,3.25,3.0,5.5,5.75,2.5,7.25,4.25,6.25,4.75,3.0,4.5,0.08,0.14,0.95,806.86,-0.2,-14.4
1.88,2.0,0.5,2.0,3.5,1.25,1.75,2.0,1.75,1.5,1.25,2.75,1.0,1.25,-0.17,-0.36,1.02,199.49,8.8,2.8,2.75,1.75,3.5,3.0,5.5,5.75,2.5,7.25,4.25,6.0,5.0,2.5,3.75,0.08,0.14,0.95,774.08,-1.0,-10.7
1.9,2.0,0.5,1.5,3.5,1.75,2.0,2.25,1.5,1.5,1.25,3.0,0.75,1.25,-0.17,-0.23,1.08,237.78,7.9,4.1,3.0,1.75,3.0,3.25,5.5,5.75,2.5,7.25,4.75,5.5,4.75,2.25,3.0,0.08,0.14,0.95,750.41,-1.3,-8.0
1.92,2.25,0.5,1.0,3.5,1.75,1.75,2.0,1.5,1.5,1.25,3.0,1.0,1.25,-0.11,0.02,1.14,265.2,7.7,2.0,3.0,1.75,4.0,3.75,5.5,5.75,2.75,7.25,5.25,5.5,4.75,2.25,2.75,0.08,0.14,0.95,742.76,-2.4,-5.7
1.94,2.0,0.5,1.75,3.5,2.25,1.75,2.25,1.5,1.5,1.25,2.75,1.0,1.25,-0.11,0.14,1.33,285.14,8.3,5.3,3.0,1.75,4.0,4.5,6.25,6.0,3.0,7.0,5.75,5.25,4.75,2.25,3.25,0.08,0.14,0.95,763.07,-2.6,-4.4
1.96,2.0,0.5,1.75,3.5,0.75,1.5,2.25,1.5,1.5,1.25,2.75,1.0,1.25,-0.23,0.2,1.58,291.03,9.6,0.9,4.5,1.75,4.25,4.5,6.75,6.25,3.0,7.0,6.25,5.0,4.75,2.25,2.5,0.08,0.14,0.95,807.51,-3.7,0.4
1.98,2.0,0.5,1.25,3.5,2.25,1.75,2.0,1.5,1.5,1.25,2.75,1.0,1.25,-0.3,0.39,1.77,300.9,7.4,3.9,5.5,2.0,4.5,5.0,7.25,6.25,3.5,6.75,6.25,4.25,4.75,2.0,2.0,0.08,0.14,0.95,861.35,-5.0,6.3
2.0,2.0,0.5,2.25,3.5,1.25,1.0,2.0,1.5,1.5,1.5,3.0,1.0,1.25,-0.36,0.58,2.39,295.29,10.2,1.1,6.25,2.5,6.0,6.25,7.75,6.5,2.5,7.0,6.25,4.0,4.5,1.75,1.5,0.08,0.14,0.95,935.73,-6.2,12.9
2.02,2.0,0.5,1.25,3.5,1.25,1.25,2.25,1.5,1.5,1.25,3.0,0.0,1.25,-0.61,0.95,2.95,288.69,8.9,5.2,7.5,2.5,6.0,8.25,8.5,6.5,3.25,6.25,5.75,3.0,3.75,1.25,1.5,0.08,0.2,0.95,1007.55,-7.6,20.9
2.04,2.0,0.5,1.5,3.5,0.75,1.5,2.0,1.5,1.5,2.25,3.0,1.0,1.25,-0.73,1.77,3.08,284.33,7.9,-4.4,8.5,2.75,7.25,9.75,8.75,6.5,4.0,5.75,5.25,2.75,3.25,0.75,1.75,0.08,0.2,0.95,1088.38,-9.1,26.6
2.06,2.0,0.5,1.75,3.25,0.75,1.75,2.0,1.5,1.5,1.25,3.0,1.0,1.25,0.02,1.45,0.52,279.72,9.0,-0.4,9.5,3.0,7.5,11.5,9.75,6.5,4.0,4.75,4.25,2.5,3.0,0.75,1.5,0.08,0.2,0.95,1165.35,-10.1,32.5
2.08,2.0,0.5,1.0,3.25,0.75,2.0,2.0,1.5,1.5,1.25,3.0,1.0,1.25,-0.48,4.02,1.58,269.66,7.5,-2.4,10.5,2.5,8.5,12.0,11.0,6.5,2.0,3.5,2.75,2.5,2.5,0.75,1.25,0.08,0.2,0.95,1217.24,-10.8,38.3
2.1,1.75,0.5,1.75,3.5,1.75,1.75,1.75,1.0,1.75,1.25,3.0,0.75,1.25,2.45,7.14,-1.36,271.99,8.7,3.7,11.5,2.25,9.0,0.0,11.5,6.25,2.0,2.25,1.5,2.0,2.5,0.75,1.25,0.02,0.2,1.14,1126.22,-10.9,39.5
2.12,1.75,0.5,1.75,2.75,0.75,1.75,1.5,2.25,1.75,2.5,3.25,1.25,1.25,3.7,5.45,-0.98,278.18,6.1,-11.1,11.5,2.25,9.25,0.0,11.5,5.75,1.0,1.5,1.25,1.5,1.25,0.25,1.25,0.08,0.27,1.2,1002.24,-11.9,47.0
2.14,1.75,0.5,0.5,3.25,2.25,2.0,1.5,1.5,1.75,2.25,3.0,2.5,3.25,-0.48,-0.98,3.7,293.17,3.2,-19.2,11.0,3.0,9.0,9.75,9.25,3.75,0.75,1.25,0.75,0.0,0.75,0.25,0.25,0.2,0.33,1.33,904.94,-16.1,58.8
2.16,2.0,0.5,2.25,2.5,1.75,2.0,1.25,2.0,2.0,3.0,3.25,4.25,4.75,0.7,1.02,0.2,331.47,3.9,-29.0,11.5,3.0,9.0,8.25,8.25,2.75,0.25,1.25,1.0,0.0,0.0,0.0,0.5,0.08,0.33,1.39,819.69,-17.4,61.6
2.18,2.0,0.5,1.25,2.25,0.75,2.5,1.5,3.5,2.25,5.0,4.25,5.75,6.5,0.39,0.39,2.27,402.4,0.5,-45.0,11.5,3.25,8.75,8.25,5.5,2.5,0.0,1.0,1.0,0.0,0.0,0.25,0.5,0.08,0.45,1.58,743.86,-19.1,62.3
2.2,1.0,0.5,1.0,3.5,4.25,3.0,1.5,5.75,3.0,6.5,5.5,6.5,7.75,-0.98,0.64,2.89,545.79,-1.4,-40.7,9.5,2.5,8.25,4.75,2.25,1.5,0.75,0.25,1.0,0.0,0.0,0.25,0.75,0.2,0.64,2.08,609.16,-22.9,62.3
2.22,1.25,0.5,1.0,2.5,3.5,3.0,1.75,6.75,4.25,7.25,6.5,7.0,7.75,0.08,0.2,1.33,694.38,-1.4,-45.1,8.75,2.0,7.25,4.5,0.0,1.25,1.0,1.5,0.75,0.0,0.0,0.0,0.0,0.58,0.95,2.64,468.08,-24.7,64.5
2.24,1.5,0.5,1.25,3.5,3.75,3.75,2.5,7.0,5.25,7.5,7.25,7.0,7.75,-0.11,0.14,1.02,845.71,-0.5,-40.7,7.75,1.5,5.5,2.75,0.0,1.25,0.75,0.0,0.5,0.0,0.25,0.0,0.25,0.64,0.77,2.64,330.07,-26.6,68.3
2.26,2.0,0.5,1.25,3.5,4.75,4.5,3.25,7.5,5.5,7.75,7.5,7.25,7.75,-0.11,0.08,0.95,971.05,-0.4,-37.1,5.5,0.5,2.75,1.5,0.0,1.25,0.0,0.25,0.75,0.0,0.25,0.0,0.0,0.45,0.02,2.89,225.7,-24.2,64.2
2.28,2.0,0.5,1.0,3.5,5.0,4.5,3.75,7.75,5.75,8.25,8.0,7.25,7.75,-0.11,0.08,0.95,1065.85,-0.5,-37.5,3.0,0.75,1.5,1.75,0.0,1.25,0.0,0.0,0.25,0.0,0.0,0.0,0.25,0.52,-0.86,1.83,123.8,-19.7,64.0
2.3,2.0,0.5,3.0,3.5,4.75,4.5,4.25,8.0,5.75,8.25,8.0,7.25,8.0,-0.11,0.08,0.95,1136.57,0.6,-34.9,1.75,0.75,1.25,1.0,0.25,1.25,0.0,0.0,0.5,0.0,0.0,0.0,0.0,0.77,-0.17,2.27,40.93,-16.7,61.4
2.32,2.0,0.5,2.75,3.5,5.25,4.5,4.25,8.25,5.75,8.25,8.0,7.25,8.0,-0.11,0.08,0.95,1181.0,0.4,-34.5,1.5,0.75,1.25,0.75,0.5,1.25,0.75,0.0,0.5,0.0,0.0,0.0,0.25,0.77,-1.55,2.14,0.0,-15.0,52.1
2.34,2.0,0.5,2.75,3.5,4.5,4.5,4.0,8.25,5.75,8.25,8.0,7.0,7.75,-0.11,0.08,0.95,1187.7,0.4,-35.2,0.75,0.75,1.25,1.0,0.0,1.25,0.75,0.0,0.5,0.0,0.0,0.0,0.0,0.27,-0.92,1.08,0.0,-15.7,53.9
2.36,2.0,0.5,1.5,3.5,4.75,4.5,4.0,8.25,5.75,8.25,7.5,7.25,7.75,-0.11,0.08,0.95,1164.36,-0.3,-36.7,1.0,0.75,1.25,0.5,0.5,1.25,0.25,0.0,0.75,0.0,0.0,0.0,0.25,0.2,-0.61,0.39,0.0,-12.6,46.0
2.38,1.0,0.5,1.75,3.5,4.75,4.5,3.75,8.25,5.75,8.25,7.25,6.75,7.75,-0.11,0.08,0.95,1117.32,-0.9,-37.7,0.75,0.75,1.25,0.0,1.25,1.25,0.75,0.0,0.5,0.0,0.75,0.0,0.25,-0.05,-0.48,0.52,0.0,-10.2,34.4
2.4,0.0,0.5,2.25,3.5,4.75,4.5,4.0,8.0,5.75,8.25,7.25,6.25,7.25,-0.11,0.08,0.95,1056.47,-1.0,-37.6,0.75,0.75,1.25,0.0,1.0,1.25,0.75,0.0,0.5,0.0,0.0,0.0,0.0,-0.36,-0.36,0.95,2.65,-11.8,53.1
2.42,1.75,0.5,2.25,3.75,5.0,4.5,4.25,8.0,6.0,7.75,7.25,6.25,6.75,-0.11,0.08,0.95,1006.42,0.3,-32.2,0.25,0.75,1.25,0.0,1.25,1.25,0.75,0.0,0.5,0.0,0.0,0.0,0.25,-0.3,-0.3,1.02,23.54,-8.2,42.7
2.44,2.0,0.5,3.0,3.5,5.0,4.5,4.25,7.75,6.25,7.5,7.25,6.25,6.75,-0.11,0.08,0.95,971.12,1.0,-30.8,0.5,0.75,1.25,0.0,1.0,1.25,1.0,0.0,0.5,0.0,0.0,0.0,0.25,-0.17,-0.17,1.02,47.07,-10.2,44.0
2.46,2.25,0.75,2.75,3.75,5.0,4.5,4.25,7.75,6.25,7.25,7.25,6.0,6.5,-0.11,0.08,0.95,951.35,1.2,-29.0,0.75,0.75,1.25,0.0,1.0,1.25,0.75,0.0,0.25,0.0,0.0,0.0,0.25,-0.23,0.02,1.14,63.48,-10.7,49.9
2.48,2.25,0.5,3.0,3.75,5.25,4.75,4.5,7.5,6.75,7.0,7.25,5.5,6.0,-0.11,0.08,0.95,931.66,1.5,-26.9,0.5,0.5,1.25,0.0,0.25,1.25,0.75,0.0,0.25,0.0,0.0,0.0,0.25,-0.17,0.14,1.39,70.15,-12.0,44.1
2.5,2.5,0.75,3.0,3.75,5.25,5.0,4.75,7.5,7.0,6.5,7.25,5.5,5.5,-0.11,0.08,0.95,920.17,2.0,-24.6,1.0,0.75,0.75,0.0,0.25,1.25,1.0,0.0,0.25,0.0,0.0,0.0,0.0,-0.05,0.27,1.64,75.76,-13.3,58.6
2.52,2.25,0.75,3.5,3.75,4.75,5.5,5.0,7.75,7.25,5.75,7.25,4.5,5.0,-0.11,0.08,0.95,905.33,2.3,-21.9,0.5,0.75,1.0,0.0,1.25,1.25,1.0,0.0,0.25,0.0,0.0,0.0,0.0,-0.05,0.39,1.89,80.68,-9.2,54.4
2.54,2.75,0.75,4.25,4.75,4.75,5.75,5.0,7.5,7.5,5.5,7.0,4.25,4.25,-0.11,0.08,0.95,907.02,3.5,-16.5,0.5,0.75,1.25,0.0,2.25,1.25,1.5,1.25,0.25,0.0,1.0,0.0,0.75,0.14,0.64,2.27,107.56,-4.3,17.9
2.56,3.25,0.75,3.75,5.5,5.25,6.0,5.0,7.5,7.75,5.0,6.5,3.25,3.25,-0.11,0.08,0.95,909.09,3.8,-10.4,0.5,0.5,1.0,1.75,1.0,1.25,1.0,0.0,1.0,1.0,0.0,0.75,0.25,0.27,1.02,2.58,128.13,-8.0,16.2
2.58,3.75,1.25,5.0,5.75,5.0,6.5,5.0,7.5,8.0,4.0,6.0,2.5,3.0,-0.11,0.08,0.95,924.3,5.0,-3.7,2.0,0.75,1.5,0.0,1.75,1.25,1.0,1.0,0.25,0.0,0.75,0.0,0.5,0.58,2.14,2.95,151.47,-9.9,34.3
2.6,5.25,1.75,5.5,7.25,6.75,6.75,5.5,7.5,7.75,3.75,5.5,2.5,2.25,-0.11,0.08,0.95,976.46,6.2,5.3,0.5,0.5,0.75,0.5,0.0,1.25,1.0,0.0,0.5,1.25,0.0,0.5,0.0,0.77,3.02,1.77,140.93,-6.5,9.6
2.62,6.0,2.0,6.25,9.0,7.5,7.0,5.75,6.75,7.25,3.75,4.5,2.25,2.0,-0.11,0.08,0.95,1048.27,7.2,12.2,1.75,1.25,1.25,2.0,2.25,2.0,1.25,0.75,1.0,1.0,0.75,0.0,0.75,0.64,4.45,0.58,174.97,-6.8,27.1
2.64,7.5,2.0,8.25,11.5,9.0,7.25,6.25,6.25,6.75,3.75,4.0,1.75,1.5,-0.05,0.08,0.95,1165.21,8.9,20.9,0.5,0.5,1.25,0.0,1.5,1.25,1.0,0.75,0.5,0.0,1.0,0.75,1.0,-1.55,5.58,-1.8,171.57,-5.3,0.5
2.66,8.75,2.0,10.0,13.5,10.0,7.5,6.25,5.75,5.25,3.5,4.0,1.25,1.5,-0.05,0.08,1.02,1296.17,10.1,27.2,2.0,1.5,1.5,2.0,1.75,1.0,1.0,1.25,0.75,1.25,1.25,0.25,1.25,-3.8,5.7,0.39,207.07,-8.0,16.5
2.68,10.5,2.0,11.5,15.0,12.0,7.0,6.75,5.0,4.5,2.75,3.0,1.0,1.25,-0.05,0.14,1.2,1399.54,11.7,34.9,0.75,0.5,0.5,0.0,0.5,1.25,0.75,0.0,0.75,1.25,1.0,0.75,1.5,0.7,-0.61,0.58,190.8,-2.0,-23.7
2.7,12.0,2.0,12.5,15.0,12.5,5.0,5.75,3.75,3.25,2.75,3.25,1.0,1.25,-0.17,0.14,1.45,1462.14,13.5,38.5,0.0,0.0,0.5,0.0,1.5,1.25,0.5,0.25,0.75,1.25,0.25,2.25,3.75,0.58,0.58,1.58,197.89,4.1,-53.0
2.72,13.5,2.0,13.5,14.0,11.5,5.0,3.0,3.5,2.75,2.75,3.25,1.0,1.25,-0.17,0.27,1.52,1488.35,14.3,40.3,1.75,0.5,0.0,0.0,1.0,1.25,0.0,0.75,0.75,4.5,1.5,5.0,7.5,0.02,0.52,1.14,245.45,3.5,-64.5
2.74,14.0,2.0,13.5,8.5,9.25,3.5,1.25,3.5,2.25,2.0,3.25,1.0,1.25,-0.11,0.27,1.58,1417.06,15.8,40.9,2.25,0.75,1.25,2.0,2.5,1.25,0.75,2.75,1.5,7.25,4.5,7.0,8.5,0.14,0.7,2.52,369.65,0.2,-49.2
2.76,14.0,1.0,11.5,7.25,7.0,1.75,1.5,3.5,1.5,1.25,3.0,1.0,1.25,-0.61,0.58,2.02,1267.78,17.5,41.4,1.25,0.75,1.25,0.0,3.0,1.25,1.0,4.0,2.5,7.75,5.5,7.75,8.0,0.08,0.52,1.83,528.27,1.5,-56.5
2.78,10.0,1.0,10.0,5.75,5.0,2.5,2.25,3.5,1.5,1.25,2.0,0.75,0.5,-0.73,0.83,2.39,1007.78,16.7,40.5,2.0,1.25,0.0,3.25,1.75,3.0,1.0,5.25,3.0,7.5,6.25,6.5,8.5,0.14,0.27,1.02,692.26,1.6,-46.7
2.8,8.0,1.0,9.0,5.75,2.25,2.25,2.0,3.25,2.0,2.0,3.25,0.75,1.25,-0.98,0.83,2.89,787.33,15.9,27.9,2.25,1.5,1.0,2.0,1.75,3.75,0.75,6.0,3.5,8.25,7.0,7.25,8.25,0.08,0.2,0.95,825.69,1.4,-46.2
2.82,6.25,0.5,6.5,4.75,1.25,2.0,1.25,3.0,2.0,1.5,2.0,1.0,0.75,-0.86,0.58,3.2,572.08,15.3,25.8,2.25,1.5,1.5,2.0,3.75,3.75,1.0,6.25,3.25,8.25,7.0,7.0,8.5,0.14,0.14,0.95,920.18,1.2,-40.9
2.84,4.5,0.5,4.75,3.5,1.25,2.25,1.0,3.0,2.25,1.25,2.0,1.0,0.25,-0.42,-0.92,2.39,404.19,12.9,20.6,2.0,1.5,1.5,2.0,2.5,4.25,0.75,6.5,3.0,8.25,6.75,7.0,8.5,0.14,0.14,0.89,966.8,1.8,-43.4
2.86,3.25,0.5,3.75,3.75,3.0,1.0,2.0,2.5,1.5,0.75,3.0,0.5,1.25,-1.05,-0.8,2.7,304.23,11.8,16.4,2.0,1.5,1.5,2.0,3.5,4.75,1.0,7.0,3.0,8.5,6.75,6.75,8.5,0.14,0.14,0.95,996.04,2.2,-40.4
2.88,2.75,0.5,2.5,3.75,1.25,2.0,2.25,1.75,2.0,1.25,3.0,1.0,1.25,-0.98,-1.11,1.83,245.23,10.2,6.2,2.0,1.5,1.5,2.0,3.75,5.0,1.0,6.75,3.0,8.25,6.75,6.5,8.25,0.14,0.2,0.95,1008.26,2.1,-38.8
2.9,2.5,0.5,2.5,3.5,2.25,2.0,2.25,1.5,2.0,1.25,3.25,1.0,1.25,-0.55,-0.67,0.39,214.49,9.5,6.6,2.0,1.5,1.5,2.0,3.5,4.75,1.0,7.0,3.0,8.25,6.25,6.25,8.25,0.08,0.14,0.95,987.6,2.3,-39.0
2.92,2.5,0.5,3.0,3.75,3.0,2.0,2.25,1.5,1.75,1.25,2.75,1.0,1.25,-0.55,-0.61,0.2,211.66,9.7,11.8,1.75,1.5,1.5,2.0,3.5,5.0,0.75,7.0,3.0,8.0,6.25,6.0,8.0,0.14,0.14,0.89,956.73,2.5,-38.6
2.94,2.25,0.5,2.5,3.5,3.5,1.75,2.25,1.5,1.75,1.25,3.0,1.0,1.25,-0.36,-0.55,0.27,225.18,8.8,9.4,1.75,1.5,1.5,2.0,4.5,5.5,1.0,7.25,3.0,8.0,5.5,5.75,8.0,0.08,0.14,0.95,912.7,2.9,-35.1
2.96,2.0,0.5,1.75,3.5,3.0,2.0,2.0,1.5,1.75,1.5,3.0,1.0,1.25,-0.3,-0.55,0.58,238.63,7.2,5.1,1.75,1.5,1.75,2.0,4.75,5.75,1.5,7.5,3.0,7.75,5.5,4.75,7.0,0.14,0.14,0.89,855.01,2.7,-30.6
2.98,1.75,0.25,2.75,1.0,0.5,0.25,1.25,1.25,1.5,1.25,1.75,0.0,0.0,-0.3,-0.48,0.83,212.0,15.1,11.3,2.0,1.75,1.75,2.0,5.5,6.25,1.5,7.75,3.25,7.25,5.0,4.25,6.75,0.14,0.14,0.89,815.45,2.7,-25.7
3.0,2.0,0.5,2.5,3.5,1.25,1.75,2.25,1.5,1.75,0.5,3.0,0.0,1.25,-0.3,-0.3,0.83,218.67,10.9,11.7,2.0,1.75,2.25,2.5,5.5,6.5,1.0,8.0,3.5,6.75,4.75,3.5,6.0,0.14,0.14,0.95,794.36,2.3,-21.1
3.02,2.0,0.5,0.25,3.5,0.0,0.75,2.0,1.5,1.5,1.0,3.0,0.0,0.0,-0.3,-0.17,0.89,198.55,11.3,6.8,2.25,1.75,2.75,3.25,5.5,7.0,2.0,8.25,3.5,6.5,4.0,2.25,4.75,0.14,0.14,0.95,779.49,1.5,-12.6
3.04,1.25,0.25,1.0,1.0,0.0,0.25,1.5,0.5,1.5,1.25,2.0,0.0,0.0,-0.3,-0.05,1.02,170.96,13.5,-2.7,2.0,1.75,2.75,4.0,7.0,7.5,1.5,8.25,3.5,6.0,3.5,2.25,4.0,0.14,0.14,0.95,777.87,1.6,-7.1
3.06,1.0,0.25,1.0,1.0,0.0,0.25,1.5,0.5,1.5,1.25,2.5,0.25,1.25,-0.3,0.02,1.2,147.88,9.8,-22.2,2.5,1.75,3.25,4.5,7.25,7.75,1.5,8.5,3.5,5.5,3.25,1.25,3.25,0.14,0.14,0.95,785.78,0.8,-0.3
3.08,1.25,0.0,1.0,1.0,2.5,0.25,2.5,1.75,1.5,1.25,3.0,0.0,1.0,-0.36,0.14,1.45,156.41,6.7,-7.4,3.0,2.25,3.5,4.5,8.0,8.0,1.75,8.5,3.25,4.75,2.5,1.0,2.5,0.14,0.14,0.95,798.8,0.1,7.2
3.1,1.25,0.0,0.75,1.0,0.0,0.75,1.25,1.25,1.5,1.25,2.5,0.25,1.0,-0.48,0.33,1.89,147.77,6.9,-21.7,3.0,2.5,4.0,6.25,8.75,8.5,1.25,8.25,3.0,4.25,2.5,0.75,2.0,0.14,0.14,0.95,824.36,-0.6,13.4
3.12,2.0,0.5,1.75,3.5,1.25,1.0,2.0,1.75,1.5,1.25,2.75,1.0,1.25,-0.61,0.52,2.33,189.13,9.5,1.0,3.25,3.0,4.0,8.0,9.75,9.0,1.5,8.25,2.25,4.0,2.25,0.75,2.0,0.14,0.14,0.95,874.59,-1.1,18.3
3.14,1.0,0.0,1.0,1.0,0.75,0.0,2.25,1.0,1.5,0.75,1.25,0.0,0.0,-0.98,0.95,3.02,173.63,13.2,4.9,4.5,3.0,4.0,9.25,11.5,9.5,1.0,7.75,1.5,3.5,2.25,0.75,2.0,0.14,0.2,0.95,945.09,-1.8,23.8
3.16,2.0,0.5,1.75,3.5,0.5,1.5,2.0,1.5,1.5,1.25,2.75,1.0,1.25,1.02,5.33,4.83,207.45,9.7,0.0,5.25,3.25,4.0,11.5,13.5,10.5,0.0,7.25,1.0,2.75,1.5,0.75,1.75,0.08,0.2,0.95,1035.68,-2.2,31.0
3.18,2.0,0.5,1.0,3.5,0.0,1.5,1.75,1.0,1.5,1.25,2.5,1.0,1.25,-0.86,3.52,2.45,216.4,9.4,-2.4,5.75,2.0,4.0,7.0,14.5,9.25,0.0,6.0,0.75,1.0,1.0,0.0,1.25,0.08,0.2,1.02,1027.08,-2.3,37.6
3.2,2.0,0.5,1.0,3.25,1.75,1.25,1.5,1.5,1.5,1.25,2.5,1.0,1.0,-0.48,4.83,1.64,247.28,7.9,2.4,0.0,3.25,3.5,11.0,14.0,10.0,0.0,4.25,0.25,1.0,0.25,0.0,0.5,0.02,0.2,1.14,971.51,-0.4,41.3
3.22,1.0,0.0,1.75,1.0,0.75,1.0,1.75,2.25,1.5,0.5,2.0,0.0,0.75,3.27,6.45,-0.86,237.21,7.8,-3.7,8.5,4.0,4.0,11.5,14.5,9.25,0.0,2.75,0.75,0.75,0.25,0.0,0.5,0.08,0.27,1.27,970.08,-6.5,52.1
3.24,1.0,0.0,1.0,1.75,0.75,0.25,1.5,3.25,1.5,1.25,2.25,0.75,1.25,4.33,4.83,0.27,232.16,4.7,-20.9,9.0,4.75,5.0,13.5,14.5,9.5,0.0,1.5,0.75,0.0,1.0,0.75,1.0,0.2,0.27,1.27,1022.88,-8.2,51.9
3.26,2.0,0.5,0.75,3.5,1.25,1.0,1.75,2.5,1.5,2.0,2.25,1.0,1.25,0.89,-0.61,3.02,245.62,6.0,-4.6,9.75,4.75,6.0,11.5,13.5,8.0,0.0,1.25,0.5,0.0,0.25,0.25,0.5,0.2,0.33,1.27,1051.44,-10.0,58.0
3.28,1.0,0.0,0.75,1.0,0.5,1.0,1.25,1.75,1.5,1.25,2.25,1.25,1.5,2.02,0.39,0.52,235.87,4.0,-28.7,9.5,4.75,7.25,10.0,11.5,7.75,0.5,1.0,0.25,0.0,0.25,0.25,0.25,0.2,0.45,1.45,1040.1,-11.3,59.7
3.3,1.25,0.0,0.75,1.0,0.75,1.0,1.0,2.75,1.5,1.75,2.25,2.5,3.25,0.58,0.08,1.64,245.99,1.2,-40.8,9.5,4.75,6.75,8.25,8.75,6.25,1.5,1.0,0.25,0.0,0.75,0.0,0.5,0.27,0.83,2.08,957.71,-12.9,59.2
3.32,1.25,0.25,0.75,1.0,0.5,1.25,1.25,5.5,2.0,3.75,3.5,4.25,5.5,-1.8,0.52,3.02,293.44,-1.6,-52.4,8.75,3.25,6.25,6.25,6.5,5.25,2.0,0.5,0.25,0.0,0.0,0.0,1.0,0.45,1.33,3.08,804.56,-14.1,59.3
3.34,0.5,0.5,0.5,1.0,0.5,2.0,1.0,6.0,2.5,5.5,4.0,5.0,5.25,-0.48,0.33,0.83,372.25,-3.3,-55.7,7.5,2.5,3.0,4.5,5.0,3.75,1.0,0.5,0.25,0.0,0.0,0.0,0.25,0.45,1.14,3.14,601.88,-13.5,63.4
3.36,0.75,0.5,0.0,2.0,3.75,3.5,2.0,7.25,3.75,7.0,5.25,6.25,7.0,-0.17,0.27,0.95,521.63,-3.4,-45.4,4.25,1.0,1.25,0.5,0.0,2.75,0.0,0.0,0.25,0.0,0.0,0.0,0.0,0.39,0.39,3.83,354.48,-15.9,70.2
3.38,1.75,0.5,0.0,3.5,3.0,4.5,2.5,7.75,4.5,7.5,6.75,7.0,7.75,-0.05,0.14,1.02,711.86,-2.0,-42.6,1.0,0.75,0.0,1.5,2.25,0.0,0.0,0.0,0.25,0.0,0.25,0.0,0.0,0.77,-2.36,3.2,193.12,-10.4,58.1
3.4,1.0,0.5,1.5,3.5,4.75,4.5,2.5,8.25,4.75,8.25,7.0,7.5,8.0,-0.11,0.08,0.95,891.82,-1.6,-39.8,1.25,0.75,1.25,1.5,2.5,1.25,0.0,0.5,0.25,0.0,0.25,0.0,0.25,0.39,-2.61,2.45,75.7,-8.3,47.4
3.42,1.0,0.5,1.25,3.5,4.25,4.5,1.75,8.25,5.0,8.25,7.75,7.75,8.25,-0.11,0.08,0.95,1027.29,-1.7,-42.4,0.75,0.75,1.25,1.5,2.25,1.25,0.0,0.0,0.25,0.0,0.0,0.0,0.25,0.33,-1.11,1.95,13.43,-8.6,52.9
3.44,0.0,0.75,1.5,3.75,3.75,4.75,0.0,8.25,5.0,8.25,7.5,7.5,8.0,-0.11,0.08,0.95,1098.48,-2.6,-44.1,0.5,0.75,1.0,1.25,1.75,0.0,0.0,0.0,0.25,0.0,0.0,0.0,0.0,0.64,-0.98,0.58,0.0,-14.4,61.4
3.46,0.0,0.5,2.0,3.5,5.5,4.75,1.0,8.0,5.25,8.5,7.5,7.75,8.5,-0.11,0.08,0.95,1145.66,-2.1,-41.4,0.5,0.75,1.0,0.75,1.75,1.25,0.25,0.0,0.25,0.0,0.0,0.0,0.25,0.89,-0.61,0.52,0.0,-7.0,50.0
3.48,0.75,0.5,1.75,3.5,3.75,4.5,1.75,8.0,5.25,8.25,7.25,8.0,8.75,-0.11,0.08,0.95,1146.72,-1.6,-43.6,1.0,0.75,0.5,0.75,1.75,1.25,0.0,0.0,0.25,0.0,0.25,0.0,0.0,1.02,-0.3,0.52,0.0,-7.0,54.5
3.5,0.5,0.5,2.0,3.5,4.75,4.5,2.0,7.75,5.0,8.25,7.25,8.0,8.5,-0.11,0.08,0.95,1142.18,-1.4,-41.5,0.5,0.75,0.5,0.25,1.75,1.25,0.25,0.0,0.25,0.0,0.0,0.0,0.0,1.14,0.2,0.52,0.0,-4.2,55.6
3.52,1.75,0.5,1.75,3.5,4.75,4.5,1.75,7.5,5.25,8.25,7.25,7.75,8.5,-0.11,0.08,0.95,1128.25,-0.9,-39.2,0.5,0.75,0.5,0.5,1.75,1.25,0.5,0.0,0.25,0.0,0.0,0.0,0.0,1.14,0.45,0.52,0.0,-5.3,55.2
3.54,2.0,0.5,1.75,3.5,5.25,4.5,1.5,7.75,5.25,8.25,7.25,7.75,8.5,-0.11,0.08,0.95,1101.63,-0.9,-38.0,0.5,0.75,0.0,1.25,1.75,1.5,0.5,0.25,0.25,0.0,0.0,0.0,0.0,1.2,0.58,0.83,17.25,-2.3,50.8
3.56,1.75,0.5,1.75,3.5,4.75,4.5,2.25,7.5,5.5,8.0,7.5,7.5,7.75,-0.11,0.08,0.95,1056.48,-0.5,-37.8,0.75,0.75,0.0,0.25,1.75,1.25,0.5,0.25,0.25,0.0,0.0,0.0,0.0,1.45,0.83,1.52,46.41,-2.0,52.1
3.58,1.5,0.5,2.0,3.5,4.75,4.5,2.25,7.5,5.75,7.25,7.5,7.25,7.25,-0.11,0.08,0.95,1011.0,-0.2,-36.5,1.75,0.5,0.0,0.0,1.75,1.25,0.25,0.0,0.25,0.0,0.0,0.0,0.0,1.58,1.39,1.89,72.64,-6.4,61.7
3.6,2.0,0.75,2.25,3.5,5.0,4.75,3.0,7.5,6.25,7.0,7.25,6.5,6.5,-0.17,0.08,0.95,961.36,0.5,-31.3,0.5,0.5,0.0,0.0,1.75,1.25,0.5,0.0,0.0,0.0,0.25,0.0,0.0,1.58,2.2,1.83,84.22,0.1,50.0
3.62,2.0,1.0,3.0,3.5,5.25,5.5,2.75,7.0,6.25,5.5,7.25,5.75,5.5,-0.11,0.08,0.95,914.28,1.4,-24.9,0.5,0.75,0.0,0.0,1.75,1.25,0.25,0.0,0.25,0.0,0.25,0.0,0.0,0.27,3.33,1.89,81.66,-0.3,48.7
3.64,4.75,1.75,3.25,3.75,5.25,5.75,4.0,6.75,6.75,5.0,6.0,4.75,4.25,-0.11,0.08,0.95,898.34,3.7,-12.0,0.5,0.75,0.25,0.0,1.75,1.25,0.25,0.0,0.0,0.0,0.0,0.0,0.0,-0.86,3.64,1.83,75.22,-1.2,60.0
3.66,7.0,2.0,3.5,3.75,5.25,5.75,4.75,6.25,6.75,4.0,6.0,3.25,3.25,-0.11,0.08,0.95,894.27,5.8,-1.6,0.5,0.75,0.0,0.0,1.75,1.25,0.5,0.0,0.0,0.0,0.0,0.0,0.25,-1.05,3.39,1.7,77.29,0.6,50.4
3.68,8.75,2.0,3.75,4.5,5.25,5.75,3.0,5.75,6.25,3.75,5.25,2.5,2.25,-0.11,0.08,1.02,891.99,7.1,7.0,0.75,0.75,0.5,0.0,1.75,1.25,0.5,0.0,0.25,0.0,0.25,0.0,0.0,-0.8,3.14,0.7,84.28,-5.6,51.3
3.7,10.0,3.5,5.25,4.75,5.25,5.75,3.0,5.0,5.25,3.5,4.5,1.25,1.5,-0.17,0.08,1.08,892.12,9.2,20.0,0.5,0.75,0.25,0.0,1.75,1.25,0.25,0.25,0.25,0.0,0.0,0.0,0.0,-0.36,2.89,0.14,85.86,-0.9,50.8
3.72,0.0,3.75,5.5,4.75,5.5,5.75,3.0,4.5,4.5,2.75,3.0,1.25,1.5,-0.11,0.14,1.14,805.49,4.6,11.1,0.5,0.5,0.25,0.0,1.75,1.25,0.0,0.0,0.25,0.0,0.25,0.0,0.25,-0.3,2.52,-0.11,86.92,-0.2,39.4
3.74,0.0,5.0,7.5,5.5,5.25,5.0,1.0,3.5,4.0,2.5,3.75,1.25,1.5,-0.05,0.2,1.27,737.65,7.0,16.3,3.0,1.5,0.75,2.0,1.75,1.25,0.75,0.0,1.0,1.5,0.25,0.75,0.0,-0.8,1.83,0.7,133.84,-11.1,35.2
3.76,11.5,5.0,8.0,5.5,5.5,4.5,0.25,3.25,3.5,3.0,3.0,1.25,0.75,-0.11,0.2,1.33,748.69,12.9,35.4,3.0,1.5,1.25,2.0,2.25,1.5,1.0,1.25,0.5,1.0,1.0,0.75,1.5,0.14,-2.67,1.64,190.94,-7.8,19.7
3.78,11.5,5.0,7.75,4.75,5.25,2.25,0.0,3.0,3.0,2.75,3.25,1.0,1.0,-0.05,0.2,1.33,762.57,14.4,36.0,1.5,0.5,0.5,0.0,1.5,1.25,0.0,0.25,0.25,1.0,0.0,0.5,1.25,0.33,0.39,-0.05,197.16,-1.4,7.1
3.8,11.5,5.0,6.75,6.0,5.0,3.75,0.0,3.5,2.25,2.5,2.75,1.0,1.25,0.08,0.27,1.27,793.03,12.8,37.1,3.0,1.5,1.25,2.0,2.75,1.5,1.0,1.25,0.75,2.75,0.75,0.75,3.25,2.39,0.95,1.27,246.57,-3.9,3.1
3.82,9.0,5.0,4.75,6.0,2.25,3.5,0.0,2.75,1.5,1.25,3.25,1.0,1.25,0.02,0.33,1.27,736.17,13.1,36.1,3.5,1.5,1.25,2.0,3.0,2.25,0.5,1.25,0.75,3.75,1.25,0.75,3.5,2.08,0.58,-0.11,286.89,-2.6,0.3
3.84,7.75,3.5,1.0,5.5,0.75,2.25,0.0,1.75,1.5,1.25,2.25,1.0,0.25,-0.11,0.52,1.2,592.54,13.4,37.1,2.5,1.25,1.25,2.0,3.75,2.75,0.0,1.75,1.0,3.75,1.5,0.75,3.5,1.39,0.27,0.64,336.62,-0.2,-3.8
3.86,7.75,3.5,0.0,5.5,1.25,3.5,0.0,3.25,2.0,2.25,1.25,1.0,0.75,-0.23,0.64,1.27,476.38,8.2,29.2,2.0,0.75,1.25,2.0,2.75,3.0,0.0,2.75,0.75,3.75,1.25,0.75,3.0,1.27,0.33,0.52,357.97,1.3,-8.4
3.88,7.0,3.5,0.0,4.0,1.25,3.5,0.0,3.0,1.75,2.0,3.0,1.0,1.25,-0.05,0.58,1.14,396.69,7.3,20.1,2.0,1.25,1.25,2.0,3.75,3.25,0.0,2.5,0.25,3.75,0.75,0.75,3.25,1.33,0.39,0.64,376.4,1.8,-1.8
3.9,5.5,2.0,0.0,1.75,1.25,2.5,0.25,3.25,1.75,1.25,3.0,1.0,1.25,0.7,-0.48,1.58,337.06,6.2,8.9,2.0,1.25,1.25,2.0,3.0,3.5,0.0,2.5,0.25,3.0,1.25,0.75,3.5,0.7,0.27,1.02,371.47,1.4,-3.8
3.92,2.75,1.0,0.5,3.5,0.0,2.25,1.25,2.5,1.75,1.5,3.25,1.0,1.25,2.2,-1.73,2.45,286.44,6.3,-3.6,2.0,0.75,1.25,1.75,3.25,2.75,0.0,2.5,0.0,1.25,0.0,0.5,1.5,0.83,0.27,0.77,337.13,-0.3,17.7
3.94,2.25,1.25,0.75,3.5,0.5,2.25,1.25,1.75,1.75,1.25,3.0,1.0,1.25,-0.3,-1.23,2.95,253.78,6.9,0.6,2.0,0.0,0.0,0.0,2.25,1.25,0.0,1.0,0.25,0.0,0.5,0.0,1.25,1.58,0.08,0.77,270.44,-0.4,15.7
3.96,2.0,0.75,1.0,3.5,1.25,1.75,1.0,2.5,1.75,1.25,1.5,1.0,1.25,0.52,-0.05,2.27,228.59,5.8,3.1,1.0,0.0,0.0,0.0,1.75,1.25,0.0,0.0,0.25,0.0,0.0,0.0,0.5,2.89,0.52,2.2,191.44,1.0,35.4
3.98,2.0,0.5,1.0,3.5,0.75,1.5,1.0,2.5,1.75,1.25,2.5,1.0,0.5,0.64,0.64,1.95,204.05,7.3,0.5,1.25,0.0,0.0,0.0,1.75,1.25,0.0,0.25,0.25,0.0,0.0,0.0,0.0,0.58,-0.55,0.89,113.43,-1.2,50.0
4.0,2.0,0.5,1.0,3.5,0.75,1.75,1.5,2.75,1.75,1.25,3.0,1.0,1.25,1.08,1.02,2.08,202.66,6.3,-4.9,2.0,0.0,0.0,0.25,1.75,2.25,0.0,0.0,1.0,1.25,0.0,0.25,0.75,3.39,-0.36,0.52,87.83,0.1,14.0
4.02,2.0,0.5,1.0,3.25,0.75,1.75,1.5,2.5,1.75,1.25,2.75,1.0,1.0,1.45,1.45,2.7,212.58,6.6,-3.2,2.0,0.0,1.25,0.5,2.25,2.75,1.0,1.25,1.0,1.0,0.25,0.75,0.5,3.02,-0.48,1.08,112.13,-3.4,15.1
4.04,2.0,0.75,1.0,2.5,1.25,2.0,1.5,2.5,2.0,1.25,2.5,1.0,1.25,1.64,1.64,2.83,226.74,5.5,-3.1,2.75,0.75,1.25,1.0,2.75,2.75,1.0,1.0,1.0,1.25,1.25,0.75,1.5,2.27,-0.55,1.58,156.99,-4.6,12.0
4.06,2.0,0.5,1.0,2.5,1.25,2.25,1.5,3.0,2.0,1.5,2.75,0.5,1.25,1.64,2.58,2.33,245.63,4.3,-3.9,2.75,0.75,1.25,0.5,3.5,1.25,1.0,1.25,0.25,0.0,1.25,0.0,1.0,2.39,-0.05,1.02,184.79,-7.8,30.4
4.08,2.0,0.75,0.75,2.0,0.75,1.75,1.5,2.25,2.0,1.25,1.0,1.0,1.25,0.95,2.52,1.58,245.85,5.2,-1.7,1.25,0.0,1.25,0.0,2.25,1.25,1.0,0.0,0.25,0.0,0.25,0.0,1.25,1.83,-0.42,1.33,173.21,-6.8,25.4
4.1,2.0,0.5,1.0,2.25,0.75,1.0,1.5,2.5,2.0,1.25,2.75,1.0,1.0,0.7,1.64,0.7,241.17,7.3,-8.5,1.0,0.0,0.25,0.0,2.25,1.25,1.0,0.0,0.25,0.0,0.0,0.0,0.0,0.83,-0.92,1.39,137.87,-4.4,50.9
4.12,2.0,0.5,1.0,2.5,0.75,1.75,1.5,2.75,2.0,1.5,2.25,1.0,1.0,1.08,0.77,1.08,244.71,5.6,-5.6,1.25,0.75,0.0,1.25,1.75,1.25,0.25,0.0,1.0,1.0,0.0,0.0,0.0,-0.11,-0.48,1.27,117.69,-4.6,35.6
4.14,1.25,0.5,1.0,1.0,0.75,2.0,1.5,2.5,2.0,1.25,2.5,1.0,1.25,1.33,0.14,1.39,244.53,3.4,-15.9,1.25,0.0,0.25,0.0,1.75,1.25,0.25,0.0,0.25,0.0,0.0,0.0,0.0,-0.36,-0.11,0.89,95.52,-4.7,54.5
4.16,2.0,0.5,1.0,2.75,0.0,1.75,1.75,2.5,2.0,1.5,3.0,1.0,1.0,1.45,-0.86,0.7,249.59,6.8,-9.4,2.0,0.75,1.25,1.25,2.75,1.5,1.0,0.75,1.0,1.0,0.25,0.75,0.5,-0.67,0.14,0.14,139.15,-7.2,23.7
4.18,2.0,0.5,1.0,2.75,0.75,1.75,1.5,2.25,2.0,1.25,2.75,1.0,1.0,0.95,-2.23,0.45,253.81,6.7,-4.8,2.75,0.75,1.25,0.75,2.5,1.5,1.0,1.25,1.0,1.0,0.75,0.75,0.75,-0.42,0.2,-0.11,181.25,-7.3,18.1
4.2,2.0,0.5,1.0,3.0,0.75,1.75,1.75,2.5,2.0,1.25,2.25,1.0,1.75,0.64,-2.42,0.45,262.37,5.9,-6.5,1.0,0.0,1.25,0.0,2.25,1.25,1.0,1.0,0.25,0.0,0.0,0.0,0.25,0.2,0.14,-0.23,181.56,-5.5,35.8
4.22,2.25,0.5,1.0,2.5,0.75,1.75,1.75,2.5,2.0,1.5,3.0,1.0,1.0,1.14,-2.23,1.02,267.02,6.6,-6.3,1.25,0.0,0.5,0.0,1.75,1.25,0.5,0.0,1.0,1.25,0.0,0.5,0.0,0.83,0.02,-0.55,160.25,-3.9,14.4
4.24,1.0,0.5,1.0,0.75,0.75,0.5,1.75,1.5,1.5,0.75,2.0,0.25,0.0,1.2,-1.48,1.2,236.55,9.6,-0.8,2.0,1.0,1.25,1.75,2.25,1.5,1.0,1.0,0.75,1.25,1.0,0.75,1.0,1.02,-0.42,-0.67,173.39,-6.7,14.7
4.26,1.0,0.5,0.75,1.0,0.5,0.75,1.25,1.0,1.5,1.0,1.25,0.25,0.0,0.2,-0.61,0.89,199.34,8.8,3.1,2.0,0.75,1.25,1.75,2.25,1.5,1.0,1.25,0.75,1.25,1.25,0.75,1.0,0.83,-0.55,-0.36,192.91,-6.3,11.3
4.28,1.0,0.25,0.75,0.75,0.75,0.25,1.5,1.5,1.5,0.5,1.75,0.0,0.25,-0.42,-0.48,0.33,160.21,9.3,-2.5,0.5,0.25,1.5,0.0,2.25,1.25,0.5,0.0,0.25,0.0,0.0,0.0,0.0,0.27,-0.48,-0.3,177.52,-8.2,52.3
4.3,0.75,0.25,0.75,1.0,0.5,0.5,1.5,1.0,1.5,1.25,1.5,1.0,0.0,-0.67,-0.67,0.08,140.64,8.5,-13.1,2.0,1.0,0.5,1.25,1.5,1.25,0.75,0.0,0.25,0.0,0.5,0.0,0.5,0.14,-0.3,-0.05,174.83,-10.8,46.7
4.32,1.25,0.5,1.0,1.0,0.75,0.5,2.0,2.5,1.5,1.0,2.25,0.25,0.0,-0.73,-0.73,-0.05,146.54,8.0,-3.2,2.0,0.75,1.25,1.75,2.25,1.25,1.0,0.75,0.75,1.0,1.0,0.75,1.25,0.27,-0.48,-0.11,188.57,-7.4,13.3
4.34,1.75,0.5,0.75,2.25,0.75,1.25,1.75,1.75,1.5,1.25,2.0,1.0,0.0,-0.73,-0.73,-0.05,168.82,8.3,1.8,2.0,0.75,1.25,1.75,1.75,1.5,1.0,0.75,0.75,1.25,0.75,0.75,1.25,0.33,-0.8,-0.3,201.66,-6.9,12.0
4.36,1.75,0.5,1.0,2.5,0.75,1.25,2.25,2.5,1.5,1.25,2.5,1.0,1.0,-0.73,-0.55,-0.05,201.6,7.0,-6.0,1.75,0.75,1.25,2.0,2.25,1.25,1.0,1.0,0.75,1.0,1.25,0.5,0.75,0.33,-0.8,-0.17,215.87,-7.5,16.7
4.38,1.75,0.5,1.0,2.0,0.75,1.25,2.25,3.0,1.5,1.25,3.0,1.0,1.0,-0.67,-0.3,-0.05,227.6,6.2,-10.3,0.75,0.0,0.5,0.0,1.0,1.25,0.75,0.0,0.25,0.0,0.0,0.0,0.0,0.27,-0.73,-0.17,179.42,-6.7,48.6
4.4,1.0,0.25,1.0,1.0,0.75,0.25,2.25,2.5,1.5,0.5,2.0,0.25,1.0,-0.55,-0.17,-0.11,221.19,7.4,-11.7,0.5,0.0,1.25,0.0,2.25,1.25,0.75,0.0,0.25,0.0,0.0,0.0,0.0,0.2,-0.61,-0.11,140.71,-7.2,49.4
4.42,1.0,0.25,0.5,1.0,0.5,0.5,1.5,1.5,1.5,0.5,1.25,0.0,0.0,-0.36,-0.11,-0.23,193.85,8.9,3.4,0.5,0.0,0.0,0.0,1.0,1.25,0.75,0.0,0.25,0.0,0.0,0.0,0.0,0.02,-0.42,-0.23,89.28,0.0,43.4
4.44,1.25,0.5,0.75,1.0,0.0,1.25,2.25,1.5,1.5,1.25,1.5,1.0,0.0,-0.23,0.02,-0.42,177.84,8.0,-6.8,0.5,0.0,0.5,0.0,1.0,1.25,0.75,0.0,0.25,0.0,0.5,0.0,0.0,0.02,-0.23,-0.36,69.68,-5.6,32.4
4.46,0.5,0.0,0.75,0.75,0.5,0.25,1.5,1.5,1.25,0.75,1.25,0.25,0.25,-0.05,0.08,-0.61,154.71,7.4,-12.8,0.5,0.0,0.0,0.0,1.25,1.25,0.75,0.0,0.25,0.0,0.0,0.0,0.0,0.02,-0.36,-0.67,46.65,0.2,44.2
4.48,0.75,0.25,1.0,1.0,0.75,0.25,1.75,2.5,1.5,0.5,2.5,0.25,0.25,0.08,0.14,-0.73,161.42,7.8,-10.9,0.5,0.0,0.0,0.0,1.0,1.25,0.75,0.0,0.25,0.0,0.0,0.0,0.0,0.02,-0.55,-0.8,36.37,0.0,43.4
4.5,2.0,0.5,0.75,1.25,0.5,0.5,1.5,1.5,1.25,1.0,1.25,0.0,0.0,0.14,0.14,-0.92,160.13,10.8,13.4,0.5,0.0,0.25,0.0,0.5,1.25,0.75,0.0,0.25,0.0,0.0,0.0,0.0,0.02,-0.61,-0.73,31.49,-3.8,43.0
4.52,0.5,0.0,0.75,1.0,0.5,0.25,1.5,1.5,1.25,0.5,1.25,0.25,0.0,0.08,-0.05,-0.98,149.48,9.0,-5.8,1.0,0.5,0.0,0.0,0.5,1.25,1.0,0.0,0.25,0.0,0.0,0.0,0.0,0.02,-0.61,-0.55,36.53,-7.3,55.2
4.54,0.75,0.0,0.75,0.75,0.5,0.0,1.75,1.5,1.25,0.75,2.0,0.0,0.0,-0.05,-0.17,-1.05,134.31,10.0,-10.2,0.5,0.25,0.0,0.0,1.0,1.25,0.75,0.0,0.25,0.0,0.0,0.0,0.0,-0.05,-0.61,-0.48,32.85,-0.9,47.3
4.56,0.75,0.25,0.5,1.0,0.5,0.0,1.5,1.5,1.25,0.75,1.0,0.0,0.0,-0.17,-0.23,-1.05,118.98,9.1,0.1,0.5,0.5,0.5,0.0,1.25,1.0,1.0,0.0,0.25,0.0,0.0,0.0,0.0,-0.05,-0.42,-0.55,39.6,-7.5,52.3
4.58,0.5,0.0,0.75,1.0,0.5,0.0,1.5,1.5,1.25,1.0,1.0,0.75,0.0,-0.3,-0.3,-1.05,113.07,8.4,-14.6,0.5,0.25,0.0,0.0,1.5,1.25,0.75,0.0,0.25,0.0,0.0,0.0,0.0,-0.05,-0.36,-0.61,50.0,-0.3,48.1
4.6,2.0,0.5,1.0,2.75,0.75,1.75,2.25,2.5,1.5,1.5,2.5,1.0,1.0,-0.3,-0.3,-1.11,164.21,6.4,-3.8,0.25,0.25,0.0,0.0,1.25,1.25,0.75,0.0,0.25,0.0,0.0,0.0,0.25,-0.11,-0.3,-0.73,59.23,2.3,34.6
4.62,1.75,0.5,1.0,2.75,0.75,1.0,2.25,2.5,1.5,1.25,2.25,1.0,1.5,-0.3,-0.36,-1.11,210.71,6.9,-7.5,0.5,0.25,0.0,0.0,1.0,1.0,1.0,0.0,0.25,0.0,0.0,0.0,0.0,-0.17,-0.3,-0.8,65.6,-3.5,47.5
4.64,2.0,0.5,1.0,2.5,0.75,1.25,2.25,2.5,1.5,1.25,2.75,1.0,1.0,-0.23,-0.3,-1.11,251.32,7.4,-5.6,0.5,0.25,0.0,0.0,0.5,1.25,0.75,0.0,0.25,0.0,0.0,0.0,0.0,-0.23,-0.3,-0.73,59.66,-1.7,46.2
4.66,0.25,0.0,0.75,1.0,0.0,0.25,1.5,1.5,1.25,1.0,1.5,0.0,0.0,-0.17,-0.23,-1.05,225.44,7.7,-16.1,0.75,0.25,0.0,0.0,0.5,1.25,1.0,0.0,0.25,0.0,0.0,0.0,0.0,-0.23,-0.3,-0.61,58.83,-5.0,49.0
4.68,1.75,0.5,0.5,1.75,0.0,1.0,1.5,2.5,1.5,1.5,1.5,0.0,1.25,-0.11,-0.17,-1.05,217.11,4.6,-8.2,0.5,0.5,0.25,0.0,1.0,1.25,1.0,0.0,0.25,0.0,0.0,0.0,0.0,-0.17,-0.3,-0.55,61.88,-4.7,50.7
4.7,2.0,0.5,1.0,3.0,0.75,1.0,2.0,2.75,1.5,1.25,2.5,1.0,1.25,-0.05,-0.11,-1.05,224.87,7.2,-5.5,0.5,0.25,0.0,0.0,0.5,1.25,0.75,0.0,0.25,0.0,0.0,0.0,0.0,-0.11,-0.36,-0.55,60.35,-1.7,46.2
4.72,0.75,0.25,1.0,1.0,0.75,1.0,2.25,2.5,1.5,1.25,2.25,0.5,0.0,0.02,-0.11,-1.05,223.06,5.7,-10.2,0.5,0.25,0.0,0.0,1.0,1.0,0.75,0.0,0.25,0.0,0.0,0.0,0.0,-0.11,-0.42,-0.61,60.17,-2.5,48.2
4.74,0.75,0.25,1.0,1.0,0.5,0.25,1.5,1.5,1.25,1.0,1.25,0.0,0.0,0.08,-0.11,-0.98,205.58,9.2,0.3,0.5,0.5,0.0,0.0,1.0,1.0,0.75,0.0,0.25,0.0,0.0,0.0,0.0,-0.05,-0.42,-0.55,59.56,-3.2,51.8
4.76,0.25,0.0,0.75,1.0,0.5,0.0,1.5,1.5,1.25,0.75,1.5,0.0,0.0,0.08,-0.23,-0.86,176.1,8.5,-10.9,0.5,0.5,0.0,0.0,0.5,1.25,0.75,0.0,0.25,0.0,0.0,0.0,0.25,0.02,-0.42,-0.55,58.92,-1.3,38.8
4.78,1.75,0.5,1.0,2.75,0.75,1.0,2.5,2.5,1.5,1.25,2.5,1.0,1.0,0.08,-0.3,-0.8,191.17,7.6,-5.4,0.5,0.25,0.0,0.0,1.0,1.25,1.0,0.0,0.25,0.0,0.0,0.0,0.0,0.08,-0.48,-0.42,60.15,-1.9,46.7
4.8,2.0,0.5,1.0,2.5,0.75,1.0,2.25,3.25,1.5,1.25,2.0,1.0,0.75,0.08,-0.3,-0.61,209.9,6.9,-3.2,0.5,0.25,0.0,0.0,0.25,1.0,0.75,0.0,0.25,0.0,0.0,0.0,0.0,0.2,-0.42,-0.36,54.55,-4.5,46.4
4.82,0.5,0.25,0.75,1.0,0.5,0.0,1.5,1.5,1.25,0.25,1.25,0.0,0.0,0.02,-0.3,-0.55,192.81,10.8,1.7,0.5,0.0,0.0,0.0,0.5,1.25,1.0,0.0,0.25,0.0,0.0,0.0,0.0,0.33,-0.42,-0.36,52.16,-2.0,40.8
4.84,1.25,0.25,0.25,0.75,0.5,0.0,1.5,1.5,1.25,0.25,1.25,0.0,0.0,-0.05,-0.23,-0.48,162.22,11.0,4.4,0.75,0.25,0.0,0.0,0.5,1.25,1.0,0.0,0.25,0.0,0.0,0.0,0.0,0.39,-0.48,-0.3,51.93,-5.0,49.0
4.86,0.5,0.25,0.5,0.75,0.0,0.0,1.5,1.5,1.5,0.25,1.25,0.0,0.0,-0.17,-0.3,-0.48,128.27,10.8,-8.0,0.5,0.0,0.0,0.0,1.0,1.0,1.0,0.0,0.25,0.0,0.0,0.0,0.0,0.27,-0.48,-0.17,53.27,-2.8,43.5
4.88,0.75,0.0,0.75,1.0,0.5,0.0,1.5,1.5,1.25,0.5,1.5,0.0,0.0,-0.36,-0.42,-0.36,111.89,10.7,-3.0,0.5,0.25,0.0,0.0,1.0,1.25,0.75,0.0,0.25,0.0,0.0,0.0,0.0,0.14,-0.48,-0.11,56.69,-0.9,47.3
4.9,1.0,0.25,0.75,1.0,0.0,0.0,1.5,1.0,1.25,1.0,1.0,0.0,0.0,-0.48,-0.42,-0.23,106.03,12.5,1.1,0.5,0.0,0.0,0.0,1.0,1.25,0.75,0.0,0.25,0.0,0.0,0.0,0.0,0.14,-0.48,-0.11,57.55,0.0,43.4
4.92,1.0,0.0,0.25,1.0,0.5,0.0,1.5,1.5,1.25,0.5,1.0,0.0,0.0,-0.3,-0.36,-0.23,102.85,9.6,0.2,0.5,0.0,0.0,0.0,0.25,1.25,0.75,0.0,0.25,0.0,0.0,0.0,0.0,0.14,-0.55,-0.05,52.99,-1.1,40.0
4.94,0.75,0.0,0.75,1.0,0.5,0.0,1.5,1.5,1.25,0.5,1.25,0.0,0.0,0.2,-0.3,0.14,103.81,10.7,-0.9,0.5,0.0,0.25,0.0,0.25,1.0,1.0,0.0,0.25,0.0,0.0,0.0,0.25,0.14,-0.67,-0.05,50.38,-6.3,28.7
4.96,1.0,0.25,0.75,1.0,0.0,0.5,1.5,1.5,1.5,0.75,1.0,0.25,0.5,0.7,-0.36,0.33,116.34,8.5,-7.0,0.5,0.25,0.0,0.0,0.5,1.25,0.75,0.0,0.25,0.0,0.0,0.0,0.25,0.2,-0.92,0.08,49.94,-0.5,34.2
4.98,1.75,0.5,1.0,2.75,0.75,1.0,2.25,2.5,1.5,1.25,2.25,1.0,1.25,0.77,-0.48,0.58,167.18,7.2,-6.1,0.5,0.25,0.0,0.0,1.0,1.0,0.5,0.0,0.25,0.0,0.0,0.0,0.0,0.14,-0.98,0.14,51.84,-1.4,49.0
5.0,1.75,0.25,1.0,3.25,0.75,1.0,2.0,2.25,1.5,1.25,2.5,1.0,0.75,0.58,-0.67,0.64,206.68,8.2,-3.5,0.5,0.5,0.0,0.0,1.0,1.25,0.75,0.0,0.25,0.0,0.0,0.0,0.0,0.14,-0.98,0.08,57.98,-1.6,50.7
5.02,1.75,0.5,1.0,3.0,0.5,1.25,1.75,2.25,1.0,1.25,2.0,0.75,1.0,0.45,-0.98,0.52,233.48,7.2,-0.6,0.5,0.5,0.5,0.0,1.5,1.25,0.75,0.0,0.25,0.0,0.0,0.0,0.25,-0.3,-0.36,0.08,70.78,-3.9,44.2
5.04,1.25,0.25,1.0,2.5,0.5,0.75,2.0,2.0,1.0,1.25,2.5,0.75,1.0,0.2,-1.73,1.58,244.58,7.5,-9.6,0.5,0.5,0.25,0.0,0.5,1.25,0.75,0.0,0.25,0.0,0.0,0.0,0.0,-0.11,-0.73,-0.05,72.6,-5.1,51.0
5.06,1.5,0.5,1.0,2.0,0.0,0.75,1.75,1.75,1.0,1.25,2.25,0.75,1.0,0.33,-1.67,0.52,244.58,8.3,-9.6,0.5,0.25,0.0,0.0,0.25,1.0,0.75,0.0,0.25,0.0,0.0,0.0,0.0,0.39,-0.86,0.14,65.11,-4.5,46.4
5.08,1.75,1.0,1.0,2.0,0.5,0.5,1.75,2.0,1.0,1.25,2.5,0.75,1.0,0.45,-1.86,0.64,239.53,8.5,-4.4,0.25,0.5,0.0,0.0,0.5,1.25,1.0,0.0,0.25,0.0,0.0,0.0,0.0,0.2,-0.98,0.39,59.02,-1.3,45.9
5.1,2.0,0.5,1.0,1.0,0.5,1.0,1.75,2.0,1.0,1.25,2.25,0.75,1.0,0.39,-1.86,0.77,233.3,7.1,-8.4,0.75,0.75,0.0,1.25,0.25,1.25,0.75,0.0,0.5,1.0,0.0,0.5,0.0,0.45,-1.05,0.2,73.07,-5.3,20.7
5.12,1.75,0.5,1.0,1.75,0.5,1.5,2.0,2.0,1.0,1.25,2.5,0.75,1.0,0.2,-1.86,0.58,235.96,6.6,-6.2,1.75,0.75,1.25,2.0,1.75,1.25,1.0,0.75,0.5,1.0,0.5,0.75,1.0,0.64,-1.11,0.14,125.96,-7.8,17.3
5.14,1.75,0.5,1.0,1.75,0.5,2.0,2.0,2.0,1.0,1.25,2.25,0.75,1.0,0.02,-1.92,0.39,237.97,5.7,-4.0,1.75,1.0,1.25,1.75,2.25,1.25,1.0,0.75,0.5,1.0,0.25,0.75,0.75,0.64,-1.05,0.39,174.33,-7.6,23.5
5.16,1.75,0.5,1.0,2.5,0.5,0.75,1.75,2.0,1.25,1.25,2.5,0.75,1.0,-0.11,-1.98,0.33,239.35,8.2,-5.6,1.5,0.75,1.25,2.0,1.75,1.25,1.0,0.5,0.75,1.0,0.75,0.75,0.75,0.7,-1.3,0.58,208.56,-8.3,16.7
5.18,1.75,0.5,1.0,2.5,0.5,1.0,2.0,2.0,1.0,0.75,2.5,1.0,1.0,-0.3,-1.86,0.33,236.31,8.7,-3.7,1.5,0.75,1.25,2.0,2.25,1.25,1.0,0.5,0.5,1.0,0.75,0.75,0.5,1.2,-1.55,0.77,223.68,-8.2,21.6
5.2,1.75,0.5,1.0,2.5,0.5,1.0,1.75,2.25,1.0,1.5,2.75,1.0,1.0,-0.48,-1.8,0.33,236.25,7.1,-8.5,1.5,0.75,1.25,2.0,2.5,1.25,1.0,0.25,0.5,1.0,0.75,0.75,0.75,1.64,-1.67,0.58,230.14,-8.0,20.9
5.22,1.75,0.5,1.0,2.5,0.5,0.75,2.0,2.0,1.25,1.25,2.5,0.5,1.0,-0.55,-1.67,0.2,231.15,8.4,-3.8,1.75,1.0,1.25,2.0,2.5,1.25,1.25,0.25,0.75,1.0,0.5,0.5,0.75,1.52,-1.73,0.7,233.12,-8.7,26.5
5.24,1.75,0.5,1.0,2.5,0.5,0.75,1.75,2.25,1.0,1.25,2.5,0.75,1.0,-0.61,-1.61,0.08,232.61,7.8,-5.6,1.5,1.0,1.25,2.0,2.25,1.25,1.0,0.5,0.5,1.0,0.75,0.5,1.0,1.33,-1.55,0.64,234.57,-7.4,20.6
5.26,1.75,0.5,1.0,2.25,0.5,1.0,1.75,1.75,1.0,1.25,2.5,0.75,1.0,-0.67,-1.61,0.08,231.03,8.0,-5.0,1.5,1.0,1.25,1.75,1.75,1.25,1.0,0.5,0.5,1.0,0.75,0.5,0.5,1.08,-1.17,0.33,230.05,-8.6,23.5
5.28,1.75,0.5,1.0,2.5,0.5,0.75,1.75,1.75,1.0,1.25,2.75,0.75,1.0,-0.67,-1.48,0.2,230.71,8.6,-5.6,1.25,1.25,1.25,2.0,2.25,1.25,1.0,0.5,0.5,1.0,1.0,0.75,1.0,0.7,-0.86,0.08,231.04,-7.2,17.0
5.3,1.75,0.5,1.25,2.5,1.75,1.0,2.0,2.0,1.0,1.25,2.25,0.75,1.0,-0.48,-1.42,0.27,237.3,7.4,2.1,1.5,1.0,1.25,1.25,2.25,1.0,1.0,0.75,0.5,1.25,0.75,0.5,0.75,0.33,-0.55,0.2,223.8,-6.9,17.8
5.32,1.75,0.5,0.0,2.25,0.5,0.75,1.75,1.75,1.0,1.25,2.25,0.75,1.0,-0.36,-1.23,0.27,228.04,6.3,-9.2,1.25,1.25,1.25,1.75,1.75,1.0,1.0,0.75,0.5,1.25,0.5,0.5,0.75,0.08,-0.11,0.08,215.38,-7.3,19.7
5.34,1.75,0.5,1.5,2.5,0.75,1.0,1.75,2.25,1.0,1.25,2.5,0.75,1.0,-0.17,-0.98,0.14,233.54,8.1,-2.2,1.25,1.5,1.25,2.0,1.75,1.25,1.0,0.5,0.5,1.25,0.75,0.5,0.5,0.14,-0.05,-0.05,207.27,-8.0,23.9
5.36,1.75,0.5,1.5,3.0,1.25,0.75,1.75,2.25,1.0,1.25,2.5,0.75,0.75,-0.11,-0.8,0.14,237.63,8.7,2.3,1.25,1.25,1.25,2.0,1.75,1.25,1.0,0.5,0.5,1.25,0.5,0.75,0.5,0.2,0.02,0.02,201.1,-7.9,21.8
5.38,1.75,0.5,1.0,2.5,0.5,0.75,1.75,2.25,1.0,1.25,2.75,0.75,1.0,-0.11,-0.86,0.14,239.68,7.9,-6.6,1.25,1.5,1.25,2.0,1.75,1.25,1.0,0.25,0.5,1.25,0.5,0.5,1.0,0.14,-0.05,0.14,201.47,-7.6,21.8
5.4,1.75,0.5,1.5,2.75,0.0,0.75,1.75,2.5,1.0,1.25,2.5,0.75,1.0,-0.05,-0.8,0.14,239.21,8.9,-5.1,1.25,1.25,1.25,2.0,1.75,1.25,1.0,0.75,0.5,1.25,1.0,0.5,0.75,0.14,-0.23,0.2,203.99,-7.1,17.4
5.42,1.75,0.5,1.0,2.5,0.75,0.75,2.0,1.75,1.0,1.25,2.25,0.75,0.75,0.08,-0.67,0.08,234.86,8.9,-0.5,1.25,1.5,1.25,2.0,1.5,1.0,1.0,0.5,0.5,1.25,1.0,0.5,0.5,0.33,-0.48,0.2,203.36,-8.8,21.3
5.44,1.75,0.5,1.0,2.5,3.0,1.0,2.0,1.75,1.0,1.25,3.0,0.75,1.25,0.39,-0.36,-0.05,246.6,6.4,1.3,1.25,1.25,1.25,1.75,1.5,1.0,1.0,0.5,0.5,1.25,0.75,0.75,0.25,0.52,-0.67,0.2,198.34,-9.0,20.9
5.46,1.75,0.5,1.0,2.5,0.5,1.0,1.75,2.0,1.0,1.25,2.25,0.75,1.0,0.64,0.14,0.02,242.65,7.7,-3.5,1.25,1.25,1.25,2.0,1.75,1.0,1.0,0.5,0.5,1.5,0.75,0.75,0.75,0.64,-0.92,0.2,198.95,-7.6,15.8
5.48,1.75,0.5,1.0,2.5,0.5,0.75,1.75,1.75,1.0,1.25,3.0,0.75,1.0,0.77,0.52,0.14,241.99,8.6,-6.6,0.25,0.5,1.5,0.0,1.75,1.0,1.0,0.0,0.25,0.0,0.0,0.0,0.0,0.77,-0.86,0.2,165.5,-10.6,52.1
5.5,1.75,0.5,1.0,2.5,0.5,0.75,1.75,1.5,1.0,1.25,2.25,0.75,1.0,0.39,0.7,0.7,231.89,8.9,-2.9,0.5,0.75,0.0,0.0,1.0,1.0,0.75,0.0,0.25,0.0,0.0,0.0,0.0,0.7,-0.61,0.08,123.45,-3.8,54.8
5.52,1.75,0.5,1.0,2.5,0.5,1.25,1.75,1.75,1.0,1.25,2.0,0.75,1.25,0.14,0.33,1.2,228.08,7.2,-3.0,0.5,0.25,0.25,0.0,0.5,1.0,1.0,0.0,0.25,0.0,0.0,0.0,0.25,0.7,-0.17,0.08,76.93,-6.0,35.9
5.54,1.75,0.5,1.0,3.0,0.5,1.0,1.75,2.25,1.0,1.25,2.25,0.75,1.0,0.02,-0.23,1.14,227.37,7.6,-2.1,0.5,0.5,0.25,0.25,1.5,0.5,1.0,0.0,0.25,0.0,0.0,0.0,0.25,0.77,0.14,0.14,55.64,-7.5,45.1
5.56,1.0,0.5,1.0,2.5,0.5,1.0,1.75,2.25,1.0,1.25,2.5,0.75,1.25,-0.42,-1.17,1.39,228.63,5.9,-11.1,0.25,0.5,0.0,0.0,0.5,1.5,0.75,0.0,0.25,0.0,0.0,0.0,0.0,0.64,0.2,0.08,37.19,1.4,45.8
5.58,0.75,0.25,1.0,2.5,0.5,1.25,1.75,2.0,1.0,1.25,2.5,0.75,1.0,-0.67,-2.3,1.52,223.29,5.6,-11.8,1.5,1.0,0.25,1.75,1.75,1.25,1.5,0.75,0.5,1.25,1.0,0.5,0.75,0.58,0.02,0.08,84.46,-5.3,13.2
5.6,1.75,0.25,1.0,1.75,0.5,1.5,1.75,2.0,1.0,1.25,2.5,0.75,1.0,-0.86,-2.8,1.58,220.61,6.3,-8.1,1.5,1.0,1.25,1.75,1.5,1.25,1.0,0.75,0.75,0.75,0.75,0.75,0.75,0.52,-0.3,0.2,128.67,-8.4,17.4
5.62,1.75,0.5,1.0,2.25,0.5,1.75,1.5,2.0,1.0,1.25,2.5,0.75,1.0,-0.67,-2.11,0.83,223.75,6.1,-4.1,1.5,0.75,1.25,1.25,1.75,1.5,1.0,1.0,0.75,1.25,1.0,0.75,0.5,0.14,-0.36,0.27,170.15,-6.4,11.8
5.64,2.0,0.5,1.0,2.5,0.5,1.5,1.5,2.0,1.0,1.25,2.5,0.75,0.5,-0.23,-0.67,0.52,226.31,7.7,0.9,1.75,0.75,1.5,2.0,1.75,1.25,1.0,1.0,0.75,1.5,0.75,0.5,0.75,0.33,0.08,0.14,197.82,-7.6,15.9
5.66,1.75,0.5,0.75,2.25,0.5,1.75,1.5,2.0,1.0,1.25,2.5,0.75,1.0,0.27,0.27,0.52,229.04,5.6,-5.1,1.5,0.75,1.25,1.25,1.75,1.25,1.0,0.75,0.5,1.25,0.75,0.5,1.0,0.45,0.39,0.33,209.34,-6.3,12.4
5.68,1.25,0.25,1.0,2.5,1.25,1.5,1.5,2.25,1.0,1.25,2.5,0.75,1.0,0.27,0.58,0.2,232.27,5.0,-5.6,2.0,0.75,2.0,1.75,1.75,1.25,0.75,0.0,0.75,1.25,0.25,0.25,0.75,0.89,0.45,0.7,214.03,-11.0,29.6
5.7,1.75,0.75,1.0,1.5,0.5,1.0,1.5,2.25,1.0,1.25,2.75,0.75,1.0,-0.17,-0.36,0.64,232.38,6.7,-8.8,2.25,1.25,0.0,0.0,1.5,1.0,0.75,0.0,0.25,0.0,0.0,0.0,0.5,1.83,0.33,0.52,190.1,-9.7,55.9
5.72,1.75,0.5,0.75,1.0,0.5,1.0,1.75,2.5,1.0,1.25,2.75,0.75,0.75,-1.05,-2.92,1.77,225.46,5.9,-12.6,3.0,0.75,1.75,1.75,2.5,1.0,1.0,1.0,0.75,0.0,0.75,0.0,1.0,2.7,-0.17,0.27,207.18,-11.8,35.3
5.74,2.0,0.5,0.75,2.0,0.5,1.75,1.5,1.75,1.25,1.25,2.5,0.75,0.25,-0.3,-1.42,1.02,222.43,7.3,0.4,3.0,0.75,1.25,2.0,1.75,1.25,0.75,0.75,1.0,1.25,1.25,0.75,1.0,3.27,-0.3,-0.23,219.49,-9.4,15.8
5.76,2.0,0.5,0.75,2.25,0.5,2.0,1.5,2.5,1.5,1.25,2.25,0.75,0.5,-0.11,0.08,0.95,226.54,5.7,-1.0,3.0,0.5,1.25,1.75,1.75,1.0,1.0,1.0,1.0,1.25,0.75,0.75,1.0,1.08,0.39,0.52,234.43,-9.5,15.5
5.78,2.25,0.5,0.75,2.5,0.5,2.0,1.5,2.5,1.25,1.25,2.5,0.75,0.75,-0.3,-0.05,1.02,235.55,5.9,-0.9,3.0,0.75,1.25,1.5,2.25,1.25,0.75,1.0,0.75,1.25,1.25,0.75,1.0,-0.48,0.7,0.45,242.16,-8.3,15.8
5.8,2.0,0.5,1.0,2.5,0.5,2.0,1.5,2.25,1.25,1.25,2.75,0.75,1.5,-0.3,-0.05,0.95,247.12,5.6,-6.2,1.75,0.5,1.5,0.0,2.75,1.0,1.0,1.25,0.5,0.0,0.75,0.0,0.5,0.77,-0.36,0.39,225.35,-8.1,30.3
5.82,2.0,0.75,1.0,1.75,1.25,2.0,1.5,2.25,1.25,1.25,2.5,0.75,1.0,-0.3,-0.3,0.83,254.03,5.2,-0.9,2.5,0.75,0.25,0.5,0.0,2.0,0.75,0.0,1.0,1.25,0.0,0.75,0.25,1.27,-0.61,-0.11,190.99,-7.9,19.4
5.84,2.0,0.5,0.75,1.25,1.25,1.75,1.5,2.5,1.25,1.25,2.5,0.75,1.0,-0.42,-0.3,0.64,252.22,4.3,-6.0,3.5,0.75,1.25,1.75,1.5,2.0,1.0,0.75,1.0,0.25,0.75,0.0,0.5,0.89,0.02,0.08,188.41,-11.5,38.2
