time,left pressure 0[N/cm虏],left pressure 1[N/cm虏],left pressure 2[N/cm虏],left pressure 3[N/cm虏],left pressure 4[N/cm虏],left pressure 5[N/cm虏],left pressure 6[N/cm虏],left pressure 7[N/cm虏],left pressure 8[N/cm虏],left pressure 9[N/cm虏],left pressure 10[N/cm虏],left pressure 11[N/cm虏],left pressure 12[N/cm虏],left acceleration X[g],left acceleration Y[g],left acceleration Z[g],left total force[N],left center of pressure X[mm],left center of pressure Y[mm],right pressure 0[N/cm虏],right pressure 1[N/cm虏],right pressure 2[N/cm虏],right pressure 3[N/cm虏],right pressure 4[N/cm虏],right pressure 5[N/cm虏],right pressure 6[N/cm虏],right pressure 7[N/cm虏],right pressure 8[N/cm虏],right pressure 9[N/cm虏],right pressure 10[N/cm虏],right pressure 11[N/cm虏],right pressure 12[N/cm虏],right acceleration X[g],right acceleration Y[g],right acceleration Z[g],right total force[N],right center of pressure X[mm],right center of pressure Y[mm]
0.02,2.25,0.75,2.0,0.75,3.0,3.5,0.5,6.25,2.25,5.5,4.0,4.75,3.75,-0.11,0.14,0.95,354.12,-0.9,-31.1,3.25,0.25,1.75,3.0,0.0,2.75,1.75,0.75,0.75,0.75,0.5,0.25,0.5,1.02,-1.3,1.27,221.62,-12.2,32.4
0.04,1.75,1.25,2.25,2.5,2.5,5.5,1.25,7.25,3.25,7.25,4.75,5.25,4.25,-0.11,0.14,0.95,505.68,-1.2,-29.4,2.25,0.75,2.75,2.75,1.5,2.5,1.5,0.75,0.75,0.75,0.75,0.25,0.5,1.52,-1.73,1.45,159.17,-11.2,32.7
0.06,2.75,1.25,3.75,2.5,4.5,5.75,2.25,8.0,4.25,7.75,6.25,5.5,5.0,-0.11,0.14,0.95,728.41,0.5,-24.2,2.0,0.75,2.75,2.75,1.75,2.5,1.25,0.75,0.75,0.75,0.5,0.0,0.5,0.95,-1.36,1.39,122.28,-10.5,35.9
0.08,2.25,1.25,3.0,2.5,5.75,6.5,2.25,8.5,4.5,7.75,5.5,5.25,5.25,-0.11,0.14,0.95,907.55,-0.9,-23.2,1.25,0.75,2.75,2.75,1.75,2.75,1.5,0.75,0.75,0.75,0.5,0.25,0.25,0.27,-0.92,0.89,115.76,-9.5,33.3
0.1,2.25,1.25,4.25,2.5,6.0,7.0,2.75,9.0,4.5,7.25,6.0,5.25,5.0,-0.11,0.14,0.95,1051.63,0.0,-20.2,1.25,0.75,2.5,2.75,1.75,2.5,1.25,0.75,0.5,0.75,0.5,0.25,0.25,-0.05,-0.73,0.89,119.82,-9.3,34.0
0.12,2.5,1.25,4.0,2.5,5.5,7.25,0.5,9.0,4.25,6.5,5.5,4.25,4.5,-0.11,0.14,0.95,1084.82,-0.6,-17.9,1.25,0.75,2.5,2.75,0.25,2.0,1.25,0.75,0.5,0.75,0.5,0.0,0.25,-0.36,-0.61,1.14,122.3,-12.1,34.1
0.14,2.25,1.25,4.0,2.5,6.0,7.75,2.0,9.0,4.25,6.5,4.75,4.0,3.5,-0.11,0.14,0.95,1080.89,-0.5,-13.9,1.25,0.5,2.25,2.5,1.0,2.25,1.25,0.75,0.5,0.75,0.5,0.0,0.25,-0.61,-0.42,1.27,127.96,-9.9,33.2
0.16,2.75,1.25,4.25,2.5,6.5,8.0,2.5,9.0,3.75,5.25,4.5,3.0,3.25,-0.11,0.14,0.95,1044.67,0.0,-7.5,1.25,0.25,2.5,2.0,1.5,2.0,1.25,0.75,0.25,0.0,0.5,0.0,0.25,-0.55,-0.17,1.2,133.48,-11.7,40.5
0.18,2.75,1.25,4.25,2.5,6.25,8.0,2.5,8.75,3.75,5.25,4.5,2.5,2.25,-0.11,0.14,0.95,990.45,0.2,-4.8,1.0,0.75,1.75,2.5,1.75,2.0,1.25,0.75,0.25,0.75,0.5,0.25,0.25,-0.42,-0.05,1.33,149.46,-8.1,32.2
0.2,2.75,1.25,4.5,2.75,6.5,8.0,3.0,9.0,3.75,5.0,3.5,2.5,1.75,-0.11,0.14,0.95,943.82,0.5,-1.2,1.25,0.5,2.5,2.0,1.75,2.0,1.25,0.75,0.25,0.75,0.5,0.25,0.25,-0.36,0.02,1.58,164.17,-9.8,32.7
0.22,2.5,1.25,4.25,2.75,6.75,8.0,2.75,8.75,3.75,4.5,3.0,2.5,1.5,-0.11,0.14,0.95,888.03,0.3,0.3,1.0,0.75,2.25,2.0,1.75,2.0,1.25,0.75,0.25,0.75,0.5,0.0,0.25,-0.3,0.2,1.7,178.64,-8.9,35.0
0.24,2.75,1.25,4.5,2.75,6.75,8.0,3.0,8.25,3.75,4.5,2.75,2.25,1.25,-0.11,0.14,0.95,834.14,0.9,3.0,1.25,0.5,2.25,1.75,1.75,1.5,1.25,0.75,0.25,0.75,0.5,0.25,0.25,-0.23,0.33,1.89,185.77,-10.3,31.5
0.26,3.5,1.25,4.5,3.75,7.75,8.0,3.0,8.25,3.75,3.5,3.0,1.75,1.5,-0.11,0.14,0.95,792.88,1.8,8.1,1.0,0.75,2.25,1.75,1.75,1.75,1.25,0.75,0.25,0.75,0.5,0.0,0.25,0.02,0.83,2.02,187.73,-9.3,34.5
0.28,3.5,1.25,4.5,4.5,8.0,8.0,3.25,8.5,4.25,3.5,2.0,1.75,1.25,-0.11,0.14,0.95,786.22,2.0,10.5,1.0,0.5,2.25,1.75,1.75,1.25,1.25,0.75,0.25,0.75,0.5,0.25,0.25,0.27,1.52,2.27,182.37,-10.5,30.2
0.3,4.0,1.25,4.5,5.0,8.25,8.0,3.5,8.0,4.5,3.0,2.5,1.75,1.5,-0.11,0.14,0.95,800.57,2.8,11.7,1.0,0.5,2.25,1.5,1.75,1.5,1.0,0.75,0.25,0.75,0.5,0.25,0.0,0.33,2.27,2.27,178.92,-10.0,32.8
0.32,5.5,1.25,4.5,5.75,8.25,8.25,4.25,7.75,4.75,2.75,2.75,1.5,1.25,-0.11,0.14,0.95,840.5,4.2,15.7,1.0,0.25,2.25,1.25,1.75,1.5,1.0,0.75,0.25,0.75,0.5,0.25,0.25,0.77,3.58,1.2,175.32,-9.2,27.5
0.34,6.25,1.25,5.5,7.0,8.5,8.25,4.25,7.5,5.0,2.75,2.5,1.25,1.5,-0.11,0.14,0.95,900.45,5.4,18.9,1.0,0.25,2.25,1.75,1.5,1.75,1.0,0.75,0.25,0.75,0.5,0.0,0.25,0.45,4.39,-0.48,174.9,-9.2,31.3
0.36,7.25,2.25,6.0,8.5,9.75,8.5,4.5,7.5,4.75,2.75,2.25,1.0,1.5,-0.11,0.14,0.95,996.86,6.1,24.4,1.25,0.5,2.0,1.25,1.25,2.0,1.0,0.75,0.25,0.75,0.5,0.25,0.25,-1.11,5.14,-1.36,174.58,-8.5,28.8
0.38,8.0,2.5,7.0,9.75,9.75,8.75,4.75,6.75,4.5,2.75,2.0,0.75,1.5,-0.11,0.14,0.95,1095.74,7.3,28.5,1.25,0.5,1.75,1.5,1.5,1.25,1.0,0.75,0.0,0.75,0.5,0.0,0.5,-2.48,5.14,-0.36,170.92,-9.1,30.4
0.4,9.0,2.75,7.75,12.5,12.0,8.75,5.0,6.5,3.75,2.75,2.25,0.75,1.5,-0.11,0.14,0.95,1236.41,8.1,32.5,1.25,0.5,1.25,0.5,1.5,0.25,1.0,0.75,0.0,0.75,0.5,0.0,1.75,0.39,0.02,1.58,160.42,-6.8,6.9
0.42,9.75,2.75,8.5,14.5,13.0,9.0,4.5,6.0,2.75,2.75,2.5,0.75,1.0,-0.11,0.14,1.02,1353.04,8.8,36.4,0.0,0.0,1.75,0.25,1.25,1.5,1.0,2.25,0.25,2.25,1.75,1.5,2.5,0.95,0.89,3.58,176.46,1.3,-36.2
0.44,10.5,2.75,9.5,15.0,14.5,8.75,4.75,5.25,2.0,2.75,2.25,0.75,0.75,-0.11,0.14,1.14,1441.35,9.6,40.0,2.25,0.75,2.0,0.0,1.75,2.75,1.25,3.5,1.5,5.25,3.25,3.25,4.25,-0.23,0.58,1.33,253.66,0.1,-33.4
0.46,11.5,2.75,11.0,16.0,14.5,8.75,4.25,4.5,1.5,2.75,1.75,0.75,0.25,-0.11,0.2,1.27,1505.76,10.9,44.2,2.5,0.5,2.25,1.5,1.5,2.75,1.75,3.75,2.0,5.5,4.0,3.25,4.5,0.08,0.2,0.95,339.48,-1.3,-30.8
0.48,13.0,3.0,12.0,15.5,14.5,8.0,3.0,4.0,1.25,2.75,2.0,0.75,1.0,-0.23,0.27,1.33,1550.13,11.7,44.6,2.75,0.75,3.0,1.75,1.75,3.25,1.25,4.75,2.75,6.75,5.0,4.75,4.25,0.08,0.2,0.89,466.44,-1.7,-31.1
0.5,13.5,2.75,12.5,14.5,13.5,7.0,0.5,3.0,1.25,2.75,1.75,0.75,1.25,-0.23,0.27,1.39,1541.28,12.5,45.9,3.75,1.0,2.75,2.75,2.25,4.5,2.25,5.75,4.0,7.25,6.5,5.25,6.0,0.08,0.2,0.95,629.88,-1.7,-29.3
0.52,14.0,2.75,13.0,12.0,9.75,5.75,1.75,2.75,0.75,2.0,1.75,0.75,0.5,-0.23,0.45,1.7,1466.77,15.2,49.5,3.75,1.0,2.75,2.75,2.25,5.0,2.75,6.5,4.75,7.25,6.5,5.25,6.25,0.08,0.2,0.95,777.02,-1.4,-29.2
0.54,12.0,2.75,12.0,8.5,8.25,3.75,3.75,2.5,0.5,1.5,1.5,0.75,0.5,-0.61,0.64,2.2,1320.08,16.6,49.6,5.25,1.0,3.5,3.0,4.25,5.75,2.75,7.0,5.25,7.25,6.5,4.5,6.0,0.08,0.2,0.95,919.14,-2.2,-19.7
0.56,10.5,2.0,11.0,6.75,6.75,2.5,4.25,0.5,0.5,1.75,2.0,0.75,0.75,-1.05,1.08,2.33,1073.19,18.4,47.9,5.75,1.25,4.0,3.0,5.5,6.0,2.75,7.25,5.5,6.75,6.5,3.5,5.5,0.08,0.2,0.95,1031.8,-2.6,-13.2
0.58,8.0,1.25,8.5,3.0,6.25,2.5,2.5,1.5,0.25,0.5,1.25,0.0,0.0,-0.73,0.83,2.39,780.1,17.4,53.8,6.25,1.25,4.25,3.25,5.5,6.25,3.0,7.5,5.25,6.0,5.75,2.75,4.5,0.08,0.14,0.95,1096.46,-3.3,-7.1
0.6,6.25,1.25,6.25,0.0,4.5,2.5,1.0,0.75,0.5,0.5,1.0,0.25,0.25,-0.61,0.77,2.89,511.63,16.3,50.3,7.0,1.5,4.75,4.75,5.5,6.25,2.75,7.25,5.25,5.0,4.75,2.0,3.0,0.08,0.14,0.95,1111.27,-5.0,3.3
0.62,3.25,0.0,3.25,2.25,2.5,2.5,1.75,1.0,0.5,1.25,1.5,0.75,0.25,-0.42,-0.8,2.08,317.78,11.3,26.1,7.0,1.75,4.75,5.25,6.25,6.5,3.0,6.75,4.75,3.75,4.0,1.0,2.25,0.08,0.14,0.95,1086.72,-5.7,12.3
0.64,2.25,0.0,3.0,2.5,3.0,2.25,1.5,0.0,0.5,1.25,0.75,0.75,0.5,-0.3,-0.42,-0.55,207.62,10.8,28.9,7.75,1.75,4.75,5.75,7.0,7.0,2.5,6.5,4.0,2.75,2.75,0.5,1.0,0.08,0.2,0.95,1033.46,-6.4,23.3
0.66,2.25,0.5,3.5,2.5,3.0,2.25,1.0,0.0,0.5,1.75,1.0,0.75,0.25,-0.8,-1.11,1.77,141.17,11.0,29.5,8.0,1.75,5.0,7.0,7.25,7.0,2.75,6.0,3.0,2.5,2.0,0.5,0.5,0.08,0.2,0.95,969.15,-7.3,29.8
0.68,2.25,0.25,3.5,2.5,3.0,2.5,1.75,1.0,0.5,2.0,1.25,0.75,0.25,-0.48,-0.92,0.83,122.98,9.3,22.9,8.0,1.75,5.0,7.0,7.25,7.0,2.25,5.25,2.0,2.25,2.0,0.5,0.75,0.08,0.2,0.95,901.5,-7.4,32.0
0.7,0.75,0.0,3.25,0.25,1.75,0.0,1.0,0.0,0.25,0.5,0.0,0.25,0.0,-0.61,-0.67,0.27,64.85,20.9,42.8,8.25,1.75,5.0,7.25,7.5,7.0,2.25,5.0,1.5,2.25,1.75,0.5,1.25,0.02,0.2,0.95,859.11,-7.4,32.6
0.72,2.25,1.0,3.0,2.5,3.0,1.75,1.75,0.0,0.5,1.25,0.75,0.75,0.5,-0.55,-0.55,0.2,82.3,11.9,32.7,8.75,1.75,5.0,8.75,8.25,7.0,2.25,4.0,1.0,2.25,1.75,0.5,1.25,0.02,0.2,0.95,835.16,-8.2,36.4
0.74,2.25,1.0,3.0,2.5,3.0,1.0,1.75,0.5,0.5,1.75,1.0,0.75,0.25,-0.3,-0.36,0.64,108.5,12.1,28.4,8.75,1.75,5.25,8.75,8.5,7.0,1.75,3.75,0.75,1.5,1.5,0.5,0.5,0.02,0.2,0.95,812.51,-8.9,41.8
0.76,2.25,1.0,3.0,1.75,3.0,1.0,1.75,1.0,0.5,1.5,1.0,0.75,0.25,-0.17,-0.36,0.89,156.36,11.4,26.7,9.25,1.75,5.25,10.5,8.5,7.0,1.5,3.25,0.5,1.25,0.75,0.25,0.5,0.02,0.2,0.95,806.91,-9.8,47.2
0.78,2.25,1.25,3.0,2.0,3.0,1.0,1.75,0.5,0.5,1.25,1.25,0.75,0.25,-0.23,-0.17,1.02,191.98,12.7,30.0,9.75,2.0,6.75,10.5,9.25,6.25,1.75,2.5,0.75,1.25,1.0,0.5,0.75,0.02,0.2,0.95,821.8,-11.4,47.3
0.8,0.75,0.0,2.0,0.75,0.75,0.75,1.25,0.0,0.5,1.25,0.5,0.75,0.0,-0.23,-0.05,1.02,180.08,13.2,10.8,10.5,1.75,6.75,11.5,9.5,6.0,1.75,2.25,0.25,1.0,0.75,0.25,0.5,0.02,0.2,0.89,845.56,-12.2,51.8
0.82,0.75,0.0,2.75,0.0,2.25,0.0,1.0,0.0,0.25,0.5,0.0,0.0,0.0,-0.23,0.08,1.14,153.56,18.3,47.0,11.0,1.0,7.75,12.0,9.75,6.25,2.0,2.25,0.5,1.0,0.75,0.5,0.75,0.02,0.2,0.89,888.29,-12.6,49.8
0.84,0.75,0.0,2.0,0.0,0.5,0.0,1.0,1.0,0.25,0.5,1.0,0.25,0.25,-0.23,0.14,1.33,115.62,14.8,3.3,12.0,2.25,8.5,12.0,10.0,5.25,2.0,2.25,0.5,1.0,0.75,0.5,0.75,0.02,0.27,0.95,942.52,-13.8,52.1
0.86,0.5,0.0,2.0,0.0,0.0,0.0,0.75,0.25,0.0,0.5,0.25,0.25,0.0,-0.36,0.33,1.58,80.07,24.1,21.3,12.0,2.5,8.75,14.0,11.0,6.25,1.75,2.0,0.25,1.0,0.75,0.5,0.75,0.02,0.27,0.95,1022.79,-13.3,53.0
0.88,0.5,0.0,2.0,0.0,0.0,0.0,1.0,0.0,0.0,0.5,0.0,0.25,0.0,-0.42,0.52,1.95,49.43,27.9,31.7,13.0,3.5,9.25,13.5,11.0,6.25,2.25,1.75,0.25,1.0,0.75,0.5,0.75,0.02,0.27,1.02,1102.49,-13.9,54.7
0.9,2.0,0.0,2.0,0.0,0.0,0.0,1.25,1.0,0.0,0.5,0.75,0.0,0.5,-0.61,0.83,2.39,51.4,19.2,18.8,13.0,5.0,0.0,12.5,11.0,5.0,1.75,1.25,0.0,0.75,0.5,0.25,0.5,0.02,0.27,1.08,1065.07,-10.7,59.6
0.92,0.75,0.0,2.0,0.0,0.0,0.0,1.0,0.0,0.0,0.5,0.0,0.25,0.0,-0.67,1.58,2.64,44.49,28.4,35.6,14.0,4.0,11.0,14.0,11.5,2.75,1.75,1.0,0.0,0.0,0.75,0.0,0.5,-0.05,0.27,1.08,1097.95,-17.7,62.7
0.94,1.0,0.0,2.0,0.0,0.0,0.0,0.75,0.0,0.25,0.5,0.0,0.25,0.0,-0.8,2.45,2.7,46.48,27.7,35.0,14.5,5.0,10.5,12.5,9.75,2.75,1.0,0.5,0.0,0.75,0.0,0.0,0.25,0.02,0.33,1.14,1078.95,-18.3,65.9
0.96,0.5,0.0,2.0,0.0,0.0,0.0,1.0,0.5,0.25,0.5,0.5,0.25,0.0,-0.42,3.27,0.83,36.56,21.0,10.8,14.0,6.25,11.5,13.5,9.75,2.75,1.5,0.75,0.0,0.5,0.5,0.0,0.5,0.14,0.39,1.27,1118.25,-18.2,64.3
0.98,2.0,1.25,2.0,1.25,0.0,0.0,1.0,0.0,0.5,1.25,0.5,0.75,0.5,0.14,5.02,-0.05,73.72,18.0,22.5,14.0,6.25,10.5,11.5,8.5,2.75,2.25,0.75,0.0,0.5,0.5,0.0,0.5,0.14,0.52,1.39,1101.55,-18.5,64.6
1.0,0.75,0.0,2.25,0.0,3.0,0.0,1.5,1.0,0.5,1.25,1.5,0.75,0.25,2.45,6.39,-1.92,115.87,9.1,3.4,13.0,5.75,10.5,10.0,6.5,0.5,3.25,0.75,0.0,0.75,0.5,0.0,0.25,0.2,0.64,1.95,1036.66,-21.2,65.5
1.02,2.0,1.0,2.25,1.0,3.0,1.0,1.0,1.0,0.5,2.5,1.75,2.5,1.5,0.58,-1.11,0.14,194.22,6.5,-4.7,11.0,4.75,9.25,7.25,2.75,2.75,4.0,0.5,0.0,0.75,0.5,0.0,0.25,0.39,1.14,2.33,877.66,-21.2,63.8
1.04,2.0,1.0,2.25,1.25,1.25,2.5,1.25,2.25,0.5,2.0,2.5,4.0,2.0,0.64,0.52,2.2,261.99,4.9,-17.6,9.0,3.5,7.75,5.25,1.75,0.25,3.25,0.5,0.0,0.75,0.5,0.0,0.5,0.58,1.08,2.64,674.32,-23.9,62.5
1.06,0.0,0.0,2.25,0.0,0.75,1.75,0.5,3.0,0.5,3.25,2.5,4.0,2.75,-0.73,0.52,3.7,298.06,-0.8,-50.4,8.0,2.5,5.25,3.5,0.5,2.75,1.75,0.5,0.0,0.75,0.5,0.0,0.5,0.52,0.7,2.64,480.63,-20.0,59.1
1.08,0.5,0.0,0.0,0.0,0.0,2.25,1.0,4.75,1.25,5.0,2.75,4.25,3.25,0.02,0.58,1.52,338.19,-5.7,-62.2,5.75,1.0,3.75,0.0,1.75,0.25,1.0,0.75,0.0,0.0,0.5,0.0,0.25,0.27,-0.36,3.08,304.05,-23.5,62.0
1.1,0.0,0.0,0.0,0.0,0.5,2.5,0.0,5.75,2.0,4.25,3.5,4.5,3.0,-0.11,0.2,1.02,370.3,-6.2,-61.6,3.75,0.75,2.75,2.5,0.0,1.0,1.0,0.5,0.0,0.75,0.0,0.25,0.0,0.2,-1.23,1.64,199.44,-20.6,54.2
1.12,2.0,0.0,3.25,1.5,3.5,4.0,0.0,7.25,3.75,5.5,6.0,5.25,5.0,-0.11,0.14,0.95,495.88,0.0,-33.7,3.0,1.0,1.75,2.5,0.0,1.0,1.5,0.75,0.0,0.75,0.5,0.5,0.25,0.7,-1.86,1.89,116.71,-16.4,38.2
1.14,2.0,1.25,4.0,2.5,3.0,5.25,3.25,7.5,5.0,7.25,6.25,6.0,5.25,-0.11,0.14,0.95,669.58,1.3,-28.5,2.0,1.0,2.75,2.75,1.75,0.25,1.0,0.75,0.0,0.75,0.5,0.25,0.25,0.52,-1.42,1.7,83.57,-15.8,41.6
1.16,1.25,1.25,4.5,2.75,6.5,6.25,3.75,8.0,5.5,6.5,6.5,5.25,5.0,-0.11,0.08,0.95,876.63,0.9,-20.7,1.75,0.75,2.75,2.5,1.75,0.25,1.0,0.5,0.0,0.75,0.5,0.5,0.5,0.2,-0.98,0.77,61.04,-15.4,34.9
1.18,2.25,1.25,4.5,5.0,6.5,7.0,4.25,8.25,5.5,6.0,6.0,4.0,3.75,-0.11,0.08,0.95,1030.48,2.0,-10.8,1.25,0.75,2.5,2.75,1.75,0.75,1.0,0.75,0.0,0.75,0.25,0.0,0.5,0.02,-0.55,0.7,68.03,-12.6,38.8
1.2,2.25,1.25,4.5,5.0,6.75,7.0,4.25,8.0,5.25,5.25,4.5,3.0,2.0,-0.11,0.08,0.95,1088.04,2.3,-2.9,1.25,1.0,2.25,2.0,1.75,0.5,1.0,0.5,0.0,0.75,0.5,0.25,0.5,-0.17,-0.42,1.08,73.23,-12.9,34.7
1.22,2.5,1.25,5.0,5.5,8.25,7.5,4.25,8.0,5.25,5.0,3.25,2.5,2.0,-0.11,0.08,0.95,1099.37,2.4,3.1,1.25,0.75,2.25,2.5,1.75,0.5,1.0,0.5,0.0,0.75,0.25,0.25,0.5,-0.23,-0.3,1.2,90.39,-13.2,36.6
1.24,3.0,1.25,5.5,6.5,8.25,7.5,4.25,7.75,5.0,3.5,3.0,2.5,1.5,-0.11,0.08,0.95,1085.25,3.9,9.1,1.25,1.0,2.25,2.0,1.75,0.5,1.0,0.5,0.0,0.75,0.25,0.0,0.25,-0.23,-0.05,1.2,108.88,-13.7,43.5
1.26,3.0,1.25,5.75,6.75,8.25,7.5,4.25,7.5,4.75,3.25,1.75,2.0,1.5,-0.11,0.08,0.95,1059.43,4.0,13.2,1.25,1.0,2.25,1.75,1.75,0.5,1.0,0.5,0.0,0.75,0.5,0.25,0.5,-0.17,0.08,1.2,131.7,-12.8,34.2
1.28,3.25,1.25,5.75,7.0,8.75,7.5,4.25,7.25,4.5,3.0,1.25,1.25,1.5,-0.11,0.08,0.95,1029.06,4.2,17.5,1.0,1.0,2.0,1.25,1.25,0.25,1.0,0.5,0.0,0.75,0.5,0.0,0.5,-0.05,0.2,1.64,140.8,-13.3,33.2
1.3,4.0,1.25,6.0,8.5,9.0,7.75,3.75,6.75,3.75,3.0,0.5,0.75,1.5,-0.11,0.08,0.95,1006.1,4.8,23.6,1.25,0.75,2.25,1.5,1.75,0.5,0.75,0.5,0.0,0.75,0.25,0.0,0.5,0.08,0.39,1.77,150.93,-12.7,38.0
1.32,4.0,1.5,6.0,8.5,9.25,7.75,3.75,6.25,3.25,3.0,1.0,0.75,1.0,-0.11,0.14,0.95,971.12,5.1,25.6,1.25,0.75,2.25,1.75,1.75,0.25,0.75,0.5,0.0,0.75,0.5,0.25,0.5,0.2,0.45,2.2,159.69,-13.4,32.8
1.34,5.25,1.25,6.0,9.75,9.75,7.75,3.75,5.75,2.75,3.0,1.0,0.75,1.0,-0.11,0.14,0.95,953.79,6.0,28.9,1.25,0.75,2.25,1.5,1.75,0.5,0.5,0.5,0.0,0.75,0.5,0.0,0.25,0.45,0.83,2.45,160.85,-13.0,39.1
1.36,5.75,1.25,6.5,10.5,9.75,8.0,3.75,5.5,2.25,3.0,1.0,0.75,1.5,-0.11,0.14,0.95,946.81,6.4,29.8,1.25,0.75,2.25,1.5,1.75,0.5,0.5,0.5,0.0,0.75,0.25,0.25,0.25,0.58,1.7,2.83,160.22,-13.0,38.2
1.38,6.25,1.25,7.5,13.0,10.5,8.0,3.75,4.75,2.0,3.0,1.25,0.75,1.5,-0.11,0.14,0.95,993.47,7.7,33.0,1.25,0.5,2.25,1.5,1.75,0.5,0.5,0.5,0.0,0.75,0.5,0.25,0.5,0.64,2.89,2.7,160.39,-12.3,30.7
1.4,7.0,1.75,7.75,13.5,12.5,8.0,3.75,4.5,1.75,3.0,1.5,0.75,1.5,-0.11,0.14,0.95,1073.96,7.9,35.3,1.25,0.75,2.25,1.75,1.75,0.25,1.0,0.5,0.0,0.75,0.5,0.25,0.5,0.7,4.14,0.58,164.36,-13.6,32.7
1.42,8.0,2.25,8.75,14.5,12.5,8.0,4.25,4.0,1.25,3.0,2.0,0.75,1.25,-0.11,0.14,0.95,1177.06,9.2,38.1,1.0,0.75,2.25,1.75,1.75,0.5,1.0,0.5,0.0,0.75,0.5,0.25,0.5,-0.42,5.52,-1.42,167.75,-12.4,31.4
1.44,8.75,2.0,9.75,16.0,14.0,8.0,4.25,3.5,1.25,3.0,1.75,0.75,1.25,-0.11,0.2,0.95,1296.58,9.9,40.4,1.0,1.0,2.25,1.5,0.25,1.75,0.75,0.5,0.0,0.5,0.5,0.25,0.5,-2.61,6.33,-1.3,167.22,-11.3,31.7
1.46,9.75,2.25,10.5,16.0,14.5,8.0,3.75,3.0,1.0,2.75,2.0,0.75,1.5,-0.11,0.2,1.02,1369.88,10.5,41.9,1.0,0.5,1.5,1.75,1.75,1.75,1.0,0.75,0.0,0.75,0.5,0.5,0.75,-0.23,-0.3,0.39,172.92,-6.1,21.1
1.48,10.5,2.75,11.5,18.0,14.5,8.0,3.0,3.0,0.75,2.75,1.5,0.75,1.25,-0.11,0.2,1.08,1442.54,11.3,45.0,1.25,0.5,0.5,0.25,0.0,0.0,0.5,0.0,0.0,0.5,0.0,0.5,0.5,0.39,0.14,1.64,139.02,-16.3,16.4
1.5,11.5,2.5,12.5,18.0,16.0,8.0,3.0,3.0,0.75,2.0,1.25,0.75,1.0,-0.11,0.2,1.08,1506.45,11.9,47.8,1.0,0.0,1.25,0.25,0.0,0.0,0.5,3.5,2.0,5.25,2.75,4.5,2.5,0.27,1.45,6.08,199.82,-0.4,-60.1
1.52,12.0,3.25,13.5,18.0,16.0,7.0,1.75,2.25,0.5,2.0,1.75,0.75,0.75,-0.17,0.27,1.2,1550.74,13.0,49.9,2.0,0.75,1.25,1.75,2.25,2.75,1.75,4.0,3.25,6.0,5.75,4.75,5.5,-0.11,0.27,0.95,311.42,-0.4,-39.0
1.54,12.5,2.5,14.0,14.5,14.5,5.75,1.0,1.75,0.5,1.75,1.5,0.75,1.0,-0.3,0.33,1.33,1525.41,14.1,50.5,2.25,1.0,2.75,2.75,2.25,3.75,2.25,5.0,4.25,6.5,6.0,4.5,5.75,0.02,0.08,0.89,486.02,-1.5,-31.0
1.56,13.0,2.75,15.0,14.5,11.5,5.25,0.75,1.0,0.5,1.75,1.25,0.75,0.75,-0.3,0.39,1.45,1465.93,16.2,53.1,2.25,1.25,4.75,3.0,2.25,5.0,2.75,5.5,5.25,6.75,6.5,4.5,5.75,0.08,0.14,0.95,680.26,-2.7,-25.6
1.58,13.0,2.5,14.0,12.5,9.75,3.5,1.75,1.0,0.25,1.75,1.25,0.75,0.75,-0.42,0.58,1.95,1354.83,17.6,53.3,3.0,1.75,5.0,3.0,4.5,5.25,3.25,6.0,5.5,6.5,6.5,4.0,5.0,0.08,0.14,0.95,855.14,-3.2,-16.7
1.6,11.5,1.5,12.5,8.75,8.25,1.75,3.25,1.0,0.25,0.5,1.25,0.0,0.5,-0.92,1.08,2.83,1140.87,20.0,57.2,3.75,2.0,4.75,5.0,5.25,6.0,4.0,6.75,6.0,5.25,6.5,3.0,4.25,0.08,0.14,0.95,990.07,-4.0,-7.4
1.62,8.5,1.0,9.5,7.0,6.75,1.25,2.25,1.0,0.25,1.5,0.5,0.75,0.5,-0.98,1.2,2.83,873.4,18.2,50.4,4.25,1.75,5.5,5.25,6.25,6.25,4.0,6.75,6.0,4.5,5.0,2.0,3.0,0.08,0.14,0.95,1065.17,-4.9,2.0
1.64,6.75,0.0,7.75,2.5,4.25,0.5,1.0,0.5,0.0,0.5,0.0,0.0,0.0,-0.73,0.95,2.89,569.78,22.8,62.7,5.0,2.0,6.0,7.0,7.25,6.25,4.25,6.75,5.5,3.75,4.0,1.25,2.0,0.08,0.14,0.95,1123.17,-6.2,12.7
1.66,5.5,0.0,5.0,0.0,3.75,2.25,1.5,1.0,0.0,1.75,0.5,0.75,0.0,-0.67,-0.36,3.14,355.63,14.2,39.7,5.75,2.25,6.75,7.0,7.25,6.25,4.0,6.0,5.25,2.5,3.0,0.75,1.25,0.08,0.14,0.95,1129.38,-7.9,21.8
1.68,2.25,0.0,3.5,1.5,4.75,0.0,1.5,0.25,0.0,1.25,1.25,0.75,0.5,-0.11,-0.67,0.89,223.09,13.3,28.4,5.75,2.5,6.75,7.75,7.25,6.25,4.0,5.25,4.75,2.25,2.75,0.5,1.25,0.08,0.14,0.95,1110.17,-8.4,25.5
1.7,2.75,0.0,4.25,2.5,4.75,1.5,1.5,0.0,0.25,1.5,1.25,0.75,0.75,-0.67,-1.67,1.83,164.1,12.1,30.0,6.25,2.5,6.75,8.75,7.75,6.25,3.75,4.75,3.75,1.5,2.5,0.5,0.25,0.08,0.14,0.95,1065.16,-9.6,33.2
1.72,2.5,0.0,3.25,1.5,3.75,0.0,1.25,0.0,0.25,0.75,1.0,0.5,0.75,-0.48,-0.98,1.2,107.83,15.3,31.9,6.5,2.5,7.0,8.75,8.0,5.75,3.25,3.75,2.75,1.5,1.75,0.5,0.25,0.08,0.2,0.95,1002.02,-10.4,38.0
1.74,2.0,0.0,2.25,1.0,1.25,0.0,1.25,0.0,0.25,0.75,0.5,0.75,0.0,-0.55,-0.8,0.33,55.86,19.9,30.9,7.0,2.5,7.75,9.25,8.25,5.0,3.0,2.5,2.0,1.0,1.75,0.5,0.75,0.02,0.2,0.95,919.27,-12.1,41.9
1.76,2.0,0.0,2.25,1.75,1.75,1.75,1.0,0.0,0.25,1.5,0.0,0.75,0.0,-0.55,-0.67,0.02,33.13,11.2,31.8,7.0,2.25,7.75,10.0,8.5,5.75,2.75,2.25,1.5,0.75,1.75,0.5,0.75,0.02,0.2,0.95,867.44,-11.8,43.6
1.78,1.5,0.0,2.0,0.75,3.0,0.0,1.0,0.0,0.25,0.5,0.25,0.0,0.0,-0.48,-0.55,0.14,16.66,15.5,48.0,7.5,2.5,7.75,10.5,8.5,5.5,2.75,2.25,1.25,1.0,1.0,0.25,0.5,0.02,0.2,0.95,842.51,-12.3,47.6
1.8,2.25,1.25,3.75,2.5,3.0,0.0,1.75,0.75,0.25,0.5,1.25,0.0,0.0,-0.3,-0.48,0.45,66.11,17.4,45.0,8.0,2.5,8.5,10.5,8.5,5.0,2.75,1.5,1.25,1.0,1.25,0.5,0.75,0.02,0.2,0.89,833.18,-13.5,47.5
1.82,1.25,0.0,2.0,2.5,3.0,1.0,1.0,0.0,0.0,0.5,0.0,0.75,0.0,-0.11,-0.42,0.89,95.79,12.1,41.9,8.25,2.75,8.75,12.0,8.5,5.0,2.75,2.25,1.0,0.75,0.75,0.5,0.5,0.02,0.2,0.89,846.89,-13.7,50.0
1.84,0.5,0.0,2.0,0.25,3.0,0.0,1.0,0.0,0.0,0.5,0.0,0.0,0.0,-0.11,-0.42,1.14,110.4,13.2,48.0,8.75,3.0,9.25,13.5,9.0,5.0,3.25,2.0,0.75,0.75,0.75,0.5,0.5,0.02,0.2,0.95,888.89,-14.2,51.6
1.86,1.0,0.0,2.0,0.25,2.25,0.0,0.75,0.0,0.0,0.5,1.0,0.0,0.0,-0.05,-0.17,1.14,104.9,15.8,35.1,9.0,3.25,10.5,14.0,9.75,5.0,3.75,1.25,0.75,0.75,0.75,0.25,0.0,0.02,0.2,0.95,948.27,-15.3,55.5
1.88,1.0,0.0,2.0,0.0,1.75,0.0,1.0,0.0,0.0,0.5,0.0,0.0,0.0,-0.11,0.02,1.27,94.22,18.7,50.1,9.75,3.25,11.5,15.5,9.75,5.25,4.0,1.0,0.75,1.0,0.75,0.5,0.5,0.02,0.2,0.95,1032.44,-15.6,53.8
1.9,0.5,0.0,2.0,0.0,2.5,0.0,0.75,0.0,0.0,0.5,0.0,0.0,0.0,-0.11,0.08,1.45,80.7,14.2,47.4,10.0,3.25,12.5,17.0,11.0,5.75,4.0,1.0,0.75,0.75,0.5,0.5,0.5,0.02,0.2,0.95,1139.45,-15.5,55.0
1.92,1.0,0.0,2.0,0.0,2.5,0.0,0.75,0.0,0.0,0.0,0.0,0.0,0.0,-0.11,0.2,1.77,76.83,18.1,61.1,11.0,4.0,13.0,16.0,12.0,5.0,4.0,0.75,0.25,0.75,0.5,0.25,0.0,0.02,0.2,0.95,1229.32,-16.3,59.1
1.94,1.25,0.0,2.0,0.25,2.5,0.0,1.0,0.0,0.0,0.0,0.0,0.0,0.0,-0.23,0.45,1.95,82.93,18.9,61.6,11.0,4.0,14.0,17.0,12.5,4.75,4.0,0.75,0.0,0.75,0.5,0.25,0.5,0.02,0.27,1.08,1310.86,-16.4,58.3
1.96,0.75,0.0,1.75,0.0,3.0,0.0,1.0,0.0,0.0,0.0,0.0,0.0,0.0,-0.36,0.58,2.45,90.46,15.1,58.4,11.5,4.25,14.5,17.0,12.5,5.0,3.75,0.5,0.0,0.75,0.5,0.25,0.25,0.02,0.27,1.14,1356.26,-16.8,59.6
1.98,0.25,0.0,2.0,0.0,3.0,0.0,0.75,0.0,0.0,0.0,0.0,0.0,0.0,-0.55,1.52,2.89,92.72,14.2,56.1,11.0,3.5,13.5,16.5,12.5,3.75,3.25,0.75,0.0,0.5,0.5,0.25,0.5,-0.05,0.33,1.08,1356.9,-16.9,59.0
2.0,0.5,0.0,1.25,0.0,3.0,0.0,1.0,0.0,0.0,0.0,0.0,0.0,0.0,-0.48,2.45,5.02,86.59,12.2,56.6,11.0,3.75,15.0,15.5,11.0,2.75,2.75,0.0,0.0,0.0,0.0,0.0,0.0,0.02,0.33,1.2,1315.88,-19.5,65.2
2.02,0.75,0.0,2.0,0.0,2.5,0.0,1.0,0.0,0.0,0.0,0.0,0.0,0.0,0.33,2.95,1.2,87.16,17.8,59.0,12.5,4.5,13.5,17.0,9.75,3.25,2.75,0.5,0.0,0.75,0.5,0.0,0.5,0.08,0.45,1.27,1287.06,-18.4,61.5
2.04,0.75,0.0,1.75,0.0,2.25,0.0,1.0,0.0,0.0,0.5,0.0,0.0,0.0,0.33,5.52,-0.17,85.23,15.2,48.1,12.0,4.75,14.5,14.0,8.75,2.75,4.25,0.5,0.0,0.75,0.5,0.0,0.25,0.14,0.58,1.33,1226.89,-19.7,62.2
2.06,1.0,0.0,1.75,0.0,2.5,0.0,0.5,0.0,0.0,0.5,0.0,0.0,0.0,1.83,6.33,-0.98,95.75,14.4,51.0,11.5,4.5,13.5,12.0,7.25,2.75,5.5,0.5,0.0,0.5,0.0,0.0,0.0,0.27,0.7,1.58,1134.66,-20.6,64.4
2.08,1.0,0.0,2.25,1.0,3.0,0.0,0.75,1.0,0.25,0.5,1.25,0.75,0.25,-0.48,0.83,0.39,129.5,11.0,16.6,9.5,3.5,11.0,9.75,1.75,2.75,6.0,0.25,0.0,0.75,0.0,0.0,0.25,0.52,1.2,2.58,939.89,-22.7,62.8
2.1,2.5,0.75,2.25,0.25,3.0,0.0,1.0,1.25,0.25,1.5,1.5,1.75,1.0,-0.05,-1.3,1.58,176.87,9.7,4.4,8.25,2.75,9.25,7.25,1.75,2.75,4.75,0.5,0.0,0.75,0.5,0.0,0.25,0.33,1.45,2.77,735.03,-21.6,59.4
2.12,0.5,0.0,2.25,0.0,3.0,0.0,1.0,1.75,0.25,2.0,2.0,1.0,1.5,0.64,0.58,1.33,207.84,3.9,-17.5,6.5,1.75,7.75,5.25,1.75,2.75,2.75,0.5,0.0,0.75,0.5,0.0,0.5,0.27,1.2,3.08,527.41,-19.9,55.5
2.14,0.75,0.0,1.25,0.5,0.0,2.5,0.5,5.0,0.5,5.0,1.25,3.25,1.5,-0.23,0.89,2.64,252.81,-4.5,-43.6,3.75,0.75,5.75,1.5,1.75,0.0,1.75,0.5,0.0,0.75,0.5,0.0,0.25,0.45,-0.55,2.7,334.49,-23.3,51.8
2.16,0.0,0.75,0.25,2.5,1.75,4.25,1.25,6.75,2.0,7.0,3.25,5.25,4.5,0.08,0.14,1.39,355.08,-5.0,-43.1,2.25,0.75,4.75,2.75,1.75,0.0,0.75,0.5,0.0,0.75,0.25,0.0,0.25,-0.05,0.02,0.08,221.26,-20.5,50.2
2.18,2.25,1.0,2.0,2.5,4.25,4.75,0.0,8.0,3.75,7.75,6.0,6.25,5.25,-0.05,0.2,1.02,547.73,-1.3,-32.3,2.0,1.0,3.25,2.75,1.75,1.75,1.0,0.5,0.0,0.75,0.0,0.25,0.25,0.52,-0.92,1.89,137.32,-13.6,46.6
2.2,1.25,1.25,4.5,3.25,6.0,5.5,3.0,8.0,4.75,7.75,7.25,7.0,5.5,-0.05,0.14,0.95,798.29,0.9,-26.2,2.0,1.0,2.75,2.5,1.75,0.25,1.0,0.5,0.0,0.75,0.5,0.25,0.25,0.58,-1.23,1.58,85.45,-16.4,42.8
2.22,0.75,1.0,4.5,3.5,6.25,5.75,3.75,8.5,5.0,8.0,7.75,7.0,6.0,-0.11,0.08,0.95,1021.32,0.5,-27.7,1.5,1.0,2.75,2.75,1.75,0.25,0.75,0.5,0.0,0.75,0.5,0.0,0.5,0.45,-0.8,0.89,63.3,-15.1,41.1
2.24,2.75,1.0,4.5,2.5,6.5,6.25,4.25,8.5,5.25,8.0,7.75,6.25,5.75,-0.05,0.08,0.95,1177.91,1.2,-23.4,1.75,1.0,2.75,2.75,2.25,0.0,1.0,0.5,0.0,0.5,0.5,0.25,0.25,0.33,-0.42,0.45,65.04,-16.5,44.9
2.26,2.5,1.25,4.5,2.75,6.5,7.0,4.25,9.0,5.25,7.75,7.25,6.0,5.25,-0.11,0.08,0.95,1253.03,0.8,-21.0,1.25,1.0,2.75,2.75,1.5,0.25,1.0,0.5,0.0,0.5,0.5,0.0,0.25,0.27,-0.23,0.39,66.93,-16.6,45.2
2.28,2.0,1.25,4.5,4.5,6.5,7.0,4.25,9.0,5.25,7.0,6.5,5.25,4.75,-0.11,0.08,0.95,1273.59,1.1,-16.8,1.0,1.0,2.5,2.75,1.5,1.25,1.25,0.5,0.0,0.25,0.25,0.25,0.25,0.14,-0.17,0.89,84.03,-13.6,44.6
2.3,1.5,1.25,4.5,5.0,6.75,7.0,4.25,8.75,5.0,6.5,6.0,4.0,3.5,-0.11,0.08,0.95,1240.16,1.3,-11.8,1.0,0.75,2.5,2.75,1.5,1.5,1.0,0.5,0.0,0.5,0.0,0.0,0.25,0.08,-0.05,1.08,106.68,-12.2,46.5
2.32,2.0,1.5,4.5,5.0,8.0,7.0,4.25,8.5,5.0,5.25,5.0,3.5,2.75,-0.11,0.08,0.95,1185.02,1.8,-4.5,1.25,0.75,2.25,2.0,1.5,1.25,1.0,0.5,0.0,0.5,0.5,0.0,0.25,-0.05,0.08,1.14,129.49,-12.4,41.5
2.34,1.75,1.25,4.75,5.25,8.25,7.25,4.25,8.0,4.5,4.75,4.25,2.5,1.75,-0.11,0.08,0.95,1104.61,2.0,1.4,1.25,0.75,2.5,2.0,1.5,1.0,1.0,0.5,0.0,0.5,0.25,0.0,0.5,-0.05,0.27,1.27,144.07,-13.2,41.2
2.36,2.25,1.0,4.75,6.75,8.25,7.25,4.0,8.0,3.75,4.25,3.5,2.5,1.5,-0.11,0.08,0.95,1032.62,2.6,5.9,1.25,0.75,2.5,2.0,1.5,1.25,1.0,0.5,0.0,0.5,0.5,0.0,0.25,0.14,0.33,1.33,159.6,-13.0,42.0
2.38,2.5,1.5,4.75,7.0,8.25,7.75,3.75,7.75,3.5,3.5,2.5,2.0,1.5,-0.11,0.08,0.95,953.2,2.7,11.6,1.0,0.75,2.25,2.25,1.5,1.25,1.0,0.5,0.0,0.25,0.25,0.25,0.25,0.2,0.58,1.52,170.08,-12.7,42.5
2.4,2.75,1.25,5.0,7.25,8.5,8.0,3.75,7.5,2.75,3.25,2.5,1.5,1.5,-0.11,0.14,0.95,888.0,2.9,14.7,1.25,0.5,2.5,1.25,1.5,1.25,1.25,0.25,0.0,0.5,0.25,0.25,0.25,0.27,0.7,1.89,167.24,-13.6,40.2
2.42,2.75,1.25,5.25,8.75,9.5,8.0,3.25,7.5,2.75,3.0,2.25,1.0,1.5,-0.11,0.14,0.95,862.13,3.2,18.8,1.25,0.75,2.5,1.5,1.5,1.25,1.0,0.5,0.0,0.25,0.25,0.0,0.5,0.39,1.27,2.52,166.16,-12.9,42.9
2.44,3.25,1.25,4.75,9.75,9.25,8.25,3.0,7.0,2.25,3.0,2.5,1.0,1.5,-0.11,0.14,0.95,858.41,3.4,20.2,1.0,0.75,2.25,1.75,1.5,1.5,1.0,0.5,0.0,0.5,0.5,0.0,0.25,0.39,2.58,2.33,167.29,-11.1,39.8
2.46,3.5,1.25,5.75,11.5,10.5,8.75,3.0,6.75,2.0,3.0,2.25,0.75,1.5,-0.11,0.14,0.95,900.5,4.2,24.7,1.25,0.75,2.25,1.5,1.5,1.0,1.0,0.5,0.0,0.5,0.0,0.0,0.25,0.77,3.89,1.7,164.37,-13.1,46.4
2.48,4.25,2.0,6.0,13.5,12.0,8.75,3.0,6.75,2.0,3.0,2.25,1.0,1.5,-0.11,0.14,0.95,986.44,4.9,27.7,1.0,0.75,2.25,1.5,1.5,1.0,1.0,0.5,0.0,0.5,0.0,0.25,0.25,0.64,4.02,-0.36,161.69,-12.5,41.4
2.5,5.5,2.0,6.75,14.5,12.5,8.75,3.25,6.25,2.0,3.0,2.25,0.75,1.5,-0.11,0.14,0.95,1096.23,6.1,30.9,1.25,0.75,2.25,2.0,1.25,1.25,1.0,0.5,0.0,0.5,0.0,0.0,0.25,-1.05,3.64,-0.48,162.61,-12.9,46.5
2.52,6.25,2.25,7.75,16.0,14.5,8.75,3.75,5.75,1.25,3.0,2.0,0.75,1.5,-0.11,0.14,0.95,1230.18,7.0,35.0,1.25,0.75,2.25,1.5,1.5,1.25,1.0,0.5,0.0,0.5,0.5,0.0,0.25,-2.17,4.08,0.2,164.17,-12.2,40.7
2.54,7.0,2.5,8.5,18.0,15.0,9.0,3.75,5.75,1.25,3.0,1.75,0.75,1.5,-0.11,0.14,0.95,1353.9,7.6,37.1,1.0,0.5,2.25,1.5,1.0,1.25,1.0,0.5,0.0,0.5,0.5,0.0,0.5,-3.73,3.77,1.83,162.29,-11.9,33.4
2.56,7.75,2.75,9.5,18.5,16.0,9.25,3.75,4.75,1.0,3.0,1.5,0.75,1.5,-0.11,0.14,1.02,1447.07,8.4,40.0,0.0,0.0,1.75,0.25,1.25,0.0,0.5,0.0,0.0,0.0,0.0,0.0,7.5,-0.17,0.52,1.33,165.84,2.5,-55.7
2.58,9.5,2.75,11.5,19.5,16.5,8.75,3.0,3.0,0.5,2.0,1.25,0.75,1.25,-0.11,0.2,1.08,1519.85,10.6,46.5,1.25,0.75,0.25,1.5,0.0,2.75,0.5,0.75,0.75,3.5,0.0,1.0,1.0,-1.8,1.08,0.89,174.85,2.0,-11.1
2.6,10.0,2.75,12.0,19.5,17.0,8.75,1.75,2.5,0.25,2.25,1.75,0.75,1.25,-0.17,0.2,1.14,1569.84,10.8,46.8,1.25,0.0,0.0,1.25,0.0,2.75,0.75,3.25,1.5,4.0,0.25,2.25,4.0,-0.17,0.52,1.14,216.19,5.6,-44.0
2.62,10.5,2.75,12.0,16.5,16.5,8.0,0.5,1.5,0.25,1.75,1.5,0.75,1.0,-0.23,0.27,1.27,1556.23,11.5,49.7,1.25,0.75,1.25,0.75,0.0,2.5,1.5,4.75,2.75,6.0,4.75,4.0,2.5,0.02,0.14,1.02,291.74,0.2,-43.9
2.64,11.5,1.75,12.5,16.0,16.0,7.0,0.0,1.0,0.25,1.5,1.25,0.75,1.0,-0.23,0.33,1.33,1509.31,12.8,51.3,1.25,1.0,2.75,2.75,1.75,4.0,2.25,5.0,4.0,6.5,5.0,4.5,5.25,0.08,0.2,0.95,428.7,-0.7,-32.6
2.66,11.5,2.25,12.5,13.5,12.5,6.0,0.0,1.0,0.25,1.5,1.0,0.75,0.75,-0.42,0.52,1.77,1405.83,14.2,52.7,2.0,1.0,3.0,3.0,2.25,5.0,2.75,6.0,5.25,7.25,6.5,5.5,6.0,0.08,0.2,0.95,623.02,-1.0,-32.1
2.68,9.5,1.5,11.5,8.5,8.25,3.75,0.5,1.0,0.25,0.5,0.25,0.0,0.0,-0.73,0.89,2.33,1163.56,17.4,60.0,2.0,1.25,4.25,3.0,3.5,5.0,2.75,6.75,5.5,7.25,7.25,5.5,6.25,0.08,0.2,0.95,813.47,-1.6,-28.4
2.7,9.75,1.75,9.25,7.25,8.25,4.0,1.25,1.0,0.25,2.0,0.5,0.75,0.25,-0.98,0.89,2.89,925.62,15.0,51.4,2.0,1.5,5.0,3.0,5.25,5.25,3.0,6.75,5.75,7.25,7.25,5.25,6.25,0.08,0.14,0.95,973.8,-2.0,-23.5
2.72,7.5,0.0,7.75,4.75,6.5,2.5,0.75,1.0,0.0,0.5,1.25,0.0,0.0,-0.67,0.83,2.83,658.2,16.9,54.2,2.5,1.75,5.0,3.25,5.25,5.75,3.25,7.25,5.75,6.5,6.75,4.25,6.0,0.08,0.14,0.95,1072.61,-2.1,-18.6
2.74,5.5,0.0,4.5,0.0,5.25,0.25,0.5,0.75,0.0,1.25,0.0,0.75,0.0,-0.55,0.2,3.2,407.99,16.4,48.2,2.0,1.75,4.75,3.5,5.25,5.75,3.25,6.75,5.5,6.0,6.5,3.25,4.75,0.08,0.14,0.95,1094.16,-2.2,-14.9
2.76,4.25,0.0,4.5,0.0,5.75,0.0,1.0,0.0,0.0,0.5,0.0,0.0,0.0,-0.17,-1.42,1.58,252.83,18.5,61.7,2.25,1.75,5.0,4.0,5.25,5.75,3.25,6.75,5.5,5.25,5.0,2.5,4.0,0.08,0.14,0.95,1066.43,-2.8,-8.4
2.78,2.75,0.0,2.5,0.75,3.0,0.0,0.5,0.0,0.25,0.5,0.0,0.0,0.0,-0.55,-1.05,2.89,122.12,18.6,57.6,2.0,1.75,5.0,4.0,5.25,5.75,3.0,6.5,5.25,3.75,4.0,2.0,2.75,0.08,0.14,0.95,989.57,-3.5,-1.7
2.8,2.75,0.0,2.25,0.75,2.5,0.0,0.5,0.0,0.0,0.5,0.0,0.0,0.0,-0.55,-1.48,1.39,20.45,19.6,60.3,2.25,1.75,5.0,4.75,5.25,5.75,2.75,6.0,4.75,3.5,3.25,1.25,2.25,0.08,0.14,0.95,900.88,-4.0,4.7
2.82,2.5,0.25,2.0,2.5,3.0,0.0,0.0,0.0,0.25,0.5,0.0,0.25,0.0,-0.55,-1.05,0.33,0.0,16.5,54.7,2.25,1.75,5.0,5.0,5.25,5.75,2.75,6.0,4.5,2.25,2.75,0.75,0.5,0.08,0.14,0.95,798.47,-5.2,14.5
2.84,4.0,1.0,2.25,2.5,3.0,0.0,0.5,0.0,0.25,1.25,0.0,0.75,0.0,-0.48,-0.67,0.33,7.14,16.8,48.9,2.25,1.75,5.0,5.25,5.25,5.75,2.75,5.75,4.0,2.25,2.75,0.5,0.5,0.08,0.14,0.95,712.46,-5.3,16.4
2.86,3.25,1.25,3.75,2.5,3.0,0.0,0.5,0.0,0.25,1.25,1.0,0.75,0.5,-0.42,-0.48,0.7,66.57,16.7,37.7,2.25,1.75,5.0,5.25,5.5,6.0,2.75,5.75,4.25,2.0,2.75,0.5,0.25,0.08,0.14,0.95,648.11,-5.3,17.7
2.88,3.25,0.75,3.5,2.5,3.5,0.25,0.5,0.0,0.25,0.5,1.0,0.75,0.75,-0.3,-0.36,1.02,122.96,16.2,38.7,1.5,1.75,5.0,6.25,6.25,6.0,2.75,6.0,4.5,2.25,2.75,0.25,0.75,0.08,0.14,0.95,623.41,-4.5,16.2
2.9,3.5,1.25,3.5,2.5,3.0,0.0,1.5,0.0,0.25,1.5,1.0,0.75,0.75,-0.23,-0.23,1.14,178.56,16.2,34.4,3.75,2.0,5.0,7.0,7.0,6.25,3.0,6.0,4.75,2.0,2.75,0.5,1.0,0.08,0.14,0.95,651.25,-5.9,20.3
2.92,3.5,1.0,3.25,2.25,3.0,0.0,1.5,0.75,0.5,1.5,1.0,0.75,0.5,-0.3,0.08,1.08,219.01,15.0,31.0,3.75,2.0,5.25,8.0,7.0,6.25,3.25,6.0,4.75,2.0,2.5,0.5,0.5,0.08,0.14,0.95,696.36,-6.6,23.1
2.94,2.0,0.0,3.0,2.25,1.25,0.0,1.5,0.0,0.25,1.5,0.0,0.75,0.0,-0.36,0.2,1.27,212.24,19.1,33.4,5.0,2.5,6.0,8.75,7.25,6.25,3.5,5.75,4.75,2.0,2.5,0.5,0.5,0.08,0.14,0.95,766.53,-7.9,26.9
2.96,3.5,1.5,2.0,2.0,0.5,0.0,1.0,0.0,0.25,1.5,0.0,0.75,0.0,-0.42,0.33,1.39,211.58,19.8,44.6,5.75,2.75,6.5,10.5,8.5,6.25,3.75,5.5,4.75,2.0,2.25,0.5,0.5,0.08,0.2,0.95,858.31,-8.7,30.7
2.98,2.75,1.25,3.0,0.0,3.0,0.0,1.5,1.0,0.25,1.5,1.0,0.75,0.75,-0.55,0.45,1.7,219.05,12.5,22.6,7.0,3.25,6.75,12.0,8.5,6.75,4.0,5.0,4.0,2.0,2.0,0.5,0.25,0.08,0.2,0.95,960.5,-9.6,35.8
3.0,2.5,1.0,2.0,0.0,2.25,0.25,1.0,0.75,0.0,0.5,1.0,0.75,0.5,-0.67,0.58,2.02,208.91,13.4,27.6,8.0,3.5,7.75,13.5,9.5,7.0,4.0,4.75,3.25,1.75,2.0,0.5,0.25,0.08,0.2,0.95,1072.71,-10.5,39.7
3.02,3.0,0.75,3.0,1.25,3.0,1.0,1.5,1.0,0.25,1.25,1.0,0.75,0.5,-0.86,0.83,2.64,226.64,12.0,27.9,8.75,4.25,8.25,14.5,9.75,7.0,3.75,3.75,2.0,0.75,1.75,0.5,0.5,0.08,0.2,0.95,1164.97,-11.7,45.9
3.04,1.75,0.0,3.0,0.25,3.0,1.0,1.5,0.75,0.25,2.0,0.0,0.5,0.0,-1.05,1.7,2.7,219.46,9.8,26.2,9.0,4.75,8.75,15.5,11.0,6.25,3.0,2.5,1.25,0.5,1.25,0.5,0.5,0.02,0.2,1.08,1229.83,-12.6,51.2
3.06,2.5,1.0,3.0,1.0,3.0,1.0,1.0,0.0,0.25,1.5,1.0,0.75,0.75,0.39,1.45,-0.55,226.4,11.9,26.9,9.75,3.0,9.0,15.5,11.0,6.0,2.5,2.25,0.75,0.75,0.5,0.5,0.75,0.02,0.2,1.14,1241.08,-13.0,51.9
3.08,2.25,0.75,2.0,1.75,1.25,2.0,0.5,0.0,0.25,1.5,0.0,0.75,0.0,-0.55,3.95,0.2,209.02,10.8,35.6,10.5,4.0,9.25,15.0,11.0,5.5,1.75,1.25,0.25,0.5,0.5,0.5,0.5,0.08,0.27,1.2,1223.42,-14.2,56.9
3.1,2.25,0.5,2.5,1.5,3.0,0.0,1.25,1.0,0.25,1.5,1.25,0.75,0.5,1.33,5.08,-0.67,215.22,11.7,19.6,11.0,4.75,9.25,14.0,9.75,0.0,1.75,0.75,0.0,0.0,0.75,0.25,0.5,0.14,0.33,1.2,1130.25,-18.9,62.9
3.12,2.5,1.0,2.5,0.0,3.0,1.25,1.25,0.25,0.5,2.0,1.25,1.75,0.75,3.02,5.58,-1.17,222.79,9.2,10.3,11.0,5.0,9.25,11.5,8.5,0.0,1.25,0.75,0.0,0.0,0.5,0.0,0.75,0.08,0.33,1.39,1011.7,-19.5,64.4
3.14,2.25,1.0,2.25,1.0,3.0,1.0,1.0,2.0,0.5,2.0,2.0,2.5,1.5,0.45,-0.48,1.2,250.99,6.3,-4.3,11.0,3.25,8.75,8.25,6.5,0.0,2.25,0.75,0.0,0.0,0.5,0.0,0.5,0.08,0.52,1.77,847.66,-21.4,64.7
3.16,1.25,0.0,2.5,0.0,3.0,1.25,1.0,1.0,0.25,2.0,1.0,3.5,1.5,1.14,1.02,1.02,258.59,5.0,-17.3,9.75,3.5,8.5,7.25,1.75,2.75,2.75,0.5,0.0,0.5,0.25,0.25,0.25,0.52,0.83,2.2,693.4,-21.5,63.2
3.18,0.0,0.0,2.0,0.25,0.0,2.75,1.0,4.75,1.25,4.25,3.0,4.25,2.0,-0.3,0.89,1.27,291.72,-2.0,-49.1,8.25,2.75,7.75,5.5,0.25,2.5,3.0,0.5,0.0,0.5,0.5,0.25,0.5,0.7,0.95,2.45,535.39,-22.3,59.2
3.2,1.5,0.25,0.0,0.0,0.5,2.5,0.0,6.25,2.0,4.0,5.0,4.75,3.5,-0.11,0.08,1.08,338.03,-3.4,-54.2,7.0,1.75,5.75,4.25,0.25,2.75,2.25,0.5,0.25,0.5,0.5,0.0,0.5,0.52,0.77,2.39,397.61,-20.6,56.6
3.22,1.5,1.25,2.25,1.75,3.0,4.0,0.5,6.75,2.75,4.5,4.5,5.25,3.75,-0.17,0.08,0.95,433.09,-0.3,-28.7,5.0,1.25,4.0,3.0,1.5,0.0,1.75,0.5,0.0,0.5,0.0,0.0,0.5,0.33,0.08,2.95,285.4,-22.5,58.9
3.24,1.75,1.25,3.25,1.5,4.25,4.0,2.75,6.75,3.5,6.5,6.0,6.0,4.25,-0.11,0.14,0.95,577.93,1.0,-28.5,1.25,0.0,1.5,1.5,0.0,0.0,0.75,0.0,0.0,0.0,0.0,0.0,0.0,0.58,-1.3,0.95,153.97,-29.8,66.6
3.26,2.25,1.25,4.5,2.25,3.75,4.5,3.0,6.75,4.5,6.5,6.5,6.25,4.5,-0.05,0.08,0.95,728.32,2.5,-25.7,0.75,0.0,1.5,0.5,0.0,0.0,0.75,0.0,0.0,0.0,0.0,0.0,0.0,0.77,-1.48,2.02,24.68,-33.3,64.8
3.28,2.25,1.0,4.5,2.5,3.75,4.0,3.5,7.5,4.75,6.5,7.25,6.25,5.0,-0.11,0.08,0.95,856.27,2.6,-27.8,0.75,0.0,1.25,0.25,0.0,0.0,0.5,0.0,0.0,0.0,0.0,0.0,0.0,0.39,-1.36,1.39,0.0,-34.5,67.8
3.3,2.25,1.0,4.5,2.5,4.5,4.25,3.5,7.5,4.75,6.5,7.25,6.25,5.0,-0.05,0.08,0.95,937.8,2.4,-26.3,0.5,0.0,1.25,0.0,0.0,0.0,0.5,0.0,0.0,0.0,0.0,0.0,0.0,0.2,-0.98,0.89,0.0,-36.8,65.6
3.32,2.25,1.25,4.5,2.0,3.5,3.25,3.25,7.5,4.75,6.5,7.25,6.0,4.75,-0.11,0.08,0.95,963.32,2.9,-28.6,0.0,0.0,1.0,0.0,0.0,0.0,0.5,0.0,0.0,0.0,0.0,0.0,0.0,0.08,-0.67,0.77,0.0,-37.1,54.6
3.34,1.75,1.0,4.5,2.75,4.5,3.75,3.25,7.5,5.0,6.5,7.0,6.0,4.5,-0.11,0.08,0.95,964.11,2.5,-26.3,0.0,0.0,0.75,0.0,0.0,0.0,0.5,0.0,0.0,0.0,0.0,0.0,0.0,0.02,-0.55,0.89,0.0,-36.9,53.0
3.36,2.25,1.0,4.5,2.5,3.5,3.75,3.75,7.5,5.25,6.75,6.75,6.0,4.25,-0.11,0.08,0.95,947.04,2.9,-26.7,1.25,0.0,0.75,1.5,0.0,1.5,0.75,0.0,0.25,0.5,0.0,0.0,0.25,-0.23,-0.36,1.02,0.0,-10.8,37.3
3.38,2.25,0.75,4.5,2.5,3.5,4.0,3.75,7.5,5.5,6.5,6.75,5.75,3.75,-0.11,0.08,0.95,924.23,3.0,-25.7,0.0,0.0,2.5,0.0,1.5,0.0,1.0,0.75,0.0,0.0,0.0,0.0,0.0,-0.23,-0.17,1.02,0.0,-17.2,42.2
3.4,2.25,1.0,4.5,2.5,3.5,4.25,4.0,7.25,5.75,5.25,6.75,5.5,3.5,-0.11,0.08,0.95,892.45,3.7,-22.8,1.25,0.0,2.25,1.25,0.0,0.0,1.0,0.75,0.0,0.5,0.5,0.25,0.25,-0.23,-0.11,1.14,17.08,-20.1,24.6
3.42,2.25,1.25,4.5,2.75,5.0,5.25,4.0,7.0,6.0,5.25,6.75,5.25,3.0,-0.05,0.08,0.95,873.42,3.4,-17.4,0.0,0.0,2.25,0.0,0.0,0.0,0.5,0.0,0.0,0.0,0.0,0.0,0.0,-0.23,0.02,1.33,32.41,-37.7,57.8
3.44,2.75,1.25,4.5,2.5,4.5,5.0,4.25,6.75,6.0,5.0,6.5,4.75,2.25,-0.11,0.08,0.95,842.14,4.2,-14.9,0.0,0.0,0.5,0.0,0.0,0.0,0.5,0.0,0.0,0.75,0.0,0.25,0.0,-0.23,0.14,1.64,36.54,-10.2,-26.2
3.46,3.0,1.25,4.5,2.75,5.75,5.25,4.25,6.75,6.25,4.75,6.25,4.0,1.75,-0.11,0.08,0.95,825.04,4.2,-9.4,1.0,0.0,2.5,1.25,1.5,0.0,1.0,0.0,0.0,0.5,0.0,0.25,0.0,-0.11,0.27,2.02,67.23,-20.2,46.9
3.48,3.5,1.25,4.5,3.0,6.25,5.5,4.75,6.75,6.25,4.5,6.0,4.0,1.5,-0.11,0.08,0.95,820.22,4.6,-6.2,1.25,0.25,2.5,1.25,1.5,0.0,1.0,0.5,0.0,0.5,0.5,0.25,0.5,0.14,0.52,2.33,109.43,-16.2,30.8
3.5,4.0,1.25,4.75,3.75,6.5,5.75,4.75,6.75,6.5,2.75,5.5,2.75,1.5,-0.11,0.08,0.95,823.1,5.6,1.4,1.25,0.0,2.25,1.5,1.5,0.0,1.0,0.5,0.0,0.5,0.5,0.25,0.5,0.52,1.08,2.58,139.73,-15.8,28.8
3.52,5.0,1.25,5.5,4.75,6.5,5.75,4.75,6.25,6.75,3.75,5.25,2.25,1.5,-0.05,0.08,0.95,847.86,6.5,4.9,2.0,0.5,2.25,1.0,1.5,0.0,1.0,0.5,0.0,0.0,0.5,0.0,0.25,0.77,2.14,2.77,158.43,-19.7,49.7
3.54,6.0,1.25,6.0,5.25,6.5,5.75,5.0,6.0,6.5,3.0,4.5,2.25,1.5,-0.11,0.08,0.95,876.18,7.7,9.9,1.25,0.0,2.25,1.5,1.0,1.0,1.0,0.75,0.0,0.5,0.5,0.25,0.5,1.52,4.14,0.58,169.51,-12.4,26.3
3.56,6.25,1.25,7.0,6.75,6.75,6.0,5.5,5.75,6.25,3.0,3.5,1.5,1.5,-0.11,0.08,0.95,917.44,8.6,16.2,1.25,0.25,2.25,1.25,1.25,1.0,1.0,0.5,0.0,0.5,0.5,0.25,0.5,1.39,4.58,0.14,171.48,-12.6,29.7
3.58,7.25,1.5,8.0,7.75,8.25,5.75,5.75,4.75,5.5,3.0,3.25,1.0,1.5,-0.11,0.08,0.95,965.93,9.8,23.2,1.0,0.0,2.25,1.25,1.5,0.0,1.0,0.5,0.0,0.0,0.5,0.0,0.5,-0.55,4.58,-1.48,162.82,-17.3,36.5
3.6,8.75,1.75,9.5,9.0,8.25,6.0,6.0,4.75,5.0,3.0,2.5,0.75,1.5,-0.11,0.08,0.95,1039.88,11.1,28.8,0.0,0.0,2.25,1.25,0.0,1.5,0.75,0.0,0.0,0.5,0.0,0.25,0.0,-2.11,5.02,-0.36,142.79,-13.7,34.1
3.62,9.5,2.0,10.5,12.5,9.5,5.5,6.25,3.5,4.0,3.0,2.5,0.75,1.0,-0.11,0.08,1.02,1136.25,12.7,35.6,0.0,0.0,2.25,0.0,0.0,0.0,0.75,0.75,0.0,0.0,0.5,0.0,1.25,0.08,-0.17,0.7,119.43,-14.5,-10.7
3.64,11.0,2.25,12.0,14.0,9.75,5.75,5.75,3.0,3.25,3.0,2.5,0.75,1.0,-0.05,0.14,1.14,1249.74,13.8,39.4,0.0,0.0,0.0,0.0,0.0,0.0,0.25,0.25,0.0,1.0,0.0,0.5,2.25,1.33,-0.11,1.2,96.64,10.3,-93.4
3.66,12.0,2.0,13.5,13.0,9.75,4.25,5.0,3.0,2.75,2.75,2.5,0.75,1.0,-0.05,0.14,1.27,1318.57,15.3,41.2,0.0,0.0,1.0,0.0,0.0,2.5,0.75,3.25,1.5,5.5,0.5,3.25,5.0,2.7,1.27,4.52,175.6,7.1,-61.4
3.68,13.5,2.5,14.5,13.5,9.75,4.0,3.75,2.75,2.0,2.75,2.25,0.75,1.0,-0.17,0.2,1.39,1363.74,16.1,44.8,1.5,0.25,0.0,1.25,0.0,2.75,0.5,4.0,3.25,7.0,4.5,6.25,6.0,-0.11,0.14,1.08,295.02,2.6,-58.8
3.7,13.5,2.25,15.0,11.5,8.75,2.75,1.75,1.25,1.5,2.0,2.0,0.75,0.75,-0.17,0.33,1.52,1331.74,18.4,49.6,1.5,1.0,2.75,1.75,1.5,4.0,1.75,5.25,4.0,7.5,6.75,6.75,8.0,-0.11,0.14,0.95,502.55,0.0,-44.4
3.72,14.0,2.5,14.0,8.25,7.75,2.5,1.75,1.0,1.25,2.25,2.0,0.25,0.75,-0.23,0.39,1.64,1240.38,19.0,51.1,1.5,1.0,2.75,2.0,1.75,4.5,2.0,5.5,4.75,7.75,7.5,6.75,8.0,0.08,0.14,0.95,724.07,0.0,-43.0
3.74,12.0,1.75,13.0,7.0,6.5,1.5,3.0,1.0,0.75,1.25,2.0,0.75,0.5,-0.61,0.58,2.2,1067.98,20.5,50.9,1.75,1.0,2.75,2.25,1.75,4.75,2.25,6.0,4.75,7.75,7.75,7.0,8.0,0.08,0.14,0.95,904.71,-0.1,-41.9
3.76,10.5,1.25,11.5,6.75,6.25,2.25,3.5,1.0,0.5,1.25,1.5,0.75,0.5,-0.8,0.83,2.77,904.12,19.3,49.9,1.75,1.0,2.75,2.5,1.75,4.75,2.25,6.0,4.75,7.75,7.75,6.75,8.0,0.08,0.14,0.95,999.25,-0.2,-41.1
3.78,8.75,1.25,9.5,5.0,4.25,1.0,2.5,1.0,0.0,0.0,1.75,0.0,0.75,-0.8,0.64,2.39,702.61,21.6,54.3,1.25,1.0,2.75,2.0,1.75,5.0,2.25,6.0,4.75,7.75,7.5,6.5,8.0,0.08,0.14,0.95,1035.18,0.4,-42.5
3.8,6.25,1.25,6.25,1.75,3.0,0.0,1.75,0.75,0.5,2.0,1.25,0.75,0.5,-0.61,0.7,3.14,497.85,19.2,38.4,1.25,1.0,2.75,2.0,1.75,4.75,2.25,6.0,4.75,7.25,7.25,6.25,8.0,0.08,0.14,0.95,1032.52,0.2,-42.0
3.82,3.25,0.0,5.0,2.0,3.0,0.5,1.75,1.0,0.5,1.75,1.25,0.75,0.5,-0.48,-1.55,1.95,333.36,15.3,25.8,1.25,1.0,2.75,2.0,1.75,4.75,2.25,5.75,4.5,6.75,6.5,5.75,7.25,0.08,0.14,0.95,992.58,0.1,-39.6
3.84,3.0,1.25,4.5,1.25,3.0,2.25,1.25,1.0,0.5,0.75,1.25,0.75,0.5,-0.92,-1.92,2.27,245.15,12.5,32.9,1.75,1.0,2.75,2.0,1.75,4.0,2.0,5.25,4.25,6.5,6.5,5.5,7.0,0.08,0.14,0.95,930.54,-0.6,-38.6
3.86,2.0,1.25,4.5,1.0,3.0,1.25,0.5,1.0,0.25,0.75,0.75,0.75,0.0,-0.86,-1.23,1.14,175.49,13.6,37.4,1.25,1.0,2.75,2.0,1.75,4.0,2.0,5.0,4.25,6.0,6.0,5.5,6.25,0.08,0.14,0.95,846.08,-0.6,-38.0
3.88,2.5,1.25,4.25,1.75,3.0,1.5,1.5,1.0,0.25,2.0,1.25,0.75,0.5,-0.61,-0.86,0.27,158.06,11.5,26.1,1.25,1.0,2.75,2.25,1.75,4.25,2.0,5.0,4.5,6.0,5.75,5.25,6.0,0.08,0.14,0.95,766.38,-0.7,-36.2
3.9,2.5,0.25,4.25,0.5,3.0,0.75,1.5,1.0,0.5,1.25,1.25,0.75,0.75,-0.42,-0.73,0.2,146.91,13.2,20.7,1.25,1.0,2.75,2.5,1.75,4.5,2.25,5.0,4.75,5.75,5.75,4.5,5.75,0.08,0.14,0.95,687.56,-0.8,-33.3
3.92,2.5,1.0,3.75,0.25,3.0,1.75,1.5,1.0,0.5,1.5,1.5,0.75,0.75,-0.23,-0.55,0.64,158.32,10.2,20.5,1.25,1.0,2.75,2.75,1.75,5.0,2.25,5.25,4.75,5.25,5.5,4.25,5.5,0.08,0.14,0.95,637.23,-0.7,-30.6
3.94,2.25,0.75,3.75,1.0,3.0,1.0,1.75,1.0,0.25,1.25,1.25,0.75,0.5,0.02,-0.42,0.89,168.87,12.3,24.8,1.75,1.0,2.75,2.75,2.75,5.0,2.25,5.5,5.25,5.25,5.25,3.25,4.75,0.08,0.14,0.95,608.74,-1.0,-24.1
3.96,2.25,1.25,3.75,0.25,3.0,1.75,1.75,0.0,0.5,0.75,1.25,0.75,0.5,0.08,-0.36,1.2,183.45,13.1,31.6,1.25,1.0,2.75,3.0,4.5,5.0,2.5,5.75,5.25,4.75,5.0,3.25,4.0,0.08,0.14,0.95,606.96,-0.9,-19.3
3.98,2.25,1.25,2.0,1.0,3.5,1.0,1.25,0.0,0.25,0.5,0.0,0.75,0.0,0.02,-0.17,1.2,181.42,12.7,48.2,2.0,1.75,3.5,3.0,5.25,5.5,2.75,6.0,5.5,3.75,5.0,2.25,3.0,0.08,0.14,0.95,624.97,-2.4,-7.7
4.0,1.25,0.0,3.75,0.0,3.0,0.0,1.75,0.5,0.25,1.25,0.0,0.75,0.0,-0.05,-0.05,1.2,173.42,15.3,29.2,2.5,1.5,4.25,4.0,5.5,6.0,3.0,6.0,5.5,3.0,4.0,2.0,2.0,0.08,0.14,0.95,650.74,-3.8,1.2
4.02,2.25,1.25,2.25,0.75,3.0,0.75,1.75,0.25,0.25,1.25,0.0,0.75,0.0,-0.11,0.08,1.52,179.76,12.6,39.8,3.75,1.75,5.0,5.25,6.5,6.25,3.25,6.0,5.75,3.0,4.0,1.25,1.5,0.08,0.14,0.95,706.68,-5.3,10.0
4.04,2.25,1.25,3.25,1.0,3.0,1.0,1.75,1.0,0.25,0.5,1.25,0.75,0.5,-0.11,0.27,1.7,200.5,12.8,30.3,5.0,1.75,5.25,7.0,7.25,6.5,4.0,6.0,5.5,2.25,2.75,0.75,1.25,0.08,0.14,0.95,772.49,-6.6,19.7
4.06,2.25,1.25,3.0,1.0,3.0,1.75,1.75,1.0,0.25,0.75,1.0,0.25,0.5,-0.17,0.39,1.95,219.84,10.6,34.0,6.25,2.5,6.75,8.75,8.5,7.0,4.0,5.75,4.75,2.25,2.75,0.5,1.25,0.08,0.2,0.95,878.99,-7.9,26.9
4.08,2.25,1.25,3.25,1.0,3.0,1.25,1.75,0.5,0.5,0.5,1.25,0.75,0.5,-0.3,0.58,2.33,234.4,13.1,31.3,7.75,2.75,7.75,12.0,9.5,7.0,4.25,5.0,3.25,2.0,2.75,0.5,1.25,0.08,0.2,0.95,1006.68,-9.6,34.0
4.1,2.25,1.0,3.5,0.25,3.0,0.0,1.75,0.0,0.25,0.25,1.25,0.0,0.5,-0.48,1.08,2.95,229.01,18.4,42.5,8.5,3.25,8.75,14.5,11.0,7.0,4.25,3.75,2.0,1.25,2.0,0.5,1.25,0.02,0.2,1.02,1142.77,-11.0,42.0
4.12,0.75,0.0,2.0,0.0,4.75,0.0,1.0,0.25,0.25,0.5,0.75,0.5,0.5,-1.23,4.14,3.08,206.24,8.4,24.2,9.25,2.75,9.5,15.5,12.5,0.0,4.0,2.25,1.0,0.75,1.75,0.5,0.25,0.02,0.2,1.2,1184.65,-16.3,51.3
4.14,2.25,1.25,3.0,1.0,3.0,1.75,1.75,1.0,0.5,0.5,1.25,1.0,0.75,-0.61,3.39,2.2,217.19,10.6,25.2,9.75,3.5,9.25,12.5,12.5,6.0,2.75,2.0,0.75,0.5,1.0,0.5,0.5,0.14,0.2,1.39,1206.8,-12.8,52.6
4.16,0.5,0.0,3.0,1.0,3.0,1.0,1.75,0.75,0.5,1.5,1.25,0.75,0.0,0.58,6.02,-1.3,213.31,9.3,13.8,10.5,3.5,11.0,15.5,11.5,5.0,1.75,1.0,0.0,0.0,0.75,0.5,0.75,0.14,0.33,1.39,1206.65,-15.3,57.4
4.18,2.25,1.0,2.75,0.25,3.0,1.75,1.5,1.0,0.5,1.75,2.0,0.75,0.75,4.77,7.83,-2.36,235.52,8.1,13.5,11.0,3.5,11.5,12.5,8.5,4.25,1.75,0.5,0.0,0.5,0.0,0.5,0.25,0.14,0.39,1.58,1144.77,-17.5,61.3
4.2,2.25,0.5,2.0,0.0,3.0,0.0,1.5,1.0,0.0,0.5,0.75,1.0,1.5,-1.61,-1.3,2.64,227.56,10.3,13.0,9.75,3.25,11.5,8.75,7.25,2.75,4.0,0.75,0.0,0.5,0.5,0.5,0.5,0.2,0.52,2.33,1030.18,-18.9,58.0
4.22,2.25,0.0,2.5,0.0,3.0,2.5,1.0,1.5,0.25,2.0,2.0,3.0,1.5,0.08,0.58,1.27,250.56,4.4,-10.3,8.75,2.5,9.25,6.5,1.75,2.75,4.75,0.5,0.0,0.5,0.5,0.5,0.5,0.7,1.27,2.95,828.96,-21.7,57.1
4.24,2.25,0.0,2.25,0.0,3.0,1.0,1.0,2.25,0.25,2.75,2.5,4.0,2.5,0.58,0.58,1.02,266.37,3.9,-26.7,7.5,1.75,7.75,4.75,0.25,2.75,3.25,0.5,0.0,0.5,0.5,0.5,0.5,0.58,1.33,3.02,613.49,-22.1,55.0
4.26,1.25,1.25,2.25,0.25,0.0,3.5,1.25,4.25,2.75,4.25,4.0,6.0,3.75,-0.67,1.27,1.33,333.78,0.9,-42.4,5.5,1.0,5.25,1.5,0.0,0.25,2.0,0.5,0.0,0.5,0.5,0.5,0.5,0.52,0.2,3.45,381.53,-26.0,50.7
4.28,2.25,1.25,3.0,1.25,3.0,4.0,0.5,6.0,3.75,5.5,6.25,6.0,4.5,-0.05,0.14,1.08,461.48,1.1,-31.6,2.5,1.0,3.0,0.0,0.0,0.0,1.5,0.5,0.25,0.5,0.0,0.5,0.25,0.39,-0.67,2.27,225.93,-24.4,42.4
4.3,1.25,1.25,4.5,2.25,3.0,3.75,3.0,6.5,4.25,5.75,6.25,6.25,4.5,-0.11,0.08,0.95,621.34,2.6,-29.0,1.25,0.25,1.25,0.0,0.0,0.0,0.5,0.0,0.0,0.0,0.0,0.25,0.0,0.58,-1.11,2.14,66.05,-32.2,61.7
4.32,1.75,1.25,4.5,1.75,4.25,3.75,3.75,6.75,5.25,5.25,7.75,7.0,4.75,-0.05,0.08,0.95,776.77,3.3,-28.7,0.5,0.0,2.25,0.25,1.25,0.0,0.5,0.0,0.0,0.0,0.0,0.0,0.0,0.7,-1.42,1.77,0.0,-23.7,60.4
4.34,2.25,1.25,4.5,2.5,3.75,4.25,3.75,6.75,5.5,6.5,8.0,7.0,5.25,-0.05,0.08,0.95,905.69,3.1,-28.8,0.0,0.0,1.0,0.75,0.0,0.0,0.5,0.0,0.0,0.0,0.0,0.0,0.0,0.58,-0.92,0.89,0.0,-29.5,55.8
4.36,2.25,1.25,4.5,2.5,4.25,4.25,3.75,7.25,5.5,6.75,8.5,7.0,5.25,-0.05,0.08,0.95,998.34,2.8,-28.7,0.0,0.0,1.25,0.5,0.0,0.0,0.5,0.0,0.0,0.0,0.0,0.0,0.0,0.45,-0.67,0.33,0.0,-32.2,56.2
4.38,2.25,1.25,4.5,2.5,3.75,4.0,3.75,7.25,5.5,6.5,8.25,7.0,5.25,-0.05,0.08,0.95,1035.56,3.0,-29.3,0.0,0.0,1.0,0.25,0.0,0.0,0.5,0.0,0.0,0.0,0.0,0.0,0.0,0.27,-0.48,0.2,0.0,-33.7,55.2
4.4,2.25,1.25,4.5,2.5,3.5,4.0,3.75,7.0,5.25,6.5,7.75,7.0,5.25,-0.11,0.08,0.95,1047.93,3.1,-29.3,0.0,0.0,0.75,0.25,0.0,0.0,0.5,0.0,0.0,0.0,0.0,0.0,0.0,-0.05,-0.11,0.27,0.0,-32.8,54.0
4.42,2.25,1.25,4.5,2.5,3.0,3.75,3.5,6.75,5.25,6.5,7.75,6.5,5.0,-0.11,0.08,0.95,1017.17,3.3,-29.4,0.0,0.0,1.0,0.25,0.0,0.0,0.5,0.0,0.0,0.0,0.0,0.0,0.0,-0.11,-0.11,0.52,0.0,-33.7,55.2
4.44,2.25,1.25,4.5,1.75,3.0,3.75,3.75,6.75,5.25,6.0,7.25,6.0,4.5,-0.11,0.08,0.95,961.35,3.4,-28.2,0.0,0.0,2.25,0.0,1.25,0.0,1.25,0.0,0.0,0.0,0.0,0.0,0.0,0.08,-0.23,0.77,0.0,-23.6,53.9
4.46,2.0,1.25,4.5,1.75,3.5,3.75,3.0,6.75,5.0,5.5,7.0,6.0,4.0,-0.11,0.08,0.95,886.46,3.2,-26.7,0.0,0.0,0.75,0.25,0.0,0.0,0.5,0.0,0.0,0.0,0.0,0.0,0.0,0.39,-0.17,0.83,0.0,-32.8,54.0
4.48,2.25,1.25,4.5,1.25,3.0,3.75,3.0,6.25,5.0,5.25,6.5,5.5,3.5,-0.11,0.08,0.95,805.86,3.7,-25.4,0.0,0.0,0.5,0.5,0.0,0.0,0.5,0.0,0.0,0.0,0.0,0.0,0.0,0.83,0.08,0.77,0.0,-28.5,53.4
4.5,2.25,0.5,3.5,2.25,3.0,3.5,3.5,5.75,5.0,5.25,5.75,5.25,1.5,-0.05,0.08,0.95,711.33,4.2,-22.4,0.0,0.0,0.25,0.0,0.0,0.0,0.5,0.0,0.0,0.0,0.0,0.0,0.0,1.39,0.33,0.64,0.0,-35.4,44.8
4.52,2.25,1.25,4.5,2.5,3.5,4.75,3.75,6.0,5.5,5.0,6.25,4.5,2.25,-0.11,0.08,0.95,675.3,4.2,-16.6,0.0,0.0,0.25,0.0,0.0,0.0,0.5,0.0,0.0,0.0,0.0,0.0,0.0,1.95,0.33,0.58,4.18,-35.4,44.8
4.54,2.5,1.25,4.5,2.5,3.5,5.75,3.75,6.0,6.0,4.0,6.0,3.75,1.75,-0.11,0.08,0.95,661.46,4.4,-11.4,0.0,0.0,0.25,0.25,0.0,0.0,0.5,0.0,3.0,0.5,0.0,0.25,0.0,2.27,0.95,0.89,24.13,-11.7,-31.7
4.56,3.75,1.25,4.5,2.75,6.5,6.25,4.0,6.25,6.0,4.0,5.5,3.25,1.5,-0.11,0.08,0.95,698.99,4.4,-2.2,0.0,0.0,2.25,0.0,1.5,0.0,1.0,0.0,0.0,0.0,0.0,0.0,0.0,1.64,6.14,7.02,45.97,-21.7,54.5
4.58,5.0,1.25,4.5,4.0,6.5,6.5,4.25,6.0,6.0,3.5,4.75,2.5,1.5,-0.11,0.08,0.95,743.4,5.4,4.8,0.0,0.0,0.0,0.0,0.0,0.0,0.5,0.0,0.0,0.5,0.0,0.0,0.0,3.2,4.02,0.02,46.06,0.1,-42.1
4.6,6.25,1.25,5.5,5.0,7.0,7.0,4.0,5.75,5.25,3.5,4.0,2.25,1.5,-0.11,0.08,0.95,809.81,6.4,11.7,1.0,0.5,2.25,1.5,1.5,0.0,0.5,0.75,0.0,0.5,0.5,0.25,0.25,4.2,4.77,-0.05,85.81,-14.6,32.9
4.62,7.75,1.75,6.0,5.5,8.25,7.0,3.5,4.75,4.5,3.75,3.0,1.0,1.0,-0.48,0.2,0.95,864.1,7.4,22.9,0.0,0.0,0.0,0.0,0.0,0.0,0.25,0.0,0.0,0.0,0.0,0.0,0.0,2.58,4.39,-0.3,66.07,-32.4,27.3
4.64,8.75,2.75,6.75,6.0,8.25,6.75,2.5,4.0,3.75,1.5,2.5,0.75,1.0,-0.86,0.2,0.95,900.26,9.6,33.6,1.5,1.0,1.25,1.5,1.0,0.25,0.75,0.5,0.0,0.0,0.5,0.25,0.25,-0.98,5.89,1.52,97.61,-15.9,44.1
4.66,8.5,2.75,7.0,4.25,8.25,5.75,0.0,3.25,2.25,0.75,2.5,0.75,0.0,-0.98,0.08,1.14,864.15,10.7,40.9,1.0,0.75,2.5,1.25,1.25,1.25,1.0,0.5,0.0,0.5,0.5,0.25,0.25,-4.23,3.45,0.02,122.93,-12.6,35.7
4.68,8.75,1.5,6.75,4.5,8.0,4.25,0.0,2.0,1.75,2.5,1.0,0.5,0.0,-0.86,0.08,1.14,790.23,11.6,43.0,1.25,0.25,2.25,1.25,1.5,0.5,1.0,0.5,0.0,0.5,0.5,0.25,0.5,-2.48,2.39,0.27,154.95,-13.8,30.1
4.7,9.0,1.5,6.5,2.75,6.25,3.75,0.0,1.25,1.25,1.0,1.0,0.5,0.0,-0.8,0.08,1.27,672.64,14.4,49.9,1.25,0.75,2.0,1.5,1.5,0.0,1.0,0.5,0.0,0.5,0.5,0.25,0.25,-2.73,-1.86,3.77,169.61,-15.7,37.2
4.72,9.0,1.25,6.0,2.5,4.25,2.5,0.0,1.0,1.25,0.5,1.0,0.5,0.0,-0.61,-0.36,1.2,550.16,17.5,52.4,1.25,0.0,1.25,1.25,1.5,2.5,0.5,0.5,0.0,0.5,0.5,0.0,0.25,1.14,0.02,1.02,177.82,-4.6,33.1
4.74,8.25,1.25,5.75,2.5,3.75,2.5,0.0,2.5,1.25,1.25,2.0,0.25,1.0,-0.23,-0.3,0.83,469.08,13.9,36.4,0.0,0.0,1.0,0.0,0.0,1.5,0.5,0.75,0.0,0.75,0.5,0.0,0.25,-0.42,-1.3,2.02,152.1,1.6,-6.6
4.76,8.0,1.25,4.75,1.75,3.0,2.5,0.0,1.0,1.0,0.5,0.75,0.0,0.0,-0.11,-0.42,0.45,380.77,17.3,55.4,0.0,0.0,1.0,0.25,0.0,1.25,0.0,0.75,0.0,0.0,0.0,0.0,0.25,0.14,0.27,0.89,116.28,-0.2,17.4
4.78,8.0,1.25,5.0,1.0,3.0,1.75,0.0,1.0,1.0,0.5,1.0,0.0,0.0,0.45,-0.48,0.7,327.3,18.7,54.7,1.0,0.0,0.0,1.25,0.0,2.75,0.0,1.75,0.0,1.75,0.0,0.0,0.0,0.77,0.14,1.33,108.39,7.3,6.6
4.8,8.0,1.25,5.75,1.0,0.0,2.25,0.0,1.0,1.25,0.5,1.0,0.25,0.0,0.77,0.02,0.7,280.83,21.8,51.7,1.75,0.0,0.0,1.0,1.0,2.5,0.0,2.25,0.0,0.75,0.5,0.0,0.25,1.77,-0.3,0.95,121.14,3.0,15.5
4.82,7.25,1.25,6.0,1.0,3.0,2.5,0.0,1.0,1.75,0.5,1.0,0.25,0.0,0.89,0.02,1.08,273.82,17.6,48.9,1.25,0.0,0.0,0.75,1.25,0.0,0.5,0.75,0.0,0.0,0.5,0.0,0.75,1.64,-0.36,2.08,117.65,-6.9,16.5
4.84,6.75,1.25,5.5,0.5,3.0,2.5,0.5,1.0,2.75,0.75,1.25,0.75,0.0,3.2,-0.3,2.58,276.04,16.3,38.8,0.0,0.0,0.5,0.0,1.5,0.0,0.5,0.75,0.0,0.25,0.5,0.0,0.5,0.2,-0.86,2.95,100.41,-0.7,-2.2
4.86,6.5,1.0,6.0,2.5,3.0,1.75,0.0,1.75,3.75,2.0,3.5,2.25,1.0,0.52,-0.3,0.58,325.23,13.7,13.9,1.25,0.5,0.0,1.25,0.0,0.0,0.25,0.0,0.0,0.0,0.0,0.25,0.0,-0.3,-0.67,3.33,81.36,-22.6,64.5
4.88,6.25,1.25,4.75,1.75,3.0,2.25,1.5,1.0,4.25,1.0,4.75,2.5,0.75,-0.11,0.27,1.14,373.98,14.0,11.6,1.25,0.25,1.75,1.25,1.25,0.0,0.5,0.5,0.0,0.5,0.5,0.25,0.25,0.14,0.33,1.52,80.47,-15.3,31.6
4.9,5.5,0.5,3.75,0.0,1.75,1.5,2.25,0.0,3.75,0.5,4.0,4.25,0.0,-0.23,0.2,1.45,381.12,16.9,1.4,1.25,0.25,1.25,1.0,1.25,0.25,0.75,0.75,0.0,0.5,0.5,0.25,0.25,0.58,1.14,1.2,92.06,-11.9,26.7
4.92,5.0,1.25,4.5,1.0,3.0,2.25,0.5,1.0,4.0,1.25,5.75,5.25,0.0,-0.11,0.27,1.64,406.81,12.7,-2.5,1.25,0.5,1.25,1.25,1.25,0.75,0.5,0.5,0.0,0.5,0.5,0.25,0.25,0.7,1.39,0.7,116.35,-10.8,32.1
4.94,4.5,1.25,2.25,0.0,3.5,1.0,0.75,1.0,3.0,0.75,5.75,5.25,0.5,0.33,0.14,1.33,397.51,11.5,-10.9,1.25,0.25,2.25,1.25,0.0,0.0,0.5,0.0,0.0,0.5,0.0,0.25,0.0,1.83,1.77,0.02,117.84,-26.0,49.4
4.96,4.75,1.25,3.5,2.25,2.5,1.0,0.5,0.5,2.5,1.25,5.25,6.25,1.5,0.83,0.58,1.64,413.94,12.7,-10.1,0.5,1.0,1.75,1.25,0.25,0.25,0.75,0.5,0.0,0.5,0.5,0.25,0.25,3.27,1.14,0.2,122.26,-15.2,29.0
4.98,4.0,1.25,3.25,0.0,3.0,1.0,1.5,1.25,2.0,1.25,5.5,6.0,1.0,0.77,0.7,2.27,404.07,11.3,-14.9,1.25,0.5,2.25,1.25,1.25,0.25,0.75,0.5,0.0,0.25,0.5,0.0,0.25,3.08,-0.05,0.83,129.83,-16.8,42.3
5.0,4.0,1.25,3.0,0.0,3.0,1.0,1.75,1.0,2.0,0.75,4.0,4.0,0.75,0.14,0.58,2.27,390.77,12.5,-2.4,1.25,0.5,1.75,1.0,1.0,0.25,0.5,0.5,0.0,0.5,0.5,0.25,0.25,2.27,-0.23,0.83,132.64,-14.7,32.2
5.02,3.5,1.25,3.5,1.0,3.0,1.5,1.5,1.0,1.25,1.0,3.25,2.25,0.25,-0.48,-0.92,1.95,356.35,12.6,13.0,1.25,0.25,2.25,1.5,1.25,0.25,0.5,0.5,0.0,0.5,0.5,0.25,0.25,1.14,-0.23,0.52,138.97,-15.7,34.1
5.04,3.25,1.25,3.25,1.25,3.0,1.75,1.5,1.0,1.25,2.0,2.5,1.0,0.5,-0.67,-2.61,0.95,326.41,10.5,16.5,1.25,0.25,1.75,1.0,1.25,0.5,0.75,0.5,0.0,0.25,0.5,0.25,0.5,0.2,0.14,1.02,142.73,-13.4,29.8
5.06,3.25,1.25,2.5,1.0,3.0,1.5,1.5,1.0,1.25,2.0,2.5,1.25,0.5,-0.11,-2.17,1.83,298.28,9.8,12.8,1.25,0.25,2.25,1.25,1.5,0.5,0.75,0.5,0.0,0.5,0.25,0.0,0.5,0.27,0.08,1.02,151.44,-13.8,36.6
5.08,3.0,1.25,2.25,0.75,3.0,2.0,1.25,1.0,1.25,2.0,2.25,0.75,0.5,1.2,-1.86,3.27,280.84,8.2,15.1,1.25,0.5,2.25,1.25,1.0,0.5,0.75,0.5,0.0,0.25,0.5,0.0,0.25,1.02,-0.05,0.77,150.27,-16.4,41.7
5.1,2.75,1.25,2.25,1.0,2.25,1.75,1.5,1.0,1.0,1.5,2.5,0.75,0.5,1.77,-1.86,3.02,263.48,9.6,14.7,1.25,0.5,2.0,1.25,1.25,0.5,0.75,0.5,0.0,0.5,0.5,0.25,0.25,1.58,-0.48,0.33,151.37,-14.2,34.4
5.12,2.75,1.25,2.75,1.0,3.0,2.0,1.5,1.0,0.75,2.25,2.25,1.0,0.5,1.89,-2.36,3.14,263.41,8.5,14.6,1.25,0.5,1.75,1.25,0.25,0.25,0.75,0.5,0.0,0.5,0.5,0.25,0.25,1.45,-0.67,0.39,140.29,-17.1,30.6
5.14,2.25,1.25,2.5,1.0,3.0,1.75,1.5,1.0,0.75,1.25,2.0,1.0,0.5,1.83,-1.92,2.95,258.3,9.1,17.5,1.25,0.5,2.0,1.25,1.0,0.25,0.75,0.5,0.0,0.5,0.5,0.25,0.25,0.89,-0.67,0.64,140.09,-15.7,33.8
5.16,2.25,1.25,2.25,1.0,3.0,1.5,1.0,1.0,0.75,1.25,2.0,1.25,0.5,1.52,-1.48,2.77,250.15,8.8,14.9,1.25,0.25,2.0,1.25,0.5,0.5,1.0,0.5,0.0,0.5,0.5,0.25,0.25,0.52,-0.61,0.7,135.92,-16.3,30.3
5.18,2.25,1.25,2.5,1.0,3.0,2.0,1.0,1.0,0.75,1.75,2.0,0.75,0.75,1.08,-0.8,2.52,251.81,7.5,15.2,1.25,0.25,2.25,1.5,1.0,0.25,1.0,0.5,0.0,0.5,0.5,0.25,0.25,0.14,-0.73,0.64,140.23,-16.7,33.3
5.2,2.25,1.25,2.75,1.0,3.0,2.0,1.25,1.0,0.75,1.75,2.0,0.75,0.25,0.27,0.08,1.83,253.18,8.6,19.1,1.25,0.25,2.25,0.75,0.25,0.5,0.75,0.5,0.0,0.5,0.5,0.0,0.25,0.08,-0.92,0.58,131.81,-17.8,33.2
5.22,2.25,1.25,2.0,1.0,3.0,2.0,1.5,1.0,0.75,1.5,2.0,0.75,0.5,-0.42,0.45,1.33,256.0,7.5,17.0,1.25,0.25,1.75,1.25,1.5,0.5,1.0,0.5,0.0,0.25,0.5,0.0,0.25,0.27,-1.11,0.33,133.28,-14.2,39.5
5.24,2.25,1.25,2.5,1.0,2.5,1.75,1.5,1.0,0.75,1.5,2.0,0.75,0.5,-0.55,0.58,1.02,257.61,9.1,16.9,1.25,0.5,2.0,1.25,1.0,0.5,0.75,0.5,0.0,0.5,0.5,0.25,0.25,0.39,-1.05,0.27,134.86,-14.7,33.8
5.26,2.25,1.25,1.0,1.25,3.5,1.75,1.5,1.0,0.75,0.5,1.75,1.5,0.25,-0.55,0.64,0.52,254.12,7.6,19.0,1.25,0.5,1.75,1.25,1.0,0.25,1.0,0.5,0.0,0.5,0.5,0.0,0.25,0.33,-0.98,0.27,135.42,-15.5,37.1
5.28,2.25,1.25,2.75,1.0,3.0,1.75,1.5,1.0,0.75,1.25,2.0,0.75,0.5,-0.61,0.7,0.2,256.31,9.4,19.7,0.25,1.0,1.5,1.25,0.0,0.25,1.0,0.5,0.25,0.5,0.5,0.25,0.25,0.39,-0.86,0.33,127.7,-14.6,22.2
5.3,2.25,1.25,2.75,1.25,3.0,1.75,1.5,1.0,0.5,1.5,1.25,1.25,0.5,-0.67,0.64,-0.48,259.86,9.1,20.0,1.25,0.25,1.75,1.25,1.0,0.25,1.0,0.5,0.0,0.5,0.5,0.25,0.25,0.64,-0.61,0.14,127.03,-15.4,30.8
5.32,2.25,1.25,1.75,1.25,3.0,2.0,1.5,1.0,0.5,1.25,2.0,0.75,0.5,-0.67,0.58,-0.8,261.5,7.5,19.0,1.25,0.25,2.0,1.0,0.5,0.25,1.0,0.5,0.0,0.5,0.5,0.0,0.25,0.83,-0.42,0.02,122.81,-17.7,33.8
5.34,2.25,1.25,2.75,1.25,1.75,1.5,1.25,1.0,0.5,1.5,1.5,0.75,0.5,-0.55,0.58,-0.67,256.23,10.5,19.4,1.0,0.25,1.75,1.0,0.25,0.25,1.0,0.5,0.0,0.25,0.5,0.25,0.25,0.89,-0.3,-0.23,117.08,-18.2,28.5
5.36,2.25,1.25,2.0,1.25,3.0,1.75,1.5,1.0,0.5,1.25,1.75,0.75,0.5,-0.17,0.64,-0.67,254.02,8.3,20.6,1.0,0.25,1.75,1.25,1.0,0.25,1.0,0.5,0.0,0.5,0.5,0.0,0.0,0.77,-0.11,-0.3,117.17,-16.0,38.1
5.38,2.25,1.0,3.25,1.0,3.0,1.75,1.25,1.0,0.5,0.75,1.25,1.5,0.75,-0.11,0.77,-0.67,256.35,10.3,19.8,1.25,0.5,2.0,1.25,1.25,0.25,1.0,0.5,0.0,0.5,0.5,0.0,0.25,0.52,-0.05,-0.3,123.99,-15.5,38.3
5.4,2.25,1.0,2.25,1.0,3.0,1.5,1.25,1.0,0.5,1.25,1.75,0.75,0.75,-0.36,0.83,-0.8,255.28,8.5,17.4,1.25,0.25,2.0,1.25,0.25,0.25,1.0,0.5,0.0,0.25,0.25,0.25,0.0,0.33,-0.11,-0.36,122.26,-20.9,41.7
5.42,2.25,1.0,2.25,1.25,3.0,1.75,1.5,1.0,0.5,1.25,1.75,0.5,0.5,-0.48,0.95,-0.86,255.08,8.6,21.9,1.0,0.5,2.0,0.75,0.25,0.25,1.0,0.5,0.0,0.5,0.5,0.0,0.25,0.14,-0.11,-0.36,119.42,-17.9,32.4
5.44,2.25,1.25,2.0,1.0,3.0,1.0,1.5,1.0,0.5,1.25,1.75,0.75,0.5,-0.61,1.02,-1.05,251.56,9.4,19.5,1.75,0.25,1.75,1.0,0.25,0.25,1.0,0.5,0.0,0.0,0.5,0.25,0.25,-0.05,-0.11,-0.42,117.0,-21.0,38.8
5.46,2.25,1.25,3.0,1.75,2.25,1.25,1.5,1.0,0.5,1.25,1.25,0.75,0.5,-0.55,0.89,-1.05,252.02,11.6,24.6,1.0,0.25,1.75,1.25,0.0,0.25,1.0,0.5,0.0,0.5,0.5,0.0,0.25,-0.23,-0.11,-0.48,111.19,-18.2,29.8
5.48,2.25,1.25,1.75,1.25,3.5,1.5,1.5,1.0,0.5,1.0,1.25,0.75,0.5,-0.3,0.58,-1.05,250.61,8.2,24.9,1.0,0.5,2.0,1.25,0.25,0.5,1.0,0.5,0.0,0.25,0.5,0.25,0.25,-0.48,0.02,-0.48,113.6,-17.4,33.1
5.5,2.25,1.0,2.25,1.0,3.0,1.5,1.5,1.0,0.5,0.75,2.0,0.75,0.25,-0.17,0.39,-0.98,249.51,10.0,22.7,1.0,0.25,2.0,1.0,1.0,0.5,1.0,0.5,0.0,0.5,0.5,0.0,0.25,-0.67,0.08,-0.55,119.97,-14.6,33.4
5.52,2.25,1.25,2.5,1.75,3.0,1.5,1.25,1.0,0.5,1.0,1.75,0.75,0.5,0.02,0.27,-1.05,252.9,9.9,23.8,1.25,0.25,2.0,1.0,0.0,0.5,1.0,0.5,0.0,0.25,0.5,0.0,0.25,-0.92,0.2,-0.61,120.37,-19.3,36.1
5.54,2.25,1.0,2.5,1.0,3.0,1.5,1.5,1.0,0.25,1.25,1.25,0.75,0.5,0.2,0.27,-0.98,251.84,9.3,23.4,0.0,0.0,0.0,0.25,0.0,0.25,0.75,0.0,0.0,0.0,0.0,0.0,0.0,-1.17,0.33,-0.67,84.34,-12.5,38.5
5.56,2.25,1.0,2.25,1.5,3.0,1.5,1.5,1.0,0.5,1.25,1.75,0.75,0.25,0.33,0.2,-0.98,254.27,9.5,22.3,0.5,0.0,1.0,1.25,0.0,0.5,1.0,0.0,0.0,0.5,0.0,0.25,0.0,-1.23,0.39,-0.8,70.43,-17.1,32.9
5.58,2.25,1.0,2.25,1.5,3.5,1.5,1.5,1.0,0.25,1.25,1.25,0.75,0.5,0.2,0.2,-0.92,255.2,8.7,24.8,1.25,0.25,1.75,1.25,0.0,0.5,1.0,0.5,0.0,0.5,0.5,0.0,0.25,-1.11,0.39,-0.92,72.85,-17.4,32.1
5.6,2.25,1.25,1.75,1.0,2.5,1.0,1.5,1.0,0.5,1.25,1.25,0.75,0.5,0.2,0.14,-0.92,247.43,9.4,20.5,0.5,0.5,1.75,1.25,0.0,0.25,1.0,0.5,0.0,0.5,0.5,0.25,0.25,-1.05,0.33,-0.92,84.33,-16.4,22.7
5.62,2.25,1.0,2.5,1.25,3.0,1.25,1.5,1.0,0.25,1.25,1.5,0.75,0.75,0.14,0.08,-0.92,247.06,9.5,20.5,1.25,0.25,2.0,1.0,0.25,0.25,1.0,0.5,0.0,0.25,0.5,0.25,0.5,-0.98,0.27,-0.8,100.11,-18.3,27.0
5.64,2.25,1.25,2.25,1.0,3.0,1.0,1.5,1.0,0.5,1.25,1.25,0.75,0.5,0.08,0.02,-0.8,244.96,9.8,22.8,0.75,0.5,2.0,0.75,0.25,0.25,1.0,0.5,0.0,0.5,0.5,0.0,0.5,-0.92,0.02,-0.73,110.82,-16.2,25.0
5.66,2.25,1.25,2.25,1.0,3.0,1.5,1.5,1.0,0.25,1.0,1.25,0.75,0.5,0.08,-0.11,-0.73,245.28,9.3,25.4,1.0,0.25,1.75,1.0,1.25,0.0,1.0,0.5,0.0,0.5,0.5,0.25,0.25,-0.8,-0.11,-0.48,118.29,-15.2,28.7
5.68,2.25,1.25,1.75,1.5,3.0,1.25,1.5,1.0,0.25,1.25,1.25,0.75,0.75,0.08,-0.23,-0.67,245.05,8.4,21.8,1.25,0.5,1.75,1.0,0.0,0.25,1.0,0.5,0.0,0.5,0.5,0.0,0.25,-0.67,-0.23,-0.23,116.74,-18.5,33.6
5.7,2.25,1.25,2.25,1.25,2.25,1.25,1.5,1.0,0.25,1.0,1.25,0.75,0.5,0.08,-0.3,-0.61,241.61,10.5,24.3,1.0,0.5,1.75,0.75,0.25,0.0,1.0,0.5,0.0,0.5,0.5,0.25,0.25,-0.55,-0.23,-0.11,116.68,-18.2,26.0
5.72,2.25,1.25,2.25,1.5,2.5,1.25,1.0,1.0,0.25,0.5,1.25,0.75,0.25,0.14,-0.36,-0.67,236.62,11.3,30.7,1.25,0.5,1.75,1.0,0.25,0.0,1.0,0.5,0.0,0.5,0.5,0.0,0.25,-0.3,-0.17,-0.23,115.7,-19.0,34.4
5.74,2.25,1.25,2.0,1.25,3.0,1.5,1.25,1.0,0.25,1.0,1.25,0.75,0.75,0.14,-0.36,-0.73,237.11,8.4,23.4,1.0,0.25,1.75,1.25,0.5,0.0,1.0,0.5,0.0,0.25,0.25,0.25,0.25,-0.17,-0.11,-0.23,115.9,-18.9,34.2
5.76,2.25,1.25,2.25,1.25,3.75,1.25,1.25,1.0,0.25,1.0,1.25,0.75,0.5,0.14,-0.42,-0.73,242.19,9.0,27.2,1.0,1.0,1.75,0.5,0.25,0.0,1.0,0.75,0.0,0.5,0.5,0.25,0.25,0.02,-0.17,-0.17,119.18,-16.6,27.8
5.78,2.25,1.25,2.25,1.75,3.5,1.25,1.25,1.0,0.25,1.25,1.25,0.75,0.5,0.2,-0.42,-0.48,250.69,9.1,26.2,1.0,0.5,1.75,1.25,0.25,0.25,1.0,0.5,0.0,0.5,0.5,0.0,0.25,0.27,-0.3,0.14,122.09,-17.1,33.2
5.8,2.25,1.25,2.5,1.0,2.25,1.5,1.25,1.0,0.25,1.25,1.25,0.75,0.75,0.14,-0.48,-0.17,250.29,9.5,21.0,1.0,0.25,2.25,1.25,0.25,0.0,1.0,0.75,0.0,0.5,0.5,0.25,0.25,0.52,-0.42,0.33,121.13,-18.5,26.0
5.82,2.25,1.25,2.0,1.25,2.25,1.25,1.25,1.0,0.25,0.5,1.25,0.75,0.5,0.14,-0.55,0.02,243.18,10.8,27.0,1.0,0.25,1.75,1.25,1.0,0.0,1.0,0.5,0.0,0.25,0.5,0.0,0.5,0.83,-0.67,0.39,121.25,-16.2,32.0
5.84,2.25,1.25,2.25,1.5,3.0,1.25,1.25,1.0,0.25,0.5,1.25,0.75,0.5,0.2,-0.61,0.14,240.54,10.5,29.3,1.25,0.5,1.75,1.0,0.0,0.0,1.0,0.5,0.0,0.5,0.5,0.0,0.25,0.95,-1.05,0.27,118.7,-20.0,33.6
5.86,2.25,0.25,2.25,0.0,3.5,0.0,1.5,1.0,0.0,0.5,1.25,0.5,0.5,0.33,-0.73,0.08,222.45,12.2,25.0,1.0,0.5,1.5,1.0,1.0,0.0,1.0,0.5,0.0,0.5,0.5,0.0,0.25,0.89,-1.36,0.14,118.11,-15.2,33.7
5.88,2.0,1.0,2.0,1.0,3.0,1.25,1.25,1.0,0.25,1.25,1.5,0.75,0.5,0.39,-0.8,0.2,223.52,8.3,19.6,1.0,0.25,1.5,1.0,1.25,0.0,1.0,0.5,0.0,0.5,0.5,0.0,0.25,0.52,-1.42,0.64,117.97,-14.6,32.2
5.9,2.25,0.0,2.5,0.0,2.5,0.0,1.25,1.0,0.0,0.5,1.25,0.0,0.5,0.39,-0.86,0.33,202.61,14.3,27.1,1.0,0.25,1.75,1.0,1.25,0.0,1.0,0.5,0.0,0.5,0.5,0.25,0.25,0.08,-1.3,0.95,121.23,-15.2,28.7
5.92,2.25,1.0,1.75,0.0,0.0,0.0,0.5,0.5,0.0,0.5,0.25,0.0,0.0,0.14,-0.98,0.39,166.35,23.3,54.3,1.25,0.25,1.75,0.5,0.5,0.25,1.0,0.5,0.25,0.25,0.5,0.0,0.25,-0.11,-1.11,0.83,118.9,-18.0,32.3
5.94,0.5,0.0,1.0,0.0,0.0,0.0,0.5,0.0,0.0,0.5,0.25,0.75,0.0,-0.23,-1.05,0.33,107.91,20.1,-7.1,1.25,0.25,1.5,0.75,0.25,0.25,1.0,0.5,0.0,0.25,0.5,0.0,0.5,0.2,-0.86,0.45,114.55,-17.1,28.3
5.96,2.25,1.25,2.0,1.0,3.0,1.75,1.0,1.0,0.25,1.25,1.25,0.75,0.5,-0.3,-1.11,0.08,133.31,7.7,23.5,1.0,0.25,1.75,1.0,0.25,0.25,1.0,0.5,0.0,0.5,0.5,0.0,0.5,0.52,-0.48,0.45,111.02,-16.1,24.6
5.98,2.25,1.25,1.75,1.0,3.0,1.75,1.0,1.0,0.25,1.25,1.25,0.75,0.5,-0.17,-1.17,0.02,164.49,7.2,22.9,1.25,0.25,0.5,1.25,1.0,0.25,1.0,0.5,0.0,0.5,0.5,0.0,0.25,0.58,-1.05,0.58,109.03,-11.3,30.3
6.0,2.25,1.25,2.75,1.25,3.5,1.75,1.0,1.0,0.25,0.75,1.5,0.75,0.5,-0.23,-1.11,0.14,214.64,9.4,27.9,1.0,0.25,1.5,1.0,0.0,0.5,1.0,0.5,0.0,0.5,0.5,0.0,0.25,0.83,-1.3,1.27,106.16,-15.9,27.6
6.02,2.25,1.0,1.75,1.0,2.5,1.75,1.25,1.0,0.25,1.25,1.25,0.75,0.5,-0.3,-1.05,0.2,233.85,7.7,20.7,1.0,0.5,1.75,0.75,0.5,0.5,1.0,0.5,0.0,0.5,0.5,0.0,0.5,1.08,-1.61,1.27,109.92,-14.0,27.4
6.04,2.25,1.0,1.75,1.25,1.75,1.75,1.25,1.0,0.25,1.0,1.25,0.75,0.5,-0.36,-1.11,0.02,240.68,8.9,21.0,1.0,0.25,1.25,0.5,0.25,0.5,1.0,0.5,0.0,0.5,0.5,0.0,0.25,1.08,-1.36,1.58,105.11,-13.9,24.8
6.06,2.0,1.25,2.0,1.25,2.25,1.75,1.25,1.0,0.25,1.0,1.25,0.75,0.5,-0.61,-1.36,0.08,236.95,8.6,23.0,1.0,0.5,1.25,0.5,0.5,0.25,1.0,0.5,0.0,0.25,0.5,0.0,0.5,0.83,-1.05,2.14,103.09,-14.5,27.2
6.08,2.0,1.0,2.25,0.75,3.0,1.75,1.25,1.0,0.25,0.75,1.25,0.5,0.25,-0.73,-1.61,0.2,235.9,8.8,28.7,1.5,0.25,1.75,1.25,1.25,0.5,1.0,0.5,0.0,0.5,0.5,0.0,0.5,0.45,-1.05,2.39,115.41,-13.7,33.2
6.1,2.0,1.25,1.75,1.0,3.0,2.0,1.0,1.0,0.25,0.5,1.25,0.75,0.5,-0.92,-1.86,0.33,241.35,7.5,26.6,1.0,0.25,1.5,1.0,0.5,0.25,1.0,0.5,0.0,0.25,0.5,0.25,0.25,-0.05,-0.86,1.83,115.91,-16.5,28.3
6.12,2.25,1.25,2.0,1.0,3.0,1.75,1.25,1.0,0.25,0.75,1.25,0.75,0.5,-0.92,-1.86,0.27,245.95,8.6,26.5,1.25,0.5,1.25,0.75,0.25,0.5,0.75,0.5,0.0,0.5,0.5,0.0,0.25,-0.48,-0.36,0.77,115.78,-14.4,31.5
6.14,2.25,1.25,2.5,1.0,3.0,1.75,1.0,1.0,0.25,0.75,1.0,0.75,0.5,-0.86,-1.8,0.33,253.71,9.3,29.0,1.0,0.25,1.75,1.25,0.5,0.5,1.0,0.5,0.0,0.5,0.5,0.0,0.25,-0.61,-0.48,0.64,116.58,-15.2,31.7
6.16,2.25,1.0,2.0,1.0,1.75,1.75,1.25,1.0,0.25,1.25,1.25,0.75,0.5,-0.86,-1.67,0.33,249.16,8.8,19.5,1.25,0.25,1.5,1.0,0.5,0.5,0.75,0.5,0.0,0.5,0.5,0.0,0.25,-0.48,-0.61,0.7,117.4,-14.7,32.0
6.18,2.0,1.25,2.25,0.75,3.0,1.5,1.25,1.0,0.25,1.0,1.25,0.75,0.5,-1.17,-1.55,0.39,244.18,8.6,23.9,1.0,0.25,1.25,0.75,0.5,0.75,1.0,0.5,0.0,0.5,0.5,0.0,0.25,-0.23,-0.73,0.77,114.21,-12.0,27.6
6.2,2.25,1.0,2.0,1.0,3.0,1.25,0.75,1.0,0.25,0.75,1.25,0.5,0.5,-1.36,-1.17,0.39,230.23,9.1,27.3,1.0,0.25,1.25,0.75,0.25,0.75,1.0,0.5,0.0,0.5,0.5,0.0,0.25,-0.11,-0.61,0.89,110.52,-12.7,26.4
6.22,2.0,1.25,2.0,1.0,3.0,1.25,1.25,1.0,0.25,0.75,1.0,0.75,0.25,-1.48,-0.92,0.39,228.58,9.5,29.1,1.0,0.5,1.75,0.5,0.0,1.25,0.75,0.5,0.0,0.25,0.25,0.0,0.5,-0.11,-0.48,0.89,109.7,-12.4,32.2
6.24,2.0,1.0,2.25,1.0,3.5,1.0,1.25,1.0,0.25,1.0,1.25,0.75,0.5,-1.48,-0.86,0.33,230.52,9.2,24.0,1.0,0.25,1.75,0.5,0.5,0.5,1.0,0.5,0.0,0.5,0.5,0.0,0.25,-0.11,-0.42,0.83,107.95,-15.0,28.7
6.26,2.0,0.0,2.25,0.5,2.25,1.25,1.5,1.0,0.25,0.75,0.0,0.75,0.0,-1.48,-0.86,0.27,216.53,11.0,30.6,1.0,0.25,1.5,0.75,0.25,0.75,0.75,0.5,0.0,0.5,0.5,0.25,0.25,0.02,-0.42,0.77,107.74,-13.2,22.8
6.28,2.0,1.25,2.25,0.75,2.25,1.0,1.0,1.0,0.25,1.0,1.25,0.75,0.5,-1.3,-0.86,0.39,213.64,10.1,21.8,1.0,0.5,1.5,0.5,0.0,0.5,1.0,0.5,0.0,0.5,0.5,0.0,0.25,0.7,-0.36,0.77,105.46,-15.6,28.0
6.3,2.0,1.25,2.0,1.0,4.25,1.25,1.5,1.0,0.25,1.0,1.25,0.75,0.25,-0.98,-0.8,0.33,221.15,8.2,28.1,1.25,0.25,1.25,1.0,0.5,0.5,1.0,0.75,0.0,0.5,0.75,0.0,0.5,0.7,-0.36,0.77,109.38,-12.1,20.6
6.32,2.25,1.0,2.25,0.5,3.0,1.25,1.25,1.0,0.25,1.25,1.25,0.75,0.5,-0.67,-0.73,0.08,228.55,8.9,21.5,1.25,0.25,1.5,1.0,0.5,0.75,0.75,0.5,0.0,0.5,0.5,0.0,0.25,0.7,-0.36,0.83,111.53,-13.5,32.0
6.34,2.25,1.25,2.75,1.0,3.0,1.0,1.25,1.0,0.25,0.75,1.0,0.75,0.25,-0.67,-0.67,0.02,234.43,11.7,31.5,1.25,0.0,1.25,0.75,0.25,0.5,1.0,0.25,0.0,0.25,0.5,0.0,0.25,0.64,-0.48,0.89,108.9,-17.6,33.1
6.36,2.0,1.25,2.25,1.25,3.0,1.0,1.25,1.0,0.25,1.0,1.25,0.75,0.25,-0.8,-0.61,0.08,237.15,10.2,26.8,1.25,0.0,1.5,0.5,0.25,0.75,1.0,0.25,0.0,0.25,0.5,0.0,0.25,0.52,-0.61,0.95,103.45,-16.9,33.2
6.38,2.25,1.0,2.5,1.0,2.25,1.25,1.0,1.0,0.25,0.5,1.25,0.75,0.5,-0.86,-0.73,0.2,233.77,11.4,26.4,1.25,0.25,1.5,0.5,0.0,1.25,1.0,0.5,0.0,0.5,0.5,0.0,0.25,0.33,-0.55,0.95,102.56,-12.5,28.3
6.4,2.25,1.0,2.0,1.0,2.5,1.0,1.75,1.0,0.25,0.5,1.25,0.75,0.25,-0.73,-0.8,0.27,227.77,11.6,27.9,0.5,0.0,0.0,0.25,0.0,0.25,0.5,0.0,0.0,0.5,0.0,0.0,0.0,0.08,-0.23,1.14,76.67,-9.0,22.1
6.42,2.25,1.25,2.0,1.0,3.0,1.25,1.25,1.0,0.25,0.75,1.25,0.5,0.5,-0.8,-0.86,0.2,227.98,9.5,28.4,1.25,0.25,2.0,0.5,0.5,0.0,0.75,0.5,0.0,0.0,0.5,0.0,0.25,-0.3,-0.05,1.2,78.7,-21.8,40.7
6.44,2.25,1.25,2.0,1.0,3.0,1.25,1.25,1.0,0.25,1.0,1.25,0.75,0.5,-0.8,-0.86,0.14,232.0,9.1,24.7,1.0,0.25,0.25,0.5,0.0,1.25,1.0,0.0,0.0,0.5,0.0,0.0,0.0,-0.3,0.08,0.95,68.92,-8.5,43.2
6.46,2.25,1.25,2.0,1.0,3.0,1.25,1.0,1.0,0.25,0.75,1.25,0.75,0.5,-0.73,-0.92,0.27,234.54,9.3,26.3,1.25,0.25,1.75,0.75,0.25,1.5,1.0,0.25,0.0,0.5,0.5,0.0,0.25,0.02,0.33,0.58,87.61,-12.8,33.7
6.48,2.0,1.0,1.75,1.0,2.5,1.5,1.0,1.0,0.25,1.25,1.25,0.75,0.25,-0.73,-1.05,0.52,232.36,7.9,21.4,1.25,0.25,1.5,0.5,0.25,1.25,0.5,0.5,0.0,0.5,0.5,0.0,0.25,0.02,0.45,0.45,95.78,-11.1,29.4
6.5,2.25,1.25,2.0,0.75,2.25,1.75,1.5,1.0,0.25,1.25,1.25,0.75,0.5,-0.55,-0.98,0.52,233.7,8.5,21.4,1.25,0.25,1.75,0.75,0.5,1.25,0.75,0.5,0.0,0.5,0.5,0.25,0.25,0.2,0.39,0.45,114.6,-11.9,27.9
6.52,2.25,1.0,2.0,1.0,4.5,1.25,1.0,1.0,0.25,1.25,1.25,0.75,0.25,-0.36,-0.8,0.58,238.07,7.7,27.0,1.25,0.25,1.25,0.5,1.0,1.25,0.75,0.5,0.0,0.5,0.5,0.25,0.25,0.64,0.39,0.2,121.3,-8.9,26.6
6.54,2.25,1.25,1.75,1.0,3.0,1.75,1.0,0.75,0.25,1.0,0.75,0.75,0.25,-0.17,-0.61,0.58,236.37,8.2,30.8,1.25,0.25,1.25,1.25,1.0,1.25,0.5,0.5,0.0,0.5,0.5,0.0,0.25,0.64,0.39,0.2,129.59,-9.3,33.6
6.56,2.0,1.0,2.25,1.0,3.0,1.5,1.0,1.0,0.25,1.25,0.5,0.75,0.5,0.02,-0.42,0.52,237.38,8.0,26.2,1.25,0.25,1.75,1.25,0.5,1.25,0.5,0.5,0.0,0.5,0.5,0.0,0.25,0.45,0.45,0.27,134.81,-12.0,33.9
6.58,2.0,1.25,2.75,0.75,1.75,1.5,1.25,1.0,0.25,0.75,1.0,0.75,0.5,0.2,-0.23,0.45,231.0,11.1,25.6,1.25,0.25,1.75,0.5,0.0,1.25,0.5,0.5,0.0,0.5,0.25,0.0,0.25,0.45,0.45,0.27,130.99,-12.8,33.4
6.6,1.75,1.25,2.0,1.0,3.0,1.0,1.0,1.0,0.25,0.5,1.25,0.75,0.25,0.33,-0.23,0.39,225.97,9.8,28.0,1.25,0.0,1.5,0.0,0.0,0.0,0.75,0.5,0.0,0.0,0.25,0.0,0.5,0.58,0.33,0.39,112.27,-22.8,28.6
6.62,2.0,1.25,2.0,1.0,3.5,1.75,1.25,1.0,0.25,1.0,1.25,0.75,0.5,0.39,-0.3,0.45,231.12,7.5,25.0,1.25,0.25,0.0,0.5,0.0,1.25,0.5,0.0,0.0,0.5,0.5,0.0,0.25,0.52,0.27,0.52,95.15,-6.0,24.7
6.64,2.0,1.25,2.25,0.5,3.0,1.5,1.25,0.75,0.25,1.25,0.75,0.75,0.5,0.27,-0.48,0.58,231.73,8.4,25.8,1.25,0.25,1.25,0.5,0.0,1.25,0.5,0.25,0.0,0.5,0.5,0.0,1.0,0.77,-1.11,2.45,94.45,-8.9,14.2
6.66,2.0,1.25,2.75,0.75,2.25,1.5,1.0,1.0,0.25,1.25,1.0,0.75,0.5,-0.23,-0.86,0.77,233.32,9.6,23.4,1.25,0.0,1.0,0.5,0.0,1.25,0.5,0.75,0.0,0.75,0.5,0.5,1.25,0.02,-1.05,4.02,97.98,-4.7,-8.1
6.68,2.0,1.25,1.0,0.75,3.0,1.25,1.0,1.0,0.25,1.25,1.0,0.75,0.25,-0.36,-0.98,0.64,226.19,6.2,22.7,1.25,0.25,0.0,0.5,0.0,1.25,0.5,0.0,0.0,0.75,0.5,0.5,1.25,-0.3,0.64,0.33,100.62,-2.2,-11.3
6.7,2.0,1.0,2.0,0.75,3.0,1.0,1.0,1.0,0.25,1.25,1.25,0.75,0.25,-0.42,-1.11,0.45,224.1,8.8,22.3,0.0,0.0,0.0,0.0,0.0,0.0,0.0,0.0,0.0,0.0,0.0,0.0,0.25,-0.11,0.02,1.08,67.48,13.7,-109.8
6.72,2.25,1.25,2.0,1.0,3.0,1.25,0.75,1.0,0.25,0.75,1.25,0.75,0.5,-0.55,-1.17,0.45,223.97,9.1,26.3,1.25,0.25,0.0,0.5,1.0,1.25,0.5,0.75,0.0,1.0,0.5,0.5,1.25,-0.48,0.2,1.7,78.22,0.7,-6.8
6.74,2.0,1.25,2.25,0.75,3.0,1.25,1.25,0.5,0.25,1.0,1.0,0.75,0.5,-0.67,-1.17,0.45,224.65,9.9,27.3,1.25,0.25,1.0,0.5,0.5,1.25,0.75,0.75,0.0,0.5,0.75,0.5,1.25,-0.17,0.2,0.89,89.7,-5.5,-0.4
6.76,2.25,1.0,1.75,1.25,2.5,1.0,1.0,1.0,0.25,1.25,1.0,0.75,0.5,-0.86,-0.48,0.52,224.4,9.0,22.2,1.25,0.25,1.0,0.5,0.5,1.25,0.5,0.5,0.0,0.5,0.5,0.5,1.25,-0.11,0.02,0.83,110.77,-5.7,2.5
6.78,2.0,1.0,2.5,1.0,2.25,1.25,1.0,1.0,0.25,1.25,1.25,0.75,0.25,-0.73,-0.36,0.45,225.71,10.1,22.6,1.0,0.25,0.0,0.5,0.0,1.5,0.0,0.0,0.0,0.75,0.0,0.5,0.5,-0.11,0.02,0.77,105.75,0.3,5.6
6.8,2.25,1.0,2.0,0.75,3.0,1.5,1.0,1.0,0.25,1.25,1.25,0.75,0.25,-0.61,-0.42,0.27,227.66,8.3,23.7,1.25,0.0,1.0,0.5,1.0,1.25,0.5,0.75,0.0,0.5,0.5,0.5,1.25,-0.05,0.02,0.89,118.8,-4.2,1.8
6.82,2.0,1.25,2.25,0.75,3.5,1.5,1.0,0.75,0.25,1.25,1.25,0.75,0.5,-0.61,-0.67,0.27,233.55,8.0,24.3,1.25,0.25,1.25,0.5,1.25,1.75,0.5,0.5,0.0,0.0,0.5,0.0,1.25,0.27,0.14,0.89,125.21,-5.2,21.6
6.84,2.25,1.25,2.0,1.0,2.5,1.5,1.25,1.0,0.25,1.25,0.75,0.75,0.5,-0.61,-0.73,0.39,234.65,8.6,25.3,1.0,0.0,0.0,0.25,0.0,1.5,0.5,0.0,0.0,1.0,0.0,0.5,0.25,0.64,0.08,0.89,113.83,0.4,0.6
6.86,2.25,1.0,2.0,0.75,3.0,1.0,1.0,1.0,0.25,1.0,0.75,0.75,0.5,-0.61,-0.67,0.64,231.4,9.2,26.0,1.25,0.0,1.25,0.5,0.25,1.25,0.5,0.5,0.0,1.0,0.5,0.5,1.25,0.7,0.14,1.02,117.79,-5.5,-4.9
6.88,2.0,1.0,2.0,1.0,2.5,1.5,1.0,1.25,0.25,1.25,1.0,0.75,0.25,-0.86,-0.3,0.64,229.45,8.0,22.6,1.25,0.25,1.25,0.5,0.25,1.5,0.5,0.5,0.0,0.75,0.5,0.5,1.25,0.27,0.14,1.02,120.92,-5.5,1.1
6.9,2.25,1.0,1.75,1.0,0.0,1.25,1.0,0.75,0.25,1.25,1.25,0.75,0.5,-1.17,-0.73,0.45,212.68,11.7,13.6,1.25,0.25,1.25,0.5,0.5,1.5,0.5,0.5,0.0,0.5,0.5,0.5,1.25,-0.23,0.08,1.2,129.79,-5.9,5.1
6.92,2.25,1.25,2.25,1.25,3.0,1.25,0.75,1.0,0.25,0.75,1.25,0.75,0.5,-1.36,-0.98,0.7,217.87,9.7,27.3,0.0,0.0,1.0,0.25,0.25,0.0,0.5,0.5,0.0,0.0,0.5,0.0,1.25,-0.23,-0.05,0.89,111.64,-7.3,-23.7
6.94,2.25,1.25,2.25,1.0,3.0,1.75,1.25,1.25,0.25,1.25,1.25,0.75,0.5,-0.98,-0.61,0.7,227.19,8.0,23.2,1.25,0.25,0.0,0.5,0.0,1.25,0.0,0.0,0.0,0.0,0.5,0.0,1.25,0.14,-0.05,0.7,99.44,-2.7,6.6
6.96,2.0,1.25,1.75,0.5,3.0,1.75,1.0,1.0,0.25,1.25,1.25,0.75,0.25,-0.92,-0.3,0.64,233.44,6.8,22.8,0.0,0.0,0.0,0.0,0.0,0.0,0.25,0.0,0.0,0.0,0.0,0.0,0.75,0.52,0.02,0.64,55.62,7.5,-91.4
6.98,2.0,1.0,2.0,0.5,2.5,1.5,1.25,1.0,0.25,1.5,1.25,0.75,0.5,-0.73,0.02,0.64,233.54,7.6,17.2,0.0,0.0,0.0,0.0,0.0,0.0,0.5,0.0,0.0,0.0,0.0,0.5,0.5,0.7,0.02,0.77,31.47,-4.1,-83.6
7.0,2.0,1.25,2.25,0.25,2.5,1.25,1.0,1.0,0.25,1.25,1.25,0.75,0.0,-0.67,0.02,0.52,228.14,9.5,24.3,0.0,0.0,0.0,0.0,0.0,0.0,0.5,0.0,0.0,0.0,0.0,0.25,1.0,0.64,-0.05,0.64,14.98,2.7,-88.2
7.02,2.25,1.25,2.25,0.5,2.25,1.25,0.5,0.75,0.25,1.0,1.25,0.75,0.5,-0.8,-0.48,0.45,221.13,9.9,23.5,0.0,0.0,0.0,0.0,0.0,0.0,0.0,0.0,0.0,0.0,0.0,0.75,1.25,0.39,-0.11,0.7,14.97,5.4,-109.9
7.04,2.25,1.25,2.0,1.0,3.0,1.25,1.0,0.5,0.25,1.0,1.0,0.75,0.25,-0.73,-0.67,0.39,219.21,10.1,30.6,0.0,0.0,0.0,0.0,0.0,0.0,0.0,0.0,0.0,0.0,0.0,0.5,1.25,0.02,-0.05,0.7,11.62,7.4,-109.9
7.06,2.25,1.0,2.0,1.0,2.25,1.75,1.0,0.75,0.25,1.25,0.5,0.75,0.5,-0.73,-0.55,0.52,219.63,8.5,26.3,1.25,0.0,0.0,0.5,0.0,0.25,0.25,0.0,0.0,1.5,0.75,2.0,2.5,-0.17,-0.05,0.95,54.36,-1.7,-58.1
7.08,2.25,1.25,2.5,0.75,2.25,1.25,1.0,1.0,0.25,1.25,1.0,0.75,0.5,-0.8,-0.55,0.58,224.19,10.0,23.7,0.0,0.0,0.0,0.0,0.0,0.0,0.0,0.0,0.0,0.0,0.25,1.0,2.75,0.02,0.02,1.02,69.07,6.7,-107.8
7.1,2.25,1.0,2.5,0.5,3.5,1.25,1.0,1.0,0.25,0.75,1.0,0.75,0.5,-0.8,-0.23,0.39,229.01,9.5,27.7,1.0,0.0,1.25,0.5,0.25,0.25,1.25,0.75,0.25,1.5,1.5,2.0,4.0,0.27,-0.05,0.83,125.2,-3.4,-49.7
7.12,2.25,0.75,1.5,0.25,1.25,1.0,1.0,0.75,0.25,1.25,1.0,0.75,0.5,-0.92,-0.11,0.52,214.19,9.7,14.1,1.25,0.5,0.75,1.25,1.5,0.25,1.25,0.75,0.25,1.5,1.25,2.0,3.25,0.27,-0.05,0.83,168.15,-3.8,-27.5
7.14,2.25,1.0,1.5,0.25,2.25,1.25,0.75,0.75,0.25,1.5,0.75,0.75,0.5,-0.92,-0.11,0.58,206.09,7.4,19.2,0.0,0.0,1.0,0.0,0.5,0.0,0.5,0.75,0.0,0.5,1.5,1.25,3.0,0.14,-0.05,0.77,184.77,-1.0,-62.1
7.16,2.25,1.25,1.75,0.5,2.5,1.0,1.25,0.5,0.25,1.25,0.75,0.75,0.5,-0.86,0.08,0.52,197.9,9.7,25.4,1.0,0.25,1.0,0.5,0.25,0.25,0.5,0.75,0.25,2.0,1.25,2.0,4.5,0.08,0.02,0.95,206.77,-0.8,-53.5
7.18,2.25,1.0,1.5,0.5,4.25,1.25,1.0,0.75,0.25,1.25,0.75,0.75,0.5,-0.67,0.27,0.45,208.43,6.5,26.3,1.25,0.5,1.0,0.5,0.25,1.0,0.75,0.0,0.25,2.0,0.0,2.5,3.5,0.02,0.02,1.02,211.88,-2.2,-39.0
7.2,2.0,1.0,1.5,0.5,2.5,1.25,1.25,0.75,0.25,1.25,0.25,0.75,0.5,-0.67,0.14,0.52,207.83,7.6,24.7,1.0,0.0,1.25,0.75,0.5,0.75,0.5,0.75,0.25,2.0,2.0,2.5,4.5,0.02,0.08,1.08,233.78,-1.4,-50.7
7.22,2.25,1.0,1.5,0.5,2.5,1.0,1.0,0.5,0.25,0.5,0.75,0.75,1.25,-0.61,0.14,0.77,207.75,9.0,21.2,0.75,0.0,1.0,0.5,0.5,0.5,0.5,0.75,0.25,2.0,2.0,2.25,4.25,0.08,0.02,0.95,239.58,-0.5,-56.1
7.24,2.0,1.25,1.5,1.0,2.5,1.0,1.0,0.75,0.25,1.25,0.5,0.75,0.5,-0.55,0.02,0.77,205.06,8.4,25.4,0.75,0.25,1.0,0.5,1.25,1.25,0.5,0.75,0.5,2.0,2.0,2.5,4.0,0.14,0.08,0.95,254.0,0.0,-44.2
7.26,2.0,0.75,1.75,0.75,2.5,1.0,1.0,0.75,0.25,1.25,1.0,0.75,0.25,-0.55,0.08,0.77,202.27,9.1,21.6,1.0,0.25,1.25,0.5,1.0,0.5,0.5,0.75,0.5,2.0,2.0,2.75,4.0,0.2,0.08,0.95,255.81,-2.2,-46.6
7.28,1.25,0.75,1.75,1.0,2.5,1.25,1.25,0.75,0.25,1.25,1.0,0.75,0.5,-0.42,0.02,0.64,201.17,7.2,16.3,0.75,0.0,1.25,0.5,1.0,0.25,0.5,0.75,0.75,2.25,2.0,2.75,4.0,0.08,0.08,0.95,256.72,-1.8,-52.3
7.3,2.5,1.0,1.75,0.25,2.5,1.0,1.0,0.75,0.25,0.75,0.75,0.75,0.5,-0.17,0.08,0.64,201.16,10.2,27.2,1.0,0.0,0.75,0.5,1.25,1.25,0.5,0.75,0.75,2.0,2.5,2.75,4.0,0.02,0.08,0.95,256.29,-0.3,-47.6
7.32,2.25,1.25,1.75,1.0,2.5,1.0,1.25,0.75,0.25,1.0,1.0,0.75,0.5,0.14,0.14,0.64,207.13,10.0,25.6,0.75,0.0,1.25,0.75,0.5,1.75,0.5,0.75,0.75,2.0,2.5,2.75,3.75,0.02,0.08,0.95,258.46,-1.0,-46.7
7.34,2.75,0.5,1.75,1.0,2.5,1.0,1.25,0.75,0.25,1.25,0.75,0.75,0.5,0.39,0.27,0.64,211.09,10.2,23.9,0.75,0.0,1.5,1.0,1.0,2.25,0.5,0.75,0.75,2.25,2.5,2.75,3.25,0.02,0.14,1.02,258.74,-1.1,-37.4
7.36,2.25,1.0,1.75,0.0,2.5,0.5,1.25,0.75,0.0,1.25,0.75,0.75,0.25,0.39,0.45,0.45,207.9,10.5,25.0,0.75,0.0,1.25,0.75,0.25,1.5,0.5,0.75,0.75,2.0,2.75,2.75,3.0,0.08,0.14,0.95,255.55,-2.2,-47.1
7.38,2.25,1.0,1.75,1.0,2.5,1.0,1.25,0.75,0.25,0.5,1.0,0.75,0.5,0.52,0.77,0.39,206.37,10.9,27.8,0.75,0.0,1.25,0.5,0.5,1.75,0.5,0.75,0.75,2.0,2.75,2.25,3.0,0.08,0.08,0.95,250.96,-1.3,-43.9
7.4,2.25,1.25,1.75,0.75,2.5,1.0,1.25,0.75,0.25,1.0,1.0,0.0,0.5,0.39,0.7,0.27,204.88,9.9,32.2,0.75,0.0,0.5,0.5,0.0,2.0,0.5,1.0,0.75,1.75,2.5,2.0,3.0,0.02,0.08,0.95,234.63,1.0,-49.7
7.42,2.25,1.25,2.0,1.0,2.5,1.25,1.5,0.75,0.0,0.5,1.0,0.0,0.5,0.2,0.58,0.45,207.48,11.1,38.3,0.75,0.0,1.25,1.25,1.25,1.75,0.5,0.75,0.75,2.0,2.75,2.0,2.75,0.02,0.14,0.95,232.66,-1.9,-32.7
7.44,0.75,0.0,1.5,0.25,0.5,0.0,1.0,0.0,0.25,0.5,0.0,0.75,0.5,-1.98,-2.48,7.33,170.07,17.3,6.5,0.75,0.0,1.25,0.75,1.25,1.75,0.75,0.75,0.75,2.0,2.25,2.0,2.5,0.08,0.14,0.95,225.83,-1.6,-32.7
7.46,2.25,1.25,2.25,1.75,1.25,1.75,1.75,2.0,2.5,2.5,2.5,4.0,1.5,1.2,0.64,1.89,222.04,7.2,-15.6,0.75,0.25,1.25,0.75,1.0,1.75,0.5,1.0,0.25,1.5,2.75,2.0,2.5,0.02,0.14,0.95,223.92,-1.9,-32.4
7.48,2.0,1.25,2.25,1.0,2.25,1.75,1.75,3.0,1.25,2.0,4.0,2.5,1.5,-0.05,-0.98,1.45,262.42,5.6,-12.3,0.75,0.0,1.0,1.25,1.5,1.5,0.5,0.75,0.75,1.75,2.75,2.0,2.5,0.08,0.14,0.95,222.58,-2.1,-31.7
7.5,2.0,1.25,1.5,0.25,2.5,2.25,1.75,1.0,0.0,0.75,2.25,0.75,1.0,-0.11,0.27,0.95,279.05,6.1,13.0,1.25,0.0,1.5,0.5,1.25,2.0,0.75,1.0,0.75,1.5,2.5,2.0,2.25,0.14,0.14,0.95,222.64,-3.1,-26.3
7.52,1.75,0.75,1.75,0.5,0.75,2.25,1.5,1.0,0.25,1.75,1.75,0.75,0.5,-0.11,0.14,0.89,264.54,6.4,4.7,0.75,0.0,1.5,0.75,1.25,1.5,0.5,1.25,0.75,1.5,2.75,2.0,2.25,0.14,0.14,0.95,222.12,-2.8,-31.5
7.54,1.0,0.0,1.5,0.0,0.75,0.25,1.25,0.25,0.0,0.5,1.0,0.75,0.0,-0.11,0.08,0.83,212.17,16.2,8.1,0.75,0.5,1.5,0.5,1.25,1.75,0.5,0.75,0.75,1.5,2.0,2.0,2.5,0.14,0.14,0.95,219.1,-2.5,-26.9
7.56,2.25,1.0,0.75,1.0,1.25,1.75,1.25,0.0,0.5,2.0,2.0,2.5,1.0,-0.11,0.08,1.02,197.62,6.8,-8.2,0.5,0.25,1.25,0.75,1.0,2.0,0.5,1.0,0.5,1.5,2.25,2.0,2.25,0.08,0.14,0.95,215.92,-1.1,-30.8
7.58,2.25,1.25,1.5,0.75,2.5,1.75,1.25,1.25,0.5,2.0,1.25,2.5,1.5,-0.11,0.08,1.02,210.66,5.1,-2.6,1.0,0.0,1.25,0.75,1.0,2.0,0.5,0.75,0.5,1.5,2.0,2.0,2.5,-0.05,0.14,0.95,212.12,-1.8,-29.6
7.6,1.75,1.25,1.5,1.0,2.5,1.5,1.0,0.75,0.5,2.0,2.25,2.5,1.25,-0.17,0.08,1.02,242.49,5.8,-6.1,0.75,0.5,1.5,0.75,1.5,1.75,0.5,0.75,0.25,2.0,2.75,2.0,2.75,-0.11,0.08,1.02,219.34,-1.9,-28.6
7.62,2.0,1.25,1.5,1.0,2.25,1.75,1.25,1.0,0.25,2.0,2.25,0.75,1.5,-0.11,0.14,1.02,255.88,5.2,3.3,0.75,0.25,1.5,0.25,1.5,1.25,0.5,0.75,0.25,2.0,2.5,2.0,2.5,-0.11,0.08,0.95,220.0,-2.1,-33.3
7.64,0.5,0.0,0.0,0.0,0.0,0.0,0.25,0.5,0.0,0.5,0.75,1.0,0.0,-0.05,0.08,0.95,201.2,6.2,-52.0,1.0,0.0,1.25,0.5,1.25,1.25,0.5,0.75,0.25,1.75,2.5,2.0,2.75,0.08,0.08,0.89,220.44,-2.2,-35.8
7.66,0.5,0.0,0.25,0.0,0.0,0.0,0.25,0.5,0.25,0.5,0.0,0.75,0.0,0.02,0.08,0.95,130.8,8.2,-29.5,0.75,0.25,1.25,0.5,1.0,1.25,0.5,0.75,0.0,2.0,2.0,2.0,3.0,0.14,0.08,0.89,215.48,-1.0,-37.8
7.68,0.5,0.0,0.0,0.0,0.0,0.0,0.25,0.0,0.25,0.5,0.75,0.75,0.25,0.02,0.02,0.95,59.79,8.5,-53.3,0.75,0.5,1.25,0.5,0.25,0.25,0.5,0.75,0.25,2.0,2.0,2.0,3.0,0.14,0.08,0.89,209.03,-3.3,-46.0
7.7,0.5,0.0,0.0,0.0,0.0,0.0,0.5,0.0,0.0,0.5,0.5,0.75,0.0,-0.05,0.08,1.02,8.63,11.5,-42.6,0.75,0.25,1.25,1.0,0.0,2.0,0.5,1.0,0.0,2.25,2.5,2.0,3.25,0.08,0.08,0.89,212.43,-0.3,-41.0
7.72,0.5,0.0,0.0,0.0,0.0,0.0,0.5,0.0,0.25,0.5,0.5,0.75,0.0,-0.17,0.08,1.02,0.0,11.5,-42.3,0.75,0.5,0.75,0.5,0.0,2.75,0.25,1.0,0.0,2.0,2.5,2.0,3.75,0.08,0.08,0.95,218.26,2.6,-44.0
7.74,0.5,0.0,0.0,0.0,0.0,0.0,0.5,0.0,0.0,0.5,0.25,0.75,0.25,-0.17,0.02,0.89,4.0,8.9,-46.4,1.0,0.5,1.25,0.75,0.25,2.75,0.5,1.0,0.0,2.25,2.0,2.0,3.5,0.08,0.08,0.95,228.05,0.7,-33.9
7.76,0.5,0.0,0.25,0.0,0.0,0.0,0.25,0.0,0.0,0.5,0.5,0.75,0.0,-0.17,0.02,0.89,4.0,13.2,-35.5,1.0,0.5,1.0,0.5,0.0,2.5,0.0,1.75,0.0,2.25,2.0,2.0,3.5,0.08,0.02,0.89,233.13,2.4,-40.4
7.78,0.5,0.0,0.25,0.75,0.5,1.75,0.5,0.0,0.25,1.75,0.5,2.5,0.0,-0.23,-0.05,0.89,34.93,1.1,-28.0,1.0,0.25,1.0,0.5,0.0,2.75,0.0,1.75,0.0,2.5,2.0,2.0,3.75,0.2,0.08,0.83,239.07,3.3,-42.9
7.8,0.5,0.0,0.0,0.0,0.0,0.0,0.25,0.0,0.0,0.5,0.5,1.25,0.25,-0.05,-0.05,0.89,30.15,8.1,-61.9,0.0,0.0,1.0,0.25,0.0,2.75,0.0,0.75,0.0,3.5,0.25,2.0,3.25,0.33,0.08,0.83,228.26,7.9,-53.3
