time,left pressure 0[N/cm虏],left pressure 1[N/cm虏],left pressure 2[N/cm虏],left pressure 3[N/cm虏],left pressure 4[N/cm虏],left pressure 5[N/cm虏],left pressure 6[N/cm虏],left pressure 7[N/cm虏],left pressure 8[N/cm虏],left pressure 9[N/cm虏],left pressure 10[N/cm虏],left pressure 11[N/cm虏],left pressure 12[N/cm虏],left acceleration X[g],left acceleration Y[g],left acceleration Z[g],left total force[N],left center of pressure X[mm],left center of pressure Y[mm],right pressure 0[N/cm虏],right pressure 1[N/cm虏],right pressure 2[N/cm虏],right pressure 3[N/cm虏],right pressure 4[N/cm虏],right pressure 5[N/cm虏],right pressure 6[N/cm虏],right pressure 7[N/cm虏],right pressure 8[N/cm虏],right pressure 9[N/cm虏],right pressure 10[N/cm虏],right pressure 11[N/cm虏],right pressure 12[N/cm虏],right acceleration X[g],right acceleration Y[g],right acceleration Z[g],right total force[N],right center of pressure X[mm],right center of pressure Y[mm]
0.02,2.25,1.5,6.5,4.75,6.0,3.0,4.75,4.25,7.0,3.25,3.5,0.75,1.0,-0.05,0.08,0.95,695.27,8.7,9.7,8.75,1.5,7.75,8.5,9.25,2.75,0.0,0.25,0.25,0.0,0.0,0.0,0.5,0.08,0.33,0.89,688.49,-16.1,62.0
0.04,2.25,1.75,6.25,4.75,6.0,3.25,4.75,3.75,7.0,3.0,3.5,0.5,1.0,-0.05,0.08,0.95,671.76,8.8,11.7,8.75,1.75,7.5,10.5,9.25,4.25,0.0,0.5,0.25,0.0,0.0,0.0,0.0,0.08,0.33,0.89,759.35,-14.9,62.6
0.06,2.25,1.25,6.0,4.75,6.0,3.5,4.75,3.5,6.25,2.75,3.5,0.75,1.0,-0.05,0.08,0.95,644.81,8.7,11.4,9.5,2.5,8.25,11.5,11.0,5.25,0.25,1.0,1.0,0.5,0.0,0.5,0.0,0.08,0.27,0.89,855.88,-13.5,57.2
0.08,2.25,1.5,6.0,4.75,6.0,3.5,4.5,2.75,6.25,3.0,3.25,0.5,1.0,-0.05,0.08,0.95,623.7,8.9,13.4,9.75,2.5,9.0,13.5,12.0,6.0,0.5,1.0,1.0,0.75,0.75,0.5,0.75,0.08,0.27,0.95,984.22,-12.8,52.7
0.1,2.25,1.25,5.75,4.25,6.0,3.5,4.5,2.75,5.5,2.75,2.5,0.5,1.0,-0.05,0.08,0.95,592.7,8.7,15.1,9.75,3.0,9.75,13.5,13.5,6.25,1.25,1.25,1.25,0.75,0.75,0.5,0.75,0.08,0.2,1.02,1122.4,-12.5,52.3
0.12,2.0,1.0,5.25,3.5,6.0,3.25,4.0,2.75,5.0,2.5,2.5,0.75,1.0,-0.05,0.14,0.95,554.81,8.1,12.8,9.75,3.0,10.0,14.0,13.5,6.75,2.25,1.75,1.75,1.0,0.75,0.5,0.75,0.08,0.2,0.95,1249.4,-12.2,50.2
0.14,1.5,1.25,5.0,3.25,5.75,3.0,3.25,2.75,4.5,2.5,2.5,0.5,1.0,-0.05,0.14,0.95,511.35,7.5,12.6,9.75,3.0,11.0,14.5,13.5,6.5,3.0,2.5,2.0,1.0,0.75,0.5,0.75,0.08,0.2,0.95,1337.16,-12.6,49.1
0.16,1.5,1.25,4.0,2.5,5.25,3.0,3.0,2.5,3.5,2.5,2.5,0.5,1.0,-0.11,0.14,0.95,457.96,6.4,11.1,9.75,3.25,11.0,15.5,14.0,7.0,3.5,2.5,2.25,0.75,0.75,0.5,0.75,0.08,0.2,0.95,1391.57,-12.4,49.4
0.18,1.0,1.0,4.25,2.25,4.75,3.0,3.0,2.75,2.75,1.5,2.5,0.75,1.0,-0.11,0.14,0.95,406.2,6.7,10.9,10.0,3.0,11.0,15.5,15.0,7.0,3.5,2.5,2.0,0.75,0.75,0.5,0.75,0.08,0.2,0.95,1429.5,-12.3,49.7
0.2,0.5,0.75,3.0,2.0,2.25,1.75,2.0,0.75,1.75,0.5,1.0,0.0,0.0,-0.11,0.14,0.95,310.89,11.3,28.7,10.0,3.0,11.0,15.5,15.0,7.25,3.25,2.5,1.75,0.75,0.75,0.5,0.75,0.08,0.2,0.95,1446.69,-12.1,50.0
0.22,0.5,0.75,3.0,1.75,2.25,1.75,2.25,0.5,1.25,1.0,0.75,0.0,0.0,-0.17,0.2,0.89,245.28,10.9,29.7,10.5,3.0,11.5,15.5,15.0,7.0,3.0,2.5,1.75,0.25,0.75,0.5,0.75,0.08,0.2,0.95,1448.71,-12.7,51.4
0.24,0.5,1.0,3.0,2.25,2.25,2.25,2.0,0.5,1.75,2.5,2.25,0.5,1.0,-0.17,0.2,0.95,211.59,7.0,4.9,11.0,3.25,11.5,15.5,15.0,6.75,2.5,2.0,1.25,0.75,0.75,0.5,0.5,0.02,0.2,0.95,1435.62,-13.0,52.9
0.26,0.5,1.0,3.0,2.25,3.0,2.0,2.5,2.25,1.25,2.25,2.0,0.5,1.0,-0.23,0.27,0.89,214.54,5.5,6.0,10.5,3.0,11.5,15.5,15.0,6.75,1.75,1.5,1.0,0.75,0.75,0.75,0.5,0.02,0.2,0.89,1413.43,-13.0,53.0
0.28,0.5,1.0,3.0,2.0,2.5,1.75,2.5,2.25,1.25,2.5,2.0,0.25,1.0,-0.17,0.2,0.95,226.0,5.6,4.2,10.5,3.0,11.5,16.5,15.0,6.75,1.75,1.25,1.0,0.5,0.75,0.5,0.75,0.02,0.27,0.89,1387.51,-13.2,53.8
0.3,0.0,0.75,1.75,0.75,2.25,1.5,1.75,0.5,0.75,0.5,1.0,0.0,0.0,-0.11,0.27,0.89,197.73,7.4,25.9,10.5,2.5,12.0,16.0,15.5,6.75,1.5,1.25,1.0,0.75,0.75,0.5,0.5,0.02,0.27,0.89,1360.9,-13.1,53.7
0.32,0.0,0.75,1.5,1.0,1.25,1.0,1.5,0.5,0.75,0.5,0.75,0.0,0.0,-0.11,0.33,0.95,154.74,9.4,24.6,11.0,2.5,12.5,16.5,15.5,6.75,1.25,1.0,1.0,0.75,0.75,0.5,0.5,0.02,0.27,0.89,1351.64,-13.6,54.4
0.34,0.0,0.75,1.0,0.75,2.25,1.25,1.75,0.5,0.75,0.5,0.5,0.0,0.0,-0.23,0.27,0.83,112.45,5.5,28.1,11.0,2.5,12.5,16.5,15.5,6.75,1.25,1.0,1.0,0.75,0.75,0.5,0.75,0.02,0.27,0.89,1348.57,-13.5,53.8
0.36,0.25,0.75,1.25,1.0,0.75,1.25,1.75,0.25,1.0,1.0,0.5,0.5,0.0,-0.36,0.33,0.7,93.0,8.9,14.1,10.5,2.75,12.5,16.5,16.0,6.75,1.25,1.0,0.75,0.75,0.75,0.5,0.75,0.08,0.27,0.89,1350.24,-13.2,54.0
0.38,0.5,1.0,3.0,2.0,2.5,1.75,2.5,1.5,1.25,0.5,1.75,0.5,1.0,-0.36,0.33,0.89,139.16,8.7,13.8,11.0,3.25,12.5,17.0,16.5,6.75,1.75,1.0,0.75,0.75,0.75,0.5,0.75,0.02,0.27,0.89,1364.9,-13.3,54.5
0.4,0.0,1.0,1.25,1.0,2.25,1.75,2.0,0.5,0.75,0.75,0.25,0.5,0.0,-0.36,0.27,0.89,155.28,5.3,25.2,11.5,2.5,13.0,17.0,17.0,6.75,1.5,1.0,0.75,0.75,0.75,0.5,0.75,0.02,0.27,0.89,1382.81,-13.4,54.4
0.42,0.0,0.75,2.0,0.5,2.25,1.0,1.75,0.5,0.5,0.5,0.0,0.25,0.0,-0.17,0.14,0.95,162.12,9.1,34.1,11.5,2.5,13.5,17.5,17.0,6.75,1.75,1.0,0.5,0.25,0.75,0.5,0.75,0.02,0.27,0.89,1403.85,-13.9,55.6
0.44,0.75,1.0,1.25,2.0,2.5,1.75,2.25,1.75,1.0,2.0,1.5,0.5,1.0,-0.17,0.08,0.95,190.61,3.6,4.1,11.5,3.25,13.5,17.5,17.0,6.75,1.5,1.0,0.5,0.75,0.75,0.5,0.75,0.08,0.27,0.95,1425.54,-13.6,55.2
0.46,0.5,1.0,3.0,2.0,2.5,1.75,2.0,1.0,1.25,2.0,1.5,0.5,1.0,-0.11,0.02,0.95,217.28,7.2,9.2,12.0,3.25,13.0,17.5,17.0,6.75,1.25,1.0,0.5,1.0,0.75,0.5,0.75,0.08,0.27,0.95,1441.62,-13.5,55.0
0.48,0.75,1.0,3.0,1.75,2.5,1.75,2.0,1.0,1.25,2.0,1.25,0.5,1.0,-0.11,0.02,0.95,240.69,7.3,10.7,11.5,2.75,13.0,17.5,17.0,6.75,1.25,1.0,0.5,0.5,0.75,0.5,0.75,0.08,0.27,0.95,1442.13,-13.5,55.3
0.5,0.5,1.0,3.0,1.0,2.5,1.25,2.0,1.0,1.25,2.0,1.25,0.5,1.0,0.08,-0.05,1.02,254.88,7.3,6.8,12.0,3.25,13.0,16.5,17.0,6.5,1.0,1.0,0.5,0.5,0.75,0.5,0.75,0.08,0.27,0.95,1435.83,-13.7,56.0
0.52,0.5,0.25,3.0,0.25,2.5,0.25,2.0,1.5,0.5,0.5,1.75,0.0,1.0,0.14,-0.05,0.95,247.88,10.1,8.0,12.5,3.25,12.5,17.0,15.5,6.25,0.75,1.0,0.25,0.5,0.75,0.5,0.5,0.08,0.33,0.95,1412.89,-14.3,57.3
0.54,0.5,1.0,3.0,2.0,3.0,1.25,2.5,1.5,1.0,1.75,1.75,0.5,1.0,0.33,-0.17,1.02,259.51,7.6,9.6,12.5,2.5,12.5,16.5,15.0,5.75,0.25,0.0,0.5,0.0,0.75,0.5,0.75,0.08,0.33,0.95,1370.48,-15.2,58.5
0.56,0.5,1.0,3.0,2.0,2.5,1.75,2.5,1.5,1.25,2.0,1.5,0.5,1.0,0.2,-0.23,0.95,266.57,6.9,8.3,13.0,3.25,12.5,15.5,14.0,5.0,0.25,0.25,0.5,0.5,0.75,0.5,0.5,0.08,0.33,1.02,1324.98,-15.7,58.9
0.58,0.5,1.0,3.0,2.0,4.75,1.75,2.5,1.0,1.25,2.0,1.0,0.5,0.5,-0.11,0.14,0.95,284.21,6.6,19.7,12.5,3.25,12.5,13.5,13.0,4.25,0.25,0.5,0.5,0.25,0.75,0.0,0.75,0.08,0.39,1.08,1245.4,-16.2,59.8
0.6,0.5,1.0,3.0,2.0,3.0,1.75,2.5,1.75,1.25,2.0,1.0,0.5,1.0,-0.11,0.14,0.89,289.82,6.2,10.9,13.5,3.0,11.0,12.5,11.0,2.0,0.25,0.25,0.25,0.0,0.5,0.0,0.5,0.08,0.45,1.2,1115.78,-18.7,64.3
0.62,0.0,1.0,3.0,2.25,3.0,2.0,2.5,1.75,2.0,2.5,1.75,0.5,0.5,-0.11,0.14,0.89,296.66,5.7,6.2,12.5,2.75,11.0,11.0,9.25,2.0,0.25,0.0,0.25,0.25,0.25,0.0,0.75,0.14,0.58,1.33,971.67,-19.2,63.7
0.64,0.0,1.0,3.25,2.25,4.75,3.0,2.0,2.0,2.5,3.0,2.25,0.5,0.75,-0.05,0.14,0.95,325.2,3.5,5.8,11.5,2.5,10.0,9.75,8.0,2.25,0.25,0.25,0.25,0.5,0.5,0.5,0.5,0.14,0.64,1.45,836.75,-18.7,60.4
0.66,0.5,1.0,3.75,2.0,2.25,1.75,3.25,2.75,3.0,2.75,2.5,0.5,1.25,-0.05,0.14,0.95,340.55,6.8,-2.4,10.0,1.75,9.0,7.25,6.75,1.75,0.5,0.0,0.25,0.0,0.75,0.0,0.5,0.2,0.7,1.58,684.71,-19.9,62.7
0.68,0.75,1.0,5.0,4.0,5.5,3.25,3.75,2.75,4.5,3.0,3.0,0.5,1.0,-0.05,0.08,0.95,404.33,6.9,8.9,8.75,1.75,7.5,7.0,4.75,0.5,0.25,0.0,0.25,0.0,0.0,0.5,0.5,0.14,0.77,1.64,536.33,-21.7,63.8
0.7,0.0,1.25,5.0,4.75,6.0,3.25,4.5,3.0,5.0,3.0,2.5,0.75,1.0,-0.05,0.08,0.95,482.92,6.6,9.1,7.0,0.0,7.5,5.0,6.5,1.25,0.25,0.75,0.25,0.0,0.75,0.0,0.0,0.08,0.77,1.95,419.94,-18.8,58.8
0.72,1.25,1.25,5.75,4.75,6.0,4.0,4.5,3.75,5.5,3.0,3.0,0.75,1.0,-0.05,0.08,0.95,583.73,7.1,10.5,6.0,0.5,4.5,5.0,4.75,0.0,0.25,0.75,0.25,0.5,0.75,0.25,0.5,0.27,0.27,1.45,328.26,-17.9,51.5
0.74,1.0,1.5,6.0,4.75,6.0,4.25,4.75,4.5,6.25,3.0,3.5,0.75,1.0,-0.05,0.08,0.95,665.49,6.8,8.5,3.25,0.0,1.75,2.25,4.5,0.75,0.0,0.0,0.5,0.0,0.0,0.0,0.0,0.45,-0.11,0.7,233.41,-13.8,60.8
0.76,1.5,1.75,6.25,5.5,6.0,5.0,5.0,4.5,6.75,3.25,3.5,0.75,1.25,-0.05,0.08,0.95,750.33,6.9,9.8,3.25,0.0,0.5,4.0,5.0,0.0,0.25,1.0,0.25,0.75,0.75,0.5,0.5,1.02,-0.36,1.2,174.58,-9.3,35.2
0.78,2.25,1.25,6.5,6.0,5.75,5.25,5.25,5.5,7.0,3.5,4.0,0.75,1.25,-0.05,0.08,0.95,815.41,7.0,8.4,2.25,0.0,2.0,2.0,5.0,0.0,0.25,0.75,0.0,0.0,0.75,0.0,0.5,0.95,-0.55,0.95,122.72,-11.4,44.1
0.8,2.5,1.75,6.5,6.5,6.0,5.25,5.5,5.75,7.25,3.5,4.5,0.75,2.0,-0.05,0.08,0.95,891.66,6.9,7.5,0.75,0.0,0.5,2.0,4.25,0.0,0.0,0.0,0.0,0.0,0.0,0.0,0.0,0.64,-0.23,0.7,71.75,-7.7,58.8
0.82,2.25,1.75,6.5,6.5,6.5,5.5,5.5,5.75,7.25,3.25,4.5,0.75,1.25,-0.05,0.08,0.95,941.86,6.9,9.8,0.75,0.0,0.25,1.25,4.5,0.0,0.0,0.0,0.0,0.0,0.0,0.0,0.0,0.33,-0.11,0.58,35.04,-5.3,58.6
0.84,2.25,2.0,7.25,7.0,6.5,5.75,5.75,5.75,7.25,3.25,4.0,0.75,1.25,-0.05,0.08,0.95,980.73,7.4,12.2,1.25,0.0,0.5,1.0,4.5,0.0,0.0,0.0,0.0,0.0,0.0,0.0,0.0,0.27,-0.05,0.64,22.32,-7.7,61.0
0.86,2.0,2.25,8.0,8.0,7.75,6.0,5.75,6.0,7.25,3.0,4.0,0.75,1.0,-0.05,0.08,0.95,1019.41,7.6,15.4,0.5,0.0,0.25,1.25,4.5,0.0,0.0,0.0,0.0,0.0,0.0,0.0,0.0,0.14,-0.05,0.83,17.12,-4.3,57.4
0.88,2.5,2.0,8.0,8.0,8.0,6.0,5.75,5.75,7.25,3.0,3.75,0.75,1.0,-0.05,0.08,0.95,1043.11,7.8,16.4,0.5,0.0,0.0,1.25,4.25,0.0,0.0,0.0,0.0,0.0,0.0,0.0,0.0,0.2,0.02,0.83,22.62,-3.3,57.4
0.9,2.5,2.25,8.0,8.5,8.0,6.0,5.75,5.75,7.0,3.0,3.5,0.75,1.0,-0.05,0.08,0.95,1059.54,7.9,17.8,0.5,0.0,0.0,0.5,3.75,0.0,0.0,0.0,0.0,0.0,0.0,0.0,0.0,0.33,0.08,0.77,31.01,-2.0,57.8
0.92,2.75,2.0,8.0,9.75,8.0,6.25,5.75,5.75,7.0,3.0,3.5,0.75,1.0,-0.05,0.08,0.95,1066.14,8.0,18.6,1.25,0.0,0.0,0.5,4.25,0.0,0.0,0.0,0.0,0.0,0.0,0.0,0.0,0.39,0.2,0.83,44.85,-5.0,61.6
0.94,3.75,2.5,8.5,9.75,8.0,6.5,6.0,5.75,6.75,3.0,3.0,0.75,1.0,-0.05,0.08,0.95,1088.87,8.6,21.8,0.5,0.0,0.0,0.5,4.25,0.0,0.0,0.0,0.0,0.0,0.0,0.0,0.0,0.33,0.27,0.89,52.59,-1.5,57.3
0.96,4.25,2.5,9.0,12.0,8.5,6.5,6.0,5.75,6.75,3.0,2.75,0.75,1.0,-0.05,0.08,0.95,1131.85,9.2,24.5,1.25,0.0,0.0,0.0,3.5,0.0,0.0,0.0,0.0,0.0,0.0,0.0,0.0,0.33,0.33,1.08,63.26,-5.2,63.4
0.98,4.25,2.5,9.0,12.5,9.0,6.75,6.25,5.75,6.25,3.0,2.5,0.75,1.0,-0.05,0.08,0.95,1176.13,9.1,25.9,0.0,0.0,0.0,0.5,3.5,0.0,0.0,0.0,0.0,0.0,0.0,0.0,0.0,0.27,0.58,1.14,66.59,0.9,54.0
1.0,5.0,2.0,9.5,14.0,9.5,6.75,6.25,5.5,6.0,3.0,2.5,0.75,1.0,-0.05,0.08,0.95,1229.62,9.7,27.7,0.5,0.0,0.0,0.25,3.25,0.0,0.0,0.0,0.0,0.0,0.0,0.0,0.0,0.14,1.02,1.14,62.26,-1.8,58.3
1.02,5.5,2.5,9.75,14.5,9.5,6.75,6.25,4.75,5.5,3.0,2.5,0.75,1.0,-0.05,0.08,0.95,1269.82,10.3,30.2,0.5,0.0,0.0,0.5,3.25,0.0,0.0,0.0,0.0,0.0,0.0,0.0,0.0,-0.11,1.58,1.2,65.5,-2.7,58.3
1.04,5.75,2.5,10.0,15.5,9.75,6.75,6.25,4.5,5.0,3.0,2.5,0.75,1.0,-0.05,0.14,0.95,1305.45,10.6,31.8,0.5,0.0,0.0,0.0,3.25,0.0,0.0,0.0,0.0,0.0,0.0,0.0,0.0,-0.42,2.39,0.77,67.46,-0.9,58.3
1.06,6.25,2.5,10.5,16.0,11.5,6.75,6.25,4.0,4.25,2.75,2.5,0.75,1.0,-0.05,0.14,0.95,1336.03,10.9,34.7,0.0,0.0,0.0,0.0,2.5,0.0,0.0,0.0,0.0,0.0,0.0,0.0,0.0,-2.42,5.33,-1.73,58.55,3.2,53.5
1.08,6.25,2.0,11.0,17.0,12.0,6.5,5.25,3.0,3.0,3.0,2.5,0.5,1.0,-0.11,0.14,0.95,1350.11,11.3,37.4,1.25,0.25,0.0,0.75,2.75,0.0,0.0,0.0,0.0,0.25,0.0,0.0,0.0,-1.55,3.64,-0.05,66.14,-7.6,59.6
1.1,6.5,2.75,11.5,17.5,12.0,5.75,5.25,2.75,2.0,3.0,2.0,0.5,1.0,-0.11,0.14,1.02,1355.64,12.0,40.6,1.25,0.5,1.0,2.0,4.75,2.0,0.0,2.25,1.75,3.75,0.5,2.75,1.25,-0.73,1.02,1.14,163.22,0.0,-8.4
1.12,7.25,3.0,12.0,16.5,12.0,5.25,5.25,2.75,1.75,3.0,2.0,0.5,1.0,-0.11,0.14,1.02,1352.95,12.6,41.6,0.5,0.0,0.5,0.0,4.75,1.25,0.5,2.5,2.75,3.75,4.0,3.0,1.75,0.33,-0.05,0.95,246.74,0.9,-34.6
1.14,7.75,3.25,12.5,16.5,12.0,4.0,3.5,2.5,1.25,3.0,2.0,0.5,1.0,-0.11,0.2,1.02,1338.26,13.4,43.5,1.75,0.0,2.0,0.0,4.75,1.25,1.25,3.75,3.0,2.25,4.75,2.25,1.75,0.08,0.14,0.89,325.47,-3.2,-20.4
1.16,8.0,3.75,12.5,15.5,11.5,4.0,3.0,2.5,1.25,2.75,1.75,0.5,1.0,-0.11,0.2,1.08,1311.11,13.6,44.7,2.0,1.0,1.75,2.75,4.5,3.75,1.25,3.75,4.25,4.25,5.0,2.25,2.75,0.02,0.2,0.89,431.87,-1.8,-14.6
1.18,8.75,3.75,12.5,14.5,9.5,4.0,3.0,1.75,1.0,2.75,1.25,0.75,1.0,-0.11,0.27,1.14,1249.2,14.7,46.3,2.0,0.75,2.75,2.75,5.75,2.75,1.75,5.0,4.75,4.75,5.0,3.25,2.75,0.08,0.14,0.95,554.91,-2.7,-15.9
1.2,8.75,4.0,12.5,12.5,9.5,1.75,1.75,0.5,0.75,2.75,1.25,0.5,1.0,-0.11,0.33,1.2,1141.81,16.5,49.6,2.0,1.0,3.5,2.75,6.5,3.25,1.25,5.25,5.25,5.25,5.5,3.25,3.25,0.08,0.2,0.95,674.39,-2.5,-15.1
1.22,8.0,2.5,11.5,8.0,8.0,1.0,1.75,1.0,0.5,0.75,1.25,0.0,1.0,-0.17,0.39,1.52,954.32,18.4,52.9,2.25,1.5,4.0,3.25,6.5,4.25,2.25,5.75,5.5,5.25,6.0,3.25,3.25,0.08,0.14,0.95,792.97,-3.0,-11.6
1.24,8.5,4.0,9.75,7.0,6.0,0.25,1.25,0.5,0.75,2.25,1.25,0.5,1.0,-0.3,0.58,1.77,786.27,18.4,49.2,2.0,1.0,4.5,3.25,6.5,4.0,2.5,6.0,5.75,5.25,6.0,3.25,2.75,0.08,0.14,0.95,874.99,-3.4,-11.9
1.26,7.75,2.75,9.75,6.5,6.0,1.75,1.25,1.25,1.0,2.0,1.25,0.5,1.0,-0.61,0.7,1.89,660.69,16.5,45.0,3.0,1.25,4.75,4.0,6.5,4.5,2.5,6.25,5.75,5.25,6.0,2.75,2.75,0.08,0.14,0.95,933.77,-4.0,-7.0
1.28,6.5,2.5,9.0,5.5,6.0,1.75,0.5,1.0,0.75,0.0,1.5,0.75,1.0,-0.42,0.58,1.95,557.89,17.2,48.3,2.75,1.25,4.5,4.75,6.75,5.5,2.5,6.5,5.75,4.75,5.25,2.5,2.5,0.08,0.2,0.95,962.73,-3.4,-3.5
1.3,5.5,2.25,6.75,5.0,6.0,0.0,0.5,0.75,1.0,2.0,1.25,0.5,1.0,-0.36,0.52,2.02,468.23,15.6,40.8,2.25,1.25,4.75,4.75,6.75,5.25,2.5,6.75,5.75,4.25,5.0,2.0,2.5,0.08,0.14,0.95,961.49,-3.4,-2.4
1.32,2.75,0.5,4.75,2.5,2.5,1.75,0.75,0.5,0.5,2.0,0.25,0.5,0.0,-0.17,0.14,2.02,340.34,13.8,36.9,3.5,1.5,4.75,4.5,7.0,5.25,2.5,6.75,5.75,3.75,5.0,2.0,2.25,0.08,0.14,0.95,941.4,-4.3,1.4
1.34,2.25,0.75,4.0,2.25,5.0,0.25,1.75,1.0,0.25,1.0,1.25,0.25,1.0,-0.11,-0.55,1.39,264.21,12.2,31.2,3.0,1.75,4.75,4.75,7.25,5.5,2.75,6.75,5.75,3.75,4.75,2.0,1.75,0.08,0.14,0.95,912.76,-4.2,3.2
1.36,1.75,0.0,3.5,1.5,0.0,0.0,0.5,0.5,0.5,1.0,0.5,0.0,1.0,0.64,-0.48,0.45,159.68,19.2,20.2,3.0,1.75,4.75,5.0,7.5,5.75,3.0,6.75,5.75,3.0,4.25,1.5,1.5,0.08,0.14,0.95,894.19,-4.4,7.4
1.38,0.5,0.75,3.0,2.0,2.25,0.0,0.5,0.25,0.25,0.5,0.0,0.0,0.0,-0.17,-0.98,1.7,91.19,16.6,50.7,3.25,1.75,4.75,5.75,8.0,5.75,3.0,6.5,5.75,2.5,4.0,1.25,1.5,0.08,0.14,0.95,873.8,-4.9,10.9
1.4,0.5,0.25,2.5,1.75,2.25,0.0,0.75,0.5,0.25,0.5,0.0,0.0,0.0,-0.23,-0.86,0.89,37.72,14.9,44.6,3.5,2.0,4.75,6.75,8.0,6.0,3.0,6.5,5.75,2.25,3.75,1.0,1.5,0.08,0.14,0.95,861.77,-5.2,14.1
1.42,0.5,0.5,2.25,0.75,2.25,0.0,0.75,0.5,0.25,0.75,0.0,0.0,0.0,-0.36,-0.55,0.7,22.64,12.9,40.6,3.75,1.75,4.75,6.75,8.25,6.0,3.0,6.25,5.5,2.5,3.0,0.75,1.5,0.08,0.14,0.95,852.46,-5.2,16.1
1.44,0.25,0.25,2.0,0.0,2.25,0.0,0.75,0.5,0.25,0.5,0.0,0.0,0.0,-0.36,-0.42,0.45,9.94,11.8,37.9,4.75,1.75,5.75,8.5,8.5,6.0,3.0,6.0,5.25,2.0,2.75,0.75,1.5,0.08,0.2,0.95,868.89,-6.9,21.5
1.46,0.25,1.0,3.0,0.75,2.5,0.0,1.75,1.0,0.25,0.75,1.25,0.0,1.0,-0.42,-0.23,0.52,47.98,10.9,17.3,5.5,1.75,6.5,11.0,9.25,6.5,3.0,5.75,5.0,1.5,2.0,0.75,1.5,0.08,0.2,0.95,916.16,-7.9,27.6
1.48,0.25,0.75,1.75,0.75,2.25,0.0,1.5,0.5,0.25,1.0,0.0,0.0,0.0,-0.48,-0.11,0.64,57.63,10.8,35.7,6.25,2.25,7.5,12.0,11.0,6.75,3.25,5.25,4.25,2.0,2.0,0.5,1.0,0.08,0.2,0.95,1001.04,-8.6,32.9
1.5,0.5,1.0,1.75,2.75,1.25,1.75,1.5,0.5,0.75,1.5,0.0,1.0,0.0,-0.48,0.02,0.83,100.15,8.3,22.3,7.0,2.5,7.5,13.0,11.0,6.75,3.0,5.25,3.25,1.5,1.75,0.75,0.5,0.08,0.2,0.95,1072.97,-9.3,37.3
1.52,0.5,1.0,3.0,1.75,2.25,0.0,1.75,0.5,0.25,0.75,1.25,0.0,0.0,-0.61,0.2,0.83,131.22,15.4,34.0,7.5,2.5,8.5,15.0,12.0,7.0,2.5,4.0,2.25,1.0,1.5,0.5,0.5,0.08,0.2,0.95,1146.55,-10.4,43.5
1.54,0.0,0.25,1.75,0.75,0.0,0.0,1.25,0.5,0.25,0.75,0.0,0.0,0.0,-0.8,0.39,0.89,124.2,17.8,22.6,7.75,3.0,8.75,15.5,13.5,7.25,2.0,3.25,1.25,0.75,0.75,0.75,0.75,0.02,0.2,1.02,1202.94,-10.4,47.3
1.56,0.0,0.25,3.0,1.0,2.5,0.0,1.75,0.5,0.25,1.0,1.25,0.0,1.0,-0.98,0.52,0.95,142.37,11.1,11.8,8.5,3.0,9.0,16.5,14.5,0.0,1.25,2.5,1.0,1.0,0.75,0.5,0.75,0.02,0.2,1.08,1197.77,-14.4,51.4
1.58,0.0,0.75,1.75,0.75,0.0,0.0,1.25,0.25,0.25,1.5,0.0,0.0,0.0,-1.17,0.64,1.08,121.15,14.5,19.4,8.75,3.25,9.25,16.5,15.0,6.75,0.75,2.5,0.25,0.0,0.75,0.0,0.75,0.08,0.27,1.08,1227.05,-11.3,54.3
1.6,0.0,0.25,1.5,0.25,0.75,0.0,1.25,0.5,0.25,0.5,0.0,0.0,0.0,-1.17,0.77,1.27,110.07,14.6,27.4,8.75,2.5,9.0,15.0,13.5,6.0,0.25,1.0,0.0,0.0,0.0,0.0,0.0,0.08,0.27,1.08,1174.98,-12.8,60.6
1.62,0.0,0.75,1.75,0.5,2.25,0.0,1.25,0.0,0.25,0.5,0.0,0.0,0.0,-0.98,1.14,1.45,97.89,13.2,46.1,9.0,2.5,9.0,15.5,13.5,5.75,0.0,0.0,0.0,0.0,0.0,0.0,0.25,0.08,0.33,1.14,1129.61,-13.5,61.8
1.64,0.0,1.0,1.5,2.75,2.25,1.25,1.0,0.0,0.75,1.75,0.0,0.5,0.0,-0.61,1.45,1.52,128.94,6.8,26.7,9.5,2.5,9.0,13.5,12.5,5.5,0.0,0.25,0.0,0.0,0.0,0.0,0.25,0.14,0.33,1.27,1049.74,-13.9,62.1
1.66,0.0,0.75,3.0,0.25,3.0,0.0,1.75,0.0,0.25,1.0,0.5,0.0,0.0,0.33,2.2,1.64,143.26,13.8,36.1,10.5,3.0,9.25,12.5,12.0,4.0,0.25,0.0,0.25,0.0,0.75,0.0,0.0,0.14,0.39,1.45,993.27,-15.7,62.9
1.68,0.0,0.5,1.25,0.5,1.75,0.25,1.25,0.25,0.25,0.5,0.0,0.0,0.0,3.33,2.83,-0.17,137.33,10.1,38.1,9.75,3.0,8.75,11.5,8.5,4.5,0.25,0.0,0.5,0.5,0.0,0.0,0.0,0.27,0.64,1.89,894.15,-16.1,63.1
1.7,0.0,0.25,1.5,0.25,2.25,0.5,0.5,0.5,0.25,0.5,0.0,0.0,0.0,2.45,3.95,-0.17,122.21,6.3,34.7,8.75,2.5,8.5,9.0,8.0,4.0,1.0,0.75,0.25,0.0,0.75,0.0,0.5,0.58,1.08,2.27,794.7,-15.7,58.6
1.72,0.0,0.75,0.5,0.5,1.75,0.0,1.0,0.0,1.25,0.75,0.5,0.0,0.0,1.83,3.64,1.2,108.98,8.2,17.5,7.0,1.5,7.5,7.0,6.75,2.75,1.0,0.25,0.25,0.0,0.75,0.0,0.5,0.39,1.27,2.64,652.87,-16.7,58.0
1.74,0.0,0.25,1.75,0.75,0.0,2.25,2.5,1.5,1.75,4.25,1.25,1.25,1.0,1.95,2.83,4.14,145.19,0.8,-29.2,5.5,1.5,5.5,5.0,6.25,1.75,0.5,0.75,0.25,0.5,0.75,0.0,0.75,0.27,0.95,2.64,509.79,-14.5,51.7
1.76,0.0,1.0,3.0,2.25,2.25,3.25,2.75,5.0,3.5,5.5,4.0,3.75,3.0,-0.17,-0.11,0.95,269.09,1.0,-28.2,3.25,1.0,3.0,2.75,3.25,2.0,0.25,0.5,0.5,0.0,1.0,0.5,0.75,0.2,-0.48,2.39,350.25,-12.4,40.5
1.78,0.0,1.0,4.25,3.25,2.5,3.25,3.25,5.75,4.25,5.25,5.0,4.25,3.0,-0.05,0.2,1.02,415.17,2.9,-24.7,2.0,0.0,0.5,2.0,4.25,2.0,0.25,1.0,0.25,0.0,0.25,0.5,0.25,-0.42,-0.98,1.14,238.58,-4.0,37.8
1.8,0.0,1.0,4.5,4.5,5.5,3.25,4.0,6.25,5.0,5.75,6.0,4.0,4.75,-0.11,0.08,0.95,622.61,2.5,-21.0,2.0,0.75,1.25,1.25,4.75,2.0,0.25,1.0,0.25,0.0,0.25,0.5,0.0,0.14,-1.23,1.89,159.84,-5.6,44.4
1.82,0.5,1.5,5.0,4.75,5.75,3.5,4.5,7.0,5.5,7.0,6.25,5.25,5.0,-0.11,0.14,0.95,829.1,2.8,-21.2,1.25,0.75,1.5,2.75,4.75,2.0,0.25,1.0,0.25,0.0,0.0,0.5,0.0,0.2,-1.48,1.77,117.45,-5.9,45.5
1.84,0.75,1.0,5.0,4.75,6.0,4.25,4.5,7.25,6.0,7.25,7.25,5.25,5.5,-0.05,0.08,0.95,997.32,2.4,-22.7,0.5,0.0,1.75,1.0,4.75,0.5,0.25,0.75,0.25,0.0,0.0,0.0,0.0,0.14,-1.11,1.27,85.64,-6.6,47.2
1.86,1.0,1.25,5.0,4.5,6.0,4.5,4.5,7.5,6.0,7.0,7.25,5.25,5.25,-0.05,0.08,0.95,1097.61,2.5,-21.4,0.5,0.25,0.25,0.5,3.75,0.0,0.0,0.0,0.0,0.0,0.0,0.0,0.0,0.14,-0.73,1.02,40.77,-4.1,59.7
1.88,1.0,1.0,5.0,4.5,6.0,5.5,4.5,7.75,6.0,6.5,6.5,4.0,5.0,-0.05,0.08,0.95,1145.12,2.0,-17.9,0.5,0.0,0.25,1.0,3.75,0.0,0.0,0.0,0.0,0.0,0.0,0.0,0.0,0.27,-0.48,0.58,7.66,-4.8,57.9
1.9,0.75,1.0,5.0,4.75,6.0,5.25,4.5,7.75,5.5,6.5,6.0,3.75,5.0,-0.11,0.08,0.95,1151.24,1.8,-17.2,0.5,0.25,0.0,1.25,3.25,1.75,0.25,0.0,0.5,0.0,0.0,0.0,0.0,0.33,-0.23,0.64,0.67,-0.2,48.2
1.92,0.5,1.0,4.75,4.5,6.0,5.5,4.5,7.5,5.75,6.25,6.25,3.75,4.75,-0.11,0.08,0.95,1122.04,1.7,-17.7,0.5,0.0,0.5,0.75,4.5,1.25,0.25,0.0,0.25,0.0,0.25,0.0,0.0,0.27,-0.17,0.89,21.8,-1.6,47.5
1.94,0.5,1.25,5.0,4.75,6.0,5.25,4.5,7.25,5.5,5.5,6.0,3.0,4.0,-0.11,0.08,0.95,1064.05,2.4,-13.1,0.75,0.25,0.5,0.5,3.5,0.75,0.25,0.0,0.25,0.0,0.0,0.0,0.0,0.27,-0.11,1.2,44.64,-4.7,54.8
1.96,0.75,1.0,5.0,4.25,6.0,5.5,4.5,7.25,5.75,5.25,5.75,2.5,3.75,-0.05,0.08,0.95,994.9,2.3,-11.9,0.75,0.0,0.25,1.25,3.0,0.5,0.25,0.0,0.0,0.0,0.0,0.0,0.0,0.2,0.14,1.45,64.13,-6.0,57.6
1.98,0.75,1.0,5.0,4.75,6.25,5.25,4.5,7.25,6.0,5.25,5.75,2.25,3.0,-0.05,0.08,0.95,924.2,2.8,-9.4,1.25,0.0,0.0,0.0,2.75,0.0,0.0,0.0,0.0,0.0,0.0,0.0,0.0,0.27,0.33,1.58,63.13,-6.9,65.4
2.0,1.0,1.25,5.0,4.75,6.0,5.5,4.5,7.25,6.0,5.25,5.5,2.0,3.0,-0.05,0.08,0.95,867.7,2.8,-7.8,0.25,0.5,0.0,0.0,2.25,0.25,0.0,0.0,0.0,0.0,0.0,0.0,0.0,0.45,0.58,1.64,57.02,-0.1,61.6
2.02,1.0,1.25,5.0,4.75,6.0,5.75,4.5,7.25,6.25,4.75,5.25,2.25,3.0,-0.05,0.08,0.95,839.13,2.9,-7.3,0.25,0.0,0.0,0.0,1.75,0.25,0.0,0.0,0.0,0.0,0.0,0.0,0.0,0.64,0.7,2.08,40.15,1.5,55.8
2.04,1.25,1.25,5.0,5.25,6.5,5.75,4.75,7.25,6.5,4.5,5.5,2.25,2.5,-0.05,0.08,0.95,828.14,3.5,-4.8,0.25,0.0,0.0,0.25,1.75,0.0,0.0,0.0,0.0,0.0,0.0,0.0,0.0,0.7,0.95,2.45,27.68,-2.3,58.0
2.06,1.75,1.75,5.75,5.75,7.5,5.75,4.75,7.0,6.75,3.5,5.0,1.75,2.0,-0.05,0.08,0.95,839.89,4.8,3.2,0.0,0.25,0.0,0.0,1.5,0.0,0.0,0.0,0.0,0.0,0.0,0.0,0.0,0.77,1.89,2.52,20.0,1.2,59.3
2.08,2.25,2.25,5.75,6.5,7.75,6.0,5.0,6.5,6.75,4.0,4.5,1.25,1.75,-0.05,0.08,0.95,869.28,5.2,7.7,0.0,0.0,0.0,0.0,2.25,0.0,0.0,0.0,0.0,0.0,0.0,0.0,0.0,1.39,4.39,4.39,24.61,3.3,53.5
2.1,2.5,2.25,6.5,7.75,8.0,6.0,5.25,6.5,6.75,3.0,4.25,0.75,1.0,-0.05,0.08,0.95,904.1,6.6,14.4,1.0,0.0,0.0,0.0,2.5,0.0,0.25,0.0,0.0,0.0,0.0,0.0,0.0,0.39,4.33,-0.23,35.51,-6.8,63.2
2.12,4.0,2.25,8.0,8.5,8.0,6.25,5.75,5.75,6.5,3.25,3.5,1.0,1.0,-0.05,0.08,0.95,958.49,8.3,19.2,0.0,0.5,0.0,1.5,2.25,0.0,0.25,0.0,0.25,0.75,0.0,0.5,0.0,-0.92,5.14,-1.23,55.73,-3.8,25.9
2.14,6.0,2.5,9.75,13.5,9.25,6.25,6.25,4.0,5.25,3.5,2.5,1.0,1.0,-0.05,0.14,0.95,1065.7,10.7,29.9,0.5,0.0,1.75,0.0,4.25,0.0,0.25,1.0,0.0,0.0,0.75,0.5,0.5,-3.86,6.33,-0.92,93.89,-6.1,21.6
2.16,6.5,2.5,11.0,14.5,9.5,5.75,6.75,2.75,4.0,2.75,2.5,0.75,1.0,-0.05,0.14,0.95,1160.82,12.5,35.6,1.0,0.5,0.0,1.5,1.25,1.25,0.25,1.0,0.5,1.0,0.75,2.0,1.5,0.77,-0.48,1.89,135.77,-1.2,-17.7
2.18,7.25,2.5,12.0,16.0,10.5,5.25,6.0,2.75,2.75,2.75,2.25,0.5,1.0,-0.05,0.14,1.08,1257.16,13.1,39.6,0.0,0.0,1.0,0.0,4.5,2.0,0.25,1.0,1.0,4.0,1.5,3.75,2.25,0.39,1.08,4.2,208.41,3.1,-34.2
2.2,8.0,2.0,13.5,15.0,9.5,4.25,5.5,2.5,1.75,3.0,2.0,0.5,1.0,-0.05,0.14,1.2,1289.38,14.6,41.2,1.0,1.0,0.0,0.25,3.0,2.75,0.0,3.0,1.75,5.25,3.0,5.5,3.5,-0.11,0.64,2.45,292.66,3.3,-43.3
2.22,8.75,2.75,15.0,16.0,9.75,3.25,4.75,2.25,1.0,3.0,1.5,0.5,1.0,-0.11,0.2,1.27,1311.29,15.9,45.3,2.0,0.0,1.25,2.75,3.75,3.75,0.25,5.25,3.5,6.0,6.25,7.0,5.5,0.45,0.14,0.95,461.56,0.3,-39.0
2.24,9.5,2.75,15.5,14.0,9.25,1.75,3.5,2.25,1.25,2.75,2.0,0.5,1.0,-0.17,0.27,1.33,1290.36,17.1,45.2,1.5,0.75,2.0,0.0,4.75,1.5,0.75,5.25,3.75,6.0,7.5,6.25,5.0,0.08,0.2,0.95,616.32,-0.5,-42.2
2.26,9.75,2.75,15.5,10.0,8.0,1.0,3.0,1.0,1.25,3.0,2.0,0.75,1.0,-0.17,0.33,1.45,1208.55,18.7,45.1,2.0,1.0,2.0,1.25,5.25,3.25,1.0,5.25,3.5,6.0,6.75,7.0,6.0,0.08,0.14,0.95,763.58,-0.2,-35.7
2.28,9.75,2.75,14.0,8.0,6.0,1.75,3.25,1.25,1.25,2.75,1.5,0.5,1.0,-0.11,0.39,1.64,1077.4,18.7,45.6,2.0,0.75,1.75,1.25,4.75,2.5,1.0,5.25,3.5,6.0,6.75,7.0,6.0,0.08,0.14,0.95,830.6,-0.3,-39.0
2.3,8.75,2.5,12.0,6.0,6.0,1.75,3.75,1.0,0.75,2.75,1.75,0.5,1.0,-0.11,0.7,2.7,922.28,17.9,43.7,1.75,1.0,1.75,1.25,4.75,3.25,1.25,5.25,4.0,5.5,6.75,6.75,5.75,0.08,0.14,0.95,862.78,-0.3,-36.6
2.32,7.25,2.5,10.5,4.75,5.5,1.25,3.25,1.0,0.75,2.25,1.25,0.5,1.0,-1.11,1.02,2.52,757.84,17.8,43.7,1.25,0.75,2.0,2.25,4.75,3.25,1.25,5.25,4.25,5.25,6.75,6.25,5.0,0.08,0.14,0.89,850.52,-0.7,-33.9
2.34,6.25,1.25,8.25,3.0,4.75,1.0,2.5,1.5,1.0,1.75,1.25,0.75,1.0,-0.86,0.83,2.52,589.36,16.7,36.9,1.75,1.0,2.0,2.75,5.0,4.0,1.25,5.25,4.75,5.25,6.75,5.75,5.0,0.08,0.14,0.89,844.96,-0.9,-28.9
2.36,4.0,1.0,6.5,0.75,3.5,1.75,2.0,1.0,0.75,2.0,1.25,0.75,1.0,-0.67,-0.17,2.95,422.59,14.0,27.9,2.0,1.0,2.75,2.75,5.5,4.5,1.75,5.5,5.0,4.75,6.75,5.5,4.25,0.08,0.14,0.95,838.75,-1.8,-23.3
2.38,1.25,0.0,4.75,0.0,3.0,0.0,2.25,0.5,0.25,0.5,0.75,0.0,1.0,-0.92,-0.36,1.27,271.9,17.0,28.8,3.0,1.5,4.25,2.75,6.5,4.5,2.25,5.5,5.5,3.75,6.25,4.5,3.25,0.08,0.14,0.95,844.28,-4.1,-11.0
2.4,0.5,0.5,3.0,2.0,2.25,0.5,1.75,0.5,0.5,0.5,0.25,0.0,0.0,-0.92,-0.86,1.89,164.01,15.0,41.5,3.0,1.75,4.75,3.75,6.5,4.75,2.5,5.5,5.5,3.0,5.25,3.25,2.5,0.08,0.14,0.95,837.79,-5.0,-2.0
2.42,0.5,0.25,2.75,1.0,2.25,0.0,1.5,0.5,0.25,1.25,0.0,0.0,0.0,-0.48,-0.92,1.14,67.32,13.6,34.2,4.5,1.5,5.0,5.25,6.75,5.75,2.75,5.25,5.5,2.25,4.25,2.0,1.5,0.08,0.14,0.95,827.92,-6.4,10.7
2.44,1.75,1.0,3.0,1.0,2.5,0.25,1.75,1.0,1.0,2.0,1.25,0.25,1.0,-0.48,-0.61,0.64,56.97,10.6,13.7,4.75,1.5,6.25,6.5,8.0,5.5,3.0,5.25,5.5,2.0,4.0,1.75,1.75,0.08,0.14,0.95,841.11,-7.5,15.2
2.46,1.5,0.75,3.0,1.0,2.5,0.5,1.75,0.5,0.5,0.75,1.25,0.25,1.0,-0.48,-0.55,0.33,61.9,12.8,22.3,5.75,1.75,7.5,7.0,8.25,5.75,3.5,4.5,5.5,1.5,2.75,1.0,1.25,0.08,0.2,0.95,862.53,-9.3,25.2
2.48,0.5,0.5,3.0,1.0,2.5,0.25,1.75,1.0,0.25,0.5,0.0,0.0,0.0,-0.3,-0.48,0.52,73.82,13.8,41.1,7.0,1.5,8.0,8.5,9.0,5.75,3.5,4.0,4.75,1.0,2.75,0.75,1.0,0.08,0.14,0.95,912.24,-10.6,31.5
2.5,1.5,1.0,3.0,1.25,2.5,0.0,1.75,0.75,0.75,0.75,1.5,0.5,1.0,-0.17,-0.42,0.89,103.73,13.3,18.3,8.0,2.0,8.5,10.5,9.25,5.5,3.25,2.75,3.75,0.75,3.0,0.75,1.0,0.08,0.2,0.95,961.66,-12.2,37.1
2.52,1.5,1.0,3.0,2.0,2.5,1.0,1.75,0.75,0.25,0.0,1.25,0.0,1.0,-0.17,-0.42,0.95,132.33,12.9,33.2,8.75,2.25,9.0,11.5,9.25,5.5,3.25,2.25,3.0,0.75,2.0,0.75,0.75,0.08,0.2,0.95,1007.63,-13.2,42.8
2.54,0.5,0.5,1.75,0.5,2.25,0.0,1.25,0.5,0.25,0.5,0.0,0.0,0.0,-0.23,-0.3,0.95,124.68,12.6,42.0,9.5,2.25,10.0,12.0,11.0,5.25,2.25,2.25,2.0,0.75,1.75,0.75,0.5,0.08,0.2,1.02,1053.86,-13.5,46.8
2.56,1.25,1.0,2.0,2.0,2.25,1.25,1.25,0.75,0.75,2.0,1.5,0.5,1.0,-0.23,-0.11,0.95,160.75,7.1,10.0,10.5,0.0,10.0,11.5,11.0,4.0,1.5,1.25,1.75,0.75,1.25,0.5,0.0,0.08,0.2,1.02,1039.52,-15.4,51.0
2.58,1.25,1.0,3.25,2.0,2.25,1.5,1.75,0.5,0.75,1.75,1.25,0.5,1.0,-0.11,0.02,1.14,198.0,9.9,17.1,11.0,1.75,10.0,11.5,11.0,4.5,0.25,1.0,1.25,0.75,0.75,0.5,0.0,0.02,0.2,1.02,1025.27,-15.1,55.3
2.6,1.0,1.0,3.0,2.0,2.25,1.0,1.75,0.75,0.75,1.75,1.25,1.25,1.0,-0.11,0.08,1.58,234.37,9.6,9.1,11.5,2.5,11.0,12.5,11.0,4.5,0.0,1.0,0.5,0.5,0.75,0.5,0.75,0.02,0.27,1.02,1024.45,-15.5,56.0
2.62,1.25,1.0,3.0,2.0,2.25,1.75,1.75,0.5,0.75,1.25,1.25,0.75,1.0,-0.17,0.2,1.83,254.84,9.7,17.5,11.5,2.5,9.75,12.0,11.0,3.25,0.0,0.75,0.25,0.0,0.0,0.0,0.0,0.02,0.27,0.95,991.64,-16.8,64.3
2.64,1.0,1.0,3.0,2.0,0.75,1.75,1.75,0.5,0.5,0.5,1.25,0.5,1.0,-0.23,0.45,2.14,251.74,12.1,19.9,11.5,2.0,10.0,12.0,11.0,2.0,0.0,0.0,0.0,0.0,0.0,0.0,0.0,0.02,0.33,0.95,944.19,-18.4,66.7
2.66,0.75,1.0,3.0,2.0,2.25,1.5,1.75,0.5,0.75,1.0,1.25,0.5,1.0,-0.3,0.7,2.52,247.1,9.9,18.4,12.0,3.0,12.5,13.5,11.0,2.25,0.0,0.5,0.5,0.5,0.0,0.5,0.0,0.02,0.33,1.02,955.23,-18.4,62.4
2.68,1.0,1.0,3.0,2.0,2.5,1.75,1.75,0.5,0.75,1.5,1.0,0.5,1.0,-0.42,1.33,3.02,244.03,8.8,18.8,14.0,3.5,12.0,13.5,11.0,3.75,0.0,0.0,0.5,0.75,0.75,0.0,0.75,-0.05,0.33,0.95,1005.19,-17.4,61.0
2.7,0.5,1.0,3.0,2.0,2.5,1.5,1.75,0.75,0.5,1.5,1.25,0.5,1.0,0.7,0.2,0.02,250.31,8.2,15.1,13.0,3.0,11.0,11.5,9.25,2.25,0.0,0.0,0.25,0.0,0.0,0.0,0.0,0.02,0.45,1.14,982.07,-19.8,68.0
2.72,0.5,1.0,2.75,2.0,3.0,1.75,1.75,0.5,0.75,0.75,1.25,0.75,1.0,-0.17,3.7,1.64,253.46,8.4,18.1,13.0,3.0,11.0,11.5,8.25,1.0,0.0,0.0,0.0,0.0,0.0,0.0,0.0,0.2,0.52,1.2,931.75,-21.4,69.7
2.74,0.5,1.0,3.0,2.0,2.5,1.75,1.25,0.5,1.25,1.25,0.75,0.75,0.75,2.64,7.33,-0.73,251.29,8.5,17.7,14.0,3.75,11.0,12.0,6.75,2.0,0.25,0.0,0.0,0.0,0.75,0.0,0.75,0.27,0.64,1.39,891.44,-20.8,65.7
2.76,0.5,1.0,3.0,2.0,2.25,1.75,1.75,1.0,1.0,2.75,1.25,0.0,1.0,3.83,7.83,-2.67,256.28,6.1,9.9,11.0,2.25,10.0,8.25,4.75,1.25,1.25,0.0,0.0,0.0,0.0,0.0,0.0,0.2,0.95,1.89,767.23,-23.3,69.9
2.78,0.5,1.0,2.5,2.0,2.5,1.75,1.25,2.5,0.5,1.25,1.75,0.0,1.0,-0.73,-0.8,2.08,258.41,4.6,11.0,8.75,1.5,8.75,6.75,1.25,1.25,1.75,0.0,0.0,0.0,0.0,0.0,0.0,0.39,1.58,3.08,606.76,-26.2,70.1
2.8,0.5,0.75,0.75,1.75,2.25,1.75,0.5,2.5,1.0,4.25,2.25,1.0,3.0,0.64,1.45,1.08,265.92,-2.6,-26.4,8.0,1.75,7.5,5.25,2.25,2.0,0.75,0.0,0.25,0.25,0.75,0.0,0.5,0.7,1.39,2.89,479.68,-21.8,60.9
2.82,0.5,1.25,2.5,0.25,0.75,1.75,1.5,5.25,2.0,7.0,3.25,4.0,5.75,-0.3,1.02,2.52,333.69,-1.9,-47.4,6.25,0.75,5.75,3.75,3.5,1.75,0.0,0.0,0.25,0.0,0.75,0.5,0.75,0.27,0.2,3.33,368.36,-18.9,53.5
2.84,0.0,1.0,1.0,2.25,0.0,4.0,1.0,7.25,4.5,9.0,6.25,6.0,6.75,0.33,0.39,1.02,486.98,-3.3,-53.0,3.5,0.75,3.0,2.75,4.5,1.25,0.0,0.0,0.5,0.5,0.5,0.5,0.5,0.2,-0.48,2.45,282.41,-13.1,45.8
2.86,0.5,1.0,3.0,2.25,5.5,4.5,3.0,7.75,4.75,9.25,7.0,5.75,7.5,0.02,0.2,1.02,712.72,-1.3,-35.6,2.25,0.75,2.0,2.5,1.5,1.5,0.0,0.0,0.25,0.0,0.0,0.5,0.0,0.52,0.33,2.27,202.52,-15.4,55.5
2.88,0.0,1.0,4.5,2.5,6.0,5.0,3.75,8.0,5.0,9.0,7.25,6.25,7.5,-0.05,0.14,0.95,929.1,-0.4,-32.8,2.0,0.75,2.0,2.0,4.5,2.0,0.25,0.0,0.25,0.0,0.0,0.5,0.5,0.45,-1.23,1.77,151.78,-8.7,47.9
2.9,0.5,1.0,4.75,3.25,6.0,5.25,3.75,8.0,5.0,9.0,6.75,6.0,7.5,-0.11,0.08,0.95,1082.01,0.0,-29.6,2.0,1.0,2.0,2.75,4.5,0.5,0.25,0.0,0.25,0.5,0.0,0.5,0.5,0.27,-0.73,1.14,115.65,-11.3,46.5
2.92,0.75,1.0,4.75,2.75,6.0,5.25,3.75,8.0,5.0,8.75,6.75,5.75,7.5,-0.11,0.08,0.95,1154.94,0.0,-29.3,2.0,0.75,2.0,2.25,4.5,1.5,0.25,0.25,0.25,0.0,0.0,0.5,0.5,0.2,-0.55,0.39,117.87,-9.4,47.1
2.94,0.75,1.0,4.75,3.25,6.0,5.5,3.75,8.25,5.0,8.75,6.75,5.25,7.25,-0.11,0.08,0.95,1178.77,0.0,-27.5,1.25,0.25,1.75,2.5,4.5,1.75,0.25,0.0,0.25,0.25,0.0,0.5,0.25,0.02,-0.3,0.39,129.81,-7.5,44.6
2.96,0.5,1.0,4.25,3.25,6.0,5.5,3.75,8.25,5.0,8.0,6.25,4.0,6.75,-0.11,0.08,0.95,1150.15,-0.4,-25.4,1.75,0.75,1.75,2.0,4.5,1.5,0.75,0.25,0.25,0.0,0.25,0.5,0.25,-0.11,-0.17,0.45,144.13,-9.2,46.2
2.98,0.75,1.0,4.5,3.25,6.0,5.5,3.25,8.0,4.75,7.75,6.0,3.75,6.25,-0.11,0.08,0.95,1104.27,-0.1,-23.2,2.0,0.25,1.75,2.25,4.5,1.25,0.5,0.5,0.5,0.0,0.5,0.5,0.5,-0.17,-0.17,0.7,158.91,-9.2,38.5
3.0,0.75,1.0,4.25,3.5,6.0,5.75,3.25,8.0,4.5,7.5,5.5,3.0,5.75,-0.11,0.08,0.95,1039.67,-0.4,-20.3,0.5,0.0,1.5,1.25,3.0,1.0,0.25,0.0,0.5,0.0,0.0,0.0,0.0,-0.11,-0.17,0.89,149.88,-8.9,50.0
3.02,0.75,1.0,3.75,3.75,6.0,5.75,3.25,8.0,4.5,6.75,5.0,2.75,5.25,-0.11,0.08,0.95,966.98,-0.4,-18.3,0.5,0.0,0.25,0.5,1.0,0.25,0.25,0.0,0.0,0.0,0.0,0.0,0.0,0.02,-0.05,0.95,106.74,-10.8,59.7
3.04,0.75,1.0,4.5,4.75,6.0,6.0,3.75,8.0,4.75,6.5,4.75,2.25,5.0,-0.11,0.08,0.95,909.16,0.4,-13.7,0.25,0.0,0.0,0.5,1.25,0.0,0.0,0.0,0.0,0.0,0.0,0.0,0.0,0.08,0.02,1.08,54.37,-5.6,59.2
3.06,0.75,1.0,4.5,4.75,6.0,6.0,4.0,8.0,5.0,6.25,4.75,1.75,4.5,-0.11,0.08,0.95,854.73,0.7,-11.8,0.0,0.0,0.0,0.5,1.0,0.0,0.0,0.0,0.0,0.0,0.0,0.0,0.0,0.14,0.14,1.33,16.01,-3.0,54.8
3.08,0.5,1.0,4.75,4.75,6.25,6.75,4.25,8.0,5.0,5.25,4.5,2.25,4.0,-0.11,0.08,0.95,823.4,0.9,-9.4,0.25,0.0,0.0,0.5,1.0,0.0,0.0,0.0,0.0,0.0,0.0,0.0,0.0,0.2,0.33,1.45,0.0,-6.9,60.1
3.1,1.0,1.25,4.75,5.25,8.0,6.75,4.5,8.0,5.25,5.25,4.5,1.5,3.0,-0.11,0.08,0.95,824.68,1.5,-2.2,0.5,0.0,0.0,0.0,1.0,0.0,0.0,0.0,0.0,0.0,0.0,0.0,0.0,0.2,0.52,1.64,0.0,-7.7,66.2
3.12,1.25,1.25,5.0,6.25,8.0,7.0,4.5,8.0,5.5,5.25,4.25,1.75,3.0,-0.11,0.08,0.95,855.08,2.0,-0.7,0.5,0.0,0.0,0.0,0.5,0.0,0.0,0.0,0.0,0.0,0.0,0.0,0.0,0.27,0.7,2.33,0.0,-13.7,73.3
3.14,1.25,1.75,5.0,6.5,8.0,7.25,4.75,8.0,5.25,4.5,3.5,0.75,2.75,-0.11,0.08,0.95,877.64,2.1,5.0,1.0,0.0,0.0,0.0,1.0,0.0,0.0,0.0,0.0,0.0,0.0,0.0,0.0,0.39,1.33,2.95,0.0,-13.7,73.3
3.16,2.25,1.75,5.75,8.0,8.75,7.75,4.75,7.5,5.25,4.0,3.25,0.75,2.0,-0.11,0.08,0.95,919.5,3.7,12.3,0.0,0.0,0.0,0.0,1.25,0.0,0.0,0.0,0.0,0.0,0.0,0.0,0.0,0.52,2.58,3.2,0.0,3.2,53.5
3.18,2.25,2.0,6.25,9.5,9.5,7.75,4.75,7.25,5.0,3.5,2.5,0.75,1.5,-0.11,0.08,0.95,962.76,4.5,18.0,0.5,0.0,0.0,0.25,0.5,0.5,0.0,0.0,0.0,0.0,0.0,0.0,0.0,0.7,4.14,2.7,0.0,-4.5,60.6
3.2,3.5,2.5,6.5,12.5,10.0,7.75,4.75,6.5,4.5,3.25,2.5,0.75,1.0,-0.11,0.08,0.95,1035.46,6.2,24.9,0.5,0.0,0.0,0.5,0.5,0.0,0.0,0.0,0.0,0.0,0.0,0.0,0.0,0.45,5.77,-0.73,0.0,-14.9,68.1
3.22,5.0,2.5,7.75,14.0,11.0,7.75,4.75,5.75,3.25,3.25,2.5,0.75,1.0,-0.11,0.14,0.95,1122.93,7.6,30.1,1.5,0.5,0.0,1.0,0.5,0.0,0.0,0.0,0.0,0.5,0.75,0.5,0.5,-2.73,7.58,-1.23,31.61,-11.9,13.1
3.24,6.0,2.5,9.0,15.0,11.5,7.75,4.75,4.5,2.0,3.0,2.25,0.5,1.0,-0.11,0.14,1.02,1208.76,9.1,36.0,0.75,0.0,1.25,0.75,4.5,1.5,0.25,1.0,0.5,0.0,0.75,0.5,1.5,-0.8,-2.8,-0.48,105.91,-1.5,13.4
3.26,7.0,2.25,9.75,16.0,12.0,7.75,4.5,3.5,1.5,3.0,2.25,0.75,1.0,-0.11,0.14,1.08,1283.21,10.0,38.4,0.25,0.0,0.0,0.0,0.5,0.0,0.0,0.0,0.0,0.0,0.25,2.0,1.5,0.08,1.27,1.33,122.09,-1.1,-76.8
3.28,8.0,4.0,10.5,16.0,12.5,7.0,2.25,2.75,1.25,3.0,2.0,0.5,1.0,-0.11,0.2,1.08,1327.89,10.9,43.2,0.0,0.0,1.75,0.0,1.75,1.25,0.0,0.75,0.75,3.75,0.75,4.5,2.5,0.02,0.64,2.14,187.07,0.8,-50.5
3.3,8.75,4.0,11.0,14.5,13.0,5.75,1.75,2.5,0.5,1.5,2.0,0.5,1.0,-0.11,0.2,1.14,1332.97,12.3,47.7,0.5,0.75,0.25,0.0,2.25,3.0,0.0,4.0,1.75,6.75,4.0,7.0,5.0,0.2,0.77,2.14,295.22,4.4,-55.9
3.32,8.0,4.0,11.0,13.5,11.5,4.25,0.5,1.0,0.5,1.0,0.75,0.5,0.25,-0.11,0.27,1.27,1255.37,14.4,55.1,1.25,0.75,0.5,1.25,3.5,3.25,0.0,5.25,3.5,7.5,6.75,7.75,6.0,-0.17,0.39,1.14,482.14,2.1,-48.4
3.34,8.75,4.0,11.0,11.5,9.5,3.25,0.0,0.25,0.25,1.25,1.0,0.25,0.0,-0.23,0.33,1.39,1113.7,16.3,58.3,1.25,0.75,1.75,1.25,4.5,2.0,0.25,6.0,3.5,7.0,7.75,7.75,7.25,0.08,0.2,1.02,690.48,0.6,-46.7
3.36,10.5,5.25,10.5,10.0,8.0,3.0,0.0,0.75,0.75,3.5,1.25,0.5,1.0,-0.17,0.45,1.64,1015.69,15.1,49.2,1.75,0.75,1.75,1.25,3.75,3.25,0.25,6.25,3.25,7.0,7.5,7.5,7.0,0.14,0.14,0.95,850.77,1.0,-44.5
3.38,9.5,4.5,10.5,7.0,8.0,2.0,0.5,1.75,0.75,3.0,1.25,0.5,1.0,-0.36,0.77,2.33,913.54,15.1,46.7,0.25,0.5,1.75,1.25,4.5,3.25,0.25,6.5,3.0,7.25,7.5,7.0,7.0,0.08,0.14,0.95,927.06,2.4,-47.0
3.4,8.0,4.0,9.25,6.25,6.0,1.75,1.75,1.5,1.0,2.75,1.5,0.5,1.0,-1.05,1.14,2.89,803.44,15.5,43.4,0.0,0.75,1.75,0.5,4.5,3.25,0.25,6.75,3.0,6.75,6.75,7.0,7.0,0.14,0.14,0.95,933.03,2.9,-47.9
3.42,7.25,2.5,8.0,4.75,6.0,1.75,1.75,1.0,0.75,2.75,1.0,0.5,1.0,-1.23,0.95,2.89,673.49,15.0,42.1,1.25,0.25,1.75,0.75,4.75,3.25,0.25,7.0,3.0,7.25,6.75,7.0,7.0,0.14,0.14,0.89,929.12,2.3,-45.1
3.44,5.5,1.25,5.5,2.25,5.75,1.75,1.25,1.25,0.75,2.0,1.0,0.5,0.25,-0.8,0.39,3.52,510.77,13.1,39.8,1.5,0.5,1.75,1.25,4.5,3.75,0.25,7.0,3.0,7.25,6.75,7.0,6.75,0.08,0.14,0.95,920.25,2.0,-42.2
3.46,2.5,1.0,3.75,1.75,2.5,1.75,1.5,0.75,0.5,2.25,1.5,0.5,1.0,-0.55,-1.17,2.33,349.49,10.2,19.6,1.75,0.25,1.75,1.0,4.5,4.0,0.25,7.0,3.25,7.0,6.75,6.25,6.25,0.14,0.14,0.95,894.77,2.0,-40.6
3.48,1.25,0.25,2.75,0.0,4.75,0.0,0.75,0.75,0.25,0.5,1.25,0.0,1.0,-1.17,-0.23,3.33,230.57,9.2,24.2,1.25,0.75,1.75,1.25,4.75,4.5,0.75,7.0,3.5,6.75,6.75,6.0,6.0,0.14,0.14,0.89,865.51,2.0,-37.5
3.5,0.5,0.0,1.5,0.25,0.0,0.0,0.5,0.5,0.25,0.5,0.0,0.25,0.0,-0.55,-1.23,1.77,92.23,19.1,16.8,1.25,1.0,1.75,2.25,4.75,4.75,1.0,7.25,4.25,6.0,6.75,5.5,5.0,0.14,0.14,0.95,834.03,1.1,-31.7
3.52,0.5,0.0,1.0,1.0,0.75,0.0,0.0,0.5,0.25,0.5,0.0,0.0,0.0,-0.48,-0.67,0.83,0.0,12.3,31.9,1.25,1.0,1.75,2.0,5.5,5.5,1.25,7.25,4.75,5.25,6.25,4.5,4.5,0.08,0.14,0.95,775.64,1.3,-26.3
3.54,0.5,0.0,0.5,0.75,1.75,0.0,0.25,0.5,0.25,0.5,0.0,0.0,0.0,-0.48,-0.61,0.39,0.0,6.4,32.4,1.75,1.0,2.0,2.5,6.25,5.75,1.25,7.25,5.0,5.25,6.0,4.0,3.5,0.08,0.14,0.95,738.2,0.5,-19.6
3.56,0.5,0.0,1.25,0.5,2.25,0.0,0.5,0.5,0.25,0.5,0.0,0.25,0.0,-0.42,-0.55,0.27,0.0,9.4,31.2,1.25,1.0,2.0,2.75,6.5,6.0,1.5,7.25,5.25,3.75,5.0,3.25,2.75,0.08,0.14,0.95,704.77,0.5,-13.9
3.58,0.25,0.0,1.0,1.75,3.5,0.0,1.0,1.0,0.5,2.0,0.0,0.5,0.0,-0.36,-0.42,0.39,0.0,3.7,13.6,2.0,1.25,2.5,3.25,6.75,6.0,1.75,7.25,5.5,3.5,4.5,2.25,2.25,0.08,0.14,0.95,695.21,-0.7,-5.8
3.6,0.25,0.0,3.0,1.0,2.5,0.0,1.5,0.5,0.25,2.0,1.0,0.5,1.0,-0.3,-0.36,0.7,24.92,9.2,1.9,2.0,1.5,3.25,4.25,7.5,6.0,1.75,7.0,5.5,2.75,4.25,2.0,2.5,0.08,0.14,0.95,703.28,-1.8,-0.4
3.62,0.75,1.0,3.0,1.5,2.5,0.5,1.25,0.5,0.5,2.0,0.0,0.5,0.5,-0.36,-0.3,0.89,89.69,10.1,23.4,2.5,1.5,4.5,5.0,8.0,6.5,1.75,7.0,5.0,2.5,3.25,1.75,1.75,0.08,0.14,0.95,728.29,-2.9,8.1
3.64,0.75,1.0,2.0,0.75,2.5,1.25,1.75,1.0,0.5,2.0,1.25,0.5,1.0,-0.36,-0.23,0.95,142.61,5.1,5.8,4.5,1.75,4.75,6.75,8.5,6.75,2.0,6.0,5.0,2.5,3.0,1.0,1.5,0.08,0.14,0.95,775.66,-5.0,17.7
3.66,0.5,1.0,0.75,1.0,3.5,0.75,1.75,0.75,0.5,2.0,1.25,0.5,1.0,-0.36,-0.05,1.02,179.96,2.6,4.1,5.75,1.75,6.0,8.5,9.25,6.75,2.25,5.75,4.25,2.25,3.0,0.75,1.5,0.08,0.14,0.95,846.86,-6.7,24.0
3.68,0.75,1.0,3.0,1.75,1.75,1.0,1.5,1.0,0.75,2.0,1.25,0.75,1.0,-0.36,0.14,1.08,215.25,8.7,7.0,7.5,2.25,7.25,11.0,11.0,6.5,2.0,5.25,2.5,0.25,2.0,0.5,0.75,0.08,0.2,0.95,931.34,-9.4,39.6
3.7,0.5,1.0,3.0,1.25,2.5,0.25,1.5,0.75,0.75,0.5,1.0,0.0,1.0,-0.3,0.27,1.39,226.97,11.8,22.7,7.75,2.5,7.75,10.5,12.0,6.75,1.75,3.5,1.75,0.75,0.75,0.75,0.0,0.08,0.2,0.95,986.74,-10.1,46.6
3.72,0.0,0.0,1.0,0.0,2.25,0.0,0.5,0.5,0.25,0.5,0.0,0.25,0.0,-0.3,0.33,1.64,196.23,5.1,21.3,9.5,0.0,8.5,0.0,12.0,6.25,0.25,2.75,0.5,0.0,2.0,0.5,0.75,0.08,0.2,1.08,911.53,-10.0,44.0
3.74,0.75,1.0,3.0,1.75,2.5,1.0,1.25,0.75,0.5,2.0,1.0,0.5,1.0,-0.36,0.45,2.08,208.96,8.2,13.5,9.5,2.5,9.0,9.75,12.0,6.0,0.0,1.25,0.5,0.0,0.75,0.0,0.25,0.02,0.2,1.14,903.75,-12.9,57.6
3.76,0.5,1.0,3.0,2.0,3.75,1.0,1.5,0.5,0.75,1.75,1.25,0.75,1.0,-0.48,0.64,2.64,224.0,8.0,14.7,11.0,3.25,0.0,14.0,13.0,4.75,0.0,1.0,0.25,0.0,0.5,0.0,0.25,0.02,0.2,1.14,864.97,-9.8,60.8
3.78,0.0,0.25,2.25,0.0,2.5,0.0,1.5,0.75,0.25,0.5,0.75,0.0,1.0,-0.73,1.27,3.52,210.53,8.6,10.2,11.5,3.0,10.0,14.0,12.5,4.5,0.0,1.0,0.0,0.0,0.5,0.0,0.5,-0.05,0.27,1.14,937.81,-15.0,60.8
3.8,0.5,1.0,2.75,1.0,0.0,0.0,1.0,0.75,0.5,2.0,0.5,0.5,1.0,-0.8,1.52,1.2,193.74,11.5,-0.8,11.5,4.0,10.0,13.5,11.5,4.75,0.0,0.25,0.5,0.0,0.75,0.0,0.25,0.08,0.33,1.27,994.19,-15.7,62.2
3.82,0.0,0.5,2.25,0.0,2.25,0.0,0.75,0.5,0.25,0.5,0.0,0.0,0.0,0.02,4.52,0.08,156.12,12.0,39.0,12.5,4.5,10.5,13.5,11.0,2.5,0.0,0.0,0.25,0.0,0.25,0.0,0.0,0.2,0.45,1.45,1042.81,-18.1,67.0
3.84,0.0,0.75,1.75,0.0,0.5,0.25,0.75,0.5,0.25,1.0,0.5,0.5,1.0,3.08,7.95,-2.8,125.14,7.6,-9.7,11.0,3.25,10.0,10.5,8.5,3.75,0.75,0.0,0.0,0.0,0.0,0.0,0.0,0.33,0.64,1.58,975.67,-18.1,66.9
3.86,0.0,0.5,3.5,0.0,3.0,0.0,0.5,0.5,0.25,1.25,1.0,0.75,1.0,0.89,-1.23,-0.3,126.99,9.4,5.7,8.75,2.5,9.0,7.0,6.5,2.25,1.75,0.0,0.25,0.0,0.0,0.0,0.0,0.39,1.27,3.08,824.23,-19.8,66.5
3.88,0.5,1.0,2.5,0.75,3.0,1.75,0.25,2.25,1.0,3.0,2.25,2.25,3.25,-0.36,0.2,3.95,194.55,0.8,-22.1,7.75,1.5,6.5,5.0,3.0,2.0,1.25,0.0,0.25,0.0,0.0,0.0,0.0,0.58,1.95,3.7,609.51,-21.7,67.9
3.9,0.0,0.75,2.0,0.0,2.5,1.25,0.5,2.5,1.25,5.25,2.25,4.25,5.25,-0.05,0.14,0.52,270.85,-2.2,-48.6,7.0,1.25,4.75,4.0,0.5,2.0,0.25,0.0,0.25,0.75,0.75,0.5,0.5,0.45,1.08,3.52,420.48,-20.6,52.8
3.92,0.0,1.0,1.5,1.75,2.25,2.5,1.25,5.75,2.5,7.75,5.5,6.25,7.0,-0.11,0.77,2.27,417.11,-2.5,-50.1,3.75,0.75,1.75,2.0,4.5,0.0,0.0,0.5,0.25,0.0,0.75,0.5,0.75,0.27,-0.3,2.7,287.22,-13.4,43.7
3.94,0.0,1.25,1.0,2.0,1.75,3.0,0.75,6.5,3.5,7.75,6.25,6.25,6.75,-0.11,0.2,1.08,585.21,-2.8,-50.4,1.5,1.0,1.75,2.75,3.5,0.0,0.25,0.75,0.25,0.5,0.25,0.5,0.5,0.33,0.89,2.27,205.76,-10.9,37.7
3.96,0.0,1.0,1.75,2.0,0.5,3.25,1.75,6.75,3.75,8.0,6.5,6.25,7.5,-0.05,0.08,0.95,733.19,-2.1,-52.4,1.25,0.5,1.75,1.5,4.5,0.0,0.25,0.75,0.5,0.0,0.75,0.0,0.75,0.77,-0.73,2.2,143.25,-9.1,35.0
3.98,0.5,1.0,3.0,0.75,3.75,2.5,2.0,6.75,3.75,7.5,6.0,6.0,7.0,-0.11,0.08,0.95,809.51,-0.9,-42.7,0.5,0.0,1.75,1.25,3.5,0.0,0.25,0.0,0.5,0.0,0.25,0.0,0.0,0.27,-1.11,1.58,71.18,-12.6,48.8
4.0,0.0,0.75,0.75,0.0,1.25,2.5,0.75,6.5,3.75,7.5,5.5,5.75,6.75,-0.11,0.08,0.95,817.58,-4.2,-59.5,1.75,0.75,1.0,2.0,3.75,1.25,0.25,0.25,0.25,0.75,0.0,0.5,0.0,0.02,-0.67,1.08,53.82,-7.4,43.8
4.02,0.0,1.25,2.5,1.5,2.25,3.25,1.75,6.75,4.0,8.25,5.75,5.75,6.75,-0.11,0.08,0.95,839.59,-1.8,-44.9,2.0,0.5,0.0,1.5,3.0,1.25,0.25,0.0,0.25,0.75,0.0,0.5,0.0,-0.11,-0.3,0.64,33.95,-5.8,42.3
4.04,0.0,1.0,1.75,0.5,2.5,3.0,2.25,6.75,4.25,7.75,5.5,6.25,6.5,-0.11,0.08,0.95,827.78,-2.3,-48.9,2.0,0.75,1.0,0.75,4.5,1.25,0.0,0.5,0.25,0.75,0.75,0.5,0.5,-0.23,0.33,0.39,66.56,-5.1,30.9
4.06,0.5,1.0,3.25,2.0,4.75,3.0,2.0,6.75,4.5,7.5,6.0,6.0,6.75,-0.11,0.08,0.95,860.97,-0.2,-36.6,1.5,0.75,0.75,1.75,4.5,1.25,0.25,0.5,0.25,0.75,0.5,0.5,0.0,-0.36,1.08,0.02,98.87,-5.2,37.2
4.08,0.5,1.0,2.0,1.25,3.0,3.25,2.0,7.25,5.0,7.75,6.75,6.0,7.25,-0.11,0.08,0.95,867.16,-1.5,-45.1,1.75,0.75,0.5,1.25,4.5,1.25,0.25,0.5,0.25,0.25,0.75,0.5,0.0,-0.17,1.39,-0.61,136.57,-5.5,39.2
4.1,0.5,1.0,3.0,2.0,0.75,3.25,2.0,7.25,5.0,7.75,6.5,6.0,6.75,-0.11,0.08,0.95,857.4,-0.3,-45.6,2.5,0.75,0.5,1.75,4.5,1.0,0.25,0.5,0.25,0.5,0.75,0.5,0.5,-0.11,1.39,-0.73,169.69,-6.7,35.6
4.12,0.5,1.0,3.0,2.0,2.5,3.5,3.0,7.5,5.0,7.75,6.5,6.0,6.75,-0.11,0.08,0.95,841.92,-0.3,-40.8,2.25,0.75,0.75,1.75,4.5,1.5,0.25,0.25,0.25,0.75,0.75,0.5,0.5,-0.17,1.45,-0.55,197.27,-5.9,34.4
4.14,0.5,1.0,3.0,2.25,4.25,3.75,2.0,7.0,5.5,7.75,6.75,6.0,6.75,-0.11,0.08,0.95,840.83,-0.4,-37.4,3.0,0.5,1.0,1.0,4.5,1.5,0.5,1.0,0.25,0.25,0.75,0.5,0.5,-0.17,1.64,-0.42,216.6,-6.9,35.4
4.16,0.5,1.0,3.0,2.0,5.0,4.0,3.0,7.0,5.75,7.0,6.75,5.5,6.5,-0.05,0.08,0.95,836.48,-0.1,-34.1,2.25,0.75,1.25,1.25,4.5,1.0,0.25,0.25,0.25,0.75,0.75,0.5,0.5,-0.05,1.95,-0.8,225.97,-7.6,34.5
4.18,0.5,1.25,3.25,2.25,3.0,4.0,2.75,6.75,6.25,6.5,6.75,5.25,5.75,-0.11,0.08,0.89,826.28,0.7,-34.7,3.0,0.75,0.75,1.25,4.5,0.25,0.25,0.25,0.25,0.5,0.75,0.5,0.25,0.08,2.08,-0.98,226.09,-10.2,41.5
4.2,1.0,1.25,3.75,3.5,4.5,5.0,3.75,7.0,6.75,5.25,6.25,3.75,5.0,-0.11,0.08,0.95,824.26,1.8,-21.7,1.5,0.5,1.0,1.0,4.5,1.25,0.25,0.75,0.25,0.5,0.75,0.5,0.0,0.14,1.89,-1.05,219.19,-5.1,33.8
4.22,1.25,1.25,4.75,4.75,6.0,5.25,4.25,7.0,7.0,5.25,5.5,2.5,3.5,-0.05,0.08,0.95,836.42,3.0,-10.2,1.75,0.75,1.75,0.75,4.5,1.25,0.25,0.25,0.25,0.5,0.75,0.5,0.0,-0.11,3.39,-4.42,215.45,-8.1,39.9
4.24,2.25,2.25,5.25,6.5,6.5,6.0,4.75,6.5,6.75,3.5,3.5,2.25,2.75,-0.05,0.08,0.95,865.29,4.9,4.0,1.5,0.75,1.75,1.25,4.5,1.25,0.25,0.0,0.25,0.75,0.75,0.5,0.0,1.27,1.39,1.45,211.17,-8.0,38.9
4.26,4.75,2.5,7.75,10.0,8.0,6.0,5.75,5.75,5.25,3.25,3.0,1.0,2.0,-0.05,0.08,1.02,939.89,8.3,20.9,1.75,0.75,1.75,1.25,4.5,1.25,0.25,0.0,0.25,0.5,0.75,0.5,0.5,-0.36,-0.3,2.02,214.38,-8.1,36.6
4.28,6.25,3.75,10.0,14.0,9.25,5.5,5.75,3.75,2.75,3.0,3.0,0.75,1.0,-0.11,0.14,1.02,1056.37,11.5,35.0,1.75,0.5,1.25,1.25,4.5,1.25,0.25,0.0,0.25,0.75,0.75,0.5,0.0,-1.11,1.02,-0.3,210.29,-7.3,37.9
4.3,8.0,4.5,11.5,14.5,9.5,4.25,6.0,2.75,1.75,3.0,2.0,0.75,1.0,-0.11,0.14,1.52,1165.78,13.7,41.8,2.0,0.5,0.5,1.25,4.5,1.25,0.25,0.0,0.25,0.75,0.75,0.5,0.0,-0.05,2.45,-3.05,205.97,-5.9,37.7
4.32,8.25,5.5,14.0,14.0,9.25,3.25,4.25,2.5,1.25,3.0,2.25,0.75,1.0,-0.17,0.2,1.58,1255.06,15.1,44.1,1.25,0.75,1.5,1.25,4.5,1.0,0.25,0.0,0.25,0.25,0.75,0.5,0.5,0.52,1.64,-0.61,201.73,-7.6,36.1
4.34,10.5,5.75,15.5,10.0,8.25,3.0,1.0,1.0,0.75,3.0,2.5,0.75,1.0,-0.23,0.27,1.77,1267.41,17.0,48.0,1.25,0.75,1.75,1.5,4.25,1.0,0.25,0.0,0.25,0.5,0.75,0.5,0.0,0.08,0.45,0.33,198.44,-9.0,40.2
4.36,10.5,6.0,13.5,6.75,5.75,1.75,1.75,1.0,1.25,3.0,2.0,0.5,1.0,-0.61,0.64,2.2,1170.55,18.3,48.1,2.0,1.0,1.25,1.25,4.5,1.25,0.25,0.0,0.25,0.25,0.75,0.5,0.0,-0.8,0.39,0.58,200.88,-8.8,45.4
4.38,10.5,5.5,12.0,5.75,5.0,1.75,4.0,1.5,1.0,3.0,1.75,0.5,1.0,-1.05,1.14,2.83,1046.39,18.1,46.6,1.25,0.75,1.5,1.25,4.5,1.25,0.25,0.0,0.25,0.5,0.75,0.5,0.0,-0.3,0.58,0.2,201.8,-7.4,39.6
4.4,9.0,4.0,9.25,4.75,4.75,1.75,4.25,1.5,1.0,3.0,1.75,0.5,1.0,-1.42,2.7,3.27,890.28,16.7,42.0,1.0,0.75,1.5,0.5,4.25,1.25,0.25,0.25,0.25,0.5,0.75,0.5,0.5,0.08,0.58,-0.23,199.79,-5.2,29.5
4.42,5.75,2.5,5.5,2.25,2.25,1.75,1.25,0.5,0.75,2.25,0.5,0.5,0.0,-0.48,3.45,5.2,642.22,16.8,46.0,1.25,0.75,1.5,1.25,4.5,1.5,0.25,0.0,0.25,0.75,0.75,0.5,0.5,0.14,0.27,0.39,203.33,-5.8,32.1
4.44,2.25,1.0,2.25,1.75,0.0,1.75,1.5,0.5,0.5,2.25,0.5,0.5,1.0,-0.48,-0.86,4.89,388.77,10.0,14.6,1.0,0.5,1.5,1.25,4.25,1.25,0.25,0.0,0.25,0.75,0.75,0.5,0.5,-0.05,0.08,0.58,201.7,-5.8,29.1
4.46,2.25,1.0,3.5,2.0,2.25,1.75,1.5,0.75,0.75,2.5,2.0,0.75,1.0,-2.36,0.45,4.39,267.33,9.6,12.8,1.25,0.5,1.5,0.5,4.25,1.25,0.25,0.0,0.25,0.25,0.75,0.5,0.5,-0.23,-0.17,-0.48,196.51,-6.5,32.9
4.48,2.25,1.0,3.0,2.0,2.25,1.75,1.75,0.75,0.5,2.0,2.0,0.25,1.0,0.77,0.33,1.7,192.25,9.6,17.6,1.0,0.5,1.5,1.25,4.5,1.5,0.25,0.25,0.25,0.5,0.75,0.5,0.0,-0.11,0.83,-1.86,195.84,-5.9,35.9
4.5,1.5,0.0,2.75,0.25,2.25,0.0,0.75,0.0,0.25,0.5,0.0,0.25,0.0,-0.55,0.08,0.45,103.67,19.2,47.2,1.5,0.5,1.0,1.25,4.5,1.75,0.25,0.0,0.25,0.75,0.75,0.5,0.0,0.7,1.95,-1.8,197.61,-5.1,36.3
4.52,2.0,0.0,1.5,0.0,1.75,0.0,0.5,0.5,0.25,0.5,0.0,0.0,0.25,-0.42,0.2,-0.05,33.33,15.1,41.3,1.0,0.5,1.0,0.25,4.5,1.25,0.25,0.0,0.25,0.5,0.75,0.5,0.25,0.27,1.52,-0.55,191.12,-4.0,31.1
4.54,1.75,0.0,1.5,0.0,0.75,0.0,0.75,0.5,0.25,0.5,0.0,0.0,0.0,0.2,0.08,0.95,0.0,19.7,43.1,1.5,0.75,0.75,1.25,4.5,1.5,0.25,0.0,0.25,0.75,0.75,0.5,0.25,0.33,0.14,-0.3,193.88,-4.8,34.3
4.56,2.25,0.5,2.25,0.0,1.25,0.0,1.25,1.0,0.25,0.5,1.25,0.25,0.0,-0.11,-1.11,1.08,0.0,17.3,28.1,1.0,0.75,1.25,1.25,4.5,1.75,0.25,0.25,0.25,0.0,0.75,0.25,0.0,1.08,-2.17,-1.61,193.35,-5.6,43.8
4.58,1.75,0.75,1.75,0.0,1.75,0.0,1.25,0.75,0.25,0.5,0.25,0.0,0.0,-0.36,-2.55,1.08,0.0,15.6,43.9,1.0,0.5,1.25,1.25,4.25,1.75,0.25,0.0,0.25,0.75,0.75,0.5,0.0,1.14,-2.42,-2.92,195.11,-4.9,34.2
4.6,2.5,1.0,1.5,0.75,2.25,1.75,1.25,1.0,0.25,0.5,1.25,0.5,1.0,-0.36,-3.86,1.27,59.05,8.1,22.4,1.25,0.75,1.5,1.25,4.5,1.0,0.25,0.0,0.25,0.5,0.75,0.5,0.25,-0.86,-1.67,-1.61,196.84,-7.6,36.8
4.62,2.25,0.0,1.0,0.0,0.0,0.0,0.75,0.5,0.25,0.0,0.5,0.0,0.0,-0.36,-5.11,0.89,61.7,26.3,45.0,1.5,0.25,1.5,1.25,4.25,1.25,0.25,0.0,0.25,0.0,0.75,0.5,0.25,-1.92,-0.86,-0.05,196.7,-8.5,39.5
4.64,1.75,1.0,1.75,0.75,0.0,1.0,1.5,0.0,0.75,2.5,1.25,0.5,1.0,0.77,-3.3,-2.92,108.69,9.8,-0.5,1.25,1.0,1.75,1.25,4.25,1.25,0.25,0.0,0.25,0.5,0.75,0.5,0.5,-1.67,-0.92,0.45,201.35,-7.5,35.3
4.66,0.5,0.75,3.0,1.0,2.25,0.0,1.5,0.75,0.75,2.75,1.75,0.5,1.0,0.95,-1.61,-5.23,153.27,8.5,-1.8,1.0,0.5,1.75,1.25,4.5,1.0,0.25,0.0,0.25,0.5,0.75,0.5,0.5,-0.98,-0.8,0.33,201.3,-7.2,32.2
4.68,0.5,0.75,1.0,0.0,0.0,0.0,0.5,0.5,0.25,0.5,0.75,0.0,0.0,-0.86,-0.67,-4.61,140.77,15.1,15.6,1.0,0.75,1.5,1.25,4.5,1.25,0.25,0.0,0.25,0.5,0.75,0.5,0.5,-0.67,-0.42,-0.23,205.18,-6.2,32.9
4.7,0.5,1.0,1.75,2.0,0.0,0.5,0.75,0.25,0.75,2.0,0.0,0.5,1.0,-0.42,-0.17,-2.86,140.65,9.2,4.4,1.25,0.25,1.5,1.25,4.5,1.5,0.25,0.0,0.0,0.5,0.75,0.5,0.75,-0.48,0.33,-0.73,205.15,-5.4,30.1
4.72,0.75,0.0,1.5,0.0,0.0,0.0,0.75,0.0,0.25,0.5,0.0,0.0,0.0,0.27,0.08,-1.61,109.42,26.9,37.3,0.5,0.25,1.0,1.0,4.25,1.25,0.25,0.0,0.0,0.25,0.75,0.5,0.25,-0.3,0.52,-0.8,192.63,-3.9,32.0
4.74,0.5,1.0,0.25,0.5,0.0,0.0,0.0,0.0,0.75,1.75,0.0,0.5,0.0,0.77,0.27,-1.11,99.56,6.4,-4.0,1.25,0.5,1.0,1.25,4.25,1.5,0.25,0.0,0.0,0.5,0.75,0.5,0.5,-0.11,0.77,-0.86,189.75,-4.8,32.6
4.76,1.0,1.0,1.25,0.75,0.0,0.0,0.75,0.5,0.5,2.0,1.0,0.5,0.75,0.83,0.08,-0.05,97.09,9.4,-7.7,0.75,0.75,1.5,1.25,4.5,1.0,0.25,0.0,0.25,0.5,0.5,0.5,0.0,0.33,1.02,-1.23,186.79,-6.9,39.8
4.78,1.25,1.0,2.75,0.25,0.75,0.0,1.25,0.25,0.25,1.75,1.25,0.5,0.25,0.95,-0.17,0.08,122.91,15.3,12.8,1.25,0.75,1.25,1.25,4.25,1.25,0.25,0.25,0.0,0.5,0.75,0.5,0.5,0.64,1.52,-1.61,190.49,-5.7,33.1
4.8,0.5,0.5,3.0,0.0,2.25,0.0,1.0,0.75,0.25,0.5,1.25,0.0,1.0,0.89,-0.11,-0.05,139.84,11.8,14.3,1.5,0.5,1.0,1.0,4.5,1.25,0.25,0.0,0.0,0.75,0.75,0.5,0.5,0.7,2.2,-1.92,192.92,-5.0,31.6
4.82,1.25,1.0,3.0,1.75,1.25,0.0,1.25,1.0,0.25,0.5,1.0,0.0,0.5,0.95,-0.05,-0.05,164.13,16.1,31.3,1.0,0.5,1.25,0.75,4.25,1.75,0.25,0.0,0.0,0.5,0.75,0.5,0.5,0.64,2.45,-2.11,193.49,-3.9,30.9
4.84,1.25,1.0,3.0,2.0,2.5,0.0,1.25,0.25,0.5,1.75,1.25,0.5,1.0,1.45,0.2,-0.23,194.55,12.1,17.2,1.75,0.75,0.5,1.25,4.25,1.0,0.25,0.0,0.0,0.5,0.75,0.5,0.5,0.45,2.52,-1.73,191.37,-5.8,35.2
4.86,1.5,1.0,2.5,2.0,0.75,0.0,1.25,0.25,0.5,1.75,1.25,0.5,1.0,1.64,0.77,-0.61,210.43,13.8,11.6,1.25,0.5,0.75,1.25,4.5,0.75,0.25,0.0,0.0,0.25,0.5,0.5,0.0,0.58,2.45,-1.67,183.76,-6.8,43.8
4.88,1.25,1.0,3.5,2.0,2.25,0.0,1.25,0.0,0.5,2.25,1.0,0.5,1.0,1.45,1.52,-1.05,225.65,12.8,17.3,1.25,0.25,1.0,1.25,4.5,1.0,0.25,0.0,0.0,0.25,0.75,0.5,0.25,0.7,2.2,-1.36,180.0,-6.4,37.0
4.9,0.5,0.25,3.0,0.0,1.25,0.0,1.25,0.0,0.25,0.5,1.25,0.0,0.0,0.77,2.14,-1.55,202.86,20.5,27.4,2.0,0.5,1.0,1.5,4.5,1.0,0.25,0.0,0.0,0.25,0.75,0.5,0.25,0.58,1.89,-0.73,184.5,-8.3,41.9
4.92,0.5,0.75,1.0,0.0,0.75,0.0,0.5,0.0,0.25,0.5,0.0,0.0,0.0,0.27,2.7,-1.92,166.42,15.8,46.2,1.0,0.75,0.75,1.25,4.5,0.75,0.25,0.0,0.25,0.25,0.75,0.5,0.25,0.2,1.33,0.27,184.8,-6.1,36.5
4.94,0.5,0.25,0.5,0.0,1.25,0.0,0.5,0.0,0.25,0.5,0.0,0.0,0.0,0.58,2.7,-1.3,111.56,10.1,37.9,1.25,0.75,1.75,1.25,3.75,0.75,0.25,0.0,0.25,0.5,0.5,0.5,0.25,-0.23,0.77,0.33,187.24,-9.5,38.4
4.96,2.0,1.0,0.5,2.0,1.75,1.5,0.75,0.0,0.5,1.75,0.0,0.5,0.25,0.39,2.45,-0.8,124.33,6.9,30.0,1.5,0.75,1.5,1.25,4.5,0.75,0.25,0.0,0.25,0.75,0.75,0.5,0.5,-0.42,0.33,0.08,194.9,-7.7,33.1
4.98,0.5,0.25,3.0,0.0,2.25,0.0,1.25,0.5,0.5,0.5,1.0,0.0,0.0,0.2,2.2,-0.61,125.63,15.7,28.0,1.25,0.75,1.0,1.25,4.25,0.75,0.25,0.0,0.25,0.25,0.5,0.5,0.5,-0.55,0.2,-0.36,192.34,-7.1,36.9
5.0,1.5,1.0,0.5,2.0,1.75,1.0,0.5,0.0,0.25,0.5,0.0,0.0,0.0,0.14,2.02,0.02,137.62,10.2,54.6,1.25,0.75,0.5,0.75,4.5,1.0,0.25,0.0,0.25,0.75,0.5,0.5,0.5,-0.36,0.27,-0.61,189.92,-3.5,30.6
5.02,0.5,0.5,3.0,0.0,4.25,0.0,0.5,0.0,0.25,0.5,0.0,0.0,0.0,-0.05,1.52,0.33,144.43,12.8,50.8,1.25,0.75,1.0,1.25,4.25,1.25,0.25,0.0,0.25,0.5,0.75,0.5,0.5,-0.17,0.14,-0.73,190.82,-5.6,32.5
5.04,0.5,0.5,0.75,0.0,0.0,0.0,0.5,0.25,0.25,0.5,0.25,0.0,0.0,-0.11,1.14,0.39,112.39,16.6,23.2,1.75,0.75,1.25,1.25,4.25,1.25,0.25,0.0,0.25,0.5,0.75,0.5,0.5,0.14,-0.05,-0.61,197.23,-7.2,35.3
5.06,0.5,0.75,0.5,0.0,0.0,0.0,0.0,0.0,0.25,0.5,0.0,0.0,0.0,-0.3,0.83,0.27,72.87,16.3,42.4,0.5,0.75,1.0,1.25,4.25,1.0,0.25,0.0,0.25,0.5,0.75,0.5,0.5,0.2,-0.17,-0.42,194.85,-4.5,28.7
5.08,0.5,0.5,0.5,0.0,0.75,0.0,0.5,0.25,0.25,0.5,0.0,0.0,0.0,-0.11,0.45,0.08,45.64,10.6,34.4,1.0,0.0,1.25,0.75,4.25,0.75,0.25,0.0,0.25,0.5,0.75,0.5,0.5,0.33,-0.36,-0.36,188.44,-5.9,26.0
5.1,0.5,0.25,1.0,0.0,0.0,0.0,0.25,0.25,0.25,0.5,0.5,0.0,0.0,0.39,-0.3,-0.05,37.34,17.6,13.0,0.75,0.75,1.25,1.25,4.25,0.75,0.25,0.0,0.0,0.5,0.75,0.5,0.5,0.45,-0.42,-0.55,184.77,-6.2,32.0
5.12,0.5,0.25,1.25,0.0,0.0,0.0,0.5,0.0,0.25,0.5,0.0,0.0,0.0,0.64,-0.61,-0.11,32.92,23.9,36.3,1.0,0.75,1.0,1.25,4.25,0.75,0.25,0.0,0.25,0.75,0.75,0.5,0.0,0.52,-0.61,-0.61,181.33,-6.5,35.0
5.14,0.5,0.25,0.5,0.0,0.0,0.0,0.0,0.0,0.25,0.5,0.0,0.0,0.0,0.7,-0.92,-0.48,33.77,17.3,27.8,1.25,0.75,1.0,1.25,4.25,0.75,0.25,0.0,0.25,0.5,0.75,0.5,0.5,0.33,-0.73,-0.55,183.14,-6.7,32.5
5.16,0.5,0.5,1.0,0.0,0.0,0.0,0.75,0.0,0.25,0.5,0.0,0.0,0.0,0.52,-1.05,-0.8,33.97,22.1,39.1,1.75,0.5,1.0,1.25,4.5,1.0,0.25,0.0,0.25,0.75,0.75,0.5,0.25,0.14,-0.8,-0.55,190.43,-6.8,34.7
5.18,0.5,0.25,0.5,0.0,0.0,0.0,0.5,0.0,0.25,0.5,0.0,0.0,0.0,0.33,-0.98,-0.67,23.6,18.9,27.7,0.75,0.75,1.5,1.0,4.25,1.0,0.25,0.0,0.25,0.5,0.75,0.5,0.25,-0.05,-0.98,-0.55,191.27,-6.6,33.6
5.2,0.5,0.5,0.75,0.0,0.75,0.0,0.5,0.0,0.25,0.5,0.0,0.0,0.0,0.14,-1.11,0.02,25.74,14.5,41.4,0.75,0.0,1.25,1.25,4.25,1.5,0.25,0.0,0.25,0.75,0.5,0.5,0.5,-0.3,-0.98,-0.42,189.61,-3.7,26.4
5.22,0.5,0.0,0.75,0.0,0.0,0.0,0.5,0.0,0.25,0.5,0.5,0.0,0.0,-0.36,-1.17,0.27,30.38,19.9,5.7,1.0,0.75,0.75,1.25,4.5,1.0,0.25,0.0,0.25,0.25,0.75,0.5,0.5,-0.55,-1.11,-0.3,188.88,-5.1,33.4
5.24,0.5,0.25,0.75,0.0,0.5,0.0,0.5,0.0,0.0,0.5,0.0,0.0,0.0,-0.61,-1.36,0.39,36.47,16.7,41.9,1.25,0.75,1.25,1.25,4.5,1.0,0.25,0.0,0.25,0.5,0.75,0.5,0.5,-0.61,-1.17,-0.17,192.41,-6.6,33.5
5.26,0.5,0.25,0.75,0.0,0.5,0.0,0.5,0.0,0.25,0.5,0.25,0.0,0.0,-0.61,-1.48,0.39,42.36,15.9,27.3,1.0,0.5,1.0,1.25,4.25,0.75,0.25,0.0,0.25,0.5,0.75,0.5,0.5,-0.61,-1.17,0.02,189.63,-6.0,29.8
5.28,0.5,0.5,0.5,0.0,0.0,0.0,0.5,0.0,0.25,0.5,0.0,0.0,0.0,-0.8,-1.61,0.2,47.6,18.3,35.1,0.75,0.75,1.25,1.25,4.5,1.0,0.25,0.0,0.0,0.5,0.75,0.5,0.5,-0.61,-1.17,0.14,191.5,-5.4,32.5
5.3,0.25,0.0,0.75,0.0,0.0,0.0,0.75,0.25,0.25,0.5,0.0,0.0,0.0,-0.73,-1.67,0.14,44.04,17.0,9.6,1.25,0.5,1.0,1.0,4.25,1.25,0.25,0.0,0.25,0.5,0.75,0.5,0.75,-0.55,-1.23,0.27,192.55,-4.8,27.8
5.32,0.5,0.25,0.5,0.0,0.0,0.0,0.25,0.0,0.25,0.5,0.25,0.0,0.0,-0.42,-1.61,0.14,39.98,17.4,17.1,1.25,0.75,1.0,1.25,4.25,1.0,0.25,0.0,0.25,0.5,0.75,0.5,0.5,-0.48,-1.23,0.33,193.73,-6.1,32.5
5.34,0.5,0.0,0.75,0.0,0.0,0.0,0.5,0.25,0.25,0.5,0.0,0.0,0.0,-0.23,-1.55,0.02,39.25,18.0,17.1,0.5,0.75,1.0,0.75,4.25,1.25,0.25,0.0,0.25,0.5,0.75,0.5,0.5,-0.42,-1.23,0.14,188.26,-3.4,27.5
5.36,0.25,0.25,0.5,0.0,0.75,0.0,0.5,0.25,0.0,0.5,0.0,0.0,0.0,-0.11,-1.3,-0.11,41.3,8.3,29.7,1.0,0.75,1.25,1.25,4.5,1.0,0.25,0.0,0.25,0.5,0.75,0.5,0.5,-0.36,-1.23,-0.05,190.97,-6.0,32.4
5.38,0.0,0.5,0.5,0.0,0.75,0.0,0.5,0.25,0.25,0.5,0.0,0.0,0.0,-0.23,-1.23,-0.17,45.73,7.0,25.0,1.0,0.5,1.5,1.25,4.5,0.75,0.25,0.0,0.25,0.5,0.75,0.5,0.5,-0.3,-1.11,-0.23,191.45,-7.1,31.6
5.4,0.25,0.0,0.5,0.0,0.75,0.0,0.5,0.25,0.0,0.25,0.0,0.0,0.0,-0.23,-1.11,-0.36,44.38,10.4,33.3,1.25,0.5,1.75,1.25,4.25,0.75,0.25,0.0,0.25,0.25,0.75,0.5,0.5,-0.36,-0.92,-0.36,193.74,-8.9,35.0
5.42,0.5,0.5,0.75,0.0,0.0,0.0,0.5,0.25,0.0,1.25,0.0,0.0,0.0,-0.23,-0.92,-0.42,48.94,10.3,13.2,1.0,0.75,1.5,1.0,4.5,1.25,0.25,0.0,0.0,0.75,0.25,0.5,0.75,-0.48,-0.67,-0.42,196.42,-4.8,32.9
5.44,0.5,0.5,0.5,0.0,1.75,0.0,0.5,0.25,0.25,0.75,0.0,0.0,0.0,-0.23,-0.8,-0.48,60.45,6.1,33.3,1.25,0.5,1.5,1.25,4.5,1.0,0.25,0.0,0.0,0.25,0.75,0.5,0.5,-0.42,-0.61,-0.61,197.36,-7.4,36.3
5.46,0.5,0.25,0.5,0.0,1.75,0.0,0.5,0.25,0.25,0.5,0.0,0.0,0.0,-0.11,-0.67,-0.55,70.59,6.9,35.6,0.75,0.75,1.75,1.25,4.25,0.75,0.25,0.0,0.0,0.75,0.75,0.5,0.5,-0.42,-0.55,-0.67,196.55,-7.0,31.1
5.48,0.5,0.0,0.0,0.0,0.75,0.0,0.5,0.5,0.0,0.5,0.0,0.0,0.0,0.02,-0.61,-0.55,66.17,1.9,16.1,1.0,0.25,1.75,1.25,4.5,1.5,0.25,0.0,0.0,0.5,0.75,0.5,0.5,-0.42,-0.42,-0.67,197.88,-5.9,32.3
5.5,0.5,0.0,0.75,0.0,1.75,0.0,0.0,0.25,0.0,0.5,0.5,0.0,0.0,0.08,-0.55,-0.61,69.66,7.1,26.0,1.0,0.5,1.0,1.25,3.75,0.75,0.25,0.0,0.25,0.75,0.75,0.5,0.5,-0.55,-0.3,-0.55,192.53,-6.0,26.3
5.52,0.25,0.25,0.75,0.0,1.75,0.0,0.5,0.25,0.0,0.5,0.0,0.0,0.0,0.14,-0.36,-0.67,70.81,7.0,38.0,0.5,0.75,1.5,1.25,4.5,0.75,0.25,0.0,0.0,0.5,0.75,0.5,0.75,-0.61,-0.11,-0.48,190.79,-5.7,29.0
5.54,0.5,0.0,0.5,0.0,0.5,0.0,0.5,0.0,0.0,0.5,0.0,0.0,0.0,0.2,-0.3,-0.67,62.59,14.7,33.4,1.25,0.75,1.0,1.25,4.5,0.75,0.25,0.0,0.0,0.5,0.5,0.5,0.5,-0.55,0.08,-0.55,188.32,-6.3,36.5
5.56,0.5,0.0,0.5,0.0,2.25,0.0,0.5,0.25,0.0,0.5,0.0,0.0,0.0,0.27,-0.23,-0.67,66.4,5.0,38.3,1.5,0.5,1.25,1.25,4.25,1.25,0.25,0.0,0.0,0.25,0.5,0.5,0.5,-0.48,0.27,-0.67,189.53,-6.9,38.6
5.58,0.5,0.25,0.5,0.0,1.25,0.0,0.0,0.25,0.0,0.5,0.5,0.0,0.0,0.27,-0.23,-0.67,66.0,7.0,24.4,0.75,0.75,1.25,0.0,3.75,1.25,0.25,0.0,0.0,0.25,0.75,0.5,0.5,-0.48,0.39,-0.73,179.48,-4.5,30.2
5.6,0.5,0.25,0.75,0.0,3.5,0.0,0.5,0.0,0.25,0.5,0.0,0.0,0.0,0.33,-0.17,-0.67,82.49,5.9,45.0,1.25,0.5,1.5,1.25,4.25,0.75,0.25,0.0,0.0,0.5,0.5,0.5,0.5,-0.55,0.64,-0.98,179.52,-7.7,35.8
5.62,0.25,0.25,1.0,0.0,2.25,0.0,0.25,0.0,0.0,0.5,0.0,0.0,0.0,0.27,-0.11,-0.73,85.37,8.0,45.5,0.75,0.75,1.5,1.25,4.25,0.75,0.25,0.0,0.25,0.5,0.75,0.5,0.5,-0.55,0.77,-1.17,180.47,-6.9,31.2
5.64,0.5,0.0,0.75,0.0,2.25,0.0,0.25,0.0,0.0,0.5,0.0,0.0,0.0,0.33,0.08,-0.8,88.27,7.4,44.2,1.0,0.25,1.5,1.25,4.5,1.25,0.25,0.0,0.0,0.75,0.5,0.5,0.5,-0.55,0.83,-1.17,186.01,-5.3,31.6
5.66,0.5,0.25,0.5,0.0,1.25,0.0,0.5,0.0,0.0,0.5,0.0,0.0,0.0,0.39,0.2,-0.86,76.5,10.0,43.4,1.0,0.75,1.0,1.25,4.25,0.75,0.25,0.0,0.0,0.0,0.75,0.5,0.5,-0.61,0.83,-1.17,184.39,-7.0,37.3
5.68,0.5,0.25,0.5,0.0,2.25,0.0,0.5,0.0,0.0,0.5,0.25,0.0,0.0,0.39,0.33,-0.98,75.6,6.8,39.8,1.0,0.75,1.0,1.25,4.25,0.75,0.25,0.0,0.0,0.5,0.75,0.5,0.5,-0.55,0.83,-1.17,185.04,-6.0,32.7
5.7,0.5,0.25,0.5,0.0,0.5,0.0,0.5,0.0,0.0,0.5,0.0,0.0,0.0,0.39,0.58,-1.11,63.67,14.5,40.0,1.5,0.25,0.75,1.25,4.25,1.0,0.25,0.0,0.0,0.25,0.75,0.5,0.5,-0.48,0.83,-1.23,181.77,-6.1,34.1
5.72,0.5,0.0,0.5,0.0,2.25,0.0,0.5,0.0,0.0,0.5,0.0,0.0,0.0,0.52,0.89,-1.61,66.36,6.3,42.8,1.5,0.5,0.75,1.25,3.75,0.75,0.25,0.0,0.0,0.5,0.5,0.5,0.5,-0.42,0.77,-1.17,177.73,-6.7,34.5
5.74,0.0,0.5,0.5,0.0,2.25,0.0,0.25,0.0,0.0,0.5,0.0,0.0,0.0,0.45,1.02,-1.73,65.14,3.2,44.0,1.25,0.75,0.75,1.5,4.25,0.75,0.25,0.0,0.0,0.5,1.0,0.5,0.75,-0.36,0.7,-1.11,182.24,-5.8,28.9
5.76,0.5,0.75,0.5,0.0,2.25,0.0,0.5,0.25,0.0,0.5,0.0,0.0,0.0,0.52,0.95,-1.55,75.68,6.1,47.1,1.25,0.25,1.0,1.25,3.75,0.75,0.25,0.0,0.0,0.5,0.75,0.5,0.5,-0.36,0.64,-0.98,178.59,-6.8,29.9
5.78,0.5,0.5,0.5,0.0,1.75,0.0,0.25,0.0,0.0,0.5,0.0,0.0,0.0,0.52,0.7,-1.42,75.84,7.6,48.7,1.75,0.75,0.5,1.25,4.5,1.0,0.25,0.0,0.0,0.25,0.5,0.5,0.5,-0.17,0.58,-1.11,182.73,-5.9,40.1
5.8,0.25,0.5,0.5,0.0,1.75,0.0,0.5,0.0,0.0,0.25,0.5,0.0,0.0,0.45,0.45,-1.17,74.85,8.6,38.6,1.0,0.75,1.0,1.25,4.25,0.75,0.25,0.0,0.0,0.5,0.25,0.5,0.5,0.2,0.64,-1.17,180.95,-5.8,37.2
5.82,0.5,0.5,0.5,0.0,1.75,0.0,0.5,0.0,0.0,0.5,0.0,0.0,0.0,0.39,0.2,-0.86,72.43,8.3,48.1,2.0,0.5,0.75,1.25,3.75,0.75,0.25,0.0,0.0,0.5,0.75,0.5,1.0,0.14,0.7,-1.11,184.87,-7.0,28.7
5.84,0.5,0.5,0.25,0.0,0.5,0.0,0.5,0.0,0.0,0.5,0.0,0.0,0.0,0.33,0.08,-0.73,60.65,11.9,43.8,1.0,1.0,0.75,1.25,3.75,0.75,0.25,0.0,0.0,0.5,0.75,0.5,0.5,0.02,0.7,-0.92,180.18,-5.9,32.5
5.86,0.5,0.5,0.5,0.0,2.25,0.0,0.5,0.0,0.0,0.5,0.0,0.0,0.0,0.39,-0.05,-0.61,66.4,6.9,48.7,1.0,0.75,1.0,1.25,3.75,0.75,0.25,0.0,0.0,0.5,0.75,0.5,0.75,0.02,0.52,-0.86,179.99,-6.1,28.5
5.88,0.5,0.75,0.5,0.0,2.25,0.0,0.25,0.0,0.0,0.5,0.0,0.0,0.0,0.52,-0.23,-0.55,72.09,6.6,51.9,1.25,0.5,0.5,1.25,3.75,0.75,0.25,0.0,0.0,0.5,0.5,0.5,0.5,-0.17,0.33,-0.92,173.93,-5.4,32.4
5.9,0.5,0.5,0.5,0.0,1.75,0.0,0.5,0.25,0.0,0.5,0.0,0.0,0.0,0.64,-0.3,-0.67,77.55,6.9,43.3,2.0,0.25,1.25,0.5,3.5,0.75,0.25,0.0,0.0,0.5,0.75,0.5,0.5,-0.23,0.33,-1.05,171.78,-8.9,32.3
5.92,0.5,0.75,0.75,0.0,2.25,0.0,0.25,0.0,0.0,0.5,0.0,0.0,0.0,0.7,-0.17,-0.73,82.52,8.2,52.3,0.75,0.5,0.75,1.25,3.75,0.75,0.25,0.0,0.0,0.5,0.75,0.5,0.5,-0.36,0.39,-1.23,166.91,-5.0,27.8
5.94,0.5,0.5,0.5,0.0,1.25,0.0,0.5,0.25,0.0,0.5,0.0,0.0,0.0,0.7,-0.11,-0.86,80.17,8.5,41.8,1.25,0.5,1.0,1.25,3.25,0.75,0.25,0.0,0.0,0.25,0.5,0.5,0.5,-0.36,0.39,-1.23,163.77,-8.0,35.3
5.96,0.5,0.25,0.5,0.0,2.25,0.0,0.5,0.25,0.0,0.5,0.0,0.0,0.0,0.77,0.02,-0.86,78.91,5.4,41.5,1.25,0.5,0.5,1.25,3.75,0.75,0.25,0.0,0.0,0.5,0.75,0.5,0.5,-0.42,0.33,-1.23,163.02,-5.5,30.0
5.98,0.5,0.75,0.5,0.0,2.25,0.0,0.5,0.0,0.0,0.5,0.25,0.0,0.0,0.64,0.08,-0.86,81.09,7.4,45.5,2.0,0.5,1.25,1.25,3.75,0.75,0.25,0.0,0.0,0.25,0.75,0.5,0.5,-0.42,0.2,-1.17,169.62,-9.7,38.1
6.0,0.5,0.25,1.0,0.0,2.25,0.0,0.75,0.0,0.0,0.5,0.0,0.0,0.0,0.58,0.14,-0.92,85.55,10.3,47.0,1.0,0.5,1.0,1.25,3.5,0.75,0.25,0.0,0.0,0.25,0.75,0.5,0.75,-0.42,0.14,-1.05,170.87,-6.7,28.6
6.02,0.5,0.75,0.5,0.0,2.25,0.0,0.25,0.0,0.0,0.5,0.0,0.0,0.0,0.39,0.27,-0.92,88.04,6.6,51.9,0.75,0.75,1.5,2.0,3.0,1.0,0.25,0.0,0.0,0.5,0.5,0.5,1.25,-0.36,0.2,-0.98,177.24,-6.7,25.0
6.04,0.5,0.5,0.5,0.0,2.25,0.0,0.5,0.25,0.0,0.5,0.0,0.0,0.0,0.39,0.27,-0.92,88.96,5.8,44.4,1.25,0.5,1.25,1.25,3.5,0.75,0.25,0.0,0.0,0.5,0.5,0.5,0.75,-0.36,0.2,-0.98,177.68,-7.4,30.6
6.06,0.5,0.75,0.25,0.0,1.75,0.0,0.25,0.0,0.0,0.5,0.0,0.0,0.0,0.45,0.33,-0.92,83.57,6.0,51.1,1.25,0.5,1.25,1.25,3.0,1.25,0.25,0.0,0.0,0.5,0.75,0.5,0.5,-0.36,0.2,-0.92,177.73,-7.2,30.5
6.08,0.5,0.25,0.5,0.0,1.75,0.0,0.5,0.25,0.0,0.5,0.0,0.0,0.0,0.52,0.33,-0.8,78.44,6.6,39.9,1.0,0.75,1.5,1.25,3.25,1.0,0.25,0.0,0.0,0.75,0.5,0.5,0.75,-0.36,0.14,-0.8,178.77,-6.8,28.7
6.1,0.5,0.25,0.25,0.0,2.25,0.0,0.25,0.0,0.0,0.5,0.0,0.0,0.0,0.45,0.27,-0.73,72.14,4.0,45.5,1.5,0.75,1.0,1.25,4.25,1.25,0.25,0.0,0.0,0.5,0.75,0.5,0.5,-0.36,0.08,-0.73,186.57,-6.0,35.1
6.12,0.5,0.5,0.5,0.0,1.75,0.0,0.5,0.0,0.0,0.5,0.0,0.0,0.0,0.52,0.2,-0.92,70.69,8.3,48.1,1.5,0.25,1.25,1.25,3.5,0.75,0.25,0.0,0.0,0.5,0.75,0.5,0.5,-0.42,0.08,-0.67,185.82,-8.4,31.4
6.14,1.25,1.0,0.5,2.0,2.25,1.0,0.5,0.0,0.25,1.75,1.25,0.5,1.0,0.45,0.27,-1.05,116.07,4.9,10.9,0.75,0.75,1.25,1.25,3.5,0.75,0.25,0.0,0.0,0.0,0.75,0.5,0.5,-0.3,0.27,-0.8,181.03,-8.0,35.3
6.16,0.75,1.0,0.5,2.0,2.25,1.0,0.5,0.25,0.25,1.5,0.0,0.5,0.0,0.45,0.33,-0.98,144.66,4.7,29.5,0.75,0.75,1.0,1.5,3.25,0.75,0.25,0.0,0.0,0.5,0.25,0.5,0.5,-0.3,0.33,-0.86,173.24,-6.5,34.5
6.18,1.0,0.75,2.75,1.75,1.25,1.0,1.0,0.5,0.25,1.75,0.5,0.5,1.0,0.27,0.39,-1.05,183.74,9.7,14.8,0.25,0.25,1.25,1.25,3.75,0.75,0.25,0.0,0.0,0.5,0.75,0.5,0.5,-0.3,0.33,-0.86,166.09,-5.1,24.6
6.2,1.25,1.0,2.5,1.75,2.25,0.5,0.75,0.5,0.25,0.5,0.75,0.0,0.5,0.08,0.64,-1.11,199.16,13.0,37.2,1.0,0.75,1.5,1.25,3.5,0.75,0.25,0.0,0.0,0.5,0.75,0.5,0.5,-0.23,0.39,-0.98,166.95,-8.1,32.4
6.22,0.5,1.0,0.25,2.0,2.25,1.25,0.5,0.0,0.25,1.0,0.0,0.5,0.0,0.2,0.77,-1.3,197.14,4.0,34.4,1.25,0.75,1.25,1.25,3.5,0.75,0.25,0.0,0.0,0.0,0.25,0.5,0.5,-0.3,0.45,-1.11,166.69,-9.0,43.1
6.24,1.5,1.0,0.25,1.75,2.25,1.25,0.75,0.0,0.25,1.0,0.0,0.5,1.0,0.08,0.83,-1.48,192.98,4.9,26.0,1.0,0.25,1.5,1.25,2.75,1.25,0.25,0.0,0.0,0.5,0.5,0.5,0.5,-0.23,0.52,-1.3,166.72,-7.4,29.9
6.26,1.25,1.0,0.5,2.0,2.25,1.0,0.75,0.5,0.25,1.5,1.0,0.5,0.75,0.14,0.7,-1.36,197.25,5.0,14.8,2.0,0.75,1.25,1.25,2.5,0.75,0.25,0.0,0.0,0.5,0.75,0.5,0.75,-0.23,0.52,-1.36,167.84,-10.3,31.7
6.28,1.25,1.0,2.25,1.75,2.25,0.75,0.75,0.5,0.25,1.25,1.0,0.0,0.0,0.14,0.58,-1.23,204.99,11.2,33.9,1.25,0.75,1.0,1.25,3.5,0.75,0.25,0.0,0.0,0.5,0.75,0.5,0.75,-0.3,0.45,-1.36,171.48,-6.9,29.3
6.3,0.25,0.25,0.25,0.0,2.25,0.0,0.5,0.0,0.0,0.5,0.5,0.0,0.0,0.08,0.39,-0.98,171.17,3.8,29.6,1.25,0.5,1.0,1.25,3.0,1.0,0.25,0.0,0.0,0.75,0.5,0.5,0.5,-0.3,0.39,-1.3,170.39,-6.5,29.6
6.32,0.75,1.0,0.5,1.0,1.75,1.0,0.5,0.5,0.25,0.5,0.0,0.5,0.0,0.39,0.08,-0.61,153.72,5.5,34.9,0.25,0.5,1.25,1.25,3.25,0.75,0.25,0.0,0.0,0.0,0.75,0.5,0.75,-0.23,0.33,-1.11,164.39,-6.3,26.4
6.34,1.0,1.0,2.5,1.75,2.5,1.25,1.0,0.5,0.25,0.5,1.25,0.5,1.0,0.52,0.14,-0.61,163.84,9.7,22.7,1.0,0.5,0.5,1.25,3.0,0.75,0.25,0.0,0.0,0.5,0.75,0.5,0.5,-0.17,0.33,-0.86,158.1,-5.6,26.4
6.36,1.25,1.0,2.25,1.75,2.25,1.25,0.75,0.0,0.25,0.0,0.0,0.0,0.0,0.52,0.39,-0.73,168.23,14.2,59.9,1.25,0.5,1.75,1.25,3.0,0.75,0.25,0.0,0.0,0.75,0.75,0.5,0.5,-0.05,0.27,-0.86,162.62,-9.3,29.4
6.38,0.0,0.75,0.25,0.0,1.75,0.0,0.5,0.0,0.0,0.0,0.0,0.0,0.0,0.58,0.52,-0.8,133.89,6.2,62.8,1.5,0.5,1.5,1.25,3.0,0.75,0.25,0.0,0.0,0.5,0.75,0.5,0.5,0.02,0.27,-0.8,166.87,-9.7,32.5
6.4,0.5,0.25,0.5,0.0,2.25,0.0,0.25,0.0,0.0,0.0,0.0,0.0,0.0,0.52,0.58,-0.98,104.22,8.7,61.8,0.5,0.75,1.25,1.25,3.25,1.0,0.25,0.0,0.0,0.5,0.75,0.5,0.5,0.02,0.27,-0.86,169.89,-5.9,28.4
6.42,0.25,0.0,0.5,0.0,1.25,0.0,0.25,0.0,0.0,0.0,0.0,0.0,0.0,0.33,0.52,-0.98,59.81,11.6,58.2,1.0,0.75,1.5,1.25,3.25,0.75,0.25,0.0,0.0,0.25,0.75,0.5,0.5,0.08,0.27,-0.86,171.6,-9.0,34.2
6.44,0.0,0.0,0.25,0.0,2.25,0.0,0.5,0.25,0.0,0.0,0.0,0.0,0.0,0.27,0.39,-0.98,37.83,1.4,45.3,1.25,0.5,1.5,1.25,3.5,0.75,0.25,0.0,0.0,0.5,0.5,0.5,0.5,-0.11,0.33,-0.98,173.15,-8.5,34.5
6.46,0.0,0.0,0.25,0.0,2.25,0.0,0.5,0.0,0.0,0.0,0.0,0.0,0.0,0.27,0.39,-0.98,28.71,2.9,52.1,1.25,0.5,1.5,1.25,3.5,0.75,0.25,0.0,0.0,0.25,0.75,0.5,0.0,-0.17,0.39,-0.92,173.19,-10.2,41.4
6.48,0.0,0.25,0.25,0.0,2.25,0.0,0.5,0.0,0.0,0.0,0.0,0.0,0.0,0.2,0.33,-0.98,30.68,3.6,55.7,1.25,0.75,1.75,1.5,3.25,0.75,0.25,0.0,0.0,0.0,0.75,0.5,0.5,-0.23,0.45,-0.92,176.32,-10.9,39.0
6.5,0.5,1.0,0.5,1.0,2.25,1.0,1.0,0.5,0.25,1.0,1.25,0.5,1.0,0.39,0.2,-0.8,74.54,2.9,5.2,0.5,0.75,1.5,1.25,2.75,0.75,0.25,0.0,0.0,0.25,0.75,0.5,0.5,-0.23,0.39,-0.86,170.6,-8.5,30.2
6.52,0.5,1.0,2.75,1.75,2.25,1.0,0.75,0.75,0.25,0.5,1.0,0.5,0.75,0.45,0.14,-0.73,129.63,9.9,23.1,1.0,0.5,1.0,1.25,3.5,0.75,0.25,0.0,0.0,0.75,0.75,0.5,0.25,-0.23,0.27,-0.8,169.78,-6.6,30.3
6.54,0.5,1.0,2.5,1.75,2.25,1.0,0.75,0.5,0.25,0.5,0.75,0.5,1.0,0.45,0.27,-0.86,175.93,9.4,22.7,1.25,0.75,1.5,1.25,3.25,0.75,0.25,0.0,0.0,0.5,0.75,0.5,0.5,-0.17,0.33,-0.86,171.83,-9.0,33.1
6.56,0.5,1.0,2.5,1.75,2.25,1.0,1.0,0.5,0.25,0.5,1.25,0.5,1.25,0.52,0.39,-0.92,200.23,9.2,17.0,0.75,0.75,1.75,1.25,3.0,1.0,0.25,0.0,0.0,0.0,0.5,0.5,0.5,-0.17,0.33,-0.98,171.44,-9.3,38.0
6.58,0.5,1.0,2.5,1.0,2.25,0.75,1.0,0.5,0.25,1.25,1.25,0.5,1.0,0.45,0.58,-1.17,212.19,8.4,11.7,1.0,0.75,0.75,1.25,3.0,0.75,0.25,0.0,0.0,0.5,0.75,0.5,0.5,-0.05,0.52,-1.17,167.37,-6.5,29.0
6.6,0.25,1.0,2.75,1.75,2.25,1.0,1.25,0.5,0.25,1.25,1.25,0.5,1.0,0.39,0.83,-1.36,226.53,8.6,14.1,0.5,0.75,0.5,1.25,3.5,0.75,0.25,0.0,0.0,0.5,0.75,0.5,0.5,0.02,0.58,-1.36,161.79,-3.9,26.5
6.62,0.0,0.0,2.5,0.0,2.25,0.0,1.0,0.5,0.0,0.25,1.25,0.0,0.5,0.33,0.89,-1.36,207.28,12.1,15.1,1.0,0.75,0.75,1.25,4.25,0.75,0.25,0.0,0.0,0.5,0.75,0.5,0.5,-0.05,0.58,-1.3,166.49,-5.3,32.0
6.64,0.0,0.0,0.25,0.0,1.25,0.0,0.5,0.0,0.0,0.5,0.0,0.0,0.0,0.45,0.7,-1.48,157.46,2.0,25.3,1.0,0.5,0.5,0.75,3.25,1.25,0.25,0.0,0.0,0.5,0.25,0.5,0.5,-0.05,0.52,-1.23,160.6,-3.0,31.0
6.66,0.0,0.0,0.5,0.0,1.75,0.0,0.5,0.0,0.25,1.75,0.0,0.5,0.0,0.52,0.7,-1.36,116.69,0.1,-9.4,1.75,0.25,0.75,1.25,4.25,0.25,0.25,0.0,0.0,0.25,0.5,0.5,0.5,0.02,0.39,-1.11,164.16,-8.4,37.8
6.68,0.5,1.0,2.25,1.75,0.0,0.0,0.25,0.0,0.0,0.5,0.75,0.0,1.0,0.58,0.45,-1.23,101.5,17.3,24.0,0.75,0.25,0.75,1.25,3.5,0.75,0.25,0.0,0.0,0.25,0.5,0.5,0.5,0.08,0.33,-1.11,158.22,-5.4,30.4
6.7,0.5,1.0,2.75,2.0,2.25,1.0,1.25,1.0,0.25,2.0,0.75,0.5,0.0,0.7,0.14,-1.23,137.84,8.6,21.3,0.75,0.5,1.0,1.25,3.5,0.75,0.25,0.0,0.0,0.25,0.75,0.5,0.75,0.14,0.33,-1.17,160.1,-6.0,27.0
6.72,0.75,1.0,2.0,2.0,2.5,1.25,1.25,0.5,0.25,1.25,0.5,0.0,0.75,0.7,0.08,-1.36,169.18,7.5,27.8,0.75,0.75,0.5,1.25,3.75,0.5,0.25,0.0,0.0,0.5,0.75,0.5,0.5,-0.05,0.39,-1.11,158.42,-5.0,28.6
6.74,0.0,0.25,0.5,0.0,1.75,0.0,0.5,0.0,0.0,0.5,0.0,0.0,0.0,0.58,0.02,-1.36,144.28,4.5,37.8,0.5,0.25,0.75,1.25,3.75,0.75,0.25,0.0,0.0,0.25,0.5,0.5,0.5,-0.11,0.27,-0.92,157.54,-4.4,29.5
6.76,0.0,0.25,0.5,0.0,2.25,0.0,0.5,0.0,0.0,0.5,0.0,0.0,0.0,0.45,0.02,-1.17,110.28,3.4,40.0,0.5,0.5,1.0,1.25,3.0,0.75,0.25,0.0,0.0,0.0,0.75,0.5,0.75,-0.17,0.2,-0.86,152.7,-6.5,26.4
6.78,0.0,0.0,0.5,0.0,1.75,0.0,0.5,0.0,0.0,0.5,0.0,0.0,0.0,0.39,0.08,-0.73,68.62,3.9,33.0,0.5,0.75,1.0,1.25,3.75,0.75,0.25,0.0,0.0,0.5,0.75,0.5,1.25,-0.11,0.2,-0.92,159.24,-4.0,19.7
6.8,0.75,1.0,0.5,2.0,2.25,1.0,0.5,0.5,0.0,0.5,0.5,0.0,1.0,0.45,-0.05,-0.55,85.67,4.2,27.6,1.25,0.75,0.75,1.25,3.75,0.75,0.25,0.0,0.0,0.5,0.75,0.5,0.5,-0.05,0.27,-0.98,166.55,-6.4,32.3
6.82,0.0,0.0,0.5,0.0,1.75,0.0,0.5,0.0,0.0,0.5,0.0,0.0,0.0,0.58,-0.11,-0.36,73.66,3.9,33.0,0.0,0.5,0.75,1.0,3.5,0.75,0.25,0.0,0.0,0.5,0.75,0.5,0.75,-0.05,0.33,-1.05,163.99,-2.2,17.6
6.84,0.0,0.5,0.5,2.0,1.75,1.0,0.5,0.0,0.25,1.75,0.0,0.5,0.0,0.64,-0.17,-0.17,103.68,2.4,17.5,0.75,0.75,1.0,1.25,3.75,0.75,0.25,0.0,0.0,0.25,0.75,0.5,0.5,-0.05,0.39,-1.11,166.04,-6.4,32.6
6.86,0.0,0.0,2.75,0.0,2.25,0.0,1.25,0.5,0.0,0.5,0.5,0.0,0.25,0.7,-0.11,-0.11,112.6,13.4,26.5,1.25,0.5,0.75,1.25,3.25,0.75,0.25,0.0,0.0,0.5,0.25,0.5,0.5,-0.05,0.45,-1.05,162.13,-6.6,34.5
6.88,0.75,1.0,0.5,2.0,1.75,1.0,1.0,0.0,0.25,2.0,0.0,0.5,0.0,0.77,-0.05,-0.11,136.27,5.3,24.8,0.5,0.5,0.75,1.25,3.5,0.75,0.25,0.0,0.0,0.75,0.5,0.5,0.5,-0.11,0.39,-0.98,161.36,-3.9,25.4
6.9,0.0,1.0,2.75,2.0,2.25,1.0,1.25,0.5,0.25,2.0,1.25,0.5,1.0,0.7,0.08,-0.05,166.49,7.2,9.3,0.75,0.5,1.0,1.25,3.25,1.0,0.25,0.0,0.0,0.5,0.75,0.5,0.5,-0.05,0.27,-0.92,160.37,-5.6,27.4
6.92,0.0,0.0,3.0,0.0,2.25,0.0,1.25,0.5,0.0,0.5,0.5,0.0,0.0,0.64,0.27,0.08,164.4,15.1,32.2,0.5,0.75,1.0,1.25,3.5,0.75,0.25,0.0,0.0,0.25,0.25,0.5,0.75,-0.05,0.2,-0.92,161.43,-5.3,32.1
6.94,0.0,0.0,0.5,0.0,2.25,0.0,0.5,0.0,0.0,0.5,0.0,0.0,0.0,0.58,0.39,0.14,136.74,2.8,36.1,1.25,0.75,1.0,1.25,3.75,0.75,0.25,0.0,0.0,0.75,0.75,0.5,0.25,-0.05,0.14,-0.86,167.38,-7.0,33.8
6.96,0.5,1.0,2.75,2.0,2.25,1.0,1.25,0.5,0.25,2.0,0.75,0.5,0.75,0.52,0.52,0.27,161.64,8.3,16.6,0.5,0.5,0.5,1.25,3.25,0.75,0.25,0.0,0.0,0.0,0.75,0.5,0.75,-0.05,0.08,-0.86,161.84,-4.4,25.3
6.98,0.5,1.0,2.75,2.0,2.25,1.0,1.25,0.5,0.25,1.5,1.25,0.5,1.0,0.39,0.64,0.39,192.72,8.8,14.6,0.75,0.75,1.75,1.25,3.5,1.0,0.25,0.0,0.0,0.5,0.75,0.5,0.5,-0.05,0.27,-1.05,169.92,-7.7,31.7
7.0,0.5,1.0,2.75,1.75,2.25,0.75,1.25,0.5,0.25,2.0,1.0,0.5,0.75,0.27,0.7,0.58,217.32,8.7,14.2,0.75,0.75,1.5,1.25,3.25,0.75,0.25,0.0,0.0,0.5,0.25,0.5,1.0,-0.11,0.39,-1.11,169.8,-6.8,28.6
7.02,0.5,1.0,2.5,2.0,2.25,1.0,1.25,0.5,0.25,1.75,1.25,0.5,1.0,0.02,0.77,0.64,232.85,7.9,12.4,1.0,0.5,1.25,1.25,3.0,0.75,0.25,0.0,0.0,0.5,0.75,0.5,0.5,-0.05,0.45,-1.11,169.88,-7.9,28.9
7.04,0.5,1.0,3.0,2.0,2.5,1.0,1.25,0.5,0.25,1.75,0.75,0.5,1.0,-0.23,0.7,0.58,241.19,8.6,17.4,0.0,0.75,1.25,1.0,3.0,1.0,0.25,0.0,0.0,0.25,0.75,0.5,0.75,0.02,0.52,-1.23,163.98,-4.6,22.6
7.06,0.5,1.0,2.5,1.75,2.25,1.0,1.25,0.5,0.25,0.5,1.0,0.0,0.5,-0.42,0.7,0.64,232.56,10.8,31.4,0.5,0.75,1.5,1.25,3.75,1.0,0.25,0.0,0.0,0.0,0.5,0.5,0.5,0.14,0.33,-1.23,166.5,-7.1,37.5
7.08,0.0,0.0,0.25,0.0,1.75,0.0,0.75,0.0,0.0,0.5,0.0,0.0,0.0,-0.42,0.7,0.58,174.69,2.2,30.5,1.25,0.5,1.25,1.25,2.75,1.0,0.25,0.0,0.0,0.25,0.75,0.5,0.5,0.2,0.2,-1.17,163.71,-8.7,32.3
7.1,0.0,0.25,0.25,0.0,2.25,0.0,0.75,0.0,0.0,0.5,0.0,0.0,0.0,-0.36,0.45,0.27,124.85,2.0,38.3,0.5,0.25,1.25,1.0,3.5,1.25,0.25,0.0,0.0,0.25,0.5,0.5,0.5,0.2,0.08,-0.98,162.76,-4.8,29.9
7.12,0.0,0.25,0.5,0.0,2.25,0.0,0.75,0.0,0.0,0.5,0.0,0.0,0.0,-0.11,0.39,-0.17,77.74,4.2,39.7,0.75,0.5,1.5,1.5,3.0,1.0,0.25,0.0,0.0,0.75,0.75,0.5,0.5,0.08,-0.42,-0.36,166.07,-7.1,26.7
7.14,0.0,0.0,0.25,0.0,1.75,0.0,0.5,0.0,0.0,0.5,0.0,0.0,0.0,0.45,0.39,-0.3,48.35,1.0,30.7,1.25,0.75,1.25,1.25,3.0,1.75,0.25,0.0,0.0,0.0,0.25,0.5,0.25,0.2,-0.67,-0.23,167.8,-7.4,45.4
7.16,0.0,0.0,0.5,0.0,2.25,0.0,0.5,0.0,0.0,0.5,0.0,0.0,0.0,0.95,0.64,-0.55,41.36,2.8,36.1,1.0,0.5,1.5,1.5,3.5,1.5,0.25,0.0,0.0,0.5,0.75,0.5,0.75,0.33,-0.23,-0.55,177.19,-6.1,28.7
7.18,0.0,0.0,0.5,0.0,2.25,0.25,0.5,0.0,0.0,0.5,0.0,0.0,0.0,1.33,0.89,-0.98,37.56,1.3,36.0,1.25,0.25,1.5,2.0,3.25,2.0,0.25,0.0,0.0,0.25,0.75,0.5,0.5,0.33,0.02,-1.05,185.78,-6.9,34.2
7.2,0.0,0.5,0.25,0.0,1.75,0.0,0.5,0.0,0.0,0.5,0.0,0.0,0.0,1.27,1.14,-1.36,26.01,2.7,40.6,1.25,0.75,1.5,1.75,4.25,2.0,0.25,0.0,0.0,0.0,0.5,0.5,0.5,0.27,0.27,-1.42,199.92,-6.4,41.7
7.22,0.5,1.0,0.25,0.75,2.25,0.5,0.5,0.25,0.25,0.75,0.0,0.0,0.0,1.08,1.39,-1.48,46.48,3.9,41.5,1.25,0.75,1.75,2.0,3.5,1.5,0.25,0.0,0.0,0.5,0.75,0.5,0.25,0.33,0.08,-1.67,205.28,-8.5,38.4
7.24,0.25,0.25,1.25,0.25,2.25,0.5,1.25,0.5,0.0,0.75,0.25,0.25,0.0,1.02,1.58,-1.17,69.72,6.6,25.7,1.25,0.5,1.25,2.0,4.5,2.0,0.25,0.0,0.0,0.0,0.75,0.5,0.5,0.33,-0.05,-1.48,213.66,-5.8,38.9
7.26,0.5,1.0,1.0,0.0,2.25,0.5,1.25,0.5,0.25,0.75,0.25,0.5,0.0,0.89,1.52,-0.86,97.14,6.9,26.5,0.5,0.75,0.75,0.75,3.25,1.25,0.25,0.0,0.0,0.5,0.25,0.5,0.5,0.27,-0.17,-1.3,197.01,-2.6,30.4
7.28,0.5,1.0,3.0,1.75,2.5,1.5,1.25,0.5,0.25,2.0,1.0,0.5,0.5,0.58,1.39,-0.67,154.64,7.9,18.5,0.75,0.75,1.25,2.0,3.0,1.25,0.25,0.0,0.0,0.5,0.75,0.5,0.75,0.33,0.02,-1.3,191.39,-6.5,28.2
7.3,0.25,1.0,2.75,1.75,2.25,1.25,1.25,0.5,0.25,1.25,1.25,0.5,1.0,0.33,1.39,-0.67,198.47,8.1,14.4,0.5,0.75,1.0,2.0,3.0,1.0,0.25,0.0,0.0,0.5,0.5,0.5,0.5,0.33,0.2,-1.42,178.23,-6.1,31.4
7.32,0.75,0.5,2.75,1.75,2.25,1.0,1.25,0.5,0.25,2.0,1.0,0.5,1.25,0.2,1.27,-0.55,232.26,7.7,8.8,1.0,0.5,1.5,2.0,2.75,1.5,0.25,0.0,0.0,0.25,0.75,0.5,0.25,0.2,0.33,-1.23,177.71,-8.6,36.6
