time,left pressure 0[N/cm虏],left pressure 1[N/cm虏],left pressure 2[N/cm虏],left pressure 3[N/cm虏],left pressure 4[N/cm虏],left pressure 5[N/cm虏],left pressure 6[N/cm虏],left pressure 7[N/cm虏],left pressure 8[N/cm虏],left pressure 9[N/cm虏],left pressure 10[N/cm虏],left pressure 11[N/cm虏],left pressure 12[N/cm虏],left acceleration X[g],left acceleration Y[g],left acceleration Z[g],left total force[N],left center of pressure X[mm],left center of pressure Y[mm],right pressure 0[N/cm虏],right pressure 1[N/cm虏],right pressure 2[N/cm虏],right pressure 3[N/cm虏],right pressure 4[N/cm虏],right pressure 5[N/cm虏],right pressure 6[N/cm虏],right pressure 7[N/cm虏],right pressure 8[N/cm虏],right pressure 9[N/cm虏],right pressure 10[N/cm虏],right pressure 11[N/cm虏],right pressure 12[N/cm虏],right acceleration X[g],right acceleration Y[g],right acceleration Z[g],right total force[N],right center of pressure X[mm],right center of pressure Y[mm]
0.02,1.25,0.5,1.75,2.0,2.5,1.75,1.25,3.5,4.5,5.0,4.75,3.75,5.0,-0.11,0.14,0.95,383.68,1.4,-37.2,8.5,1.0,8.25,5.25,0.0,0.0,2.75,0.75,1.5,0.5,1.0,0.5,0.75,0.39,0.77,2.08,496.62,-25.8,48.3
0.04,2.0,0.5,1.75,2.5,0.0,2.5,2.5,4.75,5.25,5.75,5.5,4.5,5.75,-0.11,0.08,0.95,495.15,1.9,-41.9,7.5,0.75,7.25,3.0,0.0,0.25,1.75,0.75,1.5,0.5,1.0,0.25,0.5,0.7,0.7,2.27,364.09,-25.9,48.0
0.06,1.25,0.25,1.75,1.5,0.75,2.5,3.0,4.75,6.0,6.5,6.25,5.25,6.25,-0.11,0.08,0.95,609.92,0.9,-48.1,5.0,0.0,5.25,3.0,0.0,0.25,1.5,0.75,1.5,0.5,1.25,0.25,0.25,0.64,-0.05,2.27,270.56,-24.2,38.9
0.08,1.25,0.5,1.75,2.0,1.25,2.5,3.0,5.75,6.5,6.75,6.75,5.25,6.75,-0.11,0.08,0.95,708.68,0.7,-45.7,1.0,0.5,4.0,2.75,0.0,1.5,1.0,1.0,1.5,0.5,1.0,0.5,0.75,1.14,-0.61,1.52,195.49,-14.6,17.7
0.1,1.5,0.5,1.25,2.0,2.25,2.75,3.0,5.75,7.0,7.25,7.5,5.75,6.75,-0.05,0.08,0.95,799.65,0.5,-44.8,0.75,0.75,2.5,2.75,0.0,1.25,1.0,1.0,1.5,0.5,1.25,0.75,0.75,3.08,-1.48,1.33,133.27,-12.1,9.1
0.12,1.75,0.5,3.0,2.0,2.5,3.25,3.25,5.75,7.0,7.75,7.75,6.0,7.25,-0.05,0.08,0.95,887.49,1.5,-40.8,0.5,0.5,2.25,2.75,0.0,0.25,1.0,0.75,1.5,0.75,1.0,0.75,0.75,1.14,-0.61,1.2,84.64,-13.8,3.5
0.14,1.75,0.5,3.0,2.0,3.0,3.25,3.5,6.0,7.0,7.75,7.75,5.75,7.25,-0.05,0.08,0.95,949.24,1.4,-39.4,0.0,0.5,0.5,2.75,0.0,1.25,1.0,1.0,1.5,0.5,1.0,0.75,0.5,0.27,-0.55,0.77,52.7,-6.2,-3.9
0.16,1.75,0.5,3.0,2.0,2.5,3.25,3.5,6.25,7.0,7.75,7.75,5.5,7.25,-0.11,0.08,0.95,982.28,1.3,-40.0,0.0,0.5,1.5,2.0,0.0,1.0,1.0,0.75,1.5,0.75,1.25,0.25,0.75,0.02,-0.61,0.95,43.84,-8.7,-3.1
0.18,1.25,0.5,3.0,2.0,2.5,3.25,3.5,6.5,7.0,7.75,7.75,5.25,7.0,-0.05,0.08,0.95,982.37,1.0,-40.5,0.0,0.25,1.5,2.0,0.0,1.0,1.0,0.75,1.5,0.75,1.0,0.75,0.5,-0.55,-0.48,1.39,50.17,-9.1,-6.4
0.2,1.5,0.5,3.0,1.75,2.5,3.25,3.5,6.25,7.0,7.5,7.25,5.25,6.75,-0.11,0.08,0.95,954.67,1.2,-39.6,0.0,0.25,1.25,1.75,0.0,1.25,1.0,0.75,1.5,0.5,1.0,0.75,0.5,-0.55,-0.42,1.33,63.15,-8.0,-7.2
0.22,1.75,0.5,2.75,0.0,2.5,3.5,3.25,6.0,7.0,7.25,7.25,5.25,6.75,-0.11,0.08,0.95,901.42,0.6,-42.6,0.0,0.25,1.5,1.75,0.0,1.25,1.0,0.75,1.25,0.5,1.0,0.5,0.5,-0.11,-0.23,1.27,80.7,-8.6,-1.9
0.24,1.25,0.5,2.25,1.0,0.75,3.25,3.0,6.0,7.0,7.0,7.0,5.25,6.75,-0.05,0.08,0.95,840.11,0.5,-47.0,0.0,0.25,1.75,1.75,0.0,0.25,0.75,0.75,1.25,0.5,0.75,0.75,0.5,-0.05,-0.17,1.45,92.06,-12.5,-5.3
0.26,1.5,0.5,3.0,2.0,2.5,3.25,3.25,6.0,7.0,7.0,6.75,5.0,6.5,-0.05,0.08,0.95,804.91,1.4,-37.9,0.0,0.25,1.0,1.75,0.0,1.25,1.0,0.75,1.0,0.75,1.0,0.75,0.5,-0.17,0.08,1.64,101.49,-6.3,-9.2
0.28,1.5,0.5,3.0,2.0,2.5,3.25,3.25,6.25,7.0,6.75,6.75,4.5,6.25,-0.11,0.08,0.95,776.71,1.4,-36.7,0.0,0.25,1.25,1.5,0.0,1.0,1.0,0.75,1.25,0.5,1.0,1.0,0.75,-0.23,0.39,1.7,112.71,-7.8,-14.4
0.3,1.5,0.5,3.0,2.0,2.5,3.25,3.25,6.25,7.0,6.75,6.75,4.25,6.0,-0.05,0.08,0.95,758.1,1.5,-36.0,0.0,0.5,0.75,1.25,0.0,1.25,0.75,0.5,1.0,0.5,1.0,0.75,0.5,-0.23,0.64,1.83,117.08,-5.8,-9.9
0.32,1.25,0.5,3.0,2.0,3.0,3.25,3.5,6.75,7.25,6.5,6.75,4.0,6.0,-0.11,0.08,0.95,745.41,1.2,-35.0,0.0,0.25,1.5,1.25,0.0,1.25,0.75,0.75,1.0,0.5,1.0,0.75,0.75,-0.05,0.95,1.89,123.0,-7.2,-10.5
0.34,1.75,0.5,3.0,2.0,3.5,4.0,3.75,6.75,7.5,6.5,6.75,3.75,5.75,-0.11,0.08,0.95,745.42,1.3,-31.1,0.0,0.5,1.25,1.5,0.0,1.25,0.75,0.75,1.0,0.75,1.0,0.5,0.5,0.14,1.45,1.95,127.18,-6.7,-3.9
0.36,2.25,0.5,3.0,2.0,3.75,4.0,3.75,6.75,7.75,6.5,6.75,3.75,5.75,-0.05,0.08,0.95,753.19,1.6,-29.6,0.0,0.25,1.5,1.25,0.0,1.0,0.75,0.75,1.0,0.5,1.0,0.75,0.5,-0.11,2.08,1.45,129.71,-8.6,-8.8
0.38,2.5,0.5,3.0,2.25,4.5,4.5,4.25,6.75,8.25,6.5,6.75,3.0,5.0,-0.05,0.08,0.95,772.22,1.9,-24.5,0.0,0.25,1.25,1.25,0.0,1.25,0.75,0.75,1.0,0.5,1.0,0.25,0.5,-0.73,2.95,1.2,128.02,-6.8,-3.8
0.4,3.0,0.5,3.75,3.75,6.25,5.25,4.5,7.25,8.5,5.25,6.25,2.5,4.5,-0.05,0.08,0.95,821.25,2.9,-14.0,0.0,0.25,1.25,1.25,0.0,1.25,0.5,0.75,1.25,0.5,1.0,0.75,0.5,-1.42,4.83,0.45,128.21,-6.7,-11.0
0.42,4.75,0.75,5.0,4.75,6.25,5.25,4.75,7.0,8.25,5.0,6.0,2.25,3.0,-0.05,0.08,0.95,881.64,5.3,-4.1,0.0,0.25,0.25,1.0,0.0,1.25,0.5,1.0,1.25,1.25,1.0,0.75,1.0,-3.55,5.58,-2.67,129.09,0.7,-32.6
0.44,6.25,1.0,5.75,6.25,6.25,5.5,5.5,6.75,8.0,4.0,5.25,2.25,3.0,-0.05,0.08,0.95,957.52,7.1,3.3,0.0,0.25,1.25,0.5,0.0,0.25,0.5,1.0,1.0,2.0,1.0,2.25,2.25,-0.8,-0.8,-0.23,147.64,-2.1,-54.1
0.46,7.75,1.75,6.5,7.0,8.0,5.75,6.0,5.75,7.0,3.25,4.5,2.25,2.5,-0.05,0.08,0.95,1039.75,8.6,13.4,0.0,0.25,1.0,1.0,0.0,1.75,0.0,1.25,1.5,2.0,1.25,3.5,3.25,-1.05,0.83,1.52,186.12,0.7,-53.2
0.48,9.25,2.0,9.0,8.5,8.0,5.5,6.75,4.75,5.75,3.0,3.25,1.25,1.75,-0.11,0.08,0.95,1115.2,11.3,25.5,0.0,0.0,1.25,1.0,0.0,0.5,0.0,2.0,1.5,3.5,2.5,5.5,5.75,-0.3,0.27,1.45,252.26,0.8,-71.1
0.5,10.5,2.0,10.5,9.25,8.5,5.25,7.0,3.25,4.25,2.75,2.5,1.0,1.0,-0.11,0.08,1.02,1162.94,13.6,34.8,0.0,0.25,0.5,1.25,0.0,2.75,0.25,2.5,2.25,5.75,3.75,7.0,7.0,0.58,0.58,2.45,345.58,3.4,-67.2
0.52,11.5,2.0,11.5,10.0,8.75,3.75,6.75,3.0,3.25,2.75,2.5,0.75,1.5,-0.17,0.14,1.33,1198.54,14.9,37.3,0.5,0.0,1.0,1.25,0.0,2.75,0.5,4.0,3.5,6.5,5.5,7.0,8.0,-0.11,0.39,1.33,480.56,2.3,-64.1
0.54,12.0,2.25,12.5,8.0,8.0,2.75,6.0,2.5,2.5,3.25,2.5,1.0,1.75,-0.23,0.2,1.39,1191.11,16.0,37.0,0.25,0.25,1.5,1.5,0.0,2.75,0.75,5.0,4.0,6.5,6.5,7.25,8.0,0.08,0.2,0.95,620.82,1.5,-61.2
0.56,12.0,2.0,12.5,3.5,6.25,1.75,4.5,2.75,1.75,1.25,2.25,0.5,1.25,-0.17,0.33,1.58,1074.23,18.7,42.9,0.0,0.5,1.25,1.5,0.25,2.75,1.0,5.0,4.75,6.75,6.75,7.25,8.0,0.08,0.2,0.95,728.14,1.6,-60.6
0.58,11.5,2.0,11.5,4.75,5.5,1.5,3.75,2.5,1.75,2.75,2.0,0.5,1.0,-0.23,0.39,1.77,954.58,17.9,40.6,0.25,0.75,1.75,1.5,0.5,2.75,1.5,5.5,4.5,7.25,7.25,7.5,7.5,0.08,0.2,0.95,806.43,0.8,-56.4
0.6,11.0,2.0,9.0,2.5,2.5,1.25,3.75,2.25,1.75,2.75,2.25,0.75,1.0,-0.23,0.52,2.58,785.35,18.7,35.5,0.25,0.75,1.75,1.75,0.5,2.75,1.5,5.75,5.25,7.25,7.5,7.5,7.5,0.08,0.2,0.95,858.36,0.5,-55.5
0.62,9.25,0.5,8.25,2.0,2.5,0.0,3.75,1.75,1.0,0.5,2.0,0.5,1.0,-0.73,0.58,2.52,605.42,22.6,41.1,0.25,0.75,1.25,1.75,1.0,3.0,2.0,5.75,5.25,7.0,7.5,7.0,7.75,0.08,0.14,0.95,884.88,1.0,-54.3
0.64,6.75,0.25,5.0,2.0,2.5,0.0,2.5,1.0,1.25,0.5,1.0,0.0,0.5,-0.55,0.39,2.7,415.98,21.7,45.7,0.25,0.75,1.25,2.0,1.25,3.5,2.0,5.75,5.5,6.75,7.5,7.0,7.0,0.08,0.14,0.95,890.2,0.8,-51.1
0.66,4.75,0.5,2.5,0.0,2.25,1.0,2.25,1.75,1.5,2.0,2.0,0.75,1.0,-0.55,-0.42,2.83,297.53,11.1,10.7,0.5,0.75,1.5,2.0,2.5,3.25,2.0,5.75,5.75,6.5,6.75,6.25,7.0,0.08,0.14,0.95,875.82,0.6,-45.8
0.68,3.0,0.0,2.0,0.0,2.5,0.0,1.75,1.5,0.75,1.5,2.0,0.5,0.25,-0.61,-0.8,1.08,204.19,11.7,9.8,0.5,0.75,1.75,2.0,2.5,3.75,2.0,5.75,5.75,6.25,6.75,5.75,6.25,0.08,0.14,0.95,840.37,0.4,-42.6
0.7,1.5,0.0,0.5,0.0,2.25,0.0,1.25,1.0,0.75,0.5,0.5,1.0,0.0,-0.86,-1.42,1.64,106.47,8.8,8.3,0.5,0.75,2.0,2.75,3.0,4.0,2.0,5.75,5.75,5.75,6.75,5.5,5.75,0.08,0.14,0.95,801.14,-0.1,-37.6
0.72,1.5,0.0,0.25,0.0,1.25,0.0,1.25,1.0,0.75,0.5,0.5,0.5,0.25,-0.55,-1.23,1.2,25.18,8.9,3.0,0.75,0.75,2.25,2.75,3.25,4.0,2.5,5.75,6.25,5.25,6.5,5.0,4.75,0.08,0.14,0.95,755.2,-1.1,-32.8
0.74,1.25,0.0,0.5,0.0,1.75,0.0,1.25,0.5,0.75,0.5,0.25,0.5,0.25,-0.42,-0.98,0.52,0.0,9.8,11.8,0.75,1.0,2.5,2.75,3.25,4.25,2.75,6.0,6.25,5.0,6.25,4.5,4.5,0.08,0.14,0.95,715.95,-1.2,-29.5
0.76,1.25,0.0,0.25,0.0,2.25,0.0,1.0,0.75,0.75,0.5,0.0,0.5,0.25,-0.23,-0.8,0.64,0.0,6.4,14.3,1.0,1.0,2.75,2.75,3.25,5.0,2.75,6.0,6.25,5.0,5.5,4.0,3.25,0.08,0.14,0.95,680.4,-1.4,-23.7
0.78,1.0,0.0,0.25,0.0,2.25,0.0,1.0,0.25,0.75,0.5,0.25,0.5,0.25,-0.05,-0.73,0.89,0.0,7.3,12.1,0.75,0.75,3.75,3.0,3.25,5.0,3.0,6.0,6.5,3.75,5.25,3.0,3.0,0.08,0.14,0.95,651.07,-2.6,-18.5
0.8,1.25,0.0,0.25,0.0,2.25,0.0,0.75,0.0,0.75,0.5,0.0,0.5,1.0,0.08,-0.55,1.08,0.0,6.3,6.3,1.25,1.0,4.0,3.0,3.5,5.0,3.25,6.0,6.75,3.5,5.25,2.25,2.25,0.08,0.14,0.95,631.85,-3.5,-12.4
0.82,1.0,0.0,0.25,0.0,2.25,0.0,0.5,0.25,0.75,0.0,0.0,0.5,0.25,0.08,-0.36,1.14,5.89,8.2,22.8,2.0,1.0,4.0,3.0,3.75,5.0,3.25,6.0,6.75,3.5,4.5,2.25,2.25,0.08,0.14,0.95,623.44,-3.9,-9.3
0.84,0.5,0.0,0.25,0.0,2.25,0.0,0.5,0.0,0.75,0.25,0.5,0.25,0.25,0.14,-0.17,1.2,24.8,6.1,12.2,2.25,1.25,4.25,4.5,5.5,5.75,3.25,6.0,6.75,3.5,4.5,2.25,2.0,0.08,0.2,0.95,656.46,-4.1,-2.2
0.86,0.5,0.0,0.25,0.0,2.25,0.0,0.5,0.5,0.75,0.5,0.25,0.25,0.0,0.14,-0.05,1.45,42.07,3.9,13.1,3.5,1.75,4.25,5.25,6.0,5.75,3.75,6.0,6.75,2.75,4.5,1.5,1.25,0.08,0.14,0.95,703.48,-5.6,6.9
0.88,0.75,0.0,0.25,0.0,1.25,0.0,0.5,0.0,0.75,0.0,0.25,0.0,0.5,0.08,0.02,1.58,48.18,10.1,15.6,5.0,1.75,5.5,7.0,6.25,6.25,4.25,5.75,6.75,2.5,3.5,1.0,1.25,0.08,0.2,0.95,778.4,-7.4,15.8
0.9,0.5,0.0,0.25,0.0,2.25,0.0,0.5,0.0,0.75,0.0,0.0,0.25,0.0,-0.05,0.2,1.83,53.45,8.0,33.2,6.25,1.75,6.25,8.0,7.75,6.25,4.75,5.25,6.25,2.25,3.25,1.0,1.25,0.08,0.2,0.95,865.28,-8.5,21.6
0.92,0.5,0.0,0.25,0.0,2.25,0.0,0.5,0.0,0.5,0.0,0.0,0.25,0.0,-0.17,0.33,2.08,59.05,7.7,37.3,7.5,1.75,7.25,10.5,8.75,6.75,5.0,5.0,5.75,2.0,3.0,1.0,1.25,0.08,0.2,0.95,981.71,-9.6,27.2
0.94,0.5,0.0,0.25,0.0,2.25,0.0,0.5,0.5,0.5,0.5,0.5,0.0,0.25,-0.36,0.64,2.39,71.16,2.8,11.4,8.25,2.25,8.25,12.0,9.25,7.0,5.5,3.75,4.75,2.0,2.5,0.75,1.25,0.08,0.2,0.95,1091.96,-10.8,33.6
0.96,0.75,0.0,0.25,0.0,0.5,0.0,0.5,1.0,0.25,0.5,0.0,0.5,0.25,-0.55,1.08,2.58,68.59,4.5,-11.0,9.0,2.5,9.0,13.5,10.5,7.0,5.5,3.25,3.5,1.75,2.5,0.75,1.25,0.02,0.2,1.02,1204.94,-11.5,38.0
0.98,1.25,0.0,0.25,0.0,2.25,0.0,0.5,1.0,1.0,0.5,0.25,0.75,1.0,-0.48,0.33,0.02,90.14,3.6,-5.9,9.75,2.75,10.0,14.0,11.5,6.75,5.5,2.5,2.25,1.25,2.0,0.75,1.25,0.08,0.2,1.08,1289.57,-12.6,43.4
1.0,1.25,0.0,0.5,0.0,3.0,0.0,1.25,1.0,1.0,0.5,1.0,0.75,1.0,-1.17,2.39,1.83,118.29,5.3,-3.1,11.0,2.5,11.0,13.5,11.5,6.0,4.75,2.25,2.0,1.0,1.75,0.75,1.25,0.08,0.27,1.2,1328.26,-13.8,45.9
1.02,0.75,0.25,0.5,1.0,3.0,0.0,1.5,1.0,0.75,0.0,1.25,0.0,1.0,-0.48,3.7,1.2,145.62,6.4,11.2,11.5,2.75,11.5,14.0,10.5,4.5,3.75,1.25,1.5,0.75,1.5,0.75,1.25,0.14,0.27,1.27,1322.6,-15.7,49.8
1.04,0.75,0.0,0.25,0.25,2.5,1.0,1.25,1.0,1.0,0.75,1.25,0.75,1.0,2.2,5.02,-0.55,164.19,1.4,-10.2,12.5,2.75,12.0,12.0,9.0,2.75,2.75,1.0,1.5,0.75,1.0,0.25,0.5,0.08,0.33,1.27,1252.34,-18.3,55.8
1.06,1.25,0.5,1.0,1.0,2.5,1.0,1.25,1.0,1.0,1.5,1.25,0.75,1.0,2.77,5.39,-0.73,191.28,4.7,1.0,12.5,2.5,12.0,9.5,7.25,2.75,2.0,0.75,1.5,0.75,1.25,0.75,0.5,0.08,0.45,1.45,1128.0,-19.1,54.0
1.08,1.25,0.5,0.25,1.5,2.5,1.25,0.75,1.0,1.0,2.0,1.25,0.75,1.0,-0.55,-0.17,0.95,209.94,1.9,-2.5,12.5,2.0,11.0,7.25,3.5,0.0,3.25,0.75,1.0,0.5,1.0,0.75,0.75,0.27,0.58,1.64,931.44,-24.0,55.6
1.1,0.5,0.0,0.5,0.0,2.5,0.0,0.75,0.75,1.0,1.5,1.25,0.5,1.75,-0.23,0.39,1.33,205.71,0.6,-25.7,10.5,1.75,9.5,6.25,0.0,2.5,4.75,0.75,1.0,0.5,1.0,1.0,0.5,0.52,1.02,2.2,739.55,-23.5,51.3
1.12,0.5,0.0,0.25,1.0,2.25,1.75,0.0,1.0,1.25,1.0,1.25,0.5,3.0,-0.36,0.33,0.83,209.52,-3.1,-23.4,8.5,1.5,8.25,5.25,0.0,2.25,3.75,0.75,1.0,1.0,0.75,0.75,0.25,0.58,1.2,2.64,559.42,-22.6,49.6
1.14,1.25,0.5,0.0,1.0,0.5,1.75,0.25,1.5,1.5,4.25,2.0,2.25,4.25,-0.11,0.45,1.58,238.97,-3.0,-47.5,7.0,1.0,6.25,3.0,0.0,0.0,2.0,0.75,1.0,0.75,1.0,0.75,0.25,0.45,0.95,3.08,389.96,-25.4,45.9
1.16,1.25,0.25,0.25,1.75,2.25,1.75,1.25,4.0,3.5,6.5,3.5,4.5,5.75,0.33,0.7,2.02,328.68,-2.0,-47.1,3.5,0.25,4.75,2.75,0.0,0.0,1.0,0.75,0.5,0.5,1.0,0.75,0.75,0.64,-0.86,2.33,265.5,-22.6,31.1
1.18,1.25,0.0,0.25,1.75,0.0,3.0,2.25,4.75,4.75,6.75,5.5,5.0,6.75,-0.05,0.14,1.02,457.27,-1.7,-54.7,1.25,0.25,2.25,2.75,0.0,0.0,0.75,0.75,1.0,0.5,1.0,0.75,0.5,0.58,-0.86,0.02,157.56,-17.0,12.3
1.2,1.25,0.25,3.0,2.0,0.0,3.25,2.75,5.75,5.75,7.0,5.5,5.75,7.0,-0.11,0.08,0.95,622.78,0.9,-46.2,0.75,0.25,1.5,2.5,0.0,0.5,0.75,0.75,1.0,0.5,1.0,0.75,0.75,0.89,-1.36,2.02,68.85,-12.2,1.9
1.22,1.25,0.5,3.0,2.0,3.0,3.25,3.5,6.75,6.25,7.75,6.75,6.0,7.5,-0.05,0.08,0.95,784.56,0.5,-40.5,0.25,0.25,1.5,2.0,0.0,1.25,0.5,0.5,1.0,0.5,1.0,0.75,0.75,0.64,-0.86,1.08,12.4,-8.9,-2.4
1.24,1.75,0.5,3.0,2.25,3.0,3.25,3.75,6.75,6.75,8.5,7.25,6.0,8.25,-0.11,0.08,0.95,927.94,0.7,-40.5,0.0,0.5,1.5,2.0,0.0,1.5,0.75,0.75,1.0,0.5,1.0,0.75,0.5,0.33,-0.55,0.33,0.0,-7.9,0.7
1.26,1.75,0.5,3.25,2.0,3.75,3.5,3.75,7.25,6.75,8.75,6.75,6.0,8.5,-0.05,0.08,0.95,1034.62,0.3,-39.0,0.0,0.25,1.5,2.0,0.0,1.25,0.75,0.75,1.0,0.75,1.0,0.5,0.5,0.14,-0.36,0.45,4.94,-7.9,-1.7
1.28,2.0,0.5,3.25,2.0,3.5,3.75,3.75,7.5,6.75,8.25,7.25,6.0,8.25,-0.05,0.08,0.95,1097.89,0.6,-38.3,0.0,0.25,1.5,1.75,0.0,1.25,0.5,0.5,1.0,0.75,1.0,0.25,0.75,0.02,-0.3,0.64,20.96,-7.3,-2.8
1.3,2.0,0.5,3.25,2.25,4.25,3.5,3.5,7.25,6.75,7.75,6.25,5.25,7.5,-0.11,0.08,0.95,1100.36,0.7,-34.2,0.0,0.25,1.0,1.25,0.0,1.25,0.75,0.75,1.0,0.5,1.0,0.75,0.5,-0.17,-0.23,1.08,35.5,-5.9,-11.8
1.32,2.0,0.5,3.25,2.0,3.75,3.5,3.5,6.75,6.5,7.5,6.25,5.25,7.25,-0.11,0.08,0.95,1063.95,1.0,-34.9,0.0,0.25,1.25,1.5,0.0,1.5,0.75,0.75,1.0,0.75,1.0,0.75,0.5,-0.05,-0.17,1.14,60.13,-5.8,-8.5
1.34,1.75,0.25,3.0,2.5,3.0,3.75,3.0,6.5,6.5,6.75,6.25,4.0,6.75,-0.11,0.08,0.95,987.38,0.8,-34.0,0.0,0.25,1.5,1.5,0.0,1.25,0.5,0.75,1.0,0.5,1.0,0.25,0.5,0.02,-0.05,1.02,77.22,-7.6,-0.4
1.36,2.0,0.5,3.0,2.0,3.5,3.5,2.75,6.25,6.5,6.5,6.25,4.0,6.25,-0.05,0.08,0.95,901.45,1.2,-32.2,0.0,0.0,1.5,1.5,0.0,1.25,0.5,0.75,1.0,0.5,1.25,0.5,0.5,-0.17,0.14,1.08,96.25,-7.6,-8.3
1.38,1.75,0.5,3.25,2.0,3.0,3.25,3.0,6.25,6.5,6.5,6.0,3.75,6.0,-0.11,0.08,0.95,815.7,1.4,-32.5,0.0,0.25,1.25,1.5,0.0,1.75,0.5,0.75,1.0,0.5,1.0,0.75,0.5,-0.23,0.27,1.39,115.36,-5.3,-6.1
1.4,1.75,0.5,3.0,2.0,3.0,3.25,3.25,6.25,6.75,6.5,6.0,3.5,5.75,-0.11,0.08,0.95,750.4,1.4,-32.1,0.0,0.25,1.25,1.5,0.0,1.25,0.5,0.75,1.0,0.5,1.0,0.75,0.5,-0.23,0.39,1.58,125.94,-6.8,-8.2
1.42,2.0,0.5,3.0,2.25,3.0,4.0,3.75,6.0,6.75,6.0,5.75,3.0,5.75,-0.11,0.08,0.95,707.79,1.6,-28.3,0.0,0.0,1.25,1.25,0.0,1.25,0.5,0.75,1.0,0.25,0.75,0.75,0.5,-0.11,0.52,1.83,125.68,-6.9,-9.7
1.44,2.0,0.5,3.5,2.25,3.0,4.25,3.75,6.25,7.0,5.5,5.75,2.75,5.25,-0.11,0.08,0.95,679.42,2.1,-25.5,0.0,0.0,1.75,1.25,0.0,1.25,0.5,0.75,1.0,0.5,1.0,0.75,0.5,-0.17,0.7,2.27,126.51,-8.2,-9.3
1.46,2.0,0.5,3.75,2.25,5.25,4.25,3.5,6.5,7.25,5.25,5.75,2.5,5.0,-0.05,0.08,0.95,680.08,2.0,-20.3,0.0,0.25,1.25,1.25,0.0,1.25,0.5,0.75,1.0,0.5,1.0,0.75,0.5,-0.36,1.2,2.64,126.06,-6.5,-10.2
1.48,2.25,0.5,3.75,2.25,5.75,4.5,3.75,6.75,7.25,5.25,5.75,2.25,5.0,-0.11,0.08,0.95,700.72,2.0,-18.4,0.0,0.25,1.75,1.25,0.0,1.5,0.5,0.75,1.0,0.25,1.0,0.5,0.5,-1.55,3.7,4.14,128.71,-8.1,-0.4
1.5,2.0,0.25,4.5,2.25,6.0,5.25,4.25,6.75,7.75,5.25,5.5,2.25,4.75,-0.11,0.08,0.95,737.92,2.2,-16.5,0.0,0.25,1.5,1.25,0.0,1.25,0.5,0.75,1.0,0.5,1.0,0.75,0.5,-1.48,4.08,1.39,130.96,-7.4,-8.2
1.52,3.0,0.5,5.0,4.75,6.25,5.5,4.75,6.75,8.25,4.25,5.0,2.25,3.0,-0.11,0.08,0.95,793.25,4.6,-5.1,0.0,0.5,1.25,1.0,0.0,1.5,0.5,0.75,1.0,0.75,1.0,0.75,0.5,-3.42,6.95,-1.8,134.31,-5.0,-9.7
1.54,5.0,0.75,6.5,6.25,6.25,5.5,5.5,6.25,8.0,3.0,4.5,2.0,2.75,-0.11,0.02,0.95,867.49,7.5,5.4,0.0,0.25,1.75,1.25,0.0,1.5,0.5,1.0,0.5,0.75,0.5,1.0,1.25,-3.17,5.77,-2.73,138.98,-4.3,-13.5
1.56,6.5,1.0,7.75,6.5,7.25,5.75,5.75,5.75,7.25,3.0,3.5,1.5,2.0,-0.05,0.08,0.95,943.14,8.9,14.9,0.0,0.25,1.25,1.0,0.0,0.25,0.25,0.75,1.25,2.0,1.25,3.0,2.5,1.45,-0.73,2.83,163.03,-3.2,-55.0
1.58,7.75,1.75,9.0,8.0,8.0,5.5,5.75,4.75,6.0,2.75,3.5,0.75,1.5,-0.11,0.08,0.95,1022.44,10.8,24.7,0.0,0.25,1.25,0.25,0.0,2.0,0.25,2.25,2.0,4.75,1.0,5.25,4.75,-0.92,1.39,2.58,232.09,3.3,-63.6
1.6,9.25,2.0,11.0,10.0,8.75,4.75,6.25,3.0,4.0,2.75,2.5,0.75,1.25,-0.05,0.14,1.14,1095.27,13.5,34.8,0.0,0.5,1.25,0.5,0.0,2.75,0.75,3.75,0.0,5.25,4.5,5.5,5.5,0.14,0.64,1.2,310.37,3.7,-61.6
1.62,10.5,2.0,12.0,9.5,8.25,3.25,5.75,3.0,2.75,2.75,2.0,0.75,1.0,-0.23,0.2,1.45,1128.25,15.4,39.1,0.0,0.75,1.5,1.5,0.0,2.75,1.0,4.75,3.0,5.75,4.5,5.5,5.5,0.02,0.14,0.95,417.68,1.7,-53.5
1.64,11.0,2.0,12.0,7.0,8.0,1.75,4.75,2.5,1.75,1.0,2.5,0.5,1.0,-0.23,0.2,1.45,1082.81,17.8,44.3,0.0,0.5,1.25,1.5,0.0,2.75,1.0,5.0,3.5,6.0,5.25,6.5,6.0,0.14,0.2,0.95,529.77,1.7,-57.7
1.66,10.5,2.0,11.5,4.5,5.75,0.25,1.75,1.0,1.25,1.0,1.0,0.75,1.0,-0.11,0.33,1.77,931.56,21.0,50.2,0.0,0.0,1.5,1.75,1.25,2.75,1.5,5.25,4.5,6.5,6.75,6.25,6.25,0.08,0.14,0.95,637.46,1.1,-54.3
1.68,10.0,2.0,11.5,3.75,4.75,1.0,2.5,1.75,1.5,2.75,2.0,0.75,1.0,-0.23,0.45,2.45,806.8,18.6,39.3,0.25,0.5,2.0,2.5,2.25,3.25,2.0,6.0,5.25,6.5,6.75,6.5,6.25,0.08,0.14,0.95,736.22,0.1,-45.0
1.7,9.0,1.75,9.75,2.25,3.0,1.25,2.5,1.25,1.5,2.75,2.25,0.75,1.0,-0.8,0.64,2.2,663.59,18.7,35.2,0.0,0.75,1.75,2.75,1.75,3.75,2.0,6.0,5.25,6.5,6.75,6.25,6.25,0.08,0.14,0.95,806.89,0.6,-45.0
1.72,7.5,0.5,8.5,2.0,3.0,1.5,2.5,1.75,1.25,2.5,2.0,0.75,1.0,-0.73,0.39,2.39,549.39,17.1,30.1,0.25,0.75,2.75,2.75,3.5,4.25,2.5,6.75,5.5,6.5,6.75,6.0,6.0,0.08,0.14,0.95,871.15,0.0,-36.8
1.74,6.0,0.0,6.5,0.0,2.5,0.25,1.25,1.75,1.0,0.5,1.25,0.5,0.5,-0.61,0.2,2.58,396.4,20.5,36.7,1.25,0.75,2.0,2.75,3.5,5.0,2.5,6.75,5.5,6.0,6.75,5.0,5.0,0.08,0.14,0.95,887.36,0.0,-31.6
1.76,3.25,0.0,4.0,0.0,3.0,0.0,1.25,1.5,0.75,0.5,1.0,0.5,1.0,-0.67,-1.11,1.64,283.08,15.1,23.4,1.0,1.0,2.0,2.75,3.5,5.0,2.75,6.75,5.5,5.0,5.75,4.0,4.0,0.08,0.14,0.95,854.32,-0.1,-26.3
1.78,2.0,0.0,3.0,0.0,2.5,0.25,1.5,1.0,1.25,2.0,0.75,0.75,0.25,-0.98,-0.92,0.2,190.86,11.4,10.2,0.75,1.0,3.5,2.75,3.75,5.0,2.5,6.75,5.5,5.0,5.25,3.5,3.25,0.08,0.14,0.95,803.68,-1.1,-21.0
1.8,2.5,0.5,3.0,2.25,2.5,0.5,1.25,1.25,1.25,1.75,1.5,0.75,1.0,-1.3,-1.48,1.58,152.16,11.1,13.1,1.0,1.0,3.5,2.75,3.75,5.0,3.0,6.75,5.5,4.0,5.25,3.0,2.75,0.08,0.14,0.95,745.14,-1.9,-17.0
1.82,1.75,0.5,2.5,1.75,1.25,1.5,1.25,1.0,1.25,1.75,1.25,0.5,1.0,-0.55,-0.92,0.95,130.55,8.9,8.2,1.25,1.25,3.25,2.75,3.75,5.0,3.0,6.75,5.5,3.5,4.5,2.0,2.25,0.08,0.14,0.95,684.24,-2.0,-11.3
1.84,1.25,0.5,3.0,2.0,2.5,1.25,1.75,1.0,1.25,2.0,1.25,0.75,1.0,-0.36,-0.73,0.58,146.81,8.6,8.9,1.25,1.0,3.5,2.75,4.25,5.0,3.0,6.5,5.5,3.5,4.5,2.0,1.75,0.08,0.14,0.95,641.61,-2.4,-9.3
1.86,1.25,0.5,2.5,1.75,2.5,1.75,1.25,1.0,1.25,1.5,1.5,0.75,1.0,-0.36,-0.61,0.77,163.17,7.2,8.3,1.25,1.25,4.0,3.75,5.25,5.0,3.0,6.25,5.75,3.0,3.75,2.0,1.25,0.08,0.2,0.95,623.95,-3.5,-1.6
1.88,1.25,0.5,2.5,1.25,2.5,1.25,1.25,1.0,1.0,2.0,2.0,0.75,1.0,-0.3,-0.48,0.89,182.6,7.1,2.2,2.0,1.5,4.25,5.0,5.75,5.75,3.0,6.0,6.0,3.0,3.25,1.25,1.25,0.08,0.2,0.89,635.06,-4.1,6.0
1.9,1.25,0.5,2.75,2.0,2.5,1.0,1.25,1.0,1.0,1.5,1.5,0.75,1.0,-0.23,-0.36,0.95,196.33,9.0,9.4,2.5,1.75,4.75,5.25,6.25,5.75,3.25,6.0,6.0,2.25,3.25,1.0,1.25,0.08,0.14,0.95,660.79,-5.1,10.7
1.92,1.25,0.5,2.0,1.25,2.5,1.0,1.25,1.0,1.0,1.5,1.25,0.5,1.0,-0.23,-0.17,0.95,197.85,7.1,7.6,3.75,1.75,5.25,7.0,6.75,6.25,3.75,6.0,6.0,2.0,3.25,0.75,1.25,0.08,0.14,0.95,720.38,-6.4,16.5
1.94,1.25,0.5,2.25,1.75,2.5,1.0,1.25,1.0,1.0,1.5,1.25,0.75,1.0,-0.3,-0.05,1.08,209.54,7.9,8.3,5.25,1.75,6.0,8.5,7.75,6.25,4.25,5.75,5.5,2.0,3.25,1.0,1.0,0.08,0.2,0.95,806.95,-7.9,21.8
1.96,1.25,0.25,2.25,0.25,2.5,0.75,1.25,1.0,1.0,1.25,1.25,0.75,1.0,-0.36,0.08,1.27,208.42,7.7,2.3,6.5,2.25,6.75,10.5,8.5,6.25,4.5,5.25,5.25,1.75,2.75,0.75,0.25,0.08,0.2,0.95,908.75,-9.6,30.3
1.98,1.25,0.0,1.75,0.5,3.5,0.75,1.0,1.0,1.0,1.5,1.25,0.75,1.0,-0.42,0.2,1.52,214.39,5.3,2.1,7.75,2.5,7.5,11.5,9.0,7.0,4.75,5.0,4.5,1.75,2.5,0.75,1.25,0.08,0.2,0.95,1030.0,-9.8,32.1
2.0,1.25,0.5,1.75,1.25,2.5,0.5,1.25,1.0,1.0,1.0,1.25,0.75,1.0,-0.48,0.33,1.77,210.37,8.3,6.7,8.5,3.25,8.25,12.5,10.5,7.0,4.75,3.75,3.25,1.75,2.5,0.5,1.25,0.08,0.2,0.95,1146.84,-10.6,38.0
2.02,1.25,0.5,1.75,1.75,2.5,0.75,1.25,1.0,1.0,1.25,1.25,0.75,1.0,-0.67,0.52,2.2,211.92,7.7,7.5,9.25,3.5,9.0,14.0,11.5,7.0,4.75,3.25,2.5,1.75,2.0,0.75,0.5,0.08,0.2,1.02,1250.62,-11.6,43.1
2.04,1.25,0.5,1.5,1.25,2.5,0.0,1.25,0.0,1.0,0.5,1.25,0.75,1.0,-0.86,0.89,2.39,197.62,11.8,11.5,9.75,4.0,9.5,15.0,12.0,7.0,4.25,2.25,1.75,1.0,1.5,0.5,0.5,0.08,0.2,1.08,1316.36,-12.5,49.2
2.06,1.25,0.5,1.75,1.0,2.5,1.0,1.5,1.0,1.0,0.5,1.5,0.75,1.0,-1.23,1.64,2.77,200.0,8.2,8.3,11.0,3.25,10.5,0.0,12.5,6.75,2.25,2.25,1.25,0.5,1.25,0.5,0.25,0.08,0.27,1.14,1219.78,-12.2,51.0
2.08,1.25,0.5,1.75,1.25,2.5,1.25,1.25,1.0,1.0,0.5,1.25,0.75,1.0,-0.8,1.33,0.2,199.23,7.6,10.8,11.5,3.0,11.0,14.0,12.0,5.5,2.75,1.75,0.0,0.5,1.25,0.5,0.5,0.08,0.33,1.14,1209.35,-14.7,54.8
2.1,0.5,0.0,1.75,0.0,2.5,0.0,1.25,1.0,0.75,1.5,1.25,0.5,1.0,-0.86,3.52,1.2,188.95,5.7,-9.6,12.5,4.25,11.0,12.0,10.0,5.0,1.25,1.25,0.75,0.5,1.0,0.5,0.75,0.08,0.33,1.2,1159.0,-15.7,56.2
2.12,0.75,0.0,0.25,0.0,1.25,1.75,0.5,0.0,0.5,0.5,0.0,6.0,0.0,1.58,5.64,-0.17,176.1,4.5,-43.3,12.5,4.25,11.0,10.5,8.25,2.75,0.5,0.75,0.5,0.25,1.0,0.5,0.5,0.08,0.39,1.27,1094.54,-18.4,60.0
2.14,1.25,0.5,1.25,0.0,2.25,0.0,0.75,1.0,0.75,0.5,1.5,0.25,1.0,3.33,6.64,-1.67,163.4,8.0,3.4,12.5,4.0,11.0,8.75,6.25,3.25,3.0,0.75,0.0,0.5,0.0,0.5,0.5,0.14,0.52,1.39,988.22,-19.5,62.1
2.16,0.5,0.0,0.25,0.0,2.25,0.0,0.25,1.0,1.0,1.25,0.75,0.5,1.0,-0.42,-0.17,3.27,144.98,-0.5,-21.2,11.5,3.5,9.5,7.25,1.75,2.75,3.5,0.75,0.75,0.5,0.0,0.5,0.5,0.39,0.89,1.95,831.75,-21.9,60.4
2.18,0.75,0.0,0.25,1.0,0.0,1.75,0.25,1.0,0.75,1.0,0.5,0.5,1.0,0.02,0.7,2.02,127.62,-1.1,-16.7,9.25,3.0,8.75,5.75,0.0,2.75,4.0,0.5,0.25,0.25,1.25,0.25,0.25,0.83,1.52,2.77,649.29,-23.3,58.7
2.2,0.25,0.0,0.75,1.75,2.5,1.25,0.5,2.25,1.75,4.25,2.0,2.5,2.5,-1.11,0.39,1.83,181.65,-1.5,-35.7,7.75,1.75,7.25,4.5,0.0,2.75,3.0,0.5,0.75,0.25,1.0,0.5,0.75,0.7,1.39,2.83,482.29,-21.7,50.5
2.22,1.0,0.0,0.0,0.0,2.25,1.75,1.25,4.75,3.5,5.25,3.5,3.25,4.25,0.27,0.58,1.14,264.47,-3.6,-49.6,5.25,1.0,4.75,2.75,0.0,2.75,1.0,0.75,0.75,0.25,1.0,0.5,0.75,0.52,0.39,3.2,341.55,-18.0,41.4
2.24,1.25,0.0,0.0,1.75,0.0,3.25,1.25,5.0,4.75,6.25,4.5,5.25,5.25,-0.11,0.14,1.02,379.08,-2.2,-53.2,1.75,0.5,2.75,2.75,0.0,1.25,0.75,0.5,0.75,0.25,0.75,0.5,0.5,0.58,-0.86,1.89,227.23,-16.4,29.1
2.26,1.75,0.5,3.25,2.0,2.5,3.25,3.25,5.25,5.75,6.5,6.0,5.25,6.5,-0.11,0.08,0.95,555.36,1.8,-36.2,0.75,0.75,1.25,2.75,0.0,1.25,0.75,0.75,0.75,0.25,1.0,0.5,0.25,1.2,-0.67,2.33,127.51,-11.4,19.5
2.28,1.75,0.5,3.0,2.0,3.0,3.5,3.75,5.75,6.25,7.25,6.5,5.5,6.75,-0.05,0.08,0.95,729.1,1.3,-36.8,0.5,0.5,1.25,2.75,0.0,1.25,0.75,0.75,0.75,0.25,1.0,0.5,0.5,0.95,-1.3,1.7,57.2,-10.2,12.6
2.3,1.5,0.0,3.0,2.0,3.5,3.25,3.75,6.5,6.5,7.75,7.0,6.0,7.5,-0.05,0.08,0.95,873.33,0.8,-40.3,0.75,0.5,1.25,2.0,0.0,1.5,1.0,0.75,0.75,0.5,1.0,0.5,0.5,0.58,-0.86,1.2,25.74,-9.1,9.6
2.32,1.75,0.5,3.75,2.0,3.5,3.25,4.0,6.75,6.75,7.75,7.25,5.5,7.5,-0.05,0.08,0.95,976.82,1.5,-36.6,0.0,0.75,1.25,1.75,0.0,0.0,0.75,0.75,0.75,0.0,1.0,0.5,0.5,0.27,-0.61,0.45,0.0,-13.7,3.7
2.34,1.75,0.5,3.75,2.0,3.0,3.75,4.25,6.75,6.75,7.75,7.0,5.25,7.25,-0.05,0.08,0.95,1035.92,1.4,-35.9,0.0,0.75,1.25,2.0,0.0,1.0,0.75,0.75,1.0,0.25,1.0,0.5,0.5,-0.05,-0.36,0.33,1.99,-9.3,5.1
2.36,1.75,0.5,3.5,2.0,3.0,3.75,4.25,6.75,7.0,7.5,6.75,5.25,6.75,-0.11,0.08,0.95,1043.79,1.5,-35.4,0.0,0.75,1.25,1.75,0.0,1.0,0.75,0.5,0.75,0.0,1.0,0.5,0.5,-0.3,-0.17,0.52,14.54,-10.5,8.4
2.38,1.5,0.5,3.75,2.0,4.25,3.5,4.25,6.75,6.75,7.0,6.5,4.0,6.75,-0.05,0.08,0.95,1018.92,1.4,-31.3,0.0,0.75,1.0,1.5,0.0,1.25,0.75,0.5,0.75,0.0,1.0,0.5,0.5,-0.3,-0.3,0.77,32.14,-8.5,5.9
2.4,1.75,0.5,3.75,2.0,4.25,4.0,4.25,6.5,6.75,6.5,6.25,3.75,6.0,-0.05,0.08,0.95,970.23,1.7,-28.0,0.0,0.5,1.25,1.5,0.0,1.25,0.75,0.5,0.75,0.5,1.0,0.5,0.5,-0.11,-0.3,0.95,55.47,-7.8,0.0
2.42,1.75,0.5,3.75,2.25,4.25,4.0,4.25,6.5,7.0,6.5,6.25,3.75,5.25,-0.05,0.08,0.95,911.15,2.0,-26.5,0.0,0.5,1.25,1.5,0.0,1.25,0.75,0.75,0.75,0.25,1.0,0.5,0.5,-0.11,-0.23,1.02,77.82,-7.8,1.1
2.44,2.0,0.5,3.75,2.25,4.25,4.0,4.25,6.25,7.0,5.75,6.0,3.0,5.75,-0.05,0.08,0.95,845.02,2.2,-24.6,0.0,0.5,1.0,1.5,0.0,1.25,0.5,0.5,0.5,0.25,1.0,0.5,0.25,-0.17,-0.05,1.08,90.8,-7.8,5.1
2.46,2.0,0.5,4.0,2.25,4.75,4.0,4.25,6.25,7.0,5.5,6.25,2.75,5.25,-0.05,0.08,0.95,800.91,2.6,-22.1,0.0,0.25,1.25,1.25,0.0,1.5,0.5,0.75,0.75,0.5,1.0,0.5,0.25,-0.11,0.08,1.33,105.51,-6.1,-2.0
2.48,2.0,0.5,4.25,2.25,4.75,4.25,4.25,6.5,7.25,5.25,6.0,2.5,5.0,-0.05,0.08,0.95,769.6,2.7,-20.3,0.0,0.25,1.25,1.25,0.0,1.5,0.5,0.5,0.5,0.25,0.75,0.5,0.25,-0.05,0.27,1.64,110.1,-7.3,5.4
2.5,2.25,0.5,4.5,2.25,5.25,4.25,4.5,6.5,7.25,5.25,5.75,2.5,4.75,-0.05,0.08,0.95,756.07,3.1,-17.8,0.0,0.25,0.5,1.25,0.0,1.25,0.5,0.75,0.75,0.25,1.0,0.75,0.25,-0.05,0.39,2.2,108.15,-4.4,-11.1
2.52,2.25,0.5,5.0,2.5,6.0,4.5,4.5,6.5,7.5,5.0,5.5,2.25,4.25,-0.05,0.08,0.95,762.69,3.5,-13.6,0.0,0.25,1.0,1.25,0.0,1.25,0.5,0.75,0.75,0.25,1.0,0.5,0.25,-0.05,0.64,2.45,106.77,-6.6,-2.8
2.54,2.5,0.5,4.75,3.25,6.25,4.75,4.5,6.5,7.75,5.0,5.5,2.25,3.75,-0.05,0.08,0.95,781.39,3.7,-11.2,0.0,0.25,0.75,1.25,0.0,1.25,0.5,0.75,0.75,0.25,1.0,0.5,0.25,0.02,1.14,2.89,106.41,-5.5,-5.1
2.56,2.75,0.5,5.0,4.5,6.25,5.25,4.75,6.5,7.75,4.5,5.5,2.25,3.0,-0.05,0.08,0.95,811.5,4.5,-6.4,0.0,0.25,0.75,1.0,0.0,1.25,0.5,0.5,0.75,0.25,1.0,0.5,0.25,-0.05,2.14,3.27,104.39,-5.9,-6.3
2.58,3.0,0.5,5.0,4.75,6.25,5.25,4.75,6.5,8.0,4.25,5.0,2.25,3.0,-0.05,0.08,0.95,839.15,4.8,-4.9,0.0,0.25,1.75,1.25,0.0,1.25,0.25,0.5,0.75,0.0,1.0,0.5,0.5,-0.98,4.02,0.52,106.96,-10.1,2.8
2.6,3.0,0.5,5.75,4.75,6.25,5.75,5.0,6.75,8.0,3.25,4.75,2.0,3.0,-0.05,0.02,0.95,862.68,5.3,-1.8,0.0,0.25,1.25,1.25,0.0,1.25,0.25,0.75,0.75,0.25,0.75,0.5,0.5,0.08,5.89,0.14,109.98,-6.5,-2.5
2.62,4.5,1.0,6.25,6.5,7.25,6.0,5.25,6.25,7.75,3.0,4.5,1.75,2.25,-0.05,0.08,0.95,909.1,6.9,7.8,0.0,0.25,1.0,1.0,0.0,1.25,0.25,0.75,0.75,0.5,0.75,0.5,0.5,-2.86,6.27,-2.17,111.06,-4.2,-9.3
2.64,5.75,1.25,7.5,8.0,8.0,6.75,5.75,5.75,7.25,3.0,3.5,1.5,2.0,-0.05,0.08,0.95,980.94,8.1,16.0,0.0,0.25,1.25,1.0,0.25,1.5,0.25,0.75,0.75,0.75,1.0,1.25,1.25,-0.8,0.58,1.89,122.96,-2.9,-23.0
2.66,6.75,1.75,8.5,10.0,8.75,6.75,6.0,5.25,6.0,3.0,3.25,0.75,1.25,-0.11,0.08,0.95,1066.96,9.5,25.0,0.0,0.25,0.75,0.5,0.0,1.75,0.25,0.75,0.75,0.5,0.0,2.25,1.5,-0.3,0.27,1.7,130.47,0.5,-38.2
2.68,8.0,2.0,9.75,12.5,9.5,6.75,6.0,4.5,4.5,2.75,2.5,0.75,1.0,-0.11,0.08,1.08,1163.8,11.0,32.8,0.0,0.25,0.75,0.5,0.0,2.25,0.0,1.0,1.25,1.75,1.0,4.5,3.0,-0.67,0.83,0.58,174.06,1.7,-58.5
2.7,9.0,0.5,10.5,14.0,9.75,6.0,6.0,3.0,3.25,2.75,2.25,0.75,1.0,-0.05,0.08,1.2,1222.31,12.7,36.5,0.0,0.75,0.75,0.75,0.5,2.75,0.0,3.0,2.25,5.5,3.25,6.25,5.25,0.14,0.83,2.39,269.73,3.3,-59.4
2.72,10.0,2.0,11.0,12.5,11.0,4.25,5.75,3.0,2.5,2.75,2.0,0.75,1.0,-0.17,0.2,1.39,1257.09,13.6,40.1,0.0,0.75,0.75,1.25,0.0,2.75,0.0,5.0,3.25,6.0,4.75,7.0,6.75,0.02,0.14,1.08,395.21,3.1,-61.7
2.74,11.0,2.0,11.0,12.0,9.5,3.25,3.75,2.5,1.75,2.75,2.25,0.75,1.0,-0.17,0.27,1.39,1230.13,14.8,41.8,0.0,0.75,1.25,1.25,0.5,2.75,1.0,5.25,4.25,6.5,6.5,7.25,6.75,0.14,0.2,0.95,560.04,1.5,-58.1
2.76,11.0,2.0,12.0,7.75,8.0,2.5,1.25,2.75,1.25,2.75,2.0,0.75,1.0,-0.17,0.33,1.58,1134.85,15.7,41.8,0.0,0.5,1.75,1.5,1.5,3.5,1.5,5.75,5.0,6.5,6.75,7.75,6.75,0.08,0.2,0.95,709.72,1.0,-52.7
2.78,11.0,1.75,11.0,5.5,6.25,1.75,1.75,1.75,1.25,2.75,2.0,0.75,1.0,-0.17,0.45,2.14,985.43,17.3,41.5,0.0,0.75,1.75,1.75,2.25,4.0,1.5,6.0,5.25,6.75,7.5,7.5,6.75,0.08,0.14,0.95,827.1,1.0,-48.7
2.8,9.25,0.75,9.25,4.75,6.0,1.75,1.75,2.0,1.25,2.75,1.75,0.75,1.0,-0.67,0.77,2.83,821.06,15.8,37.0,0.25,0.75,1.75,2.0,2.75,4.0,2.0,6.0,5.5,6.5,7.5,7.0,6.75,0.08,0.14,0.95,896.79,0.6,-45.3
2.82,7.75,0.5,8.0,2.75,5.0,1.75,1.75,1.5,1.0,2.75,2.0,0.75,1.0,-0.73,0.52,2.77,652.97,15.2,32.4,0.5,1.0,2.5,2.0,3.5,4.25,2.0,6.5,5.5,6.5,7.5,6.75,6.25,0.08,0.14,0.95,942.37,0.0,-39.5
2.84,5.5,0.0,5.0,0.0,2.5,0.5,0.75,1.0,0.75,0.5,0.75,0.5,0.5,-0.42,0.27,2.89,426.85,19.8,40.3,0.75,1.0,1.25,2.5,3.25,5.0,2.0,6.5,5.5,6.0,6.75,6.25,5.75,0.08,0.14,0.95,944.54,0.9,-37.7
2.86,2.25,0.0,2.25,0.75,2.5,0.0,0.5,1.0,1.0,0.5,1.0,0.0,0.5,-0.67,-1.23,2.33,264.61,13.3,25.1,1.25,1.0,1.75,2.75,3.25,4.75,2.25,6.5,5.5,5.0,6.75,5.25,4.75,0.08,0.14,0.95,907.57,-0.4,-31.4
2.88,1.25,0.0,3.0,0.0,3.0,0.0,1.5,1.0,0.75,0.5,0.5,0.5,0.25,-1.05,-0.61,1.7,142.61,13.5,23.7,0.75,1.0,2.25,2.75,3.5,5.0,2.5,6.0,5.5,4.5,5.5,4.25,4.0,0.08,0.14,0.95,831.77,-0.5,-26.0
2.9,1.25,0.5,1.75,1.75,3.0,1.75,1.5,1.0,1.25,0.5,1.25,0.5,1.0,-0.86,-1.61,1.52,85.16,6.9,15.6,1.0,1.0,3.25,2.75,3.75,5.0,2.75,6.0,5.5,3.25,5.25,3.25,3.0,0.08,0.14,0.95,754.2,-2.2,-17.2
2.92,1.25,0.0,0.5,0.0,1.75,1.0,0.5,1.0,1.0,0.5,0.5,0.0,0.25,-0.61,-0.98,0.7,24.89,3.5,13.9,1.0,1.0,3.5,2.75,3.75,5.0,2.75,6.0,5.5,3.5,4.75,2.5,2.25,0.08,0.14,0.95,674.3,-2.4,-13.2
2.94,1.75,0.5,0.5,2.0,1.75,1.0,1.0,0.5,0.75,0.0,0.0,0.25,0.25,-0.55,-0.8,0.33,16.15,10.6,41.5,1.0,1.0,3.75,2.75,3.75,5.0,2.75,6.0,5.5,3.0,4.5,2.25,1.75,0.08,0.14,0.95,610.8,-2.9,-9.9
2.96,1.0,0.0,0.25,0.0,2.5,0.0,0.75,0.75,0.75,0.5,0.25,0.5,0.25,-0.42,-0.61,0.64,0.0,4.9,10.1,1.25,1.0,3.25,2.75,3.75,5.0,3.0,6.0,5.5,2.25,4.25,1.75,1.5,0.08,0.14,0.95,564.04,-3.1,-6.5
2.98,0.75,0.0,0.25,0.0,2.5,0.0,0.5,1.0,0.75,0.5,0.25,0.5,0.25,-0.36,-0.55,0.7,0.0,2.7,5.3,1.25,1.25,3.75,2.75,4.5,5.25,3.0,6.0,5.5,4.0,3.5,2.0,1.5,0.08,0.14,0.95,553.03,-2.4,-5.9
3.0,0.75,0.0,0.25,0.0,1.75,0.0,0.5,1.0,0.75,0.5,0.5,0.25,0.0,-0.42,-0.42,0.89,0.0,4.3,4.8,1.25,1.25,4.0,4.0,5.75,5.75,3.0,6.25,5.5,2.75,3.5,1.75,1.25,0.08,0.14,0.95,566.91,-3.0,1.5
3.02,0.75,0.0,0.25,0.0,2.5,0.0,0.5,0.75,0.75,0.5,0.0,0.0,0.25,-0.42,-0.23,0.95,12.09,2.7,19.2,1.75,1.75,4.0,5.0,6.25,6.0,3.0,6.5,6.0,2.75,3.5,1.5,1.25,0.08,0.14,0.95,613.33,-3.5,5.4
3.04,0.75,0.0,0.25,0.0,2.25,0.0,0.5,0.75,0.75,0.5,0.0,0.25,0.25,-0.36,-0.05,1.08,30.5,3.3,12.5,2.5,1.75,4.25,5.25,6.25,6.25,3.0,6.5,6.0,2.0,3.25,1.25,1.25,0.08,0.14,0.95,661.53,-4.3,9.7
3.06,1.0,0.0,0.25,0.0,2.25,0.0,0.5,0.75,0.75,0.5,0.25,0.0,0.0,-0.36,0.02,1.27,53.14,5.2,22.2,3.0,1.75,4.5,7.0,7.75,6.5,3.75,6.25,6.0,2.0,3.25,0.75,1.25,0.08,0.14,0.95,733.06,-5.1,15.4
3.08,0.5,0.0,0.25,0.0,2.5,0.0,0.5,1.0,0.5,0.25,0.0,0.0,0.25,-0.42,0.14,1.58,72.79,1.0,20.1,5.0,2.0,6.0,8.75,8.0,7.0,4.25,6.0,5.5,2.0,3.25,1.0,1.25,0.08,0.14,0.95,835.8,-7.2,21.4
3.1,0.75,0.0,0.25,0.0,2.5,0.0,0.5,0.5,0.5,0.5,0.5,0.0,0.25,-0.36,0.33,1.95,79.82,3.7,16.5,6.0,2.25,7.25,10.5,9.0,7.0,4.5,6.0,5.25,1.75,2.5,0.75,1.25,0.08,0.14,0.95,960.76,-8.4,27.6
3.12,0.5,0.0,0.25,0.0,2.5,0.0,0.5,0.75,0.75,0.25,0.0,0.0,0.0,-0.48,0.52,2.39,78.58,3.0,26.1,7.25,2.5,8.0,12.0,10.5,7.5,4.75,5.0,4.0,1.75,2.25,0.75,1.25,0.08,0.14,0.95,1096.02,-9.3,33.5
3.14,0.5,0.0,0.25,0.0,2.5,0.0,0.5,0.5,0.75,0.5,0.25,0.25,0.25,-0.73,0.95,2.7,82.03,2.9,9.9,7.75,3.0,8.75,14.0,11.5,7.75,5.0,4.0,2.75,1.5,2.25,1.0,0.5,0.08,0.2,0.95,1220.73,-10.4,39.7
3.16,0.5,0.0,0.25,0.0,0.0,0.0,0.5,0.75,0.75,0.5,0.0,0.25,0.25,0.14,4.33,3.2,74.56,6.1,-24.0,8.5,2.75,9.5,15.5,13.5,7.5,4.75,3.25,2.0,1.25,1.75,0.5,0.75,0.02,0.2,1.14,1321.93,-11.0,44.5
3.18,0.5,0.0,0.25,0.0,0.0,0.0,0.5,0.75,0.75,0.5,0.0,0.25,0.25,-0.8,3.89,2.7,61.72,6.1,-24.0,9.25,2.75,10.5,16.0,13.5,7.5,4.0,2.25,1.25,0.5,1.25,0.5,0.5,0.08,0.2,1.2,1365.47,-12.4,50.2
3.2,0.5,0.0,0.25,0.0,0.0,0.0,0.5,0.75,0.75,0.5,0.0,0.25,0.0,-0.48,4.39,1.95,50.41,7.7,-17.1,10.5,3.0,11.0,15.5,13.5,4.0,3.0,2.0,1.0,0.25,1.25,0.0,0.75,0.14,0.27,1.27,1366.33,-14.7,53.9
3.22,0.5,0.0,0.25,0.0,2.25,1.75,0.5,0.0,1.0,0.5,0.0,0.5,0.0,2.58,5.89,-0.73,66.84,-0.5,18.4,11.0,2.5,11.0,14.0,11.5,5.75,2.0,0.75,1.0,0.25,1.0,0.5,0.75,0.14,0.33,1.33,1322.56,-14.9,54.5
3.24,0.25,0.0,0.25,0.0,0.75,0.0,0.25,1.0,1.0,0.5,0.5,0.25,0.5,4.08,6.02,-1.67,71.63,1.3,-28.1,11.5,2.5,11.0,10.5,9.0,3.0,0.75,0.75,0.75,0.0,0.25,0.5,0.5,0.08,0.45,1.45,1174.91,-18.0,59.8
3.26,1.25,0.0,0.25,1.0,2.25,1.75,0.5,1.0,1.0,2.5,2.0,1.25,1.5,-0.48,-0.55,3.27,132.12,-0.1,-20.1,10.5,3.0,9.75,8.75,6.25,4.0,3.25,0.75,0.25,0.25,1.0,0.25,0.5,0.39,0.64,1.77,1001.99,-17.9,57.7
3.28,1.25,0.5,0.75,1.0,2.5,1.75,0.5,1.0,1.25,2.75,2.0,1.75,3.0,0.83,0.95,0.45,193.37,0.2,-23.9,8.75,2.5,8.75,7.0,2.75,2.75,4.0,0.75,0.5,0.25,1.0,0.75,0.75,0.58,1.2,2.39,795.27,-20.0,52.4
3.3,1.25,0.0,0.5,0.0,2.5,0.5,0.75,1.0,1.5,3.5,1.0,1.25,4.25,0.08,0.14,1.95,239.26,-2.2,-40.2,7.5,1.75,7.25,5.0,0.0,2.75,2.75,0.75,0.25,0.25,1.0,0.5,0.5,0.52,1.45,2.89,580.12,-21.6,52.5
3.32,1.25,0.5,0.5,1.5,0.75,2.25,0.5,4.0,2.5,5.25,1.75,4.0,5.75,-0.48,0.89,2.83,311.55,-3.1,-47.8,5.0,1.0,5.25,2.75,0.0,2.5,1.25,0.75,0.75,0.25,0.0,0.5,0.5,0.52,0.77,3.33,376.88,-19.7,48.9
3.34,1.25,0.5,0.0,2.0,0.0,3.25,1.25,5.75,4.25,0.0,2.75,5.25,6.75,0.02,0.08,1.08,387.52,-1.0,-47.0,1.25,0.0,2.75,2.75,0.0,2.25,0.75,0.75,0.75,0.25,0.75,0.5,0.5,0.27,-0.42,2.02,236.01,-12.4,22.8
3.36,1.75,0.5,2.25,2.25,3.5,3.25,1.5,6.75,5.0,7.75,6.0,6.0,7.0,-0.05,0.14,0.95,577.29,-0.4,-39.4,0.75,0.25,2.5,2.75,0.0,1.5,0.0,0.5,1.0,0.0,0.75,0.25,0.5,0.33,-0.05,1.83,119.01,-13.8,24.9
3.38,1.25,0.5,3.0,2.0,4.25,3.75,3.5,7.25,5.5,8.5,6.5,6.25,7.5,-0.05,0.14,0.95,774.03,-0.2,-38.2,0.5,0.5,1.25,2.75,0.0,1.75,0.75,0.75,0.75,0.25,0.0,0.5,0.25,0.7,-0.86,2.14,30.6,-9.2,25.7
3.4,1.5,0.5,3.5,2.0,4.75,4.0,3.75,7.5,5.75,8.75,7.0,6.5,8.0,-0.11,0.08,0.95,979.81,0.1,-36.9,0.0,0.75,1.5,2.0,0.0,1.5,0.75,0.75,0.75,0.25,0.75,0.5,0.5,0.58,-1.17,1.2,0.0,-8.4,11.1
3.42,1.75,0.5,3.5,2.5,5.5,3.25,3.75,7.75,6.0,9.0,7.25,6.25,8.25,-0.05,0.08,0.95,1110.03,0.4,-35.5,0.0,0.5,1.5,2.25,0.0,1.25,0.75,0.75,1.0,0.0,1.0,0.5,0.25,0.52,-0.61,0.52,0.0,-10.7,11.5
3.44,1.25,0.5,3.0,2.25,5.75,4.0,3.75,7.75,5.75,9.0,7.0,6.0,8.25,-0.11,0.08,0.95,1177.39,-0.5,-36.1,0.0,0.75,1.25,2.0,0.0,1.5,0.75,0.75,0.75,0.0,1.0,0.5,0.25,0.27,-0.36,0.39,0.0,-8.9,13.2
3.46,1.5,0.5,3.0,2.0,5.75,4.25,3.5,8.0,5.5,8.75,6.75,5.75,7.75,-0.11,0.08,0.95,1176.74,-0.6,-34.6,0.0,0.5,1.5,1.5,0.0,1.75,0.75,0.75,0.75,0.5,1.0,0.5,0.25,0.14,-0.23,0.39,8.34,-7.1,5.4
3.48,1.5,0.5,3.0,2.0,5.75,4.25,3.0,7.75,5.5,8.0,6.25,5.25,7.5,-0.11,0.08,0.95,1134.23,-0.6,-33.0,0.0,0.25,1.25,1.5,0.0,1.5,0.75,0.75,1.0,0.25,1.0,0.5,0.25,-0.05,-0.05,0.58,31.8,-7.6,1.2
3.5,1.5,0.5,3.0,2.0,5.25,4.25,2.5,7.75,5.25,7.75,6.0,5.0,7.0,-0.11,0.08,0.95,1061.92,-0.7,-32.7,0.0,0.25,1.0,1.5,0.0,1.25,0.5,0.75,0.75,0.0,1.0,0.75,0.25,-0.05,-0.05,0.7,48.73,-7.8,-1.9
3.52,1.25,0.5,3.0,2.25,5.75,4.5,2.5,7.5,5.25,7.75,5.5,4.0,6.75,-0.11,0.08,0.95,986.94,-1.0,-29.5,0.0,0.5,1.25,1.5,0.0,1.25,0.25,0.75,0.75,0.25,1.0,0.5,0.5,0.02,-0.05,0.83,71.96,-7.1,0.3
3.54,1.5,0.5,3.0,2.25,5.75,4.5,2.75,7.5,5.25,7.25,5.5,3.75,6.0,-0.11,0.08,0.95,912.87,-0.5,-27.0,0.0,0.5,1.0,1.5,0.0,1.5,0.25,0.75,0.75,0.25,1.0,0.5,0.5,0.08,0.08,1.02,92.43,-5.3,-0.5
3.56,1.25,0.25,3.0,1.75,6.0,4.75,2.75,7.5,5.25,6.75,5.25,3.5,5.75,-0.11,0.08,0.95,833.02,-1.0,-26.8,0.0,0.25,1.0,1.25,0.25,1.25,0.75,0.75,0.75,0.0,1.0,0.5,0.5,0.08,0.2,1.33,106.04,-6.7,-1.5
3.58,2.0,0.25,3.0,2.75,5.5,5.25,3.0,7.5,5.25,6.5,5.0,3.0,5.75,-0.11,0.08,0.95,785.15,-0.3,-22.5,0.0,0.25,1.25,1.25,0.0,1.25,0.25,0.75,0.75,0.25,1.0,0.5,0.5,0.14,0.39,1.45,112.96,-6.6,-4.7
3.6,1.75,0.5,3.0,2.5,6.25,5.5,3.5,7.75,5.75,6.5,5.25,2.75,5.5,-0.11,0.08,0.95,756.25,-0.4,-20.8,0.0,0.25,0.5,1.25,0.0,1.25,0.25,0.5,0.75,0.25,1.0,0.5,0.5,0.14,0.58,1.58,108.74,-3.9,-10.9
3.62,1.75,0.5,3.0,2.25,6.25,5.5,3.75,7.75,6.0,6.5,5.0,2.5,5.0,-0.11,0.08,0.95,751.86,-0.3,-19.7,0.0,0.25,1.25,1.25,0.0,1.5,0.5,0.5,0.75,0.25,1.0,0.25,0.25,0.08,0.77,2.08,107.8,-7.5,5.2
3.64,2.0,0.5,3.75,4.0,6.25,5.75,3.75,8.0,6.25,6.0,5.25,2.25,5.0,-0.11,0.08,0.95,777.6,0.9,-15.0,0.0,0.0,1.0,1.25,0.0,1.25,0.25,0.5,0.75,0.25,1.0,0.5,0.5,0.02,1.27,2.45,104.22,-6.0,-9.6
3.66,2.0,0.5,4.0,4.75,6.25,6.25,4.25,8.0,6.5,5.25,4.75,2.25,4.25,-0.11,0.08,0.95,806.56,1.6,-10.6,0.0,0.0,1.25,1.25,0.0,1.25,0.25,0.5,0.75,0.25,1.0,0.5,0.25,0.02,1.83,2.7,104.09,-7.9,-3.5
3.68,2.25,0.5,4.75,4.75,6.75,6.75,4.5,8.0,6.75,5.25,4.75,2.25,3.75,-0.11,0.08,0.95,851.42,2.2,-7.4,0.0,0.0,1.25,1.0,1.0,1.25,0.25,0.5,0.75,0.0,1.0,0.5,0.5,0.02,2.89,2.33,108.33,-6.0,1.5
3.7,3.0,0.5,5.0,6.25,8.0,6.75,4.75,8.0,7.0,5.0,4.5,2.25,3.0,-0.11,0.08,0.95,911.56,3.3,-1.1,0.0,0.25,1.0,1.0,0.0,0.75,0.25,0.5,0.75,0.25,1.0,0.5,0.25,-0.11,4.14,0.83,104.87,-8.8,-7.2
3.72,3.25,0.75,5.75,6.5,8.0,7.25,5.0,7.75,6.75,4.25,4.5,2.0,3.0,-0.11,0.08,0.95,972.6,4.0,2.5,0.0,0.25,0.5,1.25,0.0,0.0,0.25,0.75,0.75,0.0,0.75,0.5,0.25,-1.17,5.52,-1.92,95.39,-10.5,-11.4
3.74,4.75,0.75,6.5,8.25,8.75,7.25,5.5,7.5,6.25,3.25,3.5,1.75,2.25,-0.05,0.08,0.95,1035.15,5.9,12.2,0.0,0.25,0.5,0.5,0.0,0.25,0.25,0.75,0.75,0.5,1.0,0.75,0.75,-3.8,6.45,-1.11,89.67,-4.1,-38.6
3.76,6.0,1.5,8.0,11.0,9.5,7.5,6.0,6.75,5.5,3.0,3.0,1.25,2.0,-0.11,0.08,0.95,1123.43,7.8,21.6,0.0,0.5,0.5,1.0,0.0,1.25,0.0,1.0,0.75,0.5,0.0,1.0,1.25,0.08,-0.17,1.02,93.66,0.9,-22.1
3.78,7.25,2.0,9.5,13.5,10.5,7.5,6.0,5.75,4.25,2.75,2.5,0.75,1.75,-0.11,0.14,1.02,1230.09,9.5,30.3,0.0,0.25,0.5,0.5,0.0,2.0,0.25,1.0,0.75,2.75,0.75,2.25,1.75,-0.36,1.08,0.95,127.01,4.4,-49.2
3.8,8.25,0.5,10.5,14.5,11.5,6.75,6.0,4.75,2.5,2.75,2.0,0.75,1.5,-0.05,0.14,1.14,1303.21,10.8,34.7,0.0,0.0,0.5,1.0,0.0,1.5,0.25,2.5,1.5,4.75,2.5,5.5,4.0,0.7,0.64,4.08,213.9,2.9,-67.3
3.82,9.25,2.0,10.5,15.0,12.0,6.0,6.0,3.25,1.75,2.75,1.75,0.75,1.25,-0.11,0.14,1.27,1338.84,12.1,40.5,0.0,0.25,0.75,0.0,0.0,2.75,0.25,5.0,2.75,5.75,3.5,6.5,6.0,0.02,0.39,1.14,321.13,4.6,-66.5
3.84,11.0,2.0,12.5,14.0,11.0,4.0,4.5,3.0,1.5,2.75,2.0,0.75,1.0,-0.17,0.27,1.27,1343.6,14.5,43.0,0.0,0.25,1.5,1.25,0.0,2.75,0.0,5.25,3.25,6.25,5.25,7.0,6.5,0.08,0.33,0.95,462.67,2.4,-61.2
3.86,11.0,2.0,12.5,12.5,9.25,3.25,2.5,2.75,1.5,2.75,2.0,0.75,1.0,-0.23,0.33,1.39,1302.73,15.3,43.0,0.0,0.5,1.0,1.25,0.25,2.75,0.75,5.75,3.25,6.5,5.5,7.0,6.25,0.14,0.2,0.95,589.54,2.6,-59.7
3.88,11.5,2.25,12.5,8.75,8.0,1.75,1.75,3.0,1.5,2.0,2.0,0.5,1.0,-0.11,0.27,1.33,1179.16,16.9,44.6,0.0,0.5,1.0,1.25,0.0,2.75,0.5,5.75,3.25,6.5,5.5,7.0,6.5,0.14,0.14,0.95,671.51,2.8,-61.1
3.9,10.5,2.0,10.5,6.5,6.25,1.75,2.5,2.5,1.0,2.75,1.5,0.75,1.0,-0.48,0.83,2.45,1009.23,16.5,41.7,0.0,0.5,1.25,1.25,0.0,2.75,0.5,5.75,3.25,6.5,5.25,7.0,6.5,0.08,0.14,0.95,707.07,2.6,-60.3
3.92,9.25,2.0,9.0,4.75,5.75,1.5,2.75,1.75,1.0,2.75,1.5,0.75,1.0,-0.86,1.08,2.64,826.95,16.3,40.0,0.0,0.25,0.75,0.5,0.0,3.0,0.0,5.75,3.25,6.5,5.5,7.0,6.75,0.08,0.14,0.95,714.39,4.0,-65.7
3.94,7.75,0.5,7.25,4.5,4.75,1.25,2.5,2.0,1.0,2.25,1.75,0.75,1.0,-0.86,0.64,2.45,647.33,15.7,34.1,0.0,0.5,1.5,1.0,0.0,2.75,0.25,6.0,3.25,6.75,5.5,7.0,6.75,0.08,0.14,0.95,721.71,2.8,-60.9
3.96,6.5,0.5,5.5,2.25,3.5,1.75,1.25,2.0,1.25,2.75,1.25,0.75,1.0,-0.36,0.33,3.14,485.67,12.9,26.6,0.0,0.5,1.0,1.25,0.0,2.75,0.75,6.0,3.25,6.5,5.5,6.75,6.5,0.08,0.14,0.95,713.74,2.9,-60.4
3.98,4.0,0.0,3.0,0.0,2.5,0.0,0.75,1.75,0.75,0.5,1.75,0.25,1.0,-0.48,-0.92,2.58,313.33,14.2,19.7,0.0,0.75,1.0,0.75,0.0,3.0,0.75,6.0,3.25,6.5,5.25,6.75,6.75,0.08,0.14,0.95,698.24,3.3,-60.6
4.0,1.25,0.0,1.5,0.75,2.5,0.0,0.5,0.75,0.75,0.5,0.25,0.5,0.25,-0.73,-0.86,0.08,183.04,10.7,22.7,0.0,0.5,1.25,1.25,0.0,4.0,1.0,6.25,3.5,6.5,5.5,6.5,6.5,0.08,0.14,0.89,682.48,3.1,-56.2
4.02,1.0,0.0,1.0,0.0,2.5,0.0,0.0,0.75,0.75,0.5,0.0,0.25,0.25,-0.55,-1.3,2.14,55.25,6.7,21.4,0.0,0.5,0.75,1.25,0.0,4.0,0.75,6.5,4.0,6.5,5.5,6.25,6.25,0.08,0.14,0.95,660.23,3.7,-57.0
4.04,0.75,0.0,0.25,0.0,2.5,0.0,0.5,0.25,0.75,0.5,0.25,0.5,0.0,-0.73,-0.23,0.89,0.0,5.7,15.3,0.0,0.5,1.0,1.25,0.5,4.75,1.0,6.75,4.0,6.75,5.5,6.25,6.0,0.08,0.14,0.89,646.6,3.7,-52.8
4.06,0.75,0.0,0.25,0.0,2.5,0.0,0.5,0.0,0.75,0.5,0.0,0.25,0.0,-0.92,-0.17,0.89,0.0,6.4,27.2,0.0,0.75,1.25,1.25,1.25,5.0,1.0,6.75,4.5,6.5,5.5,5.75,5.75,0.08,0.14,0.95,643.73,3.3,-47.5
4.08,1.0,0.0,0.25,0.0,2.5,0.0,0.5,0.75,1.0,1.5,0.0,0.75,0.25,-1.05,-0.11,0.95,0.0,2.3,-2.5,0.0,0.75,1.25,1.5,2.5,5.0,1.0,7.25,4.5,6.0,5.25,5.5,5.0,0.14,0.14,0.95,646.95,3.2,-41.6
4.1,1.25,0.5,1.75,1.0,2.5,0.75,1.25,1.0,1.0,0.75,1.25,0.75,1.0,-1.05,-0.05,1.08,0.0,8.0,7.7,0.25,1.0,1.25,1.5,3.5,5.75,1.0,7.5,4.5,5.25,5.25,4.25,4.5,0.14,0.14,0.89,644.27,3.3,-33.3
4.12,1.25,0.5,1.5,2.0,2.5,1.0,1.25,0.75,1.0,1.5,1.25,0.75,1.0,-1.17,0.2,1.14,69.78,7.0,7.3,0.0,1.0,1.25,2.5,3.5,6.25,1.0,7.5,4.75,4.25,4.5,2.75,3.0,0.14,0.14,0.95,617.81,3.1,-23.7
4.14,1.25,0.5,1.75,1.75,2.5,1.75,1.25,0.25,1.5,2.75,2.0,0.75,0.5,-0.92,1.02,3.83,142.29,6.1,2.7,1.0,1.0,1.25,2.75,3.75,7.0,1.0,7.5,4.0,2.75,3.25,1.75,2.0,0.14,0.14,0.95,577.76,2.7,-10.2
4.16,1.25,0.0,1.75,2.0,2.5,1.75,2.0,0.5,2.5,1.75,2.5,0.75,1.5,-1.23,7.89,-1.8,199.93,6.7,-4.9,1.0,1.0,1.25,2.75,6.25,7.5,1.0,6.75,2.75,2.0,2.5,0.75,1.5,0.14,0.2,0.95,538.23,3.3,3.4
4.18,1.25,0.0,0.5,0.5,0.0,1.75,2.0,0.25,2.25,1.25,1.0,0.75,1.0,-1.86,6.08,-0.73,204.31,6.1,-17.6,1.0,0.75,1.75,2.75,7.5,7.25,0.5,5.25,1.5,1.75,2.25,1.0,0.25,0.27,0.14,1.08,496.05,2.5,13.3
4.2,1.25,0.0,0.25,0.75,0.0,1.75,2.5,2.75,2.5,1.5,2.5,1.25,1.75,-0.05,4.2,0.02,223.28,2.2,-32.9,1.25,1.0,1.25,2.75,7.75,7.0,0.0,3.75,1.25,1.5,1.75,0.75,1.0,1.08,-0.05,1.45,456.78,2.7,16.8
4.22,2.75,0.5,1.5,2.25,0.0,3.0,2.5,3.25,4.5,3.75,3.25,2.5,3.0,0.7,4.52,0.08,284.71,3.9,-24.6,1.25,1.0,1.25,2.75,1.5,5.75,0.0,2.5,1.0,0.0,1.25,0.75,0.5,0.58,-0.05,1.33,364.86,-0.2,19.2
4.24,4.75,0.5,5.0,3.5,6.0,4.0,3.75,5.75,5.75,6.0,5.75,4.0,4.75,0.33,5.08,0.02,490.76,4.7,-12.5,1.25,0.75,1.0,2.75,1.5,5.0,0.0,2.25,0.75,0.5,1.0,1.0,0.75,0.77,-0.48,1.08,292.68,0.1,13.6
4.26,5.5,0.5,5.0,4.0,6.0,4.0,4.25,6.75,6.5,7.0,7.75,5.25,5.75,-0.17,0.08,1.02,772.27,4.7,-17.4,1.0,0.5,0.75,1.25,0.0,2.75,0.0,2.0,1.0,1.0,1.0,0.5,0.5,0.08,-1.92,1.14,214.04,-0.2,-1.7
4.28,5.5,0.5,5.0,2.75,6.25,4.25,4.25,7.0,6.5,7.25,7.75,5.25,5.75,-0.05,0.08,0.95,1030.42,4.1,-18.7,0.5,0.75,0.75,0.5,0.0,2.75,0.0,1.25,1.25,0.5,1.0,0.5,0.5,0.27,-2.55,0.89,145.58,0.0,-2.9
4.3,5.5,0.75,5.0,2.25,6.25,4.5,3.75,7.5,6.0,7.5,7.75,5.25,5.75,-0.05,0.08,0.95,1179.84,3.6,-19.0,0.0,0.5,1.25,1.25,0.0,2.75,0.0,0.75,1.25,0.0,1.0,0.75,0.25,0.89,-1.92,1.08,92.2,-3.6,3.5
4.32,5.25,0.5,4.75,2.5,6.0,4.5,3.0,7.75,6.0,7.75,7.5,4.75,5.75,-0.11,0.08,0.95,1223.62,3.0,-19.9,0.0,0.0,1.0,0.5,1.0,2.75,0.0,1.5,1.5,0.25,0.0,0.75,0.25,-0.42,0.08,3.02,68.38,2.3,0.0
4.34,4.75,0.5,4.0,2.25,6.25,5.0,1.5,8.0,5.25,7.75,7.25,4.0,5.75,-0.11,0.08,0.95,1192.22,1.4,-20.5,0.0,0.25,0.75,1.25,0.25,0.5,0.0,2.25,1.75,1.0,1.25,0.75,0.25,-2.48,3.89,1.08,61.44,-2.6,-24.3
4.36,4.25,0.5,3.0,2.25,6.0,5.25,2.5,8.0,5.0,7.75,6.5,4.0,6.0,-0.11,0.08,0.95,1143.07,0.4,-22.2,0.0,0.0,1.0,0.5,0.0,2.25,0.0,0.75,1.25,0.25,1.5,1.0,0.5,0.52,1.14,0.64,59.32,-1.7,-23.1
4.38,3.5,0.5,3.0,2.0,5.75,5.25,0.25,8.5,4.5,8.5,6.25,3.75,6.0,-0.11,0.08,0.95,1081.32,-1.1,-25.4,0.0,0.0,1.0,0.0,0.0,2.0,0.25,0.75,1.25,0.25,1.5,0.75,0.25,0.64,-0.05,0.7,56.45,-2.2,-23.9
4.4,3.0,0.5,3.0,2.0,5.0,5.0,0.0,8.5,4.25,9.0,6.25,3.75,6.25,-0.11,0.14,0.95,1015.52,-1.5,-28.8,0.0,0.0,0.5,0.75,0.0,2.0,0.25,0.75,1.25,0.5,1.25,0.75,0.5,0.58,0.83,0.83,58.06,-0.1,-24.1
4.42,3.0,0.5,1.75,2.0,3.75,4.5,1.0,8.75,3.75,9.0,6.0,3.75,6.5,-0.11,0.14,0.95,941.03,-2.3,-33.3,0.0,0.25,1.0,0.75,0.0,2.0,0.25,0.75,1.0,0.5,1.5,1.25,0.5,0.64,1.14,0.89,73.61,-2.9,-21.6
4.44,2.5,0.5,0.25,1.75,4.25,4.5,0.0,8.75,3.25,9.0,5.5,3.75,6.75,-0.11,0.14,0.95,847.31,-4.6,-37.3,0.0,0.25,0.75,0.5,0.0,2.0,0.25,0.75,1.0,0.5,1.25,0.75,0.5,0.39,1.02,0.77,87.38,-0.8,-19.8
4.46,2.25,0.5,0.75,1.0,3.0,4.25,0.25,8.75,2.5,9.0,5.5,3.5,6.75,-0.11,0.14,0.95,749.06,-4.9,-41.0,0.0,0.25,0.5,0.5,0.0,1.5,0.25,0.75,1.0,0.5,1.5,0.75,0.5,-0.42,1.02,0.45,101.23,-1.3,-27.5
4.48,1.5,0.0,0.0,0.0,2.25,3.0,0.0,8.75,1.75,8.0,4.75,2.75,5.75,-0.11,0.14,0.95,623.02,-7.3,-50.1,0.0,0.25,1.25,0.75,0.0,1.5,0.5,0.75,1.25,0.25,1.25,1.0,0.5,-0.92,1.02,1.33,110.37,-6.1,-16.5
4.5,1.25,0.0,0.0,0.0,3.0,2.75,0.0,8.5,2.25,9.0,3.5,2.5,6.5,-0.17,0.14,0.95,552.61,-8.0,-49.8,0.0,0.0,1.0,1.0,0.0,2.0,0.25,0.75,1.25,0.5,1.5,0.75,0.75,-1.23,1.64,1.14,122.57,-2.5,-20.9
4.52,1.25,0.0,0.0,0.5,3.5,3.25,0.0,8.75,1.75,9.75,3.5,2.25,6.25,-0.11,0.14,0.95,515.85,-8.3,-45.8,0.0,0.0,1.0,0.5,0.0,1.75,0.25,0.75,1.25,0.5,1.5,0.75,0.75,-0.11,0.52,0.95,125.99,-2.3,-27.1
4.54,1.75,0.0,0.0,1.0,3.0,3.25,0.0,8.75,1.75,9.75,3.75,2.25,7.0,-0.17,0.08,1.02,515.73,-7.6,-45.6,0.0,0.0,0.75,0.5,0.0,1.75,0.25,0.75,1.0,0.25,1.75,1.0,0.75,-0.23,0.08,0.39,126.82,-1.9,-31.8
4.56,1.5,0.5,0.25,0.0,3.0,3.25,0.0,8.75,1.75,9.5,3.5,2.5,7.5,-0.17,0.08,0.95,527.61,-8.0,-47.4,0.0,0.0,1.0,0.25,0.0,1.5,0.25,0.75,1.0,0.25,1.5,0.75,0.75,-0.48,0.02,0.7,122.43,-2.9,-29.9
4.58,1.5,0.5,0.25,0.0,2.5,3.25,0.0,8.5,1.5,8.75,3.25,2.25,7.5,-0.17,0.08,0.95,532.59,-8.2,-47.9,0.0,0.0,0.75,0.5,0.0,1.5,0.5,0.75,1.0,0.5,1.25,1.25,1.0,-0.73,0.39,1.02,122.84,-1.7,-36.1
4.6,1.25,0.5,0.25,0.5,2.5,3.25,0.0,8.5,1.25,9.25,3.5,2.25,7.5,-0.23,0.08,0.89,536.1,-8.2,-47.9,0.0,0.0,0.75,0.5,0.0,1.5,0.25,0.75,1.0,0.5,2.0,1.25,1.0,-0.67,0.45,1.58,127.91,-2.1,-40.0
4.62,1.25,0.5,0.25,0.5,2.5,3.25,0.0,8.5,1.25,9.25,3.25,2.25,7.25,-0.36,0.08,0.89,533.92,-8.3,-47.4,0.0,0.0,1.0,0.5,0.0,1.5,0.5,0.5,1.0,0.25,1.75,2.0,1.0,-0.61,0.39,1.39,135.85,-4.6,-40.1
4.64,1.25,0.5,0.25,0.5,2.5,3.25,0.0,8.75,1.25,9.0,3.25,2.25,7.25,-0.61,0.2,0.95,537.42,-8.3,-47.1,0.0,0.0,0.75,0.25,0.0,1.5,0.5,0.75,1.0,0.25,2.0,1.25,0.75,-0.3,0.27,1.27,135.92,-3.0,-39.0
4.66,1.25,0.5,0.5,0.0,2.5,3.25,0.0,8.5,1.0,9.0,3.0,2.5,7.25,-0.86,0.27,0.95,539.47,-8.4,-48.2,0.0,0.0,1.0,0.5,0.0,1.25,0.5,0.75,1.0,0.75,1.75,1.5,0.5,-0.17,0.08,1.02,136.89,-4.5,-36.2
4.68,1.25,0.5,0.25,0.0,2.5,2.75,0.0,7.75,1.0,9.0,2.5,2.25,6.75,-1.05,0.27,0.89,528.3,-8.7,-48.5,0.0,0.0,0.75,0.5,0.0,1.5,0.25,0.75,1.0,0.25,1.25,0.5,0.75,-0.23,-0.11,0.95,127.16,-1.7,-25.7
4.7,0.75,0.0,0.0,0.0,2.5,2.5,0.0,7.25,0.75,7.75,2.5,0.5,6.0,-0.73,0.27,1.2,481.82,-10.6,-48.9,0.0,0.0,1.0,0.25,0.0,1.75,0.25,0.75,0.75,0.0,1.25,0.75,0.5,-0.55,-0.48,1.14,116.85,-2.7,-21.3
4.72,0.5,0.0,0.0,0.0,2.5,1.75,0.0,6.5,0.75,6.5,1.25,0.5,5.75,-0.61,0.14,1.27,416.11,-11.2,-49.7,0.0,0.25,0.75,0.5,0.0,1.5,0.25,0.75,0.75,0.25,1.0,0.5,0.5,-1.11,-1.05,1.7,105.81,-2.0,-15.6
4.74,1.25,0.5,0.25,0.0,2.5,1.75,0.0,6.75,1.0,6.75,2.5,0.5,6.0,-1.05,-0.11,1.39,378.44,-8.3,-44.3,0.0,0.25,0.5,0.25,0.25,1.5,0.25,0.75,0.75,0.0,1.0,0.5,0.5,-0.8,-1.36,1.39,98.29,-0.3,-16.2
4.76,1.0,0.5,0.25,0.0,2.5,1.75,0.0,5.75,1.0,5.25,1.25,0.5,5.5,-1.8,-0.48,1.52,338.08,-8.8,-41.2,0.0,0.25,1.0,0.0,0.25,1.25,0.5,0.5,0.75,0.0,1.0,0.5,0.25,-1.17,-2.11,2.45,91.93,-5.7,-8.9
4.78,0.5,0.5,0.0,0.0,2.5,0.0,0.0,4.5,1.0,3.25,1.25,0.0,3.0,-2.3,-0.73,1.52,281.67,-7.7,-37.6,0.0,0.25,1.0,0.5,0.0,1.25,0.25,0.5,0.75,0.25,1.0,0.75,0.5,-2.23,-2.98,3.39,91.53,-5.1,-17.0
4.8,1.25,0.0,0.0,0.0,2.25,0.0,0.0,3.0,0.0,2.75,1.25,0.0,1.5,-3.8,-0.48,1.39,217.95,-5.6,-27.0,0.0,0.5,1.0,0.5,0.0,1.25,0.25,0.5,0.75,0.5,1.0,0.5,0.5,-1.05,-3.11,2.27,93.99,-4.5,-11.6
4.82,1.25,0.5,0.25,0.0,2.5,0.5,0.0,3.0,1.0,3.0,1.0,0.0,0.0,-1.67,0.52,2.08,166.8,-2.8,-7.7,0.0,0.25,1.0,0.5,0.0,1.25,0.25,0.5,0.75,0.0,1.0,0.5,0.5,-0.11,-2.3,2.45,92.64,-5.8,-11.0
4.84,0.0,0.25,0.25,0.25,1.25,1.75,0.25,3.0,0.75,2.75,1.25,0.0,1.0,-1.98,-0.17,2.58,126.74,-8.3,-28.5,0.0,0.25,0.75,0.25,0.0,1.25,0.25,0.5,0.75,0.25,1.0,0.5,0.5,0.77,-1.11,2.14,90.19,-3.0,-19.7
4.86,1.25,0.5,0.25,0.0,2.5,1.75,0.5,3.0,1.0,2.75,1.25,0.0,1.5,-1.23,-0.55,1.89,130.39,-4.4,-13.8,0.0,0.25,0.5,0.0,0.0,1.0,0.25,0.75,1.0,0.0,1.0,0.75,0.5,0.95,0.02,-0.48,86.64,-2.5,-32.1
4.88,1.25,0.5,0.5,0.25,2.5,1.5,0.5,3.0,1.0,1.5,1.0,0.0,1.25,-0.8,-0.92,1.02,140.69,-2.1,-4.1,0.0,0.25,1.0,0.5,0.0,1.25,0.25,0.5,1.0,0.25,1.0,0.25,0.5,-0.36,-0.11,-0.23,88.87,-5.1,-10.8
4.9,0.5,0.0,0.5,0.0,2.5,0.25,0.5,1.0,1.0,2.75,0.0,0.0,0.5,-0.3,-1.17,0.89,131.56,-2.7,-9.8,0.0,0.25,0.75,0.0,0.0,1.25,0.5,0.5,0.75,0.25,1.0,1.0,0.5,-1.3,-0.3,1.2,90.06,-3.5,-29.0
4.92,1.25,0.5,0.5,0.75,2.5,1.0,0.5,3.0,1.0,2.75,1.25,0.0,1.0,-0.3,-1.48,1.2,149.31,-1.5,-8.1,0.0,0.25,0.5,0.0,0.0,1.25,0.25,0.5,0.75,0.25,1.0,0.5,0.5,-1.42,-0.48,1.64,89.23,-0.7,-27.1
4.94,1.25,0.5,0.5,0.5,2.5,1.5,0.5,2.75,1.0,2.75,1.0,0.0,0.25,-0.98,-1.36,1.27,163.57,-1.9,-1.1,0.0,0.25,0.75,0.25,0.0,1.0,0.25,0.5,0.75,0.25,1.0,1.0,0.5,-0.86,-0.17,1.27,89.8,-4.5,-28.8
4.96,1.25,0.5,0.5,0.5,2.5,1.0,0.5,2.5,1.0,2.75,1.0,0.5,1.0,-1.36,-0.98,1.08,183.26,-1.2,-10.4,0.0,0.25,0.75,0.0,0.0,0.5,0.25,0.5,0.75,0.25,1.0,0.5,0.75,-0.42,-0.05,1.02,85.8,-5.0,-35.0
4.98,1.25,0.5,0.5,0.25,2.5,1.25,0.5,2.75,1.0,2.75,1.0,0.0,1.0,-0.98,-0.73,1.02,193.87,-2.5,-8.2,0.0,0.25,0.5,0.25,0.0,0.5,0.25,0.5,0.75,0.25,1.0,0.25,0.5,-0.11,-0.42,0.7,80.1,-4.7,-27.2
5.0,1.25,0.5,0.5,0.5,2.5,1.25,0.5,2.25,1.0,2.75,1.0,0.5,1.0,-0.73,-0.73,0.89,210.45,-1.3,-9.3,0.0,0.25,0.75,0.0,0.0,0.5,0.25,0.5,0.75,0.25,1.0,0.5,0.5,0.02,-0.8,0.58,75.65,-5.9,-31.2
5.02,1.25,0.25,1.0,0.75,2.5,1.5,0.5,1.75,0.75,2.75,1.0,0.0,1.0,-0.61,-0.48,0.83,217.18,-0.2,-2.1,0.0,0.25,0.75,0.0,0.0,0.25,0.25,0.5,0.75,0.25,1.0,0.5,0.25,0.08,-1.05,0.45,70.54,-8.5,-30.2
5.04,1.25,0.5,0.75,0.75,2.5,1.0,0.5,2.25,0.75,2.75,1.0,0.5,1.0,-0.55,-0.36,0.64,220.46,-0.2,-7.2,0.0,0.25,0.5,0.25,0.0,0.75,0.25,0.5,0.75,0.0,1.0,0.25,0.25,0.2,-1.05,0.2,67.59,-5.4,-16.8
5.06,1.25,0.5,0.75,1.0,2.5,1.0,0.5,2.25,0.75,2.75,1.0,0.75,1.0,-0.61,-0.42,0.45,222.64,0.1,-7.7,0.0,0.25,0.75,0.0,0.0,0.5,0.25,0.5,0.75,0.25,1.0,0.25,0.5,0.33,-0.8,0.02,67.18,-5.8,-27.2
5.08,1.25,0.5,1.0,1.0,2.5,1.25,0.75,2.0,0.75,2.5,1.0,0.5,1.0,-0.8,-0.61,0.27,224.97,1.0,-2.6,0.0,0.25,1.25,0.0,0.0,0.0,0.25,0.5,0.75,0.0,1.0,0.25,0.5,0.33,-0.48,-0.36,66.95,-13.5,-21.0
5.1,1.25,0.5,1.0,1.0,2.5,1.25,0.75,1.5,0.5,2.5,1.0,0.5,1.0,-0.73,-0.73,0.08,222.78,1.4,-0.8,0.0,0.25,1.0,0.25,0.0,0.25,0.25,0.5,0.75,0.5,1.0,0.5,0.25,0.33,-0.23,-0.61,70.04,-9.2,-23.6
5.12,1.25,0.5,1.0,0.75,2.5,1.25,0.75,1.75,0.75,2.25,1.0,0.75,1.0,-0.67,-0.73,-0.11,223.13,1.4,-3.6,0.0,0.25,0.75,0.25,0.0,0.25,0.25,0.5,0.75,0.25,1.0,0.75,0.5,0.39,-0.05,-0.67,73.32,-7.9,-33.4
5.14,1.25,0.5,1.0,1.0,2.5,1.0,0.75,1.75,0.75,2.5,1.0,0.5,1.0,-0.55,-0.61,-0.11,222.2,1.7,-2.6,0.0,0.25,0.75,0.25,0.0,0.5,0.25,0.5,0.75,0.0,1.0,0.5,0.5,0.45,0.08,-0.8,75.87,-7.6,-24.5
5.16,1.25,0.5,1.0,0.75,2.5,1.0,1.0,1.5,0.75,2.5,1.0,0.5,1.0,-0.23,-0.36,-0.3,215.91,1.9,-2.8,0.0,0.25,0.5,0.25,0.0,0.25,0.25,0.5,0.75,0.0,1.0,0.5,0.5,0.45,0.27,-0.86,74.57,-7.4,-32.2
5.18,1.25,0.5,1.0,0.25,2.5,0.5,0.75,1.25,0.75,2.0,0.75,0.5,0.25,-0.11,-0.3,-0.36,203.19,3.9,4.7,0.0,0.25,1.0,0.25,0.0,0.5,0.25,0.5,0.75,0.25,1.0,0.25,0.25,0.52,0.33,-0.98,74.96,-9.0,-14.2
5.2,1.25,0.5,1.0,1.0,2.5,1.5,0.5,1.5,0.75,2.0,1.0,0.5,1.0,0.08,-0.17,-0.42,203.04,1.5,1.3,0.0,0.25,0.75,0.5,0.0,0.5,0.25,0.75,0.75,0.0,1.0,0.75,0.25,0.52,0.33,-1.11,78.37,-8.0,-21.1
5.22,1.25,0.5,1.0,0.75,2.5,0.75,0.75,1.5,0.75,2.0,1.0,0.5,1.0,0.2,-0.11,-0.42,199.55,2.7,-1.1,0.0,0.25,0.75,0.25,0.0,0.5,0.25,0.5,0.75,0.25,1.0,0.5,0.25,0.45,0.33,-1.23,79.34,-7.5,-22.6
5.24,1.25,0.5,1.0,1.0,2.5,0.75,0.75,1.5,0.75,2.5,1.0,0.5,1.0,0.27,-0.05,-0.48,203.7,2.4,-2.5,0.0,0.25,0.75,0.5,0.0,1.0,0.25,0.5,1.0,0.0,1.0,0.5,0.5,0.27,0.33,-1.11,84.77,-5.8,-16.9
5.26,1.25,0.5,0.75,1.25,2.5,0.75,0.75,1.25,0.75,2.0,1.0,0.5,1.0,0.27,0.02,-0.55,202.96,3.0,0.5,0.0,0.25,0.75,0.0,0.0,0.75,0.25,0.5,0.75,0.0,0.75,0.5,0.25,0.14,0.33,-1.05,81.42,-6.5,-18.7
5.28,0.25,0.0,1.0,0.0,2.5,0.0,0.75,1.25,0.0,0.5,1.0,0.0,1.0,0.33,0.14,-0.55,177.08,2.0,-2.6,0.0,0.25,0.75,0.5,0.0,0.75,0.25,0.5,0.75,0.25,0.75,0.5,0.5,0.02,0.33,-0.98,82.97,-5.6,-18.2
5.3,0.0,0.0,0.25,0.0,0.75,0.0,0.5,1.0,0.0,0.5,0.0,0.0,0.0,0.33,0.2,-0.61,123.26,-3.4,-2.7,0.0,0.25,1.0,0.5,0.0,1.25,0.25,0.5,0.75,0.25,0.75,0.75,0.25,-0.05,0.33,-0.92,86.54,-5.7,-11.0
5.32,0.0,0.0,0.25,0.0,1.75,0.0,0.5,1.0,0.0,0.5,0.0,0.0,0.25,0.33,0.2,-0.61,79.26,-4.0,6.0,0.0,0.25,0.75,0.25,0.0,0.5,0.25,0.5,0.75,0.25,1.0,0.25,0.25,-0.11,0.27,-0.98,84.59,-7.4,-18.2
5.34,0.25,0.0,0.25,0.0,2.25,0.0,0.5,1.0,0.0,0.5,0.0,0.0,0.0,0.39,0.27,-0.61,52.84,-1.5,22.3,0.0,0.25,0.75,0.5,0.0,0.5,0.25,0.5,0.75,0.25,1.0,0.75,0.25,-0.11,0.2,-0.98,84.52,-8.0,-22.7
5.36,0.25,0.0,0.25,0.0,0.0,0.0,0.25,0.5,0.0,0.5,0.0,0.0,0.0,0.45,0.33,-0.67,25.29,3.5,-9.5,0.0,0.25,0.75,0.25,0.0,0.5,0.25,0.5,0.75,0.25,1.0,0.25,0.5,-0.11,0.2,-0.92,81.55,-6.4,-22.8
5.38,0.0,0.0,0.25,0.0,2.25,0.0,0.25,1.0,0.0,0.5,0.0,0.0,0.0,0.45,0.33,-0.73,25.77,-4.3,18.2,0.0,0.25,0.75,0.25,0.0,0.5,0.25,0.5,0.75,0.0,0.75,0.0,0.5,-0.11,0.08,-0.92,76.75,-7.2,-11.9
5.4,0.25,0.0,0.25,0.0,0.0,0.0,0.25,1.0,0.0,0.5,0.0,0.0,0.0,0.45,0.27,-0.67,15.12,-1.2,-16.4,0.0,0.25,0.75,0.5,0.0,0.5,0.25,0.5,0.75,0.0,1.0,0.5,0.5,-0.11,0.02,-0.92,75.77,-8.0,-20.4
5.42,0.25,0.0,0.0,0.0,0.0,0.0,0.5,1.0,0.0,0.5,0.0,0.0,0.0,0.58,0.2,-0.67,8.81,-4.4,-23.8,0.0,0.25,1.0,0.5,0.0,1.25,0.25,0.5,0.75,0.25,0.75,0.5,0.25,-0.23,0.02,-0.92,80.84,-5.5,-6.9
5.44,0.5,0.0,0.25,0.0,0.75,0.0,0.5,0.75,0.0,0.5,0.0,0.0,0.25,0.64,0.14,-0.73,6.88,2.1,5.7,0.0,0.25,0.75,0.5,0.0,0.75,0.25,0.5,0.75,0.25,1.0,0.5,0.25,-0.23,0.02,-0.92,83.71,-6.7,-16.5
5.46,1.25,0.5,0.5,0.75,3.5,0.5,1.0,1.25,0.75,2.25,1.25,0.5,1.0,0.64,0.08,-0.67,79.31,1.8,-1.1,0.0,0.25,0.75,0.0,0.0,0.75,0.5,0.5,0.75,0.25,1.0,0.5,0.25,-0.3,0.08,-0.86,83.52,-6.2,-23.0
5.48,1.25,0.5,1.0,1.0,2.25,0.75,0.5,1.0,0.75,2.0,1.25,0.5,1.0,0.64,-0.05,-0.73,135.72,3.7,-1.3,0.0,0.25,0.75,0.25,0.0,0.75,0.25,0.5,0.75,0.25,1.0,0.5,0.25,-0.3,0.08,-0.8,82.22,-6.1,-20.1
5.5,0.25,0.0,1.0,0.0,2.5,0.0,1.0,1.5,0.0,0.5,1.0,0.0,1.0,0.64,-0.11,-0.86,162.47,1.9,-3.3,0.0,0.25,0.5,0.5,0.0,0.5,0.25,0.5,0.75,0.5,0.75,0.25,0.25,-0.3,0.02,-0.8,78.93,-5.0,-18.4
5.52,1.25,0.5,0.5,1.0,2.5,0.75,0.75,1.25,0.75,2.25,1.25,0.5,1.0,0.58,-0.11,-0.86,192.77,1.9,-4.2,0.0,0.25,0.75,0.25,0.0,0.5,0.25,0.5,0.75,0.0,1.0,0.25,0.25,-0.23,0.02,-0.86,73.92,-8.7,-15.1
5.54,1.25,0.5,1.0,0.75,2.5,1.0,0.75,1.25,0.75,2.0,1.25,0.5,1.0,0.58,-0.11,-0.8,208.81,2.8,-1.1,0.0,0.25,0.75,0.5,0.0,0.5,0.25,0.5,0.75,0.25,1.0,0.5,0.25,-0.23,0.02,-0.86,74.82,-8.0,-18.7
5.56,1.25,0.5,1.25,1.0,2.5,0.5,1.0,1.25,0.75,2.25,1.0,0.75,1.0,0.64,-0.17,-0.8,220.89,4.4,-1.7,0.0,0.25,1.0,0.25,0.0,0.5,0.25,0.5,0.75,0.25,1.0,0.5,0.25,-0.3,-0.05,-0.8,77.55,-9.0,-18.6
5.58,1.25,0.5,0.25,0.5,2.25,0.75,0.75,1.25,0.75,2.25,1.25,0.5,1.0,0.58,-0.23,-0.73,221.95,0.6,-9.2,0.0,0.25,0.75,0.25,0.0,0.5,0.25,0.5,0.75,0.0,1.0,0.25,0.25,-0.36,-0.05,-0.73,75.48,-8.7,-15.1
5.6,1.25,0.5,1.75,1.0,2.5,0.5,0.5,1.25,0.75,2.0,1.25,0.5,1.0,0.45,-0.3,-0.67,231.31,5.5,1.7,0.0,0.25,0.75,0.0,0.0,1.0,0.25,0.5,0.75,0.5,1.0,0.5,0.25,-0.48,-0.05,-0.61,77.99,-3.4,-24.0
5.62,1.25,0.5,0.25,0.75,2.25,0.75,0.5,1.0,0.75,2.25,1.0,0.5,1.0,0.39,-0.42,-0.61,220.08,0.8,-6.3,0.0,0.25,1.0,0.25,0.0,1.25,0.25,0.5,0.5,0.25,1.0,0.5,0.25,-0.61,-0.11,-0.3,81.46,-5.0,-11.4
5.64,1.25,0.5,0.25,1.0,2.5,0.5,0.75,1.0,0.75,0.5,1.25,0.0,1.0,0.2,-0.48,-0.55,207.37,4.4,10.0,0.0,0.5,0.75,0.0,0.0,0.75,0.25,0.5,0.75,0.25,1.0,0.25,0.25,-0.73,-0.17,-0.11,80.69,-5.8,-13.7
5.66,0.0,0.0,0.25,0.0,0.0,0.0,0.5,1.0,0.0,0.5,0.0,0.0,0.0,0.08,-0.42,-0.55,147.74,-3.5,-27.1,0.0,0.25,1.0,0.5,0.0,0.5,0.25,0.5,0.75,0.25,1.0,0.5,0.25,-0.8,-0.17,0.02,82.54,-9.4,-15.0
5.68,0.0,0.0,0.25,0.0,0.0,0.0,0.5,0.25,0.0,0.5,0.0,0.0,0.0,0.02,-0.42,-0.42,84.51,4.4,-20.2,0.0,0.25,0.5,0.25,0.0,1.25,0.25,0.5,0.5,0.25,1.0,0.25,0.25,-0.73,-0.17,0.14,81.69,-1.4,-13.9
5.7,1.25,0.5,0.25,0.75,1.75,0.5,1.0,1.0,0.75,2.0,1.0,0.5,1.0,-0.23,-0.48,-0.36,79.68,2.5,-7.9,0.0,0.25,1.0,0.25,0.0,0.5,0.25,0.5,0.75,0.25,0.75,0.5,0.25,-0.61,-0.11,0.33,80.77,-8.9,-15.9
5.72,1.25,0.5,0.75,1.0,2.25,0.75,0.75,1.5,0.75,2.25,1.25,0.75,1.0,-0.42,-0.48,-0.3,119.59,2.4,-6.5,0.0,0.25,1.0,0.25,0.0,1.25,0.25,0.5,0.75,0.25,0.75,0.75,0.25,-0.55,-0.11,0.52,83.82,-5.2,-13.9
5.74,1.25,0.5,0.25,1.0,2.5,0.0,1.0,1.0,0.0,0.5,1.0,0.25,1.0,-0.48,-0.48,-0.17,144.8,5.4,11.8,0.0,0.25,0.75,0.5,0.0,1.25,0.25,0.5,0.75,0.0,1.0,0.5,0.25,-0.48,-0.11,0.58,87.22,-5.2,-9.8
5.76,0.0,0.0,0.25,0.0,0.0,0.0,0.25,1.0,1.0,2.0,0.0,0.5,0.25,-0.61,-0.48,-0.05,129.57,-4.2,-57.0,0.0,0.25,0.75,0.5,0.0,1.0,0.25,0.5,0.75,0.0,1.0,0.5,0.25,-0.42,-0.23,0.7,88.39,-6.4,-11.7
5.78,1.25,0.5,1.0,1.0,2.5,0.75,0.75,1.0,0.75,2.25,1.25,0.5,1.0,-0.73,-0.42,0.14,150.51,3.5,-1.3,0.0,0.25,1.25,0.0,0.0,1.5,0.25,0.5,0.5,0.0,1.0,0.5,0.25,-0.42,-0.3,1.02,89.07,-5.6,-6.7
5.8,1.25,0.5,0.5,1.0,1.75,0.75,1.0,1.25,0.75,2.25,0.5,0.5,1.25,-0.92,-0.36,0.27,158.12,1.7,-5.9,0.0,0.25,1.0,0.0,0.0,1.0,0.25,0.5,0.5,0.25,1.0,0.25,0.25,-0.36,-0.48,1.08,85.93,-5.4,-12.2
5.82,1.25,0.5,1.0,1.0,1.75,0.75,0.75,1.25,0.75,2.0,1.0,0.5,1.0,-1.11,-0.23,0.27,179.56,3.8,-2.8,0.0,0.25,0.75,0.25,0.0,1.25,0.25,0.5,0.5,0.5,1.0,0.5,0.25,-0.3,-0.61,1.2,86.07,-2.6,-17.3
5.84,1.25,0.5,0.5,1.0,3.0,0.5,1.25,1.0,0.75,2.0,1.25,0.5,1.0,-1.23,-0.17,0.27,196.61,3.2,-0.1,0.0,0.25,0.75,0.0,0.0,1.0,0.25,0.5,0.5,0.25,0.75,0.5,0.25,-0.23,-0.73,1.2,80.54,-3.6,-18.0
5.86,1.25,0.5,0.75,0.75,2.5,0.5,1.0,1.25,0.75,2.5,1.25,0.75,1.0,-1.17,-0.17,0.27,212.88,2.7,-7.5,0.0,0.25,0.75,0.0,0.0,1.25,0.25,0.5,0.75,0.0,0.75,0.25,0.25,-0.3,-0.86,1.2,77.91,-3.5,-8.7
5.88,1.25,0.5,0.25,1.0,2.5,0.75,1.0,1.0,0.75,2.0,1.0,0.5,1.0,-1.11,-0.17,0.45,214.03,1.9,-1.9,0.0,0.25,0.75,0.5,0.0,1.25,0.25,0.5,0.5,0.0,1.0,0.5,0.25,-0.36,-0.8,1.27,78.77,-4.9,-8.6
5.9,1.25,0.25,0.5,1.0,1.75,0.75,0.75,1.25,0.75,2.0,1.0,0.5,1.0,-1.11,-0.17,0.52,210.85,2.2,-7.5,0.0,0.25,1.0,0.25,0.0,1.0,0.25,0.5,0.75,0.0,0.75,0.5,0.25,-0.42,-0.67,1.33,79.63,-7.2,-8.7
5.92,1.25,0.5,1.0,1.0,2.5,0.5,1.0,1.5,0.75,2.0,1.0,0.5,1.0,-1.11,-0.23,0.45,208.2,3.7,-0.4,0.0,0.25,0.75,0.25,0.0,1.0,0.25,0.5,0.5,0.25,1.0,0.5,0.25,-0.48,-0.55,1.39,80.55,-4.6,-16.9
5.94,1.25,0.5,0.75,0.75,2.5,0.5,0.5,1.5,0.75,2.5,1.25,0.5,1.0,-1.11,-0.3,0.45,202.25,1.7,-6.9,0.0,0.0,0.75,0.25,0.0,1.25,0.25,0.5,0.5,0.25,1.0,0.5,0.25,-0.48,-0.17,1.58,80.01,-3.0,-20.2
5.96,1.75,0.25,0.75,1.0,2.5,0.5,1.0,1.0,0.75,2.25,0.75,0.5,0.75,-1.05,-0.36,0.64,203.77,4.5,3.3,0.0,0.25,1.0,0.5,0.0,0.5,0.25,0.5,0.25,0.25,0.75,0.5,0.25,-0.42,-0.23,1.89,77.61,-9.0,-9.7
5.98,1.25,0.5,1.0,0.5,2.5,0.75,1.0,0.75,0.75,2.25,0.75,0.75,0.75,-2.42,-0.11,1.27,204.54,3.7,0.1,0.0,0.25,0.75,0.25,0.0,1.0,0.25,0.5,0.5,0.0,1.0,0.5,0.25,-0.61,-0.11,2.02,76.53,-5.6,-14.0
6.0,0.0,0.0,0.25,0.0,2.5,0.0,1.0,0.75,0.0,0.5,0.0,0.25,0.0,-3.55,-0.23,1.02,165.39,-0.4,17.4,0.0,0.25,1.0,0.25,0.0,1.25,0.25,0.5,0.5,0.0,1.0,0.5,0.25,-0.67,0.08,2.58,78.88,-5.9,-8.5
6.02,0.25,0.0,0.75,0.0,0.0,0.0,0.75,0.25,0.0,0.5,0.0,0.25,0.0,-3.61,-0.67,1.02,105.78,16.7,2.1,0.0,0.25,1.0,1.0,0.0,1.0,0.25,0.5,0.75,0.0,0.75,0.5,0.25,-1.05,0.08,2.64,84.99,-8.5,-0.1
6.04,0.25,0.0,0.25,0.0,1.75,0.0,0.75,0.5,0.0,0.5,0.0,0.0,0.0,-2.92,-0.61,1.2,64.35,1.7,25.7,0.0,0.25,0.75,0.0,0.0,1.25,0.25,0.5,0.5,0.25,1.0,0.25,0.25,-1.3,0.08,2.52,84.73,-2.4,-13.8
6.06,0.0,0.0,0.25,0.0,0.75,0.0,0.5,0.5,0.0,0.5,0.0,0.0,0.0,-2.11,-0.61,0.95,30.81,-0.6,4.8,0.0,0.25,0.75,0.5,0.0,1.0,0.25,0.5,0.5,0.25,1.0,0.25,0.5,-1.11,0.14,2.08,85.77,-4.1,-13.5
6.08,0.25,0.0,0.25,0.0,1.25,0.0,0.5,0.75,0.0,0.5,0.0,0.0,0.0,-1.86,-0.61,0.64,19.5,0.1,16.2,0.0,0.25,0.75,0.5,0.0,1.0,0.25,0.5,0.75,0.25,1.0,0.25,0.5,-0.86,0.14,1.64,86.76,-4.5,-14.6
6.1,0.25,0.0,0.25,0.0,0.5,0.0,0.5,0.75,0.0,0.75,0.0,0.0,0.0,-1.48,-0.48,0.27,14.35,-0.1,-3.4,0.0,0.25,0.5,0.0,0.0,1.0,0.25,0.5,0.5,0.0,0.75,0.0,0.5,-0.73,-0.05,1.39,78.96,-0.8,-14.1
6.12,0.25,0.0,0.25,0.0,1.75,0.0,0.5,0.5,0.0,0.5,0.0,0.0,0.0,-1.11,-0.3,0.14,21.13,0.7,25.6,0.0,0.25,0.75,0.0,0.0,0.75,0.25,0.5,0.5,0.25,0.75,0.5,0.5,-0.55,-0.17,1.33,74.62,-4.0,-25.4
6.14,1.25,0.5,0.25,1.0,3.0,0.5,1.25,0.75,0.75,1.25,0.75,0.5,0.75,-0.48,-0.3,0.14,70.26,4.1,9.2,0.0,0.25,1.0,0.5,0.0,0.75,0.25,0.5,0.5,0.25,0.75,0.5,0.25,-0.3,-0.23,1.2,75.0,-7.7,-9.1
6.16,1.25,0.5,1.0,1.0,2.5,0.25,1.0,1.0,0.75,2.25,0.75,0.5,0.75,-0.11,-0.3,0.14,121.34,4.7,2.4,0.0,0.25,0.75,0.25,0.0,0.75,0.5,0.5,0.25,0.25,0.75,0.5,0.25,-0.05,-0.3,1.08,74.03,-6.0,-14.2
6.18,1.25,0.5,0.5,0.75,2.5,0.5,1.0,0.75,0.75,2.0,0.75,0.5,0.75,0.08,-0.3,0.14,161.79,3.4,1.8,0.0,0.25,0.75,0.25,0.0,0.5,0.25,0.5,0.5,0.0,1.0,0.5,0.5,0.02,-0.23,0.89,73.28,-7.3,-23.7
6.2,1.25,0.5,1.0,1.0,2.5,0.5,1.0,0.75,0.75,2.0,0.75,0.75,0.75,0.02,-0.3,0.08,188.94,5.1,3.1,0.0,0.25,0.75,0.25,0.0,0.5,0.25,0.5,0.5,0.0,0.75,0.25,0.5,-0.05,-0.11,0.83,70.46,-7.1,-16.0
6.22,1.25,0.5,0.25,1.0,2.25,0.25,1.25,0.75,0.75,2.0,0.75,0.5,0.75,-0.11,-0.3,0.08,199.05,3.9,0.2,0.0,0.25,0.75,0.25,0.0,0.5,0.25,0.5,0.5,0.0,0.75,0.25,0.5,-0.11,0.02,0.83,67.36,-7.1,-16.0
6.24,1.25,0.25,0.75,0.75,1.75,0.25,1.0,0.75,0.75,2.5,0.75,0.5,0.75,-0.11,-0.3,0.2,201.7,4.2,-6.7,0.0,0.25,0.75,0.5,0.0,1.25,0.25,0.5,0.5,0.25,1.0,0.75,0.25,-0.23,0.08,0.77,73.06,-4.2,-15.5
6.26,1.25,0.5,0.25,0.75,1.75,0.5,0.75,0.75,0.75,2.0,0.75,0.5,1.0,-0.17,-0.36,0.33,195.88,2.4,-6.2,0.0,0.25,0.5,0.25,0.0,1.0,0.25,0.5,0.5,0.0,0.75,0.5,0.25,-0.23,0.2,0.83,73.07,-3.5,-15.0
6.28,1.25,0.5,0.75,0.75,2.5,0.5,1.25,1.0,0.75,2.0,0.75,0.75,0.75,-0.36,-0.23,0.45,199.19,4.1,0.3,0.0,0.25,0.75,0.0,0.0,0.5,0.25,0.5,0.5,0.25,0.75,0.5,0.25,-0.05,0.27,0.83,72.61,-6.5,-23.7
6.3,1.25,0.5,0.75,0.75,1.75,0.25,1.0,0.5,0.75,2.0,0.5,0.5,1.0,-0.61,-0.11,0.45,193.5,5.2,-1.4,0.0,0.25,1.25,0.0,0.0,0.5,0.25,0.5,0.25,0.0,0.75,0.5,0.25,0.2,0.2,0.95,68.91,-11.2,-9.9
6.32,1.25,0.5,0.0,1.0,2.25,0.5,1.25,0.75,0.75,2.25,0.75,0.5,0.75,-0.73,0.02,0.45,191.37,2.3,-1.9,0.0,0.0,0.75,0.5,0.0,0.5,0.25,0.5,0.75,0.25,1.0,0.25,0.25,0.14,0.14,1.08,69.49,-7.7,-20.3
6.34,1.25,0.5,1.0,1.0,2.5,0.5,0.75,0.75,0.75,2.25,0.75,0.5,1.0,-0.73,0.02,0.58,192.57,4.1,1.4,0.0,0.25,0.75,0.25,0.0,0.5,0.5,0.5,0.5,0.0,0.75,0.5,0.5,0.52,-0.17,2.27,70.06,-7.8,-19.8
6.36,1.25,0.5,0.25,1.0,2.25,0.25,1.0,0.75,1.0,2.0,0.75,0.5,0.75,-0.73,0.14,0.64,186.7,3.8,-0.8,0.0,0.25,1.0,1.25,0.0,0.5,0.5,0.5,0.25,0.25,0.75,0.5,0.5,-0.05,0.08,0.95,78.13,-9.6,-4.4
6.38,0.25,0.0,1.0,0.0,0.5,0.0,0.5,0.0,0.0,0.5,0.0,0.0,0.0,-0.98,0.27,0.52,135.77,17.6,33.0,0.0,0.0,0.75,0.5,0.0,0.5,0.75,0.5,0.75,0.0,1.0,0.5,0.25,0.33,-0.42,1.02,80.0,-10.1,-19.7
6.4,0.25,0.0,0.25,0.0,0.5,0.0,0.0,0.25,0.0,0.5,0.0,0.25,0.0,-1.11,0.27,0.45,87.04,3.0,-2.5,0.0,0.25,0.75,0.5,0.0,0.5,0.75,0.5,0.75,0.25,1.0,0.5,0.25,0.2,0.14,0.83,84.34,-9.0,-16.7
6.42,0.0,0.0,0.0,0.75,0.5,0.25,0.25,0.5,0.75,2.0,0.0,0.75,0.0,-1.11,0.08,0.58,59.84,-2.4,-33.8,0.0,0.25,1.0,0.5,0.0,1.25,0.75,0.5,0.5,0.25,0.75,0.75,0.5,-0.11,0.27,0.89,90.21,-5.6,-12.4
6.44,0.25,0.0,0.0,0.0,0.5,0.0,0.5,0.5,0.0,0.5,0.0,0.25,0.0,-1.3,-0.11,0.52,33.07,0.0,-10.4,0.0,0.25,0.75,0.5,0.0,0.5,0.75,0.5,0.5,0.25,1.0,0.5,0.5,-0.11,0.2,0.95,91.33,-7.8,-20.0
6.46,0.25,0.0,0.0,0.0,0.5,0.0,0.25,0.75,0.0,0.5,0.0,0.0,0.0,-1.42,-0.17,0.45,21.16,-4.7,-4.4,0.0,0.25,1.0,0.0,0.0,0.75,0.5,0.5,0.75,0.25,1.0,0.75,0.5,-0.05,0.08,0.95,91.92,-6.8,-26.7
6.48,0.25,0.0,0.25,0.0,0.0,0.0,0.5,0.25,0.0,0.5,0.0,0.0,0.0,-1.42,-0.17,0.52,8.54,9.2,-1.5,0.0,0.25,0.75,0.25,0.0,1.25,0.5,0.5,0.75,0.0,1.0,1.0,1.25,-0.11,0.14,0.89,97.72,-2.8,-32.9
6.5,0.25,0.0,0.25,0.0,1.25,0.0,0.75,0.0,0.0,0.5,0.0,0.0,0.0,-1.3,-0.17,0.58,8.16,6.0,31.4,0.0,0.0,0.75,0.25,0.0,0.75,0.25,0.5,0.75,0.25,1.0,1.5,1.25,0.08,0.14,1.02,106.29,-3.4,-50.0
6.52,0.25,0.0,0.25,0.0,2.25,0.0,0.5,0.75,0.0,0.5,0.0,0.25,0.0,-1.17,-0.11,0.64,18.69,-0.2,18.6,0.0,0.25,0.75,0.0,0.0,1.0,0.25,0.5,0.75,0.25,1.25,2.0,1.25,0.02,0.2,1.08,117.01,-3.0,-50.8
6.54,0.5,0.0,0.0,0.0,0.0,0.0,0.25,0.0,0.0,0.5,0.0,0.0,0.0,-0.92,-0.05,0.77,16.84,11.3,10.3,0.0,0.0,0.75,0.0,0.0,1.25,0.25,0.5,0.5,0.25,1.25,2.0,1.5,-0.36,0.33,1.08,125.44,-1.2,-55.3
6.56,0.0,0.0,0.0,0.0,0.5,0.0,0.5,0.75,0.0,0.5,0.0,0.25,0.0,-0.8,0.02,0.77,19.06,-5.3,-24.4,0.0,0.25,0.75,0.5,0.0,1.25,0.25,0.5,0.75,0.75,1.25,2.25,1.75,-0.48,0.33,1.27,140.4,-1.5,-48.8
6.58,0.75,0.0,0.25,0.0,0.0,0.0,0.5,0.5,0.0,0.5,0.0,0.25,0.0,-0.61,0.08,0.77,19.21,11.4,2.5,0.0,0.25,0.75,0.25,0.0,1.25,0.25,0.5,0.75,0.25,1.5,2.25,2.25,-0.55,0.27,1.27,151.39,-1.4,-54.0
6.6,0.5,0.0,0.25,0.0,0.5,0.0,0.25,0.5,0.0,0.5,0.0,0.0,0.0,-0.61,0.02,0.77,27.73,4.9,15.8,0.0,0.25,0.75,0.0,0.0,1.0,0.25,0.5,0.75,0.25,1.25,2.25,2.25,-0.61,0.27,0.95,157.08,-1.3,-58.8
6.62,0.75,0.0,1.0,0.75,0.75,0.5,0.25,0.5,0.0,1.5,0.0,0.0,0.0,-0.61,0.02,0.77,55.7,5.9,18.3,0.0,0.25,0.75,0.25,0.0,1.25,0.25,0.5,0.75,0.0,1.25,2.25,2.25,-0.23,0.08,0.83,159.58,-1.6,-52.9
6.64,1.0,0.0,0.0,0.0,0.0,0.0,0.5,0.0,0.0,0.5,0.0,0.0,0.0,-0.42,0.14,0.64,52.62,19.4,35.9,0.0,0.25,0.5,0.5,0.0,1.0,0.25,0.5,0.75,0.0,1.5,2.5,2.5,0.2,0.02,0.64,161.85,-1.7,-58.4
6.66,1.25,0.5,0.0,1.0,0.0,0.75,0.25,0.0,0.75,1.75,0.0,0.25,0.0,-0.3,0.33,0.58,71.94,5.8,10.3,0.0,0.25,1.0,0.0,0.0,0.5,0.25,0.5,0.75,0.0,1.75,1.5,3.0,0.83,0.08,0.7,160.05,-2.7,-60.8
6.68,2.25,0.5,0.0,1.0,0.0,0.0,0.5,0.0,0.0,0.5,0.0,0.0,0.0,1.77,0.64,-0.05,77.23,22.2,64.9,0.0,0.25,0.75,0.25,0.0,1.25,0.25,0.25,0.75,0.5,2.0,2.5,3.0,0.95,0.08,0.7,169.56,-1.0,-60.6
6.7,2.5,0.5,0.25,1.0,1.75,1.0,0.75,0.75,0.0,2.25,0.75,0.5,0.75,0.77,0.89,0.64,124.05,4.2,9.0,0.0,0.25,0.75,0.25,0.0,1.25,0.25,0.25,0.75,0.25,2.0,2.5,3.0,0.64,-0.05,0.77,175.19,-1.3,-60.3
6.72,2.75,0.25,0.5,0.5,2.5,1.0,0.5,0.5,0.25,1.75,0.75,0.75,0.75,-0.23,0.39,0.83,158.34,5.4,11.7,0.0,0.25,0.75,0.0,0.0,1.25,0.25,0.5,0.75,0.5,1.5,2.25,3.0,-0.3,0.02,0.83,177.86,0.3,-61.2
6.74,2.5,0.5,0.75,0.75,2.5,1.0,0.5,1.0,0.5,2.25,0.5,0.5,1.0,-0.98,-0.11,0.77,196.99,4.0,9.3,0.0,0.25,0.75,0.0,0.0,0.75,0.25,0.5,0.75,0.25,1.75,2.25,3.0,-0.48,-0.05,0.83,175.16,-1.2,-65.5
6.76,3.0,0.5,1.25,0.5,2.25,1.0,0.5,0.75,0.75,2.0,0.75,0.5,1.0,-0.98,0.14,0.39,219.2,7.0,12.3,0.0,0.0,0.75,0.5,0.0,1.25,0.25,0.5,0.75,0.0,1.5,3.0,3.0,-0.11,-0.11,0.83,175.89,-1.4,-61.9
6.78,3.0,0.5,0.75,0.75,2.25,1.5,0.5,0.75,0.75,2.0,0.75,0.75,0.75,-0.8,0.14,0.45,235.75,5.6,12.2,0.0,0.0,0.75,0.0,0.0,1.25,0.25,0.5,0.75,0.0,1.5,2.25,2.5,0.27,-0.05,0.95,167.48,-0.7,-62.2
6.8,3.0,0.5,0.25,1.25,2.25,1.75,0.25,0.75,0.75,2.0,0.75,0.5,1.0,-0.86,0.14,0.52,240.49,3.8,12.2,0.0,0.0,0.75,0.0,0.0,1.25,0.25,0.5,0.75,0.25,1.5,2.25,2.5,0.39,0.08,0.83,161.73,-0.3,-62.5
6.82,3.0,0.5,0.5,1.25,2.5,1.75,0.5,0.5,0.5,2.5,0.5,0.5,0.75,-0.92,0.08,0.52,243.56,4.2,16.2,0.0,0.25,0.75,0.0,0.0,0.75,0.25,0.5,0.75,0.25,1.5,2.5,2.25,0.45,0.02,0.77,156.08,-2.4,-62.9
6.84,3.0,0.5,0.5,1.0,2.5,1.5,0.5,1.0,0.5,2.75,0.75,0.5,1.0,-0.67,0.27,0.52,246.74,3.2,8.7,0.0,0.0,0.5,0.0,0.0,1.25,0.25,0.5,0.75,0.0,1.25,2.75,2.75,0.39,-0.05,0.89,154.98,0.4,-68.7
6.86,3.0,0.25,0.75,1.0,2.5,1.5,0.75,0.75,0.25,2.25,0.5,0.5,0.5,-0.42,0.39,0.39,241.19,5.3,18.4,0.0,0.0,0.75,0.5,0.0,2.0,0.0,0.5,0.75,0.25,1.5,2.75,2.75,0.33,0.02,1.2,160.72,0.5,-55.2
6.88,3.0,0.5,0.75,1.75,2.5,1.75,0.75,1.0,0.25,0.5,0.75,0.0,0.75,-0.36,0.45,0.33,237.28,7.4,33.6,0.0,0.0,0.75,0.0,0.0,2.25,0.0,0.5,0.75,0.25,1.25,2.25,2.25,0.14,0.08,1.14,160.1,2.0,-53.1
6.9,1.25,0.0,0.0,0.0,1.75,0.0,0.0,0.5,0.0,0.5,0.0,0.0,0.0,-0.36,0.33,0.58,183.13,4.2,39.4,0.0,0.0,0.75,0.0,0.0,1.25,0.0,0.5,0.75,0.5,1.5,2.25,2.25,0.08,0.08,1.08,158.24,0.0,-62.7
6.92,1.25,0.0,1.0,0.0,2.25,0.0,0.75,0.5,0.0,0.5,0.0,0.0,0.0,-0.36,0.27,0.77,141.89,10.8,43.6,0.0,0.0,0.25,0.0,0.0,1.5,0.0,0.5,0.75,0.0,1.5,2.0,1.5,0.14,0.02,0.77,143.62,1.2,-61.0
6.94,1.0,0.0,0.25,0.0,0.75,0.0,0.0,0.25,0.0,0.5,0.0,0.0,0.75,-0.36,0.2,0.89,83.31,4.7,5.9,0.0,0.0,0.5,0.0,0.0,1.25,0.0,0.5,0.75,0.25,1.25,2.0,1.5,0.33,-0.05,0.7,133.28,0.1,-59.8
6.96,0.5,0.0,0.25,0.0,0.0,0.0,0.0,1.0,0.0,0.5,0.25,0.0,0.0,-0.17,0.14,1.02,46.6,1.6,-13.5,0.0,0.0,0.5,0.5,0.0,1.75,0.0,0.5,0.75,0.25,1.25,2.0,1.25,0.33,-0.05,0.89,126.11,0.0,-46.1
6.98,1.25,0.5,0.25,1.25,1.75,0.0,0.5,0.75,0.0,0.5,0.0,0.0,0.0,-0.11,0.08,1.14,43.79,8.9,45.0,0.0,0.0,0.75,0.0,0.0,1.25,0.0,0.5,0.75,0.0,1.25,2.0,1.75,0.08,0.14,1.14,123.42,-1.1,-57.1
7.0,0.0,0.0,0.0,0.0,0.0,0.0,0.25,0.5,0.0,0.5,0.0,0.0,0.0,-0.42,-0.48,1.14,23.58,-11.0,-48.1,0.0,0.0,0.75,0.25,0.0,1.5,0.0,0.5,0.75,0.0,1.25,2.0,1.75,-0.05,0.14,1.27,124.42,-0.9,-51.2
7.02,0.5,0.0,0.25,0.0,0.5,0.0,0.25,0.75,0.0,0.5,0.0,0.0,0.0,-0.92,-0.3,2.08,17.1,2.8,10.7,0.0,0.0,0.5,0.0,0.0,1.5,0.0,0.5,0.75,0.0,1.0,1.25,1.25,-0.17,0.08,1.08,116.53,1.2,-47.8
7.04,1.25,0.0,0.25,1.0,3.0,0.0,0.75,0.5,0.0,2.75,1.0,0.0,0.75,-0.11,0.02,1.14,53.41,1.5,0.1,0.0,0.0,0.75,0.5,0.0,1.25,0.0,0.5,0.75,0.0,1.0,1.0,1.25,-0.11,0.02,0.83,108.19,-1.9,-36.4
7.06,1.25,0.5,0.75,1.0,2.5,0.0,1.0,0.75,0.5,2.25,0.5,0.75,1.0,-0.61,-0.11,1.02,103.85,4.4,-0.6,0.0,0.5,0.75,0.5,0.0,1.25,0.25,0.5,0.75,0.25,1.0,0.75,1.0,-0.05,-0.05,0.45,100.99,-2.9,-22.1
7.08,1.25,0.5,1.0,0.5,0.75,0.0,1.0,0.75,0.75,2.5,1.0,0.5,0.75,-0.36,0.02,0.95,137.18,6.4,-13.0,0.0,0.0,0.75,0.25,0.0,1.25,0.25,0.5,0.75,0.0,1.0,0.75,1.0,-0.11,-0.11,0.58,93.65,-2.3,-33.2
7.1,1.25,0.5,0.25,0.75,2.25,0.0,0.75,0.75,0.75,2.75,1.0,0.5,0.75,-0.05,0.33,0.77,165.78,2.5,-8.3,0.0,0.25,0.75,0.25,0.0,1.25,0.25,0.5,0.75,0.0,1.0,0.75,0.75,-0.17,0.02,0.89,88.51,-3.3,-24.7
7.12,1.25,0.5,0.75,1.0,2.5,0.25,1.0,0.5,0.75,2.25,1.25,0.75,0.75,0.27,0.45,0.7,187.47,5.2,-2.0,0.0,0.25,0.75,0.5,0.0,0.75,0.25,0.5,0.5,0.25,1.0,0.5,0.5,-0.23,0.14,1.58,83.95,-5.5,-19.8
7.14,1.25,0.5,1.0,1.0,2.5,0.75,1.0,0.75,0.75,2.5,0.25,0.75,0.75,0.14,0.52,0.83,204.27,3.7,3.6,0.0,0.25,0.75,0.0,0.0,1.0,0.25,0.5,0.5,0.25,1.0,0.5,0.75,-0.23,0.33,1.45,79.83,-2.3,-29.0
7.16,1.25,0.5,0.5,1.0,2.5,0.75,1.0,0.75,0.0,2.75,2.0,0.75,1.5,0.58,0.64,1.14,216.34,1.6,-12.2,0.0,0.25,0.75,0.25,0.0,0.5,0.25,0.5,0.5,0.0,1.0,0.5,0.5,-0.05,0.2,1.14,73.28,-7.3,-23.7
7.18,1.25,0.5,0.5,0.75,3.0,0.5,1.25,0.75,0.75,2.75,2.25,0.75,1.5,-0.05,0.14,1.02,232.33,2.4,-13.6,0.0,0.25,0.75,0.25,0.0,0.25,0.25,0.5,0.5,0.25,1.0,0.5,0.5,0.02,0.27,0.89,68.42,-7.6,-29.2
7.2,1.25,0.5,0.5,0.5,2.5,0.5,0.75,0.75,0.5,1.0,2.0,0.5,1.75,-0.36,0.14,1.02,227.67,3.5,-8.8,0.0,0.25,0.75,0.5,0.0,0.75,0.25,0.25,0.5,0.0,1.0,0.5,0.5,-0.11,0.45,0.95,66.51,-7.6,-16.1
7.22,0.5,0.0,0.25,0.0,0.75,0.0,0.5,0.75,0.25,1.25,1.0,0.5,1.0,-0.55,0.2,0.95,191.14,0.4,-39.4,0.0,0.0,0.75,0.0,0.0,0.5,0.25,0.25,0.5,0.25,0.75,0.5,0.5,0.33,-0.61,0.64,62.36,-6.2,-35.9
7.24,0.25,0.0,0.25,0.0,1.75,0.0,0.5,0.5,0.5,1.25,0.5,0.75,0.75,-0.48,0.27,0.95,156.13,-0.2,-26.0,0.0,0.25,0.75,0.25,0.0,0.75,0.25,0.5,0.5,0.25,1.0,0.5,0.5,0.52,-0.55,1.33,65.57,-4.9,-23.6
7.26,1.25,0.5,0.25,0.5,0.0,0.75,0.75,0.5,1.0,2.75,0.75,0.75,1.0,-0.42,0.2,0.95,133.83,2.1,-26.2,0.0,0.0,0.75,0.0,0.0,1.25,0.25,0.5,0.5,0.0,1.0,0.75,0.5,0.2,-0.23,0.77,69.39,-2.6,-30.1
7.28,1.25,0.5,0.5,0.5,2.5,0.5,0.5,1.0,0.75,2.75,1.25,0.75,1.25,-0.3,0.14,0.89,143.61,1.0,-13.1,0.0,0.0,0.75,0.0,0.0,0.5,0.25,0.5,0.5,0.0,1.0,0.5,0.5,0.33,-0.05,0.52,68.5,-6.4,-36.0
7.3,0.25,0.0,0.5,0.0,2.5,0.5,0.75,0.75,0.75,2.75,1.0,0.5,1.5,-0.11,0.14,0.83,154.53,-2.8,-27.9,0.0,0.0,0.75,0.25,0.0,0.5,0.25,0.5,0.5,0.25,1.0,0.25,0.5,0.33,0.02,0.58,67.34,-5.7,-28.8
7.32,0.0,0.0,0.25,0.0,2.5,0.0,1.0,0.75,0.0,0.5,1.5,0.25,1.0,0.08,0.08,0.89,147.34,-0.1,-17.5,0.0,0.0,0.75,0.5,0.0,0.25,0.25,0.5,0.5,0.75,1.0,0.5,0.5,0.14,0.08,0.58,71.47,-5.7,-35.4
7.34,0.0,0.0,0.25,0.25,0.75,0.5,0.25,0.0,0.75,2.75,0.0,0.5,0.75,0.2,0.08,0.95,124.73,-5.3,-41.4,0.0,0.5,0.75,0.75,0.0,1.0,0.25,0.25,0.5,0.25,1.0,0.5,0.25,0.08,0.08,0.39,78.19,-7.0,-4.1
7.36,0.25,0.0,0.0,0.0,0.5,0.0,0.0,0.5,0.0,0.5,0.0,0.0,0.25,0.27,0.02,0.95,78.35,-6.5,-15.2,0.0,0.0,0.75,0.5,0.0,0.5,0.25,0.25,0.5,0.0,1.0,0.5,0.5,0.08,0.02,0.33,77.74,-8.9,-25.1
7.38,0.0,0.0,0.0,0.0,0.0,0.0,0.25,0.25,0.0,0.5,0.0,0.0,0.25,0.27,-0.11,1.02,37.27,-10.3,-64.2,0.0,0.0,0.75,0.0,0.0,0.5,0.25,0.5,0.25,0.25,1.0,0.5,0.5,0.08,0.08,0.33,75.52,-4.8,-38.1
7.4,0.0,0.0,0.0,0.0,0.0,0.0,0.0,0.0,0.0,0.5,0.0,0.25,0.5,0.2,-0.05,1.02,8.8,-10.0,-96.2,0.0,0.0,0.75,0.5,0.0,0.5,0.25,0.5,0.25,0.0,0.75,0.5,0.5,-0.05,0.27,0.58,70.93,-7.2,-22.4
7.42,1.25,0.5,0.5,0.5,2.5,0.5,0.75,0.5,0.75,2.5,0.5,0.5,0.25,0.08,-0.05,1.02,54.15,3.0,4.5,0.0,0.0,0.75,0.0,0.0,0.25,0.25,0.5,0.75,0.0,1.0,0.75,0.25,-0.05,0.45,0.7,67.73,-9.7,-39.8
7.44,1.25,0.5,0.25,0.5,2.5,0.5,0.75,1.0,0.75,2.5,0.75,0.75,1.0,-0.05,0.02,0.89,107.96,0.8,-8.8,0.0,0.25,0.75,0.5,0.0,1.25,0.25,0.5,0.5,0.5,1.0,0.5,0.5,0.52,0.2,0.83,75.71,-2.5,-18.0
7.46,1.25,0.25,0.75,0.5,2.5,0.25,0.75,1.0,0.75,2.75,0.75,0.5,0.75,-0.17,0.08,0.83,156.47,2.3,-6.2,0.0,0.25,0.75,0.75,0.0,0.5,0.25,0.5,0.5,0.25,1.0,0.5,0.5,0.2,0.14,3.77,81.54,-7.2,-18.4
7.48,1.25,0.5,0.5,0.75,2.5,0.25,0.5,1.0,0.5,2.5,0.5,0.5,0.75,-0.55,0.14,0.7,176.14,1.8,-0.9,0.0,0.25,0.75,1.25,0.0,0.75,0.25,0.5,0.5,0.0,1.0,0.75,1.0,0.39,-0.05,1.08,92.11,-6.3,-18.9
7.5,1.25,0.25,0.5,0.0,2.5,0.0,0.75,0.75,0.0,0.5,0.0,0.0,1.25,-0.86,0.45,1.02,164.75,3.5,16.5,0.0,0.25,0.75,0.0,0.0,0.5,0.25,0.5,0.5,0.25,1.0,0.75,1.0,-0.36,0.27,1.02,93.46,-4.0,-41.6
7.52,0.0,0.0,0.25,0.0,0.0,0.0,0.0,0.75,0.0,0.5,0.0,0.0,0.0,-0.42,0.33,0.64,116.48,-7.0,-33.9,0.0,0.0,0.75,0.0,0.0,1.25,0.25,0.5,0.75,0.0,1.0,0.5,0.75,-0.11,0.27,0.89,93.24,-2.0,-30.6
7.54,0.0,0.0,0.25,0.0,1.25,0.0,0.5,0.5,0.0,0.5,0.0,0.0,0.25,-0.11,0.08,1.02,83.31,-2.1,4.4,0.0,0.0,0.75,0.0,0.0,0.5,0.25,0.5,0.75,0.0,1.0,0.25,0.5,-0.05,0.14,0.89,82.82,-6.6,-31.9
7.56,0.25,0.0,0.25,0.0,0.0,0.0,0.5,0.5,0.0,0.5,0.0,0.0,0.0,-0.23,0.14,0.95,51.76,5.5,-6.9,0.0,0.0,0.75,0.5,0.0,0.5,0.25,0.5,0.5,0.25,1.0,0.75,0.75,-0.17,0.14,0.89,81.63,-5.6,-35.6
7.58,0.25,0.0,0.25,0.0,0.0,0.0,0.5,0.75,0.0,0.5,0.0,0.5,0.25,-0.23,0.14,0.89,39.3,2.2,-38.2,0.0,0.0,0.75,0.0,0.0,0.75,0.25,0.5,0.5,0.0,1.25,1.0,1.0,0.02,0.14,0.95,83.69,-3.8,-47.6
7.6,0.0,0.0,0.25,0.0,0.0,0.0,0.25,0.75,0.0,0.5,0.0,0.0,0.5,-0.36,0.08,0.83,30.6,-6.4,-48.7,0.0,0.0,0.75,0.25,0.0,1.25,0.25,0.5,0.25,0.25,1.0,1.0,1.0,0.02,0.2,1.02,91.0,-1.0,-37.5
7.62,0.25,0.0,0.0,0.0,0.0,0.0,0.25,0.75,0.0,1.25,0.0,0.25,0.5,-0.36,0.08,0.83,30.68,-8.0,-58.1,0.0,0.5,0.5,0.25,0.0,0.75,0.25,0.5,0.5,0.25,1.25,1.25,1.25,-0.05,0.2,0.95,99.79,-2.6,-42.4
7.64,0.0,0.0,0.0,0.0,0.5,0.0,0.0,0.75,0.0,1.25,0.25,0.25,1.0,-0.3,0.08,0.83,31.34,-10.5,-61.2,0.0,0.0,0.75,0.0,0.0,1.5,0.25,0.5,0.75,0.0,1.0,1.25,1.25,0.02,0.14,0.95,106.11,-0.7,-42.6
7.66,0.25,0.0,0.0,0.0,0.5,0.0,0.25,0.75,0.75,2.75,0.0,0.5,0.75,-0.23,0.02,0.83,45.64,-6.6,-53.9,0.0,0.5,0.75,0.5,0.0,1.75,0.25,0.5,0.75,0.25,1.0,2.0,1.25,0.02,0.14,0.89,119.57,-1.9,-33.4
7.68,0.0,0.0,0.0,0.0,0.75,0.75,0.0,0.75,0.75,3.0,0.0,0.75,0.5,-0.3,0.08,0.83,71.32,-9.5,-48.0,0.0,0.0,0.75,0.5,0.0,1.25,0.0,0.5,0.5,0.0,1.25,2.0,1.25,-0.05,0.14,0.95,124.46,-2.8,-46.7
7.7,0.0,0.0,0.0,0.0,0.0,0.5,0.0,0.75,1.0,2.75,0.0,0.75,1.25,-0.23,0.08,0.89,94.67,-9.3,-68.9,0.0,0.0,0.5,0.0,0.0,0.5,0.0,0.5,0.75,0.25,1.5,2.25,1.25,-0.05,0.14,0.95,129.59,-3.1,-69.2
7.72,0.25,0.0,0.0,0.0,0.0,0.0,0.0,0.5,0.25,2.75,0.5,0.5,1.0,-0.3,0.08,0.89,105.0,-7.8,-72.8,0.0,0.0,0.75,0.5,0.0,0.75,0.0,0.5,0.75,0.25,1.75,2.25,2.0,0.02,0.14,0.95,138.55,-3.0,-59.6
