time,left pressure 0[N/cm虏],left pressure 1[N/cm虏],left pressure 2[N/cm虏],left pressure 3[N/cm虏],left pressure 4[N/cm虏],left pressure 5[N/cm虏],left pressure 6[N/cm虏],left pressure 7[N/cm虏],left pressure 8[N/cm虏],left pressure 9[N/cm虏],left pressure 10[N/cm虏],left pressure 11[N/cm虏],left pressure 12[N/cm虏],left acceleration X[g],left acceleration Y[g],left acceleration Z[g],left total force[N],left center of pressure X[mm],left center of pressure Y[mm],right pressure 0[N/cm虏],right pressure 1[N/cm虏],right pressure 2[N/cm虏],right pressure 3[N/cm虏],right pressure 4[N/cm虏],right pressure 5[N/cm虏],right pressure 6[N/cm虏],right pressure 7[N/cm虏],right pressure 8[N/cm虏],right pressure 9[N/cm虏],right pressure 10[N/cm虏],right pressure 11[N/cm虏],right pressure 12[N/cm虏],right acceleration X[g],right acceleration Y[g],right acceleration Z[g],right total force[N],right center of pressure X[mm],right center of pressure Y[mm]
0.02,1.5,0.25,1.0,1.0,2.5,1.0,1.5,0.5,0.25,0.5,0.0,0.0,0.0,-0.48,-0.8,0.64,0.0,9.2,44.6,1.75,1.25,4.5,5.25,6.75,6.5,2.75,7.0,4.75,3.5,3.0,0.75,1.75,0.08,0.14,0.95,749.56,-2.4,6.8
0.04,1.5,0.25,1.25,0.75,2.25,0.25,1.5,0.5,0.25,0.5,0.0,0.0,0.0,-0.42,-0.73,0.64,0.0,13.0,45.3,3.0,1.75,4.75,5.25,7.0,6.5,2.75,7.0,4.75,3.5,2.75,0.75,1.25,0.08,0.14,0.95,752.22,-3.5,12.0
0.06,0.75,0.0,1.25,0.75,0.0,1.0,1.5,0.0,0.25,0.5,0.0,0.0,0.0,-0.3,-0.67,0.77,0.0,16.2,38.0,2.25,1.25,4.75,7.0,7.0,7.0,2.75,6.75,4.75,3.5,2.75,0.75,1.25,0.08,0.14,0.95,760.33,-3.4,12.0
0.08,1.0,0.0,2.25,1.0,2.5,0.5,1.5,0.75,0.25,0.5,1.25,0.0,0.0,-0.17,-0.55,1.08,0.0,12.4,28.5,3.5,1.5,4.75,7.25,7.0,6.75,3.0,6.75,5.25,3.0,2.5,0.75,1.5,0.08,0.14,0.95,783.99,-4.5,14.7
0.1,0.25,0.25,1.25,0.5,1.75,0.25,2.0,0.75,0.25,0.5,0.0,0.0,0.0,-0.17,-0.36,1.14,7.46,10.1,31.8,3.75,1.5,5.0,7.25,7.0,6.75,3.25,6.5,5.25,2.25,3.25,0.5,1.5,0.08,0.14,0.95,805.26,-5.3,16.2
0.12,0.25,0.0,1.0,0.25,0.0,0.25,1.5,0.25,0.25,0.5,0.0,0.0,0.0,-0.17,-0.17,1.2,14.95,17.5,20.5,4.75,1.5,5.5,8.5,7.0,6.5,3.75,6.25,5.25,2.25,2.75,0.5,1.75,0.08,0.14,0.95,843.17,-6.6,19.4
0.14,0.5,0.0,1.0,0.25,0.0,1.0,1.5,0.25,0.25,0.5,0.0,0.0,0.0,-0.17,0.02,1.33,21.85,11.9,26.8,5.5,1.75,6.5,8.75,7.75,6.5,4.0,6.0,5.5,2.25,2.5,0.75,1.25,0.08,0.14,0.95,893.51,-7.8,23.1
0.16,0.25,0.0,1.0,0.0,0.0,0.5,1.5,0.25,0.0,0.5,0.0,0.0,0.0,-0.23,0.2,1.39,28.04,14.9,23.0,5.5,1.75,6.5,10.0,8.25,6.75,4.25,5.75,5.5,2.25,2.75,0.5,1.25,0.02,0.14,0.95,952.62,-7.9,24.7
0.18,0.25,0.0,1.0,0.25,0.0,0.5,1.5,0.5,0.25,0.5,0.25,0.0,0.0,-0.3,0.33,1.64,35.53,12.8,12.2,6.25,2.25,7.5,10.5,8.25,7.0,4.5,5.75,5.25,2.25,2.75,0.5,1.25,0.08,0.14,0.95,1021.08,-8.7,27.2
0.2,1.75,1.0,1.25,1.75,0.75,0.5,1.5,0.5,0.5,0.0,0.0,0.75,0.0,-0.36,0.52,1.7,77.13,17.2,42.6,7.0,2.5,8.0,12.0,8.75,7.0,4.75,5.75,5.0,2.0,2.5,0.5,1.5,0.08,0.14,0.95,1099.17,-9.4,30.0
0.22,0.25,0.0,2.25,0.25,2.5,0.0,1.75,0.75,0.25,0.5,0.0,0.0,0.0,-0.42,0.77,1.83,99.4,12.6,34.9,7.5,2.5,8.5,14.0,9.5,7.0,5.0,5.0,4.25,2.0,2.75,0.5,1.25,0.08,0.14,0.95,1182.33,-10.2,33.5
0.24,0.5,0.25,1.0,0.0,1.75,0.25,1.5,0.0,0.25,0.5,0.0,0.0,0.0,-0.42,0.95,1.89,105.24,11.9,40.6,8.0,3.0,9.25,15.5,11.0,7.0,5.0,4.75,3.25,2.0,2.25,0.5,1.5,0.02,0.14,0.95,1276.35,-10.5,37.1
0.26,0.5,0.0,1.0,0.0,2.5,0.0,1.5,0.0,0.25,0.5,0.0,0.0,0.0,-0.61,1.27,1.89,103.22,11.0,40.2,8.5,3.0,10.0,17.0,12.0,7.0,5.0,3.75,2.0,1.75,2.5,0.5,1.5,0.02,0.2,0.95,1346.98,-11.3,40.7
0.28,0.5,0.25,1.0,0.0,2.25,0.0,1.5,0.0,0.25,0.5,0.0,0.0,0.0,-0.73,1.58,1.77,99.13,11.8,42.1,9.0,2.5,11.0,18.0,12.5,7.0,4.75,3.25,1.5,1.5,2.0,0.5,0.25,0.02,0.2,1.08,1389.37,-12.5,46.2
0.3,0.25,0.0,1.0,0.0,2.5,0.0,1.5,0.0,0.25,0.5,0.0,0.0,0.0,-0.61,2.08,1.02,94.35,10.0,37.8,9.75,3.0,11.5,17.5,14.0,7.0,3.75,2.25,0.5,0.75,1.5,0.5,0.0,0.02,0.2,1.2,1409.18,-13.2,52.4
0.32,0.5,0.0,1.0,0.25,2.25,0.0,1.25,0.0,0.25,0.5,0.0,0.0,0.0,-0.05,2.64,0.52,91.51,11.5,40.6,10.5,2.5,12.5,18.0,14.0,6.25,3.5,2.0,0.75,0.75,0.75,0.5,0.75,0.08,0.27,1.14,1418.91,-13.9,52.4
0.34,0.75,0.0,1.0,0.0,2.25,0.0,1.5,0.0,0.25,0.5,0.0,0.0,0.0,1.08,3.27,0.08,98.06,12.7,41.9,10.5,2.5,12.5,18.0,13.0,6.25,2.5,2.0,0.0,0.75,0.75,0.5,1.0,0.02,0.33,1.14,1405.81,-14.0,52.9
0.36,0.25,0.0,1.0,0.0,2.25,0.0,1.25,0.0,0.25,0.5,0.0,0.0,0.0,1.7,2.95,0.08,96.28,10.2,37.2,11.0,3.5,12.5,16.5,12.5,5.25,2.5,0.75,0.75,0.75,0.75,0.5,0.5,0.02,0.33,1.14,1373.27,-15.4,56.0
0.38,2.25,1.25,1.0,0.0,0.0,2.25,1.0,0.0,0.5,1.5,0.0,0.75,0.0,0.89,0.14,0.83,114.53,8.7,27.3,11.5,4.0,11.5,14.0,9.5,5.0,3.5,0.75,0.5,0.75,0.5,0.0,0.25,0.08,0.45,1.2,1293.94,-16.6,59.4
0.4,2.0,1.0,2.0,0.75,2.5,2.5,1.5,0.75,0.5,1.75,1.0,0.75,1.0,-1.05,-0.73,1.58,168.12,5.6,15.0,10.5,3.5,11.0,12.0,8.25,5.0,4.5,0.5,0.5,0.5,1.0,0.25,0.75,0.14,0.58,1.33,1160.34,-16.7,56.0
0.42,1.75,1.0,1.75,0.0,2.5,2.5,1.5,0.75,0.5,2.0,1.25,0.75,1.0,0.14,0.27,0.52,209.1,3.9,8.4,9.5,3.0,9.75,9.25,7.0,2.75,5.0,0.5,0.25,0.0,0.0,0.0,0.25,0.33,1.02,1.89,959.0,-19.2,62.8
0.44,2.0,0.25,1.75,0.0,2.5,1.0,1.5,1.0,0.25,0.5,1.75,0.75,1.5,0.39,0.27,1.14,227.63,7.8,4.1,8.5,0.0,8.5,7.25,5.25,2.75,4.75,0.5,0.25,0.5,0.75,0.0,0.5,0.45,1.33,2.39,746.51,-19.2,54.3
0.46,0.0,0.0,1.5,0.0,0.0,0.25,0.75,0.75,0.75,1.75,0.75,3.5,0.5,0.7,0.27,3.02,218.7,6.5,-56.5,7.25,1.75,5.75,5.25,3.0,2.75,3.0,0.5,0.25,0.5,0.75,0.25,0.5,0.45,1.27,2.39,541.35,-18.0,53.8
0.48,1.25,1.25,2.25,0.75,0.5,2.5,0.25,3.0,2.25,4.25,4.5,4.75,1.5,0.33,0.64,1.33,271.53,2.9,-34.7,5.75,1.0,4.5,4.0,1.5,2.25,1.75,0.5,0.5,0.5,0.75,0.25,0.5,0.33,0.7,2.7,370.0,-18.1,49.1
0.5,2.25,1.25,3.75,2.5,0.0,3.5,2.5,4.75,3.5,5.25,5.5,5.25,3.5,-0.05,0.14,1.08,372.89,4.2,-29.0,2.75,1.0,1.25,3.25,1.5,2.75,1.5,0.5,0.0,0.5,0.75,0.5,0.5,0.2,-0.55,2.02,248.89,-9.8,37.7
0.52,0.5,0.0,2.25,1.5,0.0,3.25,3.0,3.75,3.5,5.0,5.25,5.25,3.0,-0.05,0.08,0.95,470.91,1.9,-44.4,2.0,1.0,2.25,2.75,0.0,2.25,1.25,0.5,0.0,0.75,0.5,0.5,0.5,0.2,0.02,0.52,153.48,-12.5,33.7
0.54,2.0,0.75,3.75,2.25,0.75,4.0,3.75,5.0,4.5,6.5,6.0,6.0,4.5,-0.11,0.08,0.95,611.85,3.2,-33.6,2.0,0.75,2.25,3.0,0.0,2.25,1.25,0.5,0.25,0.75,0.25,0.5,0.25,0.45,-1.11,2.02,85.47,-13.1,36.4
0.56,2.0,1.75,4.0,2.5,3.0,3.75,4.25,6.0,5.25,6.5,6.0,5.75,5.0,-0.05,0.08,0.95,736.73,3.1,-26.5,1.75,1.0,2.25,3.0,0.0,0.5,1.25,0.5,0.25,0.5,0.5,0.5,0.5,0.33,-1.11,1.64,44.31,-17.6,33.7
0.58,1.75,1.25,3.75,3.25,4.75,3.75,4.5,6.5,5.75,7.0,7.75,6.25,5.25,-0.11,0.08,0.95,870.97,2.7,-27.6,1.25,1.0,2.25,2.5,0.0,2.5,1.25,0.5,0.25,0.5,0.5,0.5,0.5,0.27,-0.61,0.95,39.83,-11.0,30.5
0.6,2.25,1.75,5.25,3.75,4.5,4.25,4.25,6.75,6.0,6.5,7.75,6.0,5.25,-0.05,0.08,0.95,982.27,3.9,-22.1,1.5,0.75,2.25,2.75,1.25,2.75,1.0,0.5,0.25,0.75,0.5,0.5,0.5,0.27,-0.3,0.27,64.88,-8.9,31.4
0.62,2.0,1.25,5.25,3.5,6.0,4.75,4.5,6.75,6.0,6.5,7.75,6.0,5.25,-0.05,0.08,0.95,1076.22,3.3,-21.3,0.0,0.0,1.75,1.0,1.25,0.5,1.5,0.5,0.0,0.0,0.5,0.0,0.75,0.2,-0.17,0.39,57.11,-11.1,19.7
0.64,2.0,1.25,5.5,3.5,6.0,5.5,4.75,6.75,6.25,6.5,7.25,5.5,4.75,-0.11,0.08,0.95,1123.06,3.3,-18.5,0.25,0.25,0.5,0.5,0.0,0.5,0.5,0.0,0.0,0.5,0.0,0.5,0.0,0.14,-0.17,0.77,29.69,-10.3,12.4
0.66,2.5,1.25,5.5,3.25,6.25,5.5,4.75,6.75,6.25,5.75,6.75,5.0,4.25,-0.11,0.08,0.95,1133.1,3.7,-15.0,1.75,0.75,0.5,2.75,0.0,2.0,0.5,0.25,0.25,0.5,0.5,0.5,0.25,0.08,-0.23,1.14,46.75,-9.6,32.3
0.68,2.5,1.25,5.5,4.75,6.25,5.75,5.0,6.75,6.25,5.25,6.25,4.0,3.5,-0.11,0.08,0.95,1119.05,4.2,-9.1,1.75,0.75,1.75,2.25,1.25,2.25,1.0,0.5,0.0,0.5,0.5,0.5,0.5,0.08,-0.05,1.27,88.66,-9.5,33.6
0.7,2.0,1.25,5.5,4.0,6.25,5.75,4.75,6.75,6.0,5.0,5.75,3.0,2.75,-0.11,0.08,0.95,1055.55,3.9,-6.9,1.0,0.75,1.75,2.25,1.25,2.5,1.0,0.5,0.0,0.5,0.5,0.5,0.5,0.08,0.08,1.2,132.83,-7.5,30.0
0.72,2.25,1.25,5.5,5.25,6.25,5.75,4.75,6.5,6.0,4.25,5.25,2.5,1.5,-0.11,0.08,0.95,974.95,5.0,0.0,1.25,0.75,1.75,2.0,1.25,2.75,1.0,0.5,0.25,0.5,1.0,0.5,0.75,0.08,0.33,1.33,172.5,-7.0,23.2
0.74,3.0,1.5,5.5,5.0,6.25,5.75,4.75,6.25,6.0,3.5,4.5,2.5,1.5,-0.11,0.08,0.95,911.23,5.7,3.7,1.25,0.75,1.75,2.0,1.25,2.5,1.0,0.5,0.25,0.75,0.5,0.5,1.0,0.02,0.45,1.58,194.96,-6.6,22.2
0.76,3.0,1.25,5.5,5.0,6.25,5.75,4.75,6.0,6.0,3.5,4.5,2.25,1.5,-0.11,0.08,0.95,868.92,5.7,4.0,1.25,0.75,1.75,2.0,1.25,2.5,1.0,0.5,0.25,0.75,0.5,0.25,0.5,0.14,0.52,1.83,199.29,-7.4,30.0
0.78,3.0,1.25,5.5,5.0,6.75,5.75,4.75,5.75,6.0,3.0,3.5,1.75,1.5,-0.11,0.08,0.95,815.84,5.8,8.1,1.75,0.5,1.75,1.5,1.25,2.5,1.0,0.5,0.25,0.75,0.5,0.5,0.5,0.2,0.7,2.14,198.71,-7.9,27.3
0.8,3.0,1.25,5.75,6.0,7.25,6.25,4.75,5.75,6.0,3.0,3.25,1.5,1.5,-0.11,0.08,0.95,799.43,5.8,10.9,1.25,0.75,1.75,1.5,1.25,2.25,0.75,0.5,0.25,0.75,1.25,0.5,0.5,0.2,1.08,2.27,200.1,-7.5,20.3
0.82,4.25,1.25,6.0,6.75,8.0,6.0,4.75,5.75,6.0,2.75,3.5,1.0,1.5,-0.11,0.08,0.95,811.04,6.8,15.3,1.25,0.75,1.75,1.75,1.25,2.25,1.0,0.5,0.25,0.5,0.5,0.5,0.25,0.39,2.14,2.27,197.24,-8.7,31.6
0.84,4.0,1.25,6.25,7.0,8.0,5.75,4.75,5.75,5.75,3.0,3.25,1.0,1.5,-0.11,0.08,0.95,831.12,6.9,15.5,1.25,0.75,1.75,1.75,1.25,2.0,1.0,0.5,0.25,0.75,0.5,0.5,0.25,0.33,3.58,0.7,195.72,-8.8,29.4
0.86,5.25,1.75,6.75,7.0,8.0,6.0,5.0,5.75,6.0,3.0,2.25,1.25,1.5,-0.11,0.08,0.95,869.57,7.6,19.2,1.75,0.0,1.75,0.25,1.25,0.5,1.0,0.5,0.0,0.0,0.5,0.0,0.5,0.45,4.58,0.08,176.4,-15.8,36.7
0.88,5.75,1.75,7.0,8.25,8.25,6.75,5.0,5.25,6.0,3.25,2.5,0.75,1.5,-0.11,0.08,0.95,921.46,7.9,21.9,0.0,0.0,0.0,1.25,0.0,2.0,0.25,0.0,0.25,0.5,0.0,0.5,0.0,-0.73,5.02,-1.3,135.46,3.7,9.1
0.9,6.5,2.75,8.25,10.5,9.25,7.0,5.25,4.75,5.25,3.0,2.5,0.75,1.5,-0.11,0.08,0.95,1012.68,9.1,28.1,1.5,0.75,1.75,1.5,0.0,0.5,0.75,0.5,0.0,0.0,0.0,0.0,0.5,-1.8,4.64,-1.42,107.44,-18.9,49.3
0.92,7.75,2.75,8.75,12.5,9.5,7.0,5.5,4.75,5.0,3.0,2.25,0.75,1.5,-0.11,0.08,0.95,1121.97,10.0,31.1,0.0,0.5,0.0,1.5,0.0,2.75,0.25,0.0,0.75,2.25,0.25,0.5,0.5,-0.3,-0.42,0.39,100.16,5.3,-10.4
0.94,8.75,2.75,10.0,14.5,12.0,7.25,5.75,4.5,4.25,3.0,2.25,0.75,1.5,-0.11,0.08,0.95,1277.28,10.5,34.9,1.0,0.75,1.75,1.75,1.25,2.75,1.0,2.25,1.25,4.75,2.75,3.25,3.0,0.45,0.95,4.89,187.96,-0.4,-30.4
0.96,9.75,3.0,11.0,16.0,13.0,7.25,5.25,3.25,3.75,2.5,2.0,0.75,1.5,-0.05,0.14,1.08,1385.26,11.6,39.6,1.25,0.5,1.75,0.0,0.5,2.75,1.5,3.25,2.75,5.25,5.0,4.5,3.5,0.02,-0.05,0.89,280.72,-0.5,-46.5
0.98,11.5,1.75,12.5,16.0,14.0,7.0,5.5,3.0,2.75,2.5,1.0,0.75,1.5,-0.11,0.14,1.27,1465.55,12.6,43.1,1.75,0.25,2.25,2.0,1.5,3.0,1.5,3.75,3.5,5.5,5.0,4.5,4.0,0.02,0.14,0.95,395.93,-1.7,-35.6
1.0,12.0,2.0,14.5,0.0,14.0,6.25,3.0,3.0,2.25,2.75,1.25,0.75,1.0,-0.11,0.2,1.33,1405.38,12.5,41.8,0.5,0.75,2.5,2.75,1.5,3.75,2.0,4.5,4.75,6.25,6.5,4.75,5.25,0.08,0.14,0.89,536.35,-0.8,-38.6
1.02,13.0,2.75,14.5,15.0,12.5,4.75,2.75,3.0,2.0,2.75,2.0,0.75,1.0,-0.17,0.27,1.39,1423.48,14.7,45.4,2.0,1.25,4.0,3.0,3.0,4.75,2.5,5.25,5.5,6.5,6.75,4.5,5.5,0.08,0.14,0.95,689.8,-2.3,-26.1
1.04,14.0,2.75,14.5,13.0,10.0,3.75,1.75,2.25,1.25,2.25,2.0,0.75,1.0,-0.17,0.39,1.64,1376.61,16.6,48.3,2.0,1.25,4.25,3.0,4.5,5.0,2.75,6.0,6.0,6.0,6.25,4.0,4.75,0.08,0.14,0.95,814.34,-2.4,-20.2
1.06,12.5,2.0,12.0,9.5,8.25,2.5,2.75,0.75,1.0,0.5,0.75,0.25,1.0,-0.42,0.52,2.27,1250.23,19.1,56.1,2.25,1.5,4.75,4.0,5.25,5.25,3.25,6.25,6.0,5.25,6.5,3.25,4.0,0.08,0.14,0.95,919.17,-3.4,-12.6
1.08,11.5,1.75,11.0,7.0,6.5,2.0,4.0,0.75,1.0,2.0,1.25,0.75,0.75,-1.05,0.95,2.27,1044.95,18.9,48.7,3.0,1.5,5.0,5.25,5.25,5.75,3.5,6.0,6.0,3.75,5.0,2.0,3.0,0.08,0.14,0.95,973.06,-4.8,-0.9
1.1,9.5,1.25,10.5,6.25,4.75,1.75,4.0,0.75,0.75,2.0,0.5,0.75,0.0,-1.05,0.89,2.27,827.49,20.2,51.0,3.25,1.5,5.25,5.5,6.25,6.0,3.5,6.0,5.75,3.5,4.0,1.5,2.0,0.08,0.14,0.95,991.08,-5.1,6.4
1.12,7.0,0.5,7.0,2.5,2.5,0.0,1.5,0.0,0.0,0.75,0.0,0.0,0.0,-0.86,0.7,2.58,535.95,26.2,65.9,3.5,1.5,6.25,7.0,7.0,6.25,3.75,5.75,5.25,2.25,2.75,0.75,1.25,0.08,0.14,0.95,979.49,-6.7,18.3
1.14,4.25,0.0,3.75,0.5,2.5,1.75,1.5,0.0,0.5,0.75,1.0,0.0,0.5,-0.67,-0.42,2.39,317.85,16.4,41.5,3.75,1.75,6.5,7.25,7.0,6.25,3.25,5.0,4.75,2.0,2.75,0.5,1.25,0.08,0.14,0.95,949.04,-7.3,21.9
1.16,1.25,0.0,1.75,0.25,2.5,0.25,1.25,0.0,0.25,0.5,0.0,0.0,0.0,-0.3,-0.61,1.08,158.58,14.7,48.1,4.5,1.75,6.5,8.75,7.25,6.25,3.5,4.75,4.0,1.75,2.5,0.5,0.75,0.08,0.14,0.95,922.38,-8.3,27.5
1.18,1.0,0.0,0.0,0.0,2.5,0.0,1.25,0.5,0.25,0.0,0.0,0.0,0.0,-0.98,-1.42,1.64,11.54,7.1,45.1,4.75,1.75,6.5,8.75,8.25,6.25,3.0,3.75,3.0,1.5,2.25,0.5,1.25,0.08,0.14,0.95,884.22,-8.4,30.6
1.2,1.0,0.0,0.5,1.0,1.25,0.0,1.25,0.5,0.5,0.75,0.0,0.0,0.0,-0.86,-1.11,1.14,0.0,11.2,28.9,5.0,2.25,6.5,10.5,8.25,6.25,2.5,3.5,2.0,1.25,2.0,0.5,1.25,0.08,0.2,0.95,870.55,-8.9,35.3
1.22,1.0,0.0,0.75,0.75,2.5,0.5,0.25,0.0,0.0,0.5,0.0,0.0,0.0,-0.55,-0.73,0.33,0.0,7.9,49.4,5.5,2.25,6.5,10.5,8.5,6.25,2.5,2.75,1.5,0.75,1.75,0.5,0.25,0.08,0.2,0.95,842.71,-10.1,42.5
1.24,1.0,0.0,0.25,0.75,2.5,0.0,0.0,0.0,0.25,0.75,0.0,0.0,0.0,-0.42,-0.61,0.33,0.0,6.4,41.1,6.0,2.0,7.0,11.0,9.5,6.25,2.0,2.25,1.5,0.75,1.75,0.5,1.25,0.08,0.2,0.95,838.81,-10.1,41.1
1.26,1.0,0.0,1.0,1.0,2.5,0.75,0.25,0.0,0.25,0.5,0.0,0.0,0.0,-0.3,-0.48,0.58,0.0,8.4,46.7,6.25,2.5,7.5,12.0,9.5,6.25,2.0,2.0,1.0,1.0,1.25,0.5,0.25,0.02,0.2,0.89,843.19,-11.1,47.1
1.28,1.0,0.0,0.75,0.25,2.5,0.75,0.25,0.0,0.25,0.5,0.0,0.0,0.0,-0.17,-0.42,0.95,0.0,6.2,44.8,7.0,2.5,7.5,13.5,9.75,6.25,2.0,2.0,0.75,0.5,1.0,0.5,0.75,0.08,0.2,0.95,875.07,-11.5,48.7
1.3,1.0,0.0,0.25,0.25,0.0,0.25,0.5,0.25,0.25,0.75,0.0,0.0,0.0,-0.11,-0.36,1.14,0.0,11.4,19.2,7.5,2.5,8.5,14.0,11.0,6.25,2.0,2.0,0.75,1.0,0.75,0.5,0.5,0.08,0.2,0.95,928.29,-11.7,49.6
1.32,0.5,0.75,0.5,0.25,0.0,0.0,1.0,0.25,0.25,0.5,0.0,0.0,0.0,-0.11,-0.23,1.14,0.0,16.2,35.7,8.0,2.5,9.25,15.5,12.0,6.25,2.0,2.0,0.5,1.0,0.75,0.5,0.75,0.02,0.2,0.95,1010.31,-12.0,50.1
1.34,1.0,0.0,1.0,0.0,0.0,0.25,1.25,0.25,0.0,0.5,0.0,0.0,0.0,-0.11,0.02,1.14,3.58,20.8,36.9,8.5,2.25,9.5,16.5,12.5,6.75,2.0,2.0,0.5,0.75,1.0,0.5,0.75,0.02,0.2,0.95,1096.25,-12.0,50.4
1.36,0.5,0.25,1.0,0.75,0.0,0.0,1.25,0.0,0.25,0.5,0.0,0.0,0.0,-0.11,0.14,1.39,30.08,22.4,38.2,9.0,2.5,10.0,17.0,14.0,7.0,2.0,1.75,0.25,0.75,0.75,0.5,0.5,0.02,0.2,0.95,1187.04,-12.1,52.7
1.38,0.75,0.0,0.75,0.25,2.25,0.0,1.0,0.0,0.0,0.75,0.0,0.0,0.0,-0.17,0.27,1.58,52.81,9.6,40.6,9.5,2.5,11.0,17.5,14.0,7.0,1.5,1.25,0.0,0.5,0.75,0.25,0.5,0.02,0.27,1.02,1259.36,-13.0,55.4
1.4,0.25,0.25,1.0,0.25,2.25,0.0,1.25,0.0,0.25,0.5,0.0,0.0,0.0,-0.23,0.39,1.95,74.84,10.6,40.9,9.5,3.5,12.0,17.5,14.5,6.5,1.5,1.0,0.0,0.75,0.75,0.5,0.5,0.02,0.27,1.02,1318.8,-13.4,55.5
1.42,0.75,0.75,1.0,0.0,2.25,0.0,1.25,0.0,0.25,0.5,0.0,0.0,0.0,-0.42,0.58,2.27,90.33,12.3,49.0,10.5,3.75,12.5,18.5,15.5,6.25,1.5,0.5,0.0,0.5,0.25,0.5,0.5,0.02,0.27,1.08,1366.84,-14.1,58.3
1.44,1.0,0.0,1.0,0.0,2.5,0.0,1.25,0.0,0.0,0.5,0.0,0.0,0.0,-0.61,1.14,2.58,95.54,12.4,48.2,11.5,4.5,13.0,18.0,14.5,6.25,1.5,0.5,0.0,0.5,0.5,0.5,0.75,0.02,0.33,1.14,1407.42,-14.7,58.3
1.46,0.75,0.0,1.0,0.0,2.25,0.0,1.25,0.0,0.0,0.5,0.0,0.0,0.0,1.77,4.2,5.14,96.77,12.3,45.8,12.0,4.75,13.5,18.0,14.0,6.0,1.5,0.5,0.25,0.5,0.5,0.25,0.5,0.14,0.39,1.2,1435.32,-15.3,59.6
1.48,0.25,0.25,1.0,0.25,1.75,0.0,1.25,0.0,0.25,0.5,0.0,0.0,0.0,-0.61,3.14,1.45,93.34,12.2,39.5,11.5,4.5,13.5,17.0,12.5,5.0,2.0,0.5,0.25,0.5,0.25,0.25,1.0,0.2,0.52,1.27,1419.21,-16.0,58.9
1.5,0.5,0.25,1.0,0.0,0.5,0.75,1.0,0.0,0.0,0.5,0.0,0.0,0.0,0.08,4.64,0.27,83.82,12.0,40.9,11.5,4.25,13.5,14.0,9.5,4.0,3.0,0.5,0.25,0.5,0.5,0.0,0.75,0.14,0.58,1.45,1345.75,-17.9,60.1
1.52,0.5,0.0,1.0,0.0,0.0,2.5,1.0,0.0,0.5,0.5,0.0,0.5,0.0,2.2,5.58,-1.48,86.6,3.4,15.5,9.5,1.75,11.0,11.0,7.0,2.75,4.75,0.25,0.25,0.5,0.25,0.0,0.0,0.27,0.89,2.2,1129.62,-19.8,61.0
1.54,0.5,0.0,1.0,0.0,0.0,0.25,0.75,0.25,0.0,0.5,0.75,1.0,0.0,0.52,-0.11,-0.23,82.06,14.6,-18.6,8.75,1.5,8.5,8.75,3.75,3.0,4.5,0.0,0.25,0.5,0.0,0.0,0.0,0.52,1.45,2.83,858.22,-20.7,62.5
1.56,0.5,0.0,1.0,0.0,0.0,2.0,0.75,0.5,0.25,1.0,0.5,2.5,0.25,-0.36,-0.42,1.64,97.91,3.0,-29.7,7.0,1.0,7.75,7.0,3.25,2.75,3.0,0.25,0.25,0.5,0.25,0.25,0.0,0.58,1.39,2.77,615.98,-20.0,58.4
1.58,0.75,0.0,1.0,0.0,1.25,1.75,0.75,1.0,1.25,3.5,2.0,4.25,1.75,0.89,1.39,2.14,161.77,0.5,-46.8,5.0,0.0,5.75,4.75,3.5,2.5,1.5,0.5,0.0,0.5,0.5,0.25,0.5,0.45,0.08,3.14,417.36,-16.6,49.9
1.6,2.0,0.25,0.0,2.5,2.25,4.0,0.75,5.75,3.25,5.25,4.5,5.75,4.75,0.08,0.7,1.39,298.07,-1.9,-39.3,2.25,0.75,4.0,3.0,1.0,2.75,1.0,0.5,0.25,0.5,0.5,0.25,0.25,0.45,-1.05,2.14,276.03,-14.3,43.3
1.62,1.75,1.25,3.75,2.5,2.5,4.0,3.0,5.75,3.75,5.5,6.0,5.75,4.25,0.02,0.2,0.95,475.46,2.7,-27.5,1.75,0.0,3.0,3.0,1.5,2.75,0.75,0.5,0.25,0.5,0.5,0.5,0.25,0.64,-1.42,2.14,179.97,-11.2,35.6
1.64,2.0,1.25,3.75,3.5,5.0,4.25,3.5,6.5,4.75,6.75,6.25,6.25,4.25,-0.11,0.08,0.89,706.38,2.4,-23.1,2.0,0.25,2.25,3.0,1.5,1.0,1.0,0.0,0.0,0.5,0.0,0.25,0.25,0.45,-1.55,1.89,90.75,-16.2,49.0
1.66,2.25,1.25,3.75,3.0,6.0,5.0,4.0,6.75,5.5,6.5,7.25,6.25,4.75,-0.05,0.14,0.95,900.28,2.2,-22.6,2.0,0.0,2.25,3.0,1.5,2.5,1.0,0.5,0.0,0.5,0.0,0.5,0.0,0.27,-0.98,1.14,45.7,-11.3,43.3
1.68,2.5,1.25,4.5,3.5,6.25,5.25,4.25,7.25,5.75,6.75,7.75,6.25,4.75,-0.11,0.08,0.95,1061.67,2.7,-20.6,1.25,0.5,2.0,2.75,1.5,2.75,0.75,0.0,0.0,0.5,0.25,0.25,0.25,0.2,-0.73,0.7,29.11,-9.2,42.7
1.7,2.25,1.25,5.0,4.5,6.25,6.0,4.5,7.5,6.0,6.5,7.75,5.5,4.25,-0.05,0.08,0.95,1166.0,3.0,-16.7,1.75,0.75,1.75,2.75,1.5,2.25,0.75,0.25,0.0,0.5,0.5,0.25,0.5,0.02,-0.36,0.58,45.7,-9.8,39.1
1.72,2.75,1.25,5.0,4.5,6.25,5.75,4.5,7.25,6.0,5.25,6.75,5.0,3.5,-0.05,0.08,0.95,1206.64,3.8,-11.9,0.5,0.5,2.0,2.75,1.5,2.75,0.5,0.5,0.0,0.5,0.5,0.5,0.5,-0.17,-0.17,0.83,69.32,-6.1,28.6
1.74,2.75,1.25,5.5,5.25,6.25,6.0,4.5,7.0,6.0,5.0,6.0,4.0,2.25,-0.11,0.08,0.95,1198.25,4.5,-5.4,1.25,0.75,2.0,2.75,1.5,2.75,0.25,0.5,0.25,0.5,1.0,0.25,0.25,-0.23,-0.17,1.02,106.71,-8.0,33.6
1.76,3.0,1.25,5.5,5.0,6.25,6.25,4.75,6.75,6.0,3.75,5.25,3.0,1.5,-0.11,0.08,0.95,1135.63,5.2,0.8,1.25,0.75,1.75,2.75,1.25,2.5,0.5,0.25,0.25,0.5,0.5,0.5,0.25,-0.17,-0.05,1.14,135.61,-8.9,35.3
1.78,3.0,1.25,5.5,5.0,6.5,6.25,4.75,6.5,5.75,3.5,4.5,2.5,1.5,-0.11,0.08,0.95,1059.01,5.2,3.8,1.0,0.75,1.75,2.75,1.5,2.5,0.5,0.5,0.25,0.5,0.5,0.25,0.5,-0.11,0.08,1.33,158.26,-7.2,33.0
1.8,3.25,1.25,6.0,6.0,7.75,6.25,4.75,6.0,5.5,3.25,3.75,2.25,1.5,-0.11,0.08,0.95,992.07,5.8,9.4,1.0,0.75,1.75,2.75,1.5,2.75,0.5,0.5,0.25,0.5,0.5,0.25,0.5,-0.11,0.2,1.58,174.69,-6.7,33.1
1.82,3.75,1.25,6.25,7.25,8.0,6.25,4.5,5.75,5.25,3.0,3.25,1.25,1.5,-0.05,0.08,0.95,940.22,6.4,15.4,1.25,0.5,1.75,2.25,1.25,2.5,0.25,0.5,0.25,0.5,0.5,0.25,0.5,0.02,0.39,1.83,183.98,-7.2,31.4
1.84,4.0,1.25,6.5,6.75,8.0,6.0,4.5,5.75,5.0,2.5,3.0,0.5,1.5,-0.05,0.08,0.95,890.1,6.9,18.7,1.0,0.75,1.75,2.25,1.25,2.5,0.5,0.5,0.25,0.5,1.25,0.25,0.25,0.27,0.58,2.2,191.01,-7.7,28.3
1.86,5.0,1.25,6.75,8.25,8.0,6.25,4.75,5.0,5.0,2.75,2.25,1.0,1.5,-0.11,0.08,0.95,882.71,7.9,21.8,1.0,0.75,1.75,1.75,1.5,2.0,0.5,0.0,0.25,0.5,0.5,0.25,0.75,0.58,1.27,2.64,185.64,-8.1,30.7
1.88,5.75,1.5,7.0,8.25,8.25,6.25,4.5,4.75,4.25,1.75,2.25,0.75,1.25,-0.11,0.14,0.95,873.14,8.8,27.5,1.25,0.75,1.75,2.0,1.25,1.5,0.5,0.0,0.0,0.75,0.25,0.5,0.5,0.77,2.14,2.83,179.22,-10.4,33.6
1.9,6.25,1.75,7.0,10.5,9.0,6.25,4.5,4.75,4.25,2.0,2.25,1.25,1.25,-0.11,0.14,0.95,909.29,9.1,28.4,1.0,0.5,1.75,2.0,1.25,0.75,0.5,0.5,0.25,0.5,0.5,0.5,0.5,0.77,2.45,-0.73,167.42,-11.4,25.5
1.92,7.0,2.25,8.25,10.5,9.5,6.5,4.5,3.75,3.75,2.25,2.0,0.5,1.25,-0.11,0.14,0.95,955.42,10.1,34.0,1.25,0.75,1.75,1.75,1.25,1.5,0.5,0.5,0.25,0.5,0.75,0.5,0.75,1.39,5.08,-0.23,167.61,-9.2,23.3
1.94,7.75,2.5,8.75,13.0,9.5,6.75,4.5,3.0,3.25,2.0,1.75,0.75,1.5,-0.11,0.14,0.95,1032.98,11.1,37.3,1.0,0.75,1.75,1.5,1.25,2.0,0.25,0.5,0.25,0.5,0.5,0.5,1.0,-0.86,5.33,-1.55,167.67,-6.5,20.6
1.96,8.75,2.75,9.25,13.0,10.5,6.25,4.5,3.0,2.25,2.25,1.0,0.75,1.5,-0.11,0.14,0.95,1103.56,11.5,40.9,1.0,0.75,1.75,1.5,0.5,2.75,0.25,0.5,0.25,2.0,0.75,1.0,1.5,-2.05,5.95,-1.67,180.7,-2.7,-1.5
1.98,8.75,2.0,10.0,14.5,12.0,6.75,4.5,1.75,2.0,2.0,0.75,0.75,0.25,-0.11,0.14,1.02,1165.96,12.4,46.8,0.0,0.0,1.75,0.25,1.25,1.5,0.5,2.25,1.0,5.25,2.0,3.25,4.0,1.2,0.64,4.08,229.96,3.0,-53.1
2.0,10.5,2.0,11.0,13.5,12.5,6.5,3.0,3.0,1.5,2.25,2.0,0.5,1.25,-0.11,0.14,1.02,1237.0,12.0,43.1,0.25,0.0,0.5,0.25,0.0,1.25,0.0,3.5,2.0,5.25,2.75,4.5,3.75,-0.11,0.89,1.64,279.24,4.0,-67.5
2.02,9.5,1.25,11.0,13.0,12.5,6.0,1.5,1.0,1.0,0.5,0.75,0.25,0.25,-0.11,0.2,1.08,1207.69,13.9,54.2,1.25,0.5,2.25,1.5,1.5,2.75,1.5,3.75,3.25,5.25,4.5,4.5,4.75,-0.05,0.14,0.95,370.4,-0.9,-38.9
2.04,12.0,3.0,12.0,13.5,12.0,5.0,0.75,0.75,0.75,1.0,0.5,0.0,0.25,-0.05,0.2,1.08,1199.31,15.6,58.5,2.0,0.75,2.25,2.75,1.5,3.75,2.0,4.0,4.75,5.5,6.0,4.5,4.75,0.08,0.14,0.89,488.67,-2.2,-32.4
2.06,11.5,2.75,11.5,14.0,11.0,3.75,0.75,0.75,0.75,2.0,0.5,0.75,0.0,-0.17,0.27,1.33,1159.49,15.9,55.1,2.0,1.0,3.0,3.0,3.0,4.75,2.25,5.0,5.5,5.25,6.5,4.25,4.75,0.08,0.14,0.95,627.61,-2.2,-25.4
2.08,13.0,3.0,13.0,13.5,12.0,3.5,0.0,1.0,0.25,2.0,0.5,0.5,0.75,-0.23,0.39,1.45,1172.18,16.1,55.5,2.25,1.25,4.75,3.0,4.75,5.0,2.5,5.0,6.25,5.25,6.5,3.25,3.75,0.08,0.14,0.95,751.98,-3.7,-14.8
2.1,11.5,2.75,11.0,11.0,8.0,3.75,0.25,0.75,0.5,2.0,0.5,0.75,0.0,-0.11,0.45,1.89,1079.01,16.9,55.5,3.5,1.5,4.75,3.75,5.25,5.0,3.0,5.0,6.5,3.5,6.25,2.25,2.75,0.08,0.14,0.95,844.89,-5.6,-3.7
2.12,12.0,1.25,12.0,8.5,8.0,2.75,1.5,0.75,0.25,0.5,0.75,0.0,0.75,-0.8,0.77,2.33,975.12,19.2,58.4,3.75,1.5,5.75,5.25,5.25,5.5,3.75,5.0,6.5,2.75,5.0,2.0,1.75,0.08,0.14,0.95,904.17,-7.2,5.6
2.14,9.0,1.5,10.5,7.0,6.25,2.0,2.0,0.5,0.25,1.0,0.5,0.75,0.0,-1.11,1.02,2.45,802.03,19.6,56.2,5.5,1.5,6.5,5.75,6.0,5.75,4.0,4.75,6.0,2.25,4.5,1.25,1.25,0.08,0.14,0.95,943.7,-8.8,15.5
2.16,7.75,1.25,7.0,3.5,3.5,1.0,0.75,0.25,0.5,1.0,0.0,0.25,0.0,-0.86,0.64,2.39,582.87,21.4,60.3,5.75,1.5,7.5,7.0,7.0,5.75,4.0,3.75,5.5,1.75,2.75,0.75,1.5,0.08,0.14,0.95,966.9,-9.9,24.5
2.18,6.25,1.25,4.75,0.0,2.5,1.5,0.75,0.0,0.25,1.75,0.0,0.75,0.0,-0.55,0.27,3.14,379.19,18.5,50.7,6.25,1.75,7.5,8.0,7.0,5.75,4.25,3.5,4.75,1.5,2.5,0.5,1.5,0.08,0.14,0.95,976.71,-10.5,28.8
2.2,4.25,0.0,3.75,0.25,3.75,0.0,0.5,0.75,0.0,0.5,0.0,0.0,0.0,-0.36,-1.23,2.02,245.54,18.9,58.2,6.75,1.75,8.5,8.75,7.75,5.75,3.75,2.25,3.75,1.0,2.25,0.5,1.0,0.08,0.14,0.95,969.9,-12.2,36.6
2.22,2.25,0.0,1.75,1.25,2.5,0.0,0.5,0.0,0.0,0.75,0.0,0.0,0.0,-0.92,-0.98,1.89,129.11,16.6,54.5,7.25,1.75,8.5,10.0,8.25,5.5,3.75,2.0,2.75,0.75,2.0,0.5,1.0,0.08,0.14,0.95,956.17,-12.7,40.6
2.24,3.0,1.25,1.25,2.5,2.5,2.5,0.75,0.0,0.25,1.25,0.0,0.75,0.0,-0.73,-1.36,1.64,80.83,9.2,43.6,8.0,2.25,8.5,10.5,8.5,5.25,3.0,2.0,2.0,0.75,2.0,0.5,1.0,0.02,0.2,0.95,948.28,-13.0,43.4
2.26,2.0,1.25,2.75,2.5,2.5,2.5,1.5,0.75,0.25,0.5,0.75,0.5,0.75,-0.48,-1.05,0.64,88.64,9.9,34.2,8.25,2.25,8.75,10.5,9.0,5.0,2.5,1.5,1.5,0.5,1.75,0.5,1.0,0.02,0.2,0.95,929.52,-13.6,46.5
2.28,1.25,1.25,2.75,2.5,3.0,2.5,1.5,0.75,0.5,1.25,0.75,0.75,0.5,-0.36,-0.86,0.45,117.15,7.8,27.2,8.25,2.25,9.0,10.5,9.5,5.0,2.25,1.25,1.0,0.75,1.25,0.5,0.0,0.02,0.2,0.95,909.95,-14.1,51.6
2.3,2.25,1.25,2.75,2.5,2.5,2.25,1.5,0.5,0.5,1.25,0.75,1.0,0.75,-0.05,-0.73,0.7,150.15,9.9,27.0,8.75,1.0,9.25,12.0,9.5,5.0,2.0,0.5,0.75,0.75,0.75,0.5,0.5,0.02,0.2,0.89,891.33,-14.7,52.5
2.32,2.0,1.25,1.0,2.5,2.5,2.5,1.75,0.5,0.5,0.5,0.75,0.75,0.75,0.27,-0.55,1.08,168.31,7.4,29.1,8.75,2.5,9.25,12.5,9.5,0.0,1.5,0.75,0.75,0.75,0.75,0.5,0.25,0.02,0.2,0.89,857.1,-18.2,56.3
2.34,1.0,0.0,1.0,0.0,2.5,0.0,1.0,0.0,0.25,0.5,0.0,0.0,0.0,0.27,-0.48,1.2,136.56,12.0,45.1,9.5,2.0,9.25,13.0,11.0,3.25,1.25,0.5,0.5,0.5,0.25,0.5,0.5,0.08,0.27,0.95,865.28,-15.6,57.0
2.36,1.0,0.0,1.0,0.0,2.5,0.25,0.75,0.0,0.25,0.5,0.0,0.0,0.0,0.2,-0.3,1.2,101.5,10.3,45.1,9.5,2.25,10.0,11.5,11.0,5.25,1.5,0.5,0.0,0.5,0.75,0.5,0.5,0.02,0.27,0.95,885.02,-14.5,56.1
2.38,1.25,0.0,1.0,0.0,0.0,0.5,0.75,0.0,0.25,0.5,0.0,0.0,0.0,0.2,-0.17,1.39,63.05,20.2,41.2,9.75,3.0,10.5,14.0,11.0,5.5,1.25,0.5,0.25,0.5,0.5,0.25,0.25,0.02,0.27,0.95,943.73,-14.9,58.5
2.4,1.25,0.0,0.0,0.25,0.0,0.0,1.0,0.0,0.0,0.25,0.0,0.0,0.0,0.2,0.02,1.58,37.74,26.3,57.2,11.0,3.25,11.0,15.5,12.0,5.0,1.0,0.75,0.25,0.5,0.5,0.5,0.5,0.02,0.27,0.95,1030.48,-15.1,57.8
2.42,1.0,0.0,0.0,0.0,0.75,0.0,0.75,0.0,0.25,0.5,0.0,0.0,0.0,0.14,0.2,1.77,19.85,12.5,34.5,12.0,3.0,11.0,15.5,12.5,4.5,0.75,0.25,0.0,0.75,0.5,0.25,0.5,0.02,0.33,1.02,1107.79,-15.7,59.7
2.44,1.0,0.0,0.75,0.75,0.75,0.0,0.75,0.0,0.25,0.5,0.0,0.0,0.0,0.02,0.33,2.08,23.03,17.8,43.2,10.5,3.0,11.5,14.0,12.5,2.75,0.5,0.5,0.0,0.5,0.75,0.0,0.5,0.02,0.33,1.02,1123.44,-16.5,60.0
2.46,1.25,0.0,0.0,0.0,0.75,0.0,0.75,0.0,0.25,0.5,0.0,0.0,0.0,-0.3,0.64,2.27,17.79,14.2,39.2,12.5,4.25,11.5,14.5,12.5,3.25,0.75,0.5,0.0,0.0,0.25,0.0,0.5,0.02,0.33,1.08,1145.78,-17.0,63.8
2.48,1.0,0.0,0.0,0.0,0.0,0.0,0.75,0.0,0.0,0.5,0.0,0.0,0.0,-0.48,0.95,2.83,1.72,20.3,35.3,12.0,4.0,11.0,14.0,12.5,3.75,0.25,0.0,0.0,0.0,0.0,0.0,0.0,0.02,0.39,1.14,1132.39,-16.9,66.3
2.5,0.75,0.0,0.0,0.0,0.0,0.0,0.75,0.0,0.25,0.5,0.0,0.0,0.0,0.02,4.33,5.83,0.0,17.3,17.2,12.0,4.75,11.0,14.0,9.5,4.25,0.5,0.0,0.25,0.25,0.0,0.0,0.0,0.14,0.45,1.2,1111.04,-17.6,66.1
2.52,0.75,0.0,0.0,0.0,0.0,0.0,1.0,0.0,0.0,0.0,0.0,0.0,0.0,-0.92,2.52,1.64,0.0,33.9,69.2,13.0,5.0,12.5,14.0,9.5,4.0,1.5,0.25,0.25,0.5,0.5,0.25,0.5,0.2,0.52,1.2,1122.2,-18.0,62.2
2.54,0.75,0.0,1.25,0.0,0.0,0.25,0.75,0.0,0.0,0.0,0.0,0.0,0.0,-0.61,4.27,-0.55,0.0,30.9,63.8,12.5,4.75,12.5,12.0,7.0,2.75,3.0,0.0,0.25,0.5,0.0,0.0,0.5,0.27,0.64,1.33,1079.09,-20.3,64.9
2.56,1.25,0.0,1.0,0.0,0.0,0.0,0.75,0.5,0.25,0.5,0.5,0.0,0.0,2.45,6.89,-1.23,23.93,19.5,19.5,11.0,3.5,11.0,10.5,5.5,2.75,4.0,0.0,0.0,0.25,0.25,0.25,0.0,0.33,1.02,1.89,975.53,-21.1,64.9
2.58,1.0,0.0,1.0,0.0,0.0,0.25,0.75,0.75,0.0,0.5,0.75,0.5,0.0,2.39,3.58,-0.05,53.45,13.9,-0.8,8.5,1.75,8.75,7.0,1.5,2.25,3.25,0.0,0.0,0.0,0.0,0.0,0.0,0.52,1.58,2.89,746.56,-24.3,67.8
2.6,0.75,0.0,1.0,0.0,0.0,1.0,0.75,0.75,0.25,0.5,0.5,2.25,0.5,-0.36,-0.05,2.27,81.52,7.0,-31.1,7.0,1.0,7.5,5.0,0.0,1.0,1.5,0.0,0.0,0.0,0.0,0.0,0.0,0.58,1.39,2.83,510.33,-28.3,70.6
2.62,0.75,0.0,1.0,0.0,0.0,1.25,0.25,0.0,0.25,1.5,1.0,4.0,1.5,0.77,1.14,0.2,124.45,3.9,-55.7,6.0,0.75,5.0,4.25,0.5,0.0,0.25,0.0,0.0,0.5,1.0,0.25,0.5,0.52,0.02,3.08,325.69,-25.3,54.8
2.64,0.0,0.25,0.75,0.0,0.0,3.5,0.5,2.5,1.5,5.25,3.0,5.75,3.75,-0.36,0.95,3.39,226.86,-4.2,-62.0,3.25,1.0,3.25,1.5,1.25,0.25,0.5,0.25,0.25,0.5,0.5,0.25,0.25,0.39,-0.61,1.83,208.64,-20.6,49.4
2.66,1.0,0.75,0.0,1.0,2.5,4.0,0.0,6.0,3.75,6.25,5.5,7.0,5.25,0.02,0.33,1.27,373.87,-3.3,-48.6,2.0,0.5,2.5,3.0,1.75,1.5,0.25,0.0,0.25,0.5,0.0,0.25,0.25,1.14,-0.8,2.14,128.94,-14.1,48.7
2.68,1.25,1.25,2.25,2.25,2.5,4.25,0.75,7.0,4.5,6.25,6.5,7.0,5.25,-0.05,0.14,0.95,583.88,-0.1,-37.9,2.0,0.0,2.25,3.0,1.5,0.25,0.25,0.5,0.0,0.5,0.25,0.25,0.25,0.77,-1.36,1.77,71.89,-16.6,42.9
2.7,2.0,1.25,3.75,2.0,5.0,5.0,2.75,7.0,5.25,7.5,7.75,7.25,5.25,-0.11,0.14,0.95,820.59,1.3,-29.9,2.0,0.0,2.25,3.0,1.5,0.5,0.25,0.0,0.25,0.5,0.5,0.25,0.5,0.45,-0.73,1.08,43.97,-16.3,38.6
2.72,2.0,1.25,3.75,2.5,3.0,5.0,3.5,7.5,5.75,7.5,8.5,7.75,5.5,-0.05,0.08,0.95,1002.19,1.8,-33.6,1.75,0.0,0.5,2.75,1.5,0.5,0.0,0.5,0.25,0.5,0.25,0.25,0.25,0.39,-0.42,0.45,21.77,-10.6,35.3
2.74,2.0,1.25,3.75,2.5,3.0,4.75,3.5,7.5,5.5,7.5,8.5,7.0,5.25,-0.05,0.08,0.95,1101.04,1.8,-32.5,1.5,0.25,2.0,2.75,1.5,1.5,0.25,0.5,0.25,0.5,0.0,0.25,0.25,0.33,-0.3,0.39,32.65,-11.3,41.0
2.76,2.0,1.25,3.75,2.5,3.75,5.0,3.5,7.25,5.5,7.0,8.25,7.0,5.25,-0.11,0.08,0.95,1133.26,1.9,-30.5,1.5,0.0,2.0,2.75,1.5,0.5,0.25,0.5,0.25,0.5,0.0,0.25,0.25,0.08,-0.11,0.58,43.67,-14.4,40.2
2.78,1.5,1.25,3.75,2.5,3.5,4.75,3.5,7.0,5.5,6.5,7.75,6.25,4.75,-0.11,0.08,0.95,1105.51,1.9,-29.7,1.25,0.0,2.0,2.0,1.25,1.25,0.25,0.25,0.25,0.5,0.0,0.25,0.25,-0.11,-0.11,0.77,69.26,-12.2,38.6
2.8,2.25,1.25,3.75,2.5,4.25,4.75,3.5,6.75,5.5,6.0,7.25,6.0,4.0,-0.11,0.08,0.95,1055.89,2.6,-24.5,1.0,0.0,2.0,2.0,1.25,0.25,0.25,0.25,0.25,0.5,0.0,0.0,0.25,0.02,-0.05,0.77,85.1,-15.8,41.9
2.82,2.0,1.25,3.5,2.5,5.0,5.0,3.75,6.75,5.5,5.25,6.75,5.5,3.5,-0.11,0.08,0.95,991.89,2.4,-21.1,1.0,0.0,1.75,2.5,1.25,0.25,0.25,0.5,0.25,0.5,0.0,0.25,0.5,0.08,0.02,0.83,107.35,-13.3,31.7
2.84,2.0,1.25,4.0,2.5,6.0,5.0,4.25,6.5,5.5,5.25,6.25,5.25,3.0,-0.11,0.08,0.95,940.07,2.9,-16.7,1.25,0.0,1.75,2.0,1.25,0.5,0.25,0.0,0.25,0.5,0.25,0.25,0.25,0.08,0.08,1.08,115.54,-15.1,37.3
2.86,2.0,1.25,4.25,2.5,5.75,5.5,4.25,6.25,5.5,5.0,6.0,4.5,2.25,-0.05,0.08,0.95,878.24,3.2,-13.0,1.25,0.0,1.75,1.75,1.25,0.25,0.25,0.0,0.25,0.5,0.0,0.25,0.25,0.02,0.2,1.33,118.29,-16.4,40.2
2.88,1.25,1.25,3.5,2.75,6.25,5.75,4.25,6.25,5.75,4.5,6.0,4.25,1.5,-0.11,0.08,0.95,812.41,2.6,-11.9,1.0,0.0,1.75,1.75,1.25,0.25,0.25,0.0,0.25,0.5,0.0,0.25,0.25,0.02,0.33,1.45,119.07,-15.8,38.4
2.9,2.0,1.25,3.75,4.0,6.25,5.75,4.5,6.0,6.0,4.25,5.75,3.75,1.5,-0.11,0.08,0.95,775.39,3.7,-6.8,1.0,0.25,1.75,1.75,1.25,0.25,0.5,0.0,0.25,0.75,0.25,0.25,0.25,-0.11,0.45,1.83,120.3,-14.8,33.5
2.92,3.0,1.25,4.25,5.0,6.25,5.75,4.5,6.0,6.0,3.5,5.25,2.75,1.5,-0.11,0.08,0.95,765.18,5.0,0.4,1.25,0.0,1.75,1.25,1.25,0.25,0.5,0.25,0.25,0.5,0.5,0.25,0.25,-0.36,0.7,2.33,121.2,-15.2,29.6
2.94,3.5,1.25,5.0,5.0,6.25,6.25,4.5,5.75,6.0,3.25,4.75,2.5,1.5,-0.11,0.08,0.95,771.55,5.6,4.1,1.0,0.5,1.75,1.5,1.25,1.0,0.5,0.5,0.25,0.5,0.25,0.25,0.5,-0.55,1.14,2.77,130.33,-10.4,29.9
2.96,4.25,1.25,5.5,5.75,7.75,6.5,4.75,5.75,6.0,3.0,4.5,2.5,1.5,-0.05,0.08,0.95,815.04,6.2,8.9,1.0,0.0,1.75,1.5,1.25,0.5,0.25,0.25,0.0,0.5,0.25,0.25,0.0,-0.67,2.14,2.89,129.08,-14.4,39.0
2.98,5.75,1.5,5.75,6.75,8.0,7.0,4.75,5.75,5.75,2.5,3.5,1.75,1.5,-0.05,0.08,0.95,871.83,7.0,16.7,1.25,0.0,1.75,1.5,1.25,2.0,0.5,0.25,0.0,0.5,0.25,0.25,0.0,-1.3,3.14,0.89,135.07,-9.5,39.6
3.0,7.0,1.5,7.0,8.25,8.5,7.0,5.0,4.75,5.25,3.0,3.0,1.25,1.5,-0.05,0.08,0.95,944.07,8.5,23.0,1.0,0.0,1.75,1.75,0.5,0.5,0.25,0.0,0.25,0.5,0.25,0.25,0.5,-1.3,5.52,0.08,129.71,-15.6,27.8
3.02,8.0,2.25,8.25,10.5,9.5,7.0,5.25,4.75,4.5,3.0,2.25,1.25,1.5,-0.11,0.08,0.95,1046.36,9.6,29.2,1.0,0.5,1.75,1.5,1.25,1.5,0.5,0.5,0.0,0.0,0.0,0.0,0.0,-4.86,6.58,-1.11,133.46,-11.5,54.1
3.04,8.5,2.5,9.25,13.0,10.0,7.0,5.25,3.25,3.75,3.0,2.25,1.0,1.5,-0.11,0.14,1.02,1153.74,10.9,34.4,0.0,0.0,0.0,0.0,0.0,0.0,0.0,0.0,0.0,0.0,0.0,0.0,1.5,-0.42,-1.17,3.45,97.14,13.7,-109.9
3.06,10.5,2.75,10.5,13.5,12.0,6.75,4.75,3.0,2.0,2.75,2.25,0.75,1.5,-0.05,0.14,1.08,1270.11,11.8,40.4,0.25,0.0,0.0,0.0,0.0,1.25,0.0,0.25,0.25,3.25,0.5,2.5,2.5,-0.42,1.08,1.89,115.08,7.3,-74.1
3.08,12.5,2.75,12.0,15.0,13.0,6.0,0.25,2.75,1.5,2.5,2.0,1.0,1.5,-0.05,0.2,1.2,1355.19,12.7,44.3,0.0,0.0,0.0,0.75,0.0,3.25,0.25,3.5,2.75,7.0,2.75,6.0,5.0,0.08,0.89,1.77,225.6,5.7,-65.8
3.1,13.5,3.0,12.5,14.0,12.5,4.75,0.25,1.75,1.25,0.5,1.75,0.75,1.0,-0.11,0.27,1.39,1380.69,15.4,52.3,1.25,0.0,0.5,1.5,1.5,2.5,1.25,5.75,3.0,6.5,7.25,5.5,6.75,0.08,0.27,1.08,375.53,2.0,-53.9
3.12,14.5,2.75,12.5,13.0,10.5,4.5,0.0,1.5,1.25,2.25,1.75,0.75,1.0,-0.3,0.33,1.52,1369.69,15.7,49.8,1.75,0.75,1.0,2.0,1.25,0.75,1.25,6.0,3.25,7.25,6.25,5.75,6.0,0.02,0.2,0.95,545.11,0.0,-49.8
3.14,14.0,2.75,12.0,9.5,9.0,3.75,0.75,1.0,0.75,2.0,1.5,0.75,1.0,-0.23,0.52,1.89,1284.96,16.8,51.3,1.5,0.75,2.25,2.75,1.5,5.0,1.5,6.25,4.0,7.25,6.75,5.75,6.5,0.14,0.14,0.95,714.88,0.6,-39.3
3.16,11.5,1.5,11.0,7.25,8.0,3.5,1.5,0.75,0.5,2.0,1.25,0.75,1.0,-0.55,0.77,2.52,1108.98,16.6,48.8,2.0,1.0,3.0,3.0,3.5,5.0,2.25,6.5,4.75,6.75,7.0,5.5,6.0,0.02,0.14,0.95,839.14,-0.7,-30.2
3.18,9.75,1.25,8.75,5.25,6.0,2.25,1.5,0.75,0.25,0.5,0.5,0.0,0.0,-1.05,1.02,2.89,854.92,19.4,61.0,2.0,1.0,3.5,3.0,5.25,5.5,2.5,6.5,5.25,6.5,6.5,4.5,5.5,0.08,0.14,0.95,924.52,-0.9,-23.0
3.2,8.0,1.25,6.5,2.5,4.75,1.75,0.5,0.5,0.25,0.5,0.5,0.0,0.25,-0.8,0.77,2.89,602.19,18.9,59.9,2.0,1.5,4.75,4.5,5.25,5.75,3.0,6.75,5.25,6.0,6.5,3.25,3.75,0.08,0.14,0.95,988.63,-2.7,-12.4
3.22,5.75,1.25,3.75,0.0,4.75,2.5,1.0,0.0,0.25,1.75,0.5,0.5,1.0,-0.42,0.33,3.64,394.67,11.6,40.6,2.0,1.5,4.75,5.25,5.25,6.0,3.0,6.75,5.25,5.25,5.0,2.25,3.0,0.08,0.14,0.95,1010.17,-2.9,-5.4
3.24,3.25,0.0,3.5,0.0,3.5,2.5,0.25,1.25,0.5,1.5,0.5,0.75,0.75,0.08,-0.92,2.14,266.57,7.7,23.5,2.0,1.5,4.75,5.25,5.75,6.0,3.5,6.5,5.0,3.5,4.0,1.75,2.0,0.08,0.14,0.95,981.49,-3.8,2.6
3.26,2.0,0.0,1.75,1.0,2.5,2.5,1.0,0.25,0.25,1.75,0.0,0.75,0.0,-0.36,-1.67,1.95,164.87,6.1,27.4,2.0,1.5,4.75,6.25,6.0,6.0,3.0,6.25,4.75,2.75,3.25,1.25,1.5,0.08,0.14,0.95,922.26,-4.3,9.1
3.28,3.0,1.25,2.25,1.25,3.5,2.5,1.5,0.75,0.5,1.5,0.75,0.75,1.0,-0.48,-1.11,1.39,127.23,7.5,26.1,2.0,1.5,5.0,7.0,6.5,6.25,3.0,5.75,4.5,2.25,2.5,0.5,1.5,0.08,0.14,0.95,861.58,-4.7,15.6
3.3,2.0,1.25,2.25,0.75,3.5,2.5,1.5,0.5,0.5,2.0,0.25,0.75,0.5,-0.36,-0.86,0.64,109.16,6.0,26.1,2.0,1.5,5.0,7.25,7.0,6.25,3.0,5.75,4.0,2.25,2.5,0.5,1.25,0.08,0.2,0.95,795.98,-4.7,17.5
3.32,2.5,1.25,2.75,1.0,2.5,2.5,1.5,0.75,0.5,1.5,0.5,0.75,0.5,-0.42,-0.8,0.39,120.78,8.8,28.2,3.25,1.5,5.75,8.75,7.0,6.25,2.75,5.25,3.25,2.0,3.25,0.5,1.25,0.08,0.2,0.95,767.27,-6.5,21.8
3.34,2.25,1.0,2.75,1.0,3.0,2.5,1.5,0.75,0.5,1.75,0.5,0.75,0.5,-0.55,-0.67,0.45,140.59,7.7,25.7,3.5,1.5,6.25,9.0,7.5,6.25,2.75,4.25,3.25,1.75,2.0,0.5,1.25,0.08,0.2,0.95,761.9,-7.4,27.2
3.36,2.5,1.25,2.5,1.25,2.5,2.25,1.5,0.75,0.5,1.25,0.75,0.75,0.5,-0.67,-0.61,0.64,163.45,9.3,28.2,3.75,1.75,6.5,10.5,8.0,6.25,2.5,4.25,2.75,1.5,1.75,0.5,1.25,0.08,0.2,0.95,781.88,-7.9,30.9
3.38,2.25,1.0,2.5,0.75,2.5,2.5,1.5,0.75,0.5,1.75,0.75,0.75,1.0,-0.8,-0.42,0.83,186.19,6.9,18.6,5.25,1.75,6.5,11.0,8.5,6.25,2.5,3.75,2.5,1.75,2.0,0.5,1.25,0.08,0.2,0.95,807.93,-8.7,33.2
3.4,2.0,1.25,2.25,0.25,2.5,1.25,1.5,0.75,0.5,1.5,0.75,0.75,0.75,-0.8,-0.23,0.95,198.71,8.7,19.2,6.25,2.25,7.5,12.0,8.75,5.0,2.5,3.25,2.0,1.25,1.5,0.5,1.25,0.08,0.2,0.95,845.87,-10.9,39.3
3.42,2.0,1.25,2.25,0.25,2.5,1.0,1.5,0.5,0.5,1.25,0.75,0.75,0.75,-0.86,-0.05,1.02,207.78,10.0,21.5,7.0,2.5,7.75,14.0,9.75,5.25,2.5,2.75,1.5,1.25,1.25,0.5,1.25,0.08,0.2,0.95,905.51,-11.4,43.1
3.44,2.0,1.25,2.25,0.25,2.5,1.25,1.5,0.5,0.25,0.75,0.75,0.75,0.75,-0.92,0.14,1.14,207.22,10.3,26.2,7.5,2.5,8.5,15.0,10.5,6.0,2.5,2.5,1.0,1.0,1.0,0.5,0.75,0.08,0.2,0.95,975.65,-11.8,47.4
3.46,2.0,1.25,2.25,0.25,2.5,2.25,1.5,0.75,0.25,1.5,0.75,1.0,0.5,-0.98,0.27,1.27,214.3,7.1,21.0,8.0,3.0,9.0,15.5,11.0,6.25,2.0,2.0,0.75,0.75,0.5,0.5,0.5,0.08,0.2,1.02,1046.08,-12.4,51.7
3.48,2.0,1.25,2.25,0.25,2.5,2.0,1.5,0.75,0.5,0.0,0.75,0.75,0.5,-1.05,0.39,1.58,214.48,10.1,32.1,8.75,3.0,9.25,17.0,11.5,6.25,1.75,2.0,0.0,0.75,0.75,0.25,0.5,0.08,0.27,1.02,1113.49,-12.7,53.7
3.5,2.0,1.25,2.25,0.0,2.5,0.0,1.5,0.0,0.25,0.5,0.0,0.0,0.0,-1.11,0.52,1.95,195.31,18.2,58.8,9.25,2.5,0.0,16.5,12.5,6.25,0.25,2.0,0.0,0.5,0.5,0.25,0.0,0.02,0.27,1.08,1068.97,-8.0,55.5
3.52,2.0,1.25,2.0,0.25,2.5,2.0,1.5,0.5,0.25,1.25,0.75,0.75,0.75,-1.23,0.77,2.64,192.73,7.5,22.6,10.5,2.5,11.0,17.0,12.5,0.0,1.0,0.75,0.0,0.5,0.5,0.0,0.5,0.02,0.27,1.02,1068.76,-18.0,60.7
3.54,1.0,0.0,1.0,0.0,1.75,0.0,0.75,0.0,0.0,0.5,0.0,0.0,0.0,-1.48,1.52,3.39,149.07,14.2,48.3,11.0,3.25,11.5,17.0,12.5,2.75,0.75,0.75,0.25,0.0,0.25,0.25,0.5,-0.05,0.27,1.02,1086.35,-16.8,60.9
3.56,0.75,0.0,1.5,0.0,3.5,2.25,0.75,0.0,0.25,1.25,0.0,0.0,0.0,-1.3,2.2,6.33,139.69,1.6,34.8,10.0,2.5,12.5,15.0,11.0,2.75,0.5,0.5,0.25,0.25,0.0,0.25,0.5,0.14,0.39,1.27,1085.3,-17.5,60.6
3.58,1.0,0.0,0.5,0.0,0.0,0.0,0.75,0.0,0.25,0.5,0.0,0.0,0.0,-0.42,4.45,1.64,87.4,23.1,33.4,11.5,4.0,12.5,14.0,8.5,2.75,0.5,0.0,0.0,0.25,0.0,0.0,0.25,0.27,0.45,1.39,1060.23,-19.4,65.9
3.6,1.0,0.0,1.5,0.0,0.0,0.25,1.0,0.0,0.25,0.5,0.0,0.25,0.0,1.33,6.95,-0.86,66.3,23.7,31.5,12.0,2.75,12.5,10.5,7.0,2.75,1.75,0.25,0.0,0.5,0.0,0.0,0.5,0.27,0.64,1.52,985.9,-20.3,63.8
3.62,1.0,0.0,0.25,0.0,0.0,0.0,0.75,0.0,0.25,0.5,0.5,0.75,0.0,3.14,7.95,-2.3,34.7,17.3,-13.8,10.5,2.25,11.5,10.5,1.75,2.25,2.75,0.0,0.0,0.0,0.25,0.0,0.0,0.45,0.89,2.02,838.79,-24.7,67.5
3.64,1.0,0.0,1.0,0.0,0.0,0.0,0.75,0.5,0.25,0.5,0.75,2.5,0.25,0.14,-0.05,2.45,46.94,13.7,-36.7,8.25,1.25,8.5,7.0,0.0,2.0,3.0,0.0,0.0,0.0,0.0,0.0,0.5,0.64,1.27,2.77,630.33,-25.7,65.2
3.66,0.5,0.0,1.0,0.0,0.0,0.0,0.5,0.5,0.5,2.75,0.75,4.75,1.5,-0.05,0.58,2.02,90.25,3.7,-70.1,6.75,0.75,7.5,5.0,0.0,1.25,2.0,0.0,0.0,0.0,0.0,0.0,0.0,0.7,1.14,3.02,436.45,-27.9,69.1
3.68,1.5,1.25,0.0,0.0,2.25,0.0,0.25,0.75,1.75,4.25,2.25,5.5,3.5,0.52,0.39,2.58,183.54,1.0,-50.0,5.0,1.0,5.0,4.0,0.0,0.25,0.75,0.0,0.0,0.0,0.0,0.0,0.0,0.33,0.52,3.64,289.05,-28.9,72.5
3.7,0.0,1.25,0.0,1.0,0.0,4.0,0.75,6.0,3.75,6.0,6.0,6.5,5.25,-0.86,0.7,1.27,322.95,-3.6,-56.3,1.75,0.0,3.5,2.5,0.0,0.0,1.0,0.5,0.0,0.0,0.5,0.0,0.0,0.33,-1.05,2.14,173.85,-27.1,52.4
3.72,1.75,0.75,1.0,0.5,5.0,5.0,2.0,7.5,4.5,7.75,6.5,7.25,5.5,-0.11,0.2,1.02,544.03,-2.2,-38.8,2.0,0.0,2.5,3.0,1.25,2.25,0.75,0.5,0.25,0.5,0.25,0.25,0.25,0.77,-0.86,2.52,104.59,-12.1,40.0
3.74,1.0,1.25,2.25,2.5,3.0,5.75,2.25,8.0,5.0,7.75,7.75,7.75,5.75,-0.05,0.08,0.95,787.32,-0.7,-37.9,0.25,0.0,2.25,1.25,1.5,0.0,1.0,0.0,0.0,0.0,0.0,0.0,0.0,0.7,-1.42,1.33,31.62,-21.2,56.9
3.76,1.0,1.25,3.0,2.5,5.5,5.75,2.75,8.5,5.25,8.5,8.5,7.75,6.5,-0.11,0.08,0.95,1009.55,-0.5,-34.2,0.5,0.0,1.5,1.25,0.0,0.25,0.25,0.0,0.0,0.0,0.0,0.0,0.0,0.45,-0.8,0.7,0.0,-26.2,61.7
3.78,1.5,1.25,3.25,2.5,4.75,5.75,2.75,8.5,5.0,7.0,8.5,7.75,7.0,-0.11,0.08,0.95,1154.5,0.0,-33.6,0.0,0.0,1.25,1.25,0.0,0.25,0.25,0.0,0.0,0.0,0.0,0.0,0.0,0.39,-0.61,0.14,0.0,-23.8,56.1
3.8,1.0,1.25,2.25,2.5,4.5,5.75,2.5,8.75,5.0,9.0,8.5,7.5,7.0,-0.11,0.08,0.95,1227.3,-1.4,-37.6,0.0,0.0,0.75,1.5,0.0,0.25,0.25,0.0,0.0,0.0,0.0,0.0,0.0,0.27,-0.48,0.2,0.0,-20.4,55.3
3.82,2.0,1.25,2.25,2.5,4.5,5.75,2.75,8.5,5.0,6.75,7.75,7.0,6.25,-0.11,0.08,0.95,1222.27,-0.2,-32.1,0.0,0.0,1.0,0.5,0.0,0.25,0.25,0.0,0.0,0.0,0.0,0.0,0.0,0.08,-0.55,0.45,0.0,-24.5,54.7
3.84,1.75,1.25,2.5,2.5,2.5,5.75,2.75,8.5,5.0,7.75,7.25,6.5,5.75,-0.11,0.08,0.95,1169.52,-0.4,-34.6,0.0,0.0,0.75,0.75,0.0,0.0,0.25,0.0,0.0,0.0,0.0,0.0,0.0,0.2,-0.61,0.39,0.0,-27.9,57.1
3.86,2.0,1.25,3.5,2.5,3.5,5.75,2.75,8.0,5.0,6.75,6.75,5.5,5.25,-0.11,0.08,0.95,1084.53,0.6,-27.5,0.0,0.0,0.5,0.25,0.0,0.0,0.5,0.0,0.0,0.0,0.0,0.0,0.0,0.45,-0.55,0.27,0.0,-31.4,52.2
3.88,2.5,1.25,3.75,3.5,6.0,6.25,3.75,7.75,5.0,5.25,6.0,4.25,3.5,-0.11,0.08,0.95,1014.93,1.8,-13.2,0.0,0.0,0.75,0.5,0.0,0.25,0.25,0.0,0.0,0.0,0.0,0.0,0.0,0.64,-0.42,0.2,0.0,-22.4,53.7
3.9,3.25,1.25,3.75,5.0,6.25,6.25,4.5,7.25,5.0,4.5,4.75,3.0,2.0,-0.11,0.08,0.95,943.88,3.3,-1.8,0.0,0.0,0.75,0.75,0.0,1.5,0.25,0.0,0.0,0.0,0.0,0.0,0.0,0.64,-0.11,1.7,0.0,-4.7,46.6
3.92,5.25,1.25,5.5,6.25,6.5,5.75,4.75,6.0,4.25,2.75,3.25,1.0,1.25,-0.11,0.08,0.95,877.73,7.1,17.1,0.0,0.0,2.25,2.75,1.5,2.75,1.0,0.75,0.0,0.5,0.5,0.0,0.5,-1.05,2.58,7.52,63.08,-5.4,27.9
3.94,5.75,1.25,5.5,6.75,6.75,5.25,4.0,4.5,2.5,3.0,1.0,1.0,1.5,-0.11,0.14,0.95,795.1,7.8,25.2,1.5,0.5,2.25,3.0,1.0,0.0,0.75,0.0,0.25,0.5,0.0,0.0,0.5,-1.92,4.95,2.08,115.55,-19.1,47.2
3.96,6.75,1.25,6.75,5.75,7.5,3.75,0.5,3.0,1.25,1.25,1.25,0.75,0.25,-0.23,0.2,1.39,697.86,11.4,40.4,2.0,1.25,1.0,5.0,1.5,5.0,0.75,0.5,0.25,0.5,0.0,0.5,0.5,-1.11,6.95,-0.36,193.89,-5.0,41.2
3.98,7.75,0.75,6.25,7.5,6.25,4.5,0.0,3.0,1.25,3.0,1.5,0.75,0.0,-0.11,0.14,1.58,641.21,10.7,36.6,5.0,1.5,4.75,7.0,6.0,6.25,1.0,2.25,2.0,2.0,0.5,0.5,0.75,-3.42,7.39,-0.3,336.65,-7.7,35.9
4.0,9.25,1.25,7.0,5.75,6.25,2.5,0.0,1.0,0.25,1.0,2.0,0.75,1.5,-0.05,0.2,1.64,583.68,15.2,43.5,7.0,2.5,5.25,8.75,7.25,7.0,2.5,5.75,5.5,5.25,3.25,1.75,1.75,0.33,0.02,0.95,629.55,-6.3,15.9
4.02,8.25,1.25,5.75,4.25,5.0,2.5,0.0,0.75,0.25,0.5,0.5,0.25,0.0,0.14,0.14,1.7,503.22,17.0,58.8,7.25,2.75,6.5,8.75,8.5,7.75,3.0,7.0,5.25,3.75,4.75,1.0,1.0,0.02,0.14,1.02,956.55,-6.9,20.6
4.04,8.0,1.25,5.75,3.5,3.75,2.5,0.25,0.75,0.25,0.75,0.5,0.75,0.0,-0.11,0.45,2.39,426.58,17.5,54.5,8.0,3.0,6.5,10.0,9.5,8.0,2.5,6.75,4.75,2.75,2.75,0.5,1.5,0.14,0.2,0.95,1229.19,-7.2,27.9
4.06,7.25,1.0,5.25,2.5,3.0,1.25,0.5,0.75,0.25,0.5,0.5,0.0,0.0,-0.17,0.45,2.39,351.25,20.2,60.1,8.0,3.0,7.25,10.5,10.5,8.0,2.0,6.0,3.5,2.0,2.5,0.5,1.25,0.2,0.2,0.95,1356.56,-7.9,33.1
4.08,5.75,0.0,1.25,0.0,2.25,0.0,0.25,0.5,0.25,0.5,0.25,0.0,0.0,0.14,0.45,2.33,252.85,20.4,60.8,8.0,3.0,7.5,10.5,11.0,7.75,1.75,5.0,2.75,1.5,2.0,0.5,1.0,0.14,0.2,0.95,1379.65,-8.5,37.7
4.1,3.5,0.0,1.0,0.0,0.75,0.0,0.25,0.75,0.25,0.5,0.0,0.5,0.0,0.45,-0.55,1.7,152.72,19.4,41.4,8.0,3.0,8.5,10.5,11.0,7.5,1.5,3.75,2.0,1.0,1.25,0.5,0.5,0.08,0.2,0.95,1351.43,-10.0,44.3
4.12,0.75,0.0,0.0,0.0,0.0,1.75,0.5,0.0,0.75,1.5,0.25,0.0,0.0,-0.48,-3.92,1.14,52.6,-3.4,-5.6,8.0,2.5,8.5,10.5,9.5,7.0,1.0,2.25,1.5,1.0,0.75,0.5,0.5,0.08,0.2,0.95,1275.38,-11.3,47.8
4.14,0.25,0.0,0.25,0.0,0.0,0.0,0.75,0.0,0.25,0.5,0.0,0.0,0.0,-0.05,-1.67,0.77,0.0,15.5,0.6,8.0,0.0,8.5,9.5,9.25,6.25,0.25,1.5,1.5,0.75,0.5,0.5,0.5,0.08,0.2,0.95,1127.38,-12.1,47.7
4.16,1.25,0.0,0.0,0.0,0.75,0.0,0.75,0.0,0.25,0.5,0.0,0.0,0.0,0.2,-1.3,-0.17,0.0,14.2,39.2,7.75,1.5,8.5,8.75,8.5,6.0,0.25,1.0,1.0,0.75,1.25,0.5,0.5,0.08,0.2,0.89,983.69,-12.7,48.9
4.18,0.75,0.0,0.0,0.0,0.0,0.25,0.75,0.0,0.25,0.5,0.0,0.25,0.0,0.02,-1.11,0.02,0.0,12.2,5.1,7.5,1.5,8.5,8.5,8.25,5.75,0.0,1.25,0.75,0.5,0.75,0.5,0.25,0.14,0.2,0.77,859.64,-12.9,51.6
4.2,1.0,0.0,0.0,0.0,0.0,0.0,0.75,0.25,0.25,0.5,0.0,0.0,0.0,-0.05,-0.55,0.2,0.0,15.4,19.3,7.0,1.0,7.75,7.25,7.75,5.0,0.25,0.75,0.75,0.5,0.75,0.5,0.25,0.27,0.14,0.77,726.34,-13.3,51.4
4.22,1.0,0.0,0.0,0.0,1.25,0.25,1.0,0.0,0.25,0.5,0.0,0.0,0.0,-0.48,-0.36,0.14,0.0,8.6,37.1,6.25,0.75,7.25,5.25,7.0,5.0,0.25,1.0,1.0,0.5,0.75,0.5,0.25,-0.05,0.08,1.02,595.8,-12.5,48.4
4.24,0.75,0.0,0.0,0.0,1.75,0.0,0.75,0.25,0.25,0.5,0.0,0.0,0.0,-0.98,0.02,0.02,0.0,4.9,31.7,4.5,0.0,5.0,3.0,5.25,1.25,0.75,1.0,1.25,0.5,2.25,1.75,0.25,-1.3,0.39,1.14,446.97,-14.3,28.6
4.26,2.0,0.25,2.25,0.5,2.5,2.5,1.25,0.75,0.25,1.25,0.75,0.75,0.75,-0.61,1.83,0.02,57.9,6.3,18.0,3.75,1.0,2.75,2.75,3.25,0.25,0.75,0.5,1.0,0.5,2.5,2.75,0.75,-0.42,0.58,1.33,335.95,-14.3,15.1
4.28,1.75,0.0,1.0,2.5,2.5,1.0,1.5,0.0,0.75,1.25,0.0,0.0,0.0,-1.8,3.2,5.77,117.46,10.4,38.7,3.5,0.75,2.25,2.75,2.5,1.5,0.25,0.5,0.75,0.5,3.25,3.5,1.25,-0.3,0.39,1.52,269.9,-11.3,2.7
4.3,1.0,0.5,3.0,0.5,3.0,2.0,3.0,3.0,3.25,1.75,3.5,1.0,1.5,-2.98,7.64,1.58,225.5,5.5,-9.9,3.25,0.75,2.25,2.25,1.5,2.75,0.25,0.5,0.75,0.5,3.25,4.5,0.25,-0.05,0.52,1.77,234.14,-10.9,-0.3
4.32,1.75,0.5,1.5,1.0,0.0,1.75,2.5,2.75,2.75,2.0,2.25,0.75,1.0,-0.61,0.08,0.52,267.36,5.9,-14.0,2.25,1.0,1.75,2.75,1.5,2.0,0.25,0.5,0.75,0.5,2.75,4.5,1.25,-0.05,0.58,1.64,216.63,-9.3,-8.0
4.34,2.0,0.75,1.0,2.25,2.25,2.5,2.5,1.75,2.0,1.5,2.0,0.75,0.25,-0.05,0.14,0.95,300.78,6.2,9.7,2.0,0.75,1.75,2.5,1.5,2.75,0.25,0.5,0.75,0.25,2.5,4.0,1.0,-0.05,0.52,1.45,209.37,-8.4,-4.5
4.36,2.5,1.25,3.0,2.5,2.25,2.5,2.75,3.5,2.5,3.0,3.0,2.0,1.5,-0.11,0.27,0.89,355.45,6.2,-3.6,1.5,0.75,0.5,2.0,1.5,2.0,0.25,0.25,0.75,0.25,2.0,2.75,1.25,0.2,0.52,1.27,189.43,-6.2,-7.5
4.38,2.5,1.25,3.75,2.5,4.75,3.75,3.25,4.5,3.25,3.25,2.5,2.5,1.5,-0.05,0.08,0.95,450.33,4.7,0.8,0.0,0.0,1.75,0.0,1.5,0.25,0.25,0.5,0.0,0.0,2.25,1.25,0.0,0.27,0.39,1.02,135.17,-11.2,-13.5
4.4,2.25,1.25,3.0,2.5,4.75,4.5,2.75,5.75,3.25,3.25,3.25,2.25,1.5,-0.11,0.14,0.95,541.63,2.6,-2.4,0.0,0.0,0.0,0.5,1.0,0.5,0.0,0.0,0.0,0.0,0.5,0.25,0.0,0.27,0.33,0.77,60.15,-0.6,15.4
4.42,2.0,1.25,4.25,2.5,4.75,4.75,2.5,6.0,3.0,4.0,3.25,2.25,1.5,-0.11,0.14,0.95,622.88,2.8,-2.2,0.0,0.0,0.0,0.0,0.5,0.0,0.0,0.0,0.0,0.0,0.5,0.0,0.0,0.2,0.02,0.39,0.0,-3.1,-5.2
4.44,2.0,1.25,2.25,2.5,4.25,5.0,2.25,6.75,2.75,3.25,3.0,1.5,1.5,-0.11,0.08,0.95,642.39,0.4,-2.8,0.0,0.0,0.0,0.5,0.0,0.0,0.25,0.0,0.0,0.0,0.5,0.0,0.0,0.08,-0.23,0.14,0.0,-16.0,-2.5
4.46,2.0,1.25,3.25,2.5,4.75,5.5,2.0,6.75,2.75,3.5,2.5,1.5,1.5,-0.17,0.14,0.95,642.19,0.8,0.4,0.0,0.0,0.0,0.5,0.0,0.25,0.25,0.0,0.0,0.0,0.5,0.0,0.0,0.33,0.14,-0.17,0.0,-9.3,3.7
4.48,2.0,1.25,2.5,2.5,3.0,5.75,1.5,6.75,2.0,3.25,2.25,1.0,1.5,-0.86,0.27,0.89,598.2,-0.4,-0.4,0.0,0.0,0.0,0.0,0.5,0.0,0.0,0.0,0.0,0.0,0.25,0.0,0.0,-0.36,-0.67,0.52,0.0,-0.8,15.4
4.5,2.0,1.25,1.5,2.5,2.5,5.75,1.0,6.75,1.25,3.25,2.25,1.0,1.5,-1.17,0.45,0.83,543.09,-2.2,-2.7,1.0,0.75,0.0,2.5,0.25,0.75,0.75,0.5,0.25,0.0,0.0,0.5,0.25,-0.67,-0.3,0.2,0.0,-10.7,35.8
4.52,2.0,1.0,1.5,2.5,2.5,5.5,0.25,6.75,1.0,3.25,2.0,0.75,1.5,-1.05,0.7,0.83,488.32,-2.8,-2.5,1.0,0.5,1.75,2.0,1.25,1.5,0.5,0.0,0.25,0.5,0.5,0.5,0.75,-1.55,-1.55,1.14,43.12,-9.9,25.8
4.54,2.0,1.25,1.0,2.5,1.75,4.75,0.0,7.0,1.0,3.25,2.0,0.75,1.5,-0.86,0.7,1.14,431.6,-3.2,-5.7,1.0,0.5,1.5,2.0,1.25,0.25,0.0,0.25,0.25,0.5,0.5,0.5,0.5,-1.05,-2.11,1.58,89.23,-12.7,25.7
4.56,2.0,1.25,0.0,1.0,1.25,3.75,0.0,6.75,0.75,3.25,2.0,0.75,1.5,-0.61,0.52,1.14,375.07,-5.5,-15.0,1.0,0.75,1.75,2.0,1.75,0.5,0.5,0.5,0.25,0.5,0.25,0.5,0.5,-0.05,-2.05,2.02,129.26,-11.4,30.8
4.58,1.5,0.25,1.0,0.0,2.5,3.5,0.25,5.75,0.5,2.75,2.0,0.75,1.25,-1.92,0.39,1.14,318.33,-5.1,-14.7,1.25,0.5,1.75,1.5,1.5,2.0,0.25,0.5,0.25,0.25,0.75,0.5,0.5,0.08,-2.05,1.95,158.44,-8.1,27.1
4.6,1.5,1.25,1.0,0.0,3.0,2.25,0.25,4.75,0.25,0.5,1.5,0.0,0.0,-1.23,0.14,2.45,260.8,-1.2,15.1,1.0,0.5,1.75,1.75,1.5,1.75,0.25,0.5,0.25,0.5,0.5,0.5,0.5,0.02,-2.11,2.08,179.34,-7.8,26.1
4.62,2.0,1.25,0.25,0.0,0.0,2.5,0.75,1.0,0.5,1.5,1.25,0.0,0.0,-3.73,-0.48,1.14,194.29,2.6,14.8,0.75,0.5,1.75,1.5,1.25,2.0,0.25,0.5,0.25,0.5,0.5,0.5,0.5,0.08,-2.23,2.14,189.64,-6.7,23.2
4.64,2.0,1.25,1.75,0.0,2.25,2.5,0.75,1.75,0.5,1.75,1.25,0.0,0.5,0.02,0.39,2.45,168.57,3.4,17.6,1.25,0.5,2.0,1.5,1.25,1.25,0.5,0.25,0.25,0.5,0.5,0.5,0.5,0.39,-2.05,1.52,193.71,-11.5,28.2
4.66,2.0,1.25,1.0,0.0,0.75,2.5,1.0,1.0,0.5,1.75,1.25,0.75,0.75,-0.92,0.33,2.39,148.74,3.6,4.6,1.0,0.25,1.75,1.5,1.5,0.5,0.5,0.5,0.25,0.25,0.25,0.5,0.75,0.77,-1.17,1.02,185.56,-11.5,23.9
4.68,2.0,1.25,1.75,0.25,2.25,2.5,0.75,0.75,0.5,1.25,1.25,0.75,0.75,-1.11,0.27,1.95,160.52,5.5,16.7,1.0,0.25,1.75,1.5,1.5,0.5,0.5,0.25,0.25,0.5,1.0,0.5,0.5,0.83,-0.48,0.83,177.06,-12.2,19.2
4.7,2.0,1.25,1.0,1.0,1.75,2.5,0.5,0.75,0.5,1.5,1.0,0.75,0.5,-1.23,-0.36,1.58,165.36,4.4,17.2,0.75,0.0,2.25,1.5,1.25,1.25,0.75,0.25,0.25,0.25,0.25,0.5,0.5,0.45,-0.11,0.89,167.39,-12.0,27.2
4.72,1.25,0.0,1.75,0.75,2.5,2.5,1.25,1.0,0.5,0.5,1.25,0.25,0.75,-0.98,-0.55,0.64,174.3,4.7,16.0,0.75,0.0,1.75,1.5,1.0,1.25,0.25,0.25,0.25,0.5,0.0,0.25,0.5,0.02,0.08,0.95,153.16,-9.6,28.2
4.74,1.0,0.0,1.0,0.0,0.0,1.0,0.75,0.25,0.25,0.5,0.0,0.5,0.0,-0.36,-0.67,0.33,131.01,12.0,17.7,0.75,0.25,1.75,1.25,1.25,1.25,0.25,0.5,0.25,0.5,0.25,0.25,0.5,-0.55,0.08,0.89,141.29,-8.3,25.5
4.76,1.0,0.0,1.0,0.0,0.0,1.0,0.75,0.0,0.25,0.5,0.0,0.25,0.0,-0.11,-1.36,0.77,89.22,13.9,28.5,0.75,0.0,1.75,1.25,1.5,1.0,0.0,0.5,0.25,0.25,0.5,0.5,0.5,-0.98,-0.11,0.89,135.2,-9.1,20.4
4.78,1.25,0.0,1.0,0.0,0.0,1.0,0.75,0.0,0.25,0.5,0.0,0.25,0.0,-0.98,-1.3,0.89,53.73,15.0,32.1,1.0,0.0,1.75,1.25,1.25,0.5,0.25,0.25,0.25,0.5,0.25,0.5,0.5,-0.98,-0.48,1.2,131.66,-12.4,22.4
4.8,2.0,1.25,1.25,1.25,2.25,2.5,1.25,1.0,0.5,0.5,1.0,0.25,0.5,-1.55,-1.05,0.64,98.69,6.4,29.8,0.75,0.0,1.75,1.5,1.25,0.5,0.25,0.5,0.25,0.5,0.0,0.25,0.5,-0.67,-0.55,1.02,125.98,-11.1,26.5
4.82,1.0,0.0,1.0,0.0,0.0,1.0,0.75,0.0,0.25,0.5,0.0,0.25,0.0,-1.67,-0.42,0.64,90.34,13.9,28.5,1.0,0.0,1.5,1.25,1.25,1.75,0.25,0.5,0.25,0.5,0.25,0.25,0.75,-0.23,-0.42,0.83,130.0,-5.9,21.1
4.84,1.0,0.0,1.5,0.0,1.25,1.0,1.5,0.75,0.25,0.5,0.5,0.75,0.0,-1.48,-0.23,0.52,111.25,9.9,14.4,0.75,0.0,1.75,1.5,1.0,0.5,0.0,0.25,0.25,0.25,0.5,0.5,0.5,-0.11,-0.73,0.64,127.09,-13.0,20.3
4.86,1.0,1.25,1.25,1.0,0.0,2.5,1.5,0.0,0.5,1.25,0.0,0.75,0.0,-1.17,-0.36,0.39,117.57,7.7,25.9,0.75,0.0,1.0,1.5,1.75,1.0,0.25,0.5,0.25,0.5,0.25,0.25,0.75,-0.05,-0.92,0.77,130.27,-5.3,19.0
4.88,1.0,0.0,1.0,0.0,0.0,1.0,0.75,0.25,0.25,0.5,0.0,0.25,0.0,-1.05,-0.61,0.58,98.82,12.2,24.8,0.75,0.0,1.25,1.5,1.25,1.0,0.5,0.5,0.25,0.5,0.5,0.5,0.5,0.08,-0.98,0.64,131.59,-8.0,15.6
4.9,1.0,0.0,1.0,0.0,0.0,1.0,0.75,0.5,0.25,0.5,0.0,0.0,0.0,-1.11,-0.67,0.83,80.77,10.8,28.7,0.75,0.0,1.5,1.25,1.25,0.25,0.25,0.25,0.25,0.5,0.25,0.5,0.5,0.2,-0.98,0.52,128.42,-11.9,18.5
4.92,0.75,0.0,1.0,0.0,0.0,1.0,0.75,0.25,0.25,0.5,0.5,0.25,0.0,-1.11,-0.61,0.45,68.0,10.9,11.0,1.0,0.0,1.5,1.25,1.5,0.25,0.25,0.5,0.25,0.5,0.5,0.5,0.5,0.33,-0.8,0.45,128.04,-11.1,17.5
4.94,0.75,0.0,1.0,0.0,0.0,1.0,0.75,0.5,0.25,0.5,0.25,0.0,0.0,-0.92,-0.55,0.08,64.2,9.5,19.5,1.0,0.0,1.75,1.25,1.5,0.25,0.5,0.25,0.0,0.5,0.25,0.25,0.5,0.33,-0.67,0.27,126.85,-13.2,29.3
4.96,0.75,0.0,1.0,0.0,0.0,1.0,1.0,0.0,0.25,0.5,0.0,0.0,0.0,-0.61,-0.67,0.27,59.1,13.5,33.1,1.0,0.0,1.75,1.25,1.25,0.5,0.5,0.5,0.25,0.5,0.5,0.25,0.25,0.33,-0.55,0.08,129.17,-12.6,25.8
4.98,0.5,0.0,0.75,0.0,0.0,1.0,0.75,0.0,0.25,0.5,0.0,0.0,0.0,-0.36,-0.86,0.33,59.28,9.4,26.6,0.75,0.0,1.75,1.5,1.25,0.25,0.25,0.5,0.25,0.25,0.5,0.5,0.5,0.2,-0.42,-0.05,128.51,-12.8,19.4
5.0,0.75,0.0,1.0,0.0,0.5,1.0,1.0,0.25,0.25,0.5,0.0,0.0,0.0,-0.3,-0.8,0.27,58.74,9.9,31.8,0.75,0.25,1.75,1.5,1.5,1.0,0.5,0.5,0.25,0.5,0.5,0.25,0.5,0.14,-0.36,-0.11,137.36,-9.3,24.5
5.02,0.75,1.0,1.0,0.0,0.0,0.75,0.75,0.0,0.25,0.5,0.0,0.0,0.0,-0.17,-0.61,0.14,57.36,14.7,48.1,1.0,0.25,1.75,1.25,1.75,0.75,0.25,0.0,0.0,0.25,0.0,0.5,0.25,-0.05,-0.23,-0.23,137.19,-12.9,41.2
5.04,0.5,0.0,0.75,0.0,0.0,1.0,1.0,0.0,0.25,0.5,0.0,0.25,0.0,-0.11,-0.61,0.02,52.63,10.1,17.3,0.75,0.5,1.75,1.5,1.25,1.25,0.5,0.5,0.25,0.5,0.25,0.5,0.5,-0.11,-0.05,-0.36,144.69,-9.0,24.9
5.06,0.75,0.0,1.0,0.0,1.75,0.75,0.75,0.0,0.25,0.5,0.0,0.0,0.0,-0.17,-0.55,-0.11,69.7,8.5,40.6,1.0,0.25,1.75,1.5,1.25,0.5,0.5,0.0,0.25,0.5,0.5,0.25,0.25,-0.23,0.02,-0.61,142.03,-14.5,32.9
5.08,0.25,0.0,1.0,0.0,1.25,0.5,0.75,0.0,0.25,0.5,0.0,0.0,0.0,-0.17,-0.61,-0.17,67.5,9.0,33.0,1.0,0.25,1.0,1.5,1.0,0.75,0.5,0.25,0.25,0.5,0.75,0.5,0.5,-0.3,0.14,-0.73,141.67,-9.9,16.2
5.1,0.75,0.0,1.0,0.0,0.0,1.0,0.75,0.0,0.25,0.5,0.0,0.25,0.0,-0.17,-0.55,-0.17,68.5,12.7,24.5,0.75,0.25,1.75,1.25,1.75,0.25,0.5,0.25,0.25,0.5,0.25,0.5,0.5,-0.3,0.14,-0.92,138.57,-12.0,24.5
5.12,0.5,0.0,1.0,0.0,2.25,1.0,0.75,0.0,0.25,0.5,0.0,0.0,0.0,-0.11,-0.36,-0.36,81.88,5.2,39.4,0.75,0.5,1.5,1.25,1.25,0.25,0.5,0.0,0.25,0.5,0.25,0.5,0.5,-0.3,0.2,-1.11,134.82,-13.1,25.6
5.14,0.5,0.0,0.75,0.0,0.5,0.75,0.75,0.25,0.25,0.5,0.0,0.0,0.0,0.02,-0.11,-0.42,78.48,7.8,25.9,0.75,0.5,1.5,1.5,1.25,0.25,0.5,0.5,0.0,0.5,0.25,0.5,0.0,-0.3,0.2,-1.3,131.73,-13.2,33.3
5.16,0.5,0.0,1.0,0.0,0.75,0.25,0.75,0.0,0.0,0.5,0.0,0.0,0.0,0.14,-0.05,-0.55,72.85,14.8,39.0,1.0,0.0,1.5,1.25,1.25,0.5,0.5,0.25,0.25,0.5,0.5,0.25,0.5,-0.3,0.2,-1.36,128.44,-11.9,22.4
5.18,0.5,0.0,0.75,0.0,0.75,0.75,0.75,0.0,0.0,0.5,0.0,0.25,0.0,0.27,0.02,-0.67,67.22,8.3,27.5,0.75,0.0,1.75,1.25,1.75,1.25,0.5,0.25,0.25,0.5,0.25,0.5,0.5,-0.3,0.2,-1.36,134.38,-8.5,23.4
5.2,0.5,0.0,1.0,0.0,1.75,0.5,1.0,0.25,0.0,0.5,0.0,0.0,0.0,0.39,0.08,-0.67,72.73,7.9,38.0,1.0,0.0,1.25,1.25,1.25,1.25,0.5,0.25,0.25,0.5,0.0,0.25,0.75,-0.3,0.2,-1.3,133.78,-7.4,23.8
5.22,0.75,0.0,0.5,0.0,1.25,1.0,0.75,0.25,0.0,0.5,0.0,0.25,0.0,0.45,0.08,-0.61,75.56,3.9,29.1,0.75,0.25,1.25,1.25,1.25,1.5,0.25,0.5,0.25,0.5,0.25,0.25,0.0,-0.3,0.2,-1.23,134.1,-6.9,32.0
5.24,0.5,0.0,1.0,0.0,1.25,0.75,0.75,0.0,0.0,0.5,0.0,0.0,0.0,0.64,0.08,-0.73,77.64,8.5,40.3,0.75,0.25,1.25,1.25,1.0,1.25,0.0,0.0,0.25,0.5,0.0,0.25,0.5,-0.3,0.2,-1.17,127.02,-7.9,29.6
5.26,0.25,0.0,0.5,0.0,0.0,0.75,0.5,0.0,0.0,0.5,0.0,0.0,0.0,0.77,0.14,-0.86,64.88,5.2,21.4,1.0,0.0,1.75,1.25,1.5,0.5,0.5,0.25,0.25,0.5,0.25,0.25,0.25,-0.3,0.2,-1.17,126.87,-13.0,31.7
5.28,0.5,0.0,1.0,0.0,1.25,1.0,1.0,0.25,0.0,0.5,0.0,0.0,0.0,0.77,0.14,-0.92,67.86,6.4,35.9,0.5,0.25,1.5,1.25,1.25,1.0,0.25,0.5,0.25,0.5,0.25,0.5,0.5,-0.36,0.2,-1.17,126.4,-7.6,18.3
5.3,0.5,0.0,1.0,0.0,0.0,1.0,0.75,0.0,0.0,0.5,0.0,0.0,0.0,0.83,0.08,-0.92,59.23,11.4,34.1,0.75,0.5,1.75,1.5,1.25,0.75,0.25,0.25,0.25,0.25,0.5,0.5,0.5,-0.42,0.14,-1.23,133.54,-11.7,26.3
5.32,0.25,0.0,1.0,0.0,1.75,0.75,0.75,0.0,0.0,0.5,0.0,0.25,0.0,0.83,0.08,-0.92,69.19,6.0,31.9,0.75,0.5,1.75,1.25,1.25,0.25,0.25,0.0,0.0,0.5,0.25,0.25,0.5,-0.55,0.08,-1.11,131.35,-13.9,33.2
5.34,0.75,0.0,1.0,0.0,0.0,0.75,0.75,0.0,0.0,0.5,0.0,0.0,0.0,0.7,0.08,-0.98,64.14,15.6,38.6,1.0,0.5,1.5,1.25,1.25,0.25,0.5,0.25,0.0,0.5,0.75,0.25,0.25,-0.61,0.02,-0.92,131.44,-13.7,30.0
5.36,0.5,0.0,1.0,0.0,0.5,0.5,0.75,0.25,0.0,0.5,0.0,0.0,0.0,0.7,0.14,-0.98,63.87,11.6,32.2,0.75,0.5,1.5,1.25,1.25,0.0,0.25,0.5,0.25,0.25,0.5,0.25,0.5,-0.61,0.02,-0.86,127.88,-13.0,25.6
5.38,0.5,0.0,1.0,0.0,0.0,0.25,1.25,0.0,0.0,0.5,0.0,0.0,0.0,0.64,0.14,-0.92,56.29,21.8,33.6,0.75,0.5,1.25,1.25,1.75,0.25,0.5,0.25,0.0,0.25,0.25,0.25,0.5,-0.55,-0.05,-0.8,125.86,-11.2,34.0
5.4,0.25,0.0,1.0,0.0,0.0,0.25,0.75,0.25,0.0,0.5,0.0,0.0,0.0,0.58,0.14,-0.86,49.29,16.0,21.4,0.75,0.25,1.0,1.25,0.5,0.25,0.5,0.5,0.25,0.5,0.25,0.25,0.0,-0.48,0.02,-0.86,114.57,-13.4,27.2
5.42,0.5,0.0,1.0,0.0,0.75,0.5,0.75,1.0,0.0,0.5,0.0,0.0,0.0,0.33,0.14,-0.86,53.86,6.1,22.2,1.0,0.5,1.0,1.25,1.25,0.25,0.75,0.5,0.25,0.25,0.75,0.25,0.5,-0.42,0.02,-0.8,116.81,-11.5,22.8
5.44,0.5,0.0,1.0,0.0,0.0,0.5,0.75,0.0,0.0,0.5,0.0,0.25,0.0,0.2,0.14,-0.86,52.11,16.5,22.5,1.0,0.25,0.5,1.5,0.0,0.25,0.25,0.0,0.0,0.5,0.5,0.25,0.5,-0.42,0.02,-0.73,104.49,-13.6,17.1
5.46,0.75,0.0,1.0,0.0,0.0,0.5,0.25,0.0,0.0,0.5,0.0,0.0,0.0,0.08,0.14,-0.86,52.42,17.4,40.0,0.75,0.25,1.5,1.25,1.25,0.25,0.25,0.25,0.0,0.5,0.5,0.25,0.5,-0.48,0.02,-0.67,107.68,-12.0,24.3
5.48,0.5,0.0,1.0,0.0,0.75,0.5,0.75,0.25,0.0,0.5,0.0,0.0,0.0,0.08,0.14,-0.92,55.36,10.5,33.8,0.75,0.5,1.5,1.25,1.25,0.0,0.5,0.5,0.25,0.5,0.0,0.0,0.25,-0.42,0.02,-0.67,107.51,-13.6,38.3
5.5,0.75,0.0,1.0,0.0,0.0,0.25,0.75,0.0,0.0,0.5,0.0,0.0,0.0,0.08,0.02,-0.92,53.52,22.0,39.4,1.0,0.5,1.25,1.25,1.25,0.25,0.25,0.25,0.25,0.5,0.25,0.25,0.5,-0.42,0.02,-0.67,114.31,-11.8,28.8
5.52,0.5,0.0,0.75,0.0,0.0,0.25,0.75,0.0,0.0,0.5,0.0,0.0,0.0,0.08,-0.05,-0.86,45.89,18.9,31.2,0.75,0.5,1.0,1.25,1.75,0.0,0.5,0.25,0.0,0.5,0.5,0.5,0.5,-0.42,0.02,-0.67,118.32,-10.4,22.0
5.54,0.5,0.0,1.0,0.0,0.0,0.25,1.0,0.0,0.0,0.5,0.0,0.0,0.0,0.14,-0.11,-0.8,44.0,21.3,33.8,0.75,0.75,1.0,1.25,1.25,0.0,0.75,0.0,0.0,0.5,0.5,0.5,0.5,-0.36,-0.05,-0.61,121.33,-12.8,24.3
5.56,0.5,0.0,1.0,0.0,0.0,0.5,0.75,0.5,0.0,0.5,0.0,0.0,0.0,0.14,-0.17,-0.8,45.32,12.1,23.2,0.75,0.5,1.5,1.25,1.25,0.0,0.25,0.25,0.25,0.5,0.5,0.25,0.5,-0.36,-0.23,-0.48,123.68,-13.0,24.4
5.58,0.5,0.0,1.0,0.0,0.0,0.5,0.75,0.25,0.0,0.5,0.0,0.0,0.0,0.2,-0.17,-0.8,47.77,14.4,28.2,1.0,0.5,1.25,1.25,1.25,0.25,0.25,0.5,0.0,0.25,0.25,0.25,0.0,-0.23,-0.48,-0.36,120.85,-13.7,42.5
5.6,0.75,0.0,1.0,0.0,0.0,0.25,0.75,0.25,0.0,0.5,0.0,0.0,0.0,0.2,-0.17,-0.86,49.8,18.8,33.0,0.75,0.5,1.75,1.25,1.25,0.25,0.25,0.5,0.25,0.25,0.5,0.0,0.25,-0.11,-0.8,-0.3,123.4,-13.8,35.7
5.62,0.5,0.0,1.0,0.0,0.0,0.25,0.75,0.0,0.0,0.5,0.0,0.0,0.0,0.2,-0.23,-0.86,48.45,20.8,34.1,0.5,0.25,1.75,1.25,1.5,0.0,0.5,0.5,0.0,0.5,0.5,0.25,0.5,-0.17,-0.92,-0.23,125.1,-12.0,22.1
5.64,0.25,0.0,1.0,0.0,0.0,0.5,0.75,0.25,0.0,0.5,0.0,0.0,0.0,0.2,-0.23,-0.92,46.66,12.7,22.5,0.75,0.5,1.5,1.25,1.25,0.25,0.25,0.0,0.0,0.25,0.5,0.5,0.5,-0.3,-0.92,-0.11,126.23,-13.7,27.7
5.66,0.5,0.0,1.0,0.0,0.0,0.0,0.75,0.25,0.0,0.5,0.0,0.0,0.0,0.14,-0.17,-0.86,43.13,21.2,27.1,0.5,0.0,1.75,1.25,1.25,0.0,0.25,0.5,0.25,0.5,0.75,0.5,0.25,-0.36,-0.8,0.02,124.75,-13.0,13.6
5.68,0.25,0.0,1.0,0.0,0.0,0.5,1.0,0.0,0.0,0.5,0.0,0.0,0.0,0.2,-0.05,-0.73,44.17,16.3,28.3,0.75,0.5,1.75,1.5,0.5,0.0,0.0,0.5,0.25,0.25,0.5,0.5,0.5,-0.48,-0.67,0.14,124.48,-15.4,20.3
5.7,0.5,0.0,0.75,0.0,0.0,0.25,0.75,0.25,0.0,0.5,0.0,0.0,0.0,0.27,0.02,-0.42,42.9,15.5,24.4,0.75,0.5,1.25,1.5,1.25,0.0,0.5,0.5,0.0,0.25,0.5,0.25,0.5,-0.42,-0.61,0.14,122.3,-12.6,27.6
5.72,0.5,0.0,1.0,0.0,0.0,0.25,0.75,0.0,0.0,0.5,0.0,0.25,0.0,0.14,0.08,-0.23,43.56,19.8,21.5,0.75,0.5,1.25,1.25,1.25,0.0,0.25,0.5,0.0,0.5,0.25,0.25,0.5,-0.3,-0.55,0.02,120.25,-11.2,26.4
5.74,0.5,0.0,1.0,0.0,0.5,0.25,0.75,0.25,0.0,0.5,0.0,0.0,0.0,0.02,0.14,-0.05,48.78,14.0,32.1,0.75,0.75,1.5,1.25,1.25,0.0,0.25,0.5,0.0,0.25,0.25,0.25,0.0,-0.23,-0.55,0.02,118.53,-15.0,43.7
5.76,0.75,0.0,1.0,0.0,0.5,0.25,0.75,0.25,0.0,0.5,0.0,0.0,0.0,-0.17,0.2,-0.05,54.44,15.3,36.3,1.0,0.25,1.75,1.25,0.5,0.0,0.5,0.25,0.0,0.5,0.5,0.25,0.5,-0.23,-0.55,0.08,115.68,-17.0,24.2
5.78,0.5,0.0,0.75,0.0,0.75,0.25,0.75,0.25,0.0,0.5,0.0,0.0,0.0,-0.36,0.08,0.02,57.41,10.7,31.7,0.75,0.5,1.5,1.25,1.25,0.0,0.5,0.0,0.0,0.5,0.5,0.25,0.5,-0.23,-0.55,0.08,116.12,-14.4,28.7
5.8,0.5,0.0,1.0,0.0,0.0,0.25,0.75,0.25,0.0,0.5,0.0,0.25,0.0,-0.67,-0.11,0.14,56.61,16.8,16.7,0.5,0.75,1.25,1.25,1.25,0.0,0.5,0.5,0.0,0.25,0.5,0.25,0.5,-0.23,-0.55,0.14,116.46,-11.8,26.8
5.82,0.5,0.0,0.75,0.0,0.0,0.25,0.75,0.25,0.0,0.5,0.0,0.0,0.0,-0.98,-0.3,0.14,52.46,15.5,24.4,0.75,0.25,0.75,1.25,0.0,0.25,0.25,0.5,0.0,0.25,0.5,0.25,0.25,-0.3,-0.61,0.2,105.14,-13.6,19.0
5.84,0.5,0.0,1.0,0.0,0.0,0.25,0.75,0.0,0.0,0.5,0.0,0.0,0.0,-1.17,-0.48,0.08,48.23,20.8,34.1,1.0,0.25,1.75,1.25,1.0,0.0,0.25,0.25,0.0,0.5,0.5,0.25,0.5,-0.36,-0.67,0.27,106.59,-15.2,26.3
5.86,0.5,0.0,1.0,0.0,0.0,0.25,0.75,0.0,0.0,0.5,0.0,0.0,0.0,-1.23,-0.67,0.08,45.31,20.8,34.1,0.75,0.75,1.5,1.25,1.25,0.0,0.5,0.5,0.0,0.5,0.5,0.25,0.25,-0.36,-0.73,0.39,111.0,-13.3,31.2
5.88,0.5,0.0,1.0,0.0,0.0,0.5,0.75,0.5,0.0,0.5,0.0,0.0,0.0,-1.23,-0.86,0.08,47.67,12.1,23.2,0.75,0.5,1.75,1.25,1.25,0.0,0.5,0.0,0.0,0.5,0.25,0.0,0.25,-0.36,-0.8,0.52,114.93,-16.6,43.4
5.9,0.5,0.0,1.0,0.0,0.0,0.25,1.0,0.0,0.0,0.5,0.0,0.0,0.0,-1.23,-0.98,0.08,47.51,21.3,33.8,0.75,0.5,1.25,1.25,0.0,0.0,0.5,0.0,0.0,0.25,0.5,0.25,0.25,-0.3,-0.92,0.58,106.17,-20.8,32.0
5.92,0.5,0.0,1.0,0.0,0.0,0.25,0.75,0.0,0.0,0.5,0.0,0.0,0.0,-1.23,-0.98,0.08,46.7,20.8,34.1,0.75,0.5,0.5,1.25,1.25,0.25,0.5,0.25,0.0,0.5,0.0,0.25,0.25,-0.23,-0.98,0.77,102.46,-9.2,34.7
5.94,0.5,0.0,1.0,0.0,0.0,0.5,0.75,0.0,0.0,0.5,0.0,0.0,0.0,-1.17,-1.05,0.08,45.82,17.2,34.1,0.75,0.5,1.25,1.25,1.5,0.25,0.5,0.5,0.0,0.25,0.5,0.25,0.25,-0.11,-1.11,0.83,105.58,-11.7,32.3
5.96,0.75,0.0,1.0,0.0,0.0,0.25,0.75,0.25,0.0,0.5,0.25,0.0,0.0,-1.05,-1.05,0.08,47.82,18.3,25.1,0.75,0.5,1.25,1.25,1.25,0.5,0.25,0.0,0.0,0.25,0.25,0.25,0.25,-0.05,-1.11,0.95,108.18,-12.9,40.5
5.98,0.75,0.0,1.0,0.0,0.0,0.25,0.75,0.25,0.0,0.5,0.0,0.0,0.0,-0.98,-1.05,0.14,48.89,18.8,33.0,0.5,0.5,1.25,1.25,1.0,0.0,0.75,0.25,0.0,0.5,0.5,0.25,0.25,-0.11,-1.23,0.95,110.93,-13.7,26.8
6.0,0.5,0.0,1.0,0.0,0.0,0.25,0.75,0.0,0.0,0.5,0.0,0.0,0.0,-0.92,-0.98,0.27,48.13,20.8,34.1,0.75,0.25,1.5,1.25,0.5,0.25,0.5,0.5,0.0,0.5,0.25,0.0,0.5,-0.11,-1.23,1.02,110.05,-13.4,26.8
6.02,0.75,0.0,1.0,0.0,0.0,0.75,0.25,0.0,0.0,0.5,0.0,0.0,0.0,-0.92,-1.05,0.33,49.65,14.3,39.5,0.0,0.0,1.25,0.0,1.25,0.0,0.5,0.0,0.0,0.0,0.0,0.0,0.0,-0.05,-1.3,1.02,89.28,-17.5,54.6
6.04,0.5,0.0,1.0,0.0,0.0,0.25,0.75,0.25,0.0,0.5,0.0,0.0,0.0,-1.05,-1.05,0.39,48.97,17.5,27.7,0.0,0.0,0.0,0.0,0.0,0.0,0.25,0.0,0.0,0.0,0.0,0.0,0.0,-0.11,-1.23,1.02,52.93,-32.4,27.3
6.06,0.25,0.0,1.0,0.0,0.75,0.25,0.75,0.0,0.0,0.5,0.0,0.0,0.0,-1.05,-1.11,0.39,51.17,13.3,34.7,1.25,0.5,0.0,1.25,0.0,0.0,0.0,0.0,0.0,0.5,0.0,0.5,0.0,-0.11,-1.23,0.95,42.79,-16.6,37.2
6.08,0.75,0.0,1.0,0.0,0.0,0.25,0.75,0.25,0.0,0.5,0.0,0.0,0.0,-0.92,-1.17,0.39,51.58,18.8,33.0,0.5,0.5,1.0,1.25,1.0,0.0,0.25,0.25,0.0,0.5,0.5,0.25,0.5,-0.11,-1.17,0.89,52.53,-11.0,20.1
6.1,0.5,0.0,1.0,0.0,0.5,0.5,0.75,0.0,0.0,0.5,0.0,0.0,0.0,-0.98,-1.36,0.52,54.52,13.7,37.4,0.75,0.5,1.25,1.25,1.25,0.25,0.5,0.25,0.0,0.5,0.5,0.25,0.5,-0.05,-1.17,1.08,79.69,-11.4,25.6
6.12,0.5,0.0,1.0,0.0,0.5,0.25,0.75,0.25,0.0,0.5,0.0,0.0,0.0,-1.11,-1.48,0.64,55.83,14.0,32.1,0.75,0.5,1.0,1.25,1.25,0.0,0.5,0.0,0.0,0.5,0.5,0.25,0.25,0.2,-1.42,1.27,98.8,-13.6,31.5
6.14,0.5,0.0,1.0,0.0,0.5,1.0,1.0,0.25,0.0,0.5,0.0,0.0,0.0,-1.17,-1.48,0.64,62.59,8.4,32.3,0.75,0.5,1.25,1.25,1.25,0.5,0.25,0.25,0.0,0.5,0.5,0.25,0.5,0.39,-1.42,1.45,115.56,-10.1,25.8
6.16,0.5,0.0,1.0,0.0,0.0,0.25,0.75,0.25,0.0,0.5,0.0,0.0,0.0,-1.17,-1.55,0.58,59.37,17.5,27.7,0.75,0.75,1.75,1.25,1.25,0.5,0.25,0.25,0.0,0.5,0.5,0.25,0.5,0.64,-1.3,1.52,124.75,-11.8,30.1
6.18,0.5,0.0,1.0,0.0,0.0,0.5,0.75,0.0,0.0,0.5,0.0,0.0,0.0,-1.17,-1.48,0.45,56.0,17.2,34.1,0.75,0.5,1.5,1.25,1.0,0.5,0.5,0.25,0.0,0.0,0.5,0.25,0.5,0.77,-1.17,1.45,127.11,-13.7,32.8
6.2,2.0,1.25,1.0,1.0,0.0,2.25,0.75,0.0,0.0,1.25,0.0,0.75,0.0,-1.11,-1.42,0.33,89.44,9.1,34.9,0.75,0.25,0.75,1.25,1.25,0.25,0.5,0.0,0.0,0.5,0.5,0.5,0.5,0.77,-1.17,1.33,126.6,-10.3,17.7
6.22,1.75,1.25,1.25,1.25,2.25,1.75,1.25,0.75,0.0,1.25,0.75,0.75,0.5,-1.05,-1.17,0.27,143.99,6.5,23.4,0.75,0.5,1.25,1.25,1.5,0.25,0.25,0.0,0.0,0.25,0.0,0.5,0.25,0.7,-1.11,1.08,124.93,-13.3,40.0
6.24,2.0,1.25,1.0,1.0,2.5,1.75,1.25,0.75,0.25,1.5,0.0,0.75,0.5,-0.92,-0.98,0.2,190.25,5.4,26.2,0.75,0.5,1.75,1.25,0.25,0.25,0.5,0.25,0.0,0.25,0.5,0.25,0.25,0.58,-0.92,0.95,121.32,-18.1,32.6
6.26,2.0,1.25,1.5,1.0,1.75,2.25,1.0,0.5,0.25,1.25,0.5,0.25,0.0,-0.8,-0.8,0.2,216.0,7.7,36.0,0.75,0.5,1.0,1.25,1.0,0.5,0.75,0.0,0.0,0.5,0.25,0.25,0.25,0.39,-0.73,0.64,120.25,-12.2,34.5
6.28,0.75,0.0,1.0,0.0,0.75,0.25,1.0,0.75,0.0,0.5,0.0,0.75,0.0,-0.61,-0.67,0.27,190.54,10.8,9.4,0.5,0.25,1.75,1.25,1.0,0.5,0.5,0.0,0.0,0.5,0.0,0.25,0.25,0.2,-0.55,0.52,117.0,-14.1,36.9
6.3,2.0,1.25,1.0,1.0,2.5,1.75,1.0,0.5,0.25,1.25,1.0,0.0,0.5,-0.48,-0.55,0.27,195.67,6.2,29.4,0.75,0.5,1.75,1.25,0.5,0.5,0.5,0.25,0.0,0.5,0.5,0.25,0.25,0.14,-0.42,0.39,114.11,-14.8,29.8
6.32,0.75,0.0,1.0,0.0,0.0,0.0,0.75,0.0,0.0,0.5,1.25,0.0,0.0,-0.36,-0.42,0.27,150.67,21.2,3.1,0.75,0.5,1.25,1.25,1.25,0.5,0.25,0.0,0.0,0.5,0.5,0.25,0.5,0.02,-0.23,0.33,114.58,-11.0,27.9
6.34,0.25,0.0,1.0,0.0,0.0,0.5,0.75,0.0,0.0,0.5,0.0,0.0,0.0,-0.3,-0.36,0.2,116.51,15.6,28.4,1.0,0.75,1.25,1.25,1.75,1.0,0.25,0.25,0.0,0.25,0.5,0.0,0.25,-0.05,-0.17,0.33,123.72,-9.6,43.1
6.36,0.5,0.0,1.0,0.0,0.0,1.0,0.75,0.0,0.0,0.75,0.0,0.5,0.0,-0.3,-0.3,0.27,80.8,9.4,9.6,1.0,0.75,0.75,1.25,1.0,0.75,0.5,0.5,0.0,0.5,0.5,0.25,0.25,-0.05,-0.17,0.27,127.26,-8.8,29.7
6.38,2.0,1.25,0.75,0.25,1.75,2.25,1.25,0.25,0.25,1.0,0.0,0.75,0.0,-0.36,-0.36,0.33,104.55,6.2,35.1,1.0,0.5,1.25,1.25,1.0,0.25,0.5,0.25,0.0,0.25,0.5,0.25,0.25,0.02,-0.17,0.2,125.4,-14.6,35.2
6.4,2.0,1.25,1.0,1.0,2.25,2.0,1.25,0.0,0.25,0.5,0.0,0.0,0.0,-0.36,-0.36,0.33,128.83,9.1,54.7,0.5,0.5,1.25,1.25,1.0,0.25,0.5,0.25,0.0,0.25,0.5,0.0,0.25,0.08,-0.23,0.27,117.99,-13.4,36.2
6.42,0.75,0.0,1.0,0.0,0.0,0.5,0.75,0.0,0.0,0.5,0.0,0.0,0.0,-0.42,-0.42,0.33,113.46,18.5,39.0,0.75,0.5,1.25,1.25,1.25,0.25,0.25,0.0,0.0,0.25,0.25,0.0,0.25,0.2,-0.42,0.39,112.52,-14.4,46.6
6.44,0.25,0.0,1.0,0.0,0.0,0.25,0.75,0.0,0.0,0.5,0.0,0.25,0.0,-0.48,-0.55,0.39,81.44,18.4,14.7,0.75,0.25,1.25,1.25,1.0,0.5,0.5,0.25,0.0,0.5,0.0,0.25,0.25,0.39,-0.55,0.58,108.49,-11.8,34.4
6.46,0.5,0.0,1.0,0.0,0.0,0.0,0.75,0.25,0.0,0.5,0.0,0.0,0.0,-0.55,-0.67,0.39,45.54,21.2,27.1,0.75,0.75,1.25,1.25,1.25,0.75,0.5,0.0,0.0,0.25,0.5,0.25,0.25,0.45,-0.61,0.64,112.69,-12.0,38.4
6.48,0.5,0.0,1.0,0.0,0.0,0.25,0.75,0.0,0.0,0.5,0.0,0.0,0.0,-0.67,-0.73,0.33,27.91,20.8,34.1,0.75,0.25,1.0,1.25,0.5,1.0,0.5,0.25,0.0,0.5,0.5,0.0,0.5,0.58,-0.55,0.77,112.38,-8.8,23.7
6.5,0.5,0.0,0.25,0.0,0.0,0.25,0.75,0.0,0.0,0.5,0.0,0.0,0.0,-0.8,-0.73,0.33,18.83,13.5,22.8,0.75,0.5,2.0,1.25,1.25,1.25,0.5,0.25,0.0,0.5,0.5,0.25,0.25,0.58,-0.55,0.83,124.48,-10.9,33.2
6.52,0.5,0.0,1.0,0.0,0.0,0.0,1.25,0.0,0.0,0.5,0.0,0.0,0.0,-0.86,-0.73,0.33,26.44,25.9,33.5,0.75,0.25,1.5,1.5,1.25,1.25,0.25,0.0,0.0,0.5,0.5,0.25,0.25,0.58,-0.48,0.77,128.92,-9.8,32.5
6.54,0.25,0.0,1.0,0.0,0.0,0.25,0.75,0.0,0.0,0.5,0.0,0.0,0.0,-0.92,-0.67,0.39,22.77,19.4,27.8,0.75,0.5,0.5,1.25,0.0,1.25,0.5,0.5,0.0,0.5,0.5,0.25,0.25,0.45,-0.42,0.7,123.42,-6.4,19.2
6.56,0.25,0.0,1.0,0.0,0.0,0.25,0.75,0.0,0.0,0.5,0.0,0.0,0.0,-0.86,-0.48,0.45,29.73,19.4,27.8,1.25,0.5,1.25,1.25,1.25,1.25,0.5,0.5,0.0,0.5,0.5,0.0,0.0,0.2,-0.3,0.7,126.69,-9.7,40.5
6.58,0.25,0.0,0.75,0.0,0.0,0.25,0.75,0.0,0.0,0.5,0.0,0.0,0.0,-0.8,-0.42,0.58,25.61,17.1,23.8,0.75,0.5,1.5,1.25,1.25,1.25,0.5,0.0,0.0,0.25,0.25,0.0,0.25,0.08,-0.11,0.7,125.9,-10.9,45.3
6.6,0.0,0.0,1.0,0.0,0.0,0.5,0.75,0.0,0.0,0.5,0.0,0.0,0.0,-0.67,-0.23,0.64,22.73,13.7,21.5,1.0,0.5,1.25,1.25,1.25,1.25,0.25,0.0,0.0,0.25,0.5,0.25,0.5,0.08,0.08,0.45,130.94,-9.5,33.5
6.62,0.75,0.0,1.0,0.0,0.0,0.25,0.75,0.0,0.0,0.5,0.0,0.0,0.0,-0.48,-0.17,0.7,23.86,22.0,39.4,1.0,0.5,0.5,0.75,1.25,1.25,0.5,0.0,0.0,0.25,0.5,0.0,0.0,0.27,-0.36,0.52,123.63,-7.8,45.3
6.64,0.75,0.0,0.75,0.0,0.0,0.25,0.75,0.0,0.0,0.5,0.0,0.0,0.0,-0.17,-0.23,0.83,32.85,20.4,37.2,1.0,0.25,0.75,1.25,1.25,1.25,0.25,0.25,0.0,0.25,0.25,0.25,0.5,1.02,-1.67,1.58,123.24,-6.6,30.5
6.66,1.0,0.0,1.0,0.0,0.0,0.25,0.75,0.0,0.0,0.5,0.0,0.0,0.0,0.2,-0.36,0.95,46.33,23.0,43.9,1.0,0.25,0.75,1.25,1.25,1.25,0.25,0.25,0.0,0.25,0.75,0.25,0.25,0.89,-1.05,1.39,120.08,-7.5,28.6
6.68,1.75,0.0,1.0,0.0,0.0,0.5,0.75,0.0,0.0,0.5,0.0,0.0,0.0,0.27,-0.36,0.83,55.77,22.4,52.7,1.25,0.5,0.5,1.25,0.0,1.25,0.25,0.25,0.0,0.5,0.5,0.25,0.5,0.2,0.45,0.58,115.59,-8.0,21.7
6.7,1.75,0.0,0.75,0.0,0.5,0.0,0.5,0.0,0.0,0.5,0.0,0.0,0.0,0.02,-0.36,0.7,62.25,22.7,55.5,1.0,0.0,0.75,1.25,0.25,2.0,0.25,0.5,0.0,0.5,0.5,0.0,0.25,0.7,0.02,0.64,112.61,-4.2,24.8
6.72,2.0,0.0,0.5,0.0,0.0,0.25,0.25,0.25,0.0,0.5,0.0,0.0,0.0,-0.61,-1.36,1.2,65.4,20.4,51.0,1.25,0.75,1.25,1.25,1.0,1.5,0.25,0.0,0.0,0.25,0.25,0.25,0.25,1.14,-0.42,1.2,118.21,-10.6,44.4
6.74,2.0,0.0,0.25,0.0,0.0,0.25,0.25,0.25,0.0,0.5,0.0,0.0,0.0,-1.11,-1.73,1.33,64.66,19.0,50.2,1.5,0.5,0.75,1.0,1.25,1.5,0.25,0.0,0.0,0.5,0.5,0.25,0.5,0.7,-0.23,1.02,123.42,-7.3,31.5
6.76,2.0,0.0,1.0,0.0,2.5,0.25,0.25,0.25,0.0,0.5,0.0,0.0,0.0,-0.98,-0.36,0.64,83.06,11.8,52.8,1.75,0.5,1.0,1.25,0.0,1.75,0.25,0.25,0.0,0.5,0.5,0.25,0.5,0.52,0.02,0.89,129.36,-9.6,29.2
6.78,2.0,0.0,0.75,0.0,0.0,0.5,0.25,0.0,0.0,0.5,0.0,0.0,0.0,-0.48,0.33,0.33,82.52,21.4,56.6,2.0,0.25,1.0,1.25,0.5,1.25,0.25,0.0,0.0,0.5,0.5,0.25,0.5,0.27,-0.05,0.77,132.14,-12.1,32.5
6.8,2.0,0.0,0.25,0.0,0.0,0.25,0.25,0.25,0.0,0.5,0.0,0.0,0.0,-0.05,0.83,0.64,79.76,19.0,50.2,2.0,0.5,0.5,1.25,1.25,1.25,0.25,0.0,0.0,0.5,0.25,0.25,0.5,0.14,0.02,0.77,133.24,-8.9,38.0
6.82,2.25,0.0,0.25,0.0,0.75,1.0,0.25,0.25,0.0,0.5,0.0,0.0,0.0,-0.17,0.02,0.95,80.21,10.0,50.7,2.0,0.0,1.0,0.75,1.5,1.5,0.25,0.0,0.0,0.5,0.25,0.25,0.5,0.14,0.02,0.64,135.14,-8.7,34.9
6.84,2.5,0.0,0.75,0.0,1.25,0.75,0.25,0.25,0.0,0.5,0.0,0.0,0.0,-0.48,-0.55,1.89,89.19,13.3,54.3,2.0,0.25,1.0,1.25,1.25,1.25,0.5,0.25,0.0,0.5,0.5,0.25,0.5,0.39,0.2,0.64,141.1,-10.1,32.5
6.86,3.0,0.0,0.75,0.0,0.5,0.0,0.25,0.5,0.0,0.5,0.0,0.0,0.0,-0.98,0.45,1.45,92.89,21.4,56.6,2.0,0.5,1.0,1.25,1.25,1.5,0.25,0.5,0.0,0.25,0.5,0.25,0.5,0.7,0.2,0.58,148.79,-9.1,35.3
6.88,3.25,0.0,0.0,0.0,0.5,0.0,0.25,0.5,0.0,0.5,0.0,0.0,0.0,-0.67,0.39,1.2,94.02,19.4,57.9,2.0,0.75,1.25,1.25,1.0,1.5,0.25,0.25,0.0,0.5,0.5,0.25,0.5,0.83,0.27,0.58,154.87,-10.3,36.1
6.9,3.75,0.0,0.0,0.0,0.0,0.5,0.25,0.25,0.0,0.5,0.0,0.0,0.0,0.14,-0.05,1.08,92.08,21.3,64.9,2.0,0.25,1.5,1.0,1.25,1.5,0.25,0.0,0.0,0.5,0.25,0.25,0.5,0.83,0.27,0.7,155.79,-11.1,38.2
6.92,3.75,0.0,0.0,0.0,0.75,0.75,0.25,0.5,0.0,0.5,0.25,0.0,0.0,-0.36,0.02,0.83,96.48,14.5,52.9,2.0,0.5,0.75,1.0,1.5,1.25,0.25,0.5,0.0,0.5,0.5,0.25,0.5,0.58,0.27,0.58,156.19,-7.8,31.6
6.94,4.5,1.25,1.0,0.75,2.5,2.5,1.0,0.75,0.75,2.0,1.25,0.75,1.0,-0.8,0.2,0.7,166.15,7.1,20.5,2.0,0.25,1.25,0.75,0.5,1.5,0.5,0.25,0.0,0.5,0.5,0.25,0.5,0.27,0.33,0.58,148.54,-11.0,29.6
6.96,3.75,0.0,1.0,0.0,2.5,0.5,1.5,0.75,0.25,2.0,0.75,0.75,1.25,-1.48,0.27,0.39,201.6,8.3,8.9,2.0,0.25,0.75,1.0,0.5,1.25,0.5,0.0,0.0,0.5,0.5,0.5,0.5,0.14,0.33,0.58,139.19,-11.3,26.2
6.98,2.75,0.0,1.0,0.0,0.0,1.0,0.75,0.0,0.75,2.0,0.0,0.75,0.0,-1.3,0.39,0.58,204.2,12.3,11.2,2.0,0.0,0.75,1.25,1.25,1.5,0.25,0.5,0.0,0.25,0.75,0.25,0.5,0.27,0.33,0.64,137.96,-8.1,28.1
7.0,2.25,0.0,1.5,0.0,2.5,1.0,1.25,0.5,0.25,0.5,0.75,0.0,1.25,-0.67,0.2,0.58,197.36,8.6,21.1,2.0,0.0,1.75,1.0,1.25,1.25,0.25,0.5,0.0,0.5,0.5,0.25,0.5,0.2,0.33,0.64,142.08,-11.1,30.5
7.02,2.0,0.0,1.0,0.0,0.0,0.5,0.75,0.0,0.25,0.5,0.5,0.0,0.0,-0.23,0.02,0.77,162.08,21.3,37.8,2.0,0.25,0.5,1.25,0.25,1.5,0.0,0.0,0.0,0.5,0.0,0.25,0.25,1.33,0.08,2.02,132.44,-10.2,42.9
7.04,1.75,0.0,1.0,0.0,0.5,0.5,1.5,0.75,0.25,0.5,1.25,0.0,0.0,-0.23,-0.05,0.83,137.58,14.3,17.0,2.0,0.0,0.0,1.25,1.5,1.75,0.25,0.0,0.0,0.25,0.5,0.0,0.5,-0.11,0.08,1.08,128.46,-5.3,37.7
7.06,1.5,0.0,1.0,0.0,0.0,0.0,0.25,0.5,0.25,1.0,0.0,0.25,0.75,-0.61,0.2,0.77,108.33,11.8,-2.5,1.75,0.25,0.5,0.0,1.25,1.5,0.25,0.0,0.0,0.0,0.5,0.0,0.5,0.27,0.2,2.08,115.39,-7.0,39.5
7.08,0.0,0.0,0.75,0.0,0.0,0.0,0.25,0.0,0.25,1.25,0.5,0.5,0.75,-0.73,0.2,0.83,91.34,3.8,-55.4,1.0,0.0,0.0,1.25,1.0,2.75,0.75,1.25,0.75,1.25,2.0,0.5,1.25,0.08,-0.17,1.14,137.05,1.5,-13.9
7.1,1.0,0.0,1.0,0.0,0.5,0.25,0.25,0.75,0.25,1.75,1.5,0.75,1.5,-0.3,-0.05,1.02,96.65,3.4,-35.7,0.5,0.0,0.0,1.25,1.5,2.75,0.5,0.5,0.75,0.5,1.5,0.0,0.75,-0.11,0.02,0.95,144.89,2.0,2.8
7.12,0.25,0.0,0.0,0.0,1.75,0.0,0.75,1.0,0.25,2.0,0.75,0.75,1.5,0.14,0.14,1.27,106.59,-4.3,-41.0,0.0,0.0,0.25,0.0,0.0,0.25,0.0,0.0,0.0,0.0,0.0,0.0,0.0,0.02,0.14,0.95,109.66,-9.0,48.1
7.14,0.25,0.25,0.5,0.0,0.5,0.0,0.25,0.75,0.25,1.25,0.75,0.75,1.5,0.45,0.2,0.95,107.88,-0.4,-46.7,0.0,0.0,0.0,0.0,0.0,0.25,0.25,0.0,0.0,0.0,0.0,0.0,0.0,0.27,0.14,0.89,62.98,4.2,31.8
7.16,0.5,0.0,1.0,0.0,2.5,0.0,0.75,1.25,0.25,1.0,0.75,0.75,1.25,0.2,-0.05,0.95,115.21,2.0,-13.8,0.5,0.0,0.0,0.25,1.25,2.25,0.25,0.5,0.75,0.75,1.0,0.5,0.5,0.2,0.27,0.89,60.64,3.8,-8.9
7.18,0.0,0.0,0.0,0.0,0.0,0.0,0.25,0.75,0.25,0.5,0.5,1.75,1.5,-0.05,0.02,0.83,102.65,-2.6,-87.3,0.0,0.0,1.0,1.25,0.5,2.25,0.0,0.75,0.75,0.75,1.75,0.0,1.25,0.02,0.2,0.95,83.91,0.3,-13.7
7.2,2.25,0.0,0.0,1.0,0.0,0.0,0.25,0.75,0.25,1.25,0.75,0.75,1.5,-0.11,0.08,1.02,113.41,6.9,-19.9,0.0,0.25,0.75,1.25,0.5,2.25,0.25,0.5,0.75,0.5,2.0,0.5,1.0,0.14,0.14,0.89,116.13,-1.2,-13.9
7.22,0.5,0.0,0.0,0.0,0.0,0.0,0.25,0.75,0.25,1.25,0.75,0.75,1.5,-0.17,0.08,0.95,107.77,-2.6,-66.7,0.0,0.0,2.0,1.25,1.25,2.75,0.25,0.5,0.75,0.75,2.0,0.5,1.25,0.14,0.14,0.95,154.51,-2.8,-5.7
7.24,0.5,0.0,0.0,0.0,0.5,0.0,1.0,1.75,0.25,1.25,2.25,0.75,1.5,-0.17,0.08,0.89,120.98,-0.7,-53.9,0.25,0.0,0.5,1.0,1.0,2.5,0.25,1.0,0.75,0.5,2.0,0.5,1.25,0.08,0.14,0.89,169.52,1.4,-16.3
7.26,0.75,0.0,0.5,0.0,0.0,0.0,0.25,0.75,0.5,0.75,0.75,0.75,1.25,-0.17,0.08,0.89,115.7,4.3,-45.9,0.5,0.0,1.0,1.25,1.5,2.5,0.25,1.0,0.75,0.75,1.75,0.0,1.25,0.02,0.2,0.89,181.28,-0.2,-2.5
7.28,1.75,1.25,0.5,1.0,2.5,1.75,1.5,2.75,1.0,3.0,2.25,2.5,2.25,-0.05,0.08,0.89,188.58,0.8,-19.2,0.5,0.0,0.75,1.25,1.5,2.5,0.25,0.75,0.75,1.0,2.0,0.25,1.25,-0.11,0.14,0.89,185.86,0.0,-8.0
7.3,2.5,1.25,1.0,0.5,2.5,1.75,0.75,1.75,1.25,3.0,2.25,2.0,2.0,0.14,0.08,0.95,241.77,2.7,-12.6,0.5,0.0,0.75,1.25,1.0,2.5,0.25,1.5,0.75,0.75,2.0,0.5,1.25,-0.3,0.14,0.95,193.11,0.4,-13.2
7.32,2.0,1.25,1.0,0.75,2.5,2.25,0.75,2.25,1.25,3.0,2.25,1.75,1.75,0.08,0.08,0.95,288.66,1.4,-11.4,0.5,0.0,0.5,1.5,0.25,2.75,0.5,0.75,0.75,0.75,2.75,0.5,1.25,-0.3,0.14,1.02,191.63,-0.8,-18.8
7.34,2.0,1.25,1.0,1.25,2.5,2.25,0.75,2.75,0.75,2.25,2.5,1.0,1.0,-0.17,0.08,0.95,304.28,2.1,-1.1,0.5,0.0,0.75,1.25,1.0,2.75,0.25,0.75,0.75,0.75,2.25,0.75,1.25,0.08,0.14,0.95,198.17,-0.4,-13.9
7.36,2.25,1.25,1.0,0.0,2.5,0.0,1.0,0.75,1.25,3.0,1.0,1.75,1.25,-0.11,0.08,0.95,296.73,5.8,-8.6,0.5,0.0,0.75,1.25,1.25,2.75,0.25,1.0,0.75,1.0,2.5,1.0,1.25,0.02,0.14,0.95,206.32,-0.1,-16.8
7.38,2.0,1.25,1.0,1.0,2.25,0.0,1.5,2.75,0.75,2.0,2.25,0.75,1.5,-0.17,0.08,0.95,285.79,5.0,-5.9,0.5,0.0,0.75,1.25,1.0,2.5,0.25,1.25,1.0,0.75,2.75,1.25,1.25,0.02,0.14,0.89,206.17,-1.1,-21.4
