time,left pressure 0[N/cm虏],left pressure 1[N/cm虏],left pressure 2[N/cm虏],left pressure 3[N/cm虏],left pressure 4[N/cm虏],left pressure 5[N/cm虏],left pressure 6[N/cm虏],left pressure 7[N/cm虏],left pressure 8[N/cm虏],left pressure 9[N/cm虏],left pressure 10[N/cm虏],left pressure 11[N/cm虏],left pressure 12[N/cm虏],left acceleration X[g],left acceleration Y[g],left acceleration Z[g],left total force[N],left center of pressure X[mm],left center of pressure Y[mm],right pressure 0[N/cm虏],right pressure 1[N/cm虏],right pressure 2[N/cm虏],right pressure 3[N/cm虏],right pressure 4[N/cm虏],right pressure 5[N/cm虏],right pressure 6[N/cm虏],right pressure 7[N/cm虏],right pressure 8[N/cm虏],right pressure 9[N/cm虏],right pressure 10[N/cm虏],right pressure 11[N/cm虏],right pressure 12[N/cm虏],right acceleration X[g],right acceleration Y[g],right acceleration Z[g],right total force[N],right center of pressure X[mm],right center of pressure Y[mm]
0.02,11.0,2.0,11.0,7.25,8.25,2.5,3.0,1.0,1.25,2.0,2.0,0.75,0.5,-0.67,0.7,1.83,1065.59,17.2,47.0,8.5,1.75,5.25,5.25,5.75,5.75,4.5,6.0,5.5,3.0,3.0,0.5,1.25,0.08,0.2,0.95,928.25,-8.5,20.7
0.04,9.5,1.5,9.75,6.25,6.75,2.5,3.0,1.0,0.5,2.0,1.75,0.75,0.5,-0.55,0.7,1.83,853.54,17.0,46.0,8.75,1.75,5.5,6.0,6.5,6.0,4.5,6.0,5.5,2.5,2.75,0.5,1.25,0.08,0.2,0.95,992.87,-8.8,23.6
0.06,7.25,1.5,7.75,5.0,4.75,2.5,1.75,1.0,0.5,2.0,0.5,0.5,0.5,-0.42,0.7,2.02,637.14,16.1,46.7,8.75,1.75,6.5,7.0,6.75,6.0,4.75,6.0,5.25,2.25,2.75,0.5,1.25,0.08,0.2,0.95,1039.84,-9.5,25.7
0.08,5.0,0.25,4.5,1.25,4.25,0.25,1.5,0.0,0.0,0.5,0.75,0.0,0.0,-0.42,0.08,2.27,393.2,20.4,57.8,9.0,1.75,7.0,7.0,7.25,6.0,4.5,5.25,5.25,2.0,2.75,0.5,1.25,0.08,0.2,0.95,1064.08,-10.2,27.9
0.1,2.5,0.0,3.5,1.5,4.25,0.0,1.25,0.0,0.75,1.5,0.5,0.75,0.0,-0.42,-0.98,0.02,249.44,14.9,33.8,9.5,1.75,6.75,8.25,7.25,6.0,4.75,5.0,4.75,2.0,2.0,0.5,1.25,0.08,0.2,0.95,1072.72,-10.5,31.1
0.12,3.25,1.5,0.0,3.0,4.25,2.25,1.75,1.0,0.75,1.5,1.5,0.75,0.5,-1.17,-1.48,1.77,168.42,5.8,26.0,9.75,1.75,6.75,8.75,7.25,6.0,4.75,4.75,4.0,1.5,2.0,0.5,1.25,0.08,0.2,0.95,1065.21,-11.0,33.8
0.14,2.5,1.5,0.0,3.0,4.25,1.75,1.75,1.0,0.5,1.75,1.25,0.75,0.5,-0.98,-1.11,1.02,131.12,5.0,24.1,9.75,1.75,7.0,8.75,7.5,5.75,4.75,3.75,3.25,1.5,2.0,0.5,1.0,0.08,0.2,0.95,1037.84,-11.8,36.9
0.16,2.25,1.5,0.0,3.0,4.25,2.0,1.75,1.0,0.5,1.5,1.25,0.75,0.5,-0.8,-0.86,0.52,129.86,4.6,24.6,9.75,1.75,7.5,9.75,7.75,5.75,4.5,3.75,2.25,0.75,1.5,0.5,1.0,0.08,0.2,0.95,1004.87,-12.4,41.5
0.18,2.25,1.5,1.25,3.0,4.25,2.0,1.75,1.0,0.75,1.5,1.25,0.75,0.5,-0.67,-0.73,0.52,153.15,6.7,26.0,10.5,1.75,7.5,10.5,8.25,5.75,4.25,2.5,2.0,1.0,1.5,0.5,0.75,0.08,0.2,0.95,976.26,-13.2,45.0
0.2,2.25,1.5,1.0,3.0,4.25,2.0,1.75,1.0,0.5,1.25,1.25,0.75,0.5,-0.55,-0.67,0.77,175.92,6.5,27.6,11.0,2.0,7.75,10.5,8.5,5.75,4.25,2.5,1.5,1.0,1.5,0.5,0.25,0.02,0.2,0.95,962.5,-13.7,47.9
0.22,2.0,1.25,0.5,3.0,4.25,1.75,1.75,1.0,0.5,1.25,1.25,0.75,0.75,-0.48,-0.48,1.02,194.3,5.4,23.1,11.0,2.0,8.25,10.5,8.75,5.0,4.25,2.5,1.25,1.0,1.25,0.5,0.5,0.02,0.2,0.89,951.5,-14.2,48.5
0.24,2.25,1.5,2.25,3.0,4.25,1.75,1.75,1.0,0.5,1.25,1.5,0.75,0.5,-0.36,-0.3,1.14,223.78,8.8,28.4,11.0,1.75,8.5,12.0,8.75,5.0,4.25,2.25,1.25,0.75,1.0,0.5,0.5,0.02,0.2,0.89,955.37,-14.7,50.0
0.26,2.25,1.5,1.5,2.75,4.25,1.5,1.75,1.0,0.5,0.75,1.25,0.75,0.5,-0.42,-0.05,1.27,243.77,8.5,30.5,12.0,2.5,8.75,12.0,9.5,5.5,4.5,2.25,1.25,1.0,0.75,0.5,0.5,0.02,0.2,0.89,987.42,-14.4,51.3
0.28,2.25,1.25,1.0,2.5,4.25,1.5,1.75,1.0,0.5,1.25,1.25,0.75,0.5,-0.48,0.14,1.33,258.28,6.9,25.7,12.0,2.5,9.25,14.0,10.0,5.75,4.75,2.25,1.0,0.75,0.75,0.5,0.5,0.02,0.2,0.89,1041.52,-14.6,52.4
0.3,2.25,1.5,2.75,2.25,4.25,0.5,1.75,1.0,0.5,1.0,1.25,0.75,0.5,-0.55,0.33,1.52,271.64,11.3,30.3,12.5,2.75,10.0,14.0,10.0,6.0,5.0,2.25,0.75,0.75,0.75,0.5,0.5,0.02,0.27,0.95,1105.31,-14.9,53.2
0.32,2.25,1.5,3.25,1.75,4.25,1.25,1.75,1.0,0.5,1.5,1.25,0.75,0.5,-0.67,0.64,2.14,286.14,10.1,28.0,13.0,2.75,11.0,15.5,11.5,6.25,5.0,2.25,0.75,1.0,0.75,0.5,0.5,0.02,0.27,0.95,1201.98,-14.7,53.2
0.34,2.25,1.25,3.0,2.0,4.25,1.5,1.75,1.0,0.5,1.5,1.25,0.75,0.5,-0.61,1.14,2.27,288.76,9.4,27.1,13.5,3.25,11.5,16.0,12.0,6.25,5.0,2.25,0.75,0.75,0.75,0.25,0.75,0.02,0.27,0.95,1299.5,-14.9,54.3
0.36,2.5,1.75,2.5,1.0,3.75,1.25,1.75,1.0,0.5,1.25,1.0,0.75,0.5,-0.36,2.02,2.33,282.59,9.7,29.1,14.5,3.0,12.5,15.0,13.0,0.0,5.0,2.25,0.75,0.5,1.0,0.25,0.75,0.02,0.27,1.02,1329.21,-18.6,56.6
0.38,2.25,1.25,2.75,1.75,3.5,0.25,1.75,1.0,0.5,1.25,1.25,0.75,0.5,-0.05,2.64,1.27,275.46,11.9,25.9,14.5,2.75,12.5,16.5,13.5,6.25,5.0,2.25,0.75,0.5,1.0,0.25,0.75,0.02,0.33,1.08,1386.85,-15.2,54.7
0.4,2.25,1.5,2.75,1.75,4.25,0.25,1.75,1.0,0.5,1.25,1.25,0.75,0.5,0.2,3.77,0.2,270.69,11.3,28.1,15.5,3.5,13.5,17.0,13.0,5.75,5.0,1.5,0.75,0.75,0.25,0.25,0.75,0.08,0.33,1.14,1432.72,-16.3,57.6
0.42,2.25,1.5,2.75,1.75,4.25,1.0,1.75,1.0,0.5,1.25,1.25,0.75,0.5,0.77,4.14,-0.48,271.12,10.1,28.3,16.0,2.5,14.0,15.5,11.5,3.25,4.5,0.75,0.5,0.5,0.5,0.25,0.5,0.08,0.39,1.14,1427.41,-19.0,60.3
0.44,2.25,1.25,2.5,1.75,4.25,1.75,1.75,1.0,0.75,1.25,1.25,0.75,0.5,1.89,4.89,0.7,276.86,8.6,26.4,16.0,3.75,14.0,14.0,10.0,3.75,5.0,1.0,0.25,0.5,0.75,0.0,0.25,0.08,0.45,1.2,1394.93,-19.3,61.7
0.46,1.25,0.0,2.5,0.25,4.25,0.0,1.75,1.0,0.25,1.75,1.75,0.75,0.5,-0.3,0.95,0.83,261.18,8.3,8.0,14.5,2.5,14.0,11.0,8.75,0.75,6.0,0.75,0.0,0.5,0.5,0.0,0.5,0.14,0.58,1.27,1286.19,-22.0,62.2
0.48,2.0,1.25,2.5,1.25,2.25,2.0,1.5,1.0,0.5,1.75,0.75,0.75,0.0,-0.55,-1.05,2.33,250.58,8.8,25.9,14.0,3.25,13.0,10.5,6.5,0.5,6.75,0.75,0.0,0.5,0.5,0.0,0.5,0.14,0.77,1.58,1124.38,-22.9,62.8
0.5,2.0,1.25,2.5,1.75,4.25,1.0,1.5,1.25,0.5,2.0,2.25,2.25,1.25,0.39,0.2,0.27,263.99,7.4,5.0,12.0,3.25,11.0,8.75,3.75,2.25,7.0,0.75,0.0,0.5,0.5,0.0,0.5,0.33,1.14,2.08,931.97,-22.2,61.2
0.52,1.75,1.0,2.25,1.25,0.0,2.5,1.75,3.25,1.25,4.25,2.5,4.0,2.75,1.02,0.77,3.77,291.49,2.5,-30.7,9.75,2.5,9.5,7.0,1.75,0.25,6.25,0.75,0.0,0.5,0.5,0.0,0.25,0.52,1.27,2.39,726.28,-25.4,61.9
0.54,1.75,1.5,0.0,1.25,3.5,2.5,0.0,5.25,2.5,5.0,4.5,5.25,4.0,-0.11,0.14,0.95,367.8,-1.8,-36.0,8.75,0.0,7.75,5.0,2.25,2.25,4.5,0.75,0.0,0.5,0.5,0.0,0.5,0.58,0.95,2.52,535.62,-22.0,55.7
0.56,1.75,1.5,3.75,0.75,3.75,3.5,0.5,5.75,3.25,4.25,5.25,4.0,4.5,0.02,0.2,0.95,467.33,1.3,-24.6,6.25,0.5,5.25,2.75,1.75,0.25,2.25,0.75,0.0,0.5,0.5,0.0,0.25,0.45,0.08,3.02,353.27,-23.6,56.7
0.58,2.25,1.5,4.25,3.0,4.25,3.75,1.5,5.75,4.25,6.5,6.0,5.5,3.75,-0.11,0.08,0.95,614.62,2.9,-21.7,3.75,0.5,3.75,2.5,0.0,0.25,2.0,0.75,0.25,0.5,0.5,0.0,0.5,0.45,-0.61,1.08,230.42,-23.1,45.5
0.6,2.25,1.5,4.75,3.0,4.25,4.5,3.75,6.75,4.75,6.5,6.25,5.5,5.25,-0.11,0.14,0.95,762.05,2.7,-22.4,2.25,0.5,3.25,2.5,2.5,0.0,2.0,0.75,0.25,0.75,0.5,0.25,0.25,0.89,-1.61,2.08,140.54,-16.9,39.9
0.62,2.25,1.5,4.75,3.0,4.75,4.75,4.25,7.25,5.25,7.25,6.75,5.75,5.25,-0.11,0.08,0.95,903.26,2.5,-22.9,2.0,0.5,3.0,2.75,2.5,1.5,2.0,0.75,0.25,0.5,0.5,0.0,0.25,0.58,-1.3,1.83,89.56,-13.4,42.7
0.64,2.25,1.5,4.75,3.25,5.5,5.5,4.25,7.5,5.5,7.0,6.5,5.5,5.25,-0.11,0.08,0.95,1008.19,2.2,-20.2,2.0,0.75,2.75,2.75,2.5,0.5,2.0,0.75,0.25,0.5,0.5,0.0,0.0,0.27,-0.86,0.89,75.34,-15.7,46.6
0.66,2.25,1.5,4.75,3.25,6.75,5.75,4.75,7.5,6.0,6.5,6.5,5.25,5.0,-0.11,0.08,0.95,1087.19,2.3,-17.2,1.5,0.5,2.75,2.5,2.5,1.25,1.5,0.75,0.0,0.5,0.25,0.0,0.0,0.2,-0.61,0.52,81.06,-13.0,47.0
0.68,2.25,1.25,5.5,3.75,7.0,6.0,4.75,7.5,6.0,6.5,6.0,4.25,4.25,-0.11,0.08,0.95,1128.66,2.7,-12.6,1.25,0.25,3.25,2.5,2.25,1.25,1.75,0.75,0.25,0.5,0.5,0.0,0.25,0.02,-0.48,0.77,94.88,-13.5,39.0
0.7,2.25,1.25,5.25,5.25,6.75,6.25,4.75,7.5,6.0,5.0,5.5,3.0,3.25,-0.11,0.08,0.95,1126.8,3.4,-5.4,1.0,0.5,3.75,2.5,2.25,1.25,1.75,0.75,0.0,0.5,0.5,0.25,0.25,-0.11,-0.36,1.14,117.73,-13.9,38.7
0.72,2.25,1.25,5.5,5.25,7.0,6.5,4.75,7.5,5.75,4.5,4.75,2.5,1.5,-0.11,0.08,0.95,1080.06,4.0,1.0,1.25,0.5,2.75,2.25,2.5,1.0,1.75,0.75,0.25,0.5,0.5,0.25,0.0,-0.05,-0.23,1.14,135.22,-13.2,39.5
0.74,2.25,1.25,5.75,5.5,8.25,6.5,4.75,7.0,5.5,3.5,4.5,2.5,1.5,-0.11,0.08,0.95,1027.62,4.5,5.1,1.0,0.5,2.75,2.25,2.5,1.25,1.75,0.75,0.0,0.5,0.5,0.25,0.25,-0.05,0.02,1.2,157.19,-11.7,37.0
0.76,2.25,1.25,5.75,6.75,8.5,6.75,4.75,6.75,5.5,3.0,3.5,1.75,1.5,-0.11,0.08,0.95,980.86,4.7,10.5,1.25,0.25,2.5,1.75,2.5,1.25,1.75,0.75,0.0,0.5,0.5,0.0,0.25,0.02,0.14,1.39,171.59,-11.4,38.4
0.78,3.0,1.25,6.0,7.0,8.5,7.0,4.75,6.75,5.25,2.75,3.25,1.5,1.25,-0.11,0.08,0.95,945.85,5.3,14.1,1.0,0.25,2.75,1.5,2.5,0.5,1.75,0.75,0.25,0.5,0.5,0.0,0.25,0.08,0.33,1.58,177.01,-13.4,36.0
0.8,3.75,1.25,6.25,7.0,8.5,7.0,4.75,6.5,5.0,2.75,3.25,1.0,1.25,-0.11,0.08,0.95,925.77,5.8,16.9,1.0,0.5,2.75,1.25,2.5,1.25,1.75,0.75,0.25,0.5,0.5,0.0,0.5,0.14,0.52,1.52,185.34,-10.8,33.8
0.82,4.0,1.25,6.25,8.75,8.75,7.0,4.5,6.0,4.75,2.75,2.5,0.75,1.25,-0.11,0.08,0.95,916.18,6.3,21.1,1.25,0.25,2.5,1.5,2.5,1.25,1.5,0.75,0.25,0.0,0.5,0.0,0.5,0.27,0.83,1.77,186.36,-11.7,38.1
0.84,5.5,1.75,6.25,9.0,9.75,7.25,4.5,5.75,4.5,2.75,2.5,0.75,1.25,-0.11,0.14,0.95,938.58,6.8,24.9,1.0,0.0,2.5,1.5,2.5,1.75,1.5,0.75,0.0,0.5,0.5,0.0,0.25,0.64,1.52,2.33,184.42,-9.3,35.5
0.86,6.25,1.75,7.25,11.0,10.5,7.5,4.75,5.75,4.0,2.75,2.5,0.75,1.25,-0.11,0.14,0.95,1001.31,7.7,28.2,0.0,0.0,2.0,0.0,0.0,0.25,1.0,0.0,0.0,0.0,0.0,0.0,0.0,0.52,2.77,2.14,136.75,-32.0,52.9
0.88,7.25,2.5,7.75,13.0,12.0,7.75,4.75,5.0,3.5,2.75,2.5,0.75,1.25,-0.11,0.14,0.95,1106.39,8.5,32.9,1.25,0.0,0.5,1.25,0.0,2.0,1.0,0.75,0.0,0.5,0.5,0.0,0.5,0.27,3.58,1.08,115.73,-4.3,18.2
0.9,8.0,2.75,8.75,14.5,13.0,8.0,4.75,4.75,3.0,2.75,1.75,0.75,1.25,-0.11,0.14,0.95,1231.33,9.1,36.8,1.25,0.0,2.0,1.25,1.5,2.25,1.25,0.75,0.25,0.5,0.5,0.0,0.5,-0.73,4.45,-0.05,115.99,-7.6,28.5
0.92,8.75,2.75,9.75,15.0,13.0,8.0,4.75,4.25,2.25,2.75,2.5,0.75,1.25,-0.11,0.14,1.02,1335.42,10.0,38.0,1.0,0.0,2.75,1.25,2.5,2.0,1.25,0.75,0.0,0.5,0.5,0.0,0.5,-1.23,4.77,-0.42,140.8,-8.4,32.7
0.94,9.75,2.75,10.5,16.5,14.5,7.75,4.25,3.25,2.0,2.75,2.0,0.75,1.25,-0.11,0.2,1.08,1413.35,10.8,41.6,1.0,0.0,2.25,1.25,1.5,2.5,1.25,0.75,0.5,1.0,0.75,0.0,0.5,-1.86,4.7,-0.55,163.14,-6.4,20.6
0.96,10.5,2.75,11.0,15.0,14.5,7.25,2.25,3.0,1.5,2.75,2.0,0.75,1.25,-0.11,0.2,1.14,1447.35,11.1,43.0,0.0,0.0,1.75,0.0,2.5,2.75,1.5,2.5,1.5,5.0,0.25,2.25,1.25,2.14,0.27,6.08,210.86,3.5,-27.1
0.98,11.5,2.75,11.5,15.5,14.5,7.0,1.75,3.0,1.25,2.25,2.25,0.5,1.25,-0.11,0.27,1.2,1466.59,11.8,45.1,1.0,0.0,1.5,0.0,0.0,2.0,1.25,3.75,3.0,5.5,3.75,3.25,3.5,-0.05,0.39,0.95,274.71,0.9,-51.8
1.0,12.5,3.0,12.0,15.0,14.0,6.25,0.75,3.0,1.25,2.0,1.5,0.75,1.0,-0.17,0.27,1.33,1460.6,12.7,47.7,2.25,0.75,2.75,2.5,2.75,4.25,2.75,5.0,4.5,5.25,5.0,2.75,4.25,0.08,0.08,0.89,393.78,-1.8,-22.0
1.02,13.0,3.0,12.5,13.5,13.0,5.75,0.75,1.0,0.5,2.0,1.75,0.75,0.75,-0.3,0.39,1.52,1422.18,14.4,51.5,3.75,1.25,3.75,2.75,4.25,5.0,3.0,5.75,5.5,5.25,5.0,2.25,3.25,0.08,0.27,0.95,566.6,-3.4,-9.5
1.04,12.5,2.75,12.5,11.5,10.5,4.0,1.75,1.75,0.5,1.75,2.0,0.75,0.75,-0.23,0.52,2.2,1338.79,15.8,49.9,6.25,1.75,5.0,5.0,5.75,5.75,4.25,6.0,6.25,4.0,4.75,2.0,3.0,0.08,0.2,0.95,781.16,-6.3,4.9
1.06,11.0,2.25,11.5,8.75,8.5,2.5,3.0,1.25,0.5,2.0,1.75,0.75,0.25,-0.86,0.83,2.52,1161.5,17.4,49.8,7.5,1.75,5.25,6.75,6.75,6.25,5.0,6.25,6.5,3.5,4.0,1.25,2.25,0.08,0.14,0.95,972.71,-7.4,13.9
1.08,9.25,1.25,9.75,7.0,7.0,2.5,2.25,0.5,0.5,0.5,0.75,0.0,0.5,-1.05,0.95,2.58,910.28,18.6,56.9,8.25,2.0,6.75,8.5,7.5,6.25,5.5,6.0,6.25,2.25,3.75,0.75,1.25,0.08,0.2,0.95,1134.31,-9.5,23.8
1.1,7.0,1.25,6.5,4.5,4.5,2.5,1.5,1.0,0.5,1.75,1.75,0.75,0.5,-0.8,0.83,2.7,659.03,15.2,40.6,8.75,2.5,7.5,9.25,8.0,6.25,5.75,5.25,5.5,2.0,2.75,0.5,1.0,0.08,0.14,0.95,1237.39,-10.6,30.6
1.12,4.0,0.0,3.75,0.25,4.25,0.0,1.0,0.5,0.0,0.5,0.5,0.25,0.0,-0.73,-0.48,3.14,382.36,18.2,51.4,9.25,2.5,8.0,10.5,8.75,6.25,5.75,5.0,4.75,2.0,2.75,0.5,1.25,0.08,0.14,0.95,1301.08,-10.9,32.6
1.14,1.75,0.25,4.75,1.75,4.25,2.25,1.75,1.0,0.5,1.5,1.25,0.75,0.75,-0.3,-0.86,1.02,261.68,9.7,23.3,9.75,2.5,8.5,11.5,8.75,6.25,5.5,3.75,3.25,1.0,2.0,0.5,0.75,0.08,0.2,0.95,1307.24,-12.6,41.1
1.16,1.75,1.25,3.25,1.0,3.75,0.5,0.75,1.25,0.5,1.25,1.75,0.75,0.5,-0.8,-1.55,2.02,170.0,10.2,20.7,9.75,2.5,8.5,12.0,8.75,5.75,5.0,2.25,2.0,0.75,2.0,0.25,0.25,0.08,0.2,0.95,1269.88,-13.9,47.6
1.18,2.5,1.25,2.25,1.5,4.75,1.5,1.75,1.0,0.5,1.25,1.5,0.75,0.5,-0.61,-1.23,0.77,143.16,8.4,26.7,9.75,2.25,8.75,11.5,8.75,4.5,4.5,2.25,1.25,0.5,1.0,0.5,0.25,0.02,0.2,1.02,1180.89,-14.9,50.9
1.2,2.25,1.25,2.0,1.0,4.25,1.0,1.75,1.0,0.5,0.75,1.25,0.75,0.5,-0.61,-0.92,0.27,123.75,9.2,27.5,9.75,0.75,8.75,11.0,8.75,0.0,3.25,1.75,1.0,1.0,0.75,0.5,0.0,0.02,0.2,0.95,1025.95,-18.4,52.6
1.22,1.75,1.25,2.5,1.25,4.25,0.5,1.75,1.0,0.5,0.5,1.75,0.75,0.75,-0.48,-0.8,0.45,129.87,10.4,23.7,9.75,0.0,8.75,0.0,8.75,0.0,3.5,1.25,0.75,0.5,0.5,0.5,0.0,0.02,0.2,0.95,791.44,-20.1,54.5
1.24,2.25,1.25,2.25,1.0,4.25,1.0,1.75,1.0,0.5,1.0,1.25,0.75,0.5,-0.3,-0.61,0.77,137.61,9.3,26.6,10.0,0.25,8.75,10.5,8.5,0.0,3.0,1.0,0.75,0.5,0.75,0.25,0.25,0.02,0.27,0.89,685.53,-19.5,55.8
1.26,2.25,1.25,2.5,0.5,4.25,1.0,1.75,1.0,0.5,1.25,1.25,0.75,0.5,-0.23,-0.48,1.02,158.25,9.1,24.8,9.75,1.0,8.5,0.25,8.25,0.0,2.0,0.75,0.75,0.5,0.5,0.0,0.5,0.02,0.27,0.89,549.52,-20.1,57.9
1.28,2.25,1.25,2.75,0.5,4.25,0.75,1.75,1.0,0.5,0.5,1.25,0.75,0.5,-0.11,-0.3,1.2,181.6,11.0,29.4,11.0,1.0,8.5,10.5,8.5,0.0,2.25,0.75,0.75,0.5,0.5,0.25,0.5,0.02,0.27,0.89,558.29,-19.6,57.9
1.3,1.0,0.0,3.0,0.0,4.5,0.0,1.25,0.75,0.25,0.5,0.0,0.25,0.0,-0.11,-0.11,1.33,178.84,11.9,40.7,11.0,1.0,8.75,11.5,8.5,2.75,2.0,0.75,0.25,0.5,0.75,0.0,0.5,0.02,0.33,0.83,596.46,-17.4,57.9
1.32,2.25,1.0,1.75,1.0,0.0,0.25,1.25,0.0,0.5,1.25,0.5,0.75,0.0,-0.11,0.08,1.52,165.44,18.9,27.6,12.0,2.5,9.25,12.0,8.75,2.0,2.5,0.75,0.25,0.5,0.5,0.0,0.5,0.02,0.33,0.83,694.24,-18.3,60.6
1.34,2.25,1.25,2.5,0.75,4.25,1.25,1.75,0.5,0.5,1.25,1.25,0.75,0.5,-0.11,0.27,1.7,189.37,9.5,27.1,12.0,2.5,9.75,12.5,8.75,2.75,2.75,0.75,0.25,0.75,0.5,0.0,0.75,0.02,0.33,0.83,776.22,-17.7,58.7
1.36,2.25,1.25,2.75,1.0,4.25,0.5,1.75,1.0,0.5,0.75,1.25,0.75,0.5,-0.11,0.39,2.02,216.97,11.3,28.8,13.0,2.5,10.5,14.0,9.5,2.5,2.75,0.75,0.25,0.5,0.5,0.0,0.5,0.02,0.33,0.89,879.05,-18.4,60.7
1.38,1.5,1.25,2.75,1.0,4.25,0.5,1.75,1.0,0.5,1.0,1.25,0.75,0.5,-0.23,0.58,2.2,233.83,10.0,24.6,13.0,3.25,11.5,15.5,10.0,2.5,2.75,0.75,0.0,0.75,0.5,0.0,0.5,0.02,0.33,0.89,989.97,-18.3,60.9
1.4,0.5,0.0,1.5,0.0,0.0,0.0,1.0,0.0,0.25,0.5,0.0,0.0,0.0,-0.36,1.08,2.64,183.91,26.6,32.6,14.0,3.5,11.5,15.5,11.0,2.75,3.25,0.75,0.0,0.5,0.5,0.0,0.5,0.02,0.39,1.02,1102.02,-18.1,61.8
1.42,0.5,0.0,1.5,0.0,0.0,0.0,1.0,0.0,0.25,0.5,0.0,0.0,0.0,-0.23,2.02,2.52,124.4,26.6,32.6,14.5,3.75,13.0,16.5,11.5,2.75,3.0,0.75,0.0,0.25,0.75,0.0,0.5,0.02,0.39,1.02,1228.4,-18.6,62.1
1.44,0.75,0.0,1.5,0.0,0.0,0.0,1.0,0.5,0.0,0.5,0.0,0.25,0.0,0.27,4.14,2.77,62.97,21.4,23.0,14.5,4.0,13.5,16.0,11.5,3.25,3.25,0.75,0.0,0.5,0.5,0.0,0.5,0.02,0.45,1.14,1321.87,-18.3,62.0
1.46,0.5,0.0,2.25,0.0,4.25,0.0,1.75,1.0,0.0,0.5,0.0,0.0,0.0,-0.48,4.83,0.64,68.19,9.0,39.5,14.5,4.25,14.0,15.5,10.5,0.5,3.5,0.0,0.0,0.5,0.25,0.0,0.5,0.14,0.52,1.2,1339.8,-21.0,65.1
1.48,0.5,0.0,1.25,0.25,0.0,1.5,1.25,0.0,0.5,0.5,0.0,0.75,0.0,1.52,5.52,-0.98,64.74,10.7,11.3,14.5,4.25,12.5,14.0,8.25,1.25,4.75,0.0,0.0,0.75,0.25,0.0,0.25,0.14,0.58,1.45,1287.74,-21.3,65.3
1.5,1.5,1.25,2.5,0.5,0.0,0.0,1.25,0.25,0.5,1.25,0.75,1.0,0.5,2.39,5.39,-0.67,100.46,17.3,11.7,13.0,3.5,14.0,12.0,7.5,2.75,6.5,0.5,0.0,0.5,0.5,0.0,0.25,0.27,0.83,1.77,1214.92,-21.0,62.3
1.52,2.0,1.25,2.25,0.5,0.75,0.25,1.25,1.0,0.75,2.75,2.5,3.0,1.5,0.02,0.39,2.45,156.68,8.9,-21.0,12.0,3.25,11.5,9.0,4.75,2.75,6.75,0.0,0.0,0.5,0.5,0.0,0.5,0.64,1.45,2.52,1043.35,-21.9,62.4
1.54,1.75,1.25,2.25,1.75,2.5,2.5,1.5,4.75,2.0,4.75,3.5,4.5,4.0,0.39,1.64,4.64,271.98,1.1,-28.1,9.75,2.25,9.25,7.0,2.5,2.75,5.75,0.0,0.0,0.5,0.5,0.0,0.25,0.64,1.52,2.95,835.83,-22.5,62.0
1.56,2.0,0.0,0.0,0.25,0.0,2.5,0.0,4.75,2.5,4.0,3.25,5.25,3.25,0.14,0.2,1.2,338.22,-2.2,-54.0,8.0,1.0,7.75,5.0,1.5,2.0,3.25,0.75,0.0,0.5,0.5,0.0,0.5,0.39,1.08,3.2,610.76,-22.2,57.0
1.58,2.25,1.25,3.5,3.0,4.25,3.75,0.5,6.75,3.75,6.25,4.5,5.75,4.75,-0.05,0.14,0.95,506.78,1.1,-24.6,5.0,0.0,5.25,1.5,1.75,2.0,1.5,0.75,0.0,0.25,0.5,0.0,0.25,0.7,-0.67,3.08,387.23,-19.7,53.1
1.6,2.25,1.25,3.25,3.0,4.5,4.0,3.0,7.25,5.0,7.5,6.25,6.25,5.25,-0.11,0.14,0.95,694.12,1.4,-27.8,3.75,0.0,2.5,1.25,2.25,1.75,1.0,0.5,0.0,0.5,0.25,0.0,0.25,0.7,-0.61,0.2,243.92,-14.3,49.9
1.62,1.75,1.25,4.75,3.0,4.75,4.5,3.75,7.5,5.5,7.75,7.5,6.5,5.5,-0.11,0.08,0.95,903.66,2.1,-27.3,2.5,0.25,2.75,1.25,2.5,1.25,1.5,0.75,0.0,0.5,0.5,0.0,0.25,1.08,-1.36,2.2,141.06,-13.6,43.3
1.64,2.25,1.25,4.75,3.0,5.25,5.25,4.25,7.75,6.0,7.5,7.5,6.0,5.25,-0.11,0.08,0.95,1062.27,2.2,-23.7,2.5,0.25,2.5,2.25,2.25,1.25,1.5,0.75,0.0,0.25,0.5,0.0,0.25,0.39,-1.05,1.2,81.33,-14.3,46.0
1.66,1.75,1.25,4.75,3.75,6.75,5.75,4.25,8.0,6.25,7.25,7.5,5.5,5.0,-0.11,0.08,0.95,1175.89,1.9,-20.1,2.25,0.0,2.5,2.75,2.5,1.5,1.5,0.75,0.0,0.25,0.5,0.0,0.25,0.27,-0.73,0.52,60.73,-13.1,44.6
1.68,2.25,1.25,4.75,4.5,6.75,6.25,4.75,8.0,6.25,6.5,6.5,4.75,4.25,-0.11,0.08,0.95,1218.41,2.4,-14.2,2.25,0.0,2.75,2.75,2.5,2.0,1.5,0.75,0.0,0.5,0.5,0.0,0.25,-0.11,-0.42,0.58,73.7,-11.9,42.6
1.7,2.5,1.25,5.0,5.25,6.75,6.5,4.75,7.75,6.0,5.25,5.5,4.0,3.25,-0.11,0.08,0.95,1206.36,3.2,-7.3,1.5,0.25,2.75,2.0,1.75,1.5,1.5,0.75,0.0,0.5,0.5,0.0,0.25,-0.23,-0.36,0.77,83.84,-12.7,39.3
1.72,2.5,1.25,4.75,5.25,7.0,7.0,4.5,7.5,5.75,5.0,5.25,3.25,2.0,-0.11,0.08,0.95,1166.21,3.2,-2.7,1.25,0.25,2.5,1.5,2.25,1.75,1.5,0.75,0.0,0.5,0.5,0.0,0.25,-0.05,-0.17,1.14,95.12,-10.1,37.6
1.74,3.0,1.25,5.25,5.25,7.5,7.0,4.75,7.5,5.5,4.25,4.5,2.5,1.5,-0.11,0.08,0.95,1098.11,3.9,3.6,1.25,0.25,2.75,1.75,2.25,1.5,1.5,0.75,0.0,0.5,0.5,0.0,0.25,-0.11,0.02,1.2,110.07,-11.5,38.5
1.76,3.25,1.25,5.5,6.0,8.25,7.0,4.5,6.75,5.25,3.0,3.5,2.5,1.25,-0.11,0.08,0.95,1026.4,4.9,10.0,1.25,0.25,3.5,1.25,1.75,2.0,1.5,0.75,0.0,0.5,0.5,0.0,0.25,-0.11,0.2,1.33,136.23,-12.2,38.2
1.78,4.0,1.25,5.75,7.0,8.5,7.0,4.25,6.75,5.0,2.75,3.25,1.5,1.25,-0.11,0.08,0.95,975.57,5.5,15.4,1.25,0.0,2.75,1.25,1.75,2.0,1.5,0.5,0.0,0.5,0.5,0.0,0.25,0.02,0.33,1.45,153.37,-11.1,37.0
1.8,4.0,1.25,5.75,7.0,8.5,7.0,4.25,6.0,4.5,2.75,3.0,1.0,1.25,-0.11,0.08,0.95,936.17,5.7,18.2,0.0,0.0,2.25,1.25,2.25,1.25,1.25,0.5,0.0,0.5,0.25,0.0,0.25,0.08,0.7,1.45,155.86,-8.1,32.5
1.82,5.25,1.25,6.25,7.5,8.5,7.0,4.25,6.0,4.5,2.75,2.5,1.0,1.25,-0.11,0.08,0.95,903.54,6.6,21.4,1.25,0.0,2.75,1.25,2.25,0.5,1.25,0.75,0.0,0.5,0.25,0.0,0.5,0.2,1.27,1.89,161.1,-13.3,35.7
1.84,6.0,1.5,6.25,8.75,8.75,7.0,4.25,5.5,3.75,2.75,2.5,0.75,1.25,-0.11,0.14,0.95,903.01,7.3,25.5,1.25,0.0,2.5,1.25,2.25,2.0,1.5,0.5,0.0,0.5,0.25,0.0,0.0,0.2,2.2,2.2,162.55,-10.4,43.0
1.86,6.5,1.25,7.25,9.75,9.5,7.0,4.5,4.75,3.75,2.75,2.25,0.75,1.25,-0.11,0.14,0.95,932.71,8.4,28.5,1.5,0.0,2.5,1.25,2.25,2.25,1.25,0.75,0.0,0.5,0.25,0.0,0.25,-0.05,3.14,1.95,169.69,-8.9,39.2
1.88,7.25,1.5,7.75,11.5,10.5,7.0,4.5,4.75,3.0,2.25,2.5,0.75,1.25,-0.11,0.14,0.95,991.4,9.1,32.3,2.0,0.0,2.5,1.0,2.25,2.5,1.0,0.75,0.0,0.5,0.5,0.0,0.5,0.14,3.7,0.7,180.35,-8.5,35.9
1.9,8.0,2.25,8.75,13.0,10.5,7.0,4.75,4.0,2.75,2.5,1.5,0.75,1.25,-0.11,0.14,0.95,1069.77,10.3,37.1,2.0,0.0,2.25,0.5,2.25,2.25,1.0,0.75,0.0,0.5,0.5,0.0,0.5,-0.05,3.7,-0.23,185.18,-8.1,34.4
1.92,9.5,2.25,9.75,14.5,12.5,7.0,4.75,3.0,2.0,2.75,2.25,0.75,1.25,-0.11,0.14,1.02,1185.23,11.1,39.9,2.0,0.0,2.5,0.5,1.75,2.0,1.0,0.75,0.25,0.75,0.5,0.0,0.25,-1.05,3.83,-1.73,185.32,-10.0,33.4
1.94,10.5,2.75,10.5,15.0,13.0,7.0,4.5,3.0,2.0,2.25,2.0,0.75,1.0,-0.11,0.14,1.02,1300.7,11.9,43.2,2.0,0.5,2.5,0.5,1.75,0.5,1.0,0.75,0.25,1.0,0.5,0.0,0.25,-0.98,4.52,-0.67,181.38,-13.7,33.9
1.96,11.0,2.75,11.5,15.0,14.0,6.5,3.0,3.0,1.25,2.0,2.5,0.75,1.0,-0.11,0.2,1.14,1371.4,12.3,44.6,0.5,0.0,0.0,0.5,1.75,1.25,1.0,1.25,0.75,3.75,2.0,2.25,2.25,-0.17,0.64,0.64,199.75,3.2,-45.4
1.98,12.0,1.5,12.5,16.5,14.0,6.25,1.75,3.0,1.25,2.0,1.5,0.75,1.0,-0.11,0.2,1.14,1417.15,13.0,46.5,2.5,0.25,2.5,0.0,0.0,0.5,1.5,5.0,3.0,6.0,5.0,4.75,5.0,-0.11,1.02,1.7,289.14,-2.2,-50.3
2.0,12.5,3.0,12.5,15.0,13.0,5.0,1.75,2.0,1.25,2.0,2.0,0.75,0.5,-0.11,0.27,1.27,1425.11,14.5,49.3,2.25,0.75,2.75,2.25,2.25,4.5,2.0,5.75,4.5,6.5,6.5,5.0,5.75,-0.05,0.14,1.02,452.33,-0.8,-33.2
2.02,14.0,3.0,13.0,14.0,12.0,5.0,1.25,1.0,1.0,2.0,2.0,0.75,0.5,-0.23,0.33,1.45,1407.51,15.7,51.8,2.0,1.0,3.0,2.75,4.25,5.0,2.75,6.0,5.25,6.5,6.5,4.5,5.5,0.08,0.14,0.95,653.9,-1.0,-26.1
2.04,14.5,3.0,13.0,11.5,10.5,3.75,1.0,1.5,0.5,2.0,2.0,0.75,0.5,-0.3,0.52,1.83,1350.59,16.7,52.2,2.25,1.25,4.25,2.75,5.5,5.75,3.0,6.75,5.75,6.5,6.5,4.25,5.0,0.08,0.2,0.95,840.6,-1.6,-19.5
2.06,12.5,2.75,12.0,7.25,8.5,2.25,1.75,1.0,0.5,0.5,1.25,0.75,0.5,-0.48,0.58,2.39,1178.28,19.1,56.3,2.5,1.5,5.0,4.0,5.5,6.25,3.5,7.25,6.0,6.0,6.5,3.25,4.75,0.08,0.14,0.95,978.42,-2.5,-13.2
2.08,10.5,1.5,9.75,7.0,7.0,2.5,2.5,1.0,0.5,1.5,1.25,0.75,0.75,-1.11,1.08,2.83,964.7,17.4,49.1,3.0,1.5,5.25,5.0,6.5,6.5,3.75,7.25,6.25,5.25,5.25,2.0,3.25,0.08,0.14,0.95,1058.1,-3.4,-2.7
2.1,6.25,0.25,5.0,1.75,4.25,1.75,0.75,0.5,0.25,1.25,0.5,0.5,0.0,-0.98,0.7,3.08,633.65,16.4,49.2,3.75,1.75,5.25,5.0,7.25,6.75,4.25,7.0,5.5,3.5,4.0,1.75,2.5,0.08,0.14,0.95,1082.96,-4.4,6.4
2.12,4.5,1.25,4.75,1.25,4.75,1.5,1.5,1.0,0.5,1.25,1.25,0.75,0.75,-0.67,-1.61,2.33,413.31,13.0,34.8,3.75,1.75,5.25,6.75,7.25,6.75,4.0,6.75,5.25,2.75,3.0,0.75,1.25,0.08,0.14,0.95,1070.32,-5.3,16.0
2.14,3.0,0.0,3.75,0.0,4.25,0.0,1.75,1.0,0.5,0.5,1.25,0.75,0.5,-1.23,-1.98,3.02,255.1,14.8,27.8,3.75,1.75,5.25,6.75,7.5,6.75,3.75,6.0,4.25,1.75,2.75,0.5,1.25,0.08,0.14,0.95,1019.41,-5.8,20.9
2.16,3.25,1.25,3.0,1.5,4.75,2.25,1.75,1.0,0.5,1.5,1.25,0.75,0.5,-0.98,-1.48,1.14,197.5,9.0,30.2,3.75,1.75,5.25,7.25,7.5,6.5,3.25,5.0,3.25,2.0,2.0,0.5,1.25,0.08,0.14,0.95,945.81,-6.0,24.6
2.18,3.5,1.25,2.25,2.5,4.25,2.5,1.5,1.0,0.5,1.25,1.25,0.75,0.5,-0.98,-1.3,0.58,167.48,8.7,31.7,3.75,1.75,5.5,8.5,8.0,6.25,3.0,4.0,2.75,1.0,2.0,0.5,1.25,0.08,0.14,0.95,874.52,-7.3,30.0
2.2,3.25,1.25,1.5,2.25,4.25,2.0,1.75,1.0,0.5,1.25,1.25,0.75,0.5,-0.73,-1.3,0.64,170.46,8.1,29.5,5.0,1.75,5.5,8.5,8.25,6.25,3.0,3.75,2.0,1.0,1.75,0.75,1.0,0.08,0.2,0.95,813.16,-8.1,33.8
2.22,2.75,1.25,1.5,2.75,4.5,2.25,1.75,1.0,0.5,1.25,1.25,0.75,0.5,-0.55,-1.05,0.58,177.21,7.3,29.1,5.75,1.75,5.75,8.5,8.5,6.25,2.75,2.75,2.0,1.0,1.75,0.5,0.5,0.02,0.2,0.89,761.82,-9.3,38.9
2.24,3.0,1.25,2.5,2.0,4.25,2.25,1.75,1.0,0.5,1.25,1.25,0.75,0.5,-0.42,-0.73,0.77,192.96,8.8,30.0,5.75,1.75,6.0,9.0,8.5,6.25,2.75,2.5,1.75,1.0,1.5,0.5,0.5,0.08,0.2,0.89,737.32,-9.6,40.6
2.26,1.75,0.0,1.5,0.25,4.25,1.75,1.5,0.75,0.5,1.25,0.5,0.75,0.0,-0.11,-0.42,1.02,178.54,5.2,24.0,7.0,1.75,6.25,10.5,8.5,6.25,3.0,2.5,1.5,0.75,1.75,0.5,0.5,0.08,0.2,0.89,749.74,-10.8,42.9
2.28,2.25,0.0,2.75,0.25,4.25,0.25,1.75,1.0,0.5,1.25,1.25,0.75,0.5,-0.05,-0.3,1.14,180.63,10.6,18.6,7.75,1.75,6.75,12.0,9.5,6.25,3.0,2.5,1.5,1.0,1.0,0.5,0.75,0.02,0.2,0.95,792.65,-11.0,44.8
2.3,2.25,1.25,3.0,1.5,4.25,1.0,1.75,1.0,0.5,0.75,1.25,0.75,0.5,-0.11,-0.11,1.27,204.31,11.0,30.1,8.25,2.25,7.75,12.0,9.75,6.25,3.75,2.25,1.5,1.0,1.0,0.5,0.75,0.02,0.2,0.95,858.14,-11.9,46.3
2.32,2.25,1.25,2.5,1.5,4.25,0.0,1.75,1.0,0.5,0.5,1.25,0.75,0.5,-0.11,0.02,1.33,224.09,12.4,30.5,8.75,2.5,8.75,13.5,10.5,6.25,4.0,2.25,1.5,0.75,1.25,0.5,0.75,0.02,0.2,0.95,952.39,-12.6,47.6
2.34,1.25,0.0,2.5,0.0,4.25,0.0,1.75,1.0,0.25,0.0,1.25,0.0,0.25,-0.17,0.14,1.58,220.81,11.9,31.8,9.75,2.75,9.25,15.5,11.5,6.25,4.5,2.25,1.25,0.75,0.75,0.0,0.5,0.02,0.2,0.95,1062.9,-13.2,52.0
2.36,1.25,0.0,1.0,0.25,0.0,0.0,1.0,0.75,0.25,0.5,0.0,0.75,0.0,-0.23,0.2,1.83,167.37,17.2,9.0,10.5,3.25,10.5,16.5,12.5,6.25,4.5,2.25,0.75,0.5,0.5,0.25,0.0,0.02,0.2,0.95,1182.65,-14.0,55.4
2.38,0.75,0.0,1.25,0.25,2.5,0.0,1.0,0.25,0.25,0.5,0.0,0.0,0.0,-0.36,0.39,2.02,122.09,11.3,41.2,11.0,2.5,11.5,17.0,13.0,7.0,4.5,2.0,0.75,0.5,0.75,0.25,0.25,0.02,0.2,1.02,1295.74,-14.0,54.3
2.4,0.5,0.0,1.75,0.25,0.5,0.0,1.0,0.5,0.0,0.5,0.0,0.0,0.0,-0.48,0.89,2.45,66.66,19.0,34.3,12.0,2.75,11.5,16.5,14.5,0.0,4.25,1.25,0.0,0.5,0.5,0.0,0.25,0.02,0.27,1.14,1316.87,-18.0,60.5
2.42,0.5,0.0,2.25,0.0,1.75,0.0,1.0,0.5,0.0,0.5,0.5,0.0,0.0,-0.86,2.45,2.77,55.55,15.1,31.7,12.0,3.5,12.5,17.5,14.5,6.25,3.5,1.0,0.0,0.5,0.5,0.0,0.5,0.02,0.27,1.14,1366.11,-14.8,58.6
2.44,0.5,0.0,2.25,0.0,1.75,0.0,1.0,0.25,0.25,0.25,0.0,0.25,0.0,-0.61,2.77,1.7,53.85,17.6,38.6,12.5,3.5,12.5,16.5,14.5,4.5,2.0,0.75,0.25,0.5,0.5,0.0,0.5,0.08,0.33,1.2,1374.97,-15.7,59.8
2.46,0.5,0.0,2.25,0.25,1.25,0.0,1.0,0.0,0.25,0.5,0.0,0.0,0.0,-0.23,4.39,0.14,58.27,20.1,42.9,11.0,2.5,11.5,13.5,11.0,2.75,3.0,0.75,0.0,0.0,0.5,0.0,0.5,0.14,0.39,1.27,1304.88,-17.7,60.8
2.48,0.5,0.0,2.25,0.25,0.5,0.0,1.0,0.75,0.25,0.25,0.0,0.5,0.0,2.02,5.95,-1.42,59.45,19.5,22.9,11.0,2.75,12.5,12.0,10.0,2.75,4.0,0.75,0.0,0.0,0.5,0.0,0.0,0.14,0.52,1.45,1178.83,-18.9,62.5
2.5,1.25,0.25,2.25,1.5,0.0,1.5,1.0,1.0,0.5,1.75,0.75,0.75,0.0,2.45,6.27,-2.3,95.82,9.9,8.9,10.5,0.0,10.5,10.5,7.25,2.75,5.0,0.0,0.0,0.0,0.0,0.0,0.25,0.27,0.7,1.7,977.21,-20.6,62.5
2.52,1.5,0.0,2.25,0.5,4.25,0.0,1.5,1.5,0.5,1.25,2.25,1.5,1.25,-0.73,0.27,2.33,151.82,7.4,-2.7,9.5,0.0,9.25,8.25,4.5,2.75,5.75,0.0,0.0,0.0,0.0,0.0,0.0,0.52,1.27,2.58,770.02,-22.2,63.6
2.54,2.0,1.25,2.5,0.5,4.25,1.0,1.25,3.0,0.75,3.75,2.25,3.5,1.5,0.77,0.95,1.39,239.79,3.7,-12.2,8.75,1.75,8.5,6.75,1.5,2.75,4.5,0.75,0.0,0.5,0.5,0.0,0.5,0.52,1.45,2.77,593.48,-21.6,57.9
2.56,0.75,0.0,0.0,0.25,0.0,1.75,1.0,4.75,1.5,5.25,2.5,4.25,1.75,0.7,1.02,3.58,295.44,-4.2,-57.7,7.0,1.0,6.75,5.0,2.5,2.75,3.0,0.75,0.0,0.5,0.5,0.0,0.25,0.52,1.08,3.27,449.51,-19.4,56.5
2.58,2.0,1.25,0.0,3.0,3.0,3.75,0.0,5.75,3.0,5.25,4.0,5.0,3.25,-0.17,0.02,1.02,407.68,-1.5,-28.9,3.0,0.0,4.75,1.25,2.5,0.75,1.75,0.75,0.0,0.0,0.5,0.0,0.5,0.52,-0.86,2.58,295.81,-19.4,47.9
2.6,2.0,1.25,4.25,3.0,4.5,4.5,3.25,6.75,4.25,6.5,5.75,5.75,4.0,-0.11,0.14,0.95,590.82,2.3,-21.8,3.0,0.75,3.25,2.75,2.25,2.0,1.75,0.75,0.0,0.5,0.5,0.0,0.25,-0.05,-0.23,0.02,211.92,-14.1,47.6
2.62,2.0,1.25,4.75,3.0,5.75,5.0,3.75,7.5,5.0,7.5,6.75,6.25,5.25,-0.11,0.14,0.95,809.69,1.9,-23.3,2.0,0.75,2.25,2.5,2.25,2.5,1.5,0.75,0.0,0.0,0.5,0.0,0.5,0.77,-1.23,2.27,137.73,-10.3,44.6
2.64,2.25,1.25,4.75,3.25,5.75,5.75,4.25,7.75,5.5,7.5,7.5,6.25,5.25,-0.11,0.08,0.95,1009.94,2.0,-22.5,2.0,0.5,3.25,1.5,2.25,1.75,1.5,0.75,0.0,0.5,0.75,0.0,0.25,0.45,-1.17,1.39,101.01,-12.9,40.9
2.66,0.75,1.25,4.75,3.25,6.75,5.75,4.25,8.0,5.75,7.75,7.75,6.0,5.25,-0.05,0.08,0.95,1148.42,1.1,-23.9,0.25,0.75,2.75,2.25,2.25,1.25,1.5,0.75,0.0,0.5,0.5,0.0,0.25,0.39,-0.8,0.64,71.76,-10.7,37.5
2.68,1.75,1.25,4.75,4.0,6.75,6.25,4.25,8.0,5.75,7.25,7.25,5.75,5.0,-0.11,0.08,0.95,1224.71,1.7,-19.4,0.5,0.75,3.0,2.5,2.25,1.5,1.5,0.75,0.0,0.75,0.5,0.0,0.25,0.27,-0.48,0.39,84.73,-10.6,37.2
2.7,2.25,1.25,4.75,4.5,6.75,7.0,4.5,8.0,5.75,6.5,6.5,5.25,4.5,-0.11,0.08,0.95,1244.64,2.0,-14.7,1.25,0.75,2.75,2.25,1.5,1.75,1.5,0.75,0.0,0.5,0.5,0.5,0.25,0.08,-0.3,0.64,101.54,-12.0,35.1
2.72,2.25,1.25,4.75,5.25,6.75,7.0,4.5,8.0,5.5,5.5,5.5,4.0,3.25,-0.11,0.08,0.95,1215.31,2.5,-7.8,1.25,0.25,2.75,1.5,2.25,0.25,1.5,0.75,0.0,0.5,0.5,0.0,0.25,-0.05,-0.23,0.83,106.75,-14.9,38.5
2.74,2.25,1.25,4.75,5.25,7.5,7.0,4.25,7.75,5.25,5.0,5.25,3.5,2.5,-0.11,0.08,0.95,1157.74,2.7,-3.8,1.25,0.75,2.75,1.75,2.25,1.5,1.5,0.75,0.0,0.5,0.5,0.25,0.5,-0.11,-0.11,0.95,132.63,-11.0,35.3
2.76,2.25,1.25,4.75,5.25,8.25,7.0,4.25,7.5,5.0,4.0,5.0,2.5,1.5,-0.11,0.08,0.95,1080.1,3.1,2.6,1.25,0.5,2.75,1.25,2.25,0.25,1.5,0.75,0.0,0.5,0.5,0.0,0.5,-0.11,0.02,1.02,142.28,-14.2,36.1
2.78,2.25,1.25,5.0,5.75,8.5,7.0,4.25,7.25,5.0,3.25,3.5,2.5,1.25,-0.11,0.08,0.95,1002.93,3.6,7.4,1.25,0.5,2.75,1.25,2.25,1.25,1.5,0.75,0.0,0.5,0.5,0.0,0.25,0.02,0.08,1.2,156.2,-11.9,39.0
2.8,2.75,1.25,5.25,6.5,8.5,7.0,4.25,6.75,4.5,3.0,3.5,1.75,1.5,-0.11,0.08,0.95,943.0,4.2,11.4,1.25,0.75,2.5,1.25,2.25,1.0,1.5,0.75,0.0,0.25,0.5,0.25,0.25,0.02,0.2,1.45,166.91,-12.5,39.3
2.82,3.25,1.25,5.25,7.0,8.5,7.0,4.25,6.75,4.25,2.75,3.0,1.0,1.25,-0.11,0.14,0.95,883.0,4.6,16.2,1.25,0.25,2.5,1.25,2.25,0.75,1.5,0.75,0.0,0.5,0.5,0.0,0.25,0.08,0.39,1.64,175.42,-12.7,37.4
2.84,4.0,1.25,5.5,7.25,8.75,7.0,3.75,6.5,3.75,2.75,2.5,1.0,1.25,-0.11,0.14,0.95,847.09,5.1,19.4,1.5,0.5,2.5,1.25,2.25,0.5,1.5,0.75,0.0,0.5,0.5,0.0,0.25,0.14,0.7,1.89,172.35,-13.9,40.0
2.86,4.25,1.25,5.75,8.75,9.5,7.25,3.75,6.0,3.5,2.75,2.5,0.75,1.25,-0.11,0.14,0.95,849.61,5.6,22.9,1.25,0.5,1.5,1.25,1.75,0.5,1.5,0.75,0.0,0.25,0.75,0.0,0.25,0.2,1.39,2.2,164.25,-12.5,35.7
2.88,5.75,1.5,6.25,11.0,10.5,8.0,3.75,5.75,3.0,2.75,2.5,0.75,1.25,-0.11,0.14,0.95,908.85,6.5,28.0,2.0,0.25,2.75,1.25,2.25,0.0,1.5,0.75,0.0,0.5,0.5,0.0,0.25,0.39,2.45,2.52,166.29,-16.8,41.8
2.9,6.25,2.0,6.25,12.5,12.0,8.0,3.75,5.25,2.5,2.75,1.25,0.75,1.25,-0.11,0.14,0.95,989.43,6.8,33.4,1.75,0.25,2.5,1.25,2.25,1.25,1.5,0.75,0.0,0.5,0.5,0.0,0.25,0.52,3.7,1.7,171.2,-12.2,39.6
2.92,7.25,1.5,7.0,13.5,13.0,8.25,3.75,4.75,2.0,2.75,1.75,0.75,1.25,-0.11,0.14,0.95,1088.4,7.6,35.1,1.75,0.25,2.5,1.25,2.25,1.75,1.5,0.75,0.0,0.5,0.5,0.0,0.25,-0.11,3.83,0.02,180.74,-10.9,39.3
2.94,8.0,2.75,8.0,15.0,14.0,8.5,3.75,4.75,1.5,2.75,2.0,0.75,1.25,-0.11,0.14,1.02,1215.65,8.3,38.1,1.5,0.25,2.5,1.25,1.75,1.5,1.5,0.75,0.0,0.5,0.5,0.0,0.25,-1.8,4.7,-0.61,183.46,-11.8,37.6
2.96,9.0,2.75,8.75,16.5,15.0,8.5,3.75,3.5,1.25,2.75,2.0,0.75,1.0,-0.11,0.2,1.02,1332.91,9.4,41.8,1.0,0.25,2.5,1.0,2.25,1.25,1.25,0.75,0.0,0.75,0.5,0.0,0.5,-3.8,5.89,0.64,184.43,-9.4,30.0
2.98,9.75,2.75,9.75,17.5,15.0,8.25,3.0,3.0,1.25,2.75,2.0,0.75,1.25,-0.11,0.2,1.08,1413.74,10.2,42.8,1.0,0.5,1.0,1.25,1.75,2.0,1.5,1.0,0.25,1.5,0.5,0.75,1.25,-0.23,-0.8,0.14,187.14,-2.2,3.8
3.0,10.5,2.75,10.0,17.5,15.0,8.0,2.5,3.0,1.0,2.75,1.25,0.75,1.0,-0.11,0.2,1.14,1464.27,10.6,45.4,1.25,0.25,2.0,1.0,1.5,0.25,0.75,2.0,1.25,4.25,0.5,2.75,3.0,-0.11,0.52,1.52,219.56,-2.1,-33.1
3.02,11.5,3.0,11.5,16.5,16.0,7.25,1.75,3.0,0.75,2.0,2.0,0.75,0.5,-0.11,0.27,1.14,1498.28,11.8,47.9,1.25,1.0,2.75,1.5,0.0,2.25,1.5,4.0,2.75,6.0,3.0,4.75,4.75,-0.61,1.08,1.64,300.4,-1.2,-40.8
3.04,12.5,3.0,11.5,16.5,15.0,6.75,1.0,1.5,0.75,1.25,2.0,0.75,0.75,-0.17,0.33,1.33,1492.84,13.2,51.1,0.75,1.0,2.75,1.25,0.0,2.75,1.75,3.75,3.75,6.5,4.0,5.25,4.75,0.2,0.08,0.95,403.55,-1.0,-44.3
3.06,13.0,3.0,12.0,13.5,13.0,5.75,0.5,1.0,0.5,0.5,1.25,0.75,0.5,-0.3,0.39,1.52,1430.51,15.0,55.8,1.25,0.75,2.75,2.25,2.25,4.25,2.5,5.25,4.75,6.75,6.5,5.5,6.25,0.14,0.14,0.95,576.81,-0.5,-37.4
3.08,13.0,3.0,10.5,11.5,9.25,3.75,0.5,1.25,0.5,1.25,1.25,0.75,0.0,-0.3,0.52,2.08,1302.45,16.7,55.9,1.5,1.0,3.25,2.5,2.5,5.0,3.0,6.0,5.5,7.0,6.75,5.5,6.75,0.08,0.14,0.95,737.65,-0.7,-34.2
3.1,12.0,2.75,11.5,8.75,8.5,3.5,2.0,1.0,0.5,2.0,0.5,0.75,0.5,-0.61,0.77,2.33,1115.02,16.9,53.5,2.0,1.0,3.75,2.75,3.5,5.0,3.25,6.75,6.0,7.0,7.25,5.5,6.5,0.08,0.14,0.95,886.8,-1.4,-30.2
3.12,9.75,1.5,8.75,7.0,6.75,1.5,2.0,0.5,0.25,1.75,1.25,0.75,0.0,-1.05,1.08,2.89,871.02,18.4,52.2,2.25,1.25,5.0,2.75,5.25,5.75,3.75,6.75,6.0,6.5,6.75,4.5,6.0,0.08,0.14,0.95,990.92,-2.1,-20.8
3.14,7.25,0.75,7.75,4.0,5.0,0.25,0.5,0.0,0.25,0.5,0.5,0.0,0.0,-0.92,0.83,3.02,607.93,22.3,62.8,2.25,1.5,5.0,2.75,5.5,5.75,4.0,6.75,6.0,5.25,6.5,3.25,4.75,0.08,0.14,0.95,1040.04,-2.8,-14.4
3.16,5.25,0.0,5.0,0.0,4.25,0.0,0.5,0.0,0.25,1.25,0.5,0.5,0.5,-0.8,0.02,3.45,368.37,19.0,44.6,2.75,1.5,5.25,3.25,5.5,5.75,4.0,6.25,5.75,3.75,5.0,2.25,3.0,0.08,0.14,0.95,1019.85,-4.3,-3.5
3.18,2.5,0.5,2.25,1.5,4.25,1.75,1.25,0.0,0.5,1.25,1.25,0.75,0.5,-0.17,-1.23,1.77,236.44,9.2,27.8,3.0,1.75,5.25,4.5,5.5,5.75,4.0,6.0,5.5,3.0,4.0,1.5,1.75,0.08,0.14,0.95,965.1,-5.4,6.2
3.2,1.75,0.0,4.0,1.75,4.25,1.5,1.5,0.0,0.5,1.25,1.25,0.75,0.5,-0.55,-1.86,2.33,153.2,11.6,26.7,3.75,1.75,5.25,5.0,5.75,5.75,4.0,5.25,5.25,2.0,3.0,0.75,1.25,0.08,0.14,0.95,892.68,-6.8,15.8
3.22,1.5,0.5,3.75,1.75,4.5,2.0,1.5,1.0,0.5,1.25,1.25,0.75,0.5,-0.42,-1.23,1.33,126.73,8.7,24.7,3.75,1.5,5.25,5.0,6.25,5.75,4.0,5.0,4.75,2.0,2.75,0.75,1.25,0.08,0.14,0.95,823.3,-6.7,17.2
3.24,2.0,1.0,2.5,2.0,4.25,2.25,1.75,1.0,0.5,2.0,1.25,1.0,0.5,-0.55,-0.92,0.45,137.58,6.8,21.0,4.5,1.75,5.25,5.0,6.25,5.5,3.75,4.0,4.0,1.75,2.75,0.5,1.25,0.08,0.14,0.95,756.14,-7.8,22.2
3.26,1.5,1.25,3.0,1.75,4.25,2.0,1.75,0.0,0.5,1.5,1.0,0.75,0.25,-0.55,-0.73,0.33,149.93,9.3,30.9,5.25,1.75,5.0,6.75,6.75,5.5,3.75,3.75,4.0,1.5,2.0,0.75,0.25,0.08,0.14,0.95,714.65,-8.9,29.6
3.28,1.75,1.25,3.0,1.0,4.25,1.5,1.25,0.5,0.5,1.25,1.25,0.75,0.5,-0.42,-0.55,0.7,163.78,9.1,26.8,5.75,1.75,5.5,6.75,7.25,5.25,3.75,3.75,3.25,1.5,2.0,0.5,0.75,0.08,0.14,0.95,698.12,-9.2,31.2
3.3,1.75,1.25,2.75,1.0,4.25,2.0,1.75,0.5,0.5,1.25,0.5,0.75,0.0,-0.3,-0.42,0.83,177.69,8.7,34.6,6.25,1.75,6.25,7.25,7.5,5.75,3.5,3.25,3.25,1.5,2.0,0.5,1.0,0.08,0.14,0.95,703.59,-9.7,32.7
3.32,1.75,1.25,3.0,0.0,4.25,0.25,1.75,1.0,0.5,1.25,1.25,0.0,0.75,-0.23,-0.3,1.08,188.5,10.1,26.4,7.0,1.75,7.0,8.5,7.75,5.75,3.75,2.5,3.0,1.25,1.75,0.5,1.0,0.08,0.14,0.95,733.84,-11.2,37.3
3.34,1.75,1.25,2.0,1.0,3.75,1.75,1.25,0.0,0.5,0.5,0.0,0.0,0.0,-0.17,-0.05,1.2,188.47,9.9,53.0,8.0,2.0,7.5,10.5,8.5,5.75,4.25,2.5,2.75,1.25,1.75,0.5,0.5,0.08,0.14,0.95,797.68,-12.2,41.5
3.36,2.25,1.25,2.25,0.75,4.25,1.25,1.75,0.5,0.5,1.25,0.0,0.75,0.0,-0.17,0.14,1.33,207.14,9.7,38.4,8.25,2.5,8.25,12.0,8.75,6.0,4.5,2.25,2.75,1.25,2.0,0.5,0.5,0.08,0.2,0.95,883.94,-12.7,42.8
3.38,2.25,1.25,3.0,1.0,4.25,1.25,1.75,1.0,0.5,1.25,1.0,0.75,0.5,-0.23,0.27,1.52,233.39,9.7,28.0,9.0,2.75,8.75,13.5,10.0,6.25,5.0,2.25,2.0,0.75,1.5,0.5,0.5,0.02,0.2,0.95,990.75,-13.1,47.2
3.4,2.5,1.0,3.0,0.75,4.25,1.5,1.75,1.0,0.5,1.25,1.0,0.75,0.5,-0.3,0.33,1.77,253.26,9.5,27.6,9.75,3.25,9.25,15.5,11.0,6.25,5.0,2.25,1.5,1.0,1.0,0.5,0.5,0.02,0.2,0.95,1110.85,-13.3,49.8
3.42,0.5,0.0,1.5,0.0,3.0,0.0,1.0,0.25,0.25,0.5,0.0,0.0,0.0,-0.36,0.52,2.14,212.58,10.1,40.4,11.0,2.5,10.5,16.5,12.5,6.5,5.0,2.25,1.0,0.75,0.75,0.5,0.75,0.02,0.2,1.08,1235.8,-13.6,51.3
3.44,0.5,0.0,2.0,0.0,3.0,0.0,1.0,0.0,0.25,0.5,0.0,0.0,0.0,-0.61,0.83,2.89,168.04,13.0,44.6,11.5,2.75,12.0,16.5,13.0,5.75,4.75,1.25,0.75,0.0,0.75,0.0,0.5,0.02,0.2,1.14,1319.44,-15.4,57.0
3.46,0.5,0.0,2.0,0.0,3.5,0.0,1.0,0.25,0.25,0.5,0.0,0.0,0.0,-0.8,1.58,3.14,123.7,10.9,42.7,11.5,4.0,12.5,16.5,13.5,0.0,4.25,1.0,0.75,0.25,0.5,0.5,0.25,0.02,0.27,1.14,1338.59,-18.6,59.6
3.48,0.5,0.0,1.75,0.0,3.0,0.0,1.0,0.0,0.25,0.5,0.0,0.0,0.0,-0.92,2.77,3.02,97.66,12.1,44.0,13.0,4.5,13.0,16.5,13.0,5.75,4.0,0.75,0.5,0.25,0.75,0.25,0.75,0.02,0.33,1.2,1380.65,-16.0,58.4
3.5,0.5,0.0,2.25,0.0,0.75,0.0,1.0,0.0,0.0,0.5,0.0,0.0,0.0,-0.98,4.45,1.77,73.81,23.7,45.0,11.5,3.75,13.0,15.5,10.0,3.75,3.25,0.25,0.0,0.0,0.25,0.0,0.0,0.14,0.39,1.27,1332.38,-18.6,64.2
3.52,1.25,0.0,2.25,0.25,1.75,0.0,1.0,0.0,0.25,0.5,0.0,0.25,0.0,0.77,6.02,-1.61,75.78,19.3,43.8,13.0,4.25,13.5,13.5,9.75,2.75,4.5,0.75,0.0,0.5,0.5,0.0,0.5,0.14,0.45,1.39,1293.48,-19.1,61.7
3.54,0.5,0.0,2.75,0.0,1.75,0.0,0.5,0.0,0.25,0.25,0.0,0.0,0.0,1.7,6.02,-0.86,71.4,20.6,50.3,11.0,3.25,11.5,12.0,6.5,3.25,5.5,0.0,0.0,0.0,0.0,0.0,0.0,0.33,0.64,1.45,1126.19,-20.7,65.6
3.56,1.25,0.25,2.25,0.25,2.5,1.25,1.5,1.0,0.5,0.75,1.5,1.0,0.5,-1.23,-1.3,1.58,110.81,8.4,8.6,10.0,3.0,11.0,8.5,3.0,2.75,6.75,0.75,0.0,0.75,0.0,0.0,0.5,0.39,1.02,2.45,941.13,-21.7,60.1
3.58,1.75,0.75,2.75,1.0,3.5,0.25,1.25,1.0,0.5,0.5,1.25,1.0,0.0,-0.42,-0.05,0.64,154.67,12.8,27.0,8.75,1.75,8.75,6.5,2.25,1.5,6.25,0.0,0.0,0.0,0.0,0.0,0.0,0.52,1.52,2.7,699.48,-25.2,66.8
3.6,1.75,1.0,2.25,0.5,4.25,2.25,1.0,1.0,0.5,0.5,2.0,2.5,1.25,0.08,0.27,1.2,214.49,6.0,6.0,7.0,1.0,7.75,5.0,0.0,2.75,4.5,0.0,0.0,0.0,0.0,0.0,0.0,0.52,1.33,3.2,491.24,-25.3,65.7
3.62,2.0,1.25,2.5,1.0,3.0,2.5,1.0,2.0,0.5,0.25,1.0,2.5,2.0,0.95,0.33,1.7,257.37,5.6,5.6,5.0,0.0,5.25,0.0,0.0,2.5,2.0,0.0,0.0,0.5,0.0,0.0,0.0,0.7,-0.3,3.33,297.38,-24.4,61.5
3.64,0.25,0.0,2.25,0.25,0.0,1.75,0.5,3.25,0.75,5.25,2.0,5.5,3.75,-0.11,0.52,2.2,309.02,-1.5,-58.7,3.5,0.75,4.25,1.0,0.0,0.0,2.0,0.75,0.0,0.0,0.5,0.0,0.25,0.45,-0.92,2.14,178.45,-27.6,55.0
3.66,0.0,1.0,1.5,0.75,2.25,4.0,1.25,6.5,3.0,7.75,4.5,7.25,5.25,-0.17,0.89,1.95,448.04,-3.3,-48.0,1.0,0.0,2.75,1.25,0.0,0.0,1.0,0.0,0.0,0.0,0.0,0.0,0.0,1.27,-1.67,2.33,46.85,-32.2,63.5
3.68,1.75,1.25,1.5,0.5,4.25,3.75,1.75,7.5,5.0,8.5,7.25,7.75,6.5,0.02,0.33,1.08,654.49,-1.3,-42.6,2.0,0.5,2.0,2.25,0.0,1.75,1.5,0.75,0.0,0.5,0.75,0.0,0.5,0.45,-1.05,2.02,0.0,-13.4,33.7
3.7,1.5,1.25,4.0,1.5,4.5,4.75,2.75,8.0,6.25,9.0,8.75,8.5,7.0,-0.05,0.14,1.02,913.14,0.6,-37.6,1.25,0.0,2.75,2.25,1.0,1.25,1.5,0.75,0.0,0.5,0.5,0.25,0.25,0.33,-0.61,0.89,0.0,-14.2,33.1
3.72,1.25,0.5,4.0,2.75,3.5,4.75,3.0,8.0,6.25,9.0,9.5,8.5,7.0,-0.05,0.08,0.95,1119.37,0.9,-39.7,1.25,0.5,3.0,2.0,1.25,0.5,1.5,0.75,0.25,0.0,0.5,0.0,0.5,0.39,-0.42,0.27,3.64,-17.2,39.6
3.74,1.0,0.75,4.25,2.75,4.25,4.5,3.5,8.0,6.25,8.5,9.25,8.25,7.25,-0.05,0.08,0.95,1250.55,1.1,-37.7,0.0,0.0,1.25,0.0,0.0,0.0,1.0,0.0,0.0,0.0,0.0,0.25,0.0,0.08,-0.23,0.27,0.0,-33.2,31.9
3.76,1.25,1.25,4.75,1.75,4.5,4.5,3.0,8.0,6.0,7.75,8.75,7.75,6.75,-0.05,0.08,0.95,1270.13,1.3,-34.9,1.25,0.75,3.0,2.0,1.5,0.0,1.5,0.75,0.0,0.5,0.5,0.25,0.25,-0.05,-0.11,0.52,15.25,-17.4,38.4
3.78,1.25,1.25,4.25,2.0,4.5,4.25,3.0,7.5,5.5,7.75,8.5,7.5,6.0,-0.11,0.08,0.95,1231.92,1.4,-34.1,1.0,0.75,3.75,1.25,1.25,0.0,1.5,0.75,0.0,0.0,0.5,0.0,0.25,0.08,-0.23,0.89,47.86,-20.9,45.8
3.8,1.5,1.25,4.25,1.5,3.75,3.75,3.0,7.5,5.0,6.5,7.75,6.75,5.75,-0.11,0.08,0.95,1134.05,1.8,-33.5,1.25,0.5,2.75,1.5,2.25,0.0,1.5,0.5,0.0,0.5,0.5,0.0,0.25,0.14,-0.05,1.02,97.13,-16.4,41.7
3.82,1.5,1.25,4.25,1.75,4.25,3.75,2.5,6.75,5.0,6.25,6.75,6.0,5.0,-0.11,0.08,0.95,1024.85,1.9,-29.2,1.25,0.25,2.5,1.5,2.25,0.0,1.5,0.75,0.0,0.5,0.5,0.0,0.25,0.02,0.08,1.08,130.57,-15.2,38.1
3.84,2.25,1.25,4.5,2.0,4.5,3.75,3.0,6.25,4.75,5.0,6.0,5.25,3.25,-0.11,0.08,0.95,906.8,3.7,-19.8,1.25,0.25,2.25,1.25,1.75,0.0,1.5,0.75,0.0,0.5,0.5,0.25,0.25,0.08,0.27,1.39,152.73,-15.4,32.4
3.86,2.25,1.25,4.75,3.0,4.25,3.75,3.0,6.0,5.0,5.0,5.5,4.75,2.75,-0.11,0.08,0.95,814.6,4.4,-15.8,1.0,0.25,2.75,1.25,2.25,0.0,1.5,0.75,0.0,0.0,0.5,0.0,0.25,0.27,0.52,1.45,161.41,-16.8,42.4
3.88,2.25,1.25,4.75,3.0,5.5,4.75,3.25,5.75,5.0,4.25,5.0,4.0,2.0,-0.05,0.08,0.95,741.64,4.3,-8.3,1.0,0.0,2.25,1.25,2.25,0.25,1.5,0.75,0.0,0.5,0.5,0.0,0.25,0.33,0.77,1.64,160.86,-13.2,34.0
3.9,2.25,1.25,4.5,3.25,5.75,4.5,3.5,5.75,5.25,4.0,5.0,3.75,1.5,-0.11,0.08,0.95,686.5,4.6,-6.3,1.25,0.25,3.0,1.25,1.0,0.5,1.5,0.75,0.0,0.5,0.5,0.0,0.5,0.33,1.08,1.83,164.36,-16.4,32.7
3.92,2.5,1.25,4.75,3.25,6.75,5.5,4.25,6.0,5.5,3.25,4.5,2.75,1.25,-0.05,0.08,0.95,669.73,4.6,0.8,1.0,0.0,2.25,1.25,1.5,0.5,1.5,0.5,0.0,0.25,0.5,0.0,0.5,0.58,1.89,2.39,155.14,-14.7,33.1
3.94,3.5,1.25,4.75,4.75,6.75,5.75,4.25,6.0,5.5,3.0,4.5,2.5,1.25,-0.11,0.08,0.95,685.93,5.5,5.3,1.25,0.0,2.5,0.5,1.5,0.5,1.5,0.75,0.0,0.5,0.5,0.0,0.25,1.14,3.39,2.02,152.18,-14.8,32.5
3.96,4.25,1.25,4.75,5.25,6.75,5.75,4.25,6.0,5.5,3.0,4.0,2.5,1.25,-0.05,0.08,0.95,720.93,5.9,7.8,1.25,0.0,2.75,1.25,1.75,0.25,1.25,0.5,0.0,0.5,0.5,0.0,0.25,1.2,4.7,-0.11,152.89,-16.6,37.7
3.98,5.75,1.25,5.75,7.0,8.5,6.25,4.5,6.0,5.5,2.75,3.5,2.25,1.25,-0.11,0.08,0.95,800.34,7.1,15.8,1.25,0.25,3.0,1.25,1.25,0.25,1.5,0.75,0.0,0.25,0.25,0.25,0.25,0.33,4.89,-1.48,156.2,-18.3,38.8
4.0,6.75,1.25,6.25,8.75,8.75,7.0,4.75,5.75,5.0,2.75,3.0,1.5,1.25,-0.11,0.08,0.95,895.33,7.7,22.0,1.25,0.0,2.5,1.25,1.5,0.0,1.75,0.75,0.0,0.25,0.5,0.25,0.5,-0.98,4.39,-0.17,149.94,-16.9,29.8
4.02,8.0,1.75,7.5,11.5,10.5,7.5,4.75,5.75,4.25,2.75,2.5,1.0,1.25,-0.05,0.08,0.95,1036.47,8.6,29.5,1.0,0.0,2.75,1.25,1.25,0.25,1.5,0.75,0.0,0.5,0.5,0.0,0.5,-0.98,3.33,0.33,151.18,-15.8,29.3
4.04,9.25,2.25,8.5,14.5,13.0,8.0,4.5,4.75,3.0,2.75,2.5,1.0,1.25,-0.05,0.14,1.2,1212.2,9.4,35.6,0.0,0.0,2.75,0.5,0.0,0.0,1.0,0.75,0.0,0.5,0.0,0.0,0.0,-2.8,-1.86,1.08,127.37,-22.1,29.3
4.06,10.5,1.5,9.75,15.0,13.5,8.0,1.75,3.5,2.0,2.75,2.5,0.75,1.25,-0.11,0.14,1.27,1338.29,10.2,39.6,1.0,0.0,0.75,1.5,0.0,4.5,0.75,3.75,1.0,2.0,0.0,0.75,0.75,-1.05,0.2,6.58,156.18,5.1,-7.2
4.08,11.5,2.75,9.75,14.5,14.5,7.5,1.25,3.0,1.25,2.75,2.25,0.75,1.25,-0.11,0.2,1.45,1408.91,10.6,43.2,1.0,0.0,1.75,2.5,1.0,3.0,2.0,5.0,2.0,3.5,4.0,4.5,2.25,-3.11,1.02,1.14,243.91,-1.4,-32.9
4.1,13.0,3.0,9.75,13.0,14.5,7.25,0.0,3.0,1.0,2.75,2.5,0.75,1.25,-0.3,0.27,1.83,1436.93,10.9,44.2,2.25,1.0,5.25,5.0,2.5,4.5,3.0,5.25,3.5,5.75,6.5,4.75,4.0,0.2,-0.05,1.02,418.83,-4.6,-18.0
4.12,13.0,3.0,9.75,11.0,13.0,6.75,0.0,2.5,0.75,2.75,2.0,0.75,1.0,-0.67,0.58,1.95,1409.32,11.6,45.9,2.5,1.0,5.25,5.0,1.5,5.0,3.5,6.5,4.0,6.75,6.5,5.5,2.5,-0.05,0.27,0.89,633.56,-4.5,-18.8
4.14,11.5,2.75,8.75,7.25,9.25,5.75,0.0,2.0,0.5,2.0,1.75,0.75,1.0,-1.3,0.95,2.39,1275.37,12.5,46.2,3.0,1.25,5.25,5.0,4.25,5.0,3.75,7.0,4.75,7.5,7.25,5.5,0.0,0.08,0.2,0.95,845.73,-5.0,-11.0
4.16,9.0,1.25,7.75,5.25,7.0,3.75,0.5,1.0,0.5,1.25,1.25,0.75,0.5,-1.67,0.95,3.14,1000.05,14.7,48.0,3.75,1.5,5.5,5.25,5.5,5.75,4.0,7.5,5.25,7.25,7.5,5.5,5.5,0.02,0.14,0.89,1044.08,-3.5,-15.7
4.18,6.25,1.25,4.75,2.0,6.5,2.5,0.5,1.0,0.25,0.25,1.25,0.25,0.0,-1.11,0.83,4.27,685.61,13.6,52.3,3.75,1.75,5.75,6.5,5.5,6.25,4.25,7.75,5.25,7.0,7.25,5.25,4.75,0.08,0.14,0.95,1195.98,-3.9,-11.4
4.2,3.75,0.0,4.0,0.25,4.25,0.0,1.25,0.5,0.25,0.5,0.75,0.75,0.0,-0.73,-0.05,3.08,397.59,17.9,42.5,3.75,1.5,5.5,6.75,5.5,6.25,4.0,8.25,5.0,6.5,6.5,4.25,4.0,0.02,0.14,0.95,1273.88,-3.8,-8.2
4.22,0.25,0.0,1.5,0.0,1.75,0.0,0.5,0.0,0.0,1.75,1.25,0.25,0.5,-0.8,0.7,0.83,206.28,6.3,-9.7,3.5,1.5,5.5,5.75,5.5,7.0,3.25,8.25,4.5,6.25,6.0,3.25,3.25,0.08,0.14,0.95,1276.38,-3.1,-5.5
4.24,0.75,0.0,1.0,0.5,1.25,0.0,0.25,1.0,0.25,0.5,0.5,0.25,0.0,-1.36,1.02,-0.05,49.42,9.1,14.6,2.5,1.75,5.25,5.0,5.75,7.5,3.0,8.5,3.5,6.0,4.75,2.25,3.5,0.08,0.14,0.95,1213.04,-1.5,-3.9
4.26,1.25,0.25,1.0,0.25,0.0,0.0,0.0,1.0,0.25,0.5,0.25,0.5,0.0,-0.36,0.08,-0.61,0.0,14.1,11.3,2.25,1.25,3.75,5.0,5.5,7.75,2.5,8.75,2.75,5.75,4.0,2.0,2.25,0.08,0.14,0.95,1089.29,0.0,-2.8
4.28,1.25,1.25,1.25,0.25,3.75,0.0,0.5,0.5,0.25,0.0,0.25,0.5,0.0,-0.11,0.52,-0.98,0.0,10.5,46.9,2.0,1.0,2.75,3.25,5.5,8.0,2.0,8.75,2.0,5.25,2.75,1.0,2.25,0.08,0.14,0.89,930.28,2.5,-2.1
4.3,1.25,1.25,1.25,0.25,4.25,0.0,0.5,0.75,0.25,0.0,0.75,0.5,0.0,0.02,0.27,-1.48,0.0,9.2,40.1,2.0,1.25,1.75,2.75,5.5,8.25,2.0,8.75,1.25,4.5,2.25,1.0,1.25,0.08,0.14,0.95,764.79,3.7,1.8
4.32,1.5,1.25,1.75,0.25,4.25,0.25,1.0,0.0,0.25,0.0,0.5,0.5,0.0,0.2,-0.11,-1.3,0.0,12.5,49.3,2.0,1.75,1.25,2.75,5.75,8.75,1.5,8.5,0.75,3.75,2.0,0.5,0.5,0.08,0.2,0.95,628.41,4.4,9.2
4.34,2.25,1.5,1.75,1.5,4.25,1.75,1.0,0.0,0.5,1.25,0.5,0.75,0.0,0.77,-0.23,-1.05,54.95,8.7,38.7,2.0,1.75,1.75,2.75,6.0,9.25,1.0,8.25,0.25,3.5,1.5,0.5,0.25,0.02,0.2,0.95,538.21,4.5,13.8
4.36,1.25,1.0,2.25,0.0,4.75,0.0,1.5,1.0,0.0,0.5,1.25,0.25,0.25,1.08,-0.3,-1.11,109.77,9.6,32.1,1.5,1.75,1.0,2.75,6.0,9.75,1.0,8.0,0.0,3.5,1.5,0.5,1.25,0.02,0.2,0.95,492.48,6.3,9.4
4.38,1.0,0.5,1.25,0.0,4.75,0.0,1.0,0.0,0.25,0.5,0.25,0.0,0.0,1.02,-0.17,-1.3,137.5,8.6,47.6,1.75,1.75,1.25,2.75,5.5,10.5,1.0,7.75,0.0,3.0,0.75,0.5,1.25,-0.05,0.2,0.95,463.05,6.2,13.2
4.4,1.75,1.25,1.75,0.25,4.25,0.0,1.0,0.0,0.25,0.25,0.75,0.75,0.0,0.83,-0.3,-1.11,162.06,12.9,42.4,1.5,2.0,1.25,2.5,5.5,11.0,0.25,7.5,0.0,2.0,0.5,0.25,1.25,-0.05,0.2,0.95,438.32,7.0,17.4
4.42,1.5,1.25,1.75,0.25,4.25,0.0,1.25,0.0,0.5,0.0,0.5,0.0,0.0,0.58,-0.36,-0.86,176.27,13.6,54.5,1.75,2.5,1.25,2.25,5.5,11.5,0.0,7.25,0.0,3.5,0.75,0.25,1.25,-0.05,0.27,0.95,444.04,7.2,15.0
4.44,1.75,1.25,1.5,0.25,4.25,0.0,1.0,0.0,0.5,0.5,0.25,0.75,0.0,0.27,-0.3,-0.55,189.75,11.8,42.6,1.25,2.5,1.25,2.25,5.5,11.5,0.0,7.0,0.0,2.0,0.5,0.0,1.25,-0.05,0.33,0.95,444.28,7.5,19.6
4.46,1.5,1.25,2.5,0.25,5.0,0.0,1.5,0.0,0.0,0.0,0.0,0.75,0.0,0.08,-0.23,-0.55,200.45,14.0,53.5,1.75,2.75,0.75,2.25,5.5,11.5,0.0,6.75,0.0,1.5,0.5,0.25,1.25,-0.05,0.33,0.95,450.74,7.2,21.5
4.48,2.0,1.25,1.75,0.25,4.25,1.5,1.0,0.0,0.25,0.0,0.5,0.0,0.0,0.14,-0.17,-0.36,206.02,10.1,55.9,1.75,3.0,0.75,2.25,5.5,11.0,0.0,6.25,0.0,1.75,0.5,0.25,1.25,0.02,0.39,0.89,453.42,6.7,22.0
4.5,0.75,0.0,1.25,0.0,4.25,0.0,0.75,0.0,0.0,0.0,0.0,0.0,0.0,0.33,0.08,0.14,179.06,9.5,57.8,1.25,3.0,0.75,2.0,5.5,10.5,0.0,6.0,0.0,2.25,0.5,0.5,1.25,0.02,0.45,0.89,455.87,7.2,18.6
4.52,1.25,0.25,1.0,0.0,4.25,0.0,0.75,0.0,0.0,0.0,0.25,0.0,0.0,0.52,0.33,0.52,153.03,10.2,57.3,1.25,2.75,0.25,1.5,3.75,10.5,0.0,6.0,0.0,2.0,0.5,0.25,1.25,0.14,0.39,0.77,433.58,8.9,16.0
4.54,0.5,0.0,1.25,0.0,3.5,0.0,1.0,0.25,0.0,0.0,0.0,0.25,0.0,0.77,0.39,0.58,124.23,9.6,46.7,0.75,2.5,0.5,1.25,2.75,9.75,0.0,5.5,0.0,0.0,0.0,0.0,1.0,0.08,0.39,0.83,383.53,9.5,24.5
4.56,0.5,0.0,1.25,0.0,3.5,0.0,0.75,0.25,0.0,0.0,0.0,0.0,0.0,0.58,0.58,0.45,105.25,9.3,53.1,1.0,2.25,1.25,1.25,2.25,9.0,0.0,5.0,0.0,1.75,0.0,0.25,0.25,0.27,0.27,0.77,343.37,7.5,21.5
4.58,0.5,0.0,1.0,0.0,2.25,0.0,0.75,0.0,0.0,0.0,0.0,0.25,0.0,0.39,0.7,0.2,82.08,12.9,48.9,1.0,0.75,1.0,1.0,2.25,8.25,0.0,4.5,0.0,1.5,0.0,0.0,0.25,0.52,0.08,0.77,295.75,9.2,18.6
4.6,0.5,0.0,1.5,0.25,3.0,0.0,1.0,0.5,0.0,0.0,0.0,0.25,0.0,0.33,0.52,0.27,86.39,11.1,44.0,0.25,0.75,1.5,0.75,0.0,7.0,0.0,3.75,0.0,0.0,0.0,0.0,0.25,0.52,0.02,0.45,246.17,9.1,20.8
4.62,0.5,0.0,1.0,0.0,1.75,0.0,1.0,0.25,0.0,0.0,0.0,0.25,0.0,0.02,0.45,0.33,75.04,13.9,42.8,1.0,0.0,1.5,0.5,0.0,6.0,0.0,2.5,0.0,0.5,0.0,0.0,0.0,1.08,0.33,-0.23,192.77,6.7,23.5
4.64,3.0,1.25,1.25,0.25,3.5,0.0,0.5,0.0,0.0,0.25,0.0,0.5,0.0,7.33,7.95,-0.8,101.44,15.2,60.4,1.0,0.0,0.25,0.0,0.5,0.75,0.0,2.25,0.0,0.0,0.25,0.0,0.0,1.52,1.02,-0.17,116.64,2.1,11.4
4.66,4.25,0.25,1.75,0.5,3.0,0.0,0.5,0.0,0.0,0.5,0.0,0.25,0.0,1.33,2.33,3.52,128.55,19.1,61.8,1.25,0.0,1.0,0.5,0.0,0.0,0.0,1.0,0.0,0.0,0.0,0.0,0.0,2.83,2.58,1.52,48.12,-19.4,45.3
4.68,5.0,0.0,1.5,0.0,2.5,0.0,0.5,0.0,0.0,0.5,0.0,0.5,0.0,0.7,0.08,2.64,153.0,21.0,59.9,0.0,0.0,1.75,0.0,0.0,0.0,0.0,0.75,0.0,0.0,0.0,0.0,0.0,1.64,0.39,1.45,0.0,-22.1,31.6
4.7,5.5,0.0,2.25,0.25,4.25,0.0,0.5,0.0,0.0,0.5,0.25,0.25,0.0,1.08,0.33,2.83,182.53,18.8,60.9,1.25,0.0,0.0,0.0,0.0,2.0,0.25,0.75,0.0,0.0,0.5,0.0,0.0,3.2,-0.17,1.02,0.0,1.3,26.3
4.72,4.0,0.0,1.0,0.0,3.5,0.0,0.25,0.25,0.0,0.5,0.5,0.0,0.0,0.7,0.95,1.83,188.53,15.1,55.5,0.0,0.0,2.0,0.0,0.0,0.5,1.0,0.75,0.0,0.0,0.25,0.0,0.0,3.45,-0.48,1.39,0.0,-18.3,26.8
4.74,1.25,0.0,1.0,0.0,1.75,0.0,0.5,0.0,0.0,0.5,0.0,0.0,0.0,1.2,0.33,2.33,164.72,14.8,51.2,0.0,0.0,0.25,0.0,0.0,0.5,0.75,0.25,0.0,0.0,0.0,0.0,0.0,1.83,-0.8,1.89,0.0,-4.8,23.8
4.76,2.0,0.0,1.25,0.0,0.5,0.0,0.5,0.0,0.0,0.5,0.25,0.0,0.0,0.27,1.14,3.64,129.17,24.4,51.4,0.0,0.0,0.5,0.0,0.0,0.25,1.0,0.0,0.0,0.0,0.0,0.0,0.0,1.02,-0.73,2.33,0.0,-24.2,42.7
4.78,1.0,0.0,1.5,0.0,1.75,0.0,1.0,0.0,0.0,0.5,0.0,0.25,0.0,2.45,1.52,2.77,106.27,16.5,42.2,0.0,0.0,0.75,0.0,0.0,0.25,1.0,0.0,0.0,0.0,0.0,0.0,0.0,1.08,-0.36,2.14,0.0,-26.6,45.9
4.8,0.75,0.0,1.75,0.0,1.25,0.0,1.0,0.0,0.0,0.5,0.0,0.75,0.0,3.02,1.14,3.08,91.26,18.1,26.3,0.0,0.0,0.5,0.0,0.0,0.0,1.0,0.0,0.0,0.0,0.0,0.0,0.0,1.39,-0.36,1.39,0.0,-35.4,44.8
4.82,0.5,0.5,2.5,0.5,4.25,0.25,1.25,1.0,0.5,0.75,1.25,0.75,0.5,2.33,0.89,2.95,131.25,8.1,15.6,0.0,0.0,0.5,0.0,0.0,0.0,1.0,0.0,0.0,0.0,0.0,0.0,0.0,1.27,-0.3,0.89,0.0,-35.4,44.8
4.84,2.25,0.75,2.5,1.5,3.75,0.5,1.25,1.0,0.25,1.0,1.0,0.75,0.0,2.2,0.52,3.08,178.33,11.6,31.4,0.0,0.0,0.0,0.0,0.0,0.0,0.75,0.0,0.0,0.0,0.0,0.0,0.0,0.77,-0.36,0.77,0.0,-32.4,27.3
4.86,2.25,1.25,2.25,0.5,4.25,1.0,1.5,1.0,0.5,0.5,1.0,0.0,0.5,2.39,0.33,3.02,218.66,9.6,36.5,0.0,0.0,0.5,0.0,0.0,0.0,1.0,0.0,0.0,0.0,0.0,0.0,0.0,0.08,-0.42,0.77,0.0,-35.4,44.8
4.88,0.5,0.0,1.5,0.0,0.0,0.0,1.0,0.0,0.0,0.5,0.0,0.0,0.0,2.02,0.7,2.33,177.33,27.8,38.5,0.0,0.0,0.0,0.0,0.0,0.0,1.0,0.0,0.0,0.0,0.0,0.0,0.0,0.14,-0.55,0.52,0.69,-32.4,27.3
4.9,0.5,0.0,1.5,0.0,0.0,0.0,1.0,0.0,0.0,0.5,0.0,0.0,0.0,1.14,1.02,1.95,131.19,27.8,38.5,0.0,0.0,1.0,0.0,0.0,0.0,1.0,0.0,0.0,0.0,0.0,0.0,0.0,0.33,-0.55,0.45,7.81,-36.4,50.3
4.92,0.5,0.0,1.75,0.0,0.0,0.0,0.75,0.0,0.0,0.5,0.0,0.0,0.0,0.45,1.02,1.52,76.46,28.4,40.8,0.0,0.0,0.25,0.0,0.0,0.0,0.75,0.0,0.0,0.0,0.0,0.0,0.0,0.39,-0.67,0.39,7.71,-34.8,41.4
4.94,0.5,0.0,1.75,0.0,0.0,0.0,1.0,0.0,0.0,0.5,0.0,0.0,0.0,-0.17,0.89,1.39,48.69,28.6,40.3,0.0,0.0,0.5,0.0,0.0,0.0,1.0,0.0,0.0,0.0,0.0,0.0,0.0,0.45,-0.73,0.33,10.09,-35.4,44.8
4.96,0.5,0.0,1.5,0.0,0.0,0.0,1.0,0.0,0.0,0.5,0.0,0.0,0.0,-0.48,0.58,0.95,40.17,27.8,38.5,0.0,0.0,0.0,0.0,0.0,0.0,1.0,0.0,0.0,0.0,0.0,0.0,0.0,0.39,-0.67,0.33,9.11,-32.4,27.3
4.98,0.5,0.0,1.75,0.0,0.0,0.0,1.0,0.0,0.0,0.75,0.0,0.0,0.0,-0.55,0.45,0.52,44.65,25.4,32.0,0.0,0.0,0.5,0.0,0.0,0.0,1.0,0.0,0.0,0.0,0.0,0.0,0.0,0.33,-0.67,0.39,13.16,-35.4,44.8
5.0,0.5,0.25,1.75,0.25,0.0,0.25,1.0,0.0,0.0,0.5,0.0,0.0,0.0,-0.61,0.27,0.02,44.37,23.8,44.8,1.0,0.25,0.5,0.0,0.0,1.25,1.25,0.25,0.0,0.0,0.5,0.0,0.0,0.33,-0.8,0.45,32.64,-11.6,37.6
5.02,0.5,0.0,1.25,0.25,0.0,0.0,1.0,0.0,0.0,0.5,0.0,0.0,0.0,-0.48,0.08,-0.11,35.72,25.9,38.2,1.0,0.25,2.5,0.0,0.25,1.5,1.5,0.75,0.0,0.0,0.5,0.25,0.0,0.14,-0.67,0.27,71.3,-15.5,34.4
5.04,0.5,0.0,1.75,0.0,0.0,0.0,1.0,0.0,0.0,0.5,0.0,0.0,0.0,-0.36,0.08,-0.11,31.4,28.6,40.3,1.0,0.25,1.75,0.0,0.0,1.5,1.25,0.75,0.0,0.0,0.5,0.0,0.0,-0.05,-0.42,0.14,97.52,-13.5,36.1
5.06,0.5,0.0,1.25,0.25,0.0,0.0,1.0,0.0,0.0,0.5,0.0,0.0,0.0,-0.23,0.14,-0.11,24.33,25.9,38.2,0.0,0.0,2.5,0.0,0.25,0.0,1.25,0.0,0.0,0.0,0.0,0.0,0.0,-0.05,-0.36,0.08,99.91,-33.8,54.5
5.08,0.5,0.0,1.5,0.0,0.0,0.0,1.0,0.0,0.0,0.5,0.0,0.0,0.0,-0.17,0.45,-0.17,28.94,27.8,38.5,0.0,0.0,0.0,0.0,0.0,0.0,0.75,0.0,0.0,0.0,0.0,0.0,0.0,-0.05,-0.23,0.02,74.18,-32.4,27.3
5.1,0.5,0.0,1.25,0.0,0.0,0.0,1.0,0.0,0.0,0.5,0.0,0.0,0.0,-0.05,0.7,-0.3,36.34,26.8,36.4,0.0,0.0,0.75,0.0,0.0,0.0,1.0,0.0,0.0,0.0,0.0,0.0,0.0,0.08,-0.17,0.02,49.76,-36.0,48.1
5.12,0.5,0.0,1.5,0.25,0.0,0.0,1.0,0.0,0.0,0.5,0.0,0.0,0.0,0.08,0.95,-0.48,50.76,26.9,40.0,0.0,0.0,0.75,0.0,0.0,0.25,1.0,0.0,0.0,0.0,0.0,0.0,0.0,0.2,-0.23,-0.11,32.0,-26.6,45.9
5.14,0.5,0.0,1.5,0.0,0.0,0.0,0.75,0.0,0.0,0.0,0.0,0.0,0.0,-0.05,1.14,-0.67,47.15,36.7,63.1,0.0,0.0,0.25,0.0,0.0,0.0,1.0,0.0,0.0,0.0,0.0,0.0,0.0,0.39,-0.23,-0.23,21.46,-34.4,39.1
5.16,0.5,0.0,1.25,0.0,0.0,0.0,0.75,0.25,0.0,0.0,0.0,0.0,0.0,-0.11,1.2,-1.05,44.1,30.9,52.6,0.0,0.0,0.5,0.0,0.0,0.0,1.0,0.0,0.0,0.0,0.0,0.0,0.0,0.45,-0.23,-0.36,17.87,-35.4,44.8
5.18,0.5,0.0,1.5,0.25,0.0,0.0,1.0,0.0,0.0,0.5,0.0,0.0,0.0,-0.23,1.2,-1.17,45.62,26.9,40.0,0.0,0.0,0.5,0.0,0.0,0.0,1.0,0.0,0.0,0.0,0.0,0.0,0.0,0.52,-0.17,-0.48,14.08,-35.4,44.8
5.2,0.5,0.0,1.25,0.25,0.0,0.0,1.0,0.0,0.0,0.5,0.0,0.0,0.0,-0.36,1.02,-1.3,47.0,25.9,38.2,0.0,0.0,0.0,0.0,0.0,0.0,1.0,0.0,0.0,0.0,0.0,0.0,0.0,0.52,-0.17,-0.61,7.19,-32.4,27.3
5.22,0.5,0.0,1.5,0.25,0.0,0.0,1.0,0.0,0.0,0.5,0.0,0.0,0.0,-0.48,0.7,-1.36,49.88,26.9,40.0,0.0,0.25,0.25,0.25,0.0,0.0,1.0,0.0,0.0,0.0,0.0,0.0,0.0,0.52,-0.11,-0.67,4.81,-26.3,55.3
5.24,0.5,0.0,1.5,0.25,0.0,0.0,1.0,0.0,0.0,0.5,0.0,0.0,0.0,-0.55,0.45,-1.36,52.26,26.9,40.0,0.0,0.0,2.0,0.0,0.0,0.0,1.25,0.0,0.0,0.0,0.0,0.0,0.0,0.45,0.02,-0.8,12.8,-36.9,53.4
5.26,0.5,0.0,1.5,0.25,0.0,0.0,1.0,0.0,0.0,0.5,0.0,0.0,0.0,-0.55,0.27,-1.3,55.03,26.9,40.0,0.0,0.0,0.0,0.0,0.0,0.0,1.0,0.0,0.0,0.0,0.0,0.0,0.0,0.33,0.14,-0.92,10.97,-32.4,27.3
5.28,0.75,0.0,1.75,0.25,0.0,0.0,1.25,0.25,0.0,0.5,0.0,0.0,0.0,-0.55,0.14,-1.3,60.16,25.6,39.5,0.0,0.0,0.0,0.0,0.0,0.0,1.0,0.0,0.0,0.0,0.0,0.0,0.0,0.14,0.33,-1.05,12.59,-32.4,27.3
5.3,1.75,1.25,1.75,0.75,0.0,0.0,1.0,0.5,0.0,0.5,0.0,0.0,0.0,-0.48,0.08,-1.23,82.58,22.2,57.0,0.0,0.0,0.5,0.0,0.0,0.0,1.0,0.0,0.0,0.0,0.0,0.0,0.0,-0.17,0.45,-1.23,13.95,-35.4,44.8
5.32,1.5,1.25,2.0,0.75,0.0,0.25,0.75,0.75,0.5,1.25,0.0,0.0,0.0,-0.42,0.02,-1.05,109.89,15.9,36.0,0.0,0.0,0.25,0.0,0.0,0.0,1.0,0.0,0.0,0.0,0.0,0.0,0.0,-0.36,0.64,-1.17,14.02,-34.4,39.1
5.34,1.5,1.25,1.75,0.5,0.0,1.0,1.0,0.0,0.5,1.0,0.0,0.75,0.0,-0.36,-0.05,-0.98,132.46,15.4,31.5,0.0,0.0,0.0,0.0,0.0,0.0,1.0,0.0,0.0,0.0,0.0,0.0,0.0,-0.55,0.83,-1.17,10.03,-32.4,27.3
5.36,1.75,0.0,2.25,0.25,4.25,0.0,1.5,1.0,0.0,0.5,1.25,0.0,0.5,-0.3,-0.11,-0.98,167.34,10.6,28.6,1.0,0.25,0.25,0.0,0.0,1.25,1.0,0.0,0.0,0.25,0.0,0.0,0.0,-0.67,0.95,-1.23,26.53,-9.0,49.7
5.38,1.75,1.25,1.75,0.5,0.0,1.0,1.0,0.0,0.5,1.25,0.0,0.75,0.0,-0.3,-0.23,-0.98,174.43,15.1,30.3,0.0,0.0,0.5,0.0,0.0,0.0,1.0,0.0,0.0,0.0,0.0,0.0,0.0,-0.61,1.08,-1.36,27.63,-35.4,44.8
5.4,0.5,0.0,2.25,0.25,4.25,0.0,1.5,1.0,0.0,0.25,1.0,0.0,0.25,-0.23,-0.36,-0.92,185.26,9.2,29.2,0.0,0.0,0.25,0.0,0.0,0.0,1.0,0.0,0.0,0.0,0.0,0.0,0.0,-0.48,1.08,-1.36,25.92,-34.4,39.1
5.42,0.5,0.0,1.75,0.25,0.0,0.0,1.0,0.0,0.0,0.5,0.0,0.0,0.0,-0.17,-0.55,-0.86,149.97,27.7,41.6,1.0,0.25,0.5,0.0,0.0,1.5,1.25,0.25,0.0,0.0,0.5,0.0,0.0,-0.36,0.95,-1.3,41.08,-9.8,37.4
5.44,1.5,1.25,1.75,0.5,0.0,1.0,1.0,0.0,0.5,1.25,0.0,0.75,0.0,-0.11,-0.73,-0.8,146.12,14.5,28.5,0.5,0.25,1.75,0.25,0.0,1.25,1.5,0.75,0.0,1.0,0.5,0.0,0.25,-0.23,0.77,-1.17,71.06,-8.7,12.0
5.46,0.5,0.0,1.25,0.25,0.0,0.0,0.75,0.0,0.0,0.5,0.0,0.0,0.0,-0.11,-0.8,-0.67,106.05,25.7,38.7,1.0,0.0,2.25,0.5,0.5,1.25,1.25,0.75,0.0,0.0,0.5,0.0,0.25,-0.23,0.52,-1.11,100.59,-14.4,33.6
5.48,0.75,0.25,1.75,1.0,0.0,1.0,1.0,0.0,0.25,1.25,0.0,1.0,0.0,0.08,-0.86,-0.55,107.8,13.0,12.5,0.0,0.0,2.25,0.0,0.5,0.0,1.25,0.0,0.0,0.0,0.0,0.0,0.0,-0.17,0.33,-0.98,102.28,-30.3,53.9
5.5,0.75,0.0,1.5,0.5,0.0,0.25,0.75,0.0,0.5,0.5,0.0,0.75,0.0,0.27,-0.86,-0.48,89.98,20.3,14.1,0.0,0.0,0.0,0.0,0.0,0.0,1.0,0.0,0.0,0.0,0.0,0.0,0.0,-0.17,0.2,-0.8,80.32,-32.4,27.3
5.52,1.5,1.25,2.25,0.5,4.25,1.0,1.25,1.0,0.5,1.0,1.25,0.75,0.5,0.33,-0.86,-0.42,146.73,7.7,22.7,0.0,0.0,0.0,0.0,0.0,0.0,0.75,0.0,0.0,0.0,0.0,0.0,0.0,-0.23,0.08,-0.61,47.56,-32.4,27.3
5.54,1.75,1.25,2.25,1.0,4.25,1.0,1.5,1.0,0.5,1.0,1.0,0.75,0.25,0.45,-0.8,-0.42,190.38,8.8,28.1,1.0,0.0,1.75,0.0,0.0,1.25,1.0,0.0,0.0,0.0,0.0,0.0,0.0,-0.23,-0.05,-0.61,45.84,-20.5,57.9
5.56,1.5,1.25,2.25,0.5,4.25,1.0,1.25,1.0,0.5,1.25,1.0,0.75,0.5,0.58,-0.73,-0.48,232.39,7.3,22.6,1.0,0.25,1.75,0.25,0.25,1.25,1.5,0.75,0.0,0.5,0.5,0.0,0.0,-0.23,-0.17,-0.61,69.25,-12.4,29.8
5.58,1.5,1.25,2.25,0.5,4.25,1.0,1.5,1.0,0.5,1.25,1.0,0.75,0.5,0.7,-0.61,-0.48,251.92,7.4,22.6,1.0,0.0,1.5,0.25,0.0,1.25,1.25,0.75,0.0,0.25,0.5,0.0,0.25,-0.3,-0.36,-0.48,91.25,-11.8,23.1
5.6,1.75,1.0,2.25,0.75,4.25,1.0,1.25,1.0,0.5,1.0,1.0,0.75,0.25,0.77,-0.61,-0.48,260.26,8.4,26.5,1.0,0.0,1.75,0.5,0.25,1.25,1.25,0.75,0.0,0.5,0.5,0.0,0.25,-0.36,-0.55,-0.36,110.13,-11.3,23.5
5.62,1.75,1.0,2.25,0.5,4.25,1.25,1.25,1.0,0.5,0.5,1.0,0.75,0.25,0.89,-0.61,-0.55,261.9,8.5,29.3,1.0,0.0,2.0,0.25,0.25,1.75,1.25,0.75,0.0,0.75,0.25,0.0,0.25,-0.17,-0.55,0.39,122.64,-9.1,24.1
5.64,1.75,1.25,2.25,1.25,4.25,1.0,1.25,1.5,0.25,1.0,1.25,0.75,0.25,0.89,-0.55,-0.55,267.35,8.0,26.2,1.0,0.0,2.5,0.25,1.25,1.25,1.0,0.75,0.0,0.25,0.5,0.25,0.0,0.14,-0.42,0.45,131.87,-12.8,32.8
5.66,1.75,1.0,2.25,0.5,4.25,1.0,1.25,1.0,0.5,1.25,1.0,0.75,0.25,0.83,-0.55,-0.42,270.3,7.9,24.5,1.0,0.25,1.75,0.0,0.5,1.5,1.25,0.75,0.0,0.25,0.5,0.0,0.25,0.39,-0.36,0.2,129.95,-10.2,28.6
5.68,1.75,1.25,2.5,0.5,4.25,1.0,1.25,1.0,0.5,1.0,1.25,0.75,0.5,0.83,-0.48,-0.3,269.1,8.5,24.2,1.0,0.25,2.25,0.25,0.25,1.25,1.0,0.75,0.0,0.75,0.25,0.0,0.25,0.64,-0.17,0.08,132.86,-11.8,27.1
5.7,1.75,1.25,2.5,0.5,4.25,1.0,1.5,1.0,0.5,1.0,1.0,0.75,0.5,0.7,-0.55,-0.17,268.06,8.6,25.6,0.0,0.0,2.5,0.0,0.5,0.0,1.0,0.75,0.0,0.25,0.5,0.0,0.25,0.95,-0.05,0.02,121.91,-18.1,16.4
5.72,1.75,1.0,2.25,0.5,4.25,1.0,1.25,1.0,0.25,1.25,1.0,0.75,0.5,0.58,-0.48,-0.17,259.7,7.5,23.4,1.0,0.25,2.0,0.0,0.25,1.25,1.25,0.75,0.0,0.5,0.5,0.0,0.25,0.95,-0.11,0.02,123.63,-11.9,25.0
5.74,1.5,1.25,2.25,0.5,4.25,1.0,1.25,1.0,0.5,1.25,0.5,0.75,0.0,0.45,-0.42,-0.23,249.56,7.8,29.9,0.0,0.0,2.0,0.0,1.0,0.0,1.25,0.75,0.0,0.5,0.5,0.0,0.25,1.02,-0.17,0.2,112.98,-13.0,12.4
5.76,1.75,1.25,2.25,0.5,4.25,1.0,1.25,1.0,0.25,1.0,1.25,0.75,0.25,0.27,-0.3,-0.3,239.71,8.3,26.7,0.0,0.25,0.0,0.0,0.0,1.5,0.75,0.0,0.0,0.5,0.0,0.0,0.0,1.08,-0.36,0.14,87.67,10.0,18.1
5.78,1.75,1.25,2.25,0.75,4.25,0.5,1.25,1.0,0.25,1.0,1.25,1.0,0.5,0.02,-0.23,-0.3,239.78,9.0,22.9,1.0,0.0,1.75,0.0,1.0,1.25,1.0,0.75,0.0,0.5,0.25,0.0,0.25,1.2,-0.36,0.14,86.13,-8.9,27.8
5.8,1.75,0.5,2.25,0.25,4.25,0.0,1.5,1.0,0.0,0.0,0.5,0.0,0.25,-0.11,-0.17,-0.3,222.63,12.2,45.1,1.0,0.0,1.75,0.0,1.25,1.25,1.25,0.75,0.0,0.25,0.5,0.0,0.25,1.33,-0.42,0.14,93.53,-9.6,28.8
5.82,0.5,0.0,1.5,0.25,0.0,0.0,0.75,0.0,0.0,0.25,0.0,0.0,0.0,-0.11,-0.05,-0.11,161.94,30.4,50.6,1.0,0.25,2.25,0.5,0.25,1.75,1.25,0.75,0.0,0.0,0.5,0.0,0.25,1.39,-0.55,0.2,110.46,-12.8,35.0
5.84,0.5,0.0,1.75,0.25,0.0,0.0,1.0,0.0,0.0,0.5,0.0,0.0,0.0,0.02,-0.05,0.02,102.43,27.7,41.6,1.0,0.0,1.75,0.0,1.25,1.25,1.25,0.75,0.0,0.5,0.5,0.25,0.25,1.45,-0.73,0.33,120.05,-8.8,21.5
5.86,0.5,0.0,1.75,0.25,0.0,0.0,0.75,0.0,0.0,0.5,0.0,0.0,0.0,0.33,0.02,0.2,49.96,27.6,42.1,1.0,0.0,2.0,0.0,1.0,1.25,1.25,0.75,0.0,0.5,0.5,0.0,0.25,1.7,-0.73,0.39,127.09,-10.2,25.7
5.88,0.5,0.0,1.0,0.25,0.0,0.0,1.0,0.25,0.0,0.5,0.0,0.0,0.0,0.58,-0.05,0.27,20.0,21.3,29.8,1.0,0.25,2.0,0.25,0.5,1.75,1.0,0.75,0.0,0.5,0.5,0.0,0.25,1.83,-0.48,0.27,129.32,-9.2,27.5
5.9,0.5,0.0,1.75,0.25,0.0,0.0,0.75,0.0,0.0,0.25,0.0,0.0,0.0,0.77,-0.17,0.33,9.25,31.0,51.5,1.0,0.0,1.75,0.0,2.25,1.25,1.0,0.75,0.0,0.25,0.5,0.0,0.25,1.89,-0.23,0.2,135.12,-7.6,32.1
5.92,0.5,0.0,1.75,0.25,0.0,0.0,0.75,0.0,0.0,0.5,0.0,0.0,0.0,0.95,-0.23,0.58,9.83,27.6,42.1,1.0,0.0,1.75,0.0,1.0,1.25,1.0,0.75,0.0,0.5,0.5,0.0,0.25,1.89,-0.11,0.27,134.07,-8.9,24.5
5.94,0.5,0.0,1.5,0.25,0.0,0.0,0.75,0.0,0.0,0.25,0.0,0.0,0.0,1.08,-0.36,0.89,8.77,30.4,50.6,1.0,0.0,2.0,0.0,0.5,2.0,1.0,0.75,0.0,0.25,0.25,0.0,0.25,1.83,-0.05,0.39,132.42,-8.6,31.0
5.96,1.5,1.0,1.5,0.5,0.0,1.0,0.75,0.25,0.25,0.75,0.0,1.0,0.0,1.08,-0.48,1.14,38.82,14.4,27.4,1.0,0.0,2.5,0.0,0.25,1.5,1.0,0.75,0.0,0.0,0.5,0.0,0.25,1.95,0.02,0.27,126.08,-14.2,32.2
5.98,1.75,1.25,2.25,0.75,4.25,1.0,1.25,1.0,0.25,1.25,1.0,0.75,0.5,1.02,-0.55,1.2,117.49,7.7,25.0,1.0,0.0,2.5,0.0,0.5,1.25,1.0,0.5,0.0,0.5,0.5,0.5,0.25,2.02,0.08,-0.11,126.52,-13.4,19.5
6.0,1.75,1.0,2.25,0.75,4.25,1.0,1.25,1.0,0.25,1.25,1.25,0.75,0.25,0.95,-0.61,1.2,183.82,8.0,24.5,1.0,0.0,1.75,0.25,0.0,1.25,1.0,0.75,0.0,0.5,0.5,0.0,0.25,1.83,0.14,-0.11,119.17,-11.4,20.7
6.02,0.75,0.0,2.25,0.25,4.25,0.0,1.25,1.0,0.0,0.5,1.25,0.0,0.25,0.95,-0.61,1.27,211.61,8.9,26.2,1.0,0.25,1.75,0.25,1.0,1.25,1.0,0.75,0.0,0.0,0.5,0.0,0.25,1.64,0.14,-0.11,116.0,-11.0,34.8
6.04,0.5,0.0,1.25,0.25,0.0,0.0,0.75,0.0,0.0,0.5,0.0,0.0,0.0,0.95,-0.67,1.33,180.84,25.7,38.7,0.0,0.0,1.75,0.0,0.25,1.25,1.0,0.75,0.0,0.0,0.5,0.0,0.25,1.33,0.14,0.02,102.76,-8.7,16.1
6.06,0.5,0.0,1.0,0.25,0.0,0.0,0.75,0.0,0.0,0.5,0.0,0.0,0.0,1.02,-0.73,1.33,134.89,24.4,36.5,1.0,0.25,0.0,0.25,0.0,1.25,0.75,0.75,0.0,1.0,0.5,0.0,0.25,1.02,0.08,0.14,93.13,0.2,2.3
6.08,0.5,0.0,1.25,0.25,0.0,0.0,0.75,0.0,0.0,0.25,0.0,0.0,0.0,1.02,-0.67,1.33,82.16,29.6,49.6,0.0,0.0,1.25,0.0,0.5,0.0,1.0,0.0,0.0,0.0,0.0,0.0,0.25,0.77,0.02,0.27,68.9,-22.8,36.2
6.1,0.5,0.0,1.25,0.25,0.0,0.0,1.0,0.0,0.0,0.5,0.0,0.0,0.0,1.08,-0.67,1.33,56.48,25.9,38.2,1.0,0.0,0.0,0.0,0.0,0.0,1.0,0.75,0.0,0.0,0.0,0.0,0.25,0.52,-0.05,0.27,49.96,-13.2,19.4
6.12,1.75,1.0,1.5,0.75,0.0,1.0,0.75,0.0,0.25,1.0,0.5,0.75,0.5,1.08,-0.61,1.27,79.99,13.4,19.7,0.0,0.0,0.25,0.0,0.0,0.0,0.75,0.0,0.0,0.0,0.0,0.0,0.0,0.39,-0.05,0.27,22.97,-34.8,41.4
6.14,1.5,1.25,2.5,1.0,4.25,1.0,1.25,1.0,0.25,0.5,1.0,0.0,0.5,1.08,-0.48,1.2,142.67,9.0,36.1,0.0,0.0,0.0,0.0,0.0,0.0,0.75,0.0,0.0,0.0,0.0,0.0,0.0,0.33,-0.05,0.33,4.43,-32.4,27.3
6.16,0.5,0.25,1.75,0.75,0.0,0.0,0.75,0.0,0.0,0.25,0.0,0.5,0.0,1.08,-0.36,1.08,137.18,25.8,36.8,0.0,0.0,0.0,0.0,0.0,0.0,0.75,0.0,0.0,0.0,0.0,0.0,0.0,0.27,-0.05,0.33,0.0,-32.4,27.3
6.18,1.5,1.0,2.5,0.5,4.25,0.25,1.25,1.0,0.5,0.5,1.0,0.75,0.5,1.02,-0.3,1.08,173.66,10.2,26.2,0.0,0.0,0.0,0.0,0.0,0.0,1.0,0.0,0.0,0.0,0.0,0.0,0.0,0.45,-0.11,0.39,0.0,-32.4,27.3
6.2,1.5,1.25,2.25,0.5,4.25,0.75,1.25,1.0,0.5,1.0,1.0,0.75,0.25,0.95,-0.23,1.02,192.32,8.4,26.1,0.0,0.0,0.0,0.0,0.0,0.0,1.0,0.0,0.0,0.0,0.0,0.0,0.0,0.64,-0.11,0.45,0.0,-32.4,27.3
6.22,1.75,1.25,2.25,0.5,4.25,1.0,1.25,1.0,0.25,1.25,1.0,0.75,0.25,0.89,-0.17,0.95,223.02,7.9,26.6,0.0,0.0,0.5,0.0,0.0,0.0,0.75,0.0,0.0,0.0,0.0,0.0,0.0,0.7,-0.11,0.52,0.0,-35.8,47.1
6.24,1.5,1.25,2.25,0.5,4.25,1.0,1.25,1.0,0.25,1.25,1.0,0.75,0.25,0.64,-0.17,0.95,243.37,7.5,25.6,0.0,0.0,0.0,0.0,0.0,0.0,1.0,0.0,0.0,0.0,0.0,0.0,0.0,0.77,-0.17,0.58,0.0,-32.4,27.3
6.26,1.25,1.0,2.25,0.5,4.25,1.0,1.25,1.0,0.25,0.5,1.25,1.5,0.25,0.45,-0.17,1.02,262.0,8.2,20.3,1.0,0.5,2.25,0.0,1.25,1.25,1.0,0.75,0.0,0.5,0.5,0.0,0.25,0.77,-0.23,0.58,43.42,-10.4,31.9
6.28,1.5,1.25,2.25,0.75,4.25,1.0,1.25,0.5,0.25,1.0,1.25,0.5,0.25,0.27,-0.23,1.08,265.78,8.8,30.3,0.0,0.0,0.25,0.0,0.0,0.0,1.0,0.0,0.0,0.0,0.0,0.0,0.0,0.77,-0.23,0.52,45.24,-34.4,39.1
6.3,1.5,1.25,2.25,0.75,4.25,1.0,1.25,1.0,0.25,0.5,1.0,0.75,0.25,0.39,-0.17,1.02,260.9,8.8,30.9,1.0,0.25,0.0,0.25,0.0,1.5,0.75,0.0,0.0,0.25,0.0,0.25,0.0,0.83,-0.05,0.52,62.95,-4.8,38.6
6.32,1.5,1.25,2.25,0.5,4.25,0.5,1.25,1.0,0.25,0.75,1.0,0.75,0.25,0.52,-0.11,0.89,255.19,9.2,28.6,1.0,0.25,2.0,0.0,0.5,1.25,1.0,0.75,0.0,0.25,0.5,0.0,0.5,0.95,0.02,0.45,83.38,-11.0,24.8
6.34,1.5,1.25,2.25,0.5,4.25,0.25,1.25,1.0,0.25,0.75,1.0,0.75,0.25,0.58,0.02,0.89,246.38,9.7,28.5,1.0,0.25,2.25,0.0,0.25,1.25,1.0,0.5,0.0,0.5,0.5,0.25,0.25,1.02,0.02,0.52,107.81,-13.4,23.8
6.36,1.75,1.25,2.25,0.5,4.25,0.25,1.0,1.0,0.25,0.5,1.0,0.75,0.25,0.64,0.02,0.95,236.21,10.3,31.3,1.0,0.25,2.25,0.0,0.25,1.25,1.0,0.75,0.0,0.0,0.5,0.0,0.5,1.08,0.02,0.45,122.27,-13.5,28.4
6.38,1.5,1.25,2.25,0.25,4.25,0.0,1.25,1.0,0.25,1.0,1.0,0.75,0.25,0.7,-0.05,1.08,229.39,9.7,26.2,1.0,0.25,2.5,0.25,0.25,1.0,1.0,0.75,0.0,0.5,0.5,0.0,0.25,1.08,0.08,0.45,135.18,-14.6,28.2
6.4,1.25,1.0,2.25,0.5,4.25,0.75,1.0,1.0,0.25,0.75,1.0,0.75,0.25,0.7,-0.05,1.02,229.19,8.1,26.4,1.0,0.0,1.75,0.0,0.5,1.25,1.0,0.75,0.0,0.5,0.5,0.0,0.5,1.08,0.08,0.52,137.32,-9.1,17.3
6.42,1.5,1.25,2.25,0.5,4.25,0.5,1.0,1.0,0.25,1.25,1.0,1.0,0.25,0.58,-0.05,0.89,223.81,8.3,23.2,1.0,0.25,2.25,1.0,0.25,1.25,1.0,0.5,0.25,0.5,0.5,0.0,0.25,0.95,0.2,0.52,140.71,-13.9,30.1
6.44,1.5,1.25,2.25,0.5,4.25,0.25,1.25,1.0,0.25,0.75,1.0,0.0,0.5,0.58,0.02,0.83,222.06,9.3,33.1,1.0,0.0,2.25,0.0,0.25,1.0,1.0,0.5,0.0,0.5,0.5,0.0,0.5,0.89,0.27,0.52,135.94,-13.8,20.5
6.46,1.5,1.0,2.25,0.5,4.25,0.25,1.25,1.0,0.25,1.0,1.0,0.75,0.25,0.52,-0.05,0.77,222.29,9.2,25.6,1.0,0.25,2.5,0.0,0.25,1.25,1.0,0.5,0.0,0.5,0.5,0.0,0.25,0.83,0.27,0.45,134.32,-14.4,29.6
6.48,1.5,1.25,2.25,0.5,4.25,0.25,1.5,1.0,0.25,1.25,1.0,0.75,0.5,0.45,-0.05,0.7,225.29,8.7,23.1,1.0,0.25,1.75,1.25,0.25,1.25,1.0,0.75,0.0,0.0,0.5,0.0,0.5,0.77,0.27,0.39,131.86,-12.5,31.1
6.5,1.25,1.25,2.25,0.25,4.25,0.75,1.25,1.0,0.25,1.25,1.0,0.75,0.25,0.33,0.02,0.7,227.38,7.4,23.9,1.0,0.0,2.0,0.0,0.25,1.25,1.0,0.5,0.0,0.5,0.5,0.0,0.25,0.7,0.2,0.45,123.2,-12.6,24.5
6.52,1.5,1.0,2.25,0.5,4.25,0.5,1.25,1.0,0.25,1.0,1.0,0.75,0.25,0.2,0.02,0.7,227.9,8.7,25.8,1.0,0.25,2.5,0.25,0.5,1.25,1.0,0.75,0.0,0.25,0.5,0.0,0.25,0.64,0.2,0.45,128.7,-13.8,32.5
6.54,1.5,1.25,2.25,0.5,4.25,0.25,1.25,1.0,0.25,1.25,1.0,0.75,0.25,0.14,0.14,0.7,229.11,8.9,25.2,1.0,0.0,2.5,0.25,0.5,1.25,1.0,0.75,0.0,0.5,0.5,0.0,0.25,0.64,0.2,0.33,125.44,-12.9,27.0
6.56,1.25,1.0,2.25,0.5,4.25,1.0,1.25,1.0,0.25,1.0,1.0,0.75,0.5,0.14,0.27,0.7,230.78,7.1,22.8,1.0,0.0,2.25,0.0,0.5,1.25,1.0,0.75,0.0,0.5,0.5,0.0,0.25,0.64,0.2,0.33,122.95,-11.9,24.7
6.58,1.5,1.0,2.25,0.5,4.25,0.25,1.25,1.0,0.25,1.0,1.25,0.75,0.5,0.14,0.33,0.7,230.63,8.9,21.9,1.0,0.0,2.0,0.5,0.5,0.75,1.0,0.5,0.0,0.25,0.5,0.0,0.25,0.58,0.2,0.39,118.08,-15.8,31.3
6.6,1.0,1.0,2.5,0.5,4.25,0.5,1.25,1.0,0.25,1.25,1.25,0.75,0.25,0.2,0.33,0.77,230.57,8.1,21.0,1.0,0.0,2.0,0.0,0.25,0.75,1.0,0.5,0.0,0.5,0.5,0.0,0.5,0.64,0.08,0.39,111.73,-14.1,18.4
6.62,1.25,1.0,2.25,0.5,4.25,0.25,1.25,1.0,0.25,1.25,1.0,0.75,0.5,0.2,0.33,0.83,229.08,8.1,20.7,1.0,0.0,2.0,0.25,0.25,0.75,1.0,0.75,0.0,0.5,0.5,0.25,0.5,0.58,0.02,0.52,108.79,-13.0,13.5
6.64,1.5,1.25,2.25,0.5,4.25,1.0,1.25,1.0,0.25,0.75,1.0,0.75,0.25,0.27,0.33,0.83,230.09,8.3,28.8,1.0,0.25,2.0,0.5,0.25,1.25,1.0,0.75,0.0,0.0,0.5,0.0,0.25,0.52,0.08,0.64,109.38,-13.9,34.3
6.66,1.75,1.25,2.25,0.5,4.25,0.25,1.25,1.0,0.25,0.75,1.25,0.75,0.5,0.2,0.33,0.89,230.9,9.7,25.7,1.0,0.25,2.25,0.0,0.25,1.25,1.0,0.5,0.0,0.5,0.5,0.25,0.5,0.58,0.14,0.64,113.27,-12.5,19.4
6.68,1.75,1.0,2.25,0.5,4.25,0.25,1.25,1.0,0.25,1.25,1.0,0.75,0.5,0.2,0.27,0.95,232.68,8.8,22.9,1.0,0.25,2.25,0.0,0.25,1.25,1.0,0.75,0.0,0.0,0.5,0.0,0.5,0.64,0.2,0.58,115.69,-13.5,28.4
6.7,1.25,1.25,2.5,0.5,4.25,0.25,1.5,1.0,0.25,1.25,1.0,0.75,0.25,-0.3,-2.86,2.58,232.45,9.2,24.7,1.0,0.25,1.5,0.0,0.0,0.75,1.0,0.75,0.0,0.5,0.5,0.0,0.25,0.64,0.33,0.64,108.58,-12.7,19.7
6.72,1.75,1.25,2.25,0.5,4.25,0.0,1.5,1.0,0.25,0.5,1.0,0.75,0.25,-0.11,-0.42,1.39,229.47,11.2,31.2,1.0,0.25,2.25,0.0,0.0,1.0,1.0,0.75,0.0,0.5,0.25,0.0,0.25,0.7,0.33,0.64,105.43,-14.5,28.4
6.74,1.25,1.0,2.25,0.5,4.25,0.25,1.5,0.25,0.25,0.25,1.0,0.5,0.0,-0.61,0.7,0.7,218.97,12.4,39.0,1.25,0.25,1.75,0.0,0.25,1.25,1.0,0.75,0.0,0.25,0.5,0.0,0.25,0.7,0.27,0.7,104.84,-12.4,29.7
6.76,1.5,1.25,2.5,0.5,4.25,0.25,1.75,0.5,0.25,1.25,1.25,0.75,0.25,-0.11,0.39,1.2,220.38,10.5,26.3,0.0,0.0,1.5,0.0,0.0,0.0,1.0,0.0,0.0,0.0,0.0,0.0,0.0,-0.73,0.2,-0.3,80.0,-36.9,53.0
6.78,1.5,1.25,2.25,0.25,4.25,0.0,1.5,1.0,0.25,1.0,1.25,0.75,0.25,0.02,0.2,0.95,219.8,9.9,24.6,1.0,0.25,2.5,0.75,0.0,1.25,1.0,0.5,0.0,0.5,0.5,0.0,0.5,0.27,-0.05,0.45,91.11,-14.4,27.1
6.8,1.5,1.25,2.5,0.75,4.25,0.25,1.75,1.0,0.25,0.75,1.75,0.75,0.25,-0.05,0.14,1.08,228.67,10.6,25.0,1.0,0.0,2.0,0.25,0.25,1.0,1.0,0.5,0.0,0.0,0.5,0.0,0.5,0.27,0.45,0.89,92.37,-15.2,27.9
6.82,1.5,1.0,2.25,0.5,4.25,0.0,1.75,1.0,0.5,0.75,1.25,0.75,0.25,0.02,0.14,0.95,229.48,10.6,24.6,1.0,0.0,2.5,0.0,0.25,0.75,1.0,0.5,0.0,0.5,0.5,0.0,0.25,0.2,0.39,0.52,102.47,-17.1,26.6
6.84,1.5,1.0,2.5,0.75,4.25,0.0,1.75,1.0,0.25,0.5,1.25,0.75,0.25,0.02,0.14,0.95,231.06,11.5,28.3,1.0,0.25,1.5,0.0,0.25,1.25,1.0,0.75,0.0,0.0,0.5,0.0,0.5,0.58,0.14,0.89,102.22,-10.6,24.5
6.86,1.25,1.25,2.25,1.0,4.25,0.0,1.75,1.0,0.5,1.25,1.5,0.75,0.25,0.08,0.14,0.95,233.29,9.7,21.3,1.0,0.25,2.5,0.0,0.25,1.0,1.0,0.5,0.0,0.5,0.5,0.0,0.5,0.45,0.27,0.77,109.84,-14.6,24.6
6.88,1.75,1.0,2.25,0.5,4.25,0.0,1.75,1.0,0.25,1.0,1.25,0.75,0.25,0.08,0.14,0.89,232.67,10.5,25.0,1.25,0.75,2.0,0.5,0.5,1.5,1.0,0.5,0.0,0.5,0.5,0.0,0.5,0.08,0.52,0.7,120.65,-11.2,32.1
6.9,1.0,1.0,2.25,0.25,4.25,0.0,1.5,1.0,0.25,1.25,1.25,0.75,0.5,0.02,0.14,0.89,229.46,8.2,17.1,1.25,0.25,2.25,0.0,0.5,1.25,1.0,0.75,0.0,0.25,0.5,0.0,0.5,1.2,-0.05,0.52,127.36,-12.6,28.1
6.92,1.0,1.0,2.75,1.0,3.0,0.0,1.25,1.0,0.5,1.25,1.5,0.75,0.25,-0.05,0.08,0.89,225.29,11.1,17.0,1.25,0.0,1.75,0.0,0.25,1.25,1.0,0.5,0.0,0.25,0.25,0.0,0.5,0.02,0.2,0.77,125.48,-12.5,28.0
6.94,1.25,1.25,2.25,0.5,4.25,0.0,1.75,1.0,0.25,1.25,1.25,0.75,0.5,0.02,0.08,0.89,226.32,9.0,20.4,1.5,0.25,1.75,0.0,0.0,1.25,1.0,0.75,0.0,0.5,0.5,0.0,0.5,0.58,-0.05,0.64,123.33,-11.8,22.5
6.96,1.25,1.25,2.25,0.75,4.25,0.0,1.75,1.0,0.25,1.0,1.5,0.75,0.25,0.02,0.14,0.89,228.31,9.9,23.1,1.5,0.25,1.75,0.0,0.0,1.25,1.0,0.5,0.0,0.25,0.5,0.0,0.5,0.39,-0.11,0.89,117.58,-13.9,28.3
6.98,1.75,0.75,2.25,0.5,4.25,0.0,1.5,1.0,0.25,1.25,1.75,0.75,0.5,0.08,0.14,0.89,231.97,9.5,17.2,1.75,0.0,1.5,0.0,0.25,1.25,1.0,0.5,0.0,0.25,0.5,0.0,0.5,0.45,-0.05,0.77,115.21,-13.0,27.8
7.0,1.75,1.25,2.25,0.5,4.25,0.0,1.75,1.0,0.25,1.25,2.0,0.75,0.25,0.08,0.14,0.95,235.82,10.1,20.4,1.5,0.25,1.25,0.0,0.25,1.0,1.0,0.5,0.0,0.25,0.5,0.0,0.25,0.45,0.08,0.77,110.75,-13.6,32.3
7.02,1.75,1.0,2.25,0.75,4.25,0.0,1.75,1.0,0.25,1.25,1.75,0.75,0.5,0.14,0.2,1.02,240.02,9.8,19.2,1.75,0.25,1.75,0.0,0.0,1.25,1.0,0.5,0.0,0.5,0.5,0.0,0.25,0.45,0.14,0.77,107.92,-14.5,31.9
7.04,1.75,1.0,2.25,0.5,4.25,0.0,1.5,1.0,0.25,1.25,2.0,1.0,0.5,0.08,0.14,0.95,242.37,9.6,15.3,1.25,0.25,1.5,0.0,0.25,1.0,1.0,0.75,0.0,0.0,0.25,0.0,0.5,0.39,0.14,0.77,104.75,-12.7,30.8
7.06,1.75,1.25,2.25,0.75,4.25,0.0,1.5,1.0,0.25,1.25,2.0,1.0,0.5,0.02,0.14,1.02,246.85,9.7,17.1,1.5,0.25,1.25,0.0,0.0,0.75,1.0,0.75,0.0,0.25,0.25,0.25,0.5,0.27,0.14,0.89,101.17,-13.3,20.9
7.08,1.75,1.25,2.25,1.0,4.25,0.0,1.25,1.0,0.5,1.25,1.75,1.0,0.25,-0.05,0.14,1.02,249.47,10.0,20.0,1.25,0.0,1.75,0.0,0.0,1.25,1.0,0.0,0.0,0.0,0.0,0.0,0.25,0.27,0.2,0.83,91.72,-19.4,51.0
7.1,1.5,1.0,2.5,0.5,4.25,0.25,1.25,1.0,0.5,1.25,2.25,1.5,0.5,-0.11,0.14,0.95,252.92,9.1,9.7,1.25,0.25,1.5,0.5,0.25,1.25,1.0,0.5,0.0,0.25,0.5,0.0,0.75,0.2,0.2,0.89,96.39,-11.0,23.2
7.12,1.5,1.0,2.25,0.5,4.25,0.25,1.25,1.0,0.25,1.25,2.0,2.0,0.5,-0.11,0.14,1.02,254.86,8.6,7.4,0.0,0.0,2.25,0.0,0.0,0.0,1.5,0.5,0.0,0.0,0.0,0.0,0.25,0.08,0.33,0.83,82.7,-26.3,29.8
7.14,1.75,1.0,2.25,0.5,4.25,0.25,1.0,1.0,0.25,1.25,2.25,2.5,0.5,0.02,0.08,0.95,258.54,8.8,4.3,1.25,0.25,2.0,0.0,0.0,1.25,1.0,0.5,0.0,0.0,0.5,0.0,1.25,0.27,0.27,0.89,93.58,-12.2,16.3
7.16,2.0,0.75,2.25,0.5,4.25,1.0,1.0,1.0,0.5,1.25,2.25,2.5,0.5,0.02,0.08,0.95,263.72,8.0,4.7,0.0,0.0,2.0,0.0,0.0,0.0,1.0,0.0,0.0,0.0,0.0,0.0,0.25,0.33,0.02,1.02,75.88,-32.5,39.5
7.18,1.75,0.0,2.25,0.75,4.25,1.0,1.0,1.0,0.5,1.5,2.25,2.5,0.75,0.08,0.08,1.02,266.64,7.0,-1.9,0.0,0.0,0.0,0.0,0.0,0.0,1.0,0.0,0.0,0.0,0.0,0.0,0.5,0.27,-0.23,1.39,52.78,-8.5,-43.7
7.2,1.75,0.0,2.25,0.5,4.25,1.0,1.0,1.0,0.5,1.25,2.25,2.5,1.0,0.14,0.08,1.02,267.54,6.9,-3.2,1.25,0.25,1.5,0.0,0.25,1.25,1.0,0.75,0.0,0.75,0.5,0.25,1.25,0.14,-0.05,0.7,66.29,-6.6,1.3
7.22,1.75,0.25,2.25,0.75,4.25,0.75,1.0,0.75,0.25,1.25,2.0,2.5,1.0,0.14,0.08,1.02,265.28,7.7,0.3,0.0,0.0,1.25,0.0,0.0,0.0,1.0,0.75,0.0,0.0,0.5,0.0,1.25,0.14,0.08,0.89,64.91,-9.2,-26.9
7.24,1.5,0.5,1.75,0.5,4.25,1.0,1.0,1.0,0.5,1.0,2.25,2.25,1.0,0.14,0.08,1.02,261.31,6.1,-1.0,0.0,0.0,0.5,0.0,0.0,0.0,1.0,0.0,0.0,0.0,0.0,0.0,0.5,0.14,0.08,0.89,54.56,-18.6,-7.9
7.26,2.0,1.0,2.25,0.25,4.25,1.0,1.0,0.75,0.5,0.5,2.25,2.5,1.25,0.27,0.02,0.89,262.3,8.3,4.3,0.0,0.0,0.0,0.0,0.0,1.25,0.75,0.0,0.0,0.5,0.0,0.25,0.5,0.08,0.02,0.89,42.36,10.0,-25.5
7.28,1.75,0.75,2.25,0.5,4.25,1.0,1.0,0.5,0.5,0.5,2.25,2.5,1.0,0.33,0.02,0.95,261.42,8.7,4.7,1.25,0.25,1.5,0.0,0.25,2.0,1.0,0.5,0.0,0.25,0.0,0.25,1.25,-0.05,0.02,0.83,65.72,-5.9,15.1
7.3,1.75,0.75,2.25,0.25,4.25,1.0,1.0,1.0,0.5,0.5,2.25,2.5,1.0,0.33,0.08,0.89,261.91,7.9,2.9,1.0,0.0,1.25,0.0,0.5,0.5,1.0,0.0,0.0,0.5,0.0,0.5,1.25,0.02,0.02,0.89,75.95,-10.5,-0.6
7.32,1.75,1.0,2.25,0.5,4.25,0.75,1.0,1.0,0.25,1.0,2.25,2.5,1.0,0.2,0.08,0.77,263.35,7.8,3.0,1.0,0.0,1.25,0.25,0.5,1.0,1.0,0.0,0.0,0.25,0.5,0.5,1.25,0.27,0.08,0.64,95.98,-9.5,1.4
7.34,1.75,1.25,2.25,0.5,4.25,1.0,1.0,1.0,0.5,1.25,2.25,2.5,1.25,0.02,0.14,0.77,269.5,7.0,1.7,1.0,0.0,1.25,0.0,0.5,1.25,1.0,0.5,0.25,1.25,0.5,0.5,1.25,0.52,0.02,0.7,113.46,-4.0,-11.6
7.36,1.75,1.0,2.25,0.5,4.25,0.25,1.0,1.0,0.5,1.25,2.25,2.5,1.25,0.02,0.2,1.02,270.84,8.0,-0.6,1.0,0.25,1.25,0.0,0.25,1.5,1.0,0.75,0.0,0.75,0.75,0.5,1.5,0.52,0.02,0.7,129.05,-3.8,-10.3
7.38,1.75,1.0,2.25,0.25,4.25,1.0,1.0,1.0,0.5,1.25,2.25,2.25,1.25,-0.11,0.2,0.89,272.41,6.8,1.1,0.75,0.0,1.25,0.0,0.25,0.25,1.0,0.75,0.0,0.5,0.75,0.5,1.25,0.2,0.02,0.7,124.81,-8.4,-19.8
7.4,1.25,0.75,2.0,0.5,3.5,1.0,1.0,1.0,0.5,1.5,2.25,2.0,1.25,-0.48,0.2,0.83,265.67,5.8,-4.6,1.0,0.25,1.25,0.0,1.0,1.25,1.0,0.75,0.25,1.25,0.75,0.5,1.25,0.02,0.02,0.77,139.94,-3.5,-7.2
7.42,1.75,1.25,2.5,0.75,4.25,0.75,1.0,1.0,0.5,1.25,2.5,1.75,1.25,-0.73,0.27,0.83,269.37,7.8,5.9,1.0,0.25,1.5,0.0,0.5,1.0,0.0,0.75,0.0,1.25,1.25,0.5,1.75,-0.11,0.08,0.83,145.2,-3.2,-19.7
7.44,1.5,1.0,2.25,0.5,4.25,0.75,1.0,1.0,0.5,1.5,2.25,1.75,1.25,-0.86,0.27,0.77,267.94,6.6,2.2,0.5,0.0,1.5,0.75,1.25,1.25,1.0,0.75,0.25,2.5,1.5,0.5,2.0,-0.05,0.27,1.39,165.04,-1.1,-22.5
7.46,1.5,1.25,2.25,0.25,4.25,1.0,1.0,1.0,0.5,2.0,2.0,2.0,1.25,-0.8,0.27,0.77,271.98,5.6,0.7,0.0,0.0,1.25,0.0,0.5,1.5,1.0,0.75,0.25,0.0,1.75,0.5,1.25,0.02,0.2,1.14,162.37,-3.1,-23.2
7.48,1.75,1.25,2.25,0.5,4.25,0.75,1.0,1.0,0.5,2.0,2.5,2.5,1.25,-0.86,0.14,0.83,277.22,6.6,-2.1,0.0,0.25,1.0,0.0,0.5,1.25,1.0,0.75,0.5,0.75,1.5,0.0,1.0,0.08,0.14,0.95,155.2,-1.5,-19.3
