time,left pressure 0[N/cm虏],left pressure 1[N/cm虏],left pressure 2[N/cm虏],left pressure 3[N/cm虏],left pressure 4[N/cm虏],left pressure 5[N/cm虏],left pressure 6[N/cm虏],left pressure 7[N/cm虏],left pressure 8[N/cm虏],left pressure 9[N/cm虏],left pressure 10[N/cm虏],left pressure 11[N/cm虏],left pressure 12[N/cm虏],left acceleration X[g],left acceleration Y[g],left acceleration Z[g],left total force[N],left center of pressure X[mm],left center of pressure Y[mm],right pressure 0[N/cm虏],right pressure 1[N/cm虏],right pressure 2[N/cm虏],right pressure 3[N/cm虏],right pressure 4[N/cm虏],right pressure 5[N/cm虏],right pressure 6[N/cm虏],right pressure 7[N/cm虏],right pressure 8[N/cm虏],right pressure 9[N/cm虏],right pressure 10[N/cm虏],right pressure 11[N/cm虏],right pressure 12[N/cm虏],right acceleration X[g],right acceleration Y[g],right acceleration Z[g],right total force[N],right center of pressure X[mm],right center of pressure Y[mm]
0.02,0.25,1.0,2.5,1.5,0.0,2.0,3.25,4.0,4.75,5.25,3.5,3.25,4.25,-0.05,0.08,0.95,422.15,1.9,-39.7,5.0,0.0,2.0,2.75,2.25,2.0,0.75,0.0,1.0,0.0,0.0,0.0,0.0,0.52,0.45,2.39,276.13,-17.0,59.8
0.04,0.25,1.0,3.0,2.0,1.75,3.5,3.25,4.5,5.25,5.25,5.75,4.0,5.0,-0.05,0.08,0.95,517.86,1.7,-34.8,2.0,0.0,2.0,2.0,2.5,0.0,0.25,0.5,0.75,0.0,0.5,0.0,0.0,0.64,-0.98,1.39,182.18,-16.7,46.7
0.06,0.75,1.0,4.0,2.0,3.75,3.25,3.75,5.75,6.25,6.75,7.25,5.25,5.75,-0.05,0.08,0.95,659.66,2.1,-33.2,0.75,0.0,1.5,1.5,2.25,0.0,0.25,0.5,0.75,0.0,0.0,0.0,0.0,2.08,-1.17,1.89,72.77,-13.6,44.7
0.08,0.75,1.0,3.75,2.25,3.0,3.25,4.0,6.0,6.75,7.25,7.75,5.75,6.5,-0.05,0.08,0.95,803.89,2.0,-37.0,0.75,0.0,1.5,1.5,1.25,0.0,0.25,0.0,0.5,0.0,0.25,0.0,0.0,1.33,-0.98,1.02,0.0,-19.3,48.5
0.1,0.75,1.0,4.0,2.0,3.75,3.5,4.0,6.5,6.75,7.75,7.75,5.5,6.75,-0.05,0.08,0.95,929.59,1.5,-35.7,0.5,0.0,0.75,1.25,1.75,0.0,0.25,0.25,0.5,0.0,0.0,0.0,0.0,0.64,-0.61,0.64,0.0,-12.4,46.2
0.12,0.75,1.0,4.5,2.25,3.75,3.5,4.25,6.5,6.75,7.75,7.75,5.25,6.75,-0.05,0.08,0.95,1004.18,1.9,-34.0,0.5,0.0,1.0,1.25,1.25,0.0,0.25,0.5,0.5,0.0,0.0,0.0,0.0,0.2,-0.55,0.64,0.0,-13.9,42.2
0.14,0.75,1.0,4.75,2.25,5.75,4.0,4.5,6.25,7.0,7.5,7.75,5.25,6.5,-0.05,0.08,0.95,1044.6,2.0,-29.2,0.5,0.0,0.5,1.0,1.75,0.0,0.25,0.25,0.5,0.0,0.0,0.0,0.0,0.08,-0.48,0.83,0.0,-10.7,44.8
0.16,0.75,1.0,4.75,2.5,6.0,4.0,4.5,6.5,6.75,7.25,7.5,4.5,6.0,-0.05,0.08,0.95,1050.53,2.0,-26.3,0.5,0.0,0.0,1.0,1.5,0.0,0.25,0.5,0.5,0.0,0.0,0.0,0.0,-0.17,-0.36,1.14,0.0,-6.9,37.6
0.18,0.75,1.0,4.75,2.25,6.0,4.25,4.5,6.25,6.75,6.5,7.0,3.75,5.75,-0.11,0.08,0.95,1019.23,2.0,-23.9,0.5,0.0,0.25,0.5,1.75,0.0,0.25,0.25,0.5,0.0,0.0,0.0,0.0,-0.11,-0.17,1.2,0.0,-8.2,42.2
0.2,0.75,1.0,5.0,2.25,6.0,4.25,4.5,6.5,6.5,6.5,6.25,3.75,5.25,-0.05,0.08,0.95,984.8,2.1,-22.1,0.5,0.0,0.0,0.75,0.5,0.5,0.25,0.0,0.5,0.0,0.0,0.0,0.0,-0.05,-0.05,1.27,0.0,-9.2,42.0
0.22,0.75,1.0,4.75,3.0,6.0,4.25,4.5,6.5,6.5,5.75,6.25,2.5,4.75,-0.05,0.08,0.95,925.83,2.4,-17.8,0.5,0.0,0.0,0.25,1.5,0.25,0.25,0.25,0.5,0.0,0.0,0.0,0.0,0.08,0.14,1.39,1.84,-4.3,38.2
0.24,0.75,1.0,5.0,4.0,6.25,4.5,4.5,6.25,6.5,5.25,5.25,2.25,4.25,-0.05,0.08,0.95,878.04,2.9,-12.4,0.5,0.0,0.75,0.5,2.75,0.75,0.25,0.0,0.5,0.0,0.0,0.0,0.0,0.14,0.27,1.64,29.11,-6.0,48.1
0.26,1.0,1.0,5.0,4.75,6.25,5.0,4.75,6.5,6.5,5.25,5.5,2.25,3.25,-0.11,0.08,0.95,849.49,3.4,-9.1,0.5,0.0,0.0,0.5,1.25,0.0,0.25,0.0,0.5,0.0,0.0,0.0,0.0,0.14,0.52,1.83,48.29,-9.9,45.1
0.28,1.25,1.0,5.0,4.75,6.25,5.25,4.75,6.5,6.75,5.25,4.75,2.25,3.0,-0.05,0.08,0.95,826.99,3.4,-7.2,1.25,0.75,0.0,2.25,0.5,2.0,0.25,0.25,1.0,0.25,0.0,0.5,0.0,0.2,0.7,2.08,85.7,-6.5,34.3
0.3,1.75,1.25,5.0,4.75,6.25,5.5,4.75,6.75,6.75,5.25,4.75,1.75,3.0,-0.05,0.08,0.95,820.5,3.4,-4.9,1.0,0.75,1.75,2.25,4.5,1.75,0.75,0.75,1.0,0.25,0.75,0.5,0.5,0.39,1.33,2.08,151.33,-6.5,30.1
0.32,1.75,1.5,5.25,5.5,6.5,6.0,4.75,6.75,6.75,5.0,4.5,1.5,2.75,-0.05,0.08,0.95,833.54,3.7,-1.1,1.5,0.75,1.75,2.0,4.75,2.0,0.75,0.75,1.0,0.0,0.75,0.5,0.5,0.39,2.2,2.14,210.2,-6.8,33.5
0.34,2.0,1.75,5.5,6.5,7.75,6.75,5.0,7.0,6.75,4.75,4.75,1.5,2.25,-0.05,0.08,0.95,877.48,4.0,3.4,1.25,0.75,1.75,2.25,5.0,2.0,0.75,0.75,1.0,0.25,0.75,0.5,0.5,0.33,2.95,1.52,252.22,-6.1,31.8
0.36,2.5,2.5,5.75,7.0,8.0,6.75,5.0,7.25,6.75,4.25,4.0,1.0,2.0,-0.05,0.08,0.95,925.84,4.6,9.1,1.5,0.75,1.5,2.0,4.25,2.0,0.75,0.75,1.0,0.0,0.75,0.5,0.5,-0.05,3.83,0.58,269.99,-6.7,32.4
0.38,2.5,2.5,6.0,8.5,8.75,7.75,5.0,7.5,6.5,4.25,2.75,1.0,1.75,-0.11,0.08,0.95,987.96,4.3,13.6,1.25,0.75,1.75,2.0,2.5,2.25,0.25,0.25,1.25,0.25,1.0,0.5,0.5,-2.48,5.64,0.64,267.79,-7.9,26.7
0.4,4.25,2.5,6.5,10.5,9.5,8.25,5.0,7.5,5.5,3.25,2.5,0.75,1.75,-0.11,0.08,0.95,1065.85,5.6,21.0,1.25,0.75,1.25,1.5,4.5,2.0,0.5,0.75,0.0,0.25,0.75,0.0,0.5,-2.3,3.39,-0.36,257.43,-4.0,38.3
0.42,5.5,3.75,6.5,13.0,12.0,8.5,4.75,6.75,4.5,3.25,2.5,0.75,1.5,-0.11,0.14,0.95,1183.75,6.3,28.1,0.0,0.0,0.0,0.0,0.5,0.25,0.25,0.75,0.5,0.0,0.0,0.0,0.0,-0.36,-0.61,3.2,194.6,4.5,-2.6
0.44,6.5,4.0,7.5,14.5,13.0,8.75,4.5,5.75,2.5,3.0,2.5,0.75,1.25,-0.05,0.14,1.02,1298.06,7.4,34.3,1.0,0.75,0.0,1.5,4.5,2.0,0.25,1.0,0.0,1.75,1.0,2.5,2.5,-0.61,0.83,1.45,208.13,1.7,-10.0
0.46,7.25,4.5,8.0,15.5,14.0,8.5,4.25,4.75,1.5,3.0,2.5,0.75,1.0,-0.11,0.14,1.14,1374.07,8.3,38.5,0.75,0.75,1.5,1.5,4.5,2.25,0.25,2.25,1.75,4.75,3.25,5.0,4.5,-0.23,0.52,2.89,273.32,0.5,-33.4
0.48,8.0,5.5,9.0,14.5,14.0,8.25,3.25,3.25,1.25,3.0,2.25,0.75,1.25,-0.11,0.2,1.14,1416.3,9.2,41.7,0.75,0.0,0.0,0.0,4.75,1.25,0.25,3.25,0.0,6.0,4.25,6.25,4.75,-0.05,0.52,1.52,358.13,4.1,-53.2
0.5,9.0,5.75,9.5,14.5,14.0,7.25,1.75,3.0,1.25,3.0,2.25,0.75,1.25,-0.23,0.2,1.33,1435.07,10.0,43.2,2.0,0.0,2.0,1.25,5.25,2.25,0.0,5.0,3.75,6.5,6.75,6.5,6.0,0.02,0.33,1.08,516.34,0.0,-40.3
0.52,9.5,6.5,9.75,13.0,12.0,6.0,0.0,2.25,1.25,3.0,2.0,0.5,0.75,-0.23,0.27,1.33,1400.04,11.4,47.0,1.5,1.0,2.0,2.25,4.75,3.25,1.25,5.5,1.75,6.75,7.0,6.5,6.5,0.08,0.2,0.95,654.7,0.5,-36.6
0.54,8.5,6.0,9.75,10.0,9.5,4.5,0.0,1.0,0.5,1.25,1.75,0.5,0.25,-0.23,0.33,1.52,1270.56,14.0,54.0,1.75,0.75,2.0,2.5,4.75,3.5,1.25,5.5,4.0,7.0,6.75,6.5,6.5,0.08,0.14,0.95,774.5,0.0,-36.0
0.56,9.25,5.75,8.75,7.5,8.0,3.25,0.0,1.0,1.0,3.0,1.0,0.5,1.0,-0.36,0.58,1.95,1078.62,13.7,48.6,1.75,0.75,2.0,2.5,4.75,3.75,1.5,5.75,4.5,6.5,6.75,6.25,6.0,0.08,0.14,0.89,841.52,-0.2,-34.1
0.58,8.5,4.75,8.0,5.75,6.5,1.75,0.0,1.25,1.25,3.0,2.0,0.5,1.75,-0.67,0.83,2.39,879.28,13.9,40.2,1.75,1.0,2.25,2.75,4.75,4.0,1.75,6.0,5.0,6.5,7.25,6.25,6.0,0.08,0.14,0.95,903.43,-0.6,-32.6
0.6,7.0,4.0,6.5,4.75,6.25,1.75,0.5,1.0,1.0,2.5,2.0,0.5,1.0,-0.98,0.83,2.52,703.16,13.5,40.9,1.75,1.0,1.75,2.75,5.0,4.5,2.0,6.0,5.0,6.5,7.5,6.0,6.0,0.08,0.14,0.95,932.0,-0.1,-32.1
0.62,6.0,2.5,4.5,1.5,6.0,0.0,0.75,1.75,1.0,2.5,1.5,0.75,1.0,-0.67,0.58,2.7,520.18,12.3,31.8,1.75,1.0,1.75,2.75,4.75,4.25,2.0,6.0,5.25,6.5,7.25,6.0,6.0,0.08,0.14,0.95,943.68,-0.2,-32.7
0.64,4.25,1.0,3.0,0.0,5.75,0.25,0.5,1.0,0.5,2.25,1.25,0.5,0.0,-0.36,-0.23,2.7,352.82,10.7,32.6,1.75,1.25,2.5,2.75,5.5,4.5,2.25,6.25,5.25,6.25,6.75,5.5,5.75,0.08,0.14,0.95,940.88,-0.6,-27.5
0.66,2.5,1.0,1.0,0.75,4.25,0.0,0.0,0.75,0.75,2.75,1.25,0.5,1.0,-0.55,-0.92,1.52,236.33,5.1,10.4,2.0,1.0,2.25,2.75,5.75,4.5,2.5,6.75,5.5,5.75,6.75,4.5,5.0,0.08,0.14,0.95,917.0,-0.7,-24.4
0.68,1.25,0.75,3.0,0.0,3.0,0.0,0.0,1.0,0.75,2.0,1.25,0.75,1.0,-0.92,-1.23,1.64,144.57,8.1,3.9,2.0,1.25,3.0,2.75,6.25,4.75,2.5,6.75,5.5,5.0,6.0,3.75,4.5,0.08,0.14,0.95,863.66,-1.2,-18.1
0.7,0.75,0.0,3.0,0.0,3.5,0.0,0.0,1.5,0.25,1.5,1.25,0.5,1.0,-0.42,-1.11,1.52,82.05,6.2,2.4,2.0,1.25,3.5,3.0,6.5,5.5,2.5,6.75,5.5,5.0,5.25,3.25,3.5,0.08,0.14,0.95,825.02,-1.4,-12.4
0.72,1.25,1.0,2.25,0.5,3.0,0.25,0.0,1.5,1.0,2.0,1.25,1.25,1.0,-0.42,-0.73,0.89,71.22,5.9,-0.3,2.0,1.5,3.0,4.0,6.75,5.75,2.75,6.75,5.5,3.75,4.75,2.25,2.75,0.08,0.14,0.95,793.7,-1.8,-4.9
0.74,1.25,1.0,3.0,1.75,2.5,1.75,0.5,1.0,1.0,1.5,1.75,0.5,1.0,-0.42,-0.48,0.39,97.59,7.7,13.0,2.0,1.5,4.0,5.0,7.0,6.0,3.0,6.75,5.5,3.5,4.5,2.0,2.5,0.08,0.14,0.95,776.0,-2.8,-0.1
0.76,1.25,1.0,2.75,1.0,3.5,1.75,0.5,1.0,0.75,2.0,1.75,0.75,1.0,-0.36,-0.36,0.45,139.74,5.6,9.7,2.0,1.75,4.25,5.0,7.75,6.0,3.0,6.75,5.5,3.5,4.0,2.0,1.75,0.08,0.14,0.95,778.78,-3.1,3.7
0.78,0.75,0.75,2.0,0.25,4.75,1.5,0.25,1.0,1.0,1.25,1.25,0.0,1.0,-0.42,-0.36,0.77,165.52,2.7,15.6,3.0,1.75,4.0,6.75,8.0,6.25,3.0,6.75,5.5,2.25,3.25,1.25,1.5,0.08,0.14,0.95,791.56,-4.2,12.6
0.8,0.75,0.75,0.0,0.0,2.25,0.0,0.0,0.75,0.25,0.5,0.25,0.0,0.0,-0.48,-0.36,0.95,131.43,1.8,32.6,3.25,1.75,5.0,7.0,8.25,7.0,2.75,6.75,5.0,2.0,3.25,1.0,1.5,0.08,0.14,0.95,814.16,-4.6,16.0
0.82,0.75,0.75,0.25,0.0,1.75,0.0,0.0,0.0,0.25,0.5,0.5,0.0,0.0,-0.48,-0.23,0.89,91.5,7.5,37.1,4.5,1.75,5.25,8.75,9.25,7.0,2.75,6.0,5.0,1.75,3.0,0.75,1.5,0.08,0.2,0.95,857.67,-5.9,22.0
0.84,0.75,0.5,1.0,0.0,2.5,0.0,0.0,0.0,0.5,0.5,0.0,0.0,0.0,-0.61,-0.05,0.89,63.59,9.6,45.7,5.5,2.0,6.25,10.5,10.5,7.0,2.5,6.0,4.5,1.75,2.75,0.75,1.5,0.08,0.2,0.95,933.82,-6.9,26.8
0.86,1.5,1.0,0.5,0.0,1.75,0.0,0.0,0.75,1.0,0.75,0.5,0.0,0.0,-0.55,0.02,1.02,68.95,8.5,27.5,6.75,2.5,6.25,12.0,11.0,7.25,2.5,5.5,3.25,1.75,2.25,0.75,1.25,0.08,0.2,0.95,1017.8,-7.7,32.8
0.88,0.75,0.5,0.25,0.0,2.25,0.0,0.25,0.0,0.25,0.5,0.0,0.0,0.0,-0.42,0.08,1.27,66.98,6.3,46.6,7.5,2.5,7.5,14.0,12.5,7.5,2.25,5.0,2.5,1.75,2.25,0.75,1.0,0.08,0.2,0.95,1124.58,-8.6,37.2
0.9,0.5,0.75,0.25,0.0,1.75,0.0,0.5,0.5,0.25,0.5,0.25,0.0,0.0,-0.36,0.2,1.58,67.62,5.0,31.9,8.0,3.0,7.75,15.5,13.5,7.75,2.0,3.75,1.75,1.0,2.0,0.75,1.0,0.02,0.2,0.95,1218.09,-9.4,42.7
0.92,0.75,0.0,0.5,0.0,0.0,0.0,0.25,0.5,0.25,0.5,0.0,0.0,0.0,-0.36,0.39,1.89,44.9,13.5,14.1,8.75,2.5,8.5,15.0,15.5,7.75,1.25,3.5,1.25,0.75,1.0,0.5,1.0,0.02,0.2,1.02,1290.28,-9.5,46.9
0.94,0.25,0.0,1.25,0.0,0.0,0.0,0.5,0.0,0.25,0.5,0.0,0.0,0.0,-0.42,0.58,2.45,24.22,24.0,24.1,9.5,4.0,8.75,0.0,17.0,8.0,0.25,2.5,0.0,0.25,0.75,0.5,0.75,0.08,0.2,1.08,1202.09,-7.9,52.3
0.96,0.0,0.0,0.25,0.0,0.0,0.0,0.25,0.25,0.25,0.5,0.5,0.0,0.0,-0.48,1.02,2.52,2.5,5.3,-40.1,10.5,4.25,9.0,16.5,17.0,7.75,0.25,2.25,0.5,0.0,0.75,0.0,0.75,0.02,0.27,1.14,1263.49,-10.9,55.7
0.98,0.0,0.25,0.75,0.0,2.5,0.0,0.75,0.75,0.25,0.5,0.0,0.0,0.0,0.39,2.83,-0.05,19.89,3.0,27.8,11.5,4.75,9.0,15.5,16.5,7.0,0.25,1.0,0.5,0.0,1.0,0.0,0.75,0.14,0.33,1.2,1289.12,-12.1,58.0
1.0,0.0,0.25,0.25,0.0,0.0,0.0,0.0,0.5,0.25,0.5,0.0,0.0,0.0,-0.11,4.14,2.27,18.82,0.0,-14.4,10.5,2.75,8.5,13.0,13.0,6.0,0.0,0.75,0.5,0.0,0.0,0.0,0.25,0.2,0.39,1.33,1239.59,-13.2,60.8
1.02,0.25,0.25,0.75,0.0,0.75,0.25,0.5,0.5,0.5,0.5,0.0,0.0,0.0,0.14,5.14,1.7,39.02,7.3,19.5,10.5,3.5,9.0,10.5,12.0,4.5,0.0,0.75,0.5,0.0,0.75,0.0,0.0,0.2,0.45,1.64,1125.3,-14.7,61.4
1.04,0.75,0.5,1.75,1.0,3.0,0.5,0.5,0.25,0.5,0.5,0.0,0.0,0.0,3.52,7.39,-1.73,81.97,10.2,45.5,10.0,3.0,7.5,8.75,8.25,0.0,0.25,0.0,0.0,0.0,0.25,0.0,0.25,0.45,0.83,2.2,907.5,-20.0,68.1
1.06,0.0,1.0,0.25,0.25,2.5,1.0,0.5,1.0,0.5,1.5,0.75,0.5,1.0,0.02,-1.67,-1.05,119.02,-2.9,-6.1,8.25,1.75,6.0,6.0,5.5,2.5,0.25,0.0,0.25,0.0,0.0,0.0,0.0,0.77,1.39,2.7,666.94,-18.3,67.2
1.08,0.75,1.0,1.5,1.0,2.5,1.75,1.0,2.5,1.0,3.0,2.0,1.25,3.0,0.2,0.45,2.39,195.48,-0.2,-19.6,6.5,1.0,2.75,2.75,3.75,0.0,0.0,0.0,0.25,0.0,0.0,0.0,0.0,0.58,1.2,2.95,407.01,-21.3,72.3
1.1,0.75,0.0,1.5,0.0,0.0,0.25,0.5,2.25,1.0,3.5,2.25,2.5,3.0,0.33,0.27,1.52,238.52,0.4,-57.4,4.0,0.0,1.5,2.5,3.5,0.5,0.0,0.0,0.0,0.0,0.0,0.0,0.0,0.45,-0.11,3.08,254.63,-16.9,67.9
1.12,0.0,1.0,1.75,0.25,0.0,2.5,1.0,5.75,2.0,5.0,4.0,4.5,5.75,0.2,0.83,2.02,335.3,-3.1,-54.3,3.0,0.75,0.0,2.75,2.5,2.25,0.0,0.0,0.5,0.0,0.0,0.0,0.0,0.2,-0.86,1.77,136.88,-8.7,60.6
1.14,0.5,1.0,0.25,2.25,0.0,3.5,1.75,6.25,3.0,6.75,5.0,5.25,5.5,-0.05,0.27,1.02,452.15,-3.0,-49.8,0.75,0.0,0.0,1.25,3.0,1.0,0.0,0.0,0.5,0.0,0.0,0.0,0.0,0.52,-0.73,1.95,34.62,-2.8,49.6
1.16,0.0,1.0,3.0,2.25,4.25,4.0,2.5,6.75,4.0,7.25,6.0,5.25,6.0,-0.11,0.14,0.95,637.85,-0.9,-34.9,0.5,0.0,0.25,1.0,2.75,0.0,0.0,0.0,0.5,0.0,0.0,0.0,0.0,0.52,-1.11,2.27,0.0,-7.2,50.1
1.18,0.5,1.0,3.5,2.5,5.0,4.25,3.75,7.5,4.5,8.0,6.5,6.0,6.5,-0.05,0.14,0.95,815.99,-0.1,-32.9,0.5,0.0,0.0,1.75,2.25,0.5,0.0,0.0,0.5,0.0,0.0,0.5,0.0,0.58,-1.23,0.77,0.0,-6.1,36.7
1.2,0.75,1.0,4.25,3.0,4.75,4.5,4.25,7.5,5.0,8.5,7.0,6.0,6.75,-0.11,0.08,0.95,979.66,0.6,-31.4,0.25,0.0,0.25,0.5,2.75,0.0,0.0,0.0,0.5,0.0,0.0,0.0,0.0,0.52,-0.67,0.7,0.0,-4.8,46.9
1.22,0.75,1.0,4.75,3.5,5.0,5.0,4.25,8.0,5.0,9.0,7.25,6.0,6.75,-0.05,0.08,0.95,1096.38,0.6,-29.7,1.25,0.75,2.25,2.5,4.75,1.75,0.25,0.75,0.5,0.0,0.75,0.5,0.5,0.27,-0.36,0.52,0.0,-7.6,36.4
1.24,0.75,1.0,4.5,3.0,4.75,5.25,4.25,8.0,5.25,9.0,7.25,6.0,6.75,-0.11,0.08,0.95,1162.79,0.3,-30.9,0.75,1.0,1.75,2.25,4.5,2.0,0.25,0.75,0.75,0.0,0.75,0.5,0.5,0.02,-0.11,0.52,77.84,-5.6,33.0
1.26,0.75,1.0,3.25,3.75,6.25,5.25,4.25,8.0,5.25,8.25,6.75,5.5,6.75,-0.11,0.08,0.95,1174.85,-0.2,-27.9,1.25,0.75,1.75,2.0,4.5,2.0,0.25,0.75,0.5,0.0,0.5,0.75,0.5,-0.05,0.02,0.64,152.49,-6.0,33.9
1.28,0.75,1.0,4.0,4.0,6.0,5.5,4.25,8.0,5.25,8.0,6.75,5.25,6.25,-0.11,0.08,0.95,1156.4,0.3,-25.4,0.75,0.75,1.5,1.5,4.5,2.0,0.25,0.75,0.5,0.0,0.0,0.5,0.75,-0.05,0.08,0.83,191.53,-3.5,34.1
1.3,0.75,1.0,4.25,4.5,6.25,5.5,4.25,8.0,5.25,7.75,6.25,4.0,5.75,-0.11,0.08,0.95,1122.85,0.5,-21.0,1.0,1.0,1.5,1.5,4.5,2.0,0.25,0.5,0.5,0.25,0.0,0.5,0.5,0.02,0.08,1.02,215.68,-4.5,38.2
1.32,1.0,1.0,4.5,4.5,6.25,5.5,4.25,7.75,5.25,7.0,6.0,3.75,5.25,-0.11,0.08,0.95,1070.7,1.1,-18.1,0.75,1.0,1.75,1.75,4.5,1.75,0.25,0.75,0.5,0.25,0.0,0.5,0.5,0.08,0.2,1.2,227.17,-4.9,36.8
1.34,1.0,1.0,4.5,4.75,6.25,5.5,4.0,8.0,5.25,6.5,5.5,3.0,5.0,-0.11,0.08,0.95,1017.8,1.1,-15.5,1.0,0.75,1.75,1.5,4.5,1.25,0.5,0.75,0.5,0.25,0.25,0.75,0.5,0.14,0.33,1.45,232.27,-6.3,32.0
1.36,1.0,1.0,4.75,4.75,6.25,6.0,4.25,7.75,5.25,5.75,5.25,2.25,4.25,-0.11,0.08,0.95,947.3,1.5,-11.0,0.75,0.75,1.25,1.5,4.5,0.0,0.25,0.75,0.5,0.25,0.75,0.5,0.5,0.27,0.45,1.7,227.73,-7.1,28.2
1.38,1.0,1.0,4.5,4.75,6.25,6.0,4.5,7.5,5.25,5.25,4.75,2.25,3.0,-0.11,0.08,0.95,881.85,1.9,-7.6,1.0,0.5,1.25,1.5,4.25,1.25,0.5,0.75,0.5,0.0,0.75,0.5,0.5,0.39,0.77,2.2,225.36,-5.7,29.9
1.4,1.25,1.0,5.0,4.75,6.5,6.25,4.25,7.5,5.5,5.25,4.5,2.25,3.0,-0.11,0.08,0.95,839.79,2.2,-5.9,0.75,0.5,1.75,1.5,4.5,1.0,0.5,0.75,0.5,0.25,0.75,0.5,0.75,0.7,1.45,2.64,221.44,-6.0,26.0
1.42,1.75,1.25,5.0,5.75,7.5,6.75,4.5,7.5,5.5,5.25,4.5,2.25,3.0,-0.11,0.08,0.95,843.2,2.5,-2.0,0.75,0.5,1.5,1.75,4.5,1.25,0.5,0.5,0.5,0.0,0.75,0.25,0.5,0.89,2.58,2.89,215.57,-6.2,34.1
1.44,2.0,1.0,5.25,6.5,7.5,6.75,4.75,7.25,6.0,4.75,4.25,1.75,2.75,-0.11,0.08,0.95,863.01,3.3,1.2,0.75,0.75,1.5,1.75,4.25,1.25,0.5,0.0,0.5,0.0,0.75,0.5,0.5,0.64,3.58,-0.11,208.81,-7.4,35.0
1.46,2.5,1.25,5.75,6.75,8.0,7.0,5.0,7.25,6.0,4.25,4.0,1.5,2.25,-0.11,0.08,0.95,896.7,4.1,6.2,0.75,0.0,1.0,1.5,4.5,1.5,0.25,0.75,0.5,0.0,0.75,0.5,0.5,0.64,5.58,-0.92,196.61,-3.3,25.9
1.48,2.5,1.75,6.0,8.0,8.75,7.25,5.0,7.25,6.0,4.25,3.25,1.25,2.0,-0.11,0.08,0.95,941.61,4.4,10.9,0.75,0.75,0.75,1.5,3.75,1.5,0.5,0.75,0.5,0.25,0.75,0.75,0.5,-2.36,6.45,-1.55,195.21,-3.6,23.3
1.5,3.5,2.25,6.5,10.0,9.25,7.75,5.0,6.75,5.5,3.75,2.5,0.75,1.5,-0.11,0.08,0.95,998.32,5.6,19.8,0.75,0.75,2.0,1.5,4.25,2.25,0.25,0.0,0.5,0.0,0.75,0.75,1.0,-1.42,-1.55,1.83,203.26,-5.6,28.2
1.52,5.0,2.5,6.75,12.5,9.25,7.75,5.5,6.5,5.0,3.25,3.0,0.75,1.25,-0.11,0.08,0.95,1075.69,7.2,24.5,1.25,0.0,1.0,1.0,4.5,2.25,0.25,0.0,1.0,0.25,2.0,2.5,1.75,-0.05,1.95,3.33,221.41,-3.4,-4.5
1.54,5.75,2.5,8.0,14.0,11.5,7.75,5.5,5.75,4.25,3.0,2.75,0.75,1.0,-0.11,0.08,0.95,1179.74,8.2,30.1,0.75,1.0,0.0,0.0,2.25,2.75,0.25,0.75,2.5,4.5,3.25,4.5,2.5,0.08,0.33,1.58,263.81,1.6,-43.0
1.56,7.0,3.0,9.0,14.5,11.5,7.75,5.5,5.0,2.75,3.0,1.0,0.75,1.25,-0.11,0.14,1.02,1267.5,9.2,36.6,1.75,0.5,2.0,1.25,4.5,2.75,0.75,3.25,3.5,5.0,5.75,6.25,4.5,0.08,0.33,1.08,369.04,-1.4,-34.9
1.58,7.5,3.5,9.75,15.5,12.5,7.25,4.5,4.0,1.75,3.0,2.5,0.5,1.0,-0.05,0.14,1.08,1333.62,10.1,39.2,1.75,0.25,1.75,1.0,4.75,3.25,0.5,4.75,3.75,5.0,6.75,6.25,4.5,0.02,0.2,0.95,503.21,-0.3,-36.6
1.6,8.0,5.25,9.75,14.5,12.0,6.75,3.25,2.75,1.25,3.0,1.25,0.75,1.0,-0.11,0.2,1.2,1350.33,10.8,44.2,1.5,0.75,2.0,1.25,4.75,3.25,1.25,5.0,3.75,5.0,6.75,6.25,5.0,0.08,0.14,0.95,633.88,-0.6,-35.1
1.62,9.0,4.25,9.75,11.5,12.0,5.5,2.0,2.75,0.5,3.0,1.75,0.75,1.0,-0.23,0.2,1.33,1318.38,11.3,43.9,1.25,1.0,3.0,1.25,5.0,3.0,1.25,5.0,3.75,5.0,6.75,6.25,5.0,0.08,0.14,0.95,716.77,-1.4,-32.7
1.64,8.25,5.25,10.5,8.25,8.75,3.25,0.25,1.0,0.5,1.0,0.0,0.5,0.25,-0.17,0.27,1.39,1139.92,15.7,58.6,1.25,1.0,1.5,1.0,5.25,3.25,1.0,5.0,4.5,5.25,6.75,6.25,5.0,0.08,0.14,0.95,761.91,0.0,-35.9
1.66,8.25,4.25,8.25,6.0,6.5,3.0,0.25,0.75,1.0,3.0,0.25,0.75,0.0,-0.17,0.45,1.95,926.85,14.7,50.5,1.5,1.0,2.0,1.25,4.75,3.25,1.25,5.0,4.5,5.5,7.5,6.5,5.0,0.08,0.14,0.95,787.52,-0.8,-35.8
1.68,7.75,4.5,8.0,4.75,6.0,1.75,1.0,1.0,1.0,2.75,1.5,0.5,0.5,-0.8,0.7,2.52,745.07,15.2,45.7,1.75,1.0,2.0,2.25,4.75,3.5,1.25,5.25,5.0,6.25,7.5,6.5,5.0,0.08,0.14,0.95,820.1,-1.0,-33.6
1.7,6.0,2.75,6.75,3.75,5.5,1.75,1.25,2.25,1.0,3.0,1.5,0.5,1.0,-1.05,0.7,2.39,597.82,12.3,34.0,1.75,1.0,2.25,2.25,4.75,3.75,1.75,5.75,5.0,6.0,7.75,6.25,5.0,0.08,0.14,0.95,848.58,-1.1,-32.2
1.72,5.75,2.5,5.0,2.25,5.0,0.0,1.25,2.5,0.75,2.25,1.5,0.5,1.0,-0.61,0.33,2.39,465.31,13.0,32.4,1.75,1.0,1.75,2.75,5.0,4.25,1.75,6.0,5.5,5.75,7.75,6.25,5.0,0.08,0.14,0.95,867.34,-0.8,-31.1
1.74,4.25,1.0,3.0,0.0,5.25,1.75,1.5,1.0,0.5,2.0,1.5,0.5,1.0,-0.36,0.08,3.02,345.55,8.6,25.8,2.0,1.25,2.0,2.75,5.5,4.5,1.75,6.0,5.75,5.25,7.5,5.75,4.75,0.08,0.14,0.95,866.81,-1.2,-26.6
1.76,2.5,1.0,2.25,0.25,3.0,0.0,1.5,1.0,0.25,0.5,1.0,0.0,1.25,-0.48,-0.98,1.64,236.12,12.0,27.7,2.0,1.0,2.75,2.75,6.0,4.5,2.25,6.0,5.75,5.0,7.5,5.0,3.5,0.08,0.14,0.95,850.24,-2.1,-21.5
1.78,0.75,0.5,0.0,0.75,2.5,0.0,0.0,1.0,0.25,0.5,0.25,0.0,0.0,-0.8,-0.8,2.33,110.99,2.3,31.3,2.0,1.5,3.25,2.75,6.5,4.75,2.5,6.0,6.0,3.5,6.75,4.0,3.0,0.08,0.14,0.95,817.34,-2.9,-13.4
1.8,1.25,1.0,1.5,2.0,3.75,1.5,0.5,1.75,0.25,0.5,1.25,0.0,1.0,-0.67,-1.23,1.39,66.8,4.5,24.1,2.5,1.5,4.0,3.5,6.5,5.25,2.5,6.0,6.0,3.25,6.0,3.5,2.0,0.08,0.14,0.95,791.89,-4.0,-5.8
1.82,0.75,1.0,0.0,2.25,2.5,0.0,0.0,0.5,0.75,0.5,0.0,0.0,0.0,-0.48,-0.8,0.64,21.34,7.0,43.1,3.25,1.5,4.75,5.0,6.75,5.5,2.75,6.0,6.0,2.0,5.25,2.0,1.5,0.08,0.14,0.95,788.42,-5.6,5.8
1.84,1.0,1.0,0.75,1.0,0.5,0.0,0.75,1.5,0.25,1.25,1.25,0.0,1.25,-0.36,-0.55,0.45,24.75,5.5,-5.1,3.5,1.75,5.0,5.0,7.75,5.75,3.0,5.75,5.75,1.75,4.5,2.0,1.5,0.08,0.14,0.95,796.88,-5.8,10.1
1.86,0.25,0.75,1.0,2.0,2.5,0.0,0.75,0.75,0.25,0.5,1.25,0.25,0.0,-0.23,-0.48,0.64,34.46,9.0,24.4,4.75,1.75,5.25,6.75,8.25,6.0,3.0,5.0,5.5,1.5,3.5,1.5,1.5,0.08,0.14,0.95,819.67,-7.0,18.4
1.88,0.75,1.0,2.75,2.0,3.0,0.0,1.5,1.0,0.25,0.5,0.75,0.0,0.75,-0.17,-0.48,0.83,81.97,12.0,31.5,5.75,1.75,6.25,7.25,8.25,6.0,3.0,5.0,5.25,1.25,3.25,1.0,1.5,0.08,0.14,0.95,850.69,-8.2,23.2
1.9,0.75,1.0,1.0,2.0,0.0,1.75,0.5,0.25,0.5,1.75,1.0,0.5,1.5,-0.11,-0.36,0.89,100.2,4.1,-3.3,6.75,2.0,7.0,8.75,9.25,6.0,3.0,4.0,4.5,1.25,3.0,0.75,1.5,0.08,0.2,0.95,895.94,-9.5,29.6
1.92,0.75,1.0,2.5,2.0,2.25,1.75,1.5,0.5,0.5,1.75,1.25,0.5,1.0,-0.11,-0.23,0.89,147.72,7.2,13.9,7.5,2.25,7.5,10.5,9.75,6.0,3.0,3.75,3.75,1.0,2.5,0.75,1.0,0.08,0.2,0.95,948.42,-10.5,35.8
1.94,0.75,1.0,2.5,2.0,2.5,1.25,1.5,0.75,0.5,1.75,0.75,0.5,1.0,-0.11,-0.17,1.02,184.51,7.4,15.8,8.0,2.5,8.5,12.0,11.0,6.25,2.5,2.5,2.5,0.5,2.25,0.75,0.75,0.08,0.2,0.95,1007.36,-11.7,43.1
1.96,0.0,0.5,2.25,0.0,2.5,0.0,1.75,0.25,0.25,0.5,0.0,0.0,0.0,-0.11,-0.05,1.2,177.57,13.7,41.4,8.75,3.0,8.25,13.5,12.0,6.0,2.25,2.25,1.5,0.25,2.0,0.75,0.75,0.02,0.2,1.02,1065.77,-12.0,47.3
1.98,0.25,0.5,2.25,0.25,2.5,0.0,1.25,1.5,0.5,1.25,0.75,0.75,0.0,-0.17,0.02,1.45,176.94,8.0,8.0,10.5,2.75,9.0,13.5,13.5,6.5,0.75,2.0,1.0,0.25,1.5,0.75,0.75,0.02,0.2,1.02,1131.48,-12.1,50.7
2.0,0.75,1.0,1.0,2.0,0.0,1.25,0.5,1.0,0.75,1.75,1.25,0.5,1.0,-0.23,0.2,1.77,175.17,4.9,-4.5,10.5,3.5,9.0,0.0,14.0,5.75,0.25,1.0,0.0,0.0,1.0,0.5,0.75,0.02,0.27,1.02,1041.77,-11.6,56.3
2.02,0.0,0.0,2.0,0.0,2.25,0.0,1.5,0.5,0.25,0.5,0.0,0.0,0.0,-0.36,0.45,2.02,152.84,12.1,32.8,11.5,3.25,9.0,15.0,13.5,6.0,0.0,1.0,0.5,0.0,0.75,0.5,0.75,0.02,0.27,1.02,1079.73,-13.3,56.9
2.04,0.0,0.0,0.75,0.0,0.0,0.0,0.5,0.0,0.25,0.5,0.0,0.0,0.0,-0.48,0.89,2.77,99.42,18.4,3.6,12.5,3.75,9.25,12.0,13.5,5.0,0.0,0.75,0.5,0.0,0.75,0.0,0.0,0.08,0.33,1.08,1069.75,-14.6,62.1
2.06,0.75,0.25,0.5,0.0,2.5,0.0,0.5,0.25,0.5,2.0,0.0,0.5,0.0,-0.73,1.52,3.08,92.92,2.6,6.6,13.0,3.0,9.0,12.0,12.0,5.0,0.0,0.0,0.25,0.0,0.25,0.0,0.0,0.14,0.39,1.14,1070.17,-15.7,65.2
2.08,0.75,1.0,2.25,1.75,1.75,1.75,1.25,0.25,0.5,1.75,1.0,0.0,1.0,-0.8,4.45,2.02,120.37,7.0,17.2,11.5,3.25,8.5,10.5,11.0,4.5,0.0,0.0,0.0,0.0,0.0,0.0,0.0,0.2,0.39,1.2,995.48,-15.8,66.4
2.1,0.0,0.5,0.75,0.0,0.0,0.0,0.5,0.5,0.25,0.5,0.0,0.0,0.0,2.27,7.33,-1.42,97.73,11.0,13.7,11.5,4.0,8.5,10.5,9.25,4.5,0.0,0.0,0.25,0.0,0.5,0.0,0.0,0.2,0.52,1.33,933.34,-16.4,65.6
2.12,0.5,1.0,0.25,2.0,1.75,1.25,0.5,1.0,0.75,3.0,0.0,0.0,0.25,4.2,5.95,-1.86,125.53,-0.7,9.5,10.5,2.5,8.0,8.5,8.0,4.25,0.25,0.0,0.25,0.0,0.25,0.0,0.0,0.14,0.58,1.52,812.98,-16.8,65.4
2.14,0.75,1.0,0.5,0.75,2.5,1.75,0.25,0.75,0.5,0.75,0.5,0.5,0.5,-0.67,-0.11,3.33,136.32,1.0,18.7,9.0,2.0,7.25,7.0,6.25,2.0,0.25,0.0,0.0,0.0,0.25,0.0,0.0,0.39,1.08,2.45,666.91,-19.3,67.4
2.16,0.75,1.0,0.5,1.0,3.0,1.75,1.0,1.25,1.0,3.0,1.5,1.25,2.0,0.45,1.08,0.39,184.65,-0.8,-14.1,8.75,2.0,6.25,7.0,5.5,3.25,0.75,0.25,0.25,0.0,0.75,0.0,0.5,0.77,1.39,2.83,562.93,-17.0,60.3
2.18,0.0,1.0,1.75,1.75,0.0,3.0,0.75,2.25,2.0,7.25,1.5,5.0,4.75,-1.17,0.64,4.83,269.96,-2.4,-48.2,7.0,1.75,4.75,5.0,4.5,2.25,0.25,0.5,0.5,0.0,0.75,0.5,0.75,0.58,1.02,2.95,449.81,-16.1,53.3
2.2,0.0,1.0,2.25,2.25,2.25,3.5,0.75,6.25,3.5,6.5,6.0,5.25,6.5,0.27,0.83,1.58,430.36,-1.6,-42.9,5.25,1.0,2.0,3.0,4.75,2.5,0.25,0.75,0.5,0.0,0.75,0.5,0.75,0.52,-0.11,3.02,349.85,-10.9,45.8
2.22,0.0,1.0,3.0,2.25,4.25,4.25,3.0,6.75,4.25,7.75,6.5,5.5,6.0,-0.05,0.2,1.02,631.3,-0.7,-35.4,3.0,1.0,0.0,1.25,4.5,2.0,0.25,0.75,0.5,0.0,0.75,0.5,0.5,0.08,-0.73,1.08,257.98,-4.9,38.0
2.24,0.75,1.0,3.5,2.75,5.0,5.0,3.75,7.25,4.75,8.0,6.0,6.0,6.75,-0.11,0.14,0.95,835.24,-0.2,-31.2,2.0,1.0,1.75,2.75,4.5,2.25,0.25,0.5,0.5,0.0,0.75,0.0,0.5,0.52,-0.48,2.02,205.64,-7.7,44.3
2.26,0.75,1.0,4.25,3.0,6.75,5.25,4.0,7.75,5.0,8.5,6.75,6.0,6.75,-0.11,0.14,0.95,1013.68,0.1,-27.6,1.5,0.75,0.25,2.5,1.75,2.25,0.25,0.0,0.5,0.0,0.0,0.5,0.25,0.52,-1.11,1.89,122.36,-6.5,43.8
2.28,0.75,1.0,4.5,3.5,6.25,5.25,4.0,8.0,5.25,9.0,6.5,6.0,6.75,-0.11,0.08,0.95,1127.96,0.2,-27.6,1.75,1.0,1.5,2.5,4.5,2.0,0.25,0.75,0.5,0.0,0.0,0.5,0.5,0.52,-1.11,0.95,116.4,-6.6,42.6
2.3,0.75,1.0,5.0,4.0,6.25,5.5,4.25,8.0,5.5,8.75,6.25,5.25,6.75,-0.11,0.08,0.95,1186.07,0.6,-24.6,1.75,1.0,1.75,2.25,4.25,2.0,0.5,0.75,0.5,0.0,0.75,0.5,0.0,0.52,-0.73,0.64,124.26,-8.1,41.9
2.32,0.75,1.0,4.75,3.75,6.25,5.5,4.0,8.25,5.5,8.0,6.5,5.25,6.5,-0.11,0.08,0.95,1204.64,0.5,-24.7,0.5,0.0,0.5,1.5,2.75,1.25,0.5,0.25,0.5,0.0,0.0,0.0,0.0,0.27,-0.42,0.52,106.5,-4.4,45.1
2.34,1.0,1.0,4.75,4.5,6.25,5.75,4.25,8.25,5.25,7.75,6.25,4.0,6.0,-0.11,0.08,0.95,1202.76,0.7,-20.1,1.25,0.75,0.5,2.25,4.5,2.0,0.75,0.5,0.5,0.0,0.75,0.25,0.5,0.02,-0.17,0.58,119.39,-4.2,36.2
2.36,1.0,1.0,5.0,4.5,6.25,6.0,3.75,8.25,5.25,7.75,6.0,3.75,5.75,-0.11,0.08,0.95,1158.06,0.7,-18.9,1.25,0.75,1.75,2.25,4.5,2.0,0.5,0.75,0.5,0.0,0.25,0.5,0.5,-0.11,-0.05,0.7,144.85,-6.3,38.2
2.38,1.0,1.0,5.0,4.75,6.25,6.0,4.75,8.0,5.25,7.0,5.25,3.25,5.25,-0.11,0.08,0.95,1106.24,1.2,-15.2,1.25,1.0,1.5,1.75,4.25,2.0,0.75,0.5,0.5,0.0,0.75,0.5,0.5,-0.11,-0.05,0.83,174.76,-6.4,35.5
2.4,1.0,1.0,5.0,4.75,6.25,6.0,4.5,8.0,5.0,6.5,5.25,2.25,5.0,-0.11,0.08,0.95,1033.24,1.2,-12.7,1.25,0.75,1.0,1.75,4.25,2.0,0.75,0.5,0.75,0.0,0.25,0.75,0.5,-0.05,0.02,0.89,189.41,-5.2,33.4
2.42,1.0,1.0,5.0,4.75,6.5,6.25,4.25,8.0,5.0,6.5,5.0,2.25,4.25,-0.11,0.08,0.95,963.44,1.2,-10.7,1.25,0.75,1.75,1.5,4.5,2.0,0.75,0.5,0.75,0.0,0.75,0.5,0.5,0.02,0.08,1.02,212.69,-6.5,33.7
2.44,0.75,1.0,4.75,4.75,6.25,6.25,4.5,8.0,5.0,5.75,4.75,2.25,2.75,-0.11,0.08,0.95,891.08,1.5,-7.8,0.75,0.75,1.75,1.75,4.5,2.0,0.5,0.75,0.5,0.0,0.75,0.0,0.25,0.02,0.14,1.27,219.91,-5.4,39.5
2.46,1.25,1.0,5.0,4.75,6.5,6.5,4.25,8.0,5.0,5.25,4.75,2.25,3.0,-0.11,0.08,0.95,851.96,1.9,-6.1,0.75,0.75,0.25,1.25,2.5,2.0,0.75,0.75,0.5,0.0,1.0,0.5,0.5,0.08,0.33,1.52,207.24,-2.3,20.4
2.48,1.25,1.25,5.0,4.75,6.75,6.75,4.5,7.75,5.25,5.25,4.5,1.75,2.25,-0.11,0.08,0.95,824.75,2.1,-2.3,1.25,0.75,1.25,1.25,3.75,1.75,0.5,0.5,0.5,0.0,0.75,0.0,0.5,0.08,0.45,1.95,200.15,-5.8,37.7
2.5,1.5,1.25,5.0,4.75,7.75,6.75,4.5,7.75,5.25,5.25,4.25,1.5,2.75,-0.11,0.08,0.95,824.82,1.9,-1.0,1.0,0.75,1.5,1.25,4.5,1.25,0.75,0.5,0.5,0.0,0.75,0.5,0.5,0.14,0.77,2.33,200.62,-6.7,32.9
2.52,1.5,1.25,5.0,5.5,8.0,6.75,4.5,8.25,5.5,5.25,4.5,1.25,2.5,-0.11,0.08,0.95,843.23,2.1,0.1,1.25,0.75,1.75,1.25,4.5,1.75,0.5,0.5,0.5,0.75,0.75,0.5,0.5,0.33,1.2,2.83,207.79,-5.4,29.2
2.54,1.75,1.5,5.0,6.5,8.0,7.0,4.5,7.75,5.75,5.0,3.5,0.75,2.0,-0.11,0.08,0.95,864.61,2.6,5.8,0.5,0.0,1.5,0.0,4.25,0.25,0.5,0.5,0.5,0.0,0.75,0.5,0.0,0.64,2.27,3.52,192.32,-7.4,28.0
2.56,2.5,1.75,5.5,6.5,8.25,7.5,4.75,7.5,5.75,4.0,3.0,0.75,1.5,-0.11,0.08,0.95,886.53,3.7,11.7,0.5,0.0,1.25,0.0,4.5,1.25,0.5,0.5,0.5,0.0,0.75,0.0,0.5,0.14,2.89,1.7,182.82,-2.5,28.2
2.58,3.0,2.25,6.0,8.0,9.25,7.75,4.75,7.5,5.5,3.5,3.0,0.75,1.5,-0.05,0.08,0.95,931.71,4.5,16.4,0.5,0.25,0.0,1.25,3.0,2.0,1.0,0.75,0.5,0.0,0.75,0.5,0.5,-0.36,5.89,-0.23,160.85,-0.1,18.0
2.6,3.25,2.5,6.5,10.0,9.5,7.75,5.0,7.0,5.25,3.25,3.5,0.75,2.0,-0.11,0.08,0.95,1000.05,5.5,18.2,0.75,0.0,0.75,1.25,0.5,2.0,0.0,0.0,0.5,0.25,0.0,0.5,0.0,-4.17,7.58,-1.36,133.05,-5.8,29.9
2.62,4.75,2.5,7.75,12.5,9.75,7.75,5.5,6.5,4.75,3.25,3.5,0.75,1.25,-0.11,0.08,0.95,1099.43,7.5,24.6,0.75,0.5,0.0,1.25,1.75,2.0,0.25,0.75,0.5,0.0,0.75,0.25,0.75,-0.42,-1.8,3.33,125.69,0.0,16.3
2.64,6.0,2.5,9.0,14.0,12.0,7.75,5.75,5.75,3.5,3.0,2.5,0.75,1.25,-0.05,0.14,0.95,1217.04,8.5,31.5,0.75,0.25,0.75,1.25,4.5,0.0,0.25,0.75,0.5,0.0,0.75,1.25,1.5,0.95,0.83,2.33,140.56,-4.3,6.8
2.66,7.25,3.0,9.75,16.0,12.5,7.75,5.75,4.75,2.0,3.0,2.0,0.75,1.0,-0.11,0.14,1.02,1322.85,9.8,37.8,0.0,0.0,1.0,0.0,4.5,0.0,0.25,0.0,0.25,0.25,2.25,3.25,3.25,0.08,0.45,0.58,169.23,-2.0,-36.5
2.68,8.0,4.0,10.5,16.0,13.5,7.0,5.5,3.0,1.25,3.0,2.25,0.75,1.0,-0.05,0.14,1.14,1386.33,11.0,41.9,0.25,0.25,0.25,0.0,1.75,2.0,0.0,0.25,1.25,4.25,2.75,5.5,4.75,0.2,0.7,1.83,233.47,3.1,-63.2
2.7,7.75,4.0,11.0,13.5,13.5,5.5,4.25,3.0,0.75,1.25,1.25,0.5,1.25,-0.17,0.2,1.27,1377.15,12.0,46.8,0.0,0.25,0.5,0.0,2.25,2.25,0.0,3.75,2.5,5.75,5.25,6.0,6.0,0.02,0.27,1.2,331.91,3.8,-61.2
2.72,8.25,5.0,11.0,14.5,9.75,5.25,2.0,1.0,1.25,3.0,2.0,0.5,1.25,-0.17,0.27,1.33,1337.29,13.2,45.4,1.25,0.0,1.75,0.0,3.25,2.25,0.25,4.0,3.0,6.0,6.5,6.0,6.25,0.02,0.2,0.95,458.68,0.9,-50.6
2.74,9.75,5.0,12.5,12.5,8.25,3.25,0.25,2.0,1.0,3.0,1.75,0.5,0.5,-0.17,0.27,1.39,1250.68,15.4,48.3,0.5,0.0,0.0,0.0,2.75,2.25,0.25,4.25,2.5,5.0,5.25,6.0,5.75,0.08,0.2,0.95,540.67,3.8,-58.8
2.76,9.75,5.25,11.5,8.0,8.0,2.25,0.75,1.75,1.0,3.0,1.5,0.75,0.25,-0.17,0.39,1.77,1114.96,15.9,48.6,0.5,0.0,0.0,0.0,1.5,2.25,0.25,5.0,2.5,5.5,5.5,6.25,5.5,0.14,0.14,0.95,586.7,4.0,-63.4
2.78,9.25,4.0,10.5,6.5,6.25,1.75,1.75,2.5,1.0,3.0,1.75,0.5,1.0,-0.42,0.7,2.27,964.97,15.7,42.4,0.5,1.5,0.0,1.25,1.5,3.5,0.25,5.5,3.0,6.75,6.0,6.5,6.5,0.08,0.14,0.95,641.8,3.5,-52.4
2.8,8.0,3.75,9.0,4.75,6.25,1.75,2.0,2.0,0.75,2.75,1.25,0.5,1.0,-0.8,0.95,2.64,806.01,15.0,42.7,1.25,0.75,1.75,1.25,4.5,3.5,0.75,6.25,3.5,7.25,7.0,7.25,6.5,0.08,0.14,0.95,728.67,1.3,-42.3
2.82,6.75,2.5,7.5,4.5,6.0,1.75,1.75,2.0,1.0,2.75,1.25,0.5,1.0,-0.98,0.77,2.45,656.61,13.6,37.8,0.75,0.75,1.5,1.0,4.5,3.75,0.75,6.75,3.75,7.5,7.5,7.25,7.0,0.08,0.14,0.95,822.66,2.2,-45.3
2.84,5.75,1.5,5.75,2.5,5.75,1.75,1.25,1.25,0.75,2.25,1.25,0.5,0.5,-0.55,0.52,2.95,500.31,13.0,37.9,1.25,1.0,1.75,1.25,4.5,3.75,1.0,6.75,3.75,7.5,7.5,7.25,7.25,0.08,0.14,0.95,905.37,1.5,-42.5
2.86,2.75,0.0,4.5,0.0,4.75,0.0,1.75,1.0,0.25,0.5,1.25,0.5,0.5,-0.3,-0.98,2.02,332.31,15.1,32.1,1.0,0.75,1.75,1.25,4.5,3.5,0.75,6.75,3.75,7.75,7.5,7.25,7.0,0.14,0.14,0.95,934.66,1.7,-44.1
2.88,0.75,0.0,1.0,0.0,2.5,0.0,0.5,0.5,0.25,0.5,0.25,0.0,0.25,-0.67,0.14,1.58,183.55,7.2,27.1,1.25,0.75,1.75,1.25,4.5,4.0,1.0,6.75,3.5,7.5,7.5,7.25,7.0,0.08,0.14,0.89,932.41,1.6,-42.6
2.9,0.75,0.0,1.5,0.0,2.5,0.0,0.5,0.75,0.25,0.5,1.0,0.0,0.0,-0.42,-1.48,1.77,55.72,9.5,22.2,0.75,0.75,1.25,1.25,4.5,3.75,1.0,6.75,3.25,7.25,7.5,7.0,7.0,0.08,0.14,0.95,901.05,2.3,-44.7
2.92,0.75,0.25,1.5,1.0,2.5,1.75,0.75,1.75,0.75,2.0,0.5,0.5,1.0,-0.48,-0.86,1.27,11.57,0.8,1.2,0.75,1.0,1.75,1.25,4.75,4.0,1.25,7.0,3.5,7.0,7.5,6.75,7.0,0.08,0.14,0.95,873.17,1.9,-41.5
2.94,1.25,1.0,3.0,1.0,3.5,1.75,0.75,1.25,0.75,2.25,1.25,0.5,1.0,-0.48,-0.61,0.64,51.61,5.5,12.5,0.75,1.0,1.75,1.25,4.5,4.5,1.25,7.0,3.5,6.75,6.75,6.25,6.5,0.08,0.14,0.95,836.06,2.1,-39.3
2.96,0.5,0.5,1.25,0.0,2.5,0.5,0.5,0.5,0.25,0.5,0.0,0.5,0.0,-0.42,-0.42,0.58,47.85,6.6,30.3,1.0,0.75,1.5,1.75,5.0,4.5,1.25,7.25,3.75,6.5,6.75,6.0,6.0,0.08,0.14,0.95,814.56,1.9,-36.7
2.98,1.25,1.0,3.0,0.75,3.0,1.75,1.5,1.0,0.75,2.0,1.0,0.5,0.75,-0.23,-0.3,0.77,100.19,6.9,15.7,1.0,1.0,2.0,1.75,4.75,4.5,1.25,7.25,4.0,6.0,6.75,5.5,5.5,0.08,0.14,0.95,789.01,1.2,-33.7
3.0,0.75,1.0,3.0,1.75,3.5,1.75,1.0,1.0,0.5,0.5,1.0,0.0,1.0,-0.17,-0.3,1.14,130.46,7.6,27.9,1.25,1.0,1.75,1.25,4.75,4.5,1.25,7.5,4.25,6.0,5.5,4.75,4.5,0.08,0.14,0.89,739.06,1.7,-30.7
3.02,0.75,1.0,1.0,1.75,2.5,1.75,0.75,1.0,0.75,2.0,1.25,0.5,1.0,-0.42,-0.3,1.2,162.49,2.3,5.2,1.75,1.0,2.0,2.5,5.25,5.5,1.25,7.5,4.5,4.75,5.0,3.75,3.75,0.14,0.14,0.95,694.3,0.8,-19.9
3.04,0.75,1.0,3.0,1.5,2.5,1.5,1.5,1.0,0.75,1.75,1.0,0.75,1.0,-0.55,-0.05,0.83,191.89,7.4,11.6,2.0,1.25,1.75,2.75,6.5,6.0,1.25,8.0,4.5,4.0,4.5,2.25,3.25,0.14,0.14,0.95,666.7,1.1,-10.9
3.06,0.75,1.0,3.0,2.0,3.0,1.75,1.25,0.75,0.75,1.5,1.25,0.5,1.0,-0.55,-0.11,1.02,225.7,7.5,16.8,2.0,1.75,2.0,3.25,6.5,6.25,1.25,8.25,4.5,3.5,3.5,2.0,2.5,0.08,0.14,0.95,657.35,0.7,-4.4
3.08,1.25,1.0,2.25,2.0,3.0,0.25,1.25,0.75,0.75,1.75,1.25,0.75,0.75,-0.61,-0.42,1.45,243.62,9.4,14.2,2.0,1.75,2.0,5.0,7.75,7.0,1.5,8.25,4.25,2.5,3.25,1.75,1.5,0.08,0.14,0.95,668.07,0.0,5.0
3.1,0.5,1.0,2.5,2.0,2.25,0.25,1.25,0.5,0.75,1.25,1.25,0.5,1.0,-0.67,-0.17,1.39,246.5,10.3,12.7,3.0,1.75,2.0,6.75,8.5,7.75,1.25,7.75,3.0,3.0,3.0,1.25,1.5,0.08,0.14,0.95,701.91,-0.4,12.0
3.12,1.0,1.0,2.5,2.25,3.0,0.0,1.25,0.75,0.75,1.75,1.25,0.5,1.25,-1.05,-0.36,2.02,250.88,9.3,12.3,3.5,2.0,2.5,8.5,11.0,8.0,1.25,7.5,1.75,2.25,2.25,1.0,1.5,0.08,0.2,0.95,759.5,-1.2,21.9
3.14,0.0,1.0,1.75,2.75,5.5,4.0,2.0,1.5,2.0,1.0,1.0,0.25,0.25,1.33,7.83,7.95,268.76,2.0,23.5,5.5,1.75,3.75,11.0,12.0,8.75,0.75,6.75,1.0,1.75,2.25,0.75,1.5,0.08,0.2,1.02,850.78,-3.4,30.1
3.16,0.0,1.25,3.0,2.25,6.25,3.25,0.0,2.75,1.5,2.0,1.5,0.5,1.0,0.27,7.95,6.64,298.53,1.0,13.4,6.75,3.25,4.75,10.0,14.0,9.25,0.0,5.0,0.5,0.0,1.75,0.75,1.25,0.08,0.2,1.27,939.64,-5.1,41.4
3.18,0.0,0.5,1.25,2.0,5.75,2.25,0.0,1.5,1.25,2.25,0.5,0.5,0.0,0.83,3.27,2.52,302.2,-0.7,16.7,8.0,4.0,4.5,13.5,15.0,8.75,0.0,3.75,0.5,0.0,1.25,0.75,1.25,0.08,0.2,1.39,1048.52,-6.8,46.8
3.2,0.75,1.25,2.75,2.0,3.0,1.75,1.75,1.0,1.25,2.25,1.25,0.5,1.0,-0.55,0.27,0.58,305.47,6.4,11.9,8.5,4.0,5.5,10.5,15.0,7.0,0.0,2.25,0.5,0.0,1.25,0.0,1.0,0.14,0.27,1.39,1080.73,-8.5,52.2
3.22,1.25,1.0,3.0,2.25,3.5,1.75,1.5,1.0,1.25,2.5,1.75,0.5,1.0,-0.42,-2.67,0.58,295.79,6.9,11.9,9.5,4.25,5.0,9.75,11.5,6.75,0.0,0.25,0.25,0.0,0.75,0.0,0.5,0.14,0.33,1.45,1034.91,-10.9,60.0
3.24,1.0,1.0,3.0,2.0,3.75,1.0,1.25,1.0,0.75,0.5,1.0,0.0,1.0,-0.67,-3.11,-1.3,282.09,9.5,28.5,9.5,5.0,5.5,8.75,8.75,7.0,1.25,0.75,0.25,0.0,0.75,0.0,0.75,-0.3,0.83,1.89,955.45,-11.7,58.7
3.26,3.0,1.0,3.0,2.25,3.0,1.0,0.0,0.75,0.5,0.5,0.25,0.0,0.0,0.14,-0.23,0.77,266.01,14.3,51.9,8.25,3.5,4.0,5.5,8.0,4.75,1.25,0.0,0.25,0.25,0.25,0.5,0.0,0.08,1.2,2.64,794.65,-12.6,61.4
3.28,5.5,2.0,5.0,3.75,3.0,0.75,0.0,1.5,0.75,2.0,0.0,0.0,0.25,0.45,1.02,2.2,288.21,15.6,47.7,8.0,3.5,1.75,5.0,5.0,4.5,1.25,0.75,0.5,0.25,1.0,0.25,0.75,0.27,1.64,3.08,636.48,-11.1,53.3
3.3,6.5,2.75,6.75,4.0,6.25,0.75,0.25,0.25,0.25,0.5,0.0,0.5,0.0,0.14,-0.23,1.89,340.92,18.4,62.2,5.5,1.75,0.0,2.25,4.75,2.5,0.25,0.5,0.25,0.0,0.75,0.0,0.75,0.58,1.7,3.39,435.94,-8.5,52.6
3.32,7.25,3.75,8.0,4.5,3.5,0.25,0.25,0.75,0.25,0.5,0.25,0.0,0.0,0.2,-0.17,2.27,397.31,21.9,65.7,3.25,1.0,0.0,2.5,0.0,0.0,0.0,0.0,0.5,0.0,0.0,0.0,0.0,0.45,0.95,1.33,263.78,-23.7,74.0
3.34,7.75,4.0,9.0,4.25,6.25,0.25,1.25,0.75,0.25,0.5,0.75,0.0,1.0,-0.05,0.27,2.45,484.93,19.3,57.8,0.5,0.0,0.0,0.0,1.75,0.0,0.0,0.0,0.0,0.0,0.0,0.0,0.0,0.7,3.39,2.08,101.73,-3.8,61.8
3.36,7.75,4.0,9.0,2.5,3.5,0.0,2.5,0.75,0.5,0.5,0.0,0.5,0.0,-0.36,0.02,1.89,509.88,23.4,63.1,0.5,0.0,0.0,0.25,1.5,0.0,0.0,0.0,0.0,0.0,0.0,0.0,0.0,1.33,1.27,2.45,0.0,-6.1,62.3
3.38,8.75,4.0,9.75,4.75,4.5,0.0,3.5,0.75,0.25,0.5,1.25,0.5,1.0,-0.55,0.14,1.7,563.02,21.6,54.5,0.5,0.0,0.0,0.0,1.75,0.0,0.0,0.0,0.25,0.0,0.0,0.0,0.0,0.33,0.45,1.45,0.0,-4.6,52.7
3.4,8.25,4.0,9.0,4.0,2.5,0.75,3.25,0.75,0.5,2.25,0.0,0.5,0.5,-0.61,0.27,1.02,574.82,20.8,53.2,0.5,0.0,0.0,0.0,1.5,0.0,0.0,0.0,0.25,0.0,0.0,0.0,0.0,0.39,0.83,1.27,0.0,-5.5,52.6
3.42,8.75,4.0,9.5,3.5,3.75,1.25,4.0,0.75,0.5,2.0,0.75,0.5,1.0,-0.23,0.39,1.14,620.18,19.5,49.6,0.5,0.0,0.0,0.0,1.75,0.0,0.0,0.0,0.0,0.0,0.0,0.0,0.0,0.95,0.95,-0.05,0.0,-3.8,61.8
3.44,8.75,4.0,9.0,2.25,3.5,0.5,4.25,0.75,0.5,1.25,1.25,0.5,1.0,0.02,0.52,1.27,612.13,21.0,50.3,0.5,0.0,0.0,0.0,1.25,0.0,0.0,0.0,0.0,0.0,0.0,0.0,0.0,1.08,0.58,-0.61,0.0,-6.0,64.3
3.46,7.25,2.5,7.0,2.0,2.5,0.0,3.75,0.75,0.25,0.5,0.25,0.0,0.0,0.58,1.02,1.2,542.5,24.5,63.3,0.5,0.0,0.0,0.0,1.0,0.0,0.0,0.0,0.25,0.0,0.0,0.5,0.0,0.52,0.39,0.02,0.0,-8.4,18.3
3.48,7.25,2.5,5.75,1.75,2.5,1.5,3.0,0.75,0.5,1.0,0.0,0.0,0.0,0.89,1.95,0.95,466.35,20.3,59.9,0.5,0.0,0.5,0.0,1.25,0.0,0.0,0.0,0.0,0.0,0.0,0.0,0.0,0.08,-0.05,0.95,0.0,-12.8,63.6
3.5,5.75,1.0,3.0,0.25,2.5,0.0,1.25,0.75,0.25,1.75,0.0,0.5,0.5,0.83,2.14,1.02,354.52,17.2,42.3,0.5,0.0,0.0,0.0,0.5,0.0,0.0,0.0,0.0,0.0,0.0,0.0,0.0,-0.05,-1.23,0.77,0.0,-13.7,73.3
3.52,2.25,0.75,2.0,0.25,0.5,0.0,1.25,0.75,0.5,2.25,0.5,0.5,0.25,0.2,1.39,1.08,256.46,13.3,11.9,0.75,0.0,0.0,0.0,1.0,0.0,0.0,0.0,0.0,0.0,0.0,0.0,0.0,-0.3,-2.17,0.52,0.0,-11.1,70.2
3.54,0.75,1.0,2.75,1.5,2.5,1.5,0.75,0.0,0.5,2.0,0.0,0.75,0.0,0.14,2.58,2.2,193.85,8.8,28.1,0.5,0.0,0.0,0.0,0.25,0.0,0.0,0.0,0.5,0.0,0.0,0.5,0.0,-0.98,-1.73,-1.17,4.7,-14.7,-7.1
3.56,1.0,1.0,1.0,1.75,2.25,0.0,0.5,0.0,0.5,2.0,0.0,0.5,1.0,1.52,0.45,1.27,146.66,6.9,14.5,0.5,0.0,0.0,0.0,0.5,0.0,0.0,0.0,0.0,0.0,0.0,0.0,0.0,-0.55,-3.3,-1.11,17.77,-13.7,73.3
3.58,0.75,0.25,0.5,0.0,0.75,0.0,0.5,0.0,0.25,0.5,0.0,0.0,0.0,0.64,0.39,0.33,76.06,14.2,39.4,1.75,0.75,0.0,1.25,1.5,2.25,0.0,0.0,0.5,0.25,0.5,0.75,0.5,-0.98,-2.17,-2.42,69.42,-4.1,26.3
3.6,2.25,0.75,0.5,0.5,2.25,1.75,1.25,0.5,0.5,1.5,1.25,0.5,1.0,-0.17,0.08,0.14,79.63,4.4,10.3,1.75,0.75,0.75,1.25,4.5,1.5,0.25,0.75,0.25,0.0,1.0,0.5,0.0,0.52,-1.61,-2.55,131.83,-5.7,38.2
3.62,2.5,1.0,1.75,0.0,2.5,1.75,1.25,0.5,0.5,0.5,1.0,0.5,1.0,-1.11,-0.42,1.39,92.82,8.8,24.5,1.75,0.25,0.5,1.25,3.75,1.5,0.25,0.75,0.25,0.0,1.0,0.75,0.0,-1.23,-2.11,-0.61,177.92,-5.4,31.1
3.64,2.0,0.0,1.75,0.0,2.5,1.0,1.0,0.0,0.5,1.75,0.75,0.5,1.0,-1.98,-2.11,2.52,116.96,7.6,9.5,1.75,0.25,1.5,1.25,4.5,2.0,0.25,0.5,0.5,0.0,0.75,0.75,0.5,-2.23,-1.42,-1.55,215.81,-6.0,31.4
3.66,0.5,0.0,1.75,0.0,1.75,0.0,0.5,0.0,0.25,0.5,0.0,0.0,0.0,-1.42,-3.92,2.52,96.11,15.4,42.2,1.75,0.25,1.25,1.25,4.5,1.75,0.25,0.25,0.5,0.0,0.75,0.5,0.5,-2.48,-0.8,-2.3,232.59,-6.3,34.6
3.68,0.75,0.0,0.5,0.0,1.25,0.0,0.5,0.0,0.0,2.0,0.0,0.0,0.0,-0.8,-3.98,-0.92,79.53,3.2,6.6,1.75,0.75,1.0,1.25,4.5,2.0,0.25,0.5,0.25,0.0,0.75,0.5,0.5,-1.86,-0.05,-1.3,241.99,-4.9,36.4
3.7,2.5,1.0,0.5,0.25,3.0,0.5,1.0,0.75,0.5,2.0,1.25,0.5,0.75,0.58,-1.98,-2.67,107.64,5.6,11.3,1.25,0.5,1.0,1.25,3.75,2.0,0.25,0.5,0.25,0.25,0.75,0.5,0.25,-0.98,-0.36,-0.55,237.14,-4.2,32.5
3.72,2.75,1.0,2.75,0.75,2.5,0.5,1.0,0.75,0.5,2.0,1.25,0.5,0.75,1.45,-0.11,-2.36,154.29,11.2,19.4,1.5,0.75,0.75,1.25,4.5,2.0,0.25,0.5,0.25,0.0,0.75,0.75,0.25,-0.3,-0.23,-0.61,238.62,-4.2,35.0
3.74,2.25,0.75,2.5,1.75,2.5,0.0,1.0,0.75,0.5,2.0,1.0,0.5,1.0,0.83,1.02,-2.67,205.57,11.1,16.6,1.5,0.75,0.5,1.5,4.25,2.25,0.25,0.75,0.25,0.25,0.75,1.0,0.5,-0.23,0.2,-0.61,239.14,-2.7,26.6
3.76,2.5,1.0,0.25,1.75,2.5,0.5,0.75,0.75,0.5,2.0,1.25,0.5,1.0,0.02,1.64,-2.05,229.1,6.1,11.5,1.25,1.0,0.5,1.25,4.5,2.0,0.25,0.5,0.25,0.75,0.75,0.5,0.5,-0.36,0.77,-0.92,237.87,-1.9,28.9
3.78,2.5,1.0,2.25,1.0,2.5,0.75,0.75,0.5,0.5,2.0,1.0,0.5,0.5,0.52,1.45,-1.3,237.8,10.2,22.1,1.25,0.75,0.75,1.25,4.5,1.75,0.25,0.75,0.25,0.0,0.75,0.5,0.5,0.08,0.95,-1.36,232.19,-3.4,32.5
3.8,2.0,1.0,2.5,1.75,2.5,1.0,0.75,0.75,0.5,2.0,1.25,0.5,0.75,0.58,1.33,-0.61,245.56,9.1,18.2,1.25,0.75,0.25,1.25,4.25,1.25,0.25,0.75,0.25,0.25,0.75,0.75,0.5,0.58,1.39,-1.67,219.63,-2.8,26.1
3.82,1.5,1.0,2.5,2.0,3.0,1.25,0.75,0.75,0.5,2.0,1.25,0.5,0.75,0.39,0.89,-0.36,255.07,7.7,18.1,1.5,1.0,0.5,1.25,3.25,1.75,0.25,0.75,0.25,0.25,0.75,0.25,0.0,0.14,1.83,-1.48,200.99,-4.5,38.9
3.84,1.5,1.0,2.5,2.0,2.5,1.0,0.75,0.75,0.5,2.0,1.0,0.5,1.5,0.52,0.83,-0.23,256.69,7.5,12.4,1.25,0.75,0.5,1.25,3.5,1.75,0.25,0.75,0.25,0.0,0.75,0.5,0.25,-0.11,2.27,-0.8,189.31,-3.7,33.0
3.86,1.5,0.5,2.25,1.5,3.0,1.5,0.5,0.75,0.5,2.0,1.0,0.5,1.0,0.83,1.58,-0.42,258.87,5.8,13.2,1.25,0.75,0.5,1.25,3.75,1.25,0.25,0.25,0.25,0.25,0.75,0.5,0.5,0.27,1.95,-0.42,182.99,-4.6,31.0
3.88,2.25,1.0,2.75,1.75,2.5,0.25,0.75,0.75,0.5,1.75,1.0,0.5,1.0,0.89,2.39,-1.73,259.48,11.3,20.1,1.5,1.0,0.25,1.25,3.25,1.25,0.25,0.75,0.25,0.0,0.75,0.75,0.5,0.2,1.64,-0.42,178.55,-4.7,28.5
3.9,2.0,1.0,2.25,2.0,2.5,1.75,0.75,1.0,0.5,2.0,1.25,0.5,1.0,0.89,2.77,-1.55,263.54,6.9,16.2,1.25,0.75,0.5,1.25,3.5,1.5,0.25,0.5,0.25,0.0,1.0,0.75,0.5,0.39,1.02,-0.61,179.09,-4.5,26.4
3.92,1.5,1.0,2.25,2.0,2.5,1.75,0.75,0.75,0.5,2.0,0.5,0.5,0.5,0.89,3.14,-0.8,255.87,7.0,22.7,1.25,0.75,0.25,1.25,3.75,1.25,0.25,0.5,0.25,0.0,0.75,0.75,0.5,0.58,0.7,-0.86,178.03,-4.0,28.2
3.94,1.0,1.0,2.75,2.0,2.5,1.75,0.75,0.75,0.5,2.0,1.25,0.5,0.75,0.77,3.08,-0.55,250.34,7.0,15.8,1.5,0.75,0.5,1.5,3.5,1.25,0.25,0.25,0.25,0.25,0.75,0.5,0.5,0.33,0.33,-1.05,179.11,-5.7,32.4
3.96,1.0,1.0,2.25,2.0,2.5,1.75,0.75,0.75,0.5,2.0,1.0,0.5,1.0,0.52,2.83,-0.3,246.52,5.7,13.9,1.25,0.75,0.75,1.25,3.25,1.0,0.25,0.5,0.25,0.0,0.75,0.5,0.0,0.39,-0.17,-0.92,172.97,-7.3,38.1
3.98,0.5,1.0,2.5,1.75,2.5,1.75,0.75,0.75,0.5,2.0,1.25,0.5,1.0,0.39,2.39,0.2,244.43,5.3,10.3,1.0,0.75,0.5,1.25,4.25,1.5,0.25,0.5,0.25,0.0,0.75,0.75,0.0,0.33,-0.55,-0.73,175.27,-4.0,34.7
4.0,1.0,0.75,2.25,1.75,2.5,1.5,0.75,0.75,0.5,1.75,1.25,0.5,1.0,0.27,1.77,0.64,238.87,6.2,11.6,1.0,0.75,0.5,1.25,3.5,1.25,0.25,0.5,0.5,0.0,0.75,0.5,0.0,0.2,-0.8,-0.61,172.79,-5.2,34.9
4.02,1.0,1.0,2.25,1.75,2.5,1.0,1.0,1.0,0.5,1.75,1.0,0.5,1.0,-0.11,1.14,1.02,234.04,6.9,13.0,0.75,0.75,0.75,1.25,3.25,1.25,0.25,0.5,0.25,0.0,0.75,0.5,0.5,0.02,-0.86,-0.48,172.34,-4.5,28.6
4.04,1.0,1.0,2.25,1.75,2.5,1.5,0.75,0.75,0.5,2.0,1.0,0.5,0.5,-0.17,0.64,1.27,229.77,6.5,16.8,1.25,0.75,0.5,2.0,3.5,1.0,0.25,0.5,0.25,0.0,0.75,0.75,0.0,0.08,-0.8,-0.36,174.55,-7.0,36.1
4.06,0.75,1.0,2.25,1.75,2.5,0.25,0.75,0.75,0.25,2.0,1.25,0.5,1.0,-0.11,0.2,1.39,223.34,7.7,9.4,0.75,0.75,0.5,1.25,3.25,1.0,0.25,0.5,0.25,0.0,0.75,0.0,0.0,0.08,-0.73,-0.36,167.31,-5.0,42.2
4.08,0.0,0.0,2.75,0.0,2.5,0.25,0.75,0.75,0.5,2.0,0.0,0.5,0.25,-0.05,-0.36,1.2,197.88,6.5,6.1,0.75,0.75,0.75,1.25,3.75,1.25,0.25,0.5,0.25,0.0,0.75,0.5,0.0,0.02,-0.61,-0.48,167.18,-4.9,36.3
4.1,0.5,0.0,0.25,0.0,2.5,0.0,0.5,0.5,0.25,0.5,0.0,0.0,0.0,0.02,-0.8,0.77,149.89,2.1,30.5,1.25,0.75,1.0,1.25,3.0,1.0,0.25,0.5,0.25,0.0,0.75,0.5,0.5,0.02,-0.36,-0.61,166.8,-7.3,31.4
4.12,0.75,0.0,0.5,0.0,2.5,0.0,0.5,0.5,0.25,0.5,0.0,0.0,0.0,0.08,-1.11,0.58,106.21,5.2,34.7,0.75,1.0,0.5,1.25,2.75,1.25,0.25,0.25,0.25,0.0,0.75,0.75,0.0,0.08,-0.11,-0.92,163.65,-5.9,33.5
4.14,0.5,0.0,0.5,0.0,1.25,0.0,0.5,0.5,0.25,0.5,0.0,0.0,0.0,0.02,-1.36,-0.17,64.53,6.5,24.1,1.0,1.0,0.5,1.25,3.0,1.25,0.25,0.25,0.25,0.25,0.75,0.25,0.0,0.14,0.2,-1.05,160.85,-5.6,39.8
4.16,0.5,0.5,0.5,0.0,2.5,0.0,0.5,0.5,0.25,0.5,0.0,0.0,0.0,0.02,-1.61,-0.36,53.99,4.6,37.9,1.0,0.75,0.5,1.25,3.75,1.0,0.25,0.25,0.25,0.0,0.75,0.5,0.5,0.14,0.27,-1.11,163.21,-5.0,32.0
4.18,0.25,0.0,0.25,0.0,1.75,0.0,0.5,0.5,0.25,0.5,0.0,0.0,0.0,0.27,-1.73,-0.36,40.47,1.4,21.6,1.25,0.75,0.5,1.25,3.25,1.0,0.25,0.5,0.25,0.0,0.75,0.75,0.5,0.14,0.27,-1.11,166.34,-5.7,27.6
4.2,0.25,0.0,2.5,0.0,2.5,0.0,0.5,0.5,0.25,0.5,0.0,0.0,0.0,0.64,-1.73,-0.05,56.43,12.7,38.2,1.25,0.75,0.75,1.25,3.5,1.0,0.25,0.5,0.25,0.25,0.75,0.25,0.5,0.27,0.2,-1.11,171.63,-5.6,32.6
4.22,0.5,0.0,0.5,0.0,2.5,0.0,0.5,0.5,0.25,0.5,0.0,0.0,0.0,0.95,-1.86,0.02,57.46,3.9,32.0,0.75,1.0,0.5,1.25,4.25,1.75,0.25,0.5,0.25,0.0,1.0,0.5,0.5,0.39,0.2,-1.17,181.69,-2.4,29.8
4.24,0.25,0.0,0.5,0.0,2.25,0.0,0.5,0.5,0.25,0.5,0.0,0.0,0.0,1.08,-1.8,-0.05,60.67,2.8,27.5,1.0,0.75,0.5,1.25,3.25,1.0,0.25,0.5,0.25,0.25,0.75,0.5,0.5,0.39,0.14,-1.05,181.72,-4.5,26.8
4.26,0.0,0.0,0.5,0.0,2.5,0.0,0.5,0.5,0.25,0.5,0.0,0.0,0.0,1.02,-1.3,-0.23,59.03,0.9,25.7,1.0,0.75,1.0,1.25,3.5,1.0,0.25,0.25,0.25,0.0,0.75,0.5,0.5,0.39,-0.05,-0.98,181.34,-6.7,32.7
4.28,0.25,1.25,0.5,2.0,2.5,1.25,0.5,0.5,0.25,0.75,0.0,0.5,0.0,0.77,-0.92,-0.3,93.08,3.6,34.9,0.75,0.5,0.5,1.25,3.5,1.25,0.25,0.25,0.25,0.0,0.75,0.75,0.25,0.33,-0.05,-0.98,174.56,-4.3,28.5
4.3,1.0,1.0,2.75,2.0,2.5,1.75,1.0,0.75,0.5,1.5,1.0,0.5,1.0,0.64,-0.55,-0.3,156.81,7.5,18.0,0.75,0.75,0.5,1.25,3.5,1.25,0.25,0.25,0.25,0.0,1.0,0.5,0.5,0.27,-0.05,-0.98,173.36,-4.1,27.7
4.32,0.75,1.0,2.25,1.0,2.5,1.0,0.75,0.75,0.5,1.75,1.0,0.5,1.0,0.58,-0.36,-0.23,201.86,6.1,10.0,0.75,0.75,1.0,1.25,3.25,1.25,0.25,0.0,0.25,0.0,0.75,0.75,0.5,0.14,-0.17,-0.92,170.03,-6.3,29.3
4.34,1.0,1.0,2.25,2.0,2.5,1.75,0.75,0.75,0.5,1.5,1.0,0.75,1.0,0.64,-0.23,0.08,238.74,6.4,14.7,0.75,0.5,0.5,1.25,3.25,1.0,0.25,0.25,0.25,0.0,0.75,0.5,0.5,0.08,-0.23,-0.86,166.08,-4.6,27.5
4.36,0.75,1.0,2.75,2.0,2.5,1.75,0.75,1.0,0.5,1.5,1.25,0.5,1.0,0.64,-0.17,0.08,255.58,6.6,14.7,1.25,0.5,1.0,0.75,4.25,1.0,0.25,0.25,0.25,0.0,0.75,0.5,0.5,0.08,-0.23,-0.8,170.09,-6.0,33.0
4.38,0.75,1.0,2.75,1.75,2.5,1.75,1.0,0.75,0.5,1.5,1.0,0.5,0.5,0.64,-0.05,0.02,261.95,7.6,20.3,1.0,0.5,1.25,1.25,4.25,1.25,0.25,0.0,0.5,0.0,0.75,0.75,0.5,0.14,-0.17,-0.8,177.26,-6.6,30.6
4.4,0.25,0.75,2.25,2.0,2.5,1.75,1.0,0.75,0.5,1.5,1.0,0.5,1.0,0.64,0.02,-0.05,257.72,5.1,11.7,1.0,0.75,0.5,1.25,3.25,1.25,0.25,0.0,0.25,0.0,0.75,0.5,0.5,0.27,-0.11,-0.8,175.44,-5.4,32.5
4.42,1.0,0.75,2.25,1.75,2.5,1.75,0.75,0.75,0.5,1.5,1.0,0.5,1.0,0.45,0.02,-0.23,256.56,6.0,14.6,0.75,0.75,1.0,1.25,3.25,1.5,0.25,0.25,0.25,0.25,0.75,0.5,0.5,0.2,-0.05,-0.8,176.61,-4.7,28.6
4.44,0.75,0.75,2.5,1.0,2.5,1.0,0.75,0.75,0.5,1.75,1.0,0.5,1.0,0.64,0.08,-0.17,246.74,6.6,9.3,1.0,0.75,0.5,1.25,3.0,1.5,0.25,0.25,0.5,0.0,0.75,0.5,0.5,0.27,0.02,-0.92,173.06,-4.6,28.8
4.46,1.0,1.0,2.25,2.0,2.5,1.75,0.75,0.75,0.25,1.5,1.25,0.5,1.0,0.64,0.08,0.08,246.84,6.3,16.1,0.75,0.75,0.5,1.25,3.0,1.25,0.25,0.25,0.25,0.5,0.75,0.5,0.5,0.27,0.14,-0.92,169.87,-3.5,23.9
4.48,1.0,1.0,2.25,2.0,3.0,1.75,0.75,0.75,0.25,1.75,1.0,0.5,0.75,0.39,0.14,0.14,247.12,5.9,19.2,0.75,1.0,1.0,1.25,3.0,1.5,0.25,0.0,0.25,0.0,0.75,0.5,0.5,0.33,0.2,-1.05,169.56,-6.1,33.5
4.5,1.25,1.0,2.25,0.0,2.5,1.0,0.75,0.75,0.5,2.0,1.25,0.5,1.0,0.02,0.52,0.02,237.26,6.0,6.5,1.0,0.75,0.5,1.25,2.75,1.5,0.25,0.25,0.25,0.0,0.75,0.5,0.5,0.33,0.27,-1.11,167.18,-4.7,29.7
4.52,0.75,1.0,2.0,2.0,2.5,1.5,0.75,0.75,0.5,1.75,1.25,0.0,1.0,-0.36,0.95,-0.23,229.23,5.5,15.5,1.25,0.75,1.0,1.25,3.0,1.25,0.25,0.25,0.25,0.0,0.75,0.5,0.5,0.27,0.27,-1.05,169.3,-7.2,33.1
4.54,0.75,0.75,0.5,1.75,2.5,1.5,0.25,0.5,0.5,1.25,0.0,0.5,1.0,-0.55,1.52,-0.48,207.61,1.3,15.6,1.25,0.75,0.5,1.25,3.5,1.25,0.25,0.0,0.25,0.25,0.75,0.5,0.5,0.14,0.2,-0.98,170.45,-5.3,32.0
4.56,0.75,0.75,2.0,1.25,2.5,0.0,0.75,0.75,0.0,0.5,1.0,0.0,1.0,-0.55,2.39,-0.92,191.23,10.0,22.7,1.25,0.75,0.5,1.25,3.25,1.25,0.25,0.0,0.25,0.0,1.0,0.5,0.5,0.02,0.27,-1.05,171.77,-6.1,31.5
4.58,1.25,1.0,2.25,1.75,2.5,1.75,0.5,1.0,0.25,0.75,1.0,0.5,1.0,-0.86,3.14,-1.86,192.63,7.0,21.4,1.0,1.0,1.0,1.25,3.5,2.0,0.25,0.0,0.25,0.0,0.75,0.75,0.5,-0.17,0.27,-1.05,178.92,-5.1,32.8
4.6,0.5,0.75,1.75,1.75,2.5,1.75,0.5,0.75,0.5,0.5,1.0,0.5,1.0,-0.98,3.64,-2.05,194.92,5.2,16.5,1.0,0.75,0.75,1.25,3.0,1.5,0.25,0.0,0.25,0.0,0.75,0.5,0.5,-0.36,0.2,-1.11,175.79,-5.8,32.7
4.62,1.5,0.25,2.25,1.5,2.5,1.75,0.75,0.75,0.25,1.25,1.25,0.5,1.0,-0.48,3.14,-1.73,206.63,6.8,14.5,1.25,0.5,0.0,1.25,3.0,2.0,0.25,0.0,0.25,0.0,0.75,0.5,0.5,-0.36,0.14,-1.23,172.28,-2.6,30.5
4.64,0.75,0.75,2.0,1.5,2.5,1.0,0.75,0.75,0.25,1.25,1.0,0.5,1.0,0.33,1.89,-1.17,207.19,6.5,13.1,1.25,0.75,0.5,1.25,3.25,1.5,0.25,0.0,0.5,0.0,0.75,0.75,0.5,-0.3,0.08,-1.36,172.61,-5.6,29.3
4.66,0.75,1.0,2.0,1.75,2.5,1.75,1.0,0.75,0.5,1.5,1.25,0.5,1.0,0.7,0.83,-0.23,216.59,5.5,12.7,0.75,0.75,1.0,1.25,3.25,1.25,0.25,0.0,0.25,0.0,0.75,0.75,0.5,-0.11,0.02,-1.36,171.43,-6.3,29.3
4.68,0.75,0.25,2.5,0.0,3.0,0.0,1.0,0.75,0.25,0.5,1.0,0.0,1.0,0.64,-0.61,0.27,198.82,9.9,17.0,0.75,0.75,0.25,1.0,3.25,1.25,0.25,0.0,0.25,0.0,0.75,0.75,0.5,0.08,0.08,-1.36,166.52,-3.6,26.1
4.7,0.5,0.0,0.25,0.0,2.25,0.25,0.5,0.25,0.0,0.0,0.0,0.0,0.0,0.33,-1.11,0.58,152.81,3.8,50.7,1.0,0.5,1.25,1.5,3.0,1.5,0.25,0.0,0.25,0.0,0.75,0.75,0.5,0.2,0.39,-1.3,169.04,-7.4,30.0
4.72,0.75,0.0,0.5,0.0,2.5,0.25,0.5,0.5,0.25,0.25,0.0,0.0,0.0,0.27,-1.05,0.33,113.17,4.9,39.7,0.75,0.75,1.25,1.25,3.0,1.25,0.25,0.0,0.25,0.0,0.75,0.5,0.5,0.27,0.58,-1.23,168.07,-7.3,32.6
4.74,0.75,0.5,0.25,0.25,2.25,0.25,0.5,0.5,0.0,0.5,0.0,0.0,0.0,0.2,0.08,0.27,85.38,3.9,42.5,0.75,0.75,1.0,1.25,3.25,1.5,0.25,0.0,0.25,0.0,0.75,0.5,0.5,0.14,0.33,-1.92,169.6,-5.7,32.5
4.76,0.75,0.25,0.25,0.0,2.5,0.25,0.25,0.5,0.0,0.0,0.0,5.0,0.0,0.33,1.52,-0.48,90.3,6.2,-29.1,0.75,0.75,0.75,1.25,3.75,1.25,0.25,0.0,0.25,0.0,0.75,0.5,0.5,0.02,0.52,-1.98,169.78,-5.1,32.9
4.78,1.75,1.0,2.25,2.0,3.0,1.75,0.5,1.0,0.25,0.75,1.0,0.5,1.0,0.95,5.2,-2.67,144.32,7.5,25.2,1.0,0.75,0.75,1.25,2.75,1.5,0.25,0.0,0.25,0.0,0.75,0.5,0.5,-0.36,0.64,-1.73,168.26,-6.0,32.1
4.8,1.75,0.75,2.0,2.0,2.5,1.75,0.75,0.75,0.25,1.25,1.25,0.5,0.5,0.02,1.27,-0.36,187.31,7.9,23.1,0.75,1.0,0.75,1.25,3.5,1.25,0.25,0.0,0.25,0.0,0.75,0.75,0.5,-0.42,0.45,-1.42,169.63,-5.5,30.8
4.82,1.0,0.75,1.75,1.75,2.5,1.75,0.5,0.75,0.5,1.0,1.25,0.5,1.0,-0.36,0.33,0.08,211.9,5.5,14.4,1.0,0.75,1.0,1.25,2.75,1.5,0.25,0.0,0.25,0.0,0.75,0.75,0.5,-0.61,0.33,-0.92,168.96,-6.8,29.6
4.84,1.75,0.5,2.0,1.75,2.5,1.75,0.75,0.75,0.5,0.5,1.25,0.5,1.0,-0.42,0.83,-0.8,224.92,8.2,20.6,0.75,0.75,0.75,1.25,3.5,1.0,0.25,0.0,0.25,0.0,0.75,0.5,0.5,-0.67,0.2,-0.73,169.59,-5.9,32.3
4.86,0.75,0.0,2.0,0.0,2.5,0.0,1.0,1.0,0.0,0.5,0.0,0.0,0.0,0.27,1.08,-0.73,197.32,11.0,37.4,1.0,0.75,0.5,1.25,3.75,1.25,0.25,0.0,0.25,0.0,0.75,0.5,0.25,-0.55,0.08,-0.55,169.02,-5.4,37.0
4.88,1.25,0.25,0.25,0.0,2.25,0.0,0.25,0.5,0.0,0.5,0.0,0.0,0.0,0.45,1.08,-0.61,157.55,6.0,44.5,0.75,0.75,0.5,1.0,3.25,1.25,0.25,0.0,0.25,0.0,0.75,0.75,0.5,-0.48,0.02,-0.3,165.31,-4.5,27.0
4.9,0.5,0.5,0.25,0.0,2.25,0.0,0.5,0.5,0.0,0.5,0.0,0.0,0.0,0.33,0.95,-0.55,117.88,3.0,39.5,0.75,1.0,0.5,1.25,2.75,1.0,0.25,0.0,0.25,0.0,0.75,0.75,0.0,-0.55,-0.05,-0.23,159.46,-7.2,35.4
4.92,0.75,0.0,0.25,0.0,2.25,0.0,0.25,0.5,0.0,0.5,0.0,0.0,0.0,0.14,0.95,-0.61,94.94,2.8,36.2,0.75,0.75,0.5,1.25,3.5,1.0,0.25,0.0,0.25,0.0,0.75,0.5,0.25,-0.55,-0.11,-0.11,156.77,-5.6,35.2
4.94,0.5,0.0,0.25,0.0,2.5,0.0,0.25,0.25,0.0,0.5,0.0,0.0,0.0,0.08,1.02,-0.8,77.22,1.8,38.3,0.75,0.75,0.5,1.0,3.0,0.5,0.25,0.0,0.25,0.0,0.75,0.75,0.5,-0.48,-0.17,-0.05,150.01,-6.8,25.6
4.96,0.75,0.5,0.25,0.0,2.5,0.0,0.5,0.5,0.0,0.5,0.0,0.0,0.0,0.14,0.95,-0.8,70.34,4.0,42.7,1.0,0.75,0.0,1.25,3.25,1.25,0.25,0.0,0.25,0.0,0.75,0.75,0.5,-0.42,-0.23,0.02,151.39,-3.8,27.7
4.98,0.75,0.25,1.0,0.0,0.0,0.0,0.25,0.5,0.0,0.5,0.0,0.0,0.0,0.2,0.7,-0.67,52.67,17.6,33.1,0.75,0.75,0.5,1.25,3.0,1.0,0.25,0.0,0.25,0.0,0.75,0.75,0.5,-0.42,-0.23,0.08,151.14,-5.7,26.9
5.0,0.5,1.0,0.25,1.75,2.5,1.25,0.5,0.5,0.25,1.75,0.0,0.5,0.0,0.27,0.45,-0.48,78.4,1.2,23.4,0.75,0.75,0.5,1.25,3.25,0.75,0.25,0.0,0.0,0.0,0.75,0.5,0.5,-0.55,-0.17,0.02,151.31,-5.9,32.7
5.02,1.5,0.5,1.75,1.75,2.5,1.0,0.75,0.75,0.25,1.5,1.0,0.5,1.0,0.2,0.45,-0.42,122.38,7.0,14.1,0.75,0.75,0.5,1.25,3.25,1.0,0.25,0.0,0.0,0.0,0.75,0.75,0.5,-0.73,-0.11,-0.05,152.1,-5.3,29.2
5.04,0.75,1.0,2.25,1.25,2.5,1.75,0.75,0.75,0.25,1.5,1.25,0.5,1.0,0.2,0.58,-0.48,175.76,5.3,12.7,0.75,0.75,0.5,1.25,3.25,1.0,0.25,0.0,0.25,0.5,0.75,0.5,0.5,-0.86,0.08,-0.05,155.08,-4.4,26.0
5.06,0.75,0.25,2.0,0.0,2.5,0.0,0.75,0.75,0.5,1.75,1.0,0.5,0.0,0.14,0.83,-0.42,189.35,8.3,7.1,0.75,0.75,0.5,1.0,3.0,1.0,0.25,0.0,0.25,0.0,0.75,0.75,0.5,-0.73,0.14,-0.17,154.87,-5.4,26.0
5.08,1.0,1.0,0.25,1.75,2.5,1.5,0.5,0.25,0.5,0.75,0.0,0.0,0.0,0.14,1.08,-0.61,192.38,4.2,43.5,0.75,0.75,0.25,1.0,3.25,1.25,0.25,0.0,0.25,0.0,0.75,0.75,0.5,-0.55,0.08,-0.17,155.5,-3.6,26.1
5.1,1.0,0.75,1.75,2.0,2.5,1.5,0.75,0.75,0.25,2.0,1.0,0.5,1.0,0.2,1.14,-0.73,209.01,4.8,11.5,0.5,0.5,0.75,1.25,3.25,1.75,0.25,0.0,0.25,0.0,0.75,0.5,0.5,-0.55,0.2,0.02,158.08,-3.4,28.8
5.12,0.75,1.0,2.0,1.75,2.5,1.5,0.5,0.75,0.5,1.75,1.0,0.5,1.0,0.33,1.08,-0.73,222.57,5.1,12.1,0.75,0.75,0.5,1.25,2.75,1.0,0.25,0.0,0.25,0.0,0.75,0.5,0.5,-0.67,0.45,0.33,156.28,-5.9,29.6
5.14,0.75,1.0,2.0,1.0,2.5,1.0,0.75,0.75,0.25,1.75,1.0,0.5,1.0,0.33,0.89,-0.67,231.07,5.5,9.9,0.75,1.0,0.5,0.75,3.5,1.25,0.25,0.0,0.25,0.0,0.75,0.75,0.5,-0.67,0.77,0.52,159.15,-4.2,28.7
5.16,1.25,1.0,1.75,1.0,2.5,1.0,0.75,0.75,0.5,1.5,1.0,0.5,1.0,0.27,0.7,-0.67,234.37,6.3,12.5,0.5,0.75,0.0,1.0,3.25,1.25,0.25,0.0,0.25,0.0,0.75,0.75,0.5,-0.73,1.14,0.45,155.45,-1.9,23.4
5.18,1.0,0.75,1.75,1.25,2.5,0.0,0.75,0.75,0.25,1.5,1.25,0.5,1.0,0.14,0.45,-0.73,226.39,7.9,8.0,0.75,0.75,0.5,1.25,3.5,1.0,0.25,0.0,0.0,0.0,0.75,0.75,0.5,-0.61,1.39,0.2,158.04,-5.0,29.9
5.2,0.5,1.0,2.0,1.75,2.5,1.5,0.75,0.75,0.25,1.5,1.0,0.5,1.0,-0.11,0.33,-0.67,222.97,5.1,13.2,0.75,0.75,0.5,1.25,3.5,1.0,0.25,0.0,0.0,0.25,0.75,0.5,0.5,-0.61,1.45,0.02,157.99,-4.4,30.7
5.22,1.25,1.0,2.25,1.25,2.5,1.75,0.75,0.75,0.25,1.5,1.25,0.5,1.0,-0.11,0.27,-0.61,225.22,6.2,15.2,1.0,0.75,0.5,1.25,3.25,1.25,0.25,0.0,0.25,0.0,0.75,0.75,0.5,-0.73,1.58,-0.23,162.88,-5.5,29.3
5.24,0.75,0.75,2.25,1.0,2.5,0.5,0.75,0.75,0.25,1.5,1.25,0.5,1.0,-0.17,0.27,-0.48,217.29,7.4,8.4,0.75,0.75,0.5,1.25,3.0,1.0,0.25,0.0,0.25,0.0,0.75,0.75,0.5,-0.8,1.64,-0.42,161.64,-5.7,26.9
5.26,1.0,1.0,1.75,1.75,2.5,1.75,0.75,0.75,0.25,1.5,1.0,0.5,1.0,-0.23,0.27,-0.48,219.77,5.0,15.3,0.75,0.5,0.75,1.25,3.5,0.75,0.5,0.0,0.25,0.0,0.75,0.5,0.5,-0.61,1.52,-0.73,161.53,-6.7,30.5
5.28,1.25,1.0,2.25,2.0,2.5,1.5,0.75,0.75,0.5,1.5,1.25,0.5,1.0,-0.23,0.39,-0.48,228.1,7.2,16.1,0.75,0.75,0.75,1.25,3.25,0.5,0.25,0.0,0.25,0.0,0.75,0.5,0.5,-0.42,1.45,-1.05,158.58,-7.6,31.6
5.3,0.75,0.75,2.0,1.75,2.5,1.75,0.75,0.75,0.5,1.75,1.25,0.5,1.0,-0.05,0.58,-0.42,234.01,4.8,9.9,0.75,0.5,0.5,1.0,4.25,1.5,0.25,0.0,0.25,0.0,0.75,0.5,0.5,-0.23,1.52,-1.11,163.53,-2.8,31.2
5.32,0.75,0.25,1.75,1.0,2.5,1.25,0.75,0.75,0.25,1.5,1.25,0.5,1.0,0.02,0.7,-0.55,222.71,4.4,4.3,0.75,0.75,1.0,1.25,3.5,0.75,0.25,0.0,0.25,0.0,0.75,0.25,0.5,-0.05,1.45,-1.17,164.08,-7.3,36.4
5.34,0.5,1.0,2.25,0.25,3.0,0.5,0.75,0.75,0.25,1.5,1.0,0.5,1.0,0.08,0.7,-0.61,210.13,5.9,9.2,0.75,0.75,0.5,1.25,3.75,0.75,0.25,0.0,0.25,0.0,0.75,0.5,0.5,0.02,1.39,-1.11,165.55,-5.5,32.2
5.36,0.75,1.0,1.75,1.75,2.5,1.75,0.75,0.75,0.5,1.75,1.0,0.5,1.0,0.14,0.77,-0.67,211.25,4.3,11.8,0.75,0.5,0.75,1.25,3.25,0.75,0.5,0.0,0.25,0.5,0.75,0.5,0.5,0.02,1.33,-0.86,164.74,-5.9,24.9
5.38,0.75,0.75,1.75,1.75,2.5,1.0,1.0,0.75,0.5,1.5,1.0,0.5,1.0,0.2,0.77,-0.8,211.09,6.1,10.8,0.5,0.5,0.75,1.25,3.0,1.0,0.25,0.0,0.0,0.0,0.75,0.5,0.5,-0.05,1.2,-0.61,158.11,-5.4,29.4
5.4,0.75,1.5,1.75,2.0,2.5,1.0,0.75,0.75,0.25,1.25,1.25,0.5,1.0,0.2,0.77,-0.86,216.58,6.7,16.8,0.75,0.75,0.5,1.25,2.75,1.25,0.25,0.0,0.25,0.0,0.75,0.5,0.5,-0.11,1.2,-0.36,154.48,-5.2,29.7
5.42,1.0,0.5,1.75,1.25,2.5,1.25,0.75,0.75,0.25,1.75,1.25,0.5,1.0,0.27,0.77,-0.86,215.26,4.9,7.1,0.75,0.5,0.5,1.25,3.25,1.25,0.25,0.0,0.0,0.0,0.75,0.5,0.5,-0.11,1.08,-0.17,151.4,-4.3,31.0
5.44,0.75,0.75,1.75,0.25,2.5,0.5,0.75,0.75,0.25,1.5,1.0,0.5,1.0,0.2,0.64,-0.73,202.47,5.4,4.7,0.75,0.75,1.0,1.25,3.0,1.0,0.25,0.0,0.25,0.25,0.75,0.25,0.5,-0.23,0.95,-0.17,154.01,-6.6,32.6
5.46,0.75,1.0,2.0,1.25,3.0,0.5,0.75,0.75,0.25,1.75,1.0,0.5,1.0,0.08,0.52,-0.67,200.33,6.2,11.7,0.5,0.75,0.5,1.0,3.25,1.0,0.25,0.0,0.25,0.0,0.75,0.25,0.5,-0.36,0.95,-0.23,151.6,-4.2,32.3
5.48,1.0,1.0,2.0,1.75,2.5,1.0,0.75,0.75,0.25,1.0,1.0,0.5,1.0,0.08,0.39,-0.55,202.09,7.7,18.3,0.5,0.75,0.5,1.0,3.75,1.25,0.25,0.0,0.0,0.0,0.75,0.5,0.5,-0.42,0.89,-0.3,154.31,-3.1,31.8
5.5,1.0,1.0,2.0,1.25,2.5,1.0,0.75,0.75,0.25,1.5,1.25,0.5,1.0,0.08,0.39,-0.55,206.14,6.6,12.2,0.5,0.75,0.75,0.75,3.25,0.5,0.5,0.0,0.0,0.0,0.75,0.5,0.5,-0.55,0.95,-0.3,148.78,-6.5,30.2
5.52,0.75,0.5,2.25,1.5,2.5,1.5,1.0,0.75,0.25,1.75,1.25,0.5,1.0,0.2,0.45,-0.55,211.87,5.6,8.9,0.75,0.5,1.0,1.25,3.25,0.5,0.5,0.0,0.0,0.0,0.75,0.75,0.5,-0.73,1.02,-0.36,149.88,-8.4,28.8
5.54,1.0,0.75,2.0,1.0,2.5,0.75,1.0,0.75,0.25,1.75,1.25,0.5,1.0,0.33,0.58,-0.55,214.02,6.6,8.0,0.75,0.75,0.75,1.25,3.75,0.75,0.5,0.0,0.0,0.0,0.75,0.5,0.5,-0.73,0.95,-0.42,153.01,-6.4,34.4
5.56,0.75,0.75,1.75,1.75,2.5,0.0,0.75,0.75,0.25,1.75,1.0,0.5,1.0,0.45,0.7,-0.61,209.77,7.3,8.3,0.5,0.75,0.75,1.0,3.0,1.0,0.25,0.0,0.25,0.0,0.75,0.5,0.5,-0.61,0.89,-0.3,154.12,-5.5,28.7
5.58,0.75,1.0,2.25,2.0,2.5,0.75,0.75,0.75,0.0,1.25,1.25,0.5,1.0,0.45,0.77,-0.73,209.14,8.0,16.1,0.75,1.0,0.25,1.25,3.5,0.5,0.25,0.0,0.25,0.0,0.75,0.5,0.5,-0.55,0.83,-0.23,155.2,-5.8,32.5
5.6,1.0,0.75,2.25,1.5,2.5,1.0,1.0,0.75,0.25,1.75,1.0,0.5,1.0,0.33,0.83,-0.67,211.02,7.0,12.4,0.5,0.75,0.5,1.25,3.0,0.0,0.25,0.0,0.25,0.0,0.75,0.5,0.5,-0.48,0.77,-0.17,148.59,-7.9,28.1
5.62,0.75,0.75,2.25,0.0,2.5,1.0,1.0,0.75,0.25,1.5,1.25,0.5,1.0,0.14,0.83,-0.48,207.4,5.8,5.6,1.0,0.5,1.0,0.75,3.25,1.0,0.5,0.0,0.25,0.0,0.75,0.5,0.5,-0.48,0.77,-0.17,150.98,-7.2,30.9
5.64,0.75,0.75,2.0,1.75,2.5,1.0,0.75,0.75,0.25,1.75,1.0,0.5,1.0,-0.05,0.77,-0.36,209.33,5.9,10.9,0.5,0.5,1.0,1.0,3.5,0.5,0.25,0.0,0.0,0.0,0.75,0.5,0.5,-0.48,0.7,-0.17,147.98,-6.9,30.7
5.66,0.75,1.25,2.25,2.0,3.0,1.0,1.0,0.75,0.25,1.25,1.25,0.5,1.0,-0.23,0.77,-0.42,218.18,7.5,18.2,0.5,0.5,0.5,1.25,3.5,0.75,0.25,0.0,0.0,0.0,0.75,0.5,0.5,-0.55,0.7,-0.17,148.78,-4.7,29.9
5.68,0.75,0.5,2.0,2.0,3.0,1.75,1.0,0.75,0.25,1.75,1.0,0.5,1.0,-0.36,0.83,-0.55,226.14,4.6,12.9,1.0,0.5,0.5,0.5,3.25,0.5,0.25,0.0,0.25,0.0,0.75,0.5,0.5,-0.67,0.64,0.14,144.3,-6.4,28.2
5.7,0.75,1.0,2.0,0.25,2.5,0.75,0.75,0.75,0.25,2.0,1.0,0.5,1.0,-0.23,0.89,-0.67,218.4,4.9,5.1,0.5,0.75,0.5,1.0,3.25,0.75,0.25,0.0,0.25,0.0,0.75,0.75,0.5,-0.61,0.58,0.14,145.44,-5.1,24.9
5.72,0.75,1.0,2.0,1.75,2.5,0.25,0.75,0.75,0.25,1.75,1.0,0.5,1.0,-0.17,0.95,-0.8,215.12,7.5,11.3,0.75,0.5,0.5,1.0,3.75,1.0,0.25,0.0,0.0,0.0,0.75,0.75,0.5,-0.61,0.52,0.02,147.94,-4.3,28.1
5.74,0.75,1.25,1.75,2.0,3.0,0.25,0.75,0.75,0.0,1.25,1.0,0.5,1.0,-0.11,0.95,-0.67,210.74,7.5,18.4,0.5,0.5,0.75,1.25,3.5,0.5,0.25,0.0,0.0,0.0,0.75,0.5,0.5,-0.67,0.58,-0.17,149.39,-6.3,30.6
5.76,0.75,1.0,2.0,1.75,2.5,1.0,0.75,0.75,0.0,2.0,1.25,0.75,1.0,-0.05,0.83,-0.61,213.68,5.7,8.5,0.5,1.0,0.75,1.25,2.75,2.0,0.25,0.0,0.25,0.0,0.75,0.5,0.5,-0.61,0.58,-0.17,155.69,-3.7,30.9
5.78,1.0,1.25,2.0,1.75,2.5,1.0,0.75,0.75,0.25,1.75,1.0,0.5,1.0,-0.05,0.77,-0.48,218.87,6.6,15.1,0.5,0.25,0.5,1.25,3.0,0.5,0.25,0.0,0.25,0.0,0.75,0.0,0.5,-0.67,0.52,0.08,147.95,-5.8,32.4
