time,left pressure 0[N/cm虏],left pressure 1[N/cm虏],left pressure 2[N/cm虏],left pressure 3[N/cm虏],left pressure 4[N/cm虏],left pressure 5[N/cm虏],left pressure 6[N/cm虏],left pressure 7[N/cm虏],left pressure 8[N/cm虏],left pressure 9[N/cm虏],left pressure 10[N/cm虏],left pressure 11[N/cm虏],left pressure 12[N/cm虏],left acceleration X[g],left acceleration Y[g],left acceleration Z[g],left total force[N],left center of pressure X[mm],left center of pressure Y[mm],right pressure 0[N/cm虏],right pressure 1[N/cm虏],right pressure 2[N/cm虏],right pressure 3[N/cm虏],right pressure 4[N/cm虏],right pressure 5[N/cm虏],right pressure 6[N/cm虏],right pressure 7[N/cm虏],right pressure 8[N/cm虏],right pressure 9[N/cm虏],right pressure 10[N/cm虏],right pressure 11[N/cm虏],right pressure 12[N/cm虏],right acceleration X[g],right acceleration Y[g],right acceleration Z[g],right total force[N],right center of pressure X[mm],right center of pressure Y[mm]
0.02,8.0,1.75,7.75,5.25,5.5,2.5,1.75,2.25,1.5,3.5,2.75,1.0,1.0,-0.42,0.52,1.7,744.61,13.2,29.9,1.5,1.0,3.0,2.0,3.0,3.5,2.75,5.5,5.0,7.0,7.5,5.5,6.25,0.08,0.14,0.95,830.91,-1.3,-36.4
0.04,7.0,1.5,6.5,4.0,4.75,3.0,1.25,2.25,1.25,2.25,2.75,1.0,0.5,-0.3,0.39,1.7,624.3,12.8,31.2,1.5,1.25,3.0,2.25,3.0,3.75,2.75,6.0,5.25,6.75,7.5,5.5,6.5,0.08,0.14,0.95,882.82,-1.2,-35.2
0.06,6.0,1.5,5.0,3.75,4.5,3.0,1.75,2.0,1.25,1.5,2.5,0.75,0.5,-0.23,0.45,1.64,514.85,12.2,32.2,1.5,1.25,3.0,2.25,3.0,4.0,2.75,6.0,5.25,7.25,7.5,5.5,6.5,0.08,0.14,0.95,909.44,-0.9,-35.2
0.08,3.75,1.25,4.25,2.5,4.5,3.0,2.25,1.75,1.0,2.0,2.5,0.5,0.5,-0.3,0.39,1.7,412.77,9.5,25.5,1.5,1.25,3.0,2.25,3.0,4.75,3.0,6.0,5.25,7.25,7.5,5.25,6.5,0.08,0.14,0.95,919.49,-0.6,-33.9
0.1,2.25,1.5,3.0,2.5,4.5,3.0,2.0,2.0,1.25,1.25,1.5,1.0,0.5,-0.3,-0.23,1.08,338.27,7.1,23.4,1.5,1.25,3.0,2.5,3.0,3.75,3.0,6.0,5.25,7.25,7.5,5.5,6.5,0.08,0.14,0.95,908.13,-1.2,-34.9
0.12,1.75,1.5,1.75,2.5,4.5,2.75,2.25,1.75,1.25,1.0,2.5,1.5,0.75,-0.55,-0.92,0.52,286.94,5.8,13.8,1.5,1.25,3.0,2.75,3.0,4.0,3.0,6.0,5.25,7.0,7.5,5.25,6.25,0.08,0.14,0.95,886.37,-1.3,-33.3
0.14,1.75,1.5,2.5,2.75,4.5,2.5,2.25,1.75,1.0,1.0,2.25,0.75,0.5,-0.8,-1.11,1.02,262.43,7.3,22.1,1.5,1.25,2.75,2.75,3.0,4.0,3.0,6.0,5.5,6.75,7.5,4.75,6.0,0.08,0.14,0.95,859.94,-1.2,-32.5
0.16,1.75,1.5,2.75,2.0,4.75,1.5,2.25,2.25,0.5,0.75,2.5,0.75,0.25,-0.55,-0.73,0.52,249.47,8.3,22.7,1.5,1.25,3.0,2.75,3.0,4.0,3.0,6.0,5.5,6.75,7.5,4.5,6.0,0.08,0.14,0.95,827.79,-1.3,-31.7
0.18,0.5,0.0,1.75,1.25,0.5,1.25,1.75,1.75,0.5,0.5,1.25,0.0,0.0,-0.48,-0.67,0.45,191.15,8.6,10.8,1.5,1.25,3.0,2.25,3.5,4.25,3.0,6.25,5.5,7.0,7.25,4.5,6.0,0.08,0.14,0.95,809.5,-0.8,-31.4
0.2,0.5,0.0,1.75,1.0,0.5,0.5,1.75,1.5,0.5,1.0,1.25,0.0,0.0,-0.48,-0.61,0.64,133.72,10.2,4.4,1.5,1.5,3.0,3.0,4.25,4.5,3.0,6.5,5.5,6.75,7.25,4.5,5.5,0.08,0.14,0.95,798.78,-1.1,-27.0
0.22,1.5,1.5,2.75,2.5,4.5,2.0,2.25,1.75,0.75,1.25,2.0,0.75,0.5,-0.36,-0.55,0.83,157.56,7.5,21.7,1.5,1.25,3.0,2.75,4.5,4.75,3.25,6.75,5.75,6.75,7.5,4.25,5.25,0.08,0.14,0.95,799.66,-0.9,-26.8
0.24,1.75,1.5,2.75,2.25,4.5,2.0,2.25,1.75,0.75,0.5,2.25,0.75,0.5,-0.36,-0.36,0.95,199.83,8.4,24.2,1.75,1.25,3.0,3.25,5.25,5.0,3.25,6.75,6.0,6.75,7.25,4.25,4.75,0.08,0.14,0.95,813.28,-1.2,-23.1
0.26,1.5,1.5,2.5,1.75,4.5,2.0,2.25,1.75,0.75,1.0,2.0,0.75,0.75,-0.36,-0.23,1.08,245.25,6.8,19.6,1.5,1.25,3.0,3.0,5.5,5.0,3.25,6.75,6.25,6.25,7.0,3.5,4.75,0.08,0.14,0.95,817.54,-1.0,-21.8
0.28,1.25,1.5,2.5,2.0,4.5,1.75,2.25,1.75,0.75,1.25,1.75,0.75,0.5,-0.36,-0.05,1.2,273.65,6.9,20.5,1.5,1.5,3.0,3.0,5.75,5.0,3.25,6.75,6.5,6.0,6.75,3.25,4.25,0.08,0.14,0.95,817.91,-1.2,-19.3
0.3,0.5,0.0,2.75,1.0,4.5,0.5,2.25,1.75,0.5,0.5,2.0,0.0,0.0,-0.36,0.08,1.33,264.51,8.8,21.0,1.75,1.5,3.0,3.5,5.75,5.5,3.5,7.0,6.75,5.5,6.75,3.0,3.75,0.08,0.14,0.95,820.12,-1.6,-16.0
0.32,0.5,0.0,0.5,1.0,1.25,0.5,1.75,1.0,0.5,0.5,0.75,0.0,0.0,-0.36,0.2,1.52,209.08,7.3,13.8,2.75,1.5,4.0,3.75,6.0,5.5,3.75,7.25,6.5,5.25,6.5,2.25,3.0,0.08,0.14,0.95,832.84,-3.0,-8.9
0.34,0.5,0.0,1.5,1.0,0.5,0.5,1.75,1.5,0.5,0.5,1.0,0.0,0.0,-0.36,0.33,1.7,158.65,10.8,9.8,3.0,2.25,5.0,5.25,6.5,6.0,4.0,7.0,6.5,5.0,5.75,2.0,2.5,0.08,0.14,0.95,870.4,-4.2,-0.5
0.36,0.5,0.0,1.0,1.0,0.0,0.5,1.75,1.0,0.5,0.0,1.0,0.0,0.0,-0.42,0.52,1.83,110.64,14.2,12.2,4.25,2.0,5.25,5.75,7.5,6.0,4.0,7.0,6.5,4.0,5.0,2.0,2.25,0.08,0.14,0.95,915.56,-5.2,5.3
0.38,0.5,0.0,0.25,1.0,0.75,0.5,1.75,1.0,0.5,1.0,0.75,0.0,0.0,-0.42,0.89,1.89,87.85,5.4,2.7,5.25,2.5,5.25,7.25,7.75,6.0,4.25,6.75,6.25,3.75,4.25,1.5,1.75,0.08,0.14,0.95,965.57,-6.2,12.7
0.4,0.5,0.0,1.0,1.0,0.0,0.5,1.75,1.0,0.5,0.5,0.5,0.0,0.0,-0.86,2.7,2.08,75.97,12.1,12.0,6.5,3.25,6.75,9.25,8.25,6.5,4.25,6.25,5.75,2.75,4.25,1.25,1.25,0.08,0.2,0.95,1034.58,-8.3,21.9
0.42,0.5,0.0,1.0,1.0,0.0,0.5,1.75,0.75,0.5,0.5,0.75,0.0,0.0,0.14,1.45,0.33,76.21,13.2,10.6,7.5,4.0,6.75,10.5,8.75,6.0,4.25,5.5,4.75,2.5,3.25,0.75,1.25,0.08,0.2,0.95,1092.12,-9.3,29.3
0.44,0.5,0.0,0.25,1.0,0.0,0.5,1.5,1.0,0.5,0.5,0.5,0.0,0.0,0.08,2.77,0.83,57.23,7.9,4.7,8.25,4.75,7.75,11.0,9.5,6.25,4.0,4.0,3.0,2.5,3.0,0.75,1.25,0.08,0.2,0.95,1143.96,-10.3,35.7
0.46,0.5,0.0,0.5,1.0,1.25,1.0,1.75,1.5,0.5,0.5,0.75,0.0,0.0,1.2,4.14,-0.11,57.77,4.2,11.8,8.75,5.5,8.25,11.5,10.0,5.75,3.25,2.75,2.0,2.25,2.75,0.75,0.5,0.02,0.2,1.2,1167.88,-11.7,42.7
0.48,0.5,0.0,0.5,1.0,0.0,0.5,1.75,1.5,0.5,0.0,1.25,0.0,0.0,1.83,4.52,-1.17,63.82,9.8,1.2,9.0,5.25,8.75,0.0,10.0,5.0,2.25,2.5,1.25,1.5,2.5,0.75,0.75,0.08,0.2,1.27,1058.35,-11.4,42.7
0.5,0.5,0.0,0.75,1.0,0.0,1.0,1.25,1.75,0.5,0.5,1.25,1.0,0.0,-0.23,-0.8,2.2,84.72,5.9,-14.0,9.75,4.5,8.25,11.0,9.0,2.75,1.75,2.25,1.25,1.5,2.0,0.5,0.5,0.08,0.27,1.27,1002.19,-14.5,48.5
0.52,1.25,0.0,2.5,1.0,4.5,0.75,1.75,3.0,0.5,1.0,2.75,0.75,1.25,0.52,0.58,1.14,160.56,5.2,1.0,10.0,4.0,8.25,8.5,7.75,3.0,1.0,1.5,1.0,0.5,2.0,0.75,0.25,0.14,0.33,1.45,899.64,-15.9,52.0
0.54,1.0,0.0,0.5,1.0,0.0,1.75,1.25,3.75,1.5,3.0,2.5,2.5,1.25,-0.61,0.58,3.45,219.7,-0.4,-40.1,9.75,4.75,7.75,7.25,5.75,2.75,1.0,1.25,1.0,1.0,2.0,0.0,0.5,0.14,0.45,1.64,813.88,-16.4,53.2
0.56,0.5,0.0,1.0,1.0,2.5,1.75,1.75,5.0,1.5,4.5,3.75,2.5,3.0,0.02,0.2,1.14,294.39,-2.2,-38.2,9.0,3.75,6.75,5.5,3.0,2.0,1.5,1.25,0.75,1.0,2.0,0.5,0.5,0.52,0.64,1.83,678.29,-18.0,49.2
0.58,0.0,1.5,0.0,1.0,0.0,2.5,1.25,5.25,2.25,5.0,4.75,3.75,3.25,-0.05,0.2,1.02,360.58,-3.3,-49.8,8.25,3.0,6.0,3.5,2.75,2.25,1.75,1.0,0.75,0.75,2.0,0.5,0.75,0.52,0.7,1.95,553.95,-17.5,46.3
0.6,0.0,0.5,1.25,1.0,0.0,3.25,1.0,6.0,3.0,5.25,5.0,4.75,3.25,-0.11,0.14,0.95,440.94,-2.3,-50.3,7.5,2.25,4.5,3.5,2.5,2.0,1.5,1.0,0.75,0.25,2.0,0.75,0.75,0.45,0.58,1.89,430.69,-17.1,43.7
0.62,0.0,1.5,3.5,2.75,4.25,3.5,1.0,6.25,4.0,6.0,5.75,5.25,4.5,-0.11,0.08,0.95,566.3,0.4,-29.4,5.75,1.5,2.75,3.25,2.75,2.5,1.25,1.0,0.75,1.0,1.75,0.75,0.5,0.2,0.33,2.08,341.26,-12.9,36.2
0.64,0.75,1.5,3.25,3.0,4.75,4.25,3.75,6.25,4.5,6.5,6.5,5.25,5.0,-0.11,0.14,0.95,711.36,1.2,-26.5,3.5,0.25,1.75,2.0,2.75,1.75,1.25,1.0,1.0,1.0,1.75,0.5,0.75,0.27,-0.36,1.27,264.89,-9.8,21.2
0.66,0.5,1.5,2.75,3.25,4.5,4.5,3.75,6.75,5.0,7.0,7.0,5.75,4.75,-0.11,0.08,0.95,841.04,0.7,-29.0,1.5,0.25,2.5,2.0,2.75,1.5,1.25,1.0,0.75,0.75,1.75,0.5,0.5,0.27,-0.73,0.58,206.61,-9.5,18.7
0.68,1.25,1.5,4.25,3.75,4.5,4.5,4.25,7.0,5.25,7.5,7.5,5.75,5.25,-0.11,0.08,0.95,954.36,2.1,-25.8,1.5,0.5,1.75,1.75,2.75,1.75,1.25,1.0,0.75,0.5,1.75,0.5,0.5,0.39,-1.23,1.58,161.38,-7.9,19.0
0.7,1.5,1.5,4.25,3.75,4.5,4.5,4.25,7.25,5.5,7.5,7.75,5.75,5.25,-0.11,0.08,0.95,1030.04,2.2,-25.6,1.25,0.5,1.75,2.0,2.75,1.75,1.5,1.0,0.75,0.0,1.5,0.5,0.5,0.2,-0.86,1.14,139.22,-8.6,23.1
0.72,1.5,1.5,4.25,3.75,4.5,4.5,4.25,7.5,5.75,7.75,8.0,5.75,5.5,-0.11,0.08,0.95,1076.72,2.1,-26.5,1.5,0.5,1.75,1.75,2.75,1.5,1.5,1.0,0.75,1.0,1.75,0.25,0.0,0.02,-0.55,0.58,138.55,-8.5,22.1
0.74,1.5,1.5,4.25,3.75,4.5,4.5,4.25,7.75,5.75,7.75,8.0,5.75,5.25,-0.11,0.08,0.95,1087.94,2.1,-26.2,1.5,0.5,1.75,2.0,2.75,1.5,1.5,1.0,0.75,0.75,1.75,0.75,0.25,-0.05,-0.42,0.58,142.83,-8.7,18.1
0.76,1.75,1.5,4.5,3.75,4.75,4.75,4.25,7.75,6.0,7.75,8.0,5.5,5.25,-0.11,0.08,0.95,1089.82,2.2,-24.5,1.5,0.75,1.5,2.0,2.75,1.75,1.25,1.0,0.75,0.0,2.0,0.5,0.25,-0.17,-0.36,0.77,158.74,-8.8,23.9
0.78,1.75,1.5,5.0,3.75,4.75,5.0,4.5,7.75,6.0,7.25,8.0,5.25,5.25,-0.11,0.08,0.95,1088.22,2.6,-22.8,1.25,0.5,1.75,1.25,2.75,1.5,1.25,1.0,0.75,0.75,1.75,0.5,0.25,-0.11,-0.36,0.89,169.55,-7.7,16.8
0.8,1.75,1.5,4.5,3.75,4.75,5.25,4.5,7.75,6.25,6.75,8.0,5.25,5.0,-0.11,0.08,0.95,1066.27,2.5,-22.5,1.5,0.5,1.5,1.5,2.5,2.0,1.25,1.0,0.75,0.75,1.5,0.25,0.25,-0.11,-0.23,1.02,181.16,-6.9,21.5
0.82,1.75,1.5,4.75,3.75,4.75,5.25,4.75,7.5,6.25,6.5,7.5,5.25,5.0,-0.11,0.08,0.95,1040.99,2.8,-21.4,1.5,0.5,1.5,1.25,2.5,1.5,1.5,1.0,0.75,0.5,1.75,0.25,0.25,-0.17,-0.05,1.08,186.39,-8.4,20.5
0.84,1.75,1.75,4.5,3.75,5.25,5.25,4.75,7.5,6.25,6.5,7.5,4.75,4.5,-0.11,0.08,0.95,1008.69,2.7,-19.1,1.25,0.5,1.5,1.5,2.75,1.25,1.25,1.0,0.75,0.25,1.5,0.5,0.25,-0.11,0.02,1.2,190.83,-8.6,21.4
0.86,2.25,1.5,5.25,3.75,5.75,5.5,4.75,7.5,6.5,6.5,7.25,4.25,3.75,-0.11,0.08,0.95,983.69,3.3,-14.9,1.5,0.5,1.5,0.75,2.5,1.75,1.25,1.0,0.75,1.0,1.5,0.5,0.5,-0.05,0.14,1.39,197.47,-6.1,13.1
0.88,2.0,1.5,5.0,4.0,6.0,5.5,4.75,7.25,6.75,5.25,6.75,4.0,3.25,-0.11,0.08,0.95,957.7,3.7,-12.1,1.25,0.75,1.5,1.25,2.75,1.25,1.25,1.0,0.75,1.0,1.5,0.5,0.5,0.08,0.33,1.52,206.03,-6.9,14.9
0.9,2.0,1.5,5.0,4.0,6.75,5.75,4.75,7.25,6.75,5.25,6.75,4.0,3.25,-0.11,0.08,0.95,948.2,3.5,-11.0,1.25,0.5,1.25,1.0,2.75,1.25,1.5,1.0,0.5,0.0,1.25,0.75,0.5,0.14,0.52,1.7,202.44,-7.8,18.9
0.92,2.25,1.5,5.0,4.25,6.75,6.0,5.0,7.0,7.0,5.25,6.5,3.5,2.5,-0.05,0.08,0.95,935.33,3.9,-7.7,1.25,0.5,1.75,1.75,2.5,1.5,1.5,1.0,0.75,0.5,1.5,0.5,0.5,0.33,0.95,1.89,206.6,-8.4,18.4
0.94,2.25,1.75,5.25,4.5,7.0,6.0,5.0,7.0,7.0,5.25,6.25,2.5,2.0,-0.11,0.08,0.95,930.48,4.1,-3.5,0.75,1.0,1.5,0.75,2.75,2.25,1.25,1.0,0.75,0.75,1.5,0.5,0.5,0.45,1.7,2.14,208.47,-4.2,15.0
0.96,2.25,1.75,5.25,5.0,7.0,6.0,5.0,7.0,7.25,4.5,6.25,2.5,1.5,-0.05,0.08,0.95,923.06,4.7,-1.2,1.0,0.75,1.0,1.0,2.5,1.0,1.25,1.0,0.75,1.0,1.5,0.5,0.25,0.39,2.7,1.7,204.12,-6.1,12.1
0.98,2.75,1.75,5.25,5.75,7.0,6.25,5.0,7.0,7.25,4.25,6.0,2.25,1.5,-0.05,0.08,0.95,926.98,5.0,1.4,0.75,0.5,1.25,1.0,2.75,1.75,1.25,1.0,0.75,0.0,1.5,0.5,0.25,-0.98,3.83,-0.36,197.9,-6.0,18.7
1.0,4.0,1.75,6.0,6.0,7.0,6.5,5.5,7.0,7.25,3.5,5.75,2.25,1.25,-0.05,0.08,0.95,943.86,6.3,6.1,0.5,0.5,1.25,1.25,2.75,1.25,1.25,1.0,0.75,1.0,1.75,0.5,0.25,-2.05,4.14,-0.48,195.94,-5.2,9.0
1.02,4.75,1.75,6.25,7.5,7.5,7.0,5.5,6.75,7.25,3.5,4.75,1.75,1.25,-0.05,0.08,0.95,980.44,6.7,11.6,0.5,0.5,0.5,0.5,2.75,1.75,1.0,1.0,0.75,2.25,2.0,1.5,1.25,0.02,-0.3,0.27,202.39,0.4,-18.1
1.04,6.0,1.75,7.0,7.75,8.75,7.25,5.75,6.25,6.75,3.0,3.75,1.5,1.25,-0.05,0.08,0.95,1029.39,7.6,18.2,0.0,0.5,0.75,1.5,2.75,2.5,1.25,2.5,1.5,3.25,3.0,3.0,2.75,-0.98,0.77,1.89,244.73,1.5,-32.1
1.06,6.75,1.75,8.0,9.5,8.75,7.0,5.75,6.25,6.0,3.0,3.75,0.75,1.25,-0.05,0.08,0.95,1086.64,8.7,22.8,0.25,0.0,0.25,0.25,0.0,1.25,1.5,2.5,2.0,5.25,4.0,4.25,3.25,0.02,0.33,1.08,285.88,2.0,-66.3
1.08,7.75,1.75,8.75,12.0,9.75,7.0,5.25,5.25,4.5,3.0,3.0,1.0,1.25,-0.11,0.08,0.95,1152.95,9.7,28.8,1.5,0.5,1.25,0.0,3.0,2.75,2.25,3.75,3.0,5.5,5.25,4.0,2.75,0.02,0.14,0.95,362.3,-0.2,-35.8
1.1,8.5,2.5,9.75,13.5,10.5,6.25,4.75,3.75,3.0,3.0,2.75,0.25,1.0,-0.11,0.14,1.27,1208.78,11.3,37.1,1.0,0.5,2.75,1.25,2.75,3.25,2.25,4.0,3.5,6.0,6.25,4.75,4.75,0.08,0.2,0.89,467.72,-1.0,-37.0
1.12,9.5,1.5,10.0,12.0,10.5,5.5,2.25,3.75,2.25,3.0,2.5,0.75,1.0,-0.11,0.14,1.45,1216.34,11.5,36.9,1.5,1.25,3.0,1.75,3.0,2.75,2.75,5.0,4.75,6.75,6.75,5.75,6.0,0.08,0.2,0.95,613.15,-1.8,-36.4
1.14,9.75,1.75,10.5,9.25,9.0,4.5,1.0,3.5,1.5,2.75,2.75,0.75,1.0,-0.23,0.27,1.77,1153.14,12.6,37.6,1.5,1.0,3.0,2.0,3.0,2.75,2.75,5.25,5.25,7.25,7.5,6.0,6.5,0.08,0.14,0.95,746.43,-1.6,-38.6
1.16,9.75,1.75,9.75,7.5,7.75,3.0,0.5,2.25,1.5,2.5,2.5,0.75,1.0,-0.48,0.45,1.89,1027.33,14.3,39.1,1.5,1.25,3.0,2.0,3.0,3.75,3.0,5.75,5.25,7.5,8.0,6.25,7.0,0.08,0.14,0.95,865.84,-1.1,-38.0
1.18,9.0,1.75,8.75,5.75,6.75,3.0,1.25,1.75,1.25,2.0,2.5,0.75,1.0,-0.61,0.58,2.14,876.6,14.6,39.1,1.5,1.25,3.0,2.0,3.0,3.75,3.25,6.0,5.5,7.75,8.25,6.0,7.0,0.08,0.14,0.95,947.57,-1.0,-37.9
1.2,8.0,1.75,8.25,4.75,5.25,3.0,1.75,1.75,1.0,2.25,2.5,0.75,0.5,-0.55,0.52,2.14,730.08,14.8,37.9,1.5,1.25,3.0,2.0,3.0,4.0,3.25,6.0,5.5,7.25,8.25,5.75,7.0,0.08,0.14,0.95,987.12,-1.1,-36.9
1.22,6.5,1.5,6.25,3.75,5.0,3.0,2.0,1.75,1.0,1.75,2.5,0.75,0.5,-0.55,0.45,2.14,593.17,13.2,34.7,1.5,1.25,3.0,2.0,3.0,4.0,3.25,6.0,5.5,7.5,7.75,5.75,7.0,0.08,0.14,0.95,993.08,-0.9,-36.8
1.24,4.75,1.5,4.0,2.75,4.25,3.0,2.0,1.75,1.0,1.75,2.5,0.75,0.5,-0.55,0.02,2.14,463.46,10.4,27.8,1.5,1.25,3.0,2.5,3.25,4.0,3.25,6.0,5.5,7.25,7.75,5.5,6.5,0.08,0.14,0.95,976.46,-1.2,-34.2
1.26,2.0,0.0,2.25,1.0,4.25,0.5,2.0,1.5,0.5,0.5,1.25,0.75,0.0,-0.36,-1.11,1.27,312.75,10.5,25.0,1.5,1.25,3.0,2.0,3.25,4.0,3.0,6.0,5.5,7.0,7.75,5.5,6.25,0.08,0.14,0.95,942.02,-1.1,-34.7
1.28,2.25,1.5,1.25,2.75,2.5,2.75,1.25,1.0,1.0,1.5,1.5,0.75,0.0,-1.05,-1.48,1.52,236.22,6.9,24.6,1.5,1.0,3.0,1.5,3.0,4.0,3.0,6.0,5.25,6.75,7.5,5.5,6.0,0.08,0.14,0.95,889.94,-1.0,-36.0
1.3,1.75,1.5,2.75,2.5,4.5,2.5,2.0,1.75,1.0,1.5,2.0,0.75,0.5,-0.86,-1.05,0.7,201.76,6.8,21.1,1.5,1.0,3.0,2.0,3.0,3.5,3.0,6.0,5.25,6.75,7.5,5.5,6.0,0.08,0.14,0.95,847.75,-1.4,-35.7
1.32,0.75,0.0,1.5,1.0,0.5,0.5,1.5,1.5,0.5,0.5,1.25,0.0,0.0,-0.48,-0.73,0.2,130.78,11.2,9.5,1.5,1.25,3.0,2.25,3.0,3.75,2.75,6.0,5.5,6.75,7.5,5.5,6.0,0.08,0.14,0.95,811.13,-1.4,-34.5
1.34,0.75,0.0,1.0,1.0,0.0,0.5,1.75,1.0,0.5,0.5,1.25,0.0,0.0,-0.23,-0.61,0.39,70.57,12.7,6.0,1.5,1.25,3.0,2.25,3.0,4.75,3.0,6.0,5.5,6.75,7.5,5.5,6.0,0.08,0.14,0.95,793.42,-1.0,-33.1
1.36,0.5,0.0,1.75,1.0,0.0,0.5,1.75,0.25,0.5,0.5,0.0,0.0,0.0,-0.11,-0.55,0.83,13.11,19.3,32.1,1.5,1.25,3.0,2.0,3.25,4.0,2.75,6.0,5.75,6.75,7.75,5.5,6.0,0.08,0.14,0.95,784.66,-1.3,-34.3
1.38,0.5,0.0,1.5,1.0,0.75,0.5,1.25,1.25,0.5,0.5,0.5,0.0,0.0,0.02,-0.48,0.95,0.0,10.5,17.8,1.5,1.25,3.0,2.5,3.0,4.5,2.75,6.25,5.75,7.0,7.75,5.5,6.0,0.08,0.14,0.95,791.14,-1.1,-33.5
1.4,0.5,0.0,1.75,1.0,1.25,0.5,1.25,0.5,0.5,0.5,0.75,0.0,0.0,-0.05,-0.36,1.02,0.0,13.0,24.2,1.5,1.25,3.0,2.75,3.25,4.75,2.75,6.5,5.75,7.25,7.75,5.5,6.0,0.08,0.14,0.95,804.49,-0.9,-32.6
1.42,0.5,0.0,1.25,1.25,0.75,1.0,1.75,1.5,0.5,2.0,0.75,0.75,0.0,-0.05,-0.17,1.02,41.17,4.8,-5.6,1.5,1.25,3.0,2.0,5.0,5.0,2.75,6.75,6.25,7.0,7.75,5.5,6.0,0.08,0.14,0.95,830.16,-0.5,-30.5
1.44,0.5,0.0,1.0,1.0,0.75,0.5,1.5,1.0,0.5,0.5,0.75,0.0,0.0,-0.11,0.02,1.2,58.79,9.9,13.7,1.5,1.5,3.0,2.75,4.75,5.0,2.75,6.75,6.25,6.75,7.75,5.25,5.75,0.08,0.14,0.95,850.29,-0.9,-28.3
1.46,0.5,0.0,1.0,1.0,0.75,0.5,1.5,0.5,0.5,0.5,1.0,0.0,0.0,-0.11,0.14,1.39,71.0,11.8,14.4,1.75,1.5,3.0,3.0,5.5,5.0,3.0,6.75,6.5,6.25,7.5,4.5,5.0,0.08,0.14,0.95,863.0,-1.3,-23.3
1.48,0.5,0.0,1.25,1.0,0.75,0.5,1.75,0.0,0.5,0.5,0.5,0.0,0.0,-0.17,0.2,1.52,74.9,15.5,27.4,2.0,1.5,3.0,3.25,5.75,5.5,3.25,6.75,6.75,5.25,7.5,3.75,4.5,0.08,0.14,0.95,866.9,-1.8,-18.8
1.5,0.5,0.0,2.0,1.0,0.75,0.5,1.5,0.0,0.5,0.5,0.5,0.0,0.0,-0.36,0.39,1.83,85.26,17.7,31.0,3.0,1.5,3.0,3.25,5.75,6.0,3.25,6.75,6.75,4.75,6.75,3.5,3.25,0.08,0.14,0.95,862.2,-2.5,-12.7
1.52,0.5,0.0,1.25,1.0,0.0,0.5,1.5,0.0,0.5,0.5,0.0,0.0,0.0,-0.48,0.52,2.02,74.3,18.9,32.8,4.25,2.0,5.25,4.5,6.75,6.0,3.75,6.75,6.75,3.5,6.0,2.0,2.5,0.08,0.14,0.95,883.18,-5.3,2.2
1.54,1.25,1.25,3.0,1.25,4.25,1.0,1.75,1.75,0.5,1.0,1.75,0.75,0.5,-0.55,0.83,2.2,149.65,8.4,20.0,5.5,2.0,5.25,5.5,7.5,6.0,4.25,6.0,6.5,2.5,5.0,2.0,1.75,0.08,0.14,0.95,904.34,-6.9,10.8
1.56,1.25,1.5,2.5,1.5,2.5,1.75,2.0,1.75,0.5,0.75,2.0,0.75,0.5,-0.05,1.52,-0.8,212.59,8.3,17.4,6.75,2.0,6.75,7.5,7.75,6.25,4.5,5.25,5.75,2.5,4.25,1.25,1.25,0.08,0.14,0.95,947.2,-8.8,20.5
1.58,1.25,1.5,2.5,1.5,5.25,0.5,2.25,1.5,0.75,1.0,1.75,0.75,0.5,-0.55,2.08,0.83,265.95,8.5,22.1,7.75,2.25,7.75,9.25,8.75,5.75,4.75,4.0,4.25,2.0,3.25,0.75,1.25,0.08,0.14,0.95,986.5,-10.6,30.5
1.6,0.5,0.0,0.75,1.0,0.0,0.5,1.75,0.5,0.5,0.25,0.0,0.0,0.0,-0.05,3.02,1.2,228.92,15.2,27.9,8.5,2.25,9.0,11.0,9.25,4.0,4.25,2.5,2.75,1.75,3.0,0.75,0.25,0.14,0.2,1.08,1009.45,-13.7,39.9
1.62,0.5,0.0,1.0,1.0,0.0,0.25,1.5,1.0,0.5,0.5,1.25,0.0,0.5,1.39,4.14,-0.3,191.65,10.9,-6.4,9.0,2.25,10.0,0.0,9.0,4.5,3.25,2.5,2.0,1.0,3.0,0.25,0.5,0.2,0.27,1.52,921.26,-13.5,40.3
1.64,1.25,1.25,1.0,1.5,0.5,1.75,1.75,1.75,0.75,2.0,2.75,1.0,0.75,1.95,4.89,-2.11,184.11,5.0,-8.0,9.5,2.0,10.5,9.0,8.25,0.5,1.5,2.0,1.25,1.25,2.5,0.75,1.0,0.27,0.33,1.58,869.07,-17.2,44.0
1.66,0.5,0.0,2.5,1.25,3.5,2.25,2.0,1.75,0.75,3.0,1.25,2.5,0.5,-0.36,-0.61,1.2,220.54,3.1,-7.0,9.5,1.25,9.25,7.25,5.75,2.75,1.25,1.0,1.0,1.0,2.5,0.5,0.5,0.33,0.39,1.7,770.43,-17.5,46.6
1.68,1.25,0.25,2.5,1.25,0.0,2.25,2.25,3.75,2.0,4.5,4.0,3.0,2.75,-0.36,0.52,1.89,286.78,2.5,-35.8,8.5,1.5,8.5,5.0,3.0,1.5,1.75,1.0,1.0,1.0,2.0,0.5,0.25,0.39,0.64,2.08,653.37,-20.2,47.1
1.7,1.0,0.0,0.0,1.0,0.5,2.0,0.75,4.5,2.75,4.25,4.25,3.0,3.0,-0.05,0.14,0.95,342.03,-2.3,-49.9,7.5,1.0,7.0,3.25,2.5,1.0,1.75,1.0,1.0,1.0,2.0,0.5,0.25,0.39,0.58,2.08,515.83,-20.3,43.2
1.72,0.0,1.0,0.0,0.25,3.5,3.0,2.25,5.25,3.5,6.0,5.75,4.0,3.25,-0.11,0.14,0.95,427.85,-3.1,-42.1,6.0,0.75,5.25,3.5,1.75,2.0,1.75,1.0,1.0,0.75,2.0,0.5,0.25,0.27,0.52,2.64,399.28,-17.8,39.0
1.74,0.5,0.25,4.25,3.25,2.25,4.0,3.75,6.25,4.5,6.5,5.75,5.0,4.5,-0.11,0.14,0.95,551.45,1.9,-31.1,3.25,0.75,3.0,3.25,2.75,0.25,1.5,1.0,1.0,0.75,2.0,0.5,0.5,0.52,-0.3,2.02,300.04,-15.0,28.1
1.76,1.5,1.75,4.5,4.0,3.75,4.5,3.75,7.0,5.0,7.75,7.0,5.25,5.0,-0.11,0.08,0.95,728.74,2.3,-24.1,1.75,0.5,2.75,2.0,2.75,0.0,1.5,1.0,0.75,1.25,2.0,0.75,0.5,0.77,-0.86,1.14,231.01,-12.4,14.4
1.78,1.25,1.25,4.75,3.75,4.25,4.5,4.25,7.25,5.25,8.0,7.5,6.25,6.0,-0.11,0.08,0.95,891.0,2.0,-28.1,1.5,0.75,2.5,2.0,2.75,0.25,1.5,1.0,0.75,0.75,2.0,0.5,0.5,1.39,-1.05,1.27,179.49,-12.1,18.8
1.8,1.75,1.5,4.5,3.75,4.75,4.5,4.25,7.5,5.25,8.25,7.75,6.25,6.0,-0.11,0.08,0.95,1039.6,2.0,-26.7,1.5,0.75,2.5,2.0,2.75,1.0,1.5,1.0,0.75,0.5,2.0,0.5,0.5,0.95,-0.98,0.95,150.72,-11.0,20.8
1.82,1.25,1.5,4.25,3.5,4.75,4.5,3.75,8.0,5.0,8.5,7.75,6.25,6.25,-0.11,0.08,0.95,1123.2,1.1,-29.1,1.5,0.5,2.25,1.5,2.75,1.0,1.25,1.0,0.75,1.25,1.75,0.5,0.5,0.2,-0.67,0.64,139.88,-9.0,14.7
1.84,1.5,1.5,4.25,3.25,4.5,4.5,3.5,8.25,4.75,8.5,7.5,6.0,6.25,-0.11,0.08,0.95,1156.92,1.0,-29.0,1.5,0.5,1.75,1.75,2.75,0.5,1.25,1.0,0.75,0.0,1.75,0.75,0.5,0.08,-0.55,0.58,138.11,-11.3,18.8
1.86,1.25,1.5,4.0,3.75,4.75,5.25,3.25,8.5,4.5,8.25,7.5,6.0,6.0,-0.11,0.08,0.95,1139.31,0.5,-27.6,1.5,0.5,1.75,1.75,2.75,0.25,1.5,1.0,0.75,0.5,1.75,0.5,0.5,0.02,-0.48,0.7,145.07,-11.1,17.6
1.88,1.5,1.5,4.0,3.75,4.75,5.25,3.25,8.75,4.5,8.0,6.75,5.5,6.0,-0.11,0.08,0.95,1102.39,0.4,-25.8,1.25,0.5,1.75,1.75,2.5,0.25,1.25,1.0,0.75,0.75,2.0,0.75,0.25,0.14,-0.42,0.83,146.05,-10.8,12.4
1.9,1.5,1.5,3.75,3.75,4.75,5.75,3.5,8.5,4.5,7.75,6.5,5.25,6.0,-0.11,0.08,0.95,1066.6,0.2,-24.8,1.0,0.5,1.5,1.75,2.75,0.25,1.5,1.0,0.5,1.0,1.75,0.5,0.25,0.2,-0.3,0.95,157.39,-9.3,14.1
1.92,1.25,1.5,3.75,3.75,5.25,6.0,3.5,8.25,4.5,7.75,6.25,5.25,5.25,-0.11,0.08,0.95,1025.26,0.1,-23.0,1.25,0.5,1.75,1.0,2.75,0.5,1.75,1.0,0.75,0.75,2.0,0.75,0.25,0.2,-0.11,1.02,171.8,-10.0,11.4
1.94,1.5,1.5,4.0,3.75,6.0,6.0,3.5,8.75,4.5,7.75,6.25,4.75,5.25,-0.11,0.08,0.95,1001.91,0.2,-20.6,1.25,0.5,1.75,1.5,2.75,0.75,1.5,1.0,0.75,1.0,1.5,0.75,0.25,0.27,0.08,1.14,185.72,-9.1,14.6
1.96,1.75,1.5,4.25,3.75,5.75,6.25,3.75,8.75,4.5,7.0,6.25,4.25,5.0,-0.11,0.08,0.95,967.45,0.6,-18.0,1.25,0.5,1.75,1.25,2.75,0.5,1.5,1.0,0.75,0.75,1.5,0.25,0.25,0.33,0.27,1.33,191.86,-9.9,19.6
1.98,1.75,1.5,4.25,3.75,5.75,6.75,3.75,9.0,4.5,6.5,6.0,4.0,4.5,-0.11,0.08,0.95,939.73,0.6,-15.9,1.5,0.5,1.75,1.5,2.75,0.25,1.5,1.0,0.75,1.0,1.5,0.5,0.5,0.33,0.33,1.45,200.67,-10.1,15.2
2.0,1.75,1.5,4.5,3.75,6.5,6.75,3.5,8.75,4.5,6.5,5.5,4.0,3.5,-0.11,0.14,0.95,917.5,0.9,-12.4,1.0,0.75,1.75,1.25,2.75,0.0,1.25,1.0,0.75,0.75,1.5,0.5,0.5,0.33,0.45,1.77,200.11,-10.0,14.4
2.02,1.75,1.5,4.5,3.75,7.0,7.25,4.0,9.0,4.75,6.0,5.0,3.0,3.25,-0.11,0.14,0.95,906.83,0.7,-8.4,1.25,0.5,1.75,1.25,2.75,1.0,1.25,1.0,0.75,0.5,1.5,0.5,0.5,0.39,0.89,1.77,201.79,-8.6,17.1
2.04,1.75,1.75,4.75,4.25,7.0,7.25,4.25,9.25,5.0,5.25,4.75,2.5,3.0,-0.11,0.08,0.95,902.52,1.3,-4.8,1.25,0.5,1.5,1.25,2.75,1.25,1.25,1.0,0.75,0.5,1.75,0.75,0.5,0.58,1.52,1.7,203.92,-7.7,12.9
2.06,2.0,1.5,4.75,5.25,7.0,8.0,4.5,9.5,5.25,5.25,4.75,2.5,2.5,-0.11,0.08,0.95,918.35,1.5,-2.6,1.25,0.5,1.5,1.0,2.75,1.0,1.25,1.0,0.75,0.5,1.5,0.5,0.25,0.45,2.14,1.77,203.83,-8.3,17.9
2.08,2.0,1.75,4.75,5.75,7.75,8.25,4.25,9.5,5.25,5.25,4.75,2.5,2.0,-0.11,0.14,0.95,946.13,1.6,0.0,1.25,0.5,1.25,1.5,2.5,0.75,1.25,1.0,0.75,1.0,1.25,0.5,0.5,-0.23,2.45,1.45,203.03,-7.6,13.4
2.1,2.25,1.5,4.75,6.5,8.75,9.0,4.25,9.25,5.0,4.5,4.5,2.5,1.5,-0.11,0.14,0.95,978.75,1.8,4.4,1.25,0.5,1.75,1.25,2.5,1.0,1.25,1.0,1.0,0.75,0.75,0.25,0.5,-1.17,2.95,0.95,200.46,-8.4,20.9
2.12,4.5,1.75,4.75,7.5,10.0,9.5,4.25,8.75,4.25,3.75,2.75,1.75,1.5,-0.11,0.14,0.95,1019.33,2.8,15.2,1.25,0.5,1.5,1.25,2.25,1.75,1.25,1.0,0.75,0.75,1.75,0.5,0.5,-2.55,4.02,0.02,203.52,-6.7,12.6
2.14,6.0,1.75,5.0,9.0,11.5,9.75,3.5,8.5,3.5,3.5,2.75,1.25,1.25,-0.11,0.14,0.95,1076.98,3.6,21.7,0.75,0.5,1.0,0.5,2.75,1.5,1.0,1.0,0.75,0.75,2.0,0.0,0.75,-2.48,4.64,-0.55,199.02,-3.2,6.8
2.16,7.25,1.75,5.0,11.0,13.0,9.75,2.0,7.5,2.0,3.25,2.5,0.75,1.25,-0.11,0.14,0.95,1135.38,4.2,28.8,1.0,0.5,0.5,0.5,2.75,2.0,1.0,1.0,0.75,2.5,0.75,1.0,2.0,0.2,-0.36,0.58,206.59,1.7,-12.1
2.18,8.0,3.0,5.5,12.0,14.5,10.0,2.5,6.5,1.25,3.0,3.0,0.75,1.25,-0.11,0.14,1.08,1219.85,5.2,33.3,0.5,0.5,0.25,0.5,2.75,2.75,1.0,2.25,0.75,4.5,2.5,2.5,3.5,-0.55,0.7,1.7,244.43,4.7,-37.1
2.2,9.0,1.75,5.25,11.5,14.5,9.75,1.25,5.5,1.25,3.0,2.5,0.75,1.25,-0.17,0.2,1.2,1258.25,5.4,34.5,0.75,0.5,0.0,1.25,2.75,2.5,1.0,3.75,1.5,5.25,4.0,3.5,5.5,-0.17,0.7,1.52,311.81,3.9,-44.8
2.22,9.75,3.25,5.0,11.5,14.0,9.25,0.0,4.5,1.0,3.0,2.25,0.75,1.0,-0.17,0.2,1.39,1270.58,6.2,38.8,0.0,0.75,1.0,0.0,1.25,1.5,1.0,4.75,1.25,5.5,4.25,4.5,5.5,-0.05,0.2,1.08,381.86,3.7,-58.0
2.24,10.5,3.25,4.75,9.0,13.0,8.25,0.0,3.25,0.75,3.0,2.0,0.75,1.0,-0.23,0.27,1.52,1206.92,7.0,40.7,0.0,0.0,0.0,0.0,0.0,1.25,1.0,4.0,2.5,6.0,4.75,5.0,5.5,0.08,0.2,0.95,439.27,4.3,-73.7
2.26,10.5,3.25,4.25,7.0,10.5,7.25,0.0,3.0,0.5,2.75,1.75,0.75,0.75,-0.42,0.45,2.02,1084.47,7.6,41.8,1.5,0.75,0.5,0.5,0.0,2.75,2.0,5.5,3.5,7.75,6.75,6.0,6.5,0.08,0.2,0.95,540.45,1.8,-56.8
2.28,9.75,3.0,3.5,5.75,8.75,5.5,0.0,3.0,0.5,2.0,2.0,0.75,1.0,-0.73,0.7,2.45,918.31,8.2,40.0,1.5,1.0,2.25,1.25,3.0,2.75,2.25,6.0,4.25,7.75,7.5,6.5,7.25,0.08,0.2,0.95,672.94,0.0,-43.9
2.3,8.0,1.5,2.75,3.75,7.0,3.0,0.5,2.5,0.5,0.25,2.0,0.75,0.5,-0.8,0.64,2.58,700.79,10.5,41.9,1.5,1.0,2.75,1.75,2.75,3.75,2.25,6.25,4.75,8.0,8.25,7.0,8.0,0.08,0.14,0.95,825.73,-0.1,-43.1
2.32,6.75,1.75,2.5,3.75,6.25,3.0,1.0,1.5,0.5,0.5,1.5,0.75,0.25,-0.55,0.45,2.64,523.07,10.8,44.5,1.5,1.0,2.75,1.75,3.0,4.0,2.5,6.75,5.25,8.0,8.25,6.5,8.0,0.08,0.14,0.95,948.32,0.0,-41.5
2.34,4.75,0.0,0.25,0.0,5.75,1.75,1.0,1.5,0.5,2.0,1.75,0.0,0.25,-0.48,0.02,2.95,346.19,4.3,25.2,1.5,1.0,3.0,2.0,3.0,4.0,2.75,6.75,5.25,8.0,8.25,6.5,7.75,0.08,0.14,0.95,1025.74,-0.3,-40.2
2.36,2.5,0.5,0.25,0.0,4.75,0.25,1.0,1.5,0.5,0.75,1.25,0.5,0.0,-0.36,-1.36,1.64,229.6,5.5,24.0,1.25,1.0,2.75,1.5,3.0,4.5,2.75,6.75,5.25,7.75,8.0,6.25,7.25,0.08,0.14,0.95,1036.85,0.2,-40.3
2.38,2.0,0.0,0.0,0.25,3.5,0.25,1.0,1.25,0.5,0.5,0.75,0.0,0.0,-0.11,-1.67,1.52,115.04,5.2,27.9,1.5,1.0,2.75,1.75,3.0,4.0,2.75,6.75,5.25,7.5,7.75,5.75,7.0,0.08,0.14,0.95,1012.01,-0.2,-38.6
2.4,1.25,0.0,0.0,1.0,0.0,0.25,1.0,0.0,0.25,0.5,1.0,0.0,0.0,-0.23,-1.23,1.64,6.49,16.0,16.3,1.5,0.75,2.75,2.0,3.0,4.0,2.75,6.5,5.25,7.0,7.5,5.5,6.5,0.08,0.14,0.95,959.85,-0.5,-37.3
2.42,1.0,0.0,0.0,1.0,0.0,0.25,1.0,1.5,0.5,0.75,0.0,0.0,0.0,-0.11,-0.92,0.7,0.0,5.4,7.2,1.5,0.75,3.0,2.75,3.25,3.75,2.75,6.0,5.25,6.75,7.5,4.75,6.0,0.08,0.14,0.95,898.45,-1.2,-33.3
2.44,2.25,1.0,2.75,1.75,3.5,2.75,1.25,1.5,0.75,0.5,1.5,0.0,0.5,-0.3,-0.73,0.33,0.0,7.9,31.2,1.5,1.25,3.0,2.75,3.25,4.0,3.0,6.0,5.25,6.0,6.75,4.5,5.0,0.08,0.14,0.95,831.43,-1.7,-28.3
2.46,0.75,0.0,0.5,0.25,0.0,0.25,1.0,1.5,0.5,0.5,0.5,0.0,0.0,-0.48,-0.61,0.33,0.0,7.1,-2.9,1.75,1.5,3.0,3.0,4.25,4.25,3.25,6.0,5.5,5.25,6.75,3.5,4.5,0.08,0.14,0.95,786.71,-2.1,-21.4
2.48,0.5,0.0,0.5,1.0,0.0,0.25,1.0,1.0,0.5,0.5,0.75,0.0,0.0,-0.48,-0.55,0.52,8.95,9.7,1.5,1.5,1.25,3.0,3.75,5.25,4.5,3.25,6.0,5.5,5.25,6.0,2.75,3.25,0.08,0.14,0.95,744.47,-2.1,-14.9
2.5,0.75,0.0,0.75,0.75,0.0,0.25,1.5,0.5,0.5,0.5,0.5,0.0,0.0,-0.42,-0.48,0.83,0.29,15.5,14.6,2.0,1.25,3.5,3.75,5.75,4.75,3.25,6.0,5.5,4.0,5.0,2.25,2.75,0.08,0.14,0.95,704.44,-3.0,-7.3
2.52,0.5,0.0,0.75,0.5,0.0,0.25,1.5,0.0,0.25,0.5,0.0,0.0,0.0,-0.42,-0.36,1.02,0.58,19.6,29.8,2.25,1.5,4.75,4.25,5.75,4.75,3.5,6.0,5.5,3.5,5.0,2.0,2.25,0.08,0.14,0.95,692.08,-4.7,-1.5
2.54,0.5,0.0,0.25,0.75,0.0,0.25,1.5,0.0,0.25,0.5,0.75,0.0,0.0,-0.36,-0.11,1.08,2.88,15.3,8.2,3.0,1.75,5.25,5.25,5.75,5.5,4.0,6.0,5.75,3.5,4.75,2.0,1.75,0.08,0.14,0.95,714.83,-5.6,3.9
2.56,0.5,0.0,0.25,0.5,0.0,0.25,1.25,0.0,0.5,0.5,0.75,0.0,0.0,-0.42,0.08,1.14,16.2,14.5,1.1,4.25,1.75,5.25,6.25,6.75,5.75,4.25,6.0,5.5,3.0,4.25,1.25,1.25,0.08,0.14,0.95,757.39,-6.5,12.5
2.58,0.5,0.0,0.5,0.0,0.0,0.25,1.0,0.0,0.25,0.5,0.5,0.0,0.0,-0.48,0.2,1.39,29.2,15.9,4.9,4.5,2.0,6.25,7.5,7.5,6.0,4.25,5.75,5.5,3.0,3.75,1.25,1.25,0.08,0.2,0.95,823.14,-7.2,16.8
2.6,0.5,0.0,0.25,0.25,0.0,0.25,1.25,0.0,0.25,0.25,0.75,0.0,0.0,-0.55,0.33,1.64,30.56,16.9,5.8,6.0,2.0,7.0,9.0,7.75,6.25,4.5,5.25,5.25,3.5,3.25,1.0,1.25,0.08,0.14,0.95,907.33,-8.4,21.7
2.62,0.5,0.0,0.25,0.75,0.0,0.25,1.25,0.0,0.25,0.0,0.25,0.0,0.0,-0.67,0.64,2.08,32.14,20.9,36.5,6.75,2.25,7.75,11.0,8.75,6.25,4.5,5.25,4.5,2.25,3.0,0.5,1.25,0.08,0.14,0.95,998.22,-9.5,29.2
2.64,0.25,0.0,0.25,0.0,0.75,0.25,1.5,0.0,0.25,0.0,0.25,0.0,0.0,-0.86,1.14,2.45,32.11,13.7,30.3,7.5,2.5,8.0,12.5,9.25,6.25,4.5,4.0,3.25,2.5,3.0,0.5,1.25,0.08,0.2,0.95,1079.5,-10.4,33.5
2.66,0.5,0.0,0.25,1.0,0.0,0.25,1.25,0.0,0.0,0.0,0.25,0.0,0.0,-1.05,1.83,2.83,28.41,21.3,45.0,8.25,2.75,8.75,14.0,10.0,5.5,4.0,3.75,2.0,1.5,2.75,0.5,1.25,0.02,0.2,0.95,1145.31,-11.7,39.5
2.68,0.25,0.0,1.75,0.0,1.25,0.25,1.75,0.0,0.25,0.0,0.0,0.0,0.0,-0.67,3.08,0.64,38.69,20.2,48.2,9.0,1.75,8.75,14.0,11.5,5.0,3.25,2.5,1.5,1.5,2.25,0.75,1.0,0.02,0.2,1.08,1173.87,-12.4,42.7
2.7,0.5,0.0,0.25,0.75,0.0,0.25,1.25,0.0,0.25,0.25,0.0,0.0,0.0,-0.67,4.27,0.08,52.99,18.5,36.2,9.25,3.0,9.0,0.0,11.5,0.0,2.25,2.5,1.0,1.5,2.0,0.75,1.0,0.08,0.2,1.27,1024.27,-14.6,42.3
2.72,0.75,1.25,2.25,1.0,4.5,1.5,1.75,0.25,0.25,0.5,2.0,0.0,0.0,2.33,6.77,-1.17,123.09,8.6,34.5,10.0,3.0,9.0,13.5,11.5,2.75,1.25,1.25,0.75,0.0,1.5,0.75,1.0,0.14,0.27,1.2,993.75,-15.2,52.8
2.74,1.25,0.75,0.25,0.5,0.0,0.5,1.0,1.0,0.5,1.0,1.75,0.75,0.75,3.83,4.58,-0.8,144.79,6.6,-17.2,11.0,3.0,8.75,11.0,10.0,4.25,0.75,1.0,0.75,0.5,1.5,0.5,0.75,0.08,0.33,1.39,941.33,-14.9,53.6
2.76,0.75,0.0,1.75,0.25,4.5,0.25,1.75,1.25,0.25,0.5,0.5,0.75,0.0,-0.8,-0.48,3.08,182.5,7.2,23.5,11.0,2.5,8.75,9.0,7.75,2.75,1.0,1.0,0.75,0.75,2.0,0.5,0.5,0.14,0.45,1.77,893.37,-16.9,52.4
2.78,0.5,0.0,0.25,0.0,0.75,0.25,1.75,3.5,0.5,2.25,2.5,2.5,1.25,0.7,0.89,0.52,204.61,-0.8,-51.8,9.75,2.0,7.75,7.25,5.75,2.75,1.25,1.0,1.0,0.75,0.75,0.5,0.75,0.45,0.7,2.2,779.67,-17.0,52.1
2.8,0.25,1.5,0.0,1.75,0.0,3.5,1.0,5.75,1.25,5.0,2.0,4.0,3.0,0.45,1.02,3.14,276.95,-5.1,-40.9,8.25,1.75,7.0,5.5,3.0,2.5,1.75,1.0,0.75,0.5,0.75,0.5,0.5,0.64,0.83,2.2,636.74,-18.6,52.0
2.82,0.0,1.75,0.0,1.75,0.0,4.0,0.0,6.75,2.5,5.5,5.5,5.25,3.5,-0.17,0.14,1.08,374.19,-4.0,-47.6,7.25,1.25,5.5,3.75,2.75,2.0,1.25,1.0,0.75,1.0,0.75,0.5,0.5,0.45,0.77,2.33,476.38,-17.4,46.9
2.84,1.0,1.5,2.5,0.0,4.5,4.25,0.75,7.0,3.0,6.25,6.0,5.25,5.25,-0.05,0.14,0.95,540.2,-1.9,-34.6,5.25,1.25,3.0,3.25,2.75,2.75,1.0,1.0,0.75,1.0,1.0,0.5,0.5,0.39,0.27,2.45,351.27,-12.4,39.6
2.86,1.25,1.5,1.75,1.75,4.5,4.75,0.25,7.0,3.0,6.75,5.75,5.5,4.5,-0.11,0.08,0.95,682.35,-2.0,-31.0,2.75,0.5,2.75,2.5,1.25,1.75,1.25,1.0,0.75,0.5,1.25,0.5,0.25,0.52,-0.67,1.33,258.24,-13.6,30.2
2.88,1.0,1.5,3.0,2.5,4.25,4.5,2.75,7.75,3.25,7.5,6.5,5.5,5.25,-0.11,0.08,0.95,814.18,-0.3,-30.0,1.5,0.5,2.75,2.75,2.75,2.0,1.25,1.0,0.75,0.75,1.75,0.25,0.25,0.64,-0.48,1.39,201.75,-9.8,26.2
2.9,1.5,1.5,2.75,2.5,4.5,5.0,3.75,8.0,3.75,7.25,7.0,5.5,5.5,-0.11,0.14,0.95,906.11,0.0,-28.6,1.25,0.0,2.5,1.5,2.25,1.5,1.25,1.0,0.75,0.75,1.5,0.5,0.25,0.64,-1.05,1.2,150.71,-9.6,17.0
2.92,1.25,1.5,3.75,2.5,4.75,5.25,3.5,8.25,3.75,8.0,7.5,6.0,5.5,-0.11,0.08,0.95,986.7,0.1,-28.7,1.5,0.5,2.0,1.5,1.75,2.0,1.25,1.0,0.75,0.75,1.5,0.5,0.5,0.33,-0.8,0.95,130.57,-8.2,16.5
2.94,1.25,1.5,3.75,2.25,4.5,5.25,3.5,8.25,4.25,8.0,7.25,6.0,6.0,-0.11,0.08,0.95,1035.94,0.0,-30.0,1.5,0.25,1.75,2.0,1.75,1.5,1.25,1.0,0.75,1.0,1.25,0.5,0.5,0.2,-0.55,0.45,121.92,-8.5,15.2
2.96,1.0,1.5,4.25,2.5,4.75,5.75,3.75,8.5,4.0,8.25,7.5,5.75,5.75,-0.11,0.08,0.95,1063.18,0.0,-28.1,1.25,0.5,1.75,2.0,2.25,1.75,1.5,0.75,0.75,1.0,1.5,0.5,0.5,0.08,-0.36,0.33,118.68,-7.9,16.6
2.98,0.5,1.5,3.75,2.5,5.0,6.0,3.5,8.5,4.0,8.0,7.0,5.5,5.5,-0.11,0.08,0.95,1065.43,-0.6,-28.1,1.25,0.25,1.5,2.0,2.5,1.75,1.5,1.0,0.75,0.5,0.75,0.5,0.5,0.02,-0.23,0.7,129.75,-7.3,22.0
3.0,0.5,1.5,3.75,2.5,5.0,6.0,3.75,8.75,4.25,8.0,6.75,5.25,5.25,-0.11,0.08,0.95,1035.94,-0.6,-27.2,1.25,0.5,1.5,1.75,2.5,1.75,1.25,1.0,0.75,0.75,1.0,0.5,0.5,0.08,-0.23,0.83,149.56,-6.7,19.4
3.02,1.5,1.5,4.0,3.75,5.0,6.0,3.75,8.75,4.5,7.75,6.5,5.25,5.25,-0.11,0.08,0.95,1015.61,0.4,-22.8,1.25,0.5,1.5,2.0,2.5,1.5,1.5,1.0,0.75,0.75,1.25,0.5,0.5,0.14,-0.11,0.89,169.34,-7.6,18.3
3.04,1.25,1.5,4.25,3.75,5.75,6.0,3.75,8.75,4.5,7.75,6.5,5.25,5.25,-0.11,0.08,0.95,999.02,0.4,-21.8,1.5,0.5,1.25,1.75,2.5,1.5,1.25,1.0,0.75,1.0,0.75,0.75,0.5,0.08,-0.05,1.02,184.95,-6.6,17.4
3.06,1.25,1.5,4.5,3.75,6.5,6.5,3.75,8.75,4.5,7.5,6.5,4.25,4.75,-0.11,0.08,0.95,994.69,0.4,-17.7,1.25,0.25,1.25,1.5,2.25,1.75,1.5,0.75,0.75,0.75,0.75,0.5,0.5,0.08,0.08,1.2,189.7,-6.5,18.4
3.08,1.75,1.5,4.5,3.75,6.75,6.75,3.75,8.75,4.75,6.5,6.25,4.25,3.75,-0.11,0.08,0.95,985.94,1.0,-13.7,1.25,0.0,1.5,1.75,1.75,1.75,1.5,1.0,0.75,0.75,0.75,0.5,0.25,0.14,0.2,1.45,190.8,-7.7,18.3
3.1,1.25,1.5,4.75,3.75,7.0,7.25,3.75,8.75,4.75,6.5,6.0,4.0,3.5,-0.11,0.08,0.95,979.46,0.7,-12.5,1.0,0.5,0.75,1.75,1.75,1.5,1.5,1.0,0.75,1.0,0.75,0.5,0.25,0.2,0.33,1.64,187.96,-5.6,15.3
3.12,1.25,1.5,4.75,3.75,7.0,7.25,3.75,8.75,5.0,6.0,5.5,3.25,3.25,-0.11,0.14,0.95,954.43,0.8,-9.9,1.0,0.5,1.25,1.75,1.5,1.5,1.5,1.0,0.75,1.0,1.0,0.5,0.25,0.27,0.52,1.95,184.24,-7.2,14.6
3.14,1.75,1.75,4.75,4.5,7.0,7.5,4.25,8.75,5.0,5.25,5.25,2.5,2.5,-0.11,0.14,0.95,937.04,1.6,-3.7,1.0,0.5,0.5,1.25,2.25,1.75,1.5,0.5,0.75,0.75,0.75,0.5,0.25,0.27,0.83,2.2,179.74,-4.7,19.0
3.16,1.5,1.5,4.75,5.75,7.5,8.0,4.25,8.75,5.0,5.25,5.0,2.5,2.0,-0.11,0.14,0.95,933.44,1.6,-1.2,0.5,0.5,1.25,1.75,0.25,1.25,1.25,1.0,0.5,0.75,1.0,0.5,0.25,0.27,1.64,2.45,167.0,-8.2,8.1
3.18,1.5,1.75,4.75,5.75,8.75,8.25,4.25,8.75,5.25,5.25,5.5,2.5,1.5,-0.11,0.14,0.95,954.58,1.7,0.7,0.75,0.5,1.25,1.5,1.0,1.5,1.5,0.75,0.75,0.75,1.0,0.5,0.0,-0.05,4.02,3.64,160.26,-8.4,15.9
3.2,2.75,1.75,4.75,7.0,8.75,8.75,4.25,8.75,5.0,5.25,4.0,2.5,1.25,-0.11,0.14,0.95,987.43,2.3,6.2,0.5,0.5,1.0,1.25,1.75,1.25,1.25,0.75,0.5,0.75,1.5,0.5,0.25,0.14,2.95,0.89,156.29,-6.0,9.1
3.22,2.75,1.75,4.75,7.5,9.75,9.0,4.25,8.75,5.0,4.5,3.75,2.0,1.5,-0.11,0.14,0.95,1024.97,2.2,9.3,1.0,0.25,1.0,1.25,0.5,1.25,1.25,1.0,0.75,0.75,0.75,0.5,0.0,-0.73,4.52,-0.05,149.46,-8.4,11.4
3.24,3.25,1.75,5.0,9.0,10.5,9.25,4.25,8.75,4.5,4.25,3.5,2.0,1.5,-0.11,0.14,0.95,1070.51,2.8,12.9,1.0,0.5,1.25,1.25,0.25,1.25,1.25,1.0,0.75,1.0,0.75,0.5,0.25,-4.05,5.45,-0.86,146.55,-8.4,8.5
3.26,4.75,2.0,5.0,11.5,12.5,9.75,4.25,8.25,3.75,3.25,3.0,1.25,2.0,-0.11,0.14,0.95,1142.44,3.7,21.2,0.5,0.75,0.75,0.75,1.0,1.25,1.25,1.0,0.75,1.0,1.0,0.75,0.75,-0.11,-1.17,-0.48,146.99,-3.7,-4.4
3.28,5.75,2.0,5.75,13.5,13.0,9.75,3.75,7.75,3.0,3.25,2.75,1.0,1.5,-0.11,0.14,0.95,1226.42,4.8,26.6,0.25,0.0,0.75,1.0,1.25,1.25,1.25,1.0,0.75,2.25,2.0,1.25,1.25,0.33,-0.42,1.77,160.59,-1.0,-28.8
3.3,6.5,2.5,6.25,15.0,15.0,9.75,3.75,7.0,2.0,3.0,2.75,0.75,1.25,-0.11,0.14,1.02,1320.16,5.6,32.2,0.5,0.75,0.25,0.0,1.25,0.5,1.0,2.0,0.75,4.0,2.5,2.0,3.75,0.7,0.83,1.7,200.82,3.2,-52.3
3.32,7.5,0.0,7.75,16.5,16.0,9.75,2.25,6.0,1.25,3.0,2.5,0.75,1.0,-0.11,0.2,1.14,1373.12,6.5,34.7,1.25,0.0,0.0,1.0,0.0,2.0,1.0,3.25,2.0,6.75,3.25,5.0,4.75,-0.36,0.77,2.2,279.86,3.1,-60.2
3.34,8.25,2.75,8.75,15.5,15.5,9.5,2.25,5.25,1.0,3.0,2.5,0.75,1.25,-0.17,0.2,1.2,1421.01,7.6,38.0,1.75,0.5,2.5,0.0,2.5,2.0,1.5,5.25,3.0,7.0,6.5,5.5,6.0,0.08,0.27,1.14,413.95,0.0,-45.9
3.36,9.0,2.75,8.75,16.5,16.0,9.0,1.0,3.5,0.5,3.0,2.5,0.75,1.25,-0.17,0.2,1.33,1443.08,8.4,41.3,2.0,0.75,2.75,1.25,2.5,2.5,2.25,5.25,3.25,7.5,6.5,5.75,6.5,0.08,0.2,0.95,582.55,-0.7,-41.0
3.38,9.75,2.75,9.75,15.0,15.0,7.25,0.0,3.25,0.5,2.5,2.75,0.75,0.5,-0.17,0.27,1.39,1427.28,10.2,44.1,2.25,0.75,2.75,1.75,2.5,2.75,2.5,5.75,3.25,7.75,6.5,5.75,6.75,0.08,0.14,0.95,729.43,-0.7,-39.3
3.4,10.5,1.75,9.75,11.5,12.0,6.0,0.0,1.75,0.5,2.0,2.5,0.75,1.25,-0.48,0.39,1.89,1335.75,11.9,44.2,2.25,0.75,2.75,2.0,2.5,3.0,2.5,6.0,3.5,8.0,6.75,6.0,7.5,0.08,0.14,0.95,836.57,-0.4,-40.2
3.42,8.25,1.0,9.0,7.5,8.75,3.5,0.75,2.5,0.75,2.5,1.75,0.75,0.75,-0.73,0.7,2.45,1112.1,12.7,39.7,2.25,0.75,2.75,2.0,2.5,3.75,2.25,6.5,3.5,8.0,7.0,6.0,8.0,0.08,0.14,0.95,907.9,0.1,-40.1
3.44,8.0,1.5,8.0,6.25,7.0,2.25,1.25,1.5,0.5,1.0,1.0,0.75,0.5,-0.67,0.7,2.52,853.58,15.7,48.2,2.0,1.0,2.5,2.0,2.5,4.0,2.25,6.75,3.5,8.75,7.25,6.0,8.0,0.08,0.14,0.95,957.61,0.7,-40.9
3.46,6.25,0.0,5.75,3.75,4.75,1.75,0.75,1.25,0.5,0.5,1.25,0.0,0.0,-0.48,0.7,2.58,576.84,16.6,49.6,1.75,0.75,2.75,2.0,2.5,4.5,2.25,7.0,3.5,8.5,7.25,6.25,8.0,0.08,0.14,0.95,990.3,0.9,-41.1
3.48,4.0,1.0,2.5,0.0,4.75,3.0,1.75,1.5,0.5,1.75,1.75,0.75,0.25,-0.48,-0.23,2.45,374.19,7.0,25.7,2.0,1.25,2.75,2.0,2.75,4.5,2.25,7.25,3.25,8.75,7.25,6.25,8.0,0.08,0.14,0.95,1007.37,0.8,-39.0
3.5,2.25,0.0,3.0,2.5,4.75,3.0,1.75,1.5,0.5,2.0,1.25,0.75,0.5,-0.11,-0.86,1.2,268.0,6.1,21.3,2.0,0.75,2.75,2.0,2.5,4.5,2.25,7.25,3.25,9.0,7.0,6.25,8.0,0.08,0.14,0.95,999.55,1.0,-40.7
3.52,2.25,0.25,2.5,2.0,4.5,2.75,1.75,1.5,0.5,1.5,1.5,0.75,0.5,-0.42,-1.17,1.83,209.35,6.1,21.0,3.0,0.75,2.5,2.0,2.5,4.75,2.25,7.25,3.25,8.5,6.75,6.25,8.0,0.08,0.14,0.95,975.13,0.6,-38.1
3.54,2.25,0.5,1.25,2.5,4.5,2.5,1.25,1.75,0.5,1.5,1.25,0.75,0.0,-0.48,-1.23,1.14,172.1,4.6,23.9,3.0,1.0,2.5,2.0,2.5,5.0,2.25,7.5,3.25,8.25,6.5,5.75,8.0,0.08,0.14,0.95,936.51,0.8,-36.2
3.56,2.25,0.5,1.25,2.5,4.5,2.5,1.75,1.0,0.5,1.75,1.5,0.75,0.75,-0.48,-0.92,0.45,161.49,4.9,19.0,3.75,1.0,2.5,2.0,2.75,5.0,2.25,7.5,3.25,8.0,6.5,5.5,7.5,0.08,0.14,0.95,894.8,0.2,-32.9
3.58,2.25,0.5,1.5,2.5,4.5,2.0,1.75,1.0,0.5,2.0,1.75,0.75,0.5,-0.42,-0.73,0.27,164.46,5.9,18.5,4.25,1.25,2.5,2.0,2.75,5.0,2.25,7.5,3.25,7.75,6.5,5.5,7.0,0.08,0.14,0.95,860.37,-0.2,-30.4
3.6,2.5,0.0,1.25,2.0,4.5,2.0,1.5,1.5,0.5,2.0,1.75,0.75,0.25,-0.36,-0.61,0.39,174.7,4.9,16.0,4.25,1.0,2.5,1.75,2.75,5.0,2.25,7.5,3.5,7.75,6.5,4.5,7.0,0.08,0.14,0.95,833.36,0.0,-30.0
3.62,2.0,0.75,2.25,1.75,4.5,1.25,1.75,1.5,0.5,2.0,1.5,0.75,0.25,-0.3,-0.48,0.58,196.43,7.1,19.5,4.5,1.25,2.5,2.0,2.75,5.0,2.25,7.5,3.25,7.5,6.0,4.5,6.5,0.08,0.14,0.95,805.31,-0.3,-27.0
3.64,1.75,1.5,1.25,1.0,4.5,1.0,1.75,1.5,0.5,1.5,2.0,0.75,0.5,-0.3,-0.36,0.83,216.17,5.7,16.2,4.75,1.25,2.75,2.0,2.75,5.75,2.25,7.5,3.75,7.25,5.75,4.25,6.0,0.08,0.14,0.95,786.95,-0.6,-23.8
3.66,0.75,0.0,1.75,1.0,4.5,1.75,1.75,1.75,0.5,2.0,1.25,0.75,0.25,-0.3,-0.17,1.02,226.96,2.5,8.9,5.0,1.25,2.75,2.5,3.5,5.75,2.25,7.5,4.0,6.75,5.5,3.5,5.75,0.08,0.14,0.95,780.16,-0.9,-19.0
3.68,0.5,0.0,1.75,0.0,4.5,1.25,1.75,0.0,0.5,2.0,1.5,0.75,0.0,-0.3,-0.05,1.14,217.41,4.5,9.5,5.25,1.0,2.75,2.5,4.25,5.75,2.25,7.5,4.75,6.75,5.5,3.5,4.75,0.08,0.14,0.95,785.46,-1.4,-16.5
3.7,1.75,1.0,0.25,1.0,4.5,1.0,1.75,1.5,0.5,1.25,1.75,0.75,0.25,-0.3,0.08,1.27,221.24,4.0,15.5,6.25,1.5,2.75,2.25,5.5,6.0,2.25,7.75,5.25,6.0,5.25,3.0,4.25,0.08,0.14,0.95,808.41,-2.0,-9.6
3.72,1.25,1.0,2.25,0.0,4.5,0.25,1.75,1.5,0.5,0.5,1.5,0.0,0.25,-0.3,0.2,1.52,213.0,8.8,27.6,7.75,2.0,2.75,3.25,5.75,6.25,2.75,7.75,5.5,5.25,5.0,2.25,3.25,0.08,0.14,0.95,844.61,-3.6,-0.1
3.74,0.5,0.0,0.25,0.0,0.0,0.25,1.25,0.25,0.25,0.5,0.5,0.0,0.0,-0.36,0.27,1.77,153.75,11.9,-2.5,8.5,2.0,2.75,3.25,5.75,6.5,2.75,7.5,5.5,5.25,4.75,2.0,3.0,0.08,0.14,0.95,877.97,-4.0,2.5
3.76,0.5,0.25,1.0,1.0,3.0,0.25,1.5,1.0,0.25,0.5,0.5,0.0,0.0,-0.48,0.64,2.27,128.42,7.0,30.1,9.0,2.25,3.5,4.75,7.0,7.0,3.25,7.5,5.5,3.75,4.0,1.75,2.25,0.08,0.14,0.95,923.32,-5.4,12.3
3.78,0.75,1.25,1.25,1.0,1.75,1.0,1.25,1.5,0.5,1.75,1.75,0.75,0.25,-0.73,1.02,2.7,129.32,5.1,3.1,9.75,2.25,5.25,5.75,7.5,7.0,3.5,7.25,5.25,3.75,3.75,1.25,1.75,0.08,0.14,0.95,980.75,-7.0,18.5
3.8,1.25,1.25,0.25,1.0,0.0,1.25,1.25,1.5,0.5,1.25,1.25,0.75,0.25,-0.67,-1.17,1.77,133.93,4.9,0.1,11.0,2.5,5.5,9.0,8.75,7.25,4.0,6.25,4.0,2.75,2.75,1.0,1.25,0.08,0.14,0.95,1053.29,-8.6,29.7
3.82,1.25,1.5,2.5,1.0,4.5,1.25,1.75,1.5,0.5,1.75,1.75,0.75,0.75,-0.48,3.02,0.83,186.32,6.2,15.7,11.5,2.75,6.75,10.5,9.75,6.0,4.0,5.25,2.0,2.25,2.75,0.75,1.25,0.08,0.2,0.95,1114.43,-10.5,36.6
3.84,0.75,1.25,2.5,1.0,4.5,0.5,1.75,1.5,0.5,1.75,1.5,0.75,0.25,0.64,4.58,0.45,221.67,7.0,16.4,12.0,1.75,8.25,0.0,10.0,6.0,3.25,3.5,0.75,2.25,2.0,0.75,0.5,0.08,0.2,1.27,1041.36,-11.1,40.6
3.86,1.0,1.0,2.25,1.0,4.5,0.25,1.75,1.5,0.5,2.0,2.25,1.0,0.0,3.33,7.2,-2.86,249.15,7.3,10.8,13.0,2.5,8.75,11.0,9.75,0.0,2.0,2.5,0.75,0.75,2.0,0.5,1.25,0.14,0.27,1.64,1002.52,-17.3,50.1
3.88,0.75,1.0,2.5,0.25,4.5,0.25,1.75,1.75,0.5,2.0,1.25,2.0,0.25,0.02,-1.3,-0.11,257.84,6.3,4.1,13.0,2.5,9.0,9.25,8.75,4.25,1.75,2.25,1.0,0.75,1.5,0.5,1.0,0.2,0.33,1.58,957.16,-15.2,50.5
3.9,0.5,0.0,0.25,0.75,0.0,1.75,1.75,2.5,1.0,5.0,2.5,4.0,1.25,0.77,0.33,2.27,274.56,-1.7,-53.9,12.0,2.25,8.75,7.0,6.75,2.75,1.75,1.0,0.75,0.5,0.5,0.5,1.0,0.27,0.52,1.83,872.51,-17.9,55.5
3.92,1.25,1.5,0.0,2.0,4.5,3.0,2.25,5.25,2.0,5.25,5.0,4.0,3.25,-0.11,0.08,1.08,351.22,-1.4,-27.2,11.0,1.25,7.75,6.0,3.0,2.75,2.25,1.0,0.75,0.75,0.5,0.75,1.0,0.64,0.7,2.08,738.54,-19.3,51.2
3.94,1.75,1.5,0.0,2.5,4.5,3.0,2.25,5.25,2.5,4.25,5.0,4.0,3.75,-0.11,0.14,0.95,441.08,-0.3,-24.6,9.75,1.5,6.75,3.25,2.5,3.0,2.25,1.0,0.75,0.75,0.5,0.25,0.75,0.52,0.77,2.27,590.36,-18.8,52.6
3.96,1.75,1.5,0.0,2.25,4.5,3.0,1.25,6.0,2.75,4.75,5.5,4.0,3.5,-0.11,0.14,0.95,543.26,-1.0,-26.8,8.25,1.25,5.25,3.25,2.5,2.75,1.75,1.0,0.5,1.0,0.5,0.5,0.5,0.2,0.58,2.52,453.28,-17.2,49.5
3.98,1.25,1.5,2.5,1.5,4.5,3.0,2.5,6.0,3.0,5.25,5.5,4.0,3.25,-0.11,0.14,0.95,616.55,0.9,-23.8,6.0,0.25,2.75,2.75,2.5,2.0,1.5,1.0,0.75,0.75,0.5,0.5,0.5,0.2,-0.23,2.2,332.31,-14.7,41.8
4.0,1.0,1.5,2.75,1.0,4.5,3.0,2.25,6.25,3.0,5.25,5.5,4.0,3.75,-0.11,0.08,0.95,646.5,0.4,-26.2,3.0,0.5,2.75,2.0,2.5,2.0,1.25,1.0,0.75,0.75,0.5,0.5,0.25,0.2,-0.42,1.02,252.14,-11.6,35.2
4.02,0.75,1.25,2.5,0.25,4.5,4.0,2.25,6.75,3.75,6.0,6.0,4.5,4.0,-0.11,0.08,0.95,674.8,-0.9,-31.3,2.25,0.5,2.5,2.25,2.5,1.75,1.0,1.0,0.75,0.75,0.5,0.25,0.25,0.27,-0.86,1.45,188.51,-10.6,34.7
4.04,1.25,1.5,3.0,2.0,4.5,4.25,2.75,7.0,4.25,6.5,6.75,5.25,4.5,-0.11,0.08,0.95,736.72,0.6,-28.0,1.5,0.25,2.5,2.5,2.5,2.0,1.25,1.0,0.75,1.0,0.5,0.5,0.25,0.58,-0.98,0.89,148.95,-8.9,27.4
4.06,1.5,1.5,3.0,2.75,4.5,4.25,3.75,7.5,4.5,7.25,6.75,5.25,5.0,-0.11,0.08,0.95,807.29,0.8,-27.3,1.5,0.25,2.5,2.0,2.5,1.5,1.25,1.0,0.75,0.75,0.5,0.5,0.25,0.33,-0.8,0.7,129.37,-10.0,27.8
4.08,2.25,1.5,3.75,3.5,4.5,5.0,3.75,7.5,5.0,7.5,7.25,5.25,5.25,-0.11,0.08,0.95,900.85,1.6,-23.9,1.5,0.5,1.75,2.0,2.5,1.5,1.25,1.0,0.75,0.5,0.5,0.5,0.25,0.08,-0.61,0.45,127.19,-9.0,29.1
4.1,1.75,1.5,4.25,3.75,4.75,5.25,4.25,8.0,5.25,7.25,7.25,5.25,5.0,-0.11,0.08,0.95,973.33,1.8,-22.6,1.5,0.25,2.0,2.0,2.5,1.25,1.25,1.0,0.75,0.75,0.5,0.25,0.25,0.02,-0.48,0.45,121.17,-9.6,28.9
4.12,2.25,1.5,4.5,3.75,5.0,6.0,4.25,8.25,5.75,6.5,7.0,4.25,4.25,-0.11,0.08,0.95,1017.61,2.1,-17.2,1.5,0.75,1.75,1.25,2.5,1.25,1.25,1.0,0.5,0.75,0.0,0.5,0.25,-0.05,-0.36,0.58,124.96,-8.6,31.9
4.14,1.25,1.75,4.75,3.75,6.25,6.0,4.5,8.25,6.0,6.5,6.75,4.0,3.25,-0.11,0.08,0.95,1027.17,2.0,-14.3,1.25,0.5,1.75,1.5,2.5,1.5,1.25,1.0,0.25,0.5,0.5,0.5,0.25,-0.05,-0.3,0.7,138.52,-8.1,29.3
4.16,2.75,1.75,4.75,3.75,7.0,6.5,4.75,8.25,6.25,5.25,6.25,3.5,2.0,-0.11,0.08,0.95,1021.14,3.2,-5.8,1.25,0.5,1.75,2.0,2.5,1.25,1.25,1.0,0.75,0.5,0.5,0.5,0.25,0.02,-0.23,0.89,154.54,-9.1,27.9
4.18,3.75,1.5,5.0,5.0,7.0,6.75,5.0,8.0,6.25,5.25,6.25,2.5,2.25,-0.11,0.08,0.95,1038.17,3.9,-1.5,1.25,0.5,1.25,2.0,2.25,1.5,1.0,1.0,0.5,0.5,0.5,0.25,0.0,0.02,-0.11,1.02,162.98,-7.8,33.0
4.2,4.75,1.75,5.0,5.75,7.0,6.75,5.0,7.5,6.25,4.5,5.75,2.5,2.0,-0.11,0.08,0.95,1051.73,5.0,3.2,1.25,0.5,1.5,2.0,2.5,1.5,1.25,1.0,0.5,0.75,0.5,0.5,0.25,0.02,0.02,1.27,176.34,-7.5,26.7
4.22,5.5,1.25,5.25,5.75,7.25,7.0,5.0,7.5,6.25,3.75,5.0,2.5,1.5,-0.11,0.08,0.95,1053.97,5.6,6.9,1.25,0.75,1.5,1.75,2.5,2.0,1.25,1.0,0.25,0.25,0.5,0.5,0.25,-0.05,0.2,1.39,187.11,-7.1,32.7
4.24,5.75,1.25,5.75,6.75,8.0,7.0,5.25,7.0,6.0,3.25,4.5,1.75,1.25,-0.11,0.08,0.95,1052.38,6.5,13.0,0.75,0.5,1.25,2.25,2.5,1.25,1.0,1.0,0.5,1.25,0.5,0.5,0.25,-0.05,0.33,1.7,192.99,-5.6,20.2
4.26,6.5,1.75,6.25,7.25,8.5,7.0,5.5,6.5,5.75,3.0,3.75,1.25,1.0,-0.11,0.08,0.95,1049.56,7.4,19.4,1.25,0.5,1.5,1.5,2.5,1.25,1.0,0.75,0.5,0.75,0.5,0.5,0.25,0.02,0.64,1.83,191.29,-7.9,26.5
4.28,7.25,1.5,7.0,7.5,8.75,7.0,5.5,6.0,5.25,3.0,3.5,1.0,1.0,-0.11,0.08,0.95,1048.94,8.2,22.6,1.5,0.5,1.25,2.0,2.25,2.0,1.25,1.0,0.5,0.75,0.75,0.5,0.25,0.14,1.52,1.95,196.62,-6.7,25.2
4.3,8.0,1.75,7.75,9.0,8.75,7.0,5.5,5.5,5.0,3.0,3.0,0.75,1.25,-0.11,0.08,0.95,1070.81,9.2,26.5,1.25,1.0,1.5,1.25,2.25,1.75,1.25,1.0,0.25,1.0,0.75,0.5,0.5,0.02,2.64,1.83,200.21,-6.0,22.2
4.32,8.25,1.5,8.0,10.0,8.75,7.0,5.5,5.25,4.5,3.0,2.75,0.75,1.25,-0.11,0.08,0.95,1093.75,9.6,28.2,1.25,0.5,1.25,1.0,2.25,1.5,1.25,1.0,0.5,1.0,0.75,0.25,0.5,-0.11,3.14,1.58,198.23,-5.5,18.7
4.34,9.0,1.5,8.75,11.5,9.5,7.0,5.5,5.0,3.75,3.0,2.75,0.75,1.25,-0.11,0.14,0.95,1141.27,10.2,31.3,1.25,0.5,1.25,1.5,1.5,2.0,1.0,0.75,0.5,0.5,0.5,0.75,0.25,-0.23,3.52,0.58,191.62,-7.0,22.9
4.36,9.5,1.75,9.75,13.5,10.5,7.0,5.5,4.0,3.25,3.0,2.75,0.75,1.0,-0.11,0.14,0.95,1207.91,11.2,35.6,1.5,1.0,1.25,2.0,1.75,1.25,1.25,0.75,0.5,0.75,0.5,0.5,0.0,-0.48,3.83,-1.23,189.21,-9.8,32.4
4.38,10.5,2.0,10.5,14.0,10.5,6.75,5.5,3.5,2.75,2.75,2.5,0.75,1.25,-0.11,0.14,1.02,1275.87,12.2,38.3,0.75,0.0,1.25,1.25,1.75,1.5,1.0,1.0,0.5,0.75,0.5,0.5,0.25,-2.17,3.45,-1.73,177.03,-5.2,14.8
4.4,11.0,2.0,11.5,15.0,11.5,6.5,5.25,3.5,2.0,3.0,2.5,0.75,1.0,-0.05,0.14,1.02,1335.17,12.6,40.4,0.75,0.5,1.25,1.75,1.0,2.0,1.25,1.0,0.75,1.5,0.5,0.5,0.0,0.14,0.89,-0.73,174.98,-5.1,14.3
4.42,11.5,1.75,11.5,0.0,12.0,6.0,3.75,3.5,1.5,2.5,2.75,0.75,1.0,-0.11,0.2,1.08,1247.62,11.7,37.4,0.0,0.0,1.5,0.5,1.75,0.5,1.5,2.5,1.0,1.5,2.5,0.75,1.5,-0.17,0.14,0.95,182.47,-2.1,-27.6
4.44,12.5,2.5,12.5,15.5,12.5,5.5,4.25,3.25,1.25,2.5,2.5,0.75,1.0,-0.11,0.2,1.08,1306.33,13.8,44.4,0.5,0.0,0.0,0.5,2.5,0.75,2.0,2.75,2.5,3.0,4.0,1.5,1.25,0.33,0.02,0.89,215.93,-0.2,-36.4
4.46,12.5,2.75,13.5,14.5,12.0,5.0,3.75,2.0,1.25,2.0,2.5,0.75,0.5,-0.11,0.27,1.2,1316.03,15.3,48.0,0.5,1.0,1.5,0.0,2.5,3.0,2.25,3.75,3.25,5.25,5.0,3.5,3.0,-0.05,0.2,0.95,292.5,0.4,-36.7
4.48,14.5,3.25,14.0,13.5,10.5,4.25,2.25,1.5,1.0,2.5,2.0,0.75,0.5,-0.17,0.33,1.33,1346.41,16.6,50.8,1.75,0.75,2.75,1.5,2.75,2.75,2.25,4.0,4.0,5.75,5.0,3.5,4.25,0.08,0.14,0.95,398.29,-2.0,-29.4
4.5,14.5,2.5,13.5,11.5,9.0,3.25,1.75,1.75,1.0,2.25,2.0,0.75,0.5,-0.17,0.39,1.58,1303.55,17.5,50.3,2.75,0.75,2.75,1.5,2.75,3.5,2.25,5.25,4.75,6.0,5.75,4.25,4.75,0.08,0.2,0.95,540.5,-1.9,-29.5
4.52,12.5,1.75,12.5,8.75,8.5,3.0,2.25,1.5,0.5,2.0,1.75,0.75,0.5,-0.48,0.58,2.08,1182.86,17.5,49.7,3.0,1.25,2.75,2.75,2.75,4.0,2.5,5.75,5.25,6.5,6.5,4.5,4.75,0.08,0.2,0.95,673.93,-2.3,-26.3
4.54,11.5,1.5,11.5,7.25,7.0,2.5,3.5,1.5,0.5,2.0,2.0,0.75,0.25,-0.92,0.89,2.33,1004.73,18.2,48.0,4.25,1.25,2.75,3.0,4.25,4.0,2.75,6.0,5.75,6.5,6.75,4.25,4.75,0.08,0.2,0.95,800.99,-2.9,-20.6
4.56,9.75,1.75,9.75,5.75,6.75,1.75,3.0,1.5,0.5,1.75,1.75,0.75,0.5,-0.8,0.77,2.27,825.87,17.5,46.4,4.75,1.25,2.75,3.0,4.75,4.5,2.75,6.0,6.0,6.0,6.5,3.5,4.75,0.08,0.14,0.95,889.53,-3.0,-16.5
4.58,7.5,0.25,7.25,2.5,4.5,0.0,1.75,1.25,0.25,1.25,1.25,0.75,0.0,-0.55,0.64,2.45,595.31,20.3,46.0,5.5,1.25,2.75,3.5,5.5,5.0,3.0,6.0,6.0,5.25,6.5,3.25,4.0,0.08,0.14,0.95,954.62,-3.8,-10.3
4.6,4.0,0.0,4.25,0.0,4.5,0.75,1.75,0.0,0.5,1.5,0.75,0.5,0.0,-0.42,-0.48,2.52,376.08,15.8,39.6,6.0,1.0,2.75,3.25,5.75,4.75,3.25,6.0,6.0,5.25,6.0,2.5,3.0,0.08,0.14,0.95,973.37,-4.3,-6.2
4.62,0.0,0.0,4.5,0.0,4.5,0.0,2.25,0.0,0.25,0.5,1.0,0.0,0.0,0.02,-0.73,0.39,228.44,15.8,37.2,6.5,1.25,2.75,3.25,5.75,5.0,3.25,6.0,5.75,3.75,5.0,2.0,2.5,0.08,0.14,0.95,954.79,-5.0,0.9
4.64,2.75,1.0,0.0,0.0,4.75,1.0,2.25,1.5,0.5,1.25,1.75,0.75,0.75,-0.55,-1.36,1.58,143.23,4.1,13.8,7.0,1.25,3.25,3.25,5.75,5.0,3.25,5.75,5.5,3.5,4.5,2.0,1.75,0.08,0.14,0.95,911.8,-6.0,5.6
4.66,1.25,0.0,1.5,0.0,3.75,0.25,1.25,0.5,0.0,0.5,0.25,0.0,0.0,-0.42,-0.98,0.83,60.45,9.4,42.6,7.5,1.75,4.0,3.5,5.75,5.0,3.25,5.25,5.5,2.5,4.0,1.5,1.25,0.08,0.14,0.95,865.15,-7.8,13.9
4.68,1.25,0.0,0.0,0.0,0.5,0.0,1.25,0.25,0.0,0.5,0.75,0.0,0.0,-0.3,-0.67,0.27,0.0,14.1,15.5,8.0,1.5,4.75,4.5,5.75,5.0,3.25,5.25,5.25,2.5,3.25,1.0,1.25,0.08,0.14,0.95,827.72,-8.6,18.7
4.7,1.25,0.0,0.5,0.75,0.0,0.25,1.75,0.25,0.0,0.5,0.5,0.0,0.0,-0.23,-0.61,0.2,0.0,18.6,28.9,8.25,1.75,5.25,5.5,6.25,5.25,3.25,5.0,5.0,2.0,2.75,0.75,1.25,0.08,0.2,0.95,808.61,-9.2,24.1
4.72,1.0,0.0,1.0,0.0,0.5,0.0,1.75,1.0,0.0,1.0,0.5,0.0,0.0,-0.11,-0.48,0.39,0.0,11.9,9.7,8.5,2.0,5.25,6.0,7.25,5.25,3.5,4.75,5.25,2.25,2.75,0.75,1.25,0.08,0.2,0.95,823.07,-9.2,25.3
4.74,1.0,0.25,1.0,0.0,1.25,0.25,1.75,0.25,0.25,0.5,0.5,0.0,0.0,0.02,-0.42,0.77,0.0,14.2,31.2,9.0,2.0,5.25,7.0,7.5,5.25,3.5,4.0,4.75,2.0,2.75,0.75,1.25,0.08,0.2,0.95,841.48,-10.0,28.7
4.76,0.75,0.25,1.5,0.0,0.5,0.25,1.75,0.25,0.25,0.5,0.25,0.0,0.0,0.08,-0.42,1.08,0.0,18.5,32.4,9.0,2.0,6.75,8.0,7.5,5.75,4.0,4.0,4.5,1.5,2.75,0.75,1.25,0.08,0.2,0.95,878.37,-10.9,31.4
4.78,0.25,0.0,1.5,1.0,0.0,0.25,1.75,0.5,0.0,0.5,0.25,0.0,0.0,0.08,-0.3,1.2,0.0,18.1,25.9,9.25,2.0,6.75,9.0,7.75,5.5,4.0,3.75,4.0,1.75,2.75,0.75,1.25,0.08,0.2,0.95,914.45,-11.2,32.7
4.8,0.5,0.25,1.75,0.75,0.0,0.0,1.5,0.5,0.25,0.5,0.25,0.0,0.0,0.08,-0.05,1.33,15.83,20.7,29.2,9.75,2.0,7.75,10.5,8.75,5.5,4.25,2.75,3.25,2.0,2.75,0.75,1.0,0.08,0.2,0.95,969.46,-12.2,37.0
4.82,0.5,0.0,1.75,0.5,0.0,0.25,1.5,0.25,0.25,0.5,0.5,0.0,0.0,0.02,0.08,1.58,42.8,20.7,22.9,10.0,2.25,8.75,11.0,8.75,5.75,4.25,2.5,2.75,1.5,2.25,0.75,1.25,0.02,0.2,0.95,1019.07,-12.9,40.2
4.84,0.5,0.0,1.25,0.0,0.5,0.25,1.5,0.0,0.25,1.0,0.5,0.0,0.0,-0.05,0.39,1.58,57.03,14.7,12.2,10.5,2.5,8.75,12.5,9.75,5.75,4.25,2.5,2.25,1.25,2.0,0.5,0.0,0.02,0.2,0.95,1073.41,-13.6,46.8
4.86,1.0,0.0,1.5,0.0,0.0,0.75,1.5,0.0,0.0,0.5,0.5,0.0,0.0,-0.3,0.64,1.83,63.83,19.6,31.7,11.0,3.0,9.25,14.0,10.0,0.0,4.25,2.5,2.0,2.0,2.0,0.75,1.25,0.02,0.2,0.95,1105.33,-16.2,44.2
4.88,0.5,0.0,1.25,0.0,0.75,0.0,1.5,0.0,0.0,0.5,0.5,0.0,0.0,-0.42,0.77,2.02,63.73,19.2,26.8,12.0,2.25,10.5,14.5,11.5,4.5,4.25,2.0,1.5,0.75,2.0,0.75,0.75,0.02,0.2,1.02,1169.31,-15.1,49.0
4.9,0.5,0.0,1.5,0.75,0.0,0.25,1.5,0.0,0.25,0.5,0.25,0.0,0.0,-0.67,1.08,2.7,72.72,22.0,31.1,12.5,3.0,11.0,14.5,11.5,4.75,4.0,1.25,1.0,1.0,2.0,0.5,0.25,0.02,0.2,1.08,1220.26,-15.7,52.9
4.92,0.5,0.0,1.5,0.25,0.0,0.0,1.5,0.0,0.25,0.5,0.5,0.0,0.0,-0.05,3.83,4.45,72.55,24.5,21.5,13.0,3.5,11.5,14.0,13.0,5.75,3.25,1.0,0.75,1.0,0.75,0.5,0.25,0.02,0.27,1.02,1278.37,-15.1,56.4
4.94,0.5,0.0,1.25,0.75,0.75,0.25,1.5,0.0,0.0,0.5,0.0,0.0,0.0,-0.86,3.02,1.27,73.09,17.7,42.3,13.5,2.75,12.5,16.5,13.0,3.0,2.25,1.0,0.75,1.0,1.5,0.5,0.5,0.02,0.27,1.08,1315.27,-16.8,55.4
4.96,0.5,0.25,1.25,1.0,0.0,0.0,1.5,0.0,0.25,0.5,0.25,0.0,0.0,0.27,5.02,0.52,73.1,22.6,34.5,13.5,4.25,12.5,16.0,13.0,4.75,2.0,1.0,0.75,1.25,0.75,0.5,0.75,0.14,0.33,1.14,1350.97,-15.6,56.1
4.98,0.25,0.0,1.25,0.75,0.0,0.25,1.25,0.75,0.25,0.5,0.5,0.0,0.0,2.83,6.7,-2.23,76.35,14.2,11.3,14.0,3.5,13.0,15.5,11.5,4.25,2.25,1.0,0.75,0.75,0.5,0.5,0.5,0.08,0.39,1.14,1351.49,-17.1,58.2
5.0,0.25,0.0,1.0,0.25,0.0,0.0,1.25,1.0,0.0,0.5,1.25,0.0,0.0,0.45,-1.36,-0.17,76.23,12.3,-10.4,14.5,3.5,13.0,14.0,9.75,2.75,2.75,1.0,0.75,0.25,0.5,0.5,0.25,0.02,0.45,1.27,1313.02,-19.2,60.8
5.02,0.5,0.0,1.0,0.25,0.0,0.0,1.25,0.25,0.25,0.5,0.75,0.0,0.0,-0.92,0.7,1.83,72.37,19.2,6.9,13.5,3.25,12.5,11.5,8.0,2.75,3.5,1.0,0.5,0.0,0.5,0.25,0.25,0.14,0.58,1.39,1198.77,-20.0,62.0
5.04,0.75,0.0,1.0,0.25,0.0,0.25,1.25,1.5,0.5,0.5,0.75,1.0,0.0,-0.48,1.39,3.08,82.0,10.2,-15.3,12.5,3.0,10.5,10.0,6.25,2.0,4.75,0.75,0.25,1.0,0.75,0.0,0.25,0.14,0.7,1.64,1037.89,-20.3,60.1
5.06,0.5,0.0,0.25,1.0,0.0,0.5,1.75,2.25,0.5,3.0,1.25,0.75,0.0,-0.05,0.2,0.77,110.3,0.1,-32.0,11.0,2.5,10.5,7.5,5.5,2.25,5.25,0.75,0.5,0.75,0.75,0.5,0.25,0.33,1.08,2.33,876.24,-20.5,56.8
5.08,0.5,0.0,1.0,1.0,0.0,1.25,1.5,3.5,1.0,2.25,2.5,0.75,0.75,-0.17,0.27,1.02,156.5,0.6,-30.7,9.75,2.0,8.75,6.0,2.5,1.0,4.25,0.75,0.25,0.75,0.75,0.5,0.0,0.02,1.2,2.52,686.26,-23.3,57.9
5.1,0.0,0.25,0.0,1.0,0.0,2.75,1.5,3.5,1.0,2.75,1.25,0.75,0.75,-0.05,0.14,0.95,190.39,-6.5,-30.5,8.25,1.0,6.75,4.5,2.5,2.0,2.5,1.0,0.25,0.5,0.5,0.5,0.5,0.02,0.95,2.89,515.74,-20.1,53.0
5.12,0.0,0.25,0.0,0.75,0.0,2.75,0.0,5.25,1.25,1.75,0.0,0.75,1.25,-0.11,0.14,0.95,210.46,-11.0,-32.1,6.0,0.5,5.25,3.25,2.5,1.0,1.75,0.75,0.5,0.75,0.5,0.5,0.5,0.45,-0.67,2.27,361.58,-19.4,46.9
5.14,1.25,1.0,0.5,1.75,4.25,3.0,0.0,5.25,1.75,3.0,1.25,2.5,1.25,-0.11,0.14,0.89,269.39,-2.6,-10.5,4.25,0.75,2.75,1.0,1.75,1.5,1.25,0.75,0.5,0.0,0.5,0.25,0.5,0.08,-0.17,-0.3,248.07,-16.4,46.3
5.16,1.0,0.0,2.5,0.0,4.5,3.25,0.0,6.0,2.5,5.75,3.0,4.0,1.5,-0.11,0.14,0.95,346.35,-2.0,-27.7,3.0,0.75,2.75,2.0,2.5,0.75,1.25,0.75,0.75,0.75,0.5,0.5,0.25,0.39,-1.23,1.77,167.76,-14.6,37.4
5.18,1.75,0.25,3.0,1.75,4.5,5.0,1.0,6.75,3.75,7.0,5.5,5.25,3.75,-0.11,0.08,0.95,508.58,-0.5,-28.5,2.0,1.25,2.5,2.0,2.5,0.5,1.0,1.0,0.5,0.25,0.5,0.25,0.25,0.45,-1.17,1.08,109.41,-13.9,41.9
5.2,2.5,1.75,1.75,2.0,4.75,5.0,1.5,7.5,4.25,7.75,6.25,5.5,5.25,-0.11,0.08,0.95,694.03,-0.9,-28.4,1.5,1.0,2.5,1.75,2.5,0.5,1.0,1.0,0.5,0.75,0.5,0.5,0.5,0.45,-0.8,0.39,85.3,-11.6,29.4
5.22,2.25,1.5,2.75,1.75,4.5,5.0,2.25,7.5,4.5,7.75,6.75,6.0,5.5,-0.11,0.08,0.95,862.13,0.0,-29.9,1.75,1.25,2.0,2.0,2.5,0.75,1.0,0.75,0.5,0.5,0.75,0.5,0.5,0.39,-0.67,0.14,86.11,-11.5,32.4
5.24,2.5,1.5,1.5,1.75,4.5,5.25,1.0,7.5,4.5,7.75,7.25,6.0,6.0,-0.11,0.08,0.95,960.69,-1.2,-32.9,1.5,0.75,2.25,2.0,2.5,0.5,1.0,1.0,0.5,0.75,0.5,0.5,0.5,0.2,-0.48,0.2,100.21,-11.2,28.1
5.26,2.25,0.5,2.25,2.25,4.5,5.25,1.0,7.5,5.0,7.75,7.0,6.25,6.0,-0.11,0.08,0.95,1012.57,-0.8,-33.9,1.5,0.5,2.0,2.0,2.5,0.25,1.25,1.0,0.5,0.75,0.5,0.0,0.5,0.08,-0.23,0.33,111.94,-11.5,31.1
5.28,1.5,0.75,1.25,2.5,4.5,5.0,1.25,7.5,5.0,7.75,7.5,6.25,6.0,-0.11,0.08,0.95,1020.5,-1.6,-36.7,2.0,0.75,2.0,2.0,2.5,0.5,1.25,1.0,0.25,0.75,0.5,0.5,0.5,0.14,0.02,0.58,131.98,-11.6,30.9
5.3,1.75,1.0,2.5,2.5,4.75,4.25,2.25,7.25,5.25,7.5,7.25,6.25,6.0,-0.05,0.08,0.95,1017.11,0.1,-33.0,1.5,1.0,1.75,2.5,2.5,0.25,1.0,0.75,0.5,0.75,0.75,0.5,0.25,0.2,2.83,0.45,151.56,-11.9,31.1
5.32,2.25,0.75,1.5,3.0,4.5,4.5,2.25,7.0,5.5,6.5,8.0,6.0,5.5,-0.11,0.08,0.95,995.73,0.4,-32.3,1.5,1.0,2.0,2.75,2.5,0.0,1.0,0.75,0.25,0.75,0.5,0.75,0.0,0.2,3.89,-1.3,172.33,-13.6,35.4
5.34,2.25,1.25,1.75,3.0,4.5,4.25,2.25,6.5,5.75,6.5,7.5,6.0,5.25,-0.11,0.08,0.95,964.65,0.9,-30.1,2.0,0.75,2.5,3.25,2.5,1.25,1.0,0.75,0.25,0.75,0.5,0.5,0.0,-0.23,5.27,-1.61,196.78,-12.5,39.9
5.36,2.5,1.25,2.5,2.0,4.75,4.0,2.5,6.0,5.75,5.25,7.25,5.25,4.5,-0.05,0.08,0.95,896.84,2.1,-26.0,1.75,0.5,2.75,3.25,2.5,0.25,1.0,0.75,0.25,0.75,0.5,0.5,0.25,0.14,4.39,0.33,212.87,-14.4,36.1
5.38,2.25,1.25,3.75,3.5,4.5,4.25,3.75,5.25,6.0,5.25,6.25,4.25,3.25,-0.05,0.08,0.95,829.19,4.0,-16.7,1.75,1.25,2.5,3.25,2.5,1.5,1.0,0.75,0.25,0.75,0.5,0.5,0.0,-0.36,-0.17,0.77,230.16,-11.7,40.9
5.4,2.75,1.5,4.75,3.75,4.75,4.25,3.75,5.0,6.25,4.0,6.25,4.0,2.0,-0.05,0.08,0.95,779.84,6.0,-8.6,1.75,0.5,2.5,3.25,2.75,2.75,1.0,0.75,0.25,0.75,0.5,0.5,0.25,0.2,0.33,0.02,240.82,-8.7,35.8
5.42,4.0,1.25,4.75,3.25,4.5,4.5,4.25,3.75,6.25,3.25,5.75,2.5,1.25,-0.05,0.08,0.95,724.38,7.8,0.0,2.0,0.5,2.25,3.25,3.75,2.75,1.0,0.75,0.25,0.5,0.75,0.25,0.25,0.45,0.7,0.64,255.52,-8.2,39.4
5.44,4.25,2.0,4.75,3.75,4.5,4.25,4.25,3.5,6.25,3.0,4.75,2.5,1.0,-0.05,0.08,0.95,691.34,8.6,5.4,1.75,0.5,1.25,3.25,5.25,4.0,1.0,0.75,0.25,0.75,0.75,0.25,0.25,0.27,0.58,0.95,271.55,-3.2,37.1
5.46,5.25,1.75,4.75,3.25,4.5,4.5,4.25,3.5,5.75,3.0,3.75,2.0,1.0,-0.05,0.08,0.95,662.21,8.7,9.8,1.75,0.0,1.25,3.25,5.75,5.75,1.0,0.75,0.25,0.0,0.75,0.0,0.25,0.2,0.45,0.77,287.59,-1.3,41.6
5.48,5.5,1.5,5.0,3.75,4.5,4.25,4.25,3.5,5.5,3.0,3.0,1.0,1.0,-0.11,0.08,0.95,638.34,9.2,14.9,0.25,0.5,0.5,5.0,7.5,7.0,0.0,1.0,0.25,0.0,0.75,0.25,0.25,0.33,0.45,1.89,314.97,2.5,38.7
5.5,6.0,1.5,4.75,2.75,4.5,4.25,3.75,3.5,5.0,3.0,3.0,0.75,1.25,-0.05,0.08,0.95,610.62,8.8,15.0,0.5,0.0,0.5,3.25,8.25,7.0,0.75,1.0,0.0,0.0,0.25,0.0,0.5,0.2,0.39,1.7,330.38,4.3,40.0
5.52,5.75,1.75,4.75,3.25,5.25,4.5,3.25,3.25,4.5,3.0,1.25,0.75,1.25,-0.05,0.14,0.89,590.78,8.3,21.1,1.25,0.0,0.0,4.0,7.5,6.25,0.0,0.75,0.0,0.0,0.0,0.5,0.0,0.33,0.45,1.39,332.93,2.7,44.3
5.54,6.0,1.75,4.75,2.5,5.75,4.0,2.75,2.25,3.5,3.0,2.0,0.75,1.0,-0.11,0.08,1.02,563.99,9.1,23.2,2.25,1.25,0.0,4.5,6.75,6.25,0.5,1.0,0.0,0.75,0.75,0.5,0.5,0.2,0.58,1.08,347.4,0.2,37.9
5.56,6.5,1.75,4.5,1.75,5.75,4.25,1.5,2.5,2.75,2.75,2.75,0.75,0.75,-0.23,0.14,1.02,540.14,8.6,23.6,3.0,1.25,0.0,3.25,7.5,5.75,0.0,1.0,0.25,0.0,0.5,0.5,0.5,0.39,0.58,0.95,354.1,-0.3,43.2
5.58,6.5,1.75,1.5,0.75,5.0,2.75,0.5,1.75,2.0,1.25,2.75,0.75,0.0,-0.3,0.2,1.02,460.32,9.0,29.2,3.0,1.25,0.0,3.25,6.75,4.25,0.5,0.75,0.0,0.0,0.5,0.25,0.5,0.45,0.58,0.64,346.71,-2.3,46.8
5.6,6.5,1.75,1.0,1.5,5.0,4.0,1.0,2.75,1.5,2.75,2.5,0.75,0.25,-0.17,0.27,0.89,416.71,5.4,23.0,3.0,1.5,0.0,3.25,5.75,5.75,0.5,0.75,0.0,0.0,0.5,0.0,0.5,0.45,0.45,0.2,337.57,-1.0,48.1
5.62,6.5,1.5,2.5,1.5,4.5,3.5,0.0,1.75,1.25,2.5,2.5,0.75,0.5,-0.11,0.27,0.83,377.45,8.0,25.8,3.0,1.5,0.0,3.25,3.5,5.75,0.0,0.0,0.0,0.5,0.25,0.0,0.5,0.39,0.45,-0.05,310.31,-1.4,49.4
5.64,6.5,1.5,2.75,2.25,4.5,3.25,0.5,1.5,1.25,2.25,1.5,0.75,0.5,-0.05,0.27,0.7,365.22,9.3,31.7,3.25,2.0,0.0,3.25,5.75,5.0,0.0,0.5,0.0,0.0,0.5,0.25,0.5,-1.05,-0.17,-0.48,301.75,-2.4,49.7
5.66,7.25,1.75,2.75,0.75,4.5,3.5,0.5,1.75,1.25,2.5,2.5,0.75,0.25,0.08,0.08,0.83,363.02,9.1,28.8,2.25,1.25,0.75,3.25,7.5,5.0,0.0,0.0,0.25,0.0,0.0,0.5,0.0,-1.55,1.08,0.58,298.09,-2.2,52.4
5.68,7.75,1.75,3.75,2.75,4.5,3.5,0.0,1.75,0.5,2.25,2.5,0.75,1.0,0.2,0.14,0.89,384.22,10.3,31.7,3.0,2.0,0.0,3.25,5.75,6.0,0.5,0.75,0.25,0.0,0.5,0.0,0.5,1.08,0.52,-0.05,306.8,-1.1,48.1
5.7,7.5,1.5,4.0,1.75,4.75,3.0,0.5,1.75,1.25,2.75,2.25,0.75,0.0,0.14,0.14,1.14,397.46,11.0,32.2,1.5,0.75,0.0,2.75,5.5,4.5,0.0,0.0,0.0,0.0,0.0,0.0,0.0,2.58,0.52,-0.42,283.05,0.6,55.2
5.72,8.5,2.0,4.25,3.0,4.5,3.25,0.0,1.5,1.5,0.75,1.5,0.75,0.5,1.14,0.08,2.27,418.43,13.4,43.2,0.5,0.0,0.0,0.5,2.75,2.75,0.5,0.0,0.0,0.0,0.5,0.0,0.0,1.89,0.2,0.08,225.45,4.2,40.6
5.74,7.25,0.5,3.0,3.75,4.25,2.75,0.0,1.5,1.0,0.5,1.25,0.5,0.5,1.02,0.45,1.83,403.34,12.6,42.3,0.25,0.0,0.0,2.0,2.25,2.75,0.25,0.0,0.25,0.75,0.0,0.0,0.0,-0.3,0.27,1.83,168.81,3.3,35.7
5.76,7.25,1.75,2.5,3.25,3.0,2.5,0.0,1.5,0.75,1.25,2.0,0.0,0.5,0.39,0.83,1.58,386.27,12.5,40.9,0.5,0.0,0.0,2.0,0.0,2.75,0.25,0.0,0.25,0.75,0.5,0.0,0.25,1.83,1.52,1.52,112.89,1.4,18.2
5.78,4.25,0.0,1.25,1.0,1.25,2.5,0.0,0.5,0.0,0.5,1.25,0.0,0.0,-0.05,1.14,2.14,300.64,11.7,43.5,1.5,0.0,0.0,1.5,2.25,2.75,1.0,0.75,0.0,0.0,0.5,0.0,0.25,1.7,1.08,1.95,98.38,-1.2,36.9
5.8,2.25,0.0,0.75,0.0,0.5,1.75,0.0,0.25,0.25,0.75,1.25,0.0,0.0,1.64,1.64,1.64,222.55,8.3,22.8,0.25,0.0,0.0,0.5,0.0,0.5,0.25,0.0,0.0,0.0,0.0,0.0,0.0,2.39,1.39,0.7,54.14,-7.6,53.7
5.82,1.75,0.0,0.25,0.0,0.0,0.5,0.0,1.0,0.25,0.5,1.0,0.0,0.0,-0.11,2.95,2.77,130.07,8.8,6.4,0.25,0.0,0.0,0.5,0.0,0.25,0.5,0.0,0.0,0.0,0.0,0.0,0.0,1.7,0.89,1.27,22.61,-15.8,54.9
5.84,1.5,0.5,0.5,0.0,0.0,1.0,1.0,1.0,0.25,0.75,1.0,0.75,0.0,2.39,2.33,2.52,69.81,8.0,0.6,0.25,0.0,0.0,0.5,0.0,0.25,0.5,0.0,0.0,0.0,0.0,0.0,0.0,0.89,0.7,1.27,0.0,-15.8,54.9
5.86,1.75,0.0,2.5,1.0,4.5,0.5,1.75,1.5,0.5,1.0,2.0,0.75,0.0,2.58,1.64,2.95,94.76,9.4,18.0,0.25,0.0,0.0,0.5,0.0,0.0,0.5,0.0,0.0,0.0,0.0,0.0,0.0,1.08,1.02,0.7,0.0,-25.0,59.9
5.88,2.0,1.75,2.5,1.0,4.5,1.75,1.75,1.5,0.5,1.0,2.0,0.75,0.5,-0.67,0.52,1.7,158.45,7.6,23.5,0.25,0.0,0.0,0.5,0.0,0.25,0.5,0.0,0.0,0.0,0.0,0.0,0.0,1.39,0.89,0.45,0.0,-15.8,54.9
5.9,2.25,1.0,2.5,1.25,4.5,0.75,1.75,1.5,0.5,0.5,1.5,0.75,0.25,-0.61,-1.17,0.95,205.28,10.3,28.4,0.25,0.0,0.0,0.5,0.0,0.0,0.5,0.0,0.0,0.0,0.0,0.0,0.0,1.58,0.64,0.52,0.0,-25.0,59.9
5.92,2.25,1.25,2.5,1.0,4.5,0.75,1.75,1.5,0.5,1.25,1.75,0.75,0.5,0.14,-1.73,1.14,235.6,8.9,21.9,0.25,0.0,0.0,0.5,0.0,0.0,0.5,0.75,0.0,0.0,0.75,0.0,0.5,1.45,0.39,0.58,0.0,-4.3,-27.0
5.94,2.0,1.5,2.5,1.0,4.25,1.75,1.75,1.0,0.5,0.5,1.5,0.75,0.5,0.95,-1.42,1.83,251.1,8.9,28.8,1.75,0.25,0.0,1.25,1.0,1.25,1.0,0.0,0.25,0.0,0.5,0.0,0.5,1.02,0.52,0.52,32.37,-9.4,37.7
5.96,1.75,1.25,2.5,0.25,4.5,1.75,1.75,0.25,0.5,1.25,1.75,0.5,0.25,1.58,-0.92,1.83,255.41,8.3,27.0,0.25,0.0,0.0,0.25,0.0,0.0,0.5,0.0,0.0,0.0,0.0,0.0,0.0,0.64,0.45,0.39,37.34,-27.8,60.6
5.98,1.75,1.5,2.5,1.0,2.5,1.5,1.75,1.5,0.5,0.5,1.5,1.0,0.5,1.45,-0.23,1.52,258.69,9.7,21.0,0.5,0.0,0.0,0.5,0.0,0.0,0.5,0.0,0.0,0.0,0.0,0.0,0.0,0.39,0.27,0.33,34.53,-26.9,67.1
6.0,1.75,1.25,2.5,0.75,4.5,2.5,1.75,1.5,0.5,0.5,1.75,0.0,0.25,0.95,0.33,0.77,270.94,6.7,31.4,0.25,0.0,0.25,0.5,1.75,0.0,1.0,0.5,0.0,0.0,0.75,0.0,0.5,0.2,-0.05,0.33,45.19,-5.3,11.3
6.02,1.75,0.75,2.5,1.25,4.5,1.0,1.75,1.5,0.5,1.0,1.5,0.75,0.25,0.39,0.39,0.52,281.2,8.5,22.9,0.5,0.0,0.0,0.5,0.0,0.0,0.5,0.0,0.0,0.0,0.0,0.0,0.0,0.33,-0.48,0.27,39.88,-26.9,67.1
6.04,1.25,1.25,2.5,1.0,4.5,1.25,1.75,1.5,0.5,0.75,1.5,0.75,0.5,-0.05,0.52,0.39,283.03,7.5,22.3,0.25,0.0,0.0,0.5,0.0,0.0,0.5,0.0,0.0,0.0,0.0,0.0,0.0,0.64,-0.8,0.08,38.89,-25.0,59.9
6.06,1.25,1.5,2.5,2.0,4.5,1.0,1.75,0.25,0.5,0.5,1.25,0.5,0.25,-0.36,0.45,0.27,276.08,10.8,36.3,0.0,0.0,0.0,0.5,0.0,0.0,0.5,0.0,0.0,0.0,0.0,0.0,0.0,0.83,-0.92,0.02,27.47,-21.9,48.3
6.08,1.5,1.25,2.5,1.0,4.5,1.0,1.75,1.5,0.5,0.25,1.5,0.75,0.25,-0.73,0.45,-0.11,266.36,9.2,27.7,0.25,0.0,0.0,0.5,0.0,0.0,1.0,0.75,0.25,0.0,0.5,0.0,0.0,0.83,-0.86,-0.05,30.06,-10.4,-3.2
6.1,1.5,1.25,2.5,1.0,4.5,1.25,1.75,1.5,0.5,1.0,1.25,0.25,0.25,-0.86,0.27,-0.48,256.78,7.7,28.7,0.0,0.0,0.0,0.25,0.0,0.0,0.75,0.0,0.0,0.0,0.0,0.0,0.0,0.77,-0.67,-0.05,19.52,-25.9,40.2
6.12,1.25,1.0,2.5,1.0,4.5,0.25,1.75,1.5,0.0,1.5,1.25,0.75,0.5,-0.8,-0.05,-0.67,252.0,7.9,19.4,0.25,0.0,0.0,0.0,0.0,0.0,0.5,0.0,0.0,0.0,0.0,0.0,0.0,0.7,-0.61,-0.05,14.86,-33.6,62.1
6.14,1.25,1.0,2.5,1.0,4.5,1.5,1.75,1.5,0.25,1.25,1.5,0.75,0.5,-0.73,-0.17,-0.61,256.65,6.3,19.6,0.25,0.0,0.0,0.0,0.0,0.0,0.5,0.0,0.0,0.0,0.0,0.0,0.0,0.64,-0.48,-0.17,7.31,-33.6,62.1
6.16,1.25,1.25,2.5,1.0,4.5,1.0,1.75,1.5,0.5,0.5,1.5,0.75,0.5,-0.67,-0.23,-0.61,256.9,8.2,23.5,0.25,0.0,0.0,0.5,0.0,0.0,0.5,0.0,0.0,0.0,0.0,0.0,0.0,0.45,-0.36,-0.3,4.46,-25.0,59.9
6.18,1.25,1.25,2.5,1.0,4.5,1.0,1.75,1.5,0.5,1.25,1.5,0.75,0.5,-0.42,-0.23,-0.73,261.57,7.2,19.6,0.0,0.0,0.0,0.25,0.0,0.0,0.5,0.0,0.0,0.0,0.0,0.0,0.0,0.33,-0.3,-0.36,1.34,-24.4,43.3
6.2,1.5,1.25,2.5,1.0,4.5,1.5,1.75,1.5,0.5,0.5,1.25,0.75,0.5,-0.3,-0.23,-0.92,263.64,7.7,26.0,0.25,0.0,0.0,0.5,0.0,0.0,0.5,0.0,0.0,0.0,0.0,0.0,0.0,0.27,-0.23,-0.42,9.91,-25.0,59.9
6.22,1.5,1.25,2.5,1.0,4.5,1.75,1.75,1.5,0.5,0.75,1.25,0.5,0.25,-0.36,-0.23,-0.98,265.58,7.3,28.4,0.25,0.0,0.0,0.0,0.0,0.0,0.5,0.0,0.0,0.0,0.0,0.0,0.0,0.27,-0.11,-0.48,7.31,-33.6,62.1
6.24,1.5,1.5,2.5,1.0,4.5,1.5,1.75,1.5,0.5,1.75,1.25,0.75,0.5,-0.42,-0.23,-1.05,270.24,6.3,20.6,0.25,0.0,0.0,0.25,0.0,0.0,0.5,0.0,0.0,0.0,0.0,0.0,0.0,0.14,-0.05,-0.36,7.02,-27.8,60.6
6.26,1.0,1.0,2.5,1.0,4.5,1.0,1.75,1.5,0.5,1.25,1.25,0.75,0.25,-0.55,-0.17,-1.05,267.54,7.0,20.6,0.25,0.0,0.0,0.5,0.0,0.0,0.5,0.0,0.0,0.0,0.0,0.0,0.0,0.14,0.02,-0.48,12.06,-25.0,59.9
6.28,1.75,1.0,2.5,1.0,4.5,1.5,1.75,1.5,0.5,0.75,1.25,0.75,0.25,-0.61,-0.17,-1.11,267.63,7.9,26.4,0.25,0.0,0.0,0.25,0.0,0.0,0.5,0.0,0.0,0.0,0.0,0.0,0.0,0.08,0.08,-0.48,12.92,-27.8,60.6
6.3,1.5,1.25,2.5,1.0,4.5,1.25,1.75,1.5,0.5,1.75,1.25,0.5,0.5,-0.61,-0.23,-1.11,268.3,6.5,21.1,0.25,0.0,0.0,0.25,0.0,0.0,0.5,0.0,0.0,0.0,0.0,0.0,0.0,0.02,0.14,-0.61,12.94,-27.8,60.6
6.32,1.25,1.25,2.5,1.0,4.5,1.25,1.75,1.5,0.5,0.5,1.25,0.75,0.25,-0.48,-0.3,-1.05,265.47,8.0,26.9,0.25,0.0,0.0,0.25,0.0,0.0,0.5,0.0,0.0,0.0,0.0,0.0,0.0,-0.11,0.2,-0.67,12.33,-27.8,60.6
6.34,1.5,1.25,2.5,1.0,4.5,1.25,1.75,1.5,0.5,0.5,1.25,0.5,0.5,-0.48,-0.3,-0.98,263.17,8.1,27.7,0.25,0.0,0.0,0.0,0.0,0.0,0.5,0.0,0.0,0.0,0.0,0.0,0.0,-0.23,0.2,-0.61,12.35,-33.6,62.1
6.36,1.25,1.25,2.5,1.0,4.5,1.25,1.75,1.5,0.75,0.5,1.5,0.75,0.25,-0.42,-0.36,-0.92,262.02,8.1,24.7,0.25,0.0,0.0,0.0,0.0,0.0,0.5,0.0,0.0,0.0,0.0,0.0,0.0,-0.42,0.2,-0.36,10.35,-33.6,62.1
6.38,1.0,0.5,2.5,1.0,4.5,1.25,1.75,1.5,0.5,1.25,1.25,0.75,0.5,-0.3,-0.42,-0.8,258.06,6.2,16.6,0.25,0.0,0.0,0.5,0.0,0.0,0.5,0.0,0.0,0.0,0.0,0.0,0.0,-0.48,0.2,-0.36,12.02,-25.0,59.9
6.4,1.5,1.0,2.5,1.0,4.25,1.0,1.75,1.5,0.5,1.25,1.25,0.75,0.25,-0.11,-0.48,-0.67,256.45,7.9,22.0,0.0,0.0,0.0,0.5,0.0,0.0,0.5,0.0,0.0,0.0,0.25,0.0,0.0,-0.36,0.27,-0.55,13.72,-19.2,18.5
6.42,1.0,1.25,2.5,1.0,4.5,1.0,1.75,1.5,0.25,1.25,1.5,0.75,0.25,0.08,-0.55,-0.55,255.67,7.1,21.2,0.25,0.0,0.0,0.0,0.0,0.0,0.75,0.0,0.0,0.0,0.0,0.0,0.0,-0.23,0.27,-0.55,13.87,-33.4,55.1
6.44,1.75,0.5,2.5,1.0,4.5,1.0,1.75,1.5,0.25,0.5,1.25,0.75,0.25,0.2,-0.61,-0.48,252.29,8.9,26.4,0.25,0.0,0.0,0.0,0.0,0.0,0.5,0.0,0.0,0.0,0.0,0.0,0.0,-0.11,0.14,-0.55,11.91,-33.6,62.1
6.46,1.25,1.0,2.5,1.0,4.5,1.25,1.75,1.5,0.5,1.5,1.5,0.75,0.5,0.33,-0.61,-0.48,255.94,6.5,17.5,0.25,0.0,0.0,0.25,0.0,0.0,0.5,0.0,0.0,0.0,0.0,0.0,0.0,-0.05,-0.05,-0.61,11.82,-27.8,60.6
6.48,1.25,1.25,2.5,1.0,4.5,1.0,1.75,1.5,0.5,1.0,1.25,0.5,0.25,0.45,-0.61,-0.48,255.91,7.8,25.8,0.25,0.0,0.0,0.0,0.0,0.0,0.5,0.0,0.0,0.0,0.0,0.0,0.0,-0.05,-0.17,-0.48,9.76,-33.6,62.1
6.5,1.25,1.0,2.5,1.0,4.25,1.75,1.75,1.5,0.5,1.25,1.5,0.0,0.5,0.58,-0.61,-0.42,259.35,6.1,23.7,0.25,0.0,0.0,0.25,0.0,0.0,0.5,0.0,0.0,0.0,0.0,0.0,0.0,-0.05,-0.23,-0.36,10.54,-27.8,60.6
6.52,1.25,1.0,2.5,1.0,4.5,1.5,1.75,1.5,0.5,0.75,1.75,0.75,0.25,0.52,-0.61,-0.36,260.01,7.3,22.0,0.0,0.0,0.0,0.25,0.0,0.0,0.5,0.0,0.0,0.0,0.0,0.0,0.0,0.08,-0.23,-0.3,10.08,-24.4,43.3
6.54,1.25,1.25,2.5,1.0,4.5,1.0,1.75,1.5,0.5,0.5,1.25,0.75,0.25,0.52,-0.61,-0.23,259.0,8.5,26.8,1.5,0.5,0.0,0.75,0.0,1.25,0.5,0.0,0.25,0.75,0.0,0.25,0.0,0.33,-0.11,-0.23,38.32,-8.0,34.8
6.56,1.25,1.25,2.5,1.0,4.5,1.5,1.75,1.5,0.25,1.25,1.5,0.75,0.5,0.58,-0.55,-0.17,262.55,6.4,20.7,0.25,0.0,0.25,0.25,0.0,0.0,0.5,0.0,0.0,0.0,0.0,0.0,0.0,0.52,0.02,-0.23,38.38,-30.5,60.7
6.58,1.25,1.0,2.5,1.0,4.5,1.25,1.75,0.5,0.5,0.0,1.25,0.75,0.5,0.52,-0.48,-0.17,255.4,9.9,30.7,0.5,0.5,0.0,0.5,0.0,1.5,0.75,0.0,0.25,0.75,0.0,0.5,0.0,0.58,0.2,-0.17,59.45,-1.4,13.4
6.6,1.0,1.0,2.5,1.0,4.5,1.25,1.75,0.25,0.5,1.25,1.5,0.25,0.25,0.45,-0.61,-0.23,250.51,8.4,27.7,1.5,0.5,0.0,0.5,1.75,1.75,1.0,0.75,0.25,1.0,0.5,0.5,0.5,0.58,0.27,-0.17,96.66,-1.2,13.3
6.62,1.25,1.25,2.5,1.0,4.5,1.25,1.75,1.5,0.5,0.5,1.75,0.75,0.25,0.45,-0.55,-0.11,250.98,8.1,24.2,0.25,0.0,0.0,0.25,1.0,0.0,0.5,0.0,0.0,0.0,0.0,0.0,0.0,0.64,0.2,-0.11,92.23,-8.7,56.2
6.64,1.25,1.0,2.5,1.0,4.5,1.0,1.75,1.5,0.5,1.75,1.5,1.0,0.25,0.52,-0.61,0.02,256.43,6.9,16.1,0.25,0.0,0.0,0.0,0.0,0.0,0.5,0.0,0.0,0.0,0.0,0.0,0.0,0.7,0.08,0.14,72.33,-33.6,62.1
6.66,1.25,1.25,2.5,1.25,4.5,1.75,1.75,1.5,0.5,0.5,1.25,0.75,0.0,0.45,-0.61,0.02,260.58,7.7,29.4,0.25,0.0,0.0,0.0,0.0,0.0,0.5,0.0,0.0,0.0,0.0,0.0,0.0,0.89,0.02,0.14,43.95,-33.6,62.1
6.68,1.25,1.25,2.5,1.0,4.5,1.5,1.75,1.5,0.5,1.0,1.5,0.5,0.25,0.45,-0.61,0.08,264.23,7.0,24.7,0.0,0.0,0.0,0.25,0.0,0.0,0.5,0.0,0.0,0.0,0.0,0.0,0.0,1.08,-0.17,0.33,23.71,-24.4,43.3
6.7,1.25,1.25,2.5,1.0,4.5,1.5,1.75,1.5,0.5,1.25,1.5,0.5,0.25,0.52,-0.67,0.2,265.78,6.7,23.4,0.25,0.0,0.0,0.25,0.0,0.0,0.5,0.0,0.0,0.0,0.0,0.0,0.0,1.2,-0.55,0.58,9.93,-27.8,60.6
6.72,1.25,1.25,2.5,1.0,4.5,1.5,1.75,1.5,0.5,0.5,1.5,0.5,0.25,0.52,-0.67,0.27,264.61,7.7,27.5,0.25,0.0,0.0,0.0,0.0,0.0,0.5,0.0,0.0,0.0,0.0,0.0,0.0,1.52,-0.8,0.58,7.14,-33.6,62.1
6.74,1.25,1.25,2.5,1.0,4.5,1.25,1.75,1.5,0.5,0.5,1.5,0.5,0.5,0.58,-0.73,0.33,262.87,7.8,25.5,0.5,0.0,0.0,0.5,0.0,0.25,0.75,0.5,0.0,0.0,0.0,0.0,0.25,1.83,-1.05,0.64,15.32,-8.3,19.7
6.76,1.25,1.0,2.5,1.0,4.5,1.0,1.75,1.5,0.5,0.5,1.5,0.75,0.25,0.58,-0.73,0.45,259.44,8.4,24.3,0.25,0.0,0.0,0.0,0.0,0.0,0.5,0.0,0.0,0.0,0.0,0.0,0.0,1.7,-1.48,0.89,9.34,-33.6,62.1
6.78,1.25,1.0,2.25,1.0,4.5,0.75,1.75,1.5,0.25,0.5,1.25,0.75,0.25,0.52,-0.8,0.52,253.16,8.3,26.0,0.25,0.0,0.0,0.0,0.0,1.5,0.5,0.0,0.25,1.0,0.0,0.5,0.0,1.52,-1.8,1.2,21.46,6.8,-17.0
6.8,0.5,0.5,2.5,1.0,4.5,0.5,2.0,0.0,0.5,0.5,0.5,0.75,0.0,0.58,-0.86,0.58,233.84,11.3,34.1,0.0,0.0,0.0,0.25,0.0,0.0,0.5,0.0,0.0,0.0,0.0,0.0,0.0,1.39,-1.73,1.02,17.79,-24.4,43.3
6.82,1.5,1.0,2.5,1.0,4.5,2.0,1.75,1.5,0.5,0.75,1.5,0.75,0.25,0.58,-0.92,0.64,241.09,6.9,24.4,0.25,0.0,0.0,0.0,0.0,1.5,0.5,0.0,0.25,0.75,0.0,0.5,0.0,1.27,-1.48,0.77,27.92,6.1,-12.7
6.84,1.25,1.25,2.5,1.0,4.5,0.75,1.75,1.5,0.25,0.5,1.5,0.5,0.5,0.7,-0.98,0.7,241.15,8.5,26.1,0.25,0.0,0.0,0.75,1.25,1.25,1.0,0.75,0.25,0.75,0.5,0.25,0.5,1.08,-1.23,0.64,55.73,2.1,-2.3
6.86,1.5,1.0,2.5,1.0,4.5,0.75,1.75,1.5,0.5,0.5,1.5,0.75,0.25,0.77,-1.05,0.77,247.52,9.2,25.2,1.5,0.5,0.0,0.5,1.0,1.25,1.0,0.75,0.25,0.75,0.5,0.5,0.5,0.95,-0.92,0.45,99.71,-3.5,10.6
6.88,1.25,1.0,2.75,1.25,4.5,1.0,1.75,1.5,0.5,0.5,1.5,0.75,0.25,0.89,-1.11,0.83,251.55,9.0,25.3,1.5,0.5,0.5,0.5,1.25,1.75,1.0,0.75,0.0,0.0,0.75,0.0,0.75,0.7,-0.61,0.27,129.52,-4.7,25.9
6.9,1.25,1.25,2.5,1.0,4.5,0.25,1.75,1.5,0.5,1.0,1.5,0.75,0.25,0.89,-1.11,0.77,254.25,9.1,22.2,0.0,0.0,0.0,0.0,0.0,0.0,0.5,0.0,0.0,0.0,0.0,0.0,0.0,0.52,-0.42,0.08,104.75,-32.4,27.3
6.92,1.25,1.25,2.5,1.0,4.5,1.0,1.75,1.5,0.25,0.0,1.5,0.75,0.25,0.77,-1.17,0.77,251.76,9.1,29.2,0.25,0.0,0.0,0.0,0.0,0.25,0.5,0.0,0.0,0.0,0.0,0.0,0.0,0.39,-0.3,0.02,74.41,-14.8,52.8
6.94,1.0,1.0,2.5,1.0,4.5,0.5,1.75,1.5,0.5,0.5,1.5,0.5,0.5,0.7,-1.23,0.7,248.7,8.6,23.0,0.25,0.0,0.0,0.0,0.0,0.0,0.5,0.0,0.0,0.0,0.0,0.0,0.0,0.39,-0.11,-0.11,36.39,-33.6,62.1
6.96,1.25,1.25,2.5,1.0,4.5,0.75,1.75,1.5,0.5,0.5,1.25,0.75,0.5,0.64,-1.17,0.7,250.5,8.6,24.7,1.5,0.5,0.0,0.25,0.0,0.0,0.5,0.0,0.0,0.75,0.0,0.5,0.0,0.45,-0.05,-0.11,34.86,-16.4,26.9
6.98,1.25,1.25,2.5,1.0,4.5,1.0,1.75,1.5,0.5,0.5,1.5,0.75,0.25,0.52,-1.3,0.64,252.61,8.5,25.4,0.0,0.0,0.0,0.5,0.0,1.25,0.5,0.0,0.25,0.75,0.0,0.5,0.0,0.58,-0.05,0.02,37.11,4.2,-12.7
7.0,1.25,1.25,2.25,1.0,4.5,0.5,1.75,1.5,0.5,1.25,1.25,0.75,0.25,0.45,-1.42,0.89,254.78,7.8,21.8,0.75,0.5,0.25,0.5,1.0,1.25,1.0,0.75,0.0,0.0,0.5,0.0,0.75,0.77,-0.05,0.14,68.68,-2.4,19.1
7.02,1.25,1.25,2.5,1.0,4.5,0.75,1.75,1.5,0.5,1.0,1.25,0.75,0.25,0.39,-1.42,0.89,257.04,8.2,23.8,0.25,0.0,0.0,0.0,0.0,0.0,0.5,0.0,0.0,0.0,0.0,0.0,0.0,0.89,-0.05,0.2,52.9,-33.6,62.1
7.04,1.0,1.25,2.5,1.0,4.5,1.0,1.75,1.5,0.5,1.0,1.25,0.5,0.25,0.33,-1.36,0.89,256.82,7.4,24.9,0.25,0.0,0.0,0.0,0.0,0.0,0.5,0.0,0.0,0.0,0.25,0.0,0.0,1.08,-0.11,0.39,38.46,-25.9,15.5
7.06,1.25,1.25,2.5,1.0,4.5,0.75,1.75,1.25,0.5,1.0,1.25,0.5,0.0,0.2,-1.36,1.14,252.05,8.9,28.7,0.25,0.0,0.0,0.0,0.0,0.0,0.75,0.0,0.0,0.0,0.0,0.0,0.0,1.14,-0.17,0.45,12.17,-33.4,55.1
7.08,1.0,1.0,2.5,1.0,4.5,1.25,1.75,1.5,0.5,0.5,1.5,0.75,0.25,0.14,-1.3,1.27,252.4,7.7,23.5,0.25,0.0,0.0,0.25,0.0,0.0,0.5,0.0,0.0,0.0,0.0,0.0,0.0,1.08,-0.3,0.45,1.17,-27.8,60.6
7.1,1.0,1.25,2.75,1.0,4.5,0.5,1.75,1.5,0.5,0.5,1.5,0.75,0.5,0.14,-1.23,1.14,252.35,9.1,22.8,0.25,0.0,0.0,0.0,0.0,0.0,0.5,0.0,0.0,0.0,0.0,0.0,0.0,0.95,-0.48,0.58,0.0,-33.6,62.1
7.12,1.25,1.25,2.25,1.0,4.5,0.75,1.75,1.5,0.25,1.25,1.25,0.75,0.5,0.14,-1.11,0.89,253.5,7.1,20.9,0.25,0.0,0.0,0.25,0.0,0.0,0.5,0.0,0.0,0.0,0.0,0.0,0.0,0.77,-0.61,0.58,2.64,-27.8,60.6
7.14,1.0,1.25,2.5,1.0,4.5,0.75,1.75,1.5,0.5,1.25,1.25,1.0,0.25,0.2,-0.86,0.83,255.83,7.5,19.7,1.5,0.5,0.0,0.75,0.0,0.25,0.5,0.0,0.0,0.0,0.0,0.0,0.0,0.7,-0.67,0.52,25.59,-22.4,78.1
7.16,1.0,1.0,2.5,1.0,4.5,1.0,1.75,1.5,0.5,0.5,1.5,1.25,0.5,0.27,-0.73,0.77,257.36,7.8,17.9,0.25,0.0,0.0,0.0,0.0,0.0,0.5,0.0,0.0,0.0,0.0,0.0,0.0,0.58,-0.73,0.52,20.41,-33.6,62.1
7.18,0.75,1.25,2.5,1.0,4.5,1.0,1.75,1.5,0.5,1.75,1.25,0.75,0.25,0.27,-0.67,0.64,259.03,6.2,18.1,0.0,0.0,0.0,0.0,0.0,0.0,0.5,0.0,0.0,0.0,0.0,0.0,0.0,0.45,-0.73,0.45,14.83,-32.4,27.3
7.2,1.0,1.25,2.75,1.0,4.5,0.75,1.75,1.25,0.5,0.5,1.5,0.75,0.25,0.27,-0.61,0.58,256.65,9.4,25.8,0.25,0.0,0.0,0.0,0.0,0.0,0.5,0.0,0.0,0.0,0.0,0.0,0.0,0.39,-0.73,0.45,5.04,-33.6,62.1
7.22,1.0,1.25,2.25,1.0,4.5,0.75,1.75,1.5,0.5,0.5,1.5,0.75,0.25,0.2,-0.61,0.58,253.54,8.1,23.8,0.25,0.0,0.0,0.5,0.0,0.0,0.5,0.0,0.0,0.0,0.0,0.0,0.0,0.58,-0.05,0.33,5.96,-25.0,59.9
7.24,1.0,1.25,2.25,1.0,3.75,0.75,1.75,1.5,0.5,0.75,1.5,0.75,0.5,0.14,-0.61,0.45,248.26,8.0,18.8,0.5,0.25,0.0,0.5,0.0,0.25,0.5,0.0,0.0,0.0,0.0,0.0,0.0,0.14,-0.8,0.58,12.12,-17.9,67.3
7.26,1.0,1.25,1.75,1.0,3.5,1.0,1.75,1.5,0.5,0.5,1.5,1.25,0.5,0.14,-0.61,0.33,242.33,7.2,14.6,0.5,0.25,0.0,0.5,0.0,0.5,1.0,0.0,0.0,0.5,0.0,0.0,0.0,0.2,-0.61,0.27,30.82,-9.4,34.4
7.28,1.0,1.0,2.5,1.0,4.5,0.75,1.75,1.5,0.5,0.75,1.25,0.75,0.5,0.02,-0.55,-0.3,242.46,7.8,21.2,1.5,0.5,0.0,0.5,1.0,1.25,1.0,0.5,0.0,0.75,0.5,0.25,0.5,0.2,-0.48,0.33,68.51,-3.7,17.7
7.3,0.75,1.0,2.5,1.0,4.5,0.5,1.75,1.5,0.5,0.5,1.25,0.75,0.25,0.27,-0.67,0.14,240.25,8.5,23.5,1.75,0.5,0.25,0.5,0.5,1.25,1.0,0.75,0.0,0.75,0.5,0.5,0.5,0.2,-0.42,0.45,100.81,-5.8,13.2
7.32,0.5,0.0,2.0,1.0,4.5,0.0,1.75,1.5,0.0,0.25,1.5,0.75,0.5,0.14,-0.8,0.27,227.78,7.7,14.8,1.5,0.5,0.5,0.5,1.25,1.25,1.0,0.75,0.25,0.75,0.5,0.5,0.5,0.39,-0.42,0.45,132.6,-5.2,14.8
7.34,1.0,0.25,0.75,1.0,3.0,1.25,1.75,0.0,0.5,0.0,0.0,0.75,0.0,0.2,-0.86,0.45,197.58,8.7,38.2,1.5,0.5,0.0,0.5,1.0,1.25,1.0,0.75,0.25,1.0,0.75,0.25,0.5,0.64,-0.42,0.39,147.56,-3.0,9.2
7.36,0.5,0.0,0.25,0.75,0.0,0.25,1.0,0.0,0.0,0.0,0.25,0.0,0.0,0.2,-0.8,0.52,132.9,21.2,44.5,1.5,0.5,0.5,0.5,1.25,1.5,1.0,0.5,0.25,0.25,0.5,0.25,0.75,0.77,-0.42,0.33,156.1,-5.6,21.8
7.38,0.5,0.0,0.25,1.0,0.5,0.0,1.0,0.0,0.0,0.0,0.0,0.0,0.0,0.2,-0.86,0.58,74.58,20.4,58.7,1.5,0.5,0.5,0.5,0.5,1.5,1.0,0.25,0.0,0.75,0.5,0.5,0.5,0.83,-0.48,0.33,152.37,-6.5,16.1
7.4,0.5,0.0,0.25,1.0,0.0,0.25,1.0,0.0,0.0,0.0,0.25,0.0,0.0,0.2,-0.86,0.7,28.33,20.8,45.7,1.5,0.5,0.0,0.5,1.25,1.25,1.0,0.75,0.0,0.75,0.5,0.25,0.25,0.83,-0.48,0.33,151.85,-3.4,21.3
7.42,0.5,0.0,2.0,1.0,3.75,0.0,1.75,1.5,0.0,0.5,0.25,0.75,0.0,-0.05,-0.86,0.64,58.37,8.7,24.7,1.5,0.5,0.25,0.5,0.5,1.25,1.0,0.5,0.0,0.75,0.5,0.25,0.25,0.7,-0.48,0.45,143.41,-6.2,20.9
7.44,0.75,1.0,1.75,1.0,0.0,0.0,1.0,1.0,0.0,0.0,1.5,0.0,0.25,-0.11,-0.86,0.58,74.68,17.4,22.8,0.25,0.0,0.0,0.5,0.0,0.0,0.5,0.0,0.0,0.0,0.0,0.0,0.0,0.58,-0.55,0.52,104.35,-25.0,59.9
7.46,1.0,1.25,2.25,1.0,4.5,1.0,1.75,1.5,0.5,0.5,1.25,0.75,0.25,-0.3,-0.86,0.58,145.65,7.7,25.3,0.25,0.0,0.0,0.0,0.0,0.0,0.5,0.0,0.0,0.0,0.0,0.0,0.0,0.45,-0.55,0.7,62.19,-33.6,62.1
7.48,1.25,1.25,2.5,1.0,4.5,0.75,1.75,1.5,0.5,0.75,1.25,0.5,0.25,-0.48,-0.86,0.45,192.26,8.5,27.2,0.25,0.0,0.0,0.0,0.0,0.0,0.5,0.0,0.0,0.0,0.0,0.0,0.0,0.33,-0.61,0.95,22.6,-33.6,62.1
7.5,1.0,1.0,1.5,1.0,4.25,1.0,1.75,1.5,0.5,0.75,1.5,0.25,0.25,-0.55,-0.86,0.45,225.3,5.9,23.0,0.25,0.0,0.0,0.0,0.0,0.0,0.5,0.0,0.0,0.0,0.0,0.0,0.0,0.33,-0.67,0.95,0.0,-33.6,62.1
7.52,1.0,1.25,2.5,1.0,4.25,0.75,1.75,1.5,0.5,0.5,1.25,0.75,0.0,-0.61,-0.8,0.45,241.53,9.1,27.3,0.0,0.0,0.0,0.5,0.0,0.0,0.5,0.0,0.0,0.0,0.25,0.0,0.0,0.52,-0.61,0.52,0.0,-19.2,18.5
7.54,1.0,1.0,2.5,1.0,4.25,0.5,1.75,1.5,0.5,1.25,1.25,0.75,0.25,-0.67,-0.73,0.39,255.72,8.0,19.7,0.25,0.0,0.0,0.0,0.0,0.0,0.5,0.0,0.0,0.0,0.0,0.0,0.0,0.58,-0.67,0.52,0.0,-33.6,62.1
7.56,1.0,1.25,2.5,1.0,4.5,1.0,1.75,1.5,0.5,0.5,1.25,0.75,0.5,-0.8,-0.73,0.45,267.14,7.8,23.9,0.0,0.0,0.0,0.0,0.0,0.0,0.5,0.0,0.0,0.0,0.0,0.0,0.0,0.45,-0.73,0.58,0.0,-32.4,27.3
7.58,1.0,1.25,2.25,1.0,4.5,0.75,1.75,1.5,0.5,0.5,1.25,0.75,0.5,-0.8,-0.67,0.39,273.17,7.8,23.2,1.5,0.5,0.0,0.5,0.0,1.25,0.5,0.25,0.0,0.5,0.5,0.25,0.5,0.33,-0.8,0.64,13.41,-5.7,16.6
7.6,1.0,1.5,2.75,1.0,4.25,0.75,1.75,1.5,0.5,0.5,1.5,0.0,0.5,-0.73,-0.61,0.2,277.9,8.9,29.3,0.0,0.0,0.0,0.25,1.0,0.0,1.0,0.5,0.0,0.0,0.75,0.0,0.25,0.27,-0.73,0.58,29.46,-3.5,-3.6
7.62,0.75,1.25,2.25,1.0,4.25,0.75,1.75,1.5,0.5,1.25,1.25,1.0,0.25,-0.73,-0.55,0.2,272.84,6.9,17.5,0.25,0.0,0.0,0.0,1.25,0.0,1.0,0.75,0.0,0.0,0.0,0.0,0.0,0.27,-0.61,0.52,44.59,-2.1,28.9
7.64,1.0,1.0,2.5,1.0,4.5,0.75,1.75,1.5,0.75,0.5,1.5,0.5,0.5,-0.8,-0.55,0.2,266.99,8.2,22.3,0.25,0.0,0.0,0.0,0.0,0.0,0.5,0.0,0.0,0.0,0.0,0.0,0.0,0.14,-0.55,0.52,34.67,-33.6,62.1
7.66,1.0,1.0,2.5,1.0,4.5,0.75,1.75,1.5,0.5,0.75,1.25,0.75,0.25,-0.8,-0.61,0.2,258.38,8.1,23.2,0.0,0.0,0.0,0.0,0.0,0.0,0.5,0.0,0.0,0.0,0.0,0.0,0.0,0.02,-0.48,0.45,25.46,-32.4,27.3
7.68,1.0,1.0,2.75,1.0,4.5,1.0,1.75,1.5,0.5,0.5,1.5,0.5,0.25,-0.73,-0.61,0.27,256.81,8.5,25.8,0.25,0.0,0.0,0.0,0.0,0.0,0.5,0.0,0.0,0.0,0.25,0.0,0.0,0.08,-0.48,0.39,17.07,-25.9,15.5
7.7,1.0,1.0,2.25,1.0,4.5,0.75,1.75,1.5,0.5,1.0,1.5,0.75,0.25,-0.67,-0.67,0.33,250.31,7.4,19.8,0.0,0.0,0.0,0.0,0.0,0.0,0.5,0.0,0.0,0.0,0.0,0.0,0.0,0.08,-0.42,0.45,9.56,-32.4,27.3
7.72,1.0,1.25,2.0,1.0,4.5,0.75,1.75,1.5,0.5,0.75,1.25,0.75,0.25,-0.55,-0.67,0.33,248.98,7.3,23.2,0.0,0.0,0.0,0.0,0.0,0.0,0.5,0.0,0.0,0.0,0.0,0.0,0.0,0.08,-0.42,0.58,5.64,-32.4,27.3
7.74,1.0,1.25,2.25,1.0,3.5,1.25,1.75,1.5,0.25,1.0,1.25,0.5,0.25,-0.48,-0.67,0.39,244.9,7.2,23.4,0.0,0.0,0.0,0.0,0.0,0.0,0.5,0.0,0.0,0.0,0.0,0.0,0.0,0.14,-0.48,0.7,2.3,-32.4,27.3
7.76,1.0,1.0,2.5,1.0,4.5,0.75,1.75,1.5,0.5,0.5,1.25,0.75,0.5,-0.48,-0.67,0.45,243.71,8.1,22.6,0.25,0.0,0.0,0.25,0.0,0.0,0.5,0.0,0.0,0.0,0.0,0.0,0.0,0.27,-0.55,0.7,3.03,-27.8,60.6
7.78,1.0,1.0,2.5,1.0,4.5,1.25,1.75,1.5,0.5,1.25,1.25,0.75,0.25,-0.55,-0.61,0.52,247.34,6.7,20.7,0.0,0.0,0.0,0.0,0.0,0.0,0.5,0.0,0.0,0.0,0.0,0.0,0.0,0.27,-0.61,0.7,0.58,-32.4,27.3
7.8,1.0,1.25,2.5,1.0,4.5,1.0,1.75,1.5,0.5,0.75,1.25,0.75,0.25,-0.55,-0.61,0.58,250.72,7.8,24.4,0.0,0.0,0.0,0.0,0.0,0.0,0.5,0.0,0.0,0.0,0.0,0.0,0.0,0.2,-0.67,0.7,0.0,-32.4,27.3
7.82,1.0,1.0,2.25,1.0,4.5,1.5,1.75,1.5,0.5,0.75,1.25,0.75,0.5,-0.55,-0.61,0.58,254.28,6.2,21.2,0.25,0.0,0.0,0.0,0.0,0.0,0.5,0.0,0.0,0.0,0.0,0.0,0.0,0.14,-0.67,0.7,0.0,-33.6,62.1
7.84,1.0,1.25,2.75,1.0,2.5,1.0,1.75,1.5,0.5,0.5,1.25,0.75,0.25,-0.61,-0.61,0.58,245.62,10.3,22.3,0.0,0.0,0.0,0.0,0.0,0.0,0.5,0.0,0.0,0.0,0.0,0.0,0.0,0.14,-0.61,0.7,0.54,-32.4,27.3
7.86,1.0,1.25,1.25,1.0,4.25,1.25,1.75,1.5,0.25,0.5,1.25,1.0,0.25,-0.55,-0.61,0.58,239.57,5.4,21.6,0.0,0.0,0.0,0.25,0.0,0.0,0.5,0.0,0.0,0.0,0.0,0.0,0.0,0.14,-0.48,0.7,3.85,-24.4,43.3
7.88,1.0,1.0,2.5,1.0,4.5,1.0,1.75,1.5,0.5,0.5,1.25,0.75,0.25,-0.55,-0.61,0.58,238.16,8.0,24.7,0.0,0.0,0.0,0.0,0.0,0.0,0.5,0.0,0.0,0.0,0.0,0.0,0.0,0.14,-0.42,0.7,5.68,-32.4,27.3
7.9,0.75,1.25,2.75,1.0,4.5,1.25,1.75,1.5,0.5,1.25,1.25,0.5,0.25,-0.55,-0.55,0.52,245.21,6.8,23.2,0.0,0.0,0.0,0.25,0.0,0.0,0.5,0.0,0.0,0.0,0.0,0.0,0.0,0.2,-0.42,0.7,7.05,-24.4,43.3
7.92,1.25,1.0,2.25,1.0,4.25,1.5,1.75,1.5,0.5,0.5,1.5,0.75,0.25,-0.48,-0.55,0.58,249.64,7.3,23.6,0.0,0.0,0.0,0.0,0.0,0.0,0.5,0.0,0.0,0.0,0.0,0.0,0.0,0.14,-0.36,0.64,5.64,-32.4,27.3
7.94,1.25,1.25,2.25,1.0,4.5,1.0,1.75,1.5,0.5,0.75,1.5,0.75,0.5,-0.48,-0.48,0.58,255.61,7.4,21.6,1.5,0.5,0.0,0.5,0.0,1.25,0.5,0.0,0.0,0.75,0.0,0.25,0.0,0.14,-0.36,0.58,33.04,-7.3,37.3
7.96,1.0,0.75,2.25,1.0,3.5,1.25,1.75,1.5,0.5,0.5,1.25,0.75,0.5,-0.55,-0.48,0.58,249.19,7.5,18.9,1.5,0.5,0.0,0.75,1.5,1.0,1.0,0.75,0.0,1.0,0.5,0.5,0.5,0.14,-0.17,0.58,78.66,-3.4,13.1
7.98,1.0,1.25,2.5,1.0,4.5,1.5,1.75,1.5,0.5,1.5,1.5,0.75,0.25,-0.55,-0.48,0.58,254.79,6.1,19.5,0.25,0.0,0.0,0.0,0.0,0.0,0.5,0.0,0.0,0.0,0.0,0.0,0.0,0.08,-0.05,0.58,74.38,-33.6,62.1
8.0,1.0,1.25,2.5,1.0,3.75,1.5,1.5,1.25,0.5,0.5,1.5,0.75,0.25,-0.55,-0.48,0.64,250.35,8.1,24.2,0.25,0.0,0.0,0.0,0.0,0.0,0.5,0.0,0.0,0.0,0.0,0.0,0.0,0.02,0.02,0.52,60.71,-33.6,62.1
8.02,1.25,1.0,2.25,1.0,4.5,1.5,1.75,1.5,0.5,1.0,1.25,0.75,0.25,-0.42,-0.55,0.64,254.94,6.5,22.7,0.25,0.0,0.0,0.0,0.0,0.0,0.5,0.0,0.0,0.0,0.0,0.0,0.0,0.02,0.02,0.58,35.64,-33.6,62.1
8.04,1.0,1.0,2.25,1.0,4.25,1.0,1.75,1.5,0.5,0.75,1.25,0.75,0.25,-0.3,-0.55,0.64,251.35,7.4,22.2,0.25,0.0,0.0,0.0,0.0,0.0,0.5,0.0,0.0,0.0,0.0,0.0,0.0,0.2,-2.73,1.77,19.6,-33.6,62.1
8.06,1.0,1.0,1.75,1.0,4.25,1.25,1.75,1.5,0.5,1.0,1.5,0.75,0.25,-0.23,-0.55,0.77,250.63,5.8,18.4,0.25,0.0,0.0,0.0,0.0,0.0,0.5,0.0,0.0,0.0,0.0,0.0,0.0,-0.11,0.08,0.45,8.82,-33.6,62.1
8.08,1.5,1.25,2.5,1.0,4.5,1.0,1.75,1.25,0.5,1.0,1.25,0.75,0.25,-0.3,-0.48,0.64,252.59,8.5,25.8,0.5,0.0,0.0,0.0,0.0,0.0,0.5,0.0,0.0,0.0,0.0,0.0,0.0,0.08,0.2,0.7,10.52,-34.1,73.9
8.1,1.0,1.0,2.5,1.0,4.5,1.0,1.75,1.25,0.25,1.0,1.25,0.75,0.25,-0.73,-0.42,0.52,250.86,7.6,23.7,0.5,0.0,0.0,0.0,0.0,0.0,0.75,0.0,0.0,0.0,0.0,0.0,0.0,0.02,-0.42,1.7,10.97,-33.8,67.2
8.12,1.0,1.25,2.75,1.0,4.5,1.0,1.75,1.25,0.5,0.75,1.25,0.75,0.25,-0.92,-0.42,0.64,252.02,8.6,25.8,0.5,0.0,0.0,0.0,0.0,0.0,0.5,0.0,0.0,0.0,0.0,0.0,0.0,-0.36,0.02,0.95,8.75,-34.1,73.9
8.14,1.25,1.25,2.5,1.0,4.5,1.0,1.75,1.25,0.5,1.25,1.25,0.75,0.25,-0.98,-0.3,0.7,254.01,7.8,23.5,0.5,0.0,0.0,0.0,0.0,0.0,0.5,0.0,0.0,0.0,0.0,0.0,0.0,-0.3,0.27,1.08,6.96,-34.1,73.9
8.16,1.5,1.25,2.5,1.0,3.0,1.25,1.75,1.25,0.5,1.0,1.25,0.75,0.5,-0.98,-0.17,0.83,252.01,8.9,21.0,1.5,0.0,0.0,0.0,0.0,0.0,0.5,0.0,0.0,0.0,0.0,0.0,0.0,-0.61,0.7,0.52,11.02,-34.6,87.6
8.18,1.25,1.0,1.75,1.0,3.5,1.0,1.75,1.25,0.5,1.0,1.25,0.75,0.25,-0.98,-0.11,0.83,243.53,7.4,19.8,2.25,0.5,0.25,0.5,0.0,0.0,0.5,0.0,0.0,0.75,0.0,0.25,0.0,-0.67,0.7,0.52,31.58,-20.9,48.5
8.2,1.25,1.25,1.75,1.0,2.5,1.25,1.5,1.25,0.5,0.75,1.25,0.75,0.25,-0.86,-0.05,0.64,231.72,8.1,20.3,2.75,0.5,0.0,0.5,1.0,0.5,1.0,0.75,0.0,0.5,0.5,0.25,0.5,-0.05,0.08,0.64,74.39,-10.4,28.8
8.22,1.25,1.25,2.25,1.0,3.5,1.0,1.5,0.5,0.5,1.25,1.25,0.75,0.0,-0.73,0.02,0.64,224.64,9.5,25.8,2.75,0.0,0.0,0.5,0.5,0.5,1.0,0.75,0.25,0.75,0.5,0.5,0.5,0.58,-2.48,1.58,112.32,-10.5,12.5
8.24,1.75,0.75,2.5,1.0,3.75,1.0,1.75,0.75,0.5,0.5,1.25,0.75,0.25,-0.55,0.08,0.58,224.65,10.9,28.1,3.0,0.25,0.0,0.5,0.5,0.75,1.0,0.5,0.0,1.0,0.5,0.5,0.5,0.45,0.14,0.95,135.28,-10.3,18.6
8.26,1.75,1.0,2.5,1.0,2.5,1.25,1.75,0.5,0.5,1.0,1.25,0.75,0.25,-0.36,0.08,0.64,223.58,11.3,24.8,2.5,0.5,0.5,0.5,0.25,1.25,1.0,0.5,0.25,0.75,0.5,0.5,0.5,0.58,0.33,0.7,148.36,-10.1,20.0
8.28,1.5,1.0,2.5,1.0,4.5,1.0,1.75,1.0,0.5,0.75,1.25,0.75,0.25,-0.3,0.2,0.58,232.74,9.1,27.1,3.0,0.5,0.5,0.5,0.0,0.75,1.0,0.75,0.25,1.0,0.75,0.5,1.0,0.7,0.27,1.33,159.04,-10.7,8.9
8.3,1.75,1.0,2.5,1.0,4.5,1.0,1.75,1.0,0.5,1.0,1.25,0.75,0.0,-0.23,0.33,0.58,240.52,9.4,28.5,2.75,0.5,0.0,0.5,0.0,0.75,1.0,0.5,0.25,0.75,0.75,0.5,1.0,0.89,0.39,1.14,159.0,-10.0,7.2
8.32,1.25,1.25,2.5,1.0,4.25,1.0,1.75,1.0,0.5,0.5,1.25,0.75,0.25,-0.73,-0.11,0.7,244.69,9.4,28.3,2.75,0.5,0.5,0.5,0.25,1.0,1.0,0.25,0.25,0.75,0.5,0.5,0.75,0.45,0.2,1.08,159.97,-11.7,19.5
8.34,1.0,1.0,2.25,1.0,4.5,1.25,1.75,1.25,0.5,1.0,0.5,0.75,0.25,-1.17,-0.36,0.89,245.82,6.7,26.6,2.75,0.5,0.0,0.5,0.25,1.25,0.75,0.25,0.25,0.75,0.75,0.5,0.75,-0.36,0.2,0.64,156.66,-8.9,14.7
8.36,1.25,0.75,2.5,1.0,4.25,1.0,1.75,1.25,0.5,1.25,1.25,0.75,0.0,-1.23,0.14,0.83,246.56,8.2,22.7,3.0,0.5,0.25,0.5,0.5,1.25,1.0,0.5,0.25,0.75,0.75,0.5,0.75,-0.36,0.14,0.64,158.83,-9.6,17.8
8.38,1.0,1.0,2.5,1.0,4.5,1.0,1.75,1.25,0.5,0.75,1.25,0.75,0.25,-1.05,0.52,0.64,247.45,8.1,24.2,3.0,0.5,0.5,0.5,0.25,0.5,1.0,0.5,0.25,1.0,0.75,0.5,1.0,0.89,-0.42,0.7,157.58,-11.8,10.9
8.4,1.25,1.25,2.5,1.0,4.5,1.0,1.75,1.25,0.5,0.5,1.25,0.75,0.5,-0.92,0.52,0.52,251.74,8.5,25.7,3.0,0.5,0.25,0.5,0.25,0.25,1.0,0.75,0.25,1.5,0.75,0.5,1.25,1.27,0.45,0.58,157.84,-9.3,0.5
8.42,1.0,0.5,2.5,1.25,4.5,1.5,1.75,1.0,0.5,0.75,1.25,0.75,0.5,-0.55,0.39,0.7,253.9,7.3,21.7,3.0,0.0,0.0,0.5,0.25,0.5,1.0,0.75,0.25,1.75,0.75,0.5,1.25,1.27,0.64,1.39,153.28,-6.9,-7.3
8.44,1.25,1.0,2.5,1.5,4.5,1.5,1.75,1.25,0.5,0.5,1.25,0.75,0.25,-0.23,0.14,0.77,258.16,8.2,27.7,2.75,0.0,0.25,0.5,0.25,0.5,1.0,1.0,0.25,2.25,0.75,0.5,1.25,0.39,0.14,0.77,153.39,-5.4,-11.9
8.46,1.25,0.75,2.5,1.25,4.5,1.75,1.75,1.25,0.5,1.0,1.25,0.75,0.25,-1.23,0.52,0.39,260.26,6.9,23.6,2.0,0.0,0.0,0.5,1.0,0.25,0.75,1.0,0.25,2.25,0.75,0.5,1.25,-0.36,-0.05,0.95,152.41,-2.1,-17.3
8.48,1.25,1.0,2.5,1.0,4.5,1.0,1.75,1.25,0.25,1.25,1.25,0.75,0.25,-0.61,0.08,0.83,259.97,7.7,23.2,2.0,0.25,0.0,0.5,1.5,0.5,0.5,0.75,0.25,2.0,1.25,0.5,1.25,0.08,0.08,1.08,156.33,-2.4,-11.0
8.5,1.75,1.0,2.5,1.0,4.5,1.25,1.75,1.25,0.25,0.5,1.25,0.75,0.25,-0.42,0.27,0.77,258.91,9.0,29.5,1.75,0.5,0.0,0.5,1.0,0.25,0.25,0.75,0.25,2.25,1.5,0.5,1.75,0.08,0.2,1.08,158.64,-1.5,-22.9
8.52,1.25,1.0,2.5,1.0,4.5,1.25,1.75,1.25,0.25,1.0,1.25,0.75,0.25,-0.36,0.33,0.64,256.21,7.6,24.8,1.5,0.5,0.0,0.5,1.0,1.0,0.5,0.75,0.25,2.25,0.75,0.5,1.75,0.14,0.2,1.02,161.39,0.9,-17.8
8.54,1.25,1.25,2.5,1.0,4.5,1.5,1.75,1.25,0.5,1.0,1.25,0.5,0.25,-0.42,0.27,0.64,257.58,7.3,26.9,1.5,0.5,0.0,0.5,1.5,1.25,0.75,0.0,0.25,2.0,1.25,0.5,1.75,0.33,0.2,0.89,165.04,-0.6,-12.4
8.56,1.5,1.5,2.5,1.0,4.5,1.75,1.75,1.25,0.25,0.75,1.25,0.0,0.25,-0.36,0.27,0.7,259.11,7.6,35.1,1.5,0.5,0.0,0.5,0.0,0.5,0.5,0.25,0.25,2.25,0.75,0.5,1.5,0.2,0.14,0.83,153.35,-1.8,-26.2
8.58,1.0,1.25,0.25,1.25,0.0,1.5,1.75,0.25,0.5,0.5,1.25,0.75,0.25,-0.36,0.2,0.83,223.54,9.0,11.9,1.25,0.5,0.0,0.5,0.25,1.25,0.75,0.75,0.25,2.0,0.75,0.5,1.75,-0.11,0.02,0.89,148.33,1.3,-23.4
8.6,1.0,1.0,2.25,1.25,4.5,0.25,1.75,1.0,0.5,0.5,1.25,0.5,0.25,-0.3,0.14,0.89,216.26,9.9,28.4,1.25,0.5,0.0,0.5,0.25,1.25,0.5,1.0,0.25,2.25,0.75,0.75,2.25,-0.23,0.14,0.95,147.93,2.6,-31.3
8.62,0.5,0.0,2.0,1.0,3.0,0.25,1.0,0.5,0.25,0.0,0.5,0.0,0.0,-0.23,0.14,0.95,178.83,12.4,41.5,1.25,0.5,0.0,0.5,0.25,0.75,0.5,1.0,0.25,2.25,0.75,0.75,2.5,0.08,0.2,1.02,152.94,2.0,-36.0
8.64,0.5,0.0,0.0,0.75,0.0,0.25,0.5,1.25,0.25,0.0,0.0,0.0,0.0,-0.17,0.02,1.14,127.26,4.4,14.8,0.5,0.5,0.0,0.5,0.0,0.75,0.75,1.0,0.25,2.5,0.75,0.5,2.5,0.27,0.08,0.77,154.02,4.8,-46.2
8.66,1.0,0.0,0.25,1.0,0.0,0.25,1.25,1.25,0.5,0.0,1.5,0.0,0.0,0.08,0.2,1.39,87.55,12.0,2.4,1.0,0.5,0.0,0.5,0.0,0.75,0.75,1.0,0.0,2.25,1.25,0.75,2.5,0.45,0.2,0.77,157.54,2.2,-42.3
8.68,0.5,0.0,1.0,1.0,0.5,0.0,0.75,1.0,0.25,0.0,0.75,0.0,0.0,0.02,0.08,1.02,61.85,14.2,19.5,0.5,0.5,0.0,0.5,0.5,1.25,0.5,1.0,0.0,2.5,0.75,0.75,2.75,0.27,0.14,0.95,160.34,6.1,-41.6
8.7,0.5,0.0,0.5,1.0,0.0,0.0,1.0,1.0,0.25,0.0,1.0,0.0,0.0,-0.17,0.02,0.95,45.4,14.0,6.2,0.75,0.5,0.0,0.5,0.5,1.25,0.0,1.0,0.0,2.25,2.0,0.75,2.5,-0.3,0.14,0.95,166.35,4.0,-41.5
8.72,0.5,0.0,0.0,1.0,0.0,0.0,0.5,0.5,0.25,0.0,0.5,0.0,0.0,-0.48,0.14,0.95,28.55,14.0,15.9,0.5,0.5,0.0,0.5,0.5,1.25,0.25,1.0,0.75,2.5,1.75,0.75,2.5,-0.23,0.14,0.95,174.72,4.0,-43.3
8.74,0.5,0.0,0.0,1.0,0.75,0.0,0.75,1.0,0.5,0.5,1.0,0.0,0.0,-0.42,0.27,0.89,34.77,6.1,-1.0,0.5,0.5,0.0,0.5,0.5,1.25,0.5,1.0,0.75,2.5,2.0,0.75,3.0,0.02,0.14,0.95,186.68,3.7,-45.7
8.76,0.5,0.0,0.25,1.0,0.0,0.25,0.75,0.5,0.5,0.0,1.0,0.0,0.0,-0.3,0.02,0.83,32.0,13.5,6.5,0.5,0.5,0.0,0.5,0.5,1.0,0.5,1.25,0.75,2.5,2.0,0.75,2.75,-0.05,0.14,0.95,194.3,3.4,-45.8
8.78,0.5,0.0,0.25,1.0,0.0,0.0,0.75,1.0,0.5,0.25,1.0,0.25,0.0,0.08,0.08,0.95,40.44,10.5,-8.8,0.25,0.5,0.0,0.5,0.25,1.25,0.0,1.0,0.75,2.5,2.25,0.75,2.75,0.02,0.14,0.95,197.72,4.7,-51.3
8.8,0.5,0.0,0.25,0.75,0.0,0.0,0.75,1.0,0.5,0.0,1.25,0.5,0.0,0.08,0.14,0.89,49.39,11.4,-17.1,0.5,0.5,0.0,0.5,0.5,1.5,0.25,1.5,1.0,3.5,2.0,0.5,2.25,0.08,0.14,0.95,204.4,5.0,-42.2
8.82,0.5,0.0,0.0,1.0,0.0,0.0,1.0,1.0,0.5,0.0,1.0,0.5,0.0,0.14,0.14,0.95,61.01,10.9,-13.3,0.75,0.5,0.25,0.5,1.0,1.5,0.75,1.75,1.0,2.5,2.5,0.75,2.25,0.08,0.14,0.95,211.02,1.9,-33.7
8.84,0.75,1.5,1.0,1.0,0.0,0.75,0.75,1.25,0.75,1.25,1.75,0.75,0.0,0.08,0.08,0.89,94.34,8.1,-0.1,0.75,0.5,0.0,0.5,0.5,1.5,0.5,1.5,1.0,2.5,2.25,0.75,2.25,0.02,0.14,0.95,212.51,2.8,-38.7
8.86,0.75,1.0,1.0,1.0,3.5,0.25,0.75,1.0,1.0,0.5,2.5,0.75,1.25,0.02,0.08,0.95,153.2,5.8,0.5,0.5,0.5,0.0,0.5,0.5,1.5,0.5,2.0,1.0,2.5,2.5,0.5,2.0,0.02,0.14,0.95,212.94,3.7,-39.0
8.88,0.75,1.0,1.5,1.0,4.5,0.25,1.25,1.25,1.25,0.5,2.5,0.75,1.25,-0.05,0.08,0.95,210.21,6.3,4.9,0.25,0.0,0.25,0.5,0.5,1.0,1.0,2.0,1.25,2.25,2.75,0.75,1.75,0.08,0.14,0.95,209.89,1.7,-46.0
