time,left pressure 0[N/cm虏],left pressure 1[N/cm虏],left pressure 2[N/cm虏],left pressure 3[N/cm虏],left pressure 4[N/cm虏],left pressure 5[N/cm虏],left pressure 6[N/cm虏],left pressure 7[N/cm虏],left pressure 8[N/cm虏],left pressure 9[N/cm虏],left pressure 10[N/cm虏],left pressure 11[N/cm虏],left pressure 12[N/cm虏],left acceleration X[g],left acceleration Y[g],left acceleration Z[g],left total force[N],left center of pressure X[mm],left center of pressure Y[mm],right pressure 0[N/cm虏],right pressure 1[N/cm虏],right pressure 2[N/cm虏],right pressure 3[N/cm虏],right pressure 4[N/cm虏],right pressure 5[N/cm虏],right pressure 6[N/cm虏],right pressure 7[N/cm虏],right pressure 8[N/cm虏],right pressure 9[N/cm虏],right pressure 10[N/cm虏],right pressure 11[N/cm虏],right pressure 12[N/cm虏],right acceleration X[g],right acceleration Y[g],right acceleration Z[g],right total force[N],right center of pressure X[mm],right center of pressure Y[mm]
0.02,0.0,0.25,3.0,2.25,3.75,2.5,1.75,4.5,4.25,5.25,5.0,3.25,4.25,-0.05,0.08,0.95,463.15,0.8,-31.4,6.75,0.25,1.75,2.5,4.25,0.25,0.0,0.75,0.0,0.0,0.0,0.0,0.0,0.02,0.52,1.89,315.05,-17.9,67.8
0.04,0.0,0.25,3.0,2.0,4.25,1.75,3.0,5.5,4.5,5.25,5.75,2.5,3.75,-0.11,0.08,0.95,549.58,1.4,-29.7,5.0,0.5,0.5,2.75,2.25,2.75,0.0,0.75,0.0,0.0,0.75,0.0,0.25,0.27,0.45,1.7,216.2,-10.4,52.9
0.06,0.0,0.5,3.0,2.25,1.75,3.0,3.0,5.5,5.5,6.5,6.0,4.0,5.0,-0.11,0.08,0.95,646.6,0.8,-38.8,2.75,1.25,0.0,2.0,2.25,0.0,0.25,1.75,0.25,1.0,0.0,0.5,0.25,0.64,0.45,1.58,130.13,-7.7,32.7
0.08,0.0,0.5,3.75,2.5,3.5,3.0,4.25,6.5,6.0,7.0,7.25,5.0,5.5,-0.05,0.08,0.95,750.76,1.5,-35.8,2.5,1.0,1.5,2.25,4.5,0.0,0.25,1.75,0.25,1.25,0.75,0.5,0.5,2.2,0.39,0.77,100.69,-7.9,28.7
0.1,0.25,0.5,5.0,2.75,5.75,3.0,3.75,6.5,6.25,7.25,7.25,4.75,5.75,-0.05,0.08,0.95,857.7,2.1,-29.1,2.0,1.25,1.0,2.5,4.5,2.5,0.25,1.75,0.5,1.0,0.75,0.5,0.5,2.33,0.27,0.2,116.9,-3.3,28.6
0.12,0.25,0.75,5.0,3.25,5.0,3.0,3.75,6.5,6.5,7.25,7.25,5.0,5.75,-0.05,0.08,0.95,937.71,2.4,-29.4,1.75,0.75,0.75,2.25,3.75,2.0,0.25,2.0,0.5,1.0,0.5,0.5,0.0,1.52,0.64,0.33,133.58,-3.0,27.9
0.14,0.25,0.5,5.0,3.25,6.0,3.5,3.75,6.5,6.75,7.0,7.25,4.0,5.5,-0.11,0.08,0.95,978.5,2.1,-25.9,1.5,0.75,1.0,2.25,4.25,1.0,0.25,1.75,0.5,1.0,0.5,0.5,0.25,0.83,0.58,0.58,147.01,-4.4,26.8
0.16,0.5,0.75,5.0,3.75,5.75,4.0,4.0,6.75,7.0,7.0,7.25,4.0,5.5,-0.05,0.08,0.95,998.41,2.3,-24.0,1.5,0.75,1.0,2.25,3.5,0.0,0.25,1.75,0.5,1.25,0.75,0.25,0.0,0.27,0.27,0.83,152.75,-6.7,26.0
0.18,0.75,0.5,5.0,4.25,5.75,3.75,4.25,6.5,7.0,7.0,7.25,4.25,5.0,-0.05,0.08,0.95,1004.52,2.9,-23.1,1.5,0.75,0.75,2.25,3.5,0.25,0.25,1.75,0.5,1.0,0.75,0.5,0.0,-0.05,-0.05,0.95,162.85,-6.1,24.9
0.2,0.75,0.5,5.0,4.5,6.0,3.75,4.25,6.5,7.0,6.5,7.25,4.0,5.0,-0.05,0.08,0.95,998.61,3.0,-21.5,1.25,0.25,1.0,2.0,2.75,2.5,0.25,1.75,0.5,1.25,0.75,0.5,0.5,-0.11,-0.23,0.95,172.18,-1.3,14.9
0.22,0.5,0.75,5.25,3.75,5.75,4.0,4.0,6.5,7.0,6.5,7.0,4.0,5.0,-0.05,0.08,0.95,972.34,2.8,-22.2,1.5,0.5,0.75,2.25,3.0,2.75,0.25,1.75,0.5,1.0,0.75,0.5,0.0,-0.17,-0.42,1.02,192.99,-2.0,24.0
0.24,0.25,0.75,5.0,4.5,6.0,4.0,4.25,6.5,7.25,6.5,7.0,4.0,5.0,-0.05,0.08,0.95,953.84,2.7,-21.6,1.25,0.75,0.75,2.0,2.25,2.25,0.25,1.75,0.5,1.0,0.25,0.5,0.25,-0.17,-0.48,1.02,207.36,-1.9,22.3
0.26,1.0,0.75,5.0,4.5,6.0,4.0,4.25,6.5,7.25,6.5,7.0,3.75,4.75,-0.05,0.08,0.95,939.88,3.2,-19.4,1.25,0.75,1.0,2.0,2.25,0.0,0.25,1.75,0.5,1.0,0.75,0.5,0.5,-0.05,-0.48,1.02,203.13,-6.8,14.8
0.28,0.75,0.75,5.0,4.5,6.0,4.0,4.25,6.5,7.5,6.0,6.75,3.75,4.5,-0.05,0.08,0.95,924.2,3.3,-18.9,1.0,0.25,1.0,2.0,2.25,0.25,0.25,1.75,0.5,1.0,0.75,0.5,0.5,0.14,-0.36,1.02,191.04,-5.4,10.0
0.3,1.0,1.0,5.25,4.5,6.0,4.0,4.25,6.5,7.5,5.75,6.75,3.75,4.5,-0.05,0.08,0.95,909.45,3.7,-17.3,1.5,0.75,0.75,2.0,2.25,0.5,0.0,1.5,0.5,1.0,0.75,0.5,0.5,0.33,-0.17,1.02,183.45,-5.8,17.0
0.32,1.0,1.0,5.5,4.5,6.0,4.0,4.25,6.5,7.75,6.0,6.75,3.25,4.25,-0.05,0.08,0.95,897.48,3.8,-16.1,1.5,0.75,0.75,2.0,2.25,2.5,0.0,1.25,0.5,1.0,0.75,0.5,0.5,0.39,0.08,1.08,184.64,-2.5,20.2
0.34,1.0,1.25,5.25,4.75,6.0,4.25,4.25,6.5,7.75,5.5,6.75,2.75,4.0,-0.05,0.08,0.95,890.64,3.9,-13.7,1.0,0.75,0.75,2.0,2.25,0.5,0.0,1.75,0.5,1.25,0.25,0.5,0.25,0.45,0.27,1.2,182.78,-4.0,17.2
0.36,1.0,1.25,5.5,4.75,6.0,4.75,4.25,6.5,8.0,5.25,6.5,2.75,3.75,-0.05,0.08,0.95,889.27,4.0,-12.2,1.0,0.5,0.5,2.0,2.25,2.25,0.0,1.75,0.5,1.0,0.75,0.5,0.25,0.45,0.39,1.33,189.6,-0.5,15.3
0.38,1.25,1.5,5.75,4.75,6.0,4.75,4.25,6.5,8.0,5.25,6.5,2.75,3.25,-0.05,0.08,0.95,891.67,4.4,-10.1,1.0,0.75,0.75,1.75,2.25,1.25,0.0,1.5,0.5,0.75,0.75,0.5,0.5,0.45,0.58,1.45,186.67,-3.3,15.9
0.4,1.25,1.25,5.25,4.75,6.0,5.0,4.25,6.5,8.0,5.25,6.25,2.5,3.0,-0.05,0.08,0.95,884.48,4.0,-9.9,1.5,0.75,0.5,2.0,2.25,0.5,0.0,1.75,0.5,1.0,0.75,0.5,0.5,0.45,0.7,1.7,187.29,-4.7,15.0
0.42,2.0,1.75,5.25,4.75,6.0,5.0,4.5,6.5,8.0,5.25,6.0,2.5,3.0,-0.05,0.08,0.95,888.81,4.5,-7.3,1.25,0.75,0.75,2.0,2.25,2.25,0.0,1.5,0.5,1.0,0.75,0.5,0.5,0.33,0.83,1.64,191.88,-2.0,17.6
0.44,2.0,1.75,5.75,5.5,6.0,5.0,4.75,6.5,8.0,4.5,5.75,2.25,2.25,-0.05,0.08,0.95,891.15,5.5,-2.8,1.25,0.75,0.75,2.0,2.25,1.5,0.0,1.5,0.5,1.0,0.75,0.5,0.75,0.14,1.2,1.89,196.67,-3.0,14.4
0.46,2.25,1.75,6.5,6.25,6.5,5.0,5.0,6.0,7.75,4.25,5.25,1.5,2.25,-0.05,0.08,0.95,900.8,6.3,2.5,1.75,0.75,0.75,2.0,2.25,2.0,0.0,1.25,0.5,1.0,0.75,0.5,0.75,-0.36,1.58,1.64,204.76,-3.5,18.7
0.48,3.75,1.75,7.0,6.5,7.0,5.25,5.5,5.75,7.5,3.5,4.5,1.0,1.75,-0.05,0.08,0.95,913.24,7.7,10.5,1.5,0.75,0.75,2.0,2.25,2.25,0.0,1.5,0.5,1.0,0.25,0.5,0.75,-0.86,3.2,0.95,209.92,-2.0,19.8
0.5,5.5,1.75,8.0,8.0,8.0,5.25,5.75,4.75,7.0,3.0,3.75,1.0,1.25,-0.05,0.08,0.95,950.09,9.7,19.7,1.25,0.5,0.75,0.5,2.25,2.75,0.0,1.0,0.5,1.25,0.75,0.5,0.5,-1.8,3.77,-0.3,205.58,0.5,12.0
0.52,6.25,1.75,9.25,10.0,8.0,5.25,6.25,4.5,6.0,3.0,3.25,1.5,1.0,-0.05,0.08,0.95,1006.52,11.0,24.0,1.5,0.75,0.5,1.5,1.75,1.5,0.0,1.75,0.5,1.25,0.75,0.5,1.0,0.7,-1.05,0.39,201.13,-1.6,6.6
0.54,7.25,2.0,10.5,11.0,8.0,5.0,6.5,3.0,5.0,3.0,2.5,0.75,1.0,-0.11,0.14,0.95,1056.69,12.9,31.9,1.5,0.75,0.5,1.5,2.25,0.25,0.0,1.75,0.25,1.5,0.75,1.5,2.75,0.08,-0.55,0.14,203.93,-1.5,-15.1
0.56,8.25,2.25,11.5,12.5,8.5,4.25,5.75,2.75,3.75,3.0,2.25,0.75,1.0,-0.11,0.14,1.08,1109.93,14.0,36.4,1.5,0.5,0.5,1.75,2.25,2.25,0.0,1.75,1.0,3.5,1.75,5.25,4.25,0.02,0.52,0.89,253.52,0.6,-38.2
0.58,9.0,3.25,13.0,14.0,8.5,3.25,5.75,2.75,2.75,3.0,2.25,0.75,1.0,-0.11,0.14,1.27,1171.7,15.3,40.2,1.25,0.75,0.5,1.0,2.25,3.0,0.0,2.0,1.25,5.5,3.0,5.75,7.0,-0.48,0.45,1.77,331.35,3.1,-49.5
0.6,9.5,3.5,14.5,12.5,8.0,2.75,4.75,2.5,2.0,3.0,2.25,1.0,1.0,-0.17,0.2,1.33,1206.04,16.4,41.5,1.0,0.75,0.75,0.75,2.25,3.25,0.0,3.5,2.5,6.75,2.75,6.0,8.0,0.58,0.52,2.58,442.59,4.1,-51.8
0.62,9.75,3.5,15.0,10.0,7.75,1.5,4.25,2.5,1.25,3.0,2.25,0.75,1.0,-0.23,0.33,1.52,1188.09,17.5,42.9,1.5,0.0,0.0,0.0,1.75,2.5,0.0,4.5,3.25,7.0,6.0,6.5,8.0,-0.05,0.27,1.27,562.46,3.6,-62.3
0.64,9.5,3.5,14.5,8.0,5.75,1.5,3.0,2.0,1.25,3.0,2.25,0.75,1.0,-0.23,0.33,1.58,1105.18,18.2,42.4,1.5,0.75,0.0,2.0,2.5,3.0,0.0,5.5,4.0,7.5,6.75,7.25,8.0,0.08,0.14,0.95,690.95,2.4,-51.8
0.66,9.5,3.5,12.5,6.5,5.75,1.5,3.0,1.75,1.0,3.0,2.0,0.75,1.0,-0.23,0.45,1.83,988.21,17.7,42.5,0.75,0.75,1.5,2.25,2.5,3.75,0.75,5.75,4.5,7.5,7.25,7.0,8.0,0.08,0.2,0.95,798.48,1.5,-47.9
0.68,8.75,2.25,11.0,5.0,5.25,0.25,3.5,2.0,1.0,3.0,2.0,0.75,1.0,-0.55,0.83,2.52,842.45,18.1,38.4,2.0,0.75,2.0,2.0,3.75,4.0,1.25,6.0,5.25,7.5,7.5,7.0,7.75,0.08,0.14,0.95,900.1,0.2,-40.8
0.7,7.25,1.75,9.5,2.75,4.75,0.0,3.0,2.0,1.25,1.25,2.0,0.25,1.0,-0.73,0.77,2.45,675.68,19.0,39.9,2.0,1.0,2.25,2.25,4.5,4.5,1.5,6.25,5.75,7.0,7.5,6.25,7.25,0.02,0.14,0.95,967.96,0.0,-35.3
0.72,5.5,0.25,6.5,2.0,2.25,0.0,1.75,0.5,0.5,0.5,0.5,0.0,0.25,-0.42,0.39,2.64,456.8,24.4,54.3,2.0,1.25,2.25,2.5,5.0,4.75,1.5,6.25,6.0,6.75,7.5,5.5,6.5,0.08,0.14,0.95,999.86,-0.2,-30.9
0.74,2.25,0.25,4.25,0.75,0.0,0.0,1.25,0.5,0.25,0.5,1.75,0.0,0.25,-0.55,-0.23,2.89,276.24,24.6,29.7,2.0,1.0,2.0,2.5,5.0,5.0,2.0,6.25,6.0,6.0,6.75,4.5,5.75,0.08,0.14,0.95,973.55,-0.1,-27.7
0.76,0.25,0.25,1.75,0.0,2.25,0.0,0.75,0.5,0.25,0.5,0.75,0.0,0.0,-1.3,-0.61,1.14,130.3,10.7,25.7,2.5,1.25,2.5,2.5,5.25,5.0,2.0,6.0,6.0,5.5,6.0,3.5,5.0,0.08,0.14,0.95,922.4,-1.0,-20.7
0.78,0.25,0.5,3.75,0.0,1.25,0.0,0.5,0.5,0.25,0.5,0.5,0.0,0.0,-1.11,-1.36,1.7,21.15,19.6,36.1,2.75,1.5,2.75,2.5,5.5,5.0,2.25,5.75,6.0,4.5,5.0,3.0,3.5,0.08,0.14,0.95,849.68,-2.0,-12.5
0.8,1.0,0.5,1.75,0.0,2.25,0.0,1.0,0.5,0.25,1.5,0.5,0.0,0.0,-0.61,-1.11,1.45,0.0,10.0,24.9,2.75,1.5,3.25,2.75,5.25,5.0,2.25,5.5,6.0,4.0,4.25,2.25,2.75,0.08,0.14,0.95,772.42,-2.9,-6.8
0.82,0.0,0.25,1.75,0.0,1.75,0.0,0.5,0.0,0.25,0.5,0.0,0.25,0.0,-0.42,-0.8,0.58,0.0,13.2,33.0,2.75,1.5,4.25,3.75,5.75,5.0,2.25,5.5,6.0,3.0,4.25,2.0,1.75,0.08,0.14,0.95,722.63,-4.6,1.0
0.84,0.0,0.25,2.75,1.0,2.25,0.0,0.75,0.5,0.25,0.5,0.25,0.0,0.0,-0.36,-0.67,0.45,0.0,14.2,37.6,3.0,1.5,4.75,4.5,6.0,5.25,2.5,5.5,6.0,2.75,3.5,1.25,1.5,0.08,0.14,0.95,696.41,-5.3,7.6
0.86,0.0,0.25,3.5,0.0,3.5,0.5,1.25,0.5,1.0,0.5,0.5,0.0,0.0,-0.11,-0.55,0.83,0.0,12.0,31.6,4.0,1.5,5.0,4.75,6.25,5.75,2.25,5.25,5.5,2.75,3.0,1.0,1.5,0.08,0.14,0.95,689.46,-5.6,12.5
0.88,0.25,0.25,1.75,0.0,2.25,0.0,0.5,0.5,0.25,2.5,0.5,0.75,0.0,0.02,-0.48,1.02,28.47,4.8,-3.3,5.25,1.5,4.75,5.75,7.25,5.75,2.25,4.5,5.5,2.25,3.0,1.0,1.5,0.08,0.14,0.95,702.3,-6.8,17.8
0.9,0.5,0.25,3.0,0.0,4.25,1.5,1.25,1.0,0.5,2.5,1.25,0.0,0.0,0.14,-0.36,1.14,95.29,4.4,15.6,6.0,1.5,6.25,6.75,7.75,6.0,2.25,4.5,5.25,1.75,2.75,0.75,1.5,0.08,0.2,0.95,744.22,-8.2,23.6
0.92,0.25,0.25,2.0,0.0,0.75,0.0,0.5,0.5,0.25,0.5,0.5,0.0,0.0,0.02,-0.11,1.14,100.16,16.1,22.9,6.75,1.5,7.0,8.5,8.5,6.25,2.5,4.5,5.0,1.5,2.25,0.75,1.5,0.08,0.14,0.95,810.6,-9.0,28.2
0.94,0.5,0.25,2.25,0.5,1.75,1.25,0.75,0.5,0.75,2.0,0.0,1.0,0.0,-0.05,-0.05,1.39,133.44,6.4,8.1,8.0,2.25,8.0,10.0,9.0,6.25,2.5,3.5,4.25,1.5,2.0,0.75,1.5,0.08,0.2,0.95,899.15,-10.6,34.5
0.96,0.25,0.25,3.0,0.0,3.75,0.0,1.25,0.5,0.5,1.75,0.25,1.5,0.25,-0.05,0.08,1.58,157.92,8.8,7.8,8.75,2.5,8.5,12.0,9.75,6.25,2.75,3.0,3.25,1.5,2.0,0.75,1.0,0.08,0.2,0.95,997.43,-11.5,39.7
0.98,0.25,0.0,2.0,0.25,2.25,0.0,0.5,0.5,0.25,0.5,0.0,0.5,0.0,0.02,0.2,1.95,158.11,11.4,26.3,9.5,2.75,9.25,13.5,11.5,6.25,2.25,2.75,2.25,1.5,1.5,0.75,0.75,0.02,0.2,0.95,1102.46,-11.9,44.6
1.0,0.0,0.0,0.75,0.0,1.75,0.0,0.5,0.5,0.25,0.5,0.25,0.0,0.25,-0.05,0.45,2.33,131.29,3.4,10.2,10.5,2.25,10.5,13.5,11.5,5.0,1.25,2.0,1.5,1.5,1.5,0.5,0.5,0.02,0.2,1.02,1163.97,-13.7,48.9
1.02,0.0,0.25,1.75,0.25,2.25,0.0,0.5,0.5,0.25,0.5,0.0,0.0,0.0,-0.17,0.7,2.58,112.41,9.7,35.8,11.5,2.25,11.5,0.0,12.5,6.25,0.75,2.0,1.25,1.25,1.5,0.5,0.5,0.02,0.2,1.08,1109.02,-12.5,48.4
1.04,0.25,0.0,1.0,0.5,0.5,0.0,0.25,0.5,0.25,0.5,0.0,0.0,0.0,-0.3,1.52,2.83,83.81,12.1,22.3,10.5,2.25,11.5,13.5,12.5,5.0,0.0,1.5,0.75,0.0,0.25,0.5,0.25,-0.05,0.27,1.08,1106.49,-14.8,57.4
1.06,0.0,0.25,2.0,0.75,2.25,0.0,0.5,0.5,0.25,0.5,0.0,0.0,0.0,0.58,3.14,3.45,83.67,11.3,38.3,12.5,2.5,12.5,13.5,12.5,5.0,0.0,0.25,0.75,1.0,0.0,0.5,0.0,0.08,0.33,1.14,1115.77,-16.1,59.8
1.08,0.0,0.0,1.0,0.75,1.75,0.25,0.5,0.5,0.25,0.5,0.0,0.0,0.0,0.27,5.52,1.52,77.21,6.3,29.5,11.5,2.5,12.5,12.0,11.0,3.0,0.0,0.5,0.5,0.0,0.75,0.0,0.0,0.14,0.39,1.2,1093.77,-18.1,62.5
1.1,0.25,0.25,2.0,2.25,2.25,1.5,0.0,0.5,1.0,2.0,0.0,0.75,0.0,3.02,7.77,-1.42,118.13,5.2,15.7,12.0,2.5,10.5,10.5,8.5,2.75,0.0,0.25,0.25,0.0,0.0,0.0,0.0,0.2,0.39,1.33,1001.84,-19.2,66.8
1.12,0.25,0.25,3.0,2.0,3.75,1.5,1.0,1.25,1.0,2.75,1.5,0.75,1.0,0.2,-2.61,-0.92,181.0,4.4,2.6,11.5,2.0,10.5,9.25,7.25,2.75,0.0,0.25,0.0,0.0,0.0,0.0,0.0,0.2,0.52,1.45,880.81,-20.0,67.4
1.14,0.5,0.25,1.75,2.0,3.5,1.5,0.75,2.25,1.0,1.25,2.0,0.0,1.0,-1.55,-0.55,3.08,226.36,2.8,5.4,10.5,1.5,9.25,7.75,5.5,1.25,0.0,0.25,0.25,0.0,0.0,0.0,0.0,0.39,0.77,2.02,717.81,-22.0,68.1
1.16,0.25,0.25,2.5,0.5,1.25,0.0,0.25,0.75,0.25,3.0,2.0,0.75,2.0,0.58,1.14,0.7,240.02,4.3,-29.0,8.5,0.75,8.5,6.5,1.75,2.25,0.25,0.0,0.25,0.0,0.0,0.0,0.0,0.7,1.39,2.58,544.47,-24.0,67.9
1.18,0.25,0.25,0.75,1.0,2.25,1.5,0.0,2.75,2.0,6.5,2.0,4.0,4.75,-0.86,0.7,4.14,290.45,-4.1,-51.1,6.75,0.0,7.0,4.5,1.0,0.5,0.0,0.0,0.0,0.0,0.0,0.0,0.0,0.7,1.39,2.83,378.36,-28.3,70.8
1.2,0.25,0.5,0.0,2.25,0.0,3.0,1.75,6.0,4.0,7.75,4.5,5.5,5.5,0.2,0.58,1.33,397.41,-3.4,-54.8,4.25,0.0,4.75,2.25,0.5,1.25,0.0,0.0,0.0,0.0,0.25,0.0,0.0,0.52,0.08,3.27,254.87,-25.7,66.2
1.22,0.5,0.5,3.75,3.25,3.0,3.5,3.0,6.75,4.75,7.75,6.75,6.25,6.0,-0.05,0.2,1.02,606.79,0.9,-36.9,1.25,0.0,1.75,2.0,0.5,1.25,0.0,0.0,0.25,0.0,0.0,0.0,0.0,0.52,-0.8,2.02,132.34,-16.9,57.5
1.24,0.0,0.25,5.0,4.0,2.25,4.0,3.75,7.25,5.25,8.0,7.25,6.25,6.0,-0.05,0.14,0.95,808.52,1.6,-36.0,1.25,0.0,0.5,1.25,0.5,1.25,0.0,0.0,0.0,0.0,0.0,0.0,0.0,1.2,-0.48,2.27,25.4,-11.4,61.6
1.26,0.75,0.5,5.25,4.5,5.75,4.25,3.5,7.25,5.5,8.0,7.75,6.25,6.75,-0.11,0.08,0.95,1002.43,1.8,-28.3,3.25,1.0,0.0,2.0,1.5,2.5,0.0,0.25,0.5,0.5,0.0,0.5,0.0,1.02,-1.11,1.45,0.0,-7.8,47.7
1.28,1.0,0.5,5.5,4.5,6.0,4.25,4.0,7.75,5.75,8.25,7.75,6.25,6.75,-0.11,0.08,0.95,1129.59,2.0,-27.3,1.5,0.75,2.25,2.5,1.75,2.0,0.25,1.25,0.5,0.75,0.25,0.5,0.25,0.58,-0.8,0.83,14.72,-8.4,31.2
1.3,1.0,0.25,5.25,4.5,5.75,4.0,4.0,7.75,5.5,8.25,7.75,6.25,6.75,-0.11,0.08,0.95,1191.3,1.9,-28.7,1.5,1.0,1.75,2.25,2.25,2.0,0.25,1.25,0.5,1.0,0.75,0.5,0.75,0.27,-0.42,0.33,68.05,-5.9,22.2
1.32,0.75,0.5,5.5,4.5,6.25,4.5,3.75,8.0,5.5,8.5,7.75,6.25,6.75,-0.11,0.08,0.95,1223.47,1.5,-27.4,1.25,1.0,1.0,2.25,2.25,2.25,0.25,1.25,0.5,1.0,0.75,0.5,0.5,0.14,-0.23,0.2,114.06,-3.6,21.5
1.34,0.75,0.5,5.0,4.5,5.5,4.25,3.75,8.0,5.5,8.0,7.25,5.25,6.25,-0.11,0.08,0.95,1191.77,1.4,-26.8,1.5,0.75,1.0,2.25,2.25,2.0,0.25,1.0,0.5,1.0,0.75,0.5,0.5,0.02,-0.17,0.45,145.41,-4.8,22.2
1.36,0.5,0.75,4.75,4.5,4.75,4.5,3.75,7.75,5.25,8.0,6.75,5.25,5.75,-0.11,0.08,0.95,1135.95,1.3,-26.8,0.5,0.5,1.0,2.0,2.25,2.0,0.25,1.0,0.5,1.0,0.75,0.5,0.25,-0.11,-0.17,0.77,154.77,-2.5,17.0
1.38,0.75,0.5,5.0,4.5,5.5,4.5,3.75,7.75,5.25,7.75,6.25,4.25,5.75,-0.11,0.08,0.95,1075.5,1.3,-23.4,1.25,0.75,1.0,2.0,2.25,2.0,0.25,1.0,0.5,0.75,0.75,0.5,0.5,-0.11,-0.17,0.95,171.39,-4.4,22.0
1.4,0.75,0.25,5.25,4.5,5.75,5.0,3.5,7.5,5.25,7.0,6.0,4.0,5.0,-0.11,0.08,0.95,1008.55,1.6,-20.4,1.25,0.75,1.0,2.0,1.75,2.0,0.25,1.5,0.5,1.0,0.5,0.5,0.0,-0.05,-0.05,0.95,184.73,-4.1,23.4
1.42,1.0,0.5,5.0,4.75,5.5,5.0,3.5,7.5,5.25,6.5,6.0,3.75,5.0,-0.11,0.08,0.95,934.96,1.8,-18.9,1.0,0.75,0.75,2.0,2.25,1.75,0.25,1.25,0.5,0.5,0.75,0.5,0.0,-0.05,0.14,1.08,194.39,-4.4,25.8
1.44,0.75,0.5,5.0,4.5,6.75,5.0,3.75,7.25,5.5,6.5,5.5,2.5,4.5,-0.11,0.08,0.95,880.82,1.6,-14.5,1.0,0.5,0.75,2.25,2.25,2.0,0.25,1.0,0.5,0.25,0.75,0.5,0.0,0.02,0.2,1.33,196.72,-4.8,28.5
1.46,1.0,0.5,5.0,4.75,6.0,5.0,3.25,7.25,5.5,6.0,5.25,2.5,4.0,-0.11,0.08,0.95,834.52,2.0,-13.2,1.25,0.75,0.75,2.0,2.25,2.0,0.25,0.75,0.5,0.5,0.75,0.5,0.0,0.14,0.33,1.58,196.3,-5.3,29.9
1.48,1.25,0.75,5.0,4.75,6.5,5.25,4.0,7.25,5.5,5.25,5.25,2.5,3.25,-0.11,0.08,0.95,809.44,2.7,-8.9,1.25,0.75,1.25,2.0,2.25,2.0,0.25,1.0,0.5,0.75,0.5,0.5,0.0,0.2,0.52,1.83,194.07,-5.7,29.7
1.5,1.0,1.0,5.0,5.25,6.5,5.5,4.0,7.25,5.75,5.25,5.25,2.5,3.0,-0.11,0.08,0.95,798.97,2.7,-7.7,1.25,0.75,1.0,2.0,2.25,2.0,0.25,0.5,0.5,0.5,0.25,0.5,0.0,0.45,0.83,2.39,184.77,-6.2,36.3
1.52,1.25,0.75,5.25,5.75,7.25,6.0,4.0,7.25,6.0,5.25,4.5,2.0,3.0,-0.11,0.08,0.95,812.58,2.7,-4.0,1.25,0.5,1.0,2.0,2.25,2.0,0.25,0.5,0.5,0.75,0.75,0.5,0.0,0.58,1.77,2.77,183.43,-5.8,28.4
1.54,1.75,1.5,5.25,6.5,8.0,6.25,4.25,7.25,6.0,5.0,4.5,1.75,2.75,-0.11,0.08,0.95,851.25,3.2,1.1,1.0,0.75,1.0,1.75,2.25,2.25,0.25,0.75,0.5,1.0,0.75,0.5,0.0,0.64,2.95,2.95,184.63,-3.8,24.7
1.56,2.0,1.75,5.75,6.75,7.75,6.5,4.5,6.75,6.25,4.5,4.5,1.25,2.0,-0.11,0.08,0.95,886.22,4.3,5.9,1.25,0.75,0.75,2.0,1.75,0.5,0.25,1.0,0.5,0.75,0.75,0.5,0.25,0.83,3.95,1.95,179.76,-7.9,21.0
1.58,2.25,1.75,6.5,8.0,8.25,6.75,5.0,6.5,6.5,4.25,3.5,1.0,2.0,-0.11,0.08,0.95,934.5,5.1,10.8,1.0,0.5,1.0,1.75,1.75,1.5,0.25,0.75,0.5,0.75,0.5,0.5,0.5,-0.11,5.27,-1.67,175.41,-5.2,19.2
1.6,3.75,1.75,7.5,10.5,8.75,6.75,5.25,6.25,6.5,3.5,3.5,1.0,2.0,-0.11,0.08,0.95,1006.35,7.1,16.9,1.5,0.75,1.25,2.0,2.25,2.0,0.25,0.75,0.5,0.0,0.75,0.0,0.5,-3.3,6.58,1.77,179.1,-7.1,36.4
1.62,4.5,1.75,8.75,14.0,9.5,6.75,5.75,5.75,5.75,3.25,3.25,1.0,1.5,-0.05,0.08,0.95,1109.42,8.7,23.7,1.25,0.75,0.0,1.75,0.25,2.5,0.0,1.75,0.5,1.0,0.5,0.75,0.75,0.2,-0.67,1.89,175.89,0.9,2.3
1.64,5.75,1.75,10.5,16.0,11.0,6.75,5.75,4.75,5.0,3.25,2.25,1.0,1.0,-0.05,0.08,0.95,1234.6,10.3,31.2,1.0,0.0,0.75,0.0,1.75,0.0,0.0,1.5,0.0,0.0,0.75,0.5,0.75,-0.05,-0.11,1.77,153.77,-4.4,-0.7
1.66,6.75,2.0,11.0,17.5,12.0,6.75,6.0,3.25,3.25,3.0,2.25,1.0,1.0,-0.11,0.08,1.02,1335.03,11.3,36.7,0.0,0.0,0.0,0.0,1.25,0.0,0.0,1.0,0.0,0.0,0.5,2.0,0.75,-0.48,0.95,0.89,124.32,1.6,-52.9
1.68,7.0,2.0,12.5,17.5,12.5,5.75,5.75,2.25,2.0,3.0,2.5,1.0,1.0,-0.05,0.14,1.2,1388.05,12.6,39.5,1.0,0.75,1.0,2.0,2.25,2.75,0.0,3.0,0.75,4.5,1.5,3.5,3.5,-0.92,0.64,2.02,191.4,2.4,-29.5
1.7,8.25,2.25,12.5,17.0,12.0,4.0,4.75,1.75,1.0,3.0,2.0,0.75,1.0,-0.17,0.2,1.33,1390.1,14.1,43.6,1.25,0.75,0.75,0.0,2.5,2.0,0.25,4.0,2.5,5.5,4.25,5.0,4.25,-0.11,0.64,1.77,281.57,1.9,-46.6
1.72,8.75,2.5,14.0,16.0,11.0,2.75,2.0,2.5,1.0,3.0,1.75,1.0,1.0,-0.17,0.2,1.33,1363.12,14.9,43.6,0.25,0.0,0.0,0.0,1.5,2.0,0.0,4.0,2.25,5.0,4.25,5.5,5.0,-0.05,0.33,1.08,371.15,4.5,-64.2
1.74,9.5,2.5,13.5,12.5,9.25,1.75,0.75,1.0,1.0,3.0,2.0,0.75,1.0,-0.17,0.33,1.52,1267.95,16.7,45.5,0.75,0.0,0.0,0.5,1.75,2.5,0.5,4.5,4.5,6.25,5.0,6.25,5.0,0.08,0.08,0.95,479.63,2.7,-57.3
1.76,9.5,2.0,12.5,8.0,8.0,1.75,0.5,2.0,1.0,3.0,1.25,1.0,1.0,-0.48,0.52,2.08,1102.31,16.2,42.7,2.0,0.75,2.25,2.25,3.5,4.0,0.5,5.5,5.0,6.75,7.25,6.5,6.25,0.08,0.14,0.95,634.12,-0.3,-37.5
1.78,8.5,1.75,11.0,6.5,7.0,1.5,1.5,1.0,1.0,3.0,2.0,0.75,1.0,-0.67,0.83,2.58,918.33,16.5,40.5,2.0,1.0,2.5,2.25,3.75,4.0,1.5,5.75,5.5,7.0,7.75,7.0,6.25,0.08,0.14,0.95,779.49,-0.9,-36.6
1.8,6.25,1.0,9.25,4.75,5.75,0.25,1.75,2.25,0.5,1.0,1.75,0.25,1.25,-0.92,0.77,2.64,710.47,17.2,40.2,2.5,1.0,2.5,2.5,5.0,5.0,2.0,6.25,6.0,7.0,8.0,6.5,6.0,0.08,0.14,0.95,918.99,-0.9,-30.8
1.82,5.5,0.25,7.75,3.25,3.5,0.5,0.5,0.5,0.25,0.75,1.5,0.0,0.25,-0.86,0.58,2.83,490.57,21.2,49.6,2.5,1.25,2.75,2.5,5.5,5.0,2.0,6.5,6.25,6.75,7.75,6.0,6.0,0.08,0.14,0.95,1013.24,-1.0,-28.1
1.84,2.5,0.25,6.5,1.75,2.5,0.25,0.75,0.5,0.25,0.5,0.75,0.0,0.0,-0.55,-0.17,2.95,306.86,21.9,49.4,2.75,1.5,3.25,2.5,5.5,5.0,2.0,6.5,6.0,6.0,7.5,5.5,5.0,0.08,0.14,0.95,1048.05,-1.8,-23.2
1.86,0.75,0.25,1.5,0.0,2.25,0.25,0.5,0.25,0.25,0.5,0.25,0.0,0.25,-0.61,-1.11,1.27,158.45,9.9,33.7,2.25,1.25,3.5,2.5,5.5,5.0,2.0,6.5,6.0,5.5,6.75,4.5,4.5,0.08,0.14,0.95,1023.34,-1.7,-20.9
1.88,0.0,0.25,1.75,1.0,2.25,0.25,0.0,0.75,0.25,0.5,0.0,0.0,0.0,-0.86,-1.3,1.64,31.62,7.9,35.8,2.75,1.5,4.0,2.75,5.5,5.0,2.5,6.25,6.0,4.5,6.25,3.25,3.5,0.08,0.14,0.95,974.75,-3.1,-12.4
1.9,0.0,0.25,1.25,1.0,2.25,0.0,0.0,0.5,0.25,0.5,0.25,0.0,0.0,-0.55,-1.17,1.27,0.0,7.6,32.7,2.75,1.5,4.75,2.75,5.5,5.0,2.25,5.75,6.0,3.75,5.0,2.25,2.5,0.08,0.14,0.95,893.34,-4.1,-4.6
1.92,1.0,0.5,1.25,2.25,2.25,1.5,0.25,1.5,0.75,2.5,1.75,0.75,1.0,-0.48,-0.67,0.64,0.0,2.7,-2.8,3.25,1.5,4.75,3.75,5.5,5.0,2.5,5.5,5.75,3.0,4.25,2.0,2.25,0.08,0.14,0.95,811.57,-5.1,1.4
1.94,1.0,0.5,3.0,2.25,4.75,1.5,1.0,1.25,0.75,3.0,1.0,0.75,1.0,-0.36,-0.48,0.27,61.81,4.8,11.4,3.25,1.5,4.75,4.5,5.75,5.0,2.5,5.5,5.75,2.75,4.0,2.0,1.5,0.08,0.14,0.95,762.11,-5.7,5.2
1.96,1.25,0.25,1.5,2.25,3.5,1.5,1.25,1.5,0.5,3.0,1.5,1.0,1.0,-0.23,-0.36,0.33,135.17,3.0,0.8,4.0,1.5,5.0,4.75,6.25,5.25,2.5,5.5,5.5,2.75,3.25,1.25,1.75,0.08,0.14,0.95,738.91,-5.8,10.4
1.98,1.0,0.5,1.75,1.0,4.5,0.0,1.25,0.5,0.25,2.25,0.25,0.75,0.0,-0.11,-0.3,0.64,163.54,6.8,21.9,3.75,1.5,5.0,5.0,7.0,5.75,2.5,5.25,5.5,2.0,3.0,0.75,1.5,0.08,0.14,0.95,714.14,-5.8,15.1
2.0,0.25,0.5,0.0,1.0,2.5,1.5,0.5,0.0,0.75,3.0,0.0,0.75,0.0,-0.05,-0.3,0.95,157.25,-3.0,0.6,4.5,1.75,5.0,6.5,7.25,5.75,2.5,5.0,5.5,2.0,3.0,0.75,1.75,0.08,0.14,0.95,719.43,-6.5,17.9
2.02,1.0,0.5,1.5,2.25,3.75,0.75,1.25,1.0,0.75,2.75,1.25,0.75,1.0,-0.05,-0.23,1.14,180.83,4.4,4.5,5.75,1.75,6.5,8.0,7.5,6.25,2.5,4.75,5.0,1.5,2.75,0.75,1.25,0.08,0.14,0.95,761.39,-8.5,25.6
2.04,1.0,0.5,2.75,2.25,3.75,1.5,1.25,0.75,0.75,2.75,1.25,0.75,1.0,-0.05,-0.05,1.14,218.23,5.9,9.7,6.0,2.25,6.75,8.75,8.5,6.25,2.5,4.5,5.0,1.5,2.5,0.75,1.5,0.08,0.14,0.95,825.36,-8.7,27.9
2.06,1.0,0.5,2.75,2.0,4.25,1.0,1.5,0.5,0.75,2.0,0.25,0.75,0.0,-0.11,0.08,1.27,248.89,8.5,26.3,6.75,2.25,7.5,10.5,9.5,6.5,2.5,4.5,4.5,1.5,2.25,0.75,1.0,0.08,0.2,0.95,912.03,-9.4,32.7
2.08,1.0,0.5,1.75,2.25,2.25,1.5,1.25,1.0,0.75,2.5,1.25,0.75,1.0,-0.17,0.2,1.52,263.53,4.9,2.8,7.75,2.5,8.25,12.0,9.75,7.0,2.5,4.25,3.25,1.5,2.0,0.75,1.0,0.08,0.2,0.95,1007.09,-10.1,37.1
2.1,0.75,0.5,3.0,2.0,2.5,1.5,1.25,1.0,0.75,2.5,1.0,0.75,0.75,-0.23,0.39,1.83,268.38,6.7,8.4,8.5,3.0,8.5,13.5,11.0,7.0,2.0,3.25,2.5,1.25,2.0,0.75,0.75,0.08,0.2,0.95,1100.59,-10.9,42.3
2.12,0.75,0.5,3.0,2.0,3.75,1.25,1.25,1.0,0.5,2.75,1.25,0.75,1.0,-0.36,0.83,2.27,268.27,5.8,8.4,9.5,0.0,9.25,15.0,12.5,7.0,1.5,3.25,1.5,1.25,1.5,0.5,0.75,0.08,0.2,1.02,1166.33,-11.1,44.1
2.14,0.5,0.5,3.0,2.0,3.0,0.25,1.0,0.75,0.5,2.25,0.75,0.75,0.0,-0.36,1.7,2.7,252.48,9.6,16.8,10.5,1.0,9.25,14.0,14.0,7.0,0.5,2.5,1.25,0.0,1.0,0.0,0.25,0.02,0.2,1.08,1201.41,-11.9,53.0
2.16,0.25,0.25,3.0,1.0,2.25,0.0,1.0,1.0,0.25,0.5,1.5,0.0,1.0,-0.48,2.7,2.7,222.97,11.2,11.8,9.75,0.0,2.25,13.5,12.5,7.0,0.0,1.75,1.0,1.25,0.5,0.0,0.75,0.02,0.27,1.14,1111.28,-7.8,48.7
2.18,0.25,0.25,1.75,2.0,2.25,1.0,1.0,0.5,0.75,2.0,0.0,0.75,0.0,-0.61,4.14,-0.05,199.35,6.2,14.7,11.5,2.5,10.0,15.0,14.0,6.75,0.0,1.75,0.75,1.0,0.75,0.5,0.5,0.14,0.27,1.14,1148.42,-12.5,53.4
2.2,0.5,0.5,3.0,2.25,3.5,1.5,1.25,1.0,0.75,2.75,1.25,0.75,1.0,0.02,5.64,-0.48,217.73,5.5,7.0,10.5,2.25,9.25,12.0,12.5,5.5,0.0,1.5,0.5,0.0,0.75,0.0,1.0,0.14,0.33,1.2,1099.09,-13.2,55.6
2.22,0.25,0.5,1.75,2.0,4.25,1.5,1.0,1.5,1.0,3.0,0.75,0.75,0.0,2.27,6.77,-0.8,234.23,2.2,9.2,11.0,2.75,9.0,10.5,9.75,5.0,0.0,0.0,0.25,0.0,0.0,0.0,0.0,0.2,0.39,1.39,1025.81,-16.0,65.3
2.24,0.5,0.25,3.0,2.0,4.75,1.5,1.0,2.0,1.0,3.0,2.0,0.75,1.0,0.2,-0.17,0.89,267.14,3.6,2.3,10.5,2.25,8.5,8.75,7.25,3.0,0.0,0.25,0.0,0.0,0.0,0.0,0.25,0.27,0.52,1.58,865.3,-18.3,66.1
2.26,0.25,0.25,1.0,0.75,2.5,1.0,0.25,2.0,0.25,3.0,1.25,0.75,1.25,0.64,0.64,1.52,251.85,-2.6,-19.0,10.5,3.0,8.0,8.5,5.75,4.0,0.0,0.0,0.5,0.5,0.0,0.0,0.0,0.58,0.89,2.14,742.49,-17.8,65.4
2.28,0.5,0.0,2.75,1.0,3.0,1.5,0.25,3.0,1.0,5.0,2.0,2.5,1.75,-0.8,0.45,1.89,273.5,0.1,-25.7,8.0,1.5,7.5,6.75,5.5,3.75,0.25,0.5,0.5,0.5,0.0,0.25,0.75,0.7,1.33,2.77,605.28,-15.9,56.1
2.3,0.0,0.25,0.0,2.0,2.5,2.5,0.0,5.75,2.25,5.5,3.25,2.5,5.0,0.2,0.77,1.7,318.67,-6.1,-44.5,6.75,1.5,5.25,4.5,2.75,2.75,0.0,0.75,0.5,0.75,0.0,0.0,0.25,0.52,0.89,2.77,460.78,-16.7,57.6
2.32,0.0,0.5,4.0,4.25,0.0,4.0,1.75,5.75,3.5,7.5,4.5,4.5,4.5,-0.11,0.2,1.08,435.36,0.7,-35.1,4.25,0.25,2.75,2.5,3.25,2.75,0.0,1.0,0.5,1.25,0.25,0.5,0.5,0.45,-0.3,2.64,334.43,-9.6,37.2
2.34,0.5,0.25,5.0,4.0,5.25,4.25,3.25,7.25,4.0,8.0,6.0,5.25,5.75,-0.05,0.14,0.95,627.45,0.9,-27.0,2.75,0.25,2.0,1.0,2.25,2.75,0.25,0.75,0.5,0.0,0.75,0.0,0.5,-0.05,-0.48,0.95,230.52,-8.7,38.9
2.36,0.25,0.5,5.0,4.5,6.25,4.5,3.25,7.5,4.5,8.5,6.25,5.5,6.0,-0.11,0.14,0.95,829.9,0.7,-25.9,0.5,0.0,0.75,0.5,1.75,1.25,0.0,0.0,0.25,0.0,0.0,0.0,0.0,0.52,-0.67,2.02,108.5,-4.6,50.2
2.38,0.75,0.5,5.0,4.5,6.0,5.0,3.0,8.0,4.75,8.75,6.75,6.0,6.5,-0.11,0.08,0.95,1003.27,0.6,-27.1,0.5,0.0,0.0,1.0,1.5,0.5,0.0,0.0,0.0,0.0,0.0,0.0,0.0,0.58,-1.23,1.7,2.4,-4.7,57.8
2.4,0.25,0.5,5.0,4.5,6.0,5.0,2.75,8.25,4.75,8.25,7.0,5.5,6.75,-0.05,0.08,0.95,1096.92,0.3,-27.6,0.5,0.0,0.0,1.0,1.75,0.25,0.0,0.0,0.0,0.0,0.0,0.0,0.0,0.45,-0.98,0.7,0.0,-5.8,58.9
2.42,0.5,0.5,5.25,4.0,6.0,5.25,3.0,8.5,4.5,9.0,6.75,5.25,6.75,-0.11,0.08,0.95,1140.61,0.0,-27.2,1.0,0.0,0.0,0.75,1.5,0.5,0.0,0.0,0.25,0.0,0.0,0.0,0.0,0.45,-0.48,0.58,0.0,-7.8,56.6
2.44,0.75,0.25,4.75,4.5,6.5,5.5,3.0,8.5,4.5,8.0,6.25,5.25,6.25,-0.11,0.08,0.95,1137.69,0.1,-24.5,1.75,0.0,1.75,2.25,1.75,2.0,0.25,1.0,0.5,1.5,1.0,0.5,0.5,0.27,-0.3,0.39,0.0,-6.3,15.3
2.46,0.75,0.5,4.75,4.75,6.0,5.75,2.5,8.5,4.5,8.25,6.25,4.25,6.0,-0.11,0.08,0.95,1125.23,0.0,-22.9,1.5,0.5,1.5,2.25,2.25,0.5,0.75,1.0,0.5,0.0,0.25,0.0,0.0,0.14,-0.11,0.45,34.53,-12.6,46.2
2.48,0.75,0.5,5.0,4.75,6.0,5.75,3.25,8.5,4.5,8.0,5.75,4.0,5.75,-0.11,0.08,0.95,1096.02,0.2,-20.9,0.25,0.5,0.0,0.75,0.5,0.25,0.0,0.0,0.0,0.0,0.0,0.0,0.0,-0.05,-0.11,0.7,37.77,-8.8,67.4
2.5,0.75,0.5,5.0,4.75,6.0,5.75,3.25,8.5,4.5,7.75,5.75,4.0,5.5,-0.11,0.08,0.95,1063.76,0.4,-20.3,0.5,0.0,0.0,0.75,1.0,0.0,0.0,0.0,0.0,0.0,0.0,0.0,0.0,-0.11,-0.11,0.89,18.38,-10.7,63.5
2.52,0.75,0.5,5.0,4.75,6.5,6.25,3.25,8.5,4.5,7.5,5.0,2.5,5.0,-0.11,0.08,0.95,1003.74,0.0,-15.2,0.5,0.0,0.0,0.5,0.25,0.0,0.0,0.0,0.0,0.0,0.0,0.0,0.0,-0.05,0.02,1.02,0.0,-19.0,71.4
2.54,0.5,0.5,5.0,4.75,6.5,6.5,3.25,8.5,4.5,6.75,4.5,2.5,4.75,-0.11,0.08,0.95,943.32,0.0,-13.7,0.5,0.0,0.0,0.5,0.5,0.0,0.0,0.0,0.0,0.0,0.0,0.0,0.0,0.02,0.08,1.08,0.0,-14.9,68.1
2.56,0.75,0.5,5.0,4.75,7.25,6.75,3.5,8.5,4.5,6.5,4.25,2.5,4.25,-0.11,0.14,0.95,898.64,0.1,-10.6,0.75,0.0,0.0,0.5,0.25,0.0,0.0,0.0,0.0,0.0,0.0,0.0,0.0,0.02,0.2,1.27,0.0,-21.5,75.5
2.58,0.75,0.75,5.0,5.25,7.5,6.75,3.75,8.5,4.5,6.5,4.5,2.5,3.75,-0.11,0.14,0.95,877.46,0.5,-8.6,0.5,0.0,0.0,0.5,0.25,0.25,0.0,0.0,0.0,0.0,0.0,0.0,0.0,-0.05,0.39,1.64,8.81,-12.5,65.6
2.6,1.25,1.0,5.0,5.75,7.75,7.0,3.75,8.5,4.75,5.5,4.25,2.5,3.0,-0.11,0.14,0.95,879.77,1.4,-3.6,0.5,0.0,0.0,0.25,0.0,0.25,0.0,0.0,0.0,0.0,0.0,0.0,0.0,0.02,0.58,2.14,10.63,-16.0,71.4
2.62,1.0,1.0,5.0,6.5,7.75,7.5,3.75,8.5,5.0,5.25,4.5,2.0,3.0,-0.11,0.14,0.95,894.3,1.4,-2.1,0.5,0.0,0.0,0.25,0.0,0.25,0.0,0.0,0.0,0.0,0.0,0.0,0.0,0.14,0.89,2.58,4.76,-16.0,71.4
2.64,1.25,1.25,5.25,6.5,8.0,7.5,4.0,8.5,5.0,5.25,3.25,1.75,3.0,-0.11,0.14,0.95,909.78,1.5,1.1,0.75,0.0,0.0,0.0,0.25,0.25,0.0,0.0,0.0,0.0,0.0,0.0,0.0,0.2,1.83,2.95,0.73,-14.8,75.1
2.66,1.75,1.5,5.75,8.0,8.75,8.0,4.0,8.5,5.0,5.25,3.5,1.25,2.5,-0.11,0.14,0.95,948.82,2.3,6.6,0.25,0.0,0.0,0.25,0.0,0.25,0.0,0.0,0.0,0.0,0.0,0.0,0.0,0.2,2.95,2.83,0.0,-9.9,62.9
2.68,2.0,1.75,5.75,8.25,9.25,8.5,4.25,8.25,5.0,4.75,3.0,1.0,2.25,-0.11,0.14,0.95,987.16,2.6,10.6,0.25,0.0,0.0,0.0,0.0,0.0,0.0,0.0,0.0,0.0,0.0,0.0,0.0,0.58,4.58,0.33,0.0,-34.9,97.9
2.7,2.0,1.75,6.5,10.5,9.5,8.5,4.25,8.25,4.75,4.75,2.25,1.0,2.0,-0.11,0.14,0.95,1041.5,3.4,14.7,0.75,0.0,0.0,0.0,0.0,0.0,0.0,0.0,0.0,0.0,0.0,0.0,0.0,-1.05,6.52,-1.3,0.0,-35.0,97.9
2.72,2.5,1.75,6.5,12.5,12.0,8.5,4.25,7.75,4.5,4.25,3.25,1.0,1.25,-0.11,0.14,0.95,1118.98,4.3,19.5,0.25,0.0,1.0,0.0,1.75,0.5,0.25,2.0,0.0,0.0,0.75,0.0,0.25,-5.05,6.45,-0.3,41.03,-0.6,7.6
2.74,3.75,1.75,7.25,14.5,12.0,9.0,4.5,7.25,3.5,3.5,1.75,1.0,1.5,-0.11,0.14,0.95,1200.94,5.5,26.2,0.0,0.0,0.0,0.0,0.25,0.0,0.0,0.25,0.0,0.0,0.0,0.5,0.0,0.77,-0.8,3.58,41.27,0.7,-47.1
2.76,5.5,1.75,8.0,16.0,14.0,9.25,4.25,6.25,2.25,3.25,0.5,1.0,1.5,-0.11,0.14,0.95,1293.71,6.5,33.7,0.0,0.0,0.0,0.0,0.25,0.25,0.0,0.25,0.25,0.75,0.0,2.25,1.5,-0.42,0.83,0.52,69.36,3.7,-84.2
2.78,6.25,1.25,9.0,17.5,14.0,9.25,3.75,5.75,1.25,3.0,0.75,1.0,1.5,-0.05,0.14,1.02,1350.6,7.5,36.2,0.25,0.25,0.0,0.5,0.5,2.0,0.0,1.75,0.75,4.5,0.75,5.25,2.75,0.45,0.58,2.33,151.84,5.2,-62.4
2.8,7.0,0.0,9.75,17.0,15.5,8.5,3.25,4.5,1.0,3.0,1.75,1.0,1.25,-0.11,0.2,1.14,1384.97,8.4,36.8,0.0,0.0,0.0,0.0,1.5,2.75,0.0,4.75,2.5,6.5,4.75,6.25,4.5,0.27,0.7,1.89,282.29,5.2,-63.5
2.82,7.0,1.75,9.75,16.0,13.0,7.0,0.0,2.5,0.5,1.25,0.0,0.5,0.5,-0.17,0.2,1.33,1329.66,10.7,50.1,0.25,0.0,0.0,0.0,1.5,2.75,0.0,5.5,3.25,7.5,6.25,7.75,6.25,-0.05,0.33,1.08,446.76,4.4,-66.1
2.84,7.25,1.75,9.75,14.0,14.0,5.75,0.0,1.0,0.25,2.0,0.25,0.5,0.25,-0.17,0.27,1.39,1232.47,11.4,51.6,1.25,0.75,0.0,1.5,2.75,3.25,0.0,6.0,3.75,7.75,7.75,7.75,7.5,0.14,0.2,0.95,662.72,2.7,-53.1
2.86,7.75,1.75,9.0,10.5,9.5,4.5,0.0,1.0,0.5,2.0,0.75,0.25,0.25,-0.3,0.33,1.95,1043.25,13.2,50.7,1.25,0.75,1.75,1.25,2.25,3.75,0.5,6.5,4.25,7.75,7.75,7.75,7.25,0.14,0.14,0.95,835.3,1.3,-49.2
2.88,7.25,1.75,8.0,6.75,7.5,2.25,0.0,0.0,0.25,1.25,0.25,0.0,0.25,-0.55,0.64,2.45,812.17,16.4,58.3,1.5,0.75,2.0,0.75,2.5,3.75,0.75,6.75,4.5,7.5,8.0,7.75,7.25,0.08,0.14,0.95,947.54,1.0,-48.3
2.9,6.25,0.25,6.5,5.5,6.0,1.5,0.0,0.5,0.25,1.0,0.25,0.25,0.0,-0.8,0.89,2.83,582.0,16.8,55.1,1.5,0.75,2.0,1.0,2.25,4.0,0.5,6.75,4.5,7.75,7.5,7.5,7.25,0.08,0.14,0.95,998.49,1.3,-47.7
2.92,5.25,0.25,5.25,4.75,6.0,1.25,0.0,0.5,0.25,0.75,0.0,0.0,0.0,-0.67,0.45,2.7,406.6,15.9,57.6,1.5,1.0,2.0,1.25,2.75,3.75,0.75,7.0,4.5,7.5,7.5,7.0,7.0,0.08,0.14,0.95,1013.37,1.0,-44.5
2.94,2.0,0.0,3.0,0.0,5.0,1.5,0.0,0.5,0.25,0.75,0.0,0.0,0.0,-0.55,0.27,3.02,261.2,8.4,47.1,1.5,0.75,2.0,1.25,2.5,4.0,1.0,7.25,4.5,7.75,7.5,7.0,7.0,0.08,0.14,0.95,1005.75,1.2,-45.3
2.96,2.0,0.25,1.75,1.75,2.5,1.5,0.0,0.5,0.75,3.0,0.0,0.75,1.25,-0.55,-1.05,1.77,169.74,4.2,7.9,1.0,1.0,2.0,1.25,2.5,4.0,1.0,7.25,4.5,7.5,7.75,7.0,7.0,0.08,0.14,0.95,984.61,1.3,-45.9
2.98,0.25,0.0,2.5,0.5,6.0,1.0,0.5,0.5,0.25,0.5,0.5,0.0,0.0,-0.61,-0.55,1.89,93.3,5.3,39.2,1.25,1.0,2.0,2.0,2.75,4.25,1.0,7.25,5.0,7.25,7.25,7.0,6.75,0.08,0.14,0.95,965.72,0.9,-42.1
3.0,0.25,0.25,1.75,1.0,2.5,0.5,0.0,0.5,0.25,1.0,0.0,0.0,0.0,-0.55,-0.98,1.33,29.76,6.7,33.7,1.25,1.0,2.0,2.25,3.0,4.5,1.0,7.25,5.0,7.0,7.5,7.0,6.25,0.08,0.14,0.95,926.98,0.7,-40.2
3.02,0.25,0.0,1.75,0.75,2.25,1.75,0.25,0.25,0.75,2.75,0.0,0.25,0.0,-0.42,-1.05,0.83,4.89,1.0,9.2,1.25,1.0,2.0,2.0,3.75,5.0,1.5,7.25,5.5,6.75,7.5,6.5,6.25,0.08,0.14,0.95,889.53,0.7,-37.5
3.04,0.25,0.25,1.75,1.25,2.25,0.5,0.0,0.5,0.25,0.75,0.0,0.0,0.0,-0.42,-0.73,0.52,0.0,8.1,37.1,1.25,1.0,2.25,2.25,4.5,5.0,1.5,7.25,5.5,6.75,7.5,6.25,6.0,0.08,0.14,0.95,863.25,0.5,-34.5
3.06,1.0,0.25,1.75,2.25,2.25,1.5,0.0,0.5,0.75,3.0,0.25,0.5,0.0,-0.42,-0.55,0.33,40.57,4.5,14.1,1.75,1.25,2.5,2.5,4.75,5.0,1.5,7.25,5.5,6.25,7.5,5.75,5.0,0.08,0.14,0.95,841.59,-0.3,-29.1
3.08,0.25,0.25,1.75,1.75,1.75,1.0,0.0,0.0,0.25,0.75,0.0,0.25,0.0,-0.42,-0.36,0.45,51.02,9.2,37.3,0.75,1.25,2.5,2.5,5.5,5.0,2.0,7.0,6.0,5.5,6.75,5.5,5.0,0.08,0.14,0.95,816.07,0.0,-28.1
3.1,0.25,0.25,1.75,0.75,2.25,0.5,1.0,0.5,0.25,0.5,0.5,0.25,0.0,-0.3,-0.3,0.64,77.89,9.7,28.0,2.0,1.5,2.5,2.5,5.5,5.0,2.0,7.0,6.0,5.5,6.75,4.5,3.5,0.08,0.14,0.95,794.47,-1.1,-20.9
3.12,0.25,0.25,1.75,0.75,2.25,0.25,0.0,0.5,0.25,0.75,0.0,0.0,0.0,-0.36,-0.23,0.83,82.76,8.4,35.8,2.75,1.5,3.25,2.75,5.5,5.0,2.25,6.75,6.0,4.5,5.5,3.5,3.0,0.08,0.14,0.95,769.58,-2.4,-12.5
3.14,0.25,0.25,1.75,1.0,2.25,0.25,0.5,0.0,0.25,0.75,0.0,0.0,0.0,-0.3,-0.11,0.95,90.1,11.2,41.3,2.75,1.5,4.0,3.25,5.5,5.5,2.5,6.5,6.25,4.0,5.25,2.75,2.5,0.08,0.14,0.95,754.42,-3.3,-6.9
3.16,1.0,0.25,1.75,2.0,2.25,1.5,0.0,0.25,0.75,2.75,0.75,0.75,1.0,-0.23,0.02,1.08,131.28,4.0,2.6,2.75,1.5,4.5,4.5,5.75,5.75,2.5,6.5,6.5,3.25,4.75,2.0,1.75,0.08,0.14,0.95,748.0,-4.3,0.4
3.18,0.5,0.5,3.0,2.0,4.25,1.5,1.25,1.25,0.5,2.75,1.0,0.75,1.0,-0.23,0.14,1.2,197.17,4.5,9.3,3.0,1.5,4.75,4.75,6.5,6.0,2.5,6.5,6.5,3.0,4.25,2.0,2.0,0.08,0.14,0.95,758.05,-4.3,3.0
3.2,0.75,0.5,3.0,2.0,4.5,1.5,1.25,1.25,0.75,2.75,0.75,0.75,1.0,-0.3,0.33,1.39,247.87,4.8,11.4,3.75,1.5,5.0,6.25,7.25,6.25,2.75,6.5,6.5,2.75,4.0,1.75,1.75,0.08,0.14,0.95,791.43,-5.2,8.7
3.22,0.75,0.25,3.0,2.0,4.25,1.5,1.0,0.75,0.5,2.75,0.5,0.75,1.0,-0.3,0.45,1.77,275.95,5.0,12.5,5.25,1.5,6.0,7.5,7.75,6.5,3.25,6.5,6.0,2.75,2.75,1.25,1.5,0.08,0.14,0.95,845.2,-6.6,17.3
3.24,0.75,0.25,3.0,2.0,4.5,1.5,1.25,0.75,0.5,2.0,0.0,0.75,0.0,-0.36,0.7,2.14,283.24,6.9,26.8,6.25,2.25,6.75,10.0,8.5,7.0,3.25,6.25,5.5,2.75,3.0,1.0,1.75,0.08,0.14,0.95,940.01,-7.5,22.6
3.26,0.25,0.0,3.0,0.75,3.75,0.0,1.25,1.0,0.25,0.5,0.5,0.0,0.0,-0.55,1.14,2.58,253.9,11.4,33.9,7.25,2.5,7.75,12.0,10.0,7.25,3.5,5.5,4.25,2.5,2.25,0.75,1.75,0.08,0.14,0.95,1051.24,-8.6,30.2
3.28,0.0,0.25,1.75,0.5,2.25,0.0,0.5,0.5,0.25,0.5,0.0,0.0,0.0,-0.61,1.83,3.02,204.37,10.0,36.7,8.0,3.0,8.5,14.0,12.5,7.5,2.75,4.75,2.5,1.5,2.25,0.75,1.5,0.08,0.14,0.95,1177.14,-9.3,38.0
3.3,0.0,0.25,1.75,0.5,2.25,0.0,0.5,0.5,0.25,2.75,0.0,0.75,0.0,-0.61,3.08,2.58,167.33,3.9,-0.7,9.0,2.5,9.25,14.5,14.0,7.5,2.0,3.5,1.5,1.25,2.0,0.75,1.0,0.02,0.14,1.14,1274.15,-10.3,43.5
3.32,0.5,0.5,3.0,1.0,2.25,1.5,1.0,1.75,0.75,2.25,0.0,0.75,1.0,2.83,7.14,-1.73,178.96,4.3,5.2,10.5,2.0,9.25,15.0,14.5,7.0,0.75,3.0,1.25,1.25,1.25,0.75,0.75,0.14,0.2,1.33,1324.24,-11.0,47.3
3.34,0.25,0.25,3.0,2.0,3.75,1.5,0.75,2.25,1.0,2.75,1.25,0.75,1.0,2.89,3.02,-0.05,216.66,3.2,1.3,11.0,3.0,9.75,15.5,14.0,6.25,0.25,2.0,1.25,0.0,0.75,0.0,0.75,0.08,0.27,1.27,1330.23,-12.8,55.1
3.36,0.5,0.0,2.75,2.0,3.5,1.5,0.75,2.5,1.0,3.0,1.25,0.75,1.0,-1.17,-0.98,3.14,251.55,2.6,-1.6,10.5,1.75,9.25,12.0,13.5,5.0,0.0,1.75,0.5,0.0,0.75,0.0,0.0,0.08,0.33,1.27,1248.87,-13.5,57.9
3.38,0.25,0.75,2.75,2.25,4.25,1.5,0.5,2.25,1.0,3.0,2.0,0.75,1.5,0.27,0.89,0.7,281.73,2.5,-0.9,10.5,2.5,8.5,10.0,9.75,4.75,0.0,0.25,0.0,0.0,0.0,0.0,0.75,0.14,0.39,1.45,1083.61,-15.2,62.3
3.4,0.25,0.25,2.75,1.25,2.5,1.5,0.5,2.5,0.25,3.5,1.75,1.25,3.0,0.14,0.2,1.45,286.03,0.0,-21.8,9.5,1.5,8.0,8.25,7.75,4.5,0.0,0.75,0.5,0.0,0.5,0.0,0.25,0.27,0.64,1.95,890.79,-15.5,59.6
3.42,0.0,0.25,2.25,0.0,3.5,0.0,0.75,4.5,1.5,5.5,2.25,3.5,3.75,-1.36,0.89,3.58,317.25,-1.8,-43.7,8.25,1.0,6.75,6.5,5.75,2.75,0.0,0.25,0.5,0.0,0.25,0.0,0.0,0.64,1.08,2.39,678.71,-17.9,63.3
3.44,0.0,0.5,1.5,2.25,2.5,2.75,1.25,6.0,3.0,7.25,5.25,5.25,5.75,0.14,0.39,1.27,421.59,-2.3,-45.6,6.25,0.5,5.0,4.0,2.25,2.75,0.0,0.25,0.5,0.0,0.0,0.0,0.0,0.58,1.45,2.77,458.18,-19.1,63.7
3.46,0.5,0.5,3.0,2.25,6.0,3.0,1.75,6.5,3.5,7.5,6.0,5.25,5.75,-0.11,0.14,1.02,586.33,-0.6,-33.0,3.75,0.0,2.0,2.5,1.75,2.0,0.0,0.0,0.25,0.0,0.0,0.0,0.0,0.39,0.52,3.14,280.2,-16.1,63.4
3.48,0.0,0.0,3.25,2.5,5.75,3.5,2.5,6.75,3.75,7.75,6.0,5.25,5.75,-0.11,0.08,0.95,740.08,-0.9,-34.3,1.0,0.0,0.5,1.25,1.75,0.25,0.0,0.0,0.5,0.0,0.0,0.0,0.0,0.33,-0.55,2.27,127.72,-12.4,53.6
3.5,0.25,0.5,4.25,3.0,6.0,3.75,2.5,7.25,4.0,7.75,6.0,5.5,5.75,-0.11,0.08,0.95,866.44,0.1,-29.6,0.5,0.0,0.5,1.0,1.75,1.25,0.0,0.25,0.5,0.0,0.0,0.0,0.0,0.33,0.08,-0.3,0.0,-3.7,43.1
3.52,0.5,0.25,4.75,2.5,5.75,4.0,3.0,7.25,4.5,8.0,6.25,5.5,6.0,-0.11,0.08,0.95,942.07,0.4,-30.3,0.75,0.0,0.0,1.0,1.75,1.25,0.0,0.25,0.5,0.0,0.0,0.0,0.0,0.7,-0.67,2.08,0.0,-1.8,43.7
3.54,0.25,0.5,5.0,2.5,6.0,4.25,3.0,7.75,4.75,8.5,6.25,6.25,6.25,-0.11,0.08,0.95,992.13,0.2,-31.0,0.5,0.0,0.0,0.25,1.75,0.75,0.0,0.0,0.5,0.0,0.0,0.0,0.0,0.39,-1.3,1.39,0.0,-1.0,44.0
3.56,0.25,0.5,5.0,2.5,6.0,4.75,3.0,8.0,5.0,9.0,7.0,6.25,6.75,-0.11,0.08,0.95,1041.17,0.0,-32.1,0.0,0.0,0.0,1.0,1.75,0.5,0.0,0.0,0.5,0.0,0.0,0.0,0.0,0.33,-0.73,0.77,0.0,-1.6,41.1
3.58,0.0,0.25,5.0,2.5,6.0,5.0,3.0,8.0,5.0,9.0,7.0,6.25,6.75,-0.11,0.08,0.95,1080.24,-0.3,-32.9,0.25,0.0,0.0,1.0,1.5,0.25,0.0,0.0,0.25,0.0,0.25,0.0,0.0,0.27,-0.36,0.45,0.0,-5.5,41.8
3.6,0.0,0.5,4.75,2.25,6.0,5.0,3.0,8.0,5.0,9.0,7.0,6.25,6.75,-0.11,0.08,0.95,1096.88,-0.5,-33.1,0.0,0.0,0.0,0.75,1.0,0.5,0.0,0.0,0.25,0.0,0.0,0.0,0.0,0.2,-0.23,0.39,0.0,-0.7,42.8
3.62,0.25,0.5,4.75,2.5,6.0,5.0,3.0,8.0,5.0,8.5,7.0,6.0,6.75,-0.11,0.08,0.95,1085.0,-0.2,-31.6,0.0,0.0,0.0,1.0,1.5,0.5,0.0,0.0,0.25,0.0,0.0,0.0,0.0,0.02,0.02,0.89,0.0,-1.2,45.7
3.64,0.0,0.25,5.0,3.5,6.0,5.0,3.25,8.0,5.0,8.0,6.5,5.5,6.5,-0.11,0.08,0.95,1052.16,0.1,-29.0,0.5,0.0,0.0,0.5,1.5,1.0,0.0,0.0,0.25,0.0,0.0,0.0,0.0,0.08,0.27,1.02,0.0,-0.2,48.9
3.66,0.5,0.75,5.0,3.25,6.0,5.0,3.25,8.0,5.25,7.75,6.5,5.25,5.75,-0.11,0.08,0.95,1002.67,0.6,-25.8,0.0,0.0,0.0,0.75,1.25,1.0,0.0,0.25,0.25,0.0,0.0,0.0,0.0,0.08,0.58,1.02,6.19,3.8,36.9
3.68,0.25,0.5,5.0,3.75,6.0,5.0,3.5,8.0,5.25,7.75,6.25,5.0,5.75,-0.11,0.08,0.95,958.13,0.6,-25.4,0.25,0.0,0.0,0.75,1.25,1.25,0.0,0.0,0.0,0.0,0.0,0.0,0.0,0.08,1.08,0.95,32.57,2.7,51.0
3.7,1.0,0.5,5.0,4.5,6.0,5.25,3.75,8.0,5.5,7.0,6.0,4.25,5.5,-0.11,0.08,0.95,938.86,1.3,-20.5,0.0,0.0,0.0,0.5,1.0,0.5,0.0,0.0,0.25,0.0,0.0,0.0,0.0,0.08,1.45,0.83,41.94,1.0,41.1
3.72,1.0,1.0,5.0,4.75,6.25,5.75,3.75,8.0,5.5,6.5,5.75,4.0,5.25,-0.11,0.08,0.95,933.74,1.4,-17.0,0.0,0.0,0.0,0.0,0.25,1.0,0.0,0.0,0.0,0.0,0.0,0.0,0.0,0.02,1.64,1.02,35.92,18.2,38.6
3.74,1.0,1.25,5.0,4.75,6.0,5.75,4.0,7.75,5.75,6.0,5.75,3.25,4.25,-0.11,0.08,0.95,917.78,2.0,-13.4,0.0,0.0,0.0,0.5,1.0,1.0,0.0,0.0,0.0,0.0,0.0,0.0,0.0,-0.23,1.7,1.14,32.15,6.2,47.4
3.76,1.0,1.0,5.25,5.25,7.0,6.0,4.25,7.75,6.0,5.25,5.25,2.5,3.5,-0.11,0.08,0.95,904.83,2.4,-7.7,0.25,0.0,0.0,0.25,0.5,1.25,0.0,0.0,0.0,0.0,0.0,0.0,0.0,0.02,1.58,1.2,30.82,7.2,48.4
3.78,1.0,1.25,5.75,6.0,8.0,6.5,4.25,7.5,6.0,5.25,5.0,2.5,3.25,-0.11,0.08,0.95,911.51,2.7,-3.5,1.5,0.0,0.0,2.0,1.5,2.75,0.0,0.0,0.5,1.25,0.0,0.25,0.0,0.2,1.64,0.89,75.87,-0.8,30.4
3.8,1.5,1.75,5.75,6.5,8.0,6.75,4.25,7.5,6.0,5.25,4.5,2.0,2.75,-0.11,0.08,0.95,929.25,3.1,1.0,0.5,0.0,0.0,0.75,1.75,1.25,0.0,0.0,0.0,0.0,0.0,0.0,0.0,-1.17,3.77,3.08,86.06,0.8,53.7
3.82,2.0,1.75,6.25,8.0,8.25,7.0,4.5,7.25,6.0,4.5,4.0,1.75,2.75,-0.11,0.08,0.95,965.59,4.1,6.2,2.5,0.0,1.25,2.0,3.0,1.25,0.0,0.25,0.0,0.0,0.75,0.0,0.0,-2.48,5.58,2.2,133.07,-11.6,51.9
3.84,2.25,1.75,6.5,10.0,9.25,7.5,4.75,7.25,5.75,4.25,3.5,1.25,2.25,-0.11,0.08,0.95,1017.69,4.6,12.3,1.0,0.0,0.0,2.0,1.75,1.5,0.0,0.0,0.25,0.0,0.0,0.0,0.0,0.02,1.33,0.89,135.85,-4.8,53.5
3.86,4.0,1.75,7.5,12.5,9.5,7.5,5.0,6.5,5.0,3.25,3.0,1.0,1.75,-0.11,0.08,0.95,1084.13,6.9,21.6,2.0,0.0,0.0,2.0,1.0,1.25,0.0,0.25,0.5,0.0,0.0,0.0,0.0,-0.36,-0.36,-0.3,142.29,-10.2,53.6
3.88,5.25,1.75,8.75,14.5,12.0,7.5,5.0,5.75,3.5,3.25,2.5,1.0,1.25,-0.11,0.08,0.95,1177.04,8.1,29.4,5.5,0.75,0.0,2.5,0.0,2.25,0.0,1.0,0.75,1.25,0.75,0.75,0.5,0.83,-3.11,-0.05,174.48,-10.6,28.6
3.9,6.0,2.0,9.75,16.0,12.0,7.25,4.75,4.5,2.0,3.0,1.5,1.0,1.0,-0.11,0.14,1.02,1249.92,9.6,36.4,6.5,1.5,2.0,2.5,2.25,2.75,0.0,1.75,1.75,1.25,0.25,0.75,1.5,0.39,0.52,2.08,249.2,-10.0,30.4
3.92,6.25,2.0,10.5,16.0,12.5,6.0,3.25,3.0,1.25,2.0,2.25,1.0,1.0,-0.11,0.14,1.27,1280.19,11.1,40.1,7.25,1.5,2.0,2.5,2.25,2.75,0.0,1.5,1.75,1.25,0.75,0.75,1.5,0.39,-0.05,1.33,313.15,-10.9,30.9
3.94,7.25,2.5,11.5,14.0,12.0,4.0,0.75,2.25,0.75,2.0,0.75,0.75,0.5,-0.11,0.2,1.2,1229.41,13.1,47.8,8.0,1.5,2.5,3.5,1.75,2.75,0.0,1.75,1.75,1.25,0.5,0.5,1.75,0.02,-0.11,0.77,380.61,-12.1,34.0
3.96,7.25,2.0,10.5,12.0,9.5,3.5,0.0,1.0,0.25,1.25,0.75,0.5,0.5,-0.17,0.27,1.2,1089.13,14.8,52.1,7.75,0.25,4.75,2.5,1.75,1.25,0.0,1.75,1.25,0.0,0.0,0.0,0.25,0.08,0.14,0.83,393.45,-20.3,55.4
3.98,7.5,2.25,11.5,10.0,9.5,3.5,0.0,2.5,1.0,1.75,1.75,0.5,1.0,-0.11,0.27,1.27,987.73,13.7,43.7,8.25,0.75,4.75,3.5,1.75,2.5,0.0,2.0,1.75,1.25,0.0,0.75,0.75,0.2,0.08,0.89,415.92,-15.5,40.2
4.0,7.75,2.25,9.75,7.25,8.0,1.5,0.0,0.5,0.25,1.5,0.75,0.25,0.25,-0.11,0.33,1.58,820.14,17.2,55.1,9.5,0.75,6.5,4.5,1.75,1.25,0.0,1.5,1.25,0.0,1.0,0.0,1.25,0.02,0.27,0.95,434.38,-20.7,49.7
4.02,7.0,2.0,9.0,6.5,6.0,1.5,0.0,1.25,0.25,1.5,0.0,0.25,0.0,-0.11,0.52,1.52,672.24,17.4,55.8,9.5,0.75,6.5,5.0,0.0,2.0,0.0,1.0,1.25,0.0,0.75,0.0,1.5,-0.67,1.2,0.7,450.61,-21.7,50.4
4.04,6.5,1.75,8.0,4.75,6.0,1.5,0.0,0.75,0.5,3.0,0.25,1.0,0.25,-0.23,0.58,1.45,544.52,15.2,44.1,9.5,1.5,7.5,6.75,0.5,2.75,1.25,1.25,1.75,1.0,0.0,0.5,1.0,-1.86,2.02,0.95,501.25,-19.7,48.6
4.06,6.0,2.0,6.5,5.0,5.0,1.5,0.0,0.5,0.75,1.0,0.5,0.5,0.75,-0.42,0.64,1.58,442.85,16.2,49.4,9.5,1.75,7.5,6.5,0.0,2.75,3.75,2.0,2.5,1.25,0.75,0.5,1.25,-1.17,0.83,0.39,552.89,-18.9,40.5
4.08,5.5,0.5,6.0,2.25,6.0,0.75,0.5,0.25,0.5,0.75,0.0,0.0,0.25,-0.55,0.77,1.58,345.76,17.5,56.8,10.5,2.5,6.75,6.75,1.75,5.0,5.0,1.75,3.0,1.25,1.5,0.75,0.75,2.08,-2.67,1.33,644.26,-16.3,41.1
4.1,2.25,0.0,3.0,2.25,2.25,0.0,0.0,0.5,0.0,0.75,0.0,0.0,0.25,-0.23,1.02,1.64,238.05,17.1,48.5,10.5,3.0,7.5,9.25,3.25,5.0,6.25,1.75,2.5,1.0,1.5,0.5,0.75,0.08,0.2,1.08,744.14,-16.4,45.3
4.12,0.5,0.0,2.75,1.5,2.25,1.0,0.0,0.5,0.0,0.75,0.0,0.0,0.0,-0.05,0.95,1.08,137.94,10.4,41.8,11.5,3.0,8.5,12.0,6.5,6.0,7.0,1.75,1.25,1.25,1.25,0.5,0.75,0.02,0.2,1.02,891.27,-15.2,49.0
4.14,0.25,0.0,1.75,0.0,2.25,0.25,0.0,0.5,0.25,1.0,0.0,0.0,0.25,-0.17,2.2,0.58,40.09,5.6,21.4,12.5,3.75,9.75,13.5,8.25,5.75,6.5,0.25,1.0,1.25,0.75,0.5,1.0,0.02,0.27,1.45,1044.75,-16.2,53.9
4.16,0.25,0.0,1.5,0.0,2.25,0.25,0.0,0.5,0.25,0.5,0.0,0.0,0.0,-0.23,1.64,1.95,0.0,6.8,33.7,12.5,3.25,11.5,13.5,8.5,5.0,4.75,0.0,0.75,1.0,0.75,0.5,0.75,0.14,0.27,1.89,1166.2,-17.4,56.2
4.18,0.25,0.0,1.5,0.0,2.25,0.25,0.0,0.5,0.25,0.5,0.0,0.0,0.0,0.14,1.27,1.83,0.0,6.8,33.7,13.5,2.5,11.5,10.5,6.5,2.75,3.0,0.0,0.5,0.5,0.75,0.5,0.0,0.7,0.64,2.77,1153.53,-21.0,62.0
4.2,0.25,0.25,1.5,0.0,1.25,0.25,0.0,0.5,0.25,0.5,0.0,0.0,0.0,0.2,1.14,1.39,0.0,9.4,32.4,11.0,2.5,10.5,8.25,0.0,2.75,4.25,0.0,0.0,0.25,0.5,0.5,0.25,0.27,2.83,3.89,992.48,-25.0,63.1
4.22,0.25,0.25,1.5,0.0,1.75,0.25,0.0,1.0,0.25,0.5,0.0,0.0,0.25,0.02,1.2,1.02,0.0,5.2,22.9,8.0,1.5,7.5,5.0,0.0,2.75,2.5,0.0,0.5,0.75,0.5,0.5,0.25,-2.73,2.33,0.2,744.57,-22.8,56.0
4.24,0.25,0.25,0.75,0.0,2.25,0.0,0.0,0.5,0.25,0.5,0.0,0.0,0.0,-0.05,0.89,0.45,0.0,3.7,32.8,4.5,1.25,5.0,2.5,1.25,0.0,1.0,0.0,0.25,0.0,0.0,0.25,0.5,0.77,0.7,3.64,479.86,-25.5,61.8
4.26,0.5,0.25,0.0,1.0,2.25,1.5,0.0,0.5,0.5,2.75,0.0,0.75,0.0,-0.05,0.58,0.2,30.96,-4.1,-0.8,3.0,1.0,2.5,2.5,1.75,2.75,0.5,0.5,0.5,1.0,0.75,0.5,0.5,-1.36,2.33,-4.55,319.45,-10.4,34.5
4.28,0.75,1.0,1.75,0.5,3.0,1.5,0.0,1.0,0.5,3.0,1.25,0.75,1.0,0.02,0.08,0.27,100.28,1.1,-1.5,0.5,0.0,2.25,1.25,0.5,0.5,0.0,0.0,0.0,0.0,0.0,0.0,0.0,0.2,2.02,1.27,177.88,-22.3,60.2
4.3,0.25,0.25,1.75,0.0,3.0,0.0,0.75,1.25,0.25,0.5,1.25,0.25,0.5,0.08,-0.23,0.7,135.92,6.2,8.2,2.0,0.75,2.0,2.5,1.75,2.75,0.25,0.25,0.5,1.25,0.75,0.5,0.5,-0.48,0.58,0.58,121.77,-7.8,28.3
4.32,0.25,0.25,1.0,0.0,2.25,0.0,0.0,0.5,0.0,0.5,0.5,0.0,0.0,0.14,-0.8,0.83,139.58,5.5,27.9,1.75,1.0,2.0,1.25,1.75,0.25,0.25,0.25,0.0,0.0,0.75,0.0,0.75,-0.61,0.02,0.02,56.55,-15.3,42.6
4.34,0.5,0.25,1.0,0.0,2.25,0.0,0.0,0.5,0.25,0.5,0.0,0.0,0.0,-0.05,-1.36,0.83,127.48,6.6,36.8,0.75,0.0,0.0,1.0,0.0,0.5,0.0,0.0,0.0,0.0,0.0,0.0,0.0,-0.05,0.52,0.58,0.0,-14.2,65.4
4.36,1.25,0.25,2.25,0.5,3.0,0.0,1.0,1.25,0.25,2.0,1.0,1.0,1.0,-0.23,-1.92,0.83,150.41,6.9,0.3,0.75,0.0,0.0,1.0,0.0,0.5,0.0,0.0,0.0,0.0,0.0,0.0,0.0,0.27,0.33,0.7,0.0,-14.2,65.4
4.38,1.0,0.5,3.0,1.75,3.0,1.0,0.0,1.0,0.25,2.25,0.75,0.75,1.0,-0.3,-2.98,0.64,187.4,6.3,11.1,1.0,0.0,0.0,1.0,0.0,0.5,0.0,0.0,0.0,0.0,0.25,0.0,0.0,0.58,-0.67,0.83,0.0,-15.7,55.6
4.4,0.25,0.25,3.0,0.25,2.5,0.0,0.0,0.5,0.25,0.5,0.0,0.25,0.25,-0.3,-2.92,0.45,191.42,12.9,33.5,0.75,0.0,0.0,0.5,0.0,0.25,0.0,0.0,0.0,0.0,0.0,0.0,0.0,0.7,-1.73,0.14,0.0,-19.2,73.2
4.42,0.75,0.0,2.25,1.5,2.5,1.5,1.25,1.5,0.25,2.75,0.75,1.0,1.0,0.2,-0.8,-2.86,216.35,3.2,-1.9,0.5,0.0,0.0,0.5,0.0,0.5,0.0,0.0,0.0,0.0,0.0,0.0,0.0,0.89,-2.8,-1.42,0.0,-9.9,62.9
4.44,0.25,0.0,3.0,1.25,3.0,1.5,1.0,1.5,0.5,2.75,1.25,0.75,1.0,-0.98,3.2,-6.48,230.52,3.6,-2.0,0.5,0.0,0.0,0.5,0.0,0.5,0.0,0.0,0.0,0.0,0.0,0.0,0.0,0.77,-2.73,-1.23,0.0,-9.9,62.9
4.46,1.0,0.5,3.0,1.75,4.75,1.5,0.75,0.75,0.5,1.5,1.25,0.25,1.0,-1.67,0.39,-3.55,252.92,6.4,20.9,0.5,0.0,0.0,0.5,0.0,0.5,0.0,0.0,0.0,0.0,0.0,0.0,0.0,0.08,-1.86,-0.48,0.0,-9.9,62.9
4.48,0.25,0.25,1.75,2.0,2.25,1.5,0.25,0.25,0.25,0.5,0.0,0.0,0.0,-0.86,-0.86,-1.8,230.62,7.3,43.4,0.25,0.0,0.0,0.25,0.0,0.25,0.0,0.0,0.0,0.0,0.0,0.0,0.0,-0.3,-1.36,-0.11,0.0,-9.9,62.9
4.5,1.0,0.25,2.0,1.75,2.25,1.5,0.25,0.75,0.25,0.5,0.75,0.75,0.25,0.39,-2.3,0.58,218.69,8.2,23.9,0.25,0.0,0.0,0.5,0.0,0.5,0.0,0.0,0.0,0.0,0.0,0.0,0.0,-0.23,-1.11,-0.23,0.0,-5.1,56.3
4.52,0.0,0.25,3.0,1.0,1.75,0.0,1.0,0.75,0.25,0.5,0.0,0.0,0.0,2.58,-2.17,-0.61,181.29,15.5,38.0,0.5,0.0,0.0,0.5,0.0,0.25,0.0,0.0,0.0,0.0,0.0,0.0,0.0,-0.05,-1.11,-0.61,0.0,-16.2,68.5
4.54,0.5,0.25,1.75,0.0,2.25,0.0,0.5,0.5,0.25,2.0,0.0,0.0,0.0,2.77,0.14,-1.36,159.55,6.2,18.1,0.5,0.0,0.0,0.0,0.0,0.25,0.0,0.0,0.0,0.0,0.0,0.0,0.0,0.2,0.58,-0.67,0.0,-15.5,76.4
4.56,0.75,0.5,3.0,2.0,3.5,0.0,1.25,0.5,0.25,0.75,0.75,0.5,1.0,1.89,0.33,-0.67,169.81,11.6,23.9,1.5,0.75,1.0,2.0,1.5,2.25,0.25,0.75,0.5,1.0,0.5,0.5,0.25,-0.17,1.33,-1.05,71.95,-5.2,25.3
4.58,0.5,0.25,3.0,2.0,3.0,1.25,0.5,0.25,0.5,1.5,0.0,0.25,1.0,0.58,-0.17,-0.48,183.83,7.6,23.1,1.5,0.75,1.0,2.0,1.75,2.5,0.25,0.25,0.5,1.25,0.75,0.5,0.5,-0.55,2.27,-1.3,139.72,-4.7,22.2
4.6,0.75,0.5,3.0,2.0,3.5,1.5,1.25,0.5,0.25,1.5,0.75,0.0,1.0,0.27,0.08,-0.48,205.99,7.5,24.3,0.0,0.0,1.25,0.0,1.75,0.5,0.25,0.25,0.0,0.0,0.75,0.0,0.5,-1.17,2.64,-1.05,152.75,-5.9,15.7
4.62,0.0,0.0,1.75,1.75,2.25,1.5,0.25,0.5,0.5,1.75,0.0,0.75,0.0,0.08,0.39,-0.61,200.03,3.5,13.7,0.0,0.0,0.0,0.0,0.0,0.5,0.0,0.0,0.0,0.0,0.0,0.0,0.0,-1.73,2.7,-0.61,119.25,22.9,34.0
4.64,0.0,0.25,3.0,2.0,3.5,1.5,0.75,0.5,0.5,1.75,0.75,0.75,0.0,-0.17,1.27,-0.86,212.98,6.9,19.5,0.0,0.0,0.0,0.0,0.0,0.5,0.0,0.0,0.0,0.0,0.0,0.0,0.0,-1.8,2.64,1.02,75.01,22.9,34.0
4.66,0.25,0.25,2.75,2.0,3.5,1.5,0.5,0.5,0.5,2.0,1.25,1.0,1.0,-0.8,1.95,-1.11,215.97,5.2,6.3,0.5,0.0,0.0,0.25,0.0,0.25,0.0,0.0,0.0,0.0,0.0,0.0,0.0,-1.92,2.27,1.14,36.49,-16.0,71.4
4.68,0.5,0.0,2.75,2.0,3.0,1.5,0.5,0.75,0.5,2.0,1.0,0.75,1.25,-0.86,1.83,-1.05,229.81,5.1,5.0,0.0,0.0,0.0,0.0,0.0,0.5,0.0,0.0,0.0,0.0,0.0,0.0,0.25,-1.3,1.64,0.89,15.56,19.6,-16.7
4.7,0.5,0.25,3.0,2.0,2.5,1.5,0.5,0.75,0.5,2.0,0.75,0.75,1.0,-0.92,1.64,-0.92,238.17,6.2,8.7,0.0,0.0,0.0,0.0,0.0,0.25,0.0,0.0,0.0,0.0,0.0,0.0,0.0,-0.73,1.39,0.58,8.22,22.9,34.0
4.72,0.25,0.0,3.0,2.0,2.5,1.25,0.5,0.5,0.5,2.25,1.0,0.75,1.0,-0.92,1.52,-0.92,243.49,6.2,3.6,0.0,0.0,0.0,0.0,0.0,0.0,0.0,0.0,0.0,0.0,0.0,0.0,0.0,-0.23,1.08,0.52,0.54,0.0,0.0
4.74,0.0,0.0,3.0,0.0,2.25,0.0,0.5,0.5,0.25,2.25,0.5,0.75,1.0,-0.67,0.64,-0.73,218.65,6.6,-8.5,0.0,0.0,0.0,0.0,0.0,0.25,0.0,0.0,0.0,0.0,0.0,0.0,0.0,0.08,0.83,0.39,0.0,22.9,34.0
4.76,0.25,0.25,1.75,0.25,2.25,0.0,0.0,0.5,0.25,0.5,0.0,0.5,0.0,-0.36,0.2,-0.86,178.56,9.7,27.7,0.0,0.0,0.0,0.0,0.0,0.0,0.0,0.0,0.0,0.0,0.0,0.0,0.0,0.14,0.52,0.27,0.0,0.0,0.0
4.78,0.25,0.5,2.75,2.25,3.0,1.5,0.5,0.5,0.5,2.0,0.75,0.75,1.0,-0.05,-0.05,-0.86,182.68,5.6,11.1,0.0,0.0,0.0,0.0,0.0,0.0,0.0,0.0,0.0,0.0,0.0,0.0,0.0,0.08,0.27,0.14,0.0,0.0,0.0
4.8,0.75,0.5,1.25,2.0,2.5,1.5,0.75,0.5,0.5,1.25,1.0,0.0,1.0,-0.05,-0.17,-0.98,179.72,4.4,15.7,0.25,0.0,0.0,0.0,0.0,0.25,0.0,0.0,0.0,0.0,0.0,0.0,0.0,0.02,0.02,0.14,0.0,-5.8,65.8
4.82,0.0,0.25,1.0,0.0,2.25,0.25,0.0,0.0,0.0,0.5,0.0,0.0,0.25,-0.11,-0.23,-1.17,152.43,3.5,34.7,0.0,0.0,0.0,0.0,0.0,0.0,0.0,0.0,0.0,0.0,0.0,0.0,0.0,0.02,-0.17,0.08,0.0,0.0,0.0
4.84,0.25,0.0,1.25,0.25,2.25,0.25,0.0,0.0,0.25,0.5,0.0,0.0,0.0,0.02,-0.23,-0.92,118.87,8.0,40.3,0.0,0.0,0.0,0.0,0.0,0.0,0.0,0.0,0.0,0.0,0.0,0.0,0.0,0.02,-0.3,-0.11,0.0,0.0,0.0
4.86,0.5,0.25,1.5,2.0,2.25,1.5,0.0,0.0,0.25,1.75,0.0,0.75,0.0,0.08,-0.3,-0.61,118.33,5.0,22.5,0.0,0.0,0.0,0.0,0.0,0.0,0.0,0.0,0.0,0.0,0.0,0.0,0.0,0.02,-0.36,-0.17,0.0,0.0,0.0
4.88,0.75,0.25,3.0,2.0,2.5,1.5,0.5,0.5,0.5,1.25,0.75,0.75,1.5,0.02,-0.36,-0.48,144.37,7.4,10.9,0.0,0.0,0.0,0.0,0.0,0.5,0.0,0.0,0.0,0.0,0.0,0.0,0.0,-0.11,-0.42,-0.11,1.53,22.9,34.0
4.9,0.25,0.75,2.75,2.25,2.5,1.5,0.75,0.5,0.5,1.25,1.0,0.75,1.0,0.02,-0.3,-0.36,180.89,7.4,13.9,0.0,0.0,0.0,0.0,0.0,0.0,0.0,0.0,0.0,0.0,0.0,0.0,0.0,-0.3,-0.48,-0.11,0.76,0.0,0.0
4.92,0.5,0.25,2.75,1.75,2.5,1.5,0.5,0.5,0.5,1.75,1.0,0.75,1.0,0.08,-0.11,-0.3,210.98,6.3,7.8,0.0,0.0,0.0,0.0,0.0,0.25,0.0,0.0,0.0,0.0,0.0,0.0,0.0,-0.36,-0.61,-0.36,2.84,22.9,34.0
4.94,0.25,0.5,3.0,1.75,2.5,1.0,0.5,0.5,0.5,1.75,1.25,0.75,1.0,-0.05,0.08,-0.36,224.4,7.5,6.7,0.0,0.0,0.0,0.0,0.0,0.0,0.0,0.0,0.0,0.0,0.0,0.0,0.0,-0.42,-0.48,-0.48,2.13,0.0,0.0
4.96,0.25,0.0,3.0,2.0,2.25,0.25,0.75,0.5,0.5,1.5,1.0,0.75,1.0,-0.05,0.2,-0.48,221.92,9.9,5.0,0.5,0.0,0.0,0.0,0.0,0.25,0.0,0.0,0.0,0.0,0.0,0.0,0.0,-0.67,-0.36,-0.61,5.96,-15.5,76.4
4.98,0.5,0.0,1.25,2.0,2.25,1.5,1.25,0.0,0.25,1.75,0.0,0.75,0.0,0.02,0.33,-0.55,208.61,5.5,20.1,0.0,0.0,0.0,0.0,0.0,0.25,0.0,0.0,0.0,0.0,0.0,0.0,0.0,-0.73,-0.17,-0.8,5.72,22.9,34.0
5.0,0.25,0.25,1.5,0.0,2.25,0.0,1.25,0.5,0.0,0.5,0.0,0.0,0.0,0.08,0.39,-0.61,171.65,10.4,38.6,0.0,0.0,0.0,0.0,0.0,0.25,0.0,0.0,0.0,0.0,0.0,0.0,0.0,-0.92,0.2,-0.92,6.57,22.9,34.0
5.02,0.5,0.25,1.25,2.0,2.25,1.5,0.0,0.5,0.5,1.5,0.0,0.75,0.0,-0.17,0.83,-1.48,158.47,3.9,19.7,1.25,0.75,0.0,2.0,0.0,2.25,0.0,0.0,0.5,1.0,0.0,0.5,0.0,-1.05,0.27,-1.17,51.4,-4.0,28.8
5.04,0.0,0.0,1.5,0.25,2.25,0.0,0.0,0.0,0.0,0.5,0.0,0.0,0.0,-0.55,1.58,-1.92,127.8,9.6,42.9,1.25,0.75,0.75,1.25,1.75,2.0,0.25,0.0,0.5,0.75,0.5,0.5,0.0,-1.05,0.45,-1.23,102.95,-5.8,31.4
5.06,0.0,0.0,1.0,0.0,2.25,0.0,1.0,0.5,0.25,0.5,1.0,0.75,1.0,-0.67,1.39,-1.8,121.5,4.4,-14.7,1.0,0.75,1.0,2.0,1.5,2.0,0.25,0.25,0.5,0.75,0.75,0.5,0.25,-1.05,0.7,-1.05,153.56,-6.1,25.0
5.08,0.25,0.25,3.0,1.5,3.0,1.0,0.75,0.5,0.5,2.0,1.0,0.75,1.0,-0.8,0.89,-1.48,143.41,6.6,6.2,1.0,0.0,1.0,0.75,1.5,0.25,0.0,0.25,0.0,0.0,0.25,0.0,0.5,-1.11,0.77,-0.8,156.64,-11.4,37.7
5.1,0.25,0.25,3.0,1.75,2.5,0.0,0.75,0.5,0.5,2.0,1.0,0.75,1.0,-0.73,0.7,-1.11,166.72,9.1,3.4,0.0,0.0,0.0,0.0,0.0,0.0,0.0,0.0,0.0,0.0,0.0,0.0,0.0,-0.98,1.02,-0.55,119.01,0.0,0.0
5.12,0.25,0.75,3.0,2.0,3.0,1.5,0.75,0.5,0.25,2.0,1.0,0.75,1.0,-0.23,0.45,-0.55,199.87,6.2,12.1,0.25,0.0,0.0,0.0,0.0,0.0,0.0,0.0,0.0,0.0,0.0,0.0,0.0,-0.8,1.14,-0.36,70.34,-34.9,97.9
5.14,0.0,0.25,3.0,2.0,3.0,1.5,0.75,0.5,0.25,2.0,1.0,0.75,0.75,0.2,-0.05,-0.36,219.77,5.9,10.0,0.0,0.0,0.0,0.0,0.0,0.0,0.0,0.0,0.0,0.0,0.0,0.0,0.0,-0.8,1.14,-0.23,29.93,0.0,0.0
5.16,0.5,0.0,3.0,2.25,3.0,1.5,0.75,0.5,0.25,2.0,0.75,0.75,1.0,0.33,-0.23,-0.48,235.38,6.4,11.2,0.0,0.0,0.0,0.0,0.0,0.0,0.0,0.0,0.0,0.0,0.0,0.0,0.0,-0.8,1.08,-0.17,7.79,0.0,0.0
5.18,0.25,0.25,3.0,1.75,3.0,1.0,0.75,0.5,0.25,2.0,1.0,0.75,1.0,0.45,-0.3,-0.67,236.5,6.7,7.8,1.0,0.5,0.0,2.0,0.0,1.75,0.0,0.0,0.5,0.75,0.5,0.5,0.25,-0.86,1.08,-0.11,41.09,-4.9,16.2
5.2,0.25,0.25,3.0,2.0,2.5,0.5,0.75,0.5,0.5,2.0,0.75,0.75,1.0,0.39,-0.17,-0.67,236.97,8.2,6.6,1.25,0.75,1.0,1.75,1.25,2.0,0.25,0.0,0.25,0.5,0.25,0.5,0.25,-0.92,1.02,-0.17,89.2,-7.6,35.6
5.22,0.25,0.25,3.0,1.75,2.5,1.0,0.75,0.5,0.25,2.0,1.0,0.75,1.0,0.39,-0.17,-0.55,235.54,7.1,6.0,1.0,0.75,1.0,1.75,1.75,2.0,0.25,0.0,0.5,1.25,0.25,0.5,0.5,-1.05,1.02,-0.3,136.76,-4.6,23.2
5.24,0.0,0.5,3.0,2.25,2.5,1.5,0.75,0.5,0.25,2.0,1.0,0.75,1.0,0.33,-0.11,-0.55,237.6,6.2,8.7,1.25,0.75,0.75,2.0,1.75,1.75,0.25,0.25,0.5,0.5,0.75,0.5,0.25,-1.05,0.95,-0.36,163.43,-6.9,28.5
5.26,0.0,0.25,3.0,1.75,2.25,1.0,0.75,0.5,0.5,0.25,1.0,0.75,1.0,0.02,0.39,-0.92,224.63,10.0,13.4,1.25,0.75,1.0,2.0,1.5,1.5,0.25,0.0,0.5,0.75,0.5,0.5,0.5,-1.05,0.89,-0.36,175.33,-8.0,26.7
5.28,0.25,0.0,3.0,1.75,2.5,1.0,0.75,0.5,0.25,2.0,0.75,0.75,1.0,-0.36,1.2,-1.55,221.45,6.9,5.7,1.0,0.75,1.0,1.75,1.75,1.75,0.25,0.0,0.5,1.0,0.75,0.5,0.5,-1.05,0.83,-0.3,183.55,-5.8,21.0
5.3,0.25,0.25,3.0,2.0,2.5,0.25,0.75,0.5,0.25,2.0,0.75,0.75,1.0,-0.36,1.27,-1.48,210.79,8.7,7.0,1.25,0.75,1.0,2.0,1.5,2.0,0.0,0.0,0.5,0.5,0.25,0.5,0.25,-0.98,0.83,-0.23,188.03,-7.3,35.0
5.32,0.0,0.5,3.0,2.0,2.5,1.25,0.75,0.5,0.25,2.0,1.0,0.75,1.0,-0.17,1.02,-0.98,209.95,6.5,7.5,1.25,0.75,1.0,1.75,1.75,1.75,0.25,0.25,0.25,1.0,0.5,0.5,0.75,-0.98,0.77,-0.17,198.59,-5.3,21.6
5.34,0.25,0.25,2.75,2.0,2.5,1.25,0.75,0.5,0.25,2.0,1.0,0.75,1.0,-0.05,0.64,-0.8,212.52,6.3,6.4,0.0,0.0,0.75,0.0,1.75,0.0,0.25,0.25,0.0,0.0,0.5,0.0,0.5,-0.92,0.7,-0.17,167.32,-4.9,13.4
5.36,0.25,0.25,3.0,1.5,2.5,1.0,0.75,0.5,0.25,2.0,1.0,0.75,1.0,-0.05,0.45,-0.67,213.34,6.9,5.1,0.75,0.75,0.0,2.0,0.0,2.0,0.5,0.25,0.25,1.0,0.25,0.5,0.5,-0.86,0.64,-0.17,152.1,-2.1,13.3
5.38,0.25,0.25,3.0,1.25,2.25,1.25,0.75,0.5,0.25,2.0,0.75,0.75,1.0,-0.05,0.33,-0.73,210.91,6.4,5.0,1.25,0.75,1.0,2.0,1.5,2.0,0.25,0.0,0.25,1.0,0.75,0.5,0.5,-0.8,0.58,-0.17,151.73,-6.2,24.1
5.4,0.25,0.25,3.0,1.75,2.5,1.25,0.75,0.5,0.25,2.0,1.0,0.75,1.0,-0.11,0.27,-0.73,212.13,6.6,6.5,1.0,0.75,0.75,2.0,1.75,1.75,0.25,0.0,0.25,0.75,0.75,0.5,0.5,-0.73,0.52,-0.23,159.38,-5.7,24.5
5.42,0.25,0.25,3.0,2.0,2.5,0.5,0.75,0.5,0.25,1.25,0.75,0.75,1.0,-0.05,0.39,-0.86,208.85,9.5,11.9,1.0,0.75,1.0,1.75,3.0,1.5,0.25,0.0,0.25,1.0,0.5,0.5,0.75,-0.8,0.52,-0.23,169.89,-4.7,24.9
5.44,0.25,0.5,3.0,2.0,2.5,1.5,0.75,0.5,0.25,2.0,1.0,0.75,1.0,-0.11,0.45,-0.98,215.97,6.5,9.2,1.25,0.75,1.0,2.0,1.75,1.75,0.25,0.0,0.25,1.0,0.25,0.5,0.0,-0.8,0.52,-0.3,174.69,-7.3,35.4
5.46,0.25,0.5,3.0,2.0,3.0,1.5,0.75,0.5,0.25,2.0,0.75,0.75,1.0,-0.05,0.58,-0.92,222.99,6.1,12.0,1.0,0.75,0.75,1.5,1.75,1.75,0.25,0.0,0.25,0.5,0.75,0.5,0.5,-0.8,0.45,-0.36,171.92,-5.6,25.2
5.48,0.25,0.5,3.0,1.5,3.0,0.5,0.75,0.5,0.25,2.0,0.75,0.75,1.0,0.08,0.58,-0.92,224.49,7.5,9.0,1.25,0.75,1.0,1.5,1.5,1.75,0.25,0.0,0.25,1.0,0.75,0.5,0.5,-0.73,0.45,-0.36,168.1,-6.3,22.3
5.5,0.5,0.25,3.0,2.0,2.5,1.0,0.75,0.5,0.5,2.0,0.75,0.75,1.0,0.08,0.52,-0.92,226.27,7.7,8.8,1.25,0.75,0.75,1.75,1.75,2.0,0.25,0.0,0.25,1.0,0.75,0.5,0.5,-0.73,0.52,-0.36,171.12,-5.0,23.2
5.52,0.25,0.25,3.0,2.0,3.0,1.5,0.75,0.5,0.25,2.25,1.0,0.75,1.0,0.08,0.45,-0.92,228.96,5.7,8.1,0.75,0.75,0.75,1.5,1.5,1.75,0.25,0.0,0.25,0.5,0.0,0.5,0.0,-0.73,0.52,-0.36,161.54,-5.9,38.9
5.54,0.25,0.25,3.0,2.0,2.25,0.25,0.5,0.5,0.25,1.25,0.75,0.75,1.0,0.02,0.39,-0.92,218.67,10.1,10.4,1.0,0.75,0.75,1.75,1.5,2.0,0.25,0.0,0.25,1.0,0.25,0.5,0.75,-0.8,0.52,-0.36,163.13,-3.9,22.0
5.56,0.25,0.25,2.75,2.0,2.5,1.5,0.75,0.5,0.25,2.0,0.75,0.75,1.0,0.02,0.33,-0.86,217.1,5.8,8.1,1.25,0.75,0.75,2.0,1.5,2.0,0.25,0.25,0.25,1.0,0.75,0.5,0.5,-0.86,0.58,-0.3,168.03,-5.0,21.9
5.58,0.25,0.25,3.0,2.0,3.0,1.5,0.5,0.5,0.25,2.0,0.75,0.75,1.0,0.02,0.39,-0.92,219.4,5.8,10.5,1.25,0.75,0.75,2.0,1.75,2.0,0.25,0.25,0.25,1.0,0.75,0.5,0.5,-0.92,0.58,-0.3,178.15,-4.8,22.7
5.6,0.25,0.25,3.0,1.5,2.5,1.0,0.5,0.5,0.25,2.25,0.75,0.75,1.0,0.08,0.39,-0.92,218.65,6.3,4.9,1.25,0.75,0.75,2.0,1.75,1.75,0.25,0.0,0.25,1.25,0.25,0.5,0.75,-0.92,0.58,-0.3,176.92,-4.7,22.8
5.62,0.25,0.25,3.0,2.0,2.5,1.0,0.5,0.5,0.25,2.0,0.75,0.75,1.0,0.08,0.45,-0.86,217.35,7.0,8.1,1.25,0.75,1.0,2.0,1.5,1.75,0.25,0.0,0.25,1.0,0.75,0.5,0.0,-0.92,0.58,-0.23,175.69,-7.7,30.1
5.64,0.25,0.25,3.0,2.0,3.0,1.5,0.75,0.5,0.25,2.5,0.75,0.75,1.0,0.08,0.45,-0.86,222.91,5.3,8.0,1.25,0.75,0.75,1.75,1.5,1.75,0.25,0.0,0.25,1.0,0.5,0.5,0.75,-0.92,0.52,-0.11,173.31,-5.2,21.3
5.66,0.25,0.25,3.0,2.0,2.5,0.75,0.75,0.5,0.0,1.25,0.75,0.75,1.0,0.08,0.45,-0.8,217.38,8.9,13.1,1.0,0.75,1.0,1.75,1.75,1.75,0.5,0.0,0.25,0.5,0.25,0.5,0.5,-0.92,0.52,-0.11,168.21,-6.8,31.6
5.68,0.25,0.0,3.0,1.75,3.0,1.5,0.75,0.5,0.25,2.0,1.0,0.75,1.0,0.08,0.45,-0.86,218.62,5.7,7.1,1.25,0.75,1.0,2.0,1.75,1.25,0.25,0.0,0.25,0.5,0.25,0.5,0.0,-0.98,0.52,-0.11,164.19,-9.9,41.1
5.7,0.25,0.25,3.0,1.5,2.5,0.25,0.5,0.5,0.25,1.5,1.0,0.75,1.0,0.02,0.45,-0.92,210.18,9.1,6.4,1.25,0.75,0.75,1.75,1.5,1.75,0.25,0.0,0.25,0.75,0.25,0.5,0.75,-1.05,0.64,-0.17,162.3,-5.6,25.8
5.72,0.5,0.25,3.0,1.75,3.0,1.0,0.75,0.5,0.25,2.0,0.75,0.75,1.0,-0.05,0.39,-0.92,214.79,7.1,10.4,1.25,0.75,1.0,1.75,1.75,1.75,0.25,0.0,0.25,1.0,0.75,0.5,0.25,-1.11,0.7,-0.36,164.71,-6.7,26.9
5.74,0.25,0.25,3.0,1.75,3.0,0.5,0.5,0.5,0.25,2.0,1.0,0.75,1.0,-0.05,0.39,-0.92,212.67,7.4,6.8,1.25,0.75,1.0,2.0,1.5,1.5,0.25,0.25,0.25,0.75,0.5,0.5,0.0,-1.17,0.77,-0.3,165.4,-8.3,33.3
5.76,0.25,1.0,3.0,2.0,3.0,1.75,0.75,0.5,0.25,2.0,0.75,0.75,1.0,0.02,0.39,-0.92,225.71,5.9,14.9,1.25,0.75,1.0,2.0,1.75,1.5,0.5,0.0,0.25,0.75,0.25,0.5,0.75,-1.17,0.77,-0.23,169.39,-7.3,27.9
5.78,0.25,0.25,2.75,1.75,3.0,1.5,0.5,0.5,0.0,2.25,1.0,0.75,1.0,0.08,0.45,-0.92,228.64,4.7,6.9,1.0,0.75,0.75,1.75,1.75,1.75,0.25,0.0,0.25,0.75,0.75,0.5,0.5,-1.05,0.7,-0.23,166.97,-5.4,23.7
5.8,0.25,0.25,2.75,2.5,3.0,1.25,0.75,0.5,0.25,1.75,1.0,0.75,1.0,0.08,0.45,-0.92,231.86,6.6,11.0,1.25,0.75,0.75,1.75,1.75,1.25,0.25,0.0,0.25,1.0,0.75,0.5,0.5,-0.98,0.64,-0.11,166.17,-6.8,22.5
5.82,0.25,0.25,2.75,2.0,3.0,0.75,0.5,0.5,0.25,2.0,1.0,0.75,1.0,0.08,0.45,-0.92,227.81,6.6,7.2,1.25,0.75,0.75,2.0,1.5,1.75,0.25,0.25,0.25,1.0,0.5,0.5,0.25,-0.98,0.58,-0.11,166.48,-5.9,26.9
5.84,0.25,0.75,2.75,2.0,3.0,1.75,0.5,0.5,0.25,1.5,1.0,0.75,1.0,0.02,0.45,-0.92,230.42,5.8,14.2,1.0,0.75,1.0,1.5,1.75,1.5,0.25,0.0,0.25,0.75,1.25,0.5,0.5,-0.92,0.58,-0.17,167.84,-6.7,19.2
5.86,0.25,0.25,3.0,2.0,3.0,1.5,0.5,0.5,0.25,1.25,0.75,0.75,1.0,-0.05,0.52,-0.92,226.73,6.8,14.7,1.25,0.75,1.0,1.5,1.75,1.75,0.25,0.0,0.0,0.75,0.75,0.5,0.25,-0.86,0.58,-0.17,167.16,-6.9,30.1
5.88,0.25,0.0,3.0,2.25,3.5,1.5,0.5,0.5,0.25,2.0,0.75,0.75,1.0,-0.11,0.52,-0.92,230.79,5.5,11.3,1.0,0.75,1.0,1.75,1.5,1.5,0.25,0.0,0.25,0.75,0.75,0.5,0.5,-0.86,0.52,-0.17,165.58,-7.1,23.5
5.9,0.25,0.0,3.0,2.0,3.0,2.25,0.5,0.5,0.25,1.25,1.0,0.75,1.0,-0.05,0.52,-0.92,232.06,5.5,12.8,0.75,0.75,1.0,1.75,1.0,1.75,0.25,0.0,0.25,1.0,0.25,0.5,0.5,-0.8,0.52,-0.23,160.13,-5.6,22.6
5.92,0.25,0.25,3.0,2.25,3.5,1.5,0.75,0.5,0.25,2.0,0.75,0.75,1.0,0.02,0.52,-0.86,236.38,5.8,12.8,1.0,0.75,0.75,2.0,1.5,1.5,0.25,0.0,0.25,0.75,0.25,0.5,0.5,-0.73,0.52,-0.36,156.99,-6.4,28.2
5.94,0.25,0.25,3.0,2.0,3.0,0.25,0.5,0.5,0.0,1.25,0.75,0.75,1.0,-0.05,0.45,-0.86,226.85,9.2,14.0,1.0,0.75,0.75,2.0,1.75,1.75,0.25,0.0,0.25,1.0,0.75,0.5,0.5,-0.73,0.52,-0.42,159.86,-5.2,22.3
5.96,0.25,0.25,3.0,1.75,2.5,1.75,0.75,0.5,0.25,2.0,0.75,1.0,1.0,-0.05,0.45,-0.92,223.94,5.7,6.7,1.25,0.75,1.0,2.0,1.5,1.25,0.25,0.0,0.25,0.5,0.5,0.5,0.25,-0.73,0.52,-0.48,159.46,-9.7,34.1
5.98,0.25,0.25,2.75,2.0,3.0,1.0,0.5,0.5,0.0,0.75,0.75,0.75,1.0,0.02,0.45,-0.86,213.38,8.0,17.4,1.5,0.75,1.0,1.5,1.75,1.5,0.25,0.0,0.0,1.0,0.5,0.5,0.5,-0.73,0.52,-0.48,162.92,-7.0,28.0
6.0,0.25,0.75,3.0,2.5,3.0,0.75,0.5,0.5,0.25,1.75,0.75,0.75,1.0,0.14,0.39,-0.92,217.0,7.9,15.1,1.25,0.75,1.0,2.0,1.75,1.5,0.5,0.0,0.25,1.0,0.25,0.5,0.25,-0.8,0.52,-0.48,165.07,-7.7,32.0
6.02,0.5,0.25,3.0,1.75,3.0,1.0,0.75,0.5,0.25,2.0,0.75,0.75,1.0,0.08,0.39,-0.92,218.68,7.1,10.4,1.25,0.75,1.0,1.75,1.75,1.5,0.25,0.0,0.25,1.0,0.25,0.5,0.0,-0.86,0.52,-0.48,165.26,-7.7,34.9
6.04,0.25,0.5,3.0,1.75,2.5,0.25,0.75,0.5,0.25,2.0,1.0,0.75,1.0,0.08,0.39,-0.92,218.05,8.6,6.3,1.25,0.75,1.0,2.0,1.75,1.75,0.25,0.0,0.0,0.75,0.0,0.5,0.5,-0.86,0.52,-0.42,165.18,-6.6,35.3
6.06,0.5,0.25,3.0,2.0,3.0,1.75,0.5,0.5,0.25,2.0,1.0,0.75,1.0,0.14,0.39,-0.98,223.65,5.8,10.8,0.0,0.5,1.0,1.75,1.5,1.5,0.25,0.25,0.0,0.5,0.5,0.5,0.0,-0.86,0.58,-0.36,153.85,-4.8,26.9
6.08,0.25,0.5,3.0,1.75,2.5,1.0,0.75,0.5,0.25,1.75,0.75,0.75,1.0,0.14,0.39,-0.92,220.39,7.5,10.3,1.25,0.75,1.0,1.25,1.75,1.5,0.25,0.0,0.25,1.0,0.5,0.25,0.5,-0.8,0.64,-0.36,153.39,-6.2,27.4
6.1,0.0,0.25,2.75,1.5,2.25,0.75,0.5,0.5,0.25,2.0,0.75,0.75,1.0,0.14,0.33,-0.92,212.23,6.3,2.1,0.75,0.75,1.0,1.25,1.75,1.75,0.25,0.0,0.0,1.0,0.25,0.5,0.25,-0.73,0.64,-0.36,149.09,-4.5,28.6
6.12,0.25,0.25,3.0,2.0,2.5,1.0,0.5,0.5,0.25,1.25,1.0,0.75,1.0,0.2,0.45,-0.92,206.83,8.3,11.0,0.75,0.75,0.75,2.0,1.75,1.5,0.25,0.0,0.0,0.75,0.5,0.5,0.5,-0.73,0.64,-0.23,152.13,-5.4,26.5
6.14,0.25,0.25,3.0,2.25,2.5,1.0,0.5,0.5,0.25,1.25,1.0,0.75,1.0,0.2,0.52,-0.92,206.75,8.4,11.8,1.25,0.75,0.75,1.75,1.0,1.75,0.25,0.0,0.0,0.75,0.25,0.5,0.5,-0.73,0.64,-0.23,150.03,-6.5,29.4
6.16,0.5,0.0,3.0,1.75,3.0,1.5,0.75,0.5,0.25,2.0,0.75,0.75,1.0,0.14,0.52,-1.05,212.77,6.1,9.7,0.75,0.75,0.75,2.0,1.5,1.25,0.25,0.0,0.0,0.75,0.25,0.5,0.5,-0.61,0.64,-0.23,148.41,-6.3,28.1
6.18,0.25,0.25,3.0,1.75,3.0,1.0,0.5,0.5,0.25,2.0,0.75,0.75,1.0,0.02,0.58,-1.05,217.75,6.4,8.9,0.5,0.75,0.75,1.75,1.5,2.0,0.25,0.0,0.0,0.75,0.75,0.5,0.5,-0.48,0.7,-0.3,147.92,-3.5,21.1
6.2,0.25,0.25,3.0,1.75,2.5,0.25,0.5,0.5,0.0,2.0,1.0,0.75,1.0,0.02,0.52,-0.98,214.3,8.3,5.2,0.75,0.75,1.0,2.0,1.75,1.25,0.25,0.0,0.0,0.75,0.25,0.5,0.5,-0.36,0.77,-0.42,149.76,-6.8,29.7
6.22,0.25,0.25,2.75,2.0,3.0,1.0,0.75,0.5,0.25,1.75,0.75,0.75,1.0,0.08,0.52,-0.92,214.46,6.7,10.4,0.5,0.75,0.75,1.5,1.75,1.75,0.25,0.0,0.0,0.75,0.5,0.5,0.5,-0.3,0.7,-0.42,149.46,-3.4,23.2
6.24,0.25,0.25,3.0,1.75,3.0,1.0,0.5,0.5,0.25,0.25,1.0,0.75,1.0,0.08,0.52,-0.86,208.11,9.3,18.2,1.0,0.75,0.75,1.5,1.75,1.25,0.25,0.0,0.0,1.0,0.25,0.5,0.0,-0.11,0.7,-0.42,147.46,-6.6,33.9
6.26,0.25,0.25,3.0,1.75,2.5,1.25,0.75,0.5,0.25,2.0,1.0,0.75,1.0,0.14,0.45,-0.92,211.49,6.6,6.5,0.75,0.75,0.75,1.25,1.75,1.25,0.25,0.0,0.0,1.0,0.5,0.5,0.5,0.08,0.7,-0.48,146.1,-4.6,20.9
6.28,0.25,0.25,3.0,1.75,2.5,1.0,0.75,0.5,0.25,2.0,0.75,0.75,1.0,0.08,0.45,-0.98,211.89,7.0,7.4,1.25,0.75,0.75,2.0,1.25,1.75,0.25,0.25,0.0,1.0,0.25,0.5,0.5,0.14,0.89,-0.55,150.68,-5.4,26.7
6.3,0.25,0.25,3.0,2.0,2.5,1.0,0.75,0.5,0.25,1.5,1.0,0.75,1.0,0.14,0.52,-1.11,213.71,8.0,9.7,1.25,0.75,0.75,1.5,1.75,1.25,0.25,0.0,0.0,0.5,0.0,0.5,0.25,0.27,1.02,-0.73,149.22,-7.9,40.6
6.32,0.25,0.25,1.25,2.0,2.5,1.5,0.75,0.5,0.25,1.5,0.75,0.75,1.0,0.33,0.52,-1.23,207.69,2.8,5.2,1.25,0.75,0.75,1.5,1.75,1.75,0.25,0.0,0.0,1.0,0.5,0.5,0.0,0.2,1.08,-0.98,151.78,-6.0,32.8
6.34,0.25,0.25,2.75,2.0,2.5,1.0,0.75,0.5,0.0,0.5,0.75,1.0,1.0,0.58,0.52,-1.17,202.79,9.1,15.3,1.0,0.75,0.75,1.25,1.75,1.5,0.25,0.0,0.0,1.0,0.25,0.5,0.75,-0.23,1.14,-0.92,151.94,-4.0,22.0
6.36,0.25,0.5,3.0,1.75,2.5,1.0,1.0,0.5,0.25,2.0,0.75,0.75,1.0,0.83,0.45,-1.17,203.92,7.3,9.1,1.0,0.75,1.0,2.0,1.75,1.75,0.25,0.0,0.25,1.25,0.25,0.5,0.25,-0.73,1.2,-0.67,159.56,-5.7,28.3
6.38,1.0,0.25,3.0,2.0,2.5,1.25,1.0,0.5,0.25,2.0,0.75,0.75,1.0,0.83,0.33,-1.23,213.01,8.2,12.6,0.5,0.75,0.75,2.0,1.75,1.75,0.25,0.0,0.0,1.0,0.25,0.5,0.0,-0.98,1.14,-0.48,158.4,-4.3,32.1
6.4,0.25,0.0,3.0,2.0,2.5,0.5,1.0,0.5,0.25,1.5,0.75,0.75,1.0,0.52,0.2,-1.3,212.86,9.2,8.8,1.0,0.75,0.75,2.0,1.75,1.25,0.25,0.0,0.0,1.0,0.25,0.5,0.5,-0.98,1.02,-0.3,160.15,-6.1,27.8
