time,left pressure 0[N/cm虏],left pressure 1[N/cm虏],left pressure 2[N/cm虏],left pressure 3[N/cm虏],left pressure 4[N/cm虏],left pressure 5[N/cm虏],left pressure 6[N/cm虏],left pressure 7[N/cm虏],left pressure 8[N/cm虏],left pressure 9[N/cm虏],left pressure 10[N/cm虏],left pressure 11[N/cm虏],left pressure 12[N/cm虏],left acceleration X[g],left acceleration Y[g],left acceleration Z[g],left total force[N],left center of pressure X[mm],left center of pressure Y[mm],right pressure 0[N/cm虏],right pressure 1[N/cm虏],right pressure 2[N/cm虏],right pressure 3[N/cm虏],right pressure 4[N/cm虏],right pressure 5[N/cm虏],right pressure 6[N/cm虏],right pressure 7[N/cm虏],right pressure 8[N/cm虏],right pressure 9[N/cm虏],right pressure 10[N/cm虏],right pressure 11[N/cm虏],right pressure 12[N/cm虏],right acceleration X[g],right acceleration Y[g],right acceleration Z[g],right total force[N],right center of pressure X[mm],right center of pressure Y[mm]
0.02,8.75,2.25,7.0,3.0,3.0,2.5,4.5,3.0,3.5,2.75,3.25,1.25,1.25,-0.3,0.45,2.2,750.61,14.3,22.9,3.0,1.5,1.25,1.0,1.75,3.5,1.5,4.25,3.0,7.75,5.5,6.5,8.5,0.08,0.2,0.95,732.99,0.7,-44.1
0.04,7.25,1.0,5.0,1.0,1.75,1.75,3.75,4.5,3.5,2.25,3.0,1.0,1.25,-0.42,0.14,2.33,588.15,12.4,11.6,3.0,1.25,1.5,1.25,1.5,3.75,1.5,5.25,3.5,7.75,5.75,6.75,8.25,0.08,0.14,0.95,794.13,0.6,-44.0
0.06,5.0,0.75,4.25,0.0,1.75,1.5,4.25,3.0,3.25,2.0,3.25,1.0,1.25,-0.3,-0.67,1.64,428.14,12.1,4.6,3.0,1.25,1.5,2.25,1.75,4.0,1.75,5.5,3.75,7.75,6.25,7.0,8.5,0.08,0.14,0.95,849.39,0.2,-41.8
0.08,4.0,0.75,3.75,2.5,2.25,2.25,3.5,3.75,3.5,2.0,3.25,1.0,1.25,-0.61,-0.98,0.52,347.59,9.4,5.2,3.0,1.5,1.5,2.25,1.75,4.0,2.0,5.5,3.75,7.75,6.5,7.0,8.5,0.08,0.14,0.95,888.87,0.0,-41.1
0.1,3.0,0.75,3.75,2.5,1.75,2.25,3.25,4.0,3.25,2.25,3.25,1.0,1.25,-0.86,-1.23,1.89,302.46,8.4,0.7,3.0,1.5,1.5,2.5,1.5,4.25,2.0,5.5,4.25,8.0,6.75,7.0,8.75,0.08,0.14,0.95,917.92,0.0,-41.4
0.12,2.5,0.75,3.25,2.5,2.25,2.5,3.5,3.25,3.25,2.25,3.25,1.0,1.25,-0.42,-0.8,1.02,290.47,7.7,0.6,3.75,1.5,1.75,2.0,1.75,4.25,2.0,5.5,4.5,8.0,7.0,7.0,8.5,0.08,0.14,0.95,933.97,-0.5,-39.5
0.14,2.25,0.75,2.5,2.5,1.75,2.5,3.5,4.0,3.5,2.0,3.25,0.5,1.25,-0.3,-0.8,0.7,285.54,6.4,-1.6,3.0,1.75,1.75,2.25,1.75,4.25,2.0,5.5,4.5,8.0,6.75,7.0,8.5,0.08,0.14,0.95,932.82,-0.2,-40.0
0.16,1.25,0.5,1.0,1.0,1.25,1.0,3.0,3.0,2.5,1.75,1.75,0.25,0.25,-0.17,-0.8,0.95,247.01,5.5,-5.2,2.75,1.5,1.5,2.25,1.75,4.25,2.0,5.5,4.5,7.75,7.0,6.75,8.5,0.08,0.14,0.95,913.04,0.0,-41.3
0.18,1.25,0.75,2.25,2.0,0.5,2.5,2.75,3.0,3.5,2.0,2.0,1.0,0.25,0.02,-0.73,1.14,231.6,6.6,-3.7,3.0,1.75,2.0,2.25,2.25,4.25,2.0,5.75,4.75,7.75,7.0,6.5,8.25,0.08,0.14,0.95,896.78,-0.4,-37.6
0.2,2.25,0.75,2.5,2.5,1.75,2.5,3.25,4.0,3.25,2.0,3.25,1.0,1.25,0.02,-0.55,1.2,244.05,6.3,-3.3,3.0,1.5,2.25,2.25,1.75,4.25,2.0,6.0,5.0,7.75,7.0,6.25,8.5,0.08,0.14,0.95,885.62,-0.4,-38.7
0.22,2.25,0.75,3.0,2.5,1.75,2.5,3.25,4.0,3.25,2.0,2.5,1.0,1.25,0.02,-0.36,1.33,278.95,6.8,-0.3,3.0,1.25,2.25,2.25,1.75,4.25,2.0,6.0,5.0,7.75,6.75,6.25,8.0,0.08,0.14,0.95,870.96,-0.4,-38.5
0.24,2.25,0.75,3.25,2.25,1.75,2.5,3.25,4.0,3.25,1.75,2.75,1.0,1.0,-0.05,-0.17,1.45,311.64,7.4,0.7,2.75,1.5,2.75,2.25,3.0,4.25,2.25,6.0,5.5,7.5,7.0,5.75,7.75,0.08,0.14,0.95,864.15,-0.9,-34.2
0.26,2.25,0.75,3.0,2.5,1.75,2.5,3.25,4.5,3.5,2.0,3.0,1.0,1.25,-0.05,0.02,1.58,349.17,6.5,-2.5,3.0,1.5,2.5,2.25,4.25,5.0,2.5,6.25,5.75,7.25,7.25,5.5,7.25,0.08,0.14,0.95,869.09,-0.7,-30.0
0.28,2.25,0.75,3.0,2.5,1.75,2.5,3.25,4.5,3.25,2.0,2.0,1.0,1.5,-0.17,0.14,1.77,367.23,6.1,-0.7,3.0,1.5,3.25,2.25,5.25,5.5,3.0,6.25,6.25,6.75,6.75,4.75,6.25,0.08,0.14,0.95,876.27,-1.3,-23.4
0.3,2.25,0.75,3.0,2.5,1.75,2.5,3.25,4.0,3.25,2.0,3.5,1.0,1.25,-0.23,0.33,1.95,375.51,6.9,-2.8,4.0,1.5,3.75,3.0,5.25,5.75,3.0,6.25,6.5,6.0,6.5,3.5,5.5,0.08,0.14,0.95,885.42,-2.6,-15.7
0.32,2.25,0.75,3.0,2.5,1.75,2.25,3.25,4.0,3.25,1.75,2.75,1.0,1.0,-0.36,0.52,2.2,373.62,7.5,0.4,4.5,1.5,4.0,4.0,5.25,6.0,3.75,6.25,6.75,5.25,6.0,3.0,4.5,0.08,0.14,0.95,897.13,-3.7,-9.2
0.34,2.0,0.75,3.0,2.0,1.75,2.25,3.25,4.25,3.25,2.0,2.5,1.0,0.5,-0.48,0.7,2.52,370.98,7.0,0.1,5.25,1.75,4.25,4.75,5.75,6.0,3.75,6.25,6.75,4.75,5.5,2.25,3.0,0.08,0.14,0.95,905.06,-4.9,-0.5
0.36,2.0,0.75,3.0,2.5,1.75,2.0,3.25,4.75,3.25,2.0,2.25,1.0,2.0,0.02,4.02,3.77,374.13,5.8,-4.9,7.25,2.25,5.0,5.75,7.0,6.5,4.25,6.25,6.5,3.75,4.75,2.0,2.25,0.08,0.2,0.95,943.09,-6.7,10.6
0.38,2.0,0.75,3.0,2.25,1.75,2.25,3.25,4.25,3.25,2.0,3.0,1.0,1.25,-0.73,2.95,2.45,377.14,6.6,-3.5,8.5,2.5,6.0,6.75,7.75,6.75,4.25,5.5,5.75,3.0,3.5,1.5,1.75,0.08,0.2,0.95,986.57,-8.2,20.8
0.4,2.0,0.75,2.75,2.5,1.75,2.5,3.25,4.5,3.25,2.0,2.75,0.5,1.25,-0.98,3.27,2.2,380.74,5.8,-1.1,10.0,2.75,6.25,8.5,8.5,6.75,4.0,4.25,5.0,2.5,3.25,1.0,1.5,0.08,0.2,0.95,1039.29,-9.7,29.1
0.42,2.0,0.75,2.5,2.25,1.75,2.5,3.25,4.5,3.5,2.5,3.25,1.0,1.25,0.77,4.7,-0.36,376.56,5.3,-6.8,11.5,3.0,7.25,9.75,9.5,6.75,4.25,3.25,3.75,2.25,3.25,0.75,1.25,0.08,0.2,0.95,1097.91,-11.3,36.2
0.44,1.75,0.5,2.25,2.25,1.75,2.5,3.0,4.75,3.5,2.75,3.25,1.25,1.5,2.83,6.64,-1.86,375.15,4.1,-11.9,14.0,3.25,8.25,10.0,9.5,6.5,3.0,1.75,2.0,1.75,2.5,0.75,1.25,0.08,0.2,1.27,1139.77,-13.4,45.2
0.46,2.0,0.75,2.25,2.0,1.75,2.75,2.75,4.75,3.5,3.0,3.25,2.75,3.25,0.64,0.08,-0.23,392.46,3.1,-20.7,14.5,4.25,8.25,8.5,9.5,3.5,2.0,1.5,1.75,2.25,1.75,0.75,1.0,0.14,0.33,1.33,1130.14,-15.0,48.7
0.48,2.0,0.0,1.75,1.0,1.75,1.5,3.0,4.75,2.75,3.0,3.5,3.5,5.25,-0.48,0.52,3.27,406.35,1.8,-37.0,14.5,4.75,8.25,7.25,7.75,3.25,1.0,1.5,1.5,2.25,1.75,0.75,1.0,0.14,0.39,1.52,1074.42,-15.7,49.4
0.5,0.5,0.0,1.5,0.75,1.25,2.25,2.0,4.75,3.5,5.5,3.25,5.5,6.75,-0.67,0.45,1.7,453.39,-1.9,-53.9,14.0,3.0,7.75,6.25,5.25,4.25,1.0,1.5,1.25,1.75,1.5,0.75,1.0,0.14,0.52,1.77,963.91,-16.1,48.6
0.52,0.0,0.0,1.5,1.5,1.25,2.25,2.0,5.75,4.25,6.5,5.0,6.0,7.0,0.14,0.58,2.33,525.72,-1.8,-55.2,12.0,3.25,7.25,5.0,1.5,3.25,1.75,1.5,1.25,1.0,1.5,0.75,1.0,0.45,0.77,2.39,803.55,-18.6,48.2
0.54,2.5,0.75,3.0,3.75,3.5,3.75,3.5,7.0,5.75,8.25,6.5,7.25,8.25,-0.05,0.14,1.08,703.61,1.2,-35.4,9.75,2.75,6.0,3.75,0.0,2.0,2.0,1.5,1.25,1.0,1.5,0.75,1.0,0.83,0.83,2.64,621.69,-19.7,43.3
0.56,2.25,0.75,2.5,3.5,1.75,5.0,4.25,7.25,6.0,8.25,6.75,7.25,8.5,-0.05,0.14,0.95,866.13,0.5,-38.8,8.5,1.25,4.0,3.0,0.0,1.75,1.25,1.25,1.25,1.25,0.75,0.75,1.0,0.58,0.2,2.77,447.54,-18.5,38.8
0.58,2.25,0.75,3.25,3.5,3.0,5.0,4.75,7.5,6.5,8.5,7.5,7.5,8.5,-0.11,0.08,0.95,1030.94,1.0,-36.2,7.0,1.25,2.5,2.25,1.5,2.25,1.0,1.5,1.25,1.0,1.5,0.75,1.0,0.7,-0.86,2.52,334.26,-13.6,31.3
0.6,2.0,0.75,3.75,3.75,1.25,4.75,5.0,8.0,6.5,8.5,7.75,7.5,8.5,-0.11,0.08,0.95,1120.45,1.5,-38.6,5.25,1.25,1.5,2.25,1.5,2.0,1.0,1.5,1.25,1.0,1.25,0.75,1.0,0.83,-0.67,1.27,260.14,-11.1,25.8
0.62,2.25,0.75,4.0,3.5,4.5,5.0,4.75,8.0,6.5,8.5,7.75,7.25,8.5,-0.11,0.08,0.95,1193.26,1.2,-32.8,4.0,1.75,1.5,2.25,1.5,2.0,1.0,1.5,1.25,1.25,1.5,0.75,1.0,1.58,-1.55,2.77,218.78,-9.5,21.2
0.64,2.25,0.75,4.0,3.5,3.5,5.0,5.0,7.75,6.5,8.5,7.75,7.25,8.5,-0.11,0.08,0.95,1213.13,1.4,-34.1,4.25,1.5,1.75,2.0,1.5,2.0,1.0,1.5,1.25,1.0,1.5,0.75,1.0,0.39,-1.11,1.27,193.85,-10.3,22.3
0.66,2.0,0.75,4.0,3.75,4.5,5.0,5.0,7.75,6.5,8.25,7.25,6.5,8.0,-0.11,0.08,0.95,1211.77,1.3,-30.8,3.25,1.25,1.75,1.75,1.75,1.75,1.0,1.75,1.25,1.0,1.5,0.75,1.0,0.08,-0.61,0.52,181.21,-8.9,16.7
0.68,1.75,0.75,4.0,3.5,4.5,5.0,4.75,8.0,6.5,8.25,7.25,6.5,7.75,-0.11,0.08,0.95,1189.48,1.1,-31.5,2.25,1.25,1.5,2.25,1.5,2.0,1.0,1.5,1.25,1.0,1.0,0.75,0.75,-0.3,-0.61,0.83,173.38,-7.7,17.7
0.7,2.0,0.75,3.75,3.75,5.0,5.25,4.5,8.0,6.75,8.0,7.0,6.25,7.5,-0.11,0.08,0.95,1154.71,1.0,-29.2,2.5,1.25,1.75,2.25,1.5,2.0,1.0,1.5,1.25,1.0,1.5,0.75,1.0,-0.42,-0.48,1.02,181.27,-8.3,15.2
0.72,2.25,0.75,3.75,3.75,5.0,5.25,5.0,7.75,7.0,7.5,6.75,5.5,7.0,-0.11,0.08,0.95,1107.0,1.5,-26.5,2.5,1.5,1.75,2.25,1.5,2.0,1.0,1.5,1.25,1.0,1.5,0.75,1.0,-0.11,-0.42,1.08,196.07,-8.3,16.3
0.74,2.25,0.75,4.0,3.75,4.75,5.25,5.0,7.75,7.0,7.25,6.75,5.5,6.75,-0.11,0.08,0.95,1054.37,1.8,-26.0,2.5,1.5,1.25,2.25,1.5,2.0,1.0,1.5,1.25,0.75,1.5,0.75,1.0,-0.11,-0.23,1.08,212.79,-7.8,16.3
0.76,2.25,0.75,3.75,3.75,5.5,5.0,5.0,7.75,7.0,7.25,7.0,5.5,6.5,-0.11,0.08,0.95,1012.71,1.8,-25.3,2.5,1.25,1.5,2.25,1.5,2.0,1.0,1.5,1.25,1.0,1.5,0.75,1.0,-0.17,0.02,1.14,229.43,-7.8,14.5
0.78,2.25,0.75,4.5,3.75,5.5,5.25,5.25,8.0,7.25,7.25,7.0,5.25,6.0,-0.11,0.08,0.95,988.03,2.2,-23.1,2.5,1.25,1.75,2.25,1.5,2.0,1.0,1.0,1.25,1.0,1.25,0.75,1.0,-0.17,0.08,1.33,239.83,-8.9,17.9
0.8,2.5,0.75,4.25,3.75,5.25,5.5,5.0,7.75,7.5,7.25,7.25,4.75,6.0,-0.11,0.08,0.95,985.58,2.2,-22.8,2.5,1.25,1.5,2.25,1.5,2.0,1.25,1.5,1.25,0.75,1.5,0.75,1.5,-0.11,0.27,1.58,248.44,-7.7,12.4
0.82,2.5,0.75,4.25,3.75,5.25,5.75,5.5,7.75,8.0,6.75,7.25,4.5,5.5,-0.11,0.08,0.95,983.83,2.5,-21.1,2.25,1.25,1.5,2.25,1.5,2.0,1.25,1.5,1.25,0.75,0.75,0.75,1.0,-0.11,0.33,1.89,247.56,-7.9,18.5
0.84,2.75,1.0,4.5,3.75,5.5,5.75,5.5,7.75,8.25,6.5,7.25,4.5,5.25,-0.11,0.08,0.95,991.36,2.9,-19.1,2.0,1.25,1.5,2.25,1.75,2.0,1.25,1.5,1.25,0.75,1.5,0.75,1.0,-0.05,0.52,2.02,250.81,-7.4,14.3
0.86,2.75,1.0,4.0,3.75,5.25,5.75,5.5,8.0,8.5,5.75,7.25,4.25,5.0,-0.11,0.08,0.95,986.02,2.9,-18.8,2.0,1.25,1.5,2.0,1.5,2.0,1.25,1.5,1.25,0.75,1.5,0.75,1.0,0.14,0.89,2.27,248.64,-7.5,13.1
0.88,3.5,1.0,4.75,4.5,5.75,6.0,5.75,8.0,8.75,5.75,7.25,3.75,4.5,-0.11,0.08,0.95,1006.78,3.8,-13.6,2.25,1.25,1.25,2.25,1.5,2.0,1.25,1.5,1.25,1.0,1.5,0.75,1.0,0.39,1.52,2.58,250.29,-7.2,12.9
0.9,4.0,1.25,4.75,5.5,5.5,6.75,5.75,8.0,9.0,5.5,7.0,3.0,3.25,-0.11,0.08,0.95,1028.6,4.4,-7.7,2.25,1.25,1.5,2.25,1.5,2.0,1.25,1.25,1.25,0.75,2.25,0.75,1.25,0.02,2.27,1.14,254.15,-8.1,10.4
0.92,5.5,2.0,5.5,5.75,6.75,7.0,6.25,8.0,9.0,5.0,6.5,2.75,3.25,-0.11,0.08,0.95,1086.42,5.5,-0.6,2.5,1.25,1.5,2.0,1.5,2.0,1.0,1.5,1.25,1.0,1.5,0.75,1.25,0.14,4.08,1.08,257.1,-7.4,12.2
0.94,7.25,2.25,6.0,7.25,7.75,7.5,6.5,8.0,8.5,4.25,6.0,2.75,2.5,-0.11,0.08,0.95,1165.78,6.7,7.3,2.0,1.5,1.5,2.25,1.5,2.25,1.0,1.5,1.25,1.0,0.75,0.75,1.0,-1.55,4.95,-1.05,255.78,-6.7,17.5
0.96,9.0,2.25,7.5,9.0,9.25,7.75,6.75,7.25,7.25,4.25,5.0,2.0,2.0,-0.11,0.08,0.95,1271.31,8.1,16.8,2.75,1.25,1.25,2.0,1.5,2.5,1.0,1.5,1.25,1.5,1.5,0.75,1.0,-3.11,5.64,-0.98,259.24,-6.3,12.5
0.98,10.5,2.5,8.75,11.5,9.25,7.75,7.0,6.25,6.0,3.5,4.5,1.25,1.5,-0.11,0.14,1.02,1348.35,10.0,25.8,2.5,1.0,1.25,1.5,1.5,2.25,1.0,1.5,1.25,2.25,1.5,2.25,2.75,-0.3,-1.55,-0.48,269.93,-3.7,-11.9
1.0,12.0,3.75,9.75,11.5,9.5,7.25,7.0,5.75,5.25,3.5,3.5,1.25,1.5,-0.11,0.14,1.33,1408.82,11.2,31.0,2.5,1.0,1.25,2.0,1.5,2.25,1.0,1.5,1.25,3.5,1.5,4.75,4.5,-0.23,0.64,1.02,298.37,-2.4,-28.3
1.02,14.5,3.75,11.0,9.5,9.5,6.25,6.0,5.25,4.25,3.25,3.5,1.25,1.25,-0.23,0.2,1.45,1437.54,12.8,35.0,3.0,0.5,1.25,0.0,1.5,2.0,0.75,2.25,1.75,5.25,3.0,6.25,6.75,-0.3,0.52,1.52,364.3,-0.2,-48.5
1.04,16.0,3.75,11.0,7.0,8.5,5.0,4.25,4.25,3.75,3.0,3.5,1.25,1.25,-0.17,0.27,1.64,1413.07,14.2,37.1,2.0,0.5,1.5,0.0,1.5,2.0,1.0,3.0,2.5,6.0,4.75,6.0,7.25,0.2,0.58,2.39,449.7,0.4,-53.0
1.06,12.0,2.5,10.5,5.75,7.25,3.5,3.0,4.75,3.5,2.0,3.0,1.25,1.25,-0.36,0.52,2.27,1302.71,14.1,33.6,3.0,1.25,1.25,0.25,1.75,4.0,1.75,4.25,3.5,7.5,6.5,7.0,8.25,0.08,0.27,1.2,592.69,0.6,-46.3
1.08,12.5,3.75,9.5,5.5,5.75,3.0,3.75,4.5,3.5,2.75,3.0,1.0,1.25,-0.8,0.77,2.39,1150.73,14.5,33.8,2.5,1.5,0.75,2.25,4.25,4.25,1.75,5.25,4.5,7.75,7.0,7.25,8.25,0.08,0.2,0.95,749.93,0.7,-38.9
1.1,10.0,2.25,8.0,3.75,4.75,1.5,3.5,4.25,3.5,1.75,2.5,0.5,0.5,-0.8,0.58,2.7,928.92,15.6,33.9,2.5,0.25,1.75,2.25,2.75,4.25,1.0,5.5,5.0,7.75,7.75,7.75,8.25,0.08,0.2,0.95,883.08,0.2,-44.6
1.12,7.25,0.75,5.75,3.25,0.75,1.5,2.5,3.75,2.75,1.5,2.0,0.75,0.25,-0.73,0.33,3.08,673.05,16.1,25.7,3.25,0.75,2.25,2.25,3.0,4.25,2.0,5.5,5.5,8.0,8.25,7.75,8.25,0.08,0.14,0.95,987.44,-0.9,-40.1
1.14,4.75,0.75,3.0,0.75,0.0,1.5,2.5,3.0,2.75,0.5,2.5,0.5,0.25,-0.67,-0.98,2.89,421.75,14.4,14.2,3.75,0.5,2.75,2.25,3.0,4.25,2.5,5.75,5.0,7.75,8.25,7.75,8.25,0.08,0.14,0.95,1049.22,-1.5,-38.3
1.16,4.0,0.75,1.75,1.25,1.25,1.5,2.25,3.0,2.75,1.75,1.0,0.5,0.0,-0.92,-1.48,-0.23,277.39,9.7,14.7,2.75,1.25,2.5,2.25,3.0,4.25,2.5,5.75,4.75,7.75,8.0,7.0,8.25,0.08,0.14,0.95,1065.61,-0.8,-38.1
1.18,1.75,0.75,1.75,1.0,1.25,1.5,2.75,3.25,2.5,1.5,2.5,0.25,0.0,-1.17,-1.67,1.95,185.37,7.2,1.2,2.75,0.75,2.75,2.25,3.25,4.25,2.0,5.5,5.0,7.75,7.75,7.0,8.0,0.08,0.14,0.95,1051.31,-0.8,-38.2
1.2,1.25,0.5,1.75,1.0,1.25,1.5,2.75,3.0,3.5,1.75,1.75,0.25,0.0,-0.55,-1.05,0.77,132.74,6.6,-2.0,3.0,1.25,2.75,2.25,2.5,4.25,2.25,5.5,5.0,7.25,7.25,6.25,7.75,0.08,0.14,0.95,1008.72,-1.2,-35.7
1.22,2.5,0.75,1.75,2.75,1.25,2.5,2.75,3.0,3.5,2.0,3.75,1.0,1.25,-0.48,-0.86,0.39,154.06,6.7,-5.4,3.0,1.5,2.75,2.5,3.0,4.25,2.25,5.5,5.0,6.75,7.0,6.0,7.25,0.08,0.14,0.95,954.79,-1.5,-32.2
1.24,2.25,0.75,3.5,2.5,1.75,2.5,3.25,4.5,3.25,2.0,3.0,1.0,1.0,-0.42,-0.73,0.45,202.17,7.2,-0.1,2.5,1.5,2.75,2.25,3.25,4.25,2.5,5.5,4.75,6.75,7.0,5.75,6.75,0.08,0.14,0.95,892.72,-1.3,-32.0
1.26,1.75,0.75,1.75,1.0,1.25,1.25,2.75,3.0,2.5,1.25,2.0,0.25,0.0,-0.3,-0.61,0.7,206.25,8.1,4.4,2.5,1.5,2.75,2.5,3.75,4.25,2.75,5.5,4.75,6.75,6.5,5.5,6.75,0.08,0.14,0.95,843.42,-1.3,-29.8
1.28,2.25,0.5,3.75,0.5,2.25,1.5,3.25,4.5,2.5,1.75,3.0,0.0,1.25,-0.23,-0.42,0.83,236.71,7.3,-0.3,2.75,1.75,2.75,2.5,4.25,4.25,2.5,5.5,5.0,6.5,6.5,5.5,6.25,0.08,0.14,0.95,806.48,-1.6,-27.0
1.3,1.25,0.25,1.5,1.25,1.25,1.25,2.75,3.0,2.5,1.5,2.0,0.0,0.0,-0.23,-0.23,1.02,225.65,6.6,-0.4,2.75,1.5,2.75,2.75,4.25,4.5,2.5,5.5,5.0,6.25,6.25,4.75,5.75,0.08,0.14,0.95,771.17,-1.6,-24.5
1.32,1.25,0.5,1.75,1.0,1.25,1.5,2.75,3.0,2.5,1.75,2.0,0.75,0.0,-0.23,-0.05,1.2,227.12,6.4,-3.9,3.0,1.5,3.75,2.75,4.75,5.5,2.75,6.25,5.5,6.25,6.0,4.75,5.75,0.08,0.14,0.95,779.64,-1.8,-20.7
1.34,2.75,0.5,3.0,1.75,1.75,1.0,3.25,4.5,3.25,2.0,3.0,1.0,0.75,-0.3,0.08,1.33,262.57,8.5,-3.0,3.0,1.75,3.5,3.25,5.25,5.75,3.0,6.25,5.75,6.0,5.75,3.5,5.25,0.08,0.14,0.89,795.75,-1.8,-15.6
1.36,0.5,0.5,3.0,1.0,1.75,1.25,3.25,4.5,2.5,1.75,1.5,0.0,0.0,-0.42,0.2,1.52,279.59,5.9,1.2,4.0,2.25,4.0,4.0,5.25,6.0,3.0,7.0,6.5,5.5,5.75,3.5,4.5,0.08,0.14,0.95,840.59,-3.1,-9.9
1.38,0.5,0.25,3.0,1.0,1.75,1.25,2.75,4.5,2.5,1.5,3.25,1.0,1.25,-0.48,0.33,1.83,293.87,5.1,-15.7,3.75,1.75,4.0,5.0,6.0,6.5,3.0,7.25,6.5,5.25,5.5,2.25,3.25,0.14,0.14,0.95,874.83,-3.0,-4.1
1.4,2.25,0.75,2.0,1.5,1.25,2.5,2.75,3.0,2.75,2.0,1.5,1.0,0.0,-0.55,0.58,2.27,291.54,6.8,4.6,5.75,1.75,4.25,5.25,7.0,6.75,3.25,7.25,6.5,4.5,4.75,2.25,2.75,0.08,0.14,0.95,924.62,-4.3,3.4
1.42,2.25,1.25,2.75,2.25,1.75,1.5,3.25,4.25,2.5,2.0,3.0,1.0,1.25,-0.86,0.95,2.7,315.23,7.2,-1.4,7.0,2.5,4.25,6.75,8.5,7.5,3.0,7.0,5.75,3.75,3.75,1.75,2.25,0.14,0.14,0.95,979.16,-5.0,14.0
1.44,0.5,0.75,1.75,2.0,1.75,2.5,3.25,3.0,3.25,2.0,2.0,1.0,0.0,0.95,5.52,6.2,306.17,4.8,-2.7,8.0,3.0,5.0,8.5,9.5,7.75,3.0,6.75,5.25,3.5,3.75,1.0,1.75,0.08,0.14,0.95,1058.79,-6.2,21.7
1.46,2.0,0.75,3.0,1.75,1.75,1.75,3.0,4.5,3.0,2.0,3.0,1.0,1.25,-0.8,3.89,1.83,326.02,6.5,-5.5,9.25,3.5,6.0,10.5,11.0,8.0,2.75,6.0,3.5,2.5,3.25,0.75,1.25,0.08,0.2,0.95,1145.14,-7.7,31.9
1.48,2.25,0.5,2.5,3.0,1.75,1.25,2.75,4.5,3.25,2.25,3.0,1.0,1.25,-0.23,4.33,1.14,343.89,6.8,-5.6,11.0,3.75,6.25,11.5,12.5,7.75,2.0,4.25,2.25,2.5,2.5,0.75,1.0,0.08,0.14,1.02,1222.67,-8.9,39.5
1.5,1.75,0.5,2.5,2.75,1.75,2.75,2.75,4.75,3.25,3.0,3.0,1.75,1.25,2.64,6.02,-1.86,376.94,4.2,-10.4,11.5,3.75,7.25,10.5,12.5,8.0,1.75,3.0,1.75,2.25,2.0,0.75,1.0,0.08,0.2,1.27,1259.12,-9.8,43.3
1.52,2.0,0.75,2.25,2.5,1.75,3.0,2.5,4.75,3.25,3.25,3.25,2.5,3.25,0.89,-0.23,-0.36,404.68,2.8,-18.9,13.0,4.25,7.25,12.0,12.5,7.5,1.0,2.5,1.25,1.0,1.75,0.75,1.0,0.14,0.27,1.27,1276.51,-11.3,49.2
1.54,0.5,0.5,2.25,1.0,1.75,1.5,2.25,4.75,2.5,4.25,3.5,4.75,5.0,0.2,0.39,3.2,445.89,0.5,-43.3,13.0,4.0,7.25,10.5,11.0,6.5,1.0,1.75,1.25,1.0,1.5,0.75,1.0,0.14,0.33,1.33,1228.85,-12.4,50.5
1.56,1.75,0.0,1.5,2.75,1.25,3.0,2.0,4.75,4.25,6.0,3.5,5.75,6.0,0.58,0.58,1.58,510.61,0.1,-41.9,13.0,4.75,8.0,8.5,8.5,4.75,0.75,2.0,0.75,0.0,1.5,0.0,0.75,0.14,0.45,1.58,1119.53,-15.0,57.2
1.58,0.0,0.0,2.25,1.5,2.5,1.75,2.0,5.75,4.25,5.75,4.75,6.5,6.75,-0.11,0.64,1.27,577.63,-0.5,-50.3,9.75,3.0,6.0,5.5,3.5,3.75,1.0,1.25,0.75,0.0,0.25,0.0,0.25,0.52,0.77,2.27,871.26,-17.3,61.5
1.6,0.5,0.5,1.75,3.0,5.5,3.75,2.75,6.75,5.0,7.25,5.0,6.25,7.0,-0.11,0.14,0.95,704.39,-1.3,-35.9,8.5,2.75,4.75,4.75,0.0,2.75,1.0,1.0,0.75,0.0,0.5,0.0,0.0,0.77,1.14,2.89,612.42,-20.8,63.2
1.62,1.75,0.75,3.25,3.0,2.5,3.75,4.25,7.5,5.25,7.25,6.0,6.5,7.25,-0.11,0.08,0.95,813.16,1.1,-36.0,7.0,1.5,2.75,2.25,0.0,2.25,0.75,1.0,0.75,0.0,0.25,0.0,0.0,0.58,0.64,3.2,376.31,-20.0,61.9
1.64,1.75,0.75,3.75,3.25,3.75,4.0,4.5,7.5,6.0,7.5,6.5,6.5,7.75,-0.11,0.08,0.95,931.2,1.4,-33.4,6.0,1.0,0.0,1.25,1.5,2.0,1.0,1.25,1.25,0.5,0.75,0.5,1.0,0.52,-0.61,2.89,250.27,-10.5,31.2
1.66,2.25,0.75,4.0,3.75,4.75,4.5,4.75,7.5,6.0,7.5,6.75,6.75,7.75,-0.11,0.08,0.95,1022.04,1.7,-29.6,5.0,1.5,1.75,2.25,1.5,3.0,0.5,1.25,1.25,0.75,0.25,0.75,0.0,0.52,-1.11,1.52,180.73,-11.3,41.2
1.68,2.5,0.75,4.0,3.0,5.0,4.5,5.0,7.75,6.25,7.75,7.25,6.5,7.75,-0.05,0.08,0.95,1096.16,1.6,-30.0,3.75,1.5,1.5,2.25,1.5,3.0,1.0,1.5,1.25,1.25,1.5,0.75,0.75,0.7,-1.73,1.83,157.9,-8.0,21.6
1.7,2.5,0.5,4.0,3.5,5.25,5.25,5.0,8.0,6.25,7.75,7.0,6.5,7.5,-0.11,0.08,0.95,1131.91,1.4,-28.3,3.0,1.5,1.5,2.5,1.5,3.0,1.0,1.5,1.25,1.0,1.5,0.75,1.0,0.39,-1.3,1.77,156.68,-7.2,18.9
1.72,2.0,1.0,4.0,3.75,5.75,5.25,5.0,8.0,6.25,7.75,6.75,6.25,7.25,-0.11,0.08,0.95,1148.74,1.3,-26.4,3.0,1.5,1.5,2.25,1.5,2.75,1.0,1.5,1.25,0.75,1.5,0.75,1.0,0.27,-0.92,0.89,162.38,-7.7,19.4
1.74,1.5,0.75,4.25,2.5,5.75,5.75,5.25,8.25,6.5,7.75,6.75,5.5,6.75,-0.11,0.08,0.95,1132.49,0.7,-27.1,2.75,1.75,1.25,1.25,0.0,3.25,1.0,1.25,1.25,1.25,0.25,0.75,0.0,0.33,-0.8,0.64,152.86,-7.4,26.9
1.76,2.25,0.75,4.0,3.5,5.75,6.25,5.25,8.5,6.5,7.25,6.5,5.5,6.5,-0.11,0.08,0.95,1116.93,1.1,-23.5,2.0,1.25,1.5,2.25,1.5,2.75,1.0,1.5,1.25,0.75,1.25,0.75,1.0,0.27,-0.55,0.7,161.82,-6.2,15.6
1.78,2.25,1.0,4.25,3.5,5.75,6.25,5.25,8.5,6.75,7.25,6.5,5.25,6.0,-0.11,0.08,0.95,1098.57,1.4,-21.8,2.0,1.25,1.5,2.25,1.5,2.5,1.0,1.5,1.25,1.0,1.5,0.75,1.0,0.14,-0.36,0.89,181.64,-6.4,12.9
1.8,1.75,0.75,4.25,4.5,5.75,6.25,5.5,8.5,7.0,7.25,6.5,4.75,6.0,-0.11,0.08,0.95,1081.07,1.4,-21.1,2.5,1.5,1.5,2.25,1.5,2.75,1.0,1.5,1.25,1.0,1.5,0.75,1.0,0.14,-0.17,1.02,215.7,-6.8,16.4
1.82,2.25,0.75,4.25,4.25,5.75,6.75,5.5,8.5,7.0,6.5,6.25,4.25,5.25,-0.11,0.08,0.95,1057.63,1.7,-17.6,3.0,1.25,1.25,2.0,1.75,2.25,1.0,1.5,1.25,1.0,1.5,0.75,1.0,0.2,-0.05,1.08,243.73,-7.4,16.2
1.84,2.5,0.75,3.75,4.75,5.75,7.0,5.5,8.75,7.0,5.5,6.0,2.75,4.5,-0.11,0.08,0.95,1017.42,1.7,-12.6,2.5,1.25,1.25,2.25,1.5,2.25,1.0,1.5,1.25,1.0,1.5,0.75,1.0,0.14,0.14,1.33,257.05,-7.0,14.1
1.86,2.5,0.75,4.0,5.0,6.25,7.25,5.5,8.75,7.0,5.5,5.5,2.75,3.25,-0.11,0.08,0.95,985.1,2.1,-8.7,2.5,1.25,1.5,2.25,1.5,2.25,1.0,1.5,1.25,1.0,1.5,0.75,1.0,0.2,0.33,1.52,261.76,-7.4,14.8
1.88,2.5,1.25,4.0,5.5,7.25,7.25,5.75,8.75,7.0,5.25,5.5,2.75,3.0,-0.11,0.08,0.95,974.46,2.4,-5.4,2.5,1.5,1.5,2.25,1.5,2.25,1.0,1.5,1.25,1.0,1.5,0.75,1.0,0.2,0.39,1.7,261.53,-7.5,15.9
1.9,4.0,1.25,4.5,6.0,7.75,7.75,5.75,8.5,7.25,4.5,5.0,2.5,2.5,-0.11,0.08,0.95,992.1,3.6,1.1,2.75,1.25,1.5,2.25,1.5,2.5,1.0,1.5,1.25,1.0,1.5,0.75,1.0,0.33,0.58,2.14,262.26,-7.4,16.0
1.92,5.5,2.0,5.25,7.25,8.0,8.0,5.75,8.5,7.0,4.25,4.75,2.25,2.25,-0.11,0.08,0.95,1048.25,4.9,7.8,1.75,1.5,1.5,2.5,1.5,2.75,1.0,1.5,1.25,0.75,1.5,0.75,1.0,0.58,0.95,2.7,263.05,-6.2,15.1
1.94,6.75,1.75,5.5,8.25,9.25,8.75,6.0,8.0,7.0,4.25,4.5,2.0,1.75,-0.11,0.08,0.95,1127.83,5.6,13.0,2.0,1.0,1.5,2.0,1.5,2.25,1.0,1.5,1.25,1.0,1.5,0.75,1.0,0.64,1.89,2.89,260.08,-6.5,10.8
1.96,8.0,2.0,5.75,9.25,9.5,8.5,6.0,7.75,6.25,4.25,4.25,1.25,1.5,-0.11,0.14,0.95,1204.43,6.4,18.3,2.25,1.25,1.25,1.25,1.5,2.75,1.0,1.5,1.25,0.75,0.75,0.75,0.25,0.58,3.2,2.45,250.28,-6.3,22.1
1.98,9.5,2.0,7.0,11.5,12.0,9.0,6.0,7.5,5.25,3.5,3.5,1.25,1.5,-0.11,0.14,0.95,1310.17,7.4,25.7,2.0,1.25,1.5,2.25,1.5,2.25,1.0,1.5,1.25,1.0,1.5,0.75,1.0,0.27,4.39,0.7,249.52,-6.7,12.7
2.0,11.5,2.5,7.75,13.0,13.0,8.5,5.25,6.75,4.5,3.5,3.5,1.25,1.5,-0.11,0.14,1.08,1393.88,8.7,30.3,2.0,1.25,1.25,0.5,1.5,2.0,1.0,1.25,1.25,1.0,0.5,0.75,0.5,-1.36,5.58,-1.3,231.29,-6.2,16.9
2.02,13.0,3.5,8.25,13.5,14.0,8.75,5.5,5.75,3.5,3.0,3.25,1.25,1.25,-0.11,0.14,1.14,1478.94,9.6,36.0,2.75,1.0,1.5,1.25,1.5,2.0,1.0,1.5,1.25,2.0,1.5,0.75,1.0,-3.48,6.33,-0.55,235.77,-6.3,7.1
2.04,14.5,3.5,9.25,12.5,14.0,8.0,4.5,5.75,3.5,2.75,3.25,1.25,1.25,-0.17,0.2,1.27,1538.25,10.5,37.5,2.25,1.25,1.25,1.75,1.5,2.25,1.0,1.5,1.25,2.25,1.5,2.25,2.75,0.08,0.33,3.77,251.59,-3.7,-10.9
2.06,16.5,3.75,9.25,10.0,12.0,7.0,3.25,4.75,3.25,2.75,3.0,1.0,1.25,-0.23,0.27,1.39,1538.25,11.9,40.1,2.25,0.0,1.0,1.75,1.75,3.5,0.75,1.25,1.5,6.5,1.25,6.75,6.25,-0.42,0.89,1.39,320.28,1.3,-44.5
2.08,17.0,4.5,9.25,8.75,9.5,6.0,1.5,4.75,3.25,2.75,3.25,1.25,1.25,-0.3,0.39,1.58,1488.89,12.8,39.6,2.0,1.25,0.0,2.0,1.0,4.0,0.5,4.0,3.0,7.75,4.0,7.75,8.25,0.14,0.58,1.95,453.11,2.7,-50.8
2.1,16.5,4.0,9.0,7.25,7.75,5.25,1.75,4.75,3.25,2.75,3.25,1.0,1.25,-0.55,0.64,2.2,1392.82,13.4,38.4,2.0,0.75,1.25,2.0,1.5,4.0,1.0,5.25,3.5,7.75,7.0,7.75,8.5,0.08,0.33,1.08,634.34,1.2,-49.2
2.12,13.0,3.75,8.0,5.25,6.75,3.75,2.75,4.75,2.75,2.5,3.0,0.25,1.25,-0.92,0.95,2.58,1222.71,13.1,36.9,2.5,1.25,0.0,2.0,1.75,4.0,1.25,5.75,4.25,7.75,7.25,7.75,8.5,0.08,0.2,0.95,789.82,1.5,-48.3
2.14,10.5,2.0,5.75,3.75,5.75,3.5,2.75,4.75,3.25,2.0,3.0,0.75,1.25,-0.98,0.7,3.02,982.81,11.6,28.3,2.0,0.75,1.25,1.75,2.5,4.0,1.5,6.25,4.25,8.0,7.5,7.75,8.25,0.14,0.14,0.95,903.88,1.1,-47.0
2.16,7.25,1.25,3.0,2.0,4.5,2.75,2.0,4.75,2.75,1.75,2.5,1.0,0.0,-0.8,0.39,3.39,709.61,9.3,22.5,2.5,1.5,1.75,2.0,3.25,4.5,2.0,6.25,4.75,8.0,7.75,7.5,8.25,0.08,0.2,0.95,987.23,0.2,-39.9
2.18,4.0,0.0,1.25,0.0,1.75,1.25,2.0,3.25,2.5,0.25,1.25,0.0,0.0,-0.3,-0.98,2.02,411.63,9.9,17.5,3.0,1.25,2.25,2.0,3.5,5.0,2.0,6.25,4.75,8.0,7.75,7.0,8.25,0.08,0.14,0.95,1038.78,0.0,-36.9
2.2,3.75,0.5,1.25,1.5,1.75,1.5,2.0,3.25,2.5,1.0,2.0,0.0,1.25,-0.92,-0.67,3.27,263.99,7.5,7.6,3.0,1.25,2.5,2.0,4.25,5.0,2.0,6.25,4.75,7.75,7.75,7.0,8.0,0.08,0.14,0.95,1070.18,-0.2,-34.8
2.22,3.25,0.5,2.25,1.75,3.0,0.25,2.5,4.5,2.5,1.5,2.5,0.0,0.0,-0.86,-1.36,2.02,182.96,9.0,10.9,2.5,1.5,2.5,2.0,4.25,5.25,2.0,6.25,4.75,7.5,7.25,6.25,7.75,0.08,0.14,0.95,1063.32,0.1,-33.2
2.24,2.25,0.5,1.0,3.75,1.75,2.5,2.5,3.0,2.5,2.0,3.25,0.5,1.0,-0.48,-0.8,0.95,164.9,5.4,0.0,1.75,1.25,2.5,2.0,3.75,5.25,2.0,6.25,4.75,7.0,7.0,5.75,7.0,0.08,0.14,0.95,1017.74,0.3,-34.0
2.26,1.75,0.5,1.0,1.0,1.75,1.5,3.25,4.0,2.5,1.5,2.0,0.0,1.0,-0.48,-0.61,0.2,150.55,3.9,-4.4,1.75,1.75,2.75,2.0,4.75,5.5,2.0,6.25,4.75,6.75,6.25,5.5,6.75,0.14,0.14,0.95,954.23,0.2,-28.9
2.28,2.0,0.25,0.5,1.0,1.75,1.25,3.25,3.25,2.5,1.25,2.0,0.0,0.0,-0.42,-0.48,0.02,142.27,5.7,1.7,2.25,1.75,2.5,2.25,5.25,5.75,2.0,6.25,4.75,6.5,5.5,4.75,5.75,0.08,0.14,0.95,886.96,0.1,-23.2
2.3,2.5,0.5,1.0,3.5,0.75,2.5,3.25,4.5,3.25,1.75,3.0,1.0,1.0,-0.3,-0.42,0.33,175.7,5.4,-5.5,2.0,2.0,2.75,2.75,5.25,5.75,2.25,6.5,4.75,6.0,5.5,4.5,5.5,0.08,0.14,0.95,834.2,-0.2,-20.6
2.32,2.5,0.5,1.0,3.5,3.0,2.5,3.25,4.5,3.0,1.75,3.0,1.0,1.25,-0.23,-0.42,0.64,226.11,4.4,-0.9,2.5,1.75,3.0,2.0,5.25,5.75,2.25,6.75,4.75,6.0,5.5,4.0,4.5,0.08,0.14,0.95,791.0,-0.5,-18.5
2.34,2.5,0.5,1.0,3.5,2.5,2.5,3.25,3.5,3.0,1.75,2.75,0.25,1.25,-0.23,-0.36,0.89,272.56,5.2,3.0,1.5,1.75,3.25,3.0,5.25,6.0,2.5,7.0,5.25,5.5,5.25,3.5,4.5,0.14,0.14,0.89,771.25,-0.4,-16.9
2.36,2.5,0.5,1.75,3.5,2.5,2.5,2.75,4.0,2.75,1.75,2.75,1.0,1.25,-0.3,-0.23,1.02,316.71,5.5,1.0,3.5,1.75,4.0,3.5,5.75,6.25,2.5,7.0,5.5,5.25,5.0,3.0,3.75,0.14,0.14,0.95,780.87,-2.3,-7.9
2.38,2.5,0.5,1.25,3.5,1.75,2.5,3.0,4.25,2.75,1.75,2.75,1.0,1.25,-0.23,-0.05,1.02,347.4,5.1,-2.0,4.0,1.75,4.0,4.25,7.0,6.75,2.75,7.0,5.75,4.25,4.75,2.0,2.75,0.14,0.14,0.95,802.95,-3.0,0.9
2.4,2.25,0.5,1.25,3.5,2.5,2.25,3.25,4.0,2.75,1.75,2.75,1.0,1.0,-0.17,0.08,1.2,366.59,5.3,0.0,3.75,1.75,4.0,5.0,7.0,6.75,2.5,7.0,5.75,3.75,4.5,2.0,2.5,0.08,0.14,0.95,823.53,-3.2,2.7
2.42,2.25,0.5,1.0,3.5,2.25,2.5,2.5,3.25,2.75,1.75,2.5,1.0,1.25,-0.17,0.2,1.45,368.0,4.9,-0.4,4.0,2.0,4.0,5.75,8.0,7.25,2.75,7.0,5.75,3.5,3.75,1.75,1.75,0.08,0.14,0.95,851.71,-3.5,9.1
2.44,2.25,0.5,1.25,3.5,1.75,2.5,3.0,3.75,2.75,2.0,2.0,1.0,1.25,-0.23,0.33,1.64,359.08,4.9,-0.8,5.75,2.25,4.75,7.75,8.75,7.5,2.75,6.75,5.5,3.25,3.5,1.25,2.0,0.08,0.2,0.95,911.8,-5.0,16.4
2.46,2.25,0.5,1.25,3.5,1.75,2.0,2.75,4.0,2.75,1.75,2.75,1.0,1.25,-0.3,0.52,2.02,352.0,5.4,-3.3,7.5,3.0,6.0,9.5,9.75,7.75,3.0,6.25,4.75,2.5,3.25,0.75,1.25,0.08,0.2,0.95,1001.13,-7.2,27.2
2.48,2.25,0.5,1.5,3.25,1.75,2.0,3.25,4.0,2.5,2.0,2.0,1.0,1.25,-0.42,0.77,2.58,347.69,5.5,-1.3,8.5,3.5,6.5,11.5,11.5,8.0,2.75,5.5,3.5,2.25,2.5,0.75,1.0,0.08,0.2,0.95,1110.9,-8.0,34.6
2.5,2.25,0.5,1.5,3.5,1.75,2.5,3.0,3.5,2.75,1.75,2.25,0.5,1.0,-0.55,1.52,2.95,344.72,5.8,3.4,9.75,3.5,7.25,12.0,12.5,7.75,2.0,4.25,2.25,2.25,2.5,0.75,1.0,0.08,0.2,0.95,1203.79,-9.0,39.2
2.52,2.25,0.5,1.25,3.25,1.75,2.5,3.0,4.25,2.75,1.75,2.0,1.0,1.25,0.27,0.64,-0.05,340.18,4.6,-1.4,11.0,3.75,7.25,0.0,14.0,0.0,1.5,3.5,1.5,1.75,2.0,0.5,1.0,0.08,0.2,1.14,1102.23,-12.4,42.9
2.54,2.0,0.5,1.25,3.25,1.75,2.5,3.0,4.25,2.75,1.75,2.5,0.75,1.25,-1.23,4.39,2.27,332.71,4.4,-2.6,12.0,4.0,7.5,12.5,14.5,8.0,1.0,2.5,1.0,1.25,1.5,0.5,1.0,0.02,0.27,1.14,1151.47,-10.3,49.4
2.56,2.25,0.5,1.25,3.5,1.75,2.5,2.75,3.0,3.0,2.0,3.0,1.25,1.25,0.89,6.83,-0.42,335.34,5.7,-3.9,12.5,4.75,7.5,13.0,13.5,7.75,0.75,2.0,1.0,0.5,1.25,0.5,1.0,0.14,0.27,1.27,1174.52,-11.3,52.9
2.58,2.0,0.75,1.25,2.75,1.75,2.5,2.75,4.75,3.0,2.75,3.25,2.25,2.25,3.45,7.95,-4.8,355.41,2.9,-16.7,13.0,3.75,7.5,9.75,12.5,6.5,0.0,1.25,0.75,0.0,0.75,0.0,1.0,0.2,0.33,1.33,1168.73,-12.6,57.8
2.6,1.25,0.0,1.0,1.0,1.75,1.5,2.75,4.75,2.5,2.75,3.25,2.75,3.0,-0.73,0.14,3.33,355.96,0.9,-34.6,12.0,4.75,7.25,8.25,8.5,5.75,0.0,1.25,0.75,0.0,0.0,0.0,0.25,0.14,0.45,1.64,1055.54,-14.4,63.2
2.62,0.0,0.0,1.0,2.25,1.25,3.75,2.0,5.75,3.75,5.75,4.25,5.5,6.0,1.33,0.83,3.83,428.18,-2.6,-48.8,11.0,4.25,6.0,6.25,5.75,5.0,0.0,1.0,0.5,0.0,0.0,0.0,0.25,0.33,0.77,2.33,884.92,-15.2,64.8
2.64,0.25,0.0,1.0,2.75,1.75,4.5,3.25,6.75,4.25,5.75,5.0,5.25,6.25,-0.11,0.45,1.14,523.39,-2.1,-43.3,8.75,3.0,4.0,4.5,1.5,3.75,0.5,0.75,0.5,0.0,0.0,0.0,1.0,0.77,1.08,2.89,637.2,-16.6,60.5
2.66,1.5,0.0,0.0,1.75,1.75,3.5,3.0,6.75,4.75,5.75,5.0,5.5,6.0,-0.11,0.14,0.95,613.51,-1.9,-46.2,7.75,2.5,2.0,2.75,0.0,3.0,0.0,0.0,0.5,0.0,0.0,0.0,0.0,0.83,0.95,2.89,400.4,-19.6,73.7
2.68,1.0,0.75,0.75,2.25,1.75,4.25,4.0,7.25,5.25,7.25,6.0,6.25,6.75,-0.11,0.08,0.95,713.6,-1.4,-44.0,6.25,1.25,0.0,2.0,0.0,1.75,0.0,0.25,0.5,0.0,0.0,0.0,0.0,0.45,-0.11,3.2,247.15,-18.9,72.9
2.7,1.75,0.75,2.0,3.25,4.75,4.25,4.25,7.5,6.0,7.5,6.75,6.5,6.75,-0.11,0.14,0.95,835.74,0.3,-33.2,3.5,0.5,0.25,0.5,0.0,1.5,0.0,0.25,0.0,0.75,0.0,0.5,0.0,0.39,-1.17,1.77,114.17,-12.8,46.0
2.72,2.75,0.75,2.5,2.75,4.75,4.75,4.5,7.75,6.5,7.5,7.25,6.5,7.0,-0.11,0.08,0.95,949.96,0.9,-31.4,3.5,1.5,1.5,2.0,1.5,3.0,0.25,1.25,1.0,1.0,1.0,0.5,1.0,0.33,-0.36,0.2,78.35,-7.3,25.3
2.74,2.75,0.75,2.5,3.25,4.5,5.0,5.0,7.75,7.0,7.25,7.25,6.5,6.75,-0.11,0.08,0.95,1036.07,1.3,-30.1,3.25,1.5,1.25,2.0,3.0,3.0,1.0,1.5,0.75,0.5,1.25,0.0,1.0,0.77,-1.48,2.83,94.51,-6.3,31.2
2.76,2.5,0.5,3.0,3.5,5.0,4.75,5.0,7.75,7.0,7.25,7.25,6.25,6.75,-0.11,0.08,0.95,1091.29,1.5,-29.2,2.75,1.5,1.25,2.0,1.75,3.0,1.0,1.25,1.0,0.75,2.0,0.5,1.25,0.52,-1.55,2.08,136.4,-6.4,17.2
2.78,2.25,0.75,3.25,3.25,5.5,5.0,5.0,8.0,7.0,7.25,7.25,5.5,6.5,-0.11,0.08,0.95,1106.52,1.3,-26.9,2.5,1.5,1.25,2.0,0.5,2.75,0.0,0.0,1.0,0.75,0.25,0.5,0.5,0.2,-0.8,0.95,122.44,-9.3,35.5
2.8,2.25,0.75,3.5,3.5,5.75,5.25,5.25,8.0,7.25,7.0,7.25,5.5,6.0,-0.11,0.08,0.95,1105.61,1.7,-24.8,1.75,1.5,1.0,2.0,1.75,2.75,1.0,1.25,1.0,1.0,0.75,0.5,1.25,0.14,-0.55,0.45,144.55,-4.1,17.1
2.82,2.5,0.75,3.5,3.75,5.75,5.75,5.25,8.0,7.5,6.25,7.25,4.75,5.5,-0.11,0.08,0.95,1092.67,2.0,-21.4,2.0,1.25,1.25,2.0,1.5,3.0,1.0,1.25,1.0,0.5,1.25,0.5,1.0,0.02,-0.3,0.58,162.92,-5.7,19.3
2.84,2.75,0.5,3.5,3.75,5.75,5.25,5.5,8.0,7.75,5.75,6.75,4.5,5.0,-0.11,0.08,0.95,1064.64,2.5,-19.9,2.25,1.25,1.25,2.0,1.5,2.75,1.0,1.25,1.0,1.0,1.25,0.25,1.5,-0.17,-0.17,1.08,193.59,-5.3,15.5
2.86,3.0,0.75,3.75,4.0,5.75,5.75,5.25,8.0,8.0,5.75,7.0,4.25,4.5,-0.11,0.08,0.95,1032.34,2.8,-17.2,2.0,1.5,1.25,2.0,1.75,3.0,1.0,1.25,1.0,0.75,1.25,0.5,1.0,-0.17,-0.11,1.27,222.61,-5.4,19.6
2.88,3.25,1.25,3.75,4.25,5.75,5.75,5.5,7.75,8.25,5.25,6.75,3.25,3.25,-0.11,0.08,0.95,1005.52,3.6,-11.2,1.0,0.5,1.25,0.0,1.75,1.5,1.0,1.25,0.5,0.0,0.25,0.0,0.0,-0.05,0.08,1.27,208.57,-6.0,35.2
2.9,3.75,0.75,4.0,5.0,5.75,6.5,5.75,7.75,8.25,4.5,6.5,2.75,2.75,-0.11,0.08,0.95,987.18,4.2,-6.9,1.25,1.25,1.0,2.0,1.5,2.75,1.0,1.25,1.0,0.5,1.0,0.5,0.0,0.02,0.2,1.33,209.32,-5.5,25.2
2.92,4.0,1.25,4.75,5.5,5.75,6.0,6.0,7.5,8.25,4.25,6.0,2.75,2.5,-0.11,0.08,0.95,969.43,5.3,-3.1,1.25,0.5,0.5,0.0,1.0,1.5,0.75,0.0,0.5,0.0,0.25,0.0,0.0,0.02,0.33,1.64,163.04,-8.7,47.6
2.94,4.75,1.25,5.5,5.75,6.5,6.0,6.0,7.5,8.25,4.25,5.75,2.5,2.0,-0.11,0.08,0.95,978.04,6.1,1.3,1.0,0.5,0.5,0.0,0.25,1.5,0.75,0.0,0.5,0.0,0.5,0.0,0.0,0.08,0.45,1.89,122.32,-9.6,38.3
2.96,5.5,1.25,5.5,5.75,7.5,7.0,5.75,7.5,8.0,4.25,5.25,2.0,1.5,-0.11,0.08,0.95,1003.0,5.9,6.2,1.25,0.5,0.25,0.0,0.0,1.5,0.75,0.0,0.5,0.0,0.25,0.0,0.0,0.27,0.64,2.33,70.16,-10.1,45.3
2.98,6.25,1.75,5.75,7.25,7.75,7.0,6.0,7.0,7.75,4.25,4.5,1.5,1.25,-0.11,0.08,0.95,1042.78,6.8,12.3,1.0,0.5,0.0,0.0,0.25,1.5,0.75,0.0,0.5,0.0,0.0,0.0,0.0,0.39,1.14,2.83,48.62,-5.8,49.1
3.0,7.5,1.25,6.5,7.25,7.75,7.0,6.0,6.75,7.5,3.75,4.5,1.5,1.25,-0.11,0.08,0.95,1079.43,7.8,14.8,1.25,0.0,0.5,0.0,0.0,1.5,1.0,0.0,0.5,0.0,0.25,0.0,0.0,0.45,2.08,2.89,35.37,-12.1,39.3
3.02,8.75,1.75,7.25,8.5,8.25,7.25,6.0,6.5,7.25,3.25,4.5,1.25,1.25,-0.11,0.08,0.95,1136.64,8.9,20.0,1.0,0.5,0.0,0.0,0.0,1.5,0.75,0.25,0.5,0.0,0.25,0.0,0.0,0.39,3.02,2.27,33.91,-5.4,36.4
3.04,10.5,2.0,8.25,9.25,9.25,7.5,6.25,5.75,6.25,2.75,4.0,1.25,1.25,-0.11,0.08,0.95,1206.68,10.1,26.4,2.0,0.5,0.0,2.0,1.5,2.0,1.0,1.25,1.0,0.5,1.25,0.5,0.75,0.52,4.64,0.64,83.46,-4.6,12.3
3.06,11.5,2.25,9.25,9.5,9.25,7.75,7.0,5.75,5.5,2.0,3.25,1.25,1.25,-0.11,0.14,1.02,1278.98,11.1,30.9,0.75,1.25,1.0,1.25,1.5,2.75,1.0,1.25,1.0,0.75,1.25,0.0,0.75,-1.23,5.83,-1.86,131.38,-2.4,14.8
3.08,13.0,3.5,9.75,11.5,9.5,7.25,7.0,5.5,5.25,2.5,3.25,1.0,1.25,-0.11,0.14,1.08,1355.09,12.0,34.5,2.0,0.0,0.25,0.0,1.75,1.5,1.0,1.0,1.0,1.0,1.5,0.5,1.0,-2.05,4.14,0.89,164.3,-3.0,-5.1
3.1,14.5,3.75,10.5,10.5,9.5,7.0,6.5,5.0,4.5,2.0,3.25,1.25,1.25,-0.05,0.14,1.14,1403.67,13.0,37.2,1.0,0.5,0.5,0.0,0.5,1.5,1.0,1.25,1.0,0.25,0.75,0.75,3.0,0.89,-1.8,-0.48,175.91,0.0,-27.4
3.12,16.5,4.0,11.0,9.25,10.0,6.25,6.0,4.75,4.0,2.0,3.25,1.0,1.25,-0.11,0.2,1.2,1439.5,13.9,40.1,2.0,0.75,1.0,0.0,1.75,1.5,0.75,1.25,0.75,0.75,1.25,2.0,4.5,-0.11,-0.23,0.27,208.11,-1.6,-25.7
3.14,17.0,4.75,12.0,9.0,9.25,5.25,4.75,4.75,3.75,2.0,3.25,1.0,1.25,-0.23,0.33,1.39,1449.22,14.8,41.5,0.75,0.0,0.0,0.0,0.5,1.0,0.0,1.0,0.75,2.0,0.0,3.5,6.25,0.52,0.83,1.83,226.49,6.0,-74.0
3.16,18.0,4.75,11.5,6.5,7.75,4.25,3.25,4.75,3.75,2.25,3.25,1.25,1.25,-0.17,0.27,1.33,1416.66,15.5,40.6,0.75,0.0,0.0,0.0,0.5,1.5,0.0,1.25,1.0,5.0,0.0,5.5,7.5,-0.42,0.45,1.64,281.15,6.6,-76.3
3.18,16.5,3.75,10.5,5.5,6.75,2.5,3.25,4.5,3.25,2.0,3.25,0.75,1.25,-0.23,0.52,1.83,1321.34,16.4,40.2,3.0,1.5,1.0,1.25,1.5,3.75,0.75,3.5,2.5,7.5,3.5,7.25,7.75,0.83,0.39,2.27,411.6,1.1,-43.5
3.2,12.0,3.75,8.5,3.75,5.75,2.25,3.25,3.5,2.5,1.5,2.0,0.25,0.25,-0.86,0.7,2.2,1090.91,16.4,45.1,3.0,0.0,0.5,2.0,1.75,4.0,1.0,5.25,4.25,8.0,7.0,7.75,9.0,-0.3,0.45,1.77,618.58,1.3,-50.4
3.22,10.5,2.0,7.0,3.5,5.75,1.75,3.75,3.5,2.5,1.5,2.0,0.5,1.25,-0.98,0.64,2.33,864.69,15.0,36.1,2.75,0.75,0.5,2.0,2.5,4.0,1.0,5.75,4.75,8.25,7.75,7.75,9.0,0.08,0.2,1.02,822.19,1.2,-47.6
3.24,8.25,1.5,4.0,3.0,1.75,1.5,2.75,3.0,3.25,1.5,2.0,0.0,0.0,-0.92,0.52,2.64,610.62,15.8,33.4,3.0,1.5,1.25,2.0,2.5,4.0,1.75,6.25,5.25,8.5,7.75,7.75,9.0,0.14,0.2,0.95,983.54,0.3,-43.2
3.26,7.25,0.75,3.25,0.0,1.75,2.5,3.25,4.5,2.5,1.25,3.25,1.25,1.25,-0.61,-0.48,2.77,438.84,10.6,9.6,3.25,1.5,2.0,2.0,3.0,4.0,1.75,6.25,5.25,8.5,7.75,7.75,9.0,0.14,0.2,0.95,1083.44,-0.2,-40.5
3.28,4.0,0.5,2.75,1.0,2.25,2.5,3.25,3.25,2.5,1.25,3.0,0.0,0.5,0.02,-0.11,1.58,314.22,9.2,12.8,3.25,1.75,1.75,2.0,3.0,4.0,2.0,6.25,5.25,8.25,8.0,7.75,9.0,0.08,0.14,0.95,1122.48,-0.3,-40.2
3.3,4.0,0.5,3.0,3.5,2.25,2.5,2.75,3.25,3.25,1.5,3.0,0.0,0.0,-1.05,-1.11,2.77,271.3,10.3,17.4,3.5,1.5,1.5,1.75,1.75,4.0,2.0,6.25,5.0,8.0,7.75,7.75,8.75,0.08,0.14,0.95,1123.65,-0.3,-42.8
3.32,3.0,0.5,1.5,2.25,1.75,2.5,3.75,3.0,3.25,1.75,3.0,1.5,1.25,-0.98,-1.17,1.33,240.57,7.0,-3.7,2.25,1.25,1.25,2.0,1.5,4.0,1.75,5.75,4.75,7.75,6.75,7.0,8.25,0.08,0.14,0.95,1073.03,0.6,-45.0
3.34,3.0,0.5,2.5,2.25,3.0,2.5,3.25,3.25,3.25,1.75,3.0,1.0,1.0,-0.67,-0.67,0.52,246.11,7.3,3.6,2.25,1.25,1.25,2.0,1.75,4.0,1.5,5.75,4.75,7.5,7.0,6.5,8.25,0.08,0.14,0.89,1002.98,0.7,-44.0
3.36,2.5,0.5,1.75,2.25,2.25,2.5,3.75,3.75,3.25,1.75,2.5,1.0,1.25,-0.42,-0.55,0.2,249.52,5.8,-1.4,2.0,1.25,1.25,2.0,2.25,4.0,1.75,5.5,4.75,7.25,6.75,6.25,8.0,0.08,0.14,0.95,924.25,0.7,-42.5
3.38,2.5,0.5,2.25,2.5,2.5,2.25,3.25,3.0,3.0,2.0,2.75,1.0,1.0,-0.23,-0.42,0.52,262.59,7.1,1.3,1.75,1.5,1.5,2.0,1.75,4.0,2.0,5.25,4.75,7.25,6.75,6.25,7.75,0.08,0.14,0.95,860.84,0.3,-42.5
3.4,2.5,0.5,2.25,2.5,1.25,2.5,3.25,3.0,2.75,2.0,2.75,1.25,1.25,0.02,-0.36,0.83,273.57,7.1,-2.9,2.0,1.5,2.25,2.0,1.75,4.0,2.0,5.5,4.75,7.25,6.5,6.25,7.75,0.08,0.14,0.89,807.75,-0.2,-40.2
3.42,2.25,0.5,2.25,2.25,2.25,2.5,3.25,3.25,3.0,1.75,3.0,1.0,1.25,0.08,-0.36,1.08,292.05,6.4,-1.6,2.25,1.5,2.0,2.0,2.5,4.0,2.0,5.75,5.25,7.0,6.75,6.0,7.75,0.08,0.14,0.95,775.36,-0.2,-38.2
3.44,2.5,0.5,2.25,2.5,2.25,2.5,3.25,3.5,2.75,1.75,2.75,0.5,1.25,0.02,-0.17,1.14,311.33,6.4,2.4,3.0,1.25,2.5,2.0,3.5,4.25,2.25,6.0,5.25,7.0,6.75,5.75,7.5,0.08,0.14,0.95,775.23,-0.8,-33.3
3.46,2.25,0.5,2.25,3.25,2.25,2.5,3.25,3.25,2.5,1.25,2.5,0.75,1.0,0.02,0.02,1.2,325.21,7.2,6.3,3.0,1.75,2.75,2.0,4.25,5.0,2.75,6.0,5.75,6.75,7.0,5.5,7.25,0.08,0.14,0.95,797.07,-1.1,-28.7
3.48,2.25,0.5,2.0,3.0,2.25,2.25,3.25,3.25,3.0,2.0,2.5,1.0,1.25,0.02,0.2,1.33,340.84,6.4,-0.2,3.5,1.5,4.0,2.25,5.0,5.25,3.0,6.25,5.75,6.5,7.0,5.5,6.75,0.08,0.14,0.95,836.79,-2.2,-23.7
3.5,2.25,0.5,2.0,3.5,1.75,2.5,2.75,3.0,2.75,1.25,1.25,0.25,0.0,-0.05,0.27,1.58,328.04,8.1,17.1,3.5,1.75,4.0,3.0,5.25,5.25,3.0,6.25,6.25,6.5,7.0,5.0,6.25,0.08,0.14,0.95,880.73,-2.5,-20.5
3.52,1.5,0.5,1.0,3.5,1.75,2.5,3.5,4.25,2.75,1.75,2.0,1.0,0.0,-0.17,0.39,1.83,321.98,4.7,1.6,3.5,1.5,4.0,3.25,5.25,5.5,3.0,6.25,6.25,5.75,6.5,4.5,5.75,0.08,0.14,0.95,905.83,-2.7,-17.8
3.54,2.25,0.5,1.5,3.5,1.75,2.5,3.0,3.25,2.5,2.0,3.0,1.0,1.0,-0.3,0.52,2.08,319.93,6.0,-0.8,4.25,1.5,4.0,4.0,5.25,5.75,3.75,6.25,6.75,5.25,6.0,3.25,4.5,0.08,0.14,0.95,919.85,-3.7,-10.2
3.56,2.25,0.5,2.25,3.5,2.25,2.25,3.25,3.5,2.75,2.0,2.5,1.0,1.0,-0.48,0.83,2.33,333.89,6.8,2.4,5.0,1.5,4.25,4.5,5.5,5.75,4.0,6.25,6.75,4.75,5.5,2.5,3.25,0.08,0.14,0.95,919.97,-4.9,-2.9
3.58,2.25,0.5,1.25,3.5,2.5,1.75,3.0,3.0,2.5,2.25,1.25,1.0,0.75,-0.67,1.58,3.02,331.06,6.0,5.4,6.25,2.0,6.0,6.25,7.0,6.25,4.25,6.25,6.75,3.5,4.75,2.0,3.0,0.08,0.14,0.95,958.36,-6.8,8.8
3.6,2.25,0.5,1.75,3.25,1.75,2.0,3.25,3.75,2.5,2.75,2.5,1.25,1.0,-0.73,2.77,2.58,340.25,5.7,-3.7,7.5,2.25,7.25,8.25,8.0,6.25,5.0,5.5,6.5,3.0,3.75,1.75,2.0,0.08,0.2,0.95,1022.44,-8.9,19.2
3.62,2.25,0.5,1.5,3.5,1.75,2.5,3.25,3.75,2.5,2.0,2.5,0.25,1.0,-0.86,3.77,2.02,338.19,5.5,3.1,8.75,2.5,8.25,10.0,8.75,6.5,5.75,5.0,5.75,2.0,3.5,1.0,1.25,0.08,0.2,0.95,1106.55,-10.7,28.8
3.64,1.5,0.5,1.0,1.0,1.75,1.75,2.5,3.0,2.5,1.25,2.5,0.0,1.0,1.7,6.58,-1.05,306.89,4.1,-4.8,9.75,2.5,9.5,13.5,9.75,6.5,6.0,3.5,3.75,2.25,2.75,0.75,1.75,0.08,0.2,0.95,1201.93,-11.9,35.7
3.66,1.25,0.5,1.0,1.0,1.25,1.25,2.0,3.0,3.25,1.75,2.0,0.25,0.0,3.89,6.33,-1.86,275.25,5.0,-6.4,11.0,2.75,11.0,14.0,11.5,5.75,6.0,2.5,2.25,1.5,2.5,0.5,1.75,0.08,0.2,1.2,1288.15,-13.5,42.8
3.68,1.25,0.25,1.75,1.0,1.75,1.5,2.75,4.75,2.5,2.0,3.0,1.25,1.25,0.02,-1.11,0.02,270.13,3.3,-17.9,12.5,2.0,12.0,13.5,9.5,5.75,5.25,1.25,1.5,1.5,2.0,0.5,1.5,0.14,0.2,1.45,1308.2,-15.5,47.0
3.7,2.25,0.5,1.25,2.5,1.25,2.5,2.25,3.5,3.25,2.75,3.0,1.75,1.75,0.2,0.83,1.95,286.98,4.0,-14.6,13.5,2.25,12.5,11.5,9.25,4.0,3.0,1.25,1.5,1.5,0.25,0.75,1.0,0.08,0.27,1.45,1266.74,-17.1,52.4
3.72,2.25,0.5,1.0,2.25,2.25,2.5,2.5,4.75,3.5,4.25,3.75,5.5,5.25,-0.11,0.45,1.52,364.35,1.1,-35.7,14.0,2.25,12.5,10.0,8.5,4.0,2.0,1.25,1.25,1.25,1.25,0.5,1.0,0.14,0.39,1.58,1191.49,-17.5,52.4
3.74,1.0,0.5,2.0,2.5,2.25,3.25,2.0,5.25,4.75,5.0,5.25,6.5,6.75,-0.55,0.7,3.89,492.01,0.4,-41.7,14.0,2.5,11.0,7.75,5.5,3.5,2.75,1.25,1.0,0.75,1.25,0.5,1.0,0.27,0.52,1.89,1060.27,-19.1,53.7
3.76,1.25,0.5,1.5,3.5,2.25,3.0,3.25,6.75,5.25,5.75,6.0,6.5,6.75,0.02,0.08,1.08,636.61,0.6,-40.5,11.5,2.25,9.5,6.25,1.5,3.0,3.75,1.25,1.0,0.75,1.0,0.5,1.0,0.58,0.95,2.77,875.29,-20.8,51.2
3.78,1.25,0.5,0.25,3.5,2.5,3.5,3.5,6.75,5.75,6.75,6.0,6.5,7.0,-0.05,0.08,0.95,752.43,-0.7,-42.6,9.25,1.5,7.75,4.5,0.0,3.0,2.25,0.5,1.0,0.75,1.5,0.5,0.75,0.64,1.08,2.77,660.26,-21.4,47.9
3.8,0.0,0.5,1.25,3.5,4.25,4.75,4.25,7.5,6.5,6.5,6.75,7.0,7.0,-0.11,0.08,0.95,868.01,-0.8,-39.0,6.25,0.5,6.0,2.0,0.0,1.5,1.75,1.25,0.75,0.0,1.0,0.0,0.25,0.58,0.2,3.2,431.15,-23.5,50.4
3.82,2.5,0.5,3.0,3.5,4.75,4.75,4.5,7.5,7.0,7.5,7.5,7.25,7.75,-0.11,0.08,0.95,995.82,1.3,-32.5,3.5,0.5,2.75,1.25,0.0,1.5,1.0,0.0,0.75,0.0,0.0,0.0,0.25,0.39,-0.73,1.77,255.29,-22.2,57.6
3.84,2.5,0.5,3.0,3.75,4.5,4.75,4.5,7.75,7.0,7.75,8.0,7.25,7.75,-0.11,0.08,0.95,1100.83,1.4,-33.1,3.5,1.25,1.25,2.0,0.0,2.5,1.0,1.25,1.0,0.75,1.25,0.5,1.0,0.58,0.02,2.14,156.42,-9.7,20.5
3.86,2.25,0.75,3.0,3.5,3.75,5.0,4.5,7.75,7.0,7.5,8.0,7.25,8.0,-0.11,0.08,0.95,1174.62,1.2,-34.4,3.5,1.5,3.0,2.25,1.5,2.25,1.0,0.75,1.0,0.75,1.25,0.5,1.0,0.52,-1.55,1.95,116.88,-12.3,29.9
3.88,2.25,0.5,2.75,3.5,4.75,4.5,4.5,7.5,7.0,7.5,8.0,7.25,7.75,-0.11,0.08,0.95,1204.4,1.2,-33.9,3.0,1.5,2.5,2.0,1.5,2.0,1.0,1.25,1.0,0.75,1.0,0.5,1.0,0.08,-0.8,1.33,115.07,-10.6,26.4
3.9,2.25,0.5,1.75,3.5,3.75,4.0,4.25,7.5,7.0,7.5,7.75,7.0,7.75,-0.11,0.08,0.95,1172.65,0.8,-37.3,2.5,1.5,2.75,2.0,1.5,1.75,1.0,1.25,1.0,0.75,1.25,0.5,1.0,0.08,-0.67,0.39,131.12,-10.8,23.6
3.92,2.5,0.75,2.25,3.5,2.5,4.25,4.25,7.5,6.75,7.75,7.25,7.25,7.75,-0.11,0.08,0.95,1118.18,1.1,-37.4,2.5,1.0,2.25,2.0,1.5,1.75,1.0,1.25,1.0,0.75,1.25,0.5,0.75,0.08,-0.42,0.14,145.57,-10.3,22.3
3.94,2.25,0.5,2.5,3.5,3.0,3.75,4.25,7.5,6.75,7.25,7.25,6.5,7.5,-0.11,0.08,0.95,1054.05,1.3,-36.2,2.0,1.25,2.25,1.75,1.5,2.0,1.0,1.0,1.0,0.5,1.25,0.5,1.0,-0.23,-0.3,0.33,154.87,-9.5,21.3
3.96,2.25,0.5,2.25,3.5,2.5,4.0,3.5,7.5,7.0,7.25,7.25,6.75,7.25,-0.11,0.08,0.95,995.94,1.1,-37.6,2.0,1.25,2.25,2.0,1.5,1.75,1.0,1.0,1.0,0.5,1.75,0.5,1.25,-0.3,-0.36,0.7,169.51,-9.8,17.0
3.98,2.25,0.5,1.25,3.5,3.0,4.75,4.25,7.5,7.0,7.25,7.25,6.5,7.0,-0.11,0.08,0.95,953.59,0.3,-36.6,2.25,1.25,1.75,2.0,1.5,1.5,1.0,1.75,1.0,0.5,1.25,0.5,1.5,-0.11,-0.3,1.08,193.84,-8.2,14.9
4.0,2.5,0.75,2.25,3.5,3.75,5.0,4.5,7.5,7.25,7.25,7.25,6.25,6.75,-0.11,0.08,0.95,939.31,1.1,-31.7,2.0,1.25,1.25,2.0,1.5,2.0,1.0,1.0,1.0,0.75,1.5,0.5,0.75,0.02,-0.11,1.14,212.1,-7.8,18.5
4.02,2.5,0.75,3.5,3.5,5.25,5.0,4.5,7.5,7.5,7.25,7.25,6.25,6.75,-0.11,0.08,0.95,949.49,1.8,-27.6,2.0,1.5,1.5,2.0,1.5,2.0,1.0,1.25,1.0,0.75,1.25,0.5,1.0,0.14,0.08,1.14,228.1,-7.6,18.9
4.04,2.5,0.75,3.25,3.5,5.75,5.0,5.0,7.5,8.0,6.0,7.25,5.5,6.0,-0.11,0.08,0.95,950.79,2.2,-24.2,2.0,1.25,1.5,2.0,1.5,2.0,1.0,1.25,1.0,0.75,1.25,0.5,0.75,0.33,0.2,1.27,236.31,-7.9,19.6
4.06,3.25,0.75,3.25,3.75,5.75,5.75,5.0,7.5,8.25,5.75,7.25,4.75,5.25,-0.11,0.08,0.95,958.13,2.6,-19.8,1.75,1.75,1.25,1.25,1.5,1.75,1.0,1.25,1.0,0.5,1.25,0.5,1.0,0.52,0.33,1.33,233.37,-7.1,17.6
4.08,4.0,0.75,4.0,3.75,5.75,5.75,5.25,7.5,8.25,5.25,7.25,4.25,4.5,-0.11,0.08,0.95,967.42,3.7,-15.2,2.0,1.25,1.25,2.0,1.5,1.75,1.0,1.25,1.0,0.75,1.0,0.5,1.0,0.89,0.58,1.7,225.28,-7.4,18.1
4.1,4.5,1.25,3.75,3.75,5.75,6.25,5.5,7.5,8.75,4.5,7.0,3.5,3.25,-0.05,0.08,0.95,972.94,4.3,-9.4,2.0,0.75,1.25,0.0,1.5,1.5,1.0,1.25,0.5,0.0,1.25,0.0,1.25,1.39,1.08,2.33,204.35,-6.9,16.2
4.12,5.75,2.0,3.5,5.0,5.75,6.75,5.75,7.25,8.75,4.25,6.5,3.0,2.75,-0.05,0.08,0.95,992.82,5.2,-2.2,1.25,0.25,1.0,0.0,1.0,1.5,1.0,1.25,0.75,0.0,1.0,0.5,0.0,-2.05,6.83,4.2,175.42,-7.3,13.5
4.14,7.5,2.0,5.0,5.5,6.5,7.0,6.0,6.75,8.5,4.25,6.0,2.5,2.25,-0.11,0.02,0.95,1039.26,6.8,5.5,0.75,0.5,1.0,0.0,0.0,0.0,0.5,0.25,0.75,0.0,0.0,0.5,1.0,1.45,5.02,-1.11,126.88,-14.6,-3.4
4.16,9.5,2.25,5.75,5.75,7.75,7.25,6.25,6.5,8.0,4.25,5.25,1.75,1.5,-0.11,0.08,0.95,1103.14,7.9,14.2,1.25,0.5,0.5,0.0,0.0,1.5,0.5,0.0,0.75,0.0,0.0,0.5,1.0,1.77,4.02,1.2,94.0,-6.8,9.0
4.18,11.5,3.75,7.0,7.25,7.75,7.5,6.25,5.75,6.75,3.25,4.5,1.75,1.25,-0.11,0.08,1.02,1185.73,10.0,24.1,1.0,0.25,1.0,0.0,0.0,0.5,0.5,0.5,0.75,0.75,0.0,2.0,1.0,0.08,3.7,-0.05,77.79,-8.1,-29.4
4.2,12.5,5.0,8.25,6.75,8.5,7.0,4.75,5.25,5.75,3.0,3.25,1.5,1.25,-0.17,0.14,1.27,1250.81,10.9,31.0,2.0,0.0,0.25,0.5,1.0,3.0,0.0,2.25,1.0,3.75,2.5,4.5,4.75,-2.92,3.89,1.45,166.47,2.7,-48.5
4.22,14.5,5.25,9.25,7.0,8.0,6.5,3.5,4.75,4.75,3.0,3.25,1.25,1.25,-0.17,0.2,1.45,1296.84,12.3,35.3,2.25,0.5,0.0,1.25,1.75,3.25,0.5,2.75,1.25,4.5,2.5,4.75,5.5,-2.36,0.45,1.64,260.94,2.5,-41.4
4.24,14.5,5.5,9.0,5.0,6.75,5.25,1.0,4.5,4.25,3.0,3.25,1.5,1.25,-0.17,0.27,1.7,1260.89,12.7,34.8,2.75,0.5,1.0,1.5,1.75,3.75,0.75,2.75,1.5,4.75,3.25,4.5,5.5,0.33,0.2,0.95,358.56,0.5,-34.7
4.26,13.0,5.0,8.25,4.75,5.75,5.0,0.75,4.5,3.5,2.0,3.25,1.0,1.25,-0.36,0.45,2.08,1163.0,12.8,36.0,2.5,0.5,1.0,1.5,1.75,4.0,0.75,3.75,1.5,5.25,3.0,4.5,5.75,0.14,0.14,0.89,440.79,1.8,-36.1
4.28,9.5,3.75,6.0,3.5,5.25,2.5,0.75,4.75,2.75,1.75,2.0,0.5,0.5,-0.67,0.64,2.2,956.42,12.4,36.2,2.25,0.5,1.0,2.0,1.75,4.0,1.0,4.0,1.5,6.0,3.25,4.75,5.75,0.08,0.2,0.95,511.95,1.8,-37.0
4.3,7.25,2.0,2.5,2.5,0.75,2.5,0.75,3.0,3.5,1.75,2.0,0.5,0.25,-0.67,0.45,2.39,681.71,12.1,24.6,1.75,0.75,1.25,2.0,1.75,4.0,1.0,5.25,1.5,6.75,3.5,5.5,6.75,0.14,0.14,0.95,577.48,2.6,-41.2
4.32,5.75,1.25,1.0,0.0,0.0,2.25,1.0,3.0,2.5,0.5,2.0,0.5,0.0,-0.3,0.14,2.95,417.73,11.1,18.8,2.25,0.75,1.0,2.0,1.75,4.0,0.5,6.0,1.5,7.5,4.0,4.75,7.75,0.14,0.14,0.95,643.34,3.5,-42.0
4.34,3.75,1.0,0.25,2.75,0.0,3.0,1.5,3.0,3.5,1.75,2.0,1.25,0.25,0.2,-1.73,0.27,285.47,6.3,2.2,3.0,0.75,1.0,2.0,1.75,4.5,0.0,6.75,1.5,8.0,5.5,6.25,8.25,0.14,0.14,0.95,737.34,2.9,-43.7
4.36,2.75,0.75,1.25,3.25,2.25,2.5,1.75,3.5,3.5,1.75,3.25,1.0,1.25,-0.05,-2.73,2.39,238.26,5.4,-1.5,3.0,0.5,1.0,1.5,1.75,4.75,0.0,7.0,1.25,8.0,4.75,6.25,8.25,0.14,0.14,0.95,794.11,3.7,-44.7
4.38,2.5,0.5,1.75,3.0,1.75,3.0,1.75,3.5,3.5,1.75,3.0,1.0,1.25,0.27,-2.36,1.89,228.58,5.3,-2.6,2.5,0.0,1.0,2.0,1.75,5.75,0.0,7.25,1.25,8.5,4.75,6.25,8.5,0.14,0.14,0.95,836.08,4.6,-45.6
4.4,2.25,0.5,1.75,3.25,1.75,2.75,3.0,3.0,3.25,1.25,3.25,0.25,1.25,-0.17,-1.11,2.2,233.15,6.7,2.2,1.25,0.0,1.0,0.0,1.5,4.0,0.0,7.0,0.75,7.75,3.25,5.5,8.25,0.2,0.14,0.95,784.13,6.8,-56.0
4.42,1.5,0.25,1.5,1.0,0.0,1.25,2.0,3.0,2.5,1.5,2.0,1.0,0.0,-0.48,-0.05,2.33,196.93,7.3,-12.0,2.0,0.0,0.0,0.0,0.5,4.0,0.0,7.0,0.75,7.75,3.5,5.5,8.0,0.2,0.14,0.95,715.83,7.2,-59.3
4.44,1.25,0.5,1.5,1.0,0.5,1.5,2.0,3.0,2.5,1.0,2.0,0.0,0.0,-0.23,0.89,2.27,161.73,6.7,-0.4,1.0,0.0,0.0,0.0,1.25,4.0,0.0,7.0,0.5,7.75,2.75,5.5,8.25,0.27,0.14,0.89,634.86,8.7,-60.8
4.46,1.25,0.5,1.0,1.0,0.0,1.25,2.25,3.0,2.5,1.0,2.0,0.0,0.0,-0.17,1.08,2.2,128.26,6.7,-5.1,1.0,0.0,0.0,0.0,0.0,4.0,0.0,7.0,0.25,7.75,2.25,5.5,0.0,0.27,0.14,0.95,522.09,7.9,-51.6
4.48,1.25,0.5,0.75,0.75,0.0,1.25,2.0,3.0,2.5,0.5,2.0,0.0,0.0,0.27,1.52,2.64,121.69,6.5,-5.3,1.25,0.0,0.0,0.0,0.0,4.0,0.0,7.0,0.25,7.75,2.5,5.5,8.0,0.33,0.08,0.95,492.01,8.8,-64.1
4.5,1.25,0.5,1.5,1.0,1.75,1.25,2.0,3.0,2.5,0.75,1.75,0.0,0.0,1.08,1.77,2.95,144.76,6.6,6.0,2.0,0.5,1.0,1.0,0.0,4.5,0.0,7.75,1.0,8.25,3.5,6.25,9.0,0.58,0.14,0.89,520.66,5.6,-54.2
4.52,1.25,0.5,1.0,1.0,0.5,1.5,2.25,3.0,2.5,0.5,1.5,0.0,0.0,1.58,1.83,2.83,167.39,6.5,2.7,2.0,0.5,0.5,0.75,1.5,4.0,0.0,7.75,1.0,7.75,3.0,6.0,9.0,1.39,0.14,0.83,568.69,6.1,-52.1
4.54,1.25,0.5,1.0,1.0,0.0,1.25,2.5,3.0,2.5,1.25,1.75,0.0,0.0,1.45,1.89,2.33,184.02,6.5,-4.9,2.0,0.5,0.0,1.25,1.5,4.0,0.0,7.25,0.75,7.25,3.5,5.5,8.75,1.64,0.27,1.08,593.98,6.2,-51.3
4.56,1.25,0.25,1.0,1.0,0.5,1.25,2.25,3.0,2.5,1.25,1.25,0.0,0.0,0.83,2.02,1.45,184.05,5.6,-2.3,1.75,0.5,0.5,1.0,1.5,4.0,0.0,7.0,0.75,6.5,3.25,4.5,7.75,1.58,0.45,1.39,585.62,6.0,-47.9
4.58,1.25,0.5,1.0,0.75,0.0,1.5,2.5,3.0,2.5,1.0,2.0,0.0,0.0,0.52,2.02,0.64,180.74,6.3,-5.4,2.25,0.25,0.0,0.5,0.0,4.0,0.0,6.0,0.75,3.5,1.5,2.0,5.75,2.2,-0.3,1.7,482.7,7.4,-42.4
4.6,1.25,0.5,0.75,1.0,0.0,1.25,2.25,3.0,2.5,1.25,1.75,0.0,0.0,0.77,1.77,0.39,178.27,5.7,-6.4,2.0,0.5,0.0,1.25,1.5,3.25,0.0,4.0,1.0,2.25,0.0,0.75,2.75,3.45,-0.92,1.39,363.06,5.3,-12.8
4.62,2.25,0.75,1.25,1.0,1.75,1.25,2.5,4.0,2.5,2.0,2.0,0.5,1.25,1.33,1.33,0.95,216.66,4.3,-6.4,1.75,0.0,0.0,0.0,0.0,1.5,0.0,1.25,0.0,0.5,0.0,0.0,0.5,1.02,1.45,3.77,232.24,2.0,12.3
4.64,1.25,0.25,1.75,1.0,2.5,1.25,3.0,4.0,2.5,1.75,3.0,1.0,0.0,1.7,0.83,1.33,251.62,5.3,-7.5,1.75,0.0,0.0,0.0,0.0,1.25,0.0,0.25,0.0,0.25,0.0,0.0,0.0,0.58,-0.42,2.52,119.66,-6.6,51.7
4.66,2.25,0.5,1.0,2.5,0.0,2.5,2.25,3.5,3.0,1.75,3.0,1.0,1.25,1.45,0.7,1.58,286.23,5.1,-11.7,1.75,0.0,0.25,0.0,0.0,1.25,0.0,0.0,0.25,0.75,0.25,0.0,0.25,0.95,-0.23,1.64,26.6,-6.6,22.5
4.68,2.25,0.5,1.75,2.5,1.75,2.5,3.0,3.75,3.0,1.75,2.5,1.0,1.0,1.27,0.52,1.95,315.88,5.6,-1.9,1.5,0.0,0.25,0.0,0.0,0.5,0.0,0.0,0.25,0.0,0.75,0.0,0.5,1.83,-1.17,1.45,0.0,-14.3,13.2
4.7,2.25,0.5,1.25,2.25,2.5,2.5,2.75,3.5,2.75,1.75,2.75,1.0,1.25,1.14,0.08,2.27,340.79,4.4,-3.1,1.0,0.0,0.25,0.0,0.0,0.5,0.25,0.0,0.0,1.75,0.25,0.5,0.25,2.52,-1.61,1.52,0.0,-2.5,-23.6
4.72,2.25,0.5,1.75,2.5,2.5,2.5,3.0,3.75,3.0,1.75,3.0,1.0,1.0,1.02,-0.17,1.83,360.91,5.4,-1.4,1.0,0.0,1.0,0.0,0.0,1.25,0.5,0.5,0.25,0.0,0.25,0.0,0.0,1.7,-1.86,1.7,0.0,-11.4,35.1
4.74,2.25,0.5,1.5,2.5,1.25,2.75,2.75,4.0,3.0,1.75,3.0,1.0,1.25,0.95,-0.48,1.39,366.57,4.8,-6.4,1.5,0.0,0.5,0.0,0.0,1.5,0.25,0.25,0.25,0.0,0.25,0.0,0.0,0.14,-1.3,1.95,0.0,-9.9,43.5
4.76,2.25,0.5,1.5,2.25,2.25,2.5,3.0,4.0,3.0,1.75,3.0,1.0,1.0,0.83,-0.92,1.58,374.29,4.9,-3.6,1.25,0.0,0.5,0.0,0.0,1.5,0.5,0.0,0.25,0.0,0.0,0.0,0.0,-0.23,-0.17,1.2,0.0,-10.8,53.2
4.78,2.25,0.5,1.5,2.5,2.25,2.75,2.75,4.0,3.25,1.75,3.0,1.0,1.25,0.89,-1.3,1.52,376.73,4.5,-4.1,1.0,0.0,0.25,0.0,0.0,1.5,0.5,0.0,0.25,0.0,0.0,0.0,0.0,-0.48,0.89,-0.3,0.0,-6.7,49.2
4.8,2.25,0.5,1.5,2.25,0.0,2.5,2.75,4.0,3.25,1.75,3.0,1.0,1.0,1.02,-1.48,1.39,362.62,5.7,-10.3,1.75,0.25,0.25,0.0,0.0,1.5,0.75,0.0,0.25,0.0,0.25,0.0,0.0,-0.55,1.08,-0.55,4.62,-12.4,52.4
4.82,2.25,0.5,1.0,2.5,3.0,2.5,2.5,4.0,3.25,1.75,3.0,1.0,1.25,0.58,-1.55,1.33,363.01,3.8,-4.0,1.0,0.25,0.0,0.0,0.0,1.5,0.75,0.0,0.25,0.0,0.0,0.0,0.0,-0.36,0.7,-0.42,28.44,-5.6,51.5
4.84,2.25,0.5,1.75,2.5,1.75,2.5,2.5,4.25,3.25,1.75,3.0,1.0,1.25,0.27,-1.8,0.95,358.38,4.9,-5.5,1.5,0.0,0.5,0.0,0.0,1.5,0.75,0.0,0.25,0.0,0.0,0.0,0.0,0.27,0.08,-0.48,49.34,-12.9,55.1
4.86,2.25,0.5,1.25,2.0,1.75,2.5,3.0,4.25,3.0,1.75,2.25,1.0,1.25,0.08,-2.17,0.64,348.46,4.0,-5.6,1.5,0.0,0.75,0.0,0.0,1.25,0.75,0.0,0.25,0.0,0.0,0.0,0.0,1.14,-0.98,-0.55,63.6,-16.7,56.7
4.88,2.25,0.5,1.25,2.25,2.25,2.5,2.75,3.75,3.0,1.75,2.25,1.0,1.25,0.02,-2.48,0.39,341.42,4.3,-3.1,1.0,0.0,0.25,0.0,0.0,1.5,1.0,0.0,0.25,0.0,0.0,0.0,0.0,1.58,-1.67,-0.23,63.26,-8.5,47.7
4.9,2.25,0.5,1.25,2.0,1.75,2.5,2.75,4.0,3.25,1.75,3.0,1.0,1.25,-0.17,-2.3,0.33,336.32,4.4,-7.7,1.5,0.25,0.0,0.0,0.0,1.5,0.75,0.0,0.25,0.0,0.0,0.0,0.0,1.08,-1.11,-0.05,61.72,-9.3,57.3
4.92,2.25,0.5,1.75,2.5,1.25,2.5,2.75,4.0,3.25,1.75,3.0,1.0,1.0,-0.3,-2.11,0.14,333.08,5.7,-5.3,1.0,0.0,0.5,0.0,0.0,0.5,1.0,0.0,0.25,0.0,0.0,0.0,0.0,0.64,-0.48,-0.05,55.9,-22.7,53.8
4.94,2.25,0.5,1.25,2.25,1.25,2.25,2.75,4.25,3.0,1.75,3.25,1.0,1.0,-0.3,-1.55,-0.17,329.24,4.9,-8.4,1.0,0.25,0.0,0.0,0.0,1.5,0.75,0.0,0.25,0.0,0.0,0.0,0.0,0.27,0.02,-0.23,53.49,-5.6,51.5
4.96,1.0,0.25,1.25,1.0,1.75,1.25,2.5,3.75,3.25,1.75,3.0,1.0,1.0,-0.17,-0.86,-0.3,308.85,3.8,-18.8,1.0,0.25,0.5,0.0,0.0,1.5,0.75,0.0,0.25,0.0,0.0,0.0,0.0,0.14,-0.11,-0.48,54.45,-10.1,52.8
4.98,1.0,0.25,0.75,0.75,0.0,1.25,2.0,2.75,2.5,1.75,1.25,1.0,0.0,-0.11,-0.17,-0.36,265.71,4.3,-18.3,1.0,0.25,0.5,0.0,0.0,1.25,0.75,0.0,0.25,0.0,0.0,0.0,0.0,0.33,-0.05,-0.3,57.23,-12.3,54.0
5.0,1.0,0.25,1.0,0.75,0.75,1.25,2.5,3.0,2.5,0.75,1.25,0.0,0.0,-0.11,0.52,-0.3,223.87,5.7,-1.0,0.75,0.25,0.0,0.0,0.0,1.5,1.0,0.0,0.25,0.0,0.0,0.0,0.0,0.52,0.02,-0.17,56.62,-4.4,47.0
5.02,1.0,0.25,1.0,0.75,0.75,1.25,1.75,3.0,2.5,0.5,1.25,0.0,0.0,-0.17,1.39,-0.11,186.95,5.4,-0.4,0.75,0.25,0.25,0.0,0.0,1.5,0.75,0.25,0.25,0.0,0.0,0.0,0.0,0.7,-0.05,-0.11,57.08,-4.4,42.6
5.04,1.0,0.25,1.0,1.75,0.0,1.75,3.0,3.5,3.0,2.0,2.25,1.0,0.0,-0.3,2.2,-0.05,191.42,5.0,-15.6,1.25,0.0,0.25,0.0,0.0,1.5,1.0,0.0,0.25,0.0,0.0,0.0,0.0,0.77,0.08,-0.42,57.08,-10.3,50.9
5.06,2.25,0.5,1.0,2.0,0.5,2.5,2.25,4.25,2.5,0.75,2.75,0.0,1.25,-0.48,2.52,-0.23,213.71,4.3,-3.6,0.75,0.25,0.0,0.0,0.0,1.5,1.0,0.0,0.25,0.0,0.0,0.0,0.0,0.89,0.08,-0.8,56.14,-4.4,47.0
5.08,2.25,0.5,0.25,2.5,0.0,1.75,2.5,3.0,2.75,1.75,2.25,1.0,1.25,-0.98,2.45,-0.55,237.82,5.2,-12.5,1.0,0.5,0.25,0.0,0.0,1.5,0.75,0.0,0.25,0.0,0.0,0.0,0.0,0.89,0.02,-0.73,58.25,-8.3,55.4
5.1,2.25,0.5,1.75,2.25,2.5,1.75,2.75,3.75,2.75,1.75,3.0,1.0,1.0,-1.23,1.95,-0.92,274.14,5.9,-2.8,1.5,0.25,0.0,0.0,0.0,1.5,1.0,0.0,0.25,0.0,0.0,0.0,0.0,0.64,-0.11,-0.55,61.27,-10.1,56.4
5.12,2.25,0.5,1.0,2.25,2.25,1.75,2.75,3.75,2.75,1.75,2.5,1.0,1.0,-1.36,1.2,-1.23,293.09,4.9,-4.1,1.0,0.25,0.0,0.0,0.0,1.5,0.75,0.0,0.25,0.0,0.0,0.0,0.0,0.33,-0.05,-0.36,61.01,-5.6,51.5
5.14,1.0,0.5,0.75,0.75,0.0,1.25,2.5,2.75,2.5,0.5,1.25,0.0,0.0,-1.42,0.77,-1.23,266.13,6.7,-1.8,1.25,0.5,0.25,0.0,0.0,1.5,1.0,0.0,0.25,0.0,0.0,0.0,0.0,-0.05,0.27,-0.36,64.3,-10.6,57.0
5.16,0.75,0.25,1.0,1.0,0.0,1.0,2.0,2.75,2.5,0.75,0.75,0.0,0.0,-1.36,0.14,-1.11,228.29,6.4,-3.2,0.75,0.25,0.0,0.0,0.0,1.5,1.0,0.0,0.25,0.0,0.0,0.0,0.0,-0.23,0.45,-0.42,61.62,-4.4,47.0
5.18,1.0,0.25,1.0,0.75,1.25,1.0,2.25,3.0,2.5,0.5,0.5,0.0,0.0,-1.17,-0.17,-0.92,198.22,5.7,6.0,1.25,0.25,0.0,0.0,0.0,1.5,0.75,0.0,0.25,0.0,0.0,0.0,0.0,-0.42,0.7,-0.48,60.58,-7.6,54.6
5.2,1.0,0.25,0.25,1.0,0.0,1.0,2.0,3.0,2.5,1.0,1.0,0.0,0.0,-0.73,-0.23,-0.98,178.12,4.0,-9.1,1.0,0.0,0.0,0.0,0.0,1.5,1.0,0.0,0.25,0.0,0.0,0.0,0.0,-0.55,0.89,-0.61,56.32,-6.1,46.5
5.22,0.75,0.25,0.25,1.0,0.75,1.0,2.5,2.75,2.5,1.5,1.25,1.0,0.0,-0.3,-0.05,-1.17,178.13,3.6,-16.4,0.75,0.25,0.0,0.0,0.0,1.5,1.0,0.0,0.25,0.0,0.0,0.0,0.0,-0.73,1.08,-0.86,55.15,-4.4,47.0
5.24,1.0,0.5,1.25,1.0,0.0,1.25,2.0,3.25,2.5,0.5,1.0,0.0,0.0,-0.05,0.14,-1.3,177.8,6.7,1.2,0.5,0.25,0.0,0.0,0.0,1.5,1.0,0.0,0.25,0.0,0.0,0.0,0.0,-0.8,1.14,-0.92,51.5,-1.9,42.9
5.26,1.0,0.25,1.0,1.0,0.75,1.0,2.25,3.0,2.5,0.5,1.25,0.0,0.0,0.08,0.2,-1.23,177.62,6.6,0.5,1.0,0.25,0.0,0.0,0.0,1.5,1.0,0.0,0.25,0.0,0.0,0.0,0.0,-0.86,1.2,-1.17,52.15,-6.6,50.6
5.28,0.75,0.0,1.0,1.0,1.25,1.25,2.5,3.0,2.5,0.5,1.25,0.0,0.0,0.2,0.08,-1.17,173.62,5.3,0.1,0.75,0.5,0.0,0.0,0.0,1.5,0.75,0.0,0.25,0.0,0.0,0.0,0.0,-0.92,1.14,-1.17,52.64,-4.0,51.9
5.3,0.75,0.25,1.0,0.75,0.0,1.0,2.25,3.0,2.5,0.5,1.0,0.0,0.0,0.2,-0.11,-1.11,166.58,6.5,-4.9,1.0,0.25,0.0,0.0,0.0,1.5,0.75,0.0,0.25,0.0,0.0,0.0,0.0,-0.98,1.08,-1.11,53.8,-5.6,51.5
5.32,0.75,0.25,0.75,1.0,1.25,1.0,2.25,3.0,2.5,0.5,0.5,1.0,0.0,0.2,-0.17,-1.05,170.71,5.1,-3.9,0.75,0.5,0.0,0.0,0.0,1.5,1.0,0.0,0.25,0.0,0.0,0.0,0.0,-1.05,0.95,-1.05,54.54,-5.1,51.0
5.34,1.0,0.5,1.0,1.0,1.25,1.0,2.25,3.0,2.5,0.5,1.75,0.0,0.0,0.2,-0.3,-0.98,179.19,6.5,1.9,0.25,0.0,0.0,0.0,0.0,1.25,1.0,0.0,0.25,0.0,0.0,0.0,0.0,-0.92,0.83,-0.98,48.3,0.1,31.1
5.36,1.0,0.25,1.5,1.0,0.0,0.75,2.0,2.0,2.5,0.5,0.75,0.0,0.0,0.08,-0.36,-0.98,181.01,11.1,5.1,1.25,0.5,0.0,0.0,0.0,1.5,0.75,0.0,0.25,0.0,0.0,0.0,0.0,-0.92,0.7,-0.92,52.13,-7.9,57.7
5.38,0.75,0.25,1.0,1.0,1.25,1.0,2.25,2.5,2.5,0.5,0.0,0.0,0.0,0.14,-0.42,-0.92,185.48,6.1,10.5,1.0,0.25,0.0,0.0,0.0,1.5,1.0,0.0,0.25,0.0,0.0,0.0,0.0,-0.8,0.52,-0.86,52.57,-6.6,50.6
5.4,1.0,0.25,0.5,0.75,0.0,0.75,2.25,3.5,2.5,0.5,1.25,0.0,0.0,0.08,-0.42,-0.92,177.91,5.3,-9.4,1.0,0.25,0.0,0.0,0.0,1.5,1.0,0.0,0.25,0.0,0.0,0.0,0.0,-0.55,0.33,-0.8,56.71,-6.6,50.6
5.42,0.75,0.0,1.0,1.0,0.5,0.75,2.25,3.0,2.5,0.5,1.5,0.0,0.0,0.02,-0.42,-0.92,176.01,6.8,-6.5,1.0,0.25,0.0,0.0,0.0,1.5,1.0,0.0,0.25,0.0,0.0,0.0,0.0,-0.3,0.14,-0.8,57.12,-6.6,50.6
5.44,0.75,0.0,1.0,1.0,1.25,1.0,2.25,3.0,2.5,0.5,1.0,0.0,0.0,0.02,-0.42,-0.86,178.96,5.5,0.6,1.25,0.0,0.25,0.0,0.0,1.5,1.0,0.0,0.25,0.0,0.0,0.0,0.0,-0.11,0.02,-0.73,59.86,-10.3,50.9
5.46,0.75,0.25,0.75,1.0,1.25,0.75,2.25,3.0,2.5,0.5,1.25,0.0,0.0,0.02,-0.48,-0.92,183.77,5.6,-0.5,1.25,0.25,0.0,0.0,0.0,1.5,1.0,0.0,0.25,0.0,0.0,0.0,0.0,-0.05,-0.05,-0.61,60.6,-8.4,53.7
5.48,0.75,0.25,0.75,1.0,0.0,1.25,2.5,2.75,2.5,0.5,1.25,0.0,0.0,-0.05,-0.48,-0.92,182.69,6.3,-4.6,0.75,0.25,0.0,0.0,0.0,1.5,1.0,0.0,0.25,0.0,0.0,0.0,0.0,0.14,-0.05,-0.55,58.81,-4.4,47.0
5.5,2.0,0.75,1.0,1.5,1.75,1.75,3.0,3.75,2.75,2.0,2.0,1.0,0.25,-0.05,-0.42,-0.92,222.22,4.9,-3.0,0.75,0.25,0.0,0.0,0.0,1.5,1.0,0.0,0.25,0.0,0.0,0.0,0.0,0.27,0.08,-0.48,56.73,-4.4,47.0
5.52,2.25,0.75,1.25,2.25,1.75,2.0,3.25,4.0,2.75,2.0,2.0,1.25,0.25,-0.05,-0.36,-0.86,264.53,5.6,-0.3,0.75,0.25,0.0,0.0,0.0,1.5,1.0,0.0,0.25,0.0,0.0,0.0,0.0,0.39,0.14,-0.42,54.66,-4.4,47.0
5.54,2.25,0.5,1.25,2.0,1.75,2.0,3.25,3.75,2.75,2.0,2.5,1.0,0.5,-0.05,-0.3,-0.67,300.09,5.5,-3.2,0.75,0.0,0.0,0.0,0.0,1.25,1.0,0.0,0.25,0.0,0.0,0.0,0.0,0.45,0.14,-0.48,50.54,-6.1,43.1
5.56,2.25,0.5,1.25,2.25,1.75,2.0,3.25,3.75,2.75,1.75,2.75,1.0,0.5,-0.05,-0.23,-0.48,326.0,5.9,-2.5,1.0,0.25,0.0,0.0,0.0,1.5,0.75,0.0,0.25,0.0,0.5,0.0,0.0,0.52,0.02,-0.36,53.22,-6.3,34.8
5.58,2.25,0.5,1.25,2.5,3.0,1.75,3.25,3.5,2.75,1.75,2.75,1.0,1.0,0.02,-0.17,-0.36,348.88,5.6,-0.9,0.75,0.0,0.0,0.0,0.0,1.5,1.0,0.0,0.25,0.0,0.0,0.0,0.0,0.58,-0.17,-0.23,51.76,-3.7,42.3
5.6,2.0,0.5,1.0,2.25,2.25,1.75,3.0,3.75,2.5,1.75,2.5,1.0,1.0,0.02,-0.05,-0.3,351.2,4.7,-4.5,0.5,0.25,0.0,0.0,0.0,1.5,1.0,0.0,0.25,0.0,0.0,0.0,0.0,0.52,-0.23,-0.17,50.05,-1.9,42.9
5.62,2.25,0.5,1.5,2.0,1.75,1.5,2.75,3.75,2.5,1.75,2.5,1.0,0.75,0.14,-0.05,-0.17,345.27,6.1,-3.6,1.0,0.25,0.0,0.0,0.0,1.25,1.0,0.0,0.25,0.0,0.0,0.0,0.0,0.52,-0.3,-0.11,50.0,-8.8,51.9
5.64,2.0,0.5,1.25,2.25,1.25,1.75,3.0,3.75,2.5,1.75,2.0,1.0,1.0,0.45,-0.11,0.02,334.36,5.3,-5.3,0.75,0.0,0.0,0.0,0.0,1.5,1.0,0.0,0.25,0.0,0.0,0.0,0.0,0.45,-0.42,-0.05,49.15,-3.7,42.3
5.66,2.25,0.5,1.25,2.25,1.75,2.0,2.75,3.25,2.5,1.75,3.0,1.0,0.5,0.7,-0.11,0.27,327.6,6.1,-2.4,1.0,0.0,0.0,0.0,0.0,1.5,1.0,0.0,0.25,0.0,0.0,0.0,0.0,0.33,-0.61,0.08,49.46,-6.1,46.5
5.68,2.25,0.5,1.25,2.25,1.75,1.75,2.75,3.75,2.5,1.75,2.5,1.0,0.25,0.77,-0.3,0.58,319.18,6.0,-0.8,1.0,0.0,0.0,0.0,0.0,1.75,1.0,0.0,0.25,0.0,0.0,0.0,0.0,0.33,-0.73,0.2,51.47,-4.0,45.7
5.7,2.25,0.5,1.25,2.0,1.75,1.75,2.75,3.75,2.5,1.75,2.5,1.0,1.0,0.52,-0.42,0.58,315.59,5.3,-5.1,0.75,0.25,0.0,0.0,0.0,1.5,1.0,0.0,0.25,0.0,0.0,0.0,0.0,0.33,-0.86,0.39,52.95,-4.4,47.0
5.72,2.0,0.5,1.25,2.25,1.75,1.75,2.75,3.75,2.5,1.75,2.5,1.0,0.75,0.27,-0.55,0.45,309.1,5.3,-4.3,1.0,0.0,0.0,0.0,0.0,1.5,1.0,0.0,0.25,0.0,0.0,0.0,0.0,0.27,-1.05,0.39,53.51,-6.1,46.5
5.74,2.25,0.5,1.25,2.0,1.75,1.75,3.0,3.25,2.5,1.75,2.25,1.0,0.0,0.2,-0.73,0.39,295.96,6.7,1.5,0.75,0.25,0.0,0.0,0.0,1.25,1.0,0.0,0.25,0.0,0.0,0.0,0.0,0.2,-1.17,0.45,52.14,-6.7,48.1
5.76,2.25,0.5,1.25,2.25,1.75,1.75,3.0,3.5,2.5,1.75,2.25,1.0,0.75,0.2,-0.98,0.52,294.36,5.9,-1.9,1.0,0.0,0.0,0.0,0.0,1.5,1.0,0.0,0.25,0.0,0.0,0.0,0.0,0.2,-1.36,0.39,51.99,-6.1,46.5
5.78,2.25,0.5,1.25,2.25,2.25,1.75,2.75,3.25,2.5,1.75,2.75,1.0,0.5,0.14,-1.17,0.64,296.29,6.1,-0.7,1.25,0.0,0.0,0.0,0.0,1.5,1.0,0.0,0.25,0.0,0.0,0.0,0.0,0.2,-1.61,0.39,53.3,-8.1,50.2
5.8,2.0,0.5,1.25,2.0,1.75,1.5,2.75,3.5,2.5,1.75,2.75,1.0,0.5,0.08,-1.23,0.77,295.29,6.0,-4.6,1.25,0.25,0.0,0.0,0.0,1.25,1.0,0.0,0.25,0.0,0.0,0.0,0.0,0.27,-1.55,0.58,54.98,-10.6,55.1
5.82,2.25,0.5,1.25,1.75,1.75,1.75,3.0,3.5,2.5,1.75,2.0,1.0,0.5,0.02,-1.3,0.64,292.97,5.8,-1.3,0.75,0.0,0.0,0.0,0.0,1.25,1.0,0.0,0.25,0.0,0.0,0.0,0.0,0.2,-1.42,0.58,52.88,-6.1,43.1
5.84,2.0,0.5,1.25,2.0,1.75,1.75,3.0,3.25,2.5,1.75,3.0,1.0,1.0,0.14,-1.23,0.58,295.41,5.7,-6.7,1.0,0.0,0.0,0.0,0.0,1.25,1.0,0.0,0.25,0.0,0.0,0.0,0.0,0.2,-1.11,0.52,50.98,-8.5,47.6
5.86,2.25,0.5,1.25,2.25,1.75,1.5,2.75,4.25,2.5,1.75,2.25,1.0,0.75,0.08,-1.3,0.7,297.92,5.3,-3.6,0.75,0.0,0.0,0.0,0.0,1.5,1.0,0.0,0.25,0.0,0.5,0.0,0.0,0.2,-0.98,0.52,50.8,-4.7,25.2
5.88,2.25,0.5,1.25,2.0,1.75,1.75,2.75,3.75,2.5,1.75,2.25,1.0,1.0,-0.05,-1.3,0.77,299.63,5.2,-4.4,0.75,0.75,0.0,1.25,0.0,1.5,0.75,0.0,1.0,0.0,0.0,0.0,0.0,0.77,-1.55,0.89,65.49,-8.6,43.4
5.9,2.25,0.5,1.25,2.0,1.75,1.75,3.0,3.5,2.5,1.75,2.0,1.0,0.0,-0.23,-1.36,0.64,296.6,6.4,1.9,0.75,0.0,0.0,0.0,0.0,1.25,0.75,0.0,0.25,0.0,0.0,0.0,0.0,1.39,-1.48,0.95,61.57,-4.8,43.8
5.92,1.75,0.5,1.25,2.25,1.75,1.75,3.0,3.75,2.5,1.75,2.5,0.75,0.75,-0.48,-1.42,0.58,296.33,5.1,-4.0,0.75,0.25,0.0,0.0,0.0,1.5,1.0,0.0,0.25,0.0,0.0,0.0,0.0,1.7,-1.48,1.52,61.49,-4.4,47.0
5.94,2.25,0.5,1.0,2.25,1.75,1.75,2.75,3.25,2.5,1.75,2.5,1.0,0.75,-0.55,-1.48,0.58,294.78,5.7,-3.2,0.75,0.0,0.0,0.0,0.0,1.25,1.0,0.0,0.25,0.0,0.0,0.0,0.0,1.95,-1.55,1.33,53.18,-6.1,43.1
5.96,2.0,0.5,1.25,2.25,1.75,1.5,2.75,3.75,2.5,1.75,2.75,1.0,0.75,-0.36,-1.48,0.77,296.78,5.6,-5.4,0.75,0.0,0.0,0.0,0.0,1.25,1.0,0.0,0.25,0.0,0.0,0.0,0.0,2.08,-1.48,0.95,48.75,-6.1,43.1
5.98,2.25,0.5,1.25,2.25,1.75,2.0,3.0,3.75,2.5,1.75,2.0,1.0,0.5,-0.23,-1.42,0.77,298.71,5.5,0.0,0.75,0.25,0.0,0.0,0.0,1.5,0.75,0.0,0.25,0.0,0.0,0.0,0.0,1.64,-1.3,0.83,46.36,-3.3,47.8
6.0,2.0,0.5,1.25,2.0,1.75,1.75,3.0,3.25,2.5,1.75,2.25,1.0,0.5,-0.3,-1.42,0.7,296.36,6.0,-2.0,1.0,0.0,0.0,0.0,0.0,1.25,1.0,0.0,0.25,0.0,0.0,0.0,0.0,1.08,-1.11,0.77,47.03,-8.5,47.6
6.02,2.0,0.5,1.5,2.25,1.75,1.5,2.75,3.25,2.5,1.75,2.0,1.0,0.5,-0.48,-1.98,1.02,293.63,6.6,-0.3,1.0,0.0,0.0,0.0,0.0,1.25,1.0,0.0,0.25,0.0,0.0,0.0,0.0,0.7,-0.73,0.7,47.58,-8.5,47.6
6.04,2.25,0.5,1.25,2.5,1.75,1.5,3.0,3.25,2.5,1.75,2.0,1.0,0.5,-0.73,-1.73,1.83,292.59,6.8,0.7,0.75,0.0,0.0,0.0,0.0,1.5,1.0,0.0,0.25,0.0,0.0,0.0,0.0,0.33,-0.48,0.27,47.21,-3.7,42.3
6.06,2.0,0.5,1.25,2.0,1.75,1.5,3.0,3.5,2.5,1.75,2.0,1.0,1.0,-0.73,-1.36,2.58,291.47,5.5,-4.5,1.25,0.25,0.0,0.0,0.0,1.5,1.0,0.0,0.25,0.0,0.0,0.0,0.0,0.27,-0.23,0.2,51.98,-8.4,53.7
6.08,2.0,0.5,1.25,2.25,1.75,1.75,2.75,3.5,2.5,1.75,2.5,1.0,0.5,-0.42,-1.48,2.45,292.21,5.8,-2.7,0.75,0.0,0.0,0.0,0.0,1.25,0.75,0.0,0.25,0.0,0.0,0.0,0.0,0.2,-0.17,0.14,48.57,-4.8,43.8
6.1,2.0,0.5,1.25,2.0,1.75,1.5,3.0,3.0,2.5,1.75,2.0,1.0,0.75,-0.05,-1.3,1.83,289.97,6.3,-2.5,1.0,0.0,0.0,0.0,0.0,1.25,1.0,0.0,0.25,0.0,0.0,0.0,0.0,0.2,-0.17,0.2,48.06,-8.5,47.6
6.12,2.0,0.5,1.25,1.75,0.75,1.75,2.75,3.25,2.5,1.75,1.25,1.0,0.5,0.2,-0.92,1.14,280.73,6.0,-2.7,0.75,0.0,0.0,0.0,0.0,1.5,0.75,0.0,0.25,0.0,0.0,0.0,0.0,0.27,-0.17,0.33,45.6,-2.4,43.0
6.14,2.0,0.5,1.25,1.75,1.75,1.5,2.75,3.25,2.5,1.75,2.5,1.0,0.25,0.45,-0.55,0.7,277.91,6.3,-2.9,0.75,0.0,0.0,0.0,0.0,1.25,1.0,0.0,0.25,0.0,0.0,0.0,0.0,0.39,-0.3,0.27,46.92,-6.1,43.1
6.16,2.0,0.5,1.25,2.0,1.75,1.75,2.75,3.5,2.5,1.75,2.25,1.0,0.5,0.64,-0.3,0.33,278.84,5.6,-2.6,0.75,0.0,0.0,0.0,0.0,1.25,1.0,0.0,0.25,0.0,0.0,0.0,0.0,0.39,-0.3,0.27,44.76,-6.1,43.1
6.18,2.0,0.5,1.25,2.25,1.75,1.75,2.75,3.25,2.5,1.75,2.0,1.0,0.5,0.52,-0.05,0.27,282.78,5.9,-0.7,0.5,0.0,0.0,0.0,0.0,0.75,1.0,0.0,0.25,0.0,0.0,0.0,0.0,0.39,-0.3,0.2,40.42,-9.8,38.6
6.2,1.75,0.5,1.25,2.5,1.75,1.75,2.75,3.0,2.5,1.75,2.25,1.0,1.0,0.33,0.02,0.14,287.45,5.6,-3.9,1.75,0.75,0.0,1.5,0.0,1.75,1.0,0.0,0.75,0.5,0.0,0.25,0.0,0.33,-0.23,0.33,68.58,-9.8,39.9
6.22,2.0,0.5,1.25,2.25,1.75,1.5,2.75,3.25,2.5,1.75,2.25,1.0,0.75,0.27,0.2,0.14,290.5,6.0,-3.1,2.0,0.75,0.0,2.0,0.0,1.5,1.0,0.75,0.75,0.5,0.75,0.25,1.0,0.27,-0.3,0.39,107.91,-7.4,14.2
6.24,2.25,0.5,1.25,2.5,1.75,1.5,2.75,3.25,2.5,1.75,2.5,1.0,0.0,0.39,0.39,0.39,292.24,7.2,1.5,1.75,0.75,1.0,1.5,1.5,1.5,1.0,1.0,0.75,0.5,1.0,0.5,0.5,0.33,-0.23,0.52,155.82,-8.0,19.8
6.26,2.25,0.5,1.25,2.5,1.75,1.5,2.75,3.25,2.5,1.75,2.5,1.0,0.5,0.39,0.33,0.52,293.93,6.7,-0.9,1.75,0.5,1.0,1.75,1.5,1.75,1.0,1.0,0.75,0.5,1.25,0.5,0.5,0.33,-0.23,0.52,189.83,-7.6,17.5
6.28,2.25,0.5,1.25,2.5,1.75,1.5,3.0,3.25,2.5,1.75,2.0,1.0,0.5,0.2,0.02,0.83,295.02,6.8,0.7,1.0,0.0,1.0,0.0,0.0,1.5,0.75,0.0,0.25,0.0,0.0,0.0,0.0,0.27,-0.23,0.58,169.89,-13.6,50.8
6.3,2.25,0.5,1.0,2.25,1.75,1.75,2.75,3.25,2.5,1.75,2.75,1.0,0.25,-0.17,-0.67,1.14,295.85,6.2,-1.5,1.25,0.0,0.0,0.0,0.0,1.5,0.75,0.0,0.25,0.0,0.0,0.0,0.0,0.14,-0.23,0.58,134.24,-7.2,51.0
6.32,2.25,0.5,1.0,1.75,1.75,2.0,2.75,3.5,2.5,1.75,2.25,1.0,0.75,-0.3,-1.17,1.2,295.7,4.8,-3.8,1.0,0.0,0.0,0.0,0.0,1.5,0.75,0.0,0.25,0.0,0.0,0.0,0.0,0.33,-0.23,0.58,93.2,-5.0,47.3
6.34,2.25,0.5,1.25,2.0,1.75,1.75,2.75,3.5,2.5,1.75,2.0,1.0,0.25,-0.73,-0.67,1.02,294.83,6.1,0.4,1.0,0.0,0.0,0.0,0.0,1.5,0.75,0.0,0.25,0.0,0.0,0.0,0.0,0.27,-0.42,1.14,67.62,-5.0,47.3
6.36,2.0,0.5,1.25,1.75,1.75,1.75,2.5,3.5,2.5,1.75,2.0,1.0,1.0,-0.98,-0.86,1.14,293.06,4.8,-5.2,2.25,0.75,1.0,1.25,0.0,2.0,0.5,1.25,1.0,0.5,1.0,0.5,0.75,1.08,-1.98,1.14,101.4,-7.8,12.5
6.38,2.25,0.5,1.25,2.25,1.75,2.0,2.75,3.5,2.5,1.75,2.25,1.0,0.75,-1.36,-1.92,1.77,294.56,5.5,-1.7,3.0,0.75,0.0,1.0,0.0,1.75,0.5,1.25,1.0,0.75,1.25,0.5,1.0,1.45,-1.48,1.08,138.99,-6.4,5.8
6.4,2.25,0.75,1.25,2.25,1.75,2.25,2.75,3.5,2.75,1.75,2.5,1.0,0.75,-1.11,-0.73,0.7,300.98,5.4,-1.4,2.0,0.25,1.0,0.0,1.5,1.5,0.75,0.0,0.75,0.0,0.0,0.0,1.0,1.14,0.2,0.39,154.96,-9.0,33.2
6.42,1.75,0.5,1.25,2.0,1.75,2.5,2.75,3.5,2.75,1.75,2.5,1.0,0.75,-0.61,0.02,0.58,305.37,4.3,-4.8,2.25,0.0,0.75,0.0,0.0,1.5,0.75,0.0,0.75,0.0,0.25,0.0,0.0,1.2,0.27,0.45,138.42,-16.6,46.9
6.44,2.25,0.5,1.0,1.75,1.75,2.5,2.5,3.5,2.75,1.75,3.25,1.0,0.25,-0.3,-0.36,0.58,307.82,4.9,-4.2,2.75,0.25,1.0,0.0,0.0,1.5,1.0,0.0,1.0,0.0,0.25,0.0,0.0,1.14,-0.17,0.45,121.86,-18.6,49.4
6.46,2.25,0.5,1.0,2.25,1.75,2.25,2.5,3.5,2.75,1.75,2.5,1.0,0.25,-0.36,-0.42,0.45,306.34,5.2,-1.0,3.0,0.25,1.0,0.0,0.0,1.5,0.75,0.0,1.0,0.0,0.0,0.0,0.0,1.08,-0.17,0.33,108.65,-19.2,55.8
6.48,2.25,0.5,1.25,2.25,1.75,2.5,2.5,3.5,3.0,1.75,2.25,1.0,1.0,-0.3,-0.42,0.58,309.72,4.7,-3.1,3.25,0.25,1.0,0.0,0.0,1.5,1.0,0.0,1.0,0.0,0.25,0.0,0.0,0.89,0.02,0.08,111.41,-19.6,52.4
6.5,2.25,0.5,1.25,2.5,1.75,2.25,2.5,3.5,3.25,1.75,2.0,1.0,0.5,-0.23,-0.42,0.7,311.11,5.6,-0.1,3.25,0.0,1.0,0.0,0.0,1.5,1.0,0.0,1.0,0.0,0.25,0.0,0.25,0.89,-0.05,0.02,120.52,-18.7,45.2
6.52,2.25,0.75,1.0,2.5,1.75,2.25,2.5,3.5,3.5,1.75,2.25,1.0,0.5,-0.23,-0.23,1.02,316.2,5.4,-0.8,4.5,0.75,3.5,1.25,1.5,1.75,1.0,0.5,1.0,0.5,1.25,0.5,0.5,0.64,-0.11,0.33,181.61,-16.4,36.0
6.54,2.5,0.25,1.0,2.5,1.75,2.0,2.75,3.5,3.5,1.75,2.25,1.0,0.25,-0.86,-0.05,0.77,315.65,6.2,-1.0,3.75,0.75,4.0,1.75,1.5,1.75,1.0,1.0,1.0,0.5,1.25,0.0,0.5,0.45,-0.11,0.33,225.44,-15.6,36.9
